
time,ax,ay,az,wx,wy,wz,
0.002,-0.12,0.65,-1.52,-0.52,-0.58,0.06,
0.002,-0.12,0.65,-1.52,-0.53,-0.59,0.06,
0.003,-0.12,0.65,-1.52,-0.56,-0.62,0.07,
0.003,-0.27,0.83,-1.33,-0.56,-0.62,0.07,
0.003,-0.27,0.83,-1.33,-0.58,-0.65,0.08,
0.004,-0.27,0.83,-1.33,-0.59,-0.66,0.08,
0.008,-0.27,0.83,-1.33,-0.62,-0.68,0.09,
0.01,-0.27,0.83,-1.33,-0.63,-0.68,0.09,
0.01,-0.27,0.83,-1.33,-0.63,-0.69,0.10,
0.013,-0.15,0.95,-0.90,-0.63,-0.69,0.10,
0.013,-0.15,0.95,-0.90,-0.64,-0.69,0.10,
0.014,-0.15,0.95,-0.90,-0.65,-0.69,0.10,
0.016,-0.15,0.95,-0.90,-0.66,-0.68,0.11,
0.017,-0.15,0.95,-0.90,-0.66,-0.67,0.11,
0.019,-0.15,0.95,-0.90,-0.66,-0.67,0.11,
0.021,0.21,0.90,-0.38,-0.66,-0.67,0.11,
0.021,0.21,0.90,-0.38,-0.66,-0.66,0.10,
0.026,0.21,0.90,-0.38,-0.66,-0.65,0.10,
0.027,0.21,0.90,-0.38,-0.66,-0.63,0.09,
0.03,0.21,0.90,-0.38,-0.65,-0.63,0.08,
0.03,0.21,0.90,-0.38,-0.65,-0.61,0.07,
0.031,0.68,0.80,0.01,-0.65,-0.61,0.07,
0.031,0.68,0.80,0.01,-0.64,-0.60,0.06,
0.033,0.68,0.80,0.01,-0.63,-0.59,0.05,
0.036,0.68,0.80,0.01,-0.62,-0.56,0.03,
0.037,0.68,0.80,0.01,-0.61,-0.55,0.02,
0.041,0.68,0.80,0.01,-0.60,-0.53,0.00,
0.042,1.02,0.69,0.32,-0.60,-0.53,0.00,
0.042,1.02,0.69,0.32,-0.59,-0.50,-0.01,
0.043,1.02,0.69,0.32,-0.58,-0.47,-0.03,
0.046,1.02,0.69,0.32,-0.56,-0.43,-0.05,
0.047,1.02,0.69,0.32,-0.56,-0.42,-0.06,
0.049,1.02,0.69,0.32,-0.54,-0.39,-0.07,
0.051,1.00,0.60,0.58,-0.54,-0.39,-0.07,
0.051,1.00,0.60,0.58,-0.52,-0.36,-0.09,
0.053,1.00,0.60,0.58,-0.51,-0.33,-0.10,
0.065,1.00,0.60,0.58,-0.48,-0.30,-0.11,
0.065,1.00,0.60,0.58,-0.47,-0.29,-0.11,
0.066,1.00,0.60,0.58,-0.45,-0.27,-0.12,
0.066,0.74,0.64,0.80,-0.45,-0.27,-0.12,
0.066,0.74,0.64,0.80,-0.43,-0.24,-0.13,
0.067,0.74,0.64,0.80,-0.42,-0.23,-0.13,
0.067,0.74,0.64,0.80,-0.39,-0.20,-0.14,
0.068,0.74,0.64,0.80,-0.38,-0.19,-0.14,
0.072,0.74,0.64,0.80,-0.35,-0.19,-0.13,
0.1,0.32,0.59,0.88,-0.35,-0.19,-0.13,
0.1,0.32,0.59,0.88,-0.34,-0.18,-0.13,
0.1,0.32,0.59,0.88,-0.32,-0.17,-0.13,
0.101,0.32,0.59,0.88,-0.28,-0.16,-0.12,
0.101,0.32,0.59,0.88,-0.27,-0.16,-0.11,
0.101,0.32,0.59,0.88,-0.25,-0.16,-0.10,
0.102,-0.28,0.55,0.95,-0.25,-0.16,-0.10,
0.102,-0.28,0.55,0.95,-0.23,-0.16,-0.09,
0.102,-0.28,0.55,0.95,-0.21,-0.17,-0.07,
0.103,-0.28,0.55,0.95,-0.17,-0.17,-0.05,
0.103,-0.28,0.55,0.95,-0.15,-0.17,-0.04,
0.103,-0.28,0.55,0.95,-0.12,-0.18,-0.02,
0.103,-0.75,0.60,1.06,-0.12,-0.18,-0.02,
0.104,-0.75,0.60,1.06,-0.09,-0.18,0.00,
0.104,-0.75,0.60,1.06,-0.07,-0.18,0.02,
0.104,-0.75,0.60,1.06,-0.02,-0.19,0.06,
0.105,-0.75,0.60,1.06,-0.00,-0.20,0.07,
0.105,-0.75,0.60,1.06,0.02,-0.21,0.08,
0.118,-1.00,0.61,1.08,0.02,-0.21,0.08,
0.118,-1.00,0.61,1.08,0.06,-0.22,0.10,
0.119,-1.00,0.61,1.08,0.08,-0.23,0.12,
0.119,-1.00,0.61,1.08,0.13,-0.25,0.15,
0.12,-1.00,0.61,1.08,0.15,-0.25,0.15,
0.12,-1.00,0.61,1.08,0.18,-0.27,0.17,
0.121,-0.91,0.55,0.96,0.18,-0.27,0.17,
0.121,-0.91,0.55,0.96,0.20,-0.28,0.19,
0.121,-0.91,0.55,0.96,0.23,-0.29,0.20,
0.122,-0.91,0.55,0.96,0.27,-0.31,0.22,
0.122,-0.91,0.55,0.96,0.28,-0.32,0.23,
0.123,-0.91,0.55,0.96,0.30,-0.33,0.24,
0.123,-0.74,0.55,0.74,0.30,-0.33,0.24,
0.123,-0.74,0.55,0.74,0.32,-0.34,0.25,
0.124,-0.74,0.55,0.74,0.34,-0.35,0.26,
0.138,-0.74,0.55,0.74,0.37,-0.37,0.28,
0.138,-0.74,0.55,0.74,0.37,-0.38,0.29,
0.139,-0.74,0.55,0.74,0.39,-0.39,0.30,
0.139,-0.63,0.46,0.47,0.39,-0.39,0.30,
0.139,-0.63,0.46,0.47,0.40,-0.41,0.32,
0.139,-0.63,0.46,0.47,0.41,-0.42,0.33,
0.14,-0.63,0.46,0.47,0.43,-0.43,0.35,
0.14,-0.63,0.46,0.47,0.43,-0.43,0.35,
0.14,-0.63,0.46,0.47,0.44,-0.44,0.37,
0.144,-0.67,0.49,0.38,0.44,-0.44,0.37,
0.144,-0.67,0.49,0.38,0.46,-0.44,0.38,
0.144,-0.67,0.49,0.38,0.47,-0.45,0.39,
0.146,-0.67,0.49,0.38,0.48,-0.46,0.41,
0.147,-0.67,0.49,0.38,0.48,-0.46,0.42,
0.149,-0.67,0.49,0.38,0.49,-0.47,0.43,
0.151,-0.60,0.56,0.25,0.49,-0.47,0.43,
0.151,-0.60,0.56,0.25,0.50,-0.47,0.44,
0.153,-0.60,0.56,0.25,0.50,-0.48,0.46,
0.166,-0.60,0.56,0.25,0.52,-0.49,0.47,
0.166,-0.60,0.56,0.25,0.52,-0.49,0.48,
0.167,-0.60,0.56,0.25,0.52,-0.50,0.48,
0.167,-0.43,0.63,0.13,0.52,-0.50,0.48,
0.167,-0.43,0.63,0.13,0.53,-0.50,0.49,
0.167,-0.43,0.63,0.13,0.53,-0.50,0.49,
0.168,-0.43,0.63,0.13,0.54,-0.51,0.50,
0.168,-0.43,0.63,0.13,0.54,-0.51,0.50,
0.169,-0.43,0.63,0.13,0.55,-0.51,0.50,
0.172,-0.15,0.63,0.06,0.55,-0.51,0.50,
0.172,-0.15,0.63,0.06,0.56,-0.51,0.51,
0.174,-0.15,0.63,0.06,0.57,-0.51,0.51,
0.176,-0.15,0.63,0.06,0.57,-0.52,0.51,
0.177,-0.15,0.63,0.06,0.58,-0.52,0.51,
0.179,-0.15,0.63,0.06,0.58,-0.52,0.51,
0.184,0.06,0.53,-0.02,0.58,-0.52,0.51,
0.184,0.06,0.53,-0.02,0.59,-0.52,0.51,
0.184,0.06,0.53,-0.02,0.59,-0.52,0.51,
0.185,0.06,0.53,-0.02,0.60,-0.52,0.51,
0.187,0.06,0.53,-0.02,0.60,-0.51,0.52,
0.198,0.06,0.53,-0.02,0.61,-0.51,0.52,
0.199,0.23,0.49,-0.13,0.61,-0.51,0.52,
0.199,0.23,0.49,-0.13,0.61,-0.50,0.51,
0.199,0.23,0.49,-0.13,0.61,-0.50,0.51,
0.2,0.23,0.49,-0.13,0.61,-0.49,0.50,
0.2,0.23,0.49,-0.13,0.61,-0.49,0.50,
0.2,0.23,0.49,-0.13,0.61,-0.49,0.50,
0.201,0.44,0.50,-0.37,0.61,-0.49,0.50,
0.201,0.44,0.50,-0.37,0.61,-0.49,0.49,
0.203,0.44,0.50,-0.37,0.60,-0.49,0.48,
0.206,0.44,0.50,-0.37,0.58,-0.50,0.47,
0.207,0.44,0.50,-0.37,0.58,-0.50,0.46,
0.211,0.44,0.50,-0.37,0.57,-0.51,0.46,
0.211,0.35,0.38,-0.63,0.57,-0.51,0.46,
0.211,0.35,0.38,-0.63,0.56,-0.52,0.45,
0.212,0.35,0.38,-0.63,0.54,-0.53,0.45,
0.216,0.35,0.38,-0.63,0.52,-0.56,0.44,
0.216,0.35,0.38,-0.63,0.51,-0.56,0.44,
0.219,0.35,0.38,-0.63,0.48,-0.58,0.45,
0.223,-0.24,0.15,-0.82,0.48,-0.58,0.45,
0.223,-0.24,0.15,-0.82,0.47,-0.60,0.45,
0.223,-0.24,0.15,-0.82,0.44,-0.63,0.46,
0.226,-0.24,0.15,-0.82,0.41,-0.68,0.49,
0.227,-0.24,0.15,-0.82,0.40,-0.71,0.50,
0.228,-0.24,0.15,-0.82,0.38,-0.76,0.52,
0.231,-1.39,-0.17,-0.83,0.38,-0.76,0.52,
0.231,-1.39,-0.17,-0.83,0.36,-0.82,0.55,
0.233,-1.39,-0.17,-0.83,0.34,-0.90,0.59,
0.24,-1.39,-0.17,-0.83,0.30,-1.04,0.67,
0.244,-1.39,-0.17,-0.83,0.29,-1.09,0.69,
0.244,-1.39,-0.17,-0.83,0.26,-1.21,0.75,
0.244,-2.91,-0.55,-0.55,0.26,-1.21,0.75,
0.245,-2.91,-0.55,-0.55,0.24,-1.33,0.82,
0.245,-2.91,-0.55,-0.55,0.22,-1.47,0.89,
0.246,-2.91,-0.55,-0.55,0.19,-1.70,1.01,
0.247,-2.91,-0.55,-0.55,0.18,-1.78,1.05,
0.248,-2.91,-0.55,-0.55,0.18,-1.95,1.14,
0.251,-4.00,-0.74,0.01,0.18,-1.95,1.14,
0.251,-4.00,-0.74,0.01,0.17,-2.11,1.23,
0.253,-4.00,-0.74,0.01,0.16,-2.27,1.32,
0.258,-4.00,-0.74,0.01,0.17,-2.50,1.45,
0.259,-4.00,-0.74,0.01,0.18,-2.58,1.49,
0.26,-4.00,-0.74,0.01,0.19,-2.70,1.57,
0.261,-4.37,-0.68,0.87,0.19,-2.70,1.57,
0.261,-4.37,-0.68,0.87,0.21,-2.81,1.66,
0.263,-4.37,-0.68,0.87,0.23,-2.90,1.73,
0.266,-4.37,-0.68,0.87,0.29,-2.99,1.84,
0.288,-4.37,-0.68,0.87,0.32,-3.02,1.87,
0.289,-4.37,-0.68,0.87,0.37,-3.05,1.93,
0.289,-3.42,-0.39,2.22,0.37,-3.05,1.93,
0.29,-3.42,-0.39,2.22,0.43,-3.07,1.98,
0.29,-3.42,-0.39,2.22,0.50,-3.08,2.03,
0.29,-3.42,-0.39,2.22,0.61,-3.06,2.07,
0.29,-3.42,-0.39,2.22,0.65,-3.04,2.08,
0.29,-3.42,-0.39,2.22,0.74,-3.00,2.09,
0.291,-1.58,-0.21,3.57,0.74,-3.00,2.09,
0.291,-1.58,-0.21,3.57,0.82,-2.94,2.09,
0.291,-1.58,-0.21,3.57,0.91,-2.86,2.07,
0.291,-1.58,-0.21,3.57,1.04,-2.72,2.03,
0.292,-1.58,-0.21,3.57,1.09,-2.66,2.02,
0.292,-1.58,-0.21,3.57,1.17,-2.54,1.97,
0.292,0.74,-0.26,4.10,1.17,-2.54,1.97,
0.292,0.74,-0.26,4.10,1.25,-2.43,1.92,
0.292,0.74,-0.26,4.10,1.32,-2.31,1.86,
0.306,0.74,-0.26,4.10,1.41,-2.14,1.76,
0.307,0.74,-0.26,4.10,1.44,-2.08,1.72,
0.307,0.74,-0.26,4.10,1.48,-1.97,1.64,
0.307,2.76,-0.38,3.65,1.48,-1.97,1.64,
0.307,2.76,-0.38,3.65,1.52,-1.86,1.56,
0.308,2.76,-0.38,3.65,1.55,-1.76,1.47,
0.308,2.76,-0.38,3.65,1.56,-1.60,1.33,
0.308,2.76,-0.38,3.65,1.56,-1.55,1.28,
0.309,2.76,-0.38,3.65,1.55,-1.45,1.18,
0.319,3.85,-0.04,2.46,1.55,-1.45,1.18,
0.32,3.85,-0.04,2.46,1.53,-1.35,1.08,
0.32,3.85,-0.04,2.46,1.50,-1.26,0.97,
0.32,3.85,-0.04,2.46,1.44,-1.16,0.83,
0.32,3.85,-0.04,2.46,1.41,-1.12,0.78,
0.32,3.85,-0.04,2.46,1.35,-1.05,0.69,
0.322,4.30,0.71,0.87,1.35,-1.05,0.69,
0.322,4.30,0.71,0.87,1.27,-0.97,0.60,
0.322,4.30,0.71,0.87,1.18,-0.90,0.51,
0.326,4.30,0.71,0.87,1.03,-0.79,0.39,
0.331,4.30,0.71,0.87,0.98,-0.76,0.36,
0.332,4.30,0.71,0.87,0.87,-0.70,0.28,
0.333,3.79,1.01,-0.53,0.87,-0.70,0.28,
0.333,3.79,1.01,-0.53,0.76,-0.64,0.21,
0.333,3.79,1.01,-0.53,0.64,-0.58,0.14,
0.335,3.79,1.01,-0.53,0.46,-0.50,0.04,
0.338,3.79,1.01,-0.53,0.28,-0.42,-0.05,
0.339,3.79,1.01,-0.53,0.22,-0.40,-0.08,
0.34,3.14,1.00,-1.21,0.22,-0.40,-0.08,
0.34,3.14,1.00,-1.21,0.16,-0.37,-0.10,
0.342,3.14,1.00,-1.21,0.04,-0.32,-0.15,
0.345,3.14,1.00,-1.21,-0.12,-0.25,-0.22,
0.346,3.14,1.00,-1.21,-0.17,-0.22,-0.23,
0.348,3.14,1.00,-1.21,-0.27,-0.17,-0.27,
0.35,2.20,0.60,-0.82,-0.27,-0.17,-0.27,
0.35,2.20,0.60,-0.82,-0.36,-0.11,-0.29,
0.352,2.20,0.60,-0.82,-0.45,-0.06,-0.32,
0.355,2.20,0.60,-0.82,-0.56,0.03,-0.34,
0.356,2.20,0.60,-0.82,-0.59,0.06,-0.34,
0.358,2.20,0.60,-0.82,-0.65,0.11,-0.35,
0.36,1.13,0.16,0.15,-0.65,0.11,-0.35,
0.361,1.13,0.16,0.15,-0.70,0.17,-0.35,
0.362,1.13,0.16,0.15,-0.74,0.23,-0.35,
0.365,1.13,0.16,0.15,-0.79,0.32,-0.35,
0.366,1.13,0.16,0.15,-0.80,0.35,-0.34,
0.368,1.13,0.16,0.15,-0.82,0.42,-0.34,
0.371,0.41,-0.06,1.15,-0.82,0.42,-0.34,
0.371,0.41,-0.06,1.15,-0.83,0.48,-0.33,
0.372,0.41,-0.06,1.15,-0.82,0.55,-0.32,
0.375,0.41,-0.06,1.15,-0.80,0.64,-0.30,
0.376,0.41,-0.06,1.15,-0.79,0.66,-0.30,
0.379,0.41,-0.06,1.15,-0.77,0.71,-0.29,
0.38,0.26,-0.32,1.69,-0.77,0.71,-0.29,
0.381,0.26,-0.32,1.69,-0.74,0.75,-0.28,
0.383,0.26,-0.32,1.69,-0.69,0.78,-0.28,
0.386,0.26,-0.32,1.69,-0.63,0.81,-0.28,
0.387,0.26,-0.32,1.69,-0.61,0.82,-0.28,
0.388,0.26,-0.32,1.69,-0.56,0.83,-0.29,
0.391,0.46,-0.58,1.75,-0.56,0.83,-0.29,
0.391,0.46,-0.58,1.75,-0.50,0.84,-0.29,
0.392,0.46,-0.58,1.75,-0.45,0.84,-0.30,
0.396,0.46,-0.58,1.75,-0.36,0.83,-0.32,
0.397,0.46,-0.58,1.75,-0.33,0.82,-0.33,
0.398,0.46,-0.58,1.75,-0.27,0.80,-0.34,
0.401,0.67,-0.74,1.31,-0.27,0.80,-0.34,
0.401,0.67,-0.74,1.31,-0.22,0.77,-0.36,
0.403,0.67,-0.74,1.31,-0.16,0.73,-0.37,
0.406,0.67,-0.74,1.31,-0.08,0.66,-0.40,
0.407,0.67,-0.74,1.31,-0.06,0.64,-0.41,
0.412,0.67,-0.74,1.31,-0.02,0.58,-0.42,
0.412,0.64,-0.72,0.53,-0.02,0.58,-0.42,
0.412,0.64,-0.72,0.53,0.02,0.52,-0.43,
0.412,0.64,-0.72,0.53,0.06,0.46,-0.44,
0.415,0.64,-0.72,0.53,0.12,0.37,-0.45,
0.416,0.64,-0.72,0.53,0.14,0.33,-0.45,
0.418,0.64,-0.72,0.53,0.17,0.26,-0.45,
0.421,0.31,-0.67,-0.23,0.17,0.26,-0.45,
0.421,0.31,-0.67,-0.23,0.20,0.17,-0.45,
0.423,0.31,-0.67,-0.23,0.23,0.08,-0.45,
0.425,0.31,-0.67,-0.23,0.27,-0.04,-0.44,
0.427,0.31,-0.67,-0.23,0.28,-0.08,-0.44,
0.428,0.31,-0.67,-0.23,0.29,-0.15,-0.44,
0.431,-0.14,-0.74,-0.95,0.29,-0.15,-0.44,
0.432,-0.14,-0.74,-0.95,0.30,-0.22,-0.43,
0.452,-0.14,-0.74,-0.95,0.30,-0.28,-0.42,
0.453,-0.14,-0.74,-0.95,0.28,-0.35,-0.41,
0.453,-0.14,-0.74,-0.95,0.28,-0.37,-0.40,
0.453,-0.14,-0.74,-0.95,0.27,-0.41,-0.38,
0.454,-0.54,-0.82,-1.63,0.27,-0.41,-0.38,
0.456,-0.54,-0.82,-1.63,0.26,-0.44,-0.36,
0.456,-0.54,-0.82,-1.63,0.24,-0.48,-0.34,
0.457,-0.54,-0.82,-1.63,0.23,-0.52,-0.29,
0.457,-0.54,-0.82,-1.63,0.22,-0.54,-0.27,
0.457,-0.54,-0.82,-1.63,0.20,-0.55,-0.24,
0.458,-0.96,-0.84,-1.93,0.20,-0.55,-0.24,
0.458,-0.96,-0.84,-1.93,0.18,-0.56,-0.21,
0.458,-0.96,-0.84,-1.93,0.16,-0.57,-0.17,
0.459,-0.96,-0.84,-1.93,0.13,-0.57,-0.12,
0.459,-0.96,-0.84,-1.93,0.11,-0.57,-0.10,
0.459,-0.96,-0.84,-1.93,0.09,-0.56,-0.07,
0.472,-1.11,-0.70,-2.12,0.09,-0.56,-0.07,
0.473,-1.11,-0.70,-2.12,0.06,-0.55,-0.04,
0.473,-1.11,-0.70,-2.12,0.04,-0.54,-0.01,
0.473,-1.11,-0.70,-2.12,-0.00,-0.51,0.03,
0.474,-1.11,-0.70,-2.12,-0.01,-0.49,0.05,
0.474,-1.11,-0.70,-2.12,-0.04,-0.47,0.07,
0.474,-0.69,-0.58,-2.00,-0.04,-0.47,0.07,
0.474,-0.69,-0.58,-2.00,-0.06,-0.43,0.09,
0.474,-0.69,-0.58,-2.00,-0.08,-0.40,0.10,
0.497,-0.69,-0.58,-2.00,-0.10,-0.35,0.12,
0.497,-0.69,-0.58,-2.00,-0.11,-0.33,0.13,
0.498,-0.69,-0.58,-2.00,-0.13,-0.29,0.13,
0.498,0.07,-0.58,-1.79,-0.13,-0.29,0.13,
0.498,0.07,-0.58,-1.79,-0.15,-0.26,0.13,
0.498,0.07,-0.58,-1.79,-0.17,-0.22,0.13,
0.498,0.07,-0.58,-1.79,-0.20,-0.17,0.13,
0.499,0.07,-0.58,-1.79,-0.21,-0.15,0.12,
0.499,0.07,-0.58,-1.79,-0.23,-0.11,0.11,
0.499,0.66,-0.57,-1.82,-0.23,-0.11,0.11,
0.499,0.66,-0.57,-1.82,-0.24,-0.08,0.10,
0.5,0.66,-0.57,-1.82,-0.26,-0.04,0.09,
0.5,0.66,-0.57,-1.82,-0.29,0.00,0.07,
0.5,0.66,-0.57,-1.82,-0.30,0.02,0.06,
0.5,0.66,-0.57,-1.82,-0.31,0.05,0.04,
0.506,1.00,-0.45,-1.93,-0.31,0.05,0.04,
0.507,1.00,-0.45,-1.93,-0.33,0.08,0.03,
0.507,1.00,-0.45,-1.93,-0.34,0.11,0.01,
0.508,1.00,-0.45,-1.93,-0.37,0.15,-0.02,
0.508,1.00,-0.45,-1.93,-0.38,0.16,-0.03,
0.509,1.00,-0.45,-1.93,-0.39,0.18,-0.05,
0.519,1.04,-0.35,-2.02,-0.39,0.18,-0.05,
0.519,1.04,-0.35,-2.02,-0.40,0.20,-0.07,
0.52,1.04,-0.35,-2.02,-0.42,0.22,-0.08,
0.521,1.04,-0.35,-2.02,-0.44,0.23,-0.11,
0.521,1.04,-0.35,-2.02,-0.44,0.24,-0.12,
0.522,1.04,-0.35,-2.02,-0.45,0.24,-0.14,
0.523,0.98,-0.35,-2.10,-0.45,0.24,-0.14,
0.523,0.98,-0.35,-2.10,-0.47,0.24,-0.17,
0.524,0.98,-0.35,-2.10,-0.48,0.24,-0.18,
0.535,0.98,-0.35,-2.10,-0.49,0.23,-0.21,
0.536,0.98,-0.35,-2.10,-0.49,0.23,-0.22,
0.537,0.98,-0.35,-2.10,-0.50,0.22,-0.23,
0.537,0.73,-0.35,-2.16,-0.50,0.22,-0.23,
0.538,0.73,-0.35,-2.16,-0.51,0.21,-0.24,
0.539,0.73,-0.35,-2.16,-0.52,0.20,-0.26,
0.539,0.73,-0.35,-2.16,-0.53,0.18,-0.27,
0.54,0.73,-0.35,-2.16,-0.53,0.17,-0.28,
0.54,0.73,-0.35,-2.16,-0.54,0.15,-0.29,
0.541,0.48,-0.27,-2.18,-0.54,0.15,-0.29,
0.542,0.48,-0.27,-2.18,-0.55,0.13,-0.30,
0.545,0.48,-0.27,-2.18,-0.55,0.11,-0.31,
0.546,0.48,-0.27,-2.18,-0.56,0.06,-0.33,
0.547,0.48,-0.27,-2.18,-0.56,0.05,-0.33,
0.552,0.48,-0.27,-2.18,-0.56,0.02,-0.34,
0.553,0.34,-0.23,-2.01,-0.56,0.02,-0.34,
0.553,0.34,-0.23,-2.01,-0.56,-0.01,-0.35,
0.554,0.34,-0.23,-2.01,-0.56,-0.03,-0.36,
0.574,0.34,-0.23,-2.01,-0.56,-0.06,-0.37,
0.575,0.34,-0.23,-2.01,-0.55,-0.07,-0.37,
0.575,0.34,-0.23,-2.01,-0.55,-0.09,-0.38,
0.576,0.19,-0.28,-1.81,-0.55,-0.09,-0.38,
0.576,0.19,-0.28,-1.81,-0.54,-0.10,-0.38,
0.577,0.19,-0.28,-1.81,-0.54,-0.12,-0.38,
0.577,0.19,-0.28,-1.81,-0.53,-0.13,-0.38,
0.577,0.19,-0.28,-1.81,-0.53,-0.14,-0.38,
0.578,0.19,-0.28,-1.81,-0.52,-0.15,-0.38,
0.578,-0.18,-0.29,-1.70,-0.52,-0.15,-0.38,
0.578,-0.18,-0.29,-1.70,-0.52,-0.17,-0.37,
0.579,-0.18,-0.29,-1.70,-0.52,-0.18,-0.37,
0.618,-0.18,-0.29,-1.70,-0.52,-0.20,-0.36,
0.619,-0.18,-0.29,-1.70,-0.51,-0.21,-0.36,
0.62,-0.18,-0.29,-1.70,-0.51,-0.23,-0.35,
0.622,-0.48,-0.30,-1.58,-0.51,-0.23,-0.35,
0.623,-0.48,-0.30,-1.58,-0.51,-0.24,-0.35,
0.623,-0.48,-0.30,-1.58,-0.51,-0.26,-0.34,
0.624,-0.48,-0.30,-1.58,-0.51,-0.29,-0.32,
0.625,-0.48,-0.30,-1.58,-0.51,-0.30,-0.32,
0.625,-0.48,-0.30,-1.58,-0.51,-0.31,-0.31,
0.625,-0.71,-0.27,-1.51,-0.51,-0.31,-0.31,
0.626,-0.71,-0.27,-1.51,-0.51,-0.33,-0.30,
0.626,-0.71,-0.27,-1.51,-0.51,-0.34,-0.29,
0.627,-0.71,-0.27,-1.51,-0.51,-0.37,-0.27,
0.627,-0.71,-0.27,-1.51,-0.51,-0.37,-0.26,
0.627,-0.71,-0.27,-1.51,-0.50,-0.38,-0.25,
0.66,-0.77,-0.22,-1.36,-0.50,-0.38,-0.25,
0.661,-0.77,-0.22,-1.36,-0.50,-0.39,-0.24,
0.662,-0.77,-0.22,-1.36,-0.50,-0.40,-0.23,
0.663,-0.77,-0.22,-1.36,-0.50,-0.41,-0.22,
0.663,-0.77,-0.22,-1.36,-0.50,-0.41,-0.22,
0.664,-0.77,-0.22,-1.36,-0.49,-0.41,-0.21,
0.664,-0.58,-0.11,-1.14,-0.49,-0.41,-0.21,
0.665,-0.58,-0.11,-1.14,-0.49,-0.41,-0.20,
0.666,-0.58,-0.11,-1.14,-0.49,-0.41,-0.20,
0.666,-0.58,-0.11,-1.14,-0.49,-0.39,-0.20,
0.667,-0.58,-0.11,-1.14,-0.48,-0.39,-0.19,
0.668,-0.58,-0.11,-1.14,-0.48,-0.37,-0.19,
0.669,-0.41,0.05,-0.93,-0.48,-0.37,-0.19,
0.67,-0.41,0.05,-0.93,-0.47,-0.36,-0.19,
0.67,-0.41,0.05,-0.93,-0.48,-0.34,-0.19,
0.671,-0.41,0.05,-0.93,-0.48,-0.33,-0.19,
0.672,-0.41,0.05,-0.93,-0.48,-0.33,-0.19,
0.673,-0.41,0.05,-0.93,-0.48,-0.32,-0.18,
0.674,-0.39,0.09,-0.76,-0.48,-0.32,-0.18,
0.674,-0.39,0.09,-0.76,-0.48,-0.32,-0.18,
0.675,-0.39,0.09,-0.76,-0.48,-0.31,-0.18,
0.675,-0.39,0.09,-0.76,-0.49,-0.30,-0.17,
0.678,-0.39,0.09,-0.76,-0.49,-0.30,-0.17,
0.679,-0.39,0.09,-0.76,-0.50,-0.29,-0.17,
0.679,-0.47,0.07,-0.71,-0.50,-0.29,-0.17,
0.68,-0.47,0.07,-0.71,-0.51,-0.29,-0.16,
0.68,-0.47,0.07,-0.71,-0.51,-0.28,-0.16,
0.68,-0.47,0.07,-0.71,-0.53,-0.28,-0.16,
0.681,-0.47,0.07,-0.71,-0.54,-0.28,-0.15,
0.681,-0.47,0.07,-0.71,-0.55,-0.28,-0.15,
0.682,-0.60,0.08,-0.59,-0.55,-0.28,-0.15,
0.682,-0.60,0.08,-0.59,-0.56,-0.28,-0.14,
0.682,-0.60,0.08,-0.59,-0.58,-0.29,-0.14,
0.683,-0.60,0.08,-0.59,-0.59,-0.29,-0.13,
0.683,-0.60,0.08,-0.59,-0.59,-0.29,-0.12,
0.684,-0.60,0.08,-0.59,-0.60,-0.29,-0.12,
0.684,-0.82,0.08,-0.31,-0.60,-0.29,-0.12,
0.684,-0.82,0.08,-0.31,-0.61,-0.29,-0.11,
0.685,-0.82,0.08,-0.31,-0.61,-0.29,-0.10,
0.685,-0.82,0.08,-0.31,-0.62,-0.28,-0.08,
0.686,-0.82,0.08,-0.31,-0.62,-0.28,-0.07,
0.686,-0.82,0.08,-0.31,-0.62,-0.28,-0.06,
0.686,-0.97,0.13,0.06,-0.62,-0.28,-0.06,
0.687,-0.97,0.13,0.06,-0.62,-0.28,-0.05,
0.687,-0.97,0.13,0.06,-0.61,-0.27,-0.03,
0.69,-0.97,0.13,0.06,-0.60,-0.26,-0.01,
0.691,-0.97,0.13,0.06,-0.60,-0.26,0.00,
0.691,-0.97,0.13,0.06,-0.59,-0.25,0.02,
0.692,-1.06,0.11,0.49,-0.59,-0.25,0.02,
0.692,-1.06,0.11,0.49,-0.58,-0.24,0.04,
0.692,-1.06,0.11,0.49,-0.57,-0.24,0.06,
0.693,-1.06,0.11,0.49,-0.55,-0.22,0.09,
0.693,-1.06,0.11,0.49,-0.52,-0.21,0.12,
0.693,-1.06,0.11,0.49,-0.51,-0.21,0.13,
0.694,-1.10,0.08,0.89,-0.51,-0.21,0.13,
0.694,-1.10,0.08,0.89,-0.50,-0.20,0.14,
0.694,-1.10,0.08,0.89,-0.48,-0.20,0.16,
0.707,-1.10,0.08,0.89,-0.45,-0.18,0.19,
0.708,-1.10,0.08,0.89,-0.44,-0.18,0.20,
0.708,-1.10,0.08,0.89,-0.42,-0.17,0.23,
0.708,-1.13,0.17,1.06,-0.42,-0.17,0.23,
0.708,-1.13,0.17,1.06,-0.40,-0.17,0.25,
0.709,-1.13,0.17,1.06,-0.38,-0.16,0.26,
0.709,-1.13,0.17,1.06,-0.35,-0.15,0.29,
0.709,-1.13,0.17,1.06,-0.34,-0.14,0.30,
0.709,-1.13,0.17,1.06,-0.32,-0.13,0.31,
0.711,-0.89,0.36,1.09,-0.32,-0.13,0.31,
0.712,-0.89,0.36,1.09,-0.30,-0.12,0.33,
0.713,-0.89,0.36,1.09,-0.27,-0.11,0.34,
0.716,-0.89,0.36,1.09,-0.24,-0.09,0.36,
0.717,-0.89,0.36,1.09,-0.23,-0.08,0.36,
0.719,-0.89,0.36,1.09,-0.22,-0.06,0.37,
0.721,-0.68,0.56,0.97,-0.22,-0.06,0.37,
0.722,-0.68,0.56,0.97,-0.21,-0.04,0.38,
0.722,-0.68,0.56,0.97,-0.19,-0.02,0.39,
0.726,-0.68,0.56,0.97,-0.18,0.02,0.39,
0.727,-0.68,0.56,0.97,-0.17,0.03,0.40,
0.729,-0.68,0.56,0.97,-0.17,0.05,0.40,
0.731,-0.46,0.71,0.65,-0.17,0.05,0.40,
0.731,-0.46,0.71,0.65,-0.16,0.07,0.40,
0.733,-0.46,0.71,0.65,-0.16,0.09,0.40,
0.742,-0.46,0.71,0.65,-0.16,0.12,0.41,
0.742,-0.46,0.71,0.65,-0.16,0.13,0.41,
0.742,-0.46,0.71,0.65,-0.16,0.16,0.41,
0.744,-0.41,0.73,0.33,-0.16,0.16,0.41,
0.744,-0.41,0.73,0.33,-0.16,0.18,0.42,
0.751,-0.41,0.73,0.33,-0.16,0.20,0.42,
0.751,-0.41,0.73,0.33,-0.17,0.23,0.43,
0.751,-0.41,0.73,0.33,-0.17,0.25,0.44,
0.752,-0.41,0.73,0.33,-0.17,0.27,0.45,
0.768,-0.51,0.70,0.03,-0.17,0.27,0.45,
0.768,-0.51,0.70,0.03,-0.18,0.28,0.45,
0.769,-0.51,0.70,0.03,-0.18,0.30,0.46,
0.769,-0.51,0.70,0.03,-0.19,0.32,0.47,
0.769,-0.51,0.70,0.03,-0.19,0.32,0.48,
0.769,-0.51,0.70,0.03,-0.19,0.33,0.48,
0.769,-0.56,0.75,-0.07,-0.19,0.33,0.48,
0.77,-0.56,0.75,-0.07,-0.19,0.33,0.49,
0.77,-0.56,0.75,-0.07,-0.20,0.34,0.49,
0.77,-0.56,0.75,-0.07,-0.19,0.34,0.50,
0.79,-0.56,0.75,-0.07,-0.19,0.34,0.50,
0.79,-0.56,0.75,-0.07,-0.18,0.34,0.51,
0.791,-0.52,0.82,0.02,-0.18,0.34,0.51,
0.791,-0.52,0.82,0.02,-0.18,0.34,0.51,
0.791,-0.52,0.82,0.02,-0.18,0.34,0.52,
0.792,-0.52,0.82,0.02,-0.17,0.34,0.53,
0.792,-0.52,0.82,0.02,-0.16,0.34,0.53,
0.792,-0.52,0.82,0.02,-0.16,0.34,0.53,
0.792,-0.40,0.81,0.20,-0.16,0.34,0.53,
0.793,-0.40,0.81,0.20,-0.15,0.33,0.54,
0.793,-0.40,0.81,0.20,-0.14,0.33,0.54,
0.793,-0.40,0.81,0.20,-0.12,0.32,0.55,
0.793,-0.40,0.81,0.20,-0.11,0.31,0.55,
0.794,-0.40,0.81,0.20,-0.10,0.31,0.56,
0.794,-0.38,0.75,0.44,-0.10,0.31,0.56,
0.794,-0.38,0.75,0.44,-0.08,0.30,0.57,
0.794,-0.38,0.75,0.44,-0.06,0.29,0.57,
0.8,-0.38,0.75,0.44,-0.03,0.28,0.58,
0.8,-0.38,0.75,0.44,-0.02,0.27,0.58,
0.8,-0.38,0.75,0.44,-0.00,0.26,0.59,
0.817,-0.41,0.76,0.71,-0.00,0.26,0.59,
0.817,-0.41,0.76,0.71,0.02,0.25,0.59,
0.818,-0.41,0.76,0.71,0.03,0.24,0.59,
0.818,-0.41,0.76,0.71,0.08,0.22,0.60,
0.818,-0.41,0.76,0.71,0.09,0.22,0.60,
0.818,-0.41,0.76,0.71,0.11,0.21,0.61,
0.818,-0.46,0.70,0.97,0.11,0.21,0.61,
0.819,-0.46,0.70,0.97,0.13,0.20,0.61,
0.819,-0.46,0.70,0.97,0.15,0.19,0.61,
0.819,-0.46,0.70,0.97,0.19,0.18,0.62,
0.819,-0.46,0.70,0.97,0.20,0.17,0.62,
0.819,-0.46,0.70,0.97,0.23,0.16,0.62,
0.821,-0.47,0.65,1.17,0.23,0.16,0.62,
0.821,-0.47,0.65,1.17,0.25,0.16,0.63,
0.823,-0.47,0.65,1.17,0.27,0.16,0.63,
0.826,-0.47,0.65,1.17,0.31,0.16,0.64,
0.826,-0.47,0.65,1.17,0.32,0.16,0.64,
0.828,-0.47,0.65,1.17,0.34,0.16,0.65,
0.83,-0.57,0.49,1.12,0.34,0.16,0.65,
0.831,-0.57,0.49,1.12,0.36,0.16,0.65,
0.832,-0.57,0.49,1.12,0.38,0.16,0.66,
0.837,-0.57,0.49,1.12,0.40,0.16,0.68,
0.838,-0.57,0.49,1.12,0.41,0.17,0.68,
0.838,-0.57,0.49,1.12,0.42,0.17,0.69,
0.841,-0.71,0.36,0.89,0.42,0.17,0.69,
0.841,-0.71,0.36,0.89,0.43,0.17,0.70,
0.842,-0.71,0.36,0.89,0.44,0.17,0.72,
0.845,-0.71,0.36,0.89,0.45,0.18,0.73,
0.846,-0.71,0.36,0.89,0.45,0.18,0.74,
0.848,-0.71,0.36,0.89,0.46,0.19,0.75,
0.858,-0.71,0.23,0.60,0.46,0.19,0.75,
0.858,-0.71,0.23,0.60,0.46,0.20,0.76,
0.858,-0.71,0.23,0.60,0.45,0.21,0.77,
0.858,-0.71,0.23,0.60,0.46,0.23,0.78,
0.858,-0.71,0.23,0.60,0.46,0.24,0.78,
0.858,-0.71,0.23,0.60,0.46,0.25,0.79,
0.861,-0.62,0.09,0.43,0.46,0.25,0.79,
0.861,-0.62,0.09,0.43,0.46,0.27,0.79,
0.863,-0.62,0.09,0.43,0.45,0.28,0.79,
0.866,-0.62,0.09,0.43,0.45,0.31,0.80,
0.878,-0.62,0.09,0.43,0.45,0.32,0.80,
0.879,-0.62,0.09,0.43,0.45,0.34,0.80,
0.879,-0.50,-0.04,0.43,0.45,0.34,0.80,
0.879,-0.50,-0.04,0.43,0.46,0.36,0.81,
0.879,-0.50,-0.04,0.43,0.46,0.39,0.81,
0.879,-0.50,-0.04,0.43,0.46,0.43,0.82,
0.879,-0.50,-0.04,0.43,0.46,0.44,0.82,
0.879,-0.50,-0.04,0.43,0.46,0.47,0.83,
0.881,-0.48,-0.09,0.36,0.46,0.47,0.83,
0.881,-0.48,-0.09,0.36,0.46,0.49,0.83,
0.882,-0.48,-0.09,0.36,0.46,0.52,0.84,
0.888,-0.48,-0.09,0.36,0.46,0.56,0.84,
0.889,-0.48,-0.09,0.36,0.46,0.57,0.84,
0.889,-0.48,-0.09,0.36,0.46,0.60,0.84,
0.891,-0.45,-0.15,0.20,0.46,0.60,0.84,
0.891,-0.45,-0.15,0.20,0.46,0.63,0.85,
0.892,-0.45,-0.15,0.20,0.46,0.66,0.85,
0.895,-0.45,-0.15,0.20,0.45,0.69,0.85,
0.897,-0.45,-0.15,0.20,0.45,0.71,0.85,
0.898,-0.45,-0.15,0.20,0.45,0.73,0.86,
0.901,-0.51,-0.17,-0.05,0.45,0.73,0.86,
0.902,-0.51,-0.17,-0.05,0.44,0.75,0.86,
0.903,-0.51,-0.17,-0.05,0.43,0.77,0.86,
0.905,-0.51,-0.17,-0.05,0.43,0.79,0.86,
0.907,-0.51,-0.17,-0.05,0.42,0.79,0.86,
0.908,-0.51,-0.17,-0.05,0.41,0.79,0.87,
0.911,-0.58,-0.20,-0.49,0.41,0.79,0.87,
0.911,-0.58,-0.20,-0.49,0.39,0.79,0.87,
0.912,-0.58,-0.20,-0.49,0.38,0.79,0.87,
0.915,-0.58,-0.20,-0.49,0.35,0.77,0.88,
0.917,-0.58,-0.20,-0.49,0.33,0.77,0.88,
0.919,-0.58,-0.20,-0.49,0.31,0.76,0.88,
0.921,-0.61,-0.25,-0.93,0.31,0.76,0.88,
0.921,-0.61,-0.25,-0.93,0.29,0.74,0.89,
0.923,-0.61,-0.25,-0.93,0.26,0.73,0.89,
0.926,-0.61,-0.25,-0.93,0.21,0.70,0.90,
0.927,-0.61,-0.25,-0.93,0.19,0.69,0.91,
0.928,-0.61,-0.25,-0.93,0.17,0.68,0.91,
0.931,-0.61,-0.33,-1.16,0.17,0.68,0.91,
0.931,-0.61,-0.33,-1.16,0.14,0.66,0.92,
0.956,-0.61,-0.33,-1.16,0.11,0.64,0.92,
0.957,-0.61,-0.33,-1.16,0.07,0.62,0.93,
0.957,-0.61,-0.33,-1.16,0.05,0.61,0.94,
0.958,-0.61,-0.33,-1.16,0.02,0.59,0.94,
0.958,-0.57,-0.37,-1.03,0.02,0.59,0.94,
0.959,-0.57,-0.37,-1.03,-0.01,0.56,0.95,
0.96,-0.57,-0.37,-1.03,-0.04,0.53,0.94,
0.96,-0.57,-0.37,-1.03,-0.08,0.49,0.94,
0.961,-0.57,-0.37,-1.03,-0.10,0.47,0.94,
0.961,-0.57,-0.37,-1.03,-0.13,0.44,0.93,
0.962,-0.29,-0.30,-0.54,-0.13,0.44,0.93,
0.963,-0.29,-0.30,-0.54,-0.15,0.41,0.92,
0.963,-0.29,-0.30,-0.54,-0.18,0.37,0.91,
0.964,-0.29,-0.30,-0.54,-0.21,0.32,0.90,
0.964,-0.29,-0.30,-0.54,-0.23,0.30,0.89,
0.965,-0.29,-0.30,-0.54,-0.25,0.26,0.88,
0.965,0.16,-0.28,0.28,-0.25,0.26,0.88,
0.966,0.16,-0.28,0.28,-0.27,0.23,0.87,
0.966,0.16,-0.28,0.28,-0.28,0.19,0.86,
0.967,0.16,-0.28,0.28,-0.31,0.13,0.85,
0.967,0.16,-0.28,0.28,-0.33,0.09,0.84,
0.981,0.16,-0.28,0.28,-0.33,0.08,0.83,
0.983,0.49,-0.46,1.37,-0.33,0.08,0.83,
0.984,0.49,-0.46,1.37,-0.34,0.05,0.82,
0.985,0.49,-0.46,1.37,-0.35,0.02,0.81,
0.985,0.49,-0.46,1.37,-0.36,-0.03,0.79,
0.986,0.49,-0.46,1.37,-0.36,-0.04,0.79,
0.987,0.49,-0.46,1.37,-0.36,-0.06,0.77,
0.988,0.66,-0.73,2.60,-0.36,-0.06,0.77,
0.988,0.66,-0.73,2.60,-0.36,-0.08,0.76,
0.989,0.66,-0.73,2.60,-0.35,-0.09,0.76,
0.989,0.66,-0.73,2.60,-0.33,-0.08,0.75,
0.99,0.66,-0.73,2.60,-0.32,-0.08,0.75,
0.99,0.66,-0.73,2.60,-0.30,-0.07,0.74,
0.993,0.45,-1.01,3.85,-0.30,-0.07,0.74,
0.994,0.45,-1.01,3.85,-0.28,-0.06,0.75,
0.994,0.45,-1.01,3.85,-0.26,-0.03,0.75,
1.001,0.45,-1.01,3.85,-0.22,0.02,0.77,
1.002,0.45,-1.01,3.85,-0.19,0.06,0.78,
1.003,0.45,-1.01,3.85,-0.18,0.09,0.78,
1.006,0.02,-1.32,4.68,-0.18,0.09,0.78,
1.006,0.02,-1.32,4.68,-0.14,0.13,0.80,
1.007,0.02,-1.32,4.68,-0.11,0.18,0.81,
1.007,0.02,-1.32,4.68,-0.07,0.25,0.83,
1.007,0.02,-1.32,4.68,-0.04,0.29,0.85,
1.009,0.02,-1.32,4.68,-0.03,0.31,0.85,
1.011,-0.24,-1.56,4.81,-0.03,0.31,0.85,
1.011,-0.24,-1.56,4.81,0.00,0.36,0.87,
1.014,-0.24,-1.56,4.81,0.03,0.40,0.88,
1.015,-0.24,-1.56,4.81,0.07,0.46,0.91,
1.036,-0.24,-1.56,4.81,0.10,0.50,0.92,
1.036,-0.24,-1.56,4.81,0.12,0.51,0.93,
1.037,-0.43,-1.71,4.42,0.12,0.51,0.93,
1.037,-0.43,-1.71,4.42,0.15,0.54,0.95,
1.037,-0.43,-1.71,4.42,0.18,0.57,0.97,
1.038,-0.43,-1.71,4.42,0.22,0.60,0.99,
1.038,-0.43,-1.71,4.42,0.24,0.62,1.01,
1.038,-0.43,-1.71,4.42,0.25,0.63,1.02,
1.039,-0.55,-1.60,3.58,0.25,0.63,1.02,
1.039,-0.55,-1.60,3.58,0.27,0.64,1.03,
1.039,-0.55,-1.60,3.58,0.29,0.64,1.04,
1.042,-0.55,-1.60,3.58,0.31,0.64,1.05,
1.043,-0.55,-1.60,3.58,0.33,0.62,1.05,
1.043,-0.55,-1.60,3.58,0.33,0.61,1.05,
1.044,-0.34,-1.47,2.34,0.33,0.61,1.05,
1.044,-0.34,-1.47,2.34,0.34,0.59,1.05,
1.044,-0.34,-1.47,2.34,0.35,0.56,1.05,
1.046,-0.34,-1.47,2.34,0.36,0.51,1.03,
1.049,-0.34,-1.47,2.34,0.37,0.46,1.03,
1.05,-0.34,-1.47,2.34,0.37,0.44,1.02,
1.064,-0.15,-1.31,1.64,0.37,0.44,1.02,
1.065,-0.15,-1.31,1.64,0.37,0.39,1.01,
1.065,-0.15,-1.31,1.64,0.37,0.33,0.99,
1.066,-0.15,-1.31,1.64,0.38,0.26,0.97,
1.066,-0.15,-1.31,1.64,0.38,0.21,0.96,
1.066,-0.15,-1.31,1.64,0.38,0.18,0.95,
1.067,-0.00,-1.25,1.08,0.38,0.18,0.95,
1.067,-0.00,-1.25,1.08,0.38,0.13,0.93,
1.068,-0.00,-1.25,1.08,0.37,0.08,0.91,
1.068,-0.00,-1.25,1.08,0.37,0.01,0.89,
1.068,-0.00,-1.25,1.08,0.37,-0.03,0.88,
1.069,-0.00,-1.25,1.08,0.37,-0.05,0.87,
1.086,-0.04,-1.29,0.78,0.37,-0.05,0.87,
1.09,-0.04,-1.29,0.78,0.36,-0.08,0.85,
1.092,-0.04,-1.29,0.78,0.35,-0.11,0.84,
1.093,-0.04,-1.29,0.78,0.34,-0.14,0.82,
1.093,-0.04,-1.29,0.78,0.33,-0.17,0.81,
1.094,-0.04,-1.29,0.78,0.32,-0.18,0.81,
1.095,-0.30,-1.42,0.59,0.32,-0.18,0.81,
1.095,-0.30,-1.42,0.59,0.31,-0.20,0.80,
1.096,-0.30,-1.42,0.59,0.29,-0.22,0.79,
1.097,-0.30,-1.42,0.59,0.27,-0.26,0.77,
1.097,-0.30,-1.42,0.59,0.25,-0.28,0.76,
1.098,-0.30,-1.42,0.59,0.25,-0.29,0.75,
1.099,-0.69,-1.53,0.76,0.25,-0.29,0.75,
1.099,-0.69,-1.53,0.76,0.23,-0.32,0.74,
1.1,-0.69,-1.53,0.76,0.22,-0.34,0.73,
1.1,-0.69,-1.53,0.76,0.20,-0.37,0.71,
1.103,-0.69,-1.53,0.76,0.20,-0.39,0.71,
1.105,-0.69,-1.53,0.76,0.19,-0.40,0.71,
1.141,-1.44,-1.83,1.59,0.19,-0.40,0.71,
1.141,-1.44,-1.83,1.59,0.19,-0.41,0.72,
1.141,-1.44,-1.83,1.59,0.19,-0.41,0.72,
1.141,-1.44,-1.83,1.59,0.20,-0.41,0.75,
1.142,-1.44,-1.83,1.59,0.20,-0.41,0.77,
1.142,-1.44,-1.83,1.59,0.21,-0.40,0.78,
1.142,-1.97,-2.14,2.43,0.21,-0.40,0.78,
1.143,-1.97,-2.14,2.43,0.21,-0.39,0.80,
1.143,-1.97,-2.14,2.43,0.22,-0.36,0.82,
1.143,-1.97,-2.14,2.43,0.24,-0.32,0.86,
1.143,-1.97,-2.14,2.43,0.25,-0.28,0.88,
1.144,-1.97,-2.14,2.43,0.26,-0.27,0.89,
1.144,-2.07,-2.25,2.76,0.26,-0.27,0.89,
1.144,-2.07,-2.25,2.76,0.27,-0.24,0.91,
1.145,-2.07,-2.25,2.76,0.29,-0.20,0.93,
1.145,-2.07,-2.25,2.76,0.31,-0.15,0.95,
1.145,-2.07,-2.25,2.76,0.33,-0.12,0.95,
1.145,-2.07,-2.25,2.76,0.34,-0.11,0.95,
1.146,-1.55,-2.14,2.54,0.34,-0.11,0.95,
1.146,-1.55,-2.14,2.54,0.35,-0.09,0.96,
1.146,-1.55,-2.14,2.54,0.37,-0.07,0.96,
1.146,-1.55,-2.14,2.54,0.38,-0.05,0.95,
1.147,-1.55,-2.14,2.54,0.40,-0.04,0.94,
1.147,-1.55,-2.14,2.54,0.40,-0.04,0.94,
1.147,-1.03,-2.01,1.85,0.40,-0.04,0.94,
1.147,-1.03,-2.01,1.85,0.41,-0.03,0.92,
1.148,-1.03,-2.01,1.85,0.42,-0.02,0.91,
1.148,-1.03,-2.01,1.85,0.43,-0.01,0.88,
1.148,-1.03,-2.01,1.85,0.43,0.00,0.86,
1.148,-1.03,-2.01,1.85,0.43,0.01,0.85,
1.162,-0.72,-1.68,0.81,0.43,0.01,0.85,
1.163,-0.72,-1.68,0.81,0.43,0.02,0.83,
1.163,-0.72,-1.68,0.81,0.43,0.04,0.81,
1.163,-0.72,-1.68,0.81,0.42,0.06,0.78,
1.163,-0.72,-1.68,0.81,0.41,0.08,0.76,
1.164,-0.72,-1.68,0.81,0.40,0.09,0.75,
1.164,-0.84,-1.42,-0.31,0.40,0.09,0.75,
1.164,-0.84,-1.42,-0.31,0.39,0.11,0.74,
1.169,-0.84,-1.42,-0.31,0.38,0.14,0.72,
1.171,-0.84,-1.42,-0.31,0.33,0.20,0.69,
1.172,-0.84,-1.42,-0.31,0.33,0.20,0.69,
1.173,-0.84,-1.42,-0.31,0.32,0.21,0.69,
1.173,-1.09,-1.30,-1.33,0.32,0.21,0.69,
1.173,-1.09,-1.30,-1.33,0.30,0.24,0.68,
1.174,-1.09,-1.30,-1.33,0.28,0.27,0.68,
1.176,-1.09,-1.30,-1.33,0.25,0.30,0.67,
1.177,-1.09,-1.30,-1.33,0.22,0.33,0.67,
1.18,-1.09,-1.30,-1.33,0.21,0.34,0.67,
1.189,-1.33,-1.44,-2.02,0.21,0.34,0.67,
1.189,-1.33,-1.44,-2.02,0.18,0.36,0.68,
1.189,-1.33,-1.44,-2.02,0.15,0.38,0.68,
1.19,-1.33,-1.44,-2.02,0.09,0.42,0.70,
1.19,-1.33,-1.44,-2.02,0.08,0.43,0.70,
1.19,-1.33,-1.44,-2.02,0.05,0.44,0.71,
1.19,-1.54,-1.46,-2.40,0.05,0.44,0.71,
1.192,-1.54,-1.46,-2.40,0.04,0.45,0.72,
1.193,-1.54,-1.46,-2.40,0.01,0.47,0.72,
1.216,-1.54,-1.46,-2.40,-0.02,0.50,0.74,
1.216,-1.54,-1.46,-2.40,-0.05,0.51,0.75,
1.216,-1.54,-1.46,-2.40,-0.06,0.52,0.75,
1.216,-1.53,-1.45,-2.40,-0.06,0.52,0.75,
1.217,-1.53,-1.45,-2.40,-0.08,0.55,0.76,
1.217,-1.53,-1.45,-2.40,-0.09,0.57,0.77,
1.217,-1.53,-1.45,-2.40,-0.12,0.60,0.79,
1.217,-1.53,-1.45,-2.40,-0.14,0.63,0.80,
1.217,-1.53,-1.45,-2.40,-0.14,0.64,0.80,
1.217,-1.22,-1.39,-2.20,-0.14,0.64,0.80,
1.217,-1.22,-1.39,-2.20,-0.16,0.65,0.80,
1.218,-1.22,-1.39,-2.20,-0.17,0.66,0.81,
1.218,-1.22,-1.39,-2.20,-0.18,0.68,0.81,
1.218,-1.22,-1.39,-2.20,-0.18,0.68,0.80,
1.219,-1.22,-1.39,-2.20,-0.18,0.68,0.80,
1.221,-0.79,-1.18,-1.79,-0.18,0.68,0.80,
1.221,-0.79,-1.18,-1.79,-0.19,0.69,0.79,
1.223,-0.79,-1.18,-1.79,-0.19,0.69,0.77,
1.225,-0.79,-1.18,-1.79,-0.19,0.68,0.75,
1.227,-0.79,-1.18,-1.79,-0.18,0.68,0.74,
1.228,-0.79,-1.18,-1.79,-0.17,0.68,0.72,
1.231,-0.39,-0.90,-1.37,-0.17,0.68,0.72,
1.231,-0.39,-0.90,-1.37,-0.16,0.68,0.71,
1.236,-0.39,-0.90,-1.37,-0.16,0.67,0.69,
1.24,-0.39,-0.90,-1.37,-0.14,0.67,0.67,
1.24,-0.39,-0.90,-1.37,-0.13,0.66,0.66,
1.241,-0.39,-0.90,-1.37,-0.12,0.66,0.65,
1.241,-0.17,-0.69,-1.00,-0.12,0.66,0.65,
1.241,-0.17,-0.69,-1.00,-0.11,0.65,0.63,
1.245,-0.17,-0.69,-1.00,-0.10,0.65,0.62,
1.245,-0.17,-0.69,-1.00,-0.09,0.64,0.61,
1.249,-0.17,-0.69,-1.00,-0.08,0.64,0.60,
1.249,-0.17,-0.69,-1.00,-0.07,0.63,0.59,
1.257,-0.13,-0.58,-0.96,-0.07,0.63,0.59,
1.257,-0.13,-0.58,-0.96,-0.06,0.63,0.59,
1.257,-0.13,-0.58,-0.96,-0.05,0.62,0.58,
1.258,-0.13,-0.58,-0.96,-0.05,0.61,0.57,
1.258,-0.13,-0.58,-0.96,-0.05,0.60,0.57,
1.267,-0.13,-0.58,-0.96,-0.05,0.58,0.57,
1.268,-0.20,-0.61,-1.07,-0.05,0.58,0.57,
1.268,-0.20,-0.61,-1.07,-0.06,0.57,0.57,
1.268,-0.20,-0.61,-1.07,-0.06,0.56,0.57,
1.269,-0.20,-0.61,-1.07,-0.07,0.55,0.57,
1.297,-0.20,-0.61,-1.07,-0.07,0.54,0.57,
1.297,-0.20,-0.61,-1.07,-0.07,0.53,0.57,
1.297,-0.24,-0.55,-1.15,-0.07,0.53,0.57,
1.297,-0.24,-0.55,-1.15,-0.08,0.52,0.56,
1.298,-0.24,-0.55,-1.15,-0.08,0.51,0.56,
1.298,-0.24,-0.55,-1.15,-0.09,0.50,0.56,
1.298,-0.24,-0.55,-1.15,-0.08,0.50,0.56,
1.298,-0.24,-0.55,-1.15,-0.08,0.49,0.56,
1.298,-0.16,-0.55,-0.80,-0.08,0.49,0.56,
1.299,-0.16,-0.55,-0.80,-0.08,0.48,0.56,
1.299,-0.16,-0.55,-0.80,-0.07,0.47,0.56,
1.299,-0.16,-0.55,-0.80,-0.07,0.47,0.56,
1.299,-0.16,-0.55,-0.80,-0.06,0.46,0.56,
1.3,-0.16,-0.55,-0.80,-0.05,0.46,0.56,
1.3,-0.00,-0.45,-0.26,-0.05,0.46,0.56,
1.3,-0.00,-0.45,-0.26,-0.04,0.45,0.56,
1.3,-0.00,-0.45,-0.26,-0.03,0.44,0.56,
1.3,-0.00,-0.45,-0.26,-0.01,0.43,0.56,
1.301,-0.00,-0.45,-0.26,0.00,0.42,0.55,
1.301,-0.00,-0.45,-0.26,0.02,0.41,0.55,
1.301,0.22,-0.40,0.22,0.02,0.41,0.55,
1.301,0.22,-0.40,0.22,0.04,0.40,0.55,
1.309,0.22,-0.40,0.22,0.06,0.38,0.54,
1.31,0.22,-0.40,0.22,0.08,0.37,0.53,
1.31,0.22,-0.40,0.22,0.09,0.35,0.53,
1.311,0.22,-0.40,0.22,0.11,0.34,0.52,
1.311,0.42,-0.35,0.54,0.11,0.34,0.52,
1.311,0.42,-0.35,0.54,0.13,0.32,0.51,
1.315,0.42,-0.35,0.54,0.15,0.30,0.50,
1.325,0.42,-0.35,0.54,0.17,0.29,0.50,
1.325,0.42,-0.35,0.54,0.18,0.27,0.49,
1.326,0.42,-0.35,0.54,0.20,0.26,0.48,
1.326,0.51,-0.37,0.57,0.20,0.26,0.48,
1.326,0.51,-0.37,0.57,0.22,0.24,0.48,
1.326,0.51,-0.37,0.57,0.23,0.22,0.47,
1.326,0.51,-0.37,0.57,0.24,0.21,0.47,
1.326,0.51,-0.37,0.57,0.25,0.20,0.46,
1.331,0.51,-0.37,0.57,0.26,0.18,0.46,
1.331,0.57,-0.41,0.41,0.26,0.18,0.46,
1.331,0.57,-0.41,0.41,0.27,0.17,0.46,
1.339,0.57,-0.41,0.41,0.28,0.16,0.46,
1.34,0.57,-0.41,0.41,0.29,0.15,0.46,
1.34,0.57,-0.41,0.41,0.29,0.14,0.46,
1.34,0.57,-0.41,0.41,0.30,0.14,0.46,
1.34,0.59,-0.54,0.28,0.30,0.14,0.46,
1.341,0.59,-0.54,0.28,0.31,0.15,0.46,
1.343,0.59,-0.54,0.28,0.31,0.15,0.46,
1.346,0.59,-0.54,0.28,0.32,0.16,0.46,
1.346,0.59,-0.54,0.28,0.33,0.17,0.47,
1.35,0.59,-0.54,0.28,0.33,0.18,0.46,
1.351,0.63,-0.55,0.24,0.33,0.18,0.46,
1.351,0.63,-0.55,0.24,0.34,0.19,0.46,
1.353,0.63,-0.55,0.24,0.35,0.20,0.46,
1.356,0.63,-0.55,0.24,0.36,0.21,0.46,
1.356,0.63,-0.55,0.24,0.36,0.22,0.45,
1.359,0.63,-0.55,0.24,0.38,0.23,0.43,
1.361,0.87,-0.53,0.22,0.38,0.23,0.43,
1.361,0.87,-0.53,0.22,0.39,0.24,0.42,
1.363,0.87,-0.53,0.22,0.41,0.25,0.40,
1.37,0.87,-0.53,0.22,0.42,0.26,0.39,
1.371,0.87,-0.53,0.22,0.44,0.27,0.37,
1.371,0.87,-0.53,0.22,0.46,0.28,0.36,
1.372,1.08,-0.45,0.12,0.46,0.28,0.36,
1.372,1.08,-0.45,0.12,0.47,0.28,0.35,
1.373,1.08,-0.45,0.12,0.49,0.29,0.35,
1.376,1.08,-0.45,0.12,0.50,0.31,0.34,
1.398,1.08,-0.45,0.12,0.52,0.32,0.34,
1.398,1.08,-0.45,0.12,0.53,0.33,0.34,
1.398,1.08,-0.51,-0.10,0.53,0.33,0.34,
1.399,1.08,-0.51,-0.10,0.55,0.35,0.33,
1.399,1.08,-0.51,-0.10,0.57,0.36,0.33,
1.399,1.08,-0.51,-0.10,0.58,0.38,0.32,
1.399,1.08,-0.51,-0.10,0.60,0.39,0.31,
1.399,1.08,-0.51,-0.10,0.61,0.40,0.30,
1.399,1.10,-0.68,-0.47,0.61,0.40,0.30,
1.399,1.10,-0.68,-0.47,0.63,0.41,0.29,
1.399,1.10,-0.68,-0.47,0.64,0.42,0.28,
1.4,1.10,-0.68,-0.47,0.66,0.42,0.27,
1.4,1.10,-0.68,-0.47,0.67,0.43,0.26,
1.4,1.10,-0.68,-0.47,0.69,0.42,0.25,
1.401,1.11,-0.69,-0.94,0.69,0.42,0.25,
1.401,1.11,-0.69,-0.94,0.70,0.41,0.24,
1.404,1.11,-0.69,-0.94,0.71,0.40,0.23,
1.407,1.11,-0.69,-0.94,0.72,0.38,0.22,
1.408,1.11,-0.69,-0.94,0.73,0.36,0.21,
1.41,1.11,-0.69,-0.94,0.74,0.33,0.20,
1.411,1.10,-0.64,-1.49,0.74,0.33,0.20,
1.411,1.10,-0.64,-1.49,0.74,0.27,0.19,
1.414,1.10,-0.64,-1.49,0.76,0.15,0.18,
1.417,1.10,-0.64,-1.49,0.80,-0.15,0.15,
1.426,1.10,-0.64,-1.49,0.80,-0.20,0.13,
1.426,1.10,-0.64,-1.49,0.80,-0.26,0.10,
1.426,1.66,-0.50,-2.36,0.80,-0.26,0.10,
1.426,1.66,-0.50,-2.36,0.80,-0.31,0.07,
1.427,1.66,-0.50,-2.36,0.81,-0.34,0.04,
1.427,1.66,-0.50,-2.36,0.81,-0.34,0.02,
1.43,1.66,-0.50,-2.36,0.79,-0.32,0.01,
1.43,1.66,-0.50,-2.36,0.77,-0.27,0.00,
1.432,0.48,-1.00,-2.30,0.77,-0.27,0.00,
1.432,0.48,-1.00,-2.30,0.74,-0.21,0.01,
1.444,0.48,-1.00,-2.30,0.71,-0.15,0.03,
1.444,0.48,-1.00,-2.30,0.65,-0.07,0.06,
1.445,0.48,-1.00,-2.30,0.62,-0.05,0.07,
1.445,0.48,-1.00,-2.30,0.62,-0.01,0.10,
1.445,-0.18,-0.96,-2.57,0.62,-0.01,0.10,
1.445,-0.18,-0.96,-2.57,0.62,0.02,0.13,
1.445,-0.18,-0.96,-2.57,0.60,0.05,0.17,
1.447,-0.18,-0.96,-2.57,0.58,0.09,0.21,
1.447,-0.18,-0.96,-2.57,0.57,0.10,0.22,
1.449,-0.18,-0.96,-2.57,0.56,0.11,0.24,
1.452,-0.10,-1.14,-2.73,0.56,0.11,0.24,
1.452,-0.10,-1.14,-2.73,0.57,0.13,0.25,
1.453,-0.10,-1.14,-2.73,0.55,0.16,0.25,
1.456,-0.10,-1.14,-2.73,0.53,0.20,0.24,
1.456,-0.10,-1.14,-2.73,0.52,0.21,0.24,
1.458,-0.10,-1.14,-2.73,0.51,0.24,0.23,
1.461,0.16,-1.13,-2.55,0.51,0.24,0.23,
1.461,0.16,-1.13,-2.55,0.49,0.26,0.22,
1.462,0.16,-1.13,-2.55,0.49,0.27,0.22,
1.466,0.16,-1.13,-2.55,0.48,0.28,0.21,
1.466,0.16,-1.13,-2.55,0.47,0.29,0.20,
1.469,0.16,-1.13,-2.55,0.47,0.28,0.19,
1.471,0.29,-0.79,-2.48,0.47,0.28,0.19,
1.471,0.29,-0.79,-2.48,0.47,0.28,0.19,
1.472,0.29,-0.79,-2.48,0.47,0.28,0.18,
1.476,0.29,-0.79,-2.48,0.47,0.27,0.16,
1.477,0.29,-0.79,-2.48,0.48,0.27,0.16,
1.479,0.29,-0.79,-2.48,0.47,0.27,0.15,
1.491,0.38,-0.68,-2.54,0.47,0.27,0.15,
1.492,0.38,-0.68,-2.54,0.47,0.27,0.14,
1.492,0.38,-0.68,-2.54,0.47,0.27,0.13,
1.493,0.38,-0.68,-2.54,0.47,0.27,0.12,
1.493,0.38,-0.68,-2.54,0.47,0.26,0.12,
1.493,0.38,-0.68,-2.54,0.47,0.26,0.12,
1.494,0.31,-0.72,-2.67,0.47,0.26,0.12,
1.494,0.31,-0.72,-2.67,0.46,0.26,0.12,
1.494,0.31,-0.72,-2.67,0.46,0.26,0.12,
1.514,0.31,-0.72,-2.67,0.45,0.26,0.14,
1.515,0.31,-0.72,-2.67,0.45,0.27,0.14,
1.515,0.31,-0.72,-2.67,0.44,0.27,0.15,
1.516,0.09,-0.82,-2.87,0.44,0.27,0.15,
1.516,0.09,-0.82,-2.87,0.42,0.28,0.16,
1.516,0.09,-0.82,-2.87,0.41,0.28,0.18,
1.516,0.09,-0.82,-2.87,0.38,0.30,0.20,
1.517,0.09,-0.82,-2.87,0.37,0.31,0.20,
1.517,0.09,-0.82,-2.87,0.35,0.32,0.21,
1.517,-0.03,-0.84,-2.95,0.35,0.32,0.21,
1.517,-0.03,-0.84,-2.95,0.35,0.32,0.22,
1.518,-0.03,-0.84,-2.95,0.33,0.32,0.23,
1.518,-0.03,-0.84,-2.95,0.32,0.33,0.24,
1.518,-0.03,-0.84,-2.95,0.31,0.33,0.24,
1.519,-0.03,-0.84,-2.95,0.29,0.33,0.24,
1.521,0.12,-0.62,-2.89,0.29,0.33,0.24,
1.521,0.12,-0.62,-2.89,0.27,0.33,0.24,
1.522,0.12,-0.62,-2.89,0.27,0.32,0.23,
1.526,0.12,-0.62,-2.89,0.26,0.30,0.23,
1.526,0.12,-0.62,-2.89,0.25,0.30,0.22,
1.528,0.12,-0.62,-2.89,0.24,0.29,0.21,
1.531,0.38,-0.46,-2.73,0.24,0.29,0.21,
1.532,0.38,-0.46,-2.73,0.23,0.28,0.20,
1.535,0.38,-0.46,-2.73,0.22,0.26,0.19,
1.537,0.38,-0.46,-2.73,0.22,0.23,0.17,
1.538,0.38,-0.46,-2.73,0.21,0.22,0.16,
1.54,0.38,-0.46,-2.73,0.20,0.19,0.15,
1.541,0.68,-0.29,-2.57,0.20,0.19,0.15,
1.541,0.68,-0.29,-2.57,0.20,0.17,0.13,
1.544,0.68,-0.29,-2.57,0.20,0.14,0.12,
1.546,0.68,-0.29,-2.57,0.20,0.09,0.09,
1.547,0.68,-0.29,-2.57,0.20,0.08,0.08,
1.551,0.68,-0.29,-2.57,0.20,0.03,0.07,
1.552,0.82,-0.12,-2.45,0.20,0.03,0.07,
1.552,0.82,-0.12,-2.45,0.19,-0.00,0.05,
1.553,0.82,-0.12,-2.45,0.20,-0.03,0.03,
1.555,0.82,-0.12,-2.45,0.20,-0.08,0.00,
1.557,0.82,-0.12,-2.45,0.20,-0.10,-0.01,
1.558,0.82,-0.12,-2.45,0.20,-0.13,-0.02,
1.561,0.93,0.03,-2.42,0.20,-0.13,-0.02,
1.561,0.93,0.03,-2.42,0.20,-0.15,-0.04,
1.562,0.93,0.03,-2.42,0.20,-0.17,-0.06,
1.566,0.93,0.03,-2.42,0.20,-0.20,-0.07,
1.567,0.93,0.03,-2.42,0.20,-0.21,-0.08,
1.569,0.93,0.03,-2.42,0.20,-0.22,-0.09,
1.571,0.64,-0.04,-2.41,0.20,-0.22,-0.09,
1.571,0.64,-0.04,-2.41,0.20,-0.22,-0.09,
1.574,0.64,-0.04,-2.41,0.19,-0.22,-0.10,
1.576,0.64,-0.04,-2.41,0.18,-0.20,-0.10,
1.578,0.64,-0.04,-2.41,0.17,-0.20,-0.10,
1.582,0.64,-0.04,-2.41,0.16,-0.18,-0.10,
1.583,0.26,-0.11,-2.47,0.16,-0.18,-0.10,
1.583,0.26,-0.11,-2.47,0.15,-0.17,-0.09,
1.585,0.26,-0.11,-2.47,0.14,-0.15,-0.09,
1.59,0.26,-0.11,-2.47,0.12,-0.12,-0.07,
1.591,0.26,-0.11,-2.47,0.11,-0.11,-0.07,
1.592,0.26,-0.11,-2.47,0.09,-0.08,-0.06,
1.593,-0.06,-0.14,-2.53,0.09,-0.08,-0.06,
1.594,-0.06,-0.14,-2.53,0.08,-0.06,-0.05,
1.598,-0.06,-0.14,-2.53,0.06,-0.04,-0.04,
1.599,-0.06,-0.14,-2.53,0.03,-0.00,-0.02,
1.599,-0.06,-0.14,-2.53,0.02,0.01,-0.01,
1.599,-0.06,-0.14,-2.53,0.00,0.04,-0.00,
1.62,-0.25,-0.06,-2.65,0.00,0.04,-0.00,
1.62,-0.25,-0.06,-2.65,-0.01,0.07,0.01,
1.62,-0.25,-0.06,-2.65,-0.03,0.11,0.02,
1.62,-0.25,-0.06,-2.65,-0.06,0.16,0.03,
1.621,-0.25,-0.06,-2.65,-0.07,0.18,0.04,
1.621,-0.25,-0.06,-2.65,-0.09,0.21,0.04,
1.621,-0.39,0.08,-2.76,-0.09,0.21,0.04,
1.622,-0.39,0.08,-2.76,-0.11,0.24,0.05,
1.622,-0.39,0.08,-2.76,-0.14,0.26,0.06,
1.622,-0.39,0.08,-2.76,-0.17,0.28,0.06,
1.622,-0.39,0.08,-2.76,-0.19,0.29,0.06,
1.623,-0.39,0.08,-2.76,-0.22,0.29,0.06,
1.623,-0.25,0.27,-2.90,-0.22,0.29,0.06,
1.623,-0.25,0.27,-2.90,-0.25,0.29,0.06,
1.623,-0.25,0.27,-2.90,-0.28,0.29,0.06,
1.628,-0.25,0.27,-2.90,-0.32,0.28,0.05,
1.629,-0.25,0.27,-2.90,-0.34,0.27,0.05,
1.629,-0.25,0.27,-2.90,-0.37,0.25,0.05,
1.633,-0.16,0.44,-3.02,-0.37,0.25,0.05,
1.633,-0.16,0.44,-3.02,-0.41,0.23,0.04,
1.634,-0.16,0.44,-3.02,-0.44,0.19,0.04,
1.641,-0.16,0.44,-3.02,-0.50,0.13,0.03,
1.642,-0.16,0.44,-3.02,-0.52,0.10,0.03,
1.642,-0.16,0.44,-3.02,-0.57,0.04,0.02,
1.643,-0.06,0.67,-2.99,-0.57,0.04,0.02,
1.643,-0.06,0.67,-2.99,-0.61,-0.02,0.01,
1.643,-0.06,0.67,-2.99,-0.66,-0.08,-0.01,
1.648,-0.06,0.67,-2.99,-0.72,-0.18,-0.03,
1.648,-0.06,0.67,-2.99,-0.74,-0.22,-0.03,
1.657,-0.06,0.67,-2.99,-0.78,-0.28,-0.05,
1.658,0.15,0.83,-2.39,-0.78,-0.28,-0.05,
1.658,0.15,0.83,-2.39,-0.82,-0.35,-0.07,
1.658,0.15,0.83,-2.39,-0.85,-0.41,-0.08,
1.658,0.15,0.83,-2.39,-0.89,-0.49,-0.10,
1.659,0.15,0.83,-2.39,-0.91,-0.51,-0.10,
1.659,0.15,0.83,-2.39,-0.93,-0.54,-0.10,
1.661,0.17,0.81,-1.27,-0.93,-0.54,-0.10,
1.661,0.17,0.81,-1.27,-0.95,-0.58,-0.10,
1.685,0.17,0.81,-1.27,-0.97,-0.60,-0.10,
1.686,0.17,0.81,-1.27,-1.00,-0.61,-0.09,
1.686,0.17,0.81,-1.27,-1.00,-0.61,-0.09,
1.686,0.17,0.81,-1.27,-1.01,-0.60,-0.08,
1.687,-0.10,0.57,0.19,-1.01,-0.60,-0.08,
1.687,-0.10,0.57,0.19,-1.02,-0.59,-0.07,
1.687,-0.10,0.57,0.19,-1.03,-0.57,-0.06,
1.687,-0.10,0.57,0.19,-1.01,-0.51,-0.04,
1.687,-0.10,0.57,0.19,-1.00,-0.49,-0.04,
1.688,-0.10,0.57,0.19,-0.99,-0.44,-0.02,
1.688,-0.38,0.43,1.55,-0.99,-0.44,-0.02,
1.688,-0.38,0.43,1.55,-0.98,-0.38,-0.01,
1.688,-0.38,0.43,1.55,-0.96,-0.32,0.01,
1.689,-0.38,0.43,1.55,-0.93,-0.22,0.04,
1.689,-0.38,0.43,1.55,-0.91,-0.18,0.05,
1.689,-0.38,0.43,1.55,-0.89,-0.11,0.07,
1.693,-0.58,0.42,2.48,-0.89,-0.11,0.07,
1.693,-0.58,0.42,2.48,-0.86,-0.04,0.09,
1.694,-0.58,0.42,2.48,-0.84,0.04,0.11,
1.696,-0.58,0.42,2.48,-0.79,0.14,0.14,
1.696,-0.58,0.42,2.48,-0.77,0.17,0.15,
1.701,-0.58,0.42,2.48,-0.74,0.24,0.17,
1.701,-0.68,0.45,2.79,-0.74,0.24,0.17,
1.701,-0.68,0.45,2.79,-0.71,0.30,0.19,
1.702,-0.68,0.45,2.79,-0.68,0.35,0.21,
1.707,-0.68,0.45,2.79,-0.63,0.42,0.23,
1.708,-0.68,0.45,2.79,-0.62,0.44,0.24,
1.71,-0.68,0.45,2.79,-0.59,0.48,0.25,
1.711,-0.47,0.60,2.65,-0.59,0.48,0.25,
1.711,-0.47,0.60,2.65,-0.56,0.50,0.27,
1.714,-0.47,0.60,2.65,-0.52,0.50,0.27,
1.717,-0.47,0.60,2.65,-0.48,0.50,0.28,
1.718,-0.47,0.60,2.65,-0.47,0.49,0.29,
1.718,-0.47,0.60,2.65,-0.44,0.47,0.29,
1.723,-0.35,0.81,2.27,-0.44,0.47,0.29,
1.723,-0.35,0.81,2.27,-0.41,0.44,0.29,
1.723,-0.35,0.81,2.27,-0.38,0.40,0.29,
1.726,-0.35,0.81,2.27,-0.33,0.34,0.29,
1.726,-0.35,0.81,2.27,-0.32,0.31,0.29,
1.73,-0.35,0.81,2.27,-0.29,0.25,0.30,
1.731,-0.38,0.88,1.85,-0.29,0.25,0.30,
1.731,-0.38,0.88,1.85,-0.26,0.19,0.30,
1.734,-0.38,0.88,1.85,-0.24,0.10,0.30,
1.737,-0.38,0.88,1.85,-0.22,-0.03,0.30,
1.741,-0.38,0.88,1.85,-0.21,-0.13,0.30,
1.741,-0.38,0.88,1.85,-0.21,-0.18,0.30,
1.741,-0.99,0.44,1.85,-0.21,-0.18,0.30,
1.741,-0.99,0.44,1.85,-0.20,-0.28,0.31,
1.744,-0.99,0.44,1.85,-0.19,-0.39,0.31,
1.747,-0.99,0.44,1.85,-0.19,-0.55,0.32,
1.748,-0.99,0.44,1.85,-0.19,-0.60,0.32,
1.751,-0.99,0.44,1.85,-0.18,-0.71,0.33,
1.751,-1.83,-0.07,2.77,-0.18,-0.71,0.33,
1.751,-1.83,-0.07,2.77,-0.18,-0.82,0.34,
1.754,-1.83,-0.07,2.77,-0.17,-0.93,0.36,
1.755,-1.83,-0.07,2.77,-0.14,-1.06,0.39,
1.756,-1.83,-0.07,2.77,-0.13,-1.09,0.40,
1.758,-1.83,-0.07,2.77,-0.11,-1.13,0.43,
1.761,-2.59,-0.61,4.31,-0.11,-1.13,0.43,
1.761,-2.59,-0.61,4.31,-0.08,-1.13,0.47,
1.763,-2.59,-0.61,4.31,-0.05,-1.11,0.51,
1.765,-2.59,-0.61,4.31,0.01,-1.01,0.60,
1.779,-2.59,-0.61,4.31,0.03,-0.96,0.63,
1.779,-2.59,-0.61,4.31,0.07,-0.85,0.70,
1.779,-2.06,-0.55,5.22,0.07,-0.85,0.70,
1.779,-2.06,-0.55,5.22,0.10,-0.70,0.77,
1.779,-2.06,-0.55,5.22,0.14,-0.53,0.85,
1.779,-2.06,-0.55,5.22,0.20,-0.22,0.96,
1.78,-2.06,-0.55,5.22,0.23,-0.11,1.00,
1.78,-2.06,-0.55,5.22,0.27,0.12,1.07,
1.786,-0.77,-0.12,5.72,0.27,0.12,1.07,
1.787,-0.77,-0.12,5.72,0.31,0.36,1.13,
1.787,-0.77,-0.12,5.72,0.36,0.59,1.19,
1.787,-0.77,-0.12,5.72,0.43,0.93,1.27,
1.787,-0.77,-0.12,5.72,0.45,1.03,1.29,
1.788,-0.77,-0.12,5.72,0.51,1.23,1.33,
1.791,0.64,0.50,5.73,0.51,1.23,1.33,
1.791,0.64,0.50,5.73,0.55,1.42,1.37,
1.793,0.64,0.50,5.73,0.60,1.59,1.40,
1.795,0.64,0.50,5.73,0.65,1.78,1.43,
1.805,0.64,0.50,5.73,0.66,1.83,1.44,
1.805,0.64,0.50,5.73,0.69,1.92,1.45,
1.806,1.41,1.14,4.72,0.69,1.92,1.45,
1.806,1.41,1.14,4.72,0.70,1.96,1.45,
1.806,1.41,1.14,4.72,0.70,1.98,1.44,
1.806,1.41,1.14,4.72,0.66,1.93,1.42,
1.807,1.41,1.14,4.72,0.64,1.90,1.40,
1.808,1.41,1.14,4.72,0.60,1.81,1.37,
1.811,2.07,1.72,2.47,0.60,1.81,1.37,
1.811,2.07,1.72,2.47,0.54,1.70,1.34,
1.813,2.07,1.72,2.47,0.47,1.58,1.29,
1.816,2.07,1.72,2.47,0.36,1.38,1.21,
1.817,2.07,1.72,2.47,0.32,1.31,1.19,
1.818,2.07,1.72,2.47,0.25,1.16,1.13,
1.821,2.41,2.61,0.95,0.25,1.16,1.13,
1.821,2.41,2.61,0.95,0.17,1.00,1.08,
1.822,2.41,2.61,0.95,0.10,0.84,1.03,
1.825,2.41,2.61,0.95,-0.01,0.59,0.96,
1.826,2.41,2.61,0.95,-0.05,0.50,0.93,
1.828,2.41,2.61,0.95,-0.12,0.33,0.89,
1.831,2.20,2.93,1.23,-0.12,0.33,0.89,
1.831,2.20,2.93,1.23,-0.19,0.16,0.85,
1.833,2.20,2.93,1.23,-0.26,-0.01,0.81,
1.836,2.20,2.93,1.23,-0.35,-0.27,0.76,
1.836,2.20,2.93,1.23,-0.38,-0.35,0.74,
1.841,2.20,2.93,1.23,-0.44,-0.50,0.71,
1.841,2.30,2.25,2.80,-0.44,-0.50,0.71,
1.842,2.30,2.25,2.80,-0.48,-0.64,0.68,
1.843,2.30,2.25,2.80,-0.52,-0.77,0.65,
1.846,2.30,2.25,2.80,-0.56,-0.93,0.62,
1.846,2.30,2.25,2.80,-0.57,-0.98,0.61,
1.848,2.30,2.25,2.80,-0.58,-1.06,0.59,
1.851,2.41,1.16,5.27,-0.58,-1.06,0.59,
1.851,2.41,1.16,5.27,-0.58,-1.13,0.58,
1.852,2.41,1.16,5.27,-0.57,-1.18,0.58,
1.855,2.41,1.16,5.27,-0.53,-1.22,0.57,
1.856,2.41,1.16,5.27,-0.52,-1.22,0.57,
1.858,2.41,1.16,5.27,-0.48,-1.23,0.58,
1.861,2.28,0.50,7.70,-0.48,-1.23,0.58,
1.861,2.28,0.50,7.70,-0.43,-1.22,0.59,
1.863,2.28,0.50,7.70,-0.38,-1.21,0.59,
1.866,2.28,0.50,7.70,-0.29,-1.17,0.60,
1.868,2.28,0.50,7.70,-0.25,-1.16,0.61,
1.869,2.28,0.50,7.70,-0.18,-1.14,0.61,
1.871,2.50,0.03,9.02,-0.18,-1.14,0.61,
1.872,2.50,0.03,9.02,-0.12,-1.10,0.62,
1.872,2.50,0.03,9.02,-0.05,-1.06,0.62,
1.876,2.50,0.03,9.02,0.06,-1.00,0.62,
1.877,2.50,0.03,9.02,0.09,-0.98,0.61,
1.879,2.50,0.03,9.02,0.16,-0.94,0.61,
1.882,3.05,-0.41,9.17,0.16,-0.94,0.61,
1.883,3.05,-0.41,9.17,0.23,-0.89,0.60,
1.883,3.05,-0.41,9.17,0.30,-0.84,0.59,
1.886,3.05,-0.41,9.17,0.40,-0.76,0.58,
1.886,3.05,-0.41,9.17,0.43,-0.74,0.58,
1.888,3.05,-0.41,9.17,0.48,-0.68,0.57,
1.89,3.20,-0.47,8.14,0.48,-0.68,0.57,
1.891,3.20,-0.47,8.14,0.54,-0.63,0.57,
1.894,3.20,-0.47,8.14,0.58,-0.58,0.57,
1.896,3.20,-0.47,8.14,0.65,-0.50,0.56,
1.897,3.20,-0.47,8.14,0.67,-0.48,0.56,
1.899,3.20,-0.47,8.14,0.70,-0.43,0.56,
1.903,3.31,-0.43,6.18,0.70,-0.43,0.56,
1.904,3.31,-0.43,6.18,0.73,-0.38,0.56,
1.904,3.31,-0.43,6.18,0.75,-0.33,0.55,
1.905,3.31,-0.43,6.18,0.77,-0.26,0.54,
1.906,3.31,-0.43,6.18,0.78,-0.24,0.53,
1.908,3.31,-0.43,6.18,0.78,-0.20,0.51,
1.911,3.44,-0.30,3.82,0.78,-0.20,0.51,
1.911,3.44,-0.30,3.82,0.79,-0.16,0.50,
1.915,3.44,-0.30,3.82,0.79,-0.13,0.48,
1.916,3.44,-0.30,3.82,0.78,-0.09,0.44,
1.917,3.44,-0.30,3.82,0.77,-0.08,0.43,
1.923,3.44,-0.30,3.82,0.76,-0.06,0.40,
1.924,3.63,-0.11,1.44,0.76,-0.06,0.40,
1.924,3.63,-0.11,1.44,0.74,-0.05,0.37,
1.924,3.63,-0.11,1.44,0.72,-0.05,0.34,
1.925,3.63,-0.11,1.44,0.69,-0.05,0.29,
1.927,3.63,-0.11,1.44,0.67,-0.06,0.27,
1.936,3.63,-0.11,1.44,0.64,-0.06,0.23,
1.938,3.49,-0.07,-0.61,0.64,-0.06,0.23,
1.939,3.49,-0.07,-0.61,0.61,-0.07,0.20,
1.966,3.49,-0.07,-0.61,0.58,-0.09,0.16,
1.967,3.49,-0.07,-0.61,0.54,-0.12,0.10,
1.968,3.49,-0.07,-0.61,0.52,-0.13,0.08,
1.969,3.49,-0.07,-0.61,0.49,-0.16,0.04,
1.969,3.08,-0.16,-2.05,0.49,-0.16,0.04,
1.969,3.08,-0.16,-2.05,0.46,-0.19,0.00,
1.97,3.08,-0.16,-2.05,0.43,-0.22,-0.03,
1.971,3.08,-0.16,-2.05,0.38,-0.29,-0.09,
1.971,3.08,-0.16,-2.05,0.37,-0.31,-0.10,
1.972,3.08,-0.16,-2.05,0.35,-0.35,-0.14,
1.973,2.29,-0.39,-2.78,0.35,-0.35,-0.14,
1.973,2.29,-0.39,-2.78,0.32,-0.39,-0.17,
1.974,2.29,-0.39,-2.78,0.30,-0.44,-0.20,
1.974,2.29,-0.39,-2.78,0.29,-0.49,-0.23,
1.975,2.29,-0.39,-2.78,0.30,-0.51,-0.24,
1.975,2.29,-0.39,-2.78,0.28,-0.53,-0.26,
1.976,1.50,-0.58,-2.95,0.28,-0.53,-0.26,
1.976,1.50,-0.58,-2.95,0.26,-0.54,-0.28,
1.977,1.50,-0.58,-2.95,0.26,-0.55,-0.29,
1.977,1.50,-0.58,-2.95,0.27,-0.55,-0.30,
1.978,1.50,-0.58,-2.95,0.27,-0.54,-0.30,
1.979,1.50,-0.58,-2.95,0.27,-0.53,-0.30,
1.979,0.66,-0.74,-2.90,0.27,-0.53,-0.30,
1.98,0.66,-0.74,-2.90,0.28,-0.50,-0.29,
1.981,0.66,-0.74,-2.90,0.29,-0.49,-0.29,
1.982,0.66,-0.74,-2.90,0.32,-0.45,-0.28,
1.983,0.66,-0.74,-2.90,0.34,-0.44,-0.27,
1.983,0.66,-0.74,-2.90,0.34,-0.41,-0.27,
1.983,0.10,-0.81,-3.03,0.34,-0.41,-0.27,
1.984,0.10,-0.81,-3.03,0.34,-0.39,-0.26,
1.985,0.10,-0.81,-3.03,0.35,-0.36,-0.26,
1.996,0.10,-0.81,-3.03,0.37,-0.32,-0.26,
1.997,0.10,-0.81,-3.03,0.37,-0.31,-0.26,
1.997,0.10,-0.81,-3.03,0.38,-0.28,-0.26,
1.998,-0.14,-0.72,-3.44,0.38,-0.28,-0.26,
1.998,-0.14,-0.72,-3.44,0.40,-0.25,-0.26,
1.998,-0.14,-0.72,-3.44,0.40,-0.23,-0.26,
1.999,-0.14,-0.72,-3.44,0.42,-0.19,-0.27,
1.999,-0.14,-0.72,-3.44,0.42,-0.18,-0.27,
1.999,-0.14,-0.72,-3.44,0.42,-0.15,-0.28,
2.001,-0.23,-0.56,-4.19,0.42,-0.15,-0.28,
2.002,-0.23,-0.56,-4.19,0.42,-0.13,-0.29,
2.003,-0.23,-0.56,-4.19,0.41,-0.11,-0.30,
2.006,-0.23,-0.56,-4.19,0.41,-0.09,-0.31,
2.008,-0.23,-0.56,-4.19,0.40,-0.08,-0.31,
2.009,-0.23,-0.56,-4.19,0.39,-0.07,-0.33,
2.011,-0.42,-0.48,-5.05,0.39,-0.07,-0.33,
2.011,-0.42,-0.48,-5.05,0.38,-0.05,-0.33,
2.013,-0.42,-0.48,-5.05,0.36,-0.04,-0.34,
2.017,-0.42,-0.48,-5.05,0.34,-0.03,-0.36,
2.017,-0.42,-0.48,-5.05,0.33,-0.03,-0.36,
2.019,-0.42,-0.48,-5.05,0.30,-0.02,-0.38,
2.02,-0.56,-0.33,-5.92,0.30,-0.02,-0.38,
2.021,-0.56,-0.33,-5.92,0.28,-0.02,-0.39,
2.022,-0.56,-0.33,-5.92,0.26,-0.02,-0.40,
2.025,-0.56,-0.33,-5.92,0.21,-0.01,-0.41,
2.027,-0.56,-0.33,-5.92,0.20,-0.01,-0.42,
2.03,-0.56,-0.33,-5.92,0.17,-0.02,-0.42,
2.031,-0.78,-0.46,-6.51,0.17,-0.02,-0.42,
2.031,-0.78,-0.46,-6.51,0.14,-0.02,-0.44,
2.032,-0.78,-0.46,-6.51,0.10,-0.02,-0.44,
2.035,-0.78,-0.46,-6.51,0.05,-0.02,-0.45,
2.037,-0.78,-0.46,-6.51,0.04,-0.02,-0.46,
2.038,-0.78,-0.46,-6.51,-0.00,-0.03,-0.46,
2.041,-1.00,-0.42,-6.87,-0.00,-0.03,-0.46,
2.041,-1.00,-0.42,-6.87,-0.04,-0.04,-0.47,
2.043,-1.00,-0.42,-6.87,-0.08,-0.04,-0.47,
2.057,-1.00,-0.42,-6.87,-0.14,-0.05,-0.48,
2.058,-1.00,-0.42,-6.87,-0.16,-0.05,-0.48,
2.058,-1.00,-0.42,-6.87,-0.19,-0.06,-0.48,
2.059,-1.27,-0.61,-6.75,-0.19,-0.06,-0.48,
2.059,-1.27,-0.61,-6.75,-0.23,-0.06,-0.48,
2.06,-1.27,-0.61,-6.75,-0.26,-0.07,-0.48,
2.061,-1.27,-0.61,-6.75,-0.31,-0.07,-0.48,
2.061,-1.27,-0.61,-6.75,-0.33,-0.07,-0.48,
2.062,-1.27,-0.61,-6.75,-0.36,-0.07,-0.48,
2.062,-1.47,-0.61,-6.32,-0.36,-0.07,-0.48,
2.062,-1.47,-0.61,-6.32,-0.39,-0.08,-0.48,
2.063,-1.47,-0.61,-6.32,-0.41,-0.08,-0.48,
2.066,-1.47,-0.61,-6.32,-0.45,-0.09,-0.48,
2.099,-1.47,-0.61,-6.32,-0.46,-0.09,-0.48,
2.099,-1.47,-0.61,-6.32,-0.48,-0.09,-0.47,
2.1,-1.65,-0.72,-5.59,-0.48,-0.09,-0.47,
2.1,-1.65,-0.72,-5.59,-0.49,-0.10,-0.47,
2.1,-1.65,-0.72,-5.59,-0.51,-0.10,-0.47,
2.1,-1.65,-0.72,-5.59,-0.52,-0.10,-0.47,
2.1,-1.65,-0.72,-5.59,-0.53,-0.09,-0.46,
2.101,-1.65,-0.72,-5.59,-0.53,-0.09,-0.46,
2.101,-1.83,-0.73,-4.68,-0.53,-0.09,-0.46,
2.101,-1.83,-0.73,-4.68,-0.53,-0.07,-0.45,
2.101,-1.83,-0.73,-4.68,-0.53,-0.06,-0.44,
2.101,-1.83,-0.73,-4.68,-0.52,-0.03,-0.42,
2.101,-1.83,-0.73,-4.68,-0.51,-0.01,-0.40,
2.102,-1.83,-0.73,-4.68,-0.51,-0.01,-0.40,
2.102,-2.08,-0.82,-3.72,-0.51,-0.01,-0.40,
2.102,-2.08,-0.82,-3.72,-0.51,0.01,-0.38,
2.102,-2.08,-0.82,-3.72,-0.50,0.03,-0.36,
2.102,-2.08,-0.82,-3.72,-0.49,0.06,-0.33,
2.103,-2.08,-0.82,-3.72,-0.48,0.06,-0.32,
2.103,-2.08,-0.82,-3.72,-0.47,0.08,-0.30,
2.142,-2.26,-0.87,-3.18,-0.47,0.08,-0.30,
2.143,-2.26,-0.87,-3.18,-0.45,0.10,-0.28,
2.143,-2.26,-0.87,-3.18,-0.44,0.12,-0.25,
2.146,-2.26,-0.87,-3.18,-0.41,0.14,-0.22,
2.147,-2.26,-0.87,-3.18,-0.41,0.14,-0.21,
2.147,-2.26,-0.87,-3.18,-0.39,0.15,-0.18,
2.147,-2.22,-0.86,-2.70,-0.39,0.15,-0.18,
2.147,-2.22,-0.86,-2.70,-0.37,0.16,-0.16,
2.148,-2.22,-0.86,-2.70,-0.35,0.17,-0.13,
2.148,-2.22,-0.86,-2.70,-0.32,0.17,-0.09,
2.148,-2.22,-0.86,-2.70,-0.31,0.17,-0.08,
2.149,-2.22,-0.86,-2.70,-0.29,0.17,-0.05,
2.149,-2.23,-0.93,-2.33,-0.29,0.17,-0.05,
2.149,-2.23,-0.93,-2.33,-0.26,0.16,-0.03,
2.149,-2.23,-0.93,-2.33,-0.24,0.16,-0.00,
2.15,-2.23,-0.93,-2.33,-0.22,0.14,0.03,
2.15,-2.23,-0.93,-2.33,-0.21,0.14,0.05,
2.15,-2.23,-0.93,-2.33,-0.18,0.13,0.07,
2.15,-2.06,-0.89,-2.12,-0.18,0.13,0.07,
2.151,-2.06,-0.89,-2.12,-0.16,0.11,0.09,
2.151,-2.06,-0.89,-2.12,-0.14,0.10,0.12,
2.151,-2.06,-0.89,-2.12,-0.11,0.07,0.15,
2.151,-2.06,-0.89,-2.12,-0.10,0.06,0.16,
2.152,-2.06,-0.89,-2.12,-0.07,0.05,0.19,
2.152,-1.91,-0.87,-1.85,-0.07,0.05,0.19,
2.152,-1.91,-0.87,-1.85,-0.05,0.04,0.21,
2.152,-1.91,-0.87,-1.85,-0.03,0.02,0.23,
2.153,-1.91,-0.87,-1.85,0.01,0.01,0.26,
2.153,-1.91,-0.87,-1.85,0.02,0.01,0.27,
2.153,-1.91,-0.87,-1.85,0.05,-0.00,0.29,
2.154,-1.65,-0.86,-1.65,0.05,-0.00,0.29,
2.154,-1.65,-0.86,-1.65,0.07,-0.01,0.31,
2.154,-1.65,-0.86,-1.65,0.09,-0.02,0.33,
2.164,-1.65,-0.86,-1.65,0.12,-0.03,0.36,
2.164,-1.65,-0.86,-1.65,0.13,-0.03,0.37,
2.165,-1.65,-0.86,-1.65,0.16,-0.04,0.39,
2.165,-1.53,-0.91,-1.40,0.16,-0.04,0.39,
2.165,-1.53,-0.91,-1.40,0.18,-0.05,0.40,
2.165,-1.53,-0.91,-1.40,0.20,-0.05,0.42,
2.168,-1.53,-0.91,-1.40,0.25,-0.06,0.45,
2.168,-1.53,-0.91,-1.40,0.25,-0.06,0.45,
2.172,-1.53,-0.91,-1.40,0.28,-0.06,0.47,
2.172,-1.43,-0.97,-1.01,0.28,-0.06,0.47,
2.172,-1.43,-0.97,-1.01,0.30,-0.05,0.49,
2.173,-1.43,-0.97,-1.01,0.33,-0.04,0.50,
2.177,-1.43,-0.97,-1.01,0.38,-0.01,0.54,
2.177,-1.43,-0.97,-1.01,0.39,-0.00,0.55,
2.188,-1.43,-0.97,-1.01,0.42,0.02,0.57,
2.188,-1.49,-1.06,-0.61,0.42,0.02,0.57,
2.189,-1.49,-1.06,-0.61,0.45,0.05,0.60,
2.189,-1.49,-1.06,-0.61,0.48,0.07,0.63,
2.189,-1.49,-1.06,-0.61,0.53,0.10,0.67,
2.189,-1.49,-1.06,-0.61,0.55,0.11,0.69,
2.189,-1.49,-1.06,-0.61,0.57,0.13,0.71,
2.219,-1.42,-1.04,-0.57,0.57,0.13,0.71,
2.22,-1.42,-1.04,-0.57,0.59,0.13,0.73,
2.22,-1.42,-1.04,-0.57,0.62,0.14,0.76,
2.22,-1.42,-1.04,-0.57,0.65,0.13,0.79,
2.22,-1.42,-1.04,-0.57,0.66,0.13,0.79,
2.22,-1.42,-1.04,-0.57,0.69,0.13,0.81,
2.221,-1.10,-0.98,-0.74,0.69,0.13,0.81,
2.221,-1.10,-0.98,-0.74,0.71,0.11,0.83,
2.221,-1.10,-0.98,-0.74,0.73,0.10,0.84,
2.221,-1.10,-0.98,-0.74,0.76,0.08,0.86,
2.221,-1.10,-0.98,-0.74,0.77,0.07,0.86,
2.222,-1.10,-0.98,-0.74,0.79,0.06,0.87,
2.222,-0.68,-0.92,-0.86,0.79,0.06,0.87,
2.222,-0.68,-0.92,-0.86,0.80,0.04,0.88,
2.222,-0.68,-0.92,-0.86,0.82,0.02,0.89,
2.222,-0.68,-0.92,-0.86,0.85,0.00,0.90,
2.222,-0.68,-0.92,-0.86,0.86,-0.01,0.90,
2.223,-0.68,-0.92,-0.86,0.88,-0.03,0.91,
2.223,-0.28,-0.84,-1.01,0.88,-0.03,0.91,
2.223,-0.28,-0.84,-1.01,0.89,-0.04,0.91,
2.223,-0.28,-0.84,-1.01,0.90,-0.06,0.91,
2.226,-0.28,-0.84,-1.01,0.92,-0.08,0.91,
2.227,-0.28,-0.84,-1.01,0.92,-0.09,0.91,
2.229,-0.28,-0.84,-1.01,0.94,-0.11,0.91,
2.23,0.09,-0.77,-1.32,0.94,-0.11,0.91,
2.231,0.09,-0.77,-1.32,0.93,-0.12,0.91,
2.233,0.09,-0.77,-1.32,0.93,-0.13,0.90,
2.235,0.09,-0.77,-1.32,0.93,-0.15,0.89,
2.236,0.09,-0.77,-1.32,0.93,-0.16,0.89,
2.238,0.09,-0.77,-1.32,0.93,-0.17,0.88,
2.24,0.44,-0.66,-1.62,0.93,-0.17,0.88,
2.241,0.44,-0.66,-1.62,0.92,-0.18,0.87,
2.242,0.44,-0.66,-1.62,0.91,-0.18,0.86,
2.246,0.44,-0.66,-1.62,0.90,-0.19,0.84,
2.247,0.44,-0.66,-1.62,0.89,-0.19,0.84,
2.248,0.44,-0.66,-1.62,0.87,-0.18,0.82,
2.251,0.70,-0.57,-1.84,0.87,-0.18,0.82,
2.251,0.70,-0.57,-1.84,0.85,-0.18,0.81,
2.252,0.70,-0.57,-1.84,0.83,-0.18,0.80,
2.255,0.70,-0.57,-1.84,0.79,-0.17,0.77,
2.256,0.70,-0.57,-1.84,0.78,-0.17,0.76,
2.259,0.70,-0.57,-1.84,0.75,-0.17,0.75,
2.261,1.00,-0.51,-1.88,0.75,-0.17,0.75,
2.262,1.00,-0.51,-1.88,0.73,-0.16,0.73,
2.263,1.00,-0.51,-1.88,0.70,-0.15,0.70,
2.265,1.00,-0.51,-1.88,0.67,-0.14,0.68,
2.282,1.00,-0.51,-1.88,0.66,-0.13,0.67,
2.283,1.00,-0.51,-1.88,0.63,-0.12,0.65,
2.283,1.04,-0.47,-1.52,0.63,-0.12,0.65,
2.283,1.04,-0.47,-1.52,0.60,-0.12,0.63,
2.283,1.04,-0.47,-1.52,0.58,-0.11,0.61,
2.283,1.04,-0.47,-1.52,0.54,-0.10,0.59,
2.284,1.04,-0.47,-1.52,0.53,-0.09,0.58,
2.284,1.04,-0.47,-1.52,0.51,-0.09,0.57,
2.284,1.01,-0.48,-1.00,0.51,-0.09,0.57,
2.284,1.01,-0.48,-1.00,0.48,-0.09,0.56,
2.284,1.01,-0.48,-1.00,0.47,-0.08,0.54,
2.287,1.01,-0.48,-1.00,0.44,-0.08,0.52,
2.288,1.01,-0.48,-1.00,0.44,-0.08,0.51,
2.288,1.01,-0.48,-1.00,0.42,-0.07,0.50,
2.291,0.88,-0.52,-0.15,0.42,-0.07,0.50,
2.291,0.88,-0.52,-0.15,0.42,-0.06,0.49,
2.292,0.88,-0.52,-0.15,0.41,-0.05,0.48,
2.296,0.88,-0.52,-0.15,0.41,-0.04,0.46,
2.297,0.88,-0.52,-0.15,0.41,-0.03,0.45,
2.299,0.88,-0.52,-0.15,0.42,-0.01,0.44,
2.301,0.79,-0.55,0.80,0.42,-0.01,0.44,
2.301,0.79,-0.55,0.80,0.43,-0.00,0.43,
2.302,0.79,-0.55,0.80,0.44,0.01,0.42,
2.305,0.79,-0.55,0.80,0.44,0.02,0.40,
2.306,0.79,-0.55,0.80,0.44,0.03,0.40,
2.308,0.79,-0.55,0.80,0.45,0.03,0.39,
2.315,0.67,-0.59,1.49,0.45,0.03,0.39,
2.315,0.67,-0.59,1.49,0.45,0.02,0.38,
2.315,0.67,-0.59,1.49,0.45,0.02,0.38,
2.315,0.67,-0.59,1.49,0.46,0.00,0.37,
2.324,0.67,-0.59,1.49,0.46,-0.00,0.37,
2.324,0.67,-0.59,1.49,0.45,-0.02,0.36,
2.324,0.69,-0.76,1.95,0.45,-0.02,0.36,
2.324,0.69,-0.76,1.95,0.45,-0.03,0.36,
2.324,0.69,-0.76,1.95,0.45,-0.04,0.36,
2.326,0.69,-0.76,1.95,0.44,-0.06,0.35,
2.327,0.69,-0.76,1.95,0.43,-0.07,0.35,
2.335,0.69,-0.76,1.95,0.43,-0.08,0.36,
2.336,0.66,-0.80,2.31,0.43,-0.08,0.36,
2.336,0.66,-0.80,2.31,0.41,-0.10,0.36,
2.336,0.66,-0.80,2.31,0.40,-0.11,0.36,
2.336,0.66,-0.80,2.31,0.38,-0.13,0.36,
2.336,0.66,-0.80,2.31,0.37,-0.14,0.36,
2.338,0.66,-0.80,2.31,0.35,-0.16,0.36,
2.341,0.69,-0.76,2.72,0.35,-0.16,0.36,
2.341,0.69,-0.76,2.72,0.33,-0.17,0.36,
2.342,0.69,-0.76,2.72,0.31,-0.19,0.36,
2.345,0.69,-0.76,2.72,0.28,-0.22,0.36,
2.346,0.69,-0.76,2.72,0.27,-0.22,0.36,
2.348,0.69,-0.76,2.72,0.24,-0.24,0.36,
2.35,0.78,-0.54,3.06,0.24,-0.24,0.36,
2.35,0.78,-0.54,3.06,0.21,-0.26,0.36,
2.352,0.78,-0.54,3.06,0.18,-0.28,0.36,
2.355,0.78,-0.54,3.06,0.13,-0.32,0.35,
2.356,0.78,-0.54,3.06,0.11,-0.33,0.35,
2.358,0.78,-0.54,3.06,0.07,-0.35,0.35,
2.361,0.97,-0.37,3.35,0.07,-0.35,0.35,
2.361,0.97,-0.37,3.35,0.03,-0.37,0.35,
2.362,0.97,-0.37,3.35,-0.01,-0.39,0.34,
2.366,0.97,-0.37,3.35,-0.08,-0.42,0.33,
2.367,0.97,-0.37,3.35,-0.11,-0.43,0.33,
2.368,0.97,-0.37,3.35,-0.16,-0.45,0.32,
2.371,1.30,-0.18,3.78,-0.16,-0.45,0.32,
2.371,1.30,-0.18,3.78,-0.20,-0.46,0.31,
2.372,1.30,-0.18,3.78,-0.26,-0.48,0.31,
2.375,1.30,-0.18,3.78,-0.34,-0.49,0.29,
2.376,1.30,-0.18,3.78,-0.36,-0.50,0.28,
2.378,1.30,-0.18,3.78,-0.42,-0.51,0.26,
2.381,1.99,-0.17,4.46,-0.42,-0.51,0.26,
2.381,1.99,-0.17,4.46,-0.48,-0.51,0.25,
2.382,1.99,-0.17,4.46,-0.54,-0.51,0.23,
2.385,1.99,-0.17,4.46,-0.62,-0.52,0.19,
2.386,1.99,-0.17,4.46,-0.65,-0.51,0.18,
2.389,1.99,-0.17,4.46,-0.70,-0.51,0.15,
2.391,2.65,-0.21,5.32,-0.70,-0.51,0.15,
2.391,2.65,-0.21,5.32,-0.76,-0.50,0.13,
2.392,2.65,-0.21,5.32,-0.81,-0.49,0.10,
2.395,2.65,-0.21,5.32,-0.88,-0.47,0.06,
2.397,2.65,-0.21,5.32,-0.90,-0.46,0.05,
2.399,2.65,-0.21,5.32,-0.94,-0.43,0.03,
2.401,2.90,-0.35,6.33,-0.94,-0.43,0.03,
2.401,2.90,-0.35,6.33,-0.98,-0.41,0.01,
2.402,2.90,-0.35,6.33,-1.02,-0.37,-0.02,
2.405,2.90,-0.35,6.33,-1.07,-0.31,-0.05,
2.406,2.90,-0.35,6.33,-1.09,-0.29,-0.06,
2.408,2.90,-0.35,6.33,-1.11,-0.25,-0.07,
2.411,2.78,-0.47,7.20,-1.11,-0.25,-0.07,
2.412,2.78,-0.47,7.20,-1.13,-0.20,-0.09,
2.414,2.78,-0.47,7.20,-1.15,-0.16,-0.11,
2.415,2.78,-0.47,7.20,-1.16,-0.09,-0.13,
2.419,2.78,-0.47,7.20,-1.17,-0.06,-0.14,
2.42,2.78,-0.47,7.20,-1.18,-0.02,-0.15,
2.421,2.46,-0.60,7.72,-1.18,-0.02,-0.15,
2.422,2.46,-0.60,7.72,-1.18,0.02,-0.16,
2.422,2.46,-0.60,7.72,-1.18,0.06,-0.16,
2.425,2.46,-0.60,7.72,-1.18,0.10,-0.17,
2.427,2.46,-0.60,7.72,-1.18,0.11,-0.18,
2.429,2.46,-0.60,7.72,-1.18,0.13,-0.18,
2.431,2.14,-0.59,7.51,-1.18,0.13,-0.18,
2.431,2.14,-0.59,7.51,-1.18,0.13,-0.19,
2.447,2.14,-0.59,7.51,-1.18,0.13,-0.20,
2.447,2.14,-0.59,7.51,-1.17,0.12,-0.20,
2.447,2.14,-0.59,7.51,-1.18,0.09,-0.22,
2.448,2.14,-0.59,7.51,-1.18,0.07,-0.22,
2.448,1.99,-0.61,6.89,-1.18,0.07,-0.22,
2.448,1.99,-0.61,6.89,-1.18,0.06,-0.22,
2.448,1.99,-0.61,6.89,-1.18,0.03,-0.23,
2.449,1.99,-0.61,6.89,-1.18,-0.03,-0.25,
2.449,1.99,-0.61,6.89,-1.18,-0.05,-0.25,
2.449,1.99,-0.61,6.89,-1.19,-0.09,-0.26,
2.452,1.85,-0.47,6.24,-1.19,-0.09,-0.26,
2.452,1.85,-0.47,6.24,-1.19,-0.13,-0.27,
2.452,1.85,-0.47,6.24,-1.20,-0.17,-0.28,
2.455,1.85,-0.47,6.24,-1.20,-0.23,-0.30,
2.456,1.85,-0.47,6.24,-1.20,-0.24,-0.30,
2.458,1.85,-0.47,6.24,-1.20,-0.27,-0.31,
2.465,1.84,-0.38,5.74,-1.20,-0.27,-0.31,
2.465,1.84,-0.38,5.74,-1.21,-0.29,-0.33,
2.465,1.84,-0.38,5.74,-1.21,-0.30,-0.34,
2.465,1.84,-0.38,5.74,-1.20,-0.31,-0.35,
2.466,1.84,-0.38,5.74,-1.20,-0.31,-0.36,
2.469,1.84,-0.38,5.74,-1.18,-0.30,-0.37,
2.471,1.80,-0.28,5.57,-1.18,-0.30,-0.37,
2.471,1.80,-0.28,5.57,-1.17,-0.29,-0.38,
2.473,1.80,-0.28,5.57,-1.16,-0.26,-0.39,
2.476,1.80,-0.28,5.57,-1.13,-0.22,-0.41,
2.483,1.80,-0.28,5.57,-1.12,-0.20,-0.41,
2.484,1.80,-0.28,5.57,-1.10,-0.16,-0.42,
2.484,1.53,-0.25,5.42,-1.10,-0.16,-0.42,
2.484,1.53,-0.25,5.42,-1.07,-0.12,-0.43,
2.484,1.53,-0.25,5.42,-1.04,-0.07,-0.43,
2.486,1.53,-0.25,5.42,-1.00,0.01,-0.43,
2.487,1.53,-0.25,5.42,-0.98,0.05,-0.43,
2.489,1.53,-0.25,5.42,-0.94,0.11,-0.43,
2.491,0.83,-0.19,4.92,-0.94,0.11,-0.43,
2.491,0.83,-0.19,4.92,-0.91,0.18,-0.43,
2.492,0.83,-0.19,4.92,-0.87,0.24,-0.42,
2.496,0.83,-0.19,4.92,-0.81,0.34,-0.41,
2.496,0.83,-0.19,4.92,-0.79,0.38,-0.41,
2.498,0.83,-0.19,4.92,-0.76,0.44,-0.40,
2.501,0.11,-0.17,3.84,-0.76,0.44,-0.40,
2.501,0.11,-0.17,3.84,-0.72,0.51,-0.39,
2.502,0.11,-0.17,3.84,-0.68,0.57,-0.38,
2.505,0.11,-0.17,3.84,-0.63,0.65,-0.36,
2.506,0.11,-0.17,3.84,-0.61,0.67,-0.35,
2.508,0.11,-0.17,3.84,-0.58,0.72,-0.34,
2.511,-0.47,-0.15,2.21,-0.58,0.72,-0.34,
2.511,-0.47,-0.15,2.21,-0.54,0.77,-0.32,
2.512,-0.47,-0.15,2.21,-0.51,0.80,-0.31,
2.516,-0.47,-0.15,2.21,-0.46,0.84,-0.29,
2.517,-0.47,-0.15,2.21,-0.45,0.85,-0.28,
2.518,-0.47,-0.15,2.21,-0.42,0.87,-0.26,
2.521,-1.04,-0.08,0.36,-0.42,0.87,-0.26,
2.521,-1.04,-0.08,0.36,-0.39,0.87,-0.24,
2.522,-1.04,-0.08,0.36,-0.37,0.87,-0.22,
2.525,-1.04,-0.08,0.36,-0.33,0.86,-0.19,
2.527,-1.04,-0.08,0.36,-0.32,0.85,-0.18,
2.528,-1.04,-0.08,0.36,-0.30,0.84,-0.16,
2.531,-1.39,-0.06,-1.38,-0.30,0.84,-0.16,
2.531,-1.39,-0.06,-1.38,-0.28,0.81,-0.14,
2.532,-1.39,-0.06,-1.38,-0.25,0.79,-0.12,
2.535,-1.39,-0.06,-1.38,-0.22,0.74,-0.10,
2.536,-1.39,-0.06,-1.38,-0.21,0.72,-0.09,
2.538,-1.39,-0.06,-1.38,-0.19,0.69,-0.07,
2.541,-1.60,0.01,-2.77,-0.19,0.69,-0.07,
2.541,-1.60,0.01,-2.77,-0.17,0.64,-0.05,
2.542,-1.60,0.01,-2.77,-0.15,0.60,-0.03,
2.545,-1.60,0.01,-2.77,-0.12,0.53,-0.01,
2.547,-1.60,0.01,-2.77,-0.11,0.51,0.00,
2.548,-1.60,0.01,-2.77,-0.09,0.45,0.02,
2.551,-1.56,0.01,-3.68,-0.09,0.45,0.02,
2.551,-1.56,0.01,-3.68,-0.06,0.40,0.03,
2.553,-1.56,0.01,-3.68,-0.04,0.35,0.05,
2.555,-1.56,0.01,-3.68,-0.01,0.27,0.07,
2.557,-1.56,0.01,-3.68,-0.00,0.24,0.07,
2.558,-1.56,0.01,-3.68,0.02,0.19,0.09,
2.561,-1.61,0.06,-4.31,0.02,0.19,0.09,
2.561,-1.61,0.06,-4.31,0.04,0.14,0.10,
2.562,-1.61,0.06,-4.31,0.06,0.09,0.11,
2.566,-1.61,0.06,-4.31,0.08,0.03,0.13,
2.567,-1.61,0.06,-4.31,0.09,0.00,0.14,
2.568,-1.61,0.06,-4.31,0.10,-0.04,0.15,
2.57,-1.59,-0.05,-4.80,0.10,-0.04,0.15,
2.571,-1.59,-0.05,-4.80,0.11,-0.08,0.16,
2.572,-1.59,-0.05,-4.80,0.12,-0.12,0.17,
2.575,-1.59,-0.05,-4.80,0.14,-0.17,0.19,
2.577,-1.59,-0.05,-4.80,0.14,-0.18,0.19,
2.579,-1.59,-0.05,-4.80,0.14,-0.21,0.20,
2.581,-1.55,-0.11,-5.05,0.14,-0.21,0.20,
2.581,-1.55,-0.11,-5.05,0.15,-0.23,0.21,
2.583,-1.55,-0.11,-5.05,0.15,-0.25,0.22,
2.585,-1.55,-0.11,-5.05,0.16,-0.26,0.23,
2.586,-1.55,-0.11,-5.05,0.16,-0.27,0.23,
2.588,-1.55,-0.11,-5.05,0.16,-0.27,0.24,
2.591,-1.47,-0.27,-4.97,0.16,-0.27,0.24,
2.591,-1.47,-0.27,-4.97,0.17,-0.26,0.25,
2.601,-1.47,-0.27,-4.97,0.17,-0.26,0.26,
2.602,-1.47,-0.27,-4.97,0.18,-0.25,0.27,
2.602,-1.47,-0.27,-4.97,0.19,-0.24,0.27,
2.603,-1.47,-0.27,-4.97,0.20,-0.23,0.28,
2.633,-1.47,-0.26,-4.70,0.20,-0.23,0.28,
2.634,-1.47,-0.26,-4.70,0.20,-0.22,0.28,
2.634,-1.47,-0.26,-4.70,0.21,-0.20,0.29,
2.635,-1.47,-0.26,-4.70,0.23,-0.17,0.30,
2.635,-1.47,-0.26,-4.70,0.23,-0.16,0.30,
2.636,-1.47,-0.26,-4.70,0.25,-0.14,0.30,
2.637,-1.38,-0.29,-4.39,0.25,-0.14,0.30,
2.637,-1.38,-0.29,-4.39,0.26,-0.13,0.31,
2.638,-1.38,-0.29,-4.39,0.27,-0.11,0.31,
2.639,-1.38,-0.29,-4.39,0.29,-0.09,0.31,
2.639,-1.38,-0.29,-4.39,0.30,-0.09,0.31,
2.64,-1.38,-0.29,-4.39,0.32,-0.08,0.31,
2.641,-1.24,-0.28,-4.12,0.32,-0.08,0.31,
2.641,-1.24,-0.28,-4.12,0.33,-0.07,0.31,
2.642,-1.24,-0.28,-4.12,0.35,-0.07,0.31,
2.643,-1.24,-0.28,-4.12,0.37,-0.07,0.30,
2.644,-1.24,-0.28,-4.12,0.38,-0.07,0.30,
2.645,-1.24,-0.28,-4.12,0.40,-0.07,0.30,
2.646,-1.19,-0.35,-3.87,0.40,-0.07,0.30,
2.647,-1.19,-0.35,-3.87,0.42,-0.07,0.30,
2.647,-1.19,-0.35,-3.87,0.44,-0.08,0.31,
2.648,-1.19,-0.35,-3.87,0.47,-0.09,0.31,
2.649,-1.19,-0.35,-3.87,0.48,-0.09,0.31,
2.65,-1.19,-0.35,-3.87,0.49,-0.10,0.31,
2.651,-1.28,-0.40,-3.63,0.49,-0.10,0.31,
2.654,-1.28,-0.40,-3.63,0.51,-0.11,0.32,
2.654,-1.28,-0.40,-3.63,0.53,-0.12,0.32,
2.655,-1.28,-0.40,-3.63,0.56,-0.14,0.32,
2.655,-1.28,-0.40,-3.63,0.56,-0.14,0.32,
2.655,-1.28,-0.40,-3.63,0.58,-0.16,0.33,
2.656,-1.16,-0.44,-3.36,0.58,-0.16,0.33,
2.656,-1.16,-0.44,-3.36,0.60,-0.18,0.33,
2.656,-1.16,-0.44,-3.36,0.61,-0.20,0.32,
2.657,-1.16,-0.44,-3.36,0.65,-0.23,0.32,
2.657,-1.16,-0.44,-3.36,0.66,-0.24,0.32,
2.667,-1.16,-0.44,-3.36,0.68,-0.27,0.32,
2.667,-1.07,-0.44,-2.88,0.68,-0.27,0.32,
2.668,-1.07,-0.44,-2.88,0.71,-0.29,0.31,
2.668,-1.07,-0.44,-2.88,0.73,-0.31,0.31,
2.668,-1.07,-0.44,-2.88,0.77,-0.34,0.31,
2.669,-1.07,-0.44,-2.88,0.78,-0.35,0.31,
2.669,-1.07,-0.44,-2.88,0.81,-0.37,0.30,
2.671,-0.98,-0.53,-2.35,0.81,-0.37,0.30,
2.672,-0.98,-0.53,-2.35,0.84,-0.39,0.29,
2.673,-0.98,-0.53,-2.35,0.86,-0.41,0.29,
2.682,-0.98,-0.53,-2.35,0.90,-0.43,0.29,
2.683,-0.98,-0.53,-2.35,0.91,-0.44,0.29,
2.684,-0.98,-0.53,-2.35,0.93,-0.45,0.28,
2.685,-0.87,-0.68,-2.02,0.93,-0.45,0.28,
2.685,-0.87,-0.68,-2.02,0.94,-0.46,0.28,
2.686,-0.87,-0.68,-2.02,0.96,-0.47,0.27,
2.686,-0.87,-0.68,-2.02,0.99,-0.48,0.26,
2.687,-0.87,-0.68,-2.02,1.00,-0.48,0.26,
2.691,-0.87,-0.68,-2.02,1.02,-0.48,0.26,
2.692,-0.68,-0.78,-1.72,1.02,-0.48,0.26,
2.693,-0.68,-0.78,-1.72,1.03,-0.47,0.25,
2.693,-0.68,-0.78,-1.72,1.05,-0.47,0.24,
2.696,-0.68,-0.78,-1.72,1.07,-0.46,0.23,
2.699,-0.68,-0.78,-1.72,1.07,-0.46,0.22,
2.7,-0.68,-0.78,-1.72,1.08,-0.45,0.22,
2.701,-0.54,-0.82,-1.66,1.08,-0.45,0.22,
2.702,-0.54,-0.82,-1.66,1.09,-0.45,0.21,
2.703,-0.54,-0.82,-1.66,1.09,-0.44,0.20,
2.705,-0.54,-0.82,-1.66,1.08,-0.43,0.18,
2.707,-0.54,-0.82,-1.66,1.08,-0.42,0.18,
2.71,-0.54,-0.82,-1.66,1.07,-0.42,0.17,
2.713,-0.44,-0.81,-1.89,1.07,-0.42,0.17,
2.714,-0.44,-0.81,-1.89,1.06,-0.42,0.15,
2.715,-0.44,-0.81,-1.89,1.05,-0.41,0.14,
2.717,-0.44,-0.81,-1.89,1.02,-0.40,0.11,
2.718,-0.44,-0.81,-1.89,1.01,-0.40,0.11,
2.718,-0.44,-0.81,-1.89,0.99,-0.39,0.09,
2.721,-0.43,-0.81,-2.05,0.99,-0.39,0.09,
2.721,-0.43,-0.81,-2.05,0.97,-0.38,0.08,
2.723,-0.43,-0.81,-2.05,0.95,-0.38,0.07,
2.726,-0.43,-0.81,-2.05,0.91,-0.37,0.05,
2.727,-0.43,-0.81,-2.05,0.90,-0.37,0.04,
2.73,-0.43,-0.81,-2.05,0.87,-0.36,0.02,
2.731,-0.40,-0.73,-2.00,0.87,-0.36,0.02,
2.731,-0.40,-0.73,-2.00,0.85,-0.36,0.01,
2.733,-0.40,-0.73,-2.00,0.83,-0.35,-0.01,
2.736,-0.40,-0.73,-2.00,0.79,-0.35,-0.03,
2.737,-0.40,-0.73,-2.00,0.78,-0.34,-0.04,
2.739,-0.40,-0.73,-2.00,0.75,-0.34,-0.07,
2.741,-0.17,-0.63,-1.79,0.75,-0.34,-0.07,
2.741,-0.17,-0.63,-1.79,0.73,-0.34,-0.09,
2.749,-0.17,-0.63,-1.79,0.71,-0.34,-0.12,
2.75,-0.17,-0.63,-1.79,0.67,-0.34,-0.16,
2.75,-0.17,-0.63,-1.79,0.66,-0.34,-0.17,
2.75,-0.17,-0.63,-1.79,0.64,-0.33,-0.21,
2.751,0.13,-0.57,-1.47,0.64,-0.33,-0.21,
2.751,0.13,-0.57,-1.47,0.62,-0.33,-0.24,
2.78,0.13,-0.57,-1.47,0.60,-0.33,-0.27,
2.781,0.13,-0.57,-1.47,0.57,-0.32,-0.33,
2.782,0.13,-0.57,-1.47,0.56,-0.32,-0.34,
2.782,0.13,-0.57,-1.47,0.55,-0.31,-0.37,
2.782,0.19,-0.54,-1.20,0.55,-0.31,-0.37,
2.783,0.19,-0.54,-1.20,0.53,-0.30,-0.41,
2.783,0.19,-0.54,-1.20,0.50,-0.29,-0.44,
2.783,0.19,-0.54,-1.20,0.47,-0.27,-0.49,
2.819,0.19,-0.54,-1.20,0.46,-0.26,-0.51,
2.82,0.19,-0.54,-1.20,0.44,-0.25,-0.54,
2.821,-0.07,-0.65,-1.17,0.44,-0.25,-0.54,
2.822,-0.07,-0.65,-1.17,0.41,-0.24,-0.56,
2.822,-0.07,-0.65,-1.17,0.38,-0.22,-0.59,
2.823,-0.07,-0.65,-1.17,0.34,-0.20,-0.63,
2.824,-0.07,-0.65,-1.17,0.32,-0.19,-0.64,
2.824,-0.07,-0.65,-1.17,0.29,-0.17,-0.66,
2.825,-0.61,-0.77,-1.17,0.29,-0.17,-0.66,
2.825,-0.61,-0.77,-1.17,0.26,-0.15,-0.67,
2.826,-0.61,-0.77,-1.17,0.22,-0.12,-0.69,
2.827,-0.61,-0.77,-1.17,0.18,-0.08,-0.71,
2.827,-0.61,-0.77,-1.17,0.12,-0.03,-0.72,
2.828,-0.61,-0.77,-1.17,0.11,-0.02,-0.73,
2.829,-1.23,-0.84,-1.00,0.11,-0.02,-0.73,
2.829,-1.23,-0.84,-1.00,0.09,-0.00,-0.73,
2.83,-1.23,-0.84,-1.00,0.06,0.03,-0.73,
2.83,-1.23,-0.84,-1.00,0.00,0.08,-0.73,
2.831,-1.23,-0.84,-1.00,-0.01,0.09,-0.73,
2.831,-1.23,-0.84,-1.00,-0.05,0.12,-0.73,
2.831,-1.76,-0.87,-0.78,-0.05,0.12,-0.73,
2.832,-1.76,-0.87,-0.78,-0.08,0.15,-0.73,
2.832,-1.76,-0.87,-0.78,-0.12,0.18,-0.72,
2.833,-1.76,-0.87,-0.78,-0.19,0.22,-0.71,
2.833,-1.76,-0.87,-0.78,-0.21,0.23,-0.71,
2.833,-1.76,-0.87,-0.78,-0.23,0.24,-0.71,
2.834,-2.05,-0.73,-0.45,-0.23,0.24,-0.71,
2.834,-2.05,-0.73,-0.45,-0.26,0.26,-0.71,
2.835,-2.05,-0.73,-0.45,-0.29,0.27,-0.71,
2.835,-2.05,-0.73,-0.45,-0.34,0.28,-0.70,
2.835,-2.05,-0.73,-0.45,-0.35,0.27,-0.70,
2.836,-2.05,-0.73,-0.45,-0.38,0.28,-0.70,
2.836,-2.06,-0.57,0.02,-0.38,0.28,-0.70,
2.837,-2.06,-0.57,0.02,-0.42,0.27,-0.70,
2.837,-2.06,-0.57,0.02,-0.44,0.27,-0.70,
2.837,-2.06,-0.57,0.02,-0.48,0.26,-0.71,
2.838,-2.06,-0.57,0.02,-0.49,0.26,-0.71,
2.838,-2.06,-0.57,0.02,-0.52,0.25,-0.71,
2.839,-1.86,-0.41,0.67,-0.52,0.25,-0.71,
2.839,-1.86,-0.41,0.67,-0.55,0.24,-0.71,
2.84,-1.86,-0.41,0.67,-0.57,0.24,-0.72,
2.84,-1.86,-0.41,0.67,-0.60,0.23,-0.73,
2.84,-1.86,-0.41,0.67,-0.61,0.22,-0.73,
2.841,-1.86,-0.41,0.67,-0.64,0.22,-0.73,
2.841,-1.79,-0.28,1.38,-0.64,0.22,-0.73,
2.842,-1.79,-0.28,1.38,-0.66,0.21,-0.74,
2.856,-1.79,-0.28,1.38,-0.69,0.20,-0.74,
2.856,-1.79,-0.28,1.38,-0.72,0.19,-0.75,
2.857,-1.79,-0.28,1.38,-0.73,0.18,-0.75,
2.857,-1.79,-0.28,1.38,-0.76,0.17,-0.75,
2.857,-1.73,-0.21,2.11,-0.76,0.17,-0.75,
2.857,-1.73,-0.21,2.11,-0.78,0.16,-0.75,
2.858,-1.73,-0.21,2.11,-0.81,0.15,-0.75,
2.858,-1.73,-0.21,2.11,-0.84,0.14,-0.74,
2.858,-1.73,-0.21,2.11,-0.85,0.13,-0.73,
2.861,-1.73,-0.21,2.11,-0.87,0.12,-0.72,
2.861,-1.96,-0.26,3.16,-0.87,0.12,-0.72,
2.861,-1.96,-0.26,3.16,-0.88,0.11,-0.71,
2.865,-1.96,-0.26,3.16,-0.90,0.11,-0.69,
2.866,-1.96,-0.26,3.16,-0.91,0.10,-0.65,
2.867,-1.96,-0.26,3.16,-0.91,0.10,-0.64,
2.869,-1.96,-0.26,3.16,-0.91,0.10,-0.61,
2.871,-2.23,-0.38,4.60,-0.91,0.10,-0.61,
2.871,-2.23,-0.38,4.60,-0.91,0.11,-0.58,
2.873,-2.23,-0.38,4.60,-0.90,0.11,-0.54,
2.876,-2.23,-0.38,4.60,-0.88,0.14,-0.49,
2.877,-2.23,-0.38,4.60,-0.87,0.15,-0.47,
2.879,-2.23,-0.38,4.60,-0.85,0.17,-0.43,
2.882,-2.53,-0.45,6.15,-0.85,0.17,-0.43,
2.882,-2.53,-0.45,6.15,-0.83,0.19,-0.38,
2.882,-2.53,-0.45,6.15,-0.81,0.22,-0.34,
2.886,-2.53,-0.45,6.15,-0.76,0.25,-0.27,
2.887,-2.53,-0.45,6.15,-0.73,0.26,-0.22,
2.889,-2.53,-0.45,6.15,-0.72,0.27,-0.20,
2.9,-2.39,-0.28,7.19,-0.72,0.27,-0.20,
2.901,-2.39,-0.28,7.19,-0.70,0.29,-0.16,
2.901,-2.39,-0.28,7.19,-0.67,0.29,-0.12,
2.901,-2.39,-0.28,7.19,-0.65,0.30,-0.07,
2.902,-2.39,-0.28,7.19,-0.64,0.30,-0.05,
2.902,-2.39,-0.28,7.19,-0.63,0.29,-0.02,
2.902,-1.48,-0.15,7.37,-0.63,0.29,-0.02,
2.902,-1.48,-0.15,7.37,-0.63,0.29,0.00,
2.903,-1.48,-0.15,7.37,-0.63,0.28,0.02,
2.929,-1.48,-0.15,7.37,-0.64,0.27,0.04,
2.93,-1.48,-0.15,7.37,-0.65,0.27,0.04,
2.93,-1.48,-0.15,7.37,-0.66,0.26,0.05,
2.931,-0.20,0.05,7.10,-0.66,0.26,0.05,
2.931,-0.20,0.05,7.10,-0.68,0.25,0.06,
2.931,-0.20,0.05,7.10,-0.70,0.25,0.06,
2.931,-0.20,0.05,7.10,-0.74,0.24,0.06,
2.931,-0.20,0.05,7.10,-0.75,0.24,0.06,
2.932,-0.20,0.05,7.10,-0.78,0.24,0.05,
2.932,0.91,0.25,6.84,-0.78,0.24,0.05,
2.932,0.91,0.25,6.84,-0.81,0.23,0.05,
2.932,0.91,0.25,6.84,-0.85,0.23,0.04,
2.932,0.91,0.25,6.84,-0.91,0.24,0.03,
2.933,0.91,0.25,6.84,-0.93,0.24,0.03,
2.933,0.91,0.25,6.84,-0.97,0.25,0.02,
2.933,1.75,0.29,6.60,-0.97,0.25,0.02,
2.933,1.75,0.29,6.60,-1.01,0.26,0.01,
2.958,1.75,0.29,6.60,-1.06,0.28,0.01,
2.959,1.75,0.29,6.60,-1.13,0.32,-0.00,
2.959,1.75,0.29,6.60,-1.15,0.34,-0.00,
2.959,1.75,0.29,6.60,-1.19,0.38,-0.00,
2.96,2.27,0.00,6.54,-1.19,0.38,-0.00,
2.96,2.27,0.00,6.54,-1.24,0.43,-0.00,
2.96,2.27,0.00,6.54,-1.28,0.48,0.00,
2.96,2.27,0.00,6.54,-1.33,0.57,0.02,
2.961,2.27,0.00,6.54,-1.35,0.60,0.02,
2.961,2.27,0.00,6.54,-1.38,0.66,0.03,
2.961,2.21,-0.41,6.61,-1.38,0.66,0.03,
2.961,2.21,-0.41,6.61,-1.41,0.72,0.05,
2.962,2.21,-0.41,6.61,-1.43,0.79,0.07,
2.962,2.21,-0.41,6.61,-1.45,0.89,0.11,
2.962,2.21,-0.41,6.61,-1.46,0.92,0.13,
2.962,2.21,-0.41,6.61,-1.47,0.98,0.16,
2.963,1.84,-0.69,6.70,-1.47,0.98,0.16,
2.963,1.84,-0.69,6.70,-1.46,1.04,0.19,
2.963,1.84,-0.69,6.70,-1.46,1.10,0.22,
2.97,1.84,-0.69,6.70,-1.43,1.17,0.28,
2.971,1.84,-0.69,6.70,-1.41,1.21,0.31,
2.971,1.84,-0.69,6.70,-1.41,1.23,0.33,
2.971,1.46,-0.67,6.59,-1.41,1.23,0.33,
2.972,1.46,-0.67,6.59,-1.38,1.26,0.37,
2.973,1.46,-0.67,6.59,-1.34,1.28,0.40,
2.976,1.46,-0.67,6.59,-1.27,1.29,0.46,
2.977,1.46,-0.67,6.59,-1.23,1.30,0.49,
2.979,1.46,-0.67,6.59,-1.20,1.29,0.50,
2.981,1.43,-0.58,6.25,-1.20,1.29,0.50,
2.981,1.43,-0.58,6.25,-1.14,1.28,0.54,
2.983,1.43,-0.58,6.25,-1.08,1.26,0.57,
2.986,1.43,-0.58,6.25,-0.97,1.23,0.62,
2.987,1.43,-0.58,6.25,-0.90,1.20,0.65,
2.989,1.43,-0.58,6.25,-0.86,1.19,0.66,
2.992,1.41,-0.33,5.65,-0.86,1.19,0.66,
2.992,1.41,-0.33,5.65,-0.78,1.16,0.69,
2.992,1.41,-0.33,5.65,-0.69,1.12,0.72,
2.996,1.41,-0.33,5.65,-0.56,1.07,0.76,
2.997,1.41,-0.33,5.65,-0.47,1.03,0.79,
2.999,1.41,-0.33,5.65,-0.42,1.01,0.80,
3.001,1.52,-0.06,4.84,-0.42,1.01,0.80,
3.001,1.52,-0.06,4.84,-0.32,0.97,0.82,
3.002,1.52,-0.06,4.84,-0.23,0.93,0.84,
3.005,1.52,-0.06,4.84,-0.09,0.88,0.87,
3.007,1.52,-0.06,4.84,0.00,0.85,0.89,
3.008,1.52,-0.06,4.84,0.05,0.83,0.90,
3.011,1.66,0.13,3.49,0.05,0.83,0.90,
3.012,1.66,0.13,3.49,0.13,0.79,0.92,
3.012,1.66,0.13,3.49,0.21,0.75,0.93,
3.015,1.66,0.13,3.49,0.33,0.70,0.95,
3.016,1.66,0.13,3.49,0.40,0.66,0.96,
3.018,1.66,0.13,3.49,0.43,0.64,0.97,
3.021,1.76,0.18,1.58,0.43,0.64,0.97,
3.021,1.76,0.18,1.58,0.49,0.61,0.99,
3.023,1.76,0.18,1.58,0.54,0.57,1.00,
3.034,1.76,0.18,1.58,0.62,0.51,1.02,
3.034,1.76,0.18,1.58,0.65,0.47,1.03,
3.034,1.76,0.18,1.58,0.67,0.45,1.03,
3.035,1.72,0.23,-0.55,0.67,0.45,1.03,
3.035,1.72,0.23,-0.55,0.70,0.42,1.04,
3.035,1.72,0.23,-0.55,0.73,0.38,1.04,
3.036,1.72,0.23,-0.55,0.76,0.32,1.05,
3.037,1.72,0.23,-0.55,0.77,0.29,1.05,
3.039,1.72,0.23,-0.55,0.78,0.27,1.05,
3.059,1.71,0.30,-2.32,0.78,0.27,1.05,
3.059,1.71,0.30,-2.32,0.79,0.25,1.06,
3.059,1.71,0.30,-2.32,0.79,0.22,1.06,
3.059,1.71,0.30,-2.32,0.80,0.19,1.06,
3.059,1.71,0.30,-2.32,0.80,0.18,1.06,
3.06,1.71,0.30,-2.32,0.80,0.17,1.07,
3.06,1.54,0.27,-3.60,0.80,0.17,1.07,
3.06,1.54,0.27,-3.60,0.80,0.16,1.07,
3.06,1.54,0.27,-3.60,0.79,0.15,1.07,
3.06,1.54,0.27,-3.60,0.77,0.14,1.07,
3.06,1.54,0.27,-3.60,0.76,0.14,1.07,
3.06,1.54,0.27,-3.60,0.76,0.14,1.07,
3.06,1.62,0.19,-4.46,0.76,0.14,1.07,
3.061,1.62,0.19,-4.46,0.74,0.15,1.07,
3.064,1.62,0.19,-4.46,0.73,0.16,1.07,
3.066,1.62,0.19,-4.46,0.71,0.17,1.06,
3.067,1.62,0.19,-4.46,0.69,0.19,1.06,
3.068,1.62,0.19,-4.46,0.68,0.19,1.06,
3.071,1.54,0.01,-4.91,0.68,0.19,1.06,
3.071,1.54,0.01,-4.91,0.67,0.21,1.05,
3.072,1.54,0.01,-4.91,0.66,0.23,1.05,
3.076,1.54,0.01,-4.91,0.63,0.26,1.04,
3.078,1.54,0.01,-4.91,0.62,0.29,1.04,
3.079,1.54,0.01,-4.91,0.61,0.29,1.03,
3.081,1.55,-0.04,-5.12,0.61,0.29,1.03,
3.081,1.55,-0.04,-5.12,0.59,0.32,1.03,
3.082,1.55,-0.04,-5.12,0.57,0.34,1.02,
3.085,1.55,-0.04,-5.12,0.55,0.37,1.02,
3.087,1.55,-0.04,-5.12,0.53,0.39,1.01,
3.088,1.55,-0.04,-5.12,0.52,0.40,1.01,
3.091,1.32,-0.18,-5.22,0.52,0.40,1.01,
3.092,1.32,-0.18,-5.22,0.51,0.42,1.00,
3.093,1.32,-0.18,-5.22,0.49,0.43,1.00,
3.095,1.32,-0.18,-5.22,0.47,0.46,0.99,
3.097,1.32,-0.18,-5.22,0.46,0.47,0.99,
3.099,1.32,-0.18,-5.22,0.45,0.48,0.98,
3.13,1.27,-0.30,-5.15,0.45,0.48,0.98,
3.131,1.27,-0.30,-5.15,0.44,0.50,0.98,
3.132,1.27,-0.30,-5.15,0.42,0.52,0.98,
3.133,1.27,-0.30,-5.15,0.41,0.54,0.97,
3.134,1.27,-0.30,-5.15,0.40,0.55,0.97,
3.134,1.27,-0.30,-5.15,0.40,0.56,0.97,
3.135,1.03,-0.54,-4.96,0.40,0.56,0.97,
3.136,1.03,-0.54,-4.96,0.39,0.57,0.97,
3.136,1.03,-0.54,-4.96,0.38,0.58,0.98,
3.137,1.03,-0.54,-4.96,0.37,0.59,0.98,
3.139,1.03,-0.54,-4.96,0.37,0.59,0.98,
3.142,1.03,-0.54,-4.96,0.36,0.59,0.99,
3.142,0.86,-0.69,-4.70,0.36,0.59,0.99,
3.143,0.86,-0.69,-4.70,0.36,0.59,0.99,
3.143,0.86,-0.69,-4.70,0.36,0.58,0.99,
3.144,0.86,-0.69,-4.70,0.36,0.57,1.00,
3.144,0.86,-0.69,-4.70,0.36,0.56,1.00,
3.144,0.86,-0.69,-4.70,0.36,0.56,1.00,
3.145,0.63,-0.88,-4.39,0.36,0.56,1.00,
3.145,0.63,-0.88,-4.39,0.35,0.55,1.01,
3.145,0.63,-0.88,-4.39,0.36,0.54,1.01,
3.146,0.63,-0.88,-4.39,0.36,0.53,1.02,
3.146,0.63,-0.88,-4.39,0.36,0.53,1.03,
3.147,0.63,-0.88,-4.39,0.37,0.52,1.03,
3.147,0.47,-1.11,-3.99,0.37,0.52,1.03,
3.148,0.47,-1.11,-3.99,0.37,0.52,1.04,
3.148,0.47,-1.11,-3.99,0.37,0.51,1.05,
3.148,0.47,-1.11,-3.99,0.38,0.51,1.06,
3.149,0.47,-1.11,-3.99,0.39,0.50,1.07,
3.149,0.47,-1.11,-3.99,0.39,0.50,1.08,
3.162,0.35,-1.29,-3.58,0.39,0.50,1.08,
3.162,0.35,-1.29,-3.58,0.40,0.50,1.09,
3.163,0.35,-1.29,-3.58,0.41,0.49,1.10,
3.163,0.35,-1.29,-3.58,0.43,0.49,1.12,
3.164,0.35,-1.29,-3.58,0.45,0.49,1.13,
3.164,0.35,-1.29,-3.58,0.45,0.50,1.14,
3.164,0.37,-1.50,-3.07,0.45,0.50,1.14,
3.164,0.37,-1.50,-3.07,0.47,0.50,1.15,
3.165,0.37,-1.50,-3.07,0.48,0.50,1.16,
3.168,0.37,-1.50,-3.07,0.52,0.53,1.19,
3.168,0.37,-1.50,-3.07,0.52,0.53,1.19,
3.169,0.37,-1.50,-3.07,0.53,0.53,1.20,
3.171,0.31,-1.64,-2.72,0.53,0.53,1.20,
3.171,0.31,-1.64,-2.72,0.54,0.54,1.21,
3.172,0.31,-1.64,-2.72,0.55,0.55,1.22,
3.176,0.31,-1.64,-2.72,0.57,0.56,1.24,
3.178,0.31,-1.64,-2.72,0.59,0.57,1.25,
3.179,0.31,-1.64,-2.72,0.59,0.57,1.26,
3.181,0.40,-1.77,-2.56,0.59,0.57,1.26,
3.181,0.40,-1.77,-2.56,0.61,0.58,1.27,
3.183,0.40,-1.77,-2.56,0.62,0.59,1.28,
3.186,0.40,-1.77,-2.56,0.63,0.60,1.29,
3.187,0.40,-1.77,-2.56,0.64,0.60,1.30,
3.189,0.40,-1.77,-2.56,0.65,0.60,1.30,
3.197,0.44,-1.80,-2.46,0.65,0.60,1.30,
3.198,0.44,-1.80,-2.46,0.66,0.60,1.31,
3.198,0.44,-1.80,-2.46,0.67,0.60,1.31,
3.198,0.44,-1.80,-2.46,0.69,0.58,1.32,
3.199,0.44,-1.80,-2.46,0.70,0.58,1.33,
3.199,0.44,-1.80,-2.46,0.71,0.57,1.33,
3.223,0.59,-1.74,-2.45,0.71,0.57,1.33,
3.225,0.59,-1.74,-2.45,0.72,0.56,1.33,
3.225,0.59,-1.74,-2.45,0.73,0.55,1.33,
3.227,0.59,-1.74,-2.45,0.74,0.53,1.33,
3.227,0.59,-1.74,-2.45,0.75,0.51,1.33,
3.227,0.59,-1.74,-2.45,0.75,0.50,1.33,
3.227,0.80,-1.58,-2.51,0.75,0.50,1.33,
3.228,0.80,-1.58,-2.51,0.75,0.49,1.32,
3.228,0.80,-1.58,-2.51,0.76,0.47,1.32,
3.228,0.80,-1.58,-2.51,0.76,0.45,1.30,
3.228,0.80,-1.58,-2.51,0.76,0.45,1.29,
3.228,0.80,-1.58,-2.51,0.76,0.44,1.28,
3.231,1.19,-1.43,-2.67,0.76,0.44,1.28,
3.232,1.19,-1.43,-2.67,0.75,0.42,1.27,
3.232,1.19,-1.43,-2.67,0.74,0.42,1.26,
3.233,1.19,-1.43,-2.67,0.73,0.40,1.24,
3.233,1.19,-1.43,-2.67,0.72,0.39,1.23,
3.233,1.19,-1.43,-2.67,0.70,0.37,1.22,
3.234,1.40,-1.24,-3.00,0.70,0.37,1.22,
3.234,1.40,-1.24,-3.00,0.68,0.36,1.20,
3.235,1.40,-1.24,-3.00,0.66,0.34,1.18,
3.241,1.40,-1.24,-3.00,0.63,0.33,1.16,
3.242,1.40,-1.24,-3.00,0.62,0.32,1.15,
3.243,1.40,-1.24,-3.00,0.60,0.31,1.13,
3.243,1.49,-1.09,-3.00,0.60,0.31,1.13,
3.244,1.49,-1.09,-3.00,0.58,0.30,1.12,
3.244,1.49,-1.09,-3.00,0.56,0.29,1.10,
3.248,1.49,-1.09,-3.00,0.54,0.28,1.08,
3.249,1.49,-1.09,-3.00,0.52,0.28,1.06,
3.249,1.49,-1.09,-3.00,0.51,0.28,1.05,
3.252,1.45,-1.00,-2.53,0.51,0.28,1.05,
3.252,1.45,-1.00,-2.53,0.50,0.27,1.03,
3.253,1.45,-1.00,-2.53,0.50,0.28,1.01,
3.256,1.45,-1.00,-2.53,0.49,0.28,0.99,
3.259,1.45,-1.00,-2.53,0.48,0.28,0.97,
3.26,1.45,-1.00,-2.53,0.49,0.29,0.96,
3.262,1.57,-0.97,-1.77,0.49,0.29,0.96,
3.262,1.57,-0.97,-1.77,0.50,0.30,0.94,
3.262,1.57,-0.97,-1.77,0.51,0.32,0.92,
3.266,1.57,-0.97,-1.77,0.52,0.32,0.90,
3.295,1.57,-0.97,-1.77,0.53,0.34,0.89,
3.296,1.57,-0.97,-1.77,0.55,0.35,0.87,
3.296,1.51,-0.88,-1.04,0.55,0.35,0.87,
3.297,1.51,-0.88,-1.04,0.57,0.36,0.85,
3.297,1.51,-0.88,-1.04,0.59,0.37,0.84,
3.298,1.51,-0.88,-1.04,0.61,0.38,0.82,
3.298,1.51,-0.88,-1.04,0.63,0.39,0.80,
3.298,1.51,-0.88,-1.04,0.66,0.39,0.78,
3.299,1.55,-0.82,-0.72,0.66,0.39,0.78,
3.299,1.55,-0.82,-0.72,0.69,0.39,0.77,
3.3,1.55,-0.82,-0.72,0.71,0.39,0.75,
3.3,1.55,-0.82,-0.72,0.73,0.39,0.73,
3.3,1.55,-0.82,-0.72,0.76,0.39,0.71,
3.301,1.55,-0.82,-0.72,0.79,0.38,0.69,
3.301,1.72,-0.67,-0.69,0.79,0.38,0.69,
3.302,1.72,-0.67,-0.69,0.81,0.37,0.66,
3.302,1.72,-0.67,-0.69,0.83,0.36,0.64,
3.302,1.72,-0.67,-0.69,0.86,0.34,0.61,
3.303,1.72,-0.67,-0.69,0.89,0.32,0.57,
3.303,1.72,-0.67,-0.69,0.91,0.30,0.54,
3.304,2.22,-0.34,-0.85,0.91,0.30,0.54,
3.304,2.22,-0.34,-0.85,0.93,0.27,0.50,
3.304,2.22,-0.34,-0.85,0.95,0.25,0.46,
3.314,2.22,-0.34,-0.85,0.96,0.22,0.42,
3.314,2.22,-0.34,-0.85,0.97,0.19,0.38,
3.314,2.22,-0.34,-0.85,0.98,0.16,0.34,
3.315,2.20,-0.09,-1.47,0.98,0.16,0.34,
3.315,2.20,-0.09,-1.47,0.97,0.13,0.30,
3.315,2.20,-0.09,-1.47,0.96,0.10,0.26,
3.316,2.20,-0.09,-1.47,0.95,0.07,0.22,
3.316,2.20,-0.09,-1.47,0.93,0.05,0.19,
3.322,2.20,-0.09,-1.47,0.90,0.03,0.15,
3.323,1.84,-0.06,-2.34,0.90,0.03,0.15,
3.324,1.84,-0.06,-2.34,0.87,0.02,0.12,
3.324,1.84,-0.06,-2.34,0.83,0.01,0.09,
3.326,1.84,-0.06,-2.34,0.81,0.01,0.07,
3.327,1.84,-0.06,-2.34,0.77,0.01,0.04,
3.328,1.84,-0.06,-2.34,0.72,0.01,0.02,
3.331,1.17,-0.24,-2.83,0.72,0.01,0.02,
3.331,1.17,-0.24,-2.83,0.67,0.01,0.01,
3.333,1.17,-0.24,-2.83,0.62,0.02,-0.01,
3.336,1.17,-0.24,-2.83,0.57,0.04,-0.02,
3.336,1.17,-0.24,-2.83,0.52,0.06,-0.03,
3.338,1.17,-0.24,-2.83,0.48,0.08,-0.03,
3.346,0.54,-0.54,-2.84,0.48,0.08,-0.03,
3.346,0.54,-0.54,-2.84,0.43,0.10,-0.03,
3.347,0.54,-0.54,-2.84,0.38,0.12,-0.03,
3.347,0.54,-0.54,-2.84,0.34,0.14,-0.03,
3.347,0.54,-0.54,-2.84,0.30,0.16,-0.02,
3.349,0.54,-0.54,-2.84,0.26,0.18,-0.01,
3.379,-0.11,-0.79,-2.20,0.26,0.18,-0.01,
3.38,-0.11,-0.79,-2.20,0.23,0.20,0.00,
3.38,-0.11,-0.79,-2.20,0.20,0.21,0.02,
3.38,-0.11,-0.79,-2.20,0.18,0.22,0.03,
3.381,-0.11,-0.79,-2.20,0.15,0.23,0.05,
3.381,-0.11,-0.79,-2.20,0.13,0.24,0.06,
3.382,-0.44,-0.77,-1.24,0.13,0.24,0.06,
3.382,-0.44,-0.77,-1.24,0.11,0.23,0.08,
3.383,-0.44,-0.77,-1.24,0.09,0.22,0.09,
3.383,-0.44,-0.77,-1.24,0.08,0.21,0.09,
3.383,-0.44,-0.77,-1.24,0.06,0.19,0.10,
3.384,-0.44,-0.77,-1.24,0.05,0.16,0.10,
3.386,-0.10,-0.60,-0.29,0.05,0.16,0.10,
3.388,-0.10,-0.60,-0.29,0.04,0.12,0.10,
3.389,-0.10,-0.60,-0.29,0.03,0.09,0.09,
3.389,-0.10,-0.60,-0.29,0.02,0.04,0.08,
3.391,-0.10,-0.60,-0.29,0.00,-0.01,0.08,
3.393,-0.10,-0.60,-0.29,-0.00,-0.07,0.07,
3.393,0.22,-0.22,0.56,-0.00,-0.07,0.07,
3.394,0.22,-0.22,0.56,-0.01,-0.12,0.06,
3.394,0.22,-0.22,0.56,-0.03,-0.18,0.04,
3.396,0.22,-0.22,0.56,-0.04,-0.24,0.03,
3.397,0.22,-0.22,0.56,-0.06,-0.31,0.01,
3.397,0.22,-0.22,0.56,-0.08,-0.39,-0.00,
3.397,0.28,0.24,1.16,-0.08,-0.39,-0.00,
3.398,0.28,0.24,1.16,-0.10,-0.46,-0.02,
3.399,0.28,0.24,1.16,-0.13,-0.54,-0.03,
3.399,0.28,0.24,1.16,-0.17,-0.62,-0.05,
3.4,0.28,0.24,1.16,-0.22,-0.70,-0.06,
3.401,0.28,0.24,1.16,-0.26,-0.78,-0.08,
3.402,0.11,0.65,1.66,-0.26,-0.78,-0.08,
3.403,0.11,0.65,1.66,-0.31,-0.85,-0.09,
3.403,0.11,0.65,1.66,-0.37,-0.92,-0.10,
3.417,0.11,0.65,1.66,-0.43,-0.99,-0.12,
3.418,0.11,0.65,1.66,-0.50,-1.05,-0.15,
3.419,0.11,0.65,1.66,-0.57,-1.10,-0.17,
3.42,0.52,0.95,2.46,-0.57,-1.10,-0.17,
3.42,0.52,0.95,2.46,-0.64,-1.15,-0.20,
3.42,0.52,0.95,2.46,-0.71,-1.20,-0.24,
3.421,0.52,0.95,2.46,-0.82,-1.25,-0.30,
3.422,0.52,0.95,2.46,-0.85,-1.26,-0.32,
3.422,0.52,0.95,2.46,-0.92,-1.29,-0.36,
3.423,1.36,1.15,4.00,-0.92,-1.29,-0.36,
3.423,1.36,1.15,4.00,-0.98,-1.30,-0.41,
3.424,1.36,1.15,4.00,-1.05,-1.31,-0.46,
3.435,1.36,1.15,4.00,-1.10,-1.31,-0.51,
3.436,1.36,1.15,4.00,-1.16,-1.30,-0.56,
3.436,1.36,1.15,4.00,-1.22,-1.28,-0.61,
3.436,2.06,1.23,5.88,-1.22,-1.28,-0.61,
3.436,2.06,1.23,5.88,-1.27,-1.25,-0.67,
3.457,2.06,1.23,5.88,-1.32,-1.21,-0.72,
3.458,2.06,1.23,5.88,-1.39,-1.14,-0.80,
3.458,2.06,1.23,5.88,-1.41,-1.11,-0.82,
3.458,2.06,1.23,5.88,-1.45,-1.04,-0.87,
3.458,2.31,0.79,7.60,-1.45,-1.04,-0.87,
3.459,2.31,0.79,7.60,-1.49,-0.97,-0.92,
3.459,2.31,0.79,7.60,-1.52,-0.88,-0.96,
3.459,2.31,0.79,7.60,-1.56,-0.74,-1.02,
3.46,2.31,0.79,7.60,-1.56,-0.69,-1.04,
3.46,2.31,0.79,7.60,-1.58,-0.59,-1.08,
3.46,2.04,0.37,9.06,-1.58,-0.59,-1.08,
3.46,2.04,0.37,9.06,-1.60,-0.48,-1.11,
3.461,2.04,0.37,9.06,-1.60,-0.37,-1.14,
3.461,2.04,0.37,9.06,-1.60,-0.21,-1.18,
3.461,2.04,0.37,9.06,-1.59,-0.16,-1.20,
3.461,2.04,0.37,9.06,-1.59,-0.05,-1.22,
3.462,1.55,-0.09,9.90,-1.59,-0.05,-1.22,
3.462,1.55,-0.09,9.90,-1.57,0.04,-1.25,
3.463,1.55,-0.09,9.90,-1.56,0.13,-1.26,
3.472,1.55,-0.09,9.90,-1.53,0.24,-1.29,
3.472,1.55,-0.09,9.90,-1.52,0.28,-1.29,
3.472,1.55,-0.09,9.90,-1.50,0.34,-1.30,
3.473,0.87,-0.22,9.59,-1.50,0.34,-1.30,
3.473,0.87,-0.22,9.59,-1.48,0.39,-1.31,
3.473,0.87,-0.22,9.59,-1.47,0.43,-1.32,
3.48,0.87,-0.22,9.59,-1.45,0.48,-1.34,
3.48,0.87,-0.22,9.59,-1.44,0.49,-1.34,
3.481,0.87,-0.22,9.59,-1.44,0.49,-1.35,
3.482,0.45,-0.19,8.33,-1.44,0.49,-1.35,
3.482,0.45,-0.19,8.33,-1.43,0.50,-1.36,
3.482,0.45,-0.19,8.33,-1.42,0.49,-1.37,
3.486,0.45,-0.19,8.33,-1.41,0.46,-1.40,
3.493,0.45,-0.19,8.33,-1.41,0.44,-1.41,
3.493,0.45,-0.19,8.33,-1.41,0.43,-1.42,
3.493,0.34,0.01,6.94,-1.41,0.43,-1.42,
3.493,0.34,0.01,6.94,-1.40,0.40,-1.43,
3.494,0.34,0.01,6.94,-1.40,0.37,-1.45,
3.496,0.34,0.01,6.94,-1.41,0.33,-1.48,
3.497,0.34,0.01,6.94,-1.41,0.31,-1.48,
3.499,0.34,0.01,6.94,-1.41,0.28,-1.50,
3.501,0.21,0.18,5.76,-1.41,0.28,-1.50,
3.501,0.21,0.18,5.76,-1.42,0.26,-1.52,
3.504,0.21,0.18,5.76,-1.42,0.24,-1.53,
3.508,0.21,0.18,5.76,-1.43,0.22,-1.56,
3.509,0.21,0.18,5.76,-1.43,0.21,-1.57,
3.509,0.21,0.18,5.76,-1.44,0.21,-1.58,
3.511,0.03,0.10,4.89,-1.44,0.21,-1.58,
3.511,0.03,0.10,4.89,-1.44,0.21,-1.59,
3.513,0.03,0.10,4.89,-1.44,0.21,-1.59,
3.515,0.03,0.10,4.89,-1.44,0.24,-1.60,
3.516,0.03,0.10,4.89,-1.44,0.25,-1.60,
3.518,0.03,0.10,4.89,-1.44,0.28,-1.60,
3.521,-0.53,-0.02,4.35,-1.44,0.28,-1.60,
3.521,-0.53,-0.02,4.35,-1.43,0.31,-1.59,
3.523,-0.53,-0.02,4.35,-1.43,0.35,-1.59,
3.526,-0.53,-0.02,4.35,-1.41,0.41,-1.57,
3.527,-0.53,-0.02,4.35,-1.40,0.44,-1.57,
3.529,-0.53,-0.02,4.35,-1.39,0.48,-1.56,
3.531,-1.03,-0.13,3.75,-1.39,0.48,-1.56,
3.531,-1.03,-0.13,3.75,-1.37,0.53,-1.55,
3.533,-1.03,-0.13,3.75,-1.35,0.58,-1.53,
3.536,-1.03,-0.13,3.75,-1.31,0.65,-1.51,
3.537,-1.03,-0.13,3.75,-1.30,0.67,-1.51,
3.539,-1.03,-0.13,3.75,-1.28,0.72,-1.49,
3.541,-1.50,-0.16,2.99,-1.28,0.72,-1.49,
3.541,-1.50,-0.16,2.99,-1.25,0.76,-1.47,
3.543,-1.50,-0.16,2.99,-1.22,0.80,-1.45,
3.545,-1.50,-0.16,2.99,-1.16,0.85,-1.42,
3.546,-1.50,-0.16,2.99,-1.15,0.87,-1.41,
3.548,-1.50,-0.16,2.99,-1.11,0.89,-1.39,
3.55,-1.76,-0.08,1.96,-1.11,0.89,-1.39,
3.551,-1.76,-0.08,1.96,-1.08,0.92,-1.37,
3.553,-1.76,-0.08,1.96,-1.04,0.95,-1.35,
3.555,-1.76,-0.08,1.96,-0.98,0.98,-1.32,
3.556,-1.76,-0.08,1.96,-0.96,0.98,-1.31,
3.558,-1.76,-0.08,1.96,-0.93,0.99,-1.28,
3.561,-1.96,-0.05,0.71,-0.93,0.99,-1.28,
3.561,-1.96,-0.05,0.71,-0.89,1.00,-1.26,
3.563,-1.96,-0.05,0.71,-0.85,1.00,-1.23,
3.565,-1.96,-0.05,0.71,-0.79,0.99,-1.19,
3.567,-1.96,-0.05,0.71,-0.78,0.98,-1.18,
3.569,-1.96,-0.05,0.71,-0.74,0.96,-1.15,
3.571,-2.09,0.04,-0.66,-0.74,0.96,-1.15,
3.571,-2.09,0.04,-0.66,-0.70,0.95,-1.12,
3.574,-2.09,0.04,-0.66,-0.66,0.92,-1.10,
3.576,-2.09,0.04,-0.66,-0.62,0.88,-1.06,
3.577,-2.09,0.04,-0.66,-0.60,0.87,-1.04,
3.579,-2.09,0.04,-0.66,-0.57,0.83,-1.01,
3.581,-2.25,0.14,-1.90,-0.57,0.83,-1.01,
3.581,-2.25,0.14,-1.90,-0.53,0.80,-0.99,
3.583,-2.25,0.14,-1.90,-0.50,0.76,-0.96,
3.585,-2.25,0.14,-1.90,-0.45,0.69,-0.92,
3.586,-2.25,0.14,-1.90,-0.43,0.67,-0.90,
3.595,-2.25,0.14,-1.90,-0.40,0.62,-0.88,
3.596,-2.17,0.20,-2.89,-0.40,0.62,-0.88,
3.596,-2.17,0.20,-2.89,-0.37,0.57,-0.85,
3.596,-2.17,0.20,-2.89,-0.33,0.52,-0.83,
3.596,-2.17,0.20,-2.89,-0.28,0.45,-0.79,
3.597,-2.17,0.20,-2.89,-0.26,0.43,-0.77,
3.602,-2.17,0.20,-2.89,-0.23,0.37,-0.75,
3.614,-2.18,0.28,-3.71,-0.23,0.37,-0.75,
3.614,-2.18,0.28,-3.71,-0.20,0.32,-0.72,
3.615,-2.18,0.28,-3.71,-0.17,0.27,-0.70,
3.615,-2.18,0.28,-3.71,-0.13,0.20,-0.66,
3.615,-2.18,0.28,-3.71,-0.11,0.18,-0.64,
3.615,-2.18,0.28,-3.71,-0.08,0.13,-0.62,
3.615,-2.11,0.22,-4.41,-0.08,0.13,-0.62,
3.616,-2.11,0.22,-4.41,-0.06,0.09,-0.59,
3.616,-2.11,0.22,-4.41,-0.04,0.05,-0.56,
3.616,-2.11,0.22,-4.41,-0.00,0.00,-0.53,
3.618,-2.11,0.22,-4.41,0.01,-0.01,-0.52,
3.619,-2.11,0.22,-4.41,0.03,-0.05,-0.49,
3.621,-2.10,0.26,-4.91,0.03,-0.05,-0.49,
3.621,-2.10,0.26,-4.91,0.05,-0.07,-0.47,
3.623,-2.10,0.26,-4.91,0.07,-0.10,-0.44,
3.625,-2.10,0.26,-4.91,0.10,-0.13,-0.41,
3.626,-2.10,0.26,-4.91,0.10,-0.14,-0.40,
3.63,-2.10,0.26,-4.91,0.12,-0.16,-0.38,
3.631,-1.87,0.18,-5.28,0.12,-0.16,-0.38,
3.631,-1.87,0.18,-5.28,0.13,-0.18,-0.36,
3.632,-1.87,0.18,-5.28,0.14,-0.19,-0.34,
3.635,-1.87,0.18,-5.28,0.16,-0.21,-0.31,
3.636,-1.87,0.18,-5.28,0.16,-0.21,-0.30,
3.639,-1.87,0.18,-5.28,0.16,-0.22,-0.29,
3.641,-1.81,0.16,-5.51,0.16,-0.22,-0.29,
3.641,-1.81,0.16,-5.51,0.18,-0.23,-0.27,
3.643,-1.81,0.16,-5.51,0.18,-0.23,-0.25,
3.645,-1.81,0.16,-5.51,0.20,-0.24,-0.23,
3.646,-1.81,0.16,-5.51,0.20,-0.24,-0.22,
3.648,-1.81,0.16,-5.51,0.21,-0.24,-0.21,
3.65,-1.60,0.05,-5.40,0.21,-0.24,-0.21,
3.651,-1.60,0.05,-5.40,0.23,-0.24,-0.20,
3.652,-1.60,0.05,-5.40,0.24,-0.24,-0.19,
3.655,-1.60,0.05,-5.40,0.26,-0.23,-0.17,
3.656,-1.60,0.05,-5.40,0.27,-0.23,-0.16,
3.659,-1.60,0.05,-5.40,0.28,-0.23,-0.15,
3.661,-1.50,0.03,-5.11,0.28,-0.23,-0.15,
3.661,-1.50,0.03,-5.11,0.30,-0.23,-0.14,
3.664,-1.50,0.03,-5.11,0.32,-0.23,-0.13,
3.665,-1.50,0.03,-5.11,0.35,-0.23,-0.12,
3.667,-1.50,0.03,-5.11,0.36,-0.23,-0.11,
3.669,-1.50,0.03,-5.11,0.38,-0.22,-0.10,
3.672,-1.40,-0.11,-4.70,0.38,-0.22,-0.10,
3.673,-1.40,-0.11,-4.70,0.40,-0.22,-0.09,
3.673,-1.40,-0.11,-4.70,0.43,-0.22,-0.08,
3.676,-1.40,-0.11,-4.70,0.47,-0.22,-0.06,
3.677,-1.40,-0.11,-4.70,0.48,-0.22,-0.05,
3.679,-1.40,-0.11,-4.70,0.51,-0.22,-0.03,
3.681,-1.64,-0.14,-4.26,0.51,-0.22,-0.03,
3.681,-1.64,-0.14,-4.26,0.55,-0.21,-0.02,
3.683,-1.64,-0.14,-4.26,0.58,-0.21,-0.00,
3.685,-1.64,-0.14,-4.26,0.62,-0.22,0.02,
3.687,-1.64,-0.14,-4.26,0.64,-0.22,0.03,
3.689,-1.64,-0.14,-4.26,0.67,-0.23,0.05,
3.691,-1.81,-0.22,-3.95,0.67,-0.23,0.05,
3.691,-1.81,-0.22,-3.95,0.70,-0.24,0.06,
3.692,-1.81,-0.22,-3.95,0.73,-0.25,0.08,
3.695,-1.81,-0.22,-3.95,0.78,-0.26,0.11,
3.696,-1.81,-0.22,-3.95,0.79,-0.27,0.11,
3.698,-1.81,-0.22,-3.95,0.82,-0.28,0.13,
3.7,-1.93,-0.30,-3.89,0.82,-0.28,0.13,
3.701,-1.93,-0.30,-3.89,0.85,-0.30,0.15,
3.702,-1.93,-0.30,-3.89,0.88,-0.31,0.16,
3.71,-1.93,-0.30,-3.89,0.92,-0.34,0.18,
3.711,-1.93,-0.30,-3.89,0.94,-0.34,0.19,
3.711,-1.93,-0.30,-3.89,0.96,-0.36,0.20,
3.711,-1.76,-0.33,-3.92,0.96,-0.36,0.20,
3.711,-1.76,-0.33,-3.92,0.98,-0.38,0.21,
3.713,-1.76,-0.33,-3.92,1.00,-0.41,0.22,
3.718,-1.76,-0.33,-3.92,1.03,-0.44,0.23,
3.718,-1.76,-0.33,-3.92,1.04,-0.45,0.23,
3.719,-1.76,-0.33,-3.92,1.06,-0.48,0.24,
3.728,-1.49,-0.24,-3.99,1.06,-0.48,0.24,
3.728,-1.49,-0.24,-3.99,1.06,-0.50,0.24,
3.728,-1.49,-0.24,-3.99,1.07,-0.52,0.23,
3.728,-1.49,-0.24,-3.99,1.09,-0.55,0.23,
3.728,-1.49,-0.24,-3.99,1.09,-0.57,0.23,
3.728,-1.49,-0.24,-3.99,1.09,-0.59,0.23,
3.731,-1.19,-0.22,-4.09,1.09,-0.59,0.23,
3.731,-1.19,-0.22,-4.09,1.08,-0.61,0.22,
3.732,-1.19,-0.22,-4.09,1.08,-0.63,0.21,
3.735,-1.19,-0.22,-4.09,1.06,-0.66,0.20,
3.737,-1.19,-0.22,-4.09,1.06,-0.67,0.19,
3.738,-1.19,-0.22,-4.09,1.05,-0.68,0.18,
3.741,-1.15,-0.16,-4.00,1.05,-0.68,0.18,
3.741,-1.15,-0.16,-4.00,1.03,-0.70,0.17,
3.742,-1.15,-0.16,-4.00,1.02,-0.70,0.16,
3.745,-1.15,-0.16,-4.00,1.00,-0.70,0.16,
3.746,-1.15,-0.16,-4.00,0.99,-0.70,0.15,
3.748,-1.15,-0.16,-4.00,0.98,-0.70,0.15,
3.75,-1.15,-0.17,-3.63,0.98,-0.70,0.15,
3.751,-1.15,-0.17,-3.63,0.96,-0.69,0.14,
3.752,-1.15,-0.17,-3.63,0.95,-0.68,0.13,
3.756,-1.15,-0.17,-3.63,0.92,-0.67,0.12,
3.757,-1.15,-0.17,-3.63,0.91,-0.66,0.12,
3.759,-1.15,-0.17,-3.63,0.89,-0.65,0.10,
3.761,-1.08,-0.07,-3.16,0.89,-0.65,0.10,
3.761,-1.08,-0.07,-3.16,0.87,-0.63,0.09,
3.762,-1.08,-0.07,-3.16,0.86,-0.61,0.08,
3.765,-1.08,-0.07,-3.16,0.84,-0.58,0.06,
3.786,-1.08,-0.07,-3.16,0.83,-0.56,0.05,
3.787,-1.08,-0.07,-3.16,0.81,-0.54,0.04,
3.787,-0.96,0.04,-2.62,0.81,-0.54,0.04,
3.788,-0.96,0.04,-2.62,0.79,-0.51,0.02,
3.789,-0.96,0.04,-2.62,0.78,-0.49,0.01,
3.789,-0.96,0.04,-2.62,0.75,-0.45,-0.02,
3.79,-0.96,0.04,-2.62,0.74,-0.44,-0.03,
3.791,-0.96,0.04,-2.62,0.72,-0.42,-0.05,
3.791,-0.74,0.29,-2.34,0.72,-0.42,-0.05,
3.792,-0.74,0.29,-2.34,0.70,-0.40,-0.07,
3.792,-0.74,0.29,-2.34,0.68,-0.39,-0.10,
3.793,-0.74,0.29,-2.34,0.64,-0.38,-0.14,
3.793,-0.74,0.29,-2.34,0.63,-0.38,-0.15,
3.794,-0.74,0.29,-2.34,0.60,-0.38,-0.19,
3.794,-0.40,0.38,-2.11,0.60,-0.38,-0.19,
3.794,-0.40,0.38,-2.11,0.57,-0.38,-0.22,
3.795,-0.40,0.38,-2.11,0.54,-0.39,-0.26,
3.803,-0.40,0.38,-2.11,0.49,-0.40,-0.31,
3.803,-0.40,0.38,-2.11,0.47,-0.41,-0.33,
3.804,-0.40,0.38,-2.11,0.43,-0.43,-0.37,
3.804,-0.01,0.56,-1.89,0.43,-0.43,-0.37,
3.805,-0.01,0.56,-1.89,0.39,-0.45,-0.41,
3.805,-0.01,0.56,-1.89,0.35,-0.48,-0.46,
3.805,-0.01,0.56,-1.89,0.29,-0.52,-0.52,
3.807,-0.01,0.56,-1.89,0.27,-0.54,-0.55,
3.808,-0.01,0.56,-1.89,0.22,-0.57,-0.60,
3.81,0.33,0.48,-1.36,0.22,-0.57,-0.60,
3.811,0.33,0.48,-1.36,0.18,-0.60,-0.64,
3.812,0.33,0.48,-1.36,0.13,-0.63,-0.69,
3.815,0.33,0.48,-1.36,0.06,-0.66,-0.76,
3.817,0.33,0.48,-1.36,0.04,-0.67,-0.78,
3.818,0.33,0.48,-1.36,-0.00,-0.68,-0.82,
3.823,0.18,0.31,-0.21,-0.00,-0.68,-0.82,
3.825,0.18,0.31,-0.21,-0.04,-0.69,-0.86,
3.826,0.18,0.31,-0.21,-0.08,-0.69,-0.89,
3.828,0.18,0.31,-0.21,-0.13,-0.68,-0.93,
3.829,0.18,0.31,-0.21,-0.15,-0.68,-0.94,
3.829,0.18,0.31,-0.21,-0.17,-0.65,-0.96,
3.831,-0.35,0.14,1.38,-0.17,-0.65,-0.96,
3.831,-0.35,0.14,1.38,-0.20,-0.63,-0.98,
3.832,-0.35,0.14,1.38,-0.22,-0.59,-1.00,
3.835,-0.35,0.14,1.38,-0.24,-0.53,-1.02,
3.846,-0.35,0.14,1.38,-0.26,-0.48,-1.02,
3.847,-0.35,0.14,1.38,-0.26,-0.45,-1.03,
3.848,-0.80,-0.13,3.16,-0.26,-0.45,-1.03,
3.848,-0.80,-0.13,3.16,-0.28,-0.39,-1.03,
3.849,-0.80,-0.13,3.16,-0.28,-0.33,-1.04,
3.849,-0.80,-0.13,3.16,-0.29,-0.24,-1.04,
3.849,-0.80,-0.13,3.16,-0.30,-0.21,-1.04,
3.874,-0.80,-0.13,3.16,-0.30,-0.16,-1.04,
3.875,-0.97,-0.21,4.21,-0.30,-0.16,-1.04,
3.876,-0.97,-0.21,4.21,-0.31,-0.10,-1.04,
3.876,-0.97,-0.21,4.21,-0.30,-0.04,-1.04,
3.877,-0.97,-0.21,4.21,-0.31,0.03,-1.04,
3.877,-0.97,-0.21,4.21,-0.31,0.06,-1.04,
3.878,-0.97,-0.21,4.21,-0.31,0.10,-1.04,
3.879,-0.97,-0.18,4.88,-0.31,0.10,-1.04,
3.879,-0.97,-0.18,4.88,-0.31,0.13,-1.04,
3.879,-0.97,-0.18,4.88,-0.31,0.16,-1.04,
3.879,-0.97,-0.18,4.88,-0.32,0.18,-1.04,
3.88,-0.97,-0.18,4.88,-0.32,0.19,-1.04,
3.88,-0.97,-0.18,4.88,-0.32,0.19,-1.05,
3.88,-0.79,0.04,5.18,-0.32,0.19,-1.05,
3.88,-0.79,0.04,5.18,-0.32,0.19,-1.05,
3.881,-0.79,0.04,5.18,-0.33,0.18,-1.06,
3.881,-0.79,0.04,5.18,-0.34,0.15,-1.07,
3.881,-0.79,0.04,5.18,-0.34,0.14,-1.07,
3.881,-0.79,0.04,5.18,-0.34,0.12,-1.08,
3.881,-0.42,0.25,5.53,-0.34,0.12,-1.08,
3.882,-0.42,0.25,5.53,-0.35,0.10,-1.09,
3.884,-0.42,0.25,5.53,-0.35,0.08,-1.10,
3.885,-0.42,0.25,5.53,-0.34,0.04,-1.12,
3.888,-0.42,0.25,5.53,-0.34,0.03,-1.13,
3.889,-0.42,0.25,5.53,-0.33,0.01,-1.14,
3.892,0.04,0.39,6.30,-0.33,0.01,-1.14,
3.893,0.04,0.39,6.30,-0.33,-0.01,-1.16,
3.893,0.04,0.39,6.30,-0.31,-0.02,-1.17,
3.896,0.04,0.39,6.30,-0.29,-0.04,-1.20,
3.897,0.04,0.39,6.30,-0.28,-0.04,-1.20,
3.899,0.04,0.39,6.30,-0.25,-0.05,-1.21,
3.901,0.30,0.35,7.13,-0.25,-0.05,-1.21,
3.901,0.30,0.35,7.13,-0.23,-0.05,-1.23,
3.904,0.30,0.35,7.13,-0.21,-0.05,-1.23,
3.907,0.30,0.35,7.13,-0.18,-0.06,-1.25,
3.909,0.30,0.35,7.13,-0.17,-0.06,-1.25,
3.911,0.30,0.35,7.13,-0.16,-0.06,-1.26,
3.913,0.38,0.29,7.47,-0.16,-0.06,-1.26,
3.913,0.38,0.29,7.47,-0.14,-0.06,-1.26,
3.914,0.38,0.29,7.47,-0.13,-0.06,-1.26,
3.919,0.38,0.29,7.47,-0.12,-0.07,-1.27,
3.919,0.38,0.29,7.47,-0.12,-0.08,-1.27,
3.919,0.38,0.29,7.47,-0.13,-0.09,-1.28,
3.921,0.54,0.23,7.31,-0.13,-0.09,-1.28,
3.921,0.54,0.23,7.31,-0.13,-0.11,-1.28,
3.923,0.54,0.23,7.31,-0.15,-0.12,-1.29,
3.927,0.54,0.23,7.31,-0.18,-0.16,-1.29,
3.927,0.54,0.23,7.31,-0.18,-0.17,-1.29,
3.929,0.54,0.23,7.31,-0.20,-0.20,-1.29,
3.931,0.55,0.04,7.17,-0.20,-0.20,-1.29,
3.932,0.55,0.04,7.17,-0.24,-0.23,-1.29,
3.952,0.55,0.04,7.17,-0.27,-0.25,-1.28,
3.952,0.55,0.04,7.17,-0.32,-0.29,-1.27,
3.952,0.55,0.04,7.17,-0.33,-0.30,-1.27,
3.953,0.55,0.04,7.17,-0.36,-0.31,-1.25,
3.953,0.24,-0.05,7.50,-0.36,-0.31,-1.25,
3.953,0.24,-0.05,7.50,-0.39,-0.32,-1.24,
3.953,0.24,-0.05,7.50,-0.41,-0.33,-1.22,
3.954,0.24,-0.05,7.50,-0.44,-0.32,-1.19,
3.954,0.24,-0.05,7.50,-0.45,-0.31,-1.18,
3.954,0.24,-0.05,7.50,-0.46,-0.29,-1.15,
3.955,-0.19,-0.04,8.36,-0.46,-0.29,-1.15,
3.955,-0.19,-0.04,8.36,-0.47,-0.26,-1.12,
3.955,-0.19,-0.04,8.36,-0.47,-0.23,-1.09,
3.956,-0.19,-0.04,8.36,-0.48,-0.15,-1.04,
3.961,-0.19,-0.04,8.36,-0.48,-0.12,-1.01,
3.961,-0.19,-0.04,8.36,-0.48,-0.06,-0.97,
3.962,-0.46,-0.30,9.05,-0.48,-0.06,-0.97,
3.962,-0.46,-0.30,9.05,-0.47,0.01,-0.93,
3.963,-0.46,-0.30,9.05,-0.46,0.09,-0.88,
3.966,-0.46,-0.30,9.05,-0.42,0.22,-0.82,
3.967,-0.46,-0.30,9.05,-0.41,0.26,-0.79,
3.968,-0.46,-0.30,9.05,-0.39,0.35,-0.75,
3.971,-0.36,-0.50,9.24,-0.39,0.35,-0.75,
3.971,-0.36,-0.50,9.24,-0.36,0.43,-0.71,
3.973,-0.36,-0.50,9.24,-0.32,0.51,-0.66,
3.976,-0.36,-0.50,9.24,-0.26,0.61,-0.60,
3.977,-0.36,-0.50,9.24,-0.23,0.65,-0.58,
3.978,-0.36,-0.50,9.24,-0.19,0.70,-0.55,
3.981,-0.05,-0.57,8.65,-0.19,0.70,-0.55,
3.981,-0.05,-0.57,8.65,-0.14,0.75,-0.51,
3.983,-0.05,-0.57,8.65,-0.10,0.80,-0.47,
3.985,-0.05,-0.57,8.65,-0.03,0.84,-0.42,
3.992,-0.05,-0.57,8.65,-0.01,0.85,-0.39,
3.992,-0.05,-0.57,8.65,0.03,0.87,-0.35,
3.992,-0.04,-0.42,7.15,0.03,0.87,-0.35,
3.993,-0.04,-0.42,7.15,0.06,0.88,-0.31,
3.994,-0.04,-0.42,7.15,0.10,0.88,-0.26,
3.996,-0.04,-0.42,7.15,0.15,0.86,-0.19,
3.997,-0.04,-0.42,7.15,0.16,0.85,-0.16,
3.999,-0.04,-0.42,7.15,0.18,0.83,-0.12,
4.001,-0.30,-0.23,5.18,0.18,0.83,-0.12,
4.002,-0.30,-0.23,5.18,0.20,0.79,-0.07,
4.015,-0.30,-0.23,5.18,0.22,0.75,-0.02,
4.015,-0.30,-0.23,5.18,0.24,0.67,0.05,
4.015,-0.30,-0.23,5.18,0.25,0.64,0.07,
4.015,-0.30,-0.23,5.18,0.26,0.58,0.11,
4.016,-0.34,0.10,3.40,0.26,0.58,0.11,
4.016,-0.34,0.10,3.40,0.27,0.52,0.15,
4.016,-0.34,0.10,3.40,0.28,0.46,0.20,
4.016,-0.34,0.10,3.40,0.29,0.38,0.25,
4.016,-0.34,0.10,3.40,0.29,0.35,0.27,
4.022,-0.34,0.10,3.40,0.30,0.30,0.30,
4.023,0.19,0.52,2.27,0.30,0.30,0.30,
4.023,0.19,0.52,2.27,0.31,0.26,0.33,
4.023,0.19,0.52,2.27,0.32,0.22,0.35,
4.025,0.19,0.52,2.27,0.34,0.18,0.39,
4.026,0.19,0.52,2.27,0.35,0.17,0.40,
4.028,0.19,0.52,2.27,0.36,0.15,0.42,
4.03,0.82,0.70,1.80,0.36,0.15,0.42,
4.031,0.82,0.70,1.80,0.39,0.14,0.44,
4.032,0.82,0.70,1.80,0.41,0.14,0.45,
4.036,0.82,0.70,1.80,0.44,0.14,0.47,
4.037,0.82,0.70,1.80,0.46,0.15,0.48,
4.038,0.82,0.70,1.80,0.48,0.16,0.49,
4.041,1.37,0.76,1.52,0.48,0.16,0.49,
4.041,1.37,0.76,1.52,0.50,0.18,0.50,
4.042,1.37,0.76,1.52,0.53,0.21,0.51,
4.045,1.37,0.76,1.52,0.56,0.25,0.52,
4.046,1.37,0.76,1.52,0.57,0.27,0.53,
4.048,1.37,0.76,1.52,0.59,0.31,0.54,
4.05,1.63,0.69,0.82,0.59,0.31,0.54,
4.051,1.63,0.69,0.82,0.61,0.34,0.54,
4.052,1.63,0.69,0.82,0.62,0.38,0.55,
4.056,1.63,0.69,0.82,0.65,0.43,0.56,
4.056,1.63,0.69,0.82,0.65,0.45,0.56,
4.059,1.63,0.69,0.82,0.66,0.49,0.57,
4.064,1.81,0.67,-0.24,0.66,0.49,0.57,
4.065,1.81,0.67,-0.24,0.67,0.53,0.57,
4.066,1.81,0.67,-0.24,0.68,0.56,0.57,
4.066,1.81,0.67,-0.24,0.68,0.60,0.57,
4.066,1.81,0.67,-0.24,0.68,0.61,0.58,
4.07,1.81,0.67,-0.24,0.69,0.64,0.58,
4.072,1.74,0.59,-1.40,0.69,0.64,0.58,
4.072,1.74,0.59,-1.40,0.69,0.65,0.58,
4.073,1.74,0.59,-1.40,0.68,0.67,0.58,
4.076,1.74,0.59,-1.40,0.68,0.69,0.58,
4.077,1.74,0.59,-1.40,0.67,0.69,0.58,
4.078,1.74,0.59,-1.40,0.67,0.70,0.59,
4.08,1.62,0.54,-2.51,0.67,0.70,0.59,
4.081,1.62,0.54,-2.51,0.67,0.70,0.59,
4.082,1.62,0.54,-2.51,0.66,0.70,0.59,
4.085,1.62,0.54,-2.51,0.66,0.69,0.60,
4.086,1.62,0.54,-2.51,0.65,0.69,0.60,
4.089,1.62,0.54,-2.51,0.64,0.68,0.60,
4.091,1.45,0.34,-3.34,0.64,0.68,0.60,
4.091,1.45,0.34,-3.34,0.64,0.67,0.60,
4.093,1.45,0.34,-3.34,0.64,0.66,0.60,
4.095,1.45,0.34,-3.34,0.63,0.64,0.60,
4.097,1.45,0.34,-3.34,0.63,0.64,0.60,
4.098,1.45,0.34,-3.34,0.63,0.62,0.60,
4.134,1.31,0.15,-3.90,0.63,0.62,0.60,
4.135,1.31,0.15,-3.90,0.63,0.61,0.61,
4.136,1.31,0.15,-3.90,0.63,0.60,0.61,
4.138,1.31,0.15,-3.90,0.63,0.58,0.62,
4.139,1.31,0.15,-3.90,0.63,0.57,0.62,
4.14,1.31,0.15,-3.90,0.63,0.56,0.63,
4.141,1.04,-0.15,-4.28,0.63,0.56,0.63,
4.141,1.04,-0.15,-4.28,0.63,0.56,0.64,
4.142,1.04,-0.15,-4.28,0.63,0.55,0.65,
4.142,1.04,-0.15,-4.28,0.64,0.54,0.66,
4.143,1.04,-0.15,-4.28,0.63,0.54,0.67,
4.143,1.04,-0.15,-4.28,0.63,0.53,0.68,
4.144,0.92,-0.44,-4.63,0.63,0.53,0.68,
4.146,0.92,-0.44,-4.63,0.64,0.52,0.69,
4.146,0.92,-0.44,-4.63,0.64,0.51,0.69,
4.147,0.92,-0.44,-4.63,0.65,0.51,0.71,
4.147,0.92,-0.44,-4.63,0.66,0.51,0.71,
4.148,0.92,-0.44,-4.63,0.67,0.50,0.71,
4.148,1.05,-0.74,-4.65,0.67,0.50,0.71,
4.148,1.05,-0.74,-4.65,0.68,0.50,0.71,
4.149,1.05,-0.74,-4.65,0.70,0.49,0.72,
4.15,1.05,-0.74,-4.65,0.72,0.49,0.72,
4.15,1.05,-0.74,-4.65,0.73,0.49,0.72,
4.151,1.05,-0.74,-4.65,0.74,0.49,0.72,
4.152,1.13,-0.92,-4.76,0.74,0.49,0.72,
4.153,1.13,-0.92,-4.76,0.75,0.49,0.73,
4.153,1.13,-0.92,-4.76,0.76,0.48,0.73,
4.154,1.13,-0.92,-4.76,0.79,0.48,0.74,
4.154,1.13,-0.92,-4.76,0.79,0.49,0.74,
4.155,1.13,-0.92,-4.76,0.79,0.48,0.74,
4.155,1.11,-1.23,-5.05,0.79,0.48,0.74,
4.156,1.11,-1.23,-5.05,0.80,0.48,0.75,
4.157,1.11,-1.23,-5.05,0.81,0.49,0.75,
4.157,1.11,-1.23,-5.05,0.82,0.49,0.76,
4.158,1.11,-1.23,-5.05,0.82,0.49,0.76,
4.171,1.11,-1.23,-5.05,0.82,0.50,0.76,
4.172,1.21,-1.45,-5.44,0.82,0.50,0.76,
4.173,1.21,-1.45,-5.44,0.83,0.50,0.76,
4.173,1.21,-1.45,-5.44,0.84,0.50,0.76,
4.173,1.21,-1.45,-5.44,0.84,0.49,0.76,
4.174,1.21,-1.45,-5.44,0.84,0.49,0.76,
4.174,1.21,-1.45,-5.44,0.84,0.48,0.76,
4.174,1.25,-1.66,-5.71,0.84,0.48,0.76,
4.175,1.25,-1.66,-5.71,0.85,0.47,0.76,
4.175,1.25,-1.66,-5.71,0.85,0.46,0.75,
4.176,1.25,-1.66,-5.71,0.85,0.44,0.74,
4.177,1.25,-1.66,-5.71,0.86,0.44,0.74,
4.179,1.25,-1.66,-5.71,0.86,0.42,0.74,
4.181,1.47,-1.80,-5.93,0.86,0.42,0.74,
4.181,1.47,-1.80,-5.93,0.86,0.40,0.73,
4.183,1.47,-1.80,-5.93,0.85,0.39,0.72,
4.187,1.47,-1.80,-5.93,0.85,0.36,0.71,
4.189,1.47,-1.80,-5.93,0.83,0.34,0.71,
4.19,1.47,-1.80,-5.93,0.83,0.33,0.70,
4.191,1.38,-2.00,-6.24,0.83,0.33,0.70,
4.191,1.38,-2.00,-6.24,0.82,0.32,0.70,
4.194,1.38,-2.00,-6.24,0.81,0.30,0.70,
4.196,1.38,-2.00,-6.24,0.79,0.28,0.69,
4.197,1.38,-2.00,-6.24,0.78,0.28,0.69,
4.199,1.38,-2.00,-6.24,0.76,0.26,0.68,
4.201,1.35,-2.16,-6.47,0.76,0.26,0.68,
4.202,1.35,-2.16,-6.47,0.74,0.25,0.67,
4.203,1.35,-2.16,-6.47,0.72,0.25,0.67,
4.211,1.35,-2.16,-6.47,0.68,0.24,0.66,
4.211,1.35,-2.16,-6.47,0.67,0.24,0.66,
4.212,1.35,-2.16,-6.47,0.65,0.25,0.66,
4.212,1.11,-2.34,-6.44,0.65,0.25,0.66,
4.212,1.11,-2.34,-6.44,0.63,0.26,0.65,
4.213,1.11,-2.34,-6.44,0.60,0.27,0.65,
4.217,1.11,-2.34,-6.44,0.57,0.28,0.64,
4.218,1.11,-2.34,-6.44,0.56,0.29,0.64,
4.263,1.11,-2.34,-6.44,0.54,0.31,0.64,
4.264,1.13,-2.41,-6.24,0.54,0.31,0.64,
4.264,1.13,-2.41,-6.24,0.52,0.32,0.63,
4.264,1.13,-2.41,-6.24,0.50,0.34,0.63,
4.264,1.13,-2.41,-6.24,0.46,0.36,0.61,
4.264,1.13,-2.41,-6.24,0.46,0.37,0.61,
4.265,1.13,-2.41,-6.24,0.44,0.39,0.61,
4.265,1.05,-2.58,-5.84,0.44,0.39,0.61,
4.265,1.05,-2.58,-5.84,0.42,0.40,0.60,
4.265,1.05,-2.58,-5.84,0.41,0.42,0.59,
4.265,1.05,-2.58,-5.84,0.39,0.45,0.59,
4.266,1.05,-2.58,-5.84,0.38,0.46,0.59,
4.266,1.05,-2.58,-5.84,0.36,0.47,0.59,
4.266,0.85,-2.66,-5.41,0.36,0.47,0.59,
4.266,0.85,-2.66,-5.41,0.35,0.49,0.59,
4.266,0.85,-2.66,-5.41,0.34,0.50,0.59,
4.266,0.85,-2.66,-5.41,0.32,0.50,0.60,
4.267,0.85,-2.66,-5.41,0.32,0.50,0.60,
4.267,0.85,-2.66,-5.41,0.31,0.50,0.61,
4.267,0.38,-2.69,-5.09,0.31,0.50,0.61,
4.267,0.38,-2.69,-5.09,0.29,0.50,0.61,
4.267,0.38,-2.69,-5.09,0.28,0.48,0.62,
4.268,0.38,-2.69,-5.09,0.27,0.46,0.64,
4.268,0.38,-2.69,-5.09,0.26,0.45,0.64,
4.268,0.38,-2.69,-5.09,0.25,0.44,0.65,
4.268,0.01,-2.66,-4.83,0.25,0.44,0.65,
4.268,0.01,-2.66,-4.83,0.24,0.41,0.66,
4.268,0.01,-2.66,-4.83,0.23,0.39,0.67,
4.269,0.01,-2.66,-4.83,0.22,0.35,0.69,
4.29,0.01,-2.66,-4.83,0.21,0.33,0.69,
4.29,0.01,-2.66,-4.83,0.20,0.30,0.70,
4.291,-0.00,-2.59,-4.46,0.20,0.30,0.70,
4.291,-0.00,-2.59,-4.46,0.19,0.27,0.71,
4.291,-0.00,-2.59,-4.46,0.18,0.23,0.71,
4.291,-0.00,-2.59,-4.46,0.17,0.17,0.71,
4.292,-0.00,-2.59,-4.46,0.17,0.15,0.71,
4.292,-0.00,-2.59,-4.46,0.16,0.11,0.71,
4.292,0.18,-2.40,-3.96,0.16,0.11,0.71,
4.292,0.18,-2.40,-3.96,0.15,0.06,0.71,
4.292,0.18,-2.40,-3.96,0.15,0.02,0.71,
4.293,0.18,-2.40,-3.96,0.14,-0.04,0.70,
4.293,0.18,-2.40,-3.96,0.14,-0.07,0.69,
4.293,0.18,-2.40,-3.96,0.14,-0.10,0.69,
4.293,0.29,-2.16,-3.32,0.14,-0.10,0.69,
4.293,0.29,-2.16,-3.32,0.13,-0.14,0.69,
4.294,0.29,-2.16,-3.32,0.13,-0.18,0.68,
4.301,0.29,-2.16,-3.32,0.12,-0.22,0.67,
4.302,0.29,-2.16,-3.32,0.12,-0.23,0.67,
4.302,0.29,-2.16,-3.32,0.11,-0.26,0.67,
4.302,0.24,-2.01,-2.59,0.11,-0.26,0.67,
4.302,0.24,-2.01,-2.59,0.11,-0.28,0.67,
4.303,0.24,-2.01,-2.59,0.10,-0.29,0.66,
4.308,0.24,-2.01,-2.59,0.09,-0.30,0.66,
4.308,0.24,-2.01,-2.59,0.09,-0.30,0.66,
4.308,0.24,-2.01,-2.59,0.08,-0.30,0.66,
4.313,0.17,-1.84,-1.84,0.08,-0.30,0.66,
4.313,0.17,-1.84,-1.84,0.07,-0.30,0.66,
4.313,0.17,-1.84,-1.84,0.06,-0.30,0.65,
4.317,0.17,-1.84,-1.84,0.04,-0.28,0.65,
4.32,0.17,-1.84,-1.84,0.03,-0.28,0.65,
4.32,0.17,-1.84,-1.84,0.01,-0.27,0.64,
4.328,0.28,-1.80,-1.22,0.01,-0.27,0.64,
4.328,0.28,-1.80,-1.22,-0.00,-0.25,0.64,
4.329,0.28,-1.80,-1.22,-0.02,-0.24,0.64,
4.329,0.28,-1.80,-1.22,-0.06,-0.23,0.64,
4.329,0.28,-1.80,-1.22,-0.07,-0.22,0.64,
4.329,0.28,-1.80,-1.22,-0.09,-0.22,0.64,
4.333,0.18,-1.61,-0.60,-0.09,-0.22,0.64,
4.333,0.18,-1.61,-0.60,-0.12,-0.21,0.64,
4.333,0.18,-1.61,-0.60,-0.14,-0.21,0.64,
4.375,0.18,-1.61,-0.60,-0.17,-0.21,0.64,
4.376,0.18,-1.61,-0.60,-0.18,-0.21,0.63,
4.376,0.18,-1.61,-0.60,-0.20,-0.21,0.62,
4.376,0.45,-1.33,0.43,-0.20,-0.21,0.62,
4.377,0.45,-1.33,0.43,-0.21,-0.22,0.61,
4.377,0.45,-1.33,0.43,-0.22,-0.22,0.60,
4.377,0.45,-1.33,0.43,-0.23,-0.22,0.57,
4.378,0.45,-1.33,0.43,-0.22,-0.23,0.55,
4.378,0.45,-1.33,0.43,-0.22,-0.23,0.53,
4.378,1.09,-0.88,1.85,-0.22,-0.23,0.53,
4.379,1.09,-0.88,1.85,-0.21,-0.24,0.50,
4.379,1.09,-0.88,1.85,-0.19,-0.24,0.47,
4.38,1.09,-0.88,1.85,-0.15,-0.24,0.41,
4.38,1.09,-0.88,1.85,-0.14,-0.24,0.40,
4.38,1.09,-0.88,1.85,-0.11,-0.23,0.37,
4.38,1.56,-0.68,3.37,-0.11,-0.23,0.37,
4.381,1.56,-0.68,3.37,-0.08,-0.22,0.34,
4.381,1.56,-0.68,3.37,-0.04,-0.20,0.30,
4.381,1.56,-0.68,3.37,0.02,-0.17,0.26,
4.381,1.56,-0.68,3.37,0.04,-0.16,0.25,
4.381,1.56,-0.68,3.37,0.09,-0.12,0.24,
4.382,1.19,-0.85,4.37,0.09,-0.12,0.24,
4.382,1.19,-0.85,4.37,0.13,-0.08,0.23,
4.382,1.19,-0.85,4.37,0.18,-0.04,0.22,
4.382,1.19,-0.85,4.37,0.26,0.04,0.23,
4.383,1.19,-0.85,4.37,0.29,0.07,0.24,
4.383,1.19,-0.85,4.37,0.33,0.13,0.26,
4.383,-0.05,-1.27,4.72,0.33,0.13,0.26,
4.383,-0.05,-1.27,4.72,0.38,0.19,0.29,
4.384,-0.05,-1.27,4.72,0.43,0.24,0.33,
4.388,-0.05,-1.27,4.72,0.50,0.32,0.39,
4.388,-0.05,-1.27,4.72,0.53,0.34,0.41,
4.388,-0.05,-1.27,4.72,0.56,0.38,0.45,
4.391,-1.21,-1.45,3.99,0.56,0.38,0.45,
4.391,-1.21,-1.45,3.99,0.60,0.41,0.50,
4.393,-1.21,-1.45,3.99,0.63,0.42,0.54,
4.396,-1.21,-1.45,3.99,0.67,0.42,0.60,
4.398,-1.21,-1.45,3.99,0.69,0.41,0.62,
4.399,-1.21,-1.45,3.99,0.71,0.39,0.66,
4.403,-1.60,-1.30,2.58,0.71,0.39,0.66,
4.403,-1.60,-1.30,2.58,0.72,0.35,0.70,
4.412,-1.60,-1.30,2.58,0.73,0.30,0.74,
4.412,-1.60,-1.30,2.58,0.72,0.20,0.78,
4.412,-1.60,-1.30,2.58,0.71,0.16,0.79,
4.413,-1.60,-1.30,2.58,0.70,0.07,0.81,
4.413,-1.29,-0.69,0.91,0.70,0.07,0.81,
4.413,-1.29,-0.69,0.91,0.68,-0.04,0.83,
4.413,-1.29,-0.69,0.91,0.65,-0.16,0.84,
4.443,-1.29,-0.69,0.91,0.59,-0.37,0.84,
4.444,-1.29,-0.69,0.91,0.56,-0.44,0.84,
4.444,-1.29,-0.69,0.91,0.51,-0.59,0.83,
4.444,-0.71,0.06,-0.26,0.51,-0.59,0.83,
4.444,-0.71,0.06,-0.26,0.45,-0.74,0.82,
4.445,-0.71,0.06,-0.26,0.39,-0.89,0.81,
4.445,-0.71,0.06,-0.26,0.28,-1.10,0.79,
4.445,-0.71,0.06,-0.26,0.25,-1.16,0.78,
4.445,-0.71,0.06,-0.26,0.17,-1.29,0.75,
4.446,-0.13,0.89,-0.27,0.17,-1.29,0.75,
4.447,-0.13,0.89,-0.27,0.09,-1.39,0.73,
4.482,-0.13,0.89,-0.27,0.00,-1.49,0.71,
4.483,-0.13,0.89,-0.27,-0.13,-1.62,0.67,
4.483,-0.13,0.89,-0.27,-0.18,-1.66,0.65,
4.483,-0.13,0.89,-0.27,-0.29,-1.73,0.61,
4.483,0.85,1.43,0.61,-0.29,-1.73,0.61,
4.484,0.85,1.43,0.61,-0.39,-1.79,0.57,
4.484,0.85,1.43,0.61,-0.51,-1.85,0.53,
4.485,0.85,1.43,0.61,-0.68,-1.91,0.46,
4.485,0.85,1.43,0.61,-0.74,-1.92,0.43,
4.485,0.85,1.43,0.61,-0.86,-1.95,0.38,
4.486,2.09,1.76,2.24,-0.86,-1.95,0.38,
4.486,2.09,1.76,2.24,-0.97,-1.97,0.32,
4.487,2.09,1.76,2.24,-1.09,-1.96,0.26,
4.487,2.09,1.76,2.24,-1.26,-1.93,0.16,
4.488,2.09,1.76,2.24,-1.31,-1.91,0.13,
4.488,2.09,1.76,2.24,-1.41,-1.86,0.07,
4.488,3.08,1.72,4.57,-1.41,-1.86,0.07,
4.489,3.08,1.72,4.57,-1.51,-1.79,0.01,
4.489,3.08,1.72,4.57,-1.60,-1.71,-0.04,
4.49,3.08,1.72,4.57,-1.72,-1.57,-0.12,
4.49,3.08,1.72,4.57,-1.76,-1.52,-0.14,
4.49,3.08,1.72,4.57,-1.83,-1.41,-0.19,
4.491,3.34,1.32,7.07,-1.83,-1.41,-0.19,
4.491,3.34,1.32,7.07,-1.90,-1.28,-0.23,
4.492,3.34,1.32,7.07,-1.96,-1.15,-0.28,
4.492,3.34,1.32,7.07,-2.02,-0.94,-0.34,
4.492,3.34,1.32,7.07,-2.03,-0.87,-0.36,
4.493,3.34,1.32,7.07,-2.05,-0.72,-0.40,
4.493,3.19,0.79,9.62,-2.05,-0.72,-0.40,
4.494,3.19,0.79,9.62,-2.06,-0.57,-0.44,
4.494,3.19,0.79,9.62,-2.06,-0.43,-0.47,
4.495,3.19,0.79,9.62,-2.03,-0.23,-0.52,
4.495,3.19,0.79,9.62,-2.01,-0.17,-0.53,
4.496,3.19,0.79,9.62,-1.97,-0.05,-0.56,
4.496,2.52,0.43,11.71,-1.97,-0.05,-0.56,
4.497,2.52,0.43,11.71,-1.92,0.06,-0.58,
4.497,2.52,0.43,11.71,-1.86,0.16,-0.60,
4.497,2.52,0.43,11.71,-1.75,0.30,-0.61,
4.498,2.52,0.43,11.71,-1.71,0.34,-0.62,
4.509,2.52,0.43,11.71,-1.63,0.41,-0.62,
4.51,1.19,0.21,12.38,-1.63,0.41,-0.62,
4.51,1.19,0.21,12.38,-1.54,0.47,-0.62,
4.511,1.19,0.21,12.38,-1.45,0.52,-0.62,
4.511,1.19,0.21,12.38,-1.32,0.56,-0.60,
4.511,1.19,0.21,12.38,-1.28,0.56,-0.60,
4.511,1.19,0.21,12.38,-1.19,0.57,-0.58,
4.512,-0.22,0.09,11.15,-1.19,0.57,-0.58,
4.512,-0.22,0.09,11.15,-1.12,0.57,-0.55,
4.513,-0.22,0.09,11.15,-1.04,0.55,-0.53,
4.516,-0.22,0.09,11.15,-0.94,0.51,-0.49,
4.517,-0.22,0.09,11.15,-0.92,0.49,-0.47,
4.52,-0.22,0.09,11.15,-0.85,0.45,-0.44,
4.521,-1.51,-0.02,8.62,-0.85,0.45,-0.44,
4.521,-1.51,-0.02,8.62,-0.80,0.40,-0.40,
4.523,-1.51,-0.02,8.62,-0.76,0.34,-0.36,
4.525,-1.51,-0.02,8.62,-0.70,0.26,-0.30,
4.526,-1.51,-0.02,8.62,-0.69,0.22,-0.28,
4.528,-1.51,-0.02,8.62,-0.66,0.15,-0.25,
4.531,-2.06,0.06,5.88,-0.66,0.15,-0.25,
4.531,-2.06,0.06,5.88,-0.63,0.09,-0.21,
4.533,-2.06,0.06,5.88,-0.62,0.02,-0.17,
4.54,-2.06,0.06,5.88,-0.59,-0.06,-0.12,
4.541,-2.06,0.06,5.88,-0.57,-0.14,-0.07,
4.542,-2.06,0.06,5.88,-0.56,-0.16,-0.05,
4.542,-1.97,0.27,3.69,-0.56,-0.16,-0.05,
4.542,-1.97,0.27,3.69,-0.56,-0.18,-0.04,
4.543,-1.97,0.27,3.69,-0.55,-0.21,-0.01,
4.546,-1.97,0.27,3.69,-0.54,-0.25,0.03,
4.547,-1.97,0.27,3.69,-0.53,-0.27,0.04,
4.577,-1.97,0.27,3.69,-0.52,-0.28,0.06,
4.577,-1.43,0.38,2.66,-0.52,-0.28,0.06,
4.577,-1.43,0.38,2.66,-0.51,-0.28,0.08,
4.578,-1.43,0.38,2.66,-0.50,-0.28,0.09,
4.578,-1.43,0.38,2.66,-0.48,-0.27,0.12,
4.578,-1.43,0.38,2.66,-0.48,-0.26,0.12,
4.578,-1.43,0.38,2.66,-0.46,-0.24,0.14,
4.578,-0.87,0.35,1.86,-0.46,-0.24,0.14,
4.579,-0.87,0.35,1.86,-0.45,-0.22,0.15,
4.579,-0.87,0.35,1.86,-0.44,-0.18,0.17,
4.579,-0.87,0.35,1.86,-0.43,-0.13,0.18,
4.579,-0.87,0.35,1.86,-0.42,-0.11,0.19,
4.579,-0.87,0.35,1.86,-0.40,-0.07,0.20,
4.579,-0.44,0.37,1.10,-0.40,-0.07,0.20,
4.58,-0.44,0.37,1.10,-0.40,-0.03,0.21,
4.58,-0.44,0.37,1.10,-0.38,0.02,0.22,
4.58,-0.44,0.37,1.10,-0.36,0.08,0.24,
4.58,-0.44,0.37,1.10,-0.36,0.10,0.24,
4.58,-0.44,0.37,1.10,-0.35,0.14,0.25,
4.581,-0.24,0.43,0.16,-0.35,0.14,0.25,
4.581,-0.24,0.43,0.16,-0.34,0.18,0.26,
4.589,-0.24,0.43,0.16,-0.33,0.22,0.27,
4.59,-0.24,0.43,0.16,-0.32,0.27,0.29,
4.591,-0.24,0.43,0.16,-0.31,0.28,0.29,
4.591,-0.24,0.43,0.16,-0.31,0.31,0.30,
4.591,-0.12,0.48,-0.96,-0.31,0.31,0.30,
4.592,-0.12,0.48,-0.96,-0.30,0.33,0.30,
4.593,-0.12,0.48,-0.96,-0.29,0.35,0.31,
4.596,-0.12,0.48,-0.96,-0.28,0.38,0.31,
4.597,-0.12,0.48,-0.96,-0.27,0.39,0.31,
4.599,-0.12,0.48,-0.96,-0.27,0.40,0.32,
4.624,0.12,0.54,-1.99,-0.27,0.40,0.32,
4.624,0.12,0.54,-1.99,-0.25,0.41,0.32,
4.625,0.12,0.54,-1.99,-0.25,0.42,0.32,
4.625,0.12,0.54,-1.99,-0.23,0.42,0.31,
4.625,0.12,0.54,-1.99,-0.23,0.42,0.31,
4.626,0.12,0.54,-1.99,-0.22,0.41,0.31,
4.626,0.29,0.59,-2.78,-0.22,0.41,0.31,
4.626,0.29,0.59,-2.78,-0.20,0.40,0.30,
4.626,0.29,0.59,-2.78,-0.18,0.38,0.29,
4.627,0.29,0.59,-2.78,-0.15,0.35,0.27,
4.627,0.29,0.59,-2.78,-0.14,0.34,0.27,
4.627,0.29,0.59,-2.78,-0.13,0.32,0.25,
4.627,0.82,0.70,-3.32,-0.13,0.32,0.25,
4.628,0.82,0.70,-3.32,-0.10,0.29,0.23,
4.628,0.82,0.70,-3.32,-0.08,0.26,0.21,
4.628,0.82,0.70,-3.32,-0.04,0.22,0.18,
4.628,0.82,0.70,-3.32,-0.03,0.20,0.17,
4.629,0.82,0.70,-3.32,-0.00,0.17,0.14,
4.637,0.95,0.68,-3.75,-0.00,0.17,0.14,
4.638,0.95,0.68,-3.75,0.02,0.14,0.12,
4.638,0.95,0.68,-3.75,0.04,0.11,0.10,
4.638,0.95,0.68,-3.75,0.07,0.06,0.07,
4.638,0.95,0.68,-3.75,0.08,0.05,0.06,
4.639,0.95,0.68,-3.75,0.10,0.02,0.04,
4.643,0.73,0.66,-4.41,0.10,0.02,0.04,
4.643,0.73,0.66,-4.41,0.11,-0.01,0.02,
4.643,0.73,0.66,-4.41,0.12,-0.04,0.01,
4.647,0.73,0.66,-4.41,0.13,-0.09,-0.01,
4.647,0.73,0.66,-4.41,0.14,-0.10,-0.01,
4.649,0.73,0.66,-4.41,0.14,-0.13,-0.02,
4.652,0.13,0.34,-5.12,0.14,-0.13,-0.02,
4.652,0.13,0.34,-5.12,0.13,-0.15,-0.03,
4.653,0.13,0.34,-5.12,0.13,-0.17,-0.03,
4.656,0.13,0.34,-5.12,0.12,-0.20,-0.04,
4.656,0.13,0.34,-5.12,0.12,-0.21,-0.04,
4.661,0.13,0.34,-5.12,0.11,-0.23,-0.04,
4.661,-0.36,0.12,-5.62,0.11,-0.23,-0.04,
4.661,-0.36,0.12,-5.62,0.11,-0.24,-0.04,
4.664,-0.36,0.12,-5.62,0.10,-0.25,-0.04,
4.671,-0.36,0.12,-5.62,0.09,-0.25,-0.03,
4.672,-0.36,0.12,-5.62,0.08,-0.25,-0.03,
4.672,-0.36,0.12,-5.62,0.07,-0.26,-0.02,
4.672,-0.81,-0.22,-5.63,0.07,-0.26,-0.02,
4.672,-0.81,-0.22,-5.63,0.07,-0.26,-0.01,
4.673,-0.81,-0.22,-5.63,0.06,-0.26,-0.00,
4.677,-0.81,-0.22,-5.63,0.06,-0.25,0.01,
4.677,-0.81,-0.22,-5.63,0.06,-0.24,0.02,
4.68,-0.81,-0.22,-5.63,0.06,-0.23,0.03,
4.698,-1.05,-0.32,-5.28,0.06,-0.23,0.03,
4.699,-1.05,-0.32,-5.28,0.06,-0.22,0.04,
4.699,-1.05,-0.32,-5.28,0.06,-0.21,0.05,
4.7,-1.05,-0.32,-5.28,0.06,-0.19,0.06,
4.7,-1.05,-0.32,-5.28,0.07,-0.18,0.06,
4.7,-1.05,-0.32,-5.28,0.07,-0.17,0.07,
4.7,-1.08,-0.52,-4.85,0.07,-0.17,0.07,
4.7,-1.08,-0.52,-4.85,0.07,-0.16,0.07,
4.7,-1.08,-0.52,-4.85,0.08,-0.15,0.08,
4.701,-1.08,-0.52,-4.85,0.10,-0.14,0.08,
4.701,-1.08,-0.52,-4.85,0.10,-0.14,0.08,
4.701,-1.08,-0.52,-4.85,0.12,-0.13,0.07,
4.703,-0.94,-0.48,-4.40,0.12,-0.13,0.07,
4.703,-0.94,-0.48,-4.40,0.14,-0.13,0.07,
4.703,-0.94,-0.48,-4.40,0.15,-0.13,0.06,
4.706,-0.94,-0.48,-4.40,0.18,-0.13,0.05,
4.707,-0.94,-0.48,-4.40,0.19,-0.13,0.05,
4.709,-0.94,-0.48,-4.40,0.22,-0.13,0.04,
4.711,-0.97,-0.40,-3.94,0.22,-0.13,0.04,
4.711,-0.97,-0.40,-3.94,0.23,-0.14,0.03,
4.712,-0.97,-0.40,-3.94,0.25,-0.14,0.02,
4.716,-0.97,-0.40,-3.94,0.29,-0.15,0.01,
4.716,-0.97,-0.40,-3.94,0.30,-0.15,0.01,
4.718,-0.97,-0.40,-3.94,0.32,-0.15,-0.01,
4.721,-0.99,-0.39,-3.61,0.32,-0.15,-0.01,
4.721,-0.99,-0.39,-3.61,0.34,-0.16,-0.02,
4.722,-0.99,-0.39,-3.61,0.36,-0.16,-0.03,
4.726,-0.99,-0.39,-3.61,0.40,-0.16,-0.05,
4.726,-0.99,-0.39,-3.61,0.41,-0.17,-0.05,
4.729,-0.99,-0.39,-3.61,0.43,-0.17,-0.06,
4.731,-1.20,-0.49,-3.42,0.43,-0.17,-0.06,
4.731,-1.20,-0.49,-3.42,0.45,-0.17,-0.07,
4.735,-1.20,-0.49,-3.42,0.46,-0.18,-0.08,
4.736,-1.20,-0.49,-3.42,0.49,-0.19,-0.09,
4.737,-1.20,-0.49,-3.42,0.50,-0.20,-0.09,
4.739,-1.20,-0.49,-3.42,0.51,-0.21,-0.09,
4.741,-1.69,-0.53,-3.36,0.51,-0.21,-0.09,
4.741,-1.69,-0.53,-3.36,0.52,-0.22,-0.09,
4.743,-1.69,-0.53,-3.36,0.53,-0.22,-0.09,
4.745,-1.69,-0.53,-3.36,0.56,-0.24,-0.09,
4.747,-1.69,-0.53,-3.36,0.56,-0.24,-0.09,
4.749,-1.69,-0.53,-3.36,0.58,-0.24,-0.09,
4.755,-1.93,-0.64,-3.06,0.58,-0.24,-0.09,
4.755,-1.93,-0.64,-3.06,0.60,-0.25,-0.08,
4.755,-1.93,-0.64,-3.06,0.61,-0.25,-0.08,
4.756,-1.93,-0.64,-3.06,0.64,-0.26,-0.08,
4.758,-1.93,-0.64,-3.06,0.66,-0.26,-0.07,
4.759,-1.93,-0.64,-3.06,0.68,-0.27,-0.07,
4.761,-2.15,-0.60,-2.59,0.68,-0.27,-0.07,
4.762,-2.15,-0.60,-2.59,0.70,-0.28,-0.07,
4.763,-2.15,-0.60,-2.59,0.72,-0.28,-0.06,
4.772,-2.15,-0.60,-2.59,0.75,-0.30,-0.06,
4.801,-2.15,-0.60,-2.59,0.77,-0.30,-0.06,
4.801,-2.15,-0.60,-2.59,0.78,-0.32,-0.06,
4.802,-2.27,-0.54,-2.28,0.78,-0.32,-0.06,
4.802,-2.27,-0.54,-2.28,0.80,-0.33,-0.06,
4.802,-2.27,-0.54,-2.28,0.82,-0.34,-0.05,
4.802,-2.27,-0.54,-2.28,0.85,-0.37,-0.05,
4.802,-2.27,-0.54,-2.28,0.86,-0.37,-0.05,
4.803,-2.27,-0.54,-2.28,0.87,-0.39,-0.05,
4.803,-2.37,-0.49,-2.17,0.87,-0.39,-0.05,
4.803,-2.37,-0.49,-2.17,0.88,-0.41,-0.05,
4.803,-2.37,-0.49,-2.17,0.90,-0.43,-0.05,
4.804,-2.37,-0.49,-2.17,0.91,-0.45,-0.05,
4.804,-2.37,-0.49,-2.17,0.91,-0.46,-0.05,
4.804,-2.37,-0.49,-2.17,0.91,-0.47,-0.05,
4.804,-2.35,-0.39,-2.15,0.91,-0.47,-0.05,
4.804,-2.35,-0.39,-2.15,0.92,-0.48,-0.05,
4.805,-2.35,-0.39,-2.15,0.91,-0.49,-0.05,
4.805,-2.35,-0.39,-2.15,0.92,-0.50,-0.06,
4.805,-2.35,-0.39,-2.15,0.92,-0.50,-0.07,
4.805,-2.35,-0.39,-2.15,0.91,-0.50,-0.08,
4.805,-2.04,-0.29,-2.06,0.91,-0.50,-0.08,
4.806,-2.04,-0.29,-2.06,0.92,-0.50,-0.09,
4.806,-2.04,-0.29,-2.06,0.91,-0.51,-0.10,
4.806,-2.04,-0.29,-2.06,0.91,-0.51,-0.13,
4.81,-2.04,-0.29,-2.06,0.91,-0.52,-0.13,
4.81,-2.04,-0.29,-2.06,0.91,-0.52,-0.15,
4.81,-1.67,-0.33,-1.88,0.91,-0.52,-0.15,
4.811,-1.67,-0.33,-1.88,0.90,-0.52,-0.17,
4.815,-1.67,-0.33,-1.88,0.90,-0.52,-0.18,
4.819,-1.67,-0.33,-1.88,0.88,-0.50,-0.21,
4.82,-1.67,-0.33,-1.88,0.88,-0.50,-0.21,
4.82,-1.67,-0.33,-1.88,0.87,-0.49,-0.23,
4.821,-1.53,-0.34,-1.73,0.87,-0.49,-0.23,
4.821,-1.53,-0.34,-1.73,0.86,-0.47,-0.24,
4.825,-1.53,-0.34,-1.73,0.85,-0.45,-0.26,
4.828,-1.53,-0.34,-1.73,0.83,-0.43,-0.29,
4.828,-1.53,-0.34,-1.73,0.82,-0.42,-0.30,
4.829,-1.53,-0.34,-1.73,0.80,-0.41,-0.32,
4.833,-1.28,-0.50,-1.88,0.80,-0.41,-0.32,
4.833,-1.28,-0.50,-1.88,0.78,-0.40,-0.34,
4.833,-1.28,-0.50,-1.88,0.75,-0.40,-0.36,
4.84,-1.28,-0.50,-1.88,0.71,-0.39,-0.39,
4.84,-1.28,-0.50,-1.88,0.70,-0.39,-0.39,
4.84,-1.28,-0.50,-1.88,0.67,-0.38,-0.41,
4.843,-1.26,-0.62,-2.07,0.67,-0.38,-0.41,
4.844,-1.26,-0.62,-2.07,0.64,-0.38,-0.43,
4.844,-1.26,-0.62,-2.07,0.61,-0.37,-0.44,
4.869,-1.26,-0.62,-2.07,0.56,-0.38,-0.47,
4.87,-1.26,-0.62,-2.07,0.55,-0.38,-0.48,
4.87,-1.26,-0.62,-2.07,0.52,-0.38,-0.49,
4.87,-1.33,-0.65,-1.97,0.52,-0.38,-0.49,
4.871,-1.33,-0.65,-1.97,0.49,-0.39,-0.50,
4.871,-1.33,-0.65,-1.97,0.46,-0.40,-0.52,
4.871,-1.33,-0.65,-1.97,0.42,-0.42,-0.53,
4.871,-1.33,-0.65,-1.97,0.39,-0.44,-0.54,
4.871,-1.33,-0.65,-1.97,0.38,-0.45,-0.55,
4.872,-1.39,-0.52,-1.52,0.38,-0.45,-0.55,
4.872,-1.39,-0.52,-1.52,0.35,-0.46,-0.55,
4.872,-1.39,-0.52,-1.52,0.32,-0.48,-0.56,
4.872,-1.39,-0.52,-1.52,0.29,-0.51,-0.57,
4.872,-1.39,-0.52,-1.52,0.27,-0.52,-0.57,
4.873,-1.39,-0.52,-1.52,0.24,-0.54,-0.58,
4.873,-1.21,-0.41,-0.87,0.24,-0.54,-0.58,
4.873,-1.21,-0.41,-0.87,0.21,-0.56,-0.58,
4.873,-1.21,-0.41,-0.87,0.18,-0.58,-0.59,
4.876,-1.21,-0.41,-0.87,0.14,-0.61,-0.60,
4.877,-1.21,-0.41,-0.87,0.13,-0.62,-0.61,
4.879,-1.21,-0.41,-0.87,0.10,-0.64,-0.62,
4.881,-0.68,-0.28,0.18,0.10,-0.64,-0.62,
4.881,-0.68,-0.28,0.18,0.08,-0.66,-0.64,
4.883,-0.68,-0.28,0.18,0.05,-0.67,-0.65,
4.886,-0.68,-0.28,0.18,0.02,-0.69,-0.67,
4.888,-0.68,-0.28,0.18,-0.00,-0.70,-0.69,
4.889,-0.68,-0.28,0.18,-0.01,-0.71,-0.69,
4.89,-0.28,0.07,1.64,-0.01,-0.71,-0.69,
4.891,-0.28,0.07,1.64,-0.02,-0.71,-0.70,
4.892,-0.28,0.07,1.64,-0.04,-0.72,-0.71,
4.895,-0.28,0.07,1.64,-0.07,-0.73,-0.73,
4.896,-0.28,0.07,1.64,-0.08,-0.73,-0.73,
4.899,-0.28,0.07,1.64,-0.09,-0.73,-0.75,
4.901,0.19,0.36,2.88,-0.09,-0.73,-0.75,
4.901,0.19,0.36,2.88,-0.11,-0.73,-0.77,
4.903,0.19,0.36,2.88,-0.13,-0.72,-0.79,
4.905,0.19,0.36,2.88,-0.14,-0.69,-0.82,
4.906,0.19,0.36,2.88,-0.15,-0.68,-0.83,
4.908,0.19,0.36,2.88,-0.16,-0.66,-0.85,
4.91,0.79,0.70,4.12,-0.16,-0.66,-0.85,
4.911,0.79,0.70,4.12,-0.17,-0.63,-0.88,
4.912,0.79,0.70,4.12,-0.18,-0.59,-0.90,
4.916,0.79,0.70,4.12,-0.19,-0.54,-0.93,
4.917,0.79,0.70,4.12,-0.19,-0.52,-0.94,
4.918,0.79,0.70,4.12,-0.20,-0.47,-0.96,
4.921,1.09,1.01,4.89,-0.20,-0.47,-0.96,
4.921,1.09,1.01,4.89,-0.21,-0.43,-0.97,
4.922,1.09,1.01,4.89,-0.22,-0.39,-0.99,
4.925,1.09,1.01,4.89,-0.25,-0.33,-1.01,
4.926,1.09,1.01,4.89,-0.26,-0.31,-1.02,
4.929,1.09,1.01,4.89,-0.29,-0.29,-1.03,
4.931,1.37,1.37,4.70,-0.29,-0.29,-1.03,
4.931,1.37,1.37,4.70,-0.32,-0.27,-1.05,
4.955,1.37,1.37,4.70,-0.36,-0.26,-1.07,
4.955,1.37,1.37,4.70,-0.46,-0.27,-1.12,
4.955,1.37,1.37,4.70,-0.49,-0.27,-1.14,
4.956,1.37,1.37,4.70,-0.52,-0.28,-1.15,
4.956,2.35,1.28,3.72,-0.52,-0.28,-1.15,
4.956,2.35,1.28,3.72,-0.59,-0.30,-1.19,
4.957,2.35,1.28,3.72,-0.66,-0.31,-1.22,
4.957,2.35,1.28,3.72,-0.77,-0.35,-1.28,
4.957,2.35,1.28,3.72,-0.81,-0.36,-1.30,
4.958,2.35,1.28,3.72,-0.90,-0.39,-1.34,
4.958,2.94,1.01,3.27,-0.90,-0.39,-1.34,
4.959,2.94,1.01,3.27,-0.97,-0.42,-1.37,
4.959,2.94,1.01,3.27,-1.06,-0.45,-1.41,
4.959,2.94,1.01,3.27,-1.19,-0.51,-1.46,
4.96,2.94,1.01,3.27,-1.27,-0.54,-1.49,
4.96,2.94,1.01,3.27,-1.31,-0.56,-1.51,
4.961,3.15,0.80,3.76,-1.31,-0.56,-1.51,
4.962,3.15,0.80,3.76,-1.39,-0.59,-1.53,
4.964,3.15,0.80,3.76,-1.47,-0.62,-1.56,
4.969,3.15,0.80,3.76,-1.57,-0.66,-1.59,
4.969,3.15,0.80,3.76,-1.64,-0.67,-1.61,
4.97,3.15,0.80,3.76,-1.67,-0.67,-1.62,
4.971,3.21,0.49,5.38,-1.67,-0.67,-1.62,
4.971,3.21,0.49,5.38,-1.72,-0.67,-1.64,
4.981,3.21,0.49,5.38,-1.77,-0.66,-1.66,
4.981,3.21,0.49,5.38,-1.84,-0.61,-1.67,
4.982,3.21,0.49,5.38,-1.86,-0.59,-1.68,
4.982,3.21,0.49,5.38,-1.89,-0.53,-1.68,
4.982,2.95,-0.01,7.29,-1.89,-0.53,-1.68,
4.982,2.95,-0.01,7.29,-1.93,-0.46,-1.68,
4.982,2.95,-0.01,7.29,-1.94,-0.38,-1.68,
4.995,2.95,-0.01,7.29,-1.97,-0.23,-1.67,
4.996,2.95,-0.01,7.29,-1.98,-0.17,-1.66,
4.996,2.95,-0.01,7.29,-1.98,-0.06,-1.65,
4.996,2.59,-0.42,8.76,-1.98,-0.06,-1.65,
4.996,2.59,-0.42,8.76,-1.98,0.06,-1.64,
4.997,2.59,-0.42,8.76,-1.97,0.18,-1.63,
4.997,2.59,-0.42,8.76,-1.95,0.36,-1.61,
