
time,ax,ay,az,wx,wy,wz,
0.002,-0.39,-0.27,-0.68,-0.28,0.18,0.82,
0.002,-0.39,-0.27,-0.68,-0.29,0.17,0.83,
0.003,-0.39,-0.27,-0.68,-0.31,0.16,0.84,
0.003,-0.39,-0.27,-0.68,-0.32,0.16,0.84,
0.003,-0.39,-0.27,-0.68,-0.33,0.15,0.85,
0.003,-0.40,-0.12,-0.43,-0.33,0.15,0.85,
0.004,-0.40,-0.12,-0.43,-0.34,0.14,0.86,
0.004,-0.40,-0.12,-0.43,-0.35,0.14,0.86,
0.004,-0.40,-0.12,-0.43,-0.36,0.13,0.86,
0.005,-0.40,-0.12,-0.43,-0.36,0.13,0.87,
0.007,-0.40,-0.12,-0.43,-0.37,0.13,0.88,
0.018,-0.48,-0.11,-0.15,-0.37,0.13,0.88,
0.018,-0.48,-0.11,-0.15,-0.38,0.13,0.88,
0.019,-0.48,-0.11,-0.15,-0.38,0.13,0.89,
0.019,-0.48,-0.11,-0.15,-0.39,0.14,0.89,
0.019,-0.48,-0.11,-0.15,-0.39,0.14,0.89,
0.02,-0.48,-0.11,-0.15,-0.40,0.14,0.90,
0.02,-0.52,-0.21,0.02,-0.40,0.14,0.90,
0.02,-0.52,-0.21,0.02,-0.40,0.15,0.90,
0.02,-0.52,-0.21,0.02,-0.40,0.15,0.91,
0.023,-0.52,-0.21,0.02,-0.40,0.16,0.91,
0.024,-0.52,-0.21,0.02,-0.41,0.17,0.91,
0.035,-0.52,-0.21,0.02,-0.41,0.18,0.91,
0.036,-0.43,-0.36,0.27,-0.41,0.18,0.91,
0.036,-0.43,-0.36,0.27,-0.41,0.18,0.92,
0.036,-0.43,-0.36,0.27,-0.41,0.19,0.92,
0.036,-0.43,-0.36,0.27,-0.41,0.19,0.92,
0.037,-0.43,-0.36,0.27,-0.41,0.20,0.92,
0.037,-0.43,-0.36,0.27,-0.41,0.20,0.91,
0.039,-0.31,-0.54,0.55,-0.41,0.20,0.91,
0.04,-0.31,-0.54,0.55,-0.41,0.20,0.91,
0.04,-0.31,-0.54,0.55,-0.40,0.20,0.91,
0.042,-0.31,-0.54,0.55,-0.40,0.19,0.91,
0.043,-0.31,-0.54,0.55,-0.40,0.18,0.90,
0.045,-0.31,-0.54,0.55,-0.39,0.17,0.90,
0.048,-0.18,-0.63,0.75,-0.39,0.17,0.90,
0.048,-0.18,-0.63,0.75,-0.39,0.16,0.89,
0.049,-0.18,-0.63,0.75,-0.38,0.15,0.88,
0.052,-0.18,-0.63,0.75,-0.38,0.14,0.88,
0.055,-0.18,-0.63,0.75,-0.37,0.12,0.87,
0.055,-0.18,-0.63,0.75,-0.37,0.11,0.87,
0.058,-0.12,-0.74,0.77,-0.37,0.11,0.87,
0.058,-0.12,-0.74,0.77,-0.37,0.10,0.86,
0.059,-0.12,-0.74,0.77,-0.36,0.10,0.85,
0.063,-0.12,-0.74,0.77,-0.36,0.09,0.85,
0.064,-0.12,-0.74,0.77,-0.36,0.09,0.85,
0.065,-0.12,-0.74,0.77,-0.37,0.08,0.84,
0.068,-0.00,-0.68,0.57,-0.37,0.08,0.84,
0.068,-0.00,-0.68,0.57,-0.38,0.08,0.84,
0.069,-0.00,-0.68,0.57,-0.38,0.07,0.84,
0.072,-0.00,-0.68,0.57,-0.39,0.07,0.84,
0.075,-0.00,-0.68,0.57,-0.40,0.07,0.84,
0.077,-0.00,-0.68,0.57,-0.42,0.07,0.85,
0.078,0.10,-0.67,0.33,-0.42,0.07,0.85,
0.078,0.10,-0.67,0.33,-0.43,0.08,0.85,
0.079,0.10,-0.67,0.33,-0.45,0.09,0.86,
0.081,0.10,-0.67,0.33,-0.46,0.10,0.87,
0.083,0.10,-0.67,0.33,-0.48,0.11,0.88,
0.085,0.10,-0.67,0.33,-0.50,0.12,0.89,
0.091,0.12,-0.63,0.18,-0.50,0.12,0.89,
0.092,0.12,-0.63,0.18,-0.51,0.13,0.90,
0.102,0.12,-0.63,0.18,-0.53,0.15,0.92,
0.102,0.12,-0.63,0.18,-0.55,0.16,0.93,
0.102,0.12,-0.63,0.18,-0.57,0.17,0.95,
0.103,0.12,-0.63,0.18,-0.59,0.17,0.96,
0.103,0.09,-0.65,0.15,-0.59,0.17,0.96,
0.103,0.09,-0.65,0.15,-0.60,0.17,0.97,
0.103,0.09,-0.65,0.15,-0.62,0.17,0.99,
0.104,0.09,-0.65,0.15,-0.64,0.17,1.00,
0.108,0.09,-0.65,0.15,-0.66,0.17,1.01,
0.109,0.09,-0.65,0.15,-0.67,0.17,1.02,
0.109,0.20,-0.57,0.12,-0.67,0.17,1.02,
0.109,0.20,-0.57,0.12,-0.69,0.17,1.03,
0.11,0.20,-0.57,0.12,-0.71,0.17,1.04,
0.112,0.20,-0.57,0.12,-0.72,0.17,1.04,
0.113,0.20,-0.57,0.12,-0.73,0.17,1.05,
0.115,0.20,-0.57,0.12,-0.75,0.17,1.06,
0.119,0.36,-0.53,0.18,-0.75,0.17,1.06,
0.12,0.36,-0.53,0.18,-0.75,0.17,1.06,
0.122,0.36,-0.53,0.18,-0.76,0.17,1.07,
0.122,0.36,-0.53,0.18,-0.76,0.17,1.07,
0.124,0.36,-0.53,0.18,-0.76,0.17,1.08,
0.125,0.36,-0.53,0.18,-0.76,0.16,1.08,
0.128,0.50,-0.50,0.36,-0.76,0.16,1.08,
0.128,0.50,-0.50,0.36,-0.76,0.16,1.08,
0.129,0.50,-0.50,0.36,-0.75,0.15,1.08,
0.131,0.50,-0.50,0.36,-0.74,0.14,1.08,
0.133,0.50,-0.50,0.36,-0.73,0.13,1.08,
0.135,0.50,-0.50,0.36,-0.71,0.12,1.08,
0.145,0.61,-0.53,0.70,-0.71,0.12,1.08,
0.146,0.61,-0.53,0.70,-0.69,0.10,1.08,
0.146,0.61,-0.53,0.70,-0.68,0.08,1.08,
0.146,0.61,-0.53,0.70,-0.66,0.06,1.08,
0.147,0.61,-0.53,0.70,-0.64,0.03,1.08,
0.149,0.61,-0.53,0.70,-0.62,0.00,1.08,
0.149,0.63,-0.56,0.92,-0.62,0.00,1.08,
0.149,0.63,-0.56,0.92,-0.60,-0.03,1.08,
0.149,0.63,-0.56,0.92,-0.58,-0.07,1.08,
0.151,0.63,-0.56,0.92,-0.55,-0.11,1.09,
0.163,0.63,-0.56,0.92,-0.53,-0.15,1.09,
0.164,0.63,-0.56,0.92,-0.51,-0.19,1.09,
0.164,0.76,-0.66,1.08,-0.51,-0.19,1.09,
0.164,0.76,-0.66,1.08,-0.49,-0.23,1.09,
0.164,0.76,-0.66,1.08,-0.46,-0.27,1.10,
0.164,0.76,-0.66,1.08,-0.43,-0.30,1.10,
0.165,0.76,-0.66,1.08,-0.42,-0.34,1.11,
0.169,0.76,-0.66,1.08,-0.39,-0.36,1.11,
0.169,0.76,-0.77,1.10,-0.39,-0.36,1.11,
0.169,0.76,-0.77,1.10,-0.37,-0.38,1.12,
0.169,0.76,-0.77,1.10,-0.35,-0.40,1.12,
0.207,0.76,-0.77,1.10,-0.33,-0.41,1.13,
0.207,0.76,-0.77,1.10,-0.31,-0.42,1.13,
0.207,0.76,-0.77,1.10,-0.29,-0.42,1.13,
0.207,0.94,-0.87,0.98,-0.29,-0.42,1.13,
0.207,0.94,-0.87,0.98,-0.28,-0.42,1.14,
0.208,0.94,-0.87,0.98,-0.25,-0.41,1.14,
0.208,0.94,-0.87,0.98,-0.23,-0.39,1.14,
0.208,0.94,-0.87,0.98,-0.23,-0.37,1.14,
0.208,0.94,-0.87,0.98,-0.21,-0.35,1.14,
0.208,1.05,-0.88,0.80,-0.21,-0.35,1.14,
0.208,1.05,-0.88,0.80,-0.20,-0.31,1.14,
0.208,1.05,-0.88,0.80,-0.18,-0.28,1.14,
0.208,1.05,-0.88,0.80,-0.17,-0.24,1.14,
0.208,1.05,-0.88,0.80,-0.15,-0.20,1.14,
0.209,1.05,-0.88,0.80,-0.14,-0.17,1.14,
0.209,1.12,-0.85,0.69,-0.14,-0.17,1.14,
0.209,1.12,-0.85,0.69,-0.13,-0.14,1.13,
0.209,1.12,-0.85,0.69,-0.12,-0.12,1.13,
0.209,1.12,-0.85,0.69,-0.11,-0.10,1.12,
0.209,1.12,-0.85,0.69,-0.11,-0.09,1.11,
0.209,1.12,-0.85,0.69,-0.10,-0.09,1.11,
0.209,1.25,-0.81,0.57,-0.10,-0.09,1.11,
0.209,1.25,-0.81,0.57,-0.09,-0.08,1.11,
0.21,1.25,-0.81,0.57,-0.08,-0.08,1.10,
0.213,1.25,-0.81,0.57,-0.07,-0.08,1.10,
0.213,1.25,-0.81,0.57,-0.07,-0.08,1.11,
0.215,1.25,-0.81,0.57,-0.07,-0.08,1.11,
0.218,1.05,-0.87,0.67,-0.07,-0.08,1.11,
0.218,1.05,-0.87,0.67,-0.06,-0.08,1.11,
0.23,1.05,-0.87,0.67,-0.06,-0.08,1.11,
0.23,1.05,-0.87,0.67,-0.06,-0.07,1.11,
0.23,1.05,-0.87,0.67,-0.06,-0.07,1.11,
0.231,1.05,-0.87,0.67,-0.06,-0.06,1.11,
0.231,0.79,-0.88,0.81,-0.06,-0.06,1.11,
0.231,0.79,-0.88,0.81,-0.06,-0.05,1.11,
0.231,0.79,-0.88,0.81,-0.05,-0.05,1.10,
0.231,0.79,-0.88,0.81,-0.05,-0.05,1.10,
0.233,0.79,-0.88,0.81,-0.04,-0.05,1.09,
0.235,0.79,-0.88,0.81,-0.04,-0.05,1.09,
0.248,0.69,-0.87,1.06,-0.04,-0.05,1.09,
0.249,0.69,-0.87,1.06,-0.03,-0.05,1.08,
0.249,0.69,-0.87,1.06,-0.02,-0.05,1.08,
0.249,0.69,-0.87,1.06,-0.02,-0.04,1.07,
0.249,0.69,-0.87,1.06,-0.01,-0.04,1.06,
0.249,0.69,-0.87,1.06,-0.00,-0.03,1.06,
0.249,0.53,-0.73,1.13,-0.00,-0.03,1.06,
0.249,0.53,-0.73,1.13,0.01,-0.02,1.05,
0.249,0.53,-0.73,1.13,0.02,-0.01,1.04,
0.251,0.53,-0.73,1.13,0.04,-0.00,1.04,
0.265,0.53,-0.73,1.13,0.05,0.01,1.03,
0.266,0.53,-0.73,1.13,0.06,0.03,1.02,
0.287,0.47,-0.66,0.97,0.06,0.03,1.02,
0.289,0.47,-0.66,0.97,0.08,0.04,1.02,
0.289,0.47,-0.66,0.97,0.09,0.07,1.02,
0.29,0.47,-0.66,0.97,0.10,0.11,1.01,
0.29,0.47,-0.66,0.97,0.11,0.15,1.01,
0.291,0.47,-0.66,0.97,0.12,0.18,1.01,
0.291,0.46,-0.68,0.56,0.12,0.18,1.01,
0.292,0.46,-0.68,0.56,0.14,0.21,1.00,
0.292,0.46,-0.68,0.56,0.16,0.23,0.99,
0.292,0.46,-0.68,0.56,0.17,0.25,0.99,
0.293,0.46,-0.68,0.56,0.19,0.26,0.99,
0.293,0.46,-0.68,0.56,0.20,0.26,0.98,
0.293,0.66,-0.67,0.37,0.20,0.26,0.98,
0.294,0.66,-0.67,0.37,0.22,0.26,0.99,
0.294,0.66,-0.67,0.37,0.24,0.26,0.99,
0.295,0.66,-0.67,0.37,0.26,0.26,0.99,
0.295,0.66,-0.67,0.37,0.27,0.27,1.00,
0.295,0.66,-0.67,0.37,0.29,0.28,1.01,
0.295,0.60,-0.60,0.28,0.29,0.28,1.01,
0.296,0.60,-0.60,0.28,0.31,0.29,1.01,
0.296,0.60,-0.60,0.28,0.32,0.30,1.02,
0.305,0.60,-0.60,0.28,0.34,0.32,1.03,
0.306,0.60,-0.60,0.28,0.35,0.33,1.03,
0.306,0.60,-0.60,0.28,0.37,0.34,1.04,
0.306,0.65,-0.45,0.25,0.37,0.34,1.04,
0.307,0.65,-0.45,0.25,0.38,0.36,1.05,
0.307,0.65,-0.45,0.25,0.39,0.37,1.06,
0.307,0.65,-0.45,0.25,0.40,0.38,1.07,
0.307,0.65,-0.45,0.25,0.41,0.39,1.07,
0.308,0.65,-0.45,0.25,0.41,0.41,1.08,
0.308,0.47,-0.35,0.20,0.41,0.41,1.08,
0.308,0.47,-0.35,0.20,0.41,0.42,1.09,
0.31,0.47,-0.35,0.20,0.41,0.43,1.10,
0.319,0.47,-0.35,0.20,0.41,0.44,1.10,
0.319,0.47,-0.35,0.20,0.40,0.45,1.11,
0.32,0.47,-0.35,0.20,0.39,0.46,1.11,
0.32,0.35,-0.29,0.01,0.39,0.46,1.11,
0.32,0.35,-0.29,0.01,0.38,0.46,1.10,
0.32,0.35,-0.29,0.01,0.36,0.47,1.10,
0.322,0.35,-0.29,0.01,0.35,0.47,1.10,
0.323,0.35,-0.29,0.01,0.34,0.47,1.10,
0.325,0.35,-0.29,0.01,0.32,0.47,1.09,
0.327,0.28,-0.27,-0.25,0.32,0.47,1.09,
0.328,0.28,-0.27,-0.25,0.31,0.46,1.10,
0.329,0.28,-0.27,-0.25,0.29,0.46,1.09,
0.332,0.28,-0.27,-0.25,0.28,0.45,1.10,
0.334,0.28,-0.27,-0.25,0.27,0.43,1.10,
0.337,0.28,-0.27,-0.25,0.26,0.42,1.09,
0.34,0.23,-0.35,-0.45,0.26,0.42,1.09,
0.341,0.23,-0.35,-0.45,0.24,0.40,1.09,
0.341,0.23,-0.35,-0.45,0.23,0.38,1.09,
0.341,0.23,-0.35,-0.45,0.23,0.35,1.09,
0.343,0.23,-0.35,-0.45,0.22,0.32,1.09,
0.345,0.23,-0.35,-0.45,0.21,0.30,1.09,
0.348,0.35,-0.45,-0.46,0.21,0.30,1.09,
0.348,0.35,-0.45,-0.46,0.21,0.28,1.08,
0.349,0.35,-0.45,-0.46,0.21,0.26,1.08,
0.351,0.35,-0.45,-0.46,0.20,0.24,1.08,
0.354,0.35,-0.45,-0.46,0.20,0.23,1.07,
0.356,0.35,-0.45,-0.46,0.19,0.22,1.07,
0.367,0.62,-0.37,-0.58,0.19,0.22,1.07,
0.367,0.62,-0.37,-0.58,0.19,0.21,1.06,
0.368,0.62,-0.37,-0.58,0.18,0.21,1.07,
0.368,0.62,-0.37,-0.58,0.18,0.21,1.06,
0.368,0.62,-0.37,-0.58,0.18,0.21,1.07,
0.369,0.62,-0.37,-0.58,0.17,0.21,1.07,
0.37,0.64,-0.39,-0.83,0.17,0.21,1.07,
0.37,0.64,-0.39,-0.83,0.16,0.22,1.07,
0.371,0.64,-0.39,-0.83,0.15,0.23,1.07,
0.372,0.64,-0.39,-0.83,0.14,0.25,1.07,
0.389,0.64,-0.39,-0.83,0.13,0.26,1.07,
0.39,0.64,-0.39,-0.83,0.12,0.27,1.07,
0.392,0.71,-0.59,-1.22,0.12,0.27,1.07,
0.392,0.71,-0.59,-1.22,0.11,0.28,1.07,
0.393,0.71,-0.59,-1.22,0.09,0.29,1.07,
0.393,0.71,-0.59,-1.22,0.08,0.30,1.07,
0.394,0.71,-0.59,-1.22,0.06,0.31,1.07,
0.394,0.71,-0.59,-1.22,0.05,0.31,1.07,
0.394,0.73,-0.59,-1.51,0.05,0.31,1.07,
0.395,0.73,-0.59,-1.51,0.03,0.31,1.07,
0.395,0.73,-0.59,-1.51,0.02,0.30,1.07,
0.395,0.73,-0.59,-1.51,-0.00,0.30,1.08,
0.396,0.73,-0.59,-1.51,-0.02,0.29,1.08,
0.401,0.73,-0.59,-1.51,-0.03,0.29,1.09,
0.401,0.43,-0.40,-1.60,-0.03,0.29,1.09,
0.402,0.43,-0.40,-1.60,-0.04,0.29,1.09,
0.407,0.43,-0.40,-1.60,-0.06,0.28,1.10,
0.408,0.43,-0.40,-1.60,-0.08,0.27,1.11,
0.408,0.43,-0.40,-1.60,-0.09,0.25,1.13,
0.408,0.43,-0.40,-1.60,-0.11,0.23,1.15,
0.409,-0.06,0.05,-1.70,-0.11,0.23,1.15,
0.409,-0.06,0.05,-1.70,-0.12,0.20,1.17,
0.409,-0.06,0.05,-1.70,-0.14,0.17,1.19,
0.413,-0.06,0.05,-1.70,-0.15,0.14,1.21,
0.418,-0.06,0.05,-1.70,-0.17,0.11,1.23,
0.419,-0.06,0.05,-1.70,-0.19,0.08,1.25,
0.419,-0.22,0.28,-1.81,-0.19,0.08,1.25,
0.42,-0.22,0.28,-1.81,-0.21,0.04,1.27,
0.421,-0.22,0.28,-1.81,-0.23,-0.01,1.29,
0.423,-0.22,0.28,-1.81,-0.25,-0.06,1.31,
0.45,-0.22,0.28,-1.81,-0.27,-0.11,1.33,
0.45,-0.22,0.28,-1.81,-0.29,-0.16,1.34,
0.451,-0.09,0.11,-1.76,-0.29,-0.16,1.34,
0.451,-0.09,0.11,-1.76,-0.31,-0.21,1.36,
0.452,-0.09,0.11,-1.76,-0.34,-0.25,1.38,
0.452,-0.09,0.11,-1.76,-0.36,-0.29,1.40,
0.452,-0.09,0.11,-1.76,-0.38,-0.32,1.43,
0.453,-0.09,0.11,-1.76,-0.41,-0.35,1.46,
0.453,-0.24,-0.04,-1.67,-0.41,-0.35,1.46,
0.453,-0.24,-0.04,-1.67,-0.43,-0.38,1.48,
0.454,-0.24,-0.04,-1.67,-0.46,-0.42,1.52,
0.454,-0.24,-0.04,-1.67,-0.48,-0.46,1.55,
0.454,-0.24,-0.04,-1.67,-0.51,-0.50,1.58,
0.455,-0.24,-0.04,-1.67,-0.53,-0.52,1.61,
0.455,-0.27,-0.05,-1.28,-0.53,-0.52,1.61,
0.455,-0.27,-0.05,-1.28,-0.54,-0.51,1.64,
0.455,-0.27,-0.05,-1.28,-0.53,-0.45,1.67,
0.456,-0.27,-0.05,-1.28,-0.51,-0.34,1.70,
0.456,-0.27,-0.05,-1.28,-0.49,-0.20,1.72,
0.456,-0.27,-0.05,-1.28,-0.47,-0.07,1.75,
0.467,-0.53,0.11,-0.70,-0.47,-0.07,1.75,
0.467,-0.53,0.11,-0.70,-0.45,0.04,1.78,
0.468,-0.53,0.11,-0.70,-0.43,0.13,1.81,
0.468,-0.53,0.11,-0.70,-0.41,0.19,1.84,
0.468,-0.53,0.11,-0.70,-0.40,0.24,1.86,
0.468,-0.53,0.11,-0.70,-0.38,0.30,1.89,
0.469,-0.48,-0.24,-0.54,-0.38,0.30,1.89,
0.469,-0.48,-0.24,-0.54,-0.37,0.36,1.91,
0.472,-0.48,-0.24,-0.54,-0.36,0.42,1.93,
0.472,-0.48,-0.24,-0.54,-0.34,0.47,1.95,
0.484,-0.48,-0.24,-0.54,-0.33,0.52,1.96,
0.485,-0.48,-0.24,-0.54,-0.31,0.55,1.98,
0.485,0.16,-0.45,-0.25,-0.31,0.55,1.98,
0.485,0.16,-0.45,-0.25,-0.30,0.59,1.99,
0.486,0.16,-0.45,-0.25,-0.28,0.61,2.00,
0.486,0.16,-0.45,-0.25,-0.27,0.64,2.00,
0.486,0.16,-0.45,-0.25,-0.25,0.67,2.00,
0.486,0.16,-0.45,-0.25,-0.24,0.69,2.00,
0.506,0.61,-0.25,-0.23,-0.24,0.69,2.00,
0.507,0.61,-0.25,-0.23,-0.23,0.72,2.00,
0.507,0.61,-0.25,-0.23,-0.22,0.74,2.00,
0.507,0.61,-0.25,-0.23,-0.20,0.81,1.97,
0.507,0.61,-0.25,-0.23,-0.20,0.81,1.97,
0.508,0.61,-0.25,-0.23,-0.20,0.81,1.97,
0.508,0.61,-0.25,-0.23,-0.21,0.83,1.94,
0.508,1.13,0.09,-0.61,-0.21,0.83,1.94,
0.508,1.13,0.09,-0.61,-0.22,0.84,1.93,
0.509,1.13,0.09,-0.61,-0.25,0.87,1.88,
0.509,1.13,0.09,-0.61,-0.26,0.88,1.86,
0.509,1.13,0.09,-0.61,-0.29,0.91,1.82,
0.509,2.10,0.33,-1.41,-0.29,0.91,1.82,
0.51,2.10,0.33,-1.41,-0.32,0.95,1.78,
0.51,2.10,0.33,-1.41,-0.35,0.99,1.74,
0.512,2.10,0.33,-1.41,-0.39,1.03,1.70,
0.514,2.10,0.33,-1.41,-0.43,1.07,1.67,
0.515,2.10,0.33,-1.41,-0.47,1.10,1.65,
0.518,1.91,0.29,-1.82,-0.47,1.10,1.65,
0.518,1.91,0.29,-1.82,-0.50,1.14,1.63,
0.522,1.91,0.29,-1.82,-0.55,1.17,1.61,
0.522,1.91,0.29,-1.82,-0.59,1.20,1.60,
0.523,1.91,0.29,-1.82,-0.63,1.23,1.59,
0.525,1.91,0.29,-1.82,-0.67,1.26,1.58,
0.528,1.23,0.48,-1.81,-0.67,1.26,1.58,
0.528,1.23,0.48,-1.81,-0.70,1.29,1.57,
0.53,1.23,0.48,-1.81,-0.74,1.32,1.56,
0.532,1.23,0.48,-1.81,-0.77,1.34,1.55,
0.533,1.23,0.48,-1.81,-0.79,1.35,1.54,
0.544,1.23,0.48,-1.81,-0.81,1.36,1.53,
0.544,0.87,0.78,-1.55,-0.81,1.36,1.53,
0.545,0.87,0.78,-1.55,-0.83,1.37,1.52,
0.545,0.87,0.78,-1.55,-0.85,1.37,1.51,
0.545,0.87,0.78,-1.55,-0.87,1.38,1.49,
0.545,0.87,0.78,-1.55,-0.89,1.38,1.47,
0.546,0.87,0.78,-1.55,-0.90,1.37,1.45,
0.547,0.72,0.75,-1.24,-0.90,1.37,1.45,
0.548,0.72,0.75,-1.24,-0.91,1.36,1.43,
0.55,0.72,0.75,-1.24,-0.91,1.36,1.41,
0.563,0.72,0.75,-1.24,-0.91,1.34,1.39,
0.563,0.72,0.75,-1.24,-0.91,1.33,1.37,
0.564,0.72,0.75,-1.24,-0.90,1.32,1.35,
0.564,0.62,0.78,-0.71,-0.90,1.32,1.35,
0.564,0.62,0.78,-0.71,-0.89,1.31,1.33,
0.564,0.62,0.78,-0.71,-0.87,1.30,1.32,
0.564,0.62,0.78,-0.71,-0.85,1.29,1.30,
0.564,0.62,0.78,-0.71,-0.83,1.27,1.28,
0.569,0.62,0.78,-0.71,-0.80,1.26,1.27,
0.569,0.46,0.77,-0.13,-0.80,1.26,1.27,
0.57,0.46,0.77,-0.13,-0.78,1.25,1.26,
0.57,0.46,0.77,-0.13,-0.75,1.23,1.25,
0.573,0.46,0.77,-0.13,-0.72,1.22,1.23,
0.573,0.46,0.77,-0.13,-0.69,1.19,1.22,
0.577,0.46,0.77,-0.13,-0.65,1.17,1.21,
0.578,0.19,0.65,0.22,-0.65,1.17,1.21,
0.578,0.19,0.65,0.22,-0.62,1.14,1.20,
0.579,0.19,0.65,0.22,-0.59,1.11,1.19,
0.581,0.19,0.65,0.22,-0.55,1.08,1.17,
0.583,0.19,0.65,0.22,-0.52,1.04,1.16,
0.586,0.19,0.65,0.22,-0.49,1.01,1.15,
0.588,-0.03,0.55,0.27,-0.49,1.01,1.15,
0.588,-0.03,0.55,0.27,-0.45,0.97,1.13,
0.603,-0.03,0.55,0.27,-0.42,0.94,1.12,
0.603,-0.03,0.55,0.27,-0.38,0.90,1.11,
0.603,-0.03,0.55,0.27,-0.35,0.87,1.10,
0.604,-0.03,0.55,0.27,-0.32,0.84,1.09,
0.604,-0.21,0.58,0.31,-0.32,0.84,1.09,
0.604,-0.21,0.58,0.31,-0.28,0.81,1.08,
0.604,-0.21,0.58,0.31,-0.25,0.78,1.08,
0.604,-0.21,0.58,0.31,-0.23,0.75,1.08,
0.604,-0.21,0.58,0.31,-0.20,0.73,1.07,
0.607,-0.21,0.58,0.31,-0.18,0.71,1.08,
0.608,-0.41,0.59,0.29,-0.18,0.71,1.08,
0.609,-0.41,0.59,0.29,-0.15,0.68,1.08,
0.609,-0.41,0.59,0.29,-0.13,0.67,1.08,
0.611,-0.41,0.59,0.29,-0.12,0.65,1.09,
0.614,-0.41,0.59,0.29,-0.10,0.63,1.09,
0.615,-0.41,0.59,0.29,-0.09,0.61,1.09,
0.618,-0.61,0.59,0.20,-0.09,0.61,1.09,
0.618,-0.61,0.59,0.20,-0.08,0.59,1.09,
0.619,-0.61,0.59,0.20,-0.07,0.58,1.09,
0.623,-0.61,0.59,0.20,-0.06,0.56,1.09,
0.623,-0.61,0.59,0.20,-0.05,0.55,1.09,
0.625,-0.61,0.59,0.20,-0.04,0.53,1.08,
0.629,-0.68,0.56,0.22,-0.04,0.53,1.08,
0.63,-0.68,0.56,0.22,-0.03,0.51,1.08,
0.63,-0.68,0.56,0.22,-0.03,0.49,1.07,
0.631,-0.68,0.56,0.22,-0.02,0.47,1.07,
0.634,-0.68,0.56,0.22,-0.02,0.44,1.06,
0.636,-0.68,0.56,0.22,-0.01,0.41,1.05,
0.639,-0.66,0.61,0.24,-0.01,0.41,1.05,
0.639,-0.66,0.61,0.24,-0.01,0.38,1.04,
0.639,-0.66,0.61,0.24,-0.01,0.34,1.03,
0.641,-0.66,0.61,0.24,-0.01,0.31,1.01,
0.643,-0.66,0.61,0.24,-0.01,0.27,1.00,
0.645,-0.66,0.61,0.24,-0.01,0.23,0.98,
0.648,-0.56,0.68,0.32,-0.01,0.23,0.98,
0.648,-0.56,0.68,0.32,-0.02,0.20,0.97,
0.649,-0.56,0.68,0.32,-0.01,0.16,0.95,
0.652,-0.56,0.68,0.32,-0.01,0.13,0.94,
0.654,-0.56,0.68,0.32,-0.01,0.11,0.94,
0.656,-0.56,0.68,0.32,-0.01,0.08,0.93,
0.658,-0.64,0.58,0.55,-0.01,0.08,0.93,
0.658,-0.64,0.58,0.55,-0.01,0.06,0.93,
0.66,-0.64,0.58,0.55,-0.01,0.05,0.93,
0.664,-0.64,0.58,0.55,-0.01,0.03,0.93,
0.665,-0.64,0.58,0.55,-0.01,0.02,0.93,
0.666,-0.64,0.58,0.55,-0.02,0.02,0.94,
0.672,-0.87,0.38,0.82,-0.02,0.02,0.94,
0.673,-0.87,0.38,0.82,-0.02,0.01,0.95,
0.674,-0.87,0.38,0.82,-0.02,0.01,0.96,
0.675,-0.87,0.38,0.82,-0.02,0.01,0.98,
0.68,-0.87,0.38,0.82,-0.02,0.02,0.99,
0.689,-0.87,0.38,0.82,-0.02,0.02,1.00,
0.689,-1.00,0.18,1.23,-0.02,0.02,1.00,
0.689,-1.00,0.18,1.23,-0.02,0.03,1.02,
0.689,-1.00,0.18,1.23,-0.02,0.04,1.04,
0.69,-1.00,0.18,1.23,-0.01,0.06,1.06,
0.69,-1.00,0.18,1.23,-0.01,0.08,1.08,
0.696,-1.00,0.18,1.23,-0.00,0.09,1.10,
0.697,-1.05,-0.01,1.72,-0.00,0.09,1.10,
0.697,-1.05,-0.01,1.72,0.01,0.11,1.12,
0.697,-1.05,-0.01,1.72,0.02,0.13,1.14,
0.697,-1.05,-0.01,1.72,0.03,0.16,1.16,
0.697,-1.05,-0.01,1.72,0.05,0.18,1.19,
0.698,-1.05,-0.01,1.72,0.06,0.20,1.20,
0.698,-1.02,-0.11,2.22,0.06,0.20,1.20,
0.698,-1.02,-0.11,2.22,0.08,0.22,1.22,
0.716,-1.02,-0.11,2.22,0.10,0.24,1.24,
0.717,-1.02,-0.11,2.22,0.12,0.27,1.25,
0.717,-1.02,-0.11,2.22,0.14,0.29,1.26,
0.717,-1.02,-0.11,2.22,0.17,0.32,1.28,
0.717,-0.85,-0.14,2.65,0.17,0.32,1.28,
0.718,-0.85,-0.14,2.65,0.20,0.34,1.29,
0.718,-0.85,-0.14,2.65,0.23,0.36,1.30,
0.718,-0.85,-0.14,2.65,0.25,0.38,1.31,
0.718,-0.85,-0.14,2.65,0.28,0.40,1.32,
0.718,-0.85,-0.14,2.65,0.31,0.42,1.33,
0.718,-0.69,-0.20,2.76,0.31,0.42,1.33,
0.72,-0.69,-0.20,2.76,0.34,0.43,1.33,
0.728,-0.69,-0.20,2.76,0.36,0.44,1.34,
0.729,-0.69,-0.20,2.76,0.39,0.46,1.34,
0.73,-0.69,-0.20,2.76,0.41,0.47,1.35,
0.73,-0.69,-0.20,2.76,0.44,0.48,1.35,
0.732,-0.60,-0.14,2.39,0.44,0.48,1.35,
0.732,-0.60,-0.14,2.39,0.46,0.49,1.35,
0.732,-0.60,-0.14,2.39,0.47,0.50,1.35,
0.732,-0.60,-0.14,2.39,0.49,0.51,1.36,
0.735,-0.60,-0.14,2.39,0.50,0.51,1.36,
0.737,-0.60,-0.14,2.39,0.51,0.52,1.36,
0.74,-0.61,-0.08,1.73,0.51,0.52,1.36,
0.74,-0.61,-0.08,1.73,0.52,0.52,1.36,
0.74,-0.61,-0.08,1.73,0.53,0.51,1.36,
0.742,-0.61,-0.08,1.73,0.53,0.51,1.35,
0.744,-0.61,-0.08,1.73,0.53,0.50,1.35,
0.745,-0.61,-0.08,1.73,0.53,0.49,1.35,
0.748,-0.50,0.04,0.99,0.53,0.49,1.35,
0.748,-0.50,0.04,0.99,0.53,0.47,1.34,
0.749,-0.50,0.04,0.99,0.53,0.46,1.34,
0.752,-0.50,0.04,0.99,0.52,0.44,1.33,
0.753,-0.50,0.04,0.99,0.51,0.42,1.32,
0.755,-0.50,0.04,0.99,0.51,0.39,1.32,
0.774,-0.42,0.12,0.45,0.51,0.39,1.32,
0.774,-0.42,0.12,0.45,0.50,0.37,1.31,
0.774,-0.42,0.12,0.45,0.49,0.35,1.31,
0.774,-0.42,0.12,0.45,0.48,0.33,1.30,
0.775,-0.42,0.12,0.45,0.47,0.31,1.29,
0.775,-0.42,0.12,0.45,0.45,0.28,1.29,
0.775,-0.39,0.17,0.06,0.45,0.28,1.29,
0.775,-0.39,0.17,0.06,0.44,0.26,1.28,
0.775,-0.39,0.17,0.06,0.43,0.24,1.28,
0.776,-0.39,0.17,0.06,0.42,0.22,1.27,
0.776,-0.39,0.17,0.06,0.41,0.21,1.26,
0.776,-0.39,0.17,0.06,0.39,0.21,1.26,
0.78,-0.43,0.14,0.09,0.39,0.21,1.26,
0.78,-0.43,0.14,0.09,0.39,0.20,1.25,
0.781,-0.43,0.14,0.09,0.37,0.20,1.25,
0.782,-0.43,0.14,0.09,0.37,0.20,1.25,
0.783,-0.43,0.14,0.09,0.35,0.21,1.25,
0.786,-0.43,0.14,0.09,0.34,0.21,1.25,
0.789,-0.51,-0.02,0.26,0.34,0.21,1.25,
0.789,-0.51,-0.02,0.26,0.33,0.22,1.25,
0.789,-0.51,-0.02,0.26,0.32,0.24,1.26,
0.791,-0.51,-0.02,0.26,0.31,0.25,1.26,
0.795,-0.51,-0.02,0.26,0.29,0.27,1.27,
0.797,-0.51,-0.02,0.26,0.27,0.29,1.27,
0.798,-0.74,-0.18,0.36,0.27,0.29,1.27,
0.798,-0.74,-0.18,0.36,0.26,0.31,1.28,
0.799,-0.74,-0.18,0.36,0.24,0.33,1.28,
0.802,-0.74,-0.18,0.36,0.22,0.35,1.29,
0.803,-0.74,-0.18,0.36,0.20,0.37,1.29,
0.805,-0.74,-0.18,0.36,0.18,0.39,1.30,
0.808,-0.85,-0.31,0.25,0.18,0.39,1.30,
0.808,-0.85,-0.31,0.25,0.15,0.42,1.31,
0.809,-0.85,-0.31,0.25,0.13,0.44,1.31,
0.812,-0.85,-0.31,0.25,0.11,0.46,1.32,
0.813,-0.85,-0.31,0.25,0.08,0.49,1.33,
0.816,-0.85,-0.31,0.25,0.06,0.52,1.34,
0.828,-1.05,-0.56,0.31,0.06,0.52,1.34,
0.828,-1.05,-0.56,0.31,0.04,0.54,1.35,
0.828,-1.05,-0.56,0.31,0.02,0.56,1.36,
0.828,-1.05,-0.56,0.31,-0.00,0.58,1.37,
0.828,-1.05,-0.56,0.31,-0.02,0.60,1.38,
0.829,-1.05,-0.56,0.31,-0.04,0.62,1.40,
0.829,-1.29,-0.83,0.55,-0.04,0.62,1.40,
0.829,-1.29,-0.83,0.55,-0.06,0.63,1.41,
0.831,-1.29,-0.83,0.55,-0.07,0.63,1.43,
0.832,-1.29,-0.83,0.55,-0.09,0.63,1.45,
0.842,-1.29,-0.83,0.55,-0.10,0.63,1.46,
0.843,-1.29,-0.83,0.55,-0.11,0.62,1.47,
0.843,-1.51,-1.06,0.86,-0.11,0.62,1.47,
0.843,-1.51,-1.06,0.86,-0.12,0.61,1.49,
0.843,-1.51,-1.06,0.86,-0.13,0.60,1.50,
0.843,-1.51,-1.06,0.86,-0.13,0.59,1.52,
0.843,-1.51,-1.06,0.86,-0.14,0.57,1.53,
0.846,-1.51,-1.06,0.86,-0.14,0.54,1.54,
0.849,-1.48,-1.13,1.29,-0.14,0.54,1.54,
0.849,-1.48,-1.13,1.29,-0.13,0.52,1.55,
0.849,-1.48,-1.13,1.29,-0.12,0.49,1.56,
0.851,-1.48,-1.13,1.29,-0.11,0.45,1.57,
0.853,-1.48,-1.13,1.29,-0.10,0.44,1.58,
0.855,-1.48,-1.13,1.29,-0.09,0.42,1.59,
0.858,-1.48,-1.31,1.71,-0.09,0.42,1.59,
0.858,-1.48,-1.31,1.71,-0.07,0.40,1.60,
0.859,-1.48,-1.31,1.71,-0.05,0.39,1.61,
0.861,-1.48,-1.31,1.71,-0.02,0.38,1.62,
0.863,-1.48,-1.31,1.71,0.01,0.37,1.63,
0.865,-1.48,-1.31,1.71,0.03,0.37,1.65,
0.868,-1.59,-1.41,2.13,0.03,0.37,1.65,
0.868,-1.59,-1.41,2.13,0.06,0.38,1.66,
0.869,-1.59,-1.41,2.13,0.10,0.38,1.68,
0.871,-1.59,-1.41,2.13,0.13,0.39,1.70,
0.873,-1.59,-1.41,2.13,0.16,0.40,1.72,
0.875,-1.59,-1.41,2.13,0.19,0.40,1.74,
0.878,-1.76,-1.71,2.18,0.19,0.40,1.74,
0.878,-1.76,-1.71,2.18,0.23,0.41,1.76,
0.879,-1.76,-1.71,2.18,0.27,0.42,1.79,
0.882,-1.76,-1.71,2.18,0.30,0.42,1.81,
0.883,-1.76,-1.71,2.18,0.32,0.42,1.82,
0.885,-1.76,-1.71,2.18,0.34,0.44,1.84,
0.888,-1.88,-1.87,1.75,0.34,0.44,1.84,
0.889,-1.88,-1.87,1.75,0.36,0.45,1.86,
0.889,-1.88,-1.87,1.75,0.38,0.46,1.89,
0.891,-1.88,-1.87,1.75,0.40,0.47,1.91,
0.893,-1.88,-1.87,1.75,0.41,0.48,1.94,
0.895,-1.88,-1.87,1.75,0.42,0.49,1.96,
0.898,-2.13,-1.90,0.97,0.42,0.49,1.96,
0.898,-2.13,-1.90,0.97,0.42,0.49,1.99,
0.899,-2.13,-1.90,0.97,0.42,0.49,2.01,
0.901,-2.13,-1.90,0.97,0.42,0.49,2.04,
0.903,-2.13,-1.90,0.97,0.41,0.49,2.05,
0.905,-2.13,-1.90,0.97,0.40,0.49,2.07,
0.907,-2.03,-1.74,0.13,0.40,0.49,2.07,
0.908,-2.03,-1.74,0.13,0.39,0.49,2.09,
0.909,-2.03,-1.74,0.13,0.38,0.49,2.11,
0.912,-2.03,-1.74,0.13,0.36,0.49,2.12,
0.913,-2.03,-1.74,0.13,0.34,0.50,2.14,
0.915,-2.03,-1.74,0.13,0.33,0.50,2.15,
0.917,-1.86,-1.66,-0.43,0.33,0.50,2.15,
0.918,-1.86,-1.66,-0.43,0.30,0.49,2.17,
0.919,-1.86,-1.66,-0.43,0.28,0.49,2.18,
0.923,-1.86,-1.66,-0.43,0.26,0.49,2.19,
0.932,-1.86,-1.66,-0.43,0.23,0.49,2.20,
0.933,-1.86,-1.66,-0.43,0.20,0.49,2.21,
0.933,-1.57,-1.54,-0.70,0.20,0.49,2.21,
0.933,-1.57,-1.54,-0.70,0.17,0.48,2.21,
0.933,-1.57,-1.54,-0.70,0.15,0.48,2.22,
0.933,-1.57,-1.54,-0.70,0.12,0.47,2.22,
0.933,-1.57,-1.54,-0.70,0.10,0.46,2.23,
0.935,-1.57,-1.54,-0.70,0.08,0.45,2.23,
0.937,-1.36,-1.47,-0.49,0.08,0.45,2.23,
0.937,-1.36,-1.47,-0.49,0.05,0.44,2.23,
0.939,-1.36,-1.47,-0.49,0.03,0.42,2.23,
0.941,-1.36,-1.47,-0.49,0.01,0.40,2.23,
0.943,-1.36,-1.47,-0.49,-0.00,0.38,2.23,
0.945,-1.36,-1.47,-0.49,-0.02,0.36,2.23,
0.947,-1.19,-1.39,-0.00,-0.02,0.36,2.23,
0.948,-1.19,-1.39,-0.00,-0.03,0.33,2.22,
0.949,-1.19,-1.39,-0.00,-0.05,0.30,2.22,
0.953,-1.19,-1.39,-0.00,-0.06,0.24,2.21,
0.954,-1.19,-1.39,-0.00,-0.06,0.23,2.21,
0.959,-1.19,-1.39,-0.00,-0.07,0.19,2.21,
0.96,-1.13,-1.45,0.79,-0.07,0.19,2.21,
0.96,-1.13,-1.45,0.79,-0.07,0.15,2.21,
0.96,-1.13,-1.45,0.79,-0.06,0.12,2.20,
0.962,-1.13,-1.45,0.79,-0.06,0.08,2.20,
0.963,-1.13,-1.45,0.79,-0.05,0.05,2.20,
0.965,-1.13,-1.45,0.79,-0.04,0.02,2.20,
0.983,-1.11,-1.51,1.69,-0.04,0.02,2.20,
0.983,-1.11,-1.51,1.69,-0.03,-0.02,2.20,
0.983,-1.11,-1.51,1.69,-0.01,-0.04,2.21,
0.984,-1.11,-1.51,1.69,0.01,-0.07,2.21,
0.984,-1.11,-1.51,1.69,0.03,-0.10,2.22,
0.984,-1.11,-1.51,1.69,0.06,-0.12,2.23,
0.984,-1.26,-1.66,2.67,0.06,-0.12,2.23,
0.984,-1.26,-1.66,2.67,0.09,-0.13,2.24,
0.985,-1.26,-1.66,2.67,0.13,-0.15,2.26,
0.985,-1.26,-1.66,2.67,0.17,-0.17,2.27,
0.985,-1.26,-1.66,2.67,0.19,-0.18,2.28,
0.987,-1.26,-1.66,2.67,0.23,-0.20,2.29,
0.988,-1.25,-1.67,3.45,0.23,-0.20,2.29,
0.988,-1.25,-1.67,3.45,0.27,-0.22,2.30,
0.989,-1.25,-1.67,3.45,0.32,-0.24,2.31,
0.992,-1.25,-1.67,3.45,0.36,-0.25,2.31,
0.993,-1.25,-1.67,3.45,0.41,-0.25,2.31,
0.997,-1.25,-1.67,3.45,0.46,-0.25,2.32,
0.998,-0.98,-1.83,3.86,0.46,-0.25,2.32,
0.998,-0.98,-1.83,3.86,0.51,-0.25,2.32,
1.0,-0.98,-1.83,3.86,0.56,-0.26,2.32,
1.001,-0.98,-1.83,3.86,0.61,-0.26,2.32,
1.003,-0.98,-1.83,3.86,0.65,-0.27,2.32,
1.006,-0.98,-1.83,3.86,0.70,-0.27,2.32,
1.008,-0.62,-1.81,3.69,0.70,-0.27,2.32,
1.008,-0.62,-1.81,3.69,0.74,-0.26,2.31,
1.009,-0.62,-1.81,3.69,0.78,-0.26,2.31,
1.011,-0.62,-1.81,3.69,0.82,-0.25,2.30,
1.013,-0.62,-1.81,3.69,0.85,-0.24,2.29,
1.015,-0.62,-1.81,3.69,0.88,-0.23,2.29,
1.019,-0.40,-1.78,3.05,0.88,-0.23,2.29,
1.019,-0.40,-1.78,3.05,0.91,-0.21,2.28,
1.02,-0.40,-1.78,3.05,0.93,-0.20,2.27,
1.021,-0.40,-1.78,3.05,0.95,-0.18,2.27,
1.023,-0.40,-1.78,3.05,0.97,-0.17,2.26,
1.026,-0.40,-1.78,3.05,0.98,-0.15,2.26,
1.028,-0.30,-1.72,2.09,0.98,-0.15,2.26,
1.028,-0.30,-1.72,2.09,0.99,-0.13,2.26,
1.029,-0.30,-1.72,2.09,1.00,-0.11,2.26,
1.031,-0.30,-1.72,2.09,1.00,-0.10,2.26,
1.037,-0.30,-1.72,2.09,0.99,-0.08,2.25,
1.038,-0.30,-1.72,2.09,0.99,-0.06,2.25,
1.038,-0.30,-1.78,1.07,0.99,-0.06,2.25,
1.039,-0.30,-1.78,1.07,0.98,-0.04,2.25,
1.039,-0.30,-1.78,1.07,0.97,-0.03,2.25,
1.041,-0.30,-1.78,1.07,0.95,-0.01,2.24,
1.043,-0.30,-1.78,1.07,0.93,0.00,2.23,
1.045,-0.30,-1.78,1.07,0.91,0.02,2.23,
1.048,-0.21,-1.70,0.23,0.91,0.02,2.23,
1.049,-0.21,-1.70,0.23,0.90,0.03,2.22,
1.049,-0.21,-1.70,0.23,0.88,0.05,2.21,
1.052,-0.21,-1.70,0.23,0.85,0.06,2.19,
1.053,-0.21,-1.70,0.23,0.84,0.07,2.19,
1.055,-0.21,-1.70,0.23,0.82,0.08,2.18,
1.058,-0.07,-1.67,-0.24,0.82,0.08,2.18,
1.058,-0.07,-1.67,-0.24,0.80,0.09,2.16,
1.059,-0.07,-1.67,-0.24,0.78,0.10,2.15,
1.061,-0.07,-1.67,-0.24,0.75,0.11,2.12,
1.064,-0.07,-1.67,-0.24,0.74,0.11,2.11,
1.065,-0.07,-1.67,-0.24,0.72,0.12,2.09,
1.068,0.00,-1.63,-0.52,0.72,0.12,2.09,
1.068,0.00,-1.63,-0.52,0.71,0.13,2.08,
1.07,0.00,-1.63,-0.52,0.69,0.14,2.06,
1.072,0.00,-1.63,-0.52,0.68,0.14,2.04,
1.073,0.00,-1.63,-0.52,0.67,0.15,2.02,
1.075,0.00,-1.63,-0.52,0.65,0.16,2.01,
1.078,-0.00,-1.69,-0.66,0.65,0.16,2.01,
1.078,-0.00,-1.69,-0.66,0.64,0.17,1.99,
1.079,-0.00,-1.69,-0.66,0.63,0.18,1.98,
1.081,-0.00,-1.69,-0.66,0.62,0.18,1.96,
1.092,-0.00,-1.69,-0.66,0.61,0.19,1.95,
1.092,-0.00,-1.69,-0.66,0.60,0.20,1.94,
1.093,-0.09,-1.63,-0.83,0.60,0.20,1.94,
1.093,-0.09,-1.63,-0.83,0.59,0.20,1.93,
1.115,-0.09,-1.63,-0.83,0.58,0.20,1.92,
1.116,-0.09,-1.63,-0.83,0.57,0.20,1.91,
1.116,-0.09,-1.63,-0.83,0.56,0.20,1.90,
1.116,-0.09,-1.63,-0.83,0.56,0.20,1.89,
1.117,-0.19,-1.57,-1.03,0.56,0.20,1.89,
1.117,-0.19,-1.57,-1.03,0.55,0.20,1.88,
1.118,-0.19,-1.57,-1.03,0.53,0.18,1.86,
1.118,-0.19,-1.57,-1.03,0.53,0.18,1.85,
1.118,-0.19,-1.57,-1.03,0.52,0.17,1.85,
1.118,-0.19,-1.57,-1.03,0.51,0.17,1.83,
1.119,-0.19,-1.51,-1.27,0.51,0.17,1.83,
1.119,-0.19,-1.51,-1.27,0.50,0.16,1.82,
1.119,-0.19,-1.51,-1.27,0.50,0.15,1.80,
1.119,-0.19,-1.51,-1.27,0.49,0.15,1.78,
1.119,-0.19,-1.51,-1.27,0.48,0.15,1.77,
1.12,-0.19,-1.51,-1.27,0.47,0.15,1.75,
1.12,-0.19,-1.39,-1.43,0.47,0.15,1.75,
1.12,-0.19,-1.39,-1.43,0.46,0.15,1.73,
1.12,-0.19,-1.39,-1.43,0.46,0.15,1.72,
1.125,-0.19,-1.39,-1.43,0.45,0.15,1.69,
1.125,-0.19,-1.39,-1.43,0.44,0.15,1.68,
1.126,-0.19,-1.39,-1.43,0.43,0.15,1.66,
1.128,-0.22,-1.27,-1.45,0.43,0.15,1.66,
1.128,-0.22,-1.27,-1.45,0.43,0.15,1.64,
1.129,-0.22,-1.27,-1.45,0.42,0.15,1.62,
1.131,-0.22,-1.27,-1.45,0.41,0.15,1.58,
1.145,-0.22,-1.27,-1.45,0.41,0.14,1.57,
1.145,-0.22,-1.27,-1.45,0.41,0.14,1.55,
1.145,-0.22,-1.16,-1.15,0.41,0.14,1.55,
1.146,-0.22,-1.16,-1.15,0.40,0.14,1.52,
1.146,-0.22,-1.16,-1.15,0.40,0.14,1.50,
1.146,-0.22,-1.16,-1.15,0.40,0.15,1.46,
1.146,-0.22,-1.16,-1.15,0.40,0.15,1.44,
1.147,-0.22,-1.16,-1.15,0.40,0.15,1.42,
1.148,-0.12,-1.10,-0.75,0.40,0.15,1.42,
1.148,-0.12,-1.10,-0.75,0.41,0.16,1.38,
1.16,-0.12,-1.10,-0.75,0.41,0.17,1.37,
1.161,-0.12,-1.10,-0.75,0.41,0.18,1.34,
1.161,-0.12,-1.10,-0.75,0.41,0.19,1.33,
1.161,-0.12,-1.10,-0.75,0.42,0.20,1.32,
1.162,-0.17,-1.29,-0.28,0.42,0.20,1.32,
1.162,-0.17,-1.29,-0.28,0.42,0.23,1.29,
1.162,-0.17,-1.29,-0.28,0.42,0.25,1.28,
1.162,-0.17,-1.29,-0.28,0.42,0.27,1.27,
1.163,-0.17,-1.29,-0.28,0.42,0.28,1.26,
1.169,-0.17,-1.29,-0.28,0.42,0.31,1.26,
1.17,-0.32,-1.37,-0.01,0.42,0.31,1.26,
1.17,-0.32,-1.37,-0.01,0.42,0.35,1.24,
1.17,-0.32,-1.37,-0.01,0.42,0.36,1.24,
1.171,-0.32,-1.37,-0.01,0.42,0.40,1.23,
1.173,-0.32,-1.37,-0.01,0.42,0.42,1.22,
1.176,-0.32,-1.37,-0.01,0.41,0.44,1.22,
1.178,-0.41,-1.41,0.02,0.41,0.44,1.22,
1.179,-0.41,-1.41,0.02,0.40,0.47,1.21,
1.179,-0.41,-1.41,0.02,0.39,0.49,1.20,
1.182,-0.41,-1.41,0.02,0.39,0.51,1.20,
1.184,-0.41,-1.41,0.02,0.37,0.53,1.19,
1.186,-0.41,-1.41,0.02,0.37,0.55,1.18,
1.188,-0.43,-1.42,-0.13,0.37,0.55,1.18,
1.189,-0.43,-1.42,-0.13,0.36,0.57,1.17,
1.19,-0.43,-1.42,-0.13,0.35,0.60,1.16,
1.192,-0.43,-1.42,-0.13,0.34,0.62,1.14,
1.193,-0.43,-1.42,-0.13,0.33,0.64,1.13,
1.195,-0.43,-1.42,-0.13,0.31,0.65,1.11,
1.198,-0.39,-1.46,-0.30,0.31,0.65,1.11,
1.198,-0.39,-1.46,-0.30,0.30,0.66,1.10,
1.2,-0.39,-1.46,-0.30,0.29,0.68,1.08,
1.203,-0.39,-1.46,-0.30,0.27,0.68,1.07,
1.203,-0.39,-1.46,-0.30,0.26,0.69,1.06,
1.205,-0.39,-1.46,-0.30,0.24,0.69,1.05,
1.208,-0.43,-1.34,-0.36,0.24,0.69,1.05,
1.211,-0.43,-1.34,-0.36,0.23,0.70,1.04,
1.212,-0.43,-1.34,-0.36,0.22,0.70,1.03,
1.212,-0.43,-1.34,-0.36,0.21,0.70,1.02,
1.214,-0.43,-1.34,-0.36,0.20,0.70,1.02,
1.215,-0.43,-1.34,-0.36,0.19,0.70,1.01,
1.218,-0.49,-1.29,-0.26,0.19,0.70,1.01,
1.219,-0.49,-1.29,-0.26,0.18,0.70,1.01,
1.219,-0.49,-1.29,-0.26,0.17,0.70,1.00,
1.222,-0.49,-1.29,-0.26,0.16,0.70,0.99,
1.223,-0.49,-1.29,-0.26,0.16,0.70,0.98,
1.225,-0.49,-1.29,-0.26,0.15,0.70,0.97,
1.228,-0.33,-1.28,-0.15,0.15,0.70,0.97,
1.228,-0.33,-1.28,-0.15,0.15,0.71,0.96,
1.23,-0.33,-1.28,-0.15,0.14,0.71,0.95,
1.238,-0.33,-1.28,-0.15,0.14,0.72,0.94,
1.238,-0.33,-1.28,-0.15,0.13,0.72,0.92,
1.238,-0.33,-1.28,-0.15,0.13,0.73,0.91,
1.239,-0.08,-1.20,-0.10,0.13,0.73,0.91,
1.239,-0.08,-1.20,-0.10,0.12,0.73,0.90,
1.239,-0.08,-1.20,-0.10,0.12,0.73,0.88,
1.241,-0.08,-1.20,-0.10,0.11,0.73,0.87,
1.249,-0.08,-1.20,-0.10,0.11,0.73,0.85,
1.256,-0.08,-1.20,-0.10,0.10,0.73,0.84,
1.256,0.10,-1.08,-0.14,0.10,0.73,0.84,
1.256,0.10,-1.08,-0.14,0.09,0.74,0.82,
1.257,0.10,-1.08,-0.14,0.08,0.74,0.80,
1.257,0.10,-1.08,-0.14,0.08,0.74,0.78,
1.257,0.10,-1.08,-0.14,0.07,0.74,0.77,
1.257,0.10,-1.08,-0.14,0.06,0.74,0.75,
1.272,0.13,-1.06,-0.23,0.06,0.74,0.75,
1.272,0.13,-1.06,-0.23,0.05,0.74,0.73,
1.273,0.13,-1.06,-0.23,0.04,0.74,0.72,
1.273,0.13,-1.06,-0.23,0.02,0.74,0.70,
1.273,0.13,-1.06,-0.23,0.01,0.75,0.69,
1.273,0.13,-1.06,-0.23,-0.00,0.76,0.67,
1.273,0.03,-1.08,-0.41,-0.00,0.76,0.67,
1.273,0.03,-1.08,-0.41,-0.02,0.77,0.66,
1.274,0.03,-1.08,-0.41,-0.04,0.78,0.65,
1.274,0.03,-1.08,-0.41,-0.06,0.79,0.64,
1.279,0.03,-1.08,-0.41,-0.09,0.80,0.63,
1.28,0.03,-1.08,-0.41,-0.11,0.82,0.62,
1.283,-0.16,-1.21,-0.72,-0.11,0.82,0.62,
1.283,-0.16,-1.21,-0.72,-0.14,0.83,0.61,
1.284,-0.16,-1.21,-0.72,-0.18,0.84,0.60,
1.286,-0.16,-1.21,-0.72,-0.22,0.85,0.60,
1.286,-0.16,-1.21,-0.72,-0.26,0.87,0.59,
1.287,-0.16,-1.21,-0.72,-0.30,0.88,0.59,
1.288,-0.52,-1.32,-1.19,-0.30,0.88,0.59,
1.288,-0.52,-1.32,-1.19,-0.34,0.90,0.59,
1.289,-0.52,-1.32,-1.19,-0.39,0.91,0.60,
1.291,-0.52,-1.32,-1.19,-0.44,0.93,0.60,
1.293,-0.52,-1.32,-1.19,-0.49,0.95,0.62,
1.295,-0.52,-1.32,-1.19,-0.53,0.97,0.64,
1.298,-0.94,-1.43,-1.46,-0.53,0.97,0.64,
1.298,-0.94,-1.43,-1.46,-0.58,0.98,0.65,
1.3,-0.94,-1.43,-1.46,-0.63,0.98,0.68,
1.301,-0.94,-1.43,-1.46,-0.68,0.98,0.71,
1.303,-0.94,-1.43,-1.46,-0.72,0.98,0.74,
1.306,-0.94,-1.43,-1.46,-0.75,0.99,0.76,
1.308,-1.08,-1.36,-1.31,-0.75,0.99,0.76,
1.308,-1.08,-1.36,-1.31,-0.78,0.99,0.79,
1.31,-1.08,-1.36,-1.31,-0.81,1.00,0.81,
1.311,-1.08,-1.36,-1.31,-0.83,1.00,0.83,
1.314,-1.08,-1.36,-1.31,-0.85,1.00,0.85,
1.316,-1.08,-1.36,-1.31,-0.86,0.99,0.87,
1.318,-0.65,-1.26,-0.72,-0.86,0.99,0.87,
1.319,-0.65,-1.26,-0.72,-0.87,0.98,0.88,
1.319,-0.65,-1.26,-0.72,-0.87,0.96,0.89,
1.321,-0.65,-1.26,-0.72,-0.87,0.94,0.90,
1.323,-0.65,-1.26,-0.72,-0.87,0.92,0.90,
1.325,-0.65,-1.26,-0.72,-0.86,0.89,0.90,
1.328,0.06,-0.96,0.00,-0.86,0.89,0.90,
1.328,0.06,-0.96,0.00,-0.84,0.87,0.90,
1.33,0.06,-0.96,0.00,-0.83,0.86,0.90,
1.331,0.06,-0.96,0.00,-0.81,0.84,0.89,
1.333,0.06,-0.96,0.00,-0.79,0.81,0.88,
1.337,0.06,-0.96,0.00,-0.78,0.77,0.87,
1.338,0.63,-0.46,0.47,-0.78,0.77,0.87,
1.338,0.63,-0.46,0.47,-0.75,0.72,0.85,
1.344,0.63,-0.46,0.47,-0.73,0.68,0.83,
1.344,0.63,-0.46,0.47,-0.71,0.64,0.80,
1.345,0.63,-0.46,0.47,-0.68,0.61,0.77,
1.345,0.63,-0.46,0.47,-0.66,0.59,0.73,
1.348,1.47,-0.42,0.89,-0.66,0.59,0.73,
1.348,1.47,-0.42,0.89,-0.63,0.58,0.69,
1.35,1.47,-0.42,0.89,-0.61,0.56,0.65,
1.351,1.47,-0.42,0.89,-0.59,0.54,0.62,
1.353,1.47,-0.42,0.89,-0.56,0.52,0.57,
1.355,1.47,-0.42,0.89,-0.55,0.50,0.53,
1.358,2.01,-0.49,1.00,-0.55,0.50,0.53,
1.358,2.01,-0.49,1.00,-0.53,0.47,0.49,
1.361,2.01,-0.49,1.00,-0.51,0.45,0.44,
1.361,2.01,-0.49,1.00,-0.50,0.44,0.40,
1.364,2.01,-0.49,1.00,-0.48,0.43,0.37,
1.367,2.01,-0.49,1.00,-0.47,0.42,0.33,
1.368,2.01,-0.51,1.13,-0.47,0.42,0.33,
1.368,2.01,-0.51,1.13,-0.46,0.42,0.30,
1.369,2.01,-0.51,1.13,-0.45,0.41,0.27,
1.371,2.01,-0.51,1.13,-0.44,0.41,0.24,
1.373,2.01,-0.51,1.13,-0.44,0.41,0.22,
1.376,2.01,-0.51,1.13,-0.43,0.41,0.20,
1.378,1.69,-0.48,1.17,-0.43,0.41,0.20,
1.378,1.69,-0.48,1.17,-0.43,0.41,0.19,
1.379,1.69,-0.48,1.17,-0.43,0.41,0.18,
1.391,1.69,-0.48,1.17,-0.43,0.42,0.17,
1.392,1.69,-0.48,1.17,-0.44,0.42,0.17,
1.392,1.69,-0.48,1.17,-0.44,0.43,0.16,
1.392,1.25,-0.60,1.14,-0.44,0.43,0.16,
1.393,1.25,-0.60,1.14,-0.45,0.44,0.16,
1.393,1.25,-0.60,1.14,-0.46,0.45,0.16,
1.393,1.25,-0.60,1.14,-0.47,0.46,0.17,
1.393,1.25,-0.60,1.14,-0.47,0.48,0.17,
1.44,1.25,-0.60,1.14,-0.48,0.49,0.18,
1.44,0.98,-0.62,1.15,-0.48,0.49,0.18,
1.441,0.98,-0.62,1.15,-0.49,0.51,0.18,
1.441,0.98,-0.62,1.15,-0.50,0.52,0.19,
1.441,0.98,-0.62,1.15,-0.51,0.53,0.20,
1.442,0.98,-0.62,1.15,-0.52,0.54,0.21,
1.442,0.98,-0.62,1.15,-0.53,0.54,0.22,
1.442,0.97,-0.51,1.22,-0.53,0.54,0.22,
1.442,0.97,-0.51,1.22,-0.54,0.54,0.23,
1.443,0.97,-0.51,1.22,-0.55,0.53,0.24,
1.443,0.97,-0.51,1.22,-0.56,0.52,0.24,
1.443,0.97,-0.51,1.22,-0.57,0.51,0.25,
1.444,0.97,-0.51,1.22,-0.58,0.49,0.25,
1.444,1.28,-0.41,1.34,-0.58,0.49,0.25,
1.444,1.28,-0.41,1.34,-0.60,0.47,0.25,
1.445,1.28,-0.41,1.34,-0.61,0.44,0.25,
1.445,1.28,-0.41,1.34,-0.62,0.42,0.25,
1.47,1.28,-0.41,1.34,-0.63,0.38,0.24,
1.47,1.28,-0.41,1.34,-0.64,0.35,0.23,
1.471,1.72,-0.32,1.63,-0.64,0.35,0.23,
1.471,1.72,-0.32,1.63,-0.65,0.31,0.22,
1.471,1.72,-0.32,1.63,-0.66,0.28,0.21,
1.472,1.72,-0.32,1.63,-0.66,0.24,0.20,
1.472,1.72,-0.32,1.63,-0.66,0.21,0.18,
1.472,1.72,-0.32,1.63,-0.66,0.18,0.17,
1.472,2.11,-0.27,2.26,-0.66,0.18,0.17,
1.473,2.11,-0.27,2.26,-0.65,0.16,0.15,
1.473,2.11,-0.27,2.26,-0.64,0.13,0.14,
1.473,2.11,-0.27,2.26,-0.63,0.12,0.13,
1.473,2.11,-0.27,2.26,-0.62,0.11,0.12,
1.474,2.11,-0.27,2.26,-0.60,0.09,0.11,
1.474,2.12,-0.18,2.97,-0.60,0.09,0.11,
1.474,2.12,-0.18,2.97,-0.58,0.08,0.10,
1.474,2.12,-0.18,2.97,-0.56,0.07,0.09,
1.475,2.12,-0.18,2.97,-0.54,0.06,0.09,
1.475,2.12,-0.18,2.97,-0.52,0.06,0.09,
1.475,2.12,-0.18,2.97,-0.50,0.06,0.09,
1.475,2.02,-0.40,3.38,-0.50,0.06,0.09,
1.476,2.02,-0.40,3.38,-0.47,0.07,0.09,
1.476,2.02,-0.40,3.38,-0.44,0.07,0.09,
1.476,2.02,-0.40,3.38,-0.41,0.07,0.09,
1.477,2.02,-0.40,3.38,-0.38,0.08,0.10,
1.477,2.02,-0.40,3.38,-0.35,0.10,0.10,
1.477,1.85,-0.67,3.56,-0.35,0.10,0.10,
1.477,1.85,-0.67,3.56,-0.31,0.11,0.11,
1.478,1.85,-0.67,3.56,-0.27,0.13,0.12,
1.478,1.85,-0.67,3.56,-0.23,0.15,0.14,
1.478,1.85,-0.67,3.56,-0.19,0.17,0.15,
1.478,1.85,-0.67,3.56,-0.15,0.20,0.16,
1.479,1.71,-0.87,3.50,-0.15,0.20,0.16,
1.479,1.71,-0.87,3.50,-0.10,0.23,0.18,
1.488,1.71,-0.87,3.50,-0.06,0.25,0.20,
1.489,1.71,-0.87,3.50,-0.01,0.28,0.21,
1.489,1.71,-0.87,3.50,0.03,0.31,0.23,
1.49,1.71,-0.87,3.50,0.08,0.34,0.24,
1.49,1.66,-0.91,3.03,0.08,0.34,0.24,
1.49,1.66,-0.91,3.03,0.12,0.36,0.25,
1.491,1.66,-0.91,3.03,0.16,0.39,0.27,
1.496,1.66,-0.91,3.03,0.27,0.45,0.30,
1.496,1.66,-0.91,3.03,0.27,0.45,0.30,
1.497,1.66,-0.91,3.03,0.27,0.45,0.30,
1.503,1.66,-0.91,3.03,0.30,0.46,0.31,
1.504,1.78,-0.77,1.99,0.30,0.46,0.31,
1.504,1.78,-0.77,1.99,0.32,0.47,0.31,
1.505,1.78,-0.77,1.99,0.35,0.48,0.32,
1.505,1.78,-0.77,1.99,0.37,0.48,0.32,
1.505,1.78,-0.77,1.99,0.38,0.49,0.33,
1.508,1.79,-0.47,0.59,0.38,0.49,0.33,
1.508,1.79,-0.47,0.59,0.39,0.49,0.33,
1.509,1.79,-0.47,0.59,0.40,0.49,0.33,
1.511,1.79,-0.47,0.59,0.39,0.48,0.32,
1.513,1.79,-0.47,0.59,0.39,0.47,0.32,
1.525,1.79,-0.47,0.59,0.39,0.46,0.31,
1.525,1.93,-0.23,-0.76,0.39,0.46,0.31,
1.526,1.93,-0.23,-0.76,0.38,0.44,0.31,
1.526,1.93,-0.23,-0.76,0.36,0.43,0.30,
1.526,1.93,-0.23,-0.76,0.34,0.40,0.29,
1.529,1.93,-0.23,-0.76,0.32,0.38,0.28,
1.53,1.93,-0.23,-0.76,0.30,0.36,0.27,
1.53,1.89,-0.03,-1.89,0.30,0.36,0.27,
1.53,1.89,-0.03,-1.89,0.27,0.33,0.25,
1.561,1.89,-0.03,-1.89,0.24,0.29,0.24,
1.562,1.89,-0.03,-1.89,0.22,0.26,0.23,
1.562,1.89,-0.03,-1.89,0.19,0.23,0.22,
1.562,1.89,-0.03,-1.89,0.15,0.19,0.20,
1.563,1.84,0.14,-2.56,0.15,0.19,0.20,
1.563,1.84,0.14,-2.56,0.11,0.15,0.19,
1.563,1.84,0.14,-2.56,0.08,0.12,0.18,
1.563,1.84,0.14,-2.56,0.04,0.08,0.17,
1.563,1.84,0.14,-2.56,-0.00,0.04,0.16,
1.563,1.84,0.14,-2.56,-0.04,0.01,0.14,
1.564,1.68,0.19,-2.80,-0.04,0.01,0.14,
1.564,1.68,0.19,-2.80,-0.08,-0.03,0.13,
1.564,1.68,0.19,-2.80,-0.12,-0.07,0.12,
1.564,1.68,0.19,-2.80,-0.16,-0.10,0.11,
1.564,1.68,0.19,-2.80,-0.20,-0.13,0.10,
1.565,1.68,0.19,-2.80,-0.23,-0.17,0.08,
1.565,1.60,0.17,-2.55,-0.23,-0.17,0.08,
1.565,1.60,0.17,-2.55,-0.27,-0.19,0.07,
1.565,1.60,0.17,-2.55,-0.30,-0.22,0.06,
1.565,1.60,0.17,-2.55,-0.33,-0.24,0.06,
1.566,1.60,0.17,-2.55,-0.36,-0.26,0.05,
1.566,1.60,0.17,-2.55,-0.38,-0.28,0.04,
1.573,1.39,0.06,-1.82,-0.38,-0.28,0.04,
1.573,1.39,0.06,-1.82,-0.40,-0.29,0.03,
1.574,1.39,0.06,-1.82,-0.42,-0.30,0.03,
1.574,1.39,0.06,-1.82,-0.44,-0.30,0.03,
1.574,1.39,0.06,-1.82,-0.45,-0.29,0.02,
1.577,1.39,0.06,-1.82,-0.47,-0.29,0.03,
1.578,1.21,-0.01,-0.89,-0.47,-0.29,0.03,
1.578,1.21,-0.01,-0.89,-0.47,-0.27,0.03,
1.579,1.21,-0.01,-0.89,-0.48,-0.26,0.03,
1.586,1.21,-0.01,-0.89,-0.49,-0.24,0.03,
1.586,1.21,-0.01,-0.89,-0.49,-0.21,0.04,
1.587,1.21,-0.01,-0.89,-0.50,-0.18,0.04,
1.589,1.00,-0.10,-0.17,-0.50,-0.18,0.04,
1.59,1.00,-0.10,-0.17,-0.50,-0.15,0.04,
1.601,1.00,-0.10,-0.17,-0.50,-0.12,0.05,
1.601,1.00,-0.10,-0.17,-0.50,-0.09,0.05,
1.601,1.00,-0.10,-0.17,-0.50,-0.05,0.06,
1.601,1.00,-0.10,-0.17,-0.49,-0.02,0.06,
1.601,0.83,-0.16,0.29,-0.49,-0.02,0.06,
1.602,0.83,-0.16,0.29,-0.49,0.01,0.07,
1.602,0.83,-0.16,0.29,-0.48,0.05,0.07,
1.602,0.83,-0.16,0.29,-0.47,0.08,0.08,
1.603,0.83,-0.16,0.29,-0.47,0.11,0.08,
1.606,0.83,-0.16,0.29,-0.46,0.15,0.09,
1.608,0.55,-0.09,0.46,-0.46,0.15,0.09,
1.608,0.55,-0.09,0.46,-0.45,0.17,0.10,
1.612,0.55,-0.09,0.46,-0.44,0.20,0.11,
1.613,0.55,-0.09,0.46,-0.44,0.22,0.11,
1.617,0.55,-0.09,0.46,-0.43,0.24,0.12,
1.618,0.55,-0.09,0.46,-0.42,0.26,0.13,
1.618,0.32,0.05,0.33,-0.42,0.26,0.13,
1.618,0.32,0.05,0.33,-0.41,0.27,0.13,
1.622,0.32,0.05,0.33,-0.41,0.29,0.14,
1.622,0.32,0.05,0.33,-0.40,0.30,0.15,
1.623,0.32,0.05,0.33,-0.39,0.31,0.15,
1.627,0.32,0.05,0.33,-0.38,0.32,0.15,
1.627,0.23,0.15,-0.00,-0.38,0.32,0.15,
1.627,0.23,0.15,-0.00,-0.38,0.33,0.16,
1.631,0.23,0.15,-0.00,-0.37,0.34,0.16,
1.636,0.23,0.15,-0.00,-0.37,0.34,0.16,
1.636,0.23,0.15,-0.00,-0.36,0.34,0.17,
1.636,0.23,0.15,-0.00,-0.35,0.34,0.17,
1.639,0.05,0.32,-0.42,-0.35,0.34,0.17,
1.639,0.05,0.32,-0.42,-0.35,0.34,0.17,
1.639,0.05,0.32,-0.42,-0.35,0.33,0.18,
1.643,0.05,0.32,-0.42,-0.34,0.33,0.18,
1.648,0.05,0.32,-0.42,-0.34,0.32,0.18,
1.649,0.05,0.32,-0.42,-0.34,0.31,0.19,
1.649,-0.16,0.45,-0.86,-0.34,0.31,0.19,
1.649,-0.16,0.45,-0.86,-0.33,0.30,0.19,
1.659,-0.16,0.45,-0.86,-0.33,0.29,0.19,
1.659,-0.16,0.45,-0.86,-0.33,0.28,0.20,
1.659,-0.16,0.45,-0.86,-0.33,0.26,0.20,
1.659,-0.16,0.45,-0.86,-0.33,0.25,0.20,
1.66,-0.38,0.58,-1.26,-0.33,0.25,0.20,
1.66,-0.38,0.58,-1.26,-0.33,0.24,0.21,
1.66,-0.38,0.58,-1.26,-0.33,0.23,0.21,
1.665,-0.38,0.58,-1.26,-0.33,0.22,0.22,
1.665,-0.38,0.58,-1.26,-0.33,0.21,0.22,
1.665,-0.38,0.58,-1.26,-0.33,0.21,0.23,
1.668,-0.56,0.67,-1.57,-0.33,0.21,0.23,
1.668,-0.56,0.67,-1.57,-0.33,0.20,0.23,
1.67,-0.56,0.67,-1.57,-0.33,0.19,0.24,
1.671,-0.56,0.67,-1.57,-0.33,0.19,0.25,
1.673,-0.56,0.67,-1.57,-0.33,0.18,0.26,
1.677,-0.56,0.67,-1.57,-0.33,0.17,0.27,
1.678,-0.74,0.75,-1.86,-0.33,0.17,0.27,
1.678,-0.74,0.75,-1.86,-0.34,0.16,0.28,
1.679,-0.74,0.75,-1.86,-0.34,0.15,0.29,
1.681,-0.74,0.75,-1.86,-0.34,0.14,0.30,
1.683,-0.74,0.75,-1.86,-0.35,0.12,0.31,
1.685,-0.74,0.75,-1.86,-0.35,0.11,0.32,
1.69,-0.77,0.83,-2.02,-0.35,0.11,0.32,
1.69,-0.77,0.83,-2.02,-0.35,0.10,0.33,
1.69,-0.77,0.83,-2.02,-0.36,0.09,0.33,
1.691,-0.77,0.83,-2.02,-0.36,0.08,0.34,
1.695,-0.77,0.83,-2.02,-0.36,0.07,0.35,
1.695,-0.77,0.83,-2.02,-0.37,0.06,0.35,
1.699,-0.75,0.98,-2.08,-0.37,0.06,0.35,
1.7,-0.75,0.98,-2.08,-0.37,0.05,0.36,
1.7,-0.75,0.98,-2.08,-0.37,0.03,0.36,
1.702,-0.75,0.98,-2.08,-0.38,0.02,0.37,
1.704,-0.75,0.98,-2.08,-0.38,0.00,0.37,
1.706,-0.75,0.98,-2.08,-0.38,-0.01,0.37,
1.708,-0.65,1.04,-2.05,-0.38,-0.01,0.37,
1.708,-0.65,1.04,-2.05,-0.39,-0.03,0.37,
1.709,-0.65,1.04,-2.05,-0.39,-0.05,0.38,
1.714,-0.65,1.04,-2.05,-0.40,-0.07,0.37,
1.715,-0.65,1.04,-2.05,-0.40,-0.09,0.38,
1.716,-0.65,1.04,-2.05,-0.41,-0.11,0.38,
1.718,-0.61,1.19,-2.02,-0.41,-0.11,0.38,
1.719,-0.61,1.19,-2.02,-0.42,-0.13,0.38,
1.72,-0.61,1.19,-2.02,-0.42,-0.15,0.38,
1.722,-0.61,1.19,-2.02,-0.43,-0.17,0.38,
1.724,-0.61,1.19,-2.02,-0.43,-0.19,0.37,
1.725,-0.61,1.19,-2.02,-0.44,-0.21,0.37,
1.729,-0.57,1.20,-1.90,-0.44,-0.21,0.37,
1.729,-0.57,1.20,-1.90,-0.45,-0.23,0.37,
1.73,-0.57,1.20,-1.90,-0.45,-0.25,0.37,
1.731,-0.57,1.20,-1.90,-0.46,-0.27,0.37,
1.733,-0.57,1.20,-1.90,-0.47,-0.29,0.37,
1.736,-0.57,1.20,-1.90,-0.48,-0.31,0.36,
1.738,-0.59,1.23,-1.69,-0.48,-0.31,0.36,
1.738,-0.59,1.23,-1.69,-0.48,-0.33,0.36,
1.74,-0.59,1.23,-1.69,-0.49,-0.34,0.36,
1.741,-0.59,1.23,-1.69,-0.49,-0.36,0.36,
1.743,-0.59,1.23,-1.69,-0.49,-0.37,0.36,
1.746,-0.59,1.23,-1.69,-0.50,-0.38,0.36,
1.749,-0.65,1.17,-1.35,-0.50,-0.38,0.36,
1.75,-0.65,1.17,-1.35,-0.50,-0.39,0.36,
1.751,-0.65,1.17,-1.35,-0.50,-0.39,0.36,
1.753,-0.65,1.17,-1.35,-0.50,-0.40,0.37,
1.755,-0.65,1.17,-1.35,-0.50,-0.41,0.37,
1.756,-0.65,1.17,-1.35,-0.50,-0.41,0.37,
1.783,-0.72,1.16,-1.06,-0.50,-0.41,0.37,
1.784,-0.72,1.16,-1.06,-0.50,-0.42,0.37,
1.784,-0.72,1.16,-1.06,-0.50,-0.42,0.38,
1.785,-0.72,1.16,-1.06,-0.50,-0.42,0.38,
1.785,-0.72,1.16,-1.06,-0.50,-0.42,0.38,
1.785,-0.72,1.16,-1.06,-0.50,-0.42,0.38,
1.786,-0.69,1.09,-0.74,-0.50,-0.42,0.38,
1.786,-0.69,1.09,-0.74,-0.50,-0.42,0.39,
1.786,-0.69,1.09,-0.74,-0.50,-0.42,0.39,
1.787,-0.69,1.09,-0.74,-0.50,-0.42,0.39,
1.787,-0.69,1.09,-0.74,-0.49,-0.41,0.39,
1.787,-0.69,1.09,-0.74,-0.49,-0.41,0.40,
1.787,-0.73,1.08,-0.45,-0.49,-0.41,0.40,
1.788,-0.73,1.08,-0.45,-0.48,-0.41,0.40,
1.788,-0.73,1.08,-0.45,-0.47,-0.41,0.40,
1.788,-0.73,1.08,-0.45,-0.47,-0.40,0.40,
1.788,-0.73,1.08,-0.45,-0.46,-0.40,0.41,
1.789,-0.73,1.08,-0.45,-0.45,-0.40,0.41,
1.789,-0.82,1.01,-0.17,-0.45,-0.40,0.41,
1.789,-0.82,1.01,-0.17,-0.45,-0.39,0.42,
1.789,-0.82,1.01,-0.17,-0.44,-0.39,0.42,
1.799,-0.82,1.01,-0.17,-0.43,-0.38,0.43,
1.8,-0.82,1.01,-0.17,-0.42,-0.38,0.43,
1.8,-0.82,1.01,-0.17,-0.42,-0.37,0.44,
1.8,-0.96,0.98,0.04,-0.42,-0.37,0.44,
1.8,-0.96,0.98,0.04,-0.41,-0.36,0.45,
1.801,-0.96,0.98,0.04,-0.40,-0.36,0.45,
1.804,-0.96,0.98,0.04,-0.39,-0.35,0.46,
1.804,-0.96,0.98,0.04,-0.38,-0.34,0.47,
1.808,-0.96,0.98,0.04,-0.37,-0.33,0.47,
1.809,-0.94,0.89,0.21,-0.37,-0.33,0.47,
1.809,-0.94,0.89,0.21,-0.36,-0.32,0.48,
1.809,-0.94,0.89,0.21,-0.35,-0.30,0.48,
1.814,-0.94,0.89,0.21,-0.34,-0.29,0.49,
1.814,-0.94,0.89,0.21,-0.32,-0.27,0.50,
1.825,-0.94,0.89,0.21,-0.31,-0.25,0.51,
1.826,-1.00,0.83,0.38,-0.31,-0.25,0.51,
1.826,-1.00,0.83,0.38,-0.29,-0.24,0.52,
1.827,-1.00,0.83,0.38,-0.28,-0.22,0.53,
1.827,-1.00,0.83,0.38,-0.26,-0.20,0.54,
1.827,-1.00,0.83,0.38,-0.24,-0.19,0.55,
1.827,-1.00,0.83,0.38,-0.23,-0.17,0.56,
1.852,-1.05,0.75,0.45,-0.23,-0.17,0.56,
1.852,-1.05,0.75,0.45,-0.21,-0.15,0.57,
1.853,-1.05,0.75,0.45,-0.19,-0.14,0.58,
1.853,-1.05,0.75,0.45,-0.17,-0.12,0.58,
1.853,-1.05,0.75,0.45,-0.16,-0.11,0.59,
1.853,-1.05,0.75,0.45,-0.14,-0.10,0.60,
1.854,-1.01,0.75,0.38,-0.14,-0.10,0.60,
1.854,-1.01,0.75,0.38,-0.12,-0.08,0.61,
1.854,-1.01,0.75,0.38,-0.11,-0.07,0.62,
1.854,-1.01,0.75,0.38,-0.09,-0.06,0.63,
1.854,-1.01,0.75,0.38,-0.07,-0.06,0.63,
1.855,-1.01,0.75,0.38,-0.06,-0.05,0.64,
1.855,-0.87,0.74,0.20,-0.06,-0.05,0.64,
1.855,-0.87,0.74,0.20,-0.04,-0.04,0.64,
1.855,-0.87,0.74,0.20,-0.02,-0.03,0.65,
1.855,-0.87,0.74,0.20,-0.01,-0.02,0.65,
1.856,-0.87,0.74,0.20,0.00,-0.02,0.66,
1.856,-0.87,0.74,0.20,0.02,-0.01,0.66,
1.858,-0.76,0.83,0.02,0.02,-0.01,0.66,
1.858,-0.76,0.83,0.02,0.03,-0.01,0.66,
1.859,-0.76,0.83,0.02,0.05,-0.01,0.67,
1.862,-0.76,0.83,0.02,0.06,-0.00,0.67,
1.864,-0.76,0.83,0.02,0.07,-0.00,0.67,
1.866,-0.76,0.83,0.02,0.08,0.01,0.67,
1.868,-0.60,0.88,-0.14,0.08,0.01,0.67,
1.868,-0.60,0.88,-0.14,0.10,0.01,0.66,
1.87,-0.60,0.88,-0.14,0.11,0.01,0.66,
1.871,-0.60,0.88,-0.14,0.12,0.01,0.66,
1.873,-0.60,0.88,-0.14,0.13,0.02,0.66,
1.875,-0.60,0.88,-0.14,0.14,0.02,0.65,
1.878,-0.47,0.93,-0.32,0.14,0.02,0.65,
1.879,-0.47,0.93,-0.32,0.15,0.02,0.65,
1.88,-0.47,0.93,-0.32,0.16,0.02,0.65,
1.887,-0.47,0.93,-0.32,0.16,0.02,0.64,
1.888,-0.47,0.93,-0.32,0.17,0.02,0.64,
1.888,-0.47,0.93,-0.32,0.17,0.02,0.64,
1.888,-0.38,0.86,-0.44,0.17,0.02,0.64,
1.888,-0.38,0.86,-0.44,0.18,0.02,0.64,
1.889,-0.38,0.86,-0.44,0.19,0.03,0.64,
1.892,-0.38,0.86,-0.44,0.19,0.03,0.64,
1.893,-0.38,0.86,-0.44,0.19,0.03,0.64,
1.895,-0.38,0.86,-0.44,0.20,0.04,0.63,
1.897,-0.34,0.81,-0.50,0.20,0.04,0.63,
1.898,-0.34,0.81,-0.50,0.21,0.04,0.63,
1.9,-0.34,0.81,-0.50,0.21,0.05,0.63,
1.901,-0.34,0.81,-0.50,0.22,0.05,0.63,
1.903,-0.34,0.81,-0.50,0.22,0.06,0.63,
1.905,-0.34,0.81,-0.50,0.23,0.06,0.63,
1.908,-0.28,0.72,-0.42,0.23,0.06,0.63,
1.908,-0.28,0.72,-0.42,0.24,0.07,0.63,
1.909,-0.28,0.72,-0.42,0.24,0.08,0.63,
1.912,-0.28,0.72,-0.42,0.25,0.09,0.63,
1.924,-0.28,0.72,-0.42,0.25,0.10,0.63,
1.924,-0.28,0.72,-0.42,0.26,0.11,0.63,
1.924,-0.15,0.67,-0.36,0.26,0.11,0.63,
1.925,-0.15,0.67,-0.36,0.26,0.12,0.63,
1.925,-0.15,0.67,-0.36,0.27,0.14,0.63,
1.925,-0.15,0.67,-0.36,0.27,0.15,0.62,
1.937,-0.15,0.67,-0.36,0.28,0.16,0.62,
1.937,-0.15,0.67,-0.36,0.28,0.18,0.62,
1.937,-0.10,0.59,-0.32,0.28,0.18,0.62,
1.937,-0.10,0.59,-0.32,0.28,0.19,0.62,
1.937,-0.10,0.59,-0.32,0.29,0.21,0.62,
1.937,-0.10,0.59,-0.32,0.29,0.22,0.62,
1.937,-0.10,0.59,-0.32,0.29,0.24,0.61,
1.938,-0.10,0.59,-0.32,0.30,0.25,0.62,
1.938,-0.08,0.52,-0.32,0.30,0.25,0.62,
1.938,-0.08,0.52,-0.32,0.30,0.27,0.61,
1.947,-0.08,0.52,-0.32,0.30,0.28,0.61,
1.947,-0.08,0.52,-0.32,0.30,0.29,0.61,
1.947,-0.08,0.52,-0.32,0.30,0.31,0.62,
1.947,-0.08,0.52,-0.32,0.30,0.32,0.62,
1.948,-0.11,0.39,-0.32,0.30,0.32,0.62,
1.948,-0.11,0.39,-0.32,0.30,0.33,0.62,
1.95,-0.11,0.39,-0.32,0.30,0.35,0.62,
1.952,-0.11,0.39,-0.32,0.30,0.37,0.62,
1.953,-0.11,0.39,-0.32,0.30,0.38,0.63,
1.955,-0.11,0.39,-0.32,0.30,0.40,0.62,
1.957,-0.12,0.32,-0.20,0.30,0.40,0.62,
1.958,-0.12,0.32,-0.20,0.31,0.42,0.62,
1.959,-0.12,0.32,-0.20,0.31,0.44,0.62,
1.961,-0.12,0.32,-0.20,0.31,0.46,0.63,
1.964,-0.12,0.32,-0.20,0.31,0.47,0.63,
1.965,-0.12,0.32,-0.20,0.31,0.49,0.62,
1.971,-0.09,0.22,-0.09,0.31,0.49,0.62,
1.971,-0.09,0.22,-0.09,0.32,0.50,0.62,
1.971,-0.09,0.22,-0.09,0.32,0.52,0.62,
1.972,-0.09,0.22,-0.09,0.32,0.53,0.62,
1.973,-0.09,0.22,-0.09,0.32,0.54,0.62,
1.975,-0.09,0.22,-0.09,0.32,0.56,0.62,
1.977,-0.05,0.12,-0.03,0.32,0.56,0.62,
1.978,-0.05,0.12,-0.03,0.31,0.58,0.62,
1.979,-0.05,0.12,-0.03,0.31,0.60,0.62,
1.981,-0.05,0.12,-0.03,0.31,0.62,0.62,
1.984,-0.05,0.12,-0.03,0.31,0.65,0.62,
1.985,-0.05,0.12,-0.03,0.30,0.67,0.62,
1.987,-0.02,0.04,-0.10,0.30,0.67,0.62,
1.987,-0.02,0.04,-0.10,0.30,0.70,0.62,
1.989,-0.02,0.04,-0.10,0.29,0.72,0.63,
1.991,-0.02,0.04,-0.10,0.28,0.75,0.63,
1.993,-0.02,0.04,-0.10,0.28,0.78,0.63,
1.995,-0.02,0.04,-0.10,0.27,0.80,0.63,
1.999,-0.13,0.08,-0.27,0.27,0.80,0.63,
1.999,-0.13,0.08,-0.27,0.26,0.83,0.63,
1.999,-0.13,0.08,-0.27,0.25,0.87,0.64,
2.001,-0.13,0.08,-0.27,0.23,0.89,0.64,
2.003,-0.13,0.08,-0.27,0.22,0.92,0.64,
2.005,-0.13,0.08,-0.27,0.20,0.94,0.65,
2.007,-0.32,0.25,-0.59,0.20,0.94,0.65,
2.007,-0.32,0.25,-0.59,0.18,0.96,0.65,
2.009,-0.32,0.25,-0.59,0.16,0.97,0.65,
2.011,-0.32,0.25,-0.59,0.13,0.98,0.65,
2.014,-0.32,0.25,-0.59,0.10,0.98,0.66,
2.015,-0.32,0.25,-0.59,0.07,0.97,0.66,
2.018,-0.32,0.35,-1.08,0.07,0.97,0.66,
2.018,-0.32,0.35,-1.08,0.03,0.96,0.66,
2.019,-0.32,0.35,-1.08,-0.01,0.94,0.66,
2.021,-0.32,0.35,-1.08,-0.06,0.92,0.65,
2.023,-0.32,0.35,-1.08,-0.10,0.88,0.65,
2.025,-0.32,0.35,-1.08,-0.16,0.85,0.65,
2.028,-0.19,0.28,-1.42,-0.16,0.85,0.65,
2.029,-0.19,0.28,-1.42,-0.21,0.81,0.64,
2.047,-0.19,0.28,-1.42,-0.26,0.78,0.63,
2.048,-0.19,0.28,-1.42,-0.31,0.74,0.62,
2.048,-0.19,0.28,-1.42,-0.37,0.70,0.61,
2.049,-0.19,0.28,-1.42,-0.41,0.66,0.60,
2.049,-0.02,0.13,-1.12,-0.41,0.66,0.60,
2.049,-0.02,0.13,-1.12,-0.46,0.63,0.59,
2.05,-0.02,0.13,-1.12,-0.50,0.60,0.59,
2.05,-0.02,0.13,-1.12,-0.54,0.57,0.58,
2.05,-0.02,0.13,-1.12,-0.58,0.55,0.57,
2.05,-0.02,0.13,-1.12,-0.61,0.54,0.57,
2.051,-0.17,-0.08,-0.15,-0.61,0.54,0.57,
2.051,-0.17,-0.08,-0.15,-0.64,0.52,0.56,
2.051,-0.17,-0.08,-0.15,-0.67,0.51,0.56,
2.054,-0.17,-0.08,-0.15,-0.69,0.51,0.56,
2.054,-0.17,-0.08,-0.15,-0.71,0.51,0.56,
2.055,-0.17,-0.08,-0.15,-0.73,0.52,0.57,
2.058,-0.48,-0.50,0.99,-0.73,0.52,0.57,
2.058,-0.48,-0.50,0.99,-0.74,0.53,0.58,
2.059,-0.48,-0.50,0.99,-0.76,0.54,0.59,
2.061,-0.48,-0.50,0.99,-0.77,0.56,0.60,
2.072,-0.48,-0.50,0.99,-0.78,0.58,0.62,
2.072,-0.48,-0.50,0.99,-0.78,0.60,0.64,
2.073,-0.78,-1.12,2.08,-0.78,0.60,0.64,
2.073,-0.78,-1.12,2.08,-0.78,0.63,0.66,
2.074,-0.78,-1.12,2.08,-0.78,0.66,0.69,
2.074,-0.78,-1.12,2.08,-0.78,0.70,0.72,
2.074,-0.78,-1.12,2.08,-0.77,0.73,0.75,
2.075,-0.78,-1.12,2.08,-0.76,0.77,0.78,
2.078,-1.06,-1.70,2.99,-0.76,0.77,0.78,
2.078,-1.06,-1.70,2.99,-0.74,0.80,0.81,
2.083,-1.06,-1.70,2.99,-0.72,0.83,0.84,
2.083,-1.06,-1.70,2.99,-0.70,0.86,0.87,
2.084,-1.06,-1.70,2.99,-0.67,0.89,0.90,
2.086,-1.06,-1.70,2.99,-0.64,0.91,0.94,
2.088,-1.17,-1.80,3.58,-0.64,0.91,0.94,
2.088,-1.17,-1.80,3.58,-0.61,0.93,0.97,
2.116,-1.17,-1.80,3.58,-0.57,0.95,1.00,
2.117,-1.17,-1.80,3.58,-0.53,0.96,1.03,
2.117,-1.17,-1.80,3.58,-0.49,0.97,1.07,
2.118,-1.17,-1.80,3.58,-0.44,0.97,1.10,
2.118,-1.25,-1.80,3.83,-0.44,0.97,1.10,
2.119,-1.25,-1.80,3.83,-0.39,0.97,1.13,
2.119,-1.25,-1.80,3.83,-0.34,0.97,1.16,
2.119,-1.25,-1.80,3.83,-0.29,0.96,1.18,
2.12,-1.25,-1.80,3.83,-0.23,0.95,1.21,
2.12,-1.25,-1.80,3.83,-0.18,0.93,1.24,
2.121,-0.98,-1.63,3.65,-0.18,0.93,1.24,
2.121,-0.98,-1.63,3.65,-0.12,0.92,1.26,
2.121,-0.98,-1.63,3.65,-0.07,0.89,1.28,
2.122,-0.98,-1.63,3.65,-0.02,0.85,1.30,
2.122,-0.98,-1.63,3.65,0.03,0.81,1.32,
2.123,-0.98,-1.63,3.65,0.07,0.77,1.33,
2.123,-0.47,-1.48,3.04,0.07,0.77,1.33,
2.123,-0.47,-1.48,3.04,0.12,0.72,1.33,
2.124,-0.47,-1.48,3.04,0.16,0.67,1.34,
2.124,-0.47,-1.48,3.04,0.21,0.61,1.33,
2.125,-0.47,-1.48,3.04,0.24,0.55,1.32,
2.125,-0.47,-1.48,3.04,0.28,0.49,1.31,
2.133,0.24,-1.41,2.38,0.28,0.49,1.31,
2.134,0.24,-1.41,2.38,0.31,0.43,1.30,
2.134,0.24,-1.41,2.38,0.35,0.37,1.29,
2.135,0.24,-1.41,2.38,0.38,0.31,1.27,
2.135,0.24,-1.41,2.38,0.40,0.26,1.26,
2.135,0.24,-1.41,2.38,0.42,0.20,1.24,
2.14,0.51,-1.27,1.69,0.42,0.20,1.24,
2.141,0.51,-1.27,1.69,0.43,0.14,1.23,
2.141,0.51,-1.27,1.69,0.44,0.08,1.21,
2.141,0.51,-1.27,1.69,0.45,0.03,1.20,
2.145,0.51,-1.27,1.69,0.45,-0.02,1.18,
2.146,0.51,-1.27,1.69,0.45,-0.07,1.17,
2.149,0.55,-1.15,0.99,0.45,-0.07,1.17,
2.15,0.55,-1.15,0.99,0.45,-0.11,1.15,
2.151,0.55,-1.15,0.99,0.43,-0.15,1.13,
2.152,0.55,-1.15,0.99,0.42,-0.19,1.12,
2.156,0.55,-1.15,0.99,0.40,-0.23,1.10,
2.156,0.55,-1.15,0.99,0.38,-0.27,1.09,
2.16,0.65,-1.25,0.55,0.38,-0.27,1.09,
2.161,0.65,-1.25,0.55,0.36,-0.30,1.07,
2.161,0.65,-1.25,0.55,0.33,-0.33,1.06,
2.161,0.65,-1.25,0.55,0.31,-0.36,1.04,
2.164,0.65,-1.25,0.55,0.28,-0.38,1.03,
2.165,0.65,-1.25,0.55,0.25,-0.40,1.01,
2.168,0.73,-1.41,0.57,0.25,-0.40,1.01,
2.169,0.73,-1.41,0.57,0.22,-0.42,1.00,
2.169,0.73,-1.41,0.57,0.20,-0.44,0.98,
2.171,0.73,-1.41,0.57,0.18,-0.46,0.97,
2.174,0.73,-1.41,0.57,0.16,-0.48,0.95,
2.176,0.73,-1.41,0.57,0.13,-0.49,0.94,
2.178,0.86,-1.63,1.06,0.13,-0.49,0.94,
2.178,0.86,-1.63,1.06,0.12,-0.50,0.92,
2.18,0.86,-1.63,1.06,0.10,-0.51,0.91,
2.182,0.86,-1.63,1.06,0.08,-0.52,0.89,
2.184,0.86,-1.63,1.06,0.07,-0.53,0.88,
2.186,0.86,-1.63,1.06,0.06,-0.53,0.87,
2.188,0.98,-1.75,1.75,0.06,-0.53,0.87,
2.188,0.98,-1.75,1.75,0.05,-0.54,0.86,
2.189,0.98,-1.75,1.75,0.04,-0.54,0.84,
2.191,0.98,-1.75,1.75,0.04,-0.54,0.83,
2.194,0.98,-1.75,1.75,0.03,-0.54,0.81,
2.205,0.98,-1.75,1.75,0.03,-0.54,0.80,
2.205,1.18,-1.88,2.42,0.03,-0.54,0.80,
2.206,1.18,-1.88,2.42,0.03,-0.53,0.78,
2.206,1.18,-1.88,2.42,0.03,-0.52,0.76,
2.206,1.18,-1.88,2.42,0.04,-0.51,0.75,
2.206,1.18,-1.88,2.42,0.04,-0.50,0.73,
2.207,1.18,-1.88,2.42,0.05,-0.49,0.72,
2.209,1.30,-1.93,2.90,0.05,-0.49,0.72,
2.21,1.30,-1.93,2.90,0.06,-0.47,0.70,
2.21,1.30,-1.93,2.90,0.06,-0.46,0.69,
2.231,1.30,-1.93,2.90,0.07,-0.44,0.67,
2.231,1.30,-1.93,2.90,0.08,-0.43,0.65,
2.232,1.30,-1.93,2.90,0.09,-0.40,0.64,
2.232,1.42,-2.05,3.07,0.09,-0.40,0.64,
2.232,1.42,-2.05,3.07,0.10,-0.38,0.62,
2.232,1.42,-2.05,3.07,0.11,-0.36,0.60,
2.233,1.42,-2.05,3.07,0.12,-0.34,0.59,
2.233,1.42,-2.05,3.07,0.13,-0.31,0.57,
2.233,1.42,-2.05,3.07,0.14,-0.29,0.55,
2.233,1.43,-2.10,2.92,0.14,-0.29,0.55,
2.234,1.43,-2.10,2.92,0.15,-0.26,0.54,
2.234,1.43,-2.10,2.92,0.15,-0.23,0.52,
2.234,1.43,-2.10,2.92,0.16,-0.20,0.51,
2.234,1.43,-2.10,2.92,0.16,-0.18,0.49,
2.244,1.43,-2.10,2.92,0.17,-0.15,0.48,
2.244,1.35,-2.14,2.50,0.17,-0.15,0.48,
2.245,1.35,-2.14,2.50,0.17,-0.12,0.47,
2.245,1.35,-2.14,2.50,0.18,-0.09,0.46,
2.245,1.35,-2.14,2.50,0.18,-0.07,0.45,
2.245,1.35,-2.14,2.50,0.18,-0.04,0.44,
2.253,1.35,-2.14,2.50,0.18,-0.01,0.43,
2.254,1.05,-2.08,1.89,0.18,-0.01,0.43,
2.254,1.05,-2.08,1.89,0.18,0.01,0.42,
2.254,1.05,-2.08,1.89,0.18,0.04,0.41,
2.254,1.05,-2.08,1.89,0.18,0.06,0.41,
2.255,1.05,-2.08,1.89,0.17,0.08,0.40,
2.255,1.05,-2.08,1.89,0.16,0.10,0.40,
2.27,0.77,-2.11,1.11,0.16,0.10,0.40,
2.27,0.77,-2.11,1.11,0.16,0.12,0.40,
2.27,0.77,-2.11,1.11,0.15,0.15,0.40,
2.271,0.77,-2.11,1.11,0.14,0.16,0.39,
2.271,0.77,-2.11,1.11,0.14,0.18,0.40,
2.271,0.77,-2.11,1.11,0.13,0.20,0.40,
2.271,0.54,-2.02,0.39,0.13,0.20,0.40,
2.271,0.54,-2.02,0.39,0.12,0.21,0.40,
2.271,0.54,-2.02,0.39,0.12,0.23,0.40,
2.271,0.54,-2.02,0.39,0.11,0.24,0.40,
2.275,0.54,-2.02,0.39,0.11,0.25,0.40,
2.275,0.54,-2.02,0.39,0.10,0.26,0.40,
2.282,0.41,-2.02,-0.15,0.10,0.26,0.40,
2.282,0.41,-2.02,-0.15,0.10,0.27,0.41,
2.282,0.41,-2.02,-0.15,0.10,0.28,0.41,
2.282,0.41,-2.02,-0.15,0.10,0.28,0.42,
2.284,0.41,-2.02,-0.15,0.10,0.28,0.42,
2.286,0.41,-2.02,-0.15,0.11,0.28,0.42,
2.29,0.32,-1.91,-0.58,0.11,0.28,0.42,
2.29,0.32,-1.91,-0.58,0.11,0.28,0.42,
2.29,0.32,-1.91,-0.58,0.11,0.28,0.42,
2.291,0.32,-1.91,-0.58,0.12,0.28,0.43,
2.293,0.32,-1.91,-0.58,0.12,0.28,0.43,
2.296,0.32,-1.91,-0.58,0.13,0.28,0.43,
2.298,0.35,-1.82,-1.03,0.13,0.28,0.43,
2.298,0.35,-1.82,-1.03,0.14,0.28,0.43,
2.299,0.35,-1.82,-1.03,0.14,0.28,0.43,
2.301,0.35,-1.82,-1.03,0.15,0.27,0.43,
2.303,0.35,-1.82,-1.03,0.16,0.27,0.43,
2.305,0.35,-1.82,-1.03,0.16,0.26,0.43,
2.308,0.43,-1.70,-1.52,0.16,0.26,0.43,
2.308,0.43,-1.70,-1.52,0.17,0.26,0.43,
2.309,0.43,-1.70,-1.52,0.18,0.25,0.43,
2.312,0.43,-1.70,-1.52,0.18,0.24,0.43,
2.314,0.43,-1.70,-1.52,0.19,0.23,0.43,
2.315,0.43,-1.70,-1.52,0.19,0.22,0.43,
2.318,0.47,-1.61,-1.96,0.19,0.22,0.43,
2.318,0.47,-1.61,-1.96,0.20,0.21,0.43,
2.319,0.47,-1.61,-1.96,0.21,0.20,0.43,
2.321,0.47,-1.61,-1.96,0.21,0.19,0.43,
2.323,0.47,-1.61,-1.96,0.21,0.18,0.43,
2.325,0.47,-1.61,-1.96,0.22,0.18,0.43,
2.328,0.51,-1.44,-2.43,0.22,0.18,0.43,
2.328,0.51,-1.44,-2.43,0.22,0.17,0.43,
2.333,0.51,-1.44,-2.43,0.22,0.17,0.43,
2.334,0.51,-1.44,-2.43,0.22,0.16,0.42,
2.334,0.51,-1.44,-2.43,0.22,0.16,0.42,
2.335,0.51,-1.44,-2.43,0.22,0.15,0.42,
2.338,0.63,-1.36,-2.90,0.22,0.15,0.42,
2.338,0.63,-1.36,-2.90,0.22,0.14,0.41,
2.339,0.63,-1.36,-2.90,0.21,0.13,0.41,
2.341,0.63,-1.36,-2.90,0.21,0.12,0.41,
2.343,0.63,-1.36,-2.90,0.21,0.11,0.40,
2.347,0.63,-1.36,-2.90,0.20,0.10,0.40,
2.361,0.59,-1.23,-3.31,0.20,0.10,0.40,
2.361,0.59,-1.23,-3.31,0.19,0.09,0.40,
2.362,0.59,-1.23,-3.31,0.18,0.08,0.40,
2.362,0.59,-1.23,-3.31,0.18,0.07,0.39,
2.362,0.59,-1.23,-3.31,0.16,0.06,0.39,
2.362,0.59,-1.23,-3.31,0.15,0.04,0.38,
2.362,0.64,-1.10,-3.66,0.15,0.04,0.38,
2.362,0.64,-1.10,-3.66,0.14,0.03,0.37,
2.363,0.64,-1.10,-3.66,0.13,0.02,0.37,
2.363,0.64,-1.10,-3.66,0.12,0.01,0.36,
2.371,0.64,-1.10,-3.66,0.11,0.00,0.35,
2.372,0.64,-1.10,-3.66,0.09,-0.01,0.34,
2.372,0.65,-0.95,-3.87,0.09,-0.01,0.34,
2.372,0.65,-0.95,-3.87,0.08,-0.02,0.33,
2.372,0.65,-0.95,-3.87,0.07,-0.04,0.32,
2.372,0.65,-0.95,-3.87,0.05,-0.05,0.31,
2.373,0.65,-0.95,-3.87,0.04,-0.07,0.31,
2.375,0.65,-0.95,-3.87,0.03,-0.08,0.30,
2.378,0.68,-0.87,-3.86,0.03,-0.08,0.30,
2.379,0.68,-0.87,-3.86,0.02,-0.10,0.29,
2.379,0.68,-0.87,-3.86,0.01,-0.11,0.28,
2.382,0.68,-0.87,-3.86,-0.00,-0.12,0.27,
2.384,0.68,-0.87,-3.86,-0.00,-0.12,0.26,
2.387,0.68,-0.87,-3.86,-0.01,-0.13,0.26,
2.388,0.62,-0.76,-3.68,-0.01,-0.13,0.26,
2.39,0.62,-0.76,-3.68,-0.02,-0.14,0.25,
2.391,0.62,-0.76,-3.68,-0.02,-0.15,0.24,
2.391,0.62,-0.76,-3.68,-0.03,-0.16,0.24,
2.393,0.62,-0.76,-3.68,-0.03,-0.17,0.23,
2.397,0.62,-0.76,-3.68,-0.03,-0.18,0.23,
2.398,0.59,-0.74,-3.40,-0.03,-0.18,0.23,
2.398,0.59,-0.74,-3.40,-0.03,-0.19,0.22,
2.399,0.59,-0.74,-3.40,-0.03,-0.20,0.22,
2.401,0.59,-0.74,-3.40,-0.04,-0.20,0.21,
2.403,0.59,-0.74,-3.40,-0.04,-0.21,0.20,
2.405,0.59,-0.74,-3.40,-0.04,-0.22,0.20,
2.409,0.51,-0.67,-3.11,-0.04,-0.22,0.20,
2.41,0.51,-0.67,-3.11,-0.03,-0.23,0.19,
2.41,0.51,-0.67,-3.11,-0.03,-0.24,0.19,
2.417,0.51,-0.67,-3.11,-0.03,-0.25,0.18,
2.42,0.51,-0.67,-3.11,-0.03,-0.26,0.18,
2.42,0.51,-0.67,-3.11,-0.02,-0.27,0.17,
2.421,0.57,-0.60,-2.77,-0.02,-0.27,0.17,
2.421,0.57,-0.60,-2.77,-0.01,-0.28,0.16,
2.421,0.57,-0.60,-2.77,-0.01,-0.29,0.16,
2.425,0.57,-0.60,-2.77,0.00,-0.30,0.15,
2.444,0.57,-0.60,-2.77,0.01,-0.31,0.15,
2.444,0.57,-0.60,-2.77,0.02,-0.32,0.14,
2.445,0.51,-0.54,-2.41,0.02,-0.32,0.14,
2.445,0.51,-0.54,-2.41,0.03,-0.33,0.14,
2.445,0.51,-0.54,-2.41,0.04,-0.35,0.13,
2.446,0.51,-0.54,-2.41,0.04,-0.36,0.12,
2.446,0.51,-0.54,-2.41,0.06,-0.37,0.12,
2.446,0.51,-0.54,-2.41,0.07,-0.38,0.11,
2.446,0.51,-0.47,-2.07,0.07,-0.38,0.11,
2.447,0.51,-0.47,-2.07,0.08,-0.39,0.10,
2.447,0.51,-0.47,-2.07,0.09,-0.40,0.10,
2.447,0.51,-0.47,-2.07,0.10,-0.41,0.09,
2.447,0.51,-0.47,-2.07,0.12,-0.43,0.09,
2.448,0.51,-0.47,-2.07,0.13,-0.44,0.08,
2.452,0.45,-0.45,-1.74,0.13,-0.44,0.08,
2.453,0.45,-0.45,-1.74,0.14,-0.46,0.07,
2.453,0.45,-0.45,-1.74,0.16,-0.47,0.07,
2.454,0.45,-0.45,-1.74,0.17,-0.49,0.06,
2.454,0.45,-0.45,-1.74,0.19,-0.51,0.06,
2.455,0.45,-0.45,-1.74,0.20,-0.52,0.05,
2.46,0.41,-0.41,-1.44,0.20,-0.52,0.05,
2.46,0.41,-0.41,-1.44,0.21,-0.54,0.05,
2.46,0.41,-0.41,-1.44,0.23,-0.56,0.04,
2.467,0.41,-0.41,-1.44,0.24,-0.58,0.04,
2.468,0.41,-0.41,-1.44,0.26,-0.60,0.03,
2.468,0.41,-0.41,-1.44,0.27,-0.62,0.03,
2.468,0.34,-0.40,-1.15,0.27,-0.62,0.03,
2.469,0.34,-0.40,-1.15,0.29,-0.64,0.02,
2.469,0.34,-0.40,-1.15,0.30,-0.67,0.02,
2.489,0.34,-0.40,-1.15,0.32,-0.69,0.01,
2.49,0.34,-0.40,-1.15,0.34,-0.71,0.01,
2.49,0.34,-0.40,-1.15,0.36,-0.74,0.00,
2.49,0.34,-0.44,-0.85,0.36,-0.74,0.00,
2.491,0.34,-0.44,-0.85,0.38,-0.75,-0.00,
2.491,0.34,-0.44,-0.85,0.40,-0.77,-0.01,
2.491,0.34,-0.44,-0.85,0.43,-0.79,-0.01,
2.491,0.34,-0.44,-0.85,0.45,-0.80,-0.02,
2.491,0.34,-0.44,-0.85,0.48,-0.81,-0.02,
2.492,0.35,-0.45,-0.57,0.48,-0.81,-0.02,
2.492,0.35,-0.45,-0.57,0.50,-0.81,-0.03,
2.492,0.35,-0.45,-0.57,0.53,-0.81,-0.04,
2.513,0.35,-0.45,-0.57,0.60,-0.82,-0.06,
2.514,0.35,-0.45,-0.57,0.60,-0.82,-0.06,
2.514,0.35,-0.45,-0.57,0.60,-0.82,-0.06,
2.514,0.35,-0.45,-0.57,0.63,-0.81,-0.07,
2.515,0.41,-0.53,-0.46,0.63,-0.81,-0.07,
2.515,0.41,-0.53,-0.46,0.66,-0.81,-0.08,
2.515,0.41,-0.53,-0.46,0.68,-0.81,-0.09,
2.515,0.41,-0.53,-0.46,0.70,-0.80,-0.10,
2.515,0.41,-0.53,-0.46,0.73,-0.79,-0.11,
2.516,0.34,-0.64,-0.53,0.73,-0.79,-0.11,
2.516,0.34,-0.64,-0.53,0.75,-0.78,-0.11,
2.516,0.34,-0.64,-0.53,0.77,-0.78,-0.12,
2.516,0.34,-0.64,-0.53,0.79,-0.77,-0.12,
2.516,0.34,-0.64,-0.53,0.81,-0.76,-0.13,
2.516,0.34,-0.64,-0.53,0.83,-0.74,-0.13,
2.518,0.28,-0.74,-0.72,0.83,-0.74,-0.13,
2.519,0.28,-0.74,-0.72,0.85,-0.73,-0.14,
2.519,0.28,-0.74,-0.72,0.87,-0.72,-0.14,
2.521,0.28,-0.74,-0.72,0.88,-0.70,-0.15,
2.523,0.28,-0.74,-0.72,0.89,-0.69,-0.15,
2.525,0.28,-0.74,-0.72,0.91,-0.68,-0.16,
2.528,0.21,-0.78,-0.99,0.91,-0.68,-0.16,
2.528,0.21,-0.78,-0.99,0.92,-0.66,-0.16,
2.529,0.21,-0.78,-0.99,0.93,-0.64,-0.17,
2.531,0.21,-0.78,-0.99,0.94,-0.62,-0.17,
2.533,0.21,-0.78,-0.99,0.95,-0.60,-0.18,
2.535,0.21,-0.78,-0.99,0.97,-0.58,-0.19,
2.537,0.25,-0.82,-1.13,0.97,-0.58,-0.19,
2.538,0.25,-0.82,-1.13,0.98,-0.56,-0.19,
2.539,0.25,-0.82,-1.13,0.99,-0.53,-0.20,
2.541,0.25,-0.82,-1.13,1.00,-0.51,-0.21,
2.543,0.25,-0.82,-1.13,1.01,-0.49,-0.21,
2.545,0.25,-0.82,-1.13,1.02,-0.46,-0.21,
2.552,0.16,-0.77,-1.36,1.02,-0.46,-0.21,
2.552,0.16,-0.77,-1.36,1.02,-0.44,-0.22,
2.553,0.16,-0.77,-1.36,1.03,-0.42,-0.22,
2.553,0.16,-0.77,-1.36,1.03,-0.40,-0.22,
2.553,0.16,-0.77,-1.36,1.03,-0.39,-0.23,
2.555,0.16,-0.77,-1.36,1.03,-0.37,-0.23,
2.558,0.15,-0.70,-1.77,1.03,-0.37,-0.23,
2.558,0.15,-0.70,-1.77,1.03,-0.35,-0.23,
2.559,0.15,-0.70,-1.77,1.03,-0.34,-0.24,
2.562,0.15,-0.70,-1.77,1.03,-0.33,-0.24,
2.563,0.15,-0.70,-1.77,1.02,-0.32,-0.25,
2.565,0.15,-0.70,-1.77,1.01,-0.31,-0.25,
2.568,0.17,-0.56,-2.26,1.01,-0.31,-0.25,
2.568,0.17,-0.56,-2.26,1.00,-0.30,-0.26,
2.569,0.17,-0.56,-2.26,0.99,-0.29,-0.27,
2.571,0.17,-0.56,-2.26,0.98,-0.29,-0.28,
2.573,0.17,-0.56,-2.26,0.96,-0.29,-0.28,
2.575,0.17,-0.56,-2.26,0.94,-0.29,-0.29,
2.578,0.23,-0.37,-2.85,0.94,-0.29,-0.29,
2.578,0.23,-0.37,-2.85,0.91,-0.29,-0.30,
2.579,0.23,-0.37,-2.85,0.88,-0.30,-0.31,
2.581,0.23,-0.37,-2.85,0.85,-0.31,-0.33,
2.583,0.23,-0.37,-2.85,0.82,-0.32,-0.34,
2.585,0.23,-0.37,-2.85,0.78,-0.33,-0.35,
2.587,0.29,-0.19,-3.39,0.78,-0.33,-0.35,
2.588,0.29,-0.19,-3.39,0.74,-0.34,-0.37,
2.601,0.29,-0.19,-3.39,0.70,-0.35,-0.38,
2.601,0.29,-0.19,-3.39,0.66,-0.36,-0.40,
2.601,0.29,-0.19,-3.39,0.61,-0.38,-0.41,
2.601,0.29,-0.19,-3.39,0.57,-0.39,-0.43,
2.601,0.48,-0.01,-3.61,0.57,-0.39,-0.43,
2.601,0.48,-0.01,-3.61,0.52,-0.41,-0.45,
2.602,0.48,-0.01,-3.61,0.47,-0.41,-0.47,
2.602,0.48,-0.01,-3.61,0.42,-0.42,-0.49,
2.607,0.48,-0.01,-3.61,0.37,-0.42,-0.51,
2.607,0.48,-0.01,-3.61,0.32,-0.41,-0.53,
2.608,0.64,0.11,-3.55,0.32,-0.41,-0.53,
2.608,0.64,0.11,-3.55,0.27,-0.41,-0.56,
2.609,0.64,0.11,-3.55,0.22,-0.40,-0.58,
2.628,0.64,0.11,-3.55,0.16,-0.38,-0.60,
2.628,0.64,0.11,-3.55,0.11,-0.37,-0.62,
2.628,0.64,0.11,-3.55,0.05,-0.36,-0.64,
2.628,0.64,0.30,-3.32,0.05,-0.36,-0.64,
2.628,0.64,0.30,-3.32,-0.01,-0.36,-0.65,
2.628,0.64,0.30,-3.32,-0.06,-0.35,-0.67,
2.628,0.64,0.30,-3.32,-0.11,-0.35,-0.68,
2.629,0.64,0.30,-3.32,-0.16,-0.35,-0.69,
2.629,0.64,0.30,-3.32,-0.20,-0.34,-0.71,
2.629,0.59,0.44,-2.52,-0.20,-0.34,-0.71,
2.629,0.59,0.44,-2.52,-0.24,-0.33,-0.72,
2.63,0.59,0.44,-2.52,-0.30,-0.30,-0.75,
2.631,0.59,0.44,-2.52,-0.33,-0.27,-0.76,
2.633,0.59,0.44,-2.52,-0.34,-0.26,-0.77,
2.635,0.59,0.44,-2.52,-0.37,-0.22,-0.79,
2.637,0.61,0.65,-1.37,-0.37,-0.22,-0.79,
2.637,0.61,0.65,-1.37,-0.39,-0.18,-0.81,
2.639,0.61,0.65,-1.37,-0.40,-0.14,-0.83,
2.641,0.61,0.65,-1.37,-0.42,-0.10,-0.85,
2.643,0.61,0.65,-1.37,-0.44,-0.06,-0.87,
2.645,0.61,0.65,-1.37,-0.45,-0.02,-0.88,
2.648,0.61,0.79,-0.44,-0.45,-0.02,-0.88,
2.648,0.61,0.79,-0.44,-0.47,0.02,-0.90,
2.65,0.61,0.79,-0.44,-0.48,0.06,-0.91,
2.652,0.61,0.79,-0.44,-0.50,0.09,-0.93,
2.653,0.61,0.79,-0.44,-0.51,0.12,-0.94,
2.655,0.61,0.79,-0.44,-0.52,0.15,-0.95,
2.657,0.40,0.77,0.11,-0.52,0.15,-0.95,
2.658,0.40,0.77,0.11,-0.53,0.18,-0.95,
2.659,0.40,0.77,0.11,-0.55,0.21,-0.96,
2.665,0.40,0.77,0.11,-0.56,0.23,-0.96,
2.665,0.40,0.77,0.11,-0.57,0.25,-0.97,
2.666,0.40,0.77,0.11,-0.59,0.27,-0.97,
2.667,0.13,0.79,0.51,-0.59,0.27,-0.97,
2.668,0.13,0.79,0.51,-0.60,0.29,-0.97,
2.669,0.13,0.79,0.51,-0.62,0.30,-0.98,
2.671,0.13,0.79,0.51,-0.63,0.32,-0.98,
2.674,0.13,0.79,0.51,-0.65,0.32,-0.99,
2.675,0.13,0.79,0.51,-0.67,0.33,-0.99,
2.678,0.05,0.86,0.81,-0.67,0.33,-0.99,
2.678,0.05,0.86,0.81,-0.69,0.33,-1.00,
2.68,0.05,0.86,0.81,-0.72,0.33,-1.00,
2.681,0.05,0.86,0.81,-0.74,0.32,-1.01,
2.684,0.05,0.86,0.81,-0.77,0.31,-1.02,
2.685,0.05,0.86,0.81,-0.79,0.30,-1.03,
2.687,0.03,0.98,1.22,-0.79,0.30,-1.03,
2.688,0.03,0.98,1.22,-0.82,0.29,-1.04,
2.689,0.03,0.98,1.22,-0.84,0.27,-1.05,
2.691,0.03,0.98,1.22,-0.87,0.25,-1.06,
2.693,0.03,0.98,1.22,-0.90,0.24,-1.08,
2.707,0.03,0.98,1.22,-0.93,0.22,-1.09,
2.708,-0.01,1.11,1.89,-0.93,0.22,-1.09,
2.708,-0.01,1.11,1.89,-0.95,0.20,-1.10,
2.709,-0.01,1.11,1.89,-0.98,0.18,-1.12,
2.709,-0.01,1.11,1.89,-1.01,0.16,-1.14,
2.71,-0.01,1.11,1.89,-1.04,0.14,-1.16,
2.71,-0.01,1.11,1.89,-1.07,0.12,-1.17,
2.71,0.03,1.13,2.70,-1.07,0.12,-1.17,
2.711,0.03,1.13,2.70,-1.10,0.11,-1.19,
2.711,0.03,1.13,2.70,-1.13,0.10,-1.21,
2.714,0.03,1.13,2.70,-1.16,0.09,-1.22,
2.733,0.03,1.13,2.70,-1.19,0.09,-1.23,
2.734,0.03,1.13,2.70,-1.22,0.08,-1.24,
2.735,-0.19,1.12,3.60,-1.22,0.08,-1.24,
2.735,-0.19,1.12,3.60,-1.26,0.08,-1.25,
2.736,-0.19,1.12,3.60,-1.29,0.08,-1.25,
2.736,-0.19,1.12,3.60,-1.32,0.08,-1.26,
2.737,-0.19,1.12,3.60,-1.36,0.07,-1.26,
2.737,-0.19,1.12,3.60,-1.39,0.07,-1.26,
2.738,-0.40,0.78,4.46,-1.39,0.07,-1.26,
2.739,-0.40,0.78,4.46,-1.43,0.07,-1.26,
2.739,-0.40,0.78,4.46,-1.46,0.07,-1.26,
2.74,-0.40,0.78,4.46,-1.48,0.07,-1.26,
2.74,-0.40,0.78,4.46,-1.51,0.08,-1.26,
2.741,-0.40,0.78,4.46,-1.54,0.08,-1.25,
2.742,-0.60,0.22,5.37,-1.54,0.08,-1.25,
2.742,-0.60,0.22,5.37,-1.57,0.09,-1.25,
2.743,-0.60,0.22,5.37,-1.59,0.10,-1.23,
2.743,-0.60,0.22,5.37,-1.61,0.11,-1.22,
2.744,-0.60,0.22,5.37,-1.63,0.12,-1.20,
2.754,-0.60,0.22,5.37,-1.65,0.13,-1.19,
2.754,-0.89,-0.35,6.43,-1.65,0.13,-1.19,
2.754,-0.89,-0.35,6.43,-1.66,0.15,-1.16,
2.755,-0.89,-0.35,6.43,-1.67,0.17,-1.13,
2.755,-0.89,-0.35,6.43,-1.67,0.20,-1.11,
2.755,-0.89,-0.35,6.43,-1.67,0.22,-1.07,
2.756,-0.89,-0.35,6.43,-1.66,0.25,-1.04,
2.785,-1.17,-0.89,7.49,-1.66,0.25,-1.04,
2.785,-1.17,-0.89,7.49,-1.65,0.29,-1.00,
2.786,-1.17,-0.89,7.49,-1.64,0.32,-0.96,
2.786,-1.17,-0.89,7.49,-1.62,0.36,-0.91,
2.787,-1.17,-0.89,7.49,-1.60,0.40,-0.87,
2.787,-1.17,-0.89,7.49,-1.57,0.44,-0.82,
2.787,-1.25,-1.19,8.23,-1.57,0.44,-0.82,
2.788,-1.25,-1.19,8.23,-1.54,0.48,-0.78,
2.788,-1.25,-1.19,8.23,-1.51,0.53,-0.74,
2.789,-1.25,-1.19,8.23,-1.47,0.58,-0.69,
2.789,-1.25,-1.19,8.23,-1.43,0.63,-0.65,
2.79,-1.25,-1.19,8.23,-1.38,0.69,-0.61,
2.79,-1.07,-1.25,8.61,-1.38,0.69,-0.61,
2.791,-1.07,-1.25,8.61,-1.33,0.74,-0.56,
2.791,-1.07,-1.25,8.61,-1.27,0.79,-0.53,
2.791,-1.07,-1.25,8.61,-1.22,0.85,-0.49,
2.792,-1.07,-1.25,8.61,-1.16,0.89,-0.45,
2.792,-1.07,-1.25,8.61,-1.10,0.94,-0.41,
2.793,-0.69,-1.10,8.44,-1.10,0.94,-0.41,
2.793,-0.69,-1.10,8.44,-1.04,0.99,-0.38,
2.793,-0.69,-1.10,8.44,-0.98,1.03,-0.35,
2.794,-0.69,-1.10,8.44,-0.93,1.07,-0.32,
2.794,-0.69,-1.10,8.44,-0.87,1.11,-0.28,
2.798,-0.69,-1.10,8.44,-0.81,1.15,-0.25,
2.799,-0.53,-0.85,7.45,-0.81,1.15,-0.25,
2.8,-0.53,-0.85,7.45,-0.76,1.18,-0.22,
2.8,-0.53,-0.85,7.45,-0.71,1.22,-0.18,
2.81,-0.53,-0.85,7.45,-0.66,1.25,-0.15,
2.811,-0.53,-0.85,7.45,-0.61,1.27,-0.11,
2.811,-0.53,-0.85,7.45,-0.57,1.29,-0.08,
2.811,-0.39,-0.45,5.84,-0.57,1.29,-0.08,
2.811,-0.39,-0.45,5.84,-0.53,1.30,-0.04,
2.812,-0.39,-0.45,5.84,-0.50,1.31,-0.01,
2.812,-0.39,-0.45,5.84,-0.46,1.32,0.02,
2.814,-0.39,-0.45,5.84,-0.43,1.32,0.05,
2.815,-0.39,-0.45,5.84,-0.40,1.32,0.08,
2.818,-0.25,-0.06,3.89,-0.40,1.32,0.08,
2.818,-0.25,-0.06,3.89,-0.38,1.32,0.11,
2.819,-0.25,-0.06,3.89,-0.35,1.32,0.13,
2.821,-0.25,-0.06,3.89,-0.33,1.31,0.16,
2.823,-0.25,-0.06,3.89,-0.31,1.30,0.19,
2.825,-0.25,-0.06,3.89,-0.29,1.28,0.21,
2.828,-0.11,0.23,2.02,-0.29,1.28,0.21,
2.828,-0.11,0.23,2.02,-0.27,1.26,0.24,
2.829,-0.11,0.23,2.02,-0.26,1.24,0.26,
2.832,-0.11,0.23,2.02,-0.24,1.21,0.28,
2.833,-0.11,0.23,2.02,-0.23,1.19,0.30,
2.835,-0.11,0.23,2.02,-0.21,1.16,0.33,
2.839,0.01,0.52,0.44,-0.21,1.16,0.33,
2.839,0.01,0.52,0.44,-0.20,1.13,0.35,
2.841,0.01,0.52,0.44,-0.19,1.09,0.37,
2.842,0.01,0.52,0.44,-0.17,1.06,0.39,
2.853,0.01,0.52,0.44,-0.16,1.02,0.41,
2.854,0.01,0.52,0.44,-0.14,0.98,0.43,
2.854,0.11,0.81,-0.80,-0.14,0.98,0.43,
2.854,0.11,0.81,-0.80,-0.13,0.94,0.46,
2.855,0.11,0.81,-0.80,-0.12,0.90,0.48,
2.855,0.11,0.81,-0.80,-0.11,0.85,0.50,
2.855,0.11,0.81,-0.80,-0.09,0.81,0.51,
2.855,0.11,0.81,-0.80,-0.08,0.76,0.53,
2.858,0.21,1.03,-1.76,-0.08,0.76,0.53,
2.858,0.21,1.03,-1.76,-0.06,0.72,0.55,
2.891,0.21,1.03,-1.76,-0.04,0.67,0.57,
2.891,0.21,1.03,-1.76,-0.03,0.63,0.58,
2.892,0.21,1.03,-1.76,-0.01,0.58,0.60,
2.892,0.21,1.03,-1.76,0.00,0.53,0.61,
2.892,0.45,1.18,-2.53,0.00,0.53,0.61,
2.892,0.45,1.18,-2.53,0.02,0.48,0.62,
2.893,0.45,1.18,-2.53,0.04,0.44,0.63,
2.893,0.45,1.18,-2.53,0.05,0.39,0.64,
2.893,0.45,1.18,-2.53,0.07,0.34,0.65,
2.893,0.45,1.18,-2.53,0.09,0.29,0.66,
2.894,0.77,1.34,-3.09,0.09,0.29,0.66,
2.894,0.77,1.34,-3.09,0.11,0.25,0.66,
2.894,0.77,1.34,-3.09,0.12,0.20,0.67,
2.894,0.77,1.34,-3.09,0.14,0.15,0.67,
2.895,0.77,1.34,-3.09,0.16,0.11,0.68,
2.895,0.77,1.34,-3.09,0.18,0.06,0.68,
2.895,1.01,1.36,-3.57,0.18,0.06,0.68,
2.895,1.01,1.36,-3.57,0.19,0.02,0.68,
2.895,1.01,1.36,-3.57,0.20,-0.02,0.68,
2.896,1.01,1.36,-3.57,0.21,-0.06,0.68,
2.896,1.01,1.36,-3.57,0.23,-0.10,0.68,
2.896,1.01,1.36,-3.57,0.24,-0.13,0.68,
2.9,1.23,1.38,-4.00,0.24,-0.13,0.68,
2.9,1.23,1.38,-4.00,0.25,-0.16,0.68,
2.9,1.23,1.38,-4.00,0.26,-0.19,0.67,
2.903,1.23,1.38,-4.00,0.27,-0.21,0.67,
2.905,1.23,1.38,-4.00,0.28,-0.23,0.66,
2.907,1.23,1.38,-4.00,0.29,-0.25,0.66,
2.909,1.35,1.35,-4.29,0.29,-0.25,0.66,
2.91,1.35,1.35,-4.29,0.29,-0.25,0.65,
2.914,1.35,1.35,-4.29,0.30,-0.26,0.65,
2.915,1.35,1.35,-4.29,0.30,-0.27,0.65,
2.915,1.35,1.35,-4.29,0.31,-0.27,0.64,
2.916,1.35,1.35,-4.29,0.31,-0.26,0.63,
2.918,1.52,1.38,-4.59,0.31,-0.26,0.63,
2.918,1.52,1.38,-4.59,0.31,-0.26,0.63,
2.919,1.52,1.38,-4.59,0.31,-0.25,0.62,
2.922,1.52,1.38,-4.59,0.31,-0.24,0.61,
2.939,1.52,1.38,-4.59,0.31,-0.22,0.60,
2.939,1.52,1.38,-4.59,0.31,-0.21,0.59,
2.939,1.57,1.22,-4.85,0.31,-0.21,0.59,
2.94,1.57,1.22,-4.85,0.30,-0.20,0.59,
2.94,1.57,1.22,-4.85,0.30,-0.18,0.58,
2.94,1.57,1.22,-4.85,0.29,-0.17,0.57,
2.94,1.57,1.22,-4.85,0.29,-0.16,0.56,
2.94,1.57,1.22,-4.85,0.28,-0.14,0.55,
2.941,1.67,1.08,-5.03,0.28,-0.14,0.55,
2.941,1.67,1.08,-5.03,0.27,-0.12,0.54,
2.941,1.67,1.08,-5.03,0.26,-0.11,0.53,
2.941,1.67,1.08,-5.03,0.26,-0.10,0.52,
2.944,1.67,1.08,-5.03,0.25,-0.08,0.51,
2.945,1.67,1.08,-5.03,0.24,-0.07,0.50,
2.948,1.64,0.84,-5.03,0.24,-0.07,0.50,
2.949,1.64,0.84,-5.03,0.23,-0.06,0.48,
2.95,1.64,0.84,-5.03,0.23,-0.04,0.47,
2.951,1.64,0.84,-5.03,0.22,-0.04,0.46,
2.953,1.64,0.84,-5.03,0.22,-0.02,0.44,
2.955,1.64,0.84,-5.03,0.21,-0.01,0.43,
2.958,1.73,0.72,-4.77,0.21,-0.01,0.43,
2.958,1.73,0.72,-4.77,0.21,-0.01,0.41,
2.96,1.73,0.72,-4.77,0.21,0.00,0.39,
2.964,1.73,0.72,-4.77,0.22,0.01,0.38,
2.964,1.73,0.72,-4.77,0.22,0.03,0.36,
2.965,1.73,0.72,-4.77,0.23,0.04,0.34,
2.969,1.67,0.56,-4.40,0.23,0.04,0.34,
2.969,1.67,0.56,-4.40,0.23,0.06,0.33,
2.969,1.67,0.56,-4.40,0.24,0.07,0.31,
2.971,1.67,0.56,-4.40,0.25,0.09,0.29,
2.974,1.67,0.56,-4.40,0.26,0.11,0.28,
2.975,1.67,0.56,-4.40,0.27,0.13,0.26,
2.98,1.54,0.43,-4.14,0.27,0.13,0.26,
2.98,1.54,0.43,-4.14,0.28,0.15,0.25,
2.98,1.54,0.43,-4.14,0.30,0.17,0.23,
2.982,1.54,0.43,-4.14,0.31,0.19,0.22,
2.983,1.54,0.43,-4.14,0.32,0.20,0.21,
2.985,1.54,0.43,-4.14,0.32,0.21,0.20,
2.988,1.21,0.22,-4.02,0.32,0.21,0.20,
2.988,1.21,0.22,-4.02,0.34,0.23,0.19,
2.99,1.21,0.22,-4.02,0.35,0.24,0.18,
2.991,1.21,0.22,-4.02,0.36,0.25,0.17,
3.003,1.21,0.22,-4.02,0.37,0.26,0.17,
3.004,1.21,0.22,-4.02,0.39,0.28,0.16,
3.004,0.97,0.00,-3.86,0.39,0.28,0.16,
3.004,0.97,0.00,-3.86,0.40,0.30,0.15,
3.004,0.97,0.00,-3.86,0.42,0.31,0.15,
3.004,0.97,0.00,-3.86,0.43,0.33,0.15,
3.006,0.97,0.00,-3.86,0.45,0.35,0.14,
3.006,0.97,0.00,-3.86,0.47,0.37,0.14,
3.007,0.65,-0.24,-3.74,0.47,0.37,0.14,
3.008,0.65,-0.24,-3.74,0.48,0.38,0.14,
3.031,0.65,-0.24,-3.74,0.50,0.40,0.14,
3.032,0.65,-0.24,-3.74,0.51,0.41,0.14,
3.032,0.65,-0.24,-3.74,0.53,0.41,0.14,
3.032,0.65,-0.24,-3.74,0.54,0.41,0.14,
3.032,0.35,-0.39,-3.72,0.54,0.41,0.14,
3.032,0.35,-0.39,-3.72,0.55,0.41,0.14,
3.033,0.35,-0.39,-3.72,0.56,0.41,0.15,
3.033,0.35,-0.39,-3.72,0.57,0.41,0.15,
3.033,0.35,-0.39,-3.72,0.58,0.40,0.15,
3.033,0.35,-0.39,-3.72,0.59,0.40,0.15,
3.033,0.09,-0.44,-3.71,0.59,0.40,0.15,
3.034,0.09,-0.44,-3.71,0.60,0.39,0.15,
3.034,0.09,-0.44,-3.71,0.61,0.39,0.16,
3.034,0.09,-0.44,-3.71,0.62,0.39,0.16,
3.034,0.09,-0.44,-3.71,0.63,0.39,0.16,
3.036,0.09,-0.44,-3.71,0.63,0.39,0.17,
3.037,-0.13,-0.41,-3.70,0.63,0.39,0.17,
3.038,-0.13,-0.41,-3.70,0.64,0.39,0.17,
3.039,-0.13,-0.41,-3.70,0.65,0.39,0.18,
3.041,-0.13,-0.41,-3.70,0.65,0.38,0.18,
3.043,-0.13,-0.41,-3.70,0.65,0.38,0.19,
3.045,-0.13,-0.41,-3.70,0.65,0.37,0.19,
3.047,-0.29,-0.39,-3.73,0.65,0.37,0.19,
3.047,-0.29,-0.39,-3.73,0.65,0.36,0.20,
3.049,-0.29,-0.39,-3.73,0.64,0.35,0.20,
3.051,-0.29,-0.39,-3.73,0.63,0.34,0.21,
3.053,-0.29,-0.39,-3.73,0.63,0.32,0.21,
3.055,-0.29,-0.39,-3.73,0.62,0.31,0.22,
3.057,-0.47,-0.34,-3.67,0.62,0.31,0.22,
3.058,-0.47,-0.34,-3.67,0.61,0.29,0.23,
3.06,-0.47,-0.34,-3.67,0.61,0.27,0.23,
3.061,-0.47,-0.34,-3.67,0.60,0.25,0.24,
3.063,-0.47,-0.34,-3.67,0.59,0.24,0.24,
3.066,-0.47,-0.34,-3.67,0.59,0.22,0.25,
3.068,-0.64,-0.33,-3.38,0.59,0.22,0.25,
3.069,-0.64,-0.33,-3.38,0.58,0.20,0.25,
3.069,-0.64,-0.33,-3.38,0.58,0.18,0.26,
3.072,-0.64,-0.33,-3.38,0.58,0.16,0.27,
3.074,-0.64,-0.33,-3.38,0.58,0.14,0.27,
3.076,-0.64,-0.33,-3.38,0.58,0.11,0.28,
3.078,-0.66,-0.34,-2.96,0.58,0.11,0.28,
3.078,-0.66,-0.34,-2.96,0.58,0.08,0.29,
3.08,-0.66,-0.34,-2.96,0.58,0.05,0.30,
3.082,-0.66,-0.34,-2.96,0.58,0.01,0.30,
3.083,-0.66,-0.34,-2.96,0.59,-0.02,0.31,
3.086,-0.66,-0.34,-2.96,0.59,-0.06,0.31,
3.087,-0.61,-0.27,-2.54,0.59,-0.06,0.31,
3.088,-0.61,-0.27,-2.54,0.60,-0.10,0.32,
3.107,-0.61,-0.27,-2.54,0.60,-0.15,0.32,
3.107,-0.61,-0.27,-2.54,0.61,-0.19,0.32,
3.107,-0.61,-0.27,-2.54,0.61,-0.24,0.33,
3.108,-0.61,-0.27,-2.54,0.61,-0.30,0.33,
3.108,-0.44,-0.07,-2.20,0.61,-0.30,0.33,
3.108,-0.44,-0.07,-2.20,0.61,-0.35,0.32,
3.108,-0.44,-0.07,-2.20,0.61,-0.41,0.32,
3.109,-0.44,-0.07,-2.20,0.61,-0.47,0.32,
3.109,-0.44,-0.07,-2.20,0.61,-0.53,0.31,
3.109,-0.44,-0.07,-2.20,0.60,-0.58,0.30,
3.109,-0.08,0.08,-1.75,0.60,-0.58,0.30,
3.11,-0.08,0.08,-1.75,0.60,-0.64,0.29,
3.11,-0.08,0.08,-1.75,0.59,-0.69,0.27,
3.114,-0.08,0.08,-1.75,0.59,-0.74,0.25,
3.115,-0.08,0.08,-1.75,0.58,-0.79,0.24,
3.118,-0.08,0.08,-1.75,0.57,-0.84,0.22,
3.119,0.26,0.19,-1.11,0.57,-0.84,0.22,
3.119,0.26,0.19,-1.11,0.56,-0.89,0.20,
3.12,0.26,0.19,-1.11,0.54,-0.93,0.17,
3.122,0.26,0.19,-1.11,0.53,-0.97,0.15,
3.123,0.26,0.19,-1.11,0.52,-1.01,0.12,
3.127,0.26,0.19,-1.11,0.50,-1.03,0.10,
3.128,0.43,0.17,-0.21,0.50,-1.03,0.10,
3.128,0.43,0.17,-0.21,0.49,-1.05,0.07,
3.13,0.43,0.17,-0.21,0.48,-1.07,0.05,
3.133,0.43,0.17,-0.21,0.47,-1.07,0.03,
3.134,0.43,0.17,-0.21,0.46,-1.07,0.01,
3.135,0.43,0.17,-0.21,0.45,-1.06,-0.01,
3.138,0.51,0.04,0.88,0.45,-1.06,-0.01,
3.138,0.51,0.04,0.88,0.44,-1.05,-0.03,
3.141,0.51,0.04,0.88,0.43,-1.03,-0.05,
3.141,0.51,0.04,0.88,0.42,-1.01,-0.07,
3.152,0.51,0.04,0.88,0.41,-0.99,-0.09,
3.153,0.51,0.04,0.88,0.39,-0.96,-0.10,
3.153,0.56,-0.20,1.73,0.39,-0.96,-0.10,
3.153,0.56,-0.20,1.73,0.37,-0.92,-0.12,
3.153,0.56,-0.20,1.73,0.35,-0.89,-0.14,
3.154,0.56,-0.20,1.73,0.32,-0.82,-0.16,
3.154,0.56,-0.20,1.73,0.32,-0.80,-0.16,
3.169,0.56,-0.20,1.73,0.30,-0.75,-0.17,
3.17,0.38,-0.48,2.49,0.30,-0.75,-0.17,
3.17,0.38,-0.48,2.49,0.28,-0.69,-0.18,
3.171,0.38,-0.48,2.49,0.26,-0.64,-0.18,
3.171,0.38,-0.48,2.49,0.25,-0.58,-0.19,
3.171,0.38,-0.48,2.49,0.23,-0.52,-0.19,
3.171,0.38,-0.48,2.49,0.21,-0.45,-0.18,
3.171,-0.02,-0.57,3.16,0.21,-0.45,-0.18,
3.172,-0.02,-0.57,3.16,0.20,-0.39,-0.18,
3.172,-0.02,-0.57,3.16,0.18,-0.31,-0.17,
3.172,-0.02,-0.57,3.16,0.16,-0.24,-0.17,
3.173,-0.02,-0.57,3.16,0.14,-0.17,-0.16,
3.176,-0.02,-0.57,3.16,0.12,-0.10,-0.16,
3.178,-0.29,-0.36,3.48,0.12,-0.10,-0.16,
3.178,-0.29,-0.36,3.48,0.09,-0.04,-0.16,
3.179,-0.29,-0.36,3.48,0.06,0.01,-0.16,
3.182,-0.29,-0.36,3.48,0.04,0.06,-0.16,
3.183,-0.29,-0.36,3.48,0.00,0.10,-0.17,
3.185,-0.29,-0.36,3.48,-0.03,0.12,-0.18,
3.188,-0.38,-0.11,3.39,-0.03,0.12,-0.18,
3.188,-0.38,-0.11,3.39,-0.08,0.13,-0.18,
3.191,-0.38,-0.11,3.39,-0.12,0.13,-0.19,
3.194,-0.38,-0.11,3.39,-0.18,0.11,-0.20,
3.194,-0.38,-0.11,3.39,-0.24,0.08,-0.22,
3.195,-0.38,-0.11,3.39,-0.30,0.04,-0.23,
3.199,-0.44,0.04,3.14,-0.30,0.04,-0.23,
3.201,-0.44,0.04,3.14,-0.37,-0.02,-0.25,
3.202,-0.44,0.04,3.14,-0.45,-0.08,-0.26,
3.203,-0.44,0.04,3.14,-0.52,-0.16,-0.28,
3.204,-0.44,0.04,3.14,-0.60,-0.24,-0.30,
3.208,-0.44,0.04,3.14,-0.69,-0.33,-0.32,
3.208,-0.41,0.13,3.46,-0.69,-0.33,-0.32,
3.208,-0.41,0.13,3.46,-0.77,-0.43,-0.34,
3.212,-0.41,0.13,3.46,-0.86,-0.53,-0.37,
3.212,-0.41,0.13,3.46,-0.94,-0.64,-0.39,
3.213,-0.41,0.13,3.46,-1.02,-0.75,-0.42,
3.215,-0.41,0.13,3.46,-1.09,-0.86,-0.45,
3.218,-0.20,-0.18,5.09,-1.09,-0.86,-0.45,
3.218,-0.20,-0.18,5.09,-1.16,-0.96,-0.48,
3.219,-0.20,-0.18,5.09,-1.22,-1.05,-0.51,
3.221,-0.20,-0.18,5.09,-1.28,-1.14,-0.54,
3.223,-0.20,-0.18,5.09,-1.33,-1.21,-0.57,
3.226,-0.20,-0.18,5.09,-1.36,-1.28,-0.59,
3.228,-0.02,-0.66,7.81,-1.36,-1.28,-0.59,
3.228,-0.02,-0.66,7.81,-1.40,-1.32,-0.61,
3.23,-0.02,-0.66,7.81,-1.41,-1.34,-0.63,
3.231,-0.02,-0.66,7.81,-1.43,-1.35,-0.65,
3.233,-0.02,-0.66,7.81,-1.43,-1.34,-0.66,
3.235,-0.02,-0.66,7.81,-1.43,-1.31,-0.67,
3.237,-0.01,-1.27,10.71,-1.43,-1.31,-0.67,
3.238,-0.01,-1.27,10.71,-1.41,-1.27,-0.67,
3.239,-0.01,-1.27,10.71,-1.38,-1.21,-0.68,
3.242,-0.01,-1.27,10.71,-1.34,-1.13,-0.68,
3.243,-0.01,-1.27,10.71,-1.30,-1.03,-0.67,
3.245,-0.01,-1.27,10.71,-1.25,-0.92,-0.66,
3.247,-0.15,-1.87,12.97,-1.25,-0.92,-0.66,
3.247,-0.15,-1.87,12.97,-1.19,-0.81,-0.65,
3.249,-0.15,-1.87,12.97,-1.13,-0.68,-0.63,
3.251,-0.15,-1.87,12.97,-1.06,-0.54,-0.60,
3.253,-0.15,-1.87,12.97,-1.00,-0.40,-0.57,
3.255,-0.15,-1.87,12.97,-0.93,-0.28,-0.54,
3.266,-0.72,-2.19,13.53,-0.93,-0.28,-0.54,
3.267,-0.72,-2.19,13.53,-0.87,-0.15,-0.50,
3.267,-0.72,-2.19,13.53,-0.80,-0.03,-0.46,
3.267,-0.72,-2.19,13.53,-0.74,0.08,-0.43,
3.267,-0.72,-2.19,13.53,-0.67,0.18,-0.39,
3.267,-0.72,-2.19,13.53,-0.61,0.28,-0.35,
3.267,-0.96,-2.45,12.62,-0.61,0.28,-0.35,
3.268,-0.96,-2.45,12.62,-0.55,0.36,-0.31,
3.274,-0.96,-2.45,12.62,-0.49,0.43,-0.28,
3.274,-0.96,-2.45,12.62,-0.40,0.51,-0.22,
3.274,-0.96,-2.45,12.62,-0.38,0.53,-0.21,
3.275,-0.96,-2.45,12.62,-0.34,0.57,-0.18,
3.278,-1.14,-2.14,10.66,-0.34,0.57,-0.18,
3.279,-1.14,-2.14,10.66,-0.30,0.59,-0.14,
3.28,-1.14,-2.14,10.66,-0.26,0.61,-0.11,
3.281,-1.14,-2.14,10.66,-0.22,0.61,-0.08,
3.283,-1.14,-2.14,10.66,-0.20,0.61,-0.06,
3.285,-1.14,-2.14,10.66,-0.18,0.59,-0.05,
3.287,-0.94,-1.51,8.25,-0.18,0.59,-0.05,
3.287,-0.94,-1.51,8.25,-0.16,0.58,-0.03,
3.289,-0.94,-1.51,8.25,-0.14,0.55,-0.01,
3.292,-0.94,-1.51,8.25,-0.11,0.51,-0.00,
3.293,-0.94,-1.51,8.25,-0.11,0.50,0.00,
3.295,-0.94,-1.51,8.25,-0.09,0.46,0.01,
3.297,-0.50,-1.08,6.15,-0.09,0.46,0.01,
3.297,-0.50,-1.08,6.15,-0.08,0.43,0.01,
3.299,-0.50,-1.08,6.15,-0.07,0.40,0.01,
3.301,-0.50,-1.08,6.15,-0.06,0.35,0.02,
3.303,-0.50,-1.08,6.15,-0.05,0.34,0.01,
3.305,-0.50,-1.08,6.15,-0.04,0.31,0.01,
3.308,-0.12,-0.61,4.49,-0.04,0.31,0.01,
3.308,-0.12,-0.61,4.49,-0.03,0.29,0.01,
3.309,-0.12,-0.61,4.49,-0.01,0.28,0.01,
3.311,-0.12,-0.61,4.49,0.00,0.27,0.01,
3.313,-0.12,-0.61,4.49,0.01,0.27,0.00,
3.315,-0.12,-0.61,4.49,0.02,0.28,0.00,
3.317,0.12,-0.34,3.03,0.02,0.28,0.00,
3.318,0.12,-0.34,3.03,0.03,0.29,0.00,
3.319,0.12,-0.34,3.03,0.04,0.31,0.00,
3.321,0.12,-0.34,3.03,0.06,0.35,0.01,
3.323,0.12,-0.34,3.03,0.06,0.37,0.01,
3.325,0.12,-0.34,3.03,0.08,0.40,0.02,
3.327,0.06,-0.14,1.63,0.08,0.40,0.02,
3.328,0.06,-0.14,1.63,0.10,0.46,0.02,
3.329,0.06,-0.14,1.63,0.11,0.50,0.03,
3.331,0.06,-0.14,1.63,0.13,0.55,0.04,
3.333,0.06,-0.14,1.63,0.13,0.57,0.04,
3.335,0.06,-0.14,1.63,0.15,0.61,0.05,
3.337,-0.10,-0.05,0.21,0.15,0.61,0.05,
3.337,-0.10,-0.05,0.21,0.17,0.68,0.07,
3.339,-0.10,-0.05,0.21,0.18,0.70,0.08,
3.341,-0.10,-0.05,0.21,0.20,0.77,0.09,
3.343,-0.10,-0.05,0.21,0.21,0.80,0.10,
3.345,-0.10,-0.05,0.21,0.22,0.84,0.11,
3.347,-0.29,0.07,-1.35,0.22,0.84,0.11,
3.348,-0.29,0.07,-1.35,0.23,0.90,0.13,
3.349,-0.29,0.07,-1.35,0.24,0.92,0.14,
3.351,-0.29,0.07,-1.35,0.25,0.97,0.16,
3.353,-0.29,0.07,-1.35,0.25,0.99,0.17,
3.355,-0.29,0.07,-1.35,0.26,1.01,0.18,
3.368,-0.41,0.22,-2.85,0.26,1.01,0.18,
3.369,-0.41,0.22,-2.85,0.27,1.04,0.20,
3.369,-0.41,0.22,-2.85,0.28,1.05,0.22,
3.369,-0.41,0.22,-2.85,0.29,1.06,0.23,
3.37,-0.41,0.22,-2.85,0.30,1.07,0.24,
3.37,-0.41,0.22,-2.85,0.30,1.06,0.26,
3.37,-0.44,0.29,-4.05,0.30,1.06,0.26,
3.371,-0.44,0.29,-4.05,0.31,1.05,0.27,
3.374,-0.44,0.29,-4.05,0.32,1.03,0.29,
3.374,-0.44,0.29,-4.05,0.33,1.02,0.30,
3.375,-0.44,0.29,-4.05,0.34,0.99,0.31,
3.375,-0.44,0.29,-4.05,0.34,0.97,0.33,
3.393,-0.52,0.41,-5.02,0.34,0.97,0.33,
3.394,-0.52,0.41,-5.02,0.35,0.93,0.34,
3.394,-0.52,0.41,-5.02,0.36,0.90,0.35,
3.394,-0.52,0.41,-5.02,0.37,0.85,0.37,
3.395,-0.52,0.41,-5.02,0.38,0.81,0.38,
3.395,-0.52,0.41,-5.02,0.39,0.76,0.39,
3.395,-0.62,0.47,-5.73,0.39,0.76,0.39,
3.396,-0.62,0.47,-5.73,0.39,0.71,0.40,
3.396,-0.62,0.47,-5.73,0.40,0.65,0.41,
3.396,-0.62,0.47,-5.73,0.41,0.59,0.42,
3.396,-0.62,0.47,-5.73,0.42,0.53,0.43,
3.399,-0.62,0.47,-5.73,0.42,0.47,0.44,
3.4,-0.75,0.55,-6.37,0.42,0.47,0.44,
3.4,-0.75,0.55,-6.37,0.43,0.41,0.45,
3.4,-0.75,0.55,-6.37,0.43,0.34,0.45,
3.401,-0.75,0.55,-6.37,0.44,0.28,0.46,
3.403,-0.75,0.55,-6.37,0.44,0.21,0.47,
3.405,-0.75,0.55,-6.37,0.45,0.15,0.48,
3.408,-0.76,0.37,-6.68,0.45,0.15,0.48,
3.411,-0.76,0.37,-6.68,0.46,0.09,0.49,
3.412,-0.76,0.37,-6.68,0.47,0.02,0.50,
3.412,-0.76,0.37,-6.68,0.48,-0.05,0.51,
3.416,-0.76,0.37,-6.68,0.49,-0.12,0.53,
3.416,-0.76,0.37,-6.68,0.50,-0.19,0.55,
3.418,-1.13,0.34,-6.80,0.50,-0.19,0.55,
3.418,-1.13,0.34,-6.80,0.51,-0.26,0.57,
3.419,-1.13,0.34,-6.80,0.52,-0.33,0.59,
3.422,-1.13,0.34,-6.80,0.53,-0.41,0.62,
3.451,-1.13,0.34,-6.80,0.55,-0.49,0.65,
3.452,-1.13,0.34,-6.80,0.56,-0.57,0.68,
3.452,-1.52,0.13,-6.70,0.56,-0.57,0.68,
3.453,-1.52,0.13,-6.70,0.57,-0.65,0.72,
3.453,-1.52,0.13,-6.70,0.58,-0.74,0.76,
3.454,-1.52,0.13,-6.70,0.59,-0.82,0.80,
3.454,-1.52,0.13,-6.70,0.61,-0.91,0.84,
3.454,-1.52,0.13,-6.70,0.62,-1.00,0.88,
3.455,-1.93,0.01,-6.36,0.62,-1.00,0.88,
3.455,-1.93,0.01,-6.36,0.64,-1.08,0.92,
3.456,-1.93,0.01,-6.36,0.65,-1.17,0.97,
3.456,-1.93,0.01,-6.36,0.67,-1.25,1.01,
3.456,-1.93,0.01,-6.36,0.70,-1.33,1.05,
3.457,-1.93,0.01,-6.36,0.72,-1.41,1.09,
3.457,-1.74,-0.15,-5.56,0.72,-1.41,1.09,
3.458,-1.74,-0.15,-5.56,0.75,-1.49,1.13,
3.458,-1.74,-0.15,-5.56,0.79,-1.56,1.17,
3.458,-1.74,-0.15,-5.56,0.82,-1.62,1.20,
3.459,-1.74,-0.15,-5.56,0.86,-1.69,1.24,
3.459,-1.74,-0.15,-5.56,0.90,-1.75,1.27,
3.46,-1.29,-0.23,-4.51,0.90,-1.75,1.27,
3.46,-1.29,-0.23,-4.51,0.94,-1.82,1.30,
3.461,-1.29,-0.23,-4.51,0.99,-1.87,1.32,
3.473,-1.29,-0.23,-4.51,1.04,-1.92,1.34,
3.473,-1.29,-0.23,-4.51,1.10,-1.96,1.36,
3.474,-1.29,-0.23,-4.51,1.15,-2.00,1.38,
3.474,-0.59,-0.31,-3.42,1.15,-2.00,1.38,
3.474,-0.59,-0.31,-3.42,1.21,-2.03,1.39,
3.474,-0.59,-0.31,-3.42,1.27,-2.05,1.40,
3.475,-0.59,-0.31,-3.42,1.33,-2.07,1.41,
3.475,-0.59,-0.31,-3.42,1.39,-2.08,1.41,
3.475,-0.59,-0.31,-3.42,1.45,-2.08,1.40,
3.48,0.14,-0.34,-2.56,1.45,-2.08,1.40,
3.48,0.14,-0.34,-2.56,1.51,-2.08,1.40,
3.481,0.14,-0.34,-2.56,1.58,-2.08,1.39,
3.484,0.14,-0.34,-2.56,1.64,-2.06,1.37,
3.484,0.14,-0.34,-2.56,1.70,-2.05,1.36,
3.485,0.14,-0.34,-2.56,1.76,-2.02,1.34,
3.49,0.80,-0.48,-2.11,1.76,-2.02,1.34,
3.49,0.80,-0.48,-2.11,1.81,-1.99,1.32,
3.49,0.80,-0.48,-2.11,1.86,-1.96,1.30,
3.498,0.80,-0.48,-2.11,1.98,-1.81,1.21,
3.498,0.80,-0.48,-2.11,1.98,-1.81,1.21,
3.499,0.80,-0.48,-2.11,1.98,-1.81,1.21,
3.499,0.80,-0.48,-2.11,2.01,-1.75,1.18,
3.499,1.37,-0.56,-2.29,2.01,-1.75,1.18,
3.499,1.37,-0.56,-2.29,2.03,-1.68,1.14,
3.504,1.37,-0.56,-2.29,2.04,-1.61,1.10,
3.507,1.37,-0.56,-2.29,2.04,-1.54,1.07,
3.508,1.37,-0.56,-2.29,2.04,-1.47,1.03,
3.518,1.65,-0.61,-2.95,2.04,-1.47,1.03,
3.519,1.65,-0.61,-2.95,2.04,-1.39,0.99,
3.519,1.65,-0.61,-2.95,2.02,-1.31,0.94,
3.52,1.65,-0.61,-2.95,2.00,-1.22,0.90,
3.52,1.65,-0.61,-2.95,1.98,-1.13,0.86,
3.52,1.65,-0.61,-2.95,1.95,-1.04,0.81,
3.52,1.80,-0.65,-3.64,1.95,-1.04,0.81,
3.52,1.80,-0.65,-3.64,1.91,-0.94,0.77,
3.521,1.80,-0.65,-3.64,1.88,-0.85,0.73,
3.524,1.80,-0.65,-3.64,1.84,-0.75,0.68,
3.524,1.80,-0.65,-3.64,1.79,-0.66,0.63,
3.55,1.80,-0.65,-3.64,1.74,-0.57,0.59,
3.551,1.48,-0.74,-4.11,1.74,-0.57,0.59,
3.551,1.48,-0.74,-4.11,1.69,-0.48,0.55,
3.552,1.48,-0.74,-4.11,1.64,-0.39,0.50,
3.552,1.48,-0.74,-4.11,1.58,-0.31,0.45,
3.552,1.48,-0.74,-4.11,1.53,-0.24,0.41,
3.552,1.48,-0.74,-4.11,1.47,-0.17,0.37,
3.552,0.98,-0.83,-4.29,1.47,-0.17,0.37,
3.553,0.98,-0.83,-4.29,1.41,-0.10,0.34,
3.553,0.98,-0.83,-4.29,1.36,-0.04,0.30,
3.553,0.98,-0.83,-4.29,1.30,0.02,0.27,
3.553,0.98,-0.83,-4.29,1.25,0.07,0.24,
3.554,0.98,-0.83,-4.29,1.20,0.12,0.21,
3.554,0.12,-0.98,-3.84,1.20,0.12,0.21,
3.554,0.12,-0.98,-3.84,1.15,0.17,0.18,
3.554,0.12,-0.98,-3.84,1.11,0.21,0.16,
3.555,0.12,-0.98,-3.84,1.06,0.26,0.14,
3.555,0.12,-0.98,-3.84,1.02,0.30,0.13,
3.555,0.12,-0.98,-3.84,0.98,0.33,0.12,
3.562,-0.74,-1.07,-3.16,0.98,0.33,0.12,
3.563,-0.74,-1.07,-3.16,0.94,0.36,0.11,
3.563,-0.74,-1.07,-3.16,0.90,0.39,0.11,
3.563,-0.74,-1.07,-3.16,0.87,0.41,0.10,
3.563,-0.74,-1.07,-3.16,0.83,0.43,0.10,
3.565,-0.74,-1.07,-3.16,0.80,0.45,0.10,
3.568,-1.33,-1.18,-2.30,0.80,0.45,0.10,
3.568,-1.33,-1.18,-2.30,0.78,0.47,0.10,
3.569,-1.33,-1.18,-2.30,0.76,0.48,0.10,
3.571,-1.33,-1.18,-2.30,0.73,0.49,0.10,
3.58,-1.33,-1.18,-2.30,0.70,0.49,0.11,
3.581,-1.33,-1.18,-2.30,0.69,0.49,0.11,
3.581,-1.61,-1.12,-1.47,0.69,0.49,0.11,
3.581,-1.61,-1.12,-1.47,0.66,0.48,0.11,
3.581,-1.61,-1.12,-1.47,0.64,0.47,0.11,
3.581,-1.61,-1.12,-1.47,0.62,0.45,0.10,
3.585,-1.61,-1.12,-1.47,0.60,0.43,0.10,
3.585,-1.61,-1.12,-1.47,0.57,0.40,0.09,
3.588,-1.45,-0.94,-0.95,0.57,0.40,0.09,
3.588,-1.45,-0.94,-0.95,0.55,0.37,0.08,
3.605,-1.45,-0.94,-0.95,0.52,0.33,0.07,
3.605,-1.45,-0.94,-0.95,0.49,0.29,0.06,
3.605,-1.45,-0.94,-0.95,0.45,0.24,0.04,
3.606,-1.45,-0.94,-0.95,0.42,0.19,0.03,
3.606,-1.04,-0.68,-0.62,0.42,0.19,0.03,
3.606,-1.04,-0.68,-0.62,0.38,0.14,0.01,
3.606,-1.04,-0.68,-0.62,0.34,0.09,-0.02,
3.606,-1.04,-0.68,-0.62,0.30,0.03,-0.04,
3.606,-1.04,-0.68,-0.62,0.25,-0.04,-0.07,
3.606,-1.04,-0.68,-0.62,0.20,-0.10,-0.10,
3.61,-0.47,-0.39,-0.36,0.20,-0.10,-0.10,
3.611,-0.47,-0.39,-0.36,0.15,-0.17,-0.14,
3.611,-0.47,-0.39,-0.36,0.10,-0.24,-0.17,
3.613,-0.47,-0.39,-0.36,0.04,-0.31,-0.20,
3.614,-0.47,-0.39,-0.36,-0.02,-0.39,-0.24,
3.615,-0.47,-0.39,-0.36,-0.08,-0.47,-0.28,
3.618,-0.04,-0.05,0.18,-0.08,-0.47,-0.28,
3.618,-0.04,-0.05,0.18,-0.14,-0.54,-0.32,
3.619,-0.04,-0.05,0.18,-0.20,-0.62,-0.36,
3.621,-0.04,-0.05,0.18,-0.25,-0.69,-0.40,
3.624,-0.04,-0.05,0.18,-0.31,-0.75,-0.44,
3.626,-0.04,-0.05,0.18,-0.37,-0.80,-0.49,
3.63,0.31,0.26,1.29,-0.37,-0.80,-0.49,
3.63,0.31,0.26,1.29,-0.42,-0.84,-0.53,
3.63,0.31,0.26,1.29,-0.47,-0.87,-0.57,
3.631,0.31,0.26,1.29,-0.53,-0.88,-0.61,
3.633,0.31,0.26,1.29,-0.58,-0.88,-0.66,
3.635,0.31,0.26,1.29,-0.63,-0.87,-0.70,
3.638,0.66,0.42,2.62,-0.63,-0.87,-0.70,
3.638,0.66,0.42,2.62,-0.68,-0.85,-0.74,
3.639,0.66,0.42,2.62,-0.73,-0.82,-0.79,
3.643,0.66,0.42,2.62,-0.78,-0.78,-0.83,
3.643,0.66,0.42,2.62,-0.83,-0.73,-0.87,
3.645,0.66,0.42,2.62,-0.89,-0.68,-0.90,
3.647,0.83,0.50,3.76,-0.89,-0.68,-0.90,
3.648,0.83,0.50,3.76,-0.94,-0.63,-0.95,
3.649,0.83,0.50,3.76,-1.00,-0.57,-0.99,
3.651,0.83,0.50,3.76,-1.06,-0.52,-1.03,
3.653,0.83,0.50,3.76,-1.12,-0.46,-1.07,
3.655,0.83,0.50,3.76,-1.18,-0.41,-1.11,
3.663,0.90,0.43,4.70,-1.18,-0.41,-1.11,
3.664,0.90,0.43,4.70,-1.24,-0.36,-1.15,
3.664,0.90,0.43,4.70,-1.30,-0.30,-1.20,
3.664,0.90,0.43,4.70,-1.36,-0.24,-1.24,
3.664,0.90,0.43,4.70,-1.42,-0.17,-1.28,
3.665,0.90,0.43,4.70,-1.48,-0.10,-1.32,
3.67,1.10,-0.11,5.64,-1.48,-0.10,-1.32,
3.67,1.10,-0.11,5.64,-1.53,-0.03,-1.36,
3.67,1.10,-0.11,5.64,-1.58,0.04,-1.39,
3.673,1.10,-0.11,5.64,-1.63,0.12,-1.43,
3.696,1.10,-0.11,5.64,-1.67,0.20,-1.45,
3.696,1.10,-0.11,5.64,-1.70,0.28,-1.48,
3.697,1.25,-1.10,6.58,-1.70,0.28,-1.48,
3.697,1.25,-1.10,6.58,-1.74,0.37,-1.50,
3.697,1.25,-1.10,6.58,-1.77,0.45,-1.51,
3.698,1.25,-1.10,6.58,-1.80,0.54,-1.52,
3.698,1.25,-1.10,6.58,-1.82,0.62,-1.53,
3.698,1.25,-1.10,6.58,-1.84,0.70,-1.53,
3.698,0.98,-1.84,7.13,-1.84,0.70,-1.53,
3.699,0.98,-1.84,7.13,-1.86,0.78,-1.53,
3.699,0.98,-1.84,7.13,-1.88,0.85,-1.53,
3.699,0.98,-1.84,7.13,-1.90,0.92,-1.52,
3.7,0.98,-1.84,7.13,-1.91,0.99,-1.51,
3.7,0.98,-1.84,7.13,-1.93,1.06,-1.51,
3.7,0.68,-2.31,7.17,-1.93,1.06,-1.51,
3.7,0.68,-2.31,7.17,-1.93,1.12,-1.50,
3.701,0.68,-2.31,7.17,-1.94,1.19,-1.49,
3.709,0.68,-2.31,7.17,-1.95,1.25,-1.47,
3.709,0.68,-2.31,7.17,-1.95,1.30,-1.46,
3.71,0.68,-2.31,7.17,-1.96,1.35,-1.44,
3.711,0.36,-2.45,6.77,-1.96,1.35,-1.44,
3.711,0.36,-2.45,6.77,-1.96,1.41,-1.42,
3.711,0.36,-2.45,6.77,-1.96,1.45,-1.39,
3.716,0.36,-2.45,6.77,-1.96,1.49,-1.37,
3.719,0.36,-2.45,6.77,-1.96,1.53,-1.34,
3.72,0.36,-2.45,6.77,-1.95,1.57,-1.31,
3.72,-0.13,-2.59,6.12,-1.95,1.57,-1.31,
3.72,-0.13,-2.59,6.12,-1.94,1.61,-1.27,
3.722,-0.13,-2.59,6.12,-1.94,1.64,-1.23,
3.724,-0.13,-2.59,6.12,-1.92,1.67,-1.19,
3.726,-0.13,-2.59,6.12,-1.91,1.69,-1.15,
3.727,-0.13,-2.59,6.12,-1.90,1.71,-1.10,
3.739,-0.52,-2.47,5.30,-1.90,1.71,-1.10,
3.74,-0.52,-2.47,5.30,-1.88,1.73,-1.05,
3.74,-0.52,-2.47,5.30,-1.86,1.74,-1.01,
3.741,-0.52,-2.47,5.30,-1.84,1.75,-0.96,
3.741,-0.52,-2.47,5.30,-1.81,1.75,-0.90,
3.742,-0.52,-2.47,5.30,-1.78,1.74,-0.85,
3.742,-0.74,-2.32,4.59,-1.78,1.74,-0.85,
3.743,-0.74,-2.32,4.59,-1.75,1.73,-0.80,
3.743,-0.74,-2.32,4.59,-1.71,1.71,-0.75,
3.744,-0.74,-2.32,4.59,-1.67,1.69,-0.70,
3.744,-0.74,-2.32,4.59,-1.63,1.66,-0.64,
3.746,-0.74,-2.32,4.59,-1.58,1.63,-0.59,
3.747,-0.81,-1.99,4.06,-1.58,1.63,-0.59,
3.748,-0.81,-1.99,4.06,-1.53,1.60,-0.54,
3.749,-0.81,-1.99,4.06,-1.47,1.57,-0.48,
3.751,-0.81,-1.99,4.06,-1.41,1.53,-0.43,
3.753,-0.81,-1.99,4.06,-1.35,1.49,-0.37,
3.755,-0.81,-1.99,4.06,-1.28,1.45,-0.31,
3.786,-0.83,-1.60,3.60,-1.28,1.45,-0.31,
3.787,-0.83,-1.60,3.60,-1.21,1.40,-0.25,
3.787,-0.83,-1.60,3.60,-1.15,1.36,-0.20,
3.788,-0.83,-1.60,3.60,-1.08,1.31,-0.14,
3.788,-0.83,-1.60,3.60,-1.01,1.26,-0.08,
3.789,-0.83,-1.60,3.60,-0.94,1.21,-0.02,
3.789,-0.70,-1.23,2.97,-0.94,1.21,-0.02,
3.789,-0.70,-1.23,2.97,-0.86,1.16,0.03,
3.79,-0.70,-1.23,2.97,-0.79,1.12,0.09,
3.79,-0.70,-1.23,2.97,-0.72,1.07,0.14,
3.79,-0.70,-1.23,2.97,-0.65,1.02,0.19,
3.791,-0.70,-1.23,2.97,-0.58,0.98,0.24,
3.791,-0.38,-0.92,2.21,-0.58,0.98,0.24,
3.791,-0.38,-0.92,2.21,-0.51,0.93,0.29,
3.791,-0.38,-0.92,2.21,-0.43,0.89,0.33,
3.792,-0.38,-0.92,2.21,-0.36,0.86,0.38,
3.792,-0.38,-0.92,2.21,-0.29,0.82,0.42,
3.792,-0.38,-0.92,2.21,-0.23,0.78,0.46,
3.792,0.03,-0.58,1.30,-0.23,0.78,0.46,
3.793,0.03,-0.58,1.30,-0.16,0.74,0.50,
3.793,0.03,-0.58,1.30,-0.10,0.70,0.54,
3.793,0.03,-0.58,1.30,-0.04,0.66,0.58,
3.8,0.03,-0.58,1.30,0.02,0.63,0.61,
3.801,0.03,-0.58,1.30,0.07,0.59,0.65,
3.801,0.29,-0.24,0.13,0.07,0.59,0.65,
3.802,0.29,-0.24,0.13,0.12,0.56,0.68,
3.802,0.29,-0.24,0.13,0.17,0.53,0.71,
3.802,0.29,-0.24,0.13,0.21,0.50,0.74,
3.809,0.29,-0.24,0.13,0.25,0.47,0.77,
3.809,0.29,-0.24,0.13,0.29,0.44,0.80,
3.81,0.52,-0.04,-1.15,0.29,0.44,0.80,
3.81,0.52,-0.04,-1.15,0.32,0.41,0.82,
3.81,0.52,-0.04,-1.15,0.35,0.39,0.85,
3.812,0.52,-0.04,-1.15,0.37,0.37,0.87,
3.813,0.52,-0.04,-1.15,0.40,0.34,0.89,
3.815,0.52,-0.04,-1.15,0.42,0.33,0.92,
3.818,0.72,0.08,-2.27,0.42,0.33,0.92,
3.818,0.72,0.08,-2.27,0.44,0.31,0.94,
3.819,0.72,0.08,-2.27,0.46,0.30,0.96,
3.821,0.72,0.08,-2.27,0.48,0.29,0.98,
3.834,0.72,0.08,-2.27,0.50,0.28,1.00,
3.835,0.72,0.08,-2.27,0.51,0.27,1.02,
3.835,0.83,0.12,-3.12,0.51,0.27,1.02,
3.835,0.83,0.12,-3.12,0.53,0.27,1.04,
3.836,0.83,0.12,-3.12,0.54,0.26,1.06,
3.836,0.83,0.12,-3.12,0.55,0.25,1.08,
3.836,0.83,0.12,-3.12,0.56,0.25,1.09,
3.836,0.83,0.12,-3.12,0.57,0.24,1.11,
3.861,1.03,0.25,-3.82,0.57,0.24,1.11,
3.862,1.03,0.25,-3.82,0.58,0.24,1.12,
3.862,1.03,0.25,-3.82,0.59,0.24,1.13,
3.862,1.03,0.25,-3.82,0.59,0.22,1.14,
3.863,1.03,0.25,-3.82,0.60,0.21,1.14,
3.863,1.03,0.25,-3.82,0.60,0.20,1.14,
3.863,1.47,0.15,-4.36,0.60,0.20,1.14,
3.863,1.47,0.15,-4.36,0.60,0.19,1.14,
3.864,1.47,0.15,-4.36,0.60,0.18,1.14,
3.864,1.47,0.15,-4.36,0.60,0.16,1.13,
3.864,1.47,0.15,-4.36,0.61,0.15,1.12,
3.864,1.47,0.15,-4.36,0.61,0.14,1.11,
3.865,1.98,0.22,-4.70,0.61,0.14,1.11,
3.865,1.98,0.22,-4.70,0.61,0.13,1.10,
3.865,1.98,0.22,-4.70,0.62,0.12,1.09,
3.865,1.98,0.22,-4.70,0.62,0.11,1.07,
3.865,1.98,0.22,-4.70,0.62,0.11,1.06,
3.866,1.98,0.22,-4.70,0.63,0.10,1.04,
3.868,2.11,0.34,-4.81,0.63,0.10,1.04,
3.869,2.11,0.34,-4.81,0.63,0.10,1.02,
3.869,2.11,0.34,-4.81,0.63,0.09,1.01,
3.872,2.11,0.34,-4.81,0.63,0.09,0.99,
3.874,2.11,0.34,-4.81,0.63,0.08,0.96,
3.875,2.11,0.34,-4.81,0.62,0.08,0.94,
3.878,2.32,0.41,-5.03,0.62,0.08,0.94,
3.878,2.32,0.41,-5.03,0.62,0.09,0.92,
3.885,2.32,0.41,-5.03,0.62,0.09,0.90,
3.885,2.32,0.41,-5.03,0.61,0.09,0.88,
3.885,2.32,0.41,-5.03,0.60,0.10,0.85,
3.886,2.32,0.41,-5.03,0.59,0.11,0.82,
3.887,2.34,0.30,-5.25,0.59,0.11,0.82,
3.888,2.34,0.30,-5.25,0.57,0.11,0.79,
3.893,2.34,0.30,-5.25,0.55,0.11,0.76,
3.895,2.34,0.30,-5.25,0.53,0.11,0.72,
3.902,2.34,0.30,-5.25,0.51,0.11,0.69,
3.902,2.34,0.30,-5.25,0.49,0.12,0.65,
3.903,2.45,0.22,-5.52,0.49,0.12,0.65,
3.904,2.45,0.22,-5.52,0.47,0.11,0.62,
3.904,2.45,0.22,-5.52,0.44,0.11,0.58,
3.905,2.45,0.22,-5.52,0.42,0.11,0.55,
3.905,2.45,0.22,-5.52,0.39,0.11,0.52,
3.906,2.45,0.22,-5.52,0.37,0.11,0.50,
3.913,1.90,0.11,-5.34,0.37,0.11,0.50,
3.914,1.90,0.11,-5.34,0.35,0.11,0.47,
3.914,1.90,0.11,-5.34,0.33,0.12,0.45,
3.914,1.90,0.11,-5.34,0.31,0.12,0.44,
3.914,1.90,0.11,-5.34,0.29,0.12,0.42,
3.917,1.90,0.11,-5.34,0.27,0.13,0.41,
3.918,1.21,-0.03,-4.76,0.27,0.13,0.41,
3.918,1.21,-0.03,-4.76,0.26,0.13,0.40,
3.919,1.21,-0.03,-4.76,0.25,0.13,0.39,
3.921,1.21,-0.03,-4.76,0.24,0.14,0.39,
3.942,1.21,-0.03,-4.76,0.23,0.14,0.39,
3.942,1.21,-0.03,-4.76,0.21,0.14,0.39,
3.943,0.50,-0.28,-4.00,0.21,0.14,0.39,
3.943,0.50,-0.28,-4.00,0.20,0.13,0.39,
3.943,0.50,-0.28,-4.00,0.19,0.13,0.39,
3.943,0.50,-0.28,-4.00,0.18,0.12,0.39,
3.943,0.50,-0.28,-4.00,0.18,0.12,0.39,
3.943,0.50,-0.28,-4.00,0.17,0.11,0.39,
3.943,0.10,-0.39,-3.10,0.17,0.11,0.39,
3.944,0.10,-0.39,-3.10,0.17,0.10,0.39,
3.944,0.10,-0.39,-3.10,0.17,0.09,0.39,
3.944,0.10,-0.39,-3.10,0.17,0.09,0.40,
3.944,0.10,-0.39,-3.10,0.18,0.08,0.40,
3.95,0.10,-0.39,-3.10,0.19,0.08,0.41,
3.951,-0.26,-0.55,-2.00,0.19,0.08,0.41,
3.951,-0.26,-0.55,-2.00,0.20,0.07,0.42,
3.951,-0.26,-0.55,-2.00,0.22,0.07,0.43,
3.951,-0.26,-0.55,-2.00,0.24,0.06,0.44,
3.956,-0.26,-0.55,-2.00,0.26,0.06,0.45,
3.956,-0.26,-0.55,-2.00,0.27,0.06,0.47,
3.966,-0.45,-0.74,-1.03,0.27,0.06,0.47,
3.966,-0.45,-0.74,-1.03,0.29,0.05,0.48,
3.966,-0.45,-0.74,-1.03,0.32,0.05,0.49,
3.967,-0.45,-0.74,-1.03,0.34,0.04,0.50,
3.967,-0.45,-0.74,-1.03,0.37,0.04,0.52,
3.967,-0.45,-0.74,-1.03,0.39,0.04,0.53,
3.968,-0.43,-0.82,-0.28,0.39,0.04,0.53,
3.968,-0.43,-0.82,-0.28,0.42,0.04,0.54,
3.969,-0.43,-0.82,-0.28,0.45,0.04,0.55,
3.973,-0.43,-0.82,-0.28,0.48,0.04,0.55,
4.001,-0.43,-0.82,-0.28,0.50,0.04,0.55,
4.001,-0.43,-0.82,-0.28,0.53,0.04,0.56,
4.002,-0.25,-0.91,0.16,0.53,0.04,0.56,
4.002,-0.25,-0.91,0.16,0.56,0.05,0.56,
4.002,-0.25,-0.91,0.16,0.59,0.05,0.56,
4.003,-0.25,-0.91,0.16,0.61,0.06,0.57,
4.003,-0.25,-0.91,0.16,0.63,0.07,0.57,
4.003,-0.25,-0.91,0.16,0.66,0.08,0.58,
4.003,-0.19,-0.94,0.29,0.66,0.08,0.58,
4.004,-0.19,-0.94,0.29,0.68,0.09,0.58,
4.004,-0.19,-0.94,0.29,0.70,0.10,0.59,
4.004,-0.19,-0.94,0.29,0.71,0.11,0.60,
4.005,-0.19,-0.94,0.29,0.73,0.12,0.60,
4.005,-0.19,-0.94,0.29,0.74,0.13,0.60,
4.005,-0.24,-0.99,0.09,0.74,0.13,0.60,
4.006,-0.24,-0.99,0.09,0.75,0.14,0.61,
4.006,-0.24,-0.99,0.09,0.75,0.14,0.61,
4.006,-0.24,-0.99,0.09,0.75,0.15,0.62,
4.006,-0.24,-0.99,0.09,0.75,0.16,0.62,
4.007,-0.24,-0.99,0.09,0.74,0.16,0.62,
4.01,-0.13,-1.00,-0.20,0.74,0.16,0.62,
4.01,-0.13,-1.00,-0.20,0.74,0.17,0.62,
4.011,-0.13,-1.00,-0.20,0.73,0.18,0.62,
4.013,-0.13,-1.00,-0.20,0.72,0.18,0.62,
4.013,-0.13,-1.00,-0.20,0.71,0.19,0.62,
4.015,-0.13,-1.00,-0.20,0.71,0.20,0.62,
4.018,-0.12,-1.00,-0.36,0.71,0.20,0.62,
4.018,-0.12,-1.00,-0.36,0.70,0.20,0.62,
4.019,-0.12,-1.00,-0.36,0.68,0.21,0.63,
4.021,-0.12,-1.00,-0.36,0.67,0.21,0.63,
4.024,-0.12,-1.00,-0.36,0.66,0.21,0.63,
4.026,-0.12,-1.00,-0.36,0.65,0.21,0.63,
4.028,-0.11,-0.87,-0.41,0.65,0.21,0.63,
4.028,-0.11,-0.87,-0.41,0.64,0.20,0.63,
4.03,-0.11,-0.87,-0.41,0.62,0.19,0.63,
4.032,-0.11,-0.87,-0.41,0.61,0.18,0.62,
4.033,-0.11,-0.87,-0.41,0.59,0.17,0.61,
4.036,-0.11,-0.87,-0.41,0.57,0.15,0.61,
4.039,0.05,-0.66,-0.41,0.57,0.15,0.61,
4.04,0.05,-0.66,-0.41,0.55,0.14,0.60,
4.041,0.05,-0.66,-0.41,0.53,0.12,0.58,
4.045,0.05,-0.66,-0.41,0.51,0.10,0.57,
4.046,0.05,-0.66,-0.41,0.49,0.07,0.55,
4.046,0.05,-0.66,-0.41,0.46,0.04,0.53,
4.048,0.32,-0.45,-0.40,0.46,0.04,0.53,
4.048,0.32,-0.45,-0.40,0.43,0.01,0.52,
4.049,0.32,-0.45,-0.40,0.40,-0.03,0.50,
4.051,0.32,-0.45,-0.40,0.37,-0.07,0.48,
4.053,0.32,-0.45,-0.40,0.33,-0.11,0.46,
4.056,0.32,-0.45,-0.40,0.28,-0.15,0.44,
4.058,0.53,-0.37,-0.28,0.28,-0.15,0.44,
4.058,0.53,-0.37,-0.28,0.24,-0.19,0.42,
4.059,0.53,-0.37,-0.28,0.20,-0.23,0.40,
4.061,0.53,-0.37,-0.28,0.16,-0.27,0.37,
4.063,0.53,-0.37,-0.28,0.11,-0.31,0.35,
4.067,0.53,-0.37,-0.28,0.07,-0.34,0.33,
4.07,0.65,-0.27,0.24,0.07,-0.34,0.33,
4.071,0.65,-0.27,0.24,0.04,-0.38,0.31,
4.072,0.65,-0.27,0.24,-0.00,-0.41,0.28,
4.087,0.65,-0.27,0.24,-0.04,-0.43,0.25,
4.087,0.65,-0.27,0.24,-0.07,-0.46,0.23,
4.088,0.65,-0.27,0.24,-0.11,-0.48,0.20,
4.088,0.80,-0.28,1.21,-0.11,-0.48,0.20,
4.088,0.80,-0.28,1.21,-0.14,-0.50,0.17,
4.088,0.80,-0.28,1.21,-0.17,-0.51,0.14,
4.089,0.80,-0.28,1.21,-0.19,-0.52,0.11,
4.089,0.80,-0.28,1.21,-0.22,-0.53,0.08,
4.089,0.80,-0.28,1.21,-0.24,-0.53,0.05,
4.092,0.87,-0.35,2.22,-0.24,-0.53,0.05,
4.092,0.87,-0.35,2.22,-0.26,-0.53,0.03,
4.123,0.87,-0.35,2.22,-0.28,-0.52,0.00,
4.123,0.87,-0.35,2.22,-0.30,-0.51,-0.02,
4.123,0.87,-0.35,2.22,-0.31,-0.50,-0.05,
4.124,0.87,-0.35,2.22,-0.32,-0.48,-0.07,
4.124,0.80,-0.56,3.13,-0.32,-0.48,-0.07,
4.125,0.80,-0.56,3.13,-0.33,-0.46,-0.09,
4.125,0.80,-0.56,3.13,-0.34,-0.44,-0.11,
4.126,0.80,-0.56,3.13,-0.35,-0.41,-0.13,
4.126,0.80,-0.56,3.13,-0.35,-0.38,-0.15,
4.126,0.80,-0.56,3.13,-0.36,-0.35,-0.17,
4.127,0.52,-0.66,3.82,-0.36,-0.35,-0.17,
4.127,0.52,-0.66,3.82,-0.36,-0.31,-0.18,
4.128,0.52,-0.66,3.82,-0.36,-0.27,-0.19,
4.128,0.52,-0.66,3.82,-0.36,-0.24,-0.21,
4.128,0.52,-0.66,3.82,-0.36,-0.20,-0.22,
4.129,0.52,-0.66,3.82,-0.37,-0.17,-0.23,
4.129,0.07,-0.74,4.15,-0.37,-0.17,-0.23,
4.13,0.07,-0.74,4.15,-0.37,-0.13,-0.24,
4.13,0.07,-0.74,4.15,-0.37,-0.10,-0.24,
4.131,0.07,-0.74,4.15,-0.39,-0.08,-0.25,
4.131,0.07,-0.74,4.15,-0.40,-0.05,-0.25,
4.131,0.07,-0.74,4.15,-0.41,-0.03,-0.25,
4.132,-0.41,-0.66,3.98,-0.41,-0.03,-0.25,
4.132,-0.41,-0.66,3.98,-0.44,-0.00,-0.25,
4.133,-0.41,-0.66,3.98,-0.46,0.02,-0.25,
4.133,-0.41,-0.66,3.98,-0.49,0.04,-0.25,
4.133,-0.41,-0.66,3.98,-0.53,0.06,-0.25,
4.145,-0.41,-0.66,3.98,-0.57,0.08,-0.25,
4.145,-0.71,-0.51,3.52,-0.57,0.08,-0.25,
4.146,-0.71,-0.51,3.52,-0.61,0.10,-0.25,
4.146,-0.71,-0.51,3.52,-0.65,0.12,-0.26,
4.146,-0.71,-0.51,3.52,-0.71,0.13,-0.26,
4.147,-0.71,-0.51,3.52,-0.76,0.14,-0.27,
4.147,-0.71,-0.51,3.52,-0.81,0.15,-0.27,
4.15,-0.61,-0.40,3.19,-0.81,0.15,-0.27,
4.15,-0.61,-0.40,3.19,-0.87,0.16,-0.28,
4.15,-0.61,-0.40,3.19,-0.92,0.16,-0.29,
4.152,-0.61,-0.40,3.19,-0.98,0.17,-0.30,
4.153,-0.61,-0.40,3.19,-1.03,0.18,-0.31,
4.156,-0.61,-0.40,3.19,-1.08,0.18,-0.32,
4.158,-0.47,-0.31,3.29,-1.08,0.18,-0.32,
4.158,-0.47,-0.31,3.29,-1.13,0.18,-0.33,
4.159,-0.47,-0.31,3.29,-1.18,0.18,-0.34,
4.161,-0.47,-0.31,3.29,-1.23,0.18,-0.36,
4.163,-0.47,-0.31,3.29,-1.27,0.18,-0.37,
4.165,-0.47,-0.31,3.29,-1.31,0.17,-0.39,
4.168,-0.20,-0.20,3.49,-1.31,0.17,-0.39,
4.168,-0.20,-0.20,3.49,-1.36,0.16,-0.40,
4.169,-0.20,-0.20,3.49,-1.40,0.15,-0.42,
4.175,-0.20,-0.20,3.49,-1.44,0.14,-0.43,
4.175,-0.20,-0.20,3.49,-1.48,0.13,-0.45,
4.175,-0.20,-0.20,3.49,-1.52,0.11,-0.47,
4.179,0.12,-0.25,3.40,-1.52,0.11,-0.47,
4.179,0.12,-0.25,3.40,-1.56,0.09,-0.49,
4.179,0.12,-0.25,3.40,-1.60,0.06,-0.51,
4.182,0.12,-0.25,3.40,-1.64,0.03,-0.53,
4.183,0.12,-0.25,3.40,-1.68,0.01,-0.56,
4.186,0.12,-0.25,3.40,-1.71,-0.02,-0.58,
4.187,0.43,-0.39,3.11,-1.71,-0.02,-0.58,
4.188,0.43,-0.39,3.11,-1.75,-0.06,-0.60,
4.197,0.43,-0.39,3.11,-1.78,-0.09,-0.62,
4.198,0.43,-0.39,3.11,-1.81,-0.12,-0.65,
4.198,0.43,-0.39,3.11,-1.83,-0.14,-0.67,
4.198,0.43,-0.39,3.11,-1.85,-0.17,-0.69,
4.199,0.67,-0.66,3.04,-1.85,-0.17,-0.69,
4.199,0.67,-0.66,3.04,-1.87,-0.20,-0.72,
4.199,0.67,-0.66,3.04,-1.88,-0.22,-0.74,
4.223,0.67,-0.66,3.04,-1.88,-0.24,-0.76,
4.223,0.67,-0.66,3.04,-1.87,-0.26,-0.80,
4.223,0.67,-0.66,3.04,-1.87,-0.26,-0.81,
4.224,0.85,-0.90,3.26,-1.87,-0.26,-0.81,
4.224,0.85,-0.90,3.26,-1.85,-0.27,-0.83,
4.224,0.85,-0.90,3.26,-1.83,-0.27,-0.85,
4.224,0.85,-0.90,3.26,-1.80,-0.28,-0.87,
4.225,0.85,-0.90,3.26,-1.77,-0.28,-0.89,
4.225,0.85,-0.90,3.26,-1.73,-0.28,-0.90,
4.225,0.75,-1.12,3.55,-1.73,-0.28,-0.90,
4.225,0.75,-1.12,3.55,-1.69,-0.27,-0.92,
4.226,0.75,-1.12,3.55,-1.64,-0.27,-0.93,
4.226,0.75,-1.12,3.55,-1.58,-0.26,-0.94,
4.226,0.75,-1.12,3.55,-1.52,-0.25,-0.94,
4.226,0.75,-1.12,3.55,-1.46,-0.23,-0.94,
4.229,0.26,-1.08,3.58,-1.46,-0.23,-0.94,
4.229,0.26,-1.08,3.58,-1.40,-0.21,-0.94,
4.229,0.26,-1.08,3.58,-1.33,-0.19,-0.93,
4.231,0.26,-1.08,3.58,-1.26,-0.16,-0.92,
4.233,0.26,-1.08,3.58,-1.20,-0.14,-0.91,
4.235,0.26,-1.08,3.58,-1.13,-0.11,-0.90,
4.238,-0.29,-1.06,3.04,-1.13,-0.11,-0.90,
4.238,-0.29,-1.06,3.04,-1.06,-0.08,-0.88,
4.24,-0.29,-1.06,3.04,-1.00,-0.05,-0.86,
4.241,-0.29,-1.06,3.04,-0.93,-0.01,-0.84,
4.245,-0.29,-1.06,3.04,-0.87,0.02,-0.82,
4.245,-0.29,-1.06,3.04,-0.81,0.05,-0.79,
4.25,-0.73,-1.02,2.13,-0.81,0.05,-0.79,
4.25,-0.73,-1.02,2.13,-0.75,0.09,-0.76,
4.25,-0.73,-1.02,2.13,-0.69,0.13,-0.73,
4.256,-0.73,-1.02,2.13,-0.63,0.16,-0.70,
4.256,-0.73,-1.02,2.13,-0.57,0.20,-0.67,
4.256,-0.73,-1.02,2.13,-0.51,0.23,-0.63,
4.274,-1.20,-0.86,1.12,-0.51,0.23,-0.63,
4.275,-1.20,-0.86,1.12,-0.45,0.27,-0.60,
4.275,-1.20,-0.86,1.12,-0.40,0.30,-0.56,
4.275,-1.20,-0.86,1.12,-0.34,0.33,-0.52,
4.275,-1.20,-0.86,1.12,-0.28,0.36,-0.49,
4.275,-1.20,-0.86,1.12,-0.23,0.39,-0.45,
4.276,-1.34,-0.68,-0.00,-0.23,0.39,-0.45,
4.276,-1.34,-0.68,-0.00,-0.18,0.42,-0.41,
4.276,-1.34,-0.68,-0.00,-0.13,0.44,-0.38,
4.276,-1.34,-0.68,-0.00,-0.08,0.47,-0.34,
4.276,-1.34,-0.68,-0.00,-0.03,0.49,-0.31,
4.277,-1.34,-0.68,-0.00,0.01,0.51,-0.28,
4.28,-1.24,-0.43,-1.14,0.01,0.51,-0.28,
4.28,-1.24,-0.43,-1.14,0.06,0.53,-0.25,
4.28,-1.24,-0.43,-1.14,0.10,0.55,-0.22,
4.281,-1.24,-0.43,-1.14,0.15,0.56,-0.19,
4.283,-1.24,-0.43,-1.14,0.18,0.57,-0.16,
4.285,-1.24,-0.43,-1.14,0.22,0.57,-0.14,
4.288,-0.92,-0.17,-2.36,0.22,0.57,-0.14,
4.288,-0.92,-0.17,-2.36,0.25,0.57,-0.12,
4.29,-0.92,-0.17,-2.36,0.29,0.57,-0.10,
4.292,-0.92,-0.17,-2.36,0.32,0.57,-0.08,
4.294,-0.92,-0.17,-2.36,0.35,0.56,-0.07,
4.295,-0.92,-0.17,-2.36,0.37,0.55,-0.06,
4.297,-0.50,0.00,-3.49,0.37,0.55,-0.06,
4.298,-0.50,0.00,-3.49,0.40,0.53,-0.05,
4.299,-0.50,0.00,-3.49,0.42,0.52,-0.04,
4.302,-0.50,0.00,-3.49,0.44,0.50,-0.03,
4.303,-0.50,0.00,-3.49,0.47,0.48,-0.02,
4.305,-0.50,0.00,-3.49,0.49,0.45,-0.02,
4.308,-0.22,0.19,-4.41,0.49,0.45,-0.02,
4.308,-0.22,0.19,-4.41,0.50,0.43,-0.01,
4.309,-0.22,0.19,-4.41,0.52,0.40,-0.01,
4.312,-0.22,0.19,-4.41,0.54,0.38,-0.01,
4.314,-0.22,0.19,-4.41,0.55,0.35,-0.01,
4.315,-0.22,0.19,-4.41,0.56,0.32,-0.00,
4.318,-0.14,0.36,-5.13,0.56,0.32,-0.00,
4.318,-0.14,0.36,-5.13,0.57,0.29,-0.00,
4.319,-0.14,0.36,-5.13,0.58,0.26,0.00,
4.322,-0.14,0.36,-5.13,0.58,0.23,0.00,
4.323,-0.14,0.36,-5.13,0.59,0.20,0.01,
4.325,-0.14,0.36,-5.13,0.60,0.17,0.01,
4.327,-0.20,0.36,-5.61,0.60,0.17,0.01,
4.328,-0.20,0.36,-5.61,0.60,0.14,0.01,
4.329,-0.20,0.36,-5.61,0.60,0.11,0.01,
4.333,-0.20,0.36,-5.61,0.61,0.07,0.02,
4.334,-0.20,0.36,-5.61,0.61,0.04,0.02,
4.338,-0.20,0.36,-5.61,0.61,0.01,0.02,
4.338,-0.38,0.36,-5.82,0.61,0.01,0.02,
4.338,-0.38,0.36,-5.82,0.61,-0.03,0.03,
4.347,-0.38,0.36,-5.82,0.61,-0.07,0.04,
4.348,-0.38,0.36,-5.82,0.61,-0.10,0.04,
4.348,-0.38,0.36,-5.82,0.61,-0.14,0.05,
4.348,-0.38,0.36,-5.82,0.61,-0.18,0.06,
4.348,-0.61,0.22,-5.74,0.61,-0.18,0.06,
4.348,-0.61,0.22,-5.74,0.62,-0.21,0.07,
4.383,-0.61,0.22,-5.74,0.62,-0.25,0.09,
4.384,-0.61,0.22,-5.74,0.62,-0.28,0.09,
4.384,-0.61,0.22,-5.74,0.62,-0.32,0.11,
4.384,-0.61,0.22,-5.74,0.63,-0.36,0.12,
4.385,-0.97,0.12,-5.35,0.63,-0.36,0.12,
4.385,-0.97,0.12,-5.35,0.63,-0.40,0.14,
4.385,-0.97,0.12,-5.35,0.64,-0.44,0.15,
4.386,-0.97,0.12,-5.35,0.65,-0.47,0.17,
4.386,-0.97,0.12,-5.35,0.66,-0.51,0.18,
4.386,-0.97,0.12,-5.35,0.67,-0.55,0.20,
4.386,-1.11,-0.04,-4.60,0.67,-0.55,0.20,
4.387,-1.11,-0.04,-4.60,0.69,-0.58,0.21,
4.387,-1.11,-0.04,-4.60,0.71,-0.60,0.22,
4.387,-1.11,-0.04,-4.60,0.74,-0.63,0.24,
4.388,-1.11,-0.04,-4.60,0.77,-0.65,0.25,
4.388,-1.11,-0.04,-4.60,0.80,-0.68,0.27,
4.388,-1.34,-0.13,-3.61,0.80,-0.68,0.27,
4.388,-1.34,-0.13,-3.61,0.84,-0.70,0.28,
4.389,-1.34,-0.13,-3.61,0.89,-0.72,0.30,
4.389,-1.34,-0.13,-3.61,0.94,-0.74,0.32,
4.389,-1.34,-0.13,-3.61,0.96,-0.74,0.32,
4.39,-1.34,-0.13,-3.61,1.00,-0.75,0.34,
4.39,-1.41,-0.24,-2.77,1.00,-0.75,0.34,
4.39,-1.41,-0.24,-2.77,1.04,-0.75,0.35,
4.39,-1.41,-0.24,-2.77,1.09,-0.75,0.37,
4.393,-1.41,-0.24,-2.77,1.12,-0.74,0.38,
4.394,-1.41,-0.24,-2.77,1.16,-0.73,0.40,
4.395,-1.41,-0.24,-2.77,1.19,-0.71,0.41,
4.398,-1.40,-0.23,-2.56,1.19,-0.71,0.41,
4.398,-1.40,-0.23,-2.56,1.22,-0.69,0.43,
4.399,-1.40,-0.23,-2.56,1.24,-0.68,0.44,
4.401,-1.40,-0.23,-2.56,1.26,-0.65,0.45,
4.405,-1.40,-0.23,-2.56,1.28,-0.63,0.46,
4.406,-1.40,-0.23,-2.56,1.28,-0.62,0.47,
4.408,-1.31,-0.17,-3.04,1.28,-0.62,0.47,
4.408,-1.31,-0.17,-3.04,1.28,-0.60,0.48,
4.409,-1.31,-0.17,-3.04,1.28,-0.58,0.49,
4.411,-1.31,-0.17,-3.04,1.26,-0.57,0.49,
4.414,-1.31,-0.17,-3.04,1.25,-0.55,0.49,
4.415,-1.31,-0.17,-3.04,1.22,-0.54,0.49,
4.418,-1.10,0.11,-3.74,1.22,-0.54,0.49,
4.418,-1.10,0.11,-3.74,1.20,-0.53,0.48,
4.419,-1.10,0.11,-3.74,1.16,-0.52,0.48,
4.422,-1.10,0.11,-3.74,1.13,-0.51,0.47,
4.448,-1.10,0.11,-3.74,1.09,-0.50,0.45,
4.448,-1.10,0.11,-3.74,1.04,-0.50,0.44,
4.448,-0.73,0.43,-4.15,1.04,-0.50,0.44,
4.449,-0.73,0.43,-4.15,1.00,-0.49,0.42,
4.449,-0.73,0.43,-4.15,0.95,-0.49,0.40,
4.45,-0.73,0.43,-4.15,0.89,-0.49,0.37,
4.45,-0.73,0.43,-4.15,0.84,-0.50,0.35,
4.451,-0.73,0.43,-4.15,0.79,-0.50,0.33,
4.451,-0.48,0.75,-4.03,0.79,-0.50,0.33,
4.451,-0.48,0.75,-4.03,0.74,-0.51,0.30,
4.452,-0.48,0.75,-4.03,0.68,-0.52,0.27,
4.452,-0.48,0.75,-4.03,0.63,-0.54,0.24,
4.453,-0.48,0.75,-4.03,0.58,-0.56,0.22,
4.453,-0.48,0.75,-4.03,0.54,-0.58,0.19,
4.453,-0.49,0.84,-3.20,0.54,-0.58,0.19,
4.454,-0.49,0.84,-3.20,0.49,-0.60,0.16,
4.454,-0.49,0.84,-3.20,0.45,-0.63,0.14,
4.455,-0.49,0.84,-3.20,0.41,-0.66,0.11,
4.455,-0.49,0.84,-3.20,0.38,-0.68,0.08,
4.456,-0.49,0.84,-3.20,0.35,-0.72,0.05,
4.462,-0.47,0.81,-1.83,0.35,-0.72,0.05,
4.462,-0.47,0.81,-1.83,0.33,-0.75,0.02,
4.462,-0.47,0.81,-1.83,0.30,-0.78,-0.00,
4.464,-0.47,0.81,-1.83,0.29,-0.81,-0.03,
4.465,-0.47,0.81,-1.83,0.28,-0.83,-0.06,
4.465,-0.47,0.81,-1.83,0.27,-0.86,-0.09,
4.469,-0.44,0.91,-0.14,0.27,-0.86,-0.09,
4.469,-0.44,0.91,-0.14,0.27,-0.89,-0.12,
4.471,-0.44,0.91,-0.14,0.27,-0.91,-0.16,
4.474,-0.44,0.91,-0.14,0.27,-0.94,-0.19,
4.475,-0.44,0.91,-0.14,0.28,-0.97,-0.22,
4.476,-0.44,0.91,-0.14,0.28,-0.99,-0.25,
4.478,-0.42,1.11,1.31,0.28,-0.99,-0.25,
4.478,-0.42,1.11,1.31,0.29,-1.01,-0.29,
4.479,-0.42,1.11,1.31,0.29,-1.04,-0.32,
4.482,-0.42,1.11,1.31,0.30,-1.07,-0.36,
4.485,-0.42,1.11,1.31,0.30,-1.09,-0.39,
4.486,-0.42,1.11,1.31,0.30,-1.11,-0.43,
4.495,-0.29,1.12,2.25,0.30,-1.11,-0.43,
4.496,-0.29,1.12,2.25,0.30,-1.13,-0.47,
4.496,-0.29,1.12,2.25,0.29,-1.15,-0.50,
4.496,-0.29,1.12,2.25,0.26,-1.19,-0.61,
4.497,-0.29,1.12,2.25,0.26,-1.19,-0.61,
4.503,-0.29,1.12,2.25,0.26,-1.19,-0.61,
4.503,-0.29,1.12,2.25,0.24,-1.20,-0.66,
4.504,-0.10,1.02,2.84,0.24,-1.20,-0.66,
4.504,-0.10,1.02,2.84,0.22,-1.19,-0.68,
4.504,-0.10,1.02,2.84,0.21,-1.18,-0.71,
4.504,-0.10,1.02,2.84,0.18,-1.17,-0.75,
4.516,-0.10,1.02,2.84,0.16,-1.16,-0.78,
4.517,0.08,0.95,3.15,0.16,-1.16,-0.78,
4.517,0.08,0.95,3.15,0.13,-1.13,-0.82,
4.518,0.08,0.95,3.15,0.10,-1.11,-0.85,
4.518,0.08,0.95,3.15,0.07,-1.07,-0.89,
4.518,0.08,0.95,3.15,0.04,-1.03,-0.93,
4.518,0.08,0.95,3.15,0.00,-0.99,-0.97,
4.519,0.39,0.93,3.51,0.00,-0.99,-0.97,
4.519,0.39,0.93,3.51,-0.03,-0.94,-1.01,
4.519,0.39,0.93,3.51,-0.07,-0.90,-1.05,
4.525,0.39,0.93,3.51,-0.11,-0.84,-1.09,
4.545,0.39,0.93,3.51,-0.15,-0.78,-1.14,
4.546,0.39,0.93,3.51,-0.19,-0.73,-1.18,
4.546,0.68,0.96,3.73,-0.19,-0.73,-1.18,
4.546,0.68,0.96,3.73,-0.24,-0.66,-1.23,
4.547,0.68,0.96,3.73,-0.29,-0.60,-1.27,
4.549,0.68,0.96,3.73,-0.34,-0.54,-1.32,
4.55,0.68,0.96,3.73,-0.40,-0.47,-1.36,
4.55,0.68,0.96,3.73,-0.45,-0.40,-1.41,
4.552,0.85,1.02,3.77,-0.45,-0.40,-1.41,
4.552,0.85,1.02,3.77,-0.52,-0.34,-1.45,
4.554,0.85,1.02,3.77,-0.58,-0.27,-1.50,
4.555,0.85,1.02,3.77,-0.65,-0.20,-1.55,
4.556,0.85,1.02,3.77,-0.72,-0.14,-1.59,
4.556,0.85,1.02,3.77,-0.79,-0.07,-1.64,
4.56,0.89,0.88,3.89,-0.79,-0.07,-1.64,
4.561,0.89,0.88,3.89,-0.86,-0.01,-1.69,
4.562,0.89,0.88,3.89,-0.93,0.06,-1.73,
4.562,0.89,0.88,3.89,-1.00,0.12,-1.77,
4.562,0.89,0.88,3.89,-1.06,0.19,-1.81,
4.562,0.89,0.88,3.89,-1.12,0.26,-1.85,
4.563,0.77,0.49,4.52,-1.12,0.26,-1.85,
4.563,0.77,0.49,4.52,-1.17,0.33,-1.88,
4.563,0.77,0.49,4.52,-1.22,0.41,-1.91,
4.563,0.77,0.49,4.52,-1.26,0.48,-1.94,
4.564,0.77,0.49,4.52,-1.30,0.56,-1.96,
4.567,0.77,0.49,4.52,-1.33,0.64,-1.98,
4.568,0.51,-0.04,5.51,-1.33,0.64,-1.98,
4.569,0.51,-0.04,5.51,-1.36,0.71,-2.00,
4.57,0.51,-0.04,5.51,-1.38,0.79,-2.02,
4.578,0.51,-0.04,5.51,-1.39,0.87,-2.03,
4.578,0.51,-0.04,5.51,-1.41,0.94,-2.05,
4.578,0.51,-0.04,5.51,-1.42,1.01,-2.05,
4.579,0.41,-0.84,6.21,-1.42,1.01,-2.05,
4.579,0.41,-0.84,6.21,-1.42,1.08,-2.06,
4.579,0.41,-0.84,6.21,-1.42,1.14,-2.07,
4.582,0.41,-0.84,6.21,-1.42,1.20,-2.07,
4.584,0.41,-0.84,6.21,-1.42,1.25,-2.07,
4.585,0.41,-0.84,6.21,-1.42,1.30,-2.07,
4.588,0.21,-1.50,6.24,-1.42,1.30,-2.07,
4.589,0.21,-1.50,6.24,-1.41,1.34,-2.06,
4.605,0.21,-1.50,6.24,-1.41,1.37,-2.05,
4.606,0.21,-1.50,6.24,-1.41,1.41,-2.03,
4.606,0.21,-1.50,6.24,-1.41,1.43,-2.02,
4.606,0.21,-1.50,6.24,-1.42,1.45,-2.00,
4.606,-0.19,-1.94,5.58,-1.42,1.45,-2.00,
4.606,-0.19,-1.94,5.58,-1.42,1.47,-1.97,
4.606,-0.19,-1.94,5.58,-1.42,1.48,-1.95,
4.607,-0.19,-1.94,5.58,-1.43,1.50,-1.92,
4.607,-0.19,-1.94,5.58,-1.44,1.50,-1.89,
4.607,-0.19,-1.94,5.58,-1.45,1.51,-1.86,
4.609,-0.42,-2.23,4.56,-1.45,1.51,-1.86,
4.609,-0.42,-2.23,4.56,-1.46,1.51,-1.83,
4.61,-0.42,-2.23,4.56,-1.48,1.50,-1.79,
4.612,-0.42,-2.23,4.56,-1.50,1.50,-1.76,
4.615,-0.42,-2.23,4.56,-1.52,1.49,-1.72,
4.618,-0.42,-2.23,4.56,-1.54,1.48,-1.69,
4.619,-0.39,-2.38,3.52,-1.54,1.48,-1.69,
4.62,-0.39,-2.38,3.52,-1.56,1.46,-1.65,
4.62,-0.39,-2.38,3.52,-1.58,1.44,-1.62,
4.621,-0.39,-2.38,3.52,-1.60,1.42,-1.58,
4.623,-0.39,-2.38,3.52,-1.62,1.39,-1.54,
4.625,-0.39,-2.38,3.52,-1.64,1.37,-1.51,
4.628,-0.21,-2.32,2.89,-1.64,1.37,-1.51,
4.628,-0.21,-2.32,2.89,-1.65,1.34,-1.47,
4.629,-0.21,-2.32,2.89,-1.67,1.31,-1.44,
4.631,-0.21,-2.32,2.89,-1.68,1.28,-1.40,
4.633,-0.21,-2.32,2.89,-1.68,1.25,-1.36,
4.635,-0.21,-2.32,2.89,-1.69,1.22,-1.32,
4.64,0.01,-2.22,2.71,-1.69,1.22,-1.32,
4.641,0.01,-2.22,2.71,-1.68,1.19,-1.28,
4.645,0.01,-2.22,2.71,-1.68,1.15,-1.24,
4.645,0.01,-2.22,2.71,-1.68,1.12,-1.20,
4.646,0.01,-2.22,2.71,-1.67,1.09,-1.17,
4.648,0.01,-2.22,2.71,-1.65,1.07,-1.13,
4.648,0.20,-1.93,2.73,-1.65,1.07,-1.13,
4.648,0.20,-1.93,2.73,-1.64,1.04,-1.09,
4.649,0.20,-1.93,2.73,-1.62,1.01,-1.05,
4.652,0.20,-1.93,2.73,-1.60,0.98,-1.01,
4.653,0.20,-1.93,2.73,-1.57,0.96,-0.97,
4.655,0.20,-1.93,2.73,-1.55,0.94,-0.93,
4.658,0.45,-1.61,2.76,-1.55,0.94,-0.93,
4.658,0.45,-1.61,2.76,-1.52,0.92,-0.89,
4.659,0.45,-1.61,2.76,-1.48,0.90,-0.86,
4.661,0.45,-1.61,2.76,-1.45,0.89,-0.82,
4.663,0.45,-1.61,2.76,-1.41,0.88,-0.78,
4.665,0.45,-1.61,2.76,-1.36,0.87,-0.74,
4.667,0.57,-1.16,2.81,-1.36,0.87,-0.74,
4.667,0.57,-1.16,2.81,-1.31,0.87,-0.70,
4.67,0.57,-1.16,2.81,-1.26,0.86,-0.66,
4.671,0.57,-1.16,2.81,-1.21,0.87,-0.62,
4.673,0.57,-1.16,2.81,-1.15,0.87,-0.58,
4.675,0.57,-1.16,2.81,-1.09,0.87,-0.54,
4.677,0.58,-0.89,2.69,-1.09,0.87,-0.54,
4.678,0.58,-0.89,2.69,-1.03,0.87,-0.49,
4.681,0.58,-0.89,2.69,-0.97,0.87,-0.45,
4.681,0.58,-0.89,2.69,-0.90,0.88,-0.40,
4.684,0.58,-0.89,2.69,-0.83,0.88,-0.36,
4.685,0.58,-0.89,2.69,-0.77,0.88,-0.31,
4.688,0.43,-0.52,2.22,-0.77,0.88,-0.31,
4.688,0.43,-0.52,2.22,-0.70,0.87,-0.27,
4.689,0.43,-0.52,2.22,-0.64,0.87,-0.22,
4.692,0.43,-0.52,2.22,-0.57,0.86,-0.18,
4.693,0.43,-0.52,2.22,-0.51,0.84,-0.14,
4.695,0.43,-0.52,2.22,-0.45,0.83,-0.10,
4.697,0.39,-0.13,1.28,-0.45,0.83,-0.10,
4.698,0.39,-0.13,1.28,-0.39,0.81,-0.06,
4.7,0.39,-0.13,1.28,-0.32,0.79,-0.02,
4.701,0.39,-0.13,1.28,-0.27,0.76,0.02,
4.703,0.39,-0.13,1.28,-0.21,0.74,0.06,
4.705,0.39,-0.13,1.28,-0.15,0.70,0.09,
4.707,0.47,0.24,0.12,-0.15,0.70,0.09,
4.708,0.47,0.24,0.12,-0.10,0.67,0.13,
4.709,0.47,0.24,0.12,-0.05,0.63,0.16,
4.711,0.47,0.24,0.12,-0.01,0.60,0.19,
4.713,0.47,0.24,0.12,0.04,0.56,0.22,
4.715,0.47,0.24,0.12,0.09,0.51,0.25,
4.721,0.62,0.54,-1.06,0.09,0.51,0.25,
4.721,0.62,0.54,-1.06,0.13,0.47,0.27,
4.721,0.62,0.54,-1.06,0.17,0.43,0.30,
4.721,0.62,0.54,-1.06,0.20,0.39,0.32,
4.723,0.62,0.54,-1.06,0.24,0.34,0.34,
4.725,0.62,0.54,-1.06,0.27,0.30,0.36,
4.727,0.78,0.73,-2.18,0.27,0.30,0.36,
4.728,0.78,0.73,-2.18,0.31,0.26,0.38,
4.73,0.78,0.73,-2.18,0.35,0.19,0.41,
4.732,0.78,0.73,-2.18,0.38,0.15,0.43,
4.733,0.78,0.73,-2.18,0.39,0.13,0.43,
4.735,0.78,0.73,-2.18,0.41,0.09,0.45,
4.737,0.92,0.88,-3.19,0.41,0.09,0.45,
4.737,0.92,0.88,-3.19,0.43,0.05,0.46,
4.739,0.92,0.88,-3.19,0.45,0.02,0.48,
4.742,0.92,0.88,-3.19,0.47,-0.02,0.49,
4.743,0.92,0.88,-3.19,0.48,-0.06,0.50,
4.745,0.92,0.88,-3.19,0.49,-0.09,0.52,
4.748,0.98,0.94,-4.10,0.49,-0.09,0.52,
4.748,0.98,0.94,-4.10,0.50,-0.13,0.52,
4.75,0.98,0.94,-4.10,0.51,-0.17,0.53,
4.751,0.98,0.94,-4.10,0.51,-0.21,0.53,
4.753,0.98,0.94,-4.10,0.51,-0.25,0.54,
4.755,0.98,0.94,-4.10,0.51,-0.29,0.54,
4.776,1.21,0.99,-4.78,0.51,-0.29,0.54,
4.776,1.21,0.99,-4.78,0.50,-0.33,0.54,
4.777,1.21,0.99,-4.78,0.50,-0.37,0.53,
4.777,1.21,0.99,-4.78,0.49,-0.40,0.53,
4.777,1.21,0.99,-4.78,0.49,-0.44,0.53,
4.778,1.21,0.99,-4.78,0.48,-0.47,0.52,
4.778,1.28,0.93,-5.14,0.48,-0.47,0.52,
4.778,1.28,0.93,-5.14,0.47,-0.50,0.52,
4.778,1.28,0.93,-5.14,0.46,-0.53,0.51,
4.779,1.28,0.93,-5.14,0.45,-0.55,0.51,
4.779,1.28,0.93,-5.14,0.44,-0.58,0.50,
4.779,1.28,0.93,-5.14,0.43,-0.61,0.50,
4.779,1.28,0.94,-5.31,0.43,-0.61,0.50,
4.78,1.28,0.94,-5.31,0.42,-0.63,0.49,
4.78,1.28,0.94,-5.31,0.40,-0.65,0.49,
4.793,1.28,0.94,-5.31,0.39,-0.67,0.48,
4.794,1.28,0.94,-5.31,0.38,-0.69,0.47,
4.794,1.28,0.94,-5.31,0.36,-0.71,0.47,
4.794,1.22,0.83,-5.30,0.36,-0.71,0.47,
4.794,1.22,0.83,-5.30,0.34,-0.73,0.46,
4.795,1.22,0.83,-5.30,0.33,-0.74,0.45,
4.795,1.22,0.83,-5.30,0.31,-0.76,0.44,
4.795,1.22,0.83,-5.30,0.30,-0.78,0.44,
4.798,1.22,0.83,-5.30,0.28,-0.80,0.43,
4.798,1.15,0.80,-5.14,0.28,-0.80,0.43,
4.798,1.15,0.80,-5.14,0.26,-0.81,0.42,
4.799,1.15,0.80,-5.14,0.24,-0.83,0.41,
4.801,1.15,0.80,-5.14,0.23,-0.84,0.41,
4.816,1.15,0.80,-5.14,0.21,-0.86,0.40,
4.817,1.15,0.80,-5.14,0.19,-0.87,0.39,
4.817,0.94,0.57,-4.70,0.19,-0.87,0.39,
4.817,0.94,0.57,-4.70,0.18,-0.88,0.39,
4.817,0.94,0.57,-4.70,0.17,-0.89,0.39,
4.818,0.94,0.57,-4.70,0.16,-0.90,0.39,
4.818,0.94,0.57,-4.70,0.15,-0.91,0.39,
4.818,0.94,0.57,-4.70,0.14,-0.91,0.39,
4.828,0.70,0.36,-3.94,0.14,-0.91,0.39,
4.828,0.70,0.36,-3.94,0.14,-0.91,0.39,
4.829,0.70,0.36,-3.94,0.13,-0.92,0.39,
4.829,0.70,0.36,-3.94,0.14,-0.91,0.40,
4.829,0.70,0.36,-3.94,0.14,-0.90,0.40,
4.829,0.70,0.36,-3.94,0.15,-0.89,0.41,
4.829,0.49,0.18,-2.81,0.15,-0.89,0.41,
4.83,0.49,0.18,-2.81,0.16,-0.87,0.41,
4.83,0.49,0.18,-2.81,0.18,-0.85,0.42,
4.831,0.49,0.18,-2.81,0.20,-0.83,0.42,
4.833,0.49,0.18,-2.81,0.22,-0.80,0.43,
4.838,0.49,0.18,-2.81,0.25,-0.77,0.43,
4.839,0.48,0.01,-1.66,0.25,-0.77,0.43,
4.839,0.48,0.01,-1.66,0.28,-0.74,0.43,
4.839,0.48,0.01,-1.66,0.31,-0.70,0.44,
4.841,0.48,0.01,-1.66,0.34,-0.67,0.44,
4.843,0.48,0.01,-1.66,0.38,-0.63,0.44,
4.845,0.48,0.01,-1.66,0.41,-0.59,0.45,
4.847,0.43,-0.11,-0.84,0.41,-0.59,0.45,
4.847,0.43,-0.11,-0.84,0.44,-0.55,0.45,
4.849,0.43,-0.11,-0.84,0.48,-0.52,0.45,
4.852,0.43,-0.11,-0.84,0.51,-0.48,0.45,
4.853,0.43,-0.11,-0.84,0.54,-0.44,0.46,
4.862,0.43,-0.11,-0.84,0.57,-0.40,0.46,
4.862,0.35,-0.23,-0.58,0.57,-0.40,0.46,
4.862,0.35,-0.23,-0.58,0.60,-0.37,0.46,
4.863,0.35,-0.23,-0.58,0.62,-0.33,0.46,
4.863,0.35,-0.23,-0.58,0.65,-0.29,0.47,
4.863,0.35,-0.23,-0.58,0.67,-0.26,0.47,
4.865,0.35,-0.23,-0.58,0.68,-0.23,0.47,
4.868,0.27,-0.27,-0.78,0.68,-0.23,0.47,
4.868,0.27,-0.27,-0.78,0.70,-0.19,0.47,
4.873,0.27,-0.27,-0.78,0.71,-0.16,0.47,
4.876,0.27,-0.27,-0.78,0.72,-0.13,0.47,
4.877,0.27,-0.27,-0.78,0.73,-0.10,0.47,
4.879,0.27,-0.27,-0.78,0.74,-0.07,0.47,
4.88,0.13,-0.29,-1.13,0.74,-0.07,0.47,
4.881,0.13,-0.29,-1.13,0.74,-0.05,0.47,
4.881,0.13,-0.29,-1.13,0.75,-0.02,0.47,
4.882,0.13,-0.29,-1.13,0.75,0.01,0.47,
4.896,0.13,-0.29,-1.13,0.75,0.03,0.47,
4.896,0.13,-0.29,-1.13,0.75,0.05,0.48,
4.896,-0.14,-0.30,-1.31,0.75,0.05,0.48,
4.897,-0.14,-0.30,-1.31,0.75,0.07,0.48,
4.898,-0.14,-0.30,-1.31,0.75,0.08,0.48,
4.898,-0.14,-0.30,-1.31,0.75,0.10,0.49,
4.899,-0.14,-0.30,-1.31,0.75,0.11,0.49,
4.9,-0.14,-0.30,-1.31,0.75,0.12,0.50,
4.9,-0.41,-0.37,-1.36,0.75,0.12,0.50,
4.9,-0.41,-0.37,-1.36,0.75,0.12,0.51,
4.901,-0.41,-0.37,-1.36,0.75,0.13,0.51,
4.902,-0.41,-0.37,-1.36,0.75,0.13,0.52,
4.914,-0.41,-0.37,-1.36,0.75,0.12,0.53,
4.915,-0.41,-0.37,-1.36,0.75,0.11,0.54,
4.915,-0.61,-0.49,-1.35,0.75,0.11,0.54,
4.916,-0.61,-0.49,-1.35,0.75,0.10,0.55,
4.916,-0.61,-0.49,-1.35,0.75,0.09,0.55,
4.917,-0.61,-0.49,-1.35,0.75,0.07,0.56,
4.917,-0.61,-0.49,-1.35,0.75,0.06,0.57,
4.918,-0.61,-0.49,-1.35,0.75,0.03,0.58,
4.92,-0.73,-0.57,-1.23,0.75,0.03,0.58,
4.92,-0.73,-0.57,-1.23,0.75,0.01,0.59,
4.921,-0.73,-0.57,-1.23,0.75,-0.01,0.60,
4.924,-0.73,-0.57,-1.23,0.75,-0.03,0.61,
4.942,-0.73,-0.57,-1.23,0.75,-0.05,0.62,
4.942,-0.73,-0.57,-1.23,0.75,-0.07,0.63,
4.942,-0.70,-0.64,-0.97,0.75,-0.07,0.63,
4.943,-0.70,-0.64,-0.97,0.75,-0.09,0.64,
4.943,-0.70,-0.64,-0.97,0.75,-0.10,0.64,
4.943,-0.70,-0.64,-0.97,0.75,-0.12,0.65,
4.943,-0.70,-0.64,-0.97,0.74,-0.13,0.66,
4.943,-0.70,-0.64,-0.97,0.73,-0.15,0.66,
4.944,-0.50,-0.76,-0.74,0.73,-0.15,0.66,
4.944,-0.50,-0.76,-0.74,0.73,-0.16,0.67,
4.944,-0.50,-0.76,-0.74,0.72,-0.17,0.67,
4.944,-0.50,-0.76,-0.74,0.71,-0.18,0.67,
4.944,-0.50,-0.76,-0.74,0.70,-0.19,0.67,
4.957,-0.50,-0.76,-0.74,0.69,-0.20,0.67,
4.958,-0.22,-0.76,-0.44,0.69,-0.20,0.67,
4.958,-0.22,-0.76,-0.44,0.68,-0.21,0.67,
4.958,-0.22,-0.76,-0.44,0.67,-0.21,0.66,
4.958,-0.22,-0.76,-0.44,0.66,-0.21,0.66,
4.958,-0.22,-0.76,-0.44,0.65,-0.21,0.65,
4.958,-0.22,-0.76,-0.44,0.64,-0.20,0.64,
4.959,0.12,-0.73,-0.05,0.64,-0.20,0.64,
4.959,0.12,-0.73,-0.05,0.63,-0.19,0.63,
4.959,0.12,-0.73,-0.05,0.62,-0.17,0.61,
4.969,0.12,-0.73,-0.05,0.61,-0.15,0.60,
4.969,0.12,-0.73,-0.05,0.60,-0.14,0.59,
4.969,0.12,-0.73,-0.05,0.59,-0.12,0.58,
4.992,0.40,-0.78,0.29,0.59,-0.12,0.58,
4.992,0.40,-0.78,0.29,0.58,-0.09,0.56,
4.993,0.40,-0.78,0.29,0.57,-0.07,0.55,
4.993,0.40,-0.78,0.29,0.56,-0.05,0.54,
4.993,0.40,-0.78,0.29,0.55,-0.02,0.53,
4.994,0.40,-0.78,0.29,0.54,-0.00,0.52,
4.994,0.42,-0.87,0.71,0.54,-0.00,0.52,
4.994,0.42,-0.87,0.71,0.53,0.03,0.50,
4.994,0.42,-0.87,0.71,0.52,0.05,0.50,
4.995,0.42,-0.87,0.71,0.51,0.07,0.49,
4.995,0.42,-0.87,0.71,0.50,0.10,0.48,
4.995,0.42,-0.87,0.71,0.50,0.12,0.47,
4.996,0.23,-0.95,1.12,0.50,0.12,0.47,
4.996,0.23,-0.95,1.12,0.49,0.15,0.47,
4.996,0.23,-0.95,1.12,0.48,0.17,0.46,
4.997,0.23,-0.95,1.12,0.47,0.19,0.46,
4.997,0.23,-0.95,1.12,0.46,0.21,0.45,
4.997,0.23,-0.95,1.12,0.45,0.22,0.44,
4.997,0.06,-0.99,1.28,0.45,0.22,0.44,
4.998,0.06,-0.99,1.28,0.43,0.24,0.44,
5.001,0.06,-0.99,1.28,0.42,0.24,0.43,
5.001,0.06,-0.99,1.28,0.40,0.25,0.42,
5.003,0.06,-0.99,1.28,0.38,0.25,0.41,
5.005,0.06,-0.99,1.28,0.36,0.26,0.40,
5.008,-0.16,-0.87,1.25,0.36,0.26,0.40,
5.009,-0.16,-0.87,1.25,0.34,0.26,0.39,
5.009,-0.16,-0.87,1.25,0.32,0.26,0.38,
5.011,-0.16,-0.87,1.25,0.30,0.26,0.37,
5.013,-0.16,-0.87,1.25,0.27,0.26,0.36,
5.015,-0.16,-0.87,1.25,0.25,0.26,0.36,
5.02,-0.45,-0.59,1.29,0.25,0.26,0.36,
5.02,-0.45,-0.59,1.29,0.23,0.26,0.35,
5.021,-0.45,-0.59,1.29,0.21,0.25,0.34,
5.025,-0.45,-0.59,1.29,0.18,0.25,0.34,
5.025,-0.45,-0.59,1.29,0.16,0.25,0.33,
5.026,-0.45,-0.59,1.29,0.13,0.24,0.32,
5.028,-0.79,-0.24,1.25,0.13,0.24,0.32,
5.028,-0.79,-0.24,1.25,0.09,0.23,0.32,
5.03,-0.79,-0.24,1.25,0.06,0.22,0.31,
5.031,-0.79,-0.24,1.25,0.01,0.20,0.30,
