
time,ax,ay,az,wx,wy,wz,
0.011,0.14,-0.17,-0.13,-0.23,-0.18,-0.13,
0.012,0.14,-0.17,-0.13,-0.23,-0.17,-0.14,
0.013,0.14,-0.17,-0.13,-0.23,-0.17,-0.14,
0.014,0.14,-0.17,-0.13,-0.24,-0.17,-0.14,
0.015,0.28,-0.14,0.04,-0.24,-0.17,-0.14,
0.016,0.28,-0.14,0.04,-0.24,-0.16,-0.14,
0.017,0.28,-0.14,0.04,-0.24,-0.15,-0.14,
0.018,0.28,-0.14,0.04,-0.24,-0.14,-0.15,
0.019,0.28,-0.14,0.04,-0.24,-0.13,-0.15,
0.02,0.28,-0.14,0.04,-0.24,-0.12,-0.15,
0.02,0.27,-0.08,0.15,-0.24,-0.12,-0.15,
0.02,0.27,-0.08,0.15,-0.24,-0.12,-0.15,
0.021,0.27,-0.08,0.15,-0.24,-0.11,-0.16,
0.021,0.27,-0.08,0.15,-0.23,-0.11,-0.16,
0.021,0.27,-0.08,0.15,-0.23,-0.11,-0.16,
0.022,0.27,-0.08,0.15,-0.22,-0.11,-0.16,
0.022,0.19,-0.05,0.21,-0.22,-0.11,-0.16,
0.022,0.19,-0.05,0.21,-0.22,-0.11,-0.16,
0.023,0.19,-0.05,0.21,-0.21,-0.11,-0.17,
0.023,0.19,-0.05,0.21,-0.20,-0.12,-0.17,
0.024,0.19,-0.05,0.21,-0.19,-0.12,-0.18,
0.024,0.19,-0.05,0.21,-0.19,-0.13,-0.18,
0.03,0.16,-0.05,0.20,-0.19,-0.13,-0.18,
0.031,0.16,-0.05,0.20,-0.18,-0.14,-0.18,
0.031,0.16,-0.05,0.20,-0.18,-0.15,-0.18,
0.032,0.16,-0.05,0.20,-0.18,-0.15,-0.19,
0.032,0.16,-0.05,0.20,-0.17,-0.16,-0.19,
0.032,0.16,-0.05,0.20,-0.17,-0.16,-0.19,
0.036,0.07,-0.04,0.12,-0.17,-0.16,-0.19,
0.037,0.07,-0.04,0.12,-0.17,-0.17,-0.19,
0.038,0.07,-0.04,0.12,-0.17,-0.17,-0.20,
0.042,0.07,-0.04,0.12,-0.17,-0.18,-0.20,
0.042,0.07,-0.04,0.12,-0.17,-0.18,-0.20,
0.043,0.07,-0.04,0.12,-0.17,-0.19,-0.20,
0.047,0.04,-0.01,0.09,-0.17,-0.19,-0.20,
0.047,0.04,-0.01,0.09,-0.17,-0.20,-0.20,
0.048,0.04,-0.01,0.09,-0.17,-0.21,-0.21,
0.05,0.04,-0.01,0.09,-0.17,-0.22,-0.21,
0.051,0.04,-0.01,0.09,-0.17,-0.22,-0.21,
0.052,0.04,-0.01,0.09,-0.17,-0.24,-0.21,
0.055,0.02,0.04,0.12,-0.17,-0.24,-0.21,
0.055,0.02,0.04,0.12,-0.17,-0.25,-0.21,
0.084,0.02,0.04,0.12,-0.17,-0.26,-0.21,
0.085,0.02,0.04,0.12,-0.16,-0.27,-0.21,
0.085,0.02,0.04,0.12,-0.16,-0.28,-0.21,
0.085,0.02,0.04,0.12,-0.16,-0.30,-0.21,
0.085,0.00,0.05,0.09,-0.16,-0.30,-0.21,
0.086,0.00,0.05,0.09,-0.16,-0.31,-0.21,
0.086,0.00,0.05,0.09,-0.16,-0.33,-0.21,
0.086,0.00,0.05,0.09,-0.16,-0.34,-0.21,
0.086,0.00,0.05,0.09,-0.17,-0.34,-0.21,
0.086,0.00,0.05,0.09,-0.18,-0.35,-0.21,
0.088,-0.21,-0.10,0.01,-0.18,-0.35,-0.21,
0.088,-0.21,-0.10,0.01,-0.18,-0.36,-0.21,
0.088,-0.21,-0.10,0.01,-0.19,-0.38,-0.21,
0.088,-0.21,-0.10,0.01,-0.19,-0.39,-0.21,
0.088,-0.21,-0.10,0.01,-0.20,-0.39,-0.21,
0.089,-0.21,-0.10,0.01,-0.20,-0.39,-0.22,
0.089,-0.07,-0.14,-0.07,-0.20,-0.39,-0.22,
0.089,-0.07,-0.14,-0.07,-0.21,-0.39,-0.22,
0.089,-0.07,-0.14,-0.07,-0.22,-0.39,-0.23,
0.089,-0.07,-0.14,-0.07,-0.22,-0.39,-0.23,
0.101,-0.07,-0.14,-0.07,-0.23,-0.40,-0.23,
0.102,-0.07,-0.14,-0.07,-0.24,-0.40,-0.23,
0.102,0.03,-0.11,-0.06,-0.24,-0.40,-0.23,
0.102,0.03,-0.11,-0.06,-0.25,-0.40,-0.23,
0.111,0.03,-0.11,-0.06,-0.25,-0.40,-0.23,
0.111,0.03,-0.11,-0.06,-0.26,-0.40,-0.23,
0.112,0.03,-0.11,-0.06,-0.27,-0.38,-0.23,
0.112,0.03,-0.11,-0.06,-0.28,-0.37,-0.22,
0.112,0.03,-0.18,-0.11,-0.28,-0.37,-0.22,
0.112,0.03,-0.18,-0.11,-0.29,-0.35,-0.22,
0.112,0.03,-0.18,-0.11,-0.29,-0.34,-0.22,
0.113,0.03,-0.18,-0.11,-0.30,-0.32,-0.22,
0.113,0.03,-0.18,-0.11,-0.31,-0.31,-0.22,
0.113,0.03,-0.18,-0.11,-0.31,-0.30,-0.22,
0.116,0.11,-0.26,-0.06,-0.31,-0.30,-0.22,
0.116,0.11,-0.26,-0.06,-0.31,-0.28,-0.22,
0.116,0.11,-0.26,-0.06,-0.32,-0.27,-0.22,
0.118,0.11,-0.26,-0.06,-0.32,-0.25,-0.22,
0.12,0.11,-0.26,-0.06,-0.33,-0.24,-0.22,
0.122,0.11,-0.26,-0.06,-0.33,-0.23,-0.23,
0.127,0.17,-0.29,0.02,-0.33,-0.23,-0.23,
0.127,0.17,-0.29,0.02,-0.33,-0.21,-0.23,
0.127,0.17,-0.29,0.02,-0.33,-0.20,-0.23,
0.128,0.17,-0.29,0.02,-0.33,-0.18,-0.24,
0.13,0.17,-0.29,0.02,-0.33,-0.17,-0.24,
0.132,0.17,-0.29,0.02,-0.33,-0.16,-0.24,
0.134,0.10,-0.19,0.10,-0.33,-0.16,-0.24,
0.135,0.10,-0.19,0.10,-0.33,-0.15,-0.24,
0.16,0.10,-0.19,0.10,-0.32,-0.15,-0.25,
0.16,0.10,-0.19,0.10,-0.32,-0.15,-0.25,
0.16,0.10,-0.19,0.10,-0.32,-0.15,-0.25,
0.161,0.10,-0.19,0.10,-0.31,-0.15,-0.25,
0.161,-0.09,-0.14,0.15,-0.31,-0.15,-0.25,
0.161,-0.09,-0.14,0.15,-0.31,-0.16,-0.25,
0.161,-0.09,-0.14,0.15,-0.30,-0.16,-0.25,
0.161,-0.09,-0.14,0.15,-0.30,-0.16,-0.24,
0.161,-0.09,-0.14,0.15,-0.30,-0.16,-0.24,
0.162,-0.09,-0.14,0.15,-0.29,-0.16,-0.24,
0.162,-0.16,-0.09,0.21,-0.29,-0.16,-0.24,
0.162,-0.16,-0.09,0.21,-0.28,-0.17,-0.24,
0.162,-0.16,-0.09,0.21,-0.27,-0.17,-0.24,
0.162,-0.16,-0.09,0.21,-0.27,-0.17,-0.24,
0.163,-0.16,-0.09,0.21,-0.26,-0.17,-0.24,
0.163,-0.16,-0.09,0.21,-0.25,-0.18,-0.24,
0.187,-0.08,0.04,0.12,-0.25,-0.18,-0.24,
0.188,-0.08,0.04,0.12,-0.24,-0.18,-0.24,
0.188,-0.08,0.04,0.12,-0.24,-0.19,-0.24,
0.188,-0.08,0.04,0.12,-0.23,-0.20,-0.23,
0.189,-0.08,0.04,0.12,-0.22,-0.21,-0.23,
0.189,-0.08,0.04,0.12,-0.22,-0.22,-0.22,
0.189,-0.19,0.08,-0.04,-0.22,-0.22,-0.22,
0.189,-0.19,0.08,-0.04,-0.21,-0.23,-0.22,
0.189,-0.19,0.08,-0.04,-0.20,-0.25,-0.22,
0.19,-0.19,0.08,-0.04,-0.20,-0.27,-0.21,
0.19,-0.19,0.08,-0.04,-0.20,-0.28,-0.21,
0.19,-0.19,0.08,-0.04,-0.19,-0.30,-0.20,
0.19,-0.30,0.11,-0.19,-0.19,-0.30,-0.20,
0.19,-0.30,0.11,-0.19,-0.19,-0.31,-0.20,
0.19,-0.30,0.11,-0.19,-0.18,-0.32,-0.20,
0.191,-0.30,0.11,-0.19,-0.17,-0.32,-0.20,
0.191,-0.30,0.11,-0.19,-0.17,-0.32,-0.20,
0.194,-0.30,0.11,-0.19,-0.17,-0.32,-0.19,
0.195,-0.31,0.15,-0.19,-0.17,-0.32,-0.19,
0.195,-0.31,0.15,-0.19,-0.16,-0.31,-0.19,
0.196,-0.31,0.15,-0.19,-0.16,-0.31,-0.19,
0.198,-0.31,0.15,-0.19,-0.16,-0.30,-0.19,
0.2,-0.31,0.15,-0.19,-0.15,-0.28,-0.19,
0.202,-0.31,0.15,-0.19,-0.15,-0.26,-0.19,
0.207,-0.21,0.16,-0.10,-0.15,-0.26,-0.19,
0.207,-0.21,0.16,-0.10,-0.15,-0.24,-0.18,
0.22,-0.21,0.16,-0.10,-0.14,-0.23,-0.18,
0.221,-0.21,0.16,-0.10,-0.14,-0.21,-0.18,
0.221,-0.21,0.16,-0.10,-0.14,-0.20,-0.18,
0.221,-0.21,0.16,-0.10,-0.13,-0.19,-0.18,
0.222,-0.16,0.23,0.02,-0.13,-0.19,-0.18,
0.223,-0.16,0.23,0.02,-0.12,-0.17,-0.17,
0.224,-0.16,0.23,0.02,-0.12,-0.16,-0.17,
0.224,-0.16,0.23,0.02,-0.11,-0.15,-0.17,
0.227,-0.16,0.23,0.02,-0.10,-0.13,-0.17,
0.227,-0.16,0.23,0.02,-0.09,-0.13,-0.18,
0.229,-0.31,0.23,0.15,-0.09,-0.13,-0.18,
0.229,-0.31,0.23,0.15,-0.09,-0.12,-0.17,
0.23,-0.31,0.23,0.15,-0.08,-0.12,-0.17,
0.231,-0.31,0.23,0.15,-0.07,-0.11,-0.17,
0.231,-0.31,0.23,0.15,-0.07,-0.11,-0.17,
0.24,-0.31,0.23,0.15,-0.06,-0.11,-0.16,
0.242,-0.66,0.19,0.10,-0.06,-0.11,-0.16,
0.243,-0.66,0.19,0.10,-0.05,-0.10,-0.15,
0.243,-0.66,0.19,0.10,-0.05,-0.09,-0.14,
0.244,-0.66,0.19,0.10,-0.05,-0.07,-0.13,
0.244,-0.66,0.19,0.10,-0.05,-0.07,-0.11,
0.244,-0.66,0.19,0.10,-0.05,-0.07,-0.09,
0.26,-1.33,0.19,-0.33,-0.05,-0.07,-0.09,
0.26,-1.33,0.19,-0.33,-0.06,-0.09,-0.07,
0.261,-1.33,0.19,-0.33,-0.08,-0.11,-0.04,
0.261,-1.33,0.19,-0.33,-0.09,-0.13,-0.02,
0.261,-1.33,0.19,-0.33,-0.11,-0.15,0.00,
0.262,-1.33,0.19,-0.33,-0.14,-0.18,0.02,
0.264,-1.53,0.34,-0.95,-0.14,-0.18,0.02,
0.264,-1.53,0.34,-0.95,-0.17,-0.19,0.05,
0.265,-1.53,0.34,-0.95,-0.20,-0.20,0.07,
0.266,-1.53,0.34,-0.95,-0.24,-0.20,0.09,
0.266,-1.53,0.34,-0.95,-0.28,-0.19,0.12,
0.267,-1.53,0.34,-0.95,-0.32,-0.18,0.14,
0.286,-1.43,0.60,-1.50,-0.32,-0.18,0.14,
0.286,-1.43,0.60,-1.50,-0.37,-0.17,0.16,
0.287,-1.43,0.60,-1.50,-0.41,-0.16,0.18,
0.287,-1.43,0.60,-1.50,-0.46,-0.15,0.21,
0.287,-1.43,0.60,-1.50,-0.50,-0.15,0.24,
0.287,-1.43,0.60,-1.50,-0.55,-0.16,0.27,
0.288,-1.61,0.42,-1.75,-0.55,-0.16,0.27,
0.288,-1.61,0.42,-1.75,-0.60,-0.16,0.30,
0.288,-1.61,0.42,-1.75,-0.65,-0.17,0.33,
0.288,-1.61,0.42,-1.75,-0.69,-0.18,0.36,
0.289,-1.61,0.42,-1.75,-0.73,-0.19,0.39,
0.289,-1.61,0.42,-1.75,-0.78,-0.19,0.42,
0.289,-1.49,-0.03,-1.80,-0.78,-0.19,0.42,
0.29,-1.49,-0.03,-1.80,-0.82,-0.20,0.44,
0.29,-1.49,-0.03,-1.80,-0.86,-0.21,0.47,
0.29,-1.49,-0.03,-1.80,-0.90,-0.21,0.50,
0.306,-1.49,-0.03,-1.80,-0.94,-0.22,0.52,
0.307,-1.49,-0.03,-1.80,-0.98,-0.23,0.55,
0.307,-1.41,-0.13,-1.65,-0.98,-0.23,0.55,
0.307,-1.41,-0.13,-1.65,-1.01,-0.24,0.57,
0.307,-1.41,-0.13,-1.65,-1.04,-0.25,0.60,
0.308,-1.41,-0.13,-1.65,-1.07,-0.25,0.63,
0.308,-1.41,-0.13,-1.65,-1.10,-0.26,0.66,
0.308,-1.41,-0.13,-1.65,-1.12,-0.27,0.68,
0.308,-1.35,0.04,-1.39,-1.12,-0.27,0.68,
0.308,-1.35,0.04,-1.39,-1.13,-0.27,0.71,
0.309,-1.35,0.04,-1.39,-1.15,-0.28,0.74,
0.309,-1.35,0.04,-1.39,-1.16,-0.29,0.76,
0.312,-1.35,0.04,-1.39,-1.18,-0.30,0.79,
0.312,-1.35,0.04,-1.39,-1.18,-0.31,0.82,
0.319,-1.43,0.14,-1.08,-1.18,-0.31,0.82,
0.32,-1.43,0.14,-1.08,-1.19,-0.32,0.84,
0.32,-1.43,0.14,-1.08,-1.19,-0.33,0.87,
0.32,-1.43,0.14,-1.08,-1.19,-0.35,0.89,
0.32,-1.43,0.14,-1.08,-1.19,-0.37,0.91,
0.335,-1.43,0.14,-1.08,-1.18,-0.41,0.93,
0.335,-1.30,0.14,-0.80,-1.18,-0.41,0.93,
0.335,-1.30,0.14,-0.80,-1.18,-0.46,0.95,
0.335,-1.30,0.14,-0.80,-1.17,-0.52,0.97,
0.336,-1.30,0.14,-0.80,-1.15,-0.57,0.98,
0.336,-1.30,0.14,-0.80,-1.14,-0.62,0.99,
0.336,-1.30,0.14,-0.80,-1.13,-0.67,1.00,
0.336,-0.83,0.19,-0.59,-1.13,-0.67,1.00,
0.336,-0.83,0.19,-0.59,-1.11,-0.72,1.00,
0.336,-0.83,0.19,-0.59,-1.09,-0.76,1.00,
0.34,-0.83,0.19,-0.59,-1.08,-0.81,0.98,
0.34,-0.83,0.19,-0.59,-1.06,-0.85,0.96,
0.342,-0.83,0.19,-0.59,-1.04,-0.90,0.92,
0.344,0.59,0.49,-0.61,-1.04,-0.90,0.92,
0.345,0.59,0.49,-0.61,-1.02,-0.95,0.87,
0.346,0.59,0.49,-0.61,-1.00,-0.99,0.80,
0.348,0.59,0.49,-0.61,-0.97,-1.03,0.73,
0.35,0.59,0.49,-0.61,-0.95,-1.07,0.66,
0.352,0.59,0.49,-0.61,-0.91,-1.11,0.59,
0.354,2.44,0.73,-0.18,-0.91,-1.11,0.59,
0.355,2.44,0.73,-0.18,-0.88,-1.14,0.51,
0.357,2.44,0.73,-0.18,-0.85,-1.18,0.43,
0.359,2.44,0.73,-0.18,-0.81,-1.23,0.35,
0.36,2.44,0.73,-0.18,-0.78,-1.28,0.27,
0.362,2.44,0.73,-0.18,-0.74,-1.33,0.19,
0.365,2.85,0.62,0.34,-0.74,-1.33,0.19,
0.365,2.85,0.62,0.34,-0.70,-1.38,0.11,
0.366,2.85,0.62,0.34,-0.66,-1.41,0.04,
0.369,2.85,0.62,0.34,-0.61,-1.43,-0.04,
0.37,2.85,0.62,0.34,-0.56,-1.44,-0.11,
0.372,2.85,0.62,0.34,-0.51,-1.42,-0.18,
0.376,2.68,0.95,1.11,-0.51,-1.42,-0.18,
0.376,2.68,0.95,1.11,-0.43,-1.36,-0.28,
0.377,2.68,0.95,1.11,-0.40,-1.34,-0.31,
0.379,2.68,0.95,1.11,-0.34,-1.28,-0.37,
0.38,2.68,0.95,1.11,-0.28,-1.23,-0.42,
0.382,2.68,0.95,1.11,-0.22,-1.19,-0.46,
0.385,1.83,1.17,1.68,-0.22,-1.19,-0.46,
0.385,1.83,1.17,1.68,-0.17,-1.15,-0.50,
0.387,1.83,1.17,1.68,-0.11,-1.11,-0.54,
0.388,1.83,1.17,1.68,-0.04,-1.05,-0.59,
0.39,1.83,1.17,1.68,-0.02,-1.04,-0.60,
0.392,1.83,1.17,1.68,0.03,-1.01,-0.62,
0.394,1.04,1.01,1.78,0.03,-1.01,-0.62,
0.395,1.04,1.01,1.78,0.06,-0.98,-0.64,
0.396,1.04,1.01,1.78,0.10,-0.96,-0.66,
0.398,1.04,1.01,1.78,0.14,-0.93,-0.67,
0.4,1.04,1.01,1.78,0.16,-0.91,-0.69,
0.402,1.04,1.01,1.78,0.19,-0.88,-0.70,
0.404,0.58,0.78,1.36,0.19,-0.88,-0.70,
0.405,0.58,0.78,1.36,0.21,-0.85,-0.71,
0.407,0.58,0.78,1.36,0.22,-0.83,-0.71,
0.409,0.58,0.78,1.36,0.23,-0.80,-0.72,
0.41,0.58,0.78,1.36,0.24,-0.78,-0.72,
0.412,0.58,0.78,1.36,0.24,-0.76,-0.72,
0.415,0.18,0.67,0.68,0.24,-0.76,-0.72,
0.415,0.18,0.67,0.68,0.24,-0.74,-0.72,
0.416,0.18,0.67,0.68,0.24,-0.73,-0.71,
0.418,0.18,0.67,0.68,0.23,-0.71,-0.70,
0.42,0.18,0.67,0.68,0.22,-0.69,-0.69,
0.423,0.18,0.67,0.68,0.20,-0.67,-0.68,
0.424,-0.14,0.63,0.02,0.20,-0.67,-0.68,
0.425,-0.14,0.63,0.02,0.18,-0.65,-0.67,
0.426,-0.14,0.63,0.02,0.15,-0.63,-0.65,
0.429,-0.14,0.63,0.02,0.13,-0.61,-0.64,
0.442,-0.14,0.63,0.02,0.09,-0.59,-0.62,
0.442,-0.14,0.63,0.02,0.06,-0.57,-0.60,
0.442,-0.48,0.55,-0.66,0.06,-0.57,-0.60,
0.442,-0.48,0.55,-0.66,0.03,-0.55,-0.58,
0.442,-0.48,0.55,-0.66,-0.01,-0.53,-0.55,
0.443,-0.48,0.55,-0.66,-0.05,-0.51,-0.53,
0.443,-0.48,0.55,-0.66,-0.09,-0.49,-0.51,
0.443,-0.48,0.55,-0.66,-0.13,-0.47,-0.49,
0.448,-0.75,0.47,-1.16,-0.13,-0.47,-0.49,
0.448,-0.75,0.47,-1.16,-0.17,-0.45,-0.46,
0.448,-0.75,0.47,-1.16,-0.21,-0.43,-0.43,
0.449,-0.75,0.47,-1.16,-0.27,-0.41,-0.39,
0.45,-0.75,0.47,-1.16,-0.29,-0.40,-0.37,
0.452,-0.75,0.47,-1.16,-0.33,-0.39,-0.34,
0.455,-1.04,0.47,-1.35,-0.33,-0.39,-0.34,
0.455,-1.04,0.47,-1.35,-0.36,-0.37,-0.31,
0.464,-1.04,0.47,-1.35,-0.40,-0.36,-0.28,
0.464,-1.04,0.47,-1.35,-0.43,-0.35,-0.24,
0.464,-1.04,0.47,-1.35,-0.45,-0.33,-0.21,
0.465,-1.04,0.47,-1.35,-0.48,-0.32,-0.18,
0.465,-0.99,0.47,-1.05,-0.48,-0.32,-0.18,
0.465,-0.99,0.47,-1.05,-0.49,-0.31,-0.15,
0.466,-0.99,0.47,-1.05,-0.51,-0.30,-0.12,
0.469,-0.99,0.47,-1.05,-0.52,-0.29,-0.08,
0.471,-0.99,0.47,-1.05,-0.52,-0.28,-0.05,
0.473,-0.99,0.47,-1.05,-0.52,-0.27,-0.02,
0.477,-0.78,0.52,-0.38,-0.52,-0.27,-0.02,
0.477,-0.78,0.52,-0.38,-0.52,-0.26,0.01,
0.477,-0.78,0.52,-0.38,-0.51,-0.25,0.04,
0.479,-0.78,0.52,-0.38,-0.50,-0.25,0.06,
0.484,-0.78,0.52,-0.38,-0.49,-0.24,0.09,
0.485,-0.78,0.52,-0.38,-0.47,-0.23,0.12,
0.485,-0.44,0.43,0.10,-0.47,-0.23,0.12,
0.486,-0.44,0.43,0.10,-0.45,-0.23,0.14,
0.486,-0.44,0.43,0.10,-0.44,-0.22,0.16,
0.488,-0.44,0.43,0.10,-0.42,-0.20,0.18,
0.49,-0.44,0.43,0.10,-0.40,-0.19,0.19,
0.492,-0.44,0.43,0.10,-0.38,-0.18,0.20,
0.497,-0.25,0.38,0.02,-0.38,-0.18,0.20,
0.497,-0.25,0.38,0.02,-0.36,-0.18,0.21,
0.498,-0.25,0.38,0.02,-0.34,-0.18,0.22,
0.499,-0.25,0.38,0.02,-0.33,-0.18,0.22,
0.5,-0.25,0.38,0.02,-0.31,-0.18,0.22,
0.502,-0.25,0.38,0.02,-0.29,-0.19,0.22,
0.504,0.01,0.48,-0.24,-0.29,-0.19,0.22,
0.505,0.01,0.48,-0.24,-0.27,-0.20,0.22,
0.506,0.01,0.48,-0.24,-0.26,-0.21,0.21,
0.508,0.01,0.48,-0.24,-0.26,-0.23,0.20,
0.51,0.01,0.48,-0.24,-0.25,-0.25,0.18,
0.512,0.01,0.48,-0.24,-0.25,-0.27,0.17,
0.514,0.14,0.56,-0.96,-0.25,-0.27,0.17,
0.515,0.14,0.56,-0.96,-0.25,-0.29,0.16,
0.516,0.14,0.56,-0.96,-0.25,-0.31,0.15,
0.518,0.14,0.56,-0.96,-0.26,-0.34,0.13,
0.52,0.14,0.56,-0.96,-0.27,-0.37,0.12,
0.523,0.14,0.56,-0.96,-0.28,-0.40,0.11,
0.525,-0.11,0.82,-1.65,-0.28,-0.40,0.11,
0.526,-0.11,0.82,-1.65,-0.29,-0.43,0.10,
0.527,-0.11,0.82,-1.65,-0.31,-0.46,0.09,
0.528,-0.11,0.82,-1.65,-0.32,-0.49,0.09,
0.53,-0.11,0.82,-1.65,-0.34,-0.52,0.09,
0.532,-0.11,0.82,-1.65,-0.36,-0.55,0.09,
0.535,-0.46,1.02,-2.08,-0.36,-0.55,0.09,
0.535,-0.46,1.02,-2.08,-0.38,-0.58,0.09,
0.536,-0.46,1.02,-2.08,-0.40,-0.61,0.09,
0.538,-0.46,1.02,-2.08,-0.42,-0.64,0.10,
0.553,-0.46,1.02,-2.08,-0.45,-0.66,0.11,
0.553,-0.46,1.02,-2.08,-0.47,-0.68,0.12,
0.554,-0.73,0.97,-2.34,-0.47,-0.68,0.12,
0.555,-0.73,0.97,-2.34,-0.50,-0.70,0.13,
0.555,-0.73,0.97,-2.34,-0.52,-0.72,0.15,
0.555,-0.73,0.97,-2.34,-0.54,-0.73,0.17,
0.556,-0.73,0.97,-2.34,-0.56,-0.74,0.19,
0.556,-0.73,0.97,-2.34,-0.57,-0.74,0.21,
0.556,-1.10,0.93,-2.05,-0.57,-0.74,0.21,
0.557,-1.10,0.93,-2.05,-0.58,-0.74,0.23,
0.56,-1.10,0.93,-2.05,-0.59,-0.74,0.26,
0.578,-1.10,0.93,-2.05,-0.60,-0.74,0.29,
0.579,-1.10,0.93,-2.05,-0.60,-0.73,0.32,
0.58,-1.10,0.93,-2.05,-0.60,-0.72,0.35,
0.58,-1.31,0.88,-1.47,-0.60,-0.72,0.35,
0.581,-1.31,0.88,-1.47,-0.60,-0.71,0.38,
0.581,-1.31,0.88,-1.47,-0.60,-0.70,0.41,
0.581,-1.31,0.88,-1.47,-0.60,-0.69,0.44,
0.581,-1.31,0.88,-1.47,-0.60,-0.68,0.47,
0.582,-1.31,0.88,-1.47,-0.60,-0.67,0.50,
0.582,-1.31,0.76,-1.19,-0.60,-0.67,0.50,
0.583,-1.31,0.76,-1.19,-0.60,-0.65,0.52,
0.583,-1.31,0.76,-1.19,-0.60,-0.64,0.55,
0.583,-1.31,0.76,-1.19,-0.59,-0.62,0.57,
0.583,-1.31,0.76,-1.19,-0.59,-0.60,0.60,
0.584,-1.31,0.76,-1.19,-0.59,-0.59,0.62,
0.591,-1.23,0.60,-0.80,-0.59,-0.59,0.62,
0.592,-1.23,0.60,-0.80,-0.59,-0.57,0.65,
0.592,-1.23,0.60,-0.80,-0.58,-0.56,0.67,
0.592,-1.23,0.60,-0.80,-0.58,-0.55,0.68,
0.593,-1.23,0.60,-0.80,-0.58,-0.55,0.70,
0.593,-1.23,0.60,-0.80,-0.57,-0.54,0.72,
0.595,-0.98,0.53,-0.30,-0.57,-0.54,0.72,
0.595,-0.98,0.53,-0.30,-0.57,-0.52,0.73,
0.623,-0.98,0.53,-0.30,-0.56,-0.51,0.75,
0.624,-0.98,0.53,-0.30,-0.56,-0.50,0.76,
0.624,-0.98,0.53,-0.30,-0.55,-0.49,0.77,
0.625,-0.98,0.53,-0.30,-0.55,-0.48,0.78,
0.625,-0.41,0.54,0.14,-0.55,-0.48,0.78,
0.625,-0.41,0.54,0.14,-0.54,-0.47,0.79,
0.626,-0.41,0.54,0.14,-0.54,-0.46,0.79,
0.626,-0.41,0.54,0.14,-0.53,-0.45,0.79,
0.627,-0.41,0.54,0.14,-0.52,-0.44,0.78,
0.627,-0.41,0.54,0.14,-0.51,-0.42,0.78,
0.627,0.29,0.80,0.57,-0.51,-0.42,0.78,
0.628,0.29,0.80,0.57,-0.50,-0.41,0.77,
0.628,0.29,0.80,0.57,-0.49,-0.39,0.76,
0.629,0.29,0.80,0.57,-0.49,-0.37,0.74,
0.629,0.29,0.80,0.57,-0.48,-0.34,0.72,
0.629,0.29,0.80,0.57,-0.48,-0.31,0.71,
0.63,0.80,1.14,0.75,-0.48,-0.31,0.71,
0.63,0.80,1.14,0.75,-0.48,-0.28,0.69,
0.631,0.80,1.14,0.75,-0.48,-0.25,0.67,
0.631,0.80,1.14,0.75,-0.49,-0.21,0.65,
0.632,0.80,1.14,0.75,-0.51,-0.17,0.63,
0.632,0.80,1.14,0.75,-0.52,-0.13,0.61,
0.648,1.10,1.44,0.58,-0.52,-0.13,0.61,
0.649,1.10,1.44,0.58,-0.55,-0.09,0.59,
0.649,1.10,1.44,0.58,-0.57,-0.04,0.57,
0.65,1.10,1.44,0.58,-0.60,0.01,0.55,
0.65,1.10,1.44,0.58,-0.63,0.07,0.53,
0.65,1.10,1.44,0.58,-0.67,0.13,0.52,
0.651,1.17,1.58,0.40,-0.67,0.13,0.52,
0.651,1.17,1.58,0.40,-0.71,0.19,0.50,
0.651,1.17,1.58,0.40,-0.75,0.24,0.49,
0.652,1.17,1.58,0.40,-0.80,0.29,0.47,
0.652,1.17,1.58,0.40,-0.84,0.34,0.45,
0.652,1.17,1.58,0.40,-0.89,0.38,0.43,
0.662,1.10,1.63,0.32,-0.89,0.38,0.43,
0.663,1.10,1.63,0.32,-0.94,0.42,0.41,
0.663,1.10,1.63,0.32,-0.99,0.45,0.39,
0.664,1.10,1.63,0.32,-1.04,0.47,0.37,
0.664,1.10,1.63,0.32,-1.09,0.49,0.35,
0.664,1.10,1.63,0.32,-1.13,0.51,0.34,
0.665,0.94,1.50,0.65,-1.13,0.51,0.34,
0.665,0.94,1.50,0.65,-1.16,0.52,0.32,
0.667,0.94,1.50,0.65,-1.20,0.52,0.30,
0.668,0.94,1.50,0.65,-1.23,0.53,0.29,
0.67,0.94,1.50,0.65,-1.25,0.55,0.27,
0.686,0.94,1.50,0.65,-1.27,0.56,0.26,
0.687,0.72,1.40,1.38,-1.27,0.56,0.26,
0.687,0.72,1.40,1.38,-1.28,0.57,0.25,
0.687,0.72,1.40,1.38,-1.28,0.59,0.24,
0.688,0.72,1.40,1.38,-1.28,0.61,0.22,
0.689,0.72,1.40,1.38,-1.28,0.62,0.21,
0.689,0.72,1.40,1.38,-1.26,0.63,0.19,
0.689,0.62,1.16,2.30,-1.26,0.63,0.19,
0.69,0.62,1.16,2.30,-1.23,0.65,0.18,
0.69,0.62,1.16,2.30,-1.21,0.65,0.16,
0.69,0.62,1.16,2.30,-1.17,0.66,0.14,
0.691,0.62,1.16,2.30,-1.13,0.66,0.12,
0.721,0.62,1.16,2.30,-1.09,0.65,0.10,
0.721,0.71,0.95,3.26,-1.09,0.65,0.10,
0.722,0.71,0.95,3.26,-1.03,0.65,0.08,
0.722,0.71,0.95,3.26,-0.98,0.64,0.06,
0.722,0.71,0.95,3.26,-0.92,0.63,0.04,
0.722,0.71,0.95,3.26,-0.85,0.61,0.02,
0.722,0.71,0.95,3.26,-0.79,0.59,0.01,
0.723,0.76,0.84,3.78,-0.79,0.59,0.01,
0.723,0.76,0.84,3.78,-0.72,0.57,-0.02,
0.723,0.76,0.84,3.78,-0.65,0.54,-0.03,
0.723,0.76,0.84,3.78,-0.57,0.50,-0.05,
0.724,0.76,0.84,3.78,-0.50,0.45,-0.07,
0.724,0.76,0.84,3.78,-0.44,0.40,-0.09,
0.724,0.70,0.73,3.69,-0.44,0.40,-0.09,
0.724,0.70,0.73,3.69,-0.37,0.35,-0.12,
0.725,0.70,0.73,3.69,-0.30,0.29,-0.13,
0.725,0.70,0.73,3.69,-0.24,0.22,-0.16,
0.725,0.70,0.73,3.69,-0.18,0.15,-0.18,
0.725,0.70,0.73,3.69,-0.12,0.09,-0.19,
0.726,0.35,0.59,3.13,-0.12,0.09,-0.19,
0.726,0.35,0.59,3.13,-0.04,-0.02,-0.22,
0.727,0.35,0.59,3.13,-0.01,-0.05,-0.23,
0.728,0.35,0.59,3.13,0.03,-0.13,-0.24,
0.73,0.35,0.59,3.13,0.08,-0.20,-0.26,
0.732,0.35,0.59,3.13,0.12,-0.27,-0.27,
0.735,-0.04,0.37,2.36,0.12,-0.27,-0.27,
0.736,-0.04,0.37,2.36,0.15,-0.34,-0.28,
0.737,-0.04,0.37,2.36,0.18,-0.41,-0.29,
0.747,-0.04,0.37,2.36,0.21,-0.48,-0.29,
0.748,-0.04,0.37,2.36,0.23,-0.55,-0.30,
0.749,-0.04,0.37,2.36,0.25,-0.62,-0.30,
0.75,-0.38,0.13,1.67,0.25,-0.62,-0.30,
0.751,-0.38,0.13,1.67,0.27,-0.68,-0.30,
0.752,-0.38,0.13,1.67,0.28,-0.75,-0.30,
0.753,-0.38,0.13,1.67,0.30,-0.81,-0.30,
0.754,-0.38,0.13,1.67,0.31,-0.86,-0.29,
0.754,-0.38,0.13,1.67,0.31,-0.92,-0.28,
0.755,-0.64,-0.02,1.17,0.31,-0.92,-0.28,
0.755,-0.64,-0.02,1.17,0.32,-0.97,-0.28,
0.761,-0.64,-0.02,1.17,0.32,-1.02,-0.27,
0.761,-0.64,-0.02,1.17,0.32,-1.08,-0.26,
0.762,-0.64,-0.02,1.17,0.32,-1.12,-0.26,
0.762,-0.64,-0.02,1.17,0.32,-1.17,-0.25,
0.78,-0.55,-0.08,0.86,0.32,-1.17,-0.25,
0.78,-0.55,-0.08,0.86,0.31,-1.21,-0.25,
0.78,-0.55,-0.08,0.86,0.31,-1.25,-0.24,
0.78,-0.55,-0.08,0.86,0.31,-1.28,-0.23,
0.78,-0.55,-0.08,0.86,0.30,-1.30,-0.23,
0.781,-0.55,-0.08,0.86,0.29,-1.33,-0.23,
0.781,-0.23,-0.16,0.73,0.29,-1.33,-0.23,
0.781,-0.23,-0.16,0.73,0.28,-1.35,-0.23,
0.781,-0.23,-0.16,0.73,0.27,-1.37,-0.23,
0.781,-0.23,-0.16,0.73,0.26,-1.39,-0.23,
0.782,-0.23,-0.16,0.73,0.24,-1.40,-0.23,
0.785,-0.23,-0.16,0.73,0.23,-1.41,-0.24,
0.786,0.27,-0.27,0.77,0.23,-1.41,-0.24,
0.786,0.27,-0.27,0.77,0.21,-1.41,-0.25,
0.786,0.27,-0.27,0.77,0.19,-1.41,-0.26,
0.793,0.27,-0.27,0.77,0.17,-1.41,-0.28,
0.794,0.27,-0.27,0.77,0.15,-1.41,-0.29,
0.794,0.27,-0.27,0.77,0.13,-1.40,-0.30,
0.795,0.78,-0.40,1.16,0.13,-1.40,-0.30,
0.795,0.78,-0.40,1.16,0.12,-1.40,-0.32,
0.796,0.78,-0.40,1.16,0.10,-1.39,-0.34,
0.798,0.78,-0.40,1.16,0.09,-1.37,-0.36,
0.8,0.78,-0.40,1.16,0.07,-1.36,-0.38,
0.802,0.78,-0.40,1.16,0.06,-1.34,-0.40,
0.805,0.98,-0.56,1.68,0.06,-1.34,-0.40,
0.805,0.98,-0.56,1.68,0.05,-1.32,-0.41,
0.807,0.98,-0.56,1.68,0.04,-1.30,-0.43,
0.808,0.98,-0.56,1.68,0.02,-1.28,-0.45,
0.81,0.98,-0.56,1.68,0.01,-1.25,-0.46,
0.814,0.98,-0.56,1.68,0.01,-1.22,-0.48,
0.816,1.03,-0.81,2.12,0.01,-1.22,-0.48,
0.816,1.03,-0.81,2.12,-0.00,-1.19,-0.50,
0.817,1.03,-0.81,2.12,-0.00,-1.15,-0.51,
0.819,1.03,-0.81,2.12,-0.01,-1.11,-0.52,
0.821,1.03,-0.81,2.12,-0.01,-1.07,-0.52,
0.827,1.03,-0.81,2.12,-0.01,-1.02,-0.53,
0.827,0.84,-1.01,2.44,-0.01,-1.02,-0.53,
0.828,0.84,-1.01,2.44,-0.01,-0.97,-0.53,
0.828,0.84,-1.01,2.44,-0.01,-0.92,-0.53,
0.829,0.84,-1.01,2.44,-0.01,-0.87,-0.53,
0.831,0.84,-1.01,2.44,-0.00,-0.81,-0.52,
0.838,0.84,-1.01,2.44,0.00,-0.76,-0.52,
0.852,0.51,-1.24,2.53,0.00,-0.76,-0.52,
0.853,0.51,-1.24,2.53,0.01,-0.70,-0.51,
0.853,0.51,-1.24,2.53,0.02,-0.65,-0.50,
0.853,0.51,-1.24,2.53,0.03,-0.60,-0.49,
0.854,0.51,-1.24,2.53,0.04,-0.55,-0.48,
0.854,0.51,-1.24,2.53,0.05,-0.50,-0.46,
0.854,0.21,-1.40,2.27,0.05,-0.50,-0.46,
0.854,0.21,-1.40,2.27,0.06,-0.45,-0.45,
0.854,0.21,-1.40,2.27,0.07,-0.40,-0.43,
0.855,0.21,-1.40,2.27,0.08,-0.36,-0.42,
0.855,0.21,-1.40,2.27,0.09,-0.31,-0.40,
0.855,0.21,-1.40,2.27,0.10,-0.27,-0.39,
0.857,-0.07,-1.43,1.71,0.10,-0.27,-0.39,
0.857,-0.07,-1.43,1.71,0.11,-0.23,-0.37,
0.857,-0.07,-1.43,1.71,0.12,-0.20,-0.36,
0.861,-0.07,-1.43,1.71,0.13,-0.16,-0.35,
0.861,-0.07,-1.43,1.71,0.14,-0.13,-0.34,
0.862,-0.07,-1.43,1.71,0.15,-0.11,-0.33,
0.865,-0.22,-1.33,1.04,0.15,-0.11,-0.33,
0.865,-0.22,-1.33,1.04,0.16,-0.09,-0.32,
0.867,-0.22,-1.33,1.04,0.17,-0.07,-0.31,
0.868,-0.22,-1.33,1.04,0.18,-0.06,-0.31,
0.871,-0.22,-1.33,1.04,0.19,-0.04,-0.30,
0.872,-0.22,-1.33,1.04,0.20,-0.04,-0.30,
0.875,-0.19,-1.20,0.37,0.20,-0.04,-0.30,
0.875,-0.19,-1.20,0.37,0.21,-0.03,-0.30,
0.876,-0.19,-1.20,0.37,0.22,-0.02,-0.30,
0.88,-0.19,-1.20,0.37,0.23,-0.01,-0.30,
0.881,-0.19,-1.20,0.37,0.23,-0.01,-0.30,
0.882,-0.19,-1.20,0.37,0.25,-0.01,-0.30,
0.885,-0.13,-1.10,-0.25,0.25,-0.01,-0.30,
0.885,-0.13,-1.10,-0.25,0.25,-0.01,-0.31,
0.887,-0.13,-1.10,-0.25,0.26,-0.02,-0.31,
0.892,-0.13,-1.10,-0.25,0.28,-0.02,-0.31,
0.892,-0.13,-1.10,-0.25,0.29,-0.03,-0.32,
0.893,-0.13,-1.10,-0.25,0.29,-0.04,-0.32,
0.895,-0.16,-1.00,-0.74,0.29,-0.04,-0.32,
0.896,-0.16,-1.00,-0.74,0.31,-0.05,-0.33,
0.897,-0.16,-1.00,-0.74,0.31,-0.06,-0.33,
0.898,-0.16,-1.00,-0.74,0.32,-0.07,-0.34,
0.9,-0.16,-1.00,-0.74,0.33,-0.08,-0.34,
0.902,-0.16,-1.00,-0.74,0.34,-0.09,-0.34,
0.905,-0.26,-0.89,-1.25,0.34,-0.09,-0.34,
0.905,-0.26,-0.89,-1.25,0.35,-0.10,-0.35,
0.907,-0.26,-0.89,-1.25,0.35,-0.12,-0.35,
0.909,-0.26,-0.89,-1.25,0.35,-0.14,-0.35,
0.91,-0.26,-0.89,-1.25,0.36,-0.15,-0.36,
0.912,-0.26,-0.89,-1.25,0.36,-0.17,-0.36,
0.915,-0.39,-0.81,-1.58,0.36,-0.17,-0.36,
0.915,-0.39,-0.81,-1.58,0.37,-0.19,-0.37,
0.921,-0.39,-0.81,-1.58,0.37,-0.20,-0.37,
0.922,-0.39,-0.81,-1.58,0.37,-0.22,-0.38,
0.922,-0.39,-0.81,-1.58,0.37,-0.23,-0.38,
0.923,-0.39,-0.81,-1.58,0.37,-0.25,-0.39,
0.926,-0.42,-0.79,-1.70,0.37,-0.25,-0.39,
0.926,-0.42,-0.79,-1.70,0.37,-0.26,-0.40,
0.927,-0.42,-0.79,-1.70,0.37,-0.28,-0.40,
0.929,-0.42,-0.79,-1.70,0.37,-0.29,-0.40,
0.948,-0.42,-0.79,-1.70,0.37,-0.30,-0.41,
0.949,-0.42,-0.79,-1.70,0.37,-0.32,-0.41,
0.949,-0.49,-0.90,-1.66,0.37,-0.32,-0.41,
0.949,-0.49,-0.90,-1.66,0.37,-0.33,-0.40,
0.95,-0.49,-0.90,-1.66,0.37,-0.35,-0.40,
0.95,-0.49,-0.90,-1.66,0.37,-0.36,-0.40,
0.95,-0.49,-0.90,-1.66,0.37,-0.37,-0.40,
0.95,-0.49,-0.90,-1.66,0.36,-0.38,-0.39,
0.951,-0.47,-0.97,-1.57,0.36,-0.38,-0.39,
0.951,-0.47,-0.97,-1.57,0.36,-0.39,-0.39,
0.951,-0.47,-0.97,-1.57,0.35,-0.40,-0.39,
0.951,-0.47,-0.97,-1.57,0.34,-0.40,-0.38,
0.951,-0.47,-0.97,-1.57,0.34,-0.41,-0.38,
0.955,-0.47,-0.97,-1.57,0.33,-0.41,-0.37,
0.956,-0.29,-1.06,-1.33,0.33,-0.41,-0.37,
0.956,-0.29,-1.06,-1.33,0.32,-0.41,-0.37,
0.956,-0.29,-1.06,-1.33,0.32,-0.41,-0.37,
0.959,-0.29,-1.06,-1.33,0.31,-0.40,-0.37,
0.961,-0.29,-1.06,-1.33,0.30,-0.39,-0.37,
0.965,-0.29,-1.06,-1.33,0.29,-0.38,-0.37,
0.965,0.04,-1.08,-0.97,0.29,-0.38,-0.37,
0.966,0.04,-1.08,-0.97,0.29,-0.37,-0.37,
0.967,0.04,-1.08,-0.97,0.28,-0.36,-0.37,
0.969,0.04,-1.08,-0.97,0.27,-0.34,-0.38,
0.981,0.04,-1.08,-0.97,0.26,-0.33,-0.38,
0.982,0.04,-1.08,-0.97,0.25,-0.31,-0.38,
0.982,0.35,-1.11,-0.64,0.25,-0.31,-0.38,
0.982,0.35,-1.11,-0.64,0.24,-0.30,-0.39,
0.982,0.35,-1.11,-0.64,0.23,-0.28,-0.39,
0.982,0.35,-1.11,-0.64,0.22,-0.27,-0.40,
0.983,0.35,-1.11,-0.64,0.20,-0.25,-0.40,
0.983,0.35,-1.11,-0.64,0.19,-0.24,-0.41,
0.996,0.60,-1.13,-0.34,0.19,-0.24,-0.41,
0.996,0.60,-1.13,-0.34,0.17,-0.22,-0.42,
0.996,0.60,-1.13,-0.34,0.15,-0.20,-0.43,
0.996,0.60,-1.13,-0.34,0.14,-0.18,-0.44,
0.997,0.60,-1.13,-0.34,0.13,-0.17,-0.44,
0.997,0.60,-1.13,-0.34,0.12,-0.16,-0.45,
0.997,0.67,-1.22,-0.05,0.12,-0.16,-0.45,
0.997,0.67,-1.22,-0.05,0.10,-0.14,-0.45,
0.997,0.67,-1.22,-0.05,0.09,-0.13,-0.46,
0.998,0.67,-1.22,-0.05,0.06,-0.10,-0.46,
1.001,0.67,-1.22,-0.05,0.06,-0.09,-0.46,
1.01,0.67,-1.22,-0.05,0.05,-0.06,-0.46,
1.01,0.53,-1.28,0.16,0.05,-0.06,-0.46,
1.01,0.53,-1.28,0.16,0.03,-0.04,-0.46,
1.011,0.53,-1.28,0.16,0.02,-0.01,-0.46,
1.011,0.53,-1.28,0.16,0.01,0.01,-0.46,
1.011,0.53,-1.28,0.16,0.00,0.05,-0.45,
1.012,0.53,-1.28,0.16,-0.01,0.08,-0.44,
1.015,0.33,-1.34,0.31,-0.01,0.08,-0.44,
1.015,0.33,-1.34,0.31,-0.02,0.12,-0.43,
1.016,0.33,-1.34,0.31,-0.03,0.16,-0.43,
1.018,0.33,-1.34,0.31,-0.04,0.21,-0.41,
1.021,0.33,-1.34,0.31,-0.05,0.26,-0.41,
1.022,0.33,-1.34,0.31,-0.06,0.31,-0.40,
1.025,0.16,-1.29,0.25,-0.06,0.31,-0.40,
1.026,0.16,-1.29,0.25,-0.07,0.37,-0.38,
1.026,0.16,-1.29,0.25,-0.08,0.43,-0.37,
1.028,0.16,-1.29,0.25,-0.09,0.49,-0.36,
1.03,0.16,-1.29,0.25,-0.09,0.55,-0.34,
1.032,0.16,-1.29,0.25,-0.10,0.61,-0.32,
1.035,-0.13,-1.27,-0.02,-0.10,0.61,-0.32,
1.035,-0.13,-1.27,-0.02,-0.11,0.67,-0.30,
1.037,-0.13,-1.27,-0.02,-0.11,0.74,-0.28,
1.038,-0.13,-1.27,-0.02,-0.12,0.81,-0.25,
1.04,-0.13,-1.27,-0.02,-0.13,0.87,-0.22,
1.042,-0.13,-1.27,-0.02,-0.14,0.93,-0.19,
1.044,-0.53,-1.19,-0.51,-0.14,0.93,-0.19,
1.044,-0.53,-1.19,-0.51,-0.15,0.98,-0.16,
1.046,-0.53,-1.19,-0.51,-0.17,1.04,-0.13,
1.05,-0.53,-1.19,-0.51,-0.19,1.10,-0.09,
1.051,-0.53,-1.19,-0.51,-0.20,1.12,-0.08,
1.052,-0.53,-1.19,-0.51,-0.21,1.16,-0.05,
1.055,-0.77,-1.10,-1.03,-0.21,1.16,-0.05,
1.055,-0.77,-1.10,-1.03,-0.23,1.19,-0.03,
1.056,-0.77,-1.10,-1.03,-0.24,1.22,-0.01,
1.058,-0.77,-1.10,-1.03,-0.26,1.24,0.00,
1.061,-0.77,-1.10,-1.03,-0.27,1.26,0.02,
1.062,-0.77,-1.10,-1.03,-0.29,1.28,0.03,
1.065,-0.71,-0.88,-1.41,-0.29,1.28,0.03,
1.065,-0.71,-0.88,-1.41,-0.30,1.28,0.04,
1.066,-0.71,-0.88,-1.41,-0.32,1.28,0.06,
1.068,-0.71,-0.88,-1.41,-0.33,1.27,0.06,
1.07,-0.71,-0.88,-1.41,-0.34,1.26,0.06,
1.072,-0.71,-0.88,-1.41,-0.35,1.23,0.07,
1.075,-0.61,-0.68,-1.55,-0.35,1.23,0.07,
1.075,-0.61,-0.68,-1.55,-0.35,1.19,0.07,
1.076,-0.61,-0.68,-1.55,-0.36,1.17,0.07,
1.078,-0.61,-0.68,-1.55,-0.35,1.10,0.06,
1.08,-0.61,-0.68,-1.55,-0.35,1.08,0.06,
1.082,-0.61,-0.68,-1.55,-0.34,1.03,0.06,
1.084,-0.42,-0.39,-1.27,-0.34,1.03,0.06,
1.084,-0.42,-0.39,-1.27,-0.33,0.98,0.05,
1.089,-0.42,-0.39,-1.27,-0.31,0.90,0.04,
1.089,-0.42,-0.39,-1.27,-0.29,0.84,0.04,
1.09,-0.42,-0.39,-1.27,-0.28,0.81,0.03,
1.095,-0.42,-0.39,-1.27,-0.25,0.76,0.03,
1.095,-0.28,-0.17,-0.95,-0.25,0.76,0.03,
1.095,-0.28,-0.17,-0.95,-0.22,0.71,0.03,
1.105,-0.28,-0.17,-0.95,-0.18,0.63,0.02,
1.105,-0.28,-0.17,-0.95,-0.15,0.57,0.02,
1.105,-0.28,-0.17,-0.95,-0.13,0.55,0.02,
1.105,-0.28,-0.17,-0.95,-0.10,0.50,0.02,
1.105,-0.16,0.04,-0.86,-0.10,0.50,0.02,
1.105,-0.16,0.04,-0.86,-0.07,0.45,0.02,
1.107,-0.16,0.04,-0.86,-0.04,0.39,0.02,
1.108,-0.16,0.04,-0.86,0.00,0.31,0.01,
1.11,-0.16,0.04,-0.86,0.02,0.29,0.01,
1.112,-0.16,0.04,-0.86,0.04,0.24,0.01,
1.115,-0.05,0.23,-1.00,0.04,0.24,0.01,
1.115,-0.05,0.23,-1.00,0.08,0.16,0.00,
1.116,-0.05,0.23,-1.00,0.10,0.12,0.00,
1.118,-0.05,0.23,-1.00,0.13,0.07,-0.01,
1.12,-0.05,0.23,-1.00,0.14,0.05,-0.01,
1.122,-0.05,0.23,-1.00,0.16,0.01,-0.01,
1.124,0.05,0.47,-1.24,0.16,0.01,-0.01,
1.125,0.05,0.47,-1.24,0.19,-0.04,-0.02,
1.126,0.05,0.47,-1.24,0.20,-0.08,-0.03,
1.128,0.05,0.47,-1.24,0.22,-0.11,-0.04,
1.13,0.05,0.47,-1.24,0.22,-0.12,-0.04,
1.132,0.05,0.47,-1.24,0.24,-0.15,-0.05,
1.134,0.05,0.67,-1.59,0.24,-0.15,-0.05,
1.135,0.05,0.67,-1.59,0.25,-0.20,-0.06,
1.141,0.05,0.67,-1.59,0.26,-0.27,-0.07,
1.141,0.05,0.67,-1.59,0.26,-0.27,-0.07,
1.142,0.05,0.67,-1.59,0.26,-0.27,-0.07,
1.143,0.05,0.67,-1.59,0.26,-0.32,-0.08,
1.144,-0.09,0.70,-1.90,0.26,-0.32,-0.08,
1.144,-0.09,0.70,-1.90,0.27,-0.34,-0.08,
1.146,-0.09,0.70,-1.90,0.26,-0.36,-0.07,
1.148,-0.09,0.70,-1.90,0.26,-0.38,-0.07,
1.15,-0.09,0.70,-1.90,0.26,-0.39,-0.07,
1.152,-0.09,0.70,-1.90,0.25,-0.40,-0.07,
1.155,-0.27,0.78,-2.07,0.25,-0.40,-0.07,
1.155,-0.27,0.78,-2.07,0.24,-0.41,-0.06,
1.157,-0.27,0.78,-2.07,0.23,-0.42,-0.06,
1.158,-0.27,0.78,-2.07,0.22,-0.43,-0.05,
1.16,-0.27,0.78,-2.07,0.21,-0.43,-0.04,
1.162,-0.27,0.78,-2.07,0.20,-0.43,-0.04,
1.164,-0.43,0.83,-2.19,0.20,-0.43,-0.04,
1.165,-0.43,0.83,-2.19,0.18,-0.43,-0.03,
1.166,-0.43,0.83,-2.19,0.16,-0.43,-0.02,
1.169,-0.43,0.83,-2.19,0.15,-0.43,-0.02,
1.171,-0.43,0.83,-2.19,0.13,-0.42,-0.01,
1.172,-0.43,0.83,-2.19,0.11,-0.41,-0.01,
1.174,-0.45,0.91,-2.27,0.11,-0.41,-0.01,
1.175,-0.45,0.91,-2.27,0.09,-0.41,-0.00,
1.177,-0.45,0.91,-2.27,0.07,-0.40,-0.00,
1.178,-0.45,0.91,-2.27,0.05,-0.39,-0.00,
1.18,-0.45,0.91,-2.27,0.03,-0.38,-0.00,
1.182,-0.45,0.91,-2.27,0.00,-0.37,-0.00,
1.184,-0.32,1.01,-2.22,0.00,-0.37,-0.00,
1.185,-0.32,1.01,-2.22,-0.02,-0.36,-0.01,
1.186,-0.32,1.01,-2.22,-0.04,-0.35,-0.01,
1.188,-0.32,1.01,-2.22,-0.06,-0.34,-0.01,
1.19,-0.32,1.01,-2.22,-0.08,-0.33,-0.01,
1.192,-0.32,1.01,-2.22,-0.10,-0.32,-0.02,
1.194,-0.27,1.18,-1.98,-0.10,-0.32,-0.02,
1.195,-0.27,1.18,-1.98,-0.12,-0.31,-0.02,
1.196,-0.27,1.18,-1.98,-0.14,-0.30,-0.03,
1.198,-0.27,1.18,-1.98,-0.15,-0.28,-0.03,
1.2,-0.27,1.18,-1.98,-0.17,-0.27,-0.03,
1.202,-0.27,1.18,-1.98,-0.19,-0.25,-0.03,
1.204,-0.33,1.24,-1.68,-0.19,-0.25,-0.03,
1.205,-0.33,1.24,-1.68,-0.20,-0.24,-0.03,
1.207,-0.33,1.24,-1.68,-0.22,-0.22,-0.03,
1.208,-0.33,1.24,-1.68,-0.23,-0.20,-0.03,
1.211,-0.33,1.24,-1.68,-0.25,-0.18,-0.04,
1.212,-0.33,1.24,-1.68,-0.27,-0.16,-0.03,
1.214,-0.42,1.26,-1.40,-0.27,-0.16,-0.03,
1.215,-0.42,1.26,-1.40,-0.28,-0.14,-0.03,
1.216,-0.42,1.26,-1.40,-0.29,-0.12,-0.03,
1.218,-0.42,1.26,-1.40,-0.30,-0.09,-0.03,
1.221,-0.42,1.26,-1.40,-0.31,-0.06,-0.03,
1.222,-0.42,1.26,-1.40,-0.32,-0.03,-0.03,
1.225,-0.49,1.20,-1.11,-0.32,-0.03,-0.03,
1.227,-0.49,1.20,-1.11,-0.33,-0.00,-0.02,
1.228,-0.49,1.20,-1.11,-0.34,0.03,-0.01,
1.229,-0.49,1.20,-1.11,-0.35,0.06,-0.01,
1.233,-0.49,1.20,-1.11,-0.36,0.10,0.00,
1.233,-0.49,1.20,-1.11,-0.36,0.13,0.01,
1.235,-0.69,1.18,-0.85,-0.36,0.13,0.01,
1.235,-0.69,1.18,-0.85,-0.37,0.16,0.02,
1.252,-0.69,1.18,-0.85,-0.37,0.20,0.03,
1.252,-0.69,1.18,-0.85,-0.38,0.23,0.04,
1.252,-0.69,1.18,-0.85,-0.38,0.26,0.05,
1.253,-0.69,1.18,-0.85,-0.39,0.29,0.06,
1.253,-0.92,1.14,-0.56,-0.39,0.29,0.06,
1.253,-0.92,1.14,-0.56,-0.39,0.33,0.07,
1.253,-0.92,1.14,-0.56,-0.39,0.36,0.08,
1.253,-0.92,1.14,-0.56,-0.39,0.39,0.09,
1.253,-0.92,1.14,-0.56,-0.38,0.42,0.11,
1.254,-0.92,1.14,-0.56,-0.38,0.45,0.12,
1.256,-1.19,1.13,-0.22,-0.38,0.45,0.12,
1.257,-1.19,1.13,-0.22,-0.38,0.47,0.14,
1.257,-1.19,1.13,-0.22,-0.37,0.51,0.15,
1.263,-1.19,1.13,-0.22,-0.37,0.53,0.17,
1.263,-1.19,1.13,-0.22,-0.36,0.56,0.19,
1.264,-1.19,1.13,-0.22,-0.35,0.59,0.20,
1.289,-1.38,1.06,0.06,-0.35,0.59,0.20,
1.289,-1.38,1.06,0.06,-0.35,0.61,0.22,
1.29,-1.38,1.06,0.06,-0.34,0.63,0.24,
1.29,-1.38,1.06,0.06,-0.33,0.65,0.26,
1.291,-1.38,1.06,0.06,-0.32,0.67,0.27,
1.291,-1.38,1.06,0.06,-0.30,0.69,0.29,
1.291,-1.55,1.04,0.28,-0.30,0.69,0.29,
1.292,-1.55,1.04,0.28,-0.29,0.71,0.31,
1.292,-1.55,1.04,0.28,-0.28,0.72,0.33,
1.293,-1.55,1.04,0.28,-0.26,0.73,0.35,
1.293,-1.55,1.04,0.28,-0.25,0.74,0.36,
1.294,-1.55,1.04,0.28,-0.23,0.74,0.38,
1.294,-1.60,0.96,0.46,-0.23,0.74,0.38,
1.294,-1.60,0.96,0.46,-0.22,0.75,0.40,
1.295,-1.60,0.96,0.46,-0.20,0.75,0.42,
1.295,-1.60,0.96,0.46,-0.18,0.75,0.43,
1.295,-1.60,0.96,0.46,-0.17,0.75,0.45,
1.296,-1.60,0.96,0.46,-0.14,0.75,0.47,
1.296,-1.64,0.96,0.57,-0.14,0.75,0.47,
1.297,-1.64,0.96,0.57,-0.13,0.74,0.48,
1.297,-1.64,0.96,0.57,-0.11,0.73,0.50,
1.306,-1.64,0.96,0.57,-0.10,0.72,0.52,
1.307,-1.64,0.96,0.57,-0.08,0.71,0.53,
1.307,-1.64,0.96,0.57,-0.06,0.70,0.55,
1.307,-1.59,0.85,0.69,-0.06,0.70,0.55,
1.308,-1.59,0.85,0.69,-0.04,0.68,0.56,
1.308,-1.59,0.85,0.69,-0.02,0.67,0.58,
1.308,-1.59,0.85,0.69,0.00,0.65,0.60,
1.31,-1.59,0.85,0.69,0.02,0.64,0.62,
1.312,-1.59,0.85,0.69,0.04,0.62,0.64,
1.314,-1.64,0.84,0.76,0.04,0.62,0.64,
1.315,-1.64,0.84,0.76,0.06,0.61,0.65,
1.316,-1.64,0.84,0.76,0.08,0.59,0.67,
1.318,-1.64,0.84,0.76,0.10,0.57,0.69,
1.322,-1.64,0.84,0.76,0.12,0.56,0.70,
1.323,-1.64,0.84,0.76,0.14,0.54,0.72,
1.325,-1.49,0.71,0.73,0.14,0.54,0.72,
1.325,-1.49,0.71,0.73,0.15,0.53,0.73,
1.326,-1.49,0.71,0.73,0.17,0.52,0.75,
1.331,-1.49,0.71,0.73,0.19,0.51,0.76,
1.331,-1.49,0.71,0.73,0.20,0.50,0.78,
1.335,-1.49,0.71,0.73,0.21,0.49,0.79,
1.335,-1.44,0.57,0.69,0.21,0.49,0.79,
1.335,-1.44,0.57,0.69,0.22,0.48,0.81,
1.337,-1.44,0.57,0.69,0.23,0.47,0.82,
1.339,-1.44,0.57,0.69,0.25,0.46,0.84,
1.342,-1.44,0.57,0.69,0.26,0.45,0.86,
1.342,-1.44,0.57,0.69,0.27,0.44,0.87,
1.345,-1.34,0.38,0.75,0.27,0.44,0.87,
1.345,-1.34,0.38,0.75,0.28,0.44,0.89,
1.346,-1.34,0.38,0.75,0.29,0.43,0.90,
1.348,-1.34,0.38,0.75,0.31,0.43,0.92,
1.35,-1.34,0.38,0.75,0.32,0.42,0.93,
1.353,-1.34,0.38,0.75,0.33,0.42,0.95,
1.355,-1.22,0.28,0.90,0.33,0.42,0.95,
1.355,-1.22,0.28,0.90,0.34,0.43,0.97,
1.357,-1.22,0.28,0.90,0.35,0.44,0.98,
1.358,-1.22,0.28,0.90,0.36,0.46,1.00,
1.36,-1.22,0.28,0.90,0.37,0.48,1.02,
1.362,-1.22,0.28,0.90,0.38,0.51,1.04,
1.365,-1.15,0.17,0.85,0.38,0.51,1.04,
1.365,-1.15,0.17,0.85,0.38,0.54,1.06,
1.367,-1.15,0.17,0.85,0.39,0.57,1.08,
1.369,-1.15,0.17,0.85,0.39,0.61,1.10,
1.371,-1.15,0.17,0.85,0.39,0.65,1.12,
1.373,-1.15,0.17,0.85,0.39,0.68,1.15,
1.375,-1.25,0.14,0.61,0.39,0.68,1.15,
1.375,-1.25,0.14,0.61,0.39,0.72,1.17,
1.377,-1.25,0.14,0.61,0.38,0.75,1.19,
1.378,-1.25,0.14,0.61,0.38,0.79,1.22,
1.38,-1.25,0.14,0.61,0.37,0.82,1.24,
1.382,-1.25,0.14,0.61,0.36,0.85,1.26,
1.384,-1.30,0.35,0.26,0.36,0.85,1.26,
1.385,-1.30,0.35,0.26,0.35,0.87,1.29,
1.394,-1.30,0.35,0.26,0.33,0.88,1.30,
1.395,-1.30,0.35,0.26,0.31,0.89,1.32,
1.395,-1.30,0.35,0.26,0.28,0.89,1.33,
1.395,-1.30,0.35,0.26,0.24,0.88,1.34,
1.399,-1.10,0.47,-0.41,0.24,0.88,1.34,
1.4,-1.10,0.47,-0.41,0.21,0.86,1.35,
1.4,-1.10,0.47,-0.41,0.16,0.83,1.35,
1.4,-1.10,0.47,-0.41,0.11,0.79,1.35,
1.4,-1.10,0.47,-0.41,0.05,0.74,1.34,
1.432,-1.10,0.47,-0.41,-0.01,0.68,1.32,
1.433,-0.42,0.37,-0.89,-0.01,0.68,1.32,
1.433,-0.42,0.37,-0.89,-0.07,0.60,1.30,
1.433,-0.42,0.37,-0.89,-0.13,0.52,1.27,
1.433,-0.42,0.37,-0.89,-0.20,0.43,1.24,
1.434,-0.42,0.37,-0.89,-0.27,0.34,1.21,
1.434,-0.42,0.37,-0.89,-0.33,0.26,1.17,
1.434,0.44,0.27,-0.46,-0.33,0.26,1.17,
1.434,0.44,0.27,-0.46,-0.39,0.16,1.12,
1.434,0.44,0.27,-0.46,-0.44,0.08,1.08,
1.435,0.44,0.27,-0.46,-0.49,-0.00,1.03,
1.435,0.44,0.27,-0.46,-0.53,-0.07,0.98,
1.435,0.44,0.27,-0.46,-0.57,-0.14,0.94,
1.435,0.84,0.04,0.90,-0.57,-0.14,0.94,
1.435,0.84,0.04,0.90,-0.60,-0.21,0.89,
1.436,0.84,0.04,0.90,-0.62,-0.27,0.85,
1.436,0.84,0.04,0.90,-0.64,-0.33,0.80,
1.455,0.84,0.04,0.90,-0.66,-0.39,0.77,
1.455,0.84,0.04,0.90,-0.67,-0.44,0.73,
1.456,0.85,-0.48,2.62,-0.67,-0.44,0.73,
1.456,0.85,-0.48,2.62,-0.67,-0.49,0.70,
1.456,0.85,-0.48,2.62,-0.67,-0.54,0.68,
1.456,0.85,-0.48,2.62,-0.67,-0.59,0.65,
1.456,0.85,-0.48,2.62,-0.66,-0.64,0.63,
1.457,0.85,-0.48,2.62,-0.65,-0.68,0.61,
1.457,0.59,-1.18,4.30,-0.65,-0.68,0.61,
1.457,0.59,-1.18,4.30,-0.63,-0.71,0.60,
1.457,0.59,-1.18,4.30,-0.61,-0.74,0.59,
1.457,0.59,-1.18,4.30,-0.58,-0.76,0.59,
1.458,0.59,-1.18,4.30,-0.55,-0.77,0.59,
1.458,0.59,-1.18,4.30,-0.52,-0.78,0.60,
1.458,0.17,-1.83,5.64,-0.52,-0.78,0.60,
1.458,0.17,-1.83,5.64,-0.48,-0.78,0.60,
1.458,0.17,-1.83,5.64,-0.44,-0.78,0.62,
1.465,0.17,-1.83,5.64,-0.40,-0.76,0.64,
1.466,0.17,-1.83,5.64,-0.36,-0.74,0.66,
1.466,0.17,-1.83,5.64,-0.33,-0.73,0.69,
1.466,-0.31,-2.28,6.33,-0.33,-0.73,0.69,
1.466,-0.31,-2.28,6.33,-0.28,-0.71,0.71,
1.466,-0.31,-2.28,6.33,-0.23,-0.69,0.72,
1.47,-0.31,-2.28,6.33,-0.18,-0.66,0.73,
1.471,-0.31,-2.28,6.33,-0.13,-0.62,0.75,
1.481,-0.31,-2.28,6.33,-0.07,-0.56,0.76,
1.481,0.04,-3.07,6.73,-0.07,-0.56,0.76,
1.481,0.04,-3.07,6.73,-0.00,-0.50,0.78,
1.481,0.04,-3.07,6.73,0.06,-0.42,0.79,
1.487,0.04,-3.07,6.73,0.13,-0.35,0.81,
1.488,0.04,-3.07,6.73,0.19,-0.27,0.83,
1.488,0.04,-3.07,6.73,0.26,-0.19,0.85,
1.488,-0.00,-3.13,6.39,0.26,-0.19,0.85,
1.488,-0.00,-3.13,6.39,0.32,-0.11,0.87,
1.488,-0.00,-3.13,6.39,0.38,-0.04,0.90,
1.489,-0.00,-3.13,6.39,0.43,0.03,0.91,
1.492,-0.00,-3.13,6.39,0.48,0.11,0.93,
1.492,-0.00,-3.13,6.39,0.53,0.17,0.95,
1.499,-0.03,-2.96,5.36,0.53,0.17,0.95,
1.499,-0.03,-2.96,5.36,0.57,0.24,0.96,
1.499,-0.03,-2.96,5.36,0.61,0.31,0.97,
1.5,-0.03,-2.96,5.36,0.63,0.37,0.99,
1.5,-0.03,-2.96,5.36,0.65,0.43,0.99,
1.514,-0.03,-2.96,5.36,0.67,0.48,1.00,
1.514,0.10,-2.63,3.57,0.67,0.48,1.00,
1.514,0.10,-2.63,3.57,0.68,0.53,1.01,
1.515,0.10,-2.63,3.57,0.68,0.57,1.01,
1.515,0.10,-2.63,3.57,0.67,0.60,1.02,
1.515,0.10,-2.63,3.57,0.66,0.63,1.02,
1.515,0.10,-2.63,3.57,0.64,0.65,1.02,
1.515,0.16,-2.34,1.61,0.64,0.65,1.02,
1.516,0.16,-2.34,1.61,0.62,0.66,1.02,
1.516,0.16,-2.34,1.61,0.59,0.67,1.01,
1.546,0.16,-2.34,1.61,0.56,0.68,1.01,
1.546,0.16,-2.34,1.61,0.52,0.67,1.00,
1.547,0.16,-2.34,1.61,0.48,0.66,0.99,
1.547,0.20,-1.96,0.04,0.48,0.66,0.99,
1.547,0.20,-1.96,0.04,0.44,0.64,0.98,
1.547,0.20,-1.96,0.04,0.39,0.61,0.97,
1.547,0.20,-1.96,0.04,0.35,0.58,0.96,
1.547,0.20,-1.96,0.04,0.30,0.54,0.95,
1.548,0.20,-1.96,0.04,0.25,0.49,0.93,
1.548,0.30,-1.75,-0.85,0.25,0.49,0.93,
1.548,0.30,-1.75,-0.85,0.21,0.44,0.92,
1.548,0.30,-1.75,-0.85,0.16,0.39,0.90,
1.548,0.30,-1.75,-0.85,0.12,0.33,0.88,
1.549,0.30,-1.75,-0.85,0.08,0.27,0.86,
1.549,0.30,-1.75,-0.85,0.05,0.21,0.84,
1.549,0.47,-1.66,-0.89,0.05,0.21,0.84,
1.549,0.47,-1.66,-0.89,0.02,0.15,0.81,
1.549,0.47,-1.66,-0.89,-0.01,0.08,0.79,
1.549,0.47,-1.66,-0.89,-0.03,0.01,0.77,
1.55,0.47,-1.66,-0.89,-0.05,-0.05,0.75,
1.559,0.47,-1.66,-0.89,-0.07,-0.11,0.73,
1.56,0.50,-1.77,-0.30,-0.07,-0.11,0.73,
1.56,0.50,-1.77,-0.30,-0.08,-0.16,0.71,
1.56,0.50,-1.77,-0.30,-0.08,-0.21,0.70,
1.561,0.50,-1.77,-0.30,-0.08,-0.26,0.68,
1.561,0.50,-1.77,-0.30,-0.07,-0.30,0.67,
1.562,0.50,-1.77,-0.30,-0.07,-0.33,0.66,
1.565,0.45,-1.85,0.47,-0.07,-0.33,0.66,
1.565,0.45,-1.85,0.47,-0.06,-0.36,0.64,
1.567,0.45,-1.85,0.47,-0.04,-0.39,0.64,
1.569,0.45,-1.85,0.47,-0.02,-0.41,0.63,
1.571,0.45,-1.85,0.47,-0.00,-0.42,0.62,
1.572,0.45,-1.85,0.47,0.02,-0.43,0.61,
1.575,0.41,-2.02,1.06,0.02,-0.43,0.61,
1.575,0.41,-2.02,1.06,0.05,-0.43,0.61,
1.577,0.41,-2.02,1.06,0.08,-0.43,0.60,
1.578,0.41,-2.02,1.06,0.11,-0.43,0.60,
1.58,0.41,-2.02,1.06,0.14,-0.42,0.59,
1.582,0.41,-2.02,1.06,0.17,-0.41,0.59,
1.586,0.35,-2.11,1.25,0.17,-0.41,0.59,
1.588,0.35,-2.11,1.25,0.20,-0.40,0.59,
1.59,0.35,-2.11,1.25,0.23,-0.39,0.58,
1.591,0.35,-2.11,1.25,0.26,-0.38,0.58,
1.591,0.35,-2.11,1.25,0.29,-0.37,0.58,
1.593,0.35,-2.11,1.25,0.32,-0.35,0.57,
1.595,0.32,-2.19,0.93,0.32,-0.35,0.57,
1.595,0.32,-2.19,0.93,0.34,-0.34,0.57,
1.616,0.32,-2.19,0.93,0.37,-0.32,0.57,
1.616,0.32,-2.19,0.93,0.39,-0.30,0.57,
1.616,0.32,-2.19,0.93,0.41,-0.28,0.57,
1.616,0.32,-2.19,0.93,0.43,-0.26,0.57,
1.616,0.14,-2.08,0.22,0.43,-0.26,0.57,
1.616,0.14,-2.08,0.22,0.44,-0.24,0.57,
1.617,0.14,-2.08,0.22,0.46,-0.22,0.57,
1.617,0.14,-2.08,0.22,0.46,-0.19,0.57,
1.617,0.14,-2.08,0.22,0.47,-0.17,0.58,
1.617,0.14,-2.08,0.22,0.47,-0.14,0.58,
1.617,0.09,-2.01,-0.77,0.47,-0.14,0.58,
1.618,0.09,-2.01,-0.77,0.47,-0.12,0.58,
1.618,0.09,-2.01,-0.77,0.46,-0.10,0.58,
1.625,0.09,-2.01,-0.77,0.45,-0.07,0.58,
1.626,0.09,-2.01,-0.77,0.44,-0.05,0.58,
1.626,0.09,-2.01,-0.77,0.43,-0.03,0.58,
1.626,0.07,-1.86,-1.70,0.43,-0.03,0.58,
1.626,0.07,-1.86,-1.70,0.41,-0.01,0.57,
1.626,0.07,-1.86,-1.70,0.40,0.02,0.57,
1.631,0.07,-1.86,-1.70,0.38,0.03,0.57,
1.631,0.07,-1.86,-1.70,0.36,0.05,0.56,
1.633,0.07,-1.86,-1.70,0.34,0.07,0.56,
1.636,0.12,-1.70,-2.40,0.34,0.07,0.56,
1.637,0.12,-1.70,-2.40,0.32,0.08,0.55,
1.637,0.12,-1.70,-2.40,0.29,0.10,0.55,
1.64,0.12,-1.70,-2.40,0.27,0.11,0.54,
1.641,0.12,-1.70,-2.40,0.25,0.12,0.53,
1.642,0.12,-1.70,-2.40,0.23,0.13,0.53,
1.644,0.13,-1.54,-2.77,0.23,0.13,0.53,
1.645,0.13,-1.54,-2.77,0.21,0.14,0.52,
1.646,0.13,-1.54,-2.77,0.19,0.14,0.51,
1.648,0.13,-1.54,-2.77,0.16,0.14,0.51,
1.65,0.13,-1.54,-2.77,0.15,0.15,0.50,
1.662,0.13,-1.54,-2.77,0.13,0.15,0.49,
1.662,0.08,-1.53,-2.88,0.13,0.15,0.49,
1.663,0.08,-1.53,-2.88,0.11,0.14,0.49,
1.663,0.08,-1.53,-2.88,0.09,0.14,0.48,
1.663,0.08,-1.53,-2.88,0.08,0.14,0.48,
1.663,0.08,-1.53,-2.88,0.07,0.13,0.47,
1.664,0.08,-1.53,-2.88,0.05,0.12,0.47,
1.665,-0.01,-1.49,-2.79,0.05,0.12,0.47,
1.665,-0.01,-1.49,-2.79,0.04,0.11,0.46,
1.691,-0.01,-1.49,-2.79,0.03,0.10,0.46,
1.692,-0.01,-1.49,-2.79,0.02,0.09,0.46,
1.692,-0.01,-1.49,-2.79,0.02,0.08,0.46,
1.692,-0.01,-1.49,-2.79,0.01,0.06,0.46,
1.693,-0.15,-1.52,-2.55,0.01,0.06,0.46,
1.693,-0.15,-1.52,-2.55,0.01,0.05,0.46,
1.693,-0.15,-1.52,-2.55,0.00,0.03,0.47,
1.693,-0.15,-1.52,-2.55,0.00,0.02,0.47,
1.694,-0.15,-1.52,-2.55,0.00,0.00,0.47,
1.694,-0.15,-1.52,-2.55,0.00,-0.02,0.48,
1.694,-0.22,-1.47,-2.27,0.00,-0.02,0.48,
1.694,-0.22,-1.47,-2.27,0.01,-0.04,0.48,
1.694,-0.22,-1.47,-2.27,0.01,-0.05,0.49,
1.695,-0.22,-1.47,-2.27,0.01,-0.07,0.49,
1.695,-0.22,-1.47,-2.27,0.02,-0.09,0.50,
1.695,-0.22,-1.47,-2.27,0.02,-0.12,0.50,
1.695,-0.26,-1.47,-2.01,0.02,-0.12,0.50,
1.696,-0.26,-1.47,-2.01,0.03,-0.14,0.51,
1.696,-0.26,-1.47,-2.01,0.03,-0.15,0.52,
1.698,-0.26,-1.47,-2.01,0.04,-0.17,0.52,
1.7,-0.26,-1.47,-2.01,0.04,-0.19,0.53,
1.706,-0.26,-1.47,-2.01,0.05,-0.21,0.54,
1.706,-0.21,-1.47,-1.84,0.05,-0.21,0.54,
1.707,-0.21,-1.47,-1.84,0.05,-0.22,0.55,
1.707,-0.21,-1.47,-1.84,0.06,-0.24,0.56,
1.708,-0.21,-1.47,-1.84,0.06,-0.25,0.56,
1.71,-0.21,-1.47,-1.84,0.07,-0.27,0.57,
1.713,-0.21,-1.47,-1.84,0.07,-0.28,0.58,
1.715,-0.09,-1.43,-1.66,0.07,-0.28,0.58,
1.715,-0.09,-1.43,-1.66,0.08,-0.30,0.58,
1.716,-0.09,-1.43,-1.66,0.09,-0.31,0.58,
1.724,-0.09,-1.43,-1.66,0.09,-0.31,0.59,
1.724,-0.09,-1.43,-1.66,0.10,-0.32,0.59,
1.724,-0.09,-1.43,-1.66,0.11,-0.33,0.59,
1.725,0.10,-1.38,-1.49,0.11,-0.33,0.59,
1.726,0.10,-1.38,-1.49,0.12,-0.33,0.59,
1.727,0.10,-1.38,-1.49,0.13,-0.34,0.59,
1.729,0.10,-1.38,-1.49,0.13,-0.35,0.59,
1.731,0.10,-1.38,-1.49,0.14,-0.35,0.59,
1.732,0.10,-1.38,-1.49,0.15,-0.36,0.58,
1.735,0.26,-1.36,-1.41,0.15,-0.36,0.58,
1.736,0.26,-1.36,-1.41,0.16,-0.37,0.58,
1.736,0.26,-1.36,-1.41,0.16,-0.38,0.58,
1.738,0.26,-1.36,-1.41,0.17,-0.39,0.57,
1.74,0.26,-1.36,-1.41,0.18,-0.40,0.57,
1.743,0.26,-1.36,-1.41,0.18,-0.41,0.56,
1.745,0.35,-1.23,-1.38,0.18,-0.41,0.56,
1.745,0.35,-1.23,-1.38,0.19,-0.42,0.56,
1.747,0.35,-1.23,-1.38,0.19,-0.44,0.55,
1.748,0.35,-1.23,-1.38,0.20,-0.45,0.55,
1.751,0.35,-1.23,-1.38,0.21,-0.46,0.54,
1.752,0.35,-1.23,-1.38,0.22,-0.47,0.53,
1.757,0.48,-1.15,-1.34,0.22,-0.47,0.53,
1.757,0.48,-1.15,-1.34,0.22,-0.48,0.52,
1.757,0.48,-1.15,-1.34,0.23,-0.49,0.52,
1.758,0.48,-1.15,-1.34,0.24,-0.50,0.51,
1.76,0.48,-1.15,-1.34,0.24,-0.51,0.50,
1.763,0.48,-1.15,-1.34,0.25,-0.52,0.49,
1.774,0.51,-1.09,-1.32,0.25,-0.52,0.49,
1.774,0.51,-1.09,-1.32,0.26,-0.52,0.48,
1.774,0.51,-1.09,-1.32,0.27,-0.52,0.48,
1.774,0.51,-1.09,-1.32,0.28,-0.53,0.47,
1.774,0.51,-1.09,-1.32,0.29,-0.53,0.46,
1.774,0.51,-1.09,-1.32,0.29,-0.53,0.45,
1.777,0.52,-1.11,-1.24,0.29,-0.53,0.45,
1.778,0.52,-1.11,-1.24,0.31,-0.53,0.44,
1.778,0.52,-1.11,-1.24,0.32,-0.54,0.44,
1.779,0.52,-1.11,-1.24,0.32,-0.54,0.43,
1.78,0.52,-1.11,-1.24,0.34,-0.54,0.43,
1.782,0.52,-1.11,-1.24,0.35,-0.54,0.42,
1.787,0.47,-1.09,-1.19,0.35,-0.54,0.42,
1.787,0.47,-1.09,-1.19,0.36,-0.54,0.41,
1.787,0.47,-1.09,-1.19,0.37,-0.54,0.41,
1.788,0.47,-1.09,-1.19,0.39,-0.53,0.40,
1.79,0.47,-1.09,-1.19,0.40,-0.54,0.40,
1.792,0.47,-1.09,-1.19,0.41,-0.53,0.39,
1.795,0.39,-1.12,-1.13,0.41,-0.53,0.39,
1.795,0.39,-1.12,-1.13,0.42,-0.53,0.39,
1.796,0.39,-1.12,-1.13,0.44,-0.53,0.38,
1.799,0.39,-1.12,-1.13,0.46,-0.53,0.38,
1.807,0.39,-1.12,-1.13,0.47,-0.53,0.37,
1.807,0.39,-1.12,-1.13,0.49,-0.53,0.37,
1.807,0.30,-1.12,-1.10,0.49,-0.53,0.37,
1.808,0.30,-1.12,-1.10,0.51,-0.53,0.37,
1.808,0.30,-1.12,-1.10,0.52,-0.53,0.37,
1.808,0.30,-1.12,-1.10,0.54,-0.53,0.36,
1.81,0.30,-1.12,-1.10,0.56,-0.53,0.36,
1.814,0.30,-1.12,-1.10,0.57,-0.53,0.36,
1.816,0.18,-1.15,-1.05,0.57,-0.53,0.36,
1.817,0.18,-1.15,-1.05,0.59,-0.53,0.36,
1.817,0.18,-1.15,-1.05,0.61,-0.53,0.36,
1.819,0.18,-1.15,-1.05,0.63,-0.53,0.35,
1.82,0.18,-1.15,-1.05,0.65,-0.53,0.36,
1.824,0.18,-1.15,-1.05,0.67,-0.53,0.36,
1.826,0.10,-1.19,-1.04,0.67,-0.53,0.36,
1.826,0.10,-1.19,-1.04,0.69,-0.52,0.36,
1.826,0.10,-1.19,-1.04,0.71,-0.52,0.36,
1.83,0.10,-1.19,-1.04,0.73,-0.52,0.35,
1.83,0.10,-1.19,-1.04,0.75,-0.52,0.35,
1.832,0.10,-1.19,-1.04,0.77,-0.52,0.36,
1.835,0.05,-1.25,-1.03,0.77,-0.52,0.36,
1.835,0.05,-1.25,-1.03,0.80,-0.51,0.36,
1.836,0.05,-1.25,-1.03,0.82,-0.51,0.35,
1.839,0.05,-1.25,-1.03,0.85,-0.51,0.35,
1.84,0.05,-1.25,-1.03,0.87,-0.50,0.35,
1.842,0.05,-1.25,-1.03,0.89,-0.50,0.35,
1.844,0.04,-1.28,-1.05,0.89,-0.50,0.35,
1.844,0.04,-1.28,-1.05,0.92,-0.49,0.35,
1.846,0.04,-1.28,-1.05,0.94,-0.49,0.35,
1.848,0.04,-1.28,-1.05,0.97,-0.48,0.35,
1.85,0.04,-1.28,-1.05,1.00,-0.47,0.35,
1.852,0.04,-1.28,-1.05,1.02,-0.47,0.34,
1.855,0.08,-1.33,-1.18,1.02,-0.47,0.34,
1.855,0.08,-1.33,-1.18,1.04,-0.46,0.34,
1.856,0.08,-1.33,-1.18,1.07,-0.45,0.34,
1.859,0.08,-1.33,-1.18,1.09,-0.44,0.33,
1.86,0.08,-1.33,-1.18,1.11,-0.43,0.33,
1.863,0.08,-1.33,-1.18,1.13,-0.42,0.33,
1.865,0.09,-1.26,-1.48,1.13,-0.42,0.33,
1.865,0.09,-1.26,-1.48,1.14,-0.41,0.33,
1.867,0.09,-1.26,-1.48,1.15,-0.40,0.32,
1.868,0.09,-1.26,-1.48,1.17,-0.39,0.32,
1.871,0.09,-1.26,-1.48,1.17,-0.37,0.31,
1.872,0.09,-1.26,-1.48,1.18,-0.36,0.31,
1.875,0.15,-1.24,-2.04,1.18,-0.36,0.31,
1.875,0.15,-1.24,-2.04,1.18,-0.35,0.31,
1.876,0.15,-1.24,-2.04,1.18,-0.33,0.30,
1.878,0.15,-1.24,-2.04,1.17,-0.31,0.30,
1.88,0.15,-1.24,-2.04,1.17,-0.29,0.29,
1.883,0.15,-1.24,-2.04,1.15,-0.27,0.29,
1.885,0.16,-1.16,-2.72,1.15,-0.27,0.29,
1.885,0.16,-1.16,-2.72,1.14,-0.24,0.28,
1.887,0.16,-1.16,-2.72,1.13,-0.22,0.27,
1.888,0.16,-1.16,-2.72,1.11,-0.19,0.27,
1.893,0.16,-1.16,-2.72,1.09,-0.16,0.26,
1.893,0.16,-1.16,-2.72,1.07,-0.12,0.26,
1.895,0.18,-1.04,-3.31,1.07,-0.12,0.26,
1.896,0.18,-1.04,-3.31,1.05,-0.09,0.25,
1.897,0.18,-1.04,-3.31,1.03,-0.06,0.25,
1.899,0.18,-1.04,-3.31,1.00,-0.02,0.24,
1.9,0.18,-1.04,-3.31,0.98,0.02,0.23,
1.902,0.18,-1.04,-3.31,0.95,0.05,0.23,
1.905,0.16,-0.85,-3.85,0.95,0.05,0.23,
1.905,0.16,-0.85,-3.85,0.92,0.09,0.22,
1.906,0.16,-0.85,-3.85,0.89,0.13,0.21,
1.909,0.16,-0.85,-3.85,0.85,0.16,0.20,
1.91,0.16,-0.85,-3.85,0.82,0.19,0.19,
1.912,0.16,-0.85,-3.85,0.78,0.22,0.19,
1.915,0.15,-0.65,-4.30,0.78,0.22,0.19,
1.915,0.15,-0.65,-4.30,0.74,0.25,0.18,
1.937,0.15,-0.65,-4.30,0.70,0.28,0.17,
1.938,0.15,-0.65,-4.30,0.66,0.30,0.16,
1.938,0.15,-0.65,-4.30,0.62,0.33,0.15,
1.938,0.15,-0.65,-4.30,0.57,0.35,0.14,
1.938,0.09,-0.49,-4.62,0.57,0.35,0.14,
1.939,0.09,-0.49,-4.62,0.53,0.37,0.13,
1.939,0.09,-0.49,-4.62,0.48,0.38,0.12,
1.939,0.09,-0.49,-4.62,0.44,0.40,0.11,
1.963,0.09,-0.49,-4.62,0.39,0.41,0.10,
1.963,0.09,-0.49,-4.62,0.34,0.42,0.09,
1.963,0.12,-0.23,-4.72,0.34,0.42,0.09,
1.964,0.12,-0.23,-4.72,0.30,0.42,0.08,
1.964,0.12,-0.23,-4.72,0.26,0.43,0.07,
1.964,0.12,-0.23,-4.72,0.21,0.42,0.05,
1.964,0.12,-0.23,-4.72,0.17,0.42,0.04,
1.965,0.12,-0.23,-4.72,0.12,0.41,0.02,
1.965,0.19,-0.04,-4.51,0.12,0.41,0.02,
1.965,0.19,-0.04,-4.51,0.08,0.40,0.00,
1.965,0.19,-0.04,-4.51,0.04,0.39,-0.01,
1.966,0.19,-0.04,-4.51,0.00,0.37,-0.03,
1.966,0.19,-0.04,-4.51,-0.03,0.35,-0.05,
1.966,0.19,-0.04,-4.51,-0.07,0.33,-0.07,
1.966,0.24,0.19,-3.96,-0.07,0.33,-0.07,
1.967,0.24,0.19,-3.96,-0.10,0.30,-0.09,
1.967,0.24,0.19,-3.96,-0.12,0.28,-0.11,
1.967,0.24,0.19,-3.96,-0.15,0.25,-0.13,
1.967,0.24,0.19,-3.96,-0.17,0.22,-0.15,
1.968,0.24,0.19,-3.96,-0.19,0.20,-0.17,
1.968,0.17,0.29,-3.04,-0.19,0.20,-0.17,
1.968,0.17,0.29,-3.04,-0.21,0.17,-0.18,
1.969,0.17,0.29,-3.04,-0.22,0.14,-0.20,
1.969,0.17,0.29,-3.04,-0.24,0.12,-0.21,
1.975,0.17,0.29,-3.04,-0.24,0.10,-0.22,
1.975,0.17,0.29,-3.04,-0.25,0.08,-0.24,
1.975,-0.02,0.37,-2.03,-0.25,0.08,-0.24,
1.976,-0.02,0.37,-2.03,-0.25,0.06,-0.24,
1.977,-0.02,0.37,-2.03,-0.25,0.04,-0.26,
1.979,-0.02,0.37,-2.03,-0.26,0.03,-0.26,
1.98,-0.02,0.37,-2.03,-0.26,0.02,-0.27,
1.982,-0.02,0.37,-2.03,-0.26,0.01,-0.28,
1.988,-0.15,0.44,-1.25,-0.26,0.01,-0.28,
1.989,-0.15,0.44,-1.25,-0.26,-0.00,-0.28,
1.989,-0.15,0.44,-1.25,-0.26,-0.01,-0.29,
1.991,-0.15,0.44,-1.25,-0.27,-0.01,-0.29,
1.991,-0.15,0.44,-1.25,-0.27,-0.02,-0.30,
1.993,-0.15,0.44,-1.25,-0.27,-0.02,-0.30,
1.995,-0.31,0.56,-0.64,-0.27,-0.02,-0.30,
1.995,-0.31,0.56,-0.64,-0.27,-0.02,-0.30,
1.997,-0.31,0.56,-0.64,-0.27,-0.03,-0.31,
1.999,-0.31,0.56,-0.64,-0.28,-0.03,-0.31,
2.001,-0.31,0.56,-0.64,-0.28,-0.03,-0.30,
2.003,-0.31,0.56,-0.64,-0.28,-0.02,-0.30,
2.005,-0.51,0.68,-0.05,-0.28,-0.02,-0.30,
2.005,-0.51,0.68,-0.05,-0.28,-0.02,-0.30,
2.006,-0.51,0.68,-0.05,-0.29,-0.01,-0.29,
2.009,-0.51,0.68,-0.05,-0.29,0.01,-0.29,
2.01,-0.51,0.68,-0.05,-0.30,0.02,-0.28,
2.012,-0.51,0.68,-0.05,-0.31,0.05,-0.27,
2.015,-0.72,0.83,0.44,-0.31,0.05,-0.27,
2.015,-0.72,0.83,0.44,-0.32,0.07,-0.26,
2.018,-0.72,0.83,0.44,-0.33,0.10,-0.25,
2.018,-0.72,0.83,0.44,-0.35,0.14,-0.25,
2.02,-0.72,0.83,0.44,-0.36,0.17,-0.24,
2.023,-0.72,0.83,0.44,-0.38,0.21,-0.23,
2.024,-0.68,0.98,0.64,-0.38,0.21,-0.23,
2.025,-0.68,0.98,0.64,-0.40,0.25,-0.22,
2.026,-0.68,0.98,0.64,-0.42,0.29,-0.22,
2.028,-0.68,0.98,0.64,-0.45,0.33,-0.22,
2.03,-0.68,0.98,0.64,-0.48,0.36,-0.21,
2.032,-0.68,0.98,0.64,-0.51,0.40,-0.21,
2.035,-0.59,1.15,0.67,-0.51,0.40,-0.21,
2.035,-0.59,1.15,0.67,-0.54,0.44,-0.21,
2.036,-0.59,1.15,0.67,-0.57,0.47,-0.22,
2.038,-0.59,1.15,0.67,-0.60,0.51,-0.22,
2.04,-0.59,1.15,0.67,-0.64,0.54,-0.22,
2.042,-0.59,1.15,0.67,-0.67,0.56,-0.22,
2.045,-0.34,1.33,0.71,-0.67,0.56,-0.22,
2.045,-0.34,1.33,0.71,-0.71,0.59,-0.23,
2.046,-0.34,1.33,0.71,-0.75,0.60,-0.24,
2.048,-0.34,1.33,0.71,-0.78,0.62,-0.24,
2.057,-0.34,1.33,0.71,-0.82,0.63,-0.25,
2.058,-0.34,1.33,0.71,-0.86,0.63,-0.27,
2.058,-0.06,1.53,0.81,-0.86,0.63,-0.27,
2.058,-0.06,1.53,0.81,-0.90,0.63,-0.28,
2.058,-0.06,1.53,0.81,-0.94,0.62,-0.29,
2.059,-0.06,1.53,0.81,-0.98,0.61,-0.30,
2.06,-0.06,1.53,0.81,-1.03,0.60,-0.32,
2.062,-0.06,1.53,0.81,-1.07,0.58,-0.34,
2.065,0.22,1.55,1.08,-1.07,0.58,-0.34,
2.087,0.22,1.55,1.08,-1.11,0.56,-0.36,
2.088,0.22,1.55,1.08,-1.15,0.53,-0.38,
2.088,0.22,1.55,1.08,-1.19,0.50,-0.39,
2.088,0.22,1.55,1.08,-1.22,0.48,-0.42,
2.088,0.22,1.55,1.08,-1.26,0.45,-0.44,
2.089,0.40,1.59,1.85,-1.26,0.45,-0.44,
2.089,0.40,1.59,1.85,-1.29,0.42,-0.46,
2.089,0.40,1.59,1.85,-1.31,0.39,-0.48,
2.089,0.40,1.59,1.85,-1.34,0.37,-0.49,
2.089,0.40,1.59,1.85,-1.36,0.34,-0.51,
2.089,0.40,1.59,1.85,-1.38,0.31,-0.53,
2.089,0.29,1.56,2.92,-1.38,0.31,-0.53,
2.09,0.29,1.56,2.92,-1.40,0.28,-0.54,
2.09,0.29,1.56,2.92,-1.42,0.26,-0.56,
2.09,0.29,1.56,2.92,-1.43,0.22,-0.58,
2.09,0.29,1.56,2.92,-1.45,0.19,-0.59,
2.092,0.29,1.56,2.92,-1.46,0.16,-0.60,
2.094,0.02,1.39,4.03,-1.46,0.16,-0.60,
2.095,0.02,1.39,4.03,-1.47,0.13,-0.61,
2.11,0.02,1.39,4.03,-1.48,0.10,-0.62,
2.11,0.02,1.39,4.03,-1.48,0.07,-0.62,
2.11,0.02,1.39,4.03,-1.49,0.04,-0.63,
2.111,0.02,1.39,4.03,-1.49,0.02,-0.63,
2.111,-0.30,1.11,5.22,-1.49,0.02,-0.63,
2.111,-0.30,1.11,5.22,-1.49,-0.01,-0.62,
2.111,-0.30,1.11,5.22,-1.49,-0.03,-0.62,
2.111,-0.30,1.11,5.22,-1.49,-0.06,-0.61,
2.111,-0.30,1.11,5.22,-1.49,-0.08,-0.60,
2.115,-0.30,1.11,5.22,-1.48,-0.10,-0.59,
2.116,-0.54,0.66,6.33,-1.48,-0.10,-0.59,
2.116,-0.54,0.66,6.33,-1.47,-0.12,-0.57,
2.116,-0.54,0.66,6.33,-1.47,-0.14,-0.56,
2.118,-0.54,0.66,6.33,-1.46,-0.15,-0.54,
2.122,-0.54,0.66,6.33,-1.44,-0.16,-0.52,
2.122,-0.54,0.66,6.33,-1.42,-0.17,-0.50,
2.125,-0.59,0.06,7.25,-1.42,-0.17,-0.50,
2.126,-0.59,0.06,7.25,-1.40,-0.16,-0.45,
2.126,-0.59,0.06,7.25,-1.38,-0.16,-0.44,
2.128,-0.59,0.06,7.25,-1.36,-0.15,-0.41,
2.13,-0.59,0.06,7.25,-1.34,-0.14,-0.37,
2.133,-0.59,0.06,7.25,-1.32,-0.13,-0.33,
2.135,-0.57,-0.57,7.62,-1.32,-0.13,-0.33,
2.136,-0.57,-0.57,7.62,-1.30,-0.12,-0.29,
2.141,-0.57,-0.57,7.62,-1.25,-0.12,-0.16,
2.141,-0.57,-0.57,7.62,-1.25,-0.12,-0.16,
2.142,-0.57,-0.57,7.62,-1.25,-0.12,-0.16,
2.145,-0.57,-0.57,7.62,-1.23,-0.13,-0.09,
2.146,-0.57,-0.57,7.62,-1.22,-0.13,-0.07,
2.146,-0.32,-1.05,7.29,-1.22,-0.13,-0.07,
2.146,-0.32,-1.05,7.29,-1.21,-0.14,-0.03,
2.15,-0.32,-1.05,7.29,-1.21,-0.16,0.01,
2.151,-0.32,-1.05,7.29,-1.19,-0.18,0.05,
2.155,-0.32,-1.05,7.29,-1.19,-0.19,0.09,
2.156,0.12,-1.14,6.72,-1.19,-0.19,0.09,
2.156,0.12,-1.14,6.72,-1.18,-0.21,0.13,
2.156,0.12,-1.14,6.72,-1.17,-0.22,0.16,
2.161,0.12,-1.14,6.72,-1.16,-0.24,0.20,
2.161,0.12,-1.14,6.72,-1.15,-0.25,0.23,
2.164,0.12,-1.14,6.72,-1.14,-0.25,0.26,
2.165,0.73,-0.96,6.07,-1.14,-0.25,0.26,
2.165,0.73,-0.96,6.07,-1.13,-0.26,0.29,
2.17,0.73,-0.96,6.07,-1.12,-0.26,0.31,
2.17,0.73,-0.96,6.07,-1.10,-0.26,0.34,
2.175,0.73,-0.96,6.07,-1.09,-0.25,0.36,
2.175,0.73,-0.96,6.07,-1.08,-0.24,0.37,
2.176,1.35,-0.79,5.26,-1.08,-0.24,0.37,
2.176,1.35,-0.79,5.26,-1.07,-0.23,0.39,
2.176,1.35,-0.79,5.26,-1.06,-0.21,0.41,
2.178,1.35,-0.79,5.26,-1.05,-0.19,0.42,
2.182,1.35,-0.79,5.26,-1.04,-0.17,0.43,
2.182,1.35,-0.79,5.26,-1.03,-0.15,0.44,
2.187,1.69,-0.64,4.33,-1.03,-0.15,0.44,
2.188,1.69,-0.64,4.33,-1.02,-0.13,0.45,
2.188,1.69,-0.64,4.33,-1.01,-0.11,0.46,
2.188,1.69,-0.64,4.33,-0.99,-0.08,0.47,
2.193,1.69,-0.64,4.33,-0.97,-0.06,0.48,
2.193,1.69,-0.64,4.33,-0.95,-0.04,0.49,
2.194,1.62,-0.53,3.59,-0.95,-0.04,0.49,
2.195,1.62,-0.53,3.59,-0.93,-0.02,0.50,
2.196,1.62,-0.53,3.59,-0.90,0.00,0.52,
2.198,1.62,-0.53,3.59,-0.87,0.02,0.53,
2.201,1.62,-0.53,3.59,-0.83,0.04,0.55,
2.203,1.62,-0.53,3.59,-0.78,0.06,0.57,
2.205,1.23,-0.33,3.35,-0.78,0.06,0.57,
2.206,1.23,-0.33,3.35,-0.74,0.08,0.59,
2.206,1.23,-0.33,3.35,-0.68,0.10,0.61,
2.208,1.23,-0.33,3.35,-0.62,0.12,0.63,
2.21,1.23,-0.33,3.35,-0.56,0.14,0.66,
2.212,1.23,-0.33,3.35,-0.49,0.15,0.68,
2.215,0.91,-0.22,3.20,-0.49,0.15,0.68,
2.215,0.91,-0.22,3.20,-0.43,0.17,0.71,
2.225,0.91,-0.22,3.20,-0.36,0.19,0.73,
2.226,0.91,-0.22,3.20,-0.29,0.20,0.76,
2.226,0.91,-0.22,3.20,-0.22,0.22,0.78,
2.226,0.91,-0.22,3.20,-0.14,0.23,0.81,
2.226,0.81,-0.10,2.61,-0.14,0.23,0.81,
2.227,0.81,-0.10,2.61,-0.07,0.24,0.83,
2.23,0.81,-0.10,2.61,-0.00,0.26,0.85,
2.257,0.81,-0.10,2.61,0.07,0.26,0.87,
2.257,0.81,-0.10,2.61,0.14,0.27,0.89,
2.257,0.81,-0.10,2.61,0.20,0.28,0.91,
2.258,0.90,0.11,1.56,0.20,0.28,0.91,
2.258,0.90,0.11,1.56,0.27,0.29,0.92,
2.258,0.90,0.11,1.56,0.33,0.28,0.93,
2.259,0.90,0.11,1.56,0.39,0.28,0.95,
2.259,0.90,0.11,1.56,0.44,0.27,0.96,
2.259,0.90,0.11,1.56,0.50,0.26,0.97,
2.259,0.94,0.35,0.28,0.50,0.26,0.97,
2.26,0.94,0.35,0.28,0.55,0.24,0.97,
2.26,0.94,0.35,0.28,0.60,0.23,0.98,
2.26,0.94,0.35,0.28,0.65,0.21,0.99,
2.261,0.94,0.35,0.28,0.69,0.19,0.99,
2.261,0.94,0.35,0.28,0.73,0.18,0.99,
2.261,1.09,0.56,-1.09,0.73,0.18,0.99,
2.261,1.09,0.56,-1.09,0.76,0.16,0.99,
2.262,1.09,0.56,-1.09,0.80,0.15,0.99,
2.262,1.09,0.56,-1.09,0.83,0.14,0.98,
2.262,1.09,0.56,-1.09,0.85,0.12,0.98,
2.263,1.09,0.56,-1.09,0.88,0.11,0.97,
2.283,1.19,0.67,-2.44,0.88,0.11,0.97,
2.287,1.19,0.67,-2.44,0.89,0.10,0.96,
2.287,1.19,0.67,-2.44,0.91,0.09,0.96,
2.288,1.19,0.67,-2.44,0.92,0.08,0.95,
2.288,1.19,0.67,-2.44,0.93,0.07,0.93,
2.288,1.19,0.67,-2.44,0.94,0.06,0.92,
2.288,1.33,0.71,-3.67,0.94,0.06,0.92,
2.289,1.33,0.71,-3.67,0.95,0.05,0.91,
2.289,1.33,0.71,-3.67,0.95,0.04,0.90,
2.289,1.33,0.71,-3.67,0.95,0.03,0.89,
2.29,1.33,0.71,-3.67,0.95,0.03,0.88,
2.29,1.33,0.71,-3.67,0.94,0.02,0.87,
2.29,1.22,0.82,-4.63,0.94,0.02,0.87,
2.29,1.22,0.82,-4.63,0.94,0.01,0.86,
2.291,1.22,0.82,-4.63,0.93,0.01,0.85,
2.291,1.22,0.82,-4.63,0.92,0.00,0.84,
2.291,1.22,0.82,-4.63,0.92,-0.01,0.83,
2.3,1.22,0.82,-4.63,0.90,-0.01,0.81,
2.3,1.16,0.93,-5.43,0.90,-0.01,0.81,
2.301,1.16,0.93,-5.43,0.89,-0.02,0.80,
2.301,1.16,0.93,-5.43,0.87,-0.03,0.79,
2.301,1.16,0.93,-5.43,0.86,-0.04,0.77,
2.301,1.16,0.93,-5.43,0.84,-0.06,0.76,
2.307,1.16,0.93,-5.43,0.81,-0.07,0.74,
2.307,0.98,0.79,-6.06,0.81,-0.07,0.74,
2.308,0.98,0.79,-6.06,0.79,-0.09,0.72,
2.308,0.98,0.79,-6.06,0.77,-0.11,0.71,
2.308,0.98,0.79,-6.06,0.75,-0.12,0.69,
2.318,0.98,0.79,-6.06,0.72,-0.14,0.67,
2.318,0.98,0.79,-6.06,0.70,-0.16,0.66,
2.319,0.85,0.74,-6.41,0.70,-0.16,0.66,
2.319,0.85,0.74,-6.41,0.68,-0.17,0.64,
2.319,0.85,0.74,-6.41,0.65,-0.19,0.63,
2.319,0.85,0.74,-6.41,0.63,-0.21,0.61,
2.338,0.85,0.74,-6.41,0.61,-0.22,0.60,
2.339,0.85,0.74,-6.41,0.60,-0.23,0.58,
2.339,0.49,0.54,-6.24,0.60,-0.23,0.58,
2.34,0.49,0.54,-6.24,0.59,-0.24,0.57,
2.34,0.49,0.54,-6.24,0.57,-0.26,0.56,
2.34,0.49,0.54,-6.24,0.56,-0.27,0.55,
2.34,0.49,0.54,-6.24,0.56,-0.27,0.54,
2.34,0.49,0.54,-6.24,0.55,-0.28,0.53,
2.341,0.33,0.36,-5.83,0.55,-0.28,0.53,
2.341,0.33,0.36,-5.83,0.55,-0.27,0.52,
2.341,0.33,0.36,-5.83,0.55,-0.27,0.51,
2.341,0.33,0.36,-5.83,0.54,-0.27,0.50,
2.342,0.33,0.36,-5.83,0.54,-0.27,0.49,
2.342,0.33,0.36,-5.83,0.55,-0.26,0.48,
2.355,0.08,0.25,-5.42,0.55,-0.26,0.48,
2.356,0.08,0.25,-5.42,0.55,-0.26,0.48,
2.356,0.08,0.25,-5.42,0.55,-0.26,0.47,
2.356,0.08,0.25,-5.42,0.55,-0.26,0.46,
2.356,0.08,0.25,-5.42,0.56,-0.26,0.45,
2.357,0.08,0.25,-5.42,0.56,-0.26,0.44,
2.357,-0.14,0.25,-5.08,0.56,-0.26,0.44,
2.357,-0.14,0.25,-5.08,0.56,-0.26,0.43,
2.357,-0.14,0.25,-5.08,0.56,-0.26,0.42,
2.374,-0.14,0.25,-5.08,0.57,-0.26,0.41,
2.375,-0.14,0.25,-5.08,0.57,-0.26,0.40,
2.375,-0.14,0.25,-5.08,0.57,-0.26,0.39,
2.375,-0.32,0.11,-4.77,0.57,-0.26,0.39,
2.375,-0.32,0.11,-4.77,0.57,-0.26,0.38,
2.375,-0.32,0.11,-4.77,0.57,-0.25,0.37,
2.376,-0.32,0.11,-4.77,0.58,-0.24,0.36,
2.376,-0.32,0.11,-4.77,0.58,-0.22,0.36,
2.376,-0.32,0.11,-4.77,0.58,-0.21,0.35,
2.376,-0.57,0.07,-4.55,0.58,-0.21,0.35,
2.377,-0.57,0.07,-4.55,0.58,-0.19,0.35,
2.377,-0.57,0.07,-4.55,0.58,-0.17,0.34,
2.381,-0.57,0.07,-4.55,0.58,-0.15,0.34,
2.381,-0.57,0.07,-4.55,0.57,-0.14,0.34,
2.396,-0.57,0.07,-4.55,0.57,-0.13,0.33,
2.397,-0.82,-0.08,-4.35,0.57,-0.13,0.33,
2.397,-0.82,-0.08,-4.35,0.57,-0.12,0.33,
2.397,-0.82,-0.08,-4.35,0.57,-0.11,0.33,
2.397,-0.82,-0.08,-4.35,0.56,-0.10,0.33,
2.398,-0.82,-0.08,-4.35,0.56,-0.10,0.33,
2.398,-0.82,-0.08,-4.35,0.55,-0.10,0.33,
2.398,-0.99,-0.15,-4.13,0.55,-0.10,0.33,
2.398,-0.99,-0.15,-4.13,0.54,-0.10,0.33,
2.398,-0.99,-0.15,-4.13,0.54,-0.09,0.33,
2.4,-0.99,-0.15,-4.13,0.53,-0.08,0.33,
2.412,-0.99,-0.15,-4.13,0.53,-0.08,0.33,
2.412,-0.99,-0.15,-4.13,0.53,-0.07,0.34,
2.413,-1.19,-0.18,-3.84,0.53,-0.07,0.34,
2.413,-1.19,-0.18,-3.84,0.53,-0.06,0.34,
2.413,-1.19,-0.18,-3.84,0.53,-0.05,0.35,
2.413,-1.19,-0.18,-3.84,0.53,-0.04,0.35,
2.413,-1.19,-0.18,-3.84,0.53,-0.03,0.36,
2.414,-1.19,-0.18,-3.84,0.53,-0.02,0.37,
2.415,-1.49,-0.16,-3.45,0.53,-0.02,0.37,
2.415,-1.49,-0.16,-3.45,0.53,-0.01,0.38,
2.424,-1.49,-0.16,-3.45,0.53,0.01,0.39,
2.425,-1.49,-0.16,-3.45,0.53,0.03,0.40,
2.425,-1.49,-0.16,-3.45,0.53,0.05,0.42,
2.425,-1.49,-0.16,-3.45,0.53,0.08,0.44,
2.425,-1.80,-0.30,-3.07,0.53,0.08,0.44,
2.425,-1.80,-0.30,-3.07,0.53,0.10,0.46,
2.426,-1.80,-0.30,-3.07,0.53,0.12,0.49,
2.428,-1.80,-0.30,-3.07,0.53,0.15,0.52,
2.439,-1.80,-0.30,-3.07,0.52,0.17,0.55,
2.44,-1.80,-0.30,-3.07,0.52,0.20,0.58,
2.44,-2.37,-0.51,-2.62,0.52,0.20,0.58,
2.44,-2.37,-0.51,-2.62,0.52,0.22,0.61,
2.44,-2.37,-0.51,-2.62,0.52,0.25,0.65,
2.44,-2.37,-0.51,-2.62,0.52,0.28,0.68,
2.44,-2.37,-0.51,-2.62,0.52,0.32,0.73,
2.442,-2.37,-0.51,-2.62,0.52,0.35,0.77,
2.444,-2.58,-0.69,-2.08,0.52,0.35,0.77,
2.444,-2.58,-0.69,-2.08,0.53,0.39,0.81,
2.446,-2.58,-0.69,-2.08,0.53,0.44,0.85,
2.457,-2.58,-0.69,-2.08,0.54,0.48,0.89,
2.458,-2.58,-0.69,-2.08,0.54,0.52,0.93,
2.458,-2.58,-0.69,-2.08,0.55,0.57,0.97,
2.458,-2.72,-0.79,-1.44,0.55,0.57,0.97,
2.458,-2.72,-0.79,-1.44,0.56,0.60,1.01,
2.458,-2.72,-0.79,-1.44,0.57,0.64,1.05,
2.458,-2.72,-0.79,-1.44,0.59,0.68,1.08,
2.46,-2.72,-0.79,-1.44,0.60,0.71,1.11,
2.462,-2.72,-0.79,-1.44,0.61,0.74,1.14,
2.473,-2.29,-0.70,-0.97,0.61,0.74,1.14,
2.473,-2.29,-0.70,-0.97,0.62,0.76,1.17,
2.474,-2.29,-0.70,-0.97,0.64,0.78,1.19,
2.474,-2.29,-0.70,-0.97,0.65,0.80,1.21,
2.474,-2.29,-0.70,-0.97,0.66,0.81,1.24,
2.474,-2.29,-0.70,-0.97,0.67,0.82,1.25,
2.475,-1.73,-0.45,-0.80,0.67,0.82,1.25,
2.475,-1.73,-0.45,-0.80,0.69,0.82,1.28,
2.476,-1.73,-0.45,-0.80,0.69,0.82,1.28,
2.478,-1.73,-0.45,-0.80,0.70,0.82,1.30,
2.48,-1.73,-0.45,-0.80,0.70,0.81,1.31,
2.494,-1.73,-0.45,-0.80,0.71,0.80,1.32,
2.494,-1.22,-0.28,-0.85,0.71,0.80,1.32,
2.494,-1.22,-0.28,-0.85,0.71,0.78,1.32,
2.495,-1.22,-0.28,-0.85,0.71,0.76,1.33,
2.495,-1.22,-0.28,-0.85,0.71,0.74,1.33,
2.495,-1.22,-0.28,-0.85,0.72,0.71,1.34,
2.495,-1.22,-0.28,-0.85,0.71,0.67,1.34,
2.495,-0.79,-0.05,-0.92,0.71,0.67,1.34,
2.495,-0.79,-0.05,-0.92,0.71,0.64,1.34,
2.496,-0.79,-0.05,-0.92,0.71,0.61,1.34,
2.518,-0.79,-0.05,-0.92,0.70,0.57,1.34,
2.518,-0.79,-0.05,-0.92,0.70,0.54,1.33,
2.518,-0.79,-0.05,-0.92,0.69,0.50,1.33,
2.519,-0.41,0.06,-0.97,0.69,0.50,1.33,
2.519,-0.41,0.06,-0.97,0.68,0.46,1.32,
2.519,-0.41,0.06,-0.97,0.68,0.42,1.31,
2.519,-0.41,0.06,-0.97,0.67,0.38,1.31,
2.519,-0.41,0.06,-0.97,0.65,0.33,1.30,
2.519,-0.41,0.06,-0.97,0.64,0.28,1.29,
2.519,-0.14,0.18,-0.85,0.64,0.28,1.29,
2.519,-0.14,0.18,-0.85,0.62,0.23,1.28,
2.52,-0.14,0.18,-0.85,0.61,0.18,1.27,
2.521,-0.14,0.18,-0.85,0.60,0.13,1.26,
2.521,-0.14,0.18,-0.85,0.58,0.08,1.25,
2.527,-0.14,0.18,-0.85,0.57,0.03,1.25,
2.528,-0.04,0.18,-0.41,0.57,0.03,1.25,
2.528,-0.04,0.18,-0.41,0.55,-0.02,1.24,
2.528,-0.04,0.18,-0.41,0.53,-0.07,1.23,
2.529,-0.04,0.18,-0.41,0.51,-0.12,1.23,
2.53,-0.04,0.18,-0.41,0.48,-0.18,1.22,
2.533,-0.04,0.18,-0.41,0.46,-0.23,1.22,
2.535,0.19,0.17,0.21,0.46,-0.23,1.22,
2.535,0.19,0.17,0.21,0.43,-0.29,1.21,
2.536,0.19,0.17,0.21,0.40,-0.34,1.20,
2.538,0.19,0.17,0.21,0.37,-0.40,1.19,
2.54,0.19,0.17,0.21,0.34,-0.45,1.17,
2.542,0.19,0.17,0.21,0.31,-0.51,1.16,
2.545,0.60,0.14,1.18,0.31,-0.51,1.16,
2.545,0.60,0.14,1.18,0.28,-0.56,1.15,
2.546,0.60,0.14,1.18,0.25,-0.61,1.14,
2.55,0.60,0.14,1.18,0.23,-0.66,1.12,
2.552,0.60,0.14,1.18,0.20,-0.71,1.11,
2.553,0.60,0.14,1.18,0.19,-0.75,1.10,
2.555,0.84,0.15,2.64,0.19,-0.75,1.10,
2.555,0.84,0.15,2.64,0.17,-0.79,1.09,
2.556,0.84,0.15,2.64,0.15,-0.83,1.07,
2.558,0.84,0.15,2.64,0.13,-0.86,1.06,
2.56,0.84,0.15,2.64,0.12,-0.90,1.06,
2.562,0.84,0.15,2.64,0.10,-0.93,1.05,
2.565,0.90,0.20,4.06,0.10,-0.93,1.05,
2.566,0.90,0.20,4.06,0.08,-0.95,1.04,
2.567,0.90,0.20,4.06,0.06,-0.98,1.04,
2.569,0.90,0.20,4.06,0.04,-1.00,1.03,
2.57,0.90,0.20,4.06,0.02,-1.02,1.02,
2.572,0.90,0.20,4.06,-0.00,-1.04,1.02,
2.575,1.08,0.17,5.15,-0.00,-1.04,1.02,
2.575,1.08,0.17,5.15,-0.03,-1.06,1.01,
2.576,1.08,0.17,5.15,-0.05,-1.08,1.00,
2.578,1.08,0.17,5.15,-0.08,-1.09,0.99,
2.58,1.08,0.17,5.15,-0.11,-1.11,0.99,
2.583,1.08,0.17,5.15,-0.13,-1.12,0.98,
2.585,1.46,0.04,6.13,-0.13,-1.12,0.98,
2.585,1.46,0.04,6.13,-0.16,-1.13,0.97,
2.587,1.46,0.04,6.13,-0.18,-1.13,0.95,
2.589,1.46,0.04,6.13,-0.21,-1.13,0.94,
2.59,1.46,0.04,6.13,-0.24,-1.12,0.93,
2.592,1.46,0.04,6.13,-0.26,-1.12,0.91,
2.595,1.95,-0.11,6.92,-0.26,-1.12,0.91,
2.596,1.95,-0.11,6.92,-0.28,-1.10,0.89,
2.625,1.95,-0.11,6.92,-0.31,-1.09,0.88,
2.625,1.95,-0.11,6.92,-0.34,-1.06,0.86,
2.625,1.95,-0.11,6.92,-0.36,-1.04,0.84,
2.626,1.95,-0.11,6.92,-0.39,-1.01,0.82,
2.626,2.54,-0.16,7.57,-0.39,-1.01,0.82,
2.627,2.54,-0.16,7.57,-0.42,-0.97,0.79,
2.627,2.54,-0.16,7.57,-0.44,-0.93,0.77,
2.628,2.54,-0.16,7.57,-0.47,-0.89,0.74,
2.628,2.54,-0.16,7.57,-0.49,-0.84,0.72,
2.628,2.54,-0.16,7.57,-0.52,-0.79,0.69,
2.629,3.07,-0.30,8.01,-0.52,-0.79,0.69,
2.629,3.07,-0.30,8.01,-0.54,-0.74,0.66,
2.63,3.07,-0.30,8.01,-0.57,-0.68,0.62,
2.63,3.07,-0.30,8.01,-0.59,-0.61,0.59,
2.631,3.07,-0.30,8.01,-0.61,-0.55,0.56,
2.631,3.07,-0.30,8.01,-0.63,-0.48,0.53,
2.631,3.26,-0.32,8.16,-0.63,-0.48,0.53,
2.632,3.26,-0.32,8.16,-0.65,-0.40,0.50,
2.632,3.26,-0.32,8.16,-0.67,-0.33,0.46,
2.633,3.26,-0.32,8.16,-0.69,-0.25,0.43,
2.633,3.26,-0.32,8.16,-0.71,-0.18,0.40,
2.634,3.26,-0.32,8.16,-0.73,-0.10,0.37,
2.646,3.14,-0.36,7.91,-0.73,-0.10,0.37,
2.647,3.14,-0.36,7.91,-0.74,-0.03,0.34,
2.647,3.14,-0.36,7.91,-0.76,0.05,0.31,
2.647,3.14,-0.36,7.91,-0.78,0.13,0.28,
2.647,3.14,-0.36,7.91,-0.79,0.20,0.25,
2.648,3.14,-0.36,7.91,-0.81,0.27,0.22,
2.648,2.68,-0.32,7.19,-0.81,0.27,0.22,
2.648,2.68,-0.32,7.19,-0.82,0.34,0.20,
2.648,2.68,-0.32,7.19,-0.84,0.40,0.17,
2.649,2.68,-0.32,7.19,-0.86,0.46,0.15,
2.651,2.68,-0.32,7.19,-0.87,0.52,0.12,
2.652,2.68,-0.32,7.19,-0.89,0.57,0.10,
2.655,2.15,-0.23,6.03,-0.89,0.57,0.10,
2.655,2.15,-0.23,6.03,-0.90,0.62,0.08,
2.656,2.15,-0.23,6.03,-0.92,0.67,0.06,
2.658,2.15,-0.23,6.03,-0.94,0.71,0.03,
2.66,2.15,-0.23,6.03,-0.96,0.76,0.01,
2.662,2.15,-0.23,6.03,-0.98,0.80,-0.01,
2.665,1.62,-0.09,4.62,-0.98,0.80,-0.01,
2.665,1.62,-0.09,4.62,-1.00,0.84,-0.03,
2.667,1.62,-0.09,4.62,-1.02,0.88,-0.05,
2.669,1.62,-0.09,4.62,-1.04,0.91,-0.07,
2.671,1.62,-0.09,4.62,-1.06,0.94,-0.09,
2.673,1.62,-0.09,4.62,-1.08,0.97,-0.11,
2.675,1.25,0.00,3.07,-1.08,0.97,-0.11,
2.676,1.25,0.00,3.07,-1.10,1.00,-0.14,
2.676,1.25,0.00,3.07,-1.13,1.03,-0.16,
2.679,1.25,0.00,3.07,-1.15,1.05,-0.18,
2.694,1.25,0.00,3.07,-1.17,1.07,-0.21,
2.695,1.25,0.00,3.07,-1.20,1.08,-0.23,
2.695,0.83,0.01,1.74,-1.20,1.08,-0.23,
2.695,0.83,0.01,1.74,-1.22,1.09,-0.25,
2.695,0.83,0.01,1.74,-1.24,1.10,-0.27,
2.696,0.83,0.01,1.74,-1.25,1.12,-0.29,
2.696,0.83,0.01,1.74,-1.26,1.12,-0.31,
2.696,0.83,0.01,1.74,-1.28,1.13,-0.32,
2.696,0.32,-0.03,0.92,-1.28,1.13,-0.32,
2.697,0.32,-0.03,0.92,-1.28,1.14,-0.34,
2.697,0.32,-0.03,0.92,-1.28,1.14,-0.35,
2.725,0.32,-0.03,0.92,-1.28,1.15,-0.36,
2.725,0.32,-0.03,0.92,-1.28,1.15,-0.36,
2.725,0.32,-0.03,0.92,-1.27,1.15,-0.37,
2.726,-0.23,-0.14,0.52,-1.27,1.15,-0.37,
2.726,-0.23,-0.14,0.52,-1.26,1.15,-0.37,
2.726,-0.23,-0.14,0.52,-1.24,1.15,-0.37,
2.726,-0.23,-0.14,0.52,-1.21,1.14,-0.37,
2.727,-0.23,-0.14,0.52,-1.19,1.13,-0.36,
2.727,-0.23,-0.14,0.52,-1.16,1.12,-0.36,
2.727,-0.80,-0.26,0.46,-1.16,1.12,-0.36,
2.727,-0.80,-0.26,0.46,-1.12,1.11,-0.35,
2.728,-0.80,-0.26,0.46,-1.08,1.10,-0.34,
2.728,-0.80,-0.26,0.46,-1.03,1.08,-0.32,
2.728,-0.80,-0.26,0.46,-0.97,1.06,-0.30,
2.728,-0.80,-0.26,0.46,-0.92,1.03,-0.29,
2.728,-1.17,-0.33,0.53,-0.92,1.03,-0.29,
2.729,-1.17,-0.33,0.53,-0.85,1.00,-0.27,
2.729,-1.17,-0.33,0.53,-0.79,0.98,-0.24,
2.729,-1.17,-0.33,0.53,-0.72,0.95,-0.22,
2.737,-1.17,-0.33,0.53,-0.65,0.92,-0.19,
2.738,-1.17,-0.33,0.53,-0.58,0.89,-0.17,
2.738,-1.42,-0.33,0.33,-0.58,0.89,-0.17,
2.738,-1.42,-0.33,0.33,-0.50,0.86,-0.14,
2.738,-1.42,-0.33,0.33,-0.43,0.82,-0.11,
2.739,-1.42,-0.33,0.33,-0.35,0.78,-0.08,
2.74,-1.42,-0.33,0.33,-0.28,0.75,-0.05,
2.742,-1.42,-0.33,0.33,-0.20,0.70,-0.02,
2.745,-1.48,-0.25,-0.40,-0.20,0.70,-0.02,
2.745,-1.48,-0.25,-0.40,-0.14,0.66,0.02,
2.747,-1.48,-0.25,-0.40,-0.07,0.61,0.05,
2.748,-1.48,-0.25,-0.40,0.00,0.56,0.07,
2.753,-1.48,-0.25,-0.40,0.06,0.51,0.10,
2.754,-1.48,-0.25,-0.40,0.13,0.46,0.13,
2.758,-1.37,-0.12,-1.46,0.13,0.46,0.13,
2.758,-1.37,-0.12,-1.46,0.19,0.41,0.16,
2.758,-1.37,-0.12,-1.46,0.25,0.36,0.19,
2.759,-1.37,-0.12,-1.46,0.31,0.30,0.21,
2.76,-1.37,-0.12,-1.46,0.37,0.25,0.23,
2.762,-1.37,-0.12,-1.46,0.42,0.19,0.25,
2.777,-1.13,-0.01,-2.60,0.42,0.19,0.25,
2.778,-1.13,-0.01,-2.60,0.47,0.14,0.27,
2.778,-1.13,-0.01,-2.60,0.52,0.08,0.29,
2.778,-1.13,-0.01,-2.60,0.56,0.03,0.32,
2.778,-1.13,-0.01,-2.60,0.61,-0.02,0.33,
2.778,-1.13,-0.01,-2.60,0.65,-0.08,0.35,
2.778,-0.97,0.10,-3.64,0.65,-0.08,0.35,
2.779,-0.97,0.10,-3.64,0.69,-0.13,0.37,
2.779,-0.97,0.10,-3.64,0.73,-0.19,0.39,
2.779,-0.97,0.10,-3.64,0.76,-0.24,0.40,
2.786,-0.97,0.10,-3.64,0.80,-0.29,0.42,
2.787,-0.97,0.10,-3.64,0.83,-0.33,0.43,
2.787,-0.76,0.09,-4.52,0.83,-0.33,0.43,
2.787,-0.76,0.09,-4.52,0.85,-0.38,0.45,
2.787,-0.76,0.09,-4.52,0.88,-0.43,0.46,
2.788,-0.76,0.09,-4.52,0.90,-0.47,0.47,
2.791,-0.76,0.09,-4.52,0.93,-0.51,0.48,
2.794,-0.76,0.09,-4.52,0.94,-0.55,0.49,
2.812,-0.60,0.09,-5.27,0.94,-0.55,0.49,
2.812,-0.60,0.09,-5.27,0.96,-0.59,0.50,
2.812,-0.60,0.09,-5.27,0.98,-0.62,0.51,
2.812,-0.60,0.09,-5.27,0.99,-0.65,0.51,
2.813,-0.60,0.09,-5.27,1.01,-0.68,0.52,
2.813,-0.60,0.09,-5.27,1.02,-0.71,0.53,
2.813,-0.60,-0.04,-5.72,1.02,-0.71,0.53,
2.813,-0.60,-0.04,-5.72,1.03,-0.74,0.54,
2.816,-0.60,-0.04,-5.72,1.04,-0.76,0.55,
2.816,-0.60,-0.04,-5.72,1.06,-0.79,0.55,
2.816,-0.60,-0.04,-5.72,1.06,-0.81,0.56,
2.816,-0.60,-0.04,-5.72,1.08,-0.83,0.57,
2.817,-0.67,-0.13,-5.87,1.08,-0.83,0.57,
2.817,-0.67,-0.13,-5.87,1.09,-0.85,0.58,
2.818,-0.67,-0.13,-5.87,1.10,-0.86,0.59,
2.819,-0.67,-0.13,-5.87,1.11,-0.87,0.59,
2.821,-0.67,-0.13,-5.87,1.12,-0.88,0.60,
2.822,-0.67,-0.13,-5.87,1.13,-0.89,0.61,
2.825,-0.72,-0.29,-5.77,1.13,-0.89,0.61,
2.825,-0.72,-0.29,-5.77,1.15,-0.89,0.62,
2.828,-0.72,-0.29,-5.77,1.15,-0.89,0.63,
2.828,-0.72,-0.29,-5.77,1.16,-0.89,0.64,
2.832,-0.72,-0.29,-5.77,1.17,-0.89,0.64,
2.833,-0.72,-0.29,-5.77,1.18,-0.89,0.65,
2.837,-0.81,-0.40,-5.61,1.18,-0.89,0.65,
2.837,-0.81,-0.40,-5.61,1.20,-0.88,0.66,
2.838,-0.81,-0.40,-5.61,1.21,-0.88,0.67,
2.838,-0.81,-0.40,-5.61,1.22,-0.87,0.68,
2.841,-0.81,-0.40,-5.61,1.23,-0.86,0.69,
2.842,-0.81,-0.40,-5.61,1.23,-0.86,0.70,
2.845,-0.86,-0.53,-5.56,1.23,-0.86,0.70,
2.845,-0.86,-0.53,-5.56,1.24,-0.85,0.70,
2.85,-0.86,-0.53,-5.56,1.25,-0.84,0.71,
2.85,-0.86,-0.53,-5.56,1.25,-0.83,0.72,
2.851,-0.86,-0.53,-5.56,1.25,-0.82,0.72,
2.852,-0.86,-0.53,-5.56,1.25,-0.81,0.73,
2.855,-0.96,-0.60,-5.70,1.25,-0.81,0.73,
2.855,-0.96,-0.60,-5.70,1.24,-0.80,0.74,
2.856,-0.96,-0.60,-5.70,1.24,-0.79,0.75,
2.858,-0.96,-0.60,-5.70,1.23,-0.79,0.75,
2.86,-0.96,-0.60,-5.70,1.21,-0.78,0.76,
2.862,-0.96,-0.60,-5.70,1.20,-0.78,0.76,
2.865,-0.98,-0.72,-5.84,1.20,-0.78,0.76,
2.865,-0.98,-0.72,-5.84,1.19,-0.79,0.76,
2.866,-0.98,-0.72,-5.84,1.17,-0.79,0.76,
2.868,-0.98,-0.72,-5.84,1.15,-0.80,0.76,
2.87,-0.98,-0.72,-5.84,1.13,-0.81,0.77,
2.872,-0.98,-0.72,-5.84,1.11,-0.81,0.77,
2.875,-1.00,-0.72,-5.71,1.11,-0.81,0.77,
2.876,-1.00,-0.72,-5.71,1.09,-0.83,0.76,
2.876,-1.00,-0.72,-5.71,1.07,-0.84,0.77,
2.878,-1.00,-0.72,-5.71,1.04,-0.85,0.76,
2.881,-1.00,-0.72,-5.71,1.02,-0.86,0.76,
2.883,-1.00,-0.72,-5.71,1.00,-0.88,0.76,
2.885,-0.87,-0.77,-5.08,1.00,-0.88,0.76,
2.886,-0.87,-0.77,-5.08,0.99,-0.89,0.76,
2.886,-0.87,-0.77,-5.08,0.97,-0.90,0.75,
2.888,-0.87,-0.77,-5.08,0.96,-0.91,0.74,
2.89,-0.87,-0.77,-5.08,0.95,-0.93,0.74,
2.892,-0.87,-0.77,-5.08,0.94,-0.94,0.73,
2.895,-0.56,-0.67,-3.87,0.94,-0.94,0.73,
2.895,-0.56,-0.67,-3.87,0.94,-0.95,0.72,
2.916,-0.56,-0.67,-3.87,0.94,-0.96,0.71,
2.917,-0.56,-0.67,-3.87,0.95,-0.97,0.69,
2.917,-0.56,-0.67,-3.87,0.96,-0.99,0.68,
2.918,-0.56,-0.67,-3.87,0.96,-1.00,0.66,
2.921,-0.21,-0.46,-2.62,0.96,-1.00,0.66,
2.921,-0.21,-0.46,-2.62,0.97,-1.00,0.65,
2.921,-0.21,-0.46,-2.62,0.98,-1.01,0.63,
2.922,-0.21,-0.46,-2.62,0.99,-1.01,0.60,
2.922,-0.21,-0.46,-2.62,1.00,-1.01,0.58,
2.922,-0.21,-0.46,-2.62,1.00,-1.01,0.55,
2.923,0.33,-0.11,-1.73,1.00,-1.01,0.55,
2.923,0.33,-0.11,-1.73,1.00,-1.02,0.52,
2.923,0.33,-0.11,-1.73,1.01,-1.02,0.49,
2.924,0.33,-0.11,-1.73,1.01,-1.03,0.45,
2.924,0.33,-0.11,-1.73,1.00,-1.04,0.41,
2.925,0.33,-0.11,-1.73,0.99,-1.04,0.37,
2.925,0.99,0.09,-1.26,0.99,-1.04,0.37,
2.926,0.99,0.09,-1.26,0.98,-1.05,0.32,
2.926,0.99,0.09,-1.26,0.96,-1.06,0.28,
2.931,0.99,0.09,-1.26,0.94,-1.07,0.22,
2.96,0.99,0.09,-1.26,0.91,-1.08,0.17,
2.961,0.99,0.09,-1.26,0.88,-1.09,0.12,
2.961,1.61,0.15,-1.05,0.88,-1.09,0.12,
2.962,1.61,0.15,-1.05,0.84,-1.11,0.07,
2.962,1.61,0.15,-1.05,0.80,-1.13,0.01,
2.963,1.61,0.15,-1.05,0.75,-1.15,-0.05,
2.963,1.61,0.15,-1.05,0.70,-1.17,-0.11,
2.963,1.61,0.15,-1.05,0.65,-1.20,-0.17,
2.964,2.06,0.17,-0.48,0.65,-1.20,-0.17,
2.964,2.06,0.17,-0.48,0.60,-1.22,-0.23,
2.965,2.06,0.17,-0.48,0.55,-1.25,-0.30,
2.965,2.06,0.17,-0.48,0.50,-1.27,-0.37,
2.965,2.06,0.17,-0.48,0.45,-1.30,-0.44,
2.966,2.06,0.17,-0.48,0.41,-1.31,-0.50,
2.966,2.39,0.12,0.78,0.41,-1.31,-0.50,
2.967,2.39,0.12,0.78,0.37,-1.33,-0.57,
2.967,2.39,0.12,0.78,0.33,-1.34,-0.64,
2.968,2.39,0.12,0.78,0.29,-1.34,-0.71,
2.968,2.39,0.12,0.78,0.26,-1.34,-0.77,
2.968,2.39,0.12,0.78,0.23,-1.32,-0.83,
2.969,2.29,-0.28,2.27,0.23,-1.32,-0.83,
2.969,2.29,-0.28,2.27,0.21,-1.30,-0.88,
2.97,2.29,-0.28,2.27,0.18,-1.27,-0.94,
2.97,2.29,-0.28,2.27,0.16,-1.24,-0.98,
2.971,2.29,-0.28,2.27,0.14,-1.19,-1.03,
2.983,2.29,-0.28,2.27,0.12,-1.15,-1.07,
2.984,1.93,-0.95,3.46,0.12,-1.15,-1.07,
2.984,1.93,-0.95,3.46,0.10,-1.09,-1.10,
2.985,1.93,-0.95,3.46,0.08,-1.03,-1.13,
2.985,1.93,-0.95,3.46,0.06,-0.91,-1.17,
2.985,1.93,-0.95,3.46,0.05,-0.87,-1.19,
2.986,1.93,-0.95,3.46,0.04,-0.78,-1.21,
2.986,1.51,-1.51,4.19,0.04,-0.78,-1.21,
2.987,1.51,-1.51,4.19,0.02,-0.67,-1.23,
2.987,1.51,-1.51,4.19,0.01,-0.56,-1.24,
2.989,1.51,-1.51,4.19,-0.01,-0.45,-1.25,
2.99,1.51,-1.51,4.19,-0.02,-0.33,-1.26,
2.992,1.51,-1.51,4.19,-0.04,-0.21,-1.27,
2.994,0.91,-1.90,4.27,-0.04,-0.21,-1.27,
2.995,0.91,-1.90,4.27,-0.05,-0.09,-1.28,
2.997,0.91,-1.90,4.27,-0.07,0.03,-1.28,
2.999,0.91,-1.90,4.27,-0.10,0.20,-1.29,
3.0,0.91,-1.90,4.27,-0.12,0.26,-1.29,
3.003,0.91,-1.90,4.27,-0.14,0.37,-1.29,
3.005,0.42,-1.79,3.61,-0.14,0.37,-1.29,
3.005,0.42,-1.79,3.61,-0.17,0.48,-1.30,
3.006,0.42,-1.79,3.61,-0.19,0.58,-1.30,
3.009,0.42,-1.79,3.61,-0.23,0.67,-1.30,
3.024,0.42,-1.79,3.61,-0.26,0.76,-1.30,
3.025,0.42,-1.79,3.61,-0.30,0.85,-1.30,
3.026,0.05,-1.50,2.58,-0.30,0.85,-1.30,
3.027,0.05,-1.50,2.58,-0.34,0.93,-1.30,
3.027,0.05,-1.50,2.58,-0.38,1.00,-1.31,
3.029,0.05,-1.50,2.58,-0.42,1.07,-1.31,
3.03,0.05,-1.50,2.58,-0.48,1.12,-1.31,
3.031,0.05,-1.50,2.58,-0.53,1.17,-1.32,
3.032,-0.20,-1.04,1.40,-0.53,1.17,-1.32,
3.032,-0.20,-1.04,1.40,-0.58,1.21,-1.32,
3.033,-0.20,-1.04,1.40,-0.65,1.24,-1.33,
3.033,-0.20,-1.04,1.40,-0.71,1.27,-1.34,
3.039,-0.20,-1.04,1.40,-0.78,1.28,-1.35,
3.039,-0.20,-1.04,1.40,-0.85,1.28,-1.36,
3.039,-0.20,-0.68,0.35,-0.85,1.28,-1.36,
3.039,-0.20,-0.68,0.35,-0.93,1.27,-1.37,
3.04,-0.20,-0.68,0.35,-1.06,1.25,-1.38,
3.04,-0.20,-0.68,0.35,-1.15,1.23,-1.40,
3.04,-0.20,-0.68,0.35,-1.19,1.22,-1.41,
3.042,-0.20,-0.68,0.35,-1.29,1.18,-1.43,
3.045,0.13,-0.42,-0.32,-1.29,1.18,-1.43,
3.045,0.13,-0.42,-0.32,-1.39,1.14,-1.45,
3.056,0.13,-0.42,-0.32,-1.49,1.10,-1.48,
3.057,0.13,-0.42,-0.32,-1.64,1.02,-1.53,
3.057,0.13,-0.42,-0.32,-1.70,1.00,-1.55,
3.057,0.13,-0.42,-0.32,-1.80,0.95,-1.59,
3.057,0.81,-0.39,0.01,-1.80,0.95,-1.59,
3.058,0.81,-0.39,0.01,-1.90,0.90,-1.63,
3.058,0.81,-0.39,0.01,-1.98,0.86,-1.67,
3.058,0.81,-0.39,0.01,-2.07,0.82,-1.72,
3.061,0.81,-0.39,0.01,-2.15,0.79,-1.76,
3.093,0.81,-0.39,0.01,-2.22,0.75,-1.80,
3.094,1.00,-0.65,1.63,-2.22,0.75,-1.80,
3.094,1.00,-0.65,1.63,-2.29,0.73,-1.84,
3.094,1.00,-0.65,1.63,-2.35,0.71,-1.87,
3.095,1.00,-0.65,1.63,-2.40,0.69,-1.89,
3.095,1.00,-0.65,1.63,-2.45,0.68,-1.91,
3.095,1.00,-0.65,1.63,-2.49,0.68,-1.93,
3.095,0.46,-1.24,3.74,-2.49,0.68,-1.93,
3.095,0.46,-1.24,3.74,-2.52,0.68,-1.93,
3.096,0.46,-1.24,3.74,-2.55,0.68,-1.93,
3.096,0.46,-1.24,3.74,-2.58,0.70,-1.92,
3.096,0.46,-1.24,3.74,-2.59,0.72,-1.90,
3.096,0.46,-1.24,3.74,-2.61,0.75,-1.88,
3.096,-0.49,-2.13,5.73,-2.61,0.75,-1.88,
3.097,-0.49,-2.13,5.73,-2.61,0.78,-1.85,
3.097,-0.49,-2.13,5.73,-2.61,0.82,-1.81,
3.097,-0.49,-2.13,5.73,-2.60,0.91,-1.75,
3.097,-0.49,-2.13,5.73,-2.60,0.94,-1.73,
3.097,-0.49,-2.13,5.73,-2.58,1.01,-1.67,
3.097,-1.49,-2.96,7.45,-2.58,1.01,-1.67,
3.098,-1.49,-2.96,7.45,-2.56,1.08,-1.61,
3.114,-1.49,-2.96,7.45,-2.53,1.17,-1.54,
3.114,-1.49,-2.96,7.45,-2.47,1.30,-1.42,
3.114,-1.49,-2.96,7.45,-2.45,1.35,-1.38,
3.114,-1.49,-2.96,7.45,-2.40,1.45,-1.29,
3.114,-2.64,-3.14,8.59,-2.40,1.45,-1.29,
3.114,-2.64,-3.14,8.59,-2.35,1.54,-1.19,
3.114,-2.64,-3.14,8.59,-2.29,1.63,-1.09,
3.115,-2.64,-3.14,8.59,-2.23,1.71,-0.99,
3.115,-2.64,-3.14,8.59,-2.17,1.78,-0.89,
3.115,-2.64,-3.14,8.59,-2.10,1.85,-0.79,
3.117,-3.21,-2.87,8.95,-2.10,1.85,-0.79,
3.118,-3.21,-2.87,8.95,-2.03,1.91,-0.69,
3.118,-3.21,-2.87,8.95,-1.95,1.97,-0.60,
3.119,-3.21,-2.87,8.95,-1.87,2.01,-0.51,
3.121,-3.21,-2.87,8.95,-1.79,2.03,-0.42,
3.122,-3.21,-2.87,8.95,-1.71,2.05,-0.34,
3.124,-2.86,-2.08,8.46,-1.71,2.05,-0.34,
3.125,-2.86,-2.08,8.46,-1.62,2.06,-0.26,
3.126,-2.86,-2.08,8.46,-1.54,2.05,-0.18,
3.129,-2.86,-2.08,8.46,-1.45,2.05,-0.11,
3.13,-2.86,-2.08,8.46,-1.36,2.03,-0.04,
3.132,-2.86,-2.08,8.46,-1.27,2.01,0.02,
3.135,-2.14,-1.32,7.35,-1.27,2.01,0.02,
3.135,-2.14,-1.32,7.35,-1.18,1.98,0.08,
3.141,-2.14,-1.32,7.35,-0.92,1.84,0.25,
3.141,-2.14,-1.32,7.35,-0.92,1.84,0.25,
3.142,-2.14,-1.32,7.35,-0.80,1.75,0.32,
3.143,-2.14,-1.32,7.35,-0.80,1.75,0.32,
3.144,-2.14,-1.32,7.35,-0.71,1.68,0.36,
3.145,-1.35,-0.67,5.79,-0.71,1.68,0.36,
3.146,-1.35,-0.67,5.79,-0.63,1.61,0.41,
3.148,-1.35,-0.67,5.79,-0.55,1.54,0.45,
3.15,-1.35,-0.67,5.79,-0.51,1.50,0.47,
3.152,-1.35,-0.67,5.79,-0.43,1.42,0.51,
3.154,-0.70,-0.08,4.07,-0.43,1.42,0.51,
3.154,-0.70,-0.08,4.07,-0.35,1.34,0.54,
3.156,-0.70,-0.08,4.07,-0.28,1.26,0.58,
3.158,-0.70,-0.08,4.07,-0.20,1.18,0.61,
3.16,-0.70,-0.08,4.07,-0.13,1.09,0.64,
3.162,-0.70,-0.08,4.07,-0.06,1.01,0.67,
3.165,-0.15,0.36,2.36,-0.06,1.01,0.67,
3.165,-0.15,0.36,2.36,0.01,0.93,0.70,
3.166,-0.15,0.36,2.36,0.10,0.81,0.75,
3.168,-0.15,0.36,2.36,0.16,0.73,0.78,
3.17,-0.15,0.36,2.36,0.19,0.70,0.79,
3.172,-0.15,0.36,2.36,0.24,0.62,0.82,
3.175,0.24,0.69,0.60,0.24,0.62,0.82,
3.175,0.24,0.69,0.60,0.32,0.52,0.86,
3.176,0.24,0.69,0.60,0.35,0.48,0.87,
3.189,0.24,0.69,0.60,0.39,0.41,0.89,
3.19,0.24,0.69,0.60,0.44,0.35,0.91,
3.19,0.24,0.69,0.60,0.47,0.28,0.93,
3.19,0.59,0.84,-1.07,0.47,0.28,0.93,
3.191,0.59,0.84,-1.07,0.51,0.21,0.95,
3.191,0.59,0.84,-1.07,0.55,0.15,0.97,
3.191,0.59,0.84,-1.07,0.59,0.07,1.00,
3.191,0.59,0.84,-1.07,0.61,0.04,1.00,
3.207,0.59,0.84,-1.07,0.63,-0.01,1.02,
3.208,0.96,1.01,-2.50,0.63,-0.01,1.02,
3.209,0.96,1.01,-2.50,0.65,-0.06,1.03,
3.209,0.96,1.01,-2.50,0.67,-0.10,1.04,
3.209,0.96,1.01,-2.50,0.70,-0.17,1.05,
3.21,0.96,1.01,-2.50,0.71,-0.18,1.06,
3.21,0.96,1.01,-2.50,0.73,-0.22,1.06,
3.211,1.31,0.95,-3.57,0.73,-0.22,1.06,
3.211,1.31,0.95,-3.57,0.75,-0.25,1.07,
3.212,1.31,0.95,-3.57,0.76,-0.28,1.08,
3.212,1.31,0.95,-3.57,0.78,-0.31,1.08,
3.213,1.31,0.95,-3.57,0.78,-0.32,1.08,
3.213,1.31,0.95,-3.57,0.79,-0.33,1.08,
3.221,1.66,1.02,-4.39,0.79,-0.33,1.08,
3.221,1.66,1.02,-4.39,0.80,-0.35,1.08,
3.221,1.66,1.02,-4.39,0.81,-0.35,1.07,
3.222,1.66,1.02,-4.39,0.81,-0.36,1.07,
3.223,1.66,1.02,-4.39,0.81,-0.36,1.07,
3.223,1.66,1.02,-4.39,0.81,-0.36,1.06,
3.227,1.84,0.92,-5.12,0.81,-0.36,1.06,
3.229,1.84,0.92,-5.12,0.81,-0.35,1.05,
3.23,1.84,0.92,-5.12,0.81,-0.35,1.05,
3.231,1.84,0.92,-5.12,0.80,-0.35,1.04,
3.233,1.84,0.92,-5.12,0.80,-0.34,1.03,
3.234,1.84,0.92,-5.12,0.80,-0.34,1.02,
3.235,2.05,0.84,-5.76,0.80,-0.34,1.02,
3.235,2.05,0.84,-5.76,0.79,-0.33,1.01,
3.236,2.05,0.84,-5.76,0.78,-0.33,1.00,
3.238,2.05,0.84,-5.76,0.76,-0.33,0.98,
3.24,2.05,0.84,-5.76,0.76,-0.32,0.97,
3.243,2.05,0.84,-5.76,0.75,-0.32,0.96,
3.246,2.06,0.63,-6.16,0.75,-0.32,0.96,
3.246,2.06,0.63,-6.16,0.72,-0.31,0.93,
3.247,2.06,0.63,-6.16,0.71,-0.31,0.92,
3.248,2.06,0.63,-6.16,0.70,-0.30,0.90,
3.25,2.06,0.63,-6.16,0.70,-0.30,0.89,
3.252,2.06,0.63,-6.16,0.69,-0.30,0.87,
3.254,2.26,0.56,-6.35,0.69,-0.30,0.87,
3.255,2.26,0.56,-6.35,0.67,-0.29,0.84,
3.256,2.26,0.56,-6.35,0.66,-0.28,0.81,
3.258,2.26,0.56,-6.35,0.65,-0.28,0.79,
3.26,2.26,0.56,-6.35,0.65,-0.28,0.78,
3.263,2.26,0.56,-6.35,0.64,-0.27,0.76,
3.286,2.06,0.37,-6.35,0.64,-0.27,0.76,
3.286,2.06,0.37,-6.35,0.63,-0.27,0.72,
3.287,2.06,0.37,-6.35,0.62,-0.26,0.70,
3.287,2.06,0.37,-6.35,0.61,-0.26,0.68,
3.287,2.06,0.37,-6.35,0.61,-0.25,0.66,
3.287,2.06,0.37,-6.35,0.60,-0.25,0.64,
3.287,1.90,0.34,-6.37,0.60,-0.25,0.64,
3.288,1.90,0.34,-6.37,0.59,-0.24,0.61,
3.288,1.90,0.34,-6.37,0.58,-0.23,0.59,
3.288,1.90,0.34,-6.37,0.57,-0.22,0.57,
3.288,1.90,0.34,-6.37,0.55,-0.21,0.55,
3.288,1.90,0.34,-6.37,0.54,-0.20,0.52,
3.289,1.48,0.14,-6.36,0.54,-0.20,0.52,
3.289,1.48,0.14,-6.36,0.53,-0.19,0.50,
3.289,1.48,0.14,-6.36,0.51,-0.18,0.48,
3.289,1.48,0.14,-6.36,0.50,-0.17,0.46,
3.291,1.48,0.14,-6.36,0.48,-0.16,0.44,
3.292,1.48,0.14,-6.36,0.47,-0.15,0.43,
3.295,1.21,0.02,-6.33,0.47,-0.15,0.43,
3.295,1.21,0.02,-6.33,0.45,-0.14,0.41,
3.296,1.21,0.02,-6.33,0.43,-0.13,0.40,
3.298,1.21,0.02,-6.33,0.42,-0.12,0.38,
3.3,1.21,0.02,-6.33,0.40,-0.11,0.37,
3.302,1.21,0.02,-6.33,0.38,-0.10,0.36,
3.304,0.67,-0.25,-6.08,0.38,-0.10,0.36,
3.304,0.67,-0.25,-6.08,0.37,-0.10,0.35,
3.306,0.67,-0.25,-6.08,0.35,-0.09,0.34,
3.308,0.67,-0.25,-6.08,0.34,-0.09,0.33,
3.31,0.67,-0.25,-6.08,0.33,-0.09,0.33,
3.323,0.67,-0.25,-6.08,0.32,-0.08,0.32,
3.324,0.25,-0.40,-5.55,0.32,-0.08,0.32,
3.324,0.25,-0.40,-5.55,0.32,-0.08,0.31,
3.324,0.25,-0.40,-5.55,0.31,-0.08,0.31,
3.324,0.25,-0.40,-5.55,0.31,-0.08,0.31,
3.324,0.25,-0.40,-5.55,0.31,-0.08,0.30,
3.325,0.25,-0.40,-5.55,0.32,-0.08,0.30,
3.325,-0.16,-0.60,-4.82,0.32,-0.08,0.30,
3.325,-0.16,-0.60,-4.82,0.32,-0.08,0.30,
3.327,-0.16,-0.60,-4.82,0.33,-0.09,0.30,
3.352,-0.16,-0.60,-4.82,0.33,-0.09,0.30,
3.353,-0.16,-0.60,-4.82,0.34,-0.09,0.30,
3.353,-0.16,-0.60,-4.82,0.35,-0.10,0.30,
3.353,-0.50,-0.79,-4.08,0.35,-0.10,0.30,
3.353,-0.50,-0.79,-4.08,0.36,-0.11,0.31,
3.354,-0.50,-0.79,-4.08,0.38,-0.12,0.31,
3.354,-0.50,-0.79,-4.08,0.39,-0.13,0.32,
3.354,-0.50,-0.79,-4.08,0.40,-0.15,0.32,
3.354,-0.50,-0.79,-4.08,0.42,-0.16,0.33,
3.354,-0.85,-0.93,-3.39,0.42,-0.16,0.33,
3.354,-0.85,-0.93,-3.39,0.44,-0.18,0.33,
3.355,-0.85,-0.93,-3.39,0.46,-0.19,0.34,
3.355,-0.85,-0.93,-3.39,0.48,-0.21,0.35,
3.355,-0.85,-0.93,-3.39,0.50,-0.23,0.36,
3.355,-0.85,-0.93,-3.39,0.52,-0.24,0.37,
3.355,-1.09,-1.00,-2.78,0.52,-0.24,0.37,
3.356,-1.09,-1.00,-2.78,0.54,-0.26,0.38,
3.356,-1.09,-1.00,-2.78,0.56,-0.27,0.38,
3.359,-1.09,-1.00,-2.78,0.58,-0.29,0.39,
3.36,-1.09,-1.00,-2.78,0.59,-0.30,0.41,
3.364,-1.09,-1.00,-2.78,0.60,-0.31,0.41,
3.366,-1.18,-1.03,-2.52,0.60,-0.31,0.41,
3.366,-1.18,-1.03,-2.52,0.61,-0.32,0.42,
3.366,-1.18,-1.03,-2.52,0.62,-0.33,0.43,
3.368,-1.18,-1.03,-2.52,0.63,-0.34,0.44,
3.371,-1.18,-1.03,-2.52,0.63,-0.35,0.44,
3.372,-1.18,-1.03,-2.52,0.63,-0.35,0.45,
3.375,-1.19,-1.06,-2.42,0.63,-0.35,0.45,
3.376,-1.19,-1.06,-2.42,0.64,-0.36,0.46,
3.377,-1.19,-1.06,-2.42,0.64,-0.36,0.46,
3.379,-1.19,-1.06,-2.42,0.64,-0.36,0.47,
3.38,-1.19,-1.06,-2.42,0.64,-0.35,0.47,
3.383,-1.19,-1.06,-2.42,0.63,-0.35,0.48,
3.385,-1.13,-1.01,-2.29,0.63,-0.35,0.48,
3.385,-1.13,-1.01,-2.29,0.63,-0.35,0.48,
3.387,-1.13,-1.01,-2.29,0.62,-0.35,0.48,
3.389,-1.13,-1.01,-2.29,0.61,-0.35,0.49,
3.391,-1.13,-1.01,-2.29,0.60,-0.36,0.50,
3.392,-1.13,-1.01,-2.29,0.58,-0.37,0.50,
3.398,-1.07,-0.91,-2.23,0.58,-0.37,0.50,
3.399,-1.07,-0.91,-2.23,0.56,-0.39,0.50,
3.399,-1.07,-0.91,-2.23,0.54,-0.40,0.51,
3.406,-1.07,-0.91,-2.23,0.51,-0.43,0.51,
3.407,-1.07,-0.91,-2.23,0.48,-0.45,0.51,
3.407,-1.07,-0.91,-2.23,0.45,-0.48,0.51,
3.409,-0.95,-0.82,-2.04,0.45,-0.48,0.51,
3.409,-0.95,-0.82,-2.04,0.41,-0.51,0.51,
3.409,-0.95,-0.82,-2.04,0.37,-0.54,0.51,
3.41,-0.95,-0.82,-2.04,0.33,-0.58,0.51,
3.411,-0.95,-0.82,-2.04,0.29,-0.62,0.50,
3.414,-0.95,-0.82,-2.04,0.25,-0.66,0.49,
3.416,-0.62,-0.69,-1.44,0.25,-0.66,0.49,
3.417,-0.62,-0.69,-1.44,0.21,-0.70,0.48,
3.417,-0.62,-0.69,-1.44,0.16,-0.75,0.47,
3.421,-0.62,-0.69,-1.44,0.12,-0.79,0.46,
3.422,-0.62,-0.69,-1.44,0.08,-0.84,0.44,
3.424,-0.62,-0.69,-1.44,0.04,-0.88,0.43,
3.425,-0.20,-0.56,-0.05,0.04,-0.88,0.43,
3.425,-0.20,-0.56,-0.05,0.01,-0.92,0.41,
3.426,-0.20,-0.56,-0.05,-0.01,-0.96,0.40,
3.429,-0.20,-0.56,-0.05,-0.04,-1.01,0.38,
3.464,-0.20,-0.56,-0.05,-0.06,-1.04,0.37,
3.464,-0.20,-0.56,-0.05,-0.08,-1.08,0.35,
3.465,0.10,-0.62,1.92,-0.08,-1.08,0.35,
3.465,0.10,-0.62,1.92,-0.09,-1.11,0.33,
3.465,0.10,-0.62,1.92,-0.10,-1.14,0.32,
3.466,0.10,-0.62,1.92,-0.10,-1.16,0.30,
3.466,0.10,-0.62,1.92,-0.10,-1.17,0.29,
3.467,0.10,-0.62,1.92,-0.10,-1.18,0.27,
3.467,0.43,-0.73,3.99,-0.10,-1.18,0.27,
3.468,0.43,-0.73,3.99,-0.09,-1.19,0.26,
3.468,0.43,-0.73,3.99,-0.08,-1.18,0.25,
3.468,0.43,-0.73,3.99,-0.06,-1.17,0.23,
3.469,0.43,-0.73,3.99,-0.05,-1.16,0.22,
3.469,0.43,-0.73,3.99,-0.03,-1.14,0.20,
3.469,0.59,-0.83,5.64,-0.03,-1.14,0.20,
3.47,0.59,-0.83,5.64,-0.02,-1.11,0.19,
3.47,0.59,-0.83,5.64,-0.00,-1.09,0.18,
3.471,0.59,-0.83,5.64,0.01,-1.06,0.17,
3.471,0.59,-0.83,5.64,0.02,-1.03,0.16,
3.472,0.59,-0.83,5.64,0.03,-1.01,0.15,
3.472,0.62,-0.76,6.31,0.03,-1.01,0.15,
3.472,0.62,-0.76,6.31,0.03,-0.98,0.14,
3.473,0.62,-0.76,6.31,0.03,-0.96,0.13,
3.473,0.62,-0.76,6.31,0.01,-0.93,0.12,
3.474,0.62,-0.76,6.31,-0.00,-0.91,0.11,
3.474,0.62,-0.76,6.31,-0.03,-0.89,0.10,
3.475,0.77,-0.62,6.16,-0.03,-0.89,0.10,
3.475,0.77,-0.62,6.16,-0.06,-0.87,0.08,
3.48,0.77,-0.62,6.16,-0.09,-0.85,0.06,
3.48,0.77,-0.62,6.16,-0.13,-0.83,0.04,
3.482,0.77,-0.62,6.16,-0.17,-0.82,0.02,
3.483,0.77,-0.62,6.16,-0.22,-0.81,-0.01,
3.485,1.08,-0.42,5.80,-0.22,-0.81,-0.01,
3.485,1.08,-0.42,5.80,-0.27,-0.79,-0.04,
3.486,1.08,-0.42,5.80,-0.32,-0.79,-0.06,
3.488,1.08,-0.42,5.80,-0.37,-0.78,-0.09,
3.49,1.08,-0.42,5.80,-0.43,-0.79,-0.12,
3.492,1.08,-0.42,5.80,-0.49,-0.80,-0.16,
3.504,1.39,-0.40,5.87,-0.49,-0.80,-0.16,
3.505,1.39,-0.40,5.87,-0.54,-0.81,-0.19,
3.505,1.39,-0.40,5.87,-0.60,-0.82,-0.22,
3.505,1.39,-0.40,5.87,-0.66,-0.84,-0.25,
3.505,1.39,-0.40,5.87,-0.71,-0.87,-0.28,
3.505,1.39,-0.40,5.87,-0.77,-0.90,-0.31,
3.506,1.54,-0.55,6.49,-0.77,-0.90,-0.31,
3.506,1.54,-0.55,6.49,-0.82,-0.92,-0.34,
3.534,1.54,-0.55,6.49,-0.87,-0.95,-0.37,
3.535,1.54,-0.55,6.49,-0.91,-0.97,-0.40,
3.535,1.54,-0.55,6.49,-0.95,-0.99,-0.43,
3.535,1.54,-0.55,6.49,-0.99,-1.01,-0.45,
3.535,1.77,-0.97,7.58,-0.99,-1.01,-0.45,
3.536,1.77,-0.97,7.58,-1.02,-1.02,-0.48,
3.536,1.77,-0.97,7.58,-1.05,-1.03,-0.50,
3.536,1.77,-0.97,7.58,-1.07,-1.03,-0.53,
3.536,1.77,-0.97,7.58,-1.09,-1.03,-0.55,
3.536,1.77,-0.97,7.58,-1.10,-1.02,-0.57,
3.537,1.92,-1.34,8.94,-1.10,-1.02,-0.57,
3.537,1.92,-1.34,8.94,-1.11,-1.01,-0.59,
3.537,1.92,-1.34,8.94,-1.11,-0.99,-0.61,
3.538,1.92,-1.34,8.94,-1.11,-0.97,-0.63,
3.538,1.92,-1.34,8.94,-1.10,-0.94,-0.64,
3.538,1.92,-1.34,8.94,-1.08,-0.90,-0.66,
3.538,2.03,-1.74,10.17,-1.08,-0.90,-0.66,
3.539,2.03,-1.74,10.17,-1.06,-0.87,-0.67,
3.539,2.03,-1.74,10.17,-1.03,-0.82,-0.69,
3.539,2.03,-1.74,10.17,-1.00,-0.78,-0.70,
3.542,2.03,-1.74,10.17,-0.97,-0.72,-0.72,
3.543,2.03,-1.74,10.17,-0.93,-0.67,-0.73,
3.547,1.93,-1.83,10.56,-0.93,-0.67,-0.73,
3.548,1.93,-1.83,10.56,-0.90,-0.61,-0.75,
3.548,1.93,-1.83,10.56,-0.86,-0.56,-0.76,
3.549,1.93,-1.83,10.56,-0.82,-0.50,-0.77,
3.55,1.93,-1.83,10.56,-0.79,-0.45,-0.78,
3.552,1.93,-1.83,10.56,-0.75,-0.40,-0.78,
3.554,1.57,-1.94,9.89,-0.75,-0.40,-0.78,
3.555,1.57,-1.94,9.89,-0.72,-0.35,-0.79,
3.556,1.57,-1.94,9.89,-0.69,-0.31,-0.79,
3.558,1.57,-1.94,9.89,-0.66,-0.27,-0.80,
3.563,1.57,-1.94,9.89,-0.64,-0.24,-0.80,
3.564,1.57,-1.94,9.89,-0.62,-0.22,-0.80,
3.566,1.12,-1.86,8.32,-0.62,-0.22,-0.80,
3.567,1.12,-1.86,8.32,-0.60,-0.19,-0.81,
3.567,1.12,-1.86,8.32,-0.59,-0.17,-0.81,
3.568,1.12,-1.86,8.32,-0.58,-0.16,-0.81,
3.57,1.12,-1.86,8.32,-0.56,-0.14,-0.80,
3.572,1.12,-1.86,8.32,-0.55,-0.13,-0.80,
3.575,0.49,-1.53,6.47,-0.55,-0.13,-0.80,
3.576,0.49,-1.53,6.47,-0.55,-0.12,-0.79,
3.577,0.49,-1.53,6.47,-0.54,-0.12,-0.79,
3.581,0.49,-1.53,6.47,-0.54,-0.12,-0.79,
3.584,0.49,-1.53,6.47,-0.54,-0.12,-0.78,
3.585,0.49,-1.53,6.47,-0.54,-0.13,-0.78,
3.586,-0.01,-1.18,4.74,-0.54,-0.13,-0.78,
3.587,-0.01,-1.18,4.74,-0.55,-0.14,-0.78,
3.588,-0.01,-1.18,4.74,-0.55,-0.15,-0.77,
3.591,-0.01,-1.18,4.74,-0.55,-0.16,-0.77,
3.592,-0.01,-1.18,4.74,-0.56,-0.18,-0.76,
3.593,-0.01,-1.18,4.74,-0.56,-0.19,-0.76,
3.595,-0.34,-1.03,3.25,-0.56,-0.19,-0.76,
3.596,-0.34,-1.03,3.25,-0.56,-0.20,-0.75,
3.613,-0.34,-1.03,3.25,-0.57,-0.20,-0.75,
3.613,-0.34,-1.03,3.25,-0.57,-0.21,-0.74,
3.613,-0.34,-1.03,3.25,-0.57,-0.21,-0.73,
3.613,-0.34,-1.03,3.25,-0.57,-0.21,-0.72,
3.613,-0.66,-0.80,2.24,-0.57,-0.21,-0.72,
3.613,-0.66,-0.80,2.24,-0.56,-0.20,-0.71,
3.613,-0.66,-0.80,2.24,-0.56,-0.20,-0.70,
3.613,-0.66,-0.80,2.24,-0.55,-0.19,-0.69,
3.614,-0.66,-0.80,2.24,-0.54,-0.17,-0.68,
3.614,-0.66,-0.80,2.24,-0.53,-0.16,-0.66,
3.615,-0.93,-0.73,1.54,-0.53,-0.16,-0.66,
3.615,-0.93,-0.73,1.54,-0.51,-0.14,-0.64,
3.62,-0.93,-0.73,1.54,-0.50,-0.12,-0.63,
3.621,-0.93,-0.73,1.54,-0.48,-0.10,-0.61,
3.621,-0.93,-0.73,1.54,-0.46,-0.07,-0.59,
3.622,-0.93,-0.73,1.54,-0.44,-0.04,-0.58,
3.642,-1.20,-0.63,0.83,-0.44,-0.04,-0.58,
3.643,-1.20,-0.63,0.83,-0.41,-0.02,-0.56,
3.643,-1.20,-0.63,0.83,-0.39,0.01,-0.54,
3.643,-1.20,-0.63,0.83,-0.37,0.04,-0.52,
3.643,-1.20,-0.63,0.83,-0.34,0.07,-0.50,
3.643,-1.20,-0.63,0.83,-0.32,0.10,-0.48,
3.643,-1.46,-0.54,-0.08,-0.32,0.10,-0.48,
3.643,-1.46,-0.54,-0.08,-0.29,0.12,-0.46,
3.643,-1.46,-0.54,-0.08,-0.27,0.15,-0.44,
3.644,-1.46,-0.54,-0.08,-0.25,0.17,-0.42,
3.644,-1.46,-0.54,-0.08,-0.22,0.19,-0.40,
3.644,-1.46,-0.54,-0.08,-0.20,0.20,-0.39,
3.645,-1.58,-0.45,-1.15,-0.20,0.20,-0.39,
3.645,-1.58,-0.45,-1.15,-0.17,0.21,-0.36,
3.647,-1.58,-0.45,-1.15,-0.15,0.22,-0.35,
3.648,-1.58,-0.45,-1.15,-0.12,0.23,-0.33,
3.65,-1.58,-0.45,-1.15,-0.10,0.23,-0.31,
3.652,-1.58,-0.45,-1.15,-0.07,0.23,-0.29,
3.654,-1.74,-0.40,-2.25,-0.07,0.23,-0.29,
3.655,-1.74,-0.40,-2.25,-0.05,0.23,-0.28,
3.656,-1.74,-0.40,-2.25,-0.02,0.22,-0.26,
3.658,-1.74,-0.40,-2.25,-0.00,0.21,-0.24,
3.66,-1.74,-0.40,-2.25,0.02,0.19,-0.22,
3.662,-1.74,-0.40,-2.25,0.05,0.18,-0.21,
3.664,-1.80,-0.34,-3.34,0.05,0.18,-0.21,
3.664,-1.80,-0.34,-3.34,0.07,0.16,-0.20,
3.666,-1.80,-0.34,-3.34,0.09,0.14,-0.18,
3.668,-1.80,-0.34,-3.34,0.11,0.11,-0.17,
3.67,-1.80,-0.34,-3.34,0.13,0.09,-0.16,
3.672,-1.80,-0.34,-3.34,0.15,0.06,-0.15,
3.674,-1.76,-0.29,-4.28,0.15,0.06,-0.15,
3.675,-1.76,-0.29,-4.28,0.17,0.04,-0.14,
3.676,-1.76,-0.29,-4.28,0.19,0.01,-0.13,
3.679,-1.76,-0.29,-4.28,0.21,-0.02,-0.12,
3.68,-1.76,-0.29,-4.28,0.23,-0.04,-0.12,
3.682,-1.76,-0.29,-4.28,0.26,-0.07,-0.11,
3.684,-1.68,-0.34,-4.97,0.26,-0.07,-0.11,
3.685,-1.68,-0.34,-4.97,0.28,-0.10,-0.11,
3.686,-1.68,-0.34,-4.97,0.30,-0.13,-0.10,
3.688,-1.68,-0.34,-4.97,0.32,-0.15,-0.09,
3.69,-1.68,-0.34,-4.97,0.35,-0.18,-0.08,
3.692,-1.68,-0.34,-4.97,0.37,-0.20,-0.08,
3.696,-1.76,-0.35,-5.40,0.37,-0.20,-0.08,
3.697,-1.76,-0.35,-5.40,0.40,-0.22,-0.07,
3.698,-1.76,-0.35,-5.40,0.42,-0.24,-0.06,
3.698,-1.76,-0.35,-5.40,0.44,-0.26,-0.06,
3.7,-1.76,-0.35,-5.40,0.47,-0.28,-0.05,
3.702,-1.76,-0.35,-5.40,0.49,-0.29,-0.04,
3.704,-1.82,-0.47,-5.78,0.49,-0.29,-0.04,
3.705,-1.82,-0.47,-5.78,0.51,-0.30,-0.03,
3.706,-1.82,-0.47,-5.78,0.53,-0.31,-0.02,
3.708,-1.82,-0.47,-5.78,0.55,-0.33,-0.01,
3.711,-1.82,-0.47,-5.78,0.57,-0.34,0.00,
3.713,-1.82,-0.47,-5.78,0.58,-0.35,0.01,
3.715,-1.99,-0.57,-6.15,0.58,-0.35,0.01,
3.715,-1.99,-0.57,-6.15,0.60,-0.35,0.02,
3.716,-1.99,-0.57,-6.15,0.61,-0.36,0.03,
3.72,-1.99,-0.57,-6.15,0.62,-0.37,0.04,
3.721,-1.99,-0.57,-6.15,0.64,-0.38,0.05,
3.722,-1.99,-0.57,-6.15,0.65,-0.38,0.07,
3.724,-2.04,-0.73,-6.37,0.65,-0.38,0.07,
3.725,-2.04,-0.73,-6.37,0.66,-0.37,0.07,
3.749,-2.04,-0.73,-6.37,0.67,-0.37,0.09,
3.751,-2.04,-0.73,-6.37,0.68,-0.36,0.10,
3.752,-2.04,-0.73,-6.37,0.70,-0.36,0.11,
3.753,-2.04,-0.73,-6.37,0.71,-0.35,0.13,
3.753,-2.20,-0.81,-6.41,0.71,-0.35,0.13,
3.753,-2.20,-0.81,-6.41,0.73,-0.33,0.14,
3.755,-2.20,-0.81,-6.41,0.75,-0.32,0.15,
3.757,-2.20,-0.81,-6.41,0.76,-0.31,0.17,
3.757,-2.20,-0.81,-6.41,0.78,-0.30,0.18,
3.758,-2.20,-0.81,-6.41,0.80,-0.29,0.20,
3.76,-2.19,-0.94,-6.40,0.80,-0.29,0.20,
3.761,-2.19,-0.94,-6.40,0.81,-0.28,0.22,
3.761,-2.19,-0.94,-6.40,0.82,-0.28,0.23,
3.761,-2.19,-0.94,-6.40,0.84,-0.27,0.25,
3.762,-2.19,-0.94,-6.40,0.85,-0.27,0.26,
3.762,-2.19,-0.94,-6.40,0.86,-0.27,0.27,
3.762,-2.21,-0.94,-6.48,0.86,-0.27,0.27,
3.763,-2.21,-0.94,-6.48,0.87,-0.28,0.29,
3.763,-2.21,-0.94,-6.48,0.88,-0.28,0.30,
3.763,-2.21,-0.94,-6.48,0.89,-0.29,0.31,
3.764,-2.21,-0.94,-6.48,0.89,-0.30,0.32,
3.764,-2.21,-0.94,-6.48,0.90,-0.32,0.33,
3.791,-2.14,-1.08,-6.59,0.90,-0.32,0.33,
3.791,-2.14,-1.08,-6.59,0.90,-0.33,0.34,
3.791,-2.14,-1.08,-6.59,0.90,-0.35,0.35,
3.792,-2.14,-1.08,-6.59,0.90,-0.37,0.35,
3.792,-2.14,-1.08,-6.59,0.90,-0.39,0.35,
3.792,-2.14,-1.08,-6.59,0.89,-0.41,0.36,
3.793,-2.10,-1.00,-6.43,0.89,-0.41,0.36,
3.793,-2.10,-1.00,-6.43,0.89,-0.44,0.36,
3.793,-2.10,-1.00,-6.43,0.89,-0.46,0.36,
3.794,-2.10,-1.00,-6.43,0.88,-0.49,0.36,
3.794,-2.10,-1.00,-6.43,0.88,-0.52,0.36,
3.794,-2.10,-1.00,-6.43,0.88,-0.55,0.36,
3.795,-1.90,-1.02,-5.71,0.88,-0.55,0.36,
3.795,-1.90,-1.02,-5.71,0.88,-0.58,0.35,
3.795,-1.90,-1.02,-5.71,0.88,-0.60,0.35,
3.795,-1.90,-1.02,-5.71,0.89,-0.63,0.35,
3.796,-1.90,-1.02,-5.71,0.89,-0.65,0.35,
3.796,-1.90,-1.02,-5.71,0.90,-0.67,0.35,
3.796,-1.85,-1.03,-4.63,0.90,-0.67,0.35,
3.797,-1.85,-1.03,-4.63,0.91,-0.68,0.34,
3.797,-1.85,-1.03,-4.63,0.93,-0.70,0.34,
3.805,-1.85,-1.03,-4.63,0.94,-0.70,0.34,
3.805,-1.85,-1.03,-4.63,0.96,-0.71,0.34,
3.805,-1.85,-1.03,-4.63,0.98,-0.71,0.34,
3.805,-1.80,-0.88,-3.34,0.98,-0.71,0.34,
3.806,-1.80,-0.88,-3.34,1.01,-0.71,0.33,
3.807,-1.80,-0.88,-3.34,1.03,-0.70,0.33,
3.808,-1.80,-0.88,-3.34,1.06,-0.69,0.33,
3.822,-1.80,-0.88,-3.34,1.09,-0.68,0.32,
3.822,-1.80,-0.88,-3.34,1.11,-0.66,0.32,
3.822,-1.74,-0.73,-2.30,1.11,-0.66,0.32,
3.823,-1.74,-0.73,-2.30,1.14,-0.64,0.31,
3.823,-1.74,-0.73,-2.30,1.17,-0.61,0.31,
3.823,-1.74,-0.73,-2.30,1.20,-0.58,0.31,
3.823,-1.74,-0.73,-2.30,1.22,-0.55,0.30,
3.823,-1.74,-0.73,-2.30,1.24,-0.52,0.30,
3.825,-1.63,-0.49,-1.97,1.24,-0.52,0.30,
3.825,-1.63,-0.49,-1.97,1.26,-0.48,0.30,
3.841,-1.63,-0.49,-1.97,1.27,-0.45,0.30,
3.842,-1.63,-0.49,-1.97,1.28,-0.41,0.30,
3.842,-1.63,-0.49,-1.97,1.28,-0.38,0.29,
3.843,-1.63,-0.49,-1.97,1.27,-0.34,0.29,
3.843,-1.59,-0.13,-2.44,1.27,-0.34,0.29,
3.845,-1.59,-0.13,-2.44,1.26,-0.31,0.28,
3.845,-1.59,-0.13,-2.44,1.24,-0.28,0.27,
3.846,-1.59,-0.13,-2.44,1.21,-0.25,0.26,
3.847,-1.59,-0.13,-2.44,1.17,-0.21,0.25,
3.847,-1.59,-0.13,-2.44,1.13,-0.17,0.24,
3.849,-1.37,0.18,-3.23,1.13,-0.17,0.24,
3.849,-1.37,0.18,-3.23,1.09,-0.14,0.23,
3.85,-1.37,0.18,-3.23,1.03,-0.10,0.21,
3.851,-1.37,0.18,-3.23,0.97,-0.06,0.20,
3.852,-1.37,0.18,-3.23,0.90,-0.02,0.20,
3.853,-1.37,0.18,-3.23,0.83,0.01,0.18,
3.855,-1.19,0.48,-3.64,0.83,0.01,0.18,
3.855,-1.19,0.48,-3.64,0.76,0.05,0.17,
3.856,-1.19,0.48,-3.64,0.68,0.09,0.16,
3.859,-1.19,0.48,-3.64,0.60,0.13,0.14,
3.86,-1.19,0.48,-3.64,0.51,0.18,0.13,
3.863,-1.19,0.48,-3.64,0.43,0.22,0.12,
3.865,-0.91,0.55,-3.20,0.43,0.22,0.12,
3.866,-0.91,0.55,-3.20,0.35,0.25,0.10,
3.866,-0.91,0.55,-3.20,0.27,0.28,0.09,
3.868,-0.91,0.55,-3.20,0.19,0.30,0.07,
3.87,-0.91,0.55,-3.20,0.11,0.31,0.06,
3.872,-0.91,0.55,-3.20,0.03,0.31,0.04,
3.875,-0.43,0.75,-2.04,0.03,0.31,0.04,
3.876,-0.43,0.75,-2.04,-0.05,0.30,0.02,
3.877,-0.43,0.75,-2.04,-0.12,0.28,-0.00,
3.898,-0.43,0.75,-2.04,-0.20,0.24,-0.03,
3.899,-0.43,0.75,-2.04,-0.28,0.19,-0.06,
3.899,-0.43,0.75,-2.04,-0.35,0.14,-0.10,
3.9,0.49,0.93,-0.49,-0.35,0.14,-0.10,
3.9,0.49,0.93,-0.49,-0.43,0.07,-0.14,
3.9,0.49,0.93,-0.49,-0.50,0.00,-0.19,
3.901,0.49,0.93,-0.49,-0.56,-0.07,-0.24,
3.901,0.49,0.93,-0.49,-0.62,-0.14,-0.30,
3.901,0.49,0.93,-0.49,-0.67,-0.21,-0.35,
3.902,1.34,1.04,1.76,-0.67,-0.21,-0.35,
3.902,1.34,1.04,1.76,-0.72,-0.28,-0.41,
3.903,1.34,1.04,1.76,-0.76,-0.35,-0.47,
3.903,1.34,1.04,1.76,-0.79,-0.41,-0.52,
3.903,1.34,1.04,1.76,-0.82,-0.46,-0.58,
3.908,1.34,1.04,1.76,-0.84,-0.51,-0.63,
3.909,1.79,1.14,4.46,-0.84,-0.51,-0.63,
3.909,1.79,1.14,4.46,-0.85,-0.55,-0.69,
3.909,1.79,1.14,4.46,-0.87,-0.59,-0.74,
3.91,1.79,1.14,4.46,-0.88,-0.61,-0.79,
3.928,1.79,1.14,4.46,-0.89,-0.63,-0.83,
3.928,1.79,1.14,4.46,-0.90,-0.64,-0.88,
3.929,1.97,1.01,6.60,-0.90,-0.64,-0.88,
3.929,1.97,1.01,6.60,-0.91,-0.64,-0.92,
3.929,1.97,1.01,6.60,-0.93,-0.63,-0.96,
3.93,1.97,1.01,6.60,-0.94,-0.62,-1.00,
3.93,1.97,1.01,6.60,-0.97,-0.61,-1.04,
3.93,1.97,1.01,6.60,-0.99,-0.59,-1.08,
3.93,2.11,0.70,7.69,-0.99,-0.59,-1.08,
3.931,2.11,0.70,7.69,-1.02,-0.56,-1.12,
3.931,2.11,0.70,7.69,-1.06,-0.53,-1.15,
3.932,2.11,0.70,7.69,-1.09,-0.49,-1.19,
3.961,2.11,0.70,7.69,-1.13,-0.45,-1.23,
3.961,2.11,0.70,7.69,-1.17,-0.40,-1.26,
3.962,2.33,0.07,8.25,-1.17,-0.40,-1.26,
3.962,2.33,0.07,8.25,-1.21,-0.34,-1.30,
3.963,2.33,0.07,8.25,-1.26,-0.28,-1.33,
3.963,2.33,0.07,8.25,-1.30,-0.21,-1.35,
3.964,2.33,0.07,8.25,-1.34,-0.12,-1.38,
3.964,2.33,0.07,8.25,-1.38,-0.03,-1.40,
3.965,2.28,-0.81,8.81,-1.38,-0.03,-1.40,
3.965,2.28,-0.81,8.81,-1.42,0.06,-1.41,
3.966,2.28,-0.81,8.81,-1.46,0.17,-1.41,
3.966,2.28,-0.81,8.81,-1.51,0.28,-1.41,
3.966,2.28,-0.81,8.81,-1.55,0.39,-1.40,
3.967,2.28,-0.81,8.81,-1.59,0.52,-1.39,
3.967,1.87,-1.75,9.16,-1.59,0.52,-1.39,
3.968,1.87,-1.75,9.16,-1.63,0.64,-1.38,
3.968,1.87,-1.75,9.16,-1.67,0.77,-1.35,
3.968,1.87,-1.75,9.16,-1.71,0.89,-1.33,
3.969,1.87,-1.75,9.16,-1.75,1.02,-1.30,
3.969,1.87,-1.75,9.16,-1.78,1.15,-1.27,
3.97,1.52,-2.36,9.03,-1.78,1.15,-1.27,
3.97,1.52,-2.36,9.03,-1.82,1.28,-1.24,
3.97,1.52,-2.36,9.03,-1.85,1.40,-1.21,
3.971,1.52,-2.36,9.03,-1.89,1.51,-1.17,
3.971,1.52,-2.36,9.03,-1.92,1.62,-1.14,
3.978,1.52,-2.36,9.03,-1.95,1.73,-1.10,
3.979,1.26,-2.69,8.69,-1.95,1.73,-1.10,
3.979,1.26,-2.69,8.69,-1.97,1.84,-1.07,
3.979,1.26,-2.69,8.69,-2.00,1.93,-1.04,
3.979,1.26,-2.69,8.69,-2.01,2.02,-1.01,
3.982,1.26,-2.69,8.69,-2.02,2.09,-0.98,
3.982,1.26,-2.69,8.69,-2.03,2.16,-0.95,
3.985,1.12,-2.63,8.25,-2.03,2.16,-0.95,
3.985,1.12,-2.63,8.25,-2.04,2.22,-0.92,
3.986,1.12,-2.63,8.25,-2.03,2.28,-0.89,
3.989,1.12,-2.63,8.25,-2.02,2.32,-0.87,
3.99,1.12,-2.63,8.25,-2.01,2.36,-0.83,
3.993,1.12,-2.63,8.25,-2.00,2.39,-0.80,
3.997,0.81,-2.43,7.78,-2.00,2.39,-0.80,
3.997,0.81,-2.43,7.78,-1.97,2.41,-0.77,
3.997,0.81,-2.43,7.78,-1.95,2.42,-0.74,
3.998,0.81,-2.43,7.78,-1.92,2.43,-0.70,
4.0,0.81,-2.43,7.78,-1.88,2.43,-0.66,
4.002,0.81,-2.43,7.78,-1.85,2.42,-0.62,
4.005,0.42,-2.07,7.04,-1.85,2.42,-0.62,
4.005,0.42,-2.07,7.04,-1.81,2.40,-0.59,
4.006,0.42,-2.07,7.04,-1.77,2.38,-0.55,
4.009,0.42,-2.07,7.04,-1.73,2.35,-0.51,
4.012,0.42,-2.07,7.04,-1.68,2.30,-0.47,
4.016,0.42,-2.07,7.04,-1.64,2.25,-0.44,
4.017,0.22,-1.80,6.17,-1.64,2.25,-0.44,
4.017,0.22,-1.80,6.17,-1.59,2.19,-0.39,
4.018,0.22,-1.80,6.17,-1.53,2.12,-0.36,
4.018,0.22,-1.80,6.17,-1.48,2.06,-0.32,
4.023,0.22,-1.80,6.17,-1.42,1.98,-0.29,
4.024,0.22,-1.80,6.17,-1.36,1.91,-0.25,
4.025,0.18,-1.50,5.42,-1.36,1.91,-0.25,
4.035,0.18,-1.50,5.42,-1.29,1.84,-0.21,
4.035,0.18,-1.50,5.42,-1.23,1.77,-0.18,
4.036,0.18,-1.50,5.42,-1.16,1.70,-0.14,
4.036,0.18,-1.50,5.42,-1.09,1.63,-0.10,
4.036,0.18,-1.50,5.42,-1.02,1.56,-0.07,
4.036,0.18,-0.99,4.63,-1.02,1.56,-0.07,
4.037,0.18,-0.99,4.63,-0.95,1.49,-0.03,
4.037,0.18,-0.99,4.63,-0.88,1.41,0.00,
4.04,0.18,-0.99,4.63,-0.80,1.34,0.03,
4.071,0.18,-0.99,4.63,-0.73,1.26,0.07,
4.072,0.18,-0.99,4.63,-0.66,1.18,0.09,
4.072,0.35,-0.43,3.60,-0.66,1.18,0.09,
4.073,0.35,-0.43,3.60,-0.59,1.10,0.12,
4.073,0.35,-0.43,3.60,-0.52,1.02,0.14,
4.073,0.35,-0.43,3.60,-0.45,0.94,0.16,
4.074,0.35,-0.43,3.60,-0.38,0.87,0.19,
4.075,0.35,-0.43,3.60,-0.32,0.80,0.21,
4.075,0.52,-0.02,2.36,-0.32,0.80,0.21,
4.075,0.52,-0.02,2.36,-0.26,0.74,0.23,
4.078,0.52,-0.02,2.36,-0.20,0.68,0.25,
4.08,0.52,-0.02,2.36,-0.15,0.63,0.28,
4.081,0.52,-0.02,2.36,-0.09,0.59,0.30,
4.082,0.52,-0.02,2.36,-0.04,0.55,0.32,
4.083,0.51,0.31,0.84,-0.04,0.55,0.32,
4.083,0.51,0.31,0.84,0.00,0.52,0.35,
4.084,0.51,0.31,0.84,0.04,0.48,0.37,
4.084,0.51,0.31,0.84,0.08,0.45,0.39,
4.085,0.51,0.31,0.84,0.12,0.43,0.41,
4.085,0.51,0.31,0.84,0.15,0.40,0.43,
4.086,0.50,0.55,-0.80,0.15,0.40,0.43,
4.086,0.50,0.55,-0.80,0.17,0.38,0.45,
4.087,0.50,0.55,-0.80,0.20,0.35,0.47,
4.087,0.50,0.55,-0.80,0.22,0.33,0.49,
4.088,0.50,0.55,-0.80,0.24,0.31,0.50,
4.088,0.50,0.55,-0.80,0.25,0.30,0.52,
4.088,0.50,0.75,-2.34,0.25,0.30,0.52,
4.089,0.50,0.75,-2.34,0.27,0.29,0.53,
4.089,0.50,0.75,-2.34,0.27,0.28,0.55,
4.089,0.50,0.75,-2.34,0.28,0.28,0.56,
4.097,0.50,0.75,-2.34,0.28,0.27,0.57,
4.097,0.50,0.75,-2.34,0.28,0.27,0.57,
4.098,0.76,0.87,-3.72,0.28,0.27,0.57,
4.098,0.76,0.87,-3.72,0.28,0.27,0.58,
4.116,0.76,0.87,-3.72,0.28,0.27,0.58,
4.116,0.76,0.87,-3.72,0.27,0.27,0.58,
4.116,0.76,0.87,-3.72,0.26,0.28,0.57,
4.116,0.76,0.87,-3.72,0.25,0.28,0.57,
4.116,0.99,0.85,-4.87,0.25,0.28,0.57,
4.116,0.99,0.85,-4.87,0.24,0.28,0.57,
4.117,0.99,0.85,-4.87,0.23,0.28,0.56,
4.117,0.99,0.85,-4.87,0.22,0.28,0.55,
4.117,0.99,0.85,-4.87,0.21,0.28,0.55,
4.117,0.99,0.85,-4.87,0.20,0.27,0.54,
4.117,1.15,1.02,-5.70,0.20,0.27,0.54,
4.118,1.15,1.02,-5.70,0.19,0.27,0.53,
4.118,1.15,1.02,-5.70,0.18,0.26,0.52,
4.118,1.15,1.02,-5.70,0.17,0.25,0.51,
4.121,1.15,1.02,-5.70,0.16,0.24,0.50,
4.122,1.15,1.02,-5.70,0.14,0.23,0.49,
4.128,1.12,0.90,-6.31,0.14,0.23,0.49,
4.128,1.12,0.90,-6.31,0.13,0.21,0.48,
4.129,1.12,0.90,-6.31,0.12,0.20,0.46,
4.129,1.12,0.90,-6.31,0.11,0.18,0.45,
4.131,1.12,0.90,-6.31,0.10,0.17,0.44,
4.132,1.12,0.90,-6.31,0.09,0.15,0.43,
4.135,1.14,0.87,-6.70,0.09,0.15,0.43,
4.135,1.14,0.87,-6.70,0.08,0.14,0.42,
4.141,1.14,0.87,-6.70,0.06,0.08,0.37,
4.142,1.14,0.87,-6.70,0.06,0.08,0.37,
4.142,1.14,0.87,-6.70,0.06,0.08,0.37,
4.143,1.14,0.87,-6.70,0.06,0.06,0.36,
4.145,0.89,0.66,-6.86,0.06,0.06,0.36,
4.146,0.89,0.66,-6.86,0.05,0.04,0.35,
4.146,0.89,0.66,-6.86,0.04,0.02,0.34,
4.148,0.89,0.66,-6.86,0.04,-0.00,0.33,
4.15,0.89,0.66,-6.86,0.03,-0.02,0.31,
4.153,0.89,0.66,-6.86,0.02,-0.05,0.30,
4.155,0.61,0.58,-6.89,0.02,-0.05,0.30,
4.155,0.61,0.58,-6.89,0.02,-0.07,0.30,
4.156,0.61,0.58,-6.89,0.01,-0.09,0.29,
4.163,0.61,0.58,-6.89,0.01,-0.11,0.28,
4.163,0.61,0.58,-6.89,0.00,-0.13,0.28,
4.164,0.61,0.58,-6.89,-0.00,-0.14,0.28,
4.167,0.17,0.35,-6.65,-0.00,-0.14,0.28,
4.167,0.17,0.35,-6.65,-0.00,-0.15,0.28,
4.167,0.17,0.35,-6.65,-0.00,-0.16,0.27,
4.168,0.17,0.35,-6.65,-0.01,-0.17,0.27,
4.191,0.17,0.35,-6.65,-0.01,-0.17,0.27,
4.191,0.17,0.35,-6.65,-0.01,-0.17,0.27,
4.192,-0.10,0.25,-6.37,-0.01,-0.17,0.27,
4.192,-0.10,0.25,-6.37,-0.01,-0.17,0.27,
4.192,-0.10,0.25,-6.37,-0.01,-0.16,0.27,
4.192,-0.10,0.25,-6.37,-0.01,-0.15,0.27,
4.192,-0.10,0.25,-6.37,-0.01,-0.13,0.27,
4.192,-0.10,0.25,-6.37,-0.01,-0.12,0.27,
4.192,-0.31,0.06,-5.99,-0.01,-0.12,0.27,
4.193,-0.31,0.06,-5.99,-0.01,-0.10,0.27,
4.193,-0.31,0.06,-5.99,-0.01,-0.08,0.27,
4.193,-0.31,0.06,-5.99,-0.01,-0.05,0.27,
4.193,-0.31,0.06,-5.99,-0.01,-0.03,0.26,
4.193,-0.31,0.06,-5.99,-0.01,-0.01,0.26,
4.195,-0.54,0.00,-5.59,-0.01,-0.01,0.26,
4.196,-0.54,0.00,-5.59,-0.00,0.01,0.26,
4.196,-0.54,0.00,-5.59,0.01,0.03,0.26,
4.198,-0.54,0.00,-5.59,0.01,0.06,0.26,
4.201,-0.54,0.00,-5.59,0.02,0.09,0.27,
4.202,-0.54,0.00,-5.59,0.03,0.11,0.27,
4.205,-0.87,-0.14,-5.13,0.03,0.11,0.27,
4.206,-0.87,-0.14,-5.13,0.04,0.15,0.27,
4.207,-0.87,-0.14,-5.13,0.06,0.17,0.28,
4.208,-0.87,-0.14,-5.13,0.07,0.20,0.29,
4.211,-0.87,-0.14,-5.13,0.09,0.24,0.29,
4.212,-0.87,-0.14,-5.13,0.11,0.26,0.30,
4.216,-1.22,-0.25,-4.84,0.11,0.26,0.30,
4.216,-1.22,-0.25,-4.84,0.12,0.29,0.31,
4.217,-1.22,-0.25,-4.84,0.14,0.32,0.32,
4.219,-1.22,-0.25,-4.84,0.16,0.34,0.33,
4.22,-1.22,-0.25,-4.84,0.19,0.35,0.34,
4.223,-1.22,-0.25,-4.84,0.21,0.36,0.35,
4.226,-1.48,-0.43,-4.71,0.21,0.36,0.35,
4.227,-1.48,-0.43,-4.71,0.24,0.37,0.37,
4.228,-1.48,-0.43,-4.71,0.25,0.37,0.38,
4.229,-1.48,-0.43,-4.71,0.28,0.36,0.39,
4.23,-1.48,-0.43,-4.71,0.30,0.35,0.41,
4.232,-1.48,-0.43,-4.71,0.32,0.34,0.42,
4.235,-1.87,-0.57,-4.64,0.32,0.34,0.42,
4.235,-1.87,-0.57,-4.64,0.35,0.32,0.44,
4.236,-1.87,-0.57,-4.64,0.38,0.29,0.46,
4.238,-1.87,-0.57,-4.64,0.40,0.27,0.48,
4.241,-1.87,-0.57,-4.64,0.43,0.24,0.50,
4.245,-1.87,-0.57,-4.64,0.46,0.21,0.52,
4.246,-2.11,-0.76,-4.49,0.46,0.21,0.52,
4.246,-2.11,-0.76,-4.49,0.49,0.17,0.54,
4.247,-2.11,-0.76,-4.49,0.52,0.14,0.57,
4.249,-2.11,-0.76,-4.49,0.54,0.10,0.59,
4.25,-2.11,-0.76,-4.49,0.57,0.06,0.62,
4.252,-2.11,-0.76,-4.49,0.60,0.02,0.65,
4.255,-2.44,-0.95,-4.44,0.60,0.02,0.65,
4.255,-2.44,-0.95,-4.44,0.62,-0.03,0.67,
4.257,-2.44,-0.95,-4.44,0.64,-0.07,0.70,
4.259,-2.44,-0.95,-4.44,0.66,-0.12,0.73,
4.262,-2.44,-0.95,-4.44,0.68,-0.17,0.75,
4.262,-2.44,-0.95,-4.44,0.69,-0.23,0.78,
4.279,-2.38,-1.19,-4.37,0.69,-0.23,0.78,
4.28,-2.38,-1.19,-4.37,0.70,-0.27,0.81,
4.28,-2.38,-1.19,-4.37,0.72,-0.32,0.84,
4.28,-2.38,-1.19,-4.37,0.73,-0.36,0.87,
4.28,-2.38,-1.19,-4.37,0.74,-0.40,0.90,
4.28,-2.38,-1.19,-4.37,0.75,-0.43,0.93,
4.281,-2.64,-1.38,-4.09,0.75,-0.43,0.93,
4.281,-2.64,-1.38,-4.09,0.76,-0.47,0.97,
4.281,-2.64,-1.38,-4.09,0.77,-0.50,1.00,
4.281,-2.64,-1.38,-4.09,0.79,-0.53,1.04,
4.281,-2.64,-1.38,-4.09,0.80,-0.55,1.07,
4.286,-2.64,-1.38,-4.09,0.81,-0.57,1.11,
4.287,-2.65,-1.50,-3.57,0.81,-0.57,1.11,
4.287,-2.65,-1.50,-3.57,0.82,-0.59,1.14,
4.287,-2.65,-1.50,-3.57,0.84,-0.61,1.18,
4.288,-2.65,-1.50,-3.57,0.85,-0.62,1.21,
4.292,-2.65,-1.50,-3.57,0.87,-0.63,1.24,
4.292,-2.65,-1.50,-3.57,0.88,-0.64,1.28,
4.295,-2.60,-1.60,-2.91,0.88,-0.64,1.28,
4.296,-2.60,-1.60,-2.91,0.90,-0.64,1.31,
4.297,-2.60,-1.60,-2.91,0.92,-0.64,1.34,
4.298,-2.60,-1.60,-2.91,0.93,-0.63,1.36,
4.3,-2.60,-1.60,-2.91,0.95,-0.62,1.39,
4.302,-2.60,-1.60,-2.91,0.97,-0.61,1.42,
4.317,-2.25,-1.63,-2.21,0.97,-0.61,1.42,
4.317,-2.25,-1.63,-2.21,0.99,-0.60,1.44,
4.317,-2.25,-1.63,-2.21,1.01,-0.59,1.47,
4.317,-2.25,-1.63,-2.21,1.03,-0.58,1.49,
4.318,-2.25,-1.63,-2.21,1.05,-0.58,1.51,
4.318,-2.25,-1.63,-2.21,1.07,-0.57,1.54,
4.318,-1.88,-1.61,-1.60,1.07,-0.57,1.54,
4.318,-1.88,-1.61,-1.60,1.08,-0.57,1.56,
4.318,-1.88,-1.61,-1.60,1.10,-0.58,1.57,
4.319,-1.88,-1.61,-1.60,1.11,-0.60,1.59,
4.321,-1.88,-1.61,-1.60,1.11,-0.61,1.60,
4.323,-1.88,-1.61,-1.60,1.11,-0.63,1.61,
4.341,-1.19,-1.46,-1.15,1.11,-0.63,1.61,
4.341,-1.19,-1.46,-1.15,1.12,-0.64,1.61,
4.341,-1.19,-1.46,-1.15,1.11,-0.66,1.62,
4.341,-1.19,-1.46,-1.15,1.11,-0.67,1.63,
4.342,-1.19,-1.46,-1.15,1.10,-0.67,1.63,
4.342,-1.19,-1.46,-1.15,1.09,-0.67,1.63,
4.342,-0.78,-1.40,-0.78,1.09,-0.67,1.63,
4.342,-0.78,-1.40,-0.78,1.07,-0.66,1.64,
4.342,-0.78,-1.40,-0.78,1.06,-0.65,1.64,
4.342,-0.78,-1.40,-0.78,1.04,-0.63,1.64,
4.342,-0.78,-1.40,-0.78,1.02,-0.61,1.65,
4.343,-0.78,-1.40,-0.78,0.99,-0.59,1.66,
4.345,-0.58,-1.34,-0.13,0.99,-0.59,1.66,
4.345,-0.58,-1.34,-0.13,0.96,-0.57,1.67,
4.346,-0.58,-1.34,-0.13,0.93,-0.54,1.68,
4.348,-0.58,-1.34,-0.13,0.90,-0.52,1.69,
4.35,-0.58,-1.34,-0.13,0.85,-0.49,1.70,
4.352,-0.58,-1.34,-0.13,0.80,-0.46,1.71,
4.355,-0.46,-1.02,0.54,0.80,-0.46,1.71,
4.355,-0.46,-1.02,0.54,0.75,-0.43,1.71,
4.356,-0.46,-1.02,0.54,0.69,-0.40,1.72,
4.358,-0.46,-1.02,0.54,0.63,-0.37,1.73,
4.36,-0.46,-1.02,0.54,0.56,-0.36,1.73,
4.362,-0.46,-1.02,0.54,0.49,-0.34,1.72,
4.364,0.20,-0.98,1.35,0.49,-0.34,1.72,
4.364,0.20,-0.98,1.35,0.42,-0.34,1.71,
4.366,0.20,-0.98,1.35,0.35,-0.33,1.70,
4.368,0.20,-0.98,1.35,0.28,-0.33,1.68,
4.37,0.20,-0.98,1.35,0.21,-0.34,1.65,
4.372,0.20,-0.98,1.35,0.14,-0.35,1.62,
4.375,1.40,-0.98,2.54,0.14,-0.35,1.62,
4.375,1.40,-0.98,2.54,0.08,-0.37,1.58,
4.378,1.40,-0.98,2.54,0.02,-0.41,1.54,
4.378,1.40,-0.98,2.54,-0.04,-0.46,1.49,
4.38,1.40,-0.98,2.54,-0.09,-0.52,1.44,
4.382,1.40,-0.98,2.54,-0.14,-0.59,1.39,
4.384,2.72,-0.92,4.05,-0.14,-0.59,1.39,
4.384,2.72,-0.92,4.05,-0.19,-0.67,1.33,
4.386,2.72,-0.92,4.05,-0.23,-0.77,1.27,
4.388,2.72,-0.92,4.05,-0.27,-0.87,1.21,
4.39,2.72,-0.92,4.05,-0.31,-0.98,1.14,
4.393,2.72,-0.92,4.05,-0.34,-1.09,1.07,
4.394,3.81,-0.78,5.82,-0.34,-1.09,1.07,
4.394,3.81,-0.78,5.82,-0.37,-1.20,1.00,
4.396,3.81,-0.78,5.82,-0.40,-1.31,0.92,
4.398,3.81,-0.78,5.82,-0.42,-1.42,0.85,
4.4,3.81,-0.78,5.82,-0.44,-1.52,0.77,
4.402,3.81,-0.78,5.82,-0.45,-1.60,0.70,
4.405,4.28,-0.71,7.86,-0.45,-1.60,0.70,
4.405,4.28,-0.71,7.86,-0.45,-1.68,0.63,
4.406,4.28,-0.71,7.86,-0.46,-1.75,0.55,
4.409,4.28,-0.71,7.86,-0.46,-1.79,0.48,
4.411,4.28,-0.71,7.86,-0.46,-1.82,0.42,
4.412,4.28,-0.71,7.86,-0.46,-1.84,0.35,
4.415,4.25,-1.02,9.51,-0.46,-1.84,0.35,
4.415,4.25,-1.02,9.51,-0.45,-1.83,0.29,
4.416,4.25,-1.02,9.51,-0.45,-1.82,0.24,
4.418,4.25,-1.02,9.51,-0.45,-1.80,0.18,
4.42,4.25,-1.02,9.51,-0.45,-1.76,0.13,
4.422,4.25,-1.02,9.51,-0.45,-1.71,0.09,
4.433,3.83,-1.48,10.42,-0.45,-1.71,0.09,
4.434,3.83,-1.48,10.42,-0.46,-1.66,0.05,
4.434,3.83,-1.48,10.42,-0.46,-1.59,0.01,
4.434,3.83,-1.48,10.42,-0.47,-1.50,-0.03,
4.444,3.83,-1.48,10.42,-0.47,-1.41,-0.06,
4.444,3.83,-1.48,10.42,-0.48,-1.30,-0.09,
4.444,3.18,-1.82,10.72,-0.48,-1.30,-0.09,
4.444,3.18,-1.82,10.72,-0.49,-1.19,-0.11,
4.444,3.18,-1.82,10.72,-0.50,-1.06,-0.14,
4.444,3.18,-1.82,10.72,-0.52,-0.94,-0.16,
4.445,3.18,-1.82,10.72,-0.53,-0.81,-0.18,
4.445,3.18,-1.82,10.72,-0.54,-0.67,-0.20,
4.445,2.66,-1.95,10.44,-0.54,-0.67,-0.20,
4.445,2.66,-1.95,10.44,-0.55,-0.54,-0.22,
4.454,2.66,-1.95,10.44,-0.57,-0.42,-0.24,
4.454,2.66,-1.95,10.44,-0.58,-0.29,-0.26,
4.454,2.66,-1.95,10.44,-0.60,-0.17,-0.28,
4.454,2.66,-1.95,10.44,-0.61,-0.05,-0.30,
4.455,2.25,-1.95,9.85,-0.61,-0.05,-0.30,
4.455,2.25,-1.95,9.85,-0.61,0.07,-0.32,
4.457,2.25,-1.95,9.85,-0.62,0.18,-0.34,
4.458,2.25,-1.95,9.85,-0.62,0.29,-0.36,
4.46,2.25,-1.95,9.85,-0.63,0.39,-0.38,
4.462,2.25,-1.95,9.85,-0.63,0.49,-0.41,
4.464,2.03,-1.65,9.08,-0.63,0.49,-0.41,
4.464,2.03,-1.65,9.08,-0.62,0.57,-0.43,
4.466,2.03,-1.65,9.08,-0.62,0.66,-0.46,
4.468,2.03,-1.65,9.08,-0.61,0.73,-0.49,
4.47,2.03,-1.65,9.08,-0.60,0.80,-0.52,
4.474,2.03,-1.65,9.08,-0.58,0.85,-0.54,
4.475,1.83,-1.52,8.14,-0.58,0.85,-0.54,
4.476,1.83,-1.52,8.14,-0.57,0.90,-0.57,
4.476,1.83,-1.52,8.14,-0.55,0.95,-0.60,
4.478,1.83,-1.52,8.14,-0.53,1.00,-0.62,
4.481,1.83,-1.52,8.14,-0.50,1.03,-0.65,
4.482,1.83,-1.52,8.14,-0.48,1.06,-0.67,
4.484,1.38,-1.33,6.97,-0.48,1.06,-0.67,
4.484,1.38,-1.33,6.97,-0.45,1.09,-0.69,
4.486,1.38,-1.33,6.97,-0.43,1.12,-0.71,
4.488,1.38,-1.33,6.97,-0.40,1.14,-0.72,
4.49,1.38,-1.33,6.97,-0.37,1.15,-0.74,
4.492,1.38,-1.33,6.97,-0.34,1.17,-0.75,
4.494,0.68,-1.35,5.63,-0.34,1.17,-0.75,
4.495,0.68,-1.35,5.63,-0.31,1.18,-0.75,
4.496,0.68,-1.35,5.63,-0.27,1.19,-0.76,
4.498,0.68,-1.35,5.63,-0.24,1.19,-0.76,
4.5,0.68,-1.35,5.63,-0.20,1.20,-0.76,
4.502,0.68,-1.35,5.63,-0.17,1.20,-0.76,
4.504,-0.01,-1.31,4.15,-0.17,1.20,-0.76,
4.504,-0.01,-1.31,4.15,-0.14,1.20,-0.75,
4.506,-0.01,-1.31,4.15,-0.10,1.20,-0.74,
4.508,-0.01,-1.31,4.15,-0.07,1.19,-0.73,
4.51,-0.01,-1.31,4.15,-0.04,1.19,-0.72,
4.512,-0.01,-1.31,4.15,-0.00,1.18,-0.71,
4.515,-0.60,-1.31,2.63,-0.00,1.18,-0.71,
4.515,-0.60,-1.31,2.63,0.03,1.17,-0.70,
4.518,-0.60,-1.31,2.63,0.06,1.15,-0.68,
4.518,-0.60,-1.31,2.63,0.09,1.14,-0.67,
4.522,-0.60,-1.31,2.63,0.12,1.13,-0.65,
4.522,-0.60,-1.31,2.63,0.16,1.11,-0.63,
4.527,-1.00,-1.23,1.15,0.16,1.11,-0.63,
4.528,-1.00,-1.23,1.15,0.18,1.09,-0.61,
4.528,-1.00,-1.23,1.15,0.21,1.08,-0.59,
4.531,-1.00,-1.23,1.15,0.24,1.06,-0.56,
4.531,-1.00,-1.23,1.15,0.27,1.04,-0.54,
4.534,-1.00,-1.23,1.15,0.29,1.02,-0.52,
4.534,-1.29,-1.14,-0.24,0.29,1.02,-0.52,
4.534,-1.29,-1.14,-0.24,0.32,1.00,-0.49,
4.538,-1.29,-1.14,-0.24,0.34,0.98,-0.46,
4.538,-1.29,-1.14,-0.24,0.37,0.96,-0.44,
4.541,-1.29,-1.14,-0.24,0.39,0.93,-0.41,
4.544,-1.29,-1.14,-0.24,0.41,0.90,-0.39,
4.544,-1.35,-1.03,-1.52,0.41,0.90,-0.39,
4.544,-1.35,-1.03,-1.52,0.43,0.87,-0.36,
4.548,-1.35,-1.03,-1.52,0.44,0.84,-0.34,
4.548,-1.35,-1.03,-1.52,0.46,0.81,-0.32,
4.55,-1.35,-1.03,-1.52,0.47,0.77,-0.30,
4.552,-1.35,-1.03,-1.52,0.49,0.73,-0.28,
4.555,-1.27,-0.91,-2.67,0.49,0.73,-0.28,
4.555,-1.27,-0.91,-2.67,0.50,0.68,-0.26,
4.559,-1.27,-0.91,-2.67,0.51,0.64,-0.24,
4.56,-1.27,-0.91,-2.67,0.52,0.58,-0.22,
4.563,-1.27,-0.91,-2.67,0.53,0.53,-0.21,
4.563,-1.27,-0.91,-2.67,0.53,0.47,-0.19,
4.564,-1.10,-0.74,-3.48,0.53,0.47,-0.19,
4.565,-1.10,-0.74,-3.48,0.54,0.42,-0.18,
4.566,-1.10,-0.74,-3.48,0.55,0.36,-0.17,
4.568,-1.10,-0.74,-3.48,0.56,0.30,-0.15,
4.57,-1.10,-0.74,-3.48,0.57,0.24,-0.14,
4.572,-1.10,-0.74,-3.48,0.57,0.18,-0.13,
4.575,-0.90,-0.60,-3.91,0.57,0.18,-0.13,
4.575,-0.90,-0.60,-3.91,0.58,0.10,-0.12,
4.576,-0.90,-0.60,-3.91,0.58,0.07,-0.12,
4.578,-0.90,-0.60,-3.91,0.59,0.01,-0.11,
4.58,-0.90,-0.60,-3.91,0.59,-0.04,-0.11,
4.582,-0.90,-0.60,-3.91,0.60,-0.10,-0.10,
4.584,-0.67,-0.58,-4.02,0.60,-0.10,-0.10,
4.585,-0.67,-0.58,-4.02,0.61,-0.16,-0.10,
4.586,-0.67,-0.58,-4.02,0.61,-0.21,-0.10,
4.588,-0.67,-0.58,-4.02,0.62,-0.25,-0.09,
4.604,-0.67,-0.58,-4.02,0.63,-0.30,-0.09,
4.606,-0.67,-0.58,-4.02,0.63,-0.34,-0.09,
4.606,-0.41,-0.63,-3.90,0.63,-0.34,-0.09,
4.607,-0.41,-0.63,-3.90,0.65,-0.37,-0.09,
4.623,-0.41,-0.63,-3.90,0.66,-0.40,-0.09,
4.624,-0.41,-0.63,-3.90,0.67,-0.43,-0.10,
4.624,-0.41,-0.63,-3.90,0.69,-0.46,-0.10,
4.624,-0.41,-0.63,-3.90,0.70,-0.47,-0.10,
4.624,-0.19,-0.73,-3.59,0.70,-0.47,-0.10,
4.624,-0.19,-0.73,-3.59,0.71,-0.49,-0.11,
4.624,-0.19,-0.73,-3.59,0.73,-0.50,-0.11,
4.624,-0.19,-0.73,-3.59,0.74,-0.51,-0.11,
4.625,-0.19,-0.73,-3.59,0.76,-0.51,-0.12,
4.625,-0.19,-0.73,-3.59,0.77,-0.51,-0.13,
4.625,0.02,-0.92,-3.35,0.77,-0.51,-0.13,
4.625,0.02,-0.92,-3.35,0.79,-0.51,-0.13,
4.627,0.02,-0.92,-3.35,0.80,-0.51,-0.14,
4.628,0.02,-0.92,-3.35,0.81,-0.51,-0.15,
4.628,0.02,-0.92,-3.35,0.83,-0.50,-0.16,
4.628,0.02,-0.92,-3.35,0.84,-0.49,-0.17,
4.628,0.16,-0.99,-3.17,0.84,-0.49,-0.17,
4.628,0.16,-0.99,-3.17,0.85,-0.48,-0.18,
4.628,0.16,-0.99,-3.17,0.85,-0.46,-0.19,
4.629,0.16,-0.99,-3.17,0.86,-0.45,-0.19,
4.631,0.16,-0.99,-3.17,0.86,-0.43,-0.20,
4.632,0.16,-0.99,-3.17,0.86,-0.42,-0.21,
4.635,0.14,-1.04,-3.31,0.86,-0.42,-0.21,
4.635,0.14,-1.04,-3.31,0.86,-0.41,-0.22,
4.636,0.14,-1.04,-3.31,0.85,-0.40,-0.23,
4.638,0.14,-1.04,-3.31,0.84,-0.39,-0.24,
4.64,0.14,-1.04,-3.31,0.83,-0.38,-0.24,
4.643,0.14,-1.04,-3.31,0.82,-0.38,-0.25,
4.647,0.06,-1.08,-3.55,0.82,-0.38,-0.25,
4.647,0.06,-1.08,-3.55,0.81,-0.38,-0.26,
4.647,0.06,-1.08,-3.55,0.79,-0.37,-0.27,
4.65,0.06,-1.08,-3.55,0.78,-0.38,-0.29,
4.65,0.06,-1.08,-3.55,0.76,-0.38,-0.30,
4.654,0.06,-1.08,-3.55,0.74,-0.38,-0.31,
4.656,0.07,-0.96,-3.66,0.74,-0.38,-0.31,
4.657,0.07,-0.96,-3.66,0.73,-0.39,-0.33,
4.658,0.07,-0.96,-3.66,0.71,-0.39,-0.34,
4.659,0.07,-0.96,-3.66,0.69,-0.40,-0.36,
4.66,0.07,-0.96,-3.66,0.67,-0.40,-0.37,
4.664,0.07,-0.96,-3.66,0.65,-0.41,-0.38,
4.666,0.08,-0.83,-3.64,0.65,-0.41,-0.38,
4.666,0.08,-0.83,-3.64,0.63,-0.42,-0.40,
4.667,0.08,-0.83,-3.64,0.61,-0.43,-0.42,
4.668,0.08,-0.83,-3.64,0.60,-0.44,-0.43,
4.67,0.08,-0.83,-3.64,0.58,-0.45,-0.44,
4.673,0.08,-0.83,-3.64,0.57,-0.46,-0.46,
4.675,0.30,-0.70,-3.40,0.57,-0.46,-0.46,
4.675,0.30,-0.70,-3.40,0.55,-0.47,-0.48,
4.676,0.30,-0.70,-3.40,0.54,-0.47,-0.49,
4.678,0.30,-0.70,-3.40,0.53,-0.48,-0.51,
4.68,0.30,-0.70,-3.40,0.52,-0.48,-0.52,
4.682,0.30,-0.70,-3.40,0.51,-0.48,-0.53,
4.684,0.36,-0.52,-3.09,0.51,-0.48,-0.53,
4.685,0.36,-0.52,-3.09,0.50,-0.48,-0.55,
4.686,0.36,-0.52,-3.09,0.49,-0.49,-0.56,
4.688,0.36,-0.52,-3.09,0.48,-0.49,-0.57,
4.69,0.36,-0.52,-3.09,0.48,-0.50,-0.58,
4.692,0.36,-0.52,-3.09,0.47,-0.51,-0.58,
4.698,0.54,-0.34,-2.93,0.47,-0.51,-0.58,
4.698,0.54,-0.34,-2.93,0.46,-0.52,-0.59,
4.699,0.54,-0.34,-2.93,0.45,-0.53,-0.60,
4.699,0.54,-0.34,-2.93,0.44,-0.54,-0.61,
4.7,0.54,-0.34,-2.93,0.42,-0.56,-0.62,
4.702,0.54,-0.34,-2.93,0.41,-0.58,-0.63,
4.705,0.91,-0.10,-2.92,0.41,-0.58,-0.63,
4.705,0.91,-0.10,-2.92,0.40,-0.60,-0.65,
4.712,0.91,-0.10,-2.92,0.38,-0.63,-0.67,
4.712,0.91,-0.10,-2.92,0.37,-0.66,-0.69,
4.712,0.91,-0.10,-2.92,0.36,-0.69,-0.71,
4.713,0.91,-0.10,-2.92,0.34,-0.73,-0.74,
4.714,1.81,0.31,-2.83,0.34,-0.73,-0.74,
4.715,1.81,0.31,-2.83,0.33,-0.77,-0.77,
4.72,1.81,0.31,-2.83,0.31,-0.81,-0.81,
4.72,1.81,0.31,-2.83,0.30,-0.85,-0.85,
4.72,1.81,0.31,-2.83,0.29,-0.89,-0.89,
4.732,1.81,0.31,-2.83,0.27,-0.93,-0.94,
4.733,2.83,0.62,-2.47,0.27,-0.93,-0.94,
4.733,2.83,0.62,-2.47,0.26,-0.97,-0.99,
4.733,2.83,0.62,-2.47,0.24,-1.01,-1.05,
4.733,2.83,0.62,-2.47,0.23,-1.04,-1.10,
4.733,2.83,0.62,-2.47,0.21,-1.08,-1.16,
4.733,2.83,0.62,-2.47,0.19,-1.11,-1.23,
4.736,3.95,0.95,-2.18,0.19,-1.11,-1.23,
4.736,3.95,0.95,-2.18,0.17,-1.13,-1.30,
4.736,3.95,0.95,-2.18,0.14,-1.16,-1.36,
4.74,3.95,0.95,-2.18,0.11,-1.18,-1.44,
4.74,3.95,0.95,-2.18,0.07,-1.20,-1.51,
4.744,3.95,0.95,-2.18,0.03,-1.22,-1.59,
4.746,4.80,1.09,-1.97,0.03,-1.22,-1.59,
4.746,4.80,1.09,-1.97,-0.02,-1.24,-1.68,
4.746,4.80,1.09,-1.97,-0.07,-1.25,-1.76,
4.75,4.80,1.09,-1.97,-0.12,-1.26,-1.86,
4.75,4.80,1.09,-1.97,-0.18,-1.27,-1.95,
4.754,4.80,1.09,-1.97,-0.24,-1.28,-2.04,
4.756,5.93,1.19,-1.49,-0.24,-1.28,-2.04,
4.756,5.93,1.19,-1.49,-0.31,-1.28,-2.14,
4.756,5.93,1.19,-1.49,-0.38,-1.29,-2.24,
4.759,5.93,1.19,-1.49,-0.46,-1.29,-2.35,
4.76,5.93,1.19,-1.49,-0.54,-1.30,-2.45,
4.764,5.93,1.19,-1.49,-0.62,-1.32,-2.57,
4.774,6.69,1.19,-0.40,-0.62,-1.32,-2.57,
4.775,6.69,1.19,-0.40,-0.71,-1.33,-2.68,
4.775,6.69,1.19,-0.40,-0.80,-1.35,-2.79,
4.775,6.69,1.19,-0.40,-0.89,-1.36,-2.91,
4.775,6.69,1.19,-0.40,-0.98,-1.38,-3.02,
4.775,6.69,1.19,-0.40,-1.08,-1.39,-3.13,
4.775,7.17,0.80,1.31,-1.08,-1.39,-3.13,
4.775,7.17,0.80,1.31,-1.17,-1.39,-3.24,
4.779,7.17,0.80,1.31,-1.27,-1.39,-3.34,
4.779,7.17,0.80,1.31,-1.36,-1.37,-3.44,
4.782,7.17,0.80,1.31,-1.45,-1.34,-3.54,
4.782,7.17,0.80,1.31,-1.53,-1.30,-3.62,
4.786,6.62,-0.24,3.61,-1.53,-1.30,-3.62,
4.786,6.62,-0.24,3.61,-1.62,-1.25,-3.70,
4.788,6.62,-0.24,3.61,-1.70,-1.18,-3.77,
4.788,6.62,-0.24,3.61,-1.77,-1.10,-3.84,
4.791,6.62,-0.24,3.61,-1.85,-1.01,-3.89,
4.794,6.62,-0.24,3.61,-1.91,-0.90,-3.94,
4.796,5.17,-1.71,5.96,-1.91,-0.90,-3.94,
4.797,5.17,-1.71,5.96,-1.98,-0.79,-3.98,
4.797,5.17,-1.71,5.96,-2.04,-0.67,-4.01,
4.8,5.17,-1.71,5.96,-2.10,-0.55,-4.03,
4.8,5.17,-1.71,5.96,-2.15,-0.42,-4.04,
4.804,5.17,-1.71,5.96,-2.20,-0.29,-4.04,
4.804,3.15,-2.85,7.95,-2.20,-0.29,-4.04,
4.804,3.15,-2.85,7.95,-2.24,-0.15,-4.04,
4.807,3.15,-2.85,7.95,-2.28,-0.02,-4.03,
4.81,3.15,-2.85,7.95,-2.32,0.11,-4.00,
4.81,3.15,-2.85,7.95,-2.35,0.24,-3.98,
4.814,3.15,-2.85,7.95,-2.38,0.37,-3.94,
4.816,1.13,-3.76,9.63,-2.38,0.37,-3.94,
4.817,1.13,-3.76,9.63,-2.40,0.50,-3.90,
4.817,1.13,-3.76,9.63,-2.41,0.63,-3.86,
4.82,1.13,-3.76,9.63,-2.41,0.76,-3.80,
4.82,1.13,-3.76,9.63,-2.41,0.89,-3.75,
4.824,1.13,-3.76,9.63,-2.40,1.02,-3.69,
4.827,-0.66,-4.15,11.15,-2.40,1.02,-3.69,
4.828,-0.66,-4.15,11.15,-2.38,1.14,-3.62,
4.828,-0.66,-4.15,11.15,-2.35,1.26,-3.55,
4.829,-0.66,-4.15,11.15,-2.30,1.38,-3.47,
4.83,-0.66,-4.15,11.15,-2.25,1.49,-3.39,
4.834,-0.66,-4.15,11.15,-2.19,1.59,-3.31,
4.834,-2.23,-4.32,12.40,-2.19,1.59,-3.31,
4.835,-2.23,-4.32,12.40,-2.12,1.68,-3.22,
4.836,-2.23,-4.32,12.40,-2.04,1.76,-3.13,
4.838,-2.23,-4.32,12.40,-1.95,1.84,-3.03,
4.84,-2.23,-4.32,12.40,-1.86,1.90,-2.94,
4.842,-2.23,-4.32,12.40,-1.75,1.96,-2.84,
4.845,-3.25,-3.99,12.90,-1.75,1.96,-2.84,
4.845,-3.25,-3.99,12.90,-1.65,2.01,-2.75,
4.846,-3.25,-3.99,12.90,-1.53,2.06,-2.65,
4.848,-3.25,-3.99,12.90,-1.41,2.10,-2.55,
4.85,-3.25,-3.99,12.90,-1.29,2.13,-2.45,
4.852,-3.25,-3.99,12.90,-1.17,2.16,-2.35,
4.855,-3.93,-3.51,12.16,-1.17,2.16,-2.35,
4.855,-3.93,-3.51,12.16,-1.04,2.17,-2.26,
4.869,-3.93,-3.51,12.16,-0.92,2.18,-2.16,
4.87,-3.93,-3.51,12.16,-0.80,2.17,-2.06,
4.87,-3.93,-3.51,12.16,-0.69,2.16,-1.96,
4.87,-3.93,-3.51,12.16,-0.57,2.13,-1.87,
4.871,-4.19,-2.85,10.22,-0.57,2.13,-1.87,
4.871,-4.19,-2.85,10.22,-0.46,2.10,-1.77,
4.871,-4.19,-2.85,10.22,-0.35,2.06,-1.68,
4.871,-4.19,-2.85,10.22,-0.24,2.01,-1.59,
4.872,-4.19,-2.85,10.22,-0.14,1.96,-1.49,
4.872,-4.19,-2.85,10.22,-0.05,1.90,-1.40,
4.893,-4.44,-2.18,7.62,-0.05,1.90,-1.40,
4.894,-4.44,-2.18,7.62,0.05,1.83,-1.31,
4.894,-4.44,-2.18,7.62,0.13,1.76,-1.22,
4.894,-4.44,-2.18,7.62,0.22,1.68,-1.13,
4.895,-4.44,-2.18,7.62,0.29,1.59,-1.04,
4.895,-4.44,-2.18,7.62,0.37,1.50,-0.96,
4.895,-4.37,-1.54,4.88,0.37,1.50,-0.96,
4.895,-4.37,-1.54,4.88,0.43,1.41,-0.87,
4.896,-4.37,-1.54,4.88,0.49,1.31,-0.79,
4.896,-4.37,-1.54,4.88,0.55,1.21,-0.71,
4.896,-4.37,-1.54,4.88,0.60,1.10,-0.64,
4.897,-4.37,-1.54,4.88,0.64,0.99,-0.57,
4.897,-4.19,-1.00,2.29,0.64,0.99,-0.57,
4.897,-4.19,-1.00,2.29,0.68,0.88,-0.49,
4.897,-4.19,-1.00,2.29,0.72,0.77,-0.43,
4.898,-4.19,-1.00,2.29,0.75,0.67,-0.36,
4.903,-4.19,-1.00,2.29,0.77,0.56,-0.29,
4.903,-4.19,-1.00,2.29,0.80,0.46,-0.22,
4.908,-3.83,-0.60,0.12,0.80,0.46,-0.22,
4.909,-3.83,-0.60,0.12,0.82,0.36,-0.16,
4.91,-3.83,-0.60,0.12,0.83,0.27,-0.10,
4.91,-3.83,-0.60,0.12,0.83,0.18,-0.03,
4.911,-3.83,-0.60,0.12,0.84,0.10,0.03,
4.916,-3.83,-0.60,0.12,0.84,0.02,0.09,
4.917,-3.56,-0.44,-1.59,0.84,0.02,0.09,
4.917,-3.56,-0.44,-1.59,0.83,-0.05,0.15,
4.917,-3.56,-0.44,-1.59,0.83,-0.11,0.20,
4.919,-3.56,-0.44,-1.59,0.82,-0.17,0.26,
4.921,-3.56,-0.44,-1.59,0.81,-0.22,0.31,
4.926,-3.56,-0.44,-1.59,0.80,-0.27,0.35,
4.928,-2.87,-0.49,-2.68,0.80,-0.27,0.35,
4.929,-2.87,-0.49,-2.68,0.78,-0.32,0.42,
4.929,-2.87,-0.49,-2.68,0.77,-0.33,0.44,
4.929,-2.87,-0.49,-2.68,0.76,-0.36,0.48,
4.956,-2.87,-0.49,-2.68,0.75,-0.37,0.52,
4.957,-2.87,-0.49,-2.68,0.74,-0.38,0.56,
4.957,-2.26,-0.55,-3.22,0.74,-0.38,0.56,
4.957,-2.26,-0.55,-3.22,0.73,-0.38,0.59,
4.958,-2.26,-0.55,-3.22,0.72,-0.37,0.63,
4.958,-2.26,-0.55,-3.22,0.71,-0.36,0.66,
4.959,-2.26,-0.55,-3.22,0.69,-0.35,0.70,
4.959,-2.26,-0.55,-3.22,0.68,-0.33,0.73,
4.96,-1.72,-0.62,-3.67,0.68,-0.33,0.73,
4.96,-1.72,-0.62,-3.67,0.67,-0.30,0.76,
4.96,-1.72,-0.62,-3.67,0.65,-0.28,0.78,
4.961,-1.72,-0.62,-3.67,0.63,-0.25,0.81,
4.961,-1.72,-0.62,-3.67,0.61,-0.22,0.83,
4.962,-1.72,-0.62,-3.67,0.59,-0.18,0.85,
4.962,-1.38,-0.65,-4.27,0.59,-0.18,0.85,
4.962,-1.38,-0.65,-4.27,0.57,-0.15,0.87,
4.963,-1.38,-0.65,-4.27,0.55,-0.12,0.89,
4.963,-1.38,-0.65,-4.27,0.53,-0.09,0.91,
4.964,-1.38,-0.65,-4.27,0.51,-0.06,0.93,
4.964,-1.38,-0.65,-4.27,0.49,-0.03,0.94,
4.964,-1.06,-0.71,-4.82,0.49,-0.03,0.94,
4.965,-1.06,-0.71,-4.82,0.47,0.00,0.96,
4.974,-1.06,-0.71,-4.82,0.45,0.03,0.98,
