
time,ax,ay,az,wx,wy,wz,
0.002,-0.21,-0.27,-0.04,0.30,-0.74,-0.99,
0.002,-0.21,-0.27,-0.04,0.29,-0.75,-0.99,
0.002,-0.21,-0.27,-0.04,0.28,-0.77,-1.00,
0.003,-0.21,-0.27,-0.04,0.27,-0.80,-1.00,
0.003,-0.21,-0.27,-0.04,0.26,-0.81,-1.00,
0.003,-0.21,-0.27,-0.04,0.24,-0.83,-1.01,
0.005,-0.37,-0.39,-0.20,0.24,-0.83,-1.01,
0.005,-0.37,-0.39,-0.20,0.23,-0.85,-1.01,
0.005,-0.37,-0.39,-0.20,0.21,-0.86,-1.01,
0.008,-0.37,-0.39,-0.20,0.18,-0.88,-1.02,
0.009,-0.37,-0.39,-0.20,0.17,-0.88,-1.02,
0.011,-0.37,-0.39,-0.20,0.14,-0.89,-1.03,
0.013,-0.25,-0.51,-0.23,0.14,-0.89,-1.03,
0.014,-0.25,-0.51,-0.23,0.12,-0.89,-1.03,
0.015,-0.25,-0.51,-0.23,0.09,-0.89,-1.04,
0.018,-0.25,-0.51,-0.23,0.04,-0.88,-1.05,
0.019,-0.25,-0.51,-0.23,0.03,-0.88,-1.05,
0.021,-0.25,-0.51,-0.23,-0.01,-0.88,-1.05,
0.024,-0.09,-0.50,-0.33,-0.01,-0.88,-1.05,
0.024,-0.09,-0.50,-0.33,-0.04,-0.87,-1.05,
0.025,-0.09,-0.50,-0.33,-0.07,-0.87,-1.05,
0.028,-0.09,-0.50,-0.33,-0.12,-0.89,-1.06,
0.029,-0.09,-0.50,-0.33,-0.14,-0.89,-1.05,
0.031,-0.09,-0.50,-0.33,-0.16,-0.91,-1.05,
0.033,-0.05,-0.51,-0.18,-0.16,-0.91,-1.05,
0.033,-0.05,-0.51,-0.18,-0.19,-0.93,-1.05,
0.035,-0.05,-0.51,-0.18,-0.21,-0.95,-1.05,
0.054,-0.05,-0.51,-0.18,-0.24,-0.98,-1.04,
0.055,-0.05,-0.51,-0.18,-0.25,-0.99,-1.04,
0.055,-0.05,-0.51,-0.18,-0.27,-1.02,-1.03,
0.055,0.05,-0.54,0.13,-0.27,-1.02,-1.03,
0.055,0.05,-0.54,0.13,-0.28,-1.04,-1.03,
0.055,0.05,-0.54,0.13,-0.30,-1.06,-1.03,
0.056,0.05,-0.54,0.13,-0.31,-1.08,-1.03,
0.056,0.05,-0.54,0.13,-0.32,-1.09,-1.03,
0.056,0.05,-0.54,0.13,-0.33,-1.09,-1.03,
0.056,0.22,-0.70,0.17,-0.33,-1.09,-1.03,
0.056,0.22,-0.70,0.17,-0.34,-1.09,-1.04,
0.057,0.22,-0.70,0.17,-0.35,-1.08,-1.05,
0.06,0.22,-0.70,0.17,-0.37,-1.05,-1.06,
0.06,0.22,-0.70,0.17,-0.38,-1.04,-1.06,
0.062,0.22,-0.70,0.17,-0.40,-1.00,-1.07,
0.064,0.50,-0.74,-0.15,-0.40,-1.00,-1.07,
0.064,0.50,-0.74,-0.15,-0.41,-0.97,-1.08,
0.067,0.50,-0.74,-0.15,-0.43,-0.93,-1.09,
0.091,0.50,-0.74,-0.15,-0.46,-0.88,-1.09,
0.092,0.50,-0.74,-0.15,-0.47,-0.87,-1.09,
0.092,0.50,-0.74,-0.15,-0.48,-0.85,-1.08,
0.092,0.60,-0.74,-0.31,-0.48,-0.85,-1.08,
0.092,0.60,-0.74,-0.31,-0.50,-0.84,-1.08,
0.093,0.60,-0.74,-0.31,-0.52,-0.84,-1.07,
0.093,0.60,-0.74,-0.31,-0.55,-0.84,-1.06,
0.093,0.60,-0.74,-0.31,-0.56,-0.84,-1.06,
0.093,0.60,-0.74,-0.31,-0.58,-0.83,-1.05,
0.093,0.71,-0.71,-0.06,-0.58,-0.83,-1.05,
0.094,0.71,-0.71,-0.06,-0.61,-0.80,-1.04,
0.094,0.71,-0.71,-0.06,-0.63,-0.76,-1.03,
0.094,0.71,-0.71,-0.06,-0.66,-0.70,-1.01,
0.094,0.71,-0.71,-0.06,-0.67,-0.68,-1.01,
0.094,0.71,-0.71,-0.06,-0.69,-0.65,-0.99,
0.094,0.84,-0.88,-0.42,-0.69,-0.65,-0.99,
0.095,0.84,-0.88,-0.42,-0.71,-0.64,-0.98,
0.103,0.84,-0.88,-0.42,-0.73,-0.63,-0.96,
0.104,0.84,-0.88,-0.42,-0.75,-0.66,-0.94,
0.105,0.84,-0.88,-0.42,-0.75,-0.67,-0.93,
0.105,0.84,-0.88,-0.42,-0.77,-0.71,-0.92,
0.122,0.77,-0.97,-0.13,-0.77,-0.71,-0.92,
0.122,0.77,-0.97,-0.13,-0.78,-0.75,-0.90,
0.122,0.77,-0.97,-0.13,-0.79,-0.80,-0.88,
0.123,0.77,-0.97,-0.13,-0.80,-0.87,-0.86,
0.123,0.77,-0.97,-0.13,-0.81,-0.89,-0.86,
0.123,0.77,-0.97,-0.13,-0.83,-0.94,-0.85,
0.123,0.86,-0.92,0.33,-0.83,-0.94,-0.85,
0.124,0.86,-0.92,0.33,-0.84,-1.00,-0.83,
0.124,0.86,-0.92,0.33,-0.85,-1.05,-0.82,
0.124,0.86,-0.92,0.33,-0.87,-1.14,-0.81,
0.124,0.86,-0.92,0.33,-0.87,-1.17,-0.80,
0.125,0.86,-0.92,0.33,-0.89,-1.22,-0.79,
0.125,1.05,-0.63,0.83,-0.89,-1.22,-0.79,
0.125,1.05,-0.63,0.83,-0.90,-1.28,-0.79,
0.133,1.05,-0.63,0.83,-0.91,-1.32,-0.78,
0.133,1.05,-0.63,0.83,-0.93,-1.34,-0.78,
0.133,1.05,-0.63,0.83,-0.93,-1.35,-0.77,
0.134,1.05,-0.63,0.83,-0.95,-1.37,-0.77,
0.134,1.14,-0.50,0.60,-0.95,-1.37,-0.77,
0.134,1.14,-0.50,0.60,-0.97,-1.37,-0.76,
0.135,1.14,-0.50,0.60,-0.98,-1.38,-0.75,
0.139,1.14,-0.50,0.60,-1.00,-1.43,-0.73,
0.139,1.14,-0.50,0.60,-1.00,-1.45,-0.73,
0.142,1.14,-0.50,0.60,-1.01,-1.49,-0.72,
0.144,0.86,-0.69,0.08,-1.01,-1.49,-0.72,
0.144,0.86,-0.69,0.08,-1.01,-1.53,-0.72,
0.145,0.86,-0.69,0.08,-1.01,-1.57,-0.71,
0.148,0.86,-0.69,0.08,-1.02,-1.57,-0.72,
0.149,0.86,-0.69,0.08,-1.02,-1.57,-0.72,
0.151,0.86,-0.69,0.08,-1.04,-1.54,-0.72,
0.153,0.92,-0.57,-0.32,-1.04,-1.54,-0.72,
0.153,0.92,-0.57,-0.32,-1.05,-1.51,-0.72,
0.167,0.92,-0.57,-0.32,-1.08,-1.48,-0.72,
0.168,0.92,-0.57,-0.32,-1.11,-1.44,-0.71,
0.168,0.92,-0.57,-0.32,-1.12,-1.42,-0.71,
0.168,0.92,-0.57,-0.32,-1.14,-1.39,-0.70,
0.168,0.58,-0.51,-0.97,-1.14,-1.39,-0.70,
0.168,0.58,-0.51,-0.97,-1.16,-1.35,-0.69,
0.169,0.58,-0.51,-0.97,-1.17,-1.31,-0.68,
0.169,0.58,-0.51,-0.97,-1.17,-1.26,-0.67,
0.169,0.58,-0.51,-0.97,-1.17,-1.24,-0.67,
0.171,0.58,-0.51,-0.97,-1.17,-1.21,-0.66,
0.174,0.64,-0.28,-0.35,-1.17,-1.21,-0.66,
0.179,0.64,-0.28,-0.35,-1.17,-1.19,-0.66,
0.181,0.64,-0.28,-0.35,-1.16,-1.16,-0.66,
0.181,0.64,-0.28,-0.35,-1.15,-1.13,-0.65,
0.182,0.64,-0.28,-0.35,-1.14,-1.12,-0.65,
0.184,0.64,-0.28,-0.35,-1.14,-1.11,-0.65,
0.185,0.55,-0.11,0.45,-1.14,-1.11,-0.65,
0.185,0.55,-0.11,0.45,-1.13,-1.10,-0.65,
0.185,0.55,-0.11,0.45,-1.12,-1.09,-0.66,
0.194,0.55,-0.11,0.45,-1.10,-1.07,-0.65,
0.194,0.55,-0.11,0.45,-1.10,-1.06,-0.65,
0.194,0.55,-0.11,0.45,-1.08,-1.03,-0.65,
0.195,0.24,0.07,1.04,-1.08,-1.03,-0.65,
0.195,0.24,0.07,1.04,-1.07,-1.00,-0.65,
0.195,0.24,0.07,1.04,-1.07,-0.97,-0.64,
0.198,0.24,0.07,1.04,-1.06,-0.90,-0.63,
0.199,0.24,0.07,1.04,-1.06,-0.88,-0.62,
0.201,0.24,0.07,1.04,-1.06,-0.84,-0.61,
0.204,-0.26,0.16,1.23,-1.06,-0.84,-0.61,
0.204,-0.26,0.16,1.23,-1.07,-0.79,-0.60,
0.206,-0.26,0.16,1.23,-1.07,-0.74,-0.59,
0.208,-0.26,0.16,1.23,-1.07,-0.67,-0.57,
0.209,-0.26,0.16,1.23,-1.07,-0.65,-0.56,
0.211,-0.26,0.16,1.23,-1.06,-0.60,-0.54,
0.213,-0.51,-0.02,1.14,-1.06,-0.60,-0.54,
0.213,-0.51,-0.02,1.14,-1.06,-0.57,-0.53,
0.215,-0.51,-0.02,1.14,-1.05,-0.53,-0.52,
0.218,-0.51,-0.02,1.14,-1.03,-0.48,-0.51,
0.219,-0.51,-0.02,1.14,-1.02,-0.46,-0.51,
0.223,-0.51,-0.02,1.14,-1.01,-0.42,-0.51,
0.224,-0.31,-0.23,0.87,-1.01,-0.42,-0.51,
0.224,-0.31,-0.23,0.87,-0.99,-0.38,-0.51,
0.225,-0.31,-0.23,0.87,-0.98,-0.35,-0.52,
0.228,-0.31,-0.23,0.87,-0.95,-0.29,-0.53,
0.229,-0.31,-0.23,0.87,-0.94,-0.27,-0.54,
0.231,-0.31,-0.23,0.87,-0.92,-0.24,-0.55,
0.233,-0.14,-0.33,0.40,-0.92,-0.24,-0.55,
0.234,-0.14,-0.33,0.40,-0.91,-0.20,-0.57,
0.235,-0.14,-0.33,0.40,-0.89,-0.17,-0.59,
0.244,-0.14,-0.33,0.40,-0.87,-0.12,-0.63,
0.244,-0.14,-0.33,0.40,-0.86,-0.11,-0.65,
0.246,-0.14,-0.33,0.40,-0.83,-0.07,-0.67,
0.247,-0.08,-0.41,0.09,-0.83,-0.07,-0.67,
0.248,-0.08,-0.41,0.09,-0.81,-0.04,-0.70,
0.248,-0.08,-0.41,0.09,-0.79,-0.01,-0.74,
0.248,-0.08,-0.41,0.09,-0.75,0.02,-0.79,
0.25,-0.08,-0.41,0.09,-0.74,0.04,-0.81,
0.252,-0.08,-0.41,0.09,-0.70,0.05,-0.84,
0.253,-0.25,-0.42,0.32,-0.70,0.05,-0.84,
0.254,-0.25,-0.42,0.32,-0.67,0.05,-0.88,
0.255,-0.25,-0.42,0.32,-0.63,0.05,-0.90,
0.26,-0.25,-0.42,0.32,-0.56,0.03,-0.94,
0.26,-0.25,-0.42,0.32,-0.53,0.01,-0.95,
0.261,-0.25,-0.42,0.32,-0.48,-0.02,-0.97,
0.263,-0.55,-0.22,1.24,-0.48,-0.02,-0.97,
0.264,-0.55,-0.22,1.24,-0.43,-0.06,-0.99,
0.265,-0.55,-0.22,1.24,-0.38,-0.10,-1.00,
0.268,-0.55,-0.22,1.24,-0.30,-0.19,-1.03,
0.296,-0.55,-0.22,1.24,-0.28,-0.22,-1.03,
0.297,-0.55,-0.22,1.24,-0.23,-0.27,-1.05,
0.297,-1.04,-0.02,2.17,-0.23,-0.27,-1.05,
0.298,-1.04,-0.02,2.17,-0.18,-0.33,-1.06,
0.298,-1.04,-0.02,2.17,-0.14,-0.38,-1.07,
0.298,-1.04,-0.02,2.17,-0.08,-0.45,-1.09,
0.299,-1.04,-0.02,2.17,-0.06,-0.47,-1.10,
0.299,-1.04,-0.02,2.17,-0.02,-0.51,-1.11,
0.3,-1.11,0.04,2.18,-0.02,-0.51,-1.11,
0.3,-1.11,0.04,2.18,0.01,-0.54,-1.13,
0.301,-1.11,0.04,2.18,0.03,-0.57,-1.14,
0.301,-1.11,0.04,2.18,0.06,-0.61,-1.17,
0.301,-1.11,0.04,2.18,0.06,-0.62,-1.17,
0.302,-1.11,0.04,2.18,0.07,-0.64,-1.19,
0.302,-0.88,-0.17,1.39,0.07,-0.64,-1.19,
0.303,-0.88,-0.17,1.39,0.08,-0.66,-1.21,
0.303,-0.88,-0.17,1.39,0.08,-0.69,-1.23,
0.304,-0.88,-0.17,1.39,0.08,-0.72,-1.25,
0.304,-0.88,-0.17,1.39,0.08,-0.74,-1.26,
0.304,-0.88,-0.17,1.39,0.08,-0.76,-1.28,
0.305,-0.54,-0.49,0.43,0.08,-0.76,-1.28,
0.305,-0.54,-0.49,0.43,0.08,-0.79,-1.29,
0.306,-0.54,-0.49,0.43,0.07,-0.82,-1.31,
0.324,-0.54,-0.49,0.43,0.06,-0.87,-1.33,
0.325,-0.54,-0.49,0.43,0.06,-0.88,-1.33,
0.325,-0.54,-0.49,0.43,0.05,-0.91,-1.34,
0.325,-0.35,-0.51,-0.35,0.05,-0.91,-1.34,
0.326,-0.35,-0.51,-0.35,0.04,-0.93,-1.35,
0.326,-0.35,-0.51,-0.35,0.03,-0.95,-1.35,
0.326,-0.35,-0.51,-0.35,0.01,-0.99,-1.34,
0.326,-0.35,-0.51,-0.35,0.01,-1.00,-1.34,
0.326,-0.35,-0.51,-0.35,-0.02,-1.02,-1.32,
0.327,-0.53,-0.30,-1.08,-0.02,-1.02,-1.32,
0.327,-0.53,-0.30,-1.08,-0.02,-1.03,-1.31,
0.327,-0.53,-0.30,-1.08,-0.04,-1.05,-1.29,
0.328,-0.53,-0.30,-1.08,-0.07,-1.07,-1.26,
0.338,-0.53,-0.30,-1.08,-0.08,-1.08,-1.25,
0.339,-0.53,-0.30,-1.08,-0.10,-1.09,-1.23,
0.339,-0.72,-0.06,-1.66,-0.10,-1.09,-1.23,
0.339,-0.72,-0.06,-1.66,-0.13,-1.11,-1.21,
0.34,-0.72,-0.06,-1.66,-0.15,-1.12,-1.19,
0.34,-0.72,-0.06,-1.66,-0.19,-1.15,-1.15,
0.341,-0.72,-0.06,-1.66,-0.21,-1.16,-1.14,
0.354,-0.72,-0.06,-1.66,-0.23,-1.18,-1.12,
0.354,-0.41,0.26,-1.89,-0.23,-1.18,-1.12,
0.354,-0.41,0.26,-1.89,-0.26,-1.20,-1.10,
0.355,-0.41,0.26,-1.89,-0.29,-1.22,-1.07,
0.355,-0.41,0.26,-1.89,-0.32,-1.26,-1.02,
0.355,-0.41,0.26,-1.89,-0.33,-1.27,-1.00,
0.355,-0.41,0.26,-1.89,-0.35,-1.30,-0.97,
0.362,-0.35,0.51,-1.71,-0.35,-1.30,-0.97,
0.363,-0.35,0.51,-1.71,-0.37,-1.32,-0.93,
0.363,-0.35,0.51,-1.71,-0.39,-1.35,-0.89,
0.363,-0.35,0.51,-1.71,-0.41,-1.38,-0.82,
0.363,-0.35,0.51,-1.71,-0.42,-1.40,-0.80,
0.364,-0.35,0.51,-1.71,-0.43,-1.42,-0.75,
0.364,-0.59,0.72,-1.29,-0.43,-1.42,-0.75,
0.366,-0.59,0.72,-1.29,-0.43,-1.44,-0.70,
0.367,-0.59,0.72,-1.29,-0.45,-1.46,-0.66,
0.369,-0.59,0.72,-1.29,-0.47,-1.47,-0.59,
0.378,-0.59,0.72,-1.29,-0.48,-1.47,-0.56,
0.379,-0.59,0.72,-1.29,-0.50,-1.47,-0.52,
0.379,-0.80,1.17,-1.11,-0.50,-1.47,-0.52,
0.379,-0.80,1.17,-1.11,-0.51,-1.46,-0.48,
0.379,-0.80,1.17,-1.11,-0.53,-1.43,-0.46,
0.379,-0.80,1.17,-1.11,-0.56,-1.38,-0.42,
0.379,-0.80,1.17,-1.11,-0.57,-1.36,-0.42,
0.381,-0.80,1.17,-1.11,-0.60,-1.31,-0.41,
0.383,-0.55,1.38,-0.94,-0.60,-1.31,-0.41,
0.384,-0.55,1.38,-0.94,-0.62,-1.26,-0.42,
0.385,-0.55,1.38,-0.94,-0.64,-1.20,-0.44,
0.388,-0.55,1.38,-0.94,-0.68,-1.12,-0.50,
0.389,-0.55,1.38,-0.94,-0.69,-1.10,-0.52,
0.391,-0.55,1.38,-0.94,-0.71,-1.05,-0.59,
0.394,0.59,1.10,-0.68,-0.71,-1.05,-0.59,
0.396,0.59,1.10,-0.68,-0.75,-0.98,-0.74,
0.397,0.59,1.10,-0.68,-0.75,-0.98,-0.74,
0.398,0.59,1.10,-0.68,-0.78,-0.94,-0.87,
0.399,0.59,1.10,-0.68,-0.78,-0.93,-0.92,
0.401,0.59,1.10,-0.68,-0.80,-0.91,-1.01,
0.404,1.61,0.53,-0.42,-0.80,-0.91,-1.01,
0.405,1.61,0.53,-0.42,-0.81,-0.90,-1.11,
0.405,1.61,0.53,-0.42,-0.82,-0.88,-1.20,
0.409,1.61,0.53,-0.42,-0.84,-0.85,-1.35,
0.41,1.61,0.53,-0.42,-0.84,-0.84,-1.40,
0.411,1.61,0.53,-0.42,-0.84,-0.82,-1.49,
0.413,2.01,0.30,-0.17,-0.84,-0.82,-1.49,
0.413,2.01,0.30,-0.17,-0.84,-0.80,-1.59,
0.415,2.01,0.30,-0.17,-0.84,-0.77,-1.67,
0.418,2.01,0.30,-0.17,-0.84,-0.73,-1.79,
0.419,2.01,0.30,-0.17,-0.83,-0.71,-1.83,
0.422,2.01,0.30,-0.17,-0.83,-0.68,-1.90,
0.426,1.51,0.22,0.12,-0.83,-0.68,-1.90,
0.426,1.51,0.22,0.12,-0.83,-0.64,-1.96,
0.428,1.51,0.22,0.12,-0.82,-0.61,-2.01,
0.428,1.51,0.22,0.12,-0.81,-0.55,-2.08,
0.429,1.51,0.22,0.12,-0.81,-0.53,-2.09,
0.431,1.51,0.22,0.12,-0.80,-0.49,-2.13,
0.433,0.56,0.07,0.33,-0.80,-0.49,-2.13,
0.434,0.56,0.07,0.33,-0.79,-0.45,-2.15,
0.461,0.56,0.07,0.33,-0.77,-0.41,-2.17,
0.461,0.56,0.07,0.33,-0.75,-0.36,-2.19,
0.461,0.56,0.07,0.33,-0.74,-0.34,-2.20,
0.462,0.56,0.07,0.33,-0.72,-0.30,-2.20,
0.462,-0.19,-0.10,0.62,-0.72,-0.30,-2.20,
0.462,-0.19,-0.10,0.62,-0.70,-0.26,-2.21,
0.462,-0.19,-0.10,0.62,-0.68,-0.23,-2.21,
0.463,-0.19,-0.10,0.62,-0.65,-0.18,-2.21,
0.463,-0.19,-0.10,0.62,-0.64,-0.16,-2.21,
0.463,-0.19,-0.10,0.62,-0.63,-0.14,-2.20,
0.464,-0.75,-0.24,0.62,-0.63,-0.14,-2.20,
0.464,-0.75,-0.24,0.62,-0.61,-0.12,-2.20,
0.464,-0.75,-0.24,0.62,-0.60,-0.11,-2.20,
0.464,-0.75,-0.24,0.62,-0.58,-0.10,-2.19,
0.465,-0.75,-0.24,0.62,-0.58,-0.10,-2.19,
0.465,-0.75,-0.24,0.62,-0.57,-0.10,-2.18,
0.465,-1.12,-0.28,0.41,-0.57,-0.10,-2.18,
0.465,-1.12,-0.28,0.41,-0.57,-0.09,-2.18,
0.466,-1.12,-0.28,0.41,-0.56,-0.09,-2.18,
0.478,-1.12,-0.28,0.41,-0.55,-0.09,-2.17,
0.478,-1.12,-0.28,0.41,-0.55,-0.08,-2.17,
0.479,-1.12,-0.28,0.41,-0.54,-0.08,-2.17,
0.479,-1.39,-0.24,0.28,-0.54,-0.08,-2.17,
0.479,-1.39,-0.24,0.28,-0.54,-0.07,-2.17,
0.479,-1.39,-0.24,0.28,-0.53,-0.06,-2.17,
0.479,-1.39,-0.24,0.28,-0.52,-0.05,-2.17,
0.48,-1.39,-0.24,0.28,-0.51,-0.05,-2.17,
0.504,-1.39,-0.24,0.28,-0.51,-0.05,-2.17,
0.504,-1.49,-0.24,0.26,-0.51,-0.05,-2.17,
0.505,-1.49,-0.24,0.26,-0.50,-0.04,-2.17,
0.505,-1.49,-0.24,0.26,-0.49,-0.04,-2.17,
0.505,-1.49,-0.24,0.26,-0.48,-0.05,-2.17,
0.505,-1.49,-0.24,0.26,-0.48,-0.05,-2.17,
0.505,-1.49,-0.24,0.26,-0.47,-0.06,-2.18,
0.505,-1.64,-0.29,0.30,-0.47,-0.06,-2.18,
0.506,-1.64,-0.29,0.30,-0.46,-0.08,-2.18,
0.506,-1.64,-0.29,0.30,-0.46,-0.09,-2.18,
0.506,-1.64,-0.29,0.30,-0.44,-0.12,-2.18,
0.506,-1.64,-0.29,0.30,-0.44,-0.13,-2.19,
0.506,-1.64,-0.29,0.30,-0.42,-0.15,-2.19,
0.506,-1.68,-0.37,0.57,-0.42,-0.15,-2.19,
0.507,-1.68,-0.37,0.57,-0.40,-0.17,-2.18,
0.507,-1.68,-0.37,0.57,-0.39,-0.19,-2.18,
0.51,-1.68,-0.37,0.57,-0.36,-0.23,-2.18,
0.51,-1.68,-0.37,0.57,-0.34,-0.23,-2.17,
0.511,-1.68,-0.37,0.57,-0.32,-0.25,-2.17,
0.513,-1.66,-0.34,0.98,-0.32,-0.25,-2.17,
0.513,-1.66,-0.34,0.98,-0.30,-0.27,-2.17,
0.515,-1.66,-0.34,0.98,-0.27,-0.29,-2.16,
0.518,-1.66,-0.34,0.98,-0.23,-0.32,-2.16,
0.543,-1.66,-0.34,0.98,-0.22,-0.33,-2.16,
0.543,-1.66,-0.34,0.98,-0.19,-0.34,-2.16,
0.543,-1.44,-0.26,1.16,-0.19,-0.34,-2.16,
0.543,-1.44,-0.26,1.16,-0.17,-0.36,-2.16,
0.543,-1.44,-0.26,1.16,-0.14,-0.37,-2.16,
0.544,-1.44,-0.26,1.16,-0.11,-0.39,-2.17,
0.544,-1.44,-0.26,1.16,-0.10,-0.39,-2.17,
0.544,-1.44,-0.26,1.16,-0.08,-0.40,-2.17,
0.544,-1.25,-0.15,1.21,-0.08,-0.40,-2.17,
0.544,-1.25,-0.15,1.21,-0.06,-0.41,-2.18,
0.544,-1.25,-0.15,1.21,-0.04,-0.42,-2.19,
0.544,-1.25,-0.15,1.21,-0.01,-0.42,-2.20,
0.545,-1.25,-0.15,1.21,-0.00,-0.42,-2.20,
0.545,-1.25,-0.15,1.21,0.01,-0.42,-2.20,
0.553,-1.13,-0.10,1.08,0.01,-0.42,-2.20,
0.554,-1.13,-0.10,1.08,0.03,-0.41,-2.21,
0.554,-1.13,-0.10,1.08,0.04,-0.41,-2.21,
0.554,-1.13,-0.10,1.08,0.05,-0.41,-2.22,
0.554,-1.13,-0.10,1.08,0.05,-0.40,-2.22,
0.554,-1.13,-0.10,1.08,0.06,-0.40,-2.22,
0.564,-1.24,-0.03,0.77,0.06,-0.40,-2.22,
0.565,-1.24,-0.03,0.77,0.06,-0.38,-2.22,
0.565,-1.24,-0.03,0.77,0.06,-0.37,-2.22,
0.565,-1.24,-0.03,0.77,0.06,-0.34,-2.21,
0.565,-1.24,-0.03,0.77,0.06,-0.33,-2.21,
0.565,-1.24,-0.03,0.77,0.05,-0.31,-2.20,
0.565,-1.46,-0.01,0.46,0.05,-0.31,-2.20,
0.566,-1.46,-0.01,0.46,0.05,-0.29,-2.20,
0.566,-1.46,-0.01,0.46,0.04,-0.26,-2.19,
0.568,-1.46,-0.01,0.46,0.03,-0.22,-2.17,
0.569,-1.46,-0.01,0.46,0.03,-0.21,-2.17,
0.604,-1.46,-0.01,0.46,0.02,-0.18,-2.16,
0.605,-1.63,-0.05,0.20,0.02,-0.18,-2.16,
0.605,-1.63,-0.05,0.20,0.01,-0.16,-2.14,
0.605,-1.63,-0.05,0.20,0.01,-0.13,-2.13,
0.605,-1.63,-0.05,0.20,-0.01,-0.10,-2.11,
0.605,-1.63,-0.05,0.20,-0.01,-0.09,-2.10,
0.605,-1.63,-0.05,0.20,-0.02,-0.08,-2.09,
0.605,-1.69,-0.01,-0.06,-0.02,-0.08,-2.09,
0.606,-1.69,-0.01,-0.06,-0.03,-0.06,-2.08,
0.606,-1.69,-0.01,-0.06,-0.04,-0.05,-2.06,
0.606,-1.69,-0.01,-0.06,-0.06,-0.03,-2.04,
0.606,-1.69,-0.01,-0.06,-0.06,-0.03,-2.03,
0.606,-1.69,-0.01,-0.06,-0.07,-0.02,-2.02,
0.606,-1.76,0.14,-0.24,-0.07,-0.02,-2.02,
0.606,-1.76,0.14,-0.24,-0.08,-0.01,-2.01,
0.607,-1.76,0.14,-0.24,-0.09,-0.01,-2.00,
0.607,-1.76,0.14,-0.24,-0.10,-0.00,-1.98,
0.607,-1.76,0.14,-0.24,-0.11,-0.00,-1.98,
0.607,-1.76,0.14,-0.24,-0.12,-0.00,-1.97,
0.625,-1.67,0.26,-0.39,-0.12,-0.00,-1.97,
0.625,-1.67,0.26,-0.39,-0.12,0.00,-1.96,
0.625,-1.67,0.26,-0.39,-0.13,0.00,-1.95,
0.625,-1.67,0.26,-0.39,-0.14,-0.00,-1.95,
0.626,-1.67,0.26,-0.39,-0.14,-0.00,-1.95,
0.626,-1.67,0.26,-0.39,-0.14,-0.00,-1.95,
0.626,-1.52,0.40,-0.37,-0.14,-0.00,-1.95,
0.626,-1.52,0.40,-0.37,-0.15,-0.00,-1.95,
0.626,-1.52,0.40,-0.37,-0.15,-0.01,-1.95,
0.627,-1.52,0.40,-0.37,-0.15,-0.01,-1.96,
0.627,-1.52,0.40,-0.37,-0.15,-0.01,-1.96,
0.627,-1.52,0.40,-0.37,-0.14,-0.02,-1.97,
0.627,-1.21,0.45,-0.24,-0.14,-0.02,-1.97,
0.627,-1.21,0.45,-0.24,-0.14,-0.02,-1.97,
0.628,-1.21,0.45,-0.24,-0.13,-0.03,-1.97,
0.631,-1.21,0.45,-0.24,-0.12,-0.05,-1.98,
0.632,-1.21,0.45,-0.24,-0.11,-0.05,-1.99,
0.632,-1.21,0.45,-0.24,-0.10,-0.06,-1.99,
0.633,-1.09,0.45,-0.05,-0.10,-0.06,-1.99,
0.634,-1.09,0.45,-0.05,-0.09,-0.07,-2.00,
0.635,-1.09,0.45,-0.05,-0.08,-0.08,-2.00,
0.638,-1.09,0.45,-0.05,-0.06,-0.09,-2.00,
0.639,-1.09,0.45,-0.05,-0.05,-0.10,-2.00,
0.641,-1.09,0.45,-0.05,-0.04,-0.10,-2.00,
0.643,-1.18,0.48,-0.05,-0.04,-0.10,-2.00,
0.643,-1.18,0.48,-0.05,-0.04,-0.11,-2.00,
0.645,-1.18,0.48,-0.05,-0.03,-0.12,-2.00,
0.648,-1.18,0.48,-0.05,-0.03,-0.13,-2.00,
0.649,-1.18,0.48,-0.05,-0.02,-0.13,-2.00,
0.651,-1.18,0.48,-0.05,-0.03,-0.13,-2.00,
0.653,-1.38,0.55,-0.22,-0.03,-0.13,-2.00,
0.654,-1.38,0.55,-0.22,-0.03,-0.13,-2.00,
0.655,-1.38,0.55,-0.22,-0.04,-0.13,-1.99,
0.658,-1.38,0.55,-0.22,-0.05,-0.13,-1.98,
0.659,-1.38,0.55,-0.22,-0.05,-0.12,-1.98,
0.661,-1.38,0.55,-0.22,-0.06,-0.12,-1.97,
0.663,-1.44,0.54,-0.46,-0.06,-0.12,-1.97,
0.663,-1.44,0.54,-0.46,-0.06,-0.11,-1.97,
0.665,-1.44,0.54,-0.46,-0.07,-0.10,-1.96,
0.669,-1.44,0.54,-0.46,-0.08,-0.09,-1.94,
0.669,-1.44,0.54,-0.46,-0.09,-0.09,-1.94,
0.672,-1.44,0.54,-0.46,-0.09,-0.08,-1.92,
0.674,-1.57,0.60,-0.58,-0.09,-0.08,-1.92,
0.674,-1.57,0.60,-0.58,-0.10,-0.08,-1.92,
0.675,-1.57,0.60,-0.58,-0.10,-0.07,-1.90,
0.678,-1.57,0.60,-0.58,-0.11,-0.06,-1.89,
0.679,-1.57,0.60,-0.58,-0.11,-0.06,-1.88,
0.681,-1.57,0.60,-0.58,-0.11,-0.06,-1.87,
0.683,-1.61,0.58,-0.64,-0.11,-0.06,-1.87,
0.683,-1.61,0.58,-0.64,-0.12,-0.05,-1.86,
0.685,-1.61,0.58,-0.64,-0.13,-0.06,-1.85,
0.688,-1.61,0.58,-0.64,-0.14,-0.06,-1.83,
0.689,-1.61,0.58,-0.64,-0.14,-0.06,-1.82,
0.691,-1.61,0.58,-0.64,-0.14,-0.06,-1.81,
0.693,-1.66,0.53,-0.58,-0.14,-0.06,-1.81,
0.693,-1.66,0.53,-0.58,-0.14,-0.07,-1.80,
0.695,-1.66,0.53,-0.58,-0.14,-0.07,-1.79,
0.698,-1.66,0.53,-0.58,-0.14,-0.10,-1.77,
0.699,-1.66,0.53,-0.58,-0.14,-0.10,-1.76,
0.701,-1.66,0.53,-0.58,-0.13,-0.12,-1.75,
0.704,-1.47,0.44,-0.38,-0.13,-0.12,-1.75,
0.704,-1.47,0.44,-0.38,-0.13,-0.14,-1.75,
0.705,-1.47,0.44,-0.38,-0.12,-0.16,-1.74,
0.708,-1.47,0.44,-0.38,-0.12,-0.18,-1.73,
0.711,-1.47,0.44,-0.38,-0.12,-0.19,-1.72,
0.711,-1.47,0.44,-0.38,-0.11,-0.22,-1.72,
0.713,-1.24,0.57,-0.29,-0.11,-0.22,-1.72,
0.713,-1.24,0.57,-0.29,-0.11,-0.24,-1.72,
0.715,-1.24,0.57,-0.29,-0.10,-0.27,-1.72,
0.718,-1.24,0.57,-0.29,-0.10,-0.32,-1.72,
0.719,-1.24,0.57,-0.29,-0.09,-0.34,-1.72,
0.721,-1.24,0.57,-0.29,-0.09,-0.37,-1.72,
0.723,-0.91,0.65,-0.24,-0.09,-0.37,-1.72,
0.723,-0.91,0.65,-0.24,-0.09,-0.41,-1.72,
0.725,-0.91,0.65,-0.24,-0.08,-0.44,-1.73,
0.728,-0.91,0.65,-0.24,-0.07,-0.49,-1.73,
0.729,-0.91,0.65,-0.24,-0.07,-0.51,-1.73,
0.731,-0.91,0.65,-0.24,-0.07,-0.54,-1.74,
0.733,-0.66,0.87,-0.24,-0.07,-0.54,-1.74,
0.733,-0.66,0.87,-0.24,-0.06,-0.57,-1.74,
0.738,-0.66,0.87,-0.24,-0.06,-0.60,-1.75,
0.739,-0.66,0.87,-0.24,-0.06,-0.63,-1.76,
0.739,-0.66,0.87,-0.24,-0.06,-0.64,-1.76,
0.741,-0.66,0.87,-0.24,-0.06,-0.65,-1.77,
0.743,-0.51,0.97,-0.35,-0.06,-0.65,-1.77,
0.743,-0.51,0.97,-0.35,-0.06,-0.66,-1.77,
0.745,-0.51,0.97,-0.35,-0.06,-0.67,-1.78,
0.748,-0.51,0.97,-0.35,-0.07,-0.67,-1.78,
0.749,-0.51,0.97,-0.35,-0.07,-0.66,-1.78,
0.751,-0.51,0.97,-0.35,-0.08,-0.66,-1.79,
0.753,-0.53,1.05,-0.46,-0.08,-0.66,-1.79,
0.755,-0.53,1.05,-0.46,-0.08,-0.64,-1.79,
0.755,-0.53,1.05,-0.46,-0.08,-0.63,-1.79,
0.758,-0.53,1.05,-0.46,-0.09,-0.60,-1.79,
0.759,-0.53,1.05,-0.46,-0.09,-0.59,-1.79,
0.761,-0.53,1.05,-0.46,-0.09,-0.57,-1.79,
0.763,-0.58,0.94,-0.43,-0.09,-0.57,-1.79,
0.763,-0.58,0.94,-0.43,-0.10,-0.55,-1.79,
0.765,-0.58,0.94,-0.43,-0.10,-0.53,-1.79,
0.768,-0.58,0.94,-0.43,-0.10,-0.49,-1.79,
0.781,-0.58,0.94,-0.43,-0.10,-0.48,-1.78,
0.781,-0.58,0.94,-0.43,-0.10,-0.45,-1.77,
0.781,-0.68,0.85,-0.27,-0.10,-0.45,-1.77,
0.781,-0.68,0.85,-0.27,-0.11,-0.42,-1.77,
0.781,-0.68,0.85,-0.27,-0.11,-0.39,-1.77,
0.782,-0.68,0.85,-0.27,-0.11,-0.34,-1.75,
0.782,-0.68,0.85,-0.27,-0.10,-0.33,-1.75,
0.782,-0.68,0.85,-0.27,-0.10,-0.29,-1.74,
0.783,-0.77,0.63,0.07,-0.10,-0.29,-1.74,
0.783,-0.77,0.63,0.07,-0.09,-0.25,-1.73,
0.786,-0.77,0.63,0.07,-0.08,-0.22,-1.72,
0.788,-0.77,0.63,0.07,-0.06,-0.16,-1.70,
0.789,-0.77,0.63,0.07,-0.06,-0.14,-1.69,
0.791,-0.77,0.63,0.07,-0.05,-0.10,-1.68,
0.793,-0.80,0.51,0.50,-0.05,-0.10,-1.68,
0.793,-0.80,0.51,0.50,-0.03,-0.07,-1.67,
0.795,-0.80,0.51,0.50,-0.01,-0.03,-1.65,
0.798,-0.80,0.51,0.50,0.02,0.03,-1.63,
0.799,-0.80,0.51,0.50,0.03,0.04,-1.62,
0.804,-0.80,0.51,0.50,0.05,0.08,-1.61,
0.805,-0.79,0.47,0.80,0.05,0.08,-1.61,
0.805,-0.79,0.47,0.80,0.07,0.11,-1.59,
0.805,-0.79,0.47,0.80,0.09,0.14,-1.58,
0.81,-0.79,0.47,0.80,0.11,0.18,-1.55,
0.81,-0.79,0.47,0.80,0.12,0.19,-1.54,
0.811,-0.79,0.47,0.80,0.14,0.21,-1.53,
0.814,-0.80,0.51,0.78,0.14,0.21,-1.53,
0.814,-0.80,0.51,0.78,0.16,0.23,-1.51,
0.815,-0.80,0.51,0.78,0.17,0.25,-1.50,
0.822,-0.80,0.51,0.78,0.20,0.26,-1.47,
0.822,-0.80,0.51,0.78,0.20,0.27,-1.46,
0.822,-0.80,0.51,0.78,0.22,0.27,-1.45,
0.823,-0.75,0.56,0.61,0.22,0.27,-1.45,
0.823,-0.75,0.56,0.61,0.23,0.27,-1.43,
0.825,-0.75,0.56,0.61,0.24,0.27,-1.42,
0.828,-0.75,0.56,0.61,0.25,0.26,-1.39,
0.829,-0.75,0.56,0.61,0.26,0.25,-1.38,
0.831,-0.75,0.56,0.61,0.27,0.24,-1.37,
0.833,-0.71,0.63,0.39,0.27,0.24,-1.37,
0.833,-0.71,0.63,0.39,0.27,0.22,-1.35,
0.835,-0.71,0.63,0.39,0.27,0.20,-1.34,
0.838,-0.71,0.63,0.39,0.27,0.16,-1.31,
0.839,-0.71,0.63,0.39,0.27,0.15,-1.31,
0.841,-0.71,0.63,0.39,0.27,0.12,-1.29,
0.843,-0.61,0.68,0.25,0.27,0.12,-1.29,
0.844,-0.61,0.68,0.25,0.27,0.08,-1.28,
0.845,-0.61,0.68,0.25,0.27,0.05,-1.26,
0.848,-0.61,0.68,0.25,0.27,-0.01,-1.24,
0.849,-0.61,0.68,0.25,0.26,-0.03,-1.23,
0.852,-0.61,0.68,0.25,0.26,-0.07,-1.22,
0.857,-0.41,0.75,0.29,0.26,-0.07,-1.22,
0.857,-0.41,0.75,0.29,0.26,-0.11,-1.21,
0.858,-0.41,0.75,0.29,0.25,-0.15,-1.21,
0.858,-0.41,0.75,0.29,0.24,-0.21,-1.19,
0.859,-0.41,0.75,0.29,0.24,-0.23,-1.19,
0.862,-0.41,0.75,0.29,0.24,-0.26,-1.19,
0.863,-0.19,0.78,0.42,0.24,-0.26,-1.19,
0.864,-0.19,0.78,0.42,0.24,-0.29,-1.18,
0.865,-0.19,0.78,0.42,0.23,-0.32,-1.18,
0.869,-0.19,0.78,0.42,0.23,-0.35,-1.17,
0.871,-0.19,0.78,0.42,0.23,-0.36,-1.17,
0.871,-0.19,0.78,0.42,0.22,-0.37,-1.17,
0.873,-0.07,0.78,0.59,0.22,-0.37,-1.17,
0.874,-0.07,0.78,0.59,0.22,-0.38,-1.17,
0.875,-0.07,0.78,0.59,0.22,-0.38,-1.17,
0.878,-0.07,0.78,0.59,0.22,-0.38,-1.16,
0.879,-0.07,0.78,0.59,0.22,-0.37,-1.16,
0.881,-0.07,0.78,0.59,0.22,-0.36,-1.16,
0.883,-0.03,0.64,0.72,0.22,-0.36,-1.16,
0.884,-0.03,0.64,0.72,0.22,-0.35,-1.15,
0.885,-0.03,0.64,0.72,0.22,-0.33,-1.14,
0.888,-0.03,0.64,0.72,0.23,-0.30,-1.13,
0.889,-0.03,0.64,0.72,0.23,-0.29,-1.13,
0.891,-0.03,0.64,0.72,0.24,-0.26,-1.12,
0.893,-0.19,0.48,0.85,0.24,-0.26,-1.12,
0.894,-0.19,0.48,0.85,0.24,-0.24,-1.10,
0.895,-0.19,0.48,0.85,0.24,-0.21,-1.09,
0.899,-0.19,0.48,0.85,0.25,-0.16,-1.06,
0.9,-0.19,0.48,0.85,0.25,-0.16,-1.06,
0.902,-0.19,0.48,0.85,0.25,-0.13,-1.04,
0.904,-0.39,0.44,0.78,0.25,-0.13,-1.04,
0.904,-0.39,0.44,0.78,0.25,-0.10,-1.02,
0.906,-0.39,0.44,0.78,0.25,-0.08,-1.00,
0.908,-0.39,0.44,0.78,0.25,-0.05,-0.97,
0.909,-0.39,0.44,0.78,0.25,-0.04,-0.96,
0.911,-0.39,0.44,0.78,0.25,-0.03,-0.94,
0.914,-0.57,0.44,0.62,0.25,-0.03,-0.94,
0.914,-0.57,0.44,0.62,0.24,-0.01,-0.92,
0.916,-0.57,0.44,0.62,0.24,-0.01,-0.90,
0.918,-0.57,0.44,0.62,0.23,-0.00,-0.87,
0.919,-0.57,0.44,0.62,0.23,-0.00,-0.86,
0.921,-0.57,0.44,0.62,0.22,-0.00,-0.85,
0.923,-0.63,0.45,0.50,0.22,-0.00,-0.85,
0.924,-0.63,0.45,0.50,0.22,-0.01,-0.83,
0.925,-0.63,0.45,0.50,0.21,-0.02,-0.81,
0.928,-0.63,0.45,0.50,0.21,-0.04,-0.79,
0.929,-0.63,0.45,0.50,0.21,-0.05,-0.78,
0.931,-0.63,0.45,0.50,0.20,-0.06,-0.77,
0.934,-0.64,0.42,0.53,0.20,-0.06,-0.77,
0.934,-0.64,0.42,0.53,0.20,-0.08,-0.75,
0.961,-0.64,0.42,0.53,0.20,-0.10,-0.74,
0.961,-0.64,0.42,0.53,0.21,-0.13,-0.72,
0.962,-0.64,0.42,0.53,0.21,-0.13,-0.71,
0.962,-0.64,0.42,0.53,0.22,-0.15,-0.70,
0.963,-0.61,0.41,0.71,0.22,-0.15,-0.70,
0.963,-0.61,0.41,0.71,0.22,-0.17,-0.68,
0.963,-0.61,0.41,0.71,0.23,-0.19,-0.67,
0.964,-0.61,0.41,0.71,0.24,-0.21,-0.64,
0.964,-0.61,0.41,0.71,0.25,-0.22,-0.63,
0.965,-0.61,0.41,0.71,0.26,-0.24,-0.61,
0.965,-0.76,0.41,0.91,0.26,-0.24,-0.61,
0.966,-0.76,0.41,0.91,0.27,-0.25,-0.59,
0.966,-0.76,0.41,0.91,0.28,-0.27,-0.56,
0.966,-0.76,0.41,0.91,0.29,-0.29,-0.52,
0.967,-0.76,0.41,0.91,0.30,-0.30,-0.51,
0.967,-0.76,0.41,0.91,0.30,-0.30,-0.48,
0.968,-0.92,0.42,0.94,0.30,-0.30,-0.48,
0.968,-0.92,0.42,0.94,0.31,-0.31,-0.45,
0.968,-0.92,0.42,0.94,0.32,-0.31,-0.43,
0.969,-0.92,0.42,0.94,0.32,-0.31,-0.38,
0.969,-0.92,0.42,0.94,0.32,-0.30,-0.37,
0.987,-0.92,0.42,0.94,0.32,-0.30,-0.34,
0.987,-0.97,0.50,0.83,0.32,-0.30,-0.34,
0.988,-0.97,0.50,0.83,0.32,-0.29,-0.31,
0.988,-0.97,0.50,0.83,0.32,-0.29,-0.29,
0.988,-0.97,0.50,0.83,0.32,-0.27,-0.25,
0.989,-0.97,0.50,0.83,0.31,-0.27,-0.24,
0.989,-0.97,0.50,0.83,0.31,-0.25,-0.21,
0.989,-0.85,0.59,0.67,0.31,-0.25,-0.21,
0.99,-0.85,0.59,0.67,0.30,-0.23,-0.19,
0.99,-0.85,0.59,0.67,0.29,-0.21,-0.17,
0.99,-0.85,0.59,0.67,0.27,-0.18,-0.14,
0.991,-0.85,0.59,0.67,0.27,-0.16,-0.13,
0.991,-0.85,0.59,0.67,0.26,-0.13,-0.11,
0.994,-0.63,0.68,0.46,0.26,-0.13,-0.11,
0.995,-0.63,0.68,0.46,0.24,-0.10,-0.09,
0.996,-0.63,0.68,0.46,0.22,-0.06,-0.08,
0.998,-0.63,0.68,0.46,0.20,0.01,-0.06,
1.008,-0.63,0.68,0.46,0.19,0.03,-0.05,
1.009,-0.63,0.68,0.46,0.17,0.08,-0.04,
1.009,-0.43,0.65,0.28,0.17,0.08,-0.04,
1.009,-0.43,0.65,0.28,0.14,0.12,-0.03,
1.01,-0.43,0.65,0.28,0.12,0.17,-0.02,
1.01,-0.43,0.65,0.28,0.08,0.24,-0.01,
1.01,-0.43,0.65,0.28,0.07,0.26,0.00,
1.013,-0.43,0.65,0.28,0.04,0.30,0.01,
1.019,-0.34,0.63,0.22,0.04,0.30,0.01,
1.02,-0.34,0.63,0.22,0.01,0.34,0.02,
1.02,-0.34,0.63,0.22,-0.01,0.37,0.04,
1.02,-0.34,0.63,0.22,-0.06,0.43,0.07,
1.02,-0.34,0.63,0.22,-0.07,0.45,0.08,
1.023,-0.34,0.63,0.22,-0.11,0.51,0.11,
1.025,-0.44,0.62,0.38,-0.11,0.51,0.11,
1.025,-0.44,0.62,0.38,-0.12,0.53,0.12,
1.025,-0.44,0.62,0.38,-0.15,0.57,0.15,
1.028,-0.44,0.62,0.38,-0.18,0.63,0.19,
1.03,-0.44,0.62,0.38,-0.20,0.65,0.21,
1.032,-0.44,0.62,0.38,-0.22,0.68,0.24,
1.034,-0.76,0.63,0.65,-0.22,0.68,0.24,
1.035,-0.76,0.63,0.65,-0.24,0.72,0.27,
1.036,-0.76,0.63,0.65,-0.26,0.75,0.30,
1.038,-0.76,0.63,0.65,-0.29,0.80,0.34,
1.039,-0.76,0.63,0.65,-0.30,0.81,0.35,
1.041,-0.76,0.63,0.65,-0.32,0.83,0.37,
1.043,-0.78,0.64,0.88,-0.32,0.83,0.37,
1.044,-0.78,0.64,0.88,-0.33,0.85,0.39,
1.045,-0.78,0.64,0.88,-0.35,0.86,0.40,
1.05,-0.78,0.64,0.88,-0.37,0.86,0.41,
1.05,-0.78,0.64,0.88,-0.38,0.86,0.41,
1.052,-0.78,0.64,0.88,-0.40,0.85,0.41,
1.054,-0.27,0.77,1.02,-0.40,0.85,0.41,
1.054,-0.27,0.77,1.02,-0.41,0.84,0.40,
1.056,-0.27,0.77,1.02,-0.42,0.82,0.38,
1.058,-0.27,0.77,1.02,-0.44,0.78,0.34,
1.064,-0.27,0.77,1.02,-0.44,0.76,0.33,
1.065,-0.27,0.77,1.02,-0.45,0.73,0.29,
1.066,0.39,0.87,1.22,-0.45,0.73,0.29,
1.067,0.39,0.87,1.22,-0.46,0.68,0.26,
1.068,0.39,0.87,1.22,-0.46,0.64,0.22,
1.069,0.39,0.87,1.22,-0.46,0.56,0.15,
1.071,0.39,0.87,1.22,-0.46,0.53,0.12,
1.071,0.39,0.87,1.22,-0.46,0.48,0.07,
1.074,0.95,0.86,1.48,-0.46,0.48,0.07,
1.074,0.95,0.86,1.48,-0.46,0.42,0.02,
1.075,0.95,0.86,1.48,-0.45,0.36,-0.03,
1.08,0.95,0.86,1.48,-0.43,0.26,-0.10,
1.081,0.95,0.86,1.48,-0.43,0.23,-0.13,
1.082,0.95,0.86,1.48,-0.42,0.17,-0.18,
1.088,1.14,0.75,1.88,-0.42,0.17,-0.18,
1.089,1.14,0.75,1.88,-0.40,0.10,-0.23,
1.089,1.14,0.75,1.88,-0.39,0.04,-0.27,
1.09,1.14,0.75,1.88,-0.36,-0.05,-0.35,
1.091,1.14,0.75,1.88,-0.35,-0.08,-0.37,
1.091,1.14,0.75,1.88,-0.33,-0.14,-0.41,
1.12,1.06,0.50,2.31,-0.33,-0.14,-0.41,
1.121,1.06,0.50,2.31,-0.31,-0.20,-0.45,
1.121,1.06,0.50,2.31,-0.29,-0.25,-0.48,
1.121,1.06,0.50,2.31,-0.26,-0.32,-0.53,
1.122,1.06,0.50,2.31,-0.25,-0.34,-0.54,
1.122,1.06,0.50,2.31,-0.24,-0.38,-0.57,
1.141,0.65,0.09,2.43,-0.24,-0.38,-0.57,
1.141,0.65,0.09,2.43,-0.22,-0.41,-0.59,
1.141,0.65,0.09,2.43,-0.20,-0.45,-0.60,
1.141,0.65,0.09,2.43,-0.17,-0.49,-0.62,
1.142,0.65,0.09,2.43,-0.17,-0.50,-0.62,
1.142,0.65,0.09,2.43,-0.15,-0.52,-0.63,
1.142,0.11,-0.50,2.42,-0.15,-0.52,-0.63,
1.142,0.11,-0.50,2.42,-0.13,-0.53,-0.63,
1.143,0.11,-0.50,2.42,-0.12,-0.53,-0.62,
1.143,0.11,-0.50,2.42,-0.10,-0.53,-0.61,
1.143,0.11,-0.50,2.42,-0.09,-0.52,-0.60,
1.144,0.11,-0.50,2.42,-0.07,-0.51,-0.59,
1.144,-0.34,-1.00,2.36,-0.07,-0.51,-0.59,
1.144,-0.34,-1.00,2.36,-0.06,-0.49,-0.57,
1.144,-0.34,-1.00,2.36,-0.04,-0.46,-0.55,
1.144,-0.34,-1.00,2.36,-0.02,-0.42,-0.52,
1.145,-0.34,-1.00,2.36,-0.01,-0.40,-0.50,
1.145,-0.34,-1.00,2.36,0.01,-0.36,-0.48,
1.145,-0.73,-1.42,2.27,0.01,-0.36,-0.48,
1.145,-0.73,-1.42,2.27,0.02,-0.33,-0.46,
1.145,-0.73,-1.42,2.27,0.04,-0.28,-0.44,
1.146,-0.73,-1.42,2.27,0.07,-0.22,-0.40,
1.146,-0.73,-1.42,2.27,0.08,-0.20,-0.39,
1.146,-0.73,-1.42,2.27,0.10,-0.15,-0.37,
1.146,-0.82,-1.60,2.22,0.10,-0.15,-0.37,
1.146,-0.82,-1.60,2.22,0.13,-0.11,-0.35,
1.147,-0.82,-1.60,2.22,0.15,-0.06,-0.34,
1.151,-0.82,-1.60,2.22,0.19,-0.00,-0.31,
1.151,-0.82,-1.60,2.22,0.20,0.02,-0.30,
1.152,-0.82,-1.60,2.22,0.23,0.05,-0.29,
1.153,-0.66,-1.64,2.05,0.23,0.05,-0.29,
1.154,-0.66,-1.64,2.05,0.26,0.09,-0.27,
1.155,-0.66,-1.64,2.05,0.28,0.12,-0.26,
1.158,-0.66,-1.64,2.05,0.32,0.16,-0.25,
1.159,-0.66,-1.64,2.05,0.34,0.17,-0.25,
1.161,-0.66,-1.64,2.05,0.36,0.18,-0.25,
1.164,-0.26,-1.52,1.60,0.36,0.18,-0.25,
1.164,-0.26,-1.52,1.60,0.38,0.20,-0.24,
1.165,-0.26,-1.52,1.60,0.41,0.20,-0.25,
1.168,-0.26,-1.52,1.60,0.44,0.21,-0.25,
1.169,-0.26,-1.52,1.60,0.45,0.20,-0.25,
1.171,-0.26,-1.52,1.60,0.47,0.20,-0.26,
1.174,0.03,-1.40,0.98,0.47,0.20,-0.26,
1.174,0.03,-1.40,0.98,0.49,0.19,-0.27,
1.175,0.03,-1.40,0.98,0.51,0.18,-0.28,
1.178,0.03,-1.40,0.98,0.54,0.15,-0.29,
1.179,0.03,-1.40,0.98,0.55,0.14,-0.30,
1.181,0.03,-1.40,0.98,0.56,0.12,-0.31,
1.184,0.21,-1.28,0.25,0.56,0.12,-0.31,
1.185,0.21,-1.28,0.25,0.57,0.09,-0.32,
1.185,0.21,-1.28,0.25,0.59,0.06,-0.33,
1.188,0.21,-1.28,0.25,0.60,0.02,-0.35,
1.189,0.21,-1.28,0.25,0.61,-0.00,-0.36,
1.191,0.21,-1.28,0.25,0.62,-0.04,-0.37,
1.193,0.25,-1.25,-0.37,0.62,-0.04,-0.37,
1.193,0.25,-1.25,-0.37,0.63,-0.08,-0.38,
1.195,0.25,-1.25,-0.37,0.64,-0.12,-0.38,
1.198,0.25,-1.25,-0.37,0.66,-0.18,-0.39,
1.2,0.25,-1.25,-0.37,0.66,-0.20,-0.40,
1.201,0.25,-1.25,-0.37,0.67,-0.24,-0.40,
1.203,0.07,-1.26,-0.77,0.67,-0.24,-0.40,
1.203,0.07,-1.26,-0.77,0.68,-0.28,-0.40,
1.205,0.07,-1.26,-0.77,0.69,-0.33,-0.40,
1.208,0.07,-1.26,-0.77,0.70,-0.38,-0.39,
1.209,0.07,-1.26,-0.77,0.70,-0.40,-0.39,
1.211,0.07,-1.26,-0.77,0.71,-0.44,-0.38,
1.213,-0.17,-1.36,-1.10,0.71,-0.44,-0.38,
1.213,-0.17,-1.36,-1.10,0.71,-0.48,-0.38,
1.215,-0.17,-1.36,-1.10,0.72,-0.51,-0.37,
1.219,-0.17,-1.36,-1.10,0.72,-0.57,-0.35,
1.219,-0.17,-1.36,-1.10,0.72,-0.58,-0.34,
1.221,-0.17,-1.36,-1.10,0.72,-0.62,-0.33,
1.223,-0.31,-1.48,-1.41,0.72,-0.62,-0.33,
1.223,-0.31,-1.48,-1.41,0.71,-0.65,-0.31,
1.225,-0.31,-1.48,-1.41,0.71,-0.68,-0.30,
1.228,-0.31,-1.48,-1.41,0.70,-0.72,-0.27,
1.229,-0.31,-1.48,-1.41,0.69,-0.73,-0.26,
1.231,-0.31,-1.48,-1.41,0.68,-0.75,-0.24,
1.235,-0.34,-1.60,-1.64,0.68,-0.75,-0.24,
1.236,-0.34,-1.60,-1.64,0.67,-0.77,-0.22,
1.236,-0.34,-1.60,-1.64,0.66,-0.79,-0.21,
1.239,-0.34,-1.60,-1.64,0.63,-0.81,-0.19,
1.24,-0.34,-1.60,-1.64,0.63,-0.82,-0.18,
1.241,-0.34,-1.60,-1.64,0.61,-0.83,-0.16,
1.244,-0.28,-1.55,-1.73,0.61,-0.83,-0.16,
1.244,-0.28,-1.55,-1.73,0.60,-0.85,-0.15,
1.245,-0.28,-1.55,-1.73,0.58,-0.86,-0.14,
1.248,-0.28,-1.55,-1.73,0.56,-0.87,-0.13,
1.25,-0.28,-1.55,-1.73,0.55,-0.88,-0.13,
1.251,-0.28,-1.55,-1.73,0.54,-0.89,-0.13,
1.253,0.05,-1.36,-1.66,0.54,-0.89,-0.13,
1.253,0.05,-1.36,-1.66,0.52,-0.89,-0.13,
1.259,0.05,-1.36,-1.66,0.51,-0.90,-0.13,
1.259,0.05,-1.36,-1.66,0.49,-0.92,-0.14,
1.26,0.05,-1.36,-1.66,0.48,-0.92,-0.15,
1.262,0.05,-1.36,-1.66,0.47,-0.92,-0.16,
1.264,0.58,-1.11,-1.62,0.47,-0.92,-0.16,
1.264,0.58,-1.11,-1.62,0.45,-0.93,-0.17,
1.265,0.58,-1.11,-1.62,0.44,-0.93,-0.19,
1.269,0.58,-1.11,-1.62,0.42,-0.93,-0.21,
1.286,0.58,-1.11,-1.62,0.41,-0.93,-0.22,
1.286,0.58,-1.11,-1.62,0.39,-0.92,-0.24,
1.286,1.02,-0.92,-1.63,0.39,-0.92,-0.24,
1.286,1.02,-0.92,-1.63,0.37,-0.92,-0.26,
1.287,1.02,-0.92,-1.63,0.36,-0.91,-0.28,
1.287,1.02,-0.92,-1.63,0.32,-0.90,-0.31,
1.287,1.02,-0.92,-1.63,0.31,-0.89,-0.32,
1.287,1.02,-0.92,-1.63,0.28,-0.87,-0.34,
1.288,1.24,-0.73,-1.77,0.28,-0.87,-0.34,
1.288,1.24,-0.73,-1.77,0.25,-0.86,-0.36,
1.288,1.24,-0.73,-1.77,0.22,-0.83,-0.38,
1.291,1.24,-0.73,-1.77,0.17,-0.80,-0.41,
1.291,1.24,-0.73,-1.77,0.15,-0.79,-0.42,
1.291,1.24,-0.73,-1.77,0.10,-0.75,-0.45,
1.293,1.36,-0.61,-2.12,0.10,-0.75,-0.45,
1.294,1.36,-0.61,-2.12,0.06,-0.72,-0.47,
1.295,1.36,-0.61,-2.12,0.01,-0.68,-0.49,
1.298,1.36,-0.61,-2.12,-0.06,-0.62,-0.53,
1.3,1.36,-0.61,-2.12,-0.09,-0.60,-0.54,
1.303,1.36,-0.61,-2.12,-0.14,-0.55,-0.57,
1.305,1.37,-0.57,-2.35,-0.14,-0.55,-0.57,
1.305,1.37,-0.57,-2.35,-0.19,-0.51,-0.59,
1.305,1.37,-0.57,-2.35,-0.24,-0.46,-0.61,
1.311,1.37,-0.57,-2.35,-0.32,-0.38,-0.65,
1.311,1.37,-0.57,-2.35,-0.34,-0.36,-0.66,
1.312,1.37,-0.57,-2.35,-0.40,-0.31,-0.68,
1.313,1.37,-0.60,-2.39,-0.40,-0.31,-0.68,
1.313,1.37,-0.60,-2.39,-0.45,-0.26,-0.70,
1.315,1.37,-0.60,-2.39,-0.50,-0.22,-0.72,
1.318,1.37,-0.60,-2.39,-0.58,-0.15,-0.76,
1.32,1.37,-0.60,-2.39,-0.60,-0.13,-0.77,
1.321,1.37,-0.60,-2.39,-0.66,-0.09,-0.78,
1.323,1.13,-0.64,-2.36,-0.66,-0.09,-0.78,
1.323,1.13,-0.64,-2.36,-0.71,-0.05,-0.80,
1.325,1.13,-0.64,-2.36,-0.76,-0.01,-0.81,
1.328,1.13,-0.64,-2.36,-0.83,0.05,-0.83,
1.329,1.13,-0.64,-2.36,-0.85,0.07,-0.83,
1.331,1.13,-0.64,-2.36,-0.90,0.11,-0.84,
1.333,0.40,-0.54,-2.04,-0.90,0.11,-0.84,
1.334,0.40,-0.54,-2.04,-0.93,0.15,-0.84,
1.335,0.40,-0.54,-2.04,-0.96,0.18,-0.83,
1.338,0.40,-0.54,-2.04,-1.00,0.24,-0.82,
1.339,0.40,-0.54,-2.04,-1.02,0.26,-0.81,
1.341,0.40,-0.54,-2.04,-1.04,0.29,-0.80,
1.343,-0.43,-0.43,-1.33,-1.04,0.29,-0.80,
1.343,-0.43,-0.43,-1.33,-1.05,0.33,-0.79,
1.345,-0.43,-0.43,-1.33,-1.06,0.35,-0.77,
1.348,-0.43,-0.43,-1.33,-1.06,0.38,-0.75,
1.354,-0.43,-0.43,-1.33,-1.06,0.39,-0.74,
1.354,-0.43,-0.43,-1.33,-1.05,0.40,-0.72,
1.355,-0.76,-0.49,-0.37,-1.05,0.40,-0.72,
1.355,-0.76,-0.49,-0.37,-1.04,0.41,-0.71,
1.355,-0.76,-0.49,-0.37,-1.02,0.41,-0.70,
1.358,-0.76,-0.49,-0.37,-0.98,0.40,-0.67,
1.359,-0.76,-0.49,-0.37,-0.97,0.40,-0.67,
1.387,-0.76,-0.49,-0.37,-0.94,0.39,-0.66,
1.387,-0.72,-0.56,0.46,-0.94,0.39,-0.66,
1.387,-0.72,-0.56,0.46,-0.90,0.37,-0.65,
1.387,-0.72,-0.56,0.46,-0.87,0.35,-0.63,
1.388,-0.72,-0.56,0.46,-0.80,0.31,-0.62,
1.388,-0.72,-0.56,0.46,-0.75,0.29,-0.61,
1.388,-0.72,-0.56,0.46,-0.70,0.26,-0.61,
1.388,-0.56,-0.44,1.10,-0.70,0.26,-0.61,
1.388,-0.56,-0.44,1.10,-0.68,0.25,-0.61,
1.388,-0.56,-0.44,1.10,-0.62,0.22,-0.61,
1.389,-0.56,-0.44,1.10,-0.54,0.18,-0.60,
1.389,-0.56,-0.44,1.10,-0.51,0.17,-0.60,
1.389,-0.56,-0.44,1.10,-0.45,0.14,-0.60,
1.389,-0.35,-0.22,1.42,-0.45,0.14,-0.60,
1.389,-0.35,-0.22,1.42,-0.39,0.11,-0.60,
1.39,-0.35,-0.22,1.42,-0.33,0.09,-0.60,
1.39,-0.35,-0.22,1.42,-0.24,0.05,-0.60,
1.39,-0.35,-0.22,1.42,-0.21,0.03,-0.61,
1.391,-0.35,-0.22,1.42,-0.15,0.00,-0.61,
1.393,-0.16,-0.03,1.33,-0.15,0.00,-0.61,
1.396,-0.16,-0.03,1.33,-0.03,-0.04,-0.61,
1.397,-0.16,-0.03,1.33,-0.03,-0.04,-0.61,
1.398,-0.16,-0.03,1.33,0.04,-0.07,-0.61,
1.402,-0.16,-0.03,1.33,0.09,-0.09,-0.60,
1.403,-0.16,-0.03,1.33,0.12,-0.09,-0.60,
1.404,-0.22,0.15,0.72,0.12,-0.09,-0.60,
1.405,-0.22,0.15,0.72,0.16,-0.10,-0.60,
1.405,-0.22,0.15,0.72,0.19,-0.11,-0.60,
1.408,-0.22,0.15,0.72,0.23,-0.12,-0.58,
1.409,-0.22,0.15,0.72,0.24,-0.13,-0.58,
1.412,-0.22,0.15,0.72,0.26,-0.13,-0.57,
1.415,-0.41,0.36,-0.49,0.26,-0.13,-0.57,
1.415,-0.41,0.36,-0.49,0.27,-0.13,-0.56,
1.417,-0.41,0.36,-0.49,0.28,-0.13,-0.55,
1.418,-0.41,0.36,-0.49,0.27,-0.14,-0.54,
1.419,-0.41,0.36,-0.49,0.27,-0.14,-0.53,
1.421,-0.41,0.36,-0.49,0.26,-0.14,-0.52,
1.423,-0.54,0.48,-1.76,0.26,-0.14,-0.52,
1.423,-0.54,0.48,-1.76,0.24,-0.14,-0.51,
1.425,-0.54,0.48,-1.76,0.23,-0.14,-0.50,
1.429,-0.54,0.48,-1.76,0.20,-0.13,-0.49,
1.429,-0.54,0.48,-1.76,0.19,-0.13,-0.48,
1.431,-0.54,0.48,-1.76,0.16,-0.13,-0.47,
1.437,-0.59,0.72,-2.62,0.16,-0.13,-0.47,
1.438,-0.59,0.72,-2.62,0.14,-0.13,-0.47,
1.463,-0.59,0.72,-2.62,0.11,-0.14,-0.46,
1.463,-0.59,0.72,-2.62,0.08,-0.15,-0.45,
1.464,-0.59,0.72,-2.62,0.07,-0.15,-0.45,
1.464,-0.59,0.72,-2.62,0.04,-0.16,-0.45,
1.464,-0.44,0.89,-2.94,0.04,-0.16,-0.45,
1.465,-0.44,0.89,-2.94,0.02,-0.16,-0.44,
1.465,-0.44,0.89,-2.94,-0.00,-0.17,-0.44,
1.465,-0.44,0.89,-2.94,-0.04,-0.19,-0.44,
1.465,-0.44,0.89,-2.94,-0.05,-0.20,-0.44,
1.466,-0.44,0.89,-2.94,-0.06,-0.21,-0.44,
1.466,-0.28,1.03,-2.91,-0.06,-0.21,-0.44,
1.466,-0.28,1.03,-2.91,-0.08,-0.23,-0.44,
1.466,-0.28,1.03,-2.91,-0.10,-0.26,-0.44,
1.467,-0.28,1.03,-2.91,-0.12,-0.29,-0.44,
1.467,-0.28,1.03,-2.91,-0.12,-0.31,-0.45,
1.467,-0.28,1.03,-2.91,-0.13,-0.33,-0.45,
1.468,-0.02,1.02,-2.49,-0.13,-0.33,-0.45,
1.468,-0.02,1.02,-2.49,-0.14,-0.36,-0.46,
1.468,-0.02,1.02,-2.49,-0.14,-0.38,-0.47,
1.468,-0.02,1.02,-2.49,-0.14,-0.41,-0.48,
1.475,-0.02,1.02,-2.49,-0.14,-0.43,-0.49,
1.475,-0.02,1.02,-2.49,-0.14,-0.44,-0.49,
1.475,0.18,1.04,-1.99,-0.14,-0.44,-0.49,
1.476,0.18,1.04,-1.99,-0.13,-0.46,-0.49,
1.476,0.18,1.04,-1.99,-0.12,-0.48,-0.50,
1.478,0.18,1.04,-1.99,-0.10,-0.50,-0.51,
1.48,0.18,1.04,-1.99,-0.09,-0.51,-0.51,
1.481,0.18,1.04,-1.99,-0.08,-0.52,-0.52,
1.484,0.24,1.02,-1.45,-0.08,-0.52,-0.52,
1.484,0.24,1.02,-1.45,-0.06,-0.53,-0.53,
1.485,0.24,1.02,-1.45,-0.05,-0.54,-0.53,
1.488,0.24,1.02,-1.45,-0.03,-0.54,-0.54,
1.489,0.24,1.02,-1.45,-0.01,-0.55,-0.54,
1.491,0.24,1.02,-1.45,-0.01,-0.55,-0.54,
1.493,0.14,1.10,-1.27,-0.01,-0.55,-0.54,
1.493,0.14,1.10,-1.27,0.01,-0.55,-0.55,
1.495,0.14,1.10,-1.27,0.01,-0.56,-0.55,
1.504,0.14,1.10,-1.27,0.02,-0.56,-0.56,
1.504,0.14,1.10,-1.27,0.03,-0.56,-0.56,
1.505,0.14,1.10,-1.27,0.03,-0.56,-0.56,
1.505,-0.01,1.06,-1.43,0.03,-0.56,-0.56,
1.505,-0.01,1.06,-1.43,0.03,-0.57,-0.56,
1.505,-0.01,1.06,-1.43,0.02,-0.57,-0.56,
1.511,-0.01,1.06,-1.43,0.01,-0.58,-0.56,
1.512,-0.01,1.06,-1.43,-0.00,-0.58,-0.56,
1.512,-0.01,1.06,-1.43,-0.01,-0.58,-0.56,
1.514,-0.34,1.01,-1.82,-0.01,-0.58,-0.56,
1.531,-0.34,1.01,-1.82,-0.03,-0.57,-0.55,
1.532,-0.34,1.01,-1.82,-0.05,-0.57,-0.54,
1.532,-0.34,1.01,-1.82,-0.09,-0.56,-0.52,
1.532,-0.34,1.01,-1.82,-0.12,-0.55,-0.51,
1.533,-0.34,1.01,-1.82,-0.13,-0.54,-0.50,
1.533,-0.73,0.85,-2.12,-0.13,-0.54,-0.50,
1.533,-0.73,0.85,-2.12,-0.16,-0.53,-0.49,
1.533,-0.73,0.85,-2.12,-0.19,-0.51,-0.47,
1.533,-0.73,0.85,-2.12,-0.25,-0.48,-0.44,
1.534,-0.73,0.85,-2.12,-0.29,-0.46,-0.41,
1.534,-0.73,0.85,-2.12,-0.31,-0.44,-0.40,
1.534,-1.12,0.71,-2.33,-0.31,-0.44,-0.40,
1.534,-1.12,0.71,-2.33,-0.36,-0.42,-0.37,
1.536,-1.12,0.71,-2.33,-0.40,-0.39,-0.34,
1.538,-1.12,0.71,-2.33,-0.47,-0.34,-0.30,
1.539,-1.12,0.71,-2.33,-0.52,-0.31,-0.27,
1.541,-1.12,0.71,-2.33,-0.54,-0.29,-0.26,
1.543,-1.32,0.55,-2.25,-0.54,-0.29,-0.26,
1.543,-1.32,0.55,-2.25,-0.59,-0.26,-0.23,
1.545,-1.32,0.55,-2.25,-0.63,-0.23,-0.20,
1.549,-1.32,0.55,-2.25,-0.68,-0.19,-0.16,
1.55,-1.32,0.55,-2.25,-0.72,-0.17,-0.14,
1.552,-1.32,0.55,-2.25,-0.73,-0.16,-0.13,
1.554,-1.31,0.55,-1.57,-0.73,-0.16,-0.13,
1.554,-1.31,0.55,-1.57,-0.76,-0.13,-0.10,
1.555,-1.31,0.55,-1.57,-0.78,-0.11,-0.08,
1.558,-1.31,0.55,-1.57,-0.80,-0.08,-0.04,
1.559,-1.31,0.55,-1.57,-0.81,-0.07,-0.02,
1.561,-1.31,0.55,-1.57,-0.82,-0.06,-0.01,
1.567,-1.00,0.65,-0.54,-0.82,-0.06,-0.01,
1.569,-1.00,0.65,-0.54,-0.82,-0.05,0.01,
1.569,-1.00,0.65,-0.54,-0.82,-0.04,0.03,
1.571,-1.00,0.65,-0.54,-0.81,-0.01,0.04,
1.572,-1.00,0.65,-0.54,-0.80,0.00,0.05,
1.574,-1.00,0.65,-0.54,-0.80,0.01,0.06,
1.575,-0.40,0.94,0.44,-0.80,0.01,0.06,
1.575,-0.40,0.94,0.44,-0.78,0.02,0.06,
1.575,-0.40,0.94,0.44,-0.76,0.02,0.06,
1.578,-0.40,0.94,0.44,-0.73,0.01,0.05,
1.579,-0.40,0.94,0.44,-0.70,0.00,0.04,
1.582,-0.40,0.94,0.44,-0.69,-0.00,0.03,
1.584,0.26,1.05,1.21,-0.69,-0.00,0.03,
1.584,0.26,1.05,1.21,-0.66,-0.02,0.02,
1.585,0.26,1.05,1.21,-0.63,-0.05,0.00,
1.588,0.26,1.05,1.21,-0.58,-0.10,-0.02,
1.589,0.26,1.05,1.21,-0.54,-0.14,-0.04,
1.591,0.26,1.05,1.21,-0.52,-0.15,-0.05,
1.593,0.41,1.13,1.91,-0.52,-0.15,-0.05,
1.593,0.41,1.13,1.91,-0.48,-0.18,-0.07,
1.595,0.41,1.13,1.91,-0.44,-0.21,-0.08,
1.599,0.41,1.13,1.91,-0.39,-0.24,-0.09,
1.601,0.41,1.13,1.91,-0.35,-0.26,-0.10,
1.602,0.41,1.13,1.91,-0.34,-0.26,-0.10,
1.622,0.10,1.10,1.96,-0.34,-0.26,-0.10,
1.622,0.10,1.10,1.96,-0.31,-0.28,-0.10,
1.623,0.10,1.10,1.96,-0.29,-0.29,-0.09,
1.623,0.10,1.10,1.96,-0.25,-0.30,-0.08,
1.623,0.10,1.10,1.96,-0.24,-0.31,-0.08,
1.624,0.10,1.10,1.96,-0.23,-0.31,-0.07,
1.624,-0.36,0.97,1.72,-0.23,-0.31,-0.07,
1.624,-0.36,0.97,1.72,-0.21,-0.31,-0.07,
1.624,-0.36,0.97,1.72,-0.20,-0.32,-0.06,
1.625,-0.36,0.97,1.72,-0.17,-0.32,-0.06,
1.625,-0.36,0.97,1.72,-0.16,-0.32,-0.06,
1.625,-0.36,0.97,1.72,-0.15,-0.32,-0.06,
1.625,-0.42,0.88,1.77,-0.15,-0.32,-0.06,
1.626,-0.42,0.88,1.77,-0.14,-0.31,-0.05,
1.626,-0.42,0.88,1.77,-0.13,-0.31,-0.05,
1.631,-0.42,0.88,1.77,-0.11,-0.31,-0.04,
1.631,-0.42,0.88,1.77,-0.10,-0.31,-0.04,
1.632,-0.42,0.88,1.77,-0.09,-0.30,-0.04,
1.634,-0.51,0.79,1.93,-0.09,-0.30,-0.04,
1.634,-0.51,0.79,1.93,-0.08,-0.29,-0.03,
1.637,-0.51,0.79,1.93,-0.06,-0.28,-0.02,
1.638,-0.51,0.79,1.93,-0.04,-0.27,-0.01,
1.639,-0.51,0.79,1.93,-0.03,-0.25,-0.00,
1.641,-0.51,0.79,1.93,-0.02,-0.24,0.00,
1.643,-0.53,0.72,2.31,-0.02,-0.24,0.00,
1.643,-0.53,0.72,2.31,0.00,-0.22,0.01,
1.648,-0.53,0.72,2.31,0.02,-0.20,0.02,
1.649,-0.53,0.72,2.31,0.05,-0.16,0.04,
1.649,-0.53,0.72,2.31,0.07,-0.12,0.05,
1.652,-0.53,0.72,2.31,0.09,-0.10,0.06,
1.654,-0.58,0.74,2.58,0.09,-0.10,0.06,
1.654,-0.58,0.74,2.58,0.11,-0.06,0.06,
1.655,-0.58,0.74,2.58,0.13,-0.02,0.07,
1.658,-0.58,0.74,2.58,0.16,0.04,0.09,
1.659,-0.58,0.74,2.58,0.18,0.08,0.09,
1.661,-0.58,0.74,2.58,0.19,0.10,0.10,
1.663,-0.53,0.89,2.33,0.19,0.10,0.10,
1.663,-0.53,0.89,2.33,0.20,0.14,0.10,
1.669,-0.53,0.89,2.33,0.21,0.16,0.10,
1.671,-0.53,0.89,2.33,0.22,0.20,0.11,
1.671,-0.53,0.89,2.33,0.22,0.21,0.11,
1.672,-0.53,0.89,2.33,0.22,0.22,0.11,
1.699,-0.53,1.09,1.56,0.22,0.22,0.11,
1.7,-0.53,1.09,1.56,0.22,0.22,0.11,
1.7,-0.53,1.09,1.56,0.21,0.22,0.11,
1.7,-0.53,1.09,1.56,0.19,0.22,0.10,
1.701,-0.53,1.09,1.56,0.18,0.22,0.10,
1.701,-0.53,1.09,1.56,0.17,0.21,0.09,
1.701,-0.47,1.26,0.74,0.17,0.21,0.09,
1.701,-0.47,1.26,0.74,0.15,0.20,0.09,
1.701,-0.47,1.26,0.74,0.13,0.19,0.08,
1.701,-0.47,1.26,0.74,0.09,0.17,0.07,
1.701,-0.47,1.26,0.74,0.07,0.15,0.06,
1.702,-0.47,1.26,0.74,0.05,0.14,0.05,
1.702,-0.43,1.43,0.09,0.05,0.14,0.05,
1.702,-0.43,1.43,0.09,0.02,0.13,0.04,
1.702,-0.43,1.43,0.09,-0.02,0.10,0.03,
1.702,-0.43,1.43,0.09,-0.05,0.09,0.02,
1.702,-0.43,1.43,0.09,-0.08,0.07,0.01,
1.702,-0.43,1.43,0.09,-0.09,0.07,0.00,
1.704,-0.56,1.39,-0.07,-0.09,0.07,0.00,
1.705,-0.56,1.39,-0.07,-0.13,0.05,-0.01,
1.705,-0.56,1.39,-0.07,-0.16,0.04,-0.01,
1.708,-0.56,1.39,-0.07,-0.18,0.03,-0.02,
1.709,-0.56,1.39,-0.07,-0.20,0.02,-0.02,
1.711,-0.56,1.39,-0.07,-0.22,0.01,-0.02,
1.713,-1.00,1.12,0.30,-0.22,0.01,-0.02,
1.714,-1.00,1.12,0.30,-0.24,0.01,-0.02,
1.717,-1.00,1.12,0.30,-0.26,-0.00,-0.01,
1.718,-1.00,1.12,0.30,-0.27,-0.01,-0.01,
1.719,-1.00,1.12,0.30,-0.28,-0.01,0.00,
1.722,-1.00,1.12,0.30,-0.29,-0.02,0.02,
1.725,-1.30,0.59,0.95,-0.29,-0.02,0.02,
1.725,-1.30,0.59,0.95,-0.29,-0.02,0.03,
1.726,-1.30,0.59,0.95,-0.29,-0.02,0.04,
1.728,-1.30,0.59,0.95,-0.28,-0.01,0.06,
1.729,-1.30,0.59,0.95,-0.27,-0.01,0.07,
1.734,-1.30,0.59,0.95,-0.26,-0.00,0.09,
1.734,-1.60,0.08,1.74,-0.26,-0.00,0.09,
1.734,-1.60,0.08,1.74,-0.25,0.02,0.11,
1.737,-1.60,0.08,1.74,-0.23,0.03,0.13,
1.738,-1.60,0.08,1.74,-0.21,0.05,0.15,
1.74,-1.60,0.08,1.74,-0.18,0.07,0.17,
1.741,-1.60,0.08,1.74,-0.16,0.09,0.19,
1.743,-1.71,-0.34,2.42,-0.16,0.09,0.19,
1.744,-1.71,-0.34,2.42,-0.13,0.11,0.21,
1.745,-1.71,-0.34,2.42,-0.09,0.13,0.23,
1.749,-1.71,-0.34,2.42,-0.06,0.14,0.25,
1.749,-1.71,-0.34,2.42,-0.02,0.17,0.27,
1.751,-1.71,-0.34,2.42,0.02,0.19,0.29,
1.753,-1.80,-0.59,2.87,0.02,0.19,0.29,
1.753,-1.80,-0.59,2.87,0.06,0.21,0.31,
1.755,-1.80,-0.59,2.87,0.10,0.23,0.33,
1.758,-1.80,-0.59,2.87,0.15,0.25,0.34,
1.759,-1.80,-0.59,2.87,0.19,0.26,0.36,
1.761,-1.80,-0.59,2.87,0.23,0.28,0.37,
1.763,-1.70,-0.67,2.84,0.23,0.28,0.37,
1.764,-1.70,-0.67,2.84,0.27,0.29,0.39,
1.777,-1.70,-0.67,2.84,0.31,0.29,0.40,
1.777,-1.70,-0.67,2.84,0.35,0.30,0.42,
1.802,-1.70,-0.67,2.84,0.39,0.29,0.43,
1.802,-1.70,-0.67,2.84,0.42,0.29,0.44,
1.803,-1.70,-0.68,2.39,0.42,0.29,0.44,
1.803,-1.70,-0.68,2.39,0.46,0.28,0.46,
1.803,-1.70,-0.68,2.39,0.49,0.28,0.47,
1.804,-1.70,-0.68,2.39,0.52,0.27,0.48,
1.804,-1.70,-0.68,2.39,0.54,0.26,0.49,
1.804,-1.70,-0.68,2.39,0.56,0.24,0.50,
1.804,-1.62,-0.53,1.58,0.56,0.24,0.50,
1.805,-1.62,-0.53,1.58,0.58,0.23,0.51,
1.805,-1.62,-0.53,1.58,0.59,0.21,0.51,
1.805,-1.62,-0.53,1.58,0.60,0.20,0.52,
1.805,-1.62,-0.53,1.58,0.60,0.18,0.52,
1.806,-1.62,-0.53,1.58,0.61,0.16,0.53,
1.806,-1.50,-0.29,0.73,0.61,0.16,0.53,
1.806,-1.50,-0.29,0.73,0.61,0.13,0.53,
1.806,-1.50,-0.29,0.73,0.60,0.10,0.52,
1.807,-1.50,-0.29,0.73,0.59,0.07,0.52,
1.807,-1.50,-0.29,0.73,0.59,0.04,0.52,
1.807,-1.50,-0.29,0.73,0.57,0.01,0.51,
1.807,-1.22,-0.02,0.16,0.57,0.01,0.51,
1.808,-1.22,-0.02,0.16,0.56,-0.02,0.51,
1.808,-1.22,-0.02,0.16,0.55,-0.06,0.50,
1.808,-1.22,-0.02,0.16,0.53,-0.09,0.49,
1.815,-1.22,-0.02,0.16,0.51,-0.13,0.48,
1.816,-1.22,-0.02,0.16,0.49,-0.16,0.47,
1.816,-0.93,0.14,0.00,0.49,-0.16,0.47,
1.816,-0.93,0.14,0.00,0.48,-0.19,0.46,
1.816,-0.93,0.14,0.00,0.46,-0.23,0.44,
1.818,-0.93,0.14,0.00,0.44,-0.26,0.43,
1.82,-0.93,0.14,0.00,0.42,-0.29,0.42,
1.821,-0.93,0.14,0.00,0.41,-0.32,0.40,
1.823,-0.77,0.08,0.30,0.41,-0.32,0.40,
1.823,-0.77,0.08,0.30,0.39,-0.35,0.39,
1.825,-0.77,0.08,0.30,0.37,-0.38,0.38,
1.828,-0.77,0.08,0.30,0.36,-0.41,0.37,
1.829,-0.77,0.08,0.30,0.34,-0.43,0.36,
1.832,-0.77,0.08,0.30,0.31,-0.46,0.35,
1.833,-0.82,-0.19,0.65,0.31,-0.46,0.35,
1.834,-0.82,-0.19,0.65,0.29,-0.48,0.34,
1.836,-0.82,-0.19,0.65,0.26,-0.50,0.34,
1.838,-0.82,-0.19,0.65,0.24,-0.51,0.33,
1.839,-0.82,-0.19,0.65,0.21,-0.52,0.33,
1.841,-0.82,-0.19,0.65,0.18,-0.52,0.34,
1.843,-1.14,-0.55,0.82,0.18,-0.52,0.34,
1.843,-1.14,-0.55,0.82,0.15,-0.51,0.34,
1.845,-1.14,-0.55,0.82,0.12,-0.50,0.35,
1.848,-1.14,-0.55,0.82,0.10,-0.48,0.36,
1.852,-1.14,-0.55,0.82,0.08,-0.46,0.38,
1.852,-1.14,-0.55,0.82,0.05,-0.44,0.39,
1.853,-1.51,-0.84,1.25,0.05,-0.44,0.39,
1.853,-1.51,-0.84,1.25,0.04,-0.42,0.41,
1.855,-1.51,-0.84,1.25,0.02,-0.40,0.42,
1.858,-1.51,-0.84,1.25,0.00,-0.37,0.43,
1.859,-1.51,-0.84,1.25,-0.01,-0.35,0.44,
1.861,-1.51,-0.84,1.25,-0.03,-0.32,0.46,
1.863,-1.45,-1.09,1.75,-0.03,-0.32,0.46,
1.863,-1.45,-1.09,1.75,-0.04,-0.28,0.47,
1.866,-1.45,-1.09,1.75,-0.05,-0.25,0.49,
1.869,-1.45,-1.09,1.75,-0.06,-0.21,0.50,
1.87,-1.45,-1.09,1.75,-0.06,-0.17,0.52,
1.871,-1.45,-1.09,1.75,-0.06,-0.12,0.53,
1.875,-1.47,-1.29,2.06,-0.06,-0.12,0.53,
1.876,-1.47,-1.29,2.06,-0.06,-0.08,0.55,
1.876,-1.47,-1.29,2.06,-0.06,-0.04,0.56,
1.878,-1.47,-1.29,2.06,-0.06,-0.01,0.57,
1.879,-1.47,-1.29,2.06,-0.05,0.02,0.58,
1.882,-1.47,-1.29,2.06,-0.04,0.04,0.59,
1.889,-1.14,-1.17,2.47,-0.04,0.04,0.59,
1.89,-1.14,-1.17,2.47,-0.02,0.07,0.59,
1.89,-1.14,-1.17,2.47,-0.00,0.09,0.59,
1.89,-1.14,-1.17,2.47,0.02,0.11,0.60,
1.891,-1.14,-1.17,2.47,0.04,0.14,0.60,
1.891,-1.14,-1.17,2.47,0.07,0.16,0.59,
1.895,-0.77,-1.16,2.77,0.07,0.16,0.59,
1.896,-0.77,-1.16,2.77,0.10,0.18,0.59,
1.896,-0.77,-1.16,2.77,0.14,0.19,0.57,
1.905,-0.77,-1.16,2.77,0.21,0.23,0.55,
1.905,-0.77,-1.16,2.77,0.21,0.23,0.55,
1.905,-0.77,-1.16,2.77,0.25,0.24,0.53,
1.906,-0.25,-1.24,2.60,0.25,0.24,0.53,
1.906,-0.25,-1.24,2.60,0.29,0.25,0.51,
1.906,-0.25,-1.24,2.60,0.33,0.27,0.50,
1.909,-0.25,-1.24,2.60,0.37,0.28,0.49,
1.91,-0.25,-1.24,2.60,0.42,0.29,0.47,
1.913,-0.25,-1.24,2.60,0.46,0.29,0.47,
1.933,-0.44,-0.90,2.24,0.46,0.29,0.47,
1.934,-0.44,-0.90,2.24,0.50,0.29,0.46,
1.934,-0.44,-0.90,2.24,0.54,0.28,0.45,
1.935,-0.44,-0.90,2.24,0.59,0.27,0.44,
1.935,-0.44,-0.90,2.24,0.61,0.26,0.44,
1.935,-0.44,-0.90,2.24,0.64,0.25,0.43,
1.935,-0.53,-0.89,1.41,0.64,0.25,0.43,
1.935,-0.53,-0.89,1.41,0.67,0.23,0.43,
1.936,-0.53,-0.89,1.41,0.70,0.21,0.42,
1.936,-0.53,-0.89,1.41,0.73,0.19,0.41,
1.936,-0.53,-0.89,1.41,0.74,0.18,0.41,
1.936,-0.53,-0.89,1.41,0.76,0.17,0.41,
1.936,-0.60,-1.08,0.35,0.76,0.17,0.41,
1.937,-0.60,-1.08,0.35,0.77,0.16,0.40,
1.959,-0.60,-1.08,0.35,0.78,0.15,0.40,
1.96,-0.60,-1.08,0.35,0.80,0.15,0.41,
1.96,-0.60,-1.08,0.35,0.80,0.15,0.41,
1.96,-0.60,-1.08,0.35,0.80,0.15,0.41,
1.96,-0.81,-1.32,-0.76,0.80,0.15,0.41,
1.961,-0.81,-1.32,-0.76,0.80,0.15,0.42,
1.961,-0.81,-1.32,-0.76,0.79,0.14,0.43,
1.961,-0.81,-1.32,-0.76,0.78,0.13,0.44,
1.961,-0.81,-1.32,-0.76,0.77,0.12,0.44,
1.962,-0.81,-1.32,-0.76,0.76,0.10,0.45,
1.962,-0.99,-1.61,-1.63,0.76,0.10,0.45,
1.962,-0.99,-1.61,-1.63,0.74,0.06,0.46,
1.963,-0.99,-1.61,-1.63,0.73,0.03,0.47,
1.963,-0.99,-1.61,-1.63,0.70,-0.01,0.49,
1.963,-0.99,-1.61,-1.63,0.69,-0.02,0.49,
1.963,-0.99,-1.61,-1.63,0.67,-0.04,0.50,
1.964,-1.09,-1.73,-2.11,0.67,-0.04,0.50,
1.964,-1.09,-1.73,-2.11,0.65,-0.05,0.51,
1.969,-1.09,-1.73,-2.11,0.63,-0.06,0.53,
1.97,-1.09,-1.73,-2.11,0.61,-0.06,0.55,
1.97,-1.09,-1.73,-2.11,0.60,-0.06,0.56,
1.979,-1.09,-1.73,-2.11,0.58,-0.04,0.57,
1.98,-1.34,-1.76,-2.19,0.58,-0.04,0.57,
1.98,-1.34,-1.76,-2.19,0.56,-0.02,0.59,
1.981,-1.34,-1.76,-2.19,0.54,0.00,0.61,
1.981,-1.34,-1.76,-2.19,0.52,0.04,0.64,
1.981,-1.34,-1.76,-2.19,0.51,0.06,0.65,
1.982,-1.34,-1.76,-2.19,0.49,0.08,0.67,
1.984,-1.56,-1.51,-2.18,0.49,0.08,0.67,
1.985,-1.56,-1.51,-2.18,0.48,0.11,0.69,
1.985,-1.56,-1.51,-2.18,0.47,0.13,0.70,
1.989,-1.56,-1.51,-2.18,0.45,0.16,0.73,
1.99,-1.56,-1.51,-2.18,0.44,0.17,0.73,
1.993,-1.56,-1.51,-2.18,0.43,0.19,0.75,
1.993,-1.36,-1.36,-2.01,0.43,0.19,0.75,
1.994,-1.36,-1.36,-2.01,0.42,0.20,0.76,
1.995,-1.36,-1.36,-2.01,0.42,0.21,0.76,
1.998,-1.36,-1.36,-2.01,0.41,0.22,0.77,
1.999,-1.36,-1.36,-2.01,0.41,0.23,0.77,
2.002,-1.36,-1.36,-2.01,0.41,0.23,0.77,
2.004,-0.81,-1.23,-1.77,0.41,0.23,0.77,
2.004,-0.81,-1.23,-1.77,0.41,0.23,0.77,
2.005,-0.81,-1.23,-1.77,0.41,0.22,0.76,
2.008,-0.81,-1.23,-1.77,0.41,0.21,0.75,
2.009,-0.81,-1.23,-1.77,0.42,0.20,0.75,
2.011,-0.81,-1.23,-1.77,0.42,0.19,0.74,
2.014,-0.36,-1.08,-1.59,0.42,0.19,0.74,
2.015,-0.36,-1.08,-1.59,0.42,0.17,0.73,
2.015,-0.36,-1.08,-1.59,0.42,0.16,0.73,
2.018,-0.36,-1.08,-1.59,0.43,0.14,0.71,
2.019,-0.36,-1.08,-1.59,0.43,0.13,0.70,
2.021,-0.36,-1.08,-1.59,0.43,0.12,0.69,
2.023,-0.03,-0.93,-1.58,0.43,0.12,0.69,
2.023,-0.03,-0.93,-1.58,0.43,0.12,0.68,
2.025,-0.03,-0.93,-1.58,0.43,0.11,0.67,
2.028,-0.03,-0.93,-1.58,0.43,0.11,0.65,
2.029,-0.03,-0.93,-1.58,0.43,0.11,0.64,
2.031,-0.03,-0.93,-1.58,0.42,0.11,0.63,
2.033,0.09,-0.91,-1.77,0.42,0.11,0.63,
2.033,0.09,-0.91,-1.77,0.41,0.11,0.61,
2.036,0.09,-0.91,-1.77,0.40,0.11,0.60,
2.039,0.09,-0.91,-1.77,0.39,0.12,0.59,
2.039,0.09,-0.91,-1.77,0.38,0.13,0.59,
2.041,0.09,-0.91,-1.77,0.37,0.15,0.58,
2.043,-0.08,-0.94,-2.08,0.37,0.15,0.58,
2.044,-0.08,-0.94,-2.08,0.35,0.16,0.58,
2.045,-0.08,-0.94,-2.08,0.33,0.19,0.57,
2.054,-0.08,-0.94,-2.08,0.30,0.22,0.57,
2.055,-0.08,-0.94,-2.08,0.29,0.23,0.57,
2.055,-0.08,-0.94,-2.08,0.27,0.26,0.57,
2.069,-0.33,-1.05,-2.31,0.27,0.26,0.57,
2.07,-0.33,-1.05,-2.31,0.25,0.30,0.57,
2.07,-0.33,-1.05,-2.31,0.22,0.33,0.58,
2.07,-0.33,-1.05,-2.31,0.17,0.40,0.59,
2.071,-0.33,-1.05,-2.31,0.16,0.42,0.59,
2.071,-0.33,-1.05,-2.31,0.12,0.48,0.60,
2.071,-0.70,-1.24,-2.50,0.12,0.48,0.60,
2.071,-0.70,-1.24,-2.50,0.09,0.54,0.61,
2.071,-0.70,-1.24,-2.50,0.05,0.60,0.63,
2.072,-0.70,-1.24,-2.50,-0.00,0.70,0.65,
2.076,-0.70,-1.24,-2.50,-0.02,0.74,0.67,
2.076,-0.70,-1.24,-2.50,-0.09,0.84,0.70,
2.076,-1.03,-1.30,-2.62,-0.09,0.84,0.70,
2.077,-1.03,-1.30,-2.62,-0.10,0.87,0.71,
2.077,-1.03,-1.30,-2.62,-0.14,0.93,0.73,
2.081,-1.03,-1.30,-2.62,-0.20,1.01,0.75,
2.081,-1.03,-1.30,-2.62,-0.22,1.04,0.76,
2.081,-1.03,-1.30,-2.62,-0.25,1.08,0.78,
2.085,-1.12,-1.10,-2.35,-0.25,1.08,0.78,
2.086,-1.12,-1.10,-2.35,-0.28,1.12,0.79,
2.086,-1.12,-1.10,-2.35,-0.31,1.17,0.80,
2.09,-1.12,-1.10,-2.35,-0.35,1.21,0.82,
2.091,-1.12,-1.10,-2.35,-0.37,1.23,0.82,
2.091,-1.12,-1.10,-2.35,-0.39,1.24,0.83,
2.095,-1.07,-1.08,-1.87,-0.39,1.24,0.83,
2.096,-1.07,-1.08,-1.87,-0.41,1.26,0.84,
2.096,-1.07,-1.08,-1.87,-0.43,1.27,0.84,
2.099,-1.07,-1.08,-1.87,-0.46,1.26,0.84,
2.101,-1.07,-1.08,-1.87,-0.47,1.25,0.84,
2.101,-1.07,-1.08,-1.87,-0.47,1.24,0.84,
2.118,-0.80,-1.22,-1.24,-0.47,1.24,0.84,
2.119,-0.80,-1.22,-1.24,-0.48,1.22,0.84,
2.119,-0.80,-1.22,-1.24,-0.49,1.21,0.84,
2.119,-0.80,-1.22,-1.24,-0.49,1.17,0.83,
2.12,-0.80,-1.22,-1.24,-0.49,1.16,0.83,
2.12,-0.80,-1.22,-1.24,-0.48,1.12,0.83,
2.12,-0.67,-1.22,-0.36,-0.48,1.12,0.83,
2.12,-0.67,-1.22,-0.36,-0.48,1.08,0.82,
2.121,-0.67,-1.22,-0.36,-0.47,1.04,0.82,
2.121,-0.67,-1.22,-0.36,-0.45,0.99,0.80,
2.121,-0.67,-1.22,-0.36,-0.44,0.97,0.80,
2.121,-0.67,-1.22,-0.36,-0.42,0.93,0.79,
2.126,-0.52,-1.01,0.50,-0.42,0.93,0.79,
2.126,-0.52,-1.01,0.50,-0.40,0.89,0.78,
2.126,-0.52,-1.01,0.50,-0.38,0.84,0.77,
2.128,-0.52,-1.01,0.50,-0.34,0.75,0.76,
2.131,-0.52,-1.01,0.50,-0.32,0.72,0.75,
2.134,-0.52,-1.01,0.50,-0.29,0.66,0.73,
2.134,-0.25,-1.02,1.47,-0.29,0.66,0.73,
2.134,-0.25,-1.02,1.47,-0.26,0.61,0.72,
2.136,-0.25,-1.02,1.47,-0.22,0.56,0.70,
2.138,-0.25,-1.02,1.47,-0.17,0.50,0.68,
2.139,-0.25,-1.02,1.47,-0.15,0.48,0.68,
2.141,-0.25,-1.02,1.47,-0.11,0.44,0.67,
2.144,-0.11,-0.91,1.98,-0.11,0.44,0.67,
2.144,-0.11,-0.91,1.98,-0.07,0.40,0.66,
2.145,-0.11,-0.91,1.98,-0.03,0.36,0.65,
2.148,-0.11,-0.91,1.98,0.02,0.30,0.63,
2.15,-0.11,-0.91,1.98,0.04,0.28,0.63,
2.151,-0.11,-0.91,1.98,0.07,0.24,0.62,
2.153,-0.04,-0.88,2.06,0.07,0.24,0.62,
2.154,-0.04,-0.88,2.06,0.10,0.20,0.60,
2.155,-0.04,-0.88,2.06,0.12,0.16,0.59,
2.158,-0.04,-0.88,2.06,0.15,0.11,0.57,
2.159,-0.04,-0.88,2.06,0.16,0.09,0.56,
2.163,-0.04,-0.88,2.06,0.18,0.07,0.55,
2.166,0.02,-0.84,1.55,0.18,0.07,0.55,
2.167,0.02,-0.84,1.55,0.19,0.04,0.54,
2.167,0.02,-0.84,1.55,0.20,0.02,0.53,
2.172,0.02,-0.84,1.55,0.21,-0.02,0.51,
2.172,0.02,-0.84,1.55,0.21,-0.03,0.51,
2.173,0.02,-0.84,1.55,0.21,-0.04,0.50,
2.173,0.12,-0.84,1.11,0.21,-0.04,0.50,
2.174,0.12,-0.84,1.11,0.22,-0.06,0.49,
2.177,0.12,-0.84,1.11,0.22,-0.07,0.48,
2.178,0.12,-0.84,1.11,0.22,-0.09,0.47,
2.18,0.12,-0.84,1.11,0.22,-0.09,0.47,
2.181,0.12,-0.84,1.11,0.22,-0.10,0.46,
2.183,0.15,-0.75,0.79,0.22,-0.10,0.46,
2.184,0.15,-0.75,0.79,0.22,-0.11,0.46,
2.185,0.15,-0.75,0.79,0.22,-0.12,0.46,
2.188,0.15,-0.75,0.79,0.21,-0.13,0.45,
2.189,0.15,-0.75,0.79,0.21,-0.14,0.44,
2.191,0.15,-0.75,0.79,0.21,-0.14,0.44,
2.194,0.29,-0.60,0.49,0.21,-0.14,0.44,
2.194,0.29,-0.60,0.49,0.20,-0.15,0.43,
2.202,0.29,-0.60,0.49,0.19,-0.16,0.43,
2.203,0.29,-0.60,0.49,0.18,-0.18,0.42,
2.203,0.29,-0.60,0.49,0.18,-0.19,0.41,
2.203,0.29,-0.60,0.49,0.17,-0.20,0.41,
2.204,0.51,-0.41,0.22,0.17,-0.20,0.41,
2.204,0.51,-0.41,0.22,0.16,-0.21,0.40,
2.21,0.51,-0.41,0.22,0.15,-0.23,0.39,
2.21,0.51,-0.41,0.22,0.13,-0.25,0.38,
2.21,0.51,-0.41,0.22,0.13,-0.25,0.38,
2.211,0.51,-0.41,0.22,0.12,-0.27,0.38,
2.229,0.78,-0.22,0.09,0.12,-0.27,0.38,
2.23,0.78,-0.22,0.09,0.11,-0.28,0.37,
2.23,0.78,-0.22,0.09,0.10,-0.29,0.36,
2.23,0.78,-0.22,0.09,0.09,-0.31,0.35,
2.23,0.78,-0.22,0.09,0.08,-0.32,0.35,
2.23,0.78,-0.22,0.09,0.08,-0.33,0.34,
2.231,1.14,-0.03,0.08,0.08,-0.33,0.34,
2.231,1.14,-0.03,0.08,0.07,-0.34,0.33,
2.231,1.14,-0.03,0.08,0.06,-0.36,0.33,
2.231,1.14,-0.03,0.08,0.04,-0.38,0.31,
2.231,1.14,-0.03,0.08,0.03,-0.39,0.31,
2.242,1.14,-0.03,0.08,0.02,-0.40,0.30,
2.242,1.57,0.16,0.16,0.02,-0.40,0.30,
2.242,1.57,0.16,0.16,0.01,-0.42,0.28,
2.242,1.57,0.16,0.16,-0.00,-0.43,0.27,
2.242,1.57,0.16,0.16,-0.02,-0.46,0.24,
2.243,1.57,0.16,0.16,-0.03,-0.46,0.24,
2.243,1.57,0.16,0.16,-0.04,-0.47,0.22,
2.243,2.02,0.39,0.47,-0.04,-0.47,0.22,
2.243,2.02,0.39,0.47,-0.06,-0.48,0.20,
2.253,2.02,0.39,0.47,-0.07,-0.49,0.18,
2.253,2.02,0.39,0.47,-0.09,-0.49,0.15,
2.254,2.02,0.39,0.47,-0.09,-0.49,0.14,
2.254,2.02,0.39,0.47,-0.11,-0.48,0.11,
2.255,2.55,0.60,0.85,-0.11,-0.48,0.11,
2.255,2.55,0.60,0.85,-0.12,-0.48,0.09,
2.255,2.55,0.60,0.85,-0.13,-0.47,0.06,
2.258,2.55,0.60,0.85,-0.15,-0.46,0.02,
2.259,2.55,0.60,0.85,-0.16,-0.46,0.01,
2.261,2.55,0.60,0.85,-0.17,-0.46,-0.02,
2.265,2.91,0.75,1.24,-0.17,-0.46,-0.02,
2.266,2.91,0.75,1.24,-0.18,-0.45,-0.05,
2.267,2.91,0.75,1.24,-0.19,-0.45,-0.09,
2.268,2.91,0.75,1.24,-0.21,-0.45,-0.14,
2.3,2.91,0.75,1.24,-0.22,-0.45,-0.15,
2.301,2.91,0.75,1.24,-0.23,-0.45,-0.19,
2.301,3.17,0.85,1.43,-0.23,-0.45,-0.19,
2.302,3.17,0.85,1.43,-0.25,-0.45,-0.22,
2.302,3.17,0.85,1.43,-0.27,-0.45,-0.25,
2.303,3.17,0.85,1.43,-0.30,-0.46,-0.30,
2.303,3.17,0.85,1.43,-0.32,-0.46,-0.31,
2.303,3.17,0.85,1.43,-0.34,-0.47,-0.33,
2.304,3.14,0.60,1.55,-0.34,-0.47,-0.33,
2.304,3.14,0.60,1.55,-0.36,-0.47,-0.36,
2.305,3.14,0.60,1.55,-0.38,-0.48,-0.38,
2.305,3.14,0.60,1.55,-0.41,-0.48,-0.40,
2.305,3.14,0.60,1.55,-0.42,-0.48,-0.41,
2.306,3.14,0.60,1.55,-0.44,-0.48,-0.42,
2.306,2.99,0.23,1.94,-0.44,-0.48,-0.42,
2.307,2.99,0.23,1.94,-0.45,-0.48,-0.43,
2.307,2.99,0.23,1.94,-0.46,-0.47,-0.44,
2.308,2.99,0.23,1.94,-0.46,-0.47,-0.45,
2.308,2.99,0.23,1.94,-0.46,-0.47,-0.46,
2.308,2.99,0.23,1.94,-0.45,-0.47,-0.47,
2.309,2.78,-0.07,2.83,-0.45,-0.47,-0.47,
2.309,2.78,-0.07,2.83,-0.44,-0.46,-0.48,
2.31,2.78,-0.07,2.83,-0.42,-0.46,-0.48,
2.31,2.78,-0.07,2.83,-0.38,-0.45,-0.49,
2.31,2.78,-0.07,2.83,-0.37,-0.45,-0.49,
2.311,2.78,-0.07,2.83,-0.34,-0.45,-0.50,
2.321,2.61,-0.34,3.75,-0.34,-0.45,-0.50,
2.322,2.61,-0.34,3.75,-0.30,-0.44,-0.50,
2.322,2.61,-0.34,3.75,-0.26,-0.43,-0.50,
2.322,2.61,-0.34,3.75,-0.20,-0.42,-0.50,
2.323,2.61,-0.34,3.75,-0.18,-0.41,-0.49,
2.324,2.61,-0.34,3.75,-0.13,-0.40,-0.49,
2.324,2.28,-0.58,4.25,-0.13,-0.40,-0.49,
2.324,2.28,-0.58,4.25,-0.09,-0.39,-0.48,
2.326,2.28,-0.58,4.25,-0.04,-0.38,-0.47,
2.335,2.28,-0.58,4.25,0.03,-0.36,-0.45,
2.335,2.28,-0.58,4.25,0.06,-0.35,-0.44,
2.335,2.28,-0.58,4.25,0.10,-0.34,-0.43,
2.336,1.95,-0.74,4.14,0.10,-0.34,-0.43,
2.336,1.95,-0.74,4.14,0.15,-0.34,-0.42,
2.336,1.95,-0.74,4.14,0.19,-0.33,-0.41,
2.338,1.95,-0.74,4.14,0.25,-0.33,-0.39,
2.339,1.95,-0.74,4.14,0.27,-0.34,-0.38,
2.341,1.95,-0.74,4.14,0.30,-0.34,-0.37,
2.343,1.65,-0.67,3.54,0.30,-0.34,-0.37,
2.344,1.65,-0.67,3.54,0.33,-0.34,-0.36,
2.354,1.65,-0.67,3.54,0.36,-0.35,-0.34,
2.354,1.65,-0.67,3.54,0.40,-0.36,-0.32,
2.354,1.65,-0.67,3.54,0.41,-0.36,-0.32,
2.355,1.65,-0.67,3.54,0.43,-0.37,-0.30,
2.355,1.51,-0.56,2.57,0.43,-0.37,-0.30,
2.355,1.51,-0.56,2.57,0.44,-0.38,-0.29,
2.355,1.51,-0.56,2.57,0.46,-0.38,-0.28,
2.358,1.51,-0.56,2.57,0.46,-0.41,-0.27,
2.36,1.51,-0.56,2.57,0.46,-0.41,-0.27,
2.38,1.51,-0.56,2.57,0.46,-0.43,-0.26,
2.381,1.34,-0.35,1.47,0.46,-0.43,-0.26,
2.381,1.34,-0.35,1.47,0.46,-0.45,-0.26,
2.381,1.34,-0.35,1.47,0.45,-0.47,-0.26,
2.381,1.34,-0.35,1.47,0.44,-0.51,-0.26,
2.381,1.34,-0.35,1.47,0.43,-0.52,-0.26,
2.382,1.34,-0.35,1.47,0.42,-0.55,-0.26,
2.382,1.27,-0.15,0.51,0.42,-0.55,-0.26,
2.382,1.27,-0.15,0.51,0.40,-0.57,-0.26,
2.382,1.27,-0.15,0.51,0.38,-0.60,-0.26,
2.382,1.27,-0.15,0.51,0.35,-0.63,-0.27,
2.383,1.27,-0.15,0.51,0.34,-0.64,-0.27,
2.383,1.27,-0.15,0.51,0.31,-0.67,-0.28,
2.394,1.21,0.15,-0.22,0.31,-0.67,-0.28,
2.395,1.21,0.15,-0.22,0.29,-0.70,-0.29,
2.395,1.21,0.15,-0.22,0.26,-0.72,-0.29,
2.395,1.21,0.15,-0.22,0.22,-0.75,-0.31,
2.395,1.21,0.15,-0.22,0.21,-0.76,-0.31,
2.396,1.21,0.15,-0.22,0.18,-0.78,-0.32,
2.396,1.20,0.24,-0.64,0.18,-0.78,-0.32,
2.396,1.20,0.24,-0.64,0.13,-0.81,-0.33,
2.396,1.20,0.24,-0.64,0.13,-0.81,-0.33,
2.402,1.20,0.24,-0.64,0.09,-0.82,-0.34,
2.402,1.20,0.24,-0.64,0.08,-0.83,-0.34,
2.402,1.20,0.24,-0.64,0.05,-0.83,-0.35,
2.403,1.06,0.25,-0.80,0.05,-0.83,-0.35,
2.404,1.06,0.25,-0.80,0.02,-0.84,-0.36,
2.405,1.06,0.25,-0.80,-0.00,-0.84,-0.36,
2.408,1.06,0.25,-0.80,-0.04,-0.84,-0.37,
2.409,1.06,0.25,-0.80,-0.06,-0.84,-0.37,
2.415,1.06,0.25,-0.80,-0.09,-0.83,-0.37,
2.415,0.98,0.15,-0.76,-0.09,-0.83,-0.37,
2.415,0.98,0.15,-0.76,-0.11,-0.83,-0.38,
2.416,0.98,0.15,-0.76,-0.14,-0.82,-0.38,
2.419,0.98,0.15,-0.76,-0.17,-0.79,-0.39,
2.42,0.98,0.15,-0.76,-0.18,-0.79,-0.39,
2.423,0.98,0.15,-0.76,-0.21,-0.75,-0.40,
2.426,0.86,0.01,-0.55,-0.21,-0.75,-0.40,
2.427,0.86,0.01,-0.55,-0.22,-0.74,-0.41,
2.428,0.86,0.01,-0.55,-0.24,-0.71,-0.41,
2.441,0.86,0.01,-0.55,-0.26,-0.66,-0.42,
2.442,0.86,0.01,-0.55,-0.27,-0.64,-0.42,
2.443,0.86,0.01,-0.55,-0.28,-0.60,-0.42,
2.444,0.73,-0.19,-0.24,-0.28,-0.60,-0.42,
2.444,0.73,-0.19,-0.24,-0.29,-0.56,-0.42,
2.47,0.73,-0.19,-0.24,-0.29,-0.51,-0.42,
2.47,0.73,-0.19,-0.24,-0.30,-0.44,-0.42,
2.471,0.73,-0.19,-0.24,-0.29,-0.41,-0.42,
2.471,0.73,-0.19,-0.24,-0.29,-0.36,-0.41,
2.471,0.42,-0.27,0.11,-0.29,-0.36,-0.41,
2.471,0.42,-0.27,0.11,-0.28,-0.31,-0.41,
2.472,0.42,-0.27,0.11,-0.27,-0.25,-0.41,
2.472,0.42,-0.27,0.11,-0.25,-0.17,-0.40,
2.472,0.42,-0.27,0.11,-0.24,-0.14,-0.40,
2.473,0.42,-0.27,0.11,-0.23,-0.08,-0.40,
2.473,0.11,-0.29,0.20,-0.23,-0.08,-0.40,
2.473,0.11,-0.29,0.20,-0.21,-0.02,-0.39,
2.473,0.11,-0.29,0.20,-0.19,0.04,-0.39,
2.474,0.11,-0.29,0.20,-0.16,0.12,-0.38,
2.474,0.11,-0.29,0.20,-0.16,0.14,-0.38,
2.474,0.11,-0.29,0.20,-0.14,0.18,-0.37,
2.474,-0.09,-0.36,-0.25,-0.14,0.18,-0.37,
2.475,-0.09,-0.36,-0.25,-0.12,0.22,-0.37,
2.475,-0.09,-0.36,-0.25,-0.10,0.25,-0.37,
2.475,-0.09,-0.36,-0.25,-0.08,0.30,-0.36,
2.475,-0.09,-0.36,-0.25,-0.07,0.31,-0.36,
2.476,-0.09,-0.36,-0.25,-0.06,0.33,-0.36,
2.476,-0.31,-0.44,-1.04,-0.06,0.33,-0.36,
2.476,-0.31,-0.44,-1.04,-0.04,0.35,-0.36,
2.476,-0.31,-0.44,-1.04,-0.03,0.36,-0.36,
2.483,-0.31,-0.44,-1.04,-0.02,0.37,-0.35,
2.483,-0.31,-0.44,-1.04,-0.01,0.37,-0.35,
2.484,-0.31,-0.44,-1.04,-0.01,0.36,-0.35,
2.484,-0.60,-0.39,-2.01,-0.01,0.36,-0.35,
2.484,-0.60,-0.39,-2.01,-0.00,0.35,-0.35,
2.487,-0.60,-0.39,-2.01,0.00,0.34,-0.35,
2.488,-0.60,-0.39,-2.01,0.00,0.32,-0.35,
2.492,-0.60,-0.39,-2.01,0.00,0.31,-0.34,
2.492,-0.60,-0.39,-2.01,-0.00,0.28,-0.34,
2.495,-0.93,-0.30,-2.99,-0.00,0.28,-0.34,
2.496,-0.93,-0.30,-2.99,-0.01,0.27,-0.34,
2.496,-0.93,-0.30,-2.99,-0.01,0.25,-0.33,
2.505,-0.93,-0.30,-2.99,-0.02,0.21,-0.32,
2.506,-0.93,-0.30,-2.99,-0.03,0.20,-0.32,
2.506,-0.93,-0.30,-2.99,-0.04,0.18,-0.32,
2.506,-1.20,-0.29,-3.84,-0.04,0.18,-0.32,
2.506,-1.20,-0.29,-3.84,-0.06,0.15,-0.31,
2.506,-1.20,-0.29,-3.84,-0.07,0.13,-0.30,
2.513,-1.20,-0.29,-3.84,-0.09,0.10,-0.29,
2.513,-1.20,-0.29,-3.84,-0.10,0.09,-0.28,
2.536,-1.20,-0.29,-3.84,-0.12,0.06,-0.27,
2.537,-1.44,-0.30,-4.37,-0.12,0.06,-0.27,
2.537,-1.44,-0.30,-4.37,-0.14,0.04,-0.26,
2.537,-1.44,-0.30,-4.37,-0.15,0.01,-0.24,
2.537,-1.44,-0.30,-4.37,-0.18,-0.03,-0.22,
2.538,-1.44,-0.30,-4.37,-0.19,-0.04,-0.21,
2.538,-1.44,-0.30,-4.37,-0.21,-0.06,-0.20,
2.538,-1.62,-0.39,-4.46,-0.21,-0.06,-0.20,
2.538,-1.62,-0.39,-4.46,-0.22,-0.09,-0.19,
2.538,-1.62,-0.39,-4.46,-0.24,-0.11,-0.17,
2.539,-1.62,-0.39,-4.46,-0.26,-0.14,-0.16,
2.539,-1.62,-0.39,-4.46,-0.27,-0.15,-0.15,
2.539,-1.62,-0.39,-4.46,-0.28,-0.17,-0.14,
2.539,-1.63,-0.43,-4.10,-0.28,-0.17,-0.14,
2.539,-1.63,-0.43,-4.10,-0.28,-0.19,-0.13,
2.539,-1.63,-0.43,-4.10,-0.29,-0.20,-0.12,
2.54,-1.63,-0.43,-4.10,-0.30,-0.22,-0.11,
2.54,-1.63,-0.43,-4.10,-0.30,-0.23,-0.10,
2.541,-1.63,-0.43,-4.10,-0.30,-0.24,-0.09,
2.543,-1.29,-0.54,-3.51,-0.30,-0.24,-0.09,
2.544,-1.29,-0.54,-3.51,-0.30,-0.25,-0.09,
2.546,-1.29,-0.54,-3.51,-0.30,-0.25,-0.08,
2.548,-1.29,-0.54,-3.51,-0.29,-0.26,-0.08,
2.549,-1.29,-0.54,-3.51,-0.29,-0.26,-0.07,
2.552,-1.29,-0.54,-3.51,-0.29,-0.25,-0.07,
2.553,-1.00,-0.52,-3.01,-0.29,-0.25,-0.07,
2.554,-1.00,-0.52,-3.01,-0.29,-0.25,-0.07,
2.555,-1.00,-0.52,-3.01,-0.29,-0.24,-0.06,
2.558,-1.00,-0.52,-3.01,-0.29,-0.22,-0.06,
2.559,-1.00,-0.52,-3.01,-0.29,-0.21,-0.06,
2.561,-1.00,-0.52,-3.01,-0.29,-0.20,-0.06,
2.563,-0.70,-0.55,-2.67,-0.29,-0.20,-0.06,
2.563,-0.70,-0.55,-2.67,-0.28,-0.18,-0.07,
2.565,-0.70,-0.55,-2.67,-0.28,-0.16,-0.07,
2.568,-0.70,-0.55,-2.67,-0.28,-0.13,-0.07,
2.569,-0.70,-0.55,-2.67,-0.28,-0.12,-0.07,
2.571,-0.70,-0.55,-2.67,-0.28,-0.10,-0.08,
2.573,-0.49,-0.61,-2.43,-0.28,-0.10,-0.08,
2.573,-0.49,-0.61,-2.43,-0.27,-0.07,-0.08,
2.575,-0.49,-0.61,-2.43,-0.27,-0.05,-0.08,
2.578,-0.49,-0.61,-2.43,-0.27,-0.00,-0.08,
2.579,-0.49,-0.61,-2.43,-0.27,0.01,-0.08,
2.581,-0.49,-0.61,-2.43,-0.27,0.04,-0.08,
2.583,-0.44,-0.69,-2.25,-0.27,0.04,-0.08,
2.584,-0.44,-0.69,-2.25,-0.27,0.07,-0.08,
2.585,-0.44,-0.69,-2.25,-0.27,0.10,-0.08,
2.588,-0.44,-0.69,-2.25,-0.26,0.14,-0.08,
2.589,-0.44,-0.69,-2.25,-0.26,0.16,-0.08,
2.591,-0.44,-0.69,-2.25,-0.25,0.19,-0.07,
2.6,-0.44,-0.84,-2.09,-0.25,0.19,-0.07,
2.601,-0.44,-0.84,-2.09,-0.25,0.22,-0.07,
2.601,-0.44,-0.84,-2.09,-0.24,0.25,-0.06,
2.601,-0.44,-0.84,-2.09,-0.23,0.30,-0.05,
2.602,-0.44,-0.84,-2.09,-0.23,0.32,-0.05,
2.602,-0.44,-0.84,-2.09,-0.22,0.35,-0.05,
2.627,-0.53,-1.01,-2.03,-0.22,0.35,-0.05,
2.627,-0.53,-1.01,-2.03,-0.21,0.38,-0.04,
2.627,-0.53,-1.01,-2.03,-0.20,0.40,-0.03,
2.627,-0.53,-1.01,-2.03,-0.18,0.44,-0.02,
2.628,-0.53,-1.01,-2.03,-0.17,0.45,-0.01,
2.628,-0.53,-1.01,-2.03,-0.16,0.47,-0.01,
2.628,-0.75,-1.19,-2.06,-0.16,0.47,-0.01,
2.628,-0.75,-1.19,-2.06,-0.14,0.48,0.00,
2.628,-0.75,-1.19,-2.06,-0.13,0.49,0.01,
2.628,-0.75,-1.19,-2.06,-0.10,0.50,0.03,
2.629,-0.75,-1.19,-2.06,-0.10,0.50,0.04,
2.629,-0.75,-1.19,-2.06,-0.08,0.50,0.06,
2.629,-1.08,-1.33,-2.22,-0.08,0.50,0.06,
2.629,-1.08,-1.33,-2.22,-0.06,0.50,0.07,
2.629,-1.08,-1.33,-2.22,-0.04,0.51,0.09,
2.629,-1.08,-1.33,-2.22,0.00,0.50,0.13,
2.63,-1.08,-1.33,-2.22,0.01,0.50,0.14,
2.632,-1.08,-1.33,-2.22,0.04,0.50,0.17,
2.634,-1.41,-1.52,-2.26,0.04,0.50,0.17,
2.634,-1.41,-1.52,-2.26,0.07,0.50,0.19,
2.635,-1.41,-1.52,-2.26,0.11,0.49,0.22,
2.638,-1.41,-1.52,-2.26,0.16,0.49,0.26,
2.639,-1.41,-1.52,-2.26,0.18,0.48,0.27,
2.641,-1.41,-1.52,-2.26,0.22,0.47,0.30,
2.644,-1.49,-1.56,-2.24,0.22,0.47,0.30,
2.644,-1.49,-1.56,-2.24,0.26,0.47,0.32,
2.645,-1.49,-1.56,-2.24,0.30,0.46,0.35,
2.648,-1.49,-1.56,-2.24,0.36,0.45,0.38,
2.649,-1.49,-1.56,-2.24,0.38,0.44,0.39,
2.651,-1.49,-1.56,-2.24,0.42,0.43,0.41,
2.653,-1.34,-1.55,-2.38,0.42,0.43,0.41,
2.653,-1.34,-1.55,-2.38,0.47,0.42,0.43,
2.655,-1.34,-1.55,-2.38,0.51,0.41,0.44,
2.658,-1.34,-1.55,-2.38,0.57,0.39,0.47,
2.659,-1.34,-1.55,-2.38,0.59,0.38,0.48,
2.661,-1.34,-1.55,-2.38,0.63,0.37,0.50,
2.664,-1.14,-1.52,-2.78,0.63,0.37,0.50,
2.664,-1.14,-1.52,-2.78,0.66,0.35,0.52,
2.665,-1.14,-1.52,-2.78,0.70,0.33,0.54,
2.668,-1.14,-1.52,-2.78,0.74,0.30,0.56,
2.669,-1.14,-1.52,-2.78,0.75,0.29,0.57,
2.671,-1.14,-1.52,-2.78,0.78,0.27,0.59,
2.673,-1.12,-1.41,-3.32,0.78,0.27,0.59,
2.673,-1.12,-1.41,-3.32,0.80,0.25,0.61,
2.675,-1.12,-1.41,-3.32,0.82,0.23,0.62,
2.678,-1.12,-1.41,-3.32,0.85,0.20,0.64,
2.68,-1.12,-1.41,-3.32,0.85,0.20,0.65,
2.681,-1.12,-1.41,-3.32,0.87,0.18,0.67,
2.683,-1.19,-1.29,-3.85,0.87,0.18,0.67,
2.684,-1.19,-1.29,-3.85,0.88,0.17,0.68,
2.685,-1.19,-1.29,-3.85,0.89,0.16,0.70,
2.688,-1.19,-1.29,-3.85,0.90,0.14,0.72,
2.689,-1.19,-1.29,-3.85,0.90,0.14,0.73,
2.691,-1.19,-1.29,-3.85,0.90,0.13,0.74,
2.694,-1.32,-1.05,-4.41,0.90,0.13,0.74,
2.696,-1.32,-1.05,-4.41,0.90,0.12,0.76,
2.696,-1.32,-1.05,-4.41,0.89,0.11,0.78,
2.698,-1.32,-1.05,-4.41,0.88,0.09,0.80,
2.7,-1.32,-1.05,-4.41,0.87,0.09,0.81,
2.701,-1.32,-1.05,-4.41,0.86,0.08,0.83,
2.703,-1.41,-0.95,-4.88,0.86,0.08,0.83,
2.704,-1.41,-0.95,-4.88,0.84,0.06,0.85,
2.705,-1.41,-0.95,-4.88,0.81,0.05,0.87,
2.708,-1.41,-0.95,-4.88,0.77,0.03,0.90,
2.709,-1.41,-0.95,-4.88,0.75,0.03,0.91,
2.712,-1.41,-0.95,-4.88,0.72,0.01,0.93,
2.714,-1.46,-0.84,-5.17,0.72,0.01,0.93,
2.715,-1.46,-0.84,-5.17,0.68,0.00,0.95,
2.715,-1.46,-0.84,-5.17,0.64,-0.00,0.96,
2.718,-1.46,-0.84,-5.17,0.59,-0.02,0.99,
2.719,-1.46,-0.84,-5.17,0.57,-0.02,1.00,
2.721,-1.46,-0.84,-5.17,0.53,-0.03,1.01,
2.723,-1.15,-0.66,-4.78,0.53,-0.03,1.01,
2.724,-1.15,-0.66,-4.78,0.50,-0.03,1.03,
2.725,-1.15,-0.66,-4.78,0.46,-0.03,1.05,
2.731,-1.15,-0.66,-4.78,0.41,-0.04,1.07,
2.732,-1.15,-0.66,-4.78,0.39,-0.04,1.08,
2.732,-1.15,-0.66,-4.78,0.35,-0.03,1.10,
2.733,-0.92,-0.56,-4.04,0.35,-0.03,1.10,
2.733,-0.92,-0.56,-4.04,0.31,-0.03,1.12,
2.735,-0.92,-0.56,-4.04,0.27,-0.03,1.14,
2.738,-0.92,-0.56,-4.04,0.21,-0.01,1.16,
2.739,-0.92,-0.56,-4.04,0.19,-0.01,1.17,
2.741,-0.92,-0.56,-4.04,0.15,-0.00,1.19,
2.752,-0.64,-0.52,-3.16,0.15,-0.00,1.19,
2.752,-0.64,-0.52,-3.16,0.11,0.01,1.20,
2.752,-0.64,-0.52,-3.16,0.07,0.02,1.21,
2.752,-0.64,-0.52,-3.16,0.01,0.03,1.22,
2.752,-0.64,-0.52,-3.16,-0.00,0.04,1.22,
2.753,-0.64,-0.52,-3.16,-0.04,0.05,1.22,
2.754,-0.10,-0.41,-2.19,-0.04,0.05,1.22,
2.754,-0.10,-0.41,-2.19,-0.07,0.07,1.23,
2.755,-0.10,-0.41,-2.19,-0.10,0.08,1.23,
2.758,-0.10,-0.41,-2.19,-0.15,0.10,1.23,
2.76,-0.10,-0.41,-2.19,-0.16,0.11,1.23,
2.764,-0.10,-0.41,-2.19,-0.18,0.14,1.23,
2.766,0.32,-0.46,-0.99,-0.18,0.14,1.23,
2.766,0.32,-0.46,-0.99,-0.20,0.15,1.23,
2.767,0.32,-0.46,-0.99,-0.21,0.17,1.23,
2.768,0.32,-0.46,-0.99,-0.22,0.19,1.24,
2.791,0.32,-0.46,-0.99,-0.22,0.20,1.24,
2.791,0.32,-0.46,-0.99,-0.23,0.23,1.24,
2.791,0.69,-0.43,0.35,-0.23,0.23,1.24,
2.792,0.69,-0.43,0.35,-0.22,0.24,1.24,
2.792,0.69,-0.43,0.35,-0.21,0.26,1.24,
2.792,0.69,-0.43,0.35,-0.20,0.29,1.23,
2.792,0.69,-0.43,0.35,-0.19,0.30,1.22,
2.793,0.69,-0.43,0.35,-0.16,0.32,1.21,
2.793,1.46,-0.29,1.61,-0.16,0.32,1.21,
2.793,1.46,-0.29,1.61,-0.13,0.33,1.18,
2.794,1.46,-0.29,1.61,-0.10,0.35,1.16,
2.794,1.46,-0.29,1.61,-0.04,0.35,1.11,
2.794,1.46,-0.29,1.61,-0.01,0.35,1.09,
2.794,1.46,-0.29,1.61,0.04,0.35,1.05,
2.795,2.45,-0.08,2.64,0.04,0.35,1.05,
2.795,2.45,-0.08,2.64,0.09,0.34,1.01,
2.8,2.45,-0.08,2.64,0.14,0.33,0.97,
2.807,2.45,-0.08,2.64,0.23,0.32,0.90,
2.808,2.45,-0.08,2.64,0.26,0.31,0.88,
2.809,2.45,-0.08,2.64,0.31,0.31,0.84,
2.811,2.80,0.16,3.00,0.31,0.31,0.84,
2.811,2.80,0.16,3.00,0.36,0.32,0.80,
2.811,2.80,0.16,3.00,0.41,0.33,0.76,
2.811,2.80,0.16,3.00,0.48,0.36,0.70,
2.812,2.80,0.16,3.00,0.50,0.37,0.69,
2.812,2.80,0.16,3.00,0.53,0.40,0.65,
2.816,2.55,0.22,2.41,0.53,0.40,0.65,
2.816,2.55,0.22,2.41,0.56,0.43,0.62,
2.817,2.55,0.22,2.41,0.58,0.46,0.59,
2.818,2.55,0.22,2.41,0.59,0.50,0.55,
2.819,2.55,0.22,2.41,0.59,0.52,0.54,
2.821,2.55,0.22,2.41,0.59,0.54,0.51,
2.823,1.84,0.20,1.05,0.59,0.54,0.51,
2.823,1.84,0.20,1.05,0.58,0.57,0.49,
2.825,1.84,0.20,1.05,0.56,0.59,0.47,
2.828,1.84,0.20,1.05,0.52,0.62,0.45,
2.83,1.84,0.20,1.05,0.50,0.63,0.45,
2.832,1.84,0.20,1.05,0.47,0.65,0.44,
2.833,0.97,0.17,-0.32,0.47,0.65,0.44,
2.834,0.97,0.17,-0.32,0.42,0.66,0.43,
2.835,0.97,0.17,-0.32,0.37,0.67,0.42,
2.838,0.97,0.17,-0.32,0.29,0.68,0.42,
2.839,0.97,0.17,-0.32,0.27,0.68,0.42,
2.841,0.97,0.17,-0.32,0.21,0.68,0.42,
2.849,0.33,0.11,-0.99,0.21,0.68,0.42,
2.849,0.33,0.11,-0.99,0.15,0.68,0.43,
2.849,0.33,0.11,-0.99,0.09,0.67,0.43,
2.85,0.33,0.11,-0.99,0.01,0.66,0.44,
2.85,0.33,0.11,-0.99,-0.02,0.66,0.44,
2.851,0.33,0.11,-0.99,-0.06,0.65,0.44,
2.857,0.14,-0.05,-0.38,-0.06,0.65,0.44,
2.857,0.14,-0.05,-0.38,-0.10,0.64,0.45,
2.857,0.14,-0.05,-0.38,-0.14,0.63,0.45,
2.858,0.14,-0.05,-0.38,-0.18,0.61,0.44,
2.869,0.14,-0.05,-0.38,-0.19,0.60,0.44,
2.869,0.14,-0.05,-0.38,-0.21,0.59,0.43,
2.869,0.45,-0.11,1.24,-0.21,0.59,0.43,
2.869,0.45,-0.11,1.24,-0.23,0.57,0.43,
2.869,0.45,-0.11,1.24,-0.24,0.56,0.42,
2.869,0.45,-0.11,1.24,-0.24,0.55,0.41,
2.87,0.45,-0.11,1.24,-0.24,0.54,0.40,
2.871,0.45,-0.11,1.24,-0.23,0.54,0.40,
2.873,0.84,-0.23,2.92,-0.23,0.54,0.40,
2.873,0.84,-0.23,2.92,-0.22,0.54,0.39,
2.875,0.84,-0.23,2.92,-0.21,0.54,0.38,
2.878,0.84,-0.23,2.92,-0.18,0.56,0.37,
2.879,0.84,-0.23,2.92,-0.17,0.57,0.37,
2.886,0.84,-0.23,2.92,-0.15,0.59,0.37,
2.887,0.94,-0.07,4.03,-0.15,0.59,0.37,
2.888,0.94,-0.07,4.03,-0.13,0.62,0.36,
2.888,0.94,-0.07,4.03,-0.11,0.65,0.36,
2.889,0.94,-0.07,4.03,-0.09,0.69,0.36,
2.89,0.94,-0.07,4.03,-0.08,0.71,0.36,
2.892,0.94,-0.07,4.03,-0.07,0.72,0.37,
2.894,0.57,0.67,4.27,-0.07,0.72,0.37,
2.895,0.57,0.67,4.27,-0.06,0.73,0.37,
2.896,0.57,0.67,4.27,-0.07,0.72,0.37,
2.9,0.57,0.67,4.27,-0.10,0.64,0.38,
2.901,0.57,0.67,4.27,-0.10,0.64,0.38,
2.902,0.57,0.67,4.27,-0.14,0.57,0.39,
2.907,0.34,1.09,3.35,-0.14,0.57,0.39,
2.908,0.34,1.09,3.35,-0.18,0.49,0.39,
2.908,0.34,1.09,3.35,-0.24,0.38,0.39,
2.908,0.34,1.09,3.35,-0.34,0.20,0.39,
2.911,0.34,1.09,3.35,-0.38,0.13,0.38,
2.911,0.34,1.09,3.35,-0.46,-0.00,0.37,
2.915,0.76,0.98,2.61,-0.46,-0.00,0.37,
2.915,0.76,0.98,2.61,-0.54,-0.14,0.36,
2.916,0.76,0.98,2.61,-0.62,-0.27,0.34,
2.918,0.76,0.98,2.61,-0.71,-0.45,0.31,
2.919,0.76,0.98,2.61,-0.74,-0.51,0.30,
2.921,0.76,0.98,2.61,-0.79,-0.61,0.27,
2.924,1.77,0.87,4.31,-0.79,-0.61,0.27,
2.925,1.77,0.87,4.31,-0.83,-0.69,0.24,
2.925,1.77,0.87,4.31,-0.85,-0.76,0.21,
2.928,1.77,0.87,4.31,-0.88,-0.83,0.16,
2.929,1.77,0.87,4.31,-0.87,-0.84,0.14,
2.931,1.77,0.87,4.31,-0.87,-0.87,0.12,
2.935,2.80,0.74,7.45,-0.87,-0.87,0.12,
2.936,2.80,0.74,7.45,-0.85,-0.89,0.08,
2.962,2.80,0.74,7.45,-0.83,-0.89,0.05,
2.962,2.80,0.74,7.45,-0.79,-0.88,0.01,
2.964,2.80,0.74,7.45,-0.77,-0.87,0.00,
2.965,2.80,0.74,7.45,-0.73,-0.84,-0.02,
2.965,3.21,0.35,9.97,-0.73,-0.84,-0.02,
2.966,3.21,0.35,9.97,-0.69,-0.80,-0.05,
2.967,3.21,0.35,9.97,-0.64,-0.74,-0.07,
2.967,3.21,0.35,9.97,-0.56,-0.63,-0.09,
2.968,3.21,0.35,9.97,-0.54,-0.58,-0.10,
2.969,3.21,0.35,9.97,-0.49,-0.49,-0.12,
2.969,3.24,-0.25,10.98,-0.49,-0.49,-0.12,
2.971,3.24,-0.25,10.98,-0.44,-0.39,-0.13,
2.972,3.24,-0.25,10.98,-0.39,-0.29,-0.13,
2.972,3.24,-0.25,10.98,-0.32,-0.13,-0.14,
2.973,3.24,-0.25,10.98,-0.30,-0.08,-0.14,
2.974,3.24,-0.25,10.98,-0.26,0.02,-0.14,
2.975,2.74,-0.58,10.33,-0.26,0.02,-0.14,
2.976,2.74,-0.58,10.33,-0.22,0.11,-0.13,
2.976,2.74,-0.58,10.33,-0.19,0.19,-0.13,
2.977,2.74,-0.58,10.33,-0.16,0.29,-0.12,
2.977,2.74,-0.58,10.33,-0.15,0.31,-0.12,
2.977,2.74,-0.58,10.33,-0.13,0.36,-0.12,
2.978,2.20,-0.51,8.35,-0.13,0.36,-0.12,
2.978,2.20,-0.51,8.35,-0.13,0.39,-0.11,
2.978,2.20,-0.51,8.35,-0.13,0.41,-0.12,
2.979,2.20,-0.51,8.35,-0.13,0.43,-0.12,
2.979,2.20,-0.51,8.35,-0.14,0.42,-0.12,
2.99,2.20,-0.51,8.35,-0.15,0.41,-0.13,
2.991,1.84,-0.29,5.92,-0.15,0.41,-0.13,
2.991,1.84,-0.29,5.92,-0.16,0.38,-0.13,
2.991,1.84,-0.29,5.92,-0.18,0.35,-0.14,
2.992,1.84,-0.29,5.92,-0.20,0.29,-0.15,
2.992,1.84,-0.29,5.92,-0.21,0.27,-0.16,
2.992,1.84,-0.29,5.92,-0.23,0.23,-0.17,
2.995,1.63,0.05,4.14,-0.23,0.23,-0.17,
2.996,1.63,0.05,4.14,-0.24,0.18,-0.18,
2.996,1.63,0.05,4.14,-0.26,0.13,-0.20,
2.998,1.63,0.05,4.14,-0.30,0.06,-0.21,
2.999,1.63,0.05,4.14,-0.31,0.03,-0.22,
3.001,1.63,0.05,4.14,-0.33,-0.01,-0.24,
3.003,1.56,0.31,3.01,-0.33,-0.01,-0.24,
3.004,1.56,0.31,3.01,-0.36,-0.06,-0.26,
3.005,1.56,0.31,3.01,-0.38,-0.10,-0.27,
3.017,1.56,0.31,3.01,-0.41,-0.15,-0.29,
3.018,1.56,0.31,3.01,-0.42,-0.16,-0.30,
3.019,1.56,0.31,3.01,-0.43,-0.17,-0.32,
3.019,1.54,0.25,2.65,-0.43,-0.17,-0.32,
3.019,1.54,0.25,2.65,-0.45,-0.18,-0.33,
3.02,1.54,0.25,2.65,-0.45,-0.18,-0.35,
3.02,1.54,0.25,2.65,-0.45,-0.17,-0.37,
3.02,1.54,0.25,2.65,-0.45,-0.16,-0.37,
3.059,1.54,0.25,2.65,-0.44,-0.13,-0.38,
3.061,1.38,0.06,2.80,-0.44,-0.13,-0.38,
3.062,1.38,0.06,2.80,-0.43,-0.11,-0.39,
3.062,1.38,0.06,2.80,-0.42,-0.07,-0.39,
3.062,1.38,0.06,2.80,-0.39,-0.02,-0.39,
3.063,1.38,0.06,2.80,-0.37,0.00,-0.39,
3.063,1.38,0.06,2.80,-0.35,0.04,-0.39,
3.063,0.97,-0.23,2.79,-0.35,0.04,-0.39,
3.064,0.97,-0.23,2.79,-0.32,0.07,-0.39,
3.064,0.97,-0.23,2.79,-0.29,0.11,-0.38,
3.064,0.97,-0.23,2.79,-0.25,0.16,-0.37,
3.064,0.97,-0.23,2.79,-0.23,0.17,-0.37,
3.065,0.97,-0.23,2.79,-0.21,0.20,-0.37,
3.065,0.63,-0.43,2.10,-0.21,0.20,-0.37,
3.065,0.63,-0.43,2.10,-0.18,0.23,-0.37,
3.066,0.63,-0.43,2.10,-0.15,0.25,-0.36,
3.066,0.63,-0.43,2.10,-0.11,0.29,-0.36,
3.066,0.63,-0.43,2.10,-0.10,0.30,-0.35,
3.066,0.63,-0.43,2.10,-0.07,0.33,-0.35,
3.067,0.16,-0.43,0.90,-0.07,0.33,-0.35,
3.067,0.16,-0.43,0.90,-0.05,0.34,-0.34,
3.067,0.16,-0.43,0.90,-0.02,0.36,-0.33,
3.068,0.16,-0.43,0.90,0.01,0.38,-0.32,
3.068,0.16,-0.43,0.90,0.01,0.39,-0.32,
3.068,0.16,-0.43,0.90,0.04,0.40,-0.31,
3.068,-0.30,-0.44,-0.45,0.04,0.40,-0.31,
3.069,-0.30,-0.44,-0.45,0.05,0.41,-0.30,
3.069,-0.30,-0.44,-0.45,0.07,0.42,-0.30,
3.069,-0.30,-0.44,-0.45,0.09,0.43,-0.29,
3.069,-0.30,-0.44,-0.45,0.10,0.43,-0.28,
3.071,-0.30,-0.44,-0.45,0.11,0.44,-0.28,
3.074,-0.56,-0.54,-1.76,0.11,0.44,-0.28,
3.074,-0.56,-0.54,-1.76,0.13,0.44,-0.27,
3.075,-0.56,-0.54,-1.76,0.14,0.44,-0.27,
3.081,-0.56,-0.54,-1.76,0.15,0.43,-0.26,
3.082,-0.56,-0.54,-1.76,0.16,0.42,-0.26,
3.083,-0.56,-0.54,-1.76,0.16,0.42,-0.26,
3.084,-0.63,-0.62,-3.00,0.16,0.42,-0.26,
3.084,-0.63,-0.62,-3.00,0.17,0.40,-0.26,
3.085,-0.63,-0.62,-3.00,0.18,0.39,-0.26,
3.089,-0.63,-0.62,-3.00,0.19,0.36,-0.26,
3.09,-0.63,-0.62,-3.00,0.19,0.35,-0.26,
3.094,-0.63,-0.62,-3.00,0.20,0.33,-0.26,
3.094,-0.70,-0.60,-3.98,0.20,0.33,-0.26,
3.094,-0.70,-0.60,-3.98,0.20,0.30,-0.26,
3.099,-0.70,-0.60,-3.98,0.21,0.28,-0.26,
3.1,-0.70,-0.60,-3.98,0.22,0.25,-0.26,
3.1,-0.70,-0.60,-3.98,0.23,0.23,-0.26,
3.101,-0.70,-0.60,-3.98,0.23,0.21,-0.27,
3.128,-0.76,-0.67,-4.62,0.23,0.21,-0.27,
3.128,-0.76,-0.67,-4.62,0.24,0.18,-0.27,
3.129,-0.76,-0.67,-4.62,0.25,0.16,-0.27,
3.129,-0.76,-0.67,-4.62,0.26,0.13,-0.27,
3.129,-0.76,-0.67,-4.62,0.27,0.12,-0.27,
3.129,-0.76,-0.67,-4.62,0.28,0.10,-0.27,
3.13,-0.93,-0.82,-5.07,0.28,0.10,-0.27,
3.13,-0.93,-0.82,-5.07,0.29,0.09,-0.26,
3.13,-0.93,-0.82,-5.07,0.29,0.07,-0.26,
3.13,-0.93,-0.82,-5.07,0.31,0.05,-0.24,
3.131,-0.93,-0.82,-5.07,0.32,0.05,-0.23,
3.131,-0.93,-0.82,-5.07,0.33,0.05,-0.20,
3.131,-1.29,-1.10,-5.36,0.33,0.05,-0.20,
3.131,-1.29,-1.10,-5.36,0.34,0.04,-0.19,
3.132,-1.29,-1.10,-5.36,0.35,0.04,-0.17,
3.132,-1.29,-1.10,-5.36,0.37,0.03,-0.13,
3.132,-1.29,-1.10,-5.36,0.37,0.03,-0.12,
3.133,-1.29,-1.10,-5.36,0.38,0.02,-0.09,
3.138,-1.79,-1.38,-5.47,0.38,0.02,-0.09,
3.138,-1.79,-1.38,-5.47,0.39,0.01,-0.06,
3.139,-1.79,-1.38,-5.47,0.40,-0.00,-0.04,
3.139,-1.79,-1.38,-5.47,0.42,-0.03,-0.00,
3.142,-1.79,-1.38,-5.47,0.43,-0.04,0.01,
3.143,-1.79,-1.38,-5.47,0.44,-0.05,0.03,
3.145,-1.81,-1.54,-5.42,0.44,-0.05,0.03,
3.145,-1.81,-1.54,-5.42,0.45,-0.08,0.05,
3.145,-1.81,-1.54,-5.42,0.47,-0.09,0.08,
3.149,-1.81,-1.54,-5.42,0.49,-0.11,0.11,
3.149,-1.81,-1.54,-5.42,0.50,-0.12,0.12,
3.151,-1.81,-1.54,-5.42,0.52,-0.13,0.14,
3.154,-1.90,-1.61,-5.25,0.52,-0.13,0.14,
3.155,-1.90,-1.61,-5.25,0.54,-0.14,0.16,
3.155,-1.90,-1.61,-5.25,0.56,-0.14,0.17,
3.165,-1.90,-1.61,-5.25,0.59,-0.15,0.20,
3.165,-1.90,-1.61,-5.25,0.60,-0.15,0.21,
3.166,-1.90,-1.61,-5.25,0.62,-0.14,0.23,
3.168,-1.74,-1.66,-5.11,0.62,-0.14,0.23,
3.168,-1.74,-1.66,-5.11,0.65,-0.14,0.24,
3.168,-1.74,-1.66,-5.11,0.67,-0.14,0.26,
3.169,-1.74,-1.66,-5.11,0.69,-0.13,0.28,
3.17,-1.74,-1.66,-5.11,0.70,-0.12,0.28,
3.205,-1.74,-1.66,-5.11,0.72,-0.11,0.29,
3.206,-1.61,-1.74,-5.17,0.72,-0.11,0.29,
3.206,-1.61,-1.74,-5.17,0.73,-0.10,0.30,
3.206,-1.61,-1.74,-5.17,0.75,-0.09,0.30,
3.206,-1.61,-1.74,-5.17,0.77,-0.07,0.30,
3.206,-1.61,-1.74,-5.17,0.78,-0.06,0.30,
3.207,-1.61,-1.74,-5.17,0.78,-0.04,0.30,
3.207,-1.40,-1.79,-5.44,0.78,-0.04,0.30,
3.207,-1.40,-1.79,-5.44,0.79,-0.03,0.30,
3.207,-1.40,-1.79,-5.44,0.80,-0.02,0.30,
3.207,-1.40,-1.79,-5.44,0.80,-0.01,0.29,
3.207,-1.40,-1.79,-5.44,0.80,-0.01,0.29,
3.208,-1.40,-1.79,-5.44,0.80,-0.01,0.29,
3.208,-1.50,-1.86,-5.82,0.80,-0.01,0.29,
3.208,-1.50,-1.86,-5.82,0.80,-0.01,0.28,
3.208,-1.50,-1.86,-5.82,0.80,-0.01,0.28,
3.208,-1.50,-1.86,-5.82,0.79,-0.02,0.27,
3.209,-1.50,-1.86,-5.82,0.79,-0.03,0.27,
3.209,-1.50,-1.86,-5.82,0.78,-0.04,0.26,
3.209,-1.61,-1.87,-6.06,0.78,-0.04,0.26,
3.209,-1.61,-1.87,-6.06,0.77,-0.05,0.26,
3.21,-1.61,-1.87,-6.06,0.76,-0.07,0.25,
3.21,-1.61,-1.87,-6.06,0.74,-0.09,0.25,
3.21,-1.61,-1.87,-6.06,0.73,-0.10,0.25,
3.214,-1.61,-1.87,-6.06,0.72,-0.11,0.25,
3.214,-1.89,-1.85,-6.16,0.72,-0.11,0.25,
3.215,-1.89,-1.85,-6.16,0.70,-0.12,0.25,
3.215,-1.89,-1.85,-6.16,0.68,-0.13,0.25,
3.219,-1.89,-1.85,-6.16,0.65,-0.14,0.26,
3.22,-1.89,-1.85,-6.16,0.63,-0.14,0.27,
3.221,-1.89,-1.85,-6.16,0.60,-0.14,0.28,
3.224,-2.12,-1.84,-6.32,0.60,-0.14,0.28,
3.224,-2.12,-1.84,-6.32,0.57,-0.14,0.29,
3.229,-2.12,-1.84,-6.32,0.53,-0.14,0.30,
3.23,-2.12,-1.84,-6.32,0.47,-0.14,0.32,
3.234,-2.12,-1.84,-6.32,0.45,-0.14,0.32,
3.234,-2.12,-1.84,-6.32,0.40,-0.13,0.33,
3.235,-2.34,-1.59,-6.49,0.40,-0.13,0.33,
3.236,-2.34,-1.59,-6.49,0.35,-0.13,0.34,
3.236,-2.34,-1.59,-6.49,0.30,-0.12,0.35,
3.238,-2.34,-1.59,-6.49,0.21,-0.12,0.35,
3.239,-2.34,-1.59,-6.49,0.18,-0.11,0.35,
3.251,-2.34,-1.59,-6.49,0.12,-0.10,0.35,
3.252,-1.93,-1.31,-6.28,0.12,-0.10,0.35,
3.252,-1.93,-1.31,-6.28,0.06,-0.10,0.35,
3.253,-1.93,-1.31,-6.28,-0.00,-0.09,0.35,
3.253,-1.93,-1.31,-6.28,-0.09,-0.09,0.34,
3.253,-1.93,-1.31,-6.28,-0.12,-0.08,0.34,
3.253,-1.93,-1.31,-6.28,-0.17,-0.08,0.33,
3.253,-1.34,-0.99,-5.31,-0.17,-0.08,0.33,
3.256,-1.34,-0.99,-5.31,-0.22,-0.07,0.32,
3.256,-1.34,-0.99,-5.31,-0.27,-0.06,0.31,
3.258,-1.34,-0.99,-5.31,-0.32,-0.05,0.28,
3.26,-1.34,-0.99,-5.31,-0.33,-0.04,0.27,
3.262,-1.34,-0.99,-5.31,-0.36,-0.03,0.25,
3.264,-0.44,-0.74,-3.67,-0.36,-0.03,0.25,
3.265,-0.44,-0.74,-3.67,-0.39,-0.01,0.23,
3.266,-0.44,-0.74,-3.67,-0.40,-0.00,0.21,
3.268,-0.44,-0.74,-3.67,-0.42,0.01,0.17,
3.289,-0.44,-0.74,-3.67,-0.42,0.01,0.15,
3.289,-0.44,-0.74,-3.67,-0.43,0.02,0.13,
3.289,0.31,-0.49,-1.91,-0.43,0.02,0.13,
3.29,0.31,-0.49,-1.91,-0.42,0.02,0.10,
3.29,0.31,-0.49,-1.91,-0.42,0.01,0.08,
3.29,0.31,-0.49,-1.91,-0.40,-0.00,0.04,
3.29,0.31,-0.49,-1.91,-0.39,-0.01,0.03,
3.291,0.31,-0.49,-1.91,-0.37,-0.02,0.00,
3.291,0.83,-0.17,-0.25,-0.37,-0.02,0.00,
3.291,0.83,-0.17,-0.25,-0.35,-0.04,-0.02,
3.292,0.83,-0.17,-0.25,-0.32,-0.06,-0.04,
3.292,0.83,-0.17,-0.25,-0.28,-0.09,-0.08,
3.292,0.83,-0.17,-0.25,-0.27,-0.10,-0.09,
3.292,0.83,-0.17,-0.25,-0.24,-0.12,-0.11,
3.3,1.08,0.16,0.88,-0.24,-0.12,-0.11,
3.301,1.08,0.16,0.88,-0.22,-0.15,-0.12,
3.301,1.08,0.16,0.88,-0.20,-0.17,-0.14,
3.302,1.08,0.16,0.88,-0.16,-0.21,-0.16,
3.302,1.08,0.16,0.88,-0.15,-0.21,-0.17,
3.302,1.08,0.16,0.88,-0.13,-0.23,-0.18,
3.305,1.09,0.51,1.42,-0.13,-0.23,-0.18,
3.305,1.09,0.51,1.42,-0.12,-0.24,-0.19,
3.305,1.09,0.51,1.42,-0.10,-0.24,-0.20,
3.308,1.09,0.51,1.42,-0.09,-0.24,-0.21,
3.311,1.09,0.51,1.42,-0.08,-0.23,-0.22,
3.319,1.09,0.51,1.42,-0.07,-0.23,-0.23,
3.32,1.32,0.79,1.62,-0.07,-0.23,-0.23,
3.32,1.32,0.79,1.62,-0.06,-0.21,-0.24,
3.322,1.32,0.79,1.62,-0.06,-0.19,-0.24,
3.322,1.32,0.79,1.62,-0.06,-0.15,-0.25,
3.323,1.32,0.79,1.62,-0.05,-0.12,-0.25,
3.323,1.32,0.79,1.62,-0.06,-0.08,-0.25,
3.324,1.38,0.91,1.70,-0.06,-0.08,-0.25,
3.325,1.38,0.91,1.70,-0.06,-0.06,-0.24,
3.326,1.38,0.91,1.70,-0.06,-0.01,-0.24,
3.33,1.38,0.91,1.70,-0.07,0.07,-0.24,
3.33,1.38,0.91,1.70,-0.07,0.10,-0.24,
3.332,1.38,0.91,1.70,-0.08,0.16,-0.23,
3.334,1.36,1.12,1.58,-0.08,0.16,-0.23,
3.334,1.36,1.12,1.58,-0.10,0.22,-0.23,
3.335,1.36,1.12,1.58,-0.11,0.28,-0.22,
3.338,1.36,1.12,1.58,-0.13,0.36,-0.22,
3.34,1.36,1.12,1.58,-0.14,0.38,-0.22,
3.342,1.36,1.12,1.58,-0.16,0.42,-0.21,
3.343,1.33,1.28,1.35,-0.16,0.42,-0.21,
3.344,1.33,1.28,1.35,-0.18,0.46,-0.21,
3.347,1.33,1.28,1.35,-0.19,0.48,-0.21,
3.348,1.33,1.28,1.35,-0.21,0.50,-0.20,
3.349,1.33,1.28,1.35,-0.22,0.50,-0.20,
3.351,1.33,1.28,1.35,-0.22,0.50,-0.20,
3.353,1.43,1.52,1.52,-0.22,0.50,-0.20,
3.353,1.43,1.52,1.52,-0.23,0.49,-0.20,
3.355,1.43,1.52,1.52,-0.24,0.46,-0.20,
3.358,1.43,1.52,1.52,-0.24,0.41,-0.21,
3.36,1.43,1.52,1.52,-0.24,0.39,-0.22,
3.362,1.43,1.52,1.52,-0.24,0.34,-0.23,
3.366,1.85,1.78,2.10,-0.24,0.34,-0.23,
3.366,1.85,1.78,2.10,-0.24,0.29,-0.24,
3.366,1.85,1.78,2.10,-0.24,0.23,-0.25,
3.368,1.85,1.78,2.10,-0.24,0.15,-0.27,
3.369,1.85,1.78,2.10,-0.24,0.12,-0.28,
3.371,1.85,1.78,2.10,-0.23,0.07,-0.30,
3.374,2.44,2.03,3.04,-0.23,0.07,-0.30,
3.374,2.44,2.03,3.04,-0.22,0.03,-0.32,
3.375,2.44,2.03,3.04,-0.21,-0.01,-0.33,
3.378,2.44,2.03,3.04,-0.19,-0.05,-0.36,
3.379,2.44,2.03,3.04,-0.18,-0.06,-0.37,
3.381,2.44,2.03,3.04,-0.17,-0.08,-0.38,
3.383,2.78,2.07,4.14,-0.17,-0.08,-0.38,
3.383,2.78,2.07,4.14,-0.16,-0.09,-0.40,
3.385,2.78,2.07,4.14,-0.14,-0.10,-0.42,
3.388,2.78,2.07,4.14,-0.11,-0.11,-0.44,
3.389,2.78,2.07,4.14,-0.10,-0.10,-0.44,
3.393,2.78,2.07,4.14,-0.09,-0.09,-0.45,
3.395,2.79,1.97,5.10,-0.09,-0.09,-0.45,
3.396,2.79,1.97,5.10,-0.05,-0.05,-0.46,
3.396,2.79,1.97,5.10,-0.05,-0.05,-0.46,
3.399,2.79,1.97,5.10,-0.03,-0.01,-0.46,
3.399,2.79,1.97,5.10,-0.02,0.02,-0.45,
3.401,2.79,1.97,5.10,-0.01,0.03,-0.45,
3.403,2.29,1.98,5.58,-0.01,0.03,-0.45,
3.403,2.29,1.98,5.58,-0.00,0.06,-0.45,
3.405,2.29,1.98,5.58,0.00,0.10,-0.44,
3.408,2.29,1.98,5.58,0.01,0.14,-0.43,
3.409,2.29,1.98,5.58,0.01,0.16,-0.42,
3.411,2.29,1.98,5.58,0.01,0.19,-0.42,
3.413,1.79,2.13,5.54,0.01,0.19,-0.42,
3.413,1.79,2.13,5.54,0.00,0.21,-0.41,
3.415,1.79,2.13,5.54,-0.01,0.23,-0.40,
3.418,1.79,2.13,5.54,-0.05,0.23,-0.39,
3.419,1.79,2.13,5.54,-0.08,0.23,-0.38,
3.421,1.79,2.13,5.54,-0.10,0.22,-0.38,
3.424,1.43,2.42,4.89,-0.10,0.22,-0.38,
3.424,1.43,2.42,4.89,-0.15,0.19,-0.37,
3.426,1.43,2.42,4.89,-0.21,0.16,-0.37,
3.43,1.43,2.42,4.89,-0.30,0.09,-0.36,
3.43,1.43,2.42,4.89,-0.38,0.04,-0.37,
3.431,1.43,2.42,4.89,-0.42,0.01,-0.37,
3.433,1.78,2.63,4.32,-0.42,0.01,-0.37,
3.434,1.78,2.63,4.32,-0.50,-0.05,-0.38,
3.451,1.78,2.63,4.32,-0.59,-0.10,-0.40,
3.451,1.78,2.63,4.32,-0.72,-0.17,-0.44,
3.452,1.78,2.63,4.32,-0.79,-0.21,-0.47,
3.452,1.78,2.63,4.32,-0.83,-0.22,-0.49,
3.452,2.97,2.37,4.91,-0.83,-0.22,-0.49,
3.452,2.97,2.37,4.91,-0.91,-0.24,-0.53,
3.453,2.97,2.37,4.91,-0.97,-0.25,-0.57,
3.453,2.97,2.37,4.91,-1.06,-0.25,-0.63,
3.453,2.97,2.37,4.91,-1.11,-0.25,-0.68,
3.454,2.97,2.37,4.91,-1.13,-0.24,-0.70,
3.454,4.02,1.76,6.40,-1.13,-0.24,-0.70,
3.454,4.02,1.76,6.40,-1.18,-0.23,-0.73,
3.458,4.02,1.76,6.40,-1.21,-0.21,-0.77,
3.459,4.02,1.76,6.40,-1.27,-0.18,-0.81,
3.46,4.02,1.76,6.40,-1.30,-0.16,-0.83,
3.461,4.02,1.76,6.40,-1.32,-0.14,-0.84,
3.464,3.88,0.92,7.67,-1.32,-0.14,-0.84,
3.464,3.88,0.92,7.67,-1.35,-0.10,-0.85,
3.465,3.88,0.92,7.67,-1.37,-0.06,-0.86,
3.468,3.88,0.92,7.67,-1.40,0.01,-0.86,
3.469,3.88,0.92,7.67,-1.42,0.06,-0.85,
3.472,3.88,0.92,7.67,-1.43,0.12,-0.84,
3.474,3.16,-0.17,8.60,-1.43,0.12,-0.84,
3.475,3.16,-0.17,8.60,-1.43,0.19,-0.82,
3.475,3.16,-0.17,8.60,-1.43,0.22,-0.80,
3.48,3.16,-0.17,8.60,-1.42,0.33,-0.76,
3.481,3.16,-0.17,8.60,-1.41,0.40,-0.72,
3.481,3.16,-0.17,8.60,-1.40,0.44,-0.71,
3.483,2.01,-1.07,9.23,-1.40,0.44,-0.71,
3.483,2.01,-1.07,9.23,-1.38,0.51,-0.66,
3.485,2.01,-1.07,9.23,-1.35,0.58,-0.61,
3.488,2.01,-1.07,9.23,-1.29,0.68,-0.54,
3.489,2.01,-1.07,9.23,-1.25,0.74,-0.49,
3.492,2.01,-1.07,9.23,-1.23,0.77,-0.46,
3.494,1.09,-1.49,9.33,-1.23,0.77,-0.46,
3.495,1.09,-1.49,9.33,-1.18,0.81,-0.42,
3.495,1.09,-1.49,9.33,-1.13,0.85,-0.36,
3.498,1.09,-1.49,9.33,-1.05,0.89,-0.29,
3.499,1.09,-1.49,9.33,-1.00,0.90,-0.24,
3.502,1.09,-1.49,9.33,-0.97,0.91,-0.22,
3.503,0.57,-1.38,8.41,-0.97,0.91,-0.22,
3.503,0.57,-1.38,8.41,-0.92,0.90,-0.18,
3.505,0.57,-1.38,8.41,-0.86,0.89,-0.13,
3.508,0.57,-1.38,8.41,-0.77,0.85,-0.07,
3.509,0.57,-1.38,8.41,-0.72,0.81,-0.04,
3.512,0.57,-1.38,8.41,-0.69,0.79,-0.02,
3.514,0.38,-1.19,6.82,-0.69,0.79,-0.02,
3.515,0.38,-1.19,6.82,-0.64,0.74,0.02,
3.515,0.38,-1.19,6.82,-0.59,0.69,0.05,
3.518,0.38,-1.19,6.82,-0.51,0.60,0.10,
3.519,0.38,-1.19,6.82,-0.47,0.53,0.14,
3.521,0.38,-1.19,6.82,-0.45,0.50,0.15,
3.528,0.29,-0.96,4.91,-0.45,0.50,0.15,
3.528,0.29,-0.96,4.91,-0.40,0.43,0.18,
3.528,0.29,-0.96,4.91,-0.36,0.36,0.21,
3.528,0.29,-0.96,4.91,-0.30,0.26,0.25,
3.531,0.29,-0.96,4.91,-0.26,0.20,0.28,
3.532,0.29,-0.96,4.91,-0.24,0.16,0.29,
3.559,0.36,-0.78,3.17,-0.24,0.16,0.29,
3.56,0.36,-0.78,3.17,-0.21,0.10,0.32,
3.56,0.36,-0.78,3.17,-0.17,0.04,0.34,
3.56,0.36,-0.78,3.17,-0.12,-0.03,0.38,
3.561,0.36,-0.78,3.17,-0.09,-0.08,0.40,
3.561,0.36,-0.78,3.17,-0.08,-0.10,0.41,
3.561,0.55,-0.67,1.72,-0.08,-0.10,0.41,
3.562,0.55,-0.67,1.72,-0.05,-0.15,0.43,
3.562,0.55,-0.67,1.72,-0.02,-0.18,0.45,
3.562,0.55,-0.67,1.72,0.03,-0.23,0.47,
3.563,0.55,-0.67,1.72,0.05,-0.25,0.49,
3.563,0.55,-0.67,1.72,0.07,-0.26,0.49,
3.563,0.82,-0.63,0.56,0.07,-0.26,0.49,
3.563,0.82,-0.63,0.56,0.09,-0.27,0.51,
3.564,0.82,-0.63,0.56,0.12,-0.28,0.52,
3.564,0.82,-0.63,0.56,0.16,-0.30,0.54,
3.564,0.82,-0.63,0.56,0.19,-0.30,0.55,
3.569,0.82,-0.63,0.56,0.20,-0.30,0.56,
3.569,0.95,-0.54,-0.49,0.20,-0.30,0.56,
3.57,0.95,-0.54,-0.49,0.23,-0.31,0.57,
3.57,0.95,-0.54,-0.49,0.25,-0.30,0.58,
3.572,0.95,-0.54,-0.49,0.29,-0.30,0.59,
3.581,0.95,-0.54,-0.49,0.31,-0.30,0.60,
3.582,0.95,-0.54,-0.49,0.32,-0.30,0.60,
3.582,1.00,-0.49,-1.53,0.32,-0.30,0.60,
3.583,1.00,-0.49,-1.53,0.34,-0.30,0.61,
3.583,1.00,-0.49,-1.53,0.36,-0.30,0.62,
3.584,1.00,-0.49,-1.53,0.39,-0.29,0.63,
3.587,1.00,-0.49,-1.53,0.41,-0.29,0.63,
3.588,1.00,-0.49,-1.53,0.42,-0.29,0.64,
3.588,0.88,-0.43,-2.60,0.42,-0.29,0.64,
3.588,0.88,-0.43,-2.60,0.43,-0.29,0.64,
3.589,0.88,-0.43,-2.60,0.45,-0.29,0.65,
3.589,0.88,-0.43,-2.60,0.47,-0.29,0.65,
3.592,0.88,-0.43,-2.60,0.48,-0.30,0.66,
3.593,0.88,-0.43,-2.60,0.48,-0.30,0.66,
3.593,0.94,-0.37,-3.60,0.48,-0.30,0.66,
3.594,0.94,-0.37,-3.60,0.49,-0.30,0.66,
3.595,0.94,-0.37,-3.60,0.50,-0.31,0.66,
3.599,0.94,-0.37,-3.60,0.51,-0.31,0.65,
3.6,0.94,-0.37,-3.60,0.52,-0.32,0.65,
3.601,0.94,-0.37,-3.60,0.52,-0.32,0.65,
3.625,0.98,-0.32,-4.50,0.52,-0.32,0.65,
3.625,0.98,-0.32,-4.50,0.52,-0.33,0.64,
3.626,0.98,-0.32,-4.50,0.52,-0.34,0.63,
3.626,0.98,-0.32,-4.50,0.52,-0.35,0.61,
3.626,0.98,-0.32,-4.50,0.52,-0.36,0.60,
3.626,0.98,-0.32,-4.50,0.52,-0.36,0.60,
3.627,1.19,-0.18,-5.18,0.52,-0.36,0.60,
3.627,1.19,-0.18,-5.18,0.52,-0.37,0.59,
3.628,1.19,-0.18,-5.18,0.51,-0.38,0.57,
3.628,1.19,-0.18,-5.18,0.50,-0.39,0.55,
3.628,1.19,-0.18,-5.18,0.49,-0.41,0.54,
3.628,1.19,-0.18,-5.18,0.49,-0.41,0.53,
3.629,1.14,-0.18,-5.59,0.49,-0.41,0.53,
3.629,1.14,-0.18,-5.59,0.48,-0.41,0.52,
3.629,1.14,-0.18,-5.59,0.47,-0.42,0.51,
3.629,1.14,-0.18,-5.59,0.46,-0.43,0.48,
3.63,1.14,-0.18,-5.59,0.45,-0.43,0.47,
3.635,1.14,-0.18,-5.59,0.44,-0.43,0.47,
3.635,1.13,-0.19,-5.77,0.44,-0.43,0.47,
3.635,1.13,-0.19,-5.77,0.43,-0.43,0.45,
3.636,1.13,-0.19,-5.77,0.42,-0.42,0.44,
3.641,1.13,-0.19,-5.77,0.41,-0.41,0.42,
3.641,1.13,-0.19,-5.77,0.41,-0.41,0.41,
3.642,1.13,-0.19,-5.77,0.40,-0.40,0.40,
3.644,0.98,-0.31,-5.55,0.40,-0.40,0.40,
3.645,0.98,-0.31,-5.55,0.40,-0.39,0.39,
3.648,0.98,-0.31,-5.55,0.39,-0.38,0.38,
3.649,0.98,-0.31,-5.55,0.39,-0.35,0.37,
3.65,0.98,-0.31,-5.55,0.39,-0.33,0.36,
3.651,0.98,-0.31,-5.55,0.39,-0.32,0.36,
3.653,0.83,-0.43,-5.15,0.39,-0.32,0.36,
3.653,0.83,-0.43,-5.15,0.39,-0.30,0.35,
3.655,0.83,-0.43,-5.15,0.39,-0.25,0.35,
3.663,0.83,-0.43,-5.15,0.39,-0.22,0.34,
3.663,0.83,-0.43,-5.15,0.39,-0.19,0.34,
3.663,0.83,-0.43,-5.15,0.39,-0.16,0.34,
3.665,0.50,-0.69,-4.77,0.39,-0.16,0.34,
3.665,0.50,-0.69,-4.77,0.40,-0.12,0.34,
3.669,0.50,-0.69,-4.77,0.40,-0.09,0.34,
3.671,0.50,-0.69,-4.77,0.41,-0.05,0.34,
3.671,0.50,-0.69,-4.77,0.41,-0.02,0.34,
3.685,0.50,-0.69,-4.77,0.42,0.02,0.34,
3.685,0.20,-0.85,-4.42,0.42,0.02,0.34,
3.686,0.20,-0.85,-4.42,0.43,0.05,0.34,
3.686,0.20,-0.85,-4.42,0.44,0.08,0.35,
3.686,0.20,-0.85,-4.42,0.45,0.11,0.35,
3.686,0.20,-0.85,-4.42,0.46,0.14,0.35,
3.687,0.20,-0.85,-4.42,0.47,0.16,0.35,
3.687,-0.13,-0.97,-4.38,0.47,0.16,0.35,
3.687,-0.13,-0.97,-4.38,0.48,0.18,0.36,
3.687,-0.13,-0.97,-4.38,0.48,0.19,0.36,
3.69,-0.13,-0.97,-4.38,0.49,0.20,0.37,
3.69,-0.13,-0.97,-4.38,0.50,0.21,0.37,
3.692,-0.13,-0.97,-4.38,0.50,0.21,0.38,
3.694,-0.61,-1.09,-4.50,0.50,0.21,0.38,
3.697,-0.61,-1.09,-4.50,0.50,0.21,0.39,
3.697,-0.61,-1.09,-4.50,0.50,0.21,0.40,
3.698,-0.61,-1.09,-4.50,0.51,0.20,0.41,
3.699,-0.61,-1.09,-4.50,0.51,0.20,0.42,
3.701,-0.61,-1.09,-4.50,0.51,0.18,0.43,
3.704,-0.96,-1.16,-4.61,0.51,0.18,0.43,
3.704,-0.96,-1.16,-4.61,0.51,0.17,0.45,
3.705,-0.96,-1.16,-4.61,0.52,0.15,0.46,
3.712,-0.96,-1.16,-4.61,0.52,0.12,0.47,
3.712,-0.96,-1.16,-4.61,0.52,0.09,0.48,
3.712,-0.96,-1.16,-4.61,0.51,0.06,0.49,
3.714,-1.15,-1.16,-4.60,0.51,0.06,0.49,
3.714,-1.15,-1.16,-4.60,0.51,0.02,0.51,
3.715,-1.15,-1.16,-4.60,0.50,-0.02,0.52,
3.718,-1.15,-1.16,-4.60,0.49,-0.08,0.53,
3.719,-1.15,-1.16,-4.60,0.49,-0.10,0.54,
3.721,-1.15,-1.16,-4.60,0.49,-0.14,0.54,
3.725,-1.05,-1.13,-4.26,0.49,-0.14,0.54,
3.725,-1.05,-1.13,-4.26,0.48,-0.18,0.55,
3.726,-1.05,-1.13,-4.26,0.48,-0.21,0.55,
3.728,-1.05,-1.13,-4.26,0.47,-0.24,0.56,
3.73,-1.05,-1.13,-4.26,0.47,-0.26,0.56,
3.731,-1.05,-1.13,-4.26,0.47,-0.28,0.57,
3.734,-0.84,-1.18,-3.38,0.47,-0.28,0.57,
3.734,-0.84,-1.18,-3.38,0.48,-0.29,0.57,
3.735,-0.84,-1.18,-3.38,0.49,-0.30,0.58,
3.738,-0.84,-1.18,-3.38,0.49,-0.30,0.58,
3.741,-0.84,-1.18,-3.38,0.50,-0.30,0.59,
3.744,-0.84,-1.18,-3.38,0.51,-0.29,0.60,
3.745,-0.73,-1.31,-2.36,0.51,-0.29,0.60,
3.745,-0.73,-1.31,-2.36,0.53,-0.28,0.61,
3.746,-0.73,-1.31,-2.36,0.54,-0.27,0.62,
3.748,-0.73,-1.31,-2.36,0.55,-0.25,0.62,
3.749,-0.73,-1.31,-2.36,0.56,-0.23,0.63,
3.751,-0.73,-1.31,-2.36,0.58,-0.22,0.64,
3.753,-0.53,-1.45,-1.55,0.58,-0.22,0.64,
3.753,-0.53,-1.45,-1.55,0.59,-0.19,0.64,
3.755,-0.53,-1.45,-1.55,0.60,-0.17,0.65,
3.758,-0.53,-1.45,-1.55,0.62,-0.14,0.65,
3.759,-0.53,-1.45,-1.55,0.64,-0.11,0.65,
3.761,-0.53,-1.45,-1.55,0.66,-0.09,0.66,
3.764,-0.40,-1.49,-1.04,0.66,-0.09,0.66,
3.764,-0.40,-1.49,-1.04,0.67,-0.06,0.66,
3.765,-0.40,-1.49,-1.04,0.69,-0.02,0.67,
3.768,-0.40,-1.49,-1.04,0.71,0.01,0.68,
3.792,-0.40,-1.49,-1.04,0.73,0.04,0.68,
3.793,-0.40,-1.49,-1.04,0.75,0.08,0.69,
3.793,-0.31,-1.54,-0.82,0.75,0.08,0.69,
3.793,-0.31,-1.54,-0.82,0.76,0.12,0.69,
3.793,-0.31,-1.54,-0.82,0.78,0.16,0.69,
3.794,-0.31,-1.54,-0.82,0.80,0.19,0.70,
3.794,-0.31,-1.54,-0.82,0.81,0.23,0.70,
3.794,-0.31,-1.54,-0.82,0.82,0.26,0.70,
3.794,-0.26,-1.51,-1.07,0.82,0.26,0.70,
3.795,-0.26,-1.51,-1.07,0.83,0.29,0.70,
3.795,-0.26,-1.51,-1.07,0.84,0.32,0.71,
3.795,-0.26,-1.51,-1.07,0.84,0.34,0.71,
3.795,-0.26,-1.51,-1.07,0.84,0.35,0.71,
3.796,-0.26,-1.51,-1.07,0.84,0.36,0.71,
3.796,-0.18,-1.44,-1.62,0.84,0.36,0.71,
3.796,-0.18,-1.44,-1.62,0.84,0.36,0.70,
3.797,-0.18,-1.44,-1.62,0.83,0.36,0.70,
3.802,-0.18,-1.44,-1.62,0.82,0.36,0.69,
3.802,-0.18,-1.44,-1.62,0.82,0.35,0.69,
3.802,-0.18,-1.44,-1.62,0.81,0.35,0.68,
3.805,-0.08,-1.20,-2.10,0.81,0.35,0.68,
3.805,-0.08,-1.20,-2.10,0.80,0.34,0.67,
3.806,-0.08,-1.20,-2.10,0.78,0.33,0.66,
3.808,-0.08,-1.20,-2.10,0.77,0.31,0.65,
3.809,-0.08,-1.20,-2.10,0.75,0.30,0.64,
3.812,-0.08,-1.20,-2.10,0.74,0.30,0.63,
3.814,-0.03,-1.02,-2.29,0.74,0.30,0.63,
3.815,-0.03,-1.02,-2.29,0.72,0.29,0.62,
3.815,-0.03,-1.02,-2.29,0.70,0.28,0.61,
3.818,-0.03,-1.02,-2.29,0.68,0.27,0.59,
3.819,-0.03,-1.02,-2.29,0.66,0.26,0.58,
3.831,-0.03,-1.02,-2.29,0.64,0.25,0.56,
3.832,0.01,-0.89,-2.14,0.64,0.25,0.56,
3.833,0.01,-0.89,-2.14,0.63,0.25,0.56,
3.833,0.01,-0.89,-2.14,0.61,0.25,0.55,
3.833,0.01,-0.89,-2.14,0.59,0.24,0.52,
3.833,0.01,-0.89,-2.14,0.59,0.25,0.52,
3.834,0.01,-0.89,-2.14,0.57,0.25,0.51,
3.84,0.08,-0.84,-1.66,0.57,0.25,0.51,
3.844,0.08,-0.84,-1.66,0.56,0.25,0.49,
3.845,0.08,-0.84,-1.66,0.55,0.26,0.48,
3.845,0.08,-0.84,-1.66,0.54,0.26,0.47,
3.845,0.08,-0.84,-1.66,0.53,0.27,0.46,
3.845,0.08,-0.84,-1.66,0.52,0.28,0.45,
3.845,0.10,-0.85,-1.26,0.52,0.28,0.45,
3.846,0.10,-0.85,-1.26,0.50,0.29,0.44,
3.847,0.10,-0.85,-1.26,0.50,0.29,0.43,
3.848,0.10,-0.85,-1.26,0.47,0.30,0.42,
3.849,0.10,-0.85,-1.26,0.47,0.31,0.41,
3.852,0.10,-0.85,-1.26,0.46,0.32,0.41,
3.854,0.24,-0.96,-0.88,0.46,0.32,0.41,
3.854,0.24,-0.96,-0.88,0.44,0.33,0.40,
3.857,0.24,-0.96,-0.88,0.43,0.35,0.39,
3.859,0.24,-0.96,-0.88,0.41,0.37,0.38,
3.86,0.24,-0.96,-0.88,0.41,0.38,0.38,
3.862,0.24,-0.96,-0.88,0.40,0.39,0.37,
3.864,0.46,-1.09,-0.36,0.40,0.39,0.37,
3.865,0.46,-1.09,-0.36,0.39,0.41,0.36,
3.865,0.46,-1.09,-0.36,0.39,0.43,0.35,
3.868,0.46,-1.09,-0.36,0.38,0.47,0.34,
3.869,0.46,-1.09,-0.36,0.38,0.48,0.33,
3.872,0.46,-1.09,-0.36,0.38,0.50,0.32,
3.874,0.88,-1.17,0.37,0.38,0.50,0.32,
3.874,0.88,-1.17,0.37,0.39,0.52,0.31,
3.875,0.88,-1.17,0.37,0.40,0.54,0.30,
3.879,0.88,-1.17,0.37,0.41,0.57,0.28,
3.879,0.88,-1.17,0.37,0.42,0.58,0.27,
3.881,0.88,-1.17,0.37,0.43,0.59,0.26,
3.884,1.28,-1.14,1.07,0.43,0.59,0.26,
3.884,1.28,-1.14,1.07,0.45,0.60,0.24,
3.885,1.28,-1.14,1.07,0.46,0.61,0.23,
3.889,1.28,-1.14,1.07,0.48,0.62,0.21,
3.892,1.28,-1.14,1.07,0.49,0.62,0.20,
3.893,1.28,-1.14,1.07,0.51,0.63,0.19,
3.893,1.45,-1.23,1.60,0.51,0.63,0.19,
3.894,1.45,-1.23,1.60,0.52,0.64,0.17,
3.895,1.45,-1.23,1.60,0.54,0.65,0.16,
3.9,1.45,-1.23,1.60,0.58,0.66,0.14,
3.9,1.45,-1.23,1.60,0.58,0.66,0.14,
3.902,1.45,-1.23,1.60,0.60,0.66,0.13,
3.904,1.37,-1.21,1.99,0.60,0.66,0.13,
3.904,1.37,-1.21,1.99,0.62,0.66,0.13,
3.906,1.37,-1.21,1.99,0.64,0.67,0.12,
3.908,1.37,-1.21,1.99,0.66,0.67,0.11,
3.91,1.37,-1.21,1.99,0.67,0.66,0.10,
3.911,1.37,-1.21,1.99,0.68,0.66,0.10,
3.914,1.26,-1.15,2.14,0.68,0.66,0.10,
3.915,1.26,-1.15,2.14,0.69,0.65,0.09,
3.916,1.26,-1.15,2.14,0.70,0.64,0.09,
3.918,1.26,-1.15,2.14,0.70,0.63,0.08,
3.919,1.26,-1.15,2.14,0.69,0.62,0.08,
3.922,1.26,-1.15,2.14,0.69,0.61,0.08,
3.924,0.96,-0.96,1.88,0.69,0.61,0.08,
3.925,0.96,-0.96,1.88,0.68,0.59,0.08,
3.927,0.96,-0.96,1.88,0.67,0.58,0.09,
3.928,0.96,-0.96,1.88,0.65,0.57,0.09,
3.93,0.96,-0.96,1.88,0.64,0.56,0.09,
3.931,0.96,-0.96,1.88,0.63,0.55,0.10,
3.933,0.50,-0.82,1.70,0.63,0.55,0.10,
3.933,0.50,-0.82,1.70,0.61,0.53,0.11,
3.952,0.50,-0.82,1.70,0.60,0.51,0.12,
3.952,0.50,-0.82,1.70,0.58,0.49,0.13,
3.952,0.50,-0.82,1.70,0.57,0.48,0.14,
3.952,0.50,-0.82,1.70,0.56,0.46,0.15,
3.953,-0.07,-0.38,1.69,0.56,0.46,0.15,
3.953,-0.07,-0.38,1.69,0.54,0.43,0.16,
3.953,-0.07,-0.38,1.69,0.52,0.41,0.18,
3.954,-0.07,-0.38,1.69,0.50,0.35,0.20,
3.954,-0.07,-0.38,1.69,0.49,0.33,0.21,
3.954,-0.07,-0.38,1.69,0.46,0.28,0.23,
3.954,-0.57,0.16,1.41,0.46,0.28,0.23,
3.955,-0.57,0.16,1.41,0.42,0.22,0.25,
3.959,-0.57,0.16,1.41,0.38,0.13,0.27,
3.959,-0.57,0.16,1.41,0.29,-0.02,0.29,
3.961,-0.57,0.16,1.41,0.25,-0.08,0.30,
3.962,-0.57,0.16,1.41,0.17,-0.21,0.31,
3.964,-0.55,0.67,0.58,0.17,-0.21,0.31,
3.964,-0.55,0.67,0.58,0.07,-0.36,0.32,
3.965,-0.55,0.67,0.58,-0.03,-0.52,0.32,
3.968,-0.55,0.67,0.58,-0.20,-0.77,0.30,
3.969,-0.55,0.67,0.58,-0.26,-0.85,0.30,
3.978,-0.55,0.67,0.58,-0.37,-1.02,0.28,
3.979,0.73,1.17,0.75,-0.37,-1.02,0.28,
3.979,0.73,1.17,0.75,-0.49,-1.19,0.25,
3.979,0.73,1.17,0.75,-0.59,-1.34,0.21,
3.98,0.73,1.17,0.75,-0.74,-1.54,0.14,
3.982,0.73,1.17,0.75,-0.78,-1.59,0.12,
4.0,0.73,1.17,0.75,-0.86,-1.69,0.06,
4.001,3.06,1.13,3.18,-0.86,-1.69,0.06,
4.001,3.06,1.13,3.18,-0.93,-1.76,-0.01,
4.001,3.06,1.13,3.18,-0.99,-1.81,-0.07,
4.001,3.06,1.13,3.18,-1.07,-1.84,-0.16,
4.002,3.06,1.13,3.18,-1.09,-1.84,-0.19,
4.002,3.06,1.13,3.18,-1.13,-1.83,-0.26,
4.002,4.96,0.79,6.36,-1.13,-1.83,-0.26,
4.002,4.96,0.79,6.36,-1.16,-1.79,-0.32,
4.003,4.96,0.79,6.36,-1.19,-1.73,-0.39,
4.003,4.96,0.79,6.36,-1.23,-1.58,-0.50,
4.003,4.96,0.79,6.36,-1.24,-1.52,-0.53,
4.003,4.96,0.79,6.36,-1.25,-1.38,-0.60,
4.005,5.92,0.35,8.80,-1.25,-1.38,-0.60,
4.005,5.92,0.35,8.80,-1.26,-1.21,-0.66,
4.006,5.92,0.35,8.80,-1.27,-1.02,-0.72,
4.008,5.92,0.35,8.80,-1.28,-0.71,-0.80,
4.011,5.92,0.35,8.80,-1.28,-0.60,-0.83,
4.011,5.92,0.35,8.80,-1.27,-0.39,-0.87,
4.013,5.63,-0.36,9.84,-1.27,-0.39,-0.87,
4.013,5.63,-0.36,9.84,-1.27,-0.17,-0.91,
4.015,5.63,-0.36,9.84,-1.27,0.05,-0.94,
4.018,5.63,-0.36,9.84,-1.26,0.35,-0.98,
4.019,5.63,-0.36,9.84,-1.26,0.44,-0.98,
4.021,5.63,-0.36,9.84,-1.26,0.62,-1.00,
4.023,3.98,-0.70,9.35,-1.26,0.62,-1.00,
4.024,3.98,-0.70,9.35,-1.25,0.79,-1.01,
4.025,3.98,-0.70,9.35,-1.25,0.93,-1.01,
4.028,3.98,-0.70,9.35,-1.25,1.09,-1.02,
4.029,3.98,-0.70,9.35,-1.25,1.14,-1.02,
4.031,3.98,-0.70,9.35,-1.25,1.21,-1.02,
4.033,2.13,-0.70,7.72,-1.25,1.21,-1.02,
4.033,2.13,-0.70,7.72,-1.25,1.26,-1.01,
4.035,2.13,-0.70,7.72,-1.24,1.30,-1.01,
4.04,2.13,-0.70,7.72,-1.24,1.31,-1.00,
4.04,2.13,-0.70,7.72,-1.24,1.30,-0.99,
4.043,2.13,-0.70,7.72,-1.24,1.28,-0.98,
4.043,0.52,-0.46,5.73,-1.24,1.28,-0.98,
4.043,0.52,-0.46,5.73,-1.23,1.23,-0.96,
4.045,0.52,-0.46,5.73,-1.23,1.18,-0.95,
4.048,0.52,-0.46,5.73,-1.22,1.07,-0.93,
4.049,0.52,-0.46,5.73,-1.22,1.02,-0.92,
4.051,0.52,-0.46,5.73,-1.21,0.93,-0.90,
4.053,-0.53,-0.01,3.90,-1.21,0.93,-0.90,
4.053,-0.53,-0.01,3.90,-1.21,0.83,-0.89,
4.055,-0.53,-0.01,3.90,-1.21,0.73,-0.88,
4.059,-0.53,-0.01,3.90,-1.20,0.56,-0.86,
4.06,-0.53,-0.01,3.90,-1.20,0.50,-0.86,
4.061,-0.53,-0.01,3.90,-1.21,0.38,-0.85,
4.063,-0.74,0.38,2.28,-1.21,0.38,-0.85,
4.063,-0.74,0.38,2.28,-1.21,0.27,-0.85,
4.065,-0.74,0.38,2.28,-1.21,0.15,-0.84,
4.068,-0.74,0.38,2.28,-1.22,-0.00,-0.84,
4.069,-0.74,0.38,2.28,-1.23,-0.05,-0.83,
4.082,-0.74,0.38,2.28,-1.24,-0.14,-0.83,
4.083,-0.64,0.56,1.01,-1.24,-0.14,-0.83,
4.084,-0.64,0.56,1.01,-1.25,-0.22,-0.82,
4.084,-0.64,0.56,1.01,-1.27,-0.28,-0.82,
4.085,-0.64,0.56,1.01,-1.29,-0.35,-0.81,
4.085,-0.64,0.56,1.01,-1.30,-0.37,-0.81,
4.086,-0.64,0.56,1.01,-1.31,-0.39,-0.80,
4.086,-0.44,0.42,0.32,-1.31,-0.39,-0.80,
4.086,-0.44,0.42,0.32,-1.33,-0.39,-0.80,
4.087,-0.44,0.42,0.32,-1.35,-0.39,-0.79,
4.107,-0.44,0.42,0.32,-1.37,-0.37,-0.78,
4.107,-0.44,0.42,0.32,-1.38,-0.36,-0.77,
4.107,-0.44,0.42,0.32,-1.39,-0.33,-0.77,
4.108,-0.25,0.21,0.14,-1.39,-0.33,-0.77,
4.108,-0.25,0.21,0.14,-1.40,-0.30,-0.76,
4.108,-0.25,0.21,0.14,-1.40,-0.26,-0.76,
4.108,-0.25,0.21,0.14,-1.41,-0.19,-0.75,
4.108,-0.25,0.21,0.14,-1.41,-0.16,-0.74,
4.108,-0.25,0.21,0.14,-1.41,-0.10,-0.73,
4.12,-0.19,0.06,0.12,-1.41,-0.10,-0.73,
4.12,-0.19,0.06,0.12,-1.42,-0.05,-0.72,
4.121,-0.19,0.06,0.12,-1.41,0.01,-0.71,
4.121,-0.19,0.06,0.12,-1.41,0.10,-0.70,
4.121,-0.19,0.06,0.12,-1.40,0.13,-0.69,
4.121,-0.19,0.06,0.12,-1.39,0.18,-0.68,
4.121,-0.39,-0.16,0.05,-1.39,0.18,-0.68,
4.121,-0.39,-0.16,0.05,-1.38,0.23,-0.66,
4.122,-0.39,-0.16,0.05,-1.37,0.28,-0.65,
4.122,-0.39,-0.16,0.05,-1.34,0.33,-0.62,
4.125,-0.39,-0.16,0.05,-1.33,0.35,-0.61,
4.125,-0.39,-0.16,0.05,-1.30,0.38,-0.59,
4.126,-0.83,-0.26,-0.13,-1.30,0.38,-0.59,
4.126,-0.83,-0.26,-0.13,-1.28,0.40,-0.57,
4.126,-0.83,-0.26,-0.13,-1.25,0.42,-0.55,
4.128,-0.83,-0.26,-0.13,-1.21,0.43,-0.52,
4.129,-0.83,-0.26,-0.13,-1.19,0.43,-0.51,
4.131,-0.83,-0.26,-0.13,-1.16,0.43,-0.49,
4.134,-1.23,-0.25,-0.53,-1.16,0.43,-0.49,
4.134,-1.23,-0.25,-0.53,-1.12,0.42,-0.47,
4.135,-1.23,-0.25,-0.53,-1.09,0.41,-0.44,
4.138,-1.23,-0.25,-0.53,-1.03,0.39,-0.41,
4.139,-1.23,-0.25,-0.53,-1.01,0.38,-0.40,
4.144,-1.23,-0.25,-0.53,-0.98,0.37,-0.39,
4.144,-1.39,-0.21,-1.11,-0.98,0.37,-0.39,
4.144,-1.39,-0.21,-1.11,-0.94,0.35,-0.37,
4.146,-1.39,-0.21,-1.11,-0.91,0.34,-0.35,
4.148,-1.39,-0.21,-1.11,-0.85,0.31,-0.33,
4.149,-1.39,-0.21,-1.11,-0.84,0.30,-0.33,
4.151,-1.39,-0.21,-1.11,-0.80,0.28,-0.31,
4.155,-1.51,-0.24,-1.70,-0.80,0.28,-0.31,
4.155,-1.51,-0.24,-1.70,-0.76,0.27,-0.29,
4.155,-1.51,-0.24,-1.70,-0.72,0.25,-0.28,
4.163,-1.51,-0.24,-1.70,-0.67,0.24,-0.25,
4.164,-1.51,-0.24,-1.70,-0.65,0.23,-0.25,
4.164,-1.51,-0.24,-1.70,-0.61,0.22,-0.23,
4.164,-1.64,-0.28,-2.22,-0.61,0.22,-0.23,
4.164,-1.64,-0.28,-2.22,-0.57,0.22,-0.22,
4.167,-1.64,-0.28,-2.22,-0.54,0.22,-0.20,
4.17,-1.64,-0.28,-2.22,-0.49,0.21,-0.18,
4.17,-1.64,-0.28,-2.22,-0.48,0.21,-0.17,
4.173,-1.64,-0.28,-2.22,-0.43,0.21,-0.16,
4.174,-1.67,-0.37,-2.81,-0.43,0.21,-0.16,
4.174,-1.67,-0.37,-2.81,-0.42,0.21,-0.15,
4.175,-1.67,-0.37,-2.81,-0.40,0.21,-0.15,
4.178,-1.67,-0.37,-2.81,-0.37,0.22,-0.14,
4.179,-1.67,-0.37,-2.81,-0.35,0.22,-0.13,
4.181,-1.67,-0.37,-2.81,-0.33,0.24,-0.12,
4.183,-1.78,-0.50,-3.33,-0.33,0.24,-0.12,
4.183,-1.78,-0.50,-3.33,-0.30,0.25,-0.11,
4.185,-1.78,-0.50,-3.33,-0.28,0.26,-0.10,
4.192,-1.78,-0.50,-3.33,-0.23,0.29,-0.08,
4.193,-1.78,-0.50,-3.33,-0.22,0.29,-0.07,
4.193,-1.78,-0.50,-3.33,-0.19,0.31,-0.05,
4.193,-2.16,-0.43,-3.34,-0.19,0.31,-0.05,
4.193,-2.16,-0.43,-3.34,-0.16,0.32,-0.04,
4.196,-2.16,-0.43,-3.34,-0.12,0.34,-0.02,
4.198,-2.16,-0.43,-3.34,-0.07,0.36,0.00,
4.199,-2.16,-0.43,-3.34,-0.05,0.37,0.01,
4.201,-2.16,-0.43,-3.34,-0.02,0.38,0.03,
4.204,-2.20,-0.71,-3.08,-0.02,0.38,0.03,
4.204,-2.20,-0.71,-3.08,0.02,0.40,0.04,
4.205,-2.20,-0.71,-3.08,0.07,0.41,0.07,
4.21,-2.20,-0.71,-3.08,0.14,0.44,0.10,
4.21,-2.20,-0.71,-3.08,0.16,0.45,0.11,
4.211,-2.20,-0.71,-3.08,0.21,0.47,0.13,
4.213,-2.55,-0.84,-2.54,0.21,0.47,0.13,
4.214,-2.55,-0.84,-2.54,0.27,0.49,0.15,
4.215,-2.55,-0.84,-2.54,0.33,0.50,0.18,
4.218,-2.55,-0.84,-2.54,0.43,0.53,0.22,
4.219,-2.55,-0.84,-2.54,0.47,0.53,0.23,
4.224,-2.55,-0.84,-2.54,0.53,0.55,0.26,
4.226,-2.61,-0.90,-2.08,0.53,0.55,0.26,
4.227,-2.61,-0.90,-2.08,0.61,0.56,0.29,
4.227,-2.61,-0.90,-2.08,0.68,0.57,0.31,
4.228,-2.61,-0.90,-2.08,0.79,0.58,0.35,
4.229,-2.61,-0.90,-2.08,0.83,0.59,0.37,
4.231,-2.61,-0.90,-2.08,0.90,0.59,0.39,
4.234,-2.62,-0.88,-2.22,0.90,0.59,0.39,
4.234,-2.62,-0.88,-2.22,0.98,0.59,0.42,
4.235,-2.62,-0.88,-2.22,1.05,0.58,0.44,
4.246,-2.62,-0.88,-2.22,1.15,0.56,0.47,
4.247,-2.62,-0.88,-2.22,1.18,0.55,0.48,
4.247,-2.62,-0.88,-2.22,1.24,0.52,0.49,
4.247,-2.04,-0.86,-3.04,1.24,0.52,0.49,
4.247,-2.04,-0.86,-3.04,1.29,0.49,0.51,
4.247,-2.04,-0.86,-3.04,1.35,0.45,0.51,
4.249,-2.04,-0.86,-3.04,1.42,0.39,0.51,
4.249,-2.04,-0.86,-3.04,1.44,0.36,0.51,
4.251,-2.04,-0.86,-3.04,1.48,0.31,0.51,
4.255,-1.29,-0.75,-4.12,1.48,0.31,0.51,
4.255,-1.29,-0.75,-4.12,1.51,0.26,0.50,
4.255,-1.29,-0.75,-4.12,1.54,0.20,0.49,
4.262,-1.29,-0.75,-4.12,1.57,0.11,0.47,
4.263,-1.29,-0.75,-4.12,1.58,0.08,0.46,
4.263,-1.29,-0.75,-4.12,1.59,0.01,0.44,
4.264,-0.47,-0.52,-5.26,1.59,0.01,0.44,
4.264,-0.47,-0.52,-5.26,1.59,-0.05,0.42,
4.266,-0.47,-0.52,-5.26,1.60,-0.11,0.39,
4.269,-0.47,-0.52,-5.26,1.56,-0.21,0.35,
4.306,-0.47,-0.52,-5.26,1.55,-0.24,0.33,
4.306,-0.47,-0.52,-5.26,1.53,-0.30,0.30,
4.306,0.22,-0.27,-6.21,1.53,-0.30,0.30,
4.307,0.22,-0.27,-6.21,1.50,-0.36,0.27,
4.307,0.22,-0.27,-6.21,1.46,-0.40,0.23,
4.307,0.22,-0.27,-6.21,1.40,-0.47,0.18,
4.308,0.22,-0.27,-6.21,1.38,-0.49,0.16,
4.308,0.22,-0.27,-6.21,1.34,-0.52,0.12,
4.308,0.73,-0.11,-6.46,1.34,-0.52,0.12,
4.308,0.73,-0.11,-6.46,1.29,-0.54,0.08,
4.309,0.73,-0.11,-6.46,1.24,-0.56,0.04,
4.309,0.73,-0.11,-6.46,1.16,-0.57,-0.02,
4.309,0.73,-0.11,-6.46,1.14,-0.57,-0.04,
4.309,0.73,-0.11,-6.46,1.09,-0.57,-0.09,
4.31,1.18,0.09,-5.87,1.09,-0.57,-0.09,
4.31,1.18,0.09,-5.87,1.04,-0.56,-0.13,
4.31,1.18,0.09,-5.87,1.00,-0.54,-0.17,
4.311,1.18,0.09,-5.87,0.94,-0.50,-0.24,
4.311,1.18,0.09,-5.87,0.92,-0.48,-0.26,
4.311,1.18,0.09,-5.87,0.88,-0.44,-0.30,
4.311,1.45,0.10,-4.76,0.88,-0.44,-0.30,
4.312,1.45,0.10,-4.76,0.84,-0.40,-0.34,
4.312,1.45,0.10,-4.76,0.80,-0.36,-0.38,
4.312,1.45,0.10,-4.76,0.74,-0.28,-0.43,
4.313,1.45,0.10,-4.76,0.72,-0.25,-0.45,
4.313,1.45,0.10,-4.76,0.68,-0.20,-0.48,
4.32,1.46,0.06,-3.79,0.68,-0.20,-0.48,
4.32,1.46,0.06,-3.79,0.65,-0.13,-0.51,
4.321,1.46,0.06,-3.79,0.61,-0.07,-0.54,
4.321,1.46,0.06,-3.79,0.57,0.04,-0.57,
4.321,1.46,0.06,-3.79,0.55,0.07,-0.58,
4.321,1.46,0.06,-3.79,0.53,0.14,-0.60,
4.325,1.16,-0.20,-2.84,0.53,0.14,-0.60,
4.326,1.16,-0.20,-2.84,0.50,0.21,-0.61,
4.328,1.16,-0.20,-2.84,0.48,0.28,-0.62,
4.328,1.16,-0.20,-2.84,0.46,0.38,-0.63,
4.329,1.16,-0.20,-2.84,0.45,0.41,-0.64,
4.331,1.16,-0.20,-2.84,0.44,0.47,-0.64,
4.333,0.94,-0.30,-2.01,0.44,0.47,-0.64,
4.334,0.94,-0.30,-2.01,0.43,0.52,-0.65,
4.335,0.94,-0.30,-2.01,0.43,0.57,-0.66,
4.34,0.94,-0.30,-2.01,0.42,0.62,-0.67,
4.348,0.94,-0.30,-2.01,0.42,0.63,-0.68,
4.348,0.94,-0.30,-2.01,0.42,0.64,-0.70,
4.349,1.10,-0.28,-1.40,0.42,0.64,-0.70,
4.349,1.10,-0.28,-1.40,0.43,0.65,-0.71,
4.349,1.10,-0.28,-1.40,0.43,0.65,-0.72,
4.35,1.10,-0.28,-1.40,0.44,0.63,-0.74,
4.352,1.10,-0.28,-1.40,0.45,0.63,-0.75,
4.352,1.10,-0.28,-1.40,0.46,0.61,-0.76,
4.36,1.29,-0.13,-0.96,0.46,0.61,-0.76,
4.36,1.29,-0.13,-0.96,0.47,0.58,-0.77,
4.361,1.29,-0.13,-0.96,0.48,0.55,-0.78,
4.361,1.29,-0.13,-0.96,0.50,0.50,-0.81,
4.361,1.29,-0.13,-0.96,0.50,0.48,-0.81,
4.364,1.29,-0.13,-0.96,0.52,0.43,-0.83,
4.366,1.53,0.17,-0.53,0.52,0.43,-0.83,
4.368,1.53,0.17,-0.53,0.53,0.39,-0.85,
4.369,1.53,0.17,-0.53,0.55,0.35,-0.87,
4.369,1.53,0.17,-0.53,0.56,0.29,-0.91,
4.402,1.53,0.17,-0.53,0.57,0.27,-0.92,
4.402,1.53,0.17,-0.53,0.58,0.22,-0.94,
4.403,1.83,0.65,-0.12,0.58,0.22,-0.94,
4.403,1.83,0.65,-0.12,0.58,0.18,-0.97,
4.403,1.83,0.65,-0.12,0.59,0.14,-0.99,
4.403,1.83,0.65,-0.12,0.59,0.07,-1.02,
4.403,1.83,0.65,-0.12,0.59,0.05,-1.03,
4.403,1.83,0.65,-0.12,0.57,0.01,-1.05,
4.403,1.67,0.94,0.08,0.57,0.01,-1.05,
4.404,1.67,0.94,0.08,0.57,-0.04,-1.06,
4.404,1.67,0.94,0.08,0.55,-0.08,-1.08,
4.404,1.67,0.94,0.08,0.54,-0.12,-1.09,
4.404,1.67,0.94,0.08,0.53,-0.13,-1.09,
4.404,1.67,0.94,0.08,0.51,-0.16,-1.09,
4.404,1.13,1.19,0.28,0.51,-0.16,-1.09,
4.405,1.13,1.19,0.28,0.45,-0.18,-1.08,
4.405,1.13,1.19,0.28,0.45,-0.18,-1.08,
4.405,1.13,1.19,0.28,0.40,-0.19,-1.07,
4.405,1.13,1.19,0.28,0.38,-0.19,-1.06,
4.405,1.13,1.19,0.28,0.33,-0.20,-1.04,
4.405,0.42,1.29,0.38,0.33,-0.20,-1.04,
4.405,0.42,1.29,0.38,0.28,-0.20,-1.02,
4.406,0.42,1.29,0.38,0.23,-0.20,-1.00,
4.408,0.42,1.29,0.38,0.13,-0.20,-0.97,
4.41,0.42,1.29,0.38,0.10,-0.20,-0.95,
4.411,0.42,1.29,0.38,0.04,-0.20,-0.93,
4.413,-0.22,1.33,0.76,0.04,-0.20,-0.93,
4.413,-0.22,1.33,0.76,-0.03,-0.20,-0.90,
4.415,-0.22,1.33,0.76,-0.10,-0.20,-0.87,
4.419,-0.22,1.33,0.76,-0.21,-0.21,-0.83,
4.421,-0.22,1.33,0.76,-0.24,-0.21,-0.81,
4.422,-0.22,1.33,0.76,-0.32,-0.23,-0.78,
4.424,-0.51,1.28,1.87,-0.32,-0.23,-0.78,
4.424,-0.51,1.28,1.87,-0.39,-0.25,-0.75,
4.426,-0.51,1.28,1.87,-0.47,-0.28,-0.72,
4.429,-0.51,1.28,1.87,-0.56,-0.32,-0.67,
4.429,-0.51,1.28,1.87,-0.61,-0.34,-0.66,
4.435,-0.51,1.28,1.87,-0.67,-0.37,-0.63,
4.437,-0.31,1.22,3.75,-0.67,-0.37,-0.63,
4.437,-0.31,1.22,3.75,-0.73,-0.41,-0.60,
4.453,-0.31,1.22,3.75,-0.78,-0.43,-0.58,
4.454,-0.31,1.22,3.75,-0.84,-0.47,-0.56,
4.454,-0.31,1.22,3.75,-0.86,-0.48,-0.55,
4.455,-0.31,1.22,3.75,-0.89,-0.50,-0.54,
4.455,0.48,1.39,6.39,-0.89,-0.50,-0.54,
4.455,0.48,1.39,6.39,-0.92,-0.52,-0.54,
4.455,0.48,1.39,6.39,-0.93,-0.53,-0.53,
4.456,0.48,1.39,6.39,-0.95,-0.54,-0.52,
4.456,0.48,1.39,6.39,-0.95,-0.54,-0.52,
4.456,0.48,1.39,6.39,-0.95,-0.54,-0.52,
4.456,1.31,1.77,9.07,-0.95,-0.54,-0.52,
4.457,1.31,1.77,9.07,-0.95,-0.54,-0.53,
4.457,1.31,1.77,9.07,-0.95,-0.55,-0.53,
4.463,1.31,1.77,9.07,-0.95,-0.54,-0.55,
4.463,1.31,1.77,9.07,-0.95,-0.54,-0.55,
4.464,1.31,1.77,9.07,-0.95,-0.55,-0.57,
4.464,2.37,1.99,10.62,-0.95,-0.55,-0.57,
4.464,2.37,1.99,10.62,-0.96,-0.55,-0.59,
4.466,2.37,1.99,10.62,-0.97,-0.55,-0.61,
4.468,2.37,1.99,10.62,-0.99,-0.55,-0.65,
4.47,2.37,1.99,10.62,-1.01,-0.55,-0.66,
4.472,2.37,1.99,10.62,-1.03,-0.55,-0.69,
4.474,3.61,1.52,11.05,-1.03,-0.55,-0.69,
4.474,3.61,1.52,11.05,-1.06,-0.54,-0.72,
4.475,3.61,1.52,11.05,-1.09,-0.54,-0.74,
4.478,3.61,1.52,11.05,-1.14,-0.51,-0.78,
4.479,3.61,1.52,11.05,-1.16,-0.49,-0.79,
4.481,3.61,1.52,11.05,-1.19,-0.46,-0.81,
4.483,3.92,0.69,11.20,-1.19,-0.46,-0.81,
4.483,3.92,0.69,11.20,-1.22,-0.42,-0.82,
4.485,3.92,0.69,11.20,-1.26,-0.37,-0.83,
4.492,3.92,0.69,11.20,-1.29,-0.27,-0.83,
4.492,3.92,0.69,11.20,-1.31,-0.24,-0.82,
4.493,3.92,0.69,11.20,-1.33,-0.15,-0.81,
4.495,3.43,-0.42,11.67,-1.33,-0.15,-0.81,
4.495,3.43,-0.42,11.67,-1.34,-0.06,-0.79,
4.495,3.43,-0.42,11.67,-1.35,0.05,-0.77,
4.498,3.43,-0.42,11.67,-1.35,0.22,-0.72,
4.499,3.43,-0.42,11.67,-1.35,0.28,-0.71,
4.501,3.43,-0.42,11.67,-1.34,0.40,-0.67,
4.507,2.59,-1.29,12.03,-1.34,0.40,-0.67,
4.507,2.59,-1.29,12.03,-1.32,0.53,-0.64,
4.507,2.59,-1.29,12.03,-1.30,0.65,-0.60,
4.508,2.59,-1.29,12.03,-1.26,0.83,-0.54,
4.509,2.59,-1.29,12.03,-1.24,0.88,-0.52,
4.511,2.59,-1.29,12.03,-1.20,0.99,-0.48,
4.513,1.79,-1.70,11.94,-1.20,0.99,-0.48,
4.513,1.79,-1.70,11.94,-1.16,1.08,-0.45,
4.515,1.79,-1.70,11.94,-1.11,1.17,-0.41,
4.518,1.79,-1.70,11.94,-1.03,1.28,-0.36,
4.519,1.79,-1.70,11.94,-1.01,1.31,-0.34,
4.522,1.79,-1.70,11.94,-0.93,1.39,-0.29,
4.524,1.01,-1.49,10.82,-0.93,1.39,-0.29,
4.524,1.01,-1.49,10.82,-0.90,1.42,-0.27,
4.525,1.01,-1.49,10.82,-0.85,1.45,-0.24,
4.528,1.01,-1.49,10.82,-0.77,1.48,-0.19,
4.529,1.01,-1.49,10.82,-0.74,1.48,-0.18,
4.531,1.01,-1.49,10.82,-0.69,1.48,-0.15,
4.533,0.45,-1.23,8.72,-0.69,1.48,-0.15,
4.533,0.45,-1.23,8.72,-0.64,1.47,-0.11,
4.535,0.45,-1.23,8.72,-0.59,1.45,-0.09,
4.538,0.45,-1.23,8.72,-0.52,1.40,-0.04,
4.539,0.45,-1.23,8.72,-0.50,1.38,-0.03,
4.541,0.45,-1.23,8.72,-0.45,1.33,0.00,
4.543,-0.01,-0.78,6.23,-0.45,1.33,0.00,
4.543,-0.01,-0.78,6.23,-0.40,1.27,0.03,
4.545,-0.01,-0.78,6.23,-0.36,1.21,0.06,
4.548,-0.01,-0.78,6.23,-0.29,1.10,0.10,
4.549,-0.01,-0.78,6.23,-0.27,1.06,0.11,
4.551,-0.01,-0.78,6.23,-0.23,0.98,0.13,
4.554,-0.13,-0.37,3.82,-0.23,0.98,0.13,
4.555,-0.13,-0.37,3.82,-0.19,0.89,0.15,
4.555,-0.13,-0.37,3.82,-0.15,0.80,0.17,
4.558,-0.13,-0.37,3.82,-0.09,0.67,0.19,
4.559,-0.13,-0.37,3.82,-0.07,0.62,0.20,
4.561,-0.13,-0.37,3.82,-0.04,0.53,0.22,
4.563,0.01,-0.09,1.65,-0.04,0.53,0.22,
4.563,0.01,-0.09,1.65,-0.00,0.44,0.23,
4.565,0.01,-0.09,1.65,0.03,0.35,0.24,
4.568,0.01,-0.09,1.65,0.09,0.22,0.26,
4.569,0.01,-0.09,1.65,0.10,0.18,0.27,
4.571,0.01,-0.09,1.65,0.13,0.09,0.28,
4.573,0.13,0.05,-0.21,0.13,0.09,0.28,
4.574,0.13,0.05,-0.21,0.16,0.01,0.30,
4.575,0.13,0.05,-0.21,0.19,-0.06,0.31,
4.578,0.13,0.05,-0.21,0.23,-0.16,0.32,
4.579,0.13,0.05,-0.21,0.24,-0.19,0.33,
4.581,0.13,0.05,-0.21,0.26,-0.25,0.34,
4.583,0.24,0.10,-1.83,0.26,-0.25,0.34,
4.583,0.24,0.10,-1.83,0.28,-0.30,0.35,
4.587,0.24,0.10,-1.83,0.29,-0.35,0.35,
4.591,0.24,0.10,-1.83,0.32,-0.41,0.36,
4.592,0.24,0.10,-1.83,0.32,-0.43,0.37,
4.592,0.24,0.10,-1.83,0.34,-0.47,0.38,
4.594,0.39,0.10,-3.22,0.34,-0.47,0.38,
4.594,0.39,0.10,-3.22,0.35,-0.50,0.38,
4.595,0.39,0.10,-3.22,0.36,-0.52,0.39,
4.598,0.39,0.10,-3.22,0.37,-0.55,0.40,
4.599,0.39,0.10,-3.22,0.37,-0.56,0.40,
4.601,0.39,0.10,-3.22,0.38,-0.58,0.40,
4.631,0.53,0.05,-4.34,0.38,-0.58,0.40,
4.631,0.53,0.05,-4.34,0.38,-0.59,0.41,
4.632,0.53,0.05,-4.34,0.38,-0.59,0.41,
4.632,0.53,0.05,-4.34,0.38,-0.60,0.41,
4.632,0.53,0.05,-4.34,0.38,-0.60,0.41,
4.633,0.53,0.05,-4.34,0.38,-0.60,0.40,
4.633,0.76,0.14,-5.25,0.38,-0.60,0.40,
4.634,0.76,0.14,-5.25,0.37,-0.59,0.40,
4.634,0.76,0.14,-5.25,0.37,-0.59,0.39,
4.634,0.76,0.14,-5.25,0.36,-0.58,0.37,
4.635,0.76,0.14,-5.25,0.36,-0.58,0.37,
4.635,0.76,0.14,-5.25,0.35,-0.57,0.36,
4.636,0.87,0.06,-5.94,0.35,-0.57,0.36,
4.636,0.87,0.06,-5.94,0.34,-0.56,0.35,
4.637,0.87,0.06,-5.94,0.33,-0.55,0.34,
4.637,0.87,0.06,-5.94,0.31,-0.53,0.32,
4.638,0.87,0.06,-5.94,0.31,-0.53,0.32,
4.638,0.87,0.06,-5.94,0.29,-0.52,0.31,
4.638,0.83,0.09,-6.55,0.29,-0.52,0.31,
4.639,0.83,0.09,-6.55,0.28,-0.51,0.30,
4.639,0.83,0.09,-6.55,0.26,-0.50,0.29,
4.639,0.83,0.09,-6.55,0.23,-0.49,0.27,
4.64,0.83,0.09,-6.55,0.23,-0.49,0.26,
4.645,0.83,0.09,-6.55,0.21,-0.48,0.25,
4.645,0.73,-0.06,-6.83,0.21,-0.48,0.25,
4.646,0.73,-0.06,-6.83,0.19,-0.47,0.24,
4.646,0.73,-0.06,-6.83,0.18,-0.46,0.22,
4.648,0.73,-0.06,-6.83,0.15,-0.44,0.20,
4.649,0.73,-0.06,-6.83,0.14,-0.44,0.19,
4.651,0.73,-0.06,-6.83,0.13,-0.42,0.18,
4.653,0.64,-0.01,-6.87,0.13,-0.42,0.18,
4.654,0.64,-0.01,-6.87,0.11,-0.41,0.16,
4.655,0.64,-0.01,-6.87,0.09,-0.39,0.15,
4.658,0.64,-0.01,-6.87,0.07,-0.37,0.13,
4.659,0.64,-0.01,-6.87,0.06,-0.36,0.12,
4.661,0.64,-0.01,-6.87,0.05,-0.35,0.11,
4.663,0.54,-0.31,-6.72,0.05,-0.35,0.11,
4.663,0.54,-0.31,-6.72,0.04,-0.33,0.09,
4.665,0.54,-0.31,-6.72,0.02,-0.32,0.08,
4.676,0.54,-0.31,-6.72,0.00,-0.29,0.07,
4.677,0.54,-0.31,-6.72,-0.00,-0.29,0.06,
4.677,0.54,-0.31,-6.72,-0.01,-0.27,0.05,
4.677,0.37,-0.43,-6.46,-0.01,-0.27,0.05,
4.678,0.37,-0.43,-6.46,-0.02,-0.26,0.04,
4.678,0.37,-0.43,-6.46,-0.04,-0.24,0.04,
4.678,0.37,-0.43,-6.46,-0.05,-0.22,0.02,
4.679,0.37,-0.43,-6.46,-0.06,-0.22,0.02,
4.681,0.37,-0.43,-6.46,-0.07,-0.21,0.01,
4.683,0.30,-0.78,-6.10,-0.07,-0.21,0.01,
4.683,0.30,-0.78,-6.10,-0.08,-0.19,0.01,
4.709,0.30,-0.78,-6.10,-0.09,-0.18,-0.00,
4.71,0.30,-0.78,-6.10,-0.10,-0.17,-0.01,
4.71,0.30,-0.78,-6.10,-0.11,-0.16,-0.01,
4.71,0.30,-0.78,-6.10,-0.11,-0.15,-0.01,
4.711,0.09,-0.97,-5.67,-0.11,-0.15,-0.01,
4.711,0.09,-0.97,-5.67,-0.12,-0.14,-0.01,
4.711,0.09,-0.97,-5.67,-0.13,-0.12,-0.00,
4.712,0.09,-0.97,-5.67,-0.14,-0.10,0.01,
4.712,0.09,-0.97,-5.67,-0.14,-0.09,0.01,
4.712,0.09,-0.97,-5.67,-0.15,-0.08,0.02,
4.712,-0.36,-1.35,-5.13,-0.15,-0.08,0.02,
4.712,-0.36,-1.35,-5.13,-0.16,-0.06,0.04,
4.712,-0.36,-1.35,-5.13,-0.16,-0.04,0.05,
4.713,-0.36,-1.35,-5.13,-0.15,-0.01,0.08,
4.713,-0.36,-1.35,-5.13,-0.15,-0.01,0.09,
4.713,-0.36,-1.35,-5.13,-0.15,0.01,0.10,
4.713,-0.64,-1.59,-4.41,-0.15,0.01,0.10,
4.713,-0.64,-1.59,-4.41,-0.14,0.02,0.12,
4.716,-0.64,-1.59,-4.41,-0.13,0.02,0.14,
4.718,-0.64,-1.59,-4.41,-0.10,0.02,0.16,
4.721,-0.64,-1.59,-4.41,-0.10,0.02,0.16,
4.722,-0.64,-1.59,-4.41,-0.08,0.02,0.18,
4.724,-0.55,-1.65,-3.58,-0.08,0.02,0.18,
4.724,-0.55,-1.65,-3.58,-0.06,0.02,0.19,
4.725,-0.55,-1.65,-3.58,-0.03,0.01,0.20,
4.728,-0.55,-1.65,-3.58,-0.00,-0.00,0.22,
4.729,-0.55,-1.65,-3.58,0.01,-0.01,0.22,
4.731,-0.55,-1.65,-3.58,0.04,-0.02,0.23,
4.734,-0.39,-1.69,-2.94,0.04,-0.02,0.23,
4.734,-0.39,-1.69,-2.94,0.06,-0.03,0.24,
4.752,-0.39,-1.69,-2.94,0.09,-0.04,0.25,
4.752,-0.39,-1.69,-2.94,0.13,-0.06,0.26,
4.752,-0.39,-1.69,-2.94,0.15,-0.07,0.26,
4.752,-0.39,-1.69,-2.94,0.17,-0.08,0.27,
4.753,-0.17,-1.62,-2.48,0.17,-0.08,0.27,
4.753,-0.17,-1.62,-2.48,0.20,-0.10,0.28,
4.753,-0.17,-1.62,-2.48,0.23,-0.11,0.28,
4.753,-0.17,-1.62,-2.48,0.27,-0.13,0.29,
4.754,-0.17,-1.62,-2.48,0.28,-0.14,0.29,
4.754,-0.17,-1.62,-2.48,0.30,-0.15,0.29,
4.754,0.13,-1.61,-2.15,0.30,-0.15,0.29,
4.754,0.13,-1.61,-2.15,0.33,-0.17,0.29,
4.755,0.13,-1.61,-2.15,0.36,-0.19,0.29,
4.758,0.13,-1.61,-2.15,0.40,-0.22,0.29,
4.76,0.13,-1.61,-2.15,0.41,-0.24,0.29,
4.763,0.13,-1.61,-2.15,0.44,-0.26,0.29,
4.764,0.29,-1.54,-1.74,0.44,-0.26,0.29,
4.766,0.29,-1.54,-1.74,0.46,-0.28,0.29,
4.767,0.29,-1.54,-1.74,0.49,-0.30,0.29,
4.783,0.29,-1.54,-1.74,0.52,-0.33,0.29,
4.812,0.29,-1.54,-1.74,0.53,-0.33,0.29,
4.812,0.29,-1.54,-1.74,0.55,-0.35,0.29,
4.813,0.25,-1.57,-1.49,0.55,-0.35,0.29,
4.813,0.25,-1.57,-1.49,0.57,-0.36,0.30,
4.814,0.25,-1.57,-1.49,0.58,-0.36,0.30,
4.814,0.25,-1.57,-1.49,0.60,-0.36,0.32,
4.815,0.25,-1.57,-1.49,0.61,-0.36,0.32,
4.815,0.25,-1.57,-1.49,0.62,-0.36,0.33,
4.816,0.12,-1.65,-1.34,0.62,-0.36,0.33,
4.816,0.12,-1.65,-1.34,0.63,-0.35,0.35,
4.816,0.12,-1.65,-1.34,0.64,-0.34,0.36,
4.817,0.12,-1.65,-1.34,0.65,-0.33,0.38,
4.817,0.12,-1.65,-1.34,0.65,-0.32,0.39,
4.818,0.12,-1.65,-1.34,0.66,-0.30,0.41,
4.818,0.02,-1.77,-1.03,0.66,-0.30,0.41,
4.818,0.02,-1.77,-1.03,0.67,-0.28,0.42,
4.819,0.02,-1.77,-1.03,0.68,-0.26,0.44,
4.819,0.02,-1.77,-1.03,0.70,-0.22,0.46,
4.82,0.02,-1.77,-1.03,0.70,-0.20,0.47,
4.82,0.02,-1.77,-1.03,0.71,-0.17,0.48,
4.82,0.11,-1.69,-0.66,0.71,-0.17,0.48,
4.821,0.11,-1.69,-0.66,0.72,-0.13,0.49,
4.821,0.11,-1.69,-0.66,0.74,-0.09,0.51,
4.822,0.11,-1.69,-0.66,0.75,-0.03,0.52,
4.822,0.11,-1.69,-0.66,0.75,-0.01,0.52,
4.822,0.11,-1.69,-0.66,0.76,0.03,0.53,
4.823,0.34,-1.57,-0.51,0.76,0.03,0.53,
4.823,0.34,-1.57,-0.51,0.77,0.07,0.54,
4.824,0.34,-1.57,-0.51,0.77,0.11,0.54,
4.824,0.34,-1.57,-0.51,0.78,0.16,0.55,
4.825,0.34,-1.57,-0.51,0.78,0.18,0.55,
4.825,0.34,-1.57,-0.51,0.78,0.21,0.55,
4.825,0.57,-1.32,-0.65,0.78,0.21,0.55,
4.826,0.57,-1.32,-0.65,0.78,0.25,0.55,
4.826,0.57,-1.32,-0.65,0.78,0.27,0.54,
4.833,0.57,-1.32,-0.65,0.77,0.31,0.54,
4.834,0.57,-1.32,-0.65,0.77,0.32,0.54,
4.834,0.57,-1.32,-0.65,0.76,0.35,0.54,
4.834,0.63,-1.05,-1.01,0.76,0.35,0.54,
4.835,0.63,-1.05,-1.01,0.75,0.37,0.53,
4.835,0.63,-1.05,-1.01,0.74,0.38,0.53,
4.838,0.63,-1.05,-1.01,0.73,0.40,0.53,
4.839,0.63,-1.05,-1.01,0.72,0.40,0.52,
4.854,0.63,-1.05,-1.01,0.71,0.41,0.52,
4.856,0.49,-0.78,-1.37,0.71,0.41,0.52,
4.858,0.49,-0.78,-1.37,0.70,0.41,0.52,
4.859,0.49,-0.78,-1.37,0.69,0.40,0.51,
4.859,0.49,-0.78,-1.37,0.67,0.38,0.51,
4.859,0.49,-0.78,-1.37,0.67,0.38,0.50,
4.86,0.49,-0.78,-1.37,0.66,0.36,0.50,
4.86,0.42,-0.53,-1.53,0.66,0.36,0.50,
4.86,0.42,-0.53,-1.53,0.65,0.34,0.49,
4.86,0.42,-0.53,-1.53,0.64,0.32,0.48,
4.86,0.42,-0.53,-1.53,0.62,0.28,0.48,
4.861,0.42,-0.53,-1.53,0.62,0.27,0.47,
4.861,0.42,-0.53,-1.53,0.60,0.25,0.47,
4.868,0.23,-0.29,-1.69,0.60,0.25,0.47,
4.868,0.23,-0.29,-1.69,0.59,0.22,0.47,
4.869,0.23,-0.29,-1.69,0.57,0.18,0.46,
4.869,0.23,-0.29,-1.69,0.54,0.13,0.46,
4.87,0.23,-0.29,-1.69,0.53,0.12,0.46,
4.874,0.23,-0.29,-1.69,0.49,0.07,0.46,
4.875,0.08,-0.19,-1.88,0.49,0.07,0.46,
4.875,0.08,-0.19,-1.88,0.48,0.05,0.45,
4.875,0.08,-0.19,-1.88,0.46,0.02,0.45,
4.878,0.08,-0.19,-1.88,0.43,-0.02,0.45,
4.879,0.08,-0.19,-1.88,0.42,-0.03,0.45,
4.881,0.08,-0.19,-1.88,0.39,-0.06,0.44,
4.883,0.18,-0.12,-1.64,0.39,-0.06,0.44,
4.883,0.18,-0.12,-1.64,0.37,-0.08,0.44,
4.889,0.18,-0.12,-1.64,0.36,-0.09,0.43,
4.889,0.18,-0.12,-1.64,0.33,-0.11,0.42,
4.89,0.18,-0.12,-1.64,0.32,-0.12,0.42,
4.891,0.18,-0.12,-1.64,0.30,-0.13,0.41,
4.893,0.41,-0.06,-1.05,0.30,-0.13,0.41,
4.894,0.41,-0.06,-1.05,0.28,-0.13,0.41,
4.895,0.41,-0.06,-1.05,0.26,-0.14,0.41,
4.919,0.41,-0.06,-1.05,0.23,-0.14,0.40,
4.919,0.41,-0.06,-1.05,0.23,-0.14,0.40,
4.92,0.41,-0.06,-1.05,0.21,-0.13,0.41,
4.92,0.37,-0.03,-0.23,0.21,-0.13,0.41,
4.92,0.37,-0.03,-0.23,0.20,-0.12,0.41,
4.92,0.37,-0.03,-0.23,0.18,-0.10,0.41,
4.92,0.37,-0.03,-0.23,0.16,-0.06,0.42,
4.921,0.37,-0.03,-0.23,0.16,-0.05,0.42,
4.921,0.37,-0.03,-0.23,0.15,-0.02,0.42,
4.921,0.54,-0.08,0.72,0.15,-0.02,0.42,
4.921,0.54,-0.08,0.72,0.14,0.01,0.42,
4.921,0.54,-0.08,0.72,0.13,0.05,0.42,
4.921,0.54,-0.08,0.72,0.12,0.12,0.42,
4.922,0.54,-0.08,0.72,0.12,0.14,0.42,
4.922,0.54,-0.08,0.72,0.12,0.19,0.42,
4.924,0.78,-0.03,1.68,0.12,0.19,0.42,
4.924,0.78,-0.03,1.68,0.12,0.23,0.42,
4.925,0.78,-0.03,1.68,0.12,0.28,0.42,
4.929,0.78,-0.03,1.68,0.13,0.34,0.41,
4.93,0.78,-0.03,1.68,0.13,0.36,0.41,
4.931,0.78,-0.03,1.68,0.14,0.40,0.40,
4.935,1.06,-0.09,2.60,0.14,0.40,0.40,
4.937,1.06,-0.09,2.60,0.15,0.43,0.40,
4.961,1.06,-0.09,2.60,0.16,0.45,0.39,
4.961,1.06,-0.09,2.60,0.19,0.49,0.38,
4.962,1.06,-0.09,2.60,0.20,0.49,0.38,
4.962,1.06,-0.09,2.60,0.22,0.51,0.37,
4.962,1.12,-0.11,3.41,0.22,0.51,0.37,
4.962,1.12,-0.11,3.41,0.24,0.52,0.36,
4.963,1.12,-0.11,3.41,0.26,0.52,0.36,
4.963,1.12,-0.11,3.41,0.29,0.53,0.36,
4.963,1.12,-0.11,3.41,0.31,0.53,0.36,
4.964,1.12,-0.11,3.41,0.33,0.52,0.36,
