
time,ax,ay,az,wx,wy,wz,
0.003,-0.36,-0.47,-0.86,-0.68,0.30,0.45,
0.003,-0.36,-0.47,-0.86,-0.68,0.23,0.45,
0.004,-0.36,-0.47,-0.86,-0.68,0.20,0.45,
0.004,-0.32,-0.45,-0.86,-0.68,0.20,0.45,
0.004,-0.32,-0.45,-0.86,-0.68,0.14,0.46,
0.004,-0.32,-0.45,-0.86,-0.68,0.07,0.46,
0.005,-0.32,-0.45,-0.86,-0.68,-0.01,0.46,
0.007,-0.32,-0.45,-0.86,-0.68,-0.06,0.46,
0.008,-0.32,-0.45,-0.86,-0.68,-0.08,0.46,
0.011,-0.35,-0.40,-0.79,-0.68,-0.08,0.46,
0.012,-0.35,-0.40,-0.79,-0.68,-0.12,0.47,
0.013,-0.35,-0.40,-0.79,-0.68,-0.16,0.47,
0.015,-0.35,-0.40,-0.79,-0.68,-0.22,0.47,
0.017,-0.35,-0.40,-0.79,-0.68,-0.26,0.47,
0.018,-0.35,-0.40,-0.79,-0.67,-0.27,0.47,
0.02,-0.42,-0.26,-0.78,-0.67,-0.27,0.47,
0.02,-0.42,-0.26,-0.78,-0.67,-0.30,0.47,
0.022,-0.42,-0.26,-0.78,-0.66,-0.31,0.47,
0.025,-0.42,-0.26,-0.78,-0.64,-0.29,0.47,
0.027,-0.42,-0.26,-0.78,-0.62,-0.27,0.48,
0.028,-0.42,-0.26,-0.78,-0.62,-0.25,0.48,
0.031,-0.49,0.14,-0.55,-0.62,-0.25,0.48,
0.031,-0.49,0.14,-0.55,-0.60,-0.22,0.49,
0.033,-0.49,0.14,-0.55,-0.60,-0.18,0.50,
0.036,-0.49,0.14,-0.55,-0.59,-0.14,0.52,
0.037,-0.49,0.14,-0.55,-0.59,-0.11,0.53,
0.039,-0.49,0.14,-0.55,-0.59,-0.09,0.54,
0.041,-0.51,0.56,-0.78,-0.59,-0.09,0.54,
0.041,-0.51,0.56,-0.78,-0.60,-0.07,0.56,
0.042,-0.51,0.56,-0.78,-0.60,-0.05,0.58,
0.046,-0.51,0.56,-0.78,-0.62,-0.03,0.60,
0.047,-0.51,0.56,-0.78,-0.63,-0.02,0.62,
0.049,-0.51,0.56,-0.78,-0.64,-0.02,0.63,
0.053,-0.70,0.78,-0.98,-0.64,-0.02,0.63,
0.053,-0.70,0.78,-0.98,-0.66,-0.03,0.65,
0.053,-0.70,0.78,-0.98,-0.68,-0.04,0.68,
0.055,-0.70,0.78,-0.98,-0.71,-0.06,0.71,
0.057,-0.70,0.78,-0.98,-0.73,-0.08,0.73,
0.058,-0.70,0.78,-0.98,-0.74,-0.08,0.74,
0.101,-1.47,0.29,-0.88,-0.74,-0.08,0.74,
0.102,-1.47,0.29,-0.88,-0.76,-0.09,0.76,
0.103,-1.47,0.29,-0.88,-0.77,-0.09,0.77,
0.103,-1.47,0.29,-0.88,-0.79,-0.09,0.78,
0.104,-1.47,0.29,-0.88,-0.80,-0.09,0.78,
0.104,-1.47,0.29,-0.88,-0.81,-0.08,0.78,
0.104,-1.18,-0.45,-0.81,-0.81,-0.08,0.78,
0.105,-1.18,-0.45,-0.81,-0.83,-0.06,0.79,
0.105,-1.18,-0.45,-0.81,-0.85,-0.04,0.79,
0.106,-1.18,-0.45,-0.81,-0.87,0.01,0.80,
0.106,-1.18,-0.45,-0.81,-0.89,0.03,0.80,
0.107,-1.18,-0.45,-0.81,-0.90,0.04,0.81,
0.108,-0.74,-0.68,-0.92,-0.90,0.04,0.81,
0.108,-0.74,-0.68,-0.92,-0.93,0.07,0.81,
0.109,-0.74,-0.68,-0.92,-0.95,0.08,0.82,
0.11,-0.74,-0.68,-0.92,-0.97,0.09,0.83,
0.11,-0.74,-0.68,-0.92,-0.98,0.09,0.84,
0.111,-0.74,-0.68,-0.92,-0.99,0.08,0.85,
0.111,-0.94,-0.43,-0.47,-0.99,0.08,0.85,
0.111,-0.94,-0.43,-0.47,-1.00,0.07,0.86,
0.111,-0.94,-0.43,-0.47,-1.00,0.05,0.87,
0.111,-0.94,-0.43,-0.47,-1.01,0.02,0.88,
0.112,-0.94,-0.43,-0.47,-1.01,-0.00,0.89,
0.112,-0.94,-0.43,-0.47,-1.00,-0.01,0.90,
0.112,-1.02,0.04,0.17,-1.00,-0.01,0.90,
0.12,-1.02,0.04,0.17,-1.00,-0.02,0.91,
0.121,-1.02,0.04,0.17,-0.98,-0.03,0.93,
0.121,-1.02,0.04,0.17,-0.96,-0.05,0.95,
0.121,-1.02,0.04,0.17,-0.94,-0.05,0.97,
0.121,-1.02,0.04,0.17,-0.93,-0.06,0.98,
0.121,-1.38,0.24,0.80,-0.93,-0.06,0.98,
0.121,-1.38,0.24,0.80,-0.91,-0.06,1.00,
0.122,-1.38,0.24,0.80,-0.90,-0.06,1.02,
0.122,-1.38,0.24,0.80,-0.86,-0.06,1.04,
0.122,-1.38,0.24,0.80,-0.84,-0.06,1.06,
0.122,-1.38,0.24,0.80,-0.83,-0.06,1.07,
0.122,-1.41,0.41,1.29,-0.83,-0.06,1.07,
0.123,-1.41,0.41,1.29,-0.80,-0.07,1.08,
0.123,-1.41,0.41,1.29,-0.78,-0.08,1.10,
0.137,-1.41,0.41,1.29,-0.73,-0.11,1.12,
0.138,-1.41,0.41,1.29,-0.70,-0.14,1.13,
0.138,-1.41,0.41,1.29,-0.68,-0.15,1.14,
0.138,-1.33,0.45,1.87,-0.68,-0.15,1.14,
0.138,-1.33,0.45,1.87,-0.65,-0.19,1.15,
0.139,-1.33,0.45,1.87,-0.62,-0.23,1.17,
0.139,-1.33,0.45,1.87,-0.59,-0.29,1.20,
0.139,-1.33,0.45,1.87,-0.56,-0.33,1.21,
0.139,-1.33,0.45,1.87,-0.55,-0.35,1.22,
0.144,-1.42,0.25,1.98,-0.55,-0.35,1.22,
0.144,-1.42,0.25,1.98,-0.53,-0.40,1.25,
0.144,-1.42,0.25,1.98,-0.50,-0.45,1.27,
0.157,-1.42,0.25,1.98,-0.46,-0.52,1.29,
0.157,-1.42,0.25,1.98,-0.43,-0.56,1.31,
0.157,-1.42,0.25,1.98,-0.42,-0.58,1.31,
0.158,-1.26,0.02,2.22,-0.42,-0.58,1.31,
0.158,-1.26,0.02,2.22,-0.39,-0.62,1.33,
0.158,-1.26,0.02,2.22,-0.37,-0.65,1.34,
0.159,-1.26,0.02,2.22,-0.32,-0.68,1.36,
0.159,-1.26,0.02,2.22,-0.30,-0.69,1.37,
0.159,-1.26,0.02,2.22,-0.28,-0.66,1.38,
0.161,-0.99,-0.00,2.24,-0.28,-0.66,1.38,
0.161,-0.99,-0.00,2.24,-0.27,-0.59,1.39,
0.163,-0.99,-0.00,2.24,-0.27,-0.51,1.41,
0.166,-0.99,-0.00,2.24,-0.27,-0.43,1.43,
0.167,-0.99,-0.00,2.24,-0.27,-0.42,1.43,
0.168,-0.99,-0.00,2.24,-0.27,-0.40,1.45,
0.171,-0.98,0.30,1.46,-0.27,-0.40,1.45,
0.171,-0.98,0.30,1.46,-0.26,-0.40,1.46,
0.172,-0.98,0.30,1.46,-0.25,-0.39,1.48,
0.175,-0.98,0.30,1.46,-0.25,-0.38,1.49,
0.177,-0.98,0.30,1.46,-0.24,-0.37,1.50,
0.18,-0.98,0.30,1.46,-0.23,-0.35,1.51,
0.18,-0.45,0.46,1.77,-0.23,-0.35,1.51,
0.181,-0.45,0.46,1.77,-0.22,-0.32,1.52,
0.183,-0.45,0.46,1.77,-0.22,-0.28,1.53,
0.185,-0.45,0.46,1.77,-0.22,-0.22,1.55,
0.186,-0.45,0.46,1.77,-0.22,-0.20,1.55,
0.188,-0.45,0.46,1.77,-0.22,-0.17,1.56,
0.191,-0.38,0.26,1.26,-0.22,-0.17,1.56,
0.191,-0.38,0.26,1.26,-0.23,-0.14,1.57,
0.195,-0.38,0.26,1.26,-0.24,-0.12,1.58,
0.196,-0.38,0.26,1.26,-0.25,-0.10,1.60,
0.198,-0.38,0.26,1.26,-0.26,-0.10,1.62,
0.201,-0.38,0.26,1.26,-0.27,-0.11,1.63,
0.201,-0.75,-0.09,1.12,-0.27,-0.11,1.63,
0.201,-0.75,-0.09,1.12,-0.28,-0.12,1.65,
0.202,-0.75,-0.09,1.12,-0.29,-0.13,1.66,
0.205,-0.75,-0.09,1.12,-0.30,-0.15,1.68,
0.206,-0.75,-0.09,1.12,-0.30,-0.18,1.69,
0.209,-0.75,-0.09,1.12,-0.31,-0.20,1.70,
0.218,-0.93,-0.14,1.25,-0.31,-0.20,1.70,
0.219,-0.93,-0.14,1.25,-0.32,-0.23,1.71,
0.219,-0.93,-0.14,1.25,-0.32,-0.25,1.73,
0.219,-0.93,-0.14,1.25,-0.33,-0.28,1.74,
0.22,-0.93,-0.14,1.25,-0.33,-0.31,1.75,
0.22,-0.93,-0.14,1.25,-0.33,-0.33,1.75,
0.221,-0.79,0.10,1.45,-0.33,-0.33,1.75,
0.222,-0.79,0.10,1.45,-0.33,-0.36,1.77,
0.223,-0.79,0.10,1.45,-0.33,-0.36,1.77,
0.244,-0.79,0.10,1.45,-0.33,-0.36,1.78,
0.244,-0.79,0.10,1.45,-0.33,-0.35,1.79,
0.245,-0.79,0.10,1.45,-0.33,-0.32,1.79,
0.245,-0.62,0.35,1.48,-0.33,-0.32,1.79,
0.245,-0.62,0.35,1.48,-0.33,-0.29,1.80,
0.245,-0.62,0.35,1.48,-0.32,-0.24,1.80,
0.245,-0.62,0.35,1.48,-0.32,-0.17,1.80,
0.245,-0.62,0.35,1.48,-0.32,-0.11,1.80,
0.246,-0.62,0.35,1.48,-0.32,-0.05,1.80,
0.246,-0.39,0.42,1.05,-0.32,-0.05,1.80,
0.246,-0.39,0.42,1.05,-0.33,0.00,1.80,
0.246,-0.39,0.42,1.05,-0.33,0.05,1.81,
0.246,-0.39,0.42,1.05,-0.35,0.11,1.82,
0.25,-0.39,0.42,1.05,-0.35,0.13,1.82,
0.251,-0.39,0.42,1.05,-0.36,0.17,1.83,
0.251,-0.33,0.31,0.52,-0.36,0.17,1.83,
0.251,-0.33,0.31,0.52,-0.37,0.20,1.83,
0.252,-0.33,0.31,0.52,-0.38,0.23,1.84,
0.255,-0.33,0.31,0.52,-0.39,0.26,1.85,
0.256,-0.33,0.31,0.52,-0.40,0.28,1.85,
0.258,-0.33,0.31,0.52,-0.41,0.31,1.86,
0.261,-0.24,0.14,0.39,-0.41,0.31,1.86,
0.261,-0.24,0.14,0.39,-0.41,0.34,1.87,
0.262,-0.24,0.14,0.39,-0.42,0.38,1.87,
0.265,-0.24,0.14,0.39,-0.42,0.42,1.87,
0.266,-0.24,0.14,0.39,-0.42,0.46,1.87,
0.268,-0.24,0.14,0.39,-0.42,0.50,1.87,
0.27,-0.11,0.07,0.34,-0.42,0.50,1.87,
0.271,-0.11,0.07,0.34,-0.42,0.54,1.87,
0.272,-0.11,0.07,0.34,-0.42,0.58,1.87,
0.276,-0.11,0.07,0.34,-0.41,0.61,1.87,
0.276,-0.11,0.07,0.34,-0.41,0.64,1.86,
0.279,-0.11,0.07,0.34,-0.40,0.68,1.86,
0.281,0.00,-0.06,0.51,-0.40,0.68,1.86,
0.281,0.00,-0.06,0.51,-0.40,0.71,1.86,
0.282,0.00,-0.06,0.51,-0.39,0.73,1.86,
0.285,0.00,-0.06,0.51,-0.38,0.76,1.85,
0.286,0.00,-0.06,0.51,-0.38,0.77,1.85,
0.288,0.00,-0.06,0.51,-0.37,0.78,1.85,
0.291,-0.07,-0.39,0.55,-0.37,0.78,1.85,
0.307,-0.07,-0.39,0.55,-0.36,0.78,1.84,
0.307,-0.07,-0.39,0.55,-0.35,0.78,1.84,
0.307,-0.07,-0.39,0.55,-0.34,0.78,1.83,
0.307,-0.07,-0.39,0.55,-0.33,0.78,1.83,
0.307,-0.07,-0.39,0.55,-0.33,0.77,1.83,
0.307,-0.48,-0.64,0.35,-0.33,0.77,1.83,
0.307,-0.48,-0.64,0.35,-0.32,0.76,1.82,
0.308,-0.48,-0.64,0.35,-0.31,0.75,1.82,
0.308,-0.48,-0.64,0.35,-0.29,0.74,1.82,
0.308,-0.48,-0.64,0.35,-0.29,0.72,1.82,
0.311,-0.48,-0.64,0.35,-0.27,0.70,1.82,
0.311,-0.81,-0.55,0.10,-0.27,0.70,1.82,
0.312,-0.81,-0.55,0.10,-0.26,0.67,1.82,
0.312,-0.81,-0.55,0.10,-0.25,0.63,1.82,
0.315,-0.81,-0.55,0.10,-0.24,0.60,1.82,
0.316,-0.81,-0.55,0.10,-0.22,0.57,1.82,
0.318,-0.81,-0.55,0.10,-0.21,0.54,1.82,
0.32,-0.81,-0.17,0.19,-0.21,0.54,1.82,
0.321,-0.81,-0.17,0.19,-0.19,0.52,1.83,
0.322,-0.81,-0.17,0.19,-0.18,0.49,1.84,
0.325,-0.81,-0.17,0.19,-0.17,0.47,1.85,
0.326,-0.81,-0.17,0.19,-0.16,0.44,1.86,
0.329,-0.81,-0.17,0.19,-0.15,0.41,1.88,
0.331,-0.94,0.01,0.15,-0.15,0.41,1.88,
0.331,-0.94,0.01,0.15,-0.14,0.38,1.89,
0.332,-0.94,0.01,0.15,-0.13,0.34,1.91,
0.336,-0.94,0.01,0.15,-0.12,0.32,1.92,
0.336,-0.94,0.01,0.15,-0.11,0.30,1.93,
0.338,-0.94,0.01,0.15,-0.10,0.29,1.95,
0.34,-0.62,-0.17,0.06,-0.10,0.29,1.95,
0.341,-0.62,-0.17,0.06,-0.09,0.27,1.96,
0.357,-0.62,-0.17,0.06,-0.08,0.26,1.96,
0.358,-0.62,-0.17,0.06,-0.07,0.22,1.98,
0.358,-0.62,-0.17,0.06,-0.06,0.21,1.98,
0.358,-0.62,-0.17,0.06,-0.06,0.18,1.99,
0.358,-0.45,-0.29,-0.04,-0.06,0.18,1.99,
0.358,-0.45,-0.29,-0.04,-0.06,0.15,2.00,
0.359,-0.45,-0.29,-0.04,-0.06,0.14,2.01,
0.359,-0.45,-0.29,-0.04,-0.06,0.12,2.02,
0.359,-0.45,-0.29,-0.04,-0.06,0.11,2.03,
0.359,-0.45,-0.29,-0.04,-0.08,0.11,2.03,
0.361,-0.44,-0.40,-0.39,-0.08,0.11,2.03,
0.361,-0.44,-0.40,-0.39,-0.09,0.11,2.04,
0.365,-0.44,-0.40,-0.39,-0.10,0.12,2.04,
0.371,-0.44,-0.40,-0.39,-0.13,0.14,2.05,
0.371,-0.44,-0.40,-0.39,-0.13,0.14,2.05,
0.372,-0.44,-0.40,-0.39,-0.15,0.15,2.06,
0.373,-0.63,-0.48,-0.61,-0.15,0.15,2.06,
0.374,-0.63,-0.48,-0.61,-0.17,0.17,2.07,
0.374,-0.63,-0.48,-0.61,-0.18,0.18,2.08,
0.382,-0.63,-0.48,-0.61,-0.20,0.19,2.10,
0.383,-0.63,-0.48,-0.61,-0.20,0.19,2.10,
0.383,-0.63,-0.48,-0.61,-0.21,0.19,2.11,
0.383,-0.75,-0.58,-0.55,-0.21,0.19,2.11,
0.383,-0.75,-0.58,-0.55,-0.22,0.19,2.12,
0.384,-0.75,-0.58,-0.55,-0.23,0.19,2.14,
0.385,-0.75,-0.58,-0.55,-0.23,0.19,2.15,
0.387,-0.75,-0.58,-0.55,-0.24,0.19,2.16,
0.388,-0.75,-0.58,-0.55,-0.25,0.18,2.17,
0.391,-0.86,-0.71,-0.56,-0.25,0.18,2.17,
0.391,-0.86,-0.71,-0.56,-0.26,0.18,2.18,
0.393,-0.86,-0.71,-0.56,-0.26,0.18,2.20,
0.396,-0.86,-0.71,-0.56,-0.28,0.18,2.22,
0.397,-0.86,-0.71,-0.56,-0.29,0.18,2.22,
0.398,-0.86,-0.71,-0.56,-0.29,0.18,2.23,
0.4,-0.94,-0.72,-0.59,-0.29,0.18,2.23,
0.401,-0.94,-0.72,-0.59,-0.30,0.18,2.25,
0.402,-0.94,-0.72,-0.59,-0.32,0.18,2.26,
0.405,-0.94,-0.72,-0.59,-0.33,0.19,2.28,
0.406,-0.94,-0.72,-0.59,-0.34,0.20,2.29,
0.409,-0.94,-0.72,-0.59,-0.35,0.21,2.30,
0.412,-0.91,-0.75,-0.53,-0.35,0.21,2.30,
0.413,-0.91,-0.75,-0.53,-0.35,0.22,2.32,
0.415,-0.91,-0.75,-0.53,-0.36,0.23,2.33,
0.417,-0.91,-0.75,-0.53,-0.37,0.25,2.35,
0.418,-0.91,-0.75,-0.53,-0.37,0.25,2.36,
0.419,-0.91,-0.75,-0.53,-0.38,0.26,2.37,
0.424,-0.82,-0.78,-0.26,-0.38,0.26,2.37,
0.426,-0.82,-0.78,-0.26,-0.38,0.27,2.38,
0.426,-0.82,-0.78,-0.26,-0.38,0.27,2.39,
0.426,-0.82,-0.78,-0.26,-0.38,0.27,2.40,
0.426,-0.82,-0.78,-0.26,-0.38,0.27,2.40,
0.428,-0.82,-0.78,-0.26,-0.38,0.27,2.41,
0.433,-0.65,-0.79,0.14,-0.38,0.27,2.41,
0.436,-0.65,-0.79,0.14,-0.38,0.27,2.41,
0.437,-0.65,-0.79,0.14,-0.37,0.27,2.42,
0.439,-0.65,-0.79,0.14,-0.36,0.28,2.43,
0.439,-0.65,-0.79,0.14,-0.36,0.28,2.43,
0.44,-0.65,-0.79,0.14,-0.35,0.29,2.43,
0.44,-0.48,-0.79,0.54,-0.35,0.29,2.43,
0.441,-0.48,-0.79,0.54,-0.34,0.29,2.43,
0.443,-0.48,-0.79,0.54,-0.32,0.31,2.42,
0.445,-0.48,-0.79,0.54,-0.31,0.32,2.42,
0.448,-0.48,-0.79,0.54,-0.31,0.32,2.42,
0.449,-0.48,-0.79,0.54,-0.29,0.33,2.41,
0.451,-0.31,-0.86,0.74,-0.29,0.33,2.41,
0.452,-0.31,-0.86,0.74,-0.28,0.33,2.41,
0.453,-0.31,-0.86,0.74,-0.28,0.33,2.40,
0.455,-0.31,-0.86,0.74,-0.26,0.32,2.39,
0.457,-0.31,-0.86,0.74,-0.26,0.32,2.39,
0.48,-0.31,-0.86,0.74,-0.25,0.32,2.39,
0.48,-0.06,-0.98,0.85,-0.25,0.32,2.39,
0.48,-0.06,-0.98,0.85,-0.24,0.31,2.38,
0.481,-0.06,-0.98,0.85,-0.23,0.32,2.37,
0.481,-0.06,-0.98,0.85,-0.21,0.33,2.36,
0.481,-0.06,-0.98,0.85,-0.20,0.33,2.36,
0.481,-0.06,-0.98,0.85,-0.19,0.34,2.36,
0.481,-0.00,-1.11,0.94,-0.19,0.34,2.36,
0.482,-0.00,-1.11,0.94,-0.18,0.35,2.35,
0.482,-0.00,-1.11,0.94,-0.18,0.36,2.35,
0.482,-0.00,-1.11,0.94,-0.17,0.37,2.35,
0.483,-0.00,-1.11,0.94,-0.17,0.37,2.35,
0.483,-0.00,-1.11,0.94,-0.16,0.39,2.34,
0.484,0.04,-1.14,0.85,-0.16,0.39,2.34,
0.484,0.04,-1.14,0.85,-0.15,0.42,2.34,
0.484,0.04,-1.14,0.85,-0.15,0.45,2.34,
0.489,0.04,-1.14,0.85,-0.14,0.50,2.33,
0.49,0.04,-1.14,0.85,-0.13,0.52,2.33,
0.49,0.04,-1.14,0.85,-0.13,0.54,2.33,
0.492,0.17,-1.08,0.88,-0.13,0.54,2.33,
0.492,0.17,-1.08,0.88,-0.12,0.56,2.32,
0.492,0.17,-1.08,0.88,-0.12,0.57,2.32,
0.499,0.17,-1.08,0.88,-0.11,0.59,2.31,
0.5,0.17,-1.08,0.88,-0.11,0.60,2.31,
0.5,0.17,-1.08,0.88,-0.10,0.60,2.30,
0.5,0.35,-0.96,0.83,-0.10,0.60,2.30,
0.501,0.35,-0.96,0.83,-0.10,0.60,2.30,
0.503,0.35,-0.96,0.83,-0.10,0.60,2.29,
0.505,0.35,-0.96,0.83,-0.10,0.59,2.28,
0.506,0.35,-0.96,0.83,-0.10,0.58,2.28,
0.516,0.35,-0.96,0.83,-0.11,0.57,2.27,
0.516,0.46,-0.86,0.51,-0.11,0.57,2.27,
0.517,0.46,-0.86,0.51,-0.11,0.57,2.26,
0.517,0.46,-0.86,0.51,-0.11,0.56,2.25,
0.517,0.46,-0.86,0.51,-0.12,0.55,2.23,
0.517,0.46,-0.86,0.51,-0.12,0.55,2.23,
0.521,0.46,-0.86,0.51,-0.13,0.55,2.21,
0.522,0.75,-0.72,0.32,-0.13,0.55,2.21,
0.522,0.75,-0.72,0.32,-0.13,0.55,2.19,
0.522,0.75,-0.72,0.32,-0.12,0.56,2.17,
0.539,0.75,-0.72,0.32,-0.10,0.59,2.13,
0.539,0.75,-0.72,0.32,-0.08,0.60,2.11,
0.539,0.75,-0.72,0.32,-0.04,0.64,2.07,
0.54,1.44,-0.48,1.38,-0.04,0.64,2.07,
0.54,1.44,-0.48,1.38,0.01,0.68,2.03,
0.54,1.44,-0.48,1.38,0.07,0.70,1.98,
0.54,1.44,-0.48,1.38,0.16,0.73,1.92,
0.54,1.44,-0.48,1.38,0.19,0.74,1.90,
0.541,1.44,-0.48,1.38,0.24,0.74,1.86,
0.544,1.90,-0.47,2.34,0.24,0.74,1.86,
0.545,1.90,-0.47,2.34,0.30,0.75,1.81,
0.545,1.90,-0.47,2.34,0.35,0.74,1.77,
0.546,1.90,-0.47,2.34,0.42,0.73,1.69,
0.546,1.90,-0.47,2.34,0.44,0.72,1.66,
0.548,1.90,-0.47,2.34,0.49,0.71,1.61,
0.55,2.17,-0.71,1.73,0.49,0.71,1.61,
0.551,2.17,-0.71,1.73,0.53,0.70,1.56,
0.552,2.17,-0.71,1.73,0.57,0.67,1.50,
0.555,2.17,-0.71,1.73,0.62,0.63,1.43,
0.556,2.17,-0.71,1.73,0.64,0.62,1.40,
0.558,2.17,-0.71,1.73,0.67,0.58,1.36,
0.561,1.87,-0.84,0.67,0.67,0.58,1.36,
0.561,1.87,-0.84,0.67,0.70,0.55,1.32,
0.563,1.87,-0.84,0.67,0.73,0.51,1.29,
0.566,1.87,-0.84,0.67,0.76,0.44,1.26,
0.566,1.87,-0.84,0.67,0.77,0.41,1.26,
0.569,1.87,-0.84,0.67,0.78,0.36,1.25,
0.571,0.84,-0.70,-0.12,0.78,0.36,1.25,
0.572,0.84,-0.70,-0.12,0.81,0.29,1.25,
0.579,0.84,-0.70,-0.12,0.81,0.26,1.26,
0.58,0.84,-0.70,-0.12,0.83,0.20,1.29,
0.58,0.84,-0.70,-0.12,0.84,0.17,1.30,
0.58,0.84,-0.70,-0.12,0.85,0.14,1.32,
0.582,0.05,-0.60,-0.48,0.85,0.14,1.32,
0.582,0.05,-0.60,-0.48,0.85,0.11,1.34,
0.584,0.05,-0.60,-0.48,0.86,0.09,1.36,
0.586,0.05,-0.60,-0.48,0.86,0.07,1.39,
0.586,0.05,-0.60,-0.48,0.86,0.06,1.40,
0.588,0.05,-0.60,-0.48,0.86,0.05,1.42,
0.591,0.04,-1.09,-0.85,0.86,0.05,1.42,
0.592,0.04,-1.09,-0.85,0.85,0.05,1.43,
0.593,0.04,-1.09,-0.85,0.84,0.04,1.45,
0.595,0.04,-1.09,-0.85,0.81,0.03,1.46,
0.597,0.04,-1.09,-0.85,0.80,0.03,1.47,
0.598,0.04,-1.09,-0.85,0.78,0.02,1.48,
0.6,0.33,-1.36,-1.32,0.78,0.02,1.48,
0.601,0.33,-1.36,-1.32,0.75,0.01,1.48,
0.602,0.33,-1.36,-1.32,0.72,-0.00,1.49,
0.605,0.33,-1.36,-1.32,0.67,-0.01,1.50,
0.606,0.33,-1.36,-1.32,0.65,-0.01,1.50,
0.608,0.33,-1.36,-1.32,0.60,-0.00,1.51,
0.611,0.22,-1.25,-1.66,0.60,-0.00,1.51,
0.611,0.22,-1.25,-1.66,0.56,0.01,1.52,
0.612,0.22,-1.25,-1.66,0.51,0.02,1.53,
0.615,0.22,-1.25,-1.66,0.44,0.01,1.54,
0.616,0.22,-1.25,-1.66,0.42,0.00,1.55,
0.618,0.22,-1.25,-1.66,0.38,-0.02,1.56,
0.62,-0.03,-1.18,-1.74,0.38,-0.02,1.56,
0.621,-0.03,-1.18,-1.74,0.33,-0.04,1.56,
0.622,-0.03,-1.18,-1.74,0.29,-0.06,1.56,
0.633,-0.03,-1.18,-1.74,0.22,-0.09,1.56,
0.633,-0.03,-1.18,-1.74,0.20,-0.10,1.56,
0.633,-0.03,-1.18,-1.74,0.16,-0.12,1.56,
0.633,0.21,-0.94,-1.52,0.16,-0.12,1.56,
0.633,0.21,-0.94,-1.52,0.11,-0.13,1.56,
0.633,0.21,-0.94,-1.52,0.08,-0.13,1.56,
0.639,0.21,-0.94,-1.52,0.04,-0.13,1.55,
0.639,0.21,-0.94,-1.52,0.02,-0.13,1.54,
0.639,0.21,-0.94,-1.52,0.00,-0.12,1.53,
0.655,0.43,-0.91,-0.74,0.00,-0.12,1.53,
0.656,0.43,-0.91,-0.74,-0.02,-0.11,1.52,
0.656,0.43,-0.91,-0.74,-0.03,-0.09,1.52,
0.656,0.43,-0.91,-0.74,-0.04,-0.06,1.51,
0.656,0.43,-0.91,-0.74,-0.04,-0.05,1.51,
0.656,0.43,-0.91,-0.74,-0.04,-0.04,1.50,
0.656,0.61,-0.85,0.09,-0.04,-0.04,1.50,
0.656,0.61,-0.85,0.09,-0.04,-0.03,1.50,
0.656,0.61,-0.85,0.09,-0.04,-0.02,1.50,
0.656,0.61,-0.85,0.09,-0.02,0.01,1.50,
0.66,0.61,-0.85,0.09,-0.01,0.02,1.50,
0.66,0.61,-0.85,0.09,0.00,0.04,1.51,
0.661,0.56,-0.47,0.65,0.00,0.04,1.51,
0.661,0.56,-0.47,0.65,0.02,0.05,1.51,
0.662,0.56,-0.47,0.65,0.03,0.07,1.51,
0.665,0.56,-0.47,0.65,0.05,0.09,1.50,
0.666,0.56,-0.47,0.65,0.06,0.10,1.50,
0.669,0.56,-0.47,0.65,0.07,0.12,1.49,
0.67,0.82,-0.47,0.67,0.07,0.12,1.49,
0.67,0.82,-0.47,0.67,0.08,0.14,1.49,
0.672,0.82,-0.47,0.67,0.09,0.16,1.48,
0.675,0.82,-0.47,0.67,0.11,0.19,1.47,
0.676,0.82,-0.47,0.67,0.11,0.20,1.47,
0.678,0.82,-0.47,0.67,0.12,0.21,1.46,
0.68,0.97,-0.50,0.39,0.12,0.21,1.46,
0.68,0.97,-0.50,0.39,0.13,0.22,1.46,
0.682,0.97,-0.50,0.39,0.13,0.24,1.46,
0.685,0.97,-0.50,0.39,0.14,0.27,1.45,
0.686,0.97,-0.50,0.39,0.13,0.28,1.45,
0.688,0.97,-0.50,0.39,0.13,0.31,1.45,
0.691,0.77,-0.41,-0.02,0.13,0.31,1.45,
0.691,0.77,-0.41,-0.02,0.13,0.33,1.45,
0.692,0.77,-0.41,-0.02,0.12,0.36,1.46,
0.695,0.77,-0.41,-0.02,0.11,0.40,1.46,
0.696,0.77,-0.41,-0.02,0.10,0.41,1.46,
0.699,0.77,-0.41,-0.02,0.09,0.44,1.46,
0.7,0.58,-0.29,-0.35,0.09,0.44,1.46,
0.701,0.58,-0.29,-0.35,0.08,0.47,1.46,
0.702,0.58,-0.29,-0.35,0.06,0.49,1.46,
0.705,0.58,-0.29,-0.35,0.03,0.53,1.46,
0.711,0.58,-0.29,-0.35,0.02,0.54,1.46,
0.713,0.58,-0.29,-0.35,-0.00,0.56,1.45,
0.713,0.46,-0.23,-0.69,-0.00,0.56,1.45,
0.713,0.46,-0.23,-0.69,-0.02,0.59,1.45,
0.714,0.46,-0.23,-0.69,-0.05,0.61,1.45,
0.715,0.46,-0.23,-0.69,-0.10,0.63,1.43,
0.716,0.46,-0.23,-0.69,-0.11,0.64,1.43,
0.718,0.46,-0.23,-0.69,-0.14,0.65,1.42,
0.72,0.54,-0.17,-1.04,-0.14,0.65,1.42,
0.721,0.54,-0.17,-1.04,-0.18,0.66,1.41,
0.722,0.54,-0.17,-1.04,-0.21,0.67,1.39,
0.726,0.54,-0.17,-1.04,-0.27,0.67,1.37,
0.728,0.54,-0.17,-1.04,-0.28,0.66,1.36,
0.729,0.54,-0.17,-1.04,-0.32,0.65,1.34,
0.731,0.79,-0.07,-1.04,-0.32,0.65,1.34,
0.732,0.79,-0.07,-1.04,-0.36,0.64,1.33,
0.732,0.79,-0.07,-1.04,-0.39,0.61,1.31,
0.735,0.79,-0.07,-1.04,-0.44,0.57,1.29,
0.736,0.79,-0.07,-1.04,-0.45,0.55,1.28,
0.738,0.79,-0.07,-1.04,-0.47,0.52,1.27,
0.741,0.96,0.21,-0.44,-0.47,0.52,1.27,
0.742,0.96,0.21,-0.44,-0.49,0.49,1.25,
0.744,0.96,0.21,-0.44,-0.51,0.46,1.23,
0.747,0.96,0.21,-0.44,-0.52,0.41,1.21,
0.748,0.96,0.21,-0.44,-0.53,0.40,1.20,
0.748,0.96,0.21,-0.44,-0.53,0.37,1.18,
0.75,1.27,0.34,0.47,-0.53,0.37,1.18,
0.751,1.27,0.34,0.47,-0.53,0.35,1.15,
0.752,1.27,0.34,0.47,-0.53,0.33,1.13,
0.755,1.27,0.34,0.47,-0.52,0.30,1.10,
0.772,1.27,0.34,0.47,-0.51,0.30,1.09,
0.773,1.27,0.34,0.47,-0.50,0.28,1.07,
0.774,1.58,0.36,1.48,-0.50,0.28,1.07,
0.774,1.58,0.36,1.48,-0.48,0.26,1.04,
0.777,1.58,0.36,1.48,-0.46,0.25,1.02,
0.778,1.58,0.36,1.48,-0.42,0.24,0.99,
0.78,1.58,0.36,1.48,-0.40,0.24,0.98,
0.781,1.58,0.36,1.48,-0.37,0.24,0.96,
0.781,1.74,0.31,2.31,-0.37,0.24,0.96,
0.781,1.74,0.31,2.31,-0.34,0.24,0.94,
0.782,1.74,0.31,2.31,-0.30,0.25,0.92,
0.782,1.74,0.31,2.31,-0.25,0.28,0.91,
0.782,1.74,0.31,2.31,-0.23,0.29,0.90,
0.782,1.74,0.31,2.31,-0.19,0.32,0.89,
0.783,1.50,0.23,2.66,-0.19,0.32,0.89,
0.783,1.50,0.23,2.66,-0.16,0.36,0.88,
0.783,1.50,0.23,2.66,-0.12,0.39,0.88,
0.788,1.50,0.23,2.66,-0.07,0.45,0.87,
0.788,1.50,0.23,2.66,-0.06,0.47,0.87,
0.789,1.50,0.23,2.66,-0.03,0.51,0.87,
0.796,1.19,0.09,2.34,-0.03,0.51,0.87,
0.823,1.19,0.09,2.34,-0.00,0.55,0.86,
0.823,1.19,0.09,2.34,0.02,0.60,0.86,
0.824,1.19,0.09,2.34,0.04,0.66,0.86,
0.824,1.19,0.09,2.34,0.05,0.68,0.86,
0.825,1.19,0.09,2.34,0.06,0.72,0.86,
0.825,0.90,-0.03,1.55,0.06,0.72,0.86,
0.825,0.90,-0.03,1.55,0.07,0.75,0.86,
0.826,0.90,-0.03,1.55,0.07,0.78,0.86,
0.826,0.90,-0.03,1.55,0.07,0.82,0.87,
0.827,0.90,-0.03,1.55,0.07,0.83,0.87,
0.827,0.90,-0.03,1.55,0.07,0.86,0.87,
0.827,0.68,0.03,0.66,0.07,0.86,0.87,
0.828,0.68,0.03,0.66,0.06,0.88,0.87,
0.828,0.68,0.03,0.66,0.06,0.90,0.87,
0.829,0.68,0.03,0.66,0.04,0.93,0.87,
0.829,0.68,0.03,0.66,0.03,0.94,0.87,
0.829,0.68,0.03,0.66,0.02,0.95,0.87,
0.83,0.68,0.01,-0.16,0.02,0.95,0.87,
0.83,0.68,0.01,-0.16,-0.00,0.95,0.87,
0.831,0.68,0.01,-0.16,-0.01,0.95,0.87,
0.831,0.68,0.01,-0.16,-0.04,0.95,0.86,
0.831,0.68,0.01,-0.16,-0.05,0.94,0.86,
0.831,0.68,0.01,-0.16,-0.07,0.93,0.86,
0.832,0.81,0.11,-0.72,-0.07,0.93,0.86,
0.832,0.81,0.11,-0.72,-0.09,0.91,0.85,
0.836,0.81,0.11,-0.72,-0.11,0.89,0.85,
0.836,0.81,0.11,-0.72,-0.14,0.86,0.83,
0.837,0.81,0.11,-0.72,-0.15,0.85,0.83,
0.84,0.81,0.11,-0.72,-0.17,0.83,0.82,
0.842,1.01,0.23,-0.89,-0.17,0.83,0.82,
0.842,1.01,0.23,-0.89,-0.18,0.80,0.81,
0.842,1.01,0.23,-0.89,-0.19,0.78,0.80,
0.846,1.01,0.23,-0.89,-0.21,0.75,0.79,
0.846,1.01,0.23,-0.89,-0.22,0.74,0.79,
0.848,1.01,0.23,-0.89,-0.23,0.72,0.78,
0.851,1.18,0.40,-0.75,-0.23,0.72,0.78,
0.851,1.18,0.40,-0.75,-0.24,0.69,0.78,
0.852,1.18,0.40,-0.75,-0.25,0.65,0.78,
0.855,1.18,0.40,-0.75,-0.26,0.61,0.77,
0.857,1.18,0.40,-0.75,-0.27,0.59,0.77,
0.86,1.18,0.40,-0.75,-0.26,0.57,0.76,
0.862,1.34,0.45,-0.33,-0.26,0.57,0.76,
0.862,1.34,0.45,-0.33,-0.25,0.56,0.74,
0.862,1.34,0.45,-0.33,-0.24,0.55,0.72,
0.866,1.34,0.45,-0.33,-0.21,0.54,0.69,
0.866,1.34,0.45,-0.33,-0.21,0.54,0.67,
0.868,1.34,0.45,-0.33,-0.19,0.54,0.65,
0.871,1.72,0.29,0.03,-0.19,0.54,0.65,
0.871,1.72,0.29,0.03,-0.17,0.55,0.63,
0.874,1.72,0.29,0.03,-0.15,0.57,0.60,
0.876,1.72,0.29,0.03,-0.12,0.59,0.57,
0.877,1.72,0.29,0.03,-0.11,0.60,0.55,
0.878,1.72,0.29,0.03,-0.09,0.61,0.54,
0.881,1.61,0.37,0.17,-0.09,0.61,0.54,
0.881,1.61,0.37,0.17,-0.07,0.61,0.52,
0.883,1.61,0.37,0.17,-0.06,0.62,0.51,
0.889,1.61,0.37,0.17,-0.04,0.62,0.49,
0.89,1.61,0.37,0.17,-0.04,0.62,0.49,
0.898,1.61,0.37,0.17,-0.04,0.62,0.49,
0.899,1.61,0.37,0.17,-0.04,0.62,0.48,
0.899,1.33,0.48,-0.12,-0.04,0.62,0.48,
0.9,1.33,0.48,-0.12,-0.04,0.62,0.47,
0.9,1.33,0.48,-0.12,-0.04,0.62,0.45,
0.9,1.33,0.48,-0.12,-0.04,0.62,0.44,
0.9,1.33,0.48,-0.12,-0.05,0.62,0.43,
0.901,1.29,0.45,-0.49,-0.05,0.62,0.43,
0.901,1.29,0.45,-0.49,-0.06,0.62,0.42,
0.92,1.29,0.45,-0.49,-0.06,0.62,0.40,
0.92,1.29,0.45,-0.49,-0.08,0.62,0.37,
0.921,1.29,0.45,-0.49,-0.08,0.62,0.37,
0.921,1.29,0.45,-0.49,-0.10,0.62,0.35,
0.921,1.31,0.50,-0.98,-0.10,0.62,0.35,
0.921,1.31,0.50,-0.98,-0.11,0.62,0.33,
0.922,1.31,0.50,-0.98,-0.13,0.62,0.31,
0.922,1.31,0.50,-0.98,-0.16,0.61,0.29,
0.922,1.31,0.50,-0.98,-0.18,0.61,0.28,
0.922,1.31,0.50,-0.98,-0.20,0.61,0.27,
0.923,1.24,0.50,-1.30,-0.20,0.61,0.27,
0.925,1.24,0.50,-1.30,-0.24,0.61,0.25,
0.925,1.24,0.50,-1.30,-0.25,0.61,0.24,
0.928,1.24,0.50,-1.30,-0.29,0.62,0.23,
0.928,1.24,0.50,-1.30,-0.30,0.62,0.22,
0.928,1.24,0.50,-1.30,-0.32,0.62,0.21,
0.938,1.22,0.46,-1.36,-0.32,0.62,0.21,
0.938,1.22,0.46,-1.36,-0.35,0.62,0.19,
0.945,1.22,0.46,-1.36,-0.38,0.62,0.18,
0.945,1.22,0.46,-1.36,-0.42,0.62,0.17,
0.945,1.22,0.46,-1.36,-0.43,0.62,0.17,
0.945,1.22,0.46,-1.36,-0.45,0.62,0.16,
0.945,1.03,0.44,-1.21,-0.45,0.62,0.16,
0.946,1.03,0.44,-1.21,-0.48,0.62,0.16,
0.946,1.03,0.44,-1.21,-0.51,0.63,0.15,
0.946,1.03,0.44,-1.21,-0.54,0.64,0.13,
0.948,1.03,0.44,-1.21,-0.54,0.65,0.13,
0.948,1.03,0.44,-1.21,-0.56,0.65,0.12,
0.951,0.98,0.36,-0.84,-0.56,0.65,0.12,
0.951,0.98,0.36,-0.84,-0.57,0.66,0.10,
0.952,0.98,0.36,-0.84,-0.58,0.67,0.09,
0.956,0.98,0.36,-0.84,-0.60,0.67,0.07,
0.956,0.98,0.36,-0.84,-0.61,0.67,0.06,
0.972,0.98,0.36,-0.84,-0.62,0.67,0.05,
0.972,0.84,0.35,-0.42,-0.62,0.67,0.05,
0.972,0.84,0.35,-0.42,-0.63,0.67,0.05,
0.972,0.84,0.35,-0.42,-0.64,0.66,0.04,
0.972,0.84,0.35,-0.42,-0.65,0.64,0.04,
0.972,0.84,0.35,-0.42,-0.65,0.63,0.04,
0.973,0.84,0.35,-0.42,-0.67,0.61,0.05,
0.973,0.54,0.36,-0.11,-0.67,0.61,0.05,
0.973,0.54,0.36,-0.11,-0.68,0.59,0.06,
0.973,0.54,0.36,-0.11,-0.69,0.57,0.07,
0.976,0.54,0.36,-0.11,-0.69,0.58,0.07,
0.977,0.54,0.36,-0.11,-0.69,0.58,0.07,
0.985,0.54,0.36,-0.11,-0.69,0.59,0.07,
0.986,0.48,0.12,0.16,-0.69,0.59,0.07,
0.986,0.48,0.12,0.16,-0.69,0.60,0.07,
0.987,0.48,0.12,0.16,-0.68,0.61,0.07,
0.988,0.48,0.12,0.16,-0.68,0.60,0.07,
0.99,0.48,0.12,0.16,-0.67,0.60,0.07,
0.99,0.48,0.12,0.16,-0.67,0.59,0.07,
0.991,0.42,0.10,0.51,-0.67,0.59,0.07,
0.991,0.42,0.10,0.51,-0.67,0.58,0.08,
0.993,0.42,0.10,0.51,-0.66,0.56,0.09,
0.996,0.42,0.10,0.51,-0.66,0.52,0.11,
0.997,0.42,0.10,0.51,-0.66,0.51,0.12,
0.999,0.42,0.10,0.51,-0.67,0.48,0.14,
1.001,-0.04,0.30,0.61,-0.67,0.48,0.14,
1.002,-0.04,0.30,0.61,-0.67,0.45,0.17,
1.003,-0.04,0.30,0.61,-0.66,0.43,0.18,
1.006,-0.04,0.30,0.61,-0.65,0.43,0.20,
1.007,-0.04,0.30,0.61,-0.64,0.43,0.21,
1.011,-0.04,0.30,0.61,-0.62,0.43,0.22,
1.012,-0.05,0.21,0.80,-0.62,0.43,0.22,
1.012,-0.05,0.21,0.80,-0.60,0.43,0.22,
1.012,-0.05,0.21,0.80,-0.58,0.43,0.23,
1.016,-0.05,0.21,0.80,-0.55,0.41,0.24,
1.017,-0.05,0.21,0.80,-0.54,0.40,0.25,
1.019,-0.05,0.21,0.80,-0.52,0.39,0.26,
1.022,0.10,0.25,1.02,-0.52,0.39,0.26,
1.022,0.10,0.25,1.02,-0.50,0.37,0.27,
1.023,0.10,0.25,1.02,-0.49,0.34,0.29,
1.025,0.10,0.25,1.02,-0.47,0.29,0.32,
1.028,0.10,0.25,1.02,-0.47,0.28,0.33,
1.029,0.10,0.25,1.02,-0.46,0.25,0.35,
1.031,-0.00,0.37,0.80,-0.46,0.25,0.35,
1.031,-0.00,0.37,0.80,-0.45,0.24,0.37,
1.033,-0.00,0.37,0.80,-0.43,0.23,0.38,
1.035,-0.00,0.37,0.80,-0.40,0.24,0.40,
1.037,-0.00,0.37,0.80,-0.39,0.25,0.41,
1.04,-0.00,0.37,0.80,-0.37,0.25,0.42,
1.041,0.16,0.25,0.76,-0.37,0.25,0.42,
1.041,0.16,0.25,0.76,-0.34,0.25,0.43,
1.043,0.16,0.25,0.76,-0.32,0.24,0.44,
1.046,0.16,0.25,0.76,-0.29,0.23,0.46,
1.046,0.16,0.25,0.76,-0.29,0.22,0.47,
1.049,0.16,0.25,0.76,-0.27,0.21,0.49,
1.051,0.15,0.27,0.79,-0.27,0.21,0.49,
1.052,0.15,0.27,0.79,-0.25,0.20,0.51,
1.054,0.15,0.27,0.79,-0.24,0.19,0.53,
1.061,0.15,0.27,0.79,-0.21,0.18,0.57,
1.061,0.15,0.27,0.79,-0.20,0.18,0.58,
1.061,0.15,0.27,0.79,-0.19,0.17,0.60,
1.062,-0.05,0.27,0.63,-0.19,0.17,0.60,
1.062,-0.05,0.27,0.63,-0.17,0.17,0.63,
1.063,-0.05,0.27,0.63,-0.16,0.17,0.65,
1.081,-0.05,0.27,0.63,-0.14,0.16,0.69,
1.081,-0.05,0.27,0.63,-0.14,0.16,0.71,
1.082,-0.05,0.27,0.63,-0.13,0.16,0.73,
1.082,-0.19,0.21,0.39,-0.13,0.16,0.73,
1.082,-0.19,0.21,0.39,-0.12,0.15,0.76,
1.082,-0.19,0.21,0.39,-0.11,0.15,0.79,
1.082,-0.19,0.21,0.39,-0.10,0.13,0.84,
1.082,-0.19,0.21,0.39,-0.10,0.13,0.85,
1.082,-0.19,0.21,0.39,-0.09,0.12,0.89,
1.083,-0.29,0.22,0.18,-0.09,0.12,0.89,
1.083,-0.29,0.22,0.18,-0.09,0.11,0.92,
1.083,-0.29,0.22,0.18,-0.08,0.11,0.95,
1.086,-0.29,0.22,0.18,-0.08,0.09,1.00,
1.087,-0.29,0.22,0.18,-0.07,0.09,1.01,
1.09,-0.29,0.22,0.18,-0.07,0.08,1.04,
1.091,-0.30,0.26,0.06,-0.07,0.08,1.04,
1.092,-0.30,0.26,0.06,-0.06,0.08,1.07,
1.098,-0.30,0.26,0.06,-0.06,0.06,1.10,
1.1,-0.30,0.26,0.06,-0.05,0.05,1.14,
1.107,-0.30,0.26,0.06,-0.04,0.05,1.16,
1.109,-0.30,0.26,0.06,-0.04,0.03,1.18,
1.111,-0.14,0.35,0.04,-0.04,0.03,1.18,
1.111,-0.14,0.35,0.04,-0.03,0.02,1.20,
1.111,-0.14,0.35,0.04,-0.03,0.01,1.23,
1.112,-0.14,0.35,0.04,-0.02,-0.01,1.26,
1.113,-0.14,0.35,0.04,-0.01,-0.02,1.27,
1.114,-0.14,0.35,0.04,-0.01,-0.03,1.29,
1.114,0.01,0.46,0.03,-0.01,-0.03,1.29,
1.114,0.01,0.46,0.03,0.00,-0.04,1.31,
1.115,0.01,0.46,0.03,0.01,-0.05,1.33,
1.117,0.01,0.46,0.03,0.03,-0.07,1.36,
1.118,0.01,0.46,0.03,0.04,-0.07,1.37,
1.118,0.01,0.46,0.03,0.05,-0.08,1.39,
1.122,0.14,0.53,0.11,0.05,-0.08,1.39,
1.122,0.14,0.53,0.11,0.06,-0.08,1.41,
1.123,0.14,0.53,0.11,0.07,-0.09,1.43,
1.138,0.14,0.53,0.11,0.10,-0.09,1.46,
1.138,0.14,0.53,0.11,0.10,-0.09,1.46,
1.139,0.14,0.53,0.11,0.12,-0.09,1.48,
1.139,0.27,0.61,0.09,0.12,-0.09,1.48,
1.139,0.27,0.61,0.09,0.13,-0.09,1.50,
1.14,0.27,0.61,0.09,0.14,-0.10,1.51,
1.14,0.27,0.61,0.09,0.16,-0.10,1.53,
1.14,0.27,0.61,0.09,0.17,-0.11,1.54,
1.14,0.27,0.61,0.09,0.18,-0.12,1.55,
1.143,0.34,0.64,-0.02,0.18,-0.12,1.55,
1.144,0.34,0.64,-0.02,0.19,-0.13,1.56,
1.144,0.34,0.64,-0.02,0.20,-0.14,1.57,
1.146,0.34,0.64,-0.02,0.22,-0.16,1.58,
1.147,0.34,0.64,-0.02,0.22,-0.16,1.59,
1.149,0.34,0.64,-0.02,0.23,-0.17,1.59,
1.151,0.48,0.66,-0.19,0.23,-0.17,1.59,
1.151,0.48,0.66,-0.19,0.24,-0.18,1.60,
1.153,0.48,0.66,-0.19,0.24,-0.19,1.60,
1.156,0.48,0.66,-0.19,0.26,-0.21,1.61,
1.156,0.48,0.66,-0.19,0.26,-0.21,1.61,
1.159,0.48,0.66,-0.19,0.27,-0.22,1.62,
1.162,0.55,0.65,-0.33,0.27,-0.22,1.62,
1.163,0.55,0.65,-0.33,0.27,-0.23,1.62,
1.163,0.55,0.65,-0.33,0.28,-0.24,1.62,
1.166,0.55,0.65,-0.33,0.29,-0.25,1.63,
1.167,0.55,0.65,-0.33,0.30,-0.25,1.63,
1.168,0.55,0.65,-0.33,0.30,-0.26,1.64,
1.171,0.48,0.70,-0.42,0.30,-0.26,1.64,
1.171,0.48,0.70,-0.42,0.31,-0.26,1.64,
1.181,0.48,0.70,-0.42,0.31,-0.26,1.64,
1.182,0.48,0.70,-0.42,0.32,-0.26,1.65,
1.182,0.48,0.70,-0.42,0.32,-0.27,1.65,
1.182,0.48,0.70,-0.42,0.32,-0.26,1.66,
1.182,0.35,0.65,-0.59,0.32,-0.26,1.66,
1.183,0.35,0.65,-0.59,0.32,-0.26,1.66,
1.183,0.35,0.65,-0.59,0.32,-0.26,1.66,
1.186,0.35,0.65,-0.59,0.32,-0.26,1.67,
1.186,0.35,0.65,-0.59,0.32,-0.26,1.67,
1.2,0.35,0.65,-0.59,0.33,-0.25,1.67,
1.2,0.26,0.61,-0.67,0.33,-0.25,1.67,
1.2,0.26,0.61,-0.67,0.33,-0.25,1.68,
1.201,0.26,0.61,-0.67,0.33,-0.24,1.68,
1.201,0.26,0.61,-0.67,0.33,-0.23,1.68,
1.201,0.26,0.61,-0.67,0.33,-0.23,1.69,
1.201,0.26,0.61,-0.67,0.33,-0.22,1.69,
1.202,0.14,0.57,-0.73,0.33,-0.22,1.69,
1.202,0.14,0.57,-0.73,0.33,-0.21,1.69,
1.202,0.14,0.57,-0.73,0.33,-0.20,1.70,
1.206,0.14,0.57,-0.73,0.33,-0.18,1.71,
1.207,0.14,0.57,-0.73,0.33,-0.18,1.71,
1.208,0.14,0.57,-0.73,0.33,-0.17,1.72,
1.211,0.02,0.53,-0.74,0.33,-0.17,1.72,
1.211,0.02,0.53,-0.74,0.33,-0.16,1.72,
1.213,0.02,0.53,-0.74,0.33,-0.15,1.72,
1.216,0.02,0.53,-0.74,0.33,-0.13,1.73,
1.216,0.02,0.53,-0.74,0.33,-0.13,1.73,
1.219,0.02,0.53,-0.74,0.32,-0.12,1.74,
1.221,0.03,0.49,-0.75,0.32,-0.12,1.74,
1.221,0.03,0.49,-0.75,0.33,-0.11,1.74,
1.227,0.03,0.49,-0.75,0.33,-0.10,1.74,
1.227,0.03,0.49,-0.75,0.33,-0.09,1.74,
1.227,0.03,0.49,-0.75,0.33,-0.08,1.74,
1.228,0.03,0.49,-0.75,0.33,-0.07,1.74,
1.231,0.06,0.55,-0.75,0.33,-0.07,1.74,
1.231,0.06,0.55,-0.75,0.32,-0.07,1.74,
1.233,0.06,0.55,-0.75,0.32,-0.06,1.74,
1.236,0.06,0.55,-0.75,0.32,-0.05,1.73,
1.236,0.06,0.55,-0.75,0.32,-0.04,1.73,
1.241,0.06,0.55,-0.75,0.32,-0.03,1.73,
1.242,0.05,0.56,-0.75,0.32,-0.03,1.73,
1.243,0.05,0.56,-0.75,0.32,-0.02,1.72,
1.243,0.05,0.56,-0.75,0.32,-0.01,1.71,
1.245,0.05,0.56,-0.75,0.31,-0.00,1.70,
1.246,0.05,0.56,-0.75,0.31,0.00,1.70,
1.249,0.05,0.56,-0.75,0.31,0.01,1.69,
1.251,0.17,0.59,-0.75,0.31,0.01,1.69,
1.251,0.17,0.59,-0.75,0.30,0.02,1.68,
1.253,0.17,0.59,-0.75,0.30,0.03,1.67,
1.256,0.17,0.59,-0.75,0.29,0.05,1.65,
1.257,0.17,0.59,-0.75,0.29,0.05,1.64,
1.258,0.17,0.59,-0.75,0.29,0.06,1.63,
1.26,0.20,0.61,-0.72,0.29,0.06,1.63,
1.261,0.20,0.61,-0.72,0.29,0.07,1.62,
1.263,0.20,0.61,-0.72,0.28,0.08,1.61,
1.265,0.20,0.61,-0.72,0.27,0.09,1.59,
1.266,0.20,0.61,-0.72,0.27,0.10,1.58,
1.268,0.20,0.61,-0.72,0.26,0.10,1.57,
1.271,0.17,0.64,-0.71,0.26,0.10,1.57,
1.271,0.17,0.64,-0.71,0.26,0.12,1.56,
1.273,0.17,0.64,-0.71,0.25,0.12,1.55,
1.275,0.17,0.64,-0.71,0.24,0.13,1.53,
1.276,0.17,0.64,-0.71,0.24,0.14,1.53,
1.279,0.17,0.64,-0.71,0.23,0.14,1.52,
1.28,0.06,0.57,-0.67,0.23,0.14,1.52,
1.281,0.06,0.57,-0.67,0.23,0.15,1.51,
1.282,0.06,0.57,-0.67,0.22,0.15,1.50,
1.285,0.06,0.57,-0.67,0.21,0.15,1.48,
1.286,0.06,0.57,-0.67,0.21,0.15,1.48,
1.289,0.06,0.57,-0.67,0.21,0.16,1.47,
1.291,-0.03,0.57,-0.53,0.21,0.16,1.47,
1.302,-0.03,0.57,-0.53,0.21,0.16,1.45,
1.302,-0.03,0.57,-0.53,0.20,0.16,1.44,
1.302,-0.03,0.57,-0.53,0.20,0.16,1.43,
1.302,-0.03,0.57,-0.53,0.20,0.16,1.43,
1.303,-0.03,0.57,-0.53,0.21,0.16,1.42,
1.303,-0.09,0.56,-0.28,0.21,0.16,1.42,
1.303,-0.09,0.56,-0.28,0.21,0.16,1.40,
1.303,-0.09,0.56,-0.28,0.21,0.16,1.40,
1.308,-0.09,0.56,-0.28,0.22,0.16,1.39,
1.309,-0.09,0.56,-0.28,0.22,0.16,1.38,
1.309,-0.09,0.56,-0.28,0.23,0.16,1.38,
1.31,-0.18,0.55,-0.05,0.23,0.16,1.38,
1.317,-0.18,0.55,-0.05,0.23,0.16,1.37,
1.318,-0.18,0.55,-0.05,0.24,0.16,1.36,
1.318,-0.18,0.55,-0.05,0.25,0.18,1.35,
1.318,-0.18,0.55,-0.05,0.25,0.18,1.34,
1.318,-0.18,0.55,-0.05,0.26,0.19,1.34,
1.321,-0.25,0.52,0.13,0.26,0.19,1.34,
1.321,-0.25,0.52,0.13,0.27,0.21,1.33,
1.322,-0.25,0.52,0.13,0.28,0.22,1.33,
1.325,-0.25,0.52,0.13,0.29,0.26,1.32,
1.326,-0.25,0.52,0.13,0.30,0.27,1.32,
1.328,-0.25,0.52,0.13,0.30,0.29,1.32,
1.33,-0.37,0.50,0.21,0.30,0.29,1.32,
1.331,-0.37,0.50,0.21,0.31,0.32,1.31,
1.332,-0.37,0.50,0.21,0.32,0.35,1.32,
1.335,-0.37,0.50,0.21,0.33,0.40,1.32,
1.336,-0.37,0.50,0.21,0.33,0.42,1.32,
1.338,-0.37,0.50,0.21,0.33,0.45,1.32,
1.34,-0.55,0.38,0.16,0.33,0.45,1.32,
1.341,-0.55,0.38,0.16,0.33,0.49,1.33,
1.342,-0.55,0.38,0.16,0.33,0.53,1.34,
1.345,-0.55,0.38,0.16,0.33,0.58,1.35,
1.346,-0.55,0.38,0.16,0.33,0.60,1.35,
1.349,-0.55,0.38,0.16,0.33,0.64,1.36,
1.35,-0.55,0.14,0.09,0.33,0.64,1.36,
1.351,-0.55,0.14,0.09,0.32,0.68,1.37,
1.352,-0.55,0.14,0.09,0.32,0.71,1.38,
1.355,-0.55,0.14,0.09,0.31,0.77,1.40,
1.356,-0.55,0.14,0.09,0.31,0.79,1.40,
1.359,-0.55,0.14,0.09,0.30,0.82,1.42,
1.361,-0.60,-0.01,0.08,0.30,0.82,1.42,
1.361,-0.60,-0.01,0.08,0.30,0.85,1.43,
1.362,-0.60,-0.01,0.08,0.29,0.89,1.44,
1.365,-0.60,-0.01,0.08,0.28,0.94,1.45,
1.366,-0.60,-0.01,0.08,0.28,0.95,1.45,
1.368,-0.60,-0.01,0.08,0.27,0.98,1.46,
1.371,-0.41,-0.17,0.07,0.27,0.98,1.46,
1.371,-0.41,-0.17,0.07,0.27,1.01,1.46,
1.373,-0.41,-0.17,0.07,0.26,1.03,1.47,
1.375,-0.41,-0.17,0.07,0.25,1.07,1.47,
1.377,-0.41,-0.17,0.07,0.25,1.08,1.47,
1.378,-0.41,-0.17,0.07,0.24,1.09,1.47,
1.38,-0.13,-0.26,0.07,0.24,1.09,1.47,
1.381,-0.13,-0.26,0.07,0.24,1.10,1.47,
1.382,-0.13,-0.26,0.07,0.23,1.12,1.47,
1.385,-0.13,-0.26,0.07,0.23,1.14,1.47,
1.389,-0.13,-0.26,0.07,0.22,1.14,1.46,
1.39,-0.13,-0.26,0.07,0.22,1.15,1.46,
1.392,0.10,-0.33,0.11,0.22,1.15,1.46,
1.392,0.10,-0.33,0.11,0.22,1.16,1.46,
1.392,0.10,-0.33,0.11,0.22,1.16,1.45,
1.395,0.10,-0.33,0.11,0.22,1.17,1.44,
1.396,0.10,-0.33,0.11,0.22,1.17,1.44,
1.398,0.10,-0.33,0.11,0.22,1.18,1.44,
1.4,0.28,-0.40,0.12,0.22,1.18,1.44,
1.401,0.28,-0.40,0.12,0.22,1.18,1.43,
1.403,0.28,-0.40,0.12,0.22,1.18,1.42,
1.405,0.28,-0.40,0.12,0.23,1.18,1.42,
1.407,0.28,-0.40,0.12,0.23,1.17,1.42,
1.408,0.28,-0.40,0.12,0.24,1.17,1.42,
1.411,0.31,-0.41,0.10,0.24,1.17,1.42,
1.412,0.31,-0.41,0.10,0.24,1.17,1.42,
1.412,0.31,-0.41,0.10,0.24,1.16,1.42,
1.415,0.31,-0.41,0.10,0.24,1.14,1.42,
1.416,0.31,-0.41,0.10,0.25,1.13,1.42,
1.418,0.31,-0.41,0.10,0.25,1.11,1.42,
1.421,0.26,-0.43,0.06,0.25,1.11,1.42,
1.421,0.26,-0.43,0.06,0.25,1.08,1.42,
1.422,0.26,-0.43,0.06,0.26,1.06,1.42,
1.425,0.26,-0.43,0.06,0.27,1.03,1.41,
1.426,0.26,-0.43,0.06,0.27,1.02,1.41,
1.428,0.26,-0.43,0.06,0.28,0.99,1.41,
1.43,0.36,-0.55,0.07,0.28,0.99,1.41,
1.431,0.36,-0.55,0.07,0.29,0.96,1.40,
1.432,0.36,-0.55,0.07,0.30,0.94,1.40,
1.435,0.36,-0.55,0.07,0.31,0.90,1.39,
1.462,0.36,-0.55,0.07,0.32,0.88,1.39,
1.464,0.36,-0.55,0.07,0.33,0.85,1.38,
1.465,0.40,-0.61,0.08,0.33,0.85,1.38,
1.468,0.40,-0.61,0.08,0.34,0.82,1.38,
1.469,0.40,-0.61,0.08,0.35,0.78,1.38,
1.469,0.40,-0.61,0.08,0.37,0.74,1.38,
1.469,0.40,-0.61,0.08,0.37,0.72,1.38,
1.469,0.40,-0.61,0.08,0.38,0.69,1.38,
1.469,0.34,-0.65,0.10,0.38,0.69,1.38,
1.469,0.34,-0.65,0.10,0.39,0.66,1.39,
1.47,0.34,-0.65,0.10,0.40,0.62,1.39,
1.47,0.34,-0.65,0.10,0.42,0.57,1.39,
1.47,0.34,-0.65,0.10,0.43,0.56,1.40,
1.493,0.34,-0.65,0.10,0.44,0.53,1.40,
1.493,0.29,-0.70,0.19,0.44,0.53,1.40,
1.494,0.29,-0.70,0.19,0.45,0.50,1.40,
1.494,0.29,-0.70,0.19,0.46,0.47,1.41,
1.494,0.29,-0.70,0.19,0.49,0.43,1.41,
1.495,0.29,-0.70,0.19,0.49,0.42,1.41,
1.495,0.29,-0.70,0.19,0.51,0.40,1.42,
1.495,0.40,-0.80,0.28,0.51,0.40,1.42,
1.495,0.40,-0.80,0.28,0.52,0.38,1.41,
1.496,0.40,-0.80,0.28,0.53,0.36,1.42,
1.496,0.40,-0.80,0.28,0.55,0.33,1.42,
1.496,0.40,-0.80,0.28,0.55,0.32,1.42,
1.496,0.40,-0.80,0.28,0.56,0.30,1.42,
1.497,0.52,-0.75,0.28,0.56,0.30,1.42,
1.497,0.52,-0.75,0.28,0.57,0.28,1.42,
1.497,0.52,-0.75,0.28,0.58,0.26,1.42,
1.497,0.52,-0.75,0.28,0.59,0.24,1.41,
1.498,0.52,-0.75,0.28,0.59,0.23,1.41,
1.498,0.52,-0.75,0.28,0.59,0.21,1.41,
1.498,0.67,-0.68,0.21,0.59,0.21,1.41,
1.498,0.67,-0.68,0.21,0.59,0.19,1.40,
1.499,0.67,-0.68,0.21,0.59,0.18,1.40,
1.499,0.67,-0.68,0.21,0.59,0.16,1.39,
1.499,0.67,-0.68,0.21,0.59,0.15,1.39,
1.5,0.67,-0.68,0.21,0.58,0.14,1.38,
1.507,0.75,-0.53,0.12,0.58,0.14,1.38,
1.507,0.75,-0.53,0.12,0.58,0.13,1.37,
1.507,0.75,-0.53,0.12,0.57,0.12,1.36,
1.508,0.75,-0.53,0.12,0.56,0.11,1.35,
1.508,0.75,-0.53,0.12,0.56,0.10,1.34,
1.508,0.75,-0.53,0.12,0.55,0.09,1.33,
1.511,0.84,-0.47,0.03,0.55,0.09,1.33,
1.511,0.84,-0.47,0.03,0.53,0.09,1.32,
1.512,0.84,-0.47,0.03,0.52,0.08,1.31,
1.515,0.84,-0.47,0.03,0.49,0.06,1.30,
1.516,0.84,-0.47,0.03,0.48,0.06,1.29,
1.518,0.84,-0.47,0.03,0.46,0.05,1.28,
1.524,0.89,-0.32,-0.08,0.46,0.05,1.28,
1.525,0.89,-0.32,-0.08,0.43,0.03,1.26,
1.527,0.89,-0.32,-0.08,0.41,0.03,1.25,
1.528,0.89,-0.32,-0.08,0.37,0.01,1.23,
1.528,0.89,-0.32,-0.08,0.35,0.00,1.21,
1.531,0.89,-0.32,-0.08,0.34,-0.00,1.20,
1.532,0.98,-0.17,-0.14,0.34,-0.00,1.20,
1.532,0.98,-0.17,-0.14,0.31,-0.01,1.18,
1.532,0.98,-0.17,-0.14,0.28,-0.02,1.16,
1.535,0.98,-0.17,-0.14,0.24,-0.02,1.13,
1.538,0.98,-0.17,-0.14,0.22,-0.02,1.12,
1.539,0.98,-0.17,-0.14,0.19,-0.02,1.10,
1.541,0.94,-0.07,-0.11,0.19,-0.02,1.10,
1.541,0.94,-0.07,-0.11,0.16,-0.02,1.09,
1.543,0.94,-0.07,-0.11,0.13,-0.01,1.07,
1.546,0.94,-0.07,-0.11,0.08,0.01,1.04,
1.547,0.94,-0.07,-0.11,0.06,0.01,1.04,
1.548,0.94,-0.07,-0.11,0.03,0.02,1.02,
1.551,0.81,-0.03,-0.03,0.03,0.02,1.02,
1.551,0.81,-0.03,-0.03,-0.01,0.03,1.01,
1.553,0.81,-0.03,-0.03,-0.04,0.05,0.99,
1.555,0.81,-0.03,-0.03,-0.10,0.07,0.98,
1.556,0.81,-0.03,-0.03,-0.11,0.08,0.97,
1.559,0.81,-0.03,-0.03,-0.15,0.10,0.96,
1.56,0.64,-0.12,0.02,-0.15,0.10,0.96,
1.561,0.64,-0.12,0.02,-0.19,0.12,0.95,
1.562,0.64,-0.12,0.02,-0.23,0.14,0.94,
1.565,0.64,-0.12,0.02,-0.28,0.16,0.92,
1.567,0.64,-0.12,0.02,-0.30,0.17,0.91,
1.568,0.64,-0.12,0.02,-0.34,0.19,0.90,
1.579,0.54,-0.28,0.12,-0.34,0.19,0.90,
1.579,0.54,-0.28,0.12,-0.37,0.21,0.89,
1.579,0.54,-0.28,0.12,-0.41,0.22,0.88,
1.58,0.54,-0.28,0.12,-0.46,0.25,0.86,
1.58,0.54,-0.28,0.12,-0.47,0.26,0.86,
1.58,0.54,-0.28,0.12,-0.51,0.27,0.85,
1.58,0.47,-0.40,0.34,-0.51,0.27,0.85,
1.58,0.47,-0.40,0.34,-0.54,0.28,0.84,
1.584,0.47,-0.40,0.34,-0.57,0.30,0.84,
1.585,0.47,-0.40,0.34,-0.60,0.34,0.83,
1.603,0.47,-0.40,0.34,-0.61,0.35,0.82,
1.604,0.47,-0.40,0.34,-0.62,0.38,0.82,
1.604,0.34,-0.61,0.76,-0.62,0.38,0.82,
1.604,0.34,-0.61,0.76,-0.64,0.41,0.81,
1.604,0.34,-0.61,0.76,-0.64,0.44,0.80,
1.604,0.34,-0.61,0.76,-0.64,0.49,0.80,
1.604,0.34,-0.61,0.76,-0.63,0.51,0.79,
1.605,0.34,-0.61,0.76,-0.62,0.54,0.79,
1.605,0.15,-0.87,1.31,-0.62,0.54,0.79,
1.605,0.15,-0.87,1.31,-0.61,0.58,0.78,
1.605,0.15,-0.87,1.31,-0.60,0.62,0.78,
1.607,0.15,-0.87,1.31,-0.56,0.68,0.78,
1.61,0.15,-0.87,1.31,-0.55,0.70,0.78,
1.61,0.15,-0.87,1.31,-0.53,0.75,0.78,
1.611,-0.18,-1.11,1.64,-0.53,0.75,0.78,
1.611,-0.18,-1.11,1.64,-0.50,0.79,0.78,
1.613,-0.18,-1.11,1.64,-0.48,0.83,0.79,
1.615,-0.18,-1.11,1.64,-0.43,0.89,0.80,
1.616,-0.18,-1.11,1.64,-0.42,0.91,0.80,
1.618,-0.18,-1.11,1.64,-0.39,0.95,0.81,
1.621,-0.48,-1.31,1.53,-0.39,0.95,0.81,
1.622,-0.48,-1.31,1.53,-0.34,1.00,0.82,
1.623,-0.48,-1.31,1.53,-0.31,1.03,0.83,
1.638,-0.48,-1.31,1.53,-0.29,1.05,0.85,
1.638,-0.48,-1.31,1.53,-0.27,1.06,0.85,
1.638,-0.48,-1.31,1.53,-0.25,1.08,0.87,
1.638,-0.90,-1.46,1.09,-0.25,1.08,0.87,
1.638,-0.90,-1.46,1.09,-0.23,1.09,0.89,
1.639,-0.90,-1.46,1.09,-0.21,1.09,0.91,
1.639,-0.90,-1.46,1.09,-0.18,1.09,0.94,
1.639,-0.90,-1.46,1.09,-0.17,1.09,0.96,
1.639,-0.90,-1.46,1.09,-0.17,1.07,0.98,
1.642,-1.41,-1.44,0.29,-0.17,1.07,0.98,
1.643,-1.41,-1.44,0.29,-0.16,1.06,1.01,
1.643,-1.41,-1.44,0.29,-0.15,1.03,1.04,
1.645,-1.41,-1.44,0.29,-0.15,0.99,1.08,
1.646,-1.41,-1.44,0.29,-0.15,0.98,1.10,
1.648,-1.41,-1.44,0.29,-0.15,0.94,1.13,
1.65,-1.79,-1.52,-0.38,-0.15,0.94,1.13,
1.651,-1.79,-1.52,-0.38,-0.15,0.91,1.16,
1.653,-1.79,-1.52,-0.38,-0.15,0.87,1.19,
1.656,-1.79,-1.52,-0.38,-0.16,0.81,1.23,
1.656,-1.79,-1.52,-0.38,-0.17,0.79,1.24,
1.66,-1.79,-1.52,-0.38,-0.18,0.74,1.26,
1.664,-1.80,-1.64,-0.78,-0.18,0.74,1.26,
1.664,-1.80,-1.64,-0.78,-0.19,0.69,1.29,
1.664,-1.80,-1.64,-0.78,-0.21,0.63,1.32,
1.666,-1.80,-1.64,-0.78,-0.24,0.55,1.37,
1.667,-1.80,-1.64,-0.78,-0.26,0.49,1.40,
1.668,-1.80,-1.64,-0.78,-0.26,0.46,1.42,
1.671,-2.08,-1.58,-0.89,-0.26,0.46,1.42,
1.672,-2.08,-1.58,-0.89,-0.28,0.40,1.45,
1.673,-2.08,-1.58,-0.89,-0.31,0.34,1.48,
1.675,-2.08,-1.58,-0.89,-0.34,0.24,1.53,
1.676,-2.08,-1.58,-0.89,-0.35,0.21,1.55,
1.678,-2.08,-1.58,-0.89,-0.38,0.14,1.58,
1.68,-2.15,-1.38,-0.61,-0.38,0.14,1.58,
1.68,-2.15,-1.38,-0.61,-0.40,0.07,1.61,
1.682,-2.15,-1.38,-0.61,-0.42,-0.01,1.64,
1.686,-2.15,-1.38,-0.61,-0.45,-0.12,1.69,
1.687,-2.15,-1.38,-0.61,-0.46,-0.16,1.70,
1.689,-2.15,-1.38,-0.61,-0.47,-0.23,1.72,
1.692,-2.03,-1.30,0.08,-0.47,-0.23,1.72,
1.692,-2.03,-1.30,0.08,-0.49,-0.31,1.75,
1.693,-2.03,-1.30,0.08,-0.50,-0.38,1.77,
1.695,-2.03,-1.30,0.08,-0.51,-0.47,1.81,
1.696,-2.03,-1.30,0.08,-0.52,-0.50,1.82,
1.698,-2.03,-1.30,0.08,-0.52,-0.56,1.85,
1.7,-1.70,-1.35,0.94,-0.52,-0.56,1.85,
1.701,-1.70,-1.35,0.94,-0.53,-0.62,1.88,
1.703,-1.70,-1.35,0.94,-0.53,-0.67,1.90,
1.705,-1.70,-1.35,0.94,-0.53,-0.74,1.95,
1.707,-1.70,-1.35,0.94,-0.53,-0.76,1.96,
1.709,-1.70,-1.35,0.94,-0.52,-0.80,1.99,
1.71,-1.43,-1.53,1.74,-0.52,-0.80,1.99,
1.711,-1.43,-1.53,1.74,-0.52,-0.83,2.02,
1.712,-1.43,-1.53,1.74,-0.50,-0.86,2.04,
1.715,-1.43,-1.53,1.74,-0.48,-0.87,2.08,
1.717,-1.43,-1.53,1.74,-0.46,-0.88,2.10,
1.736,-1.43,-1.53,1.74,-0.45,-0.88,2.11,
1.737,-0.94,-1.47,2.50,-0.45,-0.88,2.11,
1.737,-0.94,-1.47,2.50,-0.42,-0.88,2.12,
1.738,-0.94,-1.47,2.50,-0.39,-0.87,2.13,
1.738,-0.94,-1.47,2.50,-0.33,-0.84,2.14,
1.739,-0.94,-1.47,2.50,-0.32,-0.83,2.15,
1.739,-0.94,-1.47,2.50,-0.27,-0.81,2.14,
1.739,-0.19,-1.51,3.06,-0.27,-0.81,2.14,
1.74,-0.19,-1.51,3.06,-0.23,-0.79,2.14,
1.74,-0.19,-1.51,3.06,-0.19,-0.76,2.13,
1.74,-0.19,-1.51,3.06,-0.12,-0.72,2.11,
1.741,-0.19,-1.51,3.06,-0.10,-0.71,2.10,
1.741,-0.19,-1.51,3.06,-0.05,-0.67,2.08,
1.741,0.63,-1.66,3.17,-0.05,-0.67,2.08,
1.742,0.63,-1.66,3.17,-0.00,-0.64,2.05,
1.746,0.63,-1.66,3.17,0.04,-0.61,2.02,
1.746,0.63,-1.66,3.17,0.12,-0.55,1.96,
1.747,0.63,-1.66,3.17,0.14,-0.54,1.94,
1.749,0.63,-1.66,3.17,0.19,-0.50,1.90,
1.751,1.39,-1.74,2.88,0.19,-0.50,1.90,
1.764,1.39,-1.74,2.88,0.23,-0.47,1.85,
1.765,1.39,-1.74,2.88,0.27,-0.44,1.81,
1.765,1.39,-1.74,2.88,0.33,-0.41,1.74,
1.765,1.39,-1.74,2.88,0.35,-0.39,1.71,
1.765,1.39,-1.74,2.88,0.38,-0.36,1.67,
1.765,1.50,-1.43,2.18,0.38,-0.36,1.67,
1.765,1.50,-1.43,2.18,0.40,-0.33,1.63,
1.765,1.50,-1.43,2.18,0.42,-0.30,1.60,
1.766,1.50,-1.43,2.18,0.43,-0.26,1.55,
1.767,1.50,-1.43,2.18,0.44,-0.23,1.53,
1.772,1.50,-1.43,2.18,0.44,-0.22,1.52,
1.772,0.78,-1.05,0.91,0.44,-0.22,1.52,
1.772,0.78,-1.05,0.91,0.43,-0.19,1.50,
1.774,0.78,-1.05,0.91,0.42,-0.17,1.48,
1.776,0.78,-1.05,0.91,0.40,-0.12,1.45,
1.777,0.78,-1.05,0.91,0.39,-0.11,1.44,
1.779,0.78,-1.05,0.91,0.36,-0.08,1.42,
1.781,0.38,-1.05,-0.37,0.36,-0.08,1.42,
1.782,0.38,-1.05,-0.37,0.34,-0.05,1.40,
1.783,0.38,-1.05,-0.37,0.31,-0.02,1.38,
1.786,0.38,-1.05,-0.37,0.26,0.03,1.34,
1.789,0.38,-1.05,-0.37,0.24,0.04,1.33,
1.789,0.38,-1.05,-0.37,0.21,0.07,1.31,
1.792,0.32,-1.04,-1.22,0.21,0.07,1.31,
1.809,0.32,-1.04,-1.22,0.17,0.09,1.28,
1.809,0.32,-1.04,-1.22,0.14,0.11,1.26,
1.809,0.32,-1.04,-1.22,0.09,0.14,1.22,
1.809,0.32,-1.04,-1.22,0.07,0.15,1.21,
1.81,0.32,-1.04,-1.22,0.04,0.17,1.18,
1.81,0.44,-0.85,-1.56,0.04,0.17,1.18,
1.81,0.44,-0.85,-1.56,0.00,0.19,1.15,
1.81,0.44,-0.85,-1.56,-0.03,0.21,1.12,
1.81,0.44,-0.85,-1.56,-0.06,0.24,1.07,
1.811,0.44,-0.85,-1.56,-0.08,0.26,1.04,
1.811,0.44,-0.85,-1.56,-0.09,0.27,1.02,
1.815,0.66,-0.73,-1.36,-0.09,0.27,1.02,
1.815,0.66,-0.73,-1.36,-0.11,0.30,0.98,
1.815,0.66,-0.73,-1.36,-0.12,0.31,0.95,
1.817,0.66,-0.73,-1.36,-0.14,0.34,0.90,
1.819,0.66,-0.73,-1.36,-0.15,0.35,0.89,
1.821,0.66,-0.73,-1.36,-0.15,0.37,0.86,
1.821,0.66,-0.66,-1.04,-0.15,0.37,0.86,
1.821,0.66,-0.66,-1.04,-0.16,0.39,0.82,
1.823,0.66,-0.66,-1.04,-0.16,0.40,0.79,
1.826,0.66,-0.66,-1.04,-0.17,0.42,0.75,
1.827,0.66,-0.66,-1.04,-0.17,0.43,0.74,
1.829,0.66,-0.66,-1.04,-0.16,0.44,0.71,
1.832,0.57,-0.64,-0.85,-0.16,0.44,0.71,
1.832,0.57,-0.64,-0.85,-0.17,0.44,0.68,
1.832,0.57,-0.64,-0.85,-0.16,0.45,0.66,
1.836,0.57,-0.64,-0.85,-0.15,0.46,0.62,
1.838,0.57,-0.64,-0.85,-0.15,0.46,0.61,
1.839,0.57,-0.64,-0.85,-0.15,0.46,0.59,
1.851,0.36,-0.57,-0.86,-0.15,0.46,0.59,
1.851,0.36,-0.57,-0.86,-0.14,0.46,0.56,
1.851,0.36,-0.57,-0.86,-0.13,0.46,0.54,
1.851,0.36,-0.57,-0.86,-0.12,0.45,0.51,
1.851,0.36,-0.57,-0.86,-0.12,0.45,0.50,
1.852,0.36,-0.57,-0.86,-0.11,0.44,0.49,
1.852,0.24,-0.63,-1.08,-0.11,0.44,0.49,
1.852,0.24,-0.63,-1.08,-0.11,0.43,0.47,
1.858,0.24,-0.63,-1.08,-0.10,0.42,0.45,
1.858,0.24,-0.63,-1.08,-0.09,0.41,0.43,
1.858,0.24,-0.63,-1.08,-0.09,0.40,0.42,
1.866,0.24,-0.63,-1.08,-0.09,0.39,0.41,
1.866,0.01,-0.80,-1.46,-0.09,0.39,0.41,
1.866,0.01,-0.80,-1.46,-0.09,0.38,0.40,
1.866,0.01,-0.80,-1.46,-0.09,0.37,0.39,
1.867,0.01,-0.80,-1.46,-0.09,0.35,0.38,
1.867,0.01,-0.80,-1.46,-0.09,0.34,0.38,
1.869,0.01,-0.80,-1.46,-0.09,0.34,0.37,
1.87,-0.26,-0.89,-1.83,-0.09,0.34,0.37,
1.871,-0.26,-0.89,-1.83,-0.09,0.33,0.37,
1.874,-0.26,-0.89,-1.83,-0.09,0.32,0.36,
1.876,-0.26,-0.89,-1.83,-0.10,0.30,0.36,
1.876,-0.26,-0.89,-1.83,-0.10,0.29,0.36,
1.88,-0.26,-0.89,-1.83,-0.11,0.28,0.35,
1.88,-0.41,-0.92,-2.08,-0.11,0.28,0.35,
1.881,-0.41,-0.92,-2.08,-0.11,0.27,0.35,
1.882,-0.41,-0.92,-2.08,-0.12,0.26,0.35,
1.889,-0.41,-0.92,-2.08,-0.13,0.22,0.35,
1.889,-0.41,-0.92,-2.08,-0.13,0.22,0.35,
1.89,-0.41,-0.92,-2.08,-0.13,0.22,0.35,
1.891,-0.41,-0.92,-2.08,-0.13,0.20,0.36,
1.893,-0.51,-0.97,-2.24,-0.13,0.20,0.36,
1.893,-0.51,-0.97,-2.24,-0.14,0.20,0.36,
1.895,-0.51,-0.97,-2.24,-0.14,0.18,0.37,
1.897,-0.51,-0.97,-2.24,-0.14,0.16,0.37,
1.898,-0.51,-0.97,-2.24,-0.15,0.15,0.37,
1.901,-0.46,-0.93,-2.24,-0.15,0.15,0.37,
1.902,-0.46,-0.93,-2.24,-0.14,0.14,0.37,
1.902,-0.46,-0.93,-2.24,-0.15,0.13,0.37,
1.905,-0.46,-0.93,-2.24,-0.15,0.10,0.37,
1.906,-0.46,-0.93,-2.24,-0.14,0.08,0.36,
1.909,-0.46,-0.93,-2.24,-0.14,0.08,0.36,
1.911,-0.23,-0.86,-2.10,-0.14,0.08,0.36,
1.911,-0.23,-0.86,-2.10,-0.14,0.06,0.36,
1.912,-0.23,-0.86,-2.10,-0.14,0.04,0.35,
1.915,-0.23,-0.86,-2.10,-0.13,0.01,0.35,
1.916,-0.23,-0.86,-2.10,-0.12,-0.01,0.34,
1.918,-0.23,-0.86,-2.10,-0.12,-0.02,0.33,
1.921,0.05,-0.77,-1.95,-0.12,-0.02,0.33,
1.921,0.05,-0.77,-1.95,-0.11,-0.03,0.33,
1.922,0.05,-0.77,-1.95,-0.11,-0.05,0.31,
1.925,0.05,-0.77,-1.95,-0.10,-0.08,0.30,
1.926,0.05,-0.77,-1.95,-0.09,-0.09,0.29,
1.928,0.05,-0.77,-1.95,-0.09,-0.10,0.29,
1.93,0.29,-0.71,-1.88,-0.09,-0.10,0.29,
1.93,0.29,-0.71,-1.88,-0.08,-0.11,0.28,
1.932,0.29,-0.71,-1.88,-0.07,-0.12,0.27,
1.935,0.29,-0.71,-1.88,-0.07,-0.13,0.25,
1.936,0.29,-0.71,-1.88,-0.06,-0.14,0.24,
1.938,0.29,-0.71,-1.88,-0.06,-0.14,0.24,
1.94,0.30,-0.64,-2.01,-0.06,-0.14,0.24,
1.94,0.30,-0.64,-2.01,-0.06,-0.12,0.24,
1.942,0.30,-0.64,-2.01,-0.07,-0.12,0.24,
1.945,0.30,-0.64,-2.01,-0.08,-0.12,0.23,
1.946,0.30,-0.64,-2.01,-0.09,-0.13,0.23,
1.948,0.30,-0.64,-2.01,-0.09,-0.13,0.23,
1.951,0.15,-0.58,-2.35,-0.09,-0.13,0.23,
1.951,0.15,-0.58,-2.35,-0.10,-0.13,0.22,
1.952,0.15,-0.58,-2.35,-0.11,-0.12,0.21,
1.955,0.15,-0.58,-2.35,-0.12,-0.11,0.19,
1.956,0.15,-0.58,-2.35,-0.12,-0.09,0.17,
1.966,0.15,-0.58,-2.35,-0.13,-0.09,0.17,
1.966,0.42,-0.87,-2.52,-0.13,-0.09,0.17,
1.966,0.42,-0.87,-2.52,-0.13,-0.07,0.15,
1.967,0.42,-0.87,-2.52,-0.14,-0.05,0.14,
1.967,0.42,-0.87,-2.52,-0.15,-0.03,0.12,
1.967,0.42,-0.87,-2.52,-0.15,-0.01,0.11,
1.968,0.42,-0.87,-2.52,-0.15,0.00,0.10,
1.97,0.39,-1.02,-2.51,-0.15,0.00,0.10,
1.971,0.39,-1.02,-2.51,-0.15,0.05,0.09,
1.972,0.39,-1.02,-2.51,-0.15,0.06,0.09,
1.975,0.39,-1.02,-2.51,-0.15,0.08,0.09,
1.976,0.39,-1.02,-2.51,-0.14,0.11,0.08,
1.978,0.39,-1.02,-2.51,-0.14,0.12,0.08,
1.98,-0.02,-0.96,-2.43,-0.14,0.12,0.08,
1.98,-0.02,-0.96,-2.43,-0.14,0.14,0.09,
1.982,-0.02,-0.96,-2.43,-0.13,0.16,0.09,
1.988,-0.02,-0.96,-2.43,-0.12,0.20,0.09,
1.988,-0.02,-0.96,-2.43,-0.11,0.21,0.10,
1.989,-0.02,-0.96,-2.43,-0.11,0.22,0.10,
1.991,-0.31,-0.96,-2.39,-0.11,0.22,0.10,
1.991,-0.31,-0.96,-2.39,-0.10,0.24,0.11,
1.992,-0.31,-0.96,-2.39,-0.09,0.24,0.11,
1.996,-0.31,-0.96,-2.39,-0.08,0.25,0.12,
1.996,-0.31,-0.96,-2.39,-0.07,0.25,0.12,
1.998,-0.31,-0.96,-2.39,-0.06,0.25,0.12,
2.001,-0.38,-0.93,-2.34,-0.06,0.25,0.12,
2.001,-0.38,-0.93,-2.34,-0.05,0.24,0.13,
2.002,-0.38,-0.93,-2.34,-0.04,0.23,0.13,
2.005,-0.38,-0.93,-2.34,-0.02,0.21,0.13,
2.006,-0.38,-0.93,-2.34,-0.00,0.20,0.13,
2.008,-0.38,-0.93,-2.34,0.01,0.19,0.12,
2.01,-0.23,-0.85,-2.18,0.01,0.19,0.12,
2.011,-0.23,-0.85,-2.18,0.02,0.17,0.12,
2.012,-0.23,-0.85,-2.18,0.04,0.15,0.12,
2.015,-0.23,-0.85,-2.18,0.06,0.12,0.11,
2.016,-0.23,-0.85,-2.18,0.08,0.10,0.11,
2.018,-0.23,-0.85,-2.18,0.09,0.09,0.11,
2.02,-0.06,-0.74,-1.96,0.09,0.09,0.11,
2.02,-0.06,-0.74,-1.96,0.11,0.08,0.10,
2.022,-0.06,-0.74,-1.96,0.12,0.06,0.10,
2.025,-0.06,-0.74,-1.96,0.15,0.05,0.09,
2.026,-0.06,-0.74,-1.96,0.17,0.04,0.09,
2.028,-0.06,-0.74,-1.96,0.19,0.04,0.08,
2.03,0.04,-0.85,-1.71,0.19,0.04,0.08,
2.03,0.04,-0.85,-1.71,0.20,0.04,0.08,
2.032,0.04,-0.85,-1.71,0.22,0.05,0.09,
2.035,0.04,-0.85,-1.71,0.24,0.07,0.09,
2.036,0.04,-0.85,-1.71,0.26,0.07,0.11,
2.039,0.04,-0.85,-1.71,0.27,0.08,0.11,
2.041,-0.27,-0.96,-1.69,0.27,0.08,0.11,
2.041,-0.27,-0.96,-1.69,0.28,0.09,0.12,
2.042,-0.27,-0.96,-1.69,0.29,0.10,0.13,
2.046,-0.27,-0.96,-1.69,0.31,0.13,0.15,
2.046,-0.27,-0.96,-1.69,0.33,0.16,0.16,
2.048,-0.27,-0.96,-1.69,0.33,0.17,0.17,
2.051,-0.44,-1.39,-1.60,0.33,0.17,0.17,
2.051,-0.44,-1.39,-1.60,0.34,0.20,0.19,
2.052,-0.44,-1.39,-1.60,0.36,0.24,0.21,
2.055,-0.44,-1.39,-1.60,0.37,0.29,0.24,
2.057,-0.44,-1.39,-1.60,0.38,0.33,0.27,
2.058,-0.44,-1.39,-1.60,0.38,0.35,0.28,
2.06,-0.68,-1.82,-1.49,0.38,0.35,0.28,
2.06,-0.68,-1.82,-1.49,0.39,0.39,0.31,
2.062,-0.68,-1.82,-1.49,0.39,0.43,0.35,
2.065,-0.68,-1.82,-1.49,0.40,0.50,0.41,
2.067,-0.68,-1.82,-1.49,0.41,0.55,0.47,
2.068,-0.68,-1.82,-1.49,0.41,0.58,0.50,
2.07,-1.58,-2.09,-1.10,0.41,0.58,0.50,
2.07,-1.58,-2.09,-1.10,0.42,0.64,0.56,
2.072,-1.58,-2.09,-1.10,0.42,0.70,0.63,
2.075,-1.58,-2.09,-1.10,0.43,0.81,0.75,
2.076,-1.58,-2.09,-1.10,0.44,0.90,0.83,
2.078,-1.58,-2.09,-1.10,0.44,0.94,0.88,
2.08,-2.48,-1.96,-0.70,0.44,0.94,0.88,
2.08,-2.48,-1.96,-0.70,0.43,1.03,0.96,
2.082,-2.48,-1.96,-0.70,0.43,1.13,1.05,
2.085,-2.48,-1.96,-0.70,0.42,1.28,1.18,
2.086,-2.48,-1.96,-0.70,0.40,1.39,1.26,
2.088,-2.48,-1.96,-0.70,0.40,1.44,1.30,
2.09,-2.74,-1.97,-0.54,0.40,1.44,1.30,
2.091,-2.74,-1.97,-0.54,0.38,1.54,1.38,
2.092,-2.74,-1.97,-0.54,0.36,1.69,1.48,
2.095,-2.74,-1.97,-0.54,0.34,1.79,1.54,
2.096,-2.74,-1.97,-0.54,0.32,1.87,1.59,
2.098,-2.74,-1.97,-0.54,0.30,1.95,1.62,
2.1,-1.53,-1.55,-0.33,0.30,1.95,1.62,
2.1,-1.53,-1.55,-0.33,0.28,2.02,1.65,
2.102,-1.53,-1.55,-0.33,0.27,2.07,1.66,
2.105,-1.53,-1.55,-0.33,0.26,2.13,1.68,
2.106,-1.53,-1.55,-0.33,0.26,2.15,1.68,
2.108,-1.53,-1.55,-0.33,0.26,2.16,1.67,
2.11,0.32,-0.67,0.47,0.26,2.16,1.67,
2.111,0.32,-0.67,0.47,0.26,2.17,1.65,
2.112,0.32,-0.67,0.47,0.28,2.16,1.62,
2.115,0.32,-0.67,0.47,0.31,2.14,1.56,
2.117,0.32,-0.67,0.47,0.33,2.12,1.53,
2.118,0.32,-0.67,0.47,0.36,2.09,1.48,
2.12,2.30,0.20,1.52,0.36,2.09,1.48,
2.121,2.30,0.20,1.52,0.40,2.05,1.42,
2.122,2.30,0.20,1.52,0.44,2.01,1.35,
2.134,2.30,0.20,1.52,0.49,1.96,1.27,
2.134,2.30,0.20,1.52,0.54,1.92,1.19,
2.135,2.30,0.20,1.52,0.60,1.88,1.10,
2.135,3.97,0.79,2.28,0.60,1.88,1.10,
2.135,3.97,0.79,2.28,0.65,1.84,1.02,
2.135,3.97,0.79,2.28,0.71,1.80,0.94,
2.135,3.97,0.79,2.28,0.76,1.77,0.85,
2.145,3.97,0.79,2.28,0.81,1.73,0.77,
2.145,3.97,0.79,2.28,0.86,1.70,0.70,
2.145,4.14,1.09,2.28,0.86,1.70,0.70,
2.145,4.14,1.09,2.28,0.91,1.68,0.63,
2.146,4.14,1.09,2.28,0.95,1.66,0.56,
2.146,4.14,1.09,2.28,0.99,1.64,0.49,
2.159,4.14,1.09,2.28,1.03,1.63,0.44,
2.159,4.14,1.09,2.28,1.05,1.63,0.39,
2.159,3.37,1.11,1.43,1.05,1.63,0.39,
2.16,3.37,1.11,1.43,1.07,1.64,0.34,
2.16,3.37,1.11,1.43,1.08,1.65,0.31,
2.16,3.37,1.11,1.43,1.08,1.69,0.26,
2.16,3.37,1.11,1.43,1.07,1.70,0.25,
2.16,3.37,1.11,1.43,1.05,1.72,0.23,
2.16,2.00,0.97,-0.16,1.05,1.72,0.23,
2.16,2.00,0.97,-0.16,1.02,1.75,0.22,
2.162,2.00,0.97,-0.16,0.98,1.77,0.21,
2.165,2.00,0.97,-0.16,0.92,1.78,0.20,
2.167,2.00,0.97,-0.16,0.86,1.79,0.20,
2.168,2.00,0.97,-0.16,0.79,1.79,0.20,
2.171,1.09,1.15,-1.84,0.79,1.79,0.20,
2.171,1.09,1.15,-1.84,0.72,1.80,0.19,
2.172,1.09,1.15,-1.84,0.64,1.79,0.18,
2.175,1.09,1.15,-1.84,0.55,1.79,0.17,
2.176,1.09,1.15,-1.84,0.47,1.78,0.16,
2.178,1.09,1.15,-1.84,0.38,1.77,0.15,
2.18,0.81,1.31,-2.55,0.38,1.77,0.15,
2.18,0.81,1.31,-2.55,0.29,1.75,0.14,
2.182,0.81,1.31,-2.55,0.21,1.73,0.12,
2.185,0.81,1.31,-2.55,0.13,1.71,0.11,
2.186,0.81,1.31,-2.55,0.05,1.68,0.10,
2.188,0.81,1.31,-2.55,-0.01,1.64,0.08,
2.19,0.73,1.83,-1.84,-0.01,1.64,0.08,
2.19,0.73,1.83,-1.84,-0.07,1.61,0.06,
2.192,0.73,1.83,-1.84,-0.12,1.57,0.05,
2.195,0.73,1.83,-1.84,-0.17,1.52,0.03,
2.196,0.73,1.83,-1.84,-0.20,1.48,0.01,
2.198,0.73,1.83,-1.84,-0.23,1.43,-0.02,
2.202,0.86,2.22,-0.17,-0.23,1.43,-0.02,
2.202,0.86,2.22,-0.17,-0.25,1.37,-0.04,
2.202,0.86,2.22,-0.17,-0.26,1.32,-0.07,
2.205,0.86,2.22,-0.17,-0.27,1.27,-0.10,
2.206,0.86,2.22,-0.17,-0.27,1.21,-0.13,
2.208,0.86,2.22,-0.17,-0.27,1.16,-0.16,
2.21,0.95,2.58,1.48,-0.27,1.16,-0.16,
2.21,0.95,2.58,1.48,-0.26,1.11,-0.19,
2.212,0.95,2.58,1.48,-0.25,1.05,-0.22,
2.215,0.95,2.58,1.48,-0.24,0.97,-0.26,
2.217,0.95,2.58,1.48,-0.24,0.94,-0.28,
2.218,0.95,2.58,1.48,-0.24,0.88,-0.31,
2.224,0.91,3.01,2.24,-0.24,0.88,-0.31,
2.224,0.91,3.01,2.24,-0.24,0.82,-0.34,
2.224,0.91,3.01,2.24,-0.25,0.76,-0.37,
2.225,0.91,3.01,2.24,-0.27,0.69,-0.41,
2.226,0.91,3.01,2.24,-0.29,0.62,-0.44,
2.228,0.91,3.01,2.24,-0.33,0.53,-0.48,
2.231,0.88,3.54,1.84,-0.33,0.53,-0.48,
2.231,0.88,3.54,1.84,-0.38,0.43,-0.52,
2.233,0.88,3.54,1.84,-0.44,0.32,-0.56,
2.236,0.88,3.54,1.84,-0.51,0.19,-0.61,
2.236,0.88,3.54,1.84,-0.59,0.05,-0.66,
2.238,0.88,3.54,1.84,-0.67,-0.10,-0.72,
2.241,1.24,3.87,1.18,-0.67,-0.10,-0.72,
2.241,1.24,3.87,1.18,-0.76,-0.24,-0.78,
2.242,1.24,3.87,1.18,-0.85,-0.38,-0.84,
2.245,1.24,3.87,1.18,-0.94,-0.51,-0.91,
2.246,1.24,3.87,1.18,-1.03,-0.62,-0.97,
2.248,1.24,3.87,1.18,-1.11,-0.71,-1.04,
2.25,1.58,3.63,1.83,-1.11,-0.71,-1.04,
2.251,1.58,3.63,1.83,-1.19,-0.79,-1.10,
2.253,1.58,3.63,1.83,-1.26,-0.85,-1.15,
2.255,1.58,3.63,1.83,-1.34,-0.90,-1.21,
2.256,1.58,3.63,1.83,-1.40,-0.93,-1.25,
2.258,1.58,3.63,1.83,-1.47,-0.95,-1.29,
2.26,1.47,2.32,3.50,-1.47,-0.95,-1.29,
2.261,1.47,2.32,3.50,-1.53,-0.95,-1.32,
2.262,1.47,2.32,3.50,-1.59,-0.93,-1.33,
2.265,1.47,2.32,3.50,-1.66,-0.91,-1.34,
2.269,1.47,2.32,3.50,-1.72,-0.90,-1.33,
2.269,1.47,2.32,3.50,-1.79,-0.88,-1.32,
2.271,0.31,0.83,4.92,-1.79,-0.88,-1.32,
2.271,0.31,0.83,4.92,-1.85,-0.85,-1.29,
2.276,0.31,0.83,4.92,-1.91,-0.80,-1.26,
2.277,0.31,0.83,4.92,-1.95,-0.75,-1.23,
2.277,0.31,0.83,4.92,-2.00,-0.69,-1.19,
2.278,0.31,0.83,4.92,-2.03,-0.62,-1.14,
2.281,-0.77,-0.57,6.45,-2.03,-0.62,-1.14,
2.281,-0.77,-0.57,6.45,-2.06,-0.55,-1.08,
2.283,-0.77,-0.57,6.45,-2.07,-0.47,-1.02,
2.286,-0.77,-0.57,6.45,-2.08,-0.38,-0.97,
2.286,-0.77,-0.57,6.45,-2.07,-0.29,-0.91,
2.288,-0.77,-0.57,6.45,-2.06,-0.19,-0.85,
2.29,-1.23,-1.31,8.05,-2.06,-0.19,-0.85,
2.309,-1.23,-1.31,8.05,-2.01,-0.09,-0.79,
2.31,-1.23,-1.31,8.05,-1.98,0.01,-0.73,
2.31,-1.23,-1.31,8.05,-1.92,0.15,-0.66,
2.31,-1.23,-1.31,8.05,-1.89,0.20,-0.64,
2.31,-1.23,-1.31,8.05,-1.81,0.30,-0.60,
2.31,-0.64,-1.44,9.10,-1.81,0.30,-0.60,
2.31,-0.64,-1.44,9.10,-1.73,0.40,-0.57,
2.31,-0.64,-1.44,9.10,-1.64,0.49,-0.54,
2.31,-0.64,-1.44,9.10,-1.49,0.61,-0.52,
2.311,-0.64,-1.44,9.10,-1.44,0.65,-0.51,
2.311,-0.64,-1.44,9.10,-1.33,0.73,-0.50,
2.311,0.45,-1.46,9.28,-1.33,0.73,-0.50,
2.311,0.45,-1.46,9.28,-1.22,0.80,-0.50,
2.314,0.45,-1.46,9.28,-1.11,0.85,-0.49,
2.317,0.45,-1.46,9.28,-0.93,0.91,-0.49,
2.318,0.45,-1.46,9.28,-0.88,0.93,-0.49,
2.318,0.45,-1.46,9.28,-0.77,0.97,-0.48,
2.32,0.94,-0.97,8.17,-0.77,0.97,-0.48,
2.321,0.94,-0.97,8.17,-0.61,1.02,-0.47,
2.322,0.94,-0.97,8.17,-0.57,1.03,-0.47,
2.325,0.94,-0.97,8.17,-0.44,1.06,-0.45,
2.326,0.94,-0.97,8.17,-0.40,1.06,-0.45,
2.329,0.94,-0.97,8.17,-0.32,1.07,-0.43,
2.332,0.74,-0.12,5.59,-0.32,1.07,-0.43,
2.332,0.74,-0.12,5.59,-0.26,1.06,-0.41,
2.332,0.74,-0.12,5.59,-0.20,1.05,-0.40,
2.335,0.74,-0.12,5.59,-0.13,1.02,-0.38,
2.338,0.74,-0.12,5.59,-0.11,1.01,-0.37,
2.338,0.74,-0.12,5.59,-0.08,0.98,-0.36,
2.342,0.62,0.34,2.59,-0.08,0.98,-0.36,
2.342,0.62,0.34,2.59,-0.05,0.95,-0.35,
2.344,0.62,0.34,2.59,-0.03,0.91,-0.33,
2.347,0.62,0.34,2.59,-0.01,0.86,-0.31,
2.347,0.62,0.34,2.59,-0.01,0.84,-0.30,
2.35,0.62,0.34,2.59,-0.01,0.80,-0.28,
2.351,0.66,0.34,0.02,-0.01,0.80,-0.28,
2.351,0.66,0.34,0.02,-0.01,0.76,-0.27,
2.354,0.66,0.34,0.02,-0.02,0.72,-0.25,
2.357,0.66,0.34,0.02,-0.04,0.67,-0.22,
2.357,0.66,0.34,0.02,-0.04,0.65,-0.21,
2.36,0.66,0.34,0.02,-0.06,0.61,-0.19,
2.36,0.45,0.23,-1.83,-0.06,0.61,-0.19,
2.361,0.45,0.23,-1.83,-0.08,0.57,-0.16,
2.364,0.45,0.23,-1.83,-0.10,0.53,-0.14,
2.367,0.45,0.23,-1.83,-0.13,0.47,-0.11,
2.367,0.45,0.23,-1.83,-0.14,0.44,-0.09,
2.37,0.45,0.23,-1.83,-0.16,0.40,-0.07,
2.37,0.28,0.38,-2.81,-0.16,0.40,-0.07,
2.371,0.28,0.38,-2.81,-0.17,0.35,-0.05,
2.374,0.28,0.38,-2.81,-0.19,0.30,-0.03,
2.377,0.28,0.38,-2.81,-0.20,0.23,0.00,
2.377,0.28,0.38,-2.81,-0.21,0.20,0.01,
2.38,0.28,0.38,-2.81,-0.21,0.15,0.03,
2.38,0.36,0.47,-3.02,-0.21,0.15,0.03,
2.38,0.36,0.47,-3.02,-0.21,0.10,0.05,
2.383,0.36,0.47,-3.02,-0.21,0.05,0.06,
2.387,0.36,0.47,-3.02,-0.20,-0.03,0.08,
2.388,0.36,0.47,-3.02,-0.19,-0.05,0.08,
2.39,0.36,0.47,-3.02,-0.17,-0.10,0.09,
2.39,0.72,0.46,-2.68,-0.17,-0.10,0.09,
2.39,0.72,0.46,-2.68,-0.15,-0.15,0.10,
2.394,0.72,0.46,-2.68,-0.13,-0.19,0.11,
2.4,0.72,0.46,-2.68,-0.08,-0.26,0.12,
2.4,0.72,0.46,-2.68,-0.06,-0.28,0.12,
2.4,0.72,0.46,-2.68,-0.03,-0.32,0.12,
2.403,0.97,0.49,-2.22,-0.03,-0.32,0.12,
2.403,0.97,0.49,-2.22,0.01,-0.37,0.13,
2.403,0.97,0.49,-2.22,0.06,-0.40,0.13,
2.412,0.97,0.49,-2.22,0.12,-0.46,0.14,
2.412,0.97,0.49,-2.22,0.14,-0.48,0.14,
2.412,0.97,0.49,-2.22,0.19,-0.51,0.14,
2.413,1.08,0.62,-2.16,0.19,-0.51,0.14,
2.413,1.08,0.62,-2.16,0.23,-0.55,0.15,
2.413,1.08,0.62,-2.16,0.27,-0.58,0.15,
2.418,1.08,0.62,-2.16,0.33,-0.63,0.14,
2.418,1.08,0.62,-2.16,0.35,-0.64,0.14,
2.418,1.08,0.62,-2.16,0.39,-0.67,0.14,
2.423,1.11,0.66,-2.49,0.39,-0.67,0.14,
2.423,1.11,0.66,-2.49,0.42,-0.69,0.13,
2.423,1.11,0.66,-2.49,0.45,-0.71,0.13,
2.426,1.11,0.66,-2.49,0.51,-0.74,0.12,
2.427,1.11,0.66,-2.49,0.52,-0.75,0.11,
2.429,1.11,0.66,-2.49,0.55,-0.78,0.10,
2.431,1.16,0.72,-2.95,0.55,-0.78,0.10,
2.431,1.16,0.72,-2.95,0.59,-0.81,0.09,
2.432,1.16,0.72,-2.95,0.61,-0.83,0.09,
2.439,1.16,0.72,-2.95,0.65,-0.88,0.07,
2.443,1.16,0.72,-2.95,0.66,-0.89,0.06,
2.443,1.16,0.72,-2.95,0.68,-0.93,0.04,
2.444,1.19,0.52,-3.50,0.68,-0.93,0.04,
2.445,1.19,0.52,-3.50,0.70,-0.96,0.03,
2.445,1.19,0.52,-3.50,0.72,-1.00,0.02,
2.445,1.19,0.52,-3.50,0.74,-1.04,0.01,
2.446,1.19,0.52,-3.50,0.74,-1.06,0.00,
2.449,1.19,0.52,-3.50,0.75,-1.09,-0.01,
2.451,1.06,0.31,-4.04,0.75,-1.09,-0.01,
2.451,1.06,0.31,-4.04,0.76,-1.11,-0.02,
2.453,1.06,0.31,-4.04,0.76,-1.14,-0.02,
2.458,1.06,0.31,-4.04,0.77,-1.18,-0.02,
2.458,1.06,0.31,-4.04,0.77,-1.19,-0.02,
2.477,1.06,0.31,-4.04,0.77,-1.22,-0.02,
2.477,0.67,0.18,-4.40,0.77,-1.22,-0.02,
2.477,0.67,0.18,-4.40,0.77,-1.24,-0.02,
2.478,0.67,0.18,-4.40,0.76,-1.26,-0.02,
2.478,0.67,0.18,-4.40,0.76,-1.29,-0.02,
2.479,0.67,0.18,-4.40,0.75,-1.30,-0.02,
2.479,0.67,0.18,-4.40,0.74,-1.31,-0.02,
2.48,0.39,0.11,-4.60,0.74,-1.31,-0.02,
2.48,0.39,0.11,-4.60,0.74,-1.32,-0.03,
2.48,0.39,0.11,-4.60,0.73,-1.33,-0.02,
2.481,0.39,0.11,-4.60,0.72,-1.35,-0.03,
2.481,0.39,0.11,-4.60,0.71,-1.35,-0.03,
2.482,0.39,0.11,-4.60,0.71,-1.36,-0.03,
2.482,0.33,0.01,-4.34,0.71,-1.36,-0.03,
2.482,0.33,0.01,-4.34,0.70,-1.36,-0.04,
2.483,0.33,0.01,-4.34,0.70,-1.37,-0.04,
2.487,0.33,0.01,-4.34,0.70,-1.37,-0.05,
2.49,0.33,0.01,-4.34,0.70,-1.37,-0.05,
2.49,0.33,0.01,-4.34,0.70,-1.36,-0.06,
2.491,0.31,-0.18,-3.91,0.70,-1.36,-0.06,
2.491,0.31,-0.18,-3.91,0.70,-1.36,-0.06,
2.493,0.31,-0.18,-3.91,0.71,-1.35,-0.07,
2.496,0.31,-0.18,-3.91,0.72,-1.35,-0.07,
2.497,0.31,-0.18,-3.91,0.72,-1.35,-0.07,
2.5,0.31,-0.18,-3.91,0.73,-1.34,-0.07,
2.502,0.12,-0.42,-3.47,0.73,-1.34,-0.07,
2.502,0.12,-0.42,-3.47,0.73,-1.33,-0.07,
2.502,0.12,-0.42,-3.47,0.74,-1.32,-0.06,
2.505,0.12,-0.42,-3.47,0.75,-1.30,-0.06,
2.506,0.12,-0.42,-3.47,0.75,-1.29,-0.06,
2.508,0.12,-0.42,-3.47,0.76,-1.27,-0.06,
2.511,-0.18,-0.51,-3.12,0.76,-1.27,-0.06,
2.511,-0.18,-0.51,-3.12,0.76,-1.25,-0.05,
2.513,-0.18,-0.51,-3.12,0.77,-1.23,-0.05,
2.518,-0.18,-0.51,-3.12,0.78,-1.19,-0.05,
2.519,-0.18,-0.51,-3.12,0.78,-1.18,-0.05,
2.519,-0.18,-0.51,-3.12,0.79,-1.14,-0.06,
2.521,-0.23,-0.60,-2.97,0.79,-1.14,-0.06,
2.521,-0.23,-0.60,-2.97,0.79,-1.09,-0.06,
2.524,-0.23,-0.60,-2.97,0.80,-1.04,-0.06,
2.527,-0.23,-0.60,-2.97,0.80,-0.96,-0.05,
2.527,-0.23,-0.60,-2.97,0.80,-0.93,-0.05,
2.528,-0.23,-0.60,-2.97,0.81,-0.86,-0.04,
2.532,-0.37,-0.68,-2.73,0.81,-0.86,-0.04,
2.532,-0.37,-0.68,-2.73,0.81,-0.79,-0.03,
2.533,-0.37,-0.68,-2.73,0.81,-0.73,-0.02,
2.537,-0.37,-0.68,-2.73,0.81,-0.62,0.00,
2.537,-0.37,-0.68,-2.73,0.81,-0.58,0.01,
2.538,-0.37,-0.68,-2.73,0.81,-0.51,0.03,
2.541,-0.63,-0.78,-2.55,0.81,-0.51,0.03,
2.541,-0.63,-0.78,-2.55,0.81,-0.43,0.05,
2.543,-0.63,-0.78,-2.55,0.80,-0.35,0.08,
2.546,-0.63,-0.78,-2.55,0.79,-0.22,0.12,
2.547,-0.63,-0.78,-2.55,0.79,-0.18,0.14,
2.549,-0.63,-0.78,-2.55,0.78,-0.10,0.17,
2.553,-0.95,-1.08,-2.48,0.78,-0.10,0.17,
2.553,-0.95,-1.08,-2.48,0.77,-0.01,0.21,
2.553,-0.95,-1.08,-2.48,0.76,0.07,0.24,
2.557,-0.95,-1.08,-2.48,0.75,0.20,0.28,
2.557,-0.95,-1.08,-2.48,0.74,0.25,0.29,
2.559,-0.95,-1.08,-2.48,0.74,0.32,0.32,
2.561,-0.96,-1.29,-2.13,0.74,0.32,0.32,
2.561,-0.96,-1.29,-2.13,0.74,0.39,0.34,
2.563,-0.96,-1.29,-2.13,0.74,0.46,0.36,
2.571,-0.96,-1.29,-2.13,0.75,0.55,0.40,
2.572,-0.96,-1.29,-2.13,0.75,0.57,0.41,
2.572,-0.96,-1.29,-2.13,0.76,0.62,0.43,
2.572,-0.90,-1.19,-1.59,0.76,0.62,0.43,
2.573,-0.90,-1.19,-1.59,0.77,0.65,0.44,
2.573,-0.90,-1.19,-1.59,0.79,0.68,0.46,
2.576,-0.90,-1.19,-1.59,0.82,0.70,0.48,
2.577,-0.90,-1.19,-1.59,0.83,0.70,0.49,
2.579,-0.90,-1.19,-1.59,0.84,0.70,0.50,
2.59,-0.77,-1.07,-1.14,0.84,0.70,0.50,
2.59,-0.77,-1.07,-1.14,0.87,0.70,0.51,
2.591,-0.77,-1.07,-1.14,0.89,0.69,0.52,
2.591,-0.77,-1.07,-1.14,0.93,0.68,0.54,
2.591,-0.77,-1.07,-1.14,0.94,0.68,0.54,
2.591,-0.77,-1.07,-1.14,0.97,0.67,0.55,
2.591,-0.83,-1.02,-0.87,0.97,0.67,0.55,
2.591,-0.83,-1.02,-0.87,1.00,0.67,0.56,
2.592,-0.83,-1.02,-0.87,1.03,0.67,0.57,
2.595,-0.83,-1.02,-0.87,1.07,0.66,0.59,
2.596,-0.83,-1.02,-0.87,1.08,0.66,0.60,
2.598,-0.83,-1.02,-0.87,1.11,0.66,0.61,
2.601,-0.94,-0.94,-0.78,1.11,0.66,0.61,
2.601,-0.94,-0.94,-0.78,1.13,0.66,0.63,
2.603,-0.94,-0.94,-0.78,1.16,0.65,0.64,
2.606,-0.94,-0.94,-0.78,1.18,0.63,0.66,
2.607,-0.94,-0.94,-0.78,1.19,0.63,0.67,
2.609,-0.94,-0.94,-0.78,1.21,0.62,0.68,
2.611,-1.03,-0.97,-0.83,1.21,0.62,0.68,
2.611,-1.03,-0.97,-0.83,1.22,0.61,0.69,
2.612,-1.03,-0.97,-0.83,1.23,0.60,0.70,
2.617,-1.03,-0.97,-0.83,1.24,0.59,0.72,
2.617,-1.03,-0.97,-0.83,1.24,0.58,0.72,
2.619,-1.03,-0.97,-0.83,1.24,0.58,0.73,
2.621,-1.04,-0.80,-0.81,1.24,0.58,0.73,
2.621,-1.04,-0.80,-0.81,1.24,0.58,0.74,
2.623,-1.04,-0.80,-0.81,1.24,0.58,0.75,
2.637,-1.04,-0.80,-0.81,1.24,0.57,0.76,
2.638,-1.04,-0.80,-0.81,1.24,0.57,0.76,
2.638,-1.04,-0.80,-0.81,1.24,0.57,0.77,
2.638,-0.84,-0.60,-0.23,1.24,0.57,0.77,
2.638,-0.84,-0.60,-0.23,1.24,0.57,0.78,
2.638,-0.84,-0.60,-0.23,1.24,0.57,0.79,
2.638,-0.84,-0.60,-0.23,1.25,0.57,0.81,
2.639,-0.84,-0.60,-0.23,1.25,0.58,0.81,
2.639,-0.84,-0.60,-0.23,1.25,0.60,0.83,
2.641,-0.69,-0.13,0.44,1.25,0.60,0.83,
2.642,-0.69,-0.13,0.44,1.26,0.62,0.83,
2.642,-0.69,-0.13,0.44,1.26,0.64,0.84,
2.645,-0.69,-0.13,0.44,1.26,0.66,0.84,
2.646,-0.69,-0.13,0.44,1.26,0.67,0.84,
2.648,-0.69,-0.13,0.44,1.26,0.67,0.84,
2.651,-0.31,-0.44,0.84,1.26,0.67,0.84,
2.651,-0.31,-0.44,0.84,1.26,0.68,0.83,
2.652,-0.31,-0.44,0.84,1.26,0.68,0.83,
2.656,-0.31,-0.44,0.84,1.25,0.69,0.82,
2.657,-0.31,-0.44,0.84,1.25,0.69,0.82,
2.658,-0.31,-0.44,0.84,1.24,0.69,0.82,
2.662,0.22,-0.49,0.81,1.24,0.69,0.82,
2.662,0.22,-0.49,0.81,1.23,0.70,0.81,
2.663,0.22,-0.49,0.81,1.21,0.71,0.81,
2.666,0.22,-0.49,0.81,1.19,0.72,0.80,
2.667,0.22,-0.49,0.81,1.18,0.72,0.80,
2.668,0.22,-0.49,0.81,1.17,0.73,0.79,
2.671,0.32,-0.32,0.85,1.17,0.73,0.79,
2.672,0.32,-0.32,0.85,1.15,0.74,0.79,
2.673,0.32,-0.32,0.85,1.14,0.74,0.79,
2.676,0.32,-0.32,0.85,1.11,0.74,0.78,
2.677,0.32,-0.32,0.85,1.10,0.75,0.78,
2.678,0.32,-0.32,0.85,1.07,0.74,0.78,
2.681,0.07,-0.16,0.80,1.07,0.74,0.78,
2.681,0.07,-0.16,0.80,1.05,0.74,0.78,
2.683,0.07,-0.16,0.80,1.02,0.73,0.79,
2.686,0.07,-0.16,0.80,0.98,0.72,0.79,
2.686,0.07,-0.16,0.80,0.97,0.72,0.80,
2.688,0.07,-0.16,0.80,0.94,0.72,0.80,
2.691,-0.23,0.07,1.02,0.94,0.72,0.80,
2.691,-0.23,0.07,1.02,0.91,0.73,0.81,
2.692,-0.23,0.07,1.02,0.88,0.75,0.83,
2.695,-0.23,0.07,1.02,0.84,0.77,0.85,
2.696,-0.23,0.07,1.02,0.82,0.77,0.85,
2.704,-0.23,0.07,1.02,0.80,0.78,0.87,
2.705,-0.58,0.44,1.33,0.80,0.78,0.87,
2.705,-0.58,0.44,1.33,0.77,0.79,0.88,
2.705,-0.58,0.44,1.33,0.74,0.79,0.89,
2.705,-0.58,0.44,1.33,0.70,0.77,0.90,
2.706,-0.58,0.44,1.33,0.68,0.77,0.91,
2.708,-0.58,0.44,1.33,0.66,0.74,0.91,
2.739,-0.59,0.70,1.45,0.66,0.74,0.91,
2.739,-0.59,0.70,1.45,0.63,0.70,0.91,
2.739,-0.59,0.70,1.45,0.59,0.65,0.90,
2.74,-0.59,0.70,1.45,0.54,0.55,0.89,
2.74,-0.59,0.70,1.45,0.52,0.51,0.88,
2.74,-0.59,0.70,1.45,0.47,0.42,0.87,
2.74,-0.38,1.21,1.43,0.47,0.42,0.87,
2.74,-0.38,1.21,1.43,0.43,0.32,0.86,
2.741,-0.38,1.21,1.43,0.38,0.21,0.84,
2.741,-0.38,1.21,1.43,0.29,0.03,0.82,
2.741,-0.38,1.21,1.43,0.26,-0.04,0.81,
2.741,-0.38,1.21,1.43,0.20,-0.18,0.80,
2.741,-0.39,2.09,1.62,0.20,-0.18,0.80,
2.742,-0.39,2.09,1.62,0.14,-0.32,0.78,
2.742,-0.39,2.09,1.62,0.08,-0.44,0.75,
2.742,-0.39,2.09,1.62,-0.02,-0.62,0.72,
2.742,-0.39,2.09,1.62,-0.05,-0.67,0.71,
2.742,-0.39,2.09,1.62,-0.11,-0.77,0.69,
2.742,-0.21,2.31,2.24,-0.11,-0.77,0.69,
2.743,-0.21,2.31,2.24,-0.17,-0.86,0.67,
2.743,-0.21,2.31,2.24,-0.22,-0.93,0.65,
2.746,-0.21,2.31,2.24,-0.30,-1.01,0.61,
2.747,-0.21,2.31,2.24,-0.32,-1.03,0.59,
2.758,-0.21,2.31,2.24,-0.37,-1.05,0.57,
2.759,0.24,1.70,3.34,-0.37,-1.05,0.57,
2.759,0.24,1.70,3.34,-0.41,-1.06,0.53,
2.759,0.24,1.70,3.34,-0.45,-1.06,0.50,
2.759,0.24,1.70,3.34,-0.50,-1.03,0.46,
2.76,0.24,1.70,3.34,-0.52,-1.02,0.44,
2.76,0.24,1.70,3.34,-0.55,-0.98,0.41,
2.763,0.77,1.13,4.39,-0.55,-0.98,0.41,
2.763,0.77,1.13,4.39,-0.57,-0.94,0.38,
2.763,0.77,1.13,4.39,-0.60,-0.89,0.34,
2.77,0.77,1.13,4.39,-0.63,-0.80,0.30,
2.771,0.77,1.13,4.39,-0.63,-0.76,0.29,
2.771,0.77,1.13,4.39,-0.65,-0.70,0.27,
2.771,1.04,0.81,5.12,-0.65,-0.70,0.27,
2.771,1.04,0.81,5.12,-0.66,-0.62,0.24,
2.772,1.04,0.81,5.12,-0.67,-0.54,0.22,
2.776,1.04,0.81,5.12,-0.68,-0.42,0.19,
2.777,1.04,0.81,5.12,-0.67,-0.38,0.18,
2.78,1.04,0.81,5.12,-0.67,-0.30,0.16,
2.78,1.14,0.51,5.26,-0.67,-0.30,0.16,
2.781,1.14,0.51,5.26,-0.67,-0.22,0.14,
2.785,1.14,0.51,5.26,-0.66,-0.14,0.11,
2.786,1.14,0.51,5.26,-0.65,-0.01,0.08,
2.786,1.14,0.51,5.26,-0.65,0.03,0.07,
2.789,1.14,0.51,5.26,-0.64,0.13,0.05,
2.791,1.11,0.26,4.57,-0.64,0.13,0.05,
2.823,1.11,0.26,4.57,-0.63,0.21,0.03,
2.823,1.11,0.26,4.57,-0.62,0.30,0.01,
2.823,1.11,0.26,4.57,-0.60,0.40,-0.01,
2.824,1.11,0.26,4.57,-0.60,0.43,-0.02,
2.824,1.11,0.26,4.57,-0.60,0.47,-0.03,
2.825,0.79,0.20,3.20,-0.60,0.47,-0.03,
2.825,0.79,0.20,3.20,-0.60,0.50,-0.05,
2.825,0.79,0.20,3.20,-0.61,0.52,-0.06,
2.826,0.79,0.20,3.20,-0.63,0.51,-0.08,
2.826,0.79,0.20,3.20,-0.64,0.50,-0.09,
2.827,0.79,0.20,3.20,-0.66,0.47,-0.11,
2.827,0.58,0.22,1.36,-0.66,0.47,-0.11,
2.828,0.58,0.22,1.36,-0.69,0.44,-0.12,
2.828,0.58,0.22,1.36,-0.72,0.39,-0.14,
2.828,0.58,0.22,1.36,-0.77,0.31,-0.17,
2.829,0.58,0.22,1.36,-0.79,0.27,-0.19,
2.829,0.58,0.22,1.36,-0.83,0.20,-0.21,
2.83,0.63,0.20,-0.30,-0.83,0.20,-0.21,
2.83,0.63,0.20,-0.30,-0.87,0.12,-0.24,
2.83,0.63,0.20,-0.30,-0.91,0.03,-0.27,
2.831,0.63,0.20,-0.30,-0.98,-0.11,-0.32,
2.831,0.63,0.20,-0.30,-1.00,-0.16,-0.34,
2.831,0.63,0.20,-0.30,-1.05,-0.26,-0.37,
2.832,0.70,0.10,-1.31,-1.05,-0.26,-0.37,
2.832,0.70,0.10,-1.31,-1.09,-0.37,-0.40,
2.833,0.70,0.10,-1.31,-1.15,-0.48,-0.43,
2.841,0.70,0.10,-1.31,-1.22,-0.65,-0.46,
2.842,0.70,0.10,-1.31,-1.25,-0.72,-0.48,
2.842,0.70,0.10,-1.31,-1.29,-0.83,-0.49,
2.842,0.33,0.02,-1.32,-1.29,-0.83,-0.49,
2.842,0.33,0.02,-1.32,-1.34,-0.95,-0.51,
2.843,0.33,0.02,-1.32,-1.38,-1.06,-0.52,
2.846,0.33,0.02,-1.32,-1.43,-1.21,-0.53,
2.858,0.33,0.02,-1.32,-1.45,-1.26,-0.53,
2.859,0.33,0.02,-1.32,-1.47,-1.35,-0.53,
2.859,-0.04,-0.33,-0.12,-1.47,-1.35,-0.53,
2.859,-0.04,-0.33,-0.12,-1.49,-1.43,-0.53,
2.859,-0.04,-0.33,-0.12,-1.51,-1.51,-0.52,
2.86,-0.04,-0.33,-0.12,-1.51,-1.60,-0.51,
2.86,-0.04,-0.33,-0.12,-1.51,-1.62,-0.50,
2.86,-0.04,-0.33,-0.12,-1.50,-1.67,-0.49,
2.861,-0.45,-0.84,1.73,-1.50,-1.67,-0.49,
2.861,-0.45,-0.84,1.73,-1.48,-1.71,-0.46,
2.89,-0.45,-0.84,1.73,-1.45,-1.73,-0.43,
2.891,-0.45,-0.84,1.73,-1.39,-1.75,-0.38,
2.891,-0.45,-0.84,1.73,-1.37,-1.75,-0.36,
2.892,-0.45,-0.84,1.73,-1.32,-1.74,-0.31,
2.892,-1.12,-1.13,3.55,-1.32,-1.74,-0.31,
2.892,-1.12,-1.13,3.55,-1.26,-1.72,-0.27,
2.892,-1.12,-1.13,3.55,-1.19,-1.69,-0.21,
2.892,-1.12,-1.13,3.55,-1.08,-1.63,-0.13,
2.893,-1.12,-1.13,3.55,-1.04,-1.60,-0.10,
2.893,-1.12,-1.13,3.55,-0.95,-1.54,-0.04,
2.893,-1.68,-1.19,4.70,-0.95,-1.54,-0.04,
2.893,-1.68,-1.19,4.70,-0.86,-1.48,0.02,
2.894,-1.68,-1.19,4.70,-0.77,-1.41,0.08,
2.894,-1.68,-1.19,4.70,-0.47,-1.18,0.26,
2.894,-1.68,-1.19,4.70,-0.47,-1.18,0.26,
2.894,-1.68,-1.19,4.70,-0.47,-1.18,0.26,
2.894,-1.68,-1.19,4.70,-0.37,-1.11,0.31,
2.895,-1.73,-1.30,4.87,-0.37,-1.11,0.31,
2.895,-1.73,-1.30,4.87,-0.27,-1.05,0.36,
2.896,-1.73,-1.30,4.87,-0.11,-0.96,0.43,
2.905,-1.73,-1.30,4.87,-0.06,-0.93,0.45,
2.905,-1.73,-1.30,4.87,0.04,-0.88,0.48,
2.905,-1.29,-1.23,4.18,0.04,-0.88,0.48,
2.906,-1.29,-1.23,4.18,0.13,-0.84,0.51,
2.906,-1.29,-1.23,4.18,0.22,-0.80,0.53,
2.906,-1.29,-1.23,4.18,0.36,-0.75,0.57,
2.908,-1.29,-1.23,4.18,0.40,-0.73,0.57,
2.909,-1.29,-1.23,4.18,0.48,-0.71,0.59,
2.911,-0.82,-1.14,2.64,0.48,-0.71,0.59,
2.911,-0.82,-1.14,2.64,0.56,-0.68,0.61,
2.922,-0.82,-1.14,2.64,0.63,-0.66,0.62,
2.923,-0.82,-1.14,2.64,0.72,-0.65,0.64,
2.923,-0.82,-1.14,2.64,0.75,-0.65,0.65,
2.923,-0.82,-1.14,2.64,0.80,-0.64,0.66,
2.923,-0.70,-0.88,0.63,0.80,-0.64,0.66,
2.924,-0.70,-0.88,0.63,0.84,-0.64,0.67,
2.924,-0.70,-0.88,0.63,0.88,-0.64,0.68,
2.926,-0.70,-0.88,0.63,0.93,-0.65,0.70,
2.927,-0.70,-0.88,0.63,0.94,-0.66,0.71,
2.929,-0.70,-0.88,0.63,0.97,-0.67,0.72,
2.933,-0.78,-0.84,-1.41,0.97,-0.67,0.72,
2.934,-0.78,-0.84,-1.41,0.98,-0.68,0.73,
2.935,-0.78,-0.84,-1.41,0.99,-0.70,0.73,
2.935,-0.78,-0.84,-1.41,1.00,-0.72,0.75,
2.936,-0.78,-0.84,-1.41,1.00,-0.73,0.76,
2.939,-0.78,-0.84,-1.41,1.00,-0.75,0.76,
2.941,-0.80,-0.94,-3.14,1.00,-0.75,0.76,
2.941,-0.80,-0.94,-3.14,0.99,-0.76,0.77,
2.942,-0.80,-0.94,-3.14,0.98,-0.78,0.78,
2.963,-0.80,-0.94,-3.14,0.95,-0.81,0.79,
2.963,-0.80,-0.94,-3.14,0.94,-0.82,0.79,
2.963,-0.80,-0.94,-3.14,0.92,-0.83,0.80,
2.964,-0.92,-1.13,-4.33,0.92,-0.83,0.80,
2.964,-0.92,-1.13,-4.33,0.90,-0.85,0.81,
2.964,-0.92,-1.13,-4.33,0.88,-0.86,0.82,
2.964,-0.92,-1.13,-4.33,0.84,-0.88,0.84,
2.964,-0.92,-1.13,-4.33,0.82,-0.88,0.84,
2.982,-0.92,-1.13,-4.33,0.79,-0.89,0.86,
2.983,-1.14,-1.38,-4.93,0.79,-0.89,0.86,
2.983,-1.14,-1.38,-4.93,0.76,-0.90,0.87,
2.983,-1.14,-1.38,-4.93,0.74,-0.91,0.88,
2.983,-1.14,-1.38,-4.93,0.70,-0.91,0.91,
2.983,-1.14,-1.38,-4.93,0.69,-0.91,0.93,
2.984,-1.14,-1.38,-4.93,0.67,-0.91,0.95,
2.984,-1.64,-1.53,-4.89,0.67,-0.91,0.95,
2.984,-1.64,-1.53,-4.89,0.65,-0.92,0.97,
2.984,-1.64,-1.53,-4.89,0.64,-0.92,1.00,
2.985,-1.64,-1.53,-4.89,0.62,-0.92,1.04,
2.985,-1.64,-1.53,-4.89,0.62,-0.92,1.05,
2.985,-1.64,-1.53,-4.89,0.61,-0.92,1.08,
2.985,-1.92,-1.70,-4.34,0.61,-0.92,1.08,
2.985,-1.92,-1.70,-4.34,0.61,-0.91,1.11,
2.985,-1.92,-1.70,-4.34,0.61,-0.91,1.14,
2.986,-1.92,-1.70,-4.34,0.62,-0.89,1.19,
2.989,-1.92,-1.70,-4.34,0.62,-0.88,1.21,
2.989,-1.92,-1.70,-4.34,0.64,-0.87,1.25,
2.99,-2.21,-1.82,-3.53,0.64,-0.87,1.25,
2.991,-2.21,-1.82,-3.53,0.66,-0.86,1.29,
2.992,-2.21,-1.82,-3.53,0.67,-0.84,1.32,
2.998,-2.21,-1.82,-3.53,0.71,-0.82,1.38,
2.998,-2.21,-1.82,-3.53,0.72,-0.81,1.40,
2.998,-2.21,-1.82,-3.53,0.75,-0.79,1.43,
3.001,-2.08,-1.79,-2.75,0.75,-0.79,1.43,
3.001,-2.08,-1.79,-2.75,0.78,-0.78,1.47,
3.003,-2.08,-1.79,-2.75,0.81,-0.76,1.50,
3.006,-2.08,-1.79,-2.75,0.87,-0.73,1.54,
3.006,-2.08,-1.79,-2.75,0.89,-0.72,1.55,
3.011,-2.08,-1.79,-2.75,0.93,-0.69,1.58,
3.011,-1.59,-1.78,-2.13,0.93,-0.69,1.58,
3.011,-1.59,-1.78,-2.13,0.97,-0.67,1.60,
3.014,-1.59,-1.78,-2.13,1.01,-0.65,1.62,
3.016,-1.59,-1.78,-2.13,1.08,-0.61,1.64,
3.017,-1.59,-1.78,-2.13,1.10,-0.59,1.64,
3.018,-1.59,-1.78,-2.13,1.15,-0.56,1.65,
3.021,-0.98,-1.70,-1.82,1.15,-0.56,1.65,
3.021,-0.98,-1.70,-1.82,1.21,-0.51,1.65,
3.023,-0.98,-1.70,-1.82,1.23,-0.50,1.65,
3.025,-0.98,-1.70,-1.82,1.30,-0.45,1.65,
3.026,-0.98,-1.70,-1.82,1.31,-0.43,1.65,
3.028,-0.98,-1.70,-1.82,1.35,-0.39,1.64,
3.031,-0.54,-1.55,-1.92,1.35,-0.39,1.64,
3.031,-0.54,-1.55,-1.92,1.38,-0.36,1.63,
3.032,-0.54,-1.55,-1.92,1.41,-0.32,1.62,
3.037,-0.54,-1.55,-1.92,1.45,-0.26,1.60,
3.038,-0.54,-1.55,-1.92,1.46,-0.24,1.59,
3.038,-0.54,-1.55,-1.92,1.47,-0.21,1.57,
3.041,-0.22,-1.35,-2.51,1.47,-0.21,1.57,
3.041,-0.22,-1.35,-2.51,1.48,-0.17,1.54,
3.043,-0.22,-1.35,-2.51,1.48,-0.13,1.52,
3.046,-0.22,-1.35,-2.51,1.47,-0.09,1.48,
3.046,-0.22,-1.35,-2.51,1.47,-0.07,1.47,
3.048,-0.22,-1.35,-2.51,1.46,-0.04,1.44,
3.051,0.06,-1.18,-3.38,1.46,-0.04,1.44,
3.051,0.06,-1.18,-3.38,1.44,-0.01,1.42,
3.052,0.06,-1.18,-3.38,1.42,0.01,1.39,
3.056,0.06,-1.18,-3.38,1.37,0.04,1.34,
3.057,0.06,-1.18,-3.38,1.36,0.06,1.33,
3.058,0.06,-1.18,-3.38,1.33,0.08,1.30,
3.061,0.14,-1.04,-4.09,1.33,0.08,1.30,
3.061,0.14,-1.04,-4.09,1.29,0.10,1.27,
3.063,0.14,-1.04,-4.09,1.25,0.12,1.24,
3.065,0.14,-1.04,-4.09,1.19,0.15,1.19,
3.067,0.14,-1.04,-4.09,1.17,0.16,1.18,
3.069,0.14,-1.04,-4.09,1.12,0.19,1.15,
3.071,0.16,-0.70,-4.57,1.12,0.19,1.15,
3.072,0.16,-0.70,-4.57,1.07,0.21,1.11,
3.072,0.16,-0.70,-4.57,1.02,0.22,1.08,
3.075,0.16,-0.70,-4.57,0.94,0.24,1.03,
3.077,0.16,-0.70,-4.57,0.91,0.25,1.01,
3.089,0.16,-0.70,-4.57,0.86,0.26,0.97,
3.09,0.32,-0.34,-4.82,0.86,0.26,0.97,
3.091,0.32,-0.34,-4.82,0.80,0.27,0.93,
3.091,0.32,-0.34,-4.82,0.74,0.27,0.89,
3.091,0.32,-0.34,-4.82,0.65,0.27,0.81,
3.092,0.32,-0.34,-4.82,0.62,0.27,0.79,
3.092,0.32,-0.34,-4.82,0.56,0.27,0.74,
3.092,0.53,0.18,-4.83,0.56,0.27,0.74,
3.093,0.53,0.18,-4.83,0.50,0.26,0.68,
3.093,0.53,0.18,-4.83,0.43,0.24,0.63,
3.115,0.53,0.18,-4.83,0.34,0.21,0.54,
3.116,0.53,0.18,-4.83,0.31,0.20,0.51,
3.116,0.53,0.18,-4.83,0.25,0.18,0.44,
3.116,0.77,0.51,-4.38,0.25,0.18,0.44,
3.116,0.77,0.51,-4.38,0.19,0.15,0.38,
3.117,0.77,0.51,-4.38,0.14,0.12,0.31,
3.117,0.77,0.51,-4.38,0.06,0.08,0.21,
3.117,0.77,0.51,-4.38,0.04,0.06,0.18,
3.118,0.77,0.51,-4.38,-0.01,0.03,0.11,
3.118,1.11,0.74,-3.47,-0.01,0.03,0.11,
3.118,1.11,0.74,-3.47,-0.05,-0.00,0.04,
3.119,1.11,0.74,-3.47,-0.10,-0.03,-0.03,
3.119,1.11,0.74,-3.47,-0.15,-0.06,-0.13,
3.119,1.11,0.74,-3.47,-0.17,-0.07,-0.16,
3.119,1.11,0.74,-3.47,-0.20,-0.08,-0.22,
3.122,1.15,0.69,-2.20,-0.20,-0.08,-0.22,
3.123,1.15,0.69,-2.20,-0.24,-0.09,-0.28,
3.123,1.15,0.69,-2.20,-0.26,-0.08,-0.34,
3.146,1.15,0.69,-2.20,-0.31,-0.06,-0.42,
3.146,1.15,0.69,-2.20,-0.32,-0.05,-0.45,
3.147,1.15,0.69,-2.20,-0.34,-0.03,-0.50,
3.147,1.02,0.50,-1.00,-0.34,-0.03,-0.50,
3.147,1.02,0.50,-1.00,-0.37,0.00,-0.55,
3.147,1.02,0.50,-1.00,-0.39,0.04,-0.60,
3.148,1.02,0.50,-1.00,-0.43,0.09,-0.68,
3.148,1.02,0.50,-1.00,-0.44,0.11,-0.71,
3.148,1.02,0.50,-1.00,-0.46,0.15,-0.76,
3.149,1.04,0.21,0.01,-0.46,0.15,-0.76,
3.149,1.04,0.21,0.01,-0.48,0.20,-0.81,
3.149,1.04,0.21,0.01,-0.50,0.25,-0.86,
3.149,1.04,0.21,0.01,-0.52,0.32,-0.93,
3.15,1.04,0.21,0.01,-0.53,0.35,-0.95,
3.15,1.04,0.21,0.01,-0.54,0.40,-0.99,
3.155,1.01,0.01,0.90,-0.54,0.40,-0.99,
3.156,1.01,0.01,0.90,-0.56,0.45,-1.03,
3.156,1.01,0.01,0.90,-0.57,0.51,-1.08,
3.156,1.01,0.01,0.90,-0.59,0.59,-1.13,
3.157,1.01,0.01,0.90,-0.59,0.62,-1.15,
3.158,1.01,0.01,0.90,-0.61,0.67,-1.18,
3.161,0.84,-0.04,1.50,-0.61,0.67,-1.18,
3.161,0.84,-0.04,1.50,-0.62,0.72,-1.21,
3.17,0.84,-0.04,1.50,-0.63,0.76,-1.25,
3.171,0.84,-0.04,1.50,-0.65,0.81,-1.29,
3.171,0.84,-0.04,1.50,-0.65,0.83,-1.31,
3.171,0.84,-0.04,1.50,-0.66,0.85,-1.34,
3.172,0.71,-0.05,1.79,-0.66,0.85,-1.34,
3.172,0.71,-0.05,1.79,-0.67,0.86,-1.37,
3.173,0.71,-0.05,1.79,-0.69,0.87,-1.39,
3.175,0.71,-0.05,1.79,-0.70,0.88,-1.43,
3.176,0.71,-0.05,1.79,-0.71,0.88,-1.45,
3.18,0.71,-0.05,1.79,-0.72,0.88,-1.47,
3.181,0.44,0.05,1.92,-0.72,0.88,-1.47,
3.181,0.44,0.05,1.92,-0.73,0.88,-1.49,
3.183,0.44,0.05,1.92,-0.74,0.88,-1.51,
3.186,0.44,0.05,1.92,-0.76,0.87,-1.54,
3.186,0.44,0.05,1.92,-0.76,0.87,-1.54,
3.188,0.44,0.05,1.92,-0.77,0.88,-1.56,
3.191,0.12,0.22,2.22,-0.77,0.88,-1.56,
3.191,0.12,0.22,2.22,-0.77,0.88,-1.56,
3.193,0.12,0.22,2.22,-0.78,0.89,-1.57,
3.204,0.12,0.22,2.22,-0.78,0.91,-1.57,
3.204,0.12,0.22,2.22,-0.79,0.92,-1.57,
3.205,0.12,0.22,2.22,-0.79,0.93,-1.57,
3.205,-0.27,0.40,2.47,-0.79,0.93,-1.57,
3.205,-0.27,0.40,2.47,-0.80,0.96,-1.56,
3.205,-0.27,0.40,2.47,-0.80,0.98,-1.56,
3.205,-0.27,0.40,2.47,-0.81,1.02,-1.55,
3.207,-0.27,0.40,2.47,-0.81,1.04,-1.55,
3.208,-0.27,0.40,2.47,-0.83,1.07,-1.54,
3.226,-0.51,0.68,2.41,-0.83,1.07,-1.54,
3.227,-0.51,0.68,2.41,-0.84,1.09,-1.53,
3.227,-0.51,0.68,2.41,-0.87,1.11,-1.52,
3.227,-0.51,0.68,2.41,-0.92,1.13,-1.51,
3.227,-0.51,0.68,2.41,-0.94,1.13,-1.51,
3.228,-0.51,0.68,2.41,-0.99,1.11,-1.50,
3.228,-0.47,1.11,1.62,-0.99,1.11,-1.50,
3.228,-0.47,1.11,1.62,-1.06,1.08,-1.50,
3.228,-0.47,1.11,1.62,-1.13,1.02,-1.50,
3.229,-0.47,1.11,1.62,-1.27,0.92,-1.50,
3.229,-0.47,1.11,1.62,-1.33,0.87,-1.51,
3.229,-0.47,1.11,1.62,-1.44,0.78,-1.52,
3.238,0.00,1.52,0.58,-1.44,0.78,-1.52,
3.239,0.00,1.52,0.58,-1.55,0.68,-1.53,
3.239,0.00,1.52,0.58,-1.67,0.57,-1.56,
3.239,0.00,1.52,0.58,-1.85,0.42,-1.60,
3.24,0.00,1.52,0.58,-1.90,0.37,-1.61,
3.24,0.00,1.52,0.58,-2.01,0.27,-1.64,
3.24,0.74,1.67,1.21,-2.01,0.27,-1.64,
3.241,0.74,1.67,1.21,-2.10,0.19,-1.67,
3.242,0.74,1.67,1.21,-2.19,0.11,-1.70,
3.252,0.74,1.67,1.21,-2.31,0.01,-1.74,
3.252,0.74,1.67,1.21,-2.34,-0.02,-1.75,
3.252,0.74,1.67,1.21,-2.41,-0.07,-1.77,
3.253,1.13,1.50,3.55,-2.41,-0.07,-1.77,
3.253,1.13,1.50,3.55,-2.46,-0.12,-1.79,
3.253,1.13,1.50,3.55,-2.50,-0.17,-1.81,
3.256,1.13,1.50,3.55,-2.55,-0.22,-1.83,
3.257,1.13,1.50,3.55,-2.56,-0.24,-1.84,
3.258,1.13,1.50,3.55,-2.58,-0.26,-1.84,
3.261,1.34,0.93,6.07,-2.58,-0.26,-1.84,
3.261,1.34,0.93,6.07,-2.60,-0.28,-1.85,
3.263,1.34,0.93,6.07,-2.61,-0.29,-1.85,
3.266,1.34,0.93,6.07,-2.61,-0.28,-1.85,
3.267,1.34,0.93,6.07,-2.61,-0.27,-1.84,
3.268,1.34,0.93,6.07,-2.60,-0.24,-1.82,
3.271,1.25,0.57,7.98,-2.60,-0.24,-1.82,
3.271,1.25,0.57,7.98,-2.59,-0.20,-1.80,
3.272,1.25,0.57,7.98,-2.58,-0.17,-1.78,
3.275,1.25,0.57,7.98,-2.55,-0.10,-1.74,
3.276,1.25,0.57,7.98,-2.53,-0.07,-1.73,
3.278,1.25,0.57,7.98,-2.50,-0.00,-1.70,
3.282,1.24,0.04,9.06,-2.50,-0.00,-1.70,
3.283,1.24,0.04,9.06,-2.46,0.08,-1.68,
3.284,1.24,0.04,9.06,-2.42,0.17,-1.65,
3.285,1.24,0.04,9.06,-2.35,0.32,-1.63,
3.287,1.24,0.04,9.06,-2.32,0.37,-1.62,
3.288,1.24,0.04,9.06,-2.26,0.46,-1.60,
3.291,1.66,-0.69,9.47,-2.26,0.46,-1.60,
3.304,1.66,-0.69,9.47,-2.19,0.55,-1.59,
3.304,1.66,-0.69,9.47,-2.12,0.65,-1.58,
3.304,1.66,-0.69,9.47,-2.00,0.80,-1.56,
3.304,1.66,-0.69,9.47,-1.96,0.85,-1.55,
3.304,1.66,-0.69,9.47,-1.88,0.95,-1.54,
3.304,1.64,-0.67,9.14,-1.88,0.95,-1.54,
3.305,1.64,-0.67,9.14,-1.79,1.04,-1.52,
3.305,1.64,-0.67,9.14,-1.71,1.13,-1.51,
3.307,1.64,-0.67,9.14,-1.58,1.24,-1.47,
3.307,1.64,-0.67,9.14,-1.54,1.28,-1.46,
3.308,1.64,-0.67,9.14,-1.46,1.35,-1.44,
3.311,1.06,-0.37,7.73,-1.46,1.35,-1.44,
3.311,1.06,-0.37,7.73,-1.38,1.41,-1.41,
3.312,1.06,-0.37,7.73,-1.30,1.46,-1.38,
3.315,1.06,-0.37,7.73,-1.19,1.52,-1.33,
3.316,1.06,-0.37,7.73,-1.16,1.54,-1.31,
3.318,1.06,-0.37,7.73,-1.09,1.56,-1.27,
3.32,0.31,-0.10,5.57,-1.09,1.56,-1.27,
3.32,0.31,-0.10,5.57,-1.03,1.58,-1.23,
3.322,0.31,-0.10,5.57,-0.97,1.59,-1.18,
3.325,0.31,-0.10,5.57,-0.88,1.60,-1.11,
3.326,0.31,-0.10,5.57,-0.85,1.60,-1.08,
3.328,0.31,-0.10,5.57,-0.80,1.60,-1.03,
3.331,-0.41,0.01,3.38,-0.80,1.60,-1.03,
3.331,-0.41,0.01,3.38,-0.75,1.59,-0.98,
3.332,-0.41,0.01,3.38,-0.69,1.57,-0.92,
3.335,-0.41,0.01,3.38,-0.62,1.53,-0.84,
3.336,-0.41,0.01,3.38,-0.59,1.52,-0.81,
3.338,-0.41,0.01,3.38,-0.54,1.48,-0.75,
3.34,-1.05,0.20,1.58,-0.54,1.48,-0.75,
3.34,-1.05,0.20,1.58,-0.49,1.44,-0.69,
3.342,-1.05,0.20,1.58,-0.44,1.39,-0.62,
3.347,-1.05,0.20,1.58,-0.37,1.30,-0.53,
3.348,-1.05,0.20,1.58,-0.35,1.27,-0.50,
3.348,-1.05,0.20,1.58,-0.30,1.21,-0.44,
3.357,-1.37,0.46,0.16,-0.30,1.21,-0.44,
3.357,-1.37,0.46,0.16,-0.25,1.14,-0.38,
3.357,-1.37,0.46,0.16,-0.20,1.07,-0.32,
3.358,-1.37,0.46,0.16,-0.14,0.95,-0.23,
3.358,-1.37,0.46,0.16,-0.11,0.92,-0.21,
3.358,-1.37,0.46,0.16,-0.07,0.83,-0.15,
3.365,-1.23,0.65,-0.98,-0.07,0.83,-0.15,
3.365,-1.23,0.65,-0.98,-0.02,0.75,-0.10,
3.365,-1.23,0.65,-0.98,0.02,0.66,-0.05,
3.366,-1.23,0.65,-0.98,0.09,0.53,0.03,
3.366,-1.23,0.65,-0.98,0.11,0.49,0.05,
3.368,-1.23,0.65,-0.98,0.15,0.40,0.10,
3.37,-1.02,0.79,-1.98,0.15,0.40,0.10,
3.374,-1.02,0.79,-1.98,0.20,0.27,0.17,
3.374,-1.02,0.79,-1.98,0.22,0.22,0.19,
3.378,-1.02,0.79,-1.98,0.28,0.09,0.25,
3.379,-1.02,0.79,-1.98,0.29,0.05,0.27,
3.38,-1.02,0.79,-1.98,0.32,-0.03,0.32,
3.381,-0.77,0.71,-2.76,0.32,-0.03,0.32,
3.382,-0.77,0.71,-2.76,0.36,-0.11,0.36,
3.383,-0.77,0.71,-2.76,0.39,-0.19,0.39,
3.386,-0.77,0.71,-2.76,0.43,-0.30,0.45,
3.386,-0.77,0.71,-2.76,0.45,-0.33,0.47,
3.388,-0.77,0.71,-2.76,0.48,-0.39,0.51,
3.391,-0.60,0.64,-3.40,0.48,-0.39,0.51,
3.391,-0.60,0.64,-3.40,0.50,-0.45,0.54,
3.392,-0.60,0.64,-3.40,0.52,-0.50,0.58,
3.396,-0.60,0.64,-3.40,0.55,-0.58,0.63,
3.397,-0.60,0.64,-3.40,0.57,-0.60,0.64,
3.4,-0.60,0.64,-3.40,0.58,-0.64,0.67,
3.401,-0.36,0.41,-3.89,0.58,-0.64,0.67,
3.401,-0.36,0.41,-3.89,0.60,-0.68,0.70,
3.402,-0.36,0.41,-3.89,0.61,-0.72,0.72,
3.405,-0.36,0.41,-3.89,0.63,-0.77,0.76,
3.406,-0.36,0.41,-3.89,0.64,-0.79,0.77,
3.408,-0.36,0.41,-3.89,0.65,-0.82,0.79,
3.411,-0.03,0.28,-4.23,0.65,-0.82,0.79,
3.411,-0.03,0.28,-4.23,0.66,-0.84,0.81,
3.415,-0.03,0.28,-4.23,0.67,-0.87,0.82,
3.415,-0.03,0.28,-4.23,0.69,-0.90,0.84,
3.418,-0.03,0.28,-4.23,0.70,-0.91,0.84,
3.421,-0.03,0.28,-4.23,0.71,-0.93,0.85,
3.421,0.28,0.09,-4.28,0.71,-0.93,0.85,
3.422,0.28,0.09,-4.28,0.73,-0.95,0.86,
3.422,0.28,0.09,-4.28,0.74,-0.96,0.87,
3.425,0.28,0.09,-4.28,0.76,-0.98,0.87,
3.426,0.28,0.09,-4.28,0.77,-0.99,0.88,
3.428,0.28,0.09,-4.28,0.78,-1.00,0.88,
3.431,0.40,-0.02,-4.27,0.78,-1.00,0.88,
3.432,0.40,-0.02,-4.27,0.80,-1.01,0.88,
3.432,0.40,-0.02,-4.27,0.81,-1.01,0.88,
3.436,0.40,-0.02,-4.27,0.83,-1.02,0.89,
3.436,0.40,-0.02,-4.27,0.84,-1.02,0.89,
3.438,0.40,-0.02,-4.27,0.85,-1.02,0.89,
3.44,0.53,-0.23,-4.22,0.85,-1.02,0.89,
3.441,0.53,-0.23,-4.22,0.87,-1.02,0.89,
3.442,0.53,-0.23,-4.22,0.88,-1.02,0.88,
3.446,0.53,-0.23,-4.22,0.90,-1.02,0.88,
3.447,0.53,-0.23,-4.22,0.91,-1.02,0.87,
3.448,0.53,-0.23,-4.22,0.93,-1.02,0.87,
3.451,0.75,-0.40,-4.11,0.93,-1.02,0.87,
3.452,0.75,-0.40,-4.11,0.94,-1.02,0.86,
3.453,0.75,-0.40,-4.11,0.96,-1.02,0.85,
3.458,0.75,-0.40,-4.11,0.99,-1.01,0.84,
3.459,0.75,-0.40,-4.11,1.00,-1.01,0.83,
3.492,0.75,-0.40,-4.11,1.02,-1.00,0.82,
3.492,0.88,-0.61,-3.88,1.02,-1.00,0.82,
3.492,0.88,-0.61,-3.88,1.04,-0.99,0.81,
3.493,0.88,-0.61,-3.88,1.07,-0.98,0.79,
3.493,0.88,-0.61,-3.88,1.10,-0.96,0.77,
3.494,0.88,-0.61,-3.88,1.11,-0.96,0.76,
3.494,0.88,-0.61,-3.88,1.14,-0.94,0.74,
3.494,0.90,-0.63,-3.66,1.14,-0.94,0.74,
3.495,0.90,-0.63,-3.66,1.16,-0.92,0.73,
3.495,0.90,-0.63,-3.66,1.19,-0.90,0.71,
3.495,0.90,-0.63,-3.66,1.22,-0.86,0.68,
3.496,0.90,-0.63,-3.66,1.23,-0.85,0.67,
3.496,0.90,-0.63,-3.66,1.25,-0.82,0.65,
3.496,0.74,-0.71,-3.65,1.25,-0.82,0.65,
3.496,0.74,-0.71,-3.65,1.27,-0.79,0.64,
3.497,0.74,-0.71,-3.65,1.29,-0.76,0.62,
3.497,0.74,-0.71,-3.65,1.31,-0.71,0.59,
3.497,0.74,-0.71,-3.65,1.31,-0.70,0.58,
3.497,0.74,-0.71,-3.65,1.32,-0.66,0.56,
3.498,0.53,-0.87,-3.97,1.32,-0.66,0.56,
3.498,0.53,-0.87,-3.97,1.33,-0.62,0.54,
3.498,0.53,-0.87,-3.97,1.33,-0.59,0.52,
3.498,0.53,-0.87,-3.97,1.32,-0.53,0.50,
3.499,0.53,-0.87,-3.97,1.32,-0.51,0.49,
3.499,0.53,-0.87,-3.97,1.31,-0.46,0.48,
3.505,0.16,-1.01,-4.45,1.31,-0.46,0.48,
3.506,0.16,-1.01,-4.45,1.30,-0.42,0.46,
3.506,0.16,-1.01,-4.45,1.28,-0.37,0.45,
3.506,0.16,-1.01,-4.45,1.26,-0.30,0.44,
3.507,0.16,-1.01,-4.45,1.24,-0.28,0.44,
3.509,0.16,-1.01,-4.45,1.22,-0.24,0.43,
3.511,-0.25,-1.11,-4.98,1.22,-0.24,0.43,
3.512,-0.25,-1.11,-4.98,1.19,-0.19,0.42,
3.514,-0.25,-1.11,-4.98,1.16,-0.14,0.41,
3.516,-0.25,-1.11,-4.98,1.11,-0.08,0.41,
3.517,-0.25,-1.11,-4.98,1.09,-0.06,0.40,
3.519,-0.25,-1.11,-4.98,1.05,-0.02,0.40,
3.521,-0.51,-1.27,-5.34,1.05,-0.02,0.40,
3.521,-0.51,-1.27,-5.34,1.01,0.01,0.40,
3.522,-0.51,-1.27,-5.34,0.97,0.04,0.39,
3.525,-0.51,-1.27,-5.34,0.91,0.08,0.38,
3.536,-0.51,-1.27,-5.34,0.90,0.09,0.37,
3.536,-0.51,-1.27,-5.34,0.86,0.10,0.37,
3.536,-0.38,-1.38,-5.18,0.86,0.10,0.37,
3.537,-0.38,-1.38,-5.18,0.83,0.11,0.36,
3.537,-0.38,-1.38,-5.18,0.79,0.13,0.34,
3.537,-0.38,-1.38,-5.18,0.76,0.14,0.33,
3.537,-0.38,-1.38,-5.18,0.75,0.15,0.32,
3.539,-0.38,-1.38,-5.18,0.73,0.15,0.31,
3.543,-0.20,-1.55,-4.23,0.73,0.15,0.31,
3.543,-0.20,-1.55,-4.23,0.72,0.16,0.30,
3.543,-0.20,-1.55,-4.23,0.70,0.16,0.29,
3.553,-0.20,-1.55,-4.23,0.70,0.16,0.28,
3.554,-0.20,-1.55,-4.23,0.70,0.16,0.27,
3.554,-0.20,-1.55,-4.23,0.70,0.16,0.27,
3.554,-0.29,-1.65,-2.91,0.70,0.16,0.27,
3.554,-0.29,-1.65,-2.91,0.71,0.15,0.26,
3.555,-0.29,-1.65,-2.91,0.72,0.15,0.26,
3.556,-0.29,-1.65,-2.91,0.74,0.15,0.26,
3.557,-0.29,-1.65,-2.91,0.74,0.15,0.26,
3.559,-0.29,-1.65,-2.91,0.76,0.16,0.26,
3.561,-0.54,-1.74,-1.66,0.76,0.16,0.26,
3.561,-0.54,-1.74,-1.66,0.78,0.18,0.27,
3.562,-0.54,-1.74,-1.66,0.79,0.19,0.28,
3.565,-0.54,-1.74,-1.66,0.81,0.21,0.29,
3.566,-0.54,-1.74,-1.66,0.82,0.22,0.30,
3.568,-0.54,-1.74,-1.66,0.83,0.24,0.31,
3.57,-0.68,-1.95,-0.91,0.83,0.24,0.31,
3.571,-0.68,-1.95,-0.91,0.84,0.26,0.32,
3.572,-0.68,-1.95,-0.91,0.84,0.28,0.34,
3.576,-0.68,-1.95,-0.91,0.85,0.31,0.36,
3.581,-0.68,-1.95,-0.91,0.85,0.32,0.37,
3.582,-0.68,-1.95,-0.91,0.86,0.34,0.39,
3.582,-0.74,-2.01,-0.58,0.86,0.34,0.39,
3.582,-0.74,-2.01,-0.58,0.86,0.37,0.40,
3.582,-0.74,-2.01,-0.58,0.86,0.38,0.42,
3.586,-0.74,-2.01,-0.58,0.86,0.40,0.44,
3.587,-0.74,-2.01,-0.58,0.86,0.41,0.45,
3.588,-0.74,-2.01,-0.58,0.86,0.42,0.47,
3.591,-0.76,-1.85,-0.17,0.86,0.42,0.47,
3.592,-0.76,-1.85,-0.17,0.87,0.42,0.48,
3.597,-0.76,-1.85,-0.17,0.87,0.42,0.49,
3.599,-0.76,-1.85,-0.17,0.87,0.42,0.50,
3.601,-0.76,-1.85,-0.17,0.87,0.42,0.51,
3.602,-0.76,-1.85,-0.17,0.86,0.41,0.51,
3.603,-0.56,-1.62,0.13,0.86,0.41,0.51,
3.603,-0.56,-1.62,0.13,0.86,0.40,0.52,
3.604,-0.56,-1.62,0.13,0.85,0.39,0.52,
3.606,-0.56,-1.62,0.13,0.84,0.36,0.53,
3.607,-0.56,-1.62,0.13,0.84,0.35,0.53,
3.608,-0.56,-1.62,0.13,0.83,0.32,0.54,
3.611,-0.42,-1.52,0.55,0.83,0.32,0.54,
3.611,-0.42,-1.52,0.55,0.83,0.29,0.54,
3.614,-0.42,-1.52,0.55,0.82,0.25,0.55,
3.616,-0.42,-1.52,0.55,0.82,0.19,0.55,
3.616,-0.42,-1.52,0.55,0.82,0.17,0.55,
3.619,-0.42,-1.52,0.55,0.82,0.13,0.56,
3.621,-0.37,-1.39,1.40,0.82,0.13,0.56,
3.621,-0.37,-1.39,1.40,0.82,0.09,0.57,
3.623,-0.37,-1.39,1.40,0.82,0.06,0.57,
3.64,-0.37,-1.39,1.40,0.83,-0.00,0.59,
3.64,-0.37,-1.39,1.40,0.83,-0.02,0.60,
3.64,-0.37,-1.39,1.40,0.82,-0.06,0.61,
3.64,-0.52,-1.18,2.28,0.82,-0.06,0.61,
3.64,-0.52,-1.18,2.28,0.82,-0.10,0.62,
3.64,-0.52,-1.18,2.28,0.81,-0.14,0.63,
3.641,-0.52,-1.18,2.28,0.80,-0.20,0.65,
3.641,-0.52,-1.18,2.28,0.80,-0.22,0.66,
3.641,-0.52,-1.18,2.28,0.78,-0.26,0.67,
3.641,-0.54,-0.80,2.91,0.78,-0.26,0.67,
3.641,-0.54,-0.80,2.91,0.77,-0.30,0.68,
3.649,-0.54,-0.80,2.91,0.75,-0.33,0.68,
3.649,-0.54,-0.80,2.91,0.72,-0.38,0.69,
3.649,-0.54,-0.80,2.91,0.71,-0.40,0.69,
3.649,-0.54,-0.80,2.91,0.69,-0.43,0.70,
3.65,-0.26,-0.49,3.52,0.69,-0.43,0.70,
3.65,-0.26,-0.49,3.52,0.67,-0.47,0.70,
3.652,-0.26,-0.49,3.52,0.65,-0.50,0.70,
3.655,-0.26,-0.49,3.52,0.61,-0.54,0.69,
3.656,-0.26,-0.49,3.52,0.60,-0.55,0.69,
3.658,-0.26,-0.49,3.52,0.57,-0.58,0.69,
3.665,0.11,-0.04,4.03,0.57,-0.58,0.69,
3.666,0.11,-0.04,4.03,0.54,-0.61,0.68,
3.666,0.11,-0.04,4.03,0.50,-0.63,0.67,
3.666,0.11,-0.04,4.03,0.45,-0.68,0.66,
3.666,0.11,-0.04,4.03,0.43,-0.69,0.65,
3.668,0.11,-0.04,4.03,0.38,-0.72,0.63,
3.67,0.70,0.34,4.23,0.38,-0.72,0.63,
3.67,0.70,0.34,4.23,0.33,-0.75,0.61,
3.672,0.70,0.34,4.23,0.28,-0.77,0.58,
3.675,0.70,0.34,4.23,0.20,-0.80,0.54,
3.677,0.70,0.34,4.23,0.17,-0.81,0.53,
3.678,0.70,0.34,4.23,0.12,-0.83,0.49,
3.682,1.43,0.64,4.28,0.12,-0.83,0.49,
3.682,1.43,0.64,4.28,0.06,-0.84,0.46,
3.682,1.43,0.64,4.28,0.00,-0.86,0.42,
3.685,1.43,0.64,4.28,-0.09,-0.87,0.36,
3.686,1.43,0.64,4.28,-0.12,-0.88,0.34,
3.689,1.43,0.64,4.28,-0.18,-0.89,0.29,
3.69,2.12,0.93,4.37,-0.18,-0.89,0.29,
3.691,2.12,0.93,4.37,-0.24,-0.90,0.25,
3.692,2.12,0.93,4.37,-0.31,-0.91,0.20,
3.696,2.12,0.93,4.37,-0.41,-0.92,0.11,
3.697,2.12,0.93,4.37,-0.44,-0.92,0.08,
3.699,2.12,0.93,4.37,-0.52,-0.91,0.03,
3.7,2.79,1.16,4.36,-0.52,-0.91,0.03,
3.701,2.79,1.16,4.36,-0.59,-0.91,-0.04,
3.702,2.79,1.16,4.36,-0.66,-0.90,-0.10,
3.705,2.79,1.16,4.36,-0.77,-0.87,-0.20,
3.707,2.79,1.16,4.36,-0.81,-0.86,-0.24,
3.708,2.79,1.16,4.36,-0.88,-0.84,-0.30,
3.711,3.34,1.18,4.48,-0.88,-0.84,-0.30,
3.711,3.34,1.18,4.48,-0.95,-0.80,-0.37,
3.712,3.34,1.18,4.48,-1.02,-0.76,-0.44,
3.715,3.34,1.18,4.48,-1.12,-0.69,-0.54,
3.716,3.34,1.18,4.48,-1.16,-0.66,-0.57,
3.718,3.34,1.18,4.48,-1.22,-0.61,-0.64,
3.72,3.40,1.02,4.86,-1.22,-0.61,-0.64,
3.721,3.40,1.02,4.86,-1.31,-0.51,-0.74,
3.722,3.40,1.02,4.86,-1.37,-0.44,-0.80,
3.726,3.40,1.02,4.86,-1.42,-0.37,-0.86,
3.727,3.40,1.02,4.86,-1.45,-0.33,-0.89,
3.729,3.40,1.02,4.86,-1.50,-0.26,-0.94,
3.731,3.04,0.60,5.28,-1.50,-0.26,-0.94,
3.731,3.04,0.60,5.28,-1.55,-0.18,-0.99,
3.733,3.04,0.60,5.28,-1.59,-0.11,-1.04,
3.735,3.04,0.60,5.28,-1.64,0.00,-1.11,
3.736,3.04,0.60,5.28,-1.66,0.04,-1.13,
3.738,3.04,0.60,5.28,-1.69,0.11,-1.16,
3.74,2.06,0.18,5.67,-1.69,0.11,-1.16,
3.741,2.06,0.18,5.67,-1.71,0.19,-1.19,
3.743,2.06,0.18,5.67,-1.73,0.26,-1.21,
3.745,2.06,0.18,5.67,-1.75,0.37,-1.24,
3.747,2.06,0.18,5.67,-1.75,0.40,-1.24,
3.748,2.06,0.18,5.67,-1.75,0.47,-1.25,
3.751,0.89,-0.26,5.92,-1.75,0.47,-1.25,
3.752,0.89,-0.26,5.92,-1.75,0.53,-1.26,
3.752,0.89,-0.26,5.92,-1.74,0.59,-1.26,
3.755,0.89,-0.26,5.92,-1.73,0.66,-1.25,
3.757,0.89,-0.26,5.92,-1.72,0.68,-1.24,
3.759,0.89,-0.26,5.92,-1.70,0.72,-1.23,
3.772,-0.12,-0.50,5.64,-1.70,0.72,-1.23,
3.774,-0.12,-0.50,5.64,-1.68,0.74,-1.22,
3.775,-0.12,-0.50,5.64,-1.66,0.76,-1.21,
3.775,-0.12,-0.50,5.64,-1.63,0.77,-1.18,
3.776,-0.12,-0.50,5.64,-1.62,0.77,-1.17,
3.776,-0.12,-0.50,5.64,-1.59,0.76,-1.16,
3.776,-0.69,-0.49,4.93,-1.59,0.76,-1.16,
3.777,-0.69,-0.49,4.93,-1.56,0.74,-1.14,
3.777,-0.69,-0.49,4.93,-1.54,0.71,-1.12,
3.78,-0.69,-0.49,4.93,-1.50,0.66,-1.10,
3.781,-0.69,-0.49,4.93,-1.48,0.64,-1.09,
3.781,-0.69,-0.49,4.93,-1.45,0.59,-1.07,
3.788,-0.82,-0.34,3.95,-1.45,0.59,-1.07,
3.788,-0.82,-0.34,3.95,-1.42,0.54,-1.05,
3.789,-0.82,-0.34,3.95,-1.40,0.48,-1.03,
3.789,-0.82,-0.34,3.95,-1.35,0.39,-1.00,
3.789,-0.82,-0.34,3.95,-1.34,0.36,-1.00,
3.79,-0.82,-0.34,3.95,-1.31,0.29,-0.97,
3.791,-0.84,-0.18,2.94,-1.31,0.29,-0.97,
3.817,-0.84,-0.18,2.94,-1.28,0.23,-0.96,
3.817,-0.84,-0.18,2.94,-1.25,0.17,-0.94,
3.818,-0.84,-0.18,2.94,-1.21,0.07,-0.91,
3.818,-0.84,-0.18,2.94,-1.19,0.04,-0.90,
3.819,-0.84,-0.18,2.94,-1.17,-0.02,-0.88,
3.819,-0.74,-0.05,2.09,-1.17,-0.02,-0.88,
3.82,-0.74,-0.05,2.09,-1.13,-0.08,-0.86,
3.82,-0.74,-0.05,2.09,-1.10,-0.13,-0.85,
3.82,-0.74,-0.05,2.09,-1.06,-0.21,-0.82,
3.821,-0.74,-0.05,2.09,-1.04,-0.24,-0.81,
3.821,-0.74,-0.05,2.09,-1.01,-0.28,-0.79,
3.822,-0.60,-0.00,1.45,-1.01,-0.28,-0.79,
3.822,-0.60,-0.00,1.45,-0.98,-0.32,-0.78,
3.822,-0.60,-0.00,1.45,-0.95,-0.36,-0.76,
3.823,-0.60,-0.00,1.45,-0.90,-0.40,-0.74,
3.823,-0.60,-0.00,1.45,-0.88,-0.42,-0.73,
3.823,-0.60,-0.00,1.45,-0.85,-0.44,-0.71,
3.823,-0.44,0.03,0.87,-0.85,-0.44,-0.71,
3.824,-0.44,0.03,0.87,-0.81,-0.46,-0.70,
3.824,-0.44,0.03,0.87,-0.78,-0.47,-0.69,
3.828,-0.44,0.03,0.87,-0.73,-0.49,-0.67,
3.828,-0.44,0.03,0.87,-0.71,-0.50,-0.66,
3.829,-0.44,0.03,0.87,-0.68,-0.50,-0.65,
3.832,-0.29,0.01,0.28,-0.68,-0.50,-0.65,
3.833,-0.29,0.01,0.28,-0.65,-0.51,-0.64,
3.833,-0.29,0.01,0.28,-0.61,-0.51,-0.62,
3.837,-0.29,0.01,0.28,-0.56,-0.51,-0.61,
3.838,-0.29,0.01,0.28,-0.54,-0.51,-0.61,
3.838,-0.29,0.01,0.28,-0.50,-0.50,-0.60,
3.842,-0.25,-0.05,-0.32,-0.50,-0.50,-0.60,
3.842,-0.25,-0.05,-0.32,-0.47,-0.49,-0.59,
3.843,-0.25,-0.05,-0.32,-0.43,-0.49,-0.57,
3.846,-0.25,-0.05,-0.32,-0.37,-0.47,-0.56,
3.847,-0.25,-0.05,-0.32,-0.35,-0.47,-0.55,
3.852,-0.25,-0.05,-0.32,-0.32,-0.46,-0.54,
3.852,-0.38,-0.18,-0.98,-0.32,-0.46,-0.54,
3.852,-0.38,-0.18,-0.98,-0.28,-0.45,-0.53,
3.853,-0.38,-0.18,-0.98,-0.24,-0.44,-0.52,
3.857,-0.38,-0.18,-0.98,-0.19,-0.42,-0.50,
3.858,-0.38,-0.18,-0.98,-0.15,-0.41,-0.48,
3.859,-0.38,-0.18,-0.98,-0.14,-0.41,-0.48,
3.861,-0.54,-0.29,-1.76,-0.14,-0.41,-0.48,
3.861,-0.54,-0.29,-1.76,-0.10,-0.40,-0.46,
3.863,-0.54,-0.29,-1.76,-0.07,-0.39,-0.45,
3.865,-0.54,-0.29,-1.76,-0.02,-0.39,-0.43,
3.867,-0.54,-0.29,-1.76,0.01,-0.38,-0.42,
3.87,-0.54,-0.29,-1.76,0.03,-0.38,-0.41,
3.871,-0.69,-0.45,-2.57,0.03,-0.38,-0.41,
3.871,-0.69,-0.45,-2.57,0.06,-0.38,-0.40,
3.874,-0.69,-0.45,-2.57,0.09,-0.38,-0.38,
3.876,-0.69,-0.45,-2.57,0.14,-0.38,-0.36,
3.877,-0.69,-0.45,-2.57,0.16,-0.38,-0.34,
3.878,-0.69,-0.45,-2.57,0.18,-0.38,-0.34,
3.885,-0.91,-0.65,-3.31,0.18,-0.38,-0.34,
3.886,-0.91,-0.65,-3.31,0.20,-0.38,-0.32,
3.886,-0.91,-0.65,-3.31,0.23,-0.39,-0.30,
3.891,-0.91,-0.65,-3.31,0.31,-0.43,-0.25,
3.892,-0.91,-0.65,-3.31,0.31,-0.43,-0.25,
3.892,-0.91,-0.65,-3.31,0.31,-0.43,-0.25,
3.892,-0.91,-0.65,-3.31,0.34,-0.46,-0.22,
3.892,-1.18,-0.74,-4.03,0.34,-0.46,-0.22,
3.893,-1.18,-0.74,-4.03,0.36,-0.48,-0.21,
3.895,-1.18,-0.74,-4.03,0.39,-0.53,-0.19,
3.897,-1.18,-0.74,-4.03,0.41,-0.56,-0.17,
3.899,-1.18,-0.74,-4.03,0.42,-0.58,-0.16,
3.905,-1.31,-0.86,-4.32,0.42,-0.58,-0.16,
3.906,-1.31,-0.86,-4.32,0.44,-0.61,-0.14,
3.906,-1.31,-0.86,-4.32,0.47,-0.65,-0.12,
3.906,-1.31,-0.86,-4.32,0.50,-0.70,-0.09,
3.906,-1.31,-0.86,-4.32,0.53,-0.73,-0.07,
3.92,-1.31,-0.86,-4.32,0.54,-0.74,-0.06,
3.921,-1.48,-1.00,-4.43,0.54,-0.74,-0.06,
3.921,-1.48,-1.00,-4.43,0.56,-0.76,-0.04,
3.922,-1.48,-1.00,-4.43,0.59,-0.79,-0.02,
3.922,-1.48,-1.00,-4.43,0.62,-0.81,0.01,
3.922,-1.48,-1.00,-4.43,0.65,-0.82,0.02,
3.922,-1.48,-1.00,-4.43,0.66,-0.82,0.03,
3.923,-1.49,-1.12,-4.38,0.66,-0.82,0.03,
3.923,-1.49,-1.12,-4.38,0.69,-0.83,0.05,
3.923,-1.49,-1.12,-4.38,0.71,-0.83,0.07,
3.95,-1.49,-1.12,-4.38,0.75,-0.82,0.09,
3.951,-1.49,-1.12,-4.38,0.78,-0.80,0.11,
3.951,-1.49,-1.12,-4.38,0.79,-0.80,0.11,
3.952,-1.53,-1.20,-4.39,0.79,-0.80,0.11,
3.952,-1.53,-1.20,-4.39,0.81,-0.77,0.13,
3.952,-1.53,-1.20,-4.39,0.83,-0.75,0.14,
3.952,-1.53,-1.20,-4.39,0.86,-0.70,0.17,
3.952,-1.53,-1.20,-4.39,0.88,-0.66,0.18,
3.953,-1.53,-1.20,-4.39,0.89,-0.64,0.19,
3.953,-1.49,-1.29,-4.51,0.89,-0.64,0.19,
3.953,-1.49,-1.29,-4.51,0.91,-0.60,0.20,
3.953,-1.49,-1.29,-4.51,0.93,-0.56,0.22,
3.953,-1.49,-1.29,-4.51,0.95,-0.49,0.23,
3.953,-1.49,-1.29,-4.51,0.96,-0.44,0.25,
3.954,-1.49,-1.29,-4.51,0.97,-0.41,0.25,
3.954,-1.44,-1.37,-4.74,0.97,-0.41,0.25,
3.954,-1.44,-1.37,-4.74,0.98,-0.36,0.26,
3.954,-1.44,-1.37,-4.74,0.99,-0.30,0.27,
3.957,-1.44,-1.37,-4.74,1.00,-0.22,0.28,
3.958,-1.44,-1.37,-4.74,1.01,-0.16,0.28,
3.975,-1.44,-1.37,-4.74,1.01,-0.14,0.29,
3.975,-1.16,-1.43,-4.91,1.01,-0.14,0.29,
3.975,-1.16,-1.43,-4.91,1.02,-0.08,0.29,
3.976,-1.16,-1.43,-4.91,1.03,-0.02,0.29,
3.976,-1.16,-1.43,-4.91,1.05,0.07,0.29,
3.976,-1.16,-1.43,-4.91,1.05,0.13,0.29,
3.976,-1.16,-1.43,-4.91,1.06,0.16,0.29,
3.976,-1.05,-1.30,-5.03,1.06,0.16,0.29,
3.976,-1.05,-1.30,-5.03,1.07,0.22,0.29,
3.976,-1.05,-1.30,-5.03,1.07,0.28,0.29,
3.976,-1.05,-1.30,-5.03,1.07,0.35,0.28,
3.977,-1.05,-1.30,-5.03,1.07,0.40,0.27,
3.98,-1.05,-1.30,-5.03,1.07,0.43,0.27,
3.981,-0.93,-1.11,-5.12,1.07,0.43,0.27,
3.981,-0.93,-1.11,-5.12,1.07,0.47,0.26,
3.983,-0.93,-1.11,-5.12,1.07,0.52,0.26,
3.986,-0.93,-1.11,-5.12,1.07,0.59,0.24,
3.986,-0.93,-1.11,-5.12,1.06,0.63,0.23,
3.99,-0.93,-1.11,-5.12,1.06,0.66,0.22,
3.992,-0.82,-0.91,-5.14,1.06,0.66,0.22,
3.992,-0.82,-0.91,-5.14,1.05,0.70,0.21,
3.993,-0.82,-0.91,-5.14,1.05,0.74,0.20,
3.997,-0.82,-0.91,-5.14,1.03,0.80,0.18,
3.998,-0.82,-0.91,-5.14,1.02,0.83,0.16,
3.999,-0.82,-0.91,-5.14,1.01,0.85,0.16,
4.001,-0.76,-0.84,-5.27,1.01,0.85,0.16,
4.001,-0.76,-0.84,-5.27,0.99,0.87,0.14,
4.002,-0.76,-0.84,-5.27,0.97,0.88,0.13,
4.006,-0.76,-0.84,-5.27,0.94,0.89,0.11,
4.008,-0.76,-0.84,-5.27,0.91,0.88,0.09,
4.008,-0.76,-0.84,-5.27,0.90,0.87,0.08,
4.011,-0.87,-0.54,-5.42,0.90,0.87,0.08,
4.012,-0.87,-0.54,-5.42,0.87,0.85,0.06,
4.013,-0.87,-0.54,-5.42,0.84,0.82,0.04,
4.016,-0.87,-0.54,-5.42,0.80,0.77,0.01,
4.017,-0.87,-0.54,-5.42,0.78,0.72,-0.01,
4.023,-0.87,-0.54,-5.42,0.77,0.70,-0.02,
4.024,-0.97,-0.21,-4.92,0.77,0.70,-0.02,
4.024,-0.97,-0.21,-4.92,0.74,0.65,-0.05,
4.024,-0.97,-0.21,-4.92,0.72,0.60,-0.07,
4.026,-0.97,-0.21,-4.92,0.70,0.52,-0.09,
4.026,-0.97,-0.21,-4.92,0.69,0.46,-0.10,
4.028,-0.97,-0.21,-4.92,0.68,0.43,-0.11,
4.031,-1.42,0.03,-3.75,0.68,0.43,-0.11,
4.031,-1.42,0.03,-3.75,0.68,0.37,-0.12,
4.032,-1.42,0.03,-3.75,0.67,0.32,-0.13,
4.035,-1.42,0.03,-3.75,0.66,0.23,-0.14,
4.036,-1.42,0.03,-3.75,0.66,0.17,-0.14,
4.038,-1.42,0.03,-3.75,0.66,0.14,-0.15,
4.044,-1.59,0.15,-2.63,0.66,0.14,-0.15,
4.045,-1.59,0.15,-2.63,0.64,0.04,-0.16,
4.045,-1.59,0.15,-2.63,0.63,0.01,-0.16,
4.045,-1.59,0.15,-2.63,0.62,-0.09,-0.18,
4.049,-1.59,0.15,-2.63,0.60,-0.16,-0.20,
4.049,-1.59,0.15,-2.63,0.59,-0.19,-0.21,
4.051,-1.40,0.31,-1.92,0.59,-0.19,-0.21,
4.051,-1.40,0.31,-1.92,0.57,-0.27,-0.23,
4.052,-1.40,0.31,-1.92,0.55,-0.34,-0.25,
4.056,-1.40,0.31,-1.92,0.51,-0.44,-0.29,
4.057,-1.40,0.31,-1.92,0.48,-0.51,-0.33,
4.059,-1.40,0.31,-1.92,0.46,-0.55,-0.34,
4.061,-0.89,0.53,-1.11,0.46,-0.55,-0.34,
4.061,-0.89,0.53,-1.11,0.44,-0.61,-0.37,
4.063,-0.89,0.53,-1.11,0.41,-0.67,-0.40,
4.065,-0.89,0.53,-1.11,0.36,-0.76,-0.45,
4.066,-0.89,0.53,-1.11,0.33,-0.80,-0.49,
4.068,-0.89,0.53,-1.11,0.32,-0.82,-0.50,
4.071,-0.60,0.71,0.21,0.32,-0.82,-0.50,
4.071,-0.60,0.71,0.21,0.26,-0.89,-0.57,
4.072,-0.60,0.71,0.21,0.24,-0.90,-0.58,
4.075,-0.60,0.71,0.21,0.22,-0.91,-0.61,
4.077,-0.60,0.71,0.21,0.19,-0.92,-0.64,
4.079,-0.60,0.71,0.21,0.17,-0.93,-0.68,
4.08,-0.28,0.76,1.99,0.17,-0.93,-0.68,
4.081,-0.28,0.76,1.99,0.15,-0.93,-0.71,
4.082,-0.28,0.76,1.99,0.13,-0.93,-0.74,
4.085,-0.28,0.76,1.99,0.11,-0.93,-0.80,
4.086,-0.28,0.76,1.99,0.10,-0.93,-0.82,
4.089,-0.28,0.76,1.99,0.09,-0.93,-0.86,
4.092,0.25,0.61,4.02,0.09,-0.93,-0.86,
4.092,0.25,0.61,4.02,0.08,-0.93,-0.89,
4.092,0.25,0.61,4.02,0.08,-0.93,-0.93,
4.095,0.25,0.61,4.02,0.07,-0.93,-0.96,
4.096,0.25,0.61,4.02,0.06,-0.93,-1.00,
4.098,0.25,0.61,4.02,0.05,-0.92,-1.03,
4.1,0.27,0.63,5.45,0.05,-0.92,-1.03,
4.101,0.27,0.63,5.45,0.04,-0.91,-1.05,
4.102,0.27,0.63,5.45,0.03,-0.90,-1.08,
4.105,0.27,0.63,5.45,0.02,-0.88,-1.10,
4.106,0.27,0.63,5.45,-0.01,-0.84,-1.13,
4.109,0.27,0.63,5.45,-0.03,-0.80,-1.15,
4.111,0.21,0.78,6.03,-0.03,-0.80,-1.15,
4.112,0.21,0.78,6.03,-0.06,-0.75,-1.17,
4.113,0.21,0.78,6.03,-0.09,-0.69,-1.19,
4.115,0.21,0.78,6.03,-0.14,-0.62,-1.22,
4.116,0.21,0.78,6.03,-0.18,-0.55,-1.24,
4.118,0.21,0.78,6.03,-0.23,-0.46,-1.26,
4.12,0.31,0.92,5.91,-0.23,-0.46,-1.26,
4.121,0.31,0.92,5.91,-0.28,-0.38,-1.28,
4.122,0.31,0.92,5.91,-0.34,-0.29,-1.30,
4.147,0.31,0.92,5.91,-0.40,-0.20,-1.32,
4.147,0.31,0.92,5.91,-0.47,-0.11,-1.34,
4.147,0.31,0.92,5.91,-0.53,-0.02,-1.36,
4.148,0.25,1.25,5.60,-0.53,-0.02,-1.36,
4.148,0.25,1.25,5.60,-0.61,0.06,-1.38,
4.148,0.25,1.25,5.60,-0.68,0.14,-1.40,
4.149,0.25,1.25,5.60,-0.75,0.22,-1.42,
4.149,0.25,1.25,5.60,-0.83,0.29,-1.44,
4.149,0.25,1.25,5.60,-0.90,0.36,-1.46,
4.149,0.41,1.50,5.39,-0.90,0.36,-1.46,
4.15,0.41,1.50,5.39,-0.98,0.42,-1.49,
4.15,0.41,1.50,5.39,-1.05,0.48,-1.51,
4.15,0.41,1.50,5.39,-1.12,0.53,-1.54,
4.15,0.41,1.50,5.39,-1.19,0.57,-1.56,
4.151,0.41,1.50,5.39,-1.26,0.60,-1.59,
4.151,0.66,1.43,5.67,-1.26,0.60,-1.59,
4.151,0.66,1.43,5.67,-1.32,0.63,-1.61,
4.158,0.66,1.43,5.67,-1.37,0.65,-1.64,
4.159,0.66,1.43,5.67,-1.45,0.67,-1.67,
4.159,0.66,1.43,5.67,-1.47,0.67,-1.68,
4.16,0.66,1.43,5.67,-1.51,0.68,-1.70,
4.161,0.71,1.13,6.46,-1.51,0.68,-1.70,
4.161,0.71,1.13,6.46,-1.54,0.67,-1.71,
4.163,0.71,1.13,6.46,-1.57,0.67,-1.73,
4.165,0.71,1.13,6.46,-1.60,0.66,-1.74,
4.166,0.71,1.13,6.46,-1.61,0.65,-1.74,
4.168,0.71,1.13,6.46,-1.62,0.64,-1.74,
4.171,0.30,0.56,7.37,-1.62,0.64,-1.74,
4.171,0.30,0.56,7.37,-1.63,0.64,-1.73,
4.173,0.30,0.56,7.37,-1.64,0.63,-1.71,
4.179,0.30,0.56,7.37,-1.64,0.63,-1.69,
4.179,0.30,0.56,7.37,-1.64,0.63,-1.66,
4.18,0.30,0.56,7.37,-1.63,0.64,-1.62,
4.181,-0.61,-0.16,7.98,-1.63,0.64,-1.62,
4.181,-0.61,-0.16,7.98,-1.62,0.64,-1.57,
4.183,-0.61,-0.16,7.98,-1.61,0.65,-1.52,
4.186,-0.61,-0.16,7.98,-1.59,0.67,-1.46,
4.188,-0.61,-0.16,7.98,-1.57,0.69,-1.39,
4.188,-0.61,-0.16,7.98,-1.54,0.71,-1.31,
4.2,-1.77,-0.78,8.32,-1.54,0.71,-1.31,
4.201,-1.77,-0.78,8.32,-1.52,0.73,-1.23,
4.201,-1.77,-0.78,8.32,-1.48,0.75,-1.14,
4.201,-1.77,-0.78,8.32,-1.44,0.77,-1.05,
4.201,-1.77,-0.78,8.32,-1.40,0.79,-0.96,
4.202,-1.77,-0.78,8.32,-1.36,0.80,-0.86,
4.202,-2.38,-0.95,8.24,-1.36,0.80,-0.86,
4.202,-2.38,-0.95,8.24,-1.31,0.82,-0.76,
4.202,-2.38,-0.95,8.24,-1.26,0.82,-0.67,
4.226,-2.38,-0.95,8.24,-1.20,0.82,-0.57,
4.227,-2.38,-0.95,8.24,-1.15,0.82,-0.48,
4.227,-2.38,-0.95,8.24,-1.09,0.82,-0.38,
4.227,-2.33,-0.86,7.71,-1.09,0.82,-0.38,
4.227,-2.33,-0.86,7.71,-1.02,0.81,-0.29,
4.227,-2.33,-0.86,7.71,-0.96,0.79,-0.20,
4.228,-2.33,-0.86,7.71,-0.89,0.78,-0.11,
4.228,-2.33,-0.86,7.71,-0.83,0.75,-0.03,
4.228,-2.33,-0.86,7.71,-0.75,0.73,0.05,
4.228,-1.70,-0.54,6.70,-0.75,0.73,0.05,
4.229,-1.70,-0.54,6.70,-0.68,0.70,0.13,
4.229,-1.70,-0.54,6.70,-0.61,0.66,0.21,
4.229,-1.70,-0.54,6.70,-0.51,0.60,0.32,
4.229,-1.70,-0.54,6.70,-0.48,0.58,0.35,
4.23,-1.70,-0.54,6.70,-0.41,0.54,0.42,
4.231,-0.87,-0.23,5.23,-0.41,0.54,0.42,
4.231,-0.87,-0.23,5.23,-0.35,0.49,0.48,
4.232,-0.87,-0.23,5.23,-0.29,0.44,0.54,
4.236,-0.87,-0.23,5.23,-0.22,0.39,0.59,
4.237,-0.87,-0.23,5.23,-0.17,0.35,0.65,
4.239,-0.87,-0.23,5.23,-0.11,0.29,0.70,
4.244,-0.02,0.09,3.47,-0.11,0.29,0.70,
4.245,-0.02,0.09,3.47,-0.06,0.24,0.74,
4.246,-0.02,0.09,3.47,-0.01,0.19,0.79,
4.247,-0.02,0.09,3.47,0.04,0.15,0.83,
4.249,-0.02,0.09,3.47,0.08,0.10,0.87,
4.25,-0.02,0.09,3.47,0.12,0.05,0.90,
4.251,0.73,0.33,1.54,0.12,0.05,0.90,
4.252,0.73,0.33,1.54,0.15,0.01,0.93,
4.253,0.73,0.33,1.54,0.18,-0.04,0.96,
4.256,0.73,0.33,1.54,0.20,-0.08,0.99,
4.257,0.73,0.33,1.54,0.22,-0.13,1.01,
4.258,0.73,0.33,1.54,0.24,-0.17,1.02,
4.262,1.40,0.50,-0.41,0.24,-0.17,1.02,
4.262,1.40,0.50,-0.41,0.25,-0.21,1.04,
4.262,1.40,0.50,-0.41,0.25,-0.25,1.05,
4.267,1.40,0.50,-0.41,0.25,-0.29,1.05,
4.267,1.40,0.50,-0.41,0.25,-0.32,1.05,
4.269,1.40,0.50,-0.41,0.24,-0.35,1.06,
4.271,2.05,0.69,-2.20,0.24,-0.35,1.06,
4.271,2.05,0.69,-2.20,0.22,-0.38,1.05,
4.272,2.05,0.69,-2.20,0.20,-0.40,1.04,
4.275,2.05,0.69,-2.20,0.17,-0.42,1.04,
4.277,2.05,0.69,-2.20,0.14,-0.44,1.03,
4.278,2.05,0.69,-2.20,0.10,-0.45,1.01,
4.28,2.40,0.79,-3.77,0.10,-0.45,1.01,
4.28,2.40,0.79,-3.77,0.06,-0.46,0.99,
4.282,2.40,0.79,-3.77,0.02,-0.47,0.98,
4.285,2.40,0.79,-3.77,-0.03,-0.47,0.95,
4.286,2.40,0.79,-3.77,-0.08,-0.47,0.93,
4.288,2.40,0.79,-3.77,-0.14,-0.45,0.91,
4.291,2.79,0.83,-4.89,-0.14,-0.45,0.91,
4.303,2.79,0.83,-4.89,-0.19,-0.44,0.88,
4.303,2.79,0.83,-4.89,-0.24,-0.42,0.86,
4.303,2.79,0.83,-4.89,-0.30,-0.39,0.83,
4.303,2.79,0.83,-4.89,-0.35,-0.36,0.80,
4.303,2.79,0.83,-4.89,-0.40,-0.32,0.77,
4.303,2.73,0.59,-5.32,-0.40,-0.32,0.77,
4.303,2.73,0.59,-5.32,-0.46,-0.29,0.74,
4.304,2.73,0.59,-5.32,-0.50,-0.24,0.71,
4.305,2.73,0.59,-5.32,-0.57,-0.18,0.67,
4.31,2.73,0.59,-5.32,-0.59,-0.16,0.65,
4.311,2.73,0.59,-5.32,-0.63,-0.11,0.63,
4.313,2.62,0.47,-5.14,-0.63,-0.11,0.63,
4.317,2.62,0.47,-5.14,-0.66,-0.07,0.60,
4.32,2.62,0.47,-5.14,-0.69,-0.02,0.57,
4.32,2.62,0.47,-5.14,-0.73,0.05,0.53,
4.321,2.62,0.47,-5.14,-0.74,0.07,0.52,
4.321,2.62,0.47,-5.14,-0.76,0.11,0.50,
4.326,2.12,0.30,-4.66,-0.76,0.11,0.50,
4.326,2.12,0.30,-4.66,-0.78,0.14,0.47,
4.326,2.12,0.30,-4.66,-0.79,0.18,0.45,
4.327,2.12,0.30,-4.66,-0.80,0.23,0.42,
4.327,2.12,0.30,-4.66,-0.80,0.24,0.41,
4.328,2.12,0.30,-4.66,-0.80,0.27,0.39,
4.33,1.70,0.21,-4.26,-0.80,0.27,0.39,
4.331,1.70,0.21,-4.26,-0.80,0.30,0.37,
4.332,1.70,0.21,-4.26,-0.80,0.32,0.35,
4.335,1.70,0.21,-4.26,-0.79,0.36,0.32,
4.336,1.70,0.21,-4.26,-0.79,0.37,0.32,
4.338,1.70,0.21,-4.26,-0.78,0.38,0.30,
4.341,1.21,0.04,-4.02,-0.78,0.38,0.30,
4.341,1.21,0.04,-4.02,-0.77,0.40,0.28,
4.342,1.21,0.04,-4.02,-0.76,0.41,0.27,
4.345,1.21,0.04,-4.02,-0.74,0.42,0.25,
4.346,1.21,0.04,-4.02,-0.73,0.42,0.24,
4.348,1.21,0.04,-4.02,-0.72,0.41,0.23,
4.351,0.91,-0.08,-3.97,-0.72,0.41,0.23,
4.351,0.91,-0.08,-3.97,-0.71,0.41,0.21,
4.352,0.91,-0.08,-3.97,-0.69,0.40,0.20,
4.355,0.91,-0.08,-3.97,-0.67,0.39,0.18,
4.356,0.91,-0.08,-3.97,-0.66,0.38,0.18,
4.358,0.91,-0.08,-3.97,-0.64,0.37,0.17,
4.361,0.51,-0.26,-3.94,-0.64,0.37,0.17,
4.361,0.51,-0.26,-3.94,-0.62,0.35,0.16,
4.363,0.51,-0.26,-3.94,-0.61,0.34,0.16,
4.365,0.51,-0.26,-3.94,-0.58,0.31,0.15,
4.366,0.51,-0.26,-3.94,-0.57,0.31,0.14,
4.368,0.51,-0.26,-3.94,-0.54,0.29,0.14,
4.371,0.10,-0.40,-3.88,-0.54,0.29,0.14,
4.371,0.10,-0.40,-3.88,-0.52,0.28,0.14,
4.373,0.10,-0.40,-3.88,-0.50,0.26,0.14,
4.376,0.10,-0.40,-3.88,-0.46,0.24,0.15,
4.377,0.10,-0.40,-3.88,-0.45,0.24,0.15,
4.379,0.10,-0.40,-3.88,-0.42,0.22,0.15,
4.38,-0.32,-0.61,-3.71,-0.42,0.22,0.15,
4.381,-0.32,-0.61,-3.71,-0.39,0.21,0.16,
4.382,-0.32,-0.61,-3.71,-0.37,0.21,0.16,
4.385,-0.32,-0.61,-3.71,-0.32,0.19,0.18,
4.386,-0.32,-0.61,-3.71,-0.31,0.19,0.18,
4.388,-0.32,-0.61,-3.71,-0.28,0.19,0.19,
4.391,-0.63,-0.79,-3.63,-0.28,0.19,0.19,
4.391,-0.63,-0.79,-3.63,-0.26,0.19,0.20,
4.392,-0.63,-0.79,-3.63,-0.23,0.18,0.22,
4.396,-0.63,-0.79,-3.63,-0.19,0.18,0.24,
4.396,-0.63,-0.79,-3.63,-0.18,0.18,0.24,
4.398,-0.63,-0.79,-3.63,-0.15,0.18,0.26,
4.4,-0.87,-0.88,-3.63,-0.15,0.18,0.26,
4.401,-0.87,-0.88,-3.63,-0.12,0.18,0.27,
4.402,-0.87,-0.88,-3.63,-0.10,0.18,0.28,
4.406,-0.87,-0.88,-3.63,-0.06,0.18,0.30,
4.407,-0.87,-0.88,-3.63,-0.05,0.18,0.31,
4.408,-0.87,-0.88,-3.63,-0.02,0.18,0.33,
4.41,-1.04,-0.88,-3.64,-0.02,0.18,0.33,
4.411,-1.04,-0.88,-3.64,0.00,0.18,0.34,
4.412,-1.04,-0.88,-3.64,0.03,0.19,0.35,
4.415,-1.04,-0.88,-3.64,0.07,0.19,0.37,
4.416,-1.04,-0.88,-3.64,0.08,0.19,0.38,
4.418,-1.04,-0.88,-3.64,0.11,0.19,0.39,
4.421,-1.07,-0.90,-3.61,0.11,0.19,0.39,
4.423,-1.07,-0.90,-3.61,0.14,0.20,0.41,
4.423,-1.07,-0.90,-3.61,0.16,0.20,0.42,
4.425,-1.07,-0.90,-3.61,0.20,0.21,0.44,
4.427,-1.07,-0.90,-3.61,0.21,0.21,0.44,
4.428,-1.07,-0.90,-3.61,0.24,0.22,0.45,
4.431,-1.04,-0.90,-3.48,0.24,0.22,0.45,
4.431,-1.04,-0.90,-3.48,0.26,0.23,0.46,
4.432,-1.04,-0.90,-3.48,0.29,0.24,0.47,
4.435,-1.04,-0.90,-3.48,0.33,0.25,0.48,
4.436,-1.04,-0.90,-3.48,0.35,0.25,0.48,
4.446,-1.04,-0.90,-3.48,0.38,0.26,0.49,
4.447,-0.90,-0.92,-3.29,0.38,0.26,0.49,
4.447,-0.90,-0.92,-3.29,0.40,0.27,0.50,
4.447,-0.90,-0.92,-3.29,0.43,0.28,0.50,
4.448,-0.90,-0.92,-3.29,0.48,0.29,0.51,
4.448,-0.90,-0.92,-3.29,0.49,0.29,0.51,
4.451,-0.90,-0.92,-3.29,0.52,0.29,0.52,
4.453,-0.91,-0.95,-3.22,0.52,0.29,0.52,
4.454,-0.91,-0.95,-3.22,0.54,0.29,0.53,
4.455,-0.91,-0.95,-3.22,0.57,0.29,0.54,
4.455,-0.91,-0.95,-3.22,0.60,0.29,0.55,
4.462,-0.91,-0.95,-3.22,0.61,0.29,0.55,
4.487,-0.91,-0.95,-3.22,0.63,0.28,0.57,
4.488,-0.94,-0.98,-3.29,0.63,0.28,0.57,
4.488,-0.94,-0.98,-3.29,0.65,0.27,0.57,
4.488,-0.94,-0.98,-3.29,0.67,0.26,0.58,
4.488,-0.94,-0.98,-3.29,0.69,0.25,0.59,
4.489,-0.94,-0.98,-3.29,0.70,0.24,0.60,
4.489,-0.94,-0.98,-3.29,0.72,0.23,0.61,
4.489,-1.02,-1.02,-3.28,0.72,0.23,0.61,
4.489,-1.02,-1.02,-3.28,0.73,0.22,0.62,
4.49,-1.02,-1.02,-3.28,0.75,0.21,0.62,
4.49,-1.02,-1.02,-3.28,0.78,0.20,0.64,
4.49,-1.02,-1.02,-3.28,0.79,0.20,0.64,
4.491,-1.02,-1.02,-3.28,0.81,0.19,0.65,
4.491,-1.07,-1.10,-3.00,0.81,0.19,0.65,
4.491,-1.07,-1.10,-3.00,0.83,0.19,0.66,
4.491,-1.07,-1.10,-3.00,0.85,0.20,0.68,
4.492,-1.07,-1.10,-3.00,0.88,0.21,0.70,
4.492,-1.07,-1.10,-3.00,0.89,0.21,0.71,
4.492,-1.07,-1.10,-3.00,0.91,0.22,0.73,
4.497,-1.41,-1.24,-2.60,0.91,0.22,0.73,
4.498,-1.41,-1.24,-2.60,0.92,0.23,0.76,
4.498,-1.41,-1.24,-2.60,0.95,0.24,0.78,
4.499,-1.41,-1.24,-2.60,0.97,0.26,0.82,
4.499,-1.41,-1.24,-2.60,0.98,0.26,0.84,
4.499,-1.41,-1.24,-2.60,0.99,0.27,0.87,
4.501,-1.56,-1.35,-2.41,0.99,0.27,0.87,
4.501,-1.56,-1.35,-2.41,1.00,0.27,0.90,
4.502,-1.56,-1.35,-2.41,1.01,0.28,0.92,
4.512,-1.56,-1.35,-2.41,1.01,0.28,0.96,
4.513,-1.56,-1.35,-2.41,1.01,0.28,0.98,
4.513,-1.56,-1.35,-2.41,1.01,0.27,1.01,
4.513,-1.56,-1.38,-2.41,1.01,0.27,1.01,
4.514,-1.56,-1.38,-2.41,1.01,0.27,1.03,
4.514,-1.56,-1.38,-2.41,1.01,0.26,1.05,
4.516,-1.56,-1.38,-2.41,1.00,0.25,1.09,
4.517,-1.56,-1.38,-2.41,0.99,0.25,1.09,
4.518,-1.56,-1.38,-2.41,0.99,0.24,1.11,
4.521,-1.08,-1.34,-2.31,0.99,0.24,1.11,
4.521,-1.08,-1.34,-2.31,0.98,0.24,1.13,
4.523,-1.08,-1.34,-2.31,0.96,0.23,1.15,
4.526,-1.08,-1.34,-2.31,0.95,0.22,1.16,
4.527,-1.08,-1.34,-2.31,0.94,0.22,1.17,
4.528,-1.08,-1.34,-2.31,0.93,0.21,1.17,
4.531,-0.47,-1.19,-1.94,0.93,0.21,1.17,
4.531,-0.47,-1.19,-1.94,0.91,0.20,1.18,
4.533,-0.47,-1.19,-1.94,0.90,0.18,1.18,
4.535,-0.47,-1.19,-1.94,0.88,0.16,1.18,
4.537,-0.47,-1.19,-1.94,0.88,0.16,1.17,
4.54,-0.47,-1.19,-1.94,0.86,0.14,1.16,
4.542,0.18,-0.94,-1.31,0.86,0.14,1.16,
4.542,0.18,-0.94,-1.31,0.85,0.13,1.15,
4.543,0.18,-0.94,-1.31,0.85,0.11,1.14,
4.546,0.18,-0.94,-1.31,0.84,0.09,1.12,
4.547,0.18,-0.94,-1.31,0.84,0.09,1.11,
4.549,0.18,-0.94,-1.31,0.83,0.07,1.10,
4.55,0.52,-0.64,-0.35,0.83,0.07,1.10,
4.551,0.52,-0.64,-0.35,0.83,0.06,1.09,
4.552,0.52,-0.64,-0.35,0.82,0.05,1.07,
4.556,0.52,-0.64,-0.35,0.82,0.04,1.06,
4.557,0.52,-0.64,-0.35,0.81,0.03,1.05,
4.559,0.52,-0.64,-0.35,0.81,0.02,1.04,
4.561,0.45,-0.29,0.48,0.81,0.02,1.04,
4.561,0.45,-0.29,0.48,0.80,0.01,1.03,
4.563,0.45,-0.29,0.48,0.79,-0.01,1.02,
4.565,0.45,-0.29,0.48,0.77,-0.05,1.01,
4.567,0.45,-0.29,0.48,0.76,-0.06,1.01,
4.568,0.45,-0.29,0.48,0.74,-0.09,1.00,
4.571,0.15,0.09,1.13,0.74,-0.09,1.00,
4.571,0.15,0.09,1.13,0.72,-0.14,1.00,
4.573,0.15,0.09,1.13,0.69,-0.18,0.99,
4.576,0.15,0.09,1.13,0.64,-0.26,0.99,
4.576,0.15,0.09,1.13,0.63,-0.29,0.99,
4.579,0.15,0.09,1.13,0.59,-0.35,0.98,
4.581,-0.00,0.35,1.79,0.59,-0.35,0.98,
4.581,-0.00,0.35,1.79,0.55,-0.42,0.97,
4.583,-0.00,0.35,1.79,0.51,-0.49,0.97,
4.585,-0.00,0.35,1.79,0.44,-0.61,0.96,
4.587,-0.00,0.35,1.79,0.42,-0.65,0.96,
4.592,-0.00,0.35,1.79,0.37,-0.73,0.95,
4.593,-0.02,0.52,2.86,0.37,-0.73,0.95,
4.593,-0.02,0.52,2.86,0.32,-0.81,0.95,
4.593,-0.02,0.52,2.86,0.28,-0.89,0.94,
4.599,-0.02,0.52,2.86,0.22,-0.99,0.92,
4.599,-0.02,0.52,2.86,0.21,-1.02,0.92,
4.599,-0.02,0.52,2.86,0.18,-1.08,0.91,
4.603,0.21,0.71,4.77,0.18,-1.08,0.91,
4.603,0.21,0.71,4.77,0.15,-1.12,0.90,
4.604,0.21,0.71,4.77,0.14,-1.15,0.89,
4.612,0.21,0.71,4.77,0.12,-1.18,0.87,
4.612,0.21,0.71,4.77,0.11,-1.19,0.87,
4.612,0.21,0.71,4.77,0.11,-1.19,0.86,
4.612,0.41,0.94,7.10,0.11,-1.19,0.86,
4.612,0.41,0.94,7.10,0.11,-1.19,0.85,
4.612,0.41,0.94,7.10,0.12,-1.18,0.84,
4.615,0.41,0.94,7.10,0.13,-1.15,0.82,
4.617,0.41,0.94,7.10,0.13,-1.14,0.81,
4.618,0.41,0.94,7.10,0.14,-1.11,0.79,
4.621,0.82,1.10,8.92,0.14,-1.11,0.79,
4.621,0.82,1.10,8.92,0.14,-1.07,0.77,
4.623,0.82,1.10,8.92,0.15,-1.03,0.75,
4.635,0.82,1.10,8.92,0.16,-0.96,0.71,
4.635,0.82,1.10,8.92,0.16,-0.93,0.70,
4.635,0.82,1.10,8.92,0.16,-0.87,0.67,
4.635,1.53,1.11,9.74,0.16,-0.87,0.67,
4.635,1.53,1.11,9.74,0.15,-0.82,0.64,
4.635,1.53,1.11,9.74,0.15,-0.76,0.60,
4.636,1.53,1.11,9.74,0.14,-0.66,0.55,
4.637,1.53,1.11,9.74,0.13,-0.63,0.53,
4.638,1.53,1.11,9.74,0.11,-0.57,0.48,
4.641,2.24,1.02,9.50,0.11,-0.57,0.48,
4.641,2.24,1.02,9.50,0.10,-0.52,0.44,
4.645,2.24,1.02,9.50,0.08,-0.46,0.40,
4.645,2.24,1.02,9.50,0.04,-0.38,0.33,
4.646,2.24,1.02,9.50,0.03,-0.35,0.31,
4.648,2.24,1.02,9.50,-0.01,-0.30,0.26,
4.65,2.59,0.92,8.57,-0.01,-0.30,0.26,
4.65,2.59,0.92,8.57,-0.03,-0.26,0.22,
4.652,2.59,0.92,8.57,-0.07,-0.21,0.17,
4.655,2.59,0.92,8.57,-0.12,-0.16,0.10,
4.657,2.59,0.92,8.57,-0.14,-0.14,0.08,
4.659,2.59,0.92,8.57,-0.18,-0.11,0.03,
4.66,2.64,0.87,7.36,-0.18,-0.11,0.03,
4.661,2.64,0.87,7.36,-0.22,-0.08,-0.02,
4.662,2.64,0.87,7.36,-0.26,-0.05,-0.06,
4.665,2.64,0.87,7.36,-0.32,-0.01,-0.12,
4.666,2.64,0.87,7.36,-0.34,-0.00,-0.14,
4.668,2.64,0.87,7.36,-0.37,0.02,-0.18,
4.67,2.44,0.63,6.34,-0.37,0.02,-0.18,
4.671,2.44,0.63,6.34,-0.41,0.05,-0.22,
4.672,2.44,0.63,6.34,-0.44,0.07,-0.25,
4.675,2.44,0.63,6.34,-0.48,0.11,-0.29,
4.676,2.44,0.63,6.34,-0.50,0.12,-0.31,
4.679,2.44,0.63,6.34,-0.52,0.15,-0.33,
4.681,1.89,0.42,5.65,-0.52,0.15,-0.33,
4.681,1.89,0.42,5.65,-0.54,0.18,-0.35,
4.682,1.89,0.42,5.65,-0.56,0.20,-0.37,
4.685,1.89,0.42,5.65,-0.59,0.24,-0.39,
4.686,1.89,0.42,5.65,-0.59,0.26,-0.40,
4.688,1.89,0.42,5.65,-0.61,0.28,-0.41,
4.69,1.26,0.08,4.98,-0.61,0.28,-0.41,
4.691,1.26,0.08,4.98,-0.62,0.31,-0.42,
4.692,1.26,0.08,4.98,-0.63,0.34,-0.43,
4.695,1.26,0.08,4.98,-0.65,0.38,-0.44,
4.696,1.26,0.08,4.98,-0.65,0.39,-0.44,
4.698,1.26,0.08,4.98,-0.66,0.42,-0.44,
4.7,0.71,-0.12,4.15,-0.66,0.42,-0.44,
4.701,0.71,-0.12,4.15,-0.66,0.45,-0.45,
4.702,0.71,-0.12,4.15,-0.67,0.48,-0.45,
4.705,0.71,-0.12,4.15,-0.67,0.52,-0.45,
4.707,0.71,-0.12,4.15,-0.67,0.53,-0.45,
4.708,0.71,-0.12,4.15,-0.67,0.55,-0.45,
4.711,0.36,-0.29,3.14,-0.67,0.55,-0.45,
4.711,0.36,-0.29,3.14,-0.67,0.57,-0.45,
4.713,0.36,-0.29,3.14,-0.67,0.59,-0.46,
4.715,0.36,-0.29,3.14,-0.67,0.61,-0.45,
4.716,0.36,-0.29,3.14,-0.67,0.62,-0.45,
4.718,0.36,-0.29,3.14,-0.67,0.64,-0.46,
4.733,0.08,-0.33,1.94,-0.67,0.64,-0.46,
4.734,0.08,-0.33,1.94,-0.68,0.64,-0.45,
4.734,0.08,-0.33,1.94,-0.68,0.65,-0.46,
4.734,0.08,-0.33,1.94,-0.68,0.66,-0.45,
4.735,0.08,-0.33,1.94,-0.68,0.66,-0.45,
4.735,0.08,-0.33,1.94,-0.69,0.66,-0.45,
4.735,-0.13,-0.35,0.66,-0.69,0.66,-0.45,
4.736,-0.13,-0.35,0.66,-0.69,0.66,-0.45,
4.736,-0.13,-0.35,0.66,-0.69,0.66,-0.45,
4.736,-0.13,-0.35,0.66,-0.70,0.66,-0.45,
4.737,-0.13,-0.35,0.66,-0.70,0.66,-0.45,
4.754,-0.13,-0.35,0.66,-0.70,0.65,-0.44,
4.754,-0.38,-0.31,-0.54,-0.70,0.65,-0.44,
4.754,-0.38,-0.31,-0.54,-0.71,0.64,-0.44,
4.754,-0.38,-0.31,-0.54,-0.72,0.63,-0.44,
4.755,-0.38,-0.31,-0.54,-0.73,0.62,-0.43,
4.755,-0.38,-0.31,-0.54,-0.73,0.61,-0.43,
4.755,-0.38,-0.31,-0.54,-0.73,0.59,-0.42,
4.755,-0.59,-0.29,-1.55,-0.73,0.59,-0.42,
4.756,-0.59,-0.29,-1.55,-0.74,0.58,-0.41,
4.756,-0.59,-0.29,-1.55,-0.74,0.56,-0.41,
4.756,-0.59,-0.29,-1.55,-0.75,0.53,-0.40,
4.759,-0.59,-0.29,-1.55,-0.75,0.52,-0.39,
4.759,-0.59,-0.29,-1.55,-0.75,0.49,-0.39,
4.761,-0.70,-0.32,-2.28,-0.75,0.49,-0.39,
4.761,-0.70,-0.32,-2.28,-0.75,0.47,-0.38,
4.763,-0.70,-0.32,-2.28,-0.75,0.44,-0.37,
4.765,-0.70,-0.32,-2.28,-0.75,0.41,-0.35,
4.767,-0.70,-0.32,-2.28,-0.75,0.39,-0.35,
4.769,-0.70,-0.32,-2.28,-0.74,0.36,-0.34,
4.772,-0.81,-0.30,-2.78,-0.74,0.36,-0.34,
4.772,-0.81,-0.30,-2.78,-0.73,0.32,-0.32,
4.773,-0.81,-0.30,-2.78,-0.73,0.31,-0.32,
4.775,-0.81,-0.30,-2.78,-0.71,0.26,-0.31,
4.777,-0.81,-0.30,-2.78,-0.71,0.25,-0.30,
4.779,-0.81,-0.30,-2.78,-0.69,0.22,-0.29,
4.781,-0.81,-0.36,-3.06,-0.69,0.22,-0.29,
4.781,-0.81,-0.36,-3.06,-0.68,0.19,-0.28,
4.783,-0.81,-0.36,-3.06,-0.66,0.17,-0.27,
4.785,-0.81,-0.36,-3.06,-0.64,0.13,-0.25,
4.787,-0.81,-0.36,-3.06,-0.63,0.12,-0.24,
4.789,-0.81,-0.36,-3.06,-0.61,0.09,-0.23,
4.792,-0.88,-0.39,-3.29,-0.61,0.09,-0.23,
4.819,-0.88,-0.39,-3.29,-0.59,0.06,-0.22,
4.819,-0.88,-0.39,-3.29,-0.57,0.04,-0.21,
4.819,-0.88,-0.39,-3.29,-0.54,0.00,-0.19,
4.82,-0.88,-0.39,-3.29,-0.53,-0.01,-0.18,
4.82,-0.88,-0.39,-3.29,-0.51,-0.03,-0.16,
4.82,-0.90,-0.50,-3.57,-0.51,-0.03,-0.16,
4.82,-0.90,-0.50,-3.57,-0.49,-0.05,-0.15,
4.821,-0.90,-0.50,-3.57,-0.47,-0.07,-0.13,
4.821,-0.90,-0.50,-3.57,-0.44,-0.10,-0.10,
4.821,-0.90,-0.50,-3.57,-0.43,-0.11,-0.09,
4.822,-0.90,-0.50,-3.57,-0.41,-0.12,-0.08,
4.822,-1.01,-0.59,-3.84,-0.41,-0.12,-0.08,
4.822,-1.01,-0.59,-3.84,-0.39,-0.14,-0.06,
4.822,-1.01,-0.59,-3.84,-0.37,-0.15,-0.04,
4.823,-1.01,-0.59,-3.84,-0.34,-0.18,-0.01,
4.823,-1.01,-0.59,-3.84,-0.33,-0.19,-0.00,
4.823,-1.01,-0.59,-3.84,-0.31,-0.21,0.02,
4.823,-1.03,-0.66,-4.03,-0.31,-0.21,0.02,
4.824,-1.03,-0.66,-4.03,-0.29,-0.23,0.04,
4.824,-1.03,-0.66,-4.03,-0.27,-0.25,0.05,
4.83,-1.03,-0.66,-4.03,-0.24,-0.28,0.08,
4.83,-1.03,-0.66,-4.03,-0.23,-0.29,0.09,
4.831,-1.03,-0.66,-4.03,-0.21,-0.32,0.11,
4.831,-1.01,-0.68,-4.09,-0.21,-0.32,0.11,
4.831,-1.01,-0.68,-4.09,-0.19,-0.34,0.12,
4.833,-1.01,-0.68,-4.09,-0.17,-0.36,0.14,
4.836,-1.01,-0.68,-4.09,-0.13,-0.39,0.16,
4.837,-1.01,-0.68,-4.09,-0.12,-0.40,0.17,
4.839,-1.01,-0.68,-4.09,-0.10,-0.42,0.19,
4.841,-0.92,-0.76,-4.05,-0.10,-0.42,0.19,
4.841,-0.92,-0.76,-4.05,-0.07,-0.43,0.21,
4.843,-0.92,-0.76,-4.05,-0.04,-0.45,0.22,
4.847,-0.92,-0.76,-4.05,-0.01,-0.46,0.25,
4.848,-0.92,-0.76,-4.05,0.01,-0.47,0.26,
4.849,-0.92,-0.76,-4.05,0.03,-0.48,0.27,
4.852,-1.02,-0.79,-3.99,0.03,-0.48,0.27,
4.852,-1.02,-0.79,-3.99,0.06,-0.48,0.29,
4.856,-1.02,-0.79,-3.99,0.08,-0.49,0.31,
4.857,-1.02,-0.79,-3.99,0.12,-0.50,0.34,
4.857,-1.02,-0.79,-3.99,0.14,-0.50,0.35,
4.858,-1.02,-0.79,-3.99,0.16,-0.50,0.36,
4.861,-0.93,-0.85,-3.79,0.16,-0.50,0.36,
4.861,-0.93,-0.85,-3.79,0.19,-0.50,0.38,
4.862,-0.93,-0.85,-3.79,0.22,-0.50,0.39,
4.866,-0.93,-0.85,-3.79,0.27,-0.49,0.41,
4.866,-0.93,-0.85,-3.79,0.28,-0.48,0.41,
4.868,-0.93,-0.85,-3.79,0.31,-0.47,0.43,
4.871,-0.81,-0.96,-3.50,0.31,-0.47,0.43,
4.871,-0.81,-0.96,-3.50,0.35,-0.46,0.44,
4.873,-0.81,-0.96,-3.50,0.39,-0.45,0.45,
4.876,-0.81,-0.96,-3.50,0.44,-0.43,0.46,
4.877,-0.81,-0.96,-3.50,0.46,-0.43,0.47,
4.88,-0.81,-0.96,-3.50,0.50,-0.42,0.48,
4.881,-0.65,-1.04,-3.26,0.50,-0.42,0.48,
4.882,-0.65,-1.04,-3.26,0.53,-0.41,0.49,
4.884,-0.65,-1.04,-3.26,0.57,-0.40,0.49,
4.903,-0.65,-1.04,-3.26,0.68,-0.37,0.51,
4.904,-0.65,-1.04,-3.26,0.68,-0.37,0.51,
4.904,-0.65,-1.04,-3.26,0.68,-0.37,0.51,
4.904,-0.65,-1.04,-3.26,0.71,-0.37,0.52,
4.905,-0.45,-1.19,-3.04,0.71,-0.37,0.52,
4.905,-0.45,-1.19,-3.04,0.75,-0.36,0.52,
4.905,-0.45,-1.19,-3.04,0.80,-0.34,0.52,
4.905,-0.45,-1.19,-3.04,0.82,-0.34,0.52,
4.905,-0.45,-1.19,-3.04,0.85,-0.32,0.51,
4.906,-0.33,-1.24,-2.85,0.85,-0.32,0.51,
4.906,-0.33,-1.24,-2.85,0.89,-0.31,0.51,
4.906,-0.33,-1.24,-2.85,0.93,-0.29,0.51,
4.906,-0.33,-1.24,-2.85,0.99,-0.27,0.51,
4.909,-0.33,-1.24,-2.85,1.01,-0.27,0.51,
4.911,-0.33,-1.24,-2.85,1.04,-0.25,0.51,
4.912,-0.40,-1.31,-2.62,1.04,-0.25,0.51,
4.913,-0.40,-1.31,-2.62,1.08,-0.23,0.51,
4.913,-0.40,-1.31,-2.62,1.11,-0.20,0.52,
4.916,-0.40,-1.31,-2.62,1.16,-0.17,0.52,
4.916,-0.40,-1.31,-2.62,1.17,-0.16,0.53,
4.919,-0.40,-1.31,-2.62,1.20,-0.14,0.53,
4.927,-0.61,-1.49,-2.69,1.20,-0.14,0.53,
4.927,-0.61,-1.49,-2.69,1.22,-0.12,0.55,
4.927,-0.61,-1.49,-2.69,1.24,-0.09,0.55,
4.927,-0.61,-1.49,-2.69,1.26,-0.06,0.57,
4.928,-0.61,-1.49,-2.69,1.27,-0.05,0.58,
4.928,-0.61,-1.49,-2.69,1.27,-0.03,0.59,
4.931,-0.86,-1.69,-3.00,1.27,-0.03,0.59,
4.931,-0.86,-1.69,-3.00,1.28,-0.01,0.61,
4.932,-0.86,-1.69,-3.00,1.28,0.01,0.62,
4.935,-0.86,-1.69,-3.00,1.28,0.04,0.64,
4.938,-0.86,-1.69,-3.00,1.28,0.05,0.65,
4.939,-0.86,-1.69,-3.00,1.28,0.07,0.67,
4.94,-0.97,-1.70,-3.29,1.28,0.07,0.67,
4.94,-0.97,-1.70,-3.29,1.27,0.09,0.68,
4.942,-0.97,-1.70,-3.29,1.26,0.11,0.70,
4.945,-0.97,-1.70,-3.29,1.24,0.13,0.72,
4.946,-0.97,-1.70,-3.29,1.24,0.14,0.73,
4.949,-0.97,-1.70,-3.29,1.23,0.16,0.75,
4.95,-1.05,-1.67,-3.34,1.23,0.16,0.75,
4.95,-1.05,-1.67,-3.34,1.21,0.17,0.76,
4.952,-1.05,-1.67,-3.34,1.19,0.18,0.77,
4.955,-1.05,-1.67,-3.34,1.17,0.19,0.79,
4.957,-1.05,-1.67,-3.34,1.17,0.20,0.80,
4.969,-1.05,-1.67,-3.34,1.16,0.21,0.81,
4.969,-0.90,-1.52,-2.88,1.16,0.21,0.81,
4.969,-0.90,-1.52,-2.88,1.15,0.22,0.83,
4.97,-0.90,-1.52,-2.88,1.14,0.23,0.84,
4.97,-0.90,-1.52,-2.88,1.13,0.26,0.85,
4.97,-0.90,-1.52,-2.88,1.13,0.27,0.86,
4.97,-0.90,-1.52,-2.88,1.13,0.29,0.87,
4.972,-0.72,-1.34,-1.96,1.13,0.29,0.87,
4.973,-0.72,-1.34,-1.96,1.14,0.30,0.88,
4.973,-0.72,-1.34,-1.96,1.14,0.32,0.88,
4.977,-0.72,-1.34,-1.96,1.14,0.34,0.89,
4.977,-0.72,-1.34,-1.96,1.14,0.34,0.89,
4.978,-0.72,-1.34,-1.96,1.14,0.35,0.89,
4.98,-0.41,-1.01,-1.23,1.14,0.35,0.89,
4.98,-0.41,-1.01,-1.23,1.14,0.35,0.89,
4.982,-0.41,-1.01,-1.23,1.14,0.34,0.88,
4.985,-0.41,-1.01,-1.23,1.14,0.33,0.87,
4.986,-0.41,-1.01,-1.23,1.14,0.32,0.87,
4.988,-0.41,-1.01,-1.23,1.13,0.30,0.85,
4.99,0.15,-0.56,-0.76,1.13,0.30,0.85,
4.991,0.15,-0.56,-0.76,1.13,0.28,0.84,
4.992,0.15,-0.56,-0.76,1.12,0.25,0.82,
4.995,0.15,-0.56,-0.76,1.10,0.19,0.78,
4.996,0.15,-0.56,-0.76,1.09,0.17,0.77,
4.998,0.15,-0.56,-0.76,1.08,0.13,0.75,
5.0,0.66,0.02,-0.43,1.08,0.13,0.75,
5.001,0.66,0.02,-0.43,1.06,0.08,0.72,
5.002,0.66,0.02,-0.43,1.04,0.03,0.69,
5.005,0.66,0.02,-0.43,1.00,-0.06,0.64,
5.006,0.66,0.02,-0.43,0.99,-0.09,0.62,
5.008,0.66,0.02,-0.43,0.95,-0.15,0.59,
5.011,1.08,0.60,-0.24,0.95,-0.15,0.59,
5.011,1.08,0.60,-0.24,0.92,-0.21,0.55,
5.012,1.08,0.60,-0.24,0.88,-0.27,0.52,
5.015,1.08,0.60,-0.24,0.80,-0.37,0.46,
5.016,1.08,0.60,-0.24,0.77,-0.40,0.44,
5.018,1.08,0.60,-0.24,0.71,-0.48,0.40,
5.023,1.28,1.16,-0.07,0.71,-0.48,0.40,
5.023,1.28,1.16,-0.07,0.65,-0.55,0.36,
5.023,1.28,1.16,-0.07,0.58,-0.63,0.32,
5.025,1.28,1.16,-0.07,0.47,-0.76,0.27,
5.031,1.28,1.16,-0.07,0.43,-0.80,0.25,
5.032,1.28,1.16,-0.07,0.35,-0.88,0.21,
5.032,1.37,1.58,0.41,0.35,-0.88,0.21,
5.033,1.37,1.58,0.41,0.26,-0.97,0.17,
5.034,1.37,1.58,0.41,0.17,-1.05,0.13,
5.035,1.37,1.58,0.41,0.04,-1.17,0.08,
