
time,ax,ay,az,wx,wy,wz,
0.009,0.89,0.32,-1.27,-0.63,-0.87,-1.14,
0.009,0.89,0.32,-1.27,-0.68,-0.86,-1.14,
0.009,0.89,0.32,-1.27,-0.73,-0.86,-1.14,
0.01,0.89,0.32,-1.27,-0.80,-0.85,-1.14,
0.01,0.89,0.32,-1.27,-0.82,-0.85,-1.15,
0.01,0.89,0.32,-1.27,-0.85,-0.85,-1.16,
0.01,1.75,-0.03,-0.20,-0.85,-0.85,-1.16,
0.011,1.75,-0.03,-0.20,-0.88,-0.85,-1.17,
0.011,1.75,-0.03,-0.20,-0.90,-0.84,-1.19,
0.011,1.75,-0.03,-0.20,-0.92,-0.84,-1.22,
0.012,1.75,-0.03,-0.20,-0.92,-0.84,-1.23,
0.012,1.75,-0.03,-0.20,-0.92,-0.84,-1.26,
0.012,2.00,-0.43,0.84,-0.92,-0.84,-1.26,
0.013,2.00,-0.43,0.84,-0.92,-0.84,-1.28,
0.013,2.00,-0.43,0.84,-0.91,-0.84,-1.31,
0.013,2.00,-0.43,0.84,-0.88,-0.84,-1.36,
0.013,2.00,-0.43,0.84,-0.86,-0.84,-1.37,
0.029,2.00,-0.43,0.84,-0.83,-0.84,-1.40,
0.03,2.03,-0.77,1.80,-0.83,-0.84,-1.40,
0.03,2.03,-0.77,1.80,-0.79,-0.84,-1.43,
0.03,2.03,-0.77,1.80,-0.75,-0.84,-1.46,
0.031,2.03,-0.77,1.80,-0.69,-0.84,-1.51,
0.031,2.03,-0.77,1.80,-0.67,-0.84,-1.52,
0.031,2.03,-0.77,1.80,-0.62,-0.84,-1.56,
0.032,1.95,-0.84,2.23,-0.62,-0.84,-1.56,
0.032,1.95,-0.84,2.23,-0.57,-0.84,-1.59,
0.032,1.95,-0.84,2.23,-0.52,-0.85,-1.62,
0.033,1.95,-0.84,2.23,-0.46,-0.85,-1.67,
0.033,1.95,-0.84,2.23,-0.43,-0.86,-1.69,
0.07,1.95,-0.84,2.23,-0.39,-0.87,-1.71,
0.071,1.86,-0.79,2.32,-0.39,-0.87,-1.71,
0.071,1.86,-0.79,2.32,-0.34,-0.88,-1.74,
0.072,1.86,-0.79,2.32,-0.30,-0.88,-1.77,
0.072,1.86,-0.79,2.32,-0.25,-0.89,-1.80,
0.072,1.86,-0.79,2.32,-0.23,-0.89,-1.81,
0.072,1.86,-0.79,2.32,-0.19,-0.89,-1.83,
0.073,1.44,-0.61,2.13,-0.19,-0.89,-1.83,
0.073,1.44,-0.61,2.13,-0.16,-0.89,-1.84,
0.073,1.44,-0.61,2.13,-0.13,-0.89,-1.85,
0.074,1.44,-0.61,2.13,-0.09,-0.88,-1.87,
0.074,1.44,-0.61,2.13,-0.08,-0.88,-1.88,
0.074,1.44,-0.61,2.13,-0.06,-0.86,-1.88,
0.074,1.03,-0.55,1.69,-0.06,-0.86,-1.88,
0.075,1.03,-0.55,1.69,-0.04,-0.85,-1.89,
0.075,1.03,-0.55,1.69,-0.02,-0.84,-1.90,
0.075,1.03,-0.55,1.69,0.01,-0.82,-1.90,
0.076,1.03,-0.55,1.69,0.02,-0.81,-1.90,
0.076,1.03,-0.55,1.69,0.03,-0.80,-1.90,
0.076,0.73,-0.46,1.30,0.03,-0.80,-1.90,
0.077,0.73,-0.46,1.30,0.04,-0.78,-1.90,
0.077,0.73,-0.46,1.30,0.06,-0.76,-1.89,
0.077,0.73,-0.46,1.30,0.07,-0.73,-1.88,
0.077,0.73,-0.46,1.30,0.07,-0.73,-1.88,
0.078,0.73,-0.46,1.30,0.08,-0.71,-1.87,
0.078,0.48,-0.30,1.02,0.08,-0.71,-1.87,
0.078,0.48,-0.30,1.02,0.09,-0.69,-1.86,
0.084,0.48,-0.30,1.02,0.09,-0.67,-1.85,
0.085,0.48,-0.30,1.02,0.09,-0.65,-1.83,
0.085,0.48,-0.30,1.02,0.10,-0.65,-1.82,
0.086,0.48,-0.30,1.02,0.10,-0.64,-1.81,
0.087,0.41,-0.06,0.77,0.10,-0.64,-1.81,
0.088,0.41,-0.06,0.77,0.10,-0.63,-1.79,
0.09,0.41,-0.06,0.77,0.10,-0.62,-1.78,
0.099,0.41,-0.06,0.77,0.10,-0.62,-1.76,
0.1,0.41,-0.06,0.77,0.10,-0.62,-1.75,
0.101,0.41,-0.06,0.77,0.09,-0.62,-1.74,
0.101,0.24,0.21,0.60,0.09,-0.62,-1.74,
0.102,0.24,0.21,0.60,0.09,-0.62,-1.73,
0.119,0.24,0.21,0.60,0.10,-0.62,-1.72,
0.119,0.24,0.21,0.60,0.10,-0.62,-1.70,
0.12,0.24,0.21,0.60,0.10,-0.63,-1.69,
0.12,0.24,0.21,0.60,0.10,-0.63,-1.68,
0.12,-0.02,0.36,0.47,0.10,-0.63,-1.68,
0.121,-0.02,0.36,0.47,0.10,-0.63,-1.66,
0.121,-0.02,0.36,0.47,0.09,-0.64,-1.64,
0.122,-0.02,0.36,0.47,0.08,-0.64,-1.62,
0.122,-0.02,0.36,0.47,0.08,-0.64,-1.61,
0.122,-0.02,0.36,0.47,0.07,-0.65,-1.59,
0.123,-0.23,0.36,0.15,0.07,-0.65,-1.59,
0.123,-0.23,0.36,0.15,0.06,-0.65,-1.57,
0.124,-0.23,0.36,0.15,0.05,-0.66,-1.55,
0.124,-0.23,0.36,0.15,0.03,-0.66,-1.52,
0.125,-0.23,0.36,0.15,0.02,-0.66,-1.52,
0.141,-0.23,0.36,0.15,-0.00,-0.66,-1.50,
0.141,-0.28,0.36,-0.25,-0.00,-0.66,-1.50,
0.142,-0.28,0.36,-0.25,-0.02,-0.65,-1.48,
0.142,-0.28,0.36,-0.25,-0.04,-0.65,-1.47,
0.142,-0.28,0.36,-0.25,-0.08,-0.63,-1.45,
0.142,-0.28,0.36,-0.25,-0.09,-0.62,-1.44,
0.143,-0.28,0.36,-0.25,-0.11,-0.60,-1.43,
0.143,-0.18,0.37,-0.71,-0.11,-0.60,-1.43,
0.143,-0.18,0.37,-0.71,-0.14,-0.59,-1.42,
0.143,-0.18,0.37,-0.71,-0.17,-0.57,-1.41,
0.144,-0.18,0.37,-0.71,-0.21,-0.56,-1.40,
0.146,-0.18,0.37,-0.71,-0.22,-0.56,-1.39,
0.147,-0.18,0.37,-0.71,-0.24,-0.56,-1.38,
0.147,-0.14,0.39,-0.88,-0.24,-0.56,-1.38,
0.147,-0.14,0.39,-0.88,-0.27,-0.56,-1.38,
0.148,-0.14,0.39,-0.88,-0.30,-0.57,-1.37,
0.151,-0.14,0.39,-0.88,-0.34,-0.58,-1.36,
0.152,-0.14,0.39,-0.88,-0.36,-0.59,-1.36,
0.168,-0.13,0.25,-0.75,-0.36,-0.59,-1.36,
0.169,-0.13,0.25,-0.75,-0.40,-0.62,-1.35,
0.169,-0.13,0.25,-0.75,-0.40,-0.62,-1.35,
0.169,-0.13,0.25,-0.75,-0.42,-0.63,-1.35,
0.169,-0.13,0.25,-0.75,-0.44,-0.63,-1.35,
0.17,-0.13,0.25,-0.75,-0.44,-0.63,-1.35,
0.17,-0.13,0.25,-0.75,-0.45,-0.63,-1.36,
0.17,-0.20,0.22,-0.50,-0.45,-0.63,-1.36,
0.17,-0.20,0.22,-0.50,-0.45,-0.63,-1.36,
0.171,-0.20,0.22,-0.50,-0.45,-0.64,-1.36,
0.173,-0.20,0.22,-0.50,-0.44,-0.67,-1.37,
0.173,-0.20,0.22,-0.50,-0.43,-0.68,-1.37,
0.175,-0.20,0.22,-0.50,-0.42,-0.71,-1.38,
0.177,-0.16,0.33,-0.03,-0.42,-0.71,-1.38,
0.177,-0.16,0.33,-0.03,-0.41,-0.74,-1.39,
0.178,-0.16,0.33,-0.03,-0.39,-0.77,-1.40,
0.182,-0.16,0.33,-0.03,-0.36,-0.81,-1.41,
0.182,-0.16,0.33,-0.03,-0.35,-0.82,-1.41,
0.185,-0.16,0.33,-0.03,-0.33,-0.85,-1.42,
0.194,-0.16,0.26,0.51,-0.33,-0.85,-1.42,
0.195,-0.16,0.26,0.51,-0.30,-0.87,-1.43,
0.195,-0.16,0.26,0.51,-0.28,-0.89,-1.44,
0.195,-0.16,0.26,0.51,-0.23,-0.91,-1.46,
0.195,-0.16,0.26,0.51,-0.22,-0.91,-1.46,
0.196,-0.16,0.26,0.51,-0.19,-0.92,-1.47,
0.197,-0.11,0.19,0.93,-0.19,-0.92,-1.47,
0.197,-0.11,0.19,0.93,-0.16,-0.93,-1.48,
0.198,-0.11,0.19,0.93,-0.14,-0.93,-1.49,
0.201,-0.11,0.19,0.93,-0.09,-0.93,-1.50,
0.202,-0.11,0.19,0.93,-0.08,-0.93,-1.50,
0.205,-0.11,0.19,0.93,-0.05,-0.93,-1.50,
0.207,-0.05,0.17,1.24,-0.05,-0.93,-1.50,
0.207,-0.05,0.17,1.24,-0.03,-0.93,-1.51,
0.211,-0.05,0.17,1.24,-0.01,-0.93,-1.51,
0.211,-0.05,0.17,1.24,0.02,-0.92,-1.51,
0.212,-0.05,0.17,1.24,0.03,-0.92,-1.51,
0.225,-0.05,0.17,1.24,0.04,-0.92,-1.51,
0.226,-0.01,0.09,1.24,0.04,-0.92,-1.51,
0.226,-0.01,0.09,1.24,0.05,-0.92,-1.51,
0.226,-0.01,0.09,1.24,0.06,-0.92,-1.51,
0.227,-0.01,0.09,1.24,0.07,-0.93,-1.51,
0.227,-0.01,0.09,1.24,0.07,-0.92,-1.52,
0.227,-0.01,0.09,1.24,0.07,-0.92,-1.52,
0.227,0.16,-0.02,1.03,0.07,-0.92,-1.52,
0.228,0.16,-0.02,1.03,0.06,-0.92,-1.53,
0.23,0.16,-0.02,1.03,0.06,-0.91,-1.54,
0.231,0.16,-0.02,1.03,0.04,-0.89,-1.55,
0.233,0.16,-0.02,1.03,0.04,-0.88,-1.56,
0.235,0.16,-0.02,1.03,0.03,-0.86,-1.56,
0.237,0.13,-0.07,0.75,0.03,-0.86,-1.56,
0.237,0.13,-0.07,0.75,0.02,-0.84,-1.57,
0.239,0.13,-0.07,0.75,0.01,-0.82,-1.57,
0.243,0.13,-0.07,0.75,-0.00,-0.79,-1.57,
0.244,0.13,-0.07,0.75,-0.01,-0.78,-1.57,
0.244,0.13,-0.07,0.75,-0.01,-0.76,-1.57,
0.247,-0.07,-0.13,0.66,-0.01,-0.76,-1.57,
0.247,-0.07,-0.13,0.66,-0.02,-0.74,-1.57,
0.249,-0.07,-0.13,0.66,-0.02,-0.71,-1.57,
0.251,-0.07,-0.13,0.66,-0.02,-0.67,-1.57,
0.252,-0.07,-0.13,0.66,-0.02,-0.65,-1.57,
0.262,-0.07,-0.13,0.66,-0.02,-0.62,-1.57,
0.263,-0.11,-0.23,0.65,-0.02,-0.62,-1.57,
0.263,-0.11,-0.23,0.65,-0.01,-0.58,-1.57,
0.263,-0.11,-0.23,0.65,-0.01,-0.55,-1.57,
0.263,-0.11,-0.23,0.65,-0.01,-0.49,-1.58,
0.263,-0.11,-0.23,0.65,-0.01,-0.47,-1.58,
0.269,-0.11,-0.23,0.65,-0.00,-0.44,-1.58,
0.286,-0.11,-0.32,0.45,-0.00,-0.44,-1.58,
0.287,-0.11,-0.32,0.45,0.00,-0.40,-1.59,
0.287,-0.11,-0.32,0.45,0.00,-0.37,-1.59,
0.287,-0.11,-0.32,0.45,0.01,-0.33,-1.60,
0.287,-0.11,-0.32,0.45,0.01,-0.32,-1.59,
0.288,-0.11,-0.32,0.45,0.02,-0.31,-1.59,
0.288,-0.34,-0.43,0.28,0.02,-0.31,-1.59,
0.288,-0.34,-0.43,0.28,0.03,-0.29,-1.59,
0.288,-0.34,-0.43,0.28,0.03,-0.28,-1.58,
0.288,-0.34,-0.43,0.28,0.05,-0.28,-1.57,
0.289,-0.34,-0.43,0.28,0.05,-0.28,-1.57,
0.289,-0.34,-0.43,0.28,0.06,-0.28,-1.56,
0.289,-0.64,-0.27,0.26,0.06,-0.28,-1.56,
0.289,-0.64,-0.27,0.26,0.07,-0.29,-1.56,
0.296,-0.64,-0.27,0.26,0.08,-0.30,-1.56,
0.296,-0.64,-0.27,0.26,0.09,-0.31,-1.55,
0.296,-0.64,-0.27,0.26,0.10,-0.32,-1.55,
0.297,-0.64,-0.27,0.26,0.11,-0.33,-1.55,
0.298,-0.62,-0.11,0.24,0.11,-0.33,-1.55,
0.298,-0.62,-0.11,0.24,0.12,-0.34,-1.54,
0.299,-0.62,-0.11,0.24,0.12,-0.35,-1.53,
0.302,-0.62,-0.11,0.24,0.13,-0.36,-1.53,
0.302,-0.62,-0.11,0.24,0.14,-0.36,-1.52,
0.306,-0.62,-0.11,0.24,0.14,-0.37,-1.52,
0.308,-0.57,0.03,0.10,0.14,-0.37,-1.52,
0.308,-0.57,0.03,0.10,0.14,-0.37,-1.51,
0.308,-0.57,0.03,0.10,0.14,-0.38,-1.51,
0.311,-0.57,0.03,0.10,0.14,-0.40,-1.50,
0.312,-0.57,0.03,0.10,0.14,-0.40,-1.50,
0.314,-0.57,0.03,0.10,0.14,-0.41,-1.49,
0.316,-0.50,0.06,-0.18,0.14,-0.41,-1.49,
0.317,-0.50,0.06,-0.18,0.13,-0.41,-1.48,
0.318,-0.50,0.06,-0.18,0.13,-0.42,-1.47,
0.321,-0.50,0.06,-0.18,0.12,-0.42,-1.46,
0.323,-0.50,0.06,-0.18,0.12,-0.42,-1.46,
0.325,-0.50,0.06,-0.18,0.11,-0.41,-1.45,
0.326,-0.51,-0.01,-0.59,0.11,-0.41,-1.45,
0.327,-0.51,-0.01,-0.59,0.10,-0.41,-1.44,
0.329,-0.51,-0.01,-0.59,0.08,-0.40,-1.42,
0.331,-0.51,-0.01,-0.59,0.04,-0.40,-1.40,
0.332,-0.51,-0.01,-0.59,0.03,-0.40,-1.40,
0.334,-0.51,-0.01,-0.59,0.01,-0.40,-1.38,
0.337,-0.35,-0.18,-1.07,0.01,-0.40,-1.38,
0.337,-0.35,-0.18,-1.07,-0.02,-0.41,-1.37,
0.338,-0.35,-0.18,-1.07,-0.05,-0.42,-1.35,
0.341,-0.35,-0.18,-1.07,-0.10,-0.45,-1.33,
0.342,-0.35,-0.18,-1.07,-0.11,-0.46,-1.32,
0.344,-0.35,-0.18,-1.07,-0.15,-0.48,-1.31,
0.346,0.02,-0.57,-1.35,-0.15,-0.48,-1.31,
0.347,0.02,-0.57,-1.35,-0.18,-0.49,-1.30,
0.348,0.02,-0.57,-1.35,-0.21,-0.50,-1.30,
0.351,0.02,-0.57,-1.35,-0.24,-0.50,-1.30,
0.352,0.02,-0.57,-1.35,-0.26,-0.50,-1.30,
0.354,0.02,-0.57,-1.35,-0.28,-0.48,-1.30,
0.357,-0.25,-0.85,-1.43,-0.28,-0.48,-1.30,
0.357,-0.25,-0.85,-1.43,-0.30,-0.45,-1.30,
0.358,-0.25,-0.85,-1.43,-0.32,-0.42,-1.30,
0.361,-0.25,-0.85,-1.43,-0.34,-0.38,-1.31,
0.362,-0.25,-0.85,-1.43,-0.35,-0.37,-1.31,
0.364,-0.25,-0.85,-1.43,-0.36,-0.35,-1.31,
0.366,-0.40,-0.72,-1.65,-0.36,-0.35,-1.31,
0.367,-0.40,-0.72,-1.65,-0.38,-0.33,-1.31,
0.368,-0.40,-0.72,-1.65,-0.39,-0.32,-1.31,
0.372,-0.40,-0.72,-1.65,-0.41,-0.31,-1.31,
0.372,-0.40,-0.72,-1.65,-0.41,-0.31,-1.31,
0.374,-0.40,-0.72,-1.65,-0.43,-0.31,-1.31,
0.377,-0.35,-0.47,-1.64,-0.43,-0.31,-1.31,
0.377,-0.35,-0.47,-1.64,-0.44,-0.30,-1.31,
0.379,-0.35,-0.47,-1.64,-0.45,-0.31,-1.31,
0.381,-0.35,-0.47,-1.64,-0.47,-0.32,-1.31,
0.382,-0.35,-0.47,-1.64,-0.48,-0.32,-1.30,
0.384,-0.35,-0.47,-1.64,-0.49,-0.33,-1.30,
0.391,-0.36,-0.34,-1.47,-0.49,-0.33,-1.30,
0.391,-0.36,-0.34,-1.47,-0.50,-0.35,-1.30,
0.392,-0.36,-0.34,-1.47,-0.51,-0.36,-1.30,
0.392,-0.36,-0.34,-1.47,-0.51,-0.39,-1.29,
0.392,-0.36,-0.34,-1.47,-0.52,-0.40,-1.29,
0.394,-0.36,-0.34,-1.47,-0.52,-0.42,-1.28,
0.397,-0.36,-0.18,-1.18,-0.52,-0.42,-1.28,
0.397,-0.36,-0.18,-1.18,-0.52,-0.43,-1.28,
0.398,-0.36,-0.18,-1.18,-0.53,-0.45,-1.27,
0.401,-0.36,-0.18,-1.18,-0.53,-0.47,-1.26,
0.402,-0.36,-0.18,-1.18,-0.53,-0.48,-1.25,
0.404,-0.36,-0.18,-1.18,-0.53,-0.49,-1.24,
0.407,-0.51,0.07,-1.04,-0.53,-0.49,-1.24,
0.407,-0.51,0.07,-1.04,-0.54,-0.50,-1.23,
0.408,-0.51,0.07,-1.04,-0.54,-0.50,-1.22,
0.411,-0.51,0.07,-1.04,-0.55,-0.52,-1.20,
0.412,-0.51,0.07,-1.04,-0.55,-0.52,-1.19,
0.414,-0.51,0.07,-1.04,-0.56,-0.52,-1.18,
0.416,-0.46,0.12,-1.03,-0.56,-0.52,-1.18,
0.417,-0.46,0.12,-1.03,-0.57,-0.53,-1.16,
0.424,-0.46,0.12,-1.03,-0.58,-0.53,-1.15,
0.425,-0.46,0.12,-1.03,-0.60,-0.55,-1.12,
0.425,-0.46,0.12,-1.03,-0.61,-0.55,-1.11,
0.425,-0.46,0.12,-1.03,-0.62,-0.55,-1.10,
0.428,-0.27,-0.20,-1.02,-0.62,-0.55,-1.10,
0.428,-0.27,-0.20,-1.02,-0.64,-0.56,-1.08,
0.429,-0.27,-0.20,-1.02,-0.66,-0.56,-1.07,
0.431,-0.27,-0.20,-1.02,-0.69,-0.56,-1.05,
0.456,-0.27,-0.20,-1.02,-0.70,-0.56,-1.04,
0.457,-0.27,-0.20,-1.02,-0.72,-0.56,-1.04,
0.457,0.14,-0.48,-0.89,-0.72,-0.56,-1.04,
0.457,0.14,-0.48,-0.89,-0.74,-0.55,-1.03,
0.458,0.14,-0.48,-0.89,-0.76,-0.53,-1.02,
0.458,0.14,-0.48,-0.89,-0.78,-0.52,-1.02,
0.459,0.14,-0.48,-0.89,-0.79,-0.51,-1.02,
0.459,0.14,-0.48,-0.89,-0.80,-0.50,-1.02,
0.46,0.43,-0.50,-0.73,-0.80,-0.50,-1.02,
0.46,0.43,-0.50,-0.73,-0.82,-0.49,-1.02,
0.46,0.43,-0.50,-0.73,-0.83,-0.49,-1.03,
0.461,0.43,-0.50,-0.73,-0.85,-0.48,-1.04,
0.461,0.43,-0.50,-0.73,-0.86,-0.48,-1.04,
0.462,0.43,-0.50,-0.73,-0.86,-0.48,-1.04,
0.462,0.64,-0.30,-0.45,-0.86,-0.48,-1.04,
0.462,0.64,-0.30,-0.45,-0.87,-0.48,-1.05,
0.463,0.64,-0.30,-0.45,-0.87,-0.48,-1.06,
0.463,0.64,-0.30,-0.45,-0.86,-0.49,-1.08,
0.464,0.64,-0.30,-0.45,-0.86,-0.49,-1.08,
0.472,0.64,-0.30,-0.45,-0.86,-0.51,-1.09,
0.472,0.87,-0.05,-0.15,-0.86,-0.51,-1.09,
0.473,0.87,-0.05,-0.15,-0.85,-0.52,-1.11,
0.473,0.87,-0.05,-0.15,-0.85,-0.54,-1.13,
0.474,0.87,-0.05,-0.15,-0.85,-0.59,-1.18,
0.474,0.87,-0.05,-0.15,-0.86,-0.61,-1.20,
0.474,0.87,-0.05,-0.15,-0.87,-0.64,-1.26,
0.476,2.39,0.27,-0.54,-0.87,-0.64,-1.26,
0.477,2.39,0.27,-0.54,-0.87,-0.66,-1.32,
0.478,2.39,0.27,-0.54,-0.87,-0.66,-1.37,
0.481,2.39,0.27,-0.54,-0.85,-0.65,-1.46,
0.482,2.39,0.27,-0.54,-0.84,-0.64,-1.48,
0.484,2.39,0.27,-0.54,-0.81,-0.63,-1.53,
0.487,2.86,0.40,-0.02,-0.81,-0.63,-1.53,
0.487,2.86,0.40,-0.02,-0.78,-0.62,-1.58,
0.488,2.86,0.40,-0.02,-0.75,-0.61,-1.63,
0.491,2.86,0.40,-0.02,-0.70,-0.61,-1.70,
0.492,2.86,0.40,-0.02,-0.68,-0.61,-1.72,
0.494,2.86,0.40,-0.02,-0.65,-0.60,-1.76,
0.496,2.63,0.32,0.69,-0.65,-0.60,-1.76,
0.497,2.63,0.32,0.69,-0.61,-0.60,-1.80,
0.498,2.63,0.32,0.69,-0.57,-0.59,-1.83,
0.501,2.63,0.32,0.69,-0.52,-0.57,-1.87,
0.504,2.63,0.32,0.69,-0.50,-0.56,-1.88,
0.508,2.63,0.32,0.69,-0.47,-0.54,-1.90,
0.508,2.21,0.14,0.96,-0.47,-0.54,-1.90,
0.509,2.21,0.14,0.96,-0.44,-0.53,-1.92,
0.511,2.21,0.14,0.96,-0.42,-0.52,-1.93,
0.512,2.21,0.14,0.96,-0.37,-0.50,-1.95,
0.512,2.21,0.14,0.96,-0.36,-0.50,-1.96,
0.514,2.21,0.14,0.96,-0.33,-0.50,-1.97,
0.517,1.70,-0.12,0.95,-0.33,-0.50,-1.97,
0.517,1.70,-0.12,0.95,-0.31,-0.49,-1.97,
0.518,1.70,-0.12,0.95,-0.27,-0.49,-1.98,
0.532,1.70,-0.12,0.95,-0.24,-0.48,-1.98,
0.532,1.70,-0.12,0.95,-0.22,-0.48,-1.98,
0.532,1.70,-0.12,0.95,-0.20,-0.47,-1.97,
0.533,1.25,-0.24,0.92,-0.20,-0.47,-1.97,
0.533,1.25,-0.24,0.92,-0.18,-0.47,-1.98,
0.533,1.25,-0.24,0.92,-0.16,-0.47,-1.97,
0.533,1.25,-0.24,0.92,-0.14,-0.46,-1.97,
0.557,1.25,-0.24,0.92,-0.13,-0.46,-1.97,
0.557,1.25,-0.24,0.92,-0.12,-0.46,-1.96,
0.557,0.86,-0.33,0.67,-0.12,-0.46,-1.96,
0.558,0.86,-0.33,0.67,-0.12,-0.46,-1.95,
0.558,0.86,-0.33,0.67,-0.11,-0.45,-1.95,
0.558,0.86,-0.33,0.67,-0.11,-0.45,-1.93,
0.558,0.86,-0.33,0.67,-0.11,-0.45,-1.92,
0.558,0.86,-0.33,0.67,-0.10,-0.44,-1.90,
0.559,0.43,-0.40,0.55,-0.10,-0.44,-1.90,
0.559,0.43,-0.40,0.55,-0.10,-0.44,-1.89,
0.559,0.43,-0.40,0.55,-0.10,-0.44,-1.87,
0.559,0.43,-0.40,0.55,-0.10,-0.44,-1.84,
0.559,0.43,-0.40,0.55,-0.10,-0.45,-1.83,
0.559,0.43,-0.40,0.55,-0.10,-0.45,-1.81,
0.56,0.05,-0.45,0.49,-0.10,-0.45,-1.81,
0.56,0.05,-0.45,0.49,-0.10,-0.46,-1.80,
0.56,0.05,-0.45,0.49,-0.11,-0.48,-1.78,
0.563,0.05,-0.45,0.49,-0.12,-0.51,-1.76,
0.566,0.05,-0.45,0.49,-0.12,-0.52,-1.75,
0.567,0.05,-0.45,0.49,-0.13,-0.55,-1.74,
0.594,-0.12,-0.55,0.42,-0.13,-0.55,-1.74,
0.595,-0.12,-0.55,0.42,-0.13,-0.57,-1.72,
0.595,-0.12,-0.55,0.42,-0.13,-0.58,-1.70,
0.595,-0.12,-0.55,0.42,-0.13,-0.59,-1.66,
0.596,-0.12,-0.55,0.42,-0.13,-0.60,-1.65,
0.596,-0.12,-0.55,0.42,-0.13,-0.62,-1.63,
0.596,-0.39,-0.32,0.54,-0.13,-0.62,-1.63,
0.596,-0.39,-0.32,0.54,-0.13,-0.65,-1.61,
0.596,-0.39,-0.32,0.54,-0.14,-0.69,-1.60,
0.596,-0.39,-0.32,0.54,-0.14,-0.75,-1.57,
0.597,-0.39,-0.32,0.54,-0.14,-0.76,-1.56,
0.597,-0.39,-0.32,0.54,-0.13,-0.80,-1.55,
0.597,-0.37,-0.21,0.63,-0.13,-0.80,-1.55,
0.597,-0.37,-0.21,0.63,-0.13,-0.85,-1.53,
0.597,-0.37,-0.21,0.63,-0.13,-0.90,-1.52,
0.598,-0.37,-0.21,0.63,-0.12,-0.96,-1.50,
0.61,-0.37,-0.21,0.63,-0.11,-0.98,-1.50,
0.611,-0.37,-0.21,0.63,-0.10,-1.01,-1.48,
0.611,-0.25,-0.20,0.86,-0.10,-1.01,-1.48,
0.611,-0.25,-0.20,0.86,-0.09,-1.03,-1.47,
0.629,-0.25,-0.20,0.86,-0.08,-1.06,-1.46,
0.63,-0.25,-0.20,0.86,-0.07,-1.09,-1.45,
0.63,-0.25,-0.20,0.86,-0.06,-1.10,-1.45,
0.63,-0.25,-0.20,0.86,-0.05,-1.12,-1.44,
0.631,-0.12,-0.24,1.03,-0.05,-1.12,-1.44,
0.631,-0.12,-0.24,1.03,-0.04,-1.14,-1.44,
0.631,-0.12,-0.24,1.03,-0.03,-1.16,-1.44,
0.632,-0.12,-0.24,1.03,-0.02,-1.18,-1.43,
0.632,-0.12,-0.24,1.03,-0.01,-1.18,-1.43,
0.632,-0.12,-0.24,1.03,-0.00,-1.18,-1.43,
0.632,-0.12,-0.31,0.96,-0.00,-1.18,-1.43,
0.633,-0.12,-0.31,0.96,0.00,-1.18,-1.44,
0.633,-0.12,-0.31,0.96,0.01,-1.16,-1.43,
0.633,-0.12,-0.31,0.96,0.02,-1.12,-1.43,
0.633,-0.12,-0.31,0.96,0.02,-1.10,-1.43,
0.634,-0.12,-0.31,0.96,0.02,-1.07,-1.43,
0.634,-0.40,-0.29,0.72,0.02,-1.07,-1.43,
0.634,-0.40,-0.29,0.72,0.02,-1.03,-1.43,
0.634,-0.40,-0.29,0.72,0.02,-0.99,-1.43,
0.635,-0.40,-0.29,0.72,0.01,-0.92,-1.43,
0.639,-0.40,-0.29,0.72,0.01,-0.90,-1.43,
0.639,-0.40,-0.29,0.72,0.00,-0.85,-1.42,
0.642,-0.67,-0.36,0.31,0.00,-0.85,-1.42,
0.642,-0.67,-0.36,0.31,-0.01,-0.81,-1.42,
0.643,-0.67,-0.36,0.31,-0.02,-0.76,-1.42,
0.643,-0.67,-0.36,0.31,-0.04,-0.70,-1.41,
0.643,-0.67,-0.36,0.31,-0.05,-0.67,-1.41,
0.647,-0.67,-0.36,0.31,-0.07,-0.64,-1.40,
0.649,-0.79,-0.37,-0.09,-0.07,-0.64,-1.40,
0.651,-0.79,-0.37,-0.09,-0.09,-0.60,-1.39,
0.656,-0.79,-0.37,-0.09,-0.11,-0.57,-1.39,
0.656,-0.79,-0.37,-0.09,-0.14,-0.54,-1.38,
0.656,-0.79,-0.37,-0.09,-0.15,-0.53,-1.38,
0.656,-0.79,-0.37,-0.09,-0.18,-0.51,-1.38,
0.659,-0.79,-0.37,-0.09,-0.21,-0.48,-1.37,
0.66,-0.79,-0.37,-0.09,-0.21,-0.48,-1.37,
0.661,-0.76,-0.43,-0.17,-0.21,-0.48,-1.37,
0.662,-0.76,-0.43,-0.17,-0.23,-0.47,-1.38,
0.663,-0.76,-0.43,-0.17,-0.25,-0.46,-1.38,
0.664,-0.76,-0.43,-0.17,-0.26,-0.45,-1.38,
0.667,-0.70,-0.45,-0.03,-0.26,-0.45,-1.38,
0.667,-0.70,-0.45,-0.03,-0.26,-0.44,-1.39,
0.675,-0.70,-0.45,-0.03,-0.28,-0.44,-1.39,
0.676,-0.70,-0.45,-0.03,-0.28,-0.42,-1.40,
0.676,-0.70,-0.45,-0.03,-0.29,-0.42,-1.40,
0.676,-0.70,-0.45,-0.03,-0.29,-0.40,-1.40,
0.679,-0.73,-0.50,0.32,-0.29,-0.40,-1.40,
0.679,-0.73,-0.50,0.32,-0.29,-0.39,-1.40,
0.68,-0.73,-0.50,0.32,-0.29,-0.38,-1.40,
0.681,-0.73,-0.50,0.32,-0.28,-0.36,-1.40,
0.685,-0.73,-0.50,0.32,-0.28,-0.35,-1.40,
0.709,-0.73,-0.50,0.32,-0.28,-0.34,-1.40,
0.71,-0.87,-0.52,0.60,-0.28,-0.34,-1.40,
0.71,-0.87,-0.52,0.60,-0.27,-0.32,-1.40,
0.71,-0.87,-0.52,0.60,-0.26,-0.31,-1.40,
0.71,-0.87,-0.52,0.60,-0.25,-0.29,-1.39,
0.71,-0.87,-0.52,0.60,-0.25,-0.29,-1.39,
0.71,-0.87,-0.52,0.60,-0.24,-0.28,-1.39,
0.711,-1.06,-0.61,0.68,-0.24,-0.28,-1.39,
0.711,-1.06,-0.61,0.68,-0.23,-0.27,-1.38,
0.711,-1.06,-0.61,0.68,-0.22,-0.26,-1.37,
0.711,-1.06,-0.61,0.68,-0.21,-0.24,-1.37,
0.711,-1.06,-0.61,0.68,-0.21,-0.24,-1.36,
0.712,-1.06,-0.61,0.68,-0.20,-0.23,-1.35,
0.712,-1.17,-0.66,0.59,-0.20,-0.23,-1.35,
0.712,-1.17,-0.66,0.59,-0.20,-0.22,-1.35,
0.712,-1.17,-0.66,0.59,-0.19,-0.22,-1.34,
0.713,-1.17,-0.66,0.59,-0.19,-0.21,-1.33,
0.718,-1.17,-0.66,0.59,-0.19,-0.21,-1.32,
0.72,-1.17,-0.66,0.59,-0.19,-0.21,-1.32,
0.72,-1.29,-0.71,0.32,-0.19,-0.21,-1.32,
0.72,-1.29,-0.71,0.32,-0.19,-0.22,-1.31,
0.72,-1.29,-0.71,0.32,-0.19,-0.22,-1.30,
0.721,-1.29,-0.71,0.32,-0.20,-0.24,-1.29,
0.722,-1.29,-0.71,0.32,-0.20,-0.25,-1.29,
0.724,-1.29,-0.71,0.32,-0.20,-0.27,-1.28,
0.726,-1.34,-0.68,0.14,-0.20,-0.27,-1.28,
0.727,-1.34,-0.68,0.14,-0.21,-0.28,-1.27,
0.728,-1.34,-0.68,0.14,-0.21,-0.30,-1.27,
0.731,-1.34,-0.68,0.14,-0.22,-0.33,-1.26,
0.732,-1.34,-0.68,0.14,-0.22,-0.33,-1.26,
0.735,-1.34,-0.68,0.14,-0.22,-0.35,-1.26,
0.737,-1.29,-0.59,0.09,-0.22,-0.35,-1.26,
0.737,-1.29,-0.59,0.09,-0.23,-0.36,-1.26,
0.738,-1.29,-0.59,0.09,-0.23,-0.38,-1.26,
0.741,-1.29,-0.59,0.09,-0.23,-0.41,-1.27,
0.742,-1.29,-0.59,0.09,-0.23,-0.42,-1.27,
0.744,-1.29,-0.59,0.09,-0.23,-0.44,-1.27,
0.746,-1.13,-0.62,0.25,-0.23,-0.44,-1.27,
0.746,-1.13,-0.62,0.25,-0.23,-0.46,-1.27,
0.748,-1.13,-0.62,0.25,-0.22,-0.48,-1.27,
0.751,-1.13,-0.62,0.25,-0.22,-0.51,-1.28,
0.752,-1.13,-0.62,0.25,-0.22,-0.52,-1.28,
0.754,-1.13,-0.62,0.25,-0.21,-0.55,-1.28,
0.757,-1.00,-0.63,0.52,-0.21,-0.55,-1.28,
0.757,-1.00,-0.63,0.52,-0.21,-0.56,-1.28,
0.759,-1.00,-0.63,0.52,-0.20,-0.58,-1.29,
0.761,-1.00,-0.63,0.52,-0.20,-0.61,-1.29,
0.762,-1.00,-0.63,0.52,-0.19,-0.62,-1.29,
0.767,-1.00,-0.63,0.52,-0.19,-0.64,-1.30,
0.787,-0.78,-0.66,0.74,-0.19,-0.64,-1.30,
0.787,-0.78,-0.66,0.74,-0.19,-0.65,-1.30,
0.788,-0.78,-0.66,0.74,-0.18,-0.67,-1.31,
0.788,-0.78,-0.66,0.74,-0.18,-0.69,-1.32,
0.788,-0.78,-0.66,0.74,-0.18,-0.69,-1.32,
0.788,-0.78,-0.66,0.74,-0.17,-0.70,-1.33,
0.788,-0.56,-0.74,1.05,-0.17,-0.70,-1.33,
0.789,-0.56,-0.74,1.05,-0.16,-0.71,-1.34,
0.789,-0.56,-0.74,1.05,-0.15,-0.73,-1.36,
0.789,-0.56,-0.74,1.05,-0.15,-0.73,-1.37,
0.789,-0.56,-0.74,1.05,-0.14,-0.74,-1.37,
0.789,-0.56,-0.74,1.05,-0.13,-0.74,-1.39,
0.789,-0.33,-0.74,1.40,-0.13,-0.74,-1.39,
0.79,-0.33,-0.74,1.40,-0.12,-0.75,-1.40,
0.79,-0.33,-0.74,1.40,-0.11,-0.75,-1.41,
0.793,-0.33,-0.74,1.40,-0.10,-0.76,-1.43,
0.793,-0.33,-0.74,1.40,-0.09,-0.76,-1.44,
0.794,-0.33,-0.74,1.40,-0.08,-0.76,-1.45,
0.796,-0.17,-0.72,1.56,-0.08,-0.76,-1.45,
0.797,-0.17,-0.72,1.56,-0.08,-0.75,-1.46,
0.799,-0.17,-0.72,1.56,-0.07,-0.75,-1.47,
0.804,-0.17,-0.72,1.56,-0.05,-0.73,-1.48,
0.804,-0.17,-0.72,1.56,-0.05,-0.72,-1.48,
0.806,-0.17,-0.72,1.56,-0.05,-0.70,-1.49,
0.806,-0.21,-0.80,1.53,-0.05,-0.70,-1.49,
0.807,-0.21,-0.80,1.53,-0.05,-0.68,-1.50,
0.808,-0.21,-0.80,1.53,-0.04,-0.65,-1.50,
0.811,-0.21,-0.80,1.53,-0.04,-0.61,-1.51,
0.812,-0.21,-0.80,1.53,-0.04,-0.59,-1.51,
0.821,-0.21,-0.80,1.53,-0.05,-0.56,-1.51,
0.822,-0.34,-0.87,1.28,-0.05,-0.56,-1.51,
0.822,-0.34,-0.87,1.28,-0.05,-0.53,-1.52,
0.822,-0.34,-0.87,1.28,-0.06,-0.50,-1.52,
0.822,-0.34,-0.87,1.28,-0.07,-0.44,-1.53,
0.822,-0.34,-0.87,1.28,-0.08,-0.42,-1.53,
0.824,-0.34,-0.87,1.28,-0.08,-0.39,-1.53,
0.827,-0.50,-0.88,0.82,-0.08,-0.39,-1.53,
0.827,-0.50,-0.88,0.82,-0.09,-0.35,-1.53,
0.828,-0.50,-0.88,0.82,-0.10,-0.32,-1.53,
0.831,-0.50,-0.88,0.82,-0.13,-0.27,-1.53,
0.832,-0.50,-0.88,0.82,-0.13,-0.25,-1.53,
0.844,-0.50,-0.88,0.82,-0.15,-0.22,-1.53,
0.845,-0.66,-0.87,0.40,-0.15,-0.22,-1.53,
0.845,-0.66,-0.87,0.40,-0.16,-0.19,-1.53,
0.845,-0.66,-0.87,0.40,-0.17,-0.16,-1.53,
0.846,-0.66,-0.87,0.40,-0.19,-0.11,-1.53,
0.846,-0.66,-0.87,0.40,-0.19,-0.09,-1.53,
0.846,-0.66,-0.87,0.40,-0.20,-0.07,-1.54,
0.85,-0.69,-0.85,0.11,-0.20,-0.07,-1.54,
0.851,-0.69,-0.85,0.11,-0.21,-0.04,-1.53,
0.854,-0.69,-0.85,0.11,-0.23,-0.02,-1.54,
0.855,-0.69,-0.85,0.11,-0.23,-0.00,-1.54,
0.855,-0.69,-0.85,0.11,-0.24,0.00,-1.55,
0.856,-0.69,-0.85,0.11,-0.25,0.01,-1.55,
0.857,-0.72,-0.79,-0.10,-0.25,0.01,-1.55,
0.857,-0.72,-0.79,-0.10,-0.26,0.01,-1.56,
0.861,-0.72,-0.79,-0.10,-0.26,0.01,-1.56,
0.861,-0.72,-0.79,-0.10,-0.27,-0.00,-1.57,
0.862,-0.72,-0.79,-0.10,-0.27,-0.01,-1.58,
0.864,-0.72,-0.79,-0.10,-0.28,-0.02,-1.59,
0.87,-0.77,-0.71,-0.29,-0.28,-0.02,-1.59,
0.871,-0.77,-0.71,-0.29,-0.28,-0.03,-1.59,
0.871,-0.77,-0.71,-0.29,-0.29,-0.04,-1.60,
0.872,-0.77,-0.71,-0.29,-0.29,-0.06,-1.62,
0.873,-0.77,-0.71,-0.29,-0.29,-0.07,-1.62,
0.874,-0.77,-0.71,-0.29,-0.29,-0.09,-1.62,
0.877,-0.92,-0.67,-0.41,-0.29,-0.09,-1.62,
0.877,-0.92,-0.67,-0.41,-0.29,-0.11,-1.63,
0.878,-0.92,-0.67,-0.41,-0.29,-0.13,-1.64,
0.882,-0.92,-0.67,-0.41,-0.29,-0.16,-1.64,
0.882,-0.92,-0.67,-0.41,-0.29,-0.17,-1.65,
0.885,-0.92,-0.67,-0.41,-0.30,-0.19,-1.65,
0.888,-1.17,-0.72,-0.53,-0.30,-0.19,-1.65,
0.888,-1.17,-0.72,-0.53,-0.30,-0.21,-1.65,
0.888,-1.17,-0.72,-0.53,-0.30,-0.24,-1.65,
0.891,-1.17,-0.72,-0.53,-0.30,-0.27,-1.64,
0.893,-1.17,-0.72,-0.53,-0.30,-0.28,-1.64,
0.894,-1.17,-0.72,-0.53,-0.30,-0.30,-1.64,
0.897,-1.43,-0.71,-0.60,-0.30,-0.30,-1.64,
0.897,-1.43,-0.71,-0.60,-0.31,-0.32,-1.63,
0.899,-1.43,-0.71,-0.60,-0.31,-0.34,-1.62,
0.901,-1.43,-0.71,-0.60,-0.31,-0.37,-1.61,
0.902,-1.43,-0.71,-0.60,-0.32,-0.37,-1.61,
0.904,-1.43,-0.71,-0.60,-0.32,-0.38,-1.60,
0.907,-1.52,-0.67,-0.66,-0.32,-0.38,-1.60,
0.907,-1.52,-0.67,-0.66,-0.33,-0.39,-1.59,
0.908,-1.52,-0.67,-0.66,-0.33,-0.41,-1.59,
0.911,-1.52,-0.67,-0.66,-0.34,-0.42,-1.58,
0.912,-1.52,-0.67,-0.66,-0.34,-0.43,-1.57,
0.915,-1.52,-0.67,-0.66,-0.35,-0.44,-1.57,
0.918,-1.57,-0.66,-0.64,-0.35,-0.44,-1.57,
0.918,-1.57,-0.66,-0.64,-0.36,-0.45,-1.56,
0.919,-1.57,-0.66,-0.64,-0.37,-0.46,-1.55,
0.922,-1.57,-0.66,-0.64,-0.37,-0.47,-1.54,
0.922,-1.57,-0.66,-0.64,-0.38,-0.47,-1.54,
0.925,-1.57,-0.66,-0.64,-0.38,-0.48,-1.53,
0.927,-1.49,-0.58,-0.47,-0.38,-0.48,-1.53,
0.928,-1.49,-0.58,-0.47,-0.38,-0.48,-1.53,
0.928,-1.49,-0.58,-0.47,-0.39,-0.47,-1.52,
0.935,-1.49,-0.58,-0.47,-0.40,-0.47,-1.52,
0.969,-1.49,-0.58,-0.47,-0.40,-0.46,-1.51,
0.97,-1.49,-0.58,-0.47,-0.40,-0.46,-1.51,
0.971,-1.38,-0.48,-0.28,-0.40,-0.46,-1.51,
0.972,-1.38,-0.48,-0.28,-0.41,-0.46,-1.52,
0.972,-1.38,-0.48,-0.28,-0.41,-0.45,-1.52,
0.973,-1.38,-0.48,-0.28,-0.42,-0.44,-1.52,
0.973,-1.38,-0.48,-0.28,-0.42,-0.43,-1.53,
0.974,-1.38,-0.48,-0.28,-0.42,-0.42,-1.53,
0.974,-1.15,-0.33,-0.18,-0.42,-0.42,-1.53,
0.975,-1.15,-0.33,-0.18,-0.43,-0.41,-1.54,
0.975,-1.15,-0.33,-0.18,-0.43,-0.40,-1.55,
0.975,-1.15,-0.33,-0.18,-0.44,-0.38,-1.56,
0.976,-1.15,-0.33,-0.18,-0.45,-0.38,-1.56,
0.976,-1.15,-0.33,-0.18,-0.45,-0.37,-1.57,
0.977,-1.12,-0.25,-0.17,-0.45,-0.37,-1.57,
0.977,-1.12,-0.25,-0.17,-0.46,-0.35,-1.58,
0.977,-1.12,-0.25,-0.17,-0.46,-0.34,-1.58,
0.978,-1.12,-0.25,-0.17,-0.47,-0.32,-1.59,
0.978,-1.12,-0.25,-0.17,-0.47,-0.31,-1.60,
0.979,-1.12,-0.25,-0.17,-0.47,-0.29,-1.60,
0.979,-1.24,-0.17,-0.13,-0.47,-0.29,-1.60,
0.98,-1.24,-0.17,-0.13,-0.48,-0.27,-1.60,
0.98,-1.24,-0.17,-0.13,-0.48,-0.26,-1.60,
0.98,-1.24,-0.17,-0.13,-0.49,-0.23,-1.60,
0.981,-1.24,-0.17,-0.13,-0.49,-0.22,-1.60,
0.981,-1.24,-0.17,-0.13,-0.50,-0.21,-1.60,
0.982,-1.50,-0.16,-0.14,-0.50,-0.21,-1.60,
0.982,-1.50,-0.16,-0.14,-0.50,-0.19,-1.60,
0.982,-1.50,-0.16,-0.14,-0.50,-0.18,-1.60,
0.983,-1.50,-0.16,-0.14,-0.52,-0.16,-1.59,
0.983,-1.50,-0.16,-0.14,-0.52,-0.16,-1.59,
0.994,-1.50,-0.16,-0.14,-0.53,-0.15,-1.59,
0.995,-1.64,-0.11,-0.21,-0.53,-0.15,-1.59,
0.995,-1.64,-0.11,-0.21,-0.53,-0.14,-1.59,
0.996,-1.64,-0.11,-0.21,-0.54,-0.14,-1.59,
0.996,-1.64,-0.11,-0.21,-0.55,-0.14,-1.58,
0.996,-1.64,-0.11,-0.21,-0.55,-0.14,-1.58,
0.997,-1.64,-0.11,-0.21,-0.56,-0.14,-1.58,
0.997,-1.76,0.00,-0.22,-0.56,-0.14,-1.58,
0.997,-1.76,0.00,-0.22,-0.57,-0.14,-1.58,
0.998,-1.76,0.00,-0.22,-0.58,-0.14,-1.57,
1.009,-1.76,0.00,-0.22,-0.59,-0.14,-1.57,
1.009,-1.76,0.00,-0.22,-0.59,-0.14,-1.57,
1.009,-1.76,0.00,-0.22,-0.59,-0.15,-1.57,
1.009,-1.78,-0.00,-0.10,-0.59,-0.15,-1.57,
1.01,-1.78,-0.00,-0.10,-0.60,-0.15,-1.56,
1.01,-1.78,-0.00,-0.10,-0.60,-0.16,-1.55,
1.011,-1.78,-0.00,-0.10,-0.60,-0.17,-1.54,
1.049,-1.78,-0.00,-0.10,-0.60,-0.18,-1.53,
1.049,-1.78,-0.00,-0.10,-0.60,-0.19,-1.52,
1.049,-1.97,-0.01,0.24,-0.60,-0.19,-1.52,
1.05,-1.97,-0.01,0.24,-0.60,-0.20,-1.51,
1.05,-1.97,-0.01,0.24,-0.60,-0.21,-1.49,
1.05,-1.97,-0.01,0.24,-0.58,-0.21,-1.47,
1.05,-1.97,-0.01,0.24,-0.57,-0.21,-1.47,
1.051,-1.97,-0.01,0.24,-0.57,-0.22,-1.46,
1.051,-1.83,0.08,0.66,-0.57,-0.22,-1.46,
1.051,-1.83,0.08,0.66,-0.56,-0.22,-1.46,
1.051,-1.83,0.08,0.66,-0.54,-0.22,-1.45,
1.052,-1.83,0.08,0.66,-0.52,-0.22,-1.44,
1.052,-1.83,0.08,0.66,-0.51,-0.22,-1.44,
1.052,-1.83,0.08,0.66,-0.49,-0.23,-1.44,
1.052,-1.69,0.17,0.98,-0.49,-0.23,-1.44,
1.052,-1.69,0.17,0.98,-0.48,-0.23,-1.43,
1.053,-1.69,0.17,0.98,-0.46,-0.23,-1.43,
1.053,-1.69,0.17,0.98,-0.43,-0.24,-1.42,
1.053,-1.69,0.17,0.98,-0.42,-0.24,-1.42,
1.053,-1.69,0.17,0.98,-0.41,-0.25,-1.41,
1.054,-1.59,0.32,1.16,-0.41,-0.25,-1.41,
1.054,-1.59,0.32,1.16,-0.39,-0.26,-1.41,
1.054,-1.59,0.32,1.16,-0.37,-0.26,-1.40,
1.054,-1.59,0.32,1.16,-0.35,-0.27,-1.39,
1.054,-1.59,0.32,1.16,-0.34,-0.26,-1.39,
1.055,-1.59,0.32,1.16,-0.33,-0.27,-1.39,
1.057,-1.48,0.39,1.00,-0.33,-0.27,-1.39,
1.057,-1.48,0.39,1.00,-0.33,-0.27,-1.39,
1.061,-1.48,0.39,1.00,-0.32,-0.27,-1.38,
1.062,-1.48,0.39,1.00,-0.31,-0.29,-1.37,
1.062,-1.48,0.39,1.00,-0.31,-0.29,-1.37,
1.066,-1.48,0.39,1.00,-0.31,-0.30,-1.37,
1.068,-1.36,0.44,0.72,-0.31,-0.30,-1.37,
1.068,-1.36,0.44,0.72,-0.31,-0.32,-1.36,
1.068,-1.36,0.44,0.72,-0.31,-0.33,-1.36,
1.072,-1.36,0.44,0.72,-0.31,-0.34,-1.35,
1.073,-1.36,0.44,0.72,-0.31,-0.35,-1.35,
1.075,-1.36,0.44,0.72,-0.31,-0.36,-1.34,
1.077,-1.32,0.53,0.68,-0.31,-0.36,-1.34,
1.077,-1.32,0.53,0.68,-0.31,-0.37,-1.34,
1.079,-1.32,0.53,0.68,-0.31,-0.38,-1.33,
1.082,-1.32,0.53,0.68,-0.31,-0.39,-1.33,
1.083,-1.32,0.53,0.68,-0.31,-0.39,-1.33,
1.095,-1.32,0.53,0.68,-0.31,-0.39,-1.32,
1.096,-1.13,0.53,0.82,-0.31,-0.39,-1.32,
1.097,-1.13,0.53,0.82,-0.31,-0.39,-1.32,
1.097,-1.13,0.53,0.82,-0.31,-0.39,-1.32,
1.097,-1.13,0.53,0.82,-0.31,-0.39,-1.31,
1.098,-1.13,0.53,0.82,-0.31,-0.39,-1.31,
1.098,-1.13,0.53,0.82,-0.31,-0.38,-1.31,
1.099,-0.99,0.54,0.92,-0.31,-0.38,-1.31,
1.099,-0.99,0.54,0.92,-0.30,-0.38,-1.30,
1.12,-0.99,0.54,0.92,-0.30,-0.37,-1.30,
1.121,-0.99,0.54,0.92,-0.30,-0.37,-1.29,
1.121,-0.99,0.54,0.92,-0.31,-0.37,-1.29,
1.121,-0.99,0.54,0.92,-0.31,-0.37,-1.29,
1.121,-0.88,0.57,0.95,-0.31,-0.37,-1.29,
1.121,-0.88,0.57,0.95,-0.31,-0.37,-1.28,
1.122,-0.88,0.57,0.95,-0.31,-0.36,-1.28,
1.122,-0.88,0.57,0.95,-0.31,-0.36,-1.27,
1.122,-0.88,0.57,0.95,-0.31,-0.36,-1.27,
1.122,-0.88,0.57,0.95,-0.31,-0.36,-1.27,
1.123,-0.83,0.58,0.99,-0.31,-0.36,-1.27,
1.123,-0.83,0.58,0.99,-0.31,-0.36,-1.27,
1.123,-0.83,0.58,0.99,-0.31,-0.36,-1.27,
1.123,-0.83,0.58,0.99,-0.31,-0.37,-1.27,
1.123,-0.83,0.58,0.99,-0.31,-0.37,-1.27,
1.127,-0.83,0.58,0.99,-0.31,-0.37,-1.27,
1.127,-0.73,0.58,1.08,-0.31,-0.37,-1.27,
1.128,-0.73,0.58,1.08,-0.31,-0.37,-1.27,
1.129,-0.73,0.58,1.08,-0.31,-0.38,-1.27,
1.131,-0.73,0.58,1.08,-0.31,-0.38,-1.27,
1.137,-0.73,0.58,1.08,-0.31,-0.38,-1.27,
1.138,-0.73,0.58,1.08,-0.31,-0.38,-1.27,
1.138,-0.67,0.59,1.28,-0.31,-0.38,-1.27,
1.138,-0.67,0.59,1.28,-0.30,-0.38,-1.27,
1.139,-0.67,0.59,1.28,-0.30,-0.38,-1.27,
1.141,-0.67,0.59,1.28,-0.29,-0.38,-1.28,
1.142,-0.67,0.59,1.28,-0.28,-0.37,-1.28,
1.145,-0.67,0.59,1.28,-0.27,-0.37,-1.28,
1.147,-0.60,0.51,1.51,-0.27,-0.37,-1.28,
1.147,-0.60,0.51,1.51,-0.26,-0.36,-1.28,
1.148,-0.60,0.51,1.51,-0.25,-0.35,-1.27,
1.151,-0.60,0.51,1.51,-0.23,-0.33,-1.27,
1.152,-0.60,0.51,1.51,-0.23,-0.32,-1.26,
1.157,-0.75,0.42,1.65,-0.23,-0.32,-1.26,
1.157,-0.75,0.42,1.65,-0.20,-0.30,-1.25,
1.157,-0.75,0.42,1.65,-0.20,-0.30,-1.25,
1.158,-0.75,0.42,1.65,-0.19,-0.28,-1.24,
1.161,-0.75,0.42,1.65,-0.18,-0.27,-1.23,
1.163,-0.75,0.42,1.65,-0.17,-0.26,-1.23,
1.164,-0.75,0.42,1.65,-0.16,-0.25,-1.22,
1.167,-0.86,0.32,1.64,-0.16,-0.25,-1.22,
1.167,-0.86,0.32,1.64,-0.15,-0.24,-1.21,
1.168,-0.86,0.32,1.64,-0.14,-0.23,-1.20,
1.171,-0.86,0.32,1.64,-0.12,-0.22,-1.19,
1.172,-0.86,0.32,1.64,-0.12,-0.22,-1.18,
1.174,-0.86,0.32,1.64,-0.11,-0.22,-1.17,
1.176,-0.97,0.35,1.50,-0.11,-0.22,-1.17,
1.177,-0.97,0.35,1.50,-0.10,-0.22,-1.17,
1.178,-0.97,0.35,1.50,-0.09,-0.22,-1.16,
1.181,-0.97,0.35,1.50,-0.07,-0.23,-1.15,
1.182,-0.97,0.35,1.50,-0.07,-0.23,-1.14,
1.184,-0.97,0.35,1.50,-0.06,-0.24,-1.13,
1.186,-0.99,0.40,1.22,-0.06,-0.24,-1.13,
1.187,-0.99,0.40,1.22,-0.06,-0.25,-1.13,
1.188,-0.99,0.40,1.22,-0.05,-0.26,-1.12,
1.191,-0.99,0.40,1.22,-0.04,-0.27,-1.11,
1.192,-0.99,0.40,1.22,-0.04,-0.27,-1.11,
1.194,-0.99,0.40,1.22,-0.04,-0.28,-1.10,
1.196,-0.99,0.44,0.96,-0.04,-0.28,-1.10,
1.196,-0.99,0.44,0.96,-0.04,-0.29,-1.10,
1.199,-0.99,0.44,0.96,-0.03,-0.30,-1.09,
1.201,-0.99,0.44,0.96,-0.03,-0.31,-1.09,
1.202,-0.99,0.44,0.96,-0.03,-0.31,-1.08,
1.206,-0.99,0.44,0.96,-0.03,-0.32,-1.08,
1.207,-1.00,0.45,0.76,-0.03,-0.32,-1.08,
1.207,-1.00,0.45,0.76,-0.03,-0.33,-1.07,
1.208,-1.00,0.45,0.76,-0.03,-0.34,-1.07,
1.211,-1.00,0.45,0.76,-0.03,-0.34,-1.06,
1.212,-1.00,0.45,0.76,-0.03,-0.35,-1.06,
1.214,-1.00,0.45,0.76,-0.03,-0.35,-1.05,
1.216,-1.07,0.44,0.62,-0.03,-0.35,-1.05,
1.217,-1.07,0.44,0.62,-0.03,-0.36,-1.04,
1.218,-1.07,0.44,0.62,-0.03,-0.36,-1.03,
1.221,-1.07,0.44,0.62,-0.03,-0.37,-1.02,
1.222,-1.07,0.44,0.62,-0.03,-0.37,-1.01,
1.224,-1.07,0.44,0.62,-0.03,-0.38,-1.00,
1.227,-1.17,0.35,0.50,-0.03,-0.38,-1.00,
1.227,-1.17,0.35,0.50,-0.03,-0.38,-0.99,
1.228,-1.17,0.35,0.50,-0.03,-0.38,-0.98,
1.231,-1.17,0.35,0.50,-0.03,-0.39,-0.96,
1.239,-1.17,0.35,0.50,-0.02,-0.39,-0.96,
1.24,-1.17,0.35,0.50,-0.02,-0.40,-0.94,
1.24,-1.33,0.32,0.54,-0.02,-0.40,-0.94,
1.241,-1.33,0.32,0.54,-0.02,-0.40,-0.93,
1.241,-1.33,0.32,0.54,-0.01,-0.41,-0.91,
1.245,-1.33,0.32,0.54,-0.00,-0.42,-0.89,
1.245,-1.33,0.32,0.54,-0.00,-0.42,-0.88,
1.246,-1.33,0.32,0.54,0.01,-0.42,-0.87,
1.247,-1.36,0.25,0.65,0.01,-0.42,-0.87,
1.247,-1.36,0.25,0.65,0.02,-0.43,-0.85,
1.255,-1.36,0.25,0.65,0.02,-0.45,-0.84,
1.256,-1.36,0.25,0.65,0.04,-0.46,-0.82,
1.256,-1.36,0.25,0.65,0.05,-0.46,-0.81,
1.257,-1.36,0.25,0.65,0.06,-0.47,-0.80,
1.257,-1.37,0.19,0.85,0.06,-0.47,-0.80,
1.257,-1.37,0.19,0.85,0.07,-0.48,-0.78,
1.258,-1.37,0.19,0.85,0.09,-0.50,-0.76,
1.261,-1.37,0.19,0.85,0.12,-0.51,-0.74,
1.262,-1.37,0.19,0.85,0.14,-0.52,-0.73,
1.264,-1.37,0.19,0.85,0.16,-0.53,-0.72,
1.284,-1.27,0.18,1.13,0.16,-0.53,-0.72,
1.285,-1.27,0.18,1.13,0.18,-0.54,-0.70,
1.285,-1.27,0.18,1.13,0.21,-0.55,-0.69,
1.285,-1.27,0.18,1.13,0.25,-0.57,-0.68,
1.286,-1.27,0.18,1.13,0.26,-0.57,-0.67,
1.286,-1.27,0.18,1.13,0.29,-0.58,-0.66,
1.287,-1.12,0.22,1.22,0.29,-0.58,-0.66,
1.287,-1.12,0.22,1.22,0.32,-0.59,-0.64,
1.287,-1.12,0.22,1.22,0.34,-0.60,-0.63,
1.288,-1.12,0.22,1.22,0.38,-0.61,-0.62,
1.288,-1.12,0.22,1.22,0.40,-0.62,-0.61,
1.289,-1.12,0.22,1.22,0.42,-0.63,-0.60,
1.289,-0.99,0.26,1.00,0.42,-0.63,-0.60,
1.289,-0.99,0.26,1.00,0.44,-0.63,-0.59,
1.29,-0.99,0.26,1.00,0.46,-0.64,-0.58,
1.291,-0.99,0.26,1.00,0.49,-0.65,-0.56,
1.296,-0.99,0.26,1.00,0.50,-0.65,-0.56,
1.297,-0.99,0.26,1.00,0.52,-0.66,-0.55,
1.3,-0.92,0.44,0.50,0.52,-0.66,-0.55,
1.301,-0.92,0.44,0.50,0.53,-0.67,-0.54,
1.301,-0.92,0.44,0.50,0.54,-0.68,-0.53,
1.302,-0.92,0.44,0.50,0.55,-0.70,-0.52,
1.303,-0.92,0.44,0.50,0.55,-0.70,-0.52,
1.305,-0.92,0.44,0.50,0.55,-0.72,-0.52,
1.307,-0.62,0.57,-0.18,0.55,-0.72,-0.52,
1.307,-0.62,0.57,-0.18,0.55,-0.73,-0.52,
1.308,-0.62,0.57,-0.18,0.55,-0.74,-0.52,
1.313,-0.62,0.57,-0.18,0.54,-0.76,-0.53,
1.313,-0.62,0.57,-0.18,0.53,-0.77,-0.53,
1.314,-0.62,0.57,-0.18,0.52,-0.78,-0.53,
1.317,-0.28,0.70,-0.81,0.52,-0.78,-0.53,
1.318,-0.28,0.70,-0.81,0.51,-0.80,-0.53,
1.319,-0.28,0.70,-0.81,0.49,-0.82,-0.54,
1.321,-0.28,0.70,-0.81,0.46,-0.86,-0.55,
1.322,-0.28,0.70,-0.81,0.45,-0.87,-0.55,
1.324,-0.28,0.70,-0.81,0.42,-0.89,-0.56,
1.327,0.03,0.71,-1.30,0.42,-0.89,-0.56,
1.327,0.03,0.71,-1.30,0.39,-0.92,-0.57,
1.328,0.03,0.71,-1.30,0.36,-0.95,-0.58,
1.332,0.03,0.71,-1.30,0.32,-0.98,-0.59,
1.332,0.03,0.71,-1.30,0.30,-0.99,-0.60,
1.335,0.03,0.71,-1.30,0.27,-1.01,-0.61,
1.337,0.40,0.75,-1.37,0.27,-1.01,-0.61,
1.337,0.40,0.75,-1.37,0.24,-1.03,-0.62,
1.338,0.40,0.75,-1.37,0.20,-1.05,-0.64,
1.341,0.40,0.75,-1.37,0.16,-1.06,-0.66,
1.342,0.40,0.75,-1.37,0.14,-1.07,-0.66,
1.344,0.40,0.75,-1.37,0.11,-1.07,-0.68,
1.347,0.81,0.68,-0.96,0.11,-1.07,-0.68,
1.347,0.81,0.68,-0.96,0.08,-1.08,-0.70,
1.37,0.81,0.68,-0.96,0.05,-1.08,-0.72,
1.372,0.81,0.68,-0.96,0.01,-1.07,-0.75,
1.372,0.81,0.68,-0.96,-0.01,-1.06,-0.76,
1.373,0.81,0.68,-0.96,-0.03,-1.05,-0.78,
1.373,1.26,0.55,-0.22,-0.03,-1.05,-0.78,
1.373,1.26,0.55,-0.22,-0.06,-1.03,-0.80,
1.373,1.26,0.55,-0.22,-0.08,-1.00,-0.82,
1.373,1.26,0.55,-0.22,-0.10,-0.96,-0.86,
1.374,1.26,0.55,-0.22,-0.11,-0.94,-0.87,
1.374,1.26,0.55,-0.22,-0.12,-0.90,-0.89,
1.374,1.52,0.41,0.66,-0.12,-0.90,-0.89,
1.374,1.52,0.41,0.66,-0.13,-0.86,-0.91,
1.375,1.52,0.41,0.66,-0.13,-0.82,-0.93,
1.375,1.52,0.41,0.66,-0.14,-0.75,-0.96,
1.375,1.52,0.41,0.66,-0.14,-0.70,-0.98,
1.375,1.52,0.41,0.66,-0.14,-0.67,-0.99,
1.377,1.65,0.30,1.27,-0.14,-0.67,-0.99,
1.377,1.65,0.30,1.27,-0.14,-0.62,-1.01,
1.378,1.65,0.30,1.27,-0.14,-0.56,-1.03,
1.386,1.65,0.30,1.27,-0.14,-0.47,-1.06,
1.387,1.65,0.30,1.27,-0.14,-0.44,-1.06,
1.387,1.65,0.30,1.27,-0.14,-0.38,-1.08,
1.387,1.56,0.16,1.39,-0.14,-0.38,-1.08,
1.388,1.56,0.16,1.39,-0.14,-0.31,-1.10,
1.388,1.56,0.16,1.39,-0.13,-0.25,-1.11,
1.391,1.56,0.16,1.39,-0.13,-0.15,-1.13,
1.392,1.56,0.16,1.39,-0.13,-0.12,-1.13,
1.394,1.56,0.16,1.39,-0.12,-0.05,-1.14,
1.397,1.28,0.00,1.13,-0.12,-0.05,-1.14,
1.397,1.28,0.00,1.13,-0.12,0.01,-1.15,
1.399,1.28,0.00,1.13,-0.11,0.06,-1.16,
1.401,1.28,0.00,1.13,-0.10,0.14,-1.16,
1.402,1.28,0.00,1.13,-0.10,0.17,-1.17,
1.404,1.28,0.00,1.13,-0.09,0.22,-1.17,
1.407,0.80,-0.04,0.63,-0.09,0.22,-1.17,
1.407,0.80,-0.04,0.63,-0.08,0.26,-1.17,
1.408,0.80,-0.04,0.63,-0.07,0.30,-1.16,
1.411,0.80,-0.04,0.63,-0.06,0.35,-1.16,
1.412,0.80,-0.04,0.63,-0.05,0.37,-1.16,
1.415,0.80,-0.04,0.63,-0.04,0.39,-1.15,
1.417,0.34,-0.04,-0.09,-0.04,0.39,-1.15,
1.417,0.34,-0.04,-0.09,-0.03,0.41,-1.14,
1.418,0.34,-0.04,-0.09,-0.03,0.43,-1.13,
1.421,0.34,-0.04,-0.09,-0.01,0.44,-1.12,
1.422,0.34,-0.04,-0.09,-0.01,0.44,-1.12,
1.425,0.34,-0.04,-0.09,-0.00,0.45,-1.11,
1.427,0.06,-0.00,-0.86,-0.00,0.45,-1.11,
1.428,0.06,-0.00,-0.86,-0.00,0.44,-1.10,
1.428,0.06,-0.00,-0.86,0.01,0.43,-1.09,
1.433,0.06,-0.00,-0.86,0.01,0.41,-1.08,
1.459,0.06,-0.00,-0.86,0.01,0.40,-1.07,
1.459,0.06,-0.00,-0.86,0.01,0.38,-1.06,
1.46,-0.05,0.15,-1.62,0.01,0.38,-1.06,
1.46,-0.05,0.15,-1.62,0.01,0.36,-1.06,
1.46,-0.05,0.15,-1.62,0.01,0.33,-1.05,
1.461,-0.05,0.15,-1.62,-0.00,0.28,-1.04,
1.461,-0.05,0.15,-1.62,-0.00,0.26,-1.04,
1.461,-0.05,0.15,-1.62,-0.01,0.23,-1.03,
1.461,-0.13,0.22,-2.24,-0.01,0.23,-1.03,
1.462,-0.13,0.22,-2.24,-0.02,0.19,-1.03,
1.462,-0.13,0.22,-2.24,-0.03,0.14,-1.02,
1.462,-0.13,0.22,-2.24,-0.06,0.07,-1.01,
1.462,-0.13,0.22,-2.24,-0.08,0.03,-1.00,
1.463,-0.13,0.22,-2.24,-0.08,0.00,-1.00,
1.463,-0.14,0.26,-2.53,-0.08,0.00,-1.00,
1.463,-0.14,0.26,-2.53,-0.10,-0.04,-0.99,
1.463,-0.14,0.26,-2.53,-0.12,-0.09,-0.98,
1.464,-0.14,0.26,-2.53,-0.15,-0.15,-0.97,
1.464,-0.14,0.26,-2.53,-0.16,-0.17,-0.97,
1.469,-0.14,0.26,-2.53,-0.17,-0.20,-0.96,
1.469,-0.10,0.21,-2.26,-0.17,-0.20,-0.96,
1.469,-0.10,0.21,-2.26,-0.19,-0.24,-0.96,
1.469,-0.10,0.21,-2.26,-0.20,-0.27,-0.95,
1.471,-0.10,0.21,-2.26,-0.22,-0.30,-0.94,
1.473,-0.10,0.21,-2.26,-0.23,-0.32,-0.93,
1.474,-0.10,0.21,-2.26,-0.24,-0.33,-0.93,
1.477,0.02,0.21,-1.63,-0.24,-0.33,-0.93,
1.477,0.02,0.21,-1.63,-0.25,-0.34,-0.92,
1.479,0.02,0.21,-1.63,-0.26,-0.36,-0.91,
1.486,0.02,0.21,-1.63,-0.26,-0.37,-0.90,
1.487,0.02,0.21,-1.63,-0.27,-0.37,-0.90,
1.487,0.02,0.21,-1.63,-0.27,-0.37,-0.89,
1.487,0.10,0.11,-0.89,-0.27,-0.37,-0.89,
1.488,0.10,0.11,-0.89,-0.27,-0.37,-0.88,
1.488,0.10,0.11,-0.89,-0.28,-0.37,-0.87,
1.492,0.10,0.11,-0.89,-0.28,-0.35,-0.86,
1.492,0.10,0.11,-0.89,-0.28,-0.35,-0.85,
1.495,0.10,0.11,-0.89,-0.27,-0.32,-0.84,
1.514,0.18,0.15,-0.24,-0.27,-0.32,-0.84,
1.514,0.18,0.15,-0.24,-0.26,-0.30,-0.83,
1.515,0.18,0.15,-0.24,-0.26,-0.29,-0.82,
1.515,0.18,0.15,-0.24,-0.26,-0.27,-0.80,
1.515,0.18,0.15,-0.24,-0.25,-0.24,-0.80,
1.515,0.18,0.15,-0.24,-0.24,-0.23,-0.79,
1.515,0.32,0.25,0.12,-0.24,-0.23,-0.79,
1.515,0.32,0.25,0.12,-0.24,-0.21,-0.78,
1.516,0.32,0.25,0.12,-0.23,-0.19,-0.78,
1.516,0.32,0.25,0.12,-0.23,-0.18,-0.77,
1.516,0.32,0.25,0.12,-0.22,-0.16,-0.77,
1.516,0.32,0.25,0.12,-0.21,-0.14,-0.77,
1.517,0.56,0.46,0.18,-0.21,-0.14,-0.77,
1.518,0.56,0.46,0.18,-0.21,-0.13,-0.78,
1.519,0.56,0.46,0.18,-0.21,-0.13,-0.78,
1.521,0.56,0.46,0.18,-0.19,-0.12,-0.78,
1.522,0.56,0.46,0.18,-0.19,-0.11,-0.79,
1.525,0.56,0.46,0.18,-0.18,-0.10,-0.79,
1.527,0.74,0.63,0.06,-0.18,-0.10,-0.79,
1.527,0.74,0.63,0.06,-0.18,-0.09,-0.80,
1.528,0.74,0.63,0.06,-0.18,-0.09,-0.81,
1.532,0.74,0.63,0.06,-0.17,-0.08,-0.81,
1.538,0.74,0.63,0.06,-0.17,-0.07,-0.82,
1.539,0.74,0.63,0.06,-0.17,-0.06,-0.82,
1.541,0.82,0.74,-0.15,-0.17,-0.06,-0.82,
1.541,0.82,0.74,-0.15,-0.16,-0.05,-0.83,
1.541,0.82,0.74,-0.15,-0.16,-0.04,-0.83,
1.541,0.82,0.74,-0.15,-0.15,-0.04,-0.84,
1.546,0.82,0.74,-0.15,-0.15,-0.03,-0.84,
1.547,0.82,0.74,-0.15,-0.15,-0.02,-0.85,
1.55,0.75,0.82,-0.43,-0.15,-0.02,-0.85,
1.55,0.75,0.82,-0.43,-0.15,-0.01,-0.86,
1.551,0.75,0.82,-0.43,-0.15,-0.01,-0.86,
1.552,0.75,0.82,-0.43,-0.15,-0.00,-0.87,
1.552,0.75,0.82,-0.43,-0.15,0.00,-0.88,
1.554,0.75,0.82,-0.43,-0.15,0.01,-0.88,
1.56,0.67,0.94,-0.82,-0.15,0.01,-0.88,
1.56,0.67,0.94,-0.82,-0.15,0.01,-0.89,
1.56,0.67,0.94,-0.82,-0.15,0.01,-0.89,
1.563,0.67,0.94,-0.82,-0.15,0.01,-0.89,
1.566,0.67,0.94,-0.82,-0.16,0.01,-0.90,
1.566,0.67,0.94,-0.82,-0.16,0.00,-0.90,
1.569,0.48,0.98,-1.18,-0.16,0.00,-0.90,
1.569,0.48,0.98,-1.18,-0.16,0.00,-0.90,
1.57,0.48,0.98,-1.18,-0.17,-0.00,-0.90,
1.571,0.48,0.98,-1.18,-0.17,-0.01,-0.90,
1.572,0.48,0.98,-1.18,-0.18,-0.01,-0.89,
1.574,0.48,0.98,-1.18,-0.18,-0.01,-0.89,
1.577,0.27,1.02,-1.35,-0.18,-0.01,-0.89,
1.577,0.27,1.02,-1.35,-0.18,-0.02,-0.88,
1.578,0.27,1.02,-1.35,-0.18,-0.03,-0.88,
1.581,0.27,1.02,-1.35,-0.18,-0.03,-0.87,
1.582,0.27,1.02,-1.35,-0.19,-0.04,-0.86,
1.585,0.27,1.02,-1.35,-0.19,-0.04,-0.86,
1.586,0.11,1.04,-1.39,-0.19,-0.04,-0.86,
1.589,0.11,1.04,-1.39,-0.19,-0.05,-0.85,
1.589,0.11,1.04,-1.39,-0.19,-0.05,-0.84,
1.591,0.11,1.04,-1.39,-0.19,-0.06,-0.83,
1.592,0.11,1.04,-1.39,-0.19,-0.07,-0.83,
1.595,0.11,1.04,-1.39,-0.19,-0.08,-0.82,
1.597,-0.03,1.09,-1.39,-0.19,-0.08,-0.82,
1.598,-0.03,1.09,-1.39,-0.19,-0.09,-0.81,
1.609,-0.03,1.09,-1.39,-0.19,-0.10,-0.80,
1.609,-0.03,1.09,-1.39,-0.20,-0.11,-0.79,
1.609,-0.03,1.09,-1.39,-0.20,-0.12,-0.78,
1.61,-0.03,1.09,-1.39,-0.19,-0.12,-0.77,
1.61,-0.06,1.11,-1.37,-0.19,-0.12,-0.77,
1.61,-0.06,1.11,-1.37,-0.20,-0.13,-0.77,
1.61,-0.06,1.11,-1.37,-0.19,-0.13,-0.76,
1.611,-0.06,1.11,-1.37,-0.19,-0.13,-0.75,
1.612,-0.06,1.11,-1.37,-0.19,-0.14,-0.75,
1.614,-0.06,1.11,-1.37,-0.19,-0.14,-0.74,
1.617,0.02,1.28,-1.26,-0.19,-0.14,-0.74,
1.617,0.02,1.28,-1.26,-0.19,-0.14,-0.73,
1.619,0.02,1.28,-1.26,-0.18,-0.14,-0.73,
1.621,0.02,1.28,-1.26,-0.18,-0.14,-0.73,
1.622,0.02,1.28,-1.26,-0.18,-0.14,-0.73,
1.624,0.02,1.28,-1.26,-0.18,-0.14,-0.73,
1.626,0.26,1.37,-1.21,-0.18,-0.14,-0.73,
1.627,0.26,1.37,-1.21,-0.17,-0.14,-0.73,
1.628,0.26,1.37,-1.21,-0.17,-0.13,-0.73,
1.635,0.26,1.37,-1.21,-0.17,-0.13,-0.74,
1.636,0.26,1.37,-1.21,-0.17,-0.12,-0.74,
1.636,0.26,1.37,-1.21,-0.17,-0.12,-0.75,
1.639,0.47,1.49,-1.25,-0.17,-0.12,-0.75,
1.64,0.47,1.49,-1.25,-0.16,-0.12,-0.75,
1.64,0.47,1.49,-1.25,-0.16,-0.12,-0.76,
1.641,0.47,1.49,-1.25,-0.17,-0.11,-0.76,
1.642,0.47,1.49,-1.25,-0.17,-0.11,-0.77,
1.645,0.47,1.49,-1.25,-0.17,-0.11,-0.78,
1.647,0.55,1.48,-1.32,-0.17,-0.11,-0.78,
1.647,0.55,1.48,-1.32,-0.17,-0.11,-0.78,
1.648,0.55,1.48,-1.32,-0.17,-0.10,-0.79,
1.651,0.55,1.48,-1.32,-0.18,-0.10,-0.79,
1.652,0.55,1.48,-1.32,-0.18,-0.10,-0.80,
1.654,0.55,1.48,-1.32,-0.19,-0.09,-0.80,
1.659,0.55,1.48,-1.32,-0.20,-0.08,-0.80,
1.659,0.55,1.48,-1.32,-0.20,-0.08,-0.80,
1.66,0.45,1.53,-1.52,-0.20,-0.08,-0.80,
1.661,0.45,1.53,-1.52,-0.21,-0.08,-0.81,
1.663,0.45,1.53,-1.52,-0.22,-0.08,-0.81,
1.664,0.45,1.53,-1.52,-0.23,-0.08,-0.81,
1.667,0.31,1.45,-1.58,-0.23,-0.08,-0.81,
1.667,0.31,1.45,-1.58,-0.24,-0.08,-0.80,
1.669,0.31,1.45,-1.58,-0.24,-0.08,-0.80,
1.671,0.31,1.45,-1.58,-0.25,-0.08,-0.80,
1.672,0.31,1.45,-1.58,-0.26,-0.08,-0.80,
1.674,0.31,1.45,-1.58,-0.27,-0.08,-0.79,
1.677,0.16,1.52,-1.64,-0.27,-0.08,-0.79,
1.677,0.16,1.52,-1.64,-0.28,-0.09,-0.79,
1.679,0.16,1.52,-1.64,-0.30,-0.08,-0.79,
1.682,0.16,1.52,-1.64,-0.30,-0.08,-0.79,
1.682,0.16,1.52,-1.64,-0.31,-0.08,-0.78,
1.685,0.16,1.52,-1.64,-0.32,-0.07,-0.78,
1.687,0.10,1.45,-1.55,-0.32,-0.07,-0.78,
1.687,0.10,1.45,-1.55,-0.34,-0.07,-0.78,
1.688,0.10,1.45,-1.55,-0.34,-0.07,-0.78,
1.691,0.10,1.45,-1.55,-0.36,-0.06,-0.78,
1.692,0.10,1.45,-1.55,-0.36,-0.06,-0.78,
1.694,0.10,1.45,-1.55,-0.37,-0.06,-0.78,
1.699,0.08,1.46,-1.34,-0.37,-0.06,-0.78,
1.704,0.08,1.46,-1.34,-0.38,-0.06,-0.78,
1.704,0.08,1.46,-1.34,-0.38,-0.05,-0.78,
1.705,0.08,1.46,-1.34,-0.38,-0.05,-0.78,
1.705,0.08,1.46,-1.34,-0.39,-0.04,-0.78,
1.707,0.08,1.46,-1.34,-0.38,-0.04,-0.78,
1.708,-0.02,1.39,-1.02,-0.38,-0.04,-0.78,
1.708,-0.02,1.39,-1.02,-0.38,-0.03,-0.78,
1.709,-0.02,1.39,-1.02,-0.38,-0.02,-0.77,
1.711,-0.02,1.39,-1.02,-0.38,-0.02,-0.77,
1.712,-0.02,1.39,-1.02,-0.37,-0.01,-0.76,
1.715,-0.02,1.39,-1.02,-0.37,-0.01,-0.76,
1.717,-0.17,1.38,-0.75,-0.37,-0.01,-0.76,
1.718,-0.17,1.38,-0.75,-0.36,-0.00,-0.75,
1.719,-0.17,1.38,-0.75,-0.36,0.00,-0.74,
1.721,-0.17,1.38,-0.75,-0.34,0.01,-0.73,
1.722,-0.17,1.38,-0.75,-0.34,0.02,-0.73,
1.724,-0.17,1.38,-0.75,-0.33,0.02,-0.72,
1.726,-0.21,1.37,-0.58,-0.33,0.02,-0.72,
1.727,-0.21,1.37,-0.58,-0.32,0.03,-0.72,
1.728,-0.21,1.37,-0.58,-0.31,0.04,-0.71,
1.731,-0.21,1.37,-0.58,-0.31,0.04,-0.70,
1.736,-0.21,1.37,-0.58,-0.30,0.04,-0.70,
1.736,-0.21,1.37,-0.58,-0.29,0.04,-0.69,
1.737,-0.32,1.40,-0.57,-0.29,0.04,-0.69,
1.737,-0.32,1.40,-0.57,-0.29,0.04,-0.68,
1.738,-0.32,1.40,-0.57,-0.28,0.04,-0.67,
1.741,-0.32,1.40,-0.57,-0.27,0.05,-0.66,
1.742,-0.32,1.40,-0.57,-0.27,0.05,-0.65,
1.744,-0.32,1.40,-0.57,-0.26,0.05,-0.64,
1.756,-0.49,1.39,-0.61,-0.26,0.05,-0.64,
1.756,-0.49,1.39,-0.61,-0.26,0.05,-0.63,
1.757,-0.49,1.39,-0.61,-0.25,0.05,-0.62,
1.757,-0.49,1.39,-0.61,-0.24,0.05,-0.60,
1.757,-0.49,1.39,-0.61,-0.24,0.04,-0.59,
1.758,-0.49,1.39,-0.61,-0.23,0.04,-0.58,
1.758,-0.69,1.43,-0.59,-0.23,0.04,-0.58,
1.758,-0.69,1.43,-0.59,-0.22,0.04,-0.56,
1.786,-0.69,1.43,-0.59,-0.22,0.04,-0.55,
1.786,-0.69,1.43,-0.59,-0.21,0.04,-0.52,
1.787,-0.69,1.43,-0.59,-0.21,0.04,-0.51,
1.787,-0.69,1.43,-0.59,-0.20,0.03,-0.50,
1.809,-0.81,1.38,-0.64,-0.20,0.03,-0.50,
1.809,-0.81,1.38,-0.64,-0.20,0.04,-0.48,
1.809,-0.81,1.38,-0.64,-0.20,0.04,-0.46,
1.81,-0.81,1.38,-0.64,-0.20,0.04,-0.43,
1.81,-0.81,1.38,-0.64,-0.20,0.04,-0.42,
1.81,-0.81,1.38,-0.64,-0.19,0.04,-0.40,
1.81,-1.03,1.37,-0.60,-0.19,0.04,-0.40,
1.811,-1.03,1.37,-0.60,-0.19,0.03,-0.37,
1.811,-1.03,1.37,-0.60,-0.18,0.03,-0.35,
1.811,-1.03,1.37,-0.60,-0.18,0.02,-0.32,
1.811,-1.03,1.37,-0.60,-0.18,0.01,-0.31,
1.812,-1.03,1.37,-0.60,-0.17,0.00,-0.28,
1.812,-1.11,1.36,-0.41,-0.17,0.00,-0.28,
1.812,-1.11,1.36,-0.41,-0.16,-0.01,-0.26,
1.812,-1.11,1.36,-0.41,-0.16,-0.02,-0.25,
1.813,-1.11,1.36,-0.41,-0.14,-0.03,-0.22,
1.813,-1.11,1.36,-0.41,-0.13,-0.03,-0.21,
1.813,-1.11,1.36,-0.41,-0.12,-0.03,-0.20,
1.813,-0.95,1.45,-0.14,-0.12,-0.03,-0.20,
1.814,-0.95,1.45,-0.14,-0.11,-0.04,-0.19,
1.814,-0.95,1.45,-0.14,-0.10,-0.05,-0.17,
1.814,-0.95,1.45,-0.14,-0.08,-0.06,-0.15,
1.815,-0.95,1.45,-0.14,-0.07,-0.07,-0.14,
1.815,-0.95,1.45,-0.14,-0.05,-0.09,-0.13,
1.815,-0.90,1.35,0.11,-0.05,-0.09,-0.13,
1.815,-0.90,1.35,0.11,-0.04,-0.10,-0.11,
1.816,-0.90,1.35,0.11,-0.02,-0.11,-0.10,
1.816,-0.90,1.35,0.11,0.01,-0.13,-0.08,
1.816,-0.90,1.35,0.11,0.01,-0.14,-0.07,
1.816,-0.90,1.35,0.11,0.03,-0.15,-0.05,
1.822,-0.87,1.44,0.23,0.03,-0.15,-0.05,
1.822,-0.87,1.44,0.23,0.05,-0.16,-0.04,
1.823,-0.87,1.44,0.23,0.06,-0.17,-0.03,
1.823,-0.87,1.44,0.23,0.09,-0.19,-0.01,
1.823,-0.87,1.44,0.23,0.09,-0.20,-0.01,
1.825,-0.87,1.44,0.23,0.11,-0.22,0.00,
1.827,-0.75,1.35,0.18,0.11,-0.22,0.00,
1.827,-0.75,1.35,0.18,0.12,-0.23,0.02,
1.83,-0.75,1.35,0.18,0.14,-0.24,0.03,
1.832,-0.75,1.35,0.18,0.15,-0.27,0.04,
1.832,-0.75,1.35,0.18,0.16,-0.28,0.05,
1.835,-0.75,1.35,0.18,0.17,-0.29,0.06,
1.837,-0.73,1.37,0.00,0.17,-0.29,0.06,
1.837,-0.73,1.37,0.00,0.18,-0.30,0.07,
1.839,-0.73,1.37,0.00,0.18,-0.32,0.08,
1.842,-0.73,1.37,0.00,0.19,-0.34,0.09,
1.842,-0.73,1.37,0.00,0.19,-0.35,0.10,
1.847,-0.73,1.37,0.00,0.19,-0.36,0.11,
1.848,-0.63,1.30,-0.17,0.19,-0.36,0.11,
1.848,-0.63,1.30,-0.17,0.20,-0.37,0.12,
1.85,-0.63,1.30,-0.17,0.20,-0.38,0.13,
1.851,-0.63,1.30,-0.17,0.21,-0.39,0.14,
1.852,-0.63,1.30,-0.17,0.21,-0.40,0.15,
1.854,-0.63,1.30,-0.17,0.21,-0.40,0.16,
1.857,-0.66,1.26,-0.26,0.21,-0.40,0.16,
1.857,-0.66,1.26,-0.26,0.21,-0.41,0.17,
1.858,-0.66,1.26,-0.26,0.21,-0.41,0.18,
1.861,-0.66,1.26,-0.26,0.21,-0.40,0.20,
1.862,-0.66,1.26,-0.26,0.21,-0.40,0.21,
1.865,-0.66,1.26,-0.26,0.21,-0.40,0.22,
1.87,-0.74,1.15,-0.25,0.21,-0.40,0.22,
1.871,-0.74,1.15,-0.25,0.21,-0.40,0.23,
1.871,-0.74,1.15,-0.25,0.21,-0.39,0.25,
1.871,-0.74,1.15,-0.25,0.20,-0.39,0.27,
1.872,-0.74,1.15,-0.25,0.20,-0.38,0.28,
1.874,-0.74,1.15,-0.25,0.20,-0.37,0.29,
1.877,-0.81,1.05,-0.15,0.20,-0.37,0.29,
1.877,-0.81,1.05,-0.15,0.20,-0.36,0.30,
1.881,-0.81,1.05,-0.15,0.20,-0.35,0.32,
1.881,-0.81,1.05,-0.15,0.20,-0.33,0.34,
1.882,-0.81,1.05,-0.15,0.20,-0.32,0.35,
1.885,-0.81,1.05,-0.15,0.20,-0.31,0.36,
1.887,-0.80,0.95,0.04,0.20,-0.31,0.36,
1.887,-0.80,0.95,0.04,0.21,-0.30,0.38,
1.888,-0.80,0.95,0.04,0.21,-0.28,0.39,
1.891,-0.80,0.95,0.04,0.22,-0.26,0.41,
1.892,-0.80,0.95,0.04,0.22,-0.25,0.41,
1.894,-0.80,0.95,0.04,0.22,-0.23,0.43,
1.903,-0.74,0.94,0.15,0.22,-0.23,0.43,
1.904,-0.74,0.94,0.15,0.22,-0.21,0.44,
1.904,-0.74,0.94,0.15,0.23,-0.19,0.45,
1.904,-0.74,0.94,0.15,0.23,-0.16,0.46,
1.904,-0.74,0.94,0.15,0.23,-0.14,0.47,
1.906,-0.74,0.94,0.15,0.23,-0.12,0.48,
1.911,-0.68,0.87,0.04,0.23,-0.12,0.48,
1.911,-0.68,0.87,0.04,0.23,-0.10,0.49,
1.911,-0.68,0.87,0.04,0.23,-0.08,0.50,
1.922,-0.68,0.87,0.04,0.22,-0.04,0.51,
1.923,-0.68,0.87,0.04,0.22,-0.03,0.52,
1.923,-0.68,0.87,0.04,0.21,-0.00,0.53,
1.923,-0.67,0.90,-0.24,0.21,-0.00,0.53,
1.923,-0.67,0.90,-0.24,0.20,0.02,0.54,
1.923,-0.67,0.90,-0.24,0.19,0.05,0.54,
1.923,-0.67,0.90,-0.24,0.17,0.10,0.55,
1.923,-0.67,0.90,-0.24,0.16,0.11,0.56,
1.924,-0.67,0.90,-0.24,0.15,0.14,0.56,
1.926,-0.61,0.88,-0.63,0.15,0.14,0.56,
1.927,-0.61,0.88,-0.63,0.13,0.17,0.57,
1.929,-0.61,0.88,-0.63,0.11,0.21,0.57,
1.931,-0.61,0.88,-0.63,0.07,0.25,0.57,
1.953,-0.61,0.88,-0.63,0.05,0.27,0.57,
1.953,-0.61,0.88,-0.63,0.02,0.29,0.57,
1.954,-0.59,0.93,-1.10,0.02,0.29,0.57,
1.954,-0.59,0.93,-1.10,-0.01,0.31,0.57,
1.954,-0.59,0.93,-1.10,-0.04,0.33,0.57,
1.955,-0.59,0.93,-1.10,-0.10,0.35,0.57,
1.955,-0.59,0.93,-1.10,-0.12,0.36,0.57,
1.956,-0.59,0.93,-1.10,-0.16,0.36,0.57,
1.956,-0.56,0.76,-1.42,-0.16,0.36,0.57,
1.956,-0.56,0.76,-1.42,-0.21,0.36,0.56,
1.957,-0.56,0.76,-1.42,-0.25,0.35,0.56,
1.957,-0.56,0.76,-1.42,-0.32,0.34,0.56,
1.958,-0.56,0.76,-1.42,-0.35,0.34,0.56,
1.958,-0.56,0.76,-1.42,-0.39,0.33,0.56,
1.958,-0.66,0.55,-1.28,-0.39,0.33,0.56,
1.959,-0.66,0.55,-1.28,-0.44,0.33,0.56,
1.959,-0.66,0.55,-1.28,-0.49,0.32,0.56,
1.967,-0.66,0.55,-1.28,-0.55,0.32,0.56,
1.968,-0.66,0.55,-1.28,-0.57,0.32,0.57,
1.968,-0.66,0.55,-1.28,-0.60,0.32,0.57,
1.968,-0.80,0.19,-0.37,-0.60,0.32,0.57,
1.969,-0.80,0.19,-0.37,-0.63,0.33,0.57,
1.969,-0.80,0.19,-0.37,-0.66,0.34,0.58,
1.973,-0.80,0.19,-0.37,-0.69,0.36,0.59,
1.973,-0.80,0.19,-0.37,-0.70,0.37,0.59,
1.976,-0.80,0.19,-0.37,-0.72,0.39,0.60,
1.979,-0.92,-0.20,0.95,-0.72,0.39,0.60,
1.98,-0.92,-0.20,0.95,-0.74,0.42,0.60,
1.981,-0.92,-0.20,0.95,-0.75,0.44,0.61,
1.982,-0.92,-0.20,0.95,-0.76,0.48,0.62,
1.983,-0.92,-0.20,0.95,-0.76,0.50,0.62,
1.985,-0.92,-0.20,0.95,-0.77,0.52,0.63,
1.987,-0.91,-0.53,2.03,-0.77,0.52,0.63,
1.988,-0.91,-0.53,2.03,-0.78,0.55,0.64,
1.99,-0.91,-0.53,2.03,-0.79,0.57,0.65,
1.991,-0.91,-0.53,2.03,-0.79,0.61,0.66,
1.993,-0.91,-0.53,2.03,-0.80,0.62,0.66,
1.995,-0.91,-0.53,2.03,-0.80,0.65,0.67,
1.997,-0.85,-0.86,2.70,-0.80,0.65,0.67,
1.998,-0.85,-0.86,2.70,-0.81,0.67,0.67,
1.999,-0.85,-0.86,2.70,-0.82,0.69,0.68,
2.002,-0.85,-0.86,2.70,-0.83,0.73,0.68,
2.003,-0.85,-0.86,2.70,-0.83,0.74,0.68,
2.004,-0.85,-0.86,2.70,-0.84,0.76,0.68,
2.007,-0.71,-1.08,3.14,-0.84,0.76,0.68,
2.007,-0.71,-1.08,3.14,-0.84,0.78,0.68,
2.008,-0.71,-1.08,3.14,-0.84,0.79,0.68,
2.013,-0.71,-1.08,3.14,-0.84,0.81,0.68,
2.014,-0.71,-1.08,3.14,-0.84,0.81,0.68,
2.015,-0.71,-1.08,3.14,-0.84,0.82,0.68,
2.017,-0.82,-1.29,3.65,-0.84,0.82,0.68,
2.017,-0.82,-1.29,3.65,-0.84,0.83,0.68,
2.018,-0.82,-1.29,3.65,-0.83,0.84,0.68,
2.021,-0.82,-1.29,3.65,-0.82,0.85,0.69,
2.022,-0.82,-1.29,3.65,-0.81,0.85,0.69,
2.024,-0.82,-1.29,3.65,-0.80,0.85,0.69,
2.027,-1.16,-1.50,4.28,-0.80,0.85,0.69,
2.027,-1.16,-1.50,4.28,-0.78,0.86,0.70,
2.037,-1.16,-1.50,4.28,-0.76,0.87,0.71,
2.037,-1.16,-1.50,4.28,-0.73,0.88,0.73,
2.037,-1.16,-1.50,4.28,-0.71,0.88,0.74,
2.037,-1.16,-1.50,4.28,-0.68,0.89,0.75,
2.038,-1.74,-1.69,4.83,-0.68,0.89,0.75,
2.038,-1.74,-1.69,4.83,-0.65,0.89,0.77,
2.038,-1.74,-1.69,4.83,-0.61,0.89,0.79,
2.041,-1.74,-1.69,4.83,-0.55,0.90,0.83,
2.042,-1.74,-1.69,4.83,-0.53,0.90,0.84,
2.056,-1.74,-1.69,4.83,-0.49,0.90,0.86,
2.056,-2.23,-1.81,5.01,-0.49,0.90,0.86,
2.057,-2.23,-1.81,5.01,-0.44,0.90,0.89,
2.057,-2.23,-1.81,5.01,-0.39,0.91,0.92,
2.057,-2.23,-1.81,5.01,-0.32,0.90,0.97,
2.057,-2.23,-1.81,5.01,-0.30,0.90,0.98,
2.057,-2.23,-1.81,5.01,-0.25,0.90,1.02,
2.057,-2.61,-1.89,4.61,-0.25,0.90,1.02,
2.058,-2.61,-1.89,4.61,-0.21,0.89,1.05,
2.059,-2.61,-1.89,4.61,-0.16,0.88,1.08,
2.065,-2.61,-1.89,4.61,-0.10,0.85,1.13,
2.066,-2.61,-1.89,4.61,-0.08,0.84,1.14,
2.066,-2.61,-1.89,4.61,-0.04,0.81,1.17,
2.069,-2.72,-1.77,3.70,-0.04,0.81,1.17,
2.069,-2.72,-1.77,3.70,0.00,0.78,1.20,
2.07,-2.72,-1.77,3.70,0.04,0.74,1.23,
2.071,-2.72,-1.77,3.70,0.09,0.68,1.27,
2.074,-2.72,-1.77,3.70,0.10,0.66,1.28,
2.075,-2.72,-1.77,3.70,0.13,0.62,1.31,
2.077,-2.74,-1.59,2.66,0.13,0.62,1.31,
2.077,-2.74,-1.59,2.66,0.16,0.57,1.33,
2.079,-2.74,-1.59,2.66,0.18,0.52,1.35,
2.081,-2.74,-1.59,2.66,0.21,0.44,1.38,
2.083,-2.74,-1.59,2.66,0.21,0.41,1.39,
2.085,-2.74,-1.59,2.66,0.23,0.35,1.40,
2.088,-2.43,-1.30,1.62,0.23,0.35,1.40,
2.088,-2.43,-1.30,1.62,0.24,0.29,1.42,
2.089,-2.43,-1.30,1.62,0.24,0.23,1.43,
2.092,-2.43,-1.30,1.62,0.25,0.15,1.44,
2.092,-2.43,-1.30,1.62,0.25,0.12,1.44,
2.095,-2.43,-1.30,1.62,0.24,0.06,1.45,
2.099,-2.04,-1.15,0.92,0.24,0.06,1.45,
2.1,-2.04,-1.15,0.92,0.24,-0.00,1.45,
2.119,-2.04,-1.15,0.92,0.23,-0.06,1.45,
2.119,-2.04,-1.15,0.92,0.22,-0.14,1.45,
2.119,-2.04,-1.15,0.92,0.22,-0.17,1.45,
2.12,-2.04,-1.15,0.92,0.21,-0.22,1.44,
2.12,-1.48,-1.00,0.64,0.21,-0.22,1.44,
2.12,-1.48,-1.00,0.64,0.19,-0.27,1.44,
2.121,-1.48,-1.00,0.64,0.18,-0.32,1.43,
2.121,-1.48,-1.00,0.64,0.16,-0.39,1.41,
2.121,-1.48,-1.00,0.64,0.16,-0.42,1.40,
2.121,-1.48,-1.00,0.64,0.14,-0.46,1.39,
2.122,-0.88,-0.95,0.81,0.14,-0.46,1.39,
2.122,-0.88,-0.95,0.81,0.13,-0.50,1.38,
2.127,-0.88,-0.95,0.81,0.12,-0.54,1.36,
2.127,-0.88,-0.95,0.81,0.11,-0.59,1.33,
2.127,-0.88,-0.95,0.81,0.10,-0.60,1.32,
2.128,-0.88,-0.95,0.81,0.09,-0.63,1.30,
2.129,-0.43,-0.89,1.27,0.09,-0.63,1.30,
2.129,-0.43,-0.89,1.27,0.08,-0.65,1.28,
2.129,-0.43,-0.89,1.27,0.07,-0.67,1.25,
2.132,-0.43,-0.89,1.27,0.06,-0.69,1.22,
2.135,-0.43,-0.89,1.27,0.06,-0.69,1.21,
2.135,-0.43,-0.89,1.27,0.05,-0.69,1.18,
2.139,-0.01,-0.90,1.75,0.05,-0.69,1.18,
2.139,-0.01,-0.90,1.75,0.05,-0.69,1.15,
2.14,-0.01,-0.90,1.75,0.04,-0.67,1.13,
2.142,-0.01,-0.90,1.75,0.03,-0.64,1.09,
2.143,-0.01,-0.90,1.75,0.03,-0.63,1.08,
2.145,-0.01,-0.90,1.75,0.02,-0.60,1.05,
2.151,0.10,-0.93,2.07,0.02,-0.60,1.05,
2.152,0.10,-0.93,2.07,0.02,-0.56,1.03,
2.152,0.10,-0.93,2.07,0.01,-0.51,1.01,
2.153,0.10,-0.93,2.07,-0.01,-0.44,0.98,
2.153,0.10,-0.93,2.07,-0.02,-0.41,0.97,
2.159,-0.32,-1.00,1.98,-0.02,-0.41,0.97,
2.16,-0.32,-1.00,1.98,-0.06,-0.31,0.94,
2.16,-0.32,-1.00,1.98,-0.06,-0.31,0.94,
2.16,-0.32,-1.00,1.98,-0.09,-0.26,0.92,
2.162,-0.32,-1.00,1.98,-0.13,-0.18,0.90,
2.163,-0.32,-1.00,1.98,-0.14,-0.16,0.90,
2.165,-0.32,-1.00,1.98,-0.17,-0.11,0.89,
2.167,-1.04,-0.99,1.58,-0.17,-0.11,0.89,
2.168,-1.04,-0.99,1.58,-0.20,-0.06,0.89,
2.168,-1.04,-0.99,1.58,-0.23,-0.03,0.89,
2.171,-1.04,-0.99,1.58,-0.27,0.03,0.90,
2.173,-1.04,-0.99,1.58,-0.29,0.04,0.90,
2.174,-1.04,-0.99,1.58,-0.31,0.08,0.91,
2.177,-1.56,-1.13,1.31,-0.31,0.08,0.91,
2.178,-1.56,-1.13,1.31,-0.33,0.10,0.91,
2.18,-1.56,-1.13,1.31,-0.35,0.12,0.92,
2.181,-1.56,-1.13,1.31,-0.37,0.15,0.93,
2.184,-1.56,-1.13,1.31,-0.38,0.16,0.93,
2.184,-1.56,-1.13,1.31,-0.38,0.18,0.93,
2.187,-1.54,-1.04,1.24,-0.38,0.18,0.93,
2.187,-1.54,-1.04,1.24,-0.39,0.19,0.93,
2.188,-1.54,-1.04,1.24,-0.39,0.20,0.93,
2.192,-1.54,-1.04,1.24,-0.38,0.18,0.92,
2.193,-1.54,-1.04,1.24,-0.38,0.18,0.91,
2.197,-1.54,-1.04,1.24,-0.38,0.17,0.90,
2.197,-1.14,-0.99,1.31,-0.38,0.17,0.90,
2.198,-1.14,-0.99,1.31,-0.36,0.16,0.89,
2.199,-1.14,-0.99,1.31,-0.33,0.14,0.88,
2.205,-1.14,-0.99,1.31,-0.28,0.10,0.86,
2.206,-1.14,-0.99,1.31,-0.27,0.09,0.86,
2.206,-1.14,-0.99,1.31,-0.23,0.06,0.85,
2.21,-0.96,-0.91,1.43,-0.23,0.06,0.85,
2.21,-0.96,-0.91,1.43,-0.19,0.02,0.84,
2.212,-0.96,-0.91,1.43,-0.15,-0.01,0.83,
2.213,-0.96,-0.91,1.43,-0.07,-0.06,0.82,
2.213,-0.96,-0.91,1.43,-0.05,-0.08,0.82,
2.214,-0.96,-0.91,1.43,0.00,-0.12,0.81,
2.217,-1.13,-0.88,1.33,0.00,-0.12,0.81,
2.217,-1.13,-0.88,1.33,0.05,-0.15,0.81,
2.218,-1.13,-0.88,1.33,0.10,-0.19,0.80,
2.221,-1.13,-0.88,1.33,0.17,-0.24,0.80,
2.222,-1.13,-0.88,1.33,0.19,-0.26,0.80,
2.224,-1.13,-0.88,1.33,0.24,-0.30,0.80,
2.227,-1.39,-0.86,0.82,0.24,-0.30,0.80,
2.228,-1.39,-0.86,0.82,0.28,-0.33,0.80,
2.229,-1.39,-0.86,0.82,0.32,-0.36,0.80,
2.231,-1.39,-0.86,0.82,0.37,-0.40,0.81,
2.232,-1.39,-0.86,0.82,0.38,-0.41,0.81,
2.236,-1.39,-0.86,0.82,0.41,-0.43,0.82,
2.237,-1.79,-0.94,0.06,0.41,-0.43,0.82,
2.237,-1.79,-0.94,0.06,0.43,-0.45,0.83,
2.238,-1.79,-0.94,0.06,0.45,-0.47,0.85,
2.241,-1.79,-0.94,0.06,0.47,-0.48,0.87,
2.242,-1.79,-0.94,0.06,0.48,-0.49,0.88,
2.245,-1.79,-0.94,0.06,0.49,-0.49,0.89,
2.247,-1.90,-0.97,-0.70,0.49,-0.49,0.89,
2.247,-1.90,-0.97,-0.70,0.50,-0.49,0.90,
2.248,-1.90,-0.97,-0.70,0.50,-0.48,0.92,
2.251,-1.90,-0.97,-0.70,0.50,-0.46,0.94,
2.252,-1.90,-0.97,-0.70,0.50,-0.45,0.95,
2.255,-1.90,-0.97,-0.70,0.49,-0.42,0.96,
2.264,-1.86,-1.02,-1.23,0.49,-0.42,0.96,
2.265,-1.86,-1.02,-1.23,0.48,-0.40,0.97,
2.266,-1.86,-1.02,-1.23,0.47,-0.38,0.99,
2.267,-1.86,-1.02,-1.23,0.46,-0.34,1.00,
2.267,-1.86,-1.02,-1.23,0.45,-0.33,1.01,
2.267,-1.86,-1.02,-1.23,0.44,-0.31,1.02,
2.281,-1.49,-0.93,-1.49,0.44,-0.31,1.02,
2.281,-1.49,-0.93,-1.49,0.43,-0.29,1.03,
2.282,-1.49,-0.93,-1.49,0.42,-0.27,1.03,
2.282,-1.49,-0.93,-1.49,0.40,-0.23,1.04,
2.282,-1.49,-0.93,-1.49,0.40,-0.22,1.04,
2.282,-1.49,-0.93,-1.49,0.39,-0.19,1.05,
2.282,-0.95,-0.86,-1.50,0.39,-0.19,1.05,
2.283,-0.95,-0.86,-1.50,0.38,-0.16,1.04,
2.283,-0.95,-0.86,-1.50,0.37,-0.13,1.05,
2.283,-0.95,-0.86,-1.50,0.36,-0.08,1.05,
2.283,-0.95,-0.86,-1.50,0.36,-0.06,1.05,
2.286,-0.95,-0.86,-1.50,0.36,-0.03,1.05,
2.287,-0.67,-0.81,-1.27,0.36,-0.03,1.05,
2.287,-0.67,-0.81,-1.27,0.36,-0.00,1.05,
2.29,-0.67,-0.81,-1.27,0.36,0.03,1.06,
2.292,-0.67,-0.81,-1.27,0.37,0.07,1.07,
2.293,-0.67,-0.81,-1.27,0.37,0.08,1.07,
2.295,-0.67,-0.81,-1.27,0.38,0.10,1.07,
2.297,-0.58,-0.76,-1.00,0.38,0.10,1.07,
2.297,-0.58,-0.76,-1.00,0.38,0.13,1.07,
2.299,-0.58,-0.76,-1.00,0.39,0.14,1.08,
2.303,-0.58,-0.76,-1.00,0.40,0.18,1.08,
2.304,-0.58,-0.76,-1.00,0.41,0.19,1.09,
2.305,-0.58,-0.76,-1.00,0.42,0.22,1.10,
2.308,-0.56,-0.78,-0.93,0.42,0.22,1.10,
2.308,-0.56,-0.78,-0.93,0.42,0.24,1.10,
2.308,-0.56,-0.78,-0.93,0.42,0.27,1.12,
2.315,-0.56,-0.78,-0.93,0.43,0.30,1.14,
2.315,-0.56,-0.78,-0.93,0.42,0.31,1.15,
2.315,-0.56,-0.78,-0.93,0.43,0.34,1.17,
2.32,-0.86,-0.96,-1.01,0.43,0.34,1.17,
2.321,-0.86,-0.96,-1.01,0.43,0.37,1.19,
2.321,-0.86,-0.96,-1.01,0.43,0.40,1.21,
2.321,-0.86,-0.96,-1.01,0.42,0.46,1.23,
2.322,-0.86,-0.96,-1.01,0.40,0.48,1.23,
2.324,-0.86,-0.96,-1.01,0.41,0.50,1.24,
2.341,-0.78,-0.99,-1.15,0.41,0.50,1.24,
2.341,-0.78,-0.99,-1.15,0.43,0.53,1.25,
2.341,-0.78,-0.99,-1.15,0.43,0.55,1.25,
2.341,-0.78,-0.99,-1.15,0.43,0.58,1.24,
2.342,-0.78,-0.99,-1.15,0.42,0.58,1.23,
2.342,-0.78,-0.99,-1.15,0.43,0.58,1.22,
2.342,-0.26,-0.99,-1.00,0.43,0.58,1.22,
2.342,-0.26,-0.99,-1.00,0.45,0.58,1.21,
2.342,-0.26,-0.99,-1.00,0.46,0.57,1.19,
2.342,-0.26,-0.99,-1.00,0.49,0.55,1.17,
2.342,-0.26,-0.99,-1.00,0.50,0.54,1.16,
2.351,-0.26,-0.99,-1.00,0.52,0.52,1.13,
2.351,0.28,-0.83,-0.67,0.52,0.52,1.13,
2.351,0.28,-0.83,-0.67,0.54,0.49,1.11,
2.351,0.28,-0.83,-0.67,0.56,0.46,1.08,
2.351,0.28,-0.83,-0.67,0.61,0.42,1.04,
2.352,0.28,-0.83,-0.67,0.61,0.40,1.02,
2.354,0.28,-0.83,-0.67,0.63,0.37,0.99,
2.357,0.75,-0.82,-0.56,0.63,0.37,0.99,
2.357,0.75,-0.82,-0.56,0.66,0.34,0.96,
2.358,0.75,-0.82,-0.56,0.69,0.30,0.93,
2.361,0.75,-0.82,-0.56,0.73,0.25,0.89,
2.362,0.75,-0.82,-0.56,0.74,0.23,0.87,
2.364,0.75,-0.82,-0.56,0.76,0.20,0.85,
2.367,0.85,-0.83,-0.71,0.76,0.20,0.85,
2.367,0.85,-0.83,-0.71,0.79,0.16,0.82,
2.368,0.85,-0.83,-0.71,0.80,0.12,0.80,
2.371,0.85,-0.83,-0.71,0.82,0.06,0.76,
2.372,0.85,-0.83,-0.71,0.83,0.05,0.75,
2.375,0.85,-0.83,-0.71,0.84,0.03,0.72,
2.379,0.98,-0.84,-1.12,0.84,0.03,0.72,
2.379,0.98,-0.84,-1.12,0.84,0.01,0.69,
2.379,0.98,-0.84,-1.12,0.84,0.00,0.66,
2.381,0.98,-0.84,-1.12,0.83,-0.01,0.61,
2.382,0.98,-0.84,-1.12,0.83,-0.01,0.59,
2.384,0.98,-0.84,-1.12,0.83,-0.02,0.56,
2.387,1.14,-0.94,-1.60,0.83,-0.02,0.56,
2.387,1.14,-0.94,-1.60,0.82,-0.02,0.52,
2.388,1.14,-0.94,-1.60,0.81,-0.03,0.49,
2.391,1.14,-0.94,-1.60,0.78,-0.03,0.43,
2.392,1.14,-0.94,-1.60,0.77,-0.04,0.42,
2.394,1.14,-0.94,-1.60,0.76,-0.04,0.40,
2.397,0.95,-1.01,-1.93,0.76,-0.04,0.40,
2.398,0.95,-1.01,-1.93,0.75,-0.04,0.38,
2.398,0.95,-1.01,-1.93,0.73,-0.03,0.37,
2.401,0.95,-1.01,-1.93,0.70,0.00,0.35,
2.402,0.95,-1.01,-1.93,0.69,0.01,0.34,
2.405,0.95,-1.01,-1.93,0.66,0.04,0.33,
2.406,0.44,-1.08,-2.02,0.66,0.04,0.33,
2.407,0.44,-1.08,-2.02,0.65,0.07,0.31,
2.408,0.44,-1.08,-2.02,0.63,0.10,0.30,
2.411,0.44,-1.08,-2.02,0.59,0.15,0.28,
2.412,0.44,-1.08,-2.02,0.58,0.16,0.27,
2.414,0.44,-1.08,-2.02,0.56,0.19,0.26,
2.417,0.00,-1.14,-1.97,0.56,0.19,0.26,
2.417,0.00,-1.14,-1.97,0.54,0.21,0.25,
2.418,0.00,-1.14,-1.97,0.52,0.23,0.24,
2.421,0.00,-1.14,-1.97,0.50,0.25,0.23,
2.422,0.00,-1.14,-1.97,0.49,0.26,0.23,
2.424,0.00,-1.14,-1.97,0.49,0.26,0.24,
2.428,-0.45,-1.13,-1.61,0.49,0.26,0.24,
2.429,-0.45,-1.13,-1.61,0.48,0.26,0.24,
2.429,-0.45,-1.13,-1.61,0.48,0.25,0.24,
2.431,-0.45,-1.13,-1.61,0.48,0.24,0.25,
2.459,-0.45,-1.13,-1.61,0.48,0.24,0.25,
2.459,-0.45,-1.13,-1.61,0.48,0.22,0.26,
2.459,-0.84,-1.20,-1.13,0.48,0.22,0.26,
2.46,-0.84,-1.20,-1.13,0.50,0.21,0.27,
2.46,-0.84,-1.20,-1.13,0.51,0.19,0.28,
2.461,-0.84,-1.20,-1.13,0.53,0.15,0.30,
2.461,-0.84,-1.20,-1.13,0.54,0.14,0.30,
2.461,-0.84,-1.20,-1.13,0.57,0.11,0.32,
2.462,-1.00,-1.12,-0.70,0.57,0.11,0.32,
2.462,-1.00,-1.12,-0.70,0.59,0.07,0.33,
2.463,-1.00,-1.12,-0.70,0.61,0.04,0.34,
2.463,-1.00,-1.12,-0.70,0.65,-0.02,0.35,
2.463,-1.00,-1.12,-0.70,0.66,-0.04,0.36,
2.464,-1.00,-1.12,-0.70,0.68,-0.08,0.36,
2.464,-0.83,-0.92,-0.54,0.68,-0.08,0.36,
2.465,-0.83,-0.92,-0.54,0.71,-0.12,0.37,
2.465,-0.83,-0.92,-0.54,0.74,-0.16,0.37,
2.465,-0.83,-0.92,-0.54,0.77,-0.22,0.38,
2.466,-0.83,-0.92,-0.54,0.78,-0.24,0.38,
2.466,-0.83,-0.92,-0.54,0.81,-0.28,0.38,
2.467,-0.43,-0.67,-0.63,0.81,-0.28,0.38,
2.467,-0.43,-0.67,-0.63,0.82,-0.31,0.38,
2.476,-0.43,-0.67,-0.63,0.84,-0.34,0.38,
2.476,-0.43,-0.67,-0.63,0.87,-0.38,0.38,
2.477,-0.43,-0.67,-0.63,0.88,-0.40,0.38,
2.477,-0.43,-0.67,-0.63,0.89,-0.41,0.38,
2.478,-0.02,-0.49,-0.83,0.89,-0.41,0.38,
2.478,-0.02,-0.49,-0.83,0.90,-0.43,0.38,
2.479,-0.02,-0.49,-0.83,0.91,-0.44,0.37,
2.481,-0.02,-0.49,-0.83,0.93,-0.46,0.36,
2.482,-0.02,-0.49,-0.83,0.93,-0.47,0.36,
2.484,-0.02,-0.49,-0.83,0.95,-0.48,0.36,
2.489,0.31,-0.35,-1.02,0.95,-0.48,0.36,
2.489,0.31,-0.35,-1.02,0.96,-0.49,0.35,
2.489,0.31,-0.35,-1.02,0.96,-0.50,0.34,
2.491,0.31,-0.35,-1.02,0.97,-0.52,0.32,
2.494,0.31,-0.35,-1.02,0.98,-0.54,0.32,
2.494,0.31,-0.35,-1.02,1.00,-0.67,0.32,
2.497,0.75,-0.26,-1.34,1.00,-0.67,0.32,
2.497,0.75,-0.26,-1.34,1.01,-0.80,0.32,
2.498,0.75,-0.26,-1.34,1.02,-0.85,0.30,
2.501,0.75,-0.26,-1.34,1.03,-0.90,0.26,
2.502,0.75,-0.26,-1.34,1.03,-0.91,0.25,
2.504,0.75,-0.26,-1.34,1.03,-0.93,0.22,
2.507,0.66,0.09,-1.58,1.03,-0.93,0.22,
2.507,0.66,0.09,-1.58,1.03,-0.93,0.19,
2.508,0.66,0.09,-1.58,1.03,-0.90,0.17,
2.521,0.66,0.09,-1.58,1.02,-0.82,0.14,
2.522,0.66,0.09,-1.58,1.02,-0.79,0.14,
2.523,0.66,0.09,-1.58,1.01,-0.72,0.12,
2.523,0.79,0.15,-1.65,1.01,-0.72,0.12,
2.524,0.79,0.15,-1.65,1.01,-0.65,0.11,
2.524,0.79,0.15,-1.65,1.01,-0.58,0.10,
2.524,0.79,0.15,-1.65,1.01,-0.49,0.09,
2.525,0.79,0.15,-1.65,1.01,-0.47,0.08,
2.525,0.79,0.15,-1.65,1.00,-0.42,0.08,
2.549,0.83,-0.33,-1.92,1.00,-0.42,0.08,
2.55,0.83,-0.33,-1.92,1.00,-0.38,0.07,
2.55,0.83,-0.33,-1.92,1.00,-0.32,0.08,
2.55,0.83,-0.33,-1.92,1.00,-0.29,0.09,
2.551,0.83,-0.33,-1.92,1.00,-0.28,0.10,
2.551,0.83,-0.33,-1.92,0.99,-0.26,0.11,
2.551,0.19,-0.23,-2.36,0.99,-0.26,0.11,
2.552,0.19,-0.23,-2.36,0.99,-0.24,0.13,
2.552,0.19,-0.23,-2.36,0.99,-0.23,0.14,
2.553,0.19,-0.23,-2.36,0.97,-0.22,0.17,
2.553,0.19,-0.23,-2.36,0.96,-0.22,0.17,
2.554,0.19,-0.23,-2.36,0.95,-0.22,0.19,
2.554,-0.00,-0.12,-3.03,0.95,-0.22,0.19,
2.555,-0.00,-0.12,-3.03,0.93,-0.22,0.20,
2.555,-0.00,-0.12,-3.03,0.91,-0.22,0.21,
2.556,-0.00,-0.12,-3.03,0.87,-0.21,0.22,
2.558,-0.00,-0.12,-3.03,0.86,-0.22,0.22,
2.564,-0.00,-0.12,-3.03,0.83,-0.22,0.23,
2.565,0.08,-0.04,-3.63,0.83,-0.22,0.23,
2.566,0.08,-0.04,-3.63,0.80,-0.22,0.23,
2.566,0.08,-0.04,-3.63,0.77,-0.22,0.24,
2.567,0.08,-0.04,-3.63,0.72,-0.23,0.25,
2.567,0.08,-0.04,-3.63,0.71,-0.23,0.25,
2.567,0.08,-0.04,-3.63,0.68,-0.24,0.25,
2.568,0.22,0.08,-3.78,0.68,-0.24,0.25,
2.568,0.22,0.08,-3.78,0.65,-0.25,0.25,
2.569,0.22,0.08,-3.78,0.62,-0.25,0.25,
2.573,0.22,0.08,-3.78,0.59,-0.26,0.25,
2.575,0.22,0.08,-3.78,0.58,-0.26,0.25,
2.575,0.22,0.08,-3.78,0.56,-0.26,0.24,
2.581,0.55,0.29,-3.51,0.56,-0.26,0.24,
2.581,0.55,0.29,-3.51,0.54,-0.25,0.23,
2.582,0.55,0.29,-3.51,0.51,-0.23,0.23,
2.582,0.55,0.29,-3.51,0.48,-0.18,0.21,
2.583,0.55,0.29,-3.51,0.47,-0.16,0.21,
2.584,0.55,0.29,-3.51,0.45,-0.12,0.20,
2.587,0.86,0.31,-3.12,0.45,-0.12,0.20,
2.587,0.86,0.31,-3.12,0.43,-0.07,0.19,
2.588,0.86,0.31,-3.12,0.41,-0.03,0.18,
2.591,0.86,0.31,-3.12,0.39,0.03,0.17,
2.592,0.86,0.31,-3.12,0.38,0.05,0.17,
2.595,0.86,0.31,-3.12,0.36,0.08,0.16,
2.597,0.89,0.33,-2.87,0.36,0.08,0.16,
2.597,0.89,0.33,-2.87,0.35,0.11,0.15,
2.623,0.89,0.33,-2.87,0.34,0.14,0.15,
2.624,0.89,0.33,-2.87,0.32,0.18,0.14,
2.624,0.89,0.33,-2.87,0.31,0.20,0.14,
2.625,0.89,0.33,-2.87,0.30,0.22,0.13,
2.625,0.84,0.45,-2.96,0.30,0.22,0.13,
2.626,0.84,0.45,-2.96,0.28,0.24,0.13,
2.626,0.84,0.45,-2.96,0.26,0.26,0.12,
2.626,0.84,0.45,-2.96,0.22,0.28,0.10,
2.627,0.84,0.45,-2.96,0.21,0.28,0.09,
2.627,0.84,0.45,-2.96,0.19,0.28,0.07,
2.628,1.03,0.62,-3.10,0.19,0.28,0.07,
2.628,1.03,0.62,-3.10,0.17,0.28,0.05,
2.629,1.03,0.62,-3.10,0.15,0.27,0.04,
2.629,1.03,0.62,-3.10,0.11,0.25,0.01,
2.629,1.03,0.62,-3.10,0.10,0.24,-0.00,
2.63,1.03,0.62,-3.10,0.07,0.21,-0.02,
2.63,1.14,0.74,-3.12,0.07,0.21,-0.02,
2.631,1.14,0.74,-3.12,0.05,0.17,-0.04,
2.631,1.14,0.74,-3.12,0.02,0.13,-0.07,
2.647,1.14,0.74,-3.12,-0.01,0.06,-0.10,
2.648,1.14,0.74,-3.12,-0.03,0.03,-0.12,
2.648,1.14,0.74,-3.12,-0.05,-0.02,-0.15,
2.648,1.40,0.94,-2.91,-0.05,-0.02,-0.15,
2.648,1.40,0.94,-2.91,-0.07,-0.07,-0.17,
2.649,1.40,0.94,-2.91,-0.10,-0.12,-0.20,
2.649,1.40,0.94,-2.91,-0.12,-0.20,-0.25,
2.649,1.40,0.94,-2.91,-0.13,-0.23,-0.27,
2.649,1.40,0.94,-2.91,-0.16,-0.29,-0.30,
2.65,1.58,1.01,-2.51,-0.16,-0.29,-0.30,
2.65,1.58,1.01,-2.51,-0.18,-0.35,-0.33,
2.65,1.58,1.01,-2.51,-0.20,-0.39,-0.37,
2.68,1.58,1.01,-2.51,-0.22,-0.45,-0.41,
2.681,1.58,1.01,-2.51,-0.23,-0.46,-0.43,
2.681,1.58,1.01,-2.51,-0.25,-0.48,-0.45,
2.681,1.58,1.01,-2.51,-0.28,-0.49,-0.50,
2.681,1.58,1.01,-2.51,-0.28,-0.49,-0.50,
2.682,1.35,0.88,-1.48,-0.28,-0.49,-0.50,
2.682,1.35,0.88,-1.48,-0.31,-0.47,-0.52,
2.682,1.35,0.88,-1.48,-0.32,-0.45,-0.54,
2.682,1.35,0.88,-1.48,-0.33,-0.44,-0.54,
2.682,1.08,0.72,-0.96,-0.33,-0.44,-0.54,
2.683,1.08,0.72,-0.96,-0.35,-0.41,-0.56,
2.683,1.08,0.72,-0.96,-0.37,-0.38,-0.57,
2.683,1.08,0.72,-0.96,-0.40,-0.32,-0.58,
2.683,1.08,0.72,-0.96,-0.41,-0.30,-0.59,
2.684,1.08,0.72,-0.96,-0.42,-0.26,-0.59,
2.684,0.94,0.47,-0.16,-0.42,-0.26,-0.59,
2.684,0.94,0.47,-0.16,-0.44,-0.21,-0.60,
2.684,0.94,0.47,-0.16,-0.46,-0.16,-0.61,
2.684,0.94,0.47,-0.16,-0.48,-0.09,-0.61,
2.685,0.94,0.47,-0.16,-0.48,-0.07,-0.61,
2.685,0.94,0.47,-0.16,-0.49,-0.01,-0.61,
2.688,0.80,0.32,0.61,-0.49,-0.01,-0.61,
2.688,0.80,0.32,0.61,-0.51,0.03,-0.61,
2.689,0.80,0.32,0.61,-0.51,0.09,-0.61,
2.692,0.80,0.32,0.61,-0.52,0.16,-0.61,
2.693,0.80,0.32,0.61,-0.53,0.18,-0.61,
2.695,0.80,0.32,0.61,-0.54,0.24,-0.61,
2.697,0.66,0.14,1.32,-0.54,0.24,-0.61,
2.698,0.66,0.14,1.32,-0.54,0.28,-0.60,
2.699,0.66,0.14,1.32,-0.54,0.33,-0.59,
2.701,0.66,0.14,1.32,-0.55,0.41,-0.59,
2.702,0.66,0.14,1.32,-0.54,0.43,-0.58,
2.705,0.66,0.14,1.32,-0.55,0.47,-0.57,
2.707,0.43,0.01,1.91,-0.55,0.47,-0.57,
2.708,0.43,0.01,1.91,-0.54,0.52,-0.56,
2.712,0.43,0.01,1.91,-0.54,0.55,-0.56,
2.715,0.43,0.01,1.91,-0.52,0.61,-0.54,
2.715,0.43,0.01,1.91,-0.52,0.62,-0.53,
2.715,0.43,0.01,1.91,-0.50,0.65,-0.53,
2.717,0.27,0.02,2.45,-0.50,0.65,-0.53,
2.718,0.27,0.02,2.45,-0.49,0.68,-0.52,
2.719,0.27,0.02,2.45,-0.47,0.71,-0.51,
2.721,0.27,0.02,2.45,-0.45,0.74,-0.49,
2.724,0.27,0.02,2.45,-0.44,0.75,-0.49,
2.727,0.27,0.02,2.45,-0.42,0.76,-0.49,
2.728,0.09,0.18,2.74,-0.42,0.76,-0.49,
2.729,0.09,0.18,2.74,-0.40,0.77,-0.48,
2.729,0.09,0.18,2.74,-0.38,0.77,-0.47,
2.731,0.09,0.18,2.74,-0.36,0.77,-0.46,
2.733,0.09,0.18,2.74,-0.36,0.77,-0.45,
2.735,0.09,0.18,2.74,-0.35,0.77,-0.43,
2.738,-0.60,0.36,2.62,-0.35,0.77,-0.43,
2.739,-0.60,0.36,2.62,-0.33,0.76,-0.41,
2.739,-0.60,0.36,2.62,-0.33,0.75,-0.39,
2.742,-0.60,0.36,2.62,-0.33,0.73,-0.34,
2.743,-0.60,0.36,2.62,-0.33,0.71,-0.33,
2.744,-0.60,0.36,2.62,-0.33,0.68,-0.29,
2.747,-1.30,0.70,2.16,-0.33,0.68,-0.29,
2.747,-1.30,0.70,2.16,-0.34,0.64,-0.25,
2.749,-1.30,0.70,2.16,-0.36,0.57,-0.22,
2.751,-1.30,0.70,2.16,-0.39,0.45,-0.16,
2.753,-1.30,0.70,2.16,-0.41,0.40,-0.15,
2.754,-1.30,0.70,2.16,-0.44,0.29,-0.12,
2.757,-0.79,1.02,1.48,-0.44,0.29,-0.12,
2.757,-0.79,1.02,1.48,-0.48,0.17,-0.11,
2.771,-0.79,1.02,1.48,-0.53,0.03,-0.10,
2.771,-0.79,1.02,1.48,-0.61,-0.18,-0.12,
2.771,-0.79,1.02,1.48,-0.63,-0.25,-0.13,
2.772,-0.79,1.02,1.48,-0.69,-0.40,-0.16,
2.796,1.23,1.08,1.27,-0.69,-0.40,-0.16,
2.796,1.23,1.08,1.27,-0.75,-0.55,-0.20,
2.796,1.23,1.08,1.27,-0.80,-0.69,-0.25,
2.797,1.23,1.08,1.27,-0.87,-0.89,-0.34,
2.797,1.23,1.08,1.27,-0.89,-0.96,-0.37,
2.797,1.23,1.08,1.27,-0.94,-1.08,-0.44,
2.798,3.27,0.98,1.94,-0.94,-1.08,-0.44,
2.798,3.27,0.98,1.94,-0.99,-1.20,-0.50,
2.798,3.27,0.98,1.94,-1.03,-1.32,-0.58,
2.798,3.27,0.98,1.94,-1.10,-1.48,-0.68,
2.799,3.27,0.98,1.94,-1.13,-1.54,-0.72,
2.799,3.27,0.98,1.94,-1.18,-1.64,-0.79,
2.799,4.55,0.60,3.00,-1.18,-1.64,-0.79,
2.799,4.55,0.60,3.00,-1.24,-1.73,-0.86,
2.8,4.55,0.60,3.00,-1.29,-1.80,-0.94,
2.8,4.55,0.60,3.00,-1.38,-1.90,-1.04,
2.8,4.55,0.60,3.00,-1.40,-1.92,-1.07,
2.8,4.55,0.60,3.00,-1.45,-1.97,-1.14,
2.801,5.04,-0.18,4.42,-1.45,-1.97,-1.14,
2.801,5.04,-0.18,4.42,-1.51,-1.99,-1.20,
2.801,5.04,-0.18,4.42,-1.56,-1.99,-1.25,
2.802,5.04,-0.18,4.42,-1.63,-1.96,-1.33,
2.807,5.04,-0.18,4.42,-1.65,-1.94,-1.35,
2.807,5.04,-0.18,4.42,-1.68,-1.88,-1.39,
2.808,4.66,-0.99,6.48,-1.68,-1.88,-1.39,
2.808,4.66,-0.99,6.48,-1.71,-1.80,-1.43,
2.808,4.66,-0.99,6.48,-1.73,-1.70,-1.46,
2.811,4.66,-0.99,6.48,-1.75,-1.51,-1.49,
2.813,4.66,-0.99,6.48,-1.75,-1.44,-1.50,
2.814,4.66,-0.99,6.48,-1.74,-1.29,-1.51,
2.817,4.10,-1.87,8.57,-1.74,-1.29,-1.51,
2.817,4.10,-1.87,8.57,-1.73,-1.13,-1.51,
2.818,4.10,-1.87,8.57,-1.71,-0.95,-1.50,
2.821,4.10,-1.87,8.57,-1.66,-0.67,-1.49,
2.822,4.10,-1.87,8.57,-1.64,-0.58,-1.48,
2.825,4.10,-1.87,8.57,-1.60,-0.40,-1.46,
2.827,3.15,-2.29,9.91,-1.60,-0.40,-1.46,
2.828,3.15,-2.29,9.91,-1.55,-0.22,-1.44,
2.829,3.15,-2.29,9.91,-1.50,-0.06,-1.42,
2.831,3.15,-2.29,9.91,-1.41,0.17,-1.39,
2.832,3.15,-2.29,9.91,-1.39,0.24,-1.38,
2.834,3.15,-2.29,9.91,-1.33,0.38,-1.35,
2.837,1.91,-2.38,9.80,-1.33,0.38,-1.35,
2.837,1.91,-2.38,9.80,-1.27,0.50,-1.31,
2.838,1.91,-2.38,9.80,-1.21,0.61,-1.28,
2.842,1.91,-2.38,9.80,-1.12,0.77,-1.22,
2.842,1.91,-2.38,9.80,-1.09,0.81,-1.20,
2.845,1.91,-2.38,9.80,-1.02,0.88,-1.15,
2.847,0.48,-2.24,8.62,-1.02,0.88,-1.15,
2.847,0.48,-2.24,8.62,-0.96,0.95,-1.10,
2.848,0.48,-2.24,8.62,-0.89,1.00,-1.05,
2.851,0.48,-2.24,8.62,-0.78,1.06,-0.97,
2.852,0.48,-2.24,8.62,-0.75,1.07,-0.94,
2.854,0.48,-2.24,8.62,-0.68,1.09,-0.89,
2.859,-0.88,-1.89,7.01,-0.68,1.09,-0.89,
2.859,-0.88,-1.89,7.01,-0.60,1.11,-0.83,
2.86,-0.88,-1.89,7.01,-0.53,1.11,-0.77,
2.861,-0.88,-1.89,7.01,-0.41,1.09,-0.68,
2.863,-0.88,-1.89,7.01,-0.37,1.08,-0.65,
2.865,-0.88,-1.89,7.01,-0.29,1.05,-0.59,
2.867,-1.72,-1.27,5.29,-0.29,1.05,-0.59,
2.867,-1.72,-1.27,5.29,-0.21,1.01,-0.53,
2.868,-1.72,-1.27,5.29,-0.12,0.96,-0.48,
2.872,-1.72,-1.27,5.29,-0.01,0.85,-0.40,
2.873,-1.72,-1.27,5.29,0.03,0.81,-0.37,
2.875,-1.72,-1.27,5.29,0.10,0.73,-0.33,
2.879,-2.15,-0.69,3.24,0.10,0.73,-0.33,
2.879,-2.15,-0.69,3.24,0.18,0.64,-0.28,
2.883,-2.15,-0.69,3.24,0.28,0.50,-0.21,
2.883,-2.15,-0.69,3.24,0.34,0.39,-0.16,
2.883,-2.15,-0.69,3.24,0.37,0.34,-0.14,
2.884,-2.15,-0.69,3.24,0.42,0.24,-0.09,
2.887,-2.32,-0.15,0.78,0.42,0.24,-0.09,
2.887,-2.32,-0.15,0.78,0.48,0.13,-0.04,
2.889,-2.32,-0.15,0.78,0.52,0.02,0.00,
2.9,-2.32,-0.15,0.78,0.59,-0.13,0.07,
2.9,-2.32,-0.15,0.78,0.61,-0.18,0.09,
2.9,-2.32,-0.15,0.78,0.66,-0.28,0.14,
2.9,-2.37,0.19,-1.06,0.66,-0.28,0.14,
2.901,-2.37,0.19,-1.06,0.70,-0.37,0.18,
2.901,-2.37,0.19,-1.06,0.73,-0.47,0.22,
2.901,-2.37,0.19,-1.06,0.78,-0.59,0.27,
2.902,-2.37,0.19,-1.06,0.79,-0.63,0.29,
2.93,-2.37,0.19,-1.06,0.82,-0.70,0.33,
2.93,-2.18,0.38,-2.52,0.82,-0.70,0.33,
2.93,-2.18,0.38,-2.52,0.83,-0.77,0.36,
2.931,-2.18,0.38,-2.52,0.85,-0.84,0.39,
2.931,-2.18,0.38,-2.52,0.88,-0.91,0.44,
2.931,-2.18,0.38,-2.52,0.88,-0.94,0.45,
2.931,-2.18,0.38,-2.52,0.88,-0.98,0.49,
2.931,-2.08,0.59,-3.73,0.88,-0.98,0.49,
2.932,-2.08,0.59,-3.73,0.89,-1.02,0.51,
2.932,-2.08,0.59,-3.73,0.88,-1.05,0.54,
2.932,-2.08,0.59,-3.73,0.88,-1.10,0.58,
2.932,-2.08,0.59,-3.73,0.87,-1.11,0.59,
2.932,-2.08,0.59,-3.73,0.86,-1.14,0.61,
2.932,-1.88,0.69,-4.65,0.86,-1.14,0.61,
2.933,-1.88,0.69,-4.65,0.85,-1.16,0.64,
2.933,-1.88,0.69,-4.65,0.83,-1.17,0.66,
2.933,-1.88,0.69,-4.65,0.80,-1.19,0.69,
2.965,-1.88,0.69,-4.65,0.79,-1.19,0.70,
2.966,-1.88,0.69,-4.65,0.76,-1.19,0.71,
2.966,-1.73,1.01,-5.24,0.76,-1.19,0.71,
2.967,-1.73,1.01,-5.24,0.73,-1.19,0.72,
2.968,-1.73,1.01,-5.24,0.71,-1.19,0.73,
2.969,-1.73,1.01,-5.24,0.65,-1.18,0.74,
2.969,-1.73,1.01,-5.24,0.64,-1.17,0.75,
2.97,-1.73,1.01,-5.24,0.60,-1.15,0.75,
2.97,-1.38,1.12,-5.65,0.60,-1.15,0.75,
2.971,-1.38,1.12,-5.65,0.57,-1.13,0.75,
2.971,-1.38,1.12,-5.65,0.53,-1.11,0.75,
2.972,-1.38,1.12,-5.65,0.46,-1.07,0.74,
2.972,-1.38,1.12,-5.65,0.44,-1.05,0.73,
2.973,-1.38,1.12,-5.65,0.39,-1.01,0.72,
2.973,-0.93,1.35,-5.84,0.39,-1.01,0.72,
2.973,-0.93,1.35,-5.84,0.34,-0.97,0.71,
2.974,-0.93,1.35,-5.84,0.30,-0.93,0.70,
2.974,-0.93,1.35,-5.84,0.23,-0.86,0.67,
2.974,-0.93,1.35,-5.84,0.20,-0.83,0.67,
2.974,-0.93,1.35,-5.84,0.16,-0.78,0.65,
2.975,-0.65,1.40,-5.62,0.16,-0.78,0.65,
2.975,-0.65,1.40,-5.62,0.11,-0.73,0.63,
2.975,-0.65,1.40,-5.62,0.06,-0.67,0.61,
2.975,-0.65,1.40,-5.62,-0.01,-0.59,0.57,
2.976,-0.65,1.40,-5.62,-0.03,-0.56,0.56,
2.976,-0.65,1.40,-5.62,-0.08,-0.51,0.54,
2.983,-0.45,1.55,-5.30,-0.08,-0.51,0.54,
2.983,-0.45,1.55,-5.30,-0.13,-0.46,0.51,
2.984,-0.45,1.55,-5.30,-0.17,-0.41,0.48,
2.984,-0.45,1.55,-5.30,-0.24,-0.33,0.44,
2.984,-0.45,1.55,-5.30,-0.27,-0.30,0.42,
2.984,-0.45,1.55,-5.30,-0.31,-0.25,0.39,
2.986,-0.63,1.43,-4.81,-0.31,-0.25,0.39,
2.987,-0.63,1.43,-4.81,-0.35,-0.21,0.37,
2.988,-0.63,1.43,-4.81,-0.40,-0.17,0.34,
2.991,-0.63,1.43,-4.81,-0.45,-0.11,0.31,
2.994,-0.63,1.43,-4.81,-0.47,-0.09,0.30,
2.994,-0.63,1.43,-4.81,-0.51,-0.06,0.28,
2.997,-1.11,1.35,-4.30,-0.51,-0.06,0.28,
2.997,-1.11,1.35,-4.30,-0.55,-0.03,0.27,
2.998,-1.11,1.35,-4.30,-0.59,0.00,0.25,
3.001,-1.11,1.35,-4.30,-0.64,0.04,0.23,
3.002,-1.11,1.35,-4.30,-0.66,0.06,0.23,
3.004,-1.11,1.35,-4.30,-0.70,0.08,0.21,
3.007,-1.61,1.04,-3.71,-0.70,0.08,0.21,
3.008,-1.61,1.04,-3.71,-0.73,0.10,0.20,
3.009,-1.61,1.04,-3.71,-0.75,0.12,0.20,
3.012,-1.61,1.04,-3.71,-0.80,0.14,0.19,
3.013,-1.61,1.04,-3.71,-0.81,0.15,0.19,
3.014,-1.61,1.04,-3.71,-0.83,0.17,0.19,
3.017,-2.20,0.81,-2.79,-0.83,0.17,0.19,
3.018,-2.20,0.81,-2.79,-0.85,0.18,0.19,
3.018,-2.20,0.81,-2.79,-0.86,0.19,0.20,
3.022,-2.20,0.81,-2.79,-0.87,0.22,0.21,
3.022,-2.20,0.81,-2.79,-0.87,0.23,0.21,
3.024,-2.20,0.81,-2.79,-0.87,0.24,0.22,
3.028,-2.70,0.53,-1.62,-0.87,0.24,0.22,
3.028,-2.70,0.53,-1.62,-0.86,0.26,0.24,
3.029,-2.70,0.53,-1.62,-0.85,0.28,0.25,
3.031,-2.70,0.53,-1.62,-0.83,0.31,0.28,
3.032,-2.70,0.53,-1.62,-0.82,0.31,0.29,
3.035,-2.70,0.53,-1.62,-0.80,0.33,0.31,
3.037,-3.23,0.18,-0.38,-0.80,0.33,0.31,
3.037,-3.23,0.18,-0.38,-0.78,0.34,0.33,
3.039,-3.23,0.18,-0.38,-0.74,0.35,0.35,
3.05,-3.23,0.18,-0.38,-0.69,0.37,0.39,
3.05,-3.23,0.18,-0.38,-0.67,0.37,0.41,
3.051,-3.23,0.18,-0.38,-0.63,0.38,0.43,
3.051,-3.40,-0.06,0.74,-0.63,0.38,0.43,
3.051,-3.40,-0.06,0.74,-0.58,0.39,0.46,
3.051,-3.40,-0.06,0.74,-0.52,0.41,0.49,
3.051,-3.40,-0.06,0.74,-0.44,0.43,0.53,
3.052,-3.40,-0.06,0.74,-0.41,0.44,0.54,
3.083,-3.40,-0.06,0.74,-0.35,0.45,0.58,
3.084,-3.53,-0.22,1.64,-0.35,0.45,0.58,
3.084,-3.53,-0.22,1.64,-0.28,0.46,0.61,
3.084,-3.53,-0.22,1.64,-0.22,0.47,0.63,
3.084,-3.53,-0.22,1.64,-0.11,0.48,0.68,
3.084,-3.53,-0.22,1.64,-0.08,0.48,0.69,
3.085,-3.53,-0.22,1.64,-0.01,0.49,0.72,
3.085,-3.36,-0.35,1.93,-0.01,0.49,0.72,
3.085,-3.36,-0.35,1.93,0.05,0.49,0.75,
3.085,-3.36,-0.35,1.93,0.12,0.49,0.78,
3.085,-3.36,-0.35,1.93,0.21,0.49,0.82,
3.085,-3.36,-0.35,1.93,0.24,0.49,0.84,
3.085,-3.36,-0.35,1.93,0.30,0.50,0.87,
3.086,-3.30,-0.48,1.65,0.30,0.50,0.87,
3.086,-3.30,-0.48,1.65,0.36,0.49,0.90,
3.086,-3.30,-0.48,1.65,0.42,0.49,0.92,
3.086,-3.30,-0.48,1.65,0.50,0.49,0.97,
3.086,-3.30,-0.48,1.65,0.52,0.49,0.98,
3.086,-3.30,-0.48,1.65,0.57,0.48,1.01,
3.087,-3.02,-0.54,1.01,0.57,0.48,1.01,
3.087,-3.02,-0.54,1.01,0.62,0.48,1.04,
3.089,-3.02,-0.54,1.01,0.66,0.47,1.07,
3.093,-3.02,-0.54,1.01,0.73,0.46,1.10,
3.094,-3.02,-0.54,1.01,0.75,0.45,1.12,
3.094,-3.02,-0.54,1.01,0.78,0.44,1.14,
3.097,-2.75,-0.62,0.27,0.78,0.44,1.14,
3.098,-2.75,-0.62,0.27,0.82,0.43,1.17,
3.118,-2.75,-0.62,0.27,0.84,0.42,1.19,
3.118,-2.75,-0.62,0.27,0.89,0.40,1.22,
3.118,-2.75,-0.62,0.27,0.91,0.39,1.23,
3.118,-2.75,-0.62,0.27,0.93,0.38,1.26,
3.119,-2.28,-0.63,-0.48,0.93,0.38,1.26,
3.119,-2.28,-0.63,-0.48,0.96,0.38,1.28,
3.119,-2.28,-0.63,-0.48,0.98,0.37,1.30,
3.119,-2.28,-0.63,-0.48,1.01,0.37,1.33,
3.12,-2.28,-0.63,-0.48,1.02,0.38,1.33,
3.12,-2.28,-0.63,-0.48,1.03,0.38,1.35,
3.12,-1.80,-0.48,-1.09,1.03,0.38,1.35,
3.12,-1.80,-0.48,-1.09,1.05,0.39,1.36,
3.12,-1.80,-0.48,-1.09,1.06,0.39,1.37,
3.124,-1.80,-0.48,-1.09,1.08,0.39,1.39,
3.125,-1.80,-0.48,-1.09,1.09,0.39,1.39,
3.125,-1.80,-0.48,-1.09,1.10,0.39,1.40,
3.127,-1.19,-0.35,-1.56,1.10,0.39,1.40,
3.128,-1.19,-0.35,-1.56,1.10,0.38,1.41,
3.129,-1.19,-0.35,-1.56,1.11,0.37,1.41,
3.131,-1.19,-0.35,-1.56,1.12,0.36,1.42,
3.132,-1.19,-0.35,-1.56,1.12,0.36,1.42,
3.138,-1.19,-0.35,-1.56,1.12,0.36,1.42,
3.138,-0.75,-0.03,-1.90,1.12,0.36,1.42,
3.138,-0.75,-0.03,-1.90,1.12,0.35,1.42,
3.138,-0.75,-0.03,-1.90,1.12,0.35,1.42,
3.141,-0.75,-0.03,-1.90,1.11,0.35,1.41,
3.142,-0.75,-0.03,-1.90,1.11,0.34,1.41,
3.145,-0.75,-0.03,-1.90,1.10,0.33,1.41,
3.147,-0.26,0.12,-2.31,1.10,0.33,1.41,
3.147,-0.26,0.12,-2.31,1.09,0.32,1.40,
3.148,-0.26,0.12,-2.31,1.07,0.31,1.40,
3.152,-0.26,0.12,-2.31,1.04,0.29,1.39,
3.152,-0.26,0.12,-2.31,1.03,0.28,1.39,
3.159,-0.26,0.12,-2.31,0.99,0.24,1.39,
3.16,-0.26,0.12,-2.31,0.99,0.24,1.39,
3.16,-0.03,0.35,-2.60,0.99,0.24,1.39,
3.16,-0.03,0.35,-2.60,0.96,0.22,1.38,
3.161,-0.03,0.35,-2.60,0.92,0.19,1.38,
3.163,-0.03,0.35,-2.60,0.91,0.18,1.38,
3.169,-0.03,0.35,-2.60,0.88,0.16,1.37,
3.169,0.21,0.44,-2.60,0.88,0.16,1.37,
3.169,0.21,0.44,-2.60,0.85,0.14,1.37,
3.169,0.21,0.44,-2.60,0.81,0.11,1.36,
3.171,0.21,0.44,-2.60,0.77,0.07,1.35,
3.177,0.21,0.44,-2.60,0.76,0.06,1.35,
3.177,0.21,0.44,-2.60,0.73,0.03,1.33,
3.177,0.81,0.50,-2.20,0.73,0.03,1.33,
3.177,0.81,0.50,-2.20,0.70,0.00,1.32,
3.178,0.81,0.50,-2.20,0.67,-0.03,1.31,
3.181,0.81,0.50,-2.20,0.63,-0.08,1.28,
3.182,0.81,0.50,-2.20,0.62,-0.09,1.27,
3.184,0.81,0.50,-2.20,0.60,-0.13,1.25,
3.187,1.57,0.45,-1.25,0.60,-0.13,1.25,
3.187,1.57,0.45,-1.25,0.59,-0.16,1.22,
3.188,1.57,0.45,-1.25,0.57,-0.20,1.20,
3.191,1.57,0.45,-1.25,0.56,-0.25,1.16,
3.192,1.57,0.45,-1.25,0.55,-0.26,1.15,
3.194,1.57,0.45,-1.25,0.54,-0.29,1.12,
3.197,2.27,0.34,-0.07,0.54,-0.29,1.12,
3.197,2.27,0.34,-0.07,0.54,-0.31,1.09,
3.198,2.27,0.34,-0.07,0.54,-0.32,1.06,
3.201,2.27,0.34,-0.07,0.54,-0.33,1.02,
3.202,2.27,0.34,-0.07,0.54,-0.33,1.00,
3.204,2.27,0.34,-0.07,0.55,-0.32,0.97,
3.207,2.72,0.05,1.19,0.55,-0.32,0.97,
3.207,2.72,0.05,1.19,0.56,-0.30,0.94,
3.208,2.72,0.05,1.19,0.57,-0.28,0.91,
3.212,2.72,0.05,1.19,0.59,-0.23,0.87,
3.212,2.72,0.05,1.19,0.61,-0.22,0.86,
3.214,2.72,0.05,1.19,0.63,-0.17,0.83,
3.217,3.04,-0.23,2.42,0.63,-0.17,0.83,
3.217,3.04,-0.23,2.42,0.65,-0.13,0.80,
3.218,3.04,-0.23,2.42,0.68,-0.07,0.77,
3.221,3.04,-0.23,2.42,0.73,0.02,0.73,
3.223,3.04,-0.23,2.42,0.74,0.05,0.72,
3.224,3.04,-0.23,2.42,0.78,0.11,0.69,
3.227,3.15,-0.45,3.19,0.78,0.11,0.69,
3.228,3.15,-0.45,3.19,0.81,0.18,0.67,
3.229,3.15,-0.45,3.19,0.86,0.28,0.63,
3.231,3.15,-0.45,3.19,0.89,0.34,0.61,
3.232,3.15,-0.45,3.19,0.90,0.37,0.59,
3.234,3.15,-0.45,3.19,0.93,0.43,0.57,
3.237,3.10,-0.67,3.10,0.93,0.43,0.57,
3.237,3.10,-0.67,3.10,0.96,0.49,0.55,
3.238,3.10,-0.67,3.10,0.98,0.54,0.53,
3.241,3.10,-0.67,3.10,1.00,0.62,0.50,
3.242,3.10,-0.67,3.10,1.01,0.64,0.50,
3.245,3.10,-0.67,3.10,1.03,0.68,0.48,
3.247,2.74,-0.81,2.29,1.03,0.68,0.48,
3.247,2.74,-0.81,2.29,1.04,0.71,0.46,
3.248,2.74,-0.81,2.29,1.04,0.75,0.45,
3.251,2.74,-0.81,2.29,1.04,0.79,0.43,
3.252,2.74,-0.81,2.29,1.04,0.80,0.42,
3.254,2.74,-0.81,2.29,1.04,0.81,0.41,
3.257,2.41,-0.94,1.24,1.04,0.81,0.41,
3.259,2.41,-0.94,1.24,1.03,0.83,0.40,
3.259,2.41,-0.94,1.24,1.03,0.83,0.39,
3.261,2.41,-0.94,1.24,1.02,0.84,0.37,
3.262,2.41,-0.94,1.24,1.01,0.84,0.37,
3.264,2.41,-0.94,1.24,1.00,0.83,0.36,
3.285,2.05,-1.08,0.44,1.00,0.83,0.36,
3.285,2.05,-1.08,0.44,0.99,0.83,0.35,
3.286,2.05,-1.08,0.44,0.99,0.82,0.34,
3.287,2.05,-1.08,0.44,0.98,0.82,0.33,
3.288,2.05,-1.08,0.44,0.98,0.82,0.33,
3.288,2.05,-1.08,0.44,0.98,0.82,0.32,
3.289,2.01,-1.30,0.26,0.98,0.82,0.32,
3.29,2.01,-1.30,0.26,0.98,0.82,0.31,
3.29,2.01,-1.30,0.26,0.99,0.82,0.30,
3.291,2.01,-1.30,0.26,1.01,0.83,0.29,
3.292,2.01,-1.30,0.26,1.01,0.83,0.29,
3.293,2.01,-1.30,0.26,1.02,0.84,0.28,
3.293,1.80,-1.51,0.27,1.02,0.84,0.28,
3.294,1.80,-1.51,0.27,1.04,0.85,0.28,
3.306,1.80,-1.51,0.27,1.06,0.86,0.28,
3.306,1.80,-1.51,0.27,1.08,0.88,0.28,
3.306,1.80,-1.51,0.27,1.09,0.89,0.28,
3.307,1.80,-1.51,0.27,1.11,0.90,0.27,
3.307,1.55,-1.70,0.01,1.11,0.90,0.27,
3.307,1.55,-1.70,0.01,1.13,0.92,0.28,
3.307,1.55,-1.70,0.01,1.15,0.94,0.28,
3.308,1.55,-1.70,0.01,1.18,0.96,0.28,
3.308,1.55,-1.70,0.01,1.19,0.96,0.29,
3.308,1.55,-1.70,0.01,1.19,0.98,0.29,
3.308,1.20,-1.82,-0.63,1.19,0.98,0.29,
3.309,1.20,-1.82,-0.63,1.21,0.99,0.29,
3.309,1.20,-1.82,-0.63,1.22,1.00,0.30,
3.311,1.20,-1.82,-0.63,1.23,1.00,0.31,
3.312,1.20,-1.82,-0.63,1.23,1.00,0.32,
3.314,1.20,-1.82,-0.63,1.23,0.99,0.33,
3.317,0.74,-2.06,-1.56,1.23,0.99,0.33,
3.317,0.74,-2.06,-1.56,1.22,0.98,0.34,
3.319,0.74,-2.06,-1.56,1.21,0.96,0.36,
3.321,0.74,-2.06,-1.56,1.18,0.92,0.39,
3.322,0.74,-2.06,-1.56,1.17,0.91,0.40,
3.325,0.74,-2.06,-1.56,1.14,0.87,0.41,
3.327,0.22,-2.19,-2.54,1.14,0.87,0.41,
3.327,0.22,-2.19,-2.54,1.11,0.83,0.44,
3.328,0.22,-2.19,-2.54,1.07,0.79,0.46,
3.331,0.22,-2.19,-2.54,1.01,0.71,0.49,
3.332,0.22,-2.19,-2.54,0.98,0.68,0.51,
3.334,0.22,-2.19,-2.54,0.92,0.62,0.53,
3.337,-0.29,-2.12,-3.23,0.92,0.62,0.53,
3.337,-0.29,-2.12,-3.23,0.86,0.54,0.55,
3.343,-0.29,-2.12,-3.23,0.78,0.46,0.58,
3.344,-0.29,-2.12,-3.23,0.66,0.31,0.61,
3.344,-0.29,-2.12,-3.23,0.61,0.26,0.63,
3.344,-0.29,-2.12,-3.23,0.51,0.15,0.65,
3.349,-0.48,-1.92,-3.47,0.51,0.15,0.65,
3.349,-0.48,-1.92,-3.47,0.42,0.04,0.68,
3.349,-0.48,-1.92,-3.47,0.31,-0.09,0.70,
3.352,-0.48,-1.92,-3.47,0.15,-0.27,0.72,
3.353,-0.48,-1.92,-3.47,0.11,-0.33,0.72,
3.354,-0.48,-1.92,-3.47,0.02,-0.44,0.73,
3.364,0.30,-1.35,-2.28,0.02,-0.44,0.73,
3.365,0.30,-1.35,-2.28,-0.06,-0.55,0.73,
3.365,0.30,-1.35,-2.28,-0.14,-0.65,0.72,
3.365,0.30,-1.35,-2.28,-0.23,-0.77,0.70,
3.365,0.30,-1.35,-2.28,-0.26,-0.81,0.69,
3.366,0.30,-1.35,-2.28,-0.31,-0.87,0.66,
3.367,1.75,-0.75,0.34,-0.31,-0.87,0.66,
3.367,1.75,-0.75,0.34,-0.34,-0.92,0.63,
3.368,1.75,-0.75,0.34,-0.37,-0.96,0.60,
3.381,1.75,-0.75,0.34,-0.39,-1.00,0.54,
3.382,1.75,-0.75,0.34,-0.40,-1.01,0.52,
3.382,1.75,-0.75,0.34,-0.40,-1.03,0.47,
3.382,3.07,-0.45,3.06,-0.40,-1.03,0.47,
3.383,3.07,-0.45,3.06,-0.40,-1.04,0.43,
3.383,3.07,-0.45,3.06,-0.40,-1.05,0.39,
3.383,3.07,-0.45,3.06,-0.40,-1.04,0.32,
3.383,3.07,-0.45,3.06,-0.40,-1.04,0.29,
3.386,3.07,-0.45,3.06,-0.41,-1.03,0.24,
3.388,3.65,-0.35,4.80,-0.41,-1.03,0.24,
3.39,3.65,-0.35,4.80,-0.41,-1.02,0.20,
3.39,3.65,-0.35,4.80,-0.42,-1.00,0.15,
3.399,3.65,-0.35,4.80,-0.45,-0.97,0.07,
3.401,3.65,-0.35,4.80,-0.46,-0.96,0.05,
3.401,3.65,-0.35,4.80,-0.47,-0.93,0.01,
3.402,3.81,-0.49,5.58,-0.47,-0.93,0.01,
3.402,3.81,-0.49,5.58,-0.49,-0.89,-0.04,
3.403,3.81,-0.49,5.58,-0.52,-0.85,-0.09,
3.403,3.81,-0.49,5.58,-0.56,-0.77,-0.15,
3.404,3.81,-0.49,5.58,-0.58,-0.74,-0.17,
3.41,3.81,-0.49,5.58,-0.61,-0.68,-0.21,
3.412,3.40,-0.66,5.98,-0.61,-0.68,-0.21,
3.413,3.40,-0.66,5.98,-0.65,-0.62,-0.25,
3.414,3.40,-0.66,5.98,-0.68,-0.54,-0.27,
3.414,3.40,-0.66,5.98,-0.72,-0.41,-0.31,
3.415,3.40,-0.66,5.98,-0.74,-0.36,-0.33,
3.416,3.40,-0.66,5.98,-0.77,-0.27,-0.35,
3.418,2.70,-0.95,6.32,-0.77,-0.27,-0.35,
3.419,2.70,-0.95,6.32,-0.80,-0.17,-0.36,
3.419,2.70,-0.95,6.32,-0.83,-0.07,-0.38,
3.425,2.70,-0.95,6.32,-0.87,0.08,-0.39,
3.426,2.70,-0.95,6.32,-0.88,0.13,-0.39,
3.426,2.70,-0.95,6.32,-0.91,0.22,-0.39,
3.427,1.79,-1.06,6.25,-0.91,0.22,-0.39,
3.427,1.79,-1.06,6.25,-0.93,0.31,-0.39,
3.431,1.79,-1.06,6.25,-0.95,0.40,-0.38,
3.435,1.79,-1.06,6.25,-0.98,0.51,-0.37,
3.455,1.79,-1.06,6.25,-0.99,0.55,-0.36,
3.455,1.79,-1.06,6.25,-1.00,0.61,-0.35,
3.455,0.98,-1.02,5.94,-1.00,0.61,-0.35,
3.456,0.98,-1.02,5.94,-1.01,0.66,-0.34,
3.456,0.98,-1.02,5.94,-1.02,0.69,-0.33,
3.456,0.98,-1.02,5.94,-1.02,0.72,-0.33,
3.456,0.98,-1.02,5.94,-1.02,0.72,-0.32,
3.457,0.98,-1.02,5.94,-1.03,0.72,-0.32,
3.457,0.77,-0.71,5.43,-1.03,0.72,-0.32,
3.457,0.77,-0.71,5.43,-1.03,0.71,-0.33,
3.457,0.77,-0.71,5.43,-1.03,0.69,-0.33,
3.458,0.77,-0.71,5.43,-1.03,0.64,-0.35,
3.458,0.77,-0.71,5.43,-1.03,0.62,-0.35,
3.461,0.77,-0.71,5.43,-1.03,0.58,-0.36,
3.461,0.74,-0.52,4.73,-1.03,0.58,-0.36,
3.462,0.74,-0.52,4.73,-1.04,0.54,-0.37,
3.462,0.74,-0.52,4.73,-1.03,0.49,-0.38,
3.462,0.74,-0.52,4.73,-1.03,0.42,-0.39,
3.463,0.74,-0.52,4.73,-1.03,0.40,-0.40,
3.467,0.74,-0.52,4.73,-1.03,0.36,-0.41,
3.468,0.67,-0.35,4.10,-1.03,0.36,-0.41,
3.468,0.67,-0.35,4.10,-1.03,0.32,-0.42,
3.469,0.67,-0.35,4.10,-1.02,0.28,-0.42,
3.473,0.67,-0.35,4.10,-1.02,0.23,-0.43,
3.474,0.67,-0.35,4.10,-1.01,0.22,-0.43,
3.483,0.67,-0.35,4.10,-1.01,0.20,-0.44,
3.483,0.64,-0.35,3.50,-1.01,0.20,-0.44,
3.484,0.64,-0.35,3.50,-1.01,0.18,-0.44,
3.484,0.64,-0.35,3.50,-1.01,0.17,-0.44,
3.484,0.64,-0.35,3.50,-1.00,0.16,-0.45,
3.484,0.64,-0.35,3.50,-1.00,0.16,-0.45,
3.485,0.64,-0.35,3.50,-0.99,0.17,-0.45,
3.528,0.80,-0.37,2.89,-0.99,0.17,-0.45,
3.528,0.80,-0.37,2.89,-0.99,0.18,-0.46,
3.528,0.80,-0.37,2.89,-0.98,0.20,-0.47,
3.529,0.80,-0.37,2.89,-0.98,0.24,-0.48,
3.529,0.80,-0.37,2.89,-0.97,0.26,-0.48,
3.529,0.80,-0.37,2.89,-0.96,0.29,-0.48,
3.529,0.86,-0.51,2.29,-0.96,0.29,-0.48,
3.53,0.86,-0.51,2.29,-0.95,0.33,-0.49,
3.53,0.86,-0.51,2.29,-0.94,0.36,-0.50,
3.53,0.86,-0.51,2.29,-0.93,0.42,-0.50,
3.53,0.86,-0.51,2.29,-0.93,0.44,-0.50,
3.531,0.86,-0.51,2.29,-0.91,0.51,-0.50,
3.531,0.63,-0.59,1.68,-0.91,0.51,-0.50,
3.531,0.63,-0.59,1.68,-0.90,0.56,-0.50,
3.531,0.63,-0.59,1.68,-0.90,0.58,-0.50,
3.531,0.63,-0.59,1.68,-0.88,0.65,-0.49,
3.532,0.63,-0.59,1.68,-0.87,0.68,-0.49,
3.532,0.63,-0.59,1.68,-0.85,0.75,-0.47,
3.532,0.29,-0.61,1.08,-0.85,0.75,-0.47,
3.532,0.29,-0.61,1.08,-0.83,0.79,-0.46,
3.533,0.29,-0.61,1.08,-0.82,0.81,-0.46,
3.533,0.29,-0.61,1.08,-0.79,0.88,-0.44,
3.533,0.29,-0.61,1.08,-0.77,0.92,-0.43,
3.533,0.29,-0.61,1.08,-0.75,0.95,-0.42,
3.533,0.07,-0.56,0.39,-0.75,0.95,-0.42,
3.534,0.07,-0.56,0.39,-0.72,0.98,-0.42,
3.534,0.07,-0.56,0.39,-0.71,1.00,-0.41,
3.534,0.07,-0.56,0.39,-0.66,1.04,-0.40,
3.534,0.07,-0.56,0.39,-0.64,1.07,-0.39,
3.535,0.07,-0.56,0.39,-0.61,1.09,-0.38,
3.538,-0.07,-0.44,-0.36,-0.61,1.09,-0.38,
3.539,-0.07,-0.44,-0.36,-0.58,1.11,-0.36,
3.54,-0.07,-0.44,-0.36,-0.55,1.13,-0.36,
3.542,-0.07,-0.44,-0.36,-0.52,1.14,-0.35,
3.543,-0.07,-0.44,-0.36,-0.49,1.15,-0.33,
3.545,-0.07,-0.44,-0.36,-0.46,1.15,-0.32,
3.547,-0.23,-0.33,-1.29,-0.46,1.15,-0.32,
3.547,-0.23,-0.33,-1.29,-0.43,1.15,-0.31,
3.549,-0.23,-0.33,-1.29,-0.40,1.14,-0.30,
3.551,-0.23,-0.33,-1.29,-0.37,1.13,-0.28,
3.553,-0.23,-0.33,-1.29,-0.34,1.11,-0.27,
3.555,-0.23,-0.33,-1.29,-0.32,1.09,-0.26,
3.557,-0.36,-0.17,-2.26,-0.32,1.09,-0.26,
3.558,-0.36,-0.17,-2.26,-0.29,1.07,-0.25,
3.559,-0.36,-0.17,-2.26,-0.27,1.03,-0.24,
3.561,-0.36,-0.17,-2.26,-0.25,1.00,-0.23,
3.562,-0.36,-0.17,-2.26,-0.22,0.96,-0.22,
3.565,-0.36,-0.17,-2.26,-0.20,0.92,-0.22,
3.567,-0.44,0.03,-3.21,-0.20,0.92,-0.22,
3.567,-0.44,0.03,-3.21,-0.18,0.88,-0.22,
3.568,-0.44,0.03,-3.21,-0.17,0.83,-0.21,
3.572,-0.44,0.03,-3.21,-0.15,0.79,-0.20,
3.573,-0.44,0.03,-3.21,-0.13,0.74,-0.20,
3.575,-0.44,0.03,-3.21,-0.11,0.70,-0.19,
3.579,-0.52,0.17,-3.99,-0.11,0.70,-0.19,
3.581,-0.52,0.17,-3.99,-0.10,0.65,-0.19,
3.594,-0.52,0.17,-3.99,-0.09,0.61,-0.19,
3.594,-0.52,0.17,-3.99,-0.06,0.54,-0.18,
3.595,-0.52,0.17,-3.99,-0.06,0.52,-0.18,
3.595,-0.52,0.17,-3.99,-0.05,0.48,-0.17,
3.595,-0.62,0.17,-4.52,-0.05,0.48,-0.17,
3.595,-0.62,0.17,-4.52,-0.03,0.44,-0.17,
3.596,-0.62,0.17,-4.52,-0.02,0.41,-0.16,
3.596,-0.62,0.17,-4.52,-0.01,0.38,-0.15,
3.596,-0.62,0.17,-4.52,0.00,0.34,-0.15,
3.596,-0.62,0.17,-4.52,0.01,0.32,-0.14,
3.597,-0.81,0.16,-4.98,0.01,0.32,-0.14,
3.598,-0.81,0.16,-4.98,0.01,0.29,-0.13,
3.62,-0.81,0.16,-4.98,0.02,0.27,-0.12,
3.62,-0.81,0.16,-4.98,0.03,0.25,-0.11,
3.621,-0.81,0.16,-4.98,0.03,0.23,-0.10,
3.621,-0.81,0.16,-4.98,0.03,0.22,-0.08,
3.621,-0.93,-0.03,-5.30,0.03,0.22,-0.08,
3.621,-0.93,-0.03,-5.30,0.04,0.20,-0.07,
3.621,-0.93,-0.03,-5.30,0.04,0.18,-0.06,
3.621,-0.93,-0.03,-5.30,0.03,0.17,-0.05,
3.621,-0.93,-0.03,-5.30,0.03,0.15,-0.03,
3.622,-0.93,-0.03,-5.30,0.03,0.14,-0.02,
3.622,-1.00,-0.11,-5.45,0.03,0.14,-0.02,
3.622,-1.00,-0.11,-5.45,0.03,0.12,-0.01,
3.622,-1.00,-0.11,-5.45,0.03,0.11,0.01,
3.622,-1.00,-0.11,-5.45,0.03,0.09,0.01,
3.622,-1.00,-0.11,-5.45,0.03,0.08,0.03,
3.628,-1.00,-0.11,-5.45,0.04,0.06,0.04,
3.629,-0.91,-0.19,-5.26,0.04,0.06,0.04,
3.629,-0.91,-0.19,-5.26,0.04,0.04,0.04,
3.629,-0.91,-0.19,-5.26,0.04,0.03,0.05,
3.633,-0.91,-0.19,-5.26,0.05,0.01,0.05,
3.633,-0.91,-0.19,-5.26,0.06,-0.01,0.06,
3.637,-0.91,-0.19,-5.26,0.06,-0.03,0.06,
3.637,-0.71,-0.09,-4.87,0.06,-0.03,0.06,
3.638,-0.71,-0.09,-4.87,0.07,-0.04,0.06,
3.642,-0.71,-0.09,-4.87,0.08,-0.06,0.06,
3.642,-0.71,-0.09,-4.87,0.09,-0.08,0.06,
3.643,-0.71,-0.09,-4.87,0.10,-0.11,0.06,
3.647,-0.71,-0.09,-4.87,0.11,-0.13,0.06,
3.647,-0.47,-0.10,-4.40,0.11,-0.13,0.06,
3.647,-0.47,-0.10,-4.40,0.13,-0.15,0.06,
3.651,-0.47,-0.10,-4.40,0.14,-0.18,0.05,
3.653,-0.47,-0.10,-4.40,0.16,-0.21,0.05,
3.654,-0.47,-0.10,-4.40,0.18,-0.23,0.04,
3.658,-0.47,-0.10,-4.40,0.19,-0.26,0.04,
3.66,-0.47,-0.10,-4.40,0.24,-0.30,0.03,
3.661,-0.47,-0.10,-4.40,0.24,-0.30,0.03,
3.664,-0.32,-0.02,-3.74,0.24,-0.30,0.03,
3.664,-0.32,-0.02,-3.74,0.27,-0.32,0.02,
3.665,-0.32,-0.02,-3.74,0.28,-0.33,0.02,
3.665,-0.32,-0.02,-3.74,0.30,-0.35,0.02,
3.669,-0.37,-0.06,-3.52,0.30,-0.35,0.02,
3.669,-0.37,-0.06,-3.52,0.32,-0.36,0.02,
3.669,-0.37,-0.06,-3.52,0.34,-0.37,0.02,
3.672,-0.37,-0.06,-3.52,0.35,-0.38,0.02,
3.674,-0.37,-0.06,-3.52,0.37,-0.39,0.02,
3.674,-0.37,-0.06,-3.52,0.39,-0.39,0.02,
3.678,-0.49,-0.14,-3.29,0.39,-0.39,0.02,
3.678,-0.49,-0.14,-3.29,0.40,-0.40,0.02,
3.678,-0.49,-0.14,-3.29,0.41,-0.40,0.02,
3.681,-0.49,-0.14,-3.29,0.42,-0.39,0.03,
3.682,-0.49,-0.14,-3.29,0.43,-0.39,0.03,
3.687,-0.49,-0.14,-3.29,0.44,-0.39,0.03,
3.687,-0.59,-0.23,-3.15,0.44,-0.39,0.03,
3.687,-0.59,-0.23,-3.15,0.44,-0.38,0.03,
3.691,-0.59,-0.23,-3.15,0.45,-0.37,0.04,
3.692,-0.59,-0.23,-3.15,0.45,-0.36,0.04,
3.692,-0.59,-0.23,-3.15,0.46,-0.35,0.04,
3.697,-0.59,-0.23,-3.15,0.46,-0.33,0.04,
3.7,-0.68,-0.31,-3.01,0.46,-0.33,0.04,
3.7,-0.68,-0.31,-3.01,0.45,-0.32,0.04,
3.701,-0.68,-0.31,-3.01,0.45,-0.30,0.04,
3.701,-0.68,-0.31,-3.01,0.45,-0.29,0.04,
3.704,-0.68,-0.31,-3.01,0.44,-0.27,0.04,
3.705,-0.68,-0.31,-3.01,0.44,-0.26,0.05,
3.707,-0.74,-0.43,-2.85,0.44,-0.26,0.05,
3.707,-0.74,-0.43,-2.85,0.43,-0.25,0.05,
3.708,-0.74,-0.43,-2.85,0.43,-0.23,0.05,
3.711,-0.74,-0.43,-2.85,0.43,-0.22,0.06,
3.712,-0.74,-0.43,-2.85,0.43,-0.20,0.06,
3.714,-0.74,-0.43,-2.85,0.44,-0.18,0.06,
3.717,-0.75,-0.35,-2.47,0.44,-0.18,0.06,
3.717,-0.75,-0.35,-2.47,0.45,-0.16,0.06,
3.718,-0.75,-0.35,-2.47,0.45,-0.14,0.06,
3.724,-0.75,-0.35,-2.47,0.46,-0.13,0.06,
3.724,-0.75,-0.35,-2.47,0.46,-0.11,0.06,
3.725,-0.75,-0.35,-2.47,0.46,-0.10,0.05,
3.727,-0.51,-0.27,-2.30,0.46,-0.10,0.05,
3.727,-0.51,-0.27,-2.30,0.46,-0.09,0.05,
3.728,-0.51,-0.27,-2.30,0.46,-0.08,0.04,
3.733,-0.51,-0.27,-2.30,0.45,-0.07,0.03,
3.733,-0.51,-0.27,-2.30,0.45,-0.05,0.02,
3.735,-0.51,-0.27,-2.30,0.44,-0.04,0.01,
3.754,-0.24,-0.04,-2.43,0.44,-0.04,0.01,
3.755,-0.24,-0.04,-2.43,0.44,-0.03,-0.00,
3.755,-0.24,-0.04,-2.43,0.42,-0.02,-0.02,
3.755,-0.24,-0.04,-2.43,0.41,-0.01,-0.03,
3.755,-0.24,-0.04,-2.43,0.39,-0.01,-0.05,
3.755,-0.24,-0.04,-2.43,0.37,-0.00,-0.06,
3.756,-0.01,0.21,-2.68,0.37,-0.00,-0.06,
3.756,-0.01,0.21,-2.68,0.35,0.00,-0.08,
3.756,-0.01,0.21,-2.68,0.33,0.01,-0.10,
3.756,-0.01,0.21,-2.68,0.30,0.01,-0.12,
3.756,-0.01,0.21,-2.68,0.26,0.01,-0.14,
3.756,-0.01,0.21,-2.68,0.23,0.02,-0.16,
3.757,0.19,0.55,-3.13,0.23,0.02,-0.16,
3.758,0.19,0.55,-3.13,0.19,0.02,-0.19,
3.759,0.19,0.55,-3.13,0.14,0.02,-0.21,
3.761,0.19,0.55,-3.13,0.05,0.01,-0.25,
3.762,0.19,0.55,-3.13,0.02,0.01,-0.27,
3.765,0.19,0.55,-3.13,-0.03,0.01,-0.29,
3.784,0.25,0.75,-3.52,-0.03,0.01,-0.29,
3.784,0.25,0.75,-3.52,-0.09,0.00,-0.32,
3.784,0.25,0.75,-3.52,-0.16,-0.02,-0.35,
3.784,0.25,0.75,-3.52,-0.26,-0.05,-0.40,
3.785,0.25,0.75,-3.52,-0.29,-0.07,-0.41,
3.785,0.25,0.75,-3.52,-0.35,-0.10,-0.45,
3.785,0.41,0.97,-3.14,-0.35,-0.10,-0.45,
3.785,0.41,0.97,-3.14,-0.41,-0.13,-0.49,
3.785,0.41,0.97,-3.14,-0.46,-0.16,-0.53,
3.785,0.41,0.97,-3.14,-0.53,-0.22,-0.59,
3.785,0.41,0.97,-3.14,-0.55,-0.23,-0.61,
3.786,0.41,0.97,-3.14,-0.59,-0.27,-0.64,
3.791,0.57,0.88,-1.60,-0.59,-0.27,-0.64,
3.792,0.57,0.88,-1.60,-0.61,-0.31,-0.68,
3.792,0.57,0.88,-1.60,-0.63,-0.34,-0.72,
3.792,0.57,0.88,-1.60,-0.64,-0.40,-0.78,
3.792,0.57,0.88,-1.60,-0.64,-0.41,-0.79,
3.797,0.57,0.88,-1.60,-0.64,-0.45,-0.83,
3.799,0.64,0.66,0.67,-0.64,-0.45,-0.83,
3.8,0.64,0.66,0.67,-0.62,-0.48,-0.86,
3.8,0.64,0.66,0.67,-0.61,-0.50,-0.89,
3.803,0.64,0.66,0.67,-0.56,-0.53,-0.94,
3.804,0.64,0.66,0.67,-0.55,-0.54,-0.95,
3.808,0.64,0.66,0.67,-0.51,-0.55,-0.98,
3.809,0.57,0.37,2.81,-0.51,-0.55,-0.98,
3.809,0.57,0.37,2.81,-0.47,-0.56,-1.01,
3.812,0.57,0.37,2.81,-0.42,-0.56,-1.03,
3.812,0.57,0.37,2.81,-0.35,-0.55,-1.06,
3.812,0.57,0.37,2.81,-0.32,-0.55,-1.07,
3.816,0.57,0.37,2.81,-0.27,-0.53,-1.09,
3.817,0.34,-0.07,4.35,-0.27,-0.53,-1.09,
3.817,0.34,-0.07,4.35,-0.21,-0.51,-1.11,
3.82,0.34,-0.07,4.35,-0.15,-0.48,-1.12,
3.822,0.34,-0.07,4.35,-0.07,-0.42,-1.13,
3.822,0.34,-0.07,4.35,-0.04,-0.39,-1.13,
3.826,0.34,-0.07,4.35,0.02,-0.34,-1.13,
3.827,-0.14,-0.39,4.92,0.02,-0.34,-1.13,
3.827,-0.14,-0.39,4.92,0.07,-0.29,-1.13,
3.828,-0.14,-0.39,4.92,0.13,-0.23,-1.13,
3.831,-0.14,-0.39,4.92,0.20,-0.14,-1.11,
3.832,-0.14,-0.39,4.92,0.22,-0.11,-1.11,
3.836,-0.14,-0.39,4.92,0.26,-0.05,-1.09,
3.837,-0.96,-0.55,4.47,0.26,-0.05,-1.09,
3.837,-0.96,-0.55,4.47,0.30,0.01,-1.08,
3.841,-0.96,-0.55,4.47,0.34,0.07,-1.06,
3.844,-0.96,-0.55,4.47,0.38,0.15,-1.03,
3.845,-0.96,-0.55,4.47,0.39,0.18,-1.02,
3.845,-0.96,-0.55,4.47,0.40,0.22,-0.99,
3.849,-1.57,-0.48,3.25,0.40,0.22,-0.99,
3.849,-1.57,-0.48,3.25,0.42,0.26,-0.97,
3.849,-1.57,-0.48,3.25,0.43,0.29,-0.95,
3.852,-1.57,-0.48,3.25,0.43,0.33,-0.91,
3.853,-1.57,-0.48,3.25,0.43,0.34,-0.90,
3.862,-1.57,-0.48,3.25,0.43,0.35,-0.88,
3.862,-1.88,-0.25,1.87,0.43,0.35,-0.88,
3.862,-1.88,-0.25,1.87,0.42,0.36,-0.86,
3.862,-1.88,-0.25,1.87,0.41,0.36,-0.84,
3.863,-1.88,-0.25,1.87,0.38,0.35,-0.81,
3.863,-1.88,-0.25,1.87,0.37,0.34,-0.81,
3.867,-1.88,-0.25,1.87,0.35,0.33,-0.79,
3.871,-1.82,-0.03,0.86,0.35,0.33,-0.79,
3.872,-1.82,-0.03,0.86,0.32,0.30,-0.78,
3.872,-1.82,-0.03,0.86,0.30,0.28,-0.78,
3.893,-1.82,-0.03,0.86,0.26,0.23,-0.76,
3.894,-1.82,-0.03,0.86,0.25,0.22,-0.76,
3.894,-1.82,-0.03,0.86,0.22,0.19,-0.76,
3.894,-1.73,0.24,0.61,0.22,0.19,-0.76,
3.894,-1.73,0.24,0.61,0.20,0.15,-0.75,
3.894,-1.73,0.24,0.61,0.17,0.12,-0.74,
3.894,-1.73,0.24,0.61,0.13,0.06,-0.73,
3.895,-1.73,0.24,0.61,0.12,0.05,-0.73,
3.895,-1.73,0.24,0.61,0.10,0.01,-0.72,
3.895,-1.54,0.40,1.01,0.10,0.01,-0.72,
3.895,-1.54,0.40,1.01,0.08,-0.02,-0.72,
3.895,-1.54,0.40,1.01,0.07,-0.06,-0.71,
3.895,-1.54,0.40,1.01,0.05,-0.10,-0.70,
3.896,-1.54,0.40,1.01,0.04,-0.11,-0.69,
3.896,-1.54,0.40,1.01,0.03,-0.14,-0.69,
3.899,-1.46,0.41,1.80,0.03,-0.14,-0.69,
3.9,-1.46,0.41,1.80,0.02,-0.16,-0.67,
3.9,-1.46,0.41,1.80,0.01,-0.18,-0.66,
3.901,-1.46,0.41,1.80,0.01,-0.21,-0.64,
3.904,-1.46,0.41,1.80,0.01,-0.22,-0.63,
3.909,-1.46,0.41,1.80,0.01,-0.23,-0.61,
3.91,-1.57,0.30,2.71,0.01,-0.23,-0.61,
3.91,-1.57,0.30,2.71,0.01,-0.23,-0.59,
3.91,-1.57,0.30,2.71,0.01,-0.23,-0.57,
3.911,-1.57,0.30,2.71,0.03,-0.22,-0.53,
3.912,-1.57,0.30,2.71,0.03,-0.21,-0.52,
3.917,-1.57,0.30,2.71,0.04,-0.19,-0.49,
3.919,-1.95,0.43,3.53,0.04,-0.19,-0.49,
3.92,-1.95,0.43,3.53,0.05,-0.16,-0.46,
3.92,-1.95,0.43,3.53,0.06,-0.13,-0.43,
3.922,-1.95,0.43,3.53,0.07,-0.09,-0.38,
3.922,-1.95,0.43,3.53,0.06,-0.08,-0.36,
3.924,-1.95,0.43,3.53,0.06,-0.06,-0.32,
3.928,-2.13,0.70,3.47,0.06,-0.06,-0.32,
3.928,-2.13,0.70,3.47,0.04,-0.05,-0.29,
3.929,-2.13,0.70,3.47,0.02,-0.05,-0.25,
3.931,-2.13,0.70,3.47,-0.04,-0.08,-0.21,
3.956,-2.13,0.70,3.47,-0.07,-0.10,-0.19,
3.957,-2.13,0.70,3.47,-0.12,-0.14,-0.17,
3.957,-1.69,0.87,2.33,-0.12,-0.14,-0.17,
3.957,-1.69,0.87,2.33,-0.19,-0.19,-0.15,
3.957,-1.69,0.87,2.33,-0.26,-0.23,-0.13,
3.958,-1.69,0.87,2.33,-0.38,-0.29,-0.12,
3.958,-1.69,0.87,2.33,-0.42,-0.31,-0.12,
3.958,-1.69,0.87,2.33,-0.50,-0.34,-0.13,
3.958,-0.42,0.86,1.88,-0.50,-0.34,-0.13,
3.958,-0.42,0.86,1.88,-0.56,-0.37,-0.13,
3.959,-0.42,0.86,1.88,-0.64,-0.39,-0.15,
3.959,-0.42,0.86,1.88,-0.74,-0.42,-0.17,
3.959,-0.42,0.86,1.88,-0.77,-0.42,-0.18,
3.959,-0.42,0.86,1.88,-0.83,-0.43,-0.21,
3.964,0.78,0.90,2.60,-0.83,-0.43,-0.21,
3.964,0.78,0.90,2.60,-0.90,-0.44,-0.23,
3.964,0.78,0.90,2.60,-0.97,-0.46,-0.26,
3.965,0.78,0.90,2.60,-1.07,-0.48,-0.31,
3.965,0.78,0.90,2.60,-1.11,-0.49,-0.33,
3.965,0.78,0.90,2.60,-1.18,-0.51,-0.36,
3.971,1.74,0.61,3.49,-1.18,-0.51,-0.36,
3.972,1.74,0.61,3.49,-1.26,-0.52,-0.40,
3.972,1.74,0.61,3.49,-1.32,-0.53,-0.43,
3.972,1.74,0.61,3.49,-1.42,-0.53,-0.47,
3.973,1.74,0.61,3.49,-1.46,-0.52,-0.48,
3.981,1.74,0.61,3.49,-1.50,-0.50,-0.50,
3.981,1.92,-0.12,5.03,-1.50,-0.50,-0.50,
3.981,1.92,-0.12,5.03,-1.55,-0.47,-0.51,
3.982,1.92,-0.12,5.03,-1.59,-0.42,-0.52,
3.982,1.92,-0.12,5.03,-1.62,-0.33,-0.51,
3.982,1.92,-0.12,5.03,-1.62,-0.30,-0.50,
3.985,1.92,-0.12,5.03,-1.64,-0.22,-0.49,
3.991,1.17,-0.94,7.09,-1.64,-0.22,-0.49,
3.992,1.17,-0.94,7.09,-1.64,-0.14,-0.46,
3.992,1.17,-0.94,7.09,-1.64,-0.04,-0.43,
3.992,1.17,-0.94,7.09,-1.60,0.11,-0.37,
3.994,1.17,-0.94,7.09,-1.59,0.17,-0.35,
3.995,1.17,-0.94,7.09,-1.55,0.27,-0.30,
3.998,0.19,-1.61,8.81,-1.55,0.27,-0.30,
3.998,0.19,-1.61,8.81,-1.50,0.38,-0.24,
3.999,0.19,-1.61,8.81,-1.46,0.49,-0.19,
4.01,0.19,-1.61,8.81,-1.38,0.63,-0.11,
4.011,0.19,-1.61,8.81,-1.35,0.68,-0.08,
4.011,0.19,-1.61,8.81,-1.29,0.76,-0.03,
4.011,-0.45,-1.79,9.22,-1.29,0.76,-0.03,
4.011,-0.45,-1.79,9.22,-1.23,0.83,0.03,
4.011,-0.45,-1.79,9.22,-1.17,0.88,0.08,
4.012,-0.45,-1.79,9.22,-1.08,0.95,0.16,
4.013,-0.45,-1.79,9.22,-1.05,0.96,0.18,
4.014,-0.45,-1.79,9.22,-0.99,0.99,0.23,
4.017,-0.71,-1.60,8.36,-0.99,0.99,0.23,
4.017,-0.71,-1.60,8.36,-0.93,1.00,0.28,
4.02,-0.71,-1.60,8.36,-0.87,0.99,0.33,
4.022,-0.71,-1.60,8.36,-0.78,0.98,0.41,
4.022,-0.71,-1.60,8.36,-0.75,0.97,0.43,
4.024,-0.71,-1.60,8.36,-0.70,0.94,0.48,
4.027,-0.74,-1.21,7.01,-0.70,0.94,0.48,
4.027,-0.74,-1.21,7.01,-0.64,0.90,0.52,
4.028,-0.74,-1.21,7.01,-0.59,0.86,0.57,
4.031,-0.74,-1.21,7.01,-0.51,0.79,0.64,
4.032,-0.74,-1.21,7.01,-0.49,0.76,0.66,
4.034,-0.74,-1.21,7.01,-0.44,0.70,0.70,
4.037,-0.70,-0.89,5.61,-0.44,0.70,0.70,
4.038,-0.70,-0.89,5.61,-0.39,0.64,0.75,
4.038,-0.70,-0.89,5.61,-0.33,0.58,0.79,
4.041,-0.70,-0.89,5.61,-0.25,0.49,0.85,
4.042,-0.70,-0.89,5.61,-0.22,0.46,0.87,
4.044,-0.70,-0.89,5.61,-0.17,0.39,0.91,
4.047,-0.43,-0.54,4.46,-0.17,0.39,0.91,
4.047,-0.43,-0.54,4.46,-0.12,0.32,0.95,
4.048,-0.43,-0.54,4.46,-0.06,0.26,0.98,
4.051,-0.43,-0.54,4.46,0.03,0.16,1.02,
4.052,-0.43,-0.54,4.46,0.06,0.13,1.04,
4.055,-0.43,-0.54,4.46,0.11,0.07,1.06,
4.057,0.13,-0.20,3.48,0.11,0.07,1.06,
4.057,0.13,-0.20,3.48,0.17,0.01,1.07,
4.058,0.13,-0.20,3.48,0.23,-0.04,1.09,
4.061,0.13,-0.20,3.48,0.32,-0.12,1.11,
4.062,0.13,-0.20,3.48,0.34,-0.14,1.12,
4.064,0.13,-0.20,3.48,0.40,-0.18,1.12,
4.067,0.72,0.12,2.41,0.40,-0.18,1.12,
4.067,0.72,0.12,2.41,0.45,-0.22,1.13,
4.068,0.72,0.12,2.41,0.49,-0.26,1.13,
4.071,0.72,0.12,2.41,0.56,-0.30,1.14,
4.073,0.72,0.12,2.41,0.58,-0.31,1.14,
4.075,0.72,0.12,2.41,0.62,-0.32,1.14,
4.077,1.07,0.28,1.06,0.62,-0.32,1.14,
4.077,1.07,0.28,1.06,0.65,-0.34,1.14,
4.078,1.07,0.28,1.06,0.68,-0.35,1.14,
4.081,1.07,0.28,1.06,0.73,-0.35,1.15,
4.082,1.07,0.28,1.06,0.74,-0.35,1.15,
4.085,1.07,0.28,1.06,0.76,-0.34,1.15,
4.087,1.02,0.35,-0.45,0.76,-0.34,1.15,
4.087,1.02,0.35,-0.45,0.78,-0.34,1.15,
4.089,1.02,0.35,-0.45,0.79,-0.32,1.15,
4.092,1.02,0.35,-0.45,0.80,-0.30,1.15,
4.094,1.02,0.35,-0.45,0.80,-0.29,1.15,
4.094,1.02,0.35,-0.45,0.80,-0.27,1.15,
4.097,0.98,0.47,-2.02,0.80,-0.27,1.15,
4.097,0.98,0.47,-2.02,0.80,-0.25,1.15,
4.114,0.98,0.47,-2.02,0.79,-0.23,1.15,
4.114,0.98,0.47,-2.02,0.77,-0.20,1.14,
4.115,0.98,0.47,-2.02,0.76,-0.19,1.14,
4.115,0.98,0.47,-2.02,0.75,-0.17,1.14,
4.115,0.88,0.52,-3.37,0.75,-0.17,1.14,
4.115,0.88,0.52,-3.37,0.73,-0.14,1.13,
4.115,0.88,0.52,-3.37,0.72,-0.12,1.13,
4.115,0.88,0.52,-3.37,0.69,-0.08,1.12,
4.116,0.88,0.52,-3.37,0.68,-0.07,1.12,
4.116,0.88,0.52,-3.37,0.66,-0.04,1.11,
4.118,0.86,0.71,-4.29,0.66,-0.04,1.11,
4.119,0.86,0.71,-4.29,0.65,-0.02,1.10,
4.119,0.86,0.71,-4.29,0.63,0.01,1.10,
4.122,0.86,0.71,-4.29,0.61,0.05,1.08,
4.123,0.86,0.71,-4.29,0.59,0.06,1.08,
4.124,0.86,0.71,-4.29,0.57,0.08,1.07,
4.126,0.75,0.74,-4.91,0.57,0.08,1.07,
4.127,0.75,0.74,-4.91,0.56,0.10,1.06,
4.128,0.75,0.74,-4.91,0.54,0.12,1.05,
4.131,0.75,0.74,-4.91,0.51,0.15,1.03,
4.132,0.75,0.74,-4.91,0.50,0.16,1.02,
4.135,0.75,0.74,-4.91,0.48,0.17,1.01,
4.138,0.83,0.89,-5.42,0.48,0.17,1.01,
4.138,0.83,0.89,-5.42,0.46,0.17,0.99,
4.139,0.83,0.89,-5.42,0.45,0.18,0.98,
4.141,0.83,0.89,-5.42,0.42,0.18,0.95,
4.142,0.83,0.89,-5.42,0.41,0.18,0.94,
4.144,0.83,0.89,-5.42,0.40,0.18,0.92,
4.146,0.84,0.91,-5.69,0.40,0.18,0.92,
4.147,0.84,0.91,-5.69,0.38,0.18,0.90,
4.148,0.84,0.91,-5.69,0.37,0.18,0.89,
4.156,0.84,0.91,-5.69,0.34,0.18,0.86,
4.157,0.84,0.91,-5.69,0.33,0.18,0.85,
4.157,0.84,0.91,-5.69,0.30,0.17,0.81,
4.157,0.84,0.91,-5.69,0.30,0.17,0.81,
4.158,0.79,1.02,-5.89,0.30,0.17,0.81,
4.161,0.79,1.02,-5.89,0.29,0.17,0.80,
4.162,0.79,1.02,-5.89,0.27,0.16,0.78,
4.162,0.79,1.02,-5.89,0.26,0.15,0.77,
4.164,0.79,1.02,-5.89,0.24,0.14,0.76,
4.167,0.48,0.94,-5.90,0.24,0.14,0.76,
4.167,0.48,0.94,-5.90,0.23,0.13,0.75,
4.176,0.48,0.94,-5.90,0.22,0.12,0.74,
4.177,0.48,0.94,-5.90,0.20,0.11,0.72,
4.177,0.48,0.94,-5.90,0.19,0.10,0.71,
4.177,0.48,0.94,-5.90,0.18,0.09,0.70,
4.178,0.24,0.93,-5.80,0.18,0.09,0.70,
4.178,0.24,0.93,-5.80,0.17,0.08,0.69,
4.179,0.24,0.93,-5.80,0.16,0.07,0.68,
4.181,0.24,0.93,-5.80,0.16,0.05,0.67,
4.182,0.24,0.93,-5.80,0.15,0.05,0.66,
4.185,0.24,0.93,-5.80,0.15,0.04,0.66,
4.187,-0.15,0.71,-5.44,0.15,0.04,0.66,
4.187,-0.15,0.71,-5.44,0.15,0.04,0.65,
4.189,-0.15,0.71,-5.44,0.15,0.05,0.65,
4.191,-0.15,0.71,-5.44,0.15,0.06,0.65,
4.192,-0.15,0.71,-5.44,0.15,0.06,0.65,
4.195,-0.15,0.71,-5.44,0.15,0.08,0.65,
4.197,-0.56,0.58,-5.13,0.15,0.08,0.65,
4.197,-0.56,0.58,-5.13,0.14,0.09,0.65,
4.198,-0.56,0.58,-5.13,0.14,0.10,0.65,
4.202,-0.56,0.58,-5.13,0.13,0.12,0.66,
4.204,-0.56,0.58,-5.13,0.13,0.12,0.66,
4.205,-0.56,0.58,-5.13,0.12,0.13,0.67,
4.209,-0.90,0.32,-4.99,0.12,0.13,0.67,
4.209,-0.90,0.32,-4.99,0.12,0.14,0.67,
4.21,-0.90,0.32,-4.99,0.11,0.16,0.68,
4.212,-0.90,0.32,-4.99,0.09,0.18,0.69,
4.213,-0.90,0.32,-4.99,0.09,0.18,0.70,
4.216,-0.90,0.32,-4.99,0.08,0.19,0.70,
4.217,-0.99,0.24,-4.88,0.08,0.19,0.70,
4.217,-0.99,0.24,-4.88,0.07,0.20,0.70,
4.218,-0.99,0.24,-4.88,0.05,0.22,0.71,
4.222,-0.99,0.24,-4.88,0.04,0.23,0.72,
4.222,-0.99,0.24,-4.88,0.03,0.23,0.72,
4.225,-0.99,0.24,-4.88,0.02,0.24,0.72,
4.229,-0.94,0.05,-4.68,0.02,0.24,0.72,
4.229,-0.94,0.05,-4.68,0.01,0.24,0.73,
4.23,-0.94,0.05,-4.68,-0.00,0.24,0.74,
4.231,-0.94,0.05,-4.68,-0.02,0.25,0.75,
4.232,-0.94,0.05,-4.68,-0.02,0.25,0.76,
4.235,-0.94,0.05,-4.68,-0.03,0.25,0.76,
4.237,-0.81,0.02,-4.31,-0.03,0.25,0.76,
4.237,-0.81,0.02,-4.31,-0.04,0.26,0.77,
4.241,-0.81,0.02,-4.31,-0.05,0.27,0.77,
4.241,-0.81,0.02,-4.31,-0.06,0.28,0.77,
4.242,-0.81,0.02,-4.31,-0.06,0.28,0.77,
4.245,-0.81,0.02,-4.31,-0.07,0.29,0.77,
4.247,-0.43,-0.08,-3.88,-0.07,0.29,0.77,
4.247,-0.43,-0.08,-3.88,-0.08,0.29,0.76,
4.249,-0.43,-0.08,-3.88,-0.08,0.29,0.76,
4.252,-0.43,-0.08,-3.88,-0.08,0.28,0.75,
4.253,-0.43,-0.08,-3.88,-0.08,0.28,0.75,
4.255,-0.43,-0.08,-3.88,-0.08,0.28,0.74,
4.257,-0.25,-0.04,-3.22,-0.08,0.28,0.74,
4.258,-0.25,-0.04,-3.22,-0.07,0.28,0.74,
4.259,-0.25,-0.04,-3.22,-0.05,0.29,0.74,
4.261,-0.25,-0.04,-3.22,-0.04,0.31,0.74,
4.263,-0.25,-0.04,-3.22,-0.03,0.32,0.74,
4.265,-0.25,-0.04,-3.22,-0.01,0.33,0.75,
4.296,-0.35,-0.11,-2.52,-0.01,0.33,0.75,
4.296,-0.35,-0.11,-2.52,0.00,0.35,0.76,
4.297,-0.35,-0.11,-2.52,0.02,0.36,0.77,
4.297,-0.35,-0.11,-2.52,0.05,0.39,0.79,
4.298,-0.35,-0.11,-2.52,0.06,0.40,0.80,
4.298,-0.35,-0.11,-2.52,0.08,0.42,0.83,
4.299,-0.81,-0.34,-2.16,0.08,0.42,0.83,
4.299,-0.81,-0.34,-2.16,0.10,0.44,0.85,
4.299,-0.81,-0.34,-2.16,0.11,0.45,0.88,
4.3,-0.81,-0.34,-2.16,0.13,0.48,0.92,
4.3,-0.81,-0.34,-2.16,0.14,0.49,0.94,
4.301,-0.81,-0.34,-2.16,0.15,0.50,0.97,
4.301,-1.20,-0.47,-2.08,0.15,0.50,0.97,
4.302,-1.20,-0.47,-2.08,0.16,0.52,0.99,
4.302,-1.20,-0.47,-2.08,0.17,0.54,1.02,
4.302,-1.20,-0.47,-2.08,0.19,0.57,1.06,
4.303,-1.20,-0.47,-2.08,0.19,0.57,1.07,
4.303,-1.20,-0.47,-2.08,0.20,0.59,1.10,
4.304,-1.36,-0.50,-1.97,0.20,0.59,1.10,
4.304,-1.36,-0.50,-1.97,0.20,0.60,1.12,
4.304,-1.36,-0.50,-1.97,0.21,0.61,1.15,
4.305,-1.36,-0.50,-1.97,0.21,0.61,1.18,
4.305,-1.36,-0.50,-1.97,0.22,0.60,1.19,
4.306,-1.36,-0.50,-1.97,0.22,0.59,1.20,
4.328,-1.10,-0.41,-1.79,0.22,0.59,1.20,
4.329,-1.10,-0.41,-1.79,0.23,0.57,1.22,
4.329,-1.10,-0.41,-1.79,0.23,0.55,1.23,
4.329,-1.10,-0.41,-1.79,0.23,0.51,1.24,
4.33,-1.10,-0.41,-1.79,0.24,0.49,1.24,
4.33,-1.10,-0.41,-1.79,0.24,0.45,1.25,
4.33,-0.76,-0.31,-1.56,0.24,0.45,1.25,
4.331,-0.76,-0.31,-1.56,0.24,0.41,1.25,
4.331,-0.76,-0.31,-1.56,0.24,0.37,1.25,
4.331,-0.76,-0.31,-1.56,0.26,0.29,1.24,
4.332,-0.76,-0.31,-1.56,0.27,0.26,1.24,
4.332,-0.76,-0.31,-1.56,0.28,0.21,1.24,
4.332,-0.44,-0.20,-1.08,0.28,0.21,1.24,
4.333,-0.44,-0.20,-1.08,0.30,0.16,1.24,
4.333,-0.44,-0.20,-1.08,0.31,0.10,1.23,
4.334,-0.44,-0.20,-1.08,0.34,0.02,1.22,
4.367,-0.44,-0.20,-1.08,0.35,-0.01,1.22,
4.368,-0.44,-0.20,-1.08,0.36,-0.06,1.21,
4.368,0.14,-0.22,-0.51,0.36,-0.06,1.21,
4.369,0.14,-0.22,-0.51,0.38,-0.12,1.20,
4.369,0.14,-0.22,-0.51,0.40,-0.17,1.18,
4.369,0.14,-0.22,-0.51,0.43,-0.25,1.16,
4.37,0.14,-0.22,-0.51,0.43,-0.28,1.15,
4.37,0.14,-0.22,-0.51,0.46,-0.32,1.13,
4.37,0.75,-0.33,0.01,0.46,-0.32,1.13,
4.371,0.75,-0.33,0.01,0.48,-0.37,1.11,
4.371,0.75,-0.33,0.01,0.50,-0.41,1.09,
4.372,0.75,-0.33,0.01,0.52,-0.47,1.05,
4.372,0.75,-0.33,0.01,0.53,-0.49,1.03,
4.373,0.75,-0.33,0.01,0.56,-0.52,1.00,
4.373,1.30,-0.43,0.71,0.56,-0.52,1.00,
4.373,1.30,-0.43,0.71,0.58,-0.55,0.98,
4.374,1.30,-0.43,0.71,0.60,-0.58,0.95,
4.374,1.30,-0.43,0.71,0.63,-0.62,0.90,
4.374,1.30,-0.43,0.71,0.64,-0.63,0.88,
4.375,1.30,-0.43,0.71,0.66,-0.63,0.85,
4.375,1.69,-0.41,1.48,0.66,-0.63,0.85,
4.375,1.69,-0.41,1.48,0.69,-0.64,0.82,
4.376,1.69,-0.41,1.48,0.71,-0.64,0.79,
4.376,1.69,-0.41,1.48,0.75,-0.63,0.74,
4.377,1.69,-0.41,1.48,0.76,-0.62,0.73,
4.377,1.69,-0.41,1.48,0.77,-0.60,0.71,
4.377,1.78,-0.63,1.94,0.77,-0.60,0.71,
4.378,1.78,-0.63,1.94,0.79,-0.58,0.68,
4.379,1.78,-0.63,1.94,0.81,-0.55,0.66,
4.382,1.78,-0.63,1.94,0.83,-0.50,0.63,
4.382,1.78,-0.63,1.94,0.84,-0.48,0.62,
4.392,1.78,-0.63,1.94,0.85,-0.44,0.61,
4.393,1.56,-0.85,2.06,0.85,-0.44,0.61,
4.394,1.56,-0.85,2.06,0.86,-0.39,0.59,
4.394,1.56,-0.85,2.06,0.87,-0.34,0.58,
4.395,1.56,-0.85,2.06,0.89,-0.27,0.56,
4.396,1.56,-0.85,2.06,0.90,-0.24,0.55,
4.396,1.56,-0.85,2.06,0.91,-0.19,0.54,
4.401,1.40,-1.08,2.00,0.91,-0.19,0.54,
4.401,1.40,-1.08,2.00,0.92,-0.13,0.53,
4.402,1.40,-1.08,2.00,0.93,-0.08,0.52,
4.402,1.40,-1.08,2.00,0.95,-0.00,0.51,
4.402,1.40,-1.08,2.00,0.96,0.02,0.50,
4.405,1.40,-1.08,2.00,0.97,0.06,0.49,
4.407,1.34,-1.09,1.56,0.97,0.06,0.49,
4.407,1.34,-1.09,1.56,0.97,0.10,0.48,
4.408,1.34,-1.09,1.56,0.98,0.13,0.46,
4.411,1.34,-1.09,1.56,0.99,0.17,0.44,
4.413,1.34,-1.09,1.56,0.99,0.17,0.43,
4.415,1.34,-1.09,1.56,1.00,0.19,0.41,
4.438,1.60,-1.03,0.84,1.00,0.19,0.41,
4.439,1.60,-1.03,0.84,1.00,0.20,0.39,
4.439,1.60,-1.03,0.84,1.00,0.21,0.37,
4.44,1.60,-1.03,0.84,0.99,0.20,0.34,
4.44,1.60,-1.03,0.84,0.99,0.20,0.32,
4.44,1.60,-1.03,0.84,0.98,0.19,0.30,
4.44,1.82,-0.88,0.03,0.98,0.19,0.30,
4.44,1.82,-0.88,0.03,0.96,0.17,0.27,
4.44,1.82,-0.88,0.03,0.94,0.16,0.25,
4.441,1.82,-0.88,0.03,0.91,0.12,0.21,
4.46,1.82,-0.88,0.03,0.90,0.11,0.20,
4.46,1.82,-0.88,0.03,0.88,0.09,0.18,
4.46,1.81,-0.88,-0.47,0.88,0.09,0.18,
4.461,1.81,-0.88,-0.47,0.86,0.06,0.16,
4.461,1.81,-0.88,-0.47,0.83,0.03,0.14,
4.461,1.81,-0.88,-0.47,0.79,-0.01,0.12,
4.461,1.81,-0.88,-0.47,0.78,-0.03,0.12,
4.462,1.81,-0.88,-0.47,0.75,-0.05,0.11,
4.462,1.35,-0.87,-0.57,0.75,-0.05,0.11,
4.462,1.35,-0.87,-0.57,0.71,-0.08,0.11,
4.462,1.35,-0.87,-0.57,0.67,-0.12,0.10,
4.463,1.35,-0.87,-0.57,0.61,-0.17,0.09,
4.463,1.35,-0.87,-0.57,0.59,-0.19,0.09,
4.463,1.35,-0.87,-0.57,0.54,-0.22,0.09,
4.464,1.22,-0.95,-0.62,0.54,-0.22,0.09,
4.464,1.22,-0.95,-0.62,0.48,-0.26,0.08,
4.464,1.22,-0.95,-0.62,0.43,-0.30,0.08,
4.464,1.22,-0.95,-0.62,0.33,-0.36,0.07,
4.465,1.22,-0.95,-0.62,0.30,-0.37,0.06,
4.465,1.22,-0.95,-0.62,0.24,-0.41,0.06,
4.47,1.32,-0.89,-0.34,0.24,-0.41,0.06,
4.47,1.32,-0.89,-0.34,0.17,-0.45,0.04,
4.47,1.32,-0.89,-0.34,0.11,-0.49,0.03,
4.472,1.32,-0.89,-0.34,0.02,-0.55,0.01,
4.472,1.32,-0.89,-0.34,-0.02,-0.57,-0.00,
4.474,1.32,-0.89,-0.34,-0.08,-0.60,-0.02,
4.476,1.58,-0.68,0.62,-0.08,-0.60,-0.02,
4.477,1.58,-0.68,0.62,-0.14,-0.64,-0.04,
4.478,1.58,-0.68,0.62,-0.21,-0.68,-0.06,
4.481,1.58,-0.68,0.62,-0.30,-0.74,-0.09,
4.482,1.58,-0.68,0.62,-0.33,-0.75,-0.10,
4.484,1.58,-0.68,0.62,-0.40,-0.78,-0.12,
4.489,1.88,-0.64,1.84,-0.40,-0.78,-0.12,
4.49,1.88,-0.64,1.84,-0.46,-0.80,-0.14,
4.49,1.88,-0.64,1.84,-0.52,-0.83,-0.17,
4.491,1.88,-0.64,1.84,-0.61,-0.84,-0.20,
4.492,1.88,-0.64,1.84,-0.64,-0.85,-0.21,
4.495,1.88,-0.64,1.84,-0.71,-0.86,-0.24,
4.497,2.29,-0.92,3.13,-0.71,-0.86,-0.24,
4.497,2.29,-0.92,3.13,-0.76,-0.86,-0.26,
4.501,2.29,-0.92,3.13,-0.82,-0.85,-0.28,
4.502,2.29,-0.92,3.13,-0.90,-0.84,-0.31,
4.506,2.29,-0.92,3.13,-0.92,-0.83,-0.32,
4.507,2.29,-0.92,3.13,-0.97,-0.81,-0.34,
4.507,2.36,-1.22,4.68,-0.97,-0.81,-0.34,
4.507,2.36,-1.22,4.68,-1.01,-0.79,-0.35,
4.508,2.36,-1.22,4.68,-1.04,-0.76,-0.36,
4.511,2.36,-1.22,4.68,-1.09,-0.71,-0.38,
4.513,2.36,-1.22,4.68,-1.10,-0.69,-0.38,
4.514,2.36,-1.22,4.68,-1.13,-0.65,-0.39,
4.517,2.11,-1.57,6.15,-1.13,-0.65,-0.39,
4.518,2.11,-1.57,6.15,-1.15,-0.61,-0.39,
4.52,2.11,-1.57,6.15,-1.17,-0.56,-0.40,
4.522,2.11,-1.57,6.15,-1.19,-0.49,-0.39,
4.523,2.11,-1.57,6.15,-1.20,-0.47,-0.39,
4.525,2.11,-1.57,6.15,-1.21,-0.41,-0.39,
4.527,1.70,-1.80,7.13,-1.21,-0.41,-0.39,
4.527,1.70,-1.80,7.13,-1.22,-0.36,-0.38,
4.528,1.70,-1.80,7.13,-1.22,-0.31,-0.37,
4.532,1.70,-1.80,7.13,-1.22,-0.23,-0.35,
4.533,1.70,-1.80,7.13,-1.22,-0.20,-0.34,
4.535,1.70,-1.80,7.13,-1.22,-0.15,-0.33,
4.538,1.18,-1.96,7.69,-1.22,-0.15,-0.33,
4.538,1.18,-1.96,7.69,-1.21,-0.11,-0.31,
4.538,1.18,-1.96,7.69,-1.20,-0.06,-0.29,
4.541,1.18,-1.96,7.69,-1.18,-0.01,-0.26,
4.542,1.18,-1.96,7.69,-1.17,0.00,-0.25,
4.545,1.18,-1.96,7.69,-1.15,0.03,-0.23,
4.547,0.75,-1.89,7.81,-1.15,0.03,-0.23,
4.547,0.75,-1.89,7.81,-1.12,0.05,-0.21,
4.549,0.75,-1.89,7.81,-1.10,0.07,-0.19,
4.555,0.75,-1.89,7.81,-1.05,0.08,-0.16,
4.557,0.75,-1.89,7.81,-1.04,0.09,-0.15,
4.559,0.75,-1.89,7.81,-1.02,0.09,-0.13,
4.584,0.35,-1.83,7.39,-1.02,0.09,-0.13,
4.584,0.35,-1.83,7.39,-0.98,0.09,-0.11,
4.585,0.35,-1.83,7.39,-0.95,0.08,-0.08,
4.585,0.35,-1.83,7.39,-0.90,0.06,-0.05,
4.585,0.35,-1.83,7.39,-0.88,0.06,-0.04,
4.585,0.35,-1.83,7.39,-0.85,0.04,-0.01,
4.585,-0.03,-1.63,6.42,-0.85,0.04,-0.01,
4.585,-0.03,-1.63,6.42,-0.82,0.01,0.01,
4.586,-0.03,-1.63,6.42,-0.79,-0.02,0.03,
4.586,-0.03,-1.63,6.42,-0.75,-0.07,0.07,
4.586,-0.03,-1.63,6.42,-0.74,-0.09,0.09,
4.586,-0.03,-1.63,6.42,-0.72,-0.13,0.11,
4.586,-0.28,-1.48,5.06,-0.72,-0.13,0.11,
4.587,-0.28,-1.48,5.06,-0.70,-0.18,0.13,
4.589,-0.28,-1.48,5.06,-0.68,-0.22,0.15,
4.589,-0.28,-1.48,5.06,-0.65,-0.30,0.17,
4.59,-0.28,-1.48,5.06,-0.64,-0.33,0.18,
4.593,-0.28,-1.48,5.06,-0.62,-0.39,0.19,
4.594,-0.05,-1.19,3.55,-0.62,-0.39,0.19,
4.595,-0.05,-1.19,3.55,-0.60,-0.46,0.20,
4.596,-0.05,-1.19,3.55,-0.59,-0.53,0.21,
4.596,-0.05,-1.19,3.55,-0.57,-0.64,0.21,
4.597,-0.05,-1.19,3.55,-0.56,-0.67,0.21,
4.597,-0.05,-1.19,3.55,-0.54,-0.75,0.20,
4.599,0.63,-0.80,2.45,-0.54,-0.75,0.20,
4.599,0.63,-0.80,2.45,-0.52,-0.82,0.19,
4.62,0.63,-0.80,2.45,-0.49,-0.89,0.18,
4.621,0.63,-0.80,2.45,-0.45,-0.99,0.15,
4.621,0.63,-0.80,2.45,-0.44,-1.03,0.14,
4.621,0.63,-0.80,2.45,-0.41,-1.10,0.12,
4.622,0.63,-0.80,2.45,-0.38,-1.16,0.09,
4.622,1.27,-0.39,1.88,-0.38,-1.16,0.09,
4.623,1.27,-0.39,1.88,-0.35,-1.23,0.06,
4.623,1.27,-0.39,1.88,-0.30,-1.33,0.03,
4.623,1.27,-0.39,1.88,-0.29,-1.36,0.02,
4.624,1.27,-0.39,1.88,-0.27,-1.41,-0.01,
4.624,1.22,-0.22,1.21,-0.27,-1.41,-0.01,
4.625,1.22,-0.22,1.21,-0.24,-1.47,-0.02,
4.625,1.22,-0.22,1.21,-0.23,-1.51,-0.04,
4.626,1.22,-0.22,1.21,-0.21,-1.55,-0.05,
4.626,1.22,-0.22,1.21,-0.21,-1.56,-0.06,
4.626,1.22,-0.22,1.21,-0.20,-1.57,-0.07,
4.627,0.59,-0.14,0.30,-0.20,-1.57,-0.07,
4.627,0.59,-0.14,0.30,-0.20,-1.57,-0.07,
4.629,0.59,-0.14,0.30,-0.21,-1.56,-0.07,
4.633,0.59,-0.14,0.30,-0.22,-1.54,-0.07,
4.633,0.59,-0.14,0.30,-0.22,-1.52,-0.07,
4.643,0.59,-0.14,0.30,-0.24,-1.48,-0.07,
4.643,0.15,-0.18,-0.71,-0.24,-1.48,-0.07,
4.644,0.15,-0.18,-0.71,-0.25,-1.44,-0.07,
4.644,0.15,-0.18,-0.71,-0.28,-1.39,-0.07,
4.644,0.15,-0.18,-0.71,-0.31,-1.30,-0.07,
4.644,0.15,-0.18,-0.71,-0.32,-1.26,-0.07,
4.647,0.15,-0.18,-0.71,-0.34,-1.20,-0.07,
4.647,-0.16,-0.08,-1.46,-0.34,-1.20,-0.07,
4.647,-0.16,-0.08,-1.46,-0.36,-1.12,-0.06,
4.655,-0.16,-0.08,-1.46,-0.39,-1.04,-0.06,
4.656,-0.16,-0.08,-1.46,-0.43,-0.93,-0.06,
4.656,-0.16,-0.08,-1.46,-0.44,-0.89,-0.06,
4.656,-0.16,-0.08,-1.46,-0.47,-0.80,-0.05,
4.66,-0.16,-0.08,-1.46,-0.51,-0.64,-0.05,
4.661,-0.16,-0.08,-1.46,-0.51,-0.64,-0.05,
4.661,-0.42,0.09,-2.29,-0.51,-0.64,-0.05,
4.662,-0.42,0.09,-2.29,-0.55,-0.52,-0.05,
4.663,-0.42,0.09,-2.29,-0.57,-0.45,-0.05,
4.664,-0.42,0.09,-2.29,-0.58,-0.41,-0.05,
4.667,-0.52,0.16,-2.55,-0.58,-0.41,-0.05,
4.667,-0.52,0.16,-2.55,-0.61,-0.34,-0.05,
4.669,-0.52,0.16,-2.55,-0.63,-0.27,-0.06,
4.672,-0.52,0.16,-2.55,-0.65,-0.18,-0.05,
4.672,-0.52,0.16,-2.55,-0.65,-0.16,-0.06,
4.674,-0.52,0.16,-2.55,-0.66,-0.10,-0.05,
4.677,-0.67,0.36,-2.88,-0.66,-0.10,-0.05,
4.677,-0.67,0.36,-2.88,-0.68,-0.05,-0.06,
4.679,-0.67,0.36,-2.88,-0.69,-0.01,-0.06,
4.695,-0.67,0.36,-2.88,-0.69,0.05,-0.07,
4.696,-0.67,0.36,-2.88,-0.70,0.06,-0.07,
4.696,-0.67,0.36,-2.88,-0.70,0.09,-0.07,
4.696,-0.83,0.48,-3.06,-0.70,0.09,-0.07,
4.697,-0.83,0.48,-3.06,-0.70,0.12,-0.07,
4.697,-0.83,0.48,-3.06,-0.69,0.14,-0.08,
4.697,-0.83,0.48,-3.06,-0.68,0.17,-0.08,
4.697,-0.83,0.48,-3.06,-0.68,0.17,-0.09,
4.697,-0.83,0.48,-3.06,-0.66,0.17,-0.09,
4.698,-1.05,0.65,-3.11,-0.66,0.17,-0.09,
4.698,-1.05,0.65,-3.11,-0.65,0.18,-0.09,
4.698,-1.05,0.65,-3.11,-0.64,0.17,-0.09,
4.733,-1.05,0.65,-3.11,-0.61,0.16,-0.10,
4.734,-1.05,0.65,-3.11,-0.59,0.15,-0.10,
4.734,-1.05,0.65,-3.11,-0.57,0.14,-0.10,
4.734,-1.30,0.72,-3.03,-0.57,0.14,-0.10,
4.734,-1.30,0.72,-3.03,-0.54,0.13,-0.10,
4.735,-1.30,0.72,-3.03,-0.51,0.11,-0.10,
4.735,-1.30,0.72,-3.03,-0.48,0.07,-0.10,
4.735,-1.30,0.72,-3.03,-0.46,0.06,-0.10,
4.735,-1.30,0.72,-3.03,-0.44,0.03,-0.10,
4.735,-1.61,0.81,-3.08,-0.44,0.03,-0.10,
4.735,-1.61,0.81,-3.08,-0.41,-0.01,-0.09,
4.736,-1.61,0.81,-3.08,-0.38,-0.04,-0.09,
4.736,-1.61,0.81,-3.08,-0.34,-0.09,-0.08,
4.736,-1.61,0.81,-3.08,-0.33,-0.11,-0.08,
4.736,-1.61,0.81,-3.08,-0.30,-0.15,-0.07,
4.736,-1.90,0.71,-3.13,-0.30,-0.15,-0.07,
4.737,-1.90,0.71,-3.13,-0.27,-0.18,-0.06,
4.737,-1.90,0.71,-3.13,-0.24,-0.21,-0.05,
4.737,-1.90,0.71,-3.13,-0.21,-0.25,-0.03,
4.737,-1.90,0.71,-3.13,-0.19,-0.26,-0.02,
4.737,-1.90,0.71,-3.13,-0.16,-0.28,-0.01,
4.737,-2.30,0.64,-2.96,-0.16,-0.28,-0.01,
4.738,-2.30,0.64,-2.96,-0.13,-0.29,0.01,
4.738,-2.30,0.64,-2.96,-0.10,-0.31,0.02,
4.741,-2.30,0.64,-2.96,-0.05,-0.32,0.04,
4.742,-2.30,0.64,-2.96,-0.03,-0.32,0.05,
4.745,-2.30,0.64,-2.96,0.01,-0.33,0.07,
4.747,-2.48,0.52,-2.61,0.01,-0.33,0.07,
4.748,-2.48,0.52,-2.61,0.05,-0.33,0.08,
4.752,-2.48,0.52,-2.61,0.09,-0.33,0.10,
4.753,-2.48,0.52,-2.61,0.17,-0.33,0.13,
4.753,-2.48,0.52,-2.61,0.19,-0.33,0.13,
4.755,-2.48,0.52,-2.61,0.23,-0.32,0.15,
4.757,-2.62,0.45,-2.21,0.23,-0.32,0.15,
4.757,-2.62,0.45,-2.21,0.28,-0.32,0.17,
4.758,-2.62,0.45,-2.21,0.33,-0.31,0.18,
4.762,-2.62,0.45,-2.21,0.40,-0.30,0.21,
4.763,-2.62,0.45,-2.21,0.43,-0.30,0.21,
4.768,-2.62,0.45,-2.21,0.48,-0.29,0.23,
4.797,-2.47,0.37,-2.20,0.48,-0.29,0.23,
4.797,-2.47,0.37,-2.20,0.53,-0.29,0.24,
4.797,-2.47,0.37,-2.20,0.57,-0.29,0.25,
4.798,-2.47,0.37,-2.20,0.63,-0.29,0.27,
4.798,-2.47,0.37,-2.20,0.65,-0.29,0.27,
4.798,-2.47,0.37,-2.20,0.69,-0.30,0.28,
4.798,-2.32,0.36,-2.61,0.69,-0.30,0.28,
4.799,-2.32,0.36,-2.61,0.72,-0.30,0.28,
4.799,-2.32,0.36,-2.61,0.76,-0.32,0.29,
4.799,-2.32,0.36,-2.61,0.80,-0.34,0.29,
4.8,-2.32,0.36,-2.61,0.81,-0.35,0.29,
4.8,-2.32,0.36,-2.61,0.83,-0.36,0.29,
4.8,-1.96,0.34,-3.16,0.83,-0.36,0.29,
4.8,-1.96,0.34,-3.16,0.86,-0.39,0.29,
4.801,-1.96,0.34,-3.16,0.87,-0.41,0.29,
4.801,-1.96,0.34,-3.16,0.90,-0.45,0.28,
4.801,-1.96,0.34,-3.16,0.90,-0.47,0.28,
4.801,-1.96,0.34,-3.16,0.91,-0.50,0.28,
4.802,-1.87,0.35,-3.57,0.91,-0.50,0.28,
4.802,-1.87,0.35,-3.57,0.92,-0.53,0.27,
4.802,-1.87,0.35,-3.57,0.92,-0.57,0.27,
4.802,-1.87,0.35,-3.57,0.93,-0.62,0.26,
4.803,-1.87,0.35,-3.57,0.93,-0.64,0.26,
4.809,-1.87,0.35,-3.57,0.93,-0.67,0.25,
4.809,-1.81,0.35,-3.68,0.93,-0.67,0.25,
4.81,-1.81,0.35,-3.68,0.93,-0.71,0.24,
4.81,-1.81,0.35,-3.68,0.93,-0.74,0.23,
4.811,-1.81,0.35,-3.68,0.93,-0.79,0.21,
4.812,-1.81,0.35,-3.68,0.93,-0.81,0.21,
4.822,-1.81,0.35,-3.68,0.93,-0.84,0.20,
4.823,-1.85,0.27,-3.36,0.93,-0.84,0.20,
4.823,-1.85,0.27,-3.36,0.93,-0.87,0.19,
4.823,-1.85,0.27,-3.36,0.93,-0.89,0.18,
4.824,-1.85,0.27,-3.36,0.94,-0.92,0.17,
4.824,-1.85,0.27,-3.36,0.94,-0.93,0.16,
4.825,-1.85,0.27,-3.36,0.95,-0.94,0.16,
4.827,-1.93,0.08,-2.67,0.95,-0.94,0.16,
4.827,-1.93,0.08,-2.67,0.96,-0.95,0.15,
4.828,-1.93,0.08,-2.67,0.97,-0.96,0.15,
4.848,-1.93,0.08,-2.67,0.99,-0.95,0.14,
4.849,-1.93,0.08,-2.67,1.00,-0.95,0.14,
4.849,-1.93,0.08,-2.67,1.02,-0.94,0.13,
4.849,-2.10,-0.09,-2.03,1.02,-0.94,0.13,
4.85,-2.10,-0.09,-2.03,1.03,-0.92,0.14,
4.85,-2.10,-0.09,-2.03,1.04,-0.90,0.13,
4.85,-2.10,-0.09,-2.03,1.05,-0.87,0.13,
4.85,-2.10,-0.09,-2.03,1.06,-0.85,0.13,
4.85,-2.10,-0.09,-2.03,1.06,-0.83,0.13,
4.851,-2.08,-0.22,-1.90,1.06,-0.83,0.13,
4.851,-2.08,-0.22,-1.90,1.06,-0.80,0.13,
4.851,-2.08,-0.22,-1.90,1.06,-0.77,0.13,
4.851,-2.08,-0.22,-1.90,1.04,-0.73,0.12,
4.854,-2.08,-0.22,-1.90,1.04,-0.71,0.12,
4.854,-2.08,-0.22,-1.90,1.02,-0.68,0.11,
4.857,-1.89,-0.17,-2.39,1.02,-0.68,0.11,
4.857,-1.89,-0.17,-2.39,1.00,-0.65,0.10,
4.858,-1.89,-0.17,-2.39,0.97,-0.62,0.08,
4.861,-1.89,-0.17,-2.39,0.92,-0.58,0.06,
4.862,-1.89,-0.17,-2.39,0.90,-0.56,0.05,
4.865,-1.89,-0.17,-2.39,0.85,-0.54,0.03,
4.867,-1.46,-0.08,-3.22,0.85,-0.54,0.03,
4.867,-1.46,-0.08,-3.22,0.80,-0.52,0.01,
4.869,-1.46,-0.08,-3.22,0.75,-0.50,-0.01,
4.871,-1.46,-0.08,-3.22,0.66,-0.49,-0.04,
4.872,-1.46,-0.08,-3.22,0.62,-0.48,-0.05,
4.875,-1.46,-0.08,-3.22,0.55,-0.48,-0.08,
4.877,-0.90,0.01,-3.93,0.55,-0.48,-0.08,
4.877,-0.90,0.01,-3.93,0.49,-0.48,-0.11,
4.878,-0.90,0.01,-3.93,0.42,-0.49,-0.13,
4.882,-0.90,0.01,-3.93,0.32,-0.51,-0.18,
4.883,-0.90,0.01,-3.93,0.28,-0.52,-0.19,
4.884,-0.90,0.01,-3.93,0.21,-0.55,-0.22,
4.888,-0.25,-0.11,-3.81,0.21,-0.55,-0.22,
4.889,-0.25,-0.11,-3.81,0.15,-0.57,-0.25,
4.889,-0.25,-0.11,-3.81,0.08,-0.60,-0.29,
4.891,-0.25,-0.11,-3.81,-0.01,-0.66,-0.35,
4.893,-0.25,-0.11,-3.81,-0.04,-0.68,-0.37,
4.894,-0.25,-0.11,-3.81,-0.10,-0.72,-0.41,
4.897,0.66,-0.12,-2.88,-0.10,-0.72,-0.41,
4.897,0.66,-0.12,-2.88,-0.15,-0.75,-0.45,
4.898,0.66,-0.12,-2.88,-0.20,-0.79,-0.50,
4.902,0.66,-0.12,-2.88,-0.28,-0.86,-0.57,
4.903,0.66,-0.12,-2.88,-0.30,-0.88,-0.60,
4.904,0.66,-0.12,-2.88,-0.34,-0.93,-0.66,
4.907,1.69,-0.23,-1.53,-0.34,-0.93,-0.66,
4.907,1.69,-0.23,-1.53,-0.39,-0.98,-0.72,
4.908,1.69,-0.23,-1.53,-0.43,-1.03,-0.79,
4.912,1.69,-0.23,-1.53,-0.48,-1.09,-0.89,
4.913,1.69,-0.23,-1.53,-0.49,-1.11,-0.93,
4.915,1.69,-0.23,-1.53,-0.51,-1.15,-1.01,
4.918,2.89,-0.59,0.21,-0.51,-1.15,-1.01,
4.919,2.89,-0.59,0.21,-0.53,-1.18,-1.08,
4.919,2.89,-0.59,0.21,-0.55,-1.20,-1.16,
4.925,2.89,-0.59,0.21,-0.57,-1.21,-1.28,
4.926,2.89,-0.59,0.21,-0.57,-1.20,-1.31,
4.926,2.89,-0.59,0.21,-0.57,-1.19,-1.38,
4.929,3.12,-1.00,2.29,-0.57,-1.19,-1.38,
4.929,3.12,-1.00,2.29,-0.58,-1.17,-1.44,
4.929,3.12,-1.00,2.29,-0.57,-1.14,-1.50,
4.932,3.12,-1.00,2.29,-0.57,-1.07,-1.57,
