
time,ax,ay,az,wx,wy,wz,
0.002,0.56,0.52,-0.06,-0.07,0.59,1.36,
0.003,0.60,0.66,-0.09,-0.07,0.59,1.36,
0.003,0.60,0.66,-0.09,-0.08,0.60,1.36,
0.003,0.60,0.66,-0.09,-0.10,0.62,1.37,
0.004,0.60,0.66,-0.09,-0.13,0.65,1.41,
0.019,0.60,0.66,-0.09,-0.14,0.65,1.42,
0.02,0.60,0.66,-0.09,-0.17,0.67,1.43,
0.02,-0.27,0.52,-0.57,-0.17,0.67,1.43,
0.02,-0.27,0.52,-0.57,-0.20,0.69,1.45,
0.02,-0.27,0.52,-0.57,-0.23,0.71,1.46,
0.02,-0.27,0.52,-0.57,-0.26,0.74,1.47,
0.021,-0.27,0.52,-0.57,-0.28,0.75,1.48,
0.021,-0.27,0.52,-0.57,-0.30,0.78,1.48,
0.021,-0.09,0.31,-0.45,-0.30,0.78,1.48,
0.021,-0.09,0.31,-0.45,-0.32,0.80,1.49,
0.021,-0.09,0.31,-0.45,-0.33,0.83,1.50,
0.031,-0.09,0.31,-0.45,-0.33,0.86,1.50,
0.031,-0.09,0.31,-0.45,-0.33,0.86,1.49,
0.031,-0.09,0.31,-0.45,-0.32,0.87,1.48,
0.031,0.32,0.38,0.66,-0.32,0.87,1.48,
0.032,0.32,0.38,0.66,-0.29,0.88,1.46,
0.032,0.32,0.38,0.66,-0.26,0.88,1.43,
0.034,0.32,0.38,0.66,-0.20,0.87,1.38,
0.035,0.32,0.38,0.66,-0.18,0.86,1.36,
0.036,0.32,0.38,0.66,-0.15,0.85,1.33,
0.041,1.19,0.37,1.79,-0.15,0.85,1.33,
0.041,1.19,0.37,1.79,-0.12,0.83,1.30,
0.042,1.19,0.37,1.79,-0.08,0.82,1.27,
0.044,1.19,0.37,1.79,-0.04,0.80,1.23,
0.045,1.19,0.37,1.79,-0.03,0.79,1.22,
0.046,1.19,0.37,1.79,0.00,0.78,1.21,
0.049,1.04,0.43,1.59,0.00,0.78,1.21,
0.049,1.04,0.43,1.59,0.03,0.77,1.20,
0.05,1.04,0.43,1.59,0.05,0.76,1.19,
0.054,1.04,0.43,1.59,0.09,0.76,1.19,
0.056,1.04,0.43,1.59,0.10,0.76,1.20,
0.058,1.04,0.43,1.59,0.12,0.76,1.20,
0.059,0.34,0.26,1.27,0.12,0.76,1.20,
0.059,0.34,0.26,1.27,0.14,0.77,1.22,
0.061,0.34,0.26,1.27,0.16,0.78,1.23,
0.064,0.34,0.26,1.27,0.18,0.80,1.26,
0.065,0.34,0.26,1.27,0.19,0.81,1.27,
0.067,0.34,0.26,1.27,0.19,0.82,1.29,
0.07,-0.25,-0.06,0.88,0.19,0.82,1.29,
0.07,-0.25,-0.06,0.88,0.20,0.84,1.31,
0.07,-0.25,-0.06,0.88,0.21,0.86,1.33,
0.074,-0.25,-0.06,0.88,0.21,0.89,1.37,
0.074,-0.25,-0.06,0.88,0.21,0.90,1.38,
0.077,-0.25,-0.06,0.88,0.21,0.93,1.41,
0.079,-0.62,-0.26,0.52,0.21,0.93,1.41,
0.079,-0.62,-0.26,0.52,0.21,0.95,1.44,
0.081,-0.62,-0.26,0.52,0.21,0.97,1.46,
0.085,-0.62,-0.26,0.52,0.20,0.99,1.51,
0.085,-0.62,-0.26,0.52,0.20,1.00,1.52,
0.087,-0.62,-0.26,0.52,0.20,1.02,1.54,
0.09,-0.69,-0.33,0.26,0.20,1.02,1.54,
0.09,-0.69,-0.33,0.26,0.19,1.03,1.56,
0.091,-0.69,-0.33,0.26,0.19,1.04,1.58,
0.094,-0.69,-0.33,0.26,0.18,1.05,1.61,
0.095,-0.69,-0.33,0.26,0.18,1.06,1.62,
0.097,-0.69,-0.33,0.26,0.18,1.06,1.63,
0.107,-0.43,-0.27,0.18,0.18,1.06,1.63,
0.109,-0.43,-0.27,0.18,0.17,1.06,1.65,
0.109,-0.43,-0.27,0.18,0.17,1.05,1.66,
0.11,-0.43,-0.27,0.18,0.17,1.04,1.68,
0.11,-0.43,-0.27,0.18,0.17,1.03,1.68,
0.11,-0.43,-0.27,0.18,0.17,1.01,1.68,
0.128,-0.14,-0.31,0.23,0.17,1.01,1.68,
0.128,-0.14,-0.31,0.23,0.17,0.99,1.68,
0.128,-0.14,-0.31,0.23,0.17,0.97,1.68,
0.128,-0.14,-0.31,0.23,0.18,0.93,1.67,
0.129,-0.14,-0.31,0.23,0.18,0.90,1.67,
0.129,-0.14,-0.31,0.23,0.18,0.88,1.66,
0.129,0.34,-0.29,0.45,0.18,0.88,1.66,
0.13,0.34,-0.29,0.45,0.19,0.85,1.66,
0.13,0.34,-0.29,0.45,0.20,0.82,1.65,
0.13,0.34,-0.29,0.45,0.21,0.78,1.63,
0.13,0.34,-0.29,0.45,0.22,0.76,1.63,
0.131,0.34,-0.29,0.45,0.24,0.73,1.62,
0.131,0.66,-0.33,0.76,0.24,0.73,1.62,
0.131,0.66,-0.33,0.76,0.25,0.70,1.62,
0.131,0.66,-0.33,0.76,0.26,0.67,1.61,
0.135,0.66,-0.33,0.76,0.29,0.63,1.60,
0.135,0.66,-0.33,0.76,0.30,0.62,1.60,
0.136,0.66,-0.33,0.76,0.32,0.60,1.60,
0.156,0.68,-0.43,1.04,0.32,0.60,1.60,
0.157,0.68,-0.43,1.04,0.33,0.57,1.60,
0.157,0.68,-0.43,1.04,0.35,0.56,1.60,
0.157,0.68,-0.43,1.04,0.38,0.53,1.60,
0.157,0.68,-0.43,1.04,0.38,0.53,1.60,
0.157,0.68,-0.43,1.04,0.40,0.51,1.61,
0.158,0.65,-0.55,1.16,0.40,0.51,1.61,
0.158,0.65,-0.55,1.16,0.41,0.50,1.61,
0.158,0.65,-0.55,1.16,0.43,0.49,1.62,
0.158,0.65,-0.55,1.16,0.45,0.47,1.63,
0.159,0.65,-0.55,1.16,0.45,0.46,1.64,
0.159,0.65,-0.55,1.16,0.45,0.46,1.64,
0.161,0.59,-0.70,1.08,0.45,0.46,1.64,
0.162,0.59,-0.70,1.08,0.46,0.45,1.65,
0.162,0.59,-0.70,1.08,0.46,0.44,1.66,
0.164,0.59,-0.70,1.08,0.46,0.44,1.68,
0.165,0.59,-0.70,1.08,0.46,0.44,1.68,
0.166,0.59,-0.70,1.08,0.46,0.44,1.69,
0.17,0.53,-0.88,0.99,0.46,0.44,1.69,
0.17,0.53,-0.88,0.99,0.46,0.44,1.70,
0.182,0.53,-0.88,0.99,0.46,0.44,1.72,
0.182,0.53,-0.88,0.99,0.46,0.45,1.74,
0.182,0.53,-0.88,0.99,0.46,0.46,1.75,
0.183,0.53,-0.88,0.99,0.46,0.46,1.76,
0.183,0.53,-0.95,0.98,0.46,0.46,1.76,
0.183,0.53,-0.95,0.98,0.46,0.47,1.78,
0.183,0.53,-0.95,0.98,0.46,0.47,1.78,
0.183,0.53,-0.95,0.98,0.46,0.49,1.80,
0.185,0.53,-0.95,0.98,0.46,0.49,1.81,
0.187,0.53,-0.95,0.98,0.46,0.50,1.81,
0.189,0.62,-1.01,0.99,0.46,0.50,1.81,
0.19,0.62,-1.01,0.99,0.46,0.51,1.82,
0.191,0.62,-1.01,0.99,0.46,0.52,1.83,
0.194,0.62,-1.01,0.99,0.45,0.53,1.84,
0.195,0.62,-1.01,0.99,0.45,0.54,1.84,
0.196,0.62,-1.01,0.99,0.45,0.55,1.85,
0.199,0.75,-0.95,0.91,0.45,0.55,1.85,
0.199,0.75,-0.95,0.91,0.44,0.55,1.85,
0.2,0.75,-0.95,0.91,0.44,0.56,1.85,
0.203,0.75,-0.95,0.91,0.43,0.56,1.85,
0.204,0.75,-0.95,0.91,0.43,0.56,1.85,
0.207,0.75,-0.95,0.91,0.43,0.56,1.84,
0.209,1.02,-0.91,0.78,0.43,0.56,1.84,
0.209,1.02,-0.91,0.78,0.43,0.56,1.84,
0.21,1.02,-0.91,0.78,0.43,0.56,1.83,
0.213,1.02,-0.91,0.78,0.42,0.55,1.82,
0.215,1.02,-0.91,0.78,0.42,0.54,1.81,
0.216,1.02,-0.91,0.78,0.42,0.53,1.81,
0.219,1.13,-0.85,0.68,0.42,0.53,1.81,
0.219,1.13,-0.85,0.68,0.41,0.52,1.80,
0.221,1.13,-0.85,0.68,0.41,0.52,1.79,
0.224,1.13,-0.85,0.68,0.40,0.50,1.78,
0.225,1.13,-0.85,0.68,0.40,0.49,1.77,
0.226,1.13,-0.85,0.68,0.40,0.49,1.76,
0.229,1.25,-0.88,0.61,0.40,0.49,1.76,
0.229,1.25,-0.88,0.61,0.40,0.49,1.75,
0.23,1.25,-0.88,0.61,0.40,0.48,1.74,
0.233,1.25,-0.88,0.61,0.40,0.48,1.74,
0.235,1.25,-0.88,0.61,0.39,0.47,1.73,
0.237,1.25,-0.88,0.61,0.40,0.48,1.73,
0.239,1.10,-0.90,0.64,0.40,0.48,1.73,
0.239,1.10,-0.90,0.64,0.40,0.48,1.72,
0.241,1.10,-0.90,0.64,0.40,0.48,1.71,
0.243,1.10,-0.90,0.64,0.41,0.49,1.71,
0.245,1.10,-0.90,0.64,0.41,0.49,1.71,
0.246,1.10,-0.90,0.64,0.42,0.50,1.71,
0.249,0.89,-0.95,0.61,0.42,0.50,1.71,
0.249,0.89,-0.95,0.61,0.42,0.51,1.70,
0.25,0.89,-0.95,0.61,0.43,0.52,1.70,
0.254,0.89,-0.95,0.61,0.43,0.54,1.70,
0.255,0.89,-0.95,0.61,0.44,0.55,1.71,
0.256,0.89,-0.95,0.61,0.44,0.56,1.71,
0.259,0.58,-1.01,0.36,0.44,0.56,1.71,
0.26,0.58,-1.01,0.36,0.45,0.57,1.71,
0.26,0.58,-1.01,0.36,0.45,0.59,1.72,
0.264,0.58,-1.01,0.36,0.45,0.60,1.74,
0.286,0.58,-1.01,0.36,0.46,0.61,1.74,
0.286,0.58,-1.01,0.36,0.46,0.62,1.75,
0.287,0.15,-1.13,-0.08,0.46,0.62,1.75,
0.287,0.15,-1.13,-0.08,0.46,0.63,1.76,
0.288,0.15,-1.13,-0.08,0.47,0.63,1.77,
0.288,0.15,-1.13,-0.08,0.47,0.64,1.79,
0.288,0.15,-1.13,-0.08,0.47,0.64,1.80,
0.289,0.15,-1.13,-0.08,0.48,0.63,1.81,
0.289,-0.19,-1.12,-0.56,0.48,0.63,1.81,
0.29,-0.19,-1.12,-0.56,0.48,0.63,1.82,
0.29,-0.19,-1.12,-0.56,0.48,0.62,1.83,
0.29,-0.19,-1.12,-0.56,0.49,0.61,1.84,
0.291,-0.19,-1.12,-0.56,0.49,0.59,1.85,
0.291,-0.19,-1.12,-0.56,0.49,0.58,1.85,
0.292,-0.32,-1.00,-0.95,0.49,0.58,1.85,
0.292,-0.32,-1.00,-0.95,0.50,0.57,1.86,
0.292,-0.32,-1.00,-0.95,0.50,0.55,1.86,
0.301,-0.32,-1.00,-0.95,0.50,0.51,1.86,
0.301,-0.32,-1.00,-0.95,0.50,0.50,1.86,
0.302,-0.32,-1.00,-0.95,0.49,0.48,1.86,
0.302,-0.33,-0.84,-1.35,0.49,0.48,1.86,
0.302,-0.33,-0.84,-1.35,0.49,0.45,1.86,
0.302,-0.33,-0.84,-1.35,0.49,0.43,1.86,
0.304,-0.33,-0.84,-1.35,0.48,0.39,1.86,
0.305,-0.33,-0.84,-1.35,0.48,0.37,1.86,
0.317,-0.33,-0.84,-1.35,0.48,0.35,1.86,
0.318,-0.39,-0.71,-1.55,0.48,0.35,1.86,
0.318,-0.39,-0.71,-1.55,0.48,0.33,1.85,
0.318,-0.39,-0.71,-1.55,0.48,0.30,1.85,
0.318,-0.39,-0.71,-1.55,0.47,0.26,1.84,
0.319,-0.39,-0.71,-1.55,0.47,0.23,1.83,
0.319,-0.39,-0.71,-1.55,0.47,0.22,1.83,
0.319,-0.37,-0.53,-1.67,0.47,0.22,1.83,
0.319,-0.37,-0.53,-1.67,0.46,0.19,1.82,
0.323,-0.37,-0.53,-1.67,0.46,0.17,1.81,
0.324,-0.37,-0.53,-1.67,0.45,0.12,1.80,
0.326,-0.37,-0.53,-1.67,0.43,0.10,1.79,
0.326,-0.37,-0.53,-1.67,0.43,0.09,1.79,
0.329,-0.44,-0.46,-1.75,0.43,0.09,1.79,
0.329,-0.44,-0.46,-1.75,0.42,0.06,1.78,
0.331,-0.44,-0.46,-1.75,0.41,0.04,1.77,
0.334,-0.44,-0.46,-1.75,0.39,0.01,1.77,
0.336,-0.44,-0.46,-1.75,0.38,-0.00,1.76,
0.337,-0.44,-0.46,-1.75,0.37,-0.01,1.76,
0.346,-0.57,-0.49,-1.69,0.37,-0.01,1.76,
0.347,-0.57,-0.49,-1.69,0.36,-0.03,1.76,
0.347,-0.57,-0.49,-1.69,0.35,-0.04,1.75,
0.347,-0.57,-0.49,-1.69,0.33,-0.05,1.75,
0.347,-0.57,-0.49,-1.69,0.31,-0.06,1.75,
0.348,-0.57,-0.49,-1.69,0.31,-0.06,1.75,
0.349,-0.74,-0.50,-1.42,0.31,-0.06,1.75,
0.349,-0.74,-0.50,-1.42,0.30,-0.07,1.75,
0.351,-0.74,-0.50,-1.42,0.29,-0.07,1.75,
0.354,-0.74,-0.50,-1.42,0.28,-0.07,1.76,
0.355,-0.74,-0.50,-1.42,0.27,-0.07,1.76,
0.357,-0.74,-0.50,-1.42,0.26,-0.06,1.76,
0.359,-0.88,-0.48,-1.10,0.26,-0.06,1.76,
0.359,-0.88,-0.48,-1.10,0.25,-0.06,1.77,
0.36,-0.88,-0.48,-1.10,0.24,-0.05,1.77,
0.364,-0.88,-0.48,-1.10,0.23,-0.03,1.77,
0.365,-0.88,-0.48,-1.10,0.22,-0.02,1.77,
0.367,-0.88,-0.48,-1.10,0.21,-0.01,1.77,
0.369,-0.97,-0.42,-0.86,0.21,-0.01,1.77,
0.369,-0.97,-0.42,-0.86,0.20,0.00,1.77,
0.371,-0.97,-0.42,-0.86,0.19,0.02,1.77,
0.374,-0.97,-0.42,-0.86,0.17,0.04,1.77,
0.376,-0.97,-0.42,-0.86,0.16,0.05,1.77,
0.377,-0.97,-0.42,-0.86,0.15,0.05,1.77,
0.379,-0.96,-0.32,-0.64,0.15,0.05,1.77,
0.379,-0.96,-0.32,-0.64,0.14,0.07,1.77,
0.381,-0.96,-0.32,-0.64,0.13,0.08,1.76,
0.384,-0.96,-0.32,-0.64,0.11,0.10,1.76,
0.385,-0.96,-0.32,-0.64,0.10,0.12,1.75,
0.392,-0.96,-0.32,-0.64,0.09,0.12,1.75,
0.393,-0.98,-0.24,-0.40,0.09,0.12,1.75,
0.393,-0.98,-0.24,-0.40,0.08,0.14,1.74,
0.393,-0.98,-0.24,-0.40,0.07,0.15,1.74,
0.394,-0.98,-0.24,-0.40,0.05,0.17,1.72,
0.395,-0.98,-0.24,-0.40,0.04,0.18,1.72,
0.397,-0.98,-0.24,-0.40,0.03,0.18,1.71,
0.399,-1.03,-0.13,-0.11,0.03,0.18,1.71,
0.4,-1.03,-0.13,-0.11,0.02,0.19,1.71,
0.403,-1.03,-0.13,-0.11,0.01,0.19,1.70,
0.405,-1.03,-0.13,-0.11,-0.00,0.20,1.68,
0.406,-1.03,-0.13,-0.11,-0.02,0.20,1.67,
0.407,-1.03,-0.13,-0.11,-0.02,0.21,1.67,
0.409,-1.09,-0.03,0.21,-0.02,0.21,1.67,
0.409,-1.09,-0.03,0.21,-0.03,0.21,1.66,
0.411,-1.09,-0.03,0.21,-0.04,0.20,1.65,
0.414,-1.09,-0.03,0.21,-0.06,0.21,1.63,
0.415,-1.09,-0.03,0.21,-0.07,0.20,1.62,
0.417,-1.09,-0.03,0.21,-0.08,0.20,1.62,
0.419,-1.18,0.02,0.46,-0.08,0.20,1.62,
0.42,-1.18,0.02,0.46,-0.09,0.21,1.61,
0.433,-1.18,0.02,0.46,-0.10,0.21,1.60,
0.434,-1.18,0.02,0.46,-0.11,0.22,1.58,
0.435,-1.18,0.02,0.46,-0.12,0.22,1.58,
0.435,-1.18,0.02,0.46,-0.12,0.22,1.57,
0.436,-1.40,0.06,0.77,-0.12,0.22,1.57,
0.436,-1.40,0.06,0.77,-0.13,0.23,1.56,
0.454,-1.40,0.06,0.77,-0.14,0.23,1.56,
0.454,-1.40,0.06,0.77,-0.14,0.24,1.55,
0.455,-1.40,0.06,0.77,-0.15,0.24,1.54,
0.455,-1.40,0.06,0.77,-0.15,0.25,1.54,
0.455,-1.55,0.07,1.05,-0.15,0.25,1.54,
0.455,-1.55,0.07,1.05,-0.15,0.25,1.53,
0.456,-1.55,0.07,1.05,-0.16,0.26,1.53,
0.456,-1.55,0.07,1.05,-0.16,0.27,1.53,
0.456,-1.55,0.07,1.05,-0.16,0.28,1.52,
0.458,-1.55,0.07,1.05,-0.16,0.28,1.52,
0.458,-1.84,0.03,1.31,-0.16,0.28,1.52,
0.458,-1.84,0.03,1.31,-0.16,0.29,1.52,
0.458,-1.84,0.03,1.31,-0.16,0.30,1.53,
0.459,-1.84,0.03,1.31,-0.15,0.31,1.53,
0.459,-1.84,0.03,1.31,-0.15,0.31,1.53,
0.459,-1.84,0.03,1.31,-0.14,0.32,1.53,
0.464,-2.01,-0.01,1.52,-0.14,0.32,1.53,
0.464,-2.01,-0.01,1.52,-0.14,0.33,1.54,
0.464,-2.01,-0.01,1.52,-0.14,0.33,1.55,
0.466,-2.01,-0.01,1.52,-0.13,0.34,1.55,
0.467,-2.01,-0.01,1.52,-0.11,0.35,1.56,
0.467,-2.01,-0.01,1.52,-0.11,0.35,1.56,
0.469,-2.11,-0.05,1.63,-0.11,0.35,1.56,
0.469,-2.11,-0.05,1.63,-0.11,0.36,1.56,
0.475,-2.11,-0.05,1.63,-0.09,0.37,1.56,
0.476,-2.11,-0.05,1.63,-0.08,0.37,1.57,
0.476,-2.11,-0.05,1.63,-0.06,0.38,1.57,
0.476,-2.11,-0.05,1.63,-0.06,0.38,1.57,
0.479,-1.96,-0.08,1.62,-0.06,0.38,1.57,
0.479,-1.96,-0.08,1.62,-0.05,0.38,1.57,
0.481,-1.96,-0.08,1.62,-0.03,0.39,1.57,
0.484,-1.96,-0.08,1.62,-0.01,0.39,1.57,
0.485,-1.96,-0.08,1.62,0.00,0.39,1.56,
0.487,-1.96,-0.08,1.62,0.01,0.39,1.56,
0.489,-1.77,-0.00,1.40,0.01,0.39,1.56,
0.489,-1.77,-0.00,1.40,0.03,0.39,1.56,
0.491,-1.77,-0.00,1.40,0.04,0.39,1.55,
0.494,-1.77,-0.00,1.40,0.05,0.38,1.54,
0.494,-1.77,-0.00,1.40,0.07,0.37,1.54,
0.497,-1.77,-0.00,1.40,0.07,0.37,1.53,
0.504,-1.45,0.05,0.95,0.07,0.37,1.53,
0.504,-1.45,0.05,0.95,0.08,0.36,1.52,
0.504,-1.45,0.05,0.95,0.10,0.36,1.51,
0.506,-1.45,0.05,0.95,0.11,0.35,1.49,
0.506,-1.45,0.05,0.95,0.12,0.34,1.49,
0.507,-1.45,0.05,0.95,0.12,0.34,1.48,
0.509,-1.23,0.18,0.34,0.12,0.34,1.48,
0.509,-1.23,0.18,0.34,0.12,0.34,1.47,
0.51,-1.23,0.18,0.34,0.13,0.35,1.46,
0.514,-1.23,0.18,0.34,0.12,0.35,1.43,
0.515,-1.23,0.18,0.34,0.12,0.35,1.43,
0.517,-1.23,0.18,0.34,0.12,0.35,1.42,
0.52,-1.14,0.23,-0.26,0.12,0.35,1.42,
0.521,-1.14,0.23,-0.26,0.11,0.36,1.41,
0.521,-1.14,0.23,-0.26,0.10,0.37,1.40,
0.524,-1.14,0.23,-0.26,0.08,0.38,1.38,
0.529,-1.14,0.23,-0.26,0.07,0.38,1.37,
0.529,-1.14,0.23,-0.26,0.06,0.39,1.37,
0.531,-1.25,0.25,-0.75,0.06,0.39,1.37,
0.531,-1.25,0.25,-0.75,0.04,0.40,1.36,
0.531,-1.25,0.25,-0.75,0.01,0.41,1.35,
0.533,-1.25,0.25,-0.75,-0.00,0.43,1.36,
0.535,-1.25,0.25,-0.75,-0.03,0.45,1.36,
0.538,-1.25,0.25,-0.75,-0.05,0.47,1.36,
0.539,-1.47,0.20,-1.02,-0.05,0.47,1.36,
0.539,-1.47,0.20,-1.02,-0.07,0.49,1.37,
0.541,-1.47,0.20,-1.02,-0.10,0.51,1.38,
0.543,-1.47,0.20,-1.02,-0.13,0.53,1.38,
0.544,-1.47,0.20,-1.02,-0.15,0.55,1.39,
0.547,-1.47,0.20,-1.02,-0.18,0.57,1.40,
0.549,-1.79,0.12,-1.15,-0.18,0.57,1.40,
0.549,-1.79,0.12,-1.15,-0.20,0.59,1.41,
0.551,-1.79,0.12,-1.15,-0.23,0.61,1.42,
0.561,-1.79,0.12,-1.15,-0.25,0.62,1.43,
0.561,-1.79,0.12,-1.15,-0.27,0.64,1.44,
0.562,-1.79,0.12,-1.15,-0.29,0.65,1.45,
0.562,-1.75,0.10,-0.87,-0.29,0.65,1.45,
0.562,-1.75,0.10,-0.87,-0.31,0.66,1.46,
0.562,-1.75,0.10,-0.87,-0.32,0.67,1.47,
0.564,-1.75,0.10,-0.87,-0.33,0.69,1.48,
0.564,-1.75,0.10,-0.87,-0.34,0.70,1.48,
0.566,-1.75,0.10,-0.87,-0.35,0.70,1.48,
0.569,-1.59,0.09,-0.43,-0.35,0.70,1.48,
0.57,-1.59,0.09,-0.43,-0.36,0.70,1.49,
0.571,-1.59,0.09,-0.43,-0.36,0.70,1.49,
0.574,-1.59,0.09,-0.43,-0.37,0.68,1.49,
0.575,-1.59,0.09,-0.43,-0.37,0.67,1.49,
0.576,-1.59,0.09,-0.43,-0.38,0.66,1.49,
0.579,-1.29,0.11,-0.00,-0.38,0.66,1.49,
0.579,-1.29,0.11,-0.00,-0.37,0.65,1.48,
0.58,-1.29,0.11,-0.00,-0.37,0.64,1.48,
0.583,-1.29,0.11,-0.00,-0.36,0.64,1.48,
0.585,-1.29,0.11,-0.00,-0.36,0.63,1.47,
0.587,-1.29,0.11,-0.00,-0.35,0.62,1.47,
0.589,-1.04,0.05,0.39,-0.35,0.62,1.47,
0.589,-1.04,0.05,0.39,-0.35,0.61,1.46,
0.591,-1.04,0.05,0.39,-0.34,0.59,1.46,
0.593,-1.04,0.05,0.39,-0.33,0.57,1.45,
0.595,-1.04,0.05,0.39,-0.32,0.56,1.45,
0.597,-1.04,0.05,0.39,-0.30,0.55,1.44,
0.625,-0.97,0.02,0.83,-0.30,0.55,1.44,
0.626,-0.97,0.02,0.83,-0.29,0.54,1.44,
0.627,-0.97,0.02,0.83,-0.28,0.53,1.44,
0.627,-0.97,0.02,0.83,-0.26,0.52,1.44,
0.628,-0.97,0.02,0.83,-0.25,0.50,1.44,
0.628,-0.97,0.02,0.83,-0.24,0.49,1.44,
0.629,-1.03,-0.08,1.10,-0.24,0.49,1.44,
0.629,-1.03,-0.08,1.10,-0.23,0.47,1.44,
0.63,-1.03,-0.08,1.10,-0.21,0.46,1.44,
0.63,-1.03,-0.08,1.10,-0.20,0.45,1.45,
0.631,-1.03,-0.08,1.10,-0.18,0.43,1.45,
0.632,-1.03,-0.08,1.10,-0.17,0.41,1.45,
0.633,-1.05,-0.21,1.35,-0.17,0.41,1.45,
0.633,-1.05,-0.21,1.35,-0.16,0.40,1.46,
0.633,-1.05,-0.21,1.35,-0.14,0.38,1.46,
0.634,-1.05,-0.21,1.35,-0.13,0.37,1.46,
0.634,-1.05,-0.21,1.35,-0.11,0.36,1.47,
0.634,-1.05,-0.21,1.35,-0.10,0.35,1.47,
0.635,-1.05,-0.28,1.58,-0.10,0.35,1.47,
0.635,-1.05,-0.28,1.58,-0.08,0.34,1.48,
0.635,-1.05,-0.28,1.58,-0.07,0.33,1.48,
0.636,-1.05,-0.28,1.58,-0.04,0.32,1.49,
0.636,-1.05,-0.28,1.58,-0.03,0.31,1.49,
0.644,-1.05,-0.28,1.58,-0.02,0.30,1.49,
0.645,-0.94,-0.36,1.76,-0.02,0.30,1.49,
0.645,-0.94,-0.36,1.76,-0.01,0.29,1.50,
0.645,-0.94,-0.36,1.76,0.01,0.29,1.51,
0.646,-0.94,-0.36,1.76,0.02,0.28,1.51,
0.646,-0.94,-0.36,1.76,0.04,0.28,1.52,
0.646,-0.94,-0.36,1.76,0.05,0.28,1.52,
0.649,-0.84,-0.45,1.84,0.05,0.28,1.52,
0.65,-0.84,-0.45,1.84,0.06,0.28,1.53,
0.651,-0.84,-0.45,1.84,0.07,0.28,1.53,
0.654,-0.84,-0.45,1.84,0.08,0.29,1.54,
0.655,-0.84,-0.45,1.84,0.09,0.29,1.54,
0.657,-0.84,-0.45,1.84,0.10,0.29,1.55,
0.659,-0.64,-0.48,1.84,0.10,0.29,1.55,
0.66,-0.64,-0.48,1.84,0.11,0.29,1.56,
0.661,-0.64,-0.48,1.84,0.12,0.29,1.56,
0.663,-0.64,-0.48,1.84,0.14,0.29,1.56,
0.665,-0.64,-0.48,1.84,0.14,0.29,1.56,
0.666,-0.64,-0.48,1.84,0.15,0.30,1.56,
0.669,-0.34,-0.45,1.84,0.15,0.30,1.56,
0.67,-0.34,-0.45,1.84,0.16,0.30,1.57,
0.671,-0.34,-0.45,1.84,0.17,0.30,1.56,
0.673,-0.34,-0.45,1.84,0.18,0.30,1.56,
0.675,-0.34,-0.45,1.84,0.19,0.31,1.56,
0.676,-0.34,-0.45,1.84,0.20,0.31,1.56,
0.679,0.05,-0.35,1.81,0.20,0.31,1.56,
0.679,0.05,-0.35,1.81,0.21,0.32,1.55,
0.681,0.05,-0.35,1.81,0.22,0.32,1.55,
0.7,0.05,-0.35,1.81,0.24,0.33,1.54,
0.701,0.05,-0.35,1.81,0.24,0.33,1.54,
0.701,0.05,-0.35,1.81,0.26,0.33,1.53,
0.701,0.40,-0.28,1.72,0.26,0.33,1.53,
0.702,0.40,-0.28,1.72,0.27,0.34,1.53,
0.702,0.40,-0.28,1.72,0.28,0.34,1.51,
0.702,0.40,-0.28,1.72,0.29,0.35,1.50,
0.702,0.40,-0.28,1.72,0.30,0.35,1.50,
0.702,0.40,-0.28,1.72,0.31,0.36,1.49,
0.703,0.68,-0.20,1.59,0.31,0.36,1.49,
0.703,0.68,-0.20,1.59,0.32,0.37,1.48,
0.703,0.68,-0.20,1.59,0.33,0.37,1.47,
0.705,0.68,-0.20,1.59,0.34,0.38,1.46,
0.706,0.68,-0.20,1.59,0.35,0.38,1.45,
0.707,0.68,-0.20,1.59,0.36,0.39,1.44,
0.71,0.95,-0.12,1.36,0.36,0.39,1.44,
0.712,0.95,-0.12,1.36,0.36,0.39,1.43,
0.714,0.95,-0.12,1.36,0.37,0.40,1.42,
0.716,0.95,-0.12,1.36,0.38,0.40,1.41,
0.717,0.95,-0.12,1.36,0.38,0.41,1.40,
0.717,0.95,-0.12,1.36,0.38,0.41,1.39,
0.733,1.09,-0.08,1.06,0.38,0.41,1.39,
0.734,1.09,-0.08,1.06,0.38,0.42,1.38,
0.734,1.09,-0.08,1.06,0.38,0.42,1.37,
0.735,1.09,-0.08,1.06,0.38,0.43,1.36,
0.736,1.09,-0.08,1.06,0.38,0.43,1.35,
0.737,1.09,-0.08,1.06,0.38,0.43,1.34,
0.738,1.21,-0.03,0.78,0.38,0.43,1.34,
0.738,1.21,-0.03,0.78,0.38,0.44,1.33,
0.739,1.21,-0.03,0.78,0.37,0.44,1.32,
0.739,1.21,-0.03,0.78,0.37,0.45,1.31,
0.74,1.21,-0.03,0.78,0.37,0.45,1.30,
0.74,1.21,-0.03,0.78,0.37,0.46,1.29,
0.742,1.28,0.02,0.58,0.37,0.46,1.29,
0.742,1.28,0.02,0.58,0.37,0.46,1.28,
0.743,1.28,0.02,0.58,0.37,0.46,1.27,
0.744,1.28,0.02,0.58,0.36,0.46,1.26,
0.745,1.28,0.02,0.58,0.36,0.46,1.26,
0.747,1.28,0.02,0.58,0.36,0.46,1.25,
0.749,1.35,0.06,0.45,0.36,0.46,1.25,
0.749,1.35,0.06,0.45,0.36,0.45,1.24,
0.752,1.35,0.06,0.45,0.36,0.45,1.23,
0.754,1.35,0.06,0.45,0.36,0.45,1.22,
0.755,1.35,0.06,0.45,0.36,0.44,1.22,
0.757,1.35,0.06,0.45,0.37,0.44,1.21,
0.761,1.38,0.11,0.36,0.37,0.44,1.21,
0.761,1.38,0.11,0.36,0.37,0.43,1.20,
0.761,1.38,0.11,0.36,0.37,0.43,1.20,
0.764,1.38,0.11,0.36,0.38,0.42,1.18,
0.782,1.38,0.11,0.36,0.38,0.41,1.18,
0.782,1.38,0.11,0.36,0.38,0.40,1.17,
0.782,1.43,0.16,0.32,0.38,0.40,1.17,
0.782,1.43,0.16,0.32,0.39,0.39,1.17,
0.782,1.43,0.16,0.32,0.39,0.37,1.16,
0.783,1.43,0.16,0.32,0.40,0.35,1.15,
0.783,1.43,0.16,0.32,0.41,0.34,1.14,
0.783,1.43,0.16,0.32,0.41,0.33,1.14,
0.783,1.52,0.20,0.32,0.41,0.33,1.14,
0.783,1.52,0.20,0.32,0.42,0.32,1.13,
0.784,1.52,0.20,0.32,0.43,0.30,1.12,
0.788,1.52,0.20,0.32,0.44,0.28,1.10,
0.789,1.52,0.20,0.32,0.45,0.27,1.10,
0.79,1.52,0.20,0.32,0.45,0.25,1.09,
0.791,1.65,0.19,0.26,0.45,0.25,1.09,
0.791,1.65,0.19,0.26,0.46,0.23,1.08,
0.793,1.65,0.19,0.26,0.47,0.22,1.07,
0.793,1.65,0.19,0.26,0.47,0.19,1.05,
0.797,1.65,0.19,0.26,0.48,0.18,1.05,
0.797,1.65,0.19,0.26,0.48,0.17,1.04,
0.801,1.66,0.21,0.08,0.48,0.17,1.04,
0.802,1.66,0.21,0.08,0.48,0.16,1.03,
0.807,1.66,0.21,0.08,0.48,0.15,1.02,
0.807,1.66,0.21,0.08,0.48,0.12,1.00,
0.807,1.66,0.21,0.08,0.48,0.12,0.99,
0.808,1.66,0.21,0.08,0.48,0.11,0.98,
0.81,1.77,0.21,-0.12,0.48,0.11,0.98,
0.81,1.77,0.21,-0.12,0.48,0.09,0.97,
0.811,1.77,0.21,-0.12,0.48,0.08,0.96,
0.815,1.77,0.21,-0.12,0.47,0.07,0.94,
0.815,1.77,0.21,-0.12,0.47,0.06,0.93,
0.818,1.77,0.21,-0.12,0.47,0.05,0.92,
0.825,1.79,0.23,-0.21,0.47,0.05,0.92,
0.825,1.79,0.23,-0.21,0.47,0.04,0.90,
0.826,1.79,0.23,-0.21,0.46,0.04,0.89,
0.826,1.79,0.23,-0.21,0.46,0.03,0.87,
0.826,1.79,0.23,-0.21,0.46,0.02,0.87,
0.827,1.79,0.23,-0.21,0.46,0.02,0.85,
0.829,1.88,0.20,-0.21,0.46,0.02,0.85,
0.829,1.88,0.20,-0.21,0.45,0.01,0.84,
0.831,1.88,0.20,-0.21,0.45,0.01,0.83,
0.838,1.88,0.20,-0.21,0.45,0.00,0.81,
0.839,1.88,0.20,-0.21,0.45,0.00,0.80,
0.844,1.88,0.20,-0.21,0.45,-0.00,0.79,
0.871,1.86,0.18,-0.16,0.45,-0.00,0.79,
0.872,1.86,0.18,-0.16,0.45,-0.00,0.77,
0.872,1.86,0.18,-0.16,0.45,-0.00,0.76,
0.873,1.86,0.18,-0.16,0.45,-0.01,0.74,
0.873,1.86,0.18,-0.16,0.45,-0.01,0.73,
0.873,1.86,0.18,-0.16,0.45,-0.01,0.72,
0.873,1.87,0.09,-0.10,0.45,-0.01,0.72,
0.874,1.87,0.09,-0.10,0.45,-0.01,0.71,
0.874,1.87,0.09,-0.10,0.45,-0.01,0.70,
0.874,1.87,0.09,-0.10,0.45,-0.01,0.68,
0.874,1.87,0.09,-0.10,0.46,-0.01,0.68,
0.875,1.87,0.09,-0.10,0.46,-0.01,0.67,
0.875,1.74,-0.01,-0.01,0.46,-0.01,0.67,
0.875,1.74,-0.01,-0.01,0.46,-0.01,0.66,
0.875,1.74,-0.01,-0.01,0.47,-0.01,0.65,
0.876,1.74,-0.01,-0.01,0.48,-0.01,0.64,
0.876,1.74,-0.01,-0.01,0.48,-0.01,0.64,
0.876,1.74,-0.01,-0.01,0.48,-0.01,0.63,
0.876,1.62,-0.15,0.05,0.48,-0.01,0.63,
0.877,1.62,-0.15,0.05,0.49,-0.01,0.63,
0.877,1.62,-0.15,0.05,0.50,-0.01,0.62,
0.877,1.62,-0.15,0.05,0.51,-0.00,0.62,
0.878,1.62,-0.15,0.05,0.51,0.00,0.62,
0.88,1.62,-0.15,0.05,0.52,0.01,0.61,
0.881,1.47,-0.21,0.00,0.52,0.01,0.61,
0.881,1.47,-0.21,0.00,0.53,0.01,0.61,
0.882,1.47,-0.21,0.00,0.54,0.02,0.60,
0.885,1.47,-0.21,0.00,0.55,0.03,0.59,
0.886,1.47,-0.21,0.00,0.56,0.03,0.59,
0.891,1.47,-0.21,0.00,0.56,0.04,0.59,
0.892,1.34,-0.18,-0.25,0.56,0.04,0.59,
0.892,1.34,-0.18,-0.25,0.56,0.05,0.58,
0.893,1.34,-0.18,-0.25,0.56,0.05,0.58,
0.893,1.34,-0.18,-0.25,0.56,0.06,0.57,
0.895,1.34,-0.18,-0.25,0.56,0.06,0.57,
0.897,1.34,-0.18,-0.25,0.55,0.06,0.56,
0.899,1.20,-0.09,-0.77,0.55,0.06,0.56,
0.899,1.20,-0.09,-0.77,0.54,0.06,0.56,
0.902,1.20,-0.09,-0.77,0.53,0.06,0.55,
0.907,1.20,-0.09,-0.77,0.50,0.05,0.54,
0.907,1.20,-0.09,-0.77,0.49,0.04,0.54,
0.907,1.20,-0.09,-0.77,0.46,0.03,0.53,
0.909,1.16,-0.03,-1.35,0.46,0.03,0.53,
0.909,1.16,-0.03,-1.35,0.43,0.01,0.52,
0.911,1.16,-0.03,-1.35,0.41,-0.01,0.51,
0.913,1.16,-0.03,-1.35,0.37,-0.04,0.49,
0.914,1.16,-0.03,-1.35,0.35,-0.06,0.48,
0.917,1.16,-0.03,-1.35,0.32,-0.09,0.47,
0.921,1.15,-0.04,-1.50,0.32,-0.09,0.47,
0.921,1.15,-0.04,-1.50,0.29,-0.12,0.46,
0.922,1.15,-0.04,-1.50,0.27,-0.15,0.44,
0.925,1.15,-0.04,-1.50,0.23,-0.21,0.42,
0.926,1.15,-0.04,-1.50,0.21,-0.23,0.41,
0.927,1.15,-0.04,-1.50,0.19,-0.26,0.40,
0.929,1.33,-0.15,-1.12,0.19,-0.26,0.40,
0.929,1.33,-0.15,-1.12,0.16,-0.29,0.38,
0.955,1.33,-0.15,-1.12,0.15,-0.32,0.36,
0.955,1.33,-0.15,-1.12,0.12,-0.34,0.34,
0.956,1.33,-0.15,-1.12,0.11,-0.35,0.33,
0.956,1.33,-0.15,-1.12,0.10,-0.36,0.31,
0.956,1.49,-0.35,-0.30,0.10,-0.36,0.31,
0.956,1.49,-0.35,-0.30,0.10,-0.36,0.29,
0.956,1.49,-0.35,-0.30,0.09,-0.35,0.28,
0.956,1.49,-0.35,-0.30,0.09,-0.34,0.25,
0.956,1.49,-0.35,-0.30,0.09,-0.33,0.25,
0.956,1.49,-0.35,-0.30,0.09,-0.31,0.24,
0.957,1.50,-0.51,0.46,0.09,-0.31,0.24,
0.957,1.50,-0.51,0.46,0.09,-0.29,0.22,
0.957,1.50,-0.51,0.46,0.10,-0.27,0.21,
0.957,1.50,-0.51,0.46,0.11,-0.23,0.20,
0.957,1.50,-0.51,0.46,0.11,-0.22,0.19,
0.957,1.50,-0.51,0.46,0.12,-0.19,0.19,
0.96,1.29,-0.65,0.96,0.12,-0.19,0.19,
0.96,1.29,-0.65,0.96,0.14,-0.16,0.18,
0.96,1.29,-0.65,0.96,0.15,-0.13,0.18,
0.963,1.29,-0.65,0.96,0.17,-0.08,0.17,
0.964,1.29,-0.65,0.96,0.17,-0.06,0.17,
0.967,1.29,-0.65,0.96,0.18,-0.03,0.17,
0.969,1.06,-0.81,1.07,0.18,-0.03,0.17,
0.969,1.06,-0.81,1.07,0.19,-0.01,0.17,
0.971,1.06,-0.81,1.07,0.20,0.02,0.17,
0.973,1.06,-0.81,1.07,0.21,0.05,0.17,
0.974,1.06,-0.81,1.07,0.21,0.06,0.17,
0.976,1.06,-0.81,1.07,0.22,0.07,0.17,
0.978,0.74,-0.87,0.65,0.22,0.07,0.17,
0.979,0.74,-0.87,0.65,0.22,0.08,0.17,
0.98,0.74,-0.87,0.65,0.22,0.08,0.18,
0.986,0.74,-0.87,0.65,0.21,0.07,0.18,
0.986,0.74,-0.87,0.65,0.21,0.07,0.18,
0.989,0.74,-0.87,0.65,0.20,0.05,0.18,
0.99,0.59,-0.86,0.12,0.20,0.05,0.18,
0.99,0.59,-0.86,0.12,0.19,0.04,0.18,
0.996,0.59,-0.86,0.12,0.19,0.02,0.18,
0.996,0.59,-0.86,0.12,0.17,-0.01,0.17,
0.996,0.59,-0.86,0.12,0.17,-0.03,0.17,
0.997,0.59,-0.86,0.12,0.16,-0.05,0.16,
0.999,0.54,-0.76,-0.18,0.16,-0.05,0.16,
0.999,0.54,-0.76,-0.18,0.15,-0.08,0.16,
1.007,0.54,-0.76,-0.18,0.14,-0.10,0.15,
1.007,0.54,-0.76,-0.18,0.13,-0.14,0.14,
1.007,0.54,-0.76,-0.18,0.12,-0.15,0.14,
1.007,0.54,-0.76,-0.18,0.11,-0.17,0.13,
1.009,0.63,-0.72,-0.15,0.11,-0.17,0.13,
1.009,0.63,-0.72,-0.15,0.11,-0.19,0.12,
1.01,0.63,-0.72,-0.15,0.10,-0.21,0.12,
1.013,0.63,-0.72,-0.15,0.09,-0.23,0.11,
1.014,0.63,-0.72,-0.15,0.09,-0.23,0.10,
1.017,0.63,-0.72,-0.15,0.09,-0.24,0.10,
1.019,0.63,-0.73,0.04,0.09,-0.24,0.10,
1.019,0.63,-0.73,0.04,0.08,-0.24,0.09,
1.021,0.63,-0.73,0.04,0.08,-0.24,0.09,
1.023,0.63,-0.73,0.04,0.08,-0.23,0.08,
1.025,0.63,-0.73,0.04,0.08,-0.22,0.08,
1.027,0.63,-0.73,0.04,0.07,-0.22,0.08,
1.028,0.54,-0.85,0.26,0.07,-0.22,0.08,
1.029,0.54,-0.85,0.26,0.08,-0.20,0.08,
1.03,0.54,-0.85,0.26,0.08,-0.19,0.08,
1.033,0.54,-0.85,0.26,0.08,-0.17,0.09,
1.034,0.54,-0.85,0.26,0.08,-0.17,0.09,
1.037,0.54,-0.85,0.26,0.09,-0.16,0.09,
1.039,0.39,-0.88,0.32,0.09,-0.16,0.09,
1.039,0.39,-0.88,0.32,0.09,-0.14,0.09,
1.04,0.39,-0.88,0.32,0.09,-0.13,0.10,
1.043,0.39,-0.88,0.32,0.10,-0.11,0.10,
1.044,0.39,-0.88,0.32,0.10,-0.11,0.10,
1.046,0.39,-0.88,0.32,0.11,-0.10,0.11,
1.049,0.23,-0.94,0.32,0.11,-0.10,0.11,
1.049,0.23,-0.94,0.32,0.11,-0.09,0.11,
1.051,0.23,-0.94,0.32,0.11,-0.09,0.11,
1.053,0.23,-0.94,0.32,0.12,-0.08,0.12,
1.055,0.23,-0.94,0.32,0.12,-0.08,0.12,
1.057,0.23,-0.94,0.32,0.13,-0.08,0.12,
1.059,0.11,-0.93,0.24,0.13,-0.08,0.12,
1.059,0.11,-0.93,0.24,0.14,-0.08,0.13,
1.06,0.11,-0.93,0.24,0.15,-0.07,0.13,
1.063,0.11,-0.93,0.24,0.16,-0.08,0.14,
1.065,0.11,-0.93,0.24,0.17,-0.08,0.14,
1.067,0.11,-0.93,0.24,0.18,-0.08,0.14,
1.069,0.02,-0.83,0.09,0.18,-0.08,0.14,
1.069,0.02,-0.83,0.09,0.19,-0.08,0.15,
1.071,0.02,-0.83,0.09,0.20,-0.09,0.15,
1.074,0.02,-0.83,0.09,0.21,-0.09,0.16,
1.075,0.02,-0.83,0.09,0.22,-0.09,0.16,
1.076,0.02,-0.83,0.09,0.23,-0.10,0.16,
1.079,0.03,-0.74,-0.16,0.23,-0.10,0.16,
1.079,0.03,-0.74,-0.16,0.23,-0.10,0.16,
1.081,0.03,-0.74,-0.16,0.24,-0.11,0.16,
1.084,0.03,-0.74,-0.16,0.25,-0.12,0.16,
1.085,0.03,-0.74,-0.16,0.25,-0.12,0.16,
1.087,0.03,-0.74,-0.16,0.26,-0.13,0.16,
1.089,0.07,-0.67,-0.45,0.26,-0.13,0.16,
1.09,0.07,-0.67,-0.45,0.26,-0.13,0.16,
1.091,0.07,-0.67,-0.45,0.26,-0.13,0.16,
1.093,0.07,-0.67,-0.45,0.26,-0.14,0.15,
1.094,0.07,-0.67,-0.45,0.26,-0.14,0.15,
1.096,0.07,-0.67,-0.45,0.25,-0.14,0.15,
1.125,0.11,-0.55,-0.81,0.25,-0.14,0.15,
1.126,0.11,-0.55,-0.81,0.25,-0.15,0.15,
1.126,0.11,-0.55,-0.81,0.24,-0.15,0.14,
1.126,0.11,-0.55,-0.81,0.23,-0.15,0.14,
1.127,0.11,-0.55,-0.81,0.23,-0.15,0.14,
1.127,0.11,-0.55,-0.81,0.22,-0.15,0.13,
1.127,0.13,-0.45,-1.13,0.22,-0.15,0.13,
1.127,0.13,-0.45,-1.13,0.20,-0.16,0.13,
1.128,0.13,-0.45,-1.13,0.19,-0.16,0.13,
1.128,0.13,-0.45,-1.13,0.17,-0.16,0.12,
1.128,0.13,-0.45,-1.13,0.16,-0.15,0.12,
1.129,0.13,-0.45,-1.13,0.15,-0.15,0.11,
1.129,0.07,-0.37,-1.30,0.15,-0.15,0.11,
1.129,0.07,-0.37,-1.30,0.13,-0.15,0.11,
1.129,0.07,-0.37,-1.30,0.12,-0.14,0.10,
1.13,0.07,-0.37,-1.30,0.10,-0.13,0.10,
1.13,0.07,-0.37,-1.30,0.09,-0.13,0.10,
1.13,0.07,-0.37,-1.30,0.07,-0.12,0.09,
1.13,0.04,-0.31,-1.31,0.07,-0.12,0.09,
1.131,0.04,-0.31,-1.31,0.05,-0.11,0.09,
1.131,0.04,-0.31,-1.31,0.03,-0.11,0.09,
1.142,0.04,-0.31,-1.31,-0.00,-0.10,0.09,
1.143,0.04,-0.31,-1.31,-0.01,-0.10,0.09,
1.143,0.04,-0.31,-1.31,-0.03,-0.10,0.08,
1.143,-0.02,-0.32,-1.25,-0.03,-0.10,0.08,
1.144,-0.02,-0.32,-1.25,-0.05,-0.10,0.08,
1.144,-0.02,-0.32,-1.25,-0.07,-0.10,0.08,
1.144,-0.02,-0.32,-1.25,-0.10,-0.11,0.08,
1.145,-0.02,-0.32,-1.25,-0.10,-0.11,0.08,
1.149,-0.02,-0.32,-1.25,-0.12,-0.11,0.08,
1.171,-0.05,-0.28,-0.90,-0.12,-0.11,0.08,
1.172,-0.05,-0.28,-0.90,-0.13,-0.11,0.07,
1.172,-0.05,-0.28,-0.90,-0.15,-0.11,0.07,
1.173,-0.05,-0.28,-0.90,-0.16,-0.11,0.07,
1.173,-0.05,-0.28,-0.90,-0.17,-0.11,0.06,
1.173,-0.05,-0.28,-0.90,-0.18,-0.10,0.06,
1.173,0.04,-0.30,-0.44,-0.18,-0.10,0.06,
1.174,0.04,-0.30,-0.44,-0.19,-0.10,0.06,
1.174,0.04,-0.30,-0.44,-0.19,-0.10,0.06,
1.174,0.04,-0.30,-0.44,-0.20,-0.10,0.05,
1.175,0.04,-0.30,-0.44,-0.21,-0.11,0.05,
1.175,0.04,-0.30,-0.44,-0.21,-0.11,0.05,
1.175,0.08,-0.35,0.04,-0.21,-0.11,0.05,
1.175,0.08,-0.35,0.04,-0.21,-0.11,0.05,
1.176,0.08,-0.35,0.04,-0.22,-0.11,0.05,
1.176,0.08,-0.35,0.04,-0.22,-0.11,0.05,
1.176,0.08,-0.35,0.04,-0.22,-0.11,0.05,
1.18,0.08,-0.35,0.04,-0.22,-0.11,0.04,
1.18,0.09,-0.36,0.45,-0.22,-0.11,0.04,
1.181,0.09,-0.36,0.45,-0.22,-0.10,0.05,
1.182,0.09,-0.36,0.45,-0.22,-0.10,0.05,
1.185,0.09,-0.36,0.45,-0.22,-0.09,0.05,
1.186,0.09,-0.36,0.45,-0.22,-0.09,0.05,
1.188,0.09,-0.36,0.45,-0.22,-0.09,0.05,
1.189,0.12,-0.39,0.74,-0.22,-0.09,0.05,
1.189,0.12,-0.39,0.74,-0.22,-0.09,0.05,
1.191,0.12,-0.39,0.74,-0.22,-0.08,0.05,
1.194,0.12,-0.39,0.74,-0.22,-0.08,0.05,
1.195,0.12,-0.39,0.74,-0.22,-0.07,0.05,
1.196,0.12,-0.39,0.74,-0.22,-0.07,0.05,
1.205,0.13,-0.37,0.98,-0.22,-0.07,0.05,
1.205,0.13,-0.37,0.98,-0.21,-0.06,0.05,
1.206,0.13,-0.37,0.98,-0.21,-0.05,0.05,
1.206,0.13,-0.37,0.98,-0.20,-0.04,0.05,
1.206,0.13,-0.37,0.98,-0.20,-0.03,0.06,
1.207,0.13,-0.37,0.98,-0.20,-0.02,0.06,
1.209,0.12,-0.33,1.11,-0.20,-0.02,0.06,
1.21,0.12,-0.33,1.11,-0.19,-0.00,0.06,
1.212,0.12,-0.33,1.11,-0.19,0.01,0.06,
1.214,0.12,-0.33,1.11,-0.19,0.03,0.06,
1.215,0.12,-0.33,1.11,-0.19,0.04,0.06,
1.217,0.12,-0.33,1.11,-0.19,0.05,0.06,
1.219,0.11,-0.25,1.03,-0.19,0.05,0.06,
1.22,0.11,-0.25,1.03,-0.20,0.06,0.06,
1.221,0.11,-0.25,1.03,-0.20,0.08,0.07,
1.225,0.11,-0.25,1.03,-0.20,0.09,0.07,
1.226,0.11,-0.25,1.03,-0.20,0.10,0.07,
1.227,0.11,-0.25,1.03,-0.21,0.11,0.07,
1.23,0.04,-0.20,0.85,-0.21,0.11,0.07,
1.231,0.04,-0.20,0.85,-0.21,0.11,0.08,
1.234,0.04,-0.20,0.85,-0.21,0.13,0.08,
1.235,0.04,-0.20,0.85,-0.21,0.14,0.09,
1.235,0.04,-0.20,0.85,-0.21,0.14,0.09,
1.236,0.04,-0.20,0.85,-0.21,0.15,0.10,
1.239,-0.01,-0.12,0.78,-0.21,0.15,0.10,
1.24,-0.01,-0.12,0.78,-0.21,0.16,0.10,
1.24,-0.01,-0.12,0.78,-0.21,0.17,0.10,
1.244,-0.01,-0.12,0.78,-0.21,0.17,0.11,
1.244,-0.01,-0.12,0.78,-0.21,0.17,0.11,
1.247,-0.01,-0.12,0.78,-0.21,0.18,0.12,
1.265,-0.09,-0.06,0.74,-0.21,0.18,0.12,
1.265,-0.09,-0.06,0.74,-0.21,0.19,0.13,
1.266,-0.09,-0.06,0.74,-0.20,0.19,0.13,
1.266,-0.09,-0.06,0.74,-0.19,0.21,0.14,
1.266,-0.09,-0.06,0.74,-0.19,0.21,0.14,
1.267,-0.09,-0.06,0.74,-0.18,0.22,0.15,
1.267,-0.14,-0.01,0.71,-0.18,0.22,0.15,
1.267,-0.14,-0.01,0.71,-0.18,0.22,0.15,
1.268,-0.14,-0.01,0.71,-0.17,0.23,0.16,
1.268,-0.14,-0.01,0.71,-0.15,0.23,0.17,
1.309,-0.14,-0.01,0.71,-0.15,0.23,0.17,
1.31,-0.14,-0.01,0.71,-0.14,0.24,0.18,
1.31,-0.19,0.04,0.61,-0.14,0.24,0.18,
1.311,-0.19,0.04,0.61,-0.14,0.24,0.19,
1.311,-0.19,0.04,0.61,-0.13,0.25,0.19,
1.312,-0.19,0.04,0.61,-0.11,0.25,0.21,
1.312,-0.19,0.04,0.61,-0.11,0.25,0.21,
1.312,-0.19,0.04,0.61,-0.10,0.25,0.22,
1.313,-0.24,0.08,0.37,-0.10,0.25,0.22,
1.313,-0.24,0.08,0.37,-0.09,0.25,0.23,
1.314,-0.24,0.08,0.37,-0.08,0.25,0.23,
1.314,-0.24,0.08,0.37,-0.07,0.25,0.25,
1.314,-0.24,0.08,0.37,-0.07,0.25,0.25,
1.315,-0.24,0.08,0.37,-0.06,0.26,0.26,
1.315,-0.33,0.20,0.06,-0.06,0.26,0.26,
1.316,-0.33,0.20,0.06,-0.05,0.26,0.27,
1.316,-0.33,0.20,0.06,-0.05,0.26,0.28,
1.316,-0.33,0.20,0.06,-0.04,0.26,0.29,
1.317,-0.33,0.20,0.06,-0.04,0.26,0.30,
1.317,-0.33,0.20,0.06,-0.03,0.26,0.31,
1.318,-0.39,0.21,-0.27,-0.03,0.26,0.31,
1.318,-0.39,0.21,-0.27,-0.03,0.26,0.32,
1.318,-0.39,0.21,-0.27,-0.03,0.26,0.33,
1.319,-0.39,0.21,-0.27,-0.03,0.26,0.34,
1.319,-0.39,0.21,-0.27,-0.02,0.26,0.35,
1.32,-0.39,0.21,-0.27,-0.02,0.26,0.36,
1.32,-0.37,0.29,-0.55,-0.02,0.26,0.36,
1.32,-0.37,0.29,-0.55,-0.02,0.25,0.37,
1.32,-0.37,0.29,-0.55,-0.02,0.25,0.37,
1.321,-0.37,0.29,-0.55,-0.02,0.24,0.39,
1.321,-0.37,0.29,-0.55,-0.02,0.24,0.39,
1.321,-0.37,0.29,-0.55,-0.02,0.23,0.40,
1.321,-0.33,0.37,-0.77,-0.02,0.23,0.40,
1.322,-0.33,0.37,-0.77,-0.02,0.22,0.41,
1.322,-0.33,0.37,-0.77,-0.02,0.21,0.42,
1.33,-0.33,0.37,-0.77,-0.03,0.20,0.42,
1.331,-0.33,0.37,-0.77,-0.03,0.20,0.43,
1.331,-0.33,0.37,-0.77,-0.03,0.19,0.43,
1.331,-0.23,0.48,-0.96,-0.03,0.19,0.43,
1.332,-0.23,0.48,-0.96,-0.04,0.18,0.44,
1.332,-0.23,0.48,-0.96,-0.04,0.17,0.44,
1.339,-0.23,0.48,-0.96,-0.04,0.16,0.45,
1.34,-0.23,0.48,-0.96,-0.04,0.15,0.45,
1.341,-0.23,0.48,-0.96,-0.05,0.14,0.45,
1.342,-0.11,0.52,-1.00,-0.05,0.14,0.45,
1.343,-0.11,0.52,-1.00,-0.05,0.13,0.46,
1.343,-0.11,0.52,-1.00,-0.06,0.12,0.46,
1.343,-0.11,0.52,-1.00,-0.05,0.11,0.46,
1.345,-0.11,0.52,-1.00,-0.05,0.11,0.46,
1.347,-0.11,0.52,-1.00,-0.06,0.10,0.47,
1.349,0.01,0.60,-0.96,-0.06,0.10,0.47,
1.35,0.01,0.60,-0.96,-0.05,0.10,0.47,
1.352,0.01,0.60,-0.96,-0.05,0.09,0.47,
1.354,0.01,0.60,-0.96,-0.06,0.09,0.48,
1.357,0.01,0.60,-0.96,-0.06,0.09,0.48,
1.357,0.01,0.60,-0.96,-0.06,0.08,0.48,
1.359,-0.02,0.59,-0.94,-0.06,0.08,0.48,
1.359,-0.02,0.59,-0.94,-0.06,0.09,0.49,
1.361,-0.02,0.59,-0.94,-0.06,0.08,0.49,
1.363,-0.02,0.59,-0.94,-0.06,0.08,0.50,
1.366,-0.02,0.59,-0.94,-0.07,0.09,0.50,
1.367,-0.02,0.59,-0.94,-0.07,0.09,0.51,
1.369,-0.06,0.59,-0.89,-0.07,0.09,0.51,
1.369,-0.06,0.59,-0.89,-0.07,0.09,0.51,
1.371,-0.06,0.59,-0.89,-0.08,0.09,0.51,
1.373,-0.06,0.59,-0.89,-0.08,0.09,0.53,
1.374,-0.06,0.59,-0.89,-0.08,0.09,0.53,
1.376,-0.06,0.59,-0.89,-0.08,0.09,0.53,
1.379,-0.04,0.59,-0.82,-0.08,0.09,0.53,
1.379,-0.04,0.59,-0.82,-0.09,0.10,0.54,
1.382,-0.04,0.59,-0.82,-0.09,0.10,0.54,
1.384,-0.04,0.59,-0.82,-0.09,0.11,0.55,
1.385,-0.04,0.59,-0.82,-0.10,0.11,0.56,
1.39,-0.04,0.59,-0.82,-0.10,0.11,0.56,
1.391,0.05,0.69,-0.75,-0.10,0.11,0.56,
1.391,0.05,0.69,-0.75,-0.11,0.11,0.56,
1.391,0.05,0.69,-0.75,-0.11,0.12,0.57,
1.394,0.05,0.69,-0.75,-0.12,0.13,0.57,
1.394,0.05,0.69,-0.75,-0.12,0.13,0.57,
1.396,0.05,0.69,-0.75,-0.12,0.14,0.57,
1.403,0.20,0.71,-0.59,-0.12,0.14,0.57,
1.404,0.20,0.71,-0.59,-0.13,0.15,0.57,
1.404,0.20,0.71,-0.59,-0.13,0.15,0.57,
1.404,0.20,0.71,-0.59,-0.14,0.16,0.56,
1.404,0.20,0.71,-0.59,-0.14,0.16,0.56,
1.407,0.20,0.71,-0.59,-0.16,0.16,0.56,
1.439,0.35,0.85,-0.54,-0.16,0.16,0.56,
1.44,0.35,0.85,-0.54,-0.16,0.16,0.56,
1.44,0.35,0.85,-0.54,-0.17,0.17,0.56,
1.44,0.35,0.85,-0.54,-0.17,0.19,0.55,
1.44,0.35,0.85,-0.54,-0.17,0.20,0.56,
1.44,0.35,0.85,-0.54,-0.18,0.21,0.56,
1.44,0.30,0.78,-0.44,-0.18,0.21,0.56,
1.441,0.30,0.78,-0.44,-0.18,0.22,0.55,
1.441,0.30,0.78,-0.44,-0.19,0.23,0.55,
1.441,0.30,0.78,-0.44,-0.20,0.24,0.55,
1.441,0.30,0.78,-0.44,-0.20,0.24,0.55,
1.441,0.30,0.78,-0.44,-0.21,0.25,0.55,
1.442,0.36,0.75,-0.29,-0.21,0.25,0.55,
1.442,0.36,0.75,-0.29,-0.21,0.26,0.55,
1.459,0.36,0.75,-0.29,-0.21,0.26,0.55,
1.46,0.36,0.75,-0.29,-0.21,0.26,0.55,
1.46,0.36,0.75,-0.29,-0.21,0.26,0.55,
1.46,0.36,0.75,-0.29,-0.22,0.27,0.54,
1.46,0.32,0.79,-0.19,-0.22,0.27,0.54,
1.46,0.32,0.79,-0.19,-0.22,0.27,0.54,
1.461,0.32,0.79,-0.19,-0.22,0.27,0.54,
1.461,0.32,0.79,-0.19,-0.22,0.26,0.54,
1.461,0.32,0.79,-0.19,-0.22,0.26,0.54,
1.461,0.32,0.79,-0.19,-0.22,0.26,0.54,
1.461,0.35,0.81,-0.06,-0.22,0.26,0.54,
1.462,0.35,0.81,-0.06,-0.22,0.26,0.54,
1.462,0.35,0.81,-0.06,-0.22,0.26,0.53,
1.462,0.35,0.81,-0.06,-0.21,0.26,0.53,
1.462,0.35,0.81,-0.06,-0.21,0.26,0.53,
1.462,0.35,0.81,-0.06,-0.21,0.25,0.53,
1.462,0.36,0.79,0.06,-0.21,0.25,0.53,
1.463,0.36,0.79,0.06,-0.20,0.24,0.53,
1.463,0.36,0.79,0.06,-0.20,0.23,0.52,
1.467,0.36,0.79,0.06,-0.19,0.21,0.52,
1.467,0.36,0.79,0.06,-0.19,0.20,0.52,
1.468,0.36,0.79,0.06,-0.19,0.19,0.51,
1.471,0.40,0.79,0.13,-0.19,0.19,0.51,
1.471,0.40,0.79,0.13,-0.18,0.17,0.51,
1.471,0.40,0.79,0.13,-0.18,0.16,0.51,
1.474,0.40,0.79,0.13,-0.17,0.14,0.50,
1.474,0.40,0.79,0.13,-0.17,0.13,0.49,
1.477,0.40,0.79,0.13,-0.16,0.12,0.49,
1.479,0.46,0.78,0.25,-0.16,0.12,0.49,
1.479,0.46,0.78,0.25,-0.15,0.11,0.48,
1.481,0.46,0.78,0.25,-0.15,0.10,0.47,
1.484,0.46,0.78,0.25,-0.14,0.10,0.47,
1.485,0.46,0.78,0.25,-0.13,0.09,0.46,
1.487,0.46,0.78,0.25,-0.12,0.09,0.46,
1.489,0.40,0.76,0.39,-0.12,0.09,0.46,
1.489,0.40,0.76,0.39,-0.12,0.09,0.46,
1.49,0.40,0.76,0.39,-0.11,0.09,0.46,
1.493,0.40,0.76,0.39,-0.10,0.09,0.45,
1.494,0.40,0.76,0.39,-0.09,0.09,0.45,
1.496,0.40,0.76,0.39,-0.08,0.09,0.45,
1.499,0.35,0.70,0.51,-0.08,0.09,0.45,
1.499,0.35,0.70,0.51,-0.08,0.09,0.45,
1.501,0.35,0.70,0.51,-0.07,0.09,0.45,
1.504,0.35,0.70,0.51,-0.06,0.09,0.44,
1.505,0.35,0.70,0.51,-0.06,0.09,0.44,
1.507,0.35,0.70,0.51,-0.05,0.09,0.44,
1.509,0.34,0.69,0.51,-0.05,0.09,0.44,
1.509,0.34,0.69,0.51,-0.04,0.09,0.44,
1.51,0.34,0.69,0.51,-0.04,0.09,0.44,
1.527,0.34,0.69,0.51,-0.04,0.09,0.43,
1.527,0.34,0.69,0.51,-0.03,0.09,0.43,
1.528,0.34,0.69,0.51,-0.03,0.09,0.43,
1.528,0.38,0.71,0.37,-0.03,0.09,0.43,
1.528,0.38,0.71,0.37,-0.03,0.08,0.42,
1.528,0.38,0.71,0.37,-0.03,0.08,0.42,
1.528,0.38,0.71,0.37,-0.03,0.08,0.41,
1.529,0.38,0.71,0.37,-0.03,0.08,0.41,
1.529,0.38,0.71,0.37,-0.03,0.08,0.40,
1.53,0.36,0.77,0.19,-0.03,0.08,0.40,
1.53,0.36,0.77,0.19,-0.03,0.09,0.40,
1.552,0.36,0.77,0.19,-0.03,0.09,0.39,
1.552,0.36,0.77,0.19,-0.03,0.10,0.39,
1.552,0.36,0.77,0.19,-0.03,0.10,0.38,
1.553,0.36,0.77,0.19,-0.04,0.10,0.38,
1.553,0.35,0.75,0.04,-0.04,0.10,0.38,
1.553,0.35,0.75,0.04,-0.04,0.11,0.37,
1.553,0.35,0.75,0.04,-0.04,0.11,0.37,
1.553,0.35,0.75,0.04,-0.05,0.11,0.36,
1.554,0.35,0.75,0.04,-0.05,0.11,0.36,
1.554,0.35,0.75,0.04,-0.05,0.11,0.35,
1.554,0.32,0.79,-0.06,-0.05,0.11,0.35,
1.554,0.32,0.79,-0.06,-0.05,0.11,0.35,
1.554,0.32,0.79,-0.06,-0.05,0.11,0.34,
1.555,0.32,0.79,-0.06,-0.05,0.09,0.33,
1.557,0.32,0.79,-0.06,-0.05,0.09,0.33,
1.557,0.32,0.79,-0.06,-0.05,0.09,0.32,
1.558,0.35,0.79,-0.11,-0.05,0.09,0.32,
1.559,0.35,0.79,-0.11,-0.05,0.09,0.32,
1.56,0.35,0.79,-0.11,-0.05,0.08,0.31,
1.568,0.35,0.79,-0.11,-0.05,0.07,0.30,
1.571,0.35,0.79,-0.11,-0.05,0.07,0.29,
1.572,0.35,0.79,-0.11,-0.05,0.06,0.29,
1.572,0.40,0.82,-0.13,-0.05,0.06,0.29,
1.572,0.40,0.82,-0.13,-0.05,0.05,0.28,
1.573,0.40,0.82,-0.13,-0.04,0.04,0.27,
1.574,0.40,0.82,-0.13,-0.04,0.01,0.27,
1.575,0.40,0.82,-0.13,-0.04,0.00,0.26,
1.577,0.40,0.82,-0.13,-0.03,-0.01,0.26,
1.579,0.41,0.73,-0.16,-0.03,-0.01,0.26,
1.58,0.41,0.73,-0.16,-0.03,-0.02,0.26,
1.583,0.41,0.73,-0.16,-0.03,-0.03,0.25,
1.584,0.41,0.73,-0.16,-0.01,-0.09,0.25,
1.585,0.41,0.73,-0.16,-0.01,-0.14,0.26,
1.588,0.41,0.73,-0.16,-0.00,-0.23,0.27,
1.59,0.32,0.57,-0.30,-0.00,-0.23,0.27,
1.591,0.32,0.57,-0.30,0.00,-0.28,0.28,
1.591,0.32,0.57,-0.30,0.01,-0.29,0.29,
1.594,0.32,0.57,-0.30,0.01,-0.28,0.29,
1.595,0.32,0.57,-0.30,0.01,-0.27,0.28,
1.599,0.32,0.57,-0.30,0.01,-0.24,0.27,
1.624,0.03,0.77,-0.00,0.01,-0.24,0.27,
1.625,0.03,0.77,-0.00,0.02,-0.22,0.27,
1.625,0.03,0.77,-0.00,0.02,-0.19,0.26,
1.626,0.03,0.77,-0.00,0.02,-0.16,0.26,
1.626,0.03,0.77,-0.00,0.03,-0.14,0.25,
1.626,0.03,0.77,-0.00,0.04,-0.13,0.25,
1.627,0.07,0.77,0.06,0.04,-0.13,0.25,
1.627,0.07,0.77,0.06,0.04,-0.12,0.25,
1.628,0.07,0.77,0.06,0.05,-0.11,0.25,
1.628,0.07,0.77,0.06,0.06,-0.11,0.25,
1.628,0.07,0.77,0.06,0.06,-0.11,0.24,
1.629,0.07,0.77,0.06,0.07,-0.11,0.24,
1.629,0.24,0.61,-0.14,0.07,-0.11,0.24,
1.63,0.24,0.61,-0.14,0.07,-0.11,0.24,
1.63,0.24,0.61,-0.14,0.07,-0.11,0.24,
1.63,0.24,0.61,-0.14,0.08,-0.12,0.24,
1.631,0.24,0.61,-0.14,0.08,-0.11,0.24,
1.631,0.24,0.61,-0.14,0.08,-0.10,0.24,
1.632,0.13,0.78,-0.21,0.08,-0.10,0.24,
1.632,0.13,0.78,-0.21,0.08,-0.10,0.24,
1.633,0.13,0.78,-0.21,0.08,-0.10,0.23,
1.639,0.13,0.78,-0.21,0.08,-0.10,0.23,
1.64,0.13,0.78,-0.21,0.08,-0.10,0.23,
1.64,0.13,0.78,-0.21,0.07,-0.10,0.23,
1.641,0.09,0.77,-0.38,0.07,-0.10,0.23,
1.641,0.09,0.77,-0.38,0.07,-0.09,0.23,
1.641,0.09,0.77,-0.38,0.07,-0.09,0.23,
1.644,0.09,0.77,-0.38,0.07,-0.09,0.22,
1.644,0.09,0.77,-0.38,0.07,-0.10,0.22,
1.648,0.09,0.77,-0.38,0.07,-0.10,0.22,
1.654,0.13,0.79,-0.39,0.07,-0.10,0.22,
1.654,0.13,0.79,-0.39,0.07,-0.11,0.21,
1.655,0.13,0.79,-0.39,0.07,-0.11,0.21,
1.655,0.13,0.79,-0.39,0.07,-0.12,0.20,
1.656,0.13,0.79,-0.39,0.07,-0.12,0.20,
1.657,0.13,0.79,-0.39,0.07,-0.12,0.19,
1.659,0.15,0.82,-0.32,0.07,-0.12,0.19,
1.659,0.15,0.82,-0.32,0.07,-0.12,0.19,
1.66,0.15,0.82,-0.32,0.08,-0.12,0.18,
1.669,0.15,0.82,-0.32,0.08,-0.12,0.17,
1.67,0.15,0.82,-0.32,0.09,-0.12,0.17,
1.671,0.15,0.82,-0.32,0.09,-0.12,0.17,
1.671,0.17,0.82,-0.30,0.09,-0.12,0.17,
1.671,0.17,0.82,-0.30,0.09,-0.11,0.17,
1.671,0.17,0.82,-0.30,0.09,-0.11,0.16,
1.677,0.17,0.82,-0.30,0.10,-0.10,0.16,
1.679,0.17,0.82,-0.30,0.09,-0.10,0.16,
1.69,0.17,0.82,-0.30,0.09,-0.09,0.16,
1.691,0.16,0.76,-0.38,0.09,-0.09,0.16,
1.691,0.16,0.76,-0.38,0.10,-0.08,0.16,
1.691,0.16,0.76,-0.38,0.09,-0.07,0.17,
1.692,0.16,0.76,-0.38,0.09,-0.04,0.17,
1.692,0.16,0.76,-0.38,0.09,-0.04,0.17,
1.692,0.16,0.76,-0.38,0.09,-0.03,0.17,
1.692,0.10,0.76,-0.42,0.09,-0.03,0.17,
1.693,0.10,0.76,-0.42,0.08,-0.02,0.18,
1.693,0.10,0.76,-0.42,0.08,-0.01,0.18,
1.694,0.10,0.76,-0.42,0.08,0.01,0.18,
1.697,0.10,0.76,-0.42,0.08,0.01,0.18,
1.699,0.10,0.76,-0.42,0.07,0.02,0.19,
1.7,0.12,0.74,-0.41,0.07,0.02,0.19,
1.7,0.12,0.74,-0.41,0.07,0.03,0.19,
1.701,0.12,0.74,-0.41,0.07,0.04,0.19,
1.704,0.12,0.74,-0.41,0.06,0.05,0.19,
1.705,0.12,0.74,-0.41,0.06,0.06,0.19,
1.707,0.12,0.74,-0.41,0.06,0.07,0.19,
1.709,0.18,0.76,-0.33,0.06,0.07,0.19,
1.709,0.18,0.76,-0.33,0.06,0.07,0.19,
1.711,0.18,0.76,-0.33,0.06,0.08,0.19,
1.715,0.18,0.76,-0.33,0.05,0.08,0.18,
1.715,0.18,0.76,-0.33,0.05,0.08,0.18,
1.717,0.18,0.76,-0.33,0.05,0.09,0.18,
1.72,0.26,0.78,-0.27,0.05,0.09,0.18,
1.72,0.26,0.78,-0.27,0.05,0.09,0.18,
1.721,0.26,0.78,-0.27,0.05,0.10,0.18,
1.724,0.26,0.78,-0.27,0.05,0.11,0.18,
1.725,0.26,0.78,-0.27,0.05,0.12,0.18,
1.727,0.26,0.78,-0.27,0.05,0.13,0.17,
1.73,0.30,0.78,-0.22,0.05,0.13,0.17,
1.731,0.30,0.78,-0.22,0.05,0.13,0.17,
1.731,0.30,0.78,-0.22,0.05,0.13,0.17,
1.734,0.30,0.78,-0.22,0.05,0.12,0.17,
1.735,0.30,0.78,-0.22,0.05,0.12,0.17,
1.737,0.30,0.78,-0.22,0.05,0.12,0.16,
1.739,0.33,0.79,-0.21,0.05,0.12,0.16,
1.74,0.33,0.79,-0.21,0.05,0.11,0.16,
1.745,0.33,0.79,-0.21,0.05,0.11,0.15,
1.747,0.33,0.79,-0.21,0.05,0.09,0.14,
1.747,0.33,0.79,-0.21,0.06,0.09,0.14,
1.747,0.33,0.79,-0.21,0.06,0.08,0.13,
1.749,0.39,0.87,-0.17,0.06,0.08,0.13,
1.75,0.39,0.87,-0.17,0.06,0.07,0.12,
1.751,0.39,0.87,-0.17,0.07,0.05,0.11,
1.754,0.39,0.87,-0.17,0.07,0.04,0.10,
1.755,0.39,0.87,-0.17,0.08,0.03,0.09,
1.757,0.39,0.87,-0.17,0.08,0.01,0.09,
1.759,0.44,0.83,-0.18,0.08,0.01,0.09,
1.759,0.44,0.83,-0.18,0.09,-0.01,0.08,
1.761,0.44,0.83,-0.18,0.10,-0.03,0.07,
1.764,0.44,0.83,-0.18,0.11,-0.06,0.06,
1.782,0.44,0.83,-0.18,0.11,-0.07,0.06,
1.782,0.44,0.83,-0.18,0.12,-0.10,0.06,
1.783,0.41,0.82,-0.23,0.12,-0.10,0.06,
1.783,0.41,0.82,-0.23,0.13,-0.11,0.05,
1.783,0.41,0.82,-0.23,0.14,-0.13,0.05,
1.783,0.41,0.82,-0.23,0.15,-0.13,0.05,
1.783,0.41,0.82,-0.23,0.15,-0.14,0.04,
1.784,0.41,0.82,-0.23,0.16,-0.14,0.04,
1.784,0.20,0.75,-0.22,0.16,-0.14,0.04,
1.784,0.20,0.75,-0.22,0.17,-0.14,0.04,
1.784,0.20,0.75,-0.22,0.18,-0.13,0.04,
1.784,0.20,0.75,-0.22,0.18,-0.12,0.04,
1.785,0.20,0.75,-0.22,0.19,-0.12,0.05,
1.787,0.20,0.75,-0.22,0.19,-0.11,0.05,
1.788,-0.02,0.63,-0.29,0.19,-0.11,0.05,
1.789,-0.02,0.63,-0.29,0.20,-0.10,0.05,
1.79,-0.02,0.63,-0.29,0.20,-0.09,0.06,
1.793,-0.02,0.63,-0.29,0.20,-0.07,0.07,
1.794,-0.02,0.63,-0.29,0.20,-0.06,0.07,
1.796,-0.02,0.63,-0.29,0.20,-0.05,0.08,
1.8,-0.26,0.48,-0.33,0.20,-0.05,0.08,
1.8,-0.26,0.48,-0.33,0.20,-0.03,0.09,
1.801,-0.26,0.48,-0.33,0.20,-0.00,0.11,
1.803,-0.26,0.48,-0.33,0.20,0.04,0.13,
1.805,-0.26,0.48,-0.33,0.20,0.05,0.13,
1.806,-0.26,0.48,-0.33,0.20,0.08,0.15,
1.808,-0.41,0.37,-0.34,0.20,0.08,0.15,
1.809,-0.41,0.37,-0.34,0.20,0.10,0.17,
1.81,-0.41,0.37,-0.34,0.20,0.13,0.19,
1.818,-0.41,0.37,-0.34,0.19,0.16,0.21,
1.819,-0.41,0.37,-0.34,0.19,0.17,0.22,
1.819,-0.41,0.37,-0.34,0.19,0.20,0.24,
1.819,-0.46,0.26,-0.29,0.19,0.20,0.24,
1.819,-0.46,0.26,-0.29,0.19,0.21,0.25,
1.82,-0.46,0.26,-0.29,0.19,0.24,0.27,
1.848,-0.46,0.26,-0.29,0.20,0.27,0.29,
1.848,-0.46,0.26,-0.29,0.20,0.27,0.30,
1.849,-0.46,0.26,-0.29,0.20,0.29,0.31,
1.849,-0.49,0.33,-0.25,0.20,0.29,0.31,
1.849,-0.49,0.33,-0.25,0.20,0.31,0.32,
1.849,-0.49,0.33,-0.25,0.21,0.32,0.33,
1.849,-0.49,0.33,-0.25,0.21,0.34,0.34,
1.849,-0.49,0.33,-0.25,0.22,0.35,0.34,
1.85,-0.49,0.33,-0.25,0.22,0.36,0.35,
1.85,-0.44,0.42,-0.24,0.22,0.36,0.35,
1.85,-0.44,0.42,-0.24,0.22,0.37,0.36,
1.85,-0.44,0.42,-0.24,0.23,0.38,0.36,
1.85,-0.44,0.42,-0.24,0.23,0.39,0.37,
1.851,-0.44,0.42,-0.24,0.24,0.39,0.37,
1.851,-0.44,0.42,-0.24,0.24,0.40,0.37,
1.851,-0.32,0.47,-0.33,0.24,0.40,0.37,
1.851,-0.32,0.47,-0.33,0.24,0.40,0.38,
1.851,-0.32,0.47,-0.33,0.25,0.40,0.38,
1.853,-0.32,0.47,-0.33,0.25,0.39,0.39,
1.854,-0.32,0.47,-0.33,0.25,0.39,0.39,
1.856,-0.32,0.47,-0.33,0.25,0.38,0.39,
1.86,-0.28,0.45,-0.42,0.25,0.38,0.39,
1.861,-0.28,0.45,-0.42,0.26,0.38,0.39,
1.861,-0.28,0.45,-0.42,0.26,0.37,0.40,
1.864,-0.28,0.45,-0.42,0.26,0.36,0.40,
1.865,-0.28,0.45,-0.42,0.26,0.35,0.40,
1.867,-0.28,0.45,-0.42,0.26,0.34,0.40,
1.869,-0.28,0.48,-0.51,0.26,0.34,0.40,
1.869,-0.28,0.48,-0.51,0.26,0.34,0.40,
1.871,-0.28,0.48,-0.51,0.27,0.32,0.40,
1.874,-0.28,0.48,-0.51,0.27,0.31,0.41,
1.875,-0.28,0.48,-0.51,0.27,0.30,0.41,
1.877,-0.28,0.48,-0.51,0.27,0.29,0.41,
1.881,-0.25,0.48,-0.54,0.27,0.29,0.41,
1.882,-0.25,0.48,-0.54,0.27,0.28,0.41,
1.883,-0.25,0.48,-0.54,0.27,0.28,0.41,
1.884,-0.25,0.48,-0.54,0.26,0.27,0.41,
1.886,-0.25,0.48,-0.54,0.26,0.26,0.41,
1.887,-0.25,0.48,-0.54,0.26,0.26,0.41,
1.889,-0.24,0.47,-0.63,0.26,0.26,0.41,
1.889,-0.24,0.47,-0.63,0.26,0.25,0.42,
1.891,-0.24,0.47,-0.63,0.25,0.25,0.42,
1.894,-0.24,0.47,-0.63,0.25,0.26,0.43,
1.895,-0.24,0.47,-0.63,0.25,0.26,0.43,
1.897,-0.24,0.47,-0.63,0.24,0.27,0.43,
1.899,-0.24,0.44,-0.66,0.24,0.27,0.43,
1.899,-0.24,0.44,-0.66,0.24,0.27,0.43,
1.901,-0.24,0.44,-0.66,0.23,0.28,0.44,
1.904,-0.24,0.44,-0.66,0.21,0.31,0.44,
1.906,-0.24,0.44,-0.66,0.20,0.31,0.44,
1.907,-0.24,0.44,-0.66,0.19,0.32,0.44,
1.909,-0.22,0.51,-0.81,0.19,0.32,0.44,
1.909,-0.22,0.51,-0.81,0.18,0.33,0.45,
1.911,-0.22,0.51,-0.81,0.16,0.35,0.45,
1.914,-0.22,0.51,-0.81,0.14,0.37,0.45,
1.918,-0.22,0.51,-0.81,0.13,0.38,0.45,
1.918,-0.22,0.51,-0.81,0.10,0.40,0.45,
1.92,-0.17,0.47,-1.06,0.10,0.40,0.45,
1.921,-0.17,0.47,-1.06,0.08,0.41,0.45,
1.921,-0.17,0.47,-1.06,0.06,0.42,0.46,
1.924,-0.17,0.47,-1.06,0.02,0.44,0.46,
1.925,-0.17,0.47,-1.06,0.01,0.44,0.46,
1.927,-0.17,0.47,-1.06,-0.02,0.44,0.46,
1.93,-0.22,0.52,-1.19,-0.02,0.44,0.46,
1.932,-0.22,0.52,-1.19,-0.05,0.45,0.47,
1.961,-0.22,0.52,-1.19,-0.07,0.45,0.46,
1.962,-0.22,0.52,-1.19,-0.11,0.46,0.47,
1.962,-0.22,0.52,-1.19,-0.13,0.45,0.47,
1.962,-0.22,0.52,-1.19,-0.15,0.45,0.47,
1.963,-0.17,0.42,-0.94,-0.15,0.45,0.47,
1.963,-0.17,0.42,-0.94,-0.17,0.45,0.46,
1.964,-0.17,0.42,-0.94,-0.19,0.45,0.46,
1.964,-0.17,0.42,-0.94,-0.23,0.45,0.46,
1.964,-0.17,0.42,-0.94,-0.23,0.45,0.46,
1.965,-0.17,0.42,-0.94,-0.25,0.44,0.46,
1.965,-0.12,0.38,-0.50,-0.25,0.44,0.46,
1.966,-0.12,0.38,-0.50,-0.27,0.44,0.45,
1.966,-0.12,0.38,-0.50,-0.29,0.44,0.44,
1.966,-0.12,0.38,-0.50,-0.31,0.44,0.44,
1.967,-0.12,0.38,-0.50,-0.32,0.44,0.43,
1.967,-0.12,0.38,-0.50,-0.33,0.45,0.43,
1.968,-0.05,0.36,-0.04,-0.33,0.45,0.43,
1.968,-0.05,0.36,-0.04,-0.35,0.45,0.42,
1.968,-0.05,0.36,-0.04,-0.36,0.45,0.41,
1.968,-0.05,0.36,-0.04,-0.38,0.45,0.41,
1.969,-0.05,0.36,-0.04,-0.38,0.45,0.40,
1.969,-0.05,0.36,-0.04,-0.39,0.45,0.39,
1.969,-0.06,0.31,0.37,-0.39,0.45,0.39,
1.97,-0.06,0.31,0.37,-0.40,0.45,0.39,
1.98,-0.06,0.31,0.37,-0.41,0.44,0.38,
1.98,-0.06,0.31,0.37,-0.43,0.44,0.36,
1.98,-0.06,0.31,0.37,-0.43,0.43,0.36,
1.981,-0.06,0.31,0.37,-0.44,0.42,0.35,
1.982,-0.09,0.18,0.72,-0.44,0.42,0.35,
1.982,-0.09,0.18,0.72,-0.45,0.41,0.35,
1.982,-0.09,0.18,0.72,-0.46,0.39,0.34,
1.986,-0.09,0.18,0.72,-0.47,0.37,0.33,
1.988,-0.09,0.18,0.72,-0.48,0.36,0.33,
1.99,-0.09,0.18,0.72,-0.49,0.34,0.33,
1.991,-0.15,-0.03,1.12,-0.49,0.34,0.33,
1.991,-0.15,-0.03,1.12,-0.49,0.33,0.32,
1.991,-0.15,-0.03,1.12,-0.49,0.31,0.32,
1.999,-0.15,-0.03,1.12,-0.50,0.29,0.31,
1.999,-0.15,-0.03,1.12,-0.50,0.28,0.31,
2.0,-0.15,-0.03,1.12,-0.50,0.27,0.31,
2.0,-0.26,-0.25,1.60,-0.50,0.27,0.31,
2.0,-0.26,-0.25,1.60,-0.50,0.27,0.31,
2.001,-0.26,-0.25,1.60,-0.50,0.26,0.31,
2.004,-0.26,-0.25,1.60,-0.49,0.25,0.32,
2.005,-0.26,-0.25,1.60,-0.48,0.25,0.32,
2.01,-0.26,-0.25,1.60,-0.48,0.25,0.32,
2.01,-0.48,-0.45,2.05,-0.48,0.25,0.32,
2.01,-0.48,-0.45,2.05,-0.47,0.25,0.33,
2.011,-0.48,-0.45,2.05,-0.46,0.25,0.34,
2.025,-0.48,-0.45,2.05,-0.44,0.26,0.35,
2.026,-0.48,-0.45,2.05,-0.43,0.26,0.36,
2.026,-0.48,-0.45,2.05,-0.41,0.27,0.37,
2.026,-0.67,-0.63,2.46,-0.41,0.27,0.37,
2.026,-0.67,-0.63,2.46,-0.40,0.28,0.38,
2.027,-0.67,-0.63,2.46,-0.38,0.29,0.39,
2.027,-0.67,-0.63,2.46,-0.36,0.32,0.41,
2.027,-0.67,-0.63,2.46,-0.35,0.32,0.42,
2.027,-0.67,-0.63,2.46,-0.33,0.34,0.43,
2.043,-0.79,-0.74,2.68,-0.33,0.34,0.43,
2.044,-0.79,-0.74,2.68,-0.31,0.35,0.45,
2.044,-0.79,-0.74,2.68,-0.29,0.37,0.46,
2.044,-0.79,-0.74,2.68,-0.26,0.39,0.48,
2.045,-0.79,-0.74,2.68,-0.26,0.39,0.49,
2.045,-0.79,-0.74,2.68,-0.24,0.40,0.51,
2.045,-0.83,-0.86,2.62,-0.24,0.40,0.51,
2.045,-0.83,-0.86,2.62,-0.22,0.41,0.52,
2.045,-0.83,-0.86,2.62,-0.20,0.43,0.54,
2.046,-0.83,-0.86,2.62,-0.18,0.44,0.56,
2.046,-0.83,-0.86,2.62,-0.17,0.44,0.57,
2.047,-0.83,-0.86,2.62,-0.15,0.45,0.58,
2.049,-0.83,-0.91,2.42,-0.15,0.45,0.58,
2.05,-0.83,-0.91,2.42,-0.13,0.46,0.60,
2.051,-0.83,-0.91,2.42,-0.12,0.46,0.61,
2.054,-0.83,-0.91,2.42,-0.09,0.46,0.63,
2.055,-0.83,-0.91,2.42,-0.09,0.46,0.64,
2.057,-0.83,-0.91,2.42,-0.07,0.46,0.66,
2.059,-0.76,-0.89,2.16,-0.07,0.46,0.66,
2.06,-0.76,-0.89,2.16,-0.06,0.46,0.67,
2.061,-0.76,-0.89,2.16,-0.04,0.45,0.68,
2.064,-0.76,-0.89,2.16,-0.02,0.44,0.71,
2.065,-0.76,-0.89,2.16,-0.00,0.44,0.71,
2.067,-0.76,-0.89,2.16,0.01,0.43,0.72,
2.069,-0.75,-0.94,1.98,0.01,0.43,0.72,
2.069,-0.75,-0.94,1.98,0.03,0.42,0.74,
2.071,-0.75,-0.94,1.98,0.05,0.41,0.75,
2.073,-0.75,-0.94,1.98,0.09,0.39,0.77,
2.075,-0.75,-0.94,1.98,0.10,0.39,0.78,
2.076,-0.75,-0.94,1.98,0.12,0.38,0.79,
2.079,-0.61,-0.91,1.84,0.12,0.38,0.79,
2.08,-0.61,-0.91,1.84,0.14,0.37,0.80,
2.082,-0.61,-0.91,1.84,0.16,0.35,0.81,
2.084,-0.61,-0.91,1.84,0.20,0.33,0.82,
2.085,-0.61,-0.91,1.84,0.20,0.32,0.83,
2.086,-0.61,-0.91,1.84,0.23,0.31,0.84,
2.089,-0.50,-1.01,1.56,0.23,0.31,0.84,
2.089,-0.50,-1.01,1.56,0.25,0.29,0.85,
2.091,-0.50,-1.01,1.56,0.27,0.28,0.86,
2.093,-0.50,-1.01,1.56,0.30,0.26,0.87,
2.107,-0.50,-1.01,1.56,0.30,0.25,0.87,
2.108,-0.50,-1.01,1.56,0.32,0.24,0.88,
2.126,-0.39,-0.97,1.22,0.32,0.24,0.88,
2.126,-0.39,-0.97,1.22,0.34,0.22,0.89,
2.127,-0.39,-0.97,1.22,0.35,0.20,0.90,
2.127,-0.39,-0.97,1.22,0.37,0.17,0.90,
2.127,-0.39,-0.97,1.22,0.38,0.17,0.91,
2.127,-0.39,-0.97,1.22,0.39,0.15,0.91,
2.127,-0.34,-0.98,0.81,0.39,0.15,0.91,
2.128,-0.34,-0.98,0.81,0.40,0.13,0.92,
2.128,-0.34,-0.98,0.81,0.40,0.11,0.92,
2.128,-0.34,-0.98,0.81,0.41,0.08,0.93,
2.128,-0.34,-0.98,0.81,0.41,0.07,0.93,
2.128,-0.34,-0.98,0.81,0.41,0.05,0.93,
2.129,-0.29,-0.92,0.37,0.41,0.05,0.93,
2.129,-0.29,-0.92,0.37,0.41,0.03,0.93,
2.129,-0.29,-0.92,0.37,0.41,0.01,0.94,
2.129,-0.29,-0.92,0.37,0.40,-0.02,0.94,
2.129,-0.29,-0.92,0.37,0.40,-0.03,0.94,
2.13,-0.29,-0.92,0.37,0.40,-0.05,0.94,
2.13,-0.16,-0.89,0.06,0.40,-0.05,0.94,
2.13,-0.16,-0.89,0.06,0.39,-0.07,0.94,
2.135,-0.16,-0.89,0.06,0.38,-0.09,0.94,
2.135,-0.16,-0.89,0.06,0.36,-0.12,0.93,
2.135,-0.16,-0.89,0.06,0.36,-0.14,0.93,
2.137,-0.16,-0.89,0.06,0.35,-0.15,0.93,
2.14,-0.02,-0.92,-0.09,0.35,-0.15,0.93,
2.14,-0.02,-0.92,-0.09,0.34,-0.17,0.93,
2.141,-0.02,-0.92,-0.09,0.32,-0.18,0.92,
2.145,-0.02,-0.92,-0.09,0.31,-0.20,0.92,
2.145,-0.02,-0.92,-0.09,0.30,-0.21,0.92,
2.146,-0.02,-0.92,-0.09,0.29,-0.22,0.91,
2.15,0.20,-0.97,0.02,0.29,-0.22,0.91,
2.15,0.20,-0.97,0.02,0.28,-0.22,0.91,
2.15,0.20,-0.97,0.02,0.27,-0.23,0.90,
2.153,0.20,-0.97,0.02,0.26,-0.24,0.89,
2.155,0.20,-0.97,0.02,0.25,-0.25,0.88,
2.156,0.20,-0.97,0.02,0.25,-0.25,0.88,
2.159,0.50,-1.00,0.25,0.25,-0.25,0.88,
2.159,0.50,-1.00,0.25,0.24,-0.25,0.87,
2.161,0.50,-1.00,0.25,0.24,-0.26,0.85,
2.163,0.50,-1.00,0.25,0.23,-0.26,0.83,
2.165,0.50,-1.00,0.25,0.23,-0.26,0.83,
2.167,0.50,-1.00,0.25,0.22,-0.25,0.81,
2.169,0.80,-1.05,0.46,0.22,-0.25,0.81,
2.169,0.80,-1.05,0.46,0.21,-0.25,0.80,
2.171,0.80,-1.05,0.46,0.20,-0.25,0.78,
2.174,0.80,-1.05,0.46,0.19,-0.24,0.76,
2.175,0.80,-1.05,0.46,0.19,-0.24,0.75,
2.177,0.80,-1.05,0.46,0.18,-0.24,0.73,
2.179,0.91,-1.05,0.57,0.18,-0.24,0.73,
2.182,0.91,-1.05,0.57,0.17,-0.22,0.70,
2.182,0.91,-1.05,0.57,0.17,-0.22,0.70,
2.184,0.91,-1.05,0.57,0.16,-0.20,0.68,
2.185,0.91,-1.05,0.57,0.15,-0.19,0.67,
2.186,0.91,-1.05,0.57,0.14,-0.18,0.66,
2.189,0.96,-1.10,0.64,0.14,-0.18,0.66,
2.189,0.96,-1.10,0.64,0.13,-0.16,0.64,
2.191,0.96,-1.10,0.64,0.12,-0.15,0.62,
2.194,0.96,-1.10,0.64,0.11,-0.12,0.60,
2.195,0.96,-1.10,0.64,0.11,-0.11,0.59,
2.197,0.96,-1.10,0.64,0.10,-0.09,0.58,
2.199,0.86,-1.13,0.61,0.10,-0.09,0.58,
2.2,0.86,-1.13,0.61,0.08,-0.07,0.57,
2.201,0.86,-1.13,0.61,0.07,-0.06,0.55,
2.204,0.86,-1.13,0.61,0.06,-0.03,0.53,
2.205,0.86,-1.13,0.61,0.05,-0.02,0.53,
2.207,0.86,-1.13,0.61,0.04,0.00,0.51,
2.21,0.74,-1.16,0.58,0.04,0.00,0.51,
2.21,0.74,-1.16,0.58,0.03,0.02,0.50,
2.213,0.74,-1.16,0.58,0.03,0.04,0.49,
2.214,0.74,-1.16,0.58,0.02,0.07,0.48,
2.216,0.74,-1.16,0.58,0.01,0.09,0.47,
2.217,0.74,-1.16,0.58,0.00,0.10,0.46,
2.219,0.49,-1.18,0.52,0.00,0.10,0.46,
2.22,0.49,-1.18,0.52,0.00,0.12,0.46,
2.221,0.49,-1.18,0.52,-0.01,0.14,0.45,
2.224,0.49,-1.18,0.52,-0.02,0.17,0.44,
2.225,0.49,-1.18,0.52,-0.02,0.18,0.43,
2.232,0.49,-1.18,0.52,-0.02,0.19,0.43,
2.233,0.31,-1.25,0.44,-0.02,0.19,0.43,
2.233,0.31,-1.25,0.44,-0.03,0.21,0.42,
2.233,0.31,-1.25,0.44,-0.03,0.22,0.42,
2.234,0.31,-1.25,0.44,-0.03,0.24,0.41,
2.235,0.31,-1.25,0.44,-0.04,0.25,0.40,
2.237,0.31,-1.25,0.44,-0.04,0.25,0.40,
2.239,0.19,-1.21,0.33,-0.04,0.25,0.40,
2.239,0.19,-1.21,0.33,-0.04,0.26,0.39,
2.241,0.19,-1.21,0.33,-0.04,0.26,0.38,
2.265,0.19,-1.21,0.33,-0.04,0.27,0.37,
2.267,0.19,-1.21,0.33,-0.04,0.27,0.36,
2.268,0.19,-1.21,0.33,-0.04,0.27,0.35,
2.268,0.04,-1.23,0.24,-0.04,0.27,0.35,
2.269,0.04,-1.23,0.24,-0.04,0.27,0.35,
2.27,0.04,-1.23,0.24,-0.04,0.27,0.34,
2.27,0.04,-1.23,0.24,-0.03,0.27,0.33,
2.271,0.04,-1.23,0.24,-0.03,0.27,0.33,
2.271,0.04,-1.23,0.24,-0.02,0.27,0.33,
2.272,-0.15,-1.20,0.19,-0.02,0.27,0.33,
2.273,-0.15,-1.20,0.19,-0.01,0.27,0.33,
2.273,-0.15,-1.20,0.19,-0.01,0.27,0.33,
2.273,-0.15,-1.20,0.19,-0.00,0.27,0.33,
2.301,-0.15,-1.20,0.19,0.01,0.27,0.33,
2.301,-0.15,-1.20,0.19,0.01,0.27,0.33,
2.301,-0.35,-1.21,0.02,0.01,0.27,0.33,
2.302,-0.35,-1.21,0.02,0.01,0.27,0.33,
2.302,-0.35,-1.21,0.02,0.02,0.26,0.33,
2.302,-0.35,-1.21,0.02,0.02,0.26,0.33,
2.302,-0.35,-1.21,0.02,0.02,0.25,0.33,
2.303,-0.35,-1.21,0.02,0.03,0.24,0.33,
2.303,-0.41,-1.14,-0.28,0.03,0.24,0.33,
2.303,-0.41,-1.14,-0.28,0.03,0.24,0.32,
2.303,-0.41,-1.14,-0.28,0.03,0.23,0.32,
2.304,-0.41,-1.14,-0.28,0.03,0.22,0.32,
2.304,-0.41,-1.14,-0.28,0.03,0.21,0.32,
2.304,-0.41,-1.14,-0.28,0.03,0.21,0.32,
2.304,-0.39,-1.08,-0.55,0.03,0.21,0.32,
2.305,-0.39,-1.08,-0.55,0.03,0.20,0.32,
2.305,-0.39,-1.08,-0.55,0.03,0.19,0.31,
2.305,-0.39,-1.08,-0.55,0.03,0.18,0.31,
2.306,-0.39,-1.08,-0.55,0.03,0.18,0.31,
2.306,-0.39,-1.08,-0.55,0.02,0.18,0.30,
2.306,-0.31,-0.95,-0.77,0.02,0.18,0.30,
2.306,-0.31,-0.95,-0.77,0.02,0.17,0.30,
2.307,-0.31,-0.95,-0.77,0.02,0.16,0.30,
2.307,-0.31,-0.95,-0.77,0.01,0.16,0.29,
2.307,-0.31,-0.95,-0.77,0.00,0.15,0.29,
2.307,-0.31,-0.95,-0.77,0.00,0.15,0.29,
2.321,-0.31,-0.88,-1.02,0.00,0.15,0.29,
2.322,-0.31,-0.88,-1.02,-0.00,0.15,0.29,
2.322,-0.31,-0.88,-1.02,-0.01,0.15,0.29,
2.322,-0.31,-0.88,-1.02,-0.02,0.14,0.28,
2.323,-0.31,-0.88,-1.02,-0.03,0.14,0.28,
2.323,-0.31,-0.88,-1.02,-0.03,0.14,0.28,
2.323,-0.29,-0.82,-1.11,-0.03,0.14,0.28,
2.323,-0.29,-0.82,-1.11,-0.04,0.13,0.27,
2.324,-0.29,-0.82,-1.11,-0.04,0.13,0.27,
2.335,-0.29,-0.82,-1.11,-0.05,0.12,0.27,
2.335,-0.29,-0.82,-1.11,-0.05,0.12,0.26,
2.336,-0.29,-0.82,-1.11,-0.06,0.12,0.26,
2.336,-0.23,-0.71,-1.09,-0.06,0.12,0.26,
2.336,-0.23,-0.71,-1.09,-0.06,0.12,0.26,
2.336,-0.23,-0.71,-1.09,-0.06,0.12,0.25,
2.336,-0.23,-0.71,-1.09,-0.06,0.11,0.25,
2.337,-0.23,-0.71,-1.09,-0.06,0.12,0.25,
2.337,-0.23,-0.71,-1.09,-0.06,0.12,0.25,
2.339,-0.18,-0.67,-1.03,-0.06,0.12,0.25,
2.339,-0.18,-0.67,-1.03,-0.06,0.11,0.24,
2.34,-0.18,-0.67,-1.03,-0.06,0.11,0.24,
2.345,-0.18,-0.67,-1.03,-0.06,0.11,0.23,
2.347,-0.18,-0.67,-1.03,-0.06,0.10,0.23,
2.348,-0.18,-0.67,-1.03,-0.06,0.10,0.23,
2.351,-0.17,-0.61,-1.01,-0.06,0.10,0.23,
2.351,-0.17,-0.61,-1.01,-0.06,0.10,0.23,
2.351,-0.17,-0.61,-1.01,-0.06,0.10,0.23,
2.354,-0.17,-0.61,-1.01,-0.05,0.09,0.23,
2.355,-0.17,-0.61,-1.01,-0.05,0.08,0.22,
2.357,-0.17,-0.61,-1.01,-0.05,0.08,0.22,
2.359,-0.18,-0.60,-0.97,-0.05,0.08,0.22,
2.359,-0.18,-0.60,-0.97,-0.05,0.08,0.22,
2.366,-0.18,-0.60,-0.97,-0.05,0.07,0.22,
2.367,-0.18,-0.60,-0.97,-0.04,0.07,0.22,
2.367,-0.18,-0.60,-0.97,-0.04,0.06,0.22,
2.368,-0.18,-0.60,-0.97,-0.04,0.06,0.22,
2.369,-0.21,-0.59,-0.98,-0.04,0.06,0.22,
2.369,-0.21,-0.59,-0.98,-0.04,0.06,0.22,
2.371,-0.21,-0.59,-0.98,-0.03,0.05,0.22,
2.375,-0.21,-0.59,-0.98,-0.02,0.04,0.22,
2.375,-0.21,-0.59,-0.98,-0.02,0.04,0.22,
2.403,-0.21,-0.59,-0.98,-0.02,0.03,0.22,
2.404,-0.18,-0.54,-0.98,-0.02,0.03,0.22,
2.404,-0.18,-0.54,-0.98,-0.01,0.03,0.22,
2.404,-0.18,-0.54,-0.98,-0.01,0.02,0.22,
2.404,-0.18,-0.54,-0.98,0.00,0.01,0.22,
2.405,-0.18,-0.54,-0.98,0.00,0.01,0.22,
2.405,-0.18,-0.54,-0.98,0.01,0.01,0.22,
2.405,-0.14,-0.50,-0.99,0.01,0.01,0.22,
2.405,-0.14,-0.50,-0.99,0.01,0.00,0.22,
2.405,-0.14,-0.50,-0.99,0.01,-0.00,0.22,
2.405,-0.14,-0.50,-0.99,0.03,-0.01,0.21,
2.406,-0.14,-0.50,-0.99,0.03,-0.02,0.21,
2.406,-0.14,-0.50,-0.99,0.03,-0.02,0.21,
2.406,-0.08,-0.45,-1.00,0.03,-0.02,0.21,
2.406,-0.08,-0.45,-1.00,0.04,-0.03,0.21,
2.406,-0.08,-0.45,-1.00,0.05,-0.04,0.20,
2.407,-0.08,-0.45,-1.00,0.06,-0.06,0.20,
2.407,-0.08,-0.45,-1.00,0.07,-0.08,0.20,
2.407,-0.08,-0.45,-1.00,0.08,-0.09,0.20,
2.413,-0.09,-0.44,-0.85,0.08,-0.09,0.20,
2.413,-0.09,-0.44,-0.85,0.10,-0.11,0.19,
2.413,-0.09,-0.44,-0.85,0.12,-0.13,0.19,
2.425,-0.09,-0.44,-0.85,0.13,-0.14,0.19,
2.427,-0.09,-0.44,-0.85,0.15,-0.15,0.19,
2.429,-0.09,-0.44,-0.85,0.16,-0.16,0.19,
2.43,-0.10,-0.37,-0.72,0.16,-0.16,0.19,
2.43,-0.10,-0.37,-0.72,0.18,-0.18,0.18,
2.431,-0.10,-0.37,-0.72,0.19,-0.19,0.18,
2.431,-0.10,-0.37,-0.72,0.21,-0.21,0.18,
2.432,-0.10,-0.37,-0.72,0.23,-0.22,0.18,
2.432,-0.10,-0.37,-0.72,0.24,-0.23,0.18,
2.433,-0.10,-0.42,-0.72,0.24,-0.23,0.18,
2.433,-0.10,-0.42,-0.72,0.25,-0.24,0.18,
2.45,-0.10,-0.42,-0.72,0.28,-0.26,0.18,
2.451,-0.10,-0.42,-0.72,0.29,-0.27,0.18,
2.451,-0.10,-0.42,-0.72,0.30,-0.29,0.18,
2.451,-0.10,-0.42,-0.72,0.32,-0.30,0.17,
2.451,-0.10,-0.44,-0.71,0.32,-0.30,0.17,
2.451,-0.10,-0.44,-0.71,0.33,-0.30,0.17,
2.451,-0.10,-0.44,-0.71,0.35,-0.31,0.17,
2.452,-0.10,-0.44,-0.71,0.37,-0.32,0.17,
2.452,-0.10,-0.44,-0.71,0.39,-0.32,0.17,
2.452,-0.10,-0.44,-0.71,0.40,-0.33,0.17,
2.452,-0.13,-0.51,-0.63,0.40,-0.33,0.17,
2.452,-0.13,-0.51,-0.63,0.42,-0.33,0.18,
2.453,-0.13,-0.51,-0.63,0.44,-0.34,0.18,
2.46,-0.13,-0.51,-0.63,0.46,-0.34,0.18,
2.46,-0.13,-0.51,-0.63,0.48,-0.34,0.18,
2.46,-0.13,-0.51,-0.63,0.50,-0.34,0.18,
2.461,-0.16,-0.55,-0.59,0.50,-0.34,0.18,
2.464,-0.16,-0.55,-0.59,0.52,-0.34,0.18,
2.464,-0.16,-0.55,-0.59,0.54,-0.34,0.19,
2.464,-0.16,-0.55,-0.59,0.57,-0.34,0.19,
2.465,-0.16,-0.55,-0.59,0.59,-0.34,0.19,
2.469,-0.16,-0.55,-0.59,0.61,-0.33,0.19,
2.469,-0.14,-0.61,-0.62,0.61,-0.33,0.19,
2.469,-0.14,-0.61,-0.62,0.64,-0.33,0.19,
2.472,-0.14,-0.61,-0.62,0.66,-0.33,0.20,
2.473,-0.14,-0.61,-0.62,0.68,-0.33,0.20,
2.477,-0.14,-0.61,-0.62,0.71,-0.33,0.20,
2.477,-0.14,-0.61,-0.62,0.73,-0.33,0.20,
2.485,-0.12,-0.67,-0.81,0.73,-0.33,0.20,
2.486,-0.12,-0.67,-0.81,0.75,-0.33,0.20,
2.486,-0.12,-0.67,-0.81,0.77,-0.33,0.20,
2.486,-0.12,-0.67,-0.81,0.79,-0.33,0.20,
2.487,-0.12,-0.67,-0.81,0.81,-0.33,0.20,
2.487,-0.12,-0.67,-0.81,0.83,-0.34,0.20,
2.49,-0.01,-0.64,-1.24,0.83,-0.34,0.20,
2.49,-0.01,-0.64,-1.24,0.85,-0.34,0.20,
2.491,-0.01,-0.64,-1.24,0.86,-0.34,0.19,
2.508,-0.01,-0.64,-1.24,0.87,-0.35,0.19,
2.509,-0.01,-0.64,-1.24,0.88,-0.35,0.19,
2.509,-0.01,-0.64,-1.24,0.88,-0.36,0.19,
2.509,0.10,-0.61,-1.85,0.88,-0.36,0.19,
2.509,0.10,-0.61,-1.85,0.89,-0.37,0.18,
2.51,0.10,-0.61,-1.85,0.89,-0.37,0.17,
2.51,0.10,-0.61,-1.85,0.89,-0.37,0.16,
2.51,0.10,-0.61,-1.85,0.89,-0.38,0.16,
2.51,0.10,-0.61,-1.85,0.89,-0.38,0.15,
2.513,0.27,-0.57,-2.41,0.89,-0.38,0.15,
2.513,0.27,-0.57,-2.41,0.88,-0.39,0.14,
2.514,0.27,-0.57,-2.41,0.88,-0.39,0.13,
2.514,0.27,-0.57,-2.41,0.87,-0.39,0.12,
2.517,0.27,-0.57,-2.41,0.86,-0.40,0.11,
2.518,0.27,-0.57,-2.41,0.86,-0.39,0.10,
2.521,0.31,-0.54,-2.80,0.86,-0.39,0.10,
2.521,0.31,-0.54,-2.80,0.85,-0.39,0.09,
2.522,0.31,-0.54,-2.80,0.84,-0.39,0.07,
2.525,0.31,-0.54,-2.80,0.83,-0.38,0.07,
2.526,0.31,-0.54,-2.80,0.82,-0.37,0.06,
2.53,0.31,-0.54,-2.80,0.81,-0.36,0.05,
2.531,0.30,-0.53,-3.16,0.81,-0.36,0.05,
2.531,0.30,-0.53,-3.16,0.80,-0.35,0.04,
2.531,0.30,-0.53,-3.16,0.78,-0.34,0.03,
2.535,0.30,-0.53,-3.16,0.77,-0.32,0.02,
2.535,0.30,-0.53,-3.16,0.75,-0.31,0.01,
2.539,0.30,-0.53,-3.16,0.74,-0.29,0.01,
2.539,0.23,-0.49,-3.46,0.74,-0.29,0.01,
2.539,0.23,-0.49,-3.46,0.72,-0.28,-0.01,
2.543,0.23,-0.49,-3.46,0.71,-0.26,-0.01,
2.547,0.23,-0.49,-3.46,0.70,-0.24,-0.02,
2.548,0.23,-0.49,-3.46,0.68,-0.23,-0.03,
2.548,0.23,-0.49,-3.46,0.67,-0.21,-0.03,
2.551,0.13,-0.41,-3.74,0.67,-0.21,-0.03,
2.552,0.13,-0.41,-3.74,0.66,-0.19,-0.04,
2.552,0.13,-0.41,-3.74,0.64,-0.17,-0.05,
2.558,0.13,-0.41,-3.74,0.62,-0.15,-0.05,
2.559,0.13,-0.41,-3.74,0.61,-0.14,-0.05,
2.559,0.13,-0.41,-3.74,0.60,-0.13,-0.06,
2.559,-0.06,-0.36,-3.98,0.60,-0.13,-0.06,
2.559,-0.06,-0.36,-3.98,0.58,-0.11,-0.06,
2.568,-0.06,-0.36,-3.98,0.57,-0.10,-0.06,
2.568,-0.06,-0.36,-3.98,0.55,-0.08,-0.06,
2.568,-0.06,-0.36,-3.98,0.54,-0.08,-0.06,
2.569,-0.06,-0.36,-3.98,0.52,-0.08,-0.06,
2.573,-0.23,-0.21,-4.24,0.52,-0.08,-0.06,
2.573,-0.23,-0.21,-4.24,0.50,-0.07,-0.06,
2.574,-0.23,-0.21,-4.24,0.48,-0.07,-0.07,
2.574,-0.23,-0.21,-4.24,0.46,-0.07,-0.07,
2.59,-0.23,-0.21,-4.24,0.43,-0.07,-0.08,
2.591,-0.23,-0.21,-4.24,0.41,-0.08,-0.08,
2.591,-0.17,-0.08,-4.48,0.41,-0.08,-0.08,
2.591,-0.17,-0.08,-4.48,0.38,-0.09,-0.09,
2.591,-0.17,-0.08,-4.48,0.36,-0.10,-0.10,
2.592,-0.17,-0.08,-4.48,0.33,-0.11,-0.10,
2.592,-0.17,-0.08,-4.48,0.31,-0.12,-0.11,
2.592,-0.17,-0.08,-4.48,0.28,-0.14,-0.12,
2.592,-0.05,0.12,-4.52,0.28,-0.14,-0.12,
2.592,-0.05,0.12,-4.52,0.25,-0.16,-0.14,
2.592,-0.05,0.12,-4.52,0.23,-0.18,-0.15,
2.626,-0.05,0.12,-4.52,0.20,-0.20,-0.16,
2.627,-0.05,0.12,-4.52,0.18,-0.23,-0.17,
2.627,-0.05,0.12,-4.52,0.15,-0.25,-0.19,
2.668,-0.07,0.26,-4.24,0.15,-0.25,-0.19,
2.669,-0.07,0.26,-4.24,0.13,-0.28,-0.20,
2.671,-0.07,0.26,-4.24,0.11,-0.30,-0.21,
2.671,-0.07,0.26,-4.24,0.07,-0.34,-0.23,
2.674,-0.07,0.26,-4.24,0.07,-0.35,-0.24,
2.675,-0.07,0.26,-4.24,0.05,-0.37,-0.25,
2.677,-0.09,0.34,-3.87,0.05,-0.37,-0.25,
2.678,-0.09,0.34,-3.87,0.03,-0.39,-0.25,
2.679,-0.09,0.34,-3.87,0.01,-0.40,-0.27,
2.68,-0.09,0.34,-3.87,-0.02,-0.42,-0.27,
2.681,-0.09,0.34,-3.87,-0.03,-0.43,-0.28,
2.681,-0.09,0.34,-3.87,-0.04,-0.44,-0.28,
2.682,-0.23,0.29,-3.32,-0.04,-0.44,-0.28,
2.682,-0.23,0.29,-3.32,-0.05,-0.45,-0.29,
2.683,-0.23,0.29,-3.32,-0.07,-0.45,-0.29,
2.683,-0.23,0.29,-3.32,-0.08,-0.45,-0.29,
2.683,-0.23,0.29,-3.32,-0.08,-0.45,-0.30,
2.684,-0.23,0.29,-3.32,-0.09,-0.44,-0.30,
2.685,-0.33,0.37,-2.72,-0.09,-0.44,-0.30,
2.685,-0.33,0.37,-2.72,-0.10,-0.43,-0.30,
2.685,-0.33,0.37,-2.72,-0.10,-0.42,-0.30,
2.686,-0.33,0.37,-2.72,-0.11,-0.41,-0.30,
2.686,-0.33,0.37,-2.72,-0.11,-0.39,-0.31,
2.687,-0.33,0.37,-2.72,-0.11,-0.38,-0.30,
2.687,-0.41,0.42,-2.24,-0.11,-0.38,-0.30,
2.687,-0.41,0.42,-2.24,-0.12,-0.35,-0.30,
2.688,-0.41,0.42,-2.24,-0.12,-0.34,-0.30,
2.688,-0.41,0.42,-2.24,-0.13,-0.30,-0.30,
2.688,-0.41,0.42,-2.24,-0.13,-0.30,-0.30,
2.688,-0.41,0.42,-2.24,-0.13,-0.28,-0.30,
2.689,-0.48,0.55,-2.04,-0.13,-0.28,-0.30,
2.689,-0.48,0.55,-2.04,-0.14,-0.26,-0.30,
2.689,-0.48,0.55,-2.04,-0.15,-0.24,-0.30,
2.689,-0.48,0.55,-2.04,-0.16,-0.22,-0.29,
2.69,-0.48,0.55,-2.04,-0.17,-0.22,-0.29,
2.69,-0.48,0.55,-2.04,-0.18,-0.21,-0.29,
2.69,-0.53,0.63,-2.01,-0.18,-0.21,-0.29,
2.69,-0.53,0.63,-2.01,-0.19,-0.20,-0.28,
2.691,-0.53,0.63,-2.01,-0.20,-0.19,-0.28,
2.691,-0.53,0.63,-2.01,-0.22,-0.18,-0.27,
2.691,-0.53,0.63,-2.01,-0.23,-0.18,-0.27,
2.691,-0.53,0.63,-2.01,-0.24,-0.18,-0.27,
2.692,-0.64,0.76,-1.96,-0.24,-0.18,-0.27,
2.692,-0.64,0.76,-1.96,-0.25,-0.18,-0.26,
2.692,-0.64,0.76,-1.96,-0.27,-0.19,-0.26,
2.692,-0.64,0.76,-1.96,-0.28,-0.20,-0.26,
2.692,-0.64,0.76,-1.96,-0.29,-0.20,-0.26,
2.693,-0.64,0.76,-1.96,-0.30,-0.21,-0.25,
2.693,-0.73,0.86,-1.60,-0.30,-0.21,-0.25,
2.693,-0.73,0.86,-1.60,-0.31,-0.22,-0.25,
2.693,-0.73,0.86,-1.60,-0.31,-0.24,-0.25,
2.694,-0.73,0.86,-1.60,-0.32,-0.26,-0.25,
2.694,-0.73,0.86,-1.60,-0.32,-0.26,-0.25,
2.694,-0.73,0.86,-1.60,-0.32,-0.27,-0.24,
2.694,-0.71,1.03,-0.99,-0.32,-0.27,-0.24,
2.694,-0.71,1.03,-0.99,-0.32,-0.28,-0.25,
2.695,-0.71,1.03,-0.99,-0.32,-0.29,-0.25,
2.695,-0.71,1.03,-0.99,-0.33,-0.30,-0.25,
2.704,-0.71,1.03,-0.99,-0.32,-0.31,-0.25,
2.704,-0.71,1.03,-0.99,-0.32,-0.31,-0.25,
2.705,-0.74,1.17,-0.28,-0.32,-0.31,-0.25,
2.705,-0.74,1.17,-0.28,-0.32,-0.31,-0.24,
2.705,-0.74,1.17,-0.28,-0.32,-0.31,-0.24,
2.705,-0.74,1.17,-0.28,-0.31,-0.32,-0.23,
2.705,-0.74,1.17,-0.28,-0.31,-0.32,-0.23,
2.718,-0.74,1.17,-0.28,-0.31,-0.32,-0.22,
2.719,-0.99,1.30,0.38,-0.31,-0.32,-0.22,
2.719,-0.99,1.30,0.38,-0.30,-0.33,-0.20,
2.719,-0.99,1.30,0.38,-0.30,-0.33,-0.19,
2.72,-0.99,1.30,0.38,-0.29,-0.35,-0.17,
2.72,-0.99,1.30,0.38,-0.29,-0.35,-0.16,
2.72,-0.99,1.30,0.38,-0.28,-0.36,-0.14,
2.739,-1.15,1.36,1.17,-0.28,-0.36,-0.14,
2.74,-1.15,1.36,1.17,-0.28,-0.38,-0.12,
2.74,-1.15,1.36,1.17,-0.27,-0.40,-0.10,
2.74,-1.15,1.36,1.17,-0.26,-0.43,-0.08,
2.74,-1.15,1.36,1.17,-0.26,-0.45,-0.07,
2.74,-1.15,1.36,1.17,-0.25,-0.47,-0.05,
2.741,-1.08,1.44,1.98,-0.25,-0.47,-0.05,
2.741,-1.08,1.44,1.98,-0.24,-0.50,-0.04,
2.741,-1.08,1.44,1.98,-0.23,-0.53,-0.02,
2.741,-1.08,1.44,1.98,-0.22,-0.58,-0.00,
2.741,-1.08,1.44,1.98,-0.22,-0.59,0.00,
2.741,-1.08,1.44,1.98,-0.21,-0.62,0.01,
2.796,-0.59,1.56,2.92,-0.21,-0.62,0.01,
2.796,-0.59,1.56,2.92,-0.21,-0.65,0.02,
2.797,-0.59,1.56,2.92,-0.20,-0.67,0.02,
2.797,-0.59,1.56,2.92,-0.19,-0.70,0.02,
2.797,-0.59,1.56,2.92,-0.19,-0.70,0.02,
2.797,-0.59,1.56,2.92,-0.18,-0.71,0.01,
2.797,0.26,1.71,3.90,-0.18,-0.71,0.01,
2.798,0.26,1.71,3.90,-0.18,-0.71,0.01,
2.798,0.26,1.71,3.90,-0.17,-0.70,-0.00,
2.798,0.26,1.71,3.90,-0.17,-0.68,-0.02,
2.798,0.26,1.71,3.90,-0.17,-0.67,-0.02,
2.798,0.26,1.71,3.90,-0.17,-0.64,-0.03,
2.798,1.00,1.80,4.72,-0.17,-0.64,-0.03,
2.799,1.00,1.80,4.72,-0.16,-0.61,-0.05,
2.799,1.00,1.80,4.72,-0.17,-0.57,-0.06,
2.799,1.00,1.80,4.72,-0.18,-0.50,-0.08,
2.817,1.00,1.80,4.72,-0.18,-0.48,-0.09,
2.817,1.00,1.80,4.72,-0.19,-0.43,-0.10,
2.817,1.47,1.82,5.17,-0.19,-0.43,-0.10,
2.818,1.47,1.82,5.17,-0.20,-0.37,-0.11,
2.818,1.47,1.82,5.17,-0.21,-0.31,-0.12,
2.818,1.47,1.82,5.17,-0.23,-0.21,-0.13,
2.818,1.47,1.82,5.17,-0.23,-0.18,-0.13,
2.818,1.47,1.82,5.17,-0.24,-0.11,-0.14,
2.818,1.55,1.87,5.41,-0.24,-0.11,-0.14,
2.819,1.55,1.87,5.41,-0.26,-0.04,-0.15,
2.819,1.55,1.87,5.41,-0.28,0.03,-0.16,
2.819,1.55,1.87,5.41,-0.31,0.14,-0.17,
2.819,1.55,1.87,5.41,-0.32,0.17,-0.17,
2.819,1.55,1.87,5.41,-0.34,0.23,-0.18,
2.819,1.48,2.08,5.37,-0.34,0.23,-0.18,
2.819,1.48,2.08,5.37,-0.37,0.28,-0.19,
2.82,1.48,2.08,5.37,-0.40,0.32,-0.20,
2.82,1.48,2.08,5.37,-0.46,0.37,-0.21,
2.82,1.48,2.08,5.37,-0.48,0.38,-0.21,
2.82,1.48,2.08,5.37,-0.52,0.39,-0.22,
2.82,1.38,2.13,5.02,-0.52,0.39,-0.22,
2.82,1.38,2.13,5.02,-0.57,0.39,-0.24,
2.821,1.38,2.13,5.02,-0.62,0.39,-0.25,
2.821,1.38,2.13,5.02,-0.69,0.36,-0.27,
2.821,1.38,2.13,5.02,-0.72,0.35,-0.28,
2.821,1.38,2.13,5.02,-0.77,0.32,-0.29,
2.821,1.42,1.91,5.00,-0.77,0.32,-0.29,
2.821,1.42,1.91,5.00,-0.82,0.29,-0.31,
2.821,1.42,1.91,5.00,-0.87,0.26,-0.33,
2.822,1.42,1.91,5.00,-0.92,0.21,-0.36,
2.822,1.42,1.91,5.00,-0.94,0.19,-0.37,
2.822,1.42,1.91,5.00,-0.97,0.15,-0.39,
2.822,1.70,1.44,5.78,-0.97,0.15,-0.39,
2.822,1.70,1.44,5.78,-1.00,0.11,-0.41,
2.822,1.70,1.44,5.78,-1.02,0.07,-0.42,
2.826,1.70,1.44,5.78,-1.05,0.01,-0.45,
2.826,1.70,1.44,5.78,-1.05,-0.01,-0.45,
2.828,1.70,1.44,5.78,-1.06,-0.06,-0.46,
2.83,1.73,0.81,6.96,-1.06,-0.06,-0.46,
2.83,1.73,0.81,6.96,-1.06,-0.10,-0.47,
2.831,1.73,0.81,6.96,-1.06,-0.14,-0.47,
2.834,1.73,0.81,6.96,-1.05,-0.19,-0.47,
2.835,1.73,0.81,6.96,-1.05,-0.20,-0.47,
2.837,1.73,0.81,6.96,-1.04,-0.22,-0.46,
2.839,1.58,0.07,7.96,-1.04,-0.22,-0.46,
2.839,1.58,0.07,7.96,-1.02,-0.24,-0.45,
2.841,1.58,0.07,7.96,-1.01,-0.24,-0.44,
2.845,1.58,0.07,7.96,-0.98,-0.23,-0.41,
2.846,1.58,0.07,7.96,-0.97,-0.22,-0.40,
2.849,1.58,0.07,7.96,-0.95,-0.19,-0.38,
2.85,1.43,-0.66,8.57,-0.95,-0.19,-0.38,
2.85,1.43,-0.66,8.57,-0.92,-0.16,-0.35,
2.85,1.43,-0.66,8.57,-0.90,-0.11,-0.33,
2.854,1.43,-0.66,8.57,-0.86,-0.03,-0.28,
2.855,1.43,-0.66,8.57,-0.84,0.00,-0.27,
2.856,1.43,-0.66,8.57,-0.81,0.06,-0.23,
2.859,1.27,-1.05,8.63,-0.81,0.06,-0.23,
2.86,1.27,-1.05,8.63,-0.78,0.12,-0.20,
2.861,1.27,-1.05,8.63,-0.74,0.19,-0.17,
2.864,1.27,-1.05,8.63,-0.68,0.29,-0.11,
2.864,1.27,-1.05,8.63,-0.66,0.32,-0.10,
2.866,1.27,-1.05,8.63,-0.61,0.38,-0.06,
2.869,1.09,-1.11,8.35,-0.61,0.38,-0.06,
2.869,1.09,-1.11,8.35,-0.56,0.44,-0.02,
2.87,1.09,-1.11,8.35,-0.52,0.49,0.01,
2.877,1.09,-1.11,8.35,-0.44,0.56,0.06,
2.878,1.09,-1.11,8.35,-0.41,0.58,0.07,
2.878,1.09,-1.11,8.35,-0.36,0.63,0.11,
2.879,0.95,-0.87,7.45,-0.36,0.63,0.11,
2.879,0.95,-0.87,7.45,-0.31,0.67,0.13,
2.881,0.95,-0.87,7.45,-0.25,0.71,0.16,
2.884,0.95,-0.87,7.45,-0.17,0.76,0.21,
2.885,0.95,-0.87,7.45,-0.14,0.78,0.22,
2.886,0.95,-0.87,7.45,-0.09,0.81,0.25,
2.892,0.87,-0.66,6.05,-0.09,0.81,0.25,
2.892,0.87,-0.66,6.05,-0.03,0.83,0.27,
2.893,0.87,-0.66,6.05,0.02,0.85,0.30,
2.91,0.87,-0.66,6.05,0.10,0.88,0.33,
2.911,0.87,-0.66,6.05,0.13,0.88,0.35,
2.911,0.87,-0.66,6.05,0.18,0.89,0.37,
2.911,0.75,-0.27,4.14,0.18,0.89,0.37,
2.911,0.75,-0.27,4.14,0.23,0.89,0.39,
2.912,0.75,-0.27,4.14,0.26,0.88,0.41,
2.912,0.75,-0.27,4.14,0.32,0.86,0.43,
2.912,0.75,-0.27,4.14,0.34,0.86,0.44,
2.912,0.75,-0.27,4.14,0.37,0.84,0.45,
2.912,0.83,0.12,1.94,0.37,0.84,0.45,
2.912,0.83,0.12,1.94,0.40,0.82,0.46,
2.913,0.83,0.12,1.94,0.42,0.80,0.47,
2.914,0.83,0.12,1.94,0.46,0.77,0.47,
2.915,0.83,0.12,1.94,0.46,0.76,0.47,
2.916,0.83,0.12,1.94,0.48,0.74,0.47,
2.921,0.90,0.42,-0.17,0.48,0.74,0.47,
2.921,0.90,0.42,-0.17,0.50,0.71,0.48,
2.922,0.90,0.42,-0.17,0.51,0.68,0.47,
2.928,0.90,0.42,-0.17,0.51,0.65,0.47,
2.929,0.90,0.42,-0.17,0.51,0.64,0.47,
2.929,0.90,0.42,-0.17,0.51,0.61,0.47,
2.929,0.83,0.59,-2.07,0.51,0.61,0.47,
2.929,0.83,0.59,-2.07,0.51,0.59,0.47,
2.958,0.83,0.59,-2.07,0.50,0.57,0.47,
2.958,0.83,0.59,-2.07,0.49,0.54,0.47,
2.959,0.83,0.59,-2.07,0.48,0.53,0.47,
2.959,0.83,0.59,-2.07,0.47,0.51,0.46,
2.959,0.65,0.65,-3.61,0.47,0.51,0.46,
2.96,0.65,0.65,-3.61,0.45,0.50,0.46,
2.96,0.65,0.65,-3.61,0.44,0.48,0.46,
2.961,0.65,0.65,-3.61,0.41,0.45,0.46,
2.961,0.65,0.65,-3.61,0.40,0.45,0.46,
2.961,0.65,0.65,-3.61,0.38,0.43,0.45,
2.962,0.55,0.71,-4.72,0.38,0.43,0.45,
2.962,0.55,0.71,-4.72,0.36,0.41,0.45,
2.963,0.55,0.71,-4.72,0.34,0.39,0.44,
2.963,0.55,0.71,-4.72,0.30,0.37,0.44,
2.964,0.55,0.71,-4.72,0.29,0.36,0.43,
2.964,0.55,0.71,-4.72,0.27,0.34,0.43,
2.964,0.43,0.64,-5.35,0.27,0.34,0.43,
2.965,0.43,0.64,-5.35,0.25,0.33,0.42,
2.965,0.43,0.64,-5.35,0.23,0.31,0.42,
2.966,0.43,0.64,-5.35,0.20,0.29,0.41,
2.966,0.43,0.64,-5.35,0.19,0.28,0.41,
2.966,0.43,0.64,-5.35,0.17,0.26,0.40,
2.976,0.42,0.66,-5.71,0.17,0.26,0.40,
2.977,0.42,0.66,-5.71,0.15,0.24,0.39,
2.977,0.42,0.66,-5.71,0.13,0.22,0.38,
2.978,0.42,0.66,-5.71,0.10,0.18,0.37,
2.978,0.42,0.66,-5.71,0.09,0.17,0.37,
2.978,0.42,0.66,-5.71,0.08,0.14,0.36,
2.98,0.37,0.54,-5.74,0.08,0.14,0.36,
2.981,0.37,0.54,-5.74,0.06,0.12,0.35,
2.981,0.37,0.54,-5.74,0.04,0.10,0.34,
2.984,0.37,0.54,-5.74,0.02,0.06,0.31,
2.984,0.37,0.54,-5.74,0.01,0.05,0.31,
2.987,0.37,0.54,-5.74,-0.00,0.03,0.30,
2.989,0.47,0.58,-5.58,-0.00,0.03,0.30,
2.989,0.47,0.58,-5.58,-0.02,0.01,0.28,
2.991,0.47,0.58,-5.58,-0.03,-0.01,0.27,
2.996,0.47,0.58,-5.58,-0.04,-0.03,0.25,
2.997,0.47,0.58,-5.58,-0.04,-0.04,0.24,
2.997,0.47,0.58,-5.58,-0.05,-0.05,0.23,
3.001,0.35,0.35,-5.20,-0.05,-0.05,0.23,
3.001,0.35,0.35,-5.20,-0.05,-0.06,0.22,
3.001,0.35,0.35,-5.20,-0.06,-0.08,0.21,
3.005,0.35,0.35,-5.20,-0.06,-0.09,0.19,
3.006,0.35,0.35,-5.20,-0.07,-0.10,0.19,
3.017,0.35,0.35,-5.20,-0.07,-0.11,0.18,
3.018,0.22,0.21,-4.77,-0.07,-0.11,0.18,
3.018,0.22,0.21,-4.77,-0.07,-0.11,0.18,
3.019,0.22,0.21,-4.77,-0.07,-0.11,0.17,
3.019,0.22,0.21,-4.77,-0.06,-0.10,0.17,
3.019,0.22,0.21,-4.77,-0.05,-0.10,0.17,
3.019,0.22,0.21,-4.77,-0.05,-0.09,0.16,
3.02,0.09,0.03,-4.26,-0.05,-0.09,0.16,
3.049,0.09,0.03,-4.26,-0.04,-0.08,0.16,
3.05,0.09,0.03,-4.26,-0.04,-0.07,0.16,
3.05,0.09,0.03,-4.26,-0.02,-0.05,0.16,
3.05,0.09,0.03,-4.26,-0.02,-0.05,0.15,
3.051,0.09,0.03,-4.26,-0.01,-0.04,0.15,
3.051,0.01,-0.09,-3.88,-0.01,-0.04,0.15,
3.051,0.01,-0.09,-3.88,-0.00,-0.02,0.14,
3.051,0.01,-0.09,-3.88,0.01,-0.01,0.14,
3.052,0.01,-0.09,-3.88,0.02,0.01,0.14,
3.052,0.01,-0.09,-3.88,0.02,0.01,0.13,
3.052,0.01,-0.09,-3.88,0.03,0.03,0.13,
3.052,-0.03,-0.25,-3.73,0.03,0.03,0.13,
3.052,-0.03,-0.25,-3.73,0.03,0.04,0.13,
3.053,-0.03,-0.25,-3.73,0.03,0.05,0.12,
3.053,-0.03,-0.25,-3.73,0.04,0.06,0.12,
3.053,-0.03,-0.25,-3.73,0.04,0.07,0.11,
3.053,-0.03,-0.25,-3.73,0.04,0.08,0.11,
3.053,-0.07,-0.33,-3.77,0.04,0.08,0.11,
3.054,-0.07,-0.33,-3.77,0.04,0.09,0.11,
3.054,-0.07,-0.33,-3.77,0.03,0.09,0.10,
3.054,-0.07,-0.33,-3.77,0.03,0.10,0.10,
3.054,-0.07,-0.33,-3.77,0.02,0.10,0.10,
3.061,-0.07,-0.33,-3.77,0.02,0.11,0.09,
3.061,-0.18,-0.48,-3.76,0.02,0.11,0.09,
3.061,-0.18,-0.48,-3.76,0.02,0.12,0.09,
3.061,-0.18,-0.48,-3.76,0.01,0.13,0.09,
3.065,-0.18,-0.48,-3.76,0.00,0.14,0.08,
3.066,-0.18,-0.48,-3.76,0.00,0.15,0.08,
3.067,-0.18,-0.48,-3.76,-0.00,0.16,0.08,
3.069,-0.23,-0.65,-3.67,-0.00,0.16,0.08,
3.069,-0.23,-0.65,-3.67,-0.01,0.17,0.07,
3.071,-0.23,-0.65,-3.67,-0.01,0.18,0.07,
3.077,-0.23,-0.65,-3.67,-0.02,0.19,0.07,
3.077,-0.23,-0.65,-3.67,-0.02,0.19,0.06,
3.078,-0.23,-0.65,-3.67,-0.02,0.20,0.06,
3.079,-0.39,-0.83,-3.43,-0.02,0.20,0.06,
3.08,-0.39,-0.83,-3.43,-0.03,0.21,0.06,
3.081,-0.39,-0.83,-3.43,-0.03,0.22,0.06,
3.084,-0.39,-0.83,-3.43,-0.03,0.23,0.07,
3.085,-0.39,-0.83,-3.43,-0.03,0.24,0.07,
3.087,-0.39,-0.83,-3.43,-0.03,0.24,0.07,
3.089,-0.62,-1.07,-3.14,-0.03,0.24,0.07,
3.09,-0.62,-1.07,-3.14,-0.02,0.24,0.08,
3.092,-0.62,-1.07,-3.14,-0.02,0.25,0.08,
3.094,-0.62,-1.07,-3.14,-0.01,0.26,0.09,
3.095,-0.62,-1.07,-3.14,-0.01,0.26,0.10,
3.097,-0.62,-1.07,-3.14,-0.00,0.26,0.11,
3.121,-0.89,-1.26,-2.83,-0.00,0.26,0.11,
3.121,-0.89,-1.26,-2.83,0.00,0.26,0.12,
3.121,-0.89,-1.26,-2.83,0.01,0.26,0.13,
3.122,-0.89,-1.26,-2.83,0.02,0.25,0.15,
3.122,-0.89,-1.26,-2.83,0.02,0.25,0.16,
3.122,-0.89,-1.26,-2.83,0.03,0.24,0.17,
3.122,-1.08,-1.46,-2.54,0.03,0.24,0.17,
3.122,-1.08,-1.46,-2.54,0.04,0.24,0.19,
3.123,-1.08,-1.46,-2.54,0.05,0.23,0.21,
3.123,-1.08,-1.46,-2.54,0.07,0.22,0.23,
3.123,-1.08,-1.46,-2.54,0.07,0.21,0.24,
3.123,-1.08,-1.46,-2.54,0.08,0.20,0.26,
3.123,-1.19,-1.60,-2.28,0.08,0.20,0.26,
3.123,-1.19,-1.60,-2.28,0.10,0.19,0.28,
3.124,-1.19,-1.60,-2.28,0.11,0.18,0.30,
3.124,-1.19,-1.60,-2.28,0.13,0.16,0.33,
3.131,-1.19,-1.60,-2.28,0.14,0.16,0.34,
3.131,-1.19,-1.60,-2.28,0.16,0.14,0.36,
3.132,-1.28,-1.76,-1.97,0.16,0.14,0.36,
3.132,-1.28,-1.76,-1.97,0.17,0.13,0.38,
3.132,-1.28,-1.76,-1.97,0.19,0.12,0.40,
3.136,-1.28,-1.76,-1.97,0.22,0.11,0.44,
3.136,-1.28,-1.76,-1.97,0.24,0.10,0.45,
3.137,-1.28,-1.76,-1.97,0.26,0.10,0.47,
3.142,-1.22,-1.79,-1.60,0.26,0.10,0.47,
3.143,-1.22,-1.79,-1.60,0.28,0.09,0.50,
3.143,-1.22,-1.79,-1.60,0.31,0.09,0.52,
3.148,-1.22,-1.79,-1.60,0.35,0.09,0.55,
3.149,-1.22,-1.79,-1.60,0.36,0.09,0.56,
3.149,-1.22,-1.79,-1.60,0.39,0.09,0.58,
3.149,-1.08,-1.71,-1.36,0.39,0.09,0.58,
3.15,-1.08,-1.71,-1.36,0.42,0.08,0.60,
3.153,-1.08,-1.71,-1.36,0.45,0.08,0.62,
3.157,-1.08,-1.71,-1.36,0.49,0.08,0.65,
3.157,-1.08,-1.71,-1.36,0.50,0.08,0.66,
3.157,-1.08,-1.71,-1.36,0.53,0.07,0.67,
3.163,-0.86,-1.58,-1.36,0.53,0.07,0.67,
3.164,-0.86,-1.58,-1.36,0.56,0.07,0.69,
3.164,-0.86,-1.58,-1.36,0.58,0.06,0.70,
3.164,-0.86,-1.58,-1.36,0.62,0.05,0.72,
3.167,-0.86,-1.58,-1.36,0.63,0.04,0.72,
3.174,-0.86,-1.58,-1.36,0.65,0.03,0.73,
3.174,-0.47,-1.44,-1.53,0.65,0.03,0.73,
3.174,-0.47,-1.44,-1.53,0.68,0.03,0.73,
3.2,-0.47,-1.44,-1.53,0.70,0.02,0.73,
3.201,-0.47,-1.44,-1.53,0.73,0.00,0.74,
3.201,-0.47,-1.44,-1.53,0.74,-0.01,0.74,
3.201,-0.47,-1.44,-1.53,0.75,-0.01,0.74,
3.201,-0.13,-1.23,-1.82,0.75,-0.01,0.74,
3.201,-0.13,-1.23,-1.82,0.78,-0.03,0.73,
3.202,-0.13,-1.23,-1.82,0.78,-0.03,0.73,
3.202,-0.13,-1.23,-1.82,0.80,-0.05,0.72,
3.202,-0.13,-1.23,-1.82,0.80,-0.06,0.72,
3.202,-0.13,-1.23,-1.82,0.81,-0.07,0.72,
3.202,0.06,-0.96,-2.27,0.81,-0.07,0.72,
3.203,0.06,-0.96,-2.27,0.81,-0.08,0.71,
3.203,0.06,-0.96,-2.27,0.81,-0.09,0.71,
3.203,0.06,-0.96,-2.27,0.81,-0.10,0.70,
3.203,0.06,-0.96,-2.27,0.81,-0.11,0.70,
3.203,0.06,-0.96,-2.27,0.80,-0.12,0.69,
3.204,0.14,-0.82,-2.59,0.80,-0.12,0.69,
3.204,0.14,-0.82,-2.59,0.80,-0.13,0.69,
3.204,0.14,-0.82,-2.59,0.79,-0.14,0.69,
3.204,0.14,-0.82,-2.59,0.78,-0.14,0.68,
3.216,0.14,-0.82,-2.59,0.77,-0.14,0.68,
3.217,0.14,-0.82,-2.59,0.77,-0.14,0.67,
3.217,0.23,-0.63,-2.67,0.77,-0.14,0.67,
3.217,0.23,-0.63,-2.67,0.76,-0.13,0.67,
3.217,0.23,-0.63,-2.67,0.75,-0.12,0.66,
3.218,0.23,-0.63,-2.67,0.74,-0.10,0.65,
3.218,0.23,-0.63,-2.67,0.73,-0.09,0.65,
3.218,0.23,-0.63,-2.67,0.72,-0.08,0.64,
3.219,0.36,-0.52,-2.68,0.72,-0.08,0.64,
3.219,0.36,-0.52,-2.68,0.70,-0.07,0.63,
3.221,0.36,-0.52,-2.68,0.69,-0.05,0.63,
3.224,0.36,-0.52,-2.68,0.66,-0.04,0.61,
3.225,0.36,-0.52,-2.68,0.65,-0.03,0.60,
3.227,0.36,-0.52,-2.68,0.63,-0.03,0.59,
3.23,0.66,-0.43,-2.84,0.63,-0.03,0.59,
3.231,0.66,-0.43,-2.84,0.61,-0.02,0.57,
3.231,0.66,-0.43,-2.84,0.58,-0.01,0.56,
3.234,0.66,-0.43,-2.84,0.55,0.00,0.52,
3.235,0.66,-0.43,-2.84,0.53,0.00,0.51,
3.237,0.66,-0.43,-2.84,0.51,0.01,0.49,
3.239,0.95,-0.35,-2.82,0.51,0.01,0.49,
3.24,0.95,-0.35,-2.82,0.49,0.02,0.47,
3.243,0.95,-0.35,-2.82,0.46,0.02,0.44,
3.244,0.95,-0.35,-2.82,0.43,0.03,0.40,
3.244,0.95,-0.35,-2.82,0.42,0.03,0.39,
3.247,0.95,-0.35,-2.82,0.39,0.03,0.36,
3.249,1.28,-0.18,-2.66,0.39,0.03,0.36,
3.25,1.28,-0.18,-2.66,0.37,0.03,0.33,
3.251,1.28,-0.18,-2.66,0.35,0.03,0.30,
3.254,1.28,-0.18,-2.66,0.31,0.02,0.25,
3.258,1.28,-0.18,-2.66,0.30,0.02,0.23,
3.258,1.28,-0.18,-2.66,0.28,0.01,0.19,
3.259,1.48,-0.15,-2.28,0.28,0.01,0.19,
3.259,1.48,-0.15,-2.28,0.26,0.01,0.15,
3.261,1.48,-0.15,-2.28,0.25,0.00,0.12,
3.265,1.48,-0.15,-2.28,0.23,-0.01,0.06,
3.29,1.48,-0.15,-2.28,0.22,-0.01,0.04,
3.291,1.48,-0.15,-2.28,0.21,-0.01,0.01,
3.291,1.57,-0.17,-1.57,0.21,-0.01,0.01,
3.292,1.57,-0.17,-1.57,0.21,-0.01,-0.02,
3.292,1.57,-0.17,-1.57,0.20,-0.01,-0.06,
3.293,1.57,-0.17,-1.57,0.20,0.00,-0.10,
3.293,1.57,-0.17,-1.57,0.19,0.01,-0.11,
3.293,1.57,-0.17,-1.57,0.19,0.02,-0.14,
3.294,1.26,-0.26,-0.76,0.19,0.02,-0.14,
3.294,1.26,-0.26,-0.76,0.19,0.03,-0.16,
3.295,1.26,-0.26,-0.76,0.19,0.05,-0.19,
3.295,1.26,-0.26,-0.76,0.19,0.07,-0.21,
3.295,1.26,-0.26,-0.76,0.19,0.08,-0.22,
3.296,1.26,-0.26,-0.76,0.18,0.10,-0.23,
3.296,0.78,-0.34,-0.28,0.18,0.10,-0.23,
3.297,0.78,-0.34,-0.28,0.17,0.13,-0.25,
3.297,0.78,-0.34,-0.28,0.16,0.15,-0.26,
3.298,0.78,-0.34,-0.28,0.14,0.18,-0.27,
3.298,0.78,-0.34,-0.28,0.13,0.18,-0.28,
3.298,0.78,-0.34,-0.28,0.11,0.19,-0.28,
3.299,0.23,-0.37,-0.23,0.11,0.19,-0.28,
3.299,0.23,-0.37,-0.23,0.09,0.19,-0.29,
3.303,0.23,-0.37,-0.23,0.06,0.18,-0.30,
3.305,0.23,-0.37,-0.23,0.02,0.16,-0.30,
3.305,0.23,-0.37,-0.23,-0.01,0.14,-0.30,
3.307,0.23,-0.37,-0.23,-0.02,0.13,-0.30,
3.31,-0.25,-0.49,0.10,-0.02,0.13,-0.30,
3.31,-0.25,-0.49,0.10,-0.05,0.11,-0.30,
3.311,-0.25,-0.49,0.10,-0.08,0.08,-0.30,
3.314,-0.25,-0.49,0.10,-0.13,0.04,-0.30,
3.315,-0.25,-0.49,0.10,-0.14,0.03,-0.30,
3.317,-0.25,-0.49,0.10,-0.17,-0.00,-0.29,
3.319,-0.66,-0.54,0.95,-0.17,-0.00,-0.29,
3.319,-0.66,-0.54,0.95,-0.19,-0.03,-0.28,
3.32,-0.66,-0.54,0.95,-0.22,-0.07,-0.28,
3.329,-0.66,-0.54,0.95,-0.27,-0.12,-0.27,
3.329,-0.66,-0.54,0.95,-0.28,-0.14,-0.26,
3.329,-0.66,-0.54,0.95,-0.31,-0.18,-0.26,
3.336,-0.90,-0.57,2.10,-0.31,-0.18,-0.26,
3.337,-0.90,-0.57,2.10,-0.33,-0.21,-0.25,
3.337,-0.90,-0.57,2.10,-0.36,-0.24,-0.24,
3.348,-0.90,-0.57,2.10,-0.38,-0.28,-0.23,
3.349,-0.90,-0.57,2.10,-0.39,-0.30,-0.23,
3.349,-0.90,-0.57,2.10,-0.40,-0.32,-0.22,
3.349,-1.00,-0.29,3.58,-0.40,-0.32,-0.22,
3.354,-1.00,-0.29,3.58,-0.41,-0.35,-0.22,
3.354,-1.00,-0.29,3.58,-0.42,-0.38,-0.21,
3.354,-1.00,-0.29,3.58,-0.43,-0.42,-0.20,
3.355,-1.00,-0.29,3.58,-0.43,-0.43,-0.20,
3.355,-1.00,-0.29,3.58,-0.44,-0.45,-0.19,
3.355,-1.06,0.02,4.90,-0.44,-0.45,-0.19,
3.355,-1.06,0.02,4.90,-0.45,-0.48,-0.18,
3.356,-1.06,0.02,4.90,-0.46,-0.51,-0.17,
3.356,-1.06,0.02,4.90,-0.49,-0.56,-0.16,
3.356,-1.06,0.02,4.90,-0.50,-0.57,-0.16,
3.359,-1.06,0.02,4.90,-0.53,-0.61,-0.15,
3.36,-0.77,0.21,5.46,-0.53,-0.61,-0.15,
3.361,-0.77,0.21,5.46,-0.56,-0.64,-0.15,
3.362,-0.77,0.21,5.46,-0.60,-0.67,-0.15,
3.364,-0.77,0.21,5.46,-0.67,-0.72,-0.15,
3.365,-0.77,0.21,5.46,-0.69,-0.73,-0.15,
3.366,-0.77,0.21,5.46,-0.74,-0.74,-0.16,
3.369,-0.18,0.25,5.72,-0.74,-0.74,-0.16,
3.37,-0.18,0.25,5.72,-0.79,-0.76,-0.17,
3.375,-0.18,0.25,5.72,-0.84,-0.77,-0.18,
3.376,-0.18,0.25,5.72,-0.92,-0.78,-0.20,
3.376,-0.18,0.25,5.72,-0.95,-0.78,-0.20,
3.377,-0.18,0.25,5.72,-1.00,-0.78,-0.21,
3.379,0.33,0.35,6.28,-1.00,-0.78,-0.21,
3.379,0.33,0.35,6.28,-1.06,-0.77,-0.23,
3.381,0.33,0.35,6.28,-1.11,-0.76,-0.24,
3.384,0.33,0.35,6.28,-1.18,-0.74,-0.26,
3.385,0.33,0.35,6.28,-1.20,-0.73,-0.26,
3.387,0.33,0.35,6.28,-1.25,-0.70,-0.27,
3.39,0.76,0.28,7.10,-1.25,-0.70,-0.27,
3.391,0.76,0.28,7.10,-1.30,-0.67,-0.29,
3.392,0.76,0.28,7.10,-1.34,-0.63,-0.30,
3.395,0.76,0.28,7.10,-1.40,-0.56,-0.32,
3.395,0.76,0.28,7.10,-1.42,-0.54,-0.32,
3.397,0.76,0.28,7.10,-1.45,-0.49,-0.33,
3.401,1.14,0.13,7.94,-1.45,-0.49,-0.33,
3.402,1.14,0.13,7.94,-1.49,-0.43,-0.35,
3.402,1.14,0.13,7.94,-1.52,-0.36,-0.36,
3.406,1.14,0.13,7.94,-1.56,-0.27,-0.37,
3.407,1.14,0.13,7.94,-1.57,-0.23,-0.38,
3.407,1.14,0.13,7.94,-1.59,-0.16,-0.39,
3.409,1.21,-0.18,8.66,-1.59,-0.16,-0.39,
3.409,1.21,-0.18,8.66,-1.61,-0.10,-0.39,
3.411,1.21,-0.18,8.66,-1.61,-0.03,-0.40,
3.414,1.21,-0.18,8.66,-1.62,0.07,-0.40,
3.416,1.21,-0.18,8.66,-1.62,0.11,-0.39,
3.417,1.21,-0.18,8.66,-1.62,0.17,-0.39,
3.422,0.80,-0.29,9.18,-1.62,0.17,-0.39,
3.422,0.80,-0.29,9.18,-1.61,0.23,-0.38,
3.422,0.80,-0.29,9.18,-1.60,0.29,-0.37,
3.424,0.80,-0.29,9.18,-1.58,0.36,-0.35,
3.425,0.80,-0.29,9.18,-1.57,0.38,-0.35,
3.427,0.80,-0.29,9.18,-1.55,0.42,-0.33,
3.429,0.21,-0.27,9.12,-1.55,0.42,-0.33,
3.43,0.21,-0.27,9.12,-1.54,0.45,-0.32,
3.442,0.21,-0.27,9.12,-1.52,0.48,-0.30,
3.442,0.21,-0.27,9.12,-1.48,0.51,-0.27,
3.442,0.21,-0.27,9.12,-1.47,0.51,-0.27,
3.442,0.21,-0.27,9.12,-1.45,0.52,-0.25,
3.442,-0.23,-0.05,8.40,-1.45,0.52,-0.25,
3.442,-0.23,-0.05,8.40,-1.43,0.53,-0.23,
3.443,-0.23,-0.05,8.40,-1.40,0.54,-0.21,
3.447,-0.23,-0.05,8.40,-1.37,0.53,-0.18,
3.448,-0.23,-0.05,8.40,-1.35,0.53,-0.16,
3.448,-0.23,-0.05,8.40,-1.32,0.53,-0.14,
3.449,-0.52,0.18,7.44,-1.32,0.53,-0.14,
3.449,-0.52,0.18,7.44,-1.29,0.52,-0.12,
3.45,-0.52,0.18,7.44,-1.25,0.51,-0.10,
3.466,-0.52,0.18,7.44,-1.20,0.49,-0.07,
3.466,-0.52,0.18,7.44,-1.19,0.49,-0.06,
3.466,-0.52,0.18,7.44,-1.15,0.48,-0.04,
3.466,-0.52,0.51,6.35,-1.15,0.48,-0.04,
3.467,-0.52,0.51,6.35,-1.11,0.46,-0.02,
3.467,-0.52,0.51,6.35,-1.08,0.45,0.00,
3.467,-0.52,0.51,6.35,-1.02,0.43,0.03,
3.467,-0.52,0.51,6.35,-1.00,0.43,0.04,
3.467,-0.52,0.51,6.35,-0.96,0.42,0.05,
3.469,-0.37,0.84,5.09,-0.96,0.42,0.05,
3.469,-0.37,0.84,5.09,-0.93,0.41,0.06,
3.471,-0.37,0.84,5.09,-0.89,0.40,0.08,
3.48,-0.37,0.84,5.09,-0.84,0.40,0.10,
3.48,-0.37,0.84,5.09,-0.82,0.40,0.10,
3.48,-0.37,0.84,5.09,-0.80,0.39,0.11,
3.48,-0.20,1.19,3.53,-0.80,0.39,0.11,
3.48,-0.20,1.19,3.53,-0.77,0.39,0.12,
3.484,-0.20,1.19,3.53,-0.74,0.39,0.13,
3.484,-0.20,1.19,3.53,-0.71,0.38,0.15,
3.485,-0.20,1.19,3.53,-0.70,0.37,0.15,
3.487,-0.20,1.19,3.53,-0.68,0.36,0.16,
3.489,-0.12,1.45,1.81,-0.68,0.36,0.16,
3.489,-0.12,1.45,1.81,-0.66,0.35,0.16,
3.49,-0.12,1.45,1.81,-0.65,0.34,0.17,
3.494,-0.12,1.45,1.81,-0.62,0.32,0.18,
3.494,-0.12,1.45,1.81,-0.62,0.31,0.18,
3.496,-0.12,1.45,1.81,-0.61,0.29,0.18,
3.499,-0.11,1.65,0.30,-0.61,0.29,0.18,
3.499,-0.11,1.65,0.30,-0.60,0.27,0.19,
3.5,-0.11,1.65,0.30,-0.59,0.26,0.19,
3.503,-0.11,1.65,0.30,-0.57,0.23,0.20,
3.504,-0.11,1.65,0.30,-0.57,0.22,0.20,
3.507,-0.11,1.65,0.30,-0.56,0.20,0.21,
3.509,-0.12,1.81,-0.91,-0.56,0.20,0.21,
3.509,-0.12,1.81,-0.91,-0.55,0.18,0.21,
3.512,-0.12,1.81,-0.91,-0.54,0.16,0.21,
3.514,-0.12,1.81,-0.91,-0.53,0.13,0.21,
3.516,-0.12,1.81,-0.91,-0.52,0.12,0.21,
3.517,-0.12,1.81,-0.91,-0.51,0.11,0.21,
3.519,-0.17,1.78,-1.74,-0.51,0.11,0.21,
3.519,-0.17,1.78,-1.74,-0.50,0.09,0.21,
3.52,-0.17,1.78,-1.74,-0.49,0.08,0.21,
3.523,-0.17,1.78,-1.74,-0.48,0.06,0.21,
3.524,-0.17,1.78,-1.74,-0.47,0.06,0.22,
3.527,-0.17,1.78,-1.74,-0.46,0.05,0.22,
3.528,-0.34,1.73,-2.38,-0.46,0.05,0.22,
3.529,-0.34,1.73,-2.38,-0.45,0.04,0.22,
3.53,-0.34,1.73,-2.38,-0.44,0.04,0.23,
3.533,-0.34,1.73,-2.38,-0.42,0.04,0.23,
3.534,-0.34,1.73,-2.38,-0.42,0.04,0.24,
3.537,-0.34,1.73,-2.38,-0.41,0.04,0.24,
3.54,-0.61,1.50,-2.85,-0.41,0.04,0.24,
3.54,-0.61,1.50,-2.85,-0.40,0.04,0.25,
3.541,-0.61,1.50,-2.85,-0.38,0.04,0.25,
3.545,-0.61,1.50,-2.85,-0.36,0.05,0.27,
3.546,-0.61,1.50,-2.85,-0.35,0.05,0.27,
3.547,-0.61,1.50,-2.85,-0.34,0.06,0.28,
3.549,-0.89,1.31,-3.24,-0.34,0.06,0.28,
3.549,-0.89,1.31,-3.24,-0.33,0.06,0.29,
3.55,-0.89,1.31,-3.24,-0.31,0.06,0.30,
3.554,-0.89,1.31,-3.24,-0.29,0.07,0.32,
3.555,-0.89,1.31,-3.24,-0.28,0.07,0.32,
3.557,-0.89,1.31,-3.24,-0.26,0.07,0.34,
3.559,-1.13,1.06,-3.56,-0.26,0.07,0.34,
3.559,-1.13,1.06,-3.56,-0.25,0.07,0.35,
3.56,-1.13,1.06,-3.56,-0.22,0.07,0.36,
3.564,-1.13,1.06,-3.56,-0.20,0.07,0.38,
3.565,-1.13,1.06,-3.56,-0.19,0.07,0.38,
3.566,-1.13,1.06,-3.56,-0.16,0.06,0.40,
3.578,-1.30,0.99,-3.77,-0.16,0.06,0.40,
3.579,-1.30,0.99,-3.77,-0.14,0.05,0.41,
3.58,-1.30,0.99,-3.77,-0.12,0.05,0.42,
3.58,-1.30,0.99,-3.77,-0.08,0.03,0.44,
3.581,-1.30,0.99,-3.77,-0.07,0.02,0.45,
3.581,-1.30,0.99,-3.77,-0.04,0.01,0.46,
3.584,-1.33,0.81,-3.95,-0.04,0.01,0.46,
3.584,-1.33,0.81,-3.95,-0.02,-0.00,0.47,
3.584,-1.33,0.81,-3.95,-0.00,-0.02,0.49,
3.585,-1.33,0.81,-3.95,0.04,-0.05,0.51,
3.585,-1.33,0.81,-3.95,0.05,-0.06,0.51,
3.595,-1.33,0.81,-3.95,0.07,-0.09,0.52,
3.596,-1.31,0.77,-4.06,0.07,-0.09,0.52,
3.597,-1.31,0.77,-4.06,0.10,-0.11,0.53,
3.598,-1.31,0.77,-4.06,0.12,-0.13,0.54,
3.598,-1.31,0.77,-4.06,0.16,-0.18,0.56,
3.599,-1.31,0.77,-4.06,0.17,-0.19,0.56,
3.6,-1.31,0.77,-4.06,0.20,-0.22,0.57,
3.622,-1.19,0.65,-4.07,0.20,-0.22,0.57,
3.622,-1.19,0.65,-4.07,0.23,-0.24,0.58,
3.622,-1.19,0.65,-4.07,0.25,-0.27,0.59,
3.622,-1.19,0.65,-4.07,0.29,-0.31,0.60,
3.623,-1.19,0.65,-4.07,0.30,-0.32,0.60,
3.623,-1.19,0.65,-4.07,0.33,-0.35,0.61,
3.623,-1.20,0.57,-3.98,0.33,-0.35,0.61,
3.623,-1.20,0.57,-3.98,0.35,-0.37,0.62,
3.623,-1.20,0.57,-3.98,0.38,-0.39,0.63,
3.624,-1.20,0.57,-3.98,0.43,-0.42,0.64,
3.624,-1.20,0.57,-3.98,0.44,-0.42,0.64,
3.624,-1.20,0.57,-3.98,0.48,-0.44,0.65,
3.624,-1.15,0.39,-3.74,0.48,-0.44,0.65,
3.625,-1.15,0.39,-3.74,0.51,-0.45,0.66,
3.625,-1.15,0.39,-3.74,0.55,-0.46,0.67,
3.625,-1.15,0.39,-3.74,0.61,-0.48,0.69,
3.625,-1.15,0.39,-3.74,0.62,-0.48,0.69,
3.63,-1.15,0.39,-3.74,0.66,-0.50,0.70,
3.63,-1.17,0.25,-3.49,0.66,-0.50,0.70,
3.63,-1.17,0.25,-3.49,0.70,-0.51,0.71,
3.63,-1.17,0.25,-3.49,0.74,-0.52,0.72,
3.634,-1.17,0.25,-3.49,0.80,-0.53,0.73,
3.634,-1.17,0.25,-3.49,0.82,-0.53,0.73,
3.637,-1.17,0.25,-3.49,0.85,-0.53,0.74,
3.639,-1.15,0.08,-3.45,0.85,-0.53,0.74,
3.639,-1.15,0.08,-3.45,0.89,-0.53,0.75,
3.64,-1.15,0.08,-3.45,0.92,-0.53,0.76,
3.645,-1.15,0.08,-3.45,0.97,-0.52,0.77,
3.645,-1.15,0.08,-3.45,0.99,-0.52,0.77,
3.647,-1.15,0.08,-3.45,1.02,-0.52,0.78,
3.649,-1.14,-0.10,-3.63,1.02,-0.52,0.78,
3.649,-1.14,-0.10,-3.63,1.05,-0.51,0.79,
3.65,-1.14,-0.10,-3.63,1.07,-0.51,0.79,
3.654,-1.14,-0.10,-3.63,1.12,-0.51,0.80,
3.656,-1.14,-0.10,-3.63,1.13,-0.51,0.80,
3.657,-1.14,-0.10,-3.63,1.14,-0.50,0.80,
3.659,-0.99,-0.19,-3.97,1.14,-0.50,0.80,
3.659,-0.99,-0.19,-3.97,1.16,-0.50,0.80,
3.66,-0.99,-0.19,-3.97,1.17,-0.50,0.80,
3.663,-0.99,-0.19,-3.97,1.19,-0.50,0.79,
3.664,-0.99,-0.19,-3.97,1.20,-0.50,0.79,
3.667,-0.99,-0.19,-3.97,1.21,-0.50,0.78,
3.669,-0.77,-0.19,-4.31,1.21,-0.50,0.78,
3.67,-0.77,-0.19,-4.31,1.22,-0.50,0.77,
3.673,-0.77,-0.19,-4.31,1.23,-0.50,0.76,
3.677,-0.77,-0.19,-4.31,1.24,-0.51,0.75,
3.678,-0.77,-0.19,-4.31,1.24,-0.51,0.74,
3.684,-0.77,-0.19,-4.31,1.25,-0.51,0.73,
3.684,-0.63,-0.25,-4.40,1.25,-0.51,0.73,
3.685,-0.63,-0.25,-4.40,1.25,-0.50,0.71,
3.685,-0.63,-0.25,-4.40,1.25,-0.50,0.70,
3.688,-0.63,-0.25,-4.40,1.26,-0.48,0.67,
3.689,-0.63,-0.25,-4.40,1.26,-0.48,0.67,
3.689,-0.63,-0.25,-4.40,1.26,-0.48,0.65,
3.689,-0.56,-0.26,-4.49,1.26,-0.48,0.65,
3.689,-0.56,-0.26,-4.49,1.25,-0.47,0.64,
3.694,-0.56,-0.26,-4.49,1.24,-0.45,0.62,
3.694,-0.56,-0.26,-4.49,1.23,-0.43,0.59,
3.695,-0.56,-0.26,-4.49,1.23,-0.43,0.59,
3.699,-0.56,-0.26,-4.49,1.22,-0.41,0.57,
3.703,-0.59,-0.34,-4.51,1.22,-0.41,0.57,
3.703,-0.59,-0.34,-4.51,1.20,-0.39,0.55,
3.703,-0.59,-0.34,-4.51,1.20,-0.38,0.53,
3.711,-0.59,-0.34,-4.51,1.17,-0.36,0.50,
3.712,-0.59,-0.34,-4.51,1.17,-0.35,0.49,
3.712,-0.59,-0.34,-4.51,1.15,-0.33,0.46,
3.712,-0.72,-0.30,-4.44,1.15,-0.33,0.46,
3.713,-0.72,-0.30,-4.44,1.14,-0.31,0.45,
3.713,-0.72,-0.30,-4.44,1.13,-0.29,0.43,
3.714,-0.72,-0.30,-4.44,1.10,-0.27,0.40,
3.717,-0.72,-0.30,-4.44,1.10,-0.26,0.39,
3.717,-0.72,-0.30,-4.44,1.08,-0.24,0.37,
3.721,-0.94,-0.33,-4.28,1.08,-0.24,0.37,
3.721,-0.94,-0.33,-4.28,1.07,-0.22,0.36,
3.721,-0.94,-0.33,-4.28,1.06,-0.20,0.34,
3.744,-0.94,-0.33,-4.28,1.03,-0.18,0.32,
3.745,-0.94,-0.33,-4.28,1.02,-0.18,0.31,
3.745,-0.94,-0.33,-4.28,1.01,-0.17,0.30,
3.745,-1.21,-0.26,-4.09,1.01,-0.17,0.30,
3.746,-1.21,-0.26,-4.09,0.99,-0.15,0.29,
3.746,-1.21,-0.26,-4.09,0.98,-0.14,0.27,
3.746,-1.21,-0.26,-4.09,0.95,-0.13,0.25,
3.746,-1.21,-0.26,-4.09,0.94,-0.12,0.24,
3.746,-1.21,-0.26,-4.09,0.93,-0.12,0.22,
3.746,-1.28,-0.15,-3.90,0.93,-0.12,0.22,
3.747,-1.28,-0.15,-3.90,0.91,-0.11,0.20,
3.747,-1.28,-0.15,-3.90,0.89,-0.11,0.18,
3.747,-1.28,-0.15,-3.90,0.85,-0.11,0.15,
3.747,-1.28,-0.15,-3.90,0.84,-0.10,0.14,
3.747,-1.28,-0.15,-3.90,0.81,-0.10,0.12,
3.75,-1.18,-0.06,-3.71,0.81,-0.10,0.12,
3.75,-1.18,-0.06,-3.71,0.79,-0.10,0.10,
3.75,-1.18,-0.06,-3.71,0.77,-0.10,0.07,
3.763,-1.18,-0.06,-3.71,0.73,-0.10,0.03,
3.765,-1.18,-0.06,-3.71,0.71,-0.10,0.02,
3.766,-1.18,-0.06,-3.71,0.69,-0.10,-0.01,
3.766,-0.92,-0.09,-3.29,0.69,-0.10,-0.01,
3.767,-0.92,-0.09,-3.29,0.67,-0.11,-0.04,
3.768,-0.92,-0.09,-3.29,0.64,-0.11,-0.07,
3.769,-0.92,-0.09,-3.29,0.60,-0.14,-0.12,
3.798,-0.92,-0.09,-3.29,0.59,-0.14,-0.14,
3.798,-0.92,-0.09,-3.29,0.56,-0.16,-0.17,
3.798,-0.50,-0.11,-2.67,0.56,-0.16,-0.17,
3.798,-0.50,-0.11,-2.67,0.54,-0.18,-0.21,
3.799,-0.50,-0.11,-2.67,0.51,-0.20,-0.25,
3.799,-0.50,-0.11,-2.67,0.48,-0.24,-0.32,
3.799,-0.50,-0.11,-2.67,0.47,-0.25,-0.34,
3.799,-0.50,-0.11,-2.67,0.45,-0.28,-0.39,
3.8,0.03,-0.19,-1.63,0.45,-0.28,-0.39,
3.8,0.03,-0.19,-1.63,0.44,-0.30,-0.43,
3.8,0.03,-0.19,-1.63,0.43,-0.32,-0.48,
3.8,0.03,-0.19,-1.63,0.41,-0.34,-0.56,
3.8,0.03,-0.19,-1.63,0.40,-0.35,-0.58,
3.801,0.03,-0.19,-1.63,0.40,-0.36,-0.63,
3.801,0.37,-0.26,-0.31,0.40,-0.36,-0.63,
3.801,0.37,-0.26,-0.31,0.39,-0.36,-0.68,
3.801,0.37,-0.26,-0.31,0.38,-0.37,-0.73,
3.801,0.37,-0.26,-0.31,0.37,-0.35,-0.79,
3.801,0.37,-0.26,-0.31,0.37,-0.35,-0.81,
3.802,0.37,-0.26,-0.31,0.36,-0.32,-0.84,
3.802,0.07,-0.52,0.84,0.36,-0.32,-0.84,
3.802,0.07,-0.52,0.84,0.35,-0.30,-0.88,
3.802,0.07,-0.52,0.84,0.34,-0.26,-0.90,
3.807,0.07,-0.52,0.84,0.33,-0.21,-0.93,
3.808,0.07,-0.52,0.84,0.33,-0.19,-0.93,
3.808,0.07,-0.52,0.84,0.31,-0.14,-0.94,
3.809,-0.62,-0.81,1.62,0.31,-0.14,-0.94,
3.809,-0.62,-0.81,1.62,0.30,-0.09,-0.95,
3.811,-0.62,-0.81,1.62,0.29,-0.04,-0.95,
3.814,-0.62,-0.81,1.62,0.26,0.03,-0.94,
3.815,-0.62,-0.81,1.62,0.25,0.06,-0.94,
3.816,-0.62,-0.81,1.62,0.23,0.11,-0.93,
3.819,-1.22,-0.91,2.01,0.23,0.11,-0.93,
3.819,-1.22,-0.91,2.01,0.21,0.17,-0.92,
3.822,-1.22,-0.91,2.01,0.18,0.22,-0.91,
3.824,-1.22,-0.91,2.01,0.13,0.29,-0.89,
3.825,-1.22,-0.91,2.01,0.12,0.32,-0.88,
3.827,-1.22,-0.91,2.01,0.07,0.36,-0.86,
3.829,-1.60,-0.81,2.05,0.07,0.36,-0.86,
3.829,-1.60,-0.81,2.05,0.03,0.39,-0.85,
3.83,-1.60,-0.81,2.05,-0.01,0.42,-0.83,
3.833,-1.60,-0.81,2.05,-0.09,0.43,-0.81,
3.835,-1.60,-0.81,2.05,-0.12,0.44,-0.81,
3.837,-1.60,-0.81,2.05,-0.18,0.44,-0.80,
3.84,-1.39,-0.36,1.92,-0.18,0.44,-0.80,
3.84,-1.39,-0.36,1.92,-0.25,0.43,-0.80,
3.841,-1.39,-0.36,1.92,-0.31,0.41,-0.79,
3.844,-1.39,-0.36,1.92,-0.42,0.37,-0.80,
3.845,-1.39,-0.36,1.92,-0.45,0.35,-0.80,
3.847,-1.39,-0.36,1.92,-0.52,0.32,-0.81,
3.85,-0.60,0.15,2.35,-0.52,0.32,-0.81,
3.85,-0.60,0.15,2.35,-0.59,0.27,-0.82,
3.851,-0.60,0.15,2.35,-0.66,0.22,-0.84,
3.865,-0.60,0.15,2.35,-0.77,0.15,-0.88,
3.865,-0.60,0.15,2.35,-0.80,0.12,-0.89,
3.865,-0.60,0.15,2.35,-0.85,0.08,-0.92,
3.865,0.42,0.55,3.88,-0.85,0.08,-0.92,
3.866,0.42,0.55,3.88,-0.91,0.04,-0.95,
3.866,0.42,0.55,3.88,-0.95,0.01,-0.98,
3.866,0.42,0.55,3.88,-1.01,-0.04,-1.02,
3.866,0.42,0.55,3.88,-1.03,-0.05,-1.03,
3.866,0.42,0.55,3.88,-1.07,-0.07,-1.05,
3.888,1.03,0.52,6.00,-1.07,-0.07,-1.05,
3.889,1.03,0.52,6.00,-1.10,-0.09,-1.08,
3.889,1.03,0.52,6.00,-1.12,-0.10,-1.10,
3.889,1.03,0.52,6.00,-1.15,-0.11,-1.12,
3.889,1.03,0.52,6.00,-1.16,-0.11,-1.13,
3.889,1.03,0.52,6.00,-1.18,-0.10,-1.14,
3.89,1.20,0.22,7.94,-1.18,-0.10,-1.14,
3.89,1.20,0.22,7.94,-1.19,-0.08,-1.15,
3.89,1.20,0.22,7.94,-1.20,-0.06,-1.15,
3.89,1.20,0.22,7.94,-1.21,-0.02,-1.16,
3.89,1.20,0.22,7.94,-1.22,-0.01,-1.16,
3.891,1.20,0.22,7.94,-1.22,0.03,-1.15,
3.891,1.13,-0.33,9.44,-1.22,0.03,-1.15,
3.891,1.13,-0.33,9.44,-1.23,0.08,-1.15,
3.891,1.13,-0.33,9.44,-1.23,0.12,-1.14,
3.894,1.13,-0.33,9.44,-1.23,0.21,-1.11,
3.895,1.13,-0.33,9.44,-1.23,0.24,-1.10,
3.897,1.13,-0.33,9.44,-1.23,0.30,-1.07,
3.899,0.77,-0.95,10.48,-1.23,0.30,-1.07,
3.9,0.77,-0.95,10.48,-1.23,0.36,-1.04,
3.901,0.77,-0.95,10.48,-1.22,0.43,-1.00,
3.91,0.77,-0.95,10.48,-1.21,0.53,-0.93,
3.91,0.77,-0.95,10.48,-1.21,0.56,-0.91,
3.911,0.77,-0.95,10.48,-1.20,0.63,-0.85,
3.911,0.20,-1.56,11.04,-1.20,0.63,-0.85,
3.912,0.20,-1.56,11.04,-1.19,0.69,-0.79,
3.912,0.20,-1.56,11.04,-1.18,0.75,-0.73,
3.914,0.20,-1.56,11.04,-1.17,0.84,-0.63,
3.915,0.20,-1.56,11.04,-1.16,0.87,-0.60,
3.917,0.20,-1.56,11.04,-1.16,0.92,-0.53,
3.921,0.10,-1.78,10.94,-1.16,0.92,-0.53,
3.922,0.10,-1.78,10.94,-1.15,0.97,-0.47,
3.922,0.10,-1.78,10.94,-1.14,1.00,-0.41,
3.924,0.10,-1.78,10.94,-1.13,1.04,-0.33,
3.926,0.10,-1.78,10.94,-1.13,1.05,-0.31,
3.928,0.10,-1.78,10.94,-1.12,1.06,-0.26,
3.93,0.75,-1.75,10.46,-1.12,1.06,-0.26,
3.931,0.75,-1.75,10.46,-1.11,1.07,-0.22,
3.96,0.75,-1.75,10.46,-1.10,1.07,-0.17,
3.96,0.75,-1.75,10.46,-1.08,1.07,-0.12,
3.96,0.75,-1.75,10.46,-1.07,1.07,-0.10,
3.961,0.75,-1.75,10.46,-1.05,1.07,-0.07,
3.961,1.62,-1.53,9.86,-1.05,1.07,-0.07,
3.962,1.62,-1.53,9.86,-1.04,1.06,-0.04,
3.962,1.62,-1.53,9.86,-1.02,1.05,-0.01,
3.963,1.62,-1.53,9.86,-0.98,1.02,0.03,
3.963,1.62,-1.53,9.86,-0.97,1.01,0.05,
3.964,1.62,-1.53,9.86,-0.94,0.99,0.07,
3.964,2.31,-1.29,9.20,-0.94,0.99,0.07,
3.965,2.31,-1.29,9.20,-0.91,0.97,0.09,
3.965,2.31,-1.29,9.20,-0.88,0.94,0.11,
3.965,2.31,-1.29,9.20,-0.83,0.90,0.14,
3.966,2.31,-1.29,9.20,-0.80,0.87,0.16,
3.966,2.31,-1.29,9.20,-0.79,0.85,0.18,
3.967,2.70,-0.91,8.37,-0.79,0.85,0.18,
3.967,2.70,-0.91,8.37,-0.75,0.82,0.19,
3.968,2.70,-0.91,8.37,-0.72,0.78,0.21,
3.968,2.70,-0.91,8.37,-0.67,0.73,0.24,
3.968,2.70,-0.91,8.37,-0.65,0.71,0.25,
3.969,2.70,-0.91,8.37,-0.62,0.67,0.26,
3.969,3.08,-0.68,7.35,-0.62,0.67,0.26,
3.969,3.08,-0.68,7.35,-0.59,0.63,0.27,
3.977,3.08,-0.68,7.35,-0.56,0.60,0.28,
3.977,3.08,-0.68,7.35,-0.50,0.55,0.30,
3.978,3.08,-0.68,7.35,-0.49,0.53,0.31,
3.978,3.08,-0.68,7.35,-0.46,0.51,0.32,
3.979,3.10,-0.42,6.34,-0.46,0.51,0.32,
3.979,3.10,-0.42,6.34,-0.42,0.49,0.33,
3.98,3.10,-0.42,6.34,-0.38,0.47,0.34,
3.986,3.10,-0.42,6.34,-0.33,0.45,0.36,
3.986,3.10,-0.42,6.34,-0.32,0.44,0.36,
3.987,3.10,-0.42,6.34,-0.28,0.43,0.38,
3.989,3.01,-0.27,5.33,-0.28,0.43,0.38,
3.989,3.01,-0.27,5.33,-0.24,0.42,0.39,
3.991,3.01,-0.27,5.33,-0.21,0.42,0.40,
3.994,3.01,-0.27,5.33,-0.15,0.42,0.42,
3.995,3.01,-0.27,5.33,-0.13,0.42,0.43,
3.997,3.01,-0.27,5.33,-0.09,0.43,0.45,
3.999,2.75,-0.19,4.36,-0.09,0.43,0.45,
3.999,2.75,-0.19,4.36,-0.04,0.45,0.46,
4.0,2.75,-0.19,4.36,0.00,0.46,0.48,
4.008,2.75,-0.19,4.36,0.10,0.51,0.50,
4.008,2.75,-0.19,4.36,0.12,0.52,0.51,
4.009,2.75,-0.19,4.36,0.15,0.54,0.52,
4.009,2.63,-0.10,3.34,0.15,0.54,0.52,
4.009,2.63,-0.10,3.34,0.19,0.57,0.53,
4.011,2.63,-0.10,3.34,0.24,0.60,0.54,
4.014,2.63,-0.10,3.34,0.31,0.64,0.55,
4.016,2.63,-0.10,3.34,0.33,0.66,0.56,
4.017,2.63,-0.10,3.34,0.38,0.68,0.56,
4.041,2.43,0.01,1.99,0.38,0.68,0.56,
4.042,2.43,0.01,1.99,0.43,0.71,0.57,
4.042,2.43,0.01,1.99,0.47,0.73,0.58,
4.042,2.43,0.01,1.99,0.54,0.75,0.59,
4.042,2.43,0.01,1.99,0.56,0.76,0.60,
4.043,2.43,0.01,1.99,0.60,0.77,0.60,
4.043,2.24,0.12,0.44,0.60,0.77,0.60,
4.043,2.24,0.12,0.44,0.64,0.78,0.61,
4.044,2.24,0.12,0.44,0.70,0.79,0.62,
4.045,2.24,0.12,0.44,0.74,0.79,0.62,
4.046,2.24,0.12,0.44,0.75,0.79,0.62,
4.046,2.24,0.12,0.44,0.78,0.78,0.63,
4.047,1.94,0.22,-1.27,0.78,0.78,0.63,
4.047,1.94,0.22,-1.27,0.81,0.77,0.63,
4.047,1.94,0.22,-1.27,0.84,0.76,0.64,
4.048,1.94,0.22,-1.27,0.88,0.74,0.64,
4.048,1.94,0.22,-1.27,0.89,0.73,0.64,
4.049,1.94,0.22,-1.27,0.91,0.71,0.64,
4.049,1.86,0.26,-3.01,0.91,0.71,0.64,
4.049,1.86,0.26,-3.01,0.93,0.69,0.63,
4.063,1.86,0.26,-3.01,0.95,0.67,0.63,
4.063,1.86,0.26,-3.01,0.96,0.63,0.62,
4.064,1.86,0.26,-3.01,0.97,0.61,0.62,
4.064,1.86,0.26,-3.01,0.98,0.59,0.61,
4.065,1.75,0.23,-4.54,0.98,0.59,0.61,
4.065,1.75,0.23,-4.54,0.98,0.56,0.60,
4.065,1.75,0.23,-4.54,0.99,0.53,0.59,
4.066,1.75,0.23,-4.54,0.99,0.49,0.57,
4.066,1.75,0.23,-4.54,0.98,0.48,0.57,
4.067,1.75,0.23,-4.54,0.98,0.45,0.56,
4.07,1.73,0.28,-5.84,0.98,0.45,0.56,
4.073,1.73,0.28,-5.84,0.98,0.42,0.54,
4.074,1.73,0.28,-5.84,0.97,0.39,0.53,
4.074,1.73,0.28,-5.84,0.96,0.35,0.51,
4.075,1.73,0.28,-5.84,0.95,0.33,0.51,
4.078,1.73,0.28,-5.84,0.94,0.30,0.49,
4.079,1.47,0.05,-6.79,0.94,0.30,0.49,
4.081,1.47,0.05,-6.79,0.92,0.27,0.48,
4.081,1.47,0.05,-6.79,0.91,0.25,0.47,
4.085,1.47,0.05,-6.79,0.88,0.21,0.44,
4.085,1.47,0.05,-6.79,0.87,0.20,0.44,
4.087,1.47,0.05,-6.79,0.85,0.17,0.42,
4.089,1.45,-0.00,-7.51,0.85,0.17,0.42,
4.089,1.45,-0.00,-7.51,0.83,0.15,0.40,
4.091,1.45,-0.00,-7.51,0.80,0.13,0.39,
4.094,1.45,-0.00,-7.51,0.77,0.10,0.36,
4.095,1.45,-0.00,-7.51,0.76,0.09,0.35,
4.097,1.45,-0.00,-7.51,0.74,0.07,0.34,
4.122,1.10,-0.31,-7.77,0.74,0.07,0.34,
4.123,1.10,-0.31,-7.77,0.71,0.05,0.32,
4.123,1.10,-0.31,-7.77,0.69,0.03,0.30,
4.124,1.10,-0.31,-7.77,0.65,0.01,0.29,
4.124,1.10,-0.31,-7.77,0.64,0.01,0.28,
4.124,1.10,-0.31,-7.77,0.62,-0.00,0.27,
4.125,0.83,-0.54,-7.80,0.62,-0.00,0.27,
4.125,0.83,-0.54,-7.80,0.60,-0.01,0.26,
4.125,0.83,-0.54,-7.80,0.57,-0.01,0.25,
4.126,0.83,-0.54,-7.80,0.55,-0.01,0.23,
4.126,0.83,-0.54,-7.80,0.53,0.00,0.23,
4.126,0.83,-0.54,-7.80,0.52,0.01,0.23,
4.126,0.32,-0.97,-7.53,0.52,0.01,0.23,
4.127,0.32,-0.97,-7.53,0.50,0.02,0.22,
4.127,0.32,-0.97,-7.53,0.48,0.03,0.22,
4.127,0.32,-0.97,-7.53,0.47,0.05,0.21,
4.128,0.32,-0.97,-7.53,0.46,0.06,0.21,
4.128,0.32,-0.97,-7.53,0.45,0.08,0.20,
4.139,0.08,-1.15,-7.19,0.45,0.08,0.20,
4.14,0.08,-1.15,-7.19,0.44,0.10,0.20,
4.14,0.08,-1.15,-7.19,0.43,0.11,0.19,
4.14,0.08,-1.15,-7.19,0.42,0.14,0.18,
4.14,0.08,-1.15,-7.19,0.41,0.15,0.18,
4.14,0.08,-1.15,-7.19,0.40,0.15,0.18,
4.141,-0.11,-1.43,-6.84,0.40,0.15,0.18,
4.141,-0.11,-1.43,-6.84,0.40,0.16,0.17,
4.141,-0.11,-1.43,-6.84,0.40,0.17,0.17,
4.171,-0.11,-1.43,-6.84,0.38,0.18,0.16,
4.172,-0.11,-1.43,-6.84,0.38,0.18,0.15,
4.172,-0.11,-1.43,-6.84,0.38,0.18,0.15,
4.172,-0.18,-1.54,-6.68,0.38,0.18,0.15,
4.172,-0.18,-1.54,-6.68,0.38,0.19,0.14,
4.173,-0.18,-1.54,-6.68,0.38,0.19,0.13,
4.173,-0.18,-1.54,-6.68,0.37,0.19,0.12,
4.173,-0.18,-1.54,-6.68,0.36,0.19,0.11,
4.173,-0.18,-1.54,-6.68,0.36,0.19,0.11,
4.173,-0.37,-1.60,-6.67,0.36,0.19,0.11,
4.174,-0.37,-1.60,-6.67,0.36,0.19,0.10,
4.174,-0.37,-1.60,-6.67,0.35,0.18,0.09,
4.174,-0.37,-1.60,-6.67,0.34,0.15,0.08,
4.174,-0.37,-1.60,-6.67,0.32,0.13,0.07,
4.174,-0.37,-1.60,-6.67,0.32,0.12,0.06,
4.175,-0.49,-1.60,-6.89,0.32,0.12,0.06,
4.175,-0.49,-1.60,-6.89,0.31,0.09,0.06,
4.175,-0.49,-1.60,-6.89,0.29,0.06,0.05,
4.177,-0.49,-1.60,-6.89,0.27,0.01,0.03,
4.177,-0.49,-1.60,-6.89,0.25,-0.03,0.03,
4.178,-0.49,-1.60,-6.89,0.24,-0.05,0.02,
4.179,-0.78,-1.82,-6.84,0.24,-0.05,0.02,
4.181,-0.78,-1.82,-6.84,0.21,-0.11,0.01,
4.182,-0.78,-1.82,-6.84,0.21,-0.11,0.01,
4.186,-0.78,-1.82,-6.84,0.19,-0.16,0.01,
4.187,-0.78,-1.82,-6.84,0.17,-0.18,0.01,
4.188,-0.78,-1.82,-6.84,0.17,-0.20,0.01,
4.19,-1.10,-1.91,-6.47,0.17,-0.20,0.01,
4.19,-1.10,-1.91,-6.47,0.15,-0.22,0.01,
4.191,-1.10,-1.91,-6.47,0.14,-0.25,0.01,
4.194,-1.10,-1.91,-6.47,0.12,-0.28,0.01,
4.195,-1.10,-1.91,-6.47,0.11,-0.29,0.02,
4.197,-1.10,-1.91,-6.47,0.10,-0.30,0.03,
4.199,-1.42,-2.10,-5.83,0.10,-0.30,0.03,
4.199,-1.42,-2.10,-5.83,0.09,-0.32,0.03,
4.204,-1.42,-2.10,-5.83,0.07,-0.33,0.04,
4.205,-1.42,-2.10,-5.83,0.06,-0.35,0.06,
4.206,-1.42,-2.10,-5.83,0.05,-0.36,0.08,
4.207,-1.42,-2.10,-5.83,0.04,-0.36,0.08,
4.209,-1.82,-2.33,-5.05,0.04,-0.36,0.08,
4.209,-1.82,-2.33,-5.05,0.03,-0.37,0.10,
4.211,-1.82,-2.33,-5.05,0.02,-0.38,0.12,
4.213,-1.82,-2.33,-5.05,0.02,-0.38,0.15,
4.215,-1.82,-2.33,-5.05,0.01,-0.38,0.17,
4.218,-1.82,-2.33,-5.05,0.01,-0.38,0.18,
4.221,-1.97,-2.49,-4.11,0.01,-0.38,0.18,
4.221,-1.97,-2.49,-4.11,0.01,-0.38,0.21,
4.221,-1.97,-2.49,-4.11,0.01,-0.39,0.23,
4.224,-1.97,-2.49,-4.11,0.01,-0.39,0.27,
4.225,-1.97,-2.49,-4.11,0.02,-0.39,0.30,
4.227,-1.97,-2.49,-4.11,0.02,-0.39,0.31,
4.229,-2.22,-2.66,-2.95,0.02,-0.39,0.31,
4.23,-2.22,-2.66,-2.95,0.03,-0.40,0.34,
4.231,-2.22,-2.66,-2.95,0.04,-0.40,0.37,
4.234,-2.22,-2.66,-2.95,0.05,-0.41,0.41,
4.236,-2.22,-2.66,-2.95,0.07,-0.41,0.44,
4.237,-2.22,-2.66,-2.95,0.08,-0.41,0.45,
4.239,-2.08,-2.66,-1.82,0.08,-0.41,0.45,
4.24,-2.08,-2.66,-1.82,0.10,-0.41,0.48,
4.241,-2.08,-2.66,-1.82,0.12,-0.41,0.50,
4.244,-2.08,-2.66,-1.82,0.15,-0.41,0.53,
4.245,-2.08,-2.66,-1.82,0.18,-0.41,0.55,
4.247,-2.08,-2.66,-1.82,0.19,-0.41,0.56,
4.249,-1.73,-2.64,-0.78,0.19,-0.41,0.56,
4.25,-1.73,-2.64,-0.78,0.21,-0.41,0.58,
4.264,-1.73,-2.64,-0.78,0.23,-0.41,0.60,
4.266,-1.73,-2.64,-0.78,0.27,-0.42,0.62,
4.266,-1.73,-2.64,-0.78,0.30,-0.43,0.63,
4.267,-1.73,-2.64,-0.78,0.31,-0.43,0.64,
4.267,-1.19,-2.45,-0.14,0.31,-0.43,0.64,
4.267,-1.19,-2.45,-0.14,0.33,-0.44,0.64,
4.269,-1.19,-2.45,-0.14,0.35,-0.46,0.65,
4.27,-1.19,-2.45,-0.14,0.38,-0.50,0.66,
4.296,-1.19,-2.45,-0.14,0.40,-0.52,0.65,
4.296,-1.19,-2.45,-0.14,0.41,-0.54,0.65,
4.296,-0.62,-2.11,0.20,0.41,-0.54,0.65,
4.297,-0.62,-2.11,0.20,0.43,-0.57,0.64,
4.297,-0.62,-2.11,0.20,0.43,-0.60,0.64,
4.297,-0.62,-2.11,0.20,0.44,-0.64,0.63,
4.297,-0.62,-2.11,0.20,0.45,-0.66,0.62,
4.298,-0.62,-2.11,0.20,0.45,-0.68,0.61,
4.298,-0.11,-1.80,0.44,0.45,-0.68,0.61,
4.298,-0.11,-1.80,0.44,0.46,-0.71,0.60,
4.298,-0.11,-1.80,0.44,0.46,-0.73,0.58,
4.299,-0.11,-1.80,0.44,0.46,-0.75,0.56,
4.299,-0.11,-1.80,0.44,0.46,-0.76,0.55,
4.299,-0.11,-1.80,0.44,0.46,-0.76,0.54,
4.3,0.24,-1.53,0.82,0.46,-0.76,0.54,
4.3,0.24,-1.53,0.82,0.46,-0.76,0.53,
4.3,0.24,-1.53,0.82,0.45,-0.75,0.51,
4.3,0.24,-1.53,0.82,0.45,-0.73,0.49,
4.301,0.24,-1.53,0.82,0.44,-0.72,0.47,
4.301,0.24,-1.53,0.82,0.44,-0.71,0.46,
4.301,0.38,-1.38,1.21,0.44,-0.71,0.46,
4.301,0.38,-1.38,1.21,0.43,-0.69,0.45,
4.302,0.38,-1.38,1.21,0.43,-0.66,0.44,
4.308,0.38,-1.38,1.21,0.42,-0.62,0.42,
4.308,0.38,-1.38,1.21,0.41,-0.59,0.42,
4.309,0.38,-1.38,1.21,0.41,-0.57,0.41,
4.309,0.29,-1.25,1.64,0.41,-0.57,0.41,
4.309,0.29,-1.25,1.64,0.40,-0.53,0.41,
4.311,0.29,-1.25,1.64,0.40,-0.49,0.40,
4.314,0.29,-1.25,1.64,0.40,-0.42,0.39,
4.315,0.29,-1.25,1.64,0.40,-0.36,0.40,
4.318,0.29,-1.25,1.64,0.40,-0.34,0.40,
4.319,0.20,-1.12,2.05,0.40,-0.34,0.40,
4.319,0.20,-1.12,2.05,0.40,-0.28,0.39,
4.321,0.20,-1.12,2.05,0.40,-0.23,0.39,
4.324,0.20,-1.12,2.05,0.40,-0.15,0.39,
4.324,0.20,-1.12,2.05,0.40,-0.10,0.39,
4.326,0.20,-1.12,2.05,0.40,-0.07,0.39,
4.329,0.29,-1.00,2.15,0.40,-0.07,0.39,
4.329,0.29,-1.00,2.15,0.39,-0.03,0.39,
4.33,0.29,-1.00,2.15,0.39,0.02,0.39,
4.333,0.29,-1.00,2.15,0.38,0.07,0.38,
4.337,0.29,-1.00,2.15,0.38,0.10,0.37,
4.338,0.29,-1.00,2.15,0.38,0.11,0.37,
4.339,0.42,-0.81,1.98,0.38,0.11,0.37,
4.339,0.42,-0.81,1.98,0.38,0.12,0.36,
4.34,0.42,-0.81,1.98,0.37,0.14,0.35,
4.343,0.42,-0.81,1.98,0.35,0.15,0.34,
4.349,0.42,-0.81,1.98,0.35,0.15,0.33,
4.35,0.42,-0.81,1.98,0.35,0.15,0.33,
4.35,0.52,-0.52,1.80,0.35,0.15,0.33,
4.35,0.52,-0.52,1.80,0.34,0.15,0.32,
4.351,0.52,-0.52,1.80,0.32,0.15,0.30,
4.355,0.52,-0.52,1.80,0.30,0.15,0.29,
4.356,0.52,-0.52,1.80,0.30,0.15,0.29,
4.357,0.52,-0.52,1.80,0.30,0.15,0.29,
4.359,0.43,-0.42,1.70,0.30,0.15,0.29,
4.359,0.43,-0.42,1.70,0.29,0.15,0.29,
4.36,0.43,-0.42,1.70,0.28,0.15,0.29,
4.364,0.43,-0.42,1.70,0.26,0.15,0.28,
4.365,0.43,-0.42,1.70,0.25,0.14,0.28,
4.368,0.43,-0.42,1.70,0.24,0.13,0.28,
4.369,0.30,-0.20,1.55,0.24,0.13,0.28,
4.369,0.30,-0.20,1.55,0.22,0.11,0.28,
4.371,0.30,-0.20,1.55,0.20,0.10,0.27,
4.374,0.30,-0.20,1.55,0.17,0.08,0.27,
4.375,0.30,-0.20,1.55,0.15,0.06,0.26,
4.377,0.30,-0.20,1.55,0.12,0.04,0.25,
4.379,0.34,0.03,1.21,0.12,0.04,0.25,
4.38,0.34,0.03,1.21,0.08,0.01,0.24,
4.381,0.34,0.03,1.21,0.05,-0.01,0.23,
4.391,0.34,0.03,1.21,0.02,-0.02,0.22,
4.392,0.34,0.03,1.21,-0.02,-0.04,0.21,
4.392,0.34,0.03,1.21,-0.05,-0.05,0.21,
4.392,0.33,0.28,1.16,-0.05,-0.05,0.21,
4.392,0.33,0.28,1.16,-0.09,-0.05,0.20,
4.392,0.33,0.28,1.16,-0.13,-0.06,0.19,
4.393,0.33,0.28,1.16,-0.17,-0.06,0.18,
4.394,0.33,0.28,1.16,-0.21,-0.06,0.18,
4.397,0.33,0.28,1.16,-0.25,-0.06,0.17,
4.425,0.12,0.43,1.39,-0.25,-0.06,0.17,
4.425,0.12,0.43,1.39,-0.29,-0.06,0.17,
4.426,0.12,0.43,1.39,-0.33,-0.06,0.17,
4.426,0.12,0.43,1.39,-0.38,-0.06,0.17,
4.426,0.12,0.43,1.39,-0.43,-0.06,0.16,
4.426,0.12,0.43,1.39,-0.48,-0.06,0.16,
4.426,-0.10,0.63,1.67,-0.48,-0.06,0.16,
4.426,-0.10,0.63,1.67,-0.54,-0.05,0.15,
4.426,-0.10,0.63,1.67,-0.59,-0.05,0.14,
4.427,-0.10,0.63,1.67,-0.65,-0.05,0.14,
4.427,-0.10,0.63,1.67,-0.72,-0.06,0.13,
4.427,-0.10,0.63,1.67,-0.79,-0.06,0.12,
4.427,-0.19,0.78,1.94,-0.79,-0.06,0.12,
4.427,-0.19,0.78,1.94,-0.85,-0.06,0.12,
4.427,-0.19,0.78,1.94,-0.92,-0.06,0.11,
4.427,-0.19,0.78,1.94,-0.99,-0.07,0.10,
4.428,-0.19,0.78,1.94,-1.07,-0.08,0.09,
4.428,-0.19,0.78,1.94,-1.14,-0.10,0.07,
4.429,0.03,0.86,2.54,-1.14,-0.10,0.07,
4.429,0.03,0.86,2.54,-1.22,-0.12,0.06,
4.466,0.03,0.86,2.54,-1.30,-0.14,0.03,
4.467,0.03,0.86,2.54,-1.37,-0.16,0.01,
4.467,0.03,0.86,2.54,-1.44,-0.18,-0.02,
4.467,0.03,0.86,2.54,-1.51,-0.20,-0.05,
4.468,0.57,0.79,3.80,-1.51,-0.20,-0.05,
4.469,0.57,0.79,3.80,-1.57,-0.21,-0.08,
4.469,0.57,0.79,3.80,-1.63,-0.22,-0.11,
4.47,0.57,0.79,3.80,-1.68,-0.23,-0.14,
4.471,0.57,0.79,3.80,-1.73,-0.23,-0.17,
4.471,0.57,0.79,3.80,-1.77,-0.23,-0.20,
4.471,0.91,0.58,5.56,-1.77,-0.23,-0.20,
4.473,0.91,0.58,5.56,-1.81,-0.22,-0.23,
4.474,0.91,0.58,5.56,-1.84,-0.22,-0.25,
4.475,0.91,0.58,5.56,-1.86,-0.22,-0.28,
4.475,0.91,0.58,5.56,-1.88,-0.22,-0.30,
4.476,0.91,0.58,5.56,-1.89,-0.21,-0.33,
4.477,0.95,0.17,7.41,-1.89,-0.21,-0.33,
4.478,0.95,0.17,7.41,-1.90,-0.19,-0.34,
4.479,0.95,0.17,7.41,-1.90,-0.18,-0.36,
4.481,0.95,0.17,7.41,-1.89,-0.16,-0.38,
4.481,0.95,0.17,7.41,-1.87,-0.13,-0.39,
4.482,0.95,0.17,7.41,-1.85,-0.10,-0.40,
4.483,0.71,-0.29,9.21,-1.85,-0.10,-0.40,
4.486,0.71,-0.29,9.21,-1.82,-0.08,-0.41,
4.486,0.71,-0.29,9.21,-1.79,-0.05,-0.42,
4.487,0.71,-0.29,9.21,-1.75,-0.01,-0.42,
4.487,0.71,-0.29,9.21,-1.70,0.02,-0.42,
4.487,0.71,-0.29,9.21,-1.66,0.05,-0.41,
4.488,0.35,-0.60,10.22,-1.66,0.05,-0.41,
4.488,0.35,-0.60,10.22,-1.61,0.08,-0.41,
4.488,0.35,-0.60,10.22,-1.57,0.11,-0.40,
4.489,0.35,-0.60,10.22,-1.52,0.13,-0.39,
4.489,0.35,-0.60,10.22,-1.47,0.16,-0.38,
4.489,0.35,-0.60,10.22,-1.42,0.18,-0.37,
4.49,-0.09,-0.70,10.22,-1.42,0.18,-0.37,
4.49,-0.09,-0.70,10.22,-1.38,0.19,-0.36,
4.49,-0.09,-0.70,10.22,-1.33,0.20,-0.34,
4.501,-0.09,-0.70,10.22,-1.29,0.21,-0.33,
4.502,-0.09,-0.70,10.22,-1.25,0.21,-0.32,
4.502,-0.09,-0.70,10.22,-1.21,0.21,-0.31,
4.503,-0.22,-0.50,9.28,-1.21,0.21,-0.31,
4.503,-0.22,-0.50,9.28,-1.17,0.20,-0.30,
4.503,-0.22,-0.50,9.28,-1.14,0.19,-0.30,
4.505,-0.22,-0.50,9.28,-1.10,0.18,-0.29,
4.505,-0.22,-0.50,9.28,-1.07,0.17,-0.28,
4.509,-0.22,-0.50,9.28,-1.05,0.15,-0.28,
4.509,-0.28,-0.17,7.88,-1.05,0.15,-0.28,
4.509,-0.28,-0.17,7.88,-1.02,0.13,-0.27,
4.513,-0.28,-0.17,7.88,-1.00,0.11,-0.27,
4.516,-0.28,-0.17,7.88,-0.97,0.08,-0.26,
4.516,-0.28,-0.17,7.88,-0.96,0.07,-0.26,
4.516,-0.28,-0.17,7.88,-0.95,0.04,-0.26,
4.521,-0.15,0.23,6.36,-0.95,0.04,-0.26,
4.522,-0.15,0.23,6.36,-0.94,0.02,-0.25,
4.526,-0.15,0.23,6.36,-0.93,0.00,-0.25,
4.526,-0.15,0.23,6.36,-0.92,-0.02,-0.25,
4.526,-0.15,0.23,6.36,-0.91,-0.03,-0.26,
4.527,-0.15,0.23,6.36,-0.90,-0.04,-0.26,
4.531,0.05,0.57,5.12,-0.90,-0.04,-0.26,
4.531,0.05,0.57,5.12,-0.90,-0.04,-0.26,
4.531,0.05,0.57,5.12,-0.89,-0.04,-0.27,
4.54,0.05,0.57,5.12,-0.88,-0.05,-0.27,
4.54,0.05,0.57,5.12,-0.87,-0.04,-0.28,
4.54,0.05,0.57,5.12,-0.86,-0.03,-0.28,
4.541,0.33,0.79,4.11,-0.86,-0.03,-0.28,
4.541,0.33,0.79,4.11,-0.85,-0.02,-0.29,
4.541,0.33,0.79,4.11,-0.84,-0.01,-0.30,
4.547,0.33,0.79,4.11,-0.82,0.01,-0.30,
4.547,0.33,0.79,4.11,-0.81,0.03,-0.31,
4.547,0.33,0.79,4.11,-0.79,0.05,-0.31,
4.58,0.34,0.90,3.35,-0.79,0.05,-0.31,
4.58,0.34,0.90,3.35,-0.78,0.07,-0.31,
4.581,0.34,0.90,3.35,-0.76,0.10,-0.32,
4.581,0.34,0.90,3.35,-0.74,0.13,-0.32,
4.581,0.34,0.90,3.35,-0.72,0.16,-0.32,
4.581,0.34,0.90,3.35,-0.69,0.19,-0.31,
4.581,0.14,0.92,2.60,-0.69,0.19,-0.31,
4.581,0.14,0.92,2.60,-0.66,0.23,-0.31,
4.582,0.14,0.92,2.60,-0.64,0.26,-0.31,
4.582,0.14,0.92,2.60,-0.60,0.32,-0.30,
4.582,0.14,0.92,2.60,-0.58,0.34,-0.30,
4.582,0.14,0.92,2.60,-0.56,0.37,-0.29,
4.582,-0.18,0.95,1.70,-0.56,0.37,-0.29,
4.583,-0.18,0.95,1.70,-0.53,0.40,-0.28,
4.583,-0.18,0.95,1.70,-0.50,0.43,-0.27,
4.583,-0.18,0.95,1.70,-0.47,0.46,-0.27,
4.583,-0.18,0.95,1.70,-0.44,0.49,-0.25,
4.583,-0.18,0.95,1.70,-0.41,0.51,-0.25,
4.584,-0.41,0.96,0.57,-0.41,0.51,-0.25,
4.584,-0.41,0.96,0.57,-0.38,0.53,-0.23,
4.585,-0.41,0.96,0.57,-0.35,0.55,-0.23,
4.585,-0.41,0.96,0.57,-0.30,0.56,-0.21,
4.586,-0.41,0.96,0.57,-0.29,0.57,-0.21,
4.587,-0.41,0.96,0.57,-0.26,0.57,-0.20,
4.597,-0.59,1.07,-0.66,-0.26,0.57,-0.20,
4.597,-0.59,1.07,-0.66,-0.23,0.57,-0.19,
4.597,-0.59,1.07,-0.66,-0.20,0.56,-0.18,
4.598,-0.59,1.07,-0.66,-0.15,0.55,-0.17,
4.598,-0.59,1.07,-0.66,-0.14,0.54,-0.17,
4.598,-0.59,1.07,-0.66,-0.11,0.53,-0.17,
4.619,-0.59,1.10,-1.74,-0.11,0.53,-0.17,
4.619,-0.59,1.10,-1.74,-0.08,0.52,-0.16,
4.62,-0.59,1.10,-1.74,-0.05,0.50,-0.16,
4.62,-0.59,1.10,-1.74,-0.01,0.47,-0.16,
4.62,-0.59,1.10,-1.74,0.01,0.46,-0.15,
4.62,-0.59,1.10,-1.74,0.03,0.43,-0.15,
4.621,-0.64,1.16,-2.84,0.03,0.43,-0.15,
4.621,-0.64,1.16,-2.84,0.06,0.40,-0.15,
4.621,-0.64,1.16,-2.84,0.08,0.37,-0.15,
4.621,-0.64,1.16,-2.84,0.12,0.32,-0.14,
4.622,-0.64,1.16,-2.84,0.13,0.30,-0.14,
4.622,-0.64,1.16,-2.84,0.15,0.27,-0.14,
4.622,-0.69,1.12,-3.78,0.15,0.27,-0.14,
4.623,-0.69,1.12,-3.78,0.17,0.23,-0.14,
4.627,-0.69,1.12,-3.78,0.19,0.19,-0.14,
4.627,-0.69,1.12,-3.78,0.22,0.13,-0.14,
4.627,-0.69,1.12,-3.78,0.23,0.11,-0.14,
4.627,-0.69,1.12,-3.78,0.25,0.06,-0.14,
4.632,-0.76,1.11,-4.58,0.25,0.06,-0.14,
4.633,-0.76,1.11,-4.58,0.26,0.02,-0.14,
4.633,-0.76,1.11,-4.58,0.27,-0.02,-0.14,
4.641,-0.76,1.11,-4.58,0.29,-0.10,-0.13,
4.641,-0.76,1.11,-4.58,0.30,-0.12,-0.13,
4.641,-0.76,1.11,-4.58,0.30,-0.16,-0.13,
4.642,-0.93,0.93,-5.20,0.30,-0.16,-0.13,
4.642,-0.93,0.93,-5.20,0.31,-0.21,-0.12,
4.643,-0.93,0.93,-5.20,0.31,-0.26,-0.12,
4.644,-0.93,0.93,-5.20,0.32,-0.32,-0.11,
4.645,-0.93,0.93,-5.20,0.32,-0.34,-0.11,
4.647,-0.93,0.93,-5.20,0.33,-0.37,-0.11,
4.655,-1.15,0.85,-5.50,0.33,-0.37,-0.11,
4.656,-1.15,0.85,-5.50,0.34,-0.41,-0.10,
4.656,-1.15,0.85,-5.50,0.35,-0.43,-0.09,
4.656,-1.15,0.85,-5.50,0.36,-0.47,-0.08,
4.657,-1.15,0.85,-5.50,0.37,-0.47,-0.07,
4.658,-1.15,0.85,-5.50,0.38,-0.49,-0.06,
4.659,-1.34,0.58,-5.37,0.38,-0.49,-0.06,
4.659,-1.34,0.58,-5.37,0.40,-0.50,-0.05,
4.68,-1.34,0.58,-5.37,0.41,-0.51,-0.04,
4.681,-1.34,0.58,-5.37,0.43,-0.52,-0.03,
4.681,-1.34,0.58,-5.37,0.44,-0.52,-0.02,
4.681,-1.34,0.58,-5.37,0.46,-0.52,-0.01,
4.681,-1.45,0.50,-5.11,0.46,-0.52,-0.01,
4.682,-1.45,0.50,-5.11,0.47,-0.52,0.00,
4.682,-1.45,0.50,-5.11,0.49,-0.52,0.01,
4.682,-1.45,0.50,-5.11,0.52,-0.52,0.03,
4.682,-1.45,0.50,-5.11,0.53,-0.52,0.04,
4.682,-1.45,0.50,-5.11,0.54,-0.51,0.05,
4.683,-1.51,0.29,-4.87,0.54,-0.51,0.05,
4.683,-1.51,0.29,-4.87,0.57,-0.50,0.06,
4.683,-1.51,0.29,-4.87,0.59,-0.49,0.07,
4.686,-1.51,0.29,-4.87,0.63,-0.47,0.09,
4.688,-1.51,0.29,-4.87,0.63,-0.47,0.09,
4.69,-1.51,0.29,-4.87,0.65,-0.46,0.11,
4.69,-1.68,0.26,-4.81,0.65,-0.46,0.11,
4.691,-1.68,0.26,-4.81,0.67,-0.45,0.12,
4.691,-1.68,0.26,-4.81,0.68,-0.44,0.13,
4.693,-1.68,0.26,-4.81,0.71,-0.43,0.15,
4.696,-1.68,0.26,-4.81,0.72,-0.43,0.15,
4.696,-1.68,0.26,-4.81,0.73,-0.43,0.16,
4.699,-1.72,0.19,-4.90,0.73,-0.43,0.16,
4.699,-1.72,0.19,-4.90,0.74,-0.43,0.17,
4.701,-1.72,0.19,-4.90,0.76,-0.43,0.18,
4.704,-1.72,0.19,-4.90,0.78,-0.44,0.18,
4.705,-1.72,0.19,-4.90,0.78,-0.45,0.19,
4.706,-1.72,0.19,-4.90,0.80,-0.46,0.19,
4.709,-1.72,0.20,-4.88,0.80,-0.46,0.19,
4.709,-1.72,0.20,-4.88,0.81,-0.48,0.19,
4.71,-1.72,0.20,-4.88,0.82,-0.49,0.20,
4.714,-1.72,0.20,-4.88,0.84,-0.52,0.20,
4.715,-1.72,0.20,-4.88,0.85,-0.52,0.20,
4.717,-1.72,0.20,-4.88,0.86,-0.54,0.20,
4.719,-1.68,0.15,-4.76,0.86,-0.54,0.20,
4.719,-1.68,0.15,-4.76,0.87,-0.57,0.20,
4.72,-1.68,0.15,-4.76,0.88,-0.59,0.20,
4.723,-1.68,0.15,-4.76,0.88,-0.62,0.20,
4.725,-1.68,0.15,-4.76,0.88,-0.63,0.20,
4.726,-1.68,0.15,-4.76,0.89,-0.66,0.20,
4.729,-1.78,0.22,-4.77,0.89,-0.66,0.20,
4.729,-1.78,0.22,-4.77,0.88,-0.68,0.19,
4.731,-1.78,0.22,-4.77,0.88,-0.71,0.19,
4.734,-1.78,0.22,-4.77,0.88,-0.74,0.19,
4.734,-1.78,0.22,-4.77,0.87,-0.75,0.18,
4.736,-1.78,0.22,-4.77,0.87,-0.77,0.18,
4.739,-1.84,0.15,-4.64,0.87,-0.77,0.18,
4.739,-1.84,0.15,-4.64,0.86,-0.80,0.18,
4.74,-1.84,0.15,-4.64,0.86,-0.82,0.18,
4.743,-1.84,0.15,-4.64,0.84,-0.85,0.17,
4.745,-1.84,0.15,-4.64,0.84,-0.86,0.18,
4.746,-1.84,0.15,-4.64,0.83,-0.87,0.18,
4.75,-1.98,0.16,-4.34,0.83,-0.87,0.18,
4.752,-1.98,0.16,-4.34,0.82,-0.89,0.18,
4.752,-1.98,0.16,-4.34,0.81,-0.90,0.18,
4.753,-1.98,0.16,-4.34,0.79,-0.92,0.18,
4.754,-1.98,0.16,-4.34,0.78,-0.93,0.17,
4.756,-1.98,0.16,-4.34,0.77,-0.94,0.17,
4.759,-1.85,0.08,-3.99,0.77,-0.94,0.17,
4.759,-1.85,0.08,-3.99,0.75,-0.96,0.16,
4.76,-1.85,0.08,-3.99,0.74,-0.97,0.16,
4.768,-1.85,0.08,-3.99,0.71,-0.98,0.14,
4.779,-1.85,0.08,-3.99,0.71,-0.98,0.13,
4.779,-1.85,0.08,-3.99,0.69,-0.99,0.12,
4.78,-1.60,0.11,-3.40,0.69,-0.99,0.12,
4.78,-1.60,0.11,-3.40,0.68,-0.99,0.11,
4.78,-1.60,0.11,-3.40,0.67,-0.99,0.09,
4.78,-1.60,0.11,-3.40,0.65,-0.99,0.07,
4.78,-1.60,0.11,-3.40,0.65,-0.99,0.06,
4.78,-1.60,0.11,-3.40,0.64,-0.99,0.04,
4.78,-1.34,0.04,-2.63,0.64,-0.99,0.04,
4.78,-1.34,0.04,-2.63,0.63,-0.98,0.03,
4.781,-1.34,0.04,-2.63,0.63,-0.97,0.01,
4.784,-1.34,0.04,-2.63,0.62,-0.96,-0.02,
4.784,-1.34,0.04,-2.63,0.62,-0.95,-0.03,
4.786,-1.34,0.04,-2.63,0.61,-0.93,-0.05,
4.789,-1.09,-0.06,-1.93,0.61,-0.93,-0.05,
4.789,-1.09,-0.06,-1.93,0.61,-0.92,-0.07,
4.79,-1.09,-0.06,-1.93,0.60,-0.90,-0.09,
4.795,-1.09,-0.06,-1.93,0.60,-0.86,-0.13,
4.796,-1.09,-0.06,-1.93,0.59,-0.84,-0.14,
4.798,-1.09,-0.06,-1.93,0.59,-0.82,-0.16,
4.799,-0.75,-0.21,-1.34,0.59,-0.82,-0.16,
4.799,-0.75,-0.21,-1.34,0.59,-0.79,-0.19,
4.804,-0.75,-0.21,-1.34,0.59,-0.76,-0.21,
4.805,-0.75,-0.21,-1.34,0.58,-0.72,-0.25,
4.805,-0.75,-0.21,-1.34,0.58,-0.70,-0.26,
4.814,-0.75,-0.21,-1.34,0.58,-0.67,-0.30,
4.815,-0.52,-0.29,-0.85,0.58,-0.67,-0.30,
4.815,-0.52,-0.29,-0.85,0.57,-0.64,-0.33,
4.815,-0.52,-0.29,-0.85,0.57,-0.61,-0.35,
4.815,-0.52,-0.29,-0.85,0.56,-0.56,-0.40,
4.815,-0.52,-0.29,-0.85,0.56,-0.54,-0.41,
4.825,-0.52,-0.29,-0.85,0.55,-0.51,-0.44,
4.825,-0.42,-0.41,-0.51,0.55,-0.51,-0.44,
4.825,-0.42,-0.41,-0.51,0.54,-0.47,-0.47,
4.826,-0.42,-0.41,-0.51,0.54,-0.44,-0.49,
4.826,-0.42,-0.41,-0.51,0.52,-0.38,-0.54,
4.826,-0.42,-0.41,-0.51,0.52,-0.36,-0.55,
4.828,-0.42,-0.41,-0.51,0.51,-0.32,-0.58,
4.829,-0.44,-0.56,-0.29,0.51,-0.32,-0.58,
4.829,-0.44,-0.56,-0.29,0.50,-0.28,-0.60,
4.832,-0.44,-0.56,-0.29,0.49,-0.24,-0.63,
4.834,-0.44,-0.56,-0.29,0.47,-0.18,-0.67,
4.834,-0.44,-0.56,-0.29,0.46,-0.16,-0.68,
4.836,-0.44,-0.56,-0.29,0.45,-0.12,-0.71,
4.839,-0.52,-0.61,-0.15,0.45,-0.12,-0.71,
4.839,-0.52,-0.61,-0.15,0.44,-0.08,-0.73,
4.842,-0.52,-0.61,-0.15,0.42,-0.04,-0.75,
4.844,-0.52,-0.61,-0.15,0.40,0.02,-0.79,
4.844,-0.52,-0.61,-0.15,0.39,0.04,-0.80,
4.848,-0.52,-0.61,-0.15,0.38,0.08,-0.82,
4.849,-0.84,-0.69,-0.13,0.38,0.08,-0.82,
4.85,-0.84,-0.69,-0.13,0.36,0.11,-0.84,
4.851,-0.84,-0.69,-0.13,0.34,0.15,-0.85,
4.854,-0.84,-0.69,-0.13,0.32,0.20,-0.87,
4.856,-0.84,-0.69,-0.13,0.31,0.22,-0.88,
4.857,-0.84,-0.69,-0.13,0.29,0.25,-0.89,
4.859,-1.20,-0.77,-0.11,0.29,0.25,-0.89,
4.859,-1.20,-0.77,-0.11,0.27,0.29,-0.90,
4.861,-1.20,-0.77,-0.11,0.26,0.33,-0.90,
4.864,-1.20,-0.77,-0.11,0.23,0.38,-0.91,
4.864,-1.20,-0.77,-0.11,0.22,0.39,-0.91,
4.868,-1.20,-0.77,-0.11,0.21,0.42,-0.92,
4.873,-1.60,-0.81,0.00,0.21,0.42,-0.92,
4.874,-1.60,-0.81,0.00,0.19,0.45,-0.92,
4.874,-1.60,-0.81,0.00,0.18,0.48,-0.92,
4.875,-1.60,-0.81,0.00,0.17,0.51,-0.92,
4.875,-1.60,-0.81,0.00,0.16,0.52,-0.92,
4.877,-1.60,-0.81,0.00,0.15,0.54,-0.92,
4.879,-1.75,-0.73,0.20,0.15,0.54,-0.92,
4.879,-1.75,-0.73,0.20,0.14,0.55,-0.92,
4.881,-1.75,-0.73,0.20,0.13,0.56,-0.92,
4.885,-1.75,-0.73,0.20,0.12,0.58,-0.92,
4.894,-1.75,-0.73,0.20,0.12,0.58,-0.92,
4.894,-1.75,-0.73,0.20,0.11,0.59,-0.91,
4.894,-1.97,-0.44,0.35,0.11,0.59,-0.91,
4.895,-1.97,-0.44,0.35,0.10,0.59,-0.91,
4.895,-1.97,-0.44,0.35,0.09,0.60,-0.90,
4.896,-1.97,-0.44,0.35,0.07,0.60,-0.89,
4.899,-1.97,-0.44,0.35,0.07,0.60,-0.88,
4.9,-1.97,-0.44,0.35,0.05,0.60,-0.87,
4.904,-2.03,-0.23,0.25,0.05,0.60,-0.87,
4.905,-2.03,-0.23,0.25,0.03,0.59,-0.86,
4.905,-2.03,-0.23,0.25,0.01,0.59,-0.85,
4.905,-2.03,-0.23,0.25,-0.03,0.57,-0.83,
4.905,-2.03,-0.23,0.25,-0.04,0.57,-0.83,
4.907,-2.03,-0.23,0.25,-0.08,0.55,-0.82,
4.909,-1.95,0.05,0.03,-0.08,0.55,-0.82,
4.91,-1.95,0.05,0.03,-0.11,0.53,-0.81,
4.911,-1.95,0.05,0.03,-0.15,0.50,-0.80,
4.916,-1.95,0.05,0.03,-0.20,0.47,-0.79,
4.917,-1.95,0.05,0.03,-0.22,0.46,-0.78,
4.92,-1.95,0.05,0.03,-0.27,0.42,-0.78,
4.921,-1.56,0.40,0.12,-0.27,0.42,-0.78,
4.923,-1.56,0.40,0.12,-0.31,0.39,-0.78,
4.924,-1.56,0.40,0.12,-0.35,0.36,-0.77,
4.925,-1.56,0.40,0.12,-0.42,0.30,-0.76,
4.925,-1.56,0.40,0.12,-0.45,0.29,-0.76,
4.931,-1.56,0.40,0.12,-0.49,0.25,-0.76,
4.931,-1.20,0.90,0.68,-0.49,0.25,-0.76,
4.932,-1.20,0.90,0.68,-0.54,0.20,-0.75,
4.965,-1.20,0.90,0.68,-0.58,0.16,-0.75,
4.965,-1.20,0.90,0.68,-0.66,0.10,-0.75,
4.966,-1.20,0.90,0.68,-0.68,0.08,-0.74,
4.966,-1.20,0.90,0.68,-0.72,0.04,-0.74,
4.967,-0.79,1.24,1.77,-0.72,0.04,-0.74,
4.967,-0.79,1.24,1.77,-0.77,0.01,-0.75,
4.967,-0.79,1.24,1.77,-0.82,-0.02,-0.75,
4.968,-0.79,1.24,1.77,-0.88,-0.06,-0.75,
4.968,-0.79,1.24,1.77,-0.90,-0.06,-0.75,
4.969,-0.79,1.24,1.77,-0.94,-0.07,-0.75,
4.969,-0.13,1.31,3.32,-0.94,-0.07,-0.75,
4.97,-0.13,1.31,3.32,-0.97,-0.07,-0.75,
4.97,-0.13,1.31,3.32,-1.00,-0.06,-0.76,
4.97,-0.13,1.31,3.32,-1.05,-0.04,-0.76,
4.971,-0.13,1.31,3.32,-1.06,-0.03,-0.76,
4.971,-0.13,1.31,3.32,-1.08,0.00,-0.77,
4.972,0.61,1.14,4.98,-1.08,0.00,-0.77,
4.972,0.61,1.14,4.98,-1.10,0.03,-0.77,
4.973,0.61,1.14,4.98,-1.12,0.07,-0.78,
4.973,0.61,1.14,4.98,-1.14,0.13,-0.78,
4.973,0.61,1.14,4.98,-1.14,0.15,-0.78,
4.974,0.61,1.14,4.98,-1.14,0.20,-0.78,
4.974,1.07,1.02,6.49,-1.14,0.20,-0.78,
4.975,1.07,1.02,6.49,-1.15,0.25,-0.78,
4.975,1.07,1.02,6.49,-1.15,0.30,-0.78,
4.975,1.07,1.02,6.49,-1.14,0.37,-0.78,
4.976,1.07,1.02,6.49,-1.14,0.40,-0.78,
4.985,1.07,1.02,6.49,-1.14,0.45,-0.77,
4.985,1.14,0.82,7.50,-1.14,0.45,-0.77,
4.986,1.14,0.82,7.50,-1.13,0.49,-0.77,
4.986,1.14,0.82,7.50,-1.13,0.54,-0.76,
4.986,1.14,0.82,7.50,-1.13,0.60,-0.75,
4.986,1.14,0.82,7.50,-1.14,0.62,-0.74,
4.987,1.14,0.82,7.50,-1.14,0.65,-0.73,
4.992,1.03,0.46,7.74,-1.14,0.65,-0.73,
5.018,1.03,0.46,7.74,-1.15,0.68,-0.72,
5.019,1.03,0.46,7.74,-1.16,0.69,-0.70,
5.019,1.03,0.46,7.74,-1.18,0.71,-0.67,
5.02,1.03,0.46,7.74,-1.18,0.71,-0.66,
5.022,1.03,0.46,7.74,-1.20,0.71,-0.64,
5.022,0.74,-0.07,7.68,-1.20,0.71,-0.64,
5.023,0.74,-0.07,7.68,-1.22,0.70,-0.61,
5.023,0.74,-0.07,7.68,-1.24,0.70,-0.58,
5.023,0.74,-0.07,7.68,-1.27,0.67,-0.53,
5.023,0.74,-0.07,7.68,-1.28,0.67,-0.51,
5.023,0.74,-0.07,7.68,-1.31,0.65,-0.48,
5.024,0.66,-0.63,7.71,-1.31,0.65,-0.48,
5.024,0.66,-0.63,7.71,-1.33,0.63,-0.45,
5.024,0.66,-0.63,7.71,-1.35,0.61,-0.41,
5.024,0.66,-0.63,7.71,-1.39,0.59,-0.36,
5.024,0.66,-0.63,7.71,-1.40,0.58,-0.34,
5.025,0.66,-0.63,7.71,-1.41,0.57,-0.30,
5.025,0.82,-1.21,8.07,-1.41,0.57,-0.30,
5.025,0.82,-1.21,8.07,-1.42,0.56,-0.26,
5.025,0.82,-1.21,8.07,-1.43,0.55,-0.22,
5.026,0.82,-1.21,8.07,-1.43,0.55,-0.15,
5.026,0.82,-1.21,8.07,-1.43,0.55,-0.13,
5.029,0.82,-1.21,8.07,-1.41,0.55,-0.09,
5.031,1.04,-1.76,8.98,-1.41,0.55,-0.09,
5.032,1.04,-1.76,8.98,-1.39,0.56,-0.04,
5.032,1.04,-1.76,8.98,-1.37,0.57,0.00,
5.036,1.04,-1.76,8.98,-1.32,0.58,0.07,
5.037,1.04,-1.76,8.98,-1.30,0.59,0.10,
5.037,1.04,-1.76,8.98,-1.25,0.60,0.14,
5.042,1.29,-1.98,9.87,-1.25,0.60,0.14,
5.042,1.29,-1.98,9.87,-1.20,0.61,0.19,
5.043,1.29,-1.98,9.87,-1.14,0.63,0.24,
5.046,1.29,-1.98,9.87,-1.04,0.65,0.31,
5.046,1.29,-1.98,9.87,-1.00,0.66,0.34,
5.054,1.29,-1.98,9.87,-0.93,0.67,0.39,
5.055,1.38,-2.09,10.30,-0.93,0.67,0.39,
5.055,1.38,-2.09,10.30,-0.85,0.69,0.44,
5.056,1.38,-2.09,10.30,-0.76,0.70,0.48,
