
time,ax,ay,az,wx,wy,wz,
0.003,-0.06,-0.13,-1.16,-0.11,0.18,-0.12,
0.003,-0.06,-0.13,-1.16,-0.13,0.19,-0.11,
0.004,-0.06,-0.13,-1.16,-0.14,0.21,-0.11,
0.004,-0.06,-0.13,-1.16,-0.16,0.23,-0.10,
0.005,-0.06,-0.13,-1.16,-0.17,0.24,-0.10,
0.005,-0.06,-0.13,-1.16,-0.19,0.25,-0.09,
0.007,0.02,-0.06,-0.93,-0.19,0.25,-0.09,
0.007,0.02,-0.06,-0.93,-0.20,0.27,-0.09,
0.008,0.02,-0.06,-0.93,-0.21,0.28,-0.09,
0.012,0.02,-0.06,-0.93,-0.24,0.30,-0.09,
0.013,0.02,-0.06,-0.93,-0.24,0.31,-0.08,
0.014,0.02,-0.06,-0.93,-0.26,0.33,-0.08,
0.017,0.22,-0.01,-0.83,-0.26,0.33,-0.08,
0.017,0.22,-0.01,-0.83,-0.27,0.34,-0.08,
0.018,0.22,-0.01,-0.83,-0.29,0.36,-0.08,
0.021,0.22,-0.01,-0.83,-0.31,0.38,-0.08,
0.022,0.22,-0.01,-0.83,-0.32,0.39,-0.08,
0.024,0.22,-0.01,-0.83,-0.34,0.40,-0.09,
0.026,0.38,0.04,-0.73,-0.34,0.40,-0.09,
0.026,0.38,0.04,-0.73,-0.35,0.42,-0.08,
0.028,0.38,0.04,-0.73,-0.36,0.43,-0.09,
0.032,0.38,0.04,-0.73,-0.39,0.45,-0.09,
0.032,0.38,0.04,-0.73,-0.40,0.46,-0.09,
0.034,0.38,0.04,-0.73,-0.42,0.48,-0.09,
0.036,0.52,0.15,-0.67,-0.42,0.48,-0.09,
0.036,0.52,0.15,-0.67,-0.43,0.49,-0.09,
0.038,0.52,0.15,-0.67,-0.45,0.50,-0.10,
0.041,0.52,0.15,-0.67,-0.47,0.52,-0.10,
0.042,0.52,0.15,-0.67,-0.48,0.53,-0.10,
0.045,0.52,0.15,-0.67,-0.50,0.55,-0.10,
0.047,0.63,0.20,-0.55,-0.50,0.55,-0.10,
0.047,0.63,0.20,-0.55,-0.52,0.56,-0.10,
0.048,0.63,0.20,-0.55,-0.53,0.57,-0.10,
0.051,0.63,0.20,-0.55,-0.55,0.59,-0.10,
0.052,0.63,0.20,-0.55,-0.56,0.59,-0.10,
0.055,0.63,0.20,-0.55,-0.57,0.60,-0.10,
0.056,0.61,0.20,-0.27,-0.57,0.60,-0.10,
0.057,0.61,0.20,-0.27,-0.58,0.61,-0.10,
0.058,0.61,0.20,-0.27,-0.59,0.62,-0.10,
0.072,0.61,0.20,-0.27,-0.60,0.62,-0.10,
0.073,0.61,0.20,-0.27,-0.60,0.61,-0.10,
0.073,0.61,0.20,-0.27,-0.61,0.61,-0.10,
0.073,0.74,0.12,0.03,-0.61,0.61,-0.10,
0.074,0.74,0.12,0.03,-0.61,0.60,-0.11,
0.074,0.74,0.12,0.03,-0.61,0.59,-0.11,
0.074,0.74,0.12,0.03,-0.62,0.58,-0.11,
0.074,0.74,0.12,0.03,-0.63,0.57,-0.11,
0.075,0.74,0.12,0.03,-0.63,0.56,-0.11,
0.077,0.75,-0.01,0.24,-0.63,0.56,-0.11,
0.077,0.75,-0.01,0.24,-0.63,0.54,-0.11,
0.096,0.75,-0.01,0.24,-0.63,0.53,-0.11,
0.096,0.75,-0.01,0.24,-0.63,0.51,-0.11,
0.096,0.75,-0.01,0.24,-0.63,0.50,-0.12,
0.097,0.75,-0.01,0.24,-0.63,0.48,-0.12,
0.097,0.77,-0.17,0.53,-0.63,0.48,-0.12,
0.097,0.77,-0.17,0.53,-0.62,0.46,-0.13,
0.097,0.77,-0.17,0.53,-0.61,0.45,-0.14,
0.098,0.77,-0.17,0.53,-0.60,0.42,-0.14,
0.098,0.77,-0.17,0.53,-0.60,0.41,-0.14,
0.098,0.77,-0.17,0.53,-0.59,0.40,-0.14,
0.098,0.71,-0.29,0.78,-0.59,0.40,-0.14,
0.099,0.71,-0.29,0.78,-0.58,0.39,-0.15,
0.123,0.71,-0.29,0.78,-0.57,0.38,-0.15,
0.124,0.71,-0.29,0.78,-0.56,0.38,-0.15,
0.124,0.71,-0.29,0.78,-0.55,0.37,-0.15,
0.124,0.71,-0.29,0.78,-0.54,0.37,-0.16,
0.125,0.71,-0.45,0.84,-0.54,0.37,-0.16,
0.125,0.71,-0.45,0.84,-0.53,0.37,-0.16,
0.125,0.71,-0.45,0.84,-0.52,0.36,-0.17,
0.125,0.71,-0.45,0.84,-0.50,0.36,-0.18,
0.126,0.71,-0.45,0.84,-0.50,0.36,-0.18,
0.126,0.71,-0.45,0.84,-0.49,0.36,-0.18,
0.126,0.69,-0.52,0.69,-0.49,0.36,-0.18,
0.126,0.69,-0.52,0.69,-0.48,0.37,-0.19,
0.127,0.69,-0.52,0.69,-0.47,0.37,-0.19,
0.127,0.69,-0.52,0.69,-0.46,0.39,-0.20,
0.127,0.69,-0.52,0.69,-0.45,0.39,-0.20,
0.127,0.69,-0.52,0.69,-0.45,0.40,-0.21,
0.127,0.72,-0.60,0.40,-0.45,0.40,-0.21,
0.128,0.72,-0.60,0.40,-0.44,0.41,-0.22,
0.132,0.72,-0.60,0.40,-0.43,0.42,-0.22,
0.133,0.72,-0.60,0.40,-0.43,0.43,-0.23,
0.133,0.72,-0.60,0.40,-0.42,0.44,-0.24,
0.134,0.72,-0.60,0.40,-0.42,0.45,-0.25,
0.136,0.74,-0.54,-0.00,-0.42,0.45,-0.25,
0.136,0.74,-0.54,-0.00,-0.42,0.46,-0.26,
0.138,0.74,-0.54,-0.00,-0.42,0.46,-0.26,
0.141,0.74,-0.54,-0.00,-0.42,0.48,-0.28,
0.142,0.74,-0.54,-0.00,-0.42,0.48,-0.28,
0.145,0.74,-0.54,-0.00,-0.42,0.49,-0.29,
0.147,0.85,-0.45,-0.28,-0.42,0.49,-0.29,
0.148,0.85,-0.45,-0.28,-0.41,0.50,-0.31,
0.149,0.85,-0.45,-0.28,-0.41,0.50,-0.31,
0.151,0.85,-0.45,-0.28,-0.41,0.51,-0.32,
0.154,0.85,-0.45,-0.28,-0.40,0.51,-0.32,
0.154,0.85,-0.45,-0.28,-0.40,0.52,-0.32,
0.159,0.65,-0.29,-0.36,-0.40,0.52,-0.32,
0.161,0.65,-0.29,-0.36,-0.40,0.52,-0.33,
0.17,0.65,-0.29,-0.36,-0.39,0.52,-0.33,
0.171,0.65,-0.29,-0.36,-0.39,0.51,-0.33,
0.172,0.65,-0.29,-0.36,-0.39,0.51,-0.34,
0.172,0.65,-0.29,-0.36,-0.39,0.51,-0.34,
0.173,0.50,-0.34,-0.45,-0.39,0.51,-0.34,
0.173,0.50,-0.34,-0.45,-0.39,0.50,-0.34,
0.173,0.50,-0.34,-0.45,-0.39,0.49,-0.34,
0.174,0.50,-0.34,-0.45,-0.39,0.48,-0.34,
0.174,0.50,-0.34,-0.45,-0.39,0.48,-0.34,
0.175,0.50,-0.34,-0.45,-0.39,0.48,-0.34,
0.177,0.46,-0.44,-0.42,-0.39,0.48,-0.34,
0.177,0.46,-0.44,-0.42,-0.39,0.47,-0.34,
0.178,0.46,-0.44,-0.42,-0.38,0.47,-0.34,
0.181,0.46,-0.44,-0.42,-0.38,0.47,-0.35,
0.183,0.46,-0.44,-0.42,-0.37,0.47,-0.35,
0.184,0.46,-0.44,-0.42,-0.37,0.47,-0.35,
0.186,0.58,-0.48,-0.32,-0.37,0.47,-0.35,
0.186,0.58,-0.48,-0.32,-0.36,0.47,-0.35,
0.188,0.58,-0.48,-0.32,-0.36,0.46,-0.35,
0.191,0.58,-0.48,-0.32,-0.36,0.46,-0.35,
0.192,0.58,-0.48,-0.32,-0.35,0.46,-0.35,
0.194,0.58,-0.48,-0.32,-0.35,0.45,-0.35,
0.197,0.61,-0.36,-0.22,-0.35,0.45,-0.35,
0.197,0.61,-0.36,-0.22,-0.34,0.44,-0.35,
0.198,0.61,-0.36,-0.22,-0.34,0.43,-0.35,
0.204,0.61,-0.36,-0.22,-0.34,0.41,-0.35,
0.205,0.61,-0.36,-0.22,-0.34,0.40,-0.35,
0.207,0.61,-0.36,-0.22,-0.33,0.39,-0.35,
0.227,0.67,-0.28,-0.11,-0.33,0.39,-0.35,
0.228,0.67,-0.28,-0.11,-0.33,0.38,-0.35,
0.228,0.67,-0.28,-0.11,-0.32,0.37,-0.35,
0.228,0.67,-0.28,-0.11,-0.32,0.35,-0.35,
0.228,0.67,-0.28,-0.11,-0.32,0.34,-0.35,
0.228,0.67,-0.28,-0.11,-0.32,0.34,-0.35,
0.229,0.78,-0.21,-0.06,-0.32,0.34,-0.35,
0.229,0.78,-0.21,-0.06,-0.31,0.33,-0.35,
0.229,0.78,-0.21,-0.06,-0.31,0.33,-0.36,
0.229,0.78,-0.21,-0.06,-0.30,0.32,-0.36,
0.229,0.78,-0.21,-0.06,-0.30,0.31,-0.37,
0.23,0.78,-0.21,-0.06,-0.30,0.31,-0.37,
0.23,0.95,-0.18,-0.07,-0.30,0.31,-0.37,
0.25,0.95,-0.18,-0.07,-0.30,0.30,-0.38,
0.25,0.95,-0.18,-0.07,-0.30,0.30,-0.39,
0.251,0.95,-0.18,-0.07,-0.29,0.30,-0.40,
0.251,0.95,-0.18,-0.07,-0.29,0.30,-0.40,
0.251,0.95,-0.18,-0.07,-0.29,0.29,-0.41,
0.251,1.08,-0.09,-0.06,-0.29,0.29,-0.41,
0.252,1.08,-0.09,-0.06,-0.29,0.29,-0.42,
0.252,1.08,-0.09,-0.06,-0.28,0.29,-0.43,
0.252,1.08,-0.09,-0.06,-0.27,0.29,-0.44,
0.253,1.08,-0.09,-0.06,-0.27,0.28,-0.44,
0.253,1.08,-0.09,-0.06,-0.27,0.28,-0.45,
0.253,1.28,-0.10,0.09,-0.27,0.28,-0.45,
0.253,1.28,-0.10,0.09,-0.26,0.27,-0.46,
0.254,1.28,-0.10,0.09,-0.26,0.25,-0.47,
0.254,1.28,-0.10,0.09,-0.25,0.23,-0.47,
0.254,1.28,-0.10,0.09,-0.25,0.22,-0.48,
0.254,1.28,-0.10,0.09,-0.24,0.21,-0.48,
0.261,1.31,-0.04,0.39,-0.24,0.21,-0.48,
0.261,1.31,-0.04,0.39,-0.23,0.20,-0.48,
0.262,1.31,-0.04,0.39,-0.22,0.20,-0.48,
0.262,1.31,-0.04,0.39,-0.21,0.18,-0.48,
0.265,1.31,-0.04,0.39,-0.21,0.18,-0.48,
0.266,1.31,-0.04,0.39,-0.20,0.17,-0.48,
0.267,1.16,0.12,0.57,-0.20,0.17,-0.48,
0.267,1.16,0.12,0.57,-0.19,0.16,-0.47,
0.268,1.16,0.12,0.57,-0.19,0.15,-0.47,
0.271,1.16,0.12,0.57,-0.18,0.13,-0.46,
0.272,1.16,0.12,0.57,-0.18,0.13,-0.45,
0.274,1.16,0.12,0.57,-0.17,0.12,-0.44,
0.277,0.82,0.23,0.60,-0.17,0.12,-0.44,
0.278,0.82,0.23,0.60,-0.17,0.11,-0.43,
0.279,0.82,0.23,0.60,-0.17,0.11,-0.42,
0.282,0.82,0.23,0.60,-0.17,0.09,-0.41,
0.283,0.82,0.23,0.60,-0.17,0.09,-0.40,
0.284,0.82,0.23,0.60,-0.17,0.08,-0.40,
0.287,0.69,0.14,0.50,-0.17,0.08,-0.40,
0.287,0.69,0.14,0.50,-0.18,0.07,-0.39,
0.288,0.69,0.14,0.50,-0.18,0.06,-0.38,
0.291,0.69,0.14,0.50,-0.19,0.04,-0.38,
0.294,0.69,0.14,0.50,-0.20,0.03,-0.38,
0.294,0.69,0.14,0.50,-0.21,0.02,-0.38,
0.296,0.69,0.01,0.42,-0.21,0.02,-0.38,
0.297,0.69,0.01,0.42,-0.22,0.02,-0.37,
0.298,0.69,0.01,0.42,-0.22,0.01,-0.37,
0.301,0.69,0.01,0.42,-0.24,0.00,-0.37,
0.302,0.69,0.01,0.42,-0.24,-0.00,-0.37,
0.304,0.69,0.01,0.42,-0.25,-0.00,-0.37,
0.306,0.74,-0.10,0.43,-0.25,-0.00,-0.37,
0.306,0.74,-0.10,0.43,-0.26,-0.00,-0.37,
0.308,0.74,-0.10,0.43,-0.27,-0.00,-0.38,
0.311,0.74,-0.10,0.43,-0.28,-0.00,-0.38,
0.312,0.74,-0.10,0.43,-0.28,0.00,-0.38,
0.314,0.74,-0.10,0.43,-0.29,0.00,-0.38,
0.316,0.82,-0.16,0.53,-0.29,0.00,-0.38,
0.316,0.82,-0.16,0.53,-0.29,0.01,-0.39,
0.318,0.82,-0.16,0.53,-0.30,0.02,-0.39,
0.321,0.82,-0.16,0.53,-0.30,0.02,-0.40,
0.322,0.82,-0.16,0.53,-0.30,0.03,-0.40,
0.324,0.82,-0.16,0.53,-0.31,0.03,-0.41,
0.326,0.89,-0.24,0.80,-0.31,0.03,-0.41,
0.326,0.89,-0.24,0.80,-0.31,0.04,-0.42,
0.328,0.89,-0.24,0.80,-0.31,0.05,-0.42,
0.331,0.89,-0.24,0.80,-0.31,0.06,-0.44,
0.332,0.89,-0.24,0.80,-0.30,0.06,-0.44,
0.334,0.89,-0.24,0.80,-0.30,0.07,-0.45,
0.336,0.88,-0.31,1.05,-0.30,0.07,-0.45,
0.336,0.88,-0.31,1.05,-0.30,0.08,-0.46,
0.338,0.88,-0.31,1.05,-0.30,0.09,-0.47,
0.341,0.88,-0.31,1.05,-0.29,0.12,-0.48,
0.345,0.88,-0.31,1.05,-0.29,0.13,-0.48,
0.345,0.88,-0.31,1.05,-0.30,0.15,-0.49,
0.346,0.82,-0.41,0.96,-0.30,0.15,-0.49,
0.346,0.82,-0.41,0.96,-0.30,0.18,-0.50,
0.353,0.82,-0.41,0.96,-0.30,0.20,-0.51,
0.353,0.82,-0.41,0.96,-0.31,0.23,-0.51,
0.353,0.82,-0.41,0.96,-0.31,0.24,-0.52,
0.354,0.82,-0.41,0.96,-0.31,0.26,-0.52,
0.357,0.66,-0.45,0.72,-0.31,0.26,-0.52,
0.357,0.66,-0.45,0.72,-0.31,0.28,-0.53,
0.358,0.66,-0.45,0.72,-0.31,0.29,-0.53,
0.362,0.66,-0.45,0.72,-0.31,0.32,-0.54,
0.362,0.66,-0.45,0.72,-0.31,0.32,-0.54,
0.364,0.66,-0.45,0.72,-0.31,0.33,-0.54,
0.366,0.55,-0.51,0.53,-0.31,0.33,-0.54,
0.366,0.55,-0.51,0.53,-0.31,0.34,-0.54,
0.368,0.55,-0.51,0.53,-0.31,0.36,-0.54,
0.371,0.55,-0.51,0.53,-0.31,0.37,-0.54,
0.372,0.55,-0.51,0.53,-0.31,0.38,-0.54,
0.374,0.55,-0.51,0.53,-0.31,0.39,-0.53,
0.377,0.39,-0.51,0.42,-0.31,0.39,-0.53,
0.378,0.39,-0.51,0.42,-0.31,0.40,-0.53,
0.379,0.39,-0.51,0.42,-0.30,0.41,-0.53,
0.381,0.39,-0.51,0.42,-0.30,0.41,-0.52,
0.382,0.39,-0.51,0.42,-0.30,0.41,-0.52,
0.384,0.39,-0.51,0.42,-0.30,0.41,-0.52,
0.386,0.31,-0.51,0.34,-0.30,0.41,-0.52,
0.386,0.31,-0.51,0.34,-0.29,0.41,-0.51,
0.388,0.31,-0.51,0.34,-0.29,0.41,-0.51,
0.391,0.31,-0.51,0.34,-0.28,0.40,-0.50,
0.393,0.31,-0.51,0.34,-0.28,0.40,-0.50,
0.406,0.31,-0.51,0.34,-0.27,0.39,-0.50,
0.406,0.32,-0.44,0.28,-0.27,0.39,-0.50,
0.406,0.32,-0.44,0.28,-0.27,0.38,-0.49,
0.406,0.32,-0.44,0.28,-0.26,0.37,-0.49,
0.406,0.32,-0.44,0.28,-0.25,0.35,-0.49,
0.407,0.32,-0.44,0.28,-0.25,0.35,-0.49,
0.407,0.32,-0.44,0.28,-0.24,0.33,-0.49,
0.407,0.49,-0.43,0.23,-0.24,0.33,-0.49,
0.407,0.49,-0.43,0.23,-0.24,0.32,-0.50,
0.41,0.49,-0.43,0.23,-0.23,0.30,-0.50,
0.411,0.49,-0.43,0.23,-0.22,0.28,-0.50,
0.412,0.49,-0.43,0.23,-0.22,0.27,-0.50,
0.414,0.49,-0.43,0.23,-0.22,0.26,-0.50,
0.416,0.63,-0.34,0.20,-0.22,0.26,-0.50,
0.416,0.63,-0.34,0.20,-0.21,0.24,-0.51,
0.42,0.63,-0.34,0.20,-0.20,0.22,-0.51,
0.421,0.63,-0.34,0.20,-0.20,0.19,-0.51,
0.422,0.63,-0.34,0.20,-0.19,0.17,-0.51,
0.424,0.63,-0.34,0.20,-0.19,0.16,-0.51,
0.426,0.69,-0.34,0.14,-0.19,0.16,-0.51,
0.427,0.69,-0.34,0.14,-0.19,0.14,-0.51,
0.431,0.69,-0.34,0.14,-0.19,0.12,-0.52,
0.431,0.69,-0.34,0.14,-0.18,0.09,-0.52,
0.44,0.69,-0.34,0.14,-0.18,0.08,-0.52,
0.44,0.69,-0.34,0.14,-0.18,0.06,-0.52,
0.44,0.71,-0.35,0.08,-0.18,0.06,-0.52,
0.44,0.71,-0.35,0.08,-0.17,0.05,-0.53,
0.441,0.71,-0.35,0.08,-0.17,0.03,-0.53,
0.441,0.71,-0.35,0.08,-0.16,0.02,-0.53,
0.445,0.71,-0.35,0.08,-0.16,0.01,-0.53,
0.445,0.71,-0.35,0.08,-0.16,0.00,-0.54,
0.446,0.75,-0.43,0.08,-0.16,0.00,-0.54,
0.447,0.75,-0.43,0.08,-0.15,-0.01,-0.54,
0.45,0.75,-0.43,0.08,-0.15,-0.02,-0.54,
0.451,0.75,-0.43,0.08,-0.14,-0.03,-0.54,
0.452,0.75,-0.43,0.08,-0.14,-0.03,-0.54,
0.457,0.75,-0.43,0.08,-0.14,-0.04,-0.54,
0.457,0.76,-0.47,0.04,-0.14,-0.04,-0.54,
0.457,0.76,-0.47,0.04,-0.14,-0.05,-0.54,
0.459,0.76,-0.47,0.04,-0.13,-0.06,-0.54,
0.464,0.76,-0.47,0.04,-0.13,-0.07,-0.54,
0.464,0.76,-0.47,0.04,-0.13,-0.07,-0.54,
0.465,0.76,-0.47,0.04,-0.13,-0.08,-0.54,
0.468,0.84,-0.48,0.02,-0.13,-0.08,-0.54,
0.468,0.84,-0.48,0.02,-0.13,-0.08,-0.54,
0.468,0.84,-0.48,0.02,-0.13,-0.09,-0.54,
0.472,0.84,-0.48,0.02,-0.13,-0.09,-0.54,
0.472,0.84,-0.48,0.02,-0.12,-0.09,-0.54,
0.475,0.84,-0.48,0.02,-0.12,-0.10,-0.54,
0.479,0.96,-0.44,0.04,-0.12,-0.10,-0.54,
0.48,0.96,-0.44,0.04,-0.12,-0.10,-0.54,
0.48,0.96,-0.44,0.04,-0.12,-0.10,-0.54,
0.483,0.96,-0.44,0.04,-0.12,-0.11,-0.54,
0.484,0.96,-0.44,0.04,-0.12,-0.11,-0.54,
0.484,0.96,-0.44,0.04,-0.12,-0.12,-0.54,
0.489,1.06,-0.43,0.07,-0.12,-0.12,-0.54,
0.489,1.06,-0.43,0.07,-0.12,-0.12,-0.55,
0.489,1.06,-0.43,0.07,-0.12,-0.13,-0.55,
0.496,1.06,-0.43,0.07,-0.12,-0.14,-0.56,
0.496,1.06,-0.43,0.07,-0.12,-0.14,-0.56,
0.497,1.06,-0.43,0.07,-0.12,-0.15,-0.56,
0.497,1.14,-0.43,0.09,-0.12,-0.15,-0.56,
0.497,1.14,-0.43,0.09,-0.13,-0.16,-0.57,
0.499,1.14,-0.43,0.09,-0.12,-0.17,-0.57,
0.501,1.14,-0.43,0.09,-0.12,-0.18,-0.58,
0.502,1.14,-0.43,0.09,-0.13,-0.18,-0.58,
0.504,1.14,-0.43,0.09,-0.12,-0.19,-0.59,
0.506,1.21,-0.50,0.08,-0.12,-0.19,-0.59,
0.506,1.21,-0.50,0.08,-0.13,-0.20,-0.59,
0.516,1.21,-0.50,0.08,-0.13,-0.21,-0.59,
0.517,1.21,-0.50,0.08,-0.13,-0.23,-0.60,
0.517,1.21,-0.50,0.08,-0.13,-0.23,-0.60,
0.517,1.21,-0.50,0.08,-0.13,-0.25,-0.60,
0.517,1.07,-0.47,0.09,-0.13,-0.25,-0.60,
0.517,1.07,-0.47,0.09,-0.13,-0.26,-0.60,
0.521,1.07,-0.47,0.09,-0.14,-0.27,-0.60,
0.523,1.07,-0.47,0.09,-0.14,-0.29,-0.60,
0.524,1.07,-0.47,0.09,-0.14,-0.30,-0.60,
0.548,1.07,-0.47,0.09,-0.14,-0.31,-0.61,
0.548,1.06,-0.51,0.13,-0.14,-0.31,-0.61,
0.549,1.06,-0.51,0.13,-0.14,-0.33,-0.61,
0.549,1.06,-0.51,0.13,-0.14,-0.34,-0.61,
0.549,1.06,-0.51,0.13,-0.15,-0.35,-0.62,
0.549,1.06,-0.51,0.13,-0.15,-0.35,-0.62,
0.549,1.06,-0.51,0.13,-0.15,-0.36,-0.63,
0.55,1.12,-0.55,0.13,-0.15,-0.36,-0.63,
0.55,1.12,-0.55,0.13,-0.15,-0.36,-0.63,
0.55,1.12,-0.55,0.13,-0.16,-0.37,-0.64,
0.55,1.12,-0.55,0.13,-0.16,-0.37,-0.65,
0.55,1.12,-0.55,0.13,-0.16,-0.37,-0.66,
0.551,1.12,-0.55,0.13,-0.16,-0.37,-0.66,
0.551,1.20,-0.60,0.23,-0.16,-0.37,-0.66,
0.551,1.20,-0.60,0.23,-0.17,-0.37,-0.67,
0.551,1.20,-0.60,0.23,-0.17,-0.36,-0.68,
0.551,1.20,-0.60,0.23,-0.16,-0.36,-0.69,
0.555,1.20,-0.60,0.23,-0.17,-0.35,-0.69,
0.557,1.20,-0.60,0.23,-0.17,-0.35,-0.70,
0.573,1.17,-0.61,0.34,-0.17,-0.35,-0.70,
0.573,1.17,-0.61,0.34,-0.17,-0.34,-0.70,
0.573,1.17,-0.61,0.34,-0.17,-0.33,-0.71,
0.592,1.17,-0.61,0.34,-0.16,-0.32,-0.72,
0.593,1.17,-0.61,0.34,-0.17,-0.31,-0.73,
0.593,1.17,-0.61,0.34,-0.16,-0.31,-0.73,
0.593,1.14,-0.69,0.42,-0.16,-0.31,-0.73,
0.593,1.14,-0.69,0.42,-0.17,-0.30,-0.73,
0.594,1.14,-0.69,0.42,-0.16,-0.29,-0.74,
0.594,1.14,-0.69,0.42,-0.16,-0.28,-0.74,
0.594,1.14,-0.69,0.42,-0.16,-0.28,-0.75,
0.594,1.14,-0.69,0.42,-0.16,-0.27,-0.75,
0.595,1.10,-0.65,0.42,-0.16,-0.27,-0.75,
0.595,1.10,-0.65,0.42,-0.16,-0.27,-0.75,
0.595,1.10,-0.65,0.42,-0.16,-0.27,-0.75,
0.595,1.10,-0.65,0.42,-0.15,-0.26,-0.76,
0.596,1.10,-0.65,0.42,-0.15,-0.26,-0.76,
0.596,1.10,-0.65,0.42,-0.15,-0.26,-0.76,
0.596,1.08,-0.63,0.49,-0.15,-0.26,-0.76,
0.596,1.08,-0.63,0.49,-0.14,-0.25,-0.77,
0.597,1.08,-0.63,0.49,-0.13,-0.25,-0.77,
0.597,1.08,-0.63,0.49,-0.12,-0.25,-0.77,
0.597,1.08,-0.63,0.49,-0.12,-0.25,-0.77,
0.597,1.08,-0.63,0.49,-0.11,-0.25,-0.78,
0.598,1.07,-0.58,0.53,-0.11,-0.25,-0.78,
0.599,1.07,-0.58,0.53,-0.10,-0.25,-0.78,
0.599,1.07,-0.58,0.53,-0.10,-0.24,-0.78,
0.603,1.07,-0.58,0.53,-0.08,-0.24,-0.79,
0.603,1.07,-0.58,0.53,-0.08,-0.24,-0.79,
0.605,1.07,-0.58,0.53,-0.07,-0.23,-0.80,
0.606,1.06,-0.64,0.54,-0.07,-0.23,-0.80,
0.607,1.06,-0.64,0.54,-0.06,-0.23,-0.80,
0.612,1.06,-0.64,0.54,-0.05,-0.23,-0.80,
0.613,1.06,-0.64,0.54,-0.03,-0.23,-0.81,
0.613,1.06,-0.64,0.54,-0.03,-0.23,-0.81,
0.617,1.06,-0.64,0.54,-0.02,-0.23,-0.81,
0.618,0.97,-0.61,0.45,-0.02,-0.23,-0.81,
0.618,0.97,-0.61,0.45,-0.01,-0.24,-0.81,
0.618,0.97,-0.61,0.45,-0.01,-0.24,-0.81,
0.622,0.97,-0.61,0.45,0.00,-0.23,-0.81,
0.622,0.97,-0.61,0.45,0.00,-0.24,-0.81,
0.63,0.97,-0.61,0.45,0.01,-0.24,-0.82,
0.63,0.95,-0.57,0.29,0.01,-0.24,-0.82,
0.63,0.95,-0.57,0.29,0.01,-0.24,-0.82,
0.63,0.95,-0.57,0.29,0.01,-0.24,-0.82,
0.631,0.95,-0.57,0.29,0.01,-0.24,-0.82,
0.635,0.95,-0.57,0.29,0.01,-0.24,-0.82,
0.636,0.95,-0.57,0.29,0.01,-0.24,-0.83,
0.637,0.96,-0.48,0.08,0.01,-0.24,-0.83,
0.637,0.96,-0.48,0.08,0.01,-0.24,-0.83,
0.638,0.96,-0.48,0.08,0.01,-0.24,-0.83,
0.643,0.96,-0.48,0.08,0.01,-0.24,-0.83,
0.644,0.96,-0.48,0.08,0.01,-0.24,-0.83,
0.644,0.96,-0.48,0.08,0.00,-0.24,-0.83,
0.646,0.97,-0.44,-0.12,0.00,-0.24,-0.83,
0.646,0.97,-0.44,-0.12,0.00,-0.24,-0.84,
0.648,0.97,-0.44,-0.12,-0.01,-0.24,-0.84,
0.651,0.97,-0.44,-0.12,-0.01,-0.24,-0.84,
0.652,0.97,-0.44,-0.12,-0.03,-0.25,-0.83,
0.654,0.97,-0.44,-0.12,-0.03,-0.25,-0.83,
0.656,0.90,-0.38,-0.27,-0.03,-0.25,-0.83,
0.656,0.90,-0.38,-0.27,-0.04,-0.25,-0.83,
0.658,0.90,-0.38,-0.27,-0.04,-0.26,-0.83,
0.661,0.90,-0.38,-0.27,-0.05,-0.26,-0.83,
0.665,0.90,-0.38,-0.27,-0.05,-0.26,-0.82,
0.666,0.90,-0.38,-0.27,-0.06,-0.26,-0.82,
0.668,0.90,-0.39,-0.22,-0.06,-0.26,-0.82,
0.668,0.90,-0.39,-0.22,-0.06,-0.27,-0.82,
0.668,0.90,-0.39,-0.22,-0.06,-0.27,-0.82,
0.671,0.90,-0.39,-0.22,-0.06,-0.28,-0.82,
0.673,0.90,-0.39,-0.22,-0.06,-0.28,-0.82,
0.674,0.90,-0.39,-0.22,-0.06,-0.28,-0.82,
0.677,0.98,-0.35,-0.11,-0.06,-0.28,-0.82,
0.677,0.98,-0.35,-0.11,-0.07,-0.28,-0.83,
0.679,0.98,-0.35,-0.11,-0.07,-0.29,-0.83,
0.681,0.98,-0.35,-0.11,-0.07,-0.29,-0.84,
0.682,0.98,-0.35,-0.11,-0.07,-0.29,-0.84,
0.684,0.98,-0.35,-0.11,-0.07,-0.30,-0.84,
0.686,1.08,-0.28,-0.03,-0.07,-0.30,-0.84,
0.686,1.08,-0.28,-0.03,-0.07,-0.30,-0.85,
0.688,1.08,-0.28,-0.03,-0.07,-0.30,-0.85,
0.691,1.08,-0.28,-0.03,-0.07,-0.30,-0.85,
0.692,1.08,-0.28,-0.03,-0.07,-0.30,-0.85,
0.694,1.08,-0.28,-0.03,-0.08,-0.30,-0.86,
0.696,1.09,-0.21,-0.05,-0.08,-0.30,-0.86,
0.697,1.09,-0.21,-0.05,-0.08,-0.30,-0.86,
0.698,1.09,-0.21,-0.05,-0.08,-0.29,-0.86,
0.701,1.09,-0.21,-0.05,-0.09,-0.29,-0.87,
0.702,1.09,-0.21,-0.05,-0.09,-0.29,-0.87,
0.704,1.09,-0.21,-0.05,-0.09,-0.29,-0.87,
0.706,1.18,-0.16,-0.07,-0.09,-0.29,-0.87,
0.707,1.18,-0.16,-0.07,-0.09,-0.29,-0.87,
0.708,1.18,-0.16,-0.07,-0.10,-0.29,-0.88,
0.711,1.18,-0.16,-0.07,-0.11,-0.29,-0.88,
0.712,1.18,-0.16,-0.07,-0.11,-0.28,-0.88,
0.714,1.18,-0.16,-0.07,-0.11,-0.28,-0.88,
0.716,1.11,-0.15,-0.10,-0.11,-0.28,-0.88,
0.716,1.11,-0.15,-0.10,-0.12,-0.28,-0.88,
0.718,1.11,-0.15,-0.10,-0.12,-0.28,-0.87,
0.721,1.11,-0.15,-0.10,-0.13,-0.28,-0.87,
0.722,1.11,-0.15,-0.10,-0.13,-0.28,-0.87,
0.724,1.11,-0.15,-0.10,-0.13,-0.28,-0.87,
0.727,1.03,-0.12,-0.04,-0.13,-0.28,-0.87,
0.741,1.03,-0.12,-0.04,-0.14,-0.27,-0.86,
0.742,1.03,-0.12,-0.04,-0.14,-0.27,-0.86,
0.742,1.03,-0.12,-0.04,-0.14,-0.27,-0.85,
0.742,1.03,-0.12,-0.04,-0.14,-0.26,-0.85,
0.742,1.03,-0.12,-0.04,-0.14,-0.26,-0.85,
0.742,0.98,-0.04,0.06,-0.14,-0.26,-0.85,
0.742,0.98,-0.04,0.06,-0.14,-0.25,-0.85,
0.743,0.98,-0.04,0.06,-0.14,-0.24,-0.85,
0.743,0.98,-0.04,0.06,-0.14,-0.23,-0.85,
0.743,0.98,-0.04,0.06,-0.14,-0.21,-0.85,
0.749,0.98,-0.04,0.06,-0.14,-0.21,-0.85,
0.75,0.98,-0.03,0.10,-0.14,-0.21,-0.85,
0.75,0.98,-0.03,0.10,-0.15,-0.19,-0.85,
0.75,0.98,-0.03,0.10,-0.15,-0.18,-0.85,
0.751,0.98,-0.03,0.10,-0.15,-0.16,-0.85,
0.752,0.98,-0.03,0.10,-0.15,-0.15,-0.85,
0.754,0.98,-0.03,0.10,-0.15,-0.14,-0.85,
0.771,0.90,-0.02,0.12,-0.15,-0.14,-0.85,
0.771,0.90,-0.02,0.12,-0.15,-0.13,-0.85,
0.771,0.90,-0.02,0.12,-0.16,-0.12,-0.84,
0.771,0.90,-0.02,0.12,-0.16,-0.10,-0.84,
0.772,0.90,-0.02,0.12,-0.16,-0.09,-0.84,
0.772,0.90,-0.02,0.12,-0.16,-0.09,-0.84,
0.772,0.80,-0.02,0.08,-0.16,-0.09,-0.84,
0.772,0.80,-0.02,0.08,-0.16,-0.08,-0.85,
0.772,0.80,-0.02,0.08,-0.17,-0.07,-0.85,
0.772,0.80,-0.02,0.08,-0.17,-0.06,-0.85,
0.772,0.80,-0.02,0.08,-0.17,-0.06,-0.85,
0.777,0.80,-0.02,0.08,-0.17,-0.06,-0.85,
0.777,0.71,-0.03,0.10,-0.17,-0.06,-0.85,
0.777,0.71,-0.03,0.10,-0.17,-0.06,-0.85,
0.778,0.71,-0.03,0.10,-0.17,-0.06,-0.85,
0.782,0.71,-0.03,0.10,-0.17,-0.05,-0.85,
0.782,0.71,-0.03,0.10,-0.17,-0.05,-0.86,
0.784,0.71,-0.03,0.10,-0.17,-0.05,-0.86,
0.786,0.69,0.04,0.20,-0.17,-0.05,-0.86,
0.786,0.69,0.04,0.20,-0.17,-0.04,-0.86,
0.788,0.69,0.04,0.20,-0.16,-0.04,-0.87,
0.791,0.69,0.04,0.20,-0.16,-0.03,-0.87,
0.792,0.69,0.04,0.20,-0.16,-0.03,-0.88,
0.794,0.69,0.04,0.20,-0.16,-0.04,-0.88,
0.796,0.63,0.06,0.31,-0.16,-0.04,-0.88,
0.796,0.63,0.06,0.31,-0.16,-0.04,-0.89,
0.798,0.63,0.06,0.31,-0.15,-0.05,-0.89,
0.801,0.63,0.06,0.31,-0.15,-0.06,-0.90,
0.802,0.63,0.06,0.31,-0.15,-0.08,-0.91,
0.804,0.63,0.06,0.31,-0.15,-0.08,-0.92,
0.807,0.66,-0.10,0.41,-0.15,-0.08,-0.92,
0.807,0.66,-0.10,0.41,-0.15,-0.09,-0.92,
0.808,0.66,-0.10,0.41,-0.15,-0.10,-0.93,
0.811,0.66,-0.10,0.41,-0.14,-0.08,-0.93,
0.812,0.66,-0.10,0.41,-0.13,-0.07,-0.93,
0.814,0.66,-0.10,0.41,-0.13,-0.06,-0.93,
0.817,0.42,0.09,0.39,-0.13,-0.06,-0.93,
0.817,0.42,0.09,0.39,-0.12,-0.05,-0.93,
0.818,0.42,0.09,0.39,-0.12,-0.04,-0.94,
0.821,0.42,0.09,0.39,-0.11,-0.04,-0.94,
0.824,0.42,0.09,0.39,-0.11,-0.04,-0.94,
0.824,0.42,0.09,0.39,-0.11,-0.04,-0.94,
0.826,0.43,0.23,0.27,-0.11,-0.04,-0.94,
0.826,0.43,0.23,0.27,-0.11,-0.03,-0.94,
0.828,0.43,0.23,0.27,-0.10,-0.03,-0.94,
0.831,0.43,0.23,0.27,-0.10,-0.03,-0.95,
0.832,0.43,0.23,0.27,-0.10,-0.03,-0.95,
0.834,0.43,0.23,0.27,-0.09,-0.03,-0.95,
0.84,0.49,0.38,0.24,-0.09,-0.03,-0.95,
0.84,0.49,0.38,0.24,-0.09,-0.03,-0.95,
0.841,0.49,0.38,0.24,-0.09,-0.03,-0.95,
0.843,0.49,0.38,0.24,-0.08,-0.03,-0.95,
0.844,0.49,0.38,0.24,-0.08,-0.03,-0.95,
0.845,0.49,0.38,0.24,-0.08,-0.03,-0.95,
0.847,0.55,0.40,0.29,-0.08,-0.03,-0.95,
0.848,0.55,0.40,0.29,-0.07,-0.03,-0.95,
0.849,0.55,0.40,0.29,-0.07,-0.03,-0.95,
0.851,0.55,0.40,0.29,-0.07,-0.02,-0.95,
0.852,0.55,0.40,0.29,-0.07,-0.01,-0.95,
0.854,0.55,0.40,0.29,-0.07,-0.01,-0.95,
0.858,0.51,0.39,0.24,-0.07,-0.01,-0.95,
0.859,0.51,0.39,0.24,-0.06,-0.00,-0.95,
0.859,0.51,0.39,0.24,-0.07,0.01,-0.95,
0.862,0.51,0.39,0.24,-0.07,0.01,-0.95,
0.863,0.51,0.39,0.24,-0.07,0.01,-0.96,
0.864,0.51,0.39,0.24,-0.07,0.00,-0.96,
0.866,0.57,0.47,0.06,-0.07,0.00,-0.96,
0.866,0.57,0.47,0.06,-0.07,0.00,-0.97,
0.868,0.57,0.47,0.06,-0.08,-0.00,-0.97,
0.871,0.57,0.47,0.06,-0.08,-0.00,-0.98,
0.874,0.57,0.47,0.06,-0.09,-0.00,-0.99,
0.874,0.57,0.47,0.06,-0.09,-0.01,-0.99,
0.88,0.59,0.57,-0.13,-0.09,-0.01,-0.99,
0.88,0.59,0.57,-0.13,-0.10,-0.01,-1.00,
0.88,0.59,0.57,-0.13,-0.10,-0.02,-1.00,
0.881,0.59,0.57,-0.13,-0.11,-0.03,-1.01,
0.883,0.59,0.57,-0.13,-0.11,-0.03,-1.01,
0.884,0.59,0.57,-0.13,-0.12,-0.04,-1.01,
0.886,0.54,0.58,-0.21,-0.12,-0.04,-1.01,
0.886,0.54,0.58,-0.21,-0.12,-0.05,-1.02,
0.888,0.54,0.58,-0.21,-0.12,-0.07,-1.02,
0.897,0.54,0.58,-0.21,-0.13,-0.09,-1.02,
0.898,0.54,0.58,-0.21,-0.13,-0.10,-1.02,
0.913,0.54,0.58,-0.21,-0.13,-0.13,-1.03,
0.913,0.49,0.50,-0.21,-0.13,-0.13,-1.03,
0.913,0.49,0.50,-0.21,-0.13,-0.15,-1.03,
0.913,0.49,0.50,-0.21,-0.13,-0.17,-1.03,
0.913,0.49,0.50,-0.21,-0.13,-0.20,-1.04,
0.913,0.49,0.50,-0.21,-0.13,-0.23,-1.04,
0.914,0.49,0.50,-0.21,-0.13,-0.25,-1.04,
0.914,0.36,0.45,-0.10,-0.13,-0.25,-1.04,
0.914,0.36,0.45,-0.10,-0.12,-0.28,-1.05,
0.914,0.36,0.45,-0.10,-0.12,-0.30,-1.05,
0.914,0.36,0.45,-0.10,-0.11,-0.32,-1.05,
0.914,0.36,0.45,-0.10,-0.11,-0.35,-1.05,
0.915,0.36,0.45,-0.10,-0.10,-0.36,-1.05,
0.917,0.20,0.44,0.13,-0.10,-0.36,-1.05,
0.917,0.20,0.44,0.13,-0.09,-0.38,-1.04,
0.919,0.20,0.44,0.13,-0.08,-0.39,-1.04,
0.924,0.20,0.44,0.13,-0.05,-0.40,-1.03,
0.924,0.20,0.44,0.13,-0.05,-0.40,-1.03,
0.925,0.20,0.44,0.13,-0.04,-0.40,-1.03,
0.928,0.16,0.39,0.36,-0.04,-0.40,-1.03,
0.928,0.16,0.39,0.36,-0.03,-0.40,-1.02,
0.929,0.16,0.39,0.36,-0.02,-0.40,-1.02,
0.931,0.16,0.39,0.36,-0.00,-0.39,-1.01,
0.932,0.16,0.39,0.36,0.01,-0.38,-1.00,
0.935,0.16,0.39,0.36,0.02,-0.37,-0.99,
0.936,0.24,0.29,0.44,0.02,-0.37,-0.99,
0.937,0.24,0.29,0.44,0.03,-0.36,-0.99,
0.938,0.24,0.29,0.44,0.04,-0.35,-0.98,
0.941,0.24,0.29,0.44,0.04,-0.33,-0.97,
0.942,0.24,0.29,0.44,0.05,-0.32,-0.96,
0.944,0.24,0.29,0.44,0.06,-0.31,-0.95,
0.947,0.27,0.22,0.29,0.06,-0.31,-0.95,
0.947,0.27,0.22,0.29,0.06,-0.30,-0.94,
0.949,0.27,0.22,0.29,0.07,-0.29,-0.93,
0.951,0.27,0.22,0.29,0.07,-0.28,-0.92,
0.952,0.27,0.22,0.29,0.08,-0.27,-0.91,
0.954,0.27,0.22,0.29,0.08,-0.26,-0.90,
0.958,0.32,0.22,0.16,0.08,-0.26,-0.90,
0.958,0.32,0.22,0.16,0.08,-0.25,-0.89,
0.958,0.32,0.22,0.16,0.08,-0.23,-0.88,
0.961,0.32,0.22,0.16,0.09,-0.22,-0.88,
0.962,0.32,0.22,0.16,0.09,-0.21,-0.87,
0.964,0.32,0.22,0.16,0.09,-0.19,-0.86,
0.968,0.47,0.34,-0.01,0.09,-0.19,-0.86,
0.968,0.47,0.34,-0.01,0.08,-0.18,-0.85,
0.968,0.47,0.34,-0.01,0.09,-0.17,-0.84,
0.971,0.47,0.34,-0.01,0.08,-0.15,-0.83,
0.974,0.47,0.34,-0.01,0.08,-0.15,-0.82,
0.975,0.47,0.34,-0.01,0.08,-0.14,-0.81,
0.976,0.62,0.42,-0.13,0.08,-0.14,-0.81,
0.977,0.62,0.42,-0.13,0.08,-0.14,-0.80,
0.978,0.62,0.42,-0.13,0.08,-0.14,-0.80,
0.981,0.62,0.42,-0.13,0.08,-0.13,-0.79,
0.982,0.62,0.42,-0.13,0.08,-0.13,-0.78,
0.984,0.62,0.42,-0.13,0.07,-0.13,-0.77,
0.986,0.75,0.47,-0.14,0.07,-0.13,-0.77,
0.986,0.75,0.47,-0.14,0.07,-0.13,-0.77,
0.988,0.75,0.47,-0.14,0.07,-0.13,-0.76,
0.991,0.75,0.47,-0.14,0.06,-0.12,-0.76,
0.993,0.75,0.47,-0.14,0.06,-0.12,-0.76,
0.994,0.75,0.47,-0.14,0.06,-0.12,-0.75,
0.996,0.89,0.53,-0.17,0.06,-0.12,-0.75,
0.997,0.89,0.53,-0.17,0.06,-0.12,-0.75,
0.998,0.89,0.53,-0.17,0.05,-0.12,-0.74,
1.001,0.89,0.53,-0.17,0.04,-0.11,-0.74,
1.002,0.89,0.53,-0.17,0.04,-0.11,-0.74,
1.004,0.89,0.53,-0.17,0.03,-0.12,-0.73,
1.007,0.99,0.49,-0.36,0.03,-0.12,-0.73,
1.007,0.99,0.49,-0.36,0.02,-0.12,-0.73,
1.011,0.99,0.49,-0.36,0.02,-0.13,-0.73,
1.011,0.99,0.49,-0.36,0.01,-0.14,-0.73,
1.012,0.99,0.49,-0.36,-0.00,-0.15,-0.72,
1.015,0.99,0.49,-0.36,-0.01,-0.16,-0.72,
1.019,0.99,0.47,-0.59,-0.01,-0.16,-0.72,
1.019,0.99,0.47,-0.59,-0.02,-0.17,-0.72,
1.019,0.99,0.47,-0.59,-0.03,-0.18,-0.72,
1.021,0.99,0.47,-0.59,-0.04,-0.20,-0.72,
1.027,0.99,0.47,-0.59,-0.05,-0.21,-0.72,
1.027,0.99,0.47,-0.59,-0.06,-0.21,-0.72,
1.027,1.03,0.52,-0.76,-0.06,-0.21,-0.72,
1.027,1.03,0.52,-0.76,-0.07,-0.22,-0.72,
1.031,1.03,0.52,-0.76,-0.07,-0.23,-0.72,
1.031,1.03,0.52,-0.76,-0.08,-0.23,-0.72,
1.032,1.03,0.52,-0.76,-0.09,-0.23,-0.72,
1.057,1.03,0.52,-0.76,-0.09,-0.23,-0.72,
1.058,1.02,0.54,-0.88,-0.09,-0.23,-0.72,
1.058,1.02,0.54,-0.88,-0.10,-0.24,-0.73,
1.058,1.02,0.54,-0.88,-0.10,-0.23,-0.73,
1.058,1.02,0.54,-0.88,-0.11,-0.24,-0.73,
1.059,1.02,0.54,-0.88,-0.11,-0.24,-0.73,
1.059,1.02,0.54,-0.88,-0.11,-0.24,-0.73,
1.059,1.02,0.52,-0.86,-0.11,-0.24,-0.73,
1.059,1.02,0.52,-0.86,-0.11,-0.25,-0.74,
1.059,1.02,0.52,-0.86,-0.11,-0.25,-0.74,
1.059,1.02,0.52,-0.86,-0.11,-0.25,-0.74,
1.06,1.02,0.52,-0.86,-0.11,-0.25,-0.75,
1.06,1.02,0.52,-0.86,-0.11,-0.25,-0.75,
1.06,1.04,0.51,-0.77,-0.11,-0.25,-0.75,
1.06,1.04,0.51,-0.77,-0.11,-0.25,-0.75,
1.06,1.04,0.51,-0.77,-0.11,-0.24,-0.76,
1.081,1.04,0.51,-0.77,-0.10,-0.24,-0.76,
1.081,1.04,0.51,-0.77,-0.10,-0.23,-0.77,
1.081,1.04,0.51,-0.77,-0.10,-0.23,-0.77,
1.081,1.06,0.45,-0.68,-0.10,-0.23,-0.77,
1.082,1.06,0.45,-0.68,-0.10,-0.22,-0.77,
1.082,1.06,0.45,-0.68,-0.09,-0.21,-0.78,
1.082,1.06,0.45,-0.68,-0.09,-0.21,-0.79,
1.082,1.06,0.45,-0.68,-0.09,-0.21,-0.79,
1.083,1.06,0.45,-0.68,-0.08,-0.21,-0.79,
1.083,1.05,0.40,-0.50,-0.08,-0.21,-0.79,
1.083,1.05,0.40,-0.50,-0.07,-0.21,-0.79,
1.084,1.05,0.40,-0.50,-0.07,-0.22,-0.80,
1.084,1.05,0.40,-0.50,-0.06,-0.23,-0.80,
1.084,1.05,0.40,-0.50,-0.06,-0.23,-0.80,
1.084,1.05,0.40,-0.50,-0.05,-0.24,-0.81,
1.09,1.06,0.34,-0.33,-0.05,-0.24,-0.81,
1.091,1.06,0.34,-0.33,-0.05,-0.25,-0.81,
1.091,1.06,0.34,-0.33,-0.04,-0.26,-0.81,
1.091,1.06,0.34,-0.33,-0.03,-0.28,-0.82,
1.093,1.06,0.34,-0.33,-0.03,-0.28,-0.82,
1.096,1.06,0.34,-0.33,-0.02,-0.28,-0.82,
1.097,0.82,0.18,-0.22,-0.02,-0.28,-0.82,
1.097,0.82,0.18,-0.22,-0.02,-0.29,-0.82,
1.098,0.82,0.18,-0.22,-0.01,-0.29,-0.81,
1.101,0.82,0.18,-0.22,-0.00,-0.29,-0.81,
1.102,0.82,0.18,-0.22,-0.00,-0.29,-0.81,
1.104,0.82,0.18,-0.22,0.01,-0.29,-0.80,
1.107,0.67,-0.01,-0.05,0.01,-0.29,-0.80,
1.108,0.67,-0.01,-0.05,0.02,-0.29,-0.79,
1.11,0.67,-0.01,-0.05,0.03,-0.28,-0.78,
1.111,0.67,-0.01,-0.05,0.05,-0.28,-0.77,
1.113,0.67,-0.01,-0.05,0.05,-0.27,-0.76,
1.114,0.67,-0.01,-0.05,0.06,-0.26,-0.75,
1.117,0.53,-0.03,0.25,0.06,-0.26,-0.75,
1.117,0.53,-0.03,0.25,0.08,-0.25,-0.74,
1.118,0.53,-0.03,0.25,0.09,-0.24,-0.72,
1.121,0.53,-0.03,0.25,0.12,-0.23,-0.70,
1.123,0.53,-0.03,0.25,0.12,-0.22,-0.70,
1.126,0.53,-0.03,0.25,0.14,-0.22,-0.69,
1.127,0.48,-0.00,0.47,0.14,-0.22,-0.69,
1.127,0.48,-0.00,0.47,0.15,-0.21,-0.68,
1.129,0.48,-0.00,0.47,0.17,-0.21,-0.66,
1.131,0.48,-0.00,0.47,0.19,-0.21,-0.64,
1.132,0.48,-0.00,0.47,0.19,-0.21,-0.64,
1.134,0.48,-0.00,0.47,0.21,-0.21,-0.63,
1.137,0.44,0.07,0.61,0.21,-0.21,-0.63,
1.137,0.44,0.07,0.61,0.22,-0.22,-0.62,
1.139,0.44,0.07,0.61,0.23,-0.22,-0.60,
1.141,0.44,0.07,0.61,0.24,-0.23,-0.59,
1.142,0.44,0.07,0.61,0.24,-0.23,-0.58,
1.144,0.44,0.07,0.61,0.26,-0.23,-0.57,
1.146,0.37,0.09,0.62,0.26,-0.23,-0.57,
1.146,0.37,0.09,0.62,0.26,-0.23,-0.56,
1.148,0.37,0.09,0.62,0.27,-0.24,-0.55,
1.151,0.37,0.09,0.62,0.27,-0.24,-0.54,
1.152,0.37,0.09,0.62,0.27,-0.24,-0.53,
1.154,0.37,0.09,0.62,0.28,-0.25,-0.52,
1.157,0.30,0.12,0.64,0.28,-0.25,-0.52,
1.157,0.30,0.12,0.64,0.28,-0.25,-0.52,
1.158,0.30,0.12,0.64,0.28,-0.25,-0.51,
1.161,0.30,0.12,0.64,0.28,-0.25,-0.50,
1.162,0.30,0.12,0.64,0.28,-0.25,-0.50,
1.164,0.30,0.12,0.64,0.28,-0.25,-0.49,
1.166,0.38,0.13,0.61,0.28,-0.25,-0.49,
1.166,0.38,0.13,0.61,0.27,-0.25,-0.49,
1.168,0.38,0.13,0.61,0.26,-0.24,-0.49,
1.176,0.38,0.13,0.61,0.26,-0.23,-0.48,
1.176,0.38,0.13,0.61,0.25,-0.23,-0.48,
1.176,0.38,0.13,0.61,0.24,-0.22,-0.48,
1.181,0.46,0.11,0.50,0.24,-0.22,-0.48,
1.183,0.46,0.11,0.50,0.23,-0.22,-0.48,
1.187,0.46,0.11,0.50,0.22,-0.21,-0.48,
1.197,0.46,0.11,0.50,0.19,-0.19,-0.48,
1.198,0.46,0.11,0.50,0.18,-0.19,-0.48,
1.198,0.46,0.11,0.50,0.17,-0.17,-0.47,
1.198,0.44,0.05,0.35,0.17,-0.17,-0.47,
1.198,0.44,0.05,0.35,0.15,-0.16,-0.47,
1.199,0.44,0.05,0.35,0.14,-0.14,-0.47,
1.199,0.44,0.05,0.35,0.12,-0.11,-0.46,
1.199,0.44,0.05,0.35,0.11,-0.10,-0.46,
1.199,0.44,0.05,0.35,0.11,-0.07,-0.46,
1.199,0.35,0.06,0.34,0.11,-0.07,-0.46,
1.199,0.35,0.06,0.34,0.09,-0.03,-0.45,
1.2,0.35,0.06,0.34,0.09,-0.02,-0.45,
1.201,0.35,0.06,0.34,0.08,0.03,-0.44,
1.202,0.35,0.06,0.34,0.08,0.04,-0.44,
1.204,0.35,0.06,0.34,0.07,0.07,-0.43,
1.206,0.38,0.13,0.36,0.07,0.07,-0.43,
1.207,0.38,0.13,0.36,0.06,0.10,-0.43,
1.208,0.38,0.13,0.36,0.06,0.13,-0.43,
1.211,0.38,0.13,0.36,0.05,0.17,-0.43,
1.212,0.38,0.13,0.36,0.05,0.18,-0.43,
1.214,0.38,0.13,0.36,0.04,0.20,-0.42,
1.217,0.44,0.14,0.28,0.04,0.20,-0.42,
1.217,0.44,0.14,0.28,0.03,0.21,-0.42,
1.218,0.44,0.14,0.28,0.02,0.23,-0.43,
1.222,0.44,0.14,0.28,-0.01,0.25,-0.44,
1.222,0.44,0.14,0.28,-0.02,0.25,-0.44,
1.225,0.44,0.14,0.28,-0.03,0.26,-0.44,
1.227,0.49,0.08,0.04,-0.03,0.26,-0.44,
1.243,0.49,0.08,0.04,-0.05,0.27,-0.45,
1.244,0.49,0.08,0.04,-0.07,0.27,-0.46,
1.244,0.49,0.08,0.04,-0.11,0.28,-0.48,
1.244,0.49,0.08,0.04,-0.12,0.28,-0.48,
1.244,0.49,0.08,0.04,-0.15,0.28,-0.49,
1.245,0.44,0.03,-0.11,-0.15,0.28,-0.49,
1.245,0.44,0.03,-0.11,-0.18,0.28,-0.50,
1.245,0.44,0.03,-0.11,-0.21,0.28,-0.52,
1.245,0.44,0.03,-0.11,-0.25,0.28,-0.54,
1.245,0.44,0.03,-0.11,-0.26,0.28,-0.54,
1.246,0.44,0.03,-0.11,-0.29,0.28,-0.55,
1.25,0.24,-0.12,-0.08,-0.29,0.28,-0.55,
1.25,0.24,-0.12,-0.08,-0.32,0.28,-0.57,
1.25,0.24,-0.12,-0.08,-0.34,0.27,-0.58,
1.251,0.24,-0.12,-0.08,-0.38,0.27,-0.60,
1.253,0.24,-0.12,-0.08,-0.39,0.26,-0.60,
1.257,0.24,-0.12,-0.08,-0.41,0.26,-0.61,
1.258,-0.13,-0.26,0.22,-0.41,0.26,-0.61,
1.258,-0.13,-0.26,0.22,-0.43,0.25,-0.62,
1.259,-0.13,-0.26,0.22,-0.45,0.25,-0.63,
1.261,-0.13,-0.26,0.22,-0.48,0.23,-0.64,
1.262,-0.13,-0.26,0.22,-0.49,0.23,-0.64,
1.264,-0.13,-0.26,0.22,-0.50,0.22,-0.65,
1.266,-0.56,-0.51,0.69,-0.50,0.22,-0.65,
1.267,-0.56,-0.51,0.69,-0.51,0.21,-0.65,
1.269,-0.56,-0.51,0.69,-0.52,0.20,-0.65,
1.272,-0.56,-0.51,0.69,-0.54,0.18,-0.65,
1.273,-0.56,-0.51,0.69,-0.54,0.18,-0.65,
1.275,-0.56,-0.51,0.69,-0.55,0.17,-0.64,
1.277,-0.89,-0.66,1.16,-0.55,0.17,-0.64,
1.277,-0.89,-0.66,1.16,-0.55,0.16,-0.63,
1.278,-0.89,-0.66,1.16,-0.56,0.15,-0.63,
1.281,-0.89,-0.66,1.16,-0.56,0.13,-0.61,
1.282,-0.89,-0.66,1.16,-0.56,0.12,-0.61,
1.284,-0.89,-0.66,1.16,-0.56,0.11,-0.60,
1.286,-1.21,-0.80,1.62,-0.56,0.11,-0.60,
1.286,-1.21,-0.80,1.62,-0.55,0.09,-0.59,
1.29,-1.21,-0.80,1.62,-0.55,0.07,-0.58,
1.291,-1.21,-0.80,1.62,-0.54,0.04,-0.56,
1.293,-1.21,-0.80,1.62,-0.53,0.02,-0.56,
1.294,-1.21,-0.80,1.62,-0.52,-0.00,-0.55,
1.296,-1.36,-0.83,2.10,-0.52,-0.00,-0.55,
1.296,-1.36,-0.83,2.10,-0.51,-0.03,-0.54,
1.298,-1.36,-0.83,2.10,-0.49,-0.05,-0.53,
1.301,-1.36,-0.83,2.10,-0.46,-0.09,-0.52,
1.302,-1.36,-0.83,2.10,-0.45,-0.10,-0.52,
1.309,-1.36,-0.83,2.10,-0.43,-0.13,-0.51,
1.309,-1.41,-0.91,2.52,-0.43,-0.13,-0.51,
1.31,-1.41,-0.91,2.52,-0.41,-0.16,-0.51,
1.31,-1.41,-0.91,2.52,-0.39,-0.19,-0.50,
1.311,-1.41,-0.91,2.52,-0.36,-0.23,-0.49,
1.312,-1.41,-0.91,2.52,-0.34,-0.24,-0.49,
1.34,-1.41,-0.91,2.52,-0.32,-0.27,-0.49,
1.341,-1.46,-1.08,2.81,-0.32,-0.27,-0.49,
1.341,-1.46,-1.08,2.81,-0.29,-0.29,-0.48,
1.342,-1.46,-1.08,2.81,-0.26,-0.32,-0.48,
1.342,-1.46,-1.08,2.81,-0.22,-0.35,-0.47,
1.342,-1.46,-1.08,2.81,-0.20,-0.36,-0.47,
1.342,-1.46,-1.08,2.81,-0.17,-0.38,-0.46,
1.342,-1.60,-1.32,3.01,-0.17,-0.38,-0.46,
1.342,-1.60,-1.32,3.01,-0.14,-0.40,-0.45,
1.343,-1.60,-1.32,3.01,-0.10,-0.41,-0.45,
1.343,-1.60,-1.32,3.01,-0.05,-0.42,-0.44,
1.343,-1.60,-1.32,3.01,-0.03,-0.42,-0.43,
1.343,-1.60,-1.32,3.01,0.01,-0.42,-0.43,
1.343,-1.75,-1.45,3.01,0.01,-0.42,-0.43,
1.344,-1.75,-1.45,3.01,0.04,-0.42,-0.42,
1.344,-1.75,-1.45,3.01,0.07,-0.41,-0.41,
1.344,-1.75,-1.45,3.01,0.12,-0.39,-0.40,
1.344,-1.75,-1.45,3.01,0.14,-0.38,-0.39,
1.344,-1.75,-1.45,3.01,0.17,-0.37,-0.38,
1.348,-1.89,-1.53,2.59,0.17,-0.37,-0.38,
1.348,-1.89,-1.53,2.59,0.20,-0.34,-0.37,
1.349,-1.89,-1.53,2.59,0.22,-0.32,-0.36,
1.351,-1.89,-1.53,2.59,0.26,-0.28,-0.34,
1.352,-1.89,-1.53,2.59,0.27,-0.27,-0.34,
1.355,-1.89,-1.53,2.59,0.29,-0.25,-0.32,
1.357,-2.09,-1.38,1.76,0.29,-0.25,-0.32,
1.357,-2.09,-1.38,1.76,0.30,-0.22,-0.31,
1.358,-2.09,-1.38,1.76,0.32,-0.19,-0.29,
1.361,-2.09,-1.38,1.76,0.33,-0.16,-0.27,
1.362,-2.09,-1.38,1.76,0.33,-0.15,-0.26,
1.364,-2.09,-1.38,1.76,0.34,-0.12,-0.25,
1.366,-2.33,-1.25,0.81,0.34,-0.12,-0.25,
1.367,-2.33,-1.25,0.81,0.35,-0.10,-0.24,
1.368,-2.33,-1.25,0.81,0.35,-0.08,-0.23,
1.373,-2.33,-1.25,0.81,0.34,-0.06,-0.21,
1.373,-2.33,-1.25,0.81,0.34,-0.06,-0.21,
1.374,-2.33,-1.25,0.81,0.34,-0.04,-0.20,
1.376,-2.40,-1.08,-0.15,0.34,-0.04,-0.20,
1.377,-2.40,-1.08,-0.15,0.33,-0.04,-0.19,
1.378,-2.40,-1.08,-0.15,0.32,-0.04,-0.18,
1.381,-2.40,-1.08,-0.15,0.31,-0.04,-0.17,
1.382,-2.40,-1.08,-0.15,0.30,-0.04,-0.17,
1.384,-2.40,-1.08,-0.15,0.29,-0.05,-0.16,
1.387,-2.55,-0.98,-0.89,0.29,-0.05,-0.16,
1.387,-2.55,-0.98,-0.89,0.28,-0.05,-0.16,
1.393,-2.55,-0.98,-0.89,0.26,-0.07,-0.15,
1.397,-2.55,-0.98,-0.89,0.24,-0.10,-0.14,
1.397,-2.55,-0.98,-0.89,0.24,-0.11,-0.14,
1.423,-2.55,-0.98,-0.89,0.22,-0.13,-0.13,
1.423,-2.58,-0.85,-1.30,0.22,-0.13,-0.13,
1.423,-2.58,-0.85,-1.30,0.21,-0.15,-0.13,
1.424,-2.58,-0.85,-1.30,0.20,-0.18,-0.12,
1.424,-2.58,-0.85,-1.30,0.18,-0.22,-0.11,
1.424,-2.58,-0.85,-1.30,0.17,-0.23,-0.10,
1.424,-2.58,-0.85,-1.30,0.16,-0.26,-0.10,
1.425,-2.68,-0.71,-1.35,0.16,-0.26,-0.10,
1.425,-2.68,-0.71,-1.35,0.15,-0.29,-0.09,
1.425,-2.68,-0.71,-1.35,0.14,-0.31,-0.08,
1.425,-2.68,-0.71,-1.35,0.13,-0.35,-0.08,
1.426,-2.68,-0.71,-1.35,0.12,-0.37,-0.08,
1.426,-2.68,-0.71,-1.35,0.12,-0.40,-0.07,
1.426,-2.48,-0.58,-1.16,0.12,-0.40,-0.07,
1.426,-2.48,-0.58,-1.16,0.11,-0.42,-0.08,
1.427,-2.48,-0.58,-1.16,0.10,-0.45,-0.08,
1.427,-2.48,-0.58,-1.16,0.09,-0.48,-0.08,
1.427,-2.48,-0.58,-1.16,0.09,-0.49,-0.08,
1.427,-2.48,-0.58,-1.16,0.09,-0.50,-0.09,
1.428,-2.21,-0.52,-0.93,0.09,-0.50,-0.09,
1.428,-2.21,-0.52,-0.93,0.09,-0.51,-0.09,
1.428,-2.21,-0.52,-0.93,0.08,-0.53,-0.09,
1.433,-2.21,-0.52,-0.93,0.08,-0.55,-0.09,
1.433,-2.21,-0.52,-0.93,0.08,-0.56,-0.09,
1.437,-2.21,-0.52,-0.93,0.08,-0.57,-0.09,
1.438,-1.96,-0.52,-0.56,0.08,-0.57,-0.09,
1.438,-1.96,-0.52,-0.56,0.09,-0.58,-0.09,
1.439,-1.96,-0.52,-0.56,0.09,-0.58,-0.09,
1.443,-1.96,-0.52,-0.56,0.10,-0.59,-0.09,
1.444,-1.96,-0.52,-0.56,0.10,-0.59,-0.09,
1.444,-1.96,-0.52,-0.56,0.11,-0.59,-0.09,
1.446,-1.67,-0.54,-0.17,0.11,-0.59,-0.09,
1.446,-1.67,-0.54,-0.17,0.11,-0.58,-0.09,
1.448,-1.67,-0.54,-0.17,0.12,-0.58,-0.09,
1.451,-1.67,-0.54,-0.17,0.14,-0.56,-0.09,
1.452,-1.67,-0.54,-0.17,0.14,-0.56,-0.09,
1.455,-1.67,-0.54,-0.17,0.15,-0.54,-0.10,
1.457,-1.37,-0.48,0.24,0.15,-0.54,-0.10,
1.457,-1.37,-0.48,0.24,0.16,-0.53,-0.10,
1.458,-1.37,-0.48,0.24,0.17,-0.51,-0.11,
1.461,-1.37,-0.48,0.24,0.19,-0.49,-0.11,
1.462,-1.37,-0.48,0.24,0.20,-0.48,-0.11,
1.464,-1.37,-0.48,0.24,0.21,-0.46,-0.12,
1.466,-1.07,-0.47,0.49,0.21,-0.46,-0.12,
1.466,-1.07,-0.47,0.49,0.22,-0.44,-0.13,
1.468,-1.07,-0.47,0.49,0.23,-0.41,-0.14,
1.475,-1.07,-0.47,0.49,0.25,-0.38,-0.15,
1.476,-1.07,-0.47,0.49,0.25,-0.36,-0.16,
1.476,-1.07,-0.47,0.49,0.26,-0.33,-0.17,
1.478,-0.82,-0.45,0.43,0.26,-0.33,-0.17,
1.478,-0.82,-0.45,0.43,0.27,-0.30,-0.18,
1.481,-0.82,-0.45,0.43,0.28,-0.27,-0.19,
1.481,-0.82,-0.45,0.43,0.29,-0.23,-0.21,
1.485,-0.82,-0.45,0.43,0.29,-0.22,-0.21,
1.486,-0.82,-0.45,0.43,0.29,-0.19,-0.22,
1.486,-0.72,-0.50,0.26,0.29,-0.19,-0.22,
1.486,-0.72,-0.50,0.26,0.29,-0.17,-0.24,
1.5,-0.72,-0.50,0.26,0.30,-0.15,-0.25,
1.501,-0.72,-0.50,0.26,0.31,-0.13,-0.27,
1.501,-0.72,-0.50,0.26,0.31,-0.13,-0.28,
1.501,-0.72,-0.50,0.26,0.31,-0.13,-0.29,
1.502,-0.56,-0.42,-0.06,0.31,-0.13,-0.29,
1.502,-0.56,-0.42,-0.06,0.32,-0.20,-0.31,
1.502,-0.56,-0.42,-0.06,0.32,-0.27,-0.32,
1.502,-0.56,-0.42,-0.06,0.32,-0.34,-0.34,
1.502,-0.56,-0.42,-0.06,0.32,-0.35,-0.35,
1.513,-0.56,-0.42,-0.06,0.32,-0.38,-0.37,
1.514,-0.54,-0.27,-0.53,0.32,-0.38,-0.37,
1.516,-0.54,-0.27,-0.53,0.32,-0.40,-0.39,
1.516,-0.54,-0.27,-0.53,0.32,-0.41,-0.41,
1.516,-0.54,-0.27,-0.53,0.33,-0.42,-0.44,
1.516,-0.54,-0.27,-0.53,0.33,-0.43,-0.45,
1.517,-0.54,-0.27,-0.53,0.34,-0.43,-0.48,
1.517,-0.60,-0.11,-0.54,0.34,-0.43,-0.48,
1.517,-0.60,-0.11,-0.54,0.35,-0.43,-0.50,
1.519,-0.60,-0.11,-0.54,0.36,-0.43,-0.53,
1.523,-0.60,-0.11,-0.54,0.38,-0.42,-0.57,
1.524,-0.60,-0.11,-0.54,0.39,-0.42,-0.58,
1.524,-0.60,-0.11,-0.54,0.40,-0.43,-0.61,
1.526,-0.74,-0.10,-0.56,0.40,-0.43,-0.61,
1.526,-0.74,-0.10,-0.56,0.42,-0.44,-0.64,
1.528,-0.74,-0.10,-0.56,0.43,-0.45,-0.67,
1.531,-0.74,-0.10,-0.56,0.46,-0.47,-0.71,
1.532,-0.74,-0.10,-0.56,0.46,-0.48,-0.72,
1.534,-0.74,-0.10,-0.56,0.48,-0.50,-0.75,
1.536,-0.82,-0.17,-0.78,0.48,-0.50,-0.75,
1.537,-0.82,-0.17,-0.78,0.49,-0.51,-0.76,
1.541,-0.82,-0.17,-0.78,0.50,-0.53,-0.78,
1.541,-0.82,-0.17,-0.78,0.52,-0.55,-0.80,
1.542,-0.82,-0.17,-0.78,0.52,-0.56,-0.81,
1.544,-0.82,-0.17,-0.78,0.53,-0.58,-0.82,
1.548,-0.97,-0.29,-1.05,0.53,-0.58,-0.82,
1.549,-0.97,-0.29,-1.05,0.54,-0.59,-0.83,
1.549,-0.97,-0.29,-1.05,0.55,-0.60,-0.83,
1.552,-0.97,-0.29,-1.05,0.55,-0.60,-0.82,
1.555,-0.97,-0.29,-1.05,0.56,-0.59,-0.82,
1.556,-0.97,-0.29,-1.05,0.56,-0.58,-0.81,
1.558,-1.28,-0.43,-1.30,0.56,-0.58,-0.81,
1.559,-1.28,-0.43,-1.30,0.55,-0.56,-0.79,
1.559,-1.28,-0.43,-1.30,0.55,-0.54,-0.77,
1.579,-1.28,-0.43,-1.30,0.54,-0.50,-0.72,
1.579,-1.28,-0.43,-1.30,0.54,-0.49,-0.71,
1.579,-1.28,-0.43,-1.30,0.53,-0.46,-0.68,
1.58,-1.71,-0.56,-1.60,0.53,-0.46,-0.68,
1.58,-1.71,-0.56,-1.60,0.52,-0.43,-0.64,
1.58,-1.71,-0.56,-1.60,0.50,-0.39,-0.61,
1.581,-1.71,-0.56,-1.60,0.47,-0.34,-0.55,
1.581,-1.71,-0.56,-1.60,0.46,-0.32,-0.54,
1.581,-1.71,-0.56,-1.60,0.44,-0.28,-0.50,
1.581,-1.86,-0.56,-1.88,0.44,-0.28,-0.50,
1.582,-1.86,-0.56,-1.88,0.42,-0.24,-0.46,
1.582,-1.86,-0.56,-1.88,0.39,-0.20,-0.43,
1.582,-1.86,-0.56,-1.88,0.35,-0.14,-0.38,
1.582,-1.86,-0.56,-1.88,0.34,-0.11,-0.36,
1.587,-1.86,-0.56,-1.88,0.32,-0.07,-0.33,
1.588,-1.76,-0.40,-2.02,0.32,-0.07,-0.33,
1.588,-1.76,-0.40,-2.02,0.30,-0.03,-0.30,
1.588,-1.76,-0.40,-2.02,0.28,0.02,-0.28,
1.591,-1.76,-0.40,-2.02,0.24,0.08,-0.25,
1.592,-1.76,-0.40,-2.02,0.23,0.10,-0.24,
1.594,-1.76,-0.40,-2.02,0.21,0.13,-0.22,
1.596,-1.41,-0.12,-1.95,0.21,0.13,-0.22,
1.596,-1.41,-0.12,-1.95,0.19,0.16,-0.21,
1.598,-1.41,-0.12,-1.95,0.17,0.19,-0.21,
1.601,-1.41,-0.12,-1.95,0.15,0.23,-0.20,
1.602,-1.41,-0.12,-1.95,0.14,0.23,-0.20,
1.604,-1.41,-0.12,-1.95,0.13,0.25,-0.21,
1.607,-0.91,0.17,-1.75,0.13,0.25,-0.21,
1.608,-0.91,0.17,-1.75,0.11,0.26,-0.21,
1.608,-0.91,0.17,-1.75,0.10,0.27,-0.22,
1.611,-0.91,0.17,-1.75,0.08,0.28,-0.24,
1.612,-0.91,0.17,-1.75,0.07,0.28,-0.24,
1.614,-0.91,0.17,-1.75,0.05,0.27,-0.26,
1.616,-0.37,0.17,-1.59,0.05,0.27,-0.26,
1.617,-0.37,0.17,-1.59,0.04,0.27,-0.27,
1.618,-0.37,0.17,-1.59,0.02,0.26,-0.28,
1.626,-0.37,0.17,-1.59,0.00,0.26,-0.29,
1.627,-0.37,0.17,-1.59,-0.01,0.26,-0.30,
1.627,-0.37,0.17,-1.59,-0.02,0.25,-0.30,
1.628,-0.27,0.17,-1.29,-0.02,0.25,-0.30,
1.628,-0.27,0.17,-1.29,-0.03,0.25,-0.31,
1.628,-0.27,0.17,-1.29,-0.04,0.25,-0.32,
1.655,-0.27,0.17,-1.29,-0.06,0.26,-0.32,
1.655,-0.27,0.17,-1.29,-0.07,0.26,-0.32,
1.656,-0.27,0.17,-1.29,-0.08,0.27,-0.32,
1.656,-0.35,0.12,-0.85,-0.08,0.27,-0.32,
1.656,-0.35,0.12,-0.85,-0.08,0.26,-0.32,
1.656,-0.35,0.12,-0.85,-0.09,0.26,-0.31,
1.656,-0.35,0.12,-0.85,-0.11,0.25,-0.31,
1.656,-0.35,0.12,-0.85,-0.11,0.25,-0.31,
1.657,-0.35,0.12,-0.85,-0.12,0.25,-0.30,
1.657,-0.50,-0.03,-0.39,-0.12,0.25,-0.30,
1.657,-0.50,-0.03,-0.39,-0.12,0.25,-0.30,
1.657,-0.50,-0.03,-0.39,-0.13,0.24,-0.29,
1.657,-0.50,-0.03,-0.39,-0.13,0.23,-0.27,
1.657,-0.50,-0.03,-0.39,-0.13,0.22,-0.26,
1.657,-0.50,-0.03,-0.39,-0.12,0.21,-0.24,
1.658,-0.75,-0.08,0.33,-0.12,0.21,-0.24,
1.658,-0.75,-0.08,0.33,-0.12,0.20,-0.22,
1.659,-0.75,-0.08,0.33,-0.11,0.20,-0.20,
1.662,-0.75,-0.08,0.33,-0.09,0.18,-0.17,
1.662,-0.75,-0.08,0.33,-0.09,0.18,-0.16,
1.664,-0.75,-0.08,0.33,-0.07,0.16,-0.13,
1.666,-0.96,-0.06,0.91,-0.07,0.16,-0.13,
1.666,-0.96,-0.06,0.91,-0.06,0.15,-0.11,
1.668,-0.96,-0.06,0.91,-0.04,0.13,-0.08,
1.677,-0.96,-0.06,0.91,-0.03,0.10,-0.05,
1.679,-0.96,-0.06,0.91,-0.02,0.09,-0.04,
1.682,-0.96,-0.06,0.91,-0.01,0.07,-0.01,
1.682,-0.98,0.07,1.20,-0.01,0.07,-0.01,
1.683,-0.98,0.07,1.20,0.01,0.06,0.01,
1.683,-0.98,0.07,1.20,0.02,0.04,0.03,
1.683,-0.98,0.07,1.20,0.04,0.02,0.07,
1.683,-0.98,0.07,1.20,0.04,0.02,0.08,
1.684,-0.98,0.07,1.20,0.05,0.00,0.10,
1.69,-1.00,0.12,1.21,0.05,0.00,0.10,
1.691,-1.00,0.12,1.21,0.06,-0.01,0.12,
1.691,-1.00,0.12,1.21,0.07,-0.02,0.14,
1.691,-1.00,0.12,1.21,0.09,-0.04,0.16,
1.694,-1.00,0.12,1.21,0.09,-0.04,0.17,
1.696,-1.00,0.12,1.21,0.09,-0.05,0.18,
1.699,-0.79,0.12,1.12,0.09,-0.05,0.18,
1.699,-0.79,0.12,1.12,0.10,-0.06,0.19,
1.699,-0.79,0.12,1.12,0.11,-0.07,0.20,
1.701,-0.79,0.12,1.12,0.11,-0.08,0.20,
1.702,-0.79,0.12,1.12,0.11,-0.08,0.20,
1.704,-0.79,0.12,1.12,0.11,-0.09,0.21,
1.707,-0.54,0.17,0.99,0.11,-0.09,0.21,
1.707,-0.54,0.17,0.99,0.11,-0.09,0.20,
1.709,-0.54,0.17,0.99,0.11,-0.10,0.20,
1.711,-0.54,0.17,0.99,0.11,-0.11,0.20,
1.712,-0.54,0.17,0.99,0.11,-0.12,0.20,
1.714,-0.54,0.17,0.99,0.10,-0.12,0.20,
1.716,-0.34,0.20,0.93,0.10,-0.12,0.20,
1.717,-0.34,0.20,0.93,0.10,-0.13,0.20,
1.718,-0.34,0.20,0.93,0.09,-0.13,0.20,
1.733,-0.34,0.20,0.93,0.08,-0.14,0.20,
1.734,-0.34,0.20,0.93,0.08,-0.14,0.20,
1.734,-0.34,0.20,0.93,0.07,-0.14,0.20,
1.734,-0.29,0.23,0.94,0.07,-0.14,0.20,
1.765,-0.29,0.23,0.94,0.07,-0.14,0.20,
1.766,-0.29,0.23,0.94,0.06,-0.13,0.20,
1.766,-0.29,0.23,0.94,0.05,-0.13,0.19,
1.766,-0.29,0.23,0.94,0.05,-0.12,0.19,
1.767,-0.29,0.23,0.94,0.04,-0.12,0.19,
1.767,-0.25,0.25,0.94,0.04,-0.12,0.19,
1.767,-0.25,0.25,0.94,0.04,-0.10,0.19,
1.767,-0.25,0.25,0.94,0.03,-0.09,0.19,
1.768,-0.25,0.25,0.94,0.03,-0.08,0.19,
1.768,-0.25,0.25,0.94,0.03,-0.07,0.18,
1.768,-0.25,0.25,0.94,0.02,-0.06,0.18,
1.768,-0.21,0.27,1.04,0.02,-0.06,0.18,
1.769,-0.21,0.27,1.04,0.02,-0.05,0.18,
1.769,-0.21,0.27,1.04,0.02,-0.03,0.18,
1.769,-0.21,0.27,1.04,0.03,-0.01,0.18,
1.77,-0.21,0.27,1.04,0.03,-0.00,0.17,
1.77,-0.21,0.27,1.04,0.03,0.00,0.17,
1.77,-0.18,0.27,1.16,0.03,0.00,0.17,
1.77,-0.18,0.27,1.16,0.04,0.02,0.17,
1.771,-0.18,0.27,1.16,0.05,0.03,0.17,
1.771,-0.18,0.27,1.16,0.06,0.05,0.16,
1.771,-0.18,0.27,1.16,0.06,0.05,0.16,
1.771,-0.18,0.27,1.16,0.08,0.06,0.15,
1.772,-0.17,0.21,1.28,0.08,0.06,0.15,
1.772,-0.17,0.21,1.28,0.09,0.06,0.15,
1.772,-0.17,0.21,1.28,0.10,0.06,0.15,
1.779,-0.17,0.21,1.28,0.12,0.06,0.14,
1.78,-0.17,0.21,1.28,0.13,0.06,0.14,
1.78,-0.17,0.21,1.28,0.14,0.05,0.14,
1.78,-0.16,0.10,1.37,0.14,0.05,0.14,
1.781,-0.16,0.10,1.37,0.16,0.05,0.14,
1.781,-0.16,0.10,1.37,0.17,0.04,0.15,
1.781,-0.16,0.10,1.37,0.20,0.02,0.15,
1.782,-0.16,0.10,1.37,0.21,0.02,0.15,
1.787,-0.16,0.10,1.37,0.22,0.01,0.15,
1.799,-0.17,0.08,1.40,0.22,0.01,0.15,
1.799,-0.17,0.08,1.40,0.24,0.00,0.14,
1.8,-0.17,0.08,1.40,0.26,-0.01,0.14,
1.8,-0.17,0.08,1.40,0.28,-0.03,0.14,
1.8,-0.17,0.08,1.40,0.29,-0.03,0.14,
1.8,-0.17,0.08,1.40,0.31,-0.04,0.14,
1.802,-0.09,0.06,1.40,0.31,-0.04,0.14,
1.802,-0.09,0.06,1.40,0.32,-0.06,0.13,
1.802,-0.09,0.06,1.40,0.34,-0.07,0.13,
1.802,-0.09,0.06,1.40,0.36,-0.09,0.14,
1.808,-0.09,0.06,1.40,0.36,-0.10,0.14,
1.809,-0.09,0.06,1.40,0.37,-0.11,0.14,
1.809,-0.10,-0.08,1.32,0.37,-0.11,0.14,
1.809,-0.10,-0.08,1.32,0.38,-0.12,0.14,
1.81,-0.10,-0.08,1.32,0.38,-0.13,0.15,
1.812,-0.10,-0.08,1.32,0.39,-0.13,0.16,
1.812,-0.10,-0.08,1.32,0.39,-0.13,0.16,
1.814,-0.10,-0.08,1.32,0.40,-0.13,0.16,
1.816,-0.06,-0.08,1.25,0.40,-0.13,0.16,
1.817,-0.06,-0.08,1.25,0.40,-0.14,0.16,
1.818,-0.06,-0.08,1.25,0.41,-0.14,0.16,
1.821,-0.06,-0.08,1.25,0.41,-0.14,0.16,
1.824,-0.06,-0.08,1.25,0.42,-0.14,0.16,
1.825,-0.06,-0.08,1.25,0.41,-0.14,0.15,
1.827,0.32,0.01,1.19,0.41,-0.14,0.15,
1.827,0.32,0.01,1.19,0.41,-0.14,0.14,
1.828,0.32,0.01,1.19,0.41,-0.14,0.13,
1.831,0.32,0.01,1.19,0.41,-0.14,0.11,
1.834,0.32,0.01,1.19,0.41,-0.14,0.10,
1.834,0.32,0.01,1.19,0.41,-0.14,0.08,
1.837,0.78,0.08,1.09,0.41,-0.14,0.08,
1.837,0.78,0.08,1.09,0.41,-0.15,0.06,
1.838,0.78,0.08,1.09,0.41,-0.15,0.04,
1.841,0.78,0.08,1.09,0.40,-0.16,0.01,
1.842,0.78,0.08,1.09,0.40,-0.16,0.00,
1.844,0.78,0.08,1.09,0.40,-0.16,-0.01,
1.846,1.07,0.06,0.96,0.40,-0.16,-0.01,
1.847,1.07,0.06,0.96,0.39,-0.16,-0.03,
1.848,1.07,0.06,0.96,0.39,-0.15,-0.05,
1.851,1.07,0.06,0.96,0.38,-0.14,-0.07,
1.854,1.07,0.06,0.96,0.38,-0.14,-0.08,
1.855,1.07,0.06,0.96,0.37,-0.13,-0.10,
1.858,0.90,0.08,0.86,0.37,-0.13,-0.10,
1.858,0.90,0.08,0.86,0.37,-0.12,-0.11,
1.858,0.90,0.08,0.86,0.37,-0.10,-0.13,
1.861,0.90,0.08,0.86,0.36,-0.08,-0.15,
1.862,0.90,0.08,0.86,0.36,-0.08,-0.15,
1.864,0.90,0.08,0.86,0.35,-0.07,-0.16,
1.867,0.65,0.12,0.62,0.35,-0.07,-0.16,
1.867,0.65,0.12,0.62,0.35,-0.06,-0.17,
1.868,0.65,0.12,0.62,0.33,-0.05,-0.18,
1.871,0.65,0.12,0.62,0.31,-0.04,-0.19,
1.873,0.65,0.12,0.62,0.30,-0.04,-0.19,
1.875,0.65,0.12,0.62,0.29,-0.05,-0.20,
1.877,0.36,0.07,0.21,0.29,-0.05,-0.20,
1.877,0.36,0.07,0.21,0.26,-0.05,-0.20,
1.878,0.36,0.07,0.21,0.24,-0.06,-0.20,
1.881,0.36,0.07,0.21,0.20,-0.08,-0.21,
1.882,0.36,0.07,0.21,0.18,-0.09,-0.21,
1.884,0.36,0.07,0.21,0.15,-0.11,-0.21,
1.892,0.18,0.00,-0.09,0.15,-0.11,-0.21,
1.893,0.18,0.00,-0.09,0.12,-0.13,-0.21,
1.893,0.18,0.00,-0.09,0.08,-0.14,-0.22,
1.894,0.18,0.00,-0.09,0.03,-0.17,-0.22,
1.894,0.18,0.00,-0.09,0.01,-0.17,-0.22,
1.919,0.18,0.00,-0.09,-0.03,-0.19,-0.23,
1.92,0.09,-0.09,-0.03,-0.03,-0.19,-0.23,
1.92,0.09,-0.09,-0.03,-0.07,-0.20,-0.23,
1.921,0.09,-0.09,-0.03,-0.09,-0.20,-0.23,
1.921,0.09,-0.09,-0.03,-0.13,-0.20,-0.23,
1.922,0.09,-0.09,-0.03,-0.14,-0.20,-0.23,
1.922,0.09,-0.09,-0.03,-0.16,-0.20,-0.23,
1.922,0.13,-0.20,0.71,-0.16,-0.20,-0.23,
1.923,0.13,-0.20,0.71,-0.18,-0.19,-0.23,
1.923,0.13,-0.20,0.71,-0.19,-0.19,-0.23,
1.924,0.13,-0.20,0.71,-0.21,-0.17,-0.23,
1.924,0.13,-0.20,0.71,-0.21,-0.16,-0.23,
1.924,0.13,-0.20,0.71,-0.22,-0.16,-0.23,
1.925,0.26,-0.34,1.53,-0.22,-0.16,-0.23,
1.925,0.26,-0.34,1.53,-0.23,-0.15,-0.23,
1.925,0.26,-0.34,1.53,-0.23,-0.14,-0.23,
1.925,0.26,-0.34,1.53,-0.23,-0.12,-0.24,
1.926,0.26,-0.34,1.53,-0.23,-0.12,-0.24,
1.926,0.26,-0.34,1.53,-0.23,-0.12,-0.24,
1.935,0.42,-0.51,2.21,-0.23,-0.12,-0.24,
1.935,0.42,-0.51,2.21,-0.23,-0.11,-0.24,
1.936,0.42,-0.51,2.21,-0.23,-0.11,-0.25,
1.936,0.42,-0.51,2.21,-0.23,-0.10,-0.25,
1.936,0.42,-0.51,2.21,-0.23,-0.09,-0.26,
1.937,0.42,-0.51,2.21,-0.22,-0.08,-0.26,
1.939,0.62,-0.70,2.65,-0.22,-0.08,-0.26,
1.939,0.62,-0.70,2.65,-0.22,-0.08,-0.27,
1.94,0.62,-0.70,2.65,-0.21,-0.07,-0.27,
1.943,0.62,-0.70,2.65,-0.20,-0.05,-0.29,
1.944,0.62,-0.70,2.65,-0.19,-0.05,-0.29,
1.944,0.62,-0.70,2.65,-0.18,-0.04,-0.30,
1.951,0.84,-0.87,2.90,-0.18,-0.04,-0.30,
1.952,0.84,-0.87,2.90,-0.17,-0.03,-0.31,
1.952,0.84,-0.87,2.90,-0.16,-0.02,-0.32,
1.952,0.84,-0.87,2.90,-0.14,-0.02,-0.34,
1.955,0.84,-0.87,2.90,-0.13,-0.02,-0.34,
1.956,0.84,-0.87,2.90,-0.12,-0.01,-0.36,
1.958,1.02,-1.00,3.01,-0.12,-0.01,-0.36,
1.958,1.02,-1.00,3.01,-0.11,-0.01,-0.37,
1.958,1.02,-1.00,3.01,-0.10,-0.00,-0.38,
1.961,1.02,-1.00,3.01,-0.07,0.01,-0.39,
1.963,1.02,-1.00,3.01,-0.07,0.01,-0.40,
1.964,1.02,-1.00,3.01,-0.05,0.01,-0.40,
1.966,0.93,-1.18,3.05,-0.05,0.01,-0.40,
1.966,0.93,-1.18,3.05,-0.03,0.02,-0.41,
1.969,0.93,-1.18,3.05,-0.01,0.03,-0.41,
1.971,0.93,-1.18,3.05,0.01,0.05,-0.41,
1.973,0.93,-1.18,3.05,0.02,0.05,-0.41,
1.974,0.93,-1.18,3.05,0.04,0.06,-0.40,
1.977,0.62,-1.35,2.91,0.04,0.06,-0.40,
1.977,0.62,-1.35,2.91,0.06,0.06,-0.40,
1.978,0.62,-1.35,2.91,0.08,0.07,-0.39,
1.981,0.62,-1.35,2.91,0.11,0.07,-0.37,
1.982,0.62,-1.35,2.91,0.12,0.07,-0.37,
1.984,0.62,-1.35,2.91,0.14,0.07,-0.36,
1.986,0.27,-1.56,2.69,0.14,0.07,-0.36,
1.987,0.27,-1.56,2.69,0.17,0.07,-0.35,
1.988,0.27,-1.56,2.69,0.19,0.07,-0.33,
1.991,0.27,-1.56,2.69,0.23,0.07,-0.30,
1.992,0.27,-1.56,2.69,0.24,0.06,-0.29,
1.996,0.27,-1.56,2.69,0.27,0.06,-0.28,
1.996,-0.04,-1.60,2.40,0.27,0.06,-0.28,
1.996,-0.04,-1.60,2.40,0.29,0.05,-0.26,
1.998,-0.04,-1.60,2.40,0.32,0.04,-0.24,
2.001,-0.04,-1.60,2.40,0.36,0.02,-0.22,
2.006,-0.04,-1.60,2.40,0.36,0.01,-0.21,
2.007,-0.04,-1.60,2.40,0.39,-0.01,-0.19,
2.007,-0.14,-1.64,1.94,0.39,-0.01,-0.19,
2.007,-0.14,-1.64,1.94,0.41,-0.04,-0.18,
2.011,-0.14,-1.64,1.94,0.43,-0.07,-0.16,
2.011,-0.14,-1.64,1.94,0.45,-0.11,-0.14,
2.02,-0.14,-1.64,1.94,0.46,-0.13,-0.13,
2.02,-0.14,-1.64,1.94,0.48,-0.16,-0.12,
2.02,-0.08,-1.52,1.41,0.48,-0.16,-0.12,
2.02,-0.08,-1.52,1.41,0.49,-0.19,-0.11,
2.021,-0.08,-1.52,1.41,0.50,-0.22,-0.10,
2.046,-0.08,-1.52,1.41,0.52,-0.27,-0.08,
2.047,-0.08,-1.52,1.41,0.53,-0.28,-0.07,
2.047,-0.08,-1.52,1.41,0.54,-0.31,-0.06,
2.047,0.05,-1.48,0.93,0.54,-0.31,-0.06,
2.047,0.05,-1.48,0.93,0.55,-0.34,-0.05,
2.047,0.05,-1.48,0.93,0.55,-0.36,-0.04,
2.048,0.05,-1.48,0.93,0.56,-0.39,-0.02,
2.048,0.05,-1.48,0.93,0.56,-0.40,-0.02,
2.048,0.05,-1.48,0.93,0.56,-0.42,-0.01,
2.048,0.32,-1.36,0.43,0.56,-0.42,-0.01,
2.048,0.32,-1.36,0.43,0.56,-0.43,-0.00,
2.049,0.32,-1.36,0.43,0.56,-0.44,0.00,
2.049,0.32,-1.36,0.43,0.55,-0.46,0.00,
2.049,0.32,-1.36,0.43,0.55,-0.46,0.01,
2.049,0.32,-1.36,0.43,0.54,-0.46,0.01,
2.049,0.66,-1.25,-0.11,0.54,-0.46,0.01,
2.049,0.66,-1.25,-0.11,0.53,-0.47,0.00,
2.05,0.66,-1.25,-0.11,0.52,-0.47,0.00,
2.054,0.66,-1.25,-0.11,0.50,-0.47,-0.00,
2.055,0.66,-1.25,-0.11,0.49,-0.47,-0.01,
2.055,0.66,-1.25,-0.11,0.47,-0.46,-0.02,
2.057,0.97,-1.08,-0.58,0.47,-0.46,-0.02,
2.057,0.97,-1.08,-0.58,0.46,-0.45,-0.03,
2.058,0.97,-1.08,-0.58,0.44,-0.44,-0.04,
2.08,0.97,-1.08,-0.58,0.41,-0.42,-0.05,
2.08,0.97,-1.08,-0.58,0.40,-0.41,-0.06,
2.081,0.97,-1.08,-0.58,0.39,-0.39,-0.07,
2.081,1.22,-0.95,-0.96,0.39,-0.39,-0.07,
2.081,1.22,-0.95,-0.96,0.37,-0.37,-0.08,
2.081,1.22,-0.95,-0.96,0.35,-0.36,-0.09,
2.082,1.22,-0.95,-0.96,0.32,-0.33,-0.11,
2.082,1.22,-0.95,-0.96,0.31,-0.32,-0.12,
2.082,1.22,-0.95,-0.96,0.29,-0.31,-0.13,
2.083,1.27,-0.86,-1.31,0.29,-0.31,-0.13,
2.083,1.27,-0.86,-1.31,0.27,-0.29,-0.14,
2.083,1.27,-0.86,-1.31,0.24,-0.27,-0.15,
2.083,1.27,-0.86,-1.31,0.21,-0.25,-0.17,
2.084,1.27,-0.86,-1.31,0.20,-0.24,-0.17,
2.089,1.27,-0.86,-1.31,0.18,-0.22,-0.18,
2.09,1.16,-0.80,-1.53,0.18,-0.22,-0.18,
2.09,1.16,-0.80,-1.53,0.16,-0.20,-0.19,
2.091,1.16,-0.80,-1.53,0.14,-0.18,-0.20,
2.093,1.16,-0.80,-1.53,0.11,-0.15,-0.22,
2.093,1.16,-0.80,-1.53,0.10,-0.14,-0.22,
2.094,1.16,-0.80,-1.53,0.09,-0.13,-0.23,
2.096,0.92,-0.71,-1.66,0.09,-0.13,-0.23,
2.096,0.92,-0.71,-1.66,0.07,-0.11,-0.24,
2.098,0.92,-0.71,-1.66,0.05,-0.10,-0.25,
2.102,0.92,-0.71,-1.66,0.03,-0.08,-0.26,
2.102,0.92,-0.71,-1.66,0.02,-0.07,-0.26,
2.105,0.92,-0.71,-1.66,0.01,-0.05,-0.27,
2.107,0.65,-0.68,-1.72,0.01,-0.05,-0.27,
2.107,0.65,-0.68,-1.72,0.00,-0.04,-0.27,
2.108,0.65,-0.68,-1.72,-0.01,-0.03,-0.28,
2.115,0.65,-0.68,-1.72,-0.02,-0.02,-0.28,
2.115,0.65,-0.68,-1.72,-0.02,-0.01,-0.29,
2.115,0.65,-0.68,-1.72,-0.02,-0.00,-0.29,
2.116,0.42,-0.64,-1.71,-0.02,-0.00,-0.29,
2.117,0.42,-0.64,-1.71,-0.03,0.00,-0.30,
2.119,0.42,-0.64,-1.71,-0.03,0.01,-0.31,
2.122,0.42,-0.64,-1.71,-0.03,0.01,-0.31,
2.123,0.42,-0.64,-1.71,-0.04,0.02,-0.32,
2.126,0.42,-0.64,-1.71,-0.03,0.02,-0.32,
2.126,0.23,-0.57,-1.77,-0.03,0.02,-0.32,
2.127,0.23,-0.57,-1.77,-0.03,0.02,-0.32,
2.131,0.23,-0.57,-1.77,-0.03,0.01,-0.33,
2.131,0.23,-0.57,-1.77,-0.03,0.01,-0.33,
2.133,0.23,-0.57,-1.77,-0.02,0.00,-0.33,
2.136,0.23,-0.57,-1.77,-0.03,-0.01,-0.34,
2.142,0.04,-0.51,-1.92,-0.03,-0.01,-0.34,
2.142,0.04,-0.51,-1.92,-0.03,-0.02,-0.34,
2.143,0.04,-0.51,-1.92,-0.03,-0.03,-0.34,
2.144,0.04,-0.51,-1.92,-0.03,-0.04,-0.34,
2.145,0.04,-0.51,-1.92,-0.03,-0.05,-0.34,
2.145,0.04,-0.51,-1.92,-0.03,-0.06,-0.35,
2.146,-0.14,-0.42,-2.13,-0.03,-0.06,-0.35,
2.146,-0.14,-0.42,-2.13,-0.03,-0.08,-0.35,
2.148,-0.14,-0.42,-2.13,-0.03,-0.09,-0.35,
2.153,-0.14,-0.42,-2.13,-0.04,-0.11,-0.35,
2.153,-0.14,-0.42,-2.13,-0.04,-0.12,-0.34,
2.155,-0.14,-0.42,-2.13,-0.05,-0.13,-0.34,
2.157,-0.33,-0.36,-2.35,-0.05,-0.13,-0.34,
2.157,-0.33,-0.36,-2.35,-0.05,-0.15,-0.34,
2.172,-0.33,-0.36,-2.35,-0.06,-0.16,-0.34,
2.172,-0.33,-0.36,-2.35,-0.07,-0.17,-0.33,
2.172,-0.33,-0.36,-2.35,-0.07,-0.18,-0.33,
2.172,-0.33,-0.36,-2.35,-0.08,-0.18,-0.33,
2.173,-0.45,-0.28,-2.52,-0.08,-0.18,-0.33,
2.173,-0.45,-0.28,-2.52,-0.08,-0.19,-0.32,
2.173,-0.45,-0.28,-2.52,-0.09,-0.20,-0.32,
2.173,-0.45,-0.28,-2.52,-0.10,-0.21,-0.31,
2.173,-0.45,-0.28,-2.52,-0.11,-0.21,-0.31,
2.175,-0.45,-0.28,-2.52,-0.12,-0.21,-0.31,
2.177,-0.58,-0.22,-2.66,-0.12,-0.21,-0.31,
2.178,-0.58,-0.22,-2.66,-0.13,-0.22,-0.30,
2.178,-0.58,-0.22,-2.66,-0.14,-0.22,-0.29,
2.182,-0.58,-0.22,-2.66,-0.16,-0.23,-0.29,
2.183,-0.58,-0.22,-2.66,-0.17,-0.23,-0.29,
2.188,-0.58,-0.22,-2.66,-0.18,-0.24,-0.28,
2.189,-0.69,-0.09,-2.72,-0.18,-0.24,-0.28,
2.189,-0.69,-0.09,-2.72,-0.19,-0.25,-0.28,
2.189,-0.69,-0.09,-2.72,-0.20,-0.26,-0.27,
2.191,-0.69,-0.09,-2.72,-0.21,-0.27,-0.26,
2.192,-0.69,-0.09,-2.72,-0.22,-0.28,-0.26,
2.194,-0.69,-0.09,-2.72,-0.23,-0.28,-0.26,
2.196,-0.76,0.03,-2.59,-0.23,-0.28,-0.26,
2.196,-0.76,0.03,-2.59,-0.24,-0.29,-0.25,
2.198,-0.76,0.03,-2.59,-0.25,-0.29,-0.25,
2.202,-0.76,0.03,-2.59,-0.26,-0.30,-0.24,
2.209,-0.76,0.03,-2.59,-0.27,-0.31,-0.24,
2.211,-0.76,0.03,-2.59,-0.27,-0.32,-0.24,
2.212,-0.69,0.18,-2.49,-0.27,-0.32,-0.24,
2.212,-0.69,0.18,-2.49,-0.29,-0.32,-0.24,
2.213,-0.69,0.18,-2.49,-0.30,-0.33,-0.23,
2.215,-0.69,0.18,-2.49,-0.32,-0.33,-0.23,
2.215,-0.69,0.18,-2.49,-0.33,-0.34,-0.24,
2.216,-0.69,0.18,-2.49,-0.33,-0.34,-0.24,
2.218,-0.59,0.23,-2.27,-0.33,-0.34,-0.24,
2.219,-0.59,0.23,-2.27,-0.34,-0.35,-0.24,
2.219,-0.59,0.23,-2.27,-0.35,-0.35,-0.24,
2.221,-0.59,0.23,-2.27,-0.36,-0.36,-0.23,
2.222,-0.59,0.23,-2.27,-0.37,-0.36,-0.23,
2.225,-0.59,0.23,-2.27,-0.37,-0.37,-0.23,
2.227,-0.60,0.27,-1.96,-0.37,-0.37,-0.23,
2.246,-0.60,0.27,-1.96,-0.38,-0.37,-0.22,
2.246,-0.60,0.27,-1.96,-0.39,-0.37,-0.22,
2.246,-0.60,0.27,-1.96,-0.40,-0.36,-0.21,
2.247,-0.60,0.27,-1.96,-0.40,-0.36,-0.21,
2.247,-0.60,0.27,-1.96,-0.41,-0.36,-0.21,
2.247,-0.51,0.33,-1.63,-0.41,-0.36,-0.21,
2.247,-0.51,0.33,-1.63,-0.42,-0.36,-0.21,
2.248,-0.51,0.33,-1.63,-0.42,-0.35,-0.21,
2.248,-0.51,0.33,-1.63,-0.43,-0.35,-0.21,
2.248,-0.51,0.33,-1.63,-0.44,-0.35,-0.21,
2.248,-0.51,0.33,-1.63,-0.44,-0.35,-0.21,
2.249,-0.42,0.36,-1.31,-0.44,-0.35,-0.21,
2.249,-0.42,0.36,-1.31,-0.45,-0.34,-0.21,
2.249,-0.42,0.36,-1.31,-0.45,-0.34,-0.21,
2.254,-0.42,0.36,-1.31,-0.46,-0.34,-0.20,
2.255,-0.42,0.36,-1.31,-0.46,-0.34,-0.20,
2.255,-0.42,0.36,-1.31,-0.46,-0.34,-0.20,
2.257,-0.43,0.38,-0.95,-0.46,-0.34,-0.20,
2.257,-0.43,0.38,-0.95,-0.47,-0.34,-0.20,
2.258,-0.43,0.38,-0.95,-0.47,-0.34,-0.19,
2.261,-0.43,0.38,-0.95,-0.47,-0.33,-0.19,
2.262,-0.43,0.38,-0.95,-0.47,-0.33,-0.18,
2.264,-0.43,0.38,-0.95,-0.48,-0.32,-0.18,
2.266,-0.47,0.36,-0.58,-0.48,-0.32,-0.18,
2.266,-0.47,0.36,-0.58,-0.48,-0.32,-0.17,
2.269,-0.47,0.36,-0.58,-0.48,-0.31,-0.16,
2.271,-0.47,0.36,-0.58,-0.47,-0.29,-0.16,
2.273,-0.47,0.36,-0.58,-0.47,-0.28,-0.15,
2.274,-0.47,0.36,-0.58,-0.47,-0.27,-0.15,
2.276,-0.48,0.29,-0.23,-0.47,-0.27,-0.15,
2.276,-0.48,0.29,-0.23,-0.47,-0.26,-0.14,
2.278,-0.48,0.29,-0.23,-0.46,-0.24,-0.14,
2.281,-0.48,0.29,-0.23,-0.45,-0.22,-0.12,
2.282,-0.48,0.29,-0.23,-0.44,-0.22,-0.12,
2.29,-0.48,0.29,-0.23,-0.44,-0.21,-0.11,
2.29,-0.58,0.26,0.16,-0.44,-0.21,-0.11,
2.291,-0.58,0.26,0.16,-0.42,-0.19,-0.10,
2.291,-0.58,0.26,0.16,-0.41,-0.17,-0.10,
2.291,-0.58,0.26,0.16,-0.39,-0.15,-0.08,
2.292,-0.58,0.26,0.16,-0.38,-0.13,-0.07,
2.294,-0.58,0.26,0.16,-0.36,-0.11,-0.06,
2.298,-0.68,0.29,0.50,-0.36,-0.11,-0.06,
2.298,-0.68,0.29,0.50,-0.34,-0.09,-0.06,
2.299,-0.68,0.29,0.50,-0.32,-0.07,-0.04,
2.317,-0.68,0.29,0.50,-0.29,-0.04,-0.02,
2.318,-0.68,0.29,0.50,-0.28,-0.03,-0.02,
2.318,-0.68,0.29,0.50,-0.26,-0.01,-0.00,
2.318,-0.82,0.28,0.56,-0.26,-0.01,-0.00,
2.318,-0.82,0.28,0.56,-0.25,0.00,0.01,
2.319,-0.82,0.28,0.56,-0.23,0.01,0.02,
2.319,-0.82,0.28,0.56,-0.20,0.03,0.04,
2.319,-0.82,0.28,0.56,-0.20,0.03,0.05,
2.319,-0.82,0.28,0.56,-0.18,0.03,0.06,
2.32,-0.84,0.30,0.44,-0.18,0.03,0.06,
2.32,-0.84,0.30,0.44,-0.16,0.04,0.07,
2.32,-0.84,0.30,0.44,-0.15,0.04,0.08,
2.323,-0.84,0.30,0.44,-0.12,0.03,0.10,
2.323,-0.84,0.30,0.44,-0.12,0.03,0.10,
2.327,-0.84,0.30,0.44,-0.10,0.02,0.12,
2.327,-0.91,0.40,0.31,-0.10,0.02,0.12,
2.327,-0.91,0.40,0.31,-0.08,0.02,0.13,
2.328,-0.91,0.40,0.31,-0.07,0.01,0.14,
2.331,-0.91,0.40,0.31,-0.05,-0.00,0.16,
2.332,-0.91,0.40,0.31,-0.05,-0.01,0.16,
2.336,-0.91,0.40,0.31,-0.03,-0.02,0.17,
2.338,-0.90,0.44,0.12,-0.03,-0.02,0.17,
2.338,-0.90,0.44,0.12,-0.02,-0.03,0.18,
2.339,-0.90,0.44,0.12,-0.02,-0.04,0.19,
2.341,-0.90,0.44,0.12,-0.01,-0.06,0.21,
2.342,-0.90,0.44,0.12,-0.00,-0.07,0.21,
2.344,-0.90,0.44,0.12,0.00,-0.08,0.22,
2.347,-0.89,0.47,-0.05,0.00,-0.08,0.22,
2.347,-0.89,0.47,-0.05,0.01,-0.10,0.23,
2.348,-0.89,0.47,-0.05,0.01,-0.11,0.24,
2.351,-0.89,0.47,-0.05,0.01,-0.13,0.26,
2.353,-0.89,0.47,-0.05,0.01,-0.14,0.26,
2.354,-0.89,0.47,-0.05,0.01,-0.16,0.28,
2.357,-0.92,0.42,-0.09,0.01,-0.16,0.28,
2.357,-0.92,0.42,-0.09,0.01,-0.18,0.29,
2.358,-0.92,0.42,-0.09,0.01,-0.19,0.30,
2.362,-0.92,0.42,-0.09,0.01,-0.22,0.32,
2.363,-0.92,0.42,-0.09,0.01,-0.22,0.33,
2.364,-0.92,0.42,-0.09,0.01,-0.24,0.34,
2.367,-0.95,0.44,0.11,0.01,-0.24,0.34,
2.367,-0.95,0.44,0.11,0.01,-0.25,0.35,
2.368,-0.95,0.44,0.11,0.02,-0.27,0.36,
2.371,-0.95,0.44,0.11,0.02,-0.29,0.38,
2.373,-0.95,0.44,0.11,0.02,-0.30,0.39,
2.374,-0.95,0.44,0.11,0.02,-0.31,0.40,
2.376,-0.81,0.44,0.47,0.02,-0.31,0.40,
2.377,-0.81,0.44,0.47,0.02,-0.33,0.41,
2.378,-0.81,0.44,0.47,0.03,-0.34,0.42,
2.382,-0.81,0.44,0.47,0.04,-0.35,0.43,
2.382,-0.81,0.44,0.47,0.04,-0.36,0.43,
2.385,-0.81,0.44,0.47,0.05,-0.36,0.44,
2.386,-0.61,0.43,0.91,0.05,-0.36,0.44,
2.387,-0.61,0.43,0.91,0.06,-0.37,0.44,
2.388,-0.61,0.43,0.91,0.07,-0.37,0.45,
2.391,-0.61,0.43,0.91,0.09,-0.38,0.45,
2.392,-0.61,0.43,0.91,0.10,-0.37,0.45,
2.42,-0.61,0.43,0.91,0.12,-0.37,0.45,
2.42,-0.21,0.47,1.46,0.12,-0.37,0.45,
2.421,-0.21,0.47,1.46,0.14,-0.37,0.46,
2.421,-0.21,0.47,1.46,0.16,-0.37,0.45,
2.422,-0.21,0.47,1.46,0.20,-0.36,0.45,
2.422,-0.21,0.47,1.46,0.21,-0.36,0.45,
2.422,-0.21,0.47,1.46,0.23,-0.35,0.45,
2.423,0.14,0.47,1.82,0.23,-0.35,0.45,
2.423,0.14,0.47,1.82,0.26,-0.34,0.45,
2.424,0.14,0.47,1.82,0.28,-0.33,0.44,
2.424,0.14,0.47,1.82,0.31,-0.31,0.44,
2.425,0.14,0.47,1.82,0.33,-0.31,0.43,
2.425,0.14,0.47,1.82,0.35,-0.29,0.43,
2.425,0.39,0.49,1.81,0.35,-0.29,0.43,
2.426,0.39,0.49,1.81,0.37,-0.27,0.42,
2.426,0.39,0.49,1.81,0.39,-0.25,0.42,
2.427,0.39,0.49,1.81,0.41,-0.22,0.41,
2.427,0.39,0.49,1.81,0.42,-0.21,0.41,
2.427,0.39,0.49,1.81,0.43,-0.18,0.41,
2.428,0.39,0.50,1.43,0.43,-0.18,0.41,
2.428,0.39,0.50,1.43,0.44,-0.15,0.40,
2.429,0.39,0.50,1.43,0.44,-0.12,0.40,
2.438,0.39,0.50,1.43,0.45,-0.08,0.39,
2.438,0.39,0.50,1.43,0.45,-0.06,0.39,
2.438,0.39,0.50,1.43,0.45,-0.03,0.39,
2.439,0.28,0.47,0.80,0.45,-0.03,0.39,
2.439,0.28,0.47,0.80,0.45,0.01,0.39,
2.439,0.28,0.47,0.80,0.44,0.05,0.39,
2.445,0.28,0.47,0.80,0.43,0.11,0.39,
2.445,0.28,0.47,0.80,0.43,0.13,0.39,
2.446,0.28,0.47,0.80,0.42,0.17,0.39,
2.446,0.11,0.45,0.14,0.42,0.17,0.39,
2.447,0.11,0.45,0.14,0.41,0.21,0.40,
2.449,0.11,0.45,0.14,0.39,0.25,0.40,
2.451,0.11,0.45,0.14,0.37,0.32,0.40,
2.453,0.11,0.45,0.14,0.36,0.34,0.40,
2.455,0.11,0.45,0.14,0.34,0.38,0.40,
2.458,-0.04,0.38,-0.35,0.34,0.38,0.40,
2.458,-0.04,0.38,-0.35,0.33,0.43,0.41,
2.458,-0.04,0.38,-0.35,0.31,0.48,0.41,
2.461,-0.04,0.38,-0.35,0.28,0.56,0.42,
2.462,-0.04,0.38,-0.35,0.27,0.58,0.42,
2.464,-0.04,0.38,-0.35,0.25,0.64,0.43,
2.472,-0.24,0.35,-0.67,0.25,0.64,0.43,
2.473,-0.24,0.35,-0.67,0.23,0.69,0.44,
2.473,-0.24,0.35,-0.67,0.21,0.75,0.45,
2.473,-0.24,0.35,-0.67,0.18,0.83,0.47,
2.473,-0.24,0.35,-0.67,0.16,0.86,0.47,
2.474,-0.24,0.35,-0.67,0.14,0.92,0.48,
2.478,-0.43,0.36,-0.96,0.14,0.92,0.48,
2.478,-0.43,0.36,-0.96,0.11,0.97,0.49,
2.478,-0.43,0.36,-0.96,0.09,1.02,0.50,
2.482,-0.43,0.36,-0.96,0.05,1.09,0.51,
2.499,-0.43,0.36,-0.96,0.03,1.11,0.51,
2.501,-0.43,0.36,-0.96,0.00,1.15,0.52,
2.502,-0.59,0.33,-1.27,0.00,1.15,0.52,
2.502,-0.59,0.33,-1.27,-0.03,1.17,0.52,
2.502,-0.59,0.33,-1.27,-0.06,1.19,0.53,
2.503,-0.59,0.33,-1.27,-0.11,1.21,0.54,
2.503,-0.59,0.33,-1.27,-0.12,1.21,0.55,
2.503,-0.59,0.33,-1.27,-0.15,1.21,0.55,
2.503,-0.75,0.19,-1.34,-0.15,1.21,0.55,
2.503,-0.75,0.19,-1.34,-0.18,1.20,0.56,
2.504,-0.75,0.19,-1.34,-0.21,1.19,0.58,
2.504,-0.75,0.19,-1.34,-0.24,1.16,0.60,
2.504,-0.75,0.19,-1.34,-0.26,1.15,0.60,
2.505,-0.75,0.19,-1.34,-0.28,1.12,0.62,
2.507,-0.91,0.03,-1.10,-0.28,1.12,0.62,
2.507,-0.91,0.03,-1.10,-0.30,1.09,0.63,
2.51,-0.91,0.03,-1.10,-0.32,1.07,0.65,
2.512,-0.91,0.03,-1.10,-0.35,1.02,0.67,
2.513,-0.91,0.03,-1.10,-0.36,1.00,0.68,
2.514,-0.91,0.03,-1.10,-0.37,0.97,0.70,
2.517,-0.89,-0.22,-0.58,-0.37,0.97,0.70,
2.517,-0.89,-0.22,-0.58,-0.37,0.93,0.71,
2.52,-0.89,-0.22,-0.58,-0.38,0.90,0.72,
2.522,-0.89,-0.22,-0.58,-0.39,0.84,0.75,
2.524,-0.89,-0.22,-0.58,-0.39,0.82,0.75,
2.524,-0.89,-0.22,-0.58,-0.39,0.79,0.77,
2.526,-0.73,-0.46,0.13,-0.39,0.79,0.77,
2.527,-0.73,-0.46,0.13,-0.38,0.75,0.78,
2.528,-0.73,-0.46,0.13,-0.38,0.71,0.80,
2.531,-0.73,-0.46,0.13,-0.37,0.65,0.82,
2.533,-0.73,-0.46,0.13,-0.36,0.61,0.83,
2.535,-0.73,-0.46,0.13,-0.36,0.59,0.84,
2.538,-0.58,-0.72,0.72,-0.36,0.59,0.84,
2.538,-0.58,-0.72,0.72,-0.35,0.54,0.86,
2.539,-0.58,-0.72,0.72,-0.34,0.50,0.87,
2.541,-0.58,-0.72,0.72,-0.32,0.43,0.90,
2.542,-0.58,-0.72,0.72,-0.31,0.39,0.92,
2.544,-0.58,-0.72,0.72,-0.31,0.37,0.93,
2.546,-0.44,-1.01,1.21,-0.31,0.37,0.93,
2.547,-0.44,-1.01,1.21,-0.30,0.33,0.94,
2.548,-0.44,-1.01,1.21,-0.28,0.30,0.96,
2.551,-0.44,-1.01,1.21,-0.26,0.25,0.98,
2.553,-0.44,-1.01,1.21,-0.25,0.22,0.99,
2.554,-0.44,-1.01,1.21,-0.24,0.21,1.00,
2.556,-0.25,-1.21,1.67,-0.24,0.21,1.00,
2.557,-0.25,-1.21,1.67,-0.22,0.19,1.01,
2.558,-0.25,-1.21,1.67,-0.20,0.18,1.03,
2.577,-0.25,-1.21,1.67,-0.18,0.16,1.04,
2.577,-0.25,-1.21,1.67,-0.16,0.15,1.06,
2.577,-0.25,-1.21,1.67,-0.15,0.15,1.06,
2.578,-0.06,-1.35,2.02,-0.15,0.15,1.06,
2.578,-0.06,-1.35,2.02,-0.13,0.15,1.07,
2.578,-0.06,-1.35,2.02,-0.11,0.15,1.08,
2.579,-0.06,-1.35,2.02,-0.09,0.15,1.09,
2.579,-0.06,-1.35,2.02,-0.07,0.15,1.11,
2.579,-0.06,-1.35,2.02,-0.06,0.16,1.11,
2.579,-0.04,-1.32,1.99,-0.06,0.16,1.11,
2.58,-0.04,-1.32,1.99,-0.05,0.16,1.12,
2.58,-0.04,-1.32,1.99,-0.04,0.16,1.13,
2.59,-0.04,-1.32,1.99,-0.03,0.16,1.15,
2.591,-0.04,-1.32,1.99,-0.03,0.17,1.16,
2.591,-0.04,-1.32,1.99,-0.03,0.17,1.16,
2.591,-0.09,-1.29,1.64,-0.03,0.17,1.16,
2.591,-0.09,-1.29,1.64,-0.03,0.17,1.17,
2.591,-0.09,-1.29,1.64,-0.04,0.17,1.17,
2.592,-0.09,-1.29,1.64,-0.04,0.17,1.19,
2.593,-0.09,-1.29,1.64,-0.05,0.16,1.19,
2.594,-0.09,-1.29,1.64,-0.06,0.16,1.19,
2.617,-0.04,-1.11,1.20,-0.06,0.16,1.19,
2.618,-0.04,-1.11,1.20,-0.08,0.15,1.19,
2.618,-0.04,-1.11,1.20,-0.09,0.14,1.19,
2.618,-0.04,-1.11,1.20,-0.10,0.13,1.19,
2.618,-0.04,-1.11,1.20,-0.11,0.12,1.19,
2.619,-0.04,-1.11,1.20,-0.12,0.11,1.19,
2.619,0.09,-0.98,0.98,-0.12,0.11,1.19,
2.619,0.09,-0.98,0.98,-0.14,0.08,1.19,
2.619,0.09,-0.98,0.98,-0.15,0.06,1.19,
2.619,0.09,-0.98,0.98,-0.18,0.01,1.17,
2.619,0.09,-0.98,0.98,-0.20,-0.02,1.16,
2.62,0.09,-0.98,0.98,-0.21,-0.04,1.16,
2.62,0.30,-0.79,0.97,-0.21,-0.04,1.16,
2.62,0.30,-0.79,0.97,-0.23,-0.09,1.15,
2.62,0.30,-0.79,0.97,-0.24,-0.13,1.14,
2.621,0.30,-0.79,0.97,-0.27,-0.20,1.12,
2.622,0.30,-0.79,0.97,-0.29,-0.25,1.10,
2.625,0.30,-0.79,0.97,-0.29,-0.28,1.09,
2.626,0.62,-0.74,1.33,-0.29,-0.28,1.09,
2.626,0.62,-0.74,1.33,-0.30,-0.33,1.07,
2.628,0.62,-0.74,1.33,-0.32,-0.38,1.06,
2.631,0.62,-0.74,1.33,-0.33,-0.45,1.03,
2.633,0.62,-0.74,1.33,-0.33,-0.49,1.01,
2.635,0.62,-0.74,1.33,-0.34,-0.52,1.00,
2.637,0.89,-0.69,1.97,-0.34,-0.52,1.00,
2.637,0.89,-0.69,1.97,-0.34,-0.56,0.98,
2.638,0.89,-0.69,1.97,-0.34,-0.60,0.96,
2.641,0.89,-0.69,1.97,-0.34,-0.65,0.93,
2.642,0.89,-0.69,1.97,-0.34,-0.68,0.91,
2.644,0.89,-0.69,1.97,-0.34,-0.70,0.90,
2.646,1.10,-0.79,2.66,-0.34,-0.70,0.90,
2.646,1.10,-0.79,2.66,-0.33,-0.72,0.88,
2.649,1.10,-0.79,2.66,-0.32,-0.74,0.86,
2.651,1.10,-0.79,2.66,-0.31,-0.76,0.83,
2.654,1.10,-0.79,2.66,-0.30,-0.77,0.81,
2.654,1.10,-0.79,2.66,-0.29,-0.77,0.80,
2.657,1.21,-0.90,3.20,-0.29,-0.77,0.80,
2.657,1.21,-0.90,3.20,-0.28,-0.77,0.78,
2.658,1.21,-0.90,3.20,-0.27,-0.76,0.76,
2.661,1.21,-0.90,3.20,-0.25,-0.74,0.73,
2.662,1.21,-0.90,3.20,-0.23,-0.71,0.71,
2.664,1.21,-0.90,3.20,-0.22,-0.69,0.70,
2.667,1.17,-1.07,3.46,-0.22,-0.69,0.70,
2.667,1.17,-1.07,3.46,-0.21,-0.66,0.69,
2.67,1.17,-1.07,3.46,-0.19,-0.62,0.68,
2.672,1.17,-1.07,3.46,-0.17,-0.55,0.66,
2.672,1.17,-1.07,3.46,-0.15,-0.50,0.65,
2.674,1.17,-1.07,3.46,-0.15,-0.47,0.64,
2.676,0.91,-1.24,3.31,-0.15,-0.47,0.64,
2.676,0.91,-1.24,3.31,-0.13,-0.42,0.64,
2.678,0.91,-1.24,3.31,-0.12,-0.37,0.63,
2.683,0.91,-1.24,3.31,-0.10,-0.28,0.62,
2.685,0.91,-1.24,3.31,-0.09,-0.22,0.61,
2.686,0.91,-1.24,3.31,-0.09,-0.19,0.61,
2.688,0.54,-1.36,2.84,-0.09,-0.19,0.61,
2.689,0.54,-1.36,2.84,-0.07,-0.14,0.61,
2.69,0.54,-1.36,2.84,-0.06,-0.08,0.60,
2.691,0.54,-1.36,2.84,-0.05,-0.00,0.60,
2.692,0.54,-1.36,2.84,-0.04,0.04,0.59,
2.694,0.54,-1.36,2.84,-0.04,0.06,0.59,
2.696,0.18,-1.36,2.08,-0.04,0.06,0.59,
2.696,0.18,-1.36,2.08,-0.03,0.10,0.59,
2.711,0.18,-1.36,2.08,-0.03,0.14,0.59,
2.712,0.18,-1.36,2.08,-0.02,0.19,0.58,
2.713,0.18,-1.36,2.08,-0.01,0.21,0.58,
2.713,0.18,-1.36,2.08,-0.01,0.23,0.58,
2.714,-0.10,-1.34,1.23,-0.01,0.23,0.58,
2.714,-0.10,-1.34,1.23,-0.00,0.25,0.58,
2.715,-0.10,-1.34,1.23,0.01,0.27,0.57,
2.742,-0.10,-1.34,1.23,0.02,0.29,0.57,
2.742,-0.10,-1.34,1.23,0.02,0.30,0.57,
2.742,-0.10,-1.34,1.23,0.03,0.30,0.57,
2.743,-0.30,-1.32,0.44,0.03,0.30,0.57,
2.743,-0.30,-1.32,0.44,0.04,0.31,0.57,
2.743,-0.30,-1.32,0.44,0.04,0.31,0.57,
2.743,-0.30,-1.32,0.44,0.06,0.30,0.57,
2.743,-0.30,-1.32,0.44,0.06,0.30,0.57,
2.743,-0.30,-1.32,0.44,0.06,0.29,0.57,
2.743,-0.45,-1.25,-0.26,0.06,0.29,0.57,
2.763,-0.45,-1.25,-0.26,0.07,0.28,0.57,
2.763,-0.45,-1.25,-0.26,0.08,0.27,0.57,
2.763,-0.45,-1.25,-0.26,0.09,0.25,0.57,
2.763,-0.45,-1.25,-0.26,0.10,0.24,0.57,
2.764,-0.45,-1.25,-0.26,0.11,0.23,0.57,
2.764,-0.52,-1.16,-0.78,0.11,0.23,0.57,
2.764,-0.52,-1.16,-0.78,0.12,0.21,0.56,
2.764,-0.52,-1.16,-0.78,0.13,0.20,0.56,
2.765,-0.52,-1.16,-0.78,0.14,0.18,0.56,
2.765,-0.52,-1.16,-0.78,0.15,0.16,0.56,
2.765,-0.52,-1.16,-0.78,0.15,0.16,0.56,
2.765,-0.49,-1.16,-1.11,0.15,0.16,0.56,
2.765,-0.49,-1.16,-1.11,0.16,0.14,0.56,
2.766,-0.49,-1.16,-1.11,0.17,0.13,0.56,
2.766,-0.49,-1.16,-1.11,0.19,0.11,0.55,
2.766,-0.49,-1.16,-1.11,0.20,0.10,0.55,
2.766,-0.49,-1.16,-1.11,0.20,0.10,0.55,
2.766,-0.39,-1.12,-1.33,0.20,0.10,0.55,
2.767,-0.39,-1.12,-1.33,0.21,0.10,0.55,
2.767,-0.39,-1.12,-1.33,0.22,0.10,0.55,
2.767,-0.39,-1.12,-1.33,0.23,0.10,0.55,
2.767,-0.39,-1.12,-1.33,0.24,0.11,0.55,
2.772,-0.39,-1.12,-1.33,0.24,0.11,0.56,
2.772,-0.39,-1.14,-1.58,0.24,0.11,0.56,
2.772,-0.39,-1.14,-1.58,0.24,0.12,0.56,
2.773,-0.39,-1.14,-1.58,0.25,0.14,0.56,
2.773,-0.39,-1.14,-1.58,0.25,0.15,0.57,
2.773,-0.39,-1.14,-1.58,0.25,0.16,0.57,
2.775,-0.39,-1.14,-1.58,0.24,0.17,0.57,
2.778,-0.32,-1.11,-1.95,0.24,0.17,0.57,
2.779,-0.32,-1.11,-1.95,0.24,0.18,0.57,
2.779,-0.32,-1.11,-1.95,0.23,0.19,0.57,
2.781,-0.32,-1.11,-1.95,0.22,0.20,0.57,
2.794,-0.32,-1.11,-1.95,0.22,0.21,0.57,
2.794,-0.32,-1.11,-1.95,0.21,0.21,0.57,
2.794,-0.09,-1.10,-2.28,0.21,0.21,0.57,
2.794,-0.09,-1.10,-2.28,0.19,0.22,0.57,
2.794,-0.09,-1.10,-2.28,0.19,0.23,0.56,
2.795,-0.09,-1.10,-2.28,0.17,0.23,0.55,
2.795,-0.09,-1.10,-2.28,0.16,0.23,0.54,
2.795,-0.09,-1.10,-2.28,0.14,0.24,0.53,
2.797,0.25,-0.99,-2.40,0.14,0.24,0.53,
2.797,0.25,-0.99,-2.40,0.13,0.24,0.52,
2.8,0.25,-0.99,-2.40,0.12,0.24,0.50,
2.801,0.25,-0.99,-2.40,0.11,0.24,0.49,
2.802,0.25,-0.99,-2.40,0.10,0.24,0.47,
2.804,0.25,-0.99,-2.40,0.09,0.24,0.46,
2.806,0.63,-0.96,-2.19,0.09,0.24,0.46,
2.806,0.63,-0.96,-2.19,0.08,0.23,0.44,
2.809,0.63,-0.96,-2.19,0.07,0.23,0.42,
2.811,0.63,-0.96,-2.19,0.07,0.23,0.40,
2.812,0.63,-0.96,-2.19,0.07,0.23,0.38,
2.814,0.63,-0.96,-2.19,0.07,0.23,0.36,
2.816,0.77,-0.92,-1.71,0.07,0.23,0.36,
2.817,0.77,-0.92,-1.71,0.08,0.24,0.34,
2.818,0.77,-0.92,-1.71,0.08,0.24,0.32,
2.821,0.77,-0.92,-1.71,0.09,0.24,0.30,
2.822,0.77,-0.92,-1.71,0.10,0.25,0.28,
2.824,0.77,-0.92,-1.71,0.12,0.25,0.26,
2.827,0.85,-1.04,-1.19,0.12,0.25,0.26,
2.827,0.85,-1.04,-1.19,0.13,0.26,0.24,
2.828,0.85,-1.04,-1.19,0.15,0.26,0.22,
2.832,0.85,-1.04,-1.19,0.17,0.27,0.20,
2.833,0.85,-1.04,-1.19,0.19,0.28,0.18,
2.834,0.85,-1.04,-1.19,0.21,0.29,0.16,
2.836,0.81,-1.13,-0.79,0.21,0.29,0.16,
2.837,0.81,-1.13,-0.79,0.24,0.29,0.14,
2.838,0.81,-1.13,-0.79,0.26,0.30,0.13,
2.841,0.81,-1.13,-0.79,0.29,0.31,0.11,
2.842,0.81,-1.13,-0.79,0.31,0.32,0.09,
2.844,0.81,-1.13,-0.79,0.34,0.33,0.07,
2.846,0.67,-1.28,-0.64,0.34,0.33,0.07,
2.847,0.67,-1.28,-0.64,0.37,0.33,0.06,
2.859,0.67,-1.28,-0.64,0.39,0.34,0.04,
2.859,0.67,-1.28,-0.64,0.42,0.34,0.03,
2.86,0.67,-1.28,-0.64,0.45,0.34,0.02,
2.86,0.67,-1.28,-0.64,0.47,0.34,0.00,
2.86,0.36,-1.37,-0.73,0.47,0.34,0.00,
2.86,0.36,-1.37,-0.73,0.50,0.35,-0.01,
2.86,0.36,-1.37,-0.73,0.52,0.34,-0.01,
2.862,0.36,-1.37,-0.73,0.54,0.34,-0.02,
2.863,0.36,-1.37,-0.73,0.57,0.34,-0.03,
2.883,0.36,-1.37,-0.73,0.59,0.34,-0.04,
2.883,0.12,-1.51,-0.96,0.59,0.34,-0.04,
2.883,0.12,-1.51,-0.96,0.61,0.33,-0.04,
2.883,0.12,-1.51,-0.96,0.63,0.33,-0.05,
2.884,0.12,-1.51,-0.96,0.65,0.32,-0.06,
2.884,0.12,-1.51,-0.96,0.67,0.31,-0.06,
2.884,0.12,-1.51,-0.96,0.69,0.30,-0.06,
2.884,-0.05,-1.56,-1.20,0.69,0.30,-0.06,
2.884,-0.05,-1.56,-1.20,0.71,0.29,-0.07,
2.884,-0.05,-1.56,-1.20,0.74,0.28,-0.07,
2.885,-0.05,-1.56,-1.20,0.76,0.27,-0.07,
2.885,-0.05,-1.56,-1.20,0.78,0.25,-0.08,
2.885,-0.05,-1.56,-1.20,0.81,0.24,-0.08,
2.887,-0.18,-1.62,-1.30,0.81,0.24,-0.08,
2.887,-0.18,-1.62,-1.30,0.83,0.21,-0.08,
2.889,-0.18,-1.62,-1.30,0.85,0.20,-0.08,
2.891,-0.18,-1.62,-1.30,0.88,0.18,-0.08,
2.892,-0.18,-1.62,-1.30,0.90,0.15,-0.09,
2.907,-0.18,-1.62,-1.30,0.93,0.13,-0.09,
2.908,-0.21,-1.60,-1.39,0.93,0.13,-0.09,
2.908,-0.21,-1.60,-1.39,0.95,0.11,-0.09,
2.908,-0.21,-1.60,-1.39,0.98,0.08,-0.09,
2.908,-0.21,-1.60,-1.39,1.00,0.06,-0.09,
2.909,-0.21,-1.60,-1.39,1.03,0.03,-0.09,
2.909,-0.21,-1.60,-1.39,1.05,0.01,-0.10,
2.909,-0.19,-1.66,-1.60,1.05,0.01,-0.10,
2.909,-0.19,-1.66,-1.60,1.07,-0.02,-0.10,
2.91,-0.19,-1.66,-1.60,1.10,-0.05,-0.10,
2.913,-0.19,-1.66,-1.60,1.12,-0.08,-0.10,
2.913,-0.19,-1.66,-1.60,1.14,-0.11,-0.11,
2.915,-0.19,-1.66,-1.60,1.16,-0.14,-0.11,
2.916,-0.09,-1.64,-1.84,1.16,-0.14,-0.11,
2.917,-0.09,-1.64,-1.84,1.18,-0.17,-0.11,
2.919,-0.09,-1.64,-1.84,1.20,-0.20,-0.11,
2.923,-0.09,-1.64,-1.84,1.24,-0.25,-0.12,
2.924,-0.09,-1.64,-1.84,1.24,-0.25,-0.12,
2.924,-0.09,-1.64,-1.84,1.26,-0.28,-0.13,
2.926,0.01,-1.56,-2.14,1.26,-0.28,-0.13,
2.927,0.01,-1.56,-2.14,1.27,-0.31,-0.13,
2.928,0.01,-1.56,-2.14,1.28,-0.33,-0.14,
2.931,0.01,-1.56,-2.14,1.30,-0.37,-0.15,
2.932,0.01,-1.56,-2.14,1.31,-0.38,-0.15,
2.935,0.01,-1.56,-2.14,1.32,-0.40,-0.16,
2.937,0.03,-1.40,-2.62,1.32,-0.40,-0.16,
2.938,0.03,-1.40,-2.62,1.32,-0.43,-0.17,
2.938,0.03,-1.40,-2.62,1.32,-0.44,-0.18,
2.941,0.03,-1.40,-2.62,1.32,-0.47,-0.19,
2.942,0.03,-1.40,-2.62,1.32,-0.48,-0.19,
2.944,0.03,-1.40,-2.62,1.31,-0.49,-0.20,
2.946,-0.02,-1.29,-3.24,1.31,-0.49,-0.20,
2.948,-0.02,-1.29,-3.24,1.29,-0.51,-0.21,
2.949,-0.02,-1.29,-3.24,1.29,-0.51,-0.22,
2.952,-0.02,-1.29,-3.24,1.27,-0.53,-0.23,
2.952,-0.02,-1.29,-3.24,1.25,-0.53,-0.23,
2.954,-0.02,-1.29,-3.24,1.23,-0.54,-0.24,
2.956,-0.16,-1.19,-3.88,1.23,-0.54,-0.24,
2.956,-0.16,-1.19,-3.88,1.20,-0.55,-0.25,
2.958,-0.16,-1.19,-3.88,1.18,-0.56,-0.26,
2.961,-0.16,-1.19,-3.88,1.15,-0.56,-0.26,
2.962,-0.16,-1.19,-3.88,1.12,-0.56,-0.27,
2.964,-0.16,-1.19,-3.88,1.09,-0.57,-0.28,
2.966,-0.30,-1.12,-4.28,1.09,-0.57,-0.28,
2.967,-0.30,-1.12,-4.28,1.06,-0.57,-0.28,
2.968,-0.30,-1.12,-4.28,1.02,-0.58,-0.29,
2.971,-0.30,-1.12,-4.28,0.99,-0.58,-0.30,
2.972,-0.30,-1.12,-4.28,0.96,-0.59,-0.30,
2.974,-0.30,-1.12,-4.28,0.93,-0.59,-0.31,
2.976,-0.35,-1.08,-4.32,0.93,-0.59,-0.31,
2.976,-0.35,-1.08,-4.32,0.90,-0.60,-0.32,
2.978,-0.35,-1.08,-4.32,0.87,-0.61,-0.33,
2.987,-0.35,-1.08,-4.32,0.83,-0.62,-0.34,
2.987,-0.35,-1.08,-4.32,0.82,-0.62,-0.34,
2.988,-0.35,-1.08,-4.32,0.79,-0.62,-0.35,
2.988,-0.31,-1.06,-4.10,0.79,-0.62,-0.35,
2.988,-0.31,-1.06,-4.10,0.77,-0.62,-0.36,
2.988,-0.31,-1.06,-4.10,0.74,-0.62,-0.37,
2.991,-0.31,-1.06,-4.10,0.71,-0.62,-0.38,
2.996,-0.31,-1.06,-4.10,0.70,-0.61,-0.38,
3.006,-0.31,-1.06,-4.10,0.68,-0.61,-0.39,
3.007,-0.43,-1.14,-3.78,0.68,-0.61,-0.39,
3.007,-0.43,-1.14,-3.78,0.67,-0.60,-0.39,
3.008,-0.43,-1.14,-3.78,0.65,-0.59,-0.40,
3.008,-0.43,-1.14,-3.78,0.62,-0.58,-0.40,
3.009,-0.43,-1.14,-3.78,0.62,-0.57,-0.40,
3.009,-0.43,-1.14,-3.78,0.60,-0.56,-0.40,
3.009,-0.56,-1.15,-3.55,0.60,-0.56,-0.40,
3.009,-0.56,-1.15,-3.55,0.59,-0.54,-0.40,
3.01,-0.56,-1.15,-3.55,0.58,-0.52,-0.40,
3.011,-0.56,-1.15,-3.55,0.56,-0.48,-0.40,
3.013,-0.56,-1.15,-3.55,0.55,-0.46,-0.39,
3.015,-0.56,-1.15,-3.55,0.54,-0.43,-0.39,
3.016,-0.72,-1.21,-3.33,0.54,-0.43,-0.39,
3.017,-0.72,-1.21,-3.33,0.54,-0.40,-0.39,
3.018,-0.72,-1.21,-3.33,0.53,-0.36,-0.38,
3.021,-0.72,-1.21,-3.33,0.51,-0.31,-0.37,
3.022,-0.72,-1.21,-3.33,0.51,-0.29,-0.37,
3.024,-0.72,-1.21,-3.33,0.50,-0.25,-0.36,
3.026,-0.86,-1.18,-3.20,0.50,-0.25,-0.36,
3.026,-0.86,-1.18,-3.20,0.50,-0.20,-0.35,
3.028,-0.86,-1.18,-3.20,0.49,-0.16,-0.35,
3.031,-0.86,-1.18,-3.20,0.47,-0.09,-0.34,
3.032,-0.86,-1.18,-3.20,0.47,-0.07,-0.33,
3.034,-0.86,-1.18,-3.20,0.46,-0.02,-0.32,
3.036,-0.94,-1.08,-3.27,0.46,-0.02,-0.32,
3.036,-0.94,-1.08,-3.27,0.45,0.03,-0.31,
3.038,-0.94,-1.08,-3.27,0.44,0.08,-0.31,
3.041,-0.94,-1.08,-3.27,0.42,0.15,-0.29,
3.042,-0.94,-1.08,-3.27,0.41,0.17,-0.29,
3.044,-0.94,-1.08,-3.27,0.40,0.22,-0.28,
3.047,-1.03,-0.85,-3.59,0.40,0.22,-0.28,
3.047,-1.03,-0.85,-3.59,0.38,0.26,-0.27,
3.049,-1.03,-0.85,-3.59,0.37,0.30,-0.27,
3.051,-1.03,-0.85,-3.59,0.33,0.37,-0.26,
3.052,-1.03,-0.85,-3.59,0.32,0.39,-0.26,
3.054,-1.03,-0.85,-3.59,0.30,0.43,-0.26,
3.056,-0.96,-0.58,-4.01,0.30,0.43,-0.26,
3.056,-0.96,-0.58,-4.01,0.27,0.47,-0.26,
3.058,-0.96,-0.58,-4.01,0.24,0.52,-0.26,
3.082,-0.96,-0.58,-4.01,0.19,0.59,-0.28,
3.083,-0.96,-0.58,-4.01,0.17,0.62,-0.28,
3.085,-0.96,-0.58,-4.01,0.13,0.67,-0.29,
3.085,-0.77,-0.28,-4.33,0.13,0.67,-0.29,
3.087,-0.77,-0.28,-4.33,0.08,0.73,-0.30,
3.087,-0.77,-0.28,-4.33,0.04,0.78,-0.31,
3.09,-0.77,-0.28,-4.33,-0.05,0.85,-0.33,
3.09,-0.77,-0.28,-4.33,-0.08,0.87,-0.33,
3.091,-0.77,-0.28,-4.33,-0.14,0.92,-0.34,
3.091,-0.61,0.03,-4.43,-0.14,0.92,-0.34,
3.092,-0.61,0.03,-4.43,-0.21,0.97,-0.36,
3.092,-0.61,0.03,-4.43,-0.27,1.02,-0.37,
3.093,-0.61,0.03,-4.43,-0.38,1.11,-0.39,
3.093,-0.61,0.03,-4.43,-0.42,1.14,-0.40,
3.093,-0.61,0.03,-4.43,-0.50,1.20,-0.41,
3.094,-0.69,0.47,-4.47,-0.50,1.20,-0.41,
3.094,-0.69,0.47,-4.47,-0.58,1.26,-0.41,
3.095,-0.69,0.47,-4.47,-0.67,1.30,-0.42,
3.095,-0.69,0.47,-4.47,-0.81,1.36,-0.42,
3.095,-0.69,0.47,-4.47,-0.86,1.38,-0.42,
3.096,-0.69,0.47,-4.47,-0.97,1.40,-0.41,
3.096,-1.01,0.45,-4.41,-0.97,1.40,-0.41,
3.097,-1.01,0.45,-4.41,-1.07,1.43,-0.40,
3.105,-1.01,0.45,-4.41,-1.18,1.44,-0.38,
3.106,-1.01,0.45,-4.41,-1.35,1.45,-0.36,
3.106,-1.01,0.45,-4.41,-1.40,1.45,-0.35,
3.106,-1.01,0.45,-4.41,-1.52,1.45,-0.34,
3.107,-0.97,0.33,-3.80,-1.52,1.45,-0.34,
3.107,-0.97,0.33,-3.80,-1.62,1.45,-0.33,
3.109,-0.97,0.33,-3.80,-1.72,1.44,-0.31,
3.111,-0.97,0.33,-3.80,-1.84,1.43,-0.28,
3.112,-0.97,0.33,-3.80,-1.88,1.43,-0.26,
3.122,-0.97,0.33,-3.80,-1.94,1.43,-0.24,
3.123,-1.58,0.60,-1.42,-1.94,1.43,-0.24,
3.123,-1.58,0.60,-1.42,-1.99,1.42,-0.21,
3.124,-1.58,0.60,-1.42,-2.03,1.42,-0.18,
3.124,-1.58,0.60,-1.42,-2.07,1.40,-0.14,
3.124,-1.58,0.60,-1.42,-2.07,1.40,-0.13,
3.124,-1.58,0.60,-1.42,-2.07,1.38,-0.11,
3.129,-1.72,0.80,2.00,-2.07,1.38,-0.11,
3.129,-1.72,0.80,2.00,-2.06,1.36,-0.08,
3.13,-1.72,0.80,2.00,-2.04,1.33,-0.06,
3.137,-1.72,0.80,2.00,-1.98,1.27,-0.03,
3.137,-1.72,0.80,2.00,-1.96,1.25,-0.02,
3.138,-1.72,0.80,2.00,-1.91,1.20,-0.01,
3.138,-1.24,0.62,5.52,-1.91,1.20,-0.01,
3.138,-1.24,0.62,5.52,-1.85,1.14,0.01,
3.138,-1.24,0.62,5.52,-1.77,1.09,0.02,
3.141,-1.24,0.62,5.52,-1.64,1.01,0.04,
3.174,-1.24,0.62,5.52,-1.59,0.98,0.04,
3.175,-1.24,0.62,5.52,-1.50,0.93,0.05,
3.175,-0.95,0.47,8.43,-1.50,0.93,0.05,
3.175,-0.95,0.47,8.43,-1.40,0.87,0.06,
3.175,-0.95,0.47,8.43,-1.29,0.81,0.07,
3.176,-0.95,0.47,8.43,-1.13,0.72,0.09,
3.176,-0.95,0.47,8.43,-1.08,0.69,0.09,
3.176,-0.95,0.47,8.43,-0.97,0.63,0.09,
3.176,-0.61,0.46,10.03,-0.97,0.63,0.09,
3.176,-0.61,0.46,10.03,-0.86,0.57,0.10,
3.177,-0.61,0.46,10.03,-0.75,0.51,0.10,
3.177,-0.61,0.46,10.03,-0.59,0.42,0.10,
3.177,-0.61,0.46,10.03,-0.54,0.40,0.10,
3.177,-0.61,0.46,10.03,-0.44,0.35,0.10,
3.177,-0.39,0.30,10.51,-0.44,0.35,0.10,
3.177,-0.39,0.30,10.51,-0.34,0.31,0.11,
3.178,-0.39,0.30,10.51,-0.25,0.27,0.12,
3.178,-0.39,0.30,10.51,-0.13,0.23,0.13,
3.178,-0.39,0.30,10.51,-0.09,0.23,0.14,
3.178,-0.39,0.30,10.51,-0.02,0.21,0.16,
3.178,-0.88,0.73,9.89,-0.02,0.21,0.16,
3.179,-0.88,0.73,9.89,0.04,0.20,0.17,
3.179,-0.88,0.73,9.89,0.09,0.19,0.19,
3.191,-0.88,0.73,9.89,0.15,0.18,0.22,
3.195,-0.88,0.73,9.89,0.16,0.18,0.24,
3.198,-0.88,0.73,9.89,0.18,0.16,0.26,
3.199,-1.36,1.28,8.34,0.18,0.16,0.26,
3.203,-1.36,1.28,8.34,0.19,0.15,0.28,
3.203,-1.36,1.28,8.34,0.19,0.13,0.30,
3.204,-1.36,1.28,8.34,0.17,0.08,0.32,
3.204,-1.36,1.28,8.34,0.15,0.07,0.32,
3.204,-1.36,1.28,8.34,0.12,0.02,0.33,
3.205,-0.89,1.54,6.30,0.12,0.02,0.33,
3.205,-0.89,1.54,6.30,0.07,-0.02,0.34,
3.205,-0.89,1.54,6.30,0.02,-0.06,0.33,
3.205,-0.89,1.54,6.30,-0.08,-0.13,0.32,
3.206,-0.89,1.54,6.30,-0.11,-0.15,0.32,
3.206,-0.89,1.54,6.30,-0.19,-0.20,0.30,
3.206,0.24,1.63,4.62,-0.19,-0.20,0.30,
3.207,0.24,1.63,4.62,-0.27,-0.25,0.28,
3.211,0.24,1.63,4.62,-0.36,-0.30,0.26,
3.213,0.24,1.63,4.62,-0.49,-0.37,0.22,
3.213,0.24,1.63,4.62,-0.53,-0.40,0.20,
3.215,0.24,1.63,4.62,-0.62,-0.44,0.17,
3.218,1.22,1.52,4.02,-0.62,-0.44,0.17,
3.219,1.22,1.52,4.02,-0.71,-0.49,0.14,
3.22,1.22,1.52,4.02,-0.80,-0.54,0.11,
3.226,1.22,1.52,4.02,-0.92,-0.60,0.07,
3.227,1.22,1.52,4.02,-0.95,-0.62,0.05,
3.23,1.22,1.52,4.02,-1.03,-0.66,0.02,
3.231,2.11,1.01,4.63,-1.03,-0.66,0.02,
3.256,2.11,1.01,4.63,-1.09,-0.69,-0.01,
3.257,2.11,1.01,4.63,-1.15,-0.71,-0.04,
3.257,2.11,1.01,4.63,-1.23,-0.73,-0.07,
3.257,2.11,1.01,4.63,-1.25,-0.73,-0.09,
3.258,2.11,1.01,4.63,-1.29,-0.73,-0.11,
3.258,2.64,0.37,6.02,-1.29,-0.73,-0.11,
3.258,2.64,0.37,6.02,-1.32,-0.73,-0.13,
3.258,2.64,0.37,6.02,-1.35,-0.72,-0.14,
3.259,2.64,0.37,6.02,-1.38,-0.68,-0.16,
3.259,2.64,0.37,6.02,-1.39,-0.66,-0.16,
3.259,2.64,0.37,6.02,-1.39,-0.62,-0.17,
3.259,2.71,-0.56,7.53,-1.39,-0.62,-0.17,
3.26,2.71,-0.56,7.53,-1.39,-0.57,-0.17,
3.26,2.71,-0.56,7.53,-1.39,-0.52,-0.16,
3.26,2.71,-0.56,7.53,-1.37,-0.42,-0.15,
3.261,2.71,-0.56,7.53,-1.36,-0.38,-0.14,
3.261,2.71,-0.56,7.53,-1.33,-0.30,-0.12,
3.261,2.35,-1.33,8.73,-1.33,-0.30,-0.12,
3.262,2.35,-1.33,8.73,-1.29,-0.22,-0.10,
3.262,2.35,-1.33,8.73,-1.25,-0.14,-0.08,
3.262,2.35,-1.33,8.73,-1.17,-0.01,-0.05,
3.262,2.35,-1.33,8.73,-1.14,0.04,-0.04,
3.271,2.35,-1.33,8.73,-1.08,0.13,-0.01,
3.272,2.02,-1.89,9.36,-1.08,0.13,-0.01,
3.272,2.02,-1.89,9.36,-1.01,0.21,0.01,
3.276,2.02,-1.89,9.36,-0.93,0.30,0.04,
3.277,2.02,-1.89,9.36,-0.81,0.41,0.08,
3.277,2.02,-1.89,9.36,-0.77,0.45,0.09,
3.277,2.02,-1.89,9.36,-0.68,0.50,0.12,
3.278,1.60,-1.74,9.07,-0.68,0.50,0.12,
3.278,1.60,-1.74,9.07,-0.59,0.55,0.14,
3.278,1.60,-1.74,9.07,-0.50,0.60,0.16,
3.283,1.60,-1.74,9.07,-0.37,0.65,0.19,
3.285,1.60,-1.74,9.07,-0.32,0.66,0.20,
3.285,1.60,-1.74,9.07,-0.23,0.68,0.22,
3.287,1.47,-1.57,7.63,-0.23,0.68,0.22,
3.288,1.47,-1.57,7.63,-0.14,0.70,0.24,
3.288,1.47,-1.57,7.63,-0.05,0.70,0.25,
3.291,1.47,-1.57,7.63,0.07,0.71,0.28,
3.292,1.47,-1.57,7.63,0.12,0.70,0.29,
3.294,1.47,-1.57,7.63,0.20,0.69,0.30,
3.303,1.16,-1.35,5.43,0.20,0.69,0.30,
3.303,1.16,-1.35,5.43,0.31,0.68,0.32,
3.303,1.16,-1.35,5.43,0.35,0.67,0.33,
3.304,1.16,-1.35,5.43,0.45,0.63,0.36,
3.304,1.16,-1.35,5.43,0.49,0.62,0.36,
3.304,1.16,-1.35,5.43,0.55,0.59,0.38,
3.314,0.84,-1.18,2.91,0.55,0.59,0.38,
3.315,0.84,-1.18,2.91,0.61,0.55,0.39,
3.315,0.84,-1.18,2.91,0.67,0.50,0.40,
3.329,0.84,-1.18,2.91,0.75,0.41,0.42,
3.33,0.84,-1.18,2.91,0.77,0.38,0.43,
3.33,0.84,-1.18,2.91,0.82,0.31,0.43,
3.33,0.68,-0.84,0.32,0.82,0.31,0.43,
3.33,0.68,-0.84,0.32,0.86,0.24,0.44,
3.331,0.68,-0.84,0.32,0.90,0.17,0.44,
3.331,0.68,-0.84,0.32,0.94,0.05,0.45,
3.331,0.68,-0.84,0.32,0.96,0.02,0.45,
3.331,0.68,-0.84,0.32,0.98,-0.05,0.45,
3.332,0.61,-0.63,-1.97,0.98,-0.05,0.45,
3.332,0.61,-0.63,-1.97,1.01,-0.12,0.46,
3.332,0.61,-0.63,-1.97,1.02,-0.18,0.46,
3.332,0.61,-0.63,-1.97,1.04,-0.28,0.47,
3.335,0.61,-0.63,-1.97,1.04,-0.31,0.47,
3.335,0.61,-0.63,-1.97,1.05,-0.37,0.47,
3.336,0.50,-0.45,-3.87,1.05,-0.37,0.47,
3.337,0.50,-0.45,-3.87,1.05,-0.42,0.47,
3.338,0.50,-0.45,-3.87,1.05,-0.46,0.47,
3.341,0.50,-0.45,-3.87,1.03,-0.53,0.47,
3.342,0.50,-0.45,-3.87,1.03,-0.55,0.47,
3.345,0.50,-0.45,-3.87,1.02,-0.58,0.47,
3.35,0.60,-0.39,-5.37,1.02,-0.58,0.47,
3.35,0.60,-0.39,-5.37,1.00,-0.60,0.47,
3.35,0.60,-0.39,-5.37,0.99,-0.62,0.47,
3.354,0.60,-0.39,-5.37,0.95,-0.64,0.48,
3.355,0.60,-0.39,-5.37,0.94,-0.64,0.48,
3.355,0.60,-0.39,-5.37,0.92,-0.65,0.49,
3.359,0.19,-0.27,-6.33,0.92,-0.65,0.49,
3.359,0.19,-0.27,-6.33,0.89,-0.65,0.49,
3.359,0.19,-0.27,-6.33,0.86,-0.65,0.50,
3.363,0.19,-0.27,-6.33,0.81,-0.64,0.51,
3.364,0.19,-0.27,-6.33,0.80,-0.64,0.51,
3.368,0.19,-0.27,-6.33,0.76,-0.63,0.52,
3.369,0.02,-0.09,-7.00,0.76,-0.63,0.52,
3.369,0.02,-0.09,-7.00,0.73,-0.61,0.53,
3.369,0.02,-0.09,-7.00,0.69,-0.59,0.54,
3.373,0.02,-0.09,-7.00,0.63,-0.55,0.55,
3.374,0.02,-0.09,-7.00,0.61,-0.54,0.55,
3.374,0.02,-0.09,-7.00,0.57,-0.52,0.56,
3.378,0.00,-0.26,-7.32,0.57,-0.52,0.56,
3.379,0.00,-0.26,-7.32,0.53,-0.49,0.56,
3.379,0.00,-0.26,-7.32,0.48,-0.46,0.57,
3.383,0.00,-0.26,-7.32,0.42,-0.42,0.58,
3.384,0.00,-0.26,-7.32,0.39,-0.40,0.58,
3.384,0.00,-0.26,-7.32,0.35,-0.37,0.59,
3.386,0.10,-0.13,-7.45,0.35,-0.37,0.59,
3.386,0.10,-0.13,-7.45,0.30,-0.34,0.59,
3.39,0.10,-0.13,-7.45,0.26,-0.31,0.59,
3.393,0.10,-0.13,-7.45,0.20,-0.27,0.59,
3.394,0.10,-0.13,-7.45,0.18,-0.25,0.59,
3.412,0.10,-0.13,-7.45,0.14,-0.22,0.59,
3.412,0.34,-0.20,-7.16,0.14,-0.22,0.59,
3.413,0.34,-0.20,-7.16,0.09,-0.19,0.58,
3.413,0.34,-0.20,-7.16,0.05,-0.17,0.57,
3.413,0.34,-0.20,-7.16,0.00,-0.13,0.55,
3.414,0.34,-0.20,-7.16,-0.01,-0.12,0.55,
3.414,0.34,-0.20,-7.16,-0.05,-0.09,0.53,
3.414,0.88,-0.05,-6.77,-0.05,-0.09,0.53,
3.414,0.88,-0.05,-6.77,-0.09,-0.07,0.51,
3.415,0.88,-0.05,-6.77,-0.11,-0.05,0.49,
3.415,0.88,-0.05,-6.77,-0.16,-0.02,0.47,
3.415,0.88,-0.05,-6.77,-0.17,-0.01,0.45,
3.416,0.88,-0.05,-6.77,-0.20,0.01,0.43,
3.419,1.22,-0.12,-6.22,-0.20,0.01,0.43,
3.419,1.22,-0.12,-6.22,-0.22,0.03,0.41,
3.427,1.22,-0.12,-6.22,-0.25,0.04,0.38,
3.428,1.22,-0.12,-6.22,-0.28,0.06,0.35,
3.428,1.22,-0.12,-6.22,-0.30,0.07,0.34,
3.428,1.22,-0.12,-6.22,-0.32,0.08,0.31,
3.428,1.49,-0.10,-5.70,-0.32,0.08,0.31,
3.428,1.49,-0.10,-5.70,-0.34,0.09,0.29,
3.429,1.49,-0.10,-5.70,-0.36,0.10,0.26,
3.431,1.49,-0.10,-5.70,-0.39,0.11,0.23,
3.432,1.49,-0.10,-5.70,-0.40,0.12,0.21,
3.434,1.49,-0.10,-5.70,-0.41,0.13,0.19,
3.437,1.50,-0.28,-5.04,-0.41,0.13,0.19,
3.437,1.50,-0.28,-5.04,-0.43,0.15,0.17,
3.438,1.50,-0.28,-5.04,-0.45,0.16,0.15,
3.441,1.50,-0.28,-5.04,-0.46,0.18,0.12,
3.442,1.50,-0.28,-5.04,-0.47,0.19,0.11,
3.444,1.50,-0.28,-5.04,-0.48,0.20,0.09,
3.458,1.54,-0.44,-4.48,-0.48,0.20,0.09,
3.458,1.54,-0.44,-4.48,-0.50,0.21,0.07,
3.458,1.54,-0.44,-4.48,-0.51,0.22,0.06,
3.458,1.54,-0.44,-4.48,-0.53,0.24,0.03,
3.459,1.54,-0.44,-4.48,-0.54,0.24,0.02,
3.459,1.54,-0.44,-4.48,-0.56,0.25,0.01,
3.459,1.33,-0.63,-4.00,-0.56,0.25,0.01,
3.459,1.33,-0.63,-4.00,-0.57,0.26,-0.00,
3.459,1.33,-0.63,-4.00,-0.59,0.27,-0.01,
3.463,1.33,-0.63,-4.00,-0.62,0.28,-0.03,
3.463,1.33,-0.63,-4.00,-0.63,0.28,-0.03,
3.467,1.33,-0.63,-4.00,-0.65,0.29,-0.04,
3.468,1.17,-0.78,-3.51,-0.65,0.29,-0.04,
3.468,1.17,-0.78,-3.51,-0.67,0.30,-0.05,
3.468,1.17,-0.78,-3.51,-0.68,0.31,-0.06,
3.473,1.17,-0.78,-3.51,-0.70,0.33,-0.07,
3.473,1.17,-0.78,-3.51,-0.71,0.34,-0.08,
3.476,1.17,-0.78,-3.51,-0.72,0.36,-0.08,
3.476,0.91,-0.96,-2.84,-0.72,0.36,-0.08,
3.476,0.91,-0.96,-2.84,-0.73,0.38,-0.08,
3.479,0.91,-0.96,-2.84,-0.74,0.40,-0.08,
3.483,0.91,-0.96,-2.84,-0.74,0.43,-0.08,
3.483,0.91,-0.96,-2.84,-0.74,0.44,-0.08,
3.486,0.91,-0.96,-2.84,-0.74,0.46,-0.07,
3.486,0.57,-1.17,-2.06,-0.74,0.46,-0.07,
3.486,0.57,-1.17,-2.06,-0.74,0.49,-0.06,
3.489,0.57,-1.17,-2.06,-0.73,0.52,-0.06,
3.491,0.57,-1.17,-2.06,-0.72,0.56,-0.04,
3.492,0.57,-1.17,-2.06,-0.71,0.57,-0.04,
3.494,0.57,-1.17,-2.06,-0.70,0.60,-0.02,
3.498,0.29,-1.33,-1.29,-0.70,0.60,-0.02,
3.498,0.29,-1.33,-1.29,-0.68,0.63,-0.01,
3.498,0.29,-1.33,-1.29,-0.66,0.65,-0.00,
3.501,0.29,-1.33,-1.29,-0.63,0.68,0.01,
3.502,0.29,-1.33,-1.29,-0.62,0.69,0.02,
3.504,0.29,-1.33,-1.29,-0.59,0.71,0.03,
3.506,0.12,-1.39,-0.67,-0.59,0.71,0.03,
3.506,0.12,-1.39,-0.67,-0.56,0.72,0.04,
3.508,0.12,-1.39,-0.67,-0.54,0.73,0.05,
3.522,0.12,-1.39,-0.67,-0.49,0.73,0.07,
3.523,0.12,-1.39,-0.67,-0.47,0.73,0.08,
3.523,0.12,-1.39,-0.67,-0.44,0.73,0.09,
3.523,0.02,-1.30,-0.17,-0.44,0.73,0.09,
3.523,0.02,-1.30,-0.17,-0.40,0.72,0.10,
3.523,0.02,-1.30,-0.17,-0.36,0.71,0.11,
3.523,0.02,-1.30,-0.17,-0.30,0.68,0.13,
3.523,0.02,-1.30,-0.17,-0.28,0.67,0.14,
3.524,0.02,-1.30,-0.17,-0.23,0.65,0.15,
3.526,0.01,-1.19,0.17,-0.23,0.65,0.15,
3.527,0.01,-1.19,0.17,-0.19,0.63,0.16,
3.533,0.01,-1.19,0.17,-0.14,0.60,0.17,
3.535,0.01,-1.19,0.17,-0.07,0.56,0.18,
3.535,0.01,-1.19,0.17,-0.05,0.54,0.19,
3.538,0.01,-1.19,0.17,0.00,0.51,0.19,
3.539,0.04,-0.96,0.26,0.00,0.51,0.19,
3.539,0.04,-0.96,0.26,0.05,0.48,0.20,
3.54,0.04,-0.96,0.26,0.10,0.45,0.21,
3.541,0.04,-0.96,0.26,0.17,0.40,0.22,
3.543,0.04,-0.96,0.26,0.19,0.39,0.22,
3.548,0.04,-0.96,0.26,0.24,0.36,0.23,
3.549,-0.05,-0.84,0.06,0.24,0.36,0.23,
3.549,-0.05,-0.84,0.06,0.28,0.33,0.24,
3.549,-0.05,-0.84,0.06,0.32,0.30,0.25,
3.551,-0.05,-0.84,0.06,0.38,0.26,0.26,
3.553,-0.05,-0.84,0.06,0.39,0.25,0.27,
3.554,-0.05,-0.84,0.06,0.43,0.22,0.28,
3.556,-0.25,-0.72,-0.48,0.43,0.22,0.28,
3.557,-0.25,-0.72,-0.48,0.45,0.20,0.29,
3.558,-0.25,-0.72,-0.48,0.48,0.18,0.30,
3.586,-0.25,-0.72,-0.48,0.51,0.15,0.32,
3.587,-0.25,-0.72,-0.48,0.52,0.14,0.33,
3.587,-0.25,-0.72,-0.48,0.53,0.13,0.34,
3.588,-0.52,-0.62,-1.22,0.53,0.13,0.34,
3.588,-0.52,-0.62,-1.22,0.54,0.11,0.36,
3.589,-0.52,-0.62,-1.22,0.55,0.10,0.37,
3.59,-0.52,-0.62,-1.22,0.55,0.09,0.40,
3.59,-0.52,-0.62,-1.22,0.55,0.08,0.41,
3.591,-0.52,-0.62,-1.22,0.54,0.08,0.42,
3.591,-0.66,-0.53,-1.89,0.54,0.08,0.42,
3.592,-0.66,-0.53,-1.89,0.53,0.07,0.44,
3.592,-0.66,-0.53,-1.89,0.52,0.07,0.46,
3.593,-0.66,-0.53,-1.89,0.50,0.08,0.48,
3.593,-0.66,-0.53,-1.89,0.49,0.08,0.49,
3.594,-0.66,-0.53,-1.89,0.47,0.08,0.50,
3.595,-0.60,-0.40,-2.30,0.47,0.08,0.50,
3.595,-0.60,-0.40,-2.30,0.45,0.09,0.51,
3.596,-0.60,-0.40,-2.30,0.42,0.10,0.53,
3.597,-0.60,-0.40,-2.30,0.39,0.12,0.54,
3.597,-0.60,-0.40,-2.30,0.38,0.12,0.55,
3.598,-0.60,-0.40,-2.30,0.35,0.14,0.55,
3.599,-0.26,-0.34,-2.31,0.35,0.14,0.55,
3.599,-0.26,-0.34,-2.31,0.33,0.15,0.56,
3.599,-0.26,-0.34,-2.31,0.30,0.17,0.56,
3.605,-0.26,-0.34,-2.31,0.27,0.19,0.55,
3.606,-0.26,-0.34,-2.31,0.26,0.19,0.55,
3.606,-0.26,-0.34,-2.31,0.24,0.20,0.55,
3.606,0.29,-0.22,-1.90,0.24,0.20,0.55,
3.607,0.29,-0.22,-1.90,0.23,0.20,0.54,
3.609,0.29,-0.22,-1.90,0.21,0.20,0.53,
3.611,0.29,-0.22,-1.90,0.19,0.20,0.51,
3.612,0.29,-0.22,-1.90,0.19,0.20,0.50,
3.614,0.29,-0.22,-1.90,0.18,0.19,0.49,
3.616,0.78,-0.06,-1.29,0.18,0.19,0.49,
3.617,0.78,-0.06,-1.29,0.17,0.17,0.47,
3.618,0.78,-0.06,-1.29,0.17,0.15,0.45,
3.621,0.78,-0.06,-1.29,0.17,0.12,0.42,
3.622,0.78,-0.06,-1.29,0.17,0.10,0.41,
3.624,0.78,-0.06,-1.29,0.17,0.07,0.39,
3.626,1.26,0.07,-0.73,0.17,0.07,0.39,
3.626,1.26,0.07,-0.73,0.18,0.04,0.37,
3.638,1.26,0.07,-0.73,0.19,0.01,0.34,
3.639,1.26,0.07,-0.73,0.21,-0.05,0.30,
3.639,1.26,0.07,-0.73,0.21,-0.07,0.29,
3.639,1.26,0.07,-0.73,0.23,-0.11,0.26,
3.639,1.53,0.11,-0.37,0.23,-0.11,0.26,
3.64,1.53,0.11,-0.37,0.24,-0.16,0.23,
3.64,1.53,0.11,-0.37,0.25,-0.20,0.20,
3.641,1.53,0.11,-0.37,0.27,-0.28,0.16,
3.642,1.53,0.11,-0.37,0.28,-0.31,0.14,
3.671,1.53,0.11,-0.37,0.30,-0.36,0.11,
3.671,1.70,0.20,-0.20,0.30,-0.36,0.11,
3.671,1.70,0.20,-0.20,0.32,-0.43,0.06,
3.671,1.70,0.20,-0.20,0.33,-0.45,0.05,
3.672,1.70,0.20,-0.20,0.35,-0.51,0.01,
3.672,1.70,0.20,-0.20,0.35,-0.53,-0.01,
3.672,1.70,0.20,-0.20,0.36,-0.56,-0.03,
3.672,1.44,0.15,-0.06,0.36,-0.56,-0.03,
3.672,1.44,0.15,-0.06,0.37,-0.59,-0.05,
3.673,1.44,0.15,-0.06,0.38,-0.61,-0.07,
3.673,1.44,0.15,-0.06,0.38,-0.63,-0.10,
3.673,1.44,0.15,-0.06,0.38,-0.64,-0.10,
3.673,1.44,0.15,-0.06,0.38,-0.65,-0.12,
3.673,1.10,-0.07,-0.01,0.38,-0.65,-0.12,
3.673,1.10,-0.07,-0.01,0.37,-0.65,-0.13,
3.674,1.10,-0.07,-0.01,0.36,-0.65,-0.15,
3.674,1.10,-0.07,-0.01,0.35,-0.64,-0.16,
3.674,1.10,-0.07,-0.01,0.34,-0.63,-0.17,
3.674,1.10,-0.07,-0.01,0.33,-0.61,-0.18,
3.677,0.86,-0.31,0.26,0.33,-0.61,-0.18,
3.677,0.86,-0.31,0.26,0.32,-0.58,-0.19,
3.684,0.86,-0.31,0.26,0.31,-0.55,-0.19,
3.685,0.86,-0.31,0.26,0.30,-0.48,-0.20,
3.686,0.86,-0.31,0.26,0.29,-0.46,-0.20,
3.686,0.86,-0.31,0.26,0.29,-0.41,-0.20,
3.687,0.62,-0.73,1.03,0.29,-0.41,-0.20,
3.687,0.62,-0.73,1.03,0.29,-0.35,-0.20,
3.688,0.62,-0.73,1.03,0.28,-0.30,-0.19,
3.691,0.62,-0.73,1.03,0.29,-0.20,-0.18,
3.692,0.62,-0.73,1.03,0.29,-0.17,-0.18,
3.696,0.62,-0.73,1.03,0.30,-0.10,-0.17,
3.696,0.37,-1.05,2.01,0.30,-0.10,-0.17,
3.697,0.37,-1.05,2.01,0.31,-0.03,-0.16,
3.698,0.37,-1.05,2.01,0.33,0.04,-0.15,
3.701,0.37,-1.05,2.01,0.36,0.15,-0.13,
3.702,0.37,-1.05,2.01,0.38,0.19,-0.13,
3.704,0.37,-1.05,2.01,0.41,0.26,-0.11,
3.706,0.11,-1.30,3.09,0.41,0.26,-0.11,
3.707,0.11,-1.30,3.09,0.44,0.33,-0.09,
3.708,0.11,-1.30,3.09,0.48,0.40,-0.08,
3.713,0.11,-1.30,3.09,0.53,0.49,-0.05,
3.716,0.11,-1.30,3.09,0.55,0.52,-0.04,
3.716,0.11,-1.30,3.09,0.59,0.57,-0.03,
3.719,-0.11,-1.34,3.69,0.59,0.57,-0.03,
3.719,-0.11,-1.34,3.69,0.63,0.61,-0.01,
3.72,-0.11,-1.34,3.69,0.67,0.65,-0.00,
3.722,-0.11,-1.34,3.69,0.74,0.70,0.02,
3.723,-0.11,-1.34,3.69,0.77,0.72,0.03,
3.724,-0.11,-1.34,3.69,0.82,0.74,0.04,
3.727,-0.32,-1.38,3.93,0.82,0.74,0.04,
3.764,-0.32,-1.38,3.93,0.86,0.76,0.06,
3.765,-0.32,-1.38,3.93,0.91,0.78,0.07,
3.765,-0.32,-1.38,3.93,0.98,0.79,0.09,
3.766,-0.32,-1.38,3.93,1.00,0.79,0.10,
3.766,-0.32,-1.38,3.93,1.03,0.78,0.11,
3.766,-0.61,-1.07,3.40,1.03,0.78,0.11,
3.767,-0.61,-1.07,3.40,1.06,0.77,0.12,
3.767,-0.61,-1.07,3.40,1.09,0.75,0.12,
3.768,-0.61,-1.07,3.40,1.12,0.71,0.13,
3.768,-0.61,-1.07,3.40,1.13,0.69,0.13,
3.768,-0.61,-1.07,3.40,1.14,0.66,0.13,
3.769,-1.00,-0.58,2.19,1.14,0.66,0.13,
3.769,-1.00,-0.58,2.19,1.14,0.62,0.14,
3.77,-1.00,-0.58,2.19,1.14,0.58,0.14,
3.77,-1.00,-0.58,2.19,1.12,0.50,0.15,
3.77,-1.00,-0.58,2.19,1.11,0.47,0.15,
3.771,-1.00,-0.58,2.19,1.08,0.40,0.16,
3.771,-1.73,0.10,0.64,1.08,0.40,0.16,
3.772,-1.73,0.10,0.64,1.05,0.34,0.16,
3.772,-1.73,0.10,0.64,1.00,0.26,0.17,
3.772,-1.73,0.10,0.64,0.92,0.15,0.19,
3.773,-1.73,0.10,0.64,0.88,0.11,0.20,
3.773,-1.73,0.10,0.64,0.81,0.02,0.22,
3.774,-2.71,0.75,-0.83,0.81,0.02,0.22,
3.774,-2.71,0.75,-0.83,0.72,-0.06,0.23,
3.775,-2.71,0.75,-0.83,0.62,-0.16,0.26,
3.775,-2.71,0.75,-0.83,0.46,-0.31,0.29,
3.775,-2.71,0.75,-0.83,0.39,-0.36,0.30,
3.776,-2.71,0.75,-0.83,0.26,-0.47,0.33,
3.776,-3.10,1.32,-1.72,0.26,-0.47,0.33,
3.777,-3.10,1.32,-1.72,0.12,-0.59,0.35,
3.778,-3.10,1.32,-1.72,-0.03,-0.71,0.37,
3.788,-3.10,1.32,-1.72,-0.25,-0.90,0.41,
3.789,-3.10,1.32,-1.72,-0.33,-0.96,0.41,
3.789,-3.10,1.32,-1.72,-0.47,-1.08,0.42,
3.79,-2.51,1.73,-0.84,-0.47,-1.08,0.42,
3.79,-2.51,1.73,-0.84,-0.61,-1.20,0.43,
3.79,-2.51,1.73,-0.84,-0.74,-1.29,0.43,
3.791,-2.51,1.73,-0.84,-0.90,-1.40,0.41,
3.792,-2.51,1.73,-0.84,-0.96,-1.43,0.40,
3.795,-2.51,1.73,-0.84,-1.05,-1.46,0.39,
3.797,-0.73,1.36,2.31,-1.05,-1.46,0.39,
3.797,-0.73,1.36,2.31,-1.13,-1.47,0.37,
3.801,-0.73,1.36,2.31,-1.19,-1.46,0.35,
3.801,-0.73,1.36,2.31,-1.27,-1.42,0.31,
3.802,-0.73,1.36,2.31,-1.30,-1.39,0.30,
3.806,-0.73,1.36,2.31,-1.33,-1.33,0.28,
3.806,0.55,0.37,5.81,-1.33,-1.33,0.28,
3.807,0.55,0.37,5.81,-1.35,-1.26,0.26,
3.81,0.55,0.37,5.81,-1.37,-1.18,0.24,
3.817,0.55,0.37,5.81,-1.36,-1.03,0.21,
3.818,0.55,0.37,5.81,-1.35,-0.98,0.20,
3.818,0.55,0.37,5.81,-1.33,-0.87,0.19,
3.818,1.23,-0.32,8.91,-1.33,-0.87,0.19,
3.818,1.23,-0.32,8.91,-1.29,-0.76,0.17,
3.819,1.23,-0.32,8.91,-1.25,-0.63,0.15,
3.826,1.23,-0.32,8.91,-1.16,-0.44,0.11,
3.837,1.23,-0.32,8.91,-1.13,-0.38,0.10,
3.838,1.23,-0.32,8.91,-1.06,-0.25,0.07,
3.838,1.83,-0.71,11.07,-1.06,-0.25,0.07,
3.838,1.83,-0.71,11.07,-0.98,-0.12,0.04,
3.839,1.83,-0.71,11.07,-0.89,-0.00,0.01,
3.839,1.83,-0.71,11.07,-0.76,0.16,-0.04,
3.839,1.83,-0.71,11.07,-0.72,0.21,-0.05,
3.839,1.83,-0.71,11.07,-0.64,0.30,-0.09,
3.84,1.94,-0.68,11.21,-0.64,0.30,-0.09,
3.84,1.94,-0.68,11.21,-0.56,0.37,-0.12,
3.84,1.94,-0.68,11.21,-0.48,0.43,-0.15,
3.841,1.94,-0.68,11.21,-0.38,0.50,-0.19,
3.842,1.94,-0.68,11.21,-0.35,0.51,-0.21,
3.848,1.94,-0.68,11.21,-0.30,0.53,-0.24,
3.848,1.45,-0.51,9.10,-0.30,0.53,-0.24,
3.849,1.45,-0.51,9.10,-0.26,0.54,-0.26,
3.849,1.45,-0.51,9.10,-0.22,0.55,-0.29,
3.851,1.45,-0.51,9.10,-0.19,0.54,-0.32,
3.852,1.45,-0.51,9.10,-0.18,0.53,-0.34,
3.854,1.45,-0.51,9.10,-0.17,0.51,-0.36,
3.856,0.84,-0.30,6.00,-0.17,0.51,-0.36,
3.857,0.84,-0.30,6.00,-0.17,0.48,-0.38,
3.858,0.84,-0.30,6.00,-0.18,0.45,-0.40,
3.863,0.84,-0.30,6.00,-0.20,0.38,-0.44,
3.863,0.84,-0.30,6.00,-0.21,0.36,-0.45,
3.865,0.84,-0.30,6.00,-0.23,0.30,-0.47,
3.866,0.29,-0.04,3.17,-0.23,0.30,-0.47,
3.867,0.29,-0.04,3.17,-0.27,0.25,-0.49,
3.868,0.29,-0.04,3.17,-0.30,0.19,-0.51,
3.872,0.29,-0.04,3.17,-0.36,0.10,-0.53,
3.873,0.29,-0.04,3.17,-0.38,0.07,-0.54,
3.874,0.29,-0.04,3.17,-0.43,0.01,-0.55,
3.877,-0.19,0.17,1.11,-0.43,0.01,-0.55,
3.878,-0.19,0.17,1.11,-0.48,-0.05,-0.56,
3.878,-0.19,0.17,1.11,-0.52,-0.10,-0.57,
3.882,-0.19,0.17,1.11,-0.60,-0.17,-0.58,
3.883,-0.19,0.17,1.11,-0.62,-0.19,-0.59,
3.884,-0.19,0.17,1.11,-0.67,-0.22,-0.59,
3.886,-0.50,0.06,0.06,-0.67,-0.22,-0.59,
3.887,-0.50,0.06,0.06,-0.71,-0.24,-0.59,
3.889,-0.50,0.06,0.06,-0.75,-0.26,-0.59,
3.895,-0.50,0.06,0.06,-0.80,-0.26,-0.60,
3.895,-0.50,0.06,0.06,-0.82,-0.26,-0.60,
3.926,-0.50,0.06,0.06,-0.84,-0.25,-0.59,
3.926,-0.54,-0.28,-0.03,-0.84,-0.25,-0.59,
3.927,-0.54,-0.28,-0.03,-0.86,-0.23,-0.59,
3.927,-0.54,-0.28,-0.03,-0.88,-0.21,-0.59,
3.927,-0.54,-0.28,-0.03,-0.90,-0.16,-0.58,
3.927,-0.54,-0.28,-0.03,-0.90,-0.14,-0.58,
3.928,-0.54,-0.28,-0.03,-0.90,-0.10,-0.58,
3.928,-0.51,-0.64,0.38,-0.90,-0.10,-0.58,
3.928,-0.51,-0.64,0.38,-0.90,-0.05,-0.57,
3.929,-0.51,-0.64,0.38,-0.89,-0.00,-0.57,
3.929,-0.51,-0.64,0.38,-0.87,0.07,-0.56,
3.929,-0.51,-0.64,0.38,-0.86,0.10,-0.56,
3.929,-0.51,-0.64,0.38,-0.84,0.15,-0.55,
3.93,-0.51,-0.83,0.60,-0.84,0.15,-0.55,
3.93,-0.51,-0.83,0.60,-0.81,0.21,-0.55,
3.93,-0.51,-0.83,0.60,-0.79,0.26,-0.54,
3.93,-0.51,-0.83,0.60,-0.73,0.36,-0.52,
3.931,-0.51,-0.83,0.60,-0.73,0.36,-0.52,
3.931,-0.51,-0.83,0.60,-0.70,0.40,-0.51,
3.931,-0.68,-0.97,0.36,-0.70,0.40,-0.51,
3.931,-0.68,-0.97,0.36,-0.67,0.44,-0.50,
3.932,-0.68,-0.97,0.36,-0.64,0.48,-0.49,
3.948,-0.68,-0.97,0.36,-0.59,0.54,-0.47,
3.949,-0.68,-0.97,0.36,-0.57,0.56,-0.46,
3.949,-0.68,-0.97,0.36,-0.54,0.59,-0.45,
3.949,-0.81,-0.99,-0.38,-0.54,0.59,-0.45,
3.949,-0.81,-0.99,-0.38,-0.50,0.61,-0.44,
3.95,-0.81,-0.99,-0.38,-0.47,0.64,-0.43,
3.95,-0.81,-0.99,-0.38,-0.42,0.66,-0.41,
3.95,-0.81,-0.99,-0.38,-0.40,0.67,-0.40,
3.95,-0.81,-0.99,-0.38,-0.37,0.68,-0.39,
3.951,-0.82,-0.98,-1.25,-0.37,0.68,-0.39,
3.951,-0.82,-0.98,-1.25,-0.33,0.68,-0.39,
3.951,-0.82,-0.98,-1.25,-0.29,0.68,-0.38,
3.951,-0.82,-0.98,-1.25,-0.24,0.68,-0.37,
3.957,-0.82,-0.98,-1.25,-0.22,0.67,-0.37,
3.958,-0.82,-0.98,-1.25,-0.18,0.66,-0.36,
3.958,-0.71,-0.86,-2.06,-0.18,0.66,-0.36,
3.958,-0.71,-0.86,-2.06,-0.14,0.64,-0.36,
3.973,-0.71,-0.86,-2.06,-0.11,0.62,-0.36,
3.973,-0.71,-0.86,-2.06,-0.06,0.58,-0.36,
3.974,-0.71,-0.86,-2.06,-0.04,0.57,-0.35,
3.974,-0.71,-0.86,-2.06,-0.01,0.53,-0.35,
3.974,-0.69,-0.75,-2.84,-0.01,0.53,-0.35,
3.974,-0.69,-0.75,-2.84,0.02,0.50,-0.35,
3.975,-0.69,-0.75,-2.84,0.06,0.46,-0.34,
3.975,-0.69,-0.75,-2.84,0.10,0.40,-0.33,
3.975,-0.69,-0.75,-2.84,0.11,0.38,-0.33,
3.975,-0.69,-0.75,-2.84,0.14,0.34,-0.32,
3.977,-0.93,-0.68,-3.49,0.14,0.34,-0.32,
3.977,-0.93,-0.68,-3.49,0.16,0.30,-0.31,
3.987,-0.93,-0.68,-3.49,0.18,0.26,-0.30,
3.988,-0.93,-0.68,-3.49,0.22,0.21,-0.28,
3.988,-0.93,-0.68,-3.49,0.23,0.19,-0.27,
3.988,-0.93,-0.68,-3.49,0.25,0.15,-0.25,
3.989,-1.38,-0.67,-3.96,0.25,0.15,-0.25,
3.989,-1.38,-0.67,-3.96,0.27,0.12,-0.24,
3.989,-1.38,-0.67,-3.96,0.28,0.08,-0.21,
3.994,-1.38,-0.67,-3.96,0.31,0.03,-0.18,
3.994,-1.38,-0.67,-3.96,0.31,0.02,-0.17,
4.003,-1.38,-0.67,-3.96,0.33,-0.01,-0.14,
4.004,-1.79,-0.79,-4.16,0.33,-0.01,-0.14,
4.004,-1.79,-0.79,-4.16,0.35,-0.04,-0.09,
4.005,-1.79,-0.79,-4.16,0.36,-0.05,-0.07,
4.005,-1.79,-0.79,-4.16,0.38,-0.08,-0.02,
4.012,-1.79,-0.79,-4.16,0.39,-0.09,-0.00,
4.012,-1.79,-0.79,-4.16,0.41,-0.10,0.03,
4.013,-2.23,-0.97,-4.02,0.41,-0.10,0.03,
4.013,-2.23,-0.97,-4.02,0.43,-0.11,0.07,
4.013,-2.23,-0.97,-4.02,0.46,-0.12,0.11,
4.013,-2.23,-0.97,-4.02,0.49,-0.14,0.17,
4.014,-2.23,-0.97,-4.02,0.51,-0.15,0.18,
4.017,-2.23,-0.97,-4.02,0.54,-0.16,0.22,
4.017,-2.00,-1.14,-3.55,0.54,-0.16,0.22,
4.017,-2.00,-1.14,-3.55,0.57,-0.18,0.25,
4.018,-2.00,-1.14,-3.55,0.60,-0.21,0.28,
4.021,-2.00,-1.14,-3.55,0.67,-0.26,0.32,
4.022,-2.00,-1.14,-3.55,0.69,-0.28,0.33,
4.024,-2.00,-1.14,-3.55,0.74,-0.34,0.35,
4.027,-1.19,-1.35,-2.86,0.74,-0.34,0.35,
4.027,-1.19,-1.35,-2.86,0.79,-0.40,0.36,
4.028,-1.19,-1.35,-2.86,0.86,-0.48,0.37,
4.036,-1.19,-1.35,-2.86,0.97,-0.63,0.38,
4.036,-1.19,-1.35,-2.86,1.01,-0.69,0.38,
4.036,-1.19,-1.35,-2.86,1.10,-0.81,0.38,
4.042,-0.10,-1.63,-1.67,1.10,-0.81,0.38,
4.042,-0.10,-1.63,-1.67,1.20,-0.94,0.38,
4.042,-0.10,-1.63,-1.67,1.31,-1.09,0.37,
4.042,-0.10,-1.63,-1.67,1.49,-1.32,0.36,
4.042,-0.10,-1.63,-1.67,1.56,-1.40,0.36,
4.048,-0.10,-1.63,-1.67,1.70,-1.56,0.35,
4.049,0.66,-1.46,0.12,1.70,-1.56,0.35,
4.049,0.66,-1.46,0.12,1.84,-1.73,0.33,
4.049,0.66,-1.46,0.12,1.99,-1.89,0.32,
4.052,0.66,-1.46,0.12,2.21,-2.14,0.31,
4.053,0.66,-1.46,0.12,2.28,-2.23,0.30,
4.056,0.66,-1.46,0.12,2.42,-2.39,0.29,
4.056,0.66,-1.17,0.82,2.42,-2.39,0.29,
4.057,0.66,-1.17,0.82,2.54,-2.55,0.28,
4.058,0.66,-1.17,0.82,2.66,-2.71,0.27,
4.077,0.66,-1.17,0.82,2.81,-2.92,0.26,
4.077,0.66,-1.17,0.82,2.85,-2.99,0.26,
4.077,0.66,-1.17,0.82,2.92,-3.11,0.25,
4.077,0.18,-1.24,-0.25,2.92,-3.11,0.25,
4.078,0.18,-1.24,-0.25,2.98,-3.21,0.25,
4.078,0.18,-1.24,-0.25,3.02,-3.29,0.25,
4.078,0.18,-1.24,-0.25,3.06,-3.38,0.26,
4.078,0.18,-1.24,-0.25,3.06,-3.39,0.27,
4.079,0.18,-1.24,-0.25,3.06,-3.41,0.27,
4.079,-0.52,-1.08,-2.17,3.06,-3.41,0.27,
4.079,-0.52,-1.08,-2.17,3.04,-3.41,0.29,
4.087,-0.52,-1.08,-2.17,3.01,-3.38,0.30,
4.088,-0.52,-1.08,-2.17,2.94,-3.28,0.31,
4.088,-0.52,-1.08,-2.17,2.91,-3.24,0.32,
4.089,-0.52,-1.08,-2.17,2.84,-3.14,0.33,
4.089,-0.60,-0.96,-3.94,2.84,-3.14,0.33,
4.089,-0.60,-0.96,-3.94,2.76,-3.03,0.34,
4.089,-0.60,-0.96,-3.94,2.68,-2.90,0.36,
4.091,-0.60,-0.96,-3.94,2.53,-2.68,0.37,
4.093,-0.60,-0.96,-3.94,2.48,-2.60,0.38,
4.094,-0.60,-0.96,-3.94,2.37,-2.43,0.38,
4.097,-0.14,-0.94,-4.89,2.37,-2.43,0.38,
4.097,-0.14,-0.94,-4.89,2.26,-2.26,0.38,
4.098,-0.14,-0.94,-4.89,2.15,-2.08,0.39,
4.102,-0.14,-0.94,-4.89,1.98,-1.81,0.38,
4.102,-0.14,-0.94,-4.89,1.93,-1.72,0.38,
4.11,-0.14,-0.94,-4.89,1.82,-1.53,0.37,
4.111,0.77,-0.78,-4.80,1.82,-1.53,0.37,
4.111,0.77,-0.78,-4.80,1.72,-1.36,0.36,
4.115,0.77,-0.78,-4.80,1.63,-1.18,0.35,
4.115,0.77,-0.78,-4.80,1.50,-0.93,0.32,
4.116,0.77,-0.78,-4.80,1.46,-0.85,0.30,
4.116,0.77,-0.78,-4.80,1.38,-0.71,0.28,
4.118,1.55,-0.60,-4.01,1.38,-0.71,0.28,
4.118,1.55,-0.60,-4.01,1.31,-0.57,0.25,
4.119,1.55,-0.60,-4.01,1.24,-0.44,0.22,
4.121,1.55,-0.60,-4.01,1.14,-0.28,0.17,
4.122,1.55,-0.60,-4.01,1.12,-0.23,0.15,
4.124,1.55,-0.60,-4.01,1.06,-0.15,0.11,
4.127,1.88,-0.55,-3.42,1.06,-0.15,0.11,
4.127,1.88,-0.55,-3.42,1.00,-0.08,0.07,
4.129,1.88,-0.55,-3.42,0.95,-0.03,0.03,
4.131,1.88,-0.55,-3.42,0.89,0.01,-0.02,
4.132,1.88,-0.55,-3.42,0.86,0.02,-0.04,
4.135,1.88,-0.55,-3.42,0.83,0.03,-0.08,
4.138,1.59,-0.51,-2.93,0.83,0.03,-0.08,
4.138,1.59,-0.51,-2.93,0.79,0.02,-0.12,
4.139,1.59,-0.51,-2.93,0.76,0.01,-0.16,
4.142,1.59,-0.51,-2.93,0.73,-0.04,-0.23,
4.144,1.59,-0.51,-2.93,0.72,-0.06,-0.25,
4.144,1.59,-0.51,-2.93,0.70,-0.11,-0.29,
4.147,1.20,-0.37,-2.34,0.70,-0.11,-0.29,
4.147,1.20,-0.37,-2.34,0.69,-0.16,-0.33,
4.148,1.20,-0.37,-2.34,0.68,-0.23,-0.37,
4.151,1.20,-0.37,-2.34,0.66,-0.34,-0.42,
4.152,1.20,-0.37,-2.34,0.65,-0.38,-0.44,
4.155,1.20,-0.37,-2.34,0.64,-0.46,-0.48,
4.156,0.59,-0.29,-1.83,0.64,-0.46,-0.48,
4.157,0.59,-0.29,-1.83,0.63,-0.55,-0.51,
4.158,0.59,-0.29,-1.83,0.61,-0.64,-0.54,
4.161,0.59,-0.29,-1.83,0.59,-0.76,-0.59,
4.163,0.59,-0.29,-1.83,0.58,-0.79,-0.60,
4.167,0.59,-0.29,-1.83,0.56,-0.86,-0.63,
4.167,0.04,-0.29,-1.24,0.56,-0.86,-0.63,
4.167,0.04,-0.29,-1.24,0.55,-0.92,-0.66,
4.168,0.04,-0.29,-1.24,0.53,-0.98,-0.68,
4.171,0.04,-0.29,-1.24,0.51,-1.04,-0.71,
4.172,0.04,-0.29,-1.24,0.50,-1.06,-0.72,
4.174,0.04,-0.29,-1.24,0.48,-1.10,-0.73,
4.18,-0.61,-0.34,-0.39,0.48,-1.10,-0.73,
4.18,-0.61,-0.34,-0.39,0.46,-1.13,-0.74,
4.18,-0.61,-0.34,-0.39,0.43,-1.16,-0.75,
4.182,-0.61,-0.34,-0.39,0.39,-1.18,-0.76,
4.182,-0.61,-0.34,-0.39,0.37,-1.18,-0.76,
4.184,-0.61,-0.34,-0.39,0.33,-1.19,-0.76,
4.186,-1.17,-0.25,0.26,0.33,-1.19,-0.76,
4.187,-1.17,-0.25,0.26,0.29,-1.19,-0.76,
4.189,-1.17,-0.25,0.26,0.24,-1.18,-0.76,
4.208,-1.17,-0.25,0.26,0.16,-1.16,-0.76,
4.209,-1.17,-0.25,0.26,0.13,-1.15,-0.76,
4.209,-1.17,-0.25,0.26,0.07,-1.13,-0.76,
4.209,-1.18,-0.11,0.59,0.07,-1.13,-0.76,
4.21,-1.18,-0.11,0.59,0.00,-1.10,-0.76,
4.21,-1.18,-0.11,0.59,-0.06,-1.06,-0.77,
4.21,-1.18,-0.11,0.59,-0.17,-0.99,-0.77,
4.21,-1.18,-0.11,0.59,-0.20,-0.96,-0.77,
4.21,-1.18,-0.11,0.59,-0.28,-0.89,-0.77,
4.21,-0.96,-0.06,1.13,-0.28,-0.89,-0.77,
4.211,-0.96,-0.06,1.13,-0.35,-0.82,-0.77,
4.211,-0.96,-0.06,1.13,-0.42,-0.74,-0.78,
4.214,-0.96,-0.06,1.13,-0.52,-0.62,-0.78,
4.215,-0.96,-0.06,1.13,-0.56,-0.58,-0.79,
4.216,-0.96,-0.06,1.13,-0.62,-0.50,-0.79,
4.216,-0.64,0.08,2.02,-0.62,-0.50,-0.79,
4.217,-0.64,0.08,2.02,-0.69,-0.41,-0.80,
4.219,-0.64,0.08,2.02,-0.75,-0.33,-0.81,
4.221,-0.64,0.08,2.02,-0.83,-0.21,-0.84,
4.222,-0.64,0.08,2.02,-0.86,-0.17,-0.85,
4.224,-0.64,0.08,2.02,-0.90,-0.09,-0.87,
4.227,-0.03,0.31,3.16,-0.90,-0.09,-0.87,
4.246,-0.03,0.31,3.16,-0.95,-0.01,-0.89,
4.247,-0.03,0.31,3.16,-0.99,0.06,-0.92,
4.247,-0.03,0.31,3.16,-1.04,0.17,-0.96,
4.247,-0.03,0.31,3.16,-1.06,0.20,-0.98,
4.248,-0.03,0.31,3.16,-1.09,0.27,-1.01,
4.248,0.47,0.51,4.32,-1.09,0.27,-1.01,
4.248,0.47,0.51,4.32,-1.11,0.34,-1.04,
4.248,0.47,0.51,4.32,-1.13,0.41,-1.07,
4.249,0.47,0.51,4.32,-1.15,0.51,-1.12,
4.249,0.47,0.51,4.32,-1.16,0.54,-1.13,
4.249,0.47,0.51,4.32,-1.16,0.60,-1.15,
4.25,0.41,0.58,5.28,-1.16,0.60,-1.15,
4.25,0.41,0.58,5.28,-1.17,0.66,-1.18,
4.252,0.41,0.58,5.28,-1.18,0.73,-1.20,
4.254,0.41,0.58,5.28,-1.19,0.82,-1.23,
4.258,0.41,0.58,5.28,-1.19,0.85,-1.24,
4.263,0.41,0.58,5.28,-1.20,0.91,-1.26,
4.264,-0.05,0.60,5.57,-1.20,0.91,-1.26,
4.264,-0.05,0.60,5.57,-1.21,0.96,-1.27,
4.264,-0.05,0.60,5.57,-1.21,1.02,-1.28,
4.264,-0.05,0.60,5.57,-1.22,1.09,-1.30,
4.266,-0.05,0.60,5.57,-1.24,1.13,-1.30,
4.267,-0.05,0.60,5.57,-1.24,1.15,-1.31,
4.267,-0.81,0.50,5.56,-1.24,1.15,-1.31,
4.267,-0.81,0.50,5.56,-1.25,1.19,-1.31,
4.269,-0.81,0.50,5.56,-1.25,1.23,-1.31,
4.271,-0.81,0.50,5.56,-1.26,1.28,-1.30,
4.272,-0.81,0.50,5.56,-1.26,1.30,-1.29,
4.276,-0.81,0.50,5.56,-1.26,1.32,-1.29,
4.277,-1.69,0.53,5.57,-1.26,1.32,-1.29,
4.278,-1.69,0.53,5.57,-1.27,1.34,-1.28,
4.279,-1.69,0.53,5.57,-1.27,1.35,-1.27,
4.283,-1.69,0.53,5.57,-1.28,1.37,-1.24,
4.283,-1.69,0.53,5.57,-1.28,1.37,-1.23,
4.284,-1.69,0.53,5.57,-1.29,1.37,-1.21,
4.286,-2.48,0.73,5.64,-1.29,1.37,-1.21,
4.287,-2.48,0.73,5.64,-1.29,1.37,-1.19,
4.288,-2.48,0.73,5.64,-1.30,1.36,-1.17,
4.292,-2.48,0.73,5.64,-1.32,1.34,-1.13,
4.292,-2.48,0.73,5.64,-1.33,1.33,-1.11,
4.294,-2.48,0.73,5.64,-1.34,1.31,-1.08,
4.296,-3.02,1.04,5.60,-1.34,1.31,-1.08,
4.296,-3.02,1.04,5.60,-1.36,1.28,-1.05,
4.298,-3.02,1.04,5.60,-1.38,1.24,-1.03,
4.301,-3.02,1.04,5.60,-1.42,1.19,-0.98,
4.302,-3.02,1.04,5.60,-1.43,1.18,-0.97,
4.304,-3.02,1.04,5.60,-1.45,1.15,-0.95,
4.306,-2.97,1.06,5.67,-1.45,1.15,-0.95,
4.306,-2.97,1.06,5.67,-1.47,1.12,-0.92,
4.308,-2.97,1.06,5.67,-1.49,1.09,-0.90,
4.312,-2.97,1.06,5.67,-1.51,1.05,-0.88,
4.312,-2.97,1.06,5.67,-1.51,1.04,-0.87,
4.314,-2.97,1.06,5.67,-1.51,1.02,-0.85,
4.316,-2.31,0.78,6.34,-1.51,1.02,-0.85,
4.316,-2.31,0.78,6.34,-1.51,1.00,-0.84,
4.318,-2.31,0.78,6.34,-1.50,0.99,-0.82,
4.321,-2.31,0.78,6.34,-1.48,0.97,-0.80,
4.322,-2.31,0.78,6.34,-1.47,0.96,-0.80,
4.325,-2.31,0.78,6.34,-1.44,0.96,-0.79,
4.326,-1.62,0.39,7.29,-1.44,0.96,-0.79,
4.326,-1.62,0.39,7.29,-1.41,0.95,-0.77,
4.332,-1.62,0.39,7.29,-1.38,0.95,-0.76,
4.332,-1.62,0.39,7.29,-1.32,0.95,-0.74,
4.333,-1.62,0.39,7.29,-1.30,0.95,-0.73,
4.334,-1.62,0.39,7.29,-1.26,0.95,-0.71,
4.336,-1.18,0.08,7.76,-1.26,0.95,-0.71,
4.337,-1.18,0.08,7.76,-1.22,0.96,-0.69,
4.338,-1.18,0.08,7.76,-1.18,0.98,-0.67,
4.344,-1.18,0.08,7.76,-1.11,1.00,-0.63,
4.344,-1.18,0.08,7.76,-1.06,1.02,-0.60,
4.344,-1.18,0.08,7.76,-1.04,1.03,-0.58,
4.35,-1.25,-0.29,7.52,-1.04,1.03,-0.58,
4.35,-1.25,-0.29,7.52,-0.97,1.07,-0.53,
4.35,-1.25,-0.29,7.52,-0.93,1.09,-0.49,
4.351,-1.25,-0.29,7.52,-0.88,1.12,-0.45,
4.352,-1.25,-0.29,7.52,-0.86,1.13,-0.43,
4.354,-1.25,-0.29,7.52,-0.81,1.15,-0.39,
4.356,-1.36,-0.46,6.61,-0.81,1.15,-0.39,
4.356,-1.36,-0.46,6.61,-0.76,1.17,-0.35,
4.359,-1.36,-0.46,6.61,-0.72,1.18,-0.30,
4.362,-1.36,-0.46,6.61,-0.65,1.20,-0.24,
4.362,-1.36,-0.46,6.61,-0.63,1.21,-0.21,
4.364,-1.36,-0.46,6.61,-0.58,1.21,-0.17,
4.366,-1.28,-0.54,5.40,-0.58,1.21,-0.17,
4.366,-1.28,-0.54,5.40,-0.54,1.22,-0.13,
4.368,-1.28,-0.54,5.40,-0.49,1.21,-0.09,
4.371,-1.28,-0.54,5.40,-0.41,1.20,-0.04,
4.372,-1.28,-0.54,5.40,-0.39,1.19,-0.02,
4.374,-1.28,-0.54,5.40,-0.34,1.17,0.01,
4.376,-0.76,-0.35,4.00,-0.34,1.17,0.01,
4.376,-0.76,-0.35,4.00,-0.29,1.16,0.04,
4.378,-0.76,-0.35,4.00,-0.24,1.13,0.07,
4.381,-0.76,-0.35,4.00,-0.17,1.09,0.11,
4.382,-0.76,-0.35,4.00,-0.14,1.07,0.12,
4.384,-0.76,-0.35,4.00,-0.10,1.04,0.15,
4.386,-0.24,-0.19,2.44,-0.10,1.04,0.15,
4.386,-0.24,-0.19,2.44,-0.06,1.01,0.17,
4.388,-0.24,-0.19,2.44,-0.01,0.97,0.19,
4.391,-0.24,-0.19,2.44,0.05,0.92,0.22,
4.393,-0.24,-0.19,2.44,0.07,0.90,0.23,
4.403,-0.24,-0.19,2.44,0.10,0.86,0.24,
4.403,0.19,-0.05,0.67,0.10,0.86,0.24,
4.404,0.19,-0.05,0.67,0.13,0.82,0.26,
4.404,0.19,-0.05,0.67,0.16,0.78,0.27,
4.404,0.19,-0.05,0.67,0.20,0.71,0.29,
4.404,0.19,-0.05,0.67,0.21,0.69,0.29,
4.404,0.19,-0.05,0.67,0.24,0.65,0.30,
4.406,0.57,0.01,-1.08,0.24,0.65,0.30,
4.406,0.57,0.01,-1.08,0.25,0.61,0.31,
4.408,0.57,0.01,-1.08,0.27,0.57,0.32,
4.412,0.57,0.01,-1.08,0.28,0.51,0.34,
4.412,0.57,0.01,-1.08,0.29,0.49,0.34,
4.414,0.57,0.01,-1.08,0.29,0.46,0.35,
4.416,0.73,-0.08,-2.61,0.29,0.46,0.35,
4.416,0.73,-0.08,-2.61,0.29,0.42,0.36,
4.42,0.73,-0.08,-2.61,0.30,0.39,0.37,
4.421,0.73,-0.08,-2.61,0.29,0.35,0.39,
4.422,0.73,-0.08,-2.61,0.29,0.33,0.40,
4.424,0.73,-0.08,-2.61,0.28,0.32,0.40,
4.426,0.83,-0.13,-3.87,0.28,0.32,0.40,
4.426,0.83,-0.13,-3.87,0.27,0.30,0.42,
4.428,0.83,-0.13,-3.87,0.26,0.29,0.43,
4.431,0.83,-0.13,-3.87,0.24,0.27,0.44,
4.432,0.83,-0.13,-3.87,0.23,0.27,0.45,
4.434,0.83,-0.13,-3.87,0.22,0.26,0.46,
4.436,0.87,-0.31,-4.81,0.22,0.26,0.46,
4.436,0.87,-0.31,-4.81,0.19,0.25,0.47,
4.438,0.87,-0.31,-4.81,0.17,0.25,0.47,
4.441,0.87,-0.31,-4.81,0.14,0.24,0.49,
4.446,0.87,-0.31,-4.81,0.13,0.24,0.49,
4.446,0.87,-0.31,-4.81,0.10,0.23,0.50,
4.446,1.00,-0.45,-5.47,0.10,0.23,0.50,
4.446,1.00,-0.45,-5.47,0.08,0.23,0.50,
4.448,1.00,-0.45,-5.47,0.05,0.22,0.51,
4.451,1.00,-0.45,-5.47,0.01,0.22,0.52,
4.452,1.00,-0.45,-5.47,0.00,0.22,0.52,
4.454,1.00,-0.45,-5.47,-0.02,0.22,0.52,
4.456,1.10,-0.68,-5.64,-0.02,0.22,0.52,
4.456,1.10,-0.68,-5.64,-0.03,0.22,0.52,
4.459,1.10,-0.68,-5.64,-0.05,0.22,0.52,
4.461,1.10,-0.68,-5.64,-0.08,0.22,0.52,
4.464,1.10,-0.68,-5.64,-0.09,0.22,0.52,
4.465,1.10,-0.68,-5.64,-0.10,0.22,0.52,
4.467,1.34,-0.88,-5.53,-0.10,0.22,0.52,
4.469,1.34,-0.88,-5.53,-0.11,0.22,0.52,
4.469,1.34,-0.88,-5.53,-0.12,0.22,0.52,
4.471,1.34,-0.88,-5.53,-0.13,0.22,0.52,
4.472,1.34,-0.88,-5.53,-0.13,0.22,0.52,
4.474,1.34,-0.88,-5.53,-0.13,0.22,0.52,
4.476,1.35,-1.09,-5.21,-0.13,0.22,0.52,
4.476,1.35,-1.09,-5.21,-0.13,0.22,0.52,
4.478,1.35,-1.09,-5.21,-0.13,0.21,0.51,
4.481,1.35,-1.09,-5.21,-0.13,0.21,0.51,
4.482,1.35,-1.09,-5.21,-0.13,0.21,0.51,
4.484,1.35,-1.09,-5.21,-0.12,0.21,0.51,
4.486,1.43,-1.23,-4.94,-0.12,0.21,0.51,
4.486,1.43,-1.23,-4.94,-0.12,0.21,0.51,
4.488,1.43,-1.23,-4.94,-0.11,0.21,0.51,
4.491,1.43,-1.23,-4.94,-0.10,0.21,0.50,
4.493,1.43,-1.23,-4.94,-0.09,0.21,0.50,
4.495,1.43,-1.23,-4.94,-0.09,0.20,0.50,
4.496,1.25,-1.41,-4.78,-0.09,0.20,0.50,
4.496,1.25,-1.41,-4.78,-0.08,0.20,0.50,
4.499,1.25,-1.41,-4.78,-0.07,0.20,0.50,
4.501,1.25,-1.41,-4.78,-0.06,0.20,0.50,
4.502,1.25,-1.41,-4.78,-0.05,0.19,0.50,
4.504,1.25,-1.41,-4.78,-0.05,0.19,0.50,
4.506,1.20,-1.51,-4.71,-0.05,0.19,0.50,
4.506,1.20,-1.51,-4.71,-0.04,0.19,0.50,
4.51,1.20,-1.51,-4.71,-0.04,0.18,0.50,
4.511,1.20,-1.51,-4.71,-0.02,0.18,0.50,
4.514,1.20,-1.51,-4.71,-0.02,0.17,0.50,
4.514,1.20,-1.51,-4.71,-0.01,0.17,0.50,
4.516,0.99,-1.53,-4.70,-0.01,0.17,0.50,
4.516,0.99,-1.53,-4.70,-0.01,0.16,0.50,
4.518,0.99,-1.53,-4.70,-0.01,0.15,0.50,
4.521,0.99,-1.53,-4.70,-0.00,0.14,0.50,
4.522,0.99,-1.53,-4.70,-0.00,0.13,0.50,
4.524,0.99,-1.53,-4.70,-0.00,0.13,0.51,
4.526,0.88,-1.56,-4.78,-0.00,0.13,0.51,
4.527,0.88,-1.56,-4.78,-0.00,0.12,0.51,
4.528,0.88,-1.56,-4.78,-0.00,0.11,0.51,
4.531,0.88,-1.56,-4.78,-0.01,0.10,0.52,
4.532,0.88,-1.56,-4.78,-0.01,0.10,0.52,
4.534,0.88,-1.56,-4.78,-0.01,0.09,0.52,
4.536,0.75,-1.56,-4.85,-0.01,0.09,0.52,
4.536,0.75,-1.56,-4.85,-0.02,0.08,0.53,
4.538,0.75,-1.56,-4.85,-0.03,0.07,0.53,
4.541,0.75,-1.56,-4.85,-0.05,0.05,0.53,
4.542,0.75,-1.56,-4.85,-0.07,0.03,0.53,
4.544,0.75,-1.56,-4.85,-0.07,0.02,0.53,
4.546,0.90,-1.49,-4.85,-0.07,0.02,0.53,
4.547,0.90,-1.49,-4.85,-0.09,0.00,0.53,
4.548,0.90,-1.49,-4.85,-0.11,-0.01,0.52,
4.551,0.90,-1.49,-4.85,-0.13,-0.05,0.52,
4.552,0.90,-1.49,-4.85,-0.15,-0.07,0.52,
4.554,0.90,-1.49,-4.85,-0.16,-0.09,0.52,
4.557,0.99,-1.46,-4.59,-0.16,-0.09,0.52,
4.557,0.99,-1.46,-4.59,-0.18,-0.11,0.51,
4.561,0.99,-1.46,-4.59,-0.19,-0.14,0.51,
4.581,0.99,-1.46,-4.59,-0.22,-0.18,0.51,
4.581,0.99,-1.46,-4.59,-0.23,-0.21,0.50,
4.582,0.99,-1.46,-4.59,-0.24,-0.22,0.50,
4.582,1.08,-1.40,-3.98,-0.24,-0.22,0.50,
4.582,1.08,-1.40,-3.98,-0.25,-0.25,0.50,
4.583,1.08,-1.40,-3.98,-0.26,-0.27,0.50,
4.583,1.08,-1.40,-3.98,-0.27,-0.30,0.49,
4.583,1.08,-1.40,-3.98,-0.28,-0.32,0.49,
4.584,1.08,-1.40,-3.98,-0.28,-0.32,0.49,
4.584,1.16,-1.29,-3.17,-0.28,-0.32,0.49,
4.584,1.16,-1.29,-3.17,-0.28,-0.33,0.49,
4.585,1.16,-1.29,-3.17,-0.29,-0.34,0.48,
4.585,1.16,-1.29,-3.17,-0.29,-0.34,0.48,
4.586,1.16,-1.29,-3.17,-0.29,-0.34,0.48,
4.586,1.16,-1.29,-3.17,-0.29,-0.33,0.48,
4.586,1.35,-1.30,-2.34,-0.29,-0.33,0.48,
4.587,1.35,-1.30,-2.34,-0.29,-0.32,0.47,
4.59,1.35,-1.30,-2.34,-0.28,-0.30,0.47,
4.591,1.35,-1.30,-2.34,-0.27,-0.27,0.46,
4.592,1.35,-1.30,-2.34,-0.27,-0.24,0.46,
4.594,1.35,-1.30,-2.34,-0.26,-0.23,0.46,
4.596,1.38,-1.33,-1.53,-0.26,-0.23,0.46,
4.596,1.38,-1.33,-1.53,-0.25,-0.19,0.46,
4.598,1.38,-1.33,-1.53,-0.24,-0.16,0.46,
4.601,1.38,-1.33,-1.53,-0.21,-0.10,0.46,
4.602,1.38,-1.33,-1.53,-0.19,-0.06,0.45,
4.604,1.38,-1.33,-1.53,-0.18,-0.04,0.45,
4.607,1.43,-1.40,-0.84,-0.18,-0.04,0.45,
4.607,1.43,-1.40,-0.84,-0.16,0.00,0.45,
4.608,1.43,-1.40,-0.84,-0.14,0.05,0.45,
4.612,1.43,-1.40,-0.84,-0.10,0.11,0.45,
4.612,1.43,-1.40,-0.84,-0.07,0.15,0.45,
4.614,1.43,-1.40,-0.84,-0.05,0.17,0.45,
4.616,1.26,-1.26,-0.33,-0.05,0.17,0.45,
4.616,1.26,-1.26,-0.33,-0.02,0.21,0.45,
4.618,1.26,-1.26,-0.33,0.01,0.25,0.45,
4.621,1.26,-1.26,-0.33,0.06,0.30,0.44,
4.622,1.26,-1.26,-0.33,0.10,0.34,0.44,
4.63,1.26,-1.26,-0.33,0.11,0.35,0.44,
4.63,1.19,-1.24,-0.10,0.11,0.35,0.44,
4.63,1.19,-1.24,-0.10,0.15,0.39,0.44,
4.63,1.19,-1.24,-0.10,0.18,0.42,0.44,
4.631,1.19,-1.24,-0.10,0.23,0.46,0.43,
4.638,1.19,-1.24,-0.10,0.27,0.49,0.43,
4.638,1.19,-1.24,-0.10,0.28,0.50,0.43,
4.638,0.97,-1.14,-0.40,0.28,0.50,0.43,
4.638,0.97,-1.14,-0.40,0.31,0.52,0.43,
4.638,0.97,-1.14,-0.40,0.33,0.54,0.43,
4.648,0.97,-1.14,-0.40,0.37,0.56,0.42,
4.649,0.97,-1.14,-0.40,0.38,0.58,0.42,
4.649,0.97,-1.14,-0.40,0.39,0.58,0.41,
4.649,0.70,-0.99,-1.04,0.39,0.58,0.41,
4.649,0.70,-0.99,-1.04,0.41,0.59,0.41,
4.649,0.70,-0.99,-1.04,0.42,0.59,0.41,
4.651,0.70,-0.99,-1.04,0.44,0.59,0.41,
4.652,0.70,-0.99,-1.04,0.45,0.59,0.40,
4.654,0.70,-0.99,-1.04,0.45,0.59,0.40,
4.656,0.31,-0.76,-1.70,0.45,0.59,0.40,
4.656,0.31,-0.76,-1.70,0.46,0.58,0.40,
4.658,0.31,-0.76,-1.70,0.46,0.58,0.40,
4.662,0.31,-0.76,-1.70,0.46,0.57,0.40,
4.663,0.31,-0.76,-1.70,0.45,0.56,0.40,
4.664,0.31,-0.76,-1.70,0.44,0.56,0.40,
4.666,-0.08,-0.51,-2.38,0.44,0.56,0.40,
4.667,-0.08,-0.51,-2.38,0.44,0.54,0.40,
4.668,-0.08,-0.51,-2.38,0.42,0.52,0.40,
4.671,-0.08,-0.51,-2.38,0.40,0.48,0.40,
4.672,-0.08,-0.51,-2.38,0.38,0.45,0.40,
4.674,-0.08,-0.51,-2.38,0.37,0.44,0.40,
4.676,-0.40,-0.34,-2.85,0.37,0.44,0.40,
4.676,-0.40,-0.34,-2.85,0.35,0.40,0.40,
4.678,-0.40,-0.34,-2.85,0.32,0.37,0.40,
4.681,-0.40,-0.34,-2.85,0.29,0.32,0.40,
4.682,-0.40,-0.34,-2.85,0.27,0.28,0.40,
4.684,-0.40,-0.34,-2.85,0.25,0.27,0.41,
4.686,-0.65,-0.13,-3.00,0.25,0.27,0.41,
4.686,-0.65,-0.13,-3.00,0.23,0.23,0.41,
4.688,-0.65,-0.13,-3.00,0.20,0.20,0.41,
4.691,-0.65,-0.13,-3.00,0.16,0.15,0.42,
4.692,-0.65,-0.13,-3.00,0.12,0.12,0.42,
4.7,-0.65,-0.13,-3.00,0.11,0.10,0.42,
4.701,-0.65,-0.12,-2.80,0.11,0.10,0.42,
4.701,-0.65,-0.12,-2.80,0.05,0.04,0.43,
4.701,-0.65,-0.12,-2.80,0.04,0.03,0.43,
4.702,-0.65,-0.12,-2.80,0.01,-0.00,0.43,
4.702,-0.65,-0.12,-2.80,-0.01,-0.03,0.43,
4.704,-0.65,-0.12,-2.80,-0.02,-0.05,0.43,
4.707,-0.58,-0.14,-1.97,-0.02,-0.05,0.43,
4.708,-0.58,-0.14,-1.97,-0.03,-0.08,0.43,
4.708,-0.58,-0.14,-1.97,-0.05,-0.12,0.43,
4.711,-0.58,-0.14,-1.97,-0.06,-0.14,0.43,
4.712,-0.58,-0.14,-1.97,-0.06,-0.16,0.43,
4.715,-0.58,-0.14,-1.97,-0.06,-0.18,0.42,
4.716,-0.24,-0.16,-0.52,-0.06,-0.18,0.42,
4.717,-0.24,-0.16,-0.52,-0.05,-0.19,0.42,
4.718,-0.24,-0.16,-0.52,-0.04,-0.20,0.41,
4.721,-0.24,-0.16,-0.52,-0.02,-0.21,0.40,
4.723,-0.24,-0.16,-0.52,-0.00,-0.22,0.39,
4.725,-0.24,-0.16,-0.52,0.02,-0.22,0.38,
4.726,0.28,-0.13,1.32,0.02,-0.22,0.38,
4.744,0.28,-0.13,1.32,0.04,-0.23,0.37,
4.744,0.28,-0.13,1.32,0.07,-0.22,0.37,
4.745,0.28,-0.13,1.32,0.11,-0.22,0.35,
4.745,0.28,-0.13,1.32,0.14,-0.21,0.34,
4.745,0.28,-0.13,1.32,0.18,-0.20,0.33,
4.745,0.70,0.00,2.80,0.18,-0.20,0.33,
4.746,0.70,0.00,2.80,0.22,-0.19,0.32,
4.746,0.70,0.00,2.80,0.26,-0.17,0.30,
4.746,0.70,0.00,2.80,0.30,-0.15,0.29,
4.746,0.70,0.00,2.80,0.34,-0.14,0.27,
4.747,0.70,0.00,2.80,0.39,-0.12,0.25,
4.747,1.06,0.26,3.92,0.39,-0.12,0.25,
4.747,1.06,0.26,3.92,0.43,-0.10,0.24,
4.751,1.06,0.26,3.92,0.47,-0.08,0.22,
4.752,1.06,0.26,3.92,0.51,-0.07,0.20,
4.752,1.06,0.26,3.92,0.55,-0.05,0.18,
4.754,1.06,0.26,3.92,0.58,-0.04,0.17,
4.762,1.02,0.45,4.40,0.58,-0.04,0.17,
4.762,1.02,0.45,4.40,0.62,-0.03,0.15,
4.762,1.02,0.45,4.40,0.64,-0.02,0.14,
4.77,1.02,0.45,4.40,0.67,-0.02,0.13,
4.77,1.02,0.45,4.40,0.68,-0.01,0.13,
4.771,1.02,0.45,4.40,0.69,-0.01,0.12,
4.771,0.40,0.55,4.24,0.69,-0.01,0.12,
4.771,0.40,0.55,4.24,0.70,-0.02,0.12,
4.771,0.40,0.55,4.24,0.70,-0.03,0.12,
4.791,0.40,0.55,4.24,0.70,-0.03,0.13,
4.791,0.40,0.55,4.24,0.69,-0.05,0.13,
4.791,0.40,0.55,4.24,0.67,-0.06,0.14,
4.792,-0.44,0.77,3.87,0.67,-0.06,0.14,
4.792,-0.44,0.77,3.87,0.65,-0.08,0.15,
4.792,-0.44,0.77,3.87,0.63,-0.10,0.16,
4.792,-0.44,0.77,3.87,0.61,-0.12,0.17,
4.793,-0.44,0.77,3.87,0.58,-0.13,0.18,
4.793,-0.44,0.77,3.87,0.54,-0.16,0.20,
4.793,-1.27,1.16,3.72,0.54,-0.16,0.20,
4.793,-1.27,1.16,3.72,0.51,-0.18,0.21,
4.794,-1.27,1.16,3.72,0.47,-0.20,0.23,
4.794,-1.27,1.16,3.72,0.43,-0.23,0.24,
4.799,-1.27,1.16,3.72,0.39,-0.27,0.26,
4.799,-1.27,1.16,3.72,0.34,-0.32,0.28,
4.801,-1.64,1.66,3.86,0.34,-0.32,0.28,
4.801,-1.64,1.66,3.86,0.29,-0.37,0.29,
4.801,-1.64,1.66,3.86,0.23,-0.43,0.30,
4.802,-1.64,1.66,3.86,0.17,-0.49,0.31,
4.803,-1.64,1.66,3.86,0.11,-0.56,0.32,
4.804,-1.64,1.66,3.86,0.05,-0.63,0.32,
4.807,-1.49,2.10,4.33,0.05,-0.63,0.32,
4.807,-1.49,2.10,4.33,-0.02,-0.70,0.32,
4.808,-1.49,2.10,4.33,-0.09,-0.77,0.32,
4.811,-1.49,2.10,4.33,-0.15,-0.84,0.32,
4.813,-1.49,2.10,4.33,-0.22,-0.91,0.32,
4.815,-1.49,2.10,4.33,-0.29,-0.97,0.31,
4.817,-0.72,2.22,5.34,-0.29,-0.97,0.31,
4.817,-0.72,2.22,5.34,-0.36,-1.03,0.30,
4.818,-0.72,2.22,5.34,-0.42,-1.08,0.29,
4.824,-0.72,2.22,5.34,-0.48,-1.12,0.27,
4.825,-0.72,2.22,5.34,-0.55,-1.16,0.25,
4.826,-0.72,2.22,5.34,-0.60,-1.18,0.23,
4.83,0.45,2.00,6.81,-0.60,-1.18,0.23,
4.83,0.45,2.00,6.81,-0.66,-1.19,0.20,
4.83,0.45,2.00,6.81,-0.71,-1.20,0.18,
4.831,0.45,2.00,6.81,-0.76,-1.20,0.15,
4.832,0.45,2.00,6.81,-0.80,-1.18,0.11,
4.834,0.45,2.00,6.81,-0.84,-1.16,0.08,
4.836,1.66,1.60,8.40,-0.84,-1.16,0.08,
4.837,1.66,1.60,8.40,-0.87,-1.13,0.04,
4.838,1.66,1.60,8.40,-0.90,-1.08,0.00,
4.841,1.66,1.60,8.40,-0.93,-1.03,-0.04,
4.842,1.66,1.60,8.40,-0.96,-0.97,-0.08,
4.844,1.66,1.60,8.40,-0.98,-0.90,-0.13,
4.85,2.54,1.05,9.74,-0.98,-0.90,-0.13,
4.85,2.54,1.05,9.74,-0.99,-0.82,-0.17,
4.85,2.54,1.05,9.74,-1.00,-0.72,-0.21,
4.851,2.54,1.05,9.74,-1.01,-0.62,-0.25,
4.852,2.54,1.05,9.74,-1.02,-0.51,-0.28,
4.854,2.54,1.05,9.74,-1.01,-0.40,-0.32,
4.857,2.47,0.45,10.56,-1.01,-0.40,-0.32,
4.857,2.47,0.45,10.56,-1.01,-0.28,-0.34,
4.858,2.47,0.45,10.56,-1.00,-0.16,-0.37,
4.861,2.47,0.45,10.56,-0.99,-0.03,-0.39,
4.863,2.47,0.45,10.56,-0.97,0.09,-0.40,
4.864,2.47,0.45,10.56,-0.95,0.21,-0.42,
4.868,1.60,-0.11,10.68,-0.95,0.21,-0.42,
4.868,1.60,-0.11,10.68,-0.93,0.32,-0.43,
4.869,1.60,-0.11,10.68,-0.90,0.42,-0.43,
4.871,1.60,-0.11,10.68,-0.88,0.51,-0.42,
4.874,1.60,-0.11,10.68,-0.85,0.58,-0.42,
4.875,1.60,-0.11,10.68,-0.83,0.65,-0.42,
4.877,0.38,-0.31,9.90,-0.83,0.65,-0.42,
4.877,0.38,-0.31,9.90,-0.80,0.71,-0.41,
4.878,0.38,-0.31,9.90,-0.77,0.76,-0.39,
4.881,0.38,-0.31,9.90,-0.75,0.80,-0.38,
4.882,0.38,-0.31,9.90,-0.72,0.84,-0.36,
4.884,0.38,-0.31,9.90,-0.70,0.86,-0.34,
4.886,-0.76,-0.37,8.36,-0.70,0.86,-0.34,
4.886,-0.76,-0.37,8.36,-0.68,0.88,-0.32,
4.888,-0.76,-0.37,8.36,-0.66,0.89,-0.30,
4.904,-0.76,-0.37,8.36,-0.64,0.89,-0.27,
4.904,-0.76,-0.37,8.36,-0.62,0.88,-0.25,
4.921,-0.76,-0.37,8.36,-0.61,0.86,-0.23,
4.921,-1.34,-0.27,6.48,-0.61,0.86,-0.23,
4.921,-1.34,-0.27,6.48,-0.59,0.84,-0.20,
4.922,-1.34,-0.27,6.48,-0.57,0.82,-0.18,
4.922,-1.34,-0.27,6.48,-0.56,0.78,-0.16,
4.922,-1.34,-0.27,6.48,-0.55,0.75,-0.14,
4.922,-1.34,-0.27,6.48,-0.54,0.70,-0.13,
4.923,-1.44,-0.06,4.77,-0.54,0.70,-0.13,
4.923,-1.44,-0.06,4.77,-0.53,0.66,-0.11,
4.923,-1.44,-0.06,4.77,-0.52,0.61,-0.10,
4.923,-1.44,-0.06,4.77,-0.51,0.57,-0.09,
4.924,-1.44,-0.06,4.77,-0.50,0.51,-0.09,
4.924,-1.44,-0.06,4.77,-0.49,0.46,-0.08,
4.924,-1.16,0.16,3.18,-0.49,0.46,-0.08,
4.924,-1.16,0.16,3.18,-0.48,0.41,-0.07,
4.925,-1.16,0.16,3.18,-0.48,0.36,-0.07,
4.925,-1.16,0.16,3.18,-0.47,0.27,-0.06,
4.925,-1.16,0.16,3.18,-0.47,0.27,-0.06,
4.931,-1.16,0.16,3.18,-0.47,0.23,-0.06,
4.932,-0.80,0.26,1.87,-0.47,0.23,-0.06,
4.932,-0.80,0.26,1.87,-0.46,0.19,-0.06,
4.932,-0.80,0.26,1.87,-0.46,0.16,-0.07,
4.932,-0.80,0.26,1.87,-0.46,0.12,-0.07,
4.933,-0.80,0.26,1.87,-0.45,0.10,-0.07,
4.934,-0.80,0.26,1.87,-0.45,0.08,-0.08,
4.937,-0.54,0.18,0.81,-0.45,0.08,-0.08,
4.937,-0.54,0.18,0.81,-0.45,0.07,-0.08,
4.938,-0.54,0.18,0.81,-0.45,0.06,-0.08,
4.942,-0.54,0.18,0.81,-0.44,0.05,-0.08,
4.943,-0.54,0.18,0.81,-0.44,0.05,-0.09,
4.945,-0.54,0.18,0.81,-0.44,0.04,-0.09,
4.947,-0.39,-0.01,-0.09,-0.44,0.04,-0.09,
4.947,-0.39,-0.01,-0.09,-0.44,0.04,-0.09,
4.948,-0.39,-0.01,-0.09,-0.44,0.05,-0.09,
4.951,-0.39,-0.01,-0.09,-0.43,0.05,-0.09,
4.952,-0.39,-0.01,-0.09,-0.43,0.06,-0.09,
4.954,-0.39,-0.01,-0.09,-0.43,0.06,-0.09,
4.958,-0.40,-0.25,-0.88,-0.43,0.06,-0.09,
4.958,-0.40,-0.25,-0.88,-0.43,0.07,-0.08,
4.958,-0.40,-0.25,-0.88,-0.43,0.08,-0.08,
4.963,-0.40,-0.25,-0.88,-0.43,0.09,-0.07,
