
time,ax,ay,az,wx,wy,wz,
0.002,-0.05,0.25,-1.01,-0.28,0.27,1.37,
0.003,-0.05,0.25,-1.01,-0.31,0.27,1.38,
0.003,-0.05,0.25,-1.01,-0.32,0.27,1.38,
0.018,0.03,0.27,-1.00,-0.32,0.27,1.38,
0.018,0.03,0.27,-1.00,-0.34,0.27,1.38,
0.018,0.03,0.27,-1.00,-0.36,0.27,1.38,
0.018,0.03,0.27,-1.00,-0.37,0.27,1.38,
0.018,0.03,0.27,-1.00,-0.39,0.28,1.37,
0.019,0.03,0.27,-1.00,-0.39,0.28,1.37,
0.019,0.18,0.27,-0.75,-0.39,0.28,1.37,
0.019,0.18,0.27,-0.75,-0.41,0.28,1.36,
0.019,0.18,0.27,-0.75,-0.42,0.29,1.36,
0.019,0.18,0.27,-0.75,-0.43,0.29,1.35,
0.02,0.18,0.27,-0.75,-0.44,0.30,1.33,
0.023,0.18,0.27,-0.75,-0.44,0.31,1.33,
0.025,0.44,0.30,-0.53,-0.44,0.31,1.33,
0.025,0.44,0.30,-0.53,-0.44,0.31,1.32,
0.026,0.44,0.30,-0.53,-0.45,0.32,1.30,
0.027,0.44,0.30,-0.53,-0.46,0.33,1.29,
0.029,0.44,0.30,-0.53,-0.46,0.34,1.26,
0.046,0.44,0.30,-0.53,-0.46,0.35,1.25,
0.047,0.75,0.23,-0.32,-0.46,0.35,1.25,
0.047,0.75,0.23,-0.32,-0.46,0.35,1.24,
0.047,0.75,0.23,-0.32,-0.46,0.36,1.22,
0.047,0.75,0.23,-0.32,-0.46,0.36,1.20,
0.047,0.75,0.23,-0.32,-0.45,0.36,1.17,
0.048,0.75,0.23,-0.32,-0.45,0.36,1.16,
0.048,0.86,0.17,-0.19,-0.45,0.36,1.16,
0.048,0.86,0.17,-0.19,-0.45,0.35,1.13,
0.048,0.86,0.17,-0.19,-0.44,0.34,1.11,
0.049,0.86,0.17,-0.19,-0.43,0.34,1.10,
0.051,0.86,0.17,-0.19,-0.43,0.32,1.07,
0.051,0.86,0.17,-0.19,-0.43,0.32,1.06,
0.053,0.79,0.09,-0.17,-0.43,0.32,1.06,
0.053,0.79,0.09,-0.17,-0.42,0.31,1.04,
0.054,0.79,0.09,-0.17,-0.41,0.31,1.02,
0.09,0.79,0.09,-0.17,-0.41,0.30,1.01,
0.09,0.79,0.09,-0.17,-0.40,0.29,0.99,
0.091,0.79,0.09,-0.17,-0.39,0.29,0.98,
0.091,0.67,0.18,-0.07,-0.39,0.29,0.98,
0.091,0.67,0.18,-0.07,-0.39,0.29,0.97,
0.091,0.67,0.18,-0.07,-0.38,0.28,0.96,
0.091,0.67,0.18,-0.07,-0.37,0.28,0.95,
0.092,0.67,0.18,-0.07,-0.35,0.29,0.94,
0.092,0.67,0.18,-0.07,-0.35,0.29,0.94,
0.092,0.41,0.17,0.12,-0.35,0.29,0.94,
0.092,0.41,0.17,0.12,-0.34,0.29,0.93,
0.092,0.41,0.17,0.12,-0.33,0.29,0.93,
0.093,0.41,0.17,0.12,-0.31,0.30,0.92,
0.093,0.41,0.17,0.12,-0.29,0.30,0.92,
0.093,0.41,0.17,0.12,-0.29,0.30,0.92,
0.098,0.19,0.19,0.31,-0.29,0.30,0.92,
0.098,0.19,0.19,0.31,-0.28,0.30,0.91,
0.098,0.19,0.19,0.31,-0.26,0.31,0.91,
0.099,0.19,0.19,0.31,-0.25,0.31,0.90,
0.099,0.19,0.19,0.31,-0.23,0.32,0.90,
0.099,0.19,0.19,0.31,-0.22,0.32,0.90,
0.099,0.10,0.30,0.42,-0.22,0.32,0.90,
0.099,0.10,0.30,0.42,-0.21,0.33,0.89,
0.1,0.10,0.30,0.42,-0.19,0.34,0.89,
0.1,0.10,0.30,0.42,-0.18,0.34,0.88,
0.1,0.10,0.30,0.42,-0.17,0.35,0.87,
0.104,0.10,0.30,0.42,-0.17,0.35,0.87,
0.104,0.14,0.38,0.25,-0.17,0.35,0.87,
0.104,0.14,0.38,0.25,-0.16,0.35,0.87,
0.106,0.14,0.38,0.25,-0.16,0.36,0.86,
0.115,0.14,0.38,0.25,-0.16,0.37,0.85,
0.115,0.14,0.38,0.25,-0.16,0.37,0.84,
0.116,0.14,0.38,0.25,-0.16,0.37,0.84,
0.116,0.43,0.41,0.02,-0.16,0.37,0.84,
0.116,0.43,0.41,0.02,-0.16,0.37,0.82,
0.116,0.43,0.41,0.02,-0.16,0.38,0.81,
0.116,0.43,0.41,0.02,-0.16,0.38,0.80,
0.119,0.43,0.41,0.02,-0.17,0.38,0.77,
0.12,0.43,0.41,0.02,-0.18,0.38,0.76,
0.125,0.80,0.52,-0.28,-0.18,0.38,0.76,
0.126,0.80,0.52,-0.28,-0.18,0.38,0.74,
0.126,0.80,0.52,-0.28,-0.19,0.38,0.73,
0.127,0.80,0.52,-0.28,-0.20,0.38,0.71,
0.129,0.80,0.52,-0.28,-0.22,0.38,0.68,
0.13,0.80,0.52,-0.28,-0.23,0.38,0.67,
0.133,1.11,0.58,-0.43,-0.23,0.38,0.67,
0.133,1.11,0.58,-0.43,-0.24,0.38,0.65,
0.134,1.11,0.58,-0.43,-0.26,0.38,0.63,
0.136,1.11,0.58,-0.43,-0.27,0.38,0.62,
0.14,1.11,0.58,-0.43,-0.29,0.36,0.59,
0.141,1.11,0.58,-0.43,-0.30,0.35,0.58,
0.144,1.32,0.72,-0.37,-0.30,0.35,0.58,
0.144,1.32,0.72,-0.37,-0.31,0.33,0.56,
0.145,1.32,0.72,-0.37,-0.33,0.32,0.55,
0.148,1.32,0.72,-0.37,-0.34,0.31,0.53,
0.152,1.32,0.72,-0.37,-0.35,0.29,0.50,
0.153,1.32,0.72,-0.37,-0.36,0.29,0.50,
0.154,1.31,0.81,-0.16,-0.36,0.29,0.50,
0.157,1.31,0.81,-0.16,-0.37,0.28,0.48,
0.158,1.31,0.81,-0.16,-0.37,0.26,0.47,
0.158,1.31,0.81,-0.16,-0.38,0.25,0.46,
0.16,1.31,0.81,-0.16,-0.38,0.24,0.45,
0.162,1.31,0.81,-0.16,-0.38,0.24,0.44,
0.163,1.31,0.81,-0.16,-0.38,0.24,0.44,
0.163,1.21,0.90,0.28,-0.38,0.24,0.44,
0.164,1.21,0.90,0.28,-0.38,0.25,0.44,
0.181,1.21,0.90,0.28,-0.38,0.26,0.44,
0.182,1.21,0.90,0.28,-0.37,0.28,0.46,
0.182,1.21,0.90,0.28,-0.36,0.29,0.46,
0.182,0.95,0.76,0.77,-0.36,0.29,0.46,
0.182,0.95,0.76,0.77,-0.36,0.31,0.47,
0.182,0.95,0.76,0.77,-0.35,0.33,0.48,
0.183,0.95,0.76,0.77,-0.33,0.36,0.49,
0.184,0.95,0.76,0.77,-0.31,0.39,0.50,
0.184,0.95,0.76,0.77,-0.29,0.40,0.51,
0.184,0.80,0.45,1.23,-0.29,0.40,0.51,
0.184,0.80,0.45,1.23,-0.27,0.42,0.52,
0.185,0.80,0.45,1.23,-0.25,0.45,0.53,
0.187,0.80,0.45,1.23,-0.23,0.47,0.54,
0.202,0.80,0.45,1.23,-0.18,0.49,0.55,
0.203,0.80,0.45,1.23,-0.16,0.50,0.55,
0.204,0.84,0.28,1.30,-0.16,0.50,0.55,
0.204,0.84,0.28,1.30,-0.13,0.51,0.56,
0.204,0.84,0.28,1.30,-0.10,0.53,0.56,
0.205,0.84,0.28,1.30,-0.07,0.53,0.57,
0.205,0.84,0.28,1.30,-0.03,0.54,0.57,
0.206,0.84,0.28,1.30,-0.01,0.54,0.57,
0.206,0.97,0.29,1.14,-0.01,0.54,0.57,
0.207,0.97,0.29,1.14,0.02,0.54,0.57,
0.207,0.97,0.29,1.14,0.05,0.53,0.57,
0.24,0.97,0.29,1.14,0.09,0.52,0.58,
0.241,0.97,0.29,1.14,0.13,0.49,0.57,
0.241,0.97,0.29,1.14,0.15,0.48,0.57,
0.242,1.08,0.44,0.65,0.15,0.48,0.57,
0.242,1.08,0.44,0.65,0.17,0.46,0.57,
0.242,1.08,0.44,0.65,0.20,0.43,0.57,
0.243,1.08,0.44,0.65,0.22,0.40,0.56,
0.243,1.08,0.44,0.65,0.25,0.35,0.56,
0.243,1.08,0.44,0.65,0.25,0.33,0.55,
0.243,1.19,0.65,0.02,0.25,0.33,0.55,
0.244,1.19,0.65,0.02,0.26,0.29,0.55,
0.244,1.19,0.65,0.02,0.27,0.24,0.54,
0.244,1.19,0.65,0.02,0.27,0.20,0.54,
0.245,1.19,0.65,0.02,0.27,0.12,0.53,
0.245,1.19,0.65,0.02,0.27,0.09,0.52,
0.245,1.19,0.84,-0.79,0.27,0.09,0.52,
0.245,1.19,0.84,-0.79,0.26,0.04,0.52,
0.246,1.19,0.84,-0.79,0.25,-0.01,0.51,
0.246,1.19,0.84,-0.79,0.24,-0.07,0.50,
0.246,1.19,0.84,-0.79,0.21,-0.15,0.49,
0.247,1.19,0.84,-0.79,0.20,-0.18,0.49,
0.247,1.00,0.98,-1.58,0.20,-0.18,0.49,
0.247,1.00,0.98,-1.58,0.17,-0.23,0.49,
0.247,1.00,0.98,-1.58,0.15,-0.27,0.48,
0.248,1.00,0.98,-1.58,0.11,-0.32,0.49,
0.268,1.00,0.98,-1.58,0.06,-0.38,0.49,
0.269,1.00,0.98,-1.58,0.04,-0.39,0.49,
0.269,0.80,1.01,-2.02,0.04,-0.39,0.49,
0.269,0.80,1.01,-2.02,0.01,-0.43,0.49,
0.27,0.80,1.01,-2.02,-0.03,-0.46,0.50,
0.27,0.80,1.01,-2.02,-0.08,-0.49,0.50,
0.27,0.80,1.01,-2.02,-0.14,-0.53,0.50,
0.27,0.80,1.01,-2.02,-0.16,-0.54,0.50,
0.271,0.73,1.01,-2.19,-0.16,-0.54,0.50,
0.271,0.73,1.01,-2.19,-0.21,-0.56,0.51,
0.272,0.73,1.01,-2.19,-0.25,-0.58,0.51,
0.272,0.73,1.01,-2.19,-0.30,-0.60,0.52,
0.272,0.73,1.01,-2.19,-0.37,-0.60,0.54,
0.273,0.73,1.01,-2.19,-0.39,-0.60,0.54,
0.285,0.56,0.74,-1.92,-0.39,-0.60,0.54,
0.286,0.56,0.74,-1.92,-0.43,-0.59,0.56,
0.286,0.56,0.74,-1.92,-0.48,-0.57,0.57,
0.286,0.56,0.74,-1.92,-0.52,-0.54,0.59,
0.286,0.56,0.74,-1.92,-0.59,-0.49,0.61,
0.287,0.56,0.74,-1.92,-0.61,-0.47,0.62,
0.287,0.50,0.80,-1.58,-0.61,-0.47,0.62,
0.287,0.50,0.80,-1.58,-0.66,-0.45,0.64,
0.287,0.50,0.80,-1.58,-0.71,-0.42,0.66,
0.287,0.50,0.80,-1.58,-0.75,-0.40,0.68,
0.292,0.50,0.80,-1.58,-0.82,-0.38,0.71,
0.292,0.50,0.80,-1.58,-0.84,-0.37,0.72,
0.295,0.56,0.66,-1.17,-0.84,-0.37,0.72,
0.296,0.56,0.66,-1.17,-0.88,-0.35,0.73,
0.296,0.56,0.66,-1.17,-0.92,-0.34,0.75,
0.299,0.56,0.66,-1.17,-0.96,-0.33,0.76,
0.299,0.56,0.66,-1.17,-1.02,-0.30,0.78,
0.304,0.56,0.66,-1.17,-1.04,-0.30,0.79,
0.304,0.77,0.50,-0.80,-1.04,-0.30,0.79,
0.305,0.77,0.50,-0.80,-1.07,-0.28,0.80,
0.305,0.77,0.50,-0.80,-1.11,-0.26,0.81,
0.315,0.77,0.50,-0.80,-1.14,-0.24,0.82,
0.315,0.77,0.50,-0.80,-1.19,-0.21,0.84,
0.315,0.77,0.50,-0.80,-1.21,-0.20,0.84,
0.317,0.82,0.43,-0.55,-1.21,-0.20,0.84,
0.317,0.82,0.43,-0.55,-1.24,-0.19,0.85,
0.32,0.82,0.43,-0.55,-1.27,-0.18,0.86,
0.32,0.82,0.43,-0.55,-1.29,-0.17,0.87,
0.321,0.82,0.43,-0.55,-1.33,-0.16,0.89,
0.321,0.82,0.43,-0.55,-1.35,-0.16,0.90,
0.323,0.76,0.68,-0.39,-1.35,-0.16,0.90,
0.348,0.76,0.68,-0.39,-1.36,-0.16,0.91,
0.348,0.76,0.68,-0.39,-1.38,-0.17,0.92,
0.349,0.76,0.68,-0.39,-1.40,-0.18,0.93,
0.349,0.76,0.68,-0.39,-1.42,-0.19,0.95,
0.349,0.76,0.68,-0.39,-1.43,-0.20,0.95,
0.349,0.71,0.82,-0.30,-1.43,-0.20,0.95,
0.349,0.71,0.82,-0.30,-1.44,-0.22,0.96,
0.35,0.71,0.82,-0.30,-1.45,-0.24,0.97,
0.35,0.71,0.82,-0.30,-1.45,-0.25,0.98,
0.35,0.71,0.82,-0.30,-1.45,-0.27,0.98,
0.35,0.71,0.82,-0.30,-1.45,-0.28,0.99,
0.35,0.82,0.87,-0.29,-1.45,-0.28,0.99,
0.351,0.82,0.87,-0.29,-1.45,-0.30,0.99,
0.351,0.82,0.87,-0.29,-1.44,-0.31,0.99,
0.351,0.82,0.87,-0.29,-1.43,-0.33,0.99,
0.351,0.82,0.87,-0.29,-1.40,-0.36,0.99,
0.351,0.82,0.87,-0.29,-1.40,-0.38,0.98,
0.39,1.25,0.64,-0.17,-1.40,-0.38,0.98,
0.391,1.25,0.64,-0.17,-1.38,-0.42,0.98,
0.391,1.25,0.64,-0.17,-1.36,-0.46,0.97,
0.391,1.25,0.64,-0.17,-1.34,-0.52,0.96,
0.392,1.25,0.64,-0.17,-1.30,-0.61,0.95,
0.392,1.25,0.64,-0.17,-1.29,-0.63,0.94,
0.392,1.76,0.45,0.11,-1.29,-0.63,0.94,
0.392,1.76,0.45,0.11,-1.27,-0.69,0.93,
0.392,1.76,0.45,0.11,-1.25,-0.73,0.91,
0.392,1.76,0.45,0.11,-1.23,-0.77,0.89,
0.392,1.76,0.45,0.11,-1.19,-0.81,0.86,
0.393,1.76,0.45,0.11,-1.18,-0.83,0.85,
0.393,2.14,0.19,0.33,-1.18,-0.83,0.85,
0.393,2.14,0.19,0.33,-1.16,-0.85,0.82,
0.393,2.14,0.19,0.33,-1.13,-0.86,0.80,
0.393,2.14,0.19,0.33,-1.11,-0.88,0.78,
0.393,2.14,0.19,0.33,-1.08,-0.88,0.75,
0.394,2.14,0.19,0.33,-1.07,-0.88,0.74,
0.394,2.36,-0.00,0.55,-1.07,-0.88,0.74,
0.394,2.36,-0.00,0.55,-1.05,-0.88,0.72,
0.394,2.36,-0.00,0.55,-1.03,-0.87,0.70,
0.394,2.36,-0.00,0.55,-1.01,-0.86,0.67,
0.394,2.36,-0.00,0.55,-0.98,-0.84,0.64,
0.398,2.36,-0.00,0.55,-0.97,-0.83,0.63,
0.399,2.20,0.04,0.84,-0.97,-0.83,0.63,
0.399,2.20,0.04,0.84,-0.95,-0.82,0.62,
0.399,2.20,0.04,0.84,-0.92,-0.81,0.60,
0.399,2.20,0.04,0.84,-0.88,-0.82,0.61,
0.401,2.20,0.04,0.84,-0.85,-0.81,0.61,
0.401,2.20,0.04,0.84,-0.84,-0.80,0.61,
0.403,1.62,0.03,1.08,-0.84,-0.80,0.61,
0.404,1.62,0.03,1.08,-0.82,-0.77,0.59,
0.406,1.62,0.03,1.08,-0.82,-0.73,0.57,
0.409,1.62,0.03,1.08,-0.81,-0.67,0.53,
0.41,1.62,0.03,1.08,-0.81,-0.60,0.48,
0.411,1.62,0.03,1.08,-0.80,-0.57,0.46,
0.414,1.72,0.73,0.84,-0.80,-0.57,0.46,
0.414,1.72,0.73,0.84,-0.79,-0.53,0.44,
0.429,1.72,0.73,0.84,-0.77,-0.50,0.41,
0.43,1.72,0.73,0.84,-0.75,-0.46,0.39,
0.43,1.72,0.73,0.84,-0.70,-0.40,0.38,
0.43,1.72,0.73,0.84,-0.69,-0.39,0.37,
0.43,1.55,0.87,1.35,-0.69,-0.39,0.37,
0.43,1.55,0.87,1.35,-0.65,-0.36,0.36,
0.43,1.55,0.87,1.35,-0.61,-0.33,0.35,
0.431,1.55,0.87,1.35,-0.57,-0.31,0.34,
0.434,1.55,0.87,1.35,-0.51,-0.29,0.32,
0.434,1.55,0.87,1.35,-0.49,-0.28,0.31,
0.435,1.48,0.29,1.55,-0.49,-0.28,0.31,
0.435,1.48,0.29,1.55,-0.46,-0.28,0.30,
0.435,1.48,0.29,1.55,-0.42,-0.28,0.28,
0.436,1.48,0.29,1.55,-0.39,-0.28,0.27,
0.444,1.48,0.29,1.55,-0.36,-0.28,0.24,
0.444,1.48,0.29,1.55,-0.35,-0.28,0.24,
0.444,1.66,-0.03,1.27,-0.35,-0.28,0.24,
0.444,1.66,-0.03,1.27,-0.33,-0.29,0.22,
0.445,1.66,-0.03,1.27,-0.31,-0.29,0.21,
0.447,1.66,-0.03,1.27,-0.30,-0.30,0.20,
0.451,1.66,-0.03,1.27,-0.27,-0.32,0.18,
0.453,1.66,-0.03,1.27,-0.27,-0.32,0.17,
0.455,1.73,-0.05,0.90,-0.27,-0.32,0.17,
0.455,1.73,-0.05,0.90,-0.26,-0.33,0.16,
0.465,1.73,-0.05,0.90,-0.24,-0.34,0.16,
0.465,1.73,-0.05,0.90,-0.23,-0.34,0.15,
0.466,1.73,-0.05,0.90,-0.21,-0.34,0.13,
0.466,1.73,-0.05,0.90,-0.21,-0.34,0.13,
0.466,1.61,-0.06,0.59,-0.21,-0.34,0.13,
0.466,1.61,-0.06,0.59,-0.19,-0.34,0.12,
0.466,1.61,-0.06,0.59,-0.18,-0.33,0.11,
0.466,1.61,-0.06,0.59,-0.17,-0.33,0.11,
0.471,1.61,-0.06,0.59,-0.15,-0.32,0.10,
0.472,1.61,-0.06,0.59,-0.14,-0.32,0.10,
0.475,1.26,0.00,0.29,-0.14,-0.32,0.10,
0.475,1.26,0.00,0.29,-0.13,-0.32,0.09,
0.475,1.26,0.00,0.29,-0.11,-0.31,0.09,
0.477,1.26,0.00,0.29,-0.10,-0.31,0.09,
0.479,1.26,0.00,0.29,-0.08,-0.30,0.09,
0.481,1.26,0.00,0.29,-0.08,-0.30,0.09,
0.483,0.88,0.23,-0.06,-0.08,-0.30,0.09,
0.483,0.88,0.23,-0.06,-0.07,-0.29,0.10,
0.484,0.88,0.23,-0.06,-0.06,-0.29,0.10,
0.488,0.88,0.23,-0.06,-0.05,-0.28,0.10,
0.489,0.88,0.23,-0.06,-0.04,-0.26,0.11,
0.49,0.88,0.23,-0.06,-0.04,-0.26,0.11,
0.494,0.64,0.44,-0.46,-0.04,-0.26,0.11,
0.494,0.64,0.44,-0.46,-0.02,-0.25,0.12,
0.494,0.64,0.44,-0.46,-0.02,-0.24,0.12,
0.499,0.64,0.44,-0.46,-0.01,-0.23,0.12,
0.499,0.64,0.44,-0.46,0.00,-0.22,0.12,
0.501,0.64,0.44,-0.46,0.01,-0.22,0.12,
0.503,0.59,0.56,-0.92,0.01,-0.22,0.12,
0.503,0.59,0.56,-0.92,0.01,-0.22,0.12,
0.506,0.59,0.56,-0.92,0.01,-0.22,0.12,
0.507,0.59,0.56,-0.92,0.02,-0.23,0.12,
0.509,0.59,0.56,-0.92,0.02,-0.25,0.12,
0.51,0.59,0.56,-0.92,0.01,-0.26,0.12,
0.514,0.63,0.57,-1.43,0.01,-0.26,0.12,
0.515,0.63,0.57,-1.43,0.02,-0.28,0.12,
0.515,0.63,0.57,-1.43,0.02,-0.30,0.12,
0.516,0.63,0.57,-1.43,0.01,-0.32,0.12,
0.52,0.63,0.57,-1.43,0.00,-0.35,0.12,
0.52,0.63,0.57,-1.43,0.00,-0.36,0.12,
0.523,0.67,0.62,-1.95,0.00,-0.36,0.12,
0.523,0.67,0.62,-1.95,-0.00,-0.38,0.12,
0.529,0.67,0.62,-1.95,-0.01,-0.40,0.12,
0.529,0.67,0.62,-1.95,-0.03,-0.42,0.12,
0.529,0.67,0.62,-1.95,-0.05,-0.46,0.12,
0.53,0.67,0.62,-1.95,-0.05,-0.47,0.12,
0.532,0.50,0.58,-2.47,-0.05,-0.47,0.12,
0.533,0.50,0.58,-2.47,-0.07,-0.50,0.12,
0.534,0.50,0.58,-2.47,-0.09,-0.52,0.12,
0.536,0.50,0.58,-2.47,-0.11,-0.55,0.13,
0.54,0.50,0.58,-2.47,-0.14,-0.60,0.13,
0.541,0.50,0.58,-2.47,-0.16,-0.61,0.14,
0.543,0.39,0.62,-2.81,-0.16,-0.61,0.14,
0.543,0.39,0.62,-2.81,-0.18,-0.64,0.14,
0.544,0.39,0.62,-2.81,-0.21,-0.67,0.15,
0.546,0.39,0.62,-2.81,-0.23,-0.70,0.16,
0.549,0.39,0.62,-2.81,-0.28,-0.73,0.17,
0.551,0.39,0.62,-2.81,-0.30,-0.73,0.18,
0.553,0.18,0.56,-2.97,-0.30,-0.73,0.18,
0.553,0.18,0.56,-2.97,-0.33,-0.75,0.19,
0.555,0.18,0.56,-2.97,-0.36,-0.77,0.20,
0.556,0.18,0.56,-2.97,-0.39,-0.79,0.21,
0.563,0.18,0.56,-2.97,-0.43,-0.82,0.22,
0.563,0.18,0.56,-2.97,-0.45,-0.82,0.23,
0.564,-0.05,0.58,-2.89,-0.45,-0.82,0.23,
0.564,-0.05,0.58,-2.89,-0.47,-0.84,0.24,
0.564,-0.05,0.58,-2.89,-0.50,-0.86,0.25,
0.566,-0.05,0.58,-2.89,-0.52,-0.88,0.26,
0.569,-0.05,0.58,-2.89,-0.56,-0.90,0.28,
0.574,-0.05,0.58,-2.89,-0.58,-0.90,0.29,
0.574,-0.07,0.66,-2.55,-0.58,-0.90,0.29,
0.575,-0.07,0.66,-2.55,-0.60,-0.92,0.30,
0.576,-0.07,0.66,-2.55,-0.62,-0.93,0.31,
0.577,-0.07,0.66,-2.55,-0.64,-0.94,0.32,
0.584,-0.07,0.66,-2.55,-0.67,-0.95,0.33,
0.585,-0.07,0.66,-2.55,-0.68,-0.95,0.34,
0.613,0.05,0.77,-2.21,-0.68,-0.95,0.34,
0.613,0.05,0.77,-2.21,-0.70,-0.96,0.35,
0.613,0.05,0.77,-2.21,-0.72,-0.97,0.35,
0.614,0.05,0.77,-2.21,-0.73,-0.98,0.36,
0.614,0.05,0.77,-2.21,-0.75,-0.99,0.37,
0.615,0.05,0.77,-2.21,-0.76,-0.99,0.37,
0.615,0.22,0.71,-1.80,-0.76,-0.99,0.37,
0.615,0.22,0.71,-1.80,-0.77,-1.00,0.37,
0.616,0.22,0.71,-1.80,-0.78,-1.00,0.38,
0.616,0.22,0.71,-1.80,-0.79,-1.01,0.38,
0.617,0.22,0.71,-1.80,-0.80,-1.00,0.38,
0.617,0.22,0.71,-1.80,-0.80,-1.00,0.38,
0.618,0.54,0.75,-1.41,-0.80,-1.00,0.38,
0.618,0.54,0.75,-1.41,-0.80,-1.00,0.38,
0.618,0.54,0.75,-1.41,-0.81,-0.99,0.38,
0.619,0.54,0.75,-1.41,-0.81,-0.97,0.37,
0.619,0.54,0.75,-1.41,-0.81,-0.95,0.37,
0.619,0.54,0.75,-1.41,-0.82,-0.94,0.37,
0.62,0.70,0.78,-1.06,-0.82,-0.94,0.37,
0.62,0.70,0.78,-1.06,-0.82,-0.93,0.36,
0.62,0.70,0.78,-1.06,-0.81,-0.91,0.35,
0.621,0.70,0.78,-1.06,-0.81,-0.88,0.35,
0.621,0.70,0.78,-1.06,-0.79,-0.81,0.33,
0.621,0.70,0.78,-1.06,-0.78,-0.79,0.33,
0.628,0.74,0.94,-0.40,-0.78,-0.79,0.33,
0.629,0.74,0.94,-0.40,-0.76,-0.73,0.32,
0.629,0.74,0.94,-0.40,-0.73,-0.66,0.31,
0.629,0.74,0.94,-0.40,-0.71,-0.59,0.31,
0.63,0.74,0.94,-0.40,-0.66,-0.50,0.29,
0.63,0.74,0.94,-0.40,-0.64,-0.47,0.28,
0.637,0.73,1.03,0.43,-0.64,-0.47,0.28,
0.637,0.73,1.03,0.43,-0.61,-0.42,0.27,
0.638,0.73,1.03,0.43,-0.59,-0.38,0.26,
0.646,0.73,1.03,0.43,-0.56,-0.34,0.25,
0.646,0.73,1.03,0.43,-0.52,-0.29,0.24,
0.646,0.73,1.03,0.43,-0.50,-0.27,0.23,
0.646,0.91,0.91,0.74,-0.50,-0.27,0.23,
0.647,0.91,0.91,0.74,-0.48,-0.24,0.23,
0.647,0.91,0.91,0.74,-0.46,-0.20,0.21,
0.647,0.91,0.91,0.74,-0.43,-0.18,0.21,
0.682,0.91,0.91,0.74,-0.40,-0.13,0.20,
0.683,0.91,0.91,0.74,-0.39,-0.12,0.20,
0.683,0.73,0.82,0.74,-0.39,-0.12,0.20,
0.683,0.73,0.82,0.74,-0.36,-0.09,0.19,
0.684,0.73,0.82,0.74,-0.34,-0.06,0.19,
0.684,0.73,0.82,0.74,-0.33,-0.04,0.19,
0.684,0.73,0.82,0.74,-0.30,-0.02,0.19,
0.684,0.73,0.82,0.74,-0.30,-0.01,0.19,
0.684,0.73,0.82,0.74,-0.27,0.02,0.19,
0.685,0.73,0.82,0.74,-0.27,0.02,0.19,
0.685,0.36,0.87,0.41,-0.27,0.02,0.19,
0.685,0.36,0.87,0.41,-0.26,0.03,0.20,
0.685,0.36,0.87,0.41,-0.26,0.04,0.21,
0.686,0.36,0.87,0.41,-0.25,0.04,0.21,
0.686,0.23,0.90,0.30,-0.25,0.04,0.21,
0.686,0.23,0.90,0.30,-0.25,0.03,0.21,
0.686,0.23,0.90,0.30,-0.24,0.03,0.22,
0.686,0.23,0.90,0.30,-0.23,0.02,0.22,
0.687,0.23,0.90,0.30,-0.22,0.01,0.23,
0.687,0.23,0.90,0.30,-0.22,-0.00,0.24,
0.687,0.14,0.97,0.19,-0.22,-0.00,0.24,
0.687,0.14,0.97,0.19,-0.21,-0.02,0.24,
0.688,0.14,0.97,0.19,-0.19,-0.04,0.25,
0.688,0.14,0.97,0.19,-0.19,-0.05,0.26,
0.69,0.14,0.97,0.19,-0.17,-0.07,0.26,
0.691,0.14,0.97,0.19,-0.16,-0.08,0.27,
0.693,0.23,1.03,0.25,-0.16,-0.08,0.27,
0.693,0.23,1.03,0.25,-0.15,-0.10,0.27,
0.695,0.23,1.03,0.25,-0.13,-0.12,0.28,
0.696,0.23,1.03,0.25,-0.11,-0.13,0.28,
0.699,0.23,1.03,0.25,-0.08,-0.14,0.28,
0.7,0.23,1.03,0.25,-0.07,-0.14,0.28,
0.709,0.35,1.12,0.45,-0.07,-0.14,0.28,
0.709,0.35,1.12,0.45,-0.05,-0.15,0.28,
0.709,0.35,1.12,0.45,-0.03,-0.15,0.28,
0.71,0.35,1.12,0.45,-0.00,-0.15,0.28,
0.71,0.35,1.12,0.45,0.04,-0.16,0.28,
0.711,0.35,1.12,0.45,0.05,-0.16,0.27,
0.713,0.53,1.17,0.60,0.05,-0.16,0.27,
0.713,0.53,1.17,0.60,0.08,-0.16,0.27,
0.715,0.53,1.17,0.60,0.11,-0.16,0.27,
0.717,0.53,1.17,0.60,0.13,-0.16,0.26,
0.719,0.53,1.17,0.60,0.16,-0.15,0.26,
0.721,0.53,1.17,0.60,0.17,-0.15,0.26,
0.724,0.62,1.21,0.58,0.17,-0.15,0.26,
0.724,0.62,1.21,0.58,0.19,-0.14,0.26,
0.725,0.62,1.21,0.58,0.21,-0.13,0.25,
0.727,0.62,1.21,0.58,0.23,-0.11,0.25,
0.73,0.62,1.21,0.58,0.25,-0.09,0.26,
0.731,0.62,1.21,0.58,0.26,-0.08,0.25,
0.733,0.58,1.19,0.46,0.26,-0.08,0.25,
0.734,0.58,1.19,0.46,0.27,-0.06,0.25,
0.735,0.58,1.19,0.46,0.29,-0.05,0.26,
0.741,0.58,1.19,0.46,0.30,-0.03,0.25,
0.742,0.58,1.19,0.46,0.31,0.00,0.25,
0.742,0.58,1.19,0.46,0.32,0.01,0.25,
0.744,0.66,1.23,0.29,0.32,0.01,0.25,
0.745,0.66,1.23,0.29,0.33,0.03,0.25,
0.746,0.66,1.23,0.29,0.34,0.05,0.25,
0.747,0.66,1.23,0.29,0.35,0.08,0.24,
0.765,0.66,1.23,0.29,0.36,0.11,0.24,
0.766,0.66,1.23,0.29,0.36,0.13,0.24,
0.766,0.63,1.26,0.05,0.36,0.13,0.24,
0.766,0.63,1.26,0.05,0.36,0.15,0.23,
0.766,0.63,1.26,0.05,0.37,0.17,0.23,
0.766,0.63,1.26,0.05,0.37,0.19,0.23,
0.767,0.63,1.26,0.05,0.36,0.21,0.22,
0.767,0.63,1.26,0.05,0.36,0.22,0.22,
0.767,0.62,1.31,-0.42,0.36,0.22,0.22,
0.767,0.62,1.31,-0.42,0.35,0.23,0.22,
0.775,0.62,1.31,-0.42,0.35,0.24,0.22,
0.776,0.62,1.31,-0.42,0.34,0.25,0.22,
0.776,0.62,1.31,-0.42,0.32,0.27,0.22,
0.776,0.62,1.31,-0.42,0.32,0.28,0.22,
0.776,0.50,1.29,-0.73,0.32,0.28,0.22,
0.776,0.50,1.29,-0.73,0.30,0.29,0.22,
0.779,0.50,1.29,-0.73,0.29,0.30,0.23,
0.779,0.50,1.29,-0.73,0.28,0.30,0.23,
0.779,0.50,1.29,-0.73,0.26,0.30,0.23,
0.78,0.50,1.29,-0.73,0.26,0.30,0.23,
0.782,0.45,1.30,-0.95,0.26,0.30,0.23,
0.783,0.45,1.30,-0.95,0.24,0.29,0.23,
0.784,0.45,1.30,-0.95,0.23,0.29,0.23,
0.787,0.45,1.30,-0.95,0.21,0.27,0.23,
0.789,0.45,1.30,-0.95,0.19,0.25,0.23,
0.79,0.45,1.30,-0.95,0.19,0.24,0.23,
0.793,0.38,1.17,-1.01,0.19,0.24,0.23,
0.793,0.38,1.17,-1.01,0.17,0.22,0.23,
0.794,0.38,1.17,-1.01,0.16,0.20,0.23,
0.796,0.38,1.17,-1.01,0.15,0.18,0.23,
0.799,0.38,1.17,-1.01,0.13,0.15,0.23,
0.8,0.38,1.17,-1.01,0.13,0.15,0.23,
0.803,0.12,0.99,-0.91,0.13,0.15,0.23,
0.803,0.12,0.99,-0.91,0.12,0.13,0.24,
0.804,0.12,0.99,-0.91,0.12,0.12,0.25,
0.806,0.12,0.99,-0.91,0.11,0.10,0.26,
0.81,0.12,0.99,-0.91,0.10,0.08,0.28,
0.81,0.12,0.99,-0.91,0.10,0.07,0.29,
0.813,-0.18,0.64,-0.52,0.10,0.07,0.29,
0.813,-0.18,0.64,-0.52,0.10,0.06,0.30,
0.814,-0.18,0.64,-0.52,0.10,0.06,0.33,
0.816,-0.18,0.64,-0.52,0.10,0.06,0.36,
0.82,-0.18,0.64,-0.52,0.11,0.07,0.41,
0.82,-0.18,0.64,-0.52,0.11,0.07,0.43,
0.823,-0.64,0.15,-0.04,0.11,0.07,0.43,
0.823,-0.64,0.15,-0.04,0.11,0.09,0.47,
0.824,-0.64,0.15,-0.04,0.12,0.11,0.52,
0.827,-0.64,0.15,-0.04,0.12,0.13,0.57,
0.83,-0.64,0.15,-0.04,0.12,0.16,0.64,
0.83,-0.64,0.15,-0.04,0.13,0.16,0.66,
0.833,-0.83,-0.12,0.35,0.13,0.16,0.66,
0.833,-0.83,-0.12,0.35,0.13,0.18,0.70,
0.834,-0.83,-0.12,0.35,0.14,0.19,0.74,
0.836,-0.83,-0.12,0.35,0.15,0.20,0.78,
0.839,-0.83,-0.12,0.35,0.17,0.21,0.83,
0.842,-0.83,-0.12,0.35,0.17,0.21,0.84,
0.843,-0.58,0.08,0.77,0.17,0.21,0.84,
0.844,-0.58,0.08,0.77,0.18,0.21,0.86,
0.844,-0.58,0.08,0.77,0.20,0.21,0.88,
0.847,-0.58,0.08,0.77,0.21,0.21,0.89,
0.849,-0.58,0.08,0.77,0.24,0.21,0.90,
0.851,-0.58,0.08,0.77,0.25,0.21,0.90,
0.854,0.08,0.35,1.07,0.25,0.21,0.90,
0.855,0.08,0.35,1.07,0.26,0.21,0.90,
0.855,0.08,0.35,1.07,0.28,0.20,0.89,
0.858,0.08,0.35,1.07,0.29,0.20,0.88,
0.859,0.08,0.35,1.07,0.32,0.20,0.87,
0.86,0.08,0.35,1.07,0.33,0.20,0.86,
0.863,0.56,0.57,1.08,0.33,0.20,0.86,
0.863,0.56,0.57,1.08,0.34,0.20,0.85,
0.864,0.56,0.57,1.08,0.35,0.20,0.83,
0.866,0.56,0.57,1.08,0.37,0.20,0.82,
0.883,0.56,0.57,1.08,0.38,0.20,0.79,
0.885,0.56,0.57,1.08,0.39,0.19,0.79,
0.885,0.69,0.57,0.88,0.39,0.19,0.79,
0.886,0.69,0.57,0.88,0.39,0.19,0.77,
0.887,0.69,0.57,0.88,0.40,0.18,0.76,
0.887,0.69,0.57,0.88,0.40,0.18,0.74,
0.888,0.69,0.57,0.88,0.39,0.17,0.73,
0.888,0.69,0.57,0.88,0.39,0.17,0.72,
0.888,0.70,0.60,0.41,0.39,0.17,0.72,
0.889,0.70,0.60,0.41,0.38,0.18,0.72,
0.889,0.70,0.60,0.41,0.37,0.18,0.71,
0.89,0.70,0.60,0.41,0.35,0.19,0.71,
0.928,0.70,0.60,0.41,0.32,0.21,0.71,
0.929,0.70,0.60,0.41,0.31,0.22,0.71,
0.929,0.28,0.52,-0.23,0.31,0.22,0.71,
0.929,0.28,0.52,-0.23,0.28,0.24,0.71,
0.93,0.28,0.52,-0.23,0.25,0.25,0.71,
0.93,0.28,0.52,-0.23,0.21,0.26,0.71,
0.93,0.28,0.52,-0.23,0.15,0.27,0.71,
0.931,0.28,0.52,-0.23,0.13,0.28,0.71,
0.931,-0.16,0.51,-0.84,0.13,0.28,0.71,
0.931,-0.16,0.51,-0.84,0.09,0.29,0.71,
0.931,-0.16,0.51,-0.84,0.04,0.29,0.71,
0.932,-0.16,0.51,-0.84,-0.02,0.29,0.71,
0.932,-0.16,0.51,-0.84,-0.10,0.30,0.72,
0.932,-0.16,0.51,-0.84,-0.13,0.29,0.72,
0.933,-0.43,0.46,-1.20,-0.13,0.29,0.72,
0.933,-0.43,0.46,-1.20,-0.18,0.29,0.72,
0.965,-0.43,0.46,-1.20,-0.24,0.28,0.72,
0.966,-0.43,0.46,-1.20,-0.29,0.27,0.72,
0.967,-0.43,0.46,-1.20,-0.38,0.24,0.72,
0.967,-0.43,0.46,-1.20,-0.41,0.22,0.72,
0.968,-0.51,0.59,-1.04,-0.41,0.22,0.72,
0.968,-0.51,0.59,-1.04,-0.46,0.19,0.71,
0.969,-0.51,0.59,-1.04,-0.51,0.15,0.71,
0.97,-0.51,0.59,-1.04,-0.55,0.11,0.70,
0.971,-0.51,0.59,-1.04,-0.61,0.05,0.69,
0.972,-0.51,0.59,-1.04,-0.63,0.03,0.69,
0.973,-0.30,0.57,-0.11,-0.63,0.03,0.69,
0.974,-0.30,0.57,-0.11,-0.67,-0.01,0.68,
0.975,-0.30,0.57,-0.11,-0.70,-0.06,0.67,
0.976,-0.30,0.57,-0.11,-0.72,-0.10,0.66,
0.976,-0.30,0.57,-0.11,-0.75,-0.16,0.64,
0.977,-0.30,0.57,-0.11,-0.75,-0.18,0.64,
0.977,-0.09,0.60,1.43,-0.75,-0.18,0.64,
0.98,-0.09,0.60,1.43,-0.76,-0.22,0.63,
0.981,-0.09,0.60,1.43,-0.76,-0.26,0.61,
0.981,-0.09,0.60,1.43,-0.76,-0.29,0.60,
0.981,-0.09,0.60,1.43,-0.75,-0.31,0.58,
0.982,-0.09,0.60,1.43,-0.74,-0.32,0.57,
0.982,0.05,0.57,3.12,-0.74,-0.32,0.57,
0.982,0.05,0.57,3.12,-0.73,-0.33,0.56,
0.983,0.05,0.57,3.12,-0.71,-0.33,0.54,
0.983,0.05,0.57,3.12,-0.69,-0.33,0.52,
0.984,0.05,0.57,3.12,-0.65,-0.31,0.50,
0.984,0.05,0.57,3.12,-0.64,-0.30,0.49,
0.984,0.02,0.43,4.24,-0.64,-0.30,0.49,
0.985,0.02,0.43,4.24,-0.62,-0.29,0.48,
0.985,0.02,0.43,4.24,-0.60,-0.26,0.47,
0.985,0.02,0.43,4.24,-0.58,-0.24,0.46,
0.986,0.02,0.43,4.24,-0.55,-0.21,0.44,
0.986,0.02,0.43,4.24,-0.54,-0.19,0.44,
0.986,-0.29,0.19,4.55,-0.54,-0.19,0.44,
0.987,-0.29,0.19,4.55,-0.52,-0.16,0.44,
0.987,-0.29,0.19,4.55,-0.50,-0.13,0.44,
0.987,-0.29,0.19,4.55,-0.48,-0.10,0.44,
0.988,-0.29,0.19,4.55,-0.46,-0.05,0.45,
0.988,-0.29,0.19,4.55,-0.45,-0.04,0.45,
0.989,-0.72,-0.03,4.35,-0.45,-0.04,0.45,
0.989,-0.72,-0.03,4.35,-0.44,0.00,0.46,
0.989,-0.72,-0.03,4.35,-0.42,0.04,0.47,
0.99,-0.72,-0.03,4.35,-0.41,0.07,0.48,
0.99,-0.72,-0.03,4.35,-0.39,0.12,0.50,
0.99,-0.72,-0.03,4.35,-0.39,0.14,0.50,
1.002,-0.98,-0.19,3.84,-0.39,0.14,0.50,
1.003,-0.98,-0.19,3.84,-0.38,0.17,0.51,
1.003,-0.98,-0.19,3.84,-0.36,0.20,0.53,
1.004,-0.98,-0.19,3.84,-0.36,0.23,0.54,
1.004,-0.98,-0.19,3.84,-0.33,0.27,0.56,
1.004,-0.98,-0.19,3.84,-0.33,0.28,0.56,
1.005,-1.10,-0.26,3.36,-0.33,0.28,0.56,
1.005,-1.10,-0.26,3.36,-0.31,0.30,0.58,
1.005,-1.10,-0.26,3.36,-0.30,0.33,0.59,
1.007,-1.10,-0.26,3.36,-0.28,0.35,0.59,
1.01,-1.10,-0.26,3.36,-0.26,0.38,0.61,
1.01,-1.10,-0.26,3.36,-0.25,0.39,0.61,
1.013,-1.22,-0.28,2.82,-0.25,0.39,0.61,
1.014,-1.22,-0.28,2.82,-0.23,0.41,0.62,
1.017,-1.22,-0.28,2.82,-0.22,0.43,0.63,
1.017,-1.22,-0.28,2.82,-0.20,0.45,0.64,
1.022,-1.22,-0.28,2.82,-0.18,0.48,0.67,
1.023,-1.22,-0.28,2.82,-0.17,0.49,0.68,
1.024,-1.52,-0.36,2.16,-0.17,0.49,0.68,
1.024,-1.52,-0.36,2.16,-0.16,0.51,0.69,
1.025,-1.52,-0.36,2.16,-0.15,0.52,0.71,
1.027,-1.52,-0.36,2.16,-0.13,0.54,0.73,
1.029,-1.52,-0.36,2.16,-0.12,0.57,0.76,
1.03,-1.52,-0.36,2.16,-0.11,0.57,0.77,
1.033,-1.76,-0.42,1.47,-0.11,0.57,0.77,
1.033,-1.76,-0.42,1.47,-0.10,0.58,0.79,
1.042,-1.76,-0.42,1.47,-0.09,0.59,0.81,
1.043,-1.76,-0.42,1.47,-0.08,0.59,0.82,
1.043,-1.76,-0.42,1.47,-0.07,0.59,0.84,
1.043,-1.76,-0.42,1.47,-0.07,0.59,0.85,
1.044,-1.92,-0.38,0.81,-0.07,0.59,0.85,
1.044,-1.92,-0.38,0.81,-0.06,0.59,0.86,
1.048,-1.92,-0.38,0.81,-0.05,0.58,0.88,
1.048,-1.92,-0.38,0.81,-0.03,0.56,0.89,
1.049,-1.92,-0.38,0.81,-0.03,0.53,0.90,
1.052,-1.92,-0.38,0.81,-0.02,0.52,0.90,
1.081,-1.82,-0.21,0.30,-0.02,0.52,0.90,
1.081,-1.82,-0.21,0.30,-0.01,0.50,0.91,
1.082,-1.82,-0.21,0.30,-0.00,0.48,0.91,
1.082,-1.82,-0.21,0.30,0.01,0.46,0.91,
1.082,-1.82,-0.21,0.30,0.02,0.44,0.91,
1.082,-1.82,-0.21,0.30,0.02,0.43,0.91,
1.082,-1.67,-0.05,-0.18,0.02,0.43,0.91,
1.083,-1.67,-0.05,-0.18,0.02,0.41,0.91,
1.083,-1.67,-0.05,-0.18,0.02,0.40,0.91,
1.083,-1.67,-0.05,-0.18,0.02,0.39,0.91,
1.083,-1.67,-0.05,-0.18,0.02,0.36,0.91,
1.083,-1.67,-0.05,-0.18,0.00,0.34,0.90,
1.084,-1.54,0.01,-0.53,0.00,0.34,0.90,
1.084,-1.54,0.01,-0.53,-0.01,0.33,0.90,
1.084,-1.54,0.01,-0.53,0.01,0.30,0.90,
1.084,-1.54,0.01,-0.53,0.01,0.29,0.90,
1.084,-1.54,0.01,-0.53,-0.00,0.26,0.89,
1.084,-1.54,0.01,-0.53,-0.01,0.25,0.88,
1.104,-1.51,0.07,-0.64,-0.01,0.25,0.88,
1.105,-1.51,0.07,-0.64,-0.03,0.24,0.88,
1.105,-1.51,0.07,-0.64,-0.01,0.23,0.88,
1.105,-1.51,0.07,-0.64,-0.01,0.22,0.88,
1.105,-1.51,0.07,-0.64,-0.01,0.21,0.88,
1.105,-1.51,0.07,-0.64,0.01,0.21,0.88,
1.106,-1.50,0.05,-0.49,0.01,0.21,0.88,
1.106,-1.50,0.05,-0.49,-0.01,0.21,0.87,
1.106,-1.50,0.05,-0.49,-0.02,0.20,0.87,
1.106,-1.50,0.05,-0.49,-0.03,0.19,0.88,
1.106,-1.50,0.05,-0.49,-0.03,0.19,0.88,
1.107,-1.50,0.05,-0.49,-0.03,0.19,0.88,
1.107,-1.60,-0.00,-0.13,-0.03,0.19,0.88,
1.107,-1.60,-0.00,-0.13,-0.02,0.18,0.89,
1.107,-1.60,-0.00,-0.13,-0.02,0.18,0.89,
1.107,-1.60,-0.00,-0.13,-0.02,0.18,0.90,
1.114,-1.60,-0.00,-0.13,-0.01,0.17,0.91,
1.115,-1.60,-0.00,-0.13,-0.00,0.18,0.91,
1.115,-1.65,-0.10,0.27,-0.00,0.18,0.91,
1.115,-1.65,-0.10,0.27,0.00,0.17,0.92,
1.115,-1.65,-0.10,0.27,0.01,0.17,0.92,
1.119,-1.65,-0.10,0.27,0.02,0.17,0.92,
1.132,-1.65,-0.10,0.27,0.03,0.16,0.92,
1.133,-1.65,-0.10,0.27,0.04,0.16,0.92,
1.133,-1.48,0.04,0.53,0.04,0.16,0.92,
1.133,-1.48,0.04,0.53,0.05,0.16,0.92,
1.133,-1.48,0.04,0.53,0.06,0.15,0.91,
1.133,-1.48,0.04,0.53,0.08,0.14,0.90,
1.134,-1.48,0.04,0.53,0.10,0.12,0.88,
1.134,-1.48,0.04,0.53,0.12,0.10,0.87,
1.135,-1.13,0.12,0.72,0.12,0.10,0.87,
1.136,-1.13,0.12,0.72,0.13,0.09,0.86,
1.136,-1.13,0.12,0.72,0.15,0.06,0.85,
1.136,-1.13,0.12,0.72,0.17,0.04,0.83,
1.14,-1.13,0.12,0.72,0.20,-0.01,0.79,
1.14,-1.13,0.12,0.72,0.21,-0.02,0.78,
1.146,-0.71,0.22,0.82,0.21,-0.02,0.78,
1.146,-0.71,0.22,0.82,0.23,-0.05,0.76,
1.146,-0.71,0.22,0.82,0.26,-0.08,0.73,
1.146,-0.71,0.22,0.82,0.28,-0.10,0.71,
1.149,-0.71,0.22,0.82,0.32,-0.13,0.67,
1.15,-0.71,0.22,0.82,0.33,-0.14,0.66,
1.156,-0.48,0.38,0.82,0.33,-0.14,0.66,
1.156,-0.48,0.38,0.82,0.35,-0.15,0.64,
1.157,-0.48,0.38,0.82,0.38,-0.16,0.61,
1.157,-0.48,0.38,0.82,0.40,-0.17,0.59,
1.159,-0.48,0.38,0.82,0.42,-0.17,0.56,
1.163,-0.48,0.38,0.82,0.44,-0.18,0.52,
1.163,-0.48,0.38,0.82,0.44,-0.18,0.52,
1.163,-0.62,0.26,0.38,0.44,-0.18,0.52,
1.165,-0.62,0.26,0.38,0.45,-0.18,0.49,
1.166,-0.62,0.26,0.38,0.45,-0.18,0.48,
1.19,-0.62,0.26,0.38,0.46,-0.16,0.45,
1.19,-0.62,0.26,0.38,0.46,-0.15,0.44,
1.191,-0.90,0.04,-0.12,0.46,-0.15,0.44,
1.191,-0.90,0.04,-0.12,0.45,-0.14,0.43,
1.191,-0.90,0.04,-0.12,0.45,-0.13,0.41,
1.191,-0.90,0.04,-0.12,0.44,-0.12,0.40,
1.191,-0.90,0.04,-0.12,0.43,-0.10,0.39,
1.191,-0.90,0.04,-0.12,0.42,-0.09,0.38,
1.192,-1.56,-0.20,-0.53,0.42,-0.09,0.38,
1.192,-1.56,-0.20,-0.53,0.41,-0.08,0.38,
1.192,-1.56,-0.20,-0.53,0.40,-0.06,0.38,
1.192,-1.56,-0.20,-0.53,0.39,-0.05,0.39,
1.192,-1.56,-0.20,-0.53,0.38,-0.03,0.40,
1.193,-1.56,-0.20,-0.53,0.37,-0.02,0.40,
1.193,-2.11,-0.35,-0.75,0.37,-0.02,0.40,
1.193,-2.11,-0.35,-0.75,0.36,-0.02,0.41,
1.194,-2.11,-0.35,-0.75,0.35,-0.01,0.42,
1.197,-2.11,-0.35,-0.75,0.34,-0.01,0.43,
1.2,-2.11,-0.35,-0.75,0.33,-0.02,0.45,
1.203,-2.11,-0.35,-0.75,0.32,-0.02,0.46,
1.204,-2.29,-0.41,-0.87,0.32,-0.02,0.46,
1.205,-2.29,-0.41,-0.87,0.31,-0.03,0.47,
1.206,-2.29,-0.41,-0.87,0.30,-0.04,0.48,
1.206,-2.29,-0.41,-0.87,0.30,-0.05,0.49,
1.209,-2.29,-0.41,-0.87,0.29,-0.09,0.51,
1.21,-2.29,-0.41,-0.87,0.30,-0.16,0.51,
1.213,-1.91,-0.29,-1.02,0.30,-0.16,0.51,
1.213,-1.91,-0.29,-1.02,0.30,-0.21,0.52,
1.214,-1.91,-0.29,-1.02,0.29,-0.27,0.53,
1.217,-1.91,-0.29,-1.02,0.28,-0.27,0.53,
1.22,-1.91,-0.29,-1.02,0.26,-0.25,0.53,
1.22,-1.91,-0.29,-1.02,0.27,-0.24,0.53,
1.223,-2.16,-0.22,-0.89,0.27,-0.24,0.53,
1.224,-2.16,-0.22,-0.89,0.27,-0.23,0.53,
1.225,-2.16,-0.22,-0.89,0.27,-0.22,0.53,
1.227,-2.16,-0.22,-0.89,0.26,-0.21,0.53,
1.229,-2.16,-0.22,-0.89,0.26,-0.19,0.52,
1.231,-2.16,-0.22,-0.89,0.26,-0.20,0.52,
1.233,-1.92,-0.25,-0.89,0.26,-0.20,0.52,
1.234,-1.92,-0.25,-0.89,0.26,-0.20,0.52,
1.235,-1.92,-0.25,-0.89,0.26,-0.20,0.53,
1.237,-1.92,-0.25,-0.89,0.26,-0.21,0.53,
1.241,-1.92,-0.25,-0.89,0.26,-0.22,0.53,
1.241,-1.92,-0.25,-0.89,0.27,-0.24,0.53,
1.243,-1.63,-0.19,-0.93,0.27,-0.24,0.53,
1.243,-1.63,-0.19,-0.93,0.27,-0.24,0.54,
1.244,-1.63,-0.19,-0.93,0.27,-0.24,0.53,
1.247,-1.63,-0.19,-0.93,0.26,-0.25,0.53,
1.278,-1.63,-0.19,-0.93,0.27,-0.26,0.53,
1.279,-1.63,-0.19,-0.93,0.27,-0.27,0.52,
1.279,-1.61,-0.13,-0.73,0.27,-0.27,0.52,
1.279,-1.61,-0.13,-0.73,0.27,-0.28,0.51,
1.28,-1.61,-0.13,-0.73,0.27,-0.29,0.51,
1.28,-1.61,-0.13,-0.73,0.27,-0.29,0.51,
1.281,-1.61,-0.13,-0.73,0.27,-0.29,0.50,
1.281,-1.61,-0.13,-0.73,0.28,-0.29,0.49,
1.282,-1.52,-0.13,-0.68,0.28,-0.29,0.49,
1.282,-1.52,-0.13,-0.68,0.28,-0.29,0.49,
1.282,-1.52,-0.13,-0.68,0.28,-0.29,0.49,
1.283,-1.52,-0.13,-0.68,0.28,-0.29,0.48,
1.283,-1.52,-0.13,-0.68,0.28,-0.29,0.48,
1.284,-1.52,-0.13,-0.68,0.28,-0.28,0.48,
1.284,-1.45,-0.19,-0.72,0.28,-0.28,0.48,
1.284,-1.45,-0.19,-0.72,0.28,-0.28,0.48,
1.285,-1.45,-0.19,-0.72,0.28,-0.27,0.49,
1.285,-1.45,-0.19,-0.72,0.27,-0.26,0.49,
1.286,-1.45,-0.19,-0.72,0.26,-0.24,0.49,
1.286,-1.45,-0.19,-0.72,0.26,-0.22,0.50,
1.287,-1.56,-0.29,-0.75,0.26,-0.22,0.50,
1.287,-1.56,-0.29,-0.75,0.25,-0.19,0.51,
1.287,-1.56,-0.29,-0.75,0.25,-0.17,0.52,
1.288,-1.56,-0.29,-0.75,0.24,-0.15,0.53,
1.3,-1.56,-0.29,-0.75,0.22,-0.13,0.53,
1.3,-1.56,-0.29,-0.75,0.21,-0.11,0.54,
1.301,-1.53,-0.32,-0.83,0.21,-0.11,0.54,
1.301,-1.53,-0.32,-0.83,0.20,-0.09,0.56,
1.301,-1.53,-0.32,-0.83,0.19,-0.07,0.57,
1.301,-1.53,-0.32,-0.83,0.18,-0.05,0.58,
1.302,-1.53,-0.32,-0.83,0.17,-0.03,0.59,
1.302,-1.53,-0.32,-0.83,0.15,-0.01,0.60,
1.305,-1.44,-0.31,-0.83,0.15,-0.01,0.60,
1.306,-1.44,-0.31,-0.83,0.14,0.01,0.61,
1.306,-1.44,-0.31,-0.83,0.13,0.02,0.61,
1.307,-1.44,-0.31,-0.83,0.12,0.03,0.62,
1.311,-1.44,-0.31,-0.83,0.10,0.04,0.63,
1.311,-1.44,-0.31,-0.83,0.09,0.05,0.64,
1.315,-1.18,-0.24,-0.72,0.09,0.05,0.64,
1.315,-1.18,-0.24,-0.72,0.09,0.05,0.64,
1.315,-1.18,-0.24,-0.72,0.08,0.06,0.65,
1.316,-1.18,-0.24,-0.72,0.07,0.07,0.65,
1.32,-1.18,-0.24,-0.72,0.07,0.07,0.66,
1.321,-1.18,-0.24,-0.72,0.07,0.07,0.66,
1.328,-0.93,-0.15,-0.45,0.07,0.07,0.66,
1.329,-0.93,-0.15,-0.45,0.07,0.07,0.66,
1.329,-0.93,-0.15,-0.45,0.06,0.07,0.66,
1.329,-0.93,-0.15,-0.45,0.06,0.06,0.66,
1.33,-0.93,-0.15,-0.45,0.06,0.05,0.66,
1.331,-0.93,-0.15,-0.45,0.07,0.04,0.66,
1.333,-0.60,-0.01,-0.23,0.07,0.04,0.66,
1.333,-0.60,-0.01,-0.23,0.07,0.02,0.65,
1.341,-0.60,-0.01,-0.23,0.08,-0.01,0.64,
1.342,-0.60,-0.01,-0.23,0.09,-0.04,0.63,
1.342,-0.60,-0.01,-0.23,0.09,-0.07,0.62,
1.342,-0.60,-0.01,-0.23,0.10,-0.11,0.60,
1.343,-0.30,0.17,0.03,0.10,-0.11,0.60,
1.343,-0.30,0.17,0.03,0.10,-0.15,0.58,
1.345,-0.30,0.17,0.03,0.11,-0.20,0.56,
1.347,-0.30,0.17,0.03,0.12,-0.25,0.54,
1.35,-0.30,0.17,0.03,0.13,-0.30,0.52,
1.373,-0.30,0.17,0.03,0.14,-0.35,0.50,
1.373,0.06,0.33,0.27,0.14,-0.35,0.50,
1.374,0.06,0.33,0.27,0.14,-0.39,0.48,
1.374,0.06,0.33,0.27,0.15,-0.44,0.45,
1.374,0.06,0.33,0.27,0.16,-0.48,0.43,
1.374,0.06,0.33,0.27,0.17,-0.52,0.41,
1.374,0.06,0.33,0.27,0.18,-0.56,0.38,
1.374,0.40,0.42,0.48,0.18,-0.56,0.38,
1.375,0.40,0.42,0.48,0.19,-0.59,0.36,
1.375,0.40,0.42,0.48,0.20,-0.62,0.34,
1.375,0.40,0.42,0.48,0.21,-0.65,0.31,
1.375,0.40,0.42,0.48,0.23,-0.67,0.29,
1.375,0.40,0.42,0.48,0.23,-0.68,0.27,
1.375,0.66,0.42,0.70,0.23,-0.68,0.27,
1.376,0.66,0.42,0.70,0.24,-0.69,0.25,
1.376,0.66,0.42,0.70,0.25,-0.69,0.22,
1.376,0.66,0.42,0.70,0.26,-0.69,0.20,
1.379,0.66,0.42,0.70,0.26,-0.68,0.18,
1.38,0.66,0.42,0.70,0.27,-0.66,0.16,
1.384,0.71,0.27,0.82,0.27,-0.66,0.16,
1.385,0.71,0.27,0.82,0.27,-0.64,0.15,
1.386,0.71,0.27,0.82,0.27,-0.62,0.13,
1.387,0.71,0.27,0.82,0.27,-0.58,0.12,
1.391,0.71,0.27,0.82,0.27,-0.55,0.11,
1.391,0.71,0.27,0.82,0.27,-0.50,0.09,
1.395,0.63,0.06,0.90,0.27,-0.50,0.09,
1.395,0.63,0.06,0.90,0.27,-0.45,0.09,
1.395,0.63,0.06,0.90,0.26,-0.40,0.08,
1.399,0.63,0.06,0.90,0.26,-0.35,0.08,
1.4,0.63,0.06,0.90,0.25,-0.29,0.08,
1.405,0.63,0.06,0.90,0.25,-0.24,0.08,
1.406,0.42,-0.12,1.00,0.25,-0.24,0.08,
1.406,0.42,-0.12,1.00,0.24,-0.19,0.08,
1.406,0.42,-0.12,1.00,0.24,-0.14,0.08,
1.407,0.42,-0.12,1.00,0.23,-0.09,0.08,
1.41,0.42,-0.12,1.00,0.23,-0.01,0.08,
1.411,0.42,-0.12,1.00,0.24,0.01,0.08,
1.413,0.28,-0.17,1.01,0.24,0.01,0.08,
1.413,0.28,-0.17,1.01,0.22,0.06,0.08,
1.44,0.28,-0.17,1.01,0.19,0.12,0.08,
1.44,0.28,-0.17,1.01,0.19,0.17,0.08,
1.44,0.28,-0.17,1.01,0.17,0.22,0.07,
1.441,0.28,-0.17,1.01,0.14,0.26,0.07,
1.441,0.29,-0.28,0.91,0.14,0.26,0.07,
1.441,0.29,-0.28,0.91,0.15,0.31,0.07,
1.441,0.29,-0.28,0.91,0.15,0.35,0.07,
1.442,0.29,-0.28,0.91,0.14,0.39,0.07,
1.442,0.29,-0.28,0.91,0.14,0.42,0.07,
1.442,0.29,-0.28,0.91,0.16,0.45,0.07,
1.443,0.27,-0.34,0.87,0.16,0.45,0.07,
1.443,0.27,-0.34,0.87,0.12,0.48,0.07,
1.443,0.27,-0.34,0.87,0.10,0.51,0.06,
1.443,0.27,-0.34,0.87,0.10,0.53,0.06,
1.444,0.27,-0.34,0.87,0.10,0.55,0.06,
1.444,0.27,-0.34,0.87,0.11,0.58,0.06,
1.444,0.26,-0.30,0.78,0.11,0.58,0.06,
1.445,0.26,-0.30,0.78,0.08,0.59,0.06,
1.445,0.26,-0.30,0.78,0.08,0.59,0.06,
1.454,0.26,-0.30,0.78,0.08,0.60,0.06,
1.454,0.26,-0.30,0.78,0.08,0.61,0.06,
1.455,0.26,-0.30,0.78,0.07,0.60,0.06,
1.455,0.34,-0.37,0.77,0.07,0.60,0.06,
1.455,0.34,-0.37,0.77,0.09,0.61,0.06,
1.455,0.34,-0.37,0.77,0.09,0.61,0.06,
1.459,0.34,-0.37,0.77,0.10,0.61,0.06,
1.459,0.34,-0.37,0.77,0.11,0.61,0.06,
1.463,0.34,-0.37,0.77,0.13,0.62,0.07,
1.463,0.38,-0.44,0.72,0.13,0.62,0.07,
1.463,0.38,-0.44,0.72,0.12,0.60,0.07,
1.466,0.38,-0.44,0.72,0.12,0.60,0.07,
1.475,0.38,-0.44,0.72,0.14,0.60,0.08,
1.476,0.38,-0.44,0.72,0.15,0.59,0.08,
1.476,0.38,-0.44,0.72,0.16,0.59,0.08,
1.476,0.38,-0.53,0.59,0.16,0.59,0.08,
1.476,0.38,-0.53,0.59,0.18,0.59,0.09,
1.476,0.38,-0.53,0.59,0.19,0.58,0.09,
1.482,0.38,-0.53,0.59,0.20,0.58,0.10,
1.509,0.38,-0.53,0.59,0.21,0.57,0.10,
1.51,0.38,-0.53,0.59,0.22,0.57,0.10,
1.51,0.41,-0.63,0.28,0.22,0.57,0.10,
1.51,0.41,-0.63,0.28,0.23,0.56,0.11,
1.51,0.41,-0.63,0.28,0.24,0.56,0.12,
1.51,0.41,-0.63,0.28,0.25,0.55,0.12,
1.51,0.41,-0.63,0.28,0.25,0.54,0.13,
1.511,0.41,-0.63,0.28,0.26,0.53,0.14,
1.512,0.40,-0.68,-0.09,0.26,0.53,0.14,
1.512,0.40,-0.68,-0.09,0.26,0.52,0.14,
1.512,0.40,-0.68,-0.09,0.26,0.51,0.15,
1.513,0.40,-0.68,-0.09,0.27,0.50,0.16,
1.513,0.40,-0.68,-0.09,0.28,0.49,0.17,
1.514,0.40,-0.68,-0.09,0.28,0.49,0.17,
1.514,0.35,-0.74,-0.30,0.28,0.49,0.17,
1.514,0.35,-0.74,-0.30,0.28,0.48,0.18,
1.515,0.35,-0.74,-0.30,0.28,0.48,0.19,
1.515,0.35,-0.74,-0.30,0.28,0.49,0.21,
1.516,0.35,-0.74,-0.30,0.29,0.49,0.22,
1.516,0.35,-0.74,-0.30,0.29,0.50,0.23,
1.516,0.29,-0.80,-0.53,0.29,0.50,0.23,
1.517,0.29,-0.80,-0.53,0.29,0.50,0.24,
1.517,0.29,-0.80,-0.53,0.29,0.51,0.25,
1.518,0.29,-0.80,-0.53,0.28,0.52,0.26,
1.526,0.29,-0.80,-0.53,0.27,0.52,0.28,
1.526,0.29,-0.80,-0.53,0.27,0.53,0.29,
1.526,0.36,-0.81,-0.86,0.27,0.53,0.29,
1.527,0.36,-0.81,-0.86,0.26,0.53,0.30,
1.527,0.36,-0.81,-0.86,0.24,0.54,0.31,
1.527,0.36,-0.81,-0.86,0.23,0.54,0.32,
1.531,0.36,-0.81,-0.86,0.21,0.55,0.33,
1.532,0.36,-0.81,-0.86,0.20,0.55,0.34,
1.551,0.44,-0.67,-1.20,0.20,0.55,0.34,
1.556,0.44,-0.67,-1.20,0.19,0.55,0.34,
1.557,0.44,-0.67,-1.20,0.18,0.55,0.34,
1.558,0.44,-0.67,-1.20,0.15,0.54,0.35,
1.559,0.44,-0.67,-1.20,0.12,0.53,0.35,
1.559,0.44,-0.67,-1.20,0.11,0.53,0.35,
1.56,0.66,-0.47,-1.45,0.11,0.53,0.35,
1.561,0.66,-0.47,-1.45,0.09,0.53,0.35,
1.561,0.66,-0.47,-1.45,0.07,0.52,0.34,
1.561,0.66,-0.47,-1.45,0.05,0.51,0.34,
1.562,0.66,-0.47,-1.45,0.01,0.49,0.34,
1.562,0.66,-0.47,-1.45,-0.00,0.49,0.33,
1.563,0.79,-0.31,-1.50,-0.00,0.49,0.33,
1.563,0.79,-0.31,-1.50,-0.03,0.48,0.33,
1.564,0.79,-0.31,-1.50,-0.05,0.47,0.33,
1.564,0.79,-0.31,-1.50,-0.07,0.46,0.32,
1.565,0.79,-0.31,-1.50,-0.10,0.44,0.30,
1.565,0.79,-0.31,-1.50,-0.11,0.43,0.30,
1.565,0.88,-0.10,-1.36,-0.11,0.43,0.30,
1.566,0.88,-0.10,-1.36,-0.13,0.41,0.29,
1.566,0.88,-0.10,-1.36,-0.15,0.39,0.28,
1.567,0.88,-0.10,-1.36,-0.17,0.37,0.26,
1.579,0.88,-0.10,-1.36,-0.20,0.33,0.24,
1.579,0.88,-0.10,-1.36,-0.21,0.32,0.23,
1.58,1.02,0.06,-1.14,-0.21,0.32,0.23,
1.58,1.02,0.06,-1.14,-0.23,0.29,0.22,
1.58,1.02,0.06,-1.14,-0.26,0.26,0.20,
1.581,1.02,0.06,-1.14,-0.29,0.23,0.18,
1.581,1.02,0.06,-1.14,-0.32,0.18,0.16,
1.581,1.02,0.06,-1.14,-0.34,0.16,0.15,
1.604,1.25,0.19,-0.97,-0.34,0.16,0.15,
1.605,1.25,0.19,-0.97,-0.37,0.13,0.13,
1.605,1.25,0.19,-0.97,-0.40,0.09,0.11,
1.605,1.25,0.19,-0.97,-0.43,0.05,0.09,
1.605,1.25,0.19,-0.97,-0.47,-0.00,0.06,
1.606,1.25,0.19,-0.97,-0.49,-0.02,0.05,
1.606,1.39,0.24,-0.51,-0.49,-0.02,0.05,
1.606,1.39,0.24,-0.51,-0.51,-0.05,0.04,
1.607,1.39,0.24,-0.51,-0.54,-0.09,0.02,
1.607,1.39,0.24,-0.51,-0.56,-0.12,-0.00,
1.607,1.39,0.24,-0.51,-0.59,-0.16,-0.04,
1.607,1.39,0.24,-0.51,-0.59,-0.17,-0.05,
1.608,1.54,0.42,0.32,-0.59,-0.17,-0.05,
1.608,1.54,0.42,0.32,-0.60,-0.20,-0.07,
1.608,1.54,0.42,0.32,-0.60,-0.22,-0.09,
1.608,1.54,0.42,0.32,-0.61,-0.24,-0.11,
1.618,1.54,0.42,0.32,-0.62,-0.27,-0.15,
1.619,1.54,0.42,0.32,-0.61,-0.28,-0.16,
1.619,1.51,0.45,1.35,-0.61,-0.28,-0.16,
1.619,1.51,0.45,1.35,-0.61,-0.29,-0.18,
1.62,1.51,0.45,1.35,-0.60,-0.30,-0.20,
1.62,1.51,0.45,1.35,-0.59,-0.32,-0.22,
1.626,1.51,0.45,1.35,-0.58,-0.33,-0.25,
1.627,1.51,0.45,1.35,-0.57,-0.34,-0.26,
1.627,1.36,0.29,2.12,-0.57,-0.34,-0.26,
1.627,1.36,0.29,2.12,-0.56,-0.34,-0.27,
1.627,1.36,0.29,2.12,-0.54,-0.35,-0.28,
1.628,1.36,0.29,2.12,-0.53,-0.34,-0.30,
1.632,1.36,0.29,2.12,-0.50,-0.33,-0.30,
1.637,1.36,0.29,2.12,-0.49,-0.32,-0.31,
1.637,1.09,0.11,2.72,-0.49,-0.32,-0.31,
1.638,1.09,0.11,2.72,-0.47,-0.31,-0.31,
1.638,1.09,0.11,2.72,-0.45,-0.29,-0.32,
1.641,1.09,0.11,2.72,-0.43,-0.27,-0.32,
1.641,1.09,0.11,2.72,-0.39,-0.23,-0.32,
1.641,1.09,0.11,2.72,-0.37,-0.22,-0.32,
1.643,0.81,-0.10,3.00,-0.37,-0.22,-0.32,
1.644,0.81,-0.10,3.00,-0.35,-0.20,-0.32,
1.645,0.81,-0.10,3.00,-0.33,-0.17,-0.31,
1.648,0.81,-0.10,3.00,-0.30,-0.14,-0.31,
1.65,0.81,-0.10,3.00,-0.25,-0.10,-0.30,
1.654,0.81,-0.10,3.00,-0.24,-0.09,-0.29,
1.654,0.52,-0.27,3.01,-0.24,-0.09,-0.29,
1.654,0.52,-0.27,3.01,-0.22,-0.06,-0.28,
1.657,0.52,-0.27,3.01,-0.19,-0.04,-0.27,
1.657,0.52,-0.27,3.01,-0.16,-0.03,-0.26,
1.659,0.52,-0.27,3.01,-0.11,0.01,-0.25,
1.661,0.52,-0.27,3.01,-0.10,0.02,-0.24,
1.663,0.35,-0.28,2.83,-0.10,0.02,-0.24,
1.667,0.35,-0.28,2.83,-0.04,0.05,-0.22,
1.667,0.35,-0.28,2.83,-0.01,0.07,-0.21,
1.667,0.35,-0.28,2.83,-0.01,0.07,-0.21,
1.67,0.35,-0.28,2.83,0.03,0.09,-0.20,
1.671,0.35,-0.28,2.83,0.05,0.09,-0.20,
1.674,0.40,-0.25,2.45,0.05,0.09,-0.20,
1.675,0.40,-0.25,2.45,0.08,0.10,-0.19,
1.675,0.40,-0.25,2.45,0.10,0.11,-0.18,
1.676,0.40,-0.25,2.45,0.13,0.11,-0.18,
1.679,0.40,-0.25,2.45,0.17,0.11,-0.17,
1.68,0.40,-0.25,2.45,0.18,0.11,-0.16,
1.684,0.45,-0.26,1.88,0.18,0.11,-0.16,
1.684,0.45,-0.26,1.88,0.21,0.10,-0.16,
1.686,0.45,-0.26,1.88,0.23,0.09,-0.15,
1.686,0.45,-0.26,1.88,0.24,0.07,-0.15,
1.689,0.45,-0.26,1.88,0.26,0.03,-0.14,
1.691,0.45,-0.26,1.88,0.26,0.02,-0.14,
1.693,0.54,-0.18,1.13,0.26,0.02,-0.14,
1.693,0.54,-0.18,1.13,0.28,-0.02,-0.13,
1.694,0.54,-0.18,1.13,0.28,-0.06,-0.13,
1.7,0.54,-0.18,1.13,0.29,-0.10,-0.13,
1.702,0.54,-0.18,1.13,0.29,-0.17,-0.13,
1.702,0.54,-0.18,1.13,0.29,-0.20,-0.12,
1.704,0.63,-0.21,0.53,0.29,-0.20,-0.12,
1.704,0.63,-0.21,0.53,0.29,-0.25,-0.12,
1.705,0.63,-0.21,0.53,0.29,-0.29,-0.12,
1.709,0.63,-0.21,0.53,0.28,-0.34,-0.12,
1.709,0.63,-0.21,0.53,0.28,-0.42,-0.12,
1.711,0.63,-0.21,0.53,0.28,-0.44,-0.12,
1.713,0.71,-0.28,0.27,0.28,-0.44,-0.12,
1.713,0.71,-0.28,0.27,0.27,-0.49,-0.12,
1.714,0.71,-0.28,0.27,0.26,-0.54,-0.12,
1.72,0.71,-0.28,0.27,0.26,-0.59,-0.12,
1.721,0.71,-0.28,0.27,0.25,-0.66,-0.12,
1.721,0.71,-0.28,0.27,0.24,-0.68,-0.12,
1.723,0.85,-0.39,0.27,0.24,-0.68,-0.12,
1.723,0.85,-0.39,0.27,0.23,-0.72,-0.12,
1.726,0.85,-0.39,0.27,0.22,-0.75,-0.11,
1.727,0.85,-0.39,0.27,0.21,-0.79,-0.11,
1.731,0.85,-0.39,0.27,0.20,-0.82,-0.12,
1.739,0.85,-0.39,0.27,0.19,-0.83,-0.12,
1.741,1.01,-0.38,0.45,0.19,-0.83,-0.12,
1.741,1.01,-0.38,0.45,0.19,-0.84,-0.12,
1.741,1.01,-0.38,0.45,0.18,-0.85,-0.12,
1.742,1.01,-0.38,0.45,0.17,-0.85,-0.13,
1.743,1.01,-0.38,0.45,0.15,-0.84,-0.14,
1.743,1.01,-0.38,0.45,0.15,-0.84,-0.14,
1.744,1.37,-0.42,0.73,0.15,-0.84,-0.14,
1.744,1.37,-0.42,0.73,0.15,-0.82,-0.15,
1.744,1.37,-0.42,0.73,0.14,-0.79,-0.16,
1.746,1.37,-0.42,0.73,0.13,-0.76,-0.17,
1.761,1.37,-0.42,0.73,0.11,-0.70,-0.19,
1.762,1.37,-0.42,0.73,0.11,-0.68,-0.20,
1.762,1.60,-0.42,0.88,0.11,-0.68,-0.20,
1.762,1.60,-0.42,0.88,0.11,-0.64,-0.21,
1.762,1.60,-0.42,0.88,0.10,-0.60,-0.23,
1.762,1.60,-0.42,0.88,0.08,-0.55,-0.25,
1.762,1.60,-0.42,0.88,0.07,-0.47,-0.27,
1.763,1.60,-0.42,0.88,0.06,-0.45,-0.28,
1.766,1.77,-0.42,0.67,0.06,-0.45,-0.28,
1.767,1.77,-0.42,0.67,0.04,-0.40,-0.30,
1.767,1.77,-0.42,0.67,0.02,-0.34,-0.32,
1.767,1.77,-0.42,0.67,0.00,-0.29,-0.34,
1.77,1.77,-0.42,0.67,-0.03,-0.21,-0.37,
1.772,1.77,-0.42,0.67,-0.04,-0.18,-0.38,
1.774,1.61,-0.33,0.13,-0.04,-0.18,-0.38,
1.775,1.61,-0.33,0.13,-0.06,-0.13,-0.40,
1.775,1.61,-0.33,0.13,-0.09,-0.07,-0.41,
1.776,1.61,-0.33,0.13,-0.11,-0.02,-0.43,
1.779,1.61,-0.33,0.13,-0.15,0.06,-0.46,
1.78,1.61,-0.33,0.13,-0.16,0.09,-0.46,
1.783,1.32,-0.31,-0.51,-0.16,0.09,-0.46,
1.783,1.32,-0.31,-0.51,-0.18,0.13,-0.48,
1.785,1.32,-0.31,-0.51,-0.21,0.18,-0.49,
1.787,1.32,-0.31,-0.51,-0.23,0.23,-0.50,
1.791,1.32,-0.31,-0.51,-0.26,0.29,-0.51,
1.791,1.32,-0.31,-0.51,-0.27,0.30,-0.51,
1.793,0.76,-0.37,-1.05,-0.27,0.30,-0.51,
1.793,0.76,-0.37,-1.05,-0.29,0.34,-0.52,
1.794,0.76,-0.37,-1.05,-0.31,0.37,-0.52,
1.796,0.76,-0.37,-1.05,-0.32,0.39,-0.52,
1.8,0.76,-0.37,-1.05,-0.34,0.42,-0.52,
1.801,0.76,-0.37,-1.05,-0.35,0.43,-0.52,
1.803,0.15,-0.35,-1.52,-0.35,0.43,-0.52,
1.803,0.15,-0.35,-1.52,-0.36,0.45,-0.52,
1.805,0.15,-0.35,-1.52,-0.37,0.46,-0.52,
1.806,0.15,-0.35,-1.52,-0.38,0.47,-0.52,
1.809,0.15,-0.35,-1.52,-0.39,0.47,-0.51,
1.81,0.15,-0.35,-1.52,-0.39,0.47,-0.51,
1.813,-0.30,-0.32,-1.93,-0.39,0.47,-0.51,
1.813,-0.30,-0.32,-1.93,-0.40,0.47,-0.51,
1.814,-0.30,-0.32,-1.93,-0.41,0.47,-0.50,
1.817,-0.30,-0.32,-1.93,-0.41,0.46,-0.50,
1.82,-0.30,-0.32,-1.93,-0.42,0.44,-0.49,
1.82,-0.30,-0.32,-1.93,-0.42,0.43,-0.49,
1.823,-0.69,-0.33,-2.37,-0.42,0.43,-0.49,
1.823,-0.69,-0.33,-2.37,-0.42,0.41,-0.48,
1.824,-0.69,-0.33,-2.37,-0.42,0.39,-0.47,
1.826,-0.69,-0.33,-2.37,-0.42,0.37,-0.46,
1.829,-0.69,-0.33,-2.37,-0.42,0.34,-0.44,
1.83,-0.69,-0.33,-2.37,-0.42,0.32,-0.44,
1.846,-1.00,-0.32,-2.64,-0.42,0.32,-0.44,
1.846,-1.00,-0.32,-2.64,-0.42,0.30,-0.43,
1.846,-1.00,-0.32,-2.64,-0.42,0.27,-0.41,
1.846,-1.00,-0.32,-2.64,-0.41,0.24,-0.40,
1.846,-1.00,-0.32,-2.64,-0.41,0.20,-0.37,
1.847,-1.00,-0.32,-2.64,-0.41,0.18,-0.37,
1.847,-1.30,-0.33,-2.63,-0.41,0.18,-0.37,
1.847,-1.30,-0.33,-2.63,-0.40,0.16,-0.35,
1.847,-1.30,-0.33,-2.63,-0.39,0.14,-0.33,
1.864,-1.30,-0.33,-2.63,-0.38,0.11,-0.31,
1.865,-1.30,-0.33,-2.63,-0.36,0.08,-0.29,
1.865,-1.30,-0.33,-2.63,-0.36,0.07,-0.28,
1.865,-1.42,-0.37,-2.46,-0.36,0.07,-0.28,
1.865,-1.42,-0.37,-2.46,-0.34,0.05,-0.26,
1.865,-1.42,-0.37,-2.46,-0.33,0.04,-0.24,
1.865,-1.42,-0.37,-2.46,-0.32,0.02,-0.22,
1.866,-1.42,-0.37,-2.46,-0.30,-0.01,-0.19,
1.866,-1.42,-0.37,-2.46,-0.30,-0.03,-0.18,
1.866,-1.57,-0.27,-2.43,-0.30,-0.03,-0.18,
1.869,-1.57,-0.27,-2.43,-0.29,-0.05,-0.16,
1.87,-1.57,-0.27,-2.43,-0.28,-0.07,-0.14,
1.871,-1.57,-0.27,-2.43,-0.27,-0.09,-0.12,
1.873,-1.57,-0.27,-2.43,-0.26,-0.12,-0.09,
1.873,-1.57,-0.27,-2.43,-0.26,-0.13,-0.08,
1.873,-1.58,-0.16,-2.44,-0.26,-0.13,-0.08,
1.874,-1.58,-0.16,-2.44,-0.26,-0.15,-0.06,
1.874,-1.58,-0.16,-2.44,-0.25,-0.17,-0.05,
1.876,-1.58,-0.16,-2.44,-0.25,-0.19,-0.03,
1.879,-1.58,-0.16,-2.44,-0.24,-0.20,-0.01,
1.883,-1.58,-0.16,-2.44,-0.24,-0.21,-0.00,
1.884,-1.48,-0.03,-2.45,-0.24,-0.21,-0.00,
1.884,-1.48,-0.03,-2.45,-0.24,-0.22,0.01,
1.885,-1.48,-0.03,-2.45,-0.24,-0.23,0.02,
1.887,-1.48,-0.03,-2.45,-0.24,-0.24,0.03,
1.889,-1.48,-0.03,-2.45,-0.24,-0.25,0.05,
1.893,-1.48,-0.03,-2.45,-0.24,-0.25,0.06,
1.894,-1.34,0.04,-2.43,-0.24,-0.25,0.06,
1.894,-1.34,0.04,-2.43,-0.24,-0.26,0.07,
1.894,-1.34,0.04,-2.43,-0.24,-0.26,0.08,
1.901,-1.34,0.04,-2.43,-0.25,-0.27,0.09,
1.901,-1.34,0.04,-2.43,-0.25,-0.27,0.10,
1.903,-1.34,0.04,-2.43,-0.25,-0.27,0.10,
1.903,-1.24,0.15,-2.36,-0.25,-0.27,0.10,
1.904,-1.24,0.15,-2.36,-0.26,-0.27,0.11,
1.905,-1.24,0.15,-2.36,-0.26,-0.27,0.12,
1.906,-1.24,0.15,-2.36,-0.26,-0.26,0.13,
1.909,-1.24,0.15,-2.36,-0.27,-0.25,0.13,
1.91,-1.24,0.15,-2.36,-0.27,-0.25,0.14,
1.913,-1.08,0.14,-2.21,-0.27,-0.25,0.14,
1.913,-1.08,0.14,-2.21,-0.27,-0.24,0.14,
1.93,-1.08,0.14,-2.21,-0.27,-0.23,0.15,
1.93,-1.08,0.14,-2.21,-0.27,-0.22,0.16,
1.931,-1.08,0.14,-2.21,-0.28,-0.21,0.17,
1.931,-1.08,0.14,-2.21,-0.28,-0.20,0.17,
1.931,-1.07,0.15,-1.95,-0.28,-0.20,0.17,
1.931,-1.07,0.15,-1.95,-0.27,-0.19,0.18,
1.931,-1.07,0.15,-1.95,-0.27,-0.17,0.19,
1.932,-1.07,0.15,-1.95,-0.27,-0.16,0.20,
1.932,-1.07,0.15,-1.95,-0.26,-0.14,0.21,
1.935,-1.07,0.15,-1.95,-0.26,-0.13,0.21,
1.936,-1.07,0.14,-1.66,-0.26,-0.13,0.21,
1.936,-1.07,0.14,-1.66,-0.25,-0.12,0.22,
1.936,-1.07,0.14,-1.66,-0.24,-0.10,0.23,
1.936,-1.07,0.14,-1.66,-0.24,-0.09,0.24,
1.94,-1.07,0.14,-1.66,-0.23,-0.07,0.25,
1.941,-1.07,0.14,-1.66,-0.22,-0.07,0.25,
1.943,-1.16,0.15,-1.48,-0.22,-0.07,0.25,
1.944,-1.16,0.15,-1.48,-0.22,-0.06,0.26,
1.944,-1.16,0.15,-1.48,-0.21,-0.05,0.27,
1.947,-1.16,0.15,-1.48,-0.20,-0.04,0.28,
1.95,-1.16,0.15,-1.48,-0.18,-0.03,0.30,
1.953,-1.16,0.15,-1.48,-0.18,-0.03,0.31,
1.955,-1.20,0.13,-1.31,-0.18,-0.03,0.31,
1.956,-1.20,0.13,-1.31,-0.17,-0.03,0.32,
1.956,-1.20,0.13,-1.31,-0.16,-0.02,0.33,
1.956,-1.20,0.13,-1.31,-0.14,-0.01,0.35,
1.959,-1.20,0.13,-1.31,-0.12,-0.00,0.37,
1.96,-1.20,0.13,-1.31,-0.11,0.00,0.38,
1.963,-1.31,0.07,-1.08,-0.11,0.00,0.38,
1.963,-1.31,0.07,-1.08,-0.10,0.01,0.40,
1.969,-1.31,0.07,-1.08,-0.09,0.03,0.42,
1.969,-1.31,0.07,-1.08,-0.07,0.04,0.44,
1.969,-1.31,0.07,-1.08,-0.04,0.07,0.47,
1.971,-1.31,0.07,-1.08,-0.03,0.08,0.49,
1.975,-1.38,-0.11,-0.77,-0.03,0.08,0.49,
1.976,-1.38,-0.11,-0.77,-0.01,0.09,0.51,
1.976,-1.38,-0.11,-0.77,0.01,0.11,0.54,
1.976,-1.38,-0.11,-0.77,0.04,0.12,0.57,
1.979,-1.38,-0.11,-0.77,0.08,0.15,0.61,
1.984,-1.38,-0.11,-0.77,0.10,0.16,0.62,
1.985,-1.48,-0.17,-0.38,0.10,0.16,0.62,
1.985,-1.48,-0.17,-0.38,0.13,0.17,0.65,
1.985,-1.48,-0.17,-0.38,0.16,0.19,0.68,
1.986,-1.48,-0.17,-0.38,0.20,0.21,0.70,
1.989,-1.48,-0.17,-0.38,0.25,0.23,0.74,
1.99,-1.48,-0.17,-0.38,0.27,0.24,0.75,
1.993,-1.33,-0.17,-0.19,0.27,0.24,0.75,
1.993,-1.33,-0.17,-0.19,0.31,0.25,0.77,
1.994,-1.33,-0.17,-0.19,0.35,0.27,0.80,
1.996,-1.33,-0.17,-0.19,0.38,0.28,0.82,
1.999,-1.33,-0.17,-0.19,0.44,0.30,0.85,
2.0,-1.33,-0.17,-0.19,0.46,0.31,0.86,
2.003,-1.13,-0.16,-0.39,0.46,0.31,0.86,
2.003,-1.13,-0.16,-0.39,0.49,0.32,0.88,
2.004,-1.13,-0.16,-0.39,0.53,0.32,0.90,
2.006,-1.13,-0.16,-0.39,0.56,0.34,0.92,
2.009,-1.13,-0.16,-0.39,0.61,0.35,0.95,
2.01,-1.13,-0.16,-0.39,0.62,0.35,0.95,
2.012,-0.84,-0.13,-0.92,0.62,0.35,0.95,
2.013,-0.84,-0.13,-0.92,0.65,0.36,0.97,
2.014,-0.84,-0.13,-0.92,0.68,0.36,0.99,
2.016,-0.84,-0.13,-0.92,0.71,0.37,1.00,
2.019,-0.84,-0.13,-0.92,0.74,0.37,1.02,
2.02,-0.84,-0.13,-0.92,0.75,0.37,1.03,
2.023,-0.63,-0.05,-1.58,0.75,0.37,1.03,
2.023,-0.63,-0.05,-1.58,0.76,0.37,1.04,
2.024,-0.63,-0.05,-1.58,0.78,0.38,1.06,
2.026,-0.63,-0.05,-1.58,0.79,0.37,1.07,
2.029,-0.63,-0.05,-1.58,0.80,0.37,1.08,
2.031,-0.63,-0.05,-1.58,0.81,0.37,1.08,
2.032,-0.34,0.05,-2.34,0.81,0.37,1.08,
2.033,-0.34,0.05,-2.34,0.81,0.36,1.09,
2.034,-0.34,0.05,-2.34,0.81,0.35,1.10,
2.036,-0.34,0.05,-2.34,0.80,0.35,1.10,
2.039,-0.34,0.05,-2.34,0.79,0.34,1.10,
2.04,-0.34,0.05,-2.34,0.78,0.34,1.10,
2.042,0.01,0.27,-3.00,0.78,0.34,1.10,
2.043,0.01,0.27,-3.00,0.77,0.33,1.10,
2.044,0.01,0.27,-3.00,0.76,0.32,1.09,
2.047,0.01,0.27,-3.00,0.74,0.31,1.08,
2.049,0.01,0.27,-3.00,0.72,0.29,1.08,
2.05,0.01,0.27,-3.00,0.71,0.28,1.07,
2.053,0.30,0.36,-3.26,0.71,0.28,1.07,
2.053,0.30,0.36,-3.26,0.70,0.26,1.07,
2.054,0.30,0.36,-3.26,0.68,0.24,1.06,
2.056,0.30,0.36,-3.26,0.66,0.22,1.06,
2.059,0.30,0.36,-3.26,0.64,0.19,1.04,
2.06,0.30,0.36,-3.26,0.64,0.18,1.04,
2.063,0.49,0.52,-3.10,0.64,0.18,1.04,
2.063,0.49,0.52,-3.10,0.62,0.16,1.03,
2.065,0.49,0.52,-3.10,0.61,0.13,1.02,
2.066,0.49,0.52,-3.10,0.60,0.12,1.01,
2.069,0.49,0.52,-3.10,0.59,0.09,1.00,
2.071,0.49,0.52,-3.10,0.58,0.09,0.99,
2.073,0.68,0.47,-2.51,0.58,0.09,0.99,
2.073,0.68,0.47,-2.51,0.58,0.07,0.98,
2.074,0.68,0.47,-2.51,0.58,0.06,0.97,
2.076,0.68,0.47,-2.51,0.58,0.06,0.95,
2.079,0.68,0.47,-2.51,0.58,0.06,0.94,
2.081,0.68,0.47,-2.51,0.58,0.06,0.93,
2.107,0.90,0.40,-1.81,0.58,0.06,0.93,
2.107,0.90,0.40,-1.81,0.59,0.06,0.93,
2.107,0.90,0.40,-1.81,0.60,0.07,0.91,
2.107,0.90,0.40,-1.81,0.60,0.07,0.90,
2.108,0.90,0.40,-1.81,0.61,0.09,0.89,
2.108,0.90,0.40,-1.81,0.62,0.09,0.88,
2.108,1.04,0.34,-1.25,0.62,0.09,0.88,
2.108,1.04,0.34,-1.25,0.63,0.10,0.87,
2.108,1.04,0.34,-1.25,0.63,0.11,0.86,
2.109,1.04,0.34,-1.25,0.64,0.13,0.85,
2.109,1.04,0.34,-1.25,0.66,0.15,0.83,
2.109,1.04,0.34,-1.25,0.66,0.15,0.83,
2.109,1.17,0.34,-1.02,0.66,0.15,0.83,
2.109,1.17,0.34,-1.02,0.67,0.17,0.82,
2.11,1.17,0.34,-1.02,0.68,0.19,0.81,
2.11,1.17,0.34,-1.02,0.68,0.21,0.80,
2.11,1.17,0.34,-1.02,0.68,0.24,0.78,
2.112,1.17,0.34,-1.02,0.68,0.25,0.78,
2.113,1.14,0.27,-1.04,0.68,0.25,0.78,
2.113,1.14,0.27,-1.04,0.69,0.27,0.77,
2.115,1.14,0.27,-1.04,0.69,0.29,0.76,
2.116,1.14,0.27,-1.04,0.68,0.31,0.75,
2.119,1.14,0.27,-1.04,0.67,0.33,0.74,
2.12,1.14,0.27,-1.04,0.66,0.33,0.73,
2.122,1.15,0.35,-1.39,0.66,0.33,0.73,
2.123,1.15,0.35,-1.39,0.65,0.34,0.72,
2.124,1.15,0.35,-1.39,0.64,0.35,0.71,
2.126,1.15,0.35,-1.39,0.62,0.35,0.70,
2.129,1.15,0.35,-1.39,0.60,0.35,0.68,
2.133,1.15,0.35,-1.39,0.59,0.35,0.68,
2.134,1.15,0.35,-1.64,0.59,0.35,0.68,
2.134,1.15,0.35,-1.64,0.57,0.34,0.67,
2.134,1.15,0.35,-1.64,0.56,0.33,0.66,
2.136,1.15,0.35,-1.64,0.54,0.33,0.64,
2.14,1.15,0.35,-1.64,0.52,0.31,0.62,
2.141,1.15,0.35,-1.64,0.51,0.31,0.61,
2.144,1.26,0.35,-1.62,0.51,0.31,0.61,
2.145,1.26,0.35,-1.62,0.50,0.29,0.60,
2.145,1.26,0.35,-1.62,0.48,0.28,0.58,
2.148,1.26,0.35,-1.62,0.47,0.27,0.57,
2.162,1.26,0.35,-1.62,0.46,0.26,0.54,
2.162,1.26,0.35,-1.62,0.46,0.25,0.53,
2.163,1.32,0.26,-1.32,0.46,0.25,0.53,
2.163,1.32,0.26,-1.32,0.45,0.24,0.51,
2.163,1.32,0.26,-1.32,0.44,0.24,0.50,
2.163,1.32,0.26,-1.32,0.44,0.24,0.48,
2.164,1.32,0.26,-1.32,0.43,0.24,0.46,
2.164,1.32,0.26,-1.32,0.43,0.23,0.43,
2.164,1.32,0.26,-1.32,0.43,0.23,0.43,
2.165,1.37,0.16,-1.05,0.43,0.23,0.43,
2.168,1.37,0.16,-1.05,0.43,0.23,0.42,
2.169,1.37,0.16,-1.05,0.43,0.23,0.40,
2.17,1.37,0.16,-1.05,0.43,0.23,0.39,
2.171,1.37,0.16,-1.05,0.42,0.23,0.38,
2.173,1.15,-0.04,-0.90,0.42,0.23,0.38,
2.173,1.15,-0.04,-0.90,0.42,0.23,0.37,
2.174,1.15,-0.04,-0.90,0.42,0.23,0.36,
2.176,1.15,-0.04,-0.90,0.42,0.23,0.35,
2.179,1.15,-0.04,-0.90,0.42,0.24,0.34,
2.183,1.15,-0.04,-0.90,0.42,0.24,0.34,
2.184,0.92,-0.16,-0.78,0.42,0.24,0.34,
2.184,0.92,-0.16,-0.78,0.42,0.24,0.33,
2.185,0.92,-0.16,-0.78,0.42,0.25,0.33,
2.187,0.92,-0.16,-0.78,0.42,0.25,0.32,
2.189,0.92,-0.16,-0.78,0.42,0.25,0.32,
2.19,0.92,-0.16,-0.78,0.42,0.25,0.32,
2.193,0.64,-0.39,-0.71,0.42,0.25,0.32,
2.193,0.64,-0.39,-0.71,0.42,0.25,0.32,
2.195,0.64,-0.39,-0.71,0.42,0.25,0.32,
2.202,0.64,-0.39,-0.71,0.41,0.25,0.32,
2.202,0.64,-0.39,-0.71,0.41,0.24,0.32,
2.203,0.64,-0.39,-0.71,0.41,0.23,0.33,
2.206,0.32,-0.49,-0.70,0.41,0.23,0.33,
2.207,0.32,-0.49,-0.70,0.40,0.22,0.33,
2.208,0.32,-0.49,-0.70,0.40,0.22,0.34,
2.211,0.32,-0.49,-0.70,0.41,0.21,0.34,
2.212,0.32,-0.49,-0.70,0.41,0.21,0.35,
2.212,0.32,-0.49,-0.70,0.41,0.20,0.35,
2.215,0.11,-0.57,-0.54,0.41,0.20,0.35,
2.215,0.11,-0.57,-0.54,0.42,0.20,0.36,
2.216,0.11,-0.57,-0.54,0.43,0.20,0.37,
2.218,0.11,-0.57,-0.54,0.43,0.20,0.38,
2.225,0.11,-0.57,-0.54,0.45,0.20,0.39,
2.225,0.11,-0.57,-0.54,0.45,0.20,0.39,
2.226,-0.15,-0.66,-0.51,0.45,0.20,0.39,
2.226,-0.15,-0.66,-0.51,0.46,0.20,0.41,
2.227,-0.15,-0.66,-0.51,0.46,0.20,0.42,
2.227,-0.15,-0.66,-0.51,0.46,0.19,0.43,
2.231,-0.15,-0.66,-0.51,0.46,0.19,0.44,
2.231,-0.15,-0.66,-0.51,0.46,0.19,0.45,
2.236,-0.31,-0.82,-0.82,0.46,0.19,0.45,
2.236,-0.31,-0.82,-0.82,0.45,0.18,0.46,
2.237,-0.31,-0.82,-0.82,0.45,0.18,0.48,
2.237,-0.31,-0.82,-0.82,0.44,0.18,0.50,
2.24,-0.31,-0.82,-0.82,0.43,0.18,0.52,
2.241,-0.31,-0.82,-0.82,0.43,0.18,0.53,
2.243,-0.59,-0.94,-1.01,0.43,0.18,0.53,
2.244,-0.59,-0.94,-1.01,0.42,0.19,0.55,
2.245,-0.59,-0.94,-1.01,0.41,0.20,0.57,
2.248,-0.59,-0.94,-1.01,0.41,0.21,0.59,
2.278,-0.59,-0.94,-1.01,0.40,0.23,0.62,
2.278,-0.59,-0.94,-1.01,0.41,0.24,0.63,
2.279,-0.66,-1.02,-0.82,0.41,0.24,0.63,
2.279,-0.66,-1.02,-0.82,0.40,0.26,0.65,
2.279,-0.66,-1.02,-0.82,0.41,0.28,0.66,
2.28,-0.66,-1.02,-0.82,0.41,0.30,0.68,
2.28,-0.66,-1.02,-0.82,0.42,0.32,0.70,
2.281,-0.66,-1.02,-0.82,0.42,0.33,0.70,
2.281,-0.66,-1.08,-0.58,0.42,0.33,0.70,
2.282,-0.66,-1.08,-0.58,0.43,0.35,0.72,
2.282,-0.66,-1.08,-0.58,0.43,0.37,0.73,
2.282,-0.66,-1.08,-0.58,0.44,0.39,0.74,
2.283,-0.66,-1.08,-0.58,0.45,0.43,0.76,
2.283,-0.66,-1.08,-0.58,0.46,0.45,0.76,
2.284,-0.65,-0.92,-0.46,0.46,0.45,0.76,
2.284,-0.65,-0.92,-0.46,0.47,0.48,0.77,
2.284,-0.65,-0.92,-0.46,0.48,0.51,0.78,
2.285,-0.65,-0.92,-0.46,0.48,0.55,0.79,
2.285,-0.65,-0.92,-0.46,0.48,0.60,0.80,
2.286,-0.65,-0.92,-0.46,0.47,0.62,0.80,
2.286,-0.77,-0.57,-1.00,0.47,0.62,0.80,
2.286,-0.77,-0.57,-1.00,0.46,0.65,0.81,
2.287,-0.77,-0.57,-1.00,0.45,0.67,0.81,
2.287,-0.77,-0.57,-1.00,0.43,0.70,0.81,
2.303,-0.77,-0.57,-1.00,0.40,0.71,0.82,
2.303,-0.77,-0.57,-1.00,0.38,0.71,0.82,
2.303,-0.93,-0.28,-2.11,0.38,0.71,0.82,
2.303,-0.93,-0.28,-2.11,0.35,0.69,0.82,
2.304,-0.93,-0.28,-2.11,0.30,0.65,0.82,
2.304,-0.93,-0.28,-2.11,0.25,0.59,0.83,
2.304,-0.93,-0.28,-2.11,0.13,0.45,0.83,
2.304,-0.93,-0.28,-2.11,0.08,0.39,0.83,
2.311,-1.01,0.03,-3.54,0.08,0.39,0.83,
2.311,-1.01,0.03,-3.54,-0.02,0.26,0.83,
2.311,-1.01,0.03,-3.54,-0.14,0.11,0.83,
2.312,-1.01,0.03,-3.54,-0.28,-0.06,0.82,
2.327,-1.01,0.03,-3.54,-0.49,-0.32,0.80,
2.327,-1.01,0.03,-3.54,-0.57,-0.41,0.79,
2.327,-0.47,0.32,-4.01,-0.57,-0.41,0.79,
2.328,-0.47,0.32,-4.01,-0.71,-0.59,0.77,
2.328,-0.47,0.32,-4.01,-0.85,-0.75,0.75,
2.328,-0.47,0.32,-4.01,-0.97,-0.92,0.72,
2.328,-0.47,0.32,-4.01,-1.12,-1.13,0.68,
2.329,-0.47,0.32,-4.01,-1.17,-1.19,0.66,
2.329,0.15,0.64,-1.09,-1.17,-1.19,0.66,
2.329,0.15,0.64,-1.09,-1.23,-1.30,0.63,
2.329,0.15,0.64,-1.09,-1.28,-1.38,0.59,
2.33,0.15,0.64,-1.09,-1.32,-1.44,0.56,
2.33,0.15,0.64,-1.09,-1.35,-1.49,0.51,
2.356,0.15,0.64,-1.09,-1.36,-1.49,0.49,
2.357,0.91,0.47,3.52,-1.36,-1.49,0.49,
2.357,0.91,0.47,3.52,-1.36,-1.49,0.46,
2.357,0.91,0.47,3.52,-1.36,-1.47,0.42,
2.357,0.91,0.47,3.52,-1.35,-1.43,0.39,
2.357,0.91,0.47,3.52,-1.32,-1.34,0.34,
2.358,0.91,0.47,3.52,-1.30,-1.30,0.33,
2.358,1.52,-0.02,7.54,-1.30,-1.30,0.33,
2.358,1.52,-0.02,7.54,-1.28,-1.20,0.30,
2.358,1.52,-0.02,7.54,-1.24,-1.09,0.27,
2.358,1.52,-0.02,7.54,-1.21,-0.95,0.25,
2.359,1.52,-0.02,7.54,-1.14,-0.73,0.22,
2.359,1.52,-0.02,7.54,-1.11,-0.65,0.21,
2.359,1.42,-0.30,10.27,-1.11,-0.65,0.21,
2.359,1.42,-0.30,10.27,-1.06,-0.48,0.19,
2.359,1.42,-0.30,10.27,-1.00,-0.31,0.17,
2.36,1.42,-0.30,10.27,-0.94,-0.13,0.16,
2.36,1.42,-0.30,10.27,-0.84,0.14,0.15,
2.363,1.42,-0.30,10.27,-0.81,0.23,0.15,
2.363,0.88,-0.50,11.43,-0.81,0.23,0.15,
2.364,0.88,-0.50,11.43,-0.74,0.39,0.14,
2.377,0.88,-0.50,11.43,-0.68,0.54,0.14,
2.377,0.88,-0.50,11.43,-0.61,0.68,0.14,
2.377,0.88,-0.50,11.43,-0.54,0.87,0.14,
2.377,0.88,-0.50,11.43,-0.51,0.92,0.14,
2.378,0.27,-0.41,10.22,-0.51,0.92,0.14,
2.378,0.27,-0.41,10.22,-0.47,1.01,0.14,
2.378,0.27,-0.41,10.22,-0.44,1.08,0.14,
2.378,0.27,-0.41,10.22,-0.41,1.13,0.15,
2.395,0.27,-0.41,10.22,-0.38,1.18,0.15,
2.395,0.27,-0.41,10.22,-0.37,1.19,0.16,
2.395,-0.31,-0.20,7.66,-0.37,1.19,0.16,
2.395,-0.31,-0.20,7.66,-0.36,1.19,0.16,
2.395,-0.31,-0.20,7.66,-0.35,1.18,0.17,
2.396,-0.31,-0.20,7.66,-0.34,1.16,0.18,
2.396,-0.31,-0.20,7.66,-0.34,1.10,0.19,
2.396,-0.31,-0.20,7.66,-0.34,1.08,0.19,
2.396,-0.61,0.03,5.07,-0.34,1.08,0.19,
2.396,-0.61,0.03,5.07,-0.34,1.03,0.20,
2.397,-0.61,0.03,5.07,-0.34,0.96,0.21,
2.422,-0.61,0.03,5.07,-0.35,0.90,0.21,
2.422,-0.61,0.03,5.07,-0.37,0.78,0.22,
2.422,-0.61,0.03,5.07,-0.37,0.74,0.22,
2.423,-0.55,0.31,3.03,-0.37,0.74,0.22,
2.423,-0.55,0.31,3.03,-0.39,0.65,0.22,
2.423,-0.55,0.31,3.03,-0.40,0.56,0.21,
2.423,-0.55,0.31,3.03,-0.42,0.46,0.21,
2.423,-0.55,0.31,3.03,-0.44,0.32,0.19,
2.424,-0.55,0.31,3.03,-0.45,0.27,0.19,
2.424,-0.16,0.54,1.68,-0.45,0.27,0.19,
2.424,-0.16,0.54,1.68,-0.47,0.18,0.18,
2.442,-0.16,0.54,1.68,-0.49,0.09,0.17,
2.443,-0.16,0.54,1.68,-0.50,-0.00,0.15,
2.443,-0.16,0.54,1.68,-0.52,-0.13,0.13,
2.443,-0.16,0.54,1.68,-0.53,-0.16,0.13,
2.443,0.00,0.68,1.20,-0.53,-0.16,0.13,
2.443,0.00,0.68,1.20,-0.54,-0.23,0.12,
2.444,0.00,0.68,1.20,-0.54,-0.28,0.11,
2.444,0.00,0.68,1.20,-0.55,-0.33,0.10,
2.444,0.00,0.68,1.20,-0.55,-0.38,0.09,
2.444,0.00,0.68,1.20,-0.55,-0.39,0.09,
2.444,-0.16,0.56,1.31,-0.55,-0.39,0.09,
2.444,-0.16,0.56,1.31,-0.55,-0.40,0.09,
2.445,-0.16,0.56,1.31,-0.54,-0.40,0.10,
2.445,-0.16,0.56,1.31,-0.54,-0.40,0.10,
2.445,-0.16,0.56,1.31,-0.52,-0.38,0.11,
2.445,-0.16,0.56,1.31,-0.51,-0.37,0.11,
2.445,-0.43,0.26,1.58,-0.51,-0.37,0.11,
2.446,-0.43,0.26,1.58,-0.49,-0.34,0.13,
2.446,-0.43,0.26,1.58,-0.48,-0.32,0.14,
2.451,-0.43,0.26,1.58,-0.46,-0.29,0.16,
2.453,-0.43,0.26,1.58,-0.42,-0.23,0.19,
2.454,-0.43,0.26,1.58,-0.41,-0.20,0.20,
2.454,-0.74,0.12,1.74,-0.41,-0.20,0.20,
2.454,-0.74,0.12,1.74,-0.38,-0.16,0.23,
2.454,-0.74,0.12,1.74,-0.35,-0.10,0.25,
2.465,-0.74,0.12,1.74,-0.31,-0.04,0.28,
2.466,-0.74,0.12,1.74,-0.27,0.05,0.32,
2.466,-0.74,0.12,1.74,-0.25,0.08,0.33,
2.466,-0.74,0.05,1.51,-0.25,0.08,0.33,
2.466,-0.74,0.05,1.51,-0.22,0.14,0.36,
2.466,-0.74,0.05,1.51,-0.19,0.20,0.39,
2.467,-0.74,0.05,1.51,-0.16,0.26,0.41,
2.471,-0.74,0.05,1.51,-0.10,0.35,0.45,
2.471,-0.74,0.05,1.51,-0.09,0.37,0.46,
2.475,-0.53,0.08,0.93,-0.09,0.37,0.46,
2.476,-0.53,0.08,0.93,-0.05,0.42,0.48,
2.476,-0.53,0.08,0.93,-0.02,0.47,0.50,
2.476,-0.53,0.08,0.93,0.01,0.51,0.52,
2.481,-0.53,0.08,0.93,0.06,0.57,0.54,
2.483,-0.53,0.08,0.93,0.07,0.59,0.55,
2.484,-0.15,0.28,0.03,0.07,0.59,0.55,
2.484,-0.15,0.28,0.03,0.10,0.62,0.56,
2.485,-0.15,0.28,0.03,0.14,0.65,0.57,
2.486,-0.15,0.28,0.03,0.16,0.67,0.58,
2.49,-0.15,0.28,0.03,0.20,0.70,0.59,
2.491,-0.15,0.28,0.03,0.21,0.70,0.59,
2.493,0.30,0.49,-1.04,0.21,0.70,0.59,
2.493,0.30,0.49,-1.04,0.24,0.71,0.60,
2.496,0.30,0.49,-1.04,0.26,0.72,0.60,
2.499,0.30,0.49,-1.04,0.28,0.71,0.60,
2.501,0.30,0.49,-1.04,0.31,0.70,0.60,
2.501,0.30,0.49,-1.04,0.32,0.70,0.60,
2.503,0.64,0.66,-2.10,0.32,0.70,0.60,
2.503,0.64,0.66,-2.10,0.34,0.68,0.60,
2.504,0.64,0.66,-2.10,0.35,0.66,0.60,
2.507,0.64,0.66,-2.10,0.37,0.63,0.60,
2.509,0.64,0.66,-2.10,0.38,0.58,0.60,
2.51,0.64,0.66,-2.10,0.39,0.57,0.60,
2.513,0.71,0.76,-2.97,0.39,0.57,0.60,
2.513,0.71,0.76,-2.97,0.40,0.53,0.59,
2.515,0.71,0.76,-2.97,0.40,0.49,0.59,
2.519,0.71,0.76,-2.97,0.41,0.45,0.59,
2.523,0.71,0.76,-2.97,0.42,0.38,0.59,
2.524,0.71,0.76,-2.97,0.42,0.35,0.58,
2.525,0.73,0.84,-3.53,0.42,0.35,0.58,
2.525,0.73,0.84,-3.53,0.43,0.31,0.58,
2.525,0.73,0.84,-3.53,0.43,0.26,0.58,
2.527,0.73,0.84,-3.53,0.44,0.21,0.58,
2.529,0.73,0.84,-3.53,0.45,0.14,0.58,
2.532,0.73,0.84,-3.53,0.45,0.12,0.58,
2.533,0.61,0.76,-3.69,0.45,0.12,0.58,
2.533,0.61,0.76,-3.69,0.46,0.08,0.58,
2.535,0.61,0.76,-3.69,0.46,0.03,0.58,
2.537,0.61,0.76,-3.69,0.47,-0.01,0.58,
2.542,0.61,0.76,-3.69,0.49,-0.07,0.59,
2.543,0.61,0.76,-3.69,0.49,-0.09,0.59,
2.543,0.64,0.67,-3.48,0.49,-0.09,0.59,
2.544,0.64,0.67,-3.48,0.51,-0.12,0.59,
2.544,0.64,0.67,-3.48,0.52,-0.15,0.59,
2.551,0.64,0.67,-3.48,0.53,-0.18,0.58,
2.552,0.64,0.67,-3.48,0.55,-0.22,0.58,
2.552,0.64,0.67,-3.48,0.56,-0.23,0.58,
2.553,0.76,0.45,-3.08,0.56,-0.23,0.58,
2.553,0.76,0.45,-3.08,0.58,-0.25,0.58,
2.558,0.76,0.45,-3.08,0.59,-0.28,0.58,
2.559,0.76,0.45,-3.08,0.61,-0.30,0.58,
2.559,0.76,0.45,-3.08,0.64,-0.33,0.58,
2.585,0.76,0.45,-3.08,0.65,-0.33,0.57,
2.585,0.97,0.32,-2.64,0.65,-0.33,0.57,
2.585,0.97,0.32,-2.64,0.66,-0.35,0.57,
2.586,0.97,0.32,-2.64,0.68,-0.36,0.57,
2.586,0.97,0.32,-2.64,0.70,-0.38,0.56,
2.586,0.97,0.32,-2.64,0.73,-0.39,0.56,
2.586,0.97,0.32,-2.64,0.73,-0.40,0.55,
2.586,1.23,0.11,-2.21,0.73,-0.40,0.55,
2.586,1.23,0.11,-2.21,0.74,-0.41,0.54,
2.587,1.23,0.11,-2.21,0.77,-0.41,0.53,
2.587,1.23,0.11,-2.21,0.79,-0.42,0.52,
2.587,1.23,0.11,-2.21,0.80,-0.43,0.51,
2.587,1.23,0.11,-2.21,0.79,-0.44,0.50,
2.606,1.64,0.08,-1.95,0.79,-0.44,0.50,
2.606,1.64,0.08,-1.95,0.82,-0.45,0.49,
2.606,1.64,0.08,-1.95,0.84,-0.46,0.48,
2.607,1.64,0.08,-1.95,0.86,-0.47,0.46,
2.607,1.64,0.08,-1.95,0.87,-0.49,0.43,
2.607,1.64,0.08,-1.95,0.87,-0.49,0.42,
2.607,2.02,0.08,-1.72,0.87,-0.49,0.42,
2.608,2.02,0.08,-1.72,0.89,-0.51,0.40,
2.608,2.02,0.08,-1.72,0.89,-0.51,0.38,
2.609,2.02,0.08,-1.72,0.90,-0.52,0.34,
2.609,2.02,0.08,-1.72,0.92,-0.53,0.30,
2.609,2.02,0.08,-1.72,0.92,-0.53,0.28,
2.609,2.57,0.19,-1.55,0.92,-0.53,0.28,
2.61,2.57,0.19,-1.55,0.93,-0.54,0.25,
2.61,2.57,0.19,-1.55,0.94,-0.53,0.21,
2.61,2.57,0.19,-1.55,0.95,-0.53,0.17,
2.61,2.57,0.19,-1.55,0.97,-0.52,0.11,
2.614,2.57,0.19,-1.55,0.97,-0.51,0.09,
2.614,2.98,0.21,-1.47,0.97,-0.51,0.09,
2.615,2.98,0.21,-1.47,0.97,-0.50,0.04,
2.615,2.98,0.21,-1.47,0.98,-0.48,-0.00,
2.616,2.98,0.21,-1.47,0.98,-0.45,-0.05,
2.62,2.98,0.21,-1.47,0.99,-0.41,-0.12,
2.62,2.98,0.21,-1.47,0.99,-0.40,-0.14,
2.623,3.16,0.17,-1.75,0.99,-0.40,-0.14,
2.623,3.16,0.17,-1.75,0.98,-0.37,-0.18,
2.624,3.16,0.17,-1.75,0.97,-0.34,-0.23,
2.626,3.16,0.17,-1.75,0.97,-0.31,-0.28,
2.629,3.16,0.17,-1.75,0.95,-0.27,-0.34,
2.631,3.16,0.17,-1.75,0.94,-0.25,-0.36,
2.634,2.90,0.06,-2.24,0.94,-0.25,-0.36,
2.634,2.90,0.06,-2.24,0.93,-0.22,-0.40,
2.634,2.90,0.06,-2.24,0.92,-0.20,-0.44,
2.636,2.90,0.06,-2.24,0.90,-0.17,-0.47,
2.64,2.90,0.06,-2.24,0.86,-0.13,-0.53,
2.641,2.90,0.06,-2.24,0.85,-0.12,-0.54,
2.643,2.51,0.02,-2.89,0.85,-0.12,-0.54,
2.643,2.51,0.02,-2.89,0.82,-0.10,-0.58,
2.645,2.51,0.02,-2.89,0.80,-0.09,-0.61,
2.648,2.51,0.02,-2.89,0.77,-0.08,-0.65,
2.65,2.51,0.02,-2.89,0.73,-0.07,-0.69,
2.651,2.51,0.02,-2.89,0.71,-0.07,-0.71,
2.653,1.99,-0.11,-3.26,0.71,-0.07,-0.71,
2.653,1.99,-0.11,-3.26,0.68,-0.07,-0.74,
2.654,1.99,-0.11,-3.26,0.65,-0.07,-0.77,
2.656,1.99,-0.11,-3.26,0.62,-0.08,-0.79,
2.659,1.99,-0.11,-3.26,0.58,-0.09,-0.83,
2.661,1.99,-0.11,-3.26,0.57,-0.09,-0.84,
2.663,1.99,-0.11,-3.26,0.54,-0.09,-0.87,
2.663,1.53,-0.10,-3.19,0.54,-0.09,-0.87,
2.667,1.53,-0.10,-3.19,0.49,-0.10,-0.91,
2.667,1.53,-0.10,-3.19,0.49,-0.10,-0.91,
2.669,1.53,-0.10,-3.19,0.45,-0.12,-0.94,
2.67,1.53,-0.10,-3.19,0.44,-0.13,-0.95,
2.673,1.13,-0.11,-2.77,0.44,-0.13,-0.95,
2.673,1.13,-0.11,-2.77,0.42,-0.14,-0.97,
2.674,1.13,-0.11,-2.77,0.40,-0.16,-0.99,
2.676,1.13,-0.11,-2.77,0.38,-0.17,-1.01,
2.679,1.13,-0.11,-2.77,0.35,-0.20,-1.04,
2.681,1.13,-0.11,-2.77,0.34,-0.20,-1.06,
2.682,0.91,-0.05,-2.12,0.34,-0.20,-1.06,
2.683,0.91,-0.05,-2.12,0.33,-0.22,-1.08,
2.684,0.91,-0.05,-2.12,0.31,-0.22,-1.09,
2.686,0.91,-0.05,-2.12,0.30,-0.23,-1.11,
2.689,0.91,-0.05,-2.12,0.29,-0.24,-1.14,
2.69,0.91,-0.05,-2.12,0.29,-0.24,-1.15,
2.692,0.62,0.10,-1.27,0.29,-0.24,-1.15,
2.693,0.62,0.10,-1.27,0.29,-0.24,-1.16,
2.7,0.62,0.10,-1.27,0.28,-0.24,-1.18,
2.7,0.62,0.10,-1.27,0.28,-0.25,-1.19,
2.701,0.62,0.10,-1.27,0.27,-0.25,-1.22,
2.702,0.62,0.10,-1.27,0.27,-0.25,-1.22,
2.723,0.47,0.10,-0.63,0.27,-0.25,-1.22,
2.724,0.47,0.10,-0.63,0.26,-0.26,-1.24,
2.724,0.47,0.10,-0.63,0.25,-0.26,-1.25,
2.724,0.47,0.10,-0.63,0.24,-0.26,-1.26,
2.724,0.47,0.10,-0.63,0.22,-0.26,-1.28,
2.724,0.47,0.10,-0.63,0.21,-0.26,-1.28,
2.724,0.16,0.05,-0.28,0.21,-0.26,-1.28,
2.725,0.16,0.05,-0.28,0.18,-0.27,-1.29,
2.725,0.16,0.05,-0.28,0.16,-0.27,-1.30,
2.725,0.16,0.05,-0.28,0.14,-0.27,-1.30,
2.725,0.16,0.05,-0.28,0.10,-0.28,-1.31,
2.725,0.16,0.05,-0.28,0.08,-0.28,-1.32,
2.725,-0.06,0.09,0.09,0.08,-0.28,-1.32,
2.725,-0.06,0.09,0.09,0.06,-0.28,-1.32,
2.725,-0.06,0.09,0.09,0.03,-0.29,-1.33,
2.727,-0.06,0.09,0.09,-0.00,-0.29,-1.33,
2.73,-0.06,0.09,0.09,-0.04,-0.29,-1.34,
2.731,-0.06,0.09,0.09,-0.05,-0.29,-1.34,
2.733,-0.25,0.20,0.73,-0.05,-0.29,-1.34,
2.733,-0.25,0.20,0.73,-0.07,-0.28,-1.34,
2.734,-0.25,0.20,0.73,-0.10,-0.28,-1.35,
2.736,-0.25,0.20,0.73,-0.11,-0.29,-1.35,
2.739,-0.25,0.20,0.73,-0.15,-0.29,-1.35,
2.74,-0.25,0.20,0.73,-0.17,-0.29,-1.36,
2.743,-0.40,0.40,1.41,-0.17,-0.29,-1.36,
2.743,-0.40,0.40,1.41,-0.18,-0.30,-1.36,
2.744,-0.40,0.40,1.41,-0.21,-0.31,-1.36,
2.747,-0.40,0.40,1.41,-0.23,-0.31,-1.36,
2.763,-0.40,0.40,1.41,-0.26,-0.32,-1.36,
2.763,-0.40,0.40,1.41,-0.27,-0.32,-1.36,
2.763,-0.36,0.55,2.12,-0.27,-0.32,-1.36,
2.763,-0.36,0.55,2.12,-0.30,-0.31,-1.36,
2.764,-0.36,0.55,2.12,-0.32,-0.31,-1.37,
2.764,-0.36,0.55,2.12,-0.34,-0.30,-1.37,
2.764,-0.36,0.55,2.12,-0.36,-0.28,-1.38,
2.764,-0.36,0.55,2.12,-0.37,-0.27,-1.38,
2.764,-0.12,0.71,2.73,-0.37,-0.27,-1.38,
2.764,-0.12,0.71,2.73,-0.39,-0.26,-1.39,
2.764,-0.12,0.71,2.73,-0.42,-0.24,-1.40,
2.767,-0.12,0.71,2.73,-0.44,-0.22,-1.41,
2.769,-0.12,0.71,2.73,-0.48,-0.20,-1.44,
2.77,-0.12,0.71,2.73,-0.50,-0.20,-1.45,
2.772,0.36,0.82,2.97,-0.50,-0.20,-1.45,
2.773,0.36,0.82,2.97,-0.54,-0.19,-1.47,
2.774,0.36,0.82,2.97,-0.58,-0.19,-1.49,
2.776,0.36,0.82,2.97,-0.62,-0.20,-1.51,
2.779,0.36,0.82,2.97,-0.70,-0.22,-1.56,
2.78,0.36,0.82,2.97,-0.74,-0.23,-1.57,
2.783,1.03,0.88,2.78,-0.74,-0.23,-1.57,
2.783,1.03,0.88,2.78,-0.81,-0.25,-1.61,
2.785,1.03,0.88,2.78,-0.92,-0.30,-1.66,
2.786,1.03,0.88,2.78,-0.96,-0.32,-1.68,
2.789,1.03,0.88,2.78,-1.08,-0.37,-1.74,
2.79,1.03,0.88,2.78,-1.12,-0.39,-1.76,
2.792,1.49,0.77,2.99,-1.12,-0.39,-1.76,
2.792,1.49,0.77,2.99,-1.20,-0.42,-1.81,
2.794,1.49,0.77,2.99,-1.27,-0.45,-1.85,
2.796,1.49,0.77,2.99,-1.35,-0.47,-1.89,
2.799,1.49,0.77,2.99,-1.45,-0.49,-1.95,
2.801,1.49,0.77,2.99,-1.49,-0.49,-1.96,
2.802,1.34,0.31,4.12,-1.49,-0.49,-1.96,
2.803,1.34,0.31,4.12,-1.55,-0.49,-2.00,
2.804,1.34,0.31,4.12,-1.60,-0.47,-2.02,
2.806,1.34,0.31,4.12,-1.64,-0.45,-2.04,
2.809,1.34,0.31,4.12,-1.70,-0.39,-2.06,
2.82,1.34,0.31,4.12,-1.71,-0.37,-2.06,
2.821,0.47,-0.38,5.68,-1.71,-0.37,-2.06,
2.821,0.47,-0.38,5.68,-1.74,-0.32,-2.06,
2.822,0.47,-0.38,5.68,-1.76,-0.26,-2.05,
2.822,0.47,-0.38,5.68,-1.78,-0.18,-2.04,
2.822,0.47,-0.38,5.68,-1.78,-0.06,-2.00,
2.822,0.47,-0.38,5.68,-1.78,-0.02,-1.98,
2.842,-0.80,-1.11,7.02,-1.78,-0.02,-1.98,
2.843,-0.80,-1.11,7.02,-1.77,0.08,-1.95,
2.843,-0.80,-1.11,7.02,-1.76,0.18,-1.90,
2.843,-0.80,-1.11,7.02,-1.74,0.28,-1.85,
2.843,-0.80,-1.11,7.02,-1.70,0.44,-1.76,
2.844,-0.80,-1.11,7.02,-1.68,0.49,-1.73,
2.844,-1.95,-1.41,7.61,-1.68,0.49,-1.73,
2.845,-1.95,-1.41,7.61,-1.65,0.59,-1.66,
2.845,-1.95,-1.41,7.61,-1.61,0.69,-1.59,
2.845,-1.95,-1.41,7.61,-1.56,0.78,-1.52,
2.845,-1.95,-1.41,7.61,-1.49,0.90,-1.41,
2.846,-1.95,-1.41,7.61,-1.47,0.93,-1.37,
2.846,-2.86,-1.27,7.37,-1.47,0.93,-1.37,
2.846,-2.86,-1.27,7.37,-1.42,1.00,-1.29,
2.847,-2.86,-1.27,7.37,-1.37,1.05,-1.22,
2.847,-2.86,-1.27,7.37,-1.31,1.10,-1.15,
2.849,-2.86,-1.27,7.37,-1.23,1.15,-1.04,
2.851,-2.86,-1.27,7.37,-1.20,1.16,-1.01,
2.853,-2.98,-0.76,6.17,-1.20,1.16,-1.01,
2.853,-2.98,-0.76,6.17,-1.15,1.17,-0.95,
2.855,-2.98,-0.76,6.17,-1.09,1.17,-0.88,
2.856,-2.98,-0.76,6.17,-1.03,1.16,-0.82,
2.863,-2.98,-0.76,6.17,-0.97,1.13,-0.73,
2.864,-2.98,-0.76,6.17,-0.94,1.12,-0.70,
2.868,-2.88,-0.32,4.50,-0.94,1.12,-0.70,
2.869,-2.88,-0.32,4.50,-0.89,1.08,-0.64,
2.87,-2.88,-0.32,4.50,-0.84,1.03,-0.58,
2.871,-2.88,-0.32,4.50,-0.79,0.98,-0.53,
2.871,-2.88,-0.32,4.50,-0.72,0.89,-0.44,
2.872,-2.88,-0.32,4.50,-0.70,0.86,-0.42,
2.877,-2.55,0.17,2.83,-0.70,0.86,-0.42,
2.877,-2.55,0.17,2.83,-0.66,0.80,-0.37,
2.877,-2.55,0.17,2.83,-0.61,0.73,-0.32,
2.878,-2.55,0.17,2.83,-0.57,0.65,-0.27,
2.881,-2.55,0.17,2.83,-0.51,0.54,-0.20,
2.882,-2.55,0.17,2.83,-0.49,0.50,-0.18,
2.885,-2.22,0.56,1.30,-0.49,0.50,-0.18,
2.886,-2.22,0.56,1.30,-0.45,0.42,-0.14,
2.886,-2.22,0.56,1.30,-0.41,0.34,-0.10,
2.886,-2.22,0.56,1.30,-0.37,0.26,-0.06,
2.889,-2.22,0.56,1.30,-0.33,0.14,-0.01,
2.891,-2.22,0.56,1.30,-0.31,0.10,0.01,
2.893,-1.77,0.87,-0.08,-0.31,0.10,0.01,
2.893,-1.77,0.87,-0.08,-0.28,0.02,0.04,
2.896,-1.77,0.87,-0.08,-0.26,-0.04,0.07,
2.896,-1.77,0.87,-0.08,-0.24,-0.11,0.10,
2.9,-1.77,0.87,-0.08,-0.21,-0.21,0.14,
2.902,-1.77,0.87,-0.08,-0.21,-0.24,0.16,
2.903,-1.37,1.11,-1.41,-0.21,-0.24,0.16,
2.904,-1.37,1.11,-1.41,-0.20,-0.29,0.18,
2.909,-1.37,1.11,-1.41,-0.19,-0.34,0.20,
2.909,-1.37,1.11,-1.41,-0.19,-0.39,0.22,
2.909,-1.37,1.11,-1.41,-0.20,-0.46,0.25,
2.915,-1.37,1.11,-1.41,-0.20,-0.48,0.26,
2.916,-1.01,1.14,-2.51,-0.20,-0.48,0.26,
2.917,-1.01,1.14,-2.51,-0.21,-0.51,0.28,
2.952,-1.01,1.14,-2.51,-0.22,-0.54,0.30,
2.952,-1.01,1.14,-2.51,-0.23,-0.57,0.32,
2.953,-1.01,1.14,-2.51,-0.25,-0.60,0.34,
2.953,-1.01,1.14,-2.51,-0.26,-0.61,0.35,
2.953,-0.76,1.29,-3.17,-0.26,-0.61,0.35,
2.954,-0.76,1.29,-3.17,-0.28,-0.62,0.36,
2.954,-0.76,1.29,-3.17,-0.30,-0.63,0.38,
2.955,-0.76,1.29,-3.17,-0.31,-0.64,0.39,
2.955,-0.76,1.29,-3.17,-0.34,-0.65,0.41,
2.956,-0.76,1.29,-3.17,-0.35,-0.65,0.42,
2.956,-0.41,1.29,-3.33,-0.35,-0.65,0.42,
2.956,-0.41,1.29,-3.33,-0.36,-0.64,0.42,
2.957,-0.41,1.29,-3.33,-0.38,-0.64,0.43,
2.957,-0.41,1.29,-3.33,-0.39,-0.62,0.44,
2.958,-0.41,1.29,-3.33,-0.41,-0.60,0.45,
2.958,-0.41,1.29,-3.33,-0.42,-0.60,0.45,
2.959,-0.18,1.34,-3.17,-0.42,-0.60,0.45,
2.959,-0.18,1.34,-3.17,-0.43,-0.58,0.46,
2.959,-0.18,1.34,-3.17,-0.44,-0.56,0.46,
2.96,-0.18,1.34,-3.17,-0.45,-0.55,0.46,
2.96,-0.18,1.34,-3.17,-0.47,-0.52,0.46,
2.961,-0.18,1.34,-3.17,-0.47,-0.51,0.46,
2.961,0.06,1.29,-2.85,-0.47,-0.51,0.46,
2.961,0.06,1.29,-2.85,-0.48,-0.49,0.46,
2.962,0.06,1.29,-2.85,-0.48,-0.48,0.46,
2.962,0.06,1.29,-2.85,-0.48,-0.46,0.46,
2.963,0.06,1.29,-2.85,-0.48,-0.43,0.45,
2.963,0.06,1.29,-2.85,-0.48,-0.43,0.45,
2.964,0.25,1.36,-2.49,-0.48,-0.43,0.45,
2.964,0.25,1.36,-2.49,-0.48,-0.41,0.45,
2.964,0.25,1.36,-2.49,-0.48,-0.39,0.44,
2.971,0.25,1.36,-2.49,-0.47,-0.38,0.44,
2.971,0.25,1.36,-2.49,-0.46,-0.36,0.43,
2.971,0.25,1.36,-2.49,-0.46,-0.35,0.43,
2.975,0.36,1.27,-2.05,-0.46,-0.35,0.43,
2.976,0.36,1.27,-2.05,-0.45,-0.34,0.42,
2.977,0.36,1.27,-2.05,-0.44,-0.33,0.42,
2.977,0.36,1.27,-2.05,-0.42,-0.32,0.41,
2.981,0.36,1.27,-2.05,-0.39,-0.31,0.40,
2.982,0.36,1.27,-2.05,-0.38,-0.30,0.40,
2.983,0.38,1.23,-1.59,-0.38,-0.30,0.40,
2.983,0.38,1.23,-1.59,-0.36,-0.30,0.39,
2.987,0.38,1.23,-1.59,-0.33,-0.29,0.39,
2.987,0.38,1.23,-1.59,-0.30,-0.29,0.38,
2.991,0.38,1.23,-1.59,-0.26,-0.28,0.38,
2.991,0.38,1.23,-1.59,-0.24,-0.28,0.37,
2.995,0.32,1.03,-1.23,-0.24,-0.28,0.37,
2.995,0.32,1.03,-1.23,-0.21,-0.28,0.37,
2.995,0.32,1.03,-1.23,-0.18,-0.27,0.37,
3.0,0.32,1.03,-1.23,-0.15,-0.26,0.36,
3.001,0.32,1.03,-1.23,-0.10,-0.25,0.36,
3.001,0.32,1.03,-1.23,-0.08,-0.24,0.36,
3.003,0.09,0.89,-1.15,-0.08,-0.24,0.36,
3.004,0.09,0.89,-1.15,-0.05,-0.23,0.36,
3.005,0.09,0.89,-1.15,-0.01,-0.22,0.37,
3.009,0.09,0.89,-1.15,0.02,-0.21,0.37,
3.009,0.09,0.89,-1.15,0.07,-0.20,0.38,
3.018,0.09,0.89,-1.15,0.08,-0.19,0.38,
3.018,-0.18,0.71,-1.38,0.08,-0.19,0.38,
3.019,-0.18,0.71,-1.38,0.11,-0.18,0.39,
3.019,-0.18,0.71,-1.38,0.14,-0.17,0.39,
3.019,-0.18,0.71,-1.38,0.17,-0.16,0.40,
3.019,-0.18,0.71,-1.38,0.21,-0.15,0.42,
3.05,-0.18,0.71,-1.38,0.22,-0.14,0.42,
3.051,-0.33,0.56,-1.90,0.22,-0.14,0.42,
3.051,-0.33,0.56,-1.90,0.24,-0.14,0.43,
3.051,-0.33,0.56,-1.90,0.26,-0.13,0.43,
3.051,-0.33,0.56,-1.90,0.27,-0.12,0.44,
3.052,-0.33,0.56,-1.90,0.29,-0.12,0.45,
3.052,-0.33,0.56,-1.90,0.30,-0.12,0.45,
3.056,-0.37,0.44,-2.47,0.30,-0.12,0.45,
3.058,-0.37,0.44,-2.47,0.31,-0.12,0.46,
3.06,-0.37,0.44,-2.47,0.32,-0.11,0.47,
3.061,-0.37,0.44,-2.47,0.33,-0.12,0.47,
3.065,-0.37,0.44,-2.47,0.33,-0.12,0.48,
3.065,-0.37,0.44,-2.47,0.34,-0.12,0.48,
3.066,-0.31,0.41,-2.95,0.34,-0.12,0.48,
3.068,-0.31,0.41,-2.95,0.34,-0.12,0.49,
3.069,-0.31,0.41,-2.95,0.34,-0.12,0.49,
3.07,-0.31,0.41,-2.95,0.34,-0.13,0.49,
3.071,-0.31,0.41,-2.95,0.34,-0.14,0.50,
3.071,-0.31,0.41,-2.95,0.34,-0.14,0.50,
3.072,-0.09,0.30,-3.21,0.34,-0.14,0.50,
3.073,-0.09,0.30,-3.21,0.34,-0.15,0.49,
3.074,-0.09,0.30,-3.21,0.34,-0.16,0.49,
3.075,-0.09,0.30,-3.21,0.34,-0.16,0.49,
3.075,-0.09,0.30,-3.21,0.34,-0.18,0.48,
3.076,-0.09,0.30,-3.21,0.35,-0.18,0.48,
3.079,0.19,0.27,-3.05,0.35,-0.18,0.48,
3.081,0.19,0.27,-3.05,0.35,-0.19,0.47,
3.082,0.19,0.27,-3.05,0.36,-0.20,0.46,
3.083,0.19,0.27,-3.05,0.37,-0.21,0.46,
3.084,0.19,0.27,-3.05,0.39,-0.22,0.44,
3.085,0.19,0.27,-3.05,0.39,-0.22,0.44,
3.085,0.30,0.19,-2.65,0.39,-0.22,0.44,
3.085,0.30,0.19,-2.65,0.40,-0.22,0.43,
3.086,0.30,0.19,-2.65,0.42,-0.22,0.42,
3.087,0.30,0.19,-2.65,0.44,-0.22,0.42,
3.087,0.30,0.19,-2.65,0.47,-0.21,0.41,
3.088,0.30,0.19,-2.65,0.48,-0.20,0.40,
3.11,0.28,0.07,-2.28,0.48,-0.20,0.40,
3.111,0.28,0.07,-2.28,0.49,-0.19,0.40,
3.111,0.28,0.07,-2.28,0.51,-0.18,0.39,
3.111,0.28,0.07,-2.28,0.53,-0.16,0.39,
3.111,0.28,0.07,-2.28,0.56,-0.14,0.39,
3.111,0.28,0.07,-2.28,0.57,-0.13,0.39,
3.112,0.13,-0.09,-2.08,0.57,-0.13,0.39,
3.112,0.13,-0.09,-2.08,0.59,-0.11,0.39,
3.112,0.13,-0.09,-2.08,0.61,-0.09,0.39,
3.112,0.13,-0.09,-2.08,0.63,-0.07,0.39,
3.112,0.13,-0.09,-2.08,0.66,-0.04,0.39,
3.113,0.13,-0.09,-2.08,0.66,-0.03,0.40,
3.113,-0.15,-0.19,-2.18,0.66,-0.03,0.40,
3.113,-0.15,-0.19,-2.18,0.68,-0.01,0.40,
3.113,-0.15,-0.19,-2.18,0.69,0.00,0.40,
3.113,-0.15,-0.19,-2.18,0.70,0.01,0.41,
3.114,-0.15,-0.19,-2.18,0.72,0.01,0.42,
3.114,-0.15,-0.19,-2.18,0.72,0.01,0.42,
3.114,-0.41,-0.32,-2.50,0.72,0.01,0.42,
3.114,-0.41,-0.32,-2.50,0.72,0.01,0.43,
3.114,-0.41,-0.32,-2.50,0.73,0.00,0.44,
3.121,-0.41,-0.32,-2.50,0.73,-0.01,0.44,
3.122,-0.41,-0.32,-2.50,0.72,-0.02,0.45,
3.122,-0.41,-0.32,-2.50,0.72,-0.03,0.46,
3.126,-0.59,-0.28,-2.80,0.72,-0.03,0.46,
3.127,-0.59,-0.28,-2.80,0.71,-0.05,0.47,
3.127,-0.59,-0.28,-2.80,0.71,-0.06,0.47,
3.127,-0.59,-0.28,-2.80,0.70,-0.08,0.48,
3.134,-0.59,-0.28,-2.80,0.69,-0.11,0.48,
3.134,-0.59,-0.28,-2.80,0.68,-0.14,0.49,
3.134,-0.46,-0.32,-2.86,0.68,-0.14,0.49,
3.135,-0.46,-0.32,-2.86,0.67,-0.16,0.49,
3.139,-0.46,-0.32,-2.86,0.66,-0.20,0.48,
3.139,-0.46,-0.32,-2.86,0.65,-0.22,0.48,
3.14,-0.46,-0.32,-2.86,0.64,-0.27,0.48,
3.14,-0.46,-0.32,-2.86,0.63,-0.29,0.48,
3.144,-0.18,-0.32,-2.65,0.63,-0.29,0.48,
3.144,-0.18,-0.32,-2.65,0.61,-0.32,0.47,
3.148,-0.18,-0.32,-2.65,0.60,-0.36,0.46,
3.148,-0.18,-0.32,-2.65,0.60,-0.39,0.45,
3.153,-0.18,-0.32,-2.65,0.58,-0.43,0.44,
3.153,-0.18,-0.32,-2.65,0.58,-0.45,0.44,
3.153,0.08,-0.32,-2.09,0.58,-0.45,0.44,
3.153,0.08,-0.32,-2.09,0.57,-0.47,0.42,
3.154,0.08,-0.32,-2.09,0.56,-0.49,0.41,
3.158,0.08,-0.32,-2.09,0.56,-0.51,0.40,
3.167,0.08,-0.32,-2.09,0.54,-0.52,0.38,
3.167,0.08,-0.32,-2.09,0.53,-0.53,0.35,
3.167,0.08,-0.32,-2.09,0.53,-0.53,0.35,
3.168,0.33,-0.34,-1.44,0.53,-0.53,0.35,
3.168,0.33,-0.34,-1.44,0.53,-0.53,0.34,
3.168,0.33,-0.34,-1.44,0.52,-0.53,0.32,
3.169,0.33,-0.34,-1.44,0.51,-0.52,0.29,
3.177,0.33,-0.34,-1.44,0.50,-0.51,0.29,
3.177,0.45,-0.46,-0.90,0.50,-0.51,0.29,
3.178,0.45,-0.46,-0.90,0.50,-0.50,0.27,
3.178,0.45,-0.46,-0.90,0.49,-0.48,0.26,
3.178,0.45,-0.46,-0.90,0.48,-0.46,0.24,
3.202,0.45,-0.46,-0.90,0.46,-0.42,0.23,
3.202,0.45,-0.46,-0.90,0.46,-0.40,0.22,
3.202,0.38,-0.54,-0.43,0.46,-0.40,0.22,
3.203,0.38,-0.54,-0.43,0.45,-0.37,0.21,
3.203,0.38,-0.54,-0.43,0.44,-0.34,0.21,
3.203,0.38,-0.54,-0.43,0.43,-0.30,0.20,
3.203,0.38,-0.54,-0.43,0.41,-0.24,0.18,
3.203,0.38,-0.54,-0.43,0.41,-0.22,0.18,
3.203,0.25,-0.59,-0.22,0.41,-0.22,0.18,
3.203,0.25,-0.59,-0.22,0.39,-0.19,0.17,
3.204,0.25,-0.59,-0.22,0.38,-0.15,0.17,
3.204,0.25,-0.59,-0.22,0.37,-0.11,0.16,
3.204,0.25,-0.59,-0.22,0.34,-0.07,0.15,
3.204,0.25,-0.59,-0.22,0.33,-0.05,0.14,
3.204,0.24,-0.62,-0.20,0.33,-0.05,0.14,
3.204,0.24,-0.62,-0.20,0.32,-0.02,0.14,
3.204,0.24,-0.62,-0.20,0.30,0.01,0.13,
3.209,0.24,-0.62,-0.20,0.29,0.04,0.12,
3.215,0.24,-0.62,-0.20,0.27,0.07,0.11,
3.216,0.24,-0.62,-0.20,0.25,0.09,0.10,
3.216,0.26,-0.53,-0.17,0.25,0.09,0.10,
3.216,0.26,-0.53,-0.17,0.24,0.09,0.10,
3.216,0.26,-0.53,-0.17,0.22,0.11,0.09,
3.216,0.26,-0.53,-0.17,0.21,0.12,0.08,
3.221,0.26,-0.53,-0.17,0.18,0.13,0.06,
3.221,0.26,-0.53,-0.17,0.18,0.14,0.06,
3.223,0.41,-0.41,-0.09,0.18,0.14,0.06,
3.224,0.41,-0.41,-0.09,0.16,0.15,0.04,
3.224,0.41,-0.41,-0.09,0.15,0.15,0.03,
3.229,0.41,-0.41,-0.09,0.14,0.16,0.01,
3.23,0.41,-0.41,-0.09,0.12,0.17,-0.01,
3.231,0.41,-0.41,-0.09,0.12,0.17,-0.02,
3.233,0.46,-0.28,0.01,0.12,0.17,-0.02,
3.233,0.46,-0.28,0.01,0.10,0.17,-0.04,
3.235,0.46,-0.28,0.01,0.08,0.17,-0.05,
3.237,0.46,-0.28,0.01,0.07,0.17,-0.07,
3.24,0.46,-0.28,0.01,0.04,0.17,-0.09,
3.241,0.46,-0.28,0.01,0.02,0.17,-0.11,
3.256,0.39,-0.23,0.00,0.02,0.17,-0.11,
3.257,0.39,-0.23,0.00,0.02,0.17,-0.12,
3.257,0.39,-0.23,0.00,0.00,0.18,-0.12,
3.257,0.39,-0.23,0.00,-0.02,0.18,-0.14,
3.287,0.39,-0.23,0.00,-0.04,0.18,-0.15,
3.287,0.39,-0.23,0.00,-0.06,0.19,-0.16,
3.288,0.08,-0.20,0.10,-0.06,0.19,-0.16,
3.288,0.08,-0.20,0.10,-0.07,0.19,-0.16,
3.289,0.08,-0.20,0.10,-0.09,0.19,-0.17,
3.289,0.08,-0.20,0.10,-0.11,0.19,-0.17,
3.29,0.08,-0.20,0.10,-0.14,0.19,-0.18,
3.29,0.08,-0.20,0.10,-0.15,0.19,-0.18,
3.29,-0.16,-0.26,0.38,-0.15,0.19,-0.18,
3.291,-0.16,-0.26,0.38,-0.16,0.19,-0.18,
3.291,-0.16,-0.26,0.38,-0.18,0.18,-0.18,
3.291,-0.16,-0.26,0.38,-0.20,0.18,-0.18,
3.292,-0.16,-0.26,0.38,-0.22,0.17,-0.18,
3.292,-0.16,-0.26,0.38,-0.24,0.17,-0.17,
3.293,-0.40,-0.33,0.80,-0.24,0.17,-0.17,
3.293,-0.40,-0.33,0.80,-0.25,0.16,-0.17,
3.294,-0.40,-0.33,0.80,-0.26,0.16,-0.16,
3.294,-0.40,-0.33,0.80,-0.27,0.15,-0.15,
3.294,-0.40,-0.33,0.80,-0.29,0.15,-0.14,
3.295,-0.40,-0.33,0.80,-0.30,0.14,-0.13,
3.295,-0.59,-0.38,1.32,-0.30,0.14,-0.13,
3.296,-0.59,-0.38,1.32,-0.30,0.14,-0.12,
3.296,-0.59,-0.38,1.32,-0.31,0.13,-0.12,
3.296,-0.59,-0.38,1.32,-0.31,0.13,-0.10,
3.297,-0.59,-0.38,1.32,-0.31,0.12,-0.09,
3.297,-0.59,-0.38,1.32,-0.31,0.12,-0.08,
3.298,-0.60,-0.42,1.80,-0.31,0.12,-0.08,
3.298,-0.60,-0.42,1.80,-0.31,0.13,-0.06,
3.298,-0.60,-0.42,1.80,-0.31,0.13,-0.06,
3.299,-0.60,-0.42,1.80,-0.31,0.14,-0.05,
3.299,-0.60,-0.42,1.80,-0.30,0.15,-0.03,
3.309,-0.60,-0.42,1.80,-0.29,0.16,-0.02,
3.309,-0.68,-0.37,2.12,-0.29,0.16,-0.02,
3.31,-0.68,-0.37,2.12,-0.29,0.18,-0.01,
3.31,-0.68,-0.37,2.12,-0.28,0.19,0.00,
3.311,-0.68,-0.37,2.12,-0.28,0.21,0.01,
3.311,-0.68,-0.37,2.12,-0.27,0.22,0.02,
3.311,-0.68,-0.37,2.12,-0.27,0.23,0.03,
3.316,-0.65,-0.22,1.95,-0.27,0.23,0.03,
3.317,-0.65,-0.22,1.95,-0.27,0.23,0.03,
3.317,-0.65,-0.22,1.95,-0.28,0.23,0.04,
3.317,-0.65,-0.22,1.95,-0.29,0.21,0.04,
3.321,-0.65,-0.22,1.95,-0.30,0.20,0.04,
3.322,-0.65,-0.22,1.95,-0.32,0.17,0.05,
3.325,-0.65,-0.12,1.32,-0.32,0.17,0.05,
3.326,-0.65,-0.12,1.32,-0.34,0.13,0.05,
3.326,-0.65,-0.12,1.32,-0.37,0.10,0.05,
3.33,-0.65,-0.12,1.32,-0.39,0.05,0.06,
3.331,-0.65,-0.12,1.32,-0.43,0.00,0.06,
3.331,-0.65,-0.12,1.32,-0.46,-0.04,0.07,
3.335,-0.69,-0.07,0.81,-0.46,-0.04,0.07,
3.335,-0.69,-0.07,0.81,-0.50,-0.09,0.07,
3.336,-0.69,-0.07,0.81,-0.54,-0.15,0.08,
3.336,-0.69,-0.07,0.81,-0.57,-0.20,0.08,
3.341,-0.69,-0.07,0.81,-0.61,-0.26,0.09,
3.342,-0.69,-0.07,0.81,-0.64,-0.31,0.09,
3.343,-0.63,0.04,0.88,-0.64,-0.31,0.09,
3.343,-0.63,0.04,0.88,-0.68,-0.36,0.09,
3.344,-0.63,0.04,0.88,-0.72,-0.41,0.09,
3.346,-0.63,0.04,0.88,-0.75,-0.45,0.09,
3.349,-0.63,0.04,0.88,-0.77,-0.49,0.09,
3.351,-0.63,0.04,0.88,-0.79,-0.52,0.09,
3.353,-0.43,-0.01,1.66,-0.79,-0.52,0.09,
3.353,-0.43,-0.01,1.66,-0.82,-0.56,0.10,
3.354,-0.43,-0.01,1.66,-0.83,-0.58,0.10,
3.356,-0.43,-0.01,1.66,-0.84,-0.60,0.10,
3.359,-0.43,-0.01,1.66,-0.85,-0.62,0.10,
3.36,-0.43,-0.01,1.66,-0.86,-0.62,0.11,
3.362,-0.36,-0.03,2.72,-0.86,-0.62,0.11,
3.363,-0.36,-0.03,2.72,-0.86,-0.62,0.12,
3.364,-0.36,-0.03,2.72,-0.86,-0.62,0.12,
3.366,-0.36,-0.03,2.72,-0.86,-0.61,0.13,
3.37,-0.36,-0.03,2.72,-0.85,-0.60,0.14,
3.37,-0.36,-0.03,2.72,-0.84,-0.57,0.14,
3.373,-0.25,-0.06,3.57,-0.84,-0.57,0.14,
3.373,-0.25,-0.06,3.57,-0.83,-0.55,0.15,
3.383,-0.25,-0.06,3.57,-0.82,-0.52,0.16,
3.384,-0.25,-0.06,3.57,-0.81,-0.49,0.16,
3.384,-0.25,-0.06,3.57,-0.80,-0.45,0.17,
3.384,-0.25,-0.06,3.57,-0.79,-0.41,0.18,
3.384,-0.12,-0.09,3.92,-0.79,-0.41,0.18,
3.384,-0.12,-0.09,3.92,-0.78,-0.37,0.18,
3.385,-0.12,-0.09,3.92,-0.77,-0.33,0.19,
3.387,-0.12,-0.09,3.92,-0.76,-0.30,0.20,
3.389,-0.12,-0.09,3.92,-0.74,-0.26,0.21,
3.414,-0.12,-0.09,3.92,-0.73,-0.23,0.22,
3.414,-0.10,-0.04,3.66,-0.73,-0.23,0.22,
3.414,-0.10,-0.04,3.66,-0.73,-0.21,0.23,
3.415,-0.10,-0.04,3.66,-0.72,-0.19,0.24,
3.415,-0.10,-0.04,3.66,-0.72,-0.18,0.25,
3.415,-0.10,-0.04,3.66,-0.71,-0.17,0.26,
3.415,-0.10,-0.04,3.66,-0.71,-0.17,0.26,
3.415,0.01,0.21,3.03,-0.71,-0.17,0.26,
3.416,0.01,0.21,3.03,-0.71,-0.17,0.27,
3.416,0.01,0.21,3.03,-0.72,-0.18,0.26,
3.416,0.01,0.21,3.03,-0.72,-0.20,0.26,
3.416,0.01,0.21,3.03,-0.73,-0.22,0.26,
3.416,0.01,0.21,3.03,-0.73,-0.25,0.25,
3.417,0.30,0.45,2.34,-0.73,-0.25,0.25,
3.417,0.30,0.45,2.34,-0.74,-0.28,0.24,
3.436,0.30,0.45,2.34,-0.74,-0.32,0.23,
3.437,0.30,0.45,2.34,-0.75,-0.36,0.22,
3.437,0.30,0.45,2.34,-0.76,-0.40,0.21,
3.437,0.30,0.45,2.34,-0.76,-0.45,0.20,
3.437,0.40,0.65,1.99,-0.76,-0.45,0.20,
3.437,0.40,0.65,1.99,-0.76,-0.49,0.20,
3.438,0.40,0.65,1.99,-0.76,-0.54,0.19,
3.438,0.40,0.65,1.99,-0.76,-0.59,0.18,
3.438,0.40,0.65,1.99,-0.75,-0.64,0.17,
3.438,0.40,0.65,1.99,-0.75,-0.68,0.17,
3.438,0.26,0.73,1.92,-0.75,-0.68,0.17,
3.439,0.26,0.73,1.92,-0.75,-0.73,0.16,
3.439,0.26,0.73,1.92,-0.74,-0.77,0.16,
3.444,0.26,0.73,1.92,-0.74,-0.80,0.16,
3.445,0.26,0.73,1.92,-0.74,-0.85,0.15,
3.445,0.26,0.73,1.92,-0.74,-0.87,0.15,
3.445,0.11,0.65,1.90,-0.74,-0.87,0.15,
3.445,0.11,0.65,1.90,-0.73,-0.89,0.16,
3.445,0.11,0.65,1.90,-0.72,-0.91,0.16,
3.447,0.11,0.65,1.90,-0.72,-0.93,0.16,
3.45,0.11,0.65,1.90,-0.71,-0.95,0.17,
3.455,0.11,0.65,1.90,-0.70,-0.96,0.17,
3.455,-0.09,0.53,1.90,-0.70,-0.96,0.17,
3.455,-0.09,0.53,1.90,-0.70,-0.96,0.18,
3.456,-0.09,0.53,1.90,-0.69,-0.96,0.19,
3.457,-0.09,0.53,1.90,-0.68,-0.96,0.20,
3.459,-0.09,0.53,1.90,-0.67,-0.95,0.21,
3.461,-0.09,0.53,1.90,-0.66,-0.94,0.22,
3.463,-0.28,0.49,1.90,-0.66,-0.94,0.22,
3.463,-0.28,0.49,1.90,-0.64,-0.92,0.23,
3.465,-0.28,0.49,1.90,-0.62,-0.90,0.24,
3.466,-0.28,0.49,1.90,-0.61,-0.89,0.25,
3.469,-0.28,0.49,1.90,-0.59,-0.86,0.27,
3.478,-0.28,0.49,1.90,-0.57,-0.84,0.28,
3.478,-0.28,0.47,1.89,-0.57,-0.84,0.28,
3.479,-0.28,0.47,1.89,-0.55,-0.81,0.29,
3.479,-0.28,0.47,1.89,-0.53,-0.79,0.30,
3.479,-0.28,0.47,1.89,-0.51,-0.76,0.30,
3.48,-0.28,0.47,1.89,-0.47,-0.71,0.32,
3.483,-0.28,0.47,1.89,-0.46,-0.69,0.32,
3.485,-0.18,0.51,1.83,-0.46,-0.69,0.32,
3.485,-0.18,0.51,1.83,-0.44,-0.65,0.33,
3.485,-0.18,0.51,1.83,-0.40,-0.62,0.34,
3.489,-0.18,0.51,1.83,-0.37,-0.57,0.34,
3.489,-0.18,0.51,1.83,-0.34,-0.53,0.35,
3.491,-0.18,0.51,1.83,-0.31,-0.48,0.35,
3.494,-0.06,0.63,1.66,-0.31,-0.48,0.35,
3.494,-0.06,0.63,1.66,-0.27,-0.42,0.36,
3.495,-0.06,0.63,1.66,-0.24,-0.37,0.36,
3.497,-0.06,0.63,1.66,-0.21,-0.30,0.36,
3.499,-0.06,0.63,1.66,-0.18,-0.24,0.37,
3.5,-0.06,0.63,1.66,-0.16,-0.17,0.37,
3.503,0.00,0.75,1.10,-0.16,-0.17,0.37,
3.503,0.00,0.75,1.10,-0.13,-0.11,0.37,
3.505,0.00,0.75,1.10,-0.11,-0.04,0.38,
3.512,0.00,0.75,1.10,-0.09,0.03,0.38,
3.513,0.00,0.75,1.10,-0.06,0.14,0.38,
3.513,0.00,0.75,1.10,-0.05,0.17,0.38,
3.513,0.04,0.76,0.23,-0.05,0.17,0.38,
3.513,0.04,0.76,0.23,-0.03,0.24,0.39,
3.515,0.04,0.76,0.23,-0.02,0.31,0.39,
3.517,0.04,0.76,0.23,0.00,0.37,0.39,
3.52,0.04,0.76,0.23,0.02,0.43,0.39,
3.52,0.04,0.76,0.23,0.04,0.49,0.40,
3.54,0.02,0.80,-0.65,0.04,0.49,0.40,
3.541,0.02,0.80,-0.65,0.06,0.54,0.40,
3.541,0.02,0.80,-0.65,0.07,0.58,0.40,
3.541,0.02,0.80,-0.65,0.09,0.62,0.40,
3.542,0.02,0.80,-0.65,0.13,0.66,0.41,
3.542,0.02,0.80,-0.65,0.14,0.68,0.41,
3.542,-0.11,0.81,-1.39,0.14,0.68,0.41,
3.542,-0.11,0.81,-1.39,0.16,0.70,0.41,
3.542,-0.11,0.81,-1.39,0.19,0.72,0.41,
3.543,-0.11,0.81,-1.39,0.22,0.73,0.42,
3.543,-0.11,0.81,-1.39,0.26,0.73,0.42,
3.543,-0.11,0.81,-1.39,0.28,0.73,0.43,
3.543,-0.27,0.88,-2.06,0.28,0.73,0.43,
3.543,-0.27,0.88,-2.06,0.30,0.72,0.43,
3.544,-0.27,0.88,-2.06,0.33,0.71,0.43,
3.547,-0.27,0.88,-2.06,0.36,0.69,0.44,
3.549,-0.27,0.88,-2.06,0.41,0.65,0.44,
3.551,-0.27,0.88,-2.06,0.42,0.63,0.44,
3.553,-0.38,0.78,-2.65,0.42,0.63,0.44,
3.554,-0.38,0.78,-2.65,0.45,0.60,0.45,
3.554,-0.38,0.78,-2.65,0.48,0.56,0.45,
3.558,-0.38,0.78,-2.65,0.51,0.52,0.45,
3.56,-0.38,0.78,-2.65,0.55,0.45,0.46,
3.56,-0.38,0.78,-2.65,0.56,0.42,0.47,
3.563,-0.58,0.70,-3.20,0.56,0.42,0.47,
3.563,-0.58,0.70,-3.20,0.59,0.38,0.47,
3.564,-0.58,0.70,-3.20,0.62,0.32,0.48,
3.566,-0.58,0.70,-3.20,0.65,0.27,0.48,
3.57,-0.58,0.70,-3.20,0.68,0.18,0.49,
3.57,-0.58,0.70,-3.20,0.69,0.16,0.49,
3.574,-0.73,0.54,-3.56,0.69,0.16,0.49,
3.575,-0.73,0.54,-3.56,0.72,0.10,0.50,
3.575,-0.73,0.54,-3.56,0.74,0.05,0.50,
3.577,-0.73,0.54,-3.56,0.76,-0.01,0.51,
3.58,-0.73,0.54,-3.56,0.78,-0.09,0.51,
3.581,-0.73,0.54,-3.56,0.79,-0.11,0.52,
3.612,-0.84,0.39,-3.87,0.79,-0.11,0.52,
3.612,-0.84,0.39,-3.87,0.80,-0.16,0.52,
3.612,-0.84,0.39,-3.87,0.81,-0.20,0.52,
3.612,-0.84,0.39,-3.87,0.82,-0.25,0.53,
3.613,-0.84,0.39,-3.87,0.83,-0.31,0.54,
3.613,-0.84,0.39,-3.87,0.83,-0.33,0.54,
3.613,-0.93,0.21,-3.92,0.83,-0.33,0.54,
3.614,-0.93,0.21,-3.92,0.83,-0.36,0.54,
3.614,-0.93,0.21,-3.92,0.84,-0.39,0.54,
3.614,-0.93,0.21,-3.92,0.84,-0.41,0.55,
3.614,-0.93,0.21,-3.92,0.85,-0.44,0.55,
3.615,-0.93,0.21,-3.92,0.86,-0.45,0.55,
3.615,-0.88,0.12,-3.49,0.86,-0.45,0.55,
3.615,-0.88,0.12,-3.49,0.86,-0.46,0.55,
3.615,-0.88,0.12,-3.49,0.87,-0.46,0.55,
3.616,-0.88,0.12,-3.49,0.88,-0.47,0.56,
3.616,-0.88,0.12,-3.49,0.89,-0.46,0.56,
3.616,-0.88,0.12,-3.49,0.90,-0.46,0.56,
3.616,-0.75,0.01,-2.88,0.90,-0.46,0.56,
3.617,-0.75,0.01,-2.88,0.91,-0.46,0.55,
3.617,-0.75,0.01,-2.88,0.92,-0.45,0.55,
3.617,-0.75,0.01,-2.88,0.93,-0.44,0.55,
3.623,-0.75,0.01,-2.88,0.95,-0.43,0.54,
3.624,-0.75,0.01,-2.88,0.96,-0.42,0.54,
3.624,-0.57,0.03,-2.43,0.96,-0.42,0.54,
3.624,-0.57,0.03,-2.43,0.96,-0.41,0.53,
3.625,-0.57,0.03,-2.43,0.97,-0.40,0.52,
3.627,-0.57,0.03,-2.43,0.98,-0.38,0.51,
3.629,-0.57,0.03,-2.43,0.99,-0.37,0.49,
3.63,-0.57,0.03,-2.43,0.99,-0.36,0.48,
3.633,-0.27,0.08,-2.38,0.99,-0.36,0.48,
3.633,-0.27,0.08,-2.38,0.99,-0.34,0.46,
3.634,-0.27,0.08,-2.38,0.99,-0.34,0.44,
3.636,-0.27,0.08,-2.38,0.98,-0.32,0.43,
3.641,-0.27,0.08,-2.38,0.96,-0.31,0.40,
3.641,-0.27,0.08,-2.38,0.96,-0.31,0.39,
3.643,-0.10,0.17,-2.69,0.96,-0.31,0.39,
3.643,-0.10,0.17,-2.69,0.95,-0.30,0.37,
3.644,-0.10,0.17,-2.69,0.93,-0.30,0.35,
3.647,-0.10,0.17,-2.69,0.91,-0.29,0.33,
3.649,-0.10,0.17,-2.69,0.88,-0.29,0.30,
3.65,-0.10,0.17,-2.69,0.87,-0.29,0.28,
3.653,0.05,0.27,-2.96,0.87,-0.29,0.28,
3.653,0.05,0.27,-2.96,0.85,-0.29,0.26,
3.654,0.05,0.27,-2.96,0.82,-0.31,0.24,
3.663,0.05,0.27,-2.96,0.80,-0.32,0.21,
3.663,0.05,0.27,-2.96,0.76,-0.35,0.17,
3.663,0.05,0.27,-2.96,0.74,-0.36,0.16,
3.664,0.05,0.27,-2.96,0.72,-0.39,0.13,
3.664,0.33,0.31,-2.96,0.72,-0.39,0.13,
3.667,0.33,0.31,-2.96,0.66,-0.45,0.07,
3.669,0.33,0.31,-2.96,0.66,-0.45,0.07,
3.67,0.33,0.31,-2.96,0.62,-0.50,0.03,
3.671,0.33,0.31,-2.96,0.61,-0.51,0.01,
3.695,0.52,0.32,-2.51,0.61,-0.51,0.01,
3.695,0.52,0.32,-2.51,0.59,-0.55,-0.01,
3.695,0.52,0.32,-2.51,0.57,-0.58,-0.04,
3.695,0.52,0.32,-2.51,0.55,-0.62,-0.07,
3.696,0.52,0.32,-2.51,0.52,-0.67,-0.12,
3.696,0.52,0.32,-2.51,0.52,-0.69,-0.14,
3.696,0.67,0.44,-1.73,0.52,-0.69,-0.14,
3.696,0.67,0.44,-1.73,0.50,-0.73,-0.17,
3.696,0.67,0.44,-1.73,0.49,-0.76,-0.21,
3.696,0.67,0.44,-1.73,0.47,-0.80,-0.24,
3.697,0.67,0.44,-1.73,0.46,-0.84,-0.29,
3.697,0.67,0.44,-1.73,0.45,-0.85,-0.31,
3.697,0.77,0.42,-0.71,0.45,-0.85,-0.31,
3.697,0.77,0.42,-0.71,0.44,-0.87,-0.34,
3.697,0.77,0.42,-0.71,0.44,-0.88,-0.38,
3.697,0.77,0.42,-0.71,0.43,-0.89,-0.42,
3.701,0.77,0.42,-0.71,0.43,-0.88,-0.47,
3.702,0.77,0.42,-0.71,0.42,-0.88,-0.49,
3.705,0.93,0.24,0.30,0.42,-0.88,-0.49,
3.705,0.93,0.24,0.30,0.42,-0.86,-0.52,
3.706,0.93,0.24,0.30,0.42,-0.84,-0.55,
3.71,0.93,0.24,0.30,0.42,-0.81,-0.58,
3.711,0.93,0.24,0.30,0.41,-0.75,-0.63,
3.711,0.93,0.24,0.30,0.41,-0.73,-0.64,
3.715,0.97,-0.02,1.12,0.41,-0.73,-0.64,
3.715,0.97,-0.02,1.12,0.41,-0.68,-0.67,
3.715,0.97,-0.02,1.12,0.41,-0.62,-0.70,
3.719,0.97,-0.02,1.12,0.41,-0.57,-0.72,
3.721,0.97,-0.02,1.12,0.41,-0.48,-0.75,
3.722,0.97,-0.02,1.12,0.41,-0.44,-0.75,
3.726,0.58,-0.16,1.65,0.41,-0.44,-0.75,
3.727,0.58,-0.16,1.65,0.41,-0.38,-0.76,
3.727,0.58,-0.16,1.65,0.41,-0.32,-0.77,
3.727,0.58,-0.16,1.65,0.41,-0.27,-0.78,
3.732,0.58,-0.16,1.65,0.41,-0.19,-0.79,
3.733,0.58,-0.16,1.65,0.41,-0.16,-0.79,
3.733,0.13,-0.19,1.78,0.41,-0.16,-0.79,
3.733,0.13,-0.19,1.78,0.40,-0.12,-0.80,
3.737,0.13,-0.19,1.78,0.39,-0.08,-0.80,
3.737,0.13,-0.19,1.78,0.38,-0.04,-0.80,
3.741,0.13,-0.19,1.78,0.36,0.00,-0.81,
3.741,0.13,-0.19,1.78,0.35,0.02,-0.80,
3.747,-0.11,-0.26,1.54,0.35,0.02,-0.80,
3.748,-0.11,-0.26,1.54,0.34,0.04,-0.80,
3.748,-0.11,-0.26,1.54,0.33,0.05,-0.80,
3.748,-0.11,-0.26,1.54,0.30,0.06,-0.80,
3.767,-0.11,-0.26,1.54,0.27,0.07,-0.80,
3.767,-0.11,-0.26,1.54,0.26,0.08,-0.80,
3.767,-0.09,-0.27,1.25,0.26,0.08,-0.80,
3.767,-0.09,-0.27,1.25,0.24,0.08,-0.80,
3.768,-0.09,-0.27,1.25,0.22,0.08,-0.80,
3.768,-0.09,-0.27,1.25,0.20,0.08,-0.81,
3.768,-0.09,-0.27,1.25,0.16,0.07,-0.81,
3.768,-0.09,-0.27,1.25,0.15,0.07,-0.82,
3.768,0.12,-0.15,1.12,0.15,0.07,-0.82,
3.769,0.12,-0.15,1.12,0.12,0.06,-0.82,
3.769,0.12,-0.15,1.12,0.10,0.05,-0.83,
3.769,0.12,-0.15,1.12,0.08,0.03,-0.84,
3.769,0.12,-0.15,1.12,0.04,0.01,-0.85,
3.776,0.12,-0.15,1.12,0.03,-0.00,-0.86,
3.777,0.37,-0.07,1.31,0.03,-0.00,-0.86,
3.777,0.37,-0.07,1.31,0.01,-0.02,-0.87,
3.777,0.37,-0.07,1.31,-0.00,-0.03,-0.88,
3.777,0.37,-0.07,1.31,-0.02,-0.04,-0.89,
3.781,0.37,-0.07,1.31,-0.04,-0.05,-0.90,
3.781,0.37,-0.07,1.31,-0.04,-0.05,-0.91,
3.785,0.56,-0.05,1.75,-0.04,-0.05,-0.91,
3.786,0.56,-0.05,1.75,-0.06,-0.05,-0.91,
3.786,0.56,-0.05,1.75,-0.07,-0.04,-0.92,
3.786,0.56,-0.05,1.75,-0.09,-0.03,-0.92,
3.791,0.56,-0.05,1.75,-0.11,-0.01,-0.93,
3.791,0.56,-0.05,1.75,-0.12,0.00,-0.93,
3.793,0.67,0.01,2.07,-0.12,0.00,-0.93,
3.797,0.67,0.01,2.07,-0.13,0.02,-0.94,
3.797,0.67,0.01,2.07,-0.15,0.05,-0.94,
3.797,0.67,0.01,2.07,-0.17,0.07,-0.95,
3.801,0.67,0.01,2.07,-0.21,0.11,-0.96,
3.801,0.67,0.01,2.07,-0.22,0.12,-0.96,
3.805,0.81,0.07,1.97,-0.22,0.12,-0.96,
3.805,0.81,0.07,1.97,-0.26,0.15,-0.97,
3.805,0.81,0.07,1.97,-0.29,0.17,-0.99,
3.812,0.81,0.07,1.97,-0.32,0.19,-1.00,
3.812,0.81,0.07,1.97,-0.38,0.21,-1.03,
3.813,0.81,0.07,1.97,-0.40,0.22,-1.03,
3.813,1.14,0.22,1.50,-0.40,0.22,-1.03,
3.813,1.14,0.22,1.50,-0.45,0.22,-1.05,
3.815,1.14,0.22,1.50,-0.51,0.22,-1.07,
3.819,1.14,0.22,1.50,-0.57,0.21,-1.09,
3.822,1.14,0.22,1.50,-0.67,0.19,-1.13,
3.834,1.14,0.22,1.50,-0.71,0.17,-1.14,
3.835,1.47,0.32,0.88,-0.71,0.17,-1.14,
3.835,1.47,0.32,0.88,-0.78,0.15,-1.17,
3.835,1.47,0.32,0.88,-0.86,0.12,-1.19,
3.835,1.47,0.32,0.88,-0.95,0.09,-1.22,
3.836,1.47,0.32,0.88,-1.08,0.05,-1.26,
3.836,1.47,0.32,0.88,-1.12,0.04,-1.28,
3.836,1.71,0.29,0.91,-1.12,0.04,-1.28,
3.836,1.71,0.29,0.91,-1.20,0.02,-1.31,
3.836,1.71,0.29,0.91,-1.28,0.01,-1.34,
3.837,1.71,0.29,0.91,-1.35,0.00,-1.37,
3.84,1.71,0.29,0.91,-1.45,-0.00,-1.41,
3.841,1.71,0.29,0.91,-1.48,-0.00,-1.42,
3.843,1.69,0.08,1.91,-1.48,-0.00,-1.42,
3.843,1.69,0.08,1.91,-1.54,0.01,-1.45,
3.845,1.69,0.08,1.91,-1.59,0.03,-1.47,
3.847,1.69,0.08,1.91,-1.64,0.05,-1.48,
3.849,1.69,0.08,1.91,-1.69,0.09,-1.49,
3.853,1.69,0.08,1.91,-1.70,0.11,-1.49,
3.856,1.05,-0.30,3.36,-1.70,0.11,-1.49,
3.856,1.05,-0.30,3.36,-1.73,0.15,-1.49,
3.856,1.05,-0.30,3.36,-1.75,0.19,-1.49,
3.857,1.05,-0.30,3.36,-1.77,0.24,-1.47,
3.861,1.05,-0.30,3.36,-1.77,0.31,-1.45,
3.861,1.05,-0.30,3.36,-1.78,0.34,-1.44,
3.863,0.14,-0.66,4.61,-1.78,0.34,-1.44,
3.863,0.14,-0.66,4.61,-1.78,0.40,-1.41,
3.864,0.14,-0.66,4.61,-1.77,0.45,-1.38,
3.866,0.14,-0.66,4.61,-1.76,0.50,-1.35,
3.873,0.14,-0.66,4.61,-1.73,0.58,-1.30,
3.873,0.14,-0.66,4.61,-1.71,0.61,-1.28,
3.873,-0.71,-0.73,5.35,-1.71,0.61,-1.28,
3.873,-0.71,-0.73,5.35,-1.68,0.65,-1.24,
3.876,-0.71,-0.73,5.35,-1.65,0.70,-1.19,
3.876,-0.71,-0.73,5.35,-1.62,0.74,-1.15,
3.88,-0.71,-0.73,5.35,-1.56,0.80,-1.08,
3.88,-0.71,-0.73,5.35,-1.53,0.81,-1.06,
3.883,-1.43,-0.47,5.58,-1.53,0.81,-1.06,
3.883,-1.43,-0.47,5.58,-1.48,0.84,-1.01,
3.885,-1.43,-0.47,5.58,-1.43,0.86,-0.96,
3.886,-1.43,-0.47,5.58,-1.37,0.88,-0.92,
3.89,-1.43,-0.47,5.58,-1.27,0.90,-0.85,
3.89,-1.43,-0.47,5.58,-1.24,0.90,-0.83,
3.893,-1.71,0.01,5.24,-1.24,0.90,-0.83,
3.893,-1.71,0.01,5.24,-1.17,0.90,-0.79,
3.894,-1.71,0.01,5.24,-1.10,0.90,-0.74,
3.896,-1.71,0.01,5.24,-1.03,0.89,-0.70,
3.899,-1.71,0.01,5.24,-0.92,0.87,-0.64,
3.9,-1.71,0.01,5.24,-0.89,0.86,-0.61,
3.903,-1.77,0.43,4.33,-0.89,0.86,-0.61,
3.903,-1.77,0.43,4.33,-0.82,0.83,-0.58,
3.905,-1.77,0.43,4.33,-0.74,0.80,-0.54,
3.908,-1.77,0.43,4.33,-0.67,0.76,-0.50,
3.91,-1.77,0.43,4.33,-0.57,0.69,-0.44,
3.912,-1.77,0.43,4.33,-0.53,0.67,-0.42,
3.913,-1.64,0.79,2.97,-0.53,0.67,-0.42,
3.914,-1.64,0.79,2.97,-0.47,0.62,-0.38,
3.937,-1.64,0.79,2.97,-0.41,0.56,-0.34,
3.937,-1.64,0.79,2.97,-0.35,0.50,-0.30,
3.938,-1.64,0.79,2.97,-0.27,0.40,-0.25,
3.938,-1.64,0.79,2.97,-0.25,0.36,-0.23,
3.938,-1.49,1.10,1.31,-0.25,0.36,-0.23,
3.938,-1.49,1.10,1.31,-0.20,0.29,-0.20,
3.939,-1.49,1.10,1.31,-0.16,0.21,-0.17,
3.939,-1.49,1.10,1.31,-0.13,0.13,-0.14,
3.939,-1.49,1.10,1.31,-0.09,0.01,-0.10,
3.939,-1.49,1.10,1.31,-0.08,-0.04,-0.09,
3.94,-1.11,1.40,-0.40,-0.08,-0.04,-0.09,
3.94,-1.11,1.40,-0.40,-0.07,-0.12,-0.07,
3.94,-1.11,1.40,-0.40,-0.06,-0.21,-0.05,
3.94,-1.11,1.40,-0.40,-0.05,-0.29,-0.03,
3.941,-1.11,1.40,-0.40,-0.06,-0.41,-0.01,
3.941,-1.11,1.40,-0.40,-0.06,-0.45,-0.01,
3.955,-0.47,1.81,-1.87,-0.06,-0.45,-0.01,
3.956,-0.47,1.81,-1.87,-0.08,-0.53,0.00,
3.957,-0.47,1.81,-1.87,-0.09,-0.60,0.01,
3.957,-0.47,1.81,-1.87,-0.12,-0.67,0.01,
3.957,-0.47,1.81,-1.87,-0.16,-0.76,0.00,
3.957,-0.47,1.81,-1.87,-0.18,-0.79,-0.00,
3.958,0.28,1.94,-2.90,-0.18,-0.79,-0.00,
3.958,0.28,1.94,-2.90,-0.21,-0.85,-0.01,
3.958,0.28,1.94,-2.90,-0.25,-0.89,-0.01,
3.958,0.28,1.94,-2.90,-0.28,-0.94,-0.02,
3.967,0.28,1.94,-2.90,-0.34,-0.99,-0.04,
3.968,0.28,1.94,-2.90,-0.36,-1.01,-0.04,
3.968,0.83,2.12,-3.34,-0.36,-1.01,-0.04,
3.969,0.83,2.12,-3.34,-0.41,-1.03,-0.05,
3.969,0.83,2.12,-3.34,-0.45,-1.06,-0.06,
3.969,0.83,2.12,-3.34,-0.49,-1.07,-0.07,
3.97,0.83,2.12,-3.34,-0.56,-1.08,-0.09,
3.985,0.83,2.12,-3.34,-0.58,-1.08,-0.09,
3.985,1.25,1.99,-3.26,-0.58,-1.08,-0.09,
3.986,1.25,1.99,-3.26,-0.62,-1.08,-0.11,
3.986,1.25,1.99,-3.26,-0.67,-1.07,-0.12,
3.986,1.25,1.99,-3.26,-0.71,-1.05,-0.14,
3.986,1.25,1.99,-3.26,-0.76,-1.02,-0.16,
3.987,1.25,1.99,-3.26,-0.78,-1.01,-0.17,
3.987,1.57,1.93,-2.72,-0.78,-1.01,-0.17,
3.987,1.57,1.93,-2.72,-0.81,-0.98,-0.19,
3.987,1.57,1.93,-2.72,-0.84,-0.95,-0.20,
4.002,1.57,1.93,-2.72,-0.87,-0.90,-0.22,
4.003,1.57,1.93,-2.72,-0.90,-0.84,-0.24,
4.003,1.57,1.93,-2.72,-0.91,-0.81,-0.24,
4.003,1.56,1.79,-1.69,-0.91,-0.81,-0.24,
4.004,1.56,1.79,-1.69,-0.92,-0.76,-0.26,
4.004,1.56,1.79,-1.69,-0.92,-0.71,-0.27,
4.004,1.56,1.79,-1.69,-0.92,-0.65,-0.28,
4.004,1.56,1.79,-1.69,-0.91,-0.56,-0.29,
4.005,1.56,1.79,-1.69,-0.90,-0.53,-0.30,
4.005,1.46,1.66,-0.56,-0.90,-0.53,-0.30,
4.005,1.46,1.66,-0.56,-0.89,-0.47,-0.30,
4.005,1.46,1.66,-0.56,-0.87,-0.40,-0.31,
4.009,1.46,1.66,-0.56,-0.84,-0.34,-0.32,
4.009,1.46,1.66,-0.56,-0.80,-0.25,-0.32,
4.01,1.46,1.66,-0.56,-0.79,-0.22,-0.32,
4.013,1.20,1.50,0.28,-0.79,-0.22,-0.32,
4.013,1.20,1.50,0.28,-0.75,-0.16,-0.32,
4.015,1.20,1.50,0.28,-0.71,-0.10,-0.32,
4.016,1.20,1.50,0.28,-0.67,-0.05,-0.32,
4.019,1.20,1.50,0.28,-0.61,0.02,-0.32,
4.02,1.20,1.50,0.28,-0.59,0.05,-0.32,
4.023,0.97,1.39,0.60,-0.59,0.05,-0.32,
4.023,0.97,1.39,0.60,-0.55,0.09,-0.32,
4.024,0.97,1.39,0.60,-0.50,0.13,-0.32,
4.026,0.97,1.39,0.60,-0.46,0.17,-0.32,
4.029,0.97,1.39,0.60,-0.39,0.23,-0.31,
4.03,0.97,1.39,0.60,-0.36,0.24,-0.31,
4.033,0.65,1.23,0.49,-0.36,0.24,-0.31,
4.034,0.65,1.23,0.49,-0.32,0.27,-0.31,
4.034,0.65,1.23,0.49,-0.27,0.30,-0.30,
4.037,0.65,1.23,0.49,-0.22,0.33,-0.29,
4.04,0.65,1.23,0.49,-0.15,0.36,-0.28,
4.04,0.65,1.23,0.49,-0.13,0.37,-0.27,
4.043,0.24,1.10,0.02,-0.13,0.37,-0.27,
4.044,0.24,1.10,0.02,-0.09,0.39,-0.26,
4.044,0.24,1.10,0.02,-0.05,0.40,-0.25,
4.046,0.24,1.10,0.02,-0.01,0.41,-0.24,
4.05,0.24,1.10,0.02,0.05,0.42,-0.22,
4.051,0.24,1.10,0.02,0.07,0.42,-0.22,
4.053,-0.18,0.94,-0.69,0.07,0.42,-0.22,
4.053,-0.18,0.94,-0.69,0.10,0.42,-0.21,
4.061,-0.18,0.94,-0.69,0.14,0.42,-0.19,
4.062,-0.18,0.94,-0.69,0.17,0.42,-0.18,
4.062,-0.18,0.94,-0.69,0.22,0.42,-0.16,
4.062,-0.18,0.94,-0.69,0.24,0.42,-0.15,
4.063,-0.60,0.82,-1.37,0.24,0.42,-0.15,
4.063,-0.60,0.82,-1.37,0.27,0.43,-0.14,
4.064,-0.60,0.82,-1.37,0.30,0.43,-0.12,
4.066,-0.60,0.82,-1.37,0.33,0.43,-0.10,
4.069,-0.60,0.82,-1.37,0.38,0.42,-0.08,
4.089,-0.60,0.82,-1.37,0.39,0.42,-0.07,
4.09,-0.99,0.56,-1.97,0.39,0.42,-0.07,
4.09,-0.99,0.56,-1.97,0.42,0.42,-0.05,
4.09,-0.99,0.56,-1.97,0.45,0.41,-0.03,
4.09,-0.99,0.56,-1.97,0.48,0.40,-0.01,
4.09,-0.99,0.56,-1.97,0.52,0.39,0.02,
4.09,-0.99,0.56,-1.97,0.53,0.39,0.03,
4.106,-1.43,0.39,-2.46,0.53,0.39,0.03,
4.106,-1.43,0.39,-2.46,0.56,0.38,0.06,
4.107,-1.43,0.39,-2.46,0.59,0.38,0.09,
4.107,-1.43,0.39,-2.46,0.61,0.37,0.11,
4.107,-1.43,0.39,-2.46,0.66,0.36,0.15,
4.107,-1.43,0.39,-2.46,0.68,0.36,0.17,
4.107,-1.69,0.15,-2.76,0.68,0.36,0.17,
4.107,-1.69,0.15,-2.76,0.70,0.35,0.20,
4.108,-1.69,0.15,-2.76,0.73,0.34,0.23,
4.108,-1.69,0.15,-2.76,0.77,0.33,0.26,
4.108,-1.69,0.15,-2.76,0.82,0.32,0.31,
4.108,-1.69,0.15,-2.76,0.83,0.31,0.32,
4.108,-1.88,-0.05,-2.91,0.83,0.31,0.32,
4.108,-1.88,-0.05,-2.91,0.86,0.30,0.35,
4.108,-1.88,-0.05,-2.91,0.90,0.29,0.39,
4.109,-1.88,-0.05,-2.91,0.93,0.27,0.42,
4.112,-1.88,-0.05,-2.91,0.98,0.25,0.47,
4.112,-1.88,-0.05,-2.91,0.99,0.24,0.49,
4.113,-1.88,-0.26,-2.98,0.99,0.24,0.49,
4.113,-1.88,-0.26,-2.98,1.03,0.23,0.52,
4.114,-1.88,-0.26,-2.98,1.06,0.21,0.56,
4.116,-1.88,-0.26,-2.98,1.09,0.18,0.59,
4.119,-1.88,-0.26,-2.98,1.13,0.14,0.64,
4.125,-1.88,-0.26,-2.98,1.15,0.13,0.66,
4.125,-1.82,-0.40,-2.98,1.15,0.13,0.66,
4.125,-1.82,-0.40,-2.98,1.18,0.10,0.69,
4.125,-1.82,-0.40,-2.98,1.21,0.07,0.72,
4.127,-1.82,-0.40,-2.98,1.24,0.05,0.74,
4.129,-1.82,-0.40,-2.98,1.29,0.01,0.78,
4.13,-1.82,-0.40,-2.98,1.30,-0.01,0.79,
4.133,-1.63,-0.51,-2.86,1.30,-0.01,0.79,
4.133,-1.63,-0.51,-2.86,1.33,-0.03,0.82,
4.134,-1.63,-0.51,-2.86,1.36,-0.06,0.84,
4.138,-1.63,-0.51,-2.86,1.39,-0.09,0.86,
4.139,-1.63,-0.51,-2.86,1.42,-0.12,0.89,
4.14,-1.63,-0.51,-2.86,1.43,-0.14,0.90,
4.145,-1.29,-0.53,-2.81,1.43,-0.14,0.90,
4.145,-1.29,-0.53,-2.81,1.45,-0.16,0.91,
4.146,-1.29,-0.53,-2.81,1.47,-0.18,0.93,
4.148,-1.29,-0.53,-2.81,1.49,-0.20,0.94,
4.149,-1.29,-0.53,-2.81,1.51,-0.23,0.95,
4.151,-1.29,-0.53,-2.81,1.52,-0.23,0.95,
4.153,-0.94,-0.59,-2.81,1.52,-0.23,0.95,
4.153,-0.94,-0.59,-2.81,1.53,-0.25,0.95,
4.155,-0.94,-0.59,-2.81,1.54,-0.26,0.95,
4.157,-0.94,-0.59,-2.81,1.55,-0.27,0.95,
4.163,-0.94,-0.59,-2.81,1.56,-0.29,0.95,
4.163,-0.94,-0.59,-2.81,1.56,-0.30,0.95,
4.164,-0.94,-0.59,-2.81,1.56,-0.30,0.95,
4.164,-0.65,-0.61,-2.82,1.56,-0.30,0.95,
4.164,-0.65,-0.61,-2.82,1.55,-0.30,0.95,
4.166,-0.65,-0.61,-2.82,1.55,-0.31,0.94,
4.169,-0.65,-0.61,-2.82,1.53,-0.31,0.93,
4.171,-0.65,-0.61,-2.82,1.52,-0.31,0.93,
4.174,-0.36,-0.73,-2.85,1.52,-0.31,0.93,
4.175,-0.36,-0.73,-2.85,1.51,-0.31,0.92,
4.175,-0.36,-0.73,-2.85,1.49,-0.30,0.92,
4.179,-0.36,-0.73,-2.85,1.46,-0.30,0.91,
4.181,-0.36,-0.73,-2.85,1.43,-0.29,0.91,
4.181,-0.36,-0.73,-2.85,1.41,-0.28,0.90,
4.183,-0.19,-0.79,-2.85,1.41,-0.28,0.90,
4.183,-0.19,-0.79,-2.85,1.38,-0.27,0.90,
4.185,-0.19,-0.79,-2.85,1.34,-0.25,0.89,
4.186,-0.19,-0.79,-2.85,1.32,-0.24,0.89,
4.19,-0.19,-0.79,-2.85,1.27,-0.22,0.88,
4.191,-0.19,-0.79,-2.85,1.25,-0.22,0.87,
4.193,-0.13,-0.82,-2.71,1.25,-0.22,0.87,
4.193,-0.13,-0.82,-2.71,1.21,-0.21,0.87,
4.194,-0.13,-0.82,-2.71,1.18,-0.20,0.86,
4.197,-0.13,-0.82,-2.71,1.14,-0.19,0.85,
4.199,-0.13,-0.82,-2.71,1.08,-0.17,0.83,
4.201,-0.13,-0.82,-2.71,1.06,-0.17,0.83,
4.203,0.05,-0.73,-2.41,1.06,-0.17,0.83,
4.203,0.05,-0.73,-2.41,1.03,-0.17,0.82,
4.207,0.05,-0.73,-2.41,0.99,-0.17,0.80,
4.208,0.05,-0.73,-2.41,0.95,-0.17,0.79,
4.21,0.05,-0.73,-2.41,0.90,-0.18,0.76,
4.21,0.05,-0.73,-2.41,0.88,-0.18,0.74,
4.217,0.45,-0.59,-1.80,0.88,-0.18,0.74,
4.218,0.45,-0.59,-1.80,0.84,-0.19,0.72,
4.219,0.45,-0.59,-1.80,0.81,-0.19,0.69,
4.219,0.45,-0.59,-1.80,0.78,-0.20,0.66,
4.22,0.45,-0.59,-1.80,0.73,-0.19,0.61,
4.241,0.45,-0.59,-1.80,0.71,-0.19,0.60,
4.241,0.90,-0.35,-0.93,0.71,-0.19,0.60,
4.241,0.90,-0.35,-0.93,0.68,-0.18,0.56,
4.242,0.90,-0.35,-0.93,0.65,-0.17,0.53,
4.242,0.90,-0.35,-0.93,0.62,-0.16,0.48,
4.242,0.90,-0.35,-0.93,0.57,-0.14,0.42,
4.242,0.90,-0.35,-0.93,0.56,-0.13,0.40,
4.242,1.18,-0.32,-0.06,0.56,-0.13,0.40,
4.242,1.18,-0.32,-0.06,0.53,-0.12,0.36,
4.243,1.18,-0.32,-0.06,0.50,-0.10,0.32,
4.243,1.18,-0.32,-0.06,0.47,-0.09,0.28,
4.243,1.18,-0.32,-0.06,0.43,-0.08,0.23,
4.243,1.18,-0.32,-0.06,0.42,-0.08,0.21,
4.243,0.83,-0.47,0.86,0.42,-0.08,0.21,
4.243,0.83,-0.47,0.86,0.39,-0.07,0.19,
4.244,0.83,-0.47,0.86,0.37,-0.07,0.16,
4.247,0.83,-0.47,0.86,0.35,-0.07,0.14,
4.273,0.83,-0.47,0.86,0.32,-0.06,0.12,
4.274,0.83,-0.47,0.86,0.31,-0.05,0.12,
4.275,-0.09,-0.60,1.96,0.31,-0.05,0.12,
4.275,-0.09,-0.60,1.96,0.29,-0.04,0.11,
4.276,-0.09,-0.60,1.96,0.28,-0.02,0.11,
4.276,-0.09,-0.60,1.96,0.27,0.01,0.11,
4.276,-0.09,-0.60,1.96,0.26,0.06,0.11,
4.277,-0.09,-0.60,1.96,0.25,0.08,0.12,
4.277,-0.96,-0.99,3.10,0.25,0.08,0.12,
4.278,-0.96,-0.99,3.10,0.26,0.13,0.13,
4.278,-0.96,-0.99,3.10,0.26,0.18,0.14,
4.279,-0.96,-0.99,3.10,0.26,0.24,0.16,
4.279,-0.96,-0.99,3.10,0.27,0.32,0.18,
4.279,-0.96,-0.99,3.10,0.28,0.35,0.19,
4.28,-1.53,-1.37,3.93,0.28,0.35,0.19,
4.28,-1.53,-1.37,3.93,0.29,0.41,0.21,
4.281,-1.53,-1.37,3.93,0.30,0.46,0.24,
4.281,-1.53,-1.37,3.93,0.31,0.52,0.26,
4.281,-1.53,-1.37,3.93,0.32,0.61,0.29,
4.281,-1.53,-1.37,3.93,0.33,0.64,0.29,
4.285,-1.77,-1.47,4.33,0.33,0.64,0.29,
4.285,-1.77,-1.47,4.33,0.33,0.70,0.31,
4.285,-1.77,-1.47,4.33,0.34,0.75,0.32,
4.293,-1.77,-1.47,4.33,0.35,0.81,0.33,
4.294,-1.77,-1.47,4.33,0.36,0.88,0.33,
4.294,-1.77,-1.47,4.33,0.36,0.90,0.33,
4.294,-1.59,-1.16,3.96,0.36,0.90,0.33,
4.294,-1.59,-1.16,3.96,0.35,0.94,0.33,
4.294,-1.59,-1.16,3.96,0.35,0.98,0.33,
4.296,-1.59,-1.16,3.96,0.34,1.00,0.32,
4.299,-1.59,-1.16,3.96,0.31,1.02,0.32,
4.3,-1.59,-1.16,3.96,0.30,1.03,0.31,
4.303,-1.52,-0.88,3.06,0.30,1.03,0.31,
4.303,-1.52,-0.88,3.06,0.28,1.03,0.31,
4.304,-1.52,-0.88,3.06,0.25,1.03,0.30,
4.306,-1.52,-0.88,3.06,0.22,1.02,0.29,
4.309,-1.52,-0.88,3.06,0.17,1.00,0.27,
4.31,-1.52,-0.88,3.06,0.15,0.99,0.27,
4.312,-1.55,-0.66,2.12,0.15,0.99,0.27,
4.313,-1.55,-0.66,2.12,0.11,0.96,0.26,
4.314,-1.55,-0.66,2.12,0.07,0.93,0.26,
4.316,-1.55,-0.66,2.12,0.02,0.89,0.25,
4.319,-1.55,-0.66,2.12,-0.05,0.83,0.23,
4.32,-1.55,-0.66,2.12,-0.07,0.80,0.23,
4.323,-1.58,-0.51,1.53,-0.07,0.80,0.23,
4.323,-1.58,-0.51,1.53,-0.12,0.75,0.22,
4.324,-1.58,-0.51,1.53,-0.17,0.69,0.21,
4.326,-1.58,-0.51,1.53,-0.23,0.63,0.20,
4.329,-1.58,-0.51,1.53,-0.30,0.53,0.18,
4.33,-1.58,-0.51,1.53,-0.33,0.50,0.18,
4.333,-1.52,-0.30,1.68,-0.33,0.50,0.18,
4.333,-1.52,-0.30,1.68,-0.37,0.44,0.17,
4.334,-1.52,-0.30,1.68,-0.41,0.38,0.16,
4.345,-1.52,-0.30,1.68,-0.45,0.32,0.15,
4.346,-1.52,-0.30,1.68,-0.49,0.25,0.14,
4.346,-1.52,-0.30,1.68,-0.51,0.23,0.13,
4.346,-1.34,-0.26,2.77,-0.51,0.23,0.13,
4.347,-1.34,-0.26,2.77,-0.53,0.20,0.13,
4.348,-1.34,-0.26,2.77,-0.55,0.17,0.12,
4.348,-1.34,-0.26,2.77,-0.56,0.16,0.11,
4.363,-1.34,-0.26,2.77,-0.58,0.16,0.10,
4.363,-1.34,-0.26,2.77,-0.58,0.16,0.10,
4.363,-0.98,-0.30,4.05,-0.58,0.16,0.10,
4.363,-0.98,-0.30,4.05,-0.59,0.17,0.09,
4.364,-0.98,-0.30,4.05,-0.59,0.19,0.09,
4.364,-0.98,-0.30,4.05,-0.59,0.22,0.08,
4.364,-0.98,-0.30,4.05,-0.58,0.27,0.08,
4.364,-0.98,-0.30,4.05,-0.58,0.29,0.07,
4.364,-0.61,-0.40,4.93,-0.58,0.29,0.07,
4.364,-0.61,-0.40,4.93,-0.57,0.34,0.07,
4.364,-0.61,-0.40,4.93,-0.56,0.38,0.06,
4.366,-0.61,-0.40,4.93,-0.55,0.44,0.06,
4.369,-0.61,-0.40,4.93,-0.53,0.52,0.05,
4.371,-0.61,-0.40,4.93,-0.53,0.54,0.05,
4.373,-0.21,-0.40,5.07,-0.53,0.54,0.05,
4.373,-0.21,-0.40,5.07,-0.52,0.60,0.04,
4.374,-0.21,-0.40,5.07,-0.51,0.65,0.03,
4.376,-0.21,-0.40,5.07,-0.50,0.70,0.02,
4.379,-0.21,-0.40,5.07,-0.49,0.77,-0.00,
4.38,-0.21,-0.40,5.07,-0.49,0.79,-0.01,
4.383,0.09,-0.23,4.47,-0.49,0.79,-0.01,
4.383,0.09,-0.23,4.47,-0.49,0.83,-0.02,
4.384,0.09,-0.23,4.47,-0.49,0.85,-0.04,
4.386,0.09,-0.23,4.47,-0.49,0.88,-0.06,
4.389,0.09,-0.23,4.47,-0.50,0.91,-0.09,
4.391,0.09,-0.23,4.47,-0.50,0.92,-0.10,
4.393,0.24,0.08,3.29,-0.50,0.92,-0.10,
4.393,0.24,0.08,3.29,-0.51,0.93,-0.11,
4.394,0.24,0.08,3.29,-0.53,0.93,-0.13,
4.396,0.24,0.08,3.29,-0.54,0.93,-0.15,
4.399,0.24,0.08,3.29,-0.57,0.93,-0.17,
4.4,0.24,0.08,3.29,-0.58,0.92,-0.18,
4.403,0.27,0.37,2.02,-0.58,0.92,-0.18,
4.403,0.27,0.37,2.02,-0.61,0.91,-0.20,
4.405,0.27,0.37,2.02,-0.62,0.90,-0.21,
4.406,0.27,0.37,2.02,-0.65,0.89,-0.23,
4.409,0.27,0.37,2.02,-0.69,0.87,-0.25,
4.41,0.27,0.37,2.02,-0.70,0.86,-0.26,
4.413,0.32,0.56,1.01,-0.70,0.86,-0.26,
4.413,0.32,0.56,1.01,-0.72,0.84,-0.28,
4.431,0.32,0.56,1.01,-0.75,0.83,-0.30,
4.432,0.32,0.56,1.01,-0.78,0.81,-0.32,
4.432,0.32,0.56,1.01,-0.82,0.79,-0.34,
4.432,0.32,0.56,1.01,-0.83,0.78,-0.35,
4.432,0.39,0.73,0.35,-0.83,0.78,-0.35,
4.433,0.39,0.73,0.35,-0.85,0.76,-0.36,
4.433,0.39,0.73,0.35,-0.88,0.75,-0.38,
4.433,0.39,0.73,0.35,-0.90,0.74,-0.39,
4.433,0.39,0.73,0.35,-0.93,0.72,-0.41,
4.434,0.39,0.73,0.35,-0.94,0.72,-0.42,
4.434,0.41,0.73,0.09,-0.94,0.72,-0.42,
4.434,0.41,0.73,0.09,-0.96,0.71,-0.43,
4.434,0.41,0.73,0.09,-0.97,0.71,-0.43,
4.438,0.41,0.73,0.09,-0.98,0.71,-0.44,
4.439,0.41,0.73,0.09,-0.99,0.72,-0.45,
4.44,0.41,0.73,0.09,-0.99,0.72,-0.45,
4.442,0.40,0.67,0.17,-0.99,0.72,-0.45,
4.443,0.40,0.67,0.17,-0.99,0.73,-0.46,
4.444,0.40,0.67,0.17,-0.98,0.74,-0.46,
4.446,0.40,0.67,0.17,-0.97,0.76,-0.46,
4.449,0.40,0.67,0.17,-0.95,0.80,-0.47,
4.45,0.40,0.67,0.17,-0.94,0.81,-0.47,
4.453,0.39,0.55,0.46,-0.94,0.81,-0.47,
4.454,0.39,0.55,0.46,-0.92,0.85,-0.47,
4.454,0.39,0.55,0.46,-0.89,0.89,-0.47,
4.457,0.39,0.55,0.46,-0.87,0.93,-0.47,
4.459,0.39,0.55,0.46,-0.83,0.99,-0.46,
4.46,0.39,0.55,0.46,-0.81,1.02,-0.46,
4.463,0.37,0.43,0.47,-0.81,1.02,-0.46,
4.463,0.37,0.43,0.47,-0.78,1.06,-0.46,
4.464,0.37,0.43,0.47,-0.75,1.10,-0.45,
4.466,0.37,0.43,0.47,-0.72,1.14,-0.44,
4.469,0.37,0.43,0.47,-0.67,1.21,-0.43,
4.471,0.37,0.43,0.47,-0.65,1.23,-0.43,
4.472,0.20,0.34,0.07,-0.65,1.23,-0.43,
4.473,0.20,0.34,0.07,-0.62,1.26,-0.42,
4.474,0.20,0.34,0.07,-0.58,1.30,-0.41,
4.476,0.20,0.34,0.07,-0.55,1.34,-0.40,
4.479,0.20,0.34,0.07,-0.50,1.38,-0.38,
4.48,0.20,0.34,0.07,-0.48,1.39,-0.37,
4.483,0.06,0.32,-0.60,-0.48,1.39,-0.37,
4.483,0.06,0.32,-0.60,-0.45,1.42,-0.36,
4.484,0.06,0.32,-0.60,-0.42,1.44,-0.35,
4.496,0.06,0.32,-0.60,-0.38,1.45,-0.34,
4.497,0.06,0.32,-0.60,-0.34,1.47,-0.32,
4.499,0.06,0.32,-0.60,-0.33,1.47,-0.32,
4.5,0.00,0.25,-1.39,-0.33,1.47,-0.32,
4.5,0.00,0.25,-1.39,-0.30,1.47,-0.31,
4.5,0.00,0.25,-1.39,-0.27,1.46,-0.30,
4.5,0.00,0.25,-1.39,-0.24,1.45,-0.29,
4.5,0.00,0.25,-1.39,-0.20,1.43,-0.27,
4.504,0.00,0.25,-1.39,-0.19,1.42,-0.27,
4.511,0.05,0.29,-2.13,-0.19,1.42,-0.27,
4.512,0.05,0.29,-2.13,-0.16,1.39,-0.26,
4.512,0.05,0.29,-2.13,-0.14,1.36,-0.26,
4.513,0.05,0.29,-2.13,-0.12,1.33,-0.25,
4.513,0.05,0.29,-2.13,-0.09,1.28,-0.24,
4.513,0.05,0.29,-2.13,-0.08,1.26,-0.24,
4.514,0.08,0.21,-2.71,-0.08,1.26,-0.24,
4.514,0.08,0.21,-2.71,-0.06,1.21,-0.23,
4.515,0.08,0.21,-2.71,-0.04,1.17,-0.23,
4.517,0.08,0.21,-2.71,-0.02,1.12,-0.22,
4.519,0.08,0.21,-2.71,0.01,1.05,-0.21,
4.521,0.08,0.21,-2.71,0.02,1.03,-0.21,
4.523,0.06,0.14,-2.99,0.02,1.03,-0.21,
4.524,0.06,0.14,-2.99,0.04,0.98,-0.20,
4.524,0.06,0.14,-2.99,0.07,0.93,-0.19,
4.527,0.06,0.14,-2.99,0.09,0.88,-0.18,
4.53,0.06,0.14,-2.99,0.12,0.81,-0.17,
4.531,0.06,0.14,-2.99,0.13,0.79,-0.16,
4.533,-0.07,-0.13,-2.99,0.13,0.79,-0.16,
4.534,-0.07,-0.13,-2.99,0.16,0.74,-0.14,
4.539,-0.07,-0.13,-2.99,0.20,0.68,-0.12,
4.539,-0.07,-0.13,-2.99,0.21,0.66,-0.11,
4.539,-0.07,-0.13,-2.99,0.25,0.60,-0.08,
4.54,-0.07,-0.13,-2.99,0.26,0.58,-0.06,
4.543,-0.35,-0.42,-2.80,0.26,0.58,-0.06,
4.543,-0.35,-0.42,-2.80,0.28,0.55,-0.04,
4.544,-0.35,-0.42,-2.80,0.31,0.51,-0.01,
4.546,-0.35,-0.42,-2.80,0.33,0.48,0.02,
4.549,-0.35,-0.42,-2.80,0.36,0.43,0.07,
4.55,-0.35,-0.42,-2.80,0.38,0.41,0.08,
4.553,-0.58,-0.77,-2.57,0.38,0.41,0.08,
4.553,-0.58,-0.77,-2.57,0.40,0.37,0.12,
4.554,-0.58,-0.77,-2.57,0.42,0.34,0.16,
4.556,-0.58,-0.77,-2.57,0.44,0.31,0.19,
4.559,-0.58,-0.77,-2.57,0.47,0.26,0.25,
4.56,-0.58,-0.77,-2.57,0.48,0.25,0.27,
4.563,-0.83,-1.07,-2.18,0.48,0.25,0.27,
4.563,-0.83,-1.07,-2.18,0.50,0.22,0.31,
4.564,-0.83,-1.07,-2.18,0.52,0.19,0.35,
4.567,-0.83,-1.07,-2.18,0.54,0.16,0.40,
4.571,-0.83,-1.07,-2.18,0.57,0.13,0.47,
4.573,-0.83,-1.07,-2.18,0.59,0.12,0.49,
4.573,-0.86,-1.30,-1.55,0.59,0.12,0.49,
4.574,-0.86,-1.30,-1.55,0.61,0.10,0.53,
4.577,-0.86,-1.30,-1.55,0.65,0.08,0.58,
4.577,-0.86,-1.30,-1.55,0.68,0.06,0.62,
4.579,-0.86,-1.30,-1.55,0.73,0.03,0.68,
4.58,-0.86,-1.30,-1.55,0.75,0.01,0.70,
4.612,-0.49,-1.43,-0.86,0.75,0.01,0.70,
4.612,-0.49,-1.43,-0.86,0.79,-0.01,0.74,
4.613,-0.49,-1.43,-0.86,0.83,-0.03,0.77,
4.614,-0.49,-1.43,-0.86,0.86,-0.06,0.80,
4.615,-0.49,-1.43,-0.86,0.92,-0.10,0.84,
4.615,-0.49,-1.43,-0.86,0.94,-0.11,0.84,
4.617,0.30,-1.24,-0.52,0.94,-0.11,0.84,
4.617,0.30,-1.24,-0.52,0.98,-0.14,0.86,
4.62,0.30,-1.24,-0.52,1.01,-0.17,0.86,
4.62,0.30,-1.24,-0.52,1.04,-0.21,0.87,
4.621,0.30,-1.24,-0.52,1.09,-0.26,0.86,
4.621,0.30,-1.24,-0.52,1.10,-0.28,0.85,
4.622,1.30,-0.97,-0.61,1.10,-0.28,0.85,
4.622,1.30,-0.97,-0.61,1.13,-0.31,0.84,
4.622,1.30,-0.97,-0.61,1.15,-0.35,0.82,
4.623,1.30,-0.97,-0.61,1.17,-0.38,0.80,
4.623,1.30,-0.97,-0.61,1.20,-0.43,0.76,
4.624,1.30,-0.97,-0.61,1.21,-0.44,0.74,
4.624,2.12,-0.60,-1.00,1.21,-0.44,0.74,
4.624,2.12,-0.60,-1.00,1.22,-0.47,0.71,
4.625,2.12,-0.60,-1.00,1.23,-0.49,0.67,
4.625,2.12,-0.60,-1.00,1.23,-0.51,0.63,
4.626,2.12,-0.60,-1.00,1.23,-0.53,0.57,
4.626,2.12,-0.60,-1.00,1.22,-0.54,0.54,
4.627,2.70,-0.34,-1.71,1.22,-0.54,0.54,
4.627,2.70,-0.34,-1.71,1.21,-0.55,0.50,
4.627,2.70,-0.34,-1.71,1.19,-0.55,0.45,
4.628,2.70,-0.34,-1.71,1.17,-0.55,0.40,
4.639,2.70,-0.34,-1.71,1.12,-0.55,0.33,
4.64,2.70,-0.34,-1.71,1.10,-0.55,0.31,
4.64,2.82,-0.13,-2.49,1.10,-0.55,0.31,
4.641,2.82,-0.13,-2.49,1.06,-0.54,0.26,
4.641,2.82,-0.13,-2.49,1.02,-0.53,0.21,
4.641,2.82,-0.13,-2.49,0.98,-0.52,0.16,
4.642,2.82,-0.13,-2.49,0.90,-0.49,0.09,
4.642,2.82,-0.13,-2.49,0.87,-0.48,0.07,
4.644,2.65,-0.03,-3.04,0.87,-0.48,0.07,
4.644,2.65,-0.03,-3.04,0.82,-0.45,0.02,
4.644,2.65,-0.03,-3.04,0.76,-0.42,-0.02,
4.646,2.65,-0.03,-3.04,0.70,-0.39,-0.06,
4.649,2.65,-0.03,-3.04,0.62,-0.33,-0.12,
4.65,2.65,-0.03,-3.04,0.59,-0.31,-0.13,
4.66,1.95,-0.10,-3.04,0.59,-0.31,-0.13,
4.66,1.95,-0.10,-3.04,0.53,-0.27,-0.16,
4.66,1.95,-0.10,-3.04,0.47,-0.22,-0.19,
4.661,1.95,-0.10,-3.04,0.42,-0.18,-0.21,
4.661,1.95,-0.10,-3.04,0.34,-0.11,-0.25,
4.661,1.95,-0.10,-3.04,0.31,-0.09,-0.26,
4.663,1.95,-0.10,-3.04,0.27,-0.05,-0.27,
4.691,1.43,-0.20,-2.64,0.27,-0.05,-0.27,
4.692,1.43,-0.20,-2.64,0.17,0.03,-0.31,
4.692,1.43,-0.20,-2.64,0.17,0.03,-0.31,
4.693,1.43,-0.20,-2.64,0.10,0.08,-0.33,
4.693,1.43,-0.20,-2.64,0.08,0.10,-0.33,
4.693,0.91,-0.29,-2.01,0.08,0.10,-0.33,
4.693,0.91,-0.29,-2.01,0.04,0.13,-0.34,
4.694,0.91,-0.29,-2.01,0.00,0.16,-0.35,
4.694,0.91,-0.29,-2.01,-0.04,0.19,-0.36,
4.694,0.91,-0.29,-2.01,-0.10,0.23,-0.37,
4.694,0.91,-0.29,-2.01,-0.11,0.24,-0.37,
4.694,0.63,-0.28,-1.37,-0.11,0.24,-0.37,
4.695,0.63,-0.28,-1.37,-0.15,0.26,-0.38,
4.695,0.63,-0.28,-1.37,-0.18,0.27,-0.39,
4.695,0.63,-0.28,-1.37,-0.21,0.28,-0.40,
4.695,0.63,-0.28,-1.37,-0.25,0.30,-0.40,
4.696,0.63,-0.28,-1.37,-0.26,0.31,-0.41,
4.696,0.62,-0.28,-0.43,-0.26,0.31,-0.41,
4.696,0.62,-0.28,-0.43,-0.27,0.32,-0.42,
4.696,0.62,-0.28,-0.43,-0.28,0.33,-0.43,
4.696,0.62,-0.28,-0.43,-0.29,0.33,-0.44,
4.7,0.62,-0.28,-0.43,-0.29,0.35,-0.45,
4.701,0.62,-0.28,-0.43,-0.28,0.35,-0.46,
4.709,0.37,-0.17,0.85,-0.28,0.35,-0.46,
4.711,0.37,-0.17,0.85,-0.27,0.36,-0.47,
4.711,0.37,-0.17,0.85,-0.26,0.37,-0.47,
4.711,0.37,-0.17,0.85,-0.24,0.38,-0.47,
4.712,0.37,-0.17,0.85,-0.20,0.39,-0.47,
4.712,0.37,-0.17,0.85,-0.19,0.40,-0.47,
4.715,-0.29,-0.14,1.91,-0.19,0.40,-0.47,
4.715,-0.29,-0.14,1.91,-0.17,0.40,-0.46,
4.716,-0.29,-0.14,1.91,-0.14,0.41,-0.45,
4.718,-0.29,-0.14,1.91,-0.11,0.41,-0.43,
4.722,-0.29,-0.14,1.91,-0.07,0.42,-0.40,
4.724,-0.29,-0.14,1.91,-0.05,0.42,-0.39,
4.728,-1.00,-0.28,2.35,-0.05,0.42,-0.39,
4.729,-1.00,-0.28,2.35,-0.03,0.43,-0.36,
4.73,-1.00,-0.28,2.35,-0.01,0.43,-0.33,
4.73,-1.00,-0.28,2.35,0.02,0.44,-0.30,
4.731,-1.00,-0.28,2.35,0.05,0.45,-0.25,
4.731,-1.00,-0.28,2.35,0.06,0.45,-0.23,
4.734,-1.44,-0.30,2.09,0.06,0.45,-0.23,
4.735,-1.44,-0.30,2.09,0.08,0.45,-0.19,
4.737,-1.44,-0.30,2.09,0.10,0.44,-0.16,
4.738,-1.44,-0.30,2.09,0.11,0.43,-0.12,
4.748,-1.44,-0.30,2.09,0.12,0.40,-0.07,
4.749,-1.44,-0.30,2.09,0.12,0.39,-0.06,
4.749,-1.30,-0.17,1.17,0.12,0.39,-0.06,
4.749,-1.30,-0.17,1.17,0.12,0.35,-0.04,
4.75,-1.30,-0.17,1.17,0.11,0.31,-0.02,
4.75,-1.30,-0.17,1.17,0.09,0.26,0.00,
4.772,-1.30,-0.17,1.17,0.06,0.15,0.03,
4.773,-1.30,-0.17,1.17,0.04,0.11,0.03,
4.773,-0.73,0.23,-0.19,0.04,0.11,0.03,
4.773,-0.73,0.23,-0.19,0.00,0.03,0.04,
4.773,-0.73,0.23,-0.19,-0.05,-0.06,0.04,
4.773,-0.73,0.23,-0.19,-0.10,-0.17,0.03,
4.774,-0.73,0.23,-0.19,-0.21,-0.34,0.02,
4.774,-0.73,0.23,-0.19,-0.25,-0.40,0.02,
4.774,-0.03,0.89,-1.48,-0.25,-0.40,0.02,
4.774,-0.03,0.89,-1.48,-0.34,-0.53,0.00,
4.774,-0.03,0.89,-1.48,-0.44,-0.65,-0.02,
4.775,-0.03,0.89,-1.48,-0.55,-0.78,-0.05,
4.775,-0.03,0.89,-1.48,-0.72,-0.95,-0.09,
4.775,-0.03,0.89,-1.48,-0.78,-1.00,-0.11,
4.775,0.90,1.21,-1.85,-0.78,-1.00,-0.11,
4.775,0.90,1.21,-1.85,-0.90,-1.09,-0.15,
4.775,0.90,1.21,-1.85,-1.02,-1.17,-0.19,
4.78,0.90,1.21,-1.85,-1.13,-1.24,-0.23,
4.78,0.90,1.21,-1.85,-1.30,-1.32,-0.31,
4.78,0.90,1.21,-1.85,-1.35,-1.34,-0.33,
4.783,1.84,1.11,-0.70,-1.35,-1.34,-0.33,
4.783,1.84,1.11,-0.70,-1.45,-1.36,-0.38,
4.791,1.84,1.11,-0.70,-1.55,-1.37,-0.43,
4.791,1.84,1.11,-0.70,-1.64,-1.37,-0.47,
4.791,1.84,1.11,-0.70,-1.78,-1.35,-0.54,
4.791,1.84,1.11,-0.70,-1.82,-1.34,-0.57,
4.793,2.30,0.58,1.17,-1.82,-1.34,-0.57,
4.793,2.30,0.58,1.17,-1.91,-1.31,-0.61,
4.794,2.30,0.58,1.17,-1.98,-1.28,-0.66,
4.796,2.30,0.58,1.17,-2.06,-1.23,-0.70,
4.799,2.30,0.58,1.17,-2.14,-1.13,-0.76,
4.801,2.30,0.58,1.17,-2.17,-1.09,-0.78,
4.804,2.35,-0.22,3.46,-2.17,-1.09,-0.78,
4.804,2.35,-0.22,3.46,-2.21,-1.00,-0.81,
4.804,2.35,-0.22,3.46,-2.24,-0.90,-0.83,
4.806,2.35,-0.22,3.46,-2.27,-0.78,-0.85,
4.809,2.35,-0.22,3.46,-2.28,-0.58,-0.86,
4.81,2.35,-0.22,3.46,-2.28,-0.51,-0.86,
4.813,1.62,-0.76,5.82,-2.28,-0.51,-0.86,
4.813,1.62,-0.76,5.82,-2.28,-0.35,-0.86,
4.814,1.62,-0.76,5.82,-2.26,-0.19,-0.85,
4.816,1.62,-0.76,5.82,-2.23,-0.02,-0.83,
4.82,1.62,-0.76,5.82,-2.17,0.23,-0.79,
4.82,1.62,-0.76,5.82,-2.14,0.31,-0.78,
4.823,0.56,-1.26,7.37,-2.14,0.31,-0.78,
4.823,0.56,-1.26,7.37,-2.09,0.48,-0.75,
4.825,0.56,-1.26,7.37,-2.03,0.64,-0.71,
4.827,0.56,-1.26,7.37,-1.96,0.79,-0.67,
4.829,0.56,-1.26,7.37,-1.83,1.00,-0.61,
4.83,0.56,-1.26,7.37,-1.79,1.06,-0.58,
4.833,-0.54,-1.19,7.56,-1.79,1.06,-0.58,
4.834,-0.54,-1.19,7.56,-1.70,1.17,-0.54,
4.836,-0.54,-1.19,7.56,-1.60,1.28,-0.50,
4.838,-0.54,-1.19,7.56,-1.50,1.37,-0.45,
4.84,-0.54,-1.19,7.56,-1.35,1.47,-0.39,
4.842,-0.54,-1.19,7.56,-1.30,1.49,-0.37,
4.844,-1.17,-0.81,6.31,-1.30,1.49,-0.37,
4.844,-1.17,-0.81,6.31,-1.20,1.54,-0.33,
4.845,-1.17,-0.81,6.31,-1.10,1.57,-0.29,
4.846,-1.17,-0.81,6.31,-1.00,1.59,-0.25,
4.849,-1.17,-0.81,6.31,-0.85,1.59,-0.18,
4.852,-1.17,-0.81,6.31,-0.81,1.59,-0.16,
4.854,-1.43,-0.38,3.92,-0.81,1.59,-0.16,
4.854,-1.43,-0.38,3.92,-0.72,1.57,-0.12,
4.856,-1.43,-0.38,3.92,-0.64,1.54,-0.08,
4.857,-1.43,-0.38,3.92,-0.56,1.49,-0.05,
4.86,-1.43,-0.38,3.92,-0.46,1.40,0.01,
4.861,-1.43,-0.38,3.92,-0.42,1.37,0.03,
4.863,-1.42,0.01,1.07,-0.42,1.37,0.03,
4.863,-1.42,0.01,1.07,-0.36,1.30,0.06,
4.865,-1.42,0.01,1.07,-0.31,1.22,0.10,
4.868,-1.42,0.01,1.07,-0.26,1.13,0.13,
4.869,-1.42,0.01,1.07,-0.21,0.98,0.17,
4.871,-1.42,0.01,1.07,-0.19,0.93,0.18,
4.873,-1.18,0.46,-1.69,-0.19,0.93,0.18,
4.874,-1.18,0.46,-1.69,-0.16,0.83,0.21,
4.874,-1.18,0.46,-1.69,-0.14,0.72,0.23,
4.877,-1.18,0.46,-1.69,-0.13,0.61,0.25,
4.879,-1.18,0.46,-1.69,-0.13,0.44,0.27,
4.88,-1.18,0.46,-1.69,-0.13,0.38,0.28,
4.883,-0.88,0.89,-3.97,-0.13,0.38,0.28,
4.884,-0.88,0.89,-3.97,-0.14,0.26,0.29,
4.897,-0.88,0.89,-3.97,-0.16,0.10,0.30,
4.898,-0.88,0.89,-3.97,-0.17,0.04,0.30,
4.898,-0.88,0.89,-3.97,-0.21,-0.11,0.31,
4.899,-0.88,0.89,-3.97,-0.22,-0.16,0.31,
4.899,-0.59,1.10,-5.38,-0.22,-0.16,0.31,
4.899,-0.59,1.10,-5.38,-0.25,-0.26,0.32,
4.9,-0.59,1.10,-5.38,-0.28,-0.34,0.32,
4.9,-0.59,1.10,-5.38,-0.31,-0.42,0.33,
4.901,-0.59,1.10,-5.38,-0.38,-0.53,0.33,
4.934,-0.59,1.10,-5.38,-0.40,-0.56,0.33,
4.935,-0.36,1.36,-5.87,-0.40,-0.56,0.33,
4.936,-0.36,1.36,-5.87,-0.44,-0.61,0.34,
4.936,-0.36,1.36,-5.87,-0.47,-0.66,0.33,
4.937,-0.36,1.36,-5.87,-0.51,-0.70,0.33,
4.937,-0.36,1.36,-5.87,-0.57,-0.75,0.33,
4.938,-0.36,1.36,-5.87,-0.59,-0.76,0.32,
4.939,-0.09,1.26,-5.26,-0.59,-0.76,0.32,
4.941,-0.09,1.26,-5.26,-0.62,-0.78,0.32,
4.969,-0.09,1.26,-5.26,-0.65,-0.78,0.32,
4.97,-0.09,1.26,-5.26,-0.68,-0.79,0.32,
4.97,-0.09,1.26,-5.26,-0.70,-0.77,0.31,
4.971,-0.09,1.26,-5.26,-0.71,-0.76,0.32,
4.971,0.07,1.12,-3.82,-0.71,-0.76,0.32,
4.972,0.07,1.12,-3.82,-0.72,-0.74,0.32,
4.972,0.07,1.12,-3.82,-0.73,-0.71,0.32,
4.972,0.07,1.12,-3.82,-0.73,-0.68,0.33,
4.973,0.07,1.12,-3.82,-0.72,-0.62,0.34,
4.973,0.07,1.12,-3.82,-0.71,-0.60,0.34,
4.974,0.26,0.91,-2.07,-0.71,-0.60,0.34,
4.974,0.26,0.91,-2.07,-0.70,-0.56,0.34,
4.974,0.26,0.91,-2.07,-0.67,-0.51,0.35,
4.975,0.26,0.91,-2.07,-0.65,-0.47,0.36,
4.975,0.26,0.91,-2.07,-0.60,-0.40,0.37,
4.976,0.26,0.91,-2.07,-0.58,-0.37,0.37,
4.976,0.44,0.99,-0.56,-0.58,-0.37,0.37,
4.976,0.44,0.99,-0.56,-0.53,-0.32,0.37,
4.977,0.44,0.99,-0.56,-0.49,-0.28,0.38,
4.977,0.44,0.99,-0.56,-0.44,-0.23,0.38,
4.978,0.44,0.99,-0.56,-0.36,-0.16,0.38,
4.978,0.44,0.99,-0.56,-0.32,-0.14,0.39,
4.979,0.56,1.12,0.33,-0.32,-0.14,0.39,
4.979,0.56,1.12,0.33,-0.27,-0.10,0.39,
4.979,0.56,1.12,0.33,-0.21,-0.06,0.38,
4.98,0.56,1.12,0.33,-0.16,-0.03,0.38,
4.98,0.56,1.12,0.33,-0.07,0.00,0.38,
4.981,0.56,1.12,0.33,-0.05,0.01,0.37,
4.981,0.66,1.23,0.38,-0.05,0.01,0.37,
4.982,0.66,1.23,0.38,0.01,0.03,0.37,
4.982,0.66,1.23,0.38,0.06,0.05,0.37,
4.982,0.66,1.23,0.38,0.10,0.06,0.37,
4.983,0.66,1.23,0.38,0.17,0.06,0.36,
4.983,0.66,1.23,0.38,0.19,0.06,0.36,
4.983,0.69,1.26,-0.38,0.19,0.06,0.36,
4.984,0.69,1.26,-0.38,0.22,0.05,0.36,
4.984,0.69,1.26,-0.38,0.25,0.03,0.35,
4.985,0.69,1.26,-0.38,0.28,0.02,0.35,
4.985,0.69,1.26,-0.38,0.31,-0.02,0.35,
4.985,0.69,1.26,-0.38,0.32,-0.03,0.35,
4.986,0.77,1.24,-1.34,0.32,-0.03,0.35,
4.986,0.77,1.24,-1.34,0.33,-0.06,0.35,
4.986,0.77,1.24,-1.34,0.34,-0.09,0.34,
4.987,0.77,1.24,-1.34,0.34,-0.13,0.34,
4.997,0.77,1.24,-1.34,0.34,-0.18,0.33,
4.997,0.77,1.24,-1.34,0.34,-0.20,0.33,
4.998,0.84,1.16,-2.11,0.34,-0.20,0.33,
4.998,0.84,1.16,-2.11,0.33,-0.24,0.33,
4.998,0.84,1.16,-2.11,0.32,-0.28,0.32,
4.998,0.84,1.16,-2.11,0.31,-0.32,0.31,
4.999,0.84,1.16,-2.11,0.29,-0.39,0.30,
5.012,0.84,1.16,-2.11,0.28,-0.41,0.30,
5.012,0.90,1.13,-2.36,0.28,-0.41,0.30,
5.012,0.90,1.13,-2.36,0.26,-0.45,0.29,
5.013,0.90,1.13,-2.36,0.25,-0.49,0.28,
5.013,0.90,1.13,-2.36,0.23,-0.53,0.27,
5.013,0.90,1.13,-2.36,0.22,-0.57,0.26,
5.013,0.90,1.13,-2.36,0.22,-0.59,0.26,
5.014,0.78,1.04,-1.69,0.22,-0.59,0.26,
5.014,0.78,1.04,-1.69,0.20,-0.61,0.26,
5.024,0.78,1.04,-1.69,0.21,-0.63,0.25,
5.024,0.78,1.04,-1.69,0.21,-0.64,0.25,
5.024,0.78,1.04,-1.69,0.23,-0.65,0.24,
5.025,0.78,1.04,-1.69,0.24,-0.64,0.24,
5.025,0.64,0.87,-0.50,0.24,-0.64,0.24,
5.025,0.64,0.87,-0.50,0.24,-0.63,0.24,
5.025,0.64,0.87,-0.50,0.27,-0.62,0.23,
5.027,0.64,0.87,-0.50,0.28,-0.60,0.23,
5.066,0.64,0.87,-0.50,0.31,-0.56,0.23,
5.07,0.64,0.87,-0.50,0.32,-0.54,0.23,
5.07,0.50,0.62,0.30,0.32,-0.54,0.23,
5.071,0.50,0.62,0.30,0.34,-0.51,0.23,
5.071,0.50,0.62,0.30,0.35,-0.47,0.23,
5.071,0.50,0.62,0.30,0.37,-0.43,0.23,
5.071,0.50,0.62,0.30,0.38,-0.37,0.23,
5.071,0.50,0.62,0.30,0.39,-0.35,0.24,
5.072,0.29,0.43,0.46,0.39,-0.35,0.24,
5.072,0.29,0.43,0.46,0.39,-0.30,0.24,
5.072,0.29,0.43,0.46,0.40,-0.26,0.25,
