
time,ax,ay,az,wx,wy,wz,
0.005,-0.66,-0.53,0.48,0.05,0.17,1.44,
0.005,-0.69,-0.41,-0.18,0.05,0.17,1.44,
0.006,-0.69,-0.41,-0.18,0.03,0.17,1.45,
0.006,-0.69,-0.41,-0.18,0.02,0.15,1.47,
0.007,-0.69,-0.41,-0.18,0.01,0.12,1.48,
0.008,-0.69,-0.41,-0.18,0.03,0.09,1.50,
0.008,-0.69,-0.41,-0.18,0.01,0.07,1.50,
0.008,-0.59,-0.38,-0.09,0.01,0.07,1.50,
0.009,-0.59,-0.38,-0.09,-0.00,0.04,1.51,
0.009,-0.59,-0.38,-0.09,0.00,0.02,1.51,
0.01,-0.59,-0.38,-0.09,0.01,-0.00,1.52,
0.01,-0.59,-0.38,-0.09,-0.01,-0.03,1.51,
0.01,-0.59,-0.38,-0.09,0.01,-0.04,1.51,
0.012,-0.22,-0.34,0.13,0.01,-0.04,1.51,
0.012,-0.22,-0.34,0.13,0.02,-0.05,1.51,
0.022,-0.22,-0.34,0.13,0.02,-0.06,1.51,
0.023,-0.22,-0.34,0.13,0.02,-0.06,1.50,
0.023,-0.22,-0.34,0.13,0.02,-0.06,1.49,
0.023,-0.22,-0.34,0.13,0.02,-0.05,1.48,
0.023,0.07,-0.25,0.05,0.02,-0.05,1.48,
0.024,0.07,-0.25,0.05,0.00,-0.06,1.48,
0.024,0.07,-0.25,0.05,-0.00,-0.05,1.47,
0.026,0.07,-0.25,0.05,-0.01,-0.05,1.47,
0.027,0.07,-0.25,0.05,-0.02,-0.04,1.46,
0.029,0.07,-0.25,0.05,-0.02,-0.03,1.46,
0.031,0.26,-0.24,0.04,-0.02,-0.03,1.46,
0.031,0.26,-0.24,0.04,-0.03,-0.02,1.45,
0.032,0.26,-0.24,0.04,-0.03,-0.00,1.44,
0.035,0.26,-0.24,0.04,-0.04,0.01,1.44,
0.037,0.26,-0.24,0.04,-0.04,0.02,1.43,
0.038,0.26,-0.24,0.04,-0.04,0.03,1.42,
0.051,0.39,-0.23,0.19,-0.04,0.03,1.42,
0.052,0.39,-0.23,0.19,-0.04,0.04,1.41,
0.052,0.39,-0.23,0.19,-0.04,0.05,1.41,
0.052,0.39,-0.23,0.19,-0.04,0.06,1.39,
0.053,0.39,-0.23,0.19,-0.03,0.06,1.39,
0.053,0.39,-0.23,0.19,-0.03,0.07,1.38,
0.053,0.41,-0.23,0.45,-0.03,0.07,1.38,
0.053,0.41,-0.23,0.45,-0.02,0.08,1.37,
0.054,0.41,-0.23,0.45,-0.00,0.09,1.36,
0.054,0.41,-0.23,0.45,0.01,0.09,1.35,
0.058,0.41,-0.23,0.45,0.02,0.10,1.35,
0.06,0.41,-0.23,0.45,0.03,0.11,1.34,
0.065,0.46,-0.25,0.64,0.03,0.11,1.34,
0.065,0.46,-0.25,0.64,0.05,0.12,1.33,
0.065,0.46,-0.25,0.64,0.05,0.13,1.33,
0.066,0.46,-0.25,0.64,0.07,0.13,1.32,
0.067,0.46,-0.25,0.64,0.07,0.14,1.31,
0.069,0.46,-0.25,0.64,0.07,0.15,1.31,
0.072,0.51,-0.31,0.37,0.07,0.15,1.31,
0.072,0.51,-0.31,0.37,0.08,0.15,1.30,
0.079,0.51,-0.31,0.37,0.08,0.15,1.30,
0.08,0.51,-0.31,0.37,0.08,0.16,1.29,
0.08,0.51,-0.31,0.37,0.08,0.16,1.29,
0.08,0.51,-0.31,0.37,0.08,0.16,1.29,
0.081,0.43,-0.35,-0.05,0.08,0.16,1.29,
0.082,0.43,-0.35,-0.05,0.07,0.16,1.28,
0.082,0.43,-0.35,-0.05,0.07,0.15,1.28,
0.084,0.43,-0.35,-0.05,0.06,0.15,1.28,
0.087,0.43,-0.35,-0.05,0.06,0.14,1.27,
0.088,0.43,-0.35,-0.05,0.05,0.13,1.28,
0.091,0.26,-0.35,-0.34,0.05,0.13,1.28,
0.092,0.26,-0.35,-0.34,0.05,0.12,1.28,
0.092,0.26,-0.35,-0.34,0.04,0.11,1.28,
0.096,0.26,-0.35,-0.34,0.04,0.09,1.28,
0.096,0.26,-0.35,-0.34,0.03,0.08,1.28,
0.098,0.26,-0.35,-0.34,0.03,0.07,1.28,
0.102,0.25,-0.38,-0.38,0.03,0.07,1.28,
0.102,0.25,-0.38,-0.38,0.03,0.06,1.28,
0.102,0.25,-0.38,-0.38,0.02,0.04,1.28,
0.111,0.25,-0.38,-0.38,0.02,0.03,1.28,
0.112,0.25,-0.38,-0.38,0.02,0.02,1.27,
0.112,0.25,-0.38,-0.38,0.01,0.01,1.27,
0.112,0.52,-0.41,-0.34,0.01,0.01,1.27,
0.112,0.52,-0.41,-0.34,0.01,0.01,1.26,
0.112,0.52,-0.41,-0.34,0.01,-0.00,1.26,
0.125,0.52,-0.41,-0.34,0.00,-0.01,1.25,
0.125,0.52,-0.41,-0.34,-0.00,-0.01,1.24,
0.126,0.52,-0.41,-0.34,-0.01,-0.02,1.23,
0.126,0.73,-0.38,-0.35,-0.01,-0.02,1.23,
0.126,0.73,-0.38,-0.35,-0.02,-0.03,1.23,
0.126,0.73,-0.38,-0.35,-0.03,-0.03,1.21,
0.126,0.73,-0.38,-0.35,-0.03,-0.04,1.20,
0.127,0.73,-0.38,-0.35,-0.04,-0.04,1.19,
0.135,0.73,-0.38,-0.35,-0.06,-0.05,1.18,
0.136,0.80,-0.26,-0.40,-0.06,-0.05,1.18,
0.136,0.80,-0.26,-0.40,-0.07,-0.06,1.17,
0.136,0.80,-0.26,-0.40,-0.09,-0.08,1.15,
0.136,0.80,-0.26,-0.40,-0.10,-0.10,1.14,
0.137,0.80,-0.26,-0.40,-0.13,-0.11,1.13,
0.138,0.80,-0.26,-0.40,-0.15,-0.14,1.11,
0.141,0.90,-0.24,-0.38,-0.15,-0.14,1.11,
0.141,0.90,-0.24,-0.38,-0.17,-0.16,1.10,
0.142,0.90,-0.24,-0.38,-0.20,-0.18,1.09,
0.144,0.90,-0.24,-0.38,-0.23,-0.20,1.07,
0.146,0.90,-0.24,-0.38,-0.26,-0.23,1.05,
0.148,0.90,-0.24,-0.38,-0.30,-0.25,1.03,
0.151,1.23,-0.31,-0.16,-0.30,-0.25,1.03,
0.151,1.23,-0.31,-0.16,-0.33,-0.27,1.01,
0.153,1.23,-0.31,-0.16,-0.37,-0.29,0.99,
0.155,1.23,-0.31,-0.16,-0.41,-0.30,0.97,
0.159,1.23,-0.31,-0.16,-0.43,-0.31,0.95,
0.16,1.23,-0.31,-0.16,-0.46,-0.32,0.93,
0.163,1.23,-0.31,-0.16,-0.49,-0.33,0.91,
0.163,1.33,-0.30,0.92,-0.49,-0.33,0.91,
0.164,1.33,-0.30,0.92,-0.52,-0.34,0.89,
0.165,1.33,-0.30,0.92,-0.52,-0.34,0.88,
0.166,1.33,-0.30,0.92,-0.53,-0.33,0.86,
0.169,1.33,-0.30,0.92,-0.54,-0.33,0.84,
0.171,1.30,-0.33,2.02,-0.54,-0.33,0.84,
0.171,1.30,-0.33,2.02,-0.53,-0.32,0.82,
0.173,1.30,-0.33,2.02,-0.53,-0.30,0.81,
0.178,1.30,-0.33,2.02,-0.51,-0.28,0.80,
0.178,1.30,-0.33,2.02,-0.50,-0.26,0.79,
0.178,1.30,-0.33,2.02,-0.48,-0.23,0.77,
0.181,1.14,-0.46,3.32,-0.48,-0.23,0.77,
0.181,1.14,-0.46,3.32,-0.45,-0.20,0.77,
0.183,1.14,-0.46,3.32,-0.42,-0.16,0.76,
0.184,1.14,-0.46,3.32,-0.39,-0.13,0.75,
0.186,1.14,-0.46,3.32,-0.36,-0.09,0.75,
0.188,1.14,-0.46,3.32,-0.33,-0.05,0.75,
0.203,0.84,-0.70,3.96,-0.33,-0.05,0.75,
0.204,0.84,-0.70,3.96,-0.30,-0.01,0.75,
0.204,0.84,-0.70,3.96,-0.27,0.03,0.75,
0.205,0.84,-0.70,3.96,-0.23,0.07,0.76,
0.205,0.84,-0.70,3.96,-0.20,0.11,0.77,
0.205,0.84,-0.70,3.96,-0.16,0.15,0.77,
0.206,0.47,-0.95,3.97,-0.16,0.15,0.77,
0.206,0.47,-0.95,3.97,-0.13,0.19,0.79,
0.207,0.47,-0.95,3.97,-0.09,0.22,0.80,
0.207,0.47,-0.95,3.97,-0.05,0.26,0.82,
0.211,0.47,-0.95,3.97,-0.01,0.28,0.84,
0.211,0.47,-0.95,3.97,0.02,0.31,0.85,
0.212,0.37,-1.22,3.55,0.02,0.31,0.85,
0.212,0.37,-1.22,3.55,0.06,0.32,0.87,
0.239,0.37,-1.22,3.55,0.09,0.34,0.89,
0.24,0.37,-1.22,3.55,0.13,0.35,0.91,
0.241,0.37,-1.22,3.55,0.16,0.35,0.92,
0.241,0.37,-1.22,3.55,0.19,0.35,0.94,
0.241,0.38,-1.22,2.86,0.19,0.35,0.94,
0.242,0.38,-1.22,2.86,0.22,0.34,0.95,
0.242,0.38,-1.22,2.86,0.26,0.33,0.97,
0.242,0.38,-1.22,2.86,0.29,0.32,0.98,
0.243,0.38,-1.22,2.86,0.33,0.29,1.00,
0.243,0.38,-1.22,2.86,0.35,0.28,1.01,
0.243,0.42,-1.12,2.10,0.35,0.28,1.01,
0.243,0.42,-1.12,2.10,0.39,0.24,1.02,
0.244,0.42,-1.12,2.10,0.40,0.23,1.03,
0.244,0.42,-1.12,2.10,0.43,0.21,1.05,
0.244,0.42,-1.12,2.10,0.45,0.18,1.05,
0.245,0.42,-1.12,2.10,0.47,0.15,1.06,
0.245,0.53,-1.02,1.35,0.47,0.15,1.06,
0.245,0.53,-1.02,1.35,0.49,0.12,1.07,
0.245,0.53,-1.02,1.35,0.51,0.10,1.08,
0.246,0.53,-1.02,1.35,0.53,0.07,1.09,
0.252,0.53,-1.02,1.35,0.54,0.05,1.09,
0.253,0.53,-1.02,1.35,0.56,0.03,1.10,
0.253,0.81,-1.10,0.68,0.56,0.03,1.10,
0.253,0.81,-1.10,0.68,0.57,0.00,1.10,
0.254,0.81,-1.10,0.68,0.58,-0.01,1.10,
0.256,0.81,-1.10,0.68,0.60,-0.03,1.11,
0.26,0.81,-1.10,0.68,0.60,-0.05,1.11,
0.261,0.81,-1.10,0.68,0.61,-0.06,1.11,
0.261,1.00,-1.15,0.06,0.61,-0.06,1.11,
0.261,1.00,-1.15,0.06,0.62,-0.07,1.11,
0.262,1.00,-1.15,0.06,0.62,-0.08,1.11,
0.265,1.00,-1.15,0.06,0.62,-0.08,1.11,
0.267,1.00,-1.15,0.06,0.62,-0.09,1.11,
0.269,1.00,-1.15,0.06,0.62,-0.09,1.11,
0.271,1.09,-1.20,-0.54,0.62,-0.09,1.11,
0.295,1.09,-1.20,-0.54,0.62,-0.10,1.11,
0.295,1.09,-1.20,-0.54,0.61,-0.10,1.11,
0.296,1.09,-1.20,-0.54,0.60,-0.10,1.11,
0.296,1.09,-1.20,-0.54,0.59,-0.09,1.10,
0.296,1.09,-1.20,-0.54,0.58,-0.09,1.10,
0.296,1.12,-1.23,-1.07,0.58,-0.09,1.10,
0.297,1.12,-1.23,-1.07,0.56,-0.08,1.10,
0.297,1.12,-1.23,-1.07,0.55,-0.08,1.10,
0.297,1.12,-1.23,-1.07,0.53,-0.07,1.10,
0.298,1.12,-1.23,-1.07,0.52,-0.06,1.10,
0.298,1.12,-1.23,-1.07,0.51,-0.05,1.09,
0.298,1.16,-1.22,-1.37,0.51,-0.05,1.09,
0.298,1.16,-1.22,-1.37,0.49,-0.04,1.09,
0.299,1.16,-1.22,-1.37,0.48,-0.02,1.08,
0.299,1.16,-1.22,-1.37,0.46,-0.01,1.08,
0.299,1.16,-1.22,-1.37,0.45,0.00,1.07,
0.299,1.16,-1.22,-1.37,0.43,0.02,1.07,
0.305,1.21,-1.19,-1.56,0.43,0.02,1.07,
0.306,1.21,-1.19,-1.56,0.41,0.03,1.06,
0.306,1.21,-1.19,-1.56,0.40,0.04,1.05,
0.306,1.21,-1.19,-1.56,0.38,0.06,1.05,
0.307,1.21,-1.19,-1.56,0.36,0.07,1.04,
0.309,1.21,-1.19,-1.56,0.34,0.08,1.02,
0.311,1.32,-1.21,-1.74,0.34,0.08,1.02,
0.312,1.32,-1.21,-1.74,0.32,0.09,1.02,
0.312,1.32,-1.21,-1.74,0.30,0.09,1.01,
0.314,1.32,-1.21,-1.74,0.28,0.10,1.00,
0.317,1.32,-1.21,-1.74,0.26,0.11,0.99,
0.319,1.32,-1.21,-1.74,0.24,0.11,0.98,
0.341,1.35,-1.16,-1.84,0.24,0.11,0.98,
0.342,1.35,-1.16,-1.84,0.21,0.11,0.97,
0.342,1.35,-1.16,-1.84,0.19,0.11,0.96,
0.342,1.35,-1.16,-1.84,0.18,0.11,0.95,
0.342,1.35,-1.16,-1.84,0.16,0.11,0.94,
0.343,1.35,-1.16,-1.84,0.12,0.10,0.93,
0.343,1.40,-1.07,-1.87,0.12,0.10,0.93,
0.343,1.40,-1.07,-1.87,0.09,0.09,0.91,
0.343,1.40,-1.07,-1.87,0.07,0.09,0.90,
0.344,1.40,-1.07,-1.87,0.05,0.08,0.89,
0.344,1.40,-1.07,-1.87,0.02,0.08,0.88,
0.344,1.40,-1.07,-1.87,-0.01,0.07,0.87,
0.344,1.40,-0.98,-1.85,-0.01,0.07,0.87,
0.345,1.40,-0.98,-1.85,-0.03,0.06,0.86,
0.345,1.40,-0.98,-1.85,-0.06,0.06,0.85,
0.345,1.40,-0.98,-1.85,-0.09,0.05,0.83,
0.363,1.40,-0.98,-1.85,-0.11,0.04,0.82,
0.364,1.40,-0.98,-1.85,-0.13,0.04,0.81,
0.364,1.37,-0.86,-1.62,-0.13,0.04,0.81,
0.364,1.37,-0.86,-1.62,-0.15,0.03,0.79,
0.365,1.37,-0.86,-1.62,-0.18,0.03,0.78,
0.365,1.37,-0.86,-1.62,-0.20,0.02,0.77,
0.365,1.37,-0.86,-1.62,-0.21,0.01,0.76,
0.365,1.37,-0.86,-1.62,-0.23,0.01,0.75,
0.366,1.16,-0.75,-1.19,-0.23,0.01,0.75,
0.366,1.16,-0.75,-1.19,-0.24,0.01,0.74,
0.366,1.16,-0.75,-1.19,-0.25,0.01,0.74,
0.366,1.16,-0.75,-1.19,-0.26,0.01,0.73,
0.367,1.16,-0.75,-1.19,-0.27,0.00,0.72,
0.371,1.16,-0.75,-1.19,-0.27,0.00,0.72,
0.372,0.95,-0.75,-0.64,-0.27,0.00,0.72,
0.372,0.95,-0.75,-0.64,-0.27,0.01,0.72,
0.373,0.95,-0.75,-0.64,-0.27,0.01,0.71,
0.375,0.95,-0.75,-0.64,-0.27,0.01,0.71,
0.376,0.95,-0.75,-0.64,-0.26,0.02,0.71,
0.378,0.95,-0.75,-0.64,-0.26,0.03,0.71,
0.381,0.75,-0.79,-0.27,-0.26,0.03,0.71,
0.381,0.75,-0.79,-0.27,-0.25,0.04,0.71,
0.382,0.75,-0.79,-0.27,-0.25,0.05,0.71,
0.384,0.75,-0.79,-0.27,-0.25,0.06,0.71,
0.386,0.75,-0.79,-0.27,-0.24,0.07,0.72,
0.389,0.75,-0.79,-0.27,-0.23,0.08,0.72,
0.391,0.53,-0.85,-0.13,-0.23,0.08,0.72,
0.391,0.53,-0.85,-0.13,-0.22,0.09,0.73,
0.392,0.53,-0.85,-0.13,-0.22,0.10,0.74,
0.394,0.53,-0.85,-0.13,-0.21,0.10,0.75,
0.396,0.53,-0.85,-0.13,-0.21,0.11,0.75,
0.398,0.53,-0.85,-0.13,-0.20,0.11,0.76,
0.401,0.37,-0.79,-0.16,-0.20,0.11,0.76,
0.401,0.37,-0.79,-0.16,-0.19,0.12,0.77,
0.403,0.37,-0.79,-0.16,-0.18,0.12,0.78,
0.406,0.37,-0.79,-0.16,-0.18,0.12,0.79,
0.407,0.37,-0.79,-0.16,-0.17,0.12,0.79,
0.409,0.37,-0.79,-0.16,-0.16,0.13,0.80,
0.411,0.35,-0.70,-0.30,-0.16,0.13,0.80,
0.412,0.35,-0.70,-0.30,-0.15,0.12,0.81,
0.412,0.35,-0.70,-0.30,-0.15,0.12,0.81,
0.415,0.35,-0.70,-0.30,-0.14,0.12,0.82,
0.417,0.35,-0.70,-0.30,-0.13,0.11,0.82,
0.419,0.35,-0.70,-0.30,-0.13,0.11,0.83,
0.421,0.38,-0.56,-0.51,-0.13,0.11,0.83,
0.422,0.38,-0.56,-0.51,-0.13,0.10,0.83,
0.424,0.38,-0.56,-0.51,-0.13,0.10,0.83,
0.426,0.38,-0.56,-0.51,-0.12,0.09,0.84,
0.427,0.38,-0.56,-0.51,-0.12,0.09,0.84,
0.428,0.38,-0.56,-0.51,-0.12,0.08,0.84,
0.431,0.45,-0.45,-0.64,-0.12,0.08,0.84,
0.431,0.45,-0.45,-0.64,-0.12,0.07,0.84,
0.433,0.45,-0.45,-0.64,-0.12,0.06,0.84,
0.434,0.45,-0.45,-0.64,-0.12,0.06,0.84,
0.436,0.45,-0.45,-0.64,-0.12,0.05,0.83,
0.451,0.45,-0.45,-0.64,-0.13,0.04,0.83,
0.451,0.56,-0.32,-0.70,-0.13,0.04,0.83,
0.452,0.56,-0.32,-0.70,-0.12,0.04,0.83,
0.452,0.56,-0.32,-0.70,-0.13,0.03,0.83,
0.452,0.56,-0.32,-0.70,-0.13,0.02,0.82,
0.452,0.56,-0.32,-0.70,-0.13,0.02,0.82,
0.452,0.56,-0.32,-0.70,-0.14,0.01,0.81,
0.452,0.61,-0.15,-0.70,-0.14,0.01,0.81,
0.453,0.61,-0.15,-0.70,-0.14,0.01,0.81,
0.453,0.61,-0.15,-0.70,-0.15,0.01,0.80,
0.456,0.61,-0.15,-0.70,-0.15,0.01,0.79,
0.458,0.61,-0.15,-0.70,-0.16,0.01,0.79,
0.459,0.61,-0.15,-0.70,-0.17,0.01,0.78,
0.461,0.61,-0.04,-0.67,-0.17,0.01,0.78,
0.461,0.61,-0.04,-0.67,-0.18,0.02,0.78,
0.462,0.61,-0.04,-0.67,-0.18,0.02,0.78,
0.465,0.61,-0.04,-0.67,-0.20,0.03,0.78,
0.466,0.61,-0.04,-0.67,-0.21,0.03,0.77,
0.468,0.61,-0.04,-0.67,-0.21,0.04,0.77,
0.471,0.53,0.07,-0.64,-0.21,0.04,0.77,
0.471,0.53,0.07,-0.64,-0.22,0.04,0.77,
0.475,0.53,0.07,-0.64,-0.23,0.05,0.78,
0.475,0.53,0.07,-0.64,-0.24,0.06,0.78,
0.477,0.53,0.07,-0.64,-0.25,0.06,0.78,
0.478,0.53,0.07,-0.64,-0.25,0.07,0.78,
0.487,0.49,0.15,-0.54,-0.25,0.07,0.78,
0.487,0.49,0.15,-0.54,-0.26,0.08,0.79,
0.5,0.49,0.15,-0.54,-0.26,0.08,0.79,
0.501,0.49,0.15,-0.54,-0.27,0.09,0.79,
0.501,0.49,0.15,-0.54,-0.27,0.09,0.79,
0.501,0.49,0.15,-0.54,-0.28,0.09,0.80,
0.501,0.51,0.27,-0.41,-0.28,0.09,0.80,
0.501,0.51,0.27,-0.41,-0.28,0.10,0.80,
0.501,0.51,0.27,-0.41,-0.28,0.10,0.80,
0.501,0.51,0.27,-0.41,-0.28,0.11,0.80,
0.502,0.51,0.27,-0.41,-0.28,0.11,0.80,
0.502,0.51,0.27,-0.41,-0.28,0.11,0.80,
0.502,0.59,0.37,-0.27,-0.28,0.11,0.80,
0.502,0.59,0.37,-0.27,-0.28,0.11,0.79,
0.503,0.59,0.37,-0.27,-0.28,0.12,0.79,
0.518,0.59,0.37,-0.27,-0.28,0.12,0.79,
0.519,0.59,0.37,-0.27,-0.28,0.12,0.79,
0.519,0.59,0.37,-0.27,-0.27,0.12,0.79,
0.52,0.74,0.52,-0.26,-0.27,0.12,0.79,
0.52,0.74,0.52,-0.26,-0.27,0.12,0.78,
0.522,0.74,0.52,-0.26,-0.27,0.12,0.78,
0.523,0.74,0.52,-0.26,-0.27,0.12,0.78,
0.523,0.74,0.52,-0.26,-0.27,0.12,0.77,
0.523,0.74,0.52,-0.26,-0.27,0.11,0.77,
0.524,0.83,0.62,-0.40,-0.27,0.11,0.77,
0.525,0.83,0.62,-0.40,-0.27,0.11,0.76,
0.525,0.83,0.62,-0.40,-0.28,0.10,0.76,
0.526,0.83,0.62,-0.40,-0.28,0.09,0.75,
0.53,0.83,0.62,-0.40,-0.28,0.08,0.75,
0.531,0.83,0.62,-0.40,-0.28,0.07,0.74,
0.531,0.94,0.74,-0.57,-0.28,0.07,0.74,
0.532,0.94,0.74,-0.57,-0.28,0.05,0.74,
0.533,0.94,0.74,-0.57,-0.28,0.04,0.73,
0.535,0.94,0.74,-0.57,-0.29,0.03,0.72,
0.538,0.94,0.74,-0.57,-0.29,0.02,0.72,
0.54,0.94,0.74,-0.57,-0.29,0.01,0.71,
0.541,1.01,0.83,-0.65,-0.29,0.01,0.71,
0.541,1.01,0.83,-0.65,-0.29,-0.00,0.70,
0.543,1.01,0.83,-0.65,-0.30,-0.01,0.69,
0.545,1.01,0.83,-0.65,-0.31,-0.02,0.69,
0.547,1.01,0.83,-0.65,-0.32,-0.03,0.68,
0.549,1.01,0.83,-0.65,-0.32,-0.05,0.68,
0.551,0.97,0.93,-0.71,-0.32,-0.05,0.68,
0.551,0.97,0.93,-0.71,-0.32,-0.06,0.67,
0.552,0.97,0.93,-0.71,-0.32,-0.07,0.66,
0.556,0.97,0.93,-0.71,-0.32,-0.08,0.66,
0.558,0.97,0.93,-0.71,-0.33,-0.09,0.65,
0.56,0.97,0.93,-0.71,-0.32,-0.10,0.64,
0.561,1.16,0.96,-0.57,-0.32,-0.10,0.64,
0.562,1.16,0.96,-0.57,-0.32,-0.11,0.62,
0.563,1.16,0.96,-0.57,-0.32,-0.11,0.61,
0.565,1.16,0.96,-0.57,-0.32,-0.12,0.60,
0.567,1.16,0.96,-0.57,-0.32,-0.12,0.58,
0.569,1.16,0.96,-0.57,-0.31,-0.13,0.57,
0.575,1.29,1.03,-0.43,-0.31,-0.13,0.57,
0.577,1.29,1.03,-0.43,-0.31,-0.13,0.55,
0.577,1.29,1.03,-0.43,-0.30,-0.14,0.54,
0.578,1.29,1.03,-0.43,-0.31,-0.14,0.52,
0.578,1.29,1.03,-0.43,-0.31,-0.14,0.51,
0.579,1.29,1.03,-0.43,-0.30,-0.13,0.50,
0.583,1.15,0.99,-0.26,-0.30,-0.13,0.50,
0.583,1.15,0.99,-0.26,-0.29,-0.13,0.48,
0.584,1.15,0.99,-0.26,-0.29,-0.12,0.46,
0.585,1.15,0.99,-0.26,-0.29,-0.12,0.46,
0.587,1.15,0.99,-0.26,-0.28,-0.11,0.45,
0.601,1.15,0.99,-0.26,-0.27,-0.10,0.44,
0.602,1.15,1.02,0.05,-0.27,-0.10,0.44,
0.603,1.15,1.02,0.05,-0.26,-0.08,0.44,
0.603,1.15,1.02,0.05,-0.25,-0.06,0.43,
0.604,1.15,1.02,0.05,-0.24,-0.03,0.42,
0.605,1.15,1.02,0.05,-0.23,0.01,0.40,
0.606,1.15,1.02,0.05,-0.22,0.03,0.40,
0.606,1.13,0.95,0.17,-0.22,0.03,0.40,
0.607,1.13,0.95,0.17,-0.22,0.06,0.39,
0.607,1.13,0.95,0.17,-0.21,0.09,0.38,
0.632,1.13,0.95,0.17,-0.21,0.13,0.37,
0.632,1.13,0.95,0.17,-0.21,0.16,0.35,
0.633,1.13,0.95,0.17,-0.21,0.19,0.34,
0.633,1.12,1.00,-0.02,-0.21,0.19,0.34,
0.633,1.12,1.00,-0.02,-0.21,0.23,0.33,
0.633,1.12,1.00,-0.02,-0.22,0.26,0.31,
0.634,1.12,1.00,-0.02,-0.23,0.30,0.30,
0.634,1.12,1.00,-0.02,-0.23,0.33,0.29,
0.634,1.12,1.00,-0.02,-0.24,0.35,0.28,
0.634,0.97,1.13,-0.27,-0.24,0.35,0.28,
0.635,0.97,1.13,-0.27,-0.25,0.38,0.26,
0.635,0.97,1.13,-0.27,-0.26,0.40,0.25,
0.635,0.97,1.13,-0.27,-0.26,0.43,0.24,
0.636,0.97,1.13,-0.27,-0.28,0.45,0.23,
0.636,0.97,1.13,-0.27,-0.28,0.46,0.23,
0.636,0.70,1.35,-0.53,-0.28,0.46,0.23,
0.636,0.70,1.35,-0.53,-0.29,0.47,0.21,
0.637,0.70,1.35,-0.53,-0.30,0.48,0.21,
0.637,0.70,1.35,-0.53,-0.31,0.49,0.20,
0.637,0.70,1.35,-0.53,-0.32,0.49,0.20,
0.643,0.70,1.35,-0.53,-0.33,0.50,0.19,
0.643,0.43,1.46,-0.71,-0.33,0.50,0.19,
0.643,0.43,1.46,-0.71,-0.34,0.50,0.19,
0.643,0.43,1.46,-0.71,-0.35,0.50,0.19,
0.645,0.43,1.46,-0.71,-0.36,0.49,0.18,
0.646,0.43,1.46,-0.71,-0.37,0.47,0.18,
0.648,0.43,1.46,-0.71,-0.37,0.46,0.18,
0.651,0.06,1.60,-0.59,-0.37,0.46,0.18,
0.651,0.06,1.60,-0.59,-0.37,0.44,0.18,
0.652,0.06,1.60,-0.59,-0.37,0.43,0.18,
0.66,0.06,1.60,-0.59,-0.37,0.41,0.19,
0.66,0.06,1.60,-0.59,-0.36,0.35,0.21,
0.66,0.06,1.60,-0.59,-0.36,0.35,0.21,
0.66,0.06,1.60,-0.59,-0.35,0.30,0.23,
0.661,-0.43,1.53,-0.44,-0.35,0.30,0.23,
0.662,-0.43,1.53,-0.44,-0.35,0.28,0.24,
0.664,-0.43,1.53,-0.44,-0.34,0.25,0.26,
0.667,-0.43,1.53,-0.44,-0.32,0.20,0.28,
0.668,-0.43,1.53,-0.44,-0.31,0.18,0.29,
0.672,-0.65,1.37,-0.21,-0.31,0.18,0.29,
0.672,-0.65,1.37,-0.21,-0.30,0.12,0.32,
0.673,-0.65,1.37,-0.21,-0.29,0.10,0.33,
0.674,-0.65,1.37,-0.21,-0.28,0.06,0.35,
0.677,-0.65,1.37,-0.21,-0.26,0.00,0.38,
0.678,-0.65,1.37,-0.21,-0.26,-0.01,0.39,
0.681,-0.58,1.20,0.06,-0.26,-0.01,0.39,
0.681,-0.58,1.20,0.06,-0.24,-0.05,0.42,
0.683,-0.58,1.20,0.06,-0.23,-0.06,0.43,
0.684,-0.58,1.20,0.06,-0.21,-0.09,0.45,
0.686,-0.58,1.20,0.06,-0.20,-0.11,0.46,
0.688,-0.58,1.20,0.06,-0.19,-0.12,0.47,
0.691,-0.31,1.12,0.17,-0.19,-0.12,0.47,
0.691,-0.31,1.12,0.17,-0.18,-0.13,0.48,
0.692,-0.31,1.12,0.17,-0.17,-0.14,0.49,
0.694,-0.31,1.12,0.17,-0.15,-0.15,0.49,
0.696,-0.31,1.12,0.17,-0.14,-0.15,0.50,
0.698,-0.31,1.12,0.17,-0.13,-0.16,0.50,
0.701,0.00,1.09,0.21,-0.13,-0.16,0.50,
0.701,0.00,1.09,0.21,-0.12,-0.16,0.51,
0.702,0.00,1.09,0.21,-0.11,-0.16,0.51,
0.704,0.00,1.09,0.21,-0.10,-0.17,0.51,
0.706,0.00,1.09,0.21,-0.09,-0.17,0.50,
0.708,0.00,1.09,0.21,-0.08,-0.18,0.50,
0.711,0.18,1.24,0.18,-0.08,-0.18,0.50,
0.711,0.18,1.24,0.18,-0.07,-0.19,0.50,
0.712,0.18,1.24,0.18,-0.06,-0.20,0.49,
0.714,0.18,1.24,0.18,-0.05,-0.21,0.49,
0.716,0.18,1.24,0.18,-0.04,-0.23,0.48,
0.719,0.18,1.24,0.18,-0.04,-0.24,0.47,
0.733,0.20,1.37,0.11,-0.04,-0.24,0.47,
0.733,0.20,1.37,0.11,-0.03,-0.26,0.47,
0.733,0.20,1.37,0.11,-0.02,-0.27,0.46,
0.734,0.20,1.37,0.11,-0.01,-0.29,0.45,
0.734,0.20,1.37,0.11,-0.00,-0.30,0.44,
0.734,0.20,1.37,0.11,0.00,-0.31,0.43,
0.734,0.15,1.47,0.08,0.00,-0.31,0.43,
0.734,0.15,1.47,0.08,0.01,-0.33,0.42,
0.762,0.15,1.47,0.08,0.02,-0.34,0.42,
0.762,0.15,1.47,0.08,0.03,-0.35,0.41,
0.763,0.15,1.47,0.08,0.04,-0.36,0.40,
0.763,0.15,1.47,0.08,0.05,-0.37,0.39,
0.763,0.10,1.40,0.18,0.05,-0.37,0.39,
0.763,0.10,1.40,0.18,0.07,-0.37,0.39,
0.764,0.10,1.40,0.18,0.08,-0.36,0.38,
0.764,0.10,1.40,0.18,0.10,-0.36,0.37,
0.764,0.10,1.40,0.18,0.11,-0.35,0.37,
0.765,0.10,1.40,0.18,0.13,-0.33,0.37,
0.765,0.09,1.32,0.26,0.13,-0.33,0.37,
0.765,0.09,1.32,0.26,0.14,-0.32,0.36,
0.766,0.09,1.32,0.26,0.16,-0.29,0.36,
0.766,0.09,1.32,0.26,0.18,-0.25,0.36,
0.766,0.09,1.32,0.26,0.19,-0.21,0.36,
0.766,0.09,1.32,0.26,0.20,-0.17,0.36,
0.767,0.01,1.12,0.22,0.20,-0.17,0.36,
0.767,0.01,1.12,0.22,0.22,-0.13,0.36,
0.767,0.01,1.12,0.22,0.23,-0.08,0.37,
0.768,0.01,1.12,0.22,0.23,-0.03,0.38,
0.768,0.01,1.12,0.22,0.24,0.01,0.38,
0.772,0.01,1.12,0.22,0.24,0.06,0.39,
0.772,-0.35,0.89,-0.06,0.24,0.06,0.39,
0.794,-0.35,0.89,-0.06,0.24,0.10,0.41,
0.794,-0.35,0.89,-0.06,0.24,0.14,0.42,
0.794,-0.35,0.89,-0.06,0.23,0.18,0.43,
0.794,-0.35,0.89,-0.06,0.23,0.21,0.45,
0.795,-0.35,0.89,-0.06,0.22,0.25,0.46,
0.795,-0.65,0.66,-0.41,0.22,0.25,0.46,
0.795,-0.65,0.66,-0.41,0.21,0.28,0.48,
0.795,-0.65,0.66,-0.41,0.20,0.31,0.50,
0.795,-0.65,0.66,-0.41,0.19,0.33,0.51,
0.796,-0.65,0.66,-0.41,0.18,0.36,0.53,
0.796,-0.65,0.66,-0.41,0.17,0.38,0.55,
0.796,-0.90,0.41,-0.69,0.17,0.38,0.55,
0.796,-0.90,0.41,-0.69,0.16,0.40,0.56,
0.796,-0.90,0.41,-0.69,0.15,0.42,0.58,
0.797,-0.90,0.41,-0.69,0.14,0.44,0.59,
0.797,-0.90,0.41,-0.69,0.12,0.45,0.61,
0.799,-0.90,0.41,-0.69,0.11,0.46,0.63,
0.801,-0.91,0.23,-0.84,0.11,0.46,0.63,
0.802,-0.91,0.23,-0.84,0.10,0.47,0.64,
0.802,-0.91,0.23,-0.84,0.09,0.48,0.66,
0.814,-0.91,0.23,-0.84,0.08,0.48,0.67,
0.815,-0.91,0.23,-0.84,0.07,0.48,0.69,
0.815,-0.91,0.23,-0.84,0.06,0.48,0.70,
0.815,-0.89,0.25,-0.71,0.06,0.48,0.70,
0.815,-0.89,0.25,-0.71,0.06,0.48,0.71,
0.815,-0.89,0.25,-0.71,0.06,0.49,0.72,
0.816,-0.89,0.25,-0.71,0.06,0.49,0.73,
0.816,-0.89,0.25,-0.71,0.06,0.49,0.73,
0.819,-0.89,0.25,-0.71,0.07,0.49,0.74,
0.821,-0.73,0.16,-0.38,0.07,0.49,0.74,
0.821,-0.73,0.16,-0.38,0.08,0.50,0.74,
0.822,-0.73,0.16,-0.38,0.09,0.50,0.74,
0.824,-0.73,0.16,-0.38,0.10,0.50,0.75,
0.826,-0.73,0.16,-0.38,0.11,0.49,0.75,
0.828,-0.73,0.16,-0.38,0.13,0.48,0.76,
0.831,-0.66,-0.12,-0.17,0.13,0.48,0.76,
0.831,-0.66,-0.12,-0.17,0.15,0.47,0.77,
0.832,-0.66,-0.12,-0.17,0.17,0.46,0.78,
0.834,-0.66,-0.12,-0.17,0.19,0.44,0.80,
0.842,-0.66,-0.12,-0.17,0.22,0.42,0.82,
0.843,-0.66,-0.12,-0.17,0.25,0.39,0.86,
0.843,-1.15,-0.53,-0.02,0.25,0.39,0.86,
0.843,-1.15,-0.53,-0.02,0.28,0.34,0.92,
0.843,-1.15,-0.53,-0.02,0.33,0.30,0.99,
0.844,-1.15,-0.53,-0.02,0.38,0.29,1.06,
0.872,-1.15,-0.53,-0.02,0.43,0.29,1.11,
0.873,-1.15,-0.53,-0.02,0.47,0.31,1.17,
0.873,-2.01,-0.92,0.23,0.47,0.31,1.17,
0.874,-2.01,-0.92,0.23,0.52,0.32,1.21,
0.874,-2.01,-0.92,0.23,0.56,0.34,1.25,
0.875,-2.01,-0.92,0.23,0.59,0.36,1.28,
0.875,-2.01,-0.92,0.23,0.62,0.38,1.30,
0.875,-2.01,-0.92,0.23,0.65,0.40,1.31,
0.876,-1.60,-0.69,0.11,0.65,0.40,1.31,
0.876,-1.60,-0.69,0.11,0.67,0.42,1.32,
0.876,-1.60,-0.69,0.11,0.68,0.45,1.32,
0.877,-1.60,-0.69,0.11,0.68,0.48,1.32,
0.877,-1.60,-0.69,0.11,0.69,0.52,1.32,
0.877,-1.60,-0.69,0.11,0.68,0.54,1.32,
0.878,-1.40,-0.76,-0.75,0.68,0.54,1.32,
0.878,-1.40,-0.76,-0.75,0.67,0.56,1.31,
0.878,-1.40,-0.76,-0.75,0.66,0.58,1.30,
0.879,-1.40,-0.76,-0.75,0.64,0.60,1.30,
0.879,-1.40,-0.76,-0.75,0.61,0.60,1.29,
0.879,-1.40,-0.76,-0.75,0.58,0.60,1.29,
0.885,-1.23,-1.19,-1.73,0.58,0.60,1.29,
0.886,-1.23,-1.19,-1.73,0.56,0.60,1.28,
0.886,-1.23,-1.19,-1.73,0.53,0.59,1.28,
0.887,-1.23,-1.19,-1.73,0.50,0.57,1.28,
0.887,-1.23,-1.19,-1.73,0.45,0.55,1.28,
0.892,-1.23,-1.19,-1.73,0.42,0.52,1.28,
0.893,-1.18,-1.39,-2.24,0.42,0.52,1.28,
0.893,-1.18,-1.39,-2.24,0.40,0.50,1.28,
0.894,-1.18,-1.39,-2.24,0.36,0.47,1.29,
0.895,-1.18,-1.39,-2.24,0.32,0.43,1.29,
0.897,-1.18,-1.39,-2.24,0.29,0.39,1.29,
0.899,-1.18,-1.39,-2.24,0.26,0.36,1.29,
0.901,-1.04,-1.20,-2.20,0.26,0.36,1.29,
0.902,-1.04,-1.20,-2.20,0.22,0.31,1.28,
0.907,-1.04,-1.20,-2.20,0.19,0.26,1.28,
0.908,-1.04,-1.20,-2.20,0.16,0.22,1.27,
0.908,-1.04,-1.20,-2.20,0.13,0.17,1.26,
0.909,-1.04,-1.20,-2.20,0.10,0.12,1.25,
0.911,-0.75,-1.03,-1.65,0.10,0.12,1.25,
0.912,-0.75,-1.03,-1.65,0.07,0.06,1.23,
0.913,-0.75,-1.03,-1.65,0.05,0.01,1.21,
0.915,-0.75,-1.03,-1.65,0.01,-0.04,1.19,
0.917,-0.75,-1.03,-1.65,-0.02,-0.09,1.17,
0.919,-0.75,-1.03,-1.65,-0.04,-0.14,1.15,
0.922,-0.45,-0.98,-0.54,-0.04,-0.14,1.15,
0.923,-0.45,-0.98,-0.54,-0.06,-0.19,1.13,
0.924,-0.45,-0.98,-0.54,-0.07,-0.24,1.10,
0.926,-0.45,-0.98,-0.54,-0.09,-0.29,1.08,
0.926,-0.45,-0.98,-0.54,-0.10,-0.34,1.06,
0.931,-0.45,-0.98,-0.54,-0.12,-0.38,1.05,
0.933,-0.45,-0.98,-0.54,-0.13,-0.44,1.02,
0.934,-0.40,-1.17,1.37,-0.13,-0.44,1.02,
0.935,-0.40,-1.17,1.37,-0.13,-0.45,1.02,
0.935,-0.40,-1.17,1.37,-0.14,-0.48,1.00,
0.942,-0.40,-1.17,1.37,-0.13,-0.51,0.99,
0.979,-0.40,-1.17,1.37,-0.14,-0.53,0.98,
0.98,-0.56,-1.25,2.27,-0.14,-0.53,0.98,
0.982,-0.56,-1.25,2.27,-0.14,-0.55,0.97,
0.983,-0.56,-1.25,2.27,-0.14,-0.57,0.97,
0.985,-0.56,-1.25,2.27,-0.14,-0.58,0.97,
0.986,-0.56,-1.25,2.27,-0.13,-0.59,0.97,
0.987,-0.56,-1.25,2.27,-0.13,-0.60,0.97,
0.988,-0.77,-1.56,3.41,-0.13,-0.60,0.97,
0.988,-0.77,-1.56,3.41,-0.12,-0.60,0.97,
0.989,-0.77,-1.56,3.41,-0.11,-0.59,0.98,
0.99,-0.77,-1.56,3.41,-0.10,-0.58,0.99,
0.99,-0.77,-1.56,3.41,-0.09,-0.56,1.00,
0.991,-0.77,-1.56,3.41,-0.08,-0.54,1.02,
0.991,-0.94,-1.87,4.07,-0.08,-0.54,1.02,
0.992,-0.94,-1.87,4.07,-0.08,-0.52,1.03,
0.993,-0.94,-1.87,4.07,-0.07,-0.48,1.05,
0.993,-0.94,-1.87,4.07,-0.05,-0.45,1.07,
0.994,-0.94,-1.87,4.07,-0.04,-0.42,1.10,
0.994,-0.94,-1.87,4.07,-0.04,-0.39,1.13,
0.995,-1.16,-2.11,4.23,-0.04,-0.39,1.13,
0.995,-1.16,-2.11,4.23,-0.03,-0.36,1.16,
0.996,-1.16,-2.11,4.23,-0.03,-0.33,1.20,
0.996,-1.16,-2.11,4.23,-0.02,-0.31,1.23,
0.997,-1.16,-2.11,4.23,-0.01,-0.30,1.27,
0.997,-1.16,-2.11,4.23,0.00,-0.29,1.31,
0.998,-1.24,-2.00,4.04,0.00,-0.29,1.31,
0.998,-1.24,-2.00,4.04,0.01,-0.29,1.36,
0.999,-1.24,-2.00,4.04,0.02,-0.30,1.40,
0.999,-1.24,-2.00,4.04,0.02,-0.31,1.44,
1.0,-1.24,-2.00,4.04,0.04,-0.33,1.49,
1.0,-1.24,-2.00,4.04,0.05,-0.35,1.52,
1.001,-1.18,-1.76,3.86,0.05,-0.35,1.52,
1.004,-1.18,-1.76,3.86,0.07,-0.37,1.56,
1.004,-1.18,-1.76,3.86,0.09,-0.39,1.58,
1.005,-1.18,-1.76,3.86,0.11,-0.40,1.61,
1.005,-1.18,-1.76,3.86,0.13,-0.40,1.62,
1.006,-1.18,-1.76,3.86,0.15,-0.41,1.62,
1.006,-0.70,-1.67,3.46,0.15,-0.41,1.62,
1.006,-0.70,-1.67,3.46,0.16,-0.41,1.62,
1.007,-0.70,-1.67,3.46,0.18,-0.42,1.61,
1.007,-0.70,-1.67,3.46,0.20,-0.44,1.59,
1.007,-0.70,-1.67,3.46,0.21,-0.46,1.58,
1.008,-0.70,-1.67,3.46,0.22,-0.47,1.56,
1.021,-0.23,-1.43,3.09,0.22,-0.47,1.56,
1.021,-0.23,-1.43,3.09,0.24,-0.50,1.55,
1.022,-0.23,-1.43,3.09,0.25,-0.53,1.53,
1.022,-0.23,-1.43,3.09,0.26,-0.56,1.51,
1.023,-0.23,-1.43,3.09,0.27,-0.60,1.49,
1.023,-0.23,-1.43,3.09,0.28,-0.64,1.47,
1.023,0.11,-1.02,2.61,0.28,-0.64,1.47,
1.024,0.11,-1.02,2.61,0.29,-0.67,1.46,
1.024,0.11,-1.02,2.61,0.30,-0.71,1.45,
1.024,0.11,-1.02,2.61,0.30,-0.75,1.43,
1.027,0.11,-1.02,2.61,0.31,-0.78,1.42,
1.028,0.11,-1.02,2.61,0.33,-0.81,1.41,
1.03,0.36,-0.73,2.28,0.33,-0.81,1.41,
1.031,0.36,-0.73,2.28,0.33,-0.84,1.40,
1.032,0.36,-0.73,2.28,0.33,-0.86,1.39,
1.034,0.36,-0.73,2.28,0.34,-0.88,1.38,
1.043,0.36,-0.73,2.28,0.34,-0.89,1.37,
1.044,0.36,-0.73,2.28,0.34,-0.90,1.35,
1.044,0.65,-0.63,2.05,0.34,-0.90,1.35,
1.044,0.65,-0.63,2.05,0.35,-0.91,1.34,
1.045,0.65,-0.63,2.05,0.35,-0.91,1.33,
1.045,0.65,-0.63,2.05,0.35,-0.89,1.31,
1.046,0.65,-0.63,2.05,0.34,-0.87,1.30,
1.074,0.65,-0.63,2.05,0.32,-0.83,1.29,
1.075,0.87,-0.66,1.73,0.32,-0.83,1.29,
1.075,0.87,-0.66,1.73,0.31,-0.79,1.28,
1.075,0.87,-0.66,1.73,0.30,-0.75,1.26,
1.076,0.87,-0.66,1.73,0.29,-0.70,1.25,
1.076,0.87,-0.66,1.73,0.28,-0.65,1.24,
1.076,0.87,-0.66,1.73,0.28,-0.61,1.22,
1.076,0.97,-0.69,1.56,0.28,-0.61,1.22,
1.076,0.97,-0.69,1.56,0.28,-0.56,1.21,
1.076,0.97,-0.69,1.56,0.28,-0.52,1.20,
1.077,0.97,-0.69,1.56,0.28,-0.48,1.19,
1.077,0.97,-0.69,1.56,0.28,-0.43,1.18,
1.077,0.97,-0.69,1.56,0.28,-0.39,1.17,
1.077,0.92,-0.73,1.40,0.28,-0.39,1.17,
1.077,0.92,-0.73,1.40,0.28,-0.35,1.16,
1.078,0.92,-0.73,1.40,0.28,-0.31,1.15,
1.078,0.92,-0.73,1.40,0.28,-0.28,1.14,
1.078,0.92,-0.73,1.40,0.28,-0.24,1.13,
1.078,0.92,-0.73,1.40,0.28,-0.21,1.13,
1.081,0.81,-0.68,1.02,0.28,-0.21,1.13,
1.081,0.81,-0.68,1.02,0.28,-0.19,1.12,
1.082,0.81,-0.68,1.02,0.28,-0.16,1.11,
1.086,0.81,-0.68,1.02,0.28,-0.14,1.10,
1.087,0.81,-0.68,1.02,0.29,-0.13,1.09,
1.09,0.81,-0.68,1.02,0.29,-0.11,1.09,
1.091,0.80,-0.61,0.58,0.29,-0.11,1.09,
1.092,0.80,-0.61,0.58,0.30,-0.09,1.08,
1.093,0.80,-0.61,0.58,0.31,-0.08,1.07,
1.095,0.80,-0.61,0.58,0.32,-0.06,1.06,
1.097,0.80,-0.61,0.58,0.33,-0.05,1.05,
1.099,0.80,-0.61,0.58,0.34,-0.05,1.04,
1.101,0.74,-0.49,0.21,0.34,-0.05,1.04,
1.102,0.74,-0.49,0.21,0.36,-0.04,1.03,
1.104,0.74,-0.49,0.21,0.36,-0.04,1.02,
1.122,0.74,-0.49,0.21,0.38,-0.04,1.02,
1.123,0.74,-0.49,0.21,0.40,-0.05,1.01,
1.123,0.74,-0.49,0.21,0.41,-0.06,1.00,
1.123,0.68,-0.45,-0.30,0.41,-0.06,1.00,
1.123,0.68,-0.45,-0.30,0.42,-0.07,0.99,
1.123,0.68,-0.45,-0.30,0.43,-0.08,0.98,
1.124,0.68,-0.45,-0.30,0.44,-0.09,0.97,
1.124,0.68,-0.45,-0.30,0.45,-0.10,0.96,
1.124,0.68,-0.45,-0.30,0.46,-0.11,0.95,
1.124,0.52,-0.44,-0.94,0.46,-0.11,0.95,
1.124,0.52,-0.44,-0.94,0.46,-0.12,0.94,
1.125,0.52,-0.44,-0.94,0.46,-0.13,0.93,
1.125,0.52,-0.44,-0.94,0.45,-0.14,0.92,
1.127,0.52,-0.44,-0.94,0.45,-0.16,0.91,
1.128,0.52,-0.44,-0.94,0.44,-0.17,0.89,
1.131,0.44,-0.37,-1.49,0.44,-0.17,0.89,
1.131,0.44,-0.37,-1.49,0.43,-0.18,0.88,
1.132,0.44,-0.37,-1.49,0.43,-0.20,0.87,
1.134,0.44,-0.37,-1.49,0.42,-0.21,0.87,
1.137,0.44,-0.37,-1.49,0.41,-0.23,0.86,
1.139,0.44,-0.37,-1.49,0.40,-0.24,0.85,
1.141,0.29,-0.34,-1.71,0.40,-0.24,0.85,
1.141,0.29,-0.34,-1.71,0.40,-0.25,0.84,
1.142,0.29,-0.34,-1.71,0.39,-0.26,0.83,
1.144,0.29,-0.34,-1.71,0.39,-0.27,0.82,
1.146,0.29,-0.34,-1.71,0.39,-0.28,0.81,
1.148,0.29,-0.34,-1.71,0.39,-0.29,0.80,
1.151,0.49,-0.31,-1.46,0.39,-0.29,0.80,
1.151,0.49,-0.31,-1.46,0.39,-0.29,0.78,
1.156,0.49,-0.31,-1.46,0.40,-0.29,0.77,
1.157,0.49,-0.31,-1.46,0.41,-0.29,0.75,
1.157,0.49,-0.31,-1.46,0.42,-0.28,0.73,
1.162,0.49,-0.31,-1.46,0.46,-0.25,0.69,
1.185,0.49,-0.31,-1.46,0.46,-0.25,0.69,
1.185,0.86,-0.21,-1.00,0.46,-0.25,0.69,
1.185,0.86,-0.21,-1.00,0.47,-0.22,0.67,
1.185,0.86,-0.21,-1.00,0.48,-0.20,0.64,
1.186,0.86,-0.21,-1.00,0.50,-0.17,0.62,
1.186,0.86,-0.21,-1.00,0.51,-0.13,0.60,
1.186,1.06,-0.18,-1.04,0.51,-0.13,0.60,
1.186,1.06,-0.18,-1.04,0.52,-0.10,0.58,
1.186,1.06,-0.18,-1.04,0.53,-0.06,0.56,
1.186,1.06,-0.18,-1.04,0.54,-0.03,0.54,
1.187,1.06,-0.18,-1.04,0.55,0.01,0.51,
1.187,1.06,-0.18,-1.04,0.55,0.06,0.49,
1.187,1.10,-0.24,-1.49,0.55,0.06,0.49,
1.187,1.10,-0.24,-1.49,0.55,0.10,0.47,
1.187,1.10,-0.24,-1.49,0.54,0.14,0.45,
1.188,1.10,-0.24,-1.49,0.53,0.18,0.43,
1.188,1.10,-0.24,-1.49,0.52,0.22,0.40,
1.188,1.10,-0.24,-1.49,0.51,0.26,0.38,
1.191,1.02,-0.24,-2.30,0.51,0.26,0.38,
1.191,1.02,-0.24,-2.30,0.49,0.29,0.36,
1.192,1.02,-0.24,-2.30,0.47,0.33,0.34,
1.194,1.02,-0.24,-2.30,0.45,0.36,0.32,
1.196,1.02,-0.24,-2.30,0.41,0.39,0.30,
1.199,1.02,-0.24,-2.30,0.39,0.42,0.28,
1.201,0.76,-0.20,-3.05,0.39,0.42,0.28,
1.201,0.76,-0.20,-3.05,0.35,0.44,0.26,
1.205,0.76,-0.20,-3.05,0.33,0.47,0.24,
1.206,0.76,-0.20,-3.05,0.29,0.49,0.22,
1.208,0.76,-0.20,-3.05,0.26,0.51,0.20,
1.208,0.76,-0.20,-3.05,0.23,0.53,0.18,
1.211,0.57,-0.22,-3.55,0.23,0.53,0.18,
1.212,0.57,-0.22,-3.55,0.19,0.55,0.16,
1.213,0.57,-0.22,-3.55,0.17,0.57,0.14,
1.215,0.57,-0.22,-3.55,0.14,0.59,0.13,
1.217,0.57,-0.22,-3.55,0.11,0.61,0.11,
1.219,0.57,-0.22,-3.55,0.08,0.62,0.09,
1.221,0.30,-0.28,-3.65,0.08,0.62,0.09,
1.224,0.30,-0.28,-3.65,0.06,0.64,0.08,
1.225,0.30,-0.28,-3.65,0.04,0.65,0.07,
1.225,0.30,-0.28,-3.65,0.02,0.66,0.06,
1.226,0.30,-0.28,-3.65,-0.01,0.67,0.04,
1.228,0.30,-0.28,-3.65,-0.02,0.68,0.03,
1.231,0.14,-0.42,-3.48,-0.02,0.68,0.03,
1.232,0.14,-0.42,-3.48,-0.03,0.69,0.02,
1.232,0.14,-0.42,-3.48,-0.05,0.70,0.02,
1.237,0.14,-0.42,-3.48,-0.06,0.71,0.01,
1.242,0.14,-0.42,-3.48,-0.07,0.71,0.00,
1.242,0.14,-0.42,-3.48,-0.08,0.72,0.00,
1.245,-0.18,-0.54,-3.18,-0.08,0.72,0.00,
1.245,-0.18,-0.54,-3.18,-0.09,0.72,0.00,
1.246,-0.18,-0.54,-3.18,-0.09,0.71,-0.00,
1.247,-0.18,-0.54,-3.18,-0.10,0.71,-0.00,
1.248,-0.18,-0.54,-3.18,-0.10,0.71,0.00,
1.255,-0.18,-0.54,-3.18,-0.10,0.70,0.01,
1.256,-0.57,-0.63,-2.76,-0.10,0.70,0.01,
1.256,-0.57,-0.63,-2.76,-0.10,0.70,0.01,
1.257,-0.57,-0.63,-2.76,-0.10,0.69,0.02,
1.257,-0.57,-0.63,-2.76,-0.09,0.68,0.03,
1.258,-0.57,-0.63,-2.76,-0.08,0.67,0.04,
1.26,-0.57,-0.63,-2.76,-0.07,0.67,0.06,
1.261,-0.89,-0.77,-2.24,-0.07,0.67,0.06,
1.262,-0.89,-0.77,-2.24,-0.05,0.66,0.07,
1.263,-0.89,-0.77,-2.24,-0.04,0.65,0.08,
1.264,-0.89,-0.77,-2.24,-0.02,0.63,0.10,
1.266,-0.89,-0.77,-2.24,0.01,0.62,0.12,
1.281,-0.89,-0.77,-2.24,0.03,0.60,0.13,
1.282,-0.94,-0.92,-1.68,0.03,0.60,0.13,
1.314,-0.94,-0.92,-1.68,0.06,0.58,0.15,
1.314,-0.94,-0.92,-1.68,0.09,0.56,0.16,
1.315,-0.94,-0.92,-1.68,0.11,0.55,0.18,
1.315,-0.94,-0.92,-1.68,0.14,0.53,0.19,
1.316,-0.94,-0.92,-1.68,0.17,0.51,0.20,
1.316,-0.71,-0.92,-1.24,0.17,0.51,0.20,
1.316,-0.71,-0.92,-1.24,0.21,0.49,0.21,
1.317,-0.71,-0.92,-1.24,0.24,0.48,0.23,
1.317,-0.71,-0.92,-1.24,0.27,0.46,0.23,
1.318,-0.71,-0.92,-1.24,0.31,0.44,0.24,
1.318,-0.71,-0.92,-1.24,0.34,0.42,0.24,
1.319,-0.37,-0.82,-1.06,0.34,0.42,0.24,
1.319,-0.37,-0.82,-1.06,0.37,0.41,0.25,
1.319,-0.37,-0.82,-1.06,0.40,0.39,0.24,
1.32,-0.37,-0.82,-1.06,0.44,0.38,0.24,
1.32,-0.37,-0.82,-1.06,0.47,0.36,0.24,
1.321,-0.37,-0.82,-1.06,0.50,0.34,0.23,
1.321,-0.04,-0.67,-1.13,0.50,0.34,0.23,
1.321,-0.04,-0.67,-1.13,0.52,0.32,0.23,
1.322,-0.04,-0.67,-1.13,0.55,0.31,0.22,
1.322,-0.04,-0.67,-1.13,0.58,0.29,0.21,
1.323,-0.04,-0.67,-1.13,0.61,0.28,0.20,
1.323,-0.04,-0.67,-1.13,0.63,0.27,0.18,
1.323,0.23,-0.55,-1.41,0.63,0.27,0.18,
1.324,0.23,-0.55,-1.41,0.65,0.25,0.17,
1.324,0.23,-0.55,-1.41,0.67,0.24,0.15,
1.325,0.23,-0.55,-1.41,0.68,0.23,0.13,
1.325,0.23,-0.55,-1.41,0.70,0.22,0.12,
1.326,0.23,-0.55,-1.41,0.71,0.21,0.10,
1.326,0.42,-0.48,-2.00,0.71,0.21,0.10,
1.326,0.42,-0.48,-2.00,0.72,0.20,0.08,
1.327,0.42,-0.48,-2.00,0.72,0.19,0.06,
1.327,0.42,-0.48,-2.00,0.72,0.18,0.04,
1.328,0.42,-0.48,-2.00,0.72,0.17,0.02,
1.328,0.42,-0.48,-2.00,0.71,0.16,-0.00,
1.341,0.52,-0.33,-2.77,0.71,0.16,-0.00,
1.342,0.52,-0.33,-2.77,0.70,0.15,-0.02,
1.342,0.52,-0.33,-2.77,0.68,0.14,-0.04,
1.342,0.52,-0.33,-2.77,0.66,0.13,-0.06,
1.343,0.52,-0.33,-2.77,0.64,0.12,-0.08,
1.343,0.52,-0.33,-2.77,0.61,0.11,-0.10,
1.346,0.51,-0.26,-3.58,0.61,0.11,-0.10,
1.347,0.51,-0.26,-3.58,0.57,0.10,-0.12,
1.347,0.51,-0.26,-3.58,0.53,0.09,-0.15,
1.348,0.51,-0.26,-3.58,0.49,0.08,-0.17,
1.348,0.51,-0.26,-3.58,0.45,0.07,-0.18,
1.349,0.51,-0.26,-3.58,0.40,0.06,-0.20,
1.353,0.43,-0.20,-4.17,0.40,0.06,-0.20,
1.353,0.43,-0.20,-4.17,0.36,0.05,-0.22,
1.353,0.43,-0.20,-4.17,0.31,0.04,-0.23,
1.358,0.43,-0.20,-4.17,0.26,0.04,-0.24,
1.359,0.43,-0.20,-4.17,0.21,0.03,-0.25,
1.359,0.43,-0.20,-4.17,0.17,0.03,-0.26,
1.363,-0.07,-0.20,-4.18,0.17,0.03,-0.26,
1.363,-0.07,-0.20,-4.18,0.12,0.02,-0.26,
1.364,-0.07,-0.20,-4.18,0.07,0.01,-0.27,
1.364,-0.07,-0.20,-4.18,0.03,0.01,-0.27,
1.369,-0.07,-0.20,-4.18,-0.01,0.01,-0.26,
1.369,-0.07,-0.20,-4.18,-0.05,-0.00,-0.26,
1.371,-0.54,-0.23,-3.63,-0.05,-0.00,-0.26,
1.372,-0.54,-0.23,-3.63,-0.07,-0.01,-0.25,
1.373,-0.54,-0.23,-3.63,-0.10,-0.01,-0.25,
1.374,-0.54,-0.23,-3.63,-0.12,-0.02,-0.24,
1.376,-0.54,-0.23,-3.63,-0.13,-0.03,-0.23,
1.378,-0.54,-0.23,-3.63,-0.14,-0.04,-0.23,
1.381,-0.63,-0.25,-2.32,-0.14,-0.04,-0.23,
1.381,-0.63,-0.25,-2.32,-0.14,-0.04,-0.23,
1.382,-0.63,-0.25,-2.32,-0.14,-0.05,-0.22,
1.385,-0.63,-0.25,-2.32,-0.13,-0.06,-0.22,
1.387,-0.63,-0.25,-2.32,-0.11,-0.07,-0.22,
1.388,-0.63,-0.25,-2.32,-0.09,-0.08,-0.22,
1.391,-0.38,-0.19,-0.82,-0.09,-0.08,-0.22,
1.391,-0.38,-0.19,-0.82,-0.07,-0.08,-0.22,
1.392,-0.38,-0.19,-0.82,-0.04,-0.09,-0.22,
1.394,-0.38,-0.19,-0.82,-0.00,-0.08,-0.22,
1.396,-0.38,-0.19,-0.82,0.03,-0.07,-0.22,
1.398,-0.38,-0.19,-0.82,0.07,-0.06,-0.22,
1.415,-0.26,-0.10,0.34,0.07,-0.06,-0.22,
1.416,-0.26,-0.10,0.34,0.11,-0.05,-0.21,
1.416,-0.26,-0.10,0.34,0.14,-0.04,-0.21,
1.416,-0.26,-0.10,0.34,0.18,-0.02,-0.21,
1.417,-0.26,-0.10,0.34,0.21,-0.01,-0.20,
1.417,-0.26,-0.10,0.34,0.24,0.00,-0.20,
1.417,-0.26,-0.15,0.57,0.24,0.00,-0.20,
1.417,-0.26,-0.15,0.57,0.27,0.02,-0.19,
1.417,-0.26,-0.15,0.57,0.29,0.03,-0.19,
1.418,-0.26,-0.15,0.57,0.31,0.04,-0.19,
1.418,-0.26,-0.15,0.57,0.32,0.05,-0.19,
1.448,-0.26,-0.15,0.57,0.33,0.06,-0.19,
1.449,-0.17,-0.09,0.10,0.33,0.06,-0.19,
1.449,-0.17,-0.09,0.10,0.34,0.06,-0.18,
1.45,-0.17,-0.09,0.10,0.35,0.06,-0.19,
1.45,-0.17,-0.09,0.10,0.34,0.06,-0.19,
1.45,-0.17,-0.09,0.10,0.34,0.06,-0.19,
1.45,-0.17,-0.09,0.10,0.33,0.05,-0.20,
1.451,-0.05,0.10,-0.72,0.33,0.05,-0.20,
1.451,-0.05,0.10,-0.72,0.31,0.04,-0.20,
1.451,-0.05,0.10,-0.72,0.29,0.03,-0.21,
1.452,-0.05,0.10,-0.72,0.26,0.02,-0.22,
1.452,-0.05,0.10,-0.72,0.24,0.01,-0.22,
1.476,-0.05,0.10,-0.72,0.21,0.00,-0.23,
1.476,0.08,0.30,-1.38,0.21,0.00,-0.23,
1.476,0.08,0.30,-1.38,0.17,-0.01,-0.24,
1.477,0.08,0.30,-1.38,0.13,-0.02,-0.25,
1.477,0.08,0.30,-1.38,0.10,-0.04,-0.26,
1.477,0.08,0.30,-1.38,0.05,-0.05,-0.27,
1.477,0.08,0.30,-1.38,0.01,-0.06,-0.28,
1.477,0.19,0.54,-1.62,0.01,-0.06,-0.28,
1.478,0.19,0.54,-1.62,-0.03,-0.07,-0.29,
1.478,0.19,0.54,-1.62,-0.07,-0.08,-0.30,
1.478,0.19,0.54,-1.62,-0.10,-0.08,-0.31,
1.478,0.19,0.54,-1.62,-0.13,-0.08,-0.33,
1.478,0.19,0.54,-1.62,-0.16,-0.08,-0.34,
1.479,0.28,0.64,-1.18,-0.16,-0.08,-0.34,
1.479,0.28,0.64,-1.18,-0.19,-0.08,-0.35,
1.479,0.28,0.64,-1.18,-0.21,-0.07,-0.36,
1.479,0.28,0.64,-1.18,-0.23,-0.06,-0.37,
1.479,0.28,0.64,-1.18,-0.24,-0.06,-0.38,
1.48,0.28,0.64,-1.18,-0.25,-0.04,-0.38,
1.48,-0.04,0.68,-0.34,-0.25,-0.04,-0.38,
1.48,-0.04,0.68,-0.34,-0.25,-0.03,-0.38,
1.48,-0.04,0.68,-0.34,-0.25,-0.02,-0.38,
1.48,-0.04,0.68,-0.34,-0.24,-0.00,-0.38,
1.48,-0.04,0.68,-0.34,-0.23,0.01,-0.37,
1.481,-0.04,0.68,-0.34,-0.21,0.04,-0.36,
1.481,-0.49,0.57,0.86,-0.21,0.04,-0.36,
1.488,-0.49,0.57,0.86,-0.19,0.07,-0.35,
1.488,-0.49,0.57,0.86,-0.16,0.09,-0.34,
1.489,-0.49,0.57,0.86,-0.12,0.13,-0.32,
1.489,-0.49,0.57,0.86,-0.09,0.17,-0.30,
1.489,-0.49,0.57,0.86,-0.05,0.20,-0.28,
1.496,-0.89,0.41,1.65,-0.05,0.20,-0.28,
1.496,-0.89,0.41,1.65,-0.01,0.24,-0.26,
1.497,-0.89,0.41,1.65,0.03,0.28,-0.24,
1.497,-0.89,0.41,1.65,0.07,0.32,-0.21,
1.497,-0.89,0.41,1.65,0.10,0.35,-0.19,
1.501,-0.89,0.41,1.65,0.14,0.39,-0.16,
1.501,-1.06,0.31,1.48,0.14,0.39,-0.16,
1.502,-1.06,0.31,1.48,0.17,0.42,-0.14,
1.506,-1.06,0.31,1.48,0.20,0.45,-0.12,
1.507,-1.06,0.31,1.48,0.23,0.47,-0.09,
1.507,-1.06,0.31,1.48,0.25,0.49,-0.07,
1.511,-1.06,0.31,1.48,0.28,0.50,-0.05,
1.511,-1.22,0.41,0.74,0.28,0.50,-0.05,
1.511,-1.22,0.41,0.74,0.29,0.51,-0.03,
1.515,-1.22,0.41,0.74,0.31,0.52,-0.01,
1.515,-1.22,0.41,0.74,0.33,0.51,0.01,
1.519,-1.22,0.41,0.74,0.33,0.51,0.03,
1.519,-1.22,0.41,0.74,0.33,0.50,0.05,
1.521,-1.10,0.60,-0.12,0.33,0.50,0.05,
1.521,-1.10,0.60,-0.12,0.34,0.49,0.06,
1.525,-1.10,0.60,-0.12,0.35,0.48,0.08,
1.525,-1.10,0.60,-0.12,0.34,0.46,0.09,
1.526,-1.10,0.60,-0.12,0.34,0.43,0.10,
1.528,-1.10,0.60,-0.12,0.33,0.41,0.11,
1.531,-0.89,0.87,-0.86,0.33,0.41,0.11,
1.532,-0.89,0.87,-0.86,0.32,0.38,0.11,
1.532,-0.89,0.87,-0.86,0.31,0.34,0.12,
1.54,-0.89,0.87,-0.86,0.30,0.31,0.12,
1.54,-0.89,0.87,-0.86,0.28,0.28,0.12,
1.541,-0.89,0.87,-0.86,0.27,0.24,0.12,
1.551,-0.67,1.05,-1.12,0.27,0.24,0.12,
1.552,-0.67,1.05,-1.12,0.25,0.21,0.12,
1.569,-0.67,1.05,-1.12,0.24,0.17,0.12,
1.57,-0.67,1.05,-1.12,0.23,0.14,0.12,
1.571,-0.67,1.05,-1.12,0.21,0.11,0.12,
1.571,-0.67,1.05,-1.12,0.20,0.08,0.11,
1.571,-0.49,1.24,-0.97,0.20,0.08,0.11,
1.571,-0.49,1.24,-0.97,0.18,0.04,0.11,
1.572,-0.49,1.24,-0.97,0.16,0.01,0.10,
1.572,-0.49,1.24,-0.97,0.15,-0.02,0.09,
1.572,-0.49,1.24,-0.97,0.12,-0.06,0.09,
1.573,-0.49,1.24,-0.97,0.12,-0.09,0.08,
1.573,-0.36,1.24,-0.49,0.12,-0.09,0.08,
1.573,-0.36,1.24,-0.49,0.10,-0.11,0.07,
1.574,-0.36,1.24,-0.49,0.08,-0.13,0.06,
1.574,-0.36,1.24,-0.49,0.07,-0.15,0.05,
1.574,-0.36,1.24,-0.49,0.07,-0.17,0.04,
1.574,-0.36,1.24,-0.49,0.06,-0.17,0.04,
1.575,-0.33,1.22,0.63,0.06,-0.17,0.04,
1.575,-0.33,1.22,0.63,0.06,-0.18,0.03,
1.575,-0.33,1.22,0.63,0.06,-0.17,0.02,
1.576,-0.33,1.22,0.63,0.06,-0.16,0.02,
1.579,-0.33,1.22,0.63,0.06,-0.15,0.02,
1.579,-0.33,1.22,0.63,0.06,-0.14,0.02,
1.581,-0.36,0.98,1.55,0.06,-0.14,0.02,
1.581,-0.36,0.98,1.55,0.05,-0.12,0.02,
1.584,-0.36,0.98,1.55,0.04,-0.11,0.02,
1.585,-0.36,0.98,1.55,0.03,-0.09,0.02,
1.586,-0.36,0.98,1.55,0.01,-0.08,0.02,
1.588,-0.36,0.98,1.55,-0.02,-0.06,0.03,
1.591,-0.40,0.82,1.71,-0.02,-0.06,0.03,
1.591,-0.40,0.82,1.71,-0.05,-0.05,0.03,
1.592,-0.40,0.82,1.71,-0.08,-0.04,0.03,
1.597,-0.40,0.82,1.71,-0.12,-0.04,0.04,
1.597,-0.40,0.82,1.71,-0.16,-0.03,0.04,
1.601,-0.40,0.82,1.71,-0.21,-0.03,0.04,
1.603,-0.54,0.99,1.63,-0.21,-0.03,0.04,
1.604,-0.54,0.99,1.63,-0.25,-0.03,0.05,
1.604,-0.54,0.99,1.63,-0.30,-0.04,0.05,
1.624,-0.54,0.99,1.63,-0.34,-0.04,0.05,
1.624,-0.54,0.99,1.63,-0.38,-0.04,0.05,
1.624,-0.54,0.99,1.63,-0.43,-0.05,0.05,
1.624,-0.56,1.34,2.11,-0.43,-0.05,0.05,
1.625,-0.56,1.34,2.11,-0.46,-0.05,0.05,
1.625,-0.56,1.34,2.11,-0.50,-0.06,0.05,
1.625,-0.56,1.34,2.11,-0.53,-0.07,0.05,
1.626,-0.56,1.34,2.11,-0.56,-0.08,0.04,
1.626,-0.56,1.34,2.11,-0.60,-0.09,0.03,
1.626,-0.27,1.50,2.93,-0.60,-0.09,0.03,
1.626,-0.27,1.50,2.93,-0.64,-0.11,0.02,
1.627,-0.27,1.50,2.93,-0.68,-0.13,0.01,
1.627,-0.27,1.50,2.93,-0.71,-0.15,-0.00,
1.627,-0.27,1.50,2.93,-0.75,-0.17,-0.02,
1.633,-0.27,1.50,2.93,-0.79,-0.20,-0.03,
1.634,0.16,1.57,3.62,-0.79,-0.20,-0.03,
1.634,0.16,1.57,3.62,-0.85,-0.24,-0.06,
1.634,0.16,1.57,3.62,-0.87,-0.25,-0.07,
1.635,0.16,1.57,3.62,-0.91,-0.28,-0.09,
1.637,0.16,1.57,3.62,-0.94,-0.31,-0.11,
1.639,0.16,1.57,3.62,-0.98,-0.34,-0.14,
1.642,0.48,1.55,4.39,-0.98,-0.34,-0.14,
1.642,0.48,1.55,4.39,-1.01,-0.37,-0.16,
1.643,0.48,1.55,4.39,-1.04,-0.39,-0.19,
1.644,0.48,1.55,4.39,-1.07,-0.41,-0.21,
1.647,0.48,1.55,4.39,-1.09,-0.43,-0.23,
1.65,0.48,1.55,4.39,-1.11,-0.44,-0.26,
1.651,0.70,1.27,5.50,-1.11,-0.44,-0.26,
1.651,0.70,1.27,5.50,-1.13,-0.45,-0.28,
1.654,0.70,1.27,5.50,-1.13,-0.46,-0.30,
1.655,0.70,1.27,5.50,-1.14,-0.46,-0.31,
1.659,0.70,1.27,5.50,-1.13,-0.46,-0.34,
1.659,0.70,1.27,5.50,-1.13,-0.46,-0.34,
1.661,0.51,0.85,6.68,-1.13,-0.46,-0.34,
1.661,0.51,0.85,6.68,-1.13,-0.44,-0.34,
1.662,0.51,0.85,6.68,-1.12,-0.44,-0.34,
1.665,0.51,0.85,6.68,-1.11,-0.42,-0.34,
1.669,0.51,0.85,6.68,-1.09,-0.41,-0.34,
1.67,0.51,0.85,6.68,-1.08,-0.39,-0.33,
1.672,0.07,0.30,7.57,-1.08,-0.39,-0.33,
1.673,0.07,0.30,7.57,-1.05,-0.37,-0.31,
1.673,0.07,0.30,7.57,-1.03,-0.35,-0.29,
1.674,0.07,0.30,7.57,-1.00,-0.33,-0.27,
1.676,0.07,0.30,7.57,-0.97,-0.30,-0.25,
1.678,0.07,0.30,7.57,-0.94,-0.27,-0.22,
1.68,-0.34,-0.18,8.01,-0.94,-0.27,-0.22,
1.681,-0.34,-0.18,8.01,-0.90,-0.24,-0.19,
1.688,-0.34,-0.18,8.01,-0.87,-0.20,-0.16,
1.689,-0.34,-0.18,8.01,-0.83,-0.16,-0.12,
1.689,-0.34,-0.18,8.01,-0.79,-0.12,-0.08,
1.689,-0.34,-0.18,8.01,-0.74,-0.08,-0.05,
1.691,-0.67,-0.49,8.03,-0.74,-0.08,-0.05,
1.692,-0.67,-0.49,8.03,-0.70,-0.03,-0.00,
1.692,-0.67,-0.49,8.03,-0.65,0.01,0.04,
1.696,-0.67,-0.49,8.03,-0.61,0.04,0.08,
1.696,-0.67,-0.49,8.03,-0.55,0.08,0.13,
1.699,-0.67,-0.49,8.03,-0.50,0.11,0.17,
1.705,-0.71,-0.52,7.56,-0.50,0.11,0.17,
1.705,-0.71,-0.52,7.56,-0.45,0.14,0.21,
1.705,-0.71,-0.52,7.56,-0.39,0.17,0.25,
1.705,-0.71,-0.52,7.56,-0.34,0.19,0.29,
1.706,-0.71,-0.52,7.56,-0.28,0.21,0.33,
1.708,-0.71,-0.52,7.56,-0.22,0.23,0.36,
1.71,-0.37,-0.40,6.65,-0.22,0.23,0.36,
1.711,-0.37,-0.40,6.65,-0.16,0.24,0.39,
1.712,-0.37,-0.40,6.65,-0.10,0.24,0.43,
1.714,-0.37,-0.40,6.65,-0.04,0.25,0.45,
1.716,-0.37,-0.40,6.65,0.02,0.26,0.48,
1.718,-0.37,-0.40,6.65,0.06,0.25,0.50,
1.721,0.16,-0.14,5.23,0.06,0.25,0.50,
1.721,0.16,-0.14,5.23,0.12,0.25,0.52,
1.722,0.16,-0.14,5.23,0.17,0.26,0.54,
1.724,0.16,-0.14,5.23,0.21,0.25,0.55,
1.726,0.16,-0.14,5.23,0.26,0.25,0.57,
1.728,0.16,-0.14,5.23,0.28,0.25,0.58,
1.73,0.65,0.14,3.28,0.28,0.25,0.58,
1.731,0.65,0.14,3.28,0.33,0.24,0.59,
1.733,0.65,0.14,3.28,0.36,0.24,0.60,
1.734,0.65,0.14,3.28,0.39,0.23,0.60,
1.736,0.65,0.14,3.28,0.41,0.23,0.61,
1.738,0.65,0.14,3.28,0.43,0.22,0.61,
1.74,0.87,0.35,1.26,0.43,0.22,0.61,
1.741,0.87,0.35,1.26,0.45,0.21,0.62,
1.742,0.87,0.35,1.26,0.47,0.20,0.62,
1.744,0.87,0.35,1.26,0.48,0.19,0.62,
1.746,0.87,0.35,1.26,0.50,0.17,0.62,
1.748,0.87,0.35,1.26,0.52,0.16,0.63,
1.751,0.89,0.55,-0.44,0.52,0.16,0.63,
1.751,0.89,0.55,-0.44,0.52,0.16,0.62,
1.752,0.89,0.55,-0.44,0.53,0.15,0.62,
1.754,0.89,0.55,-0.44,0.52,0.14,0.62,
1.758,0.89,0.55,-0.44,0.54,0.13,0.62,
1.758,0.89,0.55,-0.44,0.55,0.12,0.62,
1.764,0.74,0.59,-1.84,0.55,0.12,0.62,
1.765,0.74,0.59,-1.84,0.55,0.11,0.63,
1.768,0.74,0.59,-1.84,0.55,0.10,0.62,
1.769,0.74,0.59,-1.84,0.55,0.10,0.62,
1.77,0.74,0.59,-1.84,0.54,0.09,0.62,
1.771,0.74,0.59,-1.84,0.54,0.09,0.62,
1.771,0.58,0.61,-3.07,0.54,0.09,0.62,
1.794,0.58,0.61,-3.07,0.54,0.09,0.63,
1.794,0.58,0.61,-3.07,0.53,0.08,0.62,
1.794,0.58,0.61,-3.07,0.52,0.08,0.62,
1.795,0.58,0.61,-3.07,0.51,0.08,0.62,
1.795,0.58,0.61,-3.07,0.50,0.09,0.62,
1.795,0.38,0.50,-4.11,0.50,0.09,0.62,
1.795,0.38,0.50,-4.11,0.50,0.09,0.62,
1.796,0.38,0.50,-4.11,0.49,0.09,0.62,
1.796,0.38,0.50,-4.11,0.48,0.09,0.62,
1.796,0.38,0.50,-4.11,0.46,0.09,0.62,
1.796,0.38,0.50,-4.11,0.45,0.10,0.62,
1.797,0.26,0.48,-4.88,0.45,0.10,0.62,
1.797,0.26,0.48,-4.88,0.43,0.10,0.62,
1.797,0.26,0.48,-4.88,0.42,0.11,0.61,
1.797,0.26,0.48,-4.88,0.41,0.11,0.61,
1.798,0.26,0.48,-4.88,0.39,0.11,0.61,
1.804,0.26,0.48,-4.88,0.37,0.11,0.60,
1.804,0.15,0.40,-5.47,0.37,0.11,0.60,
1.805,0.15,0.40,-5.47,0.36,0.12,0.60,
1.805,0.15,0.40,-5.47,0.35,0.11,0.59,
1.805,0.15,0.40,-5.47,0.33,0.11,0.58,
1.806,0.15,0.40,-5.47,0.31,0.10,0.57,
1.808,0.15,0.40,-5.47,0.30,0.10,0.57,
1.811,0.19,0.45,-5.93,0.30,0.10,0.57,
1.811,0.19,0.45,-5.93,0.28,0.09,0.56,
1.812,0.19,0.45,-5.93,0.26,0.08,0.54,
1.814,0.19,0.45,-5.93,0.25,0.07,0.53,
1.816,0.19,0.45,-5.93,0.23,0.06,0.52,
1.818,0.19,0.45,-5.93,0.20,0.04,0.50,
1.821,0.20,0.36,-6.19,0.20,0.04,0.50,
1.821,0.20,0.36,-6.19,0.19,0.03,0.49,
1.823,0.20,0.36,-6.19,0.18,0.01,0.48,
1.826,0.20,0.36,-6.19,0.16,-0.01,0.46,
1.827,0.20,0.36,-6.19,0.16,-0.03,0.45,
1.828,0.20,0.36,-6.19,0.13,-0.04,0.43,
1.831,0.36,0.41,-6.22,0.13,-0.04,0.43,
1.831,0.36,0.41,-6.22,0.11,-0.07,0.41,
1.843,0.36,0.41,-6.22,0.10,-0.09,0.39,
1.844,0.36,0.41,-6.22,0.08,-0.11,0.37,
1.844,0.36,0.41,-6.22,0.09,-0.13,0.36,
1.844,0.36,0.41,-6.22,0.06,-0.15,0.34,
1.844,0.24,0.32,-6.04,0.06,-0.15,0.34,
1.845,0.24,0.32,-6.04,0.04,-0.18,0.32,
1.845,0.24,0.32,-6.04,0.03,-0.20,0.31,
1.861,0.24,0.32,-6.04,0.02,-0.22,0.29,
1.862,0.24,0.32,-6.04,0.01,-0.22,0.28,
1.863,0.24,0.32,-6.04,-0.01,-0.24,0.27,
1.863,0.09,0.26,-5.87,-0.01,-0.24,0.27,
1.863,0.09,0.26,-5.87,-0.02,-0.26,0.26,
1.864,0.09,0.26,-5.87,-0.04,-0.27,0.25,
1.864,0.09,0.26,-5.87,-0.05,-0.27,0.24,
1.865,0.09,0.26,-5.87,-0.07,-0.27,0.23,
1.865,0.09,0.26,-5.87,-0.08,-0.27,0.22,
1.866,-0.14,0.03,-5.68,-0.08,-0.27,0.22,
1.867,-0.14,0.03,-5.68,-0.10,-0.27,0.21,
1.868,-0.14,0.03,-5.68,-0.11,-0.26,0.21,
1.869,-0.14,0.03,-5.68,-0.13,-0.26,0.20,
1.869,-0.14,0.03,-5.68,-0.14,-0.25,0.20,
1.871,-0.14,0.03,-5.68,-0.15,-0.25,0.19,
1.871,-0.24,-0.02,-5.34,-0.15,-0.25,0.19,
1.872,-0.24,-0.02,-5.34,-0.17,-0.24,0.18,
1.877,-0.24,-0.02,-5.34,-0.18,-0.24,0.17,
1.877,-0.24,-0.02,-5.34,-0.20,-0.23,0.16,
1.877,-0.24,-0.02,-5.34,-0.21,-0.22,0.16,
1.88,-0.24,-0.02,-5.34,-0.23,-0.21,0.15,
1.882,-0.31,-0.16,-4.98,-0.23,-0.21,0.15,
1.883,-0.31,-0.16,-4.98,-0.25,-0.21,0.14,
1.885,-0.31,-0.16,-4.98,-0.27,-0.19,0.13,
1.885,-0.31,-0.16,-4.98,-0.29,-0.18,0.12,
1.888,-0.31,-0.16,-4.98,-0.31,-0.17,0.11,
1.888,-0.31,-0.16,-4.98,-0.33,-0.16,0.10,
1.892,-0.32,-0.26,-4.67,-0.33,-0.16,0.10,
1.893,-0.32,-0.26,-4.67,-0.35,-0.14,0.10,
1.9,-0.32,-0.26,-4.67,-0.37,-0.13,0.09,
1.903,-0.32,-0.26,-4.67,-0.39,-0.11,0.08,
1.904,-0.32,-0.26,-4.67,-0.41,-0.10,0.07,
1.904,-0.32,-0.26,-4.67,-0.42,-0.09,0.06,
1.905,-0.41,-0.37,-4.06,-0.42,-0.09,0.06,
1.905,-0.41,-0.37,-4.06,-0.44,-0.07,0.06,
1.908,-0.41,-0.37,-4.06,-0.45,-0.06,0.05,
1.908,-0.41,-0.37,-4.06,-0.46,-0.04,0.05,
1.909,-0.41,-0.37,-4.06,-0.47,-0.03,0.05,
1.909,-0.41,-0.37,-4.06,-0.48,-0.02,0.05,
1.911,-0.65,-0.41,-3.27,-0.48,-0.02,0.05,
1.912,-0.65,-0.41,-3.27,-0.48,-0.01,0.05,
1.915,-0.65,-0.41,-3.27,-0.48,0.00,0.05,
1.915,-0.65,-0.41,-3.27,-0.48,0.01,0.05,
1.919,-0.65,-0.41,-3.27,-0.48,0.01,0.06,
1.92,-0.65,-0.41,-3.27,-0.48,0.02,0.06,
1.922,-0.88,-0.51,-2.37,-0.48,0.02,0.06,
1.923,-0.88,-0.51,-2.37,-0.47,0.02,0.07,
1.923,-0.88,-0.51,-2.37,-0.46,0.03,0.08,
1.925,-0.88,-0.51,-2.37,-0.45,0.04,0.09,
1.927,-0.88,-0.51,-2.37,-0.43,0.04,0.11,
1.929,-0.88,-0.51,-2.37,-0.40,0.05,0.12,
1.932,-1.14,-0.57,-1.25,-0.40,0.05,0.12,
1.932,-1.14,-0.57,-1.25,-0.38,0.07,0.14,
1.933,-1.14,-0.57,-1.25,-0.34,0.08,0.16,
1.936,-1.14,-0.57,-1.25,-0.30,0.10,0.18,
1.939,-1.14,-0.57,-1.25,-0.26,0.11,0.21,
1.972,-1.14,-0.57,-1.25,-0.22,0.13,0.23,
1.972,-1.31,-0.60,-0.21,-0.22,0.13,0.23,
1.973,-1.31,-0.60,-0.21,-0.17,0.15,0.26,
1.973,-1.31,-0.60,-0.21,-0.11,0.17,0.28,
1.974,-1.31,-0.60,-0.21,-0.07,0.20,0.30,
1.974,-1.31,-0.60,-0.21,-0.02,0.22,0.33,
1.975,-1.31,-0.60,-0.21,0.04,0.25,0.35,
1.975,-1.36,-0.56,0.39,0.04,0.25,0.35,
1.975,-1.36,-0.56,0.39,0.09,0.28,0.38,
1.976,-1.36,-0.56,0.39,0.15,0.30,0.40,
1.976,-1.36,-0.56,0.39,0.21,0.33,0.42,
1.977,-1.36,-0.56,0.39,0.26,0.36,0.44,
1.977,-1.36,-0.56,0.39,0.32,0.39,0.47,
1.977,-1.21,-0.45,0.24,0.32,0.39,0.47,
1.978,-1.21,-0.45,0.24,0.37,0.42,0.49,
1.978,-1.21,-0.45,0.24,0.41,0.44,0.50,
1.979,-1.21,-0.45,0.24,0.45,0.46,0.52,
1.979,-1.21,-0.45,0.24,0.49,0.48,0.54,
1.98,-1.21,-0.45,0.24,0.53,0.49,0.56,
1.98,-1.10,-0.33,-0.64,0.53,0.49,0.56,
1.98,-1.10,-0.33,-0.64,0.56,0.50,0.58,
1.981,-1.10,-0.33,-0.64,0.58,0.51,0.59,
1.981,-1.10,-0.33,-0.64,0.61,0.51,0.61,
1.981,-1.10,-0.33,-0.64,0.62,0.52,0.62,
1.982,-1.10,-0.33,-0.64,0.62,0.50,0.63,
1.982,-0.91,-0.21,-1.74,0.62,0.50,0.63,
1.982,-0.91,-0.21,-1.74,0.66,0.48,0.65,
1.983,-0.91,-0.21,-1.74,0.66,0.48,0.65,
2.005,-0.91,-0.21,-1.74,0.66,0.46,0.66,
2.005,-0.91,-0.21,-1.74,0.63,0.44,0.66,
2.006,-0.91,-0.21,-1.74,0.61,0.41,0.67,
2.006,-0.58,-0.03,-2.90,0.61,0.41,0.67,
2.006,-0.58,-0.03,-2.90,0.63,0.39,0.68,
2.006,-0.58,-0.03,-2.90,0.62,0.36,0.68,
2.006,-0.58,-0.03,-2.90,0.59,0.32,0.68,
2.007,-0.58,-0.03,-2.90,0.54,0.28,0.67,
2.007,-0.58,-0.03,-2.90,0.52,0.26,0.67,
2.007,-0.31,0.07,-3.55,0.52,0.26,0.67,
2.007,-0.31,0.07,-3.55,0.51,0.21,0.67,
2.008,-0.31,0.07,-3.55,0.48,0.17,0.67,
2.008,-0.31,0.07,-3.55,0.44,0.14,0.66,
2.03,-0.31,0.07,-3.55,0.41,0.11,0.65,
2.03,-0.31,0.07,-3.55,0.38,0.07,0.64,
2.031,0.05,0.33,-3.22,0.38,0.07,0.64,
2.031,0.05,0.33,-3.22,0.36,0.05,0.63,
2.031,0.05,0.33,-3.22,0.34,0.03,0.61,
2.031,0.05,0.33,-3.22,0.32,0.01,0.60,
2.032,0.05,0.33,-3.22,0.31,0.01,0.58,
2.032,0.05,0.33,-3.22,0.30,0.01,0.57,
2.032,0.42,0.36,-2.07,0.30,0.01,0.57,
2.032,0.42,0.36,-2.07,0.28,-0.00,0.55,
2.032,0.42,0.36,-2.07,0.28,0.00,0.54,
2.033,0.42,0.36,-2.07,0.28,0.02,0.52,
2.033,0.42,0.36,-2.07,0.29,0.04,0.50,
2.033,0.42,0.36,-2.07,0.27,0.05,0.48,
2.033,0.54,0.34,-0.80,0.27,0.05,0.48,
2.034,0.54,0.34,-0.80,0.29,0.07,0.47,
2.034,0.54,0.34,-0.80,0.31,0.10,0.46,
2.043,0.54,0.34,-0.80,0.32,0.14,0.45,
2.044,0.54,0.34,-0.80,0.35,0.18,0.44,
2.044,0.54,0.34,-0.80,0.34,0.21,0.43,
2.044,0.29,0.27,0.08,0.34,0.21,0.43,
2.044,0.29,0.27,0.08,0.36,0.25,0.42,
2.044,0.29,0.27,0.08,0.39,0.29,0.42,
2.045,0.29,0.27,0.08,0.40,0.33,0.42,
2.046,0.29,0.27,0.08,0.41,0.37,0.42,
2.059,0.29,0.27,0.08,0.42,0.42,0.42,
2.061,-0.03,0.20,0.17,0.42,0.42,0.42,
2.062,-0.03,0.20,0.17,0.43,0.45,0.42,
2.062,-0.03,0.20,0.17,0.44,0.48,0.42,
2.062,-0.03,0.20,0.17,0.44,0.50,0.43,
2.062,-0.03,0.20,0.17,0.44,0.53,0.43,
2.062,-0.03,0.20,0.17,0.45,0.55,0.43,
2.063,-0.25,0.13,0.01,0.45,0.55,0.43,
2.063,-0.25,0.13,0.01,0.46,0.57,0.44,
2.063,-0.25,0.13,0.01,0.47,0.59,0.44,
2.072,-0.25,0.13,0.01,0.47,0.60,0.45,
2.073,-0.25,0.13,0.01,0.48,0.60,0.45,
2.073,-0.25,0.13,0.01,0.49,0.60,0.46,
2.073,-0.28,0.18,-0.10,0.49,0.60,0.46,
2.073,-0.28,0.18,-0.10,0.51,0.60,0.46,
2.073,-0.28,0.18,-0.10,0.52,0.59,0.47,
2.075,-0.28,0.18,-0.10,0.53,0.58,0.47,
2.077,-0.28,0.18,-0.10,0.53,0.56,0.47,
2.079,-0.28,0.18,-0.10,0.54,0.53,0.47,
2.082,-0.15,0.14,-0.30,0.54,0.53,0.47,
2.084,-0.15,0.14,-0.30,0.54,0.50,0.47,
2.084,-0.15,0.14,-0.30,0.55,0.47,0.47,
2.088,-0.15,0.14,-0.30,0.55,0.43,0.47,
2.089,-0.15,0.14,-0.30,0.55,0.39,0.46,
2.089,-0.15,0.14,-0.30,0.55,0.35,0.46,
2.092,0.11,0.35,-0.50,0.55,0.35,0.46,
2.093,0.11,0.35,-0.50,0.54,0.31,0.46,
2.093,0.11,0.35,-0.50,0.54,0.27,0.45,
2.095,0.11,0.35,-0.50,0.53,0.23,0.44,
2.097,0.11,0.35,-0.50,0.53,0.19,0.43,
2.106,0.11,0.35,-0.50,0.52,0.17,0.42,
2.107,0.33,0.37,-0.32,0.52,0.17,0.42,
2.107,0.33,0.37,-0.32,0.52,0.14,0.42,
2.107,0.33,0.37,-0.32,0.51,0.12,0.41,
2.125,0.33,0.37,-0.32,0.52,0.11,0.40,
2.126,0.33,0.37,-0.32,0.52,0.10,0.39,
2.126,0.33,0.37,-0.32,0.51,0.09,0.38,
2.126,0.43,0.35,0.28,0.51,0.09,0.38,
2.126,0.43,0.35,0.28,0.51,0.09,0.37,
2.126,0.43,0.35,0.28,0.51,0.10,0.36,
2.127,0.43,0.35,0.28,0.51,0.10,0.35,
2.127,0.43,0.35,0.28,0.51,0.11,0.34,
2.127,0.43,0.35,0.28,0.50,0.12,0.33,
2.127,0.37,0.16,0.81,0.50,0.12,0.33,
2.127,0.37,0.16,0.81,0.50,0.14,0.32,
2.127,0.37,0.16,0.81,0.49,0.14,0.32,
2.128,0.37,0.16,0.81,0.49,0.16,0.31,
2.128,0.37,0.16,0.81,0.47,0.17,0.31,
2.13,0.37,0.16,0.81,0.46,0.18,0.31,
2.136,0.20,-0.20,1.29,0.46,0.18,0.31,
2.136,0.20,-0.20,1.29,0.44,0.19,0.31,
2.136,0.20,-0.20,1.29,0.42,0.21,0.31,
2.136,0.20,-0.20,1.29,0.41,0.22,0.31,
2.137,0.20,-0.20,1.29,0.40,0.25,0.32,
2.138,0.20,-0.20,1.29,0.38,0.28,0.32,
2.141,0.07,-0.56,1.76,0.38,0.28,0.32,
2.141,0.07,-0.56,1.76,0.35,0.31,0.33,
2.142,0.07,-0.56,1.76,0.33,0.33,0.33,
2.144,0.07,-0.56,1.76,0.30,0.36,0.34,
2.146,0.07,-0.56,1.76,0.27,0.39,0.35,
2.148,0.07,-0.56,1.76,0.23,0.41,0.35,
2.151,0.04,-0.85,1.91,0.23,0.41,0.35,
2.151,0.04,-0.85,1.91,0.19,0.42,0.36,
2.153,0.04,-0.85,1.91,0.15,0.43,0.36,
2.154,0.04,-0.85,1.91,0.11,0.44,0.36,
2.156,0.04,-0.85,1.91,0.06,0.44,0.36,
2.161,0.04,-0.85,1.91,-0.03,0.43,0.36,
2.162,0.04,-0.85,1.91,-0.03,0.43,0.36,
2.164,0.04,-0.75,2.34,-0.03,0.43,0.36,
2.164,0.04,-0.75,2.34,-0.10,0.42,0.36,
2.164,0.04,-0.75,2.34,-0.12,0.41,0.36,
2.169,0.04,-0.75,2.34,-0.16,0.39,0.36,
2.169,0.04,-0.75,2.34,-0.20,0.37,0.36,
2.173,0.08,-0.65,3.07,-0.20,0.37,0.36,
2.173,0.08,-0.65,3.07,-0.24,0.35,0.35,
2.173,0.08,-0.65,3.07,-0.28,0.32,0.34,
2.177,0.08,-0.65,3.07,-0.31,0.29,0.34,
2.177,0.08,-0.65,3.07,-0.34,0.27,0.33,
2.181,0.08,-0.65,3.07,-0.37,0.24,0.33,
2.181,0.22,-0.66,4.19,-0.37,0.24,0.33,
2.181,0.22,-0.66,4.19,-0.39,0.21,0.32,
2.185,0.22,-0.66,4.19,-0.41,0.18,0.31,
2.186,0.22,-0.66,4.19,-0.44,0.16,0.30,
2.186,0.22,-0.66,4.19,-0.45,0.14,0.30,
2.191,0.22,-0.66,4.19,-0.47,0.12,0.29,
2.191,0.24,-0.84,5.39,-0.47,0.12,0.29,
2.191,0.24,-0.84,5.39,-0.48,0.10,0.29,
2.195,0.24,-0.84,5.39,-0.48,0.09,0.29,
2.195,0.24,-0.84,5.39,-0.49,0.08,0.29,
2.197,0.24,-0.84,5.39,-0.50,0.07,0.30,
2.2,0.24,-0.84,5.39,-0.50,0.05,0.30,
2.202,0.07,-0.97,6.20,-0.50,0.05,0.30,
2.202,0.07,-0.97,6.20,-0.50,0.05,0.31,
2.202,0.07,-0.97,6.20,-0.51,0.04,0.31,
2.204,0.07,-0.97,6.20,-0.51,0.04,0.32,
2.206,0.07,-0.97,6.20,-0.52,0.03,0.33,
2.209,0.07,-0.97,6.20,-0.52,0.03,0.34,
2.211,0.00,-1.08,6.46,-0.52,0.03,0.34,
2.211,0.00,-1.08,6.46,-0.53,0.03,0.35,
2.213,0.00,-1.08,6.46,-0.54,0.02,0.35,
2.214,0.00,-1.08,6.46,-0.54,0.02,0.36,
2.216,0.00,-1.08,6.46,-0.55,0.02,0.37,
2.219,0.00,-1.08,6.46,-0.56,0.01,0.37,
2.221,-0.05,-0.88,6.19,-0.56,0.01,0.37,
2.221,-0.05,-0.88,6.19,-0.58,0.01,0.38,
2.223,-0.05,-0.88,6.19,-0.59,0.01,0.38,
2.224,-0.05,-0.88,6.19,-0.61,0.01,0.39,
2.227,-0.05,-0.88,6.19,-0.64,0.00,0.39,
2.228,-0.05,-0.88,6.19,-0.67,0.00,0.39,
2.232,0.07,-0.55,5.59,-0.67,0.00,0.39,
2.232,0.07,-0.55,5.59,-0.70,-0.00,0.39,
2.234,0.07,-0.55,5.59,-0.73,-0.00,0.38,
2.235,0.07,-0.55,5.59,-0.77,-0.01,0.37,
2.237,0.07,-0.55,5.59,-0.80,-0.01,0.37,
2.239,0.07,-0.55,5.59,-0.85,-0.02,0.36,
2.241,0.35,-0.32,4.96,-0.85,-0.02,0.36,
2.241,0.35,-0.32,4.96,-0.89,-0.02,0.35,
2.243,0.35,-0.32,4.96,-0.93,-0.02,0.34,
2.245,0.35,-0.32,4.96,-0.97,-0.02,0.33,
2.253,0.35,-0.32,4.96,-1.00,-0.02,0.31,
2.254,0.35,-0.32,4.96,-1.04,-0.02,0.30,
2.254,0.65,-0.19,4.75,-1.04,-0.02,0.30,
2.254,0.65,-0.19,4.75,-1.08,-0.02,0.28,
2.255,0.65,-0.19,4.75,-1.11,-0.02,0.26,
2.255,0.65,-0.19,4.75,-1.14,-0.02,0.25,
2.262,0.65,-0.19,4.75,-1.17,-0.02,0.23,
2.262,0.65,-0.19,4.75,-1.19,-0.02,0.21,
2.281,0.83,-0.15,4.92,-1.19,-0.02,0.21,
2.281,0.83,-0.15,4.92,-1.20,-0.02,0.20,
2.282,0.83,-0.15,4.92,-1.22,-0.03,0.18,
2.282,0.83,-0.15,4.92,-1.22,-0.03,0.17,
2.282,0.83,-0.15,4.92,-1.22,-0.03,0.16,
2.282,0.83,-0.15,4.92,-1.22,-0.04,0.16,
2.283,0.58,-0.19,5.28,-1.22,-0.04,0.16,
2.32,0.58,-0.19,5.28,-1.22,-0.04,0.15,
2.321,0.58,-0.19,5.28,-1.21,-0.05,0.15,
2.321,0.58,-0.19,5.28,-1.19,-0.06,0.15,
2.322,0.58,-0.19,5.28,-1.17,-0.06,0.15,
2.322,0.58,-0.19,5.28,-1.15,-0.07,0.16,
2.323,0.21,-0.17,5.51,-1.15,-0.07,0.16,
2.323,0.21,-0.17,5.51,-1.12,-0.07,0.16,
2.323,0.21,-0.17,5.51,-1.09,-0.07,0.17,
2.324,0.21,-0.17,5.51,-1.06,-0.07,0.18,
2.324,0.21,-0.17,5.51,-1.02,-0.07,0.19,
2.325,0.21,-0.17,5.51,-0.98,-0.07,0.20,
2.325,-0.01,-0.05,5.41,-0.98,-0.07,0.20,
2.325,-0.01,-0.05,5.41,-0.94,-0.06,0.21,
2.326,-0.01,-0.05,5.41,-0.89,-0.06,0.22,
2.326,-0.01,-0.05,5.41,-0.85,-0.05,0.23,
2.327,-0.01,-0.05,5.41,-0.81,-0.04,0.24,
2.327,-0.01,-0.05,5.41,-0.76,-0.03,0.26,
2.327,-0.17,0.09,4.72,-0.76,-0.03,0.26,
2.328,-0.17,0.09,4.72,-0.72,-0.02,0.27,
2.328,-0.17,0.09,4.72,-0.67,-0.01,0.28,
2.329,-0.17,0.09,4.72,-0.63,0.01,0.30,
2.329,-0.17,0.09,4.72,-0.59,0.03,0.31,
2.33,-0.17,0.09,4.72,-0.55,0.05,0.32,
2.33,-0.23,0.25,3.57,-0.55,0.05,0.32,
2.33,-0.23,0.25,3.57,-0.51,0.07,0.33,
2.331,-0.23,0.25,3.57,-0.47,0.09,0.35,
2.331,-0.23,0.25,3.57,-0.44,0.11,0.35,
2.332,-0.23,0.25,3.57,-0.40,0.13,0.36,
2.332,-0.23,0.25,3.57,-0.37,0.15,0.37,
2.332,-0.13,0.38,2.10,-0.37,0.15,0.37,
2.333,-0.13,0.38,2.10,-0.34,0.17,0.38,
2.333,-0.13,0.38,2.10,-0.32,0.19,0.38,
2.334,-0.13,0.38,2.10,-0.29,0.21,0.38,
2.334,-0.13,0.38,2.10,-0.26,0.23,0.39,
2.335,-0.13,0.38,2.10,-0.24,0.24,0.39,
2.335,-0.09,0.52,0.57,-0.24,0.24,0.39,
2.335,-0.09,0.52,0.57,-0.20,0.26,0.39,
2.336,-0.09,0.52,0.57,-0.19,0.26,0.40,
2.336,-0.09,0.52,0.57,-0.17,0.26,0.40,
2.337,-0.09,0.52,0.57,-0.15,0.27,0.40,
2.347,-0.09,0.52,0.57,-0.13,0.27,0.40,
2.347,-0.17,0.68,-0.85,-0.13,0.27,0.40,
2.348,-0.17,0.68,-0.85,-0.11,0.26,0.40,
2.348,-0.17,0.68,-0.85,-0.10,0.26,0.40,
2.348,-0.17,0.68,-0.85,-0.08,0.25,0.40,
2.348,-0.17,0.68,-0.85,-0.07,0.24,0.40,
2.349,-0.17,0.68,-0.85,-0.05,0.23,0.40,
2.351,-0.28,0.79,-2.16,-0.05,0.23,0.40,
2.351,-0.28,0.79,-2.16,-0.04,0.22,0.40,
2.352,-0.28,0.79,-2.16,-0.03,0.20,0.40,
2.355,-0.28,0.79,-2.16,-0.02,0.19,0.40,
2.356,-0.28,0.79,-2.16,-0.01,0.17,0.39,
2.358,-0.28,0.79,-2.16,-0.00,0.16,0.40,
2.361,-0.44,0.76,-3.23,-0.00,0.16,0.40,
2.361,-0.44,0.76,-3.23,0.00,0.14,0.40,
2.364,-0.44,0.76,-3.23,0.01,0.12,0.39,
2.364,-0.44,0.76,-3.23,0.01,0.11,0.39,
2.367,-0.44,0.76,-3.23,0.02,0.09,0.39,
2.368,-0.44,0.76,-3.23,0.02,0.07,0.39,
2.371,-0.54,0.77,-3.99,0.02,0.07,0.39,
2.371,-0.54,0.77,-3.99,0.02,0.05,0.39,
2.372,-0.54,0.77,-3.99,0.03,0.04,0.39,
2.374,-0.54,0.77,-3.99,0.03,0.02,0.39,
2.376,-0.54,0.77,-3.99,0.03,-0.00,0.38,
2.378,-0.54,0.77,-3.99,0.03,-0.02,0.38,
2.392,-0.67,0.70,-4.42,0.03,-0.02,0.38,
2.392,-0.67,0.70,-4.42,0.04,-0.04,0.38,
2.392,-0.67,0.70,-4.42,0.04,-0.06,0.38,
2.393,-0.67,0.70,-4.42,0.04,-0.08,0.38,
2.393,-0.67,0.70,-4.42,0.04,-0.09,0.38,
2.393,-0.67,0.70,-4.42,0.05,-0.11,0.37,
2.393,-0.74,0.68,-4.53,0.05,-0.11,0.37,
2.394,-0.74,0.68,-4.53,0.05,-0.12,0.37,
2.394,-0.74,0.68,-4.53,0.05,-0.13,0.37,
2.394,-0.74,0.68,-4.53,0.06,-0.14,0.36,
2.421,-0.74,0.68,-4.53,0.06,-0.15,0.36,
2.421,-0.74,0.68,-4.53,0.07,-0.16,0.36,
2.422,-0.83,0.48,-4.31,0.07,-0.16,0.36,
2.422,-0.83,0.48,-4.31,0.08,-0.16,0.36,
2.422,-0.83,0.48,-4.31,0.09,-0.16,0.36,
2.422,-0.83,0.48,-4.31,0.10,-0.16,0.36,
2.422,-0.83,0.48,-4.31,0.11,-0.16,0.36,
2.423,-0.83,0.48,-4.31,0.13,-0.16,0.37,
2.423,-0.98,0.35,-3.69,0.13,-0.16,0.37,
2.423,-0.98,0.35,-3.69,0.15,-0.15,0.37,
2.423,-0.98,0.35,-3.69,0.18,-0.14,0.38,
2.423,-0.98,0.35,-3.69,0.20,-0.12,0.38,
2.423,-0.98,0.35,-3.69,0.23,-0.10,0.38,
2.424,-0.98,0.35,-3.69,0.26,-0.07,0.39,
2.424,-0.99,0.19,-3.04,0.26,-0.07,0.39,
2.424,-0.99,0.19,-3.04,0.29,-0.04,0.39,
2.424,-0.99,0.19,-3.04,0.32,-0.02,0.39,
2.424,-0.99,0.19,-3.04,0.35,0.01,0.40,
2.427,-0.99,0.19,-3.04,0.38,0.04,0.40,
2.431,-0.99,0.19,-3.04,0.41,0.07,0.41,
2.431,-0.95,-0.02,-2.76,0.41,0.07,0.41,
2.431,-0.95,-0.02,-2.76,0.44,0.09,0.41,
2.433,-0.95,-0.02,-2.76,0.47,0.12,0.41,
2.436,-0.95,-0.02,-2.76,0.50,0.14,0.41,
2.437,-0.95,-0.02,-2.76,0.52,0.16,0.41,
2.456,-0.95,-0.02,-2.76,0.55,0.18,0.41,
2.457,-0.83,-0.15,-2.75,0.55,0.18,0.41,
2.457,-0.83,-0.15,-2.75,0.58,0.20,0.41,
2.457,-0.83,-0.15,-2.75,0.61,0.22,0.42,
2.457,-0.83,-0.15,-2.75,0.63,0.24,0.42,
2.457,-0.83,-0.15,-2.75,0.66,0.26,0.42,
2.458,-0.83,-0.15,-2.75,0.69,0.27,0.42,
2.458,-0.81,-0.19,-2.87,0.69,0.27,0.42,
2.458,-0.81,-0.19,-2.87,0.71,0.28,0.42,
2.458,-0.81,-0.19,-2.87,0.73,0.28,0.42,
2.458,-0.81,-0.19,-2.87,0.75,0.29,0.42,
2.459,-0.81,-0.19,-2.87,0.76,0.29,0.42,
2.459,-0.81,-0.19,-2.87,0.78,0.30,0.42,
2.465,-0.76,-0.31,-3.31,0.78,0.30,0.42,
2.466,-0.76,-0.31,-3.31,0.78,0.29,0.41,
2.466,-0.76,-0.31,-3.31,0.78,0.29,0.41,
2.466,-0.76,-0.31,-3.31,0.78,0.29,0.41,
2.466,-0.76,-0.31,-3.31,0.77,0.28,0.41,
2.471,-0.76,-0.31,-3.31,0.76,0.28,0.41,
2.471,-0.79,-0.33,-3.98,0.76,0.28,0.41,
2.471,-0.79,-0.33,-3.98,0.74,0.27,0.41,
2.475,-0.79,-0.33,-3.98,0.72,0.27,0.40,
2.475,-0.79,-0.33,-3.98,0.69,0.26,0.40,
2.478,-0.79,-0.33,-3.98,0.66,0.26,0.39,
2.479,-0.79,-0.33,-3.98,0.62,0.26,0.39,
2.483,-0.62,-0.37,-4.33,0.62,0.26,0.39,
2.484,-0.62,-0.37,-4.33,0.59,0.26,0.38,
2.484,-0.62,-0.37,-4.33,0.56,0.26,0.37,
2.484,-0.62,-0.37,-4.33,0.52,0.27,0.36,
2.487,-0.62,-0.37,-4.33,0.50,0.27,0.35,
2.488,-0.62,-0.37,-4.33,0.47,0.28,0.33,
2.493,-0.25,-0.41,-3.85,0.47,0.28,0.33,
2.493,-0.25,-0.41,-3.85,0.44,0.28,0.32,
2.493,-0.25,-0.41,-3.85,0.43,0.29,0.30,
2.496,-0.25,-0.41,-3.85,0.41,0.29,0.29,
2.497,-0.25,-0.41,-3.85,0.39,0.30,0.27,
2.501,-0.25,-0.41,-3.85,0.38,0.30,0.25,
2.502,-0.09,-0.42,-2.94,0.38,0.30,0.25,
2.502,-0.09,-0.42,-2.94,0.37,0.30,0.24,
2.502,-0.09,-0.42,-2.94,0.37,0.31,0.22,
2.504,-0.09,-0.42,-2.94,0.37,0.31,0.20,
2.506,-0.09,-0.42,-2.94,0.38,0.32,0.18,
2.508,-0.09,-0.42,-2.94,0.39,0.32,0.18,
2.512,-0.15,-0.46,-1.95,0.39,0.32,0.18,
2.513,-0.15,-0.46,-1.95,0.40,0.32,0.17,
2.513,-0.15,-0.46,-1.95,0.41,0.33,0.16,
2.518,-0.15,-0.46,-1.95,0.43,0.33,0.15,
2.518,-0.15,-0.46,-1.95,0.47,0.33,0.14,
2.519,-0.15,-0.46,-1.95,0.48,0.33,0.14,
2.521,-0.38,-0.57,-1.11,0.48,0.33,0.14,
2.521,-0.38,-0.57,-1.11,0.51,0.33,0.14,
2.522,-0.38,-0.57,-1.11,0.54,0.33,0.14,
2.524,-0.38,-0.57,-1.11,0.58,0.33,0.14,
2.526,-0.38,-0.57,-1.11,0.63,0.32,0.14,
2.537,-0.38,-0.57,-1.11,0.65,0.31,0.14,
2.538,-0.51,-0.59,-0.61,0.65,0.31,0.14,
2.538,-0.51,-0.59,-0.61,0.68,0.31,0.14,
2.538,-0.51,-0.59,-0.61,0.72,0.29,0.14,
2.538,-0.51,-0.59,-0.61,0.76,0.28,0.14,
2.538,-0.51,-0.59,-0.61,0.81,0.25,0.14,
2.539,-0.51,-0.59,-0.61,0.82,0.24,0.14,
2.544,-0.38,-0.48,-0.68,0.82,0.24,0.14,
2.545,-0.38,-0.48,-0.68,0.86,0.22,0.14,
2.545,-0.38,-0.48,-0.68,0.89,0.19,0.13,
2.546,-0.38,-0.48,-0.68,0.91,0.17,0.13,
2.56,-0.38,-0.48,-0.68,0.93,0.12,0.11,
2.561,-0.38,-0.48,-0.68,0.94,0.10,0.11,
2.561,-0.06,-0.35,-1.28,0.94,0.10,0.11,
2.561,-0.06,-0.35,-1.28,0.95,0.06,0.10,
2.561,-0.06,-0.35,-1.28,0.95,0.00,0.08,
2.562,-0.06,-0.35,-1.28,0.95,-0.02,0.07,
2.562,-0.06,-0.35,-1.28,0.94,-0.08,0.05,
2.562,-0.06,-0.35,-1.28,0.94,-0.10,0.04,
2.563,0.16,-0.27,-1.98,0.94,-0.10,0.04,
2.563,0.16,-0.27,-1.98,0.91,-0.15,0.01,
2.563,0.16,-0.27,-1.98,0.90,-0.17,0.01,
2.572,0.16,-0.27,-1.98,0.88,-0.20,-0.01,
2.572,0.16,-0.27,-1.98,0.85,-0.25,-0.05,
2.573,0.16,-0.27,-1.98,0.84,-0.26,-0.06,
2.573,0.41,-0.11,-2.27,0.84,-0.26,-0.06,
2.573,0.41,-0.11,-2.27,0.79,-0.30,-0.10,
2.574,0.41,-0.11,-2.27,0.78,-0.31,-0.11,
2.574,0.41,-0.11,-2.27,0.75,-0.32,-0.14,
2.577,0.41,-0.11,-2.27,0.70,-0.34,-0.18,
2.583,0.41,-0.11,-2.27,0.68,-0.34,-0.20,
2.585,0.68,-0.05,-2.05,0.68,-0.34,-0.20,
2.585,0.68,-0.05,-2.05,0.63,-0.34,-0.25,
2.586,0.68,-0.05,-2.05,0.62,-0.34,-0.27,
2.586,0.68,-0.05,-2.05,0.58,-0.34,-0.30,
2.587,0.68,-0.05,-2.05,0.53,-0.33,-0.35,
2.589,0.68,-0.05,-2.05,0.51,-0.33,-0.37,
2.591,0.78,0.05,-1.53,0.51,-0.33,-0.37,
2.591,0.78,0.05,-1.53,0.45,-0.31,-0.42,
2.592,0.78,0.05,-1.53,0.42,-0.29,-0.45,
2.595,0.78,0.05,-1.53,0.40,-0.28,-0.46,
2.598,0.78,0.05,-1.53,0.36,-0.25,-0.50,
2.599,0.78,0.05,-1.53,0.33,-0.22,-0.53,
2.601,0.44,0.02,-0.52,0.33,-0.22,-0.53,
2.602,0.44,0.02,-0.52,0.31,-0.19,-0.54,
2.603,0.44,0.02,-0.52,0.29,-0.15,-0.56,
2.63,0.44,0.02,-0.52,0.28,-0.11,-0.57,
2.63,0.44,0.02,-0.52,0.27,-0.07,-0.58,
2.631,0.44,0.02,-0.52,0.26,-0.02,-0.59,
2.631,-0.02,-0.13,0.82,0.26,-0.02,-0.59,
2.631,-0.02,-0.13,0.82,0.26,0.03,-0.59,
2.632,-0.02,-0.13,0.82,0.26,0.07,-0.59,
2.632,-0.02,-0.13,0.82,0.26,0.12,-0.59,
2.633,-0.02,-0.13,0.82,0.27,0.18,-0.58,
2.633,-0.02,-0.13,0.82,0.28,0.23,-0.58,
2.633,-0.49,-0.21,1.86,0.28,0.23,-0.58,
2.634,-0.49,-0.21,1.86,0.29,0.29,-0.58,
2.634,-0.49,-0.21,1.86,0.30,0.34,-0.57,
2.635,-0.49,-0.21,1.86,0.31,0.39,-0.56,
2.635,-0.49,-0.21,1.86,0.33,0.43,-0.55,
2.635,-0.49,-0.21,1.86,0.34,0.47,-0.53,
2.636,-0.85,-0.16,2.18,0.34,0.47,-0.53,
2.636,-0.85,-0.16,2.18,0.35,0.50,-0.52,
2.637,-0.85,-0.16,2.18,0.36,0.53,-0.50,
2.637,-0.85,-0.16,2.18,0.37,0.55,-0.49,
2.638,-0.85,-0.16,2.18,0.37,0.57,-0.47,
2.638,-0.85,-0.16,2.18,0.38,0.59,-0.45,
2.646,-1.02,-0.07,1.95,0.38,0.59,-0.45,
2.647,-1.02,-0.07,1.95,0.38,0.60,-0.44,
2.647,-1.02,-0.07,1.95,0.38,0.62,-0.42,
2.648,-1.02,-0.07,1.95,0.39,0.62,-0.41,
2.648,-1.02,-0.07,1.95,0.38,0.62,-0.39,
2.649,-1.02,-0.07,1.95,0.38,0.62,-0.38,
2.651,-0.94,0.12,1.34,0.38,0.62,-0.38,
2.651,-0.94,0.12,1.34,0.37,0.61,-0.37,
2.652,-0.94,0.12,1.34,0.35,0.60,-0.37,
2.654,-0.94,0.12,1.34,0.34,0.59,-0.36,
2.658,-0.94,0.12,1.34,0.30,0.55,-0.35,
2.659,-0.94,0.12,1.34,0.30,0.55,-0.35,
2.661,-0.57,0.29,0.68,0.30,0.55,-0.35,
2.661,-0.57,0.29,0.68,0.28,0.53,-0.35,
2.663,-0.57,0.29,0.68,0.25,0.50,-0.36,
2.665,-0.57,0.29,0.68,0.21,0.48,-0.37,
2.667,-0.57,0.29,0.68,0.18,0.45,-0.38,
2.67,-0.57,0.29,0.68,0.13,0.43,-0.39,
2.671,-0.06,0.70,0.09,0.13,0.43,-0.39,
2.671,-0.06,0.70,0.09,0.09,0.40,-0.41,
2.672,-0.06,0.70,0.09,0.04,0.38,-0.43,
2.674,-0.06,0.70,0.09,-0.01,0.36,-0.45,
2.676,-0.06,0.70,0.09,-0.06,0.34,-0.47,
2.684,-0.06,0.70,0.09,-0.12,0.32,-0.50,
2.685,0.25,1.02,-0.14,-0.12,0.32,-0.50,
2.685,0.25,1.02,-0.14,-0.18,0.30,-0.52,
2.685,0.25,1.02,-0.14,-0.24,0.28,-0.55,
2.686,0.25,1.02,-0.14,-0.30,0.27,-0.58,
2.687,0.25,1.02,-0.14,-0.36,0.25,-0.60,
2.715,0.25,1.02,-0.14,-0.42,0.24,-0.63,
2.715,0.39,1.22,0.26,-0.42,0.24,-0.63,
2.715,0.39,1.22,0.26,-0.48,0.22,-0.65,
2.716,0.39,1.22,0.26,-0.54,0.21,-0.68,
2.716,0.39,1.22,0.26,-0.61,0.19,-0.70,
2.716,0.39,1.22,0.26,-0.67,0.17,-0.72,
2.716,0.39,1.22,0.26,-0.74,0.15,-0.75,
2.717,0.40,1.11,1.12,-0.74,0.15,-0.75,
2.717,0.40,1.11,1.12,-0.81,0.13,-0.77,
2.717,0.40,1.11,1.12,-0.88,0.11,-0.79,
2.717,0.40,1.11,1.12,-0.95,0.09,-0.81,
2.717,0.40,1.11,1.12,-1.02,0.07,-0.83,
2.718,0.40,1.11,1.12,-1.09,0.05,-0.85,
2.718,0.52,0.85,2.59,-1.09,0.05,-0.85,
2.718,0.52,0.85,2.59,-1.15,0.04,-0.87,
2.718,0.52,0.85,2.59,-1.20,0.02,-0.89,
2.719,0.52,0.85,2.59,-1.24,0.02,-0.91,
2.719,0.52,0.85,2.59,-1.27,0.01,-0.92,
2.719,0.52,0.85,2.59,-1.29,0.01,-0.93,
2.721,0.39,0.48,5.13,-1.29,0.01,-0.93,
2.721,0.39,0.48,5.13,-1.30,0.02,-0.94,
2.724,0.39,0.48,5.13,-1.30,0.03,-0.94,
2.725,0.39,0.48,5.13,-1.29,0.04,-0.93,
2.727,0.39,0.48,5.13,-1.26,0.07,-0.92,
2.73,0.39,0.48,5.13,-1.23,0.09,-0.90,
2.731,-0.26,-0.12,8.06,-1.23,0.09,-0.90,
2.731,-0.26,-0.12,8.06,-1.19,0.12,-0.88,
2.732,-0.26,-0.12,8.06,-1.14,0.15,-0.85,
2.735,-0.26,-0.12,8.06,-1.09,0.19,-0.81,
2.737,-0.26,-0.12,8.06,-1.03,0.23,-0.78,
2.739,-0.26,-0.12,8.06,-0.97,0.27,-0.73,
2.741,-0.90,-0.71,9.96,-0.97,0.27,-0.73,
2.742,-0.90,-0.71,9.96,-0.91,0.32,-0.69,
2.743,-0.90,-0.71,9.96,-0.84,0.36,-0.64,
2.748,-0.90,-0.71,9.96,-0.78,0.41,-0.59,
2.75,-0.90,-0.71,9.96,-0.72,0.46,-0.54,
2.751,-0.90,-0.71,9.96,-0.66,0.51,-0.49,
2.751,-0.91,-1.23,10.26,-0.66,0.51,-0.49,
2.751,-0.91,-1.23,10.26,-0.61,0.56,-0.44,
2.752,-0.91,-1.23,10.26,-0.55,0.61,-0.39,
2.754,-0.91,-1.23,10.26,-0.50,0.65,-0.34,
2.756,-0.91,-1.23,10.26,-0.45,0.68,-0.30,
2.758,-0.91,-1.23,10.26,-0.41,0.69,-0.26,
2.762,-0.39,-1.29,9.17,-0.41,0.69,-0.26,
2.764,-0.39,-1.29,9.17,-0.36,0.70,-0.23,
2.765,-0.39,-1.29,9.17,-0.32,0.70,-0.20,
2.766,-0.39,-1.29,9.17,-0.28,0.69,-0.17,
2.768,-0.39,-1.29,9.17,-0.24,0.67,-0.14,
2.769,-0.39,-1.29,9.17,-0.20,0.64,-0.12,
2.771,0.39,-1.01,7.65,-0.20,0.64,-0.12,
2.799,0.39,-1.01,7.65,-0.16,0.60,-0.11,
2.799,0.39,-1.01,7.65,-0.12,0.56,-0.09,
2.799,0.39,-1.01,7.65,-0.08,0.51,-0.08,
2.8,0.39,-1.01,7.65,-0.04,0.46,-0.06,
2.8,0.39,-1.01,7.65,-0.00,0.41,-0.05,
2.8,1.11,-0.56,6.10,-0.00,0.41,-0.05,
2.8,1.11,-0.56,6.10,0.03,0.35,-0.05,
2.801,1.11,-0.56,6.10,0.06,0.29,-0.04,
2.801,1.11,-0.56,6.10,0.09,0.23,-0.03,
2.801,1.11,-0.56,6.10,0.11,0.17,-0.03,
2.802,1.11,-0.56,6.10,0.13,0.11,-0.02,
2.802,1.56,-0.33,4.41,0.13,0.11,-0.02,
2.802,1.56,-0.33,4.41,0.15,0.05,-0.02,
2.803,1.56,-0.33,4.41,0.17,-0.01,-0.01,
2.803,1.56,-0.33,4.41,0.19,-0.06,-0.00,
2.803,1.56,-0.33,4.41,0.20,-0.12,0.00,
2.804,1.56,-0.33,4.41,0.21,-0.17,0.01,
2.804,1.58,-0.10,2.84,0.21,-0.17,0.01,
2.804,1.58,-0.10,2.84,0.21,-0.22,0.02,
2.804,1.58,-0.10,2.84,0.22,-0.26,0.03,
2.805,1.58,-0.10,2.84,0.22,-0.31,0.04,
2.811,1.58,-0.10,2.84,0.22,-0.34,0.05,
2.812,1.58,-0.10,2.84,0.22,-0.37,0.06,
2.812,1.46,-0.07,1.50,0.22,-0.37,0.06,
2.813,1.46,-0.07,1.50,0.22,-0.40,0.07,
2.813,1.46,-0.07,1.50,0.22,-0.43,0.08,
2.814,1.46,-0.07,1.50,0.22,-0.44,0.10,
2.816,1.46,-0.07,1.50,0.22,-0.46,0.11,
2.819,1.46,-0.07,1.50,0.22,-0.47,0.13,
2.821,1.21,-0.04,0.56,0.22,-0.47,0.13,
2.821,1.21,-0.04,0.56,0.22,-0.47,0.15,
2.822,1.21,-0.04,0.56,0.22,-0.47,0.17,
2.824,1.21,-0.04,0.56,0.22,-0.46,0.18,
2.826,1.21,-0.04,0.56,0.22,-0.44,0.20,
2.83,1.21,-0.04,0.56,0.22,-0.42,0.22,
2.832,1.04,-0.03,-0.19,0.22,-0.42,0.22,
2.832,1.04,-0.03,-0.19,0.22,-0.40,0.23,
2.833,1.04,-0.03,-0.19,0.22,-0.37,0.25,
2.834,1.04,-0.03,-0.19,0.22,-0.33,0.26,
2.837,1.04,-0.03,-0.19,0.21,-0.29,0.27,
2.839,1.04,-0.03,-0.19,0.21,-0.25,0.29,
2.841,0.96,0.01,-0.90,0.21,-0.25,0.29,
2.842,0.96,0.01,-0.90,0.22,-0.20,0.30,
2.843,0.96,0.01,-0.90,0.22,-0.16,0.31,
2.863,0.96,0.01,-0.90,0.22,-0.10,0.32,
2.865,0.96,0.01,-0.90,0.22,-0.05,0.33,
2.865,0.96,0.01,-0.90,0.22,0.01,0.34,
2.866,0.99,0.06,-1.65,0.22,0.01,0.34,
2.866,0.99,0.06,-1.65,0.22,0.06,0.34,
2.867,0.99,0.06,-1.65,0.22,0.11,0.35,
2.867,0.99,0.06,-1.65,0.22,0.16,0.36,
2.867,0.99,0.06,-1.65,0.22,0.21,0.36,
2.868,0.99,0.06,-1.65,0.22,0.26,0.36,
2.868,0.91,0.07,-2.60,0.22,0.26,0.36,
2.869,0.91,0.07,-2.60,0.22,0.30,0.37,
2.869,0.91,0.07,-2.60,0.22,0.34,0.37,
2.87,0.91,0.07,-2.60,0.21,0.38,0.38,
2.875,0.91,0.07,-2.60,0.21,0.41,0.38,
2.876,0.91,0.07,-2.60,0.20,0.45,0.38,
2.899,0.76,0.15,-3.69,0.20,0.45,0.38,
2.9,0.76,0.15,-3.69,0.20,0.48,0.39,
2.9,0.76,0.15,-3.69,0.19,0.50,0.39,
2.901,0.76,0.15,-3.69,0.18,0.53,0.40,
2.901,0.76,0.15,-3.69,0.17,0.55,0.40,
2.901,0.76,0.15,-3.69,0.16,0.56,0.40,
2.902,0.49,0.11,-4.77,0.16,0.56,0.40,
2.902,0.49,0.11,-4.77,0.15,0.56,0.41,
2.904,0.49,0.11,-4.77,0.14,0.57,0.41,
2.905,0.49,0.11,-4.77,0.12,0.57,0.41,
2.905,0.49,0.11,-4.77,0.11,0.57,0.41,
2.906,0.49,0.11,-4.77,0.10,0.56,0.42,
2.907,0.39,0.17,-5.67,0.10,0.56,0.42,
2.907,0.39,0.17,-5.67,0.08,0.54,0.42,
2.907,0.39,0.17,-5.67,0.07,0.52,0.42,
2.908,0.39,0.17,-5.67,0.06,0.50,0.42,
2.909,0.39,0.17,-5.67,0.05,0.47,0.42,
2.909,0.39,0.17,-5.67,0.03,0.43,0.41,
2.91,0.23,0.15,-6.24,0.03,0.43,0.41,
2.91,0.23,0.15,-6.24,0.02,0.39,0.41,
2.911,0.23,0.15,-6.24,0.00,0.35,0.42,
2.912,0.23,0.15,-6.24,-0.01,0.30,0.42,
2.913,0.23,0.15,-6.24,-0.03,0.25,0.42,
2.913,0.23,0.15,-6.24,-0.05,0.20,0.41,
2.913,0.09,0.21,-6.67,-0.05,0.20,0.41,
2.914,0.09,0.21,-6.67,-0.07,0.14,0.41,
2.914,0.09,0.21,-6.67,-0.09,0.09,0.41,
2.921,0.09,0.21,-6.67,-0.11,0.04,0.42,
2.922,0.09,0.21,-6.67,-0.12,-0.02,0.42,
2.922,0.09,0.21,-6.67,-0.14,-0.07,0.42,
2.923,-0.13,-0.03,-6.76,-0.14,-0.07,0.42,
2.923,-0.13,-0.03,-6.76,-0.16,-0.12,0.42,
2.923,-0.13,-0.03,-6.76,-0.18,-0.17,0.43,
2.924,-0.13,-0.03,-6.76,-0.20,-0.22,0.43,
2.927,-0.13,-0.03,-6.76,-0.21,-0.26,0.44,
2.934,-0.13,-0.03,-6.76,-0.23,-0.30,0.44,
2.935,-0.29,-0.12,-6.44,-0.23,-0.30,0.44,
2.936,-0.29,-0.12,-6.44,-0.25,-0.34,0.45,
2.937,-0.29,-0.12,-6.44,-0.26,-0.37,0.46,
2.937,-0.29,-0.12,-6.44,-0.27,-0.40,0.47,
2.937,-0.29,-0.12,-6.44,-0.28,-0.42,0.47,
2.971,-0.29,-0.12,-6.44,-0.29,-0.44,0.48,
2.971,-0.32,-0.40,-5.55,-0.29,-0.44,0.48,
2.972,-0.32,-0.40,-5.55,-0.29,-0.45,0.49,
2.976,-0.32,-0.40,-5.55,-0.30,-0.46,0.49,
2.978,-0.32,-0.40,-5.55,-0.29,-0.46,0.50,
2.979,-0.32,-0.40,-5.55,-0.29,-0.46,0.51,
2.981,-0.32,-0.40,-5.55,-0.28,-0.45,0.51,
2.983,-0.29,-0.49,-4.30,-0.28,-0.45,0.51,
2.985,-0.29,-0.49,-4.30,-0.27,-0.43,0.52,
2.986,-0.29,-0.49,-4.30,-0.26,-0.42,0.53,
2.987,-0.29,-0.49,-4.30,-0.24,-0.39,0.53,
2.987,-0.29,-0.49,-4.30,-0.22,-0.37,0.54,
2.989,-0.29,-0.49,-4.30,-0.19,-0.34,0.54,
2.991,-0.19,-0.62,-3.02,-0.19,-0.34,0.54,
2.992,-0.19,-0.62,-3.02,-0.17,-0.31,0.55,
2.993,-0.19,-0.62,-3.02,-0.14,-0.28,0.55,
2.994,-0.19,-0.62,-3.02,-0.11,-0.24,0.55,
2.995,-0.19,-0.62,-3.02,-0.08,-0.21,0.56,
2.996,-0.19,-0.62,-3.02,-0.04,-0.18,0.56,
2.998,-0.14,-0.71,-2.13,-0.04,-0.18,0.56,
2.999,-0.14,-0.71,-2.13,-0.01,-0.14,0.57,
3.0,-0.14,-0.71,-2.13,0.02,-0.11,0.57,
3.001,-0.14,-0.71,-2.13,0.06,-0.07,0.58,
3.003,-0.14,-0.71,-2.13,0.09,-0.04,0.59,
3.003,-0.14,-0.71,-2.13,0.13,-0.02,0.60,
3.005,-0.37,-0.73,-1.68,0.13,-0.02,0.60,
3.005,-0.37,-0.73,-1.68,0.17,0.01,0.61,
3.007,-0.37,-0.73,-1.68,0.20,0.03,0.62,
3.008,-0.37,-0.73,-1.68,0.24,0.05,0.64,
3.009,-0.37,-0.73,-1.68,0.27,0.06,0.65,
3.009,-0.37,-0.73,-1.68,0.31,0.07,0.67,
3.01,-0.62,-0.77,-1.67,0.31,0.07,0.67,
3.012,-0.62,-0.77,-1.67,0.34,0.08,0.68,
3.014,-0.62,-0.77,-1.67,0.37,0.08,0.69,
3.015,-0.62,-0.77,-1.67,0.40,0.08,0.71,
3.016,-0.62,-0.77,-1.67,0.43,0.08,0.72,
3.017,-0.62,-0.77,-1.67,0.46,0.07,0.74,
3.018,-0.75,-0.79,-1.95,0.46,0.07,0.74,
3.019,-0.75,-0.79,-1.95,0.49,0.06,0.75,
3.019,-0.75,-0.79,-1.95,0.51,0.04,0.77,
3.021,-0.75,-0.79,-1.95,0.54,0.02,0.78,
3.022,-0.75,-0.79,-1.95,0.56,-0.00,0.80,
3.023,-0.75,-0.79,-1.95,0.58,-0.03,0.81,
3.023,-0.74,-0.83,-2.32,0.58,-0.03,0.81,
3.024,-0.74,-0.83,-2.32,0.60,-0.05,0.82,
3.025,-0.74,-0.83,-2.32,0.62,-0.08,0.83,
3.025,-0.74,-0.83,-2.32,0.63,-0.11,0.85,
3.025,-0.74,-0.83,-2.32,0.64,-0.14,0.85,
3.026,-0.74,-0.83,-2.32,0.65,-0.17,0.86,
3.027,-0.56,-0.85,-2.65,0.65,-0.17,0.86,
3.027,-0.56,-0.85,-2.65,0.66,-0.20,0.87,
3.028,-0.56,-0.85,-2.65,0.66,-0.23,0.88,
3.028,-0.56,-0.85,-2.65,0.66,-0.26,0.88,
3.029,-0.56,-0.85,-2.65,0.66,-0.29,0.88,
3.029,-0.56,-0.85,-2.65,0.65,-0.31,0.88,
3.046,-0.21,-0.80,-2.88,0.65,-0.31,0.88,
3.047,-0.21,-0.80,-2.88,0.65,-0.33,0.88,
3.047,-0.21,-0.80,-2.88,0.64,-0.35,0.88,
3.047,-0.21,-0.80,-2.88,0.63,-0.37,0.87,
3.047,-0.21,-0.80,-2.88,0.63,-0.38,0.86,
3.048,-0.21,-0.80,-2.88,0.62,-0.39,0.85,
3.048,0.16,-0.82,-2.65,0.62,-0.39,0.85,
3.048,0.16,-0.82,-2.65,0.61,-0.39,0.85,
3.048,0.16,-0.82,-2.65,0.61,-0.38,0.84,
3.048,0.16,-0.82,-2.65,0.60,-0.38,0.83,
3.049,0.16,-0.82,-2.65,0.59,-0.37,0.82,
3.049,0.16,-0.82,-2.65,0.59,-0.35,0.80,
3.054,0.42,-0.87,-2.23,0.59,-0.35,0.80,
3.054,0.42,-0.87,-2.23,0.58,-0.33,0.79,
3.055,0.42,-0.87,-2.23,0.57,-0.30,0.78,
3.055,0.42,-0.87,-2.23,0.56,-0.27,0.76,
3.056,0.42,-0.87,-2.23,0.55,-0.24,0.75,
3.059,0.42,-0.87,-2.23,0.53,-0.21,0.73,
3.076,0.65,-0.84,-1.90,0.53,-0.21,0.73,
3.076,0.65,-0.84,-1.90,0.52,-0.17,0.71,
3.077,0.65,-0.84,-1.90,0.50,-0.13,0.69,
3.077,0.65,-0.84,-1.90,0.49,-0.10,0.67,
3.077,0.65,-0.84,-1.90,0.47,-0.06,0.66,
3.077,0.65,-0.84,-1.90,0.45,-0.02,0.64,
3.077,0.69,-0.86,-1.62,0.45,-0.02,0.64,
3.078,0.69,-0.86,-1.62,0.44,0.02,0.63,
3.078,0.69,-0.86,-1.62,0.42,0.06,0.61,
3.078,0.69,-0.86,-1.62,0.41,0.09,0.60,
3.078,0.69,-0.86,-1.62,0.39,0.13,0.59,
3.08,0.69,-0.86,-1.62,0.38,0.16,0.58,
3.08,0.48,-0.83,-1.20,0.38,0.16,0.58,
3.081,0.48,-0.83,-1.20,0.37,0.19,0.57,
3.082,0.48,-0.83,-1.20,0.35,0.23,0.57,
3.087,0.48,-0.83,-1.20,0.34,0.25,0.56,
3.087,0.48,-0.83,-1.20,0.33,0.28,0.55,
3.088,0.48,-0.83,-1.20,0.32,0.31,0.55,
3.091,0.29,-0.76,-0.80,0.32,0.31,0.55,
3.091,0.29,-0.76,-0.80,0.30,0.33,0.54,
3.092,0.29,-0.76,-0.80,0.30,0.34,0.54,
3.099,0.29,-0.76,-0.80,0.29,0.36,0.54,
3.1,0.29,-0.76,-0.80,0.28,0.37,0.54,
3.102,0.29,-0.76,-0.80,0.28,0.37,0.53,
3.103,0.09,-0.65,-0.32,0.28,0.37,0.53,
3.103,0.09,-0.65,-0.32,0.27,0.38,0.54,
3.105,0.09,-0.65,-0.32,0.27,0.38,0.54,
3.123,0.09,-0.65,-0.32,0.28,0.39,0.54,
3.123,0.09,-0.65,-0.32,0.28,0.39,0.54,
3.124,0.09,-0.65,-0.32,0.29,0.39,0.55,
3.124,-0.15,-0.57,0.41,0.29,0.39,0.55,
3.124,-0.15,-0.57,0.41,0.30,0.39,0.55,
3.124,-0.15,-0.57,0.41,0.31,0.39,0.56,
3.124,-0.15,-0.57,0.41,0.33,0.39,0.57,
3.125,-0.15,-0.57,0.41,0.35,0.39,0.58,
3.125,-0.15,-0.57,0.41,0.37,0.39,0.59,
3.125,-0.37,-0.46,1.23,0.37,0.39,0.59,
3.125,-0.37,-0.46,1.23,0.39,0.38,0.60,
3.125,-0.37,-0.46,1.23,0.42,0.38,0.61,
3.126,-0.37,-0.46,1.23,0.45,0.37,0.62,
3.129,-0.37,-0.46,1.23,0.48,0.36,0.64,
3.13,-0.37,-0.46,1.23,0.51,0.35,0.65,
3.131,-0.47,-0.46,1.90,0.51,0.35,0.65,
3.131,-0.47,-0.46,1.90,0.54,0.34,0.66,
3.132,-0.47,-0.46,1.90,0.57,0.32,0.67,
3.134,-0.47,-0.46,1.90,0.60,0.30,0.69,
3.136,-0.47,-0.46,1.90,0.63,0.27,0.69,
3.138,-0.47,-0.46,1.90,0.65,0.25,0.70,
3.141,-0.42,-0.34,2.13,0.65,0.25,0.70,
3.141,-0.42,-0.34,2.13,0.67,0.22,0.71,
3.143,-0.42,-0.34,2.13,0.69,0.20,0.72,
3.144,-0.42,-0.34,2.13,0.70,0.17,0.72,
3.147,-0.42,-0.34,2.13,0.71,0.14,0.72,
3.148,-0.42,-0.34,2.13,0.71,0.11,0.72,
3.151,-0.12,-0.23,2.12,0.71,0.11,0.72,
3.151,-0.12,-0.23,2.12,0.71,0.09,0.72,
3.152,-0.12,-0.23,2.12,0.71,0.06,0.72,
3.154,-0.12,-0.23,2.12,0.71,0.04,0.71,
3.156,-0.12,-0.23,2.12,0.70,0.02,0.69,
3.163,-0.12,-0.23,2.12,0.69,-0.01,0.66,
3.164,-0.12,-0.23,2.12,0.69,-0.01,0.66,
3.164,0.40,0.10,2.25,0.69,-0.01,0.66,
3.164,0.40,0.10,2.25,0.68,-0.02,0.64,
3.165,0.40,0.10,2.25,0.67,-0.04,0.62,
3.166,0.40,0.10,2.25,0.65,-0.05,0.60,
3.168,0.40,0.10,2.25,0.64,-0.06,0.57,
3.171,0.57,0.30,2.47,0.64,-0.06,0.57,
3.171,0.57,0.30,2.47,0.62,-0.07,0.55,
3.172,0.57,0.30,2.47,0.61,-0.08,0.52,
3.174,0.57,0.30,2.47,0.59,-0.08,0.50,
3.178,0.57,0.30,2.47,0.56,-0.08,0.46,
3.181,0.57,0.30,2.47,0.54,-0.07,0.44,
3.181,0.45,0.57,2.67,0.54,-0.07,0.44,
3.182,0.45,0.57,2.67,0.52,-0.06,0.41,
3.184,0.45,0.57,2.67,0.49,-0.05,0.39,
3.185,0.45,0.57,2.67,0.47,-0.03,0.36,
3.187,0.45,0.57,2.67,0.43,-0.01,0.34,
3.188,0.45,0.57,2.67,0.40,0.02,0.32,
3.191,-0.15,0.78,2.68,0.40,0.02,0.32,
3.191,-0.15,0.78,2.68,0.36,0.05,0.30,
3.193,-0.15,0.78,2.68,0.31,0.08,0.29,
3.196,-0.15,0.78,2.68,0.27,0.13,0.28,
3.197,-0.15,0.78,2.68,0.22,0.17,0.27,
3.199,-0.15,0.78,2.68,0.16,0.21,0.26,
3.201,-0.77,0.77,2.29,0.16,0.21,0.26,
3.201,-0.77,0.77,2.29,0.10,0.25,0.25,
3.202,-0.77,0.77,2.29,0.04,0.30,0.25,
3.204,-0.77,0.77,2.29,-0.02,0.33,0.25,
3.207,-0.77,0.77,2.29,-0.08,0.36,0.26,
3.208,-0.77,0.77,2.29,-0.14,0.38,0.26,
3.224,-1.36,0.50,1.89,-0.14,0.38,0.26,
3.224,-1.36,0.50,1.89,-0.21,0.40,0.27,
3.225,-1.36,0.50,1.89,-0.28,0.39,0.28,
3.225,-1.36,0.50,1.89,-0.35,0.38,0.29,
3.225,-1.36,0.50,1.89,-0.43,0.36,0.30,
3.226,-1.36,0.50,1.89,-0.51,0.32,0.30,
3.226,-1.54,0.38,1.47,-0.51,0.32,0.30,
3.226,-1.54,0.38,1.47,-0.59,0.27,0.31,
3.227,-1.54,0.38,1.47,-0.69,0.21,0.31,
3.227,-1.54,0.38,1.47,-0.78,0.13,0.30,
3.228,-1.54,0.38,1.47,-0.89,0.04,0.29,
3.253,-1.54,0.38,1.47,-0.99,-0.06,0.27,
3.254,-0.96,0.62,1.37,-0.99,-0.06,0.27,
3.254,-0.96,0.62,1.37,-1.08,-0.17,0.25,
3.254,-0.96,0.62,1.37,-1.18,-0.28,0.22,
3.255,-0.96,0.62,1.37,-1.27,-0.39,0.18,
3.255,-0.96,0.62,1.37,-1.34,-0.49,0.15,
3.255,-0.96,0.62,1.37,-1.41,-0.60,0.11,
3.255,0.02,0.99,3.03,-1.41,-0.60,0.11,
3.256,0.02,0.99,3.03,-1.47,-0.70,0.07,
3.256,0.02,0.99,3.03,-1.52,-0.79,0.02,
3.256,0.02,0.99,3.03,-1.55,-0.87,-0.02,
3.256,0.02,0.99,3.03,-1.58,-0.96,-0.06,
3.257,0.02,0.99,3.03,-1.59,-1.03,-0.11,
3.257,0.65,1.01,5.89,-1.59,-1.03,-0.11,
3.257,0.65,1.01,5.89,-1.60,-1.09,-0.15,
3.258,0.65,1.01,5.89,-1.59,-1.14,-0.19,
3.258,0.65,1.01,5.89,-1.57,-1.17,-0.23,
3.258,0.65,1.01,5.89,-1.55,-1.20,-0.26,
3.258,0.65,1.01,5.89,-1.52,-1.20,-0.29,
3.261,0.70,0.64,8.68,-1.52,-1.20,-0.29,
3.262,0.70,0.64,8.68,-1.47,-1.19,-0.31,
3.263,0.70,0.64,8.68,-1.43,-1.16,-0.33,
3.265,0.70,0.64,8.68,-1.38,-1.12,-0.35,
3.267,0.70,0.64,8.68,-1.33,-1.06,-0.36,
3.269,0.70,0.64,8.68,-1.28,-0.99,-0.36,
3.271,0.21,-0.04,10.27,-1.28,-0.99,-0.36,
3.301,0.21,-0.04,10.27,-1.22,-0.91,-0.35,
3.301,0.21,-0.04,10.27,-1.17,-0.82,-0.35,
3.301,0.21,-0.04,10.27,-1.13,-0.72,-0.33,
3.301,0.21,-0.04,10.27,-1.08,-0.61,-0.31,
3.302,0.21,-0.04,10.27,-1.04,-0.50,-0.29,
3.302,-0.57,-0.61,9.93,-1.04,-0.50,-0.29,
3.302,-0.57,-0.61,9.93,-1.01,-0.39,-0.26,
3.303,-0.57,-0.61,9.93,-0.97,-0.28,-0.23,
3.303,-0.57,-0.61,9.93,-0.94,-0.17,-0.20,
3.303,-0.57,-0.61,9.93,-0.92,-0.06,-0.16,
3.303,-0.57,-0.61,9.93,-0.89,0.04,-0.13,
3.304,-1.30,-0.74,8.40,-0.89,0.04,-0.13,
3.304,-1.30,-0.74,8.40,-0.87,0.13,-0.10,
3.304,-1.30,-0.74,8.40,-0.84,0.22,-0.06,
3.305,-1.30,-0.74,8.40,-0.82,0.29,-0.03,
3.305,-1.30,-0.74,8.40,-0.80,0.36,0.00,
3.305,-1.30,-0.74,8.40,-0.78,0.42,0.03,
3.305,-1.34,-0.36,6.45,-0.78,0.42,0.03,
3.306,-1.34,-0.36,6.45,-0.76,0.47,0.05,
3.306,-1.34,-0.36,6.45,-0.74,0.51,0.07,
3.306,-1.34,-0.36,6.45,-0.71,0.55,0.09,
3.306,-1.34,-0.36,6.45,-0.69,0.57,0.11,
3.312,-1.34,-0.36,6.45,-0.67,0.58,0.12,
3.313,-1.07,0.10,4.55,-0.67,0.58,0.12,
3.313,-1.07,0.10,4.55,-0.64,0.59,0.13,
3.313,-1.07,0.10,4.55,-0.62,0.59,0.14,
3.314,-1.07,0.10,4.55,-0.60,0.58,0.15,
3.318,-1.07,0.10,4.55,-0.57,0.57,0.16,
3.319,-1.07,0.10,4.55,-0.55,0.55,0.17,
3.321,-0.60,0.42,2.74,-0.55,0.55,0.17,
3.321,-0.60,0.42,2.74,-0.52,0.52,0.17,
3.322,-0.60,0.42,2.74,-0.50,0.49,0.17,
3.324,-0.60,0.42,2.74,-0.47,0.45,0.18,
3.327,-0.60,0.42,2.74,-0.45,0.41,0.17,
3.329,-0.60,0.42,2.74,-0.42,0.37,0.17,
3.331,-0.29,0.66,1.13,-0.42,0.37,0.17,
3.331,-0.29,0.66,1.13,-0.39,0.32,0.17,
3.332,-0.29,0.66,1.13,-0.37,0.28,0.17,
3.335,-0.29,0.66,1.13,-0.34,0.23,0.16,
3.339,-0.29,0.66,1.13,-0.32,0.18,0.16,
3.339,-0.29,0.66,1.13,-0.29,0.14,0.16,
3.341,-0.08,0.78,-0.25,-0.29,0.14,0.16,
3.341,-0.08,0.78,-0.25,-0.27,0.09,0.15,
3.349,-0.08,0.78,-0.25,-0.24,0.04,0.15,
3.35,-0.08,0.78,-0.25,-0.22,-0.00,0.14,
3.35,-0.08,0.78,-0.25,-0.20,-0.05,0.14,
3.35,-0.08,0.78,-0.25,-0.18,-0.09,0.13,
3.351,0.01,0.79,-1.45,-0.18,-0.09,0.13,
3.351,0.01,0.79,-1.45,-0.16,-0.13,0.13,
3.38,0.01,0.79,-1.45,-0.14,-0.17,0.13,
3.38,0.01,0.79,-1.45,-0.13,-0.21,0.12,
3.381,0.01,0.79,-1.45,-0.11,-0.25,0.12,
3.381,0.01,0.79,-1.45,-0.09,-0.28,0.12,
3.381,-0.08,0.67,-2.37,-0.09,-0.28,0.12,
3.381,-0.08,0.67,-2.37,-0.07,-0.32,0.12,
3.381,-0.08,0.67,-2.37,-0.06,-0.35,0.12,
3.382,-0.08,0.67,-2.37,-0.04,-0.37,0.12,
3.382,-0.08,0.67,-2.37,-0.02,-0.40,0.12,
3.382,-0.08,0.67,-2.37,-0.01,-0.42,0.12,
3.382,-0.19,0.66,-3.01,-0.01,-0.42,0.12,
3.382,-0.19,0.66,-3.01,0.00,-0.43,0.12,
3.383,-0.19,0.66,-3.01,0.02,-0.44,0.12,
3.383,-0.19,0.66,-3.01,0.03,-0.44,0.12,
3.383,-0.19,0.66,-3.01,0.04,-0.44,0.12,
3.383,-0.19,0.66,-3.01,0.04,-0.44,0.12,
3.383,-0.28,0.53,-3.56,0.04,-0.44,0.12,
3.384,-0.28,0.53,-3.56,0.05,-0.43,0.12,
3.384,-0.28,0.53,-3.56,0.05,-0.42,0.12,
3.385,-0.28,0.53,-3.56,0.05,-0.40,0.12,
3.386,-0.28,0.53,-3.56,0.05,-0.39,0.12,
3.388,-0.28,0.53,-3.56,0.05,-0.36,0.11,
3.391,-0.21,0.48,-4.19,0.05,-0.36,0.11,
3.391,-0.21,0.48,-4.19,0.04,-0.34,0.11,
3.393,-0.21,0.48,-4.19,0.03,-0.31,0.11,
3.396,-0.21,0.48,-4.19,0.03,-0.29,0.10,
3.397,-0.21,0.48,-4.19,0.02,-0.26,0.10,
3.401,-0.21,0.48,-4.19,0.01,-0.23,0.10,
3.403,-0.14,0.38,-4.58,0.01,-0.23,0.10,
3.404,-0.14,0.38,-4.58,-0.00,-0.20,0.09,
3.405,-0.14,0.38,-4.58,-0.01,-0.17,0.08,
3.406,-0.14,0.38,-4.58,-0.02,-0.14,0.08,
3.407,-0.14,0.38,-4.58,-0.03,-0.11,0.07,
3.416,-0.14,0.38,-4.58,-0.03,-0.08,0.06,
3.418,-0.14,0.40,-4.73,-0.03,-0.08,0.06,
3.418,-0.14,0.40,-4.73,-0.04,-0.05,0.06,
3.419,-0.14,0.40,-4.73,-0.05,-0.02,0.05,
3.419,-0.14,0.40,-4.73,-0.06,0.01,0.04,
3.419,-0.14,0.40,-4.73,-0.06,0.04,0.03,
3.42,-0.14,0.40,-4.73,-0.07,0.07,0.02,
3.421,-0.11,0.25,-4.73,-0.07,0.07,0.02,
3.421,-0.11,0.25,-4.73,-0.07,0.10,0.01,
3.422,-0.11,0.25,-4.73,-0.07,0.13,0.01,
3.424,-0.11,0.25,-4.73,-0.07,0.16,-0.00,
3.426,-0.11,0.25,-4.73,-0.06,0.19,-0.01,
3.429,-0.11,0.25,-4.73,-0.06,0.22,-0.01,
3.431,-0.23,0.19,-4.46,-0.06,0.22,-0.01,
3.431,-0.23,0.19,-4.46,-0.04,0.24,-0.02,
3.432,-0.23,0.19,-4.46,-0.03,0.27,-0.02,
3.435,-0.23,0.19,-4.46,-0.01,0.29,-0.02,
3.436,-0.23,0.19,-4.46,0.02,0.30,-0.02,
3.468,-0.23,0.19,-4.46,0.04,0.31,-0.02,
3.468,-0.53,0.07,-4.01,0.04,0.31,-0.02,
3.468,-0.53,0.07,-4.01,0.07,0.32,-0.02,
3.468,-0.53,0.07,-4.01,0.10,0.32,-0.02,
3.469,-0.53,0.07,-4.01,0.12,0.32,-0.02,
3.469,-0.53,0.07,-4.01,0.15,0.32,-0.02,
3.469,-0.53,0.07,-4.01,0.18,0.32,-0.02,
3.47,-0.69,0.04,-3.88,0.18,0.32,-0.02,
3.47,-0.69,0.04,-3.88,0.21,0.31,-0.02,
3.47,-0.69,0.04,-3.88,0.23,0.30,-0.02,
3.471,-0.69,0.04,-3.88,0.25,0.29,-0.03,
3.471,-0.69,0.04,-3.88,0.27,0.28,-0.03,
3.471,-0.69,0.04,-3.88,0.30,0.27,-0.03,
3.471,-0.71,-0.06,-4.09,0.30,0.27,-0.03,
3.472,-0.71,-0.06,-4.09,0.32,0.26,-0.03,
3.472,-0.71,-0.06,-4.09,0.33,0.25,-0.03,
3.472,-0.71,-0.06,-4.09,0.35,0.24,-0.04,
3.473,-0.71,-0.06,-4.09,0.35,0.23,-0.04,
3.473,-0.71,-0.06,-4.09,0.36,0.22,-0.04,
3.473,-0.84,-0.06,-4.45,0.36,0.22,-0.04,
3.473,-0.84,-0.06,-4.45,0.37,0.20,-0.04,
3.474,-0.84,-0.06,-4.45,0.37,0.19,-0.05,
3.48,-0.84,-0.06,-4.45,0.38,0.17,-0.05,
3.481,-0.84,-0.06,-4.45,0.37,0.16,-0.05,
3.481,-0.84,-0.06,-4.45,0.36,0.14,-0.06,
3.481,-0.81,-0.16,-4.79,0.36,0.14,-0.06,
3.482,-0.81,-0.16,-4.79,0.35,0.12,-0.07,
3.482,-0.81,-0.16,-4.79,0.34,0.11,-0.08,
3.486,-0.81,-0.16,-4.79,0.33,0.09,-0.09,
3.487,-0.81,-0.16,-4.79,0.31,0.07,-0.10,
3.488,-0.81,-0.16,-4.79,0.30,0.05,-0.10,
3.491,-0.75,-0.15,-4.83,0.30,0.05,-0.10,
3.491,-0.75,-0.15,-4.83,0.28,0.03,-0.11,
3.497,-0.75,-0.15,-4.83,0.26,0.02,-0.12,
3.498,-0.75,-0.15,-4.83,0.25,0.00,-0.13,
3.498,-0.75,-0.15,-4.83,0.23,-0.01,-0.14,
3.499,-0.75,-0.15,-4.83,0.22,-0.03,-0.15,
3.501,-0.78,-0.31,-4.33,0.22,-0.03,-0.15,
3.501,-0.78,-0.31,-4.33,0.20,-0.05,-0.15,
3.506,-0.78,-0.31,-4.33,0.19,-0.06,-0.16,
3.507,-0.78,-0.31,-4.33,0.18,-0.08,-0.17,
3.507,-0.78,-0.31,-4.33,0.17,-0.10,-0.18,
3.527,-0.78,-0.31,-4.33,0.16,-0.11,-0.19,
3.528,-0.73,-0.46,-3.61,0.16,-0.11,-0.19,
3.529,-0.73,-0.46,-3.61,0.15,-0.13,-0.20,
3.529,-0.73,-0.46,-3.61,0.14,-0.15,-0.21,
3.529,-0.73,-0.46,-3.61,0.14,-0.16,-0.22,
3.53,-0.73,-0.46,-3.61,0.14,-0.17,-0.23,
3.53,-0.73,-0.46,-3.61,0.14,-0.19,-0.24,
3.53,-0.66,-0.56,-2.66,0.14,-0.19,-0.24,
3.531,-0.66,-0.56,-2.66,0.14,-0.20,-0.25,
3.531,-0.66,-0.56,-2.66,0.15,-0.22,-0.27,
3.531,-0.66,-0.56,-2.66,0.15,-0.23,-0.28,
3.531,-0.66,-0.56,-2.66,0.16,-0.24,-0.29,
3.532,-0.66,-0.56,-2.66,0.18,-0.25,-0.30,
3.532,-0.81,-0.65,-1.52,0.18,-0.25,-0.30,
3.532,-0.81,-0.65,-1.52,0.19,-0.26,-0.31,
3.533,-0.81,-0.65,-1.52,0.21,-0.26,-0.32,
3.536,-0.81,-0.65,-1.52,0.23,-0.27,-0.33,
3.537,-0.81,-0.65,-1.52,0.26,-0.26,-0.33,
3.54,-0.81,-0.65,-1.52,0.28,-0.26,-0.34,
3.541,-1.03,-0.75,-0.40,0.28,-0.26,-0.34,
3.542,-1.03,-0.75,-0.40,0.31,-0.25,-0.34,
3.543,-1.03,-0.75,-0.40,0.34,-0.24,-0.34,
3.552,-1.03,-0.75,-0.40,0.37,-0.23,-0.33,
3.554,-1.03,-0.75,-0.40,0.41,-0.23,-0.33,
3.555,-1.03,-0.75,-0.40,0.41,-0.22,-0.33,
3.555,-1.14,-0.99,0.24,0.41,-0.22,-0.33,
3.556,-1.14,-0.99,0.24,0.45,-0.22,-0.33,
3.556,-1.14,-0.99,0.24,0.47,-0.21,-0.33,
3.557,-1.14,-0.99,0.24,0.49,-0.22,-0.33,
3.558,-1.14,-0.99,0.24,0.51,-0.22,-0.33,
3.567,-1.14,-0.99,0.24,0.52,-0.22,-0.34,
3.568,-0.87,-1.00,0.35,0.52,-0.22,-0.34,
3.568,-0.87,-1.00,0.35,0.54,-0.23,-0.34,
3.569,-0.87,-1.00,0.35,0.55,-0.25,-0.35,
3.569,-0.87,-1.00,0.35,0.56,-0.26,-0.36,
3.569,-0.87,-1.00,0.35,0.57,-0.28,-0.37,
3.57,-0.87,-1.00,0.35,0.58,-0.29,-0.39,
3.571,-0.53,-0.78,0.36,0.58,-0.29,-0.39,
3.571,-0.53,-0.78,0.36,0.58,-0.31,-0.40,
3.572,-0.53,-0.78,0.36,0.59,-0.33,-0.42,
3.575,-0.53,-0.78,0.36,0.59,-0.35,-0.44,
3.58,-0.53,-0.78,0.36,0.60,-0.37,-0.46,
3.58,-0.53,-0.78,0.36,0.60,-0.39,-0.48,
3.581,-0.21,-0.58,0.42,0.60,-0.39,-0.48,
3.583,-0.21,-0.58,0.42,0.59,-0.40,-0.50,
3.583,-0.21,-0.58,0.42,0.59,-0.41,-0.52,
3.584,-0.21,-0.58,0.42,0.59,-0.42,-0.54,
3.587,-0.21,-0.58,0.42,0.57,-0.43,-0.57,
3.588,-0.21,-0.58,0.42,0.56,-0.44,-0.59,
3.618,0.10,-0.45,0.36,0.56,-0.44,-0.59,
3.62,0.10,-0.45,0.36,0.55,-0.44,-0.62,
3.621,0.10,-0.45,0.36,0.53,-0.43,-0.64,
3.623,0.10,-0.45,0.36,0.51,-0.43,-0.67,
3.624,0.10,-0.45,0.36,0.49,-0.41,-0.69,
3.625,0.10,-0.45,0.36,0.47,-0.40,-0.72,
3.628,0.23,-0.30,0.44,0.47,-0.40,-0.72,
3.629,0.23,-0.30,0.44,0.45,-0.38,-0.74,
3.629,0.23,-0.30,0.44,0.43,-0.36,-0.76,
3.659,0.23,-0.30,0.44,0.42,-0.34,-0.78,
3.659,0.23,-0.30,0.44,0.40,-0.31,-0.80,
3.66,0.23,-0.30,0.44,0.39,-0.29,-0.81,
3.66,-0.03,-0.23,0.91,0.39,-0.29,-0.81,
3.66,-0.03,-0.23,0.91,0.37,-0.25,-0.82,
3.661,-0.03,-0.23,0.91,0.36,-0.22,-0.83,
3.661,-0.03,-0.23,0.91,0.35,-0.18,-0.83,
3.662,-0.03,-0.23,0.91,0.33,-0.15,-0.83,
3.662,-0.03,-0.23,0.91,0.32,-0.11,-0.83,
3.663,-0.48,-0.27,1.35,0.32,-0.11,-0.83,
3.663,-0.48,-0.27,1.35,0.31,-0.07,-0.83,
3.663,-0.48,-0.27,1.35,0.29,-0.04,-0.82,
3.664,-0.48,-0.27,1.35,0.28,0.00,-0.81,
3.664,-0.48,-0.27,1.35,0.27,0.03,-0.79,
3.665,-0.48,-0.27,1.35,0.26,0.06,-0.78,
3.665,-0.89,-0.39,1.70,0.26,0.06,-0.78,
3.666,-0.89,-0.39,1.70,0.25,0.09,-0.76,
3.666,-0.89,-0.39,1.70,0.25,0.11,-0.74,
3.666,-0.89,-0.39,1.70,0.24,0.14,-0.73,
3.667,-0.89,-0.39,1.70,0.23,0.15,-0.71,
3.667,-0.89,-0.39,1.70,0.23,0.17,-0.69,
3.668,-0.97,-0.35,2.13,0.23,0.17,-0.69,
3.668,-0.97,-0.35,2.13,0.23,0.18,-0.67,
3.668,-0.97,-0.35,2.13,0.23,0.18,-0.65,
3.669,-0.97,-0.35,2.13,0.24,0.19,-0.63,
3.669,-0.97,-0.35,2.13,0.24,0.19,-0.61,
3.67,-0.97,-0.35,2.13,0.25,0.19,-0.59,
3.67,-0.84,-0.21,2.61,0.25,0.19,-0.59,
3.671,-0.84,-0.21,2.61,0.25,0.19,-0.57,
3.671,-0.84,-0.21,2.61,0.26,0.18,-0.56,
3.671,-0.84,-0.21,2.61,0.27,0.17,-0.54,
3.672,-0.84,-0.21,2.61,0.28,0.16,-0.52,
3.672,-0.84,-0.21,2.61,0.28,0.16,-0.52,
3.673,-0.62,0.09,2.93,0.28,0.16,-0.52,
3.673,-0.62,0.09,2.93,0.29,0.15,-0.50,
3.674,-0.62,0.09,2.93,0.30,0.14,-0.49,
3.674,-0.62,0.09,2.93,0.31,0.13,-0.48,
3.674,-0.62,0.09,2.93,0.31,0.12,-0.47,
3.674,-0.62,0.09,2.93,0.32,0.11,-0.46,
3.675,-0.49,0.35,2.92,0.32,0.11,-0.46,
3.675,-0.49,0.35,2.92,0.32,0.10,-0.45,
3.675,-0.49,0.35,2.92,0.32,0.09,-0.44,
3.675,-0.49,0.35,2.92,0.32,0.08,-0.43,
3.684,-0.49,0.35,2.92,0.31,0.08,-0.42,
3.684,-0.49,0.35,2.92,0.30,0.08,-0.41,
3.684,-0.42,0.55,2.56,0.30,0.08,-0.41,
3.684,-0.42,0.55,2.56,0.29,0.07,-0.40,
3.685,-0.42,0.55,2.56,0.27,0.08,-0.39,
3.687,-0.42,0.55,2.56,0.25,0.08,-0.38,
3.687,-0.42,0.55,2.56,0.22,0.09,-0.37,
3.688,-0.42,0.55,2.56,0.19,0.09,-0.36,
3.7,-0.28,0.71,1.98,0.19,0.09,-0.36,
3.701,-0.28,0.71,1.98,0.16,0.10,-0.35,
3.701,-0.28,0.71,1.98,0.13,0.10,-0.35,
3.701,-0.28,0.71,1.98,0.10,0.11,-0.34,
3.701,-0.28,0.71,1.98,0.05,0.11,-0.34,
3.702,-0.28,0.71,1.98,0.01,0.12,-0.34,
3.702,-0.08,0.82,1.41,0.01,0.12,-0.34,
3.702,-0.08,0.82,1.41,-0.03,0.12,-0.34,
3.702,-0.08,0.82,1.41,-0.08,0.12,-0.34,
3.704,-0.08,0.82,1.41,-0.13,0.11,-0.35,
3.715,-0.08,0.82,1.41,-0.19,0.10,-0.35,
3.715,-0.08,0.82,1.41,-0.25,0.08,-0.36,
3.715,0.28,0.98,0.93,-0.25,0.08,-0.36,
3.716,0.28,0.98,0.93,-0.32,0.05,-0.37,
3.716,0.28,0.98,0.93,-0.39,0.02,-0.39,
3.716,0.28,0.98,0.93,-0.47,-0.02,-0.41,
3.718,0.28,0.98,0.93,-0.55,-0.06,-0.43,
3.718,0.28,0.98,0.93,-0.64,-0.11,-0.45,
3.723,0.78,1.18,0.61,-0.64,-0.11,-0.45,
3.723,0.78,1.18,0.61,-0.73,-0.17,-0.48,
3.723,0.78,1.18,0.61,-0.83,-0.22,-0.50,
3.743,0.78,1.18,0.61,-0.92,-0.29,-0.54,
3.744,0.78,1.18,0.61,-1.01,-0.34,-0.57,
3.744,0.78,1.18,0.61,-1.10,-0.40,-0.60,
3.745,1.31,1.19,1.39,-1.10,-0.40,-0.60,
3.745,1.31,1.19,1.39,-1.21,-0.47,-0.65,
3.745,1.31,1.19,1.39,-1.25,-0.49,-0.67,
3.745,1.31,1.19,1.39,-1.31,-0.53,-0.70,
3.746,1.31,1.19,1.39,-1.36,-0.57,-0.73,
3.747,1.31,1.19,1.39,-1.41,-0.60,-0.76,
3.748,1.48,0.77,3.59,-1.41,-0.60,-0.76,
3.748,1.48,0.77,3.59,-1.44,-0.62,-0.78,
3.749,1.48,0.77,3.59,-1.46,-0.63,-0.80,
3.749,1.48,0.77,3.59,-1.47,-0.64,-0.82,
3.75,1.48,0.77,3.59,-1.48,-0.65,-0.83,
3.75,1.48,0.77,3.59,-1.47,-0.64,-0.83,
3.758,1.24,-0.05,6.23,-1.47,-0.64,-0.83,
3.758,1.24,-0.05,6.23,-1.45,-0.62,-0.83,
3.759,1.24,-0.05,6.23,-1.43,-0.60,-0.83,
3.759,1.24,-0.05,6.23,-1.41,-0.57,-0.82,
3.76,1.24,-0.05,6.23,-1.37,-0.53,-0.80,
3.76,1.24,-0.05,6.23,-1.33,-0.48,-0.78,
3.763,0.73,-0.78,8.06,-1.33,-0.48,-0.78,
3.764,0.73,-0.78,8.06,-1.30,-0.42,-0.75,
3.764,0.73,-0.78,8.06,-1.25,-0.36,-0.72,
3.764,0.73,-0.78,8.06,-1.21,-0.29,-0.68,
3.766,0.73,-0.78,8.06,-1.17,-0.22,-0.64,
3.768,0.73,-0.78,8.06,-1.13,-0.14,-0.59,
3.774,0.12,-1.35,8.51,-1.13,-0.14,-0.59,
3.792,0.12,-1.35,8.51,-1.09,-0.06,-0.54,
3.792,0.12,-1.35,8.51,-1.04,0.01,-0.49,
3.792,0.12,-1.35,8.51,-1.00,0.09,-0.44,
3.792,0.12,-1.35,8.51,-0.96,0.16,-0.39,
3.792,0.12,-1.35,8.51,-0.92,0.22,-0.33,
3.793,-0.28,-1.45,7.86,-0.92,0.22,-0.33,
3.793,-0.28,-1.45,7.86,-0.88,0.28,-0.28,
3.793,-0.28,-1.45,7.86,-0.82,0.35,-0.20,
3.793,-0.28,-1.45,7.86,-0.79,0.37,-0.18,
3.793,-0.28,-1.45,7.86,-0.75,0.40,-0.13,
3.794,-0.28,-1.45,7.86,-0.70,0.43,-0.07,
3.794,-0.35,-1.25,6.81,-0.70,0.43,-0.07,
3.794,-0.35,-1.25,6.81,-0.65,0.44,-0.02,
3.794,-0.35,-1.25,6.81,-0.60,0.45,0.02,
3.796,-0.35,-1.25,6.81,-0.55,0.45,0.07,
3.796,-0.35,-1.25,6.81,-0.49,0.44,0.12,
3.798,-0.35,-1.25,6.81,-0.44,0.43,0.16,
3.801,-0.12,-0.89,5.57,-0.44,0.43,0.16,
3.801,-0.12,-0.89,5.57,-0.38,0.41,0.21,
3.802,-0.12,-0.89,5.57,-0.33,0.38,0.24,
3.804,-0.12,-0.89,5.57,-0.28,0.35,0.28,
3.807,-0.12,-0.89,5.57,-0.22,0.31,0.31,
3.808,-0.12,-0.89,5.57,-0.17,0.27,0.34,
3.811,0.37,-0.56,4.07,-0.17,0.27,0.34,
3.811,0.37,-0.56,4.07,-0.13,0.22,0.37,
3.812,0.37,-0.56,4.07,-0.08,0.16,0.39,
3.818,0.37,-0.56,4.07,-0.03,0.09,0.42,
3.818,0.37,-0.56,4.07,0.02,0.03,0.44,
3.819,0.37,-0.56,4.07,0.06,-0.04,0.46,
3.821,0.79,-0.21,2.41,0.06,-0.04,0.46,
3.821,0.79,-0.21,2.41,0.10,-0.11,0.47,
3.823,0.79,-0.21,2.41,0.14,-0.17,0.49,
3.825,0.79,-0.21,2.41,0.17,-0.24,0.50,
3.827,0.79,-0.21,2.41,0.20,-0.30,0.51,
3.828,0.79,-0.21,2.41,0.22,-0.37,0.52,
3.833,1.14,0.10,0.74,0.22,-0.37,0.52,
3.833,1.14,0.10,0.74,0.24,-0.43,0.52,
3.833,1.14,0.10,0.74,0.25,-0.48,0.53,
3.834,1.14,0.10,0.74,0.26,-0.53,0.53,
3.836,1.14,0.10,0.74,0.26,-0.57,0.53,
3.838,1.14,0.10,0.74,0.26,-0.61,0.53,
3.841,1.41,0.30,-0.80,0.26,-0.61,0.53,
3.841,1.41,0.30,-0.80,0.26,-0.64,0.52,
3.843,1.41,0.30,-0.80,0.26,-0.67,0.52,
3.847,1.41,0.30,-0.80,0.25,-0.68,0.51,
3.847,1.41,0.30,-0.80,0.24,-0.69,0.50,
3.848,1.41,0.30,-0.80,0.22,-0.69,0.49,
3.85,1.69,0.43,-1.91,0.22,-0.69,0.49,
3.851,1.69,0.43,-1.91,0.20,-0.68,0.49,
3.852,1.69,0.43,-1.91,0.19,-0.66,0.47,
3.854,1.69,0.43,-1.91,0.17,-0.64,0.46,
3.871,1.69,0.43,-1.91,0.15,-0.61,0.45,
3.871,1.69,0.43,-1.91,0.13,-0.57,0.43,
3.872,1.77,0.41,-2.54,0.13,-0.57,0.43,
3.872,1.77,0.41,-2.54,0.11,-0.53,0.42,
3.872,1.77,0.41,-2.54,0.09,-0.49,0.40,
3.872,1.77,0.41,-2.54,0.07,-0.44,0.38,
3.872,1.77,0.41,-2.54,0.05,-0.38,0.37,
3.872,1.77,0.41,-2.54,0.02,-0.33,0.35,
3.873,1.76,0.43,-2.98,0.02,-0.33,0.35,
3.873,1.76,0.43,-2.98,0.00,-0.27,0.33,
3.873,1.76,0.43,-2.98,-0.02,-0.21,0.31,
3.895,1.76,0.43,-2.98,-0.03,-0.15,0.30,
3.896,1.76,0.43,-2.98,-0.06,-0.09,0.28,
3.896,1.76,0.43,-2.98,-0.08,-0.03,0.26,
3.897,1.50,0.39,-3.33,-0.08,-0.03,0.26,
3.897,1.50,0.39,-3.33,-0.10,0.03,0.24,
3.897,1.50,0.39,-3.33,-0.13,0.09,0.22,
3.897,1.50,0.39,-3.33,-0.14,0.14,0.21,
3.898,1.50,0.39,-3.33,-0.16,0.20,0.19,
3.898,1.50,0.39,-3.33,-0.18,0.25,0.17,
3.898,1.32,0.41,-3.64,-0.18,0.25,0.17,
3.899,1.32,0.41,-3.64,-0.20,0.29,0.15,
3.899,1.32,0.41,-3.64,-0.21,0.33,0.13,
3.899,1.32,0.41,-3.64,-0.22,0.37,0.11,
3.899,1.32,0.41,-3.64,-0.24,0.40,0.09,
3.9,1.32,0.41,-3.64,-0.24,0.43,0.07,
3.901,1.03,0.36,-3.75,-0.24,0.43,0.07,
3.901,1.03,0.36,-3.75,-0.25,0.45,0.05,
3.903,1.03,0.36,-3.75,-0.26,0.47,0.03,
3.905,1.03,0.36,-3.75,-0.26,0.48,0.01,
3.911,1.03,0.36,-3.75,-0.27,0.49,-0.01,
3.911,1.03,0.36,-3.75,-0.27,0.50,-0.03,
3.912,0.74,0.39,-3.72,-0.27,0.50,-0.03,
3.913,0.74,0.39,-3.72,-0.27,0.50,-0.04,
3.914,0.74,0.39,-3.72,-0.27,0.50,-0.06,
3.915,0.74,0.39,-3.72,-0.26,0.49,-0.07,
3.916,0.74,0.39,-3.72,-0.26,0.49,-0.09,
3.919,0.74,0.39,-3.72,-0.26,0.48,-0.11,
3.921,0.35,0.27,-3.62,-0.26,0.48,-0.11,
3.922,0.35,0.27,-3.62,-0.24,0.47,-0.12,
3.923,0.35,0.27,-3.62,-0.23,0.46,-0.13,
3.928,0.35,0.27,-3.62,-0.22,0.44,-0.14,
3.929,0.35,0.27,-3.62,-0.21,0.43,-0.15,
3.929,0.35,0.27,-3.62,-0.20,0.42,-0.16,
3.931,-0.05,0.12,-3.45,-0.20,0.42,-0.16,
3.931,-0.05,0.12,-3.45,-0.18,0.40,-0.16,
3.933,-0.05,0.12,-3.45,-0.17,0.38,-0.17,
3.935,-0.05,0.12,-3.45,-0.15,0.37,-0.17,
3.937,-0.05,0.12,-3.45,-0.13,0.36,-0.17,
3.972,-0.05,0.12,-3.45,-0.12,0.35,-0.18,
3.972,-0.51,-0.12,-3.21,-0.12,0.35,-0.18,
3.973,-0.51,-0.12,-3.21,-0.10,0.34,-0.18,
3.973,-0.51,-0.12,-3.21,-0.07,0.33,-0.17,
3.974,-0.51,-0.12,-3.21,-0.05,0.32,-0.17,
3.974,-0.51,-0.12,-3.21,-0.03,0.31,-0.17,
3.974,-0.51,-0.12,-3.21,0.00,0.30,-0.16,
3.975,-0.89,-0.34,-3.03,0.00,0.30,-0.16,
3.975,-0.89,-0.34,-3.03,0.02,0.30,-0.16,
3.976,-0.89,-0.34,-3.03,0.04,0.29,-0.15,
3.976,-0.89,-0.34,-3.03,0.06,0.29,-0.14,
3.976,-0.89,-0.34,-3.03,0.08,0.28,-0.13,
3.977,-0.89,-0.34,-3.03,0.10,0.28,-0.13,
3.977,-1.13,-0.55,-3.03,0.10,0.28,-0.13,
3.978,-1.13,-0.55,-3.03,0.12,0.27,-0.12,
3.978,-1.13,-0.55,-3.03,0.14,0.27,-0.11,
3.979,-1.13,-0.55,-3.03,0.15,0.27,-0.10,
3.979,-1.13,-0.55,-3.03,0.17,0.27,-0.10,
3.979,-1.13,-0.55,-3.03,0.18,0.27,-0.09,
3.98,-1.23,-0.68,-3.13,0.18,0.27,-0.09,
3.98,-1.23,-0.68,-3.13,0.20,0.28,-0.09,
3.981,-1.23,-0.68,-3.13,0.21,0.28,-0.08,
3.981,-1.23,-0.68,-3.13,0.22,0.29,-0.08,
3.982,-1.23,-0.68,-3.13,0.23,0.29,-0.07,
3.982,-1.23,-0.68,-3.13,0.24,0.30,-0.07,
3.982,-1.22,-0.80,-3.15,0.24,0.30,-0.07,
3.983,-1.22,-0.80,-3.15,0.25,0.30,-0.06,
3.983,-1.22,-0.80,-3.15,0.26,0.31,-0.06,
3.993,-1.22,-0.80,-3.15,0.27,0.31,-0.05,
3.994,-1.22,-0.80,-3.15,0.27,0.32,-0.05,
3.994,-1.22,-0.80,-3.15,0.28,0.32,-0.05,
3.994,-1.19,-0.91,-3.09,0.28,0.32,-0.05,
3.994,-1.19,-0.91,-3.09,0.29,0.32,-0.04,
3.995,-1.19,-0.91,-3.09,0.29,0.32,-0.04,
3.995,-1.19,-0.91,-3.09,0.30,0.32,-0.03,
3.996,-1.19,-0.91,-3.09,0.30,0.32,-0.02,
3.998,-1.19,-0.91,-3.09,0.31,0.33,-0.02,
4.0,-1.21,-1.06,-2.96,0.31,0.33,-0.02,
4.001,-1.21,-1.06,-2.96,0.31,0.33,-0.01,
4.002,-1.21,-1.06,-2.96,0.32,0.33,-0.00,
4.004,-1.21,-1.06,-2.96,0.32,0.33,0.01,
4.007,-1.21,-1.06,-2.96,0.33,0.33,0.02,
4.009,-1.21,-1.06,-2.96,0.34,0.33,0.03,
4.011,-1.21,-1.25,-2.63,0.34,0.33,0.03,
4.011,-1.21,-1.25,-2.63,0.35,0.33,0.04,
4.012,-1.21,-1.25,-2.63,0.35,0.33,0.05,
4.014,-1.21,-1.25,-2.63,0.37,0.32,0.06,
4.016,-1.21,-1.25,-2.63,0.38,0.32,0.07,
4.018,-1.21,-1.25,-2.63,0.39,0.32,0.08,
4.021,-1.15,-1.26,-2.09,0.39,0.32,0.08,
4.021,-1.15,-1.26,-2.09,0.41,0.32,0.08,
4.029,-1.15,-1.26,-2.09,0.43,0.31,0.09,
4.03,-1.15,-1.26,-2.09,0.46,0.31,0.10,
4.03,-1.15,-1.26,-2.09,0.48,0.31,0.12,
4.031,-1.15,-1.26,-2.09,0.51,0.30,0.13,
4.031,-1.15,-1.34,-1.41,0.51,0.30,0.13,
4.031,-1.15,-1.34,-1.41,0.54,0.30,0.14,
4.032,-1.15,-1.34,-1.41,0.57,0.30,0.15,
4.035,-1.15,-1.34,-1.41,0.60,0.30,0.17,
4.065,-1.15,-1.34,-1.41,0.64,0.30,0.18,
4.067,-1.15,-1.34,-1.41,0.66,0.30,0.19,
4.067,-1.11,-1.37,-1.00,0.66,0.30,0.19,
4.068,-1.11,-1.37,-1.00,0.69,0.29,0.21,
4.069,-1.11,-1.37,-1.00,0.72,0.29,0.23,
4.069,-1.11,-1.37,-1.00,0.74,0.29,0.24,
4.069,-1.11,-1.37,-1.00,0.77,0.29,0.26,
4.07,-1.11,-1.37,-1.00,0.80,0.29,0.28,
4.071,-1.16,-1.40,-0.98,0.80,0.29,0.28,
4.072,-1.16,-1.40,-0.98,0.82,0.28,0.29,
4.072,-1.16,-1.40,-0.98,0.84,0.28,0.31,
4.074,-1.16,-1.40,-0.98,0.86,0.27,0.33,
4.075,-1.16,-1.40,-0.98,0.88,0.26,0.35,
4.075,-1.16,-1.40,-0.98,0.89,0.25,0.37,
4.075,-1.19,-1.34,-1.29,0.89,0.25,0.37,
4.075,-1.19,-1.34,-1.29,0.90,0.24,0.39,
4.075,-1.19,-1.34,-1.29,0.91,0.23,0.42,
4.076,-1.19,-1.34,-1.29,0.91,0.22,0.44,
4.076,-1.19,-1.34,-1.29,0.91,0.20,0.46,
4.076,-1.19,-1.34,-1.29,0.91,0.19,0.48,
4.076,-1.04,-1.27,-1.66,0.91,0.19,0.48,
4.078,-1.04,-1.27,-1.66,0.91,0.18,0.49,
4.079,-1.04,-1.27,-1.66,0.90,0.16,0.51,
4.079,-1.04,-1.27,-1.66,0.89,0.15,0.52,
4.079,-1.04,-1.27,-1.66,0.89,0.13,0.54,
4.079,-1.04,-1.27,-1.66,0.88,0.12,0.54,
4.082,-0.71,-1.05,-1.72,0.88,0.12,0.54,
4.083,-0.71,-1.05,-1.72,0.88,0.09,0.56,
4.083,-0.71,-1.05,-1.72,0.88,0.08,0.56,
4.084,-0.71,-1.05,-1.72,0.86,0.06,0.57,
4.087,-0.71,-1.05,-1.72,0.86,0.03,0.58,
4.093,-0.71,-1.05,-1.72,0.86,0.00,0.58,
4.094,-0.31,-0.90,-1.44,0.86,0.00,0.58,
4.094,-0.31,-0.90,-1.44,0.85,-0.02,0.59,
4.094,-0.31,-0.90,-1.44,0.85,-0.05,0.59,
4.095,-0.31,-0.90,-1.44,0.84,-0.08,0.59,
4.097,-0.31,-0.90,-1.44,0.84,-0.11,0.59,
4.099,-0.31,-0.90,-1.44,0.83,-0.14,0.59,
4.101,0.15,-0.79,-1.16,0.83,-0.14,0.59,
4.101,0.15,-0.79,-1.16,0.82,-0.16,0.59,
4.102,0.15,-0.79,-1.16,0.80,-0.19,0.58,
4.123,0.15,-0.79,-1.16,0.79,-0.22,0.58,
4.124,0.15,-0.79,-1.16,0.77,-0.24,0.57,
4.124,0.15,-0.79,-1.16,0.76,-0.26,0.56,
4.124,0.59,-0.67,-0.90,0.76,-0.26,0.56,
4.124,0.59,-0.67,-0.90,0.74,-0.28,0.55,
4.124,0.59,-0.67,-0.90,0.73,-0.30,0.54,
4.125,0.59,-0.67,-0.90,0.71,-0.31,0.52,
4.125,0.59,-0.67,-0.90,0.69,-0.32,0.51,
4.125,0.59,-0.67,-0.90,0.68,-0.34,0.50,
4.125,0.98,-0.56,-0.44,0.68,-0.34,0.50,
4.125,0.98,-0.56,-0.44,0.66,-0.35,0.48,
4.126,0.98,-0.56,-0.44,0.65,-0.36,0.47,
4.126,0.98,-0.56,-0.44,0.64,-0.36,0.45,
4.134,0.98,-0.56,-0.44,0.63,-0.37,0.43,
4.134,0.98,-0.56,-0.44,0.62,-0.37,0.42,
4.134,1.40,-0.53,0.22,0.62,-0.37,0.42,
4.135,1.40,-0.53,0.22,0.61,-0.37,0.40,
4.135,1.40,-0.53,0.22,0.60,-0.37,0.38,
4.135,1.40,-0.53,0.22,0.60,-0.36,0.36,
4.137,1.40,-0.53,0.22,0.60,-0.35,0.34,
4.156,1.40,-0.53,0.22,0.60,-0.33,0.32,
4.156,1.59,-0.48,0.93,0.60,-0.33,0.32,
4.156,1.59,-0.48,0.93,0.60,-0.31,0.31,
4.156,1.59,-0.48,0.93,0.61,-0.29,0.29,
4.157,1.59,-0.48,0.93,0.61,-0.26,0.28,
4.157,1.59,-0.48,0.93,0.62,-0.23,0.27,
4.157,1.59,-0.48,0.93,0.63,-0.20,0.26,
4.157,1.58,-0.51,1.50,0.63,-0.20,0.26,
4.157,1.58,-0.51,1.50,0.64,-0.17,0.25,
4.157,1.58,-0.51,1.50,0.66,-0.13,0.24,
4.158,1.58,-0.51,1.50,0.67,-0.09,0.23,
4.159,1.58,-0.51,1.50,0.69,-0.05,0.23,
4.161,1.58,-0.51,1.50,0.72,0.03,0.22,
4.162,1.58,-0.51,1.50,0.72,0.03,0.22,
4.163,1.31,-0.52,1.72,0.72,0.03,0.22,
4.163,1.31,-0.52,1.72,0.74,0.09,0.22,
4.164,1.31,-0.52,1.72,0.75,0.11,0.22,
4.167,1.31,-0.52,1.72,0.76,0.15,0.22,
4.168,1.31,-0.52,1.72,0.77,0.18,0.22,
4.171,1.09,-0.45,1.41,0.77,0.18,0.22,
4.171,1.09,-0.45,1.41,0.77,0.22,0.22,
4.173,1.09,-0.45,1.41,0.78,0.26,0.22,
4.175,1.09,-0.45,1.41,0.79,0.29,0.22,
4.177,1.09,-0.45,1.41,0.79,0.32,0.23,
4.18,1.09,-0.45,1.41,0.78,0.34,0.23,
4.181,0.72,-0.30,0.80,0.78,0.34,0.23,
4.182,0.72,-0.30,0.80,0.78,0.37,0.24,
4.183,0.72,-0.30,0.80,0.77,0.38,0.24,
4.185,0.72,-0.30,0.80,0.76,0.40,0.25,
4.187,0.72,-0.30,0.80,0.76,0.41,0.25,
4.189,0.72,-0.30,0.80,0.74,0.42,0.26,
4.192,0.37,-0.21,0.21,0.74,0.42,0.26,
4.192,0.37,-0.21,0.21,0.72,0.42,0.26,
4.193,0.37,-0.21,0.21,0.71,0.42,0.27,
4.195,0.37,-0.21,0.21,0.69,0.42,0.27,
4.197,0.37,-0.21,0.21,0.67,0.42,0.28,
4.198,0.37,-0.21,0.21,0.64,0.41,0.28,
4.201,0.22,-0.11,-0.18,0.64,0.41,0.28,
4.201,0.22,-0.11,-0.18,0.62,0.40,0.29,
4.202,0.22,-0.11,-0.18,0.59,0.38,0.29,
4.205,0.22,-0.11,-0.18,0.56,0.37,0.29,
4.207,0.22,-0.11,-0.18,0.53,0.35,0.29,
4.209,0.22,-0.11,-0.18,0.51,0.32,0.30,
4.211,0.03,0.06,-0.16,0.51,0.32,0.30,
4.212,0.03,0.06,-0.16,0.48,0.29,0.30,
4.212,0.03,0.06,-0.16,0.45,0.27,0.30,
4.214,0.03,0.06,-0.16,0.43,0.24,0.30,
4.216,0.03,0.06,-0.16,0.40,0.21,0.30,
4.218,0.03,0.06,-0.16,0.38,0.18,0.31,
4.222,-0.21,0.22,0.43,0.38,0.18,0.31,
4.225,-0.21,0.22,0.43,0.36,0.15,0.31,
4.226,-0.21,0.22,0.43,0.34,0.12,0.31,
4.227,-0.21,0.22,0.43,0.32,0.10,0.31,
4.228,-0.21,0.22,0.43,0.31,0.07,0.31,
4.228,-0.21,0.22,0.43,0.29,0.05,0.32,
4.231,-0.38,0.20,1.17,0.29,0.05,0.32,
4.232,-0.38,0.20,1.17,0.28,0.04,0.32,
4.233,-0.38,0.20,1.17,0.26,0.02,0.32,
4.235,-0.38,0.20,1.17,0.25,0.00,0.32,
4.236,-0.38,0.20,1.17,0.23,-0.01,0.32,
4.239,-0.38,0.20,1.17,0.21,-0.02,0.33,
4.241,-0.54,0.13,1.57,0.21,-0.02,0.33,
4.242,-0.54,0.13,1.57,0.20,-0.03,0.33,
4.243,-0.54,0.13,1.57,0.18,-0.04,0.34,
4.244,-0.54,0.13,1.57,0.15,-0.05,0.34,
4.247,-0.54,0.13,1.57,0.13,-0.07,0.34,
4.249,-0.54,0.13,1.57,0.10,-0.07,0.35,
4.251,-0.52,-0.01,1.50,0.10,-0.07,0.35,
4.251,-0.52,-0.01,1.50,0.07,-0.09,0.35,
4.252,-0.52,-0.01,1.50,0.03,-0.10,0.35,
4.268,-0.52,-0.01,1.50,-0.01,-0.11,0.35,
4.269,-0.52,-0.01,1.50,-0.06,-0.13,0.35,
4.27,-0.52,-0.01,1.50,-0.11,-0.14,0.35,
4.27,-0.28,-0.02,1.10,-0.11,-0.14,0.35,
4.271,-0.28,-0.02,1.10,-0.17,-0.16,0.34,
4.271,-0.28,-0.02,1.10,-0.24,-0.18,0.33,
4.272,-0.28,-0.02,1.10,-0.31,-0.19,0.32,
4.272,-0.28,-0.02,1.10,-0.39,-0.21,0.31,
4.273,-0.28,-0.02,1.10,-0.47,-0.23,0.29,
4.274,0.10,0.13,0.84,-0.47,-0.23,0.29,
4.298,0.10,0.13,0.84,-0.55,-0.25,0.27,
4.298,0.10,0.13,0.84,-0.63,-0.27,0.26,
4.299,0.10,0.13,0.84,-0.71,-0.29,0.23,
4.299,0.10,0.13,0.84,-0.80,-0.30,0.21,
4.299,0.10,0.13,0.84,-0.89,-0.31,0.18,
4.299,0.48,0.26,1.29,-0.89,-0.31,0.18,
4.3,0.48,0.26,1.29,-0.97,-0.32,0.15,
4.3,0.48,0.26,1.29,-1.04,-0.32,0.12,
4.3,0.48,0.26,1.29,-1.12,-0.32,0.09,
4.3,0.48,0.26,1.29,-1.19,-0.32,0.06,
4.301,0.48,0.26,1.29,-1.25,-0.30,0.03,
4.301,0.71,0.21,2.48,-1.25,-0.30,0.03,
4.301,0.71,0.21,2.48,-1.32,-0.29,0.00,
4.302,0.71,0.21,2.48,-1.37,-0.27,-0.03,
4.302,0.71,0.21,2.48,-1.42,-0.25,-0.06,
4.302,0.71,0.21,2.48,-1.47,-0.23,-0.08,
4.302,0.71,0.21,2.48,-1.51,-0.20,-0.11,
4.303,0.62,0.02,3.87,-1.51,-0.20,-0.11,
4.303,0.62,0.02,3.87,-1.54,-0.18,-0.13,
4.303,0.62,0.02,3.87,-1.57,-0.15,-0.15,
4.309,0.62,0.02,3.87,-1.59,-0.12,-0.16,
4.31,0.62,0.02,3.87,-1.60,-0.09,-0.17,
4.31,0.62,0.02,3.87,-1.61,-0.06,-0.18,
4.311,0.16,-0.32,5.37,-1.61,-0.06,-0.18,
4.311,0.16,-0.32,5.37,-1.61,-0.03,-0.19,
4.312,0.16,-0.32,5.37,-1.60,0.01,-0.19,
4.315,0.16,-0.32,5.37,-1.59,0.04,-0.18,
4.316,0.16,-0.32,5.37,-1.57,0.08,-0.17,
4.318,0.16,-0.32,5.37,-1.55,0.12,-0.16,
4.322,-0.43,-0.64,6.45,-1.55,0.12,-0.16,
4.322,-0.43,-0.64,6.45,-1.52,0.16,-0.14,
4.322,-0.43,-0.64,6.45,-1.48,0.19,-0.12,
4.325,-0.43,-0.64,6.45,-1.44,0.23,-0.09,
4.326,-0.43,-0.64,6.45,-1.40,0.26,-0.06,
4.329,-0.43,-0.64,6.45,-1.36,0.30,-0.03,
4.331,-1.01,-0.95,6.80,-1.36,0.30,-0.03,
4.331,-1.01,-0.95,6.80,-1.31,0.32,0.00,
4.334,-1.01,-0.95,6.80,-1.26,0.34,0.04,
4.335,-1.01,-0.95,6.80,-1.21,0.36,0.08,
4.336,-1.01,-0.95,6.80,-1.16,0.37,0.12,
4.339,-1.01,-0.95,6.80,-1.11,0.38,0.15,
4.341,-1.22,-0.89,6.21,-1.11,0.38,0.15,
4.341,-1.22,-0.89,6.21,-1.05,0.37,0.19,
4.343,-1.22,-0.89,6.21,-1.00,0.36,0.23,
4.344,-1.22,-0.89,6.21,-0.94,0.34,0.26,
4.346,-1.22,-0.89,6.21,-0.89,0.32,0.30,
4.348,-1.22,-0.89,6.21,-0.84,0.29,0.33,
4.35,-1.05,-0.57,4.94,-0.84,0.29,0.33,
4.351,-1.05,-0.57,4.94,-0.79,0.26,0.36,
4.352,-1.05,-0.57,4.94,-0.75,0.22,0.38,
4.355,-1.05,-0.57,4.94,-0.70,0.18,0.41,
4.357,-1.05,-0.57,4.94,-0.65,0.13,0.43,
4.359,-1.05,-0.57,4.94,-0.61,0.08,0.45,
4.361,-0.49,-0.15,3.49,-0.61,0.08,0.45,
4.362,-0.49,-0.15,3.49,-0.56,0.04,0.46,
4.362,-0.49,-0.15,3.49,-0.52,-0.02,0.48,
4.365,-0.49,-0.15,3.49,-0.48,-0.07,0.49,
4.366,-0.49,-0.15,3.49,-0.44,-0.13,0.50,
4.368,-0.49,-0.15,3.49,-0.40,-0.18,0.51,
4.374,0.12,0.15,2.08,-0.40,-0.18,0.51,
4.375,0.12,0.15,2.08,-0.36,-0.23,0.51,
4.375,0.12,0.15,2.08,-0.33,-0.29,0.51,
4.375,0.12,0.15,2.08,-0.30,-0.34,0.52,
4.378,0.12,0.15,2.08,-0.27,-0.39,0.52,
4.378,0.12,0.15,2.08,-0.25,-0.43,0.52,
4.381,0.54,0.46,0.65,-0.25,-0.43,0.52,
4.381,0.54,0.46,0.65,-0.23,-0.48,0.51,
4.382,0.54,0.46,0.65,-0.22,-0.52,0.51,
4.384,0.54,0.46,0.65,-0.21,-0.55,0.51,
4.387,0.54,0.46,0.65,-0.20,-0.58,0.50,
4.389,0.54,0.46,0.65,-0.20,-0.61,0.49,
4.391,0.94,0.69,-0.74,-0.20,-0.61,0.49,
4.391,0.94,0.69,-0.74,-0.21,-0.63,0.48,
4.393,0.94,0.69,-0.74,-0.21,-0.64,0.47,
4.395,0.94,0.69,-0.74,-0.22,-0.65,0.46,
4.396,0.94,0.69,-0.74,-0.23,-0.65,0.45,
4.399,0.94,0.69,-0.74,-0.25,-0.65,0.44,
4.401,1.12,0.76,-1.69,-0.25,-0.65,0.44,
4.401,1.12,0.76,-1.69,-0.26,-0.63,0.42,
4.403,1.12,0.76,-1.69,-0.28,-0.61,0.41,
4.41,1.12,0.76,-1.69,-0.29,-0.59,0.40,
4.411,1.12,0.76,-1.69,-0.31,-0.56,0.39,
4.411,1.12,0.76,-1.69,-0.33,-0.52,0.37,
4.411,1.25,0.81,-2.20,-0.33,-0.52,0.37,
4.411,1.25,0.81,-2.20,-0.34,-0.49,0.36,
4.412,1.25,0.81,-2.20,-0.36,-0.45,0.35,
4.419,1.25,0.81,-2.20,-0.37,-0.40,0.34,
4.434,1.25,0.81,-2.20,-0.39,-0.35,0.32,
4.435,1.25,0.81,-2.20,-0.41,-0.30,0.31,
4.435,1.26,0.77,-2.38,-0.41,-0.30,0.31,
4.435,1.26,0.77,-2.38,-0.42,-0.25,0.29,
4.435,1.26,0.77,-2.38,-0.44,-0.17,0.27,
4.436,1.26,0.77,-2.38,-0.44,-0.11,0.26,
4.436,1.26,0.77,-2.38,-0.45,-0.06,0.25,
4.436,1.26,0.77,-2.38,-0.45,-0.01,0.23,
4.437,1.28,0.80,-2.41,-0.45,-0.01,0.23,
4.437,1.28,0.80,-2.41,-0.45,0.04,0.22,
4.437,1.28,0.80,-2.41,-0.45,0.10,0.20,
4.437,1.28,0.80,-2.41,-0.45,0.12,0.19,
4.438,1.28,0.80,-2.41,-0.44,0.19,0.17,
4.462,1.28,0.80,-2.41,-0.44,0.22,0.16,
4.462,1.16,0.72,-2.42,-0.44,0.22,0.16,
4.462,1.16,0.72,-2.42,-0.43,0.26,0.15,
4.463,1.16,0.72,-2.42,-0.42,0.31,0.14,
4.463,1.16,0.72,-2.42,-0.41,0.35,0.12,
4.463,1.16,0.72,-2.42,-0.39,0.40,0.11,
4.463,1.16,0.72,-2.42,-0.38,0.42,0.10,
4.464,0.99,0.64,-2.54,-0.38,0.42,0.10,
4.464,0.99,0.64,-2.54,-0.36,0.45,0.09,
4.464,0.99,0.64,-2.54,-0.34,0.47,0.08,
4.465,0.99,0.64,-2.54,-0.33,0.49,0.07,
4.465,0.99,0.64,-2.54,-0.29,0.51,0.06,
4.465,0.99,0.64,-2.54,-0.28,0.52,0.06,
4.465,0.64,0.52,-2.73,-0.28,0.52,0.06,
4.466,0.64,0.52,-2.73,-0.26,0.52,0.06,
4.466,0.64,0.52,-2.73,-0.23,0.52,0.05,
4.466,0.64,0.52,-2.73,-0.20,0.51,0.05,
4.467,0.64,0.52,-2.73,-0.16,0.50,0.04,
4.471,0.64,0.52,-2.73,-0.15,0.49,0.04,
4.471,0.37,0.48,-2.97,-0.15,0.49,0.04,
4.471,0.37,0.48,-2.97,-0.12,0.48,0.04,
4.473,0.37,0.48,-2.97,-0.09,0.46,0.04,
4.474,0.37,0.48,-2.97,-0.06,0.44,0.04,
4.476,0.37,0.48,-2.97,0.01,0.41,0.04,
4.478,0.37,0.48,-2.97,0.02,0.41,0.03,
4.481,0.13,0.40,-3.15,0.02,0.41,0.03,
4.482,0.13,0.40,-3.15,0.05,0.37,0.03,
4.482,0.13,0.40,-3.15,0.07,0.36,0.03,
4.487,0.13,0.40,-3.15,0.11,0.33,0.03,
4.488,0.13,0.40,-3.15,0.15,0.30,0.03,
4.488,0.13,0.40,-3.15,0.17,0.29,0.03,
4.491,-0.04,0.34,-3.42,0.17,0.29,0.03,
4.491,-0.04,0.34,-3.42,0.22,0.24,0.04,
4.492,-0.04,0.34,-3.42,0.23,0.23,0.03,
4.494,-0.04,0.34,-3.42,0.26,0.20,0.03,
4.496,-0.04,0.34,-3.42,0.30,0.16,0.03,
4.498,-0.04,0.34,-3.42,0.31,0.14,0.03,
4.5,-0.13,0.21,-3.71,0.31,0.14,0.03,
4.501,-0.13,0.21,-3.71,0.35,0.10,0.03,
4.502,-0.13,0.21,-3.71,0.36,0.08,0.03,
4.505,-0.13,0.21,-3.71,0.38,0.06,0.02,
4.507,-0.13,0.21,-3.71,0.40,0.03,0.02,
4.514,-0.13,0.21,-3.71,0.41,0.02,0.01,
4.515,-0.15,0.19,-3.99,0.41,0.02,0.01,
4.515,-0.15,0.19,-3.99,0.44,-0.01,0.01,
4.515,-0.15,0.19,-3.99,0.45,-0.02,0.01,
4.516,-0.15,0.19,-3.99,0.46,-0.04,-0.00,
4.516,-0.15,0.19,-3.99,0.47,-0.06,-0.02,
4.518,-0.15,0.19,-3.99,0.47,-0.06,-0.02,
4.529,-0.10,0.09,-4.22,0.47,-0.06,-0.02,
4.529,-0.10,0.09,-4.22,0.48,-0.08,-0.03,
4.529,-0.10,0.09,-4.22,0.47,-0.10,-0.04,
4.53,-0.10,0.09,-4.22,0.48,-0.12,-0.06,
4.53,-0.10,0.09,-4.22,0.47,-0.14,-0.07,
4.53,-0.10,0.09,-4.22,0.46,-0.15,-0.08,
4.535,-0.15,0.05,-4.25,0.46,-0.15,-0.08,
4.536,-0.15,0.05,-4.25,0.45,-0.16,-0.09,
4.545,-0.15,0.05,-4.25,0.45,-0.18,-0.09,
4.546,-0.15,0.05,-4.25,0.44,-0.18,-0.10,
4.546,-0.15,0.05,-4.25,0.44,-0.19,-0.11,
4.546,-0.15,0.05,-4.25,0.43,-0.20,-0.11,
4.547,-0.34,-0.04,-3.70,0.43,-0.20,-0.11,
4.547,-0.34,-0.04,-3.70,0.43,-0.21,-0.12,
4.547,-0.34,-0.04,-3.70,0.42,-0.21,-0.13,
4.547,-0.34,-0.04,-3.70,0.42,-0.22,-0.13,
4.547,-0.34,-0.04,-3.70,0.41,-0.22,-0.14,
4.548,-0.34,-0.04,-3.70,0.41,-0.22,-0.15,
4.551,-0.37,-0.13,-2.97,0.41,-0.22,-0.15,
4.551,-0.37,-0.13,-2.97,0.42,-0.22,-0.15,
4.552,-0.37,-0.13,-2.97,0.42,-0.23,-0.16,
4.554,-0.37,-0.13,-2.97,0.42,-0.23,-0.16,
4.558,-0.37,-0.13,-2.97,0.43,-0.24,-0.17,
4.559,-0.37,-0.13,-2.97,0.44,-0.24,-0.17,
4.561,-0.37,-0.14,-2.11,0.44,-0.24,-0.17,
4.561,-0.37,-0.14,-2.11,0.45,-0.25,-0.18,
4.562,-0.37,-0.14,-2.11,0.46,-0.25,-0.19,
4.565,-0.37,-0.14,-2.11,0.48,-0.26,-0.20,
4.567,-0.37,-0.14,-2.11,0.50,-0.27,-0.20,
4.569,-0.37,-0.14,-2.11,0.52,-0.28,-0.21,
4.571,-0.31,-0.06,-1.22,0.52,-0.28,-0.21,
4.573,-0.31,-0.06,-1.22,0.55,-0.30,-0.22,
4.574,-0.31,-0.06,-1.22,0.57,-0.31,-0.23,
4.575,-0.31,-0.06,-1.22,0.60,-0.32,-0.24,
4.577,-0.31,-0.06,-1.22,0.63,-0.33,-0.26,
4.579,-0.31,-0.06,-1.22,0.66,-0.34,-0.27,
4.581,-0.16,-0.04,-0.49,0.66,-0.34,-0.27,
4.581,-0.16,-0.04,-0.49,0.69,-0.35,-0.28,
4.582,-0.16,-0.04,-0.49,0.72,-0.36,-0.29,
4.585,-0.16,-0.04,-0.49,0.75,-0.37,-0.30,
4.588,-0.16,-0.04,-0.49,0.78,-0.38,-0.32,
4.589,-0.16,-0.04,-0.49,0.81,-0.38,-0.33,
4.591,-0.01,-0.11,-0.19,0.81,-0.38,-0.33,
4.592,-0.01,-0.11,-0.19,0.83,-0.39,-0.35,
4.593,-0.01,-0.11,-0.19,0.85,-0.40,-0.36,
4.594,-0.01,-0.11,-0.19,0.88,-0.41,-0.38,
4.596,-0.01,-0.11,-0.19,0.90,-0.42,-0.40,
4.598,-0.01,-0.11,-0.19,0.91,-0.43,-0.42,
4.601,0.09,-0.12,-0.31,0.91,-0.43,-0.42,
4.601,0.09,-0.12,-0.31,0.92,-0.44,-0.43,
4.603,0.09,-0.12,-0.31,0.93,-0.45,-0.45,
4.623,0.09,-0.12,-0.31,0.93,-0.46,-0.47,
4.623,0.09,-0.12,-0.31,0.92,-0.47,-0.49,
4.623,0.09,-0.12,-0.31,0.91,-0.48,-0.51,
4.624,0.14,0.03,-0.70,0.91,-0.48,-0.51,
4.624,0.14,0.03,-0.70,0.91,-0.49,-0.53,
4.624,0.14,0.03,-0.70,0.89,-0.50,-0.55,
4.624,0.14,0.03,-0.70,0.88,-0.50,-0.57,
4.625,0.14,0.03,-0.70,0.86,-0.50,-0.60,
4.625,0.14,0.03,-0.70,0.83,-0.49,-0.62,
4.625,0.20,0.06,-0.90,0.83,-0.49,-0.62,
4.626,0.20,0.06,-0.90,0.81,-0.48,-0.64,
4.626,0.20,0.06,-0.90,0.78,-0.47,-0.66,
4.626,0.20,0.06,-0.90,0.75,-0.46,-0.69,
4.626,0.20,0.06,-0.90,0.72,-0.45,-0.71,
4.628,0.20,0.06,-0.90,0.68,-0.43,-0.74,
4.632,0.34,0.07,-0.89,0.68,-0.43,-0.74,
4.632,0.34,0.07,-0.89,0.64,-0.40,-0.77,
4.632,0.34,0.07,-0.89,0.61,-0.38,-0.79,
4.635,0.34,0.07,-0.89,0.57,-0.35,-0.82,
4.637,0.34,0.07,-0.89,0.54,-0.33,-0.84,
4.639,0.34,0.07,-0.89,0.51,-0.30,-0.87,
4.641,0.23,0.12,-0.47,0.51,-0.30,-0.87,
4.641,0.23,0.12,-0.47,0.48,-0.27,-0.89,
4.642,0.23,0.12,-0.47,0.45,-0.23,-0.91,
4.645,0.23,0.12,-0.47,0.43,-0.20,-0.93,
4.646,0.23,0.12,-0.47,0.40,-0.17,-0.95,
4.648,0.23,0.12,-0.47,0.38,-0.14,-0.96,
4.651,-0.04,0.14,0.15,0.38,-0.14,-0.96,
4.651,-0.04,0.14,0.15,0.36,-0.11,-0.98,
4.652,-0.04,0.14,0.15,0.35,-0.08,-0.99,
4.654,-0.04,0.14,0.15,0.33,-0.05,-1.00,
4.659,-0.04,0.14,0.15,0.30,0.02,-1.02,
4.659,-0.04,0.14,0.15,0.30,0.02,-1.02,
4.661,-0.47,0.10,0.67,0.30,0.02,-1.02,
4.661,-0.47,0.10,0.67,0.29,0.05,-1.02,
4.662,-0.47,0.10,0.67,0.28,0.08,-1.02,
4.664,-0.47,0.10,0.67,0.28,0.11,-1.01,
4.666,-0.47,0.10,0.67,0.27,0.13,-1.01,
4.668,-0.47,0.10,0.67,0.26,0.15,-1.00,
4.675,-1.04,0.08,1.03,0.26,0.15,-1.00,
4.676,-1.04,0.08,1.03,0.26,0.16,-0.99,
4.676,-1.04,0.08,1.03,0.25,0.17,-0.98,
4.677,-1.04,0.08,1.03,0.24,0.18,-0.96,
4.677,-1.04,0.08,1.03,0.24,0.18,-0.94,
4.679,-1.04,0.08,1.03,0.23,0.18,-0.93,
4.683,-1.42,0.04,1.15,0.23,0.18,-0.93,
4.683,-1.42,0.04,1.15,0.22,0.17,-0.91,
4.683,-1.42,0.04,1.15,0.22,0.17,-0.89,
4.684,-1.42,0.04,1.15,0.21,0.16,-0.87,
4.709,-1.42,0.04,1.15,0.20,0.15,-0.85,
4.71,-1.42,0.04,1.15,0.20,0.14,-0.83,
4.71,-1.53,0.02,1.31,0.20,0.14,-0.83,
4.71,-1.53,0.02,1.31,0.18,0.13,-0.81,
4.71,-1.53,0.02,1.31,0.18,0.11,-0.79,
4.711,-1.53,0.02,1.31,0.17,0.10,-0.77,
4.711,-1.53,0.02,1.31,0.16,0.09,-0.75,
4.711,-1.53,0.02,1.31,0.15,0.07,-0.74,
4.711,-1.37,0.13,1.49,0.15,0.07,-0.74,
4.712,-1.37,0.13,1.49,0.13,0.06,-0.72,
4.712,-1.37,0.13,1.49,0.12,0.04,-0.71,
4.712,-1.37,0.13,1.49,0.10,0.02,-0.69,
4.712,-1.37,0.13,1.49,0.09,0.00,-0.68,
4.713,-1.37,0.13,1.49,0.08,-0.02,-0.66,
4.713,-1.42,0.28,1.64,0.08,-0.02,-0.66,
4.713,-1.42,0.28,1.64,0.06,-0.04,-0.64,
4.713,-1.42,0.28,1.64,0.04,-0.06,-0.63,
4.714,-1.42,0.28,1.64,0.02,-0.08,-0.61,
4.717,-1.42,0.28,1.64,0.00,-0.09,-0.59,
4.719,-1.42,0.28,1.64,-0.02,-0.11,-0.57,
4.722,-1.34,0.43,1.91,-0.02,-0.11,-0.57,
4.723,-1.34,0.43,1.91,-0.04,-0.12,-0.55,
4.725,-1.34,0.43,1.91,-0.07,-0.13,-0.54,
4.725,-1.34,0.43,1.91,-0.09,-0.14,-0.52,
4.73,-1.34,0.43,1.91,-0.12,-0.14,-0.51,
4.732,-1.34,0.43,1.91,-0.15,-0.14,-0.50,
4.733,-1.18,0.56,2.18,-0.15,-0.14,-0.50,
4.734,-1.18,0.56,2.18,-0.17,-0.14,-0.49,
4.735,-1.18,0.56,2.18,-0.20,-0.14,-0.49,
4.736,-1.18,0.56,2.18,-0.23,-0.14,-0.48,
4.738,-1.18,0.56,2.18,-0.26,-0.13,-0.48,
4.744,-1.18,0.56,2.18,-0.29,-0.12,-0.48,
4.744,-0.82,0.67,2.50,-0.29,-0.12,-0.48,
4.745,-0.82,0.67,2.50,-0.32,-0.11,-0.48,
4.745,-0.82,0.67,2.50,-0.35,-0.09,-0.48,
4.745,-0.82,0.67,2.50,-0.38,-0.07,-0.48,
4.746,-0.82,0.67,2.50,-0.41,-0.04,-0.48,
4.749,-0.82,0.67,2.50,-0.44,-0.01,-0.49,
4.751,-0.62,0.73,2.84,-0.44,-0.01,-0.49,
4.751,-0.62,0.73,2.84,-0.48,0.02,-0.49,
4.753,-0.62,0.73,2.84,-0.52,0.06,-0.49,
4.755,-0.62,0.73,2.84,-0.56,0.10,-0.50,
4.756,-0.62,0.73,2.84,-0.60,0.14,-0.50,
4.76,-0.62,0.73,2.84,-0.65,0.17,-0.51,
4.764,-0.51,0.74,2.85,-0.65,0.17,-0.51,
4.764,-0.51,0.74,2.85,-0.70,0.21,-0.51,
4.765,-0.51,0.74,2.85,-0.75,0.24,-0.51,
4.765,-0.51,0.74,2.85,-0.81,0.27,-0.52,
4.767,-0.51,0.74,2.85,-0.87,0.30,-0.52,
4.768,-0.51,0.74,2.85,-0.93,0.32,-0.53,
4.773,-0.56,0.76,2.88,-0.93,0.32,-0.53,
4.797,-0.56,0.76,2.88,-0.99,0.34,-0.53,
4.798,-0.56,0.76,2.88,-1.05,0.35,-0.53,
4.798,-0.56,0.76,2.88,-1.12,0.36,-0.54,
4.798,-0.56,0.76,2.88,-1.18,0.37,-0.54,
4.798,-0.56,0.76,2.88,-1.24,0.37,-0.55,
4.798,-0.57,0.68,3.47,-1.24,0.37,-0.55,
4.798,-0.57,0.68,3.47,-1.29,0.38,-0.54,
4.799,-0.57,0.68,3.47,-1.33,0.38,-0.55,
4.799,-0.57,0.68,3.47,-1.37,0.38,-0.55,
4.799,-0.57,0.68,3.47,-1.39,0.39,-0.54,
4.799,-0.57,0.68,3.47,-1.41,0.39,-0.54,
4.799,-0.68,0.29,4.88,-1.41,0.39,-0.54,
4.799,-0.68,0.29,4.88,-1.42,0.40,-0.53,
4.799,-0.68,0.29,4.88,-1.42,0.40,-0.51,
4.8,-0.68,0.29,4.88,-1.41,0.39,-0.50,
4.8,-0.68,0.29,4.88,-1.40,0.39,-0.48,
4.8,-0.68,0.29,4.88,-1.38,0.38,-0.46,
4.807,-0.80,-0.20,6.20,-1.38,0.38,-0.46,
4.807,-0.80,-0.20,6.20,-1.36,0.37,-0.43,
4.807,-0.80,-0.20,6.20,-1.34,0.35,-0.41,
4.808,-0.80,-0.20,6.20,-1.31,0.34,-0.38,
4.808,-0.80,-0.20,6.20,-1.28,0.32,-0.36,
4.808,-0.80,-0.20,6.20,-1.25,0.29,-0.33,
4.815,-0.71,-0.67,6.73,-1.25,0.29,-0.33,
4.816,-0.71,-0.67,6.73,-1.22,0.27,-0.30,
4.816,-0.71,-0.67,6.73,-1.19,0.25,-0.27,
4.817,-0.71,-0.67,6.73,-1.15,0.22,-0.24,
4.817,-0.71,-0.67,6.73,-1.11,0.19,-0.21,
4.839,-0.71,-0.67,6.73,-1.07,0.17,-0.18,
4.839,-0.26,-0.78,6.74,-1.07,0.17,-0.18,
4.839,-0.26,-0.78,6.74,-1.03,0.14,-0.15,
4.84,-0.26,-0.78,6.74,-0.98,0.12,-0.13,
4.84,-0.26,-0.78,6.74,-0.93,0.09,-0.10,
4.84,-0.26,-0.78,6.74,-0.89,0.07,-0.07,
4.84,-0.26,-0.78,6.74,-0.82,0.03,-0.04,
4.84,0.07,-0.75,6.49,-0.82,0.03,-0.04,
4.84,0.07,-0.75,6.49,-0.78,-0.01,-0.01,
4.841,0.07,-0.75,6.49,-0.72,-0.04,0.02,
4.841,0.07,-0.75,6.49,-0.67,-0.07,0.05,
4.841,0.07,-0.75,6.49,-0.62,-0.10,0.08,
4.841,0.07,-0.75,6.49,-0.55,-0.13,0.11,
4.841,0.28,-0.59,5.81,-0.55,-0.13,0.11,
4.842,0.28,-0.59,5.81,-0.50,-0.16,0.14,
4.842,0.28,-0.59,5.81,-0.44,-0.19,0.17,
4.844,0.28,-0.59,5.81,-0.39,-0.21,0.20,
4.846,0.28,-0.59,5.81,-0.33,-0.24,0.22,
4.848,0.28,-0.59,5.81,-0.28,-0.26,0.25,
4.851,0.60,-0.39,4.86,-0.28,-0.26,0.25,
4.851,0.60,-0.39,4.86,-0.23,-0.29,0.27,
4.852,0.60,-0.39,4.86,-0.18,-0.31,0.30,
4.855,0.60,-0.39,4.86,-0.13,-0.33,0.32,
4.857,0.60,-0.39,4.86,-0.08,-0.34,0.34,
4.859,0.60,-0.39,4.86,-0.04,-0.36,0.36,
4.861,0.84,-0.13,3.65,-0.04,-0.36,0.36,
4.861,0.84,-0.13,3.65,0.01,-0.37,0.38,
4.862,0.84,-0.13,3.65,0.05,-0.39,0.40,
4.864,0.84,-0.13,3.65,0.10,-0.40,0.41,
4.867,0.84,-0.13,3.65,0.13,-0.40,0.43,
4.871,0.84,-0.13,3.65,0.17,-0.41,0.44,
4.872,1.05,0.07,2.33,0.17,-0.41,0.44,
4.872,1.05,0.07,2.33,0.20,-0.40,0.45,
4.872,1.05,0.07,2.33,0.23,-0.40,0.46,
4.874,1.05,0.07,2.33,0.26,-0.39,0.47,
4.879,1.05,0.07,2.33,0.28,-0.39,0.48,
4.879,1.05,0.07,2.33,0.30,-0.37,0.49,
4.881,1.23,0.27,0.84,0.30,-0.37,0.49,
4.881,1.23,0.27,0.84,0.31,-0.35,0.49,
4.883,1.23,0.27,0.84,0.32,-0.33,0.49,
4.885,1.23,0.27,0.84,0.33,-0.30,0.49,
4.887,1.23,0.27,0.84,0.32,-0.26,0.48,
4.889,1.23,0.27,0.84,0.31,-0.23,0.48,
4.891,1.59,0.44,-0.83,0.31,-0.23,0.48,
4.892,1.59,0.44,-0.83,0.30,-0.18,0.47,
4.893,1.59,0.44,-0.83,0.28,-0.13,0.45,
4.895,1.59,0.44,-0.83,0.26,-0.08,0.44,
4.897,1.59,0.44,-0.83,0.23,-0.01,0.42,
4.898,1.59,0.44,-0.83,0.20,0.05,0.41,
4.901,1.84,0.48,-2.41,0.20,0.05,0.41,
4.902,1.84,0.48,-2.41,0.17,0.12,0.39,
4.912,1.84,0.48,-2.41,0.13,0.19,0.36,
4.913,1.84,0.48,-2.41,0.10,0.26,0.34,
4.913,1.84,0.48,-2.41,0.06,0.33,0.32,
4.913,1.84,0.48,-2.41,0.03,0.40,0.30,
4.913,1.96,0.54,-3.53,0.03,0.40,0.30,
4.913,1.96,0.54,-3.53,-0.00,0.47,0.28,
4.914,1.96,0.54,-3.53,-0.04,0.53,0.25,
4.915,1.96,0.54,-3.53,-0.06,0.60,0.23,
4.916,1.96,0.54,-3.53,-0.10,0.65,0.21,
4.941,1.96,0.54,-3.53,-0.13,0.71,0.19,
4.942,1.67,0.50,-4.13,-0.13,0.71,0.19,
4.942,1.67,0.50,-4.13,-0.15,0.75,0.17,
4.942,1.67,0.50,-4.13,-0.18,0.79,0.14,
4.942,1.67,0.50,-4.13,-0.21,0.83,0.12,
4.943,1.67,0.50,-4.13,-0.23,0.86,0.10,
4.943,1.67,0.50,-4.13,-0.26,0.88,0.08,
4.943,1.39,0.55,-4.58,-0.26,0.88,0.08,
4.944,1.39,0.55,-4.58,-0.28,0.90,0.06,
4.944,1.39,0.55,-4.58,-0.30,0.92,0.04,
4.944,1.39,0.55,-4.58,-0.31,0.93,0.02,
4.945,1.39,0.55,-4.58,-0.33,0.94,0.00,
4.973,1.39,0.55,-4.58,-0.33,0.94,-0.02,
4.974,0.91,0.49,-4.65,-0.33,0.94,-0.02,
4.974,0.91,0.49,-4.65,-0.34,0.94,-0.03,
4.974,0.91,0.49,-4.65,-0.34,0.94,-0.05,
4.975,0.91,0.49,-4.65,-0.34,0.93,-0.06,
4.975,0.91,0.49,-4.65,-0.34,0.93,-0.08,
4.976,0.91,0.49,-4.65,-0.33,0.92,-0.09,
4.976,0.60,0.42,-4.56,-0.33,0.92,-0.09,
4.976,0.60,0.42,-4.56,-0.32,0.90,-0.10,
4.977,0.60,0.42,-4.56,-0.31,0.89,-0.11,
4.977,0.60,0.42,-4.56,-0.30,0.87,-0.12,
4.978,0.60,0.42,-4.56,-0.29,0.85,-0.13,
4.978,0.60,0.42,-4.56,-0.28,0.83,-0.14,
4.979,0.24,0.20,-4.55,-0.28,0.83,-0.14,
4.979,0.24,0.20,-4.55,-0.26,0.81,-0.15,
4.979,0.24,0.20,-4.55,-0.25,0.79,-0.15,
4.98,0.24,0.20,-4.55,-0.24,0.76,-0.16,
4.98,0.24,0.20,-4.55,-0.23,0.74,-0.16,
4.981,0.24,0.20,-4.55,-0.22,0.72,-0.17,
4.981,0.04,-0.00,-4.71,-0.22,0.72,-0.17,
4.981,0.04,-0.00,-4.71,-0.21,0.69,-0.17,
4.982,0.04,-0.00,-4.71,-0.20,0.67,-0.17,
4.982,0.04,-0.00,-4.71,-0.19,0.64,-0.17,
4.983,0.04,-0.00,-4.71,-0.19,0.62,-0.17,
4.983,0.04,-0.00,-4.71,-0.18,0.60,-0.17,
4.984,-0.21,-0.28,-4.83,-0.18,0.60,-0.17,
4.984,-0.21,-0.28,-4.83,-0.17,0.57,-0.17,
4.984,-0.21,-0.28,-4.83,-0.17,0.55,-0.17,
4.985,-0.21,-0.28,-4.83,-0.16,0.53,-0.16,
4.993,-0.21,-0.28,-4.83,-0.15,0.51,-0.16,
4.993,-0.21,-0.28,-4.83,-0.14,0.49,-0.15,
4.994,-0.37,-0.46,-4.64,-0.14,0.49,-0.15,
4.994,-0.37,-0.46,-4.64,-0.13,0.46,-0.15,
4.994,-0.37,-0.46,-4.64,-0.12,0.44,-0.14,
4.995,-0.37,-0.46,-4.64,-0.10,0.41,-0.14,
4.996,-0.37,-0.46,-4.64,-0.08,0.39,-0.13,
4.998,-0.37,-0.46,-4.64,-0.05,0.37,-0.12,
5.002,-0.44,-0.58,-4.01,-0.05,0.37,-0.12,
5.003,-0.44,-0.58,-4.01,-0.03,0.35,-0.11,
5.003,-0.44,-0.58,-4.01,-0.00,0.33,-0.10,
5.004,-0.44,-0.58,-4.01,0.03,0.32,-0.10,
5.006,-0.44,-0.58,-4.01,0.07,0.30,-0.09,
5.008,-0.44,-0.58,-4.01,0.10,0.29,-0.08,
5.01,-0.48,-0.60,-3.21,0.10,0.29,-0.08,
5.011,-0.48,-0.60,-3.21,0.14,0.28,-0.07,
5.012,-0.48,-0.60,-3.21,0.18,0.27,-0.06,
5.014,-0.48,-0.60,-3.21,0.21,0.26,-0.05,
5.016,-0.48,-0.60,-3.21,0.25,0.25,-0.05,
5.018,-0.48,-0.60,-3.21,0.28,0.24,-0.04,
5.021,-0.39,-0.69,-2.77,0.28,0.24,-0.04,
5.021,-0.39,-0.69,-2.77,0.32,0.23,-0.04,
5.022,-0.39,-0.69,-2.77,0.35,0.22,-0.03,
