
time,ax,ay,az,wx,wy,wz,
0.003,0.50,-0.24,-0.74,-0.16,-0.05,-1.10,
0.004,0.42,-0.03,-0.66,-0.16,-0.05,-1.10,
0.004,0.42,-0.03,-0.66,-0.17,-0.03,-1.11,
0.005,0.42,-0.03,-0.66,-0.18,-0.01,-1.11,
0.006,0.42,-0.03,-0.66,-0.19,0.00,-1.11,
0.024,0.42,-0.03,-0.66,-0.19,0.02,-1.11,
0.024,0.42,-0.03,-0.66,-0.20,0.03,-1.11,
0.024,0.44,0.05,-0.35,-0.20,0.03,-1.11,
0.025,0.44,0.05,-0.35,-0.20,0.05,-1.12,
0.025,0.44,0.05,-0.35,-0.20,0.06,-1.12,
0.025,0.44,0.05,-0.35,-0.20,0.07,-1.13,
0.025,0.44,0.05,-0.35,-0.20,0.08,-1.13,
0.026,0.44,0.05,-0.35,-0.20,0.09,-1.13,
0.026,0.41,0.05,0.05,-0.20,0.09,-1.13,
0.026,0.41,0.05,0.05,-0.20,0.10,-1.14,
0.027,0.41,0.05,0.05,-0.20,0.11,-1.14,
0.027,0.41,0.05,0.05,-0.19,0.12,-1.14,
0.027,0.41,0.05,0.05,-0.18,0.13,-1.15,
0.027,0.41,0.05,0.05,-0.17,0.14,-1.15,
0.028,0.36,0.04,0.71,-0.17,0.14,-1.15,
0.028,0.36,0.04,0.71,-0.16,0.15,-1.15,
0.028,0.36,0.04,0.71,-0.14,0.16,-1.15,
0.029,0.36,0.04,0.71,-0.12,0.17,-1.15,
0.029,0.36,0.04,0.71,-0.10,0.19,-1.14,
0.029,0.36,0.04,0.71,-0.07,0.20,-1.14,
0.032,0.20,0.07,1.55,-0.07,0.20,-1.14,
0.033,0.20,0.07,1.55,-0.05,0.20,-1.14,
0.033,0.20,0.07,1.55,-0.02,0.20,-1.13,
0.034,0.20,0.07,1.55,-0.00,0.20,-1.13,
0.037,0.20,0.07,1.55,0.02,0.20,-1.13,
0.043,0.20,0.07,1.55,0.04,0.19,-1.12,
0.044,0.13,-0.13,1.87,0.04,0.19,-1.12,
0.045,0.13,-0.13,1.87,0.06,0.18,-1.12,
0.045,0.13,-0.13,1.87,0.09,0.17,-1.12,
0.045,0.13,-0.13,1.87,0.11,0.16,-1.12,
0.046,0.13,-0.13,1.87,0.13,0.15,-1.12,
0.06,0.13,-0.13,1.87,0.14,0.14,-1.12,
0.061,0.07,-0.27,1.70,0.14,0.14,-1.12,
0.061,0.07,-0.27,1.70,0.15,0.13,-1.11,
0.061,0.07,-0.27,1.70,0.17,0.11,-1.11,
0.062,0.07,-0.27,1.70,0.17,0.10,-1.11,
0.062,0.07,-0.27,1.70,0.18,0.09,-1.11,
0.062,0.07,-0.27,1.70,0.19,0.07,-1.10,
0.063,0.01,-0.35,1.32,0.19,0.07,-1.10,
0.063,0.01,-0.35,1.32,0.19,0.06,-1.10,
0.063,0.01,-0.35,1.32,0.19,0.04,-1.10,
0.063,0.01,-0.35,1.32,0.19,0.02,-1.09,
0.073,0.01,-0.35,1.32,0.19,0.00,-1.08,
0.074,0.01,-0.35,1.32,0.19,-0.03,-1.08,
0.075,0.00,-0.23,1.00,0.19,-0.03,-1.08,
0.075,0.00,-0.23,1.00,0.19,-0.04,-1.07,
0.076,0.00,-0.23,1.00,0.19,-0.05,-1.07,
0.077,0.00,-0.23,1.00,0.19,-0.06,-1.06,
0.077,0.00,-0.23,1.00,0.19,-0.07,-1.05,
0.098,0.00,-0.23,1.00,0.18,-0.09,-1.05,
0.098,0.08,-0.14,0.76,0.18,-0.09,-1.05,
0.098,0.08,-0.14,0.76,0.18,-0.10,-1.04,
0.099,0.08,-0.14,0.76,0.18,-0.11,-1.04,
0.099,0.08,-0.14,0.76,0.18,-0.12,-1.03,
0.099,0.08,-0.14,0.76,0.17,-0.13,-1.03,
0.1,0.08,-0.14,0.76,0.17,-0.15,-1.02,
0.1,0.17,-0.10,0.58,0.17,-0.15,-1.02,
0.1,0.17,-0.10,0.58,0.16,-0.17,-1.01,
0.1,0.17,-0.10,0.58,0.16,-0.19,-1.01,
0.101,0.17,-0.10,0.58,0.15,-0.21,-1.01,
0.101,0.17,-0.10,0.58,0.15,-0.22,-1.00,
0.101,0.17,-0.10,0.58,0.14,-0.24,-1.00,
0.102,0.34,-0.07,0.49,0.14,-0.24,-1.00,
0.102,0.34,-0.07,0.49,0.14,-0.26,-1.00,
0.102,0.34,-0.07,0.49,0.14,-0.27,-1.00,
0.105,0.34,-0.07,0.49,0.14,-0.28,-1.00,
0.106,0.34,-0.07,0.49,0.14,-0.29,-1.00,
0.141,0.34,-0.07,0.49,0.13,-0.30,-1.00,
0.143,0.54,-0.05,0.55,0.13,-0.30,-1.00,
0.145,0.54,-0.05,0.55,0.13,-0.31,-1.00,
0.146,0.54,-0.05,0.55,0.13,-0.31,-1.01,
0.146,0.54,-0.05,0.55,0.13,-0.31,-1.01,
0.146,0.54,-0.05,0.55,0.14,-0.31,-1.01,
0.147,0.54,-0.05,0.55,0.14,-0.30,-1.01,
0.148,0.60,-0.06,0.69,0.14,-0.30,-1.01,
0.149,0.60,-0.06,0.69,0.14,-0.29,-1.01,
0.15,0.60,-0.06,0.69,0.15,-0.28,-1.01,
0.15,0.60,-0.06,0.69,0.15,-0.27,-1.01,
0.151,0.60,-0.06,0.69,0.15,-0.26,-1.01,
0.153,0.60,-0.06,0.69,0.16,-0.25,-1.00,
0.154,0.53,-0.19,0.74,0.16,-0.25,-1.00,
0.155,0.53,-0.19,0.74,0.17,-0.24,-1.00,
0.156,0.53,-0.19,0.74,0.17,-0.22,-1.00,
0.156,0.53,-0.19,0.74,0.18,-0.20,-0.99,
0.158,0.53,-0.19,0.74,0.19,-0.19,-0.99,
0.159,0.53,-0.19,0.74,0.20,-0.17,-0.98,
0.16,0.38,-0.26,0.84,0.20,-0.17,-0.98,
0.16,0.38,-0.26,0.84,0.21,-0.15,-0.98,
0.161,0.38,-0.26,0.84,0.22,-0.13,-0.97,
0.162,0.38,-0.26,0.84,0.23,-0.12,-0.96,
0.163,0.38,-0.26,0.84,0.24,-0.10,-0.95,
0.163,0.38,-0.26,0.84,0.26,-0.09,-0.95,
0.175,0.28,-0.20,0.92,0.26,-0.09,-0.95,
0.176,0.28,-0.20,0.92,0.27,-0.07,-0.94,
0.176,0.28,-0.20,0.92,0.28,-0.06,-0.94,
0.177,0.28,-0.20,0.92,0.30,-0.05,-0.93,
0.177,0.28,-0.20,0.92,0.31,-0.04,-0.93,
0.198,0.28,-0.20,0.92,0.33,-0.04,-0.93,
0.199,0.33,-0.24,0.91,0.33,-0.04,-0.93,
0.199,0.33,-0.24,0.91,0.34,-0.04,-0.93,
0.199,0.33,-0.24,0.91,0.36,-0.04,-0.93,
0.2,0.33,-0.24,0.91,0.37,-0.04,-0.93,
0.2,0.33,-0.24,0.91,0.39,-0.05,-0.94,
0.2,0.33,-0.24,0.91,0.40,-0.05,-0.94,
0.2,0.34,-0.25,0.77,0.40,-0.05,-0.94,
0.201,0.34,-0.25,0.77,0.42,-0.06,-0.94,
0.201,0.34,-0.25,0.77,0.43,-0.07,-0.95,
0.201,0.34,-0.25,0.77,0.44,-0.08,-0.95,
0.201,0.34,-0.25,0.77,0.46,-0.09,-0.96,
0.202,0.34,-0.25,0.77,0.47,-0.10,-0.96,
0.202,0.24,-0.24,0.50,0.47,-0.10,-0.96,
0.202,0.24,-0.24,0.50,0.48,-0.11,-0.97,
0.203,0.24,-0.24,0.50,0.49,-0.12,-0.97,
0.203,0.24,-0.24,0.50,0.49,-0.13,-0.97,
0.203,0.24,-0.24,0.50,0.50,-0.14,-0.98,
0.203,0.24,-0.24,0.50,0.50,-0.14,-0.98,
0.204,0.09,-0.26,0.06,0.50,-0.14,-0.98,
0.204,0.09,-0.26,0.06,0.50,-0.15,-0.99,
0.204,0.09,-0.26,0.06,0.51,-0.15,-0.99,
0.204,0.09,-0.26,0.06,0.51,-0.16,-0.99,
0.205,0.09,-0.26,0.06,0.51,-0.16,-0.99,
0.205,0.09,-0.26,0.06,0.50,-0.16,-0.98,
0.205,-0.04,-0.23,-0.32,0.50,-0.16,-0.98,
0.205,-0.04,-0.23,-0.32,0.50,-0.16,-0.98,
0.206,-0.04,-0.23,-0.32,0.50,-0.16,-0.98,
0.206,-0.04,-0.23,-0.32,0.49,-0.17,-0.98,
0.206,-0.04,-0.23,-0.32,0.49,-0.17,-0.98,
0.218,-0.04,-0.23,-0.32,0.47,-0.18,-0.98,
0.219,-0.12,-0.21,-0.71,0.47,-0.18,-0.98,
0.219,-0.12,-0.21,-0.71,0.47,-0.19,-0.97,
0.219,-0.12,-0.21,-0.71,0.46,-0.20,-0.97,
0.22,-0.12,-0.21,-0.71,0.45,-0.21,-0.97,
0.22,-0.12,-0.21,-0.71,0.43,-0.22,-0.96,
0.22,-0.12,-0.21,-0.71,0.43,-0.23,-0.96,
0.221,-0.13,-0.21,-0.93,0.43,-0.23,-0.96,
0.221,-0.13,-0.21,-0.93,0.41,-0.24,-0.95,
0.222,-0.13,-0.21,-0.93,0.40,-0.25,-0.95,
0.232,-0.13,-0.21,-0.93,0.39,-0.26,-0.94,
0.233,-0.13,-0.21,-0.93,0.38,-0.27,-0.94,
0.233,-0.13,-0.21,-0.93,0.37,-0.29,-0.94,
0.233,-0.08,-0.21,-0.99,0.37,-0.29,-0.94,
0.233,-0.08,-0.21,-0.99,0.36,-0.30,-0.94,
0.234,-0.08,-0.21,-0.99,0.34,-0.31,-0.93,
0.234,-0.08,-0.21,-0.99,0.34,-0.33,-0.94,
0.236,-0.08,-0.21,-0.99,0.32,-0.34,-0.94,
0.272,-0.08,-0.21,-0.99,0.31,-0.35,-0.94,
0.273,-0.08,-0.21,-0.99,0.30,-0.36,-0.94,
0.273,-0.08,-0.21,-0.99,0.30,-0.36,-0.94,
0.273,0.01,-0.32,-0.76,0.30,-0.36,-0.94,
0.273,0.01,-0.32,-0.76,0.29,-0.37,-0.95,
0.273,0.01,-0.32,-0.76,0.28,-0.37,-0.95,
0.274,0.01,-0.32,-0.76,0.28,-0.37,-0.96,
0.274,0.09,-0.36,-0.61,0.28,-0.37,-0.96,
0.274,0.09,-0.36,-0.61,0.28,-0.37,-0.96,
0.274,0.09,-0.36,-0.61,0.28,-0.37,-0.97,
0.275,0.09,-0.36,-0.61,0.27,-0.37,-0.98,
0.275,0.09,-0.36,-0.61,0.28,-0.37,-0.99,
0.275,0.09,-0.36,-0.61,0.27,-0.36,-1.00,
0.275,0.25,-0.50,-0.32,0.27,-0.36,-1.00,
0.275,0.25,-0.50,-0.32,0.28,-0.36,-1.00,
0.276,0.25,-0.50,-0.32,0.27,-0.35,-1.02,
0.276,0.25,-0.50,-0.32,0.27,-0.35,-1.03,
0.276,0.25,-0.50,-0.32,0.27,-0.35,-1.04,
0.276,0.25,-0.50,-0.32,0.27,-0.34,-1.05,
0.277,0.31,-0.76,-0.25,0.27,-0.34,-1.05,
0.277,0.31,-0.76,-0.25,0.27,-0.34,-1.06,
0.277,0.31,-0.76,-0.25,0.26,-0.34,-1.07,
0.277,0.31,-0.76,-0.25,0.26,-0.34,-1.08,
0.278,0.31,-0.76,-0.25,0.26,-0.34,-1.09,
0.281,0.31,-0.76,-0.25,0.25,-0.34,-1.10,
0.282,0.25,-0.98,-0.30,0.25,-0.34,-1.10,
0.282,0.25,-0.98,-0.30,0.25,-0.34,-1.11,
0.282,0.25,-0.98,-0.30,0.24,-0.35,-1.12,
0.284,0.25,-0.98,-0.30,0.24,-0.35,-1.13,
0.286,0.25,-0.98,-0.30,0.23,-0.35,-1.14,
0.289,0.25,-0.98,-0.30,0.22,-0.36,-1.14,
0.304,0.13,-1.18,-0.47,0.22,-0.36,-1.14,
0.304,0.13,-1.18,-0.47,0.21,-0.37,-1.15,
0.304,0.13,-1.18,-0.47,0.19,-0.37,-1.15,
0.304,0.13,-1.18,-0.47,0.18,-0.38,-1.15,
0.305,0.13,-1.18,-0.47,0.16,-0.39,-1.15,
0.305,0.13,-1.18,-0.47,0.14,-0.39,-1.15,
0.305,-0.04,-1.40,-0.64,0.14,-0.39,-1.15,
0.305,-0.04,-1.40,-0.64,0.13,-0.40,-1.15,
0.305,-0.04,-1.40,-0.64,0.11,-0.41,-1.15,
0.305,-0.04,-1.40,-0.64,0.08,-0.41,-1.15,
0.32,-0.04,-1.40,-0.64,0.06,-0.42,-1.15,
0.32,-0.04,-1.40,-0.64,0.04,-0.43,-1.15,
0.321,0.02,-1.57,-0.74,0.04,-0.43,-1.15,
0.321,0.02,-1.57,-0.74,0.02,-0.44,-1.14,
0.321,0.02,-1.57,-0.74,-0.01,-0.45,-1.14,
0.321,0.02,-1.57,-0.74,-0.03,-0.46,-1.14,
0.321,0.02,-1.57,-0.74,-0.05,-0.48,-1.14,
0.321,0.02,-1.57,-0.74,-0.08,-0.49,-1.13,
0.322,0.11,-1.72,-0.58,-0.08,-0.49,-1.13,
0.322,0.11,-1.72,-0.58,-0.10,-0.51,-1.13,
0.322,0.11,-1.72,-0.58,-0.12,-0.53,-1.13,
0.334,0.11,-1.72,-0.58,-0.14,-0.54,-1.13,
0.334,0.11,-1.72,-0.58,-0.16,-0.55,-1.13,
0.335,0.11,-1.72,-0.58,-0.17,-0.55,-1.12,
0.335,0.18,-1.77,-0.19,-0.17,-0.55,-1.12,
0.335,0.18,-1.77,-0.19,-0.19,-0.56,-1.12,
0.335,0.18,-1.77,-0.19,-0.21,-0.55,-1.11,
0.335,0.18,-1.77,-0.19,-0.22,-0.55,-1.11,
0.337,0.18,-1.77,-0.19,-0.23,-0.54,-1.10,
0.338,0.18,-1.77,-0.19,-0.24,-0.53,-1.09,
0.343,0.10,-1.86,0.23,-0.24,-0.53,-1.09,
0.344,0.10,-1.86,0.23,-0.25,-0.52,-1.09,
0.344,0.10,-1.86,0.23,-0.26,-0.51,-1.08,
0.344,0.10,-1.86,0.23,-0.27,-0.49,-1.07,
0.345,0.10,-1.86,0.23,-0.28,-0.48,-1.07,
0.347,0.10,-1.86,0.23,-0.28,-0.47,-1.06,
0.35,0.11,-1.84,0.43,-0.28,-0.47,-1.06,
0.35,0.11,-1.84,0.43,-0.29,-0.46,-1.06,
0.352,0.11,-1.84,0.43,-0.30,-0.45,-1.05,
0.354,0.11,-1.84,0.43,-0.31,-0.44,-1.06,
0.37,0.11,-1.84,0.43,-0.32,-0.45,-1.06,
0.37,0.11,-1.84,0.43,-0.33,-0.45,-1.06,
0.37,0.28,-1.80,0.54,-0.33,-0.45,-1.06,
0.37,0.28,-1.80,0.54,-0.34,-0.46,-1.06,
0.37,0.28,-1.80,0.54,-0.35,-0.48,-1.06,
0.37,0.28,-1.80,0.54,-0.36,-0.50,-1.07,
0.371,0.28,-1.80,0.54,-0.37,-0.51,-1.07,
0.371,0.28,-1.80,0.54,-0.38,-0.53,-1.08,
0.371,0.44,-1.54,0.54,-0.38,-0.53,-1.08,
0.371,0.44,-1.54,0.54,-0.40,-0.55,-1.08,
0.372,0.44,-1.54,0.54,-0.41,-0.57,-1.08,
0.375,0.44,-1.54,0.54,-0.42,-0.59,-1.09,
0.376,0.44,-1.54,0.54,-0.43,-0.61,-1.10,
0.378,0.44,-1.54,0.54,-0.45,-0.63,-1.10,
0.38,0.41,-1.33,0.64,-0.45,-0.63,-1.10,
0.38,0.41,-1.33,0.64,-0.46,-0.64,-1.11,
0.382,0.41,-1.33,0.64,-0.47,-0.65,-1.12,
0.384,0.41,-1.33,0.64,-0.49,-0.66,-1.13,
0.386,0.41,-1.33,0.64,-0.50,-0.67,-1.14,
0.388,0.41,-1.33,0.64,-0.51,-0.68,-1.15,
0.393,0.41,-1.10,0.69,-0.51,-0.68,-1.15,
0.393,0.41,-1.10,0.69,-0.52,-0.68,-1.16,
0.393,0.41,-1.10,0.69,-0.53,-0.68,-1.17,
0.394,0.41,-1.10,0.69,-0.54,-0.67,-1.19,
0.396,0.41,-1.10,0.69,-0.55,-0.66,-1.20,
0.398,0.41,-1.10,0.69,-0.55,-0.65,-1.21,
0.4,0.26,-0.95,0.58,-0.55,-0.65,-1.21,
0.4,0.26,-0.95,0.58,-0.56,-0.64,-1.21,
0.402,0.26,-0.95,0.58,-0.57,-0.63,-1.23,
0.404,0.26,-0.95,0.58,-0.58,-0.62,-1.23,
0.411,0.26,-0.95,0.58,-0.58,-0.61,-1.24,
0.411,0.26,-0.95,0.58,-0.59,-0.60,-1.25,
0.411,0.02,-0.87,0.43,-0.59,-0.60,-1.25,
0.412,0.02,-0.87,0.43,-0.60,-0.59,-1.26,
0.412,0.02,-0.87,0.43,-0.61,-0.58,-1.26,
0.414,0.02,-0.87,0.43,-0.62,-0.56,-1.27,
0.416,0.02,-0.87,0.43,-0.63,-0.56,-1.28,
0.418,0.02,-0.87,0.43,-0.64,-0.55,-1.29,
0.421,-0.23,-0.76,0.30,-0.64,-0.55,-1.29,
0.421,-0.23,-0.76,0.30,-0.65,-0.55,-1.29,
0.422,-0.23,-0.76,0.30,-0.65,-0.55,-1.30,
0.429,-0.23,-0.76,0.30,-0.66,-0.54,-1.30,
0.43,-0.23,-0.76,0.30,-0.67,-0.53,-1.31,
0.43,-0.23,-0.76,0.30,-0.67,-0.52,-1.32,
0.431,-0.35,-0.48,0.32,-0.67,-0.52,-1.32,
0.431,-0.35,-0.48,0.32,-0.68,-0.52,-1.33,
0.432,-0.35,-0.48,0.32,-0.68,-0.52,-1.34,
0.434,-0.35,-0.48,0.32,-0.68,-0.51,-1.36,
0.436,-0.35,-0.48,0.32,-0.68,-0.51,-1.36,
0.438,-0.35,-0.48,0.32,-0.67,-0.51,-1.37,
0.446,-0.41,-0.26,0.43,-0.67,-0.51,-1.37,
0.447,-0.41,-0.26,0.43,-0.67,-0.50,-1.39,
0.447,-0.41,-0.26,0.43,-0.67,-0.50,-1.40,
0.448,-0.41,-0.26,0.43,-0.66,-0.50,-1.41,
0.448,-0.41,-0.26,0.43,-0.65,-0.50,-1.42,
0.449,-0.41,-0.26,0.43,-0.64,-0.52,-1.44,
0.45,-0.40,-0.12,0.56,-0.64,-0.52,-1.44,
0.451,-0.40,-0.12,0.56,-0.62,-0.53,-1.46,
0.452,-0.40,-0.12,0.56,-0.62,-0.53,-1.46,
0.455,-0.40,-0.12,0.56,-0.59,-0.54,-1.49,
0.467,-0.40,-0.12,0.56,-0.58,-0.54,-1.49,
0.468,-0.40,-0.12,0.56,-0.56,-0.55,-1.51,
0.468,-0.35,-0.01,0.61,-0.56,-0.55,-1.51,
0.468,-0.35,-0.01,0.61,-0.54,-0.56,-1.53,
0.468,-0.35,-0.01,0.61,-0.53,-0.56,-1.54,
0.469,-0.35,-0.01,0.61,-0.50,-0.57,-1.57,
0.469,-0.35,-0.01,0.61,-0.49,-0.58,-1.58,
0.469,-0.35,-0.01,0.61,-0.46,-0.58,-1.61,
0.471,-0.16,-0.00,0.52,-0.46,-0.58,-1.61,
0.473,-0.16,-0.00,0.52,-0.45,-0.58,-1.62,
0.473,-0.16,-0.00,0.52,-0.44,-0.58,-1.63,
0.486,-0.16,-0.00,0.52,-0.41,-0.58,-1.67,
0.488,-0.16,-0.00,0.52,-0.39,-0.57,-1.69,
0.489,-0.16,-0.00,0.52,-0.38,-0.57,-1.71,
0.49,-0.07,0.06,0.19,-0.38,-0.57,-1.71,
0.49,-0.07,0.06,0.19,-0.37,-0.56,-1.73,
0.492,-0.07,0.06,0.19,-0.36,-0.56,-1.76,
0.493,-0.07,0.06,0.19,-0.36,-0.56,-1.78,
0.494,-0.07,0.06,0.19,-0.35,-0.56,-1.81,
0.494,-0.07,0.06,0.19,-0.35,-0.56,-1.83,
0.494,-0.13,0.09,-0.33,-0.35,-0.56,-1.83,
0.508,-0.13,0.09,-0.33,-0.36,-0.56,-1.85,
0.509,-0.13,0.09,-0.33,-0.36,-0.56,-1.87,
0.509,-0.13,0.09,-0.33,-0.36,-0.56,-1.89,
0.509,-0.13,0.09,-0.33,-0.37,-0.55,-1.90,
0.509,-0.13,0.09,-0.33,-0.38,-0.55,-1.92,
0.509,-0.52,0.16,-0.81,-0.38,-0.55,-1.92,
0.509,-0.52,0.16,-0.81,-0.39,-0.54,-1.94,
0.51,-0.52,0.16,-0.81,-0.41,-0.53,-1.95,
0.51,-0.52,0.16,-0.81,-0.42,-0.51,-1.96,
0.51,-0.52,0.16,-0.81,-0.44,-0.49,-1.97,
0.51,-0.52,0.16,-0.81,-0.46,-0.47,-1.97,
0.51,-1.04,0.19,-1.24,-0.46,-0.47,-1.97,
0.51,-1.04,0.19,-1.24,-0.48,-0.45,-1.98,
0.513,-1.04,0.19,-1.24,-0.51,-0.42,-1.98,
0.514,-1.04,0.19,-1.24,-0.53,-0.40,-1.97,
0.516,-1.04,0.19,-1.24,-0.55,-0.38,-1.96,
0.518,-1.04,0.19,-1.24,-0.57,-0.36,-1.95,
0.524,-1.63,0.26,-1.28,-0.57,-0.36,-1.95,
0.524,-1.63,0.26,-1.28,-0.60,-0.35,-1.94,
0.524,-1.63,0.26,-1.28,-0.62,-0.33,-1.92,
0.525,-1.63,0.26,-1.28,-0.64,-0.32,-1.90,
0.525,-1.63,0.26,-1.28,-0.65,-0.29,-1.89,
0.528,-1.63,0.26,-1.28,-0.67,-0.26,-1.87,
0.53,-1.91,0.27,-1.05,-0.67,-0.26,-1.87,
0.53,-1.91,0.27,-1.05,-0.68,-0.23,-1.85,
0.531,-1.91,0.27,-1.05,-0.69,-0.21,-1.82,
0.534,-1.91,0.27,-1.05,-0.70,-0.18,-1.80,
0.535,-1.91,0.27,-1.05,-0.70,-0.16,-1.78,
0.538,-1.91,0.27,-1.05,-0.70,-0.15,-1.76,
0.546,-1.95,0.27,-0.70,-0.70,-0.15,-1.76,
0.546,-1.95,0.27,-0.70,-0.71,-0.13,-1.74,
0.546,-1.95,0.27,-0.70,-0.71,-0.12,-1.72,
0.546,-1.95,0.27,-0.70,-0.71,-0.12,-1.71,
0.546,-1.95,0.27,-0.70,-0.71,-0.12,-1.69,
0.548,-1.95,0.27,-0.70,-0.70,-0.11,-1.68,
0.551,-1.56,0.15,-0.40,-0.70,-0.11,-1.68,
0.551,-1.56,0.15,-0.40,-0.69,-0.10,-1.68,
0.551,-1.56,0.15,-0.40,-0.69,-0.10,-1.67,
0.554,-1.56,0.15,-0.40,-0.68,-0.09,-1.67,
0.561,-1.56,0.15,-0.40,-0.67,-0.09,-1.67,
0.561,-1.56,0.15,-0.40,-0.66,-0.09,-1.67,
0.561,-1.25,0.08,-0.20,-0.66,-0.09,-1.67,
0.561,-1.25,0.08,-0.20,-0.65,-0.09,-1.67,
0.563,-1.25,0.08,-0.20,-0.64,-0.09,-1.67,
0.563,-1.25,0.08,-0.20,-0.62,-0.10,-1.68,
0.566,-1.25,0.08,-0.20,-0.61,-0.10,-1.68,
0.568,-1.25,0.08,-0.20,-0.59,-0.11,-1.69,
0.571,-1.13,0.09,-0.14,-0.59,-0.11,-1.69,
0.572,-1.13,0.09,-0.14,-0.58,-0.12,-1.69,
0.572,-1.13,0.09,-0.14,-0.57,-0.12,-1.70,
0.582,-1.13,0.09,-0.14,-0.55,-0.13,-1.71,
0.582,-1.13,0.09,-0.14,-0.54,-0.13,-1.72,
0.582,-1.13,0.09,-0.14,-0.53,-0.12,-1.72,
0.582,-1.27,0.07,-0.35,-0.53,-0.12,-1.72,
0.582,-1.27,0.07,-0.35,-0.52,-0.12,-1.72,
0.582,-1.27,0.07,-0.35,-0.51,-0.11,-1.73,
0.584,-1.27,0.07,-0.35,-0.51,-0.10,-1.72,
0.586,-1.27,0.07,-0.35,-0.50,-0.09,-1.72,
0.588,-1.27,0.07,-0.35,-0.49,-0.09,-1.72,
0.593,-1.60,0.01,-0.66,-0.49,-0.09,-1.72,
0.594,-1.60,0.01,-0.66,-0.49,-0.08,-1.72,
0.594,-1.60,0.01,-0.66,-0.49,-0.08,-1.71,
0.594,-1.60,0.01,-0.66,-0.49,-0.07,-1.71,
0.596,-1.60,0.01,-0.66,-0.50,-0.07,-1.70,
0.598,-1.60,0.01,-0.66,-0.50,-0.08,-1.70,
0.6,-2.07,0.01,-1.20,-0.50,-0.08,-1.70,
0.601,-2.07,0.01,-1.20,-0.51,-0.09,-1.69,
0.602,-2.07,0.01,-1.20,-0.52,-0.10,-1.69,
0.603,-2.07,0.01,-1.20,-0.53,-0.12,-1.68,
0.611,-2.07,0.01,-1.20,-0.54,-0.13,-1.68,
0.611,-2.07,0.01,-1.20,-0.55,-0.15,-1.68,
0.611,-2.32,0.14,-1.79,-0.55,-0.15,-1.68,
0.611,-2.32,0.14,-1.79,-0.56,-0.18,-1.68,
0.611,-2.32,0.14,-1.79,-0.57,-0.20,-1.69,
0.614,-2.32,0.14,-1.79,-0.58,-0.23,-1.69,
0.615,-2.32,0.14,-1.79,-0.60,-0.26,-1.70,
0.618,-2.32,0.14,-1.79,-0.61,-0.29,-1.71,
0.62,-2.41,0.36,-2.17,-0.61,-0.29,-1.71,
0.621,-2.41,0.36,-2.17,-0.63,-0.33,-1.72,
0.64,-2.41,0.36,-2.17,-0.64,-0.37,-1.72,
0.64,-2.41,0.36,-2.17,-0.65,-0.41,-1.72,
0.64,-2.41,0.36,-2.17,-0.67,-0.45,-1.71,
0.64,-2.41,0.36,-2.17,-0.68,-0.49,-1.70,
0.64,-2.53,0.38,-2.23,-0.68,-0.49,-1.70,
0.641,-2.53,0.38,-2.23,-0.69,-0.53,-1.68,
0.641,-2.53,0.38,-2.23,-0.70,-0.56,-1.66,
0.641,-2.53,0.38,-2.23,-0.71,-0.59,-1.63,
0.641,-2.53,0.38,-2.23,-0.71,-0.61,-1.60,
0.641,-2.53,0.38,-2.23,-0.71,-0.63,-1.58,
0.642,-2.81,0.40,-1.62,-0.71,-0.63,-1.58,
0.642,-2.81,0.40,-1.62,-0.70,-0.64,-1.55,
0.642,-2.81,0.40,-1.62,-0.70,-0.65,-1.53,
0.644,-2.81,0.40,-1.62,-0.69,-0.65,-1.50,
0.647,-2.81,0.40,-1.62,-0.68,-0.65,-1.48,
0.649,-2.81,0.40,-1.62,-0.66,-0.65,-1.46,
0.65,-2.74,0.43,-0.70,-0.66,-0.65,-1.46,
0.65,-2.74,0.43,-0.70,-0.64,-0.64,-1.44,
0.652,-2.74,0.43,-0.70,-0.63,-0.64,-1.42,
0.654,-2.74,0.43,-0.70,-0.61,-0.63,-1.40,
0.656,-2.74,0.43,-0.70,-0.59,-0.61,-1.38,
0.667,-2.74,0.43,-0.70,-0.57,-0.59,-1.36,
0.668,-2.54,0.42,-0.15,-0.57,-0.59,-1.36,
0.668,-2.54,0.42,-0.15,-0.56,-0.57,-1.35,
0.668,-2.54,0.42,-0.15,-0.54,-0.56,-1.33,
0.668,-2.54,0.42,-0.15,-0.53,-0.54,-1.33,
0.668,-2.54,0.42,-0.15,-0.52,-0.53,-1.32,
0.668,-2.54,0.42,-0.15,-0.50,-0.53,-1.32,
0.672,-2.17,0.39,0.12,-0.50,-0.53,-1.32,
0.672,-2.17,0.39,0.12,-0.50,-0.53,-1.32,
0.673,-2.17,0.39,0.12,-0.49,-0.54,-1.32,
0.674,-2.17,0.39,0.12,-0.48,-0.54,-1.33,
0.676,-2.17,0.39,0.12,-0.47,-0.54,-1.33,
0.68,-2.17,0.39,0.12,-0.47,-0.55,-1.33,
0.68,-1.97,0.61,0.27,-0.47,-0.55,-1.33,
0.682,-1.97,0.61,0.27,-0.47,-0.56,-1.34,
0.683,-1.97,0.61,0.27,-0.46,-0.56,-1.36,
0.684,-1.97,0.61,0.27,-0.46,-0.57,-1.37,
0.685,-1.97,0.61,0.27,-0.46,-0.58,-1.39,
0.688,-1.97,0.61,0.27,-0.45,-0.59,-1.41,
0.691,-1.67,0.83,0.51,-0.45,-0.59,-1.41,
0.692,-1.67,0.83,0.51,-0.44,-0.60,-1.43,
0.692,-1.67,0.83,0.51,-0.44,-0.61,-1.44,
0.693,-1.67,0.83,0.51,-0.43,-0.62,-1.46,
0.695,-1.67,0.83,0.51,-0.43,-0.64,-1.47,
0.698,-1.67,0.83,0.51,-0.43,-0.66,-1.49,
0.701,-1.55,0.94,0.71,-0.43,-0.66,-1.49,
0.701,-1.55,0.94,0.71,-0.43,-0.68,-1.50,
0.701,-1.55,0.94,0.71,-0.43,-0.70,-1.52,
0.704,-1.55,0.94,0.71,-0.43,-0.73,-1.53,
0.706,-1.55,0.94,0.71,-0.43,-0.75,-1.54,
0.708,-1.55,0.94,0.71,-0.44,-0.77,-1.55,
0.71,-1.40,0.94,0.74,-0.44,-0.77,-1.55,
0.71,-1.40,0.94,0.74,-0.44,-0.79,-1.56,
0.712,-1.40,0.94,0.74,-0.45,-0.80,-1.57,
0.714,-1.40,0.94,0.74,-0.45,-0.82,-1.58,
0.716,-1.40,0.94,0.74,-0.46,-0.83,-1.59,
0.718,-1.40,0.94,0.74,-0.47,-0.85,-1.60,
0.72,-1.39,0.89,0.83,-0.47,-0.85,-1.60,
0.72,-1.39,0.89,0.83,-0.48,-0.85,-1.61,
0.722,-1.39,0.89,0.83,-0.48,-0.85,-1.61,
0.724,-1.39,0.89,0.83,-0.49,-0.85,-1.62,
0.725,-1.39,0.89,0.83,-0.50,-0.84,-1.63,
0.728,-1.39,0.89,0.83,-0.50,-0.84,-1.63,
0.73,-1.42,0.81,1.20,-0.50,-0.84,-1.63,
0.73,-1.42,0.81,1.20,-0.51,-0.83,-1.63,
0.732,-1.42,0.81,1.20,-0.51,-0.81,-1.64,
0.733,-1.42,0.81,1.20,-0.52,-0.79,-1.64,
0.735,-1.42,0.81,1.20,-0.52,-0.78,-1.64,
0.741,-1.42,0.81,1.20,-0.53,-0.73,-1.64,
0.741,-1.42,0.81,1.20,-0.53,-0.73,-1.64,
0.744,-1.43,0.70,1.50,-0.53,-0.73,-1.64,
0.744,-1.43,0.70,1.50,-0.53,-0.70,-1.64,
0.744,-1.43,0.70,1.50,-0.52,-0.67,-1.64,
0.745,-1.43,0.70,1.50,-0.52,-0.64,-1.64,
0.748,-1.43,0.70,1.50,-0.52,-0.60,-1.64,
0.75,-1.38,0.62,1.82,-0.52,-0.60,-1.64,
0.75,-1.38,0.62,1.82,-0.51,-0.56,-1.64,
0.752,-1.38,0.62,1.82,-0.50,-0.53,-1.64,
0.754,-1.38,0.62,1.82,-0.49,-0.49,-1.64,
0.755,-1.38,0.62,1.82,-0.48,-0.46,-1.64,
0.758,-1.38,0.62,1.82,-0.47,-0.42,-1.63,
0.76,-1.26,0.57,2.08,-0.47,-0.42,-1.63,
0.76,-1.26,0.57,2.08,-0.46,-0.38,-1.64,
0.761,-1.26,0.57,2.08,-0.45,-0.35,-1.64,
0.764,-1.26,0.57,2.08,-0.44,-0.31,-1.64,
0.765,-1.26,0.57,2.08,-0.42,-0.28,-1.65,
0.768,-1.26,0.57,2.08,-0.41,-0.26,-1.66,
0.77,-1.01,0.54,2.22,-0.41,-0.26,-1.66,
0.77,-1.01,0.54,2.22,-0.39,-0.23,-1.67,
0.772,-1.01,0.54,2.22,-0.37,-0.21,-1.69,
0.774,-1.01,0.54,2.22,-0.35,-0.20,-1.70,
0.776,-1.01,0.54,2.22,-0.34,-0.19,-1.71,
0.778,-1.01,0.54,2.22,-0.31,-0.18,-1.73,
0.78,-0.85,0.59,2.35,-0.31,-0.18,-1.73,
0.78,-0.85,0.59,2.35,-0.29,-0.17,-1.74,
0.782,-0.85,0.59,2.35,-0.27,-0.17,-1.75,
0.784,-0.85,0.59,2.35,-0.25,-0.16,-1.77,
0.786,-0.85,0.59,2.35,-0.23,-0.16,-1.78,
0.788,-0.85,0.59,2.35,-0.21,-0.16,-1.79,
0.791,-0.73,0.62,2.31,-0.21,-0.16,-1.79,
0.791,-0.73,0.62,2.31,-0.19,-0.15,-1.81,
0.792,-0.73,0.62,2.31,-0.18,-0.15,-1.82,
0.794,-0.73,0.62,2.31,-0.16,-0.14,-1.83,
0.796,-0.73,0.62,2.31,-0.15,-0.14,-1.85,
0.798,-0.73,0.62,2.31,-0.13,-0.14,-1.86,
0.8,-0.75,0.54,2.12,-0.13,-0.14,-1.86,
0.801,-0.75,0.54,2.12,-0.11,-0.14,-1.87,
0.801,-0.75,0.54,2.12,-0.10,-0.14,-1.88,
0.804,-0.75,0.54,2.12,-0.08,-0.14,-1.89,
0.806,-0.75,0.54,2.12,-0.07,-0.13,-1.90,
0.808,-0.75,0.54,2.12,-0.05,-0.13,-1.91,
0.81,-0.87,0.49,1.92,-0.05,-0.13,-1.91,
0.81,-0.87,0.49,1.92,-0.04,-0.12,-1.91,
0.811,-0.87,0.49,1.92,-0.03,-0.11,-1.92,
0.813,-0.87,0.49,1.92,-0.02,-0.11,-1.92,
0.815,-0.87,0.49,1.92,-0.01,-0.11,-1.93,
0.818,-0.87,0.49,1.92,0.01,-0.10,-1.93,
0.821,-1.07,0.42,1.62,0.01,-0.10,-1.93,
0.821,-1.07,0.42,1.62,0.02,-0.11,-1.94,
0.824,-1.07,0.42,1.62,0.02,-0.11,-1.94,
0.835,-1.07,0.42,1.62,0.04,-0.11,-1.94,
0.835,-1.07,0.42,1.62,0.04,-0.12,-1.94,
0.835,-1.07,0.42,1.62,0.05,-0.13,-1.94,
0.835,-1.20,0.37,1.35,0.05,-0.13,-1.94,
0.836,-1.20,0.37,1.35,0.06,-0.14,-1.94,
0.836,-1.20,0.37,1.35,0.07,-0.15,-1.94,
0.836,-1.20,0.37,1.35,0.08,-0.16,-1.93,
0.837,-1.20,0.37,1.35,0.09,-0.18,-1.93,
0.842,-1.20,0.37,1.35,0.10,-0.19,-1.93,
0.842,-1.30,0.29,1.13,0.10,-0.19,-1.93,
0.842,-1.30,0.29,1.13,0.11,-0.22,-1.92,
0.843,-1.30,0.29,1.13,0.12,-0.24,-1.92,
0.844,-1.30,0.29,1.13,0.13,-0.26,-1.91,
0.849,-1.30,0.29,1.13,0.15,-0.27,-1.90,
0.849,-1.30,0.29,1.13,0.16,-0.29,-1.89,
0.85,-1.26,0.18,1.07,0.16,-0.29,-1.89,
0.85,-1.26,0.18,1.07,0.17,-0.31,-1.89,
0.852,-1.26,0.18,1.07,0.18,-0.33,-1.88,
0.853,-1.26,0.18,1.07,0.20,-0.34,-1.87,
0.857,-1.26,0.18,1.07,0.21,-0.36,-1.86,
0.858,-1.26,0.18,1.07,0.23,-0.37,-1.86,
0.86,-1.18,0.07,1.04,0.23,-0.37,-1.86,
0.86,-1.18,0.07,1.04,0.24,-0.39,-1.85,
0.862,-1.18,0.07,1.04,0.26,-0.40,-1.84,
0.863,-1.18,0.07,1.04,0.27,-0.42,-1.83,
0.865,-1.18,0.07,1.04,0.29,-0.43,-1.82,
0.868,-1.18,0.07,1.04,0.30,-0.44,-1.81,
0.87,-1.02,0.05,0.95,0.30,-0.44,-1.81,
0.87,-1.02,0.05,0.95,0.32,-0.46,-1.80,
0.872,-1.02,0.05,0.95,0.33,-0.47,-1.79,
0.874,-1.02,0.05,0.95,0.35,-0.48,-1.79,
0.875,-1.02,0.05,0.95,0.36,-0.49,-1.78,
0.877,-1.02,0.05,0.95,0.37,-0.49,-1.77,
0.88,-0.79,0.02,0.66,0.37,-0.49,-1.77,
0.88,-0.79,0.02,0.66,0.38,-0.49,-1.76,
0.881,-0.79,0.02,0.66,0.39,-0.49,-1.75,
0.883,-0.79,0.02,0.66,0.40,-0.49,-1.75,
0.886,-0.79,0.02,0.66,0.40,-0.49,-1.74,
0.889,-0.79,0.02,0.66,0.41,-0.48,-1.74,
0.891,-0.59,-0.05,0.26,0.41,-0.48,-1.74,
0.891,-0.59,-0.05,0.26,0.41,-0.48,-1.74,
0.891,-0.59,-0.05,0.26,0.42,-0.47,-1.74,
0.894,-0.59,-0.05,0.26,0.42,-0.47,-1.73,
0.895,-0.59,-0.05,0.26,0.42,-0.46,-1.73,
0.898,-0.59,-0.05,0.26,0.42,-0.46,-1.73,
0.9,-0.39,-0.04,-0.20,0.42,-0.46,-1.73,
0.9,-0.39,-0.04,-0.20,0.42,-0.46,-1.73,
0.902,-0.39,-0.04,-0.20,0.42,-0.46,-1.73,
0.904,-0.39,-0.04,-0.20,0.41,-0.45,-1.73,
0.906,-0.39,-0.04,-0.20,0.41,-0.45,-1.73,
0.908,-0.39,-0.04,-0.20,0.40,-0.45,-1.74,
0.911,-0.22,-0.05,-0.61,0.40,-0.45,-1.74,
0.911,-0.22,-0.05,-0.61,0.39,-0.45,-1.74,
0.913,-0.22,-0.05,-0.61,0.38,-0.45,-1.75,
0.914,-0.22,-0.05,-0.61,0.38,-0.46,-1.76,
0.916,-0.22,-0.05,-0.61,0.37,-0.46,-1.77,
0.919,-0.22,-0.05,-0.61,0.36,-0.46,-1.78,
0.922,-0.04,-0.11,-0.91,0.36,-0.46,-1.78,
0.924,-0.04,-0.11,-0.91,0.35,-0.47,-1.79,
0.924,-0.04,-0.11,-0.91,0.34,-0.47,-1.79,
0.925,-0.04,-0.11,-0.91,0.33,-0.48,-1.80,
0.927,-0.04,-0.11,-0.91,0.32,-0.48,-1.80,
0.928,-0.04,-0.11,-0.91,0.31,-0.48,-1.80,
0.93,-0.32,-0.03,-1.00,0.31,-0.48,-1.80,
0.931,-0.32,-0.03,-1.00,0.30,-0.48,-1.80,
0.932,-0.32,-0.03,-1.00,0.29,-0.48,-1.80,
0.934,-0.32,-0.03,-1.00,0.28,-0.49,-1.80,
0.936,-0.32,-0.03,-1.00,0.27,-0.49,-1.79,
0.94,-0.32,-0.03,-1.00,0.26,-0.50,-1.78,
0.943,-0.76,-0.05,-1.08,0.26,-0.50,-1.78,
0.943,-0.76,-0.05,-1.08,0.24,-0.50,-1.76,
0.943,-0.76,-0.05,-1.08,0.23,-0.51,-1.74,
0.944,-0.76,-0.05,-1.08,0.22,-0.52,-1.73,
0.946,-0.76,-0.05,-1.08,0.21,-0.54,-1.71,
0.948,-0.76,-0.05,-1.08,0.19,-0.55,-1.69,
0.95,-1.15,-0.16,-0.96,0.19,-0.55,-1.69,
0.95,-1.15,-0.16,-0.96,0.18,-0.56,-1.66,
0.952,-1.15,-0.16,-0.96,0.17,-0.57,-1.64,
0.955,-1.15,-0.16,-0.96,0.16,-0.58,-1.61,
0.956,-1.15,-0.16,-0.96,0.15,-0.59,-1.59,
0.958,-1.15,-0.16,-0.96,0.15,-0.60,-1.56,
0.96,-1.33,-0.29,-0.64,0.15,-0.60,-1.56,
0.961,-1.33,-0.29,-0.64,0.14,-0.60,-1.54,
0.962,-1.33,-0.29,-0.64,0.14,-0.61,-1.52,
0.964,-1.33,-0.29,-0.64,0.13,-0.62,-1.50,
0.966,-1.33,-0.29,-0.64,0.13,-0.63,-1.47,
0.968,-1.33,-0.29,-0.64,0.13,-0.63,-1.45,
0.97,-1.17,-0.41,-0.21,0.13,-0.63,-1.45,
0.971,-1.17,-0.41,-0.21,0.14,-0.64,-1.43,
0.972,-1.17,-0.41,-0.21,0.14,-0.65,-1.41,
0.974,-1.17,-0.41,-0.21,0.14,-0.65,-1.39,
0.977,-1.17,-0.41,-0.21,0.15,-0.66,-1.37,
0.978,-1.17,-0.41,-0.21,0.15,-0.66,-1.36,
0.98,-0.94,-0.39,0.17,0.15,-0.66,-1.36,
0.98,-0.94,-0.39,0.17,0.16,-0.66,-1.34,
0.982,-0.94,-0.39,0.17,0.17,-0.67,-1.33,
0.984,-0.94,-0.39,0.17,0.17,-0.68,-1.31,
0.986,-0.94,-0.39,0.17,0.17,-0.69,-1.30,
0.999,-0.94,-0.39,0.17,0.17,-0.71,-1.30,
0.999,-0.64,-0.29,0.34,0.17,-0.71,-1.30,
1.027,-0.64,-0.29,0.34,0.18,-0.73,-1.29,
1.027,-0.64,-0.29,0.34,0.18,-0.75,-1.29,
1.028,-0.64,-0.29,0.34,0.18,-0.77,-1.28,
1.028,-0.64,-0.29,0.34,0.17,-0.80,-1.28,
1.028,-0.64,-0.29,0.34,0.17,-0.83,-1.28,
1.029,-0.37,-0.10,0.46,0.17,-0.83,-1.28,
1.029,-0.37,-0.10,0.46,0.16,-0.85,-1.28,
1.029,-0.37,-0.10,0.46,0.15,-0.88,-1.28,
1.029,-0.37,-0.10,0.46,0.13,-0.91,-1.28,
1.03,-0.37,-0.10,0.46,0.12,-0.95,-1.27,
1.03,-0.37,-0.10,0.46,0.10,-0.98,-1.28,
1.03,-0.04,0.04,0.61,0.10,-0.98,-1.28,
1.031,-0.04,0.04,0.61,0.08,-1.01,-1.28,
1.031,-0.04,0.04,0.61,0.06,-1.04,-1.28,
1.031,-0.04,0.04,0.61,0.03,-1.07,-1.29,
1.031,-0.04,0.04,0.61,0.00,-1.09,-1.30,
1.032,-0.04,0.04,0.61,-0.02,-1.12,-1.30,
1.032,0.40,0.07,0.98,-0.02,-1.12,-1.30,
1.032,0.40,0.07,0.98,-0.05,-1.13,-1.31,
1.032,0.40,0.07,0.98,-0.07,-1.14,-1.32,
1.033,0.40,0.07,0.98,-0.10,-1.15,-1.33,
1.033,0.40,0.07,0.98,-0.12,-1.15,-1.34,
1.033,0.40,0.07,0.98,-0.15,-1.15,-1.35,
1.034,0.76,-0.06,1.59,-0.15,-1.15,-1.35,
1.034,0.76,-0.06,1.59,-0.17,-1.14,-1.36,
1.034,0.76,-0.06,1.59,-0.19,-1.13,-1.37,
1.04,0.76,-0.06,1.59,-0.21,-1.11,-1.38,
1.04,0.76,-0.06,1.59,-0.22,-1.09,-1.38,
1.041,0.76,-0.06,1.59,-0.23,-1.07,-1.39,
1.041,1.02,-0.52,2.46,-0.23,-1.07,-1.39,
1.041,1.02,-0.52,2.46,-0.24,-1.04,-1.39,
1.042,1.02,-0.52,2.46,-0.24,-1.01,-1.39,
1.044,1.02,-0.52,2.46,-0.24,-0.98,-1.40,
1.046,1.02,-0.52,2.46,-0.24,-0.94,-1.40,
1.048,1.02,-0.52,2.46,-0.24,-0.91,-1.40,
1.051,1.05,-0.92,3.31,-0.24,-0.91,-1.40,
1.051,1.05,-0.92,3.31,-0.23,-0.87,-1.40,
1.052,1.05,-0.92,3.31,-0.21,-0.82,-1.40,
1.056,1.05,-0.92,3.31,-0.20,-0.78,-1.40,
1.056,1.05,-0.92,3.31,-0.18,-0.73,-1.40,
1.058,1.05,-0.92,3.31,-0.15,-0.68,-1.40,
1.06,1.01,-1.37,3.93,-0.15,-0.68,-1.40,
1.06,1.01,-1.37,3.93,-0.12,-0.63,-1.40,
1.062,1.01,-1.37,3.93,-0.09,-0.58,-1.39,
1.064,1.01,-1.37,3.93,-0.06,-0.53,-1.39,
1.066,1.01,-1.37,3.93,-0.02,-0.48,-1.38,
1.068,1.01,-1.37,3.93,0.02,-0.42,-1.37,
1.071,0.65,-1.64,4.14,0.02,-0.42,-1.37,
1.072,0.65,-1.64,4.14,0.07,-0.37,-1.36,
1.073,0.65,-1.64,4.14,0.11,-0.32,-1.35,
1.075,0.65,-1.64,4.14,0.16,-0.28,-1.33,
1.076,0.65,-1.64,4.14,0.21,-0.23,-1.32,
1.078,0.65,-1.64,4.14,0.26,-0.19,-1.31,
1.08,0.25,-1.77,3.75,0.26,-0.19,-1.31,
1.081,0.25,-1.77,3.75,0.31,-0.16,-1.29,
1.082,0.25,-1.77,3.75,0.36,-0.13,-1.28,
1.084,0.25,-1.77,3.75,0.41,-0.10,-1.27,
1.086,0.25,-1.77,3.75,0.46,-0.07,-1.25,
1.089,0.25,-1.77,3.75,0.50,-0.05,-1.24,
1.091,0.02,-1.62,2.82,0.50,-0.05,-1.24,
1.091,0.02,-1.62,2.82,0.55,-0.04,-1.23,
1.092,0.02,-1.62,2.82,0.59,-0.03,-1.22,
1.094,0.02,-1.62,2.82,0.63,-0.02,-1.21,
1.096,0.02,-1.62,2.82,0.67,-0.02,-1.20,
1.098,0.02,-1.62,2.82,0.70,-0.02,-1.19,
1.102,-0.01,-1.54,1.50,0.70,-0.02,-1.19,
1.103,-0.01,-1.54,1.50,0.73,-0.03,-1.18,
1.104,-0.01,-1.54,1.50,0.76,-0.05,-1.18,
1.11,-0.01,-1.54,1.50,0.78,-0.06,-1.18,
1.111,-0.01,-1.54,1.50,0.80,-0.08,-1.18,
1.112,-0.01,-1.54,1.50,0.81,-0.11,-1.18,
1.112,-0.02,-1.21,0.07,0.81,-0.11,-1.18,
1.112,-0.02,-1.21,0.07,0.82,-0.15,-1.18,
1.113,-0.02,-1.21,0.07,0.83,-0.18,-1.18,
1.115,-0.02,-1.21,0.07,0.83,-0.22,-1.18,
1.117,-0.02,-1.21,0.07,0.82,-0.26,-1.18,
1.119,-0.02,-1.21,0.07,0.81,-0.30,-1.18,
1.125,-0.05,-0.86,-1.42,0.81,-0.30,-1.18,
1.126,-0.05,-0.86,-1.42,0.79,-0.34,-1.19,
1.126,-0.05,-0.86,-1.42,0.77,-0.38,-1.19,
1.126,-0.05,-0.86,-1.42,0.74,-0.43,-1.19,
1.126,-0.05,-0.86,-1.42,0.71,-0.47,-1.19,
1.128,-0.05,-0.86,-1.42,0.67,-0.52,-1.19,
1.161,-0.14,-0.69,-2.39,0.67,-0.52,-1.19,
1.162,-0.14,-0.69,-2.39,0.63,-0.56,-1.19,
1.162,-0.14,-0.69,-2.39,0.59,-0.60,-1.19,
1.162,-0.14,-0.69,-2.39,0.54,-0.64,-1.19,
1.162,-0.14,-0.69,-2.39,0.50,-0.67,-1.18,
1.162,-0.14,-0.69,-2.39,0.44,-0.70,-1.18,
1.163,-0.22,-0.54,-2.94,0.44,-0.70,-1.18,
1.163,-0.22,-0.54,-2.94,0.39,-0.73,-1.17,
1.163,-0.22,-0.54,-2.94,0.34,-0.75,-1.16,
1.163,-0.22,-0.54,-2.94,0.28,-0.78,-1.16,
1.163,-0.22,-0.54,-2.94,0.23,-0.80,-1.15,
1.164,-0.22,-0.54,-2.94,0.18,-0.81,-1.14,
1.164,-0.13,-0.48,-2.81,0.18,-0.81,-1.14,
1.164,-0.13,-0.48,-2.81,0.13,-0.82,-1.14,
1.164,-0.13,-0.48,-2.81,0.08,-0.83,-1.13,
1.164,-0.13,-0.48,-2.81,0.03,-0.82,-1.13,
1.164,-0.13,-0.48,-2.81,-0.01,-0.81,-1.13,
1.183,-0.13,-0.48,-2.81,-0.05,-0.80,-1.13,
1.184,0.34,-0.58,-2.10,-0.05,-0.80,-1.13,
1.184,0.34,-0.58,-2.10,-0.09,-0.78,-1.13,
1.184,0.34,-0.58,-2.10,-0.12,-0.75,-1.13,
1.184,0.34,-0.58,-2.10,-0.16,-0.72,-1.13,
1.185,0.34,-0.58,-2.10,-0.18,-0.69,-1.13,
1.185,0.34,-0.58,-2.10,-0.21,-0.65,-1.13,
1.185,0.72,-0.68,-1.26,-0.21,-0.65,-1.13,
1.185,0.72,-0.68,-1.26,-0.23,-0.61,-1.13,
1.186,0.72,-0.68,-1.26,-0.25,-0.57,-1.14,
1.186,0.72,-0.68,-1.26,-0.26,-0.53,-1.14,
1.186,0.72,-0.68,-1.26,-0.27,-0.49,-1.14,
1.186,0.72,-0.68,-1.26,-0.28,-0.45,-1.15,
1.186,0.89,-0.78,-0.49,-0.28,-0.45,-1.15,
1.187,0.89,-0.78,-0.49,-0.29,-0.41,-1.15,
1.187,0.89,-0.78,-0.49,-0.29,-0.37,-1.15,
1.187,0.89,-0.78,-0.49,-0.29,-0.34,-1.15,
1.187,0.89,-0.78,-0.49,-0.29,-0.31,-1.15,
1.192,0.89,-0.78,-0.49,-0.29,-0.28,-1.14,
1.192,0.70,-0.79,0.02,-0.29,-0.28,-1.14,
1.193,0.70,-0.79,0.02,-0.28,-0.25,-1.14,
1.193,0.70,-0.79,0.02,-0.27,-0.23,-1.14,
1.194,0.70,-0.79,0.02,-0.26,-0.21,-1.14,
1.196,0.70,-0.79,0.02,-0.25,-0.19,-1.14,
1.198,0.70,-0.79,0.02,-0.24,-0.18,-1.14,
1.201,0.46,-0.77,0.28,-0.24,-0.18,-1.14,
1.201,0.46,-0.77,0.28,-0.22,-0.16,-1.13,
1.202,0.46,-0.77,0.28,-0.20,-0.16,-1.13,
1.205,0.46,-0.77,0.28,-0.18,-0.15,-1.13,
1.206,0.46,-0.77,0.28,-0.16,-0.15,-1.13,
1.209,0.46,-0.77,0.28,-0.14,-0.15,-1.12,
1.21,0.27,-0.59,0.29,-0.14,-0.15,-1.12,
1.21,0.27,-0.59,0.29,-0.12,-0.15,-1.12,
1.211,0.27,-0.59,0.29,-0.10,-0.16,-1.12,
1.214,0.27,-0.59,0.29,-0.09,-0.16,-1.11,
1.215,0.27,-0.59,0.29,-0.07,-0.17,-1.11,
1.218,0.27,-0.59,0.29,-0.06,-0.18,-1.11,
1.226,0.16,-0.45,0.01,-0.06,-0.18,-1.11,
1.227,0.16,-0.45,0.01,-0.04,-0.18,-1.11,
1.227,0.16,-0.45,0.01,-0.03,-0.20,-1.11,
1.227,0.16,-0.45,0.01,-0.02,-0.21,-1.11,
1.227,0.16,-0.45,0.01,-0.01,-0.21,-1.11,
1.228,0.16,-0.45,0.01,-0.00,-0.22,-1.10,
1.23,0.06,-0.29,-0.44,-0.00,-0.22,-1.10,
1.231,0.06,-0.29,-0.44,0.00,-0.23,-1.10,
1.233,0.06,-0.29,-0.44,0.01,-0.23,-1.10,
1.235,0.06,-0.29,-0.44,0.01,-0.24,-1.10,
1.235,0.06,-0.29,-0.44,0.01,-0.24,-1.09,
1.252,0.06,-0.29,-0.44,0.01,-0.25,-1.08,
1.252,0.06,-0.29,-0.44,0.01,-0.25,-1.07,
1.252,0.06,-0.29,-0.44,0.01,-0.25,-1.07,
1.252,-0.15,-0.14,-1.07,0.01,-0.25,-1.07,
1.252,-0.15,-0.14,-1.07,0.00,-0.25,-1.05,
1.253,-0.15,-0.14,-1.07,0.00,-0.25,-1.05,
1.253,-0.15,-0.14,-1.07,-0.01,-0.25,-1.03,
1.253,-0.26,-0.13,-1.29,-0.01,-0.25,-1.03,
1.253,-0.26,-0.13,-1.29,-0.02,-0.24,-1.02,
1.253,-0.26,-0.13,-1.29,-0.03,-0.24,-1.00,
1.261,-0.26,-0.13,-1.29,-0.04,-0.23,-0.99,
1.262,-0.26,-0.13,-1.29,-0.05,-0.23,-0.98,
1.262,-0.26,-0.13,-1.29,-0.06,-0.22,-0.96,
1.262,-0.39,-0.09,-1.58,-0.06,-0.22,-0.96,
1.262,-0.39,-0.09,-1.58,-0.07,-0.21,-0.95,
1.262,-0.39,-0.09,-1.58,-0.08,-0.20,-0.93,
1.264,-0.39,-0.09,-1.58,-0.10,-0.18,-0.92,
1.266,-0.39,-0.09,-1.58,-0.11,-0.18,-0.90,
1.268,-0.39,-0.09,-1.58,-0.12,-0.17,-0.89,
1.27,-0.41,-0.09,-1.66,-0.12,-0.17,-0.89,
1.27,-0.41,-0.09,-1.66,-0.13,-0.16,-0.88,
1.271,-0.41,-0.09,-1.66,-0.14,-0.14,-0.87,
1.274,-0.41,-0.09,-1.66,-0.15,-0.13,-0.86,
1.276,-0.41,-0.09,-1.66,-0.15,-0.12,-0.85,
1.278,-0.41,-0.09,-1.66,-0.16,-0.12,-0.84,
1.28,-0.44,0.03,-1.55,-0.16,-0.12,-0.84,
1.28,-0.44,0.03,-1.55,-0.17,-0.11,-0.83,
1.281,-0.44,0.03,-1.55,-0.17,-0.10,-0.82,
1.284,-0.44,0.03,-1.55,-0.17,-0.10,-0.81,
1.286,-0.44,0.03,-1.55,-0.17,-0.09,-0.80,
1.288,-0.44,0.03,-1.55,-0.17,-0.09,-0.79,
1.29,-0.56,0.20,-1.36,-0.17,-0.09,-0.79,
1.29,-0.56,0.20,-1.36,-0.17,-0.09,-0.79,
1.292,-0.56,0.20,-1.36,-0.17,-0.09,-0.77,
1.294,-0.56,0.20,-1.36,-0.17,-0.10,-0.77,
1.296,-0.56,0.20,-1.36,-0.16,-0.11,-0.76,
1.298,-0.56,0.20,-1.36,-0.16,-0.12,-0.75,
1.301,-0.60,0.45,-1.14,-0.16,-0.12,-0.75,
1.301,-0.60,0.45,-1.14,-0.15,-0.13,-0.74,
1.302,-0.60,0.45,-1.14,-0.14,-0.15,-0.73,
1.304,-0.60,0.45,-1.14,-0.14,-0.16,-0.72,
1.306,-0.60,0.45,-1.14,-0.13,-0.18,-0.72,
1.308,-0.60,0.45,-1.14,-0.12,-0.19,-0.71,
1.31,-0.46,0.70,-0.94,-0.12,-0.19,-0.71,
1.31,-0.46,0.70,-0.94,-0.12,-0.21,-0.71,
1.312,-0.46,0.70,-0.94,-0.11,-0.23,-0.70,
1.314,-0.46,0.70,-0.94,-0.10,-0.24,-0.70,
1.315,-0.46,0.70,-0.94,-0.09,-0.25,-0.70,
1.318,-0.46,0.70,-0.94,-0.09,-0.26,-0.69,
1.32,-0.22,0.91,-0.83,-0.09,-0.26,-0.69,
1.32,-0.22,0.91,-0.83,-0.08,-0.28,-0.69,
1.322,-0.22,0.91,-0.83,-0.07,-0.29,-0.69,
1.338,-0.22,0.91,-0.83,-0.06,-0.30,-0.69,
1.338,-0.22,0.91,-0.83,-0.06,-0.31,-0.69,
1.339,-0.22,0.91,-0.83,-0.05,-0.31,-0.68,
1.339,0.01,0.97,-0.80,-0.05,-0.31,-0.68,
1.339,0.01,0.97,-0.80,-0.04,-0.32,-0.68,
1.34,0.01,0.97,-0.80,-0.04,-0.32,-0.68,
1.34,0.01,0.97,-0.80,-0.04,-0.33,-0.68,
1.341,0.01,0.97,-0.80,-0.04,-0.33,-0.67,
1.341,0.01,0.97,-0.80,-0.04,-0.33,-0.67,
1.341,0.16,0.99,-0.91,-0.04,-0.33,-0.67,
1.342,0.16,0.99,-0.91,-0.04,-0.33,-0.67,
1.342,0.16,0.99,-0.91,-0.04,-0.33,-0.67,
1.347,0.16,0.99,-0.91,-0.05,-0.32,-0.67,
1.348,0.16,0.99,-0.91,-0.05,-0.31,-0.67,
1.348,0.16,0.99,-0.91,-0.06,-0.31,-0.67,
1.352,0.20,1.02,-1.06,-0.06,-0.31,-0.67,
1.352,0.20,1.02,-1.06,-0.07,-0.30,-0.67,
1.353,0.20,1.02,-1.06,-0.08,-0.30,-0.67,
1.354,0.20,1.02,-1.06,-0.09,-0.29,-0.67,
1.356,0.20,1.02,-1.06,-0.10,-0.28,-0.67,
1.358,0.20,1.02,-1.06,-0.11,-0.28,-0.66,
1.361,0.16,1.11,-1.14,-0.11,-0.28,-0.66,
1.361,0.16,1.11,-1.14,-0.12,-0.27,-0.66,
1.364,0.16,1.11,-1.14,-0.14,-0.27,-0.65,
1.364,0.16,1.11,-1.14,-0.15,-0.26,-0.65,
1.367,0.16,1.11,-1.14,-0.16,-0.25,-0.64,
1.368,0.16,1.11,-1.14,-0.17,-0.25,-0.64,
1.378,0.06,1.11,-1.06,-0.17,-0.25,-0.64,
1.379,0.06,1.11,-1.06,-0.18,-0.24,-0.63,
1.379,0.06,1.11,-1.06,-0.19,-0.24,-0.62,
1.38,0.06,1.11,-1.06,-0.20,-0.23,-0.62,
1.38,0.06,1.11,-1.06,-0.21,-0.23,-0.61,
1.38,0.06,1.11,-1.06,-0.22,-0.22,-0.61,
1.383,0.02,1.16,-0.79,-0.22,-0.22,-0.61,
1.384,0.02,1.16,-0.79,-0.23,-0.22,-0.60,
1.384,0.02,1.16,-0.79,-0.23,-0.21,-0.60,
1.385,0.02,1.16,-0.79,-0.24,-0.21,-0.59,
1.403,0.02,1.16,-0.79,-0.24,-0.21,-0.58,
1.404,0.02,1.16,-0.79,-0.23,-0.20,-0.58,
1.404,-0.03,1.10,-0.42,-0.23,-0.20,-0.58,
1.404,-0.03,1.10,-0.42,-0.23,-0.20,-0.57,
1.404,-0.03,1.10,-0.42,-0.23,-0.20,-0.56,
1.405,-0.03,1.10,-0.42,-0.22,-0.19,-0.56,
1.405,-0.03,1.10,-0.42,-0.21,-0.19,-0.55,
1.405,-0.03,1.10,-0.42,-0.20,-0.19,-0.54,
1.405,-0.13,1.11,0.02,-0.20,-0.19,-0.54,
1.406,-0.13,1.11,0.02,-0.19,-0.19,-0.52,
1.406,-0.13,1.11,0.02,-0.17,-0.18,-0.52,
1.406,-0.13,1.11,0.02,-0.16,-0.17,-0.50,
1.406,-0.13,1.11,0.02,-0.14,-0.17,-0.49,
1.409,-0.13,1.11,0.02,-0.13,-0.16,-0.48,
1.41,-0.20,1.07,0.29,-0.13,-0.16,-0.48,
1.41,-0.20,1.07,0.29,-0.11,-0.16,-0.47,
1.413,-0.20,1.07,0.29,-0.09,-0.15,-0.46,
1.414,-0.20,1.07,0.29,-0.08,-0.14,-0.45,
1.416,-0.20,1.07,0.29,-0.06,-0.14,-0.44,
1.417,-0.20,1.07,0.29,-0.04,-0.14,-0.44,
1.42,-0.24,1.08,0.38,-0.04,-0.14,-0.44,
1.421,-0.24,1.08,0.38,-0.02,-0.14,-0.43,
1.422,-0.24,1.08,0.38,-0.00,-0.13,-0.42,
1.424,-0.24,1.08,0.38,0.02,-0.13,-0.41,
1.427,-0.24,1.08,0.38,0.04,-0.13,-0.40,
1.428,-0.24,1.08,0.38,0.05,-0.13,-0.39,
1.43,-0.25,1.06,0.35,0.05,-0.13,-0.39,
1.431,-0.25,1.06,0.35,0.07,-0.13,-0.38,
1.432,-0.25,1.06,0.35,0.09,-0.13,-0.37,
1.434,-0.25,1.06,0.35,0.10,-0.13,-0.36,
1.439,-0.25,1.06,0.35,0.12,-0.13,-0.35,
1.44,-0.25,1.06,0.35,0.13,-0.13,-0.34,
1.442,-0.37,1.08,0.20,0.13,-0.13,-0.34,
1.442,-0.37,1.08,0.20,0.14,-0.13,-0.33,
1.442,-0.37,1.08,0.20,0.15,-0.13,-0.32,
1.444,-0.37,1.08,0.20,0.16,-0.13,-0.31,
1.446,-0.37,1.08,0.20,0.17,-0.13,-0.30,
1.448,-0.37,1.08,0.20,0.18,-0.13,-0.29,
1.451,-0.46,1.09,-0.02,0.18,-0.13,-0.29,
1.451,-0.46,1.09,-0.02,0.19,-0.12,-0.28,
1.453,-0.46,1.09,-0.02,0.19,-0.12,-0.26,
1.456,-0.46,1.09,-0.02,0.19,-0.12,-0.25,
1.459,-0.46,1.09,-0.02,0.20,-0.11,-0.24,
1.46,-0.46,1.09,-0.02,0.20,-0.11,-0.23,
1.461,-0.54,1.07,-0.21,0.20,-0.11,-0.23,
1.461,-0.54,1.07,-0.21,0.20,-0.11,-0.22,
1.462,-0.54,1.07,-0.21,0.21,-0.11,-0.21,
1.464,-0.54,1.07,-0.21,0.21,-0.10,-0.20,
1.466,-0.54,1.07,-0.21,0.22,-0.10,-0.19,
1.469,-0.54,1.07,-0.21,0.22,-0.10,-0.17,
1.471,-0.60,0.99,-0.20,0.22,-0.10,-0.17,
1.472,-0.60,0.99,-0.20,0.23,-0.10,-0.17,
1.472,-0.60,0.99,-0.20,0.23,-0.10,-0.15,
1.475,-0.60,0.99,-0.20,0.24,-0.10,-0.14,
1.476,-0.60,0.99,-0.20,0.24,-0.10,-0.13,
1.478,-0.60,0.99,-0.20,0.25,-0.10,-0.11,
1.48,-0.73,0.91,-0.11,0.25,-0.10,-0.11,
1.481,-0.73,0.91,-0.11,0.26,-0.09,-0.10,
1.485,-0.73,0.91,-0.11,0.26,-0.09,-0.08,
1.485,-0.73,0.91,-0.11,0.27,-0.08,-0.06,
1.486,-0.73,0.91,-0.11,0.28,-0.08,-0.05,
1.49,-0.73,0.91,-0.11,0.28,-0.07,-0.04,
1.49,-0.73,0.79,-0.05,0.28,-0.07,-0.04,
1.515,-0.73,0.79,-0.05,0.29,-0.06,-0.02,
1.516,-0.73,0.79,-0.05,0.29,-0.05,-0.01,
1.516,-0.73,0.79,-0.05,0.29,-0.04,-0.00,
1.516,-0.73,0.79,-0.05,0.29,-0.03,0.01,
1.516,-0.73,0.79,-0.05,0.29,-0.02,0.01,
1.517,-0.70,0.71,-0.16,0.29,-0.02,0.01,
1.517,-0.70,0.71,-0.16,0.29,-0.01,0.02,
1.517,-0.70,0.71,-0.16,0.28,0.01,0.02,
1.518,-0.70,0.71,-0.16,0.27,0.02,0.02,
1.518,-0.70,0.71,-0.16,0.26,0.05,0.02,
1.518,-0.70,0.71,-0.16,0.24,0.08,0.02,
1.518,-0.65,0.66,-0.39,0.24,0.08,0.02,
1.519,-0.65,0.66,-0.39,0.22,0.11,0.03,
1.519,-0.65,0.66,-0.39,0.20,0.16,0.03,
1.519,-0.65,0.66,-0.39,0.17,0.21,0.03,
1.519,-0.65,0.66,-0.39,0.14,0.27,0.03,
1.52,-0.65,0.66,-0.39,0.10,0.33,0.04,
1.523,-0.68,0.54,-0.96,0.10,0.33,0.04,
1.524,-0.68,0.54,-0.96,0.05,0.40,0.04,
1.524,-0.68,0.54,-0.96,0.00,0.48,0.04,
1.524,-0.68,0.54,-0.96,-0.05,0.56,0.04,
1.526,-0.68,0.54,-0.96,-0.11,0.64,0.05,
1.528,-0.68,0.54,-0.96,-0.17,0.72,0.05,
1.53,-0.70,0.26,-1.66,-0.17,0.72,0.05,
1.531,-0.70,0.26,-1.66,-0.23,0.80,0.05,
1.533,-0.70,0.26,-1.66,-0.30,0.89,0.05,
1.534,-0.70,0.26,-1.66,-0.37,0.97,0.05,
1.542,-0.70,0.26,-1.66,-0.43,1.05,0.05,
1.542,-0.70,0.26,-1.66,-0.50,1.13,0.06,
1.542,-0.91,0.06,-1.96,-0.50,1.13,0.06,
1.543,-0.91,0.06,-1.96,-0.56,1.20,0.06,
1.543,-0.91,0.06,-1.96,-0.62,1.27,0.06,
1.544,-0.91,0.06,-1.96,-0.68,1.34,0.06,
1.583,-0.91,0.06,-1.96,-0.74,1.40,0.06,
1.584,-0.91,0.06,-1.96,-0.78,1.45,0.06,
1.584,-1.23,-0.13,-1.68,-0.78,1.45,0.06,
1.584,-1.23,-0.13,-1.68,-0.83,1.50,0.07,
1.584,-1.23,-0.13,-1.68,-0.86,1.53,0.07,
1.585,-1.23,-0.13,-1.68,-0.89,1.56,0.08,
1.585,-1.23,-0.13,-1.68,-0.92,1.57,0.08,
1.585,-1.23,-0.13,-1.68,-0.94,1.58,0.09,
1.585,-1.80,-0.34,-0.90,-0.94,1.58,0.09,
1.585,-1.80,-0.34,-0.90,-0.95,1.58,0.10,
1.586,-1.80,-0.34,-0.90,-0.96,1.56,0.11,
1.586,-1.80,-0.34,-0.90,-0.96,1.54,0.12,
1.586,-1.80,-0.34,-0.90,-0.95,1.51,0.14,
1.586,-1.80,-0.34,-0.90,-0.94,1.47,0.15,
1.587,-2.32,-0.42,0.05,-0.94,1.47,0.15,
1.587,-2.32,-0.42,0.05,-0.93,1.42,0.16,
1.587,-2.32,-0.42,0.05,-0.91,1.36,0.17,
1.587,-2.32,-0.42,0.05,-0.88,1.30,0.19,
1.588,-2.32,-0.42,0.05,-0.86,1.23,0.21,
1.588,-2.32,-0.42,0.05,-0.84,1.15,0.22,
1.588,-2.87,-0.49,0.75,-0.84,1.15,0.22,
1.588,-2.87,-0.49,0.75,-0.82,1.06,0.24,
1.589,-2.87,-0.49,0.75,-0.79,0.97,0.27,
1.589,-2.87,-0.49,0.75,-0.76,0.87,0.30,
1.589,-2.87,-0.49,0.75,-0.74,0.77,0.32,
1.593,-2.87,-0.49,0.75,-0.71,0.67,0.36,
1.594,-3.21,-0.68,1.28,-0.71,0.67,0.36,
1.594,-3.21,-0.68,1.28,-0.68,0.57,0.40,
1.594,-3.21,-0.68,1.28,-0.65,0.47,0.43,
1.595,-3.21,-0.68,1.28,-0.62,0.37,0.47,
1.596,-3.21,-0.68,1.28,-0.59,0.28,0.51,
1.598,-3.21,-0.68,1.28,-0.57,0.19,0.56,
1.601,-3.41,-0.96,1.75,-0.57,0.19,0.56,
1.601,-3.41,-0.96,1.75,-0.54,0.11,0.60,
1.603,-3.41,-0.96,1.75,-0.51,0.04,0.64,
1.604,-3.41,-0.96,1.75,-0.49,-0.02,0.68,
1.606,-3.41,-0.96,1.75,-0.46,-0.09,0.73,
1.609,-3.41,-0.96,1.75,-0.43,-0.14,0.77,
1.61,-3.13,-1.09,2.25,-0.43,-0.14,0.77,
1.61,-3.13,-1.09,2.25,-0.41,-0.19,0.81,
1.612,-3.13,-1.09,2.25,-0.38,-0.23,0.85,
1.614,-3.13,-1.09,2.25,-0.36,-0.27,0.89,
1.617,-3.13,-1.09,2.25,-0.33,-0.30,0.93,
1.62,-3.13,-1.09,2.25,-0.31,-0.32,0.96,
1.622,-2.54,-1.15,2.81,-0.31,-0.32,0.96,
1.623,-2.54,-1.15,2.81,-0.28,-0.34,1.00,
1.623,-2.54,-1.15,2.81,-0.26,-0.36,1.03,
1.624,-2.54,-1.15,2.81,-0.23,-0.37,1.06,
1.626,-2.54,-1.15,2.81,-0.21,-0.38,1.10,
1.63,-2.54,-1.15,2.81,-0.19,-0.39,1.13,
1.631,-1.74,-1.24,3.06,-0.19,-0.39,1.13,
1.631,-1.74,-1.24,3.06,-0.18,-0.39,1.15,
1.631,-1.74,-1.24,3.06,-0.16,-0.40,1.18,
1.634,-1.74,-1.24,3.06,-0.14,-0.40,1.21,
1.636,-1.74,-1.24,3.06,-0.13,-0.40,1.23,
1.638,-1.74,-1.24,3.06,-0.11,-0.40,1.26,
1.641,-0.98,-1.38,3.21,-0.11,-0.40,1.26,
1.641,-0.98,-1.38,3.21,-0.10,-0.39,1.28,
1.644,-0.98,-1.38,3.21,-0.08,-0.38,1.30,
1.649,-0.98,-1.38,3.21,-0.06,-0.36,1.31,
1.65,-0.98,-1.38,3.21,-0.04,-0.35,1.32,
1.65,-0.98,-1.38,3.21,-0.02,-0.33,1.34,
1.662,-0.12,-1.31,3.45,-0.02,-0.33,1.34,
1.662,-0.12,-1.31,3.45,-0.00,-0.31,1.34,
1.663,-0.12,-1.31,3.45,0.02,-0.28,1.35,
1.663,-0.12,-1.31,3.45,0.05,-0.26,1.35,
1.664,-0.12,-1.31,3.45,0.08,-0.23,1.35,
1.689,-0.12,-1.31,3.45,0.11,-0.21,1.35,
1.69,0.60,-1.29,3.66,0.11,-0.21,1.35,
1.69,0.60,-1.29,3.66,0.14,-0.19,1.35,
1.69,0.60,-1.29,3.66,0.17,-0.17,1.34,
1.691,0.60,-1.29,3.66,0.20,-0.15,1.34,
1.691,0.60,-1.29,3.66,0.23,-0.14,1.33,
1.691,0.60,-1.29,3.66,0.27,-0.12,1.33,
1.692,1.02,-1.12,3.59,0.27,-0.12,1.33,
1.692,1.02,-1.12,3.59,0.30,-0.11,1.32,
1.692,1.02,-1.12,3.59,0.33,-0.10,1.32,
1.692,1.02,-1.12,3.59,0.36,-0.09,1.31,
1.693,1.02,-1.12,3.59,0.39,-0.09,1.31,
1.693,1.02,-1.12,3.59,0.42,-0.08,1.30,
1.693,1.15,-1.07,3.07,0.42,-0.08,1.30,
1.693,1.15,-1.07,3.07,0.44,-0.07,1.30,
1.694,1.15,-1.07,3.07,0.47,-0.07,1.29,
1.694,1.15,-1.07,3.07,0.48,-0.07,1.29,
1.694,1.15,-1.07,3.07,0.50,-0.06,1.28,
1.694,1.15,-1.07,3.07,0.51,-0.06,1.28,
1.695,1.01,-0.97,2.19,0.51,-0.06,1.28,
1.695,1.01,-0.97,2.19,0.52,-0.06,1.28,
1.695,1.01,-0.97,2.19,0.53,-0.06,1.28,
1.696,1.01,-0.97,2.19,0.53,-0.06,1.27,
1.696,1.01,-0.97,2.19,0.53,-0.06,1.27,
1.703,1.01,-0.97,2.19,0.53,-0.05,1.27,
1.703,0.93,-0.89,1.37,0.53,-0.05,1.27,
1.703,0.93,-0.89,1.37,0.53,-0.05,1.26,
1.703,0.93,-0.89,1.37,0.52,-0.05,1.26,
1.714,0.93,-0.89,1.37,0.51,-0.05,1.26,
1.715,0.93,-0.89,1.37,0.51,-0.05,1.25,
1.715,0.93,-0.89,1.37,0.50,-0.05,1.24,
1.715,0.76,-0.79,0.75,0.50,-0.05,1.24,
1.715,0.76,-0.79,0.75,0.48,-0.05,1.24,
1.715,0.76,-0.79,0.75,0.47,-0.05,1.23,
1.716,0.76,-0.79,0.75,0.46,-0.06,1.23,
1.717,0.76,-0.79,0.75,0.44,-0.06,1.22,
1.719,0.76,-0.79,0.75,0.42,-0.07,1.21,
1.725,0.70,-0.73,0.39,0.42,-0.07,1.21,
1.725,0.70,-0.73,0.39,0.41,-0.08,1.20,
1.726,0.70,-0.73,0.39,0.39,-0.10,1.19,
1.726,0.70,-0.73,0.39,0.37,-0.11,1.18,
1.726,0.70,-0.73,0.39,0.36,-0.12,1.17,
1.732,0.70,-0.73,0.39,0.34,-0.14,1.16,
1.732,0.74,-0.63,0.32,0.34,-0.14,1.16,
1.733,0.74,-0.63,0.32,0.32,-0.15,1.15,
1.733,0.74,-0.63,0.32,0.31,-0.17,1.14,
1.736,0.74,-0.63,0.32,0.29,-0.18,1.12,
1.737,0.74,-0.63,0.32,0.28,-0.20,1.11,
1.74,0.74,-0.63,0.32,0.24,-0.23,1.07,
1.74,0.74,-0.63,0.32,0.24,-0.23,1.07,
1.741,0.92,-0.54,0.45,0.24,-0.23,1.07,
1.742,0.92,-0.54,0.45,0.23,-0.24,1.05,
1.744,0.92,-0.54,0.45,0.21,-0.25,1.03,
1.745,0.92,-0.54,0.45,0.20,-0.26,1.01,
1.748,0.92,-0.54,0.45,0.18,-0.27,0.99,
1.75,1.07,-0.49,0.67,0.18,-0.27,0.99,
1.751,1.07,-0.49,0.67,0.16,-0.27,0.96,
1.752,1.07,-0.49,0.67,0.15,-0.28,0.94,
1.754,1.07,-0.49,0.67,0.14,-0.28,0.92,
1.756,1.07,-0.49,0.67,0.12,-0.27,0.89,
1.758,1.07,-0.49,0.67,0.11,-0.27,0.87,
1.76,1.20,-0.56,0.87,0.11,-0.27,0.87,
1.76,1.20,-0.56,0.87,0.09,-0.27,0.85,
1.762,1.20,-0.56,0.87,0.08,-0.27,0.82,
1.764,1.20,-0.56,0.87,0.06,-0.26,0.80,
1.765,1.20,-0.56,0.87,0.05,-0.26,0.77,
1.768,1.20,-0.56,0.87,0.05,-0.25,0.75,
1.77,1.18,-0.62,1.12,0.05,-0.25,0.75,
1.77,1.18,-0.62,1.12,0.03,-0.23,0.73,
1.771,1.18,-0.62,1.12,0.02,-0.22,0.70,
1.773,1.18,-0.62,1.12,0.02,-0.21,0.68,
1.775,1.18,-0.62,1.12,0.00,-0.19,0.66,
1.778,1.18,-0.62,1.12,-0.01,-0.17,0.63,
1.78,1.18,-0.74,1.25,-0.01,-0.17,0.63,
1.78,1.18,-0.74,1.25,-0.01,-0.15,0.61,
1.782,1.18,-0.74,1.25,-0.02,-0.13,0.59,
1.793,1.18,-0.74,1.25,-0.03,-0.11,0.57,
1.794,1.18,-0.74,1.25,-0.04,-0.08,0.55,
1.794,1.18,-0.74,1.25,-0.05,-0.05,0.52,
1.794,1.02,-0.86,1.26,-0.05,-0.05,0.52,
1.794,1.02,-0.86,1.26,-0.05,-0.03,0.50,
1.795,1.02,-0.86,1.26,-0.06,-0.00,0.49,
1.795,1.02,-0.86,1.26,-0.07,0.02,0.47,
1.806,1.02,-0.86,1.26,-0.07,0.05,0.45,
1.807,1.02,-0.86,1.26,-0.08,0.07,0.44,
1.808,0.73,-1.00,1.14,-0.08,0.07,0.44,
1.808,0.73,-1.00,1.14,-0.08,0.10,0.42,
1.809,0.73,-1.00,1.14,-0.09,0.12,0.41,
1.809,0.73,-1.00,1.14,-0.09,0.14,0.39,
1.809,0.73,-1.00,1.14,-0.10,0.16,0.38,
1.809,0.73,-1.00,1.14,-0.10,0.17,0.37,
1.812,0.41,-1.09,0.93,-0.10,0.17,0.37,
1.813,0.41,-1.09,0.93,-0.10,0.19,0.36,
1.813,0.41,-1.09,0.93,-0.11,0.20,0.35,
1.814,0.41,-1.09,0.93,-0.11,0.21,0.34,
1.816,0.41,-1.09,0.93,-0.11,0.22,0.32,
1.819,0.41,-1.09,0.93,-0.11,0.22,0.31,
1.82,0.15,-1.26,0.70,-0.11,0.22,0.31,
1.821,0.15,-1.26,0.70,-0.11,0.23,0.31,
1.822,0.15,-1.26,0.70,-0.11,0.23,0.30,
1.845,0.15,-1.26,0.70,-0.11,0.23,0.29,
1.845,0.15,-1.26,0.70,-0.11,0.23,0.28,
1.846,0.15,-1.26,0.70,-0.11,0.23,0.27,
1.846,-0.08,-1.28,0.51,-0.11,0.23,0.27,
1.847,-0.08,-1.28,0.51,-0.10,0.23,0.27,
1.847,-0.08,-1.28,0.51,-0.10,0.23,0.26,
1.847,-0.08,-1.28,0.51,-0.10,0.23,0.26,
1.848,-0.08,-1.28,0.51,-0.09,0.23,0.26,
1.848,-0.08,-1.28,0.51,-0.08,0.24,0.25,
1.849,-0.27,-1.44,0.33,-0.08,0.24,0.25,
1.849,-0.27,-1.44,0.33,-0.07,0.24,0.25,
1.849,-0.27,-1.44,0.33,-0.06,0.24,0.25,
1.85,-0.27,-1.44,0.33,-0.06,0.25,0.25,
1.85,-0.27,-1.44,0.33,-0.05,0.25,0.25,
1.851,-0.27,-1.44,0.33,-0.04,0.25,0.25,
1.851,-0.45,-1.50,0.09,-0.04,0.25,0.25,
1.851,-0.45,-1.50,0.09,-0.03,0.26,0.26,
1.859,-0.45,-1.50,0.09,-0.02,0.26,0.26,
1.859,-0.45,-1.50,0.09,-0.01,0.27,0.26,
1.86,-0.45,-1.50,0.09,-0.00,0.28,0.27,
1.86,-0.45,-1.50,0.09,0.01,0.28,0.27,
1.861,-0.59,-1.63,-0.20,0.01,0.28,0.27,
1.861,-0.59,-1.63,-0.20,0.02,0.28,0.28,
1.862,-0.59,-1.63,-0.20,0.03,0.28,0.28,
1.864,-0.59,-1.63,-0.20,0.04,0.28,0.29,
1.866,-0.59,-1.63,-0.20,0.05,0.28,0.29,
1.868,-0.59,-1.63,-0.20,0.06,0.28,0.30,
1.87,-0.65,-1.59,-0.60,0.06,0.28,0.30,
1.871,-0.65,-1.59,-0.60,0.07,0.28,0.31,
1.872,-0.65,-1.59,-0.60,0.08,0.28,0.31,
1.874,-0.65,-1.59,-0.60,0.08,0.28,0.31,
1.875,-0.65,-1.59,-0.60,0.09,0.28,0.32,
1.878,-0.65,-1.59,-0.60,0.10,0.27,0.32,
1.88,-0.57,-1.55,-1.01,0.10,0.27,0.32,
1.88,-0.57,-1.55,-1.01,0.11,0.26,0.32,
1.882,-0.57,-1.55,-1.01,0.11,0.25,0.32,
1.885,-0.57,-1.55,-1.01,0.12,0.23,0.32,
1.886,-0.57,-1.55,-1.01,0.12,0.21,0.32,
1.888,-0.57,-1.55,-1.01,0.12,0.20,0.32,
1.89,-0.46,-1.38,-1.44,0.12,0.20,0.32,
1.891,-0.46,-1.38,-1.44,0.12,0.18,0.32,
1.893,-0.46,-1.38,-1.44,0.12,0.16,0.32,
1.894,-0.46,-1.38,-1.44,0.12,0.14,0.32,
1.896,-0.46,-1.38,-1.44,0.12,0.12,0.32,
1.898,-0.46,-1.38,-1.44,0.11,0.10,0.31,
1.9,-0.32,-1.30,-1.83,0.11,0.10,0.31,
1.901,-0.32,-1.30,-1.83,0.11,0.08,0.31,
1.902,-0.32,-1.30,-1.83,0.10,0.06,0.31,
1.905,-0.32,-1.30,-1.83,0.09,0.05,0.30,
1.905,-0.32,-1.30,-1.83,0.08,0.03,0.30,
1.908,-0.32,-1.30,-1.83,0.07,0.01,0.29,
1.91,-0.18,-1.18,-2.06,0.07,0.01,0.29,
1.911,-0.18,-1.18,-2.06,0.06,-0.01,0.29,
1.912,-0.18,-1.18,-2.06,0.04,-0.02,0.28,
1.914,-0.18,-1.18,-2.06,0.03,-0.03,0.28,
1.916,-0.18,-1.18,-2.06,0.02,-0.04,0.27,
1.918,-0.18,-1.18,-2.06,0.01,-0.05,0.26,
1.921,0.00,-1.15,-1.93,0.01,-0.05,0.26,
1.921,0.00,-1.15,-1.93,0.01,-0.05,0.26,
1.921,0.00,-1.15,-1.93,-0.00,-0.05,0.25,
1.924,0.00,-1.15,-1.93,-0.01,-0.05,0.24,
1.926,0.00,-1.15,-1.93,-0.01,-0.04,0.23,
1.928,0.00,-1.15,-1.93,-0.02,-0.04,0.23,
1.93,0.15,-1.08,-1.62,-0.02,-0.04,0.23,
1.931,0.15,-1.08,-1.62,-0.02,-0.03,0.22,
1.932,0.15,-1.08,-1.62,-0.03,-0.02,0.21,
1.948,0.15,-1.08,-1.62,-0.03,-0.02,0.21,
1.949,0.15,-1.08,-1.62,-0.03,-0.00,0.20,
1.949,0.15,-1.08,-1.62,-0.03,0.01,0.20,
1.949,0.26,-1.12,-1.33,-0.03,0.01,0.20,
1.949,0.26,-1.12,-1.33,-0.03,0.02,0.19,
1.949,0.26,-1.12,-1.33,-0.03,0.04,0.19,
1.95,0.26,-1.12,-1.33,-0.03,0.06,0.19,
1.95,0.26,-1.12,-1.33,-0.03,0.08,0.19,
1.95,0.26,-1.12,-1.33,-0.03,0.10,0.19,
1.959,0.18,-1.12,-1.19,-0.03,0.10,0.19,
1.959,0.18,-1.12,-1.19,-0.03,0.12,0.19,
1.96,0.18,-1.12,-1.19,-0.03,0.14,0.18,
1.961,0.18,-1.12,-1.19,-0.03,0.16,0.18,
1.961,0.18,-1.12,-1.19,-0.03,0.18,0.18,
1.961,0.18,-1.12,-1.19,-0.04,0.19,0.18,
1.962,0.11,-1.20,-1.16,-0.04,0.19,0.18,
1.962,0.11,-1.20,-1.16,-0.04,0.21,0.18,
1.962,0.11,-1.20,-1.16,-0.04,0.22,0.19,
1.964,0.11,-1.20,-1.16,-0.04,0.24,0.18,
1.966,0.11,-1.20,-1.16,-0.04,0.25,0.18,
1.97,0.11,-1.20,-1.16,-0.04,0.26,0.18,
1.971,-0.06,-1.19,-1.15,-0.04,0.26,0.18,
1.971,-0.06,-1.19,-1.15,-0.04,0.27,0.19,
1.972,-0.06,-1.19,-1.15,-0.04,0.28,0.19,
1.974,-0.06,-1.19,-1.15,-0.04,0.29,0.19,
1.976,-0.06,-1.19,-1.15,-0.04,0.30,0.20,
1.978,-0.06,-1.19,-1.15,-0.05,0.30,0.21,
1.981,-0.30,-1.28,-1.14,-0.05,0.30,0.21,
1.982,-0.30,-1.28,-1.14,-0.04,0.30,0.22,
1.982,-0.30,-1.28,-1.14,-0.04,0.31,0.23,
1.985,-0.30,-1.28,-1.14,-0.04,0.31,0.24,
1.987,-0.30,-1.28,-1.14,-0.04,0.31,0.25,
1.989,-0.30,-1.28,-1.14,-0.03,0.31,0.26,
1.99,-0.48,-1.25,-1.00,-0.03,0.31,0.26,
2.021,-0.48,-1.25,-1.00,-0.03,0.31,0.27,
2.022,-0.48,-1.25,-1.00,-0.02,0.30,0.28,
2.022,-0.48,-1.25,-1.00,-0.02,0.29,0.29,
2.023,-0.48,-1.25,-1.00,-0.01,0.28,0.29,
2.023,-0.48,-1.25,-1.00,-0.01,0.26,0.29,
2.023,-0.34,-1.23,-0.78,-0.01,0.26,0.29,
2.024,-0.34,-1.23,-0.78,0.01,0.25,0.30,
2.024,-0.34,-1.23,-0.78,0.01,0.22,0.30,
2.025,-0.34,-1.23,-0.78,0.02,0.20,0.30,
2.025,-0.34,-1.23,-0.78,0.03,0.18,0.29,
2.026,-0.34,-1.23,-0.78,0.05,0.15,0.29,
2.026,0.04,-1.18,-0.50,0.05,0.15,0.29,
2.026,0.04,-1.18,-0.50,0.06,0.13,0.28,
2.027,0.04,-1.18,-0.50,0.08,0.10,0.27,
2.027,0.04,-1.18,-0.50,0.10,0.08,0.27,
2.028,0.04,-1.18,-0.50,0.12,0.06,0.26,
2.028,0.04,-1.18,-0.50,0.14,0.05,0.26,
2.028,0.05,-0.95,-0.11,0.14,0.05,0.26,
2.029,0.05,-0.95,-0.11,0.17,0.03,0.25,
2.029,0.05,-0.95,-0.11,0.19,0.01,0.25,
2.03,0.05,-0.95,-0.11,0.22,-0.00,0.24,
2.03,0.05,-0.95,-0.11,0.25,-0.02,0.24,
2.03,0.05,-0.95,-0.11,0.27,-0.03,0.23,
2.031,0.19,-0.73,0.02,0.27,-0.03,0.23,
2.031,0.19,-0.73,0.02,0.30,-0.04,0.22,
2.032,0.19,-0.73,0.02,0.32,-0.05,0.22,
2.042,0.19,-0.73,0.02,0.34,-0.06,0.21,
2.042,0.19,-0.73,0.02,0.36,-0.07,0.21,
2.043,0.19,-0.73,0.02,0.37,-0.08,0.20,
2.043,0.13,-0.75,-0.34,0.37,-0.08,0.20,
2.043,0.13,-0.75,-0.34,0.39,-0.09,0.20,
2.043,0.13,-0.75,-0.34,0.40,-0.10,0.20,
2.045,0.13,-0.75,-0.34,0.41,-0.12,0.20,
2.046,0.13,-0.75,-0.34,0.41,-0.13,0.20,
2.048,0.13,-0.75,-0.34,0.42,-0.15,0.20,
2.052,-0.03,-0.75,-0.91,0.42,-0.15,0.20,
2.053,-0.03,-0.75,-0.91,0.42,-0.17,0.21,
2.053,-0.03,-0.75,-0.91,0.43,-0.19,0.21,
2.054,-0.03,-0.75,-0.91,0.43,-0.21,0.22,
2.056,-0.03,-0.75,-0.91,0.43,-0.23,0.22,
2.058,-0.03,-0.75,-0.91,0.43,-0.26,0.23,
2.06,-0.19,-0.77,-1.31,0.43,-0.26,0.23,
2.06,-0.19,-0.77,-1.31,0.42,-0.28,0.24,
2.062,-0.19,-0.77,-1.31,0.42,-0.31,0.25,
2.064,-0.19,-0.77,-1.31,0.41,-0.34,0.27,
2.066,-0.19,-0.77,-1.31,0.41,-0.37,0.28,
2.072,-0.19,-0.77,-1.31,0.40,-0.41,0.29,
2.072,-0.21,-0.70,-1.48,0.40,-0.41,0.29,
2.073,-0.21,-0.70,-1.48,0.40,-0.44,0.30,
2.073,-0.21,-0.70,-1.48,0.39,-0.48,0.30,
2.074,-0.21,-0.70,-1.48,0.39,-0.51,0.31,
2.082,-0.21,-0.70,-1.48,0.38,-0.54,0.32,
2.082,-0.21,-0.70,-1.48,0.38,-0.57,0.33,
2.1,-0.09,-0.59,-1.32,0.38,-0.57,0.33,
2.103,-0.09,-0.59,-1.32,0.38,-0.61,0.33,
2.105,-0.09,-0.59,-1.32,0.37,-0.63,0.34,
2.107,-0.09,-0.59,-1.32,0.37,-0.66,0.34,
2.109,-0.09,-0.59,-1.32,0.37,-0.68,0.34,
2.11,-0.09,-0.59,-1.32,0.37,-0.70,0.35,
2.111,0.29,-0.58,-1.16,0.37,-0.70,0.35,
2.111,0.29,-0.58,-1.16,0.37,-0.72,0.35,
2.112,0.29,-0.58,-1.16,0.37,-0.73,0.35,
2.113,0.29,-0.58,-1.16,0.37,-0.73,0.35,
2.113,0.29,-0.58,-1.16,0.37,-0.73,0.35,
2.114,0.29,-0.58,-1.16,0.36,-0.73,0.34,
2.114,0.74,-0.71,-1.03,0.36,-0.73,0.34,
2.115,0.74,-0.71,-1.03,0.37,-0.72,0.34,
2.115,0.74,-0.71,-1.03,0.37,-0.71,0.33,
2.117,0.74,-0.71,-1.03,0.37,-0.70,0.32,
2.118,0.74,-0.71,-1.03,0.37,-0.68,0.32,
2.118,0.74,-0.71,-1.03,0.37,-0.66,0.31,
2.119,1.01,-0.68,-0.97,0.37,-0.66,0.31,
2.119,1.01,-0.68,-0.97,0.37,-0.64,0.30,
2.119,1.01,-0.68,-0.97,0.37,-0.62,0.29,
2.122,1.01,-0.68,-0.97,0.38,-0.60,0.28,
2.123,1.01,-0.68,-0.97,0.38,-0.58,0.27,
2.123,1.01,-0.68,-0.97,0.39,-0.55,0.26,
2.124,1.11,-0.65,-0.96,0.39,-0.55,0.26,
2.124,1.11,-0.65,-0.96,0.40,-0.52,0.25,
2.125,1.11,-0.65,-0.96,0.40,-0.50,0.24,
2.125,1.11,-0.65,-0.96,0.41,-0.47,0.23,
2.129,1.11,-0.65,-0.96,0.42,-0.45,0.22,
2.129,1.11,-0.65,-0.96,0.43,-0.43,0.22,
2.131,0.93,-0.58,-1.07,0.43,-0.43,0.22,
2.131,0.93,-0.58,-1.07,0.44,-0.41,0.21,
2.132,0.93,-0.58,-1.07,0.45,-0.39,0.20,
2.135,0.93,-0.58,-1.07,0.46,-0.38,0.19,
2.136,0.93,-0.58,-1.07,0.47,-0.38,0.19,
2.138,0.93,-0.58,-1.07,0.49,-0.38,0.18,
2.14,0.79,-0.57,-1.17,0.49,-0.38,0.18,
2.14,0.79,-0.57,-1.17,0.50,-0.38,0.17,
2.143,0.79,-0.57,-1.17,0.51,-0.38,0.17,
2.145,0.79,-0.57,-1.17,0.52,-0.40,0.16,
2.146,0.79,-0.57,-1.17,0.54,-0.41,0.15,
2.148,0.79,-0.57,-1.17,0.55,-0.42,0.15,
2.151,0.61,-0.54,-1.32,0.55,-0.42,0.15,
2.152,0.61,-0.54,-1.32,0.56,-0.44,0.14,
2.152,0.61,-0.54,-1.32,0.56,-0.46,0.14,
2.154,0.61,-0.54,-1.32,0.57,-0.48,0.13,
2.159,0.61,-0.54,-1.32,0.58,-0.51,0.12,
2.178,0.61,-0.54,-1.32,0.58,-0.54,0.11,
2.179,0.66,-0.52,-1.52,0.58,-0.54,0.11,
2.179,0.66,-0.52,-1.52,0.59,-0.56,0.10,
2.179,0.66,-0.52,-1.52,0.59,-0.59,0.09,
2.179,0.66,-0.52,-1.52,0.59,-0.61,0.08,
2.18,0.66,-0.52,-1.52,0.59,-0.63,0.07,
2.18,0.66,-0.52,-1.52,0.58,-0.67,0.05,
2.18,0.75,-0.44,-1.73,0.58,-0.67,0.05,
2.18,0.75,-0.44,-1.73,0.58,-0.68,0.04,
2.181,0.75,-0.44,-1.73,0.57,-0.69,0.02,
2.181,0.75,-0.44,-1.73,0.57,-0.71,0.01,
2.181,0.75,-0.44,-1.73,0.55,-0.72,-0.01,
2.182,0.75,-0.44,-1.73,0.55,-0.73,-0.02,
2.182,0.79,-0.39,-1.90,0.55,-0.73,-0.02,
2.182,0.79,-0.39,-1.90,0.53,-0.74,-0.04,
2.182,0.79,-0.39,-1.90,0.52,-0.74,-0.05,
2.187,0.79,-0.39,-1.90,0.50,-0.74,-0.06,
2.188,0.79,-0.39,-1.90,0.49,-0.73,-0.08,
2.19,0.79,-0.39,-1.90,0.47,-0.73,-0.08,
2.19,0.63,-0.38,-1.96,0.47,-0.73,-0.08,
2.19,0.63,-0.38,-1.96,0.45,-0.72,-0.09,
2.192,0.63,-0.38,-1.96,0.44,-0.70,-0.10,
2.195,0.63,-0.38,-1.96,0.42,-0.68,-0.11,
2.197,0.63,-0.38,-1.96,0.41,-0.66,-0.11,
2.198,0.63,-0.38,-1.96,0.39,-0.64,-0.12,
2.202,0.46,-0.49,-1.86,0.39,-0.64,-0.12,
2.203,0.46,-0.49,-1.86,0.38,-0.61,-0.12,
2.203,0.46,-0.49,-1.86,0.37,-0.58,-0.12,
2.204,0.46,-0.49,-1.86,0.36,-0.54,-0.12,
2.206,0.46,-0.49,-1.86,0.35,-0.51,-0.11,
2.208,0.46,-0.49,-1.86,0.34,-0.47,-0.11,
2.21,0.19,-0.60,-1.75,0.34,-0.47,-0.11,
2.211,0.19,-0.60,-1.75,0.33,-0.44,-0.11,
2.212,0.19,-0.60,-1.75,0.32,-0.41,-0.11,
2.214,0.19,-0.60,-1.75,0.31,-0.38,-0.10,
2.227,0.19,-0.60,-1.75,0.30,-0.35,-0.10,
2.227,0.19,-0.60,-1.75,0.29,-0.32,-0.10,
2.227,0.11,-0.62,-1.63,0.29,-0.32,-0.10,
2.228,0.11,-0.62,-1.63,0.28,-0.29,-0.10,
2.228,0.11,-0.62,-1.63,0.27,-0.27,-0.10,
2.228,0.11,-0.62,-1.63,0.27,-0.25,-0.09,
2.228,0.11,-0.62,-1.63,0.26,-0.23,-0.09,
2.228,0.11,-0.62,-1.63,0.25,-0.22,-0.10,
2.231,0.12,-0.61,-1.48,0.25,-0.22,-0.10,
2.231,0.12,-0.61,-1.48,0.24,-0.20,-0.10,
2.254,0.12,-0.61,-1.48,0.24,-0.19,-0.10,
2.254,0.12,-0.61,-1.48,0.23,-0.18,-0.11,
2.254,0.12,-0.61,-1.48,0.23,-0.18,-0.11,
2.254,0.12,-0.61,-1.48,0.22,-0.17,-0.11,
2.255,0.12,-0.61,-1.48,0.21,-0.17,-0.13,
2.255,0.12,-0.61,-1.48,0.21,-0.17,-0.13,
2.255,0.29,-0.59,-1.12,0.21,-0.17,-0.13,
2.255,0.29,-0.59,-1.12,0.21,-0.18,-0.15,
2.255,0.29,-0.59,-1.12,0.21,-0.18,-0.15,
2.255,0.29,-0.59,-1.12,0.21,-0.18,-0.16,
2.256,0.37,-0.52,-0.96,0.21,-0.18,-0.16,
2.256,0.37,-0.52,-0.96,0.21,-0.19,-0.17,
2.256,0.37,-0.52,-0.96,0.21,-0.20,-0.19,
2.256,0.37,-0.52,-0.96,0.21,-0.21,-0.20,
2.256,0.37,-0.52,-0.96,0.21,-0.21,-0.21,
2.258,0.37,-0.52,-0.96,0.20,-0.21,-0.22,
2.26,0.41,-0.41,-0.81,0.20,-0.21,-0.22,
2.26,0.41,-0.41,-0.81,0.20,-0.21,-0.24,
2.262,0.41,-0.41,-0.81,0.19,-0.22,-0.25,
2.263,0.41,-0.41,-0.81,0.19,-0.21,-0.26,
2.278,0.41,-0.41,-0.81,0.19,-0.21,-0.28,
2.278,0.41,-0.41,-0.81,0.18,-0.20,-0.29,
2.278,0.21,-0.33,-0.74,0.18,-0.20,-0.29,
2.279,0.21,-0.33,-0.74,0.17,-0.20,-0.29,
2.279,0.21,-0.33,-0.74,0.16,-0.19,-0.30,
2.279,0.21,-0.33,-0.74,0.15,-0.18,-0.31,
2.279,0.21,-0.33,-0.74,0.14,-0.17,-0.31,
2.279,0.21,-0.33,-0.74,0.14,-0.15,-0.31,
2.28,-0.10,-0.33,-0.60,0.14,-0.15,-0.31,
2.28,-0.10,-0.33,-0.60,0.13,-0.14,-0.32,
2.297,-0.10,-0.33,-0.60,0.12,-0.12,-0.32,
2.298,-0.10,-0.33,-0.60,0.11,-0.11,-0.32,
2.298,-0.10,-0.33,-0.60,0.10,-0.09,-0.32,
2.298,-0.10,-0.33,-0.60,0.10,-0.07,-0.32,
2.298,-0.34,-0.29,-0.32,0.10,-0.07,-0.32,
2.298,-0.34,-0.29,-0.32,0.10,-0.05,-0.32,
2.298,-0.34,-0.29,-0.32,0.09,-0.03,-0.31,
2.298,-0.34,-0.29,-0.32,0.09,-0.01,-0.31,
2.299,-0.34,-0.29,-0.32,0.09,0.01,-0.31,
2.299,-0.34,-0.29,-0.32,0.09,0.03,-0.30,
2.315,-0.59,-0.15,0.02,0.09,0.03,-0.30,
2.316,-0.59,-0.15,0.02,0.09,0.05,-0.29,
2.318,-0.59,-0.15,0.02,0.09,0.07,-0.29,
2.319,-0.59,-0.15,0.02,0.09,0.09,-0.28,
2.32,-0.59,-0.15,0.02,0.09,0.10,-0.28,
2.32,-0.59,-0.15,0.02,0.09,0.10,-0.27,
2.321,-0.64,-0.04,0.29,0.09,0.10,-0.27,
2.321,-0.64,-0.04,0.29,0.09,0.10,-0.27,
2.321,-0.64,-0.04,0.29,0.09,0.10,-0.27,
2.322,-0.64,-0.04,0.29,0.08,0.10,-0.26,
2.322,-0.64,-0.04,0.29,0.08,0.09,-0.26,
2.322,-0.64,-0.04,0.29,0.07,0.08,-0.26,
2.329,-0.53,-0.03,0.59,0.07,0.08,-0.26,
2.33,-0.53,-0.03,0.59,0.07,0.07,-0.25,
2.331,-0.53,-0.03,0.59,0.06,0.06,-0.25,
2.361,-0.53,-0.03,0.59,0.06,0.05,-0.25,
2.362,-0.53,-0.03,0.59,0.05,0.04,-0.24,
2.362,-0.53,-0.03,0.59,0.04,0.02,-0.24,
2.363,-0.27,0.01,1.05,0.04,0.02,-0.24,
2.363,-0.27,0.01,1.05,0.04,0.01,-0.24,
2.364,-0.27,0.01,1.05,0.04,0.00,-0.24,
2.365,-0.27,0.01,1.05,0.03,-0.00,-0.24,
2.365,-0.27,0.01,1.05,0.04,-0.01,-0.25,
2.365,-0.27,0.01,1.05,0.04,-0.02,-0.25,
2.366,0.05,0.07,1.89,0.04,-0.02,-0.25,
2.366,0.05,0.07,1.89,0.04,-0.03,-0.26,
2.367,0.05,0.07,1.89,0.05,-0.03,-0.26,
2.367,0.05,0.07,1.89,0.06,-0.03,-0.27,
2.367,0.05,0.07,1.89,0.08,-0.03,-0.28,
2.368,0.05,0.07,1.89,0.10,-0.02,-0.28,
2.368,0.21,0.09,2.89,0.10,-0.02,-0.28,
2.369,0.21,0.09,2.89,0.12,-0.01,-0.28,
2.369,0.21,0.09,2.89,0.15,0.00,-0.28,
2.369,0.21,0.09,2.89,0.17,0.02,-0.28,
2.37,0.21,0.09,2.89,0.20,0.04,-0.28,
2.37,0.21,0.09,2.89,0.23,0.06,-0.28,
2.371,0.02,-0.02,3.61,0.23,0.06,-0.28,
2.371,0.02,-0.02,3.61,0.27,0.08,-0.27,
2.371,0.02,-0.02,3.61,0.30,0.11,-0.26,
2.372,0.02,-0.02,3.61,0.34,0.13,-0.25,
2.372,0.02,-0.02,3.61,0.38,0.16,-0.24,
2.373,0.02,-0.02,3.61,0.42,0.18,-0.22,
2.373,-0.23,-0.01,3.80,0.42,0.18,-0.22,
2.374,-0.23,-0.01,3.80,0.45,0.21,-0.21,
2.374,-0.23,-0.01,3.80,0.50,0.25,-0.19,
2.382,-0.23,-0.01,3.80,0.54,0.28,-0.17,
2.383,-0.23,-0.01,3.80,0.55,0.29,-0.17,
2.383,-0.23,-0.01,3.80,0.58,0.31,-0.15,
2.383,-0.37,0.11,3.18,0.58,0.31,-0.15,
2.384,-0.37,0.11,3.18,0.60,0.34,-0.14,
2.384,-0.37,0.11,3.18,0.62,0.37,-0.13,
2.385,-0.37,0.11,3.18,0.63,0.39,-0.12,
2.389,-0.37,0.11,3.18,0.64,0.42,-0.12,
2.389,-0.37,0.11,3.18,0.64,0.44,-0.11,
2.391,-0.37,0.54,1.91,0.64,0.44,-0.11,
2.392,-0.37,0.54,1.91,0.64,0.46,-0.11,
2.392,-0.37,0.54,1.91,0.63,0.48,-0.11,
2.394,-0.37,0.54,1.91,0.62,0.50,-0.12,
2.396,-0.37,0.54,1.91,0.59,0.51,-0.13,
2.404,-0.37,0.54,1.91,0.56,0.51,-0.14,
2.404,-0.24,1.19,0.27,0.56,0.51,-0.14,
2.405,-0.24,1.19,0.27,0.53,0.51,-0.15,
2.405,-0.24,1.19,0.27,0.48,0.50,-0.17,
2.405,-0.24,1.19,0.27,0.43,0.49,-0.19,
2.413,-0.24,1.19,0.27,0.37,0.46,-0.20,
2.414,-0.24,1.19,0.27,0.30,0.43,-0.22,
2.414,-0.20,1.66,-1.50,0.30,0.43,-0.22,
2.414,-0.20,1.66,-1.50,0.22,0.37,-0.24,
2.414,-0.20,1.66,-1.50,0.13,0.31,-0.26,
2.414,-0.20,1.66,-1.50,0.03,0.23,-0.28,
2.428,-0.20,1.66,-1.50,-0.09,0.13,-0.30,
2.429,-0.20,1.66,-1.50,-0.22,0.01,-0.32,
2.429,0.17,2.09,-3.21,-0.22,0.01,-0.32,
2.429,0.17,2.09,-3.21,-0.36,-0.12,-0.35,
2.429,0.17,2.09,-3.21,-0.60,-0.34,-0.40,
2.43,0.17,2.09,-3.21,-0.68,-0.42,-0.42,
2.43,0.17,2.09,-3.21,-0.85,-0.58,-0.47,
2.43,0.17,2.09,-3.21,-1.02,-0.74,-0.52,
2.43,1.23,2.31,-3.57,-1.02,-0.74,-0.52,
2.431,1.23,2.31,-3.57,-1.19,-0.90,-0.57,
2.433,1.23,2.31,-3.57,-1.35,-1.05,-0.64,
2.435,1.23,2.31,-3.57,-1.51,-1.18,-0.70,
2.436,1.23,2.31,-3.57,-1.66,-1.30,-0.77,
2.439,1.23,2.31,-3.57,-1.80,-1.40,-0.83,
2.44,2.51,1.79,-1.50,-1.80,-1.40,-0.83,
2.441,2.51,1.79,-1.50,-1.92,-1.49,-0.89,
2.442,2.51,1.79,-1.50,-2.04,-1.56,-0.95,
2.444,2.51,1.79,-1.50,-2.14,-1.61,-1.01,
2.446,2.51,1.79,-1.50,-2.23,-1.64,-1.06,
2.451,2.51,1.79,-1.50,-2.31,-1.66,-1.10,
2.452,3.03,0.71,2.12,-2.31,-1.66,-1.10,
2.453,3.03,0.71,2.12,-2.38,-1.64,-1.14,
2.453,3.03,0.71,2.12,-2.43,-1.60,-1.17,
2.454,3.03,0.71,2.12,-2.48,-1.53,-1.19,
2.456,3.03,0.71,2.12,-2.51,-1.45,-1.21,
2.458,3.03,0.71,2.12,-2.53,-1.34,-1.22,
2.461,2.99,-0.46,5.23,-2.53,-1.34,-1.22,
2.463,2.99,-0.46,5.23,-2.55,-1.22,-1.22,
2.464,2.99,-0.46,5.23,-2.56,-1.09,-1.22,
2.464,2.99,-0.46,5.23,-2.57,-0.94,-1.22,
2.468,2.99,-0.46,5.23,-2.57,-0.79,-1.21,
2.468,2.99,-0.46,5.23,-2.56,-0.63,-1.21,
2.47,2.70,-1.45,6.80,-2.56,-0.63,-1.21,
2.47,2.70,-1.45,6.80,-2.56,-0.48,-1.20,
2.472,2.70,-1.45,6.80,-2.55,-0.33,-1.19,
2.474,2.70,-1.45,6.80,-2.54,-0.18,-1.19,
2.476,2.70,-1.45,6.80,-2.53,-0.04,-1.18,
2.478,2.70,-1.45,6.80,-2.51,0.09,-1.18,
2.481,2.31,-2.00,6.87,-2.51,0.09,-1.18,
2.481,2.31,-2.00,6.87,-2.50,0.21,-1.18,
2.483,2.31,-2.00,6.87,-2.49,0.32,-1.17,
2.484,2.31,-2.00,6.87,-2.47,0.42,-1.16,
2.487,2.31,-2.00,6.87,-2.45,0.50,-1.15,
2.488,2.31,-2.00,6.87,-2.43,0.58,-1.13,
2.49,1.25,-2.01,6.22,-2.43,0.58,-1.13,
2.511,1.25,-2.01,6.22,-2.40,0.65,-1.11,
2.512,1.25,-2.01,6.22,-2.37,0.72,-1.09,
2.512,1.25,-2.01,6.22,-2.33,0.77,-1.07,
2.512,1.25,-2.01,6.22,-2.28,0.83,-1.04,
2.512,1.25,-2.01,6.22,-2.23,0.87,-1.01,
2.513,0.14,-1.97,5.77,-2.23,0.87,-1.01,
2.513,0.14,-1.97,5.77,-2.18,0.91,-0.98,
2.513,0.14,-1.97,5.77,-2.11,0.94,-0.95,
2.513,0.14,-1.97,5.77,-2.01,0.99,-0.89,
2.514,0.14,-1.97,5.77,-1.97,1.00,-0.87,
2.514,0.14,-1.97,5.77,-1.88,1.02,-0.83,
2.514,-0.77,-1.70,5.44,-1.88,1.02,-0.83,
2.515,-0.77,-1.70,5.44,-1.80,1.04,-0.79,
2.515,-0.77,-1.70,5.44,-1.71,1.05,-0.74,
2.515,-0.77,-1.70,5.44,-1.61,1.06,-0.69,
2.526,-0.77,-1.70,5.44,-1.52,1.06,-0.64,
2.526,-0.77,-1.70,5.44,-1.36,1.05,-0.57,
2.526,-1.36,-1.36,4.93,-1.36,1.05,-0.57,
2.527,-1.36,-1.36,4.93,-1.31,1.04,-0.54,
2.527,-1.36,-1.36,4.93,-1.21,1.03,-0.49,
2.527,-1.36,-1.36,4.93,-1.10,1.01,-0.45,
2.527,-1.36,-1.36,4.93,-1.00,0.99,-0.40,
2.53,-1.36,-1.36,4.93,-0.89,0.96,-0.36,
2.531,-1.39,-1.00,3.94,-0.89,0.96,-0.36,
2.531,-1.39,-1.00,3.94,-0.79,0.94,-0.32,
2.553,-1.39,-1.00,3.94,-0.69,0.91,-0.27,
2.553,-1.39,-1.00,3.94,-0.60,0.88,-0.23,
2.553,-1.39,-1.00,3.94,-0.51,0.85,-0.19,
2.553,-1.39,-1.00,3.94,-0.42,0.81,-0.15,
2.554,-1.24,-0.66,2.58,-0.42,0.81,-0.15,
2.554,-1.24,-0.66,2.58,-0.33,0.78,-0.11,
2.554,-1.24,-0.66,2.58,-0.25,0.75,-0.08,
2.554,-1.24,-0.66,2.58,-0.14,0.70,-0.03,
2.554,-1.24,-0.66,2.58,-0.10,0.68,-0.01,
2.555,-1.24,-0.66,2.58,-0.03,0.65,0.02,
2.555,-1.01,-0.29,1.08,-0.03,0.65,0.02,
2.555,-1.01,-0.29,1.08,0.03,0.62,0.06,
2.555,-1.01,-0.29,1.08,0.09,0.59,0.09,
2.555,-1.01,-0.29,1.08,0.15,0.56,0.12,
2.555,-1.01,-0.29,1.08,0.19,0.53,0.14,
2.558,-1.01,-0.29,1.08,0.24,0.50,0.17,
2.561,-0.66,0.06,-0.28,0.24,0.50,0.17,
2.561,-0.66,0.06,-0.28,0.28,0.47,0.19,
2.562,-0.66,0.06,-0.28,0.32,0.44,0.21,
2.564,-0.66,0.06,-0.28,0.37,0.40,0.23,
2.566,-0.66,0.06,-0.28,0.39,0.39,0.24,
2.568,-0.66,0.06,-0.28,0.42,0.37,0.25,
2.571,-0.28,0.25,-1.27,0.42,0.37,0.25,
2.571,-0.28,0.25,-1.27,0.46,0.35,0.26,
2.572,-0.28,0.25,-1.27,0.47,0.35,0.27,
2.574,-0.28,0.25,-1.27,0.51,0.35,0.29,
2.575,-0.28,0.25,-1.27,0.52,0.35,0.29,
2.578,-0.28,0.25,-1.27,0.55,0.36,0.30,
2.58,0.01,0.28,-1.93,0.55,0.36,0.30,
2.58,0.01,0.28,-1.93,0.57,0.37,0.31,
2.582,0.01,0.28,-1.93,0.58,0.38,0.32,
2.583,0.01,0.28,-1.93,0.60,0.41,0.33,
2.586,0.01,0.28,-1.93,0.61,0.42,0.34,
2.589,0.01,0.28,-1.93,0.62,0.44,0.35,
2.59,0.20,0.27,-2.56,0.62,0.44,0.35,
2.59,0.20,0.27,-2.56,0.63,0.46,0.35,
2.592,0.20,0.27,-2.56,0.63,0.47,0.35,
2.594,0.20,0.27,-2.56,0.64,0.49,0.36,
2.596,0.20,0.27,-2.56,0.63,0.50,0.36,
2.598,0.20,0.27,-2.56,0.63,0.51,0.37,
2.6,0.28,0.39,-3.27,0.63,0.51,0.37,
2.6,0.28,0.39,-3.27,0.63,0.52,0.37,
2.602,0.28,0.39,-3.27,0.62,0.53,0.37,
2.604,0.28,0.39,-3.27,0.61,0.54,0.37,
2.605,0.28,0.39,-3.27,0.60,0.55,0.37,
2.608,0.28,0.39,-3.27,0.59,0.56,0.38,
2.61,0.21,0.34,-3.89,0.59,0.56,0.38,
2.61,0.21,0.34,-3.89,0.57,0.56,0.38,
2.612,0.21,0.34,-3.89,0.56,0.57,0.39,
2.614,0.21,0.34,-3.89,0.54,0.58,0.39,
2.615,0.21,0.34,-3.89,0.52,0.58,0.39,
2.618,0.21,0.34,-3.89,0.50,0.58,0.39,
2.62,0.17,0.36,-4.36,0.50,0.58,0.39,
2.62,0.17,0.36,-4.36,0.47,0.58,0.40,
2.622,0.17,0.36,-4.36,0.45,0.58,0.40,
2.624,0.17,0.36,-4.36,0.42,0.58,0.40,
2.626,0.17,0.36,-4.36,0.40,0.58,0.40,
2.629,0.17,0.36,-4.36,0.38,0.58,0.39,
2.63,0.25,0.27,-4.55,0.38,0.58,0.39,
2.63,0.25,0.27,-4.55,0.35,0.57,0.39,
2.637,0.25,0.27,-4.55,0.33,0.57,0.39,
2.638,0.25,0.27,-4.55,0.31,0.57,0.38,
2.638,0.25,0.27,-4.55,0.29,0.56,0.38,
2.638,0.25,0.27,-4.55,0.27,0.55,0.37,
2.642,0.46,0.24,-4.35,0.27,0.55,0.37,
2.643,0.46,0.24,-4.35,0.25,0.54,0.36,
2.643,0.46,0.24,-4.35,0.24,0.53,0.35,
2.647,0.46,0.24,-4.35,0.23,0.52,0.34,
2.647,0.46,0.24,-4.35,0.22,0.50,0.33,
2.656,0.46,0.24,-4.35,0.21,0.49,0.32,
2.657,0.69,0.14,-3.86,0.21,0.49,0.32,
2.657,0.69,0.14,-3.86,0.21,0.47,0.30,
2.657,0.69,0.14,-3.86,0.20,0.45,0.29,
2.66,0.69,0.14,-3.86,0.20,0.43,0.28,
2.66,0.69,0.14,-3.86,0.19,0.41,0.27,
2.674,0.69,0.14,-3.86,0.19,0.39,0.27,
2.674,0.73,-0.01,-3.40,0.19,0.39,0.27,
2.675,0.73,-0.01,-3.40,0.19,0.38,0.26,
2.675,0.73,-0.01,-3.40,0.19,0.36,0.26,
2.675,0.73,-0.01,-3.40,0.19,0.34,0.26,
2.676,0.73,-0.01,-3.40,0.19,0.33,0.26,
2.676,0.73,-0.01,-3.40,0.19,0.31,0.26,
2.677,0.48,-0.22,-2.96,0.19,0.31,0.26,
2.677,0.48,-0.22,-2.96,0.19,0.29,0.26,
2.677,0.48,-0.22,-2.96,0.19,0.28,0.27,
2.678,0.48,-0.22,-2.96,0.19,0.26,0.27,
2.678,0.48,-0.22,-2.96,0.19,0.24,0.28,
2.679,0.48,-0.22,-2.96,0.20,0.23,0.28,
2.684,0.36,-0.41,-2.40,0.20,0.23,0.28,
2.685,0.36,-0.41,-2.40,0.20,0.22,0.29,
2.685,0.36,-0.41,-2.40,0.21,0.20,0.30,
2.685,0.36,-0.41,-2.40,0.22,0.19,0.31,
2.685,0.36,-0.41,-2.40,0.23,0.18,0.31,
2.688,0.36,-0.41,-2.40,0.24,0.18,0.33,
2.69,0.26,-0.62,-1.80,0.24,0.18,0.33,
2.69,0.26,-0.62,-1.80,0.25,0.17,0.34,
2.692,0.26,-0.62,-1.80,0.27,0.17,0.35,
2.694,0.26,-0.62,-1.80,0.28,0.17,0.37,
2.696,0.26,-0.62,-1.80,0.30,0.17,0.39,
2.698,0.26,-0.62,-1.80,0.31,0.17,0.41,
2.701,0.18,-0.85,-1.33,0.31,0.17,0.41,
2.702,0.18,-0.85,-1.33,0.33,0.17,0.42,
2.702,0.18,-0.85,-1.33,0.34,0.18,0.44,
2.704,0.18,-0.85,-1.33,0.36,0.19,0.46,
2.705,0.18,-0.85,-1.33,0.38,0.20,0.48,
2.708,0.18,-0.85,-1.33,0.39,0.21,0.49,
2.71,0.35,-0.97,-1.07,0.39,0.21,0.49,
2.71,0.35,-0.97,-1.07,0.42,0.22,0.51,
2.712,0.35,-0.97,-1.07,0.44,0.23,0.52,
2.714,0.35,-0.97,-1.07,0.46,0.25,0.53,
2.717,0.35,-0.97,-1.07,0.48,0.26,0.54,
2.718,0.35,-0.97,-1.07,0.51,0.28,0.56,
2.72,0.64,-1.05,-0.87,0.51,0.28,0.56,
2.721,0.64,-1.05,-0.87,0.54,0.29,0.57,
2.722,0.64,-1.05,-0.87,0.57,0.31,0.58,
2.724,0.64,-1.05,-0.87,0.60,0.33,0.58,
2.726,0.64,-1.05,-0.87,0.63,0.34,0.59,
2.728,0.64,-1.05,-0.87,0.66,0.35,0.60,
2.731,0.85,-0.98,-0.83,0.66,0.35,0.60,
2.732,0.85,-0.98,-0.83,0.69,0.36,0.60,
2.732,0.85,-0.98,-0.83,0.72,0.37,0.61,
2.734,0.85,-0.98,-0.83,0.75,0.38,0.62,
2.736,0.85,-0.98,-0.83,0.77,0.39,0.62,
2.74,0.85,-0.98,-0.83,0.82,0.39,0.63,
2.74,0.85,-0.98,-0.83,0.82,0.39,0.63,
2.741,0.99,-0.90,-1.13,0.82,0.39,0.63,
2.743,0.99,-0.90,-1.13,0.84,0.40,0.63,
2.744,0.99,-0.90,-1.13,0.86,0.40,0.63,
2.746,0.99,-0.90,-1.13,0.88,0.40,0.63,
2.748,0.99,-0.90,-1.13,0.89,0.40,0.63,
2.751,0.98,-0.81,-1.74,0.89,0.40,0.63,
2.752,0.98,-0.81,-1.74,0.90,0.39,0.62,
2.752,0.98,-0.81,-1.74,0.91,0.38,0.63,
2.754,0.98,-0.81,-1.74,0.91,0.38,0.63,
2.756,0.98,-0.81,-1.74,0.92,0.37,0.62,
2.759,0.98,-0.81,-1.74,0.92,0.36,0.62,
2.763,1.03,-0.61,-2.46,0.92,0.36,0.62,
2.763,1.03,-0.61,-2.46,0.91,0.35,0.61,
2.764,1.03,-0.61,-2.46,0.91,0.34,0.61,
2.764,1.03,-0.61,-2.46,0.90,0.33,0.60,
2.769,1.03,-0.61,-2.46,0.89,0.32,0.59,
2.771,1.03,-0.61,-2.46,0.88,0.30,0.58,
2.772,1.03,-0.45,-2.90,0.88,0.30,0.58,
2.773,1.03,-0.45,-2.90,0.87,0.29,0.58,
2.773,1.03,-0.45,-2.90,0.86,0.28,0.57,
2.779,1.03,-0.45,-2.90,0.84,0.26,0.56,
2.779,1.03,-0.45,-2.90,0.83,0.25,0.55,
2.779,1.03,-0.45,-2.90,0.81,0.24,0.54,
2.79,1.03,-0.26,-3.20,0.81,0.24,0.54,
2.791,1.03,-0.26,-3.20,0.79,0.23,0.53,
2.791,1.03,-0.26,-3.20,0.77,0.23,0.52,
2.792,1.03,-0.26,-3.20,0.75,0.22,0.52,
2.792,1.03,-0.26,-3.20,0.72,0.21,0.51,
2.792,1.03,-0.26,-3.20,0.70,0.21,0.50,
2.793,0.89,-0.14,-3.21,0.70,0.21,0.50,
2.793,0.89,-0.14,-3.21,0.67,0.20,0.50,
2.793,0.89,-0.14,-3.21,0.65,0.19,0.49,
2.794,0.89,-0.14,-3.21,0.62,0.19,0.49,
2.799,0.89,-0.14,-3.21,0.60,0.18,0.48,
2.799,0.89,-0.14,-3.21,0.57,0.18,0.48,
2.827,0.82,-0.05,-3.09,0.57,0.18,0.48,
2.828,0.82,-0.05,-3.09,0.55,0.17,0.47,
2.829,0.82,-0.05,-3.09,0.52,0.17,0.47,
2.829,0.82,-0.05,-3.09,0.50,0.16,0.47,
2.83,0.82,-0.05,-3.09,0.47,0.16,0.46,
2.831,0.82,-0.05,-3.09,0.45,0.15,0.46,
2.831,0.80,-0.02,-2.85,0.45,0.15,0.46,
2.833,0.80,-0.02,-2.85,0.42,0.14,0.45,
2.833,0.80,-0.02,-2.85,0.39,0.13,0.45,
2.834,0.80,-0.02,-2.85,0.37,0.12,0.44,
2.834,0.80,-0.02,-2.85,0.35,0.10,0.43,
2.835,0.80,-0.02,-2.85,0.32,0.09,0.42,
2.836,1.02,0.07,-2.43,0.32,0.09,0.42,
2.837,1.02,0.07,-2.43,0.30,0.07,0.41,
2.837,1.02,0.07,-2.43,0.29,0.05,0.40,
2.862,1.02,0.07,-2.43,0.27,0.03,0.39,
2.863,1.02,0.07,-2.43,0.26,0.01,0.37,
2.863,1.02,0.07,-2.43,0.25,-0.01,0.36,
2.863,1.33,0.13,-1.66,0.25,-0.01,0.36,
2.864,1.33,0.13,-1.66,0.24,-0.03,0.34,
2.864,1.33,0.13,-1.66,0.23,-0.05,0.32,
2.864,1.33,0.13,-1.66,0.22,-0.06,0.30,
2.865,1.33,0.13,-1.66,0.22,-0.07,0.28,
2.865,1.33,0.13,-1.66,0.21,-0.08,0.27,
2.865,1.71,0.17,-0.87,0.21,-0.08,0.27,
2.865,1.71,0.17,-0.87,0.21,-0.08,0.25,
2.866,1.71,0.17,-0.87,0.21,-0.08,0.23,
2.866,1.71,0.17,-0.87,0.21,-0.08,0.21,
2.866,1.71,0.17,-0.87,0.20,-0.07,0.19,
2.866,1.71,0.17,-0.87,0.20,-0.06,0.17,
2.867,1.91,0.12,-0.27,0.20,-0.06,0.17,
2.867,1.91,0.12,-0.27,0.20,-0.05,0.16,
2.867,1.91,0.12,-0.27,0.20,-0.04,0.14,
2.867,1.91,0.12,-0.27,0.20,-0.02,0.12,
2.868,1.91,0.12,-0.27,0.20,-0.00,0.10,
2.868,1.91,0.12,-0.27,0.20,0.02,0.09,
2.868,1.98,0.08,0.16,0.20,0.02,0.09,
2.869,1.98,0.08,0.16,0.20,0.04,0.07,
2.869,1.98,0.08,0.16,0.20,0.06,0.06,
2.869,1.98,0.08,0.16,0.20,0.08,0.05,
2.869,1.98,0.08,0.16,0.20,0.10,0.04,
2.87,1.98,0.08,0.16,0.20,0.12,0.03,
2.874,1.83,-0.02,0.51,0.20,0.12,0.03,
2.875,1.83,-0.02,0.51,0.20,0.14,0.03,
2.875,1.83,-0.02,0.51,0.20,0.16,0.02,
2.875,1.83,-0.02,0.51,0.21,0.18,0.02,
2.877,1.83,-0.02,0.51,0.21,0.19,0.01,
2.878,1.83,-0.02,0.51,0.22,0.21,0.01,
2.882,1.56,-0.13,0.93,0.22,0.21,0.01,
2.882,1.56,-0.13,0.93,0.23,0.23,0.01,
2.894,1.56,-0.13,0.93,0.24,0.24,0.01,
2.895,1.56,-0.13,0.93,0.25,0.26,0.02,
2.895,1.56,-0.13,0.93,0.27,0.28,0.02,
2.895,1.56,-0.13,0.93,0.28,0.29,0.03,
2.896,1.13,-0.20,1.35,0.28,0.29,0.03,
2.896,1.13,-0.20,1.35,0.29,0.29,0.03,
2.896,1.13,-0.20,1.35,0.31,0.30,0.04,
2.896,1.13,-0.20,1.35,0.33,0.30,0.05,
2.897,1.13,-0.20,1.35,0.35,0.30,0.06,
2.907,1.13,-0.20,1.35,0.37,0.29,0.06,
2.908,0.90,-0.29,1.75,0.37,0.29,0.06,
2.908,0.90,-0.29,1.75,0.39,0.28,0.07,
2.909,0.90,-0.29,1.75,0.41,0.27,0.08,
2.909,0.90,-0.29,1.75,0.43,0.25,0.09,
2.909,0.90,-0.29,1.75,0.46,0.24,0.09,
2.909,0.90,-0.29,1.75,0.48,0.22,0.10,
2.911,0.68,-0.27,2.26,0.48,0.22,0.10,
2.911,0.68,-0.27,2.26,0.50,0.20,0.11,
2.912,0.68,-0.27,2.26,0.53,0.18,0.12,
2.938,0.68,-0.27,2.26,0.55,0.15,0.13,
2.939,0.68,-0.27,2.26,0.58,0.12,0.14,
2.939,0.68,-0.27,2.26,0.60,0.10,0.15,
2.939,0.48,-0.35,2.72,0.60,0.10,0.15,
2.939,0.48,-0.35,2.72,0.62,0.06,0.16,
2.94,0.48,-0.35,2.72,0.64,0.03,0.17,
2.94,0.48,-0.35,2.72,0.66,0.00,0.17,
2.94,0.48,-0.35,2.72,0.68,-0.03,0.18,
2.94,0.48,-0.35,2.72,0.69,-0.06,0.18,
2.941,0.51,-0.25,2.85,0.69,-0.06,0.18,
2.941,0.51,-0.25,2.85,0.70,-0.10,0.18,
2.941,0.51,-0.25,2.85,0.71,-0.14,0.18,
2.941,0.51,-0.25,2.85,0.72,-0.18,0.17,
2.942,0.51,-0.25,2.85,0.73,-0.21,0.17,
2.943,0.51,-0.25,2.85,0.74,-0.25,0.16,
2.943,0.65,-0.10,2.90,0.74,-0.25,0.16,
2.943,0.65,-0.10,2.90,0.74,-0.28,0.16,
2.944,0.65,-0.10,2.90,0.75,-0.31,0.15,
2.945,0.65,-0.10,2.90,0.75,-0.33,0.14,
2.948,0.65,-0.10,2.90,0.75,-0.34,0.14,
2.949,0.65,-0.10,2.90,0.74,-0.35,0.13,
2.952,0.51,0.19,2.65,0.74,-0.35,0.13,
2.953,0.51,0.19,2.65,0.73,-0.35,0.12,
2.953,0.51,0.19,2.65,0.71,-0.34,0.12,
2.964,0.51,0.19,2.65,0.69,-0.34,0.12,
2.965,0.51,0.19,2.65,0.65,-0.34,0.12,
2.965,0.51,0.19,2.65,0.61,-0.35,0.12,
2.965,0.03,0.42,1.65,0.61,-0.35,0.12,
2.965,0.03,0.42,1.65,0.56,-0.36,0.12,
2.966,0.03,0.42,1.65,0.50,-0.39,0.12,
2.966,0.03,0.42,1.65,0.42,-0.42,0.11,
2.968,0.03,0.42,1.65,0.33,-0.46,0.11,
2.969,0.03,0.42,1.65,0.24,-0.51,0.10,
2.97,-0.19,0.51,0.16,0.24,-0.51,0.10,
2.971,-0.19,0.51,0.16,0.14,-0.56,0.10,
2.972,-0.19,0.51,0.16,0.03,-0.62,0.09,
2.974,-0.19,0.51,0.16,-0.09,-0.68,0.07,
2.975,-0.19,0.51,0.16,-0.20,-0.75,0.06,
2.978,-0.19,0.51,0.16,-0.32,-0.81,0.05,
2.98,0.05,0.36,-0.42,-0.32,-0.81,0.05,
2.981,0.05,0.36,-0.42,-0.43,-0.87,0.04,
2.982,0.05,0.36,-0.42,-0.54,-0.92,0.02,
2.984,0.05,0.36,-0.42,-0.64,-0.96,0.00,
2.988,0.05,0.36,-0.42,-0.74,-0.99,-0.01,
2.988,0.05,0.36,-0.42,-0.83,-1.01,-0.04,
2.991,0.56,0.19,0.86,-0.83,-1.01,-0.04,
3.013,0.56,0.19,0.86,-0.90,-1.02,-0.06,
3.014,0.56,0.19,0.86,-0.97,-1.03,-0.08,
3.014,0.56,0.19,0.86,-1.03,-1.02,-0.11,
3.014,0.56,0.19,0.86,-1.09,-1.00,-0.13,
3.014,0.56,0.19,0.86,-1.14,-0.98,-0.15,
3.015,1.19,-0.16,2.92,-1.14,-0.98,-0.15,
3.015,1.19,-0.16,2.92,-1.18,-0.96,-0.17,
3.015,1.19,-0.16,2.92,-1.21,-0.92,-0.19,
3.015,1.19,-0.16,2.92,-1.23,-0.87,-0.21,
3.016,1.19,-0.16,2.92,-1.24,-0.82,-0.23,
3.016,1.19,-0.16,2.92,-1.24,-0.77,-0.24,
3.016,1.10,-0.59,4.97,-1.24,-0.77,-0.24,
3.016,1.10,-0.59,4.97,-1.24,-0.70,-0.24,
3.017,1.10,-0.59,4.97,-1.22,-0.64,-0.25,
3.017,1.10,-0.59,4.97,-1.21,-0.56,-0.25,
3.017,1.10,-0.59,4.97,-1.18,-0.49,-0.24,
3.023,1.10,-0.59,4.97,-1.15,-0.42,-0.24,
3.023,0.55,-1.05,6.50,-1.15,-0.42,-0.24,
3.024,0.55,-1.05,6.50,-1.11,-0.35,-0.23,
3.024,0.55,-1.05,6.50,-1.07,-0.28,-0.21,
3.024,0.55,-1.05,6.50,-1.02,-0.21,-0.20,
3.026,0.55,-1.05,6.50,-0.97,-0.15,-0.18,
3.028,0.55,-1.05,6.50,-0.92,-0.09,-0.15,
3.03,-0.14,-1.16,6.98,-0.92,-0.09,-0.15,
3.031,-0.14,-1.16,6.98,-0.87,-0.04,-0.13,
3.033,-0.14,-1.16,6.98,-0.82,0.01,-0.11,
3.034,-0.14,-1.16,6.98,-0.77,0.05,-0.08,
3.036,-0.14,-1.16,6.98,-0.72,0.07,-0.05,
3.038,-0.14,-1.16,6.98,-0.67,0.10,-0.03,
3.04,-0.67,-1.06,6.18,-0.67,0.10,-0.03,
3.041,-0.67,-1.06,6.18,-0.63,0.11,-0.01,
3.042,-0.67,-1.06,6.18,-0.60,0.11,0.01,
3.044,-0.67,-1.06,6.18,-0.57,0.12,0.03,
3.053,-0.67,-1.06,6.18,-0.55,0.11,0.05,
3.053,-0.67,-1.06,6.18,-0.54,0.11,0.06,
3.053,-0.71,-0.75,4.16,-0.54,0.11,0.06,
3.054,-0.71,-0.75,4.16,-0.53,0.10,0.07,
3.054,-0.71,-0.75,4.16,-0.53,0.09,0.07,
3.054,-0.71,-0.75,4.16,-0.54,0.07,0.07,
3.056,-0.71,-0.75,4.16,-0.55,0.04,0.07,
3.059,-0.71,-0.75,4.16,-0.57,0.02,0.06,
3.062,-0.18,-0.51,1.96,-0.57,0.02,0.06,
3.062,-0.18,-0.51,1.96,-0.58,-0.01,0.05,
3.076,-0.18,-0.51,1.96,-0.60,-0.04,0.03,
3.076,-0.18,-0.51,1.96,-0.62,-0.08,0.01,
3.076,-0.18,-0.51,1.96,-0.65,-0.11,-0.02,
3.077,-0.18,-0.51,1.96,-0.67,-0.15,-0.05,
3.077,0.64,-0.19,0.55,-0.67,-0.15,-0.05,
3.077,0.64,-0.19,0.55,-0.69,-0.19,-0.09,
3.077,0.64,-0.19,0.55,-0.70,-0.22,-0.12,
3.077,0.64,-0.19,0.55,-0.72,-0.26,-0.16,
3.077,0.64,-0.19,0.55,-0.74,-0.29,-0.21,
3.078,0.64,-0.19,0.55,-0.75,-0.31,-0.25,
3.086,1.55,-0.12,0.03,-0.75,-0.31,-0.25,
3.087,1.55,-0.12,0.03,-0.76,-0.34,-0.30,
3.087,1.55,-0.12,0.03,-0.77,-0.36,-0.35,
3.087,1.55,-0.12,0.03,-0.77,-0.37,-0.39,
3.087,1.55,-0.12,0.03,-0.78,-0.38,-0.44,
3.088,1.55,-0.12,0.03,-0.78,-0.39,-0.48,
3.09,1.76,-0.20,-0.12,-0.78,-0.39,-0.48,
3.09,1.76,-0.20,-0.12,-0.78,-0.39,-0.52,
3.094,1.76,-0.20,-0.12,-0.78,-0.38,-0.56,
3.094,1.76,-0.20,-0.12,-0.78,-0.37,-0.59,
3.098,1.76,-0.20,-0.12,-0.79,-0.36,-0.62,
3.099,1.76,-0.20,-0.12,-0.79,-0.34,-0.65,
3.101,1.33,-0.49,-0.38,-0.79,-0.34,-0.65,
3.101,1.33,-0.49,-0.38,-0.80,-0.32,-0.68,
3.101,1.33,-0.49,-0.38,-0.80,-0.30,-0.70,
3.104,1.33,-0.49,-0.38,-0.80,-0.28,-0.71,
3.105,1.33,-0.49,-0.38,-0.81,-0.25,-0.73,
3.108,1.33,-0.49,-0.38,-0.82,-0.22,-0.74,
3.11,0.52,-0.74,-0.78,-0.82,-0.22,-0.74,
3.11,0.52,-0.74,-0.78,-0.82,-0.20,-0.75,
3.112,0.52,-0.74,-0.78,-0.82,-0.17,-0.75,
3.114,0.52,-0.74,-0.78,-0.83,-0.14,-0.76,
3.116,0.52,-0.74,-0.78,-0.83,-0.11,-0.75,
3.117,0.52,-0.74,-0.78,-0.83,-0.09,-0.75,
3.12,-0.40,-0.99,-1.02,-0.83,-0.09,-0.75,
3.12,-0.40,-0.99,-1.02,-0.83,-0.06,-0.74,
3.122,-0.40,-0.99,-1.02,-0.82,-0.03,-0.73,
3.123,-0.40,-0.99,-1.02,-0.82,-0.01,-0.71,
3.126,-0.40,-0.99,-1.02,-0.81,0.01,-0.70,
3.128,-0.40,-0.99,-1.02,-0.80,0.02,-0.68,
3.13,-1.13,-1.17,-1.05,-0.80,0.02,-0.68,
3.133,-1.13,-1.17,-1.05,-0.79,0.04,-0.66,
3.133,-1.13,-1.17,-1.05,-0.77,0.05,-0.65,
3.134,-1.13,-1.17,-1.05,-0.75,0.06,-0.63,
3.136,-1.13,-1.17,-1.05,-0.73,0.06,-0.62,
3.139,-1.13,-1.17,-1.05,-0.70,0.07,-0.60,
3.142,-1.40,-1.27,-0.79,-0.70,0.07,-0.60,
3.142,-1.40,-1.27,-0.79,-0.67,0.07,-0.59,
3.142,-1.40,-1.27,-0.79,-0.63,0.08,-0.58,
3.146,-1.40,-1.27,-0.79,-0.59,0.08,-0.56,
3.146,-1.40,-1.27,-0.79,-0.55,0.09,-0.55,
3.149,-1.40,-1.27,-0.79,-0.50,0.09,-0.53,
3.152,-1.46,-1.23,-0.46,-0.50,0.09,-0.53,
3.152,-1.46,-1.23,-0.46,-0.45,0.09,-0.52,
3.153,-1.46,-1.23,-0.46,-0.40,0.08,-0.51,
3.156,-1.46,-1.23,-0.46,-0.35,0.08,-0.49,
3.156,-1.46,-1.23,-0.46,-0.30,0.08,-0.48,
3.172,-1.46,-1.23,-0.46,-0.24,0.07,-0.47,
3.172,-1.49,-1.22,-0.45,-0.24,0.07,-0.47,
3.172,-1.49,-1.22,-0.45,-0.19,0.06,-0.45,
3.173,-1.49,-1.22,-0.45,-0.14,0.05,-0.44,
3.173,-1.49,-1.22,-0.45,-0.08,0.04,-0.44,
3.173,-1.49,-1.22,-0.45,-0.03,0.03,-0.43,
3.173,-1.49,-1.22,-0.45,0.02,0.01,-0.42,
3.174,-1.39,-1.09,-0.77,0.02,0.01,-0.42,
3.174,-1.39,-1.09,-0.77,0.07,-0.01,-0.42,
3.174,-1.39,-1.09,-0.77,0.13,-0.03,-0.41,
3.174,-1.39,-1.09,-0.77,0.17,-0.05,-0.40,
3.18,-1.39,-1.09,-0.77,0.22,-0.07,-0.40,
3.181,-1.39,-1.09,-0.77,0.26,-0.10,-0.40,
3.181,-1.43,-1.01,-1.33,0.26,-0.10,-0.40,
3.181,-1.43,-1.01,-1.33,0.30,-0.13,-0.39,
3.182,-1.43,-1.01,-1.33,0.34,-0.15,-0.39,
3.186,-1.43,-1.01,-1.33,0.38,-0.19,-0.38,
3.186,-1.43,-1.01,-1.33,0.42,-0.22,-0.38,
3.19,-1.43,-1.01,-1.33,0.45,-0.26,-0.38,
3.19,-1.53,-0.99,-1.94,0.45,-0.26,-0.38,
3.19,-1.53,-0.99,-1.94,0.48,-0.29,-0.37,
3.194,-1.53,-0.99,-1.94,0.51,-0.34,-0.37,
3.194,-1.53,-0.99,-1.94,0.54,-0.39,-0.37,
3.198,-1.53,-0.99,-1.94,0.57,-0.44,-0.36,
3.204,-1.53,-0.99,-1.94,0.59,-0.50,-0.35,
3.204,-1.88,-1.03,-2.24,0.59,-0.50,-0.35,
3.205,-1.88,-1.03,-2.24,0.62,-0.56,-0.34,
3.205,-1.88,-1.03,-2.24,0.66,-0.63,-0.34,
3.205,-1.88,-1.03,-2.24,0.69,-0.71,-0.33,
3.205,-1.88,-1.03,-2.24,0.73,-0.79,-0.32,
3.21,-1.88,-1.03,-2.24,0.77,-0.88,-0.30,
3.213,-2.14,-1.15,-1.91,0.77,-0.88,-0.30,
3.214,-2.14,-1.15,-1.91,0.82,-0.98,-0.29,
3.214,-2.14,-1.15,-1.91,0.87,-1.08,-0.28,
3.214,-2.14,-1.15,-1.91,0.92,-1.18,-0.27,
3.221,-2.14,-1.15,-1.91,0.98,-1.29,-0.25,
3.222,-2.14,-1.15,-1.91,1.04,-1.40,-0.24,
3.222,-2.55,-1.26,-1.01,1.04,-1.40,-0.24,
3.222,-2.55,-1.26,-1.01,1.10,-1.50,-0.22,
3.222,-2.55,-1.26,-1.01,1.16,-1.61,-0.20,
3.248,-2.55,-1.26,-1.01,1.23,-1.72,-0.18,
3.249,-2.55,-1.26,-1.01,1.31,-1.82,-0.16,
3.249,-2.55,-1.26,-1.01,1.38,-1.91,-0.13,
3.25,-2.89,-1.32,0.03,1.38,-1.91,-0.13,
3.25,-2.89,-1.32,0.03,1.45,-2.00,-0.11,
3.25,-2.89,-1.32,0.03,1.53,-2.07,-0.08,
3.25,-2.89,-1.32,0.03,1.60,-2.13,-0.06,
3.25,-2.89,-1.32,0.03,1.67,-2.18,-0.03,
3.251,-2.89,-1.32,0.03,1.74,-2.21,0.00,
3.251,-2.89,-1.32,0.03,1.87,-2.24,0.07,
3.251,-2.89,-1.32,0.03,1.87,-2.24,0.07,
3.251,-3.47,-1.08,0.82,1.87,-2.24,0.07,
3.252,-3.47,-1.08,0.82,1.92,-2.24,0.10,
3.252,-3.47,-1.08,0.82,1.97,-2.23,0.14,
3.252,-3.47,-1.08,0.82,2.01,-2.21,0.17,
3.252,-3.45,-0.82,0.58,2.01,-2.21,0.17,
3.253,-3.45,-0.82,0.58,2.04,-2.19,0.20,
3.253,-3.45,-0.82,0.58,2.07,-2.15,0.23,
3.256,-3.45,-0.82,0.58,2.08,-2.10,0.26,
3.256,-3.45,-0.82,0.58,2.09,-2.05,0.29,
3.26,-3.45,-0.82,0.58,2.09,-2.00,0.32,
3.26,-3.26,-0.39,-0.22,2.09,-2.00,0.32,
3.26,-3.26,-0.39,-0.22,2.09,-1.94,0.35,
3.263,-3.26,-0.39,-0.22,2.08,-1.87,0.37,
3.264,-3.26,-0.39,-0.22,2.07,-1.80,0.39,
3.266,-3.26,-0.39,-0.22,2.06,-1.73,0.40,
3.268,-3.26,-0.39,-0.22,2.04,-1.66,0.41,
3.27,-2.55,0.09,-0.96,2.04,-1.66,0.41,
3.271,-2.55,0.09,-0.96,2.02,-1.60,0.42,
3.272,-2.55,0.09,-0.96,2.00,-1.54,0.43,
3.276,-2.55,0.09,-0.96,1.97,-1.48,0.44,
3.277,-2.55,0.09,-0.96,1.94,-1.43,0.44,
3.28,-2.55,0.09,-0.96,1.90,-1.37,0.44,
3.285,-1.78,0.75,-1.50,1.90,-1.37,0.44,
3.285,-1.78,0.75,-1.50,1.86,-1.32,0.44,
3.286,-1.78,0.75,-1.50,1.82,-1.27,0.43,
3.286,-1.78,0.75,-1.50,1.78,-1.22,0.42,
3.286,-1.78,0.75,-1.50,1.73,-1.17,0.41,
3.29,-1.78,0.75,-1.50,1.69,-1.12,0.40,
3.291,-0.90,1.13,-1.82,1.69,-1.12,0.40,
3.291,-0.90,1.13,-1.82,1.64,-1.08,0.38,
3.295,-0.90,1.13,-1.82,1.59,-1.03,0.36,
3.296,-0.90,1.13,-1.82,1.54,-0.99,0.34,
3.296,-0.90,1.13,-1.82,1.49,-0.94,0.31,
3.304,-0.90,1.13,-1.82,1.45,-0.90,0.28,
3.305,-0.01,1.39,-1.68,1.45,-0.90,0.28,
3.305,-0.01,1.39,-1.68,1.40,-0.86,0.25,
3.305,-0.01,1.39,-1.68,1.36,-0.81,0.22,
3.306,-0.01,1.39,-1.68,1.32,-0.77,0.18,
3.306,-0.01,1.39,-1.68,1.29,-0.72,0.15,
3.311,-0.01,1.39,-1.68,1.26,-0.67,0.11,
3.311,0.54,1.60,-0.90,1.26,-0.67,0.11,
3.311,0.54,1.60,-0.90,1.24,-0.63,0.08,
3.313,0.54,1.60,-0.90,1.22,-0.58,0.04,
3.314,0.54,1.60,-0.90,1.21,-0.53,0.01,
3.317,0.54,1.60,-0.90,1.19,-0.48,-0.03,
3.318,0.54,1.60,-0.90,1.19,-0.43,-0.06,
3.32,0.58,1.70,-0.05,1.19,-0.43,-0.06,
3.321,0.58,1.70,-0.05,1.18,-0.37,-0.09,
3.322,0.58,1.70,-0.05,1.17,-0.32,-0.11,
3.343,0.58,1.70,-0.05,1.17,-0.26,-0.14,
3.344,0.58,1.70,-0.05,1.16,-0.21,-0.16,
3.344,0.58,1.70,-0.05,1.16,-0.15,-0.17,
3.344,0.20,1.48,0.26,1.16,-0.15,-0.17,
3.345,0.20,1.48,0.26,1.15,-0.09,-0.19,
3.345,0.20,1.48,0.26,1.15,-0.04,-0.20,
3.345,0.20,1.48,0.26,1.14,0.02,-0.21,
3.345,0.20,1.48,0.26,1.14,0.08,-0.22,
3.346,0.20,1.48,0.26,1.13,0.12,-0.23,
3.346,-0.35,1.27,0.08,1.13,0.12,-0.23,
3.346,-0.35,1.27,0.08,1.13,0.17,-0.23,
3.346,-0.35,1.27,0.08,1.12,0.21,-0.23,
3.347,-0.35,1.27,0.08,1.11,0.25,-0.23,
3.347,-0.35,1.27,0.08,1.10,0.28,-0.22,
3.361,-0.35,1.27,0.08,1.09,0.31,-0.22,
3.362,-0.76,1.06,-0.28,1.09,0.31,-0.22,
3.362,-0.76,1.06,-0.28,1.08,0.34,-0.22,
3.362,-0.76,1.06,-0.28,1.07,0.36,-0.21,
3.362,-0.76,1.06,-0.28,1.06,0.39,-0.21,
3.363,-0.76,1.06,-0.28,1.05,0.40,-0.21,
3.363,-0.76,1.06,-0.28,1.04,0.42,-0.21,
3.363,-1.00,0.95,-0.65,1.04,0.42,-0.21,
3.363,-1.00,0.95,-0.65,1.02,0.43,-0.21,
3.376,-1.00,0.95,-0.65,1.01,0.44,-0.21,
3.377,-1.00,0.95,-0.65,1.00,0.45,-0.21,
3.377,-1.00,0.95,-0.65,0.98,0.46,-0.20,
3.377,-1.00,0.95,-0.65,0.97,0.46,-0.20,
3.377,-0.93,0.75,-0.97,0.97,0.46,-0.20,
3.378,-0.93,0.75,-0.97,0.95,0.45,-0.20,
3.378,-0.93,0.75,-0.97,0.94,0.45,-0.21,
3.378,-0.93,0.75,-0.97,0.92,0.44,-0.21,
3.388,-0.93,0.75,-0.97,0.90,0.43,-0.21,
3.389,-0.93,0.75,-0.97,0.88,0.42,-0.22,
3.389,-0.52,0.65,-1.16,0.88,0.42,-0.22,
3.39,-0.52,0.65,-1.16,0.86,0.42,-0.23,
3.39,-0.52,0.65,-1.16,0.84,0.41,-0.25,
3.39,-0.52,0.65,-1.16,0.82,0.41,-0.26,
3.39,-0.52,0.65,-1.16,0.79,0.41,-0.28,
3.39,-0.52,0.65,-1.16,0.76,0.42,-0.30,
3.391,0.01,0.67,-1.27,0.76,0.42,-0.30,
3.391,0.01,0.67,-1.27,0.73,0.43,-0.32,
3.394,0.01,0.67,-1.27,0.70,0.44,-0.34,
3.396,0.01,0.67,-1.27,0.66,0.46,-0.37,
3.397,0.01,0.67,-1.27,0.62,0.48,-0.39,
3.399,0.01,0.67,-1.27,0.57,0.51,-0.41,
3.4,0.38,0.67,-1.53,0.57,0.51,-0.41,
3.401,0.38,0.67,-1.53,0.53,0.53,-0.43,
3.402,0.38,0.67,-1.53,0.47,0.56,-0.45,
3.404,0.38,0.67,-1.53,0.42,0.60,-0.47,
3.408,0.38,0.67,-1.53,0.36,0.63,-0.48,
3.408,0.38,0.67,-1.53,0.30,0.67,-0.50,
3.416,0.31,0.48,-1.82,0.30,0.67,-0.50,
3.416,0.31,0.48,-1.82,0.24,0.71,-0.51,
3.417,0.31,0.48,-1.82,0.17,0.74,-0.51,
3.417,0.31,0.48,-1.82,0.10,0.78,-0.52,
3.417,0.31,0.48,-1.82,0.03,0.81,-0.53,
3.418,0.31,0.48,-1.82,-0.05,0.83,-0.53,
3.42,0.02,0.24,-2.00,-0.05,0.83,-0.53,
3.421,0.02,0.24,-2.00,-0.13,0.85,-0.53,
3.422,0.02,0.24,-2.00,-0.20,0.87,-0.53,
3.424,0.02,0.24,-2.00,-0.28,0.87,-0.53,
3.426,0.02,0.24,-2.00,-0.35,0.88,-0.52,
3.429,0.02,0.24,-2.00,-0.42,0.87,-0.52,
3.431,-0.23,-0.11,-1.45,-0.42,0.87,-0.52,
3.431,-0.23,-0.11,-1.45,-0.49,0.87,-0.51,
3.432,-0.23,-0.11,-1.45,-0.55,0.86,-0.50,
3.434,-0.23,-0.11,-1.45,-0.61,0.85,-0.50,
3.439,-0.23,-0.11,-1.45,-0.65,0.83,-0.49,
3.44,-0.23,-0.11,-1.45,-0.69,0.82,-0.48,
3.441,-0.30,-0.31,0.20,-0.69,0.82,-0.48,
3.441,-0.30,-0.31,0.20,-0.72,0.80,-0.48,
3.442,-0.30,-0.31,0.20,-0.74,0.78,-0.47,
3.445,-0.30,-0.31,0.20,-0.75,0.76,-0.46,
3.446,-0.30,-0.31,0.20,-0.76,0.74,-0.44,
3.451,-0.30,-0.31,0.20,-0.76,0.73,-0.43,
3.458,-0.17,-0.54,2.26,-0.76,0.73,-0.43,
3.458,-0.17,-0.54,2.26,-0.75,0.70,-0.42,
3.459,-0.17,-0.54,2.26,-0.74,0.68,-0.40,
3.459,-0.17,-0.54,2.26,-0.72,0.66,-0.39,
3.459,-0.17,-0.54,2.26,-0.69,0.64,-0.38,
3.463,-0.17,-0.54,2.26,-0.66,0.63,-0.36,
3.463,0.05,-0.82,4.06,-0.66,0.63,-0.36,
3.463,0.05,-0.82,4.06,-0.63,0.61,-0.34,
3.463,0.05,-0.82,4.06,-0.59,0.60,-0.32,
3.468,0.05,-0.82,4.06,-0.55,0.59,-0.31,
3.468,0.05,-0.82,4.06,-0.51,0.59,-0.29,
3.469,0.05,-0.82,4.06,-0.47,0.59,-0.27,
3.472,0.31,-0.85,5.08,-0.47,0.59,-0.27,
3.473,0.31,-0.85,5.08,-0.43,0.58,-0.26,
3.473,0.31,-0.85,5.08,-0.38,0.58,-0.24,
3.475,0.31,-0.85,5.08,-0.34,0.58,-0.23,
3.478,0.31,-0.85,5.08,-0.30,0.59,-0.21,
3.478,0.31,-0.85,5.08,-0.26,0.60,-0.19,
3.486,0.59,-0.83,5.16,-0.26,0.60,-0.19,
3.487,0.59,-0.83,5.16,-0.23,0.61,-0.18,
3.487,0.59,-0.83,5.16,-0.20,0.62,-0.17,
3.487,0.59,-0.83,5.16,-0.17,0.62,-0.15,
3.487,0.59,-0.83,5.16,-0.15,0.62,-0.14,
3.493,0.59,-0.83,5.16,-0.14,0.63,-0.13,
3.493,0.70,-0.62,4.16,-0.14,0.63,-0.13,
3.513,0.70,-0.62,4.16,-0.13,0.62,-0.11,
3.513,0.70,-0.62,4.16,-0.12,0.61,-0.10,
3.513,0.70,-0.62,4.16,-0.13,0.60,-0.09,
3.514,0.70,-0.62,4.16,-0.15,0.58,-0.08,
3.514,0.70,-0.62,4.16,-0.17,0.55,-0.07,
3.514,0.68,-0.33,2.57,-0.17,0.55,-0.07,
3.514,0.68,-0.33,2.57,-0.21,0.51,-0.05,
3.515,0.68,-0.33,2.57,-0.25,0.46,-0.04,
3.515,0.68,-0.33,2.57,-0.31,0.40,-0.02,
3.515,0.68,-0.33,2.57,-0.37,0.34,-0.01,
3.515,0.68,-0.33,2.57,-0.44,0.27,0.00,
3.515,0.67,0.01,0.87,-0.44,0.27,0.00,
3.516,0.67,0.01,0.87,-0.52,0.20,0.02,
3.516,0.67,0.01,0.87,-0.60,0.13,0.03,
3.518,0.67,0.01,0.87,-0.69,0.05,0.03,
3.518,0.67,0.01,0.87,-0.78,-0.01,0.03,
3.521,0.67,0.01,0.87,-0.87,-0.07,0.03,
3.521,1.35,0.22,0.22,-0.87,-0.07,0.03,
3.521,1.35,0.22,0.22,-0.95,-0.12,0.02,
3.522,1.35,0.22,0.22,-1.03,-0.16,0.01,
3.524,1.35,0.22,0.22,-1.11,-0.18,-0.01,
3.527,1.35,0.22,0.22,-1.18,-0.20,-0.02,
3.528,1.35,0.22,0.22,-1.25,-0.21,-0.04,
3.531,2.30,0.09,0.76,-1.25,-0.21,-0.04,
3.531,2.30,0.09,0.76,-1.31,-0.21,-0.06,
3.532,2.30,0.09,0.76,-1.37,-0.21,-0.08,
3.534,2.30,0.09,0.76,-1.44,-0.20,-0.10,
3.536,2.30,0.09,0.76,-1.49,-0.19,-0.12,
3.538,2.30,0.09,0.76,-1.54,-0.17,-0.14,
3.541,3.01,-0.29,1.58,-1.54,-0.17,-0.14,
3.541,3.01,-0.29,1.58,-1.59,-0.14,-0.16,
3.542,3.01,-0.29,1.58,-1.63,-0.10,-0.18,
3.545,3.01,-0.29,1.58,-1.67,-0.06,-0.20,
3.546,3.01,-0.29,1.58,-1.71,-0.02,-0.21,
3.549,3.01,-0.29,1.58,-1.74,0.03,-0.22,
3.551,2.89,-0.74,2.22,-1.74,0.03,-0.22,
3.551,2.89,-0.74,2.22,-1.77,0.08,-0.23,
3.552,2.89,-0.74,2.22,-1.80,0.14,-0.24,
3.554,2.89,-0.74,2.22,-1.82,0.19,-0.24,
3.558,2.89,-0.74,2.22,-1.84,0.25,-0.23,
3.558,2.89,-0.74,2.22,-1.85,0.31,-0.23,
3.562,2.36,-1.26,2.80,-1.85,0.31,-0.23,
3.562,2.36,-1.26,2.80,-1.86,0.37,-0.22,
3.562,2.36,-1.26,2.80,-1.86,0.44,-0.20,
3.565,2.36,-1.26,2.80,-1.85,0.50,-0.19,
3.565,2.36,-1.26,2.80,-1.83,0.56,-0.17,
3.575,2.36,-1.26,2.80,-1.81,0.62,-0.15,
3.576,1.55,-1.41,3.50,-1.81,0.62,-0.15,
3.576,1.55,-1.41,3.50,-1.78,0.68,-0.13,
3.576,1.55,-1.41,3.50,-1.74,0.73,-0.10,
3.576,1.55,-1.41,3.50,-1.70,0.77,-0.08,
3.576,1.55,-1.41,3.50,-1.65,0.80,-0.06,
3.581,1.55,-1.41,3.50,-1.60,0.83,-0.04,
3.582,1.15,-1.32,3.83,-1.60,0.83,-0.04,
3.582,1.15,-1.32,3.83,-1.54,0.85,-0.01,
3.582,1.15,-1.32,3.83,-1.48,0.87,0.01,
3.584,1.15,-1.32,3.83,-1.42,0.87,0.03,
3.586,1.15,-1.32,3.83,-1.36,0.88,0.05,
3.59,1.15,-1.32,3.83,-1.29,0.87,0.07,
3.592,0.85,-1.09,3.55,-1.29,0.87,0.07,
3.592,0.85,-1.09,3.55,-1.22,0.87,0.09,
3.593,0.85,-1.09,3.55,-1.15,0.85,0.10,
3.595,0.85,-1.09,3.55,-1.08,0.84,0.12,
3.597,0.85,-1.09,3.55,-1.01,0.82,0.14,
3.598,0.85,-1.09,3.55,-0.95,0.79,0.16,
3.605,0.54,-0.86,2.57,-0.95,0.79,0.16,
3.605,0.54,-0.86,2.57,-0.88,0.77,0.18,
3.606,0.54,-0.86,2.57,-0.82,0.74,0.20,
3.606,0.54,-0.86,2.57,-0.76,0.70,0.22,
3.606,0.54,-0.86,2.57,-0.71,0.66,0.24,
3.614,0.54,-0.86,2.57,-0.66,0.63,0.26,
3.614,0.17,-0.55,1.12,-0.66,0.63,0.26,
3.615,0.17,-0.55,1.12,-0.61,0.58,0.29,
3.615,0.17,-0.55,1.12,-0.57,0.54,0.31,
3.615,0.17,-0.55,1.12,-0.53,0.51,0.33,
3.617,0.17,-0.55,1.12,-0.50,0.47,0.35,
3.618,0.17,-0.55,1.12,-0.47,0.44,0.37,
3.621,-0.02,-0.25,-0.48,-0.47,0.44,0.37,
3.621,-0.02,-0.25,-0.48,-0.45,0.40,0.39,
3.622,-0.02,-0.25,-0.48,-0.43,0.37,0.41,
3.646,-0.02,-0.25,-0.48,-0.41,0.33,0.42,
3.646,-0.02,-0.25,-0.48,-0.41,0.30,0.43,
3.647,-0.02,-0.25,-0.48,-0.40,0.27,0.44,
3.647,0.26,-0.14,-1.97,-0.40,0.27,0.44,
3.647,0.26,-0.14,-1.97,-0.41,0.23,0.45,
3.647,0.26,-0.14,-1.97,-0.41,0.20,0.45,
3.647,0.26,-0.14,-1.97,-0.42,0.17,0.45,
3.647,0.26,-0.14,-1.97,-0.43,0.15,0.45,
3.647,0.26,-0.14,-1.97,-0.45,0.13,0.46,
3.648,0.54,0.07,-3.11,-0.45,0.13,0.46,
3.648,0.54,0.07,-3.11,-0.47,0.10,0.46,
3.648,0.54,0.07,-3.11,-0.48,0.09,0.46,
3.648,0.54,0.07,-3.11,-0.50,0.08,0.46,
3.65,0.54,0.07,-3.11,-0.53,0.07,0.45,
3.65,0.54,0.07,-3.11,-0.55,0.06,0.45,
3.651,0.63,0.24,-3.81,-0.55,0.06,0.45,
3.651,0.63,0.24,-3.81,-0.58,0.05,0.45,
3.652,0.63,0.24,-3.81,-0.60,0.05,0.44,
3.654,0.63,0.24,-3.81,-0.63,0.05,0.44,
3.656,0.63,0.24,-3.81,-0.66,0.06,0.43,
3.673,0.63,0.24,-3.81,-0.68,0.07,0.43,
3.673,0.79,0.30,-4.14,-0.68,0.07,0.43,
3.673,0.79,0.30,-4.14,-0.71,0.08,0.42,
3.673,0.79,0.30,-4.14,-0.73,0.09,0.41,
3.673,0.79,0.30,-4.14,-0.76,0.11,0.40,
3.674,0.79,0.30,-4.14,-0.78,0.12,0.40,
3.674,0.79,0.30,-4.14,-0.80,0.14,0.39,
3.674,0.81,0.18,-4.01,-0.80,0.14,0.39,
3.674,0.81,0.18,-4.01,-0.81,0.16,0.38,
3.674,0.81,0.18,-4.01,-0.82,0.17,0.38,
3.675,0.81,0.18,-4.01,-0.83,0.19,0.38,
3.678,0.81,0.18,-4.01,-0.84,0.21,0.37,
3.679,0.81,0.18,-4.01,-0.85,0.23,0.37,
3.681,0.67,0.15,-3.68,-0.85,0.23,0.37,
3.681,0.67,0.15,-3.68,-0.85,0.24,0.37,
3.684,0.67,0.15,-3.68,-0.85,0.26,0.37,
3.685,0.67,0.15,-3.68,-0.84,0.27,0.37,
3.686,0.67,0.15,-3.68,-0.84,0.27,0.37,
3.688,0.67,0.15,-3.68,-0.83,0.28,0.38,
3.69,0.42,0.03,-3.27,-0.83,0.28,0.38,
3.69,0.42,0.03,-3.27,-0.82,0.28,0.38,
3.691,0.42,0.03,-3.27,-0.81,0.27,0.38,
3.694,0.42,0.03,-3.27,-0.79,0.26,0.38,
3.696,0.42,0.03,-3.27,-0.78,0.26,0.39,
3.698,0.42,0.03,-3.27,-0.76,0.24,0.39,
3.704,0.32,-0.15,-2.99,-0.76,0.24,0.39,
3.704,0.32,-0.15,-2.99,-0.75,0.22,0.40,
3.704,0.32,-0.15,-2.99,-0.73,0.20,0.40,
3.704,0.32,-0.15,-2.99,-0.71,0.18,0.40,
3.706,0.32,-0.15,-2.99,-0.68,0.16,0.41,
3.708,0.32,-0.15,-2.99,-0.65,0.13,0.41,
3.711,0.23,-0.35,-2.61,-0.65,0.13,0.41,
3.711,0.23,-0.35,-2.61,-0.62,0.10,0.42,
3.712,0.23,-0.35,-2.61,-0.59,0.07,0.43,
3.714,0.23,-0.35,-2.61,-0.56,0.05,0.43,
3.718,0.23,-0.35,-2.61,-0.52,0.02,0.43,
3.719,0.23,-0.35,-2.61,-0.48,-0.01,0.44,
3.72,0.31,-0.51,-2.07,-0.48,-0.01,0.44,
3.72,0.31,-0.51,-2.07,-0.43,-0.04,0.44,
3.721,0.31,-0.51,-2.07,-0.39,-0.06,0.45,
3.724,0.31,-0.51,-2.07,-0.35,-0.09,0.45,
3.726,0.31,-0.51,-2.07,-0.30,-0.11,0.45,
3.728,0.31,-0.51,-2.07,-0.26,-0.13,0.46,
3.73,0.41,-0.65,-1.73,-0.26,-0.13,0.46,
3.73,0.41,-0.65,-1.73,-0.22,-0.14,0.46,
3.732,0.41,-0.65,-1.73,-0.18,-0.15,0.46,
3.734,0.41,-0.65,-1.73,-0.14,-0.16,0.46,
3.736,0.41,-0.65,-1.73,-0.10,-0.17,0.47,
3.74,0.41,-0.65,-1.73,-0.03,-0.17,0.47,
3.74,0.41,-0.65,-1.73,-0.03,-0.17,0.47,
3.741,0.51,-0.79,-1.74,-0.03,-0.17,0.47,
3.742,0.51,-0.79,-1.74,0.00,-0.16,0.47,
3.748,0.51,-0.79,-1.74,0.04,-0.15,0.47,
3.748,0.51,-0.79,-1.74,0.07,-0.14,0.48,
3.749,0.51,-0.79,-1.74,0.10,-0.13,0.48,
3.753,0.44,-0.83,-1.87,0.10,-0.13,0.48,
3.754,0.44,-0.83,-1.87,0.12,-0.11,0.49,
3.755,0.44,-0.83,-1.87,0.15,-0.09,0.49,
3.756,0.44,-0.83,-1.87,0.17,-0.07,0.49,
3.756,0.44,-0.83,-1.87,0.20,-0.04,0.50,
3.758,0.44,-0.83,-1.87,0.21,-0.01,0.50,
3.771,0.33,-0.83,-2.15,0.21,-0.01,0.50,
3.772,0.33,-0.83,-2.15,0.23,0.01,0.50,
3.772,0.33,-0.83,-2.15,0.25,0.03,0.50,
3.772,0.33,-0.83,-2.15,0.26,0.06,0.51,
3.772,0.33,-0.83,-2.15,0.27,0.08,0.51,
3.772,0.33,-0.83,-2.15,0.29,0.10,0.51,
3.772,0.19,-0.92,-2.38,0.29,0.10,0.51,
3.773,0.19,-0.92,-2.38,0.30,0.12,0.52,
3.773,0.19,-0.92,-2.38,0.31,0.14,0.52,
3.777,0.19,-0.92,-2.38,0.33,0.16,0.53,
3.778,0.19,-0.92,-2.38,0.34,0.17,0.53,
3.778,0.19,-0.92,-2.38,0.36,0.18,0.54,
3.78,0.06,-0.97,-2.39,0.36,0.18,0.54,
3.781,0.06,-0.97,-2.39,0.37,0.19,0.54,
3.782,0.06,-0.97,-2.39,0.39,0.19,0.54,
3.784,0.06,-0.97,-2.39,0.41,0.19,0.54,
3.786,0.06,-0.97,-2.39,0.42,0.19,0.55,
3.788,0.06,-0.97,-2.39,0.44,0.19,0.55,
3.791,-0.12,-0.99,-2.27,0.44,0.19,0.55,
3.791,-0.12,-0.99,-2.27,0.46,0.18,0.55,
3.792,-0.12,-0.99,-2.27,0.48,0.16,0.56,
3.794,-0.12,-0.99,-2.27,0.50,0.15,0.56,
3.796,-0.12,-0.99,-2.27,0.51,0.13,0.57,
3.8,-0.12,-0.99,-2.27,0.53,0.11,0.57,
3.803,-0.24,-0.98,-2.11,0.53,0.11,0.57,
3.803,-0.24,-0.98,-2.11,0.55,0.08,0.57,
3.803,-0.24,-0.98,-2.11,0.57,0.06,0.57,
3.804,-0.24,-0.98,-2.11,0.59,0.03,0.57,
3.806,-0.24,-0.98,-2.11,0.61,-0.00,0.57,
3.808,-0.24,-0.98,-2.11,0.63,-0.03,0.57,
3.811,-0.22,-0.92,-1.87,0.63,-0.03,0.57,
3.811,-0.22,-0.92,-1.87,0.65,-0.07,0.57,
3.813,-0.22,-0.92,-1.87,0.67,-0.10,0.56,
3.814,-0.22,-0.92,-1.87,0.69,-0.13,0.56,
3.817,-0.22,-0.92,-1.87,0.70,-0.17,0.56,
3.818,-0.22,-0.92,-1.87,0.72,-0.21,0.56,
3.821,-0.15,-0.87,-1.63,0.72,-0.21,0.56,
3.821,-0.15,-0.87,-1.63,0.74,-0.24,0.55,
3.822,-0.15,-0.87,-1.63,0.75,-0.28,0.55,
3.841,-0.15,-0.87,-1.63,0.77,-0.31,0.54,
3.841,-0.15,-0.87,-1.63,0.79,-0.34,0.53,
3.842,-0.15,-0.87,-1.63,0.80,-0.37,0.53,
3.842,-0.09,-0.81,-1.34,0.80,-0.37,0.53,
3.842,-0.09,-0.81,-1.34,0.82,-0.40,0.52,
3.842,-0.09,-0.81,-1.34,0.83,-0.42,0.52,
3.843,-0.09,-0.81,-1.34,0.85,-0.43,0.52,
3.843,-0.09,-0.81,-1.34,0.86,-0.45,0.52,
3.843,-0.09,-0.81,-1.34,0.87,-0.46,0.52,
3.848,-0.15,-0.83,-1.07,0.87,-0.46,0.52,
3.848,-0.15,-0.83,-1.07,0.88,-0.46,0.51,
3.848,-0.15,-0.83,-1.07,0.89,-0.46,0.51,
3.849,-0.15,-0.83,-1.07,0.90,-0.45,0.52,
3.849,-0.15,-0.83,-1.07,0.90,-0.45,0.52,
3.85,-0.15,-0.83,-1.07,0.91,-0.43,0.52,
3.852,-0.24,-0.99,-0.77,0.91,-0.43,0.52,
3.853,-0.24,-0.99,-0.77,0.92,-0.41,0.53,
3.853,-0.24,-0.99,-0.77,0.93,-0.38,0.54,
3.854,-0.24,-0.99,-0.77,0.94,-0.35,0.55,
3.856,-0.24,-0.99,-0.77,0.95,-0.31,0.56,
3.858,-0.24,-0.99,-0.77,0.96,-0.28,0.57,
3.869,-0.42,-1.03,-0.45,0.96,-0.28,0.57,
3.869,-0.42,-1.03,-0.45,0.96,-0.24,0.58,
3.869,-0.42,-1.03,-0.45,0.97,-0.20,0.59,
3.87,-0.42,-1.03,-0.45,0.97,-0.16,0.60,
3.87,-0.42,-1.03,-0.45,0.97,-0.12,0.61,
3.871,-0.42,-1.03,-0.45,0.97,-0.09,0.62,
3.871,-0.35,-0.98,-0.28,0.97,-0.09,0.62,
3.871,-0.35,-0.98,-0.28,0.97,-0.06,0.63,
3.872,-0.35,-0.98,-0.28,0.97,-0.04,0.64,
3.874,-0.35,-0.98,-0.28,0.96,-0.03,0.64,
3.883,-0.35,-0.98,-0.28,0.95,-0.02,0.65,
3.883,-0.35,-0.98,-0.28,0.94,-0.01,0.64,
3.883,0.29,-0.90,-0.16,0.94,-0.01,0.64,
3.884,0.29,-0.90,-0.16,0.93,-0.02,0.64,
3.884,0.29,-0.90,-0.16,0.92,-0.03,0.63,
3.889,0.29,-0.90,-0.16,0.92,-0.04,0.61,
3.893,0.29,-0.90,-0.16,0.91,-0.06,0.58,
3.893,0.29,-0.90,-0.16,0.90,-0.09,0.54,
3.9,1.75,-0.59,0.23,0.90,-0.09,0.54,
3.901,1.75,-0.59,0.23,0.90,-0.12,0.50,
3.901,1.75,-0.59,0.23,0.89,-0.15,0.45,
3.901,1.75,-0.59,0.23,0.89,-0.19,0.39,
3.902,1.75,-0.59,0.23,0.89,-0.22,0.33,
3.902,1.75,-0.59,0.23,0.89,-0.25,0.27,
3.902,3.35,-0.28,1.12,0.89,-0.25,0.27,
3.903,3.35,-0.28,1.12,0.90,-0.28,0.20,
3.903,3.35,-0.28,1.12,0.90,-0.31,0.13,
3.91,3.35,-0.28,1.12,0.91,-0.33,0.06,
3.911,3.35,-0.28,1.12,0.92,-0.34,-0.00,
3.912,3.35,-0.28,1.12,0.93,-0.35,-0.07,
3.913,3.65,-0.03,2.15,0.93,-0.35,-0.07,
3.913,3.65,-0.03,2.15,0.94,-0.36,-0.13,
3.914,3.65,-0.03,2.15,0.94,-0.35,-0.18,
3.916,3.65,-0.03,2.15,0.94,-0.32,-0.25,
3.916,3.65,-0.03,2.15,0.93,-0.31,-0.27,
3.918,3.65,-0.03,2.15,0.92,-0.26,-0.32,
3.92,2.98,-0.21,2.39,0.92,-0.26,-0.32,
3.92,2.98,-0.21,2.39,0.92,-0.24,-0.34,
3.925,2.98,-0.21,2.39,0.90,-0.20,-0.36,
3.925,2.98,-0.21,2.39,0.89,-0.14,-0.38,
3.927,2.98,-0.21,2.39,0.87,-0.08,-0.40,
3.929,2.98,-0.21,2.39,0.86,-0.01,-0.40,
3.934,1.90,-0.54,2.29,0.86,-0.01,-0.40,
3.934,1.90,-0.54,2.29,0.84,0.07,-0.40,
3.934,1.90,-0.54,2.29,0.82,0.15,-0.40,
3.934,1.90,-0.54,2.29,0.80,0.24,-0.39,
3.935,1.90,-0.54,2.29,0.78,0.33,-0.38,
3.938,1.90,-0.54,2.29,0.77,0.42,-0.36,
3.94,0.85,-0.90,2.07,0.77,0.42,-0.36,
3.94,0.85,-0.90,2.07,0.75,0.51,-0.34,
3.941,0.85,-0.90,2.07,0.74,0.60,-0.32,
3.944,0.85,-0.90,2.07,0.72,0.68,-0.30,
3.949,0.85,-0.90,2.07,0.71,0.77,-0.27,
3.95,0.85,-0.90,2.07,0.70,0.84,-0.25,
3.951,0.25,-0.95,1.70,0.70,0.84,-0.25,
3.951,0.25,-0.95,1.70,0.68,0.91,-0.23,
3.953,0.25,-0.95,1.70,0.66,0.97,-0.21,
3.954,0.25,-0.95,1.70,0.64,1.03,-0.19,
3.957,0.25,-0.95,1.70,0.63,1.07,-0.17,
3.958,0.25,-0.95,1.70,0.61,1.10,-0.16,
3.961,-0.09,-0.73,1.21,0.61,1.10,-0.16,
3.961,-0.09,-0.73,1.21,0.60,1.13,-0.15,
3.962,-0.09,-0.73,1.21,0.58,1.15,-0.13,
3.964,-0.09,-0.73,1.21,0.56,1.16,-0.12,
3.966,-0.09,-0.73,1.21,0.55,1.17,-0.11,
3.968,-0.09,-0.73,1.21,0.54,1.16,-0.11,
3.971,-0.48,-0.18,0.67,0.54,1.16,-0.11,
3.971,-0.48,-0.18,0.67,0.52,1.14,-0.10,
3.975,-0.48,-0.18,0.67,0.50,1.11,-0.10,
3.975,-0.48,-0.18,0.67,0.48,1.07,-0.10,
3.977,-0.48,-0.18,0.67,0.46,1.01,-0.10,
3.978,-0.48,-0.18,0.67,0.44,0.95,-0.11,
3.98,-0.87,0.47,0.03,0.44,0.95,-0.11,
3.98,-0.87,0.47,0.03,0.41,0.88,-0.11,
3.986,-0.87,0.47,0.03,0.38,0.80,-0.12,
3.987,-0.87,0.47,0.03,0.35,0.71,-0.13,
3.987,-0.87,0.47,0.03,0.31,0.62,-0.13,
3.988,-0.87,0.47,0.03,0.26,0.53,-0.14,
3.99,-1.24,1.04,-0.88,0.26,0.53,-0.14,
4.007,-1.24,1.04,-0.88,0.21,0.42,-0.14,
4.007,-1.24,1.04,-0.88,0.16,0.31,-0.15,
4.007,-1.24,1.04,-0.88,0.09,0.19,-0.15,
4.008,-1.24,1.04,-0.88,0.02,0.06,-0.15,
4.008,-1.24,1.04,-0.88,-0.06,-0.07,-0.14,
4.008,-1.82,1.47,-1.92,-0.06,-0.07,-0.14,
4.008,-1.82,1.47,-1.92,-0.16,-0.21,-0.14,
4.008,-1.82,1.47,-1.92,-0.26,-0.37,-0.13,
4.009,-1.82,1.47,-1.92,-0.38,-0.52,-0.12,
4.009,-1.82,1.47,-1.92,-0.52,-0.69,-0.10,
4.009,-1.82,1.47,-1.92,-0.66,-0.85,-0.08,
4.013,-2.05,1.76,-2.50,-0.66,-0.85,-0.08,
4.013,-2.05,1.76,-2.50,-0.81,-1.03,-0.07,
4.014,-2.05,1.76,-2.50,-0.98,-1.20,-0.06,
4.018,-2.05,1.76,-2.50,-1.14,-1.37,-0.05,
4.018,-2.05,1.76,-2.50,-1.30,-1.53,-0.05,
4.019,-2.05,1.76,-2.50,-1.46,-1.67,-0.05,
4.02,-0.83,1.61,-1.21,-1.46,-1.67,-0.05,
4.02,-0.83,1.61,-1.21,-1.61,-1.80,-0.06,
4.022,-0.83,1.61,-1.21,-1.75,-1.91,-0.07,
4.024,-0.83,1.61,-1.21,-1.87,-1.98,-0.09,
4.026,-0.83,1.61,-1.21,-1.99,-2.03,-0.11,
4.028,-0.83,1.61,-1.21,-2.08,-2.06,-0.13,
4.032,1.36,0.98,2.57,-2.08,-2.06,-0.13,
4.032,1.36,0.98,2.57,-2.16,-2.06,-0.16,
4.033,1.36,0.98,2.57,-2.23,-2.04,-0.19,
4.034,1.36,0.98,2.57,-2.28,-1.99,-0.23,
4.036,1.36,0.98,2.57,-2.31,-1.93,-0.26,
4.038,1.36,0.98,2.57,-2.33,-1.85,-0.31,
4.041,3.41,0.14,7.27,-2.33,-1.85,-0.31,
4.041,3.41,0.14,7.27,-2.33,-1.74,-0.35,
4.048,3.41,0.14,7.27,-2.31,-1.62,-0.40,
4.049,3.41,0.14,7.27,-2.29,-1.48,-0.44,
4.05,3.41,0.14,7.27,-2.24,-1.32,-0.48,
4.051,3.41,0.14,7.27,-2.19,-1.14,-0.52,
4.052,4.16,-0.67,11.26,-2.19,-1.14,-0.52,
4.053,4.16,-0.67,11.26,-2.12,-0.95,-0.54,
4.053,4.16,-0.67,11.26,-2.05,-0.75,-0.56,
4.054,4.16,-0.67,11.26,-1.97,-0.54,-0.57,
4.058,4.16,-0.67,11.26,-1.89,-0.34,-0.58,
4.059,4.16,-0.67,11.26,-1.80,-0.14,-0.57,
4.072,3.08,-1.27,12.92,-1.80,-0.14,-0.57,
4.073,3.08,-1.27,12.92,-1.71,0.05,-0.56,
4.073,3.08,-1.27,12.92,-1.62,0.23,-0.54,
4.073,3.08,-1.27,12.92,-1.53,0.40,-0.52,
4.073,3.08,-1.27,12.92,-1.44,0.54,-0.48,
4.073,3.08,-1.27,12.92,-1.36,0.67,-0.45,
4.074,1.22,-1.18,11.82,-1.36,0.67,-0.45,
4.074,1.22,-1.18,11.82,-1.29,0.77,-0.42,
4.074,1.22,-1.18,11.82,-1.22,0.86,-0.38,
4.074,1.22,-1.18,11.82,-1.16,0.92,-0.35,
4.076,1.22,-1.18,11.82,-1.10,0.96,-0.32,
4.078,1.22,-1.18,11.82,-1.05,0.99,-0.30,
4.081,-0.09,-0.75,8.48,-1.05,0.99,-0.30,
4.081,-0.09,-0.75,8.48,-1.01,1.01,-0.27,
4.082,-0.09,-0.75,8.48,-0.97,1.00,-0.25,
4.083,-0.09,-0.75,8.48,-0.94,0.99,-0.23,
4.085,-0.09,-0.75,8.48,-0.91,0.96,-0.21,
4.088,-0.09,-0.75,8.48,-0.88,0.91,-0.19,
4.09,-0.52,-0.25,5.20,-0.88,0.91,-0.19,
4.09,-0.52,-0.25,5.20,-0.86,0.86,-0.18,
4.092,-0.52,-0.25,5.20,-0.84,0.80,-0.16,
4.094,-0.52,-0.25,5.20,-0.83,0.73,-0.15,
4.096,-0.52,-0.25,5.20,-0.81,0.65,-0.14,
4.098,-0.52,-0.25,5.20,-0.80,0.57,-0.14,
4.1,-0.45,0.19,2.87,-0.80,0.57,-0.14,
4.1,-0.45,0.19,2.87,-0.78,0.48,-0.13,
4.102,-0.45,0.19,2.87,-0.77,0.39,-0.13,
4.103,-0.45,0.19,2.87,-0.75,0.31,-0.13,
4.106,-0.45,0.19,2.87,-0.73,0.23,-0.14,
4.108,-0.45,0.19,2.87,-0.71,0.15,-0.14,
4.11,-0.02,0.50,1.59,-0.71,0.15,-0.14,
4.111,-0.02,0.50,1.59,-0.69,0.07,-0.15,
4.112,-0.02,0.50,1.59,-0.67,-0.01,-0.16,
4.114,-0.02,0.50,1.59,-0.64,-0.07,-0.17,
4.115,-0.02,0.50,1.59,-0.62,-0.14,-0.18,
4.118,-0.02,0.50,1.59,-0.58,-0.19,-0.20,
4.12,0.58,0.61,1.23,-0.58,-0.19,-0.20,
4.12,0.58,0.61,1.23,-0.54,-0.24,-0.21,
4.122,0.58,0.61,1.23,-0.50,-0.27,-0.22,
4.123,0.58,0.61,1.23,-0.45,-0.30,-0.24,
4.125,0.58,0.61,1.23,-0.40,-0.31,-0.25,
4.128,0.58,0.61,1.23,-0.35,-0.31,-0.26,
4.13,0.87,0.62,1.26,-0.35,-0.31,-0.26,
4.131,0.87,0.62,1.26,-0.30,-0.31,-0.27,
4.132,0.87,0.62,1.26,-0.24,-0.30,-0.28,
4.133,0.87,0.62,1.26,-0.19,-0.28,-0.29,
4.135,0.87,0.62,1.26,-0.14,-0.25,-0.29,
4.137,0.87,0.62,1.26,-0.08,-0.22,-0.29,
4.14,0.61,0.52,0.75,-0.08,-0.22,-0.29,
4.14,0.61,0.52,0.75,-0.03,-0.19,-0.29,
4.152,0.61,0.52,0.75,0.01,-0.15,-0.29,
4.153,0.61,0.52,0.75,0.06,-0.12,-0.29,
4.153,0.61,0.52,0.75,0.10,-0.08,-0.28,
4.153,0.61,0.52,0.75,0.14,-0.04,-0.27,
4.153,0.13,0.34,-0.31,0.14,-0.04,-0.27,
4.153,0.13,0.34,-0.31,0.18,-0.00,-0.26,
4.153,0.13,0.34,-0.31,0.22,0.03,-0.25,
4.153,0.13,0.34,-0.31,0.25,0.07,-0.24,
4.156,0.13,0.34,-0.31,0.28,0.10,-0.23,
4.18,0.13,0.34,-0.31,0.31,0.13,-0.22,
4.181,-0.34,0.22,-1.56,0.31,0.13,-0.22,
4.181,-0.34,0.22,-1.56,0.34,0.16,-0.21,
4.182,-0.34,0.22,-1.56,0.37,0.19,-0.20,
4.182,-0.34,0.22,-1.56,0.39,0.21,-0.19,
4.182,-0.34,0.22,-1.56,0.42,0.23,-0.17,
4.183,-0.34,0.22,-1.56,0.44,0.24,-0.16,
4.183,-0.67,0.20,-2.62,0.44,0.24,-0.16,
4.187,-0.67,0.20,-2.62,0.47,0.24,-0.15,
4.187,-0.67,0.20,-2.62,0.49,0.25,-0.14,
4.187,-0.67,0.20,-2.62,0.52,0.24,-0.13,
4.188,-0.67,0.20,-2.62,0.54,0.24,-0.12,
4.188,-0.67,0.20,-2.62,0.56,0.23,-0.11,
4.189,-0.93,0.30,-3.47,0.56,0.23,-0.11,
4.189,-0.93,0.30,-3.47,0.58,0.21,-0.09,
4.189,-0.93,0.30,-3.47,0.60,0.19,-0.09,
4.19,-0.93,0.30,-3.47,0.62,0.17,-0.08,
4.19,-0.93,0.30,-3.47,0.64,0.14,-0.08,
4.191,-0.93,0.30,-3.47,0.66,0.11,-0.07,
4.191,-0.89,0.25,-4.06,0.66,0.11,-0.07,
4.199,-0.89,0.25,-4.06,0.68,0.08,-0.07,
4.199,-0.89,0.25,-4.06,0.69,0.05,-0.07,
4.2,-0.89,0.25,-4.06,0.71,0.02,-0.07,
4.2,-0.89,0.25,-4.06,0.73,-0.02,-0.07,
4.2,-0.89,0.25,-4.06,0.74,-0.05,-0.08,
4.201,-0.86,0.26,-4.40,0.74,-0.05,-0.08,
4.201,-0.86,0.26,-4.40,0.76,-0.08,-0.08,
4.202,-0.86,0.26,-4.40,0.78,-0.12,-0.09,
4.203,-0.86,0.26,-4.40,0.79,-0.14,-0.09,
4.206,-0.86,0.26,-4.40,0.81,-0.17,-0.09,
4.208,-0.86,0.26,-4.40,0.82,-0.20,-0.09,
4.211,-0.94,0.13,-4.56,0.82,-0.20,-0.09,
4.211,-0.94,0.13,-4.56,0.83,-0.22,-0.10,
4.217,-0.94,0.13,-4.56,0.84,-0.25,-0.10,
4.218,-0.94,0.13,-4.56,0.85,-0.26,-0.10,
4.218,-0.94,0.13,-4.56,0.86,-0.28,-0.10,
4.219,-0.94,0.13,-4.56,0.86,-0.29,-0.10,
4.22,-1.15,0.02,-4.62,0.86,-0.29,-0.10,
4.22,-1.15,0.02,-4.62,0.87,-0.29,-0.10,
4.222,-1.15,0.02,-4.62,0.87,-0.29,-0.09,
4.223,-1.15,0.02,-4.62,0.87,-0.29,-0.09,
4.226,-1.15,0.02,-4.62,0.87,-0.27,-0.09,
4.23,-1.15,0.02,-4.62,0.87,-0.26,-0.08,
4.231,-1.30,-0.19,-4.65,0.87,-0.26,-0.08,
4.232,-1.30,-0.19,-4.65,0.86,-0.23,-0.07,
4.233,-1.30,-0.19,-4.65,0.85,-0.21,-0.07,
4.234,-1.30,-0.19,-4.65,0.84,-0.18,-0.06,
4.236,-1.30,-0.19,-4.65,0.82,-0.16,-0.06,
4.238,-1.30,-0.19,-4.65,0.80,-0.12,-0.05,
4.243,-1.30,-0.19,-4.65,0.76,-0.06,-0.04,
4.244,-1.30,-0.19,-4.65,0.76,-0.06,-0.04,
4.245,-1.35,-0.35,-4.77,0.76,-0.06,-0.04,
4.245,-1.35,-0.35,-4.77,0.72,-0.02,-0.04,
4.253,-1.35,-0.35,-4.77,0.71,-0.00,-0.04,
4.253,-1.35,-0.35,-4.77,0.69,0.03,-0.03,
4.254,-1.29,-0.50,-4.58,0.69,0.03,-0.03,
4.254,-1.29,-0.50,-4.58,0.67,0.05,-0.03,
4.255,-1.29,-0.50,-4.58,0.65,0.08,-0.03,
4.255,-1.29,-0.50,-4.58,0.63,0.10,-0.03,
4.256,-1.29,-0.50,-4.58,0.61,0.11,-0.03,
4.26,-1.29,-0.50,-4.58,0.60,0.13,-0.03,
4.261,-1.33,-0.45,-3.92,0.60,0.13,-0.03,
4.261,-1.33,-0.45,-3.92,0.58,0.15,-0.03,
4.262,-1.33,-0.45,-3.92,0.57,0.15,-0.03,
4.264,-1.33,-0.45,-3.92,0.56,0.16,-0.03,
4.269,-1.33,-0.45,-3.92,0.55,0.17,-0.03,
4.271,-1.33,-0.45,-3.92,0.55,0.17,-0.04,
4.274,-1.20,-0.49,-3.10,0.55,0.17,-0.04,
4.275,-1.20,-0.49,-3.10,0.55,0.17,-0.04,
4.275,-1.20,-0.49,-3.10,0.54,0.17,-0.04,
4.282,-1.20,-0.49,-3.10,0.54,0.18,-0.05,
4.283,-1.20,-0.49,-3.10,0.54,0.17,-0.06,
4.284,-1.20,-0.49,-3.10,0.55,0.17,-0.07,
4.288,-1.06,-0.62,-2.23,0.55,0.17,-0.07,
4.289,-1.06,-0.62,-2.23,0.55,0.16,-0.08,
4.309,-1.06,-0.62,-2.23,0.56,0.16,-0.09,
4.311,-1.06,-0.62,-2.23,0.57,0.15,-0.10,
4.321,-1.06,-0.62,-2.23,0.59,0.14,-0.11,
4.322,-1.06,-0.62,-2.23,0.61,0.12,-0.12,
4.323,-0.94,-0.63,-1.46,0.61,0.12,-0.12,
4.323,-0.94,-0.63,-1.46,0.62,0.11,-0.14,
4.323,-0.94,-0.63,-1.46,0.64,0.09,-0.15,
4.324,-0.94,-0.63,-1.46,0.66,0.08,-0.16,
4.324,-0.94,-0.63,-1.46,0.68,0.07,-0.18,
4.324,-0.94,-0.63,-1.46,0.70,0.05,-0.19,
4.325,-0.75,-0.67,-0.98,0.70,0.05,-0.19,
4.325,-0.75,-0.67,-0.98,0.71,0.04,-0.21,
4.325,-0.75,-0.67,-0.98,0.73,0.03,-0.22,
4.325,-0.75,-0.67,-0.98,0.74,0.02,-0.24,
4.326,-0.75,-0.67,-0.98,0.76,0.01,-0.25,
4.326,-0.75,-0.67,-0.98,0.77,0.00,-0.27,
4.326,-0.57,-0.72,-0.88,0.77,0.00,-0.27,
4.327,-0.57,-0.72,-0.88,0.78,-0.01,-0.29,
4.327,-0.57,-0.72,-0.88,0.79,-0.01,-0.30,
4.327,-0.57,-0.72,-0.88,0.79,-0.01,-0.32,
4.332,-0.57,-0.72,-0.88,0.80,-0.01,-0.34,
4.333,-0.57,-0.72,-0.88,0.80,-0.01,-0.36,
4.333,-0.53,-0.71,-1.05,0.80,-0.01,-0.36,
4.333,-0.53,-0.71,-1.05,0.79,-0.01,-0.37,
4.334,-0.53,-0.71,-1.05,0.79,-0.01,-0.39,
4.358,-0.53,-0.71,-1.05,0.78,-0.01,-0.41,
4.359,-0.53,-0.71,-1.05,0.77,-0.01,-0.42,
4.359,-0.53,-0.71,-1.05,0.75,-0.01,-0.44,
4.359,-0.32,-0.77,-1.35,0.75,-0.01,-0.44,
4.36,-0.32,-0.77,-1.35,0.74,-0.01,-0.46,
4.36,-0.32,-0.77,-1.35,0.72,-0.02,-0.48,
4.36,-0.32,-0.77,-1.35,0.71,-0.02,-0.51,
4.36,-0.32,-0.77,-1.35,0.69,-0.03,-0.54,
4.361,-0.32,-0.77,-1.35,0.67,-0.03,-0.57,
4.361,0.16,-0.76,-1.38,0.67,-0.03,-0.57,
4.361,0.16,-0.76,-1.38,0.65,-0.04,-0.60,
4.362,0.16,-0.76,-1.38,0.63,-0.06,-0.63,
4.362,0.16,-0.76,-1.38,0.62,-0.07,-0.66,
4.362,0.16,-0.76,-1.38,0.59,-0.08,-0.69,
4.362,0.16,-0.76,-1.38,0.57,-0.10,-0.73,
4.363,0.49,-0.71,-1.20,0.57,-0.10,-0.73,
4.363,0.49,-0.71,-1.20,0.55,-0.12,-0.76,
4.363,0.49,-0.71,-1.20,0.53,-0.14,-0.80,
4.363,0.49,-0.71,-1.20,0.51,-0.15,-0.83,
4.364,0.49,-0.71,-1.20,0.48,-0.17,-0.87,
4.364,0.49,-0.71,-1.20,0.45,-0.19,-0.91,
4.364,0.72,-0.78,-0.93,0.45,-0.19,-0.91,
4.364,0.72,-0.78,-0.93,0.43,-0.20,-0.95,
4.365,0.72,-0.78,-0.93,0.40,-0.22,-0.98,
4.365,0.72,-0.78,-0.93,0.38,-0.24,-1.02,
4.372,0.72,-0.78,-0.93,0.35,-0.25,-1.05,
4.372,0.72,-0.78,-0.93,0.32,-0.26,-1.08,
4.372,0.83,-1.02,-0.39,0.32,-0.26,-1.08,
4.372,0.83,-1.02,-0.39,0.30,-0.27,-1.10,
4.373,0.83,-1.02,-0.39,0.28,-0.27,-1.13,
4.378,0.83,-1.02,-0.39,0.26,-0.27,-1.15,
4.379,0.83,-1.02,-0.39,0.24,-0.26,-1.18,
4.379,0.83,-1.02,-0.39,0.22,-0.26,-1.20,
4.382,0.70,-1.28,0.58,0.22,-0.26,-1.20,
4.382,0.70,-1.28,0.58,0.20,-0.24,-1.21,
4.382,0.70,-1.28,0.58,0.19,-0.22,-1.23,
4.385,0.70,-1.28,0.58,0.19,-0.20,-1.24,
4.388,0.70,-1.28,0.58,0.18,-0.17,-1.25,
4.389,0.70,-1.28,0.58,0.19,-0.14,-1.26,
4.39,0.44,-1.49,1.68,0.19,-0.14,-1.26,
4.39,0.44,-1.49,1.68,0.19,-0.11,-1.27,
4.399,0.44,-1.49,1.68,0.19,-0.07,-1.27,
4.4,0.44,-1.49,1.68,0.20,-0.03,-1.27,
4.4,0.44,-1.49,1.68,0.21,0.02,-1.27,
4.4,0.44,-1.49,1.68,0.23,0.07,-1.26,
4.402,0.10,-1.61,2.47,0.23,0.07,-1.26,
4.402,0.10,-1.61,2.47,0.24,0.11,-1.26,
4.403,0.10,-1.61,2.47,0.25,0.16,-1.25,
4.404,0.10,-1.61,2.47,0.26,0.20,-1.24,
4.406,0.10,-1.61,2.47,0.27,0.24,-1.23,
4.409,0.10,-1.61,2.47,0.28,0.28,-1.22,
4.413,-0.13,-1.49,2.48,0.28,0.28,-1.22,
4.414,-0.13,-1.49,2.48,0.29,0.32,-1.21,
4.414,-0.13,-1.49,2.48,0.29,0.34,-1.20,
4.416,-0.13,-1.49,2.48,0.29,0.37,-1.19,
4.418,-0.13,-1.49,2.48,0.29,0.39,-1.18,
4.419,-0.13,-1.49,2.48,0.29,0.40,-1.17,
4.42,-0.21,-1.32,2.04,0.29,0.40,-1.17,
4.421,-0.21,-1.32,2.04,0.29,0.41,-1.17,
4.422,-0.21,-1.32,2.04,0.28,0.41,-1.16,
4.43,-0.21,-1.32,2.04,0.28,0.41,-1.15,
4.43,-0.21,-1.32,2.04,0.28,0.40,-1.14,
4.431,-0.21,-1.32,2.04,0.27,0.38,-1.13,
4.431,-0.33,-1.00,1.62,0.27,0.38,-1.13,
4.431,-0.33,-1.00,1.62,0.27,0.36,-1.13,
4.433,-0.33,-1.00,1.62,0.26,0.33,-1.11,
4.44,-0.33,-1.00,1.62,0.25,0.30,-1.10,
4.441,-0.33,-1.00,1.62,0.24,0.26,-1.09,
4.441,-0.33,-1.00,1.62,0.23,0.21,-1.08,
4.451,-0.53,-0.67,1.41,0.23,0.21,-1.08,
4.452,-0.53,-0.67,1.41,0.22,0.15,-1.07,
4.453,-0.53,-0.67,1.41,0.20,0.08,-1.06,
4.453,-0.53,-0.67,1.41,0.18,0.00,-1.05,
4.453,-0.53,-0.67,1.41,0.16,-0.07,-1.04,
4.453,-0.53,-0.67,1.41,0.14,-0.15,-1.03,
4.453,-0.54,-0.15,1.61,0.14,-0.15,-1.03,
4.454,-0.54,-0.15,1.61,0.11,-0.23,-1.03,
4.454,-0.54,-0.15,1.61,0.09,-0.30,-1.02,
4.454,-0.54,-0.15,1.61,0.08,-0.37,-1.01,
4.457,-0.54,-0.15,1.61,0.06,-0.44,-1.00,
4.458,-0.54,-0.15,1.61,0.05,-0.49,-0.99,
4.461,-0.82,0.35,2.49,0.05,-0.49,-0.99,
4.462,-0.82,0.35,2.49,0.04,-0.54,-0.98,
4.464,-0.82,0.35,2.49,0.03,-0.58,-0.96,
4.464,-0.82,0.35,2.49,0.02,-0.62,-0.95,
4.467,-0.82,0.35,2.49,0.02,-0.66,-0.92,
4.473,-0.82,0.35,2.49,0.01,-0.70,-0.90,
4.474,-1.41,0.95,3.31,0.01,-0.70,-0.90,
4.474,-1.41,0.95,3.31,0.01,-0.73,-0.87,
4.475,-1.41,0.95,3.31,-0.00,-0.77,-0.84,
4.475,-1.41,0.95,3.31,-0.01,-0.81,-0.81,
4.477,-1.41,0.95,3.31,-0.02,-0.84,-0.78,
4.478,-1.41,0.95,3.31,-0.04,-0.88,-0.75,
4.481,-1.66,1.43,3.33,-0.04,-0.88,-0.75,
4.481,-1.66,1.43,3.33,-0.07,-0.93,-0.72,
4.485,-1.66,1.43,3.33,-0.11,-0.97,-0.70,
4.492,-1.66,1.43,3.33,-0.15,-1.02,-0.68,
4.494,-1.66,1.43,3.33,-0.20,-1.07,-0.65,
4.494,-1.66,1.43,3.33,-0.27,-1.13,-0.64,
4.495,-0.91,1.68,2.66,-0.27,-1.13,-0.64,
4.512,-0.91,1.68,2.66,-0.34,-1.19,-0.62,
4.512,-0.91,1.68,2.66,-0.42,-1.25,-0.62,
4.512,-0.91,1.68,2.66,-0.51,-1.32,-0.61,
4.512,-0.91,1.68,2.66,-0.61,-1.39,-0.61,
4.513,-0.91,1.68,2.66,-0.71,-1.46,-0.61,
4.513,0.43,1.80,2.45,-0.71,-1.46,-0.61,
4.513,0.43,1.80,2.45,-0.82,-1.53,-0.62,
4.513,0.43,1.80,2.45,-0.92,-1.59,-0.63,
4.513,0.43,1.80,2.45,-1.03,-1.65,-0.65,
4.514,0.43,1.80,2.45,-1.14,-1.68,-0.66,
4.514,0.43,1.80,2.45,-1.24,-1.71,-0.67,
4.514,1.76,1.57,3.62,-1.24,-1.71,-0.67,
4.514,1.76,1.57,3.62,-1.34,-1.73,-0.69,
4.514,1.76,1.57,3.62,-1.43,-1.72,-0.71,
4.519,1.76,1.57,3.62,-1.52,-1.69,-0.73,
4.519,1.76,1.57,3.62,-1.60,-1.65,-0.74,
4.524,1.76,1.57,3.62,-1.67,-1.58,-0.75,
4.525,2.80,0.88,5.86,-1.67,-1.58,-0.75,
4.525,2.80,0.88,5.86,-1.73,-1.49,-0.76,
4.525,2.80,0.88,5.86,-1.79,-1.39,-0.77,
4.526,2.80,0.88,5.86,-1.83,-1.27,-0.77,
4.526,2.80,0.88,5.86,-1.86,-1.13,-0.76,
4.528,2.80,0.88,5.86,-1.89,-0.98,-0.75,
4.53,2.94,0.03,7.93,-1.89,-0.98,-0.75,
4.531,2.94,0.03,7.93,-1.90,-0.82,-0.73,
4.535,2.94,0.03,7.93,-1.90,-0.66,-0.71,
4.536,2.94,0.03,7.93,-1.90,-0.49,-0.68,
4.536,2.94,0.03,7.93,-1.89,-0.32,-0.65,
4.538,2.94,0.03,7.93,-1.87,-0.15,-0.62,
4.544,2.58,-0.81,9.22,-1.87,-0.15,-0.62,
4.544,2.58,-0.81,9.22,-1.83,0.02,-0.59,
4.545,2.58,-0.81,9.22,-1.79,0.18,-0.55,
4.545,2.58,-0.81,9.22,-1.74,0.33,-0.52,
4.546,2.58,-0.81,9.22,-1.67,0.48,-0.48,
4.548,2.58,-0.81,9.22,-1.60,0.61,-0.44,
4.55,1.90,-0.98,9.62,-1.60,0.61,-0.44,
4.554,1.90,-0.98,9.62,-1.53,0.73,-0.41,
4.554,1.90,-0.98,9.62,-1.44,0.83,-0.37,
4.554,1.90,-0.98,9.62,-1.36,0.91,-0.34,
4.556,1.90,-0.98,9.62,-1.27,0.98,-0.31,
4.56,1.90,-0.98,9.62,-1.18,1.03,-0.28,
4.562,1.31,-0.85,8.80,-1.18,1.03,-0.28,
4.562,1.31,-0.85,8.80,-1.08,1.08,-0.25,
4.562,1.31,-0.85,8.80,-0.98,1.11,-0.22,
4.564,1.31,-0.85,8.80,-0.89,1.14,-0.20,
4.565,1.31,-0.85,8.80,-0.79,1.15,-0.17,
4.567,1.31,-0.85,8.80,-0.69,1.16,-0.15,
4.571,0.79,-0.59,6.96,-0.69,1.16,-0.15,
4.571,0.79,-0.59,6.96,-0.60,1.17,-0.12,
4.572,0.79,-0.59,6.96,-0.50,1.16,-0.10,
4.576,0.79,-0.59,6.96,-0.41,1.15,-0.07,
4.577,0.79,-0.59,6.96,-0.32,1.13,-0.05,
4.578,0.79,-0.59,6.96,-0.23,1.10,-0.02,
4.58,0.26,-0.36,4.53,-0.23,1.10,-0.02,
4.58,0.26,-0.36,4.53,-0.15,1.06,-0.00,
4.582,0.26,-0.36,4.53,-0.07,1.02,0.02,
4.583,0.26,-0.36,4.53,0.00,0.97,0.04,
4.586,0.26,-0.36,4.53,0.07,0.92,0.06,
4.588,0.26,-0.36,4.53,0.14,0.86,0.08,
4.593,-0.03,-0.06,1.87,0.14,0.86,0.08,
4.593,-0.03,-0.06,1.87,0.20,0.81,0.09,
4.593,-0.03,-0.06,1.87,0.25,0.75,0.10,
4.596,-0.03,-0.06,1.87,0.30,0.68,0.11,
4.597,-0.03,-0.06,1.87,0.34,0.62,0.12,
4.598,-0.03,-0.06,1.87,0.38,0.57,0.13,
4.6,-0.14,0.16,-0.65,0.38,0.57,0.13,
4.6,-0.14,0.16,-0.65,0.42,0.51,0.14,
4.602,-0.14,0.16,-0.65,0.44,0.45,0.15,
4.604,-0.14,0.16,-0.65,0.47,0.40,0.16,
4.605,-0.14,0.16,-0.65,0.49,0.35,0.16,
4.608,-0.14,0.16,-0.65,0.50,0.30,0.17,
4.612,-0.28,0.30,-2.85,0.50,0.30,0.17,
4.612,-0.28,0.30,-2.85,0.51,0.26,0.18,
4.612,-0.28,0.30,-2.85,0.51,0.21,0.18,
4.614,-0.28,0.30,-2.85,0.50,0.18,0.19,
4.615,-0.28,0.30,-2.85,0.49,0.14,0.20,
4.618,-0.28,0.30,-2.85,0.47,0.10,0.21,
4.62,-0.42,0.39,-4.73,0.47,0.10,0.21,
4.62,-0.42,0.39,-4.73,0.46,0.08,0.21,
4.621,-0.42,0.39,-4.73,0.43,0.06,0.22,
4.623,-0.42,0.39,-4.73,0.41,0.04,0.22,
4.626,-0.42,0.39,-4.73,0.37,0.02,0.22,
4.628,-0.42,0.39,-4.73,0.34,0.01,0.23,
4.63,-0.37,0.25,-5.90,0.34,0.01,0.23,
4.631,-0.37,0.25,-5.90,0.31,0.00,0.23,
4.631,-0.37,0.25,-5.90,0.27,0.00,0.24,
4.633,-0.37,0.25,-5.90,0.24,0.01,0.24,
4.635,-0.37,0.25,-5.90,0.20,0.02,0.24,
4.637,-0.37,0.25,-5.90,0.16,0.03,0.24,
4.641,-0.19,0.22,-6.56,0.16,0.03,0.24,
4.642,-0.19,0.22,-6.56,0.12,0.04,0.24,
4.643,-0.19,0.22,-6.56,0.08,0.06,0.24,
4.644,-0.19,0.22,-6.56,0.05,0.07,0.24,
4.646,-0.19,0.22,-6.56,0.01,0.09,0.24,
4.648,-0.19,0.22,-6.56,-0.02,0.10,0.24,
4.65,0.05,-0.07,-6.57,-0.02,0.10,0.24,
4.65,0.05,-0.07,-6.57,-0.06,0.11,0.24,
4.651,0.05,-0.07,-6.57,-0.09,0.12,0.23,
4.654,0.05,-0.07,-6.57,-0.12,0.13,0.22,
4.655,0.05,-0.07,-6.57,-0.15,0.15,0.21,
4.678,0.05,-0.07,-6.57,-0.17,0.15,0.20,
4.679,0.48,-0.12,-6.34,-0.17,0.15,0.20,
4.679,0.48,-0.12,-6.34,-0.20,0.16,0.19,
4.68,0.48,-0.12,-6.34,-0.22,0.17,0.17,
4.68,0.48,-0.12,-6.34,-0.24,0.17,0.15,
4.68,0.48,-0.12,-6.34,-0.26,0.17,0.13,
4.681,0.48,-0.12,-6.34,-0.27,0.17,0.11,
4.681,0.85,-0.37,-5.88,-0.27,0.17,0.11,
4.682,0.85,-0.37,-5.88,-0.28,0.17,0.09,
4.682,0.85,-0.37,-5.88,-0.29,0.16,0.07,
4.682,0.85,-0.37,-5.88,-0.30,0.16,0.05,
4.683,0.85,-0.37,-5.88,-0.30,0.15,0.03,
4.683,0.85,-0.37,-5.88,-0.30,0.15,0.01,
4.684,1.06,-0.48,-5.49,-0.30,0.15,0.01,
4.684,1.06,-0.48,-5.49,-0.31,0.14,-0.02,
4.684,1.06,-0.48,-5.49,-0.31,0.13,-0.04,
4.685,1.06,-0.48,-5.49,-0.31,0.12,-0.06,
4.694,1.06,-0.48,-5.49,-0.31,0.11,-0.08,
4.695,1.06,-0.48,-5.49,-0.31,0.11,-0.11,
4.695,1.05,-0.75,-5.23,-0.31,0.11,-0.11,
4.696,1.05,-0.75,-5.23,-0.31,0.10,-0.13,
4.696,1.05,-0.75,-5.23,-0.30,0.10,-0.15,
4.697,1.05,-0.75,-5.23,-0.30,0.10,-0.18,
4.7,1.05,-0.75,-5.23,-0.30,0.10,-0.19,
4.7,1.05,-0.75,-5.23,-0.30,0.10,-0.21,
4.7,0.96,-0.99,-5.16,-0.30,0.10,-0.21,
4.701,0.96,-0.99,-5.16,-0.30,0.10,-0.22,
4.702,0.96,-0.99,-5.16,-0.30,0.11,-0.24,
4.704,0.96,-0.99,-5.16,-0.29,0.11,-0.25,
4.707,0.96,-0.99,-5.16,-0.29,0.12,-0.26,
4.708,0.96,-0.99,-5.16,-0.30,0.13,-0.27,
4.712,0.65,-1.32,-5.13,-0.30,0.13,-0.27,
4.712,0.65,-1.32,-5.13,-0.30,0.14,-0.27,
4.713,0.65,-1.32,-5.13,-0.30,0.15,-0.28,
4.714,0.65,-1.32,-5.13,-0.30,0.16,-0.28,
4.718,0.65,-1.32,-5.13,-0.30,0.18,-0.29,
4.719,0.65,-1.32,-5.13,-0.30,0.20,-0.29,
4.72,0.52,-1.62,-5.06,-0.30,0.20,-0.29,
4.72,0.52,-1.62,-5.06,-0.30,0.22,-0.30,
4.724,0.52,-1.62,-5.06,-0.30,0.23,-0.30,
4.724,0.52,-1.62,-5.06,-0.30,0.25,-0.30,
4.736,0.52,-1.62,-5.06,-0.30,0.27,-0.30,
4.737,0.52,-1.62,-5.06,-0.29,0.29,-0.31,
4.737,0.35,-1.79,-4.81,-0.29,0.29,-0.31,
4.738,0.35,-1.79,-4.81,-0.28,0.31,-0.31,
4.738,0.35,-1.79,-4.81,-0.28,0.32,-0.31,
4.738,0.35,-1.79,-4.81,-0.27,0.34,-0.31,
4.743,0.35,-1.79,-4.81,-0.26,0.35,-0.31,
4.743,0.35,-1.79,-4.81,-0.24,0.36,-0.31,
4.744,0.35,-1.79,-4.81,-0.24,0.36,-0.31,
4.744,0.24,-1.89,-4.57,-0.24,0.36,-0.31,
4.744,0.24,-1.89,-4.57,-0.22,0.37,-0.31,
4.749,0.24,-1.89,-4.57,-0.21,0.37,-0.31,
4.749,0.24,-1.89,-4.57,-0.20,0.37,-0.31,
4.749,0.24,-1.89,-4.57,-0.19,0.37,-0.30,
4.75,0.11,-1.96,-4.40,-0.19,0.37,-0.30,
4.751,0.11,-1.96,-4.40,-0.17,0.36,-0.30,
4.752,0.11,-1.96,-4.40,-0.17,0.36,-0.30,
4.754,0.11,-1.96,-4.40,-0.14,0.34,-0.30,
4.759,0.11,-1.96,-4.40,-0.14,0.34,-0.29,
4.76,0.11,-1.96,-4.40,-0.11,0.33,-0.29,
4.762,0.07,-2.02,-4.16,-0.11,0.33,-0.29,
4.763,0.07,-2.02,-4.16,-0.10,0.32,-0.28,
4.763,0.07,-2.02,-4.16,-0.09,0.31,-0.28,
4.764,0.07,-2.02,-4.16,-0.07,0.29,-0.27,
4.766,0.07,-2.02,-4.16,-0.05,0.28,-0.26,
4.769,0.07,-2.02,-4.16,-0.04,0.27,-0.26,
4.771,-0.03,-2.01,-3.86,-0.04,0.27,-0.26,
4.771,-0.03,-2.01,-3.86,-0.02,0.25,-0.25,
4.772,-0.03,-2.01,-3.86,-0.01,0.25,-0.24,
4.784,-0.03,-2.01,-3.86,0.02,0.23,-0.23,
4.785,-0.03,-2.01,-3.86,0.03,0.23,-0.23,
4.785,-0.03,-2.01,-3.86,0.06,0.21,-0.21,
4.785,-0.01,-2.03,-3.47,0.06,0.21,-0.21,
4.785,-0.01,-2.03,-3.47,0.07,0.21,-0.20,
4.785,-0.01,-2.03,-3.47,0.08,0.20,-0.20,
4.786,-0.01,-2.03,-3.47,0.11,0.19,-0.18,
4.788,-0.01,-2.03,-3.47,0.13,0.19,-0.18,
4.788,-0.01,-2.03,-3.47,0.15,0.18,-0.17,
4.792,0.06,-1.91,-3.10,0.15,0.18,-0.17,
4.793,0.06,-1.91,-3.10,0.17,0.17,-0.16,
4.793,0.06,-1.91,-3.10,0.18,0.17,-0.15,
4.794,0.06,-1.91,-3.10,0.20,0.16,-0.15,
4.798,0.06,-1.91,-3.10,0.22,0.16,-0.14,
4.798,0.06,-1.91,-3.10,0.24,0.16,-0.14,
4.802,0.23,-1.72,-2.65,0.24,0.16,-0.14,
4.804,0.23,-1.72,-2.65,0.25,0.16,-0.13,
4.805,0.23,-1.72,-2.65,0.27,0.16,-0.13,
4.807,0.23,-1.72,-2.65,0.29,0.16,-0.12,
4.808,0.23,-1.72,-2.65,0.31,0.17,-0.12,
4.809,0.23,-1.72,-2.65,0.33,0.18,-0.11,
4.811,0.26,-1.56,-2.27,0.33,0.18,-0.11,
4.811,0.26,-1.56,-2.27,0.35,0.19,-0.10,
4.815,0.26,-1.56,-2.27,0.37,0.20,-0.10,
4.816,0.26,-1.56,-2.27,0.38,0.22,-0.09,
4.816,0.26,-1.56,-2.27,0.40,0.23,-0.08,
4.818,0.26,-1.56,-2.27,0.41,0.25,-0.08,
4.821,0.24,-1.42,-1.94,0.41,0.25,-0.08,
4.821,0.24,-1.42,-1.94,0.43,0.27,-0.07,
4.822,0.24,-1.42,-1.94,0.44,0.28,-0.06,
4.841,0.24,-1.42,-1.94,0.46,0.29,-0.06,
4.841,0.24,-1.42,-1.94,0.47,0.30,-0.05,
4.842,0.24,-1.42,-1.94,0.48,0.30,-0.04,
4.842,0.17,-1.19,-1.79,0.48,0.30,-0.04,
4.842,0.17,-1.19,-1.79,0.50,0.31,-0.04,
4.842,0.17,-1.19,-1.79,0.51,0.31,-0.03,
4.843,0.17,-1.19,-1.79,0.52,0.31,-0.02,
4.843,0.17,-1.19,-1.79,0.53,0.30,-0.01,
4.843,0.17,-1.19,-1.79,0.53,0.29,-0.00,
4.843,0.01,-0.94,-1.77,0.53,0.29,-0.00,
4.844,0.01,-0.94,-1.77,0.54,0.28,0.00,
4.844,0.01,-0.94,-1.77,0.54,0.27,0.01,
4.844,0.01,-0.94,-1.77,0.55,0.25,0.02,
4.849,0.01,-0.94,-1.77,0.55,0.22,0.03,
4.85,0.01,-0.94,-1.77,0.55,0.20,0.03,
4.852,0.09,-0.63,-1.83,0.55,0.20,0.03,
4.852,0.09,-0.63,-1.83,0.55,0.17,0.03,
4.852,0.09,-0.63,-1.83,0.55,0.14,0.03,
4.854,0.09,-0.63,-1.83,0.54,0.10,0.03,
4.857,0.09,-0.63,-1.83,0.54,0.06,0.02,
4.859,0.09,-0.63,-1.83,0.53,0.02,0.01,
4.86,0.46,-0.23,-1.83,0.53,0.02,0.01,
4.862,0.46,-0.23,-1.83,0.51,-0.03,0.00,
4.863,0.46,-0.23,-1.83,0.50,-0.08,-0.01,
4.866,0.46,-0.23,-1.83,0.48,-0.13,-0.02,
4.867,0.46,-0.23,-1.83,0.46,-0.19,-0.04,
4.868,0.46,-0.23,-1.83,0.43,-0.25,-0.05,
4.87,0.84,0.18,-1.68,0.43,-0.25,-0.05,
4.871,0.84,0.18,-1.68,0.40,-0.32,-0.07,
4.872,0.84,0.18,-1.68,0.36,-0.38,-0.09,
4.879,0.84,0.18,-1.68,0.32,-0.45,-0.11,
4.879,0.84,0.18,-1.68,0.27,-0.51,-0.13,
4.88,0.84,0.18,-1.68,0.23,-0.57,-0.16,
4.883,1.39,0.56,-0.95,0.23,-0.57,-0.16,
4.883,1.39,0.56,-0.95,0.19,-0.62,-0.18,
4.884,1.39,0.56,-0.95,0.15,-0.66,-0.21,
4.884,1.39,0.56,-0.95,0.10,-0.70,-0.24,
4.887,1.39,0.56,-0.95,0.06,-0.72,-0.27,
4.888,1.39,0.56,-0.95,0.02,-0.73,-0.31,
4.897,2.02,0.72,0.56,0.02,-0.73,-0.31,
4.898,2.02,0.72,0.56,-0.02,-0.74,-0.34,
4.898,2.02,0.72,0.56,-0.05,-0.73,-0.37,
4.898,2.02,0.72,0.56,-0.08,-0.71,-0.40,
4.898,2.02,0.72,0.56,-0.11,-0.68,-0.43,
4.899,2.02,0.72,0.56,-0.14,-0.65,-0.46,
4.901,2.36,0.63,2.37,-0.14,-0.65,-0.46,
4.901,2.36,0.63,2.37,-0.17,-0.61,-0.48,
4.902,2.36,0.63,2.37,-0.19,-0.56,-0.50,
4.904,2.36,0.63,2.37,-0.21,-0.50,-0.52,
4.907,2.36,0.63,2.37,-0.23,-0.44,-0.53,
4.909,2.36,0.63,2.37,-0.24,-0.38,-0.55,
4.91,2.23,0.42,4.11,-0.24,-0.38,-0.55,
4.91,2.23,0.42,4.11,-0.25,-0.31,-0.56,
4.913,2.23,0.42,4.11,-0.26,-0.24,-0.57,
4.914,2.23,0.42,4.11,-0.26,-0.16,-0.58,
4.916,2.23,0.42,4.11,-0.25,-0.09,-0.59,
4.918,2.23,0.42,4.11,-0.25,-0.01,-0.60,
4.92,2.02,0.15,5.53,-0.25,-0.01,-0.60,
4.921,2.02,0.15,5.53,-0.24,0.06,-0.60,
4.923,2.02,0.15,5.53,-0.22,0.13,-0.60,
4.925,2.02,0.15,5.53,-0.20,0.20,-0.60,
4.929,2.02,0.15,5.53,-0.17,0.26,-0.60,
4.93,2.02,0.15,5.53,-0.15,0.32,-0.59,
4.935,1.61,-0.07,6.37,-0.15,0.32,-0.59,
4.937,1.61,-0.07,6.37,-0.12,0.37,-0.58,
4.938,1.61,-0.07,6.37,-0.09,0.41,-0.58,
4.938,1.61,-0.07,6.37,-0.06,0.44,-0.57,
4.94,1.61,-0.07,6.37,-0.02,0.47,-0.57,
4.94,1.61,-0.07,6.37,0.01,0.48,-0.56,
4.94,1.21,-0.19,6.53,0.01,0.48,-0.56,
4.941,1.21,-0.19,6.53,0.05,0.48,-0.56,
4.942,1.21,-0.19,6.53,0.08,0.48,-0.56,
4.947,1.21,-0.19,6.53,0.11,0.47,-0.55,
4.949,1.21,-0.19,6.53,0.15,0.44,-0.55,
4.949,1.21,-0.19,6.53,0.18,0.42,-0.55,
4.951,0.85,-0.15,6.17,0.18,0.42,-0.55,
4.951,0.85,-0.15,6.17,0.21,0.39,-0.55,
4.952,0.85,-0.15,6.17,0.24,0.35,-0.54,
4.954,0.85,-0.15,6.17,0.27,0.31,-0.54,
