
time,ax,ay,az,wx,wy,wz,
0.002,-0.07,0.65,-1.57,-0.20,-0.52,-0.05,
0.003,-0.07,0.65,-1.57,-0.25,-0.54,-0.04,
0.003,-0.07,0.65,-1.57,-0.31,-0.55,-0.04,
0.003,-0.07,0.65,-1.57,-0.39,-0.55,-0.02,
0.003,-0.07,0.65,-1.57,-0.42,-0.54,-0.01,
0.004,-0.07,0.65,-1.57,-0.47,-0.53,-0.01,
0.004,0.05,0.35,-1.73,-0.47,-0.53,-0.01,
0.004,0.05,0.35,-1.73,-0.53,-0.50,-0.00,
0.006,0.05,0.35,-1.73,-0.58,-0.46,0.00,
0.011,0.05,0.35,-1.73,-0.65,-0.41,0.01,
0.011,0.05,0.35,-1.73,-0.67,-0.38,0.01,
0.015,0.05,0.35,-1.73,-0.71,-0.34,0.01,
0.016,0.28,0.35,-1.49,-0.71,-0.34,0.01,
0.018,0.28,0.35,-1.49,-0.75,-0.30,0.01,
0.02,0.28,0.35,-1.49,-0.78,-0.27,0.00,
0.021,0.28,0.35,-1.49,-0.82,-0.22,-0.00,
0.022,0.28,0.35,-1.49,-0.83,-0.21,-0.01,
0.023,0.28,0.35,-1.49,-0.85,-0.18,-0.01,
0.024,0.50,0.39,-0.78,-0.85,-0.18,-0.01,
0.025,0.50,0.39,-0.78,-0.87,-0.16,-0.02,
0.051,0.50,0.39,-0.78,-0.88,-0.14,-0.02,
0.052,0.50,0.39,-0.78,-0.90,-0.12,-0.03,
0.052,0.50,0.39,-0.78,-0.90,-0.12,-0.04,
0.053,0.50,0.39,-0.78,-0.90,-0.10,-0.04,
0.053,0.56,0.52,-0.20,-0.90,-0.10,-0.04,
0.053,0.56,0.52,-0.20,-0.90,-0.09,-0.05,
0.054,0.56,0.52,-0.20,-0.89,-0.08,-0.06,
0.054,0.56,0.52,-0.20,-0.87,-0.07,-0.06,
0.054,0.56,0.52,-0.20,-0.85,-0.06,-0.06,
0.055,0.56,0.52,-0.20,-0.83,-0.05,-0.06,
0.055,0.50,0.50,0.13,-0.83,-0.05,-0.06,
0.055,0.50,0.50,0.13,-0.81,-0.03,-0.06,
0.084,0.50,0.50,0.13,-0.78,-0.02,-0.07,
0.085,0.50,0.50,0.13,-0.73,-0.01,-0.07,
0.086,0.50,0.50,0.13,-0.72,-0.01,-0.08,
0.087,0.50,0.50,0.13,-0.68,-0.00,-0.08,
0.087,0.62,0.37,0.21,-0.68,-0.00,-0.08,
0.088,0.62,0.37,0.21,-0.65,-0.01,-0.09,
0.088,0.62,0.37,0.21,-0.62,-0.01,-0.09,
0.089,0.62,0.37,0.21,-0.57,-0.03,-0.10,
0.089,0.62,0.37,0.21,-0.55,-0.03,-0.10,
0.089,0.62,0.37,0.21,-0.52,-0.05,-0.11,
0.09,0.68,0.38,-0.02,-0.52,-0.05,-0.11,
0.09,0.68,0.38,-0.02,-0.50,-0.07,-0.11,
0.091,0.68,0.38,-0.02,-0.48,-0.09,-0.12,
0.091,0.68,0.38,-0.02,-0.45,-0.11,-0.13,
0.091,0.68,0.38,-0.02,-0.44,-0.12,-0.13,
0.092,0.68,0.38,-0.02,-0.43,-0.13,-0.13,
0.092,0.55,0.58,-0.42,-0.43,-0.13,-0.13,
0.092,0.55,0.58,-0.42,-0.42,-0.15,-0.13,
0.093,0.55,0.58,-0.42,-0.41,-0.17,-0.13,
0.093,0.55,0.58,-0.42,-0.40,-0.19,-0.13,
0.094,0.55,0.58,-0.42,-0.40,-0.19,-0.13,
0.095,0.55,0.58,-0.42,-0.40,-0.20,-0.12,
0.096,0.27,0.71,-0.56,-0.40,-0.20,-0.12,
0.097,0.27,0.71,-0.56,-0.39,-0.21,-0.12,
0.097,0.27,0.71,-0.56,-0.39,-0.23,-0.11,
0.097,0.27,0.71,-0.56,-0.39,-0.25,-0.11,
0.098,0.27,0.71,-0.56,-0.39,-0.26,-0.11,
0.098,0.27,0.71,-0.56,-0.40,-0.27,-0.11,
0.098,0.06,0.91,-0.67,-0.40,-0.27,-0.11,
0.099,0.06,0.91,-0.67,-0.40,-0.28,-0.10,
0.099,0.06,0.91,-0.67,-0.40,-0.29,-0.10,
0.105,0.06,0.91,-0.67,-0.42,-0.30,-0.11,
0.105,0.06,0.91,-0.67,-0.42,-0.30,-0.11,
0.106,0.06,0.91,-0.67,-0.43,-0.31,-0.11,
0.106,-0.13,0.97,-0.80,-0.43,-0.31,-0.11,
0.106,-0.13,0.97,-0.80,-0.45,-0.31,-0.11,
0.107,-0.13,0.97,-0.80,-0.46,-0.31,-0.11,
0.111,-0.13,0.97,-0.80,-0.49,-0.31,-0.12,
0.111,-0.13,0.97,-0.80,-0.50,-0.31,-0.12,
0.112,-0.13,0.97,-0.80,-0.52,-0.32,-0.12,
0.115,-0.22,1.03,-1.01,-0.52,-0.32,-0.12,
0.115,-0.22,1.03,-1.01,-0.55,-0.32,-0.13,
0.116,-0.22,1.03,-1.01,-0.57,-0.32,-0.13,
0.119,-0.22,1.03,-1.01,-0.61,-0.32,-0.14,
0.12,-0.22,1.03,-1.01,-0.63,-0.32,-0.14,
0.142,-0.22,1.03,-1.01,-0.66,-0.31,-0.14,
0.143,-0.21,0.93,-1.23,-0.66,-0.31,-0.14,
0.143,-0.21,0.93,-1.23,-0.68,-0.31,-0.15,
0.144,-0.21,0.93,-1.23,-0.71,-0.31,-0.15,
0.144,-0.21,0.93,-1.23,-0.76,-0.29,-0.15,
0.145,-0.21,0.93,-1.23,-0.77,-0.28,-0.15,
0.145,-0.21,0.93,-1.23,-0.80,-0.27,-0.15,
0.145,-0.09,0.71,-1.26,-0.80,-0.27,-0.15,
0.146,-0.09,0.71,-1.26,-0.82,-0.25,-0.15,
0.146,-0.09,0.71,-1.26,-0.84,-0.23,-0.15,
0.147,-0.09,0.71,-1.26,-0.86,-0.19,-0.15,
0.147,-0.09,0.71,-1.26,-0.86,-0.18,-0.15,
0.147,-0.09,0.71,-1.26,-0.87,-0.16,-0.15,
0.148,0.20,0.49,-0.61,-0.87,-0.16,-0.15,
0.148,0.20,0.49,-0.61,-0.87,-0.14,-0.15,
0.149,0.20,0.49,-0.61,-0.87,-0.11,-0.15,
0.149,0.20,0.49,-0.61,-0.86,-0.08,-0.16,
0.158,0.20,0.49,-0.61,-0.86,-0.07,-0.17,
0.158,0.20,0.49,-0.61,-0.85,-0.05,-0.18,
0.159,0.80,0.70,0.00,-0.85,-0.05,-0.18,
0.159,0.80,0.70,0.00,-0.83,-0.03,-0.19,
0.16,0.80,0.70,0.00,-0.81,-0.00,-0.21,
0.16,0.80,0.70,0.00,-0.78,0.03,-0.23,
0.171,0.80,0.70,0.00,-0.77,0.04,-0.24,
0.171,0.80,0.70,0.00,-0.75,0.06,-0.26,
0.172,0.90,0.89,0.22,-0.75,0.06,-0.26,
0.172,0.90,0.89,0.22,-0.73,0.08,-0.27,
0.172,0.90,0.89,0.22,-0.70,0.10,-0.29,
0.172,0.90,0.89,0.22,-0.67,0.12,-0.32,
0.173,0.90,0.89,0.22,-0.66,0.12,-0.32,
0.186,0.90,0.89,0.22,-0.64,0.11,-0.34,
0.187,0.59,0.96,0.12,-0.64,0.11,-0.34,
0.187,0.59,0.96,0.12,-0.62,0.11,-0.36,
0.187,0.59,0.96,0.12,-0.60,0.09,-0.37,
0.187,0.59,0.96,0.12,-0.57,0.07,-0.40,
0.188,0.59,0.96,0.12,-0.56,0.06,-0.41,
0.188,0.59,0.96,0.12,-0.55,0.05,-0.42,
0.188,0.15,0.96,-0.05,-0.55,0.05,-0.42,
0.188,0.15,0.96,-0.05,-0.53,0.04,-0.44,
0.189,0.15,0.96,-0.05,-0.52,0.02,-0.45,
0.189,0.15,0.96,-0.05,-0.51,0.00,-0.47,
0.19,0.15,0.96,-0.05,-0.50,-0.01,-0.47,
0.192,0.15,0.96,-0.05,-0.49,-0.03,-0.48,
0.194,-0.23,0.93,-0.36,-0.49,-0.03,-0.48,
0.195,-0.23,0.93,-0.36,-0.49,-0.05,-0.48,
0.197,-0.23,0.93,-0.36,-0.49,-0.08,-0.49,
0.199,-0.23,0.93,-0.36,-0.48,-0.13,-0.49,
0.2,-0.23,0.93,-0.36,-0.48,-0.15,-0.49,
0.202,-0.23,0.93,-0.36,-0.48,-0.19,-0.49,
0.204,-0.51,0.90,-0.54,-0.48,-0.19,-0.49,
0.204,-0.51,0.90,-0.54,-0.48,-0.21,-0.49,
0.206,-0.51,0.90,-0.54,-0.48,-0.23,-0.49,
0.21,-0.51,0.90,-0.54,-0.49,-0.25,-0.49,
0.212,-0.51,0.90,-0.54,-0.49,-0.26,-0.49,
0.212,-0.51,0.90,-0.54,-0.50,-0.27,-0.49,
0.215,-0.28,1.13,-0.25,-0.50,-0.27,-0.49,
0.215,-0.28,1.13,-0.25,-0.50,-0.29,-0.49,
0.216,-0.28,1.13,-0.25,-0.51,-0.30,-0.50,
0.219,-0.28,1.13,-0.25,-0.51,-0.32,-0.49,
0.22,-0.28,1.13,-0.25,-0.51,-0.33,-0.49,
0.222,-0.28,1.13,-0.25,-0.51,-0.33,-0.49,
0.228,-0.08,1.27,0.43,-0.51,-0.33,-0.49,
0.228,-0.08,1.27,0.43,-0.50,-0.33,-0.49,
0.228,-0.08,1.27,0.43,-0.49,-0.32,-0.49,
0.235,-0.08,1.27,0.43,-0.47,-0.30,-0.49,
0.236,-0.08,1.27,0.43,-0.46,-0.30,-0.49,
0.237,-0.08,1.27,0.43,-0.44,-0.29,-0.49,
0.238,0.06,1.22,1.10,-0.44,-0.29,-0.49,
0.238,0.06,1.22,1.10,-0.42,-0.28,-0.50,
0.239,0.06,1.22,1.10,-0.40,-0.27,-0.50,
0.243,0.06,1.22,1.10,-0.37,-0.26,-0.51,
0.243,0.06,1.22,1.10,-0.36,-0.26,-0.51,
0.243,0.06,1.22,1.10,-0.34,-0.26,-0.52,
0.246,0.12,1.06,1.48,-0.34,-0.26,-0.52,
0.246,0.12,1.06,1.48,-0.32,-0.26,-0.52,
0.246,0.12,1.06,1.48,-0.30,-0.26,-0.53,
0.249,0.12,1.06,1.48,-0.27,-0.25,-0.55,
0.251,0.12,1.06,1.48,-0.25,-0.25,-0.55,
0.252,0.12,1.06,1.48,-0.23,-0.25,-0.56,
0.254,0.10,0.88,1.71,-0.23,-0.25,-0.56,
0.255,0.10,0.88,1.71,-0.21,-0.26,-0.57,
0.256,0.10,0.88,1.71,-0.18,-0.25,-0.58,
0.259,0.10,0.88,1.71,-0.14,-0.26,-0.59,
0.26,0.10,0.88,1.71,-0.13,-0.26,-0.60,
0.262,0.10,0.88,1.71,-0.10,-0.26,-0.60,
0.264,0.02,0.86,1.86,-0.10,-0.26,-0.60,
0.265,0.02,0.86,1.86,-0.08,-0.27,-0.60,
0.266,0.02,0.86,1.86,-0.05,-0.28,-0.60,
0.269,0.02,0.86,1.86,-0.02,-0.29,-0.60,
0.27,0.02,0.86,1.86,-0.01,-0.30,-0.60,
0.272,0.02,0.86,1.86,0.01,-0.31,-0.59,
0.281,-0.24,0.89,1.79,0.01,-0.31,-0.59,
0.282,-0.24,0.89,1.79,0.04,-0.32,-0.58,
0.282,-0.24,0.89,1.79,0.05,-0.32,-0.58,
0.283,-0.24,0.89,1.79,0.08,-0.33,-0.56,
0.283,-0.24,0.89,1.79,0.09,-0.33,-0.56,
0.283,-0.24,0.89,1.79,0.10,-0.32,-0.54,
0.285,-0.45,0.83,1.55,0.10,-0.32,-0.54,
0.308,-0.45,0.83,1.55,0.11,-0.32,-0.53,
0.309,-0.45,0.83,1.55,0.12,-0.31,-0.52,
0.329,-0.45,0.83,1.55,0.13,-0.28,-0.50,
0.329,-0.45,0.83,1.55,0.14,-0.26,-0.49,
0.329,-0.45,0.83,1.55,0.14,-0.24,-0.47,
0.33,-0.58,0.78,1.45,0.14,-0.24,-0.47,
0.33,-0.58,0.78,1.45,0.15,-0.23,-0.45,
0.33,-0.58,0.78,1.45,0.15,-0.21,-0.44,
0.331,-0.58,0.78,1.45,0.16,-0.20,-0.41,
0.331,-0.58,0.78,1.45,0.17,-0.20,-0.40,
0.331,-0.58,0.78,1.45,0.18,-0.19,-0.39,
0.331,-0.58,0.75,1.40,0.18,-0.19,-0.39,
0.332,-0.58,0.75,1.40,0.18,-0.17,-0.38,
0.332,-0.58,0.75,1.40,0.19,-0.15,-0.38,
0.332,-0.58,0.75,1.40,0.20,-0.13,-0.37,
0.332,-0.58,0.75,1.40,0.21,-0.12,-0.37,
0.333,-0.58,0.75,1.40,0.21,-0.11,-0.36,
0.333,-0.58,0.79,1.02,0.21,-0.11,-0.36,
0.333,-0.58,0.79,1.02,0.21,-0.11,-0.36,
0.333,-0.58,0.79,1.02,0.21,-0.12,-0.36,
0.334,-0.58,0.79,1.02,0.19,-0.14,-0.36,
0.334,-0.58,0.79,1.02,0.18,-0.15,-0.35,
0.334,-0.58,0.79,1.02,0.17,-0.18,-0.36,
0.334,-0.78,0.83,0.54,0.17,-0.18,-0.36,
0.335,-0.78,0.83,0.54,0.15,-0.20,-0.36,
0.335,-0.78,0.83,0.54,0.14,-0.23,-0.37,
0.335,-0.78,0.83,0.54,0.10,-0.28,-0.38,
0.335,-0.78,0.83,0.54,0.09,-0.29,-0.38,
0.336,-0.78,0.83,0.54,0.07,-0.32,-0.39,
0.336,-0.77,1.00,0.19,0.07,-0.32,-0.39,
0.336,-0.77,1.00,0.19,0.04,-0.35,-0.40,
0.337,-0.77,1.00,0.19,0.01,-0.38,-0.41,
0.342,-0.77,1.00,0.19,-0.03,-0.41,-0.42,
0.343,-0.77,1.00,0.19,-0.04,-0.42,-0.43,
0.343,-0.77,1.00,0.19,-0.08,-0.44,-0.44,
0.345,-0.59,1.09,0.10,-0.08,-0.44,-0.44,
0.345,-0.59,1.09,0.10,-0.12,-0.46,-0.45,
0.347,-0.59,1.09,0.10,-0.16,-0.47,-0.46,
0.349,-0.59,1.09,0.10,-0.22,-0.48,-0.47,
0.35,-0.59,1.09,0.10,-0.24,-0.48,-0.47,
0.352,-0.59,1.09,0.10,-0.29,-0.48,-0.48,
0.354,-0.48,0.97,0.32,-0.29,-0.48,-0.48,
0.354,-0.48,0.97,0.32,-0.33,-0.48,-0.48,
0.356,-0.48,0.97,0.32,-0.38,-0.46,-0.49,
0.361,-0.48,0.97,0.32,-0.46,-0.43,-0.49,
0.361,-0.48,0.97,0.32,-0.48,-0.41,-0.49,
0.362,-0.48,0.97,0.32,-0.53,-0.38,-0.49,
0.364,-0.42,0.57,0.56,-0.53,-0.38,-0.49,
0.364,-0.42,0.57,0.56,-0.59,-0.35,-0.49,
0.366,-0.42,0.57,0.56,-0.64,-0.31,-0.49,
0.369,-0.42,0.57,0.56,-0.71,-0.25,-0.48,
0.37,-0.42,0.57,0.56,-0.74,-0.23,-0.48,
0.372,-0.42,0.57,0.56,-0.79,-0.19,-0.47,
0.374,-0.35,0.11,0.73,-0.79,-0.19,-0.47,
0.375,-0.35,0.11,0.73,-0.84,-0.15,-0.47,
0.376,-0.35,0.11,0.73,-0.89,-0.10,-0.46,
0.379,-0.35,0.11,0.73,-0.96,-0.04,-0.44,
0.38,-0.35,0.11,0.73,-0.98,-0.02,-0.44,
0.382,-0.35,0.11,0.73,-1.01,0.03,-0.44,
0.384,-0.27,-0.17,1.20,-1.01,0.03,-0.44,
0.384,-0.27,-0.17,1.20,-1.04,0.08,-0.43,
0.386,-0.27,-0.17,1.20,-1.07,0.13,-0.43,
0.389,-0.27,-0.17,1.20,-1.09,0.21,-0.43,
0.391,-0.27,-0.17,1.20,-1.09,0.24,-0.43,
0.393,-0.27,-0.17,1.20,-1.09,0.29,-0.44,
0.396,-0.04,-0.51,2.23,-1.09,0.29,-0.44,
0.396,-0.04,-0.51,2.23,-1.09,0.33,-0.44,
0.397,-0.04,-0.51,2.23,-1.09,0.36,-0.44,
0.4,-0.04,-0.51,2.23,-1.07,0.39,-0.45,
0.401,-0.04,-0.51,2.23,-1.06,0.40,-0.46,
0.402,-0.04,-0.51,2.23,-1.04,0.42,-0.47,
0.405,0.14,-0.76,3.03,-1.04,0.42,-0.47,
0.406,0.14,-0.76,3.03,-1.03,0.43,-0.48,
0.406,0.14,-0.76,3.03,-1.01,0.44,-0.49,
0.41,0.14,-0.76,3.03,-0.98,0.45,-0.51,
0.412,0.14,-0.76,3.03,-0.97,0.45,-0.52,
0.414,0.14,-0.76,3.03,-0.95,0.46,-0.53,
0.416,0.24,-1.08,3.08,-0.95,0.46,-0.53,
0.418,0.24,-1.08,3.08,-0.93,0.46,-0.55,
0.419,0.24,-1.08,3.08,-0.90,0.46,-0.56,
0.42,0.24,-1.08,3.08,-0.86,0.45,-0.59,
0.421,0.24,-1.08,3.08,-0.84,0.45,-0.59,
0.422,0.24,-1.08,3.08,-0.81,0.45,-0.61,
0.428,0.09,-1.14,3.09,-0.81,0.45,-0.61,
0.429,0.09,-1.14,3.09,-0.77,0.45,-0.62,
0.429,0.09,-1.14,3.09,-0.73,0.45,-0.64,
0.43,0.09,-1.14,3.09,-0.67,0.45,-0.66,
0.43,0.09,-1.14,3.09,-0.64,0.45,-0.67,
0.433,0.09,-1.14,3.09,-0.60,0.45,-0.69,
0.437,0.12,-1.04,3.15,-0.60,0.45,-0.69,
0.438,0.12,-1.04,3.15,-0.55,0.43,-0.70,
0.439,0.12,-1.04,3.15,-0.51,0.42,-0.72,
0.449,0.12,-1.04,3.15,-0.46,0.39,-0.75,
0.45,0.12,-1.04,3.15,-0.44,0.38,-0.76,
0.45,0.12,-1.04,3.15,-0.41,0.36,-0.78,
0.45,0.42,-0.78,2.05,-0.41,0.36,-0.78,
0.45,0.42,-0.78,2.05,-0.39,0.35,-0.80,
0.45,0.42,-0.78,2.05,-0.37,0.35,-0.82,
0.45,0.42,-0.78,2.05,-0.35,0.33,-0.85,
0.451,0.42,-0.78,2.05,-0.35,0.32,-0.86,
0.452,0.42,-0.78,2.05,-0.35,0.29,-0.87,
0.455,0.32,-0.96,0.64,-0.35,0.29,-0.87,
0.475,0.32,-0.96,0.64,-0.35,0.27,-0.89,
0.475,0.32,-0.96,0.64,-0.36,0.23,-0.90,
0.475,0.32,-0.96,0.64,-0.38,0.19,-0.92,
0.475,0.32,-0.96,0.64,-0.39,0.17,-0.93,
0.476,0.32,-0.96,0.64,-0.41,0.15,-0.94,
0.476,-0.01,-1.26,-0.42,-0.41,0.15,-0.94,
0.476,-0.01,-1.26,-0.42,-0.43,0.14,-0.94,
0.477,-0.01,-1.26,-0.42,-0.46,0.12,-0.94,
0.477,-0.01,-1.26,-0.42,-0.51,0.10,-0.93,
0.477,-0.01,-1.26,-0.42,-0.53,0.10,-0.93,
0.477,-0.01,-1.26,-0.42,-0.56,0.09,-0.91,
0.478,-0.35,-1.58,-1.44,-0.56,0.09,-0.91,
0.478,-0.35,-1.58,-1.44,-0.60,0.09,-0.89,
0.478,-0.35,-1.58,-1.44,-0.64,0.10,-0.86,
0.483,-0.35,-1.58,-1.44,-0.69,0.12,-0.82,
0.483,-0.35,-1.58,-1.44,-0.70,0.13,-0.80,
0.484,-0.35,-1.58,-1.44,-0.73,0.14,-0.76,
0.489,-0.35,-1.58,-1.44,-0.79,0.16,-0.69,
0.489,-0.35,-1.58,-1.44,-0.79,0.16,-0.69,
0.492,-0.62,-1.74,-1.81,-0.79,0.16,-0.69,
0.492,-0.62,-1.74,-1.81,-0.83,0.17,-0.62,
0.493,-0.62,-1.74,-1.81,-0.84,0.17,-0.60,
0.493,-0.62,-1.74,-1.81,-0.86,0.17,-0.56,
0.496,-0.61,-1.72,-1.83,-0.86,0.17,-0.56,
0.497,-0.61,-1.72,-1.83,-0.88,0.16,-0.51,
0.498,-0.61,-1.72,-1.83,-0.90,0.15,-0.47,
0.499,-0.61,-1.72,-1.83,-0.92,0.12,-0.40,
0.5,-0.61,-1.72,-1.83,-0.92,0.10,-0.38,
0.503,-0.61,-1.72,-1.83,-0.93,0.06,-0.35,
0.504,-0.50,-1.65,-1.94,-0.93,0.06,-0.35,
0.504,-0.50,-1.65,-1.94,-0.94,0.02,-0.31,
0.508,-0.50,-1.65,-1.94,-0.94,-0.03,-0.28,
0.509,-0.50,-1.65,-1.94,-0.95,-0.12,-0.24,
0.51,-0.50,-1.65,-1.94,-0.95,-0.15,-0.23,
0.512,-0.50,-1.65,-1.94,-0.95,-0.23,-0.22,
0.515,-0.56,-1.60,-1.95,-0.95,-0.23,-0.22,
0.515,-0.56,-1.60,-1.95,-0.95,-0.30,-0.20,
0.516,-0.56,-1.60,-1.95,-0.95,-0.39,-0.20,
0.519,-0.56,-1.60,-1.95,-0.95,-0.52,-0.20,
0.52,-0.56,-1.60,-1.95,-0.96,-0.57,-0.20,
0.522,-0.56,-1.60,-1.95,-0.95,-0.65,-0.20,
0.526,-0.93,-1.32,-1.73,-0.95,-0.65,-0.20,
0.527,-0.93,-1.32,-1.73,-0.95,-0.74,-0.20,
0.528,-0.93,-1.32,-1.73,-0.94,-0.82,-0.19,
0.531,-0.93,-1.32,-1.73,-0.93,-0.93,-0.18,
0.533,-0.93,-1.32,-1.73,-0.93,-0.97,-0.18,
0.535,-0.93,-1.32,-1.73,-0.92,-1.06,-0.17,
0.535,-1.06,-0.82,-1.32,-0.92,-1.06,-0.17,
0.535,-1.06,-0.82,-1.32,-0.92,-1.15,-0.15,
0.536,-1.06,-0.82,-1.32,-0.92,-1.24,-0.13,
0.539,-1.06,-0.82,-1.32,-0.91,-1.36,-0.10,
0.545,-1.06,-0.82,-1.32,-0.91,-1.40,-0.09,
0.545,-1.06,-0.82,-1.32,-0.91,-1.46,-0.06,
0.545,-0.57,-0.49,-0.93,-0.91,-1.46,-0.06,
0.545,-0.57,-0.49,-0.93,-0.91,-1.51,-0.04,
0.546,-0.57,-0.49,-0.93,-0.89,-1.56,-0.02,
0.549,-0.57,-0.49,-0.93,-0.87,-1.60,0.02,
0.55,-0.57,-0.49,-0.93,-0.86,-1.61,0.03,
0.553,-0.57,-0.49,-0.93,-0.83,-1.62,0.04,
0.554,0.23,-0.22,0.25,-0.83,-1.62,0.04,
0.554,0.23,-0.22,0.25,-0.80,-1.61,0.06,
0.563,0.23,-0.22,0.25,-0.77,-1.60,0.08,
0.564,0.23,-0.22,0.25,-0.71,-1.57,0.09,
0.564,0.23,-0.22,0.25,-0.69,-1.56,0.10,
0.564,0.23,-0.22,0.25,-0.64,-1.52,0.10,
0.566,0.96,-0.14,1.70,-0.64,-1.52,0.10,
0.567,0.96,-0.14,1.70,-0.59,-1.47,0.11,
0.568,0.96,-0.14,1.70,-0.55,-1.42,0.11,
0.569,0.96,-0.14,1.70,-0.47,-1.33,0.10,
0.57,0.96,-0.14,1.70,-0.45,-1.30,0.10,
0.572,0.96,-0.14,1.70,-0.40,-1.23,0.09,
0.574,1.68,-0.32,2.40,-0.40,-1.23,0.09,
0.574,1.68,-0.32,2.40,-0.35,-1.16,0.09,
0.576,1.68,-0.32,2.40,-0.32,-1.10,0.07,
0.58,1.68,-0.32,2.40,-0.26,-1.00,0.05,
0.58,1.68,-0.32,2.40,-0.25,-0.96,0.04,
0.582,1.68,-0.32,2.40,-0.22,-0.90,0.03,
0.585,2.16,-0.62,2.13,-0.22,-0.90,0.03,
0.586,2.16,-0.62,2.13,-0.20,-0.84,0.01,
0.586,2.16,-0.62,2.13,-0.19,-0.79,-0.01,
0.589,2.16,-0.62,2.13,-0.18,-0.72,-0.04,
0.59,2.16,-0.62,2.13,-0.17,-0.69,-0.05,
0.592,2.16,-0.62,2.13,-0.17,-0.65,-0.08,
0.594,2.49,-0.86,1.27,-0.17,-0.65,-0.08,
0.594,2.49,-0.86,1.27,-0.17,-0.62,-0.10,
0.596,2.49,-0.86,1.27,-0.18,-0.60,-0.13,
0.599,2.49,-0.86,1.27,-0.20,-0.60,-0.17,
0.601,2.49,-0.86,1.27,-0.20,-0.60,-0.19,
0.602,2.49,-0.86,1.27,-0.22,-0.61,-0.23,
0.605,2.57,-0.77,0.17,-0.22,-0.61,-0.23,
0.605,2.57,-0.77,0.17,-0.24,-0.64,-0.27,
0.607,2.57,-0.77,0.17,-0.26,-0.66,-0.30,
0.609,2.57,-0.77,0.17,-0.29,-0.70,-0.37,
0.61,2.57,-0.77,0.17,-0.31,-0.71,-0.39,
0.612,2.57,-0.77,0.17,-0.33,-0.74,-0.43,
0.614,2.62,-0.49,-0.89,-0.33,-0.74,-0.43,
0.615,2.62,-0.49,-0.89,-0.35,-0.77,-0.47,
0.616,2.62,-0.49,-0.89,-0.37,-0.79,-0.52,
0.619,2.62,-0.49,-0.89,-0.40,-0.84,-0.59,
0.62,2.62,-0.49,-0.89,-0.41,-0.85,-0.61,
0.641,2.62,-0.49,-0.89,-0.43,-0.88,-0.66,
0.641,2.50,-0.21,-1.37,-0.43,-0.88,-0.66,
0.642,2.50,-0.21,-1.37,-0.45,-0.90,-0.70,
0.642,2.50,-0.21,-1.37,-0.46,-0.92,-0.75,
0.642,2.50,-0.21,-1.37,-0.47,-0.93,-0.81,
0.642,2.50,-0.21,-1.37,-0.47,-0.93,-0.83,
0.643,2.50,-0.21,-1.37,-0.47,-0.93,-0.87,
0.643,2.28,0.06,-1.14,-0.47,-0.93,-0.87,
0.643,2.28,0.06,-1.14,-0.46,-0.92,-0.91,
0.643,2.28,0.06,-1.14,-0.46,-0.92,-0.94,
0.644,2.28,0.06,-1.14,-0.44,-0.92,-0.98,
0.644,2.28,0.06,-1.14,-0.43,-0.92,-0.99,
0.644,2.28,0.06,-1.14,-0.42,-0.93,-1.02,
0.65,1.71,0.21,-0.77,-0.42,-0.93,-1.02,
0.65,1.71,0.21,-0.77,-0.40,-0.94,-1.04,
0.65,1.71,0.21,-0.77,-0.38,-0.95,-1.05,
0.651,1.71,0.21,-0.77,-0.35,-0.97,-1.07,
0.651,1.71,0.21,-0.77,-0.34,-0.97,-1.08,
0.652,1.71,0.21,-0.77,-0.32,-0.98,-1.09,
0.654,1.35,0.18,-0.63,-0.32,-0.98,-1.09,
0.655,1.35,0.18,-0.63,-0.29,-0.97,-1.09,
0.657,1.35,0.18,-0.63,-0.27,-0.97,-1.10,
0.66,1.35,0.18,-0.63,-0.23,-0.96,-1.10,
0.662,1.35,0.18,-0.63,-0.21,-0.95,-1.10,
0.663,1.35,0.18,-0.63,-0.18,-0.94,-1.09,
0.664,0.91,0.07,-0.80,-0.18,-0.94,-1.09,
0.664,0.91,0.07,-0.80,-0.17,-0.94,-1.09,
0.666,0.91,0.07,-0.80,-0.15,-0.93,-1.09,
0.669,0.91,0.07,-0.80,-0.11,-0.91,-1.08,
0.67,0.91,0.07,-0.80,-0.11,-0.90,-1.07,
0.678,0.91,0.07,-0.80,-0.08,-0.88,-1.07,
0.679,0.54,-0.08,-1.09,-0.08,-0.88,-1.07,
0.679,0.54,-0.08,-1.09,-0.07,-0.86,-1.06,
0.679,0.54,-0.08,-1.09,-0.06,-0.84,-1.05,
0.68,0.54,-0.08,-1.09,-0.04,-0.80,-1.04,
0.68,0.54,-0.08,-1.09,-0.04,-0.79,-1.03,
0.685,0.54,-0.08,-1.09,-0.03,-0.75,-1.02,
0.685,0.07,-0.21,-1.81,-0.03,-0.75,-1.02,
0.686,0.07,-0.21,-1.81,-0.03,-0.72,-1.01,
0.687,0.07,-0.21,-1.81,-0.03,-0.67,-1.00,
0.701,0.07,-0.21,-1.81,-0.03,-0.60,-0.99,
0.702,0.07,-0.21,-1.81,-0.04,-0.57,-0.98,
0.702,0.07,-0.21,-1.81,-0.04,-0.51,-0.97,
0.702,-0.15,-0.22,-2.40,-0.04,-0.51,-0.97,
0.703,-0.15,-0.22,-2.40,-0.06,-0.46,-0.97,
0.703,-0.15,-0.22,-2.40,-0.07,-0.40,-0.95,
0.703,-0.15,-0.22,-2.40,-0.10,-0.32,-0.94,
0.703,-0.15,-0.22,-2.40,-0.11,-0.29,-0.93,
0.704,-0.15,-0.22,-2.40,-0.13,-0.24,-0.92,
0.705,-0.24,-0.15,-2.87,-0.13,-0.24,-0.92,
0.706,-0.24,-0.15,-2.87,-0.15,-0.19,-0.91,
0.711,-0.24,-0.15,-2.87,-0.17,-0.14,-0.90,
0.713,-0.24,-0.15,-2.87,-0.20,-0.07,-0.88,
0.713,-0.24,-0.15,-2.87,-0.22,-0.05,-0.88,
0.713,-0.24,-0.15,-2.87,-0.24,-0.01,-0.87,
0.714,-0.27,0.06,-3.09,-0.24,-0.01,-0.87,
0.714,-0.27,0.06,-3.09,-0.26,0.02,-0.86,
0.716,-0.27,0.06,-3.09,-0.29,0.05,-0.85,
0.719,-0.27,0.06,-3.09,-0.32,0.07,-0.84,
0.72,-0.27,0.06,-3.09,-0.33,0.08,-0.83,
0.724,-0.27,0.06,-3.09,-0.34,0.08,-0.82,
0.725,-0.17,0.20,-3.19,-0.34,0.08,-0.82,
0.725,-0.17,0.20,-3.19,-0.36,0.09,-0.82,
0.726,-0.17,0.20,-3.19,-0.37,0.08,-0.81,
0.729,-0.17,0.20,-3.19,-0.39,0.05,-0.80,
0.73,-0.17,0.20,-3.19,-0.39,0.04,-0.80,
0.732,-0.17,0.20,-3.19,-0.40,0.02,-0.80,
0.735,-0.07,0.30,-3.10,-0.40,0.02,-0.80,
0.735,-0.07,0.30,-3.10,-0.41,-0.01,-0.80,
0.737,-0.07,0.30,-3.10,-0.41,-0.04,-0.80,
0.74,-0.07,0.30,-3.10,-0.41,-0.09,-0.80,
0.741,-0.07,0.30,-3.10,-0.41,-0.10,-0.80,
0.743,-0.07,0.30,-3.10,-0.39,-0.13,-0.81,
0.745,-0.03,0.35,-2.65,-0.39,-0.13,-0.81,
0.745,-0.03,0.35,-2.65,-0.39,-0.15,-0.81,
0.746,-0.03,0.35,-2.65,-0.38,-0.17,-0.81,
0.749,-0.03,0.35,-2.65,-0.36,-0.19,-0.82,
0.75,-0.03,0.35,-2.65,-0.35,-0.19,-0.82,
0.752,-0.03,0.35,-2.65,-0.33,-0.21,-0.83,
0.754,0.05,0.38,-2.15,-0.33,-0.21,-0.83,
0.755,0.05,0.38,-2.15,-0.31,-0.22,-0.83,
0.757,0.05,0.38,-2.15,-0.30,-0.23,-0.83,
0.759,0.05,0.38,-2.15,-0.27,-0.25,-0.84,
0.76,0.05,0.38,-2.15,-0.27,-0.25,-0.84,
0.762,0.05,0.38,-2.15,-0.25,-0.27,-0.85,
0.765,0.05,0.21,-1.91,-0.25,-0.27,-0.85,
0.765,0.05,0.21,-1.91,-0.23,-0.29,-0.85,
0.766,0.05,0.21,-1.91,-0.22,-0.30,-0.85,
0.769,0.05,0.21,-1.91,-0.20,-0.33,-0.85,
0.771,0.05,0.21,-1.91,-0.19,-0.34,-0.85,
0.773,0.05,0.21,-1.91,-0.18,-0.35,-0.85,
0.776,-0.05,0.15,-1.92,-0.18,-0.35,-0.85,
0.777,-0.05,0.15,-1.92,-0.17,-0.37,-0.84,
0.777,-0.05,0.15,-1.92,-0.16,-0.38,-0.84,
0.78,-0.05,0.15,-1.92,-0.15,-0.40,-0.82,
0.781,-0.05,0.15,-1.92,-0.15,-0.41,-0.82,
0.782,-0.05,0.15,-1.92,-0.15,-0.42,-0.81,
0.784,-0.29,0.16,-2.13,-0.15,-0.42,-0.81,
0.785,-0.29,0.16,-2.13,-0.15,-0.43,-0.80,
0.786,-0.29,0.16,-2.13,-0.15,-0.45,-0.79,
0.818,-0.29,0.16,-2.13,-0.16,-0.47,-0.78,
0.819,-0.29,0.16,-2.13,-0.17,-0.47,-0.77,
0.819,-0.29,0.16,-2.13,-0.17,-0.48,-0.76,
0.819,-0.46,0.16,-2.42,-0.17,-0.48,-0.76,
0.82,-0.46,0.16,-2.42,-0.18,-0.50,-0.75,
0.82,-0.46,0.16,-2.42,-0.19,-0.51,-0.74,
0.821,-0.46,0.16,-2.42,-0.21,-0.52,-0.72,
0.821,-0.46,0.16,-2.42,-0.21,-0.52,-0.72,
0.822,-0.46,0.16,-2.42,-0.21,-0.52,-0.70,
0.822,-0.67,0.10,-2.43,-0.21,-0.52,-0.70,
0.822,-0.67,0.10,-2.43,-0.22,-0.51,-0.69,
0.823,-0.67,0.10,-2.43,-0.21,-0.50,-0.67,
0.823,-0.67,0.10,-2.43,-0.21,-0.48,-0.63,
0.823,-0.67,0.10,-2.43,-0.20,-0.47,-0.62,
0.824,-0.67,0.10,-2.43,-0.19,-0.44,-0.59,
0.824,-1.23,-0.12,-1.90,-0.19,-0.44,-0.59,
0.825,-1.23,-0.12,-1.90,-0.18,-0.41,-0.55,
0.825,-1.23,-0.12,-1.90,-0.16,-0.37,-0.51,
0.826,-1.23,-0.12,-1.90,-0.13,-0.30,-0.44,
0.826,-1.23,-0.12,-1.90,-0.12,-0.28,-0.42,
0.826,-1.23,-0.12,-1.90,-0.10,-0.22,-0.37,
0.827,-1.83,-0.43,-1.06,-0.10,-0.22,-0.37,
0.827,-1.83,-0.43,-1.06,-0.07,-0.16,-0.31,
0.828,-1.83,-0.43,-1.06,-0.05,-0.10,-0.24,
0.846,-1.83,-0.43,-1.06,-0.00,-0.00,-0.13,
0.847,-1.83,-0.43,-1.06,0.01,0.03,-0.09,
0.847,-1.83,-0.43,-1.06,0.04,0.09,-0.01,
0.847,-2.45,-0.41,-0.39,0.04,0.09,-0.01,
0.847,-2.45,-0.41,-0.39,0.07,0.16,0.06,
0.848,-2.45,-0.41,-0.39,0.10,0.22,0.14,
0.848,-2.45,-0.41,-0.39,0.13,0.31,0.27,
0.848,-2.45,-0.41,-0.39,0.15,0.34,0.30,
0.848,-2.45,-0.41,-0.39,0.17,0.39,0.38,
0.849,-2.44,-0.18,-0.07,0.17,0.39,0.38,
0.849,-2.44,-0.18,-0.07,0.19,0.44,0.44,
0.85,-2.44,-0.18,-0.07,0.20,0.48,0.51,
0.85,-2.44,-0.18,-0.07,0.22,0.53,0.58,
0.85,-2.44,-0.18,-0.07,0.22,0.55,0.61,
0.852,-2.44,-0.18,-0.07,0.23,0.57,0.65,
0.873,-1.78,0.11,-0.08,0.23,0.57,0.65,
0.873,-1.78,0.11,-0.08,0.23,0.58,0.68,
0.873,-1.78,0.11,-0.08,0.23,0.59,0.70,
0.874,-1.78,0.11,-0.08,0.23,0.59,0.71,
0.874,-1.78,0.11,-0.08,0.23,0.59,0.71,
0.874,-1.78,0.11,-0.08,0.22,0.58,0.71,
0.874,-0.82,0.44,-0.23,0.22,0.58,0.71,
0.875,-0.82,0.44,-0.23,0.21,0.57,0.70,
0.875,-0.82,0.44,-0.23,0.21,0.57,0.68,
0.875,-0.82,0.44,-0.23,0.20,0.56,0.65,
0.875,-0.82,0.44,-0.23,0.19,0.57,0.63,
0.875,-0.82,0.44,-0.23,0.19,0.58,0.60,
0.876,-0.21,0.77,-0.07,0.19,0.58,0.60,
0.876,-0.21,0.77,-0.07,0.19,0.59,0.57,
0.877,-0.21,0.77,-0.07,0.18,0.61,0.54,
0.879,-0.21,0.77,-0.07,0.17,0.63,0.49,
0.88,-0.21,0.77,-0.07,0.17,0.64,0.47,
0.884,-0.21,0.77,-0.07,0.16,0.66,0.43,
0.885,0.23,1.06,0.13,0.16,0.66,0.43,
0.885,0.23,1.06,0.13,0.14,0.66,0.39,
0.886,0.23,1.06,0.13,0.12,0.67,0.35,
0.89,0.23,1.06,0.13,0.09,0.65,0.30,
0.891,0.23,1.06,0.13,0.07,0.64,0.28,
0.892,0.23,1.06,0.13,0.05,0.61,0.24,
0.895,0.66,1.19,0.24,0.05,0.61,0.24,
0.895,0.66,1.19,0.24,0.02,0.57,0.20,
0.897,0.66,1.19,0.24,-0.01,0.53,0.17,
0.901,0.66,1.19,0.24,-0.05,0.46,0.11,
0.901,0.66,1.19,0.24,-0.06,0.44,0.09,
0.902,0.66,1.19,0.24,-0.08,0.40,0.06,
0.904,0.71,0.99,0.94,-0.08,0.40,0.06,
0.906,0.71,0.99,0.94,-0.11,0.37,0.02,
0.906,0.71,0.99,0.94,-0.12,0.34,-0.01,
0.91,0.71,0.99,0.94,-0.15,0.30,-0.07,
0.914,0.71,0.99,0.94,-0.15,0.30,-0.09,
0.915,0.71,0.99,0.94,-0.16,0.28,-0.12,
0.915,0.65,0.60,1.95,-0.16,0.28,-0.12,
0.916,0.65,0.60,1.95,-0.17,0.28,-0.16,
0.916,0.65,0.60,1.95,-0.18,0.27,-0.19,
0.919,0.65,0.60,1.95,-0.18,0.27,-0.23,
0.92,0.65,0.60,1.95,-0.18,0.27,-0.25,
0.922,0.65,0.60,1.95,-0.18,0.27,-0.27,
0.926,0.29,0.32,2.96,-0.18,0.27,-0.27,
0.926,0.29,0.32,2.96,-0.18,0.27,-0.29,
0.927,0.29,0.32,2.96,-0.17,0.27,-0.31,
0.929,0.29,0.32,2.96,-0.16,0.28,-0.33,
0.93,0.29,0.32,2.96,-0.15,0.28,-0.34,
0.932,0.29,0.32,2.96,-0.14,0.29,-0.34,
0.935,-0.23,0.11,3.79,-0.14,0.29,-0.34,
0.935,-0.23,0.11,3.79,-0.13,0.31,-0.34,
0.937,-0.23,0.11,3.79,-0.11,0.34,-0.34,
0.951,-0.23,0.11,3.79,-0.07,0.39,-0.32,
0.951,-0.23,0.11,3.79,-0.06,0.40,-0.32,
0.951,-0.23,0.11,3.79,-0.03,0.44,-0.30,
0.952,-0.81,0.00,4.60,-0.03,0.44,-0.30,
0.952,-0.81,0.00,4.60,0.00,0.47,-0.29,
0.952,-0.81,0.00,4.60,0.03,0.50,-0.27,
0.952,-0.81,0.00,4.60,0.08,0.54,-0.24,
0.952,-0.81,0.00,4.60,0.09,0.54,-0.23,
0.953,-0.81,0.00,4.60,0.12,0.55,-0.21,
0.974,-1.13,0.04,4.81,0.12,0.55,-0.21,
0.994,-1.13,0.04,4.81,0.15,0.56,-0.19,
0.994,-1.13,0.04,4.81,0.17,0.56,-0.16,
0.994,-1.13,0.04,4.81,0.20,0.54,-0.13,
0.995,-1.13,0.04,4.81,0.21,0.53,-0.12,
0.995,-1.13,0.04,4.81,0.23,0.52,-0.10,
0.995,-1.13,0.22,4.38,0.23,0.52,-0.10,
0.995,-1.13,0.22,4.38,0.24,0.49,-0.09,
0.996,-1.13,0.22,4.38,0.25,0.47,-0.07,
0.996,-1.13,0.22,4.38,0.25,0.44,-0.05,
0.996,-1.13,0.22,4.38,0.26,0.43,-0.04,
0.997,-1.13,0.22,4.38,0.26,0.41,-0.03,
0.997,-0.99,0.46,3.62,0.26,0.41,-0.03,
0.997,-0.99,0.46,3.62,0.26,0.39,-0.02,
0.997,-0.99,0.46,3.62,0.25,0.37,-0.01,
0.997,-0.99,0.46,3.62,0.24,0.34,-0.01,
0.998,-0.99,0.46,3.62,0.23,0.33,-0.01,
0.998,-0.63,0.76,2.87,0.23,0.33,-0.01,
0.998,-0.63,0.76,2.87,0.20,0.27,-0.01,
0.998,-0.63,0.76,2.87,0.20,0.27,-0.01,
0.998,-0.63,0.76,2.87,0.18,0.24,-0.01,
0.999,-0.63,0.76,2.87,0.15,0.20,-0.03,
0.999,-0.63,0.76,2.87,0.14,0.18,-0.03,
0.999,-0.63,0.76,2.87,0.12,0.15,-0.05,
0.999,-0.25,0.96,2.40,0.12,0.15,-0.05,
0.999,-0.25,0.96,2.40,0.10,0.12,-0.06,
1.0,-0.25,0.96,2.40,0.07,0.10,-0.08,
1.0,-0.25,0.96,2.40,0.04,0.06,-0.10,
1.004,-0.25,0.96,2.40,0.04,0.05,-0.11,
1.004,-0.25,0.96,2.40,0.02,0.04,-0.13,
1.006,-0.19,0.97,2.47,0.02,0.04,-0.13,
1.006,-0.19,0.97,2.47,0.00,0.02,-0.14,
1.007,-0.19,0.97,2.47,-0.01,0.01,-0.16,
1.009,-0.19,0.97,2.47,-0.02,-0.01,-0.18,
1.013,-0.19,0.97,2.47,-0.02,-0.03,-0.20,
1.014,-0.19,0.97,2.47,-0.02,-0.04,-0.21,
1.015,-0.29,0.73,3.04,-0.02,-0.04,-0.21,
1.015,-0.29,0.73,3.04,-0.02,-0.04,-0.22,
1.017,-0.29,0.73,3.04,-0.01,-0.05,-0.23,
1.019,-0.29,0.73,3.04,0.00,-0.07,-0.25,
1.022,-0.29,0.73,3.04,0.01,-0.08,-0.26,
1.022,-0.29,0.73,3.04,0.03,-0.09,-0.27,
1.026,-0.46,0.35,3.70,0.03,-0.09,-0.27,
1.026,-0.46,0.35,3.70,0.04,-0.11,-0.28,
1.026,-0.46,0.35,3.70,0.07,-0.12,-0.28,
1.029,-0.46,0.35,3.70,0.11,-0.14,-0.30,
1.031,-0.46,0.35,3.70,0.13,-0.15,-0.30,
1.032,-0.46,0.35,3.70,0.16,-0.15,-0.30,
1.034,-0.65,-0.22,4.36,0.16,-0.15,-0.30,
1.034,-0.65,-0.22,4.36,0.20,-0.16,-0.31,
1.038,-0.65,-0.22,4.36,0.25,-0.16,-0.31,
1.044,-0.65,-0.22,4.36,0.31,-0.16,-0.31,
1.044,-0.65,-0.22,4.36,0.33,-0.15,-0.31,
1.044,-0.65,-0.22,4.36,0.38,-0.15,-0.30,
1.045,-0.89,-0.56,4.73,0.38,-0.15,-0.30,
1.045,-0.89,-0.56,4.73,0.43,-0.13,-0.30,
1.046,-0.89,-0.56,4.73,0.48,-0.11,-0.29,
1.049,-0.89,-0.56,4.73,0.55,-0.08,-0.27,
1.05,-0.89,-0.56,4.73,0.57,-0.07,-0.26,
1.052,-0.89,-0.56,4.73,0.62,-0.04,-0.24,
1.054,-1.28,-0.86,4.56,0.62,-0.04,-0.24,
1.055,-1.28,-0.86,4.56,0.66,-0.01,-0.23,
1.056,-1.28,-0.86,4.56,0.70,0.02,-0.21,
1.059,-1.28,-0.86,4.56,0.74,0.06,-0.17,
1.06,-1.28,-0.86,4.56,0.76,0.08,-0.16,
1.062,-1.28,-0.86,4.56,0.78,0.10,-0.13,
1.064,-1.62,-1.03,3.68,0.78,0.10,-0.13,
1.064,-1.62,-1.03,3.68,0.80,0.13,-0.11,
1.066,-1.62,-1.03,3.68,0.82,0.15,-0.09,
1.069,-1.62,-1.03,3.68,0.83,0.18,-0.04,
1.071,-1.62,-1.03,3.68,0.83,0.19,-0.03,
1.072,-1.62,-1.03,3.68,0.84,0.20,-0.00,
1.074,-1.93,-1.20,2.54,0.84,0.20,-0.00,
1.074,-1.93,-1.20,2.54,0.83,0.20,0.02,
1.078,-1.93,-1.20,2.54,0.83,0.21,0.05,
1.08,-1.93,-1.20,2.54,0.81,0.20,0.09,
1.081,-1.93,-1.20,2.54,0.80,0.20,0.10,
1.082,-1.93,-1.20,2.54,0.79,0.19,0.13,
1.089,-2.03,-1.18,1.65,0.79,0.19,0.13,
1.09,-2.03,-1.18,1.65,0.78,0.19,0.15,
1.09,-2.03,-1.18,1.65,0.76,0.18,0.18,
1.091,-2.03,-1.18,1.65,0.74,0.16,0.20,
1.091,-2.03,-1.18,1.65,0.73,0.16,0.22,
1.094,-2.03,-1.18,1.65,0.71,0.15,0.23,
1.094,-2.00,-1.13,1.23,0.71,0.15,0.23,
1.095,-2.00,-1.13,1.23,0.69,0.13,0.25,
1.099,-2.00,-1.13,1.23,0.68,0.12,0.26,
1.099,-2.00,-1.13,1.23,0.65,0.09,0.28,
1.1,-2.00,-1.13,1.23,0.65,0.08,0.28,
1.102,-2.00,-1.13,1.23,0.63,0.06,0.28,
1.104,-1.74,-1.12,1.18,0.63,0.06,0.28,
1.105,-1.74,-1.12,1.18,0.62,0.04,0.29,
1.107,-1.74,-1.12,1.18,0.61,0.01,0.29,
1.11,-1.74,-1.12,1.18,0.60,-0.03,0.30,
1.11,-1.74,-1.12,1.18,0.59,-0.04,0.30,
1.112,-1.74,-1.12,1.18,0.59,-0.07,0.30,
1.115,-1.48,-1.26,1.57,0.59,-0.07,0.30,
1.115,-1.48,-1.26,1.57,0.58,-0.10,0.30,
1.116,-1.48,-1.26,1.57,0.59,-0.14,0.30,
1.119,-1.48,-1.26,1.57,0.59,-0.18,0.30,
1.121,-1.48,-1.26,1.57,0.60,-0.20,0.30,
1.137,-1.48,-1.26,1.57,0.61,-0.23,0.30,
1.137,-1.27,-1.47,2.09,0.61,-0.23,0.30,
1.138,-1.27,-1.47,2.09,0.62,-0.26,0.30,
1.138,-1.27,-1.47,2.09,0.63,-0.30,0.31,
1.138,-1.27,-1.47,2.09,0.65,-0.35,0.31,
1.138,-1.27,-1.47,2.09,0.66,-0.36,0.32,
1.139,-1.27,-1.47,2.09,0.68,-0.40,0.32,
1.139,-1.15,-1.75,2.57,0.68,-0.40,0.32,
1.139,-1.15,-1.75,2.57,0.70,-0.44,0.33,
1.14,-1.15,-1.75,2.57,0.72,-0.48,0.34,
1.14,-1.15,-1.75,2.57,0.75,-0.54,0.36,
1.14,-1.15,-1.75,2.57,0.76,-0.56,0.36,
1.142,-1.15,-1.75,2.57,0.79,-0.59,0.37,
1.144,-1.08,-1.94,2.81,0.79,-0.59,0.37,
1.144,-1.08,-1.94,2.81,0.81,-0.63,0.39,
1.146,-1.08,-1.94,2.81,0.84,-0.66,0.40,
1.149,-1.08,-1.94,2.81,0.89,-0.70,0.43,
1.15,-1.08,-1.94,2.81,0.90,-0.72,0.44,
1.152,-1.08,-1.94,2.81,0.93,-0.74,0.46,
1.155,-1.03,-2.11,2.97,0.93,-0.74,0.46,
1.155,-1.03,-2.11,2.97,0.97,-0.76,0.47,
1.156,-1.03,-2.11,2.97,1.00,-0.77,0.49,
1.159,-1.03,-2.11,2.97,1.05,-0.80,0.52,
1.16,-1.03,-2.11,2.97,1.07,-0.80,0.53,
1.162,-1.03,-2.11,2.97,1.10,-0.81,0.54,
1.164,-0.87,-2.11,2.86,1.10,-0.81,0.54,
1.164,-0.87,-2.11,2.86,1.13,-0.82,0.56,
1.166,-0.87,-2.11,2.86,1.17,-0.83,0.58,
1.169,-0.87,-2.11,2.86,1.21,-0.84,0.61,
1.171,-0.87,-2.11,2.86,1.23,-0.84,0.62,
1.173,-0.87,-2.11,2.86,1.25,-0.84,0.63,
1.175,-0.62,-2.12,2.46,1.25,-0.84,0.63,
1.175,-0.62,-2.12,2.46,1.28,-0.85,0.65,
1.176,-0.62,-2.12,2.46,1.30,-0.85,0.66,
1.179,-0.62,-2.12,2.46,1.34,-0.84,0.69,
1.18,-0.62,-2.12,2.46,1.34,-0.84,0.69,
1.182,-0.62,-2.12,2.46,1.36,-0.84,0.71,
1.184,-0.38,-1.95,1.91,1.36,-0.84,0.71,
1.185,-0.38,-1.95,1.91,1.38,-0.84,0.72,
1.186,-0.38,-1.95,1.91,1.39,-0.83,0.74,
1.189,-0.38,-1.95,1.91,1.41,-0.82,0.76,
1.191,-0.38,-1.95,1.91,1.42,-0.82,0.77,
1.192,-0.38,-1.95,1.91,1.43,-0.81,0.78,
1.194,-0.06,-1.83,1.23,1.43,-0.81,0.78,
1.194,-0.06,-1.83,1.23,1.43,-0.81,0.79,
1.196,-0.06,-1.83,1.23,1.44,-0.81,0.80,
1.199,-0.06,-1.83,1.23,1.44,-0.80,0.81,
1.201,-0.06,-1.83,1.23,1.44,-0.79,0.82,
1.202,-0.06,-1.83,1.23,1.44,-0.79,0.82,
1.208,0.17,-1.58,0.49,1.44,-0.79,0.82,
1.208,0.17,-1.58,0.49,1.43,-0.77,0.83,
1.208,0.17,-1.58,0.49,1.43,-0.76,0.83,
1.209,0.17,-1.58,0.49,1.42,-0.73,0.83,
1.21,0.17,-1.58,0.49,1.42,-0.72,0.83,
1.212,0.17,-1.58,0.49,1.41,-0.70,0.83,
1.215,0.38,-1.49,-0.19,1.41,-0.70,0.83,
1.215,0.38,-1.49,-0.19,1.40,-0.68,0.83,
1.216,0.38,-1.49,-0.19,1.39,-0.66,0.83,
1.219,0.38,-1.49,-0.19,1.37,-0.62,0.83,
1.229,0.38,-1.49,-0.19,1.36,-0.61,0.83,
1.229,0.38,-1.49,-0.19,1.35,-0.59,0.82,
1.23,0.51,-1.39,-0.86,1.35,-0.59,0.82,
1.23,0.51,-1.39,-0.86,1.33,-0.57,0.81,
1.23,0.51,-1.39,-0.86,1.31,-0.54,0.81,
1.23,0.51,-1.39,-0.86,1.29,-0.50,0.80,
1.23,0.51,-1.39,-0.86,1.28,-0.49,0.80,
1.232,0.51,-1.39,-0.86,1.26,-0.46,0.79,
1.234,0.59,-1.36,-1.50,1.26,-0.46,0.79,
1.235,0.59,-1.36,-1.50,1.23,-0.43,0.78,
1.242,0.59,-1.36,-1.50,1.21,-0.40,0.78,
1.243,0.59,-1.36,-1.50,1.18,-0.35,0.78,
1.243,0.59,-1.36,-1.50,1.16,-0.33,0.78,
1.243,0.59,-1.36,-1.50,1.14,-0.30,0.77,
1.244,0.52,-1.36,-2.07,1.14,-0.30,0.77,
1.244,0.52,-1.36,-2.07,1.11,-0.26,0.77,
1.246,0.52,-1.36,-2.07,1.09,-0.21,0.77,
1.251,0.52,-1.36,-2.07,1.05,-0.14,0.78,
1.253,0.52,-1.36,-2.07,1.04,-0.12,0.77,
1.254,0.52,-1.36,-2.07,1.02,-0.07,0.77,
1.255,0.50,-1.36,-2.50,1.02,-0.07,0.77,
1.256,0.50,-1.36,-2.50,0.99,-0.02,0.77,
1.256,0.50,-1.36,-2.50,0.97,0.03,0.77,
1.259,0.50,-1.36,-2.50,0.94,0.10,0.78,
1.261,0.50,-1.36,-2.50,0.92,0.15,0.78,
1.262,0.50,-1.36,-2.50,0.90,0.17,0.78,
1.266,0.47,-1.36,-2.92,0.90,0.17,0.78,
1.266,0.47,-1.36,-2.92,0.88,0.22,0.77,
1.266,0.47,-1.36,-2.92,0.86,0.26,0.77,
1.27,0.47,-1.36,-2.92,0.82,0.32,0.77,
1.271,0.47,-1.36,-2.92,0.81,0.34,0.77,
1.272,0.47,-1.36,-2.92,0.78,0.37,0.77,
1.274,0.49,-1.42,-3.28,0.78,0.37,0.77,
1.275,0.49,-1.42,-3.28,0.76,0.41,0.77,
1.276,0.49,-1.42,-3.28,0.73,0.44,0.77,
1.28,0.49,-1.42,-3.28,0.70,0.49,0.77,
1.28,0.49,-1.42,-3.28,0.69,0.51,0.77,
1.282,0.49,-1.42,-3.28,0.66,0.54,0.77,
1.284,0.37,-1.46,-3.55,0.66,0.54,0.77,
1.284,0.37,-1.46,-3.55,0.64,0.57,0.77,
1.287,0.37,-1.46,-3.55,0.62,0.61,0.77,
1.307,0.37,-1.46,-3.55,0.59,0.65,0.77,
1.307,0.37,-1.46,-3.55,0.57,0.67,0.77,
1.307,0.37,-1.46,-3.55,0.55,0.70,0.78,
1.308,0.25,-1.43,-3.65,0.55,0.70,0.78,
1.308,0.25,-1.43,-3.65,0.53,0.73,0.78,
1.308,0.25,-1.43,-3.65,0.52,0.76,0.78,
1.308,0.25,-1.43,-3.65,0.49,0.79,0.78,
1.309,0.25,-1.43,-3.65,0.48,0.80,0.78,
1.309,0.25,-1.43,-3.65,0.46,0.83,0.78,
1.309,0.13,-1.43,-3.75,0.46,0.83,0.78,
1.309,0.13,-1.43,-3.75,0.44,0.84,0.79,
1.31,0.13,-1.43,-3.75,0.42,0.85,0.79,
1.31,0.13,-1.43,-3.75,0.40,0.87,0.79,
1.31,0.13,-1.43,-3.75,0.39,0.87,0.79,
1.313,0.13,-1.43,-3.75,0.37,0.87,0.79,
1.314,0.11,-1.37,-3.78,0.37,0.87,0.79,
1.314,0.11,-1.37,-3.78,0.35,0.87,0.79,
1.316,0.11,-1.37,-3.78,0.33,0.86,0.79,
1.319,0.11,-1.37,-3.78,0.31,0.84,0.79,
1.321,0.11,-1.37,-3.78,0.30,0.84,0.78,
1.322,0.11,-1.37,-3.78,0.29,0.82,0.78,
1.326,0.13,-1.33,-3.70,0.29,0.82,0.78,
1.326,0.13,-1.33,-3.70,0.27,0.80,0.78,
1.326,0.13,-1.33,-3.70,0.25,0.79,0.77,
1.329,0.13,-1.33,-3.70,0.23,0.76,0.77,
1.33,0.13,-1.33,-3.70,0.23,0.75,0.76,
1.332,0.13,-1.33,-3.70,0.22,0.74,0.76,
1.334,0.10,-1.31,-3.56,0.22,0.74,0.76,
1.334,0.10,-1.31,-3.56,0.21,0.72,0.75,
1.337,0.10,-1.31,-3.56,0.20,0.71,0.75,
1.339,0.10,-1.31,-3.56,0.19,0.69,0.74,
1.341,0.10,-1.31,-3.56,0.19,0.68,0.74,
1.342,0.10,-1.31,-3.56,0.18,0.67,0.74,
1.344,0.06,-1.29,-3.35,0.18,0.67,0.74,
1.344,0.06,-1.29,-3.35,0.18,0.65,0.73,
1.346,0.06,-1.29,-3.35,0.18,0.63,0.73,
1.349,0.06,-1.29,-3.35,0.18,0.60,0.72,
1.35,0.06,-1.29,-3.35,0.18,0.59,0.71,
1.352,0.06,-1.29,-3.35,0.18,0.57,0.71,
1.358,0.06,-1.27,-3.05,0.18,0.57,0.71,
1.358,0.06,-1.27,-3.05,0.18,0.55,0.70,
1.359,0.06,-1.27,-3.05,0.18,0.52,0.70,
1.359,0.06,-1.27,-3.05,0.18,0.48,0.69,
1.362,0.06,-1.27,-3.05,0.18,0.43,0.67,
1.363,0.06,-1.27,-3.05,0.18,0.41,0.67,
1.364,0.20,-1.20,-2.73,0.18,0.41,0.67,
1.381,0.20,-1.20,-2.73,0.18,0.40,0.66,
1.382,0.20,-1.20,-2.73,0.19,0.36,0.65,
1.382,0.20,-1.20,-2.73,0.19,0.32,0.63,
1.382,0.20,-1.20,-2.73,0.20,0.29,0.62,
1.382,0.20,-1.20,-2.73,0.20,0.27,0.61,
1.383,0.28,-1.12,-2.48,0.20,0.27,0.61,
1.383,0.28,-1.12,-2.48,0.20,0.24,0.60,
1.383,0.28,-1.12,-2.48,0.21,0.22,0.58,
1.383,0.28,-1.12,-2.48,0.21,0.18,0.56,
1.383,0.28,-1.12,-2.48,0.22,0.16,0.55,
1.384,0.28,-1.12,-2.48,0.22,0.15,0.54,
1.386,0.32,-1.04,-2.35,0.22,0.15,0.54,
1.386,0.32,-1.04,-2.35,0.22,0.13,0.52,
1.386,0.32,-1.04,-2.35,0.22,0.12,0.51,
1.398,0.32,-1.04,-2.35,0.23,0.09,0.48,
1.398,0.32,-1.04,-2.35,0.22,0.08,0.47,
1.399,0.32,-1.04,-2.35,0.22,0.07,0.46,
1.399,0.45,-0.94,-2.26,0.22,0.07,0.46,
1.399,0.45,-0.94,-2.26,0.22,0.06,0.45,
1.399,0.45,-0.94,-2.26,0.22,0.05,0.43,
1.4,0.45,-0.94,-2.26,0.21,0.03,0.41,
1.401,0.45,-0.94,-2.26,0.21,0.02,0.39,
1.405,0.45,-0.94,-2.26,0.20,0.02,0.38,
1.408,0.53,-0.85,-2.19,0.20,0.02,0.38,
1.408,0.53,-0.85,-2.19,0.20,0.01,0.37,
1.408,0.53,-0.85,-2.19,0.19,0.01,0.35,
1.409,0.53,-0.85,-2.19,0.18,0.01,0.33,
1.411,0.53,-0.85,-2.19,0.18,0.01,0.31,
1.413,0.53,-0.85,-2.19,0.17,0.01,0.31,
1.414,0.66,-0.81,-2.01,0.17,0.01,0.31,
1.414,0.66,-0.81,-2.01,0.16,0.01,0.29,
1.416,0.66,-0.81,-2.01,0.16,0.02,0.27,
1.422,0.66,-0.81,-2.01,0.15,0.02,0.25,
1.423,0.66,-0.81,-2.01,0.14,0.03,0.23,
1.423,0.66,-0.81,-2.01,0.14,0.03,0.22,
1.424,0.83,-0.79,-1.71,0.14,0.03,0.22,
1.424,0.83,-0.79,-1.71,0.13,0.03,0.20,
1.426,0.83,-0.79,-1.71,0.12,0.04,0.18,
1.429,0.83,-0.79,-1.71,0.11,0.05,0.15,
1.43,0.83,-0.79,-1.71,0.11,0.05,0.13,
1.432,0.83,-0.79,-1.71,0.10,0.05,0.12,
1.434,0.93,-0.76,-1.34,0.10,0.05,0.12,
1.435,0.93,-0.76,-1.34,0.10,0.06,0.10,
1.436,0.93,-0.76,-1.34,0.09,0.06,0.08,
1.441,0.93,-0.76,-1.34,0.09,0.07,0.04,
1.441,0.93,-0.76,-1.34,0.09,0.09,0.02,
1.447,0.93,-0.76,-1.34,0.09,0.09,0.01,
1.448,0.79,-0.72,-0.84,0.09,0.09,0.01,
1.448,0.79,-0.72,-0.84,0.10,0.11,-0.01,
1.448,0.79,-0.72,-0.84,0.10,0.13,-0.03,
1.449,0.79,-0.72,-0.84,0.11,0.15,-0.05,
1.451,0.79,-0.72,-0.84,0.12,0.16,-0.06,
1.453,0.79,-0.72,-0.84,0.13,0.17,-0.06,
1.456,0.43,-0.63,-0.37,0.13,0.17,-0.06,
1.474,0.43,-0.63,-0.37,0.13,0.18,-0.07,
1.475,0.43,-0.63,-0.37,0.14,0.19,-0.08,
1.475,0.43,-0.63,-0.37,0.14,0.20,-0.09,
1.475,0.43,-0.63,-0.37,0.14,0.19,-0.09,
1.476,0.43,-0.63,-0.37,0.14,0.19,-0.09,
1.476,0.16,-0.65,-0.42,0.14,0.19,-0.09,
1.476,0.16,-0.65,-0.42,0.14,0.17,-0.09,
1.477,0.16,-0.65,-0.42,0.13,0.15,-0.10,
1.477,0.16,-0.65,-0.42,0.11,0.11,-0.10,
1.477,0.16,-0.65,-0.42,0.09,0.08,-0.11,
1.477,0.16,-0.65,-0.42,0.08,0.06,-0.11,
1.478,0.20,-0.75,-0.79,0.08,0.06,-0.11,
1.478,0.20,-0.75,-0.79,0.05,0.02,-0.11,
1.478,0.20,-0.75,-0.79,0.02,-0.01,-0.12,
1.483,0.20,-0.75,-0.79,-0.02,-0.07,-0.13,
1.484,0.20,-0.75,-0.79,-0.05,-0.12,-0.14,
1.484,0.20,-0.75,-0.79,-0.07,-0.14,-0.14,
1.493,0.20,-0.75,-0.79,-0.14,-0.23,-0.16,
1.493,0.20,-0.75,-0.79,-0.14,-0.23,-0.16,
1.493,0.28,-0.65,-1.06,-0.14,-0.23,-0.16,
1.493,0.28,-0.65,-1.06,-0.21,-0.31,-0.18,
1.494,0.28,-0.65,-1.06,-0.23,-0.33,-0.19,
1.494,0.28,-0.65,-1.06,-0.25,-0.35,-0.19,
1.496,0.38,-0.60,-0.88,-0.25,-0.35,-0.19,
1.496,0.38,-0.60,-0.88,-0.28,-0.39,-0.20,
1.497,0.38,-0.60,-0.88,-0.31,-0.43,-0.21,
1.524,0.38,-0.60,-0.88,-0.36,-0.48,-0.23,
1.525,0.38,-0.60,-0.88,-0.39,-0.51,-0.24,
1.525,0.38,-0.60,-0.88,-0.40,-0.52,-0.24,
1.525,0.60,-0.52,-0.28,-0.40,-0.52,-0.24,
1.525,0.60,-0.52,-0.28,-0.43,-0.54,-0.25,
1.526,0.60,-0.52,-0.28,-0.45,-0.56,-0.27,
1.526,0.60,-0.52,-0.28,-0.48,-0.59,-0.29,
1.526,0.60,-0.52,-0.28,-0.50,-0.59,-0.30,
1.526,0.60,-0.52,-0.28,-0.51,-0.59,-0.30,
1.526,1.01,-0.53,0.71,-0.51,-0.59,-0.30,
1.526,1.01,-0.53,0.71,-0.52,-0.59,-0.31,
1.526,1.01,-0.53,0.71,-0.54,-0.58,-0.32,
1.527,1.01,-0.53,0.71,-0.55,-0.54,-0.33,
1.527,1.01,-0.53,0.71,-0.56,-0.51,-0.34,
1.527,1.01,-0.53,0.71,-0.57,-0.49,-0.34,
1.527,1.33,-0.48,1.44,-0.57,-0.49,-0.34,
1.527,1.33,-0.48,1.44,-0.58,-0.45,-0.35,
1.529,1.33,-0.48,1.44,-0.59,-0.38,-0.36,
1.529,1.33,-0.48,1.44,-0.60,-0.33,-0.37,
1.53,1.33,-0.48,1.44,-0.62,-0.27,-0.37,
1.532,1.33,-0.48,1.44,-0.62,-0.24,-0.37,
1.535,1.58,-0.52,1.82,-0.62,-0.24,-0.37,
1.536,1.58,-0.52,1.82,-0.64,-0.18,-0.38,
1.536,1.58,-0.52,1.82,-0.65,-0.11,-0.38,
1.539,1.58,-0.52,1.82,-0.68,-0.00,-0.38,
1.541,1.58,-0.52,1.82,-0.70,0.07,-0.38,
1.542,1.58,-0.52,1.82,-0.71,0.11,-0.38,
1.545,1.50,-0.45,2.00,-0.71,0.11,-0.38,
1.545,1.50,-0.45,2.00,-0.73,0.19,-0.39,
1.546,1.50,-0.45,2.00,-0.75,0.27,-0.38,
1.55,1.50,-0.45,2.00,-0.78,0.40,-0.38,
1.55,1.50,-0.45,2.00,-0.81,0.49,-0.38,
1.557,1.50,-0.45,2.00,-0.83,0.53,-0.38,
1.559,1.38,-0.31,1.89,-0.83,0.53,-0.38,
1.56,1.38,-0.31,1.89,-0.86,0.62,-0.37,
1.561,1.38,-0.31,1.89,-0.89,0.71,-0.37,
1.562,1.38,-0.31,1.89,-0.95,0.83,-0.37,
1.563,1.38,-0.31,1.89,-0.99,0.90,-0.37,
1.563,1.38,-0.31,1.89,-1.01,0.94,-0.37,
1.565,1.26,-0.16,1.45,-1.01,0.94,-0.37,
1.565,1.26,-0.16,1.45,-1.05,1.00,-0.37,
1.567,1.26,-0.16,1.45,-1.10,1.07,-0.37,
1.569,1.26,-0.16,1.45,-1.18,1.15,-0.37,
1.57,1.26,-0.16,1.45,-1.23,1.20,-0.38,
1.572,1.26,-0.16,1.45,-1.28,1.25,-0.38,
1.574,1.34,0.08,1.24,-1.28,1.25,-0.38,
1.574,1.34,0.08,1.24,-1.34,1.28,-0.39,
1.576,1.34,0.08,1.24,-1.39,1.32,-0.40,
1.579,1.34,0.08,1.24,-1.44,1.34,-0.41,
1.58,1.34,0.08,1.24,-1.49,1.36,-0.43,
1.582,1.34,0.08,1.24,-1.55,1.37,-0.45,
1.584,1.60,0.21,1.26,-1.55,1.37,-0.45,
1.584,1.60,0.21,1.26,-1.60,1.37,-0.48,
1.586,1.60,0.21,1.26,-1.65,1.36,-0.51,
1.589,1.60,0.21,1.26,-1.70,1.35,-0.54,
1.591,1.60,0.21,1.26,-1.74,1.33,-0.57,
1.592,1.60,0.21,1.26,-1.78,1.31,-0.61,
1.596,1.88,0.12,1.86,-1.78,1.31,-0.61,
1.597,1.88,0.12,1.86,-1.82,1.29,-0.65,
1.598,1.88,0.12,1.86,-1.84,1.26,-0.69,
1.6,1.88,0.12,1.86,-1.87,1.21,-0.75,
1.602,1.88,0.12,1.86,-1.87,1.20,-0.77,
1.602,1.88,0.12,1.86,-1.88,1.17,-0.80,
1.605,1.72,0.03,3.06,-1.88,1.17,-0.80,
1.605,1.72,0.03,3.06,-1.88,1.13,-0.83,
1.606,1.72,0.03,3.06,-1.87,1.10,-0.86,
1.609,1.72,0.03,3.06,-1.85,1.06,-0.89,
1.611,1.72,0.03,3.06,-1.83,1.03,-0.91,
1.612,1.72,0.03,3.06,-1.79,0.99,-0.93,
1.614,1.29,-0.23,4.53,-1.79,0.99,-0.93,
1.615,1.29,-0.23,4.53,-1.75,0.96,-0.94,
1.616,1.29,-0.23,4.53,-1.71,0.93,-0.95,
1.619,1.29,-0.23,4.53,-1.66,0.91,-0.95,
1.62,1.29,-0.23,4.53,-1.60,0.88,-0.96,
1.636,1.29,-0.23,4.53,-1.54,0.86,-0.95,
1.637,0.75,-0.49,5.63,-1.54,0.86,-0.95,
1.637,0.75,-0.49,5.63,-1.47,0.84,-0.94,
1.637,0.75,-0.49,5.63,-1.40,0.83,-0.93,
1.637,0.75,-0.49,5.63,-1.34,0.81,-0.92,
1.637,0.75,-0.49,5.63,-1.26,0.80,-0.91,
1.638,0.75,-0.49,5.63,-1.19,0.78,-0.89,
1.638,0.37,-0.85,6.13,-1.19,0.78,-0.89,
1.638,0.37,-0.85,6.13,-1.11,0.77,-0.87,
1.639,0.37,-0.85,6.13,-1.03,0.77,-0.85,
1.648,0.37,-0.85,6.13,-0.95,0.76,-0.82,
1.648,0.37,-0.85,6.13,-0.87,0.75,-0.80,
1.648,0.37,-0.85,6.13,-0.79,0.75,-0.77,
1.648,0.13,-0.99,6.04,-0.79,0.75,-0.77,
1.649,0.13,-0.99,6.04,-0.71,0.74,-0.74,
1.649,0.13,-0.99,6.04,-0.64,0.74,-0.71,
1.664,0.13,-0.99,6.04,-0.56,0.73,-0.68,
1.664,0.13,-0.99,6.04,-0.49,0.72,-0.64,
1.664,0.13,-0.99,6.04,-0.41,0.72,-0.61,
1.664,-0.09,-0.98,5.34,-0.41,0.72,-0.61,
1.665,-0.09,-0.98,5.34,-0.34,0.71,-0.58,
1.665,-0.09,-0.98,5.34,-0.28,0.70,-0.54,
1.665,-0.09,-0.98,5.34,-0.21,0.68,-0.51,
1.665,-0.09,-0.98,5.34,-0.15,0.67,-0.47,
1.665,-0.09,-0.98,5.34,-0.09,0.65,-0.44,
1.665,-0.25,-0.63,4.39,-0.09,0.65,-0.44,
1.666,-0.25,-0.63,4.39,-0.03,0.63,-0.41,
1.666,-0.25,-0.63,4.39,0.02,0.60,-0.37,
1.669,-0.25,-0.63,4.39,0.07,0.57,-0.34,
1.67,-0.25,-0.63,4.39,0.12,0.53,-0.32,
1.672,-0.25,-0.63,4.39,0.17,0.48,-0.29,
1.674,0.16,-0.67,3.44,0.17,0.48,-0.29,
1.674,0.16,-0.67,3.44,0.21,0.44,-0.28,
1.676,0.16,-0.67,3.44,0.25,0.40,-0.26,
1.679,0.16,-0.67,3.44,0.29,0.35,-0.25,
1.68,0.16,-0.67,3.44,0.32,0.30,-0.23,
1.682,0.16,-0.67,3.44,0.35,0.26,-0.22,
1.684,0.51,-0.64,2.47,0.35,0.26,-0.22,
1.684,0.51,-0.64,2.47,0.38,0.21,-0.21,
1.686,0.51,-0.64,2.47,0.41,0.16,-0.20,
1.689,0.51,-0.64,2.47,0.43,0.10,-0.20,
1.69,0.51,-0.64,2.47,0.45,0.05,-0.19,
1.692,0.51,-0.64,2.47,0.47,0.00,-0.19,
1.694,0.76,-0.56,1.63,0.47,0.00,-0.19,
1.694,0.76,-0.56,1.63,0.48,-0.05,-0.18,
1.696,0.76,-0.56,1.63,0.50,-0.10,-0.18,
1.699,0.76,-0.56,1.63,0.51,-0.15,-0.17,
1.7,0.76,-0.56,1.63,0.52,-0.19,-0.17,
1.702,0.76,-0.56,1.63,0.52,-0.24,-0.17,
1.704,0.93,-0.40,1.04,0.52,-0.24,-0.17,
1.704,0.93,-0.40,1.04,0.53,-0.28,-0.17,
1.706,0.93,-0.40,1.04,0.53,-0.32,-0.17,
1.709,0.93,-0.40,1.04,0.53,-0.36,-0.17,
1.712,0.93,-0.40,1.04,0.54,-0.41,-0.18,
1.712,0.93,-0.40,1.04,0.54,-0.43,-0.18,
1.714,1.22,-0.41,0.67,0.54,-0.43,-0.18,
1.714,1.22,-0.41,0.67,0.54,-0.46,-0.19,
1.716,1.22,-0.41,0.67,0.54,-0.49,-0.19,
1.719,1.22,-0.41,0.67,0.54,-0.51,-0.20,
1.72,1.22,-0.41,0.67,0.54,-0.54,-0.21,
1.722,1.22,-0.41,0.67,0.54,-0.56,-0.21,
1.725,1.42,-0.48,0.53,0.54,-0.56,-0.21,
1.725,1.42,-0.48,0.53,0.54,-0.57,-0.22,
1.726,1.42,-0.48,0.53,0.54,-0.58,-0.23,
1.729,1.42,-0.48,0.53,0.54,-0.58,-0.24,
1.73,1.42,-0.48,0.53,0.54,-0.59,-0.25,
1.732,1.42,-0.48,0.53,0.55,-0.59,-0.26,
1.741,1.49,-0.55,0.48,0.55,-0.59,-0.26,
1.742,1.49,-0.55,0.48,0.55,-0.58,-0.26,
1.742,1.49,-0.55,0.48,0.55,-0.58,-0.27,
1.743,1.49,-0.55,0.48,0.55,-0.57,-0.28,
1.743,1.49,-0.55,0.48,0.55,-0.56,-0.28,
1.743,1.49,-0.55,0.48,0.56,-0.55,-0.29,
1.752,1.42,-0.60,0.30,0.56,-0.55,-0.29,
1.752,1.42,-0.60,0.30,0.56,-0.53,-0.29,
1.752,1.42,-0.60,0.30,0.56,-0.52,-0.30,
1.753,1.42,-0.60,0.30,0.56,-0.50,-0.30,
1.753,1.42,-0.60,0.30,0.56,-0.48,-0.30,
1.753,1.42,-0.60,0.30,0.56,-0.47,-0.31,
1.766,1.37,-0.67,-0.04,0.56,-0.47,-0.31,
1.767,1.37,-0.67,-0.04,0.56,-0.45,-0.31,
1.768,1.37,-0.67,-0.04,0.56,-0.43,-0.31,
1.768,1.37,-0.67,-0.04,0.55,-0.41,-0.32,
1.769,1.37,-0.67,-0.04,0.55,-0.40,-0.32,
1.77,1.37,-0.67,-0.04,0.55,-0.38,-0.32,
1.772,1.32,-0.71,-0.47,0.55,-0.38,-0.32,
1.773,1.32,-0.71,-0.47,0.54,-0.36,-0.32,
1.773,1.32,-0.71,-0.47,0.54,-0.35,-0.33,
1.773,1.32,-0.71,-0.47,0.53,-0.32,-0.34,
1.774,1.32,-0.71,-0.47,0.53,-0.31,-0.34,
1.774,1.32,-0.71,-0.47,0.53,-0.30,-0.35,
1.775,1.36,-0.76,-0.87,0.53,-0.30,-0.35,
1.775,1.36,-0.76,-0.87,0.52,-0.29,-0.35,
1.778,1.36,-0.76,-0.87,0.52,-0.27,-0.36,
1.779,1.36,-0.76,-0.87,0.52,-0.25,-0.38,
1.78,1.36,-0.76,-0.87,0.52,-0.24,-0.38,
1.782,1.36,-0.76,-0.87,0.52,-0.22,-0.40,
1.787,1.33,-0.78,-1.24,0.52,-0.22,-0.40,
1.788,1.33,-0.78,-1.24,0.51,-0.21,-0.41,
1.788,1.33,-0.78,-1.24,0.51,-0.19,-0.42,
1.813,1.33,-0.78,-1.24,0.51,-0.18,-0.44,
1.814,1.33,-0.78,-1.24,0.51,-0.17,-0.45,
1.814,1.33,-0.78,-1.24,0.51,-0.16,-0.46,
1.815,1.28,-0.85,-1.60,0.51,-0.16,-0.46,
1.815,1.28,-0.85,-1.60,0.51,-0.15,-0.47,
1.815,1.28,-0.85,-1.60,0.51,-0.14,-0.49,
1.816,1.28,-0.85,-1.60,0.50,-0.14,-0.51,
1.816,1.28,-0.85,-1.60,0.50,-0.13,-0.51,
1.817,1.28,-0.85,-1.60,0.50,-0.13,-0.53,
1.817,1.08,-0.88,-1.93,0.50,-0.13,-0.53,
1.818,1.08,-0.88,-1.93,0.50,-0.13,-0.54,
1.818,1.08,-0.88,-1.93,0.50,-0.12,-0.55,
1.818,1.08,-0.88,-1.93,0.50,-0.12,-0.57,
1.819,1.08,-0.88,-1.93,0.50,-0.12,-0.57,
1.819,1.08,-0.88,-1.93,0.50,-0.11,-0.59,
1.82,0.90,-0.95,-2.23,0.50,-0.11,-0.59,
1.82,0.90,-0.95,-2.23,0.50,-0.11,-0.60,
1.82,0.90,-0.95,-2.23,0.50,-0.11,-0.61,
1.821,0.90,-0.95,-2.23,0.50,-0.09,-0.62,
1.821,0.90,-0.95,-2.23,0.51,-0.09,-0.63,
1.829,0.90,-0.95,-2.23,0.51,-0.09,-0.63,
1.829,0.63,-0.94,-2.52,0.51,-0.09,-0.63,
1.83,0.63,-0.94,-2.52,0.51,-0.08,-0.64,
1.83,0.63,-0.94,-2.52,0.51,-0.07,-0.65,
1.83,0.63,-0.94,-2.52,0.51,-0.06,-0.65,
1.83,0.63,-0.94,-2.52,0.51,-0.06,-0.66,
1.832,0.63,-0.94,-2.52,0.51,-0.06,-0.66,
1.835,0.43,-0.93,-2.82,0.51,-0.06,-0.66,
1.836,0.43,-0.93,-2.82,0.51,-0.06,-0.67,
1.837,0.43,-0.93,-2.82,0.51,-0.06,-0.67,
1.839,0.43,-0.93,-2.82,0.50,-0.06,-0.67,
1.84,0.43,-0.93,-2.82,0.50,-0.06,-0.67,
1.842,0.43,-0.93,-2.82,0.50,-0.06,-0.67,
1.844,0.20,-0.92,-3.04,0.50,-0.06,-0.67,
1.844,0.20,-0.92,-3.04,0.50,-0.06,-0.68,
1.846,0.20,-0.92,-3.04,0.49,-0.06,-0.68,
1.849,0.20,-0.92,-3.04,0.49,-0.06,-0.67,
1.851,0.20,-0.92,-3.04,0.49,-0.06,-0.67,
1.853,0.20,-0.92,-3.04,0.48,-0.06,-0.67,
1.855,0.10,-0.86,-3.20,0.48,-0.06,-0.67,
1.855,0.10,-0.86,-3.20,0.48,-0.06,-0.68,
1.856,0.10,-0.86,-3.20,0.47,-0.06,-0.68,
1.859,0.10,-0.86,-3.20,0.46,-0.06,-0.68,
1.861,0.10,-0.86,-3.20,0.46,-0.06,-0.68,
1.862,0.10,-0.86,-3.20,0.45,-0.06,-0.68,
1.865,0.13,-0.77,-3.30,0.45,-0.06,-0.68,
1.866,0.13,-0.77,-3.30,0.44,-0.05,-0.69,
1.866,0.13,-0.77,-3.30,0.43,-0.05,-0.69,
1.87,0.13,-0.77,-3.30,0.41,-0.04,-0.70,
1.871,0.13,-0.77,-3.30,0.41,-0.04,-0.71,
1.874,0.13,-0.77,-3.30,0.39,-0.04,-0.72,
1.879,0.42,-0.55,-3.38,0.39,-0.04,-0.72,
1.88,0.42,-0.55,-3.38,0.38,-0.04,-0.73,
1.88,0.42,-0.55,-3.38,0.37,-0.05,-0.74,
1.88,0.42,-0.55,-3.38,0.36,-0.06,-0.77,
1.88,0.42,-0.55,-3.38,0.35,-0.06,-0.78,
1.884,0.42,-0.55,-3.38,0.34,-0.08,-0.80,
1.884,0.75,-0.37,-3.34,0.34,-0.08,-0.80,
1.885,0.75,-0.37,-3.34,0.33,-0.09,-0.82,
1.887,0.75,-0.37,-3.34,0.32,-0.10,-0.84,
1.889,0.75,-0.37,-3.34,0.30,-0.13,-0.88,
1.89,0.75,-0.37,-3.34,0.29,-0.14,-0.89,
1.892,0.75,-0.37,-3.34,0.28,-0.16,-0.91,
1.894,0.91,-0.22,-3.24,0.28,-0.16,-0.91,
1.895,0.91,-0.22,-3.24,0.26,-0.18,-0.94,
1.896,0.91,-0.22,-3.24,0.25,-0.19,-0.97,
1.899,0.91,-0.22,-3.24,0.23,-0.21,-1.01,
1.906,0.91,-0.22,-3.24,0.23,-0.22,-1.03,
1.906,0.91,-0.22,-3.24,0.21,-0.23,-1.06,
1.906,0.81,-0.14,-3.03,0.21,-0.23,-1.06,
1.906,0.81,-0.14,-3.03,0.20,-0.25,-1.08,
1.907,0.81,-0.14,-3.03,0.19,-0.26,-1.11,
1.909,0.81,-0.14,-3.03,0.17,-0.29,-1.16,
1.912,0.81,-0.14,-3.03,0.16,-0.30,-1.17,
1.914,0.81,-0.14,-3.03,0.15,-0.31,-1.20,
1.915,0.75,-0.19,-2.83,0.15,-0.31,-1.20,
1.915,0.75,-0.19,-2.83,0.14,-0.33,-1.23,
1.916,0.75,-0.19,-2.83,0.13,-0.35,-1.26,
1.937,0.75,-0.19,-2.83,0.11,-0.37,-1.29,
1.937,0.75,-0.19,-2.83,0.10,-0.38,-1.30,
1.938,0.75,-0.19,-2.83,0.09,-0.39,-1.32,
1.938,0.45,-0.26,-2.59,0.09,-0.39,-1.32,
1.938,0.45,-0.26,-2.59,0.08,-0.41,-1.34,
1.938,0.45,-0.26,-2.59,0.07,-0.42,-1.35,
1.938,0.45,-0.26,-2.59,0.05,-0.43,-1.36,
1.939,0.45,-0.26,-2.59,0.04,-0.44,-1.37,
1.939,0.45,-0.26,-2.59,0.03,-0.45,-1.37,
1.939,0.01,-0.23,-2.27,0.03,-0.45,-1.37,
1.939,0.01,-0.23,-2.27,0.02,-0.45,-1.37,
1.939,0.01,-0.23,-2.27,0.01,-0.46,-1.37,
1.939,0.01,-0.23,-2.27,-0.01,-0.47,-1.36,
1.941,0.01,-0.23,-2.27,-0.02,-0.47,-1.36,
1.942,0.01,-0.23,-2.27,-0.03,-0.47,-1.35,
1.945,-0.46,-0.16,-1.85,-0.03,-0.47,-1.35,
1.945,-0.46,-0.16,-1.85,-0.04,-0.48,-1.33,
1.946,-0.46,-0.16,-1.85,-0.05,-0.48,-1.32,
1.949,-0.46,-0.16,-1.85,-0.06,-0.47,-1.30,
1.952,-0.46,-0.16,-1.85,-0.07,-0.47,-1.29,
1.953,-0.46,-0.16,-1.85,-0.08,-0.47,-1.27,
1.956,-0.88,-0.07,-1.39,-0.08,-0.47,-1.27,
1.985,-0.88,-0.07,-1.39,-0.08,-0.46,-1.25,
1.985,-0.88,-0.07,-1.39,-0.09,-0.45,-1.23,
1.986,-0.88,-0.07,-1.39,-0.10,-0.43,-1.20,
1.986,-0.88,-0.07,-1.39,-0.10,-0.42,-1.18,
1.987,-0.88,-0.07,-1.39,-0.11,-0.41,-1.16,
1.987,-1.05,-0.02,-0.97,-0.11,-0.41,-1.16,
1.988,-1.05,-0.02,-0.97,-0.11,-0.39,-1.14,
1.988,-1.05,-0.02,-0.97,-0.12,-0.37,-1.12,
1.988,-1.05,-0.02,-0.97,-0.12,-0.35,-1.08,
1.989,-1.05,-0.02,-0.97,-0.12,-0.34,-1.07,
1.989,-1.05,-0.02,-0.97,-0.13,-0.32,-1.05,
1.99,-1.20,0.04,-0.68,-0.13,-0.32,-1.05,
1.99,-1.20,0.04,-0.68,-0.14,-0.31,-1.03,
1.99,-1.20,0.04,-0.68,-0.14,-0.30,-1.00,
1.991,-1.20,0.04,-0.68,-0.14,-0.28,-0.97,
1.991,-1.20,0.04,-0.68,-0.14,-0.28,-0.96,
1.992,-1.24,0.11,-0.30,-0.14,-0.28,-0.96,
1.992,-1.24,0.11,-0.30,-0.14,-0.26,-0.91,
1.993,-1.24,0.11,-0.30,-0.14,-0.25,-0.88,
1.993,-1.24,0.11,-0.30,-0.14,-0.25,-0.88,
1.993,-1.24,0.11,-0.30,-0.14,-0.24,-0.85,
1.994,-1.24,0.11,-0.30,-0.14,-0.23,-0.84,
1.994,-1.24,0.11,-0.30,-0.13,-0.23,-0.82,
2.003,-1.33,0.31,0.10,-0.13,-0.23,-0.82,
2.004,-1.33,0.31,0.10,-0.13,-0.22,-0.79,
2.005,-1.33,0.31,0.10,-0.12,-0.22,-0.77,
2.005,-1.33,0.31,0.10,-0.11,-0.21,-0.74,
2.006,-1.33,0.31,0.10,-0.11,-0.20,-0.73,
2.006,-1.33,0.31,0.10,-0.10,-0.20,-0.71,
2.006,-1.35,0.49,0.51,-0.10,-0.20,-0.71,
2.007,-1.35,0.49,0.51,-0.09,-0.19,-0.68,
2.007,-1.35,0.49,0.51,-0.07,-0.19,-0.67,
2.01,-1.35,0.49,0.51,-0.05,-0.18,-0.64,
2.01,-1.35,0.49,0.51,-0.05,-0.18,-0.63,
2.012,-1.35,0.49,0.51,-0.03,-0.17,-0.61,
2.014,-1.41,0.62,0.91,-0.03,-0.17,-0.61,
2.014,-1.41,0.62,0.91,-0.01,-0.17,-0.59,
2.017,-1.41,0.62,0.91,0.00,-0.16,-0.57,
2.019,-1.41,0.62,0.91,0.03,-0.16,-0.54,
2.021,-1.41,0.62,0.91,0.04,-0.16,-0.52,
2.023,-1.41,0.62,0.91,0.05,-0.15,-0.51,
2.024,-1.41,0.73,1.22,0.05,-0.15,-0.51,
2.024,-1.41,0.73,1.22,0.06,-0.15,-0.49,
2.026,-1.41,0.73,1.22,0.08,-0.15,-0.47,
2.029,-1.41,0.73,1.22,0.11,-0.15,-0.44,
2.03,-1.41,0.73,1.22,0.11,-0.14,-0.43,
2.032,-1.41,0.73,1.22,0.13,-0.14,-0.41,
2.039,-1.57,0.82,1.41,0.13,-0.14,-0.41,
2.04,-1.57,0.82,1.41,0.14,-0.15,-0.39,
2.04,-1.57,0.82,1.41,0.16,-0.15,-0.37,
2.04,-1.57,0.82,1.41,0.18,-0.15,-0.34,
2.041,-1.57,0.82,1.41,0.19,-0.15,-0.33,
2.042,-1.57,0.82,1.41,0.20,-0.16,-0.31,
2.07,-1.64,0.90,1.53,0.20,-0.16,-0.31,
2.07,-1.64,0.90,1.53,0.21,-0.16,-0.29,
2.071,-1.64,0.90,1.53,0.22,-0.17,-0.27,
2.071,-1.64,0.90,1.53,0.23,-0.18,-0.24,
2.071,-1.64,0.90,1.53,0.23,-0.19,-0.23,
2.071,-1.64,0.90,1.53,0.24,-0.20,-0.22,
2.071,-1.68,1.02,1.61,0.24,-0.20,-0.22,
2.072,-1.68,1.02,1.61,0.25,-0.21,-0.20,
2.072,-1.68,1.02,1.61,0.25,-0.22,-0.19,
2.072,-1.68,1.02,1.61,0.26,-0.24,-0.16,
2.072,-1.68,1.02,1.61,0.26,-0.26,-0.15,
2.072,-1.68,1.02,1.61,0.26,-0.26,-0.14,
2.073,-1.59,1.08,1.75,0.26,-0.26,-0.14,
2.073,-1.59,1.08,1.75,0.27,-0.28,-0.13,
2.073,-1.59,1.08,1.75,0.27,-0.29,-0.12,
2.073,-1.59,1.08,1.75,0.27,-0.32,-0.10,
2.073,-1.59,1.08,1.75,0.27,-0.32,-0.10,
2.073,-1.59,1.08,1.75,0.27,-0.34,-0.09,
2.076,-1.43,1.10,1.96,0.27,-0.34,-0.09,
2.076,-1.43,1.10,1.96,0.27,-0.36,-0.08,
2.076,-1.43,1.10,1.96,0.27,-0.37,-0.07,
2.079,-1.43,1.10,1.96,0.27,-0.40,-0.06,
2.08,-1.43,1.10,1.96,0.28,-0.41,-0.05,
2.082,-1.43,1.10,1.96,0.28,-0.42,-0.04,
2.087,-1.24,1.10,2.38,0.28,-0.42,-0.04,
2.089,-1.24,1.10,2.38,0.29,-0.44,-0.03,
2.089,-1.24,1.10,2.38,0.29,-0.44,-0.02,
2.09,-1.24,1.10,2.38,0.30,-0.46,-0.01,
2.091,-1.24,1.10,2.38,0.31,-0.46,-0.01,
2.092,-1.24,1.10,2.38,0.32,-0.47,0.00,
2.095,-1.18,1.12,2.82,0.32,-0.47,0.00,
2.095,-1.18,1.12,2.82,0.32,-0.47,0.01,
2.096,-1.18,1.12,2.82,0.33,-0.47,0.02,
2.1,-1.18,1.12,2.82,0.35,-0.47,0.02,
2.101,-1.18,1.12,2.82,0.35,-0.47,0.03,
2.103,-1.18,1.12,2.82,0.36,-0.46,0.03,
2.105,-1.09,1.15,3.04,0.36,-0.46,0.03,
2.105,-1.09,1.15,3.04,0.37,-0.46,0.04,
2.106,-1.09,1.15,3.04,0.37,-0.45,0.05,
2.109,-1.09,1.15,3.04,0.38,-0.44,0.05,
2.11,-1.09,1.15,3.04,0.38,-0.43,0.06,
2.112,-1.09,1.15,3.04,0.38,-0.42,0.06,
2.114,-1.01,1.17,3.05,0.38,-0.42,0.06,
2.115,-1.01,1.17,3.05,0.38,-0.42,0.06,
2.117,-1.01,1.17,3.05,0.37,-0.41,0.07,
2.119,-1.01,1.17,3.05,0.36,-0.40,0.07,
2.12,-1.01,1.17,3.05,0.35,-0.40,0.07,
2.148,-1.01,1.17,3.05,0.34,-0.40,0.08,
2.148,-0.88,1.16,2.94,0.34,-0.40,0.08,
2.149,-0.88,1.16,2.94,0.32,-0.39,0.08,
2.149,-0.88,1.16,2.94,0.31,-0.39,0.08,
2.149,-0.88,1.16,2.94,0.28,-0.38,0.09,
2.149,-0.88,1.16,2.94,0.27,-0.38,0.09,
2.15,-0.88,1.16,2.94,0.24,-0.37,0.09,
2.15,-0.80,1.21,2.88,0.24,-0.37,0.09,
2.15,-0.80,1.21,2.88,0.22,-0.37,0.09,
2.151,-0.80,1.21,2.88,0.20,-0.36,0.09,
2.151,-0.80,1.21,2.88,0.16,-0.36,0.09,
2.151,-0.80,1.21,2.88,0.14,-0.36,0.09,
2.151,-0.80,1.21,2.88,0.11,-0.36,0.08,
2.152,-0.66,1.23,2.96,0.11,-0.36,0.08,
2.152,-0.66,1.23,2.96,0.09,-0.36,0.08,
2.152,-0.66,1.23,2.96,0.06,-0.36,0.08,
2.152,-0.66,1.23,2.96,0.01,-0.36,0.07,
2.153,-0.66,1.23,2.96,-0.00,-0.36,0.07,
2.153,-0.66,1.23,2.96,-0.03,-0.36,0.06,
2.159,-0.51,1.20,3.27,-0.03,-0.36,0.06,
2.159,-0.51,1.20,3.27,-0.06,-0.36,0.05,
2.159,-0.51,1.20,3.27,-0.09,-0.37,0.04,
2.16,-0.51,1.20,3.27,-0.13,-0.37,0.03,
2.16,-0.51,1.20,3.27,-0.14,-0.37,0.02,
2.162,-0.51,1.20,3.27,-0.16,-0.36,0.02,
2.165,-0.38,1.12,3.82,-0.16,-0.36,0.02,
2.165,-0.38,1.12,3.82,-0.18,-0.36,0.01,
2.166,-0.38,1.12,3.82,-0.19,-0.36,0.00,
2.173,-0.38,1.12,3.82,-0.21,-0.34,-0.01,
2.173,-0.38,1.12,3.82,-0.21,-0.33,-0.02,
2.173,-0.38,1.12,3.82,-0.21,-0.32,-0.02,
2.174,-0.33,0.81,4.59,-0.21,-0.32,-0.02,
2.174,-0.33,0.81,4.59,-0.21,-0.30,-0.03,
2.176,-0.33,0.81,4.59,-0.20,-0.28,-0.04,
2.179,-0.33,0.81,4.59,-0.18,-0.23,-0.05,
2.18,-0.33,0.81,4.59,-0.17,-0.22,-0.05,
2.189,-0.33,0.81,4.59,-0.14,-0.18,-0.05,
2.19,-0.48,0.32,5.35,-0.14,-0.18,-0.05,
2.19,-0.48,0.32,5.35,-0.11,-0.13,-0.05,
2.19,-0.48,0.32,5.35,-0.08,-0.09,-0.05,
2.19,-0.48,0.32,5.35,-0.02,-0.01,-0.05,
2.19,-0.48,0.32,5.35,-0.00,0.01,-0.05,
2.212,-0.48,0.32,5.35,0.04,0.06,-0.04,
2.212,-0.81,-0.20,5.71,0.04,0.06,-0.04,
2.212,-0.81,-0.20,5.71,0.08,0.10,-0.04,
2.213,-0.81,-0.20,5.71,0.13,0.15,-0.03,
2.213,-0.81,-0.20,5.71,0.19,0.21,-0.02,
2.213,-0.81,-0.20,5.71,0.22,0.23,-0.01,
2.213,-0.81,-0.20,5.71,0.26,0.28,0.00,
2.213,-1.13,-0.69,5.55,0.26,0.28,0.00,
2.213,-1.13,-0.69,5.55,0.31,0.31,0.02,
2.213,-1.13,-0.69,5.55,0.36,0.35,0.03,
2.214,-1.13,-0.69,5.55,0.43,0.40,0.06,
2.214,-1.13,-0.69,5.55,0.45,0.41,0.07,
2.214,-1.13,-0.69,5.55,0.49,0.44,0.09,
2.215,-1.53,-1.10,4.88,0.49,0.44,0.09,
2.216,-1.53,-1.10,4.88,0.54,0.46,0.11,
2.221,-1.53,-1.10,4.88,0.58,0.48,0.14,
2.221,-1.53,-1.10,4.88,0.63,0.49,0.17,
2.221,-1.53,-1.10,4.88,0.65,0.49,0.19,
2.222,-1.53,-1.10,4.88,0.67,0.49,0.21,
2.225,-1.74,-1.17,3.68,0.67,0.49,0.21,
2.225,-1.74,-1.17,3.68,0.70,0.48,0.23,
2.226,-1.74,-1.17,3.68,0.72,0.46,0.26,
2.23,-1.74,-1.17,3.68,0.73,0.42,0.28,
2.23,-1.74,-1.17,3.68,0.74,0.40,0.29,
2.233,-1.74,-1.17,3.68,0.74,0.36,0.30,
2.234,-1.64,-0.98,2.17,0.74,0.36,0.30,
2.235,-1.64,-0.98,2.17,0.74,0.32,0.31,
2.237,-1.64,-0.98,2.17,0.73,0.28,0.31,
2.239,-1.64,-0.98,2.17,0.72,0.20,0.31,
2.246,-1.64,-0.98,2.17,0.71,0.17,0.31,
2.246,-1.64,-0.98,2.17,0.70,0.11,0.30,
2.246,-1.11,-0.62,0.72,0.70,0.11,0.30,
2.247,-1.11,-0.62,0.72,0.68,0.06,0.29,
2.247,-1.11,-0.62,0.72,0.66,-0.01,0.27,
2.25,-1.11,-0.62,0.72,0.62,-0.10,0.25,
2.251,-1.11,-0.62,0.72,0.61,-0.13,0.24,
2.252,-1.11,-0.62,0.72,0.58,-0.19,0.23,
2.254,-0.72,-0.43,-0.24,0.58,-0.19,0.23,
2.255,-0.72,-0.43,-0.24,0.56,-0.25,0.21,
2.256,-0.72,-0.43,-0.24,0.54,-0.30,0.19,
2.259,-0.72,-0.43,-0.24,0.50,-0.38,0.16,
2.26,-0.72,-0.43,-0.24,0.48,-0.40,0.15,
2.262,-0.72,-0.43,-0.24,0.46,-0.45,0.14,
2.266,-0.58,-0.44,-0.53,0.46,-0.45,0.14,
2.267,-0.58,-0.44,-0.53,0.44,-0.49,0.12,
2.267,-0.58,-0.44,-0.53,0.41,-0.53,0.10,
2.269,-0.58,-0.44,-0.53,0.37,-0.58,0.08,
2.27,-0.58,-0.44,-0.53,0.36,-0.60,0.08,
2.273,-0.58,-0.44,-0.53,0.34,-0.62,0.07,
2.274,-0.62,-0.62,-0.46,0.34,-0.62,0.07,
2.275,-0.62,-0.62,-0.46,0.31,-0.64,0.06,
2.277,-0.62,-0.62,-0.46,0.29,-0.66,0.05,
2.279,-0.62,-0.62,-0.46,0.26,-0.67,0.05,
2.28,-0.62,-0.62,-0.46,0.25,-0.67,0.05,
2.283,-0.62,-0.62,-0.46,0.24,-0.67,0.05,
2.287,-0.93,-0.82,-0.21,0.24,-0.67,0.05,
2.287,-0.93,-0.82,-0.21,0.22,-0.67,0.05,
2.288,-0.93,-0.82,-0.21,0.20,-0.66,0.06,
2.318,-0.93,-0.82,-0.21,0.17,-0.64,0.07,
2.319,-0.93,-0.82,-0.21,0.17,-0.63,0.08,
2.321,-0.93,-0.82,-0.21,0.15,-0.60,0.09,
2.322,-1.21,-1.05,-0.00,0.15,-0.60,0.09,
2.323,-1.21,-1.05,-0.00,0.14,-0.58,0.11,
2.323,-1.21,-1.05,-0.00,0.12,-0.56,0.12,
2.324,-1.21,-1.05,-0.00,0.11,-0.52,0.15,
2.325,-1.21,-1.05,-0.00,0.10,-0.50,0.16,
2.325,-1.21,-1.05,-0.00,0.09,-0.47,0.18,
2.326,-1.16,-1.26,0.18,0.09,-0.47,0.18,
2.326,-1.16,-1.26,0.18,0.08,-0.44,0.20,
2.326,-1.16,-1.26,0.18,0.08,-0.41,0.22,
2.327,-1.16,-1.26,0.18,0.07,-0.36,0.24,
2.327,-1.16,-1.26,0.18,0.07,-0.34,0.25,
2.328,-1.16,-1.26,0.18,0.06,-0.31,0.27,
2.328,-0.92,-1.47,0.26,0.06,-0.31,0.27,
2.329,-0.92,-1.47,0.26,0.06,-0.27,0.29,
2.329,-0.92,-1.47,0.26,0.06,-0.24,0.30,
2.329,-0.92,-1.47,0.26,0.06,-0.18,0.33,
2.33,-0.92,-1.47,0.26,0.06,-0.16,0.33,
2.33,-0.92,-1.47,0.26,0.06,-0.13,0.35,
2.331,-0.59,-1.46,0.13,0.06,-0.13,0.35,
2.331,-0.59,-1.46,0.13,0.06,-0.09,0.36,
2.331,-0.59,-1.46,0.13,0.06,-0.06,0.37,
2.332,-0.59,-1.46,0.13,0.06,-0.01,0.39,
2.332,-0.59,-1.46,0.13,0.06,0.01,0.39,
2.333,-0.59,-1.46,0.13,0.06,0.04,0.40,
2.342,-0.31,-1.47,-0.21,0.06,0.04,0.40,
2.342,-0.31,-1.47,-0.21,0.06,0.07,0.41,
2.342,-0.31,-1.47,-0.21,0.05,0.10,0.42,
2.343,-0.31,-1.47,-0.21,0.05,0.13,0.42,
2.343,-0.31,-1.47,-0.21,0.06,0.14,0.42,
2.343,-0.31,-1.47,-0.21,0.05,0.16,0.43,
2.346,-0.10,-1.45,-0.61,0.05,0.16,0.43,
2.346,-0.10,-1.45,-0.61,0.05,0.18,0.43,
2.346,-0.10,-1.45,-0.61,0.05,0.20,0.43,
2.361,-0.10,-1.45,-0.61,0.05,0.23,0.43,
2.361,-0.10,-1.45,-0.61,0.05,0.24,0.43,
2.361,-0.10,-1.45,-0.61,0.05,0.26,0.43,
2.362,0.03,-1.44,-1.00,0.05,0.26,0.43,
2.362,0.03,-1.44,-1.00,0.05,0.28,0.43,
2.362,0.03,-1.44,-1.00,0.05,0.30,0.43,
2.362,0.03,-1.44,-1.00,0.06,0.33,0.43,
2.363,0.03,-1.44,-1.00,0.06,0.33,0.43,
2.363,0.03,-1.44,-1.00,0.06,0.35,0.43,
2.387,0.02,-1.38,-1.38,0.06,0.35,0.43,
2.388,0.02,-1.38,-1.38,0.06,0.37,0.43,
2.388,0.02,-1.38,-1.38,0.07,0.39,0.43,
2.388,0.02,-1.38,-1.38,0.07,0.41,0.43,
2.388,0.02,-1.38,-1.38,0.07,0.42,0.43,
2.389,0.02,-1.38,-1.38,0.08,0.43,0.44,
2.389,-0.08,-1.44,-1.75,0.08,0.43,0.44,
2.389,-0.08,-1.44,-1.75,0.08,0.45,0.44,
2.389,-0.08,-1.44,-1.75,0.09,0.46,0.44,
2.389,-0.08,-1.44,-1.75,0.09,0.47,0.45,
2.39,-0.08,-1.44,-1.75,0.10,0.47,0.45,
2.39,-0.08,-1.44,-1.75,0.10,0.48,0.46,
2.39,-0.19,-1.49,-2.11,0.10,0.48,0.46,
2.39,-0.19,-1.49,-2.11,0.11,0.49,0.47,
2.39,-0.19,-1.49,-2.11,0.11,0.49,0.47,
2.39,-0.19,-1.49,-2.11,0.13,0.50,0.49,
2.391,-0.19,-1.49,-2.11,0.13,0.50,0.49,
2.401,-0.19,-1.49,-2.11,0.14,0.51,0.50,
2.401,-0.38,-1.50,-2.33,0.14,0.51,0.50,
2.402,-0.38,-1.50,-2.33,0.15,0.51,0.52,
2.402,-0.38,-1.50,-2.33,0.16,0.51,0.53,
2.402,-0.38,-1.50,-2.33,0.17,0.51,0.55,
2.402,-0.38,-1.50,-2.33,0.17,0.51,0.55,
2.402,-0.38,-1.50,-2.33,0.18,0.51,0.57,
2.423,-0.47,-1.52,-2.58,0.18,0.51,0.57,
2.424,-0.47,-1.52,-2.58,0.19,0.51,0.58,
2.424,-0.47,-1.52,-2.58,0.20,0.50,0.59,
2.424,-0.47,-1.52,-2.58,0.21,0.50,0.61,
2.425,-0.47,-1.52,-2.58,0.21,0.50,0.62,
2.425,-0.47,-1.52,-2.58,0.22,0.50,0.64,
2.425,-0.50,-1.54,-2.82,0.22,0.50,0.64,
2.425,-0.50,-1.54,-2.82,0.22,0.50,0.64,
2.425,-0.50,-1.54,-2.82,0.23,0.50,0.66,
2.427,-0.50,-1.54,-2.82,0.23,0.50,0.68,
2.427,-0.50,-1.54,-2.82,0.24,0.50,0.68,
2.432,-0.50,-1.54,-2.82,0.24,0.50,0.70,
2.432,-0.42,-1.51,-2.95,0.24,0.50,0.70,
2.432,-0.42,-1.51,-2.95,0.25,0.50,0.71,
2.432,-0.42,-1.51,-2.95,0.25,0.50,0.72,
2.433,-0.42,-1.51,-2.95,0.26,0.49,0.74,
2.433,-0.42,-1.51,-2.95,0.26,0.49,0.75,
2.436,-0.42,-1.51,-2.95,0.27,0.48,0.76,
2.454,-0.24,-1.47,-2.89,0.27,0.48,0.76,
2.454,-0.24,-1.47,-2.89,0.28,0.47,0.76,
2.455,-0.24,-1.47,-2.89,0.29,0.47,0.77,
2.455,-0.24,-1.47,-2.89,0.29,0.46,0.78,
2.455,-0.24,-1.47,-2.89,0.30,0.46,0.79,
2.456,-0.24,-1.47,-2.89,0.30,0.45,0.79,
2.456,0.07,-1.37,-2.79,0.30,0.45,0.79,
2.456,0.07,-1.37,-2.79,0.31,0.45,0.79,
2.456,0.07,-1.37,-2.79,0.32,0.44,0.79,
2.457,0.07,-1.37,-2.79,0.33,0.43,0.79,
2.457,0.07,-1.37,-2.79,0.33,0.42,0.79,
2.457,0.07,-1.37,-2.79,0.34,0.41,0.79,
2.458,0.44,-1.29,-2.76,0.34,0.41,0.79,
2.485,0.44,-1.29,-2.76,0.34,0.40,0.79,
2.485,0.44,-1.29,-2.76,0.34,0.39,0.78,
2.486,0.44,-1.29,-2.76,0.34,0.36,0.77,
2.486,0.44,-1.29,-2.76,0.34,0.35,0.76,
2.486,0.44,-1.29,-2.76,0.34,0.33,0.75,
2.487,0.65,-1.14,-2.74,0.34,0.33,0.75,
2.487,0.65,-1.14,-2.74,0.34,0.30,0.74,
2.488,0.65,-1.14,-2.74,0.35,0.27,0.73,
2.488,0.65,-1.14,-2.74,0.35,0.23,0.71,
2.489,0.65,-1.14,-2.74,0.35,0.22,0.70,
2.489,0.65,-1.14,-2.74,0.35,0.19,0.69,
2.489,0.82,-1.02,-2.48,0.35,0.19,0.69,
2.49,0.82,-1.02,-2.48,0.36,0.17,0.67,
2.49,0.82,-1.02,-2.48,0.37,0.14,0.65,
2.49,0.82,-1.02,-2.48,0.37,0.12,0.64,
2.491,0.82,-1.02,-2.48,0.38,0.11,0.63,
2.491,0.82,-1.02,-2.48,0.39,0.09,0.61,
2.492,0.82,-1.02,-2.48,0.40,0.06,0.59,
2.492,0.82,-1.02,-2.48,0.40,0.06,0.59,
2.492,0.79,-0.98,-2.17,0.40,0.06,0.59,
2.493,0.79,-0.98,-2.17,0.41,0.04,0.58,
2.493,0.79,-0.98,-2.17,0.41,0.04,0.57,
2.493,0.79,-0.98,-2.17,0.42,0.02,0.56,
2.501,0.73,-1.00,-2.09,0.42,0.02,0.56,
2.502,0.73,-1.00,-2.09,0.42,0.01,0.56,
2.502,0.73,-1.00,-2.09,0.43,-0.00,0.55,
2.502,0.73,-1.00,-2.09,0.43,-0.02,0.55,
2.502,0.73,-1.00,-2.09,0.44,-0.02,0.54,
2.503,0.73,-1.00,-2.09,0.44,-0.03,0.54,
2.505,0.60,-1.05,-1.98,0.44,-0.03,0.54,
2.505,0.60,-1.05,-1.98,0.44,-0.04,0.54,
2.506,0.60,-1.05,-1.98,0.44,-0.04,0.54,
2.509,0.60,-1.05,-1.98,0.44,-0.05,0.54,
2.51,0.60,-1.05,-1.98,0.44,-0.05,0.54,
2.512,0.60,-1.05,-1.98,0.45,-0.05,0.54,
2.515,0.61,-1.06,-1.87,0.45,-0.05,0.54,
2.515,0.61,-1.06,-1.87,0.44,-0.05,0.53,
2.516,0.61,-1.06,-1.87,0.44,-0.05,0.53,
2.52,0.61,-1.06,-1.87,0.44,-0.04,0.53,
2.521,0.61,-1.06,-1.87,0.44,-0.04,0.52,
2.522,0.61,-1.06,-1.87,0.44,-0.04,0.52,
2.524,0.69,-1.00,-1.80,0.44,-0.04,0.52,
2.525,0.69,-1.00,-1.80,0.44,-0.04,0.51,
2.526,0.69,-1.00,-1.80,0.43,-0.03,0.51,
2.529,0.69,-1.00,-1.80,0.43,-0.03,0.49,
2.531,0.69,-1.00,-1.80,0.42,-0.03,0.49,
2.535,0.69,-1.00,-1.80,0.42,-0.02,0.48,
2.536,0.77,-0.96,-1.70,0.42,-0.02,0.48,
2.536,0.77,-0.96,-1.70,0.41,-0.02,0.47,
2.539,0.77,-0.96,-1.70,0.41,-0.02,0.46,
2.539,0.77,-0.96,-1.70,0.41,-0.01,0.45,
2.54,0.77,-0.96,-1.70,0.40,-0.01,0.44,
2.542,0.77,-0.96,-1.70,0.40,-0.00,0.43,
2.544,0.77,-0.89,-1.37,0.40,-0.00,0.43,
2.545,0.77,-0.89,-1.37,0.40,-0.00,0.42,
2.546,0.77,-0.89,-1.37,0.40,0.00,0.41,
2.549,0.77,-0.89,-1.37,0.40,0.01,0.39,
2.551,0.77,-0.89,-1.37,0.40,0.01,0.38,
2.554,0.77,-0.89,-1.37,0.40,0.01,0.37,
2.554,0.90,-0.89,-0.99,0.40,0.01,0.37,
2.555,0.90,-0.89,-0.99,0.41,0.02,0.35,
2.557,0.90,-0.89,-0.99,0.41,0.02,0.34,
2.559,0.90,-0.89,-0.99,0.42,0.02,0.32,
2.56,0.90,-0.89,-0.99,0.42,0.03,0.30,
2.562,0.90,-0.89,-0.99,0.43,0.03,0.29,
2.569,1.06,-0.82,-0.48,0.43,0.03,0.29,
2.569,1.06,-0.82,-0.48,0.44,0.03,0.27,
2.569,1.06,-0.82,-0.48,0.45,0.04,0.25,
2.569,1.06,-0.82,-0.48,0.47,0.04,0.21,
2.572,1.06,-0.82,-0.48,0.47,0.04,0.20,
2.577,1.06,-0.82,-0.48,0.49,0.04,0.18,
2.577,1.32,-0.80,-0.02,0.49,0.04,0.18,
2.577,1.32,-0.80,-0.02,0.50,0.04,0.15,
2.578,1.32,-0.80,-0.02,0.52,0.03,0.12,
2.59,1.32,-0.80,-0.02,0.55,0.01,0.08,
2.59,1.32,-0.80,-0.02,0.55,0.01,0.07,
2.59,1.32,-0.80,-0.02,0.57,-0.00,0.04,
2.591,1.35,-0.75,0.30,0.57,-0.00,0.04,
2.591,1.35,-0.75,0.30,0.60,-0.02,0.01,
2.591,1.35,-0.75,0.30,0.62,-0.03,-0.01,
2.591,1.35,-0.75,0.30,0.64,-0.05,-0.05,
2.591,1.35,-0.75,0.30,0.65,-0.06,-0.06,
2.593,1.35,-0.75,0.30,0.67,-0.07,-0.08,
2.596,1.08,-0.67,0.30,0.67,-0.07,-0.08,
2.596,1.08,-0.67,0.30,0.69,-0.09,-0.11,
2.599,1.08,-0.67,0.30,0.70,-0.10,-0.12,
2.6,1.08,-0.67,0.30,0.72,-0.13,-0.15,
2.603,1.08,-0.67,0.30,0.72,-0.14,-0.16,
2.603,1.08,-0.67,0.30,0.72,-0.15,-0.17,
2.605,0.65,-0.61,0.03,0.72,-0.15,-0.17,
2.605,0.65,-0.61,0.03,0.73,-0.17,-0.18,
2.607,0.65,-0.61,0.03,0.73,-0.19,-0.20,
2.61,0.65,-0.61,0.03,0.72,-0.21,-0.21,
2.61,0.65,-0.61,0.03,0.71,-0.21,-0.22,
2.614,0.65,-0.61,0.03,0.70,-0.22,-0.23,
2.616,0.42,-0.58,-0.35,0.70,-0.22,-0.23,
2.616,0.42,-0.58,-0.35,0.69,-0.23,-0.24,
2.616,0.42,-0.58,-0.35,0.67,-0.24,-0.25,
2.619,0.42,-0.58,-0.35,0.64,-0.24,-0.27,
2.623,0.42,-0.58,-0.35,0.62,-0.25,-0.27,
2.642,0.42,-0.58,-0.35,0.60,-0.24,-0.28,
2.643,0.30,-0.48,-0.68,0.60,-0.24,-0.28,
2.643,0.30,-0.48,-0.68,0.57,-0.24,-0.29,
2.643,0.30,-0.48,-0.68,0.54,-0.23,-0.30,
2.643,0.30,-0.48,-0.68,0.50,-0.21,-0.30,
2.644,0.30,-0.48,-0.68,0.49,-0.20,-0.30,
2.644,0.30,-0.48,-0.68,0.46,-0.18,-0.30,
2.644,0.09,-0.29,-0.62,0.46,-0.18,-0.30,
2.644,0.09,-0.29,-0.62,0.43,-0.16,-0.30,
2.645,0.09,-0.29,-0.62,0.40,-0.14,-0.30,
2.645,0.09,-0.29,-0.62,0.35,-0.10,-0.30,
2.645,0.09,-0.29,-0.62,0.33,-0.09,-0.30,
2.646,0.09,-0.29,-0.62,0.30,-0.07,-0.29,
2.646,0.18,-0.35,-0.47,0.30,-0.07,-0.29,
2.646,0.18,-0.35,-0.47,0.27,-0.04,-0.30,
2.652,0.18,-0.35,-0.47,0.23,-0.02,-0.30,
2.652,0.18,-0.35,-0.47,0.17,0.02,-0.30,
2.654,0.18,-0.35,-0.47,0.15,0.03,-0.30,
2.654,0.18,-0.35,-0.47,0.10,0.05,-0.30,
2.655,0.33,-0.38,-0.37,0.10,0.05,-0.30,
2.655,0.33,-0.38,-0.37,0.06,0.07,-0.30,
2.657,0.33,-0.38,-0.37,0.01,0.09,-0.30,
2.659,0.33,-0.38,-0.37,-0.06,0.11,-0.31,
2.66,0.33,-0.38,-0.37,-0.08,0.12,-0.31,
2.662,0.33,-0.38,-0.37,-0.13,0.14,-0.31,
2.665,0.38,-0.13,-0.11,-0.13,0.14,-0.31,
2.665,0.38,-0.13,-0.11,-0.17,0.16,-0.31,
2.666,0.38,-0.13,-0.11,-0.22,0.18,-0.31,
2.669,0.38,-0.13,-0.11,-0.28,0.21,-0.31,
2.67,0.38,-0.13,-0.11,-0.30,0.22,-0.31,
2.672,0.38,-0.13,-0.11,-0.34,0.25,-0.32,
2.674,0.43,0.06,0.27,-0.34,0.25,-0.32,
2.675,0.43,0.06,0.27,-0.38,0.27,-0.32,
2.677,0.43,0.06,0.27,-0.42,0.29,-0.32,
2.679,0.43,0.06,0.27,-0.47,0.33,-0.33,
2.68,0.43,0.06,0.27,-0.49,0.34,-0.33,
2.682,0.43,0.06,0.27,-0.52,0.35,-0.34,
2.684,0.64,0.06,0.61,-0.52,0.35,-0.34,
2.684,0.64,0.06,0.61,-0.56,0.37,-0.34,
2.686,0.64,0.06,0.61,-0.59,0.39,-0.35,
2.689,0.64,0.06,0.61,-0.63,0.41,-0.35,
2.69,0.64,0.06,0.61,-0.65,0.41,-0.36,
2.692,0.64,0.06,0.61,-0.68,0.42,-0.36,
2.694,0.91,0.09,0.81,-0.68,0.42,-0.36,
2.694,0.91,0.09,0.81,-0.71,0.43,-0.37,
2.696,0.91,0.09,0.81,-0.74,0.43,-0.38,
2.699,0.91,0.09,0.81,-0.80,0.44,-0.39,
2.7,0.91,0.09,0.81,-0.81,0.44,-0.40,
2.702,0.91,0.09,0.81,-0.84,0.44,-0.42,
2.705,1.15,0.23,0.87,-0.84,0.44,-0.42,
2.705,1.15,0.23,0.87,-0.88,0.43,-0.43,
2.706,1.15,0.23,0.87,-0.91,0.43,-0.44,
2.709,1.15,0.23,0.87,-0.96,0.42,-0.47,
2.71,1.15,0.23,0.87,-0.98,0.41,-0.48,
2.712,1.15,0.23,0.87,-1.01,0.40,-0.50,
2.714,1.29,0.44,1.00,-1.01,0.40,-0.50,
2.715,1.29,0.44,1.00,-1.05,0.38,-0.52,
2.718,1.29,0.44,1.00,-1.09,0.35,-0.55,
2.719,1.29,0.44,1.00,-1.14,0.31,-0.59,
2.72,1.29,0.44,1.00,-1.16,0.30,-0.60,
2.722,1.29,0.44,1.00,-1.20,0.27,-0.62,
2.724,1.29,0.55,1.23,-1.20,0.27,-0.62,
2.724,1.29,0.55,1.23,-1.24,0.24,-0.65,
2.726,1.29,0.55,1.23,-1.28,0.21,-0.68,
2.732,1.29,0.55,1.23,-1.34,0.16,-0.72,
2.732,1.29,0.55,1.23,-1.36,0.15,-0.74,
2.733,1.29,0.55,1.23,-1.39,0.12,-0.76,
2.74,1.30,0.51,1.76,-1.39,0.12,-0.76,
2.74,1.30,0.51,1.76,-1.42,0.09,-0.79,
2.74,1.30,0.51,1.76,-1.46,0.07,-0.81,
2.741,1.30,0.51,1.76,-1.50,0.06,-0.85,
2.741,1.30,0.51,1.76,-1.51,0.06,-0.85,
2.742,1.30,0.51,1.76,-1.53,0.06,-0.87,
2.744,1.15,0.30,2.74,-1.53,0.06,-0.87,
2.745,1.15,0.30,2.74,-1.54,0.06,-0.88,
2.747,1.15,0.30,2.74,-1.55,0.08,-0.89,
2.75,1.15,0.30,2.74,-1.56,0.11,-0.91,
2.75,1.15,0.30,2.74,-1.56,0.13,-0.91,
2.752,1.15,0.30,2.74,-1.55,0.16,-0.91,
2.754,0.85,-0.07,3.91,-1.55,0.16,-0.91,
2.754,0.85,-0.07,3.91,-1.54,0.20,-0.91,
2.756,0.85,-0.07,3.91,-1.52,0.24,-0.90,
2.759,0.85,-0.07,3.91,-1.48,0.30,-0.88,
2.762,0.85,-0.07,3.91,-1.43,0.36,-0.85,
2.763,0.85,-0.07,3.91,-1.41,0.38,-0.84,
2.765,0.26,-0.40,5.01,-1.41,0.38,-0.84,
2.765,0.26,-0.40,5.01,-1.39,0.40,-0.83,
2.766,0.26,-0.40,5.01,-1.35,0.45,-0.81,
2.769,0.26,-0.40,5.01,-1.28,0.51,-0.77,
2.77,0.26,-0.40,5.01,-1.25,0.53,-0.75,
2.772,0.26,-0.40,5.01,-1.20,0.57,-0.73,
2.774,-0.09,-0.63,5.43,-1.20,0.57,-0.73,
2.774,-0.09,-0.63,5.43,-1.14,0.60,-0.69,
2.776,-0.09,-0.63,5.43,-1.08,0.63,-0.66,
2.78,-0.09,-0.63,5.43,-0.99,0.67,-0.60,
2.78,-0.09,-0.63,5.43,-0.96,0.68,-0.58,
2.782,-0.09,-0.63,5.43,-0.91,0.69,-0.55,
2.784,-0.45,-0.69,5.23,-0.91,0.69,-0.55,
2.785,-0.45,-0.69,5.23,-0.85,0.70,-0.51,
2.787,-0.45,-0.69,5.23,-0.79,0.71,-0.47,
2.803,-0.45,-0.69,5.23,-0.70,0.71,-0.41,
2.803,-0.45,-0.69,5.23,-0.68,0.70,-0.39,
2.804,-0.45,-0.69,5.23,-0.62,0.69,-0.35,
2.804,-0.67,-0.64,4.52,-0.62,0.69,-0.35,
2.804,-0.67,-0.64,4.52,-0.57,0.67,-0.31,
2.805,-0.67,-0.64,4.52,-0.51,0.64,-0.27,
2.805,-0.67,-0.64,4.52,-0.44,0.59,-0.21,
2.805,-0.67,-0.64,4.52,-0.42,0.57,-0.20,
2.805,-0.67,-0.64,4.52,-0.37,0.52,-0.17,
2.806,-0.57,-0.41,3.60,-0.37,0.52,-0.17,
2.806,-0.57,-0.41,3.60,-0.33,0.47,-0.14,
2.806,-0.57,-0.41,3.60,-0.28,0.41,-0.11,
2.81,-0.57,-0.41,3.60,-0.22,0.33,-0.08,
2.811,-0.57,-0.41,3.60,-0.20,0.30,-0.07,
2.812,-0.57,-0.41,3.60,-0.16,0.24,-0.05,
2.816,-0.32,-0.15,2.72,-0.16,0.24,-0.05,
2.816,-0.32,-0.15,2.72,-0.12,0.18,-0.03,
2.818,-0.32,-0.15,2.72,-0.09,0.12,-0.01,
2.819,-0.32,-0.15,2.72,-0.04,0.03,0.01,
2.82,-0.32,-0.15,2.72,-0.03,-0.00,0.02,
2.822,-0.32,-0.15,2.72,0.00,-0.06,0.03,
2.824,-0.02,0.06,1.88,0.00,-0.06,0.03,
2.824,-0.02,0.06,1.88,0.03,-0.13,0.04,
2.826,-0.02,0.06,1.88,0.05,-0.19,0.04,
2.829,-0.02,0.06,1.88,0.07,-0.28,0.05,
2.833,-0.02,0.06,1.88,0.08,-0.31,0.05,
2.833,-0.02,0.06,1.88,0.09,-0.36,0.06,
2.837,0.36,0.15,1.14,0.09,-0.36,0.06,
2.838,0.36,0.15,1.14,0.10,-0.41,0.06,
2.838,0.36,0.15,1.14,0.11,-0.46,0.06,
2.84,0.36,0.15,1.14,0.12,-0.52,0.06,
2.84,0.36,0.15,1.14,0.12,-0.54,0.06,
2.842,0.36,0.15,1.14,0.12,-0.56,0.06,
2.844,0.59,0.19,0.54,0.12,-0.56,0.06,
2.844,0.59,0.19,0.54,0.12,-0.59,0.06,
2.846,0.59,0.19,0.54,0.12,-0.61,0.06,
2.85,0.59,0.19,0.54,0.11,-0.63,0.06,
2.854,0.59,0.19,0.54,0.11,-0.64,0.06,
2.855,0.59,0.19,0.54,0.11,-0.64,0.06,
2.855,0.77,0.06,0.11,0.11,-0.64,0.06,
2.855,0.77,0.06,0.11,0.11,-0.64,0.06,
2.856,0.77,0.06,0.11,0.10,-0.64,0.07,
2.869,0.77,0.06,0.11,0.09,-0.63,0.07,
2.869,0.77,0.06,0.11,0.09,-0.63,0.07,
2.869,0.77,0.06,0.11,0.08,-0.61,0.07,
2.87,0.82,-0.02,-0.21,0.08,-0.61,0.07,
2.87,0.82,-0.02,-0.21,0.08,-0.60,0.07,
2.87,0.82,-0.02,-0.21,0.07,-0.59,0.07,
2.87,0.82,-0.02,-0.21,0.06,-0.56,0.08,
2.873,0.82,-0.02,-0.21,0.05,-0.55,0.08,
2.873,0.82,-0.02,-0.21,0.05,-0.53,0.08,
2.874,0.90,-0.15,-0.47,0.05,-0.53,0.08,
2.875,0.90,-0.15,-0.47,0.04,-0.51,0.08,
2.876,0.90,-0.15,-0.47,0.04,-0.49,0.08,
2.884,0.90,-0.15,-0.47,0.03,-0.45,0.08,
2.885,0.90,-0.15,-0.47,0.02,-0.44,0.08,
2.885,0.90,-0.15,-0.47,0.02,-0.41,0.08,
2.887,0.94,-0.21,-0.67,0.02,-0.41,0.08,
2.887,0.94,-0.21,-0.67,0.03,-0.38,0.08,
2.888,0.94,-0.21,-0.67,0.02,-0.35,0.07,
2.889,0.94,-0.21,-0.67,0.02,-0.31,0.06,
2.891,0.94,-0.21,-0.67,0.02,-0.30,0.06,
2.893,0.94,-0.21,-0.67,0.03,-0.27,0.06,
2.894,0.95,-0.31,-0.83,0.03,-0.27,0.06,
2.894,0.95,-0.31,-0.83,0.03,-0.24,0.05,
2.896,0.95,-0.31,-0.83,0.03,-0.22,0.05,
2.899,0.95,-0.31,-0.83,0.03,-0.18,0.04,
2.9,0.95,-0.31,-0.83,0.04,-0.17,0.04,
2.902,0.95,-0.31,-0.83,0.04,-0.15,0.03,
2.905,0.79,-0.36,-1.14,0.04,-0.15,0.03,
2.908,0.79,-0.36,-1.14,0.04,-0.13,0.03,
2.908,0.79,-0.36,-1.14,0.05,-0.11,0.03,
2.909,0.79,-0.36,-1.14,0.06,-0.08,0.02,
2.91,0.79,-0.36,-1.14,0.06,-0.08,0.02,
2.913,0.79,-0.36,-1.14,0.06,-0.06,0.02,
2.915,0.62,-0.44,-1.58,0.06,-0.06,0.02,
2.915,0.62,-0.44,-1.58,0.06,-0.05,0.02,
2.916,0.62,-0.44,-1.58,0.06,-0.04,0.02,
2.92,0.62,-0.44,-1.58,0.06,-0.03,0.02,
2.921,0.62,-0.44,-1.58,0.06,-0.02,0.02,
2.922,0.62,-0.44,-1.58,0.06,-0.01,0.02,
2.925,0.47,-0.47,-2.09,0.06,-0.01,0.02,
2.925,0.47,-0.47,-2.09,0.06,-0.01,0.02,
2.926,0.47,-0.47,-2.09,0.06,0.00,0.02,
2.929,0.47,-0.47,-2.09,0.06,0.01,0.02,
2.931,0.47,-0.47,-2.09,0.06,0.02,0.02,
2.934,0.47,-0.47,-2.09,0.07,0.02,0.01,
2.935,0.39,-0.54,-2.44,0.07,0.02,0.01,
2.936,0.39,-0.54,-2.44,0.07,0.03,0.01,
2.936,0.39,-0.54,-2.44,0.07,0.03,0.01,
2.939,0.39,-0.54,-2.44,0.08,0.04,0.01,
2.94,0.39,-0.54,-2.44,0.08,0.04,0.01,
2.942,0.39,-0.54,-2.44,0.09,0.05,0.01,
2.944,0.25,-0.44,-2.65,0.09,0.05,0.01,
2.945,0.25,-0.44,-2.65,0.10,0.05,0.01,
2.946,0.25,-0.44,-2.65,0.11,0.05,0.01,
2.949,0.25,-0.44,-2.65,0.13,0.04,0.01,
2.951,0.25,-0.44,-2.65,0.13,0.03,0.00,
2.952,0.25,-0.44,-2.65,0.14,0.02,0.00,
2.954,0.26,-0.53,-2.78,0.14,0.02,0.00,
2.977,0.26,-0.53,-2.78,0.15,0.01,0.00,
2.978,0.26,-0.53,-2.78,0.16,0.00,0.00,
2.978,0.26,-0.53,-2.78,0.18,-0.01,0.00,
2.978,0.26,-0.53,-2.78,0.19,-0.02,0.00,
2.978,0.26,-0.53,-2.78,0.19,-0.03,-0.00,
2.979,0.15,-0.53,-2.95,0.19,-0.03,-0.00,
2.979,0.15,-0.53,-2.95,0.21,-0.04,-0.01,
2.979,0.15,-0.53,-2.95,0.22,-0.05,-0.01,
2.979,0.15,-0.53,-2.95,0.23,-0.08,-0.01,
2.98,0.15,-0.53,-2.95,0.23,-0.08,-0.02,
2.98,0.15,-0.53,-2.95,0.24,-0.10,-0.02,
2.98,0.26,-0.74,-3.27,0.24,-0.10,-0.02,
2.981,0.26,-0.74,-3.27,0.24,-0.11,-0.02,
2.981,0.26,-0.74,-3.27,0.24,-0.12,-0.03,
2.981,0.26,-0.74,-3.27,0.25,-0.14,-0.03,
2.981,0.26,-0.74,-3.27,0.25,-0.15,-0.03,
2.986,0.26,-0.74,-3.27,0.25,-0.15,-0.02,
2.987,0.16,-0.70,-3.44,0.25,-0.15,-0.02,
2.987,0.16,-0.70,-3.44,0.25,-0.17,-0.02,
2.987,0.16,-0.70,-3.44,0.25,-0.17,-0.02,
2.99,0.16,-0.70,-3.44,0.25,-0.18,-0.01,
2.99,0.16,-0.70,-3.44,0.26,-0.19,-0.01,
2.992,0.16,-0.70,-3.44,0.25,-0.19,-0.01,
2.994,0.09,-0.56,-3.56,0.25,-0.19,-0.01,
2.994,0.09,-0.56,-3.56,0.25,-0.19,-0.01,
2.996,0.09,-0.56,-3.56,0.24,-0.20,-0.00,
2.999,0.09,-0.56,-3.56,0.22,-0.21,-0.01,
3.0,0.09,-0.56,-3.56,0.22,-0.21,-0.01,
3.002,0.09,-0.56,-3.56,0.20,-0.22,-0.02,
3.004,0.25,-0.48,-3.73,0.20,-0.22,-0.02,
3.005,0.25,-0.48,-3.73,0.19,-0.23,-0.02,
3.006,0.25,-0.48,-3.73,0.17,-0.23,-0.03,
3.009,0.25,-0.48,-3.73,0.15,-0.24,-0.05,
3.01,0.25,-0.48,-3.73,0.14,-0.24,-0.05,
3.017,0.25,-0.48,-3.73,0.11,-0.25,-0.07,
3.018,0.54,-0.24,-3.84,0.11,-0.25,-0.07,
3.018,0.54,-0.24,-3.84,0.09,-0.26,-0.09,
3.018,0.54,-0.24,-3.84,0.06,-0.27,-0.10,
3.02,0.54,-0.24,-3.84,0.03,-0.28,-0.13,
3.022,0.54,-0.24,-3.84,0.01,-0.29,-0.14,
3.022,0.54,-0.24,-3.84,-0.01,-0.30,-0.16,
3.025,0.74,-0.19,-3.67,-0.01,-0.30,-0.16,
3.025,0.74,-0.19,-3.67,-0.04,-0.31,-0.19,
3.026,0.74,-0.19,-3.67,-0.06,-0.31,-0.21,
3.037,0.74,-0.19,-3.67,-0.10,-0.32,-0.25,
3.038,0.74,-0.19,-3.67,-0.11,-0.32,-0.26,
3.038,0.74,-0.19,-3.67,-0.13,-0.32,-0.28,
3.038,0.78,-0.06,-3.35,-0.13,-0.32,-0.28,
3.038,0.78,-0.06,-3.35,-0.15,-0.31,-0.30,
3.039,0.78,-0.06,-3.35,-0.18,-0.31,-0.32,
3.041,0.78,-0.06,-3.35,-0.20,-0.31,-0.34,
3.042,0.78,-0.06,-3.35,-0.21,-0.30,-0.35,
3.042,0.78,-0.06,-3.35,-0.22,-0.30,-0.36,
3.046,0.52,-0.01,-2.82,-0.22,-0.30,-0.36,
3.046,0.52,-0.01,-2.82,-0.24,-0.30,-0.37,
3.046,0.52,-0.01,-2.82,-0.25,-0.29,-0.37,
3.049,0.52,-0.01,-2.82,-0.27,-0.28,-0.38,
3.05,0.52,-0.01,-2.82,-0.28,-0.28,-0.38,
3.052,0.52,-0.01,-2.82,-0.29,-0.28,-0.38,
3.054,0.30,0.02,-2.32,-0.29,-0.28,-0.38,
3.054,0.30,0.02,-2.32,-0.31,-0.27,-0.39,
3.056,0.30,0.02,-2.32,-0.32,-0.27,-0.39,
3.059,0.30,0.02,-2.32,-0.34,-0.26,-0.38,
3.06,0.30,0.02,-2.32,-0.35,-0.25,-0.38,
3.062,0.30,0.02,-2.32,-0.36,-0.25,-0.38,
3.065,0.21,-0.04,-1.82,-0.36,-0.25,-0.38,
3.065,0.21,-0.04,-1.82,-0.37,-0.24,-0.38,
3.066,0.21,-0.04,-1.82,-0.38,-0.23,-0.38,
3.07,0.21,-0.04,-1.82,-0.40,-0.22,-0.37,
3.07,0.21,-0.04,-1.82,-0.41,-0.21,-0.37,
3.072,0.21,-0.04,-1.82,-0.41,-0.21,-0.37,
3.074,0.19,0.03,-1.21,-0.41,-0.21,-0.37,
3.075,0.19,0.03,-1.21,-0.42,-0.20,-0.37,
3.076,0.19,0.03,-1.21,-0.43,-0.19,-0.37,
3.08,0.19,0.03,-1.21,-0.44,-0.18,-0.37,
3.081,0.19,0.03,-1.21,-0.44,-0.17,-0.37,
3.082,0.19,0.03,-1.21,-0.45,-0.16,-0.37,
3.086,0.19,0.08,-0.47,-0.45,-0.16,-0.37,
3.086,0.19,0.08,-0.47,-0.45,-0.16,-0.37,
3.088,0.19,0.08,-0.47,-0.45,-0.15,-0.36,
3.089,0.19,0.08,-0.47,-0.45,-0.13,-0.36,
3.09,0.19,0.08,-0.47,-0.45,-0.12,-0.35,
3.092,0.19,0.08,-0.47,-0.45,-0.10,-0.34,
3.094,0.10,0.04,0.28,-0.45,-0.10,-0.34,
3.095,0.10,0.04,0.28,-0.44,-0.08,-0.33,
3.098,0.10,0.04,0.28,-0.44,-0.06,-0.32,
3.101,0.10,0.04,0.28,-0.43,-0.02,-0.30,
3.102,0.10,0.04,0.28,-0.42,0.01,-0.28,
3.105,0.10,0.04,0.28,-0.42,0.02,-0.28,
3.106,-0.07,-0.00,1.02,-0.42,0.02,-0.28,
3.107,-0.07,-0.00,1.02,-0.40,0.06,-0.26,
3.107,-0.07,-0.00,1.02,-0.39,0.10,-0.24,
3.109,-0.07,-0.00,1.02,-0.37,0.16,-0.21,
3.113,-0.07,-0.00,1.02,-0.34,0.23,-0.17,
3.113,-0.07,-0.00,1.02,-0.33,0.25,-0.16,
3.114,-0.30,-0.01,1.75,-0.33,0.25,-0.16,
3.115,-0.30,-0.01,1.75,-0.32,0.27,-0.15,
3.116,-0.30,-0.01,1.75,-0.31,0.32,-0.12,
3.121,-0.30,-0.01,1.75,-0.27,0.39,-0.09,
3.122,-0.30,-0.01,1.75,-0.26,0.42,-0.08,
3.142,-0.30,-0.01,1.75,-0.24,0.46,-0.06,
3.142,-0.34,0.10,2.27,-0.24,0.46,-0.06,
3.143,-0.34,0.10,2.27,-0.22,0.50,-0.04,
3.143,-0.34,0.10,2.27,-0.19,0.54,-0.01,
3.143,-0.34,0.10,2.27,-0.15,0.59,0.01,
3.143,-0.34,0.10,2.27,-0.14,0.61,0.02,
3.144,-0.34,0.10,2.27,-0.11,0.64,0.04,
3.144,-0.46,0.35,2.61,-0.11,0.64,0.04,
3.144,-0.46,0.35,2.61,-0.09,0.67,0.05,
3.145,-0.46,0.35,2.61,-0.06,0.69,0.06,
3.145,-0.46,0.35,2.61,-0.02,0.73,0.08,
3.145,-0.46,0.35,2.61,-0.01,0.74,0.09,
3.145,-0.46,0.35,2.61,0.02,0.75,0.10,
3.146,-0.54,0.67,2.70,0.02,0.75,0.10,
3.146,-0.54,0.67,2.70,0.05,0.76,0.10,
3.146,-0.54,0.67,2.70,0.08,0.76,0.11,
3.151,-0.54,0.67,2.70,0.12,0.76,0.12,
3.151,-0.54,0.67,2.70,0.13,0.76,0.12,
3.153,-0.54,0.67,2.70,0.16,0.75,0.13,
3.155,-0.54,0.95,2.66,0.16,0.75,0.13,
3.155,-0.54,0.95,2.66,0.18,0.74,0.14,
3.156,-0.54,0.95,2.66,0.21,0.73,0.15,
3.159,-0.54,0.95,2.66,0.25,0.70,0.16,
3.16,-0.54,0.95,2.66,0.26,0.69,0.17,
3.168,-0.54,0.95,2.66,0.29,0.68,0.18,
3.168,-0.63,1.14,2.58,0.29,0.68,0.18,
3.169,-0.63,1.14,2.58,0.31,0.66,0.19,
3.169,-0.63,1.14,2.58,0.34,0.64,0.20,
3.169,-0.63,1.14,2.58,0.37,0.61,0.23,
3.174,-0.63,1.14,2.58,0.38,0.61,0.24,
3.174,-0.63,1.14,2.58,0.40,0.59,0.25,
3.176,-0.71,1.25,2.42,0.40,0.59,0.25,
3.176,-0.71,1.25,2.42,0.42,0.57,0.26,
3.192,-0.71,1.25,2.42,0.44,0.55,0.28,
3.192,-0.71,1.25,2.42,0.46,0.53,0.30,
3.192,-0.71,1.25,2.42,0.47,0.51,0.31,
3.192,-0.71,1.25,2.42,0.48,0.50,0.31,
3.193,-0.64,1.31,2.19,0.48,0.50,0.31,
3.193,-0.64,1.31,2.19,0.49,0.48,0.32,
3.194,-0.64,1.31,2.19,0.50,0.46,0.32,
3.194,-0.64,1.31,2.19,0.52,0.43,0.33,
3.194,-0.64,1.31,2.19,0.52,0.41,0.33,
3.195,-0.64,1.31,2.19,0.52,0.40,0.33,
3.197,-0.37,1.43,1.98,0.52,0.40,0.33,
3.197,-0.37,1.43,1.98,0.53,0.38,0.33,
3.197,-0.37,1.43,1.98,0.54,0.35,0.33,
3.199,-0.37,1.43,1.98,0.54,0.31,0.32,
3.201,-0.37,1.43,1.98,0.54,0.28,0.31,
3.202,-0.37,1.43,1.98,0.55,0.27,0.31,
3.204,-0.14,1.51,1.89,0.55,0.27,0.31,
3.205,-0.14,1.51,1.89,0.55,0.24,0.30,
3.206,-0.14,1.51,1.89,0.55,0.20,0.29,
3.209,-0.14,1.51,1.89,0.55,0.15,0.28,
3.211,-0.14,1.51,1.89,0.56,0.12,0.27,
3.212,-0.14,1.51,1.89,0.56,0.10,0.27,
3.215,-0.04,1.48,1.86,0.56,0.10,0.27,
3.215,-0.04,1.48,1.86,0.55,0.06,0.26,
3.217,-0.04,1.48,1.86,0.55,0.03,0.26,
3.22,-0.04,1.48,1.86,0.55,-0.02,0.25,
3.22,-0.04,1.48,1.86,0.55,-0.06,0.24,
3.222,-0.04,1.48,1.86,0.54,-0.07,0.24,
3.224,-0.07,1.45,1.86,0.54,-0.07,0.24,
3.224,-0.07,1.45,1.86,0.54,-0.10,0.24,
3.226,-0.07,1.45,1.86,0.53,-0.12,0.24,
3.229,-0.07,1.45,1.86,0.52,-0.15,0.23,
3.23,-0.07,1.45,1.86,0.51,-0.17,0.23,
3.232,-0.07,1.45,1.86,0.50,-0.18,0.23,
3.234,-0.12,1.55,1.82,0.50,-0.18,0.23,
3.234,-0.12,1.55,1.82,0.49,-0.18,0.23,
3.236,-0.12,1.55,1.82,0.48,-0.19,0.23,
3.239,-0.12,1.55,1.82,0.45,-0.20,0.23,
3.24,-0.12,1.55,1.82,0.43,-0.20,0.22,
3.242,-0.12,1.55,1.82,0.42,-0.19,0.22,
3.247,-0.22,1.63,1.64,0.42,-0.19,0.22,
3.248,-0.22,1.63,1.64,0.39,-0.19,0.22,
3.248,-0.22,1.63,1.64,0.37,-0.19,0.21,
3.253,-0.22,1.63,1.64,0.32,-0.18,0.20,
3.254,-0.22,1.63,1.64,0.29,-0.18,0.20,
3.255,-0.22,1.63,1.64,0.28,-0.18,0.19,
3.256,-0.20,1.66,1.45,0.28,-0.18,0.19,
3.256,-0.20,1.66,1.45,0.24,-0.17,0.18,
3.256,-0.20,1.66,1.45,0.20,-0.17,0.17,
3.259,-0.20,1.66,1.45,0.14,-0.17,0.16,
3.273,-0.20,1.66,1.45,0.10,-0.17,0.14,
3.273,-0.20,1.66,1.45,0.08,-0.17,0.14,
3.273,-0.12,1.51,1.37,0.08,-0.17,0.14,
3.273,-0.12,1.51,1.37,0.04,-0.17,0.12,
3.274,-0.12,1.51,1.37,-0.01,-0.17,0.11,
3.274,-0.12,1.51,1.37,-0.07,-0.17,0.09,
3.274,-0.12,1.51,1.37,-0.11,-0.16,0.07,
3.274,-0.12,1.51,1.37,-0.14,-0.16,0.07,
3.276,-0.17,1.33,1.65,-0.14,-0.16,0.07,
3.276,-0.17,1.33,1.65,-0.17,-0.16,0.05,
3.277,-0.17,1.33,1.65,-0.20,-0.15,0.04,
3.279,-0.17,1.33,1.65,-0.25,-0.14,0.03,
3.28,-0.17,1.33,1.65,-0.27,-0.14,0.02,
3.282,-0.17,1.33,1.65,-0.28,-0.14,0.02,
3.284,-0.66,1.12,2.38,-0.28,-0.14,0.02,
3.285,-0.66,1.12,2.38,-0.30,-0.14,0.02,
3.287,-0.66,1.12,2.38,-0.31,-0.14,0.03,
3.302,-0.66,1.12,2.38,-0.33,-0.14,0.03,
3.302,-0.66,1.12,2.38,-0.33,-0.14,0.04,
3.303,-0.66,1.12,2.38,-0.33,-0.14,0.05,
3.303,-1.39,0.82,3.39,-0.33,-0.14,0.05,
3.303,-1.39,0.82,3.39,-0.32,-0.14,0.07,
3.303,-1.39,0.82,3.39,-0.32,-0.14,0.09,
3.303,-1.39,0.82,3.39,-0.29,-0.13,0.13,
3.304,-1.39,0.82,3.39,-0.28,-0.12,0.16,
3.304,-1.39,0.82,3.39,-0.27,-0.11,0.17,
3.304,-1.93,0.32,4.28,-0.27,-0.11,0.17,
3.304,-1.93,0.32,4.28,-0.24,-0.10,0.21,
3.308,-1.93,0.32,4.28,-0.21,-0.09,0.24,
3.312,-1.93,0.32,4.28,-0.16,-0.06,0.30,
3.312,-1.93,0.32,4.28,-0.11,-0.04,0.35,
3.314,-1.93,0.32,4.28,-0.09,-0.03,0.37,
3.315,-2.34,-0.22,4.93,-0.09,-0.03,0.37,
3.315,-2.34,-0.22,4.93,-0.05,-0.01,0.41,
3.316,-2.34,-0.22,4.93,-0.00,0.01,0.45,
3.32,-2.34,-0.22,4.93,0.09,0.05,0.52,
3.321,-2.34,-0.22,4.93,0.14,0.08,0.57,
3.322,-2.34,-0.22,4.93,0.17,0.10,0.60,
3.324,-2.49,-0.51,5.27,0.17,0.10,0.60,
3.325,-2.49,-0.51,5.27,0.23,0.13,0.64,
3.326,-2.49,-0.51,5.27,0.29,0.16,0.69,
3.329,-2.49,-0.51,5.27,0.39,0.20,0.75,
3.331,-2.49,-0.51,5.27,0.45,0.23,0.80,
3.333,-2.49,-0.51,5.27,0.48,0.24,0.82,
3.335,-2.47,-0.70,4.90,0.48,0.24,0.82,
3.335,-2.47,-0.70,4.90,0.53,0.26,0.86,
3.336,-2.47,-0.70,4.90,0.58,0.29,0.90,
3.339,-2.47,-0.70,4.90,0.66,0.31,0.95,
3.34,-2.47,-0.70,4.90,0.71,0.32,0.99,
3.342,-2.47,-0.70,4.90,0.73,0.32,1.00,
3.345,-2.31,-0.69,3.88,0.73,0.32,1.00,
3.345,-2.31,-0.69,3.88,0.77,0.33,1.04,
3.347,-2.31,-0.69,3.88,0.80,0.33,1.06,
3.349,-2.31,-0.69,3.88,0.85,0.33,1.11,
3.35,-2.31,-0.69,3.88,0.87,0.32,1.13,
3.352,-2.31,-0.69,3.88,0.88,0.32,1.14,
3.354,-2.21,-0.50,2.52,0.88,0.32,1.14,
3.354,-2.21,-0.50,2.52,0.89,0.31,1.16,
3.356,-2.21,-0.50,2.52,0.90,0.30,1.18,
3.359,-2.21,-0.50,2.52,0.91,0.27,1.20,
3.36,-2.21,-0.50,2.52,0.91,0.25,1.22,
3.363,-2.21,-0.50,2.52,0.91,0.25,1.22,
3.365,-1.91,-0.21,1.12,0.91,0.25,1.22,
3.365,-1.91,-0.21,1.12,0.90,0.23,1.23,
3.366,-1.91,-0.21,1.12,0.89,0.20,1.23,
3.369,-1.91,-0.21,1.12,0.86,0.17,1.23,
3.37,-1.91,-0.21,1.12,0.84,0.14,1.23,
3.372,-1.91,-0.21,1.12,0.83,0.13,1.23,
3.374,-1.56,-0.00,-0.11,0.83,0.13,1.23,
3.374,-1.56,-0.00,-0.11,0.78,0.09,1.22,
3.376,-1.56,-0.00,-0.11,0.75,0.06,1.21,
3.379,-1.56,-0.00,-0.11,0.71,0.03,1.20,
3.38,-1.56,-0.00,-0.11,0.66,-0.01,1.19,
3.382,-1.56,-0.00,-0.11,0.61,-0.05,1.18,
3.384,-1.04,0.19,-1.18,0.61,-0.05,1.18,
3.384,-1.04,0.19,-1.18,0.56,-0.10,1.16,
3.386,-1.04,0.19,-1.18,0.50,-0.14,1.14,
3.389,-1.04,0.19,-1.18,0.42,-0.22,1.11,
3.39,-1.04,0.19,-1.18,0.38,-0.24,1.09,
3.392,-1.04,0.19,-1.18,0.32,-0.29,1.07,
3.394,-0.51,0.32,-1.56,0.32,-0.29,1.07,
3.394,-0.51,0.32,-1.56,0.26,-0.34,1.04,
3.396,-0.51,0.32,-1.56,0.20,-0.38,1.01,
3.399,-0.51,0.32,-1.56,0.14,-0.43,0.97,
3.4,-0.51,0.32,-1.56,0.07,-0.47,0.94,
3.402,-0.51,0.32,-1.56,0.02,-0.50,0.91,
3.404,-0.06,0.25,-1.12,0.02,-0.50,0.91,
3.404,-0.06,0.25,-1.12,-0.03,-0.54,0.87,
3.406,-0.06,0.25,-1.12,-0.08,-0.56,0.84,
3.409,-0.06,0.25,-1.12,-0.13,-0.58,0.81,
3.412,-0.06,0.25,-1.12,-0.17,-0.60,0.77,
3.412,-0.06,0.25,-1.12,-0.20,-0.61,0.75,
3.414,0.11,0.02,-0.12,-0.20,-0.61,0.75,
3.414,0.11,0.02,-0.12,-0.23,-0.62,0.72,
3.42,0.11,0.02,-0.12,-0.26,-0.63,0.69,
3.421,0.11,0.02,-0.12,-0.28,-0.63,0.66,
3.423,0.11,0.02,-0.12,-0.30,-0.62,0.64,
3.423,0.11,0.02,-0.12,-0.31,-0.62,0.62,
3.424,0.21,-0.26,0.89,-0.31,-0.62,0.62,
3.425,0.21,-0.26,0.89,-0.32,-0.61,0.60,
3.431,0.21,-0.26,0.89,-0.33,-0.59,0.58,
3.432,0.21,-0.26,0.89,-0.33,-0.57,0.55,
3.432,0.21,-0.26,0.89,-0.33,-0.56,0.54,
3.433,0.21,-0.26,0.89,-0.33,-0.53,0.52,
3.439,0.22,-0.69,1.68,-0.33,-0.53,0.52,
3.44,0.22,-0.69,1.68,-0.32,-0.50,0.51,
3.44,0.22,-0.69,1.68,-0.32,-0.47,0.50,
3.44,0.22,-0.69,1.68,-0.30,-0.43,0.49,
3.441,0.22,-0.69,1.68,-0.29,-0.38,0.48,
3.443,0.22,-0.69,1.68,-0.27,-0.33,0.48,
3.448,0.14,-1.00,2.01,-0.27,-0.33,0.48,
3.449,0.14,-1.00,2.01,-0.26,-0.28,0.47,
3.45,0.14,-1.00,2.01,-0.23,-0.23,0.47,
3.45,0.14,-1.00,2.01,-0.21,-0.18,0.46,
3.451,0.14,-1.00,2.01,-0.20,-0.12,0.46,
3.455,0.14,-1.00,2.01,-0.18,-0.06,0.45,
3.455,0.10,-1.28,2.00,-0.18,-0.06,0.45,
3.479,0.10,-1.28,2.00,-0.15,-0.01,0.45,
3.48,0.10,-1.28,2.00,-0.13,0.05,0.45,
3.48,0.10,-1.28,2.00,-0.11,0.11,0.45,
3.48,0.10,-1.28,2.00,-0.08,0.19,0.45,
3.481,0.10,-1.28,2.00,-0.07,0.21,0.45,
3.481,0.02,-1.35,1.54,-0.07,0.21,0.45,
3.481,0.02,-1.35,1.54,-0.05,0.26,0.45,
3.482,0.02,-1.35,1.54,-0.03,0.30,0.45,
3.482,0.02,-1.35,1.54,-0.01,0.34,0.46,
3.482,0.02,-1.35,1.54,0.01,0.37,0.46,
3.482,0.02,-1.35,1.54,0.02,0.40,0.46,
3.483,-0.10,-1.31,0.90,0.02,0.40,0.46,
3.483,-0.10,-1.31,0.90,0.04,0.44,0.47,
3.483,-0.10,-1.31,0.90,0.05,0.46,0.47,
3.483,-0.10,-1.31,0.90,0.07,0.49,0.47,
3.484,-0.10,-1.31,0.90,0.08,0.51,0.48,
3.484,-0.10,-1.31,0.90,0.09,0.53,0.48,
3.492,-0.10,-1.31,0.90,0.11,0.56,0.49,
3.493,-0.10,-1.31,0.90,0.11,0.56,0.49,
3.493,-0.20,-1.14,-0.16,0.11,0.56,0.49,
3.493,-0.20,-1.14,-0.16,0.13,0.57,0.49,
3.493,-0.20,-1.14,-0.16,0.14,0.57,0.50,
3.494,-0.20,-1.14,-0.16,0.15,0.57,0.50,
3.495,-0.17,-1.12,-0.52,0.15,0.57,0.50,
3.496,-0.17,-1.12,-0.52,0.16,0.57,0.50,
3.496,-0.17,-1.12,-0.52,0.17,0.56,0.51,
3.5,-0.17,-1.12,-0.52,0.18,0.56,0.51,
3.5,-0.17,-1.12,-0.52,0.19,0.55,0.51,
3.504,-0.17,-1.12,-0.52,0.20,0.55,0.51,
3.504,-0.07,-1.03,-1.02,0.20,0.55,0.51,
3.505,-0.07,-1.03,-1.02,0.21,0.54,0.52,
3.508,-0.07,-1.03,-1.02,0.22,0.53,0.52,
3.511,-0.07,-1.03,-1.02,0.23,0.52,0.52,
3.511,-0.07,-1.03,-1.02,0.24,0.51,0.52,
3.512,-0.07,-1.03,-1.02,0.26,0.50,0.52,
3.515,0.06,-0.99,-1.41,0.26,0.50,0.52,
3.515,0.06,-0.99,-1.41,0.27,0.48,0.52,
3.516,0.06,-0.99,-1.41,0.28,0.47,0.52,
3.521,0.06,-0.99,-1.41,0.30,0.46,0.52,
3.521,0.06,-0.99,-1.41,0.30,0.44,0.52,
3.524,0.06,-0.99,-1.41,0.32,0.43,0.52,
3.524,0.19,-0.96,-1.78,0.32,0.43,0.52,
3.525,0.19,-0.96,-1.78,0.32,0.41,0.51,
3.527,0.19,-0.96,-1.78,0.34,0.39,0.51,
3.532,0.19,-0.96,-1.78,0.34,0.38,0.51,
3.532,0.19,-0.96,-1.78,0.35,0.36,0.50,
3.533,0.19,-0.96,-1.78,0.36,0.35,0.50,
3.536,0.35,-0.93,-2.15,0.36,0.35,0.50,
3.536,0.35,-0.93,-2.15,0.36,0.34,0.49,
3.536,0.35,-0.93,-2.15,0.37,0.33,0.48,
3.539,0.35,-0.93,-2.15,0.37,0.32,0.48,
3.54,0.35,-0.93,-2.15,0.38,0.31,0.47,
3.548,0.35,-0.93,-2.15,0.39,0.30,0.46,
3.549,0.47,-0.91,-2.47,0.39,0.30,0.46,
3.549,0.47,-0.91,-2.47,0.39,0.29,0.45,
3.549,0.47,-0.91,-2.47,0.39,0.28,0.45,
3.552,0.47,-0.91,-2.47,0.40,0.27,0.44,
3.553,0.47,-0.91,-2.47,0.40,0.27,0.43,
3.553,0.47,-0.91,-2.47,0.40,0.26,0.43,
3.557,0.54,-0.90,-2.70,0.40,0.26,0.43,
3.557,0.54,-0.90,-2.70,0.40,0.25,0.42,
3.557,0.54,-0.90,-2.70,0.40,0.25,0.41,
3.569,0.54,-0.90,-2.70,0.40,0.24,0.40,
3.57,0.54,-0.90,-2.70,0.40,0.24,0.40,
3.57,0.54,-0.90,-2.70,0.40,0.24,0.39,
3.57,0.51,-0.94,-2.85,0.40,0.24,0.39,
3.57,0.51,-0.94,-2.85,0.39,0.24,0.38,
3.571,0.51,-0.94,-2.85,0.39,0.24,0.38,
3.571,0.51,-0.94,-2.85,0.39,0.24,0.37,
3.571,0.51,-0.94,-2.85,0.38,0.25,0.36,
3.574,0.51,-0.94,-2.85,0.38,0.25,0.35,
3.575,0.52,-0.93,-3.00,0.38,0.25,0.35,
3.575,0.52,-0.93,-3.00,0.36,0.25,0.35,
3.577,0.52,-0.93,-3.00,0.35,0.26,0.34,
3.58,0.52,-0.93,-3.00,0.35,0.26,0.33,
3.58,0.52,-0.93,-3.00,0.34,0.26,0.32,
3.582,0.52,-0.93,-3.00,0.33,0.27,0.32,
3.585,0.43,-0.92,-3.04,0.33,0.27,0.32,
3.585,0.43,-0.92,-3.04,0.32,0.28,0.31,
3.586,0.43,-0.92,-3.04,0.32,0.28,0.30,
3.591,0.43,-0.92,-3.04,0.31,0.27,0.29,
3.595,0.43,-0.92,-3.04,0.31,0.27,0.29,
3.597,0.43,-0.92,-3.04,0.29,0.27,0.29,
3.597,0.34,-1.07,-2.89,0.29,0.27,0.29,
3.597,0.34,-1.07,-2.89,0.29,0.26,0.28,
3.598,0.34,-1.07,-2.89,0.28,0.25,0.28,
3.6,0.34,-1.07,-2.89,0.28,0.25,0.28,
3.6,0.34,-1.07,-2.89,0.28,0.24,0.28,
3.603,0.34,-1.07,-2.89,0.27,0.24,0.28,
3.606,0.26,-1.17,-2.69,0.27,0.24,0.28,
3.607,0.26,-1.17,-2.69,0.27,0.23,0.28,
3.607,0.26,-1.17,-2.69,0.27,0.23,0.27,
3.609,0.26,-1.17,-2.69,0.27,0.23,0.28,
3.612,0.26,-1.17,-2.69,0.27,0.22,0.28,
3.613,0.26,-1.17,-2.69,0.28,0.22,0.28,
3.616,0.24,-1.18,-2.41,0.28,0.22,0.28,
3.616,0.24,-1.18,-2.41,0.28,0.21,0.28,
3.616,0.24,-1.18,-2.41,0.29,0.21,0.28,
3.619,0.24,-1.18,-2.41,0.30,0.20,0.28,
3.621,0.24,-1.18,-2.41,0.30,0.20,0.28,
3.643,0.24,-1.18,-2.41,0.31,0.19,0.28,
3.643,0.28,-1.19,-2.11,0.31,0.19,0.28,
3.643,0.28,-1.19,-2.11,0.32,0.18,0.28,
3.644,0.28,-1.19,-2.11,0.34,0.17,0.27,
3.644,0.28,-1.19,-2.11,0.35,0.16,0.27,
3.644,0.28,-1.19,-2.11,0.36,0.15,0.27,
3.644,0.28,-1.19,-2.11,0.37,0.13,0.27,
3.645,0.37,-1.23,-1.92,0.37,0.13,0.27,
3.645,0.37,-1.23,-1.92,0.38,0.12,0.26,
3.645,0.37,-1.23,-1.92,0.39,0.11,0.26,
3.646,0.37,-1.23,-1.92,0.40,0.08,0.25,
3.646,0.37,-1.23,-1.92,0.41,0.07,0.25,
3.646,0.37,-1.23,-1.92,0.41,0.06,0.24,
3.646,0.45,-1.19,-1.89,0.41,0.06,0.24,
3.647,0.45,-1.19,-1.89,0.42,0.04,0.24,
3.647,0.45,-1.19,-1.89,0.43,0.03,0.23,
3.653,0.45,-1.19,-1.89,0.43,0.01,0.22,
3.653,0.45,-1.19,-1.89,0.44,-0.00,0.22,
3.653,0.45,-1.19,-1.89,0.44,-0.02,0.21,
3.655,0.49,-1.17,-1.95,0.44,-0.02,0.21,
3.655,0.49,-1.17,-1.95,0.44,-0.03,0.20,
3.656,0.49,-1.17,-1.95,0.44,-0.04,0.20,
3.659,0.49,-1.17,-1.95,0.44,-0.06,0.19,
3.663,0.49,-1.17,-1.95,0.44,-0.07,0.18,
3.664,0.49,-1.17,-1.95,0.44,-0.08,0.17,
3.666,0.52,-1.14,-1.94,0.44,-0.08,0.17,
3.667,0.52,-1.14,-1.94,0.44,-0.09,0.17,
3.667,0.52,-1.14,-1.94,0.43,-0.10,0.16,
3.669,0.52,-1.14,-1.94,0.43,-0.12,0.14,
3.67,0.52,-1.14,-1.94,0.43,-0.13,0.14,
3.672,0.52,-1.14,-1.94,0.42,-0.13,0.13,
3.674,0.51,-1.13,-1.90,0.42,-0.13,0.13,
3.675,0.51,-1.13,-1.90,0.41,-0.14,0.12,
3.68,0.51,-1.13,-1.90,0.41,-0.14,0.11,
3.681,0.51,-1.13,-1.90,0.40,-0.14,0.10,
3.681,0.51,-1.13,-1.90,0.39,-0.14,0.10,
3.683,0.51,-1.13,-1.90,0.39,-0.14,0.09,
3.685,0.42,-1.13,-1.78,0.39,-0.14,0.09,
3.685,0.42,-1.13,-1.78,0.38,-0.13,0.09,
3.686,0.42,-1.13,-1.78,0.37,-0.13,0.08,
3.69,0.42,-1.13,-1.78,0.36,-0.12,0.07,
3.692,0.42,-1.13,-1.78,0.36,-0.12,0.06,
3.692,0.42,-1.13,-1.78,0.35,-0.12,0.06,
3.697,0.34,-1.15,-1.50,0.35,-0.12,0.06,
3.697,0.34,-1.15,-1.50,0.35,-0.12,0.05,
3.698,0.34,-1.15,-1.50,0.34,-0.11,0.04,
3.699,0.34,-1.15,-1.50,0.33,-0.10,0.04,
3.7,0.34,-1.15,-1.50,0.33,-0.10,0.04,
3.702,0.34,-1.15,-1.50,0.32,-0.09,0.03,
3.704,0.34,-1.14,-1.16,0.32,-0.09,0.03,
3.704,0.34,-1.14,-1.16,0.32,-0.09,0.02,
3.706,0.34,-1.14,-1.16,0.31,-0.08,0.02,
3.709,0.34,-1.14,-1.16,0.31,-0.07,0.01,
3.71,0.34,-1.14,-1.16,0.31,-0.07,0.00,
3.712,0.34,-1.14,-1.16,0.30,-0.06,-0.00,
3.714,0.39,-1.13,-0.82,0.30,-0.06,-0.00,
3.715,0.39,-1.13,-0.82,0.30,-0.06,-0.01,
3.716,0.39,-1.13,-0.82,0.29,-0.06,-0.02,
3.719,0.39,-1.13,-0.82,0.29,-0.06,-0.03,
3.72,0.39,-1.13,-0.82,0.29,-0.06,-0.04,
3.722,0.39,-1.13,-0.82,0.29,-0.06,-0.05,
3.724,0.43,-1.04,-0.47,0.29,-0.06,-0.05,
3.725,0.43,-1.04,-0.47,0.28,-0.06,-0.06,
3.726,0.43,-1.04,-0.47,0.28,-0.07,-0.07,
3.729,0.43,-1.04,-0.47,0.28,-0.08,-0.08,
3.73,0.43,-1.04,-0.47,0.27,-0.09,-0.09,
3.732,0.43,-1.04,-0.47,0.27,-0.11,-0.10,
3.734,0.44,-0.96,-0.13,0.27,-0.11,-0.10,
3.734,0.44,-0.96,-0.13,0.27,-0.13,-0.11,
3.736,0.44,-0.96,-0.13,0.26,-0.14,-0.12,
3.739,0.44,-0.96,-0.13,0.26,-0.17,-0.13,
3.74,0.44,-0.96,-0.13,0.25,-0.18,-0.14,
3.742,0.44,-0.96,-0.13,0.25,-0.21,-0.15,
3.744,0.44,-0.87,0.21,0.25,-0.21,-0.15,
3.744,0.44,-0.87,0.21,0.25,-0.23,-0.16,
3.747,0.44,-0.87,0.21,0.25,-0.24,-0.17,
3.749,0.44,-0.87,0.21,0.24,-0.26,-0.18,
3.75,0.44,-0.87,0.21,0.24,-0.27,-0.19,
3.752,0.44,-0.87,0.21,0.24,-0.28,-0.20,
3.754,0.52,-0.82,0.46,0.24,-0.28,-0.20,
3.754,0.52,-0.82,0.46,0.23,-0.29,-0.21,
3.756,0.52,-0.82,0.46,0.23,-0.29,-0.22,
3.759,0.52,-0.82,0.46,0.22,-0.30,-0.24,
3.76,0.52,-0.82,0.46,0.21,-0.31,-0.24,
3.762,0.52,-0.82,0.46,0.20,-0.31,-0.25,
3.764,0.62,-0.72,0.55,0.20,-0.31,-0.25,
3.765,0.62,-0.72,0.55,0.20,-0.32,-0.27,
3.766,0.62,-0.72,0.55,0.19,-0.32,-0.28,
3.769,0.62,-0.72,0.55,0.17,-0.33,-0.30,
3.77,0.62,-0.72,0.55,0.17,-0.33,-0.30,
3.772,0.62,-0.72,0.55,0.16,-0.34,-0.32,
3.774,0.63,-0.69,0.61,0.16,-0.34,-0.32,
3.774,0.63,-0.69,0.61,0.15,-0.34,-0.32,
3.776,0.63,-0.69,0.61,0.14,-0.34,-0.33,
3.779,0.63,-0.69,0.61,0.12,-0.35,-0.34,
3.78,0.63,-0.69,0.61,0.12,-0.35,-0.34,
3.782,0.63,-0.69,0.61,0.11,-0.35,-0.35,
3.784,0.52,-0.58,0.60,0.11,-0.35,-0.35,
3.784,0.52,-0.58,0.60,0.09,-0.35,-0.36,
3.786,0.52,-0.58,0.60,0.08,-0.36,-0.37,
3.809,0.52,-0.58,0.60,0.06,-0.36,-0.37,
3.81,0.52,-0.58,0.60,0.05,-0.36,-0.37,
3.811,0.52,-0.58,0.60,0.04,-0.37,-0.38,
3.811,0.45,-0.51,0.61,0.04,-0.37,-0.38,
3.812,0.45,-0.51,0.61,0.03,-0.38,-0.38,
3.812,0.45,-0.51,0.61,0.01,-0.38,-0.38,
3.813,0.45,-0.51,0.61,-0.01,-0.39,-0.38,
3.814,0.45,-0.51,0.61,-0.02,-0.39,-0.38,
3.814,0.45,-0.51,0.61,-0.03,-0.39,-0.38,
3.815,0.40,-0.45,0.72,-0.03,-0.39,-0.38,
3.816,0.40,-0.45,0.72,-0.03,-0.40,-0.37,
3.816,0.40,-0.45,0.72,-0.04,-0.39,-0.37,
3.817,0.40,-0.45,0.72,-0.06,-0.39,-0.35,
3.817,0.40,-0.45,0.72,-0.06,-0.39,-0.34,
3.818,0.40,-0.45,0.72,-0.07,-0.39,-0.34,
3.818,0.39,-0.27,0.93,-0.07,-0.39,-0.34,
3.818,0.39,-0.27,0.93,-0.07,-0.38,-0.33,
3.819,0.39,-0.27,0.93,-0.08,-0.38,-0.32,
3.819,0.39,-0.27,0.93,-0.09,-0.36,-0.30,
3.835,0.39,-0.27,0.93,-0.10,-0.36,-0.30,
3.836,0.39,-0.27,0.93,-0.10,-0.35,-0.29,
3.837,0.62,-0.09,0.95,-0.10,-0.35,-0.29,
3.837,0.62,-0.09,0.95,-0.12,-0.34,-0.28,
3.837,0.62,-0.09,0.95,-0.13,-0.34,-0.28,
3.838,0.62,-0.09,0.95,-0.16,-0.34,-0.28,
3.838,0.62,-0.09,0.95,-0.17,-0.34,-0.28,
3.838,0.62,-0.09,0.95,-0.19,-0.35,-0.28,
3.839,1.14,-0.03,0.85,-0.19,-0.35,-0.28,
3.839,1.14,-0.03,0.85,-0.21,-0.35,-0.29,
3.84,1.14,-0.03,0.85,-0.24,-0.34,-0.30,
3.843,1.14,-0.03,0.85,-0.28,-0.33,-0.32,
3.844,1.14,-0.03,0.85,-0.30,-0.33,-0.33,
3.844,1.14,-0.03,0.85,-0.33,-0.33,-0.35,
3.847,1.64,0.19,0.57,-0.33,-0.33,-0.35,
3.847,1.64,0.19,0.57,-0.37,-0.33,-0.36,
3.851,1.64,0.19,0.57,-0.41,-0.33,-0.38,
3.851,1.64,0.19,0.57,-0.47,-0.33,-0.42,
3.851,1.64,0.19,0.57,-0.50,-0.33,-0.43,
3.852,1.64,0.19,0.57,-0.54,-0.33,-0.46,
3.855,2.14,0.53,0.34,-0.54,-0.33,-0.46,
3.855,2.14,0.53,0.34,-0.59,-0.33,-0.48,
3.856,2.14,0.53,0.34,-0.64,-0.34,-0.52,
3.859,2.14,0.53,0.34,-0.71,-0.34,-0.57,
3.86,2.14,0.53,0.34,-0.73,-0.34,-0.59,
3.862,2.14,0.53,0.34,-0.78,-0.34,-0.63,
3.864,2.41,0.71,0.37,-0.78,-0.34,-0.63,
3.865,2.41,0.71,0.37,-0.83,-0.35,-0.66,
3.866,2.41,0.71,0.37,-0.88,-0.36,-0.70,
3.869,2.41,0.71,0.37,-0.95,-0.37,-0.76,
3.87,2.41,0.71,0.37,-0.98,-0.38,-0.78,
3.872,2.41,0.71,0.37,-1.03,-0.40,-0.82,
3.875,2.50,0.69,0.75,-1.03,-0.40,-0.82,
3.875,2.50,0.69,0.75,-1.08,-0.41,-0.86,
3.876,2.50,0.69,0.75,-1.12,-0.43,-0.89,
3.88,2.50,0.69,0.75,-1.18,-0.45,-0.94,
3.88,2.50,0.69,0.75,-1.20,-0.45,-0.95,
3.882,2.50,0.69,0.75,-1.24,-0.46,-0.98,
3.885,2.24,0.45,1.61,-1.24,-0.46,-0.98,
3.885,2.24,0.45,1.61,-1.28,-0.45,-1.00,
3.888,2.24,0.45,1.61,-1.30,-0.44,-1.03,
3.889,2.24,0.45,1.61,-1.33,-0.42,-1.06,
3.891,2.24,0.45,1.61,-1.34,-0.41,-1.06,
3.893,2.24,0.45,1.61,-1.36,-0.38,-1.08,
3.895,1.95,0.11,2.59,-1.36,-0.38,-1.08,
3.895,1.95,0.11,2.59,-1.37,-0.35,-1.09,
3.897,1.95,0.11,2.59,-1.37,-0.32,-1.10,
3.899,1.95,0.11,2.59,-1.37,-0.28,-1.12,
3.901,1.95,0.11,2.59,-1.37,-0.26,-1.12,
3.902,1.95,0.11,2.59,-1.36,-0.23,-1.13,
3.904,1.58,-0.25,3.68,-1.36,-0.23,-1.13,
3.905,1.58,-0.25,3.68,-1.34,-0.19,-1.13,
3.906,1.58,-0.25,3.68,-1.32,-0.16,-1.13,
3.909,1.58,-0.25,3.68,-1.28,-0.11,-1.13,
3.914,1.58,-0.25,3.68,-1.26,-0.09,-1.13,
3.915,1.58,-0.25,3.68,-1.22,-0.06,-1.12,
3.916,1.11,-0.72,4.62,-1.22,-0.06,-1.12,
3.916,1.11,-0.72,4.62,-1.18,-0.03,-1.11,
3.916,1.11,-0.72,4.62,-1.14,0.00,-1.09,
3.92,1.11,-0.72,4.62,-1.06,0.05,-1.07,
3.92,1.11,-0.72,4.62,-1.03,0.06,-1.06,
3.922,1.11,-0.72,4.62,-0.98,0.08,-1.03,
3.928,0.50,-1.05,5.15,-0.98,0.08,-1.03,
3.929,0.50,-1.05,5.15,-0.92,0.11,-1.00,
3.929,0.50,-1.05,5.15,-0.86,0.13,-0.97,
3.93,0.50,-1.05,5.15,-0.76,0.15,-0.92,
3.931,0.50,-1.05,5.15,-0.73,0.16,-0.90,
3.932,0.50,-1.05,5.15,-0.67,0.17,-0.87,
3.935,-0.03,-1.29,5.22,-0.67,0.17,-0.87,
3.935,-0.03,-1.29,5.22,-0.60,0.18,-0.82,
3.936,-0.03,-1.29,5.22,-0.53,0.19,-0.78,
3.939,-0.03,-1.29,5.22,-0.44,0.20,-0.72,
3.948,-0.03,-1.29,5.22,-0.40,0.20,-0.70,
3.949,-0.03,-1.29,5.22,-0.34,0.20,-0.65,
3.949,-0.36,-1.34,4.78,-0.34,0.20,-0.65,
3.949,-0.36,-1.34,4.78,-0.27,0.20,-0.60,
3.949,-0.36,-1.34,4.78,-0.21,0.19,-0.56,
3.95,-0.36,-1.34,4.78,-0.13,0.17,-0.49,
3.951,-0.36,-1.34,4.78,-0.10,0.16,-0.47,
3.952,-0.36,-1.34,4.78,-0.04,0.15,-0.43,
3.955,-0.38,-1.33,3.92,-0.04,0.15,-0.43,
3.98,-0.38,-1.33,3.92,0.01,0.12,-0.39,
3.98,-0.38,-1.33,3.92,0.05,0.09,-0.36,
3.98,-0.38,-1.33,3.92,0.11,0.04,-0.31,
3.98,-0.38,-1.33,3.92,0.14,0.02,-0.29,
3.981,-0.38,-1.33,3.92,0.17,-0.02,-0.27,
3.981,-0.11,-1.05,2.78,0.17,-0.02,-0.27,
3.981,-0.11,-1.05,2.78,0.20,-0.06,-0.25,
3.982,-0.11,-1.05,2.78,0.23,-0.10,-0.23,
3.982,-0.11,-1.05,2.78,0.27,-0.17,-0.21,
3.982,-0.11,-1.05,2.78,0.28,-0.20,-0.21,
3.982,-0.11,-1.05,2.78,0.30,-0.24,-0.20,
3.983,0.33,-0.80,1.61,0.30,-0.24,-0.20,
3.983,0.33,-0.80,1.61,0.31,-0.29,-0.19,
3.983,0.33,-0.80,1.61,0.32,-0.34,-0.19,
3.983,0.33,-0.80,1.61,0.33,-0.41,-0.19,
3.984,0.33,-0.80,1.61,0.33,-0.43,-0.19,
3.989,0.69,-0.56,0.58,0.33,-0.43,-0.19,
3.989,0.69,-0.56,0.58,0.33,-0.52,-0.20,
3.99,0.69,-0.56,0.58,0.33,-0.52,-0.20,
3.99,0.69,-0.56,0.58,0.32,-0.56,-0.20,
3.99,0.69,-0.56,0.58,0.31,-0.61,-0.21,
3.99,0.69,-0.56,0.58,0.30,-0.63,-0.22,
3.992,0.69,-0.56,0.58,0.29,-0.66,-0.23,
3.994,0.99,-0.40,-0.20,0.29,-0.66,-0.23,
3.995,0.99,-0.40,-0.20,0.28,-0.69,-0.24,
3.996,0.99,-0.40,-0.20,0.26,-0.71,-0.25,
3.999,0.99,-0.40,-0.20,0.24,-0.73,-0.26,
4.0,0.99,-0.40,-0.20,0.23,-0.73,-0.27,
4.002,0.99,-0.40,-0.20,0.21,-0.74,-0.28,
4.004,1.16,-0.31,-0.71,0.21,-0.74,-0.28,
4.005,1.16,-0.31,-0.71,0.19,-0.74,-0.29,
4.007,1.16,-0.31,-0.71,0.17,-0.73,-0.30,
4.009,1.16,-0.31,-0.71,0.14,-0.72,-0.32,
4.011,1.16,-0.31,-0.71,0.13,-0.71,-0.33,
4.012,1.16,-0.31,-0.71,0.10,-0.70,-0.34,
4.015,1.17,-0.31,-1.01,0.10,-0.70,-0.34,
4.015,1.17,-0.31,-1.01,0.08,-0.67,-0.34,
4.016,1.17,-0.31,-1.01,0.06,-0.65,-0.35,
4.019,1.17,-0.31,-1.01,0.03,-0.61,-0.36,
4.02,1.17,-0.31,-1.01,0.02,-0.60,-0.37,
4.022,1.17,-0.31,-1.01,-0.01,-0.57,-0.37,
4.024,1.02,-0.33,-1.23,-0.01,-0.57,-0.37,
4.025,1.02,-0.33,-1.23,-0.03,-0.54,-0.38,
4.026,1.02,-0.33,-1.23,-0.05,-0.51,-0.38,
4.029,1.02,-0.33,-1.23,-0.08,-0.46,-0.39,
4.03,1.02,-0.33,-1.23,-0.09,-0.44,-0.39,
4.032,1.02,-0.33,-1.23,-0.11,-0.41,-0.40,
4.034,0.98,-0.33,-1.33,-0.11,-0.41,-0.40,
4.034,0.98,-0.33,-1.33,-0.13,-0.38,-0.40,
4.036,0.98,-0.33,-1.33,-0.14,-0.35,-0.41,
4.039,0.98,-0.33,-1.33,-0.16,-0.30,-0.42,
4.04,0.98,-0.33,-1.33,-0.17,-0.28,-0.42,
4.042,0.98,-0.33,-1.33,-0.17,-0.25,-0.43,
4.044,0.85,-0.41,-1.26,-0.17,-0.25,-0.43,
4.044,0.85,-0.41,-1.26,-0.18,-0.21,-0.44,
4.046,0.85,-0.41,-1.26,-0.18,-0.19,-0.44,
4.049,0.85,-0.41,-1.26,-0.18,-0.15,-0.45,
4.05,0.85,-0.41,-1.26,-0.18,-0.13,-0.46,
4.052,0.85,-0.41,-1.26,-0.18,-0.11,-0.46,
4.054,0.67,-0.51,-1.20,-0.18,-0.11,-0.46,
4.054,0.67,-0.51,-1.20,-0.18,-0.09,-0.47,
4.056,0.67,-0.51,-1.20,-0.17,-0.08,-0.47,
4.059,0.67,-0.51,-1.20,-0.16,-0.05,-0.47,
4.06,0.67,-0.51,-1.20,-0.16,-0.05,-0.47,
4.062,0.67,-0.51,-1.20,-0.15,-0.03,-0.47,
4.064,0.33,-0.53,-1.29,-0.15,-0.03,-0.47,
4.064,0.33,-0.53,-1.29,-0.14,-0.02,-0.48,
4.066,0.33,-0.53,-1.29,-0.13,-0.01,-0.47,
4.069,0.33,-0.53,-1.29,-0.12,0.00,-0.47,
4.07,0.33,-0.53,-1.29,-0.11,0.01,-0.47,
4.081,0.33,-0.53,-1.29,-0.11,0.01,-0.47,
4.082,0.09,-0.47,-1.61,-0.11,0.01,-0.47,
4.082,0.09,-0.47,-1.61,-0.10,0.02,-0.47,
4.082,0.09,-0.47,-1.61,-0.10,0.03,-0.47,
4.082,0.09,-0.47,-1.61,-0.09,0.04,-0.47,
4.083,0.09,-0.47,-1.61,-0.09,0.04,-0.47,
4.095,0.09,-0.47,-1.61,-0.09,0.05,-0.48,
4.096,-0.02,-0.47,-2.09,-0.09,0.05,-0.48,
4.096,-0.02,-0.47,-2.09,-0.09,0.06,-0.48,
4.097,-0.02,-0.47,-2.09,-0.10,0.06,-0.48,
4.097,-0.02,-0.47,-2.09,-0.10,0.07,-0.49,
4.097,-0.02,-0.47,-2.09,-0.10,0.08,-0.49,
4.098,-0.02,-0.47,-2.09,-0.10,0.08,-0.49,
4.098,-0.19,-0.46,-2.56,-0.10,0.08,-0.49,
4.098,-0.19,-0.46,-2.56,-0.10,0.09,-0.49,
4.099,-0.19,-0.46,-2.56,-0.11,0.09,-0.50,
4.099,-0.19,-0.46,-2.56,-0.12,0.10,-0.50,
4.101,-0.19,-0.46,-2.56,-0.12,0.10,-0.50,
4.102,-0.19,-0.46,-2.56,-0.12,0.10,-0.50,
4.104,-0.35,-0.46,-2.89,-0.12,0.10,-0.50,
4.104,-0.35,-0.46,-2.89,-0.13,0.11,-0.50,
4.106,-0.35,-0.46,-2.89,-0.14,0.11,-0.50,
4.109,-0.35,-0.46,-2.89,-0.14,0.11,-0.50,
4.112,-0.35,-0.46,-2.89,-0.15,0.11,-0.50,
4.114,-0.35,-0.46,-2.89,-0.15,0.11,-0.50,
4.118,-0.50,-0.39,-3.14,-0.15,0.11,-0.50,
4.118,-0.50,-0.39,-3.14,-0.16,0.10,-0.50,
4.118,-0.50,-0.39,-3.14,-0.17,0.10,-0.50,
4.119,-0.50,-0.39,-3.14,-0.18,0.09,-0.50,
4.12,-0.50,-0.39,-3.14,-0.18,0.09,-0.50,
4.138,-0.50,-0.39,-3.14,-0.19,0.08,-0.50,
4.138,-0.55,-0.39,-3.23,-0.19,0.08,-0.50,
4.139,-0.55,-0.39,-3.23,-0.19,0.08,-0.50,
4.139,-0.55,-0.39,-3.23,-0.20,0.07,-0.50,
4.139,-0.55,-0.39,-3.23,-0.21,0.07,-0.51,
4.139,-0.55,-0.39,-3.23,-0.21,0.07,-0.51,
4.139,-0.55,-0.39,-3.23,-0.21,0.07,-0.51,
4.139,-0.60,-0.30,-3.21,-0.21,0.07,-0.51,
4.139,-0.60,-0.30,-3.21,-0.22,0.08,-0.51,
4.14,-0.60,-0.30,-3.21,-0.22,0.08,-0.52,
4.14,-0.60,-0.30,-3.21,-0.23,0.08,-0.52,
4.14,-0.60,-0.30,-3.21,-0.24,0.08,-0.52,
4.142,-0.60,-0.30,-3.21,-0.24,0.07,-0.52,
4.144,-0.64,-0.28,-3.18,-0.24,0.07,-0.52,
4.144,-0.64,-0.28,-3.18,-0.25,0.07,-0.52,
4.146,-0.64,-0.28,-3.18,-0.26,0.07,-0.53,
4.149,-0.64,-0.28,-3.18,-0.27,0.06,-0.53,
4.15,-0.64,-0.28,-3.18,-0.28,0.06,-0.53,
4.152,-0.64,-0.28,-3.18,-0.29,0.05,-0.53,
4.154,-0.74,-0.19,-3.18,-0.29,0.05,-0.53,
4.154,-0.74,-0.19,-3.18,-0.30,0.04,-0.53,
4.156,-0.74,-0.19,-3.18,-0.31,0.03,-0.53,
4.159,-0.74,-0.19,-3.18,-0.33,0.02,-0.53,
4.162,-0.74,-0.19,-3.18,-0.34,0.01,-0.53,
4.163,-0.74,-0.19,-3.18,-0.35,-0.00,-0.53,
4.164,-0.80,-0.10,-2.96,-0.35,-0.00,-0.53,
4.164,-0.80,-0.10,-2.96,-0.35,-0.01,-0.53,
4.166,-0.80,-0.10,-2.96,-0.36,-0.02,-0.53,
4.169,-0.80,-0.10,-2.96,-0.37,-0.05,-0.53,
4.17,-0.80,-0.10,-2.96,-0.37,-0.05,-0.53,
4.172,-0.80,-0.10,-2.96,-0.37,-0.07,-0.53,
4.174,-0.82,0.03,-2.58,-0.37,-0.07,-0.53,
4.174,-0.82,0.03,-2.58,-0.38,-0.09,-0.53,
4.176,-0.82,0.03,-2.58,-0.38,-0.11,-0.53,
4.179,-0.82,0.03,-2.58,-0.38,-0.14,-0.54,
4.18,-0.82,0.03,-2.58,-0.38,-0.15,-0.54,
4.182,-0.82,0.03,-2.58,-0.38,-0.16,-0.54,
4.184,-0.79,0.10,-2.09,-0.38,-0.16,-0.54,
4.184,-0.79,0.10,-2.09,-0.37,-0.19,-0.54,
4.186,-0.79,0.10,-2.09,-0.37,-0.21,-0.54,
4.189,-0.79,0.10,-2.09,-0.36,-0.25,-0.54,
4.19,-0.79,0.10,-2.09,-0.36,-0.26,-0.55,
4.192,-0.79,0.10,-2.09,-0.35,-0.28,-0.55,
4.194,-0.80,0.25,-1.61,-0.35,-0.28,-0.55,
4.194,-0.80,0.25,-1.61,-0.34,-0.31,-0.55,
4.196,-0.80,0.25,-1.61,-0.34,-0.33,-0.55,
4.199,-0.80,0.25,-1.61,-0.33,-0.37,-0.56,
4.2,-0.80,0.25,-1.61,-0.32,-0.38,-0.56,
4.202,-0.80,0.25,-1.61,-0.31,-0.41,-0.56,
4.204,-0.81,0.36,-1.18,-0.31,-0.41,-0.56,
4.204,-0.81,0.36,-1.18,-0.30,-0.43,-0.56,
4.215,-0.81,0.36,-1.18,-0.30,-0.46,-0.56,
4.216,-0.81,0.36,-1.18,-0.28,-0.50,-0.56,
4.216,-0.81,0.36,-1.18,-0.28,-0.51,-0.56,
4.216,-0.81,0.36,-1.18,-0.28,-0.53,-0.56,
4.217,-0.83,0.52,-0.86,-0.28,-0.53,-0.56,
4.217,-0.83,0.52,-0.86,-0.27,-0.55,-0.56,
4.217,-0.83,0.52,-0.86,-0.27,-0.56,-0.56,
4.221,-0.83,0.52,-0.86,-0.26,-0.58,-0.56,
4.221,-0.83,0.52,-0.86,-0.26,-0.58,-0.56,
4.232,-0.83,0.52,-0.86,-0.25,-0.58,-0.56,
4.233,-0.82,0.56,-0.65,-0.25,-0.58,-0.56,
4.234,-0.82,0.56,-0.65,-0.25,-0.58,-0.56,
4.235,-0.82,0.56,-0.65,-0.25,-0.58,-0.56,
4.235,-0.82,0.56,-0.65,-0.25,-0.57,-0.56,
4.236,-0.82,0.56,-0.65,-0.25,-0.57,-0.56,
4.237,-0.82,0.56,-0.65,-0.26,-0.56,-0.55,
4.237,-0.83,0.61,-0.53,-0.26,-0.56,-0.55,
4.238,-0.83,0.61,-0.53,-0.26,-0.55,-0.55,
4.238,-0.83,0.61,-0.53,-0.26,-0.54,-0.55,
4.245,-0.83,0.61,-0.53,-0.27,-0.52,-0.54,
4.245,-0.83,0.61,-0.53,-0.27,-0.51,-0.54,
4.246,-0.83,0.61,-0.53,-0.28,-0.50,-0.54,
4.246,-0.75,0.70,-0.34,-0.28,-0.50,-0.54,
4.246,-0.75,0.70,-0.34,-0.28,-0.49,-0.54,
4.246,-0.75,0.70,-0.34,-0.29,-0.49,-0.54,
4.249,-0.75,0.70,-0.34,-0.30,-0.47,-0.55,
4.25,-0.75,0.70,-0.34,-0.30,-0.47,-0.55,
4.252,-0.75,0.70,-0.34,-0.31,-0.46,-0.55,
4.254,-0.63,0.82,-0.06,-0.31,-0.46,-0.55,
4.255,-0.63,0.82,-0.06,-0.31,-0.45,-0.56,
4.259,-0.63,0.82,-0.06,-0.32,-0.44,-0.56,
4.261,-0.63,0.82,-0.06,-0.32,-0.43,-0.56,
4.261,-0.63,0.82,-0.06,-0.32,-0.43,-0.56,
4.263,-0.63,0.82,-0.06,-0.33,-0.42,-0.56,
4.264,-0.60,0.87,0.32,-0.33,-0.42,-0.56,
4.265,-0.60,0.87,0.32,-0.33,-0.40,-0.56,
4.266,-0.60,0.87,0.32,-0.33,-0.39,-0.56,
4.269,-0.60,0.87,0.32,-0.32,-0.37,-0.56,
4.271,-0.60,0.87,0.32,-0.32,-0.36,-0.56,
4.276,-0.60,0.87,0.32,-0.31,-0.34,-0.55,
4.277,-0.77,0.93,0.83,-0.31,-0.34,-0.55,
4.278,-0.77,0.93,0.83,-0.30,-0.32,-0.55,
4.278,-0.77,0.93,0.83,-0.29,-0.31,-0.54,
4.279,-0.77,0.93,0.83,-0.27,-0.28,-0.54,
4.282,-0.77,0.93,0.83,-0.26,-0.27,-0.53,
4.283,-0.77,0.93,0.83,-0.25,-0.26,-0.53,
4.286,-0.90,1.02,1.44,-0.25,-0.26,-0.53,
4.286,-0.90,1.02,1.44,-0.22,-0.24,-0.52,
4.287,-0.90,1.02,1.44,-0.20,-0.22,-0.51,
4.316,-0.90,1.02,1.44,-0.17,-0.20,-0.50,
4.316,-0.90,1.02,1.44,-0.16,-0.19,-0.49,
4.317,-0.90,1.02,1.44,-0.13,-0.18,-0.48,
4.317,-1.16,1.10,1.81,-0.13,-0.18,-0.48,
4.318,-1.16,1.10,1.81,-0.11,-0.18,-0.47,
4.318,-1.16,1.10,1.81,-0.08,-0.17,-0.45,
4.318,-1.16,1.10,1.81,-0.04,-0.16,-0.43,
4.319,-1.16,1.10,1.81,-0.03,-0.16,-0.42,
4.319,-1.16,1.10,1.81,-0.01,-0.16,-0.40,
4.32,-1.41,1.18,2.02,-0.01,-0.16,-0.40,
4.32,-1.41,1.18,2.02,0.02,-0.16,-0.38,
4.32,-1.41,1.18,2.02,0.04,-0.17,-0.35,
4.321,-1.41,1.18,2.02,0.08,-0.18,-0.32,
4.321,-1.41,1.18,2.02,0.09,-0.18,-0.31,
4.322,-1.41,1.18,2.02,0.12,-0.18,-0.28,
4.322,-1.58,1.26,2.18,0.12,-0.18,-0.28,
4.323,-1.58,1.26,2.18,0.14,-0.19,-0.26,
4.323,-1.58,1.26,2.18,0.17,-0.20,-0.24,
4.323,-1.58,1.26,2.18,0.21,-0.22,-0.20,
4.324,-1.58,1.26,2.18,0.22,-0.22,-0.19,
4.324,-1.58,1.26,2.18,0.25,-0.23,-0.17,
4.325,-1.50,1.25,2.32,0.25,-0.23,-0.17,
4.325,-1.50,1.25,2.32,0.27,-0.25,-0.15,
4.333,-1.50,1.25,2.32,0.30,-0.26,-0.13,
4.334,-1.50,1.25,2.32,0.35,-0.29,-0.10,
4.334,-1.50,1.25,2.32,0.36,-0.29,-0.09,
4.335,-1.50,1.25,2.32,0.39,-0.31,-0.07,
4.335,-1.39,1.22,2.52,0.39,-0.31,-0.07,
4.336,-1.39,1.22,2.52,0.42,-0.33,-0.05,
4.336,-1.39,1.22,2.52,0.45,-0.34,-0.03,
4.339,-1.39,1.22,2.52,0.49,-0.36,-0.01,
4.34,-1.39,1.22,2.52,0.51,-0.36,0.00,
4.343,-1.39,1.22,2.52,0.54,-0.37,0.02,
4.344,-1.16,1.19,2.72,0.54,-0.37,0.02,
4.344,-1.16,1.19,2.72,0.57,-0.38,0.03,
4.346,-1.16,1.19,2.72,0.60,-0.38,0.05,
4.349,-1.16,1.19,2.72,0.65,-0.38,0.07,
4.35,-1.16,1.19,2.72,0.67,-0.38,0.07,
4.352,-1.16,1.19,2.72,0.70,-0.38,0.08,
4.36,-0.87,1.16,2.77,0.70,-0.38,0.08,
4.361,-0.87,1.16,2.77,0.72,-0.38,0.09,
4.361,-0.87,1.16,2.77,0.75,-0.37,0.10,
4.361,-0.87,1.16,2.77,0.79,-0.37,0.11,
4.362,-0.87,1.16,2.77,0.80,-0.36,0.11,
4.362,-0.87,1.16,2.77,0.82,-0.36,0.12,
4.364,-0.68,1.14,2.48,0.82,-0.36,0.12,
4.365,-0.68,1.14,2.48,0.83,-0.36,0.12,
4.366,-0.68,1.14,2.48,0.84,-0.36,0.13,
4.37,-0.68,1.14,2.48,0.86,-0.35,0.14,
4.389,-0.68,1.14,2.48,0.86,-0.34,0.14,
4.39,-0.68,1.14,2.48,0.86,-0.33,0.14,
4.39,-0.65,1.22,1.94,0.86,-0.33,0.14,
4.39,-0.65,1.22,1.94,0.86,-0.32,0.15,
4.39,-0.65,1.22,1.94,0.86,-0.31,0.15,
4.39,-0.65,1.22,1.94,0.85,-0.30,0.16,
4.391,-0.65,1.22,1.94,0.84,-0.29,0.16,
4.391,-0.65,1.22,1.94,0.82,-0.28,0.16,
4.391,-0.55,1.30,1.19,0.82,-0.28,0.16,
4.391,-0.55,1.30,1.19,0.80,-0.28,0.16,
4.391,-0.55,1.30,1.19,0.77,-0.28,0.16,
4.391,-0.55,1.30,1.19,0.71,-0.28,0.16,
4.394,-0.55,1.30,1.19,0.69,-0.29,0.15,
4.395,-0.55,1.30,1.19,0.63,-0.31,0.15,
4.395,-0.34,1.31,0.33,0.63,-0.31,0.15,
4.395,-0.34,1.31,0.33,0.58,-0.32,0.14,
4.396,-0.34,1.31,0.33,0.51,-0.35,0.14,
4.399,-0.34,1.31,0.33,0.41,-0.39,0.12,
4.401,-0.34,1.31,0.33,0.37,-0.41,0.11,
4.403,-0.34,1.31,0.33,0.30,-0.44,0.10,
4.406,0.05,1.27,0.03,0.30,-0.44,0.10,
4.407,0.05,1.27,0.03,0.23,-0.47,0.08,
4.407,0.05,1.27,0.03,0.16,-0.50,0.06,
4.411,0.05,1.27,0.03,0.07,-0.54,0.03,
4.411,0.05,1.27,0.03,0.04,-0.54,0.02,
4.413,0.05,1.27,0.03,-0.02,-0.56,-0.01,
4.414,0.53,1.28,0.79,-0.02,-0.56,-0.01,
4.415,0.53,1.28,0.79,-0.07,-0.57,-0.03,
4.419,0.53,1.28,0.79,-0.11,-0.57,-0.06,
4.42,0.53,1.28,0.79,-0.16,-0.57,-0.10,
4.421,0.53,1.28,0.79,-0.18,-0.56,-0.11,
4.424,0.53,1.28,0.79,-0.20,-0.56,-0.14,
4.427,0.72,1.24,2.14,-0.20,-0.56,-0.14,
4.427,0.72,1.24,2.14,-0.23,-0.55,-0.17,
4.428,0.72,1.24,2.14,-0.24,-0.54,-0.20,
4.429,0.72,1.24,2.14,-0.26,-0.52,-0.24,
4.431,0.72,1.24,2.14,-0.27,-0.52,-0.25,
4.432,0.72,1.24,2.14,-0.28,-0.51,-0.28,
4.434,0.79,1.02,3.30,-0.28,-0.51,-0.28,
4.435,0.79,1.02,3.30,-0.28,-0.49,-0.30,
4.436,0.79,1.02,3.30,-0.29,-0.47,-0.33,
4.443,0.79,1.02,3.30,-0.29,-0.44,-0.37,
4.444,0.79,1.02,3.30,-0.29,-0.43,-0.38,
4.444,0.79,1.02,3.30,-0.29,-0.41,-0.40,
4.446,0.71,0.58,3.97,-0.29,-0.41,-0.40,
4.446,0.71,0.58,3.97,-0.29,-0.38,-0.42,
4.446,0.71,0.58,3.97,-0.28,-0.35,-0.44,
4.449,0.71,0.58,3.97,-0.27,-0.30,-0.47,
4.45,0.71,0.58,3.97,-0.27,-0.29,-0.47,
4.452,0.71,0.58,3.97,-0.25,-0.25,-0.49,
4.456,0.51,-0.07,4.48,-0.25,-0.25,-0.49,
4.491,0.51,-0.07,4.48,-0.23,-0.20,-0.50,
4.491,0.51,-0.07,4.48,-0.21,-0.15,-0.50,
4.492,0.51,-0.07,4.48,-0.17,-0.07,-0.51,
4.492,0.51,-0.07,4.48,-0.15,-0.04,-0.51,
4.493,0.51,-0.07,4.48,-0.11,0.02,-0.51,
4.493,-0.01,-0.46,4.85,-0.11,0.02,-0.51,
4.493,-0.01,-0.46,4.85,-0.07,0.08,-0.51,
4.494,-0.01,-0.46,4.85,-0.02,0.15,-0.50,
4.494,-0.01,-0.46,4.85,0.04,0.26,-0.48,
4.495,-0.01,-0.46,4.85,0.07,0.30,-0.47,
4.495,-0.01,-0.46,4.85,0.11,0.37,-0.46,
4.495,-0.66,-0.72,4.81,0.11,0.37,-0.46,
4.496,-0.66,-0.72,4.81,0.16,0.44,-0.45,
4.496,-0.66,-0.72,4.81,0.20,0.51,-0.43,
4.497,-0.66,-0.72,4.81,0.26,0.60,-0.40,
4.497,-0.66,-0.72,4.81,0.28,0.63,-0.39,
4.498,-0.66,-0.72,4.81,0.32,0.68,-0.37,
4.498,-1.29,-0.82,3.96,0.32,0.68,-0.37,
4.498,-1.29,-0.82,3.96,0.37,0.76,-0.32,
4.499,-1.29,-0.82,3.96,0.37,0.76,-0.32,
4.499,-1.29,-0.82,3.96,0.39,0.81,-0.27,
4.5,-1.29,-0.82,3.96,0.40,0.82,-0.26,
4.5,-1.29,-0.82,3.96,0.41,0.84,-0.23,
4.501,-1.92,-0.86,2.66,0.41,0.84,-0.23,
4.501,-1.92,-0.86,2.66,0.42,0.86,-0.20,
4.501,-1.92,-0.86,2.66,0.42,0.87,-0.17,
4.502,-1.92,-0.86,2.66,0.41,0.88,-0.12,
4.502,-1.92,-0.86,2.66,0.41,0.89,-0.11,
4.503,-1.92,-0.86,2.66,0.40,0.89,-0.08,
4.509,-2.15,-0.74,1.40,0.40,0.89,-0.08,
4.509,-2.15,-0.74,1.40,0.39,0.90,-0.05,
4.509,-2.15,-0.74,1.40,0.37,0.90,-0.02,
4.509,-2.15,-0.74,1.40,0.35,0.89,0.01,
4.513,-2.15,-0.74,1.40,0.33,0.89,0.04,
4.515,-2.15,-0.74,1.40,0.30,0.88,0.06,
4.518,-2.06,-0.60,0.49,0.30,0.88,0.06,
4.519,-2.06,-0.60,0.49,0.29,0.87,0.07,
4.519,-2.06,-0.60,0.49,0.27,0.86,0.08,
4.519,-2.06,-0.60,0.49,0.23,0.84,0.11,
4.523,-2.06,-0.60,0.49,0.22,0.83,0.12,
4.524,-2.06,-0.60,0.49,0.19,0.81,0.13,
4.535,-1.78,-0.44,0.10,0.19,0.81,0.13,
4.535,-1.78,-0.44,0.10,0.17,0.79,0.14,
4.536,-1.78,-0.44,0.10,0.14,0.76,0.15,
4.536,-1.78,-0.44,0.10,0.10,0.71,0.16,
4.536,-1.78,-0.44,0.10,0.09,0.69,0.17,
4.536,-1.78,-0.44,0.10,0.07,0.66,0.17,
4.537,-1.58,-0.27,0.03,0.07,0.66,0.17,
4.537,-1.58,-0.27,0.03,0.05,0.63,0.18,
4.537,-1.58,-0.27,0.03,0.03,0.59,0.18,
4.559,-1.58,-0.27,0.03,-0.00,0.54,0.19,
4.559,-1.58,-0.27,0.03,-0.01,0.52,0.19,
4.559,-1.58,-0.27,0.03,-0.03,0.48,0.19,
4.56,-1.20,-0.22,0.21,-0.03,0.48,0.19,
4.56,-1.20,-0.22,0.21,-0.05,0.45,0.19,
4.56,-1.20,-0.22,0.21,-0.06,0.42,0.19,
4.56,-1.20,-0.22,0.21,-0.08,0.38,0.19,
4.561,-1.20,-0.22,0.21,-0.09,0.36,0.19,
4.561,-1.20,-0.22,0.21,-0.10,0.34,0.19,
4.561,-0.89,-0.27,0.43,-0.10,0.34,0.19,
4.561,-0.89,-0.27,0.43,-0.11,0.32,0.19,
4.562,-0.89,-0.27,0.43,-0.12,0.30,0.19,
4.562,-0.89,-0.27,0.43,-0.13,0.28,0.18,
4.562,-0.89,-0.27,0.43,-0.14,0.27,0.18,
4.562,-0.89,-0.27,0.43,-0.14,0.26,0.19,
4.564,-0.66,-0.38,0.57,-0.14,0.26,0.19,
4.565,-0.66,-0.38,0.57,-0.15,0.26,0.19,
4.567,-0.66,-0.38,0.57,-0.15,0.25,0.19,
4.569,-0.66,-0.38,0.57,-0.16,0.25,0.19,
4.571,-0.66,-0.38,0.57,-0.17,0.25,0.19,
4.572,-0.66,-0.38,0.57,-0.18,0.26,0.20,
4.575,-0.61,-0.47,0.42,-0.18,0.26,0.20,
4.575,-0.61,-0.47,0.42,-0.18,0.26,0.20,
4.577,-0.61,-0.47,0.42,-0.19,0.27,0.21,
4.579,-0.61,-0.47,0.42,-0.21,0.29,0.22,
4.58,-0.61,-0.47,0.42,-0.21,0.29,0.22,
4.582,-0.61,-0.47,0.42,-0.22,0.31,0.23,
4.584,-0.53,-0.54,0.05,-0.22,0.31,0.23,
4.585,-0.53,-0.54,0.05,-0.24,0.32,0.23,
4.586,-0.53,-0.54,0.05,-0.25,0.34,0.24,
4.59,-0.53,-0.54,0.05,-0.27,0.37,0.24,
4.592,-0.53,-0.54,0.05,-0.27,0.38,0.25,
4.593,-0.53,-0.54,0.05,-0.29,0.40,0.25,
4.594,-0.47,-0.61,-0.40,-0.29,0.40,0.25,
4.595,-0.47,-0.61,-0.40,-0.31,0.42,0.25,
4.597,-0.47,-0.61,-0.40,-0.32,0.44,0.26,
4.599,-0.47,-0.61,-0.40,-0.34,0.48,0.26,
4.6,-0.47,-0.61,-0.40,-0.35,0.49,0.26,
4.602,-0.47,-0.61,-0.40,-0.36,0.52,0.26,
4.609,-0.34,-0.65,-0.85,-0.36,0.52,0.26,
4.61,-0.34,-0.65,-0.85,-0.38,0.54,0.27,
4.61,-0.34,-0.65,-0.85,-0.40,0.56,0.27,
4.611,-0.34,-0.65,-0.85,-0.42,0.60,0.27,
4.611,-0.34,-0.65,-0.85,-0.43,0.61,0.27,
4.613,-0.34,-0.65,-0.85,-0.44,0.63,0.27,
4.614,-0.26,-0.67,-1.27,-0.44,0.63,0.27,
4.615,-0.26,-0.67,-1.27,-0.46,0.65,0.27,
4.616,-0.26,-0.67,-1.27,-0.47,0.67,0.26,
4.619,-0.26,-0.67,-1.27,-0.50,0.69,0.26,
4.628,-0.26,-0.67,-1.27,-0.51,0.70,0.26,
4.649,-0.26,-0.67,-1.27,-0.52,0.71,0.25,
4.649,-0.17,-0.68,-1.48,-0.52,0.71,0.25,
4.649,-0.17,-0.68,-1.48,-0.53,0.72,0.25,
4.65,-0.17,-0.68,-1.48,-0.54,0.73,0.24,
4.65,-0.17,-0.68,-1.48,-0.55,0.74,0.24,
4.65,-0.17,-0.68,-1.48,-0.56,0.75,0.23,
4.65,-0.17,-0.68,-1.48,-0.56,0.75,0.23,
4.651,-0.23,-0.71,-1.39,-0.56,0.75,0.23,
4.651,-0.23,-0.71,-1.39,-0.55,0.76,0.22,
4.651,-0.23,-0.71,-1.39,-0.55,0.76,0.22,
4.651,-0.23,-0.71,-1.39,-0.54,0.77,0.22,
4.652,-0.23,-0.71,-1.39,-0.54,0.78,0.22,
4.652,-0.23,-0.71,-1.39,-0.53,0.78,0.22,
4.652,-0.39,-0.81,-1.13,-0.53,0.78,0.22,
4.652,-0.39,-0.81,-1.13,-0.51,0.79,0.22,
4.653,-0.39,-0.81,-1.13,-0.50,0.80,0.23,
4.653,-0.39,-0.81,-1.13,-0.48,0.81,0.24,
4.653,-0.39,-0.81,-1.13,-0.47,0.82,0.25,
4.654,-0.39,-0.81,-1.13,-0.45,0.83,0.26,
4.659,-0.73,-1.06,-1.07,-0.45,0.83,0.26,
4.659,-0.73,-1.06,-1.07,-0.43,0.84,0.28,
4.66,-0.73,-1.06,-1.07,-0.42,0.84,0.30,
4.66,-0.73,-1.06,-1.07,-0.39,0.86,0.33,
4.66,-0.73,-1.06,-1.07,-0.38,0.86,0.34,
4.662,-0.73,-1.06,-1.07,-0.37,0.86,0.36,
4.665,-1.01,-1.22,-1.27,-0.37,0.86,0.36,
4.665,-1.01,-1.22,-1.27,-0.35,0.87,0.39,
4.666,-1.01,-1.22,-1.27,-0.34,0.87,0.41,
4.669,-1.01,-1.22,-1.27,-0.31,0.87,0.45,
4.67,-1.01,-1.22,-1.27,-0.31,0.87,0.46,
4.672,-1.01,-1.22,-1.27,-0.29,0.87,0.49,
4.674,-1.20,-1.29,-1.55,-0.29,0.87,0.49,
4.675,-1.20,-1.29,-1.55,-0.28,0.86,0.52,
4.676,-1.20,-1.29,-1.55,-0.27,0.86,0.54,
4.679,-1.20,-1.29,-1.55,-0.24,0.85,0.58,
4.68,-1.20,-1.29,-1.55,-0.24,0.84,0.59,
4.682,-1.20,-1.29,-1.55,-0.22,0.83,0.61,
4.685,-1.20,-1.25,-1.76,-0.22,0.83,0.61,
4.685,-1.20,-1.25,-1.76,-0.21,0.82,0.63,
4.686,-1.20,-1.25,-1.76,-0.19,0.80,0.65,
4.69,-1.20,-1.25,-1.76,-0.17,0.77,0.69,
4.691,-1.20,-1.25,-1.76,-0.16,0.76,0.70,
4.692,-1.20,-1.25,-1.76,-0.15,0.74,0.72,
4.695,-1.18,-1.20,-1.88,-0.15,0.74,0.72,
4.695,-1.18,-1.20,-1.88,-0.13,0.72,0.74,
4.697,-1.18,-1.20,-1.88,-0.12,0.69,0.76,
4.699,-1.18,-1.20,-1.88,-0.09,0.65,0.79,
4.7,-1.18,-1.20,-1.88,-0.08,0.64,0.80,
4.702,-1.18,-1.20,-1.88,-0.06,0.60,0.81,
4.704,-1.06,-1.12,-1.86,-0.06,0.60,0.81,
4.705,-1.06,-1.12,-1.86,-0.04,0.57,0.83,
4.706,-1.06,-1.12,-1.86,-0.02,0.54,0.85,
4.709,-1.06,-1.12,-1.86,0.01,0.49,0.87,
4.71,-1.06,-1.12,-1.86,0.02,0.47,0.88,
4.712,-1.06,-1.12,-1.86,0.05,0.44,0.90,
4.714,-1.00,-1.08,-1.64,0.05,0.44,0.90,
4.715,-1.00,-1.08,-1.64,0.07,0.41,0.91,
4.716,-1.00,-1.08,-1.64,0.10,0.38,0.93,
4.719,-1.00,-1.08,-1.64,0.14,0.33,0.96,
4.72,-1.00,-1.08,-1.64,0.15,0.31,0.97,
4.723,-1.00,-1.08,-1.64,0.18,0.27,0.99,
4.725,-1.06,-1.13,-1.34,0.18,0.27,0.99,
4.726,-1.06,-1.13,-1.34,0.20,0.24,1.01,
4.727,-1.06,-1.13,-1.34,0.22,0.20,1.03,
4.731,-1.06,-1.13,-1.34,0.26,0.15,1.06,
4.731,-1.06,-1.13,-1.34,0.27,0.13,1.07,
4.732,-1.06,-1.13,-1.34,0.30,0.10,1.09,
4.735,-1.16,-1.12,-1.18,0.30,0.10,1.09,
4.735,-1.16,-1.12,-1.18,0.32,0.06,1.11,
4.736,-1.16,-1.12,-1.18,0.35,0.03,1.14,
4.743,-1.16,-1.12,-1.18,0.38,-0.02,1.17,
4.744,-1.16,-1.12,-1.18,0.39,-0.03,1.18,
4.744,-1.16,-1.12,-1.18,0.42,-0.06,1.21,
4.744,-1.17,-1.06,-0.99,0.42,-0.06,1.21,
4.744,-1.17,-1.06,-0.99,0.45,-0.09,1.23,
4.748,-1.17,-1.06,-0.99,0.47,-0.12,1.26,
4.751,-1.17,-1.06,-0.99,0.51,-0.15,1.30,
4.752,-1.17,-1.06,-0.99,0.53,-0.16,1.31,
4.752,-1.17,-1.06,-0.99,0.55,-0.18,1.34,
4.758,-1.19,-1.16,-0.81,0.55,-0.18,1.34,
4.758,-1.19,-1.16,-0.81,0.58,-0.20,1.37,
4.759,-1.19,-1.16,-0.81,0.60,-0.22,1.40,
4.759,-1.19,-1.16,-0.81,0.64,-0.25,1.45,
4.762,-1.19,-1.16,-0.81,0.65,-0.25,1.46,
4.763,-1.19,-1.16,-0.81,0.67,-0.26,1.49,
4.767,-1.03,-1.26,-0.72,0.67,-0.26,1.49,
4.767,-1.03,-1.26,-0.72,0.70,-0.27,1.52,
4.767,-1.03,-1.26,-0.72,0.72,-0.28,1.55,
4.771,-1.03,-1.26,-0.72,0.75,-0.29,1.60,
4.772,-1.03,-1.26,-0.72,0.77,-0.30,1.61,
4.78,-1.03,-1.26,-0.72,0.79,-0.30,1.64,
4.782,-0.77,-1.27,-0.63,0.79,-0.30,1.64,
4.783,-0.77,-1.27,-0.63,0.81,-0.30,1.67,
4.783,-0.77,-1.27,-0.63,0.83,-0.31,1.69,
4.783,-0.77,-1.27,-0.63,0.85,-0.31,1.72,
4.784,-0.77,-1.27,-0.63,0.86,-0.31,1.73,
4.791,-0.77,-1.27,-0.63,0.88,-0.32,1.75,
4.791,-0.35,-1.05,-0.70,0.88,-0.32,1.75,
4.792,-0.35,-1.05,-0.70,0.89,-0.33,1.76,
4.81,-0.35,-1.05,-0.70,0.91,-0.33,1.77,
4.846,-0.35,-1.05,-0.70,0.92,-0.35,1.78,
4.846,-0.35,-1.05,-0.70,0.93,-0.35,1.79,
4.847,-0.35,-1.05,-0.70,0.94,-0.36,1.79,
4.848,0.22,-0.85,-0.78,0.94,-0.36,1.79,
4.851,0.22,-0.85,-0.78,0.95,-0.37,1.78,
4.851,0.22,-0.85,-0.78,0.96,-0.38,1.78,
4.851,0.22,-0.85,-0.78,0.97,-0.39,1.77,
4.852,0.22,-0.85,-0.78,0.97,-0.39,1.77,
4.852,0.22,-0.85,-0.78,0.98,-0.40,1.75,
4.853,0.69,-0.63,-0.80,0.98,-0.40,1.75,
4.853,0.69,-0.63,-0.80,0.99,-0.40,1.74,
4.854,0.69,-0.63,-0.80,1.00,-0.40,1.73,
4.854,0.69,-0.63,-0.80,1.01,-0.41,1.70,
4.854,0.69,-0.63,-0.80,1.01,-0.40,1.69,
4.855,0.69,-0.63,-0.80,1.02,-0.40,1.67,
4.855,1.05,-0.41,-0.78,1.02,-0.40,1.67,
4.856,1.05,-0.41,-0.78,1.02,-0.40,1.66,
4.856,1.05,-0.41,-0.78,1.03,-0.39,1.64,
4.856,1.05,-0.41,-0.78,1.03,-0.37,1.61,
4.857,1.05,-0.41,-0.78,1.03,-0.37,1.59,
4.857,1.05,-0.41,-0.78,1.04,-0.36,1.57,
4.858,1.25,-0.23,-0.84,1.04,-0.36,1.57,
4.858,1.25,-0.23,-0.84,1.04,-0.34,1.55,
4.858,1.25,-0.23,-0.84,1.04,-0.33,1.53,
4.859,1.25,-0.23,-0.84,1.04,-0.30,1.49,
4.859,1.25,-0.23,-0.84,1.04,-0.29,1.48,
4.86,1.25,-0.23,-0.84,1.04,-0.28,1.46,
4.86,1.34,-0.12,-1.00,1.04,-0.28,1.46,
4.861,1.34,-0.12,-1.00,1.03,-0.26,1.44,
4.861,1.34,-0.12,-1.00,1.03,-0.24,1.42,
4.864,1.34,-0.12,-1.00,1.01,-0.20,1.38,
4.865,1.34,-0.12,-1.00,1.01,-0.18,1.36,
4.865,1.34,-0.12,-1.00,1.00,-0.17,1.35,
4.865,1.16,0.03,-1.23,1.00,-0.17,1.35,
4.866,1.16,0.03,-1.23,0.99,-0.15,1.34,
4.866,1.16,0.03,-1.23,0.98,-0.13,1.32,
4.867,1.16,0.03,-1.23,0.95,-0.10,1.29,
4.867,1.16,0.03,-1.23,0.95,-0.09,1.28,
4.867,1.16,0.03,-1.23,0.93,-0.07,1.27,
4.868,1.08,0.20,-1.46,0.93,-0.07,1.27,
4.868,1.08,0.20,-1.46,0.91,-0.05,1.25,
4.868,1.08,0.20,-1.46,0.89,-0.04,1.23,
4.869,1.08,0.20,-1.46,0.86,-0.02,1.21,
4.869,1.08,0.20,-1.46,0.83,0.01,1.18,
4.87,1.08,0.20,-1.46,0.82,0.01,1.17,
4.87,1.00,0.35,-1.57,0.82,0.01,1.17,
4.87,1.00,0.35,-1.57,0.81,0.02,1.16,
4.871,1.00,0.35,-1.57,0.79,0.03,1.14,
4.871,1.00,0.35,-1.57,0.76,0.04,1.11,
4.871,1.00,0.35,-1.57,0.75,0.05,1.10,
4.882,1.00,0.35,-1.57,0.73,0.05,1.08,
4.882,0.97,0.46,-1.53,0.73,0.05,1.08,
4.883,0.97,0.46,-1.53,0.70,0.05,1.06,
4.883,0.97,0.46,-1.53,0.68,0.05,1.04,
4.883,0.97,0.46,-1.53,0.65,0.05,1.02,
4.883,0.97,0.46,-1.53,0.64,0.05,1.01,
4.884,0.97,0.46,-1.53,0.62,0.04,0.98,
4.888,0.97,0.48,-1.27,0.62,0.04,0.98,
4.889,0.97,0.48,-1.27,0.60,0.04,0.96,
4.889,0.97,0.48,-1.27,0.58,0.03,0.95,
4.889,0.97,0.48,-1.27,0.56,0.02,0.91,
4.89,0.97,0.48,-1.27,0.55,0.01,0.90,
4.894,0.97,0.48,-1.27,0.54,0.00,0.88,
4.894,0.96,0.48,-0.95,0.54,0.00,0.88,
4.895,0.96,0.48,-0.95,0.52,-0.01,0.86,
4.896,0.96,0.48,-0.95,0.51,-0.02,0.84,
4.899,0.96,0.48,-0.95,0.49,-0.04,0.81,
4.901,0.96,0.48,-0.95,0.48,-0.05,0.80,
4.905,0.96,0.48,-0.95,0.47,-0.06,0.78,
4.906,0.91,0.45,-0.53,0.47,-0.06,0.78,
4.906,0.91,0.45,-0.53,0.46,-0.07,0.77,
4.906,0.91,0.45,-0.53,0.45,-0.09,0.75,
4.91,0.91,0.45,-0.53,0.44,-0.11,0.72,
4.91,0.91,0.45,-0.53,0.44,-0.11,0.71,
4.912,0.91,0.45,-0.53,0.43,-0.13,0.70,
4.916,0.89,0.49,-0.09,0.43,-0.13,0.70,
4.917,0.89,0.49,-0.09,0.42,-0.14,0.68,
4.917,0.89,0.49,-0.09,0.42,-0.15,0.66,
4.926,0.89,0.49,-0.09,0.41,-0.16,0.64,
4.927,0.89,0.49,-0.09,0.41,-0.17,0.63,
4.927,0.89,0.49,-0.09,0.41,-0.17,0.62,
4.927,0.90,0.42,0.28,0.41,-0.17,0.62,
4.927,0.90,0.42,0.28,0.40,-0.18,0.60,
4.927,0.90,0.42,0.28,0.40,-0.18,0.58,
4.937,0.90,0.42,0.28,0.39,-0.17,0.56,
4.937,0.90,0.42,0.28,0.39,-0.16,0.55,
4.959,0.90,0.42,0.28,0.39,-0.16,0.54,
4.959,1.03,0.34,0.41,0.39,-0.16,0.54,
4.96,1.03,0.34,0.41,0.38,-0.15,0.53,
4.96,1.03,0.34,0.41,0.37,-0.13,0.51,
4.96,1.03,0.34,0.41,0.36,-0.11,0.50,
4.96,1.03,0.34,0.41,0.35,-0.09,0.48,
4.96,1.03,0.34,0.41,0.34,-0.08,0.48,
4.961,1.06,0.36,0.44,0.34,-0.08,0.48,
4.961,1.06,0.36,0.44,0.34,-0.06,0.47,
4.961,1.06,0.36,0.44,0.32,-0.04,0.46,
4.961,1.06,0.36,0.44,0.30,0.00,0.44,
4.961,1.06,0.36,0.44,0.29,0.02,0.44,
4.962,1.06,0.36,0.44,0.28,0.05,0.43,
4.962,1.06,0.60,0.36,0.28,0.05,0.43,
4.981,1.06,0.60,0.36,0.26,0.09,0.42,
4.982,1.06,0.60,0.36,0.24,0.12,0.40,
4.982,1.06,0.60,0.36,0.21,0.18,0.38,
4.982,1.06,0.60,0.36,0.20,0.20,0.38,
4.983,1.06,0.60,0.36,0.17,0.24,0.37,
4.983,1.07,0.90,0.15,0.17,0.24,0.37,
4.983,1.07,0.90,0.15,0.14,0.27,0.35,
4.983,1.07,0.90,0.15,0.11,0.31,0.34,
4.984,1.07,0.90,0.15,0.06,0.35,0.31,
4.984,1.07,0.90,0.15,0.04,0.36,0.31,
4.984,1.07,0.90,0.15,0.00,0.38,0.29,
4.984,1.23,1.09,-0.14,0.00,0.38,0.29,
4.985,1.23,1.09,-0.14,-0.04,0.39,0.27,
4.985,1.23,1.09,-0.14,-0.08,0.39,0.25,
4.985,1.23,1.09,-0.14,-0.15,0.38,0.21,
4.986,1.23,1.09,-0.14,-0.17,0.38,0.20,
4.986,1.23,1.09,-0.14,-0.22,0.36,0.18,
