
time,ax,ay,az,wx,wy,wz,
0.004,0.98,-0.01,-0.33,-0.09,-0.26,-0.48,
0.004,0.98,-0.01,-0.33,-0.11,-0.28,-0.48,
0.004,0.98,-0.01,-0.33,-0.12,-0.29,-0.49,
0.005,0.98,-0.01,-0.33,-0.13,-0.31,-0.49,
0.005,0.98,-0.01,-0.33,-0.16,-0.33,-0.50,
0.005,0.98,-0.01,-0.33,-0.17,-0.36,-0.51,
0.006,0.94,-0.00,-0.41,-0.17,-0.36,-0.51,
0.006,0.94,-0.00,-0.41,-0.19,-0.38,-0.51,
0.006,0.94,-0.00,-0.41,-0.21,-0.40,-0.52,
0.025,0.94,-0.00,-0.41,-0.22,-0.42,-0.52,
0.025,0.94,-0.00,-0.41,-0.24,-0.44,-0.53,
0.025,0.94,-0.00,-0.41,-0.25,-0.47,-0.53,
0.026,0.84,0.03,-0.37,-0.25,-0.47,-0.53,
0.026,0.84,0.03,-0.37,-0.27,-0.49,-0.54,
0.027,0.84,0.03,-0.37,-0.29,-0.51,-0.54,
0.027,0.84,0.03,-0.37,-0.31,-0.54,-0.54,
0.027,0.84,0.03,-0.37,-0.33,-0.56,-0.55,
0.03,0.84,0.03,-0.37,-0.34,-0.59,-0.55,
0.031,0.72,0.09,-0.31,-0.34,-0.59,-0.55,
0.031,0.72,0.09,-0.31,-0.36,-0.61,-0.55,
0.032,0.72,0.09,-0.31,-0.38,-0.63,-0.56,
0.033,0.72,0.09,-0.31,-0.39,-0.65,-0.56,
0.033,0.72,0.09,-0.31,-0.41,-0.67,-0.56,
0.034,0.72,0.09,-0.31,-0.42,-0.70,-0.56,
0.039,0.69,0.13,-0.16,-0.42,-0.70,-0.56,
0.04,0.69,0.13,-0.16,-0.44,-0.72,-0.57,
0.041,0.69,0.13,-0.16,-0.45,-0.74,-0.57,
0.042,0.69,0.13,-0.16,-0.47,-0.76,-0.57,
0.043,0.69,0.13,-0.16,-0.47,-0.78,-0.57,
0.044,0.69,0.13,-0.16,-0.48,-0.80,-0.57,
0.045,0.72,0.13,-0.06,-0.48,-0.80,-0.57,
0.045,0.72,0.13,-0.06,-0.49,-0.82,-0.57,
0.046,0.72,0.13,-0.06,-0.50,-0.84,-0.58,
0.053,0.72,0.13,-0.06,-0.50,-0.85,-0.58,
0.054,0.72,0.13,-0.06,-0.51,-0.87,-0.58,
0.054,0.72,0.13,-0.06,-0.51,-0.89,-0.58,
0.055,0.74,0.12,0.07,-0.51,-0.89,-0.58,
0.055,0.74,0.12,0.07,-0.52,-0.89,-0.58,
0.057,0.74,0.12,0.07,-0.52,-0.90,-0.58,
0.058,0.74,0.12,0.07,-0.52,-0.91,-0.58,
0.062,0.74,0.12,0.07,-0.51,-0.90,-0.58,
0.087,0.74,0.12,0.07,-0.51,-0.90,-0.58,
0.088,0.81,0.11,0.21,-0.51,-0.90,-0.58,
0.088,0.81,0.11,0.21,-0.50,-0.89,-0.59,
0.089,0.81,0.11,0.21,-0.49,-0.88,-0.60,
0.089,0.81,0.11,0.21,-0.47,-0.86,-0.60,
0.089,0.81,0.11,0.21,-0.45,-0.84,-0.61,
0.09,0.81,0.11,0.21,-0.44,-0.83,-0.62,
0.09,0.91,0.17,0.56,-0.44,-0.83,-0.62,
0.09,0.91,0.17,0.56,-0.42,-0.80,-0.62,
0.091,0.91,0.17,0.56,-0.40,-0.78,-0.63,
0.091,0.91,0.17,0.56,-0.37,-0.76,-0.63,
0.092,0.91,0.17,0.56,-0.35,-0.74,-0.63,
0.092,0.91,0.17,0.56,-0.33,-0.72,-0.64,
0.092,0.69,0.16,0.66,-0.33,-0.72,-0.64,
0.093,0.69,0.16,0.66,-0.31,-0.70,-0.63,
0.093,0.69,0.16,0.66,-0.29,-0.68,-0.63,
0.093,0.69,0.16,0.66,-0.27,-0.66,-0.63,
0.094,0.69,0.16,0.66,-0.25,-0.62,-0.62,
0.094,0.69,0.16,0.66,-0.22,-0.60,-0.62,
0.094,0.44,0.31,0.65,-0.22,-0.60,-0.62,
0.095,0.44,0.31,0.65,-0.20,-0.58,-0.61,
0.103,0.44,0.31,0.65,-0.18,-0.56,-0.59,
0.104,0.44,0.31,0.65,-0.15,-0.55,-0.58,
0.104,0.44,0.31,0.65,-0.13,-0.53,-0.57,
0.104,0.44,0.31,0.65,-0.10,-0.51,-0.56,
0.104,0.24,0.44,0.70,-0.10,-0.51,-0.56,
0.104,0.24,0.44,0.70,-0.08,-0.49,-0.55,
0.142,0.24,0.44,0.70,-0.06,-0.48,-0.54,
0.142,0.24,0.44,0.70,-0.04,-0.46,-0.54,
0.142,0.24,0.44,0.70,-0.02,-0.45,-0.54,
0.142,0.24,0.44,0.70,0.00,-0.43,-0.54,
0.143,0.39,0.39,0.63,0.00,-0.43,-0.54,
0.143,0.39,0.39,0.63,0.02,-0.42,-0.54,
0.143,0.39,0.39,0.63,0.04,-0.41,-0.54,
0.143,0.39,0.39,0.63,0.05,-0.39,-0.53,
0.143,0.39,0.39,0.63,0.06,-0.38,-0.54,
0.144,0.39,0.39,0.63,0.07,-0.37,-0.54,
0.144,0.67,0.41,0.46,0.07,-0.37,-0.54,
0.144,0.67,0.41,0.46,0.07,-0.36,-0.54,
0.144,0.67,0.41,0.46,0.07,-0.36,-0.55,
0.144,0.67,0.41,0.46,0.08,-0.36,-0.55,
0.144,0.67,0.41,0.46,0.08,-0.37,-0.55,
0.145,0.67,0.41,0.46,0.07,-0.39,-0.55,
0.145,0.85,0.36,0.18,0.07,-0.39,-0.55,
0.145,0.85,0.36,0.18,0.06,-0.41,-0.55,
0.145,0.85,0.36,0.18,0.04,-0.44,-0.55,
0.145,0.85,0.36,0.18,0.03,-0.46,-0.55,
0.146,0.85,0.36,0.18,0.01,-0.49,-0.55,
0.146,0.85,0.36,0.18,-0.02,-0.52,-0.55,
0.146,0.84,0.39,-0.25,-0.02,-0.52,-0.55,
0.146,0.84,0.39,-0.25,-0.04,-0.56,-0.54,
0.146,0.84,0.39,-0.25,-0.07,-0.59,-0.54,
0.149,0.84,0.39,-0.25,-0.09,-0.62,-0.53,
0.151,0.84,0.39,-0.25,-0.10,-0.64,-0.53,
0.152,0.84,0.39,-0.25,-0.12,-0.66,-0.52,
0.161,0.61,0.33,-0.27,-0.12,-0.66,-0.52,
0.161,0.61,0.33,-0.27,-0.13,-0.66,-0.51,
0.162,0.61,0.33,-0.27,-0.15,-0.66,-0.51,
0.162,0.61,0.33,-0.27,-0.17,-0.67,-0.51,
0.163,0.61,0.33,-0.27,-0.18,-0.68,-0.51,
0.163,0.61,0.33,-0.27,-0.19,-0.69,-0.52,
0.165,0.62,0.46,-0.06,-0.19,-0.69,-0.52,
0.165,0.62,0.46,-0.06,-0.19,-0.70,-0.53,
0.166,0.62,0.46,-0.06,-0.20,-0.72,-0.53,
0.168,0.62,0.46,-0.06,-0.22,-0.72,-0.54,
0.171,0.62,0.46,-0.06,-0.22,-0.73,-0.55,
0.19,0.62,0.46,-0.06,-0.23,-0.74,-0.55,
0.19,0.57,0.47,0.10,-0.23,-0.74,-0.55,
0.19,0.57,0.47,0.10,-0.24,-0.74,-0.55,
0.19,0.57,0.47,0.10,-0.25,-0.74,-0.55,
0.191,0.57,0.47,0.10,-0.25,-0.74,-0.53,
0.191,0.57,0.47,0.10,-0.25,-0.74,-0.52,
0.191,0.57,0.47,0.10,-0.26,-0.73,-0.50,
0.191,0.03,0.47,0.16,-0.26,-0.73,-0.50,
0.191,0.03,0.47,0.16,-0.27,-0.73,-0.49,
0.192,0.03,0.47,0.16,-0.28,-0.71,-0.48,
0.214,0.03,0.47,0.16,-0.29,-0.70,-0.47,
0.214,0.03,0.47,0.16,-0.31,-0.68,-0.47,
0.214,0.03,0.47,0.16,-0.32,-0.66,-0.46,
0.214,-0.23,0.75,0.09,-0.32,-0.66,-0.46,
0.215,-0.23,0.75,0.09,-0.33,-0.64,-0.45,
0.215,-0.23,0.75,0.09,-0.33,-0.61,-0.44,
0.215,-0.23,0.75,0.09,-0.34,-0.58,-0.43,
0.215,-0.23,0.75,0.09,-0.35,-0.56,-0.41,
0.216,-0.23,0.75,0.09,-0.36,-0.53,-0.39,
0.216,-0.83,0.84,0.32,-0.36,-0.53,-0.39,
0.216,-0.83,0.84,0.32,-0.37,-0.50,-0.37,
0.217,-0.83,0.84,0.32,-0.36,-0.47,-0.35,
0.217,-0.83,0.84,0.32,-0.36,-0.43,-0.33,
0.217,-0.83,0.84,0.32,-0.35,-0.41,-0.31,
0.217,-0.83,0.84,0.32,-0.35,-0.38,-0.29,
0.218,-1.40,1.05,0.65,-0.35,-0.38,-0.29,
0.218,-1.40,1.05,0.65,-0.34,-0.35,-0.26,
0.218,-1.40,1.05,0.65,-0.33,-0.32,-0.23,
0.218,-1.40,1.05,0.65,-0.32,-0.28,-0.20,
0.231,-1.40,1.05,0.65,-0.31,-0.25,-0.17,
0.232,-1.40,1.05,0.65,-0.30,-0.21,-0.14,
0.232,-1.92,1.35,0.92,-0.30,-0.21,-0.14,
0.232,-1.92,1.35,0.92,-0.28,-0.18,-0.10,
0.233,-1.92,1.35,0.92,-0.27,-0.14,-0.07,
0.233,-1.92,1.35,0.92,-0.25,-0.11,-0.04,
0.233,-1.92,1.35,0.92,-0.24,-0.08,-0.00,
0.234,-1.92,1.35,0.92,-0.22,-0.05,0.04,
0.235,-2.11,1.62,1.11,-0.22,-0.05,0.04,
0.236,-2.11,1.62,1.11,-0.20,-0.02,0.07,
0.236,-2.11,1.62,1.11,-0.18,0.01,0.10,
0.238,-2.11,1.62,1.11,-0.16,0.03,0.13,
0.24,-2.11,1.62,1.11,-0.15,0.06,0.16,
0.242,-2.11,1.62,1.11,-0.14,0.09,0.19,
0.245,-1.82,1.62,1.19,-0.14,0.09,0.19,
0.245,-1.82,1.62,1.19,-0.11,0.11,0.21,
0.245,-1.82,1.62,1.19,-0.10,0.14,0.23,
0.248,-1.82,1.62,1.19,-0.09,0.16,0.25,
0.25,-1.82,1.62,1.19,-0.07,0.18,0.26,
0.251,-1.82,1.62,1.19,-0.06,0.20,0.28,
0.255,-1.46,1.51,1.08,-0.06,0.20,0.28,
0.255,-1.46,1.51,1.08,-0.05,0.21,0.30,
0.256,-1.46,1.51,1.08,-0.04,0.23,0.31,
0.258,-1.46,1.51,1.08,-0.03,0.24,0.33,
0.26,-1.46,1.51,1.08,-0.02,0.24,0.34,
0.262,-1.46,1.51,1.08,-0.01,0.25,0.35,
0.264,-1.04,1.23,1.05,-0.01,0.25,0.35,
0.264,-1.04,1.23,1.05,-0.01,0.25,0.35,
0.266,-1.04,1.23,1.05,0.00,0.25,0.36,
0.268,-1.04,1.23,1.05,0.01,0.25,0.36,
0.271,-1.04,1.23,1.05,0.02,0.24,0.36,
0.273,-1.04,1.23,1.05,0.03,0.23,0.36,
0.274,-0.59,1.03,1.09,0.03,0.23,0.36,
0.276,-0.59,1.03,1.09,0.04,0.22,0.36,
0.276,-0.59,1.03,1.09,0.04,0.20,0.35,
0.278,-0.59,1.03,1.09,0.05,0.17,0.35,
0.279,-0.59,1.03,1.09,0.06,0.14,0.34,
0.282,-0.59,1.03,1.09,0.07,0.11,0.33,
0.284,-0.10,0.81,1.16,0.07,0.11,0.33,
0.284,-0.10,0.81,1.16,0.08,0.07,0.32,
0.286,-0.10,0.81,1.16,0.09,0.02,0.31,
0.289,-0.10,0.81,1.16,0.09,-0.02,0.30,
0.29,-0.10,0.81,1.16,0.10,-0.07,0.29,
0.292,-0.10,0.81,1.16,0.10,-0.13,0.27,
0.294,0.41,0.44,0.96,0.10,-0.13,0.27,
0.294,0.41,0.44,0.96,0.09,-0.21,0.24,
0.295,0.41,0.44,0.96,0.08,-0.29,0.22,
0.298,0.41,0.44,0.96,0.06,-0.37,0.18,
0.3,0.41,0.44,0.96,0.04,-0.46,0.14,
0.302,0.41,0.44,0.96,0.01,-0.53,0.10,
0.321,1.16,-0.14,0.40,0.01,-0.53,0.10,
0.322,1.16,-0.14,0.40,-0.02,-0.59,0.05,
0.322,1.16,-0.14,0.40,-0.05,-0.63,0.00,
0.322,1.16,-0.14,0.40,-0.09,-0.67,-0.05,
0.322,1.16,-0.14,0.40,-0.13,-0.69,-0.09,
0.322,1.16,-0.14,0.40,-0.16,-0.69,-0.14,
0.322,1.20,0.06,-0.15,-0.16,-0.69,-0.14,
0.323,1.20,0.06,-0.15,-0.18,-0.67,-0.17,
0.323,1.20,0.06,-0.15,-0.20,-0.62,-0.20,
0.323,1.20,0.06,-0.15,-0.21,-0.54,-0.21,
0.323,1.20,0.06,-0.15,-0.21,-0.51,-0.20,
0.323,1.20,0.06,-0.15,-0.21,-0.56,-0.18,
0.341,0.62,0.91,0.37,-0.21,-0.56,-0.18,
0.342,0.62,0.91,0.37,-0.20,-0.66,-0.14,
0.342,0.62,0.91,0.37,-0.20,-0.77,-0.09,
0.342,0.62,0.91,0.37,-0.21,-0.88,-0.03,
0.342,0.62,0.91,0.37,-0.21,-0.97,0.03,
0.342,0.62,0.91,0.37,-0.21,-1.06,0.09,
0.343,0.26,1.22,1.09,-0.21,-1.06,0.09,
0.343,0.26,1.22,1.09,-0.22,-1.15,0.14,
0.343,0.26,1.22,1.09,-0.22,-1.23,0.19,
0.343,0.26,1.22,1.09,-0.24,-1.30,0.23,
0.343,0.26,1.22,1.09,-0.25,-1.37,0.26,
0.343,0.26,1.22,1.09,-0.27,-1.44,0.30,
0.348,0.25,0.97,0.88,-0.27,-1.44,0.30,
0.348,0.25,0.97,0.88,-0.28,-1.52,0.32,
0.348,0.25,0.97,0.88,-0.29,-1.59,0.35,
0.348,0.25,0.97,0.88,-0.31,-1.65,0.36,
0.349,0.25,0.97,0.88,-0.32,-1.70,0.37,
0.351,0.25,0.97,0.88,-0.33,-1.72,0.38,
0.354,0.20,0.65,0.94,-0.33,-1.72,0.38,
0.373,0.20,0.65,0.94,-0.33,-1.73,0.37,
0.374,0.20,0.65,0.94,-0.34,-1.73,0.36,
0.374,0.20,0.65,0.94,-0.34,-1.72,0.35,
0.374,0.20,0.65,0.94,-0.33,-1.70,0.32,
0.374,0.20,0.65,0.94,-0.32,-1.68,0.30,
0.375,0.77,0.64,0.65,-0.32,-1.68,0.30,
0.375,0.77,0.64,0.65,-0.31,-1.66,0.26,
0.375,0.77,0.64,0.65,-0.30,-1.64,0.23,
0.376,0.77,0.64,0.65,-0.29,-1.62,0.19,
0.376,0.77,0.64,0.65,-0.27,-1.60,0.16,
0.376,0.77,0.64,0.65,-0.25,-1.59,0.12,
0.376,2.10,0.58,0.37,-0.25,-1.59,0.12,
0.377,2.10,0.58,0.37,-0.23,-1.58,0.09,
0.377,2.10,0.58,0.37,-0.21,-1.57,0.05,
0.384,2.10,0.58,0.37,-0.19,-1.55,0.02,
0.384,2.10,0.58,0.37,-0.18,-1.53,-0.01,
0.385,2.10,0.58,0.37,-0.17,-1.50,-0.04,
0.385,2.71,0.33,0.04,-0.17,-1.50,-0.04,
0.385,2.71,0.33,0.04,-0.16,-1.46,-0.07,
0.386,2.71,0.33,0.04,-0.15,-1.43,-0.09,
0.388,2.71,0.33,0.04,-0.14,-1.38,-0.12,
0.39,2.71,0.33,0.04,-0.14,-1.34,-0.14,
0.392,2.71,0.33,0.04,-0.13,-1.30,-0.16,
0.394,2.71,0.00,-0.38,-0.13,-1.30,-0.16,
0.394,2.71,0.00,-0.38,-0.14,-1.25,-0.18,
0.396,2.71,0.00,-0.38,-0.14,-1.21,-0.19,
0.399,2.71,0.00,-0.38,-0.14,-1.16,-0.21,
0.401,2.71,0.00,-0.38,-0.15,-1.12,-0.22,
0.401,2.71,0.00,-0.38,-0.15,-1.07,-0.22,
0.405,2.28,-0.21,-0.62,-0.15,-1.07,-0.22,
0.406,2.28,-0.21,-0.62,-0.15,-1.02,-0.21,
0.406,2.28,-0.21,-0.62,-0.15,-0.95,-0.21,
0.408,2.28,-0.21,-0.62,-0.15,-0.89,-0.19,
0.41,2.28,-0.21,-0.62,-0.14,-0.83,-0.17,
0.411,2.28,-0.21,-0.62,-0.12,-0.76,-0.15,
0.414,1.33,-0.20,-0.22,-0.12,-0.76,-0.15,
0.414,1.33,-0.20,-0.22,-0.10,-0.69,-0.13,
0.416,1.33,-0.20,-0.22,-0.08,-0.61,-0.11,
0.429,1.33,-0.20,-0.22,-0.04,-0.53,-0.09,
0.43,1.33,-0.20,-0.22,-0.01,-0.45,-0.07,
0.43,1.33,-0.20,-0.22,0.07,-0.27,-0.04,
0.43,1.33,-0.20,-0.22,0.07,-0.27,-0.04,
0.43,0.81,-0.10,0.23,0.07,-0.27,-0.04,
0.431,0.81,-0.10,0.23,0.12,-0.18,-0.03,
0.433,0.81,-0.10,0.23,0.17,-0.08,-0.02,
0.433,0.81,-0.10,0.23,0.21,0.03,-0.02,
0.433,0.81,-0.10,0.23,0.27,0.13,-0.01,
0.435,0.77,-0.30,0.37,0.27,0.13,-0.01,
0.46,0.77,-0.30,0.37,0.33,0.23,-0.01,
0.46,0.77,-0.30,0.37,0.38,0.33,-0.01,
0.461,0.77,-0.30,0.37,0.45,0.42,-0.00,
0.461,0.77,-0.30,0.37,0.51,0.51,-0.01,
0.461,0.77,-0.30,0.37,0.57,0.59,-0.01,
0.461,0.77,-0.55,0.57,0.57,0.59,-0.01,
0.461,0.77,-0.55,0.57,0.63,0.66,-0.01,
0.462,0.77,-0.55,0.57,0.69,0.74,-0.01,
0.462,0.77,-0.55,0.57,0.75,0.80,-0.01,
0.462,0.77,-0.55,0.57,0.81,0.86,-0.01,
0.462,0.77,-0.55,0.57,0.86,0.91,-0.02,
0.462,0.51,-0.71,0.83,0.86,0.91,-0.02,
0.462,0.51,-0.71,0.83,0.91,0.96,-0.02,
0.463,0.51,-0.71,0.83,0.97,1.01,-0.02,
0.463,0.51,-0.71,0.83,1.02,1.06,-0.02,
0.471,0.51,-0.71,0.83,1.07,1.09,-0.03,
0.472,0.51,-0.71,0.83,1.11,1.13,-0.03,
0.473,0.30,-0.85,1.04,1.11,1.13,-0.03,
0.473,0.30,-0.85,1.04,1.15,1.16,-0.04,
0.474,0.30,-0.85,1.04,1.19,1.18,-0.04,
0.474,0.30,-0.85,1.04,1.22,1.21,-0.05,
0.475,0.30,-0.85,1.04,1.25,1.22,-0.06,
0.475,0.30,-0.85,1.04,1.28,1.24,-0.07,
0.476,0.23,-1.06,1.01,1.28,1.24,-0.07,
0.476,0.23,-1.06,1.01,1.30,1.24,-0.08,
0.476,0.23,-1.06,1.01,1.32,1.24,-0.09,
0.481,0.23,-1.06,1.01,1.34,1.24,-0.10,
0.481,0.23,-1.06,1.01,1.35,1.23,-0.11,
0.482,0.23,-1.06,1.01,1.35,1.22,-0.12,
0.484,0.07,-1.22,0.59,1.35,1.22,-0.12,
0.485,0.07,-1.22,0.59,1.35,1.20,-0.13,
0.497,0.07,-1.22,0.59,1.35,1.18,-0.14,
0.498,0.07,-1.22,0.59,1.34,1.17,-0.15,
0.498,0.07,-1.22,0.59,1.33,1.14,-0.15,
0.499,0.07,-1.22,0.59,1.31,1.12,-0.16,
0.499,-0.20,-1.42,0.07,1.31,1.12,-0.16,
0.5,-0.20,-1.42,0.07,1.30,1.09,-0.16,
0.5,-0.20,-1.42,0.07,1.27,1.06,-0.17,
0.5,-0.20,-1.42,0.07,1.24,1.02,-0.17,
0.501,-0.20,-1.42,0.07,1.22,0.98,-0.17,
0.506,-0.20,-1.42,0.07,1.19,0.94,-0.17,
0.508,-0.50,-1.32,-0.34,1.19,0.94,-0.17,
0.508,-0.50,-1.32,-0.34,1.15,0.90,-0.17,
0.509,-0.50,-1.32,-0.34,1.11,0.85,-0.17,
0.509,-0.50,-1.32,-0.34,1.08,0.79,-0.17,
0.514,-0.50,-1.32,-0.34,1.04,0.74,-0.17,
0.515,-0.50,-1.32,-0.34,0.99,0.69,-0.16,
0.515,-0.80,-1.25,-0.66,0.99,0.69,-0.16,
0.516,-0.80,-1.25,-0.66,0.95,0.64,-0.16,
0.516,-0.80,-1.25,-0.66,0.90,0.59,-0.15,
0.519,-0.80,-1.25,-0.66,0.86,0.54,-0.15,
0.521,-0.80,-1.25,-0.66,0.81,0.50,-0.14,
0.55,-0.80,-1.25,-0.66,0.77,0.46,-0.14,
0.55,-1.02,-1.20,-0.95,0.77,0.46,-0.14,
0.55,-1.02,-1.20,-0.95,0.72,0.42,-0.14,
0.551,-1.02,-1.20,-0.95,0.67,0.38,-0.13,
0.551,-1.02,-1.20,-0.95,0.62,0.34,-0.13,
0.551,-1.02,-1.20,-0.95,0.58,0.30,-0.13,
0.551,-1.02,-1.20,-0.95,0.54,0.26,-0.14,
0.552,-1.04,-1.23,-1.09,0.54,0.26,-0.14,
0.552,-1.04,-1.23,-1.09,0.50,0.24,-0.14,
0.552,-1.04,-1.23,-1.09,0.45,0.21,-0.15,
0.552,-1.04,-1.23,-1.09,0.41,0.20,-0.16,
0.553,-1.04,-1.23,-1.09,0.37,0.18,-0.17,
0.553,-1.04,-1.23,-1.09,0.34,0.17,-0.18,
0.553,-0.78,-1.23,-1.12,0.34,0.17,-0.18,
0.553,-0.78,-1.23,-1.12,0.30,0.17,-0.20,
0.554,-0.78,-1.23,-1.12,0.27,0.17,-0.21,
0.554,-0.78,-1.23,-1.12,0.23,0.17,-0.23,
0.554,-0.78,-1.23,-1.12,0.20,0.17,-0.24,
0.555,-0.78,-1.23,-1.12,0.18,0.17,-0.26,
0.555,-0.68,-1.25,-0.96,0.18,0.17,-0.26,
0.555,-0.68,-1.25,-0.96,0.15,0.18,-0.27,
0.557,-0.68,-1.25,-0.96,0.13,0.20,-0.29,
0.558,-0.68,-1.25,-0.96,0.10,0.21,-0.30,
0.562,-0.68,-1.25,-0.96,0.08,0.24,-0.30,
0.563,-0.68,-1.25,-0.96,0.07,0.27,-0.31,
0.564,-1.18,-1.25,-0.76,0.07,0.27,-0.31,
0.564,-1.18,-1.25,-0.76,0.05,0.30,-0.31,
0.566,-1.18,-1.25,-0.76,0.04,0.33,-0.31,
0.574,-1.18,-1.25,-0.76,0.04,0.37,-0.31,
0.575,-1.18,-1.25,-0.76,0.04,0.41,-0.31,
0.575,-1.18,-1.25,-0.76,0.03,0.45,-0.31,
0.575,-1.87,-1.13,-0.48,0.03,0.45,-0.31,
0.575,-1.87,-1.13,-0.48,0.03,0.48,-0.30,
0.576,-1.87,-1.13,-0.48,0.03,0.52,-0.30,
0.578,-1.87,-1.13,-0.48,0.03,0.56,-0.29,
0.58,-1.87,-1.13,-0.48,0.04,0.59,-0.28,
0.582,-1.87,-1.13,-0.48,0.05,0.62,-0.27,
0.592,-2.23,-0.82,-0.18,0.05,0.62,-0.27,
0.592,-2.23,-0.82,-0.18,0.06,0.65,-0.26,
0.593,-2.23,-0.82,-0.18,0.07,0.69,-0.25,
0.593,-2.23,-0.82,-0.18,0.09,0.72,-0.24,
0.593,-2.23,-0.82,-0.18,0.10,0.75,-0.24,
0.593,-2.23,-0.82,-0.18,0.11,0.79,-0.23,
0.594,-2.35,-0.55,-0.04,0.11,0.79,-0.23,
0.594,-2.35,-0.55,-0.04,0.12,0.82,-0.22,
0.595,-2.35,-0.55,-0.04,0.14,0.85,-0.21,
0.6,-2.35,-0.55,-0.04,0.15,0.88,-0.20,
0.622,-2.35,-0.55,-0.04,0.16,0.91,-0.20,
0.622,-2.35,-0.55,-0.04,0.17,0.95,-0.19,
0.622,-2.24,-0.38,-0.32,0.17,0.95,-0.19,
0.622,-2.24,-0.38,-0.32,0.17,0.98,-0.18,
0.622,-2.24,-0.38,-0.32,0.16,1.01,-0.18,
0.623,-2.24,-0.38,-0.32,0.13,1.04,-0.18,
0.623,-2.24,-0.38,-0.32,0.07,1.06,-0.18,
0.623,-2.24,-0.38,-0.32,-0.04,1.05,-0.22,
0.623,-1.71,-0.08,-1.98,-0.04,1.05,-0.22,
0.623,-1.71,-0.08,-1.98,-0.23,0.99,-0.30,
0.624,-1.71,-0.08,-1.98,-0.49,0.87,-0.43,
0.624,-1.71,-0.08,-1.98,-0.77,0.67,-0.60,
0.624,-1.71,-0.08,-1.98,-1.03,0.41,-0.80,
0.624,-1.71,-0.08,-1.98,-1.29,0.16,-0.98,
0.637,-1.14,-0.21,-4.06,-1.29,0.16,-0.98,
0.638,-1.14,-0.21,-4.06,-1.52,-0.05,-1.15,
0.638,-1.14,-0.21,-4.06,-1.71,-0.21,-1.28,
0.638,-1.14,-0.21,-4.06,-1.87,-0.31,-1.37,
0.639,-1.14,-0.21,-4.06,-2.00,-0.37,-1.43,
0.639,-1.14,-0.21,-4.06,-2.09,-0.42,-1.45,
0.639,-1.80,-0.77,-3.15,-2.09,-0.42,-1.45,
0.639,-1.80,-0.77,-3.15,-2.14,-0.46,-1.43,
0.639,-1.80,-0.77,-3.15,-2.18,-0.50,-1.41,
0.639,-1.80,-0.77,-3.15,-2.19,-0.48,-1.38,
0.64,-1.80,-0.77,-3.15,-2.18,-0.42,-1.34,
0.642,-1.80,-0.77,-3.15,-2.15,-0.33,-1.30,
0.644,-2.29,-0.39,-2.14,-2.15,-0.33,-1.30,
0.645,-2.29,-0.39,-2.14,-2.10,-0.24,-1.25,
0.646,-2.29,-0.39,-2.14,-2.05,-0.20,-1.19,
0.648,-2.29,-0.39,-2.14,-2.01,-0.20,-1.14,
0.65,-2.29,-0.39,-2.14,-1.97,-0.22,-1.07,
0.655,-2.29,-0.39,-2.14,-1.92,-0.24,-1.00,
0.655,-2.77,1.62,-0.48,-1.92,-0.24,-1.00,
0.656,-2.77,1.62,-0.48,-1.87,-0.26,-0.92,
0.658,-2.77,1.62,-0.48,-1.82,-0.27,-0.83,
0.658,-2.77,1.62,-0.48,-1.76,-0.27,-0.74,
0.66,-2.77,1.62,-0.48,-1.69,-0.26,-0.64,
0.662,-2.77,1.62,-0.48,-1.62,-0.25,-0.53,
0.664,-3.78,3.06,0.67,-1.62,-0.25,-0.53,
0.665,-3.78,3.06,0.67,-1.56,-0.24,-0.42,
0.666,-3.78,3.06,0.67,-1.49,-0.23,-0.31,
0.675,-3.78,3.06,0.67,-1.43,-0.23,-0.20,
0.676,-3.78,3.06,0.67,-1.36,-0.23,-0.09,
0.676,-3.78,3.06,0.67,-1.29,-0.24,0.01,
0.676,-4.43,3.35,0.49,-1.29,-0.24,0.01,
0.677,-4.43,3.35,0.49,-1.23,-0.25,0.10,
0.677,-4.43,3.35,0.49,-1.16,-0.27,0.19,
0.678,-4.43,3.35,0.49,-1.08,-0.28,0.26,
0.68,-4.43,3.35,0.49,-1.00,-0.30,0.32,
0.682,-4.43,3.35,0.49,-0.91,-0.33,0.37,
0.686,-3.42,2.71,0.48,-0.91,-0.33,0.37,
0.687,-3.42,2.71,0.48,-0.83,-0.35,0.41,
0.688,-3.42,2.71,0.48,-0.74,-0.37,0.44,
0.715,-3.42,2.71,0.48,-0.65,-0.40,0.46,
0.715,-3.42,2.71,0.48,-0.56,-0.43,0.47,
0.715,-3.42,2.71,0.48,-0.47,-0.46,0.47,
0.715,-1.84,2.04,0.44,-0.47,-0.46,0.47,
0.716,-1.84,2.04,0.44,-0.41,-0.49,0.45,
0.716,-1.84,2.04,0.44,-0.36,-0.50,0.42,
0.716,-1.84,2.04,0.44,-0.33,-0.52,0.38,
0.717,-1.84,2.04,0.44,-0.31,-0.54,0.34,
0.717,-1.84,2.04,0.44,-0.28,-0.58,0.31,
0.717,-0.23,1.81,-0.37,-0.28,-0.58,0.31,
0.717,-0.23,1.81,-0.37,-0.25,-0.62,0.28,
0.718,-0.23,1.81,-0.37,-0.24,-0.67,0.25,
0.718,-0.23,1.81,-0.37,-0.24,-0.71,0.21,
0.718,-0.23,1.81,-0.37,-0.24,-0.73,0.18,
0.718,-0.23,1.81,-0.37,-0.25,-0.75,0.15,
0.719,0.40,1.30,-1.05,-0.25,-0.75,0.15,
0.719,0.40,1.30,-1.05,-0.27,-0.78,0.11,
0.719,0.40,1.30,-1.05,-0.27,-0.80,0.07,
0.719,0.40,1.30,-1.05,-0.30,-0.82,0.04,
0.72,0.40,1.30,-1.05,-0.32,-0.83,0.01,
0.731,0.40,1.30,-1.05,-0.33,-0.84,-0.02,
0.731,0.81,1.05,-1.35,-0.33,-0.84,-0.02,
0.732,0.81,1.05,-1.35,-0.34,-0.86,-0.05,
0.732,0.81,1.05,-1.35,-0.35,-0.87,-0.07,
0.732,0.81,1.05,-1.35,-0.36,-0.87,-0.09,
0.732,0.81,1.05,-1.35,-0.37,-0.88,-0.11,
0.733,0.81,1.05,-1.35,-0.37,-0.88,-0.11,
0.748,0.59,0.89,-1.58,-0.37,-0.88,-0.11,
0.748,0.59,0.89,-1.58,-0.37,-0.89,-0.12,
0.748,0.59,0.89,-1.58,-0.37,-0.90,-0.12,
0.749,0.59,0.89,-1.58,-0.37,-0.89,-0.12,
0.749,0.59,0.89,-1.58,-0.36,-0.89,-0.12,
0.749,0.59,0.89,-1.58,-0.36,-0.88,-0.11,
0.749,-0.02,0.64,-1.51,-0.36,-0.88,-0.11,
0.75,-0.02,0.64,-1.51,-0.36,-0.87,-0.11,
0.75,-0.02,0.64,-1.51,-0.36,-0.86,-0.11,
0.75,-0.02,0.64,-1.51,-0.35,-0.85,-0.12,
0.791,-0.02,0.64,-1.51,-0.33,-0.85,-0.12,
0.793,-0.02,0.64,-1.51,-0.32,-0.84,-0.12,
0.793,-0.04,0.49,-0.88,-0.32,-0.84,-0.12,
0.793,-0.04,0.49,-0.88,-0.31,-0.83,-0.13,
0.793,-0.04,0.49,-0.88,-0.30,-0.82,-0.14,
0.793,-0.04,0.49,-0.88,-0.29,-0.81,-0.15,
0.794,-0.04,0.49,-0.88,-0.27,-0.80,-0.17,
0.794,-0.04,0.49,-0.88,-0.25,-0.79,-0.19,
0.794,0.37,0.22,-0.33,-0.25,-0.79,-0.19,
0.794,0.37,0.22,-0.33,-0.23,-0.79,-0.21,
0.794,0.37,0.22,-0.33,-0.21,-0.78,-0.23,
0.794,0.37,0.22,-0.33,-0.19,-0.77,-0.26,
0.795,0.37,0.22,-0.33,-0.16,-0.76,-0.28,
0.795,0.37,0.22,-0.33,-0.13,-0.75,-0.30,
0.795,0.72,-0.03,-0.35,-0.13,-0.75,-0.30,
0.795,0.72,-0.03,-0.35,-0.11,-0.72,-0.32,
0.795,0.72,-0.03,-0.35,-0.08,-0.70,-0.34,
0.796,0.72,-0.03,-0.35,-0.05,-0.67,-0.35,
0.796,0.72,-0.03,-0.35,-0.03,-0.63,-0.37,
0.796,0.72,-0.03,-0.35,0.00,-0.60,-0.38,
0.796,0.60,-0.23,-0.50,0.00,-0.60,-0.38,
0.796,0.60,-0.23,-0.50,0.03,-0.57,-0.40,
0.796,0.60,-0.23,-0.50,0.05,-0.54,-0.42,
0.797,0.60,-0.23,-0.50,0.07,-0.52,-0.44,
0.797,0.60,-0.23,-0.50,0.09,-0.50,-0.46,
0.797,0.60,-0.23,-0.50,0.10,-0.47,-0.48,
0.797,0.67,-0.35,-0.51,0.10,-0.47,-0.48,
0.797,0.67,-0.35,-0.51,0.11,-0.46,-0.51,
0.798,0.67,-0.35,-0.51,0.12,-0.46,-0.53,
0.798,0.67,-0.35,-0.51,0.13,-0.47,-0.55,
0.801,0.67,-0.35,-0.51,0.13,-0.48,-0.58,
0.802,0.67,-0.35,-0.51,0.14,-0.49,-0.61,
0.804,0.79,-0.39,-0.23,0.14,-0.49,-0.61,
0.805,0.79,-0.39,-0.23,0.15,-0.50,-0.63,
0.806,0.79,-0.39,-0.23,0.16,-0.51,-0.65,
0.808,0.79,-0.39,-0.23,0.17,-0.51,-0.67,
0.81,0.79,-0.39,-0.23,0.18,-0.52,-0.68,
0.812,0.79,-0.39,-0.23,0.19,-0.53,-0.70,
0.814,0.99,-0.58,-0.18,0.19,-0.53,-0.70,
0.815,0.99,-0.58,-0.18,0.21,-0.54,-0.71,
0.816,0.99,-0.58,-0.18,0.22,-0.56,-0.72,
0.828,0.99,-0.58,-0.18,0.24,-0.57,-0.73,
0.828,0.99,-0.58,-0.18,0.26,-0.59,-0.74,
0.829,0.99,-0.58,-0.18,0.27,-0.61,-0.75,
0.829,1.27,-0.80,-0.43,0.27,-0.61,-0.75,
0.829,1.27,-0.80,-0.43,0.29,-0.62,-0.77,
0.829,1.27,-0.80,-0.43,0.31,-0.64,-0.78,
0.829,1.27,-0.80,-0.43,0.33,-0.64,-0.80,
0.831,1.27,-0.80,-0.43,0.34,-0.65,-0.82,
0.832,1.27,-0.80,-0.43,0.36,-0.66,-0.83,
0.85,1.65,-0.94,-0.70,0.36,-0.66,-0.83,
0.851,1.65,-0.94,-0.70,0.37,-0.66,-0.86,
0.851,1.65,-0.94,-0.70,0.37,-0.68,-0.88,
0.851,1.65,-0.94,-0.70,0.38,-0.69,-0.90,
0.851,1.65,-0.94,-0.70,0.39,-0.70,-0.93,
0.851,1.65,-0.94,-0.70,0.39,-0.71,-0.95,
0.851,1.90,-0.97,-0.93,0.39,-0.71,-0.95,
0.852,1.90,-0.97,-0.93,0.40,-0.72,-0.97,
0.852,1.90,-0.97,-0.93,0.41,-0.72,-1.00,
0.852,1.90,-0.97,-0.93,0.41,-0.73,-1.02,
0.852,1.90,-0.97,-0.93,0.42,-0.75,-1.04,
0.852,1.90,-0.97,-0.93,0.43,-0.76,-1.06,
0.855,1.90,-1.09,-0.86,0.43,-0.76,-1.06,
0.879,1.90,-1.09,-0.86,0.43,-0.78,-1.08,
0.88,1.90,-1.09,-0.86,0.44,-0.81,-1.10,
0.88,1.90,-1.09,-0.86,0.45,-0.84,-1.11,
0.88,1.90,-1.09,-0.86,0.47,-0.87,-1.13,
0.881,1.90,-1.09,-0.86,0.49,-0.91,-1.14,
0.881,1.36,-1.01,-0.67,0.49,-0.91,-1.14,
0.881,1.36,-1.01,-0.67,0.50,-0.94,-1.15,
0.881,1.36,-1.01,-0.67,0.51,-0.97,-1.16,
0.882,1.36,-1.01,-0.67,0.53,-1.00,-1.16,
0.882,1.36,-1.01,-0.67,0.55,-1.03,-1.16,
0.882,1.36,-1.01,-0.67,0.55,-1.06,-1.16,
0.882,0.59,-0.54,-0.67,0.55,-1.06,-1.16,
0.883,0.59,-0.54,-0.67,0.56,-1.08,-1.17,
0.883,0.59,-0.54,-0.67,0.57,-1.10,-1.17,
0.883,0.59,-0.54,-0.67,0.57,-1.12,-1.17,
0.883,0.59,-0.54,-0.67,0.57,-1.13,-1.16,
0.884,0.59,-0.54,-0.67,0.58,-1.14,-1.15,
0.884,-0.26,0.30,-0.81,0.58,-1.14,-1.15,
0.884,-0.26,0.30,-0.81,0.58,-1.14,-1.14,
0.89,-0.26,0.30,-0.81,0.58,-1.13,-1.13,
0.89,-0.26,0.30,-0.81,0.58,-1.12,-1.12,
0.891,-0.26,0.30,-0.81,0.58,-1.12,-1.10,
0.892,-0.26,0.30,-0.81,0.56,-1.11,-1.09,
0.894,-1.08,1.37,-1.02,0.56,-1.11,-1.09,
0.895,-1.08,1.37,-1.02,0.55,-1.11,-1.07,
0.896,-1.08,1.37,-1.02,0.54,-1.12,-1.04,
0.898,-1.08,1.37,-1.02,0.52,-1.14,-1.01,
0.906,-1.08,1.37,-1.02,0.50,-1.16,-0.96,
0.906,-1.08,1.37,-1.02,0.48,-1.19,-0.91,
0.906,-2.18,2.47,-1.10,0.48,-1.19,-0.91,
0.907,-2.18,2.47,-1.10,0.45,-1.22,-0.86,
0.907,-2.18,2.47,-1.10,0.42,-1.25,-0.80,
0.908,-2.18,2.47,-1.10,0.39,-1.27,-0.75,
0.91,-2.18,2.47,-1.10,0.35,-1.29,-0.69,
0.912,-2.18,2.47,-1.10,0.32,-1.30,-0.64,
0.914,-2.68,3.18,-1.25,0.32,-1.30,-0.64,
0.914,-2.68,3.18,-1.25,0.28,-1.30,-0.58,
0.917,-2.68,3.18,-1.25,0.25,-1.28,-0.52,
0.922,-2.68,3.18,-1.25,0.17,-1.21,-0.40,
0.922,-2.68,3.18,-1.25,0.17,-1.21,-0.40,
0.922,-2.68,3.18,-1.25,0.13,-1.17,-0.34,
0.924,-2.77,3.21,-1.28,0.13,-1.17,-0.34,
0.925,-2.77,3.21,-1.28,0.09,-1.12,-0.28,
0.926,-2.77,3.21,-1.28,0.05,-1.07,-0.22,
0.928,-2.77,3.21,-1.28,0.02,-1.01,-0.16,
0.93,-2.77,3.21,-1.28,-0.02,-0.96,-0.11,
0.932,-2.77,3.21,-1.28,-0.06,-0.91,-0.06,
0.935,-2.23,2.76,-1.19,-0.06,-0.91,-0.06,
0.938,-2.23,2.76,-1.19,-0.10,-0.87,-0.02,
0.939,-2.23,2.76,-1.19,-0.13,-0.83,0.01,
0.939,-2.23,2.76,-1.19,-0.16,-0.79,0.05,
0.94,-2.23,2.76,-1.19,-0.19,-0.75,0.08,
0.943,-2.23,2.76,-1.19,-0.21,-0.72,0.10,
0.945,-0.97,2.09,-1.07,-0.21,-0.72,0.10,
0.945,-0.97,2.09,-1.07,-0.23,-0.70,0.12,
0.946,-0.97,2.09,-1.07,-0.25,-0.68,0.13,
0.948,-0.97,2.09,-1.07,-0.26,-0.66,0.14,
0.95,-0.97,2.09,-1.07,-0.27,-0.64,0.14,
0.952,-0.97,2.09,-1.07,-0.27,-0.61,0.14,
0.954,0.38,1.53,-0.81,-0.27,-0.61,0.14,
0.954,0.38,1.53,-0.81,-0.27,-0.57,0.13,
0.956,0.38,1.53,-0.81,-0.27,-0.54,0.13,
0.958,0.38,1.53,-0.81,-0.25,-0.50,0.12,
0.96,0.38,1.53,-0.81,-0.24,-0.46,0.11,
0.962,0.38,1.53,-0.81,-0.22,-0.42,0.09,
0.965,1.04,1.10,-0.47,-0.22,-0.42,0.09,
0.965,1.04,1.10,-0.47,-0.19,-0.38,0.08,
0.983,1.04,1.10,-0.47,-0.17,-0.33,0.06,
0.983,1.04,1.10,-0.47,-0.15,-0.29,0.04,
0.983,1.04,1.10,-0.47,-0.12,-0.24,0.02,
0.984,1.04,1.10,-0.47,-0.10,-0.19,0.01,
0.984,1.36,0.93,-0.60,-0.10,-0.19,0.01,
0.984,1.36,0.93,-0.60,-0.07,-0.15,-0.01,
0.984,1.36,0.93,-0.60,-0.06,-0.10,-0.03,
0.984,1.36,0.93,-0.60,-0.04,-0.07,-0.04,
0.984,1.36,0.93,-0.60,-0.02,-0.05,-0.05,
0.984,1.36,0.93,-0.60,-0.00,-0.03,-0.06,
0.985,1.21,0.94,-0.84,-0.00,-0.03,-0.06,
0.985,1.21,0.94,-0.84,0.01,-0.02,-0.08,
0.986,1.21,0.94,-0.84,0.02,-0.02,-0.09,
0.988,1.21,0.94,-0.84,0.03,-0.02,-0.09,
0.99,1.21,0.94,-0.84,0.03,-0.03,-0.09,
0.992,1.21,0.94,-0.84,0.03,-0.04,-0.09,
0.994,0.95,0.99,-1.07,0.03,-0.04,-0.09,
0.994,0.95,0.99,-1.07,0.03,-0.05,-0.10,
0.996,0.95,0.99,-1.07,0.03,-0.06,-0.10,
0.998,0.95,0.99,-1.07,0.02,-0.07,-0.09,
1.011,0.95,0.99,-1.07,0.01,-0.09,-0.09,
1.012,0.95,0.99,-1.07,-0.00,-0.11,-0.09,
1.012,0.70,0.94,-1.25,-0.00,-0.11,-0.09,
1.013,0.70,0.94,-1.25,-0.01,-0.13,-0.09,
1.013,0.70,0.94,-1.25,-0.03,-0.15,-0.08,
1.013,0.70,0.94,-1.25,-0.04,-0.16,-0.08,
1.014,0.70,0.94,-1.25,-0.06,-0.17,-0.07,
1.014,0.70,0.94,-1.25,-0.09,-0.16,-0.07,
1.014,0.59,0.78,-1.07,-0.09,-0.16,-0.07,
1.015,0.59,0.78,-1.07,-0.11,-0.14,-0.06,
1.029,0.59,0.78,-1.07,-0.13,-0.12,-0.06,
1.03,0.59,0.78,-1.07,-0.16,-0.08,-0.06,
1.03,0.59,0.78,-1.07,-0.19,-0.04,-0.05,
1.068,0.59,0.78,-1.07,-0.23,-0.00,-0.05,
1.069,0.78,0.52,-0.30,-0.23,-0.00,-0.05,
1.07,0.78,0.52,-0.30,-0.27,0.03,-0.05,
1.071,0.78,0.52,-0.30,-0.30,0.04,-0.04,
1.072,0.78,0.52,-0.30,-0.34,0.04,-0.04,
1.073,0.78,0.52,-0.30,-0.37,0.01,-0.04,
1.073,0.78,0.52,-0.30,-0.40,-0.03,-0.04,
1.074,0.74,0.23,0.69,-0.40,-0.03,-0.04,
1.074,0.74,0.23,0.69,-0.42,-0.07,-0.04,
1.074,0.74,0.23,0.69,-0.43,-0.10,-0.04,
1.075,0.74,0.23,0.69,-0.44,-0.12,-0.04,
1.075,0.74,0.23,0.69,-0.45,-0.13,-0.03,
1.076,0.74,0.23,0.69,-0.45,-0.13,-0.03,
1.076,0.75,0.13,1.34,-0.45,-0.13,-0.03,
1.076,0.75,0.13,1.34,-0.45,-0.12,-0.02,
1.077,0.75,0.13,1.34,-0.45,-0.12,-0.02,
1.077,0.75,0.13,1.34,-0.44,-0.12,-0.01,
1.078,0.75,0.13,1.34,-0.43,-0.12,-0.01,
1.078,0.75,0.13,1.34,-0.42,-0.13,0.00,
1.078,0.76,0.24,1.91,-0.42,-0.13,0.00,
1.079,0.76,0.24,1.91,-0.41,-0.14,0.01,
1.079,0.76,0.24,1.91,-0.40,-0.16,0.02,
1.08,0.76,0.24,1.91,-0.39,-0.19,0.02,
1.08,0.76,0.24,1.91,-0.38,-0.21,0.03,
1.081,0.76,0.24,1.91,-0.37,-0.24,0.04,
1.081,0.68,0.30,2.15,-0.37,-0.24,0.04,
1.081,0.68,0.30,2.15,-0.37,-0.26,0.04,
1.082,0.68,0.30,2.15,-0.36,-0.28,0.05,
1.082,0.68,0.30,2.15,-0.36,-0.31,0.05,
1.083,0.68,0.30,2.15,-0.35,-0.34,0.06,
1.083,0.68,0.30,2.15,-0.34,-0.35,0.06,
1.083,0.38,0.54,2.13,-0.34,-0.35,0.06,
1.084,0.38,0.54,2.13,-0.34,-0.37,0.07,
1.084,0.38,0.54,2.13,-0.34,-0.38,0.07,
1.085,0.38,0.54,2.13,-0.34,-0.40,0.08,
1.085,0.38,0.54,2.13,-0.34,-0.41,0.08,
1.085,0.38,0.54,2.13,-0.34,-0.42,0.07,
1.086,0.09,0.63,1.91,-0.34,-0.42,0.07,
1.086,0.09,0.63,1.91,-0.34,-0.44,0.07,
1.087,0.09,0.63,1.91,-0.34,-0.45,0.07,
1.102,0.09,0.63,1.91,-0.35,-0.47,0.05,
1.102,0.09,0.63,1.91,-0.35,-0.49,0.03,
1.103,0.09,0.63,1.91,-0.35,-0.51,0.01,
1.103,0.53,0.46,1.93,-0.35,-0.51,0.01,
1.103,0.53,0.46,1.93,-0.36,-0.54,-0.02,
1.103,0.53,0.46,1.93,-0.36,-0.57,-0.05,
1.104,0.53,0.46,1.93,-0.38,-0.63,-0.11,
1.104,0.53,0.46,1.93,-0.39,-0.67,-0.15,
1.104,0.53,0.46,1.93,-0.40,-0.69,-0.17,
1.105,1.24,0.21,2.03,-0.40,-0.69,-0.17,
1.108,1.24,0.21,2.03,-0.41,-0.73,-0.21,
1.108,1.24,0.21,2.03,-0.42,-0.77,-0.25,
1.109,1.24,0.21,2.03,-0.44,-0.81,-0.29,
1.11,1.24,0.21,2.03,-0.44,-0.85,-0.33,
1.114,1.24,0.21,2.03,-0.45,-0.89,-0.36,
1.114,1.48,0.06,2.48,-0.45,-0.89,-0.36,
1.115,1.48,0.06,2.48,-0.46,-0.92,-0.39,
1.119,1.48,0.06,2.48,-0.47,-0.96,-0.42,
1.12,1.48,0.06,2.48,-0.48,-0.99,-0.44,
1.12,1.48,0.06,2.48,-0.48,-1.02,-0.46,
1.122,1.48,0.06,2.48,-0.49,-1.04,-0.47,
1.125,1.32,0.07,2.75,-0.49,-1.04,-0.47,
1.125,1.32,0.07,2.75,-0.50,-1.06,-0.49,
1.126,1.32,0.07,2.75,-0.50,-1.08,-0.50,
1.128,1.32,0.07,2.75,-0.50,-1.09,-0.51,
1.142,1.32,0.07,2.75,-0.50,-1.11,-0.52,
1.144,1.32,0.07,2.75,-0.50,-1.12,-0.53,
1.144,1.35,-0.11,2.95,-0.50,-1.12,-0.53,
1.144,1.35,-0.11,2.95,-0.50,-1.12,-0.54,
1.144,1.35,-0.11,2.95,-0.50,-1.13,-0.56,
1.145,1.35,-0.11,2.95,-0.49,-1.13,-0.57,
1.145,1.35,-0.11,2.95,-0.48,-1.14,-0.58,
1.145,1.35,-0.11,2.95,-0.47,-1.14,-0.60,
1.145,1.55,-0.47,3.35,-0.47,-1.14,-0.60,
1.145,1.55,-0.47,3.35,-0.46,-1.14,-0.62,
1.17,1.55,-0.47,3.35,-0.45,-1.14,-0.63,
1.171,1.55,-0.47,3.35,-0.43,-1.14,-0.65,
1.171,1.55,-0.47,3.35,-0.41,-1.13,-0.67,
1.171,1.55,-0.47,3.35,-0.39,-1.13,-0.69,
1.171,1.61,-0.84,3.80,-0.39,-1.13,-0.69,
1.171,1.61,-0.84,3.80,-0.36,-1.12,-0.71,
1.172,1.61,-0.84,3.80,-0.34,-1.11,-0.72,
1.172,1.61,-0.84,3.80,-0.31,-1.10,-0.74,
1.172,1.61,-0.84,3.80,-0.28,-1.09,-0.76,
1.172,1.61,-0.84,3.80,-0.25,-1.08,-0.77,
1.172,1.36,-1.03,3.99,-0.25,-1.08,-0.77,
1.173,1.36,-1.03,3.99,-0.21,-1.06,-0.78,
1.173,1.36,-1.03,3.99,-0.18,-1.04,-0.80,
1.173,1.36,-1.03,3.99,-0.15,-1.02,-0.80,
1.173,1.36,-1.03,3.99,-0.11,-1.00,-0.81,
1.173,1.36,-1.03,3.99,-0.08,-0.98,-0.81,
1.174,1.10,-1.22,3.85,-0.08,-0.98,-0.81,
1.174,1.10,-1.22,3.85,-0.04,-0.95,-0.82,
1.176,1.10,-1.22,3.85,0.00,-0.92,-0.82,
1.178,1.10,-1.22,3.85,0.04,-0.88,-0.81,
1.18,1.10,-1.22,3.85,0.08,-0.84,-0.80,
1.182,1.10,-1.22,3.85,0.12,-0.81,-0.79,
1.184,0.46,-1.25,3.56,0.12,-0.81,-0.79,
1.185,0.46,-1.25,3.56,0.16,-0.77,-0.78,
1.186,0.46,-1.25,3.56,0.20,-0.74,-0.77,
1.209,0.46,-1.25,3.56,0.23,-0.70,-0.76,
1.209,0.46,-1.25,3.56,0.27,-0.67,-0.75,
1.209,0.46,-1.25,3.56,0.30,-0.64,-0.74,
1.209,0.06,-1.20,2.67,0.30,-0.64,-0.74,
1.21,0.06,-1.20,2.67,0.32,-0.60,-0.72,
1.21,0.06,-1.20,2.67,0.35,-0.57,-0.72,
1.21,0.06,-1.20,2.67,0.37,-0.53,-0.71,
1.211,0.06,-1.20,2.67,0.39,-0.50,-0.70,
1.211,0.06,-1.20,2.67,0.40,-0.47,-0.69,
1.211,0.01,-1.00,1.55,0.40,-0.47,-0.69,
1.211,0.01,-1.00,1.55,0.42,-0.43,-0.69,
1.212,0.01,-1.00,1.55,0.43,-0.40,-0.69,
1.212,0.01,-1.00,1.55,0.44,-0.37,-0.69,
1.212,0.01,-1.00,1.55,0.44,-0.34,-0.69,
1.212,0.01,-1.00,1.55,0.44,-0.32,-0.69,
1.219,0.05,-1.10,0.62,0.44,-0.32,-0.69,
1.219,0.05,-1.10,0.62,0.44,-0.30,-0.69,
1.219,0.05,-1.10,0.62,0.44,-0.27,-0.70,
1.22,0.05,-1.10,0.62,0.44,-0.25,-0.70,
1.22,0.05,-1.10,0.62,0.43,-0.24,-0.71,
1.222,0.05,-1.10,0.62,0.43,-0.22,-0.72,
1.225,0.16,-1.07,-0.04,0.43,-0.22,-0.72,
1.225,0.16,-1.07,-0.04,0.42,-0.21,-0.73,
1.225,0.16,-1.07,-0.04,0.41,-0.20,-0.74,
1.228,0.16,-1.07,-0.04,0.40,-0.20,-0.75,
1.229,0.16,-1.07,-0.04,0.39,-0.20,-0.76,
1.232,0.16,-1.07,-0.04,0.38,-0.20,-0.77,
1.234,0.22,-1.24,-0.40,0.38,-0.20,-0.77,
1.234,0.22,-1.24,-0.40,0.37,-0.20,-0.78,
1.236,0.22,-1.24,-0.40,0.35,-0.21,-0.79,
1.238,0.22,-1.24,-0.40,0.34,-0.23,-0.81,
1.24,0.22,-1.24,-0.40,0.32,-0.24,-0.82,
1.241,0.22,-1.24,-0.40,0.31,-0.26,-0.82,
1.244,0.11,-1.23,-0.56,0.31,-0.26,-0.82,
1.244,0.11,-1.23,-0.56,0.29,-0.28,-0.83,
1.245,0.11,-1.23,-0.56,0.28,-0.31,-0.84,
1.255,0.11,-1.23,-0.56,0.26,-0.33,-0.85,
1.256,0.11,-1.23,-0.56,0.25,-0.35,-0.85,
1.256,0.11,-1.23,-0.56,0.23,-0.37,-0.86,
1.256,-0.02,-1.44,-0.39,0.23,-0.37,-0.86,
1.256,-0.02,-1.44,-0.39,0.22,-0.39,-0.86,
1.256,-0.02,-1.44,-0.39,0.21,-0.41,-0.86,
1.258,-0.02,-1.44,-0.39,0.19,-0.43,-0.87,
1.26,-0.02,-1.44,-0.39,0.18,-0.45,-0.87,
1.262,-0.02,-1.44,-0.39,0.17,-0.47,-0.87,
1.275,-0.15,-1.53,-0.10,0.17,-0.47,-0.87,
1.275,-0.15,-1.53,-0.10,0.16,-0.48,-0.87,
1.275,-0.15,-1.53,-0.10,0.16,-0.49,-0.87,
1.275,-0.15,-1.53,-0.10,0.15,-0.51,-0.87,
1.275,-0.15,-1.53,-0.10,0.14,-0.52,-0.87,
1.276,-0.15,-1.53,-0.10,0.14,-0.52,-0.87,
1.276,-0.31,-1.82,0.24,0.14,-0.52,-0.87,
1.276,-0.31,-1.82,0.24,0.14,-0.53,-0.87,
1.276,-0.31,-1.82,0.24,0.13,-0.53,-0.87,
1.278,-0.31,-1.82,0.24,0.12,-0.54,-0.86,
1.279,-0.31,-1.82,0.24,0.12,-0.54,-0.86,
1.285,-0.31,-1.82,0.24,0.11,-0.54,-0.85,
1.285,-0.41,-1.88,0.38,0.11,-0.54,-0.85,
1.285,-0.41,-1.88,0.38,0.11,-0.54,-0.85,
1.285,-0.41,-1.88,0.38,0.11,-0.54,-0.84,
1.288,-0.41,-1.88,0.38,0.10,-0.53,-0.83,
1.289,-0.41,-1.88,0.38,0.10,-0.53,-0.82,
1.292,-0.41,-1.88,0.38,0.10,-0.52,-0.81,
1.294,-0.40,-2.00,0.47,0.10,-0.52,-0.81,
1.294,-0.40,-2.00,0.47,0.09,-0.52,-0.81,
1.296,-0.40,-2.00,0.47,0.09,-0.51,-0.80,
1.298,-0.40,-2.00,0.47,0.09,-0.51,-0.79,
1.3,-0.40,-2.00,0.47,0.09,-0.50,-0.78,
1.302,-0.40,-2.00,0.47,0.09,-0.49,-0.77,
1.304,-0.36,-2.01,0.39,0.09,-0.49,-0.77,
1.305,-0.36,-2.01,0.39,0.08,-0.48,-0.77,
1.306,-0.36,-2.01,0.39,0.08,-0.48,-0.77,
1.308,-0.36,-2.01,0.39,0.08,-0.47,-0.76,
1.309,-0.36,-2.01,0.39,0.08,-0.46,-0.75,
1.312,-0.36,-2.01,0.39,0.08,-0.46,-0.75,
1.314,-0.34,-2.16,0.22,0.08,-0.46,-0.75,
1.315,-0.34,-2.16,0.22,0.08,-0.45,-0.74,
1.316,-0.34,-2.16,0.22,0.07,-0.45,-0.74,
1.318,-0.34,-2.16,0.22,0.07,-0.45,-0.73,
1.322,-0.34,-2.16,0.22,0.07,-0.44,-0.72,
1.322,-0.34,-2.16,0.22,0.08,-0.44,-0.72,
1.326,-0.15,-2.08,0.04,0.08,-0.44,-0.72,
1.326,-0.15,-2.08,0.04,0.08,-0.44,-0.72,
1.326,-0.15,-2.08,0.04,0.08,-0.44,-0.71,
1.329,-0.15,-2.08,0.04,0.09,-0.45,-0.71,
1.331,-0.15,-2.08,0.04,0.10,-0.46,-0.72,
1.333,-0.15,-2.08,0.04,0.11,-0.46,-0.72,
1.336,0.15,-2.08,0.04,0.11,-0.46,-0.72,
1.337,0.15,-2.08,0.04,0.13,-0.46,-0.72,
1.337,0.15,-2.08,0.04,0.13,-0.46,-0.73,
1.34,0.15,-2.08,0.04,0.15,-0.47,-0.73,
1.34,0.15,-2.08,0.04,0.17,-0.47,-0.74,
1.343,0.15,-2.08,0.04,0.19,-0.47,-0.74,
1.344,0.35,-1.86,0.05,0.19,-0.47,-0.74,
1.346,0.35,-1.86,0.05,0.21,-0.47,-0.75,
1.346,0.35,-1.86,0.05,0.23,-0.48,-0.76,
1.35,0.35,-1.86,0.05,0.26,-0.48,-0.76,
1.35,0.35,-1.86,0.05,0.28,-0.48,-0.77,
1.352,0.35,-1.86,0.05,0.30,-0.48,-0.78,
1.354,0.43,-1.77,-0.11,0.30,-0.48,-0.78,
1.38,0.43,-1.77,-0.11,0.32,-0.48,-0.79,
1.381,0.43,-1.77,-0.11,0.34,-0.49,-0.80,
1.381,0.43,-1.77,-0.11,0.36,-0.49,-0.80,
1.382,0.43,-1.77,-0.11,0.38,-0.49,-0.81,
1.382,0.43,-1.77,-0.11,0.39,-0.49,-0.82,
1.382,0.35,-1.65,-0.57,0.39,-0.49,-0.82,
1.383,0.35,-1.65,-0.57,0.41,-0.49,-0.83,
1.383,0.35,-1.65,-0.57,0.42,-0.48,-0.84,
1.384,0.35,-1.65,-0.57,0.44,-0.47,-0.85,
1.384,0.35,-1.65,-0.57,0.46,-0.46,-0.86,
1.384,0.35,-1.65,-0.57,0.46,-0.46,-0.86,
1.385,0.13,-1.59,-1.21,0.46,-0.46,-0.86,
1.385,0.13,-1.59,-1.21,0.47,-0.45,-0.86,
1.386,0.13,-1.59,-1.21,0.48,-0.45,-0.87,
1.386,0.13,-1.59,-1.21,0.48,-0.44,-0.87,
1.386,0.13,-1.59,-1.21,0.48,-0.42,-0.87,
1.387,0.13,-1.59,-1.21,0.48,-0.41,-0.87,
1.387,-0.15,-1.63,-1.79,0.48,-0.41,-0.87,
1.388,-0.15,-1.63,-1.79,0.49,-0.41,-0.87,
1.388,-0.15,-1.63,-1.79,0.49,-0.41,-0.86,
1.388,-0.15,-1.63,-1.79,0.48,-0.40,-0.86,
1.396,-0.15,-1.63,-1.79,0.49,-0.40,-0.85,
1.396,-0.15,-1.63,-1.79,0.49,-0.39,-0.85,
1.396,-0.35,-1.59,-2.29,0.49,-0.39,-0.85,
1.397,-0.35,-1.59,-2.29,0.46,-0.39,-0.85,
1.397,-0.35,-1.59,-2.29,0.46,-0.39,-0.85,
1.398,-0.35,-1.59,-2.29,0.44,-0.39,-0.84,
1.4,-0.35,-1.59,-2.29,0.43,-0.40,-0.84,
1.402,-0.35,-1.59,-2.29,0.42,-0.40,-0.84,
1.404,-0.39,-1.40,-2.61,0.42,-0.40,-0.84,
1.405,-0.39,-1.40,-2.61,0.41,-0.41,-0.84,
1.406,-0.39,-1.40,-2.61,0.40,-0.41,-0.84,
1.408,-0.39,-1.40,-2.61,0.39,-0.42,-0.84,
1.41,-0.39,-1.40,-2.61,0.37,-0.43,-0.84,
1.412,-0.39,-1.40,-2.61,0.37,-0.43,-0.84,
1.422,-0.39,-1.26,-2.73,0.37,-0.43,-0.84,
1.423,-0.39,-1.26,-2.73,0.36,-0.44,-0.84,
1.423,-0.39,-1.26,-2.73,0.34,-0.45,-0.84,
1.423,-0.39,-1.26,-2.73,0.33,-0.46,-0.84,
1.423,-0.39,-1.26,-2.73,0.32,-0.46,-0.84,
1.424,-0.39,-1.26,-2.73,0.31,-0.46,-0.84,
1.424,-0.42,-1.09,-2.88,0.31,-0.46,-0.84,
1.425,-0.42,-1.09,-2.88,0.29,-0.47,-0.84,
1.426,-0.42,-1.09,-2.88,0.28,-0.47,-0.84,
1.428,-0.42,-1.09,-2.88,0.27,-0.48,-0.83,
1.453,-0.42,-1.09,-2.88,0.26,-0.48,-0.83,
1.453,-0.42,-1.09,-2.88,0.24,-0.48,-0.82,
1.453,-0.47,-0.96,-3.02,0.24,-0.48,-0.82,
1.453,-0.47,-0.96,-3.02,0.22,-0.49,-0.82,
1.454,-0.47,-0.96,-3.02,0.21,-0.49,-0.82,
1.454,-0.47,-0.96,-3.02,0.19,-0.50,-0.82,
1.454,-0.47,-0.96,-3.02,0.18,-0.51,-0.81,
1.454,-0.47,-0.96,-3.02,0.15,-0.51,-0.81,
1.454,-0.48,-0.88,-3.11,0.15,-0.51,-0.81,
1.455,-0.48,-0.88,-3.11,0.14,-0.52,-0.80,
1.455,-0.48,-0.88,-3.11,0.12,-0.53,-0.80,
1.455,-0.48,-0.88,-3.11,0.10,-0.54,-0.80,
1.455,-0.48,-0.88,-3.11,0.08,-0.55,-0.80,
1.456,-0.48,-0.88,-3.11,0.06,-0.56,-0.80,
1.456,-0.48,-0.80,-3.16,0.06,-0.56,-0.80,
1.456,-0.48,-0.80,-3.16,0.04,-0.57,-0.80,
1.456,-0.48,-0.80,-3.16,0.02,-0.58,-0.79,
1.458,-0.48,-0.80,-3.16,0.00,-0.59,-0.79,
1.46,-0.48,-0.80,-3.16,-0.02,-0.60,-0.79,
1.462,-0.48,-0.80,-3.16,-0.04,-0.61,-0.79,
1.468,-0.44,-0.72,-3.16,-0.04,-0.61,-0.79,
1.469,-0.44,-0.72,-3.16,-0.06,-0.62,-0.79,
1.469,-0.44,-0.72,-3.16,-0.08,-0.63,-0.79,
1.47,-0.44,-0.72,-3.16,-0.10,-0.63,-0.79,
1.47,-0.44,-0.72,-3.16,-0.12,-0.64,-0.79,
1.472,-0.44,-0.72,-3.16,-0.13,-0.64,-0.78,
1.474,-0.52,-0.59,-3.05,-0.13,-0.64,-0.78,
1.475,-0.52,-0.59,-3.05,-0.16,-0.65,-0.78,
1.476,-0.52,-0.59,-3.05,-0.17,-0.65,-0.78,
1.478,-0.52,-0.59,-3.05,-0.19,-0.65,-0.78,
1.494,-0.52,-0.59,-3.05,-0.21,-0.65,-0.77,
1.494,-0.52,-0.59,-3.05,-0.23,-0.65,-0.77,
1.495,-0.52,-0.60,-2.79,-0.23,-0.65,-0.77,
1.495,-0.52,-0.60,-2.79,-0.25,-0.65,-0.77,
1.495,-0.52,-0.60,-2.79,-0.26,-0.64,-0.76,
1.496,-0.52,-0.60,-2.79,-0.29,-0.64,-0.76,
1.496,-0.52,-0.60,-2.79,-0.30,-0.62,-0.75,
1.496,-0.52,-0.60,-2.79,-0.32,-0.61,-0.75,
1.496,-0.43,-0.67,-2.68,-0.32,-0.61,-0.75,
1.497,-0.43,-0.67,-2.68,-0.34,-0.60,-0.75,
1.498,-0.43,-0.67,-2.68,-0.36,-0.59,-0.74,
1.503,-0.43,-0.67,-2.68,-0.38,-0.57,-0.74,
1.504,-0.43,-0.67,-2.68,-0.40,-0.56,-0.74,
1.505,-0.43,-0.67,-2.68,-0.42,-0.54,-0.73,
1.507,-0.30,-0.75,-2.61,-0.42,-0.54,-0.73,
1.507,-0.30,-0.75,-2.61,-0.44,-0.53,-0.73,
1.508,-0.30,-0.75,-2.61,-0.47,-0.51,-0.73,
1.508,-0.30,-0.75,-2.61,-0.49,-0.51,-0.73,
1.51,-0.30,-0.75,-2.61,-0.51,-0.50,-0.73,
1.512,-0.30,-0.75,-2.61,-0.53,-0.49,-0.72,
1.525,-0.17,-0.66,-2.49,-0.53,-0.49,-0.72,
1.526,-0.17,-0.66,-2.49,-0.56,-0.49,-0.72,
1.527,-0.17,-0.66,-2.49,-0.57,-0.48,-0.72,
1.527,-0.17,-0.66,-2.49,-0.60,-0.47,-0.72,
1.527,-0.17,-0.66,-2.49,-0.61,-0.47,-0.72,
1.556,-0.17,-0.66,-2.49,-0.63,-0.46,-0.72,
1.556,-0.16,-0.57,-2.19,-0.63,-0.46,-0.72,
1.557,-0.16,-0.57,-2.19,-0.65,-0.46,-0.72,
1.557,-0.16,-0.57,-2.19,-0.67,-0.45,-0.72,
1.557,-0.16,-0.57,-2.19,-0.68,-0.44,-0.72,
1.558,-0.16,-0.57,-2.19,-0.70,-0.43,-0.72,
1.558,-0.16,-0.57,-2.19,-0.71,-0.43,-0.72,
1.559,-0.15,-0.48,-1.87,-0.71,-0.43,-0.72,
1.559,-0.15,-0.48,-1.87,-0.73,-0.42,-0.72,
1.56,-0.15,-0.48,-1.87,-0.74,-0.41,-0.71,
1.56,-0.15,-0.48,-1.87,-0.75,-0.40,-0.71,
1.56,-0.15,-0.48,-1.87,-0.77,-0.39,-0.71,
1.561,-0.15,-0.48,-1.87,-0.78,-0.38,-0.71,
1.561,-0.12,-0.45,-1.62,-0.78,-0.38,-0.71,
1.561,-0.12,-0.45,-1.62,-0.79,-0.37,-0.71,
1.562,-0.12,-0.45,-1.62,-0.80,-0.37,-0.70,
1.562,-0.12,-0.45,-1.62,-0.81,-0.36,-0.70,
1.562,-0.12,-0.45,-1.62,-0.82,-0.35,-0.70,
1.562,-0.12,-0.45,-1.62,-0.84,-0.34,-0.70,
1.563,-0.09,-0.36,-1.35,-0.84,-0.34,-0.70,
1.563,-0.09,-0.36,-1.35,-0.85,-0.33,-0.69,
1.563,-0.09,-0.36,-1.35,-0.86,-0.32,-0.69,
1.563,-0.09,-0.36,-1.35,-0.86,-0.32,-0.69,
1.564,-0.09,-0.36,-1.35,-0.87,-0.31,-0.69,
1.564,-0.09,-0.36,-1.35,-0.88,-0.31,-0.68,
1.57,-0.05,-0.28,-1.05,-0.88,-0.31,-0.68,
1.57,-0.05,-0.28,-1.05,-0.88,-0.30,-0.68,
1.57,-0.05,-0.28,-1.05,-0.89,-0.30,-0.67,
1.57,-0.05,-0.28,-1.05,-0.89,-0.30,-0.67,
1.571,-0.05,-0.28,-1.05,-0.90,-0.29,-0.67,
1.572,-0.05,-0.28,-1.05,-0.90,-0.29,-0.66,
1.574,-0.05,-0.22,-0.64,-0.90,-0.29,-0.66,
1.575,-0.05,-0.22,-0.64,-0.90,-0.28,-0.65,
1.576,-0.05,-0.22,-0.64,-0.90,-0.27,-0.65,
1.578,-0.05,-0.22,-0.64,-0.89,-0.26,-0.64,
1.58,-0.05,-0.22,-0.64,-0.89,-0.25,-0.64,
1.583,-0.05,-0.22,-0.64,-0.88,-0.24,-0.63,
1.584,-0.12,-0.03,-0.10,-0.88,-0.24,-0.63,
1.584,-0.12,-0.03,-0.10,-0.87,-0.23,-0.63,
1.586,-0.12,-0.03,-0.10,-0.85,-0.22,-0.62,
1.588,-0.12,-0.03,-0.10,-0.84,-0.22,-0.62,
1.589,-0.12,-0.03,-0.10,-0.83,-0.21,-0.61,
1.591,-0.12,-0.03,-0.10,-0.81,-0.20,-0.61,
1.594,-0.06,0.07,0.44,-0.81,-0.20,-0.61,
1.594,-0.06,0.07,0.44,-0.80,-0.19,-0.60,
1.597,-0.06,0.07,0.44,-0.78,-0.19,-0.60,
1.598,-0.06,0.07,0.44,-0.76,-0.18,-0.60,
1.6,-0.06,0.07,0.44,-0.74,-0.18,-0.59,
1.602,-0.06,0.07,0.44,-0.72,-0.17,-0.59,
1.604,-0.10,0.13,0.92,-0.72,-0.17,-0.59,
1.604,-0.10,0.13,0.92,-0.69,-0.17,-0.58,
1.605,-0.10,0.13,0.92,-0.66,-0.16,-0.57,
1.608,-0.10,0.13,0.92,-0.63,-0.16,-0.57,
1.61,-0.10,0.13,0.92,-0.61,-0.15,-0.56,
1.612,-0.10,0.13,0.92,-0.59,-0.15,-0.54,
1.614,-0.21,0.21,1.30,-0.59,-0.15,-0.54,
1.614,-0.21,0.21,1.30,-0.56,-0.15,-0.53,
1.616,-0.21,0.21,1.30,-0.54,-0.14,-0.52,
1.618,-0.21,0.21,1.30,-0.51,-0.14,-0.51,
1.62,-0.21,0.21,1.30,-0.49,-0.14,-0.49,
1.622,-0.21,0.21,1.30,-0.46,-0.14,-0.48,
1.624,-0.22,0.37,1.42,-0.46,-0.14,-0.48,
1.624,-0.22,0.37,1.42,-0.44,-0.14,-0.47,
1.626,-0.22,0.37,1.42,-0.42,-0.14,-0.46,
1.628,-0.22,0.37,1.42,-0.40,-0.14,-0.44,
1.631,-0.22,0.37,1.42,-0.38,-0.14,-0.43,
1.633,-0.22,0.37,1.42,-0.37,-0.15,-0.43,
1.637,-0.07,0.53,1.43,-0.37,-0.15,-0.43,
1.638,-0.07,0.53,1.43,-0.35,-0.15,-0.42,
1.641,-0.07,0.53,1.43,-0.34,-0.15,-0.41,
1.641,-0.07,0.53,1.43,-0.32,-0.15,-0.41,
1.642,-0.07,0.53,1.43,-0.32,-0.16,-0.40,
1.642,-0.07,0.53,1.43,-0.30,-0.16,-0.40,
1.644,0.18,0.66,1.37,-0.30,-0.16,-0.40,
1.645,0.18,0.66,1.37,-0.29,-0.16,-0.39,
1.649,0.18,0.66,1.37,-0.29,-0.16,-0.39,
1.651,0.18,0.66,1.37,-0.29,-0.17,-0.39,
1.652,0.18,0.66,1.37,-0.29,-0.18,-0.39,
1.653,0.18,0.66,1.37,-0.29,-0.19,-0.40,
1.654,0.40,0.80,1.32,-0.29,-0.19,-0.40,
1.654,0.40,0.80,1.32,-0.29,-0.20,-0.40,
1.656,0.40,0.80,1.32,-0.30,-0.21,-0.40,
1.658,0.40,0.80,1.32,-0.31,-0.22,-0.41,
1.66,0.40,0.80,1.32,-0.31,-0.23,-0.41,
1.68,0.40,0.80,1.32,-0.32,-0.24,-0.42,
1.681,0.56,0.85,1.40,-0.32,-0.24,-0.42,
1.681,0.56,0.85,1.40,-0.33,-0.26,-0.42,
1.681,0.56,0.85,1.40,-0.34,-0.27,-0.43,
1.681,0.56,0.85,1.40,-0.35,-0.28,-0.44,
1.682,0.56,0.85,1.40,-0.36,-0.28,-0.44,
1.682,0.56,0.85,1.40,-0.37,-0.29,-0.45,
1.682,0.64,0.91,1.72,-0.37,-0.29,-0.45,
1.682,0.64,0.91,1.72,-0.38,-0.29,-0.45,
1.682,0.64,0.91,1.72,-0.38,-0.29,-0.46,
1.683,0.64,0.91,1.72,-0.39,-0.29,-0.47,
1.683,0.64,0.91,1.72,-0.39,-0.28,-0.47,
1.683,0.64,0.91,1.72,-0.39,-0.27,-0.47,
1.693,0.62,0.89,2.24,-0.39,-0.27,-0.47,
1.694,0.62,0.89,2.24,-0.39,-0.26,-0.48,
1.709,0.62,0.89,2.24,-0.39,-0.25,-0.48,
1.74,0.62,0.89,2.24,-0.39,-0.24,-0.48,
1.741,0.62,0.89,2.24,-0.38,-0.22,-0.48,
1.741,0.62,0.89,2.24,-0.37,-0.20,-0.49,
1.741,0.46,0.91,2.74,-0.37,-0.20,-0.49,
1.742,0.46,0.91,2.74,-0.37,-0.19,-0.48,
1.742,0.46,0.91,2.74,-0.36,-0.17,-0.48,
1.743,0.46,0.91,2.74,-0.34,-0.15,-0.48,
1.743,0.46,0.91,2.74,-0.33,-0.13,-0.48,
1.743,0.46,0.91,2.74,-0.32,-0.11,-0.48,
1.744,0.30,0.94,3.16,-0.32,-0.11,-0.48,
1.744,0.30,0.94,3.16,-0.31,-0.09,-0.48,
1.745,0.30,0.94,3.16,-0.29,-0.06,-0.47,
1.745,0.30,0.94,3.16,-0.28,-0.04,-0.47,
1.746,0.30,0.94,3.16,-0.27,-0.02,-0.47,
1.746,0.30,0.94,3.16,-0.26,0.01,-0.47,
1.746,0.19,1.02,3.22,-0.26,0.01,-0.47,
1.747,0.19,1.02,3.22,-0.25,0.03,-0.47,
1.747,0.19,1.02,3.22,-0.24,0.05,-0.47,
1.748,0.19,1.02,3.22,-0.23,0.07,-0.47,
1.748,0.19,1.02,3.22,-0.23,0.10,-0.47,
1.748,0.19,1.02,3.22,-0.22,0.12,-0.48,
1.749,0.19,1.04,2.99,-0.22,0.12,-0.48,
1.749,0.19,1.04,2.99,-0.23,0.13,-0.48,
1.749,0.19,1.04,2.99,-0.23,0.15,-0.49,
1.749,0.19,1.04,2.99,-0.24,0.16,-0.50,
1.75,0.19,1.04,2.99,-0.25,0.18,-0.51,
1.75,0.19,1.04,2.99,-0.26,0.19,-0.52,
1.75,0.29,1.08,2.58,-0.26,0.19,-0.52,
1.75,0.29,1.08,2.58,-0.27,0.20,-0.53,
1.751,0.29,1.08,2.58,-0.28,0.22,-0.54,
1.751,0.29,1.08,2.58,-0.30,0.23,-0.56,
1.751,0.29,1.08,2.58,-0.32,0.25,-0.58,
1.751,0.29,1.08,2.58,-0.34,0.26,-0.59,
1.752,0.27,1.19,2.33,-0.34,0.26,-0.59,
1.752,0.27,1.19,2.33,-0.35,0.27,-0.61,
1.752,0.27,1.19,2.33,-0.37,0.29,-0.62,
1.753,0.27,1.19,2.33,-0.39,0.30,-0.64,
1.753,0.27,1.19,2.33,-0.41,0.31,-0.65,
1.753,0.27,1.19,2.33,-0.42,0.33,-0.67,
1.76,0.09,1.26,2.33,-0.42,0.33,-0.67,
1.761,0.09,1.26,2.33,-0.44,0.34,-0.68,
1.761,0.09,1.26,2.33,-0.45,0.35,-0.70,
1.761,0.09,1.26,2.33,-0.47,0.35,-0.71,
1.761,0.09,1.26,2.33,-0.48,0.36,-0.72,
1.763,0.09,1.26,2.33,-0.49,0.37,-0.73,
1.764,-0.23,1.08,2.57,-0.49,0.37,-0.73,
1.765,-0.23,1.08,2.57,-0.50,0.38,-0.75,
1.766,-0.23,1.08,2.57,-0.50,0.39,-0.76,
1.768,-0.23,1.08,2.57,-0.50,0.40,-0.76,
1.77,-0.23,1.08,2.57,-0.50,0.41,-0.77,
1.772,-0.23,1.08,2.57,-0.50,0.43,-0.78,
1.774,-0.64,0.78,3.10,-0.50,0.43,-0.78,
1.774,-0.64,0.78,3.10,-0.49,0.44,-0.78,
1.776,-0.64,0.78,3.10,-0.48,0.46,-0.78,
1.779,-0.64,0.78,3.10,-0.47,0.48,-0.77,
1.781,-0.64,0.78,3.10,-0.46,0.49,-0.77,
1.782,-0.64,0.78,3.10,-0.44,0.51,-0.76,
1.784,-1.09,0.49,3.58,-0.44,0.51,-0.76,
1.785,-1.09,0.49,3.58,-0.42,0.53,-0.76,
1.786,-1.09,0.49,3.58,-0.41,0.55,-0.75,
1.788,-1.09,0.49,3.58,-0.39,0.56,-0.74,
1.79,-1.09,0.49,3.58,-0.37,0.58,-0.73,
1.791,-1.09,0.49,3.58,-0.35,0.59,-0.72,
1.794,-1.45,0.23,3.84,-0.35,0.59,-0.72,
1.806,-1.45,0.23,3.84,-0.34,0.61,-0.71,
1.807,-1.45,0.23,3.84,-0.32,0.62,-0.70,
1.807,-1.45,0.23,3.84,-0.30,0.63,-0.69,
1.807,-1.45,0.23,3.84,-0.28,0.64,-0.68,
1.807,-1.45,0.23,3.84,-0.26,0.65,-0.67,
1.808,-1.56,0.01,3.96,-0.26,0.65,-0.67,
1.808,-1.56,0.01,3.96,-0.25,0.65,-0.66,
1.808,-1.56,0.01,3.96,-0.23,0.64,-0.65,
1.808,-1.56,0.01,3.96,-0.22,0.64,-0.64,
1.81,-1.56,0.01,3.96,-0.20,0.63,-0.63,
1.833,-1.56,0.01,3.96,-0.19,0.62,-0.62,
1.834,-1.88,-0.21,4.04,-0.19,0.62,-0.62,
1.834,-1.88,-0.21,4.04,-0.17,0.61,-0.60,
1.834,-1.88,-0.21,4.04,-0.15,0.60,-0.59,
1.834,-1.88,-0.21,4.04,-0.14,0.59,-0.57,
1.834,-1.88,-0.21,4.04,-0.13,0.57,-0.55,
1.834,-1.88,-0.21,4.04,-0.12,0.56,-0.53,
1.835,-2.16,-0.37,4.11,-0.12,0.56,-0.53,
1.835,-2.16,-0.37,4.11,-0.10,0.54,-0.52,
1.835,-2.16,-0.37,4.11,-0.09,0.52,-0.50,
1.835,-2.16,-0.37,4.11,-0.08,0.49,-0.48,
1.835,-2.16,-0.37,4.11,-0.07,0.47,-0.46,
1.836,-2.16,-0.37,4.11,-0.05,0.44,-0.45,
1.836,-2.33,-0.52,4.25,-0.05,0.44,-0.45,
1.836,-2.33,-0.52,4.25,-0.04,0.41,-0.43,
1.836,-2.33,-0.52,4.25,-0.03,0.38,-0.41,
1.838,-2.33,-0.52,4.25,-0.02,0.35,-0.39,
1.84,-2.33,-0.52,4.25,-0.01,0.32,-0.37,
1.842,-2.33,-0.52,4.25,0.00,0.28,-0.35,
1.846,-2.31,-0.66,4.34,0.00,0.28,-0.35,
1.846,-2.31,-0.66,4.34,0.01,0.25,-0.33,
1.846,-2.31,-0.66,4.34,0.02,0.21,-0.31,
1.848,-2.31,-0.66,4.34,0.03,0.17,-0.29,
1.85,-2.31,-0.66,4.34,0.04,0.14,-0.27,
1.852,-2.31,-0.66,4.34,0.05,0.11,-0.25,
1.854,-2.21,-0.90,4.42,0.05,0.11,-0.25,
1.881,-2.21,-0.90,4.42,0.06,0.07,-0.23,
1.882,-2.21,-0.90,4.42,0.07,0.04,-0.21,
1.882,-2.21,-0.90,4.42,0.09,0.01,-0.19,
1.883,-2.21,-0.90,4.42,0.10,-0.01,-0.17,
1.883,-2.21,-0.90,4.42,0.12,-0.04,-0.15,
1.883,-1.89,-1.10,4.47,0.12,-0.04,-0.15,
1.883,-1.89,-1.10,4.47,0.14,-0.06,-0.14,
1.884,-1.89,-1.10,4.47,0.15,-0.09,-0.12,
1.884,-1.89,-1.10,4.47,0.17,-0.11,-0.11,
1.884,-1.89,-1.10,4.47,0.19,-0.13,-0.09,
1.884,-1.89,-1.10,4.47,0.21,-0.16,-0.08,
1.885,-1.60,-1.32,4.45,0.21,-0.16,-0.08,
1.885,-1.60,-1.32,4.45,0.23,-0.17,-0.06,
1.885,-1.60,-1.32,4.45,0.25,-0.19,-0.04,
1.885,-1.60,-1.32,4.45,0.27,-0.21,-0.03,
1.886,-1.60,-1.32,4.45,0.30,-0.23,-0.02,
1.886,-1.60,-1.32,4.45,0.32,-0.24,-0.01,
1.886,-1.17,-1.47,4.20,0.32,-0.24,-0.01,
1.887,-1.17,-1.47,4.20,0.33,-0.26,0.01,
1.887,-1.17,-1.47,4.20,0.35,-0.28,0.02,
1.892,-1.17,-1.47,4.20,0.36,-0.29,0.03,
1.893,-1.17,-1.47,4.20,0.38,-0.30,0.04,
1.893,-1.17,-1.47,4.20,0.40,-0.32,0.05,
1.895,-0.86,-1.68,3.84,0.40,-0.32,0.05,
1.895,-0.86,-1.68,3.84,0.42,-0.33,0.06,
1.896,-0.86,-1.68,3.84,0.43,-0.34,0.07,
1.899,-0.86,-1.68,3.84,0.45,-0.35,0.08,
1.9,-0.86,-1.68,3.84,0.47,-0.35,0.09,
1.905,-0.86,-1.68,3.84,0.49,-0.36,0.09,
1.905,-0.63,-1.75,3.45,0.49,-0.36,0.09,
1.906,-0.63,-1.75,3.45,0.51,-0.36,0.10,
1.908,-0.63,-1.75,3.45,0.53,-0.36,0.11,
1.909,-0.63,-1.75,3.45,0.55,-0.35,0.12,
1.909,-0.63,-1.75,3.45,0.57,-0.34,0.13,
1.913,-0.63,-1.75,3.45,0.59,-0.33,0.14,
1.915,-0.52,-1.87,2.99,0.59,-0.33,0.14,
1.915,-0.52,-1.87,2.99,0.61,-0.32,0.15,
1.916,-0.52,-1.87,2.99,0.63,-0.31,0.17,
1.92,-0.52,-1.87,2.99,0.67,-0.27,0.19,
1.92,-0.52,-1.87,2.99,0.67,-0.27,0.19,
1.922,-0.52,-1.87,2.99,0.69,-0.25,0.21,
1.924,-0.43,-1.89,2.37,0.69,-0.25,0.21,
1.924,-0.43,-1.89,2.37,0.71,-0.23,0.22,
1.925,-0.43,-1.89,2.37,0.73,-0.20,0.23,
1.936,-0.43,-1.89,2.37,0.74,-0.18,0.24,
1.937,-0.43,-1.89,2.37,0.76,-0.15,0.26,
1.937,-0.43,-1.89,2.37,0.78,-0.12,0.27,
1.937,-0.43,-1.95,1.63,0.78,-0.12,0.27,
1.937,-0.43,-1.95,1.63,0.80,-0.09,0.29,
1.937,-0.43,-1.95,1.63,0.81,-0.05,0.30,
1.938,-0.43,-1.95,1.63,0.83,-0.02,0.32,
1.942,-0.43,-1.95,1.63,0.83,0.02,0.33,
1.942,-0.43,-1.95,1.63,0.85,0.06,0.35,
1.963,-0.46,-1.87,0.80,0.85,0.06,0.35,
1.964,-0.46,-1.87,0.80,0.86,0.10,0.36,
1.964,-0.46,-1.87,0.80,0.87,0.14,0.38,
1.964,-0.46,-1.87,0.80,0.87,0.18,0.39,
1.965,-0.46,-1.87,0.80,0.88,0.23,0.40,
1.965,-0.46,-1.87,0.80,0.88,0.27,0.42,
1.965,-0.48,-1.87,-0.10,0.88,0.27,0.42,
1.965,-0.48,-1.87,-0.10,0.88,0.31,0.43,
1.965,-0.48,-1.87,-0.10,0.89,0.36,0.45,
1.966,-0.48,-1.87,-0.10,0.89,0.41,0.46,
1.966,-0.48,-1.87,-0.10,0.89,0.45,0.47,
1.966,-0.48,-1.87,-0.10,0.88,0.50,0.49,
1.966,-0.49,-1.78,-1.03,0.88,0.50,0.49,
1.966,-0.49,-1.78,-1.03,0.88,0.55,0.50,
1.967,-0.49,-1.78,-1.03,0.87,0.60,0.52,
1.968,-0.49,-1.78,-1.03,0.86,0.64,0.53,
1.97,-0.49,-1.78,-1.03,0.86,0.69,0.54,
1.972,-0.49,-1.78,-1.03,0.85,0.73,0.56,
1.974,-0.47,-1.74,-1.89,0.85,0.73,0.56,
1.975,-0.47,-1.74,-1.89,0.84,0.77,0.57,
1.976,-0.47,-1.74,-1.89,0.83,0.81,0.58,
1.978,-0.47,-1.74,-1.89,0.81,0.85,0.59,
1.98,-0.47,-1.74,-1.89,0.80,0.89,0.61,
1.983,-0.47,-1.74,-1.89,0.78,0.92,0.62,
1.984,-0.43,-1.56,-2.62,0.78,0.92,0.62,
1.985,-0.43,-1.56,-2.62,0.77,0.95,0.63,
1.986,-0.43,-1.56,-2.62,0.75,0.98,0.64,
1.988,-0.43,-1.56,-2.62,0.73,1.00,0.65,
1.99,-0.43,-1.56,-2.62,0.71,1.03,0.66,
1.992,-0.43,-1.56,-2.62,0.70,1.05,0.67,
1.995,-0.44,-1.44,-3.23,0.70,1.05,0.67,
1.996,-0.44,-1.44,-3.23,0.68,1.07,0.68,
1.997,-0.44,-1.44,-3.23,0.66,1.09,0.69,
1.998,-0.44,-1.44,-3.23,0.64,1.11,0.70,
2.0,-0.44,-1.44,-3.23,0.62,1.13,0.71,
2.002,-0.44,-1.44,-3.23,0.61,1.14,0.72,
2.005,-0.39,-1.33,-3.68,0.61,1.14,0.72,
2.005,-0.39,-1.33,-3.68,0.58,1.14,0.73,
2.006,-0.39,-1.33,-3.68,0.56,1.15,0.74,
2.008,-0.39,-1.33,-3.68,0.54,1.16,0.75,
2.013,-0.39,-1.33,-3.68,0.52,1.16,0.75,
2.015,-0.39,-1.33,-3.68,0.50,1.15,0.76,
2.015,-0.31,-1.32,-3.90,0.50,1.15,0.76,
2.016,-0.31,-1.32,-3.90,0.48,1.15,0.76,
2.017,-0.31,-1.32,-3.90,0.47,1.14,0.77,
2.018,-0.31,-1.32,-3.90,0.45,1.13,0.77,
2.02,-0.31,-1.32,-3.90,0.43,1.12,0.77,
2.043,-0.31,-1.32,-3.90,0.42,1.10,0.78,
2.044,-0.28,-1.24,-3.88,0.42,1.10,0.78,
2.044,-0.28,-1.24,-3.88,0.41,1.08,0.78,
2.044,-0.28,-1.24,-3.88,0.40,1.06,0.78,
2.045,-0.28,-1.24,-3.88,0.39,1.03,0.79,
2.045,-0.28,-1.24,-3.88,0.38,1.01,0.79,
2.045,-0.28,-1.24,-3.88,0.37,0.98,0.79,
2.045,-0.25,-1.20,-3.73,0.37,0.98,0.79,
2.046,-0.25,-1.20,-3.73,0.36,0.95,0.80,
2.046,-0.25,-1.20,-3.73,0.36,0.92,0.80,
2.046,-0.25,-1.20,-3.73,0.35,0.89,0.80,
2.046,-0.25,-1.20,-3.73,0.34,0.87,0.81,
2.047,-0.25,-1.20,-3.73,0.34,0.83,0.81,
2.047,-0.25,-1.19,-3.50,0.34,0.83,0.81,
2.047,-0.25,-1.19,-3.50,0.33,0.80,0.81,
2.047,-0.25,-1.19,-3.50,0.34,0.77,0.81,
2.048,-0.25,-1.19,-3.50,0.34,0.74,0.82,
2.053,-0.25,-1.19,-3.50,0.34,0.71,0.82,
2.053,-0.25,-1.19,-3.50,0.35,0.69,0.83,
2.054,-0.18,-1.22,-3.21,0.35,0.69,0.83,
2.054,-0.18,-1.22,-3.21,0.35,0.66,0.83,
2.055,-0.18,-1.22,-3.21,0.35,0.63,0.84,
2.058,-0.18,-1.22,-3.21,0.36,0.61,0.84,
2.06,-0.18,-1.22,-3.21,0.36,0.59,0.85,
2.062,-0.18,-1.22,-3.21,0.37,0.57,0.85,
2.065,-0.04,-1.26,-2.93,0.37,0.57,0.85,
2.065,-0.04,-1.26,-2.93,0.37,0.55,0.85,
2.066,-0.04,-1.26,-2.93,0.38,0.54,0.86,
2.068,-0.04,-1.26,-2.93,0.38,0.53,0.86,
2.07,-0.04,-1.26,-2.93,0.39,0.53,0.86,
2.072,-0.04,-1.26,-2.93,0.41,0.53,0.86,
2.074,0.05,-1.16,-2.74,0.41,0.53,0.86,
2.074,0.05,-1.16,-2.74,0.41,0.53,0.86,
2.075,0.05,-1.16,-2.74,0.42,0.53,0.85,
2.085,0.05,-1.16,-2.74,0.44,0.53,0.85,
2.086,0.05,-1.16,-2.74,0.45,0.53,0.84,
2.086,0.05,-1.16,-2.74,0.46,0.52,0.84,
2.086,0.14,-0.89,-2.77,0.46,0.52,0.84,
2.087,0.14,-0.89,-2.77,0.48,0.50,0.83,
2.087,0.14,-0.89,-2.77,0.49,0.49,0.82,
2.088,0.14,-0.89,-2.77,0.49,0.46,0.81,
2.09,0.14,-0.89,-2.77,0.50,0.43,0.80,
2.114,0.14,-0.89,-2.77,0.50,0.40,0.79,
2.114,0.18,-0.76,-3.23,0.50,0.40,0.79,
2.114,0.18,-0.76,-3.23,0.50,0.36,0.78,
2.114,0.18,-0.76,-3.23,0.49,0.32,0.77,
2.115,0.18,-0.76,-3.23,0.48,0.27,0.76,
2.115,0.18,-0.76,-3.23,0.46,0.22,0.75,
2.115,0.18,-0.76,-3.23,0.45,0.16,0.75,
2.115,0.11,-0.78,-3.80,0.45,0.16,0.75,
2.115,0.11,-0.78,-3.80,0.44,0.10,0.74,
2.115,0.11,-0.78,-3.80,0.42,0.03,0.73,
2.115,0.11,-0.78,-3.80,0.40,-0.04,0.73,
2.116,0.11,-0.78,-3.80,0.39,-0.11,0.72,
2.116,0.11,-0.78,-3.80,0.36,-0.18,0.72,
2.116,-0.10,-1.00,-3.92,0.36,-0.18,0.72,
2.116,-0.10,-1.00,-3.92,0.35,-0.26,0.72,
2.116,-0.10,-1.00,-3.92,0.33,-0.33,0.71,
2.118,-0.10,-1.00,-3.92,0.31,-0.40,0.71,
2.119,-0.10,-1.00,-3.92,0.29,-0.47,0.71,
2.122,-0.10,-1.00,-3.92,0.28,-0.53,0.71,
2.125,-0.20,-1.06,-3.49,0.28,-0.53,0.71,
2.126,-0.20,-1.06,-3.49,0.27,-0.58,0.70,
2.126,-0.20,-1.06,-3.49,0.27,-0.62,0.70,
2.129,-0.20,-1.06,-3.49,0.26,-0.66,0.70,
2.131,-0.20,-1.06,-3.49,0.26,-0.70,0.69,
2.132,-0.20,-1.06,-3.49,0.26,-0.72,0.69,
2.134,-0.18,-1.36,-2.67,0.26,-0.72,0.69,
2.135,-0.18,-1.36,-2.67,0.26,-0.74,0.68,
2.136,-0.18,-1.36,-2.67,0.26,-0.76,0.68,
2.138,-0.18,-1.36,-2.67,0.26,-0.77,0.67,
2.14,-0.18,-1.36,-2.67,0.27,-0.77,0.67,
2.142,-0.18,-1.36,-2.67,0.28,-0.77,0.66,
2.15,0.01,-1.39,-1.88,0.28,-0.77,0.66,
2.151,0.01,-1.39,-1.88,0.29,-0.77,0.66,
2.151,0.01,-1.39,-1.88,0.30,-0.77,0.65,
2.152,0.01,-1.39,-1.88,0.32,-0.76,0.64,
2.152,0.01,-1.39,-1.88,0.33,-0.75,0.63,
2.153,0.01,-1.39,-1.88,0.34,-0.73,0.63,
2.156,0.16,-1.56,-1.24,0.34,-0.73,0.63,
2.156,0.16,-1.56,-1.24,0.35,-0.72,0.62,
2.157,0.16,-1.56,-1.24,0.37,-0.69,0.61,
2.158,0.16,-1.56,-1.24,0.38,-0.67,0.60,
2.166,0.16,-1.56,-1.24,0.40,-0.64,0.59,
2.166,0.16,-1.56,-1.24,0.41,-0.61,0.59,
2.166,0.27,-1.51,-0.95,0.41,-0.61,0.59,
2.167,0.27,-1.51,-0.95,0.42,-0.58,0.58,
2.167,0.27,-1.51,-0.95,0.44,-0.55,0.57,
2.168,0.27,-1.51,-0.95,0.45,-0.52,0.56,
2.17,0.27,-1.51,-0.95,0.47,-0.48,0.56,
2.172,0.27,-1.51,-0.95,0.48,-0.45,0.55,
2.174,0.25,-1.64,-0.89,0.48,-0.45,0.55,
2.175,0.25,-1.64,-0.89,0.49,-0.42,0.54,
2.194,0.25,-1.64,-0.89,0.50,-0.39,0.53,
2.194,0.25,-1.64,-0.89,0.50,-0.36,0.53,
2.195,0.25,-1.64,-0.89,0.51,-0.34,0.52,
2.195,0.25,-1.64,-0.89,0.52,-0.32,0.50,
2.195,0.28,-1.54,-1.04,0.52,-0.32,0.50,
2.195,0.28,-1.54,-1.04,0.53,-0.31,0.50,
2.196,0.28,-1.54,-1.04,0.53,-0.30,0.48,
2.224,0.28,-1.54,-1.04,0.52,-0.29,0.47,
2.224,0.28,-1.54,-1.04,0.52,-0.28,0.46,
2.225,0.28,-1.54,-1.04,0.51,-0.28,0.44,
2.225,0.34,-1.55,-1.30,0.51,-0.28,0.44,
2.225,0.34,-1.55,-1.30,0.50,-0.28,0.43,
2.226,0.34,-1.55,-1.30,0.50,-0.28,0.42,
2.226,0.34,-1.55,-1.30,0.49,-0.28,0.40,
2.227,0.34,-1.55,-1.30,0.47,-0.28,0.39,
2.227,0.34,-1.55,-1.30,0.46,-0.28,0.37,
2.227,0.30,-1.48,-1.59,0.46,-0.28,0.37,
2.228,0.30,-1.48,-1.59,0.44,-0.29,0.36,
2.228,0.30,-1.48,-1.59,0.42,-0.29,0.35,
2.229,0.30,-1.48,-1.59,0.41,-0.29,0.33,
2.229,0.30,-1.48,-1.59,0.39,-0.29,0.32,
2.229,0.30,-1.48,-1.59,0.37,-0.29,0.31,
2.23,0.28,-1.44,-1.73,0.37,-0.29,0.31,
2.23,0.28,-1.44,-1.73,0.35,-0.29,0.30,
2.231,0.28,-1.44,-1.73,0.33,-0.28,0.29,
2.231,0.28,-1.44,-1.73,0.31,-0.28,0.28,
2.232,0.28,-1.44,-1.73,0.28,-0.27,0.27,
2.232,0.28,-1.44,-1.73,0.26,-0.26,0.26,
2.232,0.23,-1.37,-1.69,0.26,-0.26,0.26,
2.233,0.23,-1.37,-1.69,0.23,-0.25,0.26,
2.233,0.23,-1.37,-1.69,0.21,-0.24,0.25,
2.234,0.23,-1.37,-1.69,0.18,-0.23,0.24,
2.234,0.23,-1.37,-1.69,0.15,-0.22,0.23,
2.235,0.23,-1.37,-1.69,0.13,-0.21,0.23,
2.235,0.27,-1.29,-1.58,0.13,-0.21,0.23,
2.235,0.27,-1.29,-1.58,0.10,-0.20,0.22,
2.236,0.27,-1.29,-1.58,0.07,-0.20,0.21,
2.244,0.27,-1.29,-1.58,0.04,-0.19,0.20,
2.244,0.27,-1.29,-1.58,-0.00,-0.19,0.20,
2.244,0.27,-1.29,-1.58,-0.04,-0.18,0.19,
2.245,0.38,-1.24,-1.48,-0.04,-0.18,0.19,
2.245,0.38,-1.24,-1.48,-0.08,-0.18,0.18,
2.256,0.38,-1.24,-1.48,-0.11,-0.18,0.17,
2.256,0.38,-1.24,-1.48,-0.16,-0.17,0.16,
2.256,0.38,-1.24,-1.48,-0.20,-0.17,0.15,
2.257,0.38,-1.24,-1.48,-0.25,-0.16,0.14,
2.257,0.62,-1.18,-1.39,-0.25,-0.16,0.14,
2.257,0.62,-1.18,-1.39,-0.29,-0.15,0.13,
2.257,0.62,-1.18,-1.39,-0.34,-0.13,0.12,
2.258,0.62,-1.18,-1.39,-0.39,-0.12,0.11,
2.267,0.62,-1.18,-1.39,-0.44,-0.10,0.10,
2.267,0.62,-1.18,-1.39,-0.49,-0.07,0.08,
2.268,0.91,-1.05,-1.11,-0.49,-0.07,0.08,
2.268,0.91,-1.05,-1.11,-0.54,-0.04,0.07,
2.268,0.91,-1.05,-1.11,-0.59,-0.01,0.05,
2.268,0.91,-1.05,-1.11,-0.63,0.02,0.03,
2.27,0.91,-1.05,-1.11,-0.68,0.05,0.01,
2.273,0.91,-1.05,-1.11,-0.72,0.09,-0.01,
2.274,1.25,-0.93,-0.57,-0.72,0.09,-0.01,
2.275,1.25,-0.93,-0.57,-0.76,0.13,-0.03,
2.277,1.25,-0.93,-0.57,-0.81,0.17,-0.05,
2.278,1.25,-0.93,-0.57,-0.85,0.22,-0.08,
2.28,1.25,-0.93,-0.57,-0.89,0.27,-0.10,
2.282,1.25,-0.93,-0.57,-0.93,0.32,-0.12,
2.284,1.35,-0.84,0.05,-0.93,0.32,-0.12,
2.285,1.35,-0.84,0.05,-0.96,0.37,-0.14,
2.286,1.35,-0.84,0.05,-1.00,0.42,-0.16,
2.288,1.35,-0.84,0.05,-1.04,0.48,-0.18,
2.29,1.35,-0.84,0.05,-1.07,0.53,-0.19,
2.31,1.35,-0.84,0.05,-1.11,0.58,-0.21,
2.31,1.28,-0.79,0.55,-1.11,0.58,-0.21,
2.31,1.28,-0.79,0.55,-1.15,0.63,-0.22,
2.31,1.28,-0.79,0.55,-1.18,0.68,-0.23,
2.311,1.28,-0.79,0.55,-1.22,0.73,-0.24,
2.311,1.28,-0.79,0.55,-1.26,0.77,-0.26,
2.311,1.28,-0.79,0.55,-1.31,0.82,-0.27,
2.311,1.27,-0.63,0.78,-1.31,0.82,-0.27,
2.311,1.27,-0.63,0.78,-1.35,0.85,-0.29,
2.312,1.27,-0.63,0.78,-1.40,0.88,-0.30,
2.312,1.27,-0.63,0.78,-1.45,0.91,-0.32,
2.312,1.27,-0.63,0.78,-1.50,0.94,-0.34,
2.332,1.27,-0.63,0.78,-1.56,0.96,-0.37,
2.332,1.59,-0.53,0.93,-1.56,0.96,-0.37,
2.332,1.59,-0.53,0.93,-1.61,0.98,-0.39,
2.332,1.59,-0.53,0.93,-1.66,0.99,-0.42,
2.332,1.59,-0.53,0.93,-1.71,1.01,-0.45,
2.333,1.59,-0.53,0.93,-1.77,1.02,-0.48,
2.333,1.59,-0.53,0.93,-1.81,1.03,-0.51,
2.333,1.76,-0.49,1.49,-1.81,1.03,-0.51,
2.333,1.76,-0.49,1.49,-1.85,1.04,-0.54,
2.333,1.76,-0.49,1.49,-1.90,1.04,-0.58,
2.334,1.76,-0.49,1.49,-1.92,1.05,-0.61,
2.334,1.76,-0.49,1.49,-1.95,1.05,-0.64,
2.334,1.76,-0.49,1.49,-1.97,1.06,-0.67,
2.334,1.70,-0.66,2.60,-1.97,1.06,-0.67,
2.334,1.70,-0.66,2.60,-1.99,1.06,-0.69,
2.343,1.70,-0.66,2.60,-2.00,1.06,-0.71,
2.343,1.70,-0.66,2.60,-2.00,1.06,-0.73,
2.344,1.70,-0.66,2.60,-2.00,1.06,-0.75,
2.344,1.70,-0.66,2.60,-1.99,1.06,-0.76,
2.361,1.29,-0.93,3.85,-1.99,1.06,-0.76,
2.361,1.29,-0.93,3.85,-1.98,1.06,-0.76,
2.362,1.29,-0.93,3.85,-1.97,1.06,-0.77,
2.362,1.29,-0.93,3.85,-1.96,1.06,-0.77,
2.362,1.29,-0.93,3.85,-1.93,1.06,-0.77,
2.362,1.29,-0.93,3.85,-1.90,1.06,-0.76,
2.362,0.79,-1.29,4.97,-1.90,1.06,-0.76,
2.383,0.79,-1.29,4.97,-1.87,1.07,-0.76,
2.383,0.79,-1.29,4.97,-1.82,1.07,-0.75,
2.383,0.79,-1.29,4.97,-1.78,1.07,-0.74,
2.384,0.79,-1.29,4.97,-1.73,1.07,-0.72,
2.384,0.79,-1.29,4.97,-1.68,1.07,-0.71,
2.384,0.41,-1.53,5.82,-1.68,1.07,-0.71,
2.385,0.41,-1.53,5.82,-1.63,1.07,-0.69,
2.385,0.41,-1.53,5.82,-1.57,1.07,-0.67,
2.385,0.41,-1.53,5.82,-1.51,1.06,-0.65,
2.385,0.41,-1.53,5.82,-1.45,1.06,-0.63,
2.386,0.41,-1.53,5.82,-1.38,1.05,-0.61,
2.386,0.24,-1.65,6.33,-1.38,1.05,-0.61,
2.387,0.24,-1.65,6.33,-1.31,1.03,-0.59,
2.387,0.24,-1.65,6.33,-1.24,1.02,-0.57,
2.387,0.24,-1.65,6.33,-1.17,1.00,-0.55,
2.387,0.24,-1.65,6.33,-1.10,0.97,-0.53,
2.388,0.24,-1.65,6.33,-1.02,0.95,-0.51,
2.388,0.27,-1.57,6.44,-1.02,0.95,-0.51,
2.388,0.27,-1.57,6.44,-0.95,0.92,-0.49,
2.389,0.27,-1.57,6.44,-0.88,0.89,-0.47,
2.389,0.27,-1.57,6.44,-0.80,0.86,-0.46,
2.395,0.27,-1.57,6.44,-0.73,0.82,-0.44,
2.395,0.27,-1.57,6.44,-0.66,0.78,-0.43,
2.395,0.35,-1.48,6.11,-0.66,0.78,-0.43,
2.396,0.35,-1.48,6.11,-0.59,0.74,-0.41,
2.396,0.35,-1.48,6.11,-0.52,0.69,-0.39,
2.404,0.35,-1.48,6.11,-0.45,0.64,-0.38,
2.404,0.35,-1.48,6.11,-0.39,0.59,-0.37,
2.412,0.35,-1.48,6.11,-0.29,0.52,-0.34,
2.413,0.33,-1.37,5.37,-0.29,0.52,-0.34,
2.413,0.33,-1.37,5.37,-0.26,0.49,-0.33,
2.413,0.33,-1.37,5.37,-0.20,0.43,-0.32,
2.413,0.33,-1.37,5.37,-0.14,0.37,-0.30,
2.414,0.33,-1.37,5.37,-0.09,0.32,-0.28,
2.414,0.33,-1.37,5.37,-0.03,0.26,-0.27,
2.415,0.33,-1.31,4.64,-0.03,0.26,-0.27,
2.416,0.33,-1.31,4.64,0.03,0.20,-0.25,
2.416,0.33,-1.31,4.64,0.07,0.14,-0.24,
2.418,0.33,-1.31,4.64,0.12,0.09,-0.22,
2.42,0.33,-1.31,4.64,0.17,0.03,-0.20,
2.424,0.33,-1.31,4.64,0.22,-0.02,-0.19,
2.426,0.43,-1.18,3.80,0.22,-0.02,-0.19,
2.427,0.43,-1.18,3.80,0.27,-0.09,-0.18,
2.427,0.43,-1.18,3.80,0.29,-0.12,-0.17,
2.428,0.43,-1.18,3.80,0.33,-0.17,-0.16,
2.43,0.43,-1.18,3.80,0.37,-0.21,-0.15,
2.432,0.43,-1.18,3.80,0.40,-0.25,-0.14,
2.434,0.61,-1.19,3.15,0.40,-0.25,-0.14,
2.434,0.61,-1.19,3.15,0.44,-0.29,-0.13,
2.436,0.61,-1.19,3.15,0.47,-0.33,-0.13,
2.438,0.61,-1.19,3.15,0.50,-0.36,-0.12,
2.44,0.61,-1.19,3.15,0.53,-0.39,-0.11,
2.451,0.61,-1.19,3.15,0.56,-0.41,-0.09,
2.451,0.60,-1.08,2.50,0.56,-0.41,-0.09,
2.451,0.60,-1.08,2.50,0.59,-0.43,-0.08,
2.452,0.60,-1.08,2.50,0.62,-0.44,-0.07,
2.452,0.60,-1.08,2.50,0.64,-0.46,-0.06,
2.452,0.60,-1.08,2.50,0.66,-0.47,-0.04,
2.452,0.60,-1.08,2.50,0.68,-0.48,-0.03,
2.454,0.54,-1.00,1.75,0.68,-0.48,-0.03,
2.454,0.54,-1.00,1.75,0.70,-0.49,-0.02,
2.471,0.54,-1.00,1.75,0.72,-0.49,-0.01,
2.473,0.54,-1.00,1.75,0.73,-0.50,0.01,
2.473,0.54,-1.00,1.75,0.75,-0.50,0.02,
2.473,0.54,-1.00,1.75,0.76,-0.50,0.03,
2.474,0.52,-0.76,1.01,0.76,-0.50,0.03,
2.474,0.52,-0.76,1.01,0.76,-0.50,0.04,
2.474,0.52,-0.76,1.01,0.77,-0.50,0.04,
2.474,0.52,-0.76,1.01,0.78,-0.49,0.05,
2.474,0.52,-0.76,1.01,0.78,-0.49,0.05,
2.474,0.52,-0.76,1.01,0.78,-0.48,0.06,
2.474,0.61,-0.54,0.29,0.78,-0.48,0.06,
2.475,0.61,-0.54,0.29,0.78,-0.47,0.06,
2.476,0.61,-0.54,0.29,0.78,-0.46,0.06,
2.478,0.61,-0.54,0.29,0.77,-0.45,0.06,
2.48,0.61,-0.54,0.29,0.76,-0.44,0.06,
2.481,0.61,-0.54,0.29,0.75,-0.43,0.05,
2.484,0.76,-0.35,-0.50,0.75,-0.43,0.05,
2.484,0.76,-0.35,-0.50,0.74,-0.42,0.05,
2.485,0.76,-0.35,-0.50,0.72,-0.40,0.04,
2.488,0.76,-0.35,-0.50,0.70,-0.39,0.03,
2.49,0.76,-0.35,-0.50,0.69,-0.37,0.03,
2.492,0.76,-0.35,-0.50,0.67,-0.36,0.02,
2.495,0.91,-0.26,-1.19,0.67,-0.36,0.02,
2.496,0.91,-0.26,-1.19,0.64,-0.34,0.00,
2.496,0.91,-0.26,-1.19,0.61,-0.32,-0.01,
2.499,0.91,-0.26,-1.19,0.57,-0.28,-0.02,
2.501,0.91,-0.26,-1.19,0.55,-0.26,-0.04,
2.501,0.91,-0.26,-1.19,0.53,-0.25,-0.04,
2.505,0.92,-0.09,-1.75,0.53,-0.25,-0.04,
2.505,0.92,-0.09,-1.75,0.50,-0.23,-0.06,
2.506,0.92,-0.09,-1.75,0.47,-0.21,-0.07,
2.508,0.92,-0.09,-1.75,0.44,-0.19,-0.08,
2.51,0.92,-0.09,-1.75,0.41,-0.17,-0.10,
2.512,0.92,-0.09,-1.75,0.38,-0.15,-0.11,
2.515,0.85,0.00,-2.01,0.38,-0.15,-0.11,
2.515,0.85,0.00,-2.01,0.35,-0.13,-0.12,
2.516,0.85,0.00,-2.01,0.32,-0.11,-0.13,
2.518,0.85,0.00,-2.01,0.29,-0.09,-0.14,
2.52,0.85,0.00,-2.01,0.26,-0.07,-0.16,
2.55,0.85,0.00,-2.01,0.24,-0.06,-0.17,
2.55,0.52,-0.01,-2.08,0.24,-0.06,-0.17,
2.551,0.52,-0.01,-2.08,0.22,-0.04,-0.17,
2.551,0.52,-0.01,-2.08,0.20,-0.02,-0.18,
2.551,0.52,-0.01,-2.08,0.18,0.00,-0.19,
2.551,0.52,-0.01,-2.08,0.15,0.02,-0.19,
2.551,0.52,-0.01,-2.08,0.14,0.05,-0.19,
2.552,0.14,-0.06,-2.04,0.14,0.05,-0.19,
2.552,0.14,-0.06,-2.04,0.12,0.07,-0.19,
2.552,0.14,-0.06,-2.04,0.11,0.09,-0.19,
2.552,0.14,-0.06,-2.04,0.10,0.10,-0.19,
2.552,0.14,-0.06,-2.04,0.09,0.12,-0.19,
2.553,0.14,-0.06,-2.04,0.08,0.14,-0.19,
2.553,-0.18,-0.09,-1.94,0.08,0.14,-0.19,
2.553,-0.18,-0.09,-1.94,0.07,0.15,-0.19,
2.553,-0.18,-0.09,-1.94,0.06,0.17,-0.18,
2.554,-0.18,-0.09,-1.94,0.06,0.18,-0.18,
2.554,-0.18,-0.09,-1.94,0.06,0.19,-0.18,
2.554,-0.18,-0.09,-1.94,0.05,0.20,-0.17,
2.554,-0.44,-0.10,-1.84,0.05,0.20,-0.17,
2.554,-0.44,-0.10,-1.84,0.05,0.20,-0.17,
2.559,-0.44,-0.10,-1.84,0.06,0.21,-0.16,
2.559,-0.44,-0.10,-1.84,0.06,0.21,-0.16,
2.56,-0.44,-0.10,-1.84,0.06,0.22,-0.16,
2.562,-0.44,-0.10,-1.84,0.08,0.22,-0.15,
2.565,-0.57,-0.10,-1.71,0.08,0.22,-0.15,
2.565,-0.57,-0.10,-1.71,0.08,0.21,-0.14,
2.565,-0.57,-0.10,-1.71,0.09,0.22,-0.14,
2.568,-0.57,-0.10,-1.71,0.10,0.21,-0.13,
2.57,-0.57,-0.10,-1.71,0.11,0.21,-0.13,
2.572,-0.57,-0.10,-1.71,0.12,0.21,-0.12,
2.575,-0.78,-0.02,-1.77,0.12,0.21,-0.12,
2.575,-0.78,-0.02,-1.77,0.12,0.20,-0.11,
2.577,-0.78,-0.02,-1.77,0.14,0.19,-0.11,
2.578,-0.78,-0.02,-1.77,0.15,0.19,-0.10,
2.58,-0.78,-0.02,-1.77,0.15,0.18,-0.09,
2.582,-0.78,-0.02,-1.77,0.16,0.17,-0.09,
2.584,-0.82,0.01,-1.94,0.16,0.17,-0.09,
2.584,-0.82,0.01,-1.94,0.17,0.16,-0.08,
2.585,-0.82,0.01,-1.94,0.17,0.15,-0.08,
2.588,-0.82,0.01,-1.94,0.17,0.14,-0.07,
2.599,-0.82,0.01,-1.94,0.18,0.13,-0.07,
2.6,-0.82,0.01,-1.94,0.18,0.12,-0.07,
2.6,-0.75,0.09,-2.09,0.18,0.12,-0.07,
2.6,-0.75,0.09,-2.09,0.19,0.11,-0.07,
2.6,-0.75,0.09,-2.09,0.19,0.10,-0.07,
2.601,-0.75,0.09,-2.09,0.20,0.09,-0.07,
2.601,-0.75,0.09,-2.09,0.20,0.07,-0.07,
2.602,-0.75,0.09,-2.09,0.21,0.06,-0.07,
2.627,-0.62,0.17,-2.07,0.21,0.06,-0.07,
2.627,-0.62,0.17,-2.07,0.21,0.05,-0.08,
2.628,-0.62,0.17,-2.07,0.21,0.04,-0.08,
2.628,-0.62,0.17,-2.07,0.23,0.03,-0.08,
2.628,-0.62,0.17,-2.07,0.23,0.03,-0.08,
2.628,-0.62,0.17,-2.07,0.23,0.02,-0.07,
2.628,-0.70,0.24,-1.99,0.23,0.02,-0.07,
2.629,-0.70,0.24,-1.99,0.24,0.01,-0.07,
2.629,-0.70,0.24,-1.99,0.24,-0.01,-0.07,
2.629,-0.70,0.24,-1.99,0.25,-0.01,-0.07,
2.629,-0.70,0.24,-1.99,0.25,-0.02,-0.06,
2.629,-0.70,0.24,-1.99,0.26,-0.03,-0.05,
2.63,-0.85,0.27,-1.89,0.26,-0.03,-0.05,
2.63,-0.85,0.27,-1.89,0.26,-0.04,-0.05,
2.63,-0.85,0.27,-1.89,0.26,-0.04,-0.04,
2.63,-0.85,0.27,-1.89,0.27,-0.05,-0.04,
2.63,-0.85,0.27,-1.89,0.27,-0.05,-0.03,
2.632,-0.85,0.27,-1.89,0.28,-0.06,-0.01,
2.634,-1.06,0.36,-1.79,0.28,-0.06,-0.01,
2.635,-1.06,0.36,-1.79,0.28,-0.06,-0.01,
2.636,-1.06,0.36,-1.79,0.29,-0.06,0.01,
2.638,-1.06,0.36,-1.79,0.30,-0.07,0.02,
2.643,-1.06,0.36,-1.79,0.30,-0.07,0.03,
2.644,-1.06,0.36,-1.79,0.31,-0.08,0.04,
2.645,-1.13,0.41,-1.73,0.31,-0.08,0.04,
2.647,-1.13,0.41,-1.73,0.31,-0.09,0.05,
2.647,-1.13,0.41,-1.73,0.31,-0.10,0.06,
2.648,-1.13,0.41,-1.73,0.31,-0.11,0.07,
2.65,-1.13,0.41,-1.73,0.31,-0.13,0.08,
2.652,-1.13,0.41,-1.73,0.31,-0.14,0.09,
2.654,-1.05,0.54,-1.74,0.31,-0.14,0.09,
2.655,-1.05,0.54,-1.74,0.33,-0.15,0.10,
2.656,-1.05,0.54,-1.74,0.32,-0.17,0.11,
2.662,-1.05,0.54,-1.74,0.31,-0.19,0.11,
2.663,-1.05,0.54,-1.74,0.31,-0.20,0.11,
2.664,-1.05,0.54,-1.74,0.30,-0.22,0.11,
2.666,-0.78,0.63,-1.68,0.30,-0.22,0.11,
2.666,-0.78,0.63,-1.68,0.30,-0.23,0.11,
2.666,-0.78,0.63,-1.68,0.30,-0.25,0.11,
2.668,-0.78,0.63,-1.68,0.30,-0.27,0.11,
2.67,-0.78,0.63,-1.68,0.30,-0.28,0.11,
2.672,-0.78,0.63,-1.68,0.30,-0.30,0.11,
2.675,-0.59,0.74,-1.52,0.30,-0.30,0.11,
2.676,-0.59,0.74,-1.52,0.30,-0.31,0.10,
2.677,-0.59,0.74,-1.52,0.30,-0.33,0.10,
2.678,-0.59,0.74,-1.52,0.30,-0.35,0.10,
2.681,-0.59,0.74,-1.52,0.30,-0.37,0.10,
2.682,-0.59,0.74,-1.52,0.29,-0.38,0.10,
2.685,-0.46,0.75,-1.41,0.29,-0.38,0.10,
2.687,-0.46,0.75,-1.41,0.29,-0.40,0.10,
2.688,-0.46,0.75,-1.41,0.29,-0.41,0.10,
2.714,-0.46,0.75,-1.41,0.28,-0.42,0.10,
2.714,-0.46,0.75,-1.41,0.28,-0.44,0.10,
2.714,-0.46,0.75,-1.41,0.27,-0.45,0.09,
2.715,-0.36,0.82,-1.27,0.27,-0.45,0.09,
2.715,-0.36,0.82,-1.27,0.27,-0.46,0.09,
2.715,-0.36,0.82,-1.27,0.26,-0.47,0.09,
2.715,-0.36,0.82,-1.27,0.25,-0.47,0.09,
2.716,-0.36,0.82,-1.27,0.24,-0.48,0.09,
2.716,-0.36,0.82,-1.27,0.23,-0.48,0.09,
2.716,-0.30,0.78,-1.04,0.23,-0.48,0.09,
2.717,-0.30,0.78,-1.04,0.22,-0.49,0.09,
2.717,-0.30,0.78,-1.04,0.21,-0.49,0.08,
2.717,-0.30,0.78,-1.04,0.20,-0.48,0.08,
2.717,-0.30,0.78,-1.04,0.20,-0.48,0.08,
2.718,-0.30,0.78,-1.04,0.19,-0.47,0.08,
2.718,-0.34,0.69,-0.62,0.19,-0.47,0.08,
2.718,-0.34,0.69,-0.62,0.19,-0.46,0.08,
2.718,-0.34,0.69,-0.62,0.19,-0.44,0.09,
2.719,-0.34,0.69,-0.62,0.19,-0.41,0.09,
2.725,-0.34,0.69,-0.62,0.19,-0.38,0.10,
2.726,-0.34,0.69,-0.62,0.19,-0.34,0.11,
2.726,-0.53,0.60,0.14,0.19,-0.34,0.11,
2.726,-0.53,0.60,0.14,0.20,-0.29,0.12,
2.726,-0.53,0.60,0.14,0.21,-0.23,0.13,
2.728,-0.53,0.60,0.14,0.23,-0.17,0.15,
2.73,-0.53,0.60,0.14,0.26,-0.10,0.17,
2.732,-0.53,0.60,0.14,0.28,-0.04,0.19,
2.735,-0.87,0.57,1.07,0.28,-0.04,0.19,
2.735,-0.87,0.57,1.07,0.30,0.02,0.22,
2.735,-0.87,0.57,1.07,0.33,0.08,0.24,
2.738,-0.87,0.57,1.07,0.35,0.15,0.26,
2.74,-0.87,0.57,1.07,0.38,0.22,0.28,
2.742,-0.87,0.57,1.07,0.41,0.29,0.30,
2.747,-0.93,0.15,1.67,0.41,0.29,0.30,
2.747,-0.93,0.15,1.67,0.44,0.36,0.32,
2.747,-0.93,0.15,1.67,0.47,0.43,0.35,
2.748,-0.93,0.15,1.67,0.50,0.50,0.37,
2.75,-0.93,0.15,1.67,0.52,0.56,0.40,
2.752,-0.93,0.15,1.67,0.55,0.63,0.43,
2.754,-1.13,0.00,1.71,0.55,0.63,0.43,
2.754,-1.13,0.00,1.71,0.56,0.68,0.46,
2.765,-1.13,0.00,1.71,0.58,0.74,0.48,
2.765,-1.13,0.00,1.71,0.61,0.79,0.51,
2.766,-1.13,0.00,1.71,0.62,0.82,0.53,
2.766,-1.13,0.00,1.71,0.64,0.86,0.56,
2.766,-1.23,0.12,1.44,0.64,0.86,0.56,
2.766,-1.23,0.12,1.44,0.65,0.89,0.58,
2.767,-1.23,0.12,1.44,0.66,0.91,0.60,
2.77,-1.23,0.12,1.44,0.67,0.94,0.62,
2.772,-1.23,0.12,1.44,0.68,0.95,0.64,
2.773,-1.23,0.12,1.44,0.69,0.96,0.66,
2.786,-1.12,0.25,1.07,0.69,0.96,0.66,
2.787,-1.12,0.25,1.07,0.69,0.97,0.67,
2.787,-1.12,0.25,1.07,0.70,0.98,0.68,
2.787,-1.12,0.25,1.07,0.70,0.98,0.69,
2.787,-1.12,0.25,1.07,0.70,0.98,0.69,
2.787,-1.12,0.25,1.07,0.70,0.98,0.70,
2.788,-0.86,0.34,0.68,0.70,0.98,0.70,
2.788,-0.86,0.34,0.68,0.70,0.97,0.70,
2.788,-0.86,0.34,0.68,0.70,0.96,0.70,
2.788,-0.86,0.34,0.68,0.70,0.94,0.70,
2.802,-0.86,0.34,0.68,0.70,0.93,0.70,
2.802,-0.86,0.34,0.68,0.69,0.91,0.70,
2.802,-0.84,0.41,0.44,0.69,0.91,0.70,
2.802,-0.84,0.41,0.44,0.69,0.89,0.70,
2.802,-0.84,0.41,0.44,0.69,0.87,0.70,
2.802,-0.84,0.41,0.44,0.68,0.84,0.71,
2.803,-0.84,0.41,0.44,0.68,0.82,0.72,
2.803,-0.84,0.41,0.44,0.68,0.80,0.72,
2.804,-1.04,0.43,0.33,0.68,0.80,0.72,
2.805,-1.04,0.43,0.33,0.67,0.78,0.73,
2.817,-1.04,0.43,0.33,0.67,0.76,0.73,
2.817,-1.04,0.43,0.33,0.67,0.74,0.74,
2.817,-1.04,0.43,0.33,0.66,0.73,0.75,
2.817,-1.04,0.43,0.33,0.66,0.72,0.77,
2.817,-1.39,0.37,0.41,0.66,0.72,0.77,
2.818,-1.39,0.37,0.41,0.66,0.71,0.78,
2.818,-1.39,0.37,0.41,0.67,0.71,0.80,
2.818,-1.39,0.37,0.41,0.67,0.71,0.81,
2.82,-1.39,0.37,0.41,0.66,0.72,0.83,
2.823,-1.39,0.37,0.41,0.66,0.72,0.85,
2.826,-1.71,0.15,0.46,0.66,0.72,0.85,
2.826,-1.71,0.15,0.46,0.66,0.72,0.87,
2.826,-1.71,0.15,0.46,0.65,0.72,0.89,
2.829,-1.71,0.15,0.46,0.65,0.72,0.91,
2.83,-1.71,0.15,0.46,0.65,0.71,0.93,
2.832,-1.71,0.15,0.46,0.64,0.71,0.96,
2.835,-2.03,-0.10,0.57,0.64,0.71,0.96,
2.836,-2.03,-0.10,0.57,0.63,0.71,0.98,
2.836,-2.03,-0.10,0.57,0.62,0.71,1.00,
2.838,-2.03,-0.10,0.57,0.61,0.70,1.02,
2.84,-2.03,-0.10,0.57,0.60,0.70,1.04,
2.842,-2.03,-0.10,0.57,0.59,0.70,1.06,
2.845,-2.09,-0.17,0.71,0.59,0.70,1.06,
2.846,-2.09,-0.17,0.71,0.58,0.70,1.08,
2.846,-2.09,-0.17,0.71,0.58,0.70,1.10,
2.849,-2.09,-0.17,0.71,0.56,0.71,1.12,
2.85,-2.09,-0.17,0.71,0.55,0.70,1.13,
2.852,-2.09,-0.17,0.71,0.55,0.71,1.14,
2.855,-2.03,-0.13,0.87,0.55,0.71,1.14,
2.873,-2.03,-0.13,0.87,0.54,0.71,1.15,
2.873,-2.03,-0.13,0.87,0.52,0.72,1.16,
2.873,-2.03,-0.13,0.87,0.51,0.72,1.17,
2.873,-2.03,-0.13,0.87,0.51,0.74,1.17,
2.874,-2.03,-0.13,0.87,0.50,0.75,1.18,
2.874,-1.83,-0.02,0.87,0.50,0.75,1.18,
2.874,-1.83,-0.02,0.87,0.48,0.76,1.18,
2.874,-1.83,-0.02,0.87,0.47,0.77,1.18,
2.874,-1.83,-0.02,0.87,0.45,0.79,1.18,
2.874,-1.83,-0.02,0.87,0.44,0.80,1.18,
2.875,-1.83,-0.02,0.87,0.41,0.82,1.18,
2.875,-1.69,0.10,0.55,0.41,0.82,1.18,
2.875,-1.69,0.10,0.55,0.39,0.83,1.18,
2.886,-1.69,0.10,0.55,0.36,0.83,1.17,
2.887,-1.69,0.10,0.55,0.33,0.84,1.17,
2.887,-1.69,0.10,0.55,0.30,0.84,1.16,
2.888,-1.69,0.10,0.55,0.26,0.83,1.15,
2.888,-1.50,0.21,0.06,0.26,0.83,1.15,
2.888,-1.50,0.21,0.06,0.22,0.83,1.15,
2.888,-1.50,0.21,0.06,0.17,0.81,1.14,
2.889,-1.50,0.21,0.06,0.13,0.80,1.12,
2.892,-1.50,0.21,0.06,0.08,0.77,1.11,
2.912,-1.50,0.21,0.06,0.03,0.75,1.10,
2.913,-1.45,0.19,-0.17,0.03,0.75,1.10,
2.913,-1.45,0.19,-0.17,-0.02,0.71,1.08,
2.913,-1.45,0.19,-0.17,-0.08,0.68,1.06,
2.913,-1.45,0.19,-0.17,-0.13,0.64,1.05,
2.913,-1.45,0.19,-0.17,-0.18,0.59,1.03,
2.914,-1.45,0.19,-0.17,-0.23,0.54,1.02,
2.914,-1.53,0.09,0.15,-0.23,0.54,1.02,
2.914,-1.53,0.09,0.15,-0.28,0.49,1.00,
2.914,-1.53,0.09,0.15,-0.34,0.44,0.99,
2.914,-1.53,0.09,0.15,-0.38,0.39,0.97,
2.915,-1.53,0.09,0.15,-0.42,0.34,0.96,
2.915,-1.53,0.09,0.15,-0.45,0.30,0.95,
2.915,-1.86,-0.03,0.97,-0.45,0.30,0.95,
2.915,-1.86,-0.03,0.97,-0.48,0.25,0.94,
2.917,-1.86,-0.03,0.97,-0.51,0.21,0.94,
2.92,-1.86,-0.03,0.97,-0.56,0.14,0.93,
2.921,-1.86,-0.03,0.97,-0.56,0.14,0.93,
2.923,-1.86,-0.03,0.97,-0.58,0.10,0.94,
2.925,-2.22,-0.30,2.09,-0.58,0.10,0.94,
2.925,-2.22,-0.30,2.09,-0.59,0.08,0.94,
2.926,-2.22,-0.30,2.09,-0.60,0.06,0.95,
2.929,-2.22,-0.30,2.09,-0.61,0.03,0.97,
2.93,-2.22,-0.30,2.09,-0.61,0.01,0.98,
2.932,-2.22,-0.30,2.09,-0.60,-0.00,1.00,
2.934,-2.51,-0.92,3.32,-0.60,-0.00,1.00,
2.934,-2.51,-0.92,3.32,-0.59,-0.01,1.02,
2.936,-2.51,-0.92,3.32,-0.57,-0.02,1.04,
2.94,-2.51,-0.92,3.32,-0.55,-0.02,1.07,
2.941,-2.51,-0.92,3.32,-0.52,-0.02,1.10,
2.942,-2.51,-0.92,3.32,-0.49,-0.01,1.13,
2.944,-2.70,-1.49,4.54,-0.49,-0.01,1.13,
2.944,-2.70,-1.49,4.54,-0.45,0.01,1.16,
2.945,-2.70,-1.49,4.54,-0.41,0.03,1.19,
2.948,-2.70,-1.49,4.54,-0.35,0.05,1.23,
2.949,-2.70,-1.49,4.54,-0.30,0.09,1.28,
2.951,-2.70,-1.49,4.54,-0.24,0.13,1.32,
2.954,-3.02,-1.86,5.39,-0.24,0.13,1.32,
2.954,-3.02,-1.86,5.39,-0.18,0.17,1.36,
2.955,-3.02,-1.86,5.39,-0.12,0.21,1.41,
2.958,-3.02,-1.86,5.39,-0.05,0.25,1.46,
2.96,-3.02,-1.86,5.39,0.01,0.29,1.51,
2.962,-3.02,-1.86,5.39,0.08,0.33,1.56,
2.964,-3.04,-1.86,5.50,0.08,0.33,1.56,
2.964,-3.04,-1.86,5.50,0.15,0.38,1.61,
2.966,-3.04,-1.86,5.50,0.21,0.41,1.65,
2.968,-3.04,-1.86,5.50,0.27,0.44,1.70,
2.97,-3.04,-1.86,5.50,0.33,0.47,1.74,
2.972,-3.04,-1.86,5.50,0.38,0.49,1.78,
2.974,-2.74,-1.96,4.76,0.38,0.49,1.78,
2.975,-2.74,-1.96,4.76,0.43,0.51,1.81,
2.976,-2.74,-1.96,4.76,0.48,0.51,1.85,
2.978,-2.74,-1.96,4.76,0.52,0.52,1.87,
2.98,-2.74,-1.96,4.76,0.57,0.51,1.90,
2.982,-2.74,-1.96,4.76,0.59,0.50,1.91,
2.984,-2.05,-1.71,3.37,0.59,0.50,1.91,
2.984,-2.05,-1.71,3.37,0.62,0.49,1.92,
2.986,-2.05,-1.71,3.37,0.63,0.47,1.93,
3.001,-2.05,-1.71,3.37,0.66,0.45,1.94,
3.001,-2.05,-1.71,3.37,0.67,0.42,1.95,
3.001,-2.05,-1.71,3.37,0.68,0.39,1.95,
3.002,-1.67,-1.59,1.99,0.68,0.39,1.95,
3.002,-1.67,-1.59,1.99,0.69,0.36,1.95,
3.002,-1.67,-1.59,1.99,0.70,0.33,1.96,
3.003,-1.67,-1.59,1.99,0.69,0.29,1.96,
3.003,-1.67,-1.59,1.99,0.69,0.23,1.96,
3.016,-1.67,-1.59,1.99,0.69,0.22,1.96,
3.017,-1.37,-1.29,0.73,0.69,0.22,1.96,
3.017,-1.37,-1.29,0.73,0.68,0.18,1.96,
3.018,-1.37,-1.29,0.73,0.66,0.14,1.95,
3.018,-1.37,-1.29,0.73,0.65,0.10,1.95,
3.018,-1.37,-1.29,0.73,0.62,0.04,1.94,
3.018,-1.37,-1.29,0.73,0.61,0.02,1.93,
3.019,-1.08,-1.19,-0.28,0.61,0.02,1.93,
3.019,-1.08,-1.19,-0.28,0.59,-0.01,1.92,
3.019,-1.08,-1.19,-0.28,0.57,-0.05,1.92,
3.019,-1.08,-1.19,-0.28,0.54,-0.08,1.91,
3.02,-1.08,-1.19,-0.28,0.49,-0.12,1.89,
3.045,-1.08,-1.19,-0.28,0.48,-0.13,1.88,
3.046,-0.80,-1.11,-1.00,0.48,-0.13,1.88,
3.046,-0.80,-1.11,-1.00,0.43,-0.17,1.86,
3.047,-0.80,-1.11,-1.00,0.41,-0.18,1.85,
3.047,-0.80,-1.11,-1.00,0.36,-0.21,1.83,
3.047,-0.80,-1.11,-1.00,0.32,-0.23,1.82,
3.048,-0.80,-1.11,-1.00,0.30,-0.24,1.81,
3.048,-0.58,-1.13,-1.41,0.30,-0.24,1.81,
3.049,-0.58,-1.13,-1.41,0.24,-0.27,1.79,
3.049,-0.58,-1.13,-1.41,0.22,-0.27,1.78,
3.05,-0.58,-1.13,-1.41,0.16,-0.29,1.76,
3.05,-0.58,-1.13,-1.41,0.10,-0.31,1.74,
3.05,-0.58,-1.13,-1.41,0.08,-0.31,1.74,
3.051,-0.31,-1.21,-1.55,0.08,-0.31,1.74,
3.051,-0.31,-1.21,-1.55,0.02,-0.32,1.71,
3.052,-0.31,-1.21,-1.55,-0.01,-0.33,1.70,
3.052,-0.31,-1.21,-1.55,-0.08,-0.34,1.67,
3.052,-0.31,-1.21,-1.55,-0.13,-0.34,1.65,
3.053,-0.31,-1.21,-1.55,-0.17,-0.34,1.63,
3.06,-0.03,-1.35,-1.36,-0.17,-0.34,1.63,
3.061,-0.03,-1.35,-1.36,-0.21,-0.34,1.61,
3.061,-0.03,-1.35,-1.36,-0.25,-0.34,1.58,
3.062,-0.03,-1.35,-1.36,-0.29,-0.34,1.56,
3.062,-0.03,-1.35,-1.36,-0.32,-0.33,1.54,
3.062,-0.03,-1.35,-1.36,-0.36,-0.33,1.51,
3.065,0.17,-1.43,-0.89,-0.36,-0.33,1.51,
3.065,0.17,-1.43,-0.89,-0.39,-0.33,1.49,
3.066,0.17,-1.43,-0.89,-0.42,-0.33,1.47,
3.068,0.17,-1.43,-0.89,-0.44,-0.33,1.44,
3.07,0.17,-1.43,-0.89,-0.46,-0.33,1.42,
3.072,0.17,-1.43,-0.89,-0.48,-0.33,1.40,
3.074,0.21,-1.65,-0.41,-0.48,-0.33,1.40,
3.075,0.21,-1.65,-0.41,-0.50,-0.32,1.39,
3.076,0.21,-1.65,-0.41,-0.51,-0.31,1.37,
3.078,0.21,-1.65,-0.41,-0.52,-0.30,1.35,
3.08,0.21,-1.65,-0.41,-0.53,-0.29,1.34,
3.082,0.21,-1.65,-0.41,-0.54,-0.28,1.33,
3.084,0.00,-1.88,0.03,-0.54,-0.28,1.33,
3.085,0.00,-1.88,0.03,-0.54,-0.26,1.32,
3.086,0.00,-1.88,0.03,-0.54,-0.24,1.32,
3.088,0.00,-1.88,0.03,-0.53,-0.22,1.31,
3.09,0.00,-1.88,0.03,-0.52,-0.19,1.31,
3.092,0.00,-1.88,0.03,-0.50,-0.17,1.31,
3.095,-0.35,-2.09,0.49,-0.50,-0.17,1.31,
3.096,-0.35,-2.09,0.49,-0.49,-0.14,1.31,
3.096,-0.35,-2.09,0.49,-0.47,-0.11,1.31,
3.098,-0.35,-2.09,0.49,-0.45,-0.08,1.32,
3.1,-0.35,-2.09,0.49,-0.43,-0.05,1.33,
3.102,-0.35,-2.09,0.49,-0.40,-0.02,1.33,
3.105,-0.74,-2.08,0.66,-0.40,-0.02,1.33,
3.106,-0.74,-2.08,0.66,-0.37,0.00,1.35,
3.107,-0.74,-2.08,0.66,-0.35,0.03,1.36,
3.109,-0.74,-2.08,0.66,-0.32,0.06,1.37,
3.11,-0.74,-2.08,0.66,-0.30,0.08,1.39,
3.112,-0.74,-2.08,0.66,-0.27,0.09,1.40,
3.114,-0.83,-2.24,0.37,-0.27,0.09,1.40,
3.115,-0.83,-2.24,0.37,-0.26,0.11,1.41,
3.116,-0.83,-2.24,0.37,-0.24,0.12,1.42,
3.119,-0.83,-2.24,0.37,-0.22,0.14,1.43,
3.121,-0.83,-2.24,0.37,-0.21,0.16,1.45,
3.123,-0.83,-2.24,0.37,-0.19,0.17,1.46,
3.127,-0.93,-2.18,-0.21,-0.19,0.17,1.46,
3.128,-0.93,-2.18,-0.21,-0.17,0.19,1.48,
3.129,-0.93,-2.18,-0.21,-0.15,0.20,1.49,
3.129,-0.93,-2.18,-0.21,-0.14,0.22,1.50,
3.132,-0.93,-2.18,-0.21,-0.13,0.24,1.51,
3.133,-0.93,-2.18,-0.21,-0.11,0.25,1.52,
3.134,-1.04,-1.90,-0.70,-0.11,0.25,1.52,
3.135,-1.04,-1.90,-0.70,-0.09,0.26,1.53,
3.136,-1.04,-1.90,-0.70,-0.08,0.26,1.54,
3.163,-1.04,-1.90,-0.70,-0.06,0.27,1.54,
3.164,-1.04,-1.90,-0.70,-0.06,0.27,1.55,
3.164,-1.04,-1.90,-0.70,-0.05,0.27,1.55,
3.164,-0.84,-1.67,-1.13,-0.05,0.27,1.55,
3.165,-0.84,-1.67,-1.13,-0.03,0.27,1.56,
3.165,-0.84,-1.67,-1.13,-0.03,0.26,1.56,
3.165,-0.84,-1.67,-1.13,-0.03,0.26,1.56,
3.166,-0.84,-1.67,-1.13,-0.02,0.25,1.56,
3.166,-0.84,-1.67,-1.13,-0.01,0.24,1.56,
3.166,-0.58,-1.62,-1.47,-0.01,0.24,1.56,
3.166,-0.58,-1.62,-1.47,-0.01,0.23,1.56,
3.167,-0.58,-1.62,-1.47,-0.00,0.22,1.55,
3.167,-0.58,-1.62,-1.47,0.01,0.21,1.55,
3.167,-0.58,-1.62,-1.47,0.00,0.20,1.54,
3.168,-0.58,-1.62,-1.47,0.01,0.20,1.54,
3.168,-0.36,-1.48,-1.68,0.01,0.20,1.54,
3.168,-0.36,-1.48,-1.68,0.03,0.19,1.54,
3.169,-0.36,-1.48,-1.68,0.04,0.18,1.53,
3.169,-0.36,-1.48,-1.68,0.04,0.17,1.53,
3.177,-0.36,-1.48,-1.68,0.05,0.17,1.52,
3.178,-0.36,-1.48,-1.68,0.07,0.16,1.51,
3.178,-0.35,-1.36,-1.64,0.07,0.16,1.51,
3.179,-0.35,-1.36,-1.64,0.08,0.14,1.51,
3.179,-0.35,-1.36,-1.64,0.10,0.13,1.50,
3.179,-0.35,-1.36,-1.64,0.12,0.11,1.49,
3.182,-0.35,-1.36,-1.64,0.14,0.10,1.48,
3.182,-0.35,-1.36,-1.64,0.15,0.08,1.47,
3.184,-0.28,-1.23,-1.46,0.15,0.08,1.47,
3.185,-0.28,-1.23,-1.46,0.18,0.06,1.46,
3.186,-0.28,-1.23,-1.46,0.20,0.04,1.46,
3.218,-0.28,-1.23,-1.46,0.22,0.02,1.45,
3.218,-0.28,-1.23,-1.46,0.25,0.00,1.44,
3.219,-0.28,-1.23,-1.46,0.28,-0.02,1.43,
3.219,-0.24,-1.20,-1.19,0.28,-0.02,1.43,
3.22,-0.24,-1.20,-1.19,0.31,-0.03,1.42,
3.22,-0.24,-1.20,-1.19,0.34,-0.05,1.41,
3.221,-0.24,-1.20,-1.19,0.37,-0.07,1.41,
3.221,-0.24,-1.20,-1.19,0.41,-0.09,1.40,
3.222,-0.24,-1.20,-1.19,0.43,-0.11,1.39,
3.222,-0.32,-1.18,-1.16,0.43,-0.11,1.39,
3.223,-0.32,-1.18,-1.16,0.46,-0.14,1.38,
3.223,-0.32,-1.18,-1.16,0.49,-0.16,1.38,
3.224,-0.32,-1.18,-1.16,0.52,-0.19,1.38,
3.225,-0.32,-1.18,-1.16,0.54,-0.21,1.38,
3.226,-0.32,-1.18,-1.16,0.56,-0.23,1.37,
3.226,-0.52,-1.23,-1.38,0.56,-0.23,1.37,
3.227,-0.52,-1.23,-1.38,0.58,-0.26,1.38,
3.227,-0.52,-1.23,-1.38,0.59,-0.28,1.38,
3.228,-0.52,-1.23,-1.38,0.61,-0.31,1.38,
3.229,-0.52,-1.23,-1.38,0.62,-0.33,1.39,
3.229,-0.52,-1.23,-1.38,0.63,-0.35,1.40,
3.23,-0.67,-1.20,-1.66,0.63,-0.35,1.40,
3.23,-0.67,-1.20,-1.66,0.64,-0.37,1.40,
3.231,-0.67,-1.20,-1.66,0.65,-0.39,1.41,
3.231,-0.67,-1.20,-1.66,0.66,-0.41,1.42,
3.235,-0.67,-1.20,-1.66,0.66,-0.43,1.43,
3.235,-0.67,-1.20,-1.66,0.66,-0.45,1.44,
3.235,-0.85,-1.18,-1.93,0.66,-0.45,1.44,
3.236,-0.85,-1.18,-1.93,0.66,-0.47,1.45,
3.236,-0.85,-1.18,-1.93,0.66,-0.49,1.46,
3.253,-0.85,-1.18,-1.93,0.65,-0.50,1.47,
3.254,-0.85,-1.18,-1.93,0.65,-0.52,1.48,
3.254,-0.85,-1.18,-1.93,0.64,-0.53,1.49,
3.255,-0.90,-1.17,-2.25,0.64,-0.53,1.49,
3.255,-0.90,-1.17,-2.25,0.63,-0.54,1.50,
3.256,-0.90,-1.17,-2.25,0.62,-0.54,1.51,
3.256,-0.90,-1.17,-2.25,0.60,-0.54,1.53,
3.256,-0.90,-1.17,-2.25,0.59,-0.55,1.54,
3.257,-0.90,-1.17,-2.25,0.57,-0.55,1.55,
3.257,-0.80,-1.11,-2.41,0.57,-0.55,1.55,
3.257,-0.80,-1.11,-2.41,0.55,-0.55,1.55,
3.258,-0.80,-1.11,-2.41,0.53,-0.55,1.56,
3.258,-0.80,-1.11,-2.41,0.52,-0.55,1.56,
3.26,-0.80,-1.11,-2.41,0.50,-0.55,1.56,
3.265,-0.80,-1.11,-2.41,0.48,-0.54,1.56,
3.265,-0.40,-0.96,-2.44,0.48,-0.54,1.56,
3.265,-0.40,-0.96,-2.44,0.46,-0.53,1.56,
3.266,-0.40,-0.96,-2.44,0.44,-0.52,1.55,
3.27,-0.40,-0.96,-2.44,0.42,-0.52,1.54,
3.271,-0.40,-0.96,-2.44,0.39,-0.51,1.54,
3.278,-0.40,-0.96,-2.44,0.37,-0.50,1.52,
3.279,0.04,-0.76,-2.29,0.37,-0.50,1.52,
3.279,0.04,-0.76,-2.29,0.36,-0.49,1.51,
3.279,0.04,-0.76,-2.29,0.34,-0.48,1.50,
3.28,0.04,-0.76,-2.29,0.32,-0.47,1.48,
3.28,0.04,-0.76,-2.29,0.30,-0.46,1.47,
3.285,0.04,-0.76,-2.29,0.28,-0.44,1.45,
3.285,0.40,-0.57,-2.00,0.28,-0.44,1.45,
3.286,0.40,-0.57,-2.00,0.26,-0.43,1.43,
3.286,0.40,-0.57,-2.00,0.24,-0.41,1.41,
3.307,0.40,-0.57,-2.00,0.22,-0.38,1.39,
3.308,0.40,-0.57,-2.00,0.20,-0.36,1.37,
3.309,0.40,-0.57,-2.00,0.18,-0.33,1.35,
3.309,0.70,-0.34,-1.85,0.18,-0.33,1.35,
3.31,0.70,-0.34,-1.85,0.15,-0.29,1.33,
3.312,0.70,-0.34,-1.85,0.13,-0.25,1.31,
3.313,0.70,-0.34,-1.85,0.10,-0.21,1.29,
3.313,0.70,-0.34,-1.85,0.07,-0.16,1.26,
3.313,0.70,-0.34,-1.85,0.05,-0.12,1.24,
3.313,0.88,-0.24,-1.86,0.05,-0.12,1.24,
3.313,0.88,-0.24,-1.86,0.02,-0.07,1.21,
3.314,0.88,-0.24,-1.86,-0.01,-0.03,1.19,
3.314,0.88,-0.24,-1.86,-0.04,0.02,1.17,
3.314,0.88,-0.24,-1.86,-0.07,0.06,1.14,
3.314,0.88,-0.24,-1.86,-0.10,0.10,1.12,
3.314,0.96,-0.18,-1.86,-0.10,0.10,1.12,
3.315,0.96,-0.18,-1.86,-0.13,0.14,1.09,
3.316,0.96,-0.18,-1.86,-0.16,0.18,1.07,
3.318,0.96,-0.18,-1.86,-0.19,0.21,1.05,
3.336,0.96,-0.18,-1.86,-0.21,0.24,1.02,
3.336,0.96,-0.18,-1.86,-0.24,0.27,1.00,
3.336,0.85,-0.12,-1.68,-0.24,0.27,1.00,
3.337,0.85,-0.12,-1.68,-0.27,0.30,0.98,
3.337,0.85,-0.12,-1.68,-0.29,0.32,0.96,
3.337,0.85,-0.12,-1.68,-0.31,0.34,0.94,
3.337,0.85,-0.12,-1.68,-0.34,0.36,0.92,
3.337,0.85,-0.12,-1.68,-0.36,0.38,0.90,
3.338,0.76,-0.06,-1.36,-0.36,0.38,0.90,
3.338,0.76,-0.06,-1.36,-0.38,0.40,0.88,
3.338,0.76,-0.06,-1.36,-0.41,0.42,0.85,
3.342,0.76,-0.06,-1.36,-0.43,0.43,0.83,
3.342,0.76,-0.06,-1.36,-0.45,0.46,0.81,
3.342,0.76,-0.06,-1.36,-0.47,0.48,0.78,
3.345,0.79,-0.01,-1.07,-0.47,0.48,0.78,
3.346,0.79,-0.01,-1.07,-0.49,0.50,0.76,
3.347,0.79,-0.01,-1.07,-0.52,0.53,0.74,
3.351,0.79,-0.01,-1.07,-0.54,0.55,0.71,
3.351,0.79,-0.01,-1.07,-0.56,0.58,0.68,
3.353,0.79,-0.01,-1.07,-0.58,0.61,0.66,
3.356,0.97,-0.03,-0.94,-0.58,0.61,0.66,
3.376,0.97,-0.03,-0.94,-0.61,0.63,0.63,
3.376,0.97,-0.03,-0.94,-0.64,0.66,0.60,
3.377,0.97,-0.03,-0.94,-0.65,0.68,0.58,
3.377,0.97,-0.03,-0.94,-0.68,0.71,0.55,
3.377,0.97,-0.03,-0.94,-0.70,0.72,0.52,
3.377,1.02,-0.12,-0.69,-0.70,0.72,0.52,
3.378,1.02,-0.12,-0.69,-0.71,0.74,0.50,
3.378,1.02,-0.12,-0.69,-0.74,0.76,0.47,
3.378,1.02,-0.12,-0.69,-0.75,0.77,0.44,
3.378,1.02,-0.12,-0.69,-0.77,0.78,0.42,
3.379,1.02,-0.12,-0.69,-0.78,0.79,0.40,
3.379,0.94,-0.21,-0.24,-0.78,0.79,0.40,
3.379,0.94,-0.21,-0.24,-0.79,0.79,0.38,
3.379,0.94,-0.21,-0.24,-0.80,0.80,0.36,
3.38,0.94,-0.21,-0.24,-0.81,0.80,0.34,
3.38,0.94,-0.21,-0.24,-0.82,0.80,0.32,
3.386,0.94,-0.21,-0.24,-0.82,0.79,0.31,
3.386,0.76,-0.33,0.35,-0.82,0.79,0.31,
3.386,0.76,-0.33,0.35,-0.83,0.79,0.30,
3.387,0.76,-0.33,0.35,-0.82,0.79,0.28,
3.388,0.76,-0.33,0.35,-0.82,0.79,0.27,
3.39,0.76,-0.33,0.35,-0.82,0.78,0.26,
3.392,0.76,-0.33,0.35,-0.81,0.78,0.25,
3.394,0.68,-0.49,0.98,-0.81,0.78,0.25,
3.394,0.68,-0.49,0.98,-0.80,0.77,0.24,
3.396,0.68,-0.49,0.98,-0.80,0.76,0.23,
3.398,0.68,-0.49,0.98,-0.79,0.76,0.22,
3.4,0.68,-0.49,0.98,-0.77,0.75,0.21,
3.403,0.68,-0.49,0.98,-0.77,0.74,0.19,
3.404,0.76,-0.51,1.47,-0.77,0.74,0.19,
3.406,0.76,-0.51,1.47,-0.75,0.73,0.18,
3.406,0.76,-0.51,1.47,-0.74,0.71,0.17,
3.408,0.76,-0.51,1.47,-0.73,0.70,0.15,
3.41,0.76,-0.51,1.47,-0.72,0.68,0.14,
3.412,0.76,-0.51,1.47,-0.70,0.66,0.12,
3.414,0.98,-0.50,1.82,-0.70,0.66,0.12,
3.414,0.98,-0.50,1.82,-0.69,0.65,0.10,
3.415,0.98,-0.50,1.82,-0.67,0.63,0.09,
3.418,0.98,-0.50,1.82,-0.66,0.61,0.07,
3.427,0.98,-0.50,1.82,-0.66,0.60,0.05,
3.428,0.98,-0.50,1.82,-0.65,0.58,0.03,
3.428,1.11,-0.43,1.95,-0.65,0.58,0.03,
3.429,1.11,-0.43,1.95,-0.63,0.57,0.02,
3.429,1.11,-0.43,1.95,-0.63,0.56,-0.00,
3.429,1.11,-0.43,1.95,-0.62,0.55,-0.02,
3.434,1.11,-0.43,1.95,-0.61,0.54,-0.04,
3.434,1.11,-0.43,1.95,-0.61,0.53,-0.05,
3.435,1.18,-0.33,1.86,-0.61,0.53,-0.05,
3.435,1.18,-0.33,1.86,-0.60,0.53,-0.07,
3.448,1.18,-0.33,1.86,-0.60,0.53,-0.09,
3.45,1.18,-0.33,1.86,-0.60,0.53,-0.11,
3.45,1.18,-0.33,1.86,-0.60,0.53,-0.12,
3.45,1.18,-0.33,1.86,-0.60,0.53,-0.13,
3.45,1.07,-0.13,1.61,-0.60,0.53,-0.13,
3.45,1.07,-0.13,1.61,-0.61,0.53,-0.15,
3.451,1.07,-0.13,1.61,-0.61,0.53,-0.16,
3.451,1.07,-0.13,1.61,-0.62,0.53,-0.17,
3.451,1.07,-0.13,1.61,-0.64,0.53,-0.18,
3.455,1.07,-0.13,1.61,-0.64,0.53,-0.19,
3.456,1.03,0.09,1.31,-0.64,0.53,-0.19,
3.456,1.03,0.09,1.31,-0.66,0.53,-0.20,
3.456,1.03,0.09,1.31,-0.67,0.52,-0.21,
3.458,1.03,0.09,1.31,-0.70,0.51,-0.22,
3.46,1.03,0.09,1.31,-0.72,0.51,-0.23,
3.461,1.03,0.09,1.31,-0.75,0.50,-0.25,
3.464,1.19,0.29,1.03,-0.75,0.50,-0.25,
3.464,1.19,0.29,1.03,-0.77,0.49,-0.26,
3.465,1.19,0.29,1.03,-0.80,0.48,-0.28,
3.468,1.19,0.29,1.03,-0.83,0.46,-0.30,
3.475,1.19,0.29,1.03,-0.87,0.45,-0.32,
3.476,1.19,0.29,1.03,-0.90,0.43,-0.34,
3.476,1.50,0.51,0.89,-0.90,0.43,-0.34,
3.477,1.50,0.51,0.89,-0.94,0.41,-0.36,
3.478,1.50,0.51,0.89,-0.98,0.40,-0.38,
3.478,1.50,0.51,0.89,-1.02,0.38,-0.41,
3.482,1.50,0.51,0.89,-1.06,0.36,-0.43,
3.484,1.50,0.51,0.89,-1.10,0.33,-0.46,
3.489,1.73,0.72,1.15,-1.10,0.33,-0.46,
3.49,1.73,0.72,1.15,-1.14,0.31,-0.48,
3.495,1.73,0.72,1.15,-1.18,0.29,-0.51,
3.495,1.73,0.72,1.15,-1.21,0.28,-0.54,
3.496,1.73,0.72,1.15,-1.25,0.25,-0.57,
3.498,1.73,0.72,1.15,-1.28,0.24,-0.60,
3.498,1.94,0.78,1.93,-1.28,0.24,-0.60,
3.503,1.94,0.78,1.93,-1.31,0.23,-0.63,
3.506,1.94,0.78,1.93,-1.34,0.22,-0.66,
3.506,1.94,0.78,1.93,-1.36,0.21,-0.69,
3.506,1.94,0.78,1.93,-1.39,0.20,-0.71,
3.506,1.94,0.78,1.93,-1.40,0.20,-0.74,
3.507,2.00,0.67,3.05,-1.40,0.20,-0.74,
3.507,2.00,0.67,3.05,-1.41,0.20,-0.77,
3.507,2.00,0.67,3.05,-1.41,0.21,-0.79,
3.51,2.00,0.67,3.05,-1.42,0.22,-0.81,
3.51,2.00,0.67,3.05,-1.42,0.23,-0.83,
3.515,2.00,0.67,3.05,-1.41,0.25,-0.84,
3.516,1.84,0.33,4.32,-1.41,0.25,-0.84,
3.517,1.84,0.33,4.32,-1.41,0.26,-0.85,
3.517,1.84,0.33,4.32,-1.39,0.28,-0.86,
3.518,1.84,0.33,4.32,-1.38,0.30,-0.87,
3.521,1.84,0.33,4.32,-1.36,0.33,-0.88,
3.554,1.84,0.33,4.32,-1.33,0.36,-0.88,
3.554,1.57,-0.02,5.54,-1.33,0.36,-0.88,
3.555,1.57,-0.02,5.54,-1.30,0.39,-0.89,
3.555,1.57,-0.02,5.54,-1.26,0.42,-0.89,
3.556,1.57,-0.02,5.54,-1.22,0.46,-0.89,
3.556,1.57,-0.02,5.54,-1.18,0.50,-0.89,
3.557,1.57,-0.02,5.54,-1.13,0.54,-0.88,
3.557,1.32,-0.35,6.49,-1.13,0.54,-0.88,
3.558,1.32,-0.35,6.49,-1.07,0.57,-0.88,
3.558,1.32,-0.35,6.49,-1.01,0.61,-0.87,
3.559,1.32,-0.35,6.49,-0.96,0.65,-0.86,
3.559,1.32,-0.35,6.49,-0.90,0.69,-0.86,
3.559,1.32,-0.35,6.49,-0.83,0.72,-0.85,
3.56,0.97,-0.54,6.89,-0.83,0.72,-0.85,
3.56,0.97,-0.54,6.89,-0.78,0.75,-0.84,
3.561,0.97,-0.54,6.89,-0.71,0.78,-0.82,
3.561,0.97,-0.54,6.89,-0.64,0.81,-0.81,
3.562,0.97,-0.54,6.89,-0.58,0.84,-0.79,
3.562,0.97,-0.54,6.89,-0.52,0.86,-0.78,
3.563,0.58,-0.69,6.65,-0.52,0.86,-0.78,
3.563,0.58,-0.69,6.65,-0.46,0.88,-0.76,
3.563,0.58,-0.69,6.65,-0.40,0.89,-0.73,
3.564,0.58,-0.69,6.65,-0.34,0.90,-0.71,
3.564,0.58,-0.69,6.65,-0.28,0.91,-0.69,
3.565,0.58,-0.69,6.65,-0.22,0.92,-0.66,
3.565,0.03,-0.79,6.01,-0.22,0.92,-0.66,
3.565,0.03,-0.79,6.01,-0.16,0.92,-0.63,
3.566,0.03,-0.79,6.01,-0.11,0.92,-0.60,
3.575,0.03,-0.79,6.01,-0.05,0.91,-0.56,
3.575,0.03,-0.79,6.01,0.00,0.90,-0.53,
3.576,0.03,-0.79,6.01,0.06,0.89,-0.49,
3.576,-0.41,-0.87,5.15,0.06,0.89,-0.49,
3.577,-0.41,-0.87,5.15,0.10,0.86,-0.45,
3.577,-0.41,-0.87,5.15,0.15,0.84,-0.42,
3.581,-0.41,-0.87,5.15,0.20,0.81,-0.38,
3.582,-0.41,-0.87,5.15,0.25,0.78,-0.34,
3.583,-0.41,-0.87,5.15,0.30,0.75,-0.31,
3.585,-0.57,-0.91,4.20,0.30,0.75,-0.31,
3.587,-0.57,-0.91,4.20,0.34,0.71,-0.28,
3.587,-0.57,-0.91,4.20,0.38,0.66,-0.24,
3.6,-0.57,-0.91,4.20,0.42,0.62,-0.21,
3.601,-0.57,-0.91,4.20,0.46,0.57,-0.17,
3.601,-0.57,-0.91,4.20,0.50,0.52,-0.14,
3.601,-0.63,-0.90,3.29,0.50,0.52,-0.14,
3.602,-0.63,-0.90,3.29,0.53,0.46,-0.11,
3.602,-0.63,-0.90,3.29,0.57,0.41,-0.08,
3.602,-0.63,-0.90,3.29,0.61,0.35,-0.04,
3.602,-0.63,-0.90,3.29,0.63,0.29,-0.01,
3.602,-0.63,-0.90,3.29,0.66,0.23,0.01,
3.605,-0.54,-0.79,2.50,0.66,0.23,0.01,
3.605,-0.54,-0.79,2.50,0.69,0.17,0.04,
3.606,-0.54,-0.79,2.50,0.72,0.11,0.07,
3.609,-0.54,-0.79,2.50,0.75,0.05,0.09,
3.61,-0.54,-0.79,2.50,0.78,-0.01,0.12,
3.612,-0.54,-0.79,2.50,0.80,-0.06,0.14,
3.614,-0.32,-0.73,1.94,0.80,-0.06,0.14,
3.615,-0.32,-0.73,1.94,0.82,-0.11,0.16,
3.616,-0.32,-0.73,1.94,0.85,-0.15,0.18,
3.619,-0.32,-0.73,1.94,0.88,-0.20,0.20,
3.62,-0.32,-0.73,1.94,0.90,-0.24,0.21,
3.623,-0.32,-0.73,1.94,0.92,-0.27,0.22,
3.624,-0.11,-0.68,1.54,0.92,-0.27,0.22,
3.624,-0.11,-0.68,1.54,0.94,-0.31,0.24,
3.628,-0.11,-0.68,1.54,0.96,-0.34,0.26,
3.628,-0.11,-0.68,1.54,0.98,-0.36,0.27,
3.63,-0.11,-0.68,1.54,1.00,-0.38,0.29,
3.632,-0.11,-0.68,1.54,1.02,-0.40,0.30,
3.635,0.11,-0.70,1.06,1.02,-0.40,0.30,
3.635,0.11,-0.70,1.06,1.03,-0.42,0.31,
3.637,0.11,-0.70,1.06,1.05,-0.43,0.32,
3.638,0.11,-0.70,1.06,1.06,-0.44,0.33,
3.64,0.11,-0.70,1.06,1.07,-0.45,0.35,
3.642,0.11,-0.70,1.06,1.08,-0.46,0.36,
3.644,0.18,-0.68,0.50,1.08,-0.46,0.36,
3.645,0.18,-0.68,0.50,1.09,-0.46,0.37,
3.645,0.18,-0.68,0.50,1.10,-0.47,0.37,
3.648,0.18,-0.68,0.50,1.10,-0.47,0.38,
3.649,0.18,-0.68,0.50,1.10,-0.47,0.39,
3.652,0.18,-0.68,0.50,1.10,-0.47,0.40,
3.654,0.28,-0.68,-0.11,1.10,-0.47,0.40,
3.654,0.28,-0.68,-0.11,1.10,-0.47,0.40,
3.656,0.28,-0.68,-0.11,1.10,-0.47,0.41,
3.658,0.28,-0.68,-0.11,1.10,-0.47,0.41,
3.66,0.28,-0.68,-0.11,1.09,-0.46,0.41,
3.661,0.28,-0.68,-0.11,1.08,-0.46,0.41,
3.664,0.38,-0.66,-0.70,1.08,-0.46,0.41,
3.664,0.38,-0.66,-0.70,1.08,-0.45,0.41,
3.666,0.38,-0.66,-0.70,1.07,-0.45,0.41,
3.675,0.38,-0.66,-0.70,1.06,-0.44,0.41,
3.676,0.38,-0.66,-0.70,1.05,-0.44,0.41,
3.676,0.38,-0.66,-0.70,1.04,-0.43,0.41,
3.676,0.45,-0.65,-1.19,1.04,-0.43,0.41,
3.676,0.45,-0.65,-1.19,1.03,-0.42,0.40,
3.677,0.45,-0.65,-1.19,1.02,-0.41,0.40,
3.678,0.45,-0.65,-1.19,1.00,-0.40,0.40,
3.68,0.45,-0.65,-1.19,0.99,-0.40,0.39,
3.682,0.45,-0.65,-1.19,0.98,-0.39,0.39,
3.702,0.45,-0.62,-1.58,0.98,-0.39,0.39,
3.702,0.45,-0.62,-1.58,0.97,-0.38,0.38,
3.703,0.45,-0.62,-1.58,0.96,-0.38,0.37,
3.721,0.45,-0.62,-1.58,0.95,-0.37,0.36,
3.721,0.45,-0.62,-1.58,0.94,-0.36,0.36,
3.722,0.45,-0.62,-1.58,0.93,-0.36,0.35,
3.722,0.42,-0.62,-1.84,0.93,-0.36,0.35,
3.722,0.42,-0.62,-1.84,0.92,-0.35,0.34,
3.723,0.42,-0.62,-1.84,0.91,-0.34,0.33,
3.723,0.42,-0.62,-1.84,0.90,-0.33,0.33,
3.723,0.42,-0.62,-1.84,0.89,-0.33,0.32,
3.723,0.42,-0.62,-1.84,0.88,-0.32,0.31,
3.724,0.29,-0.60,-2.04,0.88,-0.32,0.31,
3.724,0.29,-0.60,-2.04,0.87,-0.31,0.30,
3.724,0.29,-0.60,-2.04,0.86,-0.30,0.30,
3.724,0.29,-0.60,-2.04,0.85,-0.29,0.29,
3.725,0.29,-0.60,-2.04,0.84,-0.28,0.29,
3.725,0.29,-0.60,-2.04,0.83,-0.27,0.28,
3.725,0.11,-0.65,-2.29,0.83,-0.27,0.28,
3.725,0.11,-0.65,-2.29,0.82,-0.26,0.28,
3.725,0.11,-0.65,-2.29,0.81,-0.25,0.27,
3.726,0.11,-0.65,-2.29,0.80,-0.25,0.27,
3.726,0.11,-0.65,-2.29,0.78,-0.24,0.27,
3.726,0.11,-0.65,-2.29,0.77,-0.23,0.26,
3.726,-0.09,-0.69,-2.56,0.77,-0.23,0.26,
3.727,-0.09,-0.69,-2.56,0.75,-0.22,0.26,
3.727,-0.09,-0.69,-2.56,0.74,-0.21,0.26,
3.731,-0.09,-0.69,-2.56,0.72,-0.19,0.26,
3.731,-0.09,-0.69,-2.56,0.71,-0.18,0.25,
3.731,-0.09,-0.69,-2.56,0.69,-0.17,0.25,
3.741,-0.26,-0.74,-2.75,0.69,-0.17,0.25,
3.741,-0.26,-0.74,-2.75,0.68,-0.16,0.25,
3.741,-0.26,-0.74,-2.75,0.66,-0.15,0.25,
3.742,-0.26,-0.74,-2.75,0.65,-0.14,0.25,
3.742,-0.26,-0.74,-2.75,0.64,-0.13,0.25,
3.742,-0.26,-0.74,-2.75,0.62,-0.12,0.24,
3.745,-0.33,-0.74,-2.85,0.62,-0.12,0.24,
3.746,-0.33,-0.74,-2.85,0.61,-0.11,0.24,
3.746,-0.33,-0.74,-2.85,0.59,-0.11,0.24,
3.748,-0.33,-0.74,-2.85,0.58,-0.10,0.24,
3.751,-0.33,-0.74,-2.85,0.57,-0.10,0.24,
3.752,-0.33,-0.74,-2.85,0.56,-0.09,0.24,
3.754,-0.41,-0.74,-2.84,0.56,-0.09,0.24,
3.755,-0.41,-0.74,-2.84,0.55,-0.09,0.24,
3.756,-0.41,-0.74,-2.84,0.53,-0.08,0.25,
3.758,-0.41,-0.74,-2.84,0.52,-0.08,0.25,
3.763,-0.41,-0.74,-2.84,0.52,-0.08,0.25,
3.764,-0.41,-0.74,-2.84,0.51,-0.08,0.25,
3.765,-0.50,-0.76,-2.73,0.51,-0.08,0.25,
3.765,-0.50,-0.76,-2.73,0.50,-0.08,0.25,
3.766,-0.50,-0.76,-2.73,0.50,-0.08,0.25,
3.771,-0.50,-0.76,-2.73,0.49,-0.08,0.25,
3.771,-0.50,-0.76,-2.73,0.49,-0.09,0.26,
3.771,-0.50,-0.76,-2.73,0.49,-0.09,0.26,
3.775,-0.58,-0.72,-2.56,0.49,-0.09,0.26,
3.775,-0.58,-0.72,-2.56,0.49,-0.09,0.26,
3.775,-0.58,-0.72,-2.56,0.49,-0.10,0.27,
3.778,-0.58,-0.72,-2.56,0.49,-0.10,0.27,
3.78,-0.58,-0.72,-2.56,0.49,-0.11,0.28,
3.782,-0.58,-0.72,-2.56,0.49,-0.12,0.28,
3.784,-0.57,-0.69,-2.44,0.49,-0.12,0.28,
3.785,-0.57,-0.69,-2.44,0.49,-0.12,0.28,
3.786,-0.57,-0.69,-2.44,0.49,-0.13,0.29,
3.788,-0.57,-0.69,-2.44,0.50,-0.14,0.29,
3.79,-0.57,-0.69,-2.44,0.50,-0.15,0.29,
3.792,-0.57,-0.69,-2.44,0.50,-0.17,0.30,
3.794,-0.50,-0.64,-2.39,0.50,-0.17,0.30,
3.794,-0.50,-0.64,-2.39,0.50,-0.18,0.30,
3.795,-0.50,-0.64,-2.39,0.50,-0.19,0.29,
3.798,-0.50,-0.64,-2.39,0.50,-0.21,0.29,
3.801,-0.50,-0.64,-2.39,0.50,-0.22,0.30,
3.802,-0.50,-0.64,-2.39,0.50,-0.23,0.30,
3.804,-0.37,-0.59,-2.36,0.50,-0.23,0.30,
3.805,-0.37,-0.59,-2.36,0.50,-0.25,0.29,
3.806,-0.37,-0.59,-2.36,0.50,-0.26,0.30,
3.808,-0.37,-0.59,-2.36,0.50,-0.27,0.29,
3.81,-0.37,-0.59,-2.36,0.50,-0.28,0.30,
3.812,-0.37,-0.59,-2.36,0.50,-0.29,0.30,
3.814,-0.33,-0.52,-2.35,0.50,-0.29,0.30,
3.814,-0.33,-0.52,-2.35,0.50,-0.31,0.30,
3.816,-0.33,-0.52,-2.35,0.50,-0.32,0.30,
3.818,-0.33,-0.52,-2.35,0.50,-0.33,0.30,
3.82,-0.33,-0.52,-2.35,0.49,-0.34,0.30,
3.823,-0.33,-0.52,-2.35,0.49,-0.35,0.29,
3.824,-0.24,-0.42,-2.37,0.49,-0.35,0.29,
3.825,-0.24,-0.42,-2.37,0.49,-0.36,0.29,
3.826,-0.24,-0.42,-2.37,0.48,-0.37,0.28,
3.828,-0.24,-0.42,-2.37,0.48,-0.38,0.28,
3.83,-0.24,-0.42,-2.37,0.48,-0.39,0.27,
3.832,-0.24,-0.42,-2.37,0.47,-0.40,0.27,
3.85,-0.15,-0.31,-2.31,0.47,-0.40,0.27,
3.852,-0.15,-0.31,-2.31,0.47,-0.41,0.26,
3.852,-0.15,-0.31,-2.31,0.46,-0.42,0.26,
3.852,-0.15,-0.31,-2.31,0.46,-0.44,0.25,
3.853,-0.15,-0.31,-2.31,0.45,-0.45,0.25,
3.853,-0.15,-0.31,-2.31,0.45,-0.46,0.25,
3.853,-0.14,-0.28,-2.19,0.45,-0.46,0.25,
3.853,-0.14,-0.28,-2.19,0.44,-0.47,0.24,
3.853,-0.14,-0.28,-2.19,0.43,-0.48,0.24,
3.853,-0.14,-0.28,-2.19,0.43,-0.48,0.24,
3.853,-0.14,-0.28,-2.19,0.42,-0.49,0.24,
3.854,-0.14,-0.28,-2.19,0.41,-0.49,0.24,
3.855,-0.14,-0.22,-2.05,0.41,-0.49,0.24,
3.872,-0.14,-0.22,-2.05,0.41,-0.50,0.23,
3.872,-0.14,-0.22,-2.05,0.40,-0.50,0.23,
3.872,-0.14,-0.22,-2.05,0.39,-0.50,0.23,
3.873,-0.14,-0.22,-2.05,0.38,-0.50,0.23,
3.873,-0.14,-0.22,-2.05,0.38,-0.50,0.23,
3.873,-0.04,-0.18,-1.88,0.38,-0.50,0.23,
3.873,-0.04,-0.18,-1.88,0.37,-0.50,0.22,
3.873,-0.04,-0.18,-1.88,0.36,-0.49,0.22,
3.874,-0.04,-0.18,-1.88,0.35,-0.49,0.21,
3.874,-0.04,-0.18,-1.88,0.34,-0.49,0.21,
3.874,-0.04,-0.18,-1.88,0.33,-0.48,0.20,
3.874,0.07,-0.13,-1.68,0.33,-0.48,0.20,
3.875,0.07,-0.13,-1.68,0.32,-0.47,0.20,
3.879,0.07,-0.13,-1.68,0.32,-0.46,0.20,
3.879,0.07,-0.13,-1.68,0.31,-0.45,0.19,
3.88,0.07,-0.13,-1.68,0.30,-0.44,0.19,
3.881,0.07,-0.13,-1.68,0.29,-0.42,0.18,
3.884,0.14,-0.10,-1.44,0.29,-0.42,0.18,
3.884,0.14,-0.10,-1.44,0.29,-0.40,0.18,
3.886,0.14,-0.10,-1.44,0.28,-0.38,0.18,
3.888,0.14,-0.10,-1.44,0.27,-0.36,0.17,
3.889,0.14,-0.10,-1.44,0.27,-0.34,0.17,
3.891,0.14,-0.10,-1.44,0.26,-0.31,0.17,
3.894,0.18,0.00,-1.22,0.26,-0.31,0.17,
3.895,0.18,0.00,-1.22,0.25,-0.29,0.17,
3.895,0.18,0.00,-1.22,0.24,-0.26,0.16,
3.898,0.18,0.00,-1.22,0.23,-0.21,0.15,
3.9,0.18,0.00,-1.22,0.22,-0.18,0.15,
3.901,0.18,0.00,-1.22,0.22,-0.16,0.14,
3.904,0.23,0.08,-1.03,0.22,-0.16,0.14,
3.905,0.23,0.08,-1.03,0.21,-0.12,0.14,
3.906,0.23,0.08,-1.03,0.20,-0.08,0.13,
3.908,0.23,0.08,-1.03,0.19,-0.05,0.13,
3.909,0.23,0.08,-1.03,0.19,-0.01,0.12,
3.913,0.23,0.08,-1.03,0.19,0.03,0.12,
3.914,0.19,0.15,-0.84,0.19,0.03,0.12,
3.914,0.19,0.15,-0.84,0.18,0.07,0.12,
3.916,0.19,0.15,-0.84,0.18,0.11,0.12,
3.92,0.19,0.15,-0.84,0.17,0.20,0.11,
3.92,0.19,0.15,-0.84,0.17,0.20,0.11,
3.922,0.19,0.15,-0.84,0.17,0.23,0.12,
3.924,0.03,0.15,-0.72,0.17,0.23,0.12,
3.924,0.03,0.15,-0.72,0.16,0.27,0.12,
3.925,0.03,0.15,-0.72,0.16,0.31,0.12,
3.927,0.03,0.15,-0.72,0.16,0.35,0.12,
3.929,0.03,0.15,-0.72,0.16,0.39,0.13,
3.932,0.03,0.15,-0.72,0.15,0.42,0.13,
3.934,-0.09,0.27,-0.74,0.15,0.42,0.13,
3.935,-0.09,0.27,-0.74,0.15,0.46,0.13,
3.936,-0.09,0.27,-0.74,0.14,0.49,0.13,
3.938,-0.09,0.27,-0.74,0.14,0.52,0.13,
3.94,-0.09,0.27,-0.74,0.13,0.55,0.13,
3.941,-0.09,0.27,-0.74,0.12,0.58,0.14,
3.944,-0.18,0.35,-0.83,0.12,0.58,0.14,
3.944,-0.18,0.35,-0.83,0.11,0.60,0.14,
3.945,-0.18,0.35,-0.83,0.11,0.62,0.14,
3.948,-0.18,0.35,-0.83,0.10,0.64,0.14,
3.961,-0.18,0.35,-0.83,0.09,0.66,0.14,
3.962,-0.18,0.35,-0.83,0.08,0.67,0.14,
3.962,-0.30,0.45,-0.88,0.08,0.67,0.14,
3.962,-0.30,0.45,-0.88,0.07,0.69,0.14,
3.962,-0.30,0.45,-0.88,0.06,0.70,0.14,
3.963,-0.30,0.45,-0.88,0.05,0.71,0.15,
3.963,-0.30,0.45,-0.88,0.04,0.72,0.15,
3.963,-0.30,0.45,-0.88,0.04,0.72,0.15,
3.964,-0.46,0.51,-0.78,0.04,0.72,0.15,
3.964,-0.46,0.51,-0.78,0.03,0.72,0.16,
3.979,-0.46,0.51,-0.78,0.02,0.73,0.16,
3.979,-0.46,0.51,-0.78,0.02,0.73,0.16,
3.979,-0.46,0.51,-0.78,0.01,0.72,0.17,
3.979,-0.46,0.51,-0.78,0.01,0.72,0.18,
3.98,-0.62,0.54,-0.55,0.01,0.72,0.18,
3.98,-0.62,0.54,-0.55,0.01,0.71,0.18,
3.98,-0.62,0.54,-0.55,0.01,0.71,0.19,
3.98,-0.62,0.54,-0.55,0.01,0.70,0.19,
3.98,-0.62,0.54,-0.55,0.01,0.69,0.20,
3.982,-0.62,0.54,-0.55,0.01,0.67,0.21,
3.989,-0.79,0.52,-0.26,0.01,0.67,0.21,
3.99,-0.79,0.52,-0.26,0.01,0.66,0.22,
3.99,-0.79,0.52,-0.26,0.02,0.64,0.23,
3.99,-0.79,0.52,-0.26,0.02,0.62,0.24,
3.991,-0.79,0.52,-0.26,0.03,0.59,0.25,
3.992,-0.79,0.52,-0.26,0.04,0.56,0.27,
3.994,-0.96,0.49,0.08,0.04,0.56,0.27,
3.994,-0.96,0.49,0.08,0.05,0.52,0.28,
3.996,-0.96,0.49,0.08,0.06,0.48,0.29,
3.998,-0.96,0.49,0.08,0.07,0.43,0.30,
4.0,-0.96,0.49,0.08,0.08,0.38,0.31,
4.002,-0.96,0.49,0.08,0.10,0.33,0.32,
4.004,-0.97,0.48,0.54,0.10,0.33,0.32,
4.005,-0.97,0.48,0.54,0.11,0.28,0.33,
4.006,-0.97,0.48,0.54,0.14,0.22,0.34,
4.008,-0.97,0.48,0.54,0.16,0.17,0.35,
4.01,-0.97,0.48,0.54,0.18,0.12,0.36,
4.012,-0.97,0.48,0.54,0.20,0.07,0.37,
4.014,-0.86,0.60,0.97,0.20,0.07,0.37,
4.015,-0.86,0.60,0.97,0.22,0.03,0.37,
4.017,-0.86,0.60,0.97,0.24,-0.00,0.38,
4.018,-0.86,0.60,0.97,0.25,-0.03,0.38,
4.02,-0.86,0.60,0.97,0.27,-0.05,0.39,
4.048,-0.86,0.60,0.97,0.28,-0.05,0.39,
4.049,-0.39,0.64,0.92,0.28,-0.05,0.39,
4.05,-0.39,0.64,0.92,0.28,-0.06,0.39,
4.054,-0.39,0.64,0.92,0.29,-0.06,0.39,
4.055,-0.39,0.64,0.92,0.29,-0.05,0.39,
4.055,-0.39,0.64,0.92,0.29,-0.04,0.39,
4.055,-0.39,0.64,0.92,0.28,-0.02,0.38,
4.056,0.14,0.66,0.51,0.28,-0.02,0.38,
4.056,0.14,0.66,0.51,0.28,-0.01,0.38,
4.057,0.14,0.66,0.51,0.27,0.01,0.37,
4.057,0.14,0.66,0.51,0.25,0.03,0.36,
4.057,0.14,0.66,0.51,0.24,0.05,0.35,
4.058,0.14,0.66,0.51,0.22,0.07,0.33,
4.058,0.51,0.79,0.03,0.22,0.07,0.33,
4.059,0.51,0.79,0.03,0.19,0.09,0.32,
4.059,0.51,0.79,0.03,0.17,0.12,0.31,
4.059,0.51,0.79,0.03,0.14,0.14,0.30,
4.06,0.51,0.79,0.03,0.11,0.16,0.28,
4.06,0.51,0.79,0.03,0.07,0.18,0.27,
4.061,0.59,1.04,-0.45,0.07,0.18,0.27,
4.061,0.59,1.04,-0.45,0.04,0.19,0.26,
4.061,0.59,1.04,-0.45,-0.00,0.21,0.24,
4.062,0.59,1.04,-0.45,-0.04,0.22,0.23,
4.062,0.59,1.04,-0.45,-0.09,0.23,0.21,
4.063,0.59,1.04,-0.45,-0.14,0.23,0.20,
4.073,0.52,1.08,-0.81,-0.14,0.23,0.20,
4.074,0.52,1.08,-0.81,-0.18,0.23,0.18,
4.074,0.52,1.08,-0.81,-0.23,0.21,0.17,
4.075,0.52,1.08,-0.81,-0.28,0.20,0.15,
4.075,0.52,1.08,-0.81,-0.33,0.18,0.14,
4.075,0.52,1.08,-0.81,-0.39,0.15,0.12,
4.076,0.26,0.95,-0.84,-0.39,0.15,0.12,
4.076,0.26,0.95,-0.84,-0.44,0.11,0.10,
4.077,0.26,0.95,-0.84,-0.48,0.07,0.09,
4.078,0.26,0.95,-0.84,-0.52,0.03,0.08,
4.082,0.26,0.95,-0.84,-0.57,-0.02,0.07,
4.082,0.26,0.95,-0.84,-0.60,-0.06,0.06,
4.087,-0.21,0.75,-0.14,-0.60,-0.06,0.06,
4.088,-0.21,0.75,-0.14,-0.63,-0.11,0.05,
4.088,-0.21,0.75,-0.14,-0.66,-0.16,0.05,
4.092,-0.21,0.75,-0.14,-0.67,-0.20,0.05,
4.092,-0.21,0.75,-0.14,-0.69,-0.24,0.05,
4.093,-0.21,0.75,-0.14,-0.70,-0.28,0.05,
4.096,-0.66,0.61,1.15,-0.70,-0.28,0.05,
4.097,-0.66,0.61,1.15,-0.70,-0.32,0.05,
4.097,-0.66,0.61,1.15,-0.70,-0.35,0.05,
4.11,-0.66,0.61,1.15,-0.69,-0.39,0.06,
4.111,-0.66,0.61,1.15,-0.68,-0.42,0.07,
4.111,-0.66,0.61,1.15,-0.66,-0.44,0.07,
4.111,-0.92,0.44,2.52,-0.66,-0.44,0.07,
4.112,-0.92,0.44,2.52,-0.65,-0.47,0.08,
4.112,-0.92,0.44,2.52,-0.63,-0.49,0.09,
4.112,-0.92,0.44,2.52,-0.60,-0.51,0.09,
4.112,-0.92,0.44,2.52,-0.58,-0.53,0.10,
4.112,-0.92,0.44,2.52,-0.55,-0.54,0.11,
4.139,-1.05,0.07,3.63,-0.55,-0.54,0.11,
4.14,-1.05,0.07,3.63,-0.51,-0.55,0.12,
4.141,-1.05,0.07,3.63,-0.48,-0.56,0.13,
4.141,-1.05,0.07,3.63,-0.45,-0.56,0.15,
4.141,-1.05,0.07,3.63,-0.41,-0.56,0.16,
4.141,-1.05,0.07,3.63,-0.37,-0.56,0.18,
4.141,-1.23,-0.29,4.46,-0.37,-0.56,0.18,
4.141,-1.23,-0.29,4.46,-0.33,-0.55,0.20,
4.142,-1.23,-0.29,4.46,-0.29,-0.54,0.22,
4.142,-1.23,-0.29,4.46,-0.25,-0.52,0.24,
4.142,-1.23,-0.29,4.46,-0.20,-0.51,0.26,
4.142,-1.23,-0.29,4.46,-0.16,-0.49,0.28,
4.142,-1.55,-0.59,4.95,-0.16,-0.49,0.28,
4.143,-1.55,-0.59,4.95,-0.11,-0.46,0.31,
4.143,-1.55,-0.59,4.95,-0.07,-0.43,0.34,
4.143,-1.55,-0.59,4.95,-0.02,-0.41,0.36,
4.143,-1.55,-0.59,4.95,0.02,-0.38,0.39,
4.143,-1.55,-0.59,4.95,0.06,-0.35,0.42,
4.146,-1.77,-0.70,4.95,0.06,-0.35,0.42,
4.146,-1.77,-0.70,4.95,0.10,-0.32,0.45,
4.146,-1.77,-0.70,4.95,0.14,-0.29,0.48,
4.155,-1.77,-0.70,4.95,0.17,-0.26,0.51,
4.156,-1.77,-0.70,4.95,0.20,-0.23,0.53,
4.156,-1.77,-0.70,4.95,0.22,-0.21,0.56,
4.156,-1.95,-0.82,4.45,0.22,-0.21,0.56,
4.156,-1.95,-0.82,4.45,0.25,-0.18,0.58,
4.157,-1.95,-0.82,4.45,0.27,-0.15,0.61,
4.159,-1.95,-0.82,4.45,0.28,-0.12,0.64,
4.161,-1.95,-0.82,4.45,0.29,-0.09,0.66,
4.162,-1.95,-0.82,4.45,0.30,-0.06,0.68,
4.166,-1.94,-0.83,3.60,0.30,-0.06,0.68,
4.167,-1.94,-0.83,3.60,0.31,-0.04,0.71,
4.175,-1.94,-0.83,3.60,0.31,-0.01,0.73,
4.176,-1.94,-0.83,3.60,0.31,0.01,0.75,
4.176,-1.94,-0.83,3.60,0.31,0.03,0.77,
4.176,-1.94,-0.83,3.60,0.30,0.05,0.79,
4.176,-1.92,-0.85,2.86,0.30,0.05,0.79,
4.177,-1.92,-0.85,2.86,0.29,0.07,0.81,
4.177,-1.92,-0.85,2.86,0.28,0.09,0.83,
4.18,-1.92,-0.85,2.86,0.27,0.10,0.85,
4.181,-1.92,-0.85,2.86,0.25,0.11,0.87,
4.185,-1.92,-0.85,2.86,0.23,0.11,0.88,
4.186,-1.83,-0.77,2.27,0.23,0.11,0.88,
4.186,-1.83,-0.77,2.27,0.21,0.11,0.90,
4.189,-1.83,-0.77,2.27,0.19,0.11,0.92,
4.212,-1.83,-0.77,2.27,0.17,0.11,0.93,
4.212,-1.83,-0.77,2.27,0.14,0.10,0.95,
4.212,-1.83,-0.77,2.27,0.12,0.08,0.96,
4.213,-1.69,-0.75,2.08,0.12,0.08,0.96,
4.213,-1.69,-0.75,2.08,0.10,0.07,0.97,
4.213,-1.69,-0.75,2.08,0.08,0.06,0.98,
4.213,-1.69,-0.75,2.08,0.05,0.04,0.99,
4.214,-1.69,-0.75,2.08,0.03,0.02,1.00,
4.214,-1.69,-0.75,2.08,0.02,0.01,1.01,
4.214,-1.45,-0.79,2.30,0.02,0.01,1.01,
4.215,-1.45,-0.79,2.30,-0.00,-0.00,1.01,
4.215,-1.45,-0.79,2.30,-0.02,-0.02,1.02,
4.215,-1.45,-0.79,2.30,-0.03,-0.03,1.03,
4.215,-1.45,-0.79,2.30,-0.04,-0.04,1.04,
4.216,-1.45,-0.79,2.30,-0.05,-0.05,1.05,
4.216,-1.30,-0.95,2.76,-0.05,-0.05,1.05,
4.216,-1.30,-0.95,2.76,-0.06,-0.07,1.06,
4.216,-1.30,-0.95,2.76,-0.06,-0.07,1.07,
4.22,-1.30,-0.95,2.76,-0.06,-0.08,1.08,
4.22,-1.30,-0.95,2.76,-0.07,-0.08,1.09,
4.224,-1.30,-0.95,2.76,-0.07,-0.08,1.11,
4.225,-1.12,-1.19,3.26,-0.07,-0.08,1.11,
4.226,-1.12,-1.19,3.26,-0.06,-0.08,1.12,
4.226,-1.12,-1.19,3.26,-0.06,-0.07,1.14,
4.23,-1.12,-1.19,3.26,-0.05,-0.06,1.15,
4.231,-1.12,-1.19,3.26,-0.04,-0.05,1.17,
4.236,-1.12,-1.19,3.26,-0.02,-0.03,1.18,
4.237,-1.03,-1.52,3.68,-0.02,-0.03,1.18,
4.239,-1.03,-1.52,3.68,-0.00,-0.01,1.20,
4.24,-1.03,-1.52,3.68,0.02,0.01,1.22,
4.24,-1.03,-1.52,3.68,0.04,0.04,1.24,
4.24,-1.03,-1.52,3.68,0.07,0.07,1.26,
4.244,-1.03,-1.52,3.68,0.09,0.10,1.28,
4.245,-0.92,-1.71,3.85,0.09,0.10,1.28,
4.245,-0.92,-1.71,3.85,0.12,0.12,1.31,
4.245,-0.92,-1.71,3.85,0.15,0.16,1.33,
4.26,-0.92,-1.71,3.85,0.21,0.21,1.36,
4.26,-0.92,-1.71,3.85,0.24,0.24,1.38,
4.26,-0.92,-1.71,3.85,0.26,0.26,1.39,
4.261,-0.77,-1.91,3.71,0.26,0.26,1.39,
4.261,-0.77,-1.91,3.71,0.30,0.30,1.41,
4.261,-0.77,-1.91,3.71,0.34,0.34,1.43,
4.261,-0.77,-1.91,3.71,0.38,0.37,1.45,
4.262,-0.77,-1.91,3.71,0.42,0.40,1.47,
4.262,-0.77,-1.91,3.71,0.45,0.44,1.49,
4.295,-0.63,-1.94,3.15,0.45,0.44,1.49,
4.295,-0.63,-1.94,3.15,0.49,0.47,1.51,
4.296,-0.63,-1.94,3.15,0.53,0.50,1.53,
4.296,-0.63,-1.94,3.15,0.56,0.52,1.54,
4.296,-0.63,-1.94,3.15,0.59,0.55,1.56,
4.296,-0.63,-1.94,3.15,0.62,0.57,1.57,
4.296,-0.53,-1.99,2.20,0.62,0.57,1.57,
4.296,-0.53,-1.99,2.20,0.65,0.59,1.59,
4.297,-0.53,-1.99,2.20,0.68,0.61,1.60,
4.297,-0.53,-1.99,2.20,0.70,0.64,1.61,
4.297,-0.53,-1.99,2.20,0.73,0.67,1.63,
4.297,-0.53,-1.99,2.20,0.74,0.67,1.64,
4.297,-0.44,-1.91,0.98,0.74,0.67,1.64,
4.297,-0.44,-1.91,0.98,0.76,0.69,1.65,
4.297,-0.44,-1.91,0.98,0.78,0.71,1.67,
4.298,-0.44,-1.91,0.98,0.79,0.72,1.67,
4.298,-0.44,-1.91,0.98,0.80,0.74,1.69,
4.298,-0.44,-1.91,0.98,0.80,0.75,1.70,
4.298,-0.36,-1.92,-0.25,0.80,0.75,1.70,
4.298,-0.36,-1.92,-0.25,0.81,0.76,1.71,
4.298,-0.36,-1.92,-0.25,0.81,0.78,1.72,
4.299,-0.36,-1.92,-0.25,0.81,0.79,1.72,
4.311,-0.36,-1.92,-0.25,0.81,0.79,1.73,
4.312,-0.36,-1.92,-0.25,0.81,0.80,1.74,
4.312,-0.31,-1.81,-1.44,0.81,0.80,1.74,
4.312,-0.31,-1.81,-1.44,0.80,0.81,1.74,
4.312,-0.31,-1.81,-1.44,0.80,0.81,1.74,
4.312,-0.31,-1.81,-1.44,0.79,0.82,1.75,
4.312,-0.31,-1.81,-1.44,0.78,0.82,1.75,
4.312,-0.31,-1.81,-1.44,0.77,0.82,1.75,
4.326,-0.18,-1.76,-2.35,0.77,0.82,1.75,
4.327,-0.18,-1.76,-2.35,0.76,0.82,1.75,
4.327,-0.18,-1.76,-2.35,0.75,0.82,1.75,
4.327,-0.18,-1.76,-2.35,0.74,0.82,1.75,
4.327,-0.18,-1.76,-2.35,0.73,0.82,1.74,
4.327,-0.18,-1.76,-2.35,0.71,0.82,1.74,
4.328,-0.18,-1.65,-3.03,0.71,0.82,1.74,
4.328,-0.18,-1.65,-3.03,0.70,0.81,1.74,
4.328,-0.18,-1.65,-3.03,0.69,0.81,1.74,
4.328,-0.18,-1.65,-3.03,0.67,0.80,1.73,
4.331,-0.18,-1.65,-3.03,0.66,0.80,1.73,
4.339,-0.18,-1.65,-3.03,0.64,0.79,1.73,
4.341,-0.23,-1.62,-3.57,0.64,0.79,1.73,
4.341,-0.23,-1.62,-3.57,0.62,0.78,1.73,
4.342,-0.23,-1.62,-3.57,0.60,0.78,1.73,
4.342,-0.23,-1.62,-3.57,0.58,0.77,1.72,
4.343,-0.23,-1.62,-3.57,0.57,0.76,1.72,
4.343,-0.23,-1.62,-3.57,0.55,0.75,1.72,
4.347,-0.25,-1.62,-3.97,0.55,0.75,1.72,
4.348,-0.25,-1.62,-3.97,0.53,0.74,1.73,
4.349,-0.25,-1.62,-3.97,0.51,0.73,1.73,
4.349,-0.25,-1.62,-3.97,0.48,0.72,1.73,
4.351,-0.25,-1.62,-3.97,0.46,0.71,1.73,
4.355,-0.25,-1.62,-3.97,0.44,0.70,1.73,
4.355,-0.35,-1.62,-4.13,0.44,0.70,1.73,
4.382,-0.35,-1.62,-4.13,0.43,0.69,1.73,
4.382,-0.35,-1.62,-4.13,0.40,0.68,1.74,
4.383,-0.35,-1.62,-4.13,0.39,0.68,1.74,
4.383,-0.35,-1.62,-4.13,0.37,0.67,1.74,
4.383,-0.35,-1.62,-4.13,0.35,0.66,1.75,
4.383,-0.36,-1.59,-4.08,0.35,0.66,1.75,
4.384,-0.36,-1.59,-4.08,0.34,0.65,1.75,
4.384,-0.36,-1.59,-4.08,0.32,0.65,1.75,
4.385,-0.36,-1.59,-4.08,0.31,0.64,1.75,
4.385,-0.36,-1.59,-4.08,0.29,0.64,1.76,
4.385,-0.36,-1.59,-4.08,0.28,0.64,1.76,
4.385,-0.38,-1.53,-3.83,0.28,0.64,1.76,
4.386,-0.38,-1.53,-3.83,0.27,0.63,1.76,
4.386,-0.38,-1.53,-3.83,0.26,0.63,1.76,
4.386,-0.38,-1.53,-3.83,0.24,0.62,1.76,
4.387,-0.38,-1.53,-3.83,0.23,0.62,1.76,
4.387,-0.38,-1.53,-3.83,0.22,0.61,1.76,
4.387,-0.13,-1.51,-3.62,0.22,0.61,1.76,
4.387,-0.13,-1.51,-3.62,0.21,0.61,1.76,
4.388,-0.13,-1.51,-3.62,0.20,0.60,1.75,
4.388,-0.13,-1.51,-3.62,0.20,0.59,1.75,
4.392,-0.13,-1.51,-3.62,0.19,0.58,1.74,
4.393,-0.13,-1.51,-3.62,0.18,0.57,1.74,
4.397,-0.08,-1.44,-3.39,0.18,0.57,1.74,
4.398,-0.08,-1.44,-3.39,0.17,0.56,1.73,
4.398,-0.08,-1.44,-3.39,0.17,0.56,1.73,
4.398,-0.08,-1.44,-3.39,0.16,0.55,1.72,
4.4,-0.08,-1.44,-3.39,0.16,0.54,1.72,
4.404,-0.08,-1.44,-3.39,0.15,0.53,1.71,
4.405,-0.08,-1.25,-3.19,0.15,0.53,1.71,
4.405,-0.08,-1.25,-3.19,0.15,0.52,1.71,
4.405,-0.08,-1.25,-3.19,0.14,0.51,1.70,
4.41,-0.08,-1.25,-3.19,0.14,0.50,1.70,
4.41,-0.08,-1.25,-3.19,0.13,0.48,1.69,
4.414,-0.08,-1.25,-3.19,0.12,0.47,1.68,
4.414,-0.03,-1.07,-3.04,0.12,0.47,1.68,
4.415,-0.03,-1.07,-3.04,0.12,0.45,1.68,
4.429,-0.03,-1.07,-3.04,0.11,0.44,1.67,
4.43,-0.03,-1.07,-3.04,0.11,0.42,1.66,
4.43,-0.03,-1.07,-3.04,0.10,0.41,1.65,
4.43,-0.03,-1.07,-3.04,0.11,0.40,1.64,
4.43,0.01,-0.98,-2.97,0.11,0.40,1.64,
4.431,0.01,-0.98,-2.97,0.08,0.38,1.63,
4.431,0.01,-0.98,-2.97,0.08,0.37,1.62,
4.431,0.01,-0.98,-2.97,0.07,0.36,1.62,
4.431,0.01,-0.98,-2.97,0.06,0.36,1.61,
4.438,0.01,-0.98,-2.97,0.04,0.35,1.60,
4.438,-0.02,-0.84,-3.02,0.04,0.35,1.60,
4.438,-0.02,-0.84,-3.02,0.03,0.34,1.59,
4.438,-0.02,-0.84,-3.02,0.01,0.34,1.59,
4.44,-0.02,-0.84,-3.02,-0.01,0.33,1.58,
4.441,-0.02,-0.84,-3.02,-0.04,0.33,1.57,
4.444,-0.02,-0.84,-3.02,-0.06,0.33,1.57,
4.445,-0.08,-0.75,-3.18,-0.06,0.33,1.57,
4.445,-0.08,-0.75,-3.18,-0.09,0.33,1.56,
4.453,-0.08,-0.75,-3.18,-0.12,0.33,1.56,
4.454,-0.08,-0.75,-3.18,-0.16,0.33,1.55,
4.454,-0.08,-0.75,-3.18,-0.19,0.33,1.55,
4.455,-0.08,-0.75,-3.18,-0.24,0.33,1.54,
4.455,-0.10,-0.68,-3.39,-0.24,0.33,1.54,
4.456,-0.10,-0.68,-3.39,-0.28,0.34,1.54,
4.457,-0.10,-0.68,-3.39,-0.33,0.35,1.54,
4.458,-0.10,-0.68,-3.39,-0.38,0.35,1.53,
4.46,-0.10,-0.68,-3.39,-0.43,0.36,1.53,
4.462,-0.10,-0.68,-3.39,-0.47,0.37,1.52,
4.47,-0.10,-0.65,-3.20,-0.47,0.37,1.52,
4.471,-0.10,-0.65,-3.20,-0.51,0.38,1.52,
4.471,-0.10,-0.65,-3.20,-0.55,0.39,1.51,
4.471,-0.10,-0.65,-3.20,-0.60,0.39,1.50,
4.471,-0.10,-0.65,-3.20,-0.63,0.40,1.49,
4.472,-0.10,-0.65,-3.20,-0.67,0.41,1.48,
4.474,0.10,-0.43,-2.44,-0.67,0.41,1.48,
4.474,0.10,-0.43,-2.44,-0.71,0.42,1.47,
4.476,0.10,-0.43,-2.44,-0.73,0.42,1.45,
4.478,0.10,-0.43,-2.44,-0.75,0.43,1.44,
4.485,0.10,-0.43,-2.44,-0.79,0.44,1.42,
4.486,0.10,-0.43,-2.44,-0.80,0.44,1.41,
4.486,0.41,-0.33,-1.31,-0.80,0.44,1.41,
4.486,0.41,-0.33,-1.31,-0.81,0.44,1.39,
4.486,0.41,-0.33,-1.31,-0.82,0.44,1.37,
4.488,0.41,-0.33,-1.31,-0.82,0.43,1.35,
4.49,0.41,-0.33,-1.31,-0.82,0.43,1.33,
4.491,0.41,-0.33,-1.31,-0.81,0.42,1.31,
4.494,0.87,-0.20,-0.09,-0.81,0.42,1.31,
4.494,0.87,-0.20,-0.09,-0.81,0.42,1.28,
4.506,0.87,-0.20,-0.09,-0.80,0.41,1.26,
4.506,0.87,-0.20,-0.09,-0.78,0.41,1.24,
4.507,0.87,-0.20,-0.09,-0.75,0.41,1.21,
4.507,0.87,-0.20,-0.09,-0.73,0.41,1.19,
4.507,1.11,-0.09,0.90,-0.73,0.41,1.19,
4.507,1.11,-0.09,0.90,-0.70,0.41,1.16,
4.507,1.11,-0.09,0.90,-0.67,0.41,1.14,
4.508,1.11,-0.09,0.90,-0.63,0.41,1.12,
4.512,1.11,-0.09,0.90,-0.60,0.42,1.09,
4.513,1.11,-0.09,0.90,-0.56,0.42,1.06,
4.536,1.30,0.12,1.53,-0.56,0.42,1.06,
4.536,1.30,0.12,1.53,-0.52,0.43,1.04,
4.536,1.30,0.12,1.53,-0.48,0.43,1.01,
4.537,1.30,0.12,1.53,-0.44,0.44,0.98,
4.537,1.30,0.12,1.53,-0.40,0.44,0.96,
4.56,1.30,0.12,1.53,-0.37,0.45,0.93,
4.56,1.32,0.26,1.72,-0.37,0.45,0.93,
4.56,1.32,0.26,1.72,-0.32,0.45,0.91,
4.561,1.32,0.26,1.72,-0.29,0.46,0.88,
4.561,1.32,0.26,1.72,-0.25,0.46,0.86,
4.561,1.32,0.26,1.72,-0.22,0.47,0.83,
4.562,1.32,0.26,1.72,-0.19,0.47,0.80,
4.562,1.32,0.37,1.52,-0.19,0.47,0.80,
4.562,1.32,0.37,1.52,-0.15,0.47,0.78,
4.562,1.32,0.37,1.52,-0.13,0.47,0.76,
4.563,1.32,0.37,1.52,-0.11,0.48,0.74,
4.563,1.32,0.37,1.52,-0.08,0.48,0.72,
4.563,1.32,0.37,1.52,-0.06,0.48,0.70,
4.563,1.12,0.44,1.13,-0.06,0.48,0.70,
4.564,1.12,0.44,1.13,-0.05,0.48,0.68,
4.564,1.12,0.44,1.13,-0.04,0.49,0.66,
4.564,1.12,0.44,1.13,-0.04,0.49,0.64,
4.565,1.12,0.44,1.13,-0.04,0.50,0.63,
4.565,1.12,0.44,1.13,-0.03,0.51,0.61,
4.565,1.00,0.45,0.66,-0.03,0.51,0.61,
4.565,1.00,0.45,0.66,-0.04,0.51,0.60,
4.566,1.00,0.45,0.66,-0.04,0.52,0.59,
4.566,1.00,0.45,0.66,-0.05,0.53,0.58,
4.566,1.00,0.45,0.66,-0.06,0.54,0.57,
4.566,1.00,0.45,0.66,-0.07,0.55,0.56,
4.567,0.85,0.38,0.19,-0.07,0.55,0.56,
4.567,0.85,0.38,0.19,-0.09,0.56,0.55,
4.567,0.85,0.38,0.19,-0.11,0.57,0.54,
4.573,0.85,0.38,0.19,-0.12,0.57,0.53,
4.573,0.85,0.38,0.19,-0.15,0.58,0.52,
4.573,0.85,0.38,0.19,-0.17,0.58,0.51,
4.574,0.99,0.48,-0.11,-0.17,0.58,0.51,
4.575,0.99,0.48,-0.11,-0.18,0.58,0.50,
4.576,0.99,0.48,-0.11,-0.21,0.57,0.49,
4.578,0.99,0.48,-0.11,-0.23,0.56,0.47,
4.589,0.99,0.48,-0.11,-0.27,0.55,0.45,
4.589,0.99,0.48,-0.11,-0.28,0.54,0.44,
4.59,1.20,0.56,-0.15,-0.28,0.54,0.44,
4.59,1.20,0.56,-0.15,-0.30,0.52,0.42,
4.59,1.20,0.56,-0.15,-0.33,0.50,0.41,
4.59,1.20,0.56,-0.15,-0.34,0.48,0.39,
4.591,1.20,0.56,-0.15,-0.36,0.46,0.36,
4.592,1.20,0.56,-0.15,-0.38,0.43,0.34,
4.598,1.62,0.67,0.11,-0.38,0.43,0.34,
4.598,1.62,0.67,0.11,-0.40,0.40,0.32,
4.599,1.62,0.67,0.11,-0.41,0.37,0.29,
4.6,1.62,0.67,0.11,-0.43,0.32,0.25,
4.6,1.62,0.67,0.11,-0.44,0.28,0.22,
4.602,1.62,0.67,0.11,-0.45,0.26,0.21,
4.604,1.98,0.61,0.63,-0.45,0.26,0.21,
4.605,1.98,0.61,0.63,-0.46,0.23,0.18,
4.606,1.98,0.61,0.63,-0.47,0.19,0.15,
4.608,1.98,0.61,0.63,-0.47,0.15,0.11,
4.611,1.98,0.61,0.63,-0.47,0.12,0.08,
4.613,1.98,0.61,0.63,-0.47,0.09,0.05,
4.615,2.45,0.64,1.38,-0.47,0.09,0.05,
4.615,2.45,0.64,1.38,-0.46,0.06,0.01,
4.616,2.45,0.64,1.38,-0.46,0.03,-0.02,
4.618,2.45,0.64,1.38,-0.45,0.01,-0.05,
4.622,2.45,0.64,1.38,-0.44,-0.01,-0.08,
4.622,2.45,0.64,1.38,-0.43,-0.02,-0.11,
4.625,2.45,0.63,2.07,-0.43,-0.02,-0.11,
4.625,2.45,0.63,2.07,-0.42,-0.03,-0.14,
4.628,2.45,0.63,2.07,-0.40,-0.04,-0.17,
4.628,2.45,0.63,2.07,-0.40,-0.04,-0.18,
4.635,2.45,0.63,2.07,-0.39,-0.03,-0.21,
4.635,2.45,0.63,2.07,-0.38,-0.03,-0.22,
4.635,2.34,0.71,2.37,-0.38,-0.03,-0.22,
4.635,2.34,0.71,2.37,-0.37,-0.03,-0.23,
4.636,2.34,0.71,2.37,-0.37,-0.02,-0.24,
4.64,2.34,0.71,2.37,-0.37,-0.01,-0.25,
4.641,2.34,0.71,2.37,-0.38,0.01,-0.27,
4.644,2.34,0.71,2.37,-0.38,0.01,-0.27,
4.645,2.25,0.73,2.25,-0.38,0.01,-0.27,
4.645,2.25,0.73,2.25,-0.39,0.02,-0.28,
4.655,2.25,0.73,2.25,-0.41,0.03,-0.29,
4.655,2.25,0.73,2.25,-0.43,0.05,-0.30,
4.655,2.25,0.73,2.25,-0.46,0.06,-0.32,
4.656,2.25,0.73,2.25,-0.47,0.07,-0.33,
4.656,2.47,0.75,2.02,-0.47,0.07,-0.33,
4.656,2.47,0.75,2.02,-0.50,0.08,-0.34,
4.656,2.47,0.75,2.02,-0.53,0.09,-0.36,
4.66,2.47,0.75,2.02,-0.56,0.10,-0.38,
4.66,2.47,0.75,2.02,-0.61,0.12,-0.41,
4.686,2.47,0.75,2.02,-0.62,0.13,-0.42,
4.687,2.59,0.75,2.08,-0.62,0.13,-0.42,
4.687,2.59,0.75,2.08,-0.65,0.14,-0.43,
4.687,2.59,0.75,2.08,-0.68,0.16,-0.45,
4.687,2.59,0.75,2.08,-0.72,0.18,-0.48,
4.688,2.59,0.75,2.08,-0.74,0.20,-0.50,
4.688,2.59,0.75,2.08,-0.75,0.21,-0.51,
4.688,2.73,0.79,2.49,-0.75,0.21,-0.51,
4.688,2.73,0.79,2.49,-0.78,0.24,-0.53,
4.688,2.73,0.79,2.49,-0.79,0.25,-0.55,
4.688,2.73,0.79,2.49,-0.80,0.28,-0.57,
4.689,2.73,0.79,2.49,-0.81,0.30,-0.58,
4.689,2.73,0.79,2.49,-0.81,0.30,-0.59,
4.689,2.69,0.68,3.13,-0.81,0.30,-0.59,
4.689,2.69,0.68,3.13,-0.82,0.34,-0.61,
4.689,2.69,0.68,3.13,-0.82,0.35,-0.62,
4.711,2.69,0.68,3.13,-0.82,0.38,-0.64,
4.711,2.69,0.68,3.13,-0.81,0.41,-0.65,
4.711,2.69,0.68,3.13,-0.81,0.42,-0.65,
4.712,2.64,0.50,3.74,-0.81,0.42,-0.65,
4.712,2.64,0.50,3.74,-0.79,0.45,-0.67,
4.712,2.64,0.50,3.74,-0.76,0.48,-0.67,
4.712,2.64,0.50,3.74,-0.75,0.50,-0.68,
4.713,2.64,0.50,3.74,-0.72,0.53,-0.68,
4.713,2.64,0.50,3.74,-0.70,0.55,-0.68,
4.713,2.39,0.25,4.21,-0.70,0.55,-0.68,
4.713,2.39,0.25,4.21,-0.67,0.58,-0.68,
4.714,2.39,0.25,4.21,-0.63,0.60,-0.68,
4.714,2.39,0.25,4.21,-0.60,0.62,-0.68,
4.714,2.39,0.25,4.21,-0.57,0.64,-0.68,
4.714,2.39,0.25,4.21,-0.53,0.66,-0.67,
4.715,2.19,0.02,4.37,-0.53,0.66,-0.67,
4.715,2.19,0.02,4.37,-0.49,0.67,-0.66,
4.723,2.19,0.02,4.37,-0.45,0.68,-0.66,
4.724,2.19,0.02,4.37,-0.40,0.70,-0.65,
4.724,2.19,0.02,4.37,-0.36,0.70,-0.64,
4.724,2.19,0.02,4.37,-0.33,0.71,-0.63,
4.725,1.91,-0.11,4.22,-0.33,0.71,-0.63,
4.725,1.91,-0.11,4.22,-0.28,0.71,-0.62,
4.726,1.91,-0.11,4.22,-0.24,0.71,-0.61,
4.73,1.91,-0.11,4.22,-0.20,0.71,-0.60,
4.73,1.91,-0.11,4.22,-0.16,0.70,-0.59,
4.741,1.91,-0.11,4.22,-0.11,0.70,-0.58,
4.741,1.72,-0.24,3.84,-0.11,0.70,-0.58,
4.741,1.72,-0.24,3.84,-0.08,0.69,-0.57,
4.742,1.72,-0.24,3.84,-0.04,0.68,-0.56,
4.742,1.72,-0.24,3.84,-0.00,0.67,-0.55,
4.742,1.72,-0.24,3.84,0.03,0.66,-0.54,
4.742,1.72,-0.24,3.84,0.07,0.64,-0.53,
4.745,1.44,-0.35,3.31,0.07,0.64,-0.53,
4.746,1.44,-0.35,3.31,0.11,0.63,-0.51,
4.746,1.44,-0.35,3.31,0.14,0.62,-0.50,
4.749,1.44,-0.35,3.31,0.18,0.60,-0.48,
4.75,1.44,-0.35,3.31,0.21,0.59,-0.46,
4.752,1.44,-0.35,3.31,0.25,0.57,-0.44,
4.754,1.24,-0.47,2.68,0.25,0.57,-0.44,
4.754,1.24,-0.47,2.68,0.28,0.55,-0.43,
4.756,1.24,-0.47,2.68,0.31,0.53,-0.41,
4.76,1.24,-0.47,2.68,0.34,0.50,-0.39,
4.76,1.24,-0.47,2.68,0.37,0.47,-0.37,
4.762,1.24,-0.47,2.68,0.39,0.45,-0.35,
4.765,1.00,-0.55,2.01,0.39,0.45,-0.35,
4.765,1.00,-0.55,2.01,0.42,0.42,-0.32,
4.766,1.00,-0.55,2.01,0.45,0.40,-0.30,
4.769,1.00,-0.55,2.01,0.47,0.37,-0.28,
4.77,1.00,-0.55,2.01,0.50,0.34,-0.26,
4.772,1.00,-0.55,2.01,0.52,0.32,-0.24,
4.774,0.88,-0.58,1.38,0.52,0.32,-0.24,
4.775,0.88,-0.58,1.38,0.55,0.29,-0.22,
4.776,0.88,-0.58,1.38,0.57,0.26,-0.20,
4.782,0.88,-0.58,1.38,0.59,0.24,-0.19,
4.782,0.88,-0.58,1.38,0.61,0.22,-0.17,
4.782,0.88,-0.58,1.38,0.62,0.19,-0.15,
4.786,0.85,-0.53,0.75,0.62,0.19,-0.15,
4.786,0.85,-0.53,0.75,0.64,0.17,-0.14,
4.787,0.85,-0.53,0.75,0.66,0.14,-0.12,
4.791,0.85,-0.53,0.75,0.67,0.12,-0.11,
4.791,0.85,-0.53,0.75,0.68,0.10,-0.09,
4.792,0.85,-0.53,0.75,0.70,0.07,-0.08,
4.796,0.89,-0.50,0.09,0.70,0.07,-0.08,
4.796,0.89,-0.50,0.09,0.71,0.05,-0.07,
4.808,0.89,-0.50,0.09,0.71,0.02,-0.06,
4.808,0.89,-0.50,0.09,0.71,0.00,-0.05,
4.809,0.89,-0.50,0.09,0.72,-0.02,-0.04,
4.809,0.89,-0.50,0.09,0.72,-0.04,-0.03,
4.809,0.88,-0.40,-0.59,0.72,-0.04,-0.03,
4.809,0.88,-0.40,-0.59,0.72,-0.06,-0.02,
4.809,0.88,-0.40,-0.59,0.71,-0.08,-0.02,
4.81,0.88,-0.40,-0.59,0.70,-0.09,-0.01,
4.81,0.88,-0.40,-0.59,0.70,-0.11,-0.00,
4.84,0.88,-0.40,-0.59,0.69,-0.13,0.00,
4.841,0.85,-0.31,-1.24,0.69,-0.13,0.00,
4.841,0.85,-0.31,-1.24,0.67,-0.14,0.01,
4.842,0.85,-0.31,-1.24,0.66,-0.15,0.01,
4.842,0.85,-0.31,-1.24,0.64,-0.16,0.02,
4.842,0.85,-0.31,-1.24,0.63,-0.17,0.02,
4.843,0.85,-0.31,-1.24,0.61,-0.18,0.03,
4.843,0.80,-0.21,-1.78,0.61,-0.18,0.03,
4.843,0.80,-0.21,-1.78,0.58,-0.19,0.03,
4.843,0.80,-0.21,-1.78,0.56,-0.20,0.03,
4.844,0.80,-0.21,-1.78,0.54,-0.21,0.04,
4.844,0.80,-0.21,-1.78,0.51,-0.21,0.04,
4.844,0.80,-0.21,-1.78,0.49,-0.22,0.04,
4.845,0.78,-0.14,-2.14,0.49,-0.22,0.04,
4.845,0.78,-0.14,-2.14,0.46,-0.22,0.04,
4.845,0.78,-0.14,-2.14,0.44,-0.22,0.04,
4.845,0.78,-0.14,-2.14,0.41,-0.23,0.04,
4.846,0.78,-0.14,-2.14,0.38,-0.23,0.04,
4.846,0.78,-0.14,-2.14,0.36,-0.23,0.04,
4.846,0.63,-0.06,-2.24,0.36,-0.23,0.04,
4.846,0.63,-0.06,-2.24,0.33,-0.22,0.04,
4.847,0.63,-0.06,-2.24,0.31,-0.22,0.04,
4.853,0.63,-0.06,-2.24,0.29,-0.22,0.04,
4.854,0.63,-0.06,-2.24,0.27,-0.22,0.04,
4.854,0.63,-0.06,-2.24,0.24,-0.22,0.04,
4.854,0.58,-0.02,-2.07,0.24,-0.22,0.04,
4.877,0.58,-0.02,-2.07,0.22,-0.23,0.04,
4.877,0.58,-0.02,-2.07,0.20,-0.23,0.04,
4.877,0.58,-0.02,-2.07,0.18,-0.24,0.03,
4.877,0.58,-0.02,-2.07,0.17,-0.25,0.03,
4.878,0.58,-0.02,-2.07,0.15,-0.26,0.03,
4.878,0.74,-0.25,-1.88,0.15,-0.26,0.03,
4.878,0.74,-0.25,-1.88,0.13,-0.26,0.02,
4.878,0.74,-0.25,-1.88,0.12,-0.27,0.02,
4.879,0.74,-0.25,-1.88,0.10,-0.28,0.01,
4.879,0.74,-0.25,-1.88,0.09,-0.28,0.01,
4.879,0.74,-0.25,-1.88,0.09,-0.28,0.00,
4.88,0.64,-0.39,-1.60,0.09,-0.28,0.00,
4.88,0.64,-0.39,-1.60,0.08,-0.28,-0.00,
4.88,0.64,-0.39,-1.60,0.07,-0.29,-0.01,
4.88,0.64,-0.39,-1.60,0.07,-0.28,-0.01,
4.881,0.64,-0.39,-1.60,0.07,-0.28,-0.01,
4.889,0.64,-0.39,-1.60,0.07,-0.27,-0.01,
4.89,0.35,-0.32,-1.27,0.07,-0.27,-0.01,
4.89,0.35,-0.32,-1.27,0.07,-0.27,-0.01,
4.89,0.35,-0.32,-1.27,0.08,-0.26,-0.00,
4.89,0.35,-0.32,-1.27,0.08,-0.26,0.00,
4.891,0.35,-0.32,-1.27,0.09,-0.26,0.00,
4.895,0.35,-0.32,-1.27,0.10,-0.25,0.01,
4.895,0.13,-0.35,-1.07,0.10,-0.25,0.01,
4.895,0.13,-0.35,-1.07,0.11,-0.24,0.01,
4.896,0.13,-0.35,-1.07,0.11,-0.24,0.02,
4.901,0.13,-0.35,-1.07,0.12,-0.23,0.02,
4.902,0.13,-0.35,-1.07,0.13,-0.22,0.03,
4.902,0.13,-0.35,-1.07,0.14,-0.21,0.04,
4.907,0.02,-0.42,-1.10,0.14,-0.21,0.04,
4.907,0.02,-0.42,-1.10,0.15,-0.20,0.04,
4.907,0.02,-0.42,-1.10,0.16,-0.20,0.05,
4.908,0.02,-0.42,-1.10,0.17,-0.19,0.06,
4.912,0.02,-0.42,-1.10,0.18,-0.19,0.07,
4.926,0.02,-0.42,-1.10,0.19,-0.18,0.07,
4.927,-0.16,-0.39,-1.33,0.19,-0.18,0.07,
4.927,-0.16,-0.39,-1.33,0.20,-0.18,0.08,
4.927,-0.16,-0.39,-1.33,0.20,-0.17,0.09,
4.928,-0.16,-0.39,-1.33,0.21,-0.17,0.10,
4.928,-0.16,-0.39,-1.33,0.21,-0.17,0.10,
4.928,-0.16,-0.39,-1.33,0.21,-0.17,0.11,
4.928,-0.24,-0.32,-1.65,0.21,-0.17,0.11,
4.929,-0.24,-0.32,-1.65,0.22,-0.17,0.12,
4.929,-0.24,-0.32,-1.65,0.23,-0.17,0.12,
4.929,-0.24,-0.32,-1.65,0.23,-0.17,0.13,
4.932,-0.24,-0.32,-1.65,0.24,-0.18,0.13,
4.933,-0.24,-0.32,-1.65,0.24,-0.18,0.14,
4.942,-0.33,-0.24,-1.94,0.24,-0.18,0.14,
4.943,-0.33,-0.24,-1.94,0.24,-0.18,0.14,
4.943,-0.33,-0.24,-1.94,0.24,-0.18,0.15,
4.943,-0.33,-0.24,-1.94,0.24,-0.18,0.15,
4.944,-0.33,-0.24,-1.94,0.25,-0.18,0.16,
4.944,-0.33,-0.24,-1.94,0.25,-0.19,0.16,
4.944,-0.41,-0.14,-2.20,0.25,-0.19,0.16,
4.945,-0.41,-0.14,-2.20,0.25,-0.20,0.17,
4.947,-0.41,-0.14,-2.20,0.25,-0.20,0.17,
4.953,-0.41,-0.14,-2.20,0.25,-0.21,0.18,
4.956,-0.41,-0.14,-2.20,0.24,-0.22,0.18,
4.956,-0.41,-0.14,-2.20,0.24,-0.22,0.19,
4.959,-0.46,0.01,-2.41,0.24,-0.22,0.19,
4.959,-0.46,0.01,-2.41,0.24,-0.23,0.19,
4.959,-0.46,0.01,-2.41,0.24,-0.25,0.19,
4.971,-0.46,0.01,-2.41,0.24,-0.26,0.20,
4.971,-0.46,0.01,-2.41,0.24,-0.27,0.20,
4.971,-0.46,0.01,-2.41,0.23,-0.28,0.20,
4.972,-0.43,0.08,-2.47,0.23,-0.28,0.20,
4.972,-0.43,0.08,-2.47,0.22,-0.29,0.20,
4.972,-0.43,0.08,-2.47,0.22,-0.30,0.20,
4.972,-0.43,0.08,-2.47,0.22,-0.31,0.20,
4.972,-0.43,0.08,-2.47,0.21,-0.32,0.20,
4.972,-0.43,0.08,-2.47,0.21,-0.33,0.20,
4.975,-0.26,0.14,-2.53,0.21,-0.33,0.20,
4.975,-0.26,0.14,-2.53,0.20,-0.34,0.20,
4.976,-0.26,0.14,-2.53,0.19,-0.35,0.20,
4.984,-0.26,0.14,-2.53,0.18,-0.36,0.20,
4.984,-0.26,0.14,-2.53,0.18,-0.37,0.20,
4.986,-0.26,0.14,-2.53,0.17,-0.38,0.20,
4.986,-0.12,0.16,-2.54,0.17,-0.38,0.20,
4.987,-0.12,0.16,-2.54,0.16,-0.38,0.20,
