
time,ax,ay,az,wx,wy,wz,
0.002,-1.21,-0.19,-1.35,-0.35,-0.60,-0.12,
0.003,-1.21,-0.19,-1.35,-0.41,-0.54,-0.08,
0.003,-0.94,-0.36,-1.62,-0.41,-0.54,-0.08,
0.003,-0.94,-0.36,-1.62,-0.47,-0.48,-0.05,
0.003,-0.94,-0.36,-1.62,-0.53,-0.42,-0.01,
0.005,-0.94,-0.36,-1.62,-0.59,-0.37,0.02,
0.007,-0.94,-0.36,-1.62,-0.64,-0.33,0.05,
0.017,-0.94,-0.36,-1.62,-0.69,-0.29,0.07,
0.017,-0.09,0.07,-1.25,-0.69,-0.29,0.07,
0.018,-0.09,0.07,-1.25,-0.73,-0.25,0.08,
0.018,-0.09,0.07,-1.25,-0.77,-0.21,0.09,
0.018,-0.09,0.07,-1.25,-0.80,-0.17,0.10,
0.018,-0.09,0.07,-1.25,-0.83,-0.13,0.10,
0.019,-0.09,0.07,-1.25,-0.85,-0.09,0.10,
0.021,0.56,0.31,-0.62,-0.85,-0.09,0.10,
0.021,0.56,0.31,-0.62,-0.86,-0.05,0.10,
0.022,0.56,0.31,-0.62,-0.87,-0.00,0.10,
0.029,0.56,0.31,-0.62,-0.88,0.03,0.09,
0.03,0.56,0.31,-0.62,-0.88,0.07,0.09,
0.03,0.56,0.31,-0.62,-0.88,0.10,0.09,
0.031,0.51,0.17,0.00,-0.88,0.10,0.09,
0.031,0.51,0.17,0.00,-0.89,0.13,0.08,
0.033,0.51,0.17,0.00,-0.88,0.16,0.08,
0.035,0.51,0.17,0.00,-0.88,0.19,0.07,
0.036,0.51,0.17,0.00,-0.88,0.21,0.07,
0.039,0.51,0.17,0.00,-0.87,0.22,0.06,
0.041,0.32,0.07,0.49,-0.87,0.22,0.06,
0.042,0.32,0.07,0.49,-0.86,0.23,0.06,
0.043,0.32,0.07,0.49,-0.85,0.25,0.05,
0.045,0.32,0.07,0.49,-0.84,0.26,0.04,
0.047,0.32,0.07,0.49,-0.82,0.27,0.04,
0.049,0.32,0.07,0.49,-0.80,0.28,0.03,
0.052,0.25,0.13,0.88,-0.80,0.28,0.03,
0.052,0.25,0.13,0.88,-0.78,0.29,0.03,
0.074,0.25,0.13,0.88,-0.75,0.29,0.02,
0.075,0.25,0.13,0.88,-0.72,0.29,0.01,
0.075,0.25,0.13,0.88,-0.69,0.29,0.01,
0.075,0.25,0.13,0.88,-0.66,0.29,0.00,
0.075,0.10,0.19,1.34,-0.66,0.29,0.00,
0.075,0.10,0.19,1.34,-0.62,0.29,-0.00,
0.076,0.10,0.19,1.34,-0.59,0.28,-0.01,
0.076,0.10,0.19,1.34,-0.55,0.27,-0.01,
0.076,0.10,0.19,1.34,-0.50,0.26,-0.02,
0.076,0.10,0.19,1.34,-0.46,0.25,-0.03,
0.076,0.01,0.18,1.69,-0.46,0.25,-0.03,
0.077,0.01,0.18,1.69,-0.41,0.23,-0.04,
0.077,0.01,0.18,1.69,-0.35,0.21,-0.05,
0.077,0.01,0.18,1.69,-0.30,0.19,-0.06,
0.077,0.01,0.18,1.69,-0.25,0.16,-0.07,
0.088,0.01,0.18,1.69,-0.19,0.13,-0.08,
0.089,-0.04,0.15,1.89,-0.19,0.13,-0.08,
0.089,-0.04,0.15,1.89,-0.12,0.10,-0.09,
0.089,-0.04,0.15,1.89,-0.07,0.07,-0.10,
0.089,-0.04,0.15,1.89,-0.00,0.04,-0.11,
0.09,-0.04,0.15,1.89,0.06,0.00,-0.12,
0.09,-0.04,0.15,1.89,0.12,-0.03,-0.13,
0.093,0.07,0.12,1.97,0.12,-0.03,-0.13,
0.093,0.07,0.12,1.97,0.18,-0.07,-0.14,
0.093,0.07,0.12,1.97,0.23,-0.11,-0.15,
0.096,0.07,0.12,1.97,0.29,-0.14,-0.15,
0.103,0.07,0.12,1.97,0.34,-0.18,-0.16,
0.104,0.07,0.12,1.97,0.40,-0.23,-0.16,
0.104,0.13,0.12,1.82,0.40,-0.23,-0.16,
0.104,0.13,0.12,1.82,0.45,-0.27,-0.16,
0.104,0.13,0.12,1.82,0.50,-0.30,-0.17,
0.105,0.13,0.12,1.82,0.54,-0.33,-0.17,
0.106,0.13,0.12,1.82,0.58,-0.36,-0.17,
0.109,0.13,0.12,1.82,0.61,-0.38,-0.17,
0.112,0.17,0.08,1.51,0.61,-0.38,-0.17,
0.112,0.17,0.08,1.51,0.65,-0.40,-0.17,
0.113,0.17,0.08,1.51,0.67,-0.41,-0.16,
0.115,0.17,0.08,1.51,0.69,-0.42,-0.16,
0.116,0.17,0.08,1.51,0.71,-0.43,-0.15,
0.118,0.17,0.08,1.51,0.72,-0.43,-0.14,
0.122,0.10,-0.03,0.95,0.72,-0.43,-0.14,
0.122,0.10,-0.03,0.95,0.73,-0.44,-0.13,
0.127,0.10,-0.03,0.95,0.73,-0.45,-0.10,
0.128,0.10,-0.03,0.95,0.73,-0.45,-0.10,
0.129,0.10,-0.03,0.95,0.71,-0.45,-0.09,
0.129,0.10,-0.03,0.95,0.71,-0.45,-0.09,
0.131,-0.02,-0.13,0.38,0.71,-0.45,-0.09,
0.131,-0.02,-0.13,0.38,0.70,-0.45,-0.08,
0.132,-0.02,-0.13,0.38,0.68,-0.44,-0.06,
0.135,-0.02,-0.13,0.38,0.67,-0.42,-0.05,
0.136,-0.02,-0.13,0.38,0.64,-0.41,-0.04,
0.139,-0.02,-0.13,0.38,0.62,-0.39,-0.03,
0.142,-0.12,-0.00,-0.10,0.62,-0.39,-0.03,
0.142,-0.12,-0.00,-0.10,0.59,-0.37,-0.02,
0.142,-0.12,-0.00,-0.10,0.56,-0.35,-0.01,
0.145,-0.12,-0.00,-0.10,0.53,-0.34,0.00,
0.146,-0.12,-0.00,-0.10,0.50,-0.34,0.01,
0.149,-0.12,-0.00,-0.10,0.46,-0.33,0.03,
0.152,-0.16,0.15,-0.36,0.46,-0.33,0.03,
0.152,-0.16,0.15,-0.36,0.42,-0.33,0.04,
0.153,-0.16,0.15,-0.36,0.39,-0.33,0.05,
0.154,-0.16,0.15,-0.36,0.36,-0.33,0.06,
0.156,-0.16,0.15,-0.36,0.32,-0.33,0.08,
0.158,-0.16,0.15,-0.36,0.29,-0.32,0.09,
0.161,-0.31,0.27,-0.59,0.29,-0.32,0.09,
0.161,-0.31,0.27,-0.59,0.25,-0.32,0.09,
0.162,-0.31,0.27,-0.59,0.22,-0.32,0.10,
0.167,-0.31,0.27,-0.59,0.19,-0.31,0.10,
0.178,-0.31,0.27,-0.59,0.16,-0.31,0.11,
0.179,-0.31,0.27,-0.59,0.13,-0.31,0.11,
0.179,-0.20,0.34,-0.76,0.13,-0.31,0.11,
0.179,-0.20,0.34,-0.76,0.11,-0.31,0.11,
0.179,-0.20,0.34,-0.76,0.09,-0.31,0.10,
0.179,-0.20,0.34,-0.76,0.07,-0.32,0.10,
0.179,-0.20,0.34,-0.76,0.05,-0.32,0.09,
0.179,-0.20,0.34,-0.76,0.03,-0.34,0.09,
0.186,0.10,0.31,-0.64,0.03,-0.34,0.09,
0.187,0.10,0.31,-0.64,0.02,-0.35,0.08,
0.187,0.10,0.31,-0.64,0.01,-0.37,0.07,
0.187,0.10,0.31,-0.64,-0.00,-0.38,0.06,
0.187,0.10,0.31,-0.64,-0.01,-0.38,0.04,
0.188,0.10,0.31,-0.64,-0.01,-0.38,0.03,
0.191,0.49,0.32,-0.44,-0.01,-0.38,0.03,
0.192,0.49,0.32,-0.44,-0.02,-0.37,0.02,
0.192,0.49,0.32,-0.44,-0.02,-0.36,0.00,
0.195,0.49,0.32,-0.44,-0.03,-0.35,-0.01,
0.197,0.49,0.32,-0.44,-0.03,-0.34,-0.02,
0.198,0.49,0.32,-0.44,-0.03,-0.34,-0.04,
0.202,1.07,0.45,-0.12,-0.03,-0.34,-0.04,
0.202,1.07,0.45,-0.12,-0.03,-0.35,-0.06,
0.202,1.07,0.45,-0.12,-0.03,-0.34,-0.07,
0.204,1.07,0.45,-0.12,-0.02,-0.35,-0.09,
0.206,1.07,0.45,-0.12,-0.02,-0.35,-0.11,
0.212,1.07,0.45,-0.12,-0.01,-0.35,-0.13,
0.213,1.52,0.43,0.14,-0.01,-0.35,-0.13,
0.213,1.52,0.43,0.14,-0.01,-0.36,-0.15,
0.213,1.52,0.43,0.14,-0.00,-0.36,-0.17,
0.215,1.52,0.43,0.14,0.01,-0.37,-0.19,
0.217,1.52,0.43,0.14,0.02,-0.37,-0.21,
0.219,1.52,0.43,0.14,0.02,-0.38,-0.23,
0.24,1.50,0.31,0.39,0.02,-0.38,-0.23,
0.241,1.50,0.31,0.39,0.03,-0.39,-0.25,
0.241,1.50,0.31,0.39,0.05,-0.39,-0.27,
0.241,1.50,0.31,0.39,0.05,-0.40,-0.29,
0.241,1.50,0.31,0.39,0.06,-0.41,-0.31,
0.242,1.50,0.31,0.39,0.07,-0.41,-0.33,
0.242,1.51,0.26,0.56,0.07,-0.41,-0.33,
0.242,1.51,0.26,0.56,0.08,-0.41,-0.36,
0.242,1.51,0.26,0.56,0.09,-0.41,-0.38,
0.243,1.51,0.26,0.56,0.09,-0.41,-0.40,
0.243,1.51,0.26,0.56,0.09,-0.42,-0.42,
0.243,1.51,0.26,0.56,0.09,-0.45,-0.43,
0.243,1.43,-0.00,0.55,0.09,-0.45,-0.43,
0.244,1.43,-0.00,0.55,0.09,-0.49,-0.44,
0.244,1.43,-0.00,0.55,0.08,-0.56,-0.45,
0.253,1.43,-0.00,0.55,0.06,-0.60,-0.47,
0.253,1.43,-0.00,0.55,0.05,-0.62,-0.48,
0.254,1.43,-0.00,0.55,0.04,-0.61,-0.50,
0.254,1.15,-0.30,0.33,0.04,-0.61,-0.50,
0.254,1.15,-0.30,0.33,0.03,-0.59,-0.52,
0.254,1.15,-0.30,0.33,0.02,-0.58,-0.53,
0.258,1.15,-0.30,0.33,-0.01,-0.57,-0.54,
0.258,1.15,-0.30,0.33,-0.03,-0.58,-0.55,
0.26,1.15,-0.30,0.33,-0.05,-0.59,-0.56,
0.262,0.63,-0.29,-0.13,-0.05,-0.59,-0.56,
0.262,0.63,-0.29,-0.13,-0.07,-0.61,-0.56,
0.263,0.63,-0.29,-0.13,-0.10,-0.61,-0.56,
0.265,0.63,-0.29,-0.13,-0.13,-0.61,-0.56,
0.266,0.63,-0.29,-0.13,-0.16,-0.60,-0.56,
0.268,0.63,-0.29,-0.13,-0.19,-0.58,-0.56,
0.271,0.29,-0.18,-0.49,-0.19,-0.58,-0.56,
0.271,0.29,-0.18,-0.49,-0.23,-0.57,-0.55,
0.272,0.29,-0.18,-0.49,-0.27,-0.56,-0.55,
0.275,0.29,-0.18,-0.49,-0.30,-0.54,-0.54,
0.277,0.29,-0.18,-0.49,-0.34,-0.53,-0.54,
0.279,0.29,-0.18,-0.49,-0.38,-0.53,-0.53,
0.282,0.00,-0.10,-0.43,-0.38,-0.53,-0.53,
0.282,0.00,-0.10,-0.43,-0.41,-0.53,-0.52,
0.283,0.00,-0.10,-0.43,-0.45,-0.54,-0.51,
0.285,0.00,-0.10,-0.43,-0.47,-0.55,-0.50,
0.293,0.00,-0.10,-0.43,-0.50,-0.57,-0.49,
0.294,0.00,-0.10,-0.43,-0.52,-0.59,-0.47,
0.294,-0.25,-0.04,0.16,-0.52,-0.59,-0.47,
0.294,-0.25,-0.04,0.16,-0.54,-0.61,-0.46,
0.294,-0.25,-0.04,0.16,-0.55,-0.64,-0.44,
0.297,-0.25,-0.04,0.16,-0.57,-0.66,-0.42,
0.297,-0.25,-0.04,0.16,-0.59,-0.68,-0.40,
0.299,-0.25,-0.04,0.16,-0.59,-0.70,-0.38,
0.301,-0.45,0.15,0.81,-0.59,-0.70,-0.38,
0.301,-0.45,0.15,0.81,-0.61,-0.72,-0.35,
0.302,-0.45,0.15,0.81,-0.62,-0.74,-0.32,
0.304,-0.45,0.15,0.81,-0.63,-0.76,-0.29,
0.306,-0.45,0.15,0.81,-0.63,-0.78,-0.26,
0.312,-0.45,0.15,0.81,-0.64,-0.80,-0.22,
0.312,-0.44,0.54,1.44,-0.64,-0.80,-0.22,
0.312,-0.44,0.54,1.44,-0.63,-0.82,-0.19,
0.313,-0.44,0.54,1.44,-0.63,-0.84,-0.15,
0.315,-0.44,0.54,1.44,-0.62,-0.86,-0.11,
0.317,-0.44,0.54,1.44,-0.62,-0.87,-0.07,
0.318,-0.44,0.54,1.44,-0.62,-0.89,-0.04,
0.322,-0.17,0.92,1.86,-0.62,-0.89,-0.04,
0.322,-0.17,0.92,1.86,-0.61,-0.91,0.02,
0.322,-0.17,0.92,1.86,-0.61,-0.91,0.03,
0.325,-0.17,0.92,1.86,-0.60,-0.92,0.07,
0.328,-0.17,0.92,1.86,-0.59,-0.93,0.10,
0.329,-0.17,0.92,1.86,-0.58,-0.93,0.13,
0.332,0.62,1.24,2.32,-0.58,-0.93,0.13,
0.332,0.62,1.24,2.32,-0.57,-0.93,0.16,
0.347,0.62,1.24,2.32,-0.55,-0.93,0.18,
0.347,0.62,1.24,2.32,-0.53,-0.93,0.19,
0.348,0.62,1.24,2.32,-0.51,-0.95,0.20,
0.348,0.62,1.24,2.32,-0.49,-0.96,0.21,
0.348,1.51,1.30,2.42,-0.49,-0.96,0.21,
0.348,1.51,1.30,2.42,-0.47,-0.98,0.21,
0.348,1.51,1.30,2.42,-0.46,-1.01,0.20,
0.348,1.51,1.30,2.42,-0.44,-1.03,0.19,
0.349,1.51,1.30,2.42,-0.41,-1.06,0.17,
0.349,1.51,1.30,2.42,-0.39,-1.08,0.16,
0.361,2.34,1.09,2.12,-0.39,-1.08,0.16,
0.361,2.34,1.09,2.12,-0.37,-1.10,0.13,
0.361,2.34,1.09,2.12,-0.35,-1.13,0.11,
0.361,2.34,1.09,2.12,-0.33,-1.14,0.08,
0.362,2.34,1.09,2.12,-0.30,-1.16,0.05,
0.362,2.34,1.09,2.12,-0.28,-1.17,0.03,
0.362,2.91,0.90,1.74,-0.28,-1.17,0.03,
0.362,2.91,0.90,1.74,-0.25,-1.19,-0.00,
0.364,2.91,0.90,1.74,-0.23,-1.20,-0.03,
0.374,2.91,0.90,1.74,-0.21,-1.21,-0.06,
0.375,2.91,0.90,1.74,-0.19,-1.23,-0.08,
0.375,2.91,0.90,1.74,-0.17,-1.24,-0.11,
0.375,3.17,0.74,1.25,-0.17,-1.24,-0.11,
0.375,3.17,0.74,1.25,-0.15,-1.25,-0.13,
0.375,3.17,0.74,1.25,-0.13,-1.26,-0.16,
0.375,3.17,0.74,1.25,-0.12,-1.28,-0.18,
0.381,3.17,0.74,1.25,-0.12,-1.29,-0.20,
0.381,3.17,0.74,1.25,-0.11,-1.30,-0.22,
0.381,3.04,0.62,0.54,-0.11,-1.30,-0.22,
0.382,3.04,0.62,0.54,-0.11,-1.32,-0.24,
0.382,3.04,0.62,0.54,-0.12,-1.33,-0.26,
0.385,3.04,0.62,0.54,-0.13,-1.34,-0.27,
0.407,3.04,0.62,0.54,-0.15,-1.35,-0.27,
0.407,3.04,0.62,0.54,-0.17,-1.37,-0.28,
0.407,3.12,0.54,-0.09,-0.17,-1.37,-0.28,
0.407,3.12,0.54,-0.09,-0.19,-1.38,-0.27,
0.408,3.12,0.54,-0.09,-0.22,-1.41,-0.26,
0.408,3.12,0.54,-0.09,-0.26,-1.44,-0.24,
0.408,3.12,0.54,-0.09,-0.31,-1.47,-0.22,
0.408,3.12,0.54,-0.09,-0.35,-1.52,-0.19,
0.408,3.02,0.36,-0.81,-0.35,-1.52,-0.19,
0.409,3.02,0.36,-0.81,-0.40,-1.57,-0.16,
0.409,3.02,0.36,-0.81,-0.45,-1.62,-0.12,
0.409,3.02,0.36,-0.81,-0.51,-1.68,-0.08,
0.409,3.02,0.36,-0.81,-0.57,-1.71,-0.05,
0.41,3.02,0.36,-0.81,-0.63,-1.74,-0.03,
0.414,3.11,0.45,-1.66,-0.63,-1.74,-0.03,
0.414,3.11,0.45,-1.66,-0.68,-1.75,-0.02,
0.414,3.11,0.45,-1.66,-0.74,-1.75,-0.03,
0.415,3.11,0.45,-1.66,-0.79,-1.74,-0.05,
0.416,3.11,0.45,-1.66,-0.84,-1.70,-0.09,
0.419,3.11,0.45,-1.66,-0.87,-1.64,-0.16,
0.421,3.39,0.96,-1.94,-0.87,-1.64,-0.16,
0.421,3.39,0.96,-1.94,-0.89,-1.55,-0.24,
0.422,3.39,0.96,-1.94,-0.91,-1.46,-0.34,
0.425,3.39,0.96,-1.94,-0.91,-1.35,-0.46,
0.427,3.39,0.96,-1.94,-0.92,-1.22,-0.60,
0.429,3.39,0.96,-1.94,-0.91,-1.07,-0.75,
0.431,3.68,1.48,-1.84,-0.91,-1.07,-0.75,
0.431,3.68,1.48,-1.84,-0.90,-0.92,-0.92,
0.432,3.68,1.48,-1.84,-0.89,-0.77,-1.09,
0.434,3.68,1.48,-1.84,-0.87,-0.62,-1.27,
0.436,3.68,1.48,-1.84,-0.85,-0.46,-1.44,
0.438,3.68,1.48,-1.84,-0.82,-0.32,-1.62,
0.441,3.38,1.45,-1.49,-0.82,-0.32,-1.62,
0.441,3.38,1.45,-1.49,-0.79,-0.19,-1.78,
0.443,3.38,1.45,-1.49,-0.76,-0.08,-1.93,
0.445,3.38,1.45,-1.49,-0.72,0.03,-2.06,
0.446,3.38,1.45,-1.49,-0.68,0.11,-2.17,
0.448,3.38,1.45,-1.49,-0.66,0.17,-2.26,
0.451,2.30,1.07,-0.93,-0.66,0.17,-2.26,
0.451,2.30,1.07,-0.93,-0.62,0.22,-2.33,
0.452,2.30,1.07,-0.93,-0.58,0.26,-2.37,
0.455,2.30,1.07,-0.93,-0.55,0.28,-2.39,
0.457,2.30,1.07,-0.93,-0.53,0.29,-2.39,
0.459,2.30,1.07,-0.93,-0.51,0.29,-2.38,
0.461,0.59,0.52,-0.69,-0.51,0.29,-2.38,
0.461,0.59,0.52,-0.69,-0.50,0.29,-2.35,
0.462,0.59,0.52,-0.69,-0.49,0.28,-2.32,
0.465,0.59,0.52,-0.69,-0.49,0.27,-2.28,
0.467,0.59,0.52,-0.69,-0.49,0.25,-2.24,
0.468,0.59,0.52,-0.69,-0.50,0.23,-2.19,
0.471,-0.44,0.01,-1.28,-0.50,0.23,-2.19,
0.471,-0.44,0.01,-1.28,-0.51,0.21,-2.14,
0.472,-0.44,0.01,-1.28,-0.52,0.20,-2.09,
0.475,-0.44,0.01,-1.28,-0.54,0.17,-2.05,
0.477,-0.44,0.01,-1.28,-0.56,0.14,-2.01,
0.478,-0.44,0.01,-1.28,-0.58,0.11,-1.98,
0.481,-0.55,-0.51,-1.99,-0.58,0.11,-1.98,
0.481,-0.55,-0.51,-1.99,-0.60,0.07,-1.95,
0.482,-0.55,-0.51,-1.99,-0.62,0.02,-1.92,
0.484,-0.55,-0.51,-1.99,-0.64,-0.04,-1.89,
0.487,-0.55,-0.51,-1.99,-0.65,-0.11,-1.86,
0.489,-0.55,-0.51,-1.99,-0.67,-0.18,-1.84,
0.493,-0.33,-0.82,-2.16,-0.67,-0.18,-1.84,
0.493,-0.33,-0.82,-2.16,-0.69,-0.25,-1.82,
0.493,-0.33,-0.82,-2.16,-0.69,-0.32,-1.79,
0.495,-0.33,-0.82,-2.16,-0.70,-0.39,-1.77,
0.497,-0.33,-0.82,-2.16,-0.69,-0.46,-1.75,
0.499,-0.33,-0.82,-2.16,-0.68,-0.53,-1.73,
0.51,-0.37,-0.65,-1.42,-0.68,-0.53,-1.73,
0.51,-0.37,-0.65,-1.42,-0.67,-0.60,-1.71,
0.51,-0.37,-0.65,-1.42,-0.65,-0.67,-1.69,
0.511,-0.37,-0.65,-1.42,-0.62,-0.73,-1.68,
0.511,-0.37,-0.65,-1.42,-0.59,-0.80,-1.66,
0.511,-0.37,-0.65,-1.42,-0.56,-0.86,-1.65,
0.513,-0.43,-0.43,-0.29,-0.56,-0.86,-1.65,
0.513,-0.43,-0.43,-0.29,-0.51,-0.92,-1.63,
0.514,-0.43,-0.43,-0.29,-0.47,-1.00,-1.62,
0.516,-0.43,-0.43,-0.29,-0.41,-1.08,-1.61,
0.516,-0.43,-0.43,-0.29,-0.35,-1.15,-1.60,
0.518,-0.43,-0.43,-0.29,-0.30,-1.22,-1.60,
0.521,-0.28,-0.47,0.65,-0.30,-1.22,-1.60,
0.521,-0.28,-0.47,0.65,-0.24,-1.30,-1.59,
0.523,-0.28,-0.47,0.65,-0.17,-1.37,-1.59,
0.525,-0.28,-0.47,0.65,-0.10,-1.45,-1.59,
0.527,-0.28,-0.47,0.65,-0.03,-1.52,-1.58,
0.529,-0.28,-0.47,0.65,0.04,-1.59,-1.58,
0.531,-0.27,-0.72,1.20,0.04,-1.59,-1.58,
0.531,-0.27,-0.72,1.20,0.11,-1.66,-1.57,
0.533,-0.27,-0.72,1.20,0.18,-1.72,-1.57,
0.535,-0.27,-0.72,1.20,0.25,-1.78,-1.56,
0.537,-0.27,-0.72,1.20,0.31,-1.83,-1.56,
0.538,-0.27,-0.72,1.20,0.38,-1.88,-1.55,
0.541,-0.38,-0.97,1.33,0.38,-1.88,-1.55,
0.542,-0.38,-0.97,1.33,0.45,-1.94,-1.55,
0.543,-0.38,-0.97,1.33,0.50,-2.01,-1.54,
0.545,-0.38,-0.97,1.33,0.55,-2.08,-1.54,
0.547,-0.38,-0.97,1.33,0.59,-2.15,-1.54,
0.548,-0.38,-0.97,1.33,0.63,-2.21,-1.54,
0.551,-0.41,-1.10,0.96,0.63,-2.21,-1.54,
0.551,-0.41,-1.10,0.96,0.65,-2.27,-1.53,
0.573,-0.41,-1.10,0.96,0.66,-2.31,-1.53,
0.574,-0.41,-1.10,0.96,0.66,-2.34,-1.53,
0.574,-0.41,-1.10,0.96,0.66,-2.37,-1.53,
0.574,-0.41,-1.10,0.96,0.66,-2.38,-1.54,
0.574,-0.30,-0.91,0.32,0.66,-2.38,-1.54,
0.574,-0.30,-0.91,0.32,0.65,-2.39,-1.54,
0.575,-0.30,-0.91,0.32,0.63,-2.39,-1.54,
0.575,-0.30,-0.91,0.32,0.62,-2.38,-1.55,
0.575,-0.30,-0.91,0.32,0.60,-2.36,-1.56,
0.575,-0.30,-0.91,0.32,0.54,-2.34,-1.57,
0.575,-0.19,-0.73,-0.12,0.54,-2.34,-1.57,
0.576,-0.19,-0.73,-0.12,0.50,-2.30,-1.58,
0.576,-0.19,-0.73,-0.12,0.46,-2.24,-1.58,
0.576,-0.19,-0.73,-0.12,0.40,-2.18,-1.59,
0.581,-0.19,-0.73,-0.12,0.35,-2.11,-1.59,
0.581,-0.19,-0.73,-0.12,0.30,-2.03,-1.60,
0.581,-0.22,-0.72,-0.47,0.30,-2.03,-1.60,
0.581,-0.22,-0.72,-0.47,0.25,-1.95,-1.60,
0.583,-0.22,-0.72,-0.47,0.21,-1.86,-1.59,
0.585,-0.22,-0.72,-0.47,0.17,-1.78,-1.59,
0.587,-0.22,-0.72,-0.47,0.13,-1.69,-1.58,
0.589,-0.22,-0.72,-0.47,0.10,-1.61,-1.56,
0.597,-0.52,-1.03,-0.30,0.10,-1.61,-1.56,
0.598,-0.52,-1.03,-0.30,0.07,-1.54,-1.55,
0.598,-0.52,-1.03,-0.30,0.04,-1.47,-1.53,
0.598,-0.52,-1.03,-0.30,0.02,-1.41,-1.51,
0.598,-0.52,-1.03,-0.30,0.00,-1.34,-1.49,
0.6,-0.52,-1.03,-0.30,-0.02,-1.29,-1.47,
0.601,-0.72,-0.99,-0.12,-0.02,-1.29,-1.47,
0.601,-0.72,-0.99,-0.12,-0.04,-1.23,-1.45,
0.603,-0.72,-0.99,-0.12,-0.06,-1.19,-1.43,
0.605,-0.72,-0.99,-0.12,-0.07,-1.14,-1.41,
0.617,-0.72,-0.99,-0.12,-0.10,-1.10,-1.39,
0.618,-0.72,-0.99,-0.12,-0.11,-1.07,-1.37,
0.618,-0.62,-0.72,-0.12,-0.11,-1.07,-1.37,
0.618,-0.62,-0.72,-0.12,-0.13,-1.03,-1.35,
0.618,-0.62,-0.72,-0.12,-0.16,-1.00,-1.34,
0.618,-0.62,-0.72,-0.12,-0.18,-0.96,-1.33,
0.619,-0.62,-0.72,-0.12,-0.20,-0.92,-1.32,
0.619,-0.62,-0.72,-0.12,-0.23,-0.87,-1.31,
0.621,-0.27,-0.47,-0.28,-0.23,-0.87,-1.31,
0.621,-0.27,-0.47,-0.28,-0.25,-0.83,-1.30,
0.629,-0.27,-0.47,-0.28,-0.27,-0.78,-1.29,
0.63,-0.27,-0.47,-0.28,-0.29,-0.73,-1.29,
0.63,-0.27,-0.47,-0.28,-0.31,-0.67,-1.29,
0.63,-0.27,-0.47,-0.28,-0.33,-0.62,-1.29,
0.633,0.01,-0.39,-0.32,-0.33,-0.62,-1.29,
0.653,0.01,-0.39,-0.32,-0.35,-0.57,-1.29,
0.654,0.01,-0.39,-0.32,-0.36,-0.53,-1.29,
0.654,0.01,-0.39,-0.32,-0.38,-0.49,-1.29,
0.654,0.01,-0.39,-0.32,-0.39,-0.45,-1.29,
0.654,0.01,-0.39,-0.32,-0.40,-0.41,-1.29,
0.654,-0.01,-0.31,-0.27,-0.40,-0.41,-1.29,
0.655,-0.01,-0.31,-0.27,-0.41,-0.37,-1.29,
0.655,-0.01,-0.31,-0.27,-0.42,-0.34,-1.30,
0.655,-0.01,-0.31,-0.27,-0.42,-0.31,-1.30,
0.655,-0.01,-0.31,-0.27,-0.43,-0.28,-1.30,
0.655,-0.01,-0.31,-0.27,-0.42,-0.25,-1.30,
0.655,-0.15,-0.25,-0.18,-0.42,-0.25,-1.30,
0.656,-0.15,-0.25,-0.18,-0.42,-0.22,-1.30,
0.656,-0.15,-0.25,-0.18,-0.42,-0.20,-1.30,
0.656,-0.15,-0.25,-0.18,-0.42,-0.17,-1.29,
0.66,-0.15,-0.25,-0.18,-0.41,-0.15,-1.29,
0.66,-0.15,-0.25,-0.18,-0.40,-0.13,-1.29,
0.661,-0.40,-0.19,-0.18,-0.40,-0.13,-1.29,
0.662,-0.40,-0.19,-0.18,-0.40,-0.12,-1.29,
0.662,-0.40,-0.19,-0.18,-0.39,-0.11,-1.29,
0.665,-0.40,-0.19,-0.18,-0.38,-0.11,-1.28,
0.681,-0.40,-0.19,-0.18,-0.38,-0.11,-1.28,
0.682,-0.40,-0.19,-0.18,-0.37,-0.11,-1.28,
0.682,-0.68,-0.18,-0.22,-0.37,-0.11,-1.28,
0.682,-0.68,-0.18,-0.22,-0.36,-0.12,-1.28,
0.682,-0.68,-0.18,-0.22,-0.35,-0.12,-1.27,
0.682,-0.68,-0.18,-0.22,-0.33,-0.13,-1.27,
0.682,-0.68,-0.18,-0.22,-0.32,-0.12,-1.26,
0.682,-0.68,-0.18,-0.22,-0.32,-0.13,-1.26,
0.687,-0.93,-0.16,-0.13,-0.32,-0.13,-1.26,
0.687,-0.93,-0.16,-0.13,-0.30,-0.13,-1.25,
0.687,-0.93,-0.16,-0.13,-0.28,-0.13,-1.25,
0.687,-0.93,-0.16,-0.13,-0.27,-0.14,-1.24,
0.688,-0.93,-0.16,-0.13,-0.25,-0.14,-1.23,
0.69,-0.93,-0.16,-0.13,-0.24,-0.14,-1.22,
0.691,-1.11,-0.16,-0.13,-0.24,-0.14,-1.22,
0.691,-1.11,-0.16,-0.13,-0.23,-0.15,-1.21,
0.692,-1.11,-0.16,-0.13,-0.22,-0.15,-1.20,
0.695,-1.11,-0.16,-0.13,-0.21,-0.16,-1.19,
0.696,-1.11,-0.16,-0.13,-0.19,-0.16,-1.18,
0.698,-1.11,-0.16,-0.13,-0.18,-0.16,-1.17,
0.702,-1.05,-0.14,-0.20,-0.18,-0.16,-1.17,
0.702,-1.05,-0.14,-0.20,-0.17,-0.16,-1.16,
0.703,-1.05,-0.14,-0.20,-0.16,-0.15,-1.14,
0.706,-1.05,-0.14,-0.20,-0.15,-0.14,-1.13,
0.709,-1.05,-0.14,-0.20,-0.14,-0.13,-1.12,
0.712,-1.05,-0.14,-0.20,-0.12,-0.12,-1.11,
0.713,-1.06,-0.12,-0.18,-0.12,-0.12,-1.11,
0.713,-1.06,-0.12,-0.18,-0.11,-0.11,-1.10,
0.713,-1.06,-0.12,-0.18,-0.10,-0.10,-1.08,
0.715,-1.06,-0.12,-0.18,-0.08,-0.09,-1.07,
0.717,-1.06,-0.12,-0.18,-0.07,-0.08,-1.06,
0.721,-1.06,-0.12,-0.18,-0.05,-0.07,-1.05,
0.742,-1.07,0.00,-0.19,-0.05,-0.07,-1.05,
0.743,-1.07,0.00,-0.19,-0.04,-0.06,-1.04,
0.743,-1.07,0.00,-0.19,-0.03,-0.05,-1.03,
0.743,-1.07,0.00,-0.19,-0.02,-0.05,-1.02,
0.743,-1.07,0.00,-0.19,-0.01,-0.05,-1.00,
0.743,-1.07,0.00,-0.19,-0.00,-0.06,-1.00,
0.743,-1.06,0.18,-0.33,-0.00,-0.06,-1.00,
0.744,-1.06,0.18,-0.33,0.00,-0.07,-0.99,
0.744,-1.06,0.18,-0.33,0.01,-0.08,-0.98,
0.744,-1.06,0.18,-0.33,0.02,-0.10,-0.97,
0.744,-1.06,0.18,-0.33,0.02,-0.11,-0.96,
0.744,-1.06,0.18,-0.33,0.02,-0.13,-0.96,
0.744,-1.04,0.31,-0.46,0.02,-0.13,-0.96,
0.745,-1.04,0.31,-0.46,0.03,-0.14,-0.95,
0.745,-1.04,0.31,-0.46,0.03,-0.16,-0.95,
0.745,-1.04,0.31,-0.46,0.04,-0.16,-0.95,
0.748,-1.04,0.31,-0.46,0.04,-0.17,-0.94,
0.749,-1.04,0.31,-0.46,0.05,-0.17,-0.94,
0.751,-1.12,0.39,-0.44,0.05,-0.17,-0.94,
0.752,-1.12,0.39,-0.44,0.05,-0.17,-0.94,
0.753,-1.12,0.39,-0.44,0.06,-0.16,-0.93,
0.754,-1.12,0.39,-0.44,0.06,-0.15,-0.92,
0.759,-1.12,0.39,-0.44,0.07,-0.14,-0.92,
0.759,-1.12,0.39,-0.44,0.08,-0.12,-0.91,
0.769,-1.26,0.53,-0.37,0.08,-0.12,-0.91,
0.769,-1.26,0.53,-0.37,0.08,-0.11,-0.90,
0.769,-1.26,0.53,-0.37,0.09,-0.09,-0.90,
0.769,-1.26,0.53,-0.37,0.09,-0.08,-0.90,
0.769,-1.26,0.53,-0.37,0.10,-0.06,-0.90,
0.771,-1.26,0.53,-0.37,0.10,-0.05,-0.89,
0.772,-1.13,0.45,-0.44,0.10,-0.05,-0.89,
0.772,-1.13,0.45,-0.44,0.10,-0.03,-0.89,
0.773,-1.13,0.45,-0.44,0.10,-0.02,-0.89,
0.775,-1.13,0.45,-0.44,0.10,-0.01,-0.89,
0.777,-1.13,0.45,-0.44,0.10,-0.00,-0.89,
0.779,-1.13,0.45,-0.44,0.10,0.00,-0.88,
0.781,-1.00,0.34,-0.59,0.10,0.00,-0.88,
0.782,-1.00,0.34,-0.59,0.09,0.01,-0.88,
0.783,-1.00,0.34,-0.59,0.08,0.01,-0.88,
0.785,-1.00,0.34,-0.59,0.08,0.01,-0.87,
0.786,-1.00,0.34,-0.59,0.07,0.01,-0.87,
0.789,-1.00,0.34,-0.59,0.07,0.01,-0.86,
0.792,-1.00,0.36,-0.54,0.07,0.01,-0.86,
0.792,-1.00,0.36,-0.54,0.06,0.00,-0.85,
0.793,-1.00,0.36,-0.54,0.06,-0.00,-0.85,
0.794,-1.00,0.36,-0.54,0.06,-0.01,-0.84,
0.796,-1.00,0.36,-0.54,0.07,-0.02,-0.83,
0.798,-1.00,0.36,-0.54,0.07,-0.03,-0.82,
0.801,-1.02,0.43,-0.34,0.07,-0.03,-0.82,
0.801,-1.02,0.43,-0.34,0.07,-0.03,-0.81,
0.802,-1.02,0.43,-0.34,0.07,-0.04,-0.80,
0.805,-1.02,0.43,-0.34,0.07,-0.05,-0.79,
0.807,-1.02,0.43,-0.34,0.08,-0.06,-0.78,
0.809,-1.02,0.43,-0.34,0.08,-0.08,-0.77,
0.811,-0.93,0.47,-0.09,0.08,-0.08,-0.77,
0.811,-0.93,0.47,-0.09,0.09,-0.09,-0.77,
0.812,-0.93,0.47,-0.09,0.10,-0.10,-0.76,
0.815,-0.93,0.47,-0.09,0.10,-0.11,-0.75,
0.816,-0.93,0.47,-0.09,0.11,-0.12,-0.74,
0.818,-0.93,0.47,-0.09,0.12,-0.13,-0.74,
0.821,-0.89,0.45,0.12,0.12,-0.13,-0.74,
0.821,-0.89,0.45,0.12,0.12,-0.14,-0.73,
0.823,-0.89,0.45,0.12,0.13,-0.15,-0.72,
0.825,-0.89,0.45,0.12,0.14,-0.16,-0.71,
0.827,-0.89,0.45,0.12,0.14,-0.17,-0.69,
0.828,-0.89,0.45,0.12,0.14,-0.19,-0.68,
0.831,-1.02,0.39,0.19,0.14,-0.19,-0.68,
0.831,-1.02,0.39,0.19,0.14,-0.20,-0.66,
0.845,-1.02,0.39,0.19,0.15,-0.21,-0.64,
0.845,-1.02,0.39,0.19,0.15,-0.22,-0.62,
0.845,-1.02,0.39,0.19,0.14,-0.23,-0.60,
0.845,-1.02,0.39,0.19,0.14,-0.24,-0.58,
0.845,-1.13,0.36,0.15,0.14,-0.24,-0.58,
0.845,-1.13,0.36,0.15,0.13,-0.25,-0.56,
0.846,-1.13,0.36,0.15,0.13,-0.25,-0.53,
0.846,-1.13,0.36,0.15,0.12,-0.26,-0.51,
0.85,-1.13,0.36,0.15,0.11,-0.25,-0.49,
0.85,-1.13,0.36,0.15,0.10,-0.25,-0.46,
0.851,-1.23,0.38,0.14,0.10,-0.25,-0.46,
0.851,-1.23,0.38,0.14,0.10,-0.25,-0.44,
0.853,-1.23,0.38,0.14,0.09,-0.24,-0.41,
0.855,-1.23,0.38,0.14,0.08,-0.23,-0.38,
0.857,-1.23,0.38,0.14,0.08,-0.23,-0.35,
0.859,-1.23,0.38,0.14,0.07,-0.22,-0.32,
0.861,-1.33,0.31,0.33,0.07,-0.22,-0.32,
0.861,-1.33,0.31,0.33,0.07,-0.20,-0.29,
0.862,-1.33,0.31,0.33,0.06,-0.19,-0.25,
0.865,-1.33,0.31,0.33,0.06,-0.17,-0.22,
0.866,-1.33,0.31,0.33,0.06,-0.15,-0.18,
0.868,-1.33,0.31,0.33,0.05,-0.13,-0.14,
0.871,-1.50,0.23,0.47,0.05,-0.13,-0.14,
0.872,-1.50,0.23,0.47,0.05,-0.11,-0.09,
0.873,-1.50,0.23,0.47,0.04,-0.10,-0.05,
0.875,-1.50,0.23,0.47,0.03,-0.09,-0.01,
0.877,-1.50,0.23,0.47,0.02,-0.08,0.04,
0.878,-1.50,0.23,0.47,0.02,-0.09,0.08,
0.881,-1.47,0.08,0.26,0.02,-0.09,0.08,
0.881,-1.47,0.08,0.26,0.00,-0.10,0.13,
0.882,-1.47,0.08,0.26,-0.01,-0.12,0.17,
0.885,-1.47,0.08,0.26,-0.03,-0.14,0.21,
0.906,-1.47,0.08,0.26,-0.05,-0.16,0.24,
0.906,-1.47,0.08,0.26,-0.07,-0.17,0.28,
0.906,-1.22,0.14,0.17,-0.07,-0.17,0.28,
0.906,-1.22,0.14,0.17,-0.09,-0.18,0.30,
0.906,-1.22,0.14,0.17,-0.10,-0.19,0.31,
0.907,-1.22,0.14,0.17,-0.12,-0.18,0.33,
0.907,-1.22,0.14,0.17,-0.14,-0.17,0.34,
0.907,-1.22,0.14,0.17,-0.15,-0.15,0.34,
0.907,-0.65,0.67,0.49,-0.15,-0.15,0.34,
0.907,-0.65,0.67,0.49,-0.16,-0.14,0.33,
0.908,-0.65,0.67,0.49,-0.17,-0.12,0.33,
0.908,-0.65,0.67,0.49,-0.17,-0.10,0.32,
0.908,-0.65,0.67,0.49,-0.17,-0.08,0.31,
0.912,-0.65,0.67,0.49,-0.17,-0.07,0.30,
0.913,-0.21,0.97,0.73,-0.17,-0.07,0.30,
0.913,-0.21,0.97,0.73,-0.16,-0.06,0.28,
0.913,-0.21,0.97,0.73,-0.16,-0.05,0.26,
0.915,-0.21,0.97,0.73,-0.15,-0.04,0.24,
0.917,-0.21,0.97,0.73,-0.14,-0.04,0.21,
0.919,-0.21,0.97,0.73,-0.13,-0.03,0.19,
0.926,0.15,0.97,0.80,-0.13,-0.03,0.19,
0.926,0.15,0.97,0.80,-0.12,-0.03,0.16,
0.926,0.15,0.97,0.80,-0.10,-0.04,0.14,
0.926,0.15,0.97,0.80,-0.09,-0.03,0.12,
0.926,0.15,0.97,0.80,-0.07,-0.03,0.09,
0.934,0.15,0.97,0.80,-0.05,-0.03,0.07,
0.935,0.18,0.96,0.91,-0.05,-0.03,0.07,
0.936,0.18,0.96,0.91,-0.04,-0.01,0.05,
0.936,0.18,0.96,0.91,-0.01,0.00,0.03,
0.936,0.18,0.96,0.91,0.00,0.02,0.01,
0.937,0.18,0.96,0.91,0.02,0.05,-0.01,
0.945,0.18,0.96,0.91,0.04,0.07,-0.02,
0.945,-0.05,0.94,0.85,0.04,0.07,-0.02,
0.945,-0.05,0.94,0.85,0.06,0.10,-0.04,
0.945,-0.05,0.94,0.85,0.07,0.14,-0.05,
0.945,-0.05,0.94,0.85,0.09,0.17,-0.06,
0.947,-0.05,0.94,0.85,0.10,0.20,-0.06,
0.948,-0.05,0.94,0.85,0.11,0.23,-0.06,
0.951,-0.47,0.89,0.49,0.11,0.23,-0.06,
0.951,-0.47,0.89,0.49,0.11,0.26,-0.06,
0.952,-0.47,0.89,0.49,0.12,0.28,-0.06,
0.955,-0.47,0.89,0.49,0.12,0.29,-0.06,
0.957,-0.47,0.89,0.49,0.12,0.30,-0.05,
0.959,-0.47,0.89,0.49,0.11,0.31,-0.05,
0.961,-0.86,0.74,0.03,0.11,0.31,-0.05,
0.961,-0.86,0.74,0.03,0.11,0.31,-0.04,
0.962,-0.86,0.74,0.03,0.10,0.31,-0.03,
0.964,-0.86,0.74,0.03,0.09,0.31,-0.02,
0.966,-0.86,0.74,0.03,0.07,0.30,-0.01,
0.972,-0.86,0.74,0.03,0.06,0.28,0.01,
0.972,-1.16,0.60,-0.19,0.06,0.28,0.01,
0.972,-1.16,0.60,-0.19,0.04,0.27,0.01,
0.972,-1.16,0.60,-0.19,0.03,0.24,0.03,
0.974,-1.16,0.60,-0.19,0.01,0.22,0.04,
0.976,-1.16,0.60,-0.19,-0.00,0.19,0.04,
0.978,-1.16,0.60,-0.19,-0.02,0.16,0.05,
0.981,-0.89,0.32,0.11,-0.02,0.16,0.05,
0.981,-0.89,0.32,0.11,-0.03,0.13,0.06,
0.984,-0.89,0.32,0.11,-0.04,0.10,0.07,
0.987,-0.89,0.32,0.11,-0.05,0.08,0.08,
0.987,-0.89,0.32,0.11,-0.06,0.05,0.09,
0.988,-0.89,0.32,0.11,-0.06,0.03,0.09,
0.992,-0.58,0.10,0.82,-0.06,0.03,0.09,
0.992,-0.58,0.10,0.82,-0.07,0.01,0.10,
0.993,-0.58,0.10,0.82,-0.07,-0.00,0.11,
0.995,-0.58,0.10,0.82,-0.07,-0.01,0.12,
0.996,-0.58,0.10,0.82,-0.06,-0.02,0.13,
0.998,-0.58,0.10,0.82,-0.06,-0.02,0.14,
1.009,-0.42,0.08,1.49,-0.06,-0.02,0.14,
1.009,-0.42,0.08,1.49,-0.05,-0.01,0.15,
1.01,-0.42,0.08,1.49,-0.05,0.00,0.16,
1.01,-0.42,0.08,1.49,-0.04,0.02,0.17,
1.01,-0.42,0.08,1.49,-0.03,0.04,0.18,
1.01,-0.42,0.08,1.49,-0.02,0.06,0.19,
1.011,-0.38,0.10,1.96,-0.02,0.06,0.19,
1.011,-0.38,0.10,1.96,-0.02,0.09,0.19,
1.013,-0.38,0.10,1.96,-0.01,0.12,0.20,
1.015,-0.38,0.10,1.96,-0.00,0.15,0.20,
1.016,-0.38,0.10,1.96,0.00,0.18,0.21,
1.019,-0.38,0.10,1.96,0.01,0.20,0.21,
1.021,-0.30,0.02,2.14,0.01,0.20,0.21,
1.021,-0.30,0.02,2.14,0.02,0.24,0.22,
1.023,-0.30,0.02,2.14,0.03,0.26,0.22,
1.025,-0.30,0.02,2.14,0.03,0.27,0.22,
1.026,-0.30,0.02,2.14,0.04,0.29,0.22,
1.028,-0.30,0.02,2.14,0.05,0.31,0.23,
1.031,-0.25,-0.01,2.16,0.05,0.31,0.23,
1.031,-0.25,-0.01,2.16,0.06,0.32,0.23,
1.033,-0.25,-0.01,2.16,0.07,0.33,0.23,
1.035,-0.25,-0.01,2.16,0.08,0.35,0.23,
1.037,-0.25,-0.01,2.16,0.10,0.36,0.23,
1.04,-0.25,-0.01,2.16,0.11,0.37,0.24,
1.041,-0.26,0.13,2.17,0.11,0.37,0.24,
1.042,-0.26,0.13,2.17,0.13,0.39,0.24,
1.042,-0.26,0.13,2.17,0.14,0.40,0.24,
1.049,-0.26,0.13,2.17,0.16,0.42,0.25,
1.05,-0.26,0.13,2.17,0.17,0.44,0.25,
1.051,-0.26,0.13,2.17,0.18,0.46,0.25,
1.071,-0.22,0.27,1.98,0.18,0.46,0.25,
1.071,-0.22,0.27,1.98,0.20,0.48,0.25,
1.071,-0.22,0.27,1.98,0.21,0.49,0.25,
1.072,-0.22,0.27,1.98,0.22,0.50,0.25,
1.072,-0.22,0.27,1.98,0.24,0.52,0.26,
1.072,-0.22,0.27,1.98,0.25,0.53,0.26,
1.072,-0.15,0.38,1.71,0.25,0.53,0.26,
1.073,-0.15,0.38,1.71,0.26,0.53,0.26,
1.073,-0.15,0.38,1.71,0.27,0.53,0.25,
1.073,-0.15,0.38,1.71,0.28,0.53,0.25,
1.074,-0.15,0.38,1.71,0.29,0.53,0.25,
1.074,-0.15,0.38,1.71,0.30,0.52,0.25,
1.074,-0.16,0.58,1.50,0.30,0.52,0.25,
1.074,-0.16,0.58,1.50,0.30,0.52,0.25,
1.075,-0.16,0.58,1.50,0.31,0.51,0.24,
1.075,-0.16,0.58,1.50,0.32,0.50,0.24,
1.079,-0.16,0.58,1.50,0.32,0.49,0.24,
1.079,-0.16,0.58,1.50,0.32,0.48,0.23,
1.082,-0.06,0.46,1.28,0.32,0.48,0.23,
1.082,-0.06,0.46,1.28,0.32,0.46,0.22,
1.084,-0.06,0.46,1.28,0.32,0.44,0.21,
1.089,-0.06,0.46,1.28,0.32,0.42,0.19,
1.091,-0.06,0.46,1.28,0.31,0.39,0.18,
1.092,-0.06,0.46,1.28,0.31,0.37,0.17,
1.092,0.03,0.27,1.06,0.31,0.37,0.17,
1.093,0.03,0.27,1.06,0.30,0.35,0.16,
1.093,0.03,0.27,1.06,0.29,0.32,0.15,
1.095,0.03,0.27,1.06,0.29,0.30,0.14,
1.097,0.03,0.27,1.06,0.28,0.27,0.14,
1.099,0.03,0.27,1.06,0.27,0.24,0.13,
1.101,-0.13,0.32,1.06,0.27,0.24,0.13,
1.101,-0.13,0.32,1.06,0.26,0.22,0.13,
1.102,-0.13,0.32,1.06,0.25,0.19,0.12,
1.104,-0.13,0.32,1.06,0.24,0.16,0.12,
1.107,-0.13,0.32,1.06,0.24,0.14,0.12,
1.109,-0.13,0.32,1.06,0.23,0.11,0.11,
1.113,-0.19,0.25,1.22,0.23,0.11,0.11,
1.113,-0.19,0.25,1.22,0.23,0.09,0.11,
1.114,-0.19,0.25,1.22,0.22,0.07,0.11,
1.115,-0.19,0.25,1.22,0.22,0.06,0.10,
1.117,-0.19,0.25,1.22,0.22,0.05,0.10,
1.119,-0.19,0.25,1.22,0.22,0.04,0.10,
1.123,-0.12,0.19,1.48,0.22,0.04,0.10,
1.127,-0.12,0.19,1.48,0.22,0.01,0.10,
1.127,-0.12,0.19,1.48,0.22,0.01,0.10,
1.129,-0.12,0.19,1.48,0.22,-0.00,0.10,
1.129,-0.12,0.19,1.48,0.22,-0.01,0.09,
1.13,-0.12,0.19,1.48,0.22,-0.01,0.09,
1.132,0.05,0.12,1.70,0.22,-0.01,0.09,
1.132,0.05,0.12,1.70,0.22,-0.01,0.09,
1.133,0.05,0.12,1.70,0.22,-0.02,0.09,
1.135,0.05,0.12,1.70,0.22,-0.03,0.08,
1.138,0.05,0.12,1.70,0.22,-0.03,0.08,
1.14,0.05,0.12,1.70,0.22,-0.04,0.07,
1.142,0.28,0.05,1.74,0.22,-0.04,0.07,
1.142,0.28,0.05,1.74,0.22,-0.04,0.06,
1.143,0.28,0.05,1.74,0.21,-0.05,0.06,
1.145,0.28,0.05,1.74,0.21,-0.05,0.05,
1.147,0.28,0.05,1.74,0.21,-0.06,0.04,
1.15,0.28,0.05,1.74,0.20,-0.06,0.03,
1.151,0.47,0.00,1.72,0.20,-0.06,0.03,
1.151,0.47,0.00,1.72,0.20,-0.06,0.02,
1.154,0.47,0.00,1.72,0.20,-0.06,0.01,
1.157,0.47,0.00,1.72,0.20,-0.06,0.00,
1.157,0.47,0.00,1.72,0.19,-0.05,-0.01,
1.159,0.47,0.00,1.72,0.19,-0.05,-0.02,
1.162,0.55,-0.05,1.59,0.19,-0.05,-0.02,
1.162,0.55,-0.05,1.59,0.19,-0.03,-0.03,
1.165,0.55,-0.05,1.59,0.18,-0.02,-0.03,
1.166,0.55,-0.05,1.59,0.17,-0.01,-0.04,
1.183,0.55,-0.05,1.59,0.17,0.00,-0.05,
1.184,0.55,-0.05,1.59,0.16,0.02,-0.05,
1.184,0.60,-0.24,1.40,0.16,0.02,-0.05,
1.184,0.60,-0.24,1.40,0.16,0.04,-0.06,
1.184,0.60,-0.24,1.40,0.15,0.06,-0.07,
1.184,0.60,-0.24,1.40,0.14,0.08,-0.07,
1.185,0.60,-0.24,1.40,0.14,0.10,-0.08,
1.185,0.60,-0.24,1.40,0.13,0.12,-0.08,
1.185,0.48,-0.46,1.26,0.13,0.12,-0.08,
1.185,0.48,-0.46,1.26,0.12,0.14,-0.09,
1.196,0.48,-0.46,1.26,0.12,0.16,-0.09,
1.196,0.48,-0.46,1.26,0.11,0.18,-0.10,
1.196,0.48,-0.46,1.26,0.11,0.20,-0.10,
1.196,0.48,-0.46,1.26,0.11,0.22,-0.10,
1.196,0.27,-0.83,1.39,0.11,0.22,-0.10,
1.197,0.27,-0.83,1.39,0.11,0.24,-0.10,
1.197,0.27,-0.83,1.39,0.11,0.27,-0.11,
1.197,0.27,-0.83,1.39,0.12,0.28,-0.10,
1.198,0.27,-0.83,1.39,0.12,0.30,-0.11,
1.199,0.27,-0.83,1.39,0.13,0.32,-0.11,
1.202,-0.04,-1.21,1.56,0.13,0.32,-0.11,
1.202,-0.04,-1.21,1.56,0.15,0.33,-0.10,
1.216,-0.04,-1.21,1.56,0.16,0.35,-0.10,
1.216,-0.04,-1.21,1.56,0.18,0.36,-0.09,
1.216,-0.04,-1.21,1.56,0.20,0.38,-0.09,
1.216,-0.04,-1.21,1.56,0.22,0.39,-0.07,
1.217,-0.49,-1.53,1.67,0.22,0.39,-0.07,
1.217,-0.49,-1.53,1.67,0.25,0.41,-0.05,
1.217,-0.49,-1.53,1.67,0.27,0.42,-0.04,
1.217,-0.49,-1.53,1.67,0.29,0.44,-0.02,
1.217,-0.49,-1.53,1.67,0.32,0.45,0.01,
1.219,-0.49,-1.53,1.67,0.35,0.46,0.04,
1.238,-0.98,-1.62,1.49,0.35,0.46,0.04,
1.238,-0.98,-1.62,1.49,0.39,0.49,0.09,
1.238,-0.98,-1.62,1.49,0.41,0.50,0.11,
1.238,-0.98,-1.62,1.49,0.44,0.51,0.15,
1.238,-0.98,-1.62,1.49,0.48,0.53,0.19,
1.238,-0.98,-1.62,1.49,0.51,0.55,0.23,
1.239,-1.27,-1.62,1.06,0.51,0.55,0.23,
1.239,-1.27,-1.62,1.06,0.56,0.57,0.29,
1.239,-1.27,-1.62,1.06,0.57,0.58,0.31,
1.239,-1.27,-1.62,1.06,0.60,0.59,0.35,
1.239,-1.27,-1.62,1.06,0.63,0.60,0.39,
1.24,-1.27,-1.62,1.06,0.66,0.61,0.42,
1.243,-1.16,-1.57,0.32,0.66,0.61,0.42,
1.243,-1.16,-1.57,0.32,0.71,0.63,0.47,
1.244,-1.16,-1.57,0.32,0.72,0.63,0.49,
1.245,-1.16,-1.57,0.32,0.75,0.64,0.52,
1.247,-1.16,-1.57,0.32,0.77,0.64,0.55,
1.249,-1.16,-1.57,0.32,0.80,0.64,0.57,
1.251,-0.92,-1.57,-0.57,0.80,0.64,0.57,
1.251,-0.92,-1.57,-0.57,0.83,0.65,0.60,
1.254,-0.92,-1.57,-0.57,0.83,0.65,0.61,
1.255,-0.92,-1.57,-0.57,0.85,0.65,0.63,
1.257,-0.92,-1.57,-0.57,0.87,0.65,0.65,
1.258,-0.92,-1.57,-0.57,0.88,0.65,0.67,
1.261,-0.59,-1.44,-1.62,0.88,0.65,0.67,
1.261,-0.59,-1.44,-1.62,0.89,0.64,0.69,
1.262,-0.59,-1.44,-1.62,0.89,0.64,0.69,
1.264,-0.59,-1.44,-1.62,0.90,0.63,0.70,
1.266,-0.59,-1.44,-1.62,0.90,0.62,0.70,
1.269,-0.59,-1.44,-1.62,0.90,0.62,0.70,
1.271,-0.05,-0.95,-2.56,0.90,0.62,0.70,
1.272,-0.05,-0.95,-2.56,0.91,0.62,0.69,
1.273,-0.05,-0.95,-2.56,0.91,0.62,0.69,
1.275,-0.05,-0.95,-2.56,0.90,0.61,0.69,
1.277,-0.05,-0.95,-2.56,0.89,0.59,0.69,
1.279,-0.05,-0.95,-2.56,0.88,0.57,0.68,
1.281,0.28,-0.83,-3.33,0.88,0.57,0.68,
1.281,0.28,-0.83,-3.33,0.86,0.56,0.67,
1.282,0.28,-0.83,-3.33,0.84,0.53,0.67,
1.284,0.28,-0.83,-3.33,0.82,0.50,0.65,
1.289,0.28,-0.83,-3.33,0.78,0.46,0.63,
1.289,0.28,-0.83,-3.33,0.75,0.42,0.61,
1.291,0.79,-1.13,-4.03,0.75,0.42,0.61,
1.291,0.79,-1.13,-4.03,0.72,0.38,0.59,
1.293,0.79,-1.13,-4.03,0.68,0.34,0.56,
1.295,0.79,-1.13,-4.03,0.64,0.30,0.54,
1.297,0.79,-1.13,-4.03,0.62,0.25,0.52,
1.299,0.79,-1.13,-4.03,0.55,0.21,0.49,
1.301,1.00,-1.17,-4.59,0.55,0.21,0.49,
1.301,1.00,-1.17,-4.59,0.49,0.17,0.47,
1.303,1.00,-1.17,-4.59,0.45,0.14,0.44,
1.304,1.00,-1.17,-4.59,0.40,0.11,0.42,
1.307,1.00,-1.17,-4.59,0.35,0.08,0.41,
1.308,1.00,-1.17,-4.59,0.30,0.06,0.39,
1.311,0.80,-0.89,-4.74,0.30,0.06,0.39,
1.311,0.80,-0.89,-4.74,0.26,0.04,0.37,
1.312,0.80,-0.89,-4.74,0.22,0.02,0.36,
1.314,0.80,-0.89,-4.74,0.17,-0.01,0.35,
1.317,0.80,-0.89,-4.74,0.12,-0.03,0.34,
1.319,0.80,-0.89,-4.74,0.08,-0.05,0.33,
1.321,0.45,-0.78,-4.52,0.08,-0.05,0.33,
1.322,0.45,-0.78,-4.52,0.04,-0.07,0.33,
1.323,0.45,-0.78,-4.52,0.00,-0.08,0.33,
1.325,0.45,-0.78,-4.52,-0.04,-0.10,0.32,
1.326,0.45,-0.78,-4.52,-0.08,-0.12,0.32,
1.328,0.45,-0.78,-4.52,-0.12,-0.13,0.32,
1.331,0.35,-0.70,-4.14,-0.12,-0.13,0.32,
1.331,0.35,-0.70,-4.14,-0.15,-0.14,0.32,
1.342,0.35,-0.70,-4.14,-0.18,-0.15,0.32,
1.342,0.35,-0.70,-4.14,-0.21,-0.16,0.32,
1.342,0.35,-0.70,-4.14,-0.23,-0.16,0.33,
1.342,0.35,-0.70,-4.14,-0.26,-0.17,0.33,
1.342,0.35,-0.67,-3.60,-0.26,-0.17,0.33,
1.343,0.35,-0.67,-3.60,-0.29,-0.17,0.33,
1.343,0.35,-0.67,-3.60,-0.31,-0.17,0.33,
1.346,0.35,-0.67,-3.60,-0.33,-0.18,0.34,
1.346,0.35,-0.67,-3.60,-0.35,-0.17,0.34,
1.349,0.35,-0.67,-3.60,-0.36,-0.17,0.34,
1.353,0.47,-0.52,-3.07,-0.36,-0.17,0.34,
1.353,0.47,-0.52,-3.07,-0.38,-0.17,0.34,
1.353,0.47,-0.52,-3.07,-0.39,-0.17,0.35,
1.355,0.47,-0.52,-3.07,-0.40,-0.17,0.35,
1.357,0.47,-0.52,-3.07,-0.41,-0.17,0.35,
1.36,0.47,-0.52,-3.07,-0.41,-0.17,0.35,
1.361,0.46,-0.32,-2.54,-0.41,-0.17,0.35,
1.361,0.46,-0.32,-2.54,-0.41,-0.17,0.36,
1.363,0.46,-0.32,-2.54,-0.42,-0.16,0.36,
1.364,0.46,-0.32,-2.54,-0.42,-0.16,0.36,
1.367,0.46,-0.32,-2.54,-0.42,-0.17,0.36,
1.369,0.46,-0.32,-2.54,-0.42,-0.18,0.36,
1.371,0.60,-0.19,-2.06,-0.42,-0.18,0.36,
1.372,0.60,-0.19,-2.06,-0.41,-0.18,0.36,
1.373,0.60,-0.19,-2.06,-0.40,-0.18,0.36,
1.374,0.60,-0.19,-2.06,-0.40,-0.18,0.36,
1.376,0.60,-0.19,-2.06,-0.39,-0.18,0.36,
1.378,0.60,-0.19,-2.06,-0.37,-0.18,0.36,
1.381,0.74,-0.10,-1.64,-0.37,-0.18,0.36,
1.382,0.74,-0.10,-1.64,-0.36,-0.17,0.36,
1.383,0.74,-0.10,-1.64,-0.34,-0.17,0.35,
1.391,0.74,-0.10,-1.64,-0.33,-0.17,0.35,
1.413,0.74,-0.10,-1.64,-0.31,-0.17,0.35,
1.414,0.74,-0.10,-1.64,-0.29,-0.17,0.34,
1.414,0.90,0.11,-1.36,-0.29,-0.17,0.34,
1.414,0.90,0.11,-1.36,-0.28,-0.16,0.34,
1.414,0.90,0.11,-1.36,-0.26,-0.16,0.33,
1.415,0.90,0.11,-1.36,-0.24,-0.15,0.32,
1.415,0.90,0.11,-1.36,-0.21,-0.15,0.32,
1.415,0.90,0.11,-1.36,-0.20,-0.14,0.31,
1.415,1.00,0.27,-1.13,-0.20,-0.14,0.31,
1.416,1.00,0.27,-1.13,-0.18,-0.14,0.30,
1.416,1.00,0.27,-1.13,-0.16,-0.14,0.29,
1.416,1.00,0.27,-1.13,-0.13,-0.13,0.28,
1.416,1.00,0.27,-1.13,-0.11,-0.13,0.27,
1.417,1.00,0.27,-1.13,-0.09,-0.13,0.26,
1.417,0.94,0.39,-0.99,-0.09,-0.13,0.26,
1.417,0.94,0.39,-0.99,-0.07,-0.12,0.24,
1.417,0.94,0.39,-0.99,-0.04,-0.12,0.23,
1.418,0.94,0.39,-0.99,-0.02,-0.12,0.23,
1.418,0.94,0.39,-0.99,0.00,-0.11,0.22,
1.423,0.94,0.39,-0.99,0.02,-0.11,0.21,
1.423,0.65,0.51,-1.08,0.02,-0.11,0.21,
1.423,0.65,0.51,-1.08,0.03,-0.11,0.21,
1.424,0.65,0.51,-1.08,0.05,-0.10,0.20,
1.426,0.65,0.51,-1.08,0.06,-0.10,0.20,
1.427,0.65,0.51,-1.08,0.07,-0.10,0.20,
1.429,0.65,0.51,-1.08,0.07,-0.10,0.19,
1.431,0.37,0.61,-1.43,0.07,-0.10,0.19,
1.431,0.37,0.61,-1.43,0.08,-0.10,0.19,
1.432,0.37,0.61,-1.43,0.08,-0.10,0.19,
1.434,0.37,0.61,-1.43,0.08,-0.10,0.19,
1.437,0.37,0.61,-1.43,0.07,-0.10,0.20,
1.442,0.37,0.61,-1.43,0.06,-0.10,0.20,
1.442,0.23,0.61,-1.81,0.06,-0.10,0.20,
1.443,0.23,0.61,-1.81,0.05,-0.10,0.20,
1.443,0.23,0.61,-1.81,0.04,-0.11,0.20,
1.446,0.23,0.61,-1.81,0.02,-0.11,0.20,
1.447,0.23,0.61,-1.81,0.00,-0.12,0.20,
1.449,0.23,0.61,-1.81,-0.02,-0.13,0.20,
1.451,0.09,0.71,-2.09,-0.02,-0.13,0.20,
1.451,0.09,0.71,-2.09,-0.04,-0.14,0.20,
1.458,0.09,0.71,-2.09,-0.06,-0.16,0.21,
1.458,0.09,0.71,-2.09,-0.09,-0.17,0.21,
1.458,0.09,0.71,-2.09,-0.11,-0.18,0.21,
1.461,0.09,0.71,-2.09,-0.14,-0.19,0.22,
1.462,-0.01,0.82,-1.98,-0.14,-0.19,0.22,
1.462,-0.01,0.82,-1.98,-0.16,-0.20,0.22,
1.463,-0.01,0.82,-1.98,-0.19,-0.21,0.22,
1.466,-0.01,0.82,-1.98,-0.22,-0.22,0.22,
1.468,-0.01,0.82,-1.98,-0.24,-0.23,0.22,
1.476,-0.01,0.82,-1.98,-0.27,-0.24,0.22,
1.477,-0.06,0.91,-1.60,-0.27,-0.24,0.22,
1.477,-0.06,0.91,-1.60,-0.30,-0.25,0.23,
1.477,-0.06,0.91,-1.60,-0.32,-0.26,0.23,
1.477,-0.06,0.91,-1.60,-0.34,-0.26,0.23,
1.477,-0.06,0.91,-1.60,-0.37,-0.27,0.23,
1.479,-0.06,0.91,-1.60,-0.39,-0.27,0.23,
1.481,-0.09,0.92,-1.02,-0.39,-0.27,0.23,
1.482,-0.09,0.92,-1.02,-0.41,-0.28,0.23,
1.482,-0.09,0.92,-1.02,-0.43,-0.28,0.23,
1.487,-0.09,0.92,-1.02,-0.45,-0.28,0.24,
1.488,-0.09,0.92,-1.02,-0.48,-0.28,0.23,
1.491,-0.09,0.92,-1.02,-0.49,-0.28,0.24,
1.492,-0.10,1.06,-0.38,-0.49,-0.28,0.24,
1.493,-0.10,1.06,-0.38,-0.50,-0.28,0.24,
1.493,-0.10,1.06,-0.38,-0.52,-0.27,0.24,
1.495,-0.10,1.06,-0.38,-0.54,-0.27,0.24,
1.496,-0.10,1.06,-0.38,-0.56,-0.26,0.24,
1.499,-0.10,1.06,-0.38,-0.59,-0.27,0.23,
1.514,-0.05,1.14,0.17,-0.59,-0.27,0.23,
1.514,-0.05,1.14,0.17,-0.61,-0.26,0.23,
1.514,-0.05,1.14,0.17,-0.62,-0.26,0.23,
1.515,-0.05,1.14,0.17,-0.65,-0.26,0.23,
1.515,-0.05,1.14,0.17,-0.67,-0.26,0.22,
1.515,-0.05,1.14,0.17,-0.70,-0.26,0.22,
1.515,0.10,1.25,0.55,-0.70,-0.26,0.22,
1.515,0.10,1.25,0.55,-0.73,-0.26,0.22,
1.515,0.10,1.25,0.55,-0.76,-0.27,0.21,
1.516,0.10,1.25,0.55,-0.79,-0.27,0.21,
1.52,0.10,1.25,0.55,-0.82,-0.28,0.20,
1.521,0.10,1.25,0.55,-0.86,-0.29,0.20,
1.522,0.31,1.32,1.04,-0.86,-0.29,0.20,
1.522,0.31,1.32,1.04,-0.89,-0.30,0.19,
1.526,0.31,1.32,1.04,-0.93,-0.32,0.18,
1.526,0.31,1.32,1.04,-0.97,-0.33,0.17,
1.527,0.31,1.32,1.04,-1.01,-0.35,0.17,
1.528,0.31,1.32,1.04,-1.04,-0.37,0.15,
1.531,0.56,1.30,1.76,-1.04,-0.37,0.15,
1.531,0.56,1.30,1.76,-1.08,-0.39,0.14,
1.533,0.56,1.30,1.76,-1.11,-0.42,0.13,
1.535,0.56,1.30,1.76,-1.15,-0.45,0.12,
1.542,0.56,1.30,1.76,-1.18,-0.48,0.10,
1.542,0.56,1.30,1.76,-1.20,-0.50,0.09,
1.547,0.81,1.25,2.99,-1.20,-0.50,0.09,
1.547,0.81,1.25,2.99,-1.21,-0.52,0.08,
1.552,0.81,1.25,2.99,-1.23,-0.54,0.06,
1.553,0.81,1.25,2.99,-1.23,-0.55,0.05,
1.553,0.81,1.25,2.99,-1.22,-0.56,0.04,
1.554,0.81,1.25,2.99,-1.20,-0.56,0.04,
1.554,0.80,1.26,4.82,-1.20,-0.56,0.04,
1.554,0.80,1.26,4.82,-1.19,-0.55,0.03,
1.554,0.80,1.26,4.82,-1.16,-0.55,0.03,
1.555,0.80,1.26,4.82,-1.12,-0.53,0.04,
1.58,0.80,1.26,4.82,-1.07,-0.52,0.04,
1.58,0.80,1.26,4.82,-1.03,-0.50,0.04,
1.58,0.62,1.29,6.61,-1.03,-0.50,0.04,
1.58,0.62,1.29,6.61,-0.98,-0.48,0.05,
1.58,0.62,1.29,6.61,-0.93,-0.46,0.05,
1.581,0.62,1.29,6.61,-0.87,-0.44,0.05,
1.581,0.62,1.29,6.61,-0.81,-0.42,0.06,
1.581,0.62,1.29,6.61,-0.75,-0.40,0.06,
1.581,0.70,1.16,7.74,-0.75,-0.40,0.06,
1.581,0.70,1.16,7.74,-0.68,-0.39,0.06,
1.582,0.70,1.16,7.74,-0.62,-0.37,0.06,
1.582,0.70,1.16,7.74,-0.56,-0.36,0.06,
1.582,0.70,1.16,7.74,-0.50,-0.36,0.06,
1.582,0.70,1.16,7.74,-0.44,-0.36,0.06,
1.583,1.12,1.06,8.06,-0.44,-0.36,0.06,
1.583,1.12,1.06,8.06,-0.39,-0.36,0.05,
1.583,1.12,1.06,8.06,-0.34,-0.37,0.05,
1.592,1.12,1.06,8.06,-0.29,-0.38,0.04,
1.593,1.12,1.06,8.06,-0.24,-0.39,0.02,
1.593,1.12,1.06,8.06,-0.20,-0.40,0.01,
1.593,1.67,0.95,7.89,-0.20,-0.40,0.01,
1.594,1.67,0.95,7.89,-0.16,-0.41,-0.01,
1.594,1.67,0.95,7.89,-0.12,-0.42,-0.03,
1.596,1.67,0.95,7.89,-0.08,-0.43,-0.06,
1.597,1.67,0.95,7.89,-0.05,-0.44,-0.08,
1.599,1.67,0.95,7.89,-0.01,-0.45,-0.11,
1.623,2.02,0.82,7.63,-0.01,-0.45,-0.11,
1.624,2.02,0.82,7.63,0.02,-0.46,-0.14,
1.624,2.02,0.82,7.63,0.06,-0.48,-0.17,
1.624,2.02,0.82,7.63,0.09,-0.49,-0.20,
1.624,2.02,0.82,7.63,0.12,-0.49,-0.23,
1.624,2.02,0.82,7.63,0.14,-0.50,-0.26,
1.625,2.06,0.61,7.40,0.14,-0.50,-0.26,
1.625,2.06,0.61,7.40,0.17,-0.51,-0.29,
1.625,2.06,0.61,7.40,0.20,-0.52,-0.31,
1.625,2.06,0.61,7.40,0.22,-0.52,-0.34,
1.625,2.06,0.61,7.40,0.25,-0.52,-0.36,
1.626,2.06,0.61,7.40,0.28,-0.52,-0.38,
1.626,1.88,0.23,7.28,0.28,-0.52,-0.38,
1.626,1.88,0.23,7.28,0.31,-0.52,-0.41,
1.626,1.88,0.23,7.28,0.33,-0.50,-0.43,
1.626,1.88,0.23,7.28,0.36,-0.49,-0.45,
1.626,1.88,0.23,7.28,0.40,-0.47,-0.47,
1.631,1.88,0.23,7.28,0.43,-0.44,-0.48,
1.631,1.88,-0.35,7.34,0.43,-0.44,-0.48,
1.631,1.88,-0.35,7.34,0.47,-0.41,-0.50,
1.632,1.88,-0.35,7.34,0.50,-0.38,-0.51,
1.635,1.88,-0.35,7.34,0.55,-0.35,-0.52,
1.637,1.88,-0.35,7.34,0.59,-0.32,-0.53,
1.638,1.88,-0.35,7.34,0.62,-0.28,-0.54,
1.641,1.73,-0.80,7.24,0.62,-0.28,-0.54,
1.641,1.73,-0.80,7.24,0.67,-0.25,-0.55,
1.642,1.73,-0.80,7.24,0.71,-0.22,-0.55,
1.644,1.73,-0.80,7.24,0.75,-0.19,-0.55,
1.646,1.73,-0.80,7.24,0.79,-0.16,-0.55,
1.648,1.73,-0.80,7.24,0.83,-0.14,-0.55,
1.651,1.45,-1.22,6.76,0.83,-0.14,-0.55,
1.651,1.45,-1.22,6.76,0.87,-0.11,-0.54,
1.652,1.45,-1.22,6.76,0.91,-0.10,-0.53,
1.654,1.45,-1.22,6.76,0.93,-0.08,-0.53,
1.657,1.45,-1.22,6.76,0.96,-0.07,-0.52,
1.659,1.45,-1.22,6.76,0.98,-0.07,-0.51,
1.661,1.24,-1.45,5.65,0.98,-0.07,-0.51,
1.661,1.24,-1.45,5.65,1.00,-0.07,-0.51,
1.662,1.24,-1.45,5.65,1.01,-0.07,-0.50,
1.664,1.24,-1.45,5.65,1.02,-0.07,-0.50,
1.675,1.24,-1.45,5.65,1.02,-0.07,-0.49,
1.675,1.24,-1.45,5.65,1.03,-0.08,-0.49,
1.676,1.25,-1.84,4.39,1.03,-0.08,-0.49,
1.676,1.25,-1.84,4.39,1.03,-0.08,-0.49,
1.676,1.25,-1.84,4.39,1.03,-0.10,-0.48,
1.681,1.25,-1.84,4.39,1.03,-0.11,-0.48,
1.681,1.25,-1.84,4.39,1.03,-0.13,-0.48,
1.681,1.25,-1.84,4.39,1.02,-0.15,-0.48,
1.681,1.21,-1.93,3.27,1.02,-0.15,-0.48,
1.682,1.21,-1.93,3.27,1.01,-0.17,-0.48,
1.682,1.21,-1.93,3.27,1.00,-0.19,-0.48,
1.697,1.21,-1.93,3.27,0.99,-0.21,-0.48,
1.698,1.21,-1.93,3.27,0.97,-0.24,-0.48,
1.698,1.21,-1.93,3.27,0.96,-0.27,-0.48,
1.698,1.25,-2.13,2.32,0.96,-0.27,-0.48,
1.698,1.25,-2.13,2.32,0.94,-0.30,-0.49,
1.698,1.25,-2.13,2.32,0.93,-0.33,-0.49,
1.698,1.25,-2.13,2.32,0.91,-0.35,-0.49,
1.699,1.25,-2.13,2.32,0.89,-0.38,-0.49,
1.699,1.25,-2.13,2.32,0.87,-0.40,-0.50,
1.704,1.20,-2.12,1.63,0.87,-0.40,-0.50,
1.704,1.20,-2.12,1.63,0.86,-0.43,-0.50,
1.707,1.20,-2.12,1.63,0.85,-0.45,-0.50,
1.708,1.20,-2.12,1.63,0.83,-0.47,-0.51,
1.709,1.20,-2.12,1.63,0.82,-0.49,-0.52,
1.709,1.20,-2.12,1.63,0.80,-0.50,-0.53,
1.711,1.31,-2.33,1.14,0.80,-0.50,-0.53,
1.711,1.31,-2.33,1.14,0.79,-0.52,-0.54,
1.712,1.31,-2.33,1.14,0.78,-0.53,-0.55,
1.714,1.31,-2.33,1.14,0.76,-0.53,-0.56,
1.716,1.31,-2.33,1.14,0.74,-0.54,-0.57,
1.718,1.31,-2.33,1.14,0.73,-0.54,-0.58,
1.739,1.34,-2.49,0.77,0.73,-0.54,-0.58,
1.739,1.34,-2.49,0.77,0.72,-0.54,-0.59,
1.739,1.34,-2.49,0.77,0.71,-0.53,-0.60,
1.739,1.34,-2.49,0.77,0.70,-0.53,-0.62,
1.74,1.34,-2.49,0.77,0.69,-0.52,-0.63,
1.74,1.34,-2.49,0.77,0.68,-0.51,-0.64,
1.74,1.24,-2.66,0.46,0.68,-0.51,-0.64,
1.74,1.24,-2.66,0.46,0.67,-0.49,-0.65,
1.741,1.24,-2.66,0.46,0.66,-0.48,-0.66,
1.741,1.24,-2.66,0.46,0.65,-0.46,-0.67,
1.741,1.24,-2.66,0.46,0.65,-0.45,-0.68,
1.741,1.24,-2.66,0.46,0.65,-0.43,-0.69,
1.742,1.08,-2.67,0.07,0.65,-0.43,-0.69,
1.742,1.08,-2.67,0.07,0.64,-0.40,-0.70,
1.746,1.08,-2.67,0.07,0.64,-0.38,-0.71,
1.746,1.08,-2.67,0.07,0.63,-0.36,-0.72,
1.748,1.08,-2.67,0.07,0.63,-0.33,-0.73,
1.749,1.08,-2.67,0.07,0.63,-0.31,-0.74,
1.751,0.94,-2.75,-0.43,0.63,-0.31,-0.74,
1.752,0.94,-2.75,-0.43,0.63,-0.28,-0.75,
1.753,0.94,-2.75,-0.43,0.63,-0.26,-0.76,
1.755,0.94,-2.75,-0.43,0.62,-0.24,-0.77,
1.757,0.94,-2.75,-0.43,0.62,-0.21,-0.78,
1.759,0.94,-2.75,-0.43,0.62,-0.18,-0.79,
1.761,0.68,-2.68,-1.10,0.62,-0.18,-0.79,
1.761,0.68,-2.68,-1.10,0.61,-0.16,-0.80,
1.766,0.68,-2.68,-1.10,0.60,-0.14,-0.81,
1.768,0.68,-2.68,-1.10,0.59,-0.12,-0.82,
1.768,0.68,-2.68,-1.10,0.58,-0.10,-0.82,
1.769,0.68,-2.68,-1.10,0.57,-0.09,-0.83,
1.771,0.44,-2.65,-1.84,0.57,-0.09,-0.83,
1.771,0.44,-2.65,-1.84,0.56,-0.07,-0.84,
1.772,0.44,-2.65,-1.84,0.54,-0.06,-0.85,
1.775,0.44,-2.65,-1.84,0.53,-0.04,-0.86,
1.777,0.44,-2.65,-1.84,0.51,-0.03,-0.86,
1.779,0.44,-2.65,-1.84,0.50,-0.01,-0.87,
1.781,0.16,-2.55,-2.55,0.50,-0.01,-0.87,
1.782,0.16,-2.55,-2.55,0.48,-0.00,-0.88,
1.783,0.16,-2.55,-2.55,0.47,0.01,-0.89,
1.785,0.16,-2.55,-2.55,0.45,0.02,-0.89,
1.788,0.16,-2.55,-2.55,0.44,0.02,-0.90,
1.79,0.16,-2.55,-2.55,0.42,0.03,-0.91,
1.792,-0.09,-2.50,-3.04,0.42,0.03,-0.91,
1.792,-0.09,-2.50,-3.04,0.41,0.04,-0.91,
1.793,-0.09,-2.50,-3.04,0.40,0.04,-0.92,
1.795,-0.09,-2.50,-3.04,0.38,0.05,-0.92,
1.797,-0.09,-2.50,-3.04,0.37,0.05,-0.92,
1.799,-0.09,-2.50,-3.04,0.36,0.05,-0.93,
1.801,-0.43,-2.39,-3.40,0.36,0.05,-0.93,
1.802,-0.43,-2.39,-3.40,0.35,0.05,-0.93,
1.803,-0.43,-2.39,-3.40,0.34,0.05,-0.93,
1.805,-0.43,-2.39,-3.40,0.33,0.05,-0.93,
1.807,-0.43,-2.39,-3.40,0.32,0.05,-0.93,
1.809,-0.43,-2.39,-3.40,0.32,0.04,-0.92,
1.811,-0.77,-2.32,-3.64,0.32,0.04,-0.92,
1.812,-0.77,-2.32,-3.64,0.31,0.03,-0.92,
1.812,-0.77,-2.32,-3.64,0.30,0.02,-0.91,
1.814,-0.77,-2.32,-3.64,0.29,0.01,-0.91,
1.821,-0.77,-2.32,-3.64,0.29,0.00,-0.90,
1.822,-0.77,-2.32,-3.64,0.28,-0.01,-0.89,
1.822,-1.00,-2.17,-3.77,0.28,-0.01,-0.89,
1.822,-1.00,-2.17,-3.77,0.28,-0.02,-0.88,
1.822,-1.00,-2.17,-3.77,0.28,-0.03,-0.87,
1.825,-1.00,-2.17,-3.77,0.27,-0.04,-0.86,
1.826,-1.00,-2.17,-3.77,0.27,-0.06,-0.85,
1.829,-1.00,-2.17,-3.77,0.27,-0.07,-0.84,
1.831,-1.10,-2.04,-3.78,0.27,-0.07,-0.84,
1.831,-1.10,-2.04,-3.78,0.27,-0.08,-0.83,
1.85,-1.10,-2.04,-3.78,0.28,-0.10,-0.82,
1.85,-1.10,-2.04,-3.78,0.28,-0.11,-0.81,
1.85,-1.10,-2.04,-3.78,0.28,-0.12,-0.80,
1.851,-1.10,-2.04,-3.78,0.29,-0.14,-0.79,
1.851,-1.03,-1.88,-3.71,0.29,-0.14,-0.79,
1.851,-1.03,-1.88,-3.71,0.29,-0.15,-0.78,
1.851,-1.03,-1.88,-3.71,0.30,-0.17,-0.77,
1.851,-1.03,-1.88,-3.71,0.30,-0.18,-0.76,
1.851,-1.03,-1.88,-3.71,0.31,-0.19,-0.75,
1.852,-1.03,-1.88,-3.71,0.31,-0.21,-0.75,
1.852,-1.00,-1.72,-3.67,0.31,-0.21,-0.75,
1.852,-1.00,-1.72,-3.67,0.31,-0.22,-0.74,
1.855,-1.00,-1.72,-3.67,0.32,-0.23,-0.73,
1.857,-1.00,-1.72,-3.67,0.32,-0.24,-0.73,
1.858,-1.00,-1.72,-3.67,0.33,-0.25,-0.72,
1.859,-1.00,-1.72,-3.67,0.33,-0.26,-0.72,
1.861,-0.86,-1.53,-3.70,0.33,-0.26,-0.72,
1.862,-0.86,-1.53,-3.70,0.33,-0.27,-0.72,
1.863,-0.86,-1.53,-3.70,0.33,-0.28,-0.72,
1.864,-0.86,-1.53,-3.70,0.33,-0.29,-0.71,
1.867,-0.86,-1.53,-3.70,0.33,-0.30,-0.71,
1.869,-0.86,-1.53,-3.70,0.33,-0.32,-0.71,
1.871,-0.66,-1.32,-3.74,0.33,-0.32,-0.71,
1.871,-0.66,-1.32,-3.74,0.33,-0.33,-0.72,
1.873,-0.66,-1.32,-3.74,0.33,-0.34,-0.72,
1.876,-0.66,-1.32,-3.74,0.32,-0.36,-0.72,
1.877,-0.66,-1.32,-3.74,0.32,-0.37,-0.73,
1.878,-0.66,-1.32,-3.74,0.32,-0.39,-0.73,
1.881,-0.44,-1.07,-3.73,0.32,-0.39,-0.73,
1.881,-0.44,-1.07,-3.73,0.31,-0.40,-0.74,
1.882,-0.44,-1.07,-3.73,0.30,-0.41,-0.75,
1.885,-0.44,-1.07,-3.73,0.30,-0.42,-0.76,
1.906,-0.44,-1.07,-3.73,0.29,-0.43,-0.77,
1.907,-0.44,-1.07,-3.73,0.28,-0.44,-0.78,
1.907,-0.26,-0.80,-3.65,0.28,-0.44,-0.78,
1.907,-0.26,-0.80,-3.65,0.27,-0.45,-0.79,
1.907,-0.26,-0.80,-3.65,0.27,-0.46,-0.80,
1.907,-0.26,-0.80,-3.65,0.25,-0.47,-0.81,
1.907,-0.26,-0.80,-3.65,0.25,-0.48,-0.82,
1.908,-0.26,-0.80,-3.65,0.24,-0.49,-0.83,
1.908,-0.19,-0.68,-3.47,0.24,-0.49,-0.83,
1.908,-0.19,-0.68,-3.47,0.23,-0.50,-0.84,
1.908,-0.19,-0.68,-3.47,0.22,-0.52,-0.85,
1.908,-0.19,-0.68,-3.47,0.21,-0.53,-0.86,
1.909,-0.19,-0.68,-3.47,0.20,-0.54,-0.87,
1.909,-0.19,-0.68,-3.47,0.19,-0.56,-0.87,
1.912,-0.25,-0.53,-3.25,0.19,-0.56,-0.87,
1.913,-0.25,-0.53,-3.25,0.18,-0.57,-0.88,
1.913,-0.25,-0.53,-3.25,0.17,-0.59,-0.88,
1.915,-0.25,-0.53,-3.25,0.16,-0.60,-0.89,
1.918,-0.25,-0.53,-3.25,0.15,-0.61,-0.90,
1.92,-0.25,-0.53,-3.25,0.14,-0.62,-0.90,
1.926,-0.43,-0.45,-2.93,0.14,-0.62,-0.90,
1.926,-0.43,-0.45,-2.93,0.13,-0.63,-0.90,
1.927,-0.43,-0.45,-2.93,0.12,-0.63,-0.91,
1.927,-0.43,-0.45,-2.93,0.10,-0.64,-0.91,
1.929,-0.43,-0.45,-2.93,0.09,-0.64,-0.91,
1.929,-0.43,-0.45,-2.93,0.09,-0.64,-0.91,
1.931,-0.57,-0.42,-2.64,0.09,-0.64,-0.91,
1.931,-0.57,-0.42,-2.64,0.08,-0.64,-0.90,
1.933,-0.57,-0.42,-2.64,0.07,-0.64,-0.90,
1.935,-0.57,-0.42,-2.64,0.07,-0.64,-0.89,
1.938,-0.57,-0.42,-2.64,0.05,-0.64,-0.89,
1.939,-0.57,-0.42,-2.64,0.04,-0.63,-0.88,
1.941,-0.66,-0.46,-2.46,0.04,-0.63,-0.88,
1.941,-0.66,-0.46,-2.46,0.02,-0.63,-0.87,
1.944,-0.66,-0.46,-2.46,0.01,-0.63,-0.87,
1.945,-0.66,-0.46,-2.46,-0.00,-0.62,-0.86,
1.947,-0.66,-0.46,-2.46,-0.02,-0.62,-0.84,
1.948,-0.66,-0.46,-2.46,-0.04,-0.62,-0.84,
1.954,-0.78,-0.31,-2.37,-0.04,-0.62,-0.84,
1.954,-0.78,-0.31,-2.37,-0.06,-0.62,-0.83,
1.954,-0.78,-0.31,-2.37,-0.07,-0.62,-0.82,
1.955,-0.78,-0.31,-2.37,-0.09,-0.62,-0.82,
1.957,-0.78,-0.31,-2.37,-0.10,-0.62,-0.81,
1.959,-0.78,-0.31,-2.37,-0.12,-0.62,-0.81,
1.987,-0.54,-0.25,-2.07,-0.12,-0.62,-0.81,
1.987,-0.54,-0.25,-2.07,-0.13,-0.62,-0.81,
1.987,-0.54,-0.25,-2.07,-0.14,-0.61,-0.81,
1.988,-0.54,-0.25,-2.07,-0.14,-0.61,-0.81,
1.988,-0.54,-0.25,-2.07,-0.15,-0.60,-0.81,
1.988,-0.54,-0.25,-2.07,-0.16,-0.60,-0.82,
1.988,-0.24,-0.10,-1.49,-0.16,-0.60,-0.82,
1.988,-0.24,-0.10,-1.49,-0.16,-0.59,-0.82,
1.988,-0.24,-0.10,-1.49,-0.15,-0.58,-0.83,
1.988,-0.24,-0.10,-1.49,-0.15,-0.57,-0.84,
1.989,-0.24,-0.10,-1.49,-0.14,-0.56,-0.85,
1.989,-0.24,-0.10,-1.49,-0.13,-0.54,-0.85,
1.989,-0.06,0.09,-0.57,-0.13,-0.54,-0.85,
1.989,-0.06,0.09,-0.57,-0.11,-0.53,-0.86,
1.989,-0.06,0.09,-0.57,-0.09,-0.52,-0.87,
1.989,-0.06,0.09,-0.57,-0.07,-0.51,-0.88,
1.99,-0.06,0.09,-0.57,-0.05,-0.50,-0.88,
1.99,-0.06,0.09,-0.57,-0.03,-0.50,-0.89,
1.995,-0.06,0.18,0.34,-0.03,-0.50,-0.89,
1.995,-0.06,0.18,0.34,0.00,-0.49,-0.89,
1.996,-0.06,0.18,0.34,0.02,-0.49,-0.89,
1.996,-0.06,0.18,0.34,0.04,-0.48,-0.89,
1.997,-0.06,0.18,0.34,0.06,-0.48,-0.89,
1.999,-0.06,0.18,0.34,0.09,-0.48,-0.88,
2.014,-0.48,0.30,0.75,0.09,-0.48,-0.88,
2.014,-0.48,0.30,0.75,0.11,-0.48,-0.87,
2.014,-0.48,0.30,0.75,0.12,-0.48,-0.85,
2.014,-0.48,0.30,0.75,0.14,-0.48,-0.83,
2.015,-0.48,0.30,0.75,0.15,-0.48,-0.81,
2.015,-0.48,0.30,0.75,0.16,-0.49,-0.78,
2.015,-1.19,0.60,0.64,0.16,-0.49,-0.78,
2.015,-1.19,0.60,0.64,0.16,-0.52,-0.76,
2.015,-1.19,0.60,0.64,0.16,-0.55,-0.73,
2.015,-1.19,0.60,0.64,0.16,-0.58,-0.70,
2.017,-1.19,0.60,0.64,0.16,-0.61,-0.67,
2.02,-1.19,0.60,0.64,0.16,-0.64,-0.65,
2.021,-1.40,0.90,0.71,0.16,-0.64,-0.65,
2.023,-1.40,0.90,0.71,0.16,-0.68,-0.62,
2.023,-1.40,0.90,0.71,0.16,-0.71,-0.60,
2.024,-1.40,0.90,0.71,0.16,-0.74,-0.57,
2.027,-1.40,0.90,0.71,0.16,-0.77,-0.55,
2.029,-1.40,0.90,0.71,0.16,-0.79,-0.53,
2.032,-1.36,1.32,1.07,0.16,-0.79,-0.53,
2.032,-1.36,1.32,1.07,0.16,-0.82,-0.50,
2.035,-1.36,1.32,1.07,0.16,-0.84,-0.48,
2.035,-1.36,1.32,1.07,0.16,-0.86,-0.46,
2.037,-1.36,1.32,1.07,0.16,-0.87,-0.43,
2.039,-1.36,1.32,1.07,0.16,-0.89,-0.41,
2.041,-1.10,1.61,1.33,0.16,-0.89,-0.41,
2.041,-1.10,1.61,1.33,0.16,-0.90,-0.39,
2.042,-1.10,1.61,1.33,0.16,-0.92,-0.38,
2.044,-1.10,1.61,1.33,0.15,-0.94,-0.36,
2.046,-1.10,1.61,1.33,0.14,-0.95,-0.34,
2.048,-1.10,1.61,1.33,0.12,-0.96,-0.33,
2.051,-0.67,1.79,1.42,0.12,-0.96,-0.33,
2.072,-0.67,1.79,1.42,0.11,-0.98,-0.32,
2.072,-0.67,1.79,1.42,0.09,-0.99,-0.30,
2.072,-0.67,1.79,1.42,0.07,-1.01,-0.30,
2.073,-0.67,1.79,1.42,0.04,-1.02,-0.29,
2.073,-0.67,1.79,1.42,0.02,-1.03,-0.29,
2.073,-0.12,1.98,1.47,0.02,-1.03,-0.29,
2.073,-0.12,1.98,1.47,-0.01,-1.04,-0.29,
2.073,-0.12,1.98,1.47,-0.05,-1.05,-0.29,
2.074,-0.12,1.98,1.47,-0.08,-1.06,-0.29,
2.074,-0.12,1.98,1.47,-0.12,-1.06,-0.30,
2.074,-0.12,1.98,1.47,-0.15,-1.06,-0.31,
2.074,0.52,1.95,1.51,-0.15,-1.06,-0.31,
2.074,0.52,1.95,1.51,-0.20,-1.05,-0.32,
2.075,0.52,1.95,1.51,-0.23,-1.05,-0.33,
2.075,0.52,1.95,1.51,-0.27,-1.04,-0.34,
2.079,0.52,1.95,1.51,-0.31,-1.03,-0.35,
2.079,0.52,1.95,1.51,-0.35,-1.01,-0.37,
2.081,0.93,1.90,1.91,-0.35,-1.01,-0.37,
2.081,0.93,1.90,1.91,-0.38,-0.99,-0.38,
2.085,0.93,1.90,1.91,-0.41,-0.96,-0.38,
2.086,0.93,1.90,1.91,-0.44,-0.93,-0.39,
2.087,0.93,1.90,1.91,-0.46,-0.89,-0.40,
2.089,0.93,1.90,1.91,-0.48,-0.84,-0.41,
2.091,0.98,1.98,2.64,-0.48,-0.84,-0.41,
2.091,0.98,1.98,2.64,-0.50,-0.79,-0.42,
2.092,0.98,1.98,2.64,-0.51,-0.73,-0.42,
2.095,0.98,1.98,2.64,-0.52,-0.67,-0.43,
2.096,0.98,1.98,2.64,-0.52,-0.60,-0.43,
2.103,0.98,1.98,2.64,-0.52,-0.52,-0.44,
2.104,0.91,1.88,3.37,-0.52,-0.52,-0.44,
2.104,0.91,1.88,3.37,-0.52,-0.44,-0.44,
2.105,0.91,1.88,3.37,-0.52,-0.35,-0.45,
2.105,0.91,1.88,3.37,-0.51,-0.26,-0.45,
2.107,0.91,1.88,3.37,-0.50,-0.17,-0.45,
2.128,0.91,1.88,3.37,-0.49,-0.08,-0.45,
2.129,0.46,1.62,3.71,-0.49,-0.08,-0.45,
2.129,0.46,1.62,3.71,-0.48,0.02,-0.44,
2.129,0.46,1.62,3.71,-0.46,0.11,-0.44,
2.129,0.46,1.62,3.71,-0.45,0.20,-0.42,
2.13,0.46,1.62,3.71,-0.43,0.29,-0.41,
2.13,0.46,1.62,3.71,-0.42,0.38,-0.39,
2.13,-0.53,1.52,3.50,-0.42,0.38,-0.39,
2.13,-0.53,1.52,3.50,-0.38,0.60,-0.32,
2.13,-0.53,1.52,3.50,-0.38,0.60,-0.32,
2.134,-0.53,1.52,3.50,-0.37,0.66,-0.29,
2.134,-0.53,1.52,3.50,-0.37,0.70,-0.27,
2.134,-0.53,1.52,3.50,-0.37,0.70,-0.27,
2.137,-1.60,1.54,2.78,-0.37,0.70,-0.27,
2.137,-1.60,1.54,2.78,-0.37,0.74,-0.24,
2.137,-1.60,1.54,2.78,-0.37,0.77,-0.21,
2.137,-1.60,1.54,2.78,-0.37,0.80,-0.19,
2.137,-1.60,1.54,2.78,-0.39,0.81,-0.16,
2.14,-1.60,1.54,2.78,-0.40,0.82,-0.14,
2.141,-2.15,1.54,1.85,-0.40,0.82,-0.14,
2.141,-2.15,1.54,1.85,-0.41,0.82,-0.12,
2.142,-2.15,1.54,1.85,-0.43,0.82,-0.10,
2.144,-2.15,1.54,1.85,-0.45,0.82,-0.08,
2.146,-2.15,1.54,1.85,-0.46,0.81,-0.07,
2.149,-2.15,1.54,1.85,-0.47,0.79,-0.06,
2.151,-2.28,1.48,1.46,-0.47,0.79,-0.06,
2.152,-2.28,1.48,1.46,-0.48,0.78,-0.05,
2.153,-2.28,1.48,1.46,-0.49,0.75,-0.05,
2.155,-2.28,1.48,1.46,-0.49,0.73,-0.04,
2.156,-2.28,1.48,1.46,-0.49,0.71,-0.05,
2.159,-2.28,1.48,1.46,-0.48,0.68,-0.05,
2.161,-2.03,1.42,1.89,-0.48,0.68,-0.05,
2.161,-2.03,1.42,1.89,-0.47,0.66,-0.05,
2.162,-2.03,1.42,1.89,-0.45,0.63,-0.06,
2.164,-2.03,1.42,1.89,-0.42,0.61,-0.06,
2.18,-2.03,1.42,1.89,-0.39,0.59,-0.07,
2.18,-2.03,1.42,1.89,-0.35,0.57,-0.07,
2.18,-2.12,1.33,2.86,-0.35,0.57,-0.07,
2.18,-2.12,1.33,2.86,-0.31,0.55,-0.07,
2.18,-2.12,1.33,2.86,-0.26,0.54,-0.08,
2.181,-2.12,1.33,2.86,-0.21,0.54,-0.08,
2.181,-2.12,1.33,2.86,-0.15,0.53,-0.07,
2.181,-2.12,1.33,2.86,-0.09,0.53,-0.06,
2.181,-2.50,1.13,3.69,-0.09,0.53,-0.06,
2.181,-2.50,1.13,3.69,-0.02,0.54,-0.06,
2.183,-2.50,1.13,3.69,0.04,0.55,-0.04,
2.186,-2.50,1.13,3.69,0.11,0.56,-0.03,
2.187,-2.50,1.13,3.69,0.17,0.57,-0.01,
2.188,-2.50,1.13,3.69,0.23,0.58,0.01,
2.191,-3.30,0.79,3.75,0.23,0.58,0.01,
2.191,-3.30,0.79,3.75,0.30,0.59,0.03,
2.192,-3.30,0.79,3.75,0.35,0.60,0.06,
2.194,-3.30,0.79,3.75,0.40,0.61,0.09,
2.196,-3.30,0.79,3.75,0.45,0.61,0.12,
2.2,-3.30,0.79,3.75,0.49,0.62,0.16,
2.202,-4.09,0.55,2.89,0.49,0.62,0.16,
2.202,-4.09,0.55,2.89,0.53,0.62,0.20,
2.203,-4.09,0.55,2.89,0.55,0.62,0.23,
2.205,-4.09,0.55,2.89,0.58,0.62,0.27,
2.206,-4.09,0.55,2.89,0.59,0.62,0.32,
2.209,-4.09,0.55,2.89,0.60,0.61,0.36,
2.211,-4.84,0.37,1.60,0.60,0.61,0.36,
2.211,-4.84,0.37,1.60,0.61,0.60,0.40,
2.214,-4.84,0.37,1.60,0.60,0.59,0.45,
2.216,-4.84,0.37,1.60,0.59,0.56,0.49,
2.218,-4.84,0.37,1.60,0.57,0.53,0.54,
2.219,-4.84,0.37,1.60,0.55,0.50,0.59,
2.239,-5.10,0.13,0.26,0.55,0.50,0.59,
2.239,-5.10,0.13,0.26,0.53,0.45,0.63,
2.239,-5.10,0.13,0.26,0.49,0.41,0.68,
2.24,-5.10,0.13,0.26,0.45,0.36,0.72,
2.24,-5.10,0.13,0.26,0.41,0.31,0.77,
2.24,-5.10,0.13,0.26,0.37,0.24,0.81,
2.24,-5.10,0.02,-0.63,0.37,0.24,0.81,
2.24,-5.10,0.02,-0.63,0.32,0.18,0.86,
2.241,-5.10,0.02,-0.63,0.27,0.10,0.90,
2.241,-5.10,0.02,-0.63,0.21,0.03,0.93,
2.241,-5.10,0.02,-0.63,0.16,-0.05,0.97,
2.241,-5.10,0.02,-0.63,0.10,-0.14,1.00,
2.242,-4.29,0.03,-0.73,0.10,-0.14,1.00,
2.242,-4.29,0.03,-0.73,0.05,-0.23,1.02,
2.249,-4.29,0.03,-0.73,-0.01,-0.31,1.04,
2.25,-4.29,0.03,-0.73,-0.07,-0.40,1.05,
2.25,-4.29,0.03,-0.73,-0.12,-0.49,1.06,
2.252,-4.29,0.03,-0.73,-0.17,-0.58,1.07,
2.273,-3.08,0.10,0.13,-0.17,-0.58,1.07,
2.273,-3.08,0.10,0.13,-0.22,-0.66,1.06,
2.273,-3.08,0.10,0.13,-0.27,-0.74,1.06,
2.274,-3.08,0.10,0.13,-0.30,-0.81,1.04,
2.274,-3.08,0.10,0.13,-0.34,-0.87,1.03,
2.274,-3.08,0.10,0.13,-0.36,-0.92,1.01,
2.274,-1.73,0.12,1.85,-0.36,-0.92,1.01,
2.274,-1.73,0.12,1.85,-0.38,-0.97,0.99,
2.274,-1.73,0.12,1.85,-0.38,-1.02,0.96,
2.275,-1.73,0.12,1.85,-0.38,-1.06,0.94,
2.275,-1.73,0.12,1.85,-0.36,-1.08,0.91,
2.275,-1.73,0.12,1.85,-0.35,-1.08,0.88,
2.275,-0.78,-0.17,3.98,-0.35,-1.08,0.88,
2.275,-0.78,-0.17,3.98,-0.33,-1.08,0.85,
2.275,-0.78,-0.17,3.98,-0.29,-1.06,0.83,
2.276,-0.78,-0.17,3.98,-0.25,-1.04,0.81,
2.281,-0.78,-0.17,3.98,-0.21,-1.01,0.79,
2.282,-0.78,-0.17,3.98,-0.15,-0.97,0.78,
2.282,-0.56,-0.50,5.62,-0.15,-0.97,0.78,
2.295,-0.56,-0.50,5.62,-0.09,-0.93,0.77,
2.296,-0.56,-0.50,5.62,-0.03,-0.89,0.76,
2.296,-0.56,-0.50,5.62,0.04,-0.83,0.75,
2.296,-0.56,-0.50,5.62,0.11,-0.77,0.74,
2.296,-0.56,-0.50,5.62,0.17,-0.71,0.74,
2.296,-0.68,-1.05,6.40,0.17,-0.71,0.74,
2.297,-0.68,-1.05,6.40,0.25,-0.64,0.74,
2.297,-0.68,-1.05,6.40,0.32,-0.57,0.74,
2.297,-0.68,-1.05,6.40,0.39,-0.50,0.74,
2.297,-0.68,-1.05,6.40,0.46,-0.43,0.74,
2.299,-0.68,-1.05,6.40,0.53,-0.35,0.75,
2.311,-0.81,-1.46,6.13,0.53,-0.35,0.75,
2.311,-0.81,-1.46,6.13,0.60,-0.28,0.75,
2.311,-0.81,-1.46,6.13,0.67,-0.20,0.76,
2.311,-0.81,-1.46,6.13,0.74,-0.13,0.77,
2.312,-0.81,-1.46,6.13,0.80,-0.06,0.78,
2.312,-0.81,-1.46,6.13,0.86,0.01,0.80,
2.312,-1.04,-1.73,5.07,0.86,0.01,0.80,
2.312,-1.04,-1.73,5.07,0.91,0.07,0.81,
2.314,-1.04,-1.73,5.07,0.96,0.13,0.83,
2.327,-1.04,-1.73,5.07,1.00,0.18,0.84,
2.327,-1.04,-1.73,5.07,1.04,0.23,0.86,
2.327,-1.04,-1.73,5.07,1.07,0.27,0.87,
2.327,-1.21,-1.59,3.38,1.07,0.27,0.87,
2.327,-1.21,-1.59,3.38,1.10,0.30,0.88,
2.327,-1.21,-1.59,3.38,1.12,0.34,0.89,
2.328,-1.21,-1.59,3.38,1.14,0.37,0.90,
2.328,-1.21,-1.59,3.38,1.15,0.39,0.91,
2.329,-1.21,-1.59,3.38,1.16,0.42,0.91,
2.343,-1.06,-1.59,1.56,1.16,0.42,0.91,
2.344,-1.06,-1.59,1.56,1.17,0.44,0.91,
2.365,-1.06,-1.59,1.56,1.17,0.46,0.91,
2.365,-1.06,-1.59,1.56,1.17,0.48,0.91,
2.365,-1.06,-1.59,1.56,1.16,0.50,0.90,
2.365,-1.06,-1.59,1.56,1.16,0.51,0.89,
2.366,-0.72,-1.55,-0.10,1.16,0.51,0.89,
2.366,-0.72,-1.55,-0.10,1.14,0.53,0.88,
2.366,-0.72,-1.55,-0.10,1.13,0.54,0.88,
2.366,-0.72,-1.55,-0.10,1.11,0.55,0.86,
2.366,-0.72,-1.55,-0.10,1.09,0.56,0.85,
2.367,-0.72,-1.55,-0.10,1.07,0.57,0.84,
2.367,-0.38,-1.54,-1.44,1.07,0.57,0.84,
2.367,-0.38,-1.54,-1.44,1.04,0.58,0.82,
2.367,-0.38,-1.54,-1.44,1.01,0.58,0.80,
2.367,-0.38,-1.54,-1.44,0.98,0.58,0.79,
2.368,-0.38,-1.54,-1.44,0.94,0.59,0.77,
2.368,-0.38,-1.54,-1.44,0.91,0.59,0.75,
2.368,-0.15,-1.44,-2.42,0.91,0.59,0.75,
2.368,-0.15,-1.44,-2.42,0.87,0.59,0.74,
2.368,-0.15,-1.44,-2.42,0.83,0.59,0.72,
2.368,-0.15,-1.44,-2.42,0.80,0.59,0.70,
2.369,-0.15,-1.44,-2.42,0.77,0.59,0.68,
2.377,-0.15,-1.44,-2.42,0.73,0.59,0.66,
2.377,-0.02,-1.52,-2.93,0.73,0.59,0.66,
2.377,-0.02,-1.52,-2.93,0.70,0.58,0.64,
2.377,-0.02,-1.52,-2.93,0.67,0.58,0.63,
2.378,-0.02,-1.52,-2.93,0.65,0.57,0.61,
2.378,-0.02,-1.52,-2.93,0.62,0.56,0.59,
2.38,-0.02,-1.52,-2.93,0.60,0.56,0.58,
2.389,0.01,-1.68,-2.80,0.60,0.56,0.58,
2.389,0.01,-1.68,-2.80,0.59,0.56,0.56,
2.39,0.01,-1.68,-2.80,0.58,0.56,0.55,
2.39,0.01,-1.68,-2.80,0.57,0.56,0.53,
2.39,0.01,-1.68,-2.80,0.57,0.57,0.53,
2.39,0.01,-1.68,-2.80,0.57,0.58,0.52,
2.423,-0.12,-1.78,-2.42,0.57,0.58,0.52,
2.423,-0.12,-1.78,-2.42,0.58,0.59,0.51,
2.423,-0.12,-1.78,-2.42,0.59,0.59,0.51,
2.424,-0.12,-1.78,-2.42,0.60,0.60,0.51,
2.424,-0.12,-1.78,-2.42,0.61,0.62,0.51,
2.424,-0.12,-1.78,-2.42,0.63,0.63,0.51,
2.425,-0.24,-1.86,-2.03,0.63,0.63,0.51,
2.425,-0.24,-1.86,-2.03,0.65,0.65,0.51,
2.425,-0.24,-1.86,-2.03,0.68,0.66,0.51,
2.426,-0.24,-1.86,-2.03,0.70,0.68,0.52,
2.426,-0.24,-1.86,-2.03,0.73,0.69,0.53,
2.426,-0.24,-1.86,-2.03,0.76,0.70,0.53,
2.426,-0.36,-1.93,-1.85,0.76,0.70,0.53,
2.427,-0.36,-1.93,-1.85,0.79,0.72,0.54,
2.427,-0.36,-1.93,-1.85,0.81,0.73,0.55,
2.427,-0.36,-1.93,-1.85,0.84,0.74,0.56,
2.427,-0.36,-1.93,-1.85,0.87,0.75,0.57,
2.427,-0.36,-1.93,-1.85,0.89,0.76,0.58,
2.428,-0.47,-1.91,-2.01,0.89,0.76,0.58,
2.428,-0.47,-1.91,-2.01,0.93,0.77,0.60,
2.428,-0.47,-1.91,-2.01,0.94,0.77,0.60,
2.428,-0.47,-1.91,-2.01,0.96,0.77,0.61,
2.429,-0.47,-1.91,-2.01,0.98,0.77,0.62,
2.429,-0.47,-1.91,-2.01,1.00,0.77,0.64,
2.434,-0.53,-1.94,-2.38,1.00,0.77,0.64,
2.434,-0.53,-1.94,-2.38,1.02,0.77,0.65,
2.434,-0.53,-1.94,-2.38,1.04,0.77,0.66,
2.437,-0.53,-1.94,-2.38,1.06,0.77,0.67,
2.437,-0.53,-1.94,-2.38,1.07,0.76,0.68,
2.439,-0.53,-1.94,-2.38,1.09,0.76,0.69,
2.441,-0.49,-1.88,-2.87,1.09,0.76,0.69,
2.442,-0.49,-1.88,-2.87,1.10,0.76,0.70,
2.442,-0.49,-1.88,-2.87,1.11,0.75,0.71,
2.445,-0.49,-1.88,-2.87,1.11,0.74,0.72,
2.447,-0.49,-1.88,-2.87,1.12,0.73,0.73,
2.45,-0.49,-1.88,-2.87,1.12,0.72,0.74,
2.451,-0.46,-1.71,-3.44,1.12,0.72,0.74,
2.452,-0.46,-1.71,-3.44,1.11,0.70,0.75,
2.454,-0.46,-1.71,-3.44,1.11,0.68,0.75,
2.454,-0.46,-1.71,-3.44,1.10,0.66,0.76,
2.457,-0.46,-1.71,-3.44,1.09,0.64,0.76,
2.459,-0.46,-1.71,-3.44,1.08,0.62,0.76,
2.461,-0.18,-1.60,-3.99,1.08,0.62,0.76,
2.461,-0.18,-1.60,-3.99,1.06,0.59,0.75,
2.462,-0.18,-1.60,-3.99,1.04,0.57,0.75,
2.468,-0.18,-1.60,-3.99,1.02,0.55,0.74,
2.469,-0.18,-1.60,-3.99,0.99,0.52,0.73,
2.471,-0.18,-1.60,-3.99,0.97,0.50,0.73,
2.472,0.13,-1.43,-4.48,0.97,0.50,0.73,
2.473,0.13,-1.43,-4.48,0.94,0.47,0.72,
2.473,0.13,-1.43,-4.48,0.91,0.45,0.70,
2.475,0.13,-1.43,-4.48,0.88,0.42,0.69,
2.477,0.13,-1.43,-4.48,0.84,0.40,0.68,
2.479,0.13,-1.43,-4.48,0.81,0.37,0.67,
2.482,0.38,-1.31,-4.66,0.81,0.37,0.67,
2.482,0.38,-1.31,-4.66,0.77,0.35,0.65,
2.483,0.38,-1.31,-4.66,0.73,0.32,0.64,
2.486,0.38,-1.31,-4.66,0.69,0.30,0.63,
2.487,0.38,-1.31,-4.66,0.65,0.28,0.61,
2.489,0.38,-1.31,-4.66,0.61,0.25,0.59,
2.491,0.62,-1.17,-4.65,0.61,0.25,0.59,
2.491,0.62,-1.17,-4.65,0.57,0.23,0.58,
2.493,0.62,-1.17,-4.65,0.53,0.20,0.56,
2.494,0.62,-1.17,-4.65,0.50,0.18,0.54,
2.496,0.62,-1.17,-4.65,0.46,0.15,0.53,
2.504,0.62,-1.17,-4.65,0.42,0.13,0.51,
2.532,0.87,-1.19,-4.13,0.42,0.13,0.51,
2.532,0.87,-1.19,-4.13,0.39,0.12,0.49,
2.532,0.87,-1.19,-4.13,0.35,0.10,0.47,
2.532,0.87,-1.19,-4.13,0.32,0.08,0.45,
2.533,0.87,-1.19,-4.13,0.29,0.07,0.43,
2.533,0.87,-1.19,-4.13,0.27,0.05,0.41,
2.533,1.02,-1.14,-3.40,0.27,0.05,0.41,
2.533,1.02,-1.14,-3.40,0.24,0.04,0.39,
2.533,1.02,-1.14,-3.40,0.22,0.04,0.37,
2.534,1.02,-1.14,-3.40,0.20,0.03,0.35,
2.534,1.02,-1.14,-3.40,0.18,0.03,0.34,
2.534,1.02,-1.14,-3.40,0.17,0.03,0.32,
2.534,0.90,-1.14,-2.51,0.17,0.03,0.32,
2.534,0.90,-1.14,-2.51,0.16,0.04,0.31,
2.535,0.90,-1.14,-2.51,0.15,0.04,0.30,
2.535,0.90,-1.14,-2.51,0.14,0.05,0.28,
2.535,0.90,-1.14,-2.51,0.13,0.07,0.27,
2.535,0.90,-1.14,-2.51,0.13,0.07,0.26,
2.535,0.81,-1.17,-1.78,0.13,0.07,0.26,
2.536,0.81,-1.17,-1.78,0.12,0.08,0.25,
2.536,0.81,-1.17,-1.78,0.12,0.09,0.24,
2.536,0.81,-1.17,-1.78,0.12,0.11,0.24,
2.544,0.81,-1.17,-1.78,0.11,0.12,0.23,
2.544,0.81,-1.17,-1.78,0.10,0.13,0.22,
2.544,0.75,-1.25,-1.25,0.10,0.13,0.22,
2.544,0.75,-1.25,-1.25,0.10,0.14,0.21,
2.545,0.75,-1.25,-1.25,0.10,0.16,0.21,
2.545,0.75,-1.25,-1.25,0.10,0.18,0.20,
2.552,0.75,-1.25,-1.25,0.10,0.19,0.19,
2.553,0.75,-1.25,-1.25,0.10,0.21,0.18,
2.553,0.84,-1.21,-0.90,0.10,0.21,0.18,
2.554,0.84,-1.21,-0.90,0.09,0.23,0.18,
2.581,0.84,-1.21,-0.90,0.09,0.25,0.17,
2.582,0.84,-1.21,-0.90,0.09,0.26,0.16,
2.582,0.84,-1.21,-0.90,0.09,0.28,0.15,
2.582,0.84,-1.21,-0.90,0.09,0.30,0.13,
2.582,0.90,-1.15,-0.62,0.09,0.30,0.13,
2.583,0.90,-1.15,-0.62,0.08,0.31,0.12,
2.583,0.90,-1.15,-0.62,0.08,0.33,0.11,
2.583,0.90,-1.15,-0.62,0.07,0.34,0.09,
2.583,0.90,-1.15,-0.62,0.07,0.36,0.08,
2.584,0.90,-1.15,-0.62,0.07,0.37,0.06,
2.584,1.04,-1.06,-0.41,0.07,0.37,0.06,
2.584,1.04,-1.06,-0.41,0.06,0.39,0.04,
2.584,1.04,-1.06,-0.41,0.06,0.40,0.03,
2.585,1.04,-1.06,-0.41,0.05,0.42,0.02,
2.585,1.04,-1.06,-0.41,0.04,0.43,-0.00,
2.585,1.04,-1.06,-0.41,0.04,0.44,-0.02,
2.586,1.08,-0.96,-0.20,0.04,0.44,-0.02,
2.586,1.08,-0.96,-0.20,0.04,0.45,-0.03,
2.586,1.08,-0.96,-0.20,0.03,0.45,-0.05,
2.594,1.08,-0.96,-0.20,0.02,0.46,-0.07,
2.595,1.08,-0.96,-0.20,0.02,0.46,-0.08,
2.595,1.08,-0.96,-0.20,0.01,0.46,-0.10,
2.595,1.16,-0.86,0.11,0.01,0.46,-0.10,
2.596,1.16,-0.86,0.11,0.01,0.46,-0.12,
2.596,1.16,-0.86,0.11,0.01,0.46,-0.14,
2.596,1.16,-0.86,0.11,0.00,0.46,-0.15,
2.6,1.16,-0.86,0.11,0.00,0.47,-0.16,
2.609,1.16,-0.86,0.11,-0.00,0.47,-0.18,
2.61,1.02,-0.72,0.45,-0.00,0.47,-0.18,
2.61,1.02,-0.72,0.45,0.00,0.47,-0.18,
2.611,1.02,-0.72,0.45,0.00,0.47,-0.19,
2.611,1.02,-0.72,0.45,0.00,0.48,-0.20,
2.611,1.02,-0.72,0.45,0.00,0.47,-0.20,
2.611,1.02,-0.72,0.45,0.01,0.47,-0.20,
2.612,0.78,-0.69,0.66,0.01,0.47,-0.20,
2.612,0.78,-0.69,0.66,0.01,0.46,-0.20,
2.616,0.78,-0.69,0.66,0.01,0.45,-0.20,
2.616,0.78,-0.69,0.66,0.00,0.43,-0.20,
2.618,0.78,-0.69,0.66,0.00,0.42,-0.20,
2.619,0.78,-0.69,0.66,0.00,0.39,-0.20,
2.621,0.46,-0.63,0.75,0.00,0.39,-0.20,
2.621,0.46,-0.63,0.75,0.00,0.37,-0.19,
2.623,0.46,-0.63,0.75,0.00,0.35,-0.19,
2.625,0.46,-0.63,0.75,0.01,0.32,-0.19,
2.627,0.46,-0.63,0.75,0.01,0.29,-0.19,
2.629,0.46,-0.63,0.75,0.01,0.27,-0.18,
2.638,0.40,-0.54,0.94,0.01,0.27,-0.18,
2.639,0.40,-0.54,0.94,0.02,0.24,-0.18,
2.639,0.40,-0.54,0.94,0.02,0.22,-0.18,
2.639,0.40,-0.54,0.94,0.02,0.20,-0.18,
2.64,0.40,-0.54,0.94,0.03,0.17,-0.18,
2.64,0.40,-0.54,0.94,0.04,0.15,-0.19,
2.673,0.43,-0.33,1.14,0.04,0.15,-0.19,
2.673,0.43,-0.33,1.14,0.04,0.12,-0.19,
2.673,0.43,-0.33,1.14,0.04,0.10,-0.19,
2.673,0.43,-0.33,1.14,0.05,0.08,-0.19,
2.674,0.43,-0.33,1.14,0.06,0.07,-0.19,
2.674,0.43,-0.33,1.14,0.07,0.05,-0.19,
2.674,0.44,-0.09,1.43,0.07,0.05,-0.19,
2.674,0.44,-0.09,1.43,0.08,0.04,-0.19,
2.674,0.44,-0.09,1.43,0.08,0.03,-0.19,
2.674,0.44,-0.09,1.43,0.09,0.03,-0.19,
2.674,0.44,-0.09,1.43,0.10,0.04,-0.18,
2.675,0.44,-0.09,1.43,0.11,0.05,-0.18,
2.675,0.37,0.11,1.66,0.11,0.05,-0.18,
2.675,0.37,0.11,1.66,0.12,0.06,-0.17,
2.675,0.37,0.11,1.66,0.12,0.07,-0.16,
2.675,0.37,0.11,1.66,0.12,0.09,-0.15,
2.692,0.37,0.11,1.66,0.12,0.10,-0.14,
2.692,0.37,0.11,1.66,0.12,0.12,-0.13,
2.692,0.41,0.13,1.56,0.12,0.12,-0.13,
2.692,0.41,0.13,1.56,0.11,0.14,-0.12,
2.693,0.41,0.13,1.56,0.10,0.15,-0.11,
2.693,0.41,0.13,1.56,0.09,0.17,-0.10,
2.693,0.41,0.13,1.56,0.06,0.18,-0.09,
2.693,0.41,0.13,1.56,0.04,0.20,-0.09,
2.693,0.63,0.14,1.08,0.04,0.20,-0.09,
2.694,0.63,0.14,1.08,0.02,0.22,-0.08,
2.694,0.63,0.14,1.08,-0.02,0.23,-0.08,
2.694,0.63,0.14,1.08,-0.06,0.25,-0.07,
2.694,0.63,0.14,1.08,-0.11,0.27,-0.07,
2.694,0.63,0.14,1.08,-0.16,0.28,-0.07,
2.695,0.92,0.28,0.51,-0.16,0.28,-0.07,
2.695,0.92,0.28,0.51,-0.20,0.30,-0.07,
2.695,0.92,0.28,0.51,-0.25,0.31,-0.07,
2.695,0.92,0.28,0.51,-0.31,0.32,-0.07,
2.706,0.92,0.28,0.51,-0.36,0.34,-0.08,
2.706,0.92,0.28,0.51,-0.41,0.35,-0.09,
2.706,1.17,0.46,0.25,-0.41,0.35,-0.09,
2.706,1.17,0.46,0.25,-0.46,0.35,-0.10,
2.707,1.17,0.46,0.25,-0.51,0.36,-0.11,
2.707,1.17,0.46,0.25,-0.57,0.36,-0.12,
2.707,1.17,0.46,0.25,-0.62,0.35,-0.14,
2.71,1.17,0.46,0.25,-0.67,0.35,-0.16,
2.719,1.58,0.55,0.45,-0.67,0.35,-0.16,
2.719,1.58,0.55,0.45,-0.71,0.35,-0.19,
2.719,1.58,0.55,0.45,-0.76,0.34,-0.21,
2.719,1.58,0.55,0.45,-0.80,0.34,-0.23,
2.72,1.58,0.55,0.45,-0.84,0.33,-0.26,
2.72,1.58,0.55,0.45,-0.88,0.33,-0.28,
2.737,1.79,0.61,0.90,-0.88,0.33,-0.28,
2.737,1.79,0.61,0.90,-0.92,0.32,-0.31,
2.737,1.79,0.61,0.90,-0.95,0.32,-0.34,
2.738,1.79,0.61,0.90,-0.99,0.32,-0.36,
2.738,1.79,0.61,0.90,-1.02,0.31,-0.39,
2.738,1.79,0.61,0.90,-1.05,0.31,-0.41,
2.738,1.86,0.55,1.50,-1.05,0.31,-0.41,
2.738,1.86,0.55,1.50,-1.08,0.30,-0.43,
2.738,1.86,0.55,1.50,-1.10,0.30,-0.45,
2.738,1.86,0.55,1.50,-1.12,0.30,-0.47,
2.738,1.86,0.55,1.50,-1.14,0.31,-0.48,
2.74,1.86,0.55,1.50,-1.15,0.31,-0.49,
2.742,1.50,0.37,2.15,-1.15,0.31,-0.49,
2.742,1.50,0.37,2.15,-1.17,0.31,-0.50,
2.743,1.50,0.37,2.15,-1.17,0.32,-0.50,
2.745,1.50,0.37,2.15,-1.19,0.33,-0.51,
2.747,1.50,0.37,2.15,-1.20,0.33,-0.51,
2.749,1.50,0.37,2.15,-1.20,0.33,-0.52,
2.751,1.26,0.01,2.74,-1.20,0.33,-0.52,
2.751,1.26,0.01,2.74,-1.20,0.34,-0.52,
2.753,1.26,0.01,2.74,-1.19,0.34,-0.52,
2.754,1.26,0.01,2.74,-1.18,0.35,-0.52,
2.756,1.26,0.01,2.74,-1.17,0.35,-0.53,
2.758,1.26,0.01,2.74,-1.15,0.36,-0.53,
2.761,0.98,-0.35,3.24,-1.15,0.36,-0.53,
2.761,0.98,-0.35,3.24,-1.13,0.36,-0.53,
2.763,0.98,-0.35,3.24,-1.10,0.37,-0.53,
2.765,0.98,-0.35,3.24,-1.07,0.37,-0.52,
2.767,0.98,-0.35,3.24,-1.05,0.37,-0.51,
2.768,0.98,-0.35,3.24,-1.02,0.37,-0.51,
2.771,0.62,-0.59,3.57,-1.02,0.37,-0.51,
2.771,0.62,-0.59,3.57,-0.96,0.36,-0.49,
2.773,0.62,-0.59,3.57,-0.94,0.36,-0.49,
2.775,0.62,-0.59,3.57,-0.91,0.36,-0.47,
2.776,0.62,-0.59,3.57,-0.87,0.35,-0.46,
2.778,0.62,-0.59,3.57,-0.84,0.35,-0.45,
2.782,0.29,-0.72,3.57,-0.84,0.35,-0.45,
2.782,0.29,-0.72,3.57,-0.81,0.34,-0.43,
2.783,0.29,-0.72,3.57,-0.76,0.33,-0.41,
2.785,0.29,-0.72,3.57,-0.72,0.32,-0.39,
2.787,0.29,-0.72,3.57,-0.68,0.30,-0.37,
2.789,0.29,-0.72,3.57,-0.63,0.29,-0.35,
2.791,-0.01,-0.83,3.34,-0.63,0.29,-0.35,
2.792,-0.01,-0.83,3.34,-0.59,0.27,-0.33,
2.794,-0.01,-0.83,3.34,-0.56,0.24,-0.31,
2.795,-0.01,-0.83,3.34,-0.52,0.22,-0.29,
2.803,-0.01,-0.83,3.34,-0.49,0.20,-0.26,
2.804,-0.01,-0.83,3.34,-0.44,0.17,-0.24,
2.804,-0.16,-0.72,2.84,-0.44,0.17,-0.24,
2.804,-0.16,-0.72,2.84,-0.41,0.14,-0.22,
2.805,-0.16,-0.72,2.84,-0.37,0.11,-0.19,
2.805,-0.16,-0.72,2.84,-0.34,0.09,-0.17,
2.808,-0.16,-0.72,2.84,-0.31,0.06,-0.15,
2.81,-0.16,-0.72,2.84,-0.29,0.03,-0.14,
2.812,-0.02,-0.61,2.16,-0.29,0.03,-0.14,
2.812,-0.02,-0.61,2.16,-0.26,-0.00,-0.12,
2.813,-0.02,-0.61,2.16,-0.24,-0.03,-0.10,
2.815,-0.02,-0.61,2.16,-0.23,-0.06,-0.09,
2.817,-0.02,-0.61,2.16,-0.21,-0.09,-0.08,
2.819,-0.02,-0.61,2.16,-0.19,-0.12,-0.07,
2.821,0.32,-0.43,1.34,-0.19,-0.12,-0.07,
2.821,0.32,-0.43,1.34,-0.18,-0.15,-0.06,
2.823,0.32,-0.43,1.34,-0.17,-0.17,-0.05,
2.825,0.32,-0.43,1.34,-0.17,-0.20,-0.05,
2.827,0.32,-0.43,1.34,-0.16,-0.22,-0.04,
2.829,0.32,-0.43,1.34,-0.16,-0.25,-0.04,
2.831,0.70,-0.23,0.57,-0.16,-0.25,-0.04,
2.832,0.70,-0.23,0.57,-0.16,-0.27,-0.04,
2.857,0.70,-0.23,0.57,-0.17,-0.29,-0.04,
2.857,0.70,-0.23,0.57,-0.18,-0.31,-0.04,
2.857,0.70,-0.23,0.57,-0.18,-0.32,-0.04,
2.858,0.70,-0.23,0.57,-0.19,-0.34,-0.05,
2.858,1.01,-0.04,-0.07,-0.19,-0.34,-0.05,
2.858,1.01,-0.04,-0.07,-0.20,-0.35,-0.05,
2.858,1.01,-0.04,-0.07,-0.21,-0.36,-0.06,
2.859,1.01,-0.04,-0.07,-0.23,-0.36,-0.07,
2.859,1.01,-0.04,-0.07,-0.25,-0.37,-0.07,
2.859,1.01,-0.04,-0.07,-0.26,-0.37,-0.09,
2.859,1.29,0.05,-0.67,-0.26,-0.37,-0.09,
2.86,1.29,0.05,-0.67,-0.29,-0.37,-0.10,
2.86,1.29,0.05,-0.67,-0.31,-0.37,-0.11,
2.86,1.29,0.05,-0.67,-0.33,-0.36,-0.12,
2.86,1.29,0.05,-0.67,-0.35,-0.36,-0.13,
2.861,1.29,0.05,-0.67,-0.37,-0.35,-0.14,
2.861,1.37,0.09,-1.10,-0.37,-0.35,-0.14,
2.861,1.37,0.09,-1.10,-0.40,-0.34,-0.15,
2.868,1.37,0.09,-1.10,-0.42,-0.33,-0.16,
2.868,1.37,0.09,-1.10,-0.44,-0.32,-0.17,
2.868,1.37,0.09,-1.10,-0.46,-0.31,-0.19,
2.876,1.37,0.09,-1.10,-0.49,-0.31,-0.20,
2.877,1.41,0.08,-1.37,-0.49,-0.31,-0.20,
2.877,1.41,0.08,-1.37,-0.52,-0.29,-0.21,
2.878,1.41,0.08,-1.37,-0.53,-0.28,-0.22,
2.878,1.41,0.08,-1.37,-0.55,-0.28,-0.23,
2.878,1.41,0.08,-1.37,-0.56,-0.27,-0.25,
2.881,1.41,0.08,-1.37,-0.58,-0.26,-0.26,
2.906,1.25,0.04,-1.35,-0.58,-0.26,-0.26,
2.906,1.25,0.04,-1.35,-0.59,-0.25,-0.27,
2.907,1.25,0.04,-1.35,-0.60,-0.24,-0.28,
2.907,1.25,0.04,-1.35,-0.61,-0.22,-0.29,
2.907,1.25,0.04,-1.35,-0.61,-0.21,-0.30,
2.907,1.25,0.04,-1.35,-0.62,-0.20,-0.31,
2.907,1.01,-0.01,-1.27,-0.62,-0.20,-0.31,
2.908,1.01,-0.01,-1.27,-0.62,-0.18,-0.31,
2.908,1.01,-0.01,-1.27,-0.61,-0.17,-0.32,
2.908,1.01,-0.01,-1.27,-0.61,-0.16,-0.32,
2.908,1.01,-0.01,-1.27,-0.61,-0.15,-0.32,
2.909,1.01,-0.01,-1.27,-0.60,-0.14,-0.32,
2.909,0.67,-0.10,-1.21,-0.60,-0.14,-0.32,
2.909,0.67,-0.10,-1.21,-0.59,-0.13,-0.32,
2.909,0.67,-0.10,-1.21,-0.59,-0.12,-0.32,
2.91,0.67,-0.10,-1.21,-0.58,-0.12,-0.32,
2.91,0.67,-0.10,-1.21,-0.57,-0.11,-0.32,
2.914,0.67,-0.10,-1.21,-0.55,-0.11,-0.31,
2.915,0.36,-0.22,-1.23,-0.55,-0.11,-0.31,
2.915,0.36,-0.22,-1.23,-0.54,-0.12,-0.31,
2.915,0.36,-0.22,-1.23,-0.52,-0.11,-0.30,
2.915,0.36,-0.22,-1.23,-0.50,-0.12,-0.29,
2.917,0.36,-0.22,-1.23,-0.49,-0.12,-0.29,
2.919,0.36,-0.22,-1.23,-0.47,-0.13,-0.28,
2.923,0.14,-0.25,-1.32,-0.47,-0.13,-0.28,
2.923,0.14,-0.25,-1.32,-0.45,-0.13,-0.28,
2.924,0.14,-0.25,-1.32,-0.43,-0.13,-0.27,
2.925,0.14,-0.25,-1.32,-0.41,-0.14,-0.26,
2.926,0.14,-0.25,-1.32,-0.39,-0.15,-0.25,
2.93,0.14,-0.25,-1.32,-0.37,-0.16,-0.25,
2.932,-0.00,-0.29,-1.54,-0.37,-0.16,-0.25,
2.933,-0.00,-0.29,-1.54,-0.35,-0.17,-0.24,
2.933,-0.00,-0.29,-1.54,-0.34,-0.19,-0.23,
2.935,-0.00,-0.29,-1.54,-0.33,-0.20,-0.23,
2.938,-0.00,-0.29,-1.54,-0.31,-0.21,-0.22,
2.939,-0.00,-0.29,-1.54,-0.30,-0.23,-0.22,
2.941,-0.04,-0.31,-1.79,-0.30,-0.23,-0.22,
2.941,-0.04,-0.31,-1.79,-0.28,-0.25,-0.21,
2.943,-0.04,-0.31,-1.79,-0.26,-0.27,-0.20,
2.944,-0.04,-0.31,-1.79,-0.25,-0.29,-0.20,
2.953,-0.04,-0.31,-1.79,-0.23,-0.31,-0.20,
2.954,-0.04,-0.31,-1.79,-0.21,-0.33,-0.19,
2.954,0.02,-0.22,-1.88,-0.21,-0.33,-0.19,
2.954,0.02,-0.22,-1.88,-0.20,-0.36,-0.19,
2.954,0.02,-0.22,-1.88,-0.18,-0.38,-0.19,
2.955,0.02,-0.22,-1.88,-0.16,-0.40,-0.19,
2.959,0.02,-0.22,-1.88,-0.15,-0.42,-0.19,
2.96,0.02,-0.22,-1.88,-0.14,-0.44,-0.19,
2.963,0.12,-0.09,-1.83,-0.14,-0.44,-0.19,
2.964,0.12,-0.09,-1.83,-0.11,-0.45,-0.19,
2.964,0.12,-0.09,-1.83,-0.09,-0.46,-0.20,
2.99,0.12,-0.09,-1.83,-0.07,-0.48,-0.20,
2.991,0.12,-0.09,-1.83,-0.05,-0.49,-0.21,
2.991,0.12,-0.09,-1.83,-0.03,-0.50,-0.22,
2.991,0.22,0.08,-1.74,-0.03,-0.50,-0.22,
2.992,0.22,0.08,-1.74,-0.01,-0.51,-0.22,
2.992,0.22,0.08,-1.74,0.01,-0.51,-0.23,
2.992,0.22,0.08,-1.74,0.03,-0.52,-0.24,
2.992,0.22,0.08,-1.74,0.05,-0.52,-0.25,
2.992,0.22,0.08,-1.74,0.07,-0.52,-0.26,
2.992,0.31,0.15,-1.72,0.07,-0.52,-0.26,
2.993,0.31,0.15,-1.72,0.08,-0.52,-0.27,
2.993,0.31,0.15,-1.72,0.10,-0.52,-0.27,
2.993,0.31,0.15,-1.72,0.12,-0.51,-0.28,
2.993,0.31,0.15,-1.72,0.13,-0.50,-0.29,
2.993,0.31,0.15,-1.72,0.14,-0.50,-0.29,
2.994,0.27,0.21,-1.81,0.14,-0.50,-0.29,
2.994,0.27,0.21,-1.81,0.15,-0.49,-0.30,
2.994,0.27,0.21,-1.81,0.16,-0.48,-0.30,
2.998,0.27,0.21,-1.81,0.17,-0.47,-0.31,
2.998,0.27,0.21,-1.81,0.18,-0.45,-0.32,
3.006,0.27,0.21,-1.81,0.18,-0.44,-0.32,
3.027,0.16,0.24,-1.98,0.18,-0.44,-0.32,
3.027,0.16,0.24,-1.98,0.19,-0.43,-0.32,
3.027,0.16,0.24,-1.98,0.19,-0.42,-0.32,
3.027,0.16,0.24,-1.98,0.19,-0.41,-0.33,
3.027,0.16,0.24,-1.98,0.19,-0.40,-0.33,
3.027,0.16,0.24,-1.98,0.18,-0.40,-0.33,
3.028,0.12,0.30,-2.21,0.18,-0.40,-0.33,
3.028,0.12,0.30,-2.21,0.18,-0.39,-0.33,
3.028,0.12,0.30,-2.21,0.17,-0.38,-0.34,
3.028,0.12,0.30,-2.21,0.17,-0.38,-0.34,
3.028,0.12,0.30,-2.21,0.16,-0.37,-0.34,
3.029,0.12,0.30,-2.21,0.16,-0.37,-0.35,
3.029,0.07,0.31,-2.27,0.16,-0.37,-0.35,
3.029,0.07,0.31,-2.27,0.15,-0.36,-0.35,
3.029,0.07,0.31,-2.27,0.15,-0.35,-0.35,
3.029,0.07,0.31,-2.27,0.14,-0.35,-0.36,
3.03,0.07,0.31,-2.27,0.13,-0.34,-0.36,
3.03,0.07,0.31,-2.27,0.13,-0.34,-0.36,
3.036,0.07,0.37,-2.25,0.13,-0.34,-0.36,
3.036,0.07,0.37,-2.25,0.12,-0.34,-0.37,
3.036,0.07,0.37,-2.25,0.12,-0.34,-0.37,
3.036,0.07,0.37,-2.25,0.11,-0.34,-0.38,
3.041,0.07,0.37,-2.25,0.10,-0.34,-0.39,
3.042,0.07,0.37,-2.25,0.09,-0.34,-0.39,
3.042,0.07,0.38,-2.18,0.09,-0.34,-0.39,
3.042,0.07,0.38,-2.18,0.09,-0.34,-0.40,
3.043,0.07,0.38,-2.18,0.08,-0.35,-0.41,
3.047,0.07,0.38,-2.18,0.07,-0.35,-0.42,
3.047,0.07,0.38,-2.18,0.06,-0.36,-0.42,
3.052,0.07,0.38,-2.18,0.06,-0.36,-0.43,
3.052,0.06,0.43,-2.10,0.06,-0.36,-0.43,
3.052,0.06,0.43,-2.10,0.04,-0.37,-0.44,
3.077,0.06,0.43,-2.10,0.03,-0.37,-0.45,
3.077,0.06,0.43,-2.10,0.02,-0.38,-0.46,
3.078,0.06,0.43,-2.10,0.01,-0.39,-0.47,
3.078,0.06,0.43,-2.10,-0.01,-0.39,-0.48,
3.078,0.04,0.48,-1.99,-0.01,-0.39,-0.48,
3.078,0.04,0.48,-1.99,-0.02,-0.40,-0.49,
3.079,0.04,0.48,-1.99,-0.03,-0.40,-0.51,
3.079,0.04,0.48,-1.99,-0.04,-0.41,-0.52,
3.079,0.04,0.48,-1.99,-0.05,-0.41,-0.53,
3.079,0.04,0.48,-1.99,-0.06,-0.42,-0.54,
3.079,-0.06,0.55,-1.71,-0.06,-0.42,-0.54,
3.08,-0.06,0.55,-1.71,-0.07,-0.42,-0.55,
3.08,-0.06,0.55,-1.71,-0.08,-0.43,-0.56,
3.08,-0.06,0.55,-1.71,-0.09,-0.43,-0.57,
3.08,-0.06,0.55,-1.71,-0.10,-0.44,-0.57,
3.08,-0.06,0.55,-1.71,-0.10,-0.44,-0.58,
3.088,-0.33,0.56,-1.26,-0.10,-0.44,-0.58,
3.088,-0.33,0.56,-1.26,-0.11,-0.45,-0.58,
3.088,-0.33,0.56,-1.26,-0.13,-0.45,-0.59,
3.088,-0.33,0.56,-1.26,-0.13,-0.45,-0.60,
3.088,-0.33,0.56,-1.26,-0.14,-0.45,-0.60,
3.093,-0.33,0.56,-1.26,-0.14,-0.44,-0.60,
3.093,-0.58,0.54,-0.72,-0.14,-0.44,-0.60,
3.094,-0.58,0.54,-0.72,-0.15,-0.44,-0.60,
3.094,-0.58,0.54,-0.72,-0.15,-0.42,-0.60,
3.101,-0.58,0.54,-0.72,-0.15,-0.41,-0.60,
3.101,-0.58,0.54,-0.72,-0.16,-0.39,-0.60,
3.101,-0.58,0.54,-0.72,-0.15,-0.38,-0.59,
3.101,-0.86,0.46,-0.15,-0.15,-0.38,-0.59,
3.101,-0.86,0.46,-0.15,-0.14,-0.36,-0.59,
3.103,-0.86,0.46,-0.15,-0.15,-0.34,-0.58,
3.105,-0.86,0.46,-0.15,-0.14,-0.32,-0.58,
3.107,-0.86,0.46,-0.15,-0.14,-0.31,-0.57,
3.109,-0.86,0.46,-0.15,-0.13,-0.29,-0.56,
3.118,-1.21,0.49,0.37,-0.13,-0.29,-0.56,
3.118,-1.21,0.49,0.37,-0.13,-0.27,-0.55,
3.118,-1.21,0.49,0.37,-0.13,-0.26,-0.54,
3.118,-1.21,0.49,0.37,-0.13,-0.24,-0.53,
3.119,-1.21,0.49,0.37,-0.12,-0.21,-0.52,
3.119,-1.21,0.49,0.37,-0.12,-0.19,-0.51,
3.122,-1.41,0.58,0.72,-0.12,-0.19,-0.51,
3.122,-1.41,0.58,0.72,-0.12,-0.16,-0.49,
3.128,-1.41,0.58,0.72,-0.12,-0.11,-0.47,
3.128,-1.41,0.58,0.72,-0.12,-0.11,-0.47,
3.129,-1.41,0.58,0.72,-0.12,-0.11,-0.47,
3.13,-1.41,0.58,0.72,-0.12,-0.09,-0.45,
3.13,-1.41,0.58,0.72,-0.12,-0.08,-0.45,
3.131,-1.65,0.60,0.97,-0.12,-0.08,-0.45,
3.132,-1.65,0.60,0.97,-0.12,-0.07,-0.44,
3.134,-1.65,0.60,0.97,-0.12,-0.06,-0.43,
3.137,-1.65,0.60,0.97,-0.12,-0.05,-0.42,
3.138,-1.65,0.60,0.97,-0.13,-0.05,-0.40,
3.141,-1.72,0.64,1.28,-0.13,-0.05,-0.40,
3.141,-1.72,0.64,1.28,-0.13,-0.05,-0.39,
3.142,-1.72,0.64,1.28,-0.14,-0.05,-0.38,
3.144,-1.72,0.64,1.28,-0.14,-0.06,-0.37,
3.147,-1.72,0.64,1.28,-0.14,-0.06,-0.36,
3.148,-1.72,0.64,1.28,-0.15,-0.07,-0.35,
3.151,-1.76,0.67,1.67,-0.15,-0.07,-0.35,
3.151,-1.76,0.67,1.67,-0.15,-0.08,-0.35,
3.153,-1.76,0.67,1.67,-0.15,-0.09,-0.34,
3.155,-1.76,0.67,1.67,-0.16,-0.11,-0.33,
3.156,-1.76,0.67,1.67,-0.16,-0.12,-0.32,
3.159,-1.76,0.67,1.67,-0.16,-0.13,-0.31,
3.161,-1.65,0.65,2.16,-0.16,-0.13,-0.31,
3.162,-1.65,0.65,2.16,-0.16,-0.14,-0.30,
3.163,-1.65,0.65,2.16,-0.17,-0.16,-0.30,
3.165,-1.65,0.65,2.16,-0.17,-0.17,-0.29,
3.179,-1.65,0.65,2.16,-0.17,-0.19,-0.28,
3.179,-1.65,0.65,2.16,-0.17,-0.21,-0.27,
3.179,-1.56,0.57,2.71,-0.17,-0.21,-0.27,
3.18,-1.56,0.57,2.71,-0.17,-0.22,-0.27,
3.18,-1.56,0.57,2.71,-0.17,-0.23,-0.26,
3.18,-1.56,0.57,2.71,-0.17,-0.24,-0.25,
3.18,-1.56,0.57,2.71,-0.17,-0.26,-0.24,
3.18,-1.56,0.57,2.71,-0.17,-0.26,-0.24,
3.183,-1.33,0.53,3.34,-0.17,-0.26,-0.24,
3.183,-1.33,0.53,3.34,-0.18,-0.27,-0.23,
3.184,-1.33,0.53,3.34,-0.17,-0.26,-0.23,
3.187,-1.33,0.53,3.34,-0.17,-0.26,-0.22,
3.187,-1.33,0.53,3.34,-0.17,-0.25,-0.22,
3.189,-1.33,0.53,3.34,-0.16,-0.23,-0.22,
3.191,-1.02,0.49,4.09,-0.16,-0.23,-0.22,
3.191,-1.02,0.49,4.09,-0.16,-0.20,-0.22,
3.192,-1.02,0.49,4.09,-0.15,-0.17,-0.22,
3.195,-1.02,0.49,4.09,-0.13,-0.13,-0.22,
3.197,-1.02,0.49,4.09,-0.12,-0.09,-0.22,
3.199,-1.02,0.49,4.09,-0.10,-0.04,-0.22,
3.202,-0.79,0.47,4.84,-0.10,-0.04,-0.22,
3.202,-0.79,0.47,4.84,-0.06,0.02,-0.21,
3.202,-0.79,0.47,4.84,-0.04,0.08,-0.22,
3.204,-0.79,0.47,4.84,-0.01,0.14,-0.21,
3.206,-0.79,0.47,4.84,0.03,0.20,-0.21,
3.209,-0.79,0.47,4.84,0.07,0.28,-0.21,
3.215,-0.94,0.47,5.34,0.07,0.28,-0.21,
3.215,-0.94,0.47,5.34,0.11,0.35,-0.20,
3.215,-0.94,0.47,5.34,0.15,0.43,-0.20,
3.215,-0.94,0.47,5.34,0.19,0.51,-0.19,
3.216,-0.94,0.47,5.34,0.23,0.59,-0.18,
3.222,-0.94,0.47,5.34,0.26,0.66,-0.17,
3.237,-1.22,0.63,4.90,0.26,0.66,-0.17,
3.237,-1.22,0.63,4.90,0.28,0.73,-0.17,
3.237,-1.22,0.63,4.90,0.31,0.80,-0.16,
3.237,-1.22,0.63,4.90,0.32,0.86,-0.15,
3.238,-1.22,0.63,4.90,0.33,0.90,-0.14,
3.238,-1.22,0.63,4.90,0.33,0.93,-0.13,
3.238,-1.44,0.65,3.61,0.33,0.93,-0.13,
3.238,-1.44,0.65,3.61,0.32,0.94,-0.12,
3.238,-1.44,0.65,3.61,0.30,0.95,-0.11,
3.238,-1.44,0.65,3.61,0.28,0.95,-0.10,
3.239,-1.44,0.65,3.61,0.26,0.94,-0.10,
3.241,-1.44,0.65,3.61,0.23,0.93,-0.10,
3.241,-1.45,0.66,2.45,0.23,0.93,-0.10,
3.242,-1.45,0.66,2.45,0.20,0.90,-0.10,
3.242,-1.45,0.66,2.45,0.17,0.88,-0.10,
3.249,-1.45,0.66,2.45,0.14,0.84,-0.10,
3.25,-1.45,0.66,2.45,0.12,0.81,-0.11,
3.25,-1.45,0.66,2.45,0.09,0.78,-0.11,
3.251,-1.48,0.73,2.05,0.09,0.78,-0.11,
3.251,-1.48,0.73,2.05,0.07,0.74,-0.12,
3.252,-1.48,0.73,2.05,0.05,0.70,-0.13,
3.255,-1.48,0.73,2.05,0.03,0.67,-0.14,
3.256,-1.48,0.73,2.05,0.01,0.63,-0.16,
3.258,-1.48,0.73,2.05,0.00,0.60,-0.17,
3.261,-1.61,0.66,2.25,0.00,0.60,-0.17,
3.262,-1.61,0.66,2.25,-0.01,0.56,-0.18,
3.263,-1.61,0.66,2.25,-0.02,0.54,-0.18,
3.264,-1.61,0.66,2.25,-0.02,0.51,-0.19,
3.267,-1.61,0.66,2.25,-0.02,0.49,-0.20,
3.268,-1.61,0.66,2.25,-0.02,0.47,-0.20,
3.271,-1.97,0.35,2.71,-0.02,0.47,-0.20,
3.271,-1.97,0.35,2.71,-0.02,0.46,-0.20,
3.272,-1.97,0.35,2.71,-0.02,0.45,-0.20,
3.275,-1.97,0.35,2.71,-0.01,0.44,-0.19,
3.277,-1.97,0.35,2.71,0.00,0.44,-0.18,
3.279,-1.97,0.35,2.71,0.01,0.44,-0.17,
3.281,-2.31,-0.17,3.07,0.01,0.44,-0.17,
3.281,-2.31,-0.17,3.07,0.02,0.44,-0.16,
3.282,-2.31,-0.17,3.07,0.03,0.45,-0.14,
3.284,-2.31,-0.17,3.07,0.04,0.46,-0.13,
3.286,-2.31,-0.17,3.07,0.05,0.47,-0.11,
3.288,-2.31,-0.17,3.07,0.07,0.49,-0.09,
3.291,-2.74,-0.63,3.20,0.07,0.49,-0.09,
3.291,-2.74,-0.63,3.20,0.08,0.50,-0.07,
3.292,-2.74,-0.63,3.20,0.09,0.52,-0.04,
3.294,-2.74,-0.63,3.20,0.10,0.54,-0.02,
3.296,-2.74,-0.63,3.20,0.12,0.56,0.01,
3.299,-2.74,-0.63,3.20,0.13,0.58,0.03,
3.301,-3.04,-0.82,2.98,0.13,0.58,0.03,
3.301,-3.04,-0.82,2.98,0.14,0.60,0.06,
3.302,-3.04,-0.82,2.98,0.15,0.62,0.09,
3.304,-3.04,-0.82,2.98,0.16,0.64,0.12,
3.306,-3.04,-0.82,2.98,0.16,0.66,0.15,
3.309,-3.04,-0.82,2.98,0.17,0.67,0.17,
3.311,-3.26,-0.98,2.41,0.17,0.67,0.17,
3.311,-3.26,-0.98,2.41,0.17,0.68,0.20,
3.312,-3.26,-0.98,2.41,0.17,0.68,0.23,
3.314,-3.26,-0.98,2.41,0.16,0.68,0.26,
3.316,-3.26,-0.98,2.41,0.15,0.68,0.29,
3.318,-3.26,-0.98,2.41,0.14,0.67,0.32,
3.321,-3.28,-0.97,1.75,0.14,0.67,0.32,
3.321,-3.28,-0.97,1.75,0.14,0.67,0.35,
3.322,-3.28,-0.97,1.75,0.13,0.64,0.38,
3.325,-3.28,-0.97,1.75,0.12,0.63,0.41,
3.329,-3.28,-0.97,1.75,0.10,0.60,0.44,
3.329,-3.28,-0.97,1.75,0.08,0.58,0.46,
3.332,-3.07,-0.96,1.22,0.08,0.58,0.46,
3.332,-3.07,-0.96,1.22,0.07,0.55,0.48,
3.342,-3.07,-0.96,1.22,0.06,0.52,0.51,
3.342,-3.07,-0.96,1.22,0.04,0.48,0.53,
3.342,-3.07,-0.96,1.22,0.02,0.45,0.55,
3.342,-3.07,-0.96,1.22,0.01,0.40,0.57,
3.342,-2.53,-0.92,0.92,0.01,0.40,0.57,
3.343,-2.53,-0.92,0.92,-0.01,0.36,0.59,
3.343,-2.53,-0.92,0.92,-0.02,0.31,0.60,
3.344,-2.53,-0.92,0.92,-0.04,0.27,0.61,
3.349,-2.53,-0.92,0.92,-0.05,0.22,0.62,
3.35,-2.53,-0.92,0.92,-0.06,0.17,0.63,
3.351,-1.76,-0.89,0.95,-0.06,0.17,0.63,
3.351,-1.76,-0.89,0.95,-0.07,0.12,0.63,
3.352,-1.76,-0.89,0.95,-0.08,0.07,0.63,
3.355,-1.76,-0.89,0.95,-0.09,0.03,0.63,
3.356,-1.76,-0.89,0.95,-0.09,-0.01,0.63,
3.358,-1.76,-0.89,0.95,-0.10,-0.05,0.62,
3.361,-1.02,-0.75,1.23,-0.10,-0.05,0.62,
3.361,-1.02,-0.75,1.23,-0.10,-0.09,0.61,
3.363,-1.02,-0.75,1.23,-0.10,-0.11,0.61,
3.364,-1.02,-0.75,1.23,-0.10,-0.13,0.60,
3.366,-1.02,-0.75,1.23,-0.10,-0.15,0.59,
3.369,-1.02,-0.75,1.23,-0.09,-0.16,0.58,
3.371,-0.47,-0.70,1.51,-0.09,-0.16,0.58,
3.371,-0.47,-0.70,1.51,-0.08,-0.17,0.56,
3.372,-0.47,-0.70,1.51,-0.08,-0.17,0.56,
3.374,-0.47,-0.70,1.51,-0.07,-0.16,0.55,
3.377,-0.47,-0.70,1.51,-0.07,-0.14,0.53,
3.379,-0.47,-0.70,1.51,-0.06,-0.13,0.52,
3.381,-0.13,-0.69,1.44,-0.06,-0.13,0.52,
3.381,-0.13,-0.69,1.44,-0.05,-0.09,0.51,
3.383,-0.13,-0.69,1.44,-0.05,-0.08,0.51,
3.384,-0.13,-0.69,1.44,-0.05,-0.05,0.50,
3.396,-0.13,-0.69,1.44,-0.04,-0.01,0.49,
3.396,-0.13,-0.69,1.44,-0.04,0.02,0.49,
3.396,0.03,-0.77,1.05,-0.04,0.02,0.49,
3.397,0.03,-0.77,1.05,-0.05,0.08,0.48,
3.397,0.03,-0.77,1.05,-0.05,0.10,0.48,
3.397,0.03,-0.77,1.05,-0.05,0.14,0.47,
3.397,0.03,-0.77,1.05,-0.06,0.19,0.47,
3.399,0.03,-0.77,1.05,-0.06,0.22,0.47,
3.401,0.06,-0.81,0.40,-0.06,0.22,0.47,
3.402,0.06,-0.81,0.40,-0.07,0.27,0.46,
3.402,0.06,-0.81,0.40,-0.07,0.29,0.46,
3.405,0.06,-0.81,0.40,-0.08,0.33,0.46,
3.406,0.06,-0.81,0.40,-0.09,0.36,0.46,
3.408,0.06,-0.81,0.40,-0.09,0.39,0.46,
3.411,0.02,-0.86,-0.29,-0.09,0.39,0.46,
3.411,0.02,-0.86,-0.29,-0.11,0.43,0.46,
3.413,0.02,-0.86,-0.29,-0.11,0.44,0.46,
3.414,0.02,-0.86,-0.29,-0.12,0.46,0.46,
3.416,0.02,-0.86,-0.29,-0.13,0.48,0.46,
3.418,0.02,-0.86,-0.29,-0.14,0.50,0.46,
3.421,-0.01,-0.88,-0.98,-0.14,0.50,0.46,
3.422,-0.01,-0.88,-0.98,-0.16,0.51,0.46,
3.422,-0.01,-0.88,-0.98,-0.16,0.51,0.45,
3.424,-0.01,-0.88,-0.98,-0.17,0.52,0.45,
3.427,-0.01,-0.88,-0.98,-0.19,0.53,0.45,
3.429,-0.01,-0.88,-0.98,-0.19,0.53,0.45,
3.431,0.02,-0.96,-1.47,-0.19,0.53,0.45,
3.431,0.02,-0.96,-1.47,-0.20,0.53,0.45,
3.433,0.02,-0.96,-1.47,-0.21,0.53,0.45,
3.435,0.02,-0.96,-1.47,-0.21,0.53,0.45,
3.437,0.02,-0.96,-1.47,-0.21,0.53,0.46,
3.439,0.02,-0.96,-1.47,-0.22,0.52,0.45,
3.441,-0.01,-1.05,-1.81,-0.22,0.52,0.45,
3.441,-0.01,-1.05,-1.81,-0.21,0.51,0.46,
3.443,-0.01,-1.05,-1.81,-0.22,0.50,0.46,
3.445,-0.01,-1.05,-1.81,-0.22,0.50,0.46,
3.447,-0.01,-1.05,-1.81,-0.21,0.48,0.47,
3.448,-0.01,-1.05,-1.81,-0.21,0.48,0.47,
3.451,-0.01,-1.12,-2.02,-0.21,0.48,0.47,
3.451,-0.01,-1.12,-2.02,-0.21,0.46,0.47,
3.453,-0.01,-1.12,-2.02,-0.20,0.45,0.48,
3.455,-0.01,-1.12,-2.02,-0.19,0.44,0.48,
3.457,-0.01,-1.12,-2.02,-0.19,0.43,0.49,
3.459,-0.01,-1.12,-2.02,-0.17,0.41,0.49,
3.461,0.06,-1.20,-2.17,-0.17,0.41,0.49,
3.461,0.06,-1.20,-2.17,-0.17,0.40,0.50,
3.463,0.06,-1.20,-2.17,-0.16,0.38,0.50,
3.464,0.06,-1.20,-2.17,-0.15,0.37,0.50,
3.466,0.06,-1.20,-2.17,-0.13,0.35,0.50,
3.468,0.06,-1.20,-2.17,-0.12,0.34,0.51,
3.471,0.18,-1.26,-2.21,-0.12,0.34,0.51,
3.472,0.18,-1.26,-2.21,-0.11,0.32,0.51,
3.473,0.18,-1.26,-2.21,-0.09,0.31,0.51,
3.474,0.18,-1.26,-2.21,-0.07,0.30,0.51,
3.478,0.18,-1.26,-2.21,-0.05,0.29,0.52,
3.478,0.18,-1.26,-2.21,-0.03,0.28,0.52,
3.481,0.19,-1.28,-2.25,-0.03,0.28,0.52,
3.481,0.19,-1.28,-2.25,-0.02,0.27,0.52,
3.482,0.19,-1.28,-2.25,0.00,0.25,0.53,
3.484,0.19,-1.28,-2.25,0.02,0.24,0.53,
3.487,0.19,-1.28,-2.25,0.04,0.23,0.54,
3.49,0.19,-1.28,-2.25,0.06,0.22,0.55,
3.507,0.18,-1.32,-2.30,0.06,0.22,0.55,
3.507,0.18,-1.32,-2.30,0.08,0.21,0.55,
3.507,0.18,-1.32,-2.30,0.10,0.20,0.56,
3.508,0.18,-1.32,-2.30,0.12,0.19,0.56,
3.508,0.18,-1.32,-2.30,0.13,0.19,0.57,
3.508,0.18,-1.32,-2.30,0.15,0.18,0.57,
3.518,0.20,-1.33,-2.45,0.15,0.18,0.57,
3.518,0.20,-1.33,-2.45,0.16,0.17,0.58,
3.519,0.20,-1.33,-2.45,0.17,0.17,0.58,
3.519,0.20,-1.33,-2.45,0.19,0.16,0.59,
3.519,0.20,-1.33,-2.45,0.21,0.16,0.60,
3.52,0.20,-1.33,-2.45,0.21,0.15,0.60,
3.52,0.13,-1.32,-2.72,0.21,0.15,0.60,
3.521,0.13,-1.32,-2.72,0.23,0.15,0.61,
3.521,0.13,-1.32,-2.72,0.23,0.14,0.62,
3.522,0.13,-1.32,-2.72,0.24,0.13,0.63,
3.522,0.13,-1.32,-2.72,0.25,0.12,0.63,
3.522,0.13,-1.32,-2.72,0.25,0.11,0.64,
3.523,0.02,-1.27,-3.00,0.25,0.11,0.64,
3.523,0.02,-1.27,-3.00,0.25,0.10,0.65,
3.524,0.02,-1.27,-3.00,0.26,0.09,0.66,
3.537,0.02,-1.27,-3.00,0.26,0.08,0.67,
3.537,0.02,-1.27,-3.00,0.26,0.07,0.68,
3.537,0.02,-1.27,-3.00,0.25,0.06,0.69,
3.538,-0.06,-1.20,-3.18,0.25,0.06,0.69,
3.538,-0.06,-1.20,-3.18,0.25,0.04,0.70,
3.538,-0.06,-1.20,-3.18,0.25,0.03,0.71,
3.538,-0.06,-1.20,-3.18,0.24,0.02,0.72,
3.539,-0.06,-1.20,-3.18,0.23,0.01,0.73,
3.539,-0.06,-1.20,-3.18,0.23,-0.01,0.74,
3.541,-0.07,-1.11,-3.23,0.23,-0.01,0.74,
3.542,-0.07,-1.11,-3.23,0.22,-0.02,0.74,
3.543,-0.07,-1.11,-3.23,0.21,-0.03,0.75,
3.545,-0.07,-1.11,-3.23,0.21,-0.05,0.76,
3.547,-0.07,-1.11,-3.23,0.21,-0.06,0.76,
3.549,-0.07,-1.11,-3.23,0.20,-0.07,0.77,
3.551,0.05,-1.01,-3.11,0.20,-0.07,0.77,
3.551,0.05,-1.01,-3.11,0.20,-0.08,0.77,
3.571,0.05,-1.01,-3.11,0.19,-0.09,0.78,
3.571,0.05,-1.01,-3.11,0.19,-0.10,0.78,
3.571,0.05,-1.01,-3.11,0.18,-0.11,0.79,
3.571,0.05,-1.01,-3.11,0.18,-0.13,0.79,
3.571,0.17,-0.90,-2.80,0.18,-0.13,0.79,
3.572,0.17,-0.90,-2.80,0.18,-0.14,0.79,
3.572,0.17,-0.90,-2.80,0.18,-0.15,0.79,
3.572,0.17,-0.90,-2.80,0.19,-0.16,0.79,
3.572,0.17,-0.90,-2.80,0.19,-0.17,0.79,
3.572,0.17,-0.90,-2.80,0.19,-0.18,0.79,
3.573,0.26,-0.83,-2.34,0.19,-0.18,0.79,
3.573,0.26,-0.83,-2.34,0.20,-0.19,0.79,
3.573,0.26,-0.83,-2.34,0.21,-0.21,0.79,
3.576,0.26,-0.83,-2.34,0.21,-0.21,0.79,
3.577,0.26,-0.83,-2.34,0.22,-0.22,0.79,
3.579,0.26,-0.83,-2.34,0.23,-0.23,0.79,
3.581,0.34,-0.87,-1.86,0.23,-0.23,0.79,
3.581,0.34,-0.87,-1.86,0.23,-0.24,0.79,
3.582,0.34,-0.87,-1.86,0.24,-0.25,0.79,
3.584,0.34,-0.87,-1.86,0.25,-0.25,0.79,
3.586,0.34,-0.87,-1.86,0.26,-0.25,0.79,
3.588,0.34,-0.87,-1.86,0.27,-0.25,0.79,
3.591,0.40,-0.87,-1.43,0.27,-0.25,0.79,
3.591,0.40,-0.87,-1.43,0.29,-0.26,0.79,
3.593,0.40,-0.87,-1.43,0.30,-0.26,0.79,
3.595,0.40,-0.87,-1.43,0.31,-0.26,0.79,
3.597,0.40,-0.87,-1.43,0.32,-0.26,0.78,
3.598,0.40,-0.87,-1.43,0.34,-0.26,0.78,
3.601,0.44,-0.80,-1.07,0.34,-0.26,0.78,
3.601,0.44,-0.80,-1.07,0.35,-0.25,0.79,
3.602,0.44,-0.80,-1.07,0.37,-0.25,0.78,
3.604,0.44,-0.80,-1.07,0.38,-0.25,0.78,
3.606,0.44,-0.80,-1.07,0.39,-0.25,0.78,
3.612,0.44,-0.80,-1.07,0.40,-0.25,0.78,
3.613,0.49,-0.73,-0.85,0.40,-0.25,0.78,
3.613,0.49,-0.73,-0.85,0.41,-0.26,0.77,
3.613,0.49,-0.73,-0.85,0.43,-0.26,0.77,
3.615,0.49,-0.73,-0.85,0.43,-0.26,0.76,
3.617,0.49,-0.73,-0.85,0.44,-0.27,0.75,
3.62,0.49,-0.73,-0.85,0.45,-0.27,0.75,
3.621,0.50,-0.69,-0.58,0.45,-0.27,0.75,
3.622,0.50,-0.69,-0.58,0.46,-0.26,0.74,
3.623,0.50,-0.69,-0.58,0.48,-0.26,0.74,
3.645,0.50,-0.69,-0.58,0.50,-0.26,0.73,
3.646,0.50,-0.69,-0.58,0.51,-0.25,0.72,
3.646,0.50,-0.69,-0.58,0.53,-0.24,0.72,
3.646,0.47,-0.75,-0.24,0.53,-0.24,0.72,
3.647,0.47,-0.75,-0.24,0.55,-0.23,0.71,
3.647,0.47,-0.75,-0.24,0.57,-0.22,0.70,
3.647,0.47,-0.75,-0.24,0.59,-0.21,0.69,
3.647,0.47,-0.75,-0.24,0.62,-0.20,0.68,
3.648,0.47,-0.75,-0.24,0.65,-0.18,0.67,
3.648,0.30,-0.75,0.02,0.65,-0.18,0.67,
3.648,0.30,-0.75,0.02,0.67,-0.17,0.67,
3.649,0.30,-0.75,0.02,0.69,-0.17,0.66,
3.649,0.30,-0.75,0.02,0.71,-0.16,0.65,
3.649,0.30,-0.75,0.02,0.73,-0.15,0.65,
3.65,0.30,-0.75,0.02,0.75,-0.15,0.64,
3.656,0.20,-0.94,-0.00,0.75,-0.15,0.64,
3.657,0.20,-0.94,-0.00,0.77,-0.15,0.63,
3.657,0.20,-0.94,-0.00,0.78,-0.15,0.62,
3.657,0.20,-0.94,-0.00,0.79,-0.16,0.61,
3.658,0.20,-0.94,-0.00,0.80,-0.17,0.60,
3.661,0.20,-0.94,-0.00,0.80,-0.18,0.60,
3.664,0.16,-1.14,-0.36,0.80,-0.18,0.60,
3.665,0.16,-1.14,-0.36,0.80,-0.19,0.59,
3.665,0.16,-1.14,-0.36,0.80,-0.19,0.58,
3.666,0.16,-1.14,-0.36,0.79,-0.20,0.58,
3.697,0.16,-1.14,-0.36,0.78,-0.21,0.58,
3.697,0.16,-1.14,-0.36,0.78,-0.23,0.58,
3.698,-0.13,-0.96,-0.73,0.78,-0.23,0.58,
3.698,-0.13,-0.96,-0.73,0.76,-0.24,0.58,
3.698,-0.13,-0.96,-0.73,0.74,-0.26,0.57,
3.699,-0.13,-0.96,-0.73,0.72,-0.28,0.57,
3.699,-0.13,-0.96,-0.73,0.69,-0.30,0.56,
3.699,-0.13,-0.96,-0.73,0.67,-0.33,0.55,
3.7,0.12,-0.77,-1.09,0.67,-0.33,0.55,
3.7,0.12,-0.77,-1.09,0.63,-0.35,0.54,
3.7,0.12,-0.77,-1.09,0.59,-0.37,0.53,
3.701,0.12,-0.77,-1.09,0.55,-0.40,0.52,
3.701,0.12,-0.77,-1.09,0.51,-0.42,0.51,
3.701,0.12,-0.77,-1.09,0.46,-0.44,0.49,
3.702,0.35,-0.52,-1.23,0.46,-0.44,0.49,
3.702,0.35,-0.52,-1.23,0.42,-0.46,0.48,
3.702,0.35,-0.52,-1.23,0.37,-0.48,0.46,
3.703,0.35,-0.52,-1.23,0.32,-0.50,0.44,
3.703,0.35,-0.52,-1.23,0.27,-0.52,0.42,
3.703,0.35,-0.52,-1.23,0.22,-0.54,0.40,
3.704,0.72,-0.37,-0.98,0.22,-0.54,0.40,
3.704,0.72,-0.37,-0.98,0.17,-0.55,0.38,
3.704,0.72,-0.37,-0.98,0.11,-0.56,0.36,
3.755,0.72,-0.37,-0.98,0.06,-0.56,0.33,
3.756,0.72,-0.37,-0.98,0.02,-0.56,0.31,
3.756,0.72,-0.37,-0.98,-0.03,-0.56,0.29,
3.756,1.07,-0.42,-0.39,-0.03,-0.56,0.29,
3.757,1.07,-0.42,-0.39,-0.08,-0.56,0.26,
3.757,1.07,-0.42,-0.39,-0.13,-0.56,0.24,
3.757,1.07,-0.42,-0.39,-0.17,-0.54,0.21,
3.761,1.07,-0.42,-0.39,-0.22,-0.54,0.18,
3.761,1.07,-0.42,-0.39,-0.27,-0.52,0.15,
3.761,1.43,-0.44,0.36,-0.27,-0.52,0.15,
3.761,1.43,-0.44,0.36,-0.31,-0.51,0.13,
3.761,1.43,-0.44,0.36,-0.34,-0.49,0.10,
3.762,1.43,-0.44,0.36,-0.39,-0.46,0.07,
3.762,1.43,-0.44,0.36,-0.42,-0.44,0.05,
3.762,1.43,-0.44,0.36,-0.46,-0.40,0.02,
3.762,1.50,-0.41,1.17,-0.46,-0.40,0.02,
3.762,1.50,-0.41,1.17,-0.49,-0.36,-0.00,
3.763,1.50,-0.41,1.17,-0.51,-0.32,-0.02,
3.763,1.50,-0.41,1.17,-0.53,-0.27,-0.04,
3.763,1.50,-0.41,1.17,-0.56,-0.22,-0.06,
3.763,1.50,-0.41,1.17,-0.57,-0.16,-0.07,
3.763,1.23,-0.33,1.95,-0.57,-0.16,-0.07,
3.763,1.23,-0.33,1.95,-0.59,-0.11,-0.09,
3.764,1.23,-0.33,1.95,-0.60,-0.05,-0.10,
3.764,1.23,-0.33,1.95,-0.61,0.01,-0.10,
3.764,1.23,-0.33,1.95,-0.62,0.07,-0.11,
3.764,1.23,-0.33,1.95,-0.63,0.13,-0.11,
3.764,0.87,-0.36,2.40,-0.63,0.13,-0.11,
3.765,0.87,-0.36,2.40,-0.64,0.18,-0.11,
3.765,0.87,-0.36,2.40,-0.65,0.24,-0.11,
3.765,0.87,-0.36,2.40,-0.67,0.30,-0.11,
3.765,0.87,-0.36,2.40,-0.69,0.35,-0.11,
3.765,0.87,-0.36,2.40,-0.71,0.41,-0.11,
3.766,0.74,-0.28,2.22,-0.71,0.41,-0.11,
3.766,0.74,-0.28,2.22,-0.74,0.46,-0.11,
3.766,0.74,-0.28,2.22,-0.77,0.50,-0.11,
3.766,0.74,-0.28,2.22,-0.79,0.54,-0.11,
3.768,0.74,-0.28,2.22,-0.82,0.58,-0.11,
3.772,0.74,-0.28,2.22,-0.85,0.61,-0.11,
3.772,0.80,-0.18,1.89,-0.85,0.61,-0.11,
3.772,0.80,-0.18,1.89,-0.89,0.64,-0.11,
3.773,0.80,-0.18,1.89,-0.92,0.67,-0.12,
3.78,0.80,-0.18,1.89,-0.96,0.69,-0.13,
3.781,0.80,-0.18,1.89,-0.99,0.71,-0.14,
3.781,0.80,-0.18,1.89,-1.02,0.71,-0.16,
3.781,0.95,0.08,1.78,-1.02,0.71,-0.16,
3.782,0.95,0.08,1.78,-1.05,0.71,-0.17,
3.783,0.95,0.08,1.78,-1.08,0.71,-0.19,
3.785,0.95,0.08,1.78,-1.12,0.70,-0.21,
3.787,0.95,0.08,1.78,-1.14,0.68,-0.23,
3.79,0.95,0.08,1.78,-1.17,0.67,-0.25,
3.813,1.09,0.32,2.03,-1.17,0.67,-0.25,
3.814,1.09,0.32,2.03,-1.20,0.65,-0.28,
3.814,1.09,0.32,2.03,-1.22,0.62,-0.30,
3.814,1.09,0.32,2.03,-1.24,0.60,-0.33,
3.814,1.09,0.32,2.03,-1.27,0.58,-0.35,
3.814,1.09,0.32,2.03,-1.28,0.55,-0.37,
3.814,1.14,0.54,2.48,-1.28,0.55,-0.37,
3.814,1.14,0.54,2.48,-1.30,0.53,-0.40,
3.815,1.14,0.54,2.48,-1.32,0.51,-0.42,
3.815,1.14,0.54,2.48,-1.34,0.48,-0.44,
3.815,1.14,0.54,2.48,-1.36,0.46,-0.46,
3.815,1.14,0.54,2.48,-1.38,0.43,-0.48,
3.815,1.25,0.47,2.99,-1.38,0.43,-0.48,
3.815,1.25,0.47,2.99,-1.39,0.41,-0.50,
3.815,1.25,0.47,2.99,-1.41,0.39,-0.52,
3.815,1.25,0.47,2.99,-1.42,0.36,-0.54,
3.818,1.25,0.47,2.99,-1.43,0.34,-0.56,
3.823,1.25,0.47,2.99,-1.44,0.32,-0.57,
3.824,1.26,0.20,3.60,-1.44,0.32,-0.57,
3.824,1.26,0.20,3.60,-1.45,0.30,-0.58,
3.824,1.26,0.20,3.60,-1.46,0.28,-0.59,
3.825,1.26,0.20,3.60,-1.46,0.27,-0.60,
3.827,1.26,0.20,3.60,-1.46,0.25,-0.60,
3.829,1.26,0.20,3.60,-1.45,0.24,-0.61,
3.831,1.05,-0.10,4.49,-1.45,0.24,-0.61,
3.831,1.05,-0.10,4.49,-1.44,0.23,-0.60,
3.844,1.05,-0.10,4.49,-1.43,0.22,-0.60,
3.844,1.05,-0.10,4.49,-1.41,0.21,-0.60,
3.844,1.05,-0.10,4.49,-1.39,0.21,-0.59,
3.844,1.05,-0.10,4.49,-1.36,0.20,-0.58,
3.845,0.74,-0.41,5.41,-1.36,0.20,-0.58,
3.845,0.74,-0.41,5.41,-1.33,0.19,-0.57,
3.845,0.74,-0.41,5.41,-1.30,0.18,-0.56,
3.845,0.74,-0.41,5.41,-1.26,0.18,-0.54,
3.847,0.74,-0.41,5.41,-1.22,0.17,-0.53,
3.85,0.74,-0.41,5.41,-1.18,0.17,-0.51,
3.851,0.48,-0.76,6.07,-1.18,0.17,-0.51,
3.851,0.48,-0.76,6.07,-1.14,0.16,-0.50,
3.852,0.48,-0.76,6.07,-1.09,0.15,-0.48,
3.855,0.48,-0.76,6.07,-1.04,0.15,-0.45,
3.857,0.48,-0.76,6.07,-0.99,0.14,-0.43,
3.859,0.48,-0.76,6.07,-0.93,0.14,-0.40,
3.862,0.29,-0.88,6.29,-0.93,0.14,-0.40,
3.862,0.29,-0.88,6.29,-0.88,0.13,-0.38,
3.862,0.29,-0.88,6.29,-0.83,0.13,-0.35,
3.865,0.29,-0.88,6.29,-0.77,0.13,-0.33,
3.867,0.29,-0.88,6.29,-0.72,0.12,-0.30,
3.868,0.29,-0.88,6.29,-0.67,0.12,-0.28,
3.871,0.38,-0.90,6.00,-0.67,0.12,-0.28,
3.871,0.38,-0.90,6.00,-0.61,0.11,-0.26,
3.872,0.38,-0.90,6.00,-0.57,0.11,-0.24,
3.878,0.38,-0.90,6.00,-0.51,0.10,-0.22,
3.878,0.38,-0.90,6.00,-0.46,0.09,-0.20,
3.879,0.38,-0.90,6.00,-0.41,0.08,-0.19,
3.881,0.63,-0.66,5.23,-0.41,0.08,-0.19,
3.882,0.63,-0.66,5.23,-0.37,0.07,-0.18,
3.884,0.63,-0.66,5.23,-0.33,0.06,-0.16,
3.884,0.63,-0.66,5.23,-0.29,0.05,-0.16,
3.905,0.63,-0.66,5.23,-0.25,0.04,-0.15,
3.905,0.63,-0.66,5.23,-0.21,0.02,-0.14,
3.905,0.91,-0.43,4.23,-0.21,0.02,-0.14,
3.905,0.91,-0.43,4.23,-0.18,0.01,-0.14,
3.905,0.91,-0.43,4.23,-0.15,-0.01,-0.13,
3.906,0.91,-0.43,4.23,-0.12,-0.02,-0.14,
3.906,0.91,-0.43,4.23,-0.10,-0.03,-0.14,
3.906,0.91,-0.43,4.23,-0.07,-0.05,-0.15,
3.906,1.36,-0.32,3.08,-0.07,-0.05,-0.15,
3.906,1.36,-0.32,3.08,-0.05,-0.06,-0.16,
3.906,1.36,-0.32,3.08,-0.03,-0.07,-0.17,
3.906,1.36,-0.32,3.08,-0.02,-0.08,-0.18,
3.906,1.36,-0.32,3.08,0.00,-0.09,-0.19,
3.91,1.36,-0.32,3.08,0.02,-0.09,-0.20,
3.911,1.43,-0.10,2.02,0.02,-0.09,-0.20,
3.913,1.43,-0.10,2.02,0.03,-0.10,-0.21,
3.914,1.43,-0.10,2.02,0.04,-0.11,-0.22,
3.916,1.43,-0.10,2.02,0.05,-0.11,-0.24,
3.917,1.43,-0.10,2.02,0.06,-0.12,-0.25,
3.92,1.43,-0.10,2.02,0.07,-0.12,-0.27,
3.924,1.60,-0.07,1.02,0.07,-0.12,-0.27,
3.924,1.60,-0.07,1.02,0.06,-0.13,-0.29,
3.924,1.60,-0.07,1.02,0.06,-0.13,-0.31,
3.925,1.60,-0.07,1.02,0.05,-0.15,-0.33,
3.928,1.60,-0.07,1.02,0.04,-0.15,-0.35,
3.931,1.60,-0.07,1.02,0.03,-0.16,-0.37,
3.931,1.87,-0.41,-0.09,0.03,-0.16,-0.37,
3.931,1.87,-0.41,-0.09,0.01,-0.16,-0.39,
3.934,1.87,-0.41,-0.09,-0.01,-0.17,-0.41,
3.935,1.87,-0.41,-0.09,-0.03,-0.16,-0.43,
3.938,1.87,-0.41,-0.09,-0.04,-0.16,-0.44,
3.938,1.87,-0.41,-0.09,-0.06,-0.16,-0.45,
3.942,1.43,-0.30,-0.85,-0.06,-0.16,-0.45,
3.942,1.43,-0.30,-0.85,-0.08,-0.16,-0.47,
3.945,1.43,-0.30,-0.85,-0.09,-0.15,-0.48,
3.946,1.43,-0.30,-0.85,-0.11,-0.15,-0.49,
3.948,1.43,-0.30,-0.85,-0.12,-0.14,-0.50,
3.948,1.43,-0.30,-0.85,-0.13,-0.13,-0.52,
3.952,1.13,-0.42,-1.25,-0.13,-0.13,-0.52,
3.952,1.13,-0.42,-1.25,-0.14,-0.13,-0.53,
3.952,1.13,-0.42,-1.25,-0.15,-0.12,-0.53,
3.959,1.13,-0.42,-1.25,-0.16,-0.11,-0.54,
3.959,1.13,-0.42,-1.25,-0.16,-0.10,-0.55,
3.959,1.13,-0.42,-1.25,-0.16,-0.09,-0.55,
3.962,0.59,-0.53,-1.25,-0.16,-0.09,-0.55,
3.963,0.59,-0.53,-1.25,-0.15,-0.07,-0.55,
3.963,0.59,-0.53,-1.25,-0.14,-0.06,-0.54,
3.966,0.59,-0.53,-1.25,-0.12,-0.05,-0.53,
3.966,0.59,-0.53,-1.25,-0.11,-0.03,-0.52,
3.968,0.59,-0.53,-1.25,-0.09,-0.02,-0.51,
3.971,-0.03,-0.57,-1.07,-0.09,-0.02,-0.51,
3.971,-0.03,-0.57,-1.07,-0.06,-0.00,-0.50,
3.972,-0.03,-0.57,-1.07,-0.03,0.01,-0.48,
3.975,-0.03,-0.57,-1.07,-0.01,0.02,-0.47,
3.976,-0.03,-0.57,-1.07,0.02,0.02,-0.45,
3.978,-0.03,-0.57,-1.07,0.05,0.03,-0.43,
3.981,-0.40,-0.68,-1.06,0.05,0.03,-0.43,
3.981,-0.40,-0.68,-1.06,0.08,0.03,-0.41,
3.982,-0.40,-0.68,-1.06,0.11,0.03,-0.39,
3.984,-0.40,-0.68,-1.06,0.15,0.03,-0.37,
3.986,-0.40,-0.68,-1.06,0.18,0.02,-0.35,
3.988,-0.40,-0.68,-1.06,0.21,0.02,-0.33,
3.991,-0.63,-0.76,-1.20,0.21,0.02,-0.33,
3.991,-0.63,-0.76,-1.20,0.25,0.01,-0.31,
3.996,-0.63,-0.76,-1.20,0.28,-0.01,-0.29,
3.996,-0.63,-0.76,-1.20,0.32,-0.02,-0.28,
3.997,-0.63,-0.76,-1.20,0.36,-0.03,-0.26,
3.999,-0.63,-0.76,-1.20,0.39,-0.04,-0.24,
4.021,-0.60,-0.72,-1.38,0.39,-0.04,-0.24,
4.022,-0.60,-0.72,-1.38,0.43,-0.05,-0.23,
4.022,-0.60,-0.72,-1.38,0.47,-0.07,-0.21,
4.023,-0.60,-0.72,-1.38,0.50,-0.08,-0.20,
4.023,-0.60,-0.72,-1.38,0.54,-0.09,-0.19,
4.023,-0.60,-0.72,-1.38,0.57,-0.10,-0.18,
4.024,-0.45,-0.68,-1.74,0.57,-0.10,-0.18,
4.024,-0.45,-0.68,-1.74,0.61,-0.11,-0.17,
4.025,-0.45,-0.68,-1.74,0.64,-0.12,-0.16,
4.025,-0.45,-0.68,-1.74,0.67,-0.12,-0.16,
4.025,-0.45,-0.68,-1.74,0.70,-0.13,-0.15,
4.026,-0.45,-0.68,-1.74,0.73,-0.14,-0.14,
4.026,-0.33,-0.53,-2.21,0.73,-0.14,-0.14,
4.026,-0.33,-0.53,-2.21,0.75,-0.15,-0.14,
4.027,-0.33,-0.53,-2.21,0.78,-0.15,-0.13,
4.027,-0.33,-0.53,-2.21,0.80,-0.16,-0.13,
4.027,-0.33,-0.53,-2.21,0.82,-0.16,-0.13,
4.033,-0.33,-0.53,-2.21,0.83,-0.17,-0.13,
4.034,-0.16,-0.38,-2.83,0.83,-0.17,-0.13,
4.034,-0.16,-0.38,-2.83,0.85,-0.18,-0.14,
4.034,-0.16,-0.38,-2.83,0.86,-0.19,-0.14,
4.043,-0.16,-0.38,-2.83,0.86,-0.19,-0.15,
4.044,-0.16,-0.38,-2.83,0.87,-0.20,-0.16,
4.044,-0.16,-0.38,-2.83,0.86,-0.21,-0.17,
4.044,0.15,-0.46,-3.53,0.86,-0.21,-0.17,
4.045,0.15,-0.46,-3.53,0.85,-0.21,-0.18,
4.045,0.15,-0.46,-3.53,0.85,-0.22,-0.19,
4.045,0.15,-0.46,-3.53,0.83,-0.23,-0.21,
4.048,0.15,-0.46,-3.53,0.82,-0.23,-0.22,
4.051,0.15,-0.46,-3.53,0.80,-0.24,-0.23,
4.051,0.15,-0.31,-4.19,0.80,-0.24,-0.23,
4.051,0.15,-0.31,-4.19,0.77,-0.25,-0.24,
4.074,0.15,-0.31,-4.19,0.75,-0.26,-0.25,
4.074,0.15,-0.31,-4.19,0.72,-0.26,-0.26,
4.074,0.15,-0.31,-4.19,0.69,-0.27,-0.27,
4.074,0.15,-0.31,-4.19,0.66,-0.29,-0.28,
4.074,0.04,-0.25,-4.53,0.66,-0.29,-0.28,
4.075,0.04,-0.25,-4.53,0.63,-0.30,-0.29,
4.075,0.04,-0.25,-4.53,0.59,-0.31,-0.30,
4.075,0.04,-0.25,-4.53,0.56,-0.32,-0.31,
4.075,0.04,-0.25,-4.53,0.52,-0.33,-0.33,
4.076,0.04,-0.25,-4.53,0.48,-0.34,-0.34,
4.076,-0.03,-0.17,-4.56,0.48,-0.34,-0.34,
4.076,-0.03,-0.17,-4.56,0.45,-0.36,-0.35,
4.076,-0.03,-0.17,-4.56,0.41,-0.37,-0.36,
4.076,-0.03,-0.17,-4.56,0.38,-0.38,-0.36,
4.077,-0.03,-0.17,-4.56,0.35,-0.40,-0.37,
4.079,-0.03,-0.17,-4.56,0.30,-0.41,-0.39,
4.081,-0.14,-0.20,-4.07,0.30,-0.41,-0.39,
4.081,-0.14,-0.20,-4.07,0.29,-0.41,-0.39,
4.083,-0.14,-0.20,-4.07,0.26,-0.42,-0.40,
4.085,-0.14,-0.20,-4.07,0.24,-0.43,-0.40,
4.086,-0.14,-0.20,-4.07,0.22,-0.43,-0.41,
4.088,-0.14,-0.20,-4.07,0.20,-0.43,-0.41,
4.095,-0.28,-0.16,-3.26,0.20,-0.43,-0.41,
4.096,-0.28,-0.16,-3.26,0.19,-0.43,-0.41,
4.096,-0.28,-0.16,-3.26,0.18,-0.44,-0.41,
4.096,-0.28,-0.16,-3.26,0.17,-0.43,-0.41,
4.098,-0.28,-0.16,-3.26,0.17,-0.43,-0.41,
4.108,-0.28,-0.16,-3.26,0.17,-0.43,-0.40,
4.125,-0.43,-0.20,-2.36,0.17,-0.43,-0.40,
4.126,-0.43,-0.20,-2.36,0.17,-0.43,-0.40,
4.126,-0.43,-0.20,-2.36,0.17,-0.43,-0.40,
4.126,-0.43,-0.20,-2.36,0.17,-0.43,-0.39,
4.127,-0.43,-0.20,-2.36,0.17,-0.42,-0.39,
4.127,-0.43,-0.20,-2.36,0.18,-0.42,-0.38,
4.127,-0.51,-0.19,-1.69,0.18,-0.42,-0.38,
4.127,-0.51,-0.19,-1.69,0.19,-0.41,-0.37,
4.127,-0.51,-0.19,-1.69,0.19,-0.41,-0.37,
4.128,-0.51,-0.19,-1.69,0.20,-0.40,-0.36,
4.128,-0.51,-0.19,-1.69,0.20,-0.40,-0.36,
4.128,-0.51,-0.19,-1.69,0.21,-0.39,-0.35,
4.128,-0.45,-0.23,-1.32,0.21,-0.39,-0.35,
4.128,-0.45,-0.23,-1.32,0.22,-0.36,-0.34,
4.128,-0.45,-0.23,-1.32,0.22,-0.36,-0.34,
4.133,-0.45,-0.23,-1.32,0.22,-0.35,-0.34,
4.133,-0.45,-0.23,-1.32,0.22,-0.34,-0.34,
4.134,-0.45,-0.23,-1.32,0.22,-0.34,-0.34,
4.134,-0.29,-0.13,-1.20,0.22,-0.34,-0.34,
4.134,-0.29,-0.13,-1.20,0.22,-0.33,-0.34,
4.134,-0.29,-0.13,-1.20,0.22,-0.32,-0.34,
4.135,-0.29,-0.13,-1.20,0.22,-0.31,-0.34,
4.139,-0.29,-0.13,-1.20,0.21,-0.29,-0.35,
4.14,-0.29,-0.13,-1.20,0.20,-0.28,-0.35,
4.149,-0.18,0.02,-1.11,0.20,-0.28,-0.35,
4.15,-0.18,0.02,-1.11,0.20,-0.27,-0.36,
4.15,-0.18,0.02,-1.11,0.18,-0.26,-0.37,
4.15,-0.18,0.02,-1.11,0.17,-0.24,-0.38,
4.15,-0.18,0.02,-1.11,0.16,-0.23,-0.39,
4.151,-0.18,0.02,-1.11,0.14,-0.21,-0.40,
4.151,-0.03,0.23,-1.02,0.14,-0.21,-0.40,
4.151,-0.03,0.23,-1.02,0.12,-0.19,-0.41,
4.155,-0.03,0.23,-1.02,0.11,-0.17,-0.42,
4.155,-0.03,0.23,-1.02,0.09,-0.15,-0.44,
4.158,-0.03,0.23,-1.02,0.07,-0.13,-0.45,
4.161,-0.03,0.23,-1.02,0.06,-0.11,-0.47,
4.162,-0.00,0.37,-0.88,0.06,-0.11,-0.47,
4.162,-0.00,0.37,-0.88,0.04,-0.09,-0.48,
4.163,-0.00,0.37,-0.88,0.02,-0.07,-0.49,
4.165,-0.00,0.37,-0.88,-0.00,-0.05,-0.51,
4.183,-0.00,0.37,-0.88,-0.02,-0.03,-0.52,
4.183,-0.00,0.37,-0.88,-0.03,-0.01,-0.53,
4.183,-0.24,0.52,-0.51,-0.03,-0.01,-0.53,
4.184,-0.24,0.52,-0.51,-0.05,0.01,-0.54,
4.184,-0.24,0.52,-0.51,-0.06,0.04,-0.55,
4.184,-0.24,0.52,-0.51,-0.08,0.06,-0.55,
4.184,-0.24,0.52,-0.51,-0.09,0.08,-0.55,
4.184,-0.24,0.52,-0.51,-0.10,0.11,-0.56,
4.185,-0.66,0.58,-0.07,-0.10,0.11,-0.56,
4.185,-0.66,0.58,-0.07,-0.11,0.14,-0.56,
4.185,-0.66,0.58,-0.07,-0.12,0.17,-0.56,
4.185,-0.66,0.58,-0.07,-0.13,0.20,-0.55,
4.189,-0.66,0.58,-0.07,-0.14,0.22,-0.55,
4.189,-0.66,0.58,-0.07,-0.15,0.25,-0.54,
4.194,-1.08,0.54,0.26,-0.15,0.25,-0.54,
4.195,-1.08,0.54,0.26,-0.16,0.27,-0.53,
4.195,-1.08,0.54,0.26,-0.16,0.30,-0.52,
4.202,-1.08,0.54,0.26,-0.17,0.32,-0.50,
4.203,-1.08,0.54,0.26,-0.18,0.33,-0.48,
4.204,-1.08,0.54,0.26,-0.18,0.35,-0.47,
4.235,-1.42,0.47,0.71,-0.18,0.35,-0.47,
4.235,-1.42,0.47,0.71,-0.18,0.35,-0.45,
4.235,-1.42,0.47,0.71,-0.18,0.36,-0.43,
4.236,-1.42,0.47,0.71,-0.18,0.37,-0.41,
4.236,-1.42,0.47,0.71,-0.17,0.37,-0.39,
4.236,-1.42,0.47,0.71,-0.16,0.38,-0.37,
4.236,-1.69,0.50,1.36,-0.16,0.38,-0.37,
4.236,-1.69,0.50,1.36,-0.15,0.38,-0.34,
4.236,-1.69,0.50,1.36,-0.14,0.38,-0.32,
4.236,-1.69,0.50,1.36,-0.13,0.38,-0.30,
4.237,-1.69,0.50,1.36,-0.11,0.38,-0.28,
4.237,-1.69,0.50,1.36,-0.10,0.37,-0.26,
4.237,-1.67,0.61,1.93,-0.10,0.37,-0.26,
4.237,-1.67,0.61,1.93,-0.08,0.36,-0.24,
4.237,-1.67,0.61,1.93,-0.07,0.35,-0.22,
4.237,-1.67,0.61,1.93,-0.05,0.34,-0.21,
4.238,-1.67,0.61,1.93,-0.03,0.32,-0.19,
4.238,-1.67,0.61,1.93,-0.01,0.30,-0.18,
4.238,-1.44,0.59,2.40,-0.01,0.30,-0.18,
4.238,-1.44,0.59,2.40,0.01,0.28,-0.17,
4.238,-1.44,0.59,2.40,0.02,0.26,-0.16,
4.238,-1.44,0.59,2.40,0.04,0.24,-0.15,
4.238,-1.44,0.59,2.40,0.06,0.21,-0.14,
4.268,-1.44,0.59,2.40,0.08,0.18,-0.13,
4.268,-1.12,0.67,2.75,0.08,0.18,-0.13,
4.268,-1.12,0.67,2.75,0.10,0.15,-0.12,
4.268,-1.12,0.67,2.75,0.12,0.11,-0.12,
4.269,-1.12,0.67,2.75,0.13,0.08,-0.11,
4.269,-1.12,0.67,2.75,0.15,0.04,-0.11,
4.269,-1.12,0.67,2.75,0.16,0.00,-0.10,
4.269,-0.83,0.71,3.05,0.16,0.00,-0.10,
4.269,-0.83,0.71,3.05,0.17,-0.04,-0.10,
4.27,-0.83,0.71,3.05,0.18,-0.07,-0.10,
4.27,-0.83,0.71,3.05,0.19,-0.10,-0.09,
4.27,-0.83,0.71,3.05,0.19,-0.13,-0.09,
4.27,-0.83,0.71,3.05,0.21,-0.15,-0.08,
4.27,-0.56,0.77,3.33,0.21,-0.15,-0.08,
4.271,-0.56,0.77,3.33,0.22,-0.16,-0.08,
4.271,-0.56,0.77,3.33,0.23,-0.16,-0.07,
4.271,-0.56,0.77,3.33,0.23,-0.16,-0.07,
4.271,-0.56,0.77,3.33,0.24,-0.15,-0.07,
4.271,-0.56,0.77,3.33,0.25,-0.13,-0.06,
4.272,-0.32,0.75,3.69,0.25,-0.13,-0.06,
4.272,-0.32,0.75,3.69,0.27,-0.10,-0.06,
4.275,-0.32,0.75,3.69,0.28,-0.07,-0.06,
4.276,-0.32,0.75,3.69,0.30,-0.03,-0.05,
4.277,-0.32,0.75,3.69,0.32,0.01,-0.05,
4.279,-0.32,0.75,3.69,0.35,0.06,-0.04,
4.281,-0.35,0.77,3.87,0.35,0.06,-0.04,
4.281,-0.35,0.77,3.87,0.36,0.12,-0.04,
4.282,-0.35,0.77,3.87,0.38,0.17,-0.03,
4.284,-0.35,0.77,3.87,0.40,0.23,-0.02,
4.286,-0.35,0.77,3.87,0.41,0.28,-0.01,
4.293,-0.35,0.77,3.87,0.42,0.34,-0.00,
4.293,-0.49,0.85,3.49,0.42,0.34,-0.00,
4.294,-0.49,0.85,3.49,0.42,0.39,0.01,
4.294,-0.49,0.85,3.49,0.42,0.44,0.02,
4.304,-0.49,0.85,3.49,0.40,0.48,0.02,
4.304,-0.49,0.85,3.49,0.39,0.52,0.03,
4.304,-0.49,0.85,3.49,0.36,0.54,0.03,
4.304,-0.45,0.92,2.54,0.36,0.54,0.03,
4.304,-0.45,0.92,2.54,0.34,0.57,0.03,
4.304,-0.45,0.92,2.54,0.30,0.58,0.03,
4.306,-0.45,0.92,2.54,0.28,0.60,0.03,
4.309,-0.45,0.92,2.54,0.24,0.61,0.02,
4.309,-0.45,0.92,2.54,0.21,0.62,0.01,
4.311,-0.21,0.85,1.90,0.21,0.62,0.01,
4.311,-0.21,0.85,1.90,0.18,0.63,-0.00,
4.312,-0.21,0.85,1.90,0.15,0.64,-0.01,
4.314,-0.21,0.85,1.90,0.13,0.65,-0.03,
4.316,-0.21,0.85,1.90,0.10,0.66,-0.04,
4.318,-0.21,0.85,1.90,0.09,0.67,-0.06,
4.321,-0.14,0.86,1.85,0.09,0.67,-0.06,
4.321,-0.14,0.86,1.85,0.07,0.68,-0.08,
4.323,-0.14,0.86,1.85,0.06,0.68,-0.10,
4.325,-0.14,0.86,1.85,0.05,0.68,-0.12,
4.326,-0.14,0.86,1.85,0.04,0.69,-0.14,
4.328,-0.14,0.86,1.85,0.04,0.69,-0.16,
4.334,-0.24,0.70,2.15,0.04,0.69,-0.16,
4.334,-0.24,0.70,2.15,0.04,0.69,-0.17,
4.348,-0.24,0.70,2.15,0.04,0.69,-0.19,
4.348,-0.24,0.70,2.15,0.05,0.69,-0.20,
4.349,-0.24,0.70,2.15,0.05,0.70,-0.21,
4.349,-0.24,0.70,2.15,0.06,0.70,-0.21,
4.349,-0.79,0.41,2.41,0.06,0.70,-0.21,
4.349,-0.79,0.41,2.41,0.07,0.71,-0.21,
4.349,-0.79,0.41,2.41,0.08,0.72,-0.21,
4.35,-0.79,0.41,2.41,0.10,0.73,-0.21,
4.35,-0.79,0.41,2.41,0.11,0.74,-0.20,
4.35,-0.79,0.41,2.41,0.13,0.75,-0.19,
4.354,-1.50,0.00,2.37,0.13,0.75,-0.19,
4.354,-1.50,0.00,2.37,0.14,0.76,-0.18,
4.355,-1.50,0.00,2.37,0.15,0.77,-0.16,
4.355,-1.50,0.00,2.37,0.16,0.78,-0.14,
4.357,-1.50,0.00,2.37,0.17,0.78,-0.13,
4.359,-1.50,0.00,2.37,0.17,0.78,-0.11,
4.361,-2.06,-0.33,1.95,0.17,0.78,-0.11,
4.361,-2.06,-0.33,1.95,0.18,0.78,-0.09,
4.362,-2.06,-0.33,1.95,0.18,0.78,-0.07,
4.364,-2.06,-0.33,1.95,0.18,0.78,-0.05,
4.366,-2.06,-0.33,1.95,0.18,0.77,-0.02,
4.368,-2.06,-0.33,1.95,0.18,0.77,-0.00,
4.371,-2.48,-0.52,1.39,0.18,0.77,-0.00,
4.371,-2.48,-0.52,1.39,0.17,0.76,0.02,
4.373,-2.48,-0.52,1.39,0.16,0.75,0.04,
4.374,-2.48,-0.52,1.39,0.15,0.75,0.07,
4.377,-2.48,-0.52,1.39,0.14,0.74,0.09,
4.379,-2.48,-0.52,1.39,0.12,0.73,0.11,
4.382,-2.53,-0.57,0.76,0.12,0.73,0.11,
4.382,-2.53,-0.57,0.76,0.10,0.72,0.13,
4.382,-2.53,-0.57,0.76,0.09,0.70,0.15,
4.385,-2.53,-0.57,0.76,0.06,0.68,0.17,
4.4,-2.53,-0.57,0.76,0.05,0.66,0.19,
4.4,-2.53,-0.57,0.76,0.02,0.63,0.20,
4.4,-2.53,-0.53,0.32,0.02,0.63,0.20,
4.4,-2.53,-0.53,0.32,-0.00,0.60,0.22,
4.4,-2.53,-0.53,0.32,-0.03,0.56,0.24,
4.401,-2.53,-0.53,0.32,-0.06,0.51,0.25,
4.401,-2.53,-0.53,0.32,-0.09,0.46,0.27,
4.401,-2.53,-0.53,0.32,-0.12,0.41,0.28,
4.401,-2.24,-0.42,0.18,-0.12,0.41,0.28,
4.401,-2.24,-0.42,0.18,-0.15,0.36,0.29,
4.403,-2.24,-0.42,0.18,-0.18,0.31,0.30,
4.407,-2.24,-0.42,0.18,-0.21,0.26,0.31,
4.408,-2.24,-0.42,0.18,-0.24,0.21,0.32,
4.409,-2.24,-0.42,0.18,-0.27,0.16,0.32,
4.411,-1.87,-0.38,0.39,-0.27,0.16,0.32,
4.411,-1.87,-0.38,0.39,-0.30,0.12,0.33,
4.412,-1.87,-0.38,0.39,-0.32,0.09,0.33,
4.414,-1.87,-0.38,0.39,-0.34,0.05,0.34,
4.416,-1.87,-0.38,0.39,-0.36,0.02,0.34,
4.418,-1.87,-0.38,0.39,-0.38,-0.00,0.34,
4.421,-1.33,-0.42,0.95,-0.38,-0.00,0.34,
4.422,-1.33,-0.42,0.95,-0.39,-0.03,0.34,
4.423,-1.33,-0.42,0.95,-0.40,-0.05,0.34,
4.425,-1.33,-0.42,0.95,-0.41,-0.06,0.34,
4.426,-1.33,-0.42,0.95,-0.41,-0.08,0.34,
4.43,-1.33,-0.42,0.95,-0.40,-0.08,0.34,
4.431,-0.98,-0.52,1.58,-0.40,-0.08,0.34,
4.431,-0.98,-0.52,1.58,-0.41,-0.09,0.35,
4.433,-0.98,-0.52,1.58,-0.40,-0.09,0.35,
4.436,-0.98,-0.52,1.58,-0.40,-0.09,0.35,
4.436,-0.98,-0.52,1.58,-0.39,-0.09,0.35,
4.439,-0.98,-0.52,1.58,-0.38,-0.08,0.36,
4.442,-0.74,-0.54,1.90,-0.38,-0.08,0.36,
4.442,-0.74,-0.54,1.90,-0.37,-0.07,0.36,
4.443,-0.74,-0.54,1.90,-0.36,-0.06,0.36,
4.445,-0.74,-0.54,1.90,-0.35,-0.04,0.36,
4.446,-0.74,-0.54,1.90,-0.34,-0.03,0.37,
4.448,-0.74,-0.54,1.90,-0.32,-0.01,0.37,
4.451,-0.59,-0.68,1.80,-0.32,-0.01,0.37,
4.451,-0.59,-0.68,1.80,-0.31,0.01,0.38,
4.452,-0.59,-0.68,1.80,-0.31,0.03,0.38,
4.457,-0.59,-0.68,1.80,-0.29,0.05,0.38,
4.457,-0.59,-0.68,1.80,-0.29,0.07,0.39,
4.458,-0.59,-0.68,1.80,-0.28,0.09,0.39,
4.464,-0.46,-0.71,1.24,-0.28,0.09,0.39,
4.464,-0.46,-0.71,1.24,-0.28,0.12,0.40,
4.465,-0.46,-0.71,1.24,-0.28,0.14,0.40,
4.465,-0.46,-0.71,1.24,-0.28,0.15,0.40,
4.467,-0.46,-0.71,1.24,-0.28,0.17,0.41,
4.468,-0.46,-0.71,1.24,-0.28,0.19,0.41,
4.476,-0.38,-0.75,0.43,-0.28,0.19,0.41,
4.476,-0.38,-0.75,0.43,-0.29,0.21,0.41,
4.477,-0.38,-0.75,0.43,-0.30,0.22,0.41,
4.477,-0.38,-0.75,0.43,-0.31,0.23,0.41,
4.477,-0.38,-0.75,0.43,-0.32,0.25,0.41,
4.478,-0.38,-0.75,0.43,-0.33,0.26,0.41,
4.481,-0.15,-0.78,-0.49,-0.33,0.26,0.41,
4.481,-0.15,-0.78,-0.49,-0.34,0.27,0.40,
4.482,-0.15,-0.78,-0.49,-0.35,0.27,0.40,
4.485,-0.15,-0.78,-0.49,-0.36,0.28,0.40,
4.486,-0.15,-0.78,-0.49,-0.38,0.28,0.39,
4.489,-0.15,-0.78,-0.49,-0.39,0.28,0.38,
4.493,-0.03,-0.73,-1.19,-0.39,0.28,0.38,
4.493,-0.03,-0.73,-1.19,-0.40,0.28,0.38,
4.493,-0.03,-0.73,-1.19,-0.41,0.27,0.37,
4.494,-0.03,-0.73,-1.19,-0.43,0.26,0.36,
4.496,-0.03,-0.73,-1.19,-0.44,0.25,0.35,
4.498,-0.03,-0.73,-1.19,-0.45,0.24,0.34,
4.509,0.15,-0.66,-1.68,-0.45,0.24,0.34,
4.509,0.15,-0.66,-1.68,-0.46,0.23,0.33,
4.509,0.15,-0.66,-1.68,-0.48,0.21,0.32,
4.509,0.15,-0.66,-1.68,-0.49,0.20,0.30,
4.51,0.15,-0.66,-1.68,-0.50,0.18,0.29,
4.51,0.15,-0.66,-1.68,-0.51,0.16,0.27,
4.511,0.31,-0.63,-1.96,-0.51,0.16,0.27,
4.511,0.31,-0.63,-1.96,-0.52,0.15,0.26,
4.513,0.31,-0.63,-1.96,-0.53,0.14,0.24,
4.514,0.31,-0.63,-1.96,-0.54,0.13,0.23,
4.517,0.31,-0.63,-1.96,-0.55,0.11,0.21,
4.519,0.31,-0.63,-1.96,-0.56,0.10,0.20,
4.522,0.36,-0.64,-2.16,-0.56,0.10,0.20,
4.522,0.36,-0.64,-2.16,-0.57,0.08,0.18,
4.523,0.36,-0.64,-2.16,-0.57,0.08,0.18,
4.525,0.36,-0.64,-2.16,-0.58,0.06,0.16,
4.527,0.36,-0.64,-2.16,-0.59,0.04,0.15,
4.529,0.36,-0.64,-2.16,-0.61,0.02,0.14,
4.531,0.30,-0.77,-2.31,-0.61,0.02,0.14,
4.531,0.30,-0.77,-2.31,-0.62,0.01,0.13,
4.532,0.30,-0.77,-2.31,-0.64,-0.01,0.12,
4.534,0.30,-0.77,-2.31,-0.65,-0.02,0.11,
4.536,0.30,-0.77,-2.31,-0.67,-0.03,0.10,
4.539,0.30,-0.77,-2.31,-0.68,-0.03,0.10,
4.541,0.14,-0.91,-2.34,-0.68,-0.03,0.10,
4.541,0.14,-0.91,-2.34,-0.69,-0.03,0.09,
4.543,0.14,-0.91,-2.34,-0.71,-0.02,0.09,
4.545,0.14,-0.91,-2.34,-0.71,-0.01,0.09,
4.547,0.14,-0.91,-2.34,-0.72,0.01,0.09,
4.548,0.14,-0.91,-2.34,-0.73,0.03,0.09,
4.551,-0.15,-1.04,-2.15,-0.73,0.03,0.09,
4.551,-0.15,-1.04,-2.15,-0.73,0.05,0.09,
4.57,-0.15,-1.04,-2.15,-0.74,0.08,0.10,
4.571,-0.15,-1.04,-2.15,-0.74,0.11,0.10,
4.571,-0.15,-1.04,-2.15,-0.74,0.14,0.11,
4.571,-0.15,-1.04,-2.15,-0.74,0.17,0.11,
4.571,-0.33,-1.18,-1.90,-0.74,0.17,0.11,
4.571,-0.33,-1.18,-1.90,-0.73,0.20,0.12,
4.572,-0.33,-1.18,-1.90,-0.73,0.23,0.13,
4.572,-0.33,-1.18,-1.90,-0.72,0.25,0.13,
4.572,-0.33,-1.18,-1.90,-0.72,0.28,0.14,
4.572,-0.33,-1.18,-1.90,-0.70,0.31,0.15,
4.572,-0.61,-1.29,-1.47,-0.70,0.31,0.15,
4.572,-0.61,-1.29,-1.47,-0.69,0.33,0.16,
4.573,-0.61,-1.29,-1.47,-0.67,0.35,0.17,
4.576,-0.61,-1.29,-1.47,-0.65,0.37,0.18,
4.577,-0.61,-1.29,-1.47,-0.62,0.39,0.19,
4.579,-0.61,-1.29,-1.47,-0.60,0.42,0.21,
4.581,-0.88,-1.42,-0.92,-0.60,0.42,0.21,
4.581,-0.88,-1.42,-0.92,-0.57,0.44,0.22,
4.583,-0.88,-1.42,-0.92,-0.53,0.46,0.24,
4.585,-0.88,-1.42,-0.92,-0.50,0.48,0.27,
4.586,-0.88,-1.42,-0.92,-0.45,0.50,0.29,
4.589,-0.88,-1.42,-0.92,-0.41,0.52,0.32,
4.591,-1.26,-1.57,-0.46,-0.41,0.52,0.32,
4.591,-1.26,-1.57,-0.46,-0.37,0.54,0.34,
4.593,-1.26,-1.57,-0.46,-0.32,0.55,0.37,
4.594,-1.26,-1.57,-0.46,-0.28,0.56,0.40,
4.596,-1.26,-1.57,-0.46,-0.23,0.57,0.43,
4.598,-1.26,-1.57,-0.46,-0.19,0.57,0.46,
4.601,-1.39,-1.63,-0.27,-0.19,0.57,0.46,
4.601,-1.39,-1.63,-0.27,-0.14,0.56,0.49,
4.602,-1.39,-1.63,-0.27,-0.09,0.55,0.52,
4.609,-1.39,-1.63,-0.27,-0.04,0.54,0.55,
4.609,-1.39,-1.63,-0.27,0.00,0.52,0.59,
4.609,-1.39,-1.63,-0.27,0.06,0.50,0.62,
4.611,-1.61,-1.61,-0.09,0.06,0.50,0.62,
4.611,-1.61,-1.61,-0.09,0.10,0.49,0.66,
4.613,-1.61,-1.61,-0.09,0.16,0.47,0.69,
4.615,-1.61,-1.61,-0.09,0.22,0.45,0.73,
4.617,-1.61,-1.61,-0.09,0.27,0.43,0.76,
4.619,-1.61,-1.61,-0.09,0.32,0.41,0.79,
4.637,-1.57,-1.54,-0.10,0.32,0.41,0.79,
4.638,-1.57,-1.54,-0.10,0.38,0.40,0.82,
4.638,-1.57,-1.54,-0.10,0.43,0.38,0.86,
4.638,-1.57,-1.54,-0.10,0.48,0.36,0.89,
4.638,-1.57,-1.54,-0.10,0.52,0.34,0.92,
4.639,-1.57,-1.54,-0.10,0.57,0.32,0.95,
4.639,-1.46,-1.46,-0.42,0.57,0.32,0.95,
4.639,-1.46,-1.46,-0.42,0.60,0.29,0.98,
4.639,-1.46,-1.46,-0.42,0.65,0.27,1.01,
4.639,-1.46,-1.46,-0.42,0.69,0.24,1.03,
4.639,-1.46,-1.46,-0.42,0.72,0.21,1.05,
4.64,-1.46,-1.46,-0.42,0.75,0.18,1.08,
4.643,-1.12,-1.24,-0.94,0.75,0.18,1.08,
4.643,-1.12,-1.24,-0.94,0.78,0.15,1.10,
4.643,-1.12,-1.24,-0.94,0.80,0.12,1.12,
4.645,-1.12,-1.24,-0.94,0.83,0.08,1.13,
4.647,-1.12,-1.24,-0.94,0.84,0.05,1.15,
4.649,-1.12,-1.24,-0.94,0.86,0.02,1.16,
4.651,-0.67,-1.03,-1.49,0.86,0.02,1.16,
4.651,-0.67,-1.03,-1.49,0.86,-0.01,1.16,
4.653,-0.67,-1.03,-1.49,0.87,-0.04,1.17,
4.659,-0.67,-1.03,-1.49,0.88,-0.08,1.17,
4.66,-0.67,-1.03,-1.49,0.89,-0.11,1.18,
4.66,-0.67,-1.03,-1.49,0.89,-0.15,1.18,
4.661,-0.11,-0.83,-1.91,0.89,-0.15,1.18,
4.662,-0.11,-0.83,-1.91,0.88,-0.18,1.17,
4.663,-0.11,-0.83,-1.91,0.87,-0.21,1.17,
4.665,-0.11,-0.83,-1.91,0.86,-0.25,1.16,
4.686,-0.11,-0.83,-1.91,0.85,-0.28,1.16,
4.686,-0.11,-0.83,-1.91,0.84,-0.31,1.15,
4.686,0.42,-0.62,-1.96,0.84,-0.31,1.15,
4.686,0.42,-0.62,-1.96,0.83,-0.34,1.13,
4.686,0.42,-0.62,-1.96,0.82,-0.36,1.12,
4.687,0.42,-0.62,-1.96,0.81,-0.39,1.10,
4.687,0.42,-0.62,-1.96,0.79,-0.41,1.08,
4.687,0.42,-0.62,-1.96,0.78,-0.43,1.06,
4.687,0.92,-0.52,-1.63,0.78,-0.43,1.06,
4.687,0.92,-0.52,-1.63,0.76,-0.45,1.04,
4.687,0.92,-0.52,-1.63,0.76,-0.46,1.02,
4.688,0.92,-0.52,-1.63,0.75,-0.47,1.00,
4.688,0.92,-0.52,-1.63,0.74,-0.48,0.97,
4.691,0.92,-0.52,-1.63,0.74,-0.48,0.95,
4.691,1.29,-0.44,-0.84,0.74,-0.48,0.95,
4.691,1.29,-0.44,-0.84,0.74,-0.47,0.93,
4.695,1.29,-0.44,-0.84,0.74,-0.46,0.91,
4.696,1.29,-0.44,-0.84,0.75,-0.45,0.88,
4.697,1.29,-0.44,-0.84,0.76,-0.43,0.87,
4.699,1.29,-0.44,-0.84,0.77,-0.41,0.84,
4.701,1.44,-0.31,-0.02,0.77,-0.41,0.84,
4.702,1.44,-0.31,-0.02,0.77,-0.39,0.82,
4.703,1.44,-0.31,-0.02,0.78,-0.36,0.80,
4.705,1.44,-0.31,-0.02,0.79,-0.34,0.78,
4.707,1.44,-0.31,-0.02,0.80,-0.31,0.76,
4.709,1.44,-0.31,-0.02,0.81,-0.28,0.73,
4.711,1.57,-0.33,0.52,0.81,-0.28,0.73,
4.711,1.57,-0.33,0.52,0.83,-0.25,0.71,
4.713,1.57,-0.33,0.52,0.84,-0.23,0.69,
4.714,1.57,-0.33,0.52,0.84,-0.20,0.67,
4.716,1.57,-0.33,0.52,0.85,-0.17,0.65,
4.718,1.57,-0.33,0.52,0.86,-0.14,0.63,
4.738,1.46,-0.29,0.78,0.86,-0.14,0.63,
4.739,1.46,-0.29,0.78,0.87,-0.12,0.61,
4.739,1.46,-0.29,0.78,0.88,-0.10,0.59,
4.739,1.46,-0.29,0.78,0.88,-0.07,0.58,
4.739,1.46,-0.29,0.78,0.89,-0.05,0.56,
4.74,1.46,-0.29,0.78,0.90,-0.02,0.55,
4.74,1.18,-0.34,0.81,0.90,-0.02,0.55,
4.74,1.18,-0.34,0.81,0.91,0.01,0.54,
4.74,1.18,-0.34,0.81,0.90,0.03,0.53,
4.74,1.18,-0.34,0.81,0.90,0.06,0.52,
4.741,1.18,-0.34,0.81,0.90,0.09,0.52,
4.741,1.18,-0.34,0.81,0.89,0.12,0.51,
4.748,0.79,-0.42,0.55,0.89,0.12,0.51,
4.749,0.79,-0.42,0.55,0.88,0.15,0.51,
4.749,0.79,-0.42,0.55,0.87,0.17,0.51,
4.749,0.79,-0.42,0.55,0.86,0.19,0.50,
4.75,0.79,-0.42,0.55,0.84,0.21,0.50,
4.751,0.79,-0.42,0.55,0.82,0.23,0.50,
4.752,0.56,-0.43,0.15,0.82,0.23,0.50,
4.752,0.56,-0.43,0.15,0.81,0.25,0.49,
4.753,0.56,-0.43,0.15,0.79,0.26,0.49,
4.768,0.56,-0.43,0.15,0.77,0.28,0.49,
4.768,0.56,-0.43,0.15,0.75,0.29,0.49,
4.768,0.56,-0.43,0.15,0.72,0.30,0.49,
4.768,0.36,-0.30,-0.25,0.72,0.30,0.49,
4.769,0.36,-0.30,-0.25,0.70,0.31,0.49,
4.769,0.36,-0.30,-0.25,0.67,0.32,0.48,
4.769,0.36,-0.30,-0.25,0.63,0.33,0.48,
4.769,0.36,-0.30,-0.25,0.60,0.34,0.48,
4.771,0.36,-0.30,-0.25,0.56,0.34,0.47,
4.772,0.44,-0.19,-0.72,0.56,0.34,0.47,
4.772,0.44,-0.19,-0.72,0.52,0.34,0.47,
4.78,0.44,-0.19,-0.72,0.48,0.34,0.46,
4.78,0.44,-0.19,-0.72,0.43,0.33,0.44,
4.781,0.44,-0.19,-0.72,0.39,0.32,0.43,
4.781,0.44,-0.19,-0.72,0.34,0.30,0.41,
4.782,0.73,-0.14,-1.00,0.34,0.30,0.41,
4.782,0.73,-0.14,-1.00,0.29,0.29,0.40,
4.783,0.73,-0.14,-1.00,0.24,0.27,0.38,
4.785,0.73,-0.14,-1.00,0.20,0.25,0.37,
4.787,0.73,-0.14,-1.00,0.15,0.22,0.35,
4.789,0.73,-0.14,-1.00,0.10,0.20,0.33,
4.791,1.05,0.02,-0.79,0.10,0.20,0.33,
4.792,1.05,0.02,-0.79,0.06,0.18,0.32,
4.797,1.05,0.02,-0.79,0.01,0.16,0.30,
4.797,1.05,0.02,-0.79,-0.03,0.13,0.28,
4.797,1.05,0.02,-0.79,-0.07,0.11,0.26,
4.799,1.05,0.02,-0.79,-0.11,0.09,0.25,
4.801,1.28,0.09,-0.16,-0.11,0.09,0.25,
4.801,1.28,0.09,-0.16,-0.15,0.08,0.23,
4.803,1.28,0.09,-0.16,-0.18,0.06,0.21,
4.805,1.28,0.09,-0.16,-0.21,0.05,0.19,
4.807,1.28,0.09,-0.16,-0.24,0.05,0.18,
4.809,1.28,0.09,-0.16,-0.26,0.05,0.16,
4.811,1.31,0.25,0.73,-0.26,0.05,0.16,
4.811,1.31,0.25,0.73,-0.28,0.05,0.15,
4.812,1.31,0.25,0.73,-0.30,0.06,0.14,
4.814,1.31,0.25,0.73,-0.31,0.07,0.12,
4.816,1.31,0.25,0.73,-0.33,0.08,0.12,
4.818,1.31,0.25,0.73,-0.34,0.10,0.11,
4.821,1.15,0.40,1.51,-0.34,0.10,0.11,
4.821,1.15,0.40,1.51,-0.36,0.12,0.10,
4.823,1.15,0.40,1.51,-0.38,0.13,0.09,
4.825,1.15,0.40,1.51,-0.39,0.15,0.09,
4.826,1.15,0.40,1.51,-0.41,0.16,0.08,
4.828,1.15,0.40,1.51,-0.44,0.17,0.08,
4.831,1.09,0.25,1.78,-0.44,0.17,0.08,
4.831,1.09,0.25,1.78,-0.46,0.18,0.08,
4.841,1.09,0.25,1.78,-0.48,0.18,0.08,
4.841,1.09,0.25,1.78,-0.51,0.19,0.08,
4.841,1.09,0.25,1.78,-0.53,0.19,0.08,
4.842,1.09,0.25,1.78,-0.56,0.18,0.09,
4.842,1.09,0.05,1.87,-0.56,0.18,0.09,
4.842,1.09,0.05,1.87,-0.59,0.18,0.09,
4.844,1.09,0.05,1.87,-0.61,0.18,0.09,
4.845,1.09,0.05,1.87,-0.64,0.17,0.09,
4.846,1.09,0.05,1.87,-0.66,0.17,0.09,
4.848,1.09,0.05,1.87,-0.68,0.16,0.09,
4.851,1.33,-0.00,2.17,-0.68,0.16,0.09,
4.851,1.33,-0.00,2.17,-0.70,0.15,0.09,
4.853,1.33,-0.00,2.17,-0.72,0.15,0.08,
4.854,1.33,-0.00,2.17,-0.74,0.14,0.07,
4.856,1.33,-0.00,2.17,-0.75,0.13,0.06,
4.858,1.33,-0.00,2.17,-0.77,0.11,0.04,
4.861,1.72,0.05,2.59,-0.77,0.11,0.04,
4.861,1.72,0.05,2.59,-0.78,0.10,0.02,
4.862,1.72,0.05,2.59,-0.79,0.09,0.00,
4.865,1.72,0.05,2.59,-0.79,0.08,-0.02,
4.866,1.72,0.05,2.59,-0.80,0.07,-0.04,
4.869,1.72,0.05,2.59,-0.81,0.07,-0.06,
4.872,2.08,0.07,3.04,-0.81,0.07,-0.06,
4.873,2.08,0.07,3.04,-0.82,0.06,-0.10,
4.873,2.08,0.07,3.04,-0.82,0.06,-0.11,
4.874,2.08,0.07,3.04,-0.83,0.06,-0.13,
4.876,2.08,0.07,3.04,-0.83,0.06,-0.16,
4.879,2.08,0.07,3.04,-0.84,0.07,-0.18,
4.881,2.25,0.02,3.34,-0.84,0.07,-0.18,
4.881,2.25,0.02,3.34,-0.84,0.07,-0.20,
4.882,2.25,0.02,3.34,-0.85,0.08,-0.23,
4.884,2.25,0.02,3.34,-0.85,0.09,-0.25,
4.898,2.25,0.02,3.34,-0.86,0.10,-0.27,
4.898,2.25,0.02,3.34,-0.86,0.12,-0.30,
4.898,2.36,-0.22,3.55,-0.86,0.12,-0.30,
4.899,2.36,-0.22,3.55,-0.85,0.14,-0.31,
4.899,2.36,-0.22,3.55,-0.85,0.16,-0.33,
4.899,2.36,-0.22,3.55,-0.85,0.18,-0.35,
4.899,2.36,-0.22,3.55,-0.84,0.21,-0.36,
4.899,2.36,-0.22,3.55,-0.84,0.23,-0.37,
4.901,2.08,-0.51,3.76,-0.84,0.23,-0.37,
4.902,2.08,-0.51,3.76,-0.82,0.26,-0.38,
4.91,2.08,-0.51,3.76,-0.81,0.28,-0.38,
4.91,2.08,-0.51,3.76,-0.80,0.30,-0.38,
4.91,2.08,-0.51,3.76,-0.78,0.32,-0.38,
4.91,2.08,-0.51,3.76,-0.77,0.34,-0.38,
4.911,1.60,-0.78,3.88,-0.77,0.34,-0.38,
4.911,1.60,-0.78,3.88,-0.75,0.35,-0.37,
4.913,1.60,-0.78,3.88,-0.73,0.36,-0.37,
4.914,1.60,-0.78,3.88,-0.71,0.37,-0.36,
4.916,1.60,-0.78,3.88,-0.69,0.38,-0.35,
4.919,1.60,-0.78,3.88,-0.66,0.38,-0.34,
4.921,1.11,-0.92,3.86,-0.66,0.38,-0.34,
4.921,1.11,-0.92,3.86,-0.64,0.38,-0.32,
4.922,1.11,-0.92,3.86,-0.61,0.39,-0.31,
4.924,1.11,-0.92,3.86,-0.58,0.40,-0.29,
4.926,1.11,-0.92,3.86,-0.55,0.40,-0.28,
4.929,1.11,-0.92,3.86,-0.52,0.41,-0.26,
4.931,0.71,-1.03,3.57,-0.52,0.41,-0.26,
4.931,0.71,-1.03,3.57,-0.49,0.41,-0.24,
4.932,0.71,-1.03,3.57,-0.47,0.41,-0.23,
4.935,0.71,-1.03,3.57,-0.44,0.41,-0.21,
4.936,0.71,-1.03,3.57,-0.41,0.41,-0.20,
4.939,0.71,-1.03,3.57,-0.38,0.40,-0.18,
4.941,0.63,-0.96,2.85,-0.38,0.40,-0.18,
4.941,0.63,-0.96,2.85,-0.36,0.40,-0.17,
4.942,0.63,-0.96,2.85,-0.34,0.39,-0.17,
4.944,0.63,-0.96,2.85,-0.32,0.39,-0.16,
4.947,0.63,-0.96,2.85,-0.31,0.38,-0.15,
4.948,0.63,-0.96,2.85,-0.30,0.37,-0.15,
4.951,0.71,-0.85,1.76,-0.30,0.37,-0.15,
4.951,0.71,-0.85,1.76,-0.30,0.36,-0.14,
4.953,0.71,-0.85,1.76,-0.29,0.35,-0.14,
4.955,0.71,-0.85,1.76,-0.29,0.35,-0.14,
4.956,0.71,-0.85,1.76,-0.30,0.33,-0.14,
4.959,0.71,-0.85,1.76,-0.30,0.31,-0.15,
4.961,0.85,-0.69,0.60,-0.30,0.31,-0.15,
4.961,0.85,-0.69,0.60,-0.31,0.29,-0.15,
4.962,0.85,-0.69,0.60,-0.33,0.27,-0.16,
4.965,0.85,-0.69,0.60,-0.34,0.25,-0.17,
4.966,0.85,-0.69,0.60,-0.36,0.23,-0.18,
4.969,0.85,-0.69,0.60,-0.37,0.21,-0.19,
4.971,1.03,-0.64,-0.26,-0.37,0.21,-0.19,
4.971,1.03,-0.64,-0.26,-0.39,0.18,-0.20,
4.973,1.03,-0.64,-0.26,-0.41,0.16,-0.22,
4.974,1.03,-0.64,-0.26,-0.44,0.14,-0.23,
4.976,1.03,-0.64,-0.26,-0.46,0.12,-0.24,
4.979,1.03,-0.64,-0.26,-0.47,0.09,-0.24,
4.981,1.04,-0.57,-0.69,-0.47,0.09,-0.24,
