
time,ax,ay,az,wx,wy,wz,
0.003,-0.23,-0.06,-0.64,-0.14,-0.26,-0.45,
0.003,-0.23,-0.06,-0.64,-0.13,-0.28,-0.45,
0.003,-0.23,-0.06,-0.64,-0.13,-0.32,-0.46,
0.003,-0.23,-0.06,-0.64,-0.13,-0.37,-0.45,
0.004,-0.23,-0.06,-0.64,-0.14,-0.43,-0.44,
0.004,-0.23,-0.06,-0.64,-0.15,-0.49,-0.43,
0.004,-0.80,-0.04,-1.06,-0.15,-0.49,-0.43,
0.004,-0.80,-0.04,-1.06,-0.16,-0.57,-0.42,
0.005,-0.80,-0.04,-1.06,-0.17,-0.66,-0.40,
0.007,-0.80,-0.04,-1.06,-0.18,-0.74,-0.39,
0.009,-0.80,-0.04,-1.06,-0.20,-0.82,-0.37,
0.012,-0.80,-0.04,-1.06,-0.22,-0.90,-0.35,
0.013,-1.20,0.14,-1.14,-0.22,-0.90,-0.35,
0.015,-1.20,0.14,-1.14,-0.24,-0.96,-0.32,
0.015,-1.20,0.14,-1.14,-0.26,-1.01,-0.30,
0.017,-1.20,0.14,-1.14,-0.28,-1.05,-0.27,
0.019,-1.20,0.14,-1.14,-0.31,-1.08,-0.25,
0.021,-1.20,0.14,-1.14,-0.33,-1.09,-0.22,
0.023,-1.10,0.37,-1.23,-0.33,-1.09,-0.22,
0.023,-1.10,0.37,-1.23,-0.37,-1.09,-0.20,
0.024,-1.10,0.37,-1.23,-0.40,-1.08,-0.17,
0.027,-1.10,0.37,-1.23,-0.43,-1.08,-0.15,
0.028,-1.10,0.37,-1.23,-0.47,-1.06,-0.12,
0.031,-1.10,0.37,-1.23,-0.52,-1.05,-0.10,
0.035,-0.84,0.62,-1.33,-0.52,-1.05,-0.10,
0.035,-0.84,0.62,-1.33,-0.58,-1.03,-0.07,
0.035,-0.84,0.62,-1.33,-0.63,-1.02,-0.05,
0.039,-0.84,0.62,-1.33,-0.65,-1.02,-0.04,
0.042,-0.84,0.62,-1.33,-0.70,-1.01,-0.02,
0.042,-0.84,0.62,-1.33,-0.74,-1.01,-0.00,
0.045,-0.58,0.70,-1.18,-0.74,-1.01,-0.00,
0.045,-0.58,0.70,-1.18,-0.79,-1.01,0.02,
0.045,-0.58,0.70,-1.18,-0.84,-1.02,0.03,
0.076,-0.58,0.70,-1.18,-0.89,-1.02,0.05,
0.077,-0.58,0.70,-1.18,-0.94,-1.04,0.07,
0.077,-0.58,0.70,-1.18,-0.98,-1.07,0.09,
0.077,-0.72,0.63,-0.83,-0.98,-1.07,0.09,
0.077,-0.72,0.63,-0.83,-1.03,-1.09,0.12,
0.078,-0.72,0.63,-0.83,-1.08,-1.12,0.14,
0.078,-0.72,0.63,-0.83,-1.13,-1.15,0.16,
0.078,-0.72,0.63,-0.83,-1.18,-1.19,0.17,
0.078,-0.72,0.63,-0.83,-1.23,-1.21,0.19,
0.079,-0.82,0.72,-0.62,-1.23,-1.21,0.19,
0.079,-0.82,0.72,-0.62,-1.28,-1.24,0.20,
0.079,-0.82,0.72,-0.62,-1.33,-1.25,0.21,
0.079,-0.82,0.72,-0.62,-1.38,-1.26,0.22,
0.08,-0.82,0.72,-0.62,-1.42,-1.25,0.23,
0.08,-0.82,0.72,-0.62,-1.47,-1.24,0.24,
0.084,-0.57,0.83,-0.71,-1.47,-1.24,0.24,
0.085,-0.57,0.83,-0.71,-1.51,-1.23,0.24,
0.085,-0.57,0.83,-0.71,-1.56,-1.20,0.25,
0.085,-0.57,0.83,-0.71,-1.60,-1.18,0.25,
0.085,-0.57,0.83,-0.71,-1.65,-1.15,0.26,
0.086,-0.57,0.83,-0.71,-1.69,-1.12,0.27,
0.086,-0.30,0.69,-0.71,-1.69,-1.12,0.27,
0.086,-0.30,0.69,-0.71,-1.73,-1.10,0.27,
0.086,-0.30,0.69,-0.71,-1.77,-1.08,0.28,
0.087,-0.30,0.69,-0.71,-1.81,-1.06,0.29,
0.096,-0.30,0.69,-0.71,-1.85,-1.05,0.30,
0.096,-0.30,0.69,-0.71,-1.88,-1.04,0.31,
0.097,-0.23,0.65,-0.57,-1.88,-1.04,0.31,
0.097,-0.23,0.65,-0.57,-1.91,-1.03,0.32,
0.097,-0.23,0.65,-0.57,-1.94,-1.02,0.32,
0.098,-0.23,0.65,-0.57,-1.96,-1.00,0.33,
0.1,-0.23,0.65,-0.57,-1.99,-0.99,0.34,
0.107,-0.23,0.65,-0.57,-2.01,-0.97,0.34,
0.108,-0.15,0.56,-0.44,-2.01,-0.97,0.34,
0.108,-0.15,0.56,-0.44,-2.03,-0.96,0.35,
0.108,-0.15,0.56,-0.44,-2.05,-0.94,0.35,
0.109,-0.15,0.56,-0.44,-2.06,-0.93,0.36,
0.109,-0.15,0.56,-0.44,-2.07,-0.92,0.36,
0.111,-0.15,0.56,-0.44,-2.08,-0.91,0.37,
0.148,-0.21,0.50,-0.21,-2.08,-0.91,0.37,
0.148,-0.21,0.50,-0.21,-2.09,-0.90,0.38,
0.148,-0.21,0.50,-0.21,-2.10,-0.89,0.39,
0.148,-0.21,0.50,-0.21,-2.10,-0.87,0.39,
0.148,-0.21,0.50,-0.21,-2.09,-0.82,0.39,
0.149,-0.21,0.50,-0.21,-2.08,-0.75,0.38,
0.149,-0.04,0.75,0.58,-2.08,-0.75,0.38,
0.149,-0.04,0.75,0.58,-2.06,-0.64,0.38,
0.149,-0.04,0.75,0.58,-2.03,-0.53,0.37,
0.149,-0.04,0.75,0.58,-2.01,-0.43,0.36,
0.15,-0.04,0.75,0.58,-1.99,-0.36,0.36,
0.15,-0.04,0.75,0.58,-1.96,-0.32,0.36,
0.15,-0.31,0.81,1.38,-1.96,-0.32,0.36,
0.15,-0.31,0.81,1.38,-1.93,-0.30,0.36,
0.15,-0.31,0.81,1.38,-1.89,-0.31,0.37,
0.15,-0.31,0.81,1.38,-1.85,-0.32,0.37,
0.151,-0.31,0.81,1.38,-1.81,-0.34,0.39,
0.151,-0.31,0.81,1.38,-1.76,-0.35,0.40,
0.151,-0.64,0.82,2.56,-1.76,-0.35,0.40,
0.151,-0.64,0.82,2.56,-1.71,-0.36,0.42,
0.151,-0.64,0.82,2.56,-1.67,-0.37,0.44,
0.151,-0.64,0.82,2.56,-1.61,-0.38,0.46,
0.152,-0.64,0.82,2.56,-1.56,-0.39,0.49,
0.152,-0.64,0.82,2.56,-1.50,-0.39,0.52,
0.158,-0.92,1.02,3.44,-1.50,-0.39,0.52,
0.158,-0.92,1.02,3.44,-1.43,-0.39,0.55,
0.158,-0.92,1.02,3.44,-1.37,-0.38,0.59,
0.158,-0.92,1.02,3.44,-1.30,-0.37,0.62,
0.158,-0.92,1.02,3.44,-1.24,-0.36,0.66,
0.161,-0.92,1.02,3.44,-1.17,-0.34,0.70,
0.164,-0.88,0.96,3.89,-1.17,-0.34,0.70,
0.164,-0.88,0.96,3.89,-1.11,-0.33,0.73,
0.165,-0.88,0.96,3.89,-1.05,-0.32,0.77,
0.167,-0.88,0.96,3.89,-0.99,-0.31,0.80,
0.169,-0.88,0.96,3.89,-0.93,-0.30,0.84,
0.171,-0.88,0.96,3.89,-0.88,-0.29,0.87,
0.173,-0.65,0.60,3.71,-0.88,-0.29,0.87,
0.174,-0.65,0.60,3.71,-0.83,-0.29,0.91,
0.175,-0.65,0.60,3.71,-0.78,-0.28,0.94,
0.177,-0.65,0.60,3.71,-0.75,-0.28,0.97,
0.179,-0.65,0.60,3.71,-0.71,-0.27,1.01,
0.183,-0.65,0.60,3.71,-0.67,-0.26,1.05,
0.183,-0.69,0.06,3.23,-0.67,-0.26,1.05,
0.184,-0.69,0.06,3.23,-0.64,-0.24,1.08,
0.185,-0.69,0.06,3.23,-0.61,-0.23,1.11,
0.193,-0.69,0.06,3.23,-0.59,-0.23,1.14,
0.193,-0.69,0.06,3.23,-0.56,-0.24,1.17,
0.193,-0.69,0.06,3.23,-0.55,-0.24,1.19,
0.193,-0.30,-0.09,2.78,-0.55,-0.24,1.19,
0.194,-0.30,-0.09,2.78,-0.54,-0.25,1.21,
0.195,-0.30,-0.09,2.78,-0.54,-0.25,1.22,
0.202,-0.30,-0.09,2.78,-0.53,-0.26,1.23,
0.202,-0.30,-0.09,2.78,-0.52,-0.27,1.24,
0.202,-0.30,-0.09,2.78,-0.51,-0.29,1.25,
0.204,0.16,0.21,2.49,-0.51,-0.29,1.25,
0.204,0.16,0.21,2.49,-0.51,-0.29,1.25,
0.205,0.16,0.21,2.49,-0.50,-0.30,1.25,
0.207,0.16,0.21,2.49,-0.50,-0.31,1.24,
0.211,0.16,0.21,2.49,-0.49,-0.31,1.22,
0.212,0.16,0.21,2.49,-0.49,-0.30,1.21,
0.254,0.57,0.51,2.32,-0.49,-0.30,1.21,
0.255,0.57,0.51,2.32,-0.49,-0.29,1.18,
0.255,0.57,0.51,2.32,-0.49,-0.28,1.16,
0.255,0.57,0.51,2.32,-0.48,-0.27,1.13,
0.255,0.57,0.51,2.32,-0.48,-0.25,1.09,
0.255,0.57,0.51,2.32,-0.48,-0.23,1.05,
0.256,0.88,0.56,2.34,-0.48,-0.23,1.05,
0.256,0.88,0.56,2.34,-0.46,-0.21,0.98,
0.256,0.88,0.56,2.34,-0.45,-0.20,0.96,
0.256,0.88,0.56,2.34,-0.44,-0.17,0.90,
0.256,0.88,0.56,2.34,-0.43,-0.15,0.85,
0.257,0.88,0.56,2.34,-0.41,-0.12,0.80,
0.257,1.20,0.47,2.64,-0.41,-0.12,0.80,
0.257,1.20,0.47,2.64,-0.37,-0.07,0.72,
0.257,1.20,0.47,2.64,-0.35,-0.04,0.66,
0.257,1.20,0.47,2.64,-0.34,-0.02,0.63,
0.273,1.20,0.47,2.64,-0.29,0.03,0.55,
0.273,1.20,0.47,2.64,-0.28,0.04,0.52,
0.273,1.37,0.33,2.84,-0.28,0.04,0.52,
0.273,1.37,0.33,2.84,-0.23,0.10,0.45,
0.274,1.37,0.33,2.84,-0.21,0.12,0.42,
0.274,1.37,0.33,2.84,-0.17,0.16,0.37,
0.274,1.37,0.33,2.84,-0.14,0.19,0.32,
0.274,1.37,0.33,2.84,-0.10,0.22,0.28,
0.274,1.31,0.14,2.83,-0.10,0.22,0.28,
0.275,1.31,0.14,2.83,-0.05,0.26,0.21,
0.275,1.31,0.14,2.83,-0.03,0.27,0.18,
0.275,1.31,0.14,2.83,0.01,0.29,0.14,
0.275,1.31,0.14,2.83,0.07,0.31,0.08,
0.275,1.31,0.14,2.83,0.09,0.32,0.06,
0.276,1.11,-0.05,2.77,0.09,0.32,0.06,
0.276,1.11,-0.05,2.77,0.15,0.34,-0.01,
0.276,1.11,-0.05,2.77,0.17,0.34,-0.03,
0.276,1.11,-0.05,2.77,0.22,0.35,-0.06,
0.276,1.11,-0.05,2.77,0.28,0.35,-0.12,
0.277,1.11,-0.05,2.77,0.30,0.35,-0.14,
0.277,0.75,-0.22,2.48,0.30,0.35,-0.14,
0.277,0.75,-0.22,2.48,0.37,0.33,-0.19,
0.277,0.75,-0.22,2.48,0.39,0.33,-0.21,
0.277,0.75,-0.22,2.48,0.46,0.30,-0.26,
0.29,0.75,-0.22,2.48,0.49,0.27,-0.28,
0.29,0.75,-0.22,2.48,0.53,0.24,-0.31,
0.291,0.29,-0.23,2.06,0.53,0.24,-0.31,
0.291,0.29,-0.23,2.06,0.57,0.20,-0.34,
0.291,0.29,-0.23,2.06,0.61,0.17,-0.36,
0.291,0.29,-0.23,2.06,0.65,0.14,-0.38,
0.291,0.29,-0.23,2.06,0.68,0.11,-0.40,
0.291,0.29,-0.23,2.06,0.71,0.07,-0.41,
0.293,-0.24,-0.42,1.42,0.71,0.07,-0.41,
0.293,-0.24,-0.42,1.42,0.73,0.04,-0.42,
0.294,-0.24,-0.42,1.42,0.75,0.00,-0.42,
0.297,-0.24,-0.42,1.42,0.78,-0.03,-0.43,
0.299,-0.24,-0.42,1.42,0.79,-0.07,-0.43,
0.301,-0.24,-0.42,1.42,0.81,-0.10,-0.43,
0.303,-0.67,-0.81,0.65,0.81,-0.10,-0.43,
0.303,-0.67,-0.81,0.65,0.81,-0.14,-0.43,
0.305,-0.67,-0.81,0.65,0.82,-0.18,-0.42,
0.307,-0.67,-0.81,0.65,0.82,-0.23,-0.42,
0.309,-0.67,-0.81,0.65,0.82,-0.27,-0.41,
0.311,-0.67,-0.81,0.65,0.82,-0.33,-0.40,
0.313,-1.07,-1.08,0.27,0.82,-0.33,-0.40,
0.314,-1.07,-1.08,0.27,0.82,-0.38,-0.39,
0.315,-1.07,-1.08,0.27,0.81,-0.44,-0.37,
0.317,-1.07,-1.08,0.27,0.80,-0.51,-0.37,
0.319,-1.07,-1.08,0.27,0.79,-0.57,-0.36,
0.321,-1.07,-1.08,0.27,0.78,-0.64,-0.35,
0.323,-1.17,-1.19,-0.01,0.78,-0.64,-0.35,
0.323,-1.17,-1.19,-0.01,0.76,-0.71,-0.35,
0.325,-1.17,-1.19,-0.01,0.74,-0.79,-0.35,
0.327,-1.17,-1.19,-0.01,0.71,-0.86,-0.35,
0.33,-1.17,-1.19,-0.01,0.69,-0.93,-0.35,
0.331,-1.17,-1.19,-0.01,0.66,-1.00,-0.36,
0.335,-1.24,-1.18,-0.23,0.66,-1.00,-0.36,
0.336,-1.24,-1.18,-0.23,0.64,-1.06,-0.36,
0.336,-1.24,-1.18,-0.23,0.62,-1.12,-0.37,
0.337,-1.24,-1.18,-0.23,0.60,-1.17,-0.37,
0.339,-1.24,-1.18,-0.23,0.58,-1.22,-0.37,
0.341,-1.24,-1.18,-0.23,0.56,-1.26,-0.38,
0.343,-1.28,-0.90,-0.23,0.56,-1.26,-0.38,
0.343,-1.28,-0.90,-0.23,0.54,-1.29,-0.39,
0.345,-1.28,-0.90,-0.23,0.53,-1.32,-0.40,
0.348,-1.28,-0.90,-0.23,0.51,-1.35,-0.41,
0.349,-1.28,-0.90,-0.23,0.49,-1.37,-0.41,
0.351,-1.28,-0.90,-0.23,0.48,-1.38,-0.42,
0.353,-1.31,-0.66,-0.05,0.48,-1.38,-0.42,
0.353,-1.31,-0.66,-0.05,0.47,-1.40,-0.42,
0.355,-1.31,-0.66,-0.05,0.46,-1.41,-0.43,
0.357,-1.31,-0.66,-0.05,0.45,-1.42,-0.43,
0.359,-1.31,-0.66,-0.05,0.45,-1.42,-0.43,
0.36,-1.31,-0.66,-0.05,0.44,-1.42,-0.43,
0.365,-1.34,-0.45,0.25,0.44,-1.42,-0.43,
0.365,-1.34,-0.45,0.25,0.44,-1.42,-0.43,
0.365,-1.34,-0.45,0.25,0.43,-1.41,-0.43,
0.368,-1.34,-0.45,0.25,0.44,-1.40,-0.43,
0.371,-1.34,-0.45,0.25,0.44,-1.38,-0.42,
0.378,-1.34,-0.45,0.25,0.44,-1.37,-0.42,
0.378,-1.24,-0.26,0.61,0.44,-1.37,-0.42,
0.378,-1.24,-0.26,0.61,0.44,-1.35,-0.42,
0.378,-1.24,-0.26,0.61,0.45,-1.33,-0.41,
0.378,-1.24,-0.26,0.61,0.46,-1.31,-0.41,
0.413,-1.24,-0.26,0.61,0.47,-1.29,-0.41,
0.413,-1.24,-0.26,0.61,0.48,-1.27,-0.41,
0.413,-1.19,-0.09,0.96,0.48,-1.27,-0.41,
0.413,-1.19,-0.09,0.96,0.49,-1.25,-0.40,
0.413,-1.19,-0.09,0.96,0.51,-1.23,-0.40,
0.414,-1.19,-0.09,0.96,0.54,-1.20,-0.40,
0.414,-1.19,-0.09,0.96,0.56,-1.16,-0.39,
0.414,-1.19,-0.09,0.96,0.60,-1.12,-0.39,
0.414,-1.30,0.29,1.56,0.60,-1.12,-0.39,
0.414,-1.30,0.29,1.56,0.63,-1.06,-0.38,
0.414,-1.30,0.29,1.56,0.67,-1.00,-0.37,
0.414,-1.30,0.29,1.56,0.70,-0.93,-0.37,
0.414,-1.30,0.29,1.56,0.74,-0.86,-0.36,
0.415,-1.30,0.29,1.56,0.77,-0.78,-0.35,
0.415,-1.33,0.37,1.52,0.77,-0.78,-0.35,
0.415,-1.33,0.37,1.52,0.79,-0.70,-0.33,
0.427,-1.33,0.37,1.52,0.82,-0.62,-0.32,
0.427,-1.33,0.37,1.52,0.83,-0.54,-0.31,
0.427,-1.33,0.37,1.52,0.84,-0.47,-0.29,
0.427,-1.33,0.37,1.52,0.84,-0.41,-0.28,
0.428,-1.12,-0.15,0.62,0.84,-0.41,-0.28,
0.428,-1.12,-0.15,0.62,0.83,-0.35,-0.27,
0.428,-1.12,-0.15,0.62,0.82,-0.30,-0.26,
0.428,-1.12,-0.15,0.62,0.80,-0.26,-0.25,
0.428,-1.12,-0.15,0.62,0.77,-0.21,-0.24,
0.428,-1.12,-0.15,0.62,0.74,-0.17,-0.23,
0.429,-0.87,-0.59,-0.61,0.74,-0.17,-0.23,
0.429,-0.87,-0.59,-0.61,0.70,-0.13,-0.22,
0.429,-0.87,-0.59,-0.61,0.66,-0.09,-0.21,
0.429,-0.87,-0.59,-0.61,0.62,-0.05,-0.20,
0.438,-0.87,-0.59,-0.61,0.58,-0.01,-0.19,
0.439,-0.87,-0.59,-0.61,0.53,0.02,-0.18,
0.439,-1.18,-0.48,-1.52,0.53,0.02,-0.18,
0.439,-1.18,-0.48,-1.52,0.49,0.06,-0.16,
0.439,-1.18,-0.48,-1.52,0.44,0.10,-0.15,
0.439,-1.18,-0.48,-1.52,0.40,0.13,-0.14,
0.439,-1.18,-0.48,-1.52,0.35,0.16,-0.13,
0.443,-1.18,-0.48,-1.52,0.30,0.19,-0.11,
0.444,-1.25,-0.36,-2.16,0.30,0.19,-0.11,
0.444,-1.25,-0.36,-2.16,0.26,0.22,-0.10,
0.447,-1.25,-0.36,-2.16,0.22,0.24,-0.09,
0.451,-1.25,-0.36,-2.16,0.18,0.26,-0.08,
0.451,-1.25,-0.36,-2.16,0.14,0.27,-0.07,
0.452,-1.25,-0.36,-2.16,0.10,0.29,-0.06,
0.455,-1.24,-0.25,-2.34,0.10,0.29,-0.06,
0.455,-1.24,-0.25,-2.34,0.07,0.30,-0.05,
0.456,-1.24,-0.25,-2.34,0.05,0.30,-0.04,
0.459,-1.24,-0.25,-2.34,0.02,0.30,-0.03,
0.459,-1.24,-0.25,-2.34,0.01,0.30,-0.02,
0.463,-1.24,-0.25,-2.34,-0.00,0.29,-0.01,
0.465,-1.05,-0.22,-1.96,-0.00,0.29,-0.01,
0.466,-1.05,-0.22,-1.96,-0.01,0.29,-0.01,
0.466,-1.05,-0.22,-1.96,-0.01,0.28,-0.01,
0.467,-1.05,-0.22,-1.96,-0.01,0.27,-0.02,
0.469,-1.05,-0.22,-1.96,-0.01,0.27,-0.02,
0.471,-1.05,-0.22,-1.96,-0.00,0.27,-0.03,
0.473,-0.58,-0.21,-1.52,-0.00,0.27,-0.03,
0.473,-0.58,-0.21,-1.52,0.01,0.27,-0.04,
0.474,-0.58,-0.21,-1.52,0.02,0.28,-0.06,
0.477,-0.58,-0.21,-1.52,0.03,0.29,-0.07,
0.482,-0.58,-0.21,-1.52,0.05,0.30,-0.09,
0.482,-0.58,-0.21,-1.52,0.07,0.31,-0.11,
0.484,-0.20,-0.19,-1.34,0.07,0.31,-0.11,
0.484,-0.20,-0.19,-1.34,0.08,0.32,-0.13,
0.485,-0.20,-0.19,-1.34,0.10,0.33,-0.15,
0.487,-0.20,-0.19,-1.34,0.12,0.33,-0.17,
0.489,-0.20,-0.19,-1.34,0.14,0.33,-0.20,
0.492,-0.20,-0.19,-1.34,0.16,0.33,-0.22,
0.493,-0.10,-0.26,-1.24,0.16,0.33,-0.22,
0.494,-0.10,-0.26,-1.24,0.18,0.33,-0.25,
0.504,-0.10,-0.26,-1.24,0.21,0.32,-0.27,
0.504,-0.10,-0.26,-1.24,0.23,0.32,-0.29,
0.504,-0.10,-0.26,-1.24,0.25,0.32,-0.32,
0.504,-0.10,-0.26,-1.24,0.27,0.32,-0.35,
0.504,-0.16,-0.30,-1.39,0.27,0.32,-0.35,
0.505,-0.16,-0.30,-1.39,0.29,0.33,-0.37,
0.505,-0.16,-0.30,-1.39,0.30,0.34,-0.39,
0.507,-0.16,-0.30,-1.39,0.31,0.36,-0.41,
0.509,-0.16,-0.30,-1.39,0.32,0.38,-0.43,
0.512,-0.16,-0.30,-1.39,0.34,0.40,-0.45,
0.514,-0.44,-0.34,-1.70,0.34,0.40,-0.45,
0.514,-0.44,-0.34,-1.70,0.35,0.43,-0.47,
0.515,-0.44,-0.34,-1.70,0.36,0.45,-0.48,
0.517,-0.44,-0.34,-1.70,0.38,0.48,-0.49,
0.519,-0.44,-0.34,-1.70,0.39,0.50,-0.51,
0.521,-0.44,-0.34,-1.70,0.40,0.53,-0.52,
0.523,-0.62,-0.35,-1.75,0.40,0.53,-0.52,
0.523,-0.62,-0.35,-1.75,0.42,0.55,-0.52,
0.524,-0.62,-0.35,-1.75,0.43,0.58,-0.53,
0.527,-0.62,-0.35,-1.75,0.44,0.60,-0.53,
0.529,-0.62,-0.35,-1.75,0.45,0.62,-0.53,
0.538,-0.62,-0.35,-1.75,0.46,0.64,-0.53,
0.538,-1.04,-0.19,-1.87,0.46,0.64,-0.53,
0.538,-1.04,-0.19,-1.87,0.47,0.66,-0.52,
0.538,-1.04,-0.19,-1.87,0.48,0.68,-0.51,
0.54,-1.04,-0.19,-1.87,0.48,0.69,-0.50,
0.54,-1.04,-0.19,-1.87,0.49,0.69,-0.49,
0.541,-1.04,-0.19,-1.87,0.50,0.69,-0.48,
0.544,-1.21,-0.24,-1.80,0.50,0.69,-0.48,
0.544,-1.21,-0.24,-1.80,0.50,0.69,-0.47,
0.545,-1.21,-0.24,-1.80,0.51,0.68,-0.46,
0.568,-1.21,-0.24,-1.80,0.51,0.67,-0.45,
0.568,-1.21,-0.24,-1.80,0.52,0.65,-0.44,
0.568,-1.21,-0.24,-1.80,0.52,0.63,-0.42,
0.569,-1.10,-0.63,-1.49,0.52,0.63,-0.42,
0.569,-1.10,-0.63,-1.49,0.52,0.61,-0.41,
0.569,-1.10,-0.63,-1.49,0.53,0.58,-0.39,
0.57,-1.10,-0.63,-1.49,0.53,0.55,-0.37,
0.57,-1.10,-0.63,-1.49,0.53,0.52,-0.34,
0.57,-1.10,-0.63,-1.49,0.53,0.50,-0.32,
0.57,-1.11,-0.95,-1.36,0.53,0.50,-0.32,
0.571,-1.11,-0.95,-1.36,0.53,0.47,-0.29,
0.571,-1.11,-0.95,-1.36,0.53,0.44,-0.25,
0.571,-1.11,-0.95,-1.36,0.54,0.42,-0.22,
0.571,-1.11,-0.95,-1.36,0.54,0.40,-0.19,
0.572,-1.11,-0.95,-1.36,0.54,0.38,-0.15,
0.588,-1.16,-1.12,-1.20,0.54,0.38,-0.15,
0.589,-1.16,-1.12,-1.20,0.54,0.36,-0.11,
0.589,-1.16,-1.12,-1.20,0.55,0.35,-0.07,
0.589,-1.16,-1.12,-1.20,0.56,0.34,-0.03,
0.589,-1.16,-1.12,-1.20,0.56,0.34,0.00,
0.589,-1.16,-1.12,-1.20,0.57,0.33,0.04,
0.59,-0.92,-1.04,-0.98,0.57,0.33,0.04,
0.59,-0.92,-1.04,-0.98,0.58,0.33,0.07,
0.59,-0.92,-1.04,-0.98,0.59,0.34,0.10,
0.59,-0.92,-1.04,-0.98,0.60,0.34,0.13,
0.591,-0.92,-1.04,-0.98,0.62,0.35,0.16,
0.591,-0.92,-1.04,-0.98,0.63,0.35,0.18,
0.6,-0.59,-0.80,-0.88,0.63,0.35,0.18,
0.6,-0.59,-0.80,-0.88,0.64,0.36,0.20,
0.6,-0.59,-0.80,-0.88,0.65,0.38,0.21,
0.601,-0.59,-0.80,-0.88,0.66,0.39,0.23,
0.601,-0.59,-0.80,-0.88,0.67,0.40,0.24,
0.601,-0.59,-0.80,-0.88,0.68,0.40,0.24,
0.604,-0.19,-0.54,-0.96,0.68,0.40,0.24,
0.605,-0.19,-0.54,-0.96,0.69,0.40,0.25,
0.605,-0.19,-0.54,-0.96,0.70,0.40,0.25,
0.607,-0.19,-0.54,-0.96,0.71,0.40,0.25,
0.609,-0.19,-0.54,-0.96,0.72,0.39,0.24,
0.619,-0.19,-0.54,-0.96,0.73,0.38,0.24,
0.62,0.25,-0.39,-0.99,0.73,0.38,0.24,
0.62,0.25,-0.39,-0.99,0.73,0.36,0.23,
0.62,0.25,-0.39,-0.99,0.74,0.35,0.23,
0.62,0.25,-0.39,-0.99,0.75,0.34,0.22,
0.621,0.25,-0.39,-0.99,0.75,0.32,0.21,
0.621,0.25,-0.39,-0.99,0.76,0.30,0.20,
0.663,0.53,-0.31,-0.87,0.76,0.30,0.20,
0.663,0.53,-0.31,-0.87,0.76,0.29,0.19,
0.663,0.53,-0.31,-0.87,0.77,0.27,0.17,
0.663,0.53,-0.31,-0.87,0.78,0.26,0.16,
0.664,0.53,-0.31,-0.87,0.79,0.24,0.15,
0.664,0.53,-0.31,-0.87,0.80,0.23,0.14,
0.664,0.64,-0.34,-0.64,0.80,0.23,0.14,
0.664,0.64,-0.34,-0.64,0.81,0.22,0.13,
0.664,0.64,-0.34,-0.64,0.81,0.21,0.12,
0.664,0.64,-0.34,-0.64,0.82,0.20,0.10,
0.664,0.64,-0.34,-0.64,0.82,0.19,0.09,
0.664,0.64,-0.34,-0.64,0.82,0.17,0.08,
0.665,0.64,-0.49,-0.55,0.82,0.17,0.08,
0.665,0.64,-0.49,-0.55,0.82,0.15,0.06,
0.665,0.64,-0.49,-0.55,0.82,0.12,0.05,
0.665,0.64,-0.49,-0.55,0.81,0.10,0.04,
0.665,0.64,-0.49,-0.55,0.79,0.08,0.03,
0.665,0.64,-0.49,-0.55,0.78,0.05,0.02,
0.665,0.33,-0.85,-0.59,0.78,0.05,0.02,
0.666,0.33,-0.85,-0.59,0.76,0.03,0.01,
0.666,0.33,-0.85,-0.59,0.74,0.02,0.01,
0.666,0.33,-0.85,-0.59,0.73,0.00,0.01,
0.666,0.33,-0.85,-0.59,0.71,-0.00,0.02,
0.666,0.33,-0.85,-0.59,0.69,-0.00,0.03,
0.666,-0.28,-1.20,-0.74,0.69,-0.00,0.03,
0.666,-0.28,-1.20,-0.74,0.68,0.00,0.04,
0.667,-0.28,-1.20,-0.74,0.66,0.01,0.06,
0.668,-0.28,-1.20,-0.74,0.64,0.03,0.09,
0.67,-0.28,-1.20,-0.74,0.62,0.04,0.11,
0.671,-0.28,-1.20,-0.74,0.60,0.06,0.14,
0.674,-0.75,-1.26,-0.96,0.60,0.06,0.14,
0.674,-0.75,-1.26,-0.96,0.58,0.08,0.17,
0.675,-0.75,-1.26,-0.96,0.59,0.09,0.21,
0.677,-0.75,-1.26,-0.96,0.55,0.10,0.25,
0.68,-0.75,-1.26,-0.96,0.51,0.11,0.29,
0.682,-0.75,-1.26,-0.96,0.49,0.13,0.33,
0.685,-0.96,-1.08,-1.13,0.49,0.13,0.33,
0.685,-0.96,-1.08,-1.13,0.47,0.13,0.37,
0.685,-0.96,-1.08,-1.13,0.45,0.13,0.41,
0.687,-0.96,-1.08,-1.13,0.43,0.13,0.45,
0.689,-0.96,-1.08,-1.13,0.40,0.12,0.49,
0.691,-0.96,-1.08,-1.13,0.37,0.12,0.53,
0.693,-0.87,-0.85,-1.32,0.37,0.12,0.53,
0.694,-0.87,-0.85,-1.32,0.34,0.12,0.56,
0.695,-0.87,-0.85,-1.32,0.31,0.11,0.60,
0.697,-0.87,-0.85,-1.32,0.28,0.09,0.63,
0.701,-0.87,-0.85,-1.32,0.24,0.07,0.66,
0.702,-0.87,-0.85,-1.32,0.21,0.04,0.68,
0.704,-0.49,-0.77,-1.52,0.21,0.04,0.68,
0.704,-0.49,-0.77,-1.52,0.17,0.02,0.70,
0.705,-0.49,-0.77,-1.52,0.13,-0.02,0.72,
0.707,-0.49,-0.77,-1.52,0.08,-0.05,0.73,
0.709,-0.49,-0.77,-1.52,0.04,-0.09,0.74,
0.712,-0.49,-0.77,-1.52,-0.01,-0.13,0.75,
0.738,0.01,-0.72,-1.57,-0.01,-0.13,0.75,
0.738,0.01,-0.72,-1.57,-0.06,-0.18,0.75,
0.738,0.01,-0.72,-1.57,-0.11,-0.23,0.74,
0.738,0.01,-0.72,-1.57,-0.15,-0.27,0.73,
0.738,0.01,-0.72,-1.57,-0.20,-0.31,0.71,
0.739,0.01,-0.72,-1.57,-0.25,-0.35,0.68,
0.739,0.61,-0.40,-1.19,-0.25,-0.35,0.68,
0.739,0.61,-0.40,-1.19,-0.29,-0.39,0.65,
0.739,0.61,-0.40,-1.19,-0.33,-0.43,0.62,
0.739,0.61,-0.40,-1.19,-0.37,-0.46,0.58,
0.74,0.61,-0.40,-1.19,-0.40,-0.49,0.54,
0.74,0.61,-0.40,-1.19,-0.43,-0.52,0.50,
0.74,1.26,-0.17,-0.46,-0.43,-0.52,0.50,
0.74,1.26,-0.17,-0.46,-0.46,-0.54,0.46,
0.74,1.26,-0.17,-0.46,-0.49,-0.56,0.41,
0.741,1.26,-0.17,-0.46,-0.51,-0.58,0.37,
0.758,1.26,-0.17,-0.46,-0.53,-0.59,0.33,
0.758,1.26,-0.17,-0.46,-0.55,-0.61,0.29,
0.759,1.50,-0.27,0.24,-0.55,-0.61,0.29,
0.759,1.50,-0.27,0.24,-0.57,-0.61,0.26,
0.759,1.50,-0.27,0.24,-0.59,-0.62,0.23,
0.759,1.50,-0.27,0.24,-0.61,-0.62,0.19,
0.76,1.50,-0.27,0.24,-0.62,-0.61,0.16,
0.76,1.50,-0.27,0.24,-0.64,-0.61,0.14,
0.76,1.67,-0.57,0.81,-0.64,-0.61,0.14,
0.76,1.67,-0.57,0.81,-0.65,-0.59,0.12,
0.76,1.67,-0.57,0.81,-0.66,-0.58,0.10,
0.761,1.67,-0.57,0.81,-0.67,-0.56,0.08,
0.761,1.67,-0.57,0.81,-0.68,-0.54,0.06,
0.761,1.67,-0.57,0.81,-0.68,-0.51,0.05,
0.773,1.65,-0.77,1.62,-0.68,-0.51,0.05,
0.774,1.65,-0.77,1.62,-0.67,-0.48,0.03,
0.774,1.65,-0.77,1.62,-0.67,-0.44,0.02,
0.774,1.65,-0.77,1.62,-0.65,-0.39,0.01,
0.774,1.65,-0.77,1.62,-0.64,-0.33,0.00,
0.774,1.65,-0.77,1.62,-0.62,-0.27,-0.01,
0.778,1.57,-0.94,2.38,-0.62,-0.27,-0.01,
0.778,1.57,-0.94,2.38,-0.59,-0.20,-0.01,
0.779,1.57,-0.94,2.38,-0.57,-0.12,-0.02,
0.784,1.57,-0.94,2.38,-0.55,-0.05,-0.02,
0.785,1.57,-0.94,2.38,-0.53,0.03,-0.02,
0.786,1.57,-0.94,2.38,-0.51,0.11,-0.02,
0.786,1.17,-0.93,2.40,-0.51,0.11,-0.02,
0.786,1.17,-0.93,2.40,-0.49,0.19,-0.01,
0.79,1.17,-0.93,2.40,-0.47,0.41,0.02,
0.79,1.17,-0.93,2.40,-0.47,0.41,0.02,
0.791,1.17,-0.93,2.40,-0.47,0.41,0.02,
0.792,1.17,-0.93,2.40,-0.47,0.47,0.04,
0.799,0.40,-0.74,1.76,-0.47,0.47,0.04,
0.799,0.40,-0.74,1.76,-0.48,0.53,0.06,
0.799,0.40,-0.74,1.76,-0.49,0.59,0.08,
0.799,0.40,-0.74,1.76,-0.50,0.63,0.10,
0.8,0.40,-0.74,1.76,-0.52,0.67,0.12,
0.803,0.40,-0.74,1.76,-0.54,0.70,0.14,
0.804,0.19,-0.76,0.97,-0.54,0.70,0.14,
0.804,0.19,-0.76,0.97,-0.58,0.72,0.15,
0.809,0.19,-0.76,0.97,-0.62,0.74,0.17,
0.817,0.19,-0.76,0.97,-0.66,0.76,0.18,
0.817,0.19,-0.76,0.97,-0.70,0.77,0.20,
0.817,0.19,-0.76,0.97,-0.75,0.78,0.22,
0.818,0.36,-0.98,0.26,-0.75,0.78,0.22,
0.818,0.36,-0.98,0.26,-0.80,0.78,0.23,
0.819,0.36,-0.98,0.26,-0.85,0.78,0.24,
0.819,0.36,-0.98,0.26,-0.90,0.77,0.25,
0.821,0.36,-0.98,0.26,-0.95,0.75,0.26,
0.821,0.36,-0.98,0.26,-1.00,0.73,0.26,
0.824,0.57,-0.89,0.15,-1.00,0.73,0.26,
0.824,0.57,-0.89,0.15,-1.05,0.70,0.26,
0.825,0.57,-0.89,0.15,-1.10,0.67,0.26,
0.829,0.57,-0.89,0.15,-1.15,0.64,0.25,
0.829,0.57,-0.89,0.15,-1.20,0.60,0.24,
0.832,0.57,-0.89,0.15,-1.24,0.56,0.23,
0.833,0.72,-0.71,0.41,-1.24,0.56,0.23,
0.834,0.72,-0.71,0.41,-1.27,0.53,0.22,
0.841,0.72,-0.71,0.41,-1.31,0.50,0.21,
0.841,0.72,-0.71,0.41,-1.34,0.48,0.20,
0.841,0.72,-0.71,0.41,-1.36,0.45,0.18,
0.841,0.72,-0.71,0.41,-1.38,0.42,0.17,
0.843,0.62,-0.35,1.11,-1.38,0.42,0.17,
0.843,0.62,-0.35,1.11,-1.40,0.40,0.15,
0.846,0.62,-0.35,1.11,-1.41,0.37,0.13,
0.847,0.62,-0.35,1.11,-1.42,0.35,0.12,
0.852,0.62,-0.35,1.11,-1.43,0.33,0.10,
0.853,0.62,-0.35,1.11,-1.43,0.30,0.08,
0.853,0.73,-0.30,1.91,-1.43,0.30,0.08,
0.854,0.73,-0.30,1.91,-1.44,0.28,0.06,
0.855,0.73,-0.30,1.91,-1.44,0.25,0.05,
0.857,0.73,-0.30,1.91,-1.43,0.23,0.03,
0.86,0.73,-0.30,1.91,-1.43,0.21,0.01,
0.862,0.73,-0.30,1.91,-1.41,0.19,0.00,
0.867,0.68,-0.32,2.69,-1.41,0.19,0.00,
0.867,0.68,-0.32,2.69,-1.40,0.18,-0.01,
0.867,0.68,-0.32,2.69,-1.38,0.17,-0.01,
0.868,0.68,-0.32,2.69,-1.36,0.16,-0.02,
0.869,0.68,-0.32,2.69,-1.33,0.15,-0.02,
0.871,0.68,-0.32,2.69,-1.30,0.15,-0.02,
0.873,0.48,-0.32,3.30,-1.30,0.15,-0.02,
0.874,0.48,-0.32,3.30,-1.27,0.15,-0.02,
0.875,0.48,-0.32,3.30,-1.24,0.14,-0.02,
0.877,0.48,-0.32,3.30,-1.21,0.14,-0.02,
0.879,0.48,-0.32,3.30,-1.17,0.14,-0.01,
0.899,0.48,-0.32,3.30,-1.13,0.13,-0.01,
0.899,0.38,-0.29,3.77,-1.13,0.13,-0.01,
0.899,0.38,-0.29,3.77,-1.09,0.12,0.00,
0.9,0.38,-0.29,3.77,-1.05,0.11,0.01,
0.9,0.38,-0.29,3.77,-1.00,0.11,0.02,
0.9,0.38,-0.29,3.77,-0.96,0.10,0.03,
0.9,0.38,-0.29,3.77,-0.91,0.09,0.04,
0.901,0.39,-0.22,4.11,-0.91,0.09,0.04,
0.901,0.39,-0.22,4.11,-0.87,0.08,0.05,
0.901,0.39,-0.22,4.11,-0.82,0.07,0.06,
0.901,0.39,-0.22,4.11,-0.77,0.05,0.07,
0.902,0.39,-0.22,4.11,-0.73,0.04,0.08,
0.902,0.39,-0.22,4.11,-0.68,0.02,0.09,
0.91,0.50,-0.15,4.19,-0.68,0.02,0.09,
0.911,0.50,-0.15,4.19,-0.63,0.00,0.10,
0.926,0.50,-0.15,4.19,-0.59,-0.02,0.11,
0.927,0.50,-0.15,4.19,-0.54,-0.04,0.11,
0.927,0.50,-0.15,4.19,-0.50,-0.06,0.12,
0.927,0.50,-0.15,4.19,-0.46,-0.08,0.12,
0.928,0.76,-0.07,4.07,-0.46,-0.08,0.12,
0.928,0.76,-0.07,4.07,-0.42,-0.10,0.12,
0.928,0.76,-0.07,4.07,-0.38,-0.12,0.13,
0.929,0.76,-0.07,4.07,-0.34,-0.14,0.13,
0.929,0.76,-0.07,4.07,-0.29,-0.16,0.14,
0.929,0.76,-0.07,4.07,-0.26,-0.18,0.14,
0.929,0.94,0.08,3.89,-0.26,-0.18,0.14,
0.93,0.94,0.08,3.89,-0.22,-0.20,0.14,
0.93,0.94,0.08,3.89,-0.18,-0.22,0.14,
0.93,0.94,0.08,3.89,-0.14,-0.25,0.13,
0.93,0.94,0.08,3.89,-0.11,-0.27,0.13,
0.942,0.94,0.08,3.89,-0.07,-0.29,0.12,
0.942,1.29,0.14,3.70,-0.07,-0.29,0.12,
0.942,1.29,0.14,3.70,-0.03,-0.31,0.11,
0.943,1.29,0.14,3.70,0.01,-0.32,0.10,
0.943,1.29,0.14,3.70,0.04,-0.33,0.09,
0.943,1.29,0.14,3.70,0.08,-0.34,0.09,
0.943,1.29,0.14,3.70,0.12,-0.34,0.07,
0.944,1.39,0.35,3.43,0.12,-0.34,0.07,
0.944,1.39,0.35,3.43,0.15,-0.34,0.06,
0.946,1.39,0.35,3.43,0.19,-0.34,0.06,
0.948,1.39,0.35,3.43,0.22,-0.34,0.04,
0.949,1.39,0.35,3.43,0.25,-0.33,0.04,
0.951,1.39,0.35,3.43,0.29,-0.32,0.03,
0.956,1.38,0.52,2.88,0.29,-0.32,0.03,
0.956,1.38,0.52,2.88,0.32,-0.31,0.02,
0.957,1.38,0.52,2.88,0.35,-0.31,0.01,
0.964,1.38,0.52,2.88,0.37,-0.31,-0.00,
0.965,1.38,0.52,2.88,0.40,-0.30,-0.01,
0.965,1.38,0.52,2.88,0.42,-0.30,-0.02,
0.966,1.31,0.63,2.19,0.42,-0.30,-0.02,
0.974,1.31,0.63,2.19,0.45,-0.30,-0.03,
0.975,1.31,0.63,2.19,0.47,-0.31,-0.04,
0.975,1.31,0.63,2.19,0.49,-0.31,-0.05,
0.975,1.31,0.63,2.19,0.51,-0.31,-0.05,
0.975,1.31,0.63,2.19,0.52,-0.32,-0.06,
0.98,1.33,0.75,1.44,0.52,-0.32,-0.06,
0.981,1.33,0.75,1.44,0.54,-0.32,-0.07,
0.981,1.33,0.75,1.44,0.55,-0.33,-0.08,
0.981,1.33,0.75,1.44,0.56,-0.33,-0.10,
0.982,1.33,0.75,1.44,0.57,-0.34,-0.11,
0.983,1.33,0.75,1.44,0.57,-0.34,-0.12,
0.984,1.41,0.80,0.66,0.57,-0.34,-0.12,
0.984,1.41,0.80,0.66,0.58,-0.34,-0.14,
0.985,1.41,0.80,0.66,0.58,-0.34,-0.15,
0.987,1.41,0.80,0.66,0.58,-0.34,-0.17,
0.989,1.41,0.80,0.66,0.59,-0.34,-0.18,
0.994,1.41,0.80,0.66,0.58,-0.34,-0.20,
0.997,1.46,0.97,-0.04,0.58,-0.34,-0.20,
0.997,1.46,0.97,-0.04,0.58,-0.33,-0.22,
0.997,1.46,0.97,-0.04,0.58,-0.34,-0.24,
0.998,1.46,0.97,-0.04,0.57,-0.34,-0.26,
1.0,1.46,0.97,-0.04,0.56,-0.34,-0.29,
1.001,1.46,0.97,-0.04,0.55,-0.34,-0.31,
1.004,1.62,0.93,-0.66,0.55,-0.34,-0.31,
1.004,1.62,0.93,-0.66,0.54,-0.33,-0.34,
1.008,1.62,0.93,-0.66,0.53,-0.33,-0.37,
1.008,1.62,0.93,-0.66,0.51,-0.34,-0.40,
1.012,1.62,0.93,-0.66,0.49,-0.34,-0.42,
1.012,1.62,0.93,-0.66,0.48,-0.34,-0.46,
1.014,1.70,0.90,-1.15,0.48,-0.34,-0.46,
1.015,1.70,0.90,-1.15,0.46,-0.33,-0.49,
1.016,1.70,0.90,-1.15,0.44,-0.33,-0.52,
1.017,1.70,0.90,-1.15,0.42,-0.32,-0.55,
1.02,1.70,0.90,-1.15,0.40,-0.31,-0.59,
1.024,1.70,0.90,-1.15,0.37,-0.31,-0.62,
1.025,1.57,0.78,-1.41,0.37,-0.31,-0.62,
1.025,1.57,0.78,-1.41,0.35,-0.30,-0.65,
1.025,1.57,0.78,-1.41,0.33,-0.29,-0.68,
1.027,1.57,0.78,-1.41,0.31,-0.28,-0.71,
1.029,1.57,0.78,-1.41,0.29,-0.26,-0.74,
1.031,1.57,0.78,-1.41,0.27,-0.25,-0.77,
1.037,1.44,0.59,-1.49,0.27,-0.25,-0.77,
1.037,1.44,0.59,-1.49,0.25,-0.24,-0.80,
1.037,1.44,0.59,-1.49,0.23,-0.22,-0.83,
1.037,1.44,0.59,-1.49,0.22,-0.21,-0.85,
1.04,1.44,0.59,-1.49,0.20,-0.19,-0.88,
1.047,1.44,0.59,-1.49,0.19,-0.17,-0.90,
1.048,1.24,0.26,-1.40,0.19,-0.17,-0.90,
1.048,1.24,0.26,-1.40,0.18,-0.14,-0.93,
1.048,1.24,0.26,-1.40,0.17,-0.11,-0.95,
1.075,1.24,0.26,-1.40,0.17,-0.08,-0.97,
1.075,1.24,0.26,-1.40,0.17,-0.04,-0.98,
1.075,1.24,0.26,-1.40,0.16,-0.01,-1.00,
1.075,0.93,0.11,-1.31,0.16,-0.01,-1.00,
1.075,0.93,0.11,-1.31,0.16,0.03,-1.01,
1.076,0.93,0.11,-1.31,0.16,0.06,-1.02,
1.076,0.93,0.11,-1.31,0.16,0.09,-1.03,
1.076,0.93,0.11,-1.31,0.16,0.12,-1.04,
1.076,0.93,0.11,-1.31,0.16,0.15,-1.05,
1.076,0.58,-0.09,-1.33,0.16,0.15,-1.05,
1.076,0.58,-0.09,-1.33,0.16,0.18,-1.06,
1.076,0.58,-0.09,-1.33,0.16,0.20,-1.06,
1.077,0.58,-0.09,-1.33,0.16,0.22,-1.07,
1.077,0.58,-0.09,-1.33,0.17,0.24,-1.07,
1.077,0.58,-0.09,-1.33,0.18,0.26,-1.08,
1.093,0.22,-0.21,-1.44,0.18,0.26,-1.08,
1.093,0.22,-0.21,-1.44,0.18,0.28,-1.08,
1.093,0.22,-0.21,-1.44,0.19,0.30,-1.08,
1.093,0.22,-0.21,-1.44,0.19,0.31,-1.08,
1.094,0.22,-0.21,-1.44,0.20,0.32,-1.08,
1.094,0.22,-0.21,-1.44,0.21,0.33,-1.08,
1.094,-0.09,-0.18,-1.64,0.21,0.33,-1.08,
1.094,-0.09,-0.18,-1.64,0.21,0.34,-1.08,
1.094,-0.09,-0.18,-1.64,0.22,0.34,-1.08,
1.095,-0.09,-0.18,-1.64,0.23,0.34,-1.08,
1.095,-0.09,-0.18,-1.64,0.23,0.33,-1.08,
1.095,-0.09,-0.18,-1.64,0.23,0.33,-1.08,
1.095,-0.24,-0.18,-1.91,0.23,0.33,-1.08,
1.096,-0.24,-0.18,-1.91,0.24,0.32,-1.09,
1.096,-0.24,-0.18,-1.91,0.24,0.32,-1.08,
1.103,-0.24,-0.18,-1.91,0.24,0.31,-1.09,
1.104,-0.24,-0.18,-1.91,0.25,0.30,-1.09,
1.104,-0.24,-0.18,-1.91,0.25,0.28,-1.09,
1.104,-0.33,-0.20,-2.19,0.25,0.28,-1.09,
1.104,-0.33,-0.20,-2.19,0.25,0.27,-1.09,
1.106,-0.33,-0.20,-2.19,0.25,0.26,-1.09,
1.107,-0.33,-0.20,-2.19,0.25,0.24,-1.09,
1.11,-0.33,-0.20,-2.19,0.25,0.23,-1.09,
1.111,-0.33,-0.20,-2.19,0.25,0.21,-1.09,
1.114,-0.43,-0.17,-2.41,0.25,0.21,-1.09,
1.114,-0.43,-0.17,-2.41,0.25,0.19,-1.09,
1.115,-0.43,-0.17,-2.41,0.25,0.18,-1.08,
1.117,-0.43,-0.17,-2.41,0.25,0.16,-1.08,
1.119,-0.43,-0.17,-2.41,0.24,0.14,-1.08,
1.121,-0.43,-0.17,-2.41,0.24,0.12,-1.08,
1.123,-0.42,-0.18,-2.54,0.24,0.12,-1.08,
1.123,-0.42,-0.18,-2.54,0.23,0.09,-1.08,
1.125,-0.42,-0.18,-2.54,0.23,0.07,-1.08,
1.127,-0.42,-0.18,-2.54,0.22,0.05,-1.08,
1.129,-0.42,-0.18,-2.54,0.22,0.03,-1.08,
1.131,-0.42,-0.18,-2.54,0.21,0.01,-1.08,
1.133,-0.28,-0.13,-2.53,0.21,0.01,-1.08,
1.133,-0.28,-0.13,-2.53,0.21,-0.01,-1.09,
1.134,-0.28,-0.13,-2.53,0.21,-0.02,-1.09,
1.137,-0.28,-0.13,-2.53,0.20,-0.04,-1.10,
1.138,-0.28,-0.13,-2.53,0.20,-0.06,-1.10,
1.141,-0.28,-0.13,-2.53,0.20,-0.07,-1.10,
1.145,-0.22,-0.05,-2.29,0.20,-0.07,-1.10,
1.145,-0.22,-0.05,-2.29,0.20,-0.09,-1.10,
1.146,-0.22,-0.05,-2.29,0.20,-0.10,-1.11,
1.147,-0.22,-0.05,-2.29,0.20,-0.11,-1.11,
1.148,-0.22,-0.05,-2.29,0.20,-0.12,-1.11,
1.15,-0.22,-0.05,-2.29,0.20,-0.13,-1.11,
1.153,-0.21,0.04,-2.10,0.20,-0.13,-1.11,
1.153,-0.21,0.04,-2.10,0.20,-0.15,-1.12,
1.155,-0.21,0.04,-2.10,0.20,-0.15,-1.12,
1.157,-0.21,0.04,-2.10,0.19,-0.16,-1.12,
1.167,-0.21,0.04,-2.10,0.19,-0.17,-1.12,
1.167,-0.21,0.04,-2.10,0.19,-0.18,-1.12,
1.167,-0.19,0.02,-1.97,0.19,-0.18,-1.12,
1.167,-0.19,0.02,-1.97,0.18,-0.19,-1.11,
1.167,-0.19,0.02,-1.97,0.17,-0.20,-1.11,
1.167,-0.19,0.02,-1.97,0.16,-0.20,-1.11,
1.169,-0.19,0.02,-1.97,0.15,-0.21,-1.11,
1.171,-0.19,0.02,-1.97,0.14,-0.21,-1.11,
1.174,-0.16,0.02,-1.83,0.14,-0.21,-1.11,
1.174,-0.16,0.02,-1.83,0.13,-0.21,-1.10,
1.19,-0.16,0.02,-1.83,0.12,-0.20,-1.09,
1.19,-0.16,0.02,-1.83,0.11,-0.19,-1.08,
1.19,-0.16,0.02,-1.83,0.10,-0.18,-1.08,
1.19,-0.16,0.02,-1.83,0.09,-0.18,-1.07,
1.191,-0.27,-0.06,-1.63,0.09,-0.18,-1.07,
1.191,-0.27,-0.06,-1.63,0.08,-0.17,-1.05,
1.191,-0.27,-0.06,-1.63,0.06,-0.16,-1.04,
1.191,-0.27,-0.06,-1.63,0.05,-0.15,-1.03,
1.191,-0.27,-0.06,-1.63,0.04,-0.14,-1.01,
1.191,-0.27,-0.06,-1.63,0.02,-0.14,-1.00,
1.199,-0.42,-0.21,-1.34,0.02,-0.14,-1.00,
1.199,-0.42,-0.21,-1.34,0.00,-0.13,-0.98,
1.199,-0.42,-0.21,-1.34,-0.01,-0.13,-0.97,
1.2,-0.42,-0.21,-1.34,-0.02,-0.13,-0.95,
1.2,-0.42,-0.21,-1.34,-0.04,-0.13,-0.93,
1.201,-0.42,-0.21,-1.34,-0.05,-0.12,-0.92,
1.204,-0.42,-0.15,-0.82,-0.05,-0.12,-0.92,
1.204,-0.42,-0.15,-0.82,-0.06,-0.12,-0.90,
1.205,-0.42,-0.15,-0.82,-0.07,-0.11,-0.89,
1.207,-0.42,-0.15,-0.82,-0.08,-0.11,-0.88,
1.209,-0.42,-0.15,-0.82,-0.08,-0.10,-0.86,
1.211,-0.42,-0.15,-0.82,-0.08,-0.09,-0.85,
1.235,-0.33,-0.06,-0.08,-0.08,-0.09,-0.85,
1.235,-0.33,-0.06,-0.08,-0.08,-0.07,-0.85,
1.236,-0.33,-0.06,-0.08,-0.08,-0.06,-0.84,
1.236,-0.33,-0.06,-0.08,-0.07,-0.05,-0.84,
1.236,-0.33,-0.06,-0.08,-0.06,-0.03,-0.83,
1.236,-0.33,-0.06,-0.08,-0.05,-0.01,-0.83,
1.237,-0.25,0.06,0.76,-0.05,-0.01,-0.83,
1.237,-0.25,0.06,0.76,-0.04,0.00,-0.83,
1.237,-0.25,0.06,0.76,-0.02,0.02,-0.82,
1.237,-0.25,0.06,0.76,-0.01,0.03,-0.83,
1.238,-0.25,0.06,0.76,0.01,0.04,-0.82,
1.238,-0.25,0.06,0.76,0.02,0.06,-0.82,
1.238,-0.24,0.14,1.34,0.02,0.06,-0.82,
1.238,-0.24,0.14,1.34,0.04,0.07,-0.82,
1.239,-0.24,0.14,1.34,0.05,0.09,-0.82,
1.239,-0.24,0.14,1.34,0.07,0.10,-0.82,
1.255,-0.24,0.14,1.34,0.08,0.11,-0.81,
1.255,-0.24,0.14,1.34,0.09,0.13,-0.80,
1.256,-0.34,0.24,1.59,0.09,0.13,-0.80,
1.256,-0.34,0.24,1.59,0.11,0.15,-0.80,
1.256,-0.34,0.24,1.59,0.12,0.16,-0.78,
1.256,-0.34,0.24,1.59,0.12,0.17,-0.77,
1.257,-0.34,0.24,1.59,0.13,0.19,-0.76,
1.257,-0.34,0.24,1.59,0.14,0.20,-0.74,
1.257,-0.56,0.29,1.66,0.14,0.20,-0.74,
1.257,-0.56,0.29,1.66,0.15,0.21,-0.72,
1.257,-0.56,0.29,1.66,0.15,0.22,-0.71,
1.258,-0.56,0.29,1.66,0.16,0.22,-0.69,
1.268,-0.56,0.29,1.66,0.16,0.22,-0.67,
1.268,-0.56,0.29,1.66,0.16,0.22,-0.65,
1.269,-0.63,0.43,1.76,0.16,0.22,-0.65,
1.269,-0.63,0.43,1.76,0.17,0.22,-0.63,
1.27,-0.63,0.43,1.76,0.17,0.22,-0.61,
1.27,-0.63,0.43,1.76,0.18,0.21,-0.60,
1.27,-0.63,0.43,1.76,0.18,0.21,-0.58,
1.272,-0.63,0.43,1.76,0.19,0.21,-0.57,
1.274,-0.64,0.60,1.95,0.19,0.21,-0.57,
1.275,-0.64,0.60,1.95,0.19,0.20,-0.55,
1.275,-0.64,0.60,1.95,0.20,0.19,-0.54,
1.277,-0.64,0.60,1.95,0.21,0.18,-0.52,
1.279,-0.64,0.60,1.95,0.22,0.17,-0.51,
1.281,-0.64,0.60,1.95,0.23,0.16,-0.50,
1.286,-0.64,0.77,2.30,0.23,0.16,-0.50,
1.286,-0.64,0.77,2.30,0.24,0.15,-0.49,
1.287,-0.64,0.77,2.30,0.26,0.14,-0.48,
1.287,-0.64,0.77,2.30,0.27,0.12,-0.47,
1.289,-0.64,0.77,2.30,0.29,0.11,-0.46,
1.293,-0.64,0.77,2.30,0.31,0.09,-0.44,
1.297,-0.76,0.77,2.70,0.31,0.09,-0.44,
1.297,-0.76,0.77,2.70,0.33,0.08,-0.43,
1.297,-0.76,0.77,2.70,0.35,0.06,-0.41,
1.298,-0.76,0.77,2.70,0.37,0.05,-0.40,
1.3,-0.76,0.77,2.70,0.40,0.04,-0.38,
1.301,-0.76,0.77,2.70,0.42,0.03,-0.36,
1.304,-0.89,0.63,2.95,0.42,0.03,-0.36,
1.304,-0.89,0.63,2.95,0.44,0.02,-0.34,
1.307,-0.89,0.63,2.95,0.47,0.02,-0.31,
1.312,-0.89,0.63,2.95,0.49,0.01,-0.29,
1.312,-0.89,0.63,2.95,0.51,-0.00,-0.26,
1.314,-0.89,0.63,2.95,0.53,-0.01,-0.23,
1.355,-1.28,0.51,2.92,0.53,-0.01,-0.23,
1.356,-1.28,0.51,2.92,0.54,-0.03,-0.20,
1.356,-1.28,0.51,2.92,0.56,-0.04,-0.17,
1.356,-1.28,0.51,2.92,0.58,-0.05,-0.13,
1.356,-1.28,0.51,2.92,0.59,-0.07,-0.10,
1.356,-1.28,0.51,2.92,0.60,-0.09,-0.07,
1.357,-1.51,0.53,2.63,0.60,-0.09,-0.07,
1.357,-1.51,0.53,2.63,0.61,-0.11,-0.03,
1.357,-1.51,0.53,2.63,0.62,-0.13,-0.00,
1.357,-1.51,0.53,2.63,0.63,-0.16,0.03,
1.357,-1.51,0.53,2.63,0.63,-0.19,0.06,
1.357,-1.51,0.53,2.63,0.64,-0.21,0.09,
1.357,-1.55,0.52,2.36,0.64,-0.21,0.09,
1.358,-1.55,0.52,2.36,0.65,-0.24,0.12,
1.358,-1.55,0.52,2.36,0.66,-0.27,0.15,
1.358,-1.55,0.52,2.36,0.67,-0.30,0.17,
1.358,-1.55,0.52,2.36,0.68,-0.33,0.20,
1.358,-1.55,0.52,2.36,0.69,-0.36,0.22,
1.358,-1.30,0.55,2.17,0.69,-0.36,0.22,
1.358,-1.30,0.55,2.17,0.69,-0.39,0.23,
1.359,-1.30,0.55,2.17,0.68,-0.42,0.25,
1.359,-1.30,0.55,2.17,0.69,-0.45,0.26,
1.359,-1.30,0.55,2.17,0.69,-0.48,0.27,
1.359,-1.30,0.55,2.17,0.69,-0.50,0.28,
1.359,-0.85,0.72,1.93,0.69,-0.50,0.28,
1.359,-0.85,0.72,1.93,0.69,-0.52,0.28,
1.359,-0.85,0.72,1.93,0.68,-0.55,0.27,
1.36,-0.85,0.72,1.93,0.68,-0.57,0.27,
1.36,-0.85,0.72,1.93,0.67,-0.60,0.26,
1.364,-0.85,0.72,1.93,0.66,-0.62,0.25,
1.365,-0.32,0.95,1.73,0.66,-0.62,0.25,
1.365,-0.32,0.95,1.73,0.65,-0.65,0.24,
1.365,-0.32,0.95,1.73,0.64,-0.67,0.22,
1.367,-0.32,0.95,1.73,0.63,-0.69,0.20,
1.369,-0.32,0.95,1.73,0.62,-0.71,0.17,
1.371,-0.32,0.95,1.73,0.61,-0.73,0.15,
1.373,0.18,1.11,1.67,0.61,-0.73,0.15,
1.374,0.18,1.11,1.67,0.59,-0.75,0.12,
1.378,0.18,1.11,1.67,0.57,-0.76,0.09,
1.378,0.18,1.11,1.67,0.55,-0.77,0.06,
1.379,0.18,1.11,1.67,0.53,-0.77,0.04,
1.4,0.18,1.11,1.67,0.52,-0.77,0.01,
1.4,0.49,1.13,1.70,0.52,-0.77,0.01,
1.4,0.49,1.13,1.70,0.49,-0.77,-0.03,
1.4,0.49,1.13,1.70,0.47,-0.76,-0.05,
1.401,0.49,1.13,1.70,0.45,-0.75,-0.08,
1.401,0.49,1.13,1.70,0.43,-0.73,-0.11,
1.401,0.49,1.13,1.70,0.41,-0.70,-0.13,
1.401,0.48,1.07,1.77,0.41,-0.70,-0.13,
1.401,0.48,1.07,1.77,0.38,-0.67,-0.16,
1.401,0.48,1.07,1.77,0.36,-0.64,-0.18,
1.401,0.48,1.07,1.77,0.34,-0.61,-0.20,
1.402,0.48,1.07,1.77,0.32,-0.56,-0.22,
1.402,0.48,1.07,1.77,0.30,-0.52,-0.24,
1.405,0.20,0.88,1.86,0.30,-0.52,-0.24,
1.406,0.20,0.88,1.86,0.27,-0.47,-0.25,
1.422,0.20,0.88,1.86,0.25,-0.42,-0.27,
1.422,0.20,0.88,1.86,0.23,-0.36,-0.28,
1.423,0.20,0.88,1.86,0.21,-0.31,-0.29,
1.423,0.20,0.88,1.86,0.18,-0.25,-0.30,
1.423,-0.14,0.51,1.88,0.18,-0.25,-0.30,
1.423,-0.14,0.51,1.88,0.16,-0.18,-0.30,
1.424,-0.14,0.51,1.88,0.14,-0.11,-0.31,
1.424,-0.14,0.51,1.88,0.12,-0.04,-0.31,
1.424,-0.14,0.51,1.88,0.10,0.03,-0.31,
1.424,-0.14,0.51,1.88,0.09,0.11,-0.31,
1.424,-0.61,0.17,1.80,0.09,0.11,-0.31,
1.425,-0.61,0.17,1.80,0.07,0.19,-0.31,
1.425,-0.61,0.17,1.80,0.06,0.27,-0.31,
1.432,-0.61,0.17,1.80,0.04,0.35,-0.30,
1.433,-0.61,0.17,1.80,0.03,0.42,-0.29,
1.433,-0.61,0.17,1.80,0.03,0.50,-0.28,
1.438,-1.16,-0.11,1.75,0.03,0.50,-0.28,
1.438,-1.16,-0.11,1.75,0.02,0.60,-0.26,
1.438,-1.16,-0.11,1.75,0.01,0.63,-0.26,
1.439,-1.16,-0.11,1.75,0.01,0.69,-0.25,
1.439,-1.16,-0.11,1.75,0.01,0.74,-0.23,
1.442,-1.16,-0.11,1.75,0.01,0.79,-0.22,
1.447,-1.68,-0.30,1.66,0.01,0.79,-0.22,
1.448,-1.68,-0.30,1.66,0.01,0.83,-0.20,
1.448,-1.68,-0.30,1.66,0.01,0.86,-0.19,
1.451,-1.68,-0.30,1.66,0.01,0.88,-0.17,
1.451,-1.68,-0.30,1.66,0.02,0.90,-0.15,
1.452,-1.68,-0.30,1.66,0.02,0.91,-0.13,
1.454,-2.16,-0.43,1.64,0.02,0.91,-0.13,
1.454,-2.16,-0.43,1.64,0.03,0.92,-0.11,
1.455,-2.16,-0.43,1.64,0.04,0.93,-0.10,
1.463,-2.16,-0.43,1.64,0.05,0.93,-0.08,
1.463,-2.16,-0.43,1.64,0.07,0.92,-0.06,
1.463,-2.16,-0.43,1.64,0.08,0.91,-0.04,
1.467,-2.44,-0.37,1.60,0.08,0.91,-0.04,
1.468,-2.44,-0.37,1.60,0.09,0.90,-0.03,
1.468,-2.44,-0.37,1.60,0.10,0.88,-0.01,
1.469,-2.44,-0.37,1.60,0.12,0.86,0.00,
1.47,-2.44,-0.37,1.60,0.13,0.83,0.02,
1.472,-2.44,-0.37,1.60,0.15,0.80,0.03,
1.492,-2.50,-0.39,1.59,0.15,0.80,0.03,
1.493,-2.50,-0.39,1.59,0.16,0.78,0.04,
1.493,-2.50,-0.39,1.59,0.18,0.75,0.05,
1.493,-2.50,-0.39,1.59,0.20,0.72,0.06,
1.493,-2.50,-0.39,1.59,0.21,0.68,0.08,
1.493,-2.50,-0.39,1.59,0.23,0.65,0.09,
1.494,-2.42,-0.38,1.47,0.23,0.65,0.09,
1.494,-2.42,-0.38,1.47,0.25,0.61,0.10,
1.494,-2.42,-0.38,1.47,0.26,0.57,0.11,
1.494,-2.42,-0.38,1.47,0.27,0.52,0.12,
1.494,-2.42,-0.38,1.47,0.29,0.48,0.13,
1.495,-2.42,-0.38,1.47,0.30,0.43,0.15,
1.495,-2.43,-0.43,1.23,0.30,0.43,0.15,
1.495,-2.43,-0.43,1.23,0.30,0.38,0.16,
1.495,-2.43,-0.43,1.23,0.31,0.32,0.17,
1.497,-2.43,-0.43,1.23,0.31,0.27,0.19,
1.5,-2.43,-0.43,1.23,0.31,0.23,0.20,
1.501,-2.43,-0.43,1.23,0.31,0.18,0.21,
1.504,-2.30,-0.50,0.93,0.31,0.18,0.21,
1.504,-2.30,-0.50,0.93,0.31,0.13,0.22,
1.505,-2.30,-0.50,0.93,0.30,0.09,0.24,
1.508,-2.30,-0.50,0.93,0.30,0.05,0.25,
1.511,-2.30,-0.50,0.93,0.29,0.01,0.26,
1.511,-2.30,-0.50,0.93,0.28,-0.03,0.27,
1.514,-2.15,-0.71,0.72,0.28,-0.03,0.27,
1.514,-2.15,-0.71,0.72,0.28,-0.06,0.29,
1.516,-2.15,-0.71,0.72,0.27,-0.10,0.30,
1.517,-2.15,-0.71,0.72,0.26,-0.12,0.32,
1.519,-2.15,-0.71,0.72,0.25,-0.15,0.33,
1.521,-2.15,-0.71,0.72,0.24,-0.17,0.35,
1.525,-1.88,-0.83,0.65,0.24,-0.17,0.35,
1.525,-1.88,-0.83,0.65,0.23,-0.18,0.36,
1.526,-1.88,-0.83,0.65,0.22,-0.20,0.37,
1.528,-1.88,-0.83,0.65,0.20,-0.21,0.39,
1.53,-1.88,-0.83,0.65,0.19,-0.22,0.40,
1.531,-1.88,-0.83,0.65,0.18,-0.22,0.41,
1.533,-1.54,-0.90,0.69,0.18,-0.22,0.41,
1.534,-1.54,-0.90,0.69,0.17,-0.22,0.42,
1.536,-1.54,-0.90,0.69,0.16,-0.22,0.43,
1.537,-1.54,-0.90,0.69,0.15,-0.21,0.44,
1.539,-1.54,-0.90,0.69,0.14,-0.20,0.45,
1.541,-1.54,-0.90,0.69,0.12,-0.18,0.46,
1.544,-1.07,-0.86,0.70,0.12,-0.18,0.46,
1.545,-1.07,-0.86,0.70,0.11,-0.17,0.46,
1.545,-1.07,-0.86,0.70,0.10,-0.15,0.47,
1.565,-1.07,-0.86,0.70,0.09,-0.13,0.47,
1.565,-1.07,-0.86,0.70,0.08,-0.11,0.47,
1.566,-1.07,-0.86,0.70,0.07,-0.08,0.47,
1.566,-0.69,-0.83,0.64,0.07,-0.08,0.47,
1.566,-0.69,-0.83,0.64,0.05,-0.05,0.47,
1.566,-0.69,-0.83,0.64,0.04,-0.03,0.47,
1.566,-0.69,-0.83,0.64,0.03,0.00,0.47,
1.567,-0.69,-0.83,0.64,0.01,0.04,0.47,
1.567,-0.69,-0.83,0.64,-0.00,0.07,0.47,
1.567,-0.39,-0.83,0.40,-0.00,0.07,0.47,
1.567,-0.39,-0.83,0.40,-0.02,0.10,0.47,
1.568,-0.39,-0.83,0.40,-0.03,0.13,0.47,
1.568,-0.39,-0.83,0.40,-0.04,0.17,0.47,
1.576,-0.39,-0.83,0.40,-0.05,0.20,0.46,
1.576,-0.39,-0.83,0.40,-0.07,0.23,0.46,
1.588,-0.24,-0.90,0.16,-0.07,0.23,0.46,
1.588,-0.24,-0.90,0.16,-0.08,0.27,0.46,
1.589,-0.24,-0.90,0.16,-0.09,0.30,0.46,
1.589,-0.24,-0.90,0.16,-0.10,0.33,0.46,
1.589,-0.24,-0.90,0.16,-0.11,0.36,0.46,
1.589,-0.24,-0.90,0.16,-0.12,0.38,0.46,
1.589,-0.21,-0.93,-0.09,-0.12,0.38,0.46,
1.589,-0.21,-0.93,-0.09,-0.13,0.41,0.46,
1.589,-0.21,-0.93,-0.09,-0.14,0.43,0.46,
1.59,-0.21,-0.93,-0.09,-0.15,0.45,0.46,
1.59,-0.21,-0.93,-0.09,-0.15,0.47,0.46,
1.596,-0.21,-0.93,-0.09,-0.16,0.50,0.45,
1.596,-0.22,-1.02,-0.21,-0.16,0.50,0.45,
1.596,-0.22,-1.02,-0.21,-0.16,0.52,0.45,
1.596,-0.22,-1.02,-0.21,-0.15,0.54,0.45,
1.6,-0.22,-1.02,-0.21,-0.15,0.56,0.45,
1.601,-0.22,-1.02,-0.21,-0.15,0.59,0.45,
1.601,-0.22,-1.02,-0.21,-0.14,0.61,0.45,
1.603,-0.28,-1.11,-0.36,-0.14,0.61,0.45,
1.603,-0.28,-1.11,-0.36,-0.14,0.63,0.45,
1.604,-0.28,-1.11,-0.36,-0.13,0.66,0.46,
1.607,-0.28,-1.11,-0.36,-0.13,0.68,0.46,
1.609,-0.28,-1.11,-0.36,-0.12,0.70,0.47,
1.611,-0.28,-1.11,-0.36,-0.11,0.71,0.47,
1.616,-0.41,-1.22,-0.54,-0.11,0.71,0.47,
1.616,-0.41,-1.22,-0.54,-0.10,0.73,0.48,
1.616,-0.41,-1.22,-0.54,-0.08,0.74,0.49,
1.616,-0.41,-1.22,-0.54,-0.07,0.75,0.50,
1.619,-0.41,-1.22,-0.54,-0.06,0.76,0.51,
1.621,-0.41,-1.22,-0.54,-0.04,0.77,0.52,
1.623,-0.51,-1.22,-0.75,-0.04,0.77,0.52,
1.624,-0.51,-1.22,-0.75,-0.03,0.78,0.53,
1.625,-0.51,-1.22,-0.75,-0.01,0.79,0.54,
1.627,-0.51,-1.22,-0.75,0.00,0.80,0.55,
1.629,-0.51,-1.22,-0.75,0.02,0.80,0.56,
1.631,-0.51,-1.22,-0.75,0.04,0.80,0.57,
1.633,-0.64,-1.24,-1.00,0.04,0.80,0.57,
1.633,-0.64,-1.24,-1.00,0.05,0.80,0.58,
1.634,-0.64,-1.24,-1.00,0.07,0.80,0.59,
1.636,-0.64,-1.24,-1.00,0.08,0.79,0.60,
1.639,-0.64,-1.24,-1.00,0.10,0.79,0.62,
1.641,-0.64,-1.24,-1.00,0.12,0.78,0.63,
1.643,-0.69,-1.20,-1.31,0.12,0.78,0.63,
1.643,-0.69,-1.20,-1.31,0.13,0.77,0.64,
1.645,-0.69,-1.20,-1.31,0.14,0.76,0.66,
1.647,-0.69,-1.20,-1.31,0.16,0.75,0.67,
1.648,-0.69,-1.20,-1.31,0.17,0.74,0.68,
1.65,-0.69,-1.20,-1.31,0.19,0.73,0.70,
1.653,-0.72,-1.23,-1.60,0.19,0.73,0.70,
1.653,-0.72,-1.23,-1.60,0.20,0.71,0.71,
1.654,-0.72,-1.23,-1.60,0.22,0.70,0.72,
1.657,-0.72,-1.23,-1.60,0.23,0.68,0.73,
1.659,-0.72,-1.23,-1.60,0.25,0.66,0.75,
1.66,-0.72,-1.23,-1.60,0.27,0.65,0.76,
1.663,-0.73,-1.22,-1.89,0.27,0.65,0.76,
1.663,-0.73,-1.22,-1.89,0.28,0.63,0.77,
1.664,-0.73,-1.22,-1.89,0.30,0.60,0.79,
1.666,-0.73,-1.22,-1.89,0.31,0.58,0.80,
1.668,-0.73,-1.22,-1.89,0.33,0.56,0.81,
1.67,-0.73,-1.22,-1.89,0.34,0.54,0.83,
1.675,-0.73,-1.20,-2.15,0.34,0.54,0.83,
1.675,-0.73,-1.20,-2.15,0.35,0.51,0.84,
1.675,-0.73,-1.20,-2.15,0.37,0.49,0.85,
1.677,-0.73,-1.20,-2.15,0.38,0.47,0.86,
1.683,-0.73,-1.20,-2.15,0.39,0.45,0.87,
1.684,-0.73,-1.20,-2.15,0.39,0.43,0.88,
1.684,-0.61,-1.15,-2.50,0.39,0.43,0.88,
1.684,-0.61,-1.15,-2.50,0.40,0.41,0.89,
1.684,-0.61,-1.15,-2.50,0.41,0.39,0.90,
1.688,-0.61,-1.15,-2.50,0.41,0.37,0.90,
1.707,-0.61,-1.15,-2.50,0.41,0.34,0.91,
1.708,-0.61,-1.15,-2.50,0.42,0.32,0.91,
1.708,-0.45,-1.16,-2.78,0.42,0.32,0.91,
1.708,-0.45,-1.16,-2.78,0.42,0.30,0.91,
1.708,-0.45,-1.16,-2.78,0.42,0.28,0.92,
1.709,-0.45,-1.16,-2.78,0.42,0.26,0.92,
1.709,-0.45,-1.16,-2.78,0.42,0.24,0.92,
1.709,-0.45,-1.16,-2.78,0.42,0.22,0.93,
1.709,-0.28,-1.09,-2.94,0.42,0.22,0.93,
1.71,-0.28,-1.09,-2.94,0.43,0.20,0.93,
1.71,-0.28,-1.09,-2.94,0.43,0.18,0.93,
1.71,-0.28,-1.09,-2.94,0.43,0.17,0.93,
1.711,-0.28,-1.09,-2.94,0.43,0.16,0.93,
1.711,-0.28,-1.09,-2.94,0.42,0.15,0.93,
1.737,-0.11,-0.96,-3.01,0.42,0.15,0.93,
1.737,-0.11,-0.96,-3.01,0.42,0.14,0.93,
1.737,-0.11,-0.96,-3.01,0.42,0.12,0.92,
1.737,-0.11,-0.96,-3.01,0.42,0.12,0.92,
1.738,-0.11,-0.96,-3.01,0.41,0.10,0.91,
1.738,-0.11,-0.96,-3.01,0.41,0.09,0.89,
1.738,0.34,-0.77,-3.03,0.41,0.09,0.89,
1.738,0.34,-0.77,-3.03,0.41,0.09,0.88,
1.738,0.34,-0.77,-3.03,0.40,0.09,0.87,
1.738,0.34,-0.77,-3.03,0.40,0.08,0.87,
1.739,0.34,-0.77,-3.03,0.40,0.07,0.86,
1.739,0.34,-0.77,-3.03,0.39,0.06,0.85,
1.739,0.17,-0.77,-2.96,0.39,0.06,0.85,
1.739,0.17,-0.77,-2.96,0.39,0.05,0.84,
1.739,0.17,-0.77,-2.96,0.38,0.04,0.84,
1.739,0.17,-0.77,-2.96,0.37,0.03,0.83,
1.756,0.17,-0.77,-2.96,0.36,0.02,0.82,
1.756,0.17,-0.77,-2.96,0.35,0.00,0.81,
1.756,0.16,-0.79,-2.87,0.35,0.00,0.81,
1.757,0.16,-0.79,-2.87,0.34,-0.01,0.80,
1.757,0.16,-0.79,-2.87,0.33,-0.02,0.80,
1.757,0.16,-0.79,-2.87,0.32,-0.03,0.79,
1.757,0.16,-0.79,-2.87,0.31,-0.03,0.78,
1.758,0.16,-0.79,-2.87,0.29,-0.04,0.77,
1.758,0.29,-0.70,-2.71,0.29,-0.04,0.77,
1.758,0.29,-0.70,-2.71,0.28,-0.05,0.76,
1.758,0.29,-0.70,-2.71,0.27,-0.05,0.75,
1.759,0.29,-0.70,-2.71,0.26,-0.06,0.74,
1.759,0.29,-0.70,-2.71,0.25,-0.06,0.74,
1.769,0.29,-0.70,-2.71,0.24,-0.07,0.73,
1.769,0.32,-0.66,-2.34,0.24,-0.07,0.73,
1.769,0.32,-0.66,-2.34,0.23,-0.07,0.72,
1.77,0.32,-0.66,-2.34,0.23,-0.08,0.71,
1.77,0.32,-0.66,-2.34,0.22,-0.08,0.70,
1.77,0.32,-0.66,-2.34,0.22,-0.08,0.70,
1.776,0.32,-0.66,-2.34,0.22,-0.08,0.69,
1.776,0.33,-0.59,-1.92,0.22,-0.08,0.69,
1.777,0.33,-0.59,-1.92,0.21,-0.08,0.68,
1.777,0.33,-0.59,-1.92,0.21,-0.08,0.67,
1.785,0.33,-0.59,-1.92,0.21,-0.08,0.66,
1.785,0.33,-0.59,-1.92,0.21,-0.08,0.65,
1.785,0.33,-0.59,-1.92,0.21,-0.08,0.64,
1.786,0.43,-0.52,-1.52,0.21,-0.08,0.64,
1.786,0.43,-0.52,-1.52,0.20,-0.07,0.63,
1.791,0.43,-0.52,-1.52,0.20,-0.07,0.60,
1.792,0.43,-0.52,-1.52,0.20,-0.07,0.60,
1.793,0.43,-0.52,-1.52,0.20,-0.07,0.60,
1.793,0.43,-0.52,-1.52,0.20,-0.07,0.59,
1.795,0.48,-0.46,-1.18,0.20,-0.07,0.59,
1.795,0.48,-0.46,-1.18,0.20,-0.07,0.58,
1.796,0.48,-0.46,-1.18,0.20,-0.07,0.57,
1.797,0.48,-0.46,-1.18,0.21,-0.07,0.56,
1.8,0.48,-0.46,-1.18,0.21,-0.08,0.55,
1.801,0.48,-0.46,-1.18,0.21,-0.08,0.54,
1.806,0.40,-0.38,-0.87,0.21,-0.08,0.54,
1.806,0.40,-0.38,-0.87,0.21,-0.08,0.53,
1.807,0.40,-0.38,-0.87,0.21,-0.09,0.52,
1.808,0.40,-0.38,-0.87,0.21,-0.10,0.51,
1.811,0.40,-0.38,-0.87,0.21,-0.11,0.50,
1.811,0.40,-0.38,-0.87,0.22,-0.12,0.49,
1.814,0.38,-0.36,-0.52,0.22,-0.12,0.49,
1.815,0.38,-0.36,-0.52,0.22,-0.13,0.47,
1.815,0.38,-0.36,-0.52,0.22,-0.14,0.46,
1.817,0.38,-0.36,-0.52,0.22,-0.15,0.45,
1.819,0.38,-0.36,-0.52,0.22,-0.16,0.44,
1.821,0.38,-0.36,-0.52,0.22,-0.17,0.43,
1.828,0.38,-0.35,-0.07,0.22,-0.17,0.43,
1.829,0.38,-0.35,-0.07,0.22,-0.18,0.42,
1.83,0.38,-0.35,-0.07,0.22,-0.18,0.41,
1.832,0.38,-0.35,-0.07,0.22,-0.19,0.40,
1.832,0.38,-0.35,-0.07,0.22,-0.19,0.39,
1.832,0.38,-0.35,-0.07,0.22,-0.19,0.38,
1.834,0.38,-0.38,0.31,0.22,-0.19,0.38,
1.834,0.38,-0.38,0.31,0.22,-0.19,0.37,
1.835,0.38,-0.38,0.31,0.22,-0.19,0.36,
1.837,0.38,-0.38,0.31,0.22,-0.19,0.35,
1.849,0.38,-0.38,0.31,0.22,-0.20,0.34,
1.849,0.38,-0.38,0.31,0.22,-0.19,0.33,
1.85,0.43,-0.38,0.74,0.22,-0.19,0.33,
1.85,0.43,-0.38,0.74,0.22,-0.19,0.32,
1.85,0.43,-0.38,0.74,0.22,-0.18,0.32,
1.85,0.43,-0.38,0.74,0.21,-0.17,0.31,
1.853,0.43,-0.38,0.74,0.20,-0.16,0.30,
1.854,0.43,-0.38,0.74,0.20,-0.16,0.29,
1.855,0.50,-0.47,1.02,0.20,-0.16,0.29,
1.855,0.50,-0.47,1.02,0.19,-0.14,0.28,
1.908,0.50,-0.47,1.02,0.18,-0.13,0.28,
1.909,0.50,-0.47,1.02,0.17,-0.12,0.27,
1.909,0.50,-0.47,1.02,0.16,-0.11,0.27,
1.909,0.50,-0.47,1.02,0.15,-0.10,0.27,
1.91,0.48,-0.52,1.22,0.15,-0.10,0.27,
1.91,0.48,-0.52,1.22,0.14,-0.09,0.26,
1.91,0.48,-0.52,1.22,0.12,-0.07,0.26,
1.91,0.48,-0.52,1.22,0.11,-0.06,0.26,
1.91,0.48,-0.52,1.22,0.10,-0.05,0.26,
1.911,0.48,-0.52,1.22,0.09,-0.03,0.26,
1.911,0.54,-0.60,1.50,0.09,-0.03,0.26,
1.911,0.54,-0.60,1.50,0.08,-0.02,0.26,
1.911,0.54,-0.60,1.50,0.07,-0.01,0.25,
1.912,0.54,-0.60,1.50,0.05,0.01,0.25,
1.912,0.54,-0.60,1.50,0.05,0.03,0.25,
1.912,0.54,-0.60,1.50,0.04,0.06,0.24,
1.912,0.75,-0.61,1.77,0.04,0.06,0.24,
1.912,0.75,-0.61,1.77,0.03,0.08,0.24,
1.913,0.75,-0.61,1.77,0.02,0.11,0.24,
1.913,0.75,-0.61,1.77,0.01,0.14,0.23,
1.913,0.75,-0.61,1.77,0.00,0.17,0.23,
1.913,0.75,-0.61,1.77,-0.01,0.21,0.23,
1.913,0.90,-0.61,1.85,-0.01,0.21,0.23,
1.914,0.90,-0.61,1.85,-0.02,0.24,0.22,
1.914,0.90,-0.61,1.85,-0.03,0.27,0.22,
1.914,0.90,-0.61,1.85,-0.04,0.31,0.21,
1.914,0.90,-0.61,1.85,-0.06,0.34,0.21,
1.914,0.90,-0.61,1.85,-0.08,0.38,0.21,
1.915,0.92,-0.55,1.68,-0.08,0.38,0.21,
1.915,0.92,-0.55,1.68,-0.09,0.41,0.21,
1.93,0.92,-0.55,1.68,-0.12,0.44,0.21,
1.93,0.92,-0.55,1.68,-0.14,0.47,0.21,
1.931,0.92,-0.55,1.68,-0.16,0.50,0.21,
1.931,0.92,-0.55,1.68,-0.18,0.52,0.21,
1.931,0.78,-0.41,1.50,-0.18,0.52,0.21,
1.931,0.78,-0.41,1.50,-0.21,0.55,0.22,
1.931,0.78,-0.41,1.50,-0.23,0.57,0.22,
1.932,0.78,-0.41,1.50,-0.25,0.59,0.23,
1.932,0.78,-0.41,1.50,-0.27,0.61,0.24,
1.932,0.78,-0.41,1.50,-0.29,0.63,0.25,
1.932,0.62,-0.20,1.45,-0.29,0.63,0.25,
1.933,0.62,-0.20,1.45,-0.32,0.65,0.26,
1.933,0.62,-0.20,1.45,-0.33,0.66,0.27,
1.933,0.62,-0.20,1.45,-0.36,0.68,0.27,
1.933,0.62,-0.20,1.45,-0.37,0.69,0.28,
1.933,0.62,-0.20,1.45,-0.39,0.70,0.29,
1.934,0.67,-0.10,1.46,-0.39,0.70,0.29,
1.934,0.67,-0.10,1.46,-0.41,0.71,0.30,
1.944,0.67,-0.10,1.46,-0.43,0.72,0.30,
1.944,0.67,-0.10,1.46,-0.46,0.73,0.31,
1.944,0.67,-0.10,1.46,-0.48,0.73,0.32,
1.944,0.67,-0.10,1.46,-0.50,0.73,0.32,
1.948,0.81,-0.00,1.34,-0.50,0.73,0.32,
1.948,0.81,-0.00,1.34,-0.53,0.73,0.32,
1.949,0.81,-0.00,1.34,-0.55,0.72,0.33,
1.949,0.81,-0.00,1.34,-0.58,0.70,0.33,
1.949,0.81,-0.00,1.34,-0.61,0.68,0.32,
1.951,0.81,-0.00,1.34,-0.64,0.66,0.32,
1.954,1.19,0.13,1.25,-0.64,0.66,0.32,
1.954,1.19,0.13,1.25,-0.67,0.63,0.31,
1.958,1.19,0.13,1.25,-0.70,0.59,0.30,
1.959,1.19,0.13,1.25,-0.73,0.56,0.29,
1.959,1.19,0.13,1.25,-0.76,0.52,0.27,
1.965,1.19,0.13,1.25,-0.78,0.48,0.26,
1.965,1.67,0.21,1.45,-0.78,0.48,0.26,
1.965,1.67,0.21,1.45,-0.81,0.43,0.24,
1.965,1.67,0.21,1.45,-0.83,0.39,0.22,
1.967,1.67,0.21,1.45,-0.85,0.35,0.19,
1.971,1.67,0.21,1.45,-0.87,0.30,0.17,
1.985,1.67,0.21,1.45,-0.89,0.26,0.14,
1.985,2.22,0.19,2.04,-0.89,0.26,0.14,
1.985,2.22,0.19,2.04,-0.90,0.22,0.11,
1.985,2.22,0.19,2.04,-0.91,0.19,0.08,
1.985,2.22,0.19,2.04,-0.92,0.16,0.05,
1.985,2.22,0.19,2.04,-0.92,0.14,0.02,
1.986,2.22,0.19,2.04,-0.92,0.12,-0.01,
1.986,2.55,-0.02,2.75,-0.92,0.12,-0.01,
1.986,2.55,-0.02,2.75,-0.92,0.11,-0.04,
1.986,2.55,-0.02,2.75,-0.92,0.09,-0.06,
1.987,2.55,-0.02,2.75,-0.91,0.09,-0.09,
1.991,2.55,-0.02,2.75,-0.90,0.08,-0.11,
1.991,2.55,-0.02,2.75,-0.90,0.08,-0.13,
1.993,2.50,-0.50,3.44,-0.90,0.08,-0.13,
1.993,2.50,-0.50,3.44,-0.88,0.07,-0.15,
1.995,2.50,-0.50,3.44,-0.86,0.08,-0.16,
1.997,2.50,-0.50,3.44,-0.84,0.08,-0.17,
1.999,2.50,-0.50,3.44,-0.81,0.08,-0.17,
2.001,2.50,-0.50,3.44,-0.78,0.09,-0.18,
2.003,2.06,-0.86,4.14,-0.78,0.09,-0.18,
2.003,2.06,-0.86,4.14,-0.75,0.10,-0.18,
2.006,2.06,-0.86,4.14,-0.71,0.11,-0.17,
2.006,2.06,-0.86,4.14,-0.67,0.13,-0.17,
2.011,2.06,-0.86,4.14,-0.62,0.15,-0.16,
2.011,2.06,-0.86,4.14,-0.57,0.17,-0.15,
2.015,1.66,-1.30,4.65,-0.57,0.17,-0.15,
2.015,1.66,-1.30,4.65,-0.52,0.19,-0.14,
2.015,1.66,-1.30,4.65,-0.47,0.21,-0.12,
2.019,1.66,-1.30,4.65,-0.41,0.23,-0.11,
2.019,1.66,-1.30,4.65,-0.35,0.25,-0.09,
2.022,1.66,-1.30,4.65,-0.29,0.27,-0.07,
2.025,1.23,-1.61,4.75,-0.29,0.27,-0.07,
2.025,1.23,-1.61,4.75,-0.23,0.29,-0.04,
2.026,1.23,-1.61,4.75,-0.16,0.30,-0.02,
2.029,1.23,-1.61,4.75,-0.10,0.32,0.01,
2.029,1.23,-1.61,4.75,-0.03,0.33,0.04,
2.032,1.23,-1.61,4.75,0.03,0.33,0.08,
2.033,0.89,-1.78,4.40,0.03,0.33,0.08,
2.033,0.89,-1.78,4.40,0.09,0.34,0.11,
2.035,0.89,-1.78,4.40,0.15,0.33,0.14,
2.037,0.89,-1.78,4.40,0.20,0.33,0.17,
2.039,0.89,-1.78,4.40,0.26,0.32,0.20,
2.041,0.89,-1.78,4.40,0.31,0.31,0.23,
2.043,0.87,-1.73,3.38,0.31,0.31,0.23,
2.043,0.87,-1.73,3.38,0.35,0.29,0.26,
2.045,0.87,-1.73,3.38,0.40,0.26,0.28,
2.057,0.87,-1.73,3.38,0.44,0.22,0.31,
2.057,0.87,-1.73,3.38,0.48,0.19,0.33,
2.057,0.87,-1.73,3.38,0.51,0.14,0.35,
2.058,1.09,-1.57,2.25,0.51,0.14,0.35,
2.058,1.09,-1.57,2.25,0.55,0.10,0.38,
2.058,1.09,-1.57,2.25,0.58,0.05,0.40,
2.058,1.09,-1.57,2.25,0.60,-0.00,0.41,
2.059,1.09,-1.57,2.25,0.63,-0.06,0.42,
2.06,1.09,-1.57,2.25,0.65,-0.11,0.44,
2.063,1.49,-1.27,1.11,0.65,-0.11,0.44,
2.063,1.49,-1.27,1.11,0.66,-0.16,0.44,
2.066,1.49,-1.27,1.11,0.67,-0.22,0.45,
2.067,1.49,-1.27,1.11,0.68,-0.27,0.45,
2.07,1.49,-1.27,1.11,0.68,-0.32,0.44,
2.074,1.49,-1.27,1.11,0.68,-0.37,0.44,
2.088,2.06,-0.92,0.03,0.68,-0.37,0.44,
2.088,2.06,-0.92,0.03,0.67,-0.41,0.43,
2.089,2.06,-0.92,0.03,0.66,-0.46,0.42,
2.089,2.06,-0.92,0.03,0.64,-0.50,0.40,
2.089,2.06,-0.92,0.03,0.62,-0.54,0.38,
2.089,2.06,-0.92,0.03,0.60,-0.58,0.35,
2.089,2.82,-0.69,-0.89,0.60,-0.58,0.35,
2.09,2.82,-0.69,-0.89,0.57,-0.62,0.32,
2.09,2.82,-0.69,-0.89,0.53,-0.65,0.29,
2.09,2.82,-0.69,-0.89,0.50,-0.68,0.25,
2.09,2.82,-0.69,-0.89,0.46,-0.71,0.21,
2.095,2.82,-0.69,-0.89,0.42,-0.73,0.16,
2.095,3.62,-0.54,-1.53,0.42,-0.73,0.16,
2.096,3.62,-0.54,-1.53,0.38,-0.75,0.12,
2.096,3.62,-0.54,-1.53,0.34,-0.76,0.07,
2.097,3.62,-0.54,-1.53,0.30,-0.77,0.02,
2.101,3.62,-0.54,-1.53,0.25,-0.77,-0.02,
2.101,3.62,-0.54,-1.53,0.20,-0.76,-0.07,
2.105,3.78,-0.37,-1.84,0.20,-0.76,-0.07,
2.105,3.78,-0.37,-1.84,0.16,-0.75,-0.12,
2.106,3.78,-0.37,-1.84,0.11,-0.74,-0.17,
2.117,3.78,-0.37,-1.84,0.06,-0.72,-0.22,
2.117,3.78,-0.37,-1.84,0.02,-0.69,-0.26,
2.118,3.78,-0.37,-1.84,-0.03,-0.67,-0.31,
2.118,3.74,-0.31,-1.97,-0.03,-0.67,-0.31,
2.118,3.74,-0.31,-1.97,-0.08,-0.63,-0.35,
2.118,3.74,-0.31,-1.97,-0.12,-0.60,-0.39,
2.118,3.74,-0.31,-1.97,-0.17,-0.56,-0.43,
2.119,3.74,-0.31,-1.97,-0.22,-0.52,-0.47,
2.122,3.74,-0.31,-1.97,-0.26,-0.47,-0.51,
2.131,3.21,-0.39,-1.97,-0.26,-0.47,-0.51,
2.131,3.21,-0.39,-1.97,-0.31,-0.42,-0.55,
2.131,3.21,-0.39,-1.97,-0.35,-0.37,-0.58,
2.131,3.21,-0.39,-1.97,-0.39,-0.31,-0.61,
2.132,3.21,-0.39,-1.97,-0.43,-0.26,-0.64,
2.138,3.21,-0.39,-1.97,-0.47,-0.20,-0.67,
2.158,2.58,-0.50,-1.83,-0.47,-0.20,-0.67,
2.158,2.58,-0.50,-1.83,-0.52,-0.10,-0.70,
2.158,2.58,-0.50,-1.83,-0.55,-0.04,-0.72,
2.159,2.58,-0.50,-1.83,-0.56,-0.01,-0.73,
2.159,2.58,-0.50,-1.83,-0.59,0.05,-0.75,
2.159,2.58,-0.50,-1.83,-0.61,0.10,-0.76,
2.159,1.76,-0.64,-1.65,-0.61,0.10,-0.76,
2.159,1.76,-0.64,-1.65,-0.63,0.15,-0.77,
2.159,1.76,-0.64,-1.65,-0.65,0.20,-0.78,
2.16,1.76,-0.64,-1.65,-0.66,0.25,-0.79,
2.16,1.76,-0.64,-1.65,-0.67,0.29,-0.79,
2.16,1.76,-0.64,-1.65,-0.68,0.33,-0.79,
2.16,1.04,-0.74,-1.40,-0.68,0.33,-0.79,
2.16,1.04,-0.74,-1.40,-0.68,0.37,-0.79,
2.16,1.04,-0.74,-1.40,-0.68,0.41,-0.79,
2.161,1.04,-0.74,-1.40,-0.68,0.44,-0.79,
2.161,1.04,-0.74,-1.40,-0.68,0.47,-0.79,
2.161,1.04,-0.74,-1.40,-0.67,0.50,-0.78,
2.164,0.46,-0.70,-1.30,-0.67,0.50,-0.78,
2.164,0.46,-0.70,-1.30,-0.67,0.53,-0.77,
2.165,0.46,-0.70,-1.30,-0.66,0.55,-0.77,
2.167,0.46,-0.70,-1.30,-0.65,0.57,-0.76,
2.169,0.46,-0.70,-1.30,-0.63,0.58,-0.75,
2.176,0.46,-0.70,-1.30,-0.62,0.59,-0.74,
2.176,0.08,-0.71,-1.28,-0.62,0.59,-0.74,
2.176,0.08,-0.71,-1.28,-0.60,0.60,-0.73,
2.177,0.08,-0.71,-1.28,-0.59,0.60,-0.72,
2.181,0.08,-0.71,-1.28,-0.57,0.60,-0.71,
2.181,0.08,-0.71,-1.28,-0.55,0.59,-0.70,
2.181,0.08,-0.71,-1.28,-0.52,0.58,-0.69,
2.187,-0.10,-0.62,-1.23,-0.52,0.58,-0.69,
2.187,-0.10,-0.62,-1.23,-0.50,0.57,-0.68,
2.187,-0.10,-0.62,-1.23,-0.47,0.56,-0.67,
2.187,-0.10,-0.62,-1.23,-0.44,0.54,-0.65,
2.193,-0.10,-0.62,-1.23,-0.41,0.52,-0.65,
2.193,-0.10,-0.62,-1.23,-0.38,0.50,-0.64,
2.197,-0.12,-0.52,-1.11,-0.38,0.50,-0.64,
2.197,-0.12,-0.52,-1.11,-0.34,0.48,-0.63,
2.197,-0.12,-0.52,-1.11,-0.31,0.46,-0.62,
2.197,-0.12,-0.52,-1.11,-0.27,0.44,-0.62,
2.201,-0.12,-0.52,-1.11,-0.24,0.41,-0.61,
2.201,-0.12,-0.52,-1.11,-0.20,0.39,-0.60,
2.205,-0.17,-0.36,-1.18,-0.20,0.39,-0.60,
2.205,-0.17,-0.36,-1.18,-0.16,0.36,-0.59,
2.211,-0.17,-0.36,-1.18,-0.13,0.34,-0.59,
2.211,-0.17,-0.36,-1.18,-0.10,0.31,-0.58,
2.211,-0.17,-0.36,-1.18,-0.06,0.28,-0.57,
2.211,-0.17,-0.36,-1.18,-0.03,0.24,-0.57,
2.24,-0.19,-0.06,-1.37,-0.03,0.24,-0.57,
2.241,-0.19,-0.06,-1.37,0.00,0.21,-0.56,
2.241,-0.19,-0.06,-1.37,0.03,0.17,-0.56,
2.241,-0.19,-0.06,-1.37,0.06,0.13,-0.56,
2.241,-0.19,-0.06,-1.37,0.09,0.10,-0.56,
2.242,-0.19,-0.06,-1.37,0.11,0.06,-0.56,
2.242,-0.06,-0.07,-1.64,0.11,0.06,-0.56,
2.242,-0.06,-0.07,-1.64,0.13,0.02,-0.56,
2.242,-0.06,-0.07,-1.64,0.15,-0.02,-0.57,
2.242,-0.06,-0.07,-1.64,0.16,-0.05,-0.57,
2.243,-0.06,-0.07,-1.64,0.17,-0.08,-0.58,
2.243,-0.06,-0.07,-1.64,0.18,-0.11,-0.59,
2.243,0.13,-0.09,-2.15,0.18,-0.11,-0.59,
2.243,0.13,-0.09,-2.15,0.19,-0.12,-0.60,
2.243,0.13,-0.09,-2.15,0.19,-0.14,-0.60,
2.244,0.13,-0.09,-2.15,0.20,-0.15,-0.60,
2.259,0.13,-0.09,-2.15,0.20,-0.17,-0.61,
2.26,0.13,-0.09,-2.15,0.20,-0.18,-0.61,
2.26,0.03,0.03,-2.45,0.20,-0.18,-0.61,
2.26,0.03,0.03,-2.45,0.20,-0.18,-0.62,
2.26,0.03,0.03,-2.45,0.20,-0.18,-0.62,
2.261,0.03,0.03,-2.45,0.20,-0.18,-0.62,
2.261,0.03,0.03,-2.45,0.20,-0.18,-0.62,
2.261,0.03,0.03,-2.45,0.19,-0.18,-0.62,
2.261,-0.11,0.13,-2.61,0.19,-0.18,-0.62,
2.261,-0.11,0.13,-2.61,0.18,-0.17,-0.62,
2.262,-0.11,0.13,-2.61,0.18,-0.16,-0.61,
2.262,-0.11,0.13,-2.61,0.17,-0.16,-0.61,
2.262,-0.11,0.13,-2.61,0.17,-0.14,-0.61,
2.262,-0.11,0.13,-2.61,0.16,-0.13,-0.61,
2.272,-0.23,0.11,-2.71,0.16,-0.13,-0.61,
2.272,-0.23,0.11,-2.71,0.15,-0.13,-0.61,
2.273,-0.23,0.11,-2.71,0.13,-0.12,-0.61,
2.273,-0.23,0.11,-2.71,0.12,-0.11,-0.60,
2.273,-0.23,0.11,-2.71,0.11,-0.10,-0.60,
2.273,-0.23,0.11,-2.71,0.09,-0.09,-0.60,
2.273,-0.22,0.16,-2.85,0.09,-0.09,-0.60,
2.273,-0.22,0.16,-2.85,0.08,-0.08,-0.60,
2.275,-0.22,0.16,-2.85,0.06,-0.07,-0.60,
2.277,-0.22,0.16,-2.85,0.04,-0.07,-0.61,
2.279,-0.22,0.16,-2.85,0.03,-0.07,-0.61,
2.281,-0.22,0.16,-2.85,0.00,-0.06,-0.61,
2.283,-0.23,0.16,-2.84,0.00,-0.06,-0.61,
2.283,-0.23,0.16,-2.84,-0.01,-0.06,-0.61,
2.285,-0.23,0.16,-2.84,-0.03,-0.05,-0.61,
2.287,-0.23,0.16,-2.84,-0.05,-0.05,-0.61,
2.289,-0.23,0.16,-2.84,-0.07,-0.05,-0.61,
2.292,-0.23,0.16,-2.84,-0.09,-0.05,-0.61,
2.296,-0.30,0.22,-2.74,-0.09,-0.05,-0.61,
2.296,-0.30,0.22,-2.74,-0.11,-0.04,-0.61,
2.296,-0.30,0.22,-2.74,-0.13,-0.04,-0.61,
2.298,-0.30,0.22,-2.74,-0.15,-0.04,-0.61,
2.298,-0.30,0.22,-2.74,-0.16,-0.03,-0.60,
2.301,-0.30,0.22,-2.74,-0.18,-0.03,-0.60,
2.308,-0.38,0.22,-2.54,-0.18,-0.03,-0.60,
2.309,-0.38,0.22,-2.54,-0.20,-0.04,-0.59,
2.309,-0.38,0.22,-2.54,-0.22,-0.04,-0.59,
2.309,-0.38,0.22,-2.54,-0.24,-0.04,-0.59,
2.309,-0.38,0.22,-2.54,-0.27,-0.05,-0.58,
2.313,-0.38,0.22,-2.54,-0.27,-0.05,-0.58,
2.313,-0.52,0.33,-2.28,-0.27,-0.05,-0.58,
2.313,-0.52,0.33,-2.28,-0.29,-0.06,-0.57,
2.317,-0.52,0.33,-2.28,-0.30,-0.06,-0.57,
2.32,-0.52,0.33,-2.28,-0.32,-0.06,-0.56,
2.337,-0.52,0.33,-2.28,-0.34,-0.08,-0.56,
2.337,-0.52,0.33,-2.28,-0.35,-0.08,-0.56,
2.337,-0.55,0.39,-1.85,-0.35,-0.08,-0.56,
2.337,-0.55,0.39,-1.85,-0.37,-0.10,-0.55,
2.338,-0.55,0.39,-1.85,-0.38,-0.11,-0.55,
2.338,-0.55,0.39,-1.85,-0.39,-0.12,-0.55,
2.338,-0.55,0.39,-1.85,-0.40,-0.14,-0.55,
2.338,-0.55,0.39,-1.85,-0.41,-0.15,-0.55,
2.338,-0.51,0.53,-1.42,-0.41,-0.15,-0.55,
2.338,-0.51,0.53,-1.42,-0.44,-0.18,-0.55,
2.338,-0.51,0.53,-1.42,-0.45,-0.19,-0.56,
2.338,-0.51,0.53,-1.42,-0.45,-0.20,-0.56,
2.347,-0.51,0.53,-1.42,-0.46,-0.22,-0.56,
2.347,-0.51,0.53,-1.42,-0.47,-0.23,-0.55,
2.347,-0.55,0.62,-0.73,-0.47,-0.23,-0.55,
2.348,-0.55,0.62,-0.73,-0.47,-0.26,-0.55,
2.348,-0.55,0.62,-0.73,-0.48,-0.27,-0.55,
2.348,-0.55,0.62,-0.73,-0.47,-0.28,-0.55,
2.351,-0.55,0.62,-0.73,-0.48,-0.30,-0.55,
2.351,-0.55,0.62,-0.73,-0.47,-0.31,-0.55,
2.354,-0.70,0.71,0.13,-0.47,-0.31,-0.55,
2.362,-0.70,0.71,0.13,-0.46,-0.32,-0.54,
2.362,-0.70,0.71,0.13,-0.45,-0.32,-0.54,
2.362,-0.70,0.71,0.13,-0.43,-0.33,-0.53,
2.362,-0.70,0.71,0.13,-0.41,-0.33,-0.53,
2.362,-0.70,0.71,0.13,-0.40,-0.32,-0.52,
2.366,-0.95,0.75,1.04,-0.40,-0.32,-0.52,
2.366,-0.95,0.75,1.04,-0.37,-0.31,-0.51,
2.366,-0.95,0.75,1.04,-0.34,-0.30,-0.50,
2.369,-0.95,0.75,1.04,-0.33,-0.29,-0.49,
2.377,-0.95,0.75,1.04,-0.28,-0.26,-0.47,
2.378,-0.95,0.75,1.04,-0.27,-0.26,-0.46,
2.378,-1.42,0.88,1.73,-0.27,-0.26,-0.46,
2.378,-1.42,0.88,1.73,-0.22,-0.23,-0.43,
2.378,-1.42,0.88,1.73,-0.21,-0.21,-0.42,
2.378,-1.42,0.88,1.73,-0.16,-0.18,-0.39,
2.397,-1.42,0.88,1.73,-0.12,-0.16,-0.36,
2.397,-1.42,0.88,1.73,-0.09,-0.14,-0.33,
2.398,-1.93,1.03,2.07,-0.09,-0.14,-0.33,
2.398,-1.93,1.03,2.07,-0.06,-0.12,-0.31,
2.398,-1.93,1.03,2.07,-0.03,-0.11,-0.28,
2.398,-1.93,1.03,2.07,0.00,-0.10,-0.24,
2.398,-1.93,1.03,2.07,0.03,-0.10,-0.21,
2.398,-1.93,1.03,2.07,0.05,-0.11,-0.18,
2.399,-2.53,1.08,1.96,0.05,-0.11,-0.18,
2.399,-2.53,1.08,1.96,0.08,-0.12,-0.14,
2.399,-2.53,1.08,1.96,0.09,-0.15,-0.10,
2.399,-2.53,1.08,1.96,0.11,-0.18,-0.06,
2.406,-2.53,1.08,1.96,0.12,-0.23,-0.03,
2.406,-2.53,1.08,1.96,0.12,-0.28,0.01,
2.406,-2.80,1.16,1.64,0.12,-0.28,0.01,
2.406,-2.80,1.16,1.64,0.13,-0.34,0.05,
2.424,-2.80,1.16,1.64,0.13,-0.40,0.09,
2.424,-2.80,1.16,1.64,0.12,-0.47,0.12,
2.424,-2.80,1.16,1.64,0.12,-0.55,0.16,
2.424,-2.80,1.16,1.64,0.11,-0.62,0.19,
2.425,-2.50,1.09,1.61,0.11,-0.62,0.19,
2.425,-2.50,1.09,1.61,0.11,-0.70,0.21,
2.425,-2.50,1.09,1.61,0.10,-0.77,0.24,
2.426,-2.50,1.09,1.61,0.09,-0.85,0.25,
2.426,-2.50,1.09,1.61,0.08,-0.92,0.27,
2.426,-2.50,1.09,1.61,0.07,-0.98,0.28,
2.426,-1.56,0.99,2.13,0.07,-0.98,0.28,
2.427,-1.56,0.99,2.13,0.07,-1.05,0.29,
2.427,-1.56,0.99,2.13,0.06,-1.10,0.29,
2.427,-1.56,0.99,2.13,0.06,-1.15,0.29,
2.437,-1.56,0.99,2.13,0.06,-1.20,0.29,
2.437,-1.56,0.99,2.13,0.07,-1.25,0.29,
2.437,-0.77,0.96,3.12,0.07,-1.25,0.29,
2.438,-0.77,0.96,3.12,0.07,-1.28,0.29,
2.438,-0.77,0.96,3.12,0.08,-1.32,0.28,
2.438,-0.77,0.96,3.12,0.09,-1.35,0.27,
2.44,-0.77,0.96,3.12,0.10,-1.37,0.27,
2.441,-0.77,0.96,3.12,0.12,-1.39,0.26,
2.444,-0.19,0.99,4.41,0.12,-1.39,0.26,
2.444,-0.19,0.99,4.41,0.14,-1.39,0.25,
2.445,-0.19,0.99,4.41,0.17,-1.38,0.24,
2.447,-0.19,0.99,4.41,0.20,-1.37,0.24,
2.449,-0.19,0.99,4.41,0.24,-1.35,0.23,
2.451,-0.19,0.99,4.41,0.28,-1.32,0.23,
2.454,0.02,0.86,5.61,0.28,-1.32,0.23,
2.454,0.02,0.86,5.61,0.32,-1.28,0.23,
2.455,0.02,0.86,5.61,0.37,-1.24,0.24,
2.457,0.02,0.86,5.61,0.42,-1.19,0.24,
2.459,0.02,0.86,5.61,0.47,-1.13,0.25,
2.461,0.02,0.86,5.61,0.53,-1.07,0.26,
2.464,-0.08,0.77,6.26,0.53,-1.07,0.26,
2.464,-0.08,0.77,6.26,0.58,-1.00,0.27,
2.465,-0.08,0.77,6.26,0.64,-0.93,0.28,
2.467,-0.08,0.77,6.26,0.69,-0.85,0.29,
2.471,-0.08,0.77,6.26,0.74,-0.77,0.30,
2.472,-0.08,0.77,6.26,0.79,-0.69,0.31,
2.475,-0.07,0.43,5.87,0.79,-0.69,0.31,
2.475,-0.07,0.43,5.87,0.83,-0.61,0.32,
2.476,-0.07,0.43,5.87,0.86,-0.52,0.33,
2.477,-0.07,0.43,5.87,0.90,-0.44,0.34,
2.48,-0.07,0.43,5.87,0.93,-0.36,0.35,
2.481,-0.07,0.43,5.87,0.94,-0.29,0.36,
2.484,-0.17,0.30,4.58,0.94,-0.29,0.36,
2.484,-0.17,0.30,4.58,0.95,-0.22,0.37,
2.486,-0.17,0.30,4.58,0.95,-0.16,0.38,
2.487,-0.17,0.30,4.58,0.95,-0.12,0.40,
2.489,-0.17,0.30,4.58,0.94,-0.08,0.41,
2.491,-0.17,0.30,4.58,0.92,-0.05,0.42,
2.494,-0.30,0.55,3.10,0.92,-0.05,0.42,
2.494,-0.30,0.55,3.10,0.90,-0.03,0.43,
2.496,-0.30,0.55,3.10,0.87,-0.01,0.43,
2.5,-0.30,0.55,3.10,0.84,-0.00,0.44,
2.501,-0.30,0.55,3.10,0.81,0.01,0.44,
2.502,-0.30,0.55,3.10,0.79,0.01,0.43,
2.509,-0.10,0.77,1.97,0.79,0.01,0.43,
2.51,-0.10,0.77,1.97,0.75,0.02,0.43,
2.511,-0.10,0.77,1.97,0.72,0.02,0.42,
2.511,-0.10,0.77,1.97,0.70,0.03,0.41,
2.515,-0.10,0.77,1.97,0.67,0.04,0.39,
2.515,-0.10,0.77,1.97,0.65,0.05,0.38,
2.515,0.12,0.95,1.57,0.65,0.05,0.38,
2.515,0.12,0.95,1.57,0.63,0.06,0.36,
2.524,0.12,0.95,1.57,0.62,0.07,0.34,
2.524,0.12,0.95,1.57,0.60,0.08,0.32,
2.524,0.12,0.95,1.57,0.59,0.09,0.30,
2.524,0.12,0.95,1.57,0.58,0.11,0.28,
2.524,0.22,1.05,1.49,0.58,0.11,0.28,
2.525,0.22,1.05,1.49,0.56,0.12,0.26,
2.526,0.22,1.05,1.49,0.55,0.13,0.24,
2.532,0.22,1.05,1.49,0.54,0.14,0.21,
2.55,0.22,1.05,1.49,0.53,0.15,0.19,
2.55,0.22,1.05,1.49,0.52,0.17,0.17,
2.551,0.24,0.97,1.40,0.52,0.17,0.17,
2.551,0.24,0.97,1.40,0.50,0.18,0.15,
2.551,0.24,0.97,1.40,0.49,0.20,0.13,
2.552,0.24,0.97,1.40,0.48,0.22,0.11,
2.552,0.24,0.97,1.40,0.47,0.24,0.10,
2.556,0.24,0.97,1.40,0.46,0.27,0.08,
2.558,0.06,0.77,1.27,0.46,0.27,0.08,
2.558,0.06,0.77,1.27,0.45,0.30,0.07,
2.558,0.06,0.77,1.27,0.45,0.33,0.06,
2.58,0.06,0.77,1.27,0.44,0.36,0.05,
2.581,0.06,0.77,1.27,0.43,0.39,0.04,
2.581,0.06,0.77,1.27,0.43,0.42,0.03,
2.581,-0.35,0.59,1.15,0.43,0.42,0.03,
2.581,-0.35,0.59,1.15,0.42,0.45,0.03,
2.581,-0.35,0.59,1.15,0.42,0.47,0.02,
2.582,-0.35,0.59,1.15,0.42,0.49,0.02,
2.582,-0.35,0.59,1.15,0.41,0.52,0.02,
2.582,-0.35,0.59,1.15,0.41,0.53,0.02,
2.582,-0.76,0.44,0.95,0.41,0.53,0.02,
2.582,-0.76,0.44,0.95,0.40,0.55,0.01,
2.582,-0.76,0.44,0.95,0.40,0.56,0.02,
2.583,-0.76,0.44,0.95,0.39,0.57,0.02,
2.583,-0.76,0.44,0.95,0.39,0.58,0.02,
2.583,-0.76,0.44,0.95,0.38,0.58,0.02,
2.597,-1.20,0.32,0.65,0.38,0.58,0.02,
2.597,-1.20,0.32,0.65,0.38,0.58,0.03,
2.597,-1.20,0.32,0.65,0.37,0.58,0.04,
2.597,-1.20,0.32,0.65,0.36,0.58,0.04,
2.597,-1.20,0.32,0.65,0.35,0.57,0.06,
2.597,-1.20,0.32,0.65,0.35,0.56,0.07,
2.598,-1.64,0.23,0.43,0.35,0.56,0.07,
2.598,-1.64,0.23,0.43,0.34,0.54,0.08,
2.598,-1.64,0.23,0.43,0.33,0.53,0.09,
2.598,-1.64,0.23,0.43,0.33,0.52,0.11,
2.598,-1.64,0.23,0.43,0.32,0.50,0.12,
2.598,-1.64,0.23,0.43,0.31,0.48,0.13,
2.598,-1.92,0.19,0.18,0.31,0.48,0.13,
2.599,-1.92,0.19,0.18,0.30,0.47,0.14,
2.599,-1.92,0.19,0.18,0.29,0.45,0.16,
2.599,-1.92,0.19,0.18,0.27,0.44,0.17,
2.605,-1.92,0.19,0.18,0.26,0.42,0.18,
2.605,-1.92,0.19,0.18,0.25,0.40,0.19,
2.605,-1.88,0.12,-0.09,0.25,0.40,0.19,
2.605,-1.88,0.12,-0.09,0.23,0.38,0.20,
2.605,-1.88,0.12,-0.09,0.22,0.36,0.21,
2.607,-1.88,0.12,-0.09,0.20,0.34,0.22,
2.609,-1.88,0.12,-0.09,0.18,0.32,0.22,
2.611,-1.88,0.12,-0.09,0.17,0.30,0.23,
2.614,-1.78,0.10,-0.28,0.17,0.30,0.23,
2.614,-1.78,0.10,-0.28,0.15,0.28,0.23,
2.614,-1.78,0.10,-0.28,0.13,0.26,0.24,
2.617,-1.78,0.10,-0.28,0.11,0.24,0.24,
2.619,-1.78,0.10,-0.28,0.09,0.22,0.24,
2.621,-1.78,0.10,-0.28,0.07,0.19,0.24,
2.625,-1.53,0.12,-0.37,0.07,0.19,0.24,
2.625,-1.53,0.12,-0.37,0.05,0.17,0.24,
2.626,-1.53,0.12,-0.37,0.02,0.15,0.24,
2.627,-1.53,0.12,-0.37,0.00,0.13,0.24,
2.629,-1.53,0.12,-0.37,-0.02,0.11,0.24,
2.631,-1.53,0.12,-0.37,-0.05,0.09,0.24,
2.633,-1.38,0.09,-0.41,-0.05,0.09,0.24,
2.634,-1.38,0.09,-0.41,-0.08,0.06,0.23,
2.635,-1.38,0.09,-0.41,-0.11,0.03,0.23,
2.64,-1.38,0.09,-0.41,-0.14,0.00,0.23,
2.64,-1.38,0.09,-0.41,-0.17,-0.02,0.23,
2.641,-1.38,0.09,-0.41,-0.20,-0.05,0.22,
2.644,-1.17,0.12,-0.34,-0.20,-0.05,0.22,
2.644,-1.17,0.12,-0.34,-0.24,-0.07,0.22,
2.645,-1.17,0.12,-0.34,-0.28,-0.09,0.22,
2.647,-1.17,0.12,-0.34,-0.31,-0.11,0.22,
2.649,-1.17,0.12,-0.34,-0.35,-0.13,0.21,
2.655,-1.17,0.12,-0.34,-0.39,-0.15,0.21,
2.655,-0.94,0.02,-0.05,-0.39,-0.15,0.21,
2.655,-0.94,0.02,-0.05,-0.42,-0.16,0.20,
2.656,-0.94,0.02,-0.05,-0.44,-0.17,0.20,
2.657,-0.94,0.02,-0.05,-0.47,-0.18,0.19,
2.658,-0.94,0.02,-0.05,-0.50,-0.18,0.19,
2.661,-0.94,0.02,-0.05,-0.52,-0.17,0.19,
2.663,-0.72,-0.10,0.46,-0.52,-0.17,0.19,
2.664,-0.72,-0.10,0.46,-0.54,-0.17,0.18,
2.665,-0.72,-0.10,0.46,-0.56,-0.16,0.18,
2.667,-0.72,-0.10,0.46,-0.58,-0.16,0.18,
2.67,-0.72,-0.10,0.46,-0.59,-0.14,0.17,
2.671,-0.72,-0.10,0.46,-0.60,-0.12,0.17,
2.676,-0.64,-0.18,0.92,-0.60,-0.12,0.17,
2.676,-0.64,-0.18,0.92,-0.61,-0.10,0.18,
2.676,-0.64,-0.18,0.92,-0.62,-0.08,0.18,
2.677,-0.64,-0.18,0.92,-0.63,-0.06,0.17,
2.681,-0.64,-0.18,0.92,-0.62,-0.04,0.17,
2.681,-0.64,-0.18,0.92,-0.63,-0.03,0.17,
2.683,-0.44,-0.38,1.17,-0.63,-0.03,0.17,
2.683,-0.44,-0.38,1.17,-0.63,-0.00,0.17,
2.692,-0.44,-0.38,1.17,-0.62,0.02,0.16,
2.693,-0.44,-0.38,1.17,-0.62,0.06,0.16,
2.693,-0.44,-0.38,1.17,-0.61,0.08,0.16,
2.693,-0.44,-0.38,1.17,-0.59,0.12,0.15,
2.693,-0.30,-0.58,1.41,-0.59,0.12,0.15,
2.693,-0.30,-0.58,1.41,-0.58,0.15,0.15,
2.694,-0.30,-0.58,1.41,-0.55,0.18,0.15,
2.697,-0.30,-0.58,1.41,-0.53,0.22,0.14,
2.698,-0.30,-0.58,1.41,-0.51,0.26,0.14,
2.701,-0.30,-0.58,1.41,-0.48,0.31,0.14,
2.704,-0.20,-0.77,1.40,-0.48,0.31,0.14,
2.704,-0.20,-0.77,1.40,-0.46,0.36,0.13,
2.705,-0.20,-0.77,1.40,-0.43,0.41,0.13,
2.707,-0.20,-0.77,1.40,-0.40,0.45,0.13,
2.709,-0.20,-0.77,1.40,-0.37,0.50,0.13,
2.711,-0.20,-0.77,1.40,-0.34,0.54,0.13,
2.74,-0.23,-0.96,1.06,-0.34,0.54,0.13,
2.741,-0.23,-0.96,1.06,-0.31,0.58,0.13,
2.741,-0.23,-0.96,1.06,-0.29,0.61,0.13,
2.741,-0.23,-0.96,1.06,-0.26,0.65,0.14,
2.741,-0.23,-0.96,1.06,-0.23,0.68,0.14,
2.742,-0.23,-0.96,1.06,-0.20,0.71,0.15,
2.742,-0.37,-0.91,0.48,-0.20,0.71,0.15,
2.742,-0.37,-0.91,0.48,-0.18,0.74,0.16,
2.742,-0.37,-0.91,0.48,-0.16,0.76,0.17,
2.743,-0.37,-0.91,0.48,-0.13,0.78,0.18,
2.743,-0.37,-0.91,0.48,-0.11,0.80,0.19,
2.743,-0.37,-0.91,0.48,-0.09,0.81,0.20,
2.744,-0.56,-0.88,-0.32,-0.09,0.81,0.20,
2.744,-0.56,-0.88,-0.32,-0.08,0.82,0.21,
2.744,-0.56,-0.88,-0.32,-0.06,0.82,0.22,
2.744,-0.56,-0.88,-0.32,-0.05,0.82,0.23,
2.761,-0.56,-0.88,-0.32,-0.03,0.82,0.24,
2.761,-0.56,-0.88,-0.32,-0.02,0.81,0.24,
2.762,-0.56,-0.94,-1.12,-0.02,0.81,0.24,
2.762,-0.56,-0.94,-1.12,-0.01,0.80,0.25,
2.762,-0.56,-0.94,-1.12,0.00,0.79,0.26,
2.763,-0.56,-0.94,-1.12,0.02,0.78,0.27,
2.763,-0.56,-0.94,-1.12,0.03,0.76,0.28,
2.763,-0.56,-0.94,-1.12,0.04,0.74,0.29,
2.763,-0.54,-0.98,-1.69,0.04,0.74,0.29,
2.764,-0.54,-0.98,-1.69,0.05,0.72,0.29,
2.764,-0.54,-0.98,-1.69,0.06,0.70,0.30,
2.764,-0.54,-0.98,-1.69,0.07,0.68,0.31,
2.764,-0.54,-0.98,-1.69,0.08,0.66,0.32,
2.765,-0.54,-0.98,-1.69,0.09,0.63,0.32,
2.765,-0.43,-0.96,-2.10,0.09,0.63,0.32,
2.765,-0.43,-0.96,-2.10,0.10,0.60,0.32,
2.765,-0.43,-0.96,-2.10,0.12,0.58,0.33,
2.779,-0.43,-0.96,-2.10,0.13,0.55,0.33,
2.78,-0.43,-0.96,-2.10,0.14,0.52,0.33,
2.78,-0.43,-0.96,-2.10,0.16,0.49,0.34,
2.78,-0.29,-0.97,-2.28,0.16,0.49,0.34,
2.781,-0.29,-0.97,-2.28,0.17,0.46,0.33,
2.781,-0.29,-0.97,-2.28,0.19,0.43,0.33,
2.781,-0.29,-0.97,-2.28,0.21,0.40,0.34,
2.781,-0.29,-0.97,-2.28,0.22,0.38,0.34,
2.782,-0.29,-0.97,-2.28,0.24,0.36,0.34,
2.783,-0.18,-0.98,-2.34,0.24,0.36,0.34,
2.788,-0.18,-0.98,-2.34,0.30,0.30,0.34,
2.789,-0.18,-0.98,-2.34,0.30,0.30,0.34,
2.79,-0.18,-0.98,-2.34,0.32,0.30,0.34,
2.791,-0.18,-0.98,-2.34,0.34,0.28,0.34,
2.791,-0.18,-0.98,-2.34,0.34,0.28,0.34,
2.793,-0.07,-1.05,-2.43,0.34,0.28,0.34,
2.794,-0.07,-1.05,-2.43,0.36,0.28,0.34,
2.795,-0.07,-1.05,-2.43,0.37,0.27,0.34,
2.797,-0.07,-1.05,-2.43,0.39,0.26,0.34,
2.8,-0.07,-1.05,-2.43,0.40,0.25,0.34,
2.807,-0.07,-1.05,-2.43,0.41,0.25,0.35,
2.808,-0.11,-1.13,-2.69,0.41,0.25,0.35,
2.808,-0.11,-1.13,-2.69,0.42,0.24,0.35,
2.808,-0.11,-1.13,-2.69,0.43,0.23,0.36,
2.809,-0.11,-1.13,-2.69,0.44,0.22,0.36,
2.809,-0.11,-1.13,-2.69,0.45,0.21,0.37,
2.811,-0.11,-1.13,-2.69,0.45,0.20,0.38,
2.814,-0.19,-1.13,-2.96,0.45,0.20,0.38,
2.814,-0.19,-1.13,-2.96,0.45,0.19,0.38,
2.815,-0.19,-1.13,-2.96,0.45,0.18,0.39,
2.846,-0.19,-1.13,-2.96,0.45,0.17,0.39,
2.847,-0.19,-1.13,-2.96,0.45,0.16,0.39,
2.847,-0.19,-1.13,-2.96,0.44,0.15,0.40,
2.847,-0.16,-1.16,-3.29,0.44,0.15,0.40,
2.847,-0.16,-1.16,-3.29,0.43,0.14,0.40,
2.847,-0.16,-1.16,-3.29,0.42,0.13,0.40,
2.848,-0.16,-1.16,-3.29,0.41,0.12,0.40,
2.848,-0.16,-1.16,-3.29,0.40,0.10,0.40,
2.848,-0.16,-1.16,-3.29,0.39,0.08,0.39,
2.848,-0.09,-1.18,-3.41,0.39,0.08,0.39,
2.848,-0.09,-1.18,-3.41,0.37,0.06,0.39,
2.848,-0.09,-1.18,-3.41,0.35,0.04,0.39,
2.849,-0.09,-1.18,-3.41,0.34,0.02,0.38,
2.849,-0.09,-1.18,-3.41,0.33,0.00,0.38,
2.849,-0.09,-1.18,-3.41,0.31,-0.02,0.38,
2.849,-0.03,-1.19,-3.21,0.31,-0.02,0.38,
2.849,-0.03,-1.19,-3.21,0.30,-0.04,0.38,
2.85,-0.03,-1.19,-3.21,0.29,-0.06,0.38,
2.85,-0.03,-1.19,-3.21,0.28,-0.07,0.37,
2.85,-0.03,-1.19,-3.21,0.27,-0.09,0.37,
2.854,-0.03,-1.19,-3.21,0.25,-0.10,0.37,
2.854,0.15,-1.25,-2.91,0.25,-0.10,0.37,
2.855,0.15,-1.25,-2.91,0.24,-0.11,0.37,
2.855,0.15,-1.25,-2.91,0.23,-0.12,0.36,
2.857,0.15,-1.25,-2.91,0.22,-0.12,0.36,
2.859,0.15,-1.25,-2.91,0.21,-0.13,0.35,
2.861,0.15,-1.25,-2.91,0.20,-0.13,0.35,
2.864,0.26,-1.26,-2.61,0.20,-0.13,0.35,
2.864,0.26,-1.26,-2.61,0.19,-0.13,0.34,
2.865,0.26,-1.26,-2.61,0.18,-0.13,0.34,
2.867,0.26,-1.26,-2.61,0.17,-0.13,0.33,
2.869,0.26,-1.26,-2.61,0.16,-0.13,0.33,
2.871,0.26,-1.26,-2.61,0.15,-0.13,0.33,
2.875,0.31,-1.19,-2.29,0.15,-0.13,0.33,
2.875,0.31,-1.19,-2.29,0.14,-0.13,0.32,
2.876,0.31,-1.19,-2.29,0.13,-0.13,0.32,
2.878,0.31,-1.19,-2.29,0.12,-0.13,0.31,
2.879,0.31,-1.19,-2.29,0.11,-0.12,0.31,
2.904,0.31,-1.19,-2.29,0.10,-0.12,0.30,
2.904,0.32,-1.15,-2.01,0.10,-0.12,0.30,
2.904,0.32,-1.15,-2.01,0.10,-0.12,0.30,
2.904,0.32,-1.15,-2.01,0.09,-0.12,0.29,
2.904,0.32,-1.15,-2.01,0.08,-0.12,0.29,
2.904,0.32,-1.15,-2.01,0.07,-0.12,0.28,
2.905,0.32,-1.15,-2.01,0.06,-0.12,0.28,
2.905,0.27,-1.16,-1.71,0.06,-0.12,0.28,
2.905,0.27,-1.16,-1.71,0.06,-0.12,0.28,
2.905,0.27,-1.16,-1.71,0.05,-0.12,0.27,
2.905,0.27,-1.16,-1.71,0.05,-0.12,0.27,
2.905,0.27,-1.16,-1.71,0.04,-0.12,0.27,
2.905,0.27,-1.16,-1.71,0.04,-0.12,0.27,
2.906,0.16,-1.14,-1.33,0.04,-0.12,0.27,
2.906,0.16,-1.14,-1.33,0.04,-0.12,0.27,
2.922,0.16,-1.14,-1.33,0.04,-0.12,0.27,
2.923,0.16,-1.14,-1.33,0.04,-0.13,0.27,
2.923,0.16,-1.14,-1.33,0.05,-0.13,0.27,
2.923,0.16,-1.14,-1.33,0.05,-0.13,0.27,
2.923,0.18,-1.14,-0.94,0.05,-0.13,0.27,
2.924,0.18,-1.14,-0.94,0.05,-0.14,0.28,
2.924,0.18,-1.14,-0.94,0.06,-0.14,0.28,
2.924,0.18,-1.14,-0.94,0.06,-0.15,0.28,
2.924,0.18,-1.14,-0.94,0.07,-0.16,0.28,
2.924,0.18,-1.14,-0.94,0.07,-0.16,0.28,
2.925,0.24,-1.12,-0.63,0.07,-0.16,0.28,
2.925,0.24,-1.12,-0.63,0.08,-0.17,0.28,
2.925,0.24,-1.12,-0.63,0.08,-0.18,0.27,
2.929,0.24,-1.12,-0.63,0.09,-0.18,0.27,
2.929,0.24,-1.12,-0.63,0.09,-0.19,0.27,
2.934,0.24,-1.12,-0.63,0.10,-0.19,0.26,
2.934,0.44,-1.11,-0.31,0.10,-0.19,0.26,
2.934,0.44,-1.11,-0.31,0.10,-0.20,0.26,
2.936,0.44,-1.11,-0.31,0.11,-0.20,0.25,
2.937,0.44,-1.11,-0.31,0.12,-0.20,0.24,
2.939,0.44,-1.11,-0.31,0.12,-0.20,0.24,
2.941,0.44,-1.11,-0.31,0.13,-0.19,0.23,
2.944,0.61,-1.07,-0.12,0.13,-0.19,0.23,
2.944,0.61,-1.07,-0.12,0.14,-0.18,0.23,
2.945,0.61,-1.07,-0.12,0.15,-0.18,0.22,
2.947,0.61,-1.07,-0.12,0.15,-0.17,0.21,
2.949,0.61,-1.07,-0.12,0.15,-0.17,0.20,
2.956,0.61,-1.07,-0.12,0.15,-0.17,0.20,
2.957,0.69,-1.09,-0.14,0.15,-0.17,0.20,
2.957,0.69,-1.09,-0.14,0.15,-0.17,0.19,
2.957,0.69,-1.09,-0.14,0.15,-0.17,0.18,
2.957,0.69,-1.09,-0.14,0.14,-0.17,0.17,
2.959,0.69,-1.09,-0.14,0.14,-0.17,0.16,
2.961,0.69,-1.09,-0.14,0.13,-0.18,0.16,
2.965,0.62,-1.04,-0.22,0.13,-0.18,0.16,
2.965,0.62,-1.04,-0.22,0.13,-0.18,0.15,
2.965,0.62,-1.04,-0.22,0.12,-0.18,0.14,
2.987,0.62,-1.04,-0.22,0.12,-0.17,0.14,
2.987,0.62,-1.04,-0.22,0.11,-0.17,0.13,
2.987,0.62,-1.04,-0.22,0.10,-0.17,0.12,
2.987,0.49,-1.02,-0.22,0.10,-0.17,0.12,
2.987,0.49,-1.02,-0.22,0.09,-0.16,0.12,
2.987,0.49,-1.02,-0.22,0.08,-0.15,0.12,
2.987,0.49,-1.02,-0.22,0.07,-0.14,0.12,
2.988,0.49,-1.02,-0.22,0.05,-0.13,0.11,
2.988,0.49,-1.02,-0.22,0.04,-0.11,0.11,
2.988,0.27,-0.98,-0.30,0.04,-0.11,0.11,
2.988,0.27,-0.98,-0.30,0.02,-0.10,0.12,
2.988,0.27,-0.98,-0.30,0.00,-0.08,0.12,
2.988,0.27,-0.98,-0.30,-0.02,-0.07,0.12,
2.988,0.27,-0.98,-0.30,-0.04,-0.05,0.13,
2.991,0.27,-0.98,-0.30,-0.06,-0.03,0.13,
2.993,0.19,-0.95,-0.42,-0.06,-0.03,0.13,
2.993,0.19,-0.95,-0.42,-0.08,-0.01,0.13,
2.995,0.19,-0.95,-0.42,-0.11,0.01,0.14,
2.996,0.19,-0.95,-0.42,-0.14,0.03,0.14,
2.999,0.19,-0.95,-0.42,-0.17,0.05,0.14,
3.001,0.19,-0.95,-0.42,-0.20,0.07,0.14,
3.004,0.20,-0.86,-0.44,-0.20,0.07,0.14,
3.004,0.20,-0.86,-0.44,-0.23,0.09,0.15,
3.005,0.20,-0.86,-0.44,-0.26,0.12,0.15,
3.007,0.20,-0.86,-0.44,-0.29,0.14,0.15,
3.008,0.20,-0.86,-0.44,-0.32,0.17,0.15,
3.011,0.20,-0.86,-0.44,-0.35,0.20,0.16,
3.013,0.24,-0.81,-0.17,-0.35,0.20,0.16,
3.013,0.24,-0.81,-0.17,-0.38,0.24,0.16,
3.014,0.24,-0.81,-0.17,-0.40,0.27,0.17,
3.017,0.24,-0.81,-0.17,-0.43,0.31,0.17,
3.019,0.24,-0.81,-0.17,-0.45,0.35,0.18,
3.021,0.24,-0.81,-0.17,-0.47,0.39,0.19,
3.023,0.15,-0.73,0.37,-0.47,0.39,0.19,
3.023,0.15,-0.73,0.37,-0.49,0.43,0.20,
3.024,0.15,-0.73,0.37,-0.51,0.47,0.21,
3.027,0.15,-0.73,0.37,-0.52,0.52,0.22,
3.028,0.15,-0.73,0.37,-0.54,0.56,0.23,
3.03,0.15,-0.73,0.37,-0.55,0.60,0.25,
3.033,-0.06,-0.61,0.98,-0.55,0.60,0.25,
3.034,-0.06,-0.61,0.98,-0.56,0.63,0.27,
3.035,-0.06,-0.61,0.98,-0.57,0.67,0.28,
3.037,-0.06,-0.61,0.98,-0.57,0.69,0.30,
3.038,-0.06,-0.61,0.98,-0.58,0.71,0.32,
3.04,-0.06,-0.61,0.98,-0.58,0.73,0.33,
3.043,-0.11,-0.43,1.52,-0.58,0.73,0.33,
3.044,-0.11,-0.43,1.52,-0.59,0.73,0.35,
3.045,-0.11,-0.43,1.52,-0.59,0.74,0.36,
3.063,-0.11,-0.43,1.52,-0.60,0.74,0.37,
3.063,-0.11,-0.43,1.52,-0.60,0.74,0.39,
3.063,-0.11,-0.43,1.52,-0.60,0.73,0.40,
3.063,0.08,-0.27,1.88,-0.60,0.73,0.40,
3.063,0.08,-0.27,1.88,-0.61,0.73,0.41,
3.064,0.08,-0.27,1.88,-0.61,0.72,0.41,
3.064,0.08,-0.27,1.88,-0.62,0.71,0.41,
3.064,0.08,-0.27,1.88,-0.62,0.70,0.42,
3.064,0.08,-0.27,1.88,-0.63,0.68,0.41,
3.064,0.54,0.02,2.01,-0.63,0.68,0.41,
3.064,0.54,0.02,2.01,-0.63,0.67,0.40,
3.065,0.54,0.02,2.01,-0.64,0.65,0.39,
3.068,0.54,0.02,2.01,-0.65,0.63,0.38,
3.069,0.54,0.02,2.01,-0.66,0.60,0.36,
3.071,0.54,0.02,2.01,-0.67,0.57,0.34,
3.088,1.14,0.32,2.04,-0.67,0.57,0.34,
3.088,1.14,0.32,2.04,-0.68,0.54,0.32,
3.089,1.14,0.32,2.04,-0.69,0.50,0.29,
3.089,1.14,0.32,2.04,-0.70,0.46,0.26,
3.089,1.14,0.32,2.04,-0.72,0.42,0.22,
3.089,1.14,0.32,2.04,-0.73,0.38,0.19,
3.09,1.65,0.59,2.08,-0.73,0.38,0.19,
3.09,1.65,0.59,2.08,-0.75,0.33,0.15,
3.09,1.65,0.59,2.08,-0.77,0.29,0.11,
3.091,1.65,0.59,2.08,-0.80,0.24,0.07,
3.091,1.65,0.59,2.08,-0.82,0.20,0.03,
3.091,1.65,0.59,2.08,-0.85,0.15,-0.01,
3.1,1.98,0.75,2.07,-0.85,0.15,-0.01,
3.1,1.98,0.75,2.07,-0.87,0.11,-0.05,
3.101,1.98,0.75,2.07,-0.90,0.07,-0.09,
3.101,1.98,0.75,2.07,-0.93,0.03,-0.14,
3.101,1.98,0.75,2.07,-0.96,-0.01,-0.18,
3.101,1.98,0.75,2.07,-0.99,-0.05,-0.22,
3.104,2.02,0.76,2.31,-0.99,-0.05,-0.22,
3.104,2.02,0.76,2.31,-1.02,-0.07,-0.26,
3.104,2.02,0.76,2.31,-1.05,-0.10,-0.29,
3.107,2.02,0.76,2.31,-1.07,-0.12,-0.32,
3.109,2.02,0.76,2.31,-1.09,-0.13,-0.36,
3.111,2.02,0.76,2.31,-1.11,-0.13,-0.39,
3.113,1.79,0.61,2.96,-1.11,-0.13,-0.39,
3.114,1.79,0.61,2.96,-1.13,-0.13,-0.41,
3.115,1.79,0.61,2.96,-1.14,-0.12,-0.43,
3.122,1.79,0.61,2.96,-1.16,-0.11,-0.45,
3.123,1.79,0.61,2.96,-1.17,-0.10,-0.47,
3.123,1.79,0.61,2.96,-1.17,-0.08,-0.47,
3.123,1.29,0.37,3.65,-1.17,-0.08,-0.47,
3.123,1.29,0.37,3.65,-1.18,-0.06,-0.48,
3.128,1.29,0.37,3.65,-1.18,-0.04,-0.48,
3.129,1.29,0.37,3.65,-1.18,-0.01,-0.48,
3.13,1.29,0.37,3.65,-1.18,0.00,-0.48,
3.131,1.29,0.37,3.65,-1.17,0.02,-0.47,
3.151,0.68,-0.01,4.31,-1.17,0.02,-0.47,
3.152,0.68,-0.01,4.31,-1.16,0.04,-0.46,
3.152,0.68,-0.01,4.31,-1.15,0.06,-0.45,
3.152,0.68,-0.01,4.31,-1.13,0.07,-0.43,
3.152,0.68,-0.01,4.31,-1.11,0.09,-0.42,
3.153,0.68,-0.01,4.31,-1.08,0.10,-0.40,
3.153,0.24,-0.36,4.97,-1.08,0.10,-0.40,
3.153,0.24,-0.36,4.97,-1.05,0.12,-0.38,
3.153,0.24,-0.36,4.97,-1.02,0.14,-0.36,
3.153,0.24,-0.36,4.97,-0.98,0.16,-0.34,
3.154,0.24,-0.36,4.97,-0.94,0.18,-0.31,
3.154,0.24,-0.36,4.97,-0.89,0.20,-0.29,
3.154,0.05,-0.66,5.49,-0.89,0.20,-0.29,
3.154,0.05,-0.66,5.49,-0.85,0.21,-0.26,
3.155,0.05,-0.66,5.49,-0.79,0.22,-0.24,
3.157,0.05,-0.66,5.49,-0.74,0.24,-0.21,
3.159,0.05,-0.66,5.49,-0.68,0.25,-0.19,
3.161,0.05,-0.66,5.49,-0.62,0.26,-0.17,
3.164,0.17,-0.87,5.55,-0.62,0.26,-0.17,
3.164,0.17,-0.87,5.55,-0.57,0.27,-0.14,
3.166,0.17,-0.87,5.55,-0.51,0.28,-0.12,
3.167,0.17,-0.87,5.55,-0.45,0.28,-0.10,
3.176,0.17,-0.87,5.55,-0.39,0.28,-0.08,
3.176,0.17,-0.87,5.55,-0.34,0.28,-0.06,
3.176,0.44,-0.89,4.94,-0.34,0.28,-0.06,
3.176,0.44,-0.89,4.94,-0.29,0.27,-0.05,
3.176,0.44,-0.89,4.94,-0.24,0.25,-0.04,
3.177,0.44,-0.89,4.94,-0.20,0.23,-0.03,
3.179,0.44,-0.89,4.94,-0.16,0.20,-0.02,
3.181,0.44,-0.89,4.94,-0.13,0.17,-0.01,
3.194,0.87,-0.62,3.70,-0.13,0.17,-0.01,
3.194,0.87,-0.62,3.70,-0.10,0.13,-0.02,
3.194,0.87,-0.62,3.70,-0.08,0.10,-0.02,
3.194,0.87,-0.62,3.70,-0.05,0.06,-0.03,
3.194,0.87,-0.62,3.70,-0.03,0.01,-0.04,
3.194,0.87,-0.62,3.70,-0.02,-0.03,-0.05,
3.195,1.48,-0.42,2.41,-0.02,-0.03,-0.05,
3.195,1.48,-0.42,2.41,-0.01,-0.07,-0.06,
3.195,1.48,-0.42,2.41,0.00,-0.12,-0.08,
3.197,1.48,-0.42,2.41,0.01,-0.16,-0.10,
3.2,1.48,-0.42,2.41,0.01,-0.20,-0.12,
3.201,1.48,-0.42,2.41,0.01,-0.24,-0.15,
3.204,1.97,-0.22,1.28,0.01,-0.24,-0.15,
3.204,1.97,-0.22,1.28,0.01,-0.27,-0.17,
3.206,1.97,-0.22,1.28,0.01,-0.31,-0.20,
3.207,1.97,-0.22,1.28,-0.00,-0.34,-0.22,
3.209,1.97,-0.22,1.28,-0.01,-0.37,-0.25,
3.211,1.97,-0.22,1.28,-0.02,-0.39,-0.27,
3.234,2.16,-0.09,0.42,-0.02,-0.39,-0.27,
3.235,2.16,-0.09,0.42,-0.03,-0.41,-0.30,
3.235,2.16,-0.09,0.42,-0.04,-0.43,-0.32,
3.235,2.16,-0.09,0.42,-0.05,-0.44,-0.34,
3.235,2.16,-0.09,0.42,-0.07,-0.46,-0.37,
3.235,2.16,-0.09,0.42,-0.08,-0.46,-0.38,
3.235,1.97,-0.02,-0.16,-0.08,-0.46,-0.38,
3.236,1.97,-0.02,-0.16,-0.09,-0.47,-0.40,
3.236,1.97,-0.02,-0.16,-0.11,-0.47,-0.42,
3.236,1.97,-0.02,-0.16,-0.12,-0.47,-0.43,
3.236,1.97,-0.02,-0.16,-0.13,-0.46,-0.45,
3.236,1.97,-0.02,-0.16,-0.14,-0.46,-0.46,
3.236,1.62,0.08,-0.57,-0.14,-0.46,-0.46,
3.236,1.62,0.08,-0.57,-0.16,-0.45,-0.47,
3.237,1.62,0.08,-0.57,-0.17,-0.44,-0.48,
3.237,1.62,0.08,-0.57,-0.18,-0.42,-0.49,
3.253,1.62,0.08,-0.57,-0.19,-0.41,-0.50,
3.253,1.62,0.08,-0.57,-0.20,-0.39,-0.50,
3.253,1.26,0.08,-0.82,-0.20,-0.39,-0.50,
3.253,1.26,0.08,-0.82,-0.21,-0.37,-0.50,
3.253,1.26,0.08,-0.82,-0.22,-0.35,-0.51,
3.254,1.26,0.08,-0.82,-0.23,-0.33,-0.51,
3.254,1.26,0.08,-0.82,-0.23,-0.31,-0.51,
3.254,1.26,0.08,-0.82,-0.24,-0.28,-0.51,
3.254,0.95,0.08,-1.01,-0.24,-0.28,-0.51,
3.254,0.95,0.08,-1.01,-0.24,-0.26,-0.51,
3.255,0.95,0.08,-1.01,-0.24,-0.24,-0.51,
3.263,0.95,0.08,-1.01,-0.23,-0.22,-0.50,
3.263,0.95,0.08,-1.01,-0.23,-0.20,-0.50,
3.263,0.95,0.08,-1.01,-0.22,-0.18,-0.50,
3.263,0.67,0.04,-1.00,-0.22,-0.18,-0.50,
3.264,0.67,0.04,-1.00,-0.21,-0.16,-0.49,
3.268,0.67,0.04,-1.00,-0.19,-0.15,-0.49,
3.268,0.67,0.04,-1.00,-0.18,-0.13,-0.48,
3.291,0.67,0.04,-1.00,-0.16,-0.12,-0.48,
3.292,0.67,0.04,-1.00,-0.14,-0.11,-0.47,
3.292,0.48,0.04,-0.92,-0.14,-0.11,-0.47,
3.292,0.48,0.04,-0.92,-0.12,-0.10,-0.47,
3.292,0.48,0.04,-0.92,-0.09,-0.10,-0.46,
3.292,0.48,0.04,-0.92,-0.07,-0.09,-0.46,
3.292,0.48,0.04,-0.92,-0.05,-0.09,-0.45,
3.292,0.48,0.04,-0.92,-0.02,-0.09,-0.44,
3.293,0.38,0.01,-0.96,-0.02,-0.09,-0.44,
3.293,0.38,0.01,-0.96,0.01,-0.09,-0.43,
3.293,0.38,0.01,-0.96,0.03,-0.09,-0.43,
3.293,0.38,0.01,-0.96,0.06,-0.09,-0.42,
3.293,0.38,0.01,-0.96,0.09,-0.10,-0.42,
3.293,0.38,0.01,-0.96,0.11,-0.11,-0.41,
3.293,0.34,0.00,-1.17,0.11,-0.11,-0.41,
3.294,0.34,0.00,-1.17,0.14,-0.12,-0.41,
3.297,0.34,0.00,-1.17,0.16,-0.13,-0.40,
3.298,0.34,0.00,-1.17,0.19,-0.14,-0.40,
3.299,0.34,0.00,-1.17,0.21,-0.15,-0.40,
3.301,0.34,0.00,-1.17,0.24,-0.17,-0.39,
3.303,0.40,0.01,-1.51,0.24,-0.17,-0.39,
3.304,0.40,0.01,-1.51,0.26,-0.18,-0.39,
3.305,0.40,0.01,-1.51,0.28,-0.19,-0.39,
3.307,0.40,0.01,-1.51,0.30,-0.21,-0.39,
3.309,0.40,0.01,-1.51,0.32,-0.22,-0.40,
3.311,0.40,0.01,-1.51,0.33,-0.23,-0.40,
3.313,0.44,0.07,-1.94,0.33,-0.23,-0.40,
3.313,0.44,0.07,-1.94,0.35,-0.24,-0.40,
3.315,0.44,0.07,-1.94,0.36,-0.25,-0.40,
3.317,0.44,0.07,-1.94,0.38,-0.26,-0.41,
3.319,0.44,0.07,-1.94,0.39,-0.27,-0.41,
3.321,0.44,0.07,-1.94,0.40,-0.28,-0.42,
3.323,0.45,0.10,-2.37,0.40,-0.28,-0.42,
3.323,0.45,0.10,-2.37,0.41,-0.29,-0.42,
3.324,0.45,0.10,-2.37,0.41,-0.30,-0.43,
3.326,0.45,0.10,-2.37,0.41,-0.30,-0.44,
3.329,0.45,0.10,-2.37,0.42,-0.31,-0.45,
3.33,0.45,0.10,-2.37,0.42,-0.32,-0.46,
3.333,0.43,0.21,-2.83,0.42,-0.32,-0.46,
3.333,0.43,0.21,-2.83,0.41,-0.32,-0.46,
3.334,0.43,0.21,-2.83,0.41,-0.33,-0.47,
3.337,0.43,0.21,-2.83,0.41,-0.33,-0.48,
3.338,0.43,0.21,-2.83,0.40,-0.34,-0.49,
3.341,0.43,0.21,-2.83,0.40,-0.34,-0.50,
3.343,0.31,0.22,-3.12,0.40,-0.34,-0.50,
3.343,0.31,0.22,-3.12,0.39,-0.34,-0.50,
3.345,0.31,0.22,-3.12,0.38,-0.34,-0.51,
3.347,0.31,0.22,-3.12,0.37,-0.34,-0.52,
3.35,0.31,0.22,-3.12,0.37,-0.34,-0.52,
3.351,0.31,0.22,-3.12,0.36,-0.34,-0.52,
3.353,0.15,0.25,-3.22,0.36,-0.34,-0.52,
3.357,0.15,0.25,-3.22,0.35,-0.33,-0.53,
3.358,0.15,0.25,-3.22,0.34,-0.33,-0.53,
3.358,0.15,0.25,-3.22,0.33,-0.32,-0.53,
3.359,0.15,0.25,-3.22,0.32,-0.32,-0.54,
3.361,0.15,0.25,-3.22,0.31,-0.31,-0.54,
3.363,0.02,0.18,-3.28,0.31,-0.31,-0.54,
3.363,0.02,0.18,-3.28,0.30,-0.31,-0.54,
3.376,0.02,0.18,-3.28,0.29,-0.30,-0.54,
3.377,0.02,0.18,-3.28,0.27,-0.29,-0.54,
3.377,0.02,0.18,-3.28,0.26,-0.28,-0.54,
3.377,0.02,0.18,-3.28,0.25,-0.28,-0.54,
3.377,-0.05,0.22,-3.33,0.25,-0.28,-0.54,
3.378,-0.05,0.22,-3.33,0.23,-0.27,-0.55,
3.378,-0.05,0.22,-3.33,0.22,-0.27,-0.55,
3.378,-0.05,0.22,-3.33,0.20,-0.26,-0.55,
3.379,-0.05,0.22,-3.33,0.19,-0.25,-0.55,
3.402,-0.05,0.22,-3.33,0.17,-0.25,-0.55,
3.402,-0.01,0.19,-3.28,0.17,-0.25,-0.55,
3.402,-0.01,0.19,-3.28,0.16,-0.24,-0.56,
3.402,-0.01,0.19,-3.28,0.14,-0.24,-0.56,
3.403,-0.01,0.19,-3.28,0.13,-0.23,-0.57,
3.403,-0.01,0.19,-3.28,0.11,-0.23,-0.57,
3.403,-0.01,0.19,-3.28,0.10,-0.22,-0.58,
3.403,0.07,0.27,-3.15,0.10,-0.22,-0.58,
3.403,0.07,0.27,-3.15,0.08,-0.21,-0.58,
3.404,0.07,0.27,-3.15,0.06,-0.20,-0.59,
3.404,0.07,0.27,-3.15,0.05,-0.19,-0.60,
3.404,0.07,0.27,-3.15,0.03,-0.18,-0.60,
3.404,0.07,0.27,-3.15,0.02,-0.17,-0.61,
3.404,0.14,0.29,-2.91,0.02,-0.17,-0.61,
3.405,0.14,0.29,-2.91,0.00,-0.16,-0.62,
3.421,0.14,0.29,-2.91,-0.01,-0.15,-0.63,
3.421,0.14,0.29,-2.91,-0.03,-0.14,-0.64,
3.421,0.14,0.29,-2.91,-0.04,-0.14,-0.65,
3.421,0.14,0.29,-2.91,-0.05,-0.13,-0.65,
3.422,0.19,0.32,-2.61,-0.05,-0.13,-0.65,
3.422,0.19,0.32,-2.61,-0.07,-0.13,-0.66,
3.422,0.19,0.32,-2.61,-0.08,-0.13,-0.67,
3.422,0.19,0.32,-2.61,-0.09,-0.13,-0.68,
3.423,0.19,0.32,-2.61,-0.11,-0.12,-0.69,
3.423,0.19,0.32,-2.61,-0.12,-0.12,-0.70,
3.423,0.12,0.32,-2.23,-0.12,-0.12,-0.70,
3.424,0.12,0.32,-2.23,-0.14,-0.12,-0.70,
3.435,0.12,0.32,-2.23,-0.15,-0.11,-0.71,
3.436,0.12,0.32,-2.23,-0.17,-0.11,-0.72,
3.437,0.12,0.32,-2.23,-0.18,-0.10,-0.72,
3.437,0.12,0.32,-2.23,-0.20,-0.10,-0.73,
3.437,-0.01,0.28,-1.92,-0.20,-0.10,-0.73,
3.437,-0.01,0.28,-1.92,-0.21,-0.10,-0.73,
3.437,-0.01,0.28,-1.92,-0.22,-0.09,-0.73,
3.438,-0.01,0.28,-1.92,-0.23,-0.09,-0.73,
3.439,-0.01,0.28,-1.92,-0.25,-0.09,-0.73,
3.441,-0.01,0.28,-1.92,-0.26,-0.09,-0.72,
3.444,-0.35,0.27,-1.43,-0.26,-0.09,-0.72,
3.444,-0.35,0.27,-1.43,-0.27,-0.09,-0.71,
3.445,-0.35,0.27,-1.43,-0.28,-0.09,-0.70,
3.447,-0.35,0.27,-1.43,-0.29,-0.08,-0.69,
3.449,-0.35,0.27,-1.43,-0.30,-0.08,-0.68,
3.452,-0.35,0.27,-1.43,-0.31,-0.07,-0.67,
3.454,-0.65,0.28,-0.86,-0.31,-0.07,-0.67,
3.454,-0.65,0.28,-0.86,-0.31,-0.07,-0.66,
3.455,-0.65,0.28,-0.86,-0.32,-0.06,-0.64,
3.457,-0.65,0.28,-0.86,-0.32,-0.05,-0.62,
3.459,-0.65,0.28,-0.86,-0.32,-0.04,-0.61,
3.461,-0.65,0.28,-0.86,-0.32,-0.02,-0.59,
3.463,-0.90,0.28,-0.22,-0.32,-0.02,-0.59,
3.464,-0.90,0.28,-0.22,-0.32,-0.01,-0.57,
3.465,-0.90,0.28,-0.22,-0.32,0.00,-0.55,
3.468,-0.90,0.28,-0.22,-0.31,0.02,-0.53,
3.469,-0.90,0.28,-0.22,-0.30,0.04,-0.51,
3.471,-0.90,0.28,-0.22,-0.30,0.06,-0.49,
3.473,-1.06,0.32,0.32,-0.30,0.06,-0.49,
3.474,-1.06,0.32,0.32,-0.29,0.08,-0.47,
3.475,-1.06,0.32,0.32,-0.28,0.10,-0.45,
3.477,-1.06,0.32,0.32,-0.27,0.12,-0.43,
3.479,-1.06,0.32,0.32,-0.26,0.14,-0.41,
3.482,-1.06,0.32,0.32,-0.25,0.17,-0.39,
3.484,-1.00,0.37,0.63,-0.25,0.17,-0.39,
3.484,-1.00,0.37,0.63,-0.24,0.19,-0.37,
3.485,-1.00,0.37,0.63,-0.23,0.20,-0.36,
3.487,-1.00,0.37,0.63,-0.22,0.22,-0.34,
3.489,-1.00,0.37,0.63,-0.21,0.24,-0.32,
3.491,-1.00,0.37,0.63,-0.20,0.25,-0.31,
3.493,-0.88,0.49,0.85,-0.20,0.25,-0.31,
3.494,-0.88,0.49,0.85,-0.19,0.26,-0.29,
3.495,-0.88,0.49,0.85,-0.18,0.27,-0.28,
3.497,-0.88,0.49,0.85,-0.17,0.28,-0.26,
3.499,-0.88,0.49,0.85,-0.16,0.29,-0.25,
3.501,-0.88,0.49,0.85,-0.15,0.30,-0.24,
3.504,-0.71,0.64,1.02,-0.15,0.30,-0.24,
3.504,-0.71,0.64,1.02,-0.14,0.30,-0.23,
3.505,-0.71,0.64,1.02,-0.13,0.31,-0.22,
3.507,-0.71,0.64,1.02,-0.12,0.30,-0.21,
3.509,-0.71,0.64,1.02,-0.11,0.30,-0.20,
3.511,-0.71,0.64,1.02,-0.09,0.29,-0.19,
3.513,-0.57,0.73,1.19,-0.09,0.29,-0.19,
3.513,-0.57,0.73,1.19,-0.08,0.28,-0.18,
3.518,-0.57,0.73,1.19,-0.07,0.26,-0.18,
3.519,-0.57,0.73,1.19,-0.06,0.25,-0.17,
3.521,-0.57,0.73,1.19,-0.05,0.23,-0.17,
3.521,-0.57,0.73,1.19,-0.04,0.21,-0.17,
3.568,-0.36,0.74,1.46,-0.04,0.21,-0.17,
3.569,-0.36,0.74,1.46,-0.02,0.19,-0.16,
3.569,-0.36,0.74,1.46,-0.01,0.17,-0.16,
3.569,-0.36,0.74,1.46,0.00,0.15,-0.16,
3.569,-0.36,0.74,1.46,0.02,0.14,-0.16,
3.569,-0.36,0.74,1.46,0.04,0.12,-0.16,
3.569,-0.23,0.76,1.88,0.04,0.12,-0.16,
3.569,-0.23,0.76,1.88,0.06,0.10,-0.16,
3.57,-0.23,0.76,1.88,0.07,0.09,-0.16,
3.57,-0.23,0.76,1.88,0.09,0.08,-0.16,
3.57,-0.23,0.76,1.88,0.11,0.07,-0.16,
3.57,-0.23,0.76,1.88,0.13,0.06,-0.16,
3.57,-0.19,0.69,2.32,0.13,0.06,-0.16,
3.57,-0.19,0.69,2.32,0.15,0.06,-0.16,
3.57,-0.19,0.69,2.32,0.17,0.05,-0.16,
3.571,-0.19,0.69,2.32,0.19,0.05,-0.15,
3.571,-0.19,0.69,2.32,0.20,0.04,-0.14,
3.571,-0.19,0.69,2.32,0.22,0.04,-0.14,
3.571,-0.24,0.61,2.53,0.22,0.04,-0.14,
3.571,-0.24,0.61,2.53,0.23,0.04,-0.13,
3.571,-0.24,0.61,2.53,0.24,0.03,-0.13,
3.571,-0.24,0.61,2.53,0.25,0.03,-0.12,
3.572,-0.24,0.61,2.53,0.27,0.02,-0.11,
3.572,-0.24,0.61,2.53,0.27,0.02,-0.10,
3.572,-0.27,0.49,2.50,0.27,0.02,-0.10,
3.572,-0.27,0.49,2.50,0.28,0.01,-0.09,
3.572,-0.27,0.49,2.50,0.29,0.01,-0.08,
3.572,-0.27,0.49,2.50,0.30,0.01,-0.07,
3.572,-0.27,0.49,2.50,0.31,0.01,-0.06,
3.573,-0.27,0.49,2.50,0.31,0.02,-0.05,
3.589,-0.26,0.55,2.36,0.31,0.02,-0.05,
3.589,-0.26,0.55,2.36,0.31,0.02,-0.04,
3.589,-0.26,0.55,2.36,0.31,0.02,-0.04,
3.589,-0.26,0.55,2.36,0.30,0.02,-0.04,
3.589,-0.26,0.55,2.36,0.29,0.02,-0.04,
3.59,-0.26,0.55,2.36,0.28,0.01,-0.04,
3.59,-0.07,0.59,1.94,0.28,0.01,-0.04,
3.59,-0.07,0.59,1.94,0.26,0.00,-0.04,
3.59,-0.07,0.59,1.94,0.25,-0.01,-0.04,
3.59,-0.07,0.59,1.94,0.22,-0.03,-0.04,
3.591,-0.07,0.59,1.94,0.20,-0.04,-0.05,
3.591,-0.07,0.59,1.94,0.16,-0.06,-0.06,
3.599,0.18,0.68,1.51,0.16,-0.06,-0.06,
3.599,0.18,0.68,1.51,0.13,-0.07,-0.06,
3.599,0.18,0.68,1.51,0.10,-0.08,-0.07,
3.599,0.18,0.68,1.51,0.06,-0.09,-0.08,
3.599,0.18,0.68,1.51,0.02,-0.10,-0.10,
3.601,0.18,0.68,1.51,-0.02,-0.10,-0.11,
3.603,0.55,0.73,1.35,-0.02,-0.10,-0.11,
3.604,0.55,0.73,1.35,-0.06,-0.11,-0.13,
3.605,0.55,0.73,1.35,-0.10,-0.10,-0.15,
3.608,0.55,0.73,1.35,-0.13,-0.10,-0.17,
3.611,0.55,0.73,1.35,-0.16,-0.10,-0.20,
3.611,0.55,0.73,1.35,-0.20,-0.09,-0.22,
3.615,0.76,0.77,1.65,-0.20,-0.09,-0.22,
3.615,0.76,0.77,1.65,-0.23,-0.08,-0.24,
3.616,0.76,0.77,1.65,-0.25,-0.06,-0.27,
3.617,0.76,0.77,1.65,-0.28,-0.04,-0.29,
3.619,0.76,0.77,1.65,-0.30,-0.02,-0.31,
3.621,0.76,0.77,1.65,-0.32,-0.00,-0.33,
3.623,0.68,0.88,2.21,-0.32,-0.00,-0.33,
3.623,0.68,0.88,2.21,-0.34,0.02,-0.36,
3.624,0.68,0.88,2.21,-0.35,0.05,-0.38,
3.627,0.68,0.88,2.21,-0.37,0.08,-0.40,
3.628,0.68,0.88,2.21,-0.38,0.11,-0.42,
3.634,0.68,0.88,2.21,-0.39,0.14,-0.44,
3.634,0.46,0.69,2.62,-0.39,0.14,-0.44,
3.634,0.46,0.69,2.62,-0.40,0.18,-0.46,
3.634,0.46,0.69,2.62,-0.41,0.21,-0.47,
3.641,0.46,0.69,2.62,-0.41,0.25,-0.48,
3.641,0.46,0.69,2.62,-0.42,0.29,-0.49,
3.643,0.46,0.69,2.62,-0.42,0.33,-0.50,
3.644,-0.03,0.33,2.89,-0.42,0.33,-0.50,
3.645,-0.03,0.33,2.89,-0.42,0.37,-0.50,
3.645,-0.03,0.33,2.89,-0.41,0.41,-0.50,
3.655,-0.03,0.33,2.89,-0.40,0.46,-0.50,
3.656,-0.03,0.33,2.89,-0.39,0.50,-0.49,
3.656,-0.03,0.33,2.89,-0.37,0.55,-0.48,
3.656,-0.68,-0.05,3.23,-0.37,0.55,-0.48,
3.656,-0.68,-0.05,3.23,-0.35,0.60,-0.47,
3.656,-0.68,-0.05,3.23,-0.33,0.65,-0.45,
3.657,-0.68,-0.05,3.23,-0.30,0.69,-0.43,
3.659,-0.68,-0.05,3.23,-0.28,0.73,-0.41,
3.66,-0.68,-0.05,3.23,-0.25,0.77,-0.39,
3.663,-1.37,-0.41,3.31,-0.25,0.77,-0.39,
3.664,-1.37,-0.41,3.31,-0.23,0.81,-0.37,
3.665,-1.37,-0.41,3.31,-0.20,0.84,-0.34,
3.667,-1.37,-0.41,3.31,-0.17,0.87,-0.32,
3.669,-1.37,-0.41,3.31,-0.15,0.90,-0.29,
3.671,-1.37,-0.41,3.31,-0.12,0.93,-0.25,
3.673,-2.25,-0.69,3.03,-0.12,0.93,-0.25,
3.674,-2.25,-0.69,3.03,-0.10,0.95,-0.22,
3.675,-2.25,-0.69,3.03,-0.07,0.97,-0.18,
3.676,-2.25,-0.69,3.03,-0.05,0.99,-0.14,
3.679,-2.25,-0.69,3.03,-0.03,1.01,-0.10,
3.681,-2.25,-0.69,3.03,-0.01,1.02,-0.05,
3.683,-3.07,-0.58,2.55,-0.01,1.02,-0.05,
3.683,-3.07,-0.58,2.55,-0.00,1.03,-0.01,
3.685,-3.07,-0.58,2.55,0.01,1.02,0.03,
3.687,-3.07,-0.58,2.55,0.02,1.02,0.07,
3.689,-3.07,-0.58,2.55,0.02,1.02,0.11,
3.691,-3.07,-0.58,2.55,0.02,1.01,0.14,
3.694,-3.21,-0.57,1.92,0.02,1.01,0.14,
3.694,-3.21,-0.57,1.92,0.01,1.00,0.17,
3.695,-3.21,-0.57,1.92,0.01,0.98,0.20,
3.697,-3.21,-0.57,1.92,0.00,0.97,0.23,
3.699,-3.21,-0.57,1.92,-0.01,0.95,0.25,
3.701,-3.21,-0.57,1.92,-0.02,0.93,0.27,
3.704,-2.87,-0.41,1.44,-0.02,0.93,0.27,
3.704,-2.87,-0.41,1.44,-0.03,0.90,0.29,
3.705,-2.87,-0.41,1.44,-0.04,0.88,0.31,
3.707,-2.87,-0.41,1.44,-0.05,0.85,0.32,
3.711,-2.87,-0.41,1.44,-0.06,0.81,0.33,
3.711,-2.87,-0.41,1.44,-0.08,0.77,0.34,
3.742,-2.41,-0.17,1.24,-0.08,0.77,0.34,
3.743,-2.41,-0.17,1.24,-0.10,0.72,0.34,
3.743,-2.41,-0.17,1.24,-0.12,0.67,0.34,
3.743,-2.41,-0.17,1.24,-0.14,0.62,0.34,
3.744,-2.41,-0.17,1.24,-0.16,0.57,0.34,
3.744,-2.41,-0.17,1.24,-0.18,0.52,0.33,
3.744,-1.71,-0.08,1.12,-0.18,0.52,0.33,
3.744,-1.71,-0.08,1.12,-0.20,0.47,0.32,
3.745,-1.71,-0.08,1.12,-0.23,0.42,0.31,
3.745,-1.71,-0.08,1.12,-0.25,0.36,0.30,
3.745,-1.71,-0.08,1.12,-0.27,0.31,0.29,
3.746,-1.71,-0.08,1.12,-0.29,0.27,0.27,
3.746,-1.35,-0.02,1.24,-0.29,0.27,0.27,
3.746,-1.35,-0.02,1.24,-0.31,0.22,0.26,
3.746,-1.35,-0.02,1.24,-0.33,0.17,0.25,
3.747,-1.35,-0.02,1.24,-0.35,0.13,0.24,
3.764,-1.35,-0.02,1.24,-0.37,0.09,0.23,
3.765,-1.35,-0.02,1.24,-0.38,0.05,0.22,
3.765,-1.18,-0.06,1.67,-0.38,0.05,0.22,
3.765,-1.18,-0.06,1.67,-0.40,0.01,0.21,
3.765,-1.18,-0.06,1.67,-0.41,-0.02,0.21,
3.766,-1.18,-0.06,1.67,-0.41,-0.05,0.21,
3.766,-1.18,-0.06,1.67,-0.42,-0.07,0.20,
3.766,-1.18,-0.06,1.67,-0.42,-0.09,0.20,
3.766,-1.17,-0.30,2.19,-0.42,-0.09,0.20,
3.767,-1.17,-0.30,2.19,-0.42,-0.10,0.20,
3.767,-1.17,-0.30,2.19,-0.42,-0.11,0.20,
3.767,-1.17,-0.30,2.19,-0.42,-0.12,0.20,
3.768,-1.17,-0.30,2.19,-0.41,-0.12,0.20,
3.768,-1.17,-0.30,2.19,-0.41,-0.11,0.21,
3.768,-1.18,-0.46,2.53,-0.41,-0.11,0.21,
3.768,-1.18,-0.46,2.53,-0.40,-0.10,0.21,
3.769,-1.18,-0.46,2.53,-0.39,-0.09,0.22,
3.769,-1.18,-0.46,2.53,-0.38,-0.07,0.23,
3.769,-1.18,-0.46,2.53,-0.36,-0.06,0.24,
3.783,-1.18,-0.46,2.53,-0.36,-0.04,0.25,
3.783,-1.17,-0.69,2.55,-0.36,-0.04,0.25,
3.783,-1.17,-0.69,2.55,-0.34,-0.02,0.26,
3.784,-1.17,-0.69,2.55,-0.33,-0.00,0.27,
3.784,-1.17,-0.69,2.55,-0.32,0.02,0.28,
3.784,-1.17,-0.69,2.55,-0.30,0.04,0.28,
3.784,-1.17,-0.69,2.55,-0.29,0.06,0.29,
3.795,-0.98,-0.83,2.27,-0.29,0.06,0.29,
3.795,-0.98,-0.83,2.27,-0.28,0.08,0.30,
3.795,-0.98,-0.83,2.27,-0.24,0.14,0.31,
3.801,-0.98,-0.83,2.27,-0.22,0.16,0.32,
3.801,-0.98,-0.83,2.27,-0.22,0.16,0.32,
3.802,-0.72,-0.95,1.73,-0.22,0.16,0.32,
3.802,-0.72,-0.95,1.73,-0.21,0.17,0.32,
3.802,-0.72,-0.95,1.73,-0.20,0.18,0.33,
3.802,-0.72,-0.95,1.73,-0.20,0.18,0.33,
3.803,-0.72,-0.95,1.73,-0.18,0.19,0.33,
3.811,-0.72,-0.95,1.73,-0.16,0.20,0.33,
3.811,-0.72,-0.95,1.73,-0.15,0.21,0.33,
3.811,-0.44,-0.87,1.15,-0.15,0.21,0.33,
3.812,-0.44,-0.87,1.15,-0.13,0.21,0.33,
3.812,-0.44,-0.87,1.15,-0.12,0.22,0.33,
3.823,-0.44,-0.87,1.15,-0.10,0.22,0.33,
3.823,-0.44,-0.87,1.15,-0.07,0.22,0.32,
3.824,-0.44,-0.87,1.15,-0.06,0.22,0.32,
3.824,-0.23,-0.80,0.49,-0.06,0.22,0.32,
3.824,-0.23,-0.80,0.49,-0.05,0.22,0.32,
3.824,-0.23,-0.80,0.49,-0.03,0.22,0.31,
3.825,-0.23,-0.80,0.49,-0.01,0.22,0.31,
3.825,-0.23,-0.80,0.49,0.01,0.22,0.31,
3.825,-0.23,-0.80,0.49,0.03,0.21,0.30,
3.825,-0.14,-0.63,-0.18,0.03,0.21,0.30,
3.825,-0.14,-0.63,-0.18,0.04,0.21,0.30,
3.857,-0.14,-0.63,-0.18,0.06,0.20,0.30,
3.857,-0.14,-0.63,-0.18,0.08,0.19,0.30,
3.857,-0.14,-0.63,-0.18,0.10,0.18,0.29,
3.857,-0.14,-0.63,-0.18,0.11,0.17,0.29,
3.858,-0.17,-0.54,-1.01,0.11,0.17,0.29,
3.858,-0.17,-0.54,-1.01,0.13,0.16,0.29,
3.858,-0.17,-0.54,-1.01,0.14,0.14,0.29,
3.858,-0.17,-0.54,-1.01,0.15,0.12,0.29,
3.858,-0.17,-0.54,-1.01,0.16,0.10,0.28,
3.859,-0.17,-0.54,-1.01,0.17,0.08,0.29,
3.859,-0.25,-0.45,-1.82,0.17,0.08,0.29,
3.859,-0.25,-0.45,-1.82,0.17,0.06,0.29,
3.859,-0.25,-0.45,-1.82,0.18,0.04,0.28,
3.859,-0.25,-0.45,-1.82,0.18,0.02,0.28,
3.86,-0.25,-0.45,-1.82,0.18,-0.01,0.28,
3.86,-0.25,-0.45,-1.82,0.19,-0.03,0.28,
3.86,-0.39,-0.35,-2.51,0.19,-0.03,0.28,
3.86,-0.39,-0.35,-2.51,0.19,-0.05,0.29,
3.86,-0.39,-0.35,-2.51,0.19,-0.07,0.29,
3.86,-0.39,-0.35,-2.51,0.18,-0.10,0.29,
3.861,-0.39,-0.35,-2.51,0.18,-0.12,0.29,
3.865,-0.39,-0.35,-2.51,0.18,-0.13,0.30,
3.865,-0.57,-0.34,-2.96,0.18,-0.13,0.30,
3.865,-0.57,-0.34,-2.96,0.18,-0.16,0.30,
3.866,-0.57,-0.34,-2.96,0.17,-0.17,0.31,
3.867,-0.57,-0.34,-2.96,0.17,-0.19,0.32,
3.869,-0.57,-0.34,-2.96,0.17,-0.20,0.33,
3.871,-0.57,-0.34,-2.96,0.17,-0.22,0.34,
3.874,-0.79,-0.40,-3.10,0.17,-0.22,0.34,
3.874,-0.79,-0.40,-3.10,0.17,-0.23,0.35,
3.875,-0.79,-0.40,-3.10,0.17,-0.25,0.37,
3.877,-0.79,-0.40,-3.10,0.17,-0.26,0.38,
3.904,-0.79,-0.40,-3.10,0.17,-0.27,0.39,
3.905,-0.79,-0.40,-3.10,0.18,-0.28,0.41,
3.905,-0.81,-0.61,-2.97,0.18,-0.28,0.41,
3.905,-0.81,-0.61,-2.97,0.18,-0.28,0.43,
3.905,-0.81,-0.61,-2.97,0.19,-0.28,0.44,
3.905,-0.81,-0.61,-2.97,0.20,-0.28,0.45,
3.905,-0.81,-0.61,-2.97,0.21,-0.28,0.47,
3.905,-0.81,-0.61,-2.97,0.22,-0.28,0.48,
3.906,-0.68,-0.79,-2.69,0.22,-0.28,0.48,
3.906,-0.68,-0.79,-2.69,0.24,-0.27,0.50,
3.906,-0.68,-0.79,-2.69,0.25,-0.27,0.51,
3.906,-0.68,-0.79,-2.69,0.27,-0.26,0.52,
3.906,-0.68,-0.79,-2.69,0.28,-0.26,0.53,
3.906,-0.68,-0.79,-2.69,0.30,-0.25,0.55,
3.906,-0.39,-0.87,-2.43,0.30,-0.25,0.55,
3.907,-0.39,-0.87,-2.43,0.32,-0.25,0.56,
3.923,-0.39,-0.87,-2.43,0.34,-0.24,0.56,
3.924,-0.39,-0.87,-2.43,0.36,-0.24,0.57,
3.924,-0.39,-0.87,-2.43,0.37,-0.24,0.58,
3.924,-0.39,-0.87,-2.43,0.39,-0.24,0.58,
3.924,-0.13,-0.92,-2.26,0.39,-0.24,0.58,
3.924,-0.13,-0.92,-2.26,0.42,-0.24,0.59,
3.925,-0.13,-0.92,-2.26,0.44,-0.24,0.59,
3.925,-0.13,-0.92,-2.26,0.46,-0.24,0.60,
3.925,-0.13,-0.92,-2.26,0.48,-0.25,0.60,
3.925,-0.13,-0.92,-2.26,0.50,-0.25,0.61,
3.925,-0.00,-0.91,-2.23,0.50,-0.25,0.61,
3.925,-0.00,-0.91,-2.23,0.51,-0.26,0.61,
3.926,-0.00,-0.91,-2.23,0.53,-0.27,0.62,
3.933,-0.00,-0.91,-2.23,0.55,-0.28,0.62,
3.933,-0.00,-0.91,-2.23,0.57,-0.28,0.62,
3.934,-0.00,-0.91,-2.23,0.58,-0.29,0.62,
3.935,0.14,-0.89,-2.37,0.58,-0.29,0.62,
3.935,0.14,-0.89,-2.37,0.60,-0.29,0.62,
3.935,0.14,-0.89,-2.37,0.61,-0.30,0.62,
3.937,0.14,-0.89,-2.37,0.62,-0.31,0.63,
3.939,0.14,-0.89,-2.37,0.63,-0.32,0.63,
3.941,0.14,-0.89,-2.37,0.63,-0.33,0.63,
3.944,0.23,-0.85,-2.61,0.63,-0.33,0.63,
3.944,0.23,-0.85,-2.61,0.64,-0.34,0.63,
3.948,0.23,-0.85,-2.61,0.64,-0.34,0.62,
3.949,0.23,-0.85,-2.61,0.64,-0.36,0.62,
3.949,0.23,-0.85,-2.61,0.64,-0.37,0.62,
3.957,0.23,-0.85,-2.61,0.63,-0.38,0.62,
3.957,0.27,-0.83,-2.87,0.63,-0.38,0.62,
3.957,0.27,-0.83,-2.87,0.63,-0.39,0.62,
3.957,0.27,-0.83,-2.87,0.63,-0.40,0.62,
3.959,0.27,-0.83,-2.87,0.61,-0.41,0.61,
3.959,0.27,-0.83,-2.87,0.61,-0.42,0.61,
3.975,0.27,-0.83,-2.87,0.60,-0.42,0.60,
3.976,0.37,-0.83,-2.95,0.60,-0.42,0.60,
3.976,0.37,-0.83,-2.95,0.59,-0.43,0.60,
3.976,0.37,-0.83,-2.95,0.58,-0.43,0.60,
3.976,0.37,-0.83,-2.95,0.57,-0.44,0.59,
3.976,0.37,-0.83,-2.95,0.56,-0.44,0.59,
3.976,0.37,-0.83,-2.95,0.56,-0.44,0.58,
3.976,0.45,-0.82,-2.82,0.56,-0.44,0.58,
3.977,0.45,-0.82,-2.82,0.55,-0.45,0.58,
3.977,0.45,-0.82,-2.82,0.54,-0.45,0.58,
3.977,0.45,-0.82,-2.82,0.54,-0.45,0.57,
3.98,0.45,-0.82,-2.82,0.53,-0.44,0.57,
3.981,0.45,-0.82,-2.82,0.53,-0.44,0.57,
3.983,0.46,-0.84,-2.59,0.53,-0.44,0.57,
3.984,0.46,-0.84,-2.59,0.52,-0.44,0.56,
3.985,0.46,-0.84,-2.59,0.52,-0.44,0.56,
3.987,0.46,-0.84,-2.59,0.51,-0.43,0.55,
3.989,0.46,-0.84,-2.59,0.51,-0.43,0.55,
3.991,0.46,-0.84,-2.59,0.50,-0.42,0.54,
3.993,0.49,-0.83,-2.41,0.50,-0.42,0.54,
3.993,0.49,-0.83,-2.41,0.50,-0.42,0.53,
3.995,0.49,-0.83,-2.41,0.49,-0.41,0.52,
3.997,0.49,-0.83,-2.41,0.49,-0.41,0.52,
3.999,0.49,-0.83,-2.41,0.48,-0.40,0.51,
4.004,0.49,-0.83,-2.41,0.48,-0.39,0.50,
4.004,0.52,-0.84,-2.16,0.48,-0.39,0.50,
4.004,0.52,-0.84,-2.16,0.48,-0.39,0.49,
4.005,0.52,-0.84,-2.16,0.48,-0.38,0.49,
4.006,0.52,-0.84,-2.16,0.47,-0.37,0.48,
4.009,0.52,-0.84,-2.16,0.47,-0.36,0.47,
4.011,0.52,-0.84,-2.16,0.46,-0.36,0.46,
4.013,0.57,-0.94,-1.97,0.46,-0.36,0.46,
4.013,0.57,-0.94,-1.97,0.46,-0.35,0.46,
4.015,0.57,-0.94,-1.97,0.45,-0.35,0.45,
4.017,0.57,-0.94,-1.97,0.45,-0.35,0.44,
4.02,0.57,-0.94,-1.97,0.45,-0.34,0.43,
4.021,0.57,-0.94,-1.97,0.44,-0.34,0.43,
4.023,0.47,-0.98,-1.80,0.44,-0.34,0.43,
4.024,0.47,-0.98,-1.80,0.44,-0.34,0.42,
4.025,0.47,-0.98,-1.80,0.43,-0.34,0.42,
4.027,0.47,-0.98,-1.80,0.43,-0.34,0.41,
4.029,0.47,-0.98,-1.80,0.43,-0.34,0.40,
4.031,0.47,-0.98,-1.80,0.43,-0.34,0.40,
4.034,0.36,-0.95,-1.50,0.43,-0.34,0.40,
4.034,0.36,-0.95,-1.50,0.42,-0.35,0.40,
4.035,0.36,-0.95,-1.50,0.42,-0.35,0.39,
4.037,0.36,-0.95,-1.50,0.42,-0.35,0.39,
4.039,0.36,-0.95,-1.50,0.42,-0.36,0.38,
4.041,0.36,-0.95,-1.50,0.42,-0.37,0.38,
4.044,0.42,-0.95,-1.17,0.42,-0.37,0.38,
4.044,0.42,-0.95,-1.17,0.42,-0.37,0.37,
4.084,0.42,-0.95,-1.17,0.42,-0.38,0.37,
4.085,0.42,-0.95,-1.17,0.41,-0.39,0.36,
4.085,0.42,-0.95,-1.17,0.41,-0.39,0.35,
4.085,0.42,-0.95,-1.17,0.41,-0.39,0.34,
4.085,0.56,-0.92,-0.93,0.41,-0.39,0.34,
4.086,0.56,-0.92,-0.93,0.40,-0.39,0.33,
4.086,0.56,-0.92,-0.93,0.40,-0.39,0.32,
4.086,0.56,-0.92,-0.93,0.39,-0.38,0.31,
4.087,0.56,-0.92,-0.93,0.38,-0.38,0.30,
4.087,0.56,-0.92,-0.93,0.37,-0.38,0.29,
4.087,0.57,-0.90,-0.74,0.37,-0.38,0.29,
4.087,0.57,-0.90,-0.74,0.36,-0.37,0.28,
4.088,0.57,-0.90,-0.74,0.35,-0.36,0.27,
4.088,0.57,-0.90,-0.74,0.34,-0.35,0.26,
4.088,0.57,-0.90,-0.74,0.33,-0.34,0.25,
4.089,0.57,-0.90,-0.74,0.32,-0.32,0.24,
4.114,0.60,-0.87,-0.58,0.32,-0.32,0.24,
4.114,0.60,-0.87,-0.58,0.31,-0.31,0.23,
4.115,0.60,-0.87,-0.58,0.29,-0.29,0.22,
4.115,0.60,-0.87,-0.58,0.28,-0.26,0.22,
4.116,0.60,-0.87,-0.58,0.26,-0.25,0.21,
4.116,0.60,-0.87,-0.58,0.24,-0.22,0.20,
4.117,0.50,-0.78,-0.55,0.24,-0.22,0.20,
4.117,0.50,-0.78,-0.55,0.22,-0.20,0.20,
4.117,0.50,-0.78,-0.55,0.20,-0.17,0.19,
4.118,0.50,-0.78,-0.55,0.17,-0.14,0.18,
4.118,0.50,-0.78,-0.55,0.15,-0.11,0.18,
4.119,0.50,-0.78,-0.55,0.12,-0.08,0.17,
4.119,0.43,-0.71,-0.64,0.12,-0.08,0.17,
4.12,0.43,-0.71,-0.64,0.10,-0.05,0.16,
4.12,0.43,-0.71,-0.64,0.07,-0.01,0.15,
4.12,0.43,-0.71,-0.64,0.04,0.02,0.15,
4.121,0.43,-0.71,-0.64,0.00,0.06,0.14,
4.121,0.43,-0.71,-0.64,-0.03,0.09,0.13,
4.122,0.36,-0.63,-0.83,-0.03,0.09,0.13,
4.122,0.36,-0.63,-0.83,-0.07,0.13,0.12,
4.123,0.36,-0.63,-0.83,-0.11,0.16,0.12,
4.123,0.36,-0.63,-0.83,-0.15,0.20,0.11,
4.123,0.36,-0.63,-0.83,-0.19,0.23,0.11,
4.124,0.36,-0.63,-0.83,-0.23,0.27,0.10,
4.124,0.31,-0.54,-0.88,-0.23,0.27,0.10,
4.125,0.31,-0.54,-0.88,-0.27,0.30,0.09,
4.125,0.31,-0.54,-0.88,-0.31,0.34,0.09,
4.125,0.31,-0.54,-0.88,-0.35,0.37,0.08,
4.126,0.31,-0.54,-0.88,-0.39,0.41,0.08,
4.126,0.31,-0.54,-0.88,-0.43,0.44,0.07,
4.127,0.16,-0.49,-0.61,-0.43,0.44,0.07,
4.127,0.16,-0.49,-0.61,-0.47,0.48,0.07,
4.145,0.16,-0.49,-0.61,-0.50,0.51,0.07,
4.145,0.16,-0.49,-0.61,-0.54,0.54,0.08,
4.145,0.16,-0.49,-0.61,-0.57,0.57,0.08,
4.145,0.16,-0.49,-0.61,-0.60,0.61,0.09,
4.146,-0.12,-0.47,-0.11,-0.60,0.61,0.09,
4.146,-0.12,-0.47,-0.11,-0.62,0.64,0.09,
4.146,-0.12,-0.47,-0.11,-0.65,0.67,0.10,
4.146,-0.12,-0.47,-0.11,-0.67,0.70,0.11,
4.146,-0.12,-0.47,-0.11,-0.69,0.74,0.12,
4.147,-0.12,-0.47,-0.11,-0.71,0.77,0.14,
4.147,-0.45,-0.38,0.49,-0.71,0.77,0.14,
4.147,-0.45,-0.38,0.49,-0.73,0.80,0.15,
4.147,-0.45,-0.38,0.49,-0.74,0.82,0.17,
4.148,-0.45,-0.38,0.49,-0.76,0.85,0.19,
4.152,-0.45,-0.38,0.49,-0.78,0.86,0.21,
4.152,-0.45,-0.38,0.49,-0.80,0.88,0.23,
4.155,-0.67,-0.49,0.87,-0.80,0.88,0.23,
4.155,-0.67,-0.49,0.87,-0.82,0.89,0.26,
4.157,-0.67,-0.49,0.87,-0.84,0.89,0.28,
4.158,-0.67,-0.49,0.87,-0.87,0.89,0.30,
4.162,-0.67,-0.49,0.87,-0.89,0.88,0.33,
4.163,-0.67,-0.49,0.87,-0.92,0.86,0.35,
4.169,-0.71,-0.65,1.20,-0.92,0.86,0.35,
4.169,-0.71,-0.65,1.20,-0.94,0.85,0.38,
4.17,-0.71,-0.65,1.20,-0.97,0.84,0.40,
4.17,-0.71,-0.65,1.20,-1.00,0.82,0.42,
4.172,-0.71,-0.65,1.20,-1.03,0.80,0.45,
4.172,-0.71,-0.65,1.20,-1.06,0.79,0.47,
4.174,-0.66,-0.77,1.83,-1.06,0.79,0.47,
4.18,-0.66,-0.77,1.83,-1.09,0.77,0.49,
4.18,-0.66,-0.77,1.83,-1.12,0.76,0.51,
4.18,-0.66,-0.77,1.83,-1.15,0.75,0.52,
4.18,-0.66,-0.77,1.83,-1.18,0.74,0.54,
4.182,-0.66,-0.77,1.83,-1.21,0.73,0.56,
4.185,-0.46,-0.63,2.76,-1.21,0.73,0.56,
4.185,-0.46,-0.63,2.76,-1.25,0.72,0.57,
4.186,-0.46,-0.63,2.76,-1.28,0.70,0.58,
4.187,-0.46,-0.63,2.76,-1.31,0.69,0.59,
4.189,-0.46,-0.63,2.76,-1.34,0.68,0.60,
4.191,-0.46,-0.63,2.76,-1.37,0.67,0.60,
4.193,-0.07,-0.26,3.97,-1.37,0.67,0.60,
4.194,-0.07,-0.26,3.97,-1.40,0.67,0.60,
4.198,-0.07,-0.26,3.97,-1.43,0.67,0.60,
4.199,-0.07,-0.26,3.97,-1.45,0.68,0.60,
4.2,-0.07,-0.26,3.97,-1.47,0.69,0.59,
4.201,-0.07,-0.26,3.97,-1.49,0.70,0.58,
4.206,0.43,-0.05,5.32,-1.49,0.70,0.58,
4.207,0.43,-0.05,5.32,-1.51,0.72,0.57,
4.208,0.43,-0.05,5.32,-1.51,0.74,0.55,
4.208,0.43,-0.05,5.32,-1.51,0.76,0.53,
4.209,0.43,-0.05,5.32,-1.51,0.80,0.50,
4.246,0.43,-0.05,5.32,-1.49,0.84,0.48,
4.246,1.14,-0.39,7.04,-1.49,0.84,0.48,
4.246,1.14,-0.39,7.04,-1.46,0.90,0.45,
4.247,1.14,-0.39,7.04,-1.43,0.96,0.43,
4.247,1.14,-0.39,7.04,-1.39,1.04,0.41,
4.247,1.14,-0.39,7.04,-1.33,1.12,0.40,
4.247,1.14,-0.39,7.04,-1.27,1.20,0.38,
4.247,1.05,-0.57,8.66,-1.27,1.20,0.38,
4.248,1.05,-0.57,8.66,-1.20,1.28,0.37,
4.248,1.05,-0.57,8.66,-1.12,1.35,0.36,
4.248,1.05,-0.57,8.66,-1.03,1.43,0.36,
4.248,1.05,-0.57,8.66,-0.94,1.50,0.36,
4.248,1.05,-0.57,8.66,-0.84,1.57,0.37,
4.249,0.51,-0.76,9.46,-0.84,1.57,0.37,
4.249,0.51,-0.76,9.46,-0.69,1.68,0.38,
4.249,0.51,-0.76,9.46,-0.58,1.74,0.40,
4.249,0.51,-0.76,9.46,-0.53,1.77,0.41,
4.266,0.51,-0.76,9.46,-0.43,1.82,0.43,
4.266,0.51,-0.76,9.46,-0.33,1.87,0.45,
4.267,-0.19,-0.81,8.86,-0.33,1.87,0.45,
4.267,-0.19,-0.81,8.86,-0.23,1.91,0.48,
4.267,-0.19,-0.81,8.86,-0.14,1.94,0.51,
4.267,-0.19,-0.81,8.86,-0.05,1.97,0.54,
4.267,-0.19,-0.81,8.86,0.03,1.98,0.57,
4.268,-0.19,-0.81,8.86,0.11,1.99,0.61,
4.268,-0.64,-0.92,7.09,0.11,1.99,0.61,
4.268,-0.64,-0.92,7.09,0.19,2.00,0.64,
4.268,-0.64,-0.92,7.09,0.26,1.99,0.68,
4.268,-0.64,-0.92,7.09,0.33,1.97,0.71,
4.269,-0.64,-0.92,7.09,0.40,1.95,0.74,
4.269,-0.64,-0.92,7.09,0.45,1.92,0.77,
4.269,-0.69,-0.88,4.94,0.45,1.92,0.77,
4.269,-0.69,-0.88,4.94,0.51,1.87,0.80,
4.27,-0.69,-0.88,4.94,0.56,1.82,0.83,
4.27,-0.69,-0.88,4.94,0.61,1.76,0.86,
4.27,-0.69,-0.88,4.94,0.66,1.70,0.89,
4.281,-0.69,-0.88,4.94,0.70,1.62,0.92,
4.281,-0.50,-0.64,2.86,0.70,1.62,0.92,
4.281,-0.50,-0.64,2.86,0.73,1.54,0.94,
4.281,-0.50,-0.64,2.86,0.77,1.45,0.96,
4.282,-0.50,-0.64,2.86,0.80,1.36,0.98,
4.282,-0.50,-0.64,2.86,0.82,1.27,1.00,
4.282,-0.50,-0.64,2.86,0.85,1.16,1.01,
4.296,-0.17,-0.19,1.15,0.85,1.16,1.01,
4.296,-0.17,-0.19,1.15,0.87,1.05,1.03,
4.296,-0.17,-0.19,1.15,0.88,0.94,1.04,
4.296,-0.17,-0.19,1.15,0.90,0.83,1.05,
4.296,-0.17,-0.19,1.15,0.91,0.71,1.06,
4.297,-0.17,-0.19,1.15,0.92,0.59,1.06,
4.297,0.49,0.25,-0.05,0.92,0.59,1.06,
4.297,0.49,0.25,-0.05,0.92,0.47,1.06,
4.297,0.49,0.25,-0.05,0.93,0.35,1.05,
4.297,0.49,0.25,-0.05,0.93,0.23,1.05,
4.302,0.49,0.25,-0.05,0.94,0.12,1.04,
4.302,0.49,0.25,-0.05,0.93,-0.00,1.03,
4.306,1.28,0.42,-0.78,0.93,-0.00,1.03,
4.306,1.28,0.42,-0.78,0.93,-0.12,1.01,
4.307,1.28,0.42,-0.78,0.92,-0.24,0.99,
4.311,1.28,0.42,-0.78,0.91,-0.35,0.96,
4.312,1.28,0.42,-0.78,0.89,-0.46,0.94,
4.312,1.28,0.42,-0.78,0.87,-0.56,0.90,
4.314,2.17,0.47,-1.36,0.87,-0.56,0.90,
4.314,2.17,0.47,-1.36,0.85,-0.66,0.87,
4.315,2.17,0.47,-1.36,0.81,-0.79,0.80,
4.317,2.17,0.47,-1.36,0.79,-0.83,0.78,
4.319,2.17,0.47,-1.36,0.76,-0.90,0.74,
4.321,2.17,0.47,-1.36,0.73,-0.97,0.69,
4.324,2.92,0.76,-1.63,0.73,-0.97,0.69,
4.324,2.92,0.76,-1.63,0.70,-1.03,0.64,
4.324,2.92,0.76,-1.63,0.66,-1.08,0.59,
4.327,2.92,0.76,-1.63,0.63,-1.13,0.53,
4.329,2.92,0.76,-1.63,0.59,-1.18,0.48,
4.331,2.92,0.76,-1.63,0.55,-1.21,0.42,
4.333,3.46,1.09,-1.58,0.55,-1.21,0.42,
4.333,3.46,1.09,-1.58,0.51,-1.25,0.36,
4.334,3.46,1.09,-1.58,0.48,-1.28,0.31,
4.337,3.46,1.09,-1.58,0.44,-1.31,0.25,
4.339,3.46,1.09,-1.58,0.40,-1.33,0.19,
4.341,3.46,1.09,-1.58,0.36,-1.35,0.13,
4.346,3.71,1.18,-1.36,0.36,-1.35,0.13,
4.346,3.71,1.18,-1.36,0.31,-1.36,0.07,
4.352,3.71,1.18,-1.36,0.27,-1.36,0.01,
4.352,3.71,1.18,-1.36,0.23,-1.36,-0.05,
4.352,3.71,1.18,-1.36,0.19,-1.36,-0.11,
4.352,3.71,1.18,-1.36,0.15,-1.35,-0.17,
4.354,3.94,1.21,-1.10,0.15,-1.35,-0.17,
4.354,3.94,1.21,-1.10,0.11,-1.33,-0.22,
4.355,3.94,1.21,-1.10,0.07,-1.31,-0.28,
4.356,3.94,1.21,-1.10,0.03,-1.28,-0.34,
4.359,3.94,1.21,-1.10,-0.00,-1.25,-0.40,
4.361,3.94,1.21,-1.10,-0.04,-1.22,-0.45,
4.363,3.90,1.09,-0.80,-0.04,-1.22,-0.45,
4.363,3.90,1.09,-0.80,-0.08,-1.19,-0.51,
4.364,3.90,1.09,-0.80,-0.11,-1.15,-0.56,
4.367,3.90,1.09,-0.80,-0.14,-1.11,-0.62,
4.368,3.90,1.09,-0.80,-0.17,-1.07,-0.67,
4.37,3.90,1.09,-0.80,-0.20,-1.02,-0.72,
4.373,3.83,1.03,-0.53,-0.20,-1.02,-0.72,
4.373,3.83,1.03,-0.53,-0.22,-0.98,-0.77,
4.374,3.83,1.03,-0.53,-0.24,-0.93,-0.82,
4.377,3.83,1.03,-0.53,-0.27,-0.88,-0.87,
4.379,3.83,1.03,-0.53,-0.29,-0.83,-0.92,
4.394,3.83,1.03,-0.53,-0.31,-0.78,-0.96,
4.394,3.46,0.75,-0.35,-0.31,-0.78,-0.96,
4.394,3.46,0.75,-0.35,-0.33,-0.73,-1.00,
4.394,3.46,0.75,-0.35,-0.34,-0.68,-1.04,
4.394,3.46,0.75,-0.35,-0.35,-0.62,-1.08,
4.394,3.46,0.75,-0.35,-0.36,-0.57,-1.12,
4.394,3.46,0.75,-0.35,-0.37,-0.51,-1.15,
4.394,2.98,0.42,-0.28,-0.37,-0.51,-1.15,
4.395,2.98,0.42,-0.28,-0.38,-0.46,-1.18,
4.395,2.98,0.42,-0.28,-0.38,-0.41,-1.21,
4.397,2.98,0.42,-0.28,-0.38,-0.36,-1.23,
4.398,2.98,0.42,-0.28,-0.38,-0.31,-1.25,
4.401,2.98,0.42,-0.28,-0.38,-0.26,-1.26,
4.403,2.17,0.14,-0.36,-0.38,-0.26,-1.26,
4.403,2.17,0.14,-0.36,-0.38,-0.22,-1.28,
4.413,2.17,0.14,-0.36,-0.38,-0.18,-1.28,
4.413,2.17,0.14,-0.36,-0.38,-0.15,-1.29,
4.413,2.17,0.14,-0.36,-0.38,-0.12,-1.29,
4.413,2.17,0.14,-0.36,-0.38,-0.09,-1.29,
4.413,1.43,-0.05,-0.67,-0.38,-0.09,-1.29,
4.414,1.43,-0.05,-0.67,-0.38,-0.06,-1.29,
4.417,1.43,-0.05,-0.67,-0.38,-0.03,-1.28,
4.417,1.43,-0.05,-0.67,-0.38,-0.01,-1.27,
4.419,1.43,-0.05,-0.67,-0.37,0.01,-1.26,
4.421,1.43,-0.05,-0.67,-0.37,0.03,-1.26,
4.424,0.79,-0.16,-1.04,-0.37,0.03,-1.26,
4.424,0.79,-0.16,-1.04,-0.36,0.05,-1.24,
4.425,0.79,-0.16,-1.04,-0.36,0.06,-1.23,
4.427,0.79,-0.16,-1.04,-0.35,0.07,-1.21,
4.429,0.79,-0.16,-1.04,-0.34,0.08,-1.20,
4.431,0.79,-0.16,-1.04,-0.33,0.08,-1.18,
4.433,0.35,-0.19,-1.27,-0.33,0.08,-1.18,
4.433,0.35,-0.19,-1.27,-0.32,0.08,-1.16,
4.435,0.35,-0.19,-1.27,-0.31,0.08,-1.14,
4.437,0.35,-0.19,-1.27,-0.29,0.08,-1.12,
4.439,0.35,-0.19,-1.27,-0.27,0.07,-1.11,
4.441,0.35,-0.19,-1.27,-0.25,0.05,-1.09,
4.446,0.10,-0.15,-1.27,-0.25,0.05,-1.09,
4.446,0.10,-0.15,-1.27,-0.23,0.04,-1.06,
4.447,0.10,-0.15,-1.27,-0.21,0.04,-1.05,
4.447,0.10,-0.15,-1.27,-0.18,0.02,-1.03,
4.452,0.10,-0.15,-1.27,-0.15,0.01,-1.01,
4.452,0.10,-0.15,-1.27,-0.12,-0.01,-0.99,
4.453,0.07,-0.06,-1.21,-0.12,-0.01,-0.99,
4.453,0.07,-0.06,-1.21,-0.07,-0.03,-0.96,
4.455,0.07,-0.06,-1.21,-0.05,-0.04,-0.95,
4.457,0.07,-0.06,-1.21,-0.02,-0.05,-0.93,
4.459,0.07,-0.06,-1.21,0.02,-0.08,-0.90,
4.469,0.07,-0.06,-1.21,0.04,-0.09,-0.90,
4.469,0.10,-0.02,-1.34,0.04,-0.09,-0.90,
4.469,0.10,-0.02,-1.34,0.09,-0.12,-0.87,
4.469,0.10,-0.02,-1.34,0.10,-0.13,-0.86,
4.469,0.10,-0.02,-1.34,0.13,-0.15,-0.84,
4.469,0.10,-0.02,-1.34,0.16,-0.18,-0.83,
4.471,0.10,-0.02,-1.34,0.19,-0.20,-0.81,
4.473,0.16,0.03,-1.58,0.19,-0.20,-0.81,
4.473,0.16,0.03,-1.58,0.23,-0.23,-0.79,
4.474,0.16,0.03,-1.58,0.24,-0.24,-0.78,
4.477,0.16,0.03,-1.58,0.26,-0.26,-0.77,
4.479,0.16,0.03,-1.58,0.28,-0.28,-0.76,
4.481,0.16,0.03,-1.58,0.31,-0.30,-0.75,
4.483,0.29,0.13,-1.98,0.31,-0.30,-0.75,
4.483,0.29,0.13,-1.98,0.33,-0.33,-0.74,
4.484,0.29,0.13,-1.98,0.34,-0.34,-0.74,
4.487,0.29,0.13,-1.98,0.35,-0.36,-0.73,
4.488,0.29,0.13,-1.98,0.36,-0.38,-0.72,
4.49,0.29,0.13,-1.98,0.36,-0.40,-0.72,
4.493,0.42,0.33,-2.45,0.36,-0.40,-0.72,
4.494,0.42,0.33,-2.45,0.37,-0.42,-0.72,
4.494,0.42,0.33,-2.45,0.37,-0.43,-0.72,
4.497,0.42,0.33,-2.45,0.36,-0.44,-0.72,
4.499,0.42,0.33,-2.45,0.36,-0.45,-0.72,
4.501,0.42,0.33,-2.45,0.35,-0.46,-0.72,
4.503,0.53,0.43,-2.89,0.35,-0.46,-0.72,
4.503,0.53,0.43,-2.89,0.34,-0.47,-0.72,
4.504,0.53,0.43,-2.89,0.33,-0.47,-0.72,
4.507,0.53,0.43,-2.89,0.32,-0.47,-0.72,
4.509,0.53,0.43,-2.89,0.30,-0.48,-0.73,
4.51,0.53,0.43,-2.89,0.29,-0.48,-0.73,
4.513,0.53,0.52,-3.19,0.29,-0.48,-0.73,
4.513,0.53,0.52,-3.19,0.27,-0.49,-0.73,
4.515,0.53,0.52,-3.19,0.26,-0.49,-0.73,
4.517,0.53,0.52,-3.19,0.24,-0.50,-0.73,
4.518,0.53,0.52,-3.19,0.22,-0.51,-0.73,
4.52,0.53,0.52,-3.19,0.20,-0.51,-0.73,
4.523,0.42,0.55,-3.28,0.20,-0.51,-0.73,
4.523,0.42,0.55,-3.28,0.18,-0.51,-0.73,
4.524,0.42,0.55,-3.28,0.16,-0.51,-0.74,
4.527,0.42,0.55,-3.28,0.14,-0.52,-0.74,
4.528,0.42,0.55,-3.28,0.12,-0.52,-0.74,
4.531,0.42,0.55,-3.28,0.10,-0.52,-0.74,
4.534,0.48,0.66,-3.32,0.10,-0.52,-0.74,
4.535,0.48,0.66,-3.32,0.08,-0.52,-0.75,
4.535,0.48,0.66,-3.32,0.06,-0.53,-0.75,
4.537,0.48,0.66,-3.32,0.04,-0.54,-0.76,
4.539,0.48,0.66,-3.32,0.02,-0.55,-0.76,
4.541,0.48,0.66,-3.32,0.00,-0.56,-0.76,
4.544,0.37,0.61,-3.06,0.00,-0.56,-0.76,
4.545,0.37,0.61,-3.06,-0.01,-0.57,-0.77,
4.545,0.37,0.61,-3.06,-0.03,-0.57,-0.77,
4.577,0.37,0.61,-3.06,-0.04,-0.58,-0.77,
4.577,0.37,0.61,-3.06,-0.06,-0.59,-0.77,
4.577,0.37,0.61,-3.06,-0.07,-0.59,-0.77,
4.578,0.25,0.65,-2.68,-0.07,-0.59,-0.77,
4.578,0.25,0.65,-2.68,-0.08,-0.60,-0.78,
4.578,0.25,0.65,-2.68,-0.09,-0.61,-0.78,
4.579,0.25,0.65,-2.68,-0.10,-0.61,-0.78,
4.579,0.25,0.65,-2.68,-0.11,-0.62,-0.78,
4.579,0.25,0.65,-2.68,-0.11,-0.63,-0.78,
4.579,0.06,0.55,-2.23,-0.11,-0.63,-0.78,
4.58,0.06,0.55,-2.23,-0.12,-0.64,-0.77,
4.58,0.06,0.55,-2.23,-0.13,-0.64,-0.77,
4.58,0.06,0.55,-2.23,-0.13,-0.65,-0.76,
4.58,0.06,0.55,-2.23,-0.14,-0.65,-0.76,
4.58,0.06,0.55,-2.23,-0.14,-0.65,-0.75,
4.597,-0.16,0.57,-1.78,-0.14,-0.65,-0.75,
4.598,-0.16,0.57,-1.78,-0.14,-0.66,-0.75,
4.598,-0.16,0.57,-1.78,-0.15,-0.66,-0.74,
4.598,-0.16,0.57,-1.78,-0.15,-0.65,-0.74,
4.598,-0.16,0.57,-1.78,-0.15,-0.65,-0.73,
4.599,-0.16,0.57,-1.78,-0.15,-0.65,-0.72,
4.599,-0.23,0.54,-1.40,-0.15,-0.65,-0.72,
4.599,-0.23,0.54,-1.40,-0.15,-0.65,-0.72,
4.599,-0.23,0.54,-1.40,-0.16,-0.65,-0.71,
4.6,-0.23,0.54,-1.40,-0.16,-0.65,-0.71,
4.6,-0.23,0.54,-1.40,-0.16,-0.65,-0.70,
4.6,-0.23,0.54,-1.40,-0.16,-0.66,-0.69,
4.6,-0.36,0.63,-1.00,-0.16,-0.66,-0.69,
4.601,-0.36,0.63,-1.00,-0.17,-0.66,-0.68,
4.601,-0.36,0.63,-1.00,-0.17,-0.67,-0.68,
4.601,-0.36,0.63,-1.00,-0.17,-0.67,-0.67,
4.601,-0.36,0.63,-1.00,-0.18,-0.67,-0.66,
4.602,-0.36,0.63,-1.00,-0.18,-0.67,-0.66,
4.614,-0.48,0.68,-0.59,-0.18,-0.67,-0.66,
4.615,-0.48,0.68,-0.59,-0.18,-0.67,-0.65,
4.615,-0.48,0.68,-0.59,-0.19,-0.67,-0.65,
4.615,-0.48,0.68,-0.59,-0.19,-0.67,-0.65,
4.616,-0.48,0.68,-0.59,-0.20,-0.67,-0.64,
4.616,-0.48,0.68,-0.59,-0.20,-0.68,-0.64,
4.616,-0.65,0.69,-0.18,-0.20,-0.68,-0.64,
4.616,-0.65,0.69,-0.18,-0.21,-0.68,-0.63,
4.616,-0.65,0.69,-0.18,-0.21,-0.68,-0.62,
4.617,-0.65,0.69,-0.18,-0.22,-0.68,-0.61,
4.619,-0.65,0.69,-0.18,-0.21,-0.68,-0.60,
4.621,-0.65,0.69,-0.18,-0.22,-0.67,-0.59,
4.623,-0.86,0.71,0.42,-0.22,-0.67,-0.59,
4.623,-0.86,0.71,0.42,-0.21,-0.66,-0.58,
4.625,-0.86,0.71,0.42,-0.21,-0.65,-0.57,
4.627,-0.86,0.71,0.42,-0.21,-0.63,-0.56,
4.629,-0.86,0.71,0.42,-0.20,-0.62,-0.54,
4.633,-0.86,0.71,0.42,-0.19,-0.60,-0.53,
4.636,-1.05,0.67,1.05,-0.19,-0.60,-0.53,
4.636,-1.05,0.67,1.05,-0.19,-0.58,-0.52,
4.639,-1.05,0.67,1.05,-0.17,-0.57,-0.50,
4.64,-1.05,0.67,1.05,-0.16,-0.55,-0.49,
4.64,-1.05,0.67,1.05,-0.15,-0.53,-0.48,
4.641,-1.05,0.67,1.05,-0.13,-0.52,-0.47,
4.65,-1.11,0.55,1.75,-0.13,-0.52,-0.47,
4.65,-1.11,0.55,1.75,-0.11,-0.50,-0.45,
4.65,-1.11,0.55,1.75,-0.09,-0.49,-0.44,
4.651,-1.11,0.55,1.75,-0.07,-0.47,-0.42,
4.651,-1.11,0.55,1.75,-0.04,-0.45,-0.41,
4.651,-1.11,0.55,1.75,-0.01,-0.44,-0.40,
4.657,-1.15,0.48,2.46,-0.01,-0.44,-0.40,
4.657,-1.15,0.48,2.46,0.02,-0.42,-0.38,
4.658,-1.15,0.48,2.46,0.05,-0.40,-0.37,
4.658,-1.15,0.48,2.46,0.08,-0.39,-0.35,
4.691,-1.15,0.48,2.46,0.11,-0.37,-0.34,
4.692,-1.15,0.48,2.46,0.15,-0.36,-0.33,
4.692,-1.11,0.45,2.96,0.15,-0.36,-0.33,
4.692,-1.11,0.45,2.96,0.18,-0.35,-0.32,
4.693,-1.11,0.45,2.96,0.21,-0.34,-0.30,
4.693,-1.11,0.45,2.96,0.24,-0.33,-0.29,
4.693,-1.11,0.45,2.96,0.27,-0.32,-0.28,
4.693,-1.11,0.45,2.96,0.30,-0.31,-0.28,
4.693,-0.99,0.37,3.14,0.30,-0.31,-0.28,
4.693,-0.99,0.37,3.14,0.33,-0.30,-0.27,
4.694,-0.99,0.37,3.14,0.36,-0.30,-0.26,
4.694,-0.99,0.37,3.14,0.38,-0.29,-0.25,
4.694,-0.99,0.37,3.14,0.40,-0.28,-0.25,
4.694,-0.99,0.37,3.14,0.43,-0.27,-0.24,
4.694,-0.75,0.36,3.03,0.43,-0.27,-0.24,
4.695,-0.75,0.36,3.03,0.45,-0.26,-0.24,
4.695,-0.75,0.36,3.03,0.46,-0.24,-0.24,
4.695,-0.75,0.36,3.03,0.48,-0.23,-0.23,
4.695,-0.75,0.36,3.03,0.49,-0.21,-0.23,
4.695,-0.75,0.36,3.03,0.50,-0.20,-0.23,
4.695,-0.72,0.43,2.65,0.50,-0.20,-0.23,
4.696,-0.72,0.43,2.65,0.50,-0.19,-0.23,
4.696,-0.72,0.43,2.65,0.50,-0.18,-0.23,
4.697,-0.72,0.43,2.65,0.50,-0.17,-0.23,
4.702,-0.72,0.43,2.65,0.49,-0.17,-0.24,
4.702,-0.72,0.43,2.65,0.48,-0.18,-0.24,
4.706,-0.78,0.54,1.98,0.48,-0.18,-0.24,
4.706,-0.78,0.54,1.98,0.46,-0.18,-0.24,
4.706,-0.78,0.54,1.98,0.43,-0.19,-0.24,
4.707,-0.78,0.54,1.98,0.41,-0.20,-0.24,
4.711,-0.78,0.54,1.98,0.38,-0.21,-0.25,
4.711,-0.78,0.54,1.98,0.34,-0.22,-0.25,
4.741,-0.74,0.55,1.41,0.34,-0.22,-0.25,
4.741,-0.74,0.55,1.41,0.30,-0.23,-0.26,
4.742,-0.74,0.55,1.41,0.26,-0.24,-0.27,
4.742,-0.74,0.55,1.41,0.22,-0.24,-0.27,
4.742,-0.74,0.55,1.41,0.18,-0.24,-0.28,
4.742,-0.74,0.55,1.41,0.14,-0.24,-0.30,
4.742,-0.53,0.51,1.33,0.14,-0.24,-0.30,
4.742,-0.53,0.51,1.33,0.10,-0.23,-0.31,
4.743,-0.53,0.51,1.33,0.06,-0.22,-0.32,
4.743,-0.53,0.51,1.33,0.03,-0.20,-0.34,
4.743,-0.53,0.51,1.33,-0.01,-0.18,-0.36,
4.743,-0.53,0.51,1.33,-0.04,-0.16,-0.38,
4.744,-0.38,0.53,1.72,-0.04,-0.16,-0.38,
4.744,-0.38,0.53,1.72,-0.07,-0.14,-0.39,
4.744,-0.38,0.53,1.72,-0.10,-0.11,-0.41,
4.744,-0.38,0.53,1.72,-0.13,-0.09,-0.43,
4.765,-0.38,0.53,1.72,-0.16,-0.07,-0.45,
4.765,-0.38,0.53,1.72,-0.19,-0.05,-0.47,
4.765,-0.36,0.42,2.21,-0.19,-0.05,-0.47,
4.766,-0.36,0.42,2.21,-0.21,-0.02,-0.49,
4.766,-0.36,0.42,2.21,-0.23,-0.00,-0.51,
4.766,-0.36,0.42,2.21,-0.25,0.02,-0.52,
4.767,-0.36,0.42,2.21,-0.26,0.05,-0.54,
4.767,-0.36,0.42,2.21,-0.28,0.08,-0.55,
4.767,-0.64,0.10,2.62,-0.28,0.08,-0.55,
4.767,-0.64,0.10,2.62,-0.29,0.11,-0.56,
4.768,-0.64,0.10,2.62,-0.30,0.14,-0.57,
4.768,-0.64,0.10,2.62,-0.31,0.17,-0.58,
4.768,-0.64,0.10,2.62,-0.31,0.21,-0.58,
4.769,-0.64,0.10,2.62,-0.31,0.24,-0.58,
4.769,-1.12,-0.23,3.01,-0.31,0.24,-0.58,
4.769,-1.12,-0.23,3.01,-0.31,0.27,-0.59,
4.769,-1.12,-0.23,3.01,-0.30,0.31,-0.58,
4.77,-1.12,-0.23,3.01,-0.30,0.34,-0.58,
4.77,-1.12,-0.23,3.01,-0.29,0.38,-0.57,
4.788,-1.12,-0.23,3.01,-0.28,0.41,-0.57,
4.788,-1.78,-0.53,3.26,-0.28,0.41,-0.57,
4.789,-1.78,-0.53,3.26,-0.27,0.44,-0.56,
4.789,-1.78,-0.53,3.26,-0.26,0.47,-0.55,
4.789,-1.78,-0.53,3.26,-0.25,0.51,-0.54,
4.789,-1.78,-0.53,3.26,-0.24,0.54,-0.52,
4.79,-1.78,-0.53,3.26,-0.22,0.57,-0.51,
4.79,-2.46,-0.69,3.21,-0.22,0.57,-0.51,
4.79,-2.46,-0.69,3.21,-0.19,0.66,-0.44,
4.79,-2.46,-0.69,3.21,-0.19,0.66,-0.44,
4.79,-2.46,-0.69,3.21,-0.19,0.68,-0.42,
4.791,-2.46,-0.69,3.21,-0.18,0.71,-0.39,
4.801,-2.46,-0.69,3.21,-0.18,0.71,-0.39,
4.802,-3.03,-0.81,2.98,-0.18,0.71,-0.39,
4.802,-3.03,-0.81,2.98,-0.18,0.73,-0.37,
4.802,-3.03,-0.81,2.98,-0.18,0.75,-0.34,
4.802,-3.03,-0.81,2.98,-0.18,0.76,-0.31,
4.803,-3.03,-0.81,2.98,-0.18,0.78,-0.29,
4.803,-3.03,-0.81,2.98,-0.19,0.78,-0.26,
4.804,-3.12,-0.81,2.57,-0.19,0.78,-0.26,
4.804,-3.12,-0.81,2.57,-0.19,0.79,-0.24,
4.805,-3.12,-0.81,2.57,-0.20,0.78,-0.22,
4.808,-3.12,-0.81,2.57,-0.21,0.78,-0.19,
4.83,-3.12,-0.81,2.57,-0.22,0.77,-0.18,
4.83,-3.12,-0.81,2.57,-0.23,0.75,-0.16,
4.83,-2.92,-0.75,2.29,-0.23,0.75,-0.16,
4.831,-2.92,-0.75,2.29,-0.24,0.73,-0.15,
4.831,-2.92,-0.75,2.29,-0.25,0.71,-0.14,
4.831,-2.92,-0.75,2.29,-0.26,0.68,-0.13,
4.831,-2.92,-0.75,2.29,-0.28,0.65,-0.12,
4.831,-2.92,-0.75,2.29,-0.29,0.62,-0.11,
4.831,-2.41,-0.59,2.15,-0.29,0.62,-0.11,
4.832,-2.41,-0.59,2.15,-0.30,0.58,-0.11,
4.832,-2.41,-0.59,2.15,-0.31,0.54,-0.11,
4.832,-2.41,-0.59,2.15,-0.33,0.50,-0.11,
4.832,-2.41,-0.59,2.15,-0.35,0.46,-0.11,
4.832,-2.41,-0.59,2.15,-0.36,0.42,-0.11,
4.835,-1.83,-0.57,1.91,-0.36,0.42,-0.11,
4.835,-1.83,-0.57,1.91,-0.38,0.37,-0.11,
4.835,-1.83,-0.57,1.91,-0.40,0.33,-0.11,
4.839,-1.83,-0.57,1.91,-0.42,0.28,-0.12,
4.84,-1.83,-0.57,1.91,-0.44,0.24,-0.12,
4.843,-1.83,-0.57,1.91,-0.45,0.20,-0.12,
4.843,-1.28,-0.54,1.70,-0.45,0.20,-0.12,
4.844,-1.28,-0.54,1.70,-0.47,0.16,-0.13,
4.849,-1.28,-0.54,1.70,-0.49,0.12,-0.14,
4.849,-1.28,-0.54,1.70,-0.50,0.08,-0.15,
4.849,-1.28,-0.54,1.70,-0.52,0.04,-0.16,
4.853,-1.28,-0.54,1.70,-0.53,0.00,-0.17,
4.857,-0.85,-0.54,1.61,-0.53,0.00,-0.17,
4.857,-0.85,-0.54,1.61,-0.54,-0.03,-0.18,
4.857,-0.85,-0.54,1.61,-0.55,-0.06,-0.19,
4.857,-0.85,-0.54,1.61,-0.57,-0.09,-0.20,
4.863,-0.85,-0.54,1.61,-0.57,-0.12,-0.21,
4.863,-0.85,-0.54,1.61,-0.58,-0.15,-0.22,
4.864,-0.59,-0.53,1.52,-0.58,-0.15,-0.22,
4.864,-0.59,-0.53,1.52,-0.59,-0.17,-0.22,
4.865,-0.59,-0.53,1.52,-0.59,-0.18,-0.23,
4.867,-0.59,-0.53,1.52,-0.60,-0.20,-0.24,
4.87,-0.59,-0.53,1.52,-0.60,-0.21,-0.24,
4.872,-0.59,-0.53,1.52,-0.61,-0.21,-0.24,
4.874,-0.50,-0.55,1.32,-0.61,-0.21,-0.24,
4.874,-0.50,-0.55,1.32,-0.62,-0.22,-0.25,
4.923,-0.50,-0.55,1.32,-0.62,-0.22,-0.25,
4.923,-0.50,-0.55,1.32,-0.63,-0.22,-0.25,
4.923,-0.50,-0.55,1.32,-0.64,-0.22,-0.25,
4.924,-0.50,-0.55,1.32,-0.64,-0.21,-0.25,
4.924,-0.45,-0.56,1.01,-0.64,-0.21,-0.25,
4.924,-0.45,-0.56,1.01,-0.65,-0.21,-0.25,
4.924,-0.45,-0.56,1.01,-0.65,-0.20,-0.24,
4.924,-0.45,-0.56,1.01,-0.66,-0.19,-0.24,
4.924,-0.45,-0.56,1.01,-0.66,-0.18,-0.24,
4.924,-0.45,-0.56,1.01,-0.67,-0.16,-0.24,
4.925,-0.49,-0.59,0.80,-0.67,-0.16,-0.24,
4.925,-0.49,-0.59,0.80,-0.67,-0.15,-0.23,
4.925,-0.49,-0.59,0.80,-0.67,-0.14,-0.23,
4.925,-0.49,-0.59,0.80,-0.67,-0.12,-0.22,
4.925,-0.49,-0.59,0.80,-0.67,-0.11,-0.22,
4.925,-0.49,-0.59,0.80,-0.66,-0.09,-0.21,
4.925,-0.56,-0.70,0.84,-0.66,-0.09,-0.21,
4.926,-0.56,-0.70,0.84,-0.65,-0.06,-0.21,
4.947,-0.56,-0.70,0.84,-0.64,-0.04,-0.20,
4.947,-0.56,-0.70,0.84,-0.63,-0.02,-0.19,
4.947,-0.56,-0.70,0.84,-0.61,0.01,-0.17,
4.947,-0.56,-0.70,0.84,-0.59,0.03,-0.16,
4.948,-0.72,-0.86,1.06,-0.59,0.03,-0.16,
4.948,-0.72,-0.86,1.06,-0.56,0.06,-0.14,
4.948,-0.72,-0.86,1.06,-0.54,0.08,-0.13,
4.948,-0.72,-0.86,1.06,-0.51,0.10,-0.11,
4.948,-0.72,-0.86,1.06,-0.49,0.13,-0.09,
4.949,-0.72,-0.86,1.06,-0.45,0.15,-0.07,
4.949,-0.85,-0.95,1.18,-0.45,0.15,-0.07,
4.949,-0.85,-0.95,1.18,-0.42,0.17,-0.05,
4.949,-0.85,-0.95,1.18,-0.39,0.19,-0.03,
4.949,-0.85,-0.95,1.18,-0.35,0.21,-0.01,
4.95,-0.85,-0.95,1.18,-0.32,0.23,0.02,
4.95,-0.85,-0.95,1.18,-0.28,0.24,0.04,
4.95,-0.96,-1.03,1.12,-0.28,0.24,0.04,
4.95,-0.96,-1.03,1.12,-0.24,0.26,0.06,
4.951,-0.96,-1.03,1.12,-0.21,0.27,0.08,
4.951,-0.96,-1.03,1.12,-0.17,0.28,0.11,
4.951,-0.96,-1.03,1.12,-0.13,0.30,0.13,
4.951,-0.96,-1.03,1.12,-0.10,0.31,0.15,
4.951,-0.99,-1.09,0.87,-0.10,0.31,0.15,
4.952,-0.99,-1.09,0.87,-0.06,0.32,0.17,
4.952,-0.99,-1.09,0.87,-0.03,0.33,0.19,
4.952,-0.99,-1.09,0.87,0.01,0.34,0.22,
4.952,-0.99,-1.09,0.87,0.05,0.35,0.24,
4.952,-0.99,-1.09,0.87,0.08,0.36,0.26,
4.967,-1.05,-1.14,0.48,0.08,0.36,0.26,
4.967,-1.05,-1.14,0.48,0.12,0.36,0.28,
4.967,-1.05,-1.14,0.48,0.15,0.37,0.31,
4.968,-1.05,-1.14,0.48,0.19,0.37,0.33,
4.968,-1.05,-1.14,0.48,0.22,0.37,0.35,
4.968,-1.05,-1.14,0.48,0.26,0.37,0.38,
4.978,-1.14,-1.16,0.10,0.26,0.37,0.38,
4.978,-1.14,-1.16,0.10,0.29,0.37,0.40,
4.978,-1.14,-1.16,0.10,0.33,0.37,0.43,
4.978,-1.14,-1.16,0.10,0.37,0.36,0.45,
4.978,-1.14,-1.16,0.10,0.40,0.36,0.48,
4.979,-1.14,-1.16,0.10,0.44,0.35,0.51,
4.979,-1.38,-1.27,-0.12,0.44,0.35,0.51,
4.979,-1.38,-1.27,-0.12,0.48,0.34,0.53,
4.979,-1.38,-1.27,-0.12,0.52,0.33,0.56,
4.986,-1.38,-1.27,-0.12,0.56,0.33,0.59,
4.986,-1.38,-1.27,-0.12,0.60,0.32,0.62,
4.987,-1.38,-1.27,-0.12,0.64,0.31,0.65,
4.987,-1.53,-1.40,-0.38,0.64,0.31,0.65,
4.987,-1.53,-1.40,-0.38,0.68,0.30,0.68,
