
time,ax,ay,az,wx,wy,wz,
0.004,-0.09,0.31,-1.76,-0.23,-0.45,0.17,
0.004,-0.09,0.31,-1.76,-0.27,-0.47,0.17,
0.004,-0.09,0.31,-1.76,-0.30,-0.49,0.18,
0.004,-0.09,0.31,-1.76,-0.34,-0.51,0.19,
0.005,-0.09,0.31,-1.76,-0.38,-0.52,0.21,
0.005,-0.09,0.31,-1.76,-0.42,-0.54,0.22,
0.008,-0.42,0.62,-2.06,-0.42,-0.54,0.22,
0.009,-0.42,0.62,-2.06,-0.46,-0.56,0.24,
0.009,-0.42,0.62,-2.06,-0.50,-0.58,0.25,
0.01,-0.42,0.62,-2.06,-0.54,-0.59,0.27,
0.019,-0.42,0.62,-2.06,-0.57,-0.61,0.28,
0.02,-0.42,0.62,-2.06,-0.61,-0.63,0.30,
0.02,-0.58,0.73,-2.03,-0.61,-0.63,0.30,
0.02,-0.58,0.73,-2.03,-0.65,-0.65,0.32,
0.02,-0.58,0.73,-2.03,-0.69,-0.66,0.34,
0.02,-0.58,0.73,-2.03,-0.72,-0.67,0.36,
0.021,-0.58,0.73,-2.03,-0.76,-0.69,0.37,
0.023,-0.58,0.73,-2.03,-0.79,-0.70,0.39,
0.026,-0.58,0.80,-1.77,-0.79,-0.70,0.39,
0.026,-0.58,0.80,-1.77,-0.82,-0.72,0.40,
0.032,-0.58,0.80,-1.77,-0.86,-0.74,0.42,
0.033,-0.58,0.80,-1.77,-0.89,-0.75,0.43,
0.033,-0.58,0.80,-1.77,-0.92,-0.76,0.44,
0.033,-0.58,0.80,-1.77,-0.95,-0.77,0.45,
0.036,-0.37,0.97,-1.37,-0.95,-0.77,0.45,
0.036,-0.37,0.97,-1.37,-0.98,-0.77,0.47,
0.037,-0.37,0.97,-1.37,-1.01,-0.78,0.48,
0.04,-0.37,0.97,-1.37,-1.04,-0.77,0.50,
0.041,-0.37,0.97,-1.37,-1.07,-0.75,0.51,
0.043,-0.37,0.97,-1.37,-1.09,-0.72,0.52,
0.045,-0.15,1.01,-1.01,-1.09,-0.72,0.52,
0.046,-0.15,1.01,-1.01,-1.12,-0.69,0.53,
0.047,-0.15,1.01,-1.01,-1.15,-0.65,0.54,
0.049,-0.15,1.01,-1.01,-1.18,-0.60,0.55,
0.052,-0.15,1.01,-1.01,-1.22,-0.55,0.56,
0.053,-0.15,1.01,-1.01,-1.25,-0.50,0.57,
0.055,0.11,0.76,-0.85,-1.25,-0.50,0.57,
0.056,0.11,0.76,-0.85,-1.28,-0.47,0.58,
0.057,0.11,0.76,-0.85,-1.32,-0.45,0.58,
0.059,0.11,0.76,-0.85,-1.36,-0.42,0.59,
0.077,0.11,0.76,-0.85,-1.39,-0.37,0.60,
0.077,0.11,0.76,-0.85,-1.43,-0.33,0.60,
0.078,0.28,0.73,-0.65,-1.43,-0.33,0.60,
0.078,0.28,0.73,-0.65,-1.47,-0.30,0.61,
0.078,0.28,0.73,-0.65,-1.50,-0.27,0.61,
0.078,0.28,0.73,-0.65,-1.53,-0.24,0.62,
0.078,0.28,0.73,-0.65,-1.55,-0.20,0.62,
0.078,0.28,0.73,-0.65,-1.57,-0.18,0.63,
0.078,0.34,0.79,-0.35,-1.57,-0.18,0.63,
0.079,0.34,0.79,-0.35,-1.58,-0.15,0.63,
0.079,0.34,0.79,-0.35,-1.59,-0.12,0.63,
0.08,0.34,0.79,-0.35,-1.59,-0.08,0.63,
0.082,0.34,0.79,-0.35,-1.58,-0.05,0.63,
0.083,0.34,0.79,-0.35,-1.56,-0.03,0.63,
0.106,0.43,1.02,0.02,-1.56,-0.03,0.63,
0.106,0.43,1.02,0.02,-1.54,-0.00,0.62,
0.107,0.43,1.02,0.02,-1.51,0.01,0.62,
0.107,0.43,1.02,0.02,-1.48,0.02,0.61,
0.107,0.43,1.02,0.02,-1.43,0.02,0.60,
0.107,0.43,1.02,0.02,-1.39,0.02,0.59,
0.108,0.58,1.15,0.49,-1.39,0.02,0.59,
0.108,0.58,1.15,0.49,-1.33,0.02,0.58,
0.108,0.58,1.15,0.49,-1.28,0.01,0.56,
0.108,0.58,1.15,0.49,-1.21,-0.01,0.54,
0.108,0.58,1.15,0.49,-1.15,-0.02,0.52,
0.109,0.58,1.15,0.49,-1.09,-0.04,0.49,
0.109,0.99,1.45,0.85,-1.09,-0.04,0.49,
0.109,0.99,1.45,0.85,-1.02,-0.06,0.46,
0.109,0.99,1.45,0.85,-0.95,-0.07,0.43,
0.109,0.99,1.45,0.85,-0.89,-0.09,0.40,
0.135,0.99,1.45,0.85,-0.79,-0.12,0.35,
0.136,0.99,1.45,0.85,-0.75,-0.13,0.33,
0.136,1.36,1.50,1.04,-0.75,-0.13,0.33,
0.136,1.36,1.50,1.04,-0.65,-0.17,0.29,
0.136,1.36,1.50,1.04,-0.62,-0.18,0.27,
0.137,1.36,1.50,1.04,-0.55,-0.22,0.24,
0.137,1.36,1.50,1.04,-0.49,-0.25,0.21,
0.137,1.36,1.50,1.04,-0.42,-0.28,0.18,
0.137,1.53,1.32,1.04,-0.42,-0.28,0.18,
0.137,1.53,1.32,1.04,-0.34,-0.34,0.13,
0.138,1.53,1.32,1.04,-0.31,-0.35,0.12,
0.138,1.53,1.32,1.04,-0.25,-0.38,0.09,
0.138,1.53,1.32,1.04,-0.20,-0.41,0.06,
0.138,1.53,1.32,1.04,-0.15,-0.44,0.03,
0.138,1.39,1.18,1.08,-0.15,-0.44,0.03,
0.138,1.39,1.18,1.08,-0.08,-0.47,-0.01,
0.139,1.39,1.18,1.08,-0.06,-0.48,-0.02,
0.139,1.39,1.18,1.08,-0.02,-0.49,-0.04,
0.144,1.39,1.18,1.08,0.02,-0.51,-0.06,
0.145,1.39,1.18,1.08,0.05,-0.52,-0.08,
0.164,1.02,1.19,1.38,0.05,-0.52,-0.08,
0.164,1.02,1.19,1.38,0.10,-0.53,-0.10,
0.164,1.02,1.19,1.38,0.12,-0.53,-0.10,
0.165,1.02,1.19,1.38,0.15,-0.52,-0.11,
0.165,1.02,1.19,1.38,0.18,-0.48,-0.12,
0.165,1.02,1.19,1.38,0.24,-0.38,-0.13,
0.165,0.69,1.15,1.84,0.24,-0.38,-0.13,
0.165,0.69,1.15,1.84,0.34,-0.18,-0.13,
0.165,0.69,1.15,1.84,0.34,-0.18,-0.13,
0.165,0.69,1.15,1.84,0.39,-0.08,-0.12,
0.166,0.69,1.15,1.84,0.42,-0.03,-0.11,
0.166,0.69,1.15,1.84,0.42,-0.03,-0.11,
0.166,0.44,0.99,2.27,0.42,-0.03,-0.11,
0.166,0.44,0.99,2.27,0.45,0.02,-0.09,
0.169,0.44,0.99,2.27,0.47,0.08,-0.08,
0.17,0.44,0.99,2.27,0.48,0.11,-0.07,
0.171,0.44,0.99,2.27,0.50,0.21,-0.06,
0.172,0.44,0.99,2.27,0.50,0.25,-0.05,
0.175,0.31,0.65,1.83,0.50,0.25,-0.05,
0.175,0.31,0.65,1.83,0.50,0.35,-0.05,
0.184,0.31,0.65,1.83,0.50,0.43,-0.04,
0.195,0.31,0.65,1.83,0.49,0.51,-0.05,
0.195,0.31,0.65,1.83,0.48,0.60,-0.05,
0.196,0.31,0.65,1.83,0.46,0.68,-0.06,
0.196,0.37,0.18,0.81,0.46,0.68,-0.06,
0.196,0.37,0.18,0.81,0.44,0.75,-0.07,
0.197,0.37,0.18,0.81,0.41,0.80,-0.08,
0.197,0.37,0.18,0.81,0.38,0.84,-0.09,
0.197,0.37,0.18,0.81,0.35,0.87,-0.10,
0.197,0.37,0.18,0.81,0.32,0.89,-0.11,
0.197,0.21,0.00,-0.09,0.32,0.89,-0.11,
0.197,0.21,0.00,-0.09,0.29,0.91,-0.11,
0.198,0.21,0.00,-0.09,0.26,0.93,-0.11,
0.201,0.21,0.00,-0.09,0.23,0.94,-0.11,
0.202,0.21,0.00,-0.09,0.20,0.95,-0.11,
0.208,0.21,0.00,-0.09,0.18,0.96,-0.10,
0.209,-0.38,0.72,-0.63,0.18,0.96,-0.10,
0.209,-0.38,0.72,-0.63,0.15,0.97,-0.10,
0.209,-0.38,0.72,-0.63,0.13,0.97,-0.09,
0.209,-0.38,0.72,-0.63,0.11,0.97,-0.08,
0.239,-0.38,0.72,-0.63,0.10,0.97,-0.07,
0.24,-0.38,0.72,-0.63,0.08,0.96,-0.06,
0.24,-0.70,1.62,-0.91,0.08,0.96,-0.06,
0.24,-0.70,1.62,-0.91,0.06,0.94,-0.05,
0.24,-0.70,1.62,-0.91,0.04,0.92,-0.03,
0.24,-0.70,1.62,-0.91,0.03,0.88,-0.02,
0.24,-0.70,1.62,-0.91,0.01,0.84,0.00,
0.24,-0.70,1.62,-0.91,-0.00,0.79,0.02,
0.24,-0.77,2.14,-0.96,-0.00,0.79,0.02,
0.241,-0.77,2.14,-0.96,-0.01,0.73,0.04,
0.241,-0.77,2.14,-0.96,-0.03,0.66,0.05,
0.241,-0.77,2.14,-0.96,-0.04,0.59,0.07,
0.241,-0.77,2.14,-0.96,-0.05,0.51,0.08,
0.241,-0.77,2.14,-0.96,-0.06,0.42,0.09,
0.241,-0.53,1.99,-0.79,-0.06,0.42,0.09,
0.241,-0.53,1.99,-0.79,-0.06,0.34,0.10,
0.241,-0.53,1.99,-0.79,-0.07,0.25,0.11,
0.241,-0.53,1.99,-0.79,-0.07,0.18,0.11,
0.242,-0.53,1.99,-0.79,-0.08,0.10,0.11,
0.243,-0.53,1.99,-0.79,-0.09,0.03,0.12,
0.245,-0.16,1.72,-0.83,-0.09,0.03,0.12,
0.245,-0.16,1.72,-0.83,-0.10,-0.04,0.12,
0.246,-0.16,1.72,-0.83,-0.11,-0.12,0.12,
0.248,-0.16,1.72,-0.83,-0.13,-0.19,0.13,
0.25,-0.16,1.72,-0.83,-0.14,-0.26,0.13,
0.264,-0.16,1.72,-0.83,-0.17,-0.34,0.14,
0.264,0.18,1.37,-0.91,-0.17,-0.34,0.14,
0.264,0.18,1.37,-0.91,-0.19,-0.41,0.15,
0.264,0.18,1.37,-0.91,-0.22,-0.48,0.16,
0.264,0.18,1.37,-0.91,-0.24,-0.54,0.17,
0.264,0.18,1.37,-0.91,-0.27,-0.60,0.18,
0.265,0.18,1.37,-0.91,-0.29,-0.65,0.19,
0.265,0.37,1.13,-0.84,-0.29,-0.65,0.19,
0.268,0.37,1.13,-0.84,-0.32,-0.69,0.19,
0.268,0.37,1.13,-0.84,-0.34,-0.73,0.20,
0.269,0.37,1.13,-0.84,-0.37,-0.75,0.21,
0.27,0.37,1.13,-0.84,-0.39,-0.77,0.22,
0.272,0.37,1.13,-0.84,-0.42,-0.79,0.23,
0.277,0.42,1.03,-0.61,-0.42,-0.79,0.23,
0.277,0.42,1.03,-0.61,-0.44,-0.79,0.23,
0.277,0.42,1.03,-0.61,-0.47,-0.79,0.23,
0.279,0.42,1.03,-0.61,-0.50,-0.79,0.23,
0.28,0.42,1.03,-0.61,-0.53,-0.78,0.22,
0.283,0.42,1.03,-0.61,-0.57,-0.77,0.22,
0.285,0.66,1.09,-0.46,-0.57,-0.77,0.22,
0.286,0.66,1.09,-0.46,-0.60,-0.76,0.21,
0.287,0.66,1.09,-0.46,-0.62,-0.74,0.20,
0.288,0.66,1.09,-0.46,-0.64,-0.73,0.19,
0.291,0.66,1.09,-0.46,-0.66,-0.72,0.17,
0.293,0.66,1.09,-0.46,-0.67,-0.70,0.16,
0.295,0.85,1.16,0.04,-0.67,-0.70,0.16,
0.295,0.85,1.16,0.04,-0.69,-0.70,0.15,
0.296,0.85,1.16,0.04,-0.69,-0.69,0.14,
0.298,0.85,1.16,0.04,-0.70,-0.68,0.12,
0.3,0.85,1.16,0.04,-0.70,-0.69,0.11,
0.302,0.85,1.16,0.04,-0.70,-0.70,0.10,
0.307,0.96,1.17,0.65,-0.70,-0.70,0.10,
0.307,0.96,1.17,0.65,-0.71,-0.72,0.08,
0.307,0.96,1.17,0.65,-0.70,-0.73,0.07,
0.309,0.96,1.17,0.65,-0.70,-0.74,0.06,
0.311,0.96,1.17,0.65,-0.70,-0.76,0.04,
0.313,0.96,1.17,0.65,-0.69,-0.77,0.02,
0.315,0.91,1.22,1.08,-0.69,-0.77,0.02,
0.315,0.91,1.22,1.08,-0.69,-0.78,0.01,
0.316,0.91,1.22,1.08,-0.69,-0.80,-0.00,
0.319,0.91,1.22,1.08,-0.69,-0.82,-0.01,
0.32,0.91,1.22,1.08,-0.69,-0.84,-0.03,
0.323,0.91,1.22,1.08,-0.69,-0.87,-0.04,
0.325,0.80,1.29,1.17,-0.69,-0.87,-0.04,
0.325,0.80,1.29,1.17,-0.71,-0.90,-0.05,
0.327,0.80,1.29,1.17,-0.73,-0.93,-0.05,
0.329,0.80,1.29,1.17,-0.75,-0.97,-0.06,
0.331,0.80,1.29,1.17,-0.78,-1.02,-0.06,
0.333,0.80,1.29,1.17,-0.82,-1.05,-0.07,
0.335,0.64,1.20,1.01,-0.82,-1.05,-0.07,
0.335,0.64,1.20,1.01,-0.86,-1.08,-0.07,
0.337,0.64,1.20,1.01,-0.90,-1.11,-0.07,
0.339,0.64,1.20,1.01,-0.94,-1.13,-0.07,
0.34,0.64,1.20,1.01,-0.99,-1.15,-0.06,
0.344,0.64,1.20,1.01,-1.03,-1.17,-0.06,
0.345,0.60,1.19,1.16,-1.03,-1.17,-0.06,
0.355,0.60,1.19,1.16,-1.07,-1.17,-0.05,
0.355,0.60,1.19,1.16,-1.11,-1.18,-0.04,
0.356,0.60,1.19,1.16,-1.15,-1.18,-0.04,
0.356,0.60,1.19,1.16,-1.19,-1.17,-0.04,
0.356,0.60,1.19,1.16,-1.23,-1.17,-0.03,
0.356,0.66,1.00,1.71,-1.23,-1.17,-0.03,
0.356,0.66,1.00,1.71,-1.26,-1.16,-0.03,
0.356,0.66,1.00,1.71,-1.28,-1.15,-0.03,
0.359,0.66,1.00,1.71,-1.30,-1.15,-0.03,
0.367,0.66,1.00,1.71,-1.32,-1.14,-0.03,
0.368,0.66,1.00,1.71,-1.33,-1.14,-0.04,
0.368,0.69,0.52,2.80,-1.33,-1.14,-0.04,
0.368,0.69,0.52,2.80,-1.34,-1.13,-0.04,
0.368,0.69,0.52,2.80,-1.33,-1.12,-0.05,
0.37,0.69,0.52,2.80,-1.33,-1.11,-0.05,
0.371,0.69,0.52,2.80,-1.33,-1.09,-0.06,
0.373,0.69,0.52,2.80,-1.31,-1.07,-0.07,
0.376,0.81,0.12,3.82,-1.31,-1.07,-0.07,
0.378,0.81,0.12,3.82,-1.30,-1.04,-0.08,
0.381,0.81,0.12,3.82,-1.28,-1.02,-0.09,
0.381,0.81,0.12,3.82,-1.27,-0.99,-0.10,
0.381,0.81,0.12,3.82,-1.24,-0.96,-0.11,
0.382,0.81,0.12,3.82,-1.22,-0.94,-0.12,
0.385,0.99,-0.29,4.45,-1.22,-0.94,-0.12,
0.385,0.99,-0.29,4.45,-1.19,-0.91,-0.13,
0.387,0.99,-0.29,4.45,-1.16,-0.89,-0.14,
0.389,0.99,-0.29,4.45,-1.12,-0.85,-0.15,
0.39,0.99,-0.29,4.45,-1.09,-0.82,-0.16,
0.393,0.99,-0.29,4.45,-1.05,-0.78,-0.17,
0.396,1.09,-0.66,4.76,-1.05,-0.78,-0.17,
0.396,1.09,-0.66,4.76,-1.01,-0.75,-0.19,
0.397,1.09,-0.66,4.76,-0.97,-0.72,-0.19,
0.399,1.09,-0.66,4.76,-0.93,-0.69,-0.21,
0.402,1.09,-0.66,4.76,-0.89,-0.67,-0.22,
0.403,1.09,-0.66,4.76,-0.84,-0.65,-0.23,
0.405,1.18,-1.08,4.82,-0.84,-0.65,-0.23,
0.405,1.18,-1.08,4.82,-0.80,-0.64,-0.25,
0.406,1.18,-1.08,4.82,-0.75,-0.63,-0.26,
0.409,1.18,-1.08,4.82,-0.70,-0.62,-0.27,
0.41,1.18,-1.08,4.82,-0.65,-0.62,-0.28,
0.412,1.18,-1.08,4.82,-0.60,-0.62,-0.29,
0.416,1.13,-1.26,4.82,-0.60,-0.62,-0.29,
0.416,1.13,-1.26,4.82,-0.55,-0.62,-0.30,
0.417,1.13,-1.26,4.82,-0.49,-0.62,-0.31,
0.43,1.13,-1.26,4.82,-0.44,-0.62,-0.32,
0.43,1.13,-1.26,4.82,-0.39,-0.62,-0.33,
0.43,1.13,-1.26,4.82,-0.33,-0.63,-0.34,
0.43,0.89,-1.62,4.77,-0.33,-0.63,-0.34,
0.43,0.89,-1.62,4.77,-0.28,-0.64,-0.34,
0.431,0.89,-1.62,4.77,-0.22,-0.65,-0.35,
0.431,0.89,-1.62,4.77,-0.16,-0.66,-0.36,
0.431,0.89,-1.62,4.77,-0.10,-0.68,-0.37,
0.433,0.89,-1.62,4.77,-0.05,-0.70,-0.37,
0.435,0.63,-1.84,4.48,-0.05,-0.70,-0.37,
0.435,0.63,-1.84,4.48,0.01,-0.73,-0.38,
0.436,0.63,-1.84,4.48,0.07,-0.76,-0.39,
0.439,0.63,-1.84,4.48,0.12,-0.79,-0.40,
0.44,0.63,-1.84,4.48,0.17,-0.83,-0.42,
0.442,0.63,-1.84,4.48,0.22,-0.86,-0.43,
0.446,0.44,-1.86,3.99,0.22,-0.86,-0.43,
0.446,0.44,-1.86,3.99,0.26,-0.88,-0.44,
0.446,0.44,-1.86,3.99,0.31,-0.91,-0.45,
0.449,0.44,-1.86,3.99,0.35,-0.94,-0.46,
0.45,0.44,-1.86,3.99,0.38,-0.97,-0.48,
0.452,0.44,-1.86,3.99,0.41,-1.00,-0.49,
0.455,0.24,-1.65,3.15,0.41,-1.00,-0.49,
0.455,0.24,-1.65,3.15,0.43,-1.05,-0.50,
0.457,0.24,-1.65,3.15,0.45,-1.09,-0.51,
0.461,0.24,-1.65,3.15,0.47,-1.13,-0.52,
0.461,0.24,-1.65,3.15,0.48,-1.18,-0.53,
0.462,0.24,-1.65,3.15,0.49,-1.24,-0.54,
0.465,0.40,-1.79,2.28,0.49,-1.24,-0.54,
0.465,0.40,-1.79,2.28,0.49,-1.30,-0.55,
0.466,0.40,-1.79,2.28,0.49,-1.36,-0.56,
0.469,0.40,-1.79,2.28,0.48,-1.42,-0.57,
0.471,0.40,-1.79,2.28,0.47,-1.49,-0.57,
0.472,0.40,-1.79,2.28,0.46,-1.56,-0.58,
0.48,0.81,-2.06,1.51,0.46,-1.56,-0.58,
0.48,0.81,-2.06,1.51,0.45,-1.62,-0.59,
0.48,0.81,-2.06,1.51,0.43,-1.68,-0.60,
0.48,0.81,-2.06,1.51,0.41,-1.74,-0.61,
0.48,0.81,-2.06,1.51,0.39,-1.80,-0.62,
0.485,0.81,-2.06,1.51,0.37,-1.85,-0.64,
0.488,1.28,-2.25,0.90,0.37,-1.85,-0.64,
0.488,1.28,-2.25,0.90,0.35,-1.89,-0.64,
0.488,1.28,-2.25,0.90,0.33,-1.92,-0.65,
0.489,1.28,-2.25,0.90,0.31,-1.93,-0.66,
0.491,1.28,-2.25,0.90,0.30,-1.94,-0.67,
0.493,1.28,-2.25,0.90,0.29,-1.92,-0.68,
0.495,1.38,-2.05,0.83,0.29,-1.92,-0.68,
0.495,1.38,-2.05,0.83,0.29,-1.89,-0.68,
0.497,1.38,-2.05,0.83,0.29,-1.85,-0.69,
0.501,1.38,-2.05,0.83,0.29,-1.79,-0.69,
0.502,1.38,-2.05,0.83,0.30,-1.72,-0.69,
0.503,1.38,-2.05,0.83,0.31,-1.65,-0.69,
0.506,1.49,-1.92,1.16,0.31,-1.65,-0.69,
0.506,1.49,-1.92,1.16,0.32,-1.58,-0.69,
0.506,1.49,-1.92,1.16,0.34,-1.50,-0.70,
0.509,1.49,-1.92,1.16,0.35,-1.43,-0.70,
0.511,1.49,-1.92,1.16,0.37,-1.36,-0.70,
0.521,1.49,-1.92,1.16,0.38,-1.30,-0.70,
0.521,1.96,-2.08,1.16,0.38,-1.30,-0.70,
0.521,1.96,-2.08,1.16,0.40,-1.24,-0.71,
0.522,1.96,-2.08,1.16,0.41,-1.18,-0.72,
0.522,1.96,-2.08,1.16,0.42,-1.12,-0.73,
0.522,1.96,-2.08,1.16,0.44,-1.07,-0.74,
0.524,1.96,-2.08,1.16,0.45,-1.02,-0.75,
0.525,2.44,-2.50,0.63,0.45,-1.02,-0.75,
0.525,2.44,-2.50,0.63,0.45,-0.96,-0.77,
0.527,2.44,-2.50,0.63,0.46,-0.91,-0.79,
0.529,2.44,-2.50,0.63,0.47,-0.85,-0.80,
0.531,2.44,-2.50,0.63,0.47,-0.80,-0.82,
0.533,2.44,-2.50,0.63,0.47,-0.75,-0.84,
0.536,2.36,-2.61,-0.26,0.47,-0.75,-0.84,
0.536,2.36,-2.61,-0.26,0.47,-0.72,-0.86,
0.536,2.36,-2.61,-0.26,0.47,-0.68,-0.89,
0.539,2.36,-2.61,-0.26,0.47,-0.65,-0.91,
0.541,2.36,-2.61,-0.26,0.47,-0.62,-0.94,
0.543,2.36,-2.61,-0.26,0.46,-0.60,-0.96,
0.545,2.20,-2.75,-0.97,0.46,-0.60,-0.96,
0.546,2.20,-2.75,-0.97,0.46,-0.57,-0.99,
0.546,2.20,-2.75,-0.97,0.46,-0.55,-1.01,
0.549,2.20,-2.75,-0.97,0.46,-0.53,-1.03,
0.551,2.20,-2.75,-0.97,0.46,-0.52,-1.05,
0.552,2.20,-2.75,-0.97,0.46,-0.51,-1.07,
0.555,1.68,-2.60,-1.62,0.46,-0.51,-1.07,
0.555,1.68,-2.60,-1.62,0.46,-0.50,-1.09,
0.557,1.68,-2.60,-1.62,0.46,-0.49,-1.11,
0.559,1.68,-2.60,-1.62,0.45,-0.49,-1.13,
0.56,1.68,-2.60,-1.62,0.45,-0.49,-1.14,
0.563,1.68,-2.60,-1.62,0.44,-0.50,-1.16,
0.565,1.20,-2.48,-2.27,0.44,-0.50,-1.16,
0.565,1.20,-2.48,-2.27,0.43,-0.50,-1.17,
0.567,1.20,-2.48,-2.27,0.42,-0.51,-1.19,
0.568,1.20,-2.48,-2.27,0.41,-0.53,-1.20,
0.573,1.20,-2.48,-2.27,0.40,-0.54,-1.22,
0.573,1.20,-2.48,-2.27,0.38,-0.56,-1.23,
0.576,0.69,-2.39,-2.86,0.38,-0.56,-1.23,
0.576,0.69,-2.39,-2.86,0.37,-0.58,-1.24,
0.577,0.69,-2.39,-2.86,0.34,-0.60,-1.25,
0.579,0.69,-2.39,-2.86,0.32,-0.61,-1.26,
0.58,0.69,-2.39,-2.86,0.30,-0.62,-1.27,
0.582,0.69,-2.39,-2.86,0.29,-0.64,-1.27,
0.597,0.27,-2.36,-3.18,0.29,-0.64,-1.27,
0.597,0.27,-2.36,-3.18,0.27,-0.65,-1.28,
0.598,0.27,-2.36,-3.18,0.26,-0.65,-1.28,
0.598,0.27,-2.36,-3.18,0.25,-0.66,-1.28,
0.598,0.27,-2.36,-3.18,0.23,-0.66,-1.28,
0.598,0.27,-2.36,-3.18,0.23,-0.66,-1.28,
0.598,-0.10,-2.27,-3.14,0.23,-0.66,-1.28,
0.598,-0.10,-2.27,-3.14,0.22,-0.66,-1.28,
0.599,-0.10,-2.27,-3.14,0.22,-0.66,-1.28,
0.599,-0.10,-2.27,-3.14,0.22,-0.65,-1.27,
0.601,-0.10,-2.27,-3.14,0.22,-0.65,-1.27,
0.603,-0.10,-2.27,-3.14,0.22,-0.64,-1.26,
0.606,-0.31,-2.24,-2.94,0.22,-0.64,-1.26,
0.606,-0.31,-2.24,-2.94,0.22,-0.63,-1.25,
0.609,-0.31,-2.24,-2.94,0.22,-0.62,-1.24,
0.61,-0.31,-2.24,-2.94,0.22,-0.61,-1.22,
0.611,-0.31,-2.24,-2.94,0.23,-0.60,-1.21,
0.613,-0.31,-2.24,-2.94,0.23,-0.60,-1.19,
0.615,-0.49,-2.08,-2.96,0.23,-0.60,-1.19,
0.615,-0.49,-2.08,-2.96,0.23,-0.59,-1.18,
0.616,-0.49,-2.08,-2.96,0.23,-0.58,-1.16,
0.619,-0.49,-2.08,-2.96,0.23,-0.58,-1.14,
0.62,-0.49,-2.08,-2.96,0.23,-0.57,-1.13,
0.623,-0.49,-2.08,-2.96,0.22,-0.57,-1.11,
0.629,-0.58,-1.90,-3.09,0.22,-0.57,-1.11,
0.629,-0.58,-1.90,-3.09,0.22,-0.56,-1.09,
0.629,-0.58,-1.90,-3.09,0.21,-0.56,-1.08,
0.629,-0.58,-1.90,-3.09,0.21,-0.56,-1.06,
0.631,-0.58,-1.90,-3.09,0.21,-0.56,-1.05,
0.633,-0.58,-1.90,-3.09,0.20,-0.56,-1.03,
0.636,-0.55,-1.62,-3.30,0.20,-0.56,-1.03,
0.636,-0.55,-1.62,-3.30,0.19,-0.56,-1.02,
0.637,-0.55,-1.62,-3.30,0.19,-0.56,-1.00,
0.639,-0.55,-1.62,-3.30,0.18,-0.56,-0.99,
0.653,-0.55,-1.62,-3.30,0.17,-0.57,-0.98,
0.653,-0.55,-1.62,-3.30,0.16,-0.57,-0.97,
0.653,-0.41,-1.37,-3.57,0.16,-0.57,-0.97,
0.653,-0.41,-1.37,-3.57,0.15,-0.58,-0.97,
0.653,-0.41,-1.37,-3.57,0.13,-0.59,-0.96,
0.653,-0.41,-1.37,-3.57,0.12,-0.59,-0.96,
0.654,-0.41,-1.37,-3.57,0.11,-0.58,-0.96,
0.654,-0.41,-1.37,-3.57,0.09,-0.58,-0.96,
0.655,-0.22,-1.08,-3.67,0.09,-0.58,-0.96,
0.655,-0.22,-1.08,-3.67,0.08,-0.57,-0.96,
0.659,-0.22,-1.08,-3.67,0.07,-0.55,-0.96,
0.661,-0.22,-1.08,-3.67,0.06,-0.54,-0.96,
0.662,-0.22,-1.08,-3.67,0.05,-0.52,-0.96,
0.663,-0.22,-1.08,-3.67,0.04,-0.50,-0.96,
0.667,-0.10,-0.78,-3.67,0.04,-0.50,-0.96,
0.667,-0.10,-0.78,-3.67,0.03,-0.48,-0.97,
0.668,-0.10,-0.78,-3.67,0.01,-0.46,-0.97,
0.669,-0.10,-0.78,-3.67,0.00,-0.44,-0.97,
0.67,-0.10,-0.78,-3.67,-0.01,-0.43,-0.96,
0.672,-0.10,-0.78,-3.67,-0.03,-0.41,-0.97,
0.675,-0.25,-0.60,-3.69,-0.03,-0.41,-0.97,
0.675,-0.25,-0.60,-3.69,-0.04,-0.39,-0.96,
0.676,-0.25,-0.60,-3.69,-0.06,-0.36,-0.96,
0.687,-0.25,-0.60,-3.69,-0.07,-0.34,-0.95,
0.687,-0.25,-0.60,-3.69,-0.09,-0.32,-0.94,
0.687,-0.25,-0.60,-3.69,-0.10,-0.29,-0.93,
0.688,-0.66,-0.38,-3.81,-0.10,-0.29,-0.93,
0.688,-0.66,-0.38,-3.81,-0.13,-0.27,-0.92,
0.688,-0.66,-0.38,-3.81,-0.15,-0.25,-0.90,
0.69,-0.66,-0.38,-3.81,-0.17,-0.23,-0.89,
0.691,-0.66,-0.38,-3.81,-0.20,-0.21,-0.88,
0.693,-0.66,-0.38,-3.81,-0.23,-0.19,-0.86,
0.695,-1.05,-0.24,-4.00,-0.23,-0.19,-0.86,
0.696,-1.05,-0.24,-4.00,-0.25,-0.17,-0.84,
0.697,-1.05,-0.24,-4.00,-0.28,-0.15,-0.82,
0.699,-1.05,-0.24,-4.00,-0.31,-0.13,-0.79,
0.701,-1.05,-0.24,-4.00,-0.34,-0.12,-0.76,
0.702,-1.05,-0.24,-4.00,-0.37,-0.11,-0.72,
0.705,-1.59,-0.03,-3.96,-0.37,-0.11,-0.72,
0.705,-1.59,-0.03,-3.96,-0.40,-0.09,-0.68,
0.707,-1.59,-0.03,-3.96,-0.43,-0.08,-0.64,
0.709,-1.59,-0.03,-3.96,-0.46,-0.07,-0.59,
0.711,-1.59,-0.03,-3.96,-0.48,-0.06,-0.54,
0.715,-1.59,-0.03,-3.96,-0.50,-0.05,-0.48,
0.717,-2.11,0.14,-3.42,-0.50,-0.05,-0.48,
0.718,-2.11,0.14,-3.42,-0.52,-0.04,-0.42,
0.718,-2.11,0.14,-3.42,-0.54,-0.03,-0.36,
0.719,-2.11,0.14,-3.42,-0.56,-0.03,-0.30,
0.721,-2.11,0.14,-3.42,-0.58,-0.02,-0.24,
0.723,-2.11,0.14,-3.42,-0.59,-0.02,-0.18,
0.726,-2.06,0.55,-2.47,-0.59,-0.02,-0.18,
0.726,-2.06,0.55,-2.47,-0.59,-0.02,-0.12,
0.727,-2.06,0.55,-2.47,-0.59,-0.02,-0.07,
0.729,-2.06,0.55,-2.47,-0.59,-0.02,-0.02,
0.731,-2.06,0.55,-2.47,-0.59,-0.02,0.01,
0.733,-2.06,0.55,-2.47,-0.58,-0.02,0.04,
0.736,-0.97,1.21,-1.21,-0.58,-0.02,0.04,
0.736,-0.97,1.21,-1.21,-0.57,-0.02,0.07,
0.737,-0.97,1.21,-1.21,-0.55,-0.02,0.08,
0.739,-0.97,1.21,-1.21,-0.54,-0.02,0.09,
0.746,-0.97,1.21,-1.21,-0.52,-0.02,0.09,
0.746,-0.97,1.21,-1.21,-0.50,-0.02,0.08,
0.747,0.59,2.22,0.00,-0.50,-0.02,0.08,
0.747,0.59,2.22,0.00,-0.48,-0.02,0.06,
0.747,0.59,2.22,0.00,-0.45,-0.03,0.03,
0.749,0.59,2.22,0.00,-0.43,-0.03,-0.00,
0.751,0.59,2.22,0.00,-0.41,-0.04,-0.04,
0.773,0.59,2.22,0.00,-0.39,-0.04,-0.09,
0.774,1.97,3.11,0.85,-0.39,-0.04,-0.09,
0.774,1.97,3.11,0.85,-0.37,-0.05,-0.15,
0.774,1.97,3.11,0.85,-0.35,-0.06,-0.21,
0.774,1.97,3.11,0.85,-0.33,-0.08,-0.27,
0.774,1.97,3.11,0.85,-0.31,-0.09,-0.34,
0.775,1.97,3.11,0.85,-0.29,-0.10,-0.41,
0.775,2.80,3.49,1.58,-0.29,-0.10,-0.41,
0.775,2.80,3.49,1.58,-0.27,-0.10,-0.49,
0.775,2.80,3.49,1.58,-0.25,-0.10,-0.56,
0.775,2.80,3.49,1.58,-0.24,-0.10,-0.64,
0.775,2.80,3.49,1.58,-0.22,-0.09,-0.71,
0.776,2.80,3.49,1.58,-0.20,-0.07,-0.78,
0.776,2.55,3.29,2.09,-0.20,-0.07,-0.78,
0.776,2.55,3.29,2.09,-0.19,-0.05,-0.84,
0.78,2.55,3.29,2.09,-0.18,-0.03,-0.90,
0.78,2.55,3.29,2.09,-0.17,-0.01,-0.95,
0.781,2.55,3.29,2.09,-0.16,0.02,-0.99,
0.783,2.55,3.29,2.09,-0.16,0.05,-1.03,
0.785,1.41,3.04,2.30,-0.16,0.05,-1.03,
0.785,1.41,3.04,2.30,-0.16,0.08,-1.06,
0.787,1.41,3.04,2.30,-0.16,0.11,-1.09,
0.789,1.41,3.04,2.30,-0.16,0.14,-1.11,
0.791,1.41,3.04,2.30,-0.17,0.17,-1.12,
0.793,1.41,3.04,2.30,-0.17,0.21,-1.12,
0.795,-0.05,2.68,2.41,-0.17,0.21,-1.12,
0.795,-0.05,2.68,2.41,-0.17,0.25,-1.11,
0.797,-0.05,2.68,2.41,-0.18,0.28,-1.11,
0.799,-0.05,2.68,2.41,-0.18,0.32,-1.09,
0.802,-0.05,2.68,2.41,-0.19,0.36,-1.07,
0.803,-0.05,2.68,2.41,-0.19,0.39,-1.05,
0.805,-1.32,2.42,2.43,-0.19,0.39,-1.05,
0.806,-1.32,2.42,2.43,-0.20,0.43,-1.02,
0.808,-1.32,2.42,2.43,-0.21,0.47,-0.99,
0.809,-1.32,2.42,2.43,-0.22,0.50,-0.96,
0.811,-1.32,2.42,2.43,-0.23,0.53,-0.92,
0.814,-1.32,2.42,2.43,-0.24,0.56,-0.89,
0.816,-1.93,2.06,2.29,-0.24,0.56,-0.89,
0.816,-1.93,2.06,2.29,-0.25,0.58,-0.86,
0.816,-1.93,2.06,2.29,-0.26,0.61,-0.83,
0.819,-1.93,2.06,2.29,-0.27,0.63,-0.80,
0.821,-1.93,2.06,2.29,-0.28,0.64,-0.77,
0.823,-1.93,2.06,2.29,-0.29,0.66,-0.75,
0.826,-2.07,1.82,2.51,-0.29,0.66,-0.75,
0.826,-2.07,1.82,2.51,-0.28,0.67,-0.72,
0.827,-2.07,1.82,2.51,-0.28,0.68,-0.70,
0.83,-2.07,1.82,2.51,-0.28,0.69,-0.68,
0.831,-2.07,1.82,2.51,-0.27,0.69,-0.66,
0.833,-2.07,1.82,2.51,-0.25,0.69,-0.64,
0.835,-1.89,1.65,3.02,-0.25,0.69,-0.64,
0.836,-1.89,1.65,3.02,-0.24,0.68,-0.63,
0.837,-1.89,1.65,3.02,-0.22,0.67,-0.61,
0.84,-1.89,1.65,3.02,-0.20,0.65,-0.60,
0.841,-1.89,1.65,3.02,-0.18,0.64,-0.59,
0.843,-1.89,1.65,3.02,-0.16,0.62,-0.58,
0.849,-1.59,1.55,3.69,-0.16,0.62,-0.58,
0.866,-1.59,1.55,3.69,-0.12,0.61,-0.58,
0.866,-1.59,1.55,3.69,-0.09,0.60,-0.58,
0.866,-1.59,1.55,3.69,-0.05,0.59,-0.58,
0.867,-1.59,1.55,3.69,-0.01,0.59,-0.58,
0.867,-1.59,1.55,3.69,0.03,0.60,-0.58,
0.867,-1.36,1.57,4.17,0.03,0.60,-0.58,
0.867,-1.36,1.57,4.17,0.07,0.60,-0.58,
0.867,-1.36,1.57,4.17,0.11,0.61,-0.58,
0.867,-1.36,1.57,4.17,0.15,0.61,-0.58,
0.867,-1.36,1.57,4.17,0.19,0.62,-0.57,
0.868,-1.36,1.57,4.17,0.22,0.62,-0.58,
0.868,-1.55,1.57,3.96,0.22,0.62,-0.58,
0.868,-1.55,1.57,3.96,0.26,0.62,-0.57,
0.868,-1.55,1.57,3.96,0.28,0.60,-0.57,
0.872,-1.55,1.57,3.96,0.31,0.59,-0.56,
0.873,-1.55,1.57,3.96,0.32,0.57,-0.55,
0.873,-1.55,1.57,3.96,0.33,0.55,-0.54,
0.875,-1.92,1.32,3.13,0.33,0.55,-0.54,
0.876,-1.92,1.32,3.13,0.34,0.53,-0.53,
0.877,-1.92,1.32,3.13,0.34,0.50,-0.52,
0.879,-1.92,1.32,3.13,0.33,0.47,-0.50,
0.881,-1.92,1.32,3.13,0.32,0.43,-0.49,
0.883,-1.92,1.32,3.13,0.31,0.40,-0.47,
0.886,-2.34,1.05,2.30,0.31,0.40,-0.47,
0.886,-2.34,1.05,2.30,0.29,0.36,-0.45,
0.887,-2.34,1.05,2.30,0.27,0.32,-0.44,
0.889,-2.34,1.05,2.30,0.25,0.29,-0.42,
0.891,-2.34,1.05,2.30,0.23,0.25,-0.40,
0.893,-2.34,1.05,2.30,0.21,0.23,-0.38,
0.898,-2.57,0.73,2.13,0.21,0.23,-0.38,
0.898,-2.57,0.73,2.13,0.18,0.20,-0.37,
0.898,-2.57,0.73,2.13,0.16,0.18,-0.35,
0.899,-2.57,0.73,2.13,0.15,0.17,-0.33,
0.901,-2.57,0.73,2.13,0.13,0.16,-0.31,
0.903,-2.57,0.73,2.13,0.12,0.16,-0.29,
0.909,-2.77,0.30,2.62,0.12,0.16,-0.29,
0.91,-2.77,0.30,2.62,0.11,0.16,-0.27,
0.91,-2.77,0.30,2.62,0.10,0.17,-0.25,
0.91,-2.77,0.30,2.62,0.09,0.18,-0.23,
0.913,-2.77,0.30,2.62,0.09,0.19,-0.21,
0.913,-2.77,0.30,2.62,0.09,0.22,-0.18,
0.916,-2.80,-0.16,3.31,0.09,0.22,-0.18,
0.916,-2.80,-0.16,3.31,0.09,0.24,-0.16,
0.917,-2.80,-0.16,3.31,0.10,0.27,-0.14,
0.93,-2.80,-0.16,3.31,0.10,0.30,-0.11,
0.93,-2.80,-0.16,3.31,0.11,0.32,-0.08,
0.93,-2.80,-0.16,3.31,0.12,0.35,-0.06,
0.93,-3.00,-0.59,3.82,0.12,0.35,-0.06,
0.93,-3.00,-0.59,3.82,0.14,0.38,-0.03,
0.934,-3.00,-0.59,3.82,0.15,0.41,0.00,
0.934,-3.00,-0.59,3.82,0.17,0.43,0.03,
0.934,-3.00,-0.59,3.82,0.18,0.45,0.06,
0.934,-3.00,-0.59,3.82,0.20,0.46,0.09,
0.936,-3.13,-0.86,4.02,0.20,0.46,0.09,
0.936,-3.13,-0.86,4.02,0.21,0.47,0.12,
0.938,-3.13,-0.86,4.02,0.23,0.48,0.15,
0.941,-3.13,-0.86,4.02,0.25,0.49,0.18,
0.941,-3.13,-0.86,4.02,0.26,0.49,0.21,
0.943,-3.13,-0.86,4.02,0.27,0.49,0.24,
0.946,-3.27,-1.09,4.00,0.27,0.49,0.24,
0.946,-3.27,-1.09,4.00,0.29,0.49,0.27,
0.951,-3.27,-1.09,4.00,0.30,0.49,0.29,
0.951,-3.27,-1.09,4.00,0.31,0.49,0.32,
0.952,-3.27,-1.09,4.00,0.32,0.48,0.35,
0.952,-3.27,-1.09,4.00,0.33,0.48,0.37,
0.957,-3.15,-1.18,3.73,0.33,0.48,0.37,
0.957,-3.15,-1.18,3.73,0.34,0.47,0.40,
0.957,-3.15,-1.18,3.73,0.35,0.45,0.42,
0.959,-3.15,-1.18,3.73,0.35,0.44,0.44,
0.96,-3.15,-1.18,3.73,0.35,0.43,0.46,
0.963,-3.15,-1.18,3.73,0.35,0.41,0.49,
0.965,-3.10,-1.31,3.39,0.35,0.41,0.49,
0.965,-3.10,-1.31,3.39,0.35,0.39,0.51,
0.966,-3.10,-1.31,3.39,0.35,0.37,0.53,
0.969,-3.10,-1.31,3.39,0.34,0.35,0.55,
0.971,-3.10,-1.31,3.39,0.34,0.34,0.57,
0.973,-3.10,-1.31,3.39,0.34,0.32,0.59,
0.976,-2.91,-1.31,3.10,0.34,0.32,0.59,
0.976,-2.91,-1.31,3.10,0.33,0.30,0.61,
0.977,-2.91,-1.31,3.10,0.32,0.28,0.64,
0.979,-2.91,-1.31,3.10,0.31,0.27,0.65,
0.981,-2.91,-1.31,3.10,0.31,0.26,0.67,
0.983,-2.91,-1.31,3.10,0.30,0.25,0.69,
0.985,-2.72,-1.31,2.87,0.30,0.25,0.69,
0.985,-2.72,-1.31,2.87,0.29,0.23,0.71,
0.986,-2.72,-1.31,2.87,0.28,0.23,0.73,
0.989,-2.72,-1.31,2.87,0.27,0.22,0.74,
0.991,-2.72,-1.31,2.87,0.27,0.22,0.76,
0.993,-2.72,-1.31,2.87,0.25,0.22,0.78,
0.995,-2.39,-1.20,2.61,0.25,0.22,0.78,
0.995,-2.39,-1.20,2.61,0.24,0.22,0.79,
0.996,-2.39,-1.20,2.61,0.23,0.22,0.81,
0.999,-2.39,-1.20,2.61,0.22,0.22,0.83,
1.0,-2.39,-1.20,2.61,0.21,0.22,0.84,
1.003,-2.39,-1.20,2.61,0.20,0.22,0.86,
1.007,-2.10,-1.06,2.33,0.20,0.22,0.86,
1.007,-2.10,-1.06,2.33,0.18,0.21,0.87,
1.008,-2.10,-1.06,2.33,0.17,0.21,0.88,
1.009,-2.10,-1.06,2.33,0.15,0.20,0.89,
1.011,-2.10,-1.06,2.33,0.14,0.19,0.90,
1.02,-2.10,-1.06,2.33,0.12,0.18,0.90,
1.02,-1.57,-0.87,2.01,0.12,0.18,0.90,
1.02,-1.57,-0.87,2.01,0.11,0.17,0.91,
1.02,-1.57,-0.87,2.01,0.09,0.15,0.91,
1.02,-1.57,-0.87,2.01,0.07,0.13,0.91,
1.02,-1.57,-0.87,2.01,0.06,0.12,0.90,
1.026,-1.57,-0.87,2.01,0.04,0.09,0.90,
1.026,-1.00,-0.71,1.90,0.04,0.09,0.90,
1.026,-1.00,-0.71,1.90,0.03,0.07,0.89,
1.026,-1.00,-0.71,1.90,0.02,0.04,0.88,
1.032,-1.00,-0.71,1.90,0.01,0.01,0.86,
1.032,-1.00,-0.71,1.90,0.00,-0.03,0.85,
1.033,-1.00,-0.71,1.90,0.00,-0.06,0.83,
1.035,-0.46,-0.62,2.23,0.00,-0.06,0.83,
1.035,-0.46,-0.62,2.23,0.00,-0.10,0.82,
1.036,-0.46,-0.62,2.23,0.01,-0.13,0.80,
1.047,-0.46,-0.62,2.23,0.02,-0.16,0.78,
1.048,-0.46,-0.62,2.23,0.03,-0.19,0.77,
1.048,-0.46,-0.62,2.23,0.04,-0.22,0.75,
1.048,-0.12,-0.62,2.65,0.04,-0.22,0.75,
1.048,-0.12,-0.62,2.65,0.06,-0.25,0.73,
1.048,-0.12,-0.62,2.65,0.08,-0.27,0.72,
1.049,-0.12,-0.62,2.65,0.09,-0.29,0.70,
1.05,-0.12,-0.62,2.65,0.11,-0.30,0.68,
1.053,-0.12,-0.62,2.65,0.13,-0.31,0.67,
1.055,0.09,-0.61,2.76,0.13,-0.31,0.67,
1.056,0.09,-0.61,2.76,0.15,-0.32,0.65,
1.056,0.09,-0.61,2.76,0.17,-0.33,0.64,
1.059,0.09,-0.61,2.76,0.20,-0.33,0.62,
1.06,0.09,-0.61,2.76,0.21,-0.33,0.61,
1.063,0.09,-0.61,2.76,0.23,-0.32,0.59,
1.065,0.28,-0.66,2.44,0.23,-0.32,0.59,
1.065,0.28,-0.66,2.44,0.25,-0.31,0.58,
1.066,0.28,-0.66,2.44,0.26,-0.31,0.56,
1.068,0.28,-0.66,2.44,0.27,-0.29,0.55,
1.07,0.28,-0.66,2.44,0.28,-0.27,0.53,
1.073,0.28,-0.66,2.44,0.29,-0.25,0.52,
1.075,0.38,-0.73,1.69,0.29,-0.25,0.52,
1.075,0.38,-0.73,1.69,0.30,-0.23,0.50,
1.076,0.38,-0.73,1.69,0.30,-0.21,0.49,
1.078,0.38,-0.73,1.69,0.30,-0.18,0.48,
1.08,0.38,-0.73,1.69,0.30,-0.16,0.47,
1.082,0.38,-0.73,1.69,0.29,-0.13,0.45,
1.085,0.44,-0.83,0.69,0.29,-0.13,0.45,
1.096,0.44,-0.83,0.69,0.28,-0.10,0.44,
1.096,0.44,-0.83,0.69,0.27,-0.07,0.43,
1.096,0.44,-0.83,0.69,0.26,-0.04,0.42,
1.097,0.44,-0.83,0.69,0.24,-0.01,0.41,
1.097,0.44,-0.83,0.69,0.22,0.02,0.40,
1.097,0.37,-0.97,-0.32,0.22,0.02,0.40,
1.097,0.37,-0.97,-0.32,0.20,0.05,0.39,
1.097,0.37,-0.97,-0.32,0.18,0.08,0.38,
1.099,0.37,-0.97,-0.32,0.16,0.11,0.37,
1.101,0.37,-0.97,-0.32,0.14,0.15,0.37,
1.103,0.37,-0.97,-0.32,0.11,0.18,0.36,
1.105,0.28,-1.11,-1.20,0.11,0.18,0.36,
1.106,0.28,-1.11,-1.20,0.09,0.21,0.35,
1.107,0.28,-1.11,-1.20,0.07,0.25,0.35,
1.109,0.28,-1.11,-1.20,0.04,0.28,0.34,
1.111,0.28,-1.11,-1.20,0.01,0.31,0.34,
1.112,0.28,-1.11,-1.20,-0.01,0.35,0.34,
1.115,0.13,-1.28,-1.88,-0.01,0.35,0.34,
1.115,0.13,-1.28,-1.88,-0.03,0.38,0.33,
1.116,0.13,-1.28,-1.88,-0.05,0.42,0.33,
1.119,0.13,-1.28,-1.88,-0.07,0.46,0.33,
1.121,0.13,-1.28,-1.88,-0.09,0.49,0.33,
1.123,0.13,-1.28,-1.88,-0.10,0.53,0.33,
1.125,0.02,-1.48,-2.31,-0.10,0.53,0.33,
1.125,0.02,-1.48,-2.31,-0.12,0.56,0.32,
1.127,0.02,-1.48,-2.31,-0.13,0.60,0.32,
1.129,0.02,-1.48,-2.31,-0.15,0.63,0.32,
1.13,0.02,-1.48,-2.31,-0.16,0.66,0.33,
1.133,0.02,-1.48,-2.31,-0.17,0.68,0.33,
1.135,-0.15,-1.61,-2.71,-0.17,0.68,0.33,
1.135,-0.15,-1.61,-2.71,-0.19,0.71,0.33,
1.136,-0.15,-1.61,-2.71,-0.19,0.73,0.34,
1.139,-0.15,-1.61,-2.71,-0.20,0.76,0.35,
1.141,-0.15,-1.61,-2.71,-0.20,0.78,0.36,
1.143,-0.15,-1.61,-2.71,-0.20,0.79,0.37,
1.146,-0.40,-1.66,-2.93,-0.20,0.79,0.37,
1.146,-0.40,-1.66,-2.93,-0.20,0.81,0.38,
1.147,-0.40,-1.66,-2.93,-0.20,0.82,0.39,
1.149,-0.40,-1.66,-2.93,-0.20,0.83,0.40,
1.151,-0.40,-1.66,-2.93,-0.20,0.83,0.42,
1.153,-0.40,-1.66,-2.93,-0.19,0.83,0.43,
1.156,-0.60,-1.68,-3.08,-0.19,0.83,0.43,
1.16,-0.60,-1.68,-3.08,-0.17,0.82,0.48,
1.161,-0.60,-1.68,-3.08,-0.17,0.82,0.48,
1.163,-0.60,-1.68,-3.08,-0.15,0.81,0.51,
1.164,-0.60,-1.68,-3.08,-0.15,0.80,0.52,
1.164,-0.60,-1.68,-3.08,-0.15,0.80,0.52,
1.166,-0.69,-1.65,-3.20,-0.15,0.80,0.52,
1.166,-0.69,-1.65,-3.20,-0.13,0.78,0.54,
1.167,-0.69,-1.65,-3.20,-0.12,0.77,0.56,
1.169,-0.69,-1.65,-3.20,-0.10,0.75,0.58,
1.171,-0.69,-1.65,-3.20,-0.08,0.73,0.60,
1.179,-0.69,-1.65,-3.20,-0.07,0.71,0.62,
1.181,-0.67,-1.62,-3.23,-0.07,0.71,0.62,
1.181,-0.67,-1.62,-3.23,-0.05,0.68,0.64,
1.181,-0.67,-1.62,-3.23,-0.03,0.66,0.66,
1.197,-0.67,-1.62,-3.23,-0.01,0.64,0.69,
1.197,-0.67,-1.62,-3.23,0.01,0.62,0.71,
1.197,-0.67,-1.62,-3.23,0.03,0.60,0.73,
1.197,-0.76,-1.52,-3.22,0.03,0.60,0.73,
1.197,-0.76,-1.52,-3.22,0.06,0.58,0.76,
1.197,-0.76,-1.52,-3.22,0.09,0.56,0.78,
1.198,-0.76,-1.52,-3.22,0.11,0.54,0.81,
1.198,-0.76,-1.52,-3.22,0.14,0.51,0.83,
1.198,-0.76,-1.52,-3.22,0.17,0.48,0.86,
1.198,-0.64,-1.43,-3.07,0.17,0.48,0.86,
1.198,-0.64,-1.43,-3.07,0.19,0.45,0.88,
1.209,-0.64,-1.43,-3.07,0.21,0.41,0.90,
1.21,-0.64,-1.43,-3.07,0.24,0.38,0.91,
1.21,-0.64,-1.43,-3.07,0.26,0.34,0.93,
1.21,-0.64,-1.43,-3.07,0.28,0.30,0.95,
1.21,-0.20,-1.59,-3.05,0.28,0.30,0.95,
1.21,-0.20,-1.59,-3.05,0.30,0.26,0.96,
1.21,-0.20,-1.59,-3.05,0.32,0.23,0.98,
1.211,-0.20,-1.59,-3.05,0.35,0.19,0.99,
1.211,-0.20,-1.59,-3.05,0.37,0.16,1.00,
1.213,-0.20,-1.59,-3.05,0.39,0.14,1.01,
1.215,0.05,-1.49,-2.95,0.39,0.14,1.01,
1.216,0.05,-1.49,-2.95,0.41,0.11,1.03,
1.217,0.05,-1.49,-2.95,0.43,0.09,1.03,
1.219,0.05,-1.49,-2.95,0.45,0.07,1.04,
1.221,0.05,-1.49,-2.95,0.47,0.06,1.05,
1.223,0.05,-1.49,-2.95,0.49,0.05,1.06,
1.226,0.32,-1.29,-2.89,0.49,0.05,1.06,
1.226,0.32,-1.29,-2.89,0.51,0.04,1.06,
1.227,0.32,-1.29,-2.89,0.53,0.03,1.06,
1.229,0.32,-1.29,-2.89,0.55,0.02,1.06,
1.232,0.32,-1.29,-2.89,0.56,0.01,1.06,
1.233,0.32,-1.29,-2.89,0.58,-0.00,1.06,
1.235,0.70,-1.14,-2.91,0.58,-0.00,1.06,
1.236,0.70,-1.14,-2.91,0.59,-0.02,1.05,
1.237,0.70,-1.14,-2.91,0.60,-0.03,1.05,
1.239,0.70,-1.14,-2.91,0.61,-0.04,1.04,
1.241,0.70,-1.14,-2.91,0.62,-0.05,1.03,
1.243,0.70,-1.14,-2.91,0.63,-0.06,1.02,
1.245,1.00,-1.02,-2.97,0.63,-0.06,1.02,
1.246,1.00,-1.02,-2.97,0.64,-0.08,1.01,
1.247,1.00,-1.02,-2.97,0.64,-0.09,1.00,
1.249,1.00,-1.02,-2.97,0.64,-0.10,0.99,
1.251,1.00,-1.02,-2.97,0.65,-0.12,0.97,
1.276,1.00,-1.02,-2.97,0.65,-0.13,0.96,
1.276,1.09,-0.89,-3.08,0.65,-0.13,0.96,
1.276,1.09,-0.89,-3.08,0.64,-0.14,0.95,
1.277,1.09,-0.89,-3.08,0.64,-0.15,0.93,
1.277,1.09,-0.89,-3.08,0.63,-0.17,0.92,
1.277,1.09,-0.89,-3.08,0.63,-0.17,0.90,
1.277,1.09,-0.89,-3.08,0.62,-0.19,0.89,
1.278,1.19,-0.75,-3.22,0.62,-0.19,0.89,
1.278,1.19,-0.75,-3.22,0.61,-0.20,0.87,
1.278,1.19,-0.75,-3.22,0.60,-0.21,0.86,
1.278,1.19,-0.75,-3.22,0.58,-0.22,0.84,
1.279,1.19,-0.75,-3.22,0.57,-0.23,0.82,
1.279,1.19,-0.75,-3.22,0.55,-0.24,0.80,
1.279,1.20,-0.66,-3.28,0.55,-0.24,0.80,
1.28,1.20,-0.66,-3.28,0.53,-0.25,0.78,
1.28,1.20,-0.66,-3.28,0.51,-0.26,0.77,
1.28,1.20,-0.66,-3.28,0.49,-0.27,0.74,
1.285,1.20,-0.66,-3.28,0.47,-0.28,0.72,
1.285,1.20,-0.66,-3.28,0.45,-0.29,0.70,
1.286,1.18,-0.68,-3.12,0.45,-0.29,0.70,
1.286,1.18,-0.68,-3.12,0.42,-0.30,0.68,
1.294,1.18,-0.68,-3.12,0.40,-0.30,0.66,
1.295,1.18,-0.68,-3.12,0.38,-0.30,0.65,
1.295,1.18,-0.68,-3.12,0.36,-0.30,0.63,
1.295,1.18,-0.68,-3.12,0.34,-0.30,0.62,
1.295,1.07,-0.66,-2.78,0.34,-0.30,0.62,
1.295,1.07,-0.66,-2.78,0.32,-0.29,0.60,
1.297,1.07,-0.66,-2.78,0.30,-0.28,0.59,
1.299,1.07,-0.66,-2.78,0.28,-0.27,0.58,
1.301,1.07,-0.66,-2.78,0.26,-0.26,0.57,
1.303,1.07,-0.66,-2.78,0.24,-0.25,0.56,
1.309,0.94,-0.70,-2.28,0.24,-0.25,0.56,
1.31,0.94,-0.70,-2.28,0.22,-0.23,0.54,
1.31,0.94,-0.70,-2.28,0.21,-0.22,0.54,
1.31,0.94,-0.70,-2.28,0.20,-0.21,0.53,
1.311,0.94,-0.70,-2.28,0.18,-0.20,0.52,
1.313,0.94,-0.70,-2.28,0.17,-0.19,0.51,
1.316,0.77,-0.70,-1.71,0.17,-0.19,0.51,
1.316,0.77,-0.70,-1.71,0.16,-0.18,0.50,
1.317,0.77,-0.70,-1.71,0.15,-0.17,0.50,
1.319,0.77,-0.70,-1.71,0.14,-0.16,0.49,
1.336,0.77,-0.70,-1.71,0.14,-0.15,0.48,
1.337,0.77,-0.70,-1.71,0.14,-0.14,0.48,
1.337,0.63,-0.68,-0.90,0.14,-0.14,0.48,
1.337,0.63,-0.68,-0.90,0.13,-0.13,0.47,
1.337,0.63,-0.68,-0.90,0.14,-0.12,0.47,
1.337,0.63,-0.68,-0.90,0.14,-0.11,0.46,
1.337,0.63,-0.68,-0.90,0.15,-0.10,0.46,
1.337,0.63,-0.68,-0.90,0.16,-0.08,0.46,
1.338,0.55,-0.62,-0.18,0.16,-0.08,0.46,
1.338,0.55,-0.62,-0.18,0.17,-0.07,0.46,
1.338,0.55,-0.62,-0.18,0.19,-0.06,0.45,
1.339,0.55,-0.62,-0.18,0.20,-0.05,0.45,
1.341,0.55,-0.62,-0.18,0.22,-0.04,0.45,
1.343,0.55,-0.62,-0.18,0.23,-0.03,0.44,
1.345,0.53,-0.59,0.35,0.23,-0.03,0.44,
1.356,0.53,-0.59,0.35,0.25,-0.03,0.44,
1.356,0.53,-0.59,0.35,0.26,-0.02,0.44,
1.356,0.53,-0.59,0.35,0.27,-0.02,0.44,
1.357,0.53,-0.59,0.35,0.28,-0.02,0.43,
1.357,0.53,-0.59,0.35,0.29,-0.03,0.43,
1.357,0.46,-0.44,0.40,0.29,-0.03,0.43,
1.357,0.46,-0.44,0.40,0.30,-0.03,0.42,
1.357,0.46,-0.44,0.40,0.30,-0.04,0.42,
1.36,0.46,-0.44,0.40,0.30,-0.05,0.42,
1.361,0.46,-0.44,0.40,0.29,-0.06,0.41,
1.363,0.46,-0.44,0.40,0.29,-0.08,0.40,
1.365,0.36,-0.31,0.21,0.29,-0.08,0.40,
1.365,0.36,-0.31,0.21,0.27,-0.09,0.40,
1.366,0.36,-0.31,0.21,0.26,-0.11,0.39,
1.368,0.36,-0.31,0.21,0.25,-0.13,0.38,
1.371,0.36,-0.31,0.21,0.23,-0.15,0.37,
1.373,0.36,-0.31,0.21,0.21,-0.18,0.36,
1.375,0.36,-0.22,0.13,0.21,-0.18,0.36,
1.375,0.36,-0.22,0.13,0.19,-0.20,0.35,
1.376,0.36,-0.22,0.13,0.16,-0.23,0.34,
1.378,0.36,-0.22,0.13,0.14,-0.25,0.32,
1.38,0.36,-0.22,0.13,0.11,-0.28,0.31,
1.382,0.36,-0.22,0.13,0.08,-0.31,0.29,
1.385,0.43,-0.15,0.25,0.08,-0.31,0.29,
1.385,0.43,-0.15,0.25,0.05,-0.33,0.28,
1.387,0.43,-0.15,0.25,0.02,-0.35,0.27,
1.389,0.43,-0.15,0.25,-0.01,-0.38,0.25,
1.391,0.43,-0.15,0.25,-0.04,-0.40,0.24,
1.392,0.43,-0.15,0.25,-0.07,-0.42,0.22,
1.395,0.47,-0.06,0.66,-0.07,-0.42,0.22,
1.395,0.47,-0.06,0.66,-0.10,-0.44,0.21,
1.397,0.47,-0.06,0.66,-0.13,-0.46,0.20,
1.399,0.47,-0.06,0.66,-0.15,-0.47,0.18,
1.401,0.47,-0.06,0.66,-0.17,-0.49,0.17,
1.403,0.47,-0.06,0.66,-0.18,-0.51,0.16,
1.406,0.59,-0.02,1.45,-0.18,-0.51,0.16,
1.406,0.59,-0.02,1.45,-0.19,-0.53,0.15,
1.409,0.59,-0.02,1.45,-0.20,-0.55,0.14,
1.409,0.59,-0.02,1.45,-0.20,-0.56,0.12,
1.411,0.59,-0.02,1.45,-0.21,-0.58,0.11,
1.413,0.59,-0.02,1.45,-0.21,-0.60,0.09,
1.415,0.73,0.04,2.19,-0.21,-0.60,0.09,
1.416,0.73,0.04,2.19,-0.21,-0.62,0.08,
1.417,0.73,0.04,2.19,-0.20,-0.63,0.07,
1.445,0.73,0.04,2.19,-0.20,-0.64,0.06,
1.446,0.73,0.04,2.19,-0.19,-0.66,0.05,
1.446,0.73,0.04,2.19,-0.18,-0.67,0.05,
1.446,0.73,0.03,2.71,-0.18,-0.67,0.05,
1.446,0.73,0.03,2.71,-0.17,-0.68,0.04,
1.447,0.73,0.03,2.71,-0.16,-0.69,0.04,
1.447,0.73,0.03,2.71,-0.15,-0.70,0.04,
1.447,0.73,0.03,2.71,-0.14,-0.70,0.04,
1.447,0.73,0.03,2.71,-0.12,-0.71,0.04,
1.448,0.51,0.18,3.00,-0.12,-0.71,0.04,
1.448,0.51,0.18,3.00,-0.11,-0.71,0.04,
1.448,0.51,0.18,3.00,-0.09,-0.72,0.05,
1.448,0.51,0.18,3.00,-0.08,-0.73,0.06,
1.449,0.51,0.18,3.00,-0.06,-0.74,0.06,
1.449,0.51,0.18,3.00,-0.05,-0.75,0.07,
1.449,0.35,0.36,3.04,-0.05,-0.75,0.07,
1.449,0.35,0.36,3.04,-0.03,-0.77,0.08,
1.45,0.35,0.36,3.04,-0.02,-0.79,0.08,
1.45,0.35,0.36,3.04,-0.01,-0.81,0.09,
1.463,0.35,0.36,3.04,-0.01,-0.83,0.09,
1.463,0.35,0.36,3.04,0.00,-0.85,0.10,
1.464,0.48,0.46,2.83,0.00,-0.85,0.10,
1.464,0.48,0.46,2.83,0.01,-0.88,0.10,
1.464,0.48,0.46,2.83,0.00,-0.90,0.10,
1.464,0.48,0.46,2.83,0.00,-0.92,0.10,
1.464,0.48,0.46,2.83,-0.00,-0.93,0.09,
1.465,0.48,0.46,2.83,-0.01,-0.95,0.08,
1.468,0.90,0.66,2.43,-0.01,-0.95,0.08,
1.468,0.90,0.66,2.43,-0.03,-0.96,0.07,
1.469,0.90,0.66,2.43,-0.05,-0.98,0.06,
1.5,0.90,0.66,2.43,-0.07,-0.99,0.04,
1.501,0.90,0.66,2.43,-0.09,-1.00,0.02,
1.501,0.90,0.66,2.43,-0.12,-1.01,-0.00,
1.501,1.49,0.90,2.07,-0.12,-1.01,-0.00,
1.501,1.49,0.90,2.07,-0.15,-1.03,-0.03,
1.502,1.49,0.90,2.07,-0.19,-1.04,-0.06,
1.502,1.49,0.90,2.07,-0.22,-1.04,-0.09,
1.502,1.49,0.90,2.07,-0.25,-1.04,-0.13,
1.502,1.49,0.90,2.07,-0.29,-1.04,-0.16,
1.502,2.07,0.98,2.08,-0.29,-1.04,-0.16,
1.503,2.07,0.98,2.08,-0.32,-1.03,-0.20,
1.503,2.07,0.98,2.08,-0.35,-1.02,-0.23,
1.503,2.07,0.98,2.08,-0.39,-1.01,-0.27,
1.503,2.07,0.98,2.08,-0.41,-0.99,-0.30,
1.504,2.07,0.98,2.08,-0.45,-0.96,-0.33,
1.504,2.19,0.96,2.36,-0.45,-0.96,-0.33,
1.504,2.19,0.96,2.36,-0.47,-0.94,-0.36,
1.504,2.19,0.96,2.36,-0.50,-0.90,-0.38,
1.505,2.19,0.96,2.36,-0.52,-0.87,-0.41,
1.505,2.19,0.96,2.36,-0.55,-0.83,-0.43,
1.505,2.19,0.96,2.36,-0.57,-0.78,-0.44,
1.51,2.08,0.75,2.90,-0.57,-0.78,-0.44,
1.51,2.08,0.75,2.90,-0.59,-0.73,-0.46,
1.511,2.08,0.75,2.90,-0.60,-0.68,-0.47,
1.512,2.08,0.75,2.90,-0.62,-0.63,-0.48,
1.512,2.08,0.75,2.90,-0.63,-0.57,-0.49,
1.53,2.08,0.75,2.90,-0.64,-0.51,-0.50,
1.531,1.82,0.40,3.50,-0.64,-0.51,-0.50,
1.531,1.82,0.40,3.50,-0.65,-0.45,-0.50,
1.532,1.82,0.40,3.50,-0.66,-0.39,-0.50,
1.534,1.82,0.40,3.50,-0.66,-0.34,-0.50,
1.536,1.82,0.40,3.50,-0.65,-0.28,-0.49,
1.536,1.82,0.40,3.50,-0.65,-0.22,-0.48,
1.536,1.58,-0.03,4.19,-0.65,-0.22,-0.48,
1.536,1.58,-0.03,4.19,-0.64,-0.17,-0.47,
1.536,1.58,-0.03,4.19,-0.62,-0.11,-0.46,
1.537,1.58,-0.03,4.19,-0.60,-0.05,-0.44,
1.537,1.58,-0.03,4.19,-0.58,0.00,-0.42,
1.537,1.58,-0.03,4.19,-0.55,0.06,-0.40,
1.537,1.39,-0.40,4.66,-0.55,0.06,-0.40,
1.537,1.39,-0.40,4.66,-0.52,0.11,-0.38,
1.538,1.39,-0.40,4.66,-0.49,0.15,-0.36,
1.55,1.39,-0.40,4.66,-0.46,0.20,-0.33,
1.551,1.39,-0.40,4.66,-0.43,0.24,-0.30,
1.551,1.39,-0.40,4.66,-0.39,0.28,-0.28,
1.551,1.35,-0.65,4.63,-0.39,0.28,-0.28,
1.552,1.35,-0.65,4.63,-0.36,0.31,-0.25,
1.552,1.35,-0.65,4.63,-0.33,0.34,-0.22,
1.552,1.35,-0.65,4.63,-0.29,0.36,-0.20,
1.553,1.35,-0.65,4.63,-0.26,0.38,-0.18,
1.555,1.35,-0.65,4.63,-0.23,0.39,-0.15,
1.556,1.44,-0.66,4.10,-0.23,0.39,-0.15,
1.556,1.44,-0.66,4.10,-0.20,0.40,-0.13,
1.557,1.44,-0.66,4.10,-0.18,0.41,-0.11,
1.559,1.44,-0.66,4.10,-0.15,0.41,-0.09,
1.561,1.44,-0.66,4.10,-0.13,0.41,-0.08,
1.563,1.44,-0.66,4.10,-0.10,0.41,-0.06,
1.565,1.65,-0.53,3.35,-0.10,0.41,-0.06,
1.565,1.65,-0.53,3.35,-0.08,0.41,-0.04,
1.567,1.65,-0.53,3.35,-0.07,0.41,-0.03,
1.572,1.65,-0.53,3.35,-0.05,0.40,-0.02,
1.572,1.65,-0.53,3.35,-0.04,0.39,-0.02,
1.581,1.65,-0.53,3.35,-0.03,0.39,-0.02,
1.582,2.11,-0.33,2.46,-0.03,0.39,-0.02,
1.582,2.11,-0.33,2.46,-0.02,0.38,-0.02,
1.582,2.11,-0.33,2.46,-0.01,0.36,-0.03,
1.582,2.11,-0.33,2.46,-0.01,0.35,-0.03,
1.583,2.11,-0.33,2.46,-0.00,0.34,-0.04,
1.583,2.11,-0.33,2.46,-0.00,0.33,-0.06,
1.609,2.79,-0.23,1.44,-0.00,0.33,-0.06,
1.61,2.79,-0.23,1.44,-0.01,0.32,-0.07,
1.61,2.79,-0.23,1.44,-0.01,0.30,-0.09,
1.61,2.79,-0.23,1.44,-0.02,0.29,-0.11,
1.61,2.79,-0.23,1.44,-0.03,0.28,-0.14,
1.61,2.79,-0.23,1.44,-0.04,0.27,-0.16,
1.611,3.05,-0.11,0.56,-0.04,0.27,-0.16,
1.611,3.05,-0.11,0.56,-0.05,0.26,-0.19,
1.611,3.05,-0.11,0.56,-0.07,0.25,-0.21,
1.611,3.05,-0.11,0.56,-0.08,0.25,-0.24,
1.611,3.05,-0.11,0.56,-0.10,0.25,-0.27,
1.612,3.05,-0.11,0.56,-0.12,0.25,-0.29,
1.612,3.13,-0.01,-0.18,-0.12,0.25,-0.29,
1.612,3.13,-0.01,-0.18,-0.14,0.24,-0.32,
1.612,3.13,-0.01,-0.18,-0.16,0.24,-0.35,
1.612,3.13,-0.01,-0.18,-0.18,0.24,-0.38,
1.613,3.13,-0.01,-0.18,-0.20,0.25,-0.40,
1.613,3.13,-0.01,-0.18,-0.22,0.25,-0.43,
1.624,2.91,-0.04,-0.83,-0.22,0.25,-0.43,
1.624,2.91,-0.04,-0.83,-0.25,0.25,-0.46,
1.625,2.91,-0.04,-0.83,-0.27,0.25,-0.48,
1.625,2.91,-0.04,-0.83,-0.29,0.26,-0.51,
1.625,2.91,-0.04,-0.83,-0.31,0.27,-0.53,
1.625,2.91,-0.04,-0.83,-0.34,0.27,-0.55,
1.625,2.55,-0.03,-1.28,-0.34,0.27,-0.55,
1.625,2.55,-0.03,-1.28,-0.36,0.28,-0.57,
1.627,2.55,-0.03,-1.28,-0.38,0.29,-0.59,
1.632,2.55,-0.03,-1.28,-0.40,0.30,-0.61,
1.632,2.55,-0.03,-1.28,-0.42,0.30,-0.63,
1.636,2.55,-0.03,-1.28,-0.44,0.30,-0.65,
1.636,2.19,-0.21,-1.54,-0.44,0.30,-0.65,
1.636,2.19,-0.21,-1.54,-0.46,0.31,-0.67,
1.637,2.19,-0.21,-1.54,-0.48,0.31,-0.68,
1.642,2.19,-0.21,-1.54,-0.49,0.31,-0.70,
1.643,2.19,-0.21,-1.54,-0.51,0.31,-0.72,
1.643,2.19,-0.21,-1.54,-0.52,0.32,-0.73,
1.648,1.88,-0.46,-1.62,-0.52,0.32,-0.73,
1.648,1.88,-0.46,-1.62,-0.53,0.32,-0.74,
1.648,1.88,-0.46,-1.62,-0.54,0.32,-0.75,
1.649,1.88,-0.46,-1.62,-0.54,0.31,-0.76,
1.654,1.88,-0.46,-1.62,-0.54,0.32,-0.77,
1.654,1.88,-0.46,-1.62,-0.54,0.32,-0.77,
1.658,1.41,-0.59,-1.45,-0.54,0.32,-0.77,
1.659,1.41,-0.59,-1.45,-0.54,0.33,-0.78,
1.659,1.41,-0.59,-1.45,-0.53,0.34,-0.78,
1.66,1.41,-0.59,-1.45,-0.52,0.35,-0.78,
1.664,1.41,-0.59,-1.45,-0.50,0.36,-0.78,
1.664,1.41,-0.59,-1.45,-0.49,0.37,-0.78,
1.666,0.99,-0.71,-1.22,-0.49,0.37,-0.78,
1.666,0.99,-0.71,-1.22,-0.47,0.38,-0.78,
1.667,0.99,-0.71,-1.22,-0.44,0.39,-0.78,
1.677,0.99,-0.71,-1.22,-0.41,0.40,-0.77,
1.678,0.99,-0.71,-1.22,-0.38,0.40,-0.76,
1.678,0.99,-0.71,-1.22,-0.35,0.41,-0.75,
1.678,0.49,-0.79,-1.07,-0.35,0.41,-0.75,
1.678,0.49,-0.79,-1.07,-0.31,0.42,-0.74,
1.679,0.49,-0.79,-1.07,-0.27,0.42,-0.73,
1.703,0.49,-0.79,-1.07,-0.24,0.42,-0.71,
1.704,0.49,-0.79,-1.07,-0.19,0.42,-0.70,
1.704,0.49,-0.79,-1.07,-0.15,0.42,-0.68,
1.704,0.06,-0.80,-1.13,-0.15,0.42,-0.68,
1.705,0.06,-0.80,-1.13,-0.11,0.42,-0.66,
1.705,0.06,-0.80,-1.13,-0.07,0.42,-0.64,
1.705,0.06,-0.80,-1.13,-0.02,0.41,-0.61,
1.705,0.06,-0.80,-1.13,0.02,0.41,-0.59,
1.706,0.06,-0.80,-1.13,0.06,0.40,-0.57,
1.706,-0.19,-0.76,-1.49,0.06,0.40,-0.57,
1.706,-0.19,-0.76,-1.49,0.10,0.39,-0.55,
1.706,-0.19,-0.76,-1.49,0.14,0.38,-0.52,
1.707,-0.19,-0.76,-1.49,0.18,0.37,-0.50,
1.707,-0.19,-0.76,-1.49,0.22,0.35,-0.48,
1.707,-0.19,-0.76,-1.49,0.26,0.34,-0.45,
1.708,-0.27,-0.65,-1.91,0.26,0.34,-0.45,
1.708,-0.27,-0.65,-1.91,0.30,0.33,-0.43,
1.708,-0.27,-0.65,-1.91,0.34,0.32,-0.41,
1.72,-0.27,-0.65,-1.91,0.38,0.30,-0.39,
1.72,-0.27,-0.65,-1.91,0.42,0.29,-0.38,
1.721,-0.27,-0.65,-1.91,0.45,0.29,-0.36,
1.721,-0.22,-0.49,-2.37,0.45,0.29,-0.36,
1.721,-0.22,-0.49,-2.37,0.49,0.27,-0.34,
1.721,-0.22,-0.49,-2.37,0.52,0.26,-0.33,
1.722,-0.22,-0.49,-2.37,0.56,0.25,-0.32,
1.722,-0.22,-0.49,-2.37,0.59,0.25,-0.31,
1.73,-0.22,-0.49,-2.37,0.62,0.24,-0.30,
1.73,-0.08,-0.29,-2.88,0.62,0.24,-0.30,
1.73,-0.08,-0.29,-2.88,0.65,0.23,-0.29,
1.731,-0.08,-0.29,-2.88,0.68,0.22,-0.29,
1.731,-0.08,-0.29,-2.88,0.70,0.20,-0.29,
1.731,-0.08,-0.29,-2.88,0.72,0.18,-0.28,
1.733,-0.08,-0.29,-2.88,0.73,0.17,-0.29,
1.738,0.17,-0.26,-3.51,0.73,0.17,-0.29,
1.738,0.17,-0.26,-3.51,0.75,0.15,-0.29,
1.739,0.17,-0.26,-3.51,0.76,0.13,-0.29,
1.739,0.17,-0.26,-3.51,0.76,0.11,-0.29,
1.744,0.17,-0.26,-3.51,0.77,0.09,-0.30,
1.745,0.17,-0.26,-3.51,0.77,0.07,-0.30,
1.745,0.32,-0.14,-4.16,0.77,0.07,-0.30,
1.745,0.32,-0.14,-4.16,0.77,0.05,-0.31,
1.747,0.32,-0.14,-4.16,0.76,0.03,-0.31,
1.752,0.32,-0.14,-4.16,0.76,0.01,-0.31,
1.752,0.32,-0.14,-4.16,0.74,-0.01,-0.32,
1.778,0.32,-0.14,-4.16,0.73,-0.03,-0.32,
1.778,0.28,-0.02,-4.69,0.73,-0.03,-0.32,
1.779,0.28,-0.02,-4.69,0.72,-0.06,-0.33,
1.779,0.28,-0.02,-4.69,0.70,-0.08,-0.34,
1.779,0.28,-0.02,-4.69,0.67,-0.11,-0.34,
1.779,0.28,-0.02,-4.69,0.65,-0.13,-0.36,
1.779,0.28,-0.02,-4.69,0.62,-0.15,-0.37,
1.78,0.29,0.22,-5.07,0.62,-0.15,-0.37,
1.78,0.29,0.22,-5.07,0.59,-0.18,-0.37,
1.78,0.29,0.22,-5.07,0.56,-0.20,-0.39,
1.78,0.29,0.22,-5.07,0.53,-0.22,-0.39,
1.781,0.29,0.22,-5.07,0.50,-0.24,-0.41,
1.781,0.29,0.22,-5.07,0.46,-0.26,-0.42,
1.781,0.29,0.27,-5.13,0.46,-0.26,-0.42,
1.781,0.29,0.27,-5.13,0.42,-0.29,-0.43,
1.781,0.29,0.27,-5.13,0.39,-0.31,-0.44,
1.782,0.29,0.27,-5.13,0.35,-0.33,-0.45,
1.782,0.29,0.27,-5.13,0.31,-0.35,-0.46,
1.786,0.29,0.27,-5.13,0.27,-0.37,-0.47,
1.786,0.33,0.43,-4.93,0.27,-0.37,-0.47,
1.786,0.33,0.43,-4.93,0.23,-0.39,-0.49,
1.787,0.33,0.43,-4.93,0.19,-0.40,-0.50,
1.792,0.33,0.43,-4.93,0.15,-0.41,-0.50,
1.792,0.33,0.43,-4.93,0.11,-0.42,-0.51,
1.793,0.33,0.43,-4.93,0.07,-0.43,-0.52,
1.8,0.13,0.47,-4.45,0.07,-0.43,-0.52,
1.8,0.13,0.47,-4.45,0.04,-0.43,-0.52,
1.801,0.13,0.47,-4.45,0.00,-0.42,-0.52,
1.801,0.13,0.47,-4.45,-0.03,-0.42,-0.53,
1.801,0.13,0.47,-4.45,-0.06,-0.41,-0.53,
1.811,0.13,0.47,-4.45,-0.08,-0.41,-0.53,
1.811,-0.14,0.64,-3.79,-0.08,-0.41,-0.53,
1.812,-0.14,0.64,-3.79,-0.11,-0.40,-0.53,
1.812,-0.14,0.64,-3.79,-0.14,-0.39,-0.53,
1.812,-0.14,0.64,-3.79,-0.16,-0.39,-0.53,
1.812,-0.14,0.64,-3.79,-0.18,-0.38,-0.54,
1.816,-0.14,0.64,-3.79,-0.20,-0.37,-0.54,
1.822,-0.32,0.70,-2.95,-0.20,-0.37,-0.54,
1.822,-0.32,0.70,-2.95,-0.22,-0.37,-0.54,
1.822,-0.32,0.70,-2.95,-0.23,-0.37,-0.54,
1.822,-0.32,0.70,-2.95,-0.25,-0.36,-0.54,
1.822,-0.32,0.70,-2.95,-0.26,-0.36,-0.54,
1.859,-0.32,0.70,-2.95,-0.27,-0.36,-0.54,
1.86,-0.47,0.80,-2.17,-0.27,-0.36,-0.54,
1.86,-0.47,0.80,-2.17,-0.28,-0.36,-0.54,
1.86,-0.47,0.80,-2.17,-0.29,-0.36,-0.53,
1.86,-0.47,0.80,-2.17,-0.29,-0.36,-0.53,
1.861,-0.47,0.80,-2.17,-0.30,-0.36,-0.53,
1.861,-0.47,0.80,-2.17,-0.30,-0.36,-0.53,
1.861,-0.53,0.85,-1.38,-0.30,-0.36,-0.53,
1.861,-0.53,0.85,-1.38,-0.30,-0.37,-0.53,
1.861,-0.53,0.85,-1.38,-0.30,-0.37,-0.53,
1.861,-0.53,0.85,-1.38,-0.30,-0.38,-0.53,
1.861,-0.53,0.85,-1.38,-0.30,-0.39,-0.53,
1.861,-0.53,0.85,-1.38,-0.30,-0.40,-0.53,
1.862,-0.56,0.90,-0.57,-0.30,-0.40,-0.53,
1.877,-0.56,0.90,-0.57,-0.30,-0.41,-0.54,
1.877,-0.56,0.90,-0.57,-0.30,-0.42,-0.54,
1.877,-0.56,0.90,-0.57,-0.29,-0.43,-0.54,
1.877,-0.56,0.90,-0.57,-0.28,-0.44,-0.54,
1.878,-0.56,0.90,-0.57,-0.28,-0.46,-0.55,
1.878,-0.71,0.96,0.41,-0.28,-0.46,-0.55,
1.878,-0.71,0.96,0.41,-0.26,-0.46,-0.55,
1.878,-0.71,0.96,0.41,-0.25,-0.47,-0.55,
1.878,-0.71,0.96,0.41,-0.23,-0.48,-0.55,
1.878,-0.71,0.96,0.41,-0.21,-0.48,-0.55,
1.878,-0.71,0.96,0.41,-0.18,-0.49,-0.54,
1.878,-1.20,1.12,1.67,-0.18,-0.49,-0.54,
1.879,-1.20,1.12,1.67,-0.15,-0.50,-0.54,
1.879,-1.20,1.12,1.67,-0.11,-0.50,-0.54,
1.879,-1.20,1.12,1.67,-0.08,-0.50,-0.53,
1.879,-1.20,1.12,1.67,-0.04,-0.51,-0.52,
1.879,-1.20,1.12,1.67,-0.00,-0.52,-0.51,
1.879,-1.86,1.15,2.96,-0.00,-0.52,-0.51,
1.879,-1.86,1.15,2.96,0.04,-0.52,-0.50,
1.879,-1.86,1.15,2.96,0.09,-0.53,-0.49,
1.88,-1.86,1.15,2.96,0.13,-0.54,-0.48,
1.886,-1.86,1.15,2.96,0.18,-0.56,-0.46,
1.887,-1.86,1.15,2.96,0.23,-0.57,-0.45,
1.887,-2.57,1.10,4.25,0.23,-0.57,-0.45,
1.887,-2.57,1.10,4.25,0.28,-0.58,-0.43,
1.887,-2.57,1.10,4.25,0.33,-0.58,-0.40,
1.896,-2.57,1.10,4.25,0.39,-0.59,-0.38,
1.896,-2.57,1.10,4.25,0.45,-0.59,-0.35,
1.897,-2.57,1.10,4.25,0.51,-0.59,-0.32,
1.897,-3.04,0.90,5.23,0.51,-0.59,-0.32,
1.897,-3.04,0.90,5.23,0.56,-0.58,-0.28,
1.897,-3.04,0.90,5.23,0.62,-0.57,-0.24,
1.899,-3.04,0.90,5.23,0.68,-0.56,-0.20,
1.901,-3.04,0.90,5.23,0.74,-0.55,-0.16,
1.904,-3.04,0.90,5.23,0.80,-0.54,-0.11,
1.906,-3.35,0.73,5.53,0.80,-0.54,-0.11,
1.906,-3.35,0.73,5.53,0.85,-0.52,-0.06,
1.907,-3.35,0.73,5.53,0.90,-0.51,-0.01,
1.909,-3.35,0.73,5.53,0.94,-0.50,0.04,
1.913,-3.35,0.73,5.53,0.99,-0.49,0.09,
1.913,-3.35,0.73,5.53,1.02,-0.48,0.14,
1.915,-3.25,0.79,5.27,1.02,-0.48,0.14,
1.916,-3.25,0.79,5.27,1.05,-0.47,0.20,
1.917,-3.25,0.79,5.27,1.08,-0.46,0.25,
1.934,-3.25,0.79,5.27,1.11,-0.45,0.30,
1.934,-3.25,0.79,5.27,1.13,-0.44,0.34,
1.934,-3.25,0.79,5.27,1.14,-0.43,0.38,
1.934,-2.75,0.96,4.71,1.14,-0.43,0.38,
1.935,-2.75,0.96,4.71,1.16,-0.43,0.42,
1.935,-2.75,0.96,4.71,1.16,-0.42,0.45,
1.935,-2.75,0.96,4.71,1.17,-0.42,0.48,
1.935,-2.75,0.96,4.71,1.17,-0.42,0.50,
1.935,-2.75,0.96,4.71,1.17,-0.42,0.52,
1.935,-1.92,1.19,4.08,1.17,-0.42,0.52,
1.936,-1.92,1.19,4.08,1.16,-0.42,0.53,
1.943,-1.92,1.19,4.08,1.16,-0.42,0.54,
1.943,-1.92,1.19,4.08,1.15,-0.43,0.55,
1.943,-1.92,1.19,4.08,1.14,-0.43,0.55,
1.943,-1.92,1.19,4.08,1.13,-0.43,0.55,
1.95,-1.29,1.44,3.65,1.13,-0.43,0.55,
1.95,-1.29,1.44,3.65,1.12,-0.43,0.55,
1.95,-1.29,1.44,3.65,1.12,-0.42,0.55,
1.951,-1.29,1.44,3.65,1.11,-0.41,0.55,
1.951,-1.29,1.44,3.65,1.11,-0.41,0.54,
1.969,-1.29,1.44,3.65,1.10,-0.39,0.53,
1.969,-0.92,1.73,3.41,1.10,-0.39,0.53,
1.969,-0.92,1.73,3.41,1.09,-0.38,0.53,
1.969,-0.92,1.73,3.41,1.09,-0.36,0.52,
1.969,-0.92,1.73,3.41,1.08,-0.33,0.52,
1.97,-0.92,1.73,3.41,1.07,-0.31,0.51,
1.97,-0.92,1.73,3.41,1.06,-0.28,0.50,
1.97,-0.80,1.98,3.06,1.06,-0.28,0.50,
1.97,-0.80,1.98,3.06,1.04,-0.25,0.50,
1.97,-0.80,1.98,3.06,1.03,-0.22,0.49,
1.97,-0.80,1.98,3.06,1.01,-0.19,0.48,
1.971,-0.80,1.98,3.06,0.99,-0.16,0.47,
1.975,-0.80,1.98,3.06,0.96,-0.13,0.47,
1.975,-0.70,1.97,2.55,0.96,-0.13,0.47,
1.975,-0.70,1.97,2.55,0.93,-0.09,0.46,
1.979,-0.70,1.97,2.55,0.90,-0.06,0.45,
1.979,-0.70,1.97,2.55,0.87,-0.02,0.44,
1.983,-0.70,1.97,2.55,0.84,0.02,0.44,
1.983,-0.70,1.97,2.55,0.80,0.05,0.43,
1.987,-0.63,1.85,1.95,0.80,0.05,0.43,
1.987,-0.63,1.85,1.95,0.76,0.09,0.42,
1.987,-0.63,1.85,1.95,0.73,0.12,0.42,
1.989,-0.63,1.85,1.95,0.69,0.16,0.41,
1.993,-0.63,1.85,1.95,0.65,0.19,0.41,
1.993,-0.63,1.85,1.95,0.61,0.23,0.40,
1.997,-0.54,1.70,1.57,0.61,0.23,0.40,
1.997,-0.54,1.70,1.57,0.57,0.26,0.40,
1.997,-0.54,1.70,1.57,0.53,0.29,0.39,
2.001,-0.54,1.70,1.57,0.50,0.32,0.39,
2.001,-0.54,1.70,1.57,0.46,0.34,0.39,
2.003,-0.54,1.70,1.57,0.43,0.36,0.38,
2.006,-0.52,1.64,1.54,0.43,0.36,0.38,
2.006,-0.52,1.64,1.54,0.38,0.39,0.37,
2.007,-0.52,1.64,1.54,0.35,0.40,0.36,
2.008,-0.52,1.64,1.54,0.34,0.41,0.35,
2.01,-0.52,1.64,1.54,0.31,0.42,0.34,
2.022,-0.52,1.64,1.54,0.30,0.43,0.33,
2.022,-0.53,1.52,1.92,0.30,0.43,0.33,
2.023,-0.53,1.52,1.92,0.28,0.44,0.32,
2.023,-0.53,1.52,1.92,0.27,0.45,0.31,
2.023,-0.53,1.52,1.92,0.27,0.45,0.29,
2.023,-0.53,1.52,1.92,0.27,0.46,0.28,
2.023,-0.53,1.52,1.92,0.28,0.47,0.27,
2.031,-0.62,1.33,2.57,0.28,0.47,0.27,
2.031,-0.62,1.33,2.57,0.29,0.48,0.26,
2.032,-0.62,1.33,2.57,0.30,0.48,0.25,
2.032,-0.62,1.33,2.57,0.32,0.49,0.24,
2.032,-0.62,1.33,2.57,0.34,0.50,0.23,
2.033,-0.62,1.33,2.57,0.36,0.51,0.22,
2.037,-0.85,1.04,3.07,0.36,0.51,0.22,
2.038,-0.85,1.04,3.07,0.39,0.52,0.21,
2.038,-0.85,1.04,3.07,0.41,0.53,0.21,
2.039,-0.85,1.04,3.07,0.44,0.53,0.20,
2.041,-0.85,1.04,3.07,0.47,0.54,0.20,
2.043,-0.85,1.04,3.07,0.49,0.55,0.19,
2.045,-1.18,0.72,3.16,0.49,0.55,0.19,
2.045,-1.18,0.72,3.16,0.52,0.56,0.19,
2.046,-1.18,0.72,3.16,0.54,0.57,0.19,
2.048,-1.18,0.72,3.16,0.56,0.58,0.19,
2.051,-1.18,0.72,3.16,0.59,0.59,0.19,
2.053,-1.18,0.72,3.16,0.61,0.61,0.19,
2.055,-1.54,0.55,2.81,0.61,0.61,0.19,
2.055,-1.54,0.55,2.81,0.63,0.62,0.20,
2.057,-1.54,0.55,2.81,0.64,0.64,0.21,
2.059,-1.54,0.55,2.81,0.66,0.66,0.22,
2.06,-1.54,0.55,2.81,0.66,0.68,0.23,
2.062,-1.54,0.55,2.81,0.67,0.70,0.24,
2.065,-1.95,0.57,1.97,0.67,0.70,0.24,
2.065,-1.95,0.57,1.97,0.67,0.73,0.25,
2.076,-1.95,0.57,1.97,0.66,0.75,0.27,
2.076,-1.95,0.57,1.97,0.65,0.77,0.28,
2.076,-1.95,0.57,1.97,0.63,0.78,0.29,
2.076,-1.95,0.57,1.97,0.60,0.80,0.30,
2.076,-1.91,0.69,0.78,0.60,0.80,0.30,
2.076,-1.91,0.69,0.78,0.58,0.81,0.31,
2.077,-1.91,0.69,0.78,0.54,0.82,0.32,
2.081,-1.91,0.69,0.78,0.50,0.82,0.32,
2.081,-1.91,0.69,0.78,0.46,0.82,0.32,
2.084,-1.91,0.69,0.78,0.41,0.81,0.33,
2.111,-1.77,0.74,-0.14,0.41,0.81,0.33,
2.112,-1.77,0.74,-0.14,0.36,0.80,0.32,
2.112,-1.77,0.74,-0.14,0.30,0.78,0.32,
2.112,-1.77,0.74,-0.14,0.24,0.75,0.32,
2.112,-1.77,0.74,-0.14,0.18,0.72,0.31,
2.112,-1.77,0.74,-0.14,0.12,0.69,0.30,
2.112,-1.36,0.76,-0.53,0.12,0.69,0.30,
2.112,-1.36,0.76,-0.53,0.05,0.64,0.28,
2.113,-1.36,0.76,-0.53,-0.01,0.59,0.27,
2.113,-1.36,0.76,-0.53,-0.08,0.54,0.25,
2.113,-1.36,0.76,-0.53,-0.14,0.49,0.23,
2.113,-1.36,0.76,-0.53,-0.21,0.44,0.21,
2.113,-0.91,0.65,-0.26,-0.21,0.44,0.21,
2.113,-0.91,0.65,-0.26,-0.26,0.38,0.19,
2.113,-0.91,0.65,-0.26,-0.32,0.34,0.17,
2.114,-0.91,0.65,-0.26,-0.36,0.29,0.15,
2.114,-0.91,0.65,-0.26,-0.41,0.26,0.13,
2.114,-0.91,0.65,-0.26,-0.46,0.22,0.12,
2.116,-0.56,0.44,0.38,-0.46,0.22,0.12,
2.116,-0.56,0.44,0.38,-0.49,0.19,0.10,
2.117,-0.56,0.44,0.38,-0.53,0.16,0.09,
2.119,-0.56,0.44,0.38,-0.56,0.13,0.07,
2.121,-0.56,0.44,0.38,-0.58,0.11,0.06,
2.123,-0.56,0.44,0.38,-0.61,0.09,0.05,
2.125,-0.31,0.05,0.95,-0.61,0.09,0.05,
2.125,-0.31,0.05,0.95,-0.63,0.07,0.04,
2.126,-0.31,0.05,0.95,-0.65,0.06,0.03,
2.128,-0.31,0.05,0.95,-0.67,0.04,0.02,
2.13,-0.31,0.05,0.95,-0.68,0.03,0.01,
2.133,-0.31,0.05,0.95,-0.69,0.02,0.01,
2.137,-0.11,-0.33,1.21,-0.69,0.02,0.01,
2.137,-0.11,-0.33,1.21,-0.70,0.01,-0.00,
2.137,-0.11,-0.33,1.21,-0.71,-0.00,-0.01,
2.141,-0.11,-0.33,1.21,-0.72,-0.01,-0.01,
2.141,-0.11,-0.33,1.21,-0.72,-0.01,-0.01,
2.144,-0.11,-0.33,1.21,-0.72,-0.02,-0.02,
2.147,0.04,-0.67,1.26,-0.72,-0.02,-0.02,
2.147,0.04,-0.67,1.26,-0.72,-0.02,-0.02,
2.147,0.04,-0.67,1.26,-0.72,-0.02,-0.03,
2.15,0.04,-0.67,1.26,-0.72,-0.02,-0.03,
2.154,0.04,-0.67,1.26,-0.72,-0.01,-0.03,
2.154,0.04,-0.67,1.26,-0.71,-0.01,-0.04,
2.156,0.23,-0.90,1.15,-0.71,-0.01,-0.04,
2.163,0.23,-0.90,1.15,-0.69,0.03,-0.05,
2.163,0.23,-0.90,1.15,-0.69,0.03,-0.05,
2.163,0.23,-0.90,1.15,-0.67,0.06,-0.06,
2.163,0.23,-0.90,1.15,-0.66,0.08,-0.06,
2.163,0.23,-0.90,1.15,-0.66,0.08,-0.06,
2.166,0.37,-1.14,0.97,-0.66,0.08,-0.06,
2.167,0.37,-1.14,0.97,-0.65,0.09,-0.06,
2.168,0.37,-1.14,0.97,-0.63,0.11,-0.06,
2.169,0.37,-1.14,0.97,-0.62,0.13,-0.07,
2.171,0.37,-1.14,0.97,-0.60,0.16,-0.07,
2.172,0.37,-1.14,0.97,-0.58,0.18,-0.07,
2.175,0.35,-1.36,0.64,-0.58,0.18,-0.07,
2.176,0.35,-1.36,0.64,-0.56,0.21,-0.07,
2.176,0.35,-1.36,0.64,-0.54,0.23,-0.07,
2.19,0.35,-1.36,0.64,-0.52,0.26,-0.07,
2.191,0.35,-1.36,0.64,-0.50,0.28,-0.07,
2.191,0.35,-1.36,0.64,-0.48,0.31,-0.07,
2.191,0.16,-1.56,0.38,-0.48,0.31,-0.07,
2.191,0.16,-1.56,0.38,-0.44,0.35,-0.06,
2.191,0.16,-1.56,0.38,-0.43,0.36,-0.06,
2.192,0.16,-1.56,0.38,-0.40,0.38,-0.05,
2.192,0.16,-1.56,0.38,-0.37,0.41,-0.04,
2.196,0.16,-1.56,0.38,-0.34,0.43,-0.03,
2.197,-0.00,-1.68,0.11,-0.34,0.43,-0.03,
2.197,-0.00,-1.68,0.11,-0.29,0.46,-0.01,
2.197,-0.00,-1.68,0.11,-0.28,0.47,-0.00,
2.199,-0.00,-1.68,0.11,-0.25,0.49,0.01,
2.201,-0.00,-1.68,0.11,-0.21,0.51,0.03,
2.203,-0.00,-1.68,0.11,-0.18,0.53,0.04,
2.205,-0.20,-1.88,-0.04,-0.18,0.53,0.04,
2.205,-0.20,-1.88,-0.04,-0.12,0.55,0.06,
2.206,-0.20,-1.88,-0.04,-0.10,0.56,0.07,
2.209,-0.20,-1.88,-0.04,-0.07,0.57,0.09,
2.211,-0.20,-1.88,-0.04,-0.01,0.59,0.11,
2.213,-0.20,-1.88,-0.04,0.01,0.60,0.13,
2.215,-0.31,-1.93,-0.25,0.01,0.60,0.13,
2.215,-0.31,-1.93,-0.25,0.07,0.62,0.15,
2.22,-0.31,-1.93,-0.25,0.09,0.62,0.16,
2.221,-0.31,-1.93,-0.25,0.13,0.63,0.18,
2.221,-0.31,-1.93,-0.25,0.17,0.64,0.20,
2.223,-0.31,-1.93,-0.25,0.21,0.65,0.22,
2.225,-0.36,-2.00,-0.56,0.21,0.65,0.22,
2.226,-0.36,-2.00,-0.56,0.27,0.67,0.26,
2.227,-0.36,-2.00,-0.56,0.29,0.67,0.27,
2.229,-0.36,-2.00,-0.56,0.33,0.67,0.29,
2.231,-0.36,-2.00,-0.56,0.39,0.68,0.32,
2.249,-0.36,-2.00,-0.56,0.41,0.68,0.33,
2.249,-0.42,-1.93,-1.10,0.41,0.68,0.33,
2.249,-0.42,-1.93,-1.10,0.46,0.68,0.36,
2.249,-0.42,-1.93,-1.10,0.48,0.68,0.37,
2.249,-0.42,-1.93,-1.10,0.51,0.68,0.39,
2.25,-0.42,-1.93,-1.10,0.54,0.67,0.41,
2.25,-0.42,-1.93,-1.10,0.57,0.65,0.42,
2.25,-0.41,-1.88,-1.79,0.57,0.65,0.42,
2.25,-0.41,-1.88,-1.79,0.61,0.63,0.45,
2.25,-0.41,-1.88,-1.79,0.62,0.61,0.45,
2.25,-0.41,-1.88,-1.79,0.65,0.59,0.46,
2.269,-0.41,-1.88,-1.79,0.68,0.54,0.48,
2.269,-0.41,-1.88,-1.79,0.70,0.50,0.49,
2.269,-0.32,-1.80,-2.57,0.70,0.50,0.49,
2.27,-0.32,-1.80,-2.57,0.71,0.46,0.50,
2.27,-0.32,-1.80,-2.57,0.72,0.42,0.51,
2.27,-0.32,-1.80,-2.57,0.73,0.37,0.52,
2.27,-0.32,-1.80,-2.57,0.75,0.32,0.53,
2.27,-0.32,-1.80,-2.57,0.75,0.27,0.53,
2.271,-0.29,-1.77,-3.20,0.75,0.27,0.53,
2.271,-0.29,-1.77,-3.20,0.76,0.21,0.54,
2.271,-0.29,-1.77,-3.20,0.77,0.16,0.54,
2.271,-0.29,-1.77,-3.20,0.77,0.10,0.55,
2.271,-0.29,-1.77,-3.20,0.78,0.04,0.55,
2.274,-0.29,-1.77,-3.20,0.78,-0.02,0.55,
2.276,-0.34,-1.75,-3.46,0.78,-0.02,0.55,
2.276,-0.34,-1.75,-3.46,0.79,-0.07,0.56,
2.276,-0.34,-1.75,-3.46,0.79,-0.13,0.57,
2.279,-0.34,-1.75,-3.46,0.80,-0.19,0.57,
2.281,-0.34,-1.75,-3.46,0.81,-0.24,0.58,
2.284,-0.34,-1.75,-3.46,0.81,-0.30,0.59,
2.285,-0.50,-1.75,-3.33,0.81,-0.30,0.59,
2.286,-0.50,-1.75,-3.33,0.82,-0.35,0.60,
2.287,-0.50,-1.75,-3.33,0.83,-0.40,0.60,
2.289,-0.50,-1.75,-3.33,0.84,-0.44,0.61,
2.291,-0.50,-1.75,-3.33,0.85,-0.48,0.62,
2.293,-0.50,-1.75,-3.33,0.86,-0.52,0.64,
2.295,-0.58,-1.74,-3.04,0.86,-0.52,0.64,
2.295,-0.58,-1.74,-3.04,0.87,-0.55,0.65,
2.298,-0.58,-1.74,-3.04,0.88,-0.58,0.66,
2.299,-0.58,-1.74,-3.04,0.89,-0.61,0.67,
2.301,-0.58,-1.74,-3.04,0.90,-0.63,0.68,
2.305,-0.58,-1.74,-3.04,0.91,-0.65,0.69,
2.307,-0.59,-1.76,-2.79,0.91,-0.65,0.69,
2.307,-0.59,-1.76,-2.79,0.92,-0.66,0.70,
2.308,-0.59,-1.76,-2.79,0.93,-0.68,0.72,
2.31,-0.59,-1.76,-2.79,0.93,-0.69,0.73,
2.313,-0.59,-1.76,-2.79,0.94,-0.69,0.74,
2.313,-0.59,-1.76,-2.79,0.94,-0.70,0.75,
2.317,-0.49,-1.78,-2.67,0.94,-0.70,0.75,
2.317,-0.49,-1.78,-2.67,0.95,-0.70,0.76,
2.317,-0.49,-1.78,-2.67,0.95,-0.70,0.77,
2.321,-0.49,-1.78,-2.67,0.95,-0.69,0.78,
2.321,-0.49,-1.78,-2.67,0.95,-0.68,0.79,
2.324,-0.49,-1.78,-2.67,0.95,-0.67,0.80,
2.327,-0.30,-1.81,-2.54,0.95,-0.67,0.80,
2.328,-0.30,-1.81,-2.54,0.95,-0.66,0.81,
2.328,-0.30,-1.81,-2.54,0.95,-0.64,0.82,
2.329,-0.30,-1.81,-2.54,0.94,-0.62,0.83,
2.331,-0.30,-1.81,-2.54,0.94,-0.60,0.84,
2.333,-0.30,-1.81,-2.54,0.94,-0.57,0.85,
2.337,-0.03,-1.75,-2.46,0.94,-0.57,0.85,
2.337,-0.03,-1.75,-2.46,0.93,-0.54,0.86,
2.337,-0.03,-1.75,-2.46,0.92,-0.51,0.87,
2.341,-0.03,-1.75,-2.46,0.91,-0.48,0.88,
2.341,-0.03,-1.75,-2.46,0.91,-0.45,0.89,
2.344,-0.03,-1.75,-2.46,0.90,-0.41,0.90,
2.347,0.19,-1.74,-2.45,0.90,-0.41,0.90,
2.357,0.19,-1.74,-2.45,0.89,-0.38,0.91,
2.357,0.19,-1.74,-2.45,0.88,-0.34,0.91,
2.358,0.19,-1.74,-2.45,0.86,-0.31,0.92,
2.358,0.19,-1.74,-2.45,0.85,-0.27,0.92,
2.358,0.19,-1.74,-2.45,0.84,-0.24,0.92,
2.358,0.45,-1.63,-2.52,0.84,-0.24,0.92,
2.358,0.45,-1.63,-2.52,0.82,-0.21,0.92,
2.358,0.45,-1.63,-2.52,0.80,-0.19,0.92,
2.359,0.45,-1.63,-2.52,0.78,-0.16,0.92,
2.367,0.45,-1.63,-2.52,0.76,-0.14,0.92,
2.367,0.45,-1.63,-2.52,0.75,-0.12,0.91,
2.387,0.75,-1.47,-2.58,0.75,-0.12,0.91,
2.388,0.75,-1.47,-2.58,0.73,-0.10,0.90,
2.388,0.75,-1.47,-2.58,0.70,-0.09,0.89,
2.388,0.75,-1.47,-2.58,0.68,-0.08,0.88,
2.388,0.75,-1.47,-2.58,0.66,-0.07,0.86,
2.388,0.75,-1.47,-2.58,0.64,-0.06,0.85,
2.388,0.95,-1.23,-2.52,0.64,-0.06,0.85,
2.388,0.95,-1.23,-2.52,0.62,-0.06,0.83,
2.388,0.95,-1.23,-2.52,0.59,-0.06,0.81,
2.389,0.95,-1.23,-2.52,0.57,-0.06,0.79,
2.389,0.95,-1.23,-2.52,0.55,-0.06,0.76,
2.389,0.95,-1.23,-2.52,0.53,-0.06,0.74,
2.389,1.22,-1.04,-2.32,0.53,-0.06,0.74,
2.389,1.22,-1.04,-2.32,0.50,-0.06,0.71,
2.389,1.22,-1.04,-2.32,0.48,-0.07,0.69,
2.389,1.22,-1.04,-2.32,0.46,-0.07,0.66,
2.391,1.22,-1.04,-2.32,0.44,-0.07,0.63,
2.393,1.22,-1.04,-2.32,0.42,-0.07,0.60,
2.395,1.25,-0.90,-2.04,0.42,-0.07,0.60,
2.395,1.25,-0.90,-2.04,0.40,-0.07,0.58,
2.396,1.25,-0.90,-2.04,0.39,-0.07,0.55,
2.403,1.25,-0.90,-2.04,0.37,-0.07,0.52,
2.403,1.25,-0.90,-2.04,0.35,-0.07,0.50,
2.403,1.25,-0.90,-2.04,0.33,-0.07,0.47,
2.405,1.18,-0.80,-1.74,0.33,-0.07,0.47,
2.405,1.18,-0.80,-1.74,0.31,-0.07,0.45,
2.407,1.18,-0.80,-1.74,0.29,-0.08,0.43,
2.409,1.18,-0.80,-1.74,0.27,-0.08,0.41,
2.41,1.18,-0.80,-1.74,0.25,-0.09,0.39,
2.413,1.18,-0.80,-1.74,0.23,-0.10,0.36,
2.416,0.98,-0.66,-1.43,0.23,-0.10,0.36,
2.417,0.98,-0.66,-1.43,0.21,-0.10,0.34,
2.418,0.98,-0.66,-1.43,0.19,-0.11,0.32,
2.432,0.98,-0.66,-1.43,0.17,-0.12,0.31,
2.432,0.98,-0.66,-1.43,0.15,-0.12,0.29,
2.432,0.98,-0.66,-1.43,0.13,-0.13,0.27,
2.432,0.85,-0.58,-1.12,0.13,-0.13,0.27,
2.432,0.85,-0.58,-1.12,0.11,-0.13,0.26,
2.432,0.85,-0.58,-1.12,0.09,-0.14,0.24,
2.432,0.85,-0.58,-1.12,0.07,-0.14,0.23,
2.433,0.85,-0.58,-1.12,0.05,-0.14,0.21,
2.435,0.85,-0.58,-1.12,0.03,-0.14,0.19,
2.435,0.75,-0.53,-0.81,0.03,-0.14,0.19,
2.435,0.75,-0.53,-0.81,0.01,-0.14,0.18,
2.437,0.75,-0.53,-0.81,-0.01,-0.15,0.17,
2.439,0.75,-0.53,-0.81,-0.03,-0.15,0.16,
2.44,0.75,-0.53,-0.81,-0.05,-0.15,0.14,
2.443,0.75,-0.53,-0.81,-0.07,-0.16,0.13,
2.445,0.77,-0.49,-0.55,-0.07,-0.16,0.13,
2.445,0.77,-0.49,-0.55,-0.10,-0.17,0.12,
2.446,0.77,-0.49,-0.55,-0.12,-0.17,0.10,
2.449,0.77,-0.49,-0.55,-0.14,-0.18,0.09,
2.451,0.77,-0.49,-0.55,-0.16,-0.19,0.08,
2.453,0.77,-0.49,-0.55,-0.19,-0.20,0.06,
2.455,0.78,-0.36,-0.31,-0.19,-0.20,0.06,
2.455,0.78,-0.36,-0.31,-0.21,-0.20,0.05,
2.456,0.78,-0.36,-0.31,-0.24,-0.21,0.03,
2.458,0.78,-0.36,-0.31,-0.26,-0.22,0.02,
2.46,0.78,-0.36,-0.31,-0.29,-0.22,0.00,
2.463,0.78,-0.36,-0.31,-0.31,-0.22,-0.01,
2.466,0.93,-0.29,-0.08,-0.31,-0.22,-0.01,
2.466,0.93,-0.29,-0.08,-0.34,-0.23,-0.03,
2.466,0.93,-0.29,-0.08,-0.37,-0.23,-0.04,
2.469,0.93,-0.29,-0.08,-0.40,-0.23,-0.06,
2.471,0.93,-0.29,-0.08,-0.43,-0.23,-0.08,
2.472,0.93,-0.29,-0.08,-0.46,-0.22,-0.10,
2.475,1.10,-0.19,0.08,-0.46,-0.22,-0.10,
2.475,1.10,-0.19,0.08,-0.49,-0.22,-0.12,
2.476,1.10,-0.19,0.08,-0.52,-0.22,-0.14,
2.479,1.10,-0.19,0.08,-0.55,-0.22,-0.16,
2.48,1.10,-0.19,0.08,-0.58,-0.22,-0.18,
2.483,1.10,-0.19,0.08,-0.61,-0.21,-0.20,
2.486,1.26,-0.13,0.31,-0.61,-0.21,-0.20,
2.486,1.26,-0.13,0.31,-0.64,-0.21,-0.22,
2.486,1.26,-0.13,0.31,-0.67,-0.20,-0.24,
2.489,1.26,-0.13,0.31,-0.70,-0.19,-0.26,
2.491,1.26,-0.13,0.31,-0.72,-0.17,-0.28,
2.492,1.26,-0.13,0.31,-0.75,-0.15,-0.29,
2.495,1.25,-0.00,0.62,-0.75,-0.15,-0.29,
2.495,1.25,-0.00,0.62,-0.77,-0.13,-0.31,
2.496,1.25,-0.00,0.62,-0.80,-0.10,-0.33,
2.5,1.25,-0.00,0.62,-0.83,-0.07,-0.34,
2.501,1.25,-0.00,0.62,-0.85,-0.03,-0.35,
2.503,1.25,-0.00,0.62,-0.87,-0.00,-0.37,
2.505,1.20,0.05,0.84,-0.87,-0.00,-0.37,
2.505,1.20,0.05,0.84,-0.90,0.03,-0.38,
2.507,1.20,0.05,0.84,-0.93,0.07,-0.39,
2.509,1.20,0.05,0.84,-0.96,0.10,-0.41,
2.511,1.20,0.05,0.84,-0.99,0.13,-0.42,
2.521,1.20,0.05,0.84,-1.03,0.16,-0.43,
2.521,1.14,-0.08,0.74,-1.03,0.16,-0.43,
2.521,1.14,-0.08,0.74,-1.06,0.18,-0.43,
2.521,1.14,-0.08,0.74,-1.10,0.21,-0.44,
2.521,1.14,-0.08,0.74,-1.14,0.22,-0.45,
2.521,1.14,-0.08,0.74,-1.19,0.24,-0.46,
2.524,1.14,-0.08,0.74,-1.23,0.24,-0.46,
2.525,1.21,-0.17,0.60,-1.23,0.24,-0.46,
2.525,1.21,-0.17,0.60,-1.28,0.25,-0.47,
2.527,1.21,-0.17,0.60,-1.33,0.24,-0.48,
2.529,1.21,-0.17,0.60,-1.38,0.23,-0.49,
2.532,1.21,-0.17,0.60,-1.43,0.22,-0.51,
2.533,1.21,-0.17,0.60,-1.48,0.21,-0.53,
2.535,1.51,-0.18,0.78,-1.48,0.21,-0.53,
2.536,1.51,-0.18,0.78,-1.53,0.19,-0.54,
2.537,1.51,-0.18,0.78,-1.57,0.17,-0.56,
2.539,1.51,-0.18,0.78,-1.61,0.15,-0.59,
2.541,1.51,-0.18,0.78,-1.64,0.13,-0.61,
2.542,1.51,-0.18,0.78,-1.67,0.12,-0.63,
2.545,1.78,-0.32,1.66,-1.67,0.12,-0.63,
2.545,1.78,-0.32,1.66,-1.69,0.11,-0.65,
2.546,1.78,-0.32,1.66,-1.71,0.10,-0.68,
2.549,1.78,-0.32,1.66,-1.72,0.09,-0.70,
2.551,1.78,-0.32,1.66,-1.73,0.08,-0.72,
2.553,1.78,-0.32,1.66,-1.73,0.08,-0.73,
2.555,1.64,-0.34,2.86,-1.73,0.08,-0.73,
2.555,1.64,-0.34,2.86,-1.73,0.08,-0.75,
2.557,1.64,-0.34,2.86,-1.72,0.08,-0.76,
2.559,1.64,-0.34,2.86,-1.71,0.09,-0.77,
2.561,1.64,-0.34,2.86,-1.70,0.09,-0.77,
2.563,1.64,-0.34,2.86,-1.67,0.10,-0.78,
2.567,1.30,-0.52,4.11,-1.67,0.10,-0.78,
2.568,1.30,-0.52,4.11,-1.65,0.11,-0.78,
2.568,1.30,-0.52,4.11,-1.62,0.12,-0.78,
2.569,1.30,-0.52,4.11,-1.59,0.13,-0.78,
2.572,1.30,-0.52,4.11,-1.56,0.15,-0.77,
2.573,1.30,-0.52,4.11,-1.52,0.17,-0.76,
2.576,1.00,-0.82,5.09,-1.52,0.17,-0.76,
2.576,1.00,-0.82,5.09,-1.48,0.19,-0.75,
2.578,1.00,-0.82,5.09,-1.43,0.21,-0.73,
2.579,1.00,-0.82,5.09,-1.38,0.23,-0.71,
2.584,1.00,-0.82,5.09,-1.33,0.25,-0.69,
2.584,1.00,-0.82,5.09,-1.28,0.28,-0.67,
2.608,0.66,-1.13,5.74,-1.28,0.28,-0.67,
2.608,0.66,-1.13,5.74,-1.22,0.31,-0.64,
2.608,0.66,-1.13,5.74,-1.16,0.34,-0.61,
2.608,0.66,-1.13,5.74,-1.10,0.36,-0.58,
2.609,0.66,-1.13,5.74,-1.04,0.38,-0.55,
2.609,0.66,-1.13,5.74,-0.97,0.41,-0.51,
2.609,0.43,-1.15,5.78,-0.97,0.41,-0.51,
2.609,0.43,-1.15,5.78,-0.91,0.43,-0.48,
2.609,0.43,-1.15,5.78,-0.85,0.45,-0.44,
2.61,0.43,-1.15,5.78,-0.79,0.46,-0.41,
2.61,0.43,-1.15,5.78,-0.73,0.47,-0.38,
2.61,0.43,-1.15,5.78,-0.67,0.48,-0.35,
2.61,0.43,-1.17,5.30,-0.67,0.48,-0.35,
2.61,0.43,-1.17,5.30,-0.61,0.48,-0.32,
2.61,0.43,-1.17,5.30,-0.56,0.49,-0.29,
2.611,0.43,-1.17,5.30,-0.50,0.49,-0.26,
2.614,0.43,-1.17,5.30,-0.45,0.48,-0.24,
2.616,0.43,-1.17,5.30,-0.41,0.48,-0.21,
2.616,0.61,-1.02,4.42,-0.41,0.48,-0.21,
2.617,0.61,-1.02,4.42,-0.36,0.47,-0.19,
2.619,0.61,-1.02,4.42,-0.32,0.46,-0.16,
2.62,0.61,-1.02,4.42,-0.28,0.44,-0.14,
2.621,0.61,-1.02,4.42,-0.25,0.42,-0.12,
2.623,0.61,-1.02,4.42,-0.22,0.40,-0.11,
2.625,1.01,-0.83,3.24,-0.22,0.40,-0.11,
2.626,1.01,-0.83,3.24,-0.19,0.37,-0.09,
2.627,1.01,-0.83,3.24,-0.17,0.34,-0.08,
2.629,1.01,-0.83,3.24,-0.16,0.31,-0.07,
2.636,1.01,-0.83,3.24,-0.15,0.28,-0.07,
2.636,1.01,-0.83,3.24,-0.14,0.25,-0.06,
2.636,1.49,-0.48,1.99,-0.14,0.25,-0.06,
2.637,1.49,-0.48,1.99,-0.14,0.22,-0.06,
2.64,1.49,-0.48,1.99,-0.14,0.19,-0.07,
2.641,1.49,-0.48,1.99,-0.14,0.15,-0.08,
2.644,1.49,-0.48,1.99,-0.15,0.12,-0.09,
2.644,1.49,-0.48,1.99,-0.16,0.09,-0.10,
2.647,2.09,-0.20,0.87,-0.16,0.09,-0.10,
2.648,2.09,-0.20,0.87,-0.18,0.06,-0.12,
2.648,2.09,-0.20,0.87,-0.20,0.04,-0.14,
2.664,2.09,-0.20,0.87,-0.22,0.01,-0.16,
2.665,2.09,-0.20,0.87,-0.25,-0.01,-0.19,
2.665,2.09,-0.20,0.87,-0.27,-0.03,-0.21,
2.665,2.55,0.01,-0.08,-0.27,-0.03,-0.21,
2.665,2.55,0.01,-0.08,-0.30,-0.05,-0.24,
2.665,2.55,0.01,-0.08,-0.34,-0.06,-0.27,
2.665,2.55,0.01,-0.08,-0.37,-0.08,-0.30,
2.666,2.55,0.01,-0.08,-0.41,-0.08,-0.33,
2.666,2.55,0.01,-0.08,-0.44,-0.09,-0.36,
2.666,2.83,0.12,-0.81,-0.44,-0.09,-0.36,
2.666,2.83,0.12,-0.81,-0.48,-0.09,-0.39,
2.668,2.83,0.12,-0.81,-0.52,-0.09,-0.42,
2.669,2.83,0.12,-0.81,-0.56,-0.09,-0.45,
2.671,2.83,0.12,-0.81,-0.60,-0.09,-0.48,
2.673,2.83,0.12,-0.81,-0.64,-0.08,-0.50,
2.675,2.71,0.10,-1.26,-0.64,-0.08,-0.50,
2.676,2.71,0.10,-1.26,-0.67,-0.07,-0.53,
2.677,2.71,0.10,-1.26,-0.71,-0.06,-0.55,
2.694,2.71,0.10,-1.26,-0.75,-0.05,-0.58,
2.694,2.71,0.10,-1.26,-0.78,-0.04,-0.60,
2.694,2.71,0.10,-1.26,-0.81,-0.02,-0.63,
2.695,2.42,0.07,-1.33,-0.81,-0.02,-0.63,
2.695,2.42,0.07,-1.33,-0.83,-0.01,-0.65,
2.695,2.42,0.07,-1.33,-0.86,0.01,-0.67,
2.695,2.42,0.07,-1.33,-0.88,0.03,-0.68,
2.696,2.42,0.07,-1.33,-0.90,0.05,-0.70,
2.696,2.42,0.07,-1.33,-0.91,0.05,-0.71,
2.696,2.04,-0.12,-1.14,-0.91,0.05,-0.71,
2.697,2.04,-0.12,-1.14,-0.93,0.06,-0.72,
2.697,2.04,-0.12,-1.14,-0.94,0.07,-0.74,
2.705,2.04,-0.12,-1.14,-0.96,0.07,-0.75,
2.706,2.04,-0.12,-1.14,-0.97,0.08,-0.76,
2.706,2.04,-0.12,-1.14,-0.97,0.08,-0.76,
2.706,1.74,-0.48,-0.97,-0.97,0.08,-0.76,
2.706,1.74,-0.48,-0.97,-0.97,0.09,-0.77,
2.707,1.74,-0.48,-0.97,-0.97,0.09,-0.77,
2.709,1.74,-0.48,-0.97,-0.97,0.09,-0.77,
2.711,1.74,-0.48,-0.97,-0.96,0.10,-0.77,
2.713,1.74,-0.48,-0.97,-0.94,0.10,-0.77,
2.724,1.10,-0.45,-0.62,-0.94,0.10,-0.77,
2.725,1.10,-0.45,-0.62,-0.93,0.10,-0.76,
2.725,1.10,-0.45,-0.62,-0.90,0.11,-0.75,
2.725,1.10,-0.45,-0.62,-0.87,0.12,-0.74,
2.725,1.10,-0.45,-0.62,-0.84,0.12,-0.73,
2.726,1.10,-0.45,-0.62,-0.81,0.12,-0.73,
2.726,0.65,-0.38,-0.17,-0.81,0.12,-0.73,
2.726,0.65,-0.38,-0.17,-0.77,0.12,-0.72,
2.727,0.65,-0.38,-0.17,-0.73,0.12,-0.71,
2.729,0.65,-0.38,-0.17,-0.68,0.12,-0.70,
2.731,0.65,-0.38,-0.17,-0.64,0.12,-0.69,
2.733,0.65,-0.38,-0.17,-0.59,0.11,-0.68,
2.736,0.42,-0.40,0.05,-0.59,0.11,-0.68,
2.736,0.42,-0.40,0.05,-0.54,0.11,-0.67,
2.737,0.42,-0.40,0.05,-0.49,0.10,-0.66,
2.739,0.42,-0.40,0.05,-0.44,0.09,-0.65,
2.741,0.42,-0.40,0.05,-0.39,0.09,-0.64,
2.743,0.42,-0.40,0.05,-0.34,0.08,-0.63,
2.746,0.32,-0.35,-0.06,-0.34,0.08,-0.63,
2.746,0.32,-0.35,-0.06,-0.29,0.07,-0.62,
2.748,0.32,-0.35,-0.06,-0.24,0.06,-0.61,
2.749,0.32,-0.35,-0.06,-0.20,0.04,-0.60,
2.751,0.32,-0.35,-0.06,-0.16,0.03,-0.59,
2.774,0.32,-0.35,-0.06,-0.11,0.01,-0.58,
2.774,0.10,-0.24,-0.52,-0.11,0.01,-0.58,
2.774,0.10,-0.24,-0.52,-0.08,-0.00,-0.57,
2.774,0.10,-0.24,-0.52,-0.04,-0.02,-0.56,
2.774,0.10,-0.24,-0.52,0.00,-0.04,-0.55,
2.774,0.10,-0.24,-0.52,0.03,-0.05,-0.54,
2.774,0.10,-0.24,-0.52,0.07,-0.07,-0.53,
2.774,-0.11,-0.16,-1.09,0.07,-0.07,-0.53,
2.775,-0.11,-0.16,-1.09,0.10,-0.09,-0.52,
2.775,-0.11,-0.16,-1.09,0.13,-0.10,-0.51,
2.775,-0.11,-0.16,-1.09,0.16,-0.12,-0.50,
2.775,-0.11,-0.16,-1.09,0.19,-0.13,-0.49,
2.775,-0.11,-0.16,-1.09,0.21,-0.14,-0.47,
2.775,-0.30,-0.06,-1.61,0.21,-0.14,-0.47,
2.775,-0.30,-0.06,-1.61,0.24,-0.16,-0.46,
2.778,-0.30,-0.06,-1.61,0.27,-0.17,-0.45,
2.779,-0.30,-0.06,-1.61,0.28,-0.18,-0.44,
2.783,-0.30,-0.06,-1.61,0.31,-0.19,-0.43,
2.783,-0.30,-0.06,-1.61,0.32,-0.21,-0.42,
2.785,-0.42,0.03,-2.10,0.32,-0.21,-0.42,
2.785,-0.42,0.03,-2.10,0.34,-0.22,-0.41,
2.786,-0.42,0.03,-2.10,0.36,-0.23,-0.40,
2.789,-0.42,0.03,-2.10,0.37,-0.24,-0.39,
2.791,-0.42,0.03,-2.10,0.38,-0.25,-0.38,
2.793,-0.42,0.03,-2.10,0.39,-0.26,-0.37,
2.795,-0.47,0.12,-2.53,0.39,-0.26,-0.37,
2.795,-0.47,0.12,-2.53,0.40,-0.26,-0.36,
2.808,-0.47,0.12,-2.53,0.40,-0.27,-0.34,
2.808,-0.47,0.12,-2.53,0.41,-0.28,-0.34,
2.808,-0.47,0.12,-2.53,0.41,-0.29,-0.33,
2.809,-0.47,0.12,-2.53,0.41,-0.30,-0.32,
2.809,-0.53,0.29,-2.94,0.41,-0.30,-0.32,
2.809,-0.53,0.29,-2.94,0.41,-0.31,-0.31,
2.809,-0.53,0.29,-2.94,0.40,-0.32,-0.30,
2.809,-0.53,0.29,-2.94,0.40,-0.33,-0.29,
2.811,-0.53,0.29,-2.94,0.39,-0.34,-0.29,
2.815,-0.53,0.29,-2.94,0.38,-0.35,-0.29,
2.816,-0.47,0.40,-3.27,0.38,-0.35,-0.29,
2.816,-0.47,0.40,-3.27,0.37,-0.36,-0.29,
2.817,-0.47,0.40,-3.27,0.36,-0.37,-0.29,
2.819,-0.47,0.40,-3.27,0.34,-0.38,-0.29,
2.821,-0.47,0.40,-3.27,0.32,-0.40,-0.29,
2.823,-0.47,0.40,-3.27,0.31,-0.41,-0.29,
2.825,-0.39,0.61,-3.47,0.31,-0.41,-0.29,
2.825,-0.39,0.61,-3.47,0.29,-0.43,-0.30,
2.826,-0.39,0.61,-3.47,0.26,-0.44,-0.30,
2.829,-0.39,0.61,-3.47,0.24,-0.46,-0.31,
2.831,-0.39,0.61,-3.47,0.22,-0.47,-0.32,
2.833,-0.39,0.61,-3.47,0.19,-0.49,-0.33,
2.835,-0.16,0.71,-3.48,0.19,-0.49,-0.33,
2.836,-0.16,0.71,-3.48,0.16,-0.50,-0.34,
2.837,-0.16,0.71,-3.48,0.14,-0.52,-0.35,
2.839,-0.16,0.71,-3.48,0.11,-0.53,-0.37,
2.84,-0.16,0.71,-3.48,0.08,-0.54,-0.38,
2.843,-0.16,0.71,-3.48,0.05,-0.56,-0.40,
2.845,-0.00,0.87,-3.33,0.05,-0.56,-0.40,
2.857,-0.00,0.87,-3.33,0.02,-0.57,-0.42,
2.857,-0.00,0.87,-3.33,-0.00,-0.58,-0.43,
2.857,-0.00,0.87,-3.33,-0.03,-0.59,-0.45,
2.857,-0.00,0.87,-3.33,-0.06,-0.60,-0.47,
2.857,-0.00,0.87,-3.33,-0.08,-0.61,-0.48,
2.858,0.03,0.84,-2.79,-0.08,-0.61,-0.48,
2.858,0.03,0.84,-2.79,-0.10,-0.62,-0.50,
2.858,0.03,0.84,-2.79,-0.13,-0.62,-0.51,
2.861,0.03,0.84,-2.79,-0.14,-0.62,-0.53,
2.861,0.03,0.84,-2.79,-0.16,-0.62,-0.54,
2.866,0.03,0.84,-2.79,-0.18,-0.62,-0.55,
2.866,-0.01,0.89,-2.10,-0.18,-0.62,-0.55,
2.866,-0.01,0.89,-2.10,-0.19,-0.61,-0.56,
2.867,-0.01,0.89,-2.10,-0.21,-0.60,-0.57,
2.869,-0.01,0.89,-2.10,-0.21,-0.59,-0.58,
2.871,-0.01,0.89,-2.10,-0.22,-0.57,-0.59,
2.872,-0.01,0.89,-2.10,-0.23,-0.56,-0.59,
2.875,-0.08,0.82,-1.30,-0.23,-0.56,-0.59,
2.875,-0.08,0.82,-1.30,-0.24,-0.54,-0.60,
2.877,-0.08,0.82,-1.30,-0.24,-0.52,-0.60,
2.879,-0.08,0.82,-1.30,-0.24,-0.50,-0.61,
2.881,-0.08,0.82,-1.30,-0.25,-0.48,-0.62,
2.883,-0.08,0.82,-1.30,-0.25,-0.47,-0.62,
2.885,-0.15,0.76,-0.69,-0.25,-0.47,-0.62,
2.885,-0.15,0.76,-0.69,-0.25,-0.45,-0.63,
2.887,-0.15,0.76,-0.69,-0.25,-0.43,-0.63,
2.889,-0.15,0.76,-0.69,-0.26,-0.42,-0.64,
2.89,-0.15,0.76,-0.69,-0.26,-0.40,-0.64,
2.892,-0.15,0.76,-0.69,-0.26,-0.39,-0.65,
2.895,-0.27,0.78,-0.19,-0.26,-0.39,-0.65,
2.895,-0.27,0.78,-0.19,-0.26,-0.37,-0.65,
2.899,-0.27,0.78,-0.19,-0.26,-0.36,-0.66,
2.899,-0.27,0.78,-0.19,-0.26,-0.35,-0.67,
2.901,-0.27,0.78,-0.19,-0.27,-0.34,-0.67,
2.903,-0.27,0.78,-0.19,-0.27,-0.33,-0.68,
2.905,-0.40,0.84,0.26,-0.27,-0.33,-0.68,
2.906,-0.40,0.84,0.26,-0.27,-0.31,-0.69,
2.907,-0.40,0.84,0.26,-0.27,-0.30,-0.69,
2.909,-0.40,0.84,0.26,-0.27,-0.29,-0.70,
2.911,-0.40,0.84,0.26,-0.27,-0.28,-0.70,
2.942,-0.40,0.84,0.26,-0.26,-0.27,-0.70,
2.942,-0.53,0.87,0.77,-0.26,-0.27,-0.70,
2.942,-0.53,0.87,0.77,-0.26,-0.26,-0.71,
2.943,-0.53,0.87,0.77,-0.26,-0.24,-0.71,
2.943,-0.53,0.87,0.77,-0.25,-0.23,-0.71,
2.943,-0.53,0.87,0.77,-0.25,-0.21,-0.72,
2.943,-0.53,0.87,0.77,-0.25,-0.20,-0.72,
2.943,-0.64,0.87,1.27,-0.25,-0.20,-0.72,
2.943,-0.64,0.87,1.27,-0.24,-0.18,-0.72,
2.944,-0.64,0.87,1.27,-0.23,-0.17,-0.72,
2.944,-0.64,0.87,1.27,-0.23,-0.15,-0.73,
2.944,-0.64,0.87,1.27,-0.22,-0.13,-0.73,
2.944,-0.64,0.87,1.27,-0.21,-0.12,-0.73,
2.944,-0.65,0.87,1.82,-0.21,-0.12,-0.73,
2.944,-0.65,0.87,1.82,-0.19,-0.10,-0.74,
2.945,-0.65,0.87,1.82,-0.18,-0.09,-0.74,
2.945,-0.65,0.87,1.82,-0.17,-0.07,-0.74,
2.945,-0.65,0.87,1.82,-0.15,-0.05,-0.74,
2.945,-0.65,0.87,1.82,-0.14,-0.04,-0.74,
2.945,-0.80,0.88,2.34,-0.14,-0.04,-0.74,
2.946,-0.80,0.88,2.34,-0.12,-0.02,-0.74,
2.949,-0.80,0.88,2.34,-0.10,0.00,-0.74,
2.949,-0.80,0.88,2.34,-0.08,0.02,-0.73,
2.951,-0.80,0.88,2.34,-0.06,0.03,-0.72,
2.953,-0.80,0.88,2.34,-0.04,0.05,-0.72,
2.956,-1.06,0.88,2.73,-0.04,0.05,-0.72,
2.956,-1.06,0.88,2.73,-0.02,0.07,-0.71,
2.956,-1.06,0.88,2.73,0.00,0.08,-0.70,
2.959,-1.06,0.88,2.73,0.02,0.10,-0.69,
2.961,-1.06,0.88,2.73,0.04,0.12,-0.68,
2.963,-1.06,0.88,2.73,0.07,0.13,-0.67,
2.965,-1.33,0.88,2.94,0.07,0.13,-0.67,
2.966,-1.33,0.88,2.94,0.09,0.14,-0.66,
2.967,-1.33,0.88,2.94,0.11,0.15,-0.64,
2.968,-1.33,0.88,2.94,0.13,0.17,-0.62,
2.97,-1.33,0.88,2.94,0.15,0.17,-0.61,
2.972,-1.33,0.88,2.94,0.17,0.18,-0.59,
2.975,-1.55,0.87,3.07,0.17,0.18,-0.59,
2.975,-1.55,0.87,3.07,0.19,0.19,-0.58,
2.977,-1.55,0.87,3.07,0.21,0.19,-0.56,
2.979,-1.55,0.87,3.07,0.23,0.19,-0.54,
2.981,-1.55,0.87,3.07,0.25,0.20,-0.53,
2.983,-1.55,0.87,3.07,0.27,0.20,-0.51,
2.985,-1.70,0.88,3.14,0.27,0.20,-0.51,
2.985,-1.70,0.88,3.14,0.28,0.19,-0.49,
2.986,-1.70,0.88,3.14,0.30,0.19,-0.47,
2.989,-1.70,0.88,3.14,0.32,0.18,-0.45,
2.99,-1.70,0.88,3.14,0.33,0.17,-0.44,
2.993,-1.70,0.88,3.14,0.34,0.16,-0.42,
2.995,-1.61,0.91,3.16,0.34,0.16,-0.42,
2.996,-1.61,0.91,3.16,0.36,0.15,-0.41,
2.996,-1.61,0.91,3.16,0.37,0.14,-0.39,
2.999,-1.61,0.91,3.16,0.37,0.13,-0.38,
3.001,-1.61,0.91,3.16,0.38,0.11,-0.36,
3.003,-1.61,0.91,3.16,0.39,0.10,-0.35,
3.005,-1.36,0.91,3.19,0.39,0.10,-0.35,
3.006,-1.36,0.91,3.19,0.40,0.08,-0.34,
3.006,-1.36,0.91,3.19,0.41,0.07,-0.33,
3.009,-1.36,0.91,3.19,0.42,0.06,-0.32,
3.011,-1.36,0.91,3.19,0.42,0.05,-0.32,
3.021,-1.36,0.91,3.19,0.43,0.05,-0.31,
3.021,-0.98,0.95,3.29,0.43,0.05,-0.31,
3.021,-0.98,0.95,3.29,0.44,0.04,-0.30,
3.021,-0.98,0.95,3.29,0.44,0.05,-0.29,
3.022,-0.98,0.95,3.29,0.45,0.05,-0.29,
3.022,-0.98,0.95,3.29,0.45,0.06,-0.29,
3.025,-0.98,0.95,3.29,0.46,0.06,-0.28,
3.026,-0.70,1.08,3.28,0.46,0.06,-0.28,
3.026,-0.70,1.08,3.28,0.46,0.08,-0.28,
3.027,-0.70,1.08,3.28,0.47,0.09,-0.27,
3.029,-0.70,1.08,3.28,0.46,0.11,-0.27,
3.031,-0.70,1.08,3.28,0.46,0.12,-0.27,
3.033,-0.70,1.08,3.28,0.46,0.14,-0.26,
3.035,-0.51,1.17,2.99,0.46,0.14,-0.26,
3.035,-0.51,1.17,2.99,0.45,0.16,-0.26,
3.036,-0.51,1.17,2.99,0.44,0.17,-0.26,
3.039,-0.51,1.17,2.99,0.42,0.18,-0.26,
3.04,-0.51,1.17,2.99,0.41,0.19,-0.26,
3.043,-0.51,1.17,2.99,0.38,0.20,-0.26,
3.045,-0.32,1.22,2.49,0.38,0.20,-0.26,
3.049,-0.32,1.22,2.49,0.36,0.21,-0.26,
3.049,-0.32,1.22,2.49,0.33,0.22,-0.26,
3.05,-0.32,1.22,2.49,0.31,0.23,-0.27,
3.051,-0.32,1.22,2.49,0.28,0.23,-0.27,
3.056,-0.32,1.22,2.49,0.25,0.24,-0.27,
3.058,-0.13,1.25,2.13,0.25,0.24,-0.27,
3.058,-0.13,1.25,2.13,0.22,0.25,-0.28,
3.058,-0.13,1.25,2.13,0.19,0.26,-0.28,
3.059,-0.13,1.25,2.13,0.16,0.27,-0.29,
3.061,-0.13,1.25,2.13,0.13,0.28,-0.31,
3.068,-0.13,1.25,2.13,0.10,0.28,-0.32,
3.069,0.04,1.23,1.96,0.10,0.28,-0.32,
3.069,0.04,1.23,1.96,0.07,0.29,-0.33,
3.069,0.04,1.23,1.96,0.04,0.29,-0.34,
3.069,0.04,1.23,1.96,0.01,0.29,-0.36,
3.071,0.04,1.23,1.96,-0.01,0.28,-0.38,
3.073,0.04,1.23,1.96,-0.04,0.27,-0.39,
3.075,0.20,1.09,2.02,-0.04,0.27,-0.39,
3.075,0.20,1.09,2.02,-0.07,0.26,-0.41,
3.076,0.20,1.09,2.02,-0.09,0.25,-0.43,
3.079,0.20,1.09,2.02,-0.11,0.23,-0.45,
3.081,0.20,1.09,2.02,-0.13,0.21,-0.47,
3.083,0.20,1.09,2.02,-0.14,0.19,-0.48,
3.085,0.19,0.68,2.37,-0.14,0.19,-0.48,
3.085,0.19,0.68,2.37,-0.15,0.17,-0.49,
3.098,0.19,0.68,2.37,-0.16,0.15,-0.50,
3.098,0.19,0.68,2.37,-0.16,0.13,-0.51,
3.098,0.19,0.68,2.37,-0.16,0.11,-0.52,
3.099,0.19,0.68,2.37,-0.16,0.09,-0.52,
3.099,-0.04,0.14,2.93,-0.16,0.09,-0.52,
3.099,-0.04,0.14,2.93,-0.15,0.07,-0.52,
3.099,-0.04,0.14,2.93,-0.13,0.05,-0.52,
3.099,-0.04,0.14,2.93,-0.12,0.04,-0.52,
3.101,-0.04,0.14,2.93,-0.10,0.03,-0.51,
3.103,-0.04,0.14,2.93,-0.07,0.02,-0.50,
3.105,-0.38,-0.48,3.63,-0.07,0.02,-0.50,
3.105,-0.38,-0.48,3.63,-0.04,0.01,-0.48,
3.106,-0.38,-0.48,3.63,-0.01,0.01,-0.47,
3.108,-0.38,-0.48,3.63,0.02,0.01,-0.45,
3.11,-0.38,-0.48,3.63,0.06,0.02,-0.42,
3.113,-0.38,-0.48,3.63,0.10,0.02,-0.40,
3.115,-0.79,-1.02,4.13,0.10,0.02,-0.40,
3.115,-0.79,-1.02,4.13,0.14,0.03,-0.37,
3.116,-0.79,-1.02,4.13,0.18,0.05,-0.34,
3.119,-0.79,-1.02,4.13,0.22,0.06,-0.30,
3.12,-0.79,-1.02,4.13,0.27,0.08,-0.26,
3.122,-0.79,-1.02,4.13,0.31,0.10,-0.22,
3.125,-1.12,-1.63,4.14,0.31,0.10,-0.22,
3.125,-1.12,-1.63,4.14,0.35,0.13,-0.18,
3.126,-1.12,-1.63,4.14,0.39,0.15,-0.13,
3.129,-1.12,-1.63,4.14,0.42,0.19,-0.09,
3.13,-1.12,-1.63,4.14,0.46,0.22,-0.04,
3.133,-1.12,-1.63,4.14,0.48,0.25,0.02,
3.135,-1.41,-1.79,3.50,0.48,0.25,0.02,
3.135,-1.41,-1.79,3.50,0.51,0.29,0.06,
3.136,-1.41,-1.79,3.50,0.53,0.32,0.11,
3.138,-1.41,-1.79,3.50,0.55,0.35,0.16,
3.14,-1.41,-1.79,3.50,0.56,0.37,0.21,
3.142,-1.41,-1.79,3.50,0.56,0.39,0.25,
3.145,-1.48,-1.78,2.47,0.56,0.39,0.25,
3.145,-1.48,-1.78,2.47,0.56,0.41,0.30,
3.146,-1.48,-1.78,2.47,0.56,0.43,0.34,
3.149,-1.48,-1.78,2.47,0.55,0.44,0.37,
3.15,-1.48,-1.78,2.47,0.54,0.44,0.41,
3.153,-1.48,-1.78,2.47,0.53,0.44,0.44,
3.155,-1.24,-1.44,1.35,0.53,0.44,0.44,
3.16,-1.24,-1.44,1.35,0.46,0.43,0.50,
3.16,-1.24,-1.44,1.35,0.46,0.43,0.50,
3.162,-1.24,-1.44,1.35,0.44,0.41,0.51,
3.163,-1.24,-1.44,1.35,0.41,0.40,0.52,
3.163,-1.24,-1.44,1.35,0.41,0.40,0.52,
3.165,-0.84,-1.03,0.52,0.41,0.40,0.52,
3.165,-0.84,-1.03,0.52,0.38,0.38,0.53,
3.167,-0.84,-1.03,0.52,0.35,0.36,0.54,
3.169,-0.84,-1.03,0.52,0.32,0.33,0.54,
3.17,-0.84,-1.03,0.52,0.29,0.31,0.54,
3.172,-0.84,-1.03,0.52,0.26,0.28,0.54,
3.175,-0.34,-0.64,-0.04,0.26,0.28,0.54,
3.175,-0.34,-0.64,-0.04,0.22,0.26,0.53,
3.176,-0.34,-0.64,-0.04,0.19,0.23,0.53,
3.186,-0.34,-0.64,-0.04,0.15,0.20,0.52,
3.186,-0.34,-0.64,-0.04,0.12,0.17,0.51,
3.187,-0.34,-0.64,-0.04,0.08,0.14,0.50,
3.187,0.08,-0.39,-0.29,0.08,0.14,0.50,
3.187,0.08,-0.39,-0.29,0.04,0.11,0.49,
3.187,0.08,-0.39,-0.29,0.01,0.08,0.48,
3.19,0.08,-0.39,-0.29,-0.03,0.05,0.46,
3.191,0.08,-0.39,-0.29,-0.06,0.02,0.45,
3.193,0.08,-0.39,-0.29,-0.10,-0.00,0.44,
3.199,0.32,-0.26,-0.22,-0.10,-0.00,0.44,
3.199,0.32,-0.26,-0.22,-0.13,-0.03,0.42,
3.199,0.32,-0.26,-0.22,-0.15,-0.05,0.41,
3.199,0.32,-0.26,-0.22,-0.18,-0.08,0.40,
3.201,0.32,-0.26,-0.22,-0.21,-0.10,0.38,
3.203,0.32,-0.26,-0.22,-0.23,-0.12,0.37,
3.208,0.45,-0.34,0.15,-0.23,-0.12,0.37,
3.208,0.45,-0.34,0.15,-0.25,-0.14,0.35,
3.208,0.45,-0.34,0.15,-0.27,-0.16,0.34,
3.209,0.45,-0.34,0.15,-0.28,-0.18,0.33,
3.236,0.45,-0.34,0.15,-0.29,-0.19,0.32,
3.236,0.45,-0.34,0.15,-0.29,-0.21,0.31,
3.236,0.36,-0.41,0.63,-0.29,-0.21,0.31,
3.236,0.36,-0.41,0.63,-0.30,-0.22,0.31,
3.236,0.36,-0.41,0.63,-0.30,-0.24,0.30,
3.236,0.36,-0.41,0.63,-0.30,-0.25,0.29,
3.236,0.36,-0.41,0.63,-0.30,-0.26,0.29,
3.237,0.36,-0.41,0.63,-0.29,-0.27,0.29,
3.237,0.18,-0.52,1.11,-0.29,-0.27,0.29,
3.237,0.18,-0.52,1.11,-0.28,-0.27,0.29,
3.237,0.18,-0.52,1.11,-0.27,-0.28,0.29,
3.237,0.18,-0.52,1.11,-0.26,-0.28,0.29,
3.237,0.18,-0.52,1.11,-0.24,-0.28,0.29,
3.237,0.18,-0.52,1.11,-0.23,-0.28,0.28,
3.237,0.07,-0.64,1.26,-0.23,-0.28,0.28,
3.237,0.07,-0.64,1.26,-0.21,-0.27,0.29,
3.237,0.07,-0.64,1.26,-0.19,-0.26,0.29,
3.24,0.07,-0.64,1.26,-0.17,-0.25,0.29,
3.241,0.07,-0.64,1.26,-0.16,-0.24,0.30,
3.244,0.07,-0.64,1.26,-0.14,-0.22,0.30,
3.248,-0.02,-0.74,1.13,-0.14,-0.22,0.30,
3.248,-0.02,-0.74,1.13,-0.12,-0.20,0.30,
3.248,-0.02,-0.74,1.13,-0.10,-0.18,0.31,
3.252,-0.02,-0.74,1.13,-0.08,-0.15,0.32,
3.252,-0.02,-0.74,1.13,-0.06,-0.12,0.32,
3.267,-0.02,-0.74,1.13,-0.04,-0.10,0.33,
3.267,-0.02,-0.78,0.64,-0.04,-0.10,0.33,
3.267,-0.02,-0.78,0.64,-0.03,-0.07,0.33,
3.267,-0.02,-0.78,0.64,-0.01,-0.04,0.33,
3.267,-0.02,-0.78,0.64,0.00,-0.01,0.34,
3.268,-0.02,-0.78,0.64,0.02,0.01,0.34,
3.268,-0.02,-0.78,0.64,0.03,0.04,0.34,
3.268,0.05,-0.85,-0.08,0.03,0.04,0.34,
3.268,0.05,-0.85,-0.08,0.04,0.07,0.34,
3.268,0.05,-0.85,-0.08,0.05,0.09,0.34,
3.271,0.05,-0.85,-0.08,0.06,0.11,0.34,
3.271,0.05,-0.85,-0.08,0.06,0.14,0.34,
3.273,0.05,-0.85,-0.08,0.07,0.16,0.34,
3.275,0.07,-0.87,-0.85,0.07,0.16,0.34,
3.275,0.07,-0.87,-0.85,0.08,0.18,0.34,
3.277,0.07,-0.87,-0.85,0.09,0.19,0.34,
3.279,0.07,-0.87,-0.85,0.09,0.20,0.34,
3.281,0.07,-0.87,-0.85,0.09,0.22,0.34,
3.283,0.07,-0.87,-0.85,0.10,0.23,0.33,
3.286,0.10,-0.89,-1.47,0.10,0.23,0.33,
3.286,0.10,-0.89,-1.47,0.10,0.23,0.33,
3.287,0.10,-0.89,-1.47,0.11,0.24,0.33,
3.289,0.10,-0.89,-1.47,0.11,0.24,0.32,
3.291,0.10,-0.89,-1.47,0.12,0.24,0.32,
3.293,0.10,-0.89,-1.47,0.12,0.23,0.31,
3.296,0.37,-0.88,-1.93,0.12,0.23,0.31,
3.296,0.37,-0.88,-1.93,0.13,0.23,0.30,
3.297,0.37,-0.88,-1.93,0.14,0.22,0.29,
3.299,0.37,-0.88,-1.93,0.15,0.21,0.28,
3.301,0.37,-0.88,-1.93,0.16,0.20,0.26,
3.303,0.37,-0.88,-1.93,0.17,0.19,0.24,
3.305,0.82,-0.82,-2.17,0.17,0.19,0.24,
3.305,0.82,-0.82,-2.17,0.18,0.18,0.22,
3.306,0.82,-0.82,-2.17,0.20,0.16,0.20,
3.309,0.82,-0.82,-2.17,0.21,0.15,0.17,
3.317,0.82,-0.82,-2.17,0.23,0.13,0.15,
3.32,0.82,-0.82,-2.17,0.24,0.11,0.12,
3.323,1.09,-0.68,-2.35,0.24,0.11,0.12,
3.323,1.09,-0.68,-2.35,0.26,0.09,0.09,
3.323,1.09,-0.68,-2.35,0.28,0.06,0.06,
3.324,1.09,-0.68,-2.35,0.30,0.04,0.03,
3.324,1.09,-0.68,-2.35,0.32,0.01,-0.01,
3.324,1.09,-0.68,-2.35,0.34,-0.01,-0.04,
3.328,1.17,-0.60,-2.47,0.34,-0.01,-0.04,
3.328,1.17,-0.60,-2.47,0.36,-0.04,-0.08,
3.328,1.17,-0.60,-2.47,0.39,-0.08,-0.11,
3.354,1.17,-0.60,-2.47,0.41,-0.11,-0.14,
3.355,1.17,-0.60,-2.47,0.43,-0.14,-0.18,
3.355,1.17,-0.60,-2.47,0.45,-0.18,-0.21,
3.355,0.85,-0.52,-2.70,0.45,-0.18,-0.21,
3.356,0.85,-0.52,-2.70,0.47,-0.22,-0.24,
3.356,0.85,-0.52,-2.70,0.48,-0.27,-0.26,
3.356,0.85,-0.52,-2.70,0.50,-0.31,-0.29,
3.357,0.85,-0.52,-2.70,0.52,-0.36,-0.31,
3.357,0.85,-0.52,-2.70,0.53,-0.41,-0.33,
3.358,0.27,-0.48,-2.99,0.53,-0.41,-0.33,
3.376,0.27,-0.48,-2.99,0.55,-0.46,-0.35,
3.376,0.27,-0.48,-2.99,0.56,-0.51,-0.37,
3.376,0.27,-0.48,-2.99,0.57,-0.56,-0.38,
3.376,0.27,-0.48,-2.99,0.58,-0.62,-0.40,
3.376,0.27,-0.48,-2.99,0.58,-0.67,-0.41,
3.377,-0.32,-0.55,-3.31,0.58,-0.67,-0.41,
3.377,-0.32,-0.55,-3.31,0.59,-0.73,-0.42,
3.377,-0.32,-0.55,-3.31,0.59,-0.78,-0.42,
3.377,-0.32,-0.55,-3.31,0.59,-0.84,-0.43,
3.377,-0.32,-0.55,-3.31,0.59,-0.91,-0.43,
3.378,-0.32,-0.55,-3.31,0.59,-0.97,-0.43,
3.378,-0.94,-0.60,-3.39,0.59,-0.97,-0.43,
3.378,-0.94,-0.60,-3.39,0.58,-1.03,-0.43,
3.378,-0.94,-0.60,-3.39,0.58,-1.09,-0.43,
3.378,-0.94,-0.60,-3.39,0.57,-1.14,-0.42,
3.378,-0.94,-0.60,-3.39,0.57,-1.20,-0.41,
3.379,-0.94,-0.60,-3.39,0.56,-1.25,-0.40,
3.379,-1.41,-0.68,-3.00,0.56,-1.25,-0.40,
3.379,-1.41,-0.68,-3.00,0.56,-1.29,-0.39,
3.379,-1.41,-0.68,-3.00,0.55,-1.34,-0.37,
3.379,-1.41,-0.68,-3.00,0.55,-1.37,-0.35,
3.389,-1.41,-0.68,-3.00,0.55,-1.39,-0.33,
3.389,-1.41,-0.68,-3.00,0.55,-1.41,-0.32,
3.389,-1.74,-0.89,-2.45,0.55,-1.41,-0.32,
3.39,-1.74,-0.89,-2.45,0.55,-1.42,-0.29,
3.397,-1.74,-0.89,-2.45,0.55,-1.43,-0.27,
3.398,-1.74,-0.89,-2.45,0.54,-1.43,-0.24,
3.398,-1.74,-0.89,-2.45,0.54,-1.42,-0.22,
3.398,-1.74,-0.89,-2.45,0.55,-1.41,-0.20,
3.398,-1.72,-1.07,-1.85,0.55,-1.41,-0.20,
3.398,-1.72,-1.07,-1.85,0.55,-1.40,-0.17,
3.398,-1.72,-1.07,-1.85,0.55,-1.38,-0.14,
3.399,-1.72,-1.07,-1.85,0.55,-1.36,-0.12,
3.404,-1.72,-1.07,-1.85,0.55,-1.34,-0.09,
3.405,-1.72,-1.07,-1.85,0.56,-1.31,-0.07,
3.409,-1.57,-1.15,-1.06,0.56,-1.31,-0.07,
3.409,-1.57,-1.15,-1.06,0.57,-1.27,-0.04,
3.409,-1.57,-1.15,-1.06,0.58,-1.25,-0.03,
3.409,-1.57,-1.15,-1.06,0.58,-1.22,-0.01,
3.413,-1.57,-1.15,-1.06,0.59,-1.18,0.00,
3.414,-1.57,-1.15,-1.06,0.60,-1.13,0.02,
3.416,-1.13,-1.23,-0.39,0.60,-1.13,0.02,
3.416,-1.13,-1.23,-0.39,0.62,-1.08,0.03,
3.418,-1.13,-1.23,-0.39,0.63,-1.03,0.04,
3.445,-1.13,-1.23,-0.39,0.64,-0.97,0.06,
3.445,-1.13,-1.23,-0.39,0.65,-0.92,0.06,
3.445,-1.13,-1.23,-0.39,0.66,-0.86,0.07,
3.445,-0.77,-1.27,0.07,0.66,-0.86,0.07,
3.446,-0.77,-1.27,0.07,0.68,-0.80,0.08,
3.446,-0.77,-1.27,0.07,0.69,-0.75,0.08,
3.446,-0.77,-1.27,0.07,0.70,-0.69,0.09,
3.447,-0.77,-1.27,0.07,0.71,-0.63,0.10,
3.447,-0.77,-1.27,0.07,0.72,-0.58,0.10,
3.447,-0.53,-1.19,0.29,0.72,-0.58,0.10,
3.447,-0.53,-1.19,0.29,0.73,-0.52,0.10,
3.448,-0.53,-1.19,0.29,0.74,-0.47,0.11,
3.448,-0.53,-1.19,0.29,0.75,-0.41,0.11,
3.448,-0.53,-1.19,0.29,0.76,-0.36,0.11,
3.448,-0.53,-1.19,0.29,0.76,-0.31,0.11,
3.449,-0.38,-1.14,0.35,0.76,-0.31,0.11,
3.449,-0.38,-1.14,0.35,0.77,-0.26,0.11,
3.449,-0.38,-1.14,0.35,0.77,-0.21,0.11,
3.46,-0.38,-1.14,0.35,0.78,-0.16,0.11,
3.461,-0.38,-1.14,0.35,0.78,-0.11,0.10,
3.461,-0.38,-1.14,0.35,0.78,-0.06,0.10,
3.461,-0.31,-1.05,0.14,0.78,-0.06,0.10,
3.462,-0.31,-1.05,0.14,0.77,-0.00,0.10,
3.462,-0.31,-1.05,0.14,0.77,0.05,0.10,
3.462,-0.31,-1.05,0.14,0.77,0.10,0.10,
3.462,-0.31,-1.05,0.14,0.76,0.15,0.10,
3.464,-0.31,-1.05,0.14,0.75,0.20,0.10,
3.468,-0.32,-1.08,-0.21,0.75,0.20,0.10,
3.468,-0.32,-1.08,-0.21,0.74,0.25,0.11,
3.469,-0.32,-1.08,-0.21,0.73,0.29,0.11,
3.469,-0.32,-1.08,-0.21,0.72,0.33,0.11,
3.474,-0.32,-1.08,-0.21,0.70,0.37,0.12,
3.474,-0.32,-1.08,-0.21,0.69,0.41,0.12,
3.478,-0.43,-1.06,-0.64,0.69,0.41,0.12,
3.478,-0.43,-1.06,-0.64,0.67,0.44,0.13,
3.479,-0.43,-1.06,-0.64,0.65,0.47,0.13,
3.479,-0.43,-1.06,-0.64,0.63,0.49,0.13,
3.485,-0.43,-1.06,-0.64,0.61,0.51,0.13,
3.485,-0.43,-1.06,-0.64,0.59,0.52,0.14,
3.486,-0.53,-1.00,-1.02,0.59,0.52,0.14,
3.486,-0.53,-1.00,-1.02,0.56,0.53,0.14,
3.488,-0.53,-1.00,-1.02,0.54,0.53,0.14,
3.492,-0.53,-1.00,-1.02,0.51,0.53,0.14,
3.492,-0.53,-1.00,-1.02,0.48,0.52,0.14,
3.493,-0.53,-1.00,-1.02,0.45,0.50,0.13,
3.504,-0.50,-0.88,-1.19,0.45,0.50,0.13,
3.505,-0.50,-0.88,-1.19,0.43,0.49,0.13,
3.505,-0.50,-0.88,-1.19,0.40,0.47,0.12,
3.505,-0.50,-0.88,-1.19,0.37,0.45,0.11,
3.505,-0.50,-0.88,-1.19,0.35,0.43,0.11,
3.505,-0.50,-0.88,-1.19,0.32,0.41,0.10,
3.506,-0.51,-0.75,-1.05,0.32,0.41,0.10,
3.506,-0.51,-0.75,-1.05,0.29,0.39,0.10,
3.542,-0.51,-0.75,-1.05,0.27,0.36,0.09,
3.542,-0.51,-0.75,-1.05,0.24,0.34,0.09,
3.543,-0.51,-0.75,-1.05,0.22,0.32,0.09,
3.562,-0.51,-0.75,-1.05,0.20,0.29,0.09,
3.563,-0.46,-0.66,-0.71,0.20,0.29,0.09,
3.563,-0.46,-0.66,-0.71,0.17,0.27,0.08,
3.564,-0.46,-0.66,-0.71,0.15,0.25,0.08,
3.564,-0.46,-0.66,-0.71,0.13,0.22,0.08,
3.564,-0.46,-0.66,-0.71,0.10,0.20,0.08,
3.565,-0.46,-0.66,-0.71,0.08,0.19,0.07,
3.565,-0.24,-0.64,-0.39,0.08,0.19,0.07,
3.565,-0.24,-0.64,-0.39,0.05,0.16,0.07,
3.565,-0.24,-0.64,-0.39,0.02,0.14,0.06,
3.566,-0.24,-0.64,-0.39,-0.01,0.12,0.06,
3.566,-0.24,-0.64,-0.39,-0.04,0.10,0.05,
3.566,-0.24,-0.64,-0.39,-0.06,0.09,0.04,
3.566,0.14,-0.58,-0.13,-0.06,0.09,0.04,
3.567,0.14,-0.58,-0.13,-0.09,0.07,0.03,
3.567,0.14,-0.58,-0.13,-0.13,0.06,0.02,
3.567,0.14,-0.58,-0.13,-0.16,0.05,0.01,
3.567,0.14,-0.58,-0.13,-0.19,0.05,-0.01,
3.568,0.14,-0.58,-0.13,-0.22,0.04,-0.02,
3.568,0.53,-0.43,0.21,-0.22,0.04,-0.02,
3.568,0.53,-0.43,0.21,-0.25,0.04,-0.04,
3.569,0.53,-0.43,0.21,-0.28,0.04,-0.06,
3.569,0.53,-0.43,0.21,-0.31,0.05,-0.07,
3.569,0.53,-0.43,0.21,-0.34,0.06,-0.09,
3.569,0.53,-0.43,0.21,-0.37,0.07,-0.11,
3.57,0.86,-0.36,0.60,-0.37,0.07,-0.11,
3.57,0.86,-0.36,0.60,-0.40,0.09,-0.12,
3.57,0.86,-0.36,0.60,-0.42,0.11,-0.14,
3.57,0.86,-0.36,0.60,-0.45,0.13,-0.15,
3.571,0.86,-0.36,0.60,-0.48,0.15,-0.17,
3.571,0.86,-0.36,0.60,-0.50,0.18,-0.18,
3.571,1.00,-0.42,1.06,-0.50,0.18,-0.18,
3.571,1.00,-0.42,1.06,-0.52,0.22,-0.20,
3.572,1.00,-0.42,1.06,-0.54,0.25,-0.20,
3.572,1.00,-0.42,1.06,-0.56,0.29,-0.21,
3.572,1.00,-0.42,1.06,-0.57,0.33,-0.22,
3.582,1.00,-0.42,1.06,-0.58,0.37,-0.22,
3.583,0.81,-0.34,1.67,-0.58,0.37,-0.22,
3.583,0.81,-0.34,1.67,-0.59,0.41,-0.22,
3.583,0.81,-0.34,1.67,-0.59,0.46,-0.22,
3.583,0.81,-0.34,1.67,-0.60,0.50,-0.22,
3.584,0.81,-0.34,1.67,-0.60,0.55,-0.22,
3.605,0.81,-0.34,1.67,-0.61,0.59,-0.22,
3.606,0.67,-0.35,2.00,-0.61,0.59,-0.22,
3.606,0.67,-0.35,2.00,-0.61,0.62,-0.21,
3.606,0.67,-0.35,2.00,-0.62,0.66,-0.21,
3.606,0.67,-0.35,2.00,-0.62,0.69,-0.21,
3.606,0.67,-0.35,2.00,-0.63,0.72,-0.21,
3.606,0.67,-0.35,2.00,-0.64,0.75,-0.21,
3.606,0.73,-0.38,1.87,-0.64,0.75,-0.21,
3.607,0.73,-0.38,1.87,-0.66,0.78,-0.21,
3.607,0.73,-0.38,1.87,-0.67,0.79,-0.22,
3.607,0.73,-0.38,1.87,-0.69,0.81,-0.22,
3.607,0.73,-0.38,1.87,-0.71,0.82,-0.23,
3.607,0.73,-0.38,1.87,-0.73,0.83,-0.25,
3.607,1.11,-0.31,1.52,-0.73,0.83,-0.25,
3.608,1.11,-0.31,1.52,-0.75,0.83,-0.26,
3.608,1.11,-0.31,1.52,-0.78,0.82,-0.28,
3.611,1.11,-0.31,1.52,-0.80,0.81,-0.31,
3.611,1.11,-0.31,1.52,-0.83,0.79,-0.33,
3.613,1.11,-0.31,1.52,-0.85,0.77,-0.36,
3.615,1.50,-0.16,1.31,-0.85,0.77,-0.36,
3.616,1.50,-0.16,1.31,-0.88,0.74,-0.39,
3.616,1.50,-0.16,1.31,-0.90,0.71,-0.43,
3.619,1.50,-0.16,1.31,-0.92,0.67,-0.46,
3.624,1.50,-0.16,1.31,-0.95,0.64,-0.49,
3.624,1.50,-0.16,1.31,-0.97,0.60,-0.53,
3.627,1.74,-0.04,1.48,-0.97,0.60,-0.53,
3.627,1.74,-0.04,1.48,-0.99,0.56,-0.56,
3.628,1.74,-0.04,1.48,-1.01,0.52,-0.60,
3.637,1.74,-0.04,1.48,-1.03,0.48,-0.62,
3.637,1.74,-0.04,1.48,-1.05,0.44,-0.66,
3.637,1.74,-0.04,1.48,-1.07,0.41,-0.68,
3.638,1.60,-0.02,1.79,-1.07,0.41,-0.68,
3.638,1.60,-0.02,1.79,-1.09,0.37,-0.71,
3.638,1.60,-0.02,1.79,-1.11,0.34,-0.73,
3.641,1.60,-0.02,1.79,-1.13,0.32,-0.76,
3.641,1.60,-0.02,1.79,-1.14,0.30,-0.77,
3.645,1.60,-0.02,1.79,-1.16,0.28,-0.79,
3.661,1.28,-0.31,2.22,-1.16,0.28,-0.79,
3.661,1.28,-0.31,2.22,-1.17,0.27,-0.80,
3.661,1.28,-0.31,2.22,-1.18,0.26,-0.80,
3.661,1.28,-0.31,2.22,-1.19,0.26,-0.80,
3.661,1.28,-0.31,2.22,-1.19,0.26,-0.80,
3.661,1.28,-0.31,2.22,-1.19,0.27,-0.79,
3.662,0.75,-0.71,2.87,-1.19,0.27,-0.79,
3.662,0.75,-0.71,2.87,-1.19,0.28,-0.78,
3.662,0.75,-0.71,2.87,-1.18,0.28,-0.77,
3.662,0.75,-0.71,2.87,-1.17,0.30,-0.75,
3.662,0.75,-0.71,2.87,-1.15,0.30,-0.73,
3.665,0.75,-0.71,2.87,-1.13,0.31,-0.70,
3.665,0.23,-1.10,3.74,-1.13,0.31,-0.70,
3.665,0.23,-1.10,3.74,-1.10,0.32,-0.68,
3.669,0.23,-1.10,3.74,-1.07,0.33,-0.65,
3.669,0.23,-1.10,3.74,-1.03,0.34,-0.62,
3.673,0.23,-1.10,3.74,-0.99,0.35,-0.58,
3.673,0.23,-1.10,3.74,-0.94,0.35,-0.54,
3.675,-0.14,-1.38,4.46,-0.94,0.35,-0.54,
3.675,-0.14,-1.38,4.46,-0.89,0.36,-0.51,
3.679,-0.14,-1.38,4.46,-0.84,0.36,-0.46,
3.693,-0.14,-1.38,4.46,-0.79,0.37,-0.42,
3.694,-0.14,-1.38,4.46,-0.73,0.37,-0.37,
3.694,-0.14,-1.38,4.46,-0.68,0.37,-0.33,
3.694,-0.24,-1.64,4.74,-0.68,0.37,-0.33,
3.694,-0.24,-1.64,4.74,-0.62,0.37,-0.28,
3.694,-0.24,-1.64,4.74,-0.56,0.37,-0.24,
3.694,-0.24,-1.64,4.74,-0.51,0.36,-0.20,
3.694,-0.24,-1.64,4.74,-0.46,0.36,-0.15,
3.694,-0.24,-1.64,4.74,-0.41,0.35,-0.12,
3.697,0.17,-1.65,4.29,-0.41,0.35,-0.12,
3.697,0.17,-1.65,4.29,-0.36,0.33,-0.08,
3.697,0.17,-1.65,4.29,-0.32,0.31,-0.05,
3.701,0.17,-1.65,4.29,-0.29,0.29,-0.03,
3.701,0.17,-1.65,4.29,-0.25,0.26,-0.01,
3.705,0.17,-1.65,4.29,-0.22,0.23,0.01,
3.705,1.07,-1.42,3.38,-0.22,0.23,0.01,
3.705,1.07,-1.42,3.38,-0.19,0.20,0.02,
3.709,1.07,-1.42,3.38,-0.17,0.17,0.03,
3.709,1.07,-1.42,3.38,-0.15,0.13,0.03,
3.713,1.07,-1.42,3.38,-0.13,0.10,0.03,
3.713,1.07,-1.42,3.38,-0.11,0.07,0.03,
3.717,1.68,-1.12,2.40,-0.11,0.07,0.03,
3.717,1.68,-1.12,2.40,-0.10,0.04,0.03,
3.718,1.68,-1.12,2.40,-0.10,0.01,0.02,
3.721,1.68,-1.12,2.40,-0.09,-0.02,0.01,
3.721,1.68,-1.12,2.40,-0.08,-0.04,0.01,
3.723,1.68,-1.12,2.40,-0.08,-0.06,0.00,
3.727,2.01,-0.95,1.41,-0.08,-0.06,0.00,
3.727,2.01,-0.95,1.41,-0.09,-0.08,-0.00,
3.727,2.01,-0.95,1.41,-0.09,-0.10,-0.01,
3.733,2.01,-0.95,1.41,-0.10,-0.11,-0.02,
3.734,2.01,-0.95,1.41,-0.12,-0.13,-0.02,
3.734,2.01,-0.95,1.41,-0.13,-0.14,-0.03,
3.737,1.97,-0.78,0.40,-0.13,-0.14,-0.03,
3.737,1.97,-0.78,0.40,-0.15,-0.15,-0.03,
3.737,1.97,-0.78,0.40,-0.17,-0.15,-0.04,
3.741,1.97,-0.78,0.40,-0.19,-0.16,-0.04,
3.741,1.97,-0.78,0.40,-0.22,-0.16,-0.04,
3.744,1.97,-0.78,0.40,-0.24,-0.15,-0.05,
3.772,1.88,-0.73,-0.46,-0.24,-0.15,-0.05,
3.772,1.88,-0.73,-0.46,-0.27,-0.15,-0.05,
3.772,1.88,-0.73,-0.46,-0.30,-0.14,-0.05,
3.773,1.88,-0.73,-0.46,-0.32,-0.13,-0.05,
3.773,1.88,-0.73,-0.46,-0.35,-0.13,-0.05,
3.773,1.88,-0.73,-0.46,-0.37,-0.12,-0.06,
3.773,1.66,-0.66,-1.05,-0.37,-0.12,-0.06,
3.773,1.66,-0.66,-1.05,-0.41,-0.10,-0.06,
3.773,1.66,-0.66,-1.05,-0.42,-0.10,-0.06,
3.774,1.66,-0.66,-1.05,-0.45,-0.09,-0.06,
3.774,1.66,-0.66,-1.05,-0.47,-0.08,-0.06,
3.774,1.66,-0.66,-1.05,-0.49,-0.07,-0.07,
3.774,1.57,-0.57,-1.42,-0.49,-0.07,-0.07,
3.774,1.57,-0.57,-1.42,-0.51,-0.07,-0.07,
3.775,1.57,-0.57,-1.42,-0.53,-0.06,-0.08,
3.775,1.57,-0.57,-1.42,-0.54,-0.05,-0.08,
3.775,1.57,-0.57,-1.42,-0.56,-0.05,-0.09,
3.775,1.57,-0.57,-1.42,-0.58,-0.04,-0.09,
3.775,1.45,-0.55,-1.71,-0.58,-0.04,-0.09,
3.775,1.45,-0.55,-1.71,-0.59,-0.04,-0.10,
3.782,1.45,-0.55,-1.71,-0.60,-0.03,-0.11,
3.783,1.45,-0.55,-1.71,-0.62,-0.03,-0.11,
3.783,1.45,-0.55,-1.71,-0.62,-0.03,-0.12,
3.783,1.45,-0.55,-1.71,-0.64,-0.03,-0.13,
3.79,1.43,-0.47,-1.84,-0.64,-0.03,-0.13,
3.79,1.43,-0.47,-1.84,-0.64,-0.03,-0.14,
3.79,1.43,-0.47,-1.84,-0.64,-0.02,-0.15,
3.79,1.43,-0.47,-1.84,-0.65,-0.02,-0.16,
3.79,1.43,-0.47,-1.84,-0.65,-0.01,-0.17,
3.794,1.43,-0.47,-1.84,-0.65,-0.01,-0.19,
3.798,1.37,-0.46,-1.90,-0.65,-0.01,-0.19,
3.799,1.37,-0.46,-1.90,-0.64,0.00,-0.19,
3.799,1.37,-0.46,-1.90,-0.64,0.01,-0.21,
3.799,1.37,-0.46,-1.90,-0.63,0.02,-0.22,
3.803,1.37,-0.46,-1.90,-0.63,0.04,-0.23,
3.803,1.37,-0.46,-1.90,-0.62,0.04,-0.24,
3.807,1.36,-0.46,-1.98,-0.62,0.04,-0.24,
3.807,1.36,-0.46,-1.98,-0.61,0.06,-0.25,
3.807,1.36,-0.46,-1.98,-0.60,0.07,-0.27,
3.811,1.36,-0.46,-1.98,-0.59,0.08,-0.28,
3.811,1.36,-0.46,-1.98,-0.58,0.09,-0.29,
3.815,1.36,-0.46,-1.98,-0.57,0.10,-0.30,
3.815,1.23,-0.41,-2.22,-0.57,0.10,-0.30,
3.815,1.23,-0.41,-2.22,-0.57,0.11,-0.32,
3.819,1.23,-0.41,-2.22,-0.56,0.12,-0.33,
3.819,1.23,-0.41,-2.22,-0.56,0.13,-0.34,
3.823,1.23,-0.41,-2.22,-0.56,0.14,-0.36,
3.823,1.23,-0.41,-2.22,-0.55,0.14,-0.37,
3.827,1.04,-0.51,-2.53,-0.55,0.14,-0.37,
3.827,1.04,-0.51,-2.53,-0.55,0.15,-0.38,
3.827,1.04,-0.51,-2.53,-0.54,0.16,-0.39,
3.832,1.04,-0.51,-2.53,-0.54,0.16,-0.40,
3.832,1.04,-0.51,-2.53,-0.54,0.16,-0.41,
3.836,1.04,-0.51,-2.53,-0.53,0.17,-0.42,
3.836,0.46,-0.46,-2.61,-0.53,0.17,-0.42,
3.836,0.46,-0.46,-2.61,-0.53,0.17,-0.42,
3.839,0.46,-0.46,-2.61,-0.52,0.17,-0.42,
3.839,0.46,-0.46,-2.61,-0.51,0.18,-0.41,
3.843,0.46,-0.46,-2.61,-0.50,0.18,-0.40,
3.843,0.46,-0.46,-2.61,-0.49,0.18,-0.39,
3.845,-0.11,-0.56,-2.51,-0.49,0.18,-0.39,
3.862,-0.11,-0.56,-2.51,-0.48,0.18,-0.38,
3.862,-0.11,-0.56,-2.51,-0.46,0.17,-0.37,
3.862,-0.11,-0.56,-2.51,-0.45,0.17,-0.36,
3.863,-0.11,-0.56,-2.51,-0.43,0.16,-0.34,
3.863,-0.11,-0.56,-2.51,-0.41,0.15,-0.32,
3.863,-0.61,-0.56,-2.21,-0.41,0.15,-0.32,
3.863,-0.61,-0.56,-2.21,-0.39,0.13,-0.30,
3.863,-0.61,-0.56,-2.21,-0.37,0.12,-0.28,
3.863,-0.61,-0.56,-2.21,-0.34,0.10,-0.26,
3.863,-0.61,-0.56,-2.21,-0.31,0.08,-0.24,
3.863,-0.61,-0.56,-2.21,-0.29,0.07,-0.21,
3.872,-0.90,-0.51,-1.80,-0.29,0.07,-0.21,
3.872,-0.90,-0.51,-1.80,-0.26,0.04,-0.18,
3.873,-0.90,-0.51,-1.80,-0.22,0.02,-0.16,
3.873,-0.90,-0.51,-1.80,-0.19,0.00,-0.13,
3.873,-0.90,-0.51,-1.80,-0.15,-0.02,-0.10,
3.873,-0.90,-0.51,-1.80,-0.11,-0.04,-0.08,
3.883,-0.90,-0.41,-1.49,-0.11,-0.04,-0.08,
3.883,-0.90,-0.41,-1.49,-0.07,-0.06,-0.06,
3.883,-0.90,-0.41,-1.49,-0.04,-0.09,-0.03,
3.883,-0.90,-0.41,-1.49,0.00,-0.11,-0.01,
3.883,-0.90,-0.41,-1.49,0.04,-0.13,0.01,
3.883,-0.90,-0.41,-1.49,0.08,-0.16,0.02,
3.887,-0.63,-0.23,-1.41,0.08,-0.16,0.02,
3.887,-0.63,-0.23,-1.41,0.11,-0.18,0.04,
3.887,-0.63,-0.23,-1.41,0.15,-0.21,0.05,
3.891,-0.63,-0.23,-1.41,0.18,-0.24,0.06,
3.891,-0.63,-0.23,-1.41,0.21,-0.26,0.07,
3.901,-0.63,-0.23,-1.41,0.23,-0.29,0.08,
3.901,-0.26,0.00,-1.64,0.23,-0.29,0.08,
3.901,-0.26,0.00,-1.64,0.26,-0.31,0.08,
3.901,-0.26,0.00,-1.64,0.28,-0.33,0.08,
3.902,-0.26,0.00,-1.64,0.30,-0.35,0.09,
3.902,-0.26,0.00,-1.64,0.32,-0.37,0.09,
3.905,-0.26,0.00,-1.64,0.33,-0.38,0.09,
3.905,-0.05,0.22,-2.00,0.33,-0.38,0.09,
3.905,-0.05,0.22,-2.00,0.35,-0.39,0.09,
3.909,-0.05,0.22,-2.00,0.36,-0.41,0.09,
3.909,-0.05,0.22,-2.00,0.37,-0.42,0.09,
3.913,-0.05,0.22,-2.00,0.37,-0.42,0.09,
3.913,-0.05,0.22,-2.00,0.38,-0.43,0.09,
3.917,0.07,0.37,-2.36,0.38,-0.43,0.09,
3.917,0.07,0.37,-2.36,0.38,-0.44,0.09,
3.917,0.07,0.37,-2.36,0.37,-0.45,0.09,
3.934,0.07,0.37,-2.36,0.37,-0.46,0.08,
3.934,0.07,0.37,-2.36,0.36,-0.47,0.08,
3.934,0.07,0.37,-2.36,0.35,-0.47,0.07,
3.935,0.23,0.53,-2.64,0.35,-0.47,0.07,
3.935,0.23,0.53,-2.64,0.35,-0.48,0.06,
3.935,0.23,0.53,-2.64,0.33,-0.49,0.06,
3.935,0.23,0.53,-2.64,0.32,-0.49,0.05,
3.935,0.23,0.53,-2.64,0.31,-0.50,0.04,
3.935,0.23,0.53,-2.64,0.30,-0.50,0.03,
3.935,0.42,0.67,-2.65,0.30,-0.50,0.03,
3.935,0.42,0.67,-2.65,0.28,-0.51,0.02,
3.938,0.42,0.67,-2.65,0.26,-0.51,0.01,
3.939,0.42,0.67,-2.65,0.25,-0.51,-0.01,
3.941,0.42,0.67,-2.65,0.23,-0.51,-0.02,
3.943,0.42,0.67,-2.65,0.22,-0.50,-0.03,
3.946,0.63,0.83,-2.47,0.22,-0.50,-0.03,
3.947,0.63,0.83,-2.47,0.21,-0.50,-0.05,
3.947,0.63,0.83,-2.47,0.19,-0.49,-0.06,
3.949,0.63,0.83,-2.47,0.17,-0.48,-0.08,
3.95,0.63,0.83,-2.47,0.16,-0.47,-0.09,
3.952,0.63,0.83,-2.47,0.15,-0.46,-0.11,
3.955,0.72,0.91,-2.14,0.15,-0.46,-0.11,
3.955,0.72,0.91,-2.14,0.13,-0.45,-0.13,
3.956,0.72,0.91,-2.14,0.12,-0.44,-0.14,
3.959,0.72,0.91,-2.14,0.10,-0.43,-0.16,
3.961,0.72,0.91,-2.14,0.08,-0.43,-0.17,
3.963,0.72,0.91,-2.14,0.07,-0.42,-0.19,
3.966,0.66,0.99,-1.75,0.07,-0.42,-0.19,
3.966,0.66,0.99,-1.75,0.06,-0.41,-0.20,
3.967,0.66,0.99,-1.75,0.04,-0.40,-0.22,
3.968,0.66,0.99,-1.75,0.03,-0.39,-0.23,
3.97,0.66,0.99,-1.75,0.02,-0.38,-0.24,
3.972,0.66,0.99,-1.75,0.00,-0.37,-0.25,
3.976,0.42,0.99,-1.33,0.00,-0.37,-0.25,
3.976,0.42,0.99,-1.33,-0.01,-0.36,-0.26,
3.976,0.42,0.99,-1.33,-0.02,-0.35,-0.27,
3.979,0.42,0.99,-1.33,-0.04,-0.34,-0.27,
3.984,0.42,0.99,-1.33,-0.05,-0.32,-0.28,
3.984,0.42,0.99,-1.33,-0.06,-0.31,-0.28,
3.988,0.12,1.01,-0.92,-0.06,-0.31,-0.28,
3.988,0.12,1.01,-0.92,-0.08,-0.29,-0.29,
3.989,0.12,1.01,-0.92,-0.09,-0.27,-0.28,
3.989,0.12,1.01,-0.92,-0.10,-0.25,-0.29,
3.991,0.12,1.01,-0.92,-0.11,-0.23,-0.28,
3.998,0.12,1.01,-0.92,-0.13,-0.21,-0.28,
3.999,-0.08,0.94,-0.55,-0.13,-0.21,-0.28,
3.999,-0.08,0.94,-0.55,-0.14,-0.19,-0.28,
3.999,-0.08,0.94,-0.55,-0.16,-0.17,-0.27,
3.999,-0.08,0.94,-0.55,-0.17,-0.14,-0.27,
4.001,-0.08,0.94,-0.55,-0.18,-0.12,-0.27,
4.003,-0.08,0.94,-0.55,-0.19,-0.10,-0.26,
4.006,-0.23,1.01,-0.17,-0.19,-0.10,-0.26,
4.006,-0.23,1.01,-0.17,-0.21,-0.08,-0.26,
4.007,-0.23,1.01,-0.17,-0.22,-0.06,-0.26,
4.032,-0.23,1.01,-0.17,-0.23,-0.03,-0.26,
4.032,-0.23,1.01,-0.17,-0.24,-0.01,-0.25,
4.056,-0.23,1.01,-0.17,-0.25,0.01,-0.25,
4.056,-0.30,1.05,0.32,-0.25,0.01,-0.25,
4.056,-0.30,1.05,0.32,-0.26,0.04,-0.25,
4.056,-0.30,1.05,0.32,-0.27,0.06,-0.25,
4.057,-0.30,1.05,0.32,-0.28,0.09,-0.25,
4.057,-0.30,1.05,0.32,-0.29,0.11,-0.24,
4.057,-0.30,1.05,0.32,-0.29,0.13,-0.24,
4.058,-0.36,1.13,0.89,-0.29,0.13,-0.24,
4.058,-0.36,1.13,0.89,-0.30,0.15,-0.24,
4.058,-0.36,1.13,0.89,-0.30,0.17,-0.23,
4.058,-0.36,1.13,0.89,-0.29,0.19,-0.22,
4.059,-0.36,1.13,0.89,-0.29,0.21,-0.21,
4.059,-0.36,1.13,0.89,-0.29,0.23,-0.20,
4.059,-0.51,1.12,1.52,-0.29,0.23,-0.20,
4.059,-0.51,1.12,1.52,-0.28,0.24,-0.19,
4.06,-0.51,1.12,1.52,-0.27,0.25,-0.18,
4.06,-0.51,1.12,1.52,-0.27,0.26,-0.17,
4.06,-0.51,1.12,1.52,-0.26,0.27,-0.15,
4.06,-0.51,1.12,1.52,-0.25,0.28,-0.14,
4.061,-0.67,1.14,2.05,-0.25,0.28,-0.14,
4.061,-0.67,1.14,2.05,-0.24,0.28,-0.13,
4.061,-0.67,1.14,2.05,-0.23,0.29,-0.12,
4.061,-0.67,1.14,2.05,-0.21,0.29,-0.10,
4.062,-0.67,1.14,2.05,-0.20,0.29,-0.09,
4.062,-0.67,1.14,2.05,-0.19,0.30,-0.08,
4.062,-0.69,1.23,2.40,-0.19,0.30,-0.08,
4.063,-0.69,1.23,2.40,-0.18,0.30,-0.07,
4.063,-0.69,1.23,2.40,-0.17,0.30,-0.06,
4.063,-0.69,1.23,2.40,-0.16,0.30,-0.05,
4.063,-0.69,1.23,2.40,-0.15,0.30,-0.04,
4.064,-0.69,1.23,2.40,-0.14,0.30,-0.04,
4.081,-0.56,1.34,2.44,-0.14,0.30,-0.04,
4.082,-0.56,1.34,2.44,-0.14,0.29,-0.03,
4.082,-0.56,1.34,2.44,-0.14,0.29,-0.03,
4.085,-0.56,1.34,2.44,-0.14,0.29,-0.02,
4.085,-0.56,1.34,2.44,-0.15,0.29,-0.02,
4.086,-0.56,1.34,2.44,-0.16,0.29,-0.01,
4.086,-0.36,1.36,2.20,-0.16,0.29,-0.01,
4.086,-0.36,1.36,2.20,-0.17,0.29,-0.01,
4.086,-0.36,1.36,2.20,-0.18,0.29,-0.01,
4.087,-0.36,1.36,2.20,-0.20,0.30,-0.01,
4.087,-0.36,1.36,2.20,-0.21,0.30,-0.01,
4.11,-0.36,1.36,2.20,-0.24,0.31,-0.00,
4.111,-0.20,1.42,1.92,-0.24,0.31,-0.00,
4.111,-0.20,1.42,1.92,-0.26,0.32,-0.01,
4.111,-0.20,1.42,1.92,-0.28,0.33,-0.01,
4.111,-0.20,1.42,1.92,-0.31,0.34,-0.01,
4.111,-0.20,1.42,1.92,-0.34,0.36,-0.01,
4.112,-0.20,1.42,1.92,-0.37,0.37,-0.01,
4.112,-0.10,1.38,1.76,-0.37,0.37,-0.01,
4.112,-0.10,1.38,1.76,-0.39,0.39,-0.02,
4.112,-0.10,1.38,1.76,-0.42,0.41,-0.02,
4.113,-0.10,1.38,1.76,-0.45,0.43,-0.02,
4.113,-0.10,1.38,1.76,-0.49,0.45,-0.02,
4.113,-0.10,1.38,1.76,-0.51,0.47,-0.03,
4.113,-0.12,1.44,1.75,-0.51,0.47,-0.03,
4.113,-0.12,1.44,1.75,-0.56,0.50,-0.03,
4.114,-0.12,1.44,1.75,-0.59,0.51,-0.04,
4.114,-0.12,1.44,1.75,-0.60,0.51,-0.04,
4.114,-0.12,1.44,1.75,-0.63,0.53,-0.04,
4.114,-0.12,1.44,1.75,-0.66,0.53,-0.05,
4.124,-0.25,1.42,1.98,-0.66,0.53,-0.05,
4.125,-0.25,1.42,1.98,-0.69,0.54,-0.06,
4.125,-0.25,1.42,1.98,-0.71,0.54,-0.06,
4.125,-0.25,1.42,1.98,-0.74,0.54,-0.07,
4.125,-0.25,1.42,1.98,-0.76,0.54,-0.08,
4.126,-0.25,1.42,1.98,-0.79,0.54,-0.09,
4.126,-0.39,1.22,2.25,-0.79,0.54,-0.09,
4.126,-0.39,1.22,2.25,-0.81,0.53,-0.10,
4.128,-0.39,1.22,2.25,-0.83,0.52,-0.10,
4.132,-0.39,1.22,2.25,-0.86,0.51,-0.11,
4.132,-0.39,1.22,2.25,-0.87,0.50,-0.12,
4.132,-0.39,1.22,2.25,-0.89,0.49,-0.13,
4.138,-0.53,1.09,2.63,-0.89,0.49,-0.13,
4.138,-0.53,1.09,2.63,-0.91,0.47,-0.14,
4.138,-0.53,1.09,2.63,-0.92,0.45,-0.14,
4.139,-0.53,1.09,2.63,-0.93,0.43,-0.15,
4.143,-0.53,1.09,2.63,-0.94,0.40,-0.16,
4.147,-0.53,1.09,2.63,-0.95,0.38,-0.17,
4.147,-0.60,0.91,3.24,-0.95,0.38,-0.17,
4.148,-0.60,0.91,3.24,-0.95,0.35,-0.18,
4.148,-0.60,0.91,3.24,-0.95,0.32,-0.19,
4.149,-0.60,0.91,3.24,-0.94,0.30,-0.20,
4.151,-0.60,0.91,3.24,-0.94,0.27,-0.21,
4.153,-0.60,0.91,3.24,-0.93,0.24,-0.22,
4.155,-0.73,0.65,3.97,-0.93,0.24,-0.22,
4.167,-0.73,0.65,3.97,-0.87,0.18,-0.24,
4.168,-0.73,0.65,3.97,-0.87,0.18,-0.24,
4.168,-0.73,0.65,3.97,-0.83,0.16,-0.24,
4.168,-0.73,0.65,3.97,-0.80,0.15,-0.24,
4.168,-0.73,0.65,3.97,-0.80,0.15,-0.24,
4.168,-1.08,0.34,4.74,-0.80,0.15,-0.24,
4.169,-1.08,0.34,4.74,-0.78,0.14,-0.24,
4.169,-1.08,0.34,4.74,-0.74,0.14,-0.24,
4.208,-1.08,0.34,4.74,-0.70,0.14,-0.23,
4.208,-1.08,0.34,4.74,-0.66,0.14,-0.22,
4.208,-1.08,0.34,4.74,-0.61,0.15,-0.22,
4.209,-1.47,-0.01,5.39,-0.61,0.15,-0.22,
4.211,-1.47,-0.01,5.39,-0.55,0.17,-0.20,
4.212,-1.47,-0.01,5.39,-0.50,0.18,-0.19,
4.229,-1.47,-0.01,5.39,-0.45,0.20,-0.17,
4.229,-1.47,-0.01,5.39,-0.39,0.23,-0.16,
4.229,-1.47,-0.01,5.39,-0.33,0.25,-0.14,
4.229,-1.87,-0.48,5.62,-0.33,0.25,-0.14,
4.229,-1.87,-0.48,5.62,-0.28,0.28,-0.12,
4.229,-1.87,-0.48,5.62,-0.22,0.31,-0.10,
4.23,-1.87,-0.48,5.62,-0.16,0.34,-0.08,
4.23,-1.87,-0.48,5.62,-0.11,0.36,-0.05,
4.23,-1.87,-0.48,5.62,-0.05,0.39,-0.03,
4.23,-2.22,-0.81,5.31,-0.05,0.39,-0.03,
4.23,-2.22,-0.81,5.31,0.00,0.42,0.00,
4.23,-2.22,-0.81,5.31,0.05,0.44,0.03,
4.231,-2.22,-0.81,5.31,0.10,0.46,0.06,
4.231,-2.22,-0.81,5.31,0.15,0.48,0.09,
4.231,-2.22,-0.81,5.31,0.19,0.50,0.12,
4.231,-2.59,-0.92,4.63,0.19,0.50,0.12,
4.231,-2.59,-0.92,4.63,0.23,0.51,0.16,
4.231,-2.59,-0.92,4.63,0.27,0.51,0.19,
4.232,-2.59,-0.92,4.63,0.30,0.51,0.23,
4.232,-2.59,-0.92,4.63,0.33,0.51,0.26,
4.232,-2.59,-0.92,4.63,0.36,0.50,0.29,
4.232,-2.69,-0.72,3.71,0.36,0.50,0.29,
4.232,-2.69,-0.72,3.71,0.38,0.49,0.33,
4.232,-2.69,-0.72,3.71,0.40,0.47,0.35,
4.232,-2.69,-0.72,3.71,0.42,0.44,0.38,
4.233,-2.69,-0.72,3.71,0.43,0.41,0.41,
4.233,-2.69,-0.72,3.71,0.45,0.37,0.44,
4.233,-2.55,-0.48,2.90,0.45,0.37,0.44,
4.233,-2.55,-0.48,2.90,0.46,0.33,0.46,
4.233,-2.55,-0.48,2.90,0.46,0.28,0.48,
4.233,-2.55,-0.48,2.90,0.47,0.23,0.50,
4.233,-2.55,-0.48,2.90,0.47,0.17,0.52,
4.234,-2.55,-0.48,2.90,0.47,0.11,0.54,
4.244,-2.10,-0.25,2.29,0.47,0.11,0.54,
4.244,-2.10,-0.25,2.29,0.46,0.05,0.55,
4.244,-2.10,-0.25,2.29,0.45,-0.02,0.57,
4.244,-2.10,-0.25,2.29,0.45,-0.08,0.58,
4.245,-2.10,-0.25,2.29,0.43,-0.15,0.59,
4.245,-2.10,-0.25,2.29,0.42,-0.22,0.60,
4.245,-1.50,-0.18,1.88,0.42,-0.22,0.60,
4.248,-1.50,-0.18,1.88,0.41,-0.28,0.60,
4.249,-1.50,-0.18,1.88,0.39,-0.34,0.61,
4.249,-1.50,-0.18,1.88,0.38,-0.40,0.62,
4.273,-1.50,-0.18,1.88,0.36,-0.45,0.62,
4.273,-1.50,-0.18,1.88,0.35,-0.50,0.62,
4.274,-0.79,-0.07,1.98,0.35,-0.50,0.62,
4.274,-0.79,-0.07,1.98,0.34,-0.55,0.62,
4.274,-0.79,-0.07,1.98,0.33,-0.58,0.62,
4.274,-0.79,-0.07,1.98,0.32,-0.61,0.61,
4.274,-0.79,-0.07,1.98,0.32,-0.63,0.61,
4.275,-0.79,-0.07,1.98,0.31,-0.65,0.60,
4.275,-0.11,-0.02,2.44,0.31,-0.65,0.60,
4.275,-0.11,-0.02,2.44,0.32,-0.66,0.59,
4.275,-0.11,-0.02,2.44,0.32,-0.66,0.58,
4.275,-0.11,-0.02,2.44,0.32,-0.65,0.57,
4.276,-0.11,-0.02,2.44,0.32,-0.64,0.55,
4.276,-0.11,-0.02,2.44,0.33,-0.62,0.54,
4.276,0.54,0.06,2.72,0.33,-0.62,0.54,
4.276,0.54,0.06,2.72,0.33,-0.59,0.53,
4.276,0.54,0.06,2.72,0.33,-0.56,0.51,
4.282,0.54,0.06,2.72,0.33,-0.53,0.49,
4.282,0.54,0.06,2.72,0.33,-0.49,0.48,
4.283,0.54,0.06,2.72,0.33,-0.46,0.46,
4.286,0.99,-0.04,2.58,0.33,-0.46,0.46,
4.286,0.99,-0.04,2.58,0.33,-0.42,0.44,
4.287,0.99,-0.04,2.58,0.33,-0.37,0.42,
4.291,0.99,-0.04,2.58,0.32,-0.33,0.41,
4.295,0.99,-0.04,2.58,0.32,-0.28,0.39,
4.295,0.99,-0.04,2.58,0.32,-0.24,0.37,
4.296,1.18,-0.13,2.17,0.32,-0.24,0.37,
4.296,1.18,-0.13,2.17,0.32,-0.19,0.36,
4.297,1.18,-0.13,2.17,0.31,-0.14,0.35,
4.299,1.18,-0.13,2.17,0.31,-0.10,0.34,
4.301,1.18,-0.13,2.17,0.31,-0.05,0.32,
4.303,1.18,-0.13,2.17,0.30,-0.01,0.31,
4.306,1.11,-0.19,1.71,0.30,-0.01,0.31,
4.306,1.11,-0.19,1.71,0.30,0.04,0.30,
4.313,1.11,-0.19,1.71,0.30,0.08,0.29,
4.313,1.11,-0.19,1.71,0.30,0.11,0.28,
4.313,1.11,-0.19,1.71,0.30,0.15,0.28,
4.323,1.11,-0.19,1.71,0.30,0.19,0.27,
4.348,0.90,-0.23,1.15,0.30,0.19,0.27,
4.349,0.90,-0.23,1.15,0.30,0.22,0.26,
4.349,0.90,-0.23,1.15,0.30,0.25,0.25,
4.349,0.90,-0.23,1.15,0.31,0.29,0.25,
4.349,0.90,-0.23,1.15,0.31,0.32,0.24,
4.349,0.90,-0.23,1.15,0.32,0.35,0.24,
4.349,0.74,-0.35,0.64,0.32,0.35,0.24,
4.349,0.74,-0.35,0.64,0.32,0.38,0.24,
4.35,0.74,-0.35,0.64,0.33,0.41,0.23,
4.35,0.74,-0.35,0.64,0.34,0.43,0.23,
4.35,0.74,-0.35,0.64,0.35,0.46,0.23,
4.35,0.74,-0.35,0.64,0.37,0.48,0.23,
4.35,0.54,-0.49,0.16,0.37,0.48,0.23,
4.35,0.54,-0.49,0.16,0.39,0.52,0.23,
4.35,0.54,-0.49,0.16,0.40,0.53,0.23,
4.35,0.54,-0.49,0.16,0.41,0.55,0.24,
4.351,0.54,-0.49,0.16,0.43,0.56,0.24,
4.351,0.54,-0.49,0.16,0.45,0.58,0.24,
4.351,0.36,-0.62,-0.34,0.45,0.58,0.24,
4.365,0.36,-0.62,-0.34,0.48,0.60,0.25,
4.365,0.36,-0.62,-0.34,0.49,0.60,0.25,
4.365,0.36,-0.62,-0.34,0.51,0.61,0.26,
4.365,0.36,-0.62,-0.34,0.53,0.62,0.27,
4.365,0.36,-0.62,-0.34,0.55,0.62,0.27,
4.365,0.21,-0.75,-0.83,0.55,0.62,0.27,
4.366,0.21,-0.75,-0.83,0.58,0.62,0.29,
4.366,0.21,-0.75,-0.83,0.59,0.62,0.29,
4.366,0.21,-0.75,-0.83,0.62,0.61,0.30,
4.366,0.21,-0.75,-0.83,0.64,0.60,0.31,
4.366,0.21,-0.75,-0.83,0.66,0.59,0.31,
4.366,0.12,-0.89,-1.39,0.66,0.59,0.31,
4.366,0.12,-0.89,-1.39,0.70,0.57,0.32,
4.366,0.12,-0.89,-1.39,0.71,0.56,0.33,
4.371,0.12,-0.89,-1.39,0.73,0.54,0.33,
4.371,0.12,-0.89,-1.39,0.75,0.52,0.34,
4.375,0.12,-0.89,-1.39,0.77,0.50,0.35,
4.378,0.14,-0.98,-1.89,0.77,0.50,0.35,
4.378,0.14,-0.98,-1.89,0.81,0.47,0.36,
4.379,0.14,-0.98,-1.89,0.82,0.45,0.36,
4.379,0.14,-0.98,-1.89,0.84,0.43,0.36,
4.381,0.14,-0.98,-1.89,0.87,0.39,0.37,
4.383,0.14,-0.98,-1.89,0.88,0.38,0.37,
4.385,0.14,-1.06,-2.30,0.88,0.38,0.37,
4.385,0.14,-1.06,-2.30,0.91,0.34,0.38,
4.387,0.14,-1.06,-2.30,0.92,0.33,0.38,
4.389,0.14,-1.06,-2.30,0.94,0.31,0.39,
4.391,0.14,-1.06,-2.30,0.97,0.27,0.40,
4.393,0.14,-1.06,-2.30,0.98,0.26,0.40,
4.396,0.09,-1.17,-2.71,0.98,0.26,0.40,
4.396,0.09,-1.17,-2.71,1.01,0.23,0.41,
4.396,0.09,-1.17,-2.71,1.02,0.22,0.41,
4.399,0.09,-1.17,-2.71,1.04,0.19,0.42,
4.401,0.09,-1.17,-2.71,1.06,0.17,0.42,
4.402,0.09,-1.17,-2.71,1.07,0.15,0.43,
4.405,0.03,-1.30,-3.14,1.07,0.15,0.43,
4.405,0.03,-1.30,-3.14,1.08,0.13,0.43,
4.409,0.03,-1.30,-3.14,1.10,0.12,0.44,
4.409,0.03,-1.30,-3.14,1.11,0.10,0.44,
4.411,0.03,-1.30,-3.14,1.12,0.08,0.45,
4.413,0.03,-1.30,-3.14,1.12,0.07,0.45,
4.416,-0.01,-1.39,-3.58,1.12,0.07,0.45,
4.416,-0.01,-1.39,-3.58,1.13,0.05,0.46,
4.417,-0.01,-1.39,-3.58,1.13,0.04,0.47,
4.434,-0.01,-1.39,-3.58,1.14,0.03,0.47,
4.434,-0.01,-1.39,-3.58,1.13,0.01,0.47,
4.434,-0.01,-1.39,-3.58,1.13,-0.00,0.48,
4.434,-0.04,-1.46,-4.06,1.13,-0.00,0.48,
4.434,-0.04,-1.46,-4.06,1.13,-0.01,0.48,
4.434,-0.04,-1.46,-4.06,1.12,-0.03,0.49,
4.435,-0.04,-1.46,-4.06,1.11,-0.04,0.49,
4.435,-0.04,-1.46,-4.06,1.10,-0.05,0.49,
4.435,-0.04,-1.46,-4.06,1.09,-0.07,0.50,
4.435,-0.02,-1.53,-4.48,1.09,-0.07,0.50,
4.435,-0.02,-1.53,-4.48,1.08,-0.08,0.50,
4.438,-0.02,-1.53,-4.48,1.06,-0.09,0.50,
4.439,-0.02,-1.53,-4.48,1.04,-0.11,0.51,
4.441,-0.02,-1.53,-4.48,1.02,-0.12,0.50,
4.443,-0.02,-1.53,-4.48,1.00,-0.14,0.51,
4.445,-0.03,-1.53,-4.73,1.00,-0.14,0.51,
4.445,-0.03,-1.53,-4.73,0.98,-0.15,0.51,
4.447,-0.03,-1.53,-4.73,0.96,-0.17,0.51,
4.449,-0.03,-1.53,-4.73,0.93,-0.18,0.51,
4.451,-0.03,-1.53,-4.73,0.91,-0.19,0.50,
4.453,-0.03,-1.53,-4.73,0.89,-0.21,0.50,
4.457,0.05,-1.59,-4.73,0.89,-0.21,0.50,
4.458,0.05,-1.59,-4.73,0.86,-0.22,0.50,
4.459,0.05,-1.59,-4.73,0.84,-0.23,0.50,
4.459,0.05,-1.59,-4.73,0.82,-0.24,0.49,
4.461,0.05,-1.59,-4.73,0.80,-0.25,0.49,
4.463,0.05,-1.59,-4.73,0.78,-0.25,0.49,
4.465,0.11,-1.64,-4.48,0.78,-0.25,0.49,
4.465,0.11,-1.64,-4.48,0.76,-0.26,0.49,
4.467,0.11,-1.64,-4.48,0.75,-0.26,0.48,
4.468,0.11,-1.64,-4.48,0.73,-0.27,0.48,
4.47,0.11,-1.64,-4.48,0.71,-0.27,0.48,
4.473,0.11,-1.64,-4.48,0.70,-0.27,0.48,
4.475,0.17,-1.68,-4.10,0.70,-0.27,0.48,
4.475,0.17,-1.68,-4.10,0.68,-0.27,0.48,
4.477,0.17,-1.68,-4.10,0.67,-0.27,0.47,
4.479,0.17,-1.68,-4.10,0.66,-0.27,0.47,
4.48,0.17,-1.68,-4.10,0.64,-0.27,0.47,
4.483,0.17,-1.68,-4.10,0.63,-0.27,0.46,
4.485,0.26,-1.69,-3.77,0.63,-0.27,0.46,
4.485,0.26,-1.69,-3.77,0.62,-0.27,0.46,
4.486,0.26,-1.69,-3.77,0.60,-0.27,0.45,
4.489,0.26,-1.69,-3.77,0.59,-0.27,0.45,
4.491,0.26,-1.69,-3.77,0.58,-0.27,0.44,
4.493,0.26,-1.69,-3.77,0.57,-0.26,0.43,
4.495,0.36,-1.68,-3.47,0.57,-0.26,0.43,
4.495,0.36,-1.68,-3.47,0.56,-0.26,0.42,
4.497,0.36,-1.68,-3.47,0.55,-0.25,0.41,
4.499,0.36,-1.68,-3.47,0.54,-0.25,0.39,
4.5,0.36,-1.68,-3.47,0.53,-0.24,0.38,
4.503,0.36,-1.68,-3.47,0.52,-0.23,0.37,
4.505,0.45,-1.71,-3.18,0.52,-0.23,0.37,
4.505,0.45,-1.71,-3.18,0.52,-0.22,0.36,
4.507,0.45,-1.71,-3.18,0.51,-0.21,0.35,
4.508,0.45,-1.71,-3.18,0.50,-0.21,0.33,
4.511,0.45,-1.71,-3.18,0.49,-0.19,0.32,
4.52,0.45,-1.71,-3.18,0.48,-0.18,0.31,
4.521,0.36,-1.74,-2.92,0.48,-0.18,0.31,
4.521,0.36,-1.74,-2.92,0.47,-0.17,0.30,
4.521,0.36,-1.74,-2.92,0.47,-0.15,0.29,
4.521,0.36,-1.74,-2.92,0.46,-0.14,0.27,
4.521,0.36,-1.74,-2.92,0.45,-0.13,0.27,
4.522,0.36,-1.74,-2.92,0.44,-0.11,0.26,
4.526,0.22,-1.80,-2.79,0.44,-0.11,0.26,
4.526,0.22,-1.80,-2.79,0.43,-0.09,0.25,
4.527,0.22,-1.80,-2.79,0.41,-0.07,0.24,
4.529,0.22,-1.80,-2.79,0.40,-0.05,0.23,
4.53,0.22,-1.80,-2.79,0.39,-0.02,0.22,
4.532,0.22,-1.80,-2.79,0.37,0.00,0.22,
4.535,-0.01,-1.84,-2.81,0.37,0.00,0.22,
4.535,-0.01,-1.84,-2.81,0.35,0.03,0.22,
4.536,-0.01,-1.84,-2.81,0.34,0.05,0.21,
4.541,-0.01,-1.84,-2.81,0.32,0.07,0.21,
4.541,-0.01,-1.84,-2.81,0.29,0.09,0.21,
4.543,-0.01,-1.84,-2.81,0.27,0.11,0.20,
4.546,-0.29,-1.81,-2.78,0.27,0.11,0.20,
4.546,-0.29,-1.81,-2.78,0.24,0.13,0.20,
4.547,-0.29,-1.81,-2.78,0.21,0.15,0.19,
4.549,-0.29,-1.81,-2.78,0.18,0.17,0.19,
4.551,-0.29,-1.81,-2.78,0.15,0.19,0.19,
4.553,-0.29,-1.81,-2.78,0.12,0.21,0.18,
4.561,-0.38,-1.79,-2.64,0.12,0.21,0.18,
4.561,-0.38,-1.79,-2.64,0.09,0.23,0.18,
4.562,-0.38,-1.79,-2.64,0.05,0.25,0.18,
4.562,-0.38,-1.79,-2.64,0.01,0.28,0.18,
4.562,-0.38,-1.79,-2.64,-0.03,0.30,0.18,
4.563,-0.38,-1.79,-2.64,-0.07,0.33,0.18,
4.565,-0.41,-1.82,-2.42,-0.07,0.33,0.18,
4.566,-0.41,-1.82,-2.42,-0.11,0.36,0.18,
4.567,-0.41,-1.82,-2.42,-0.16,0.38,0.17,
4.569,-0.41,-1.82,-2.42,-0.20,0.40,0.17,
4.571,-0.41,-1.82,-2.42,-0.25,0.42,0.17,
4.573,-0.41,-1.82,-2.42,-0.30,0.43,0.16,
4.576,-0.11,-1.76,-2.12,-0.30,0.43,0.16,
4.576,-0.11,-1.76,-2.12,-0.35,0.44,0.15,
4.577,-0.11,-1.76,-2.12,-0.40,0.45,0.14,
4.579,-0.11,-1.76,-2.12,-0.45,0.45,0.12,
4.581,-0.11,-1.76,-2.12,-0.50,0.45,0.10,
4.583,-0.11,-1.76,-2.12,-0.54,0.46,0.08,
4.605,0.40,-1.68,-1.41,-0.54,0.46,0.08,
4.605,0.40,-1.68,-1.41,-0.59,0.46,0.06,
4.605,0.40,-1.68,-1.41,-0.63,0.46,0.03,
4.605,0.40,-1.68,-1.41,-0.67,0.47,0.01,
4.606,0.40,-1.68,-1.41,-0.71,0.48,-0.02,
4.606,0.40,-1.68,-1.41,-0.74,0.48,-0.04,
4.606,0.71,-1.39,-0.51,-0.74,0.48,-0.04,
4.606,0.71,-1.39,-0.51,-0.77,0.49,-0.07,
4.607,0.71,-1.39,-0.51,-0.80,0.49,-0.10,
4.607,0.71,-1.39,-0.51,-0.83,0.50,-0.12,
4.607,0.71,-1.39,-0.51,-0.85,0.50,-0.14,
4.607,0.71,-1.39,-0.51,-0.87,0.51,-0.16,
4.608,0.78,-1.31,0.52,-0.87,0.51,-0.16,
4.608,0.78,-1.31,0.52,-0.88,0.51,-0.18,
4.608,0.78,-1.31,0.52,-0.90,0.51,-0.20,
4.608,0.78,-1.31,0.52,-0.91,0.52,-0.22,
4.614,0.78,-1.31,0.52,-0.92,0.52,-0.23,
4.615,0.78,-1.31,0.52,-0.92,0.52,-0.24,
4.616,0.49,-1.13,1.43,-0.92,0.52,-0.24,
4.616,0.49,-1.13,1.43,-0.92,0.52,-0.25,
4.617,0.49,-1.13,1.43,-0.92,0.51,-0.26,
4.619,0.49,-1.13,1.43,-0.91,0.51,-0.26,
4.622,0.49,-1.13,1.43,-0.90,0.52,-0.27,
4.624,0.49,-1.13,1.43,-0.89,0.52,-0.27,
4.626,0.14,-0.85,2.20,-0.89,0.52,-0.27,
4.626,0.14,-0.85,2.20,-0.88,0.53,-0.27,
4.627,0.14,-0.85,2.20,-0.87,0.54,-0.27,
4.629,0.14,-0.85,2.20,-0.85,0.55,-0.27,
4.631,0.14,-0.85,2.20,-0.83,0.55,-0.27,
4.633,0.14,-0.85,2.20,-0.82,0.57,-0.27,
4.636,-0.18,-0.52,2.56,-0.82,0.57,-0.27,
4.636,-0.18,-0.52,2.56,-0.81,0.58,-0.26,
4.637,-0.18,-0.52,2.56,-0.79,0.58,-0.26,
4.639,-0.18,-0.52,2.56,-0.78,0.59,-0.25,
4.641,-0.18,-0.52,2.56,-0.78,0.59,-0.25,
4.644,-0.18,-0.52,2.56,-0.78,0.59,-0.24,
4.646,-0.25,-0.33,2.30,-0.78,0.59,-0.24,
4.646,-0.25,-0.33,2.30,-0.79,0.59,-0.24,
4.647,-0.25,-0.33,2.30,-0.80,0.59,-0.24,
4.649,-0.25,-0.33,2.30,-0.82,0.58,-0.24,
4.651,-0.25,-0.33,2.30,-0.84,0.57,-0.24,
4.653,-0.25,-0.33,2.30,-0.87,0.56,-0.24,
4.656,0.04,-0.05,1.51,-0.87,0.56,-0.24,
4.656,0.04,-0.05,1.51,-0.91,0.55,-0.25,
4.657,0.04,-0.05,1.51,-0.95,0.54,-0.26,
4.659,0.04,-0.05,1.51,-0.99,0.52,-0.28,
4.661,0.04,-0.05,1.51,-1.04,0.50,-0.30,
4.663,0.04,-0.05,1.51,-1.09,0.48,-0.33,
4.665,0.69,0.35,0.96,-1.09,0.48,-0.33,
4.666,0.69,0.35,0.96,-1.14,0.46,-0.36,
4.667,0.69,0.35,0.96,-1.20,0.43,-0.39,
4.669,0.69,0.35,0.96,-1.25,0.40,-0.42,
4.671,0.69,0.35,0.96,-1.31,0.38,-0.46,
4.673,0.69,0.35,0.96,-1.37,0.35,-0.50,
4.677,1.15,0.71,1.08,-1.37,0.35,-0.50,
4.677,1.15,0.71,1.08,-1.42,0.32,-0.54,
4.677,1.15,0.71,1.08,-1.47,0.29,-0.58,
4.693,1.15,0.71,1.08,-1.52,0.26,-0.63,
4.694,1.15,0.71,1.08,-1.57,0.24,-0.67,
4.694,1.15,0.71,1.08,-1.62,0.21,-0.71,
4.694,1.42,0.77,1.91,-1.62,0.21,-0.71,
4.694,1.42,0.77,1.91,-1.66,0.19,-0.75,
4.695,1.42,0.77,1.91,-1.70,0.17,-0.78,
4.695,1.42,0.77,1.91,-1.74,0.17,-0.82,
4.695,1.42,0.77,1.91,-1.77,0.16,-0.85,
4.695,1.42,0.77,1.91,-1.80,0.17,-0.88,
4.696,1.18,0.71,3.24,-1.80,0.17,-0.88,
4.696,1.18,0.71,3.24,-1.82,0.17,-0.90,
4.712,1.18,0.71,3.24,-1.84,0.19,-0.92,
4.713,1.18,0.71,3.24,-1.85,0.21,-0.93,
4.713,1.18,0.71,3.24,-1.86,0.23,-0.95,
4.713,1.18,0.71,3.24,-1.86,0.25,-0.95,
4.713,0.73,0.37,4.75,-1.86,0.25,-0.95,
4.713,0.73,0.37,4.75,-1.85,0.28,-0.96,
4.714,0.73,0.37,4.75,-1.84,0.31,-0.96,
4.714,0.73,0.37,4.75,-1.83,0.34,-0.96,
4.714,0.73,0.37,4.75,-1.81,0.37,-0.96,
4.714,0.73,0.37,4.75,-1.78,0.40,-0.95,
4.721,0.11,-0.16,6.23,-1.78,0.40,-0.95,
4.721,0.11,-0.16,6.23,-1.74,0.43,-0.93,
4.722,0.11,-0.16,6.23,-1.70,0.45,-0.91,
4.722,0.11,-0.16,6.23,-1.65,0.48,-0.89,
4.722,0.11,-0.16,6.23,-1.60,0.50,-0.86,
4.745,0.11,-0.16,6.23,-1.53,0.52,-0.83,
4.746,-0.59,-0.58,7.58,-1.53,0.52,-0.83,
4.746,-0.59,-0.58,7.58,-1.47,0.54,-0.80,
4.746,-0.59,-0.58,7.58,-1.40,0.56,-0.76,
4.746,-0.59,-0.58,7.58,-1.32,0.57,-0.72,
4.746,-0.59,-0.58,7.58,-1.24,0.58,-0.67,
4.746,-0.59,-0.58,7.58,-1.15,0.59,-0.63,
4.747,-1.28,-0.83,8.39,-1.15,0.59,-0.63,
4.747,-1.28,-0.83,8.39,-1.06,0.60,-0.57,
4.747,-1.28,-0.83,8.39,-0.97,0.60,-0.52,
4.747,-1.28,-0.83,8.39,-0.87,0.60,-0.46,
4.747,-1.28,-0.83,8.39,-0.78,0.59,-0.40,
4.747,-1.28,-0.83,8.39,-0.68,0.58,-0.35,
4.747,-1.69,-0.98,8.49,-0.68,0.58,-0.35,
4.748,-1.69,-0.98,8.49,-0.58,0.56,-0.29,
4.748,-1.69,-0.98,8.49,-0.48,0.53,-0.23,
4.751,-1.69,-0.98,8.49,-0.38,0.50,-0.17,
4.751,-1.69,-0.98,8.49,-0.28,0.47,-0.12,
4.771,-1.69,-0.98,8.49,-0.19,0.43,-0.07,
4.772,-1.60,-0.87,7.81,-0.19,0.43,-0.07,
4.772,-1.60,-0.87,7.81,-0.10,0.39,-0.02,
4.772,-1.60,-0.87,7.81,-0.01,0.35,0.03,
4.772,-1.60,-0.87,7.81,0.08,0.30,0.07,
4.772,-1.60,-0.87,7.81,0.15,0.24,0.11,
4.772,-1.60,-0.87,7.81,0.23,0.18,0.14,
4.773,-1.03,-0.65,6.43,0.23,0.18,0.14,
4.773,-1.03,-0.65,6.43,0.30,0.13,0.17,
4.773,-1.03,-0.65,6.43,0.36,0.06,0.20,
4.773,-1.03,-0.65,6.43,0.41,0.00,0.23,
4.773,-1.03,-0.65,6.43,0.46,-0.06,0.25,
4.777,-1.03,-0.65,6.43,0.51,-0.12,0.27,
4.777,-0.27,-0.36,4.67,0.51,-0.12,0.27,
4.777,-0.27,-0.36,4.67,0.54,-0.18,0.28,
4.777,-0.27,-0.36,4.67,0.57,-0.23,0.29,
4.779,-0.27,-0.36,4.67,0.59,-0.28,0.30,
4.781,-0.27,-0.36,4.67,0.61,-0.33,0.31,
4.783,-0.27,-0.36,4.67,0.62,-0.37,0.32,
4.786,0.55,-0.11,2.88,0.62,-0.37,0.32,
4.786,0.55,-0.11,2.88,0.62,-0.41,0.31,
4.787,0.55,-0.11,2.88,0.62,-0.44,0.31,
4.789,0.55,-0.11,2.88,0.61,-0.47,0.31,
4.791,0.55,-0.11,2.88,0.60,-0.50,0.30,
4.794,0.55,-0.11,2.88,0.58,-0.52,0.29,
4.796,1.17,0.13,1.28,0.58,-0.52,0.29,
4.796,1.17,0.13,1.28,0.55,-0.54,0.28,
4.797,1.17,0.13,1.28,0.53,-0.56,0.27,
4.799,1.17,0.13,1.28,0.50,-0.57,0.26,
4.801,1.17,0.13,1.28,0.46,-0.57,0.24,
4.803,1.17,0.13,1.28,0.42,-0.58,0.22,
4.807,1.70,0.32,0.15,0.42,-0.58,0.22,
4.807,1.70,0.32,0.15,0.39,-0.58,0.21,
4.807,1.70,0.32,0.15,0.34,-0.57,0.19,
4.809,1.70,0.32,0.15,0.30,-0.56,0.17,
4.811,1.70,0.32,0.15,0.27,-0.55,0.15,
4.813,1.70,0.32,0.15,0.22,-0.54,0.12,
4.816,1.99,0.41,-0.50,0.22,-0.54,0.12,
4.816,1.99,0.41,-0.50,0.18,-0.52,0.10,
4.817,1.99,0.41,-0.50,0.14,-0.50,0.08,
4.819,1.99,0.41,-0.50,0.10,-0.48,0.06,
4.825,1.99,0.41,-0.50,0.06,-0.46,0.04,
4.825,1.99,0.41,-0.50,0.02,-0.43,0.02,
4.827,2.16,0.47,-0.78,0.02,-0.43,0.02,
4.828,2.16,0.47,-0.78,-0.02,-0.40,-0.01,
4.828,2.16,0.47,-0.78,-0.06,-0.37,-0.03,
4.829,2.16,0.47,-0.78,-0.09,-0.33,-0.05,
4.863,2.16,0.47,-0.78,-0.12,-0.30,-0.07,
4.863,2.16,0.47,-0.78,-0.15,-0.26,-0.09,
4.864,2.00,0.45,-0.77,-0.15,-0.26,-0.09,
4.864,2.00,0.45,-0.77,-0.18,-0.23,-0.11,
4.864,2.00,0.45,-0.77,-0.20,-0.19,-0.13,
4.864,2.00,0.45,-0.77,-0.22,-0.15,-0.15,
4.864,2.00,0.45,-0.77,-0.23,-0.11,-0.17,
4.864,2.00,0.45,-0.77,-0.24,-0.07,-0.18,
4.864,1.81,0.32,-0.31,-0.24,-0.07,-0.18,
4.881,1.81,0.32,-0.31,-0.24,-0.03,-0.20,
4.881,1.81,0.32,-0.31,-0.24,0.01,-0.21,
4.881,1.81,0.32,-0.31,-0.23,0.04,-0.22,
4.881,1.81,0.32,-0.31,-0.22,0.08,-0.23,
4.882,1.81,0.32,-0.31,-0.20,0.11,-0.23,
4.882,1.44,0.14,0.24,-0.20,0.11,-0.23,
4.882,1.44,0.14,0.24,-0.18,0.15,-0.24,
4.882,1.44,0.14,0.24,-0.15,0.18,-0.24,
4.882,1.44,0.14,0.24,-0.12,0.20,-0.24,
4.882,1.44,0.14,0.24,-0.09,0.23,-0.23,
4.883,1.44,0.14,0.24,-0.05,0.25,-0.23,
4.883,1.09,-0.02,0.55,-0.05,0.25,-0.23,
4.883,1.09,-0.02,0.55,-0.02,0.26,-0.23,
4.883,1.09,-0.02,0.55,0.03,0.27,-0.22,
4.883,1.09,-0.02,0.55,0.07,0.28,-0.22,
4.884,1.09,-0.02,0.55,0.11,0.29,-0.21,
4.884,1.09,-0.02,0.55,0.15,0.29,-0.20,
4.884,0.77,-0.11,0.43,0.15,0.29,-0.20,
4.884,0.77,-0.11,0.43,0.20,0.29,-0.19,
4.884,0.77,-0.11,0.43,0.24,0.29,-0.18,
4.884,0.77,-0.11,0.43,0.29,0.28,-0.17,
4.885,0.77,-0.11,0.43,0.34,0.28,-0.16,
4.885,0.77,-0.11,0.43,0.38,0.27,-0.15,
4.885,0.53,-0.09,0.07,0.38,0.27,-0.15,
4.885,0.53,-0.09,0.07,0.43,0.25,-0.14,
4.891,0.53,-0.09,0.07,0.48,0.24,-0.13,
4.892,0.53,-0.09,0.07,0.53,0.23,-0.12,
4.892,0.53,-0.09,0.07,0.58,0.21,-0.10,
4.893,0.53,-0.09,0.07,0.62,0.19,-0.10,
4.895,0.40,-0.09,-0.50,0.62,0.19,-0.10,
4.896,0.40,-0.09,-0.50,0.67,0.17,-0.09,
4.897,0.40,-0.09,-0.50,0.71,0.15,-0.07,
4.899,0.40,-0.09,-0.50,0.75,0.13,-0.07,
4.901,0.40,-0.09,-0.50,0.79,0.11,-0.06,
4.903,0.40,-0.09,-0.50,0.83,0.08,-0.05,
4.906,0.44,-0.11,-1.21,0.83,0.08,-0.05,
4.907,0.44,-0.11,-1.21,0.87,0.06,-0.05,
4.907,0.44,-0.11,-1.21,0.90,0.03,-0.04,
4.909,0.44,-0.11,-1.21,0.93,0.01,-0.04,
4.911,0.44,-0.11,-1.21,0.96,-0.02,-0.04,
4.913,0.44,-0.11,-1.21,0.99,-0.05,-0.03,
4.915,0.44,-0.09,-2.01,0.99,-0.05,-0.03,
4.915,0.44,-0.09,-2.01,1.02,-0.08,-0.03,
4.916,0.44,-0.09,-2.01,1.04,-0.11,-0.03,
4.932,0.44,-0.09,-2.01,1.06,-0.14,-0.03,
4.932,0.44,-0.09,-2.01,1.08,-0.17,-0.03,
4.932,0.44,-0.09,-2.01,1.10,-0.20,-0.03,
4.932,0.47,0.03,-2.82,1.10,-0.20,-0.03,
4.932,0.47,0.03,-2.82,1.11,-0.23,-0.04,
4.932,0.47,0.03,-2.82,1.12,-0.26,-0.04,
4.933,0.47,0.03,-2.82,1.12,-0.30,-0.04,
4.933,0.47,0.03,-2.82,1.12,-0.33,-0.05,
4.933,0.47,0.03,-2.82,1.12,-0.36,-0.06,
4.935,0.56,0.01,-3.56,1.12,-0.36,-0.06,
4.936,0.56,0.01,-3.56,1.11,-0.39,-0.06,
4.94,0.56,0.01,-3.56,1.11,-0.43,-0.07,
4.94,0.56,0.01,-3.56,1.10,-0.46,-0.08,
4.941,0.56,0.01,-3.56,1.08,-0.49,-0.09,
4.943,0.56,0.01,-3.56,1.07,-0.52,-0.11,
4.945,0.68,0.10,-4.07,1.07,-0.52,-0.11,
4.945,0.68,0.10,-4.07,1.05,-0.54,-0.12,
4.946,0.68,0.10,-4.07,1.04,-0.56,-0.13,
4.948,0.68,0.10,-4.07,1.02,-0.58,-0.14,
4.95,0.68,0.10,-4.07,0.99,-0.60,-0.16,
4.952,0.68,0.10,-4.07,0.97,-0.62,-0.17,
4.955,0.65,0.10,-4.28,0.97,-0.62,-0.17,
4.956,0.65,0.10,-4.28,0.95,-0.63,-0.18,
4.957,0.65,0.10,-4.28,0.93,-0.64,-0.19,
4.959,0.65,0.10,-4.28,0.90,-0.65,-0.20,
4.961,0.65,0.10,-4.28,0.88,-0.66,-0.21,
4.962,0.65,0.10,-4.28,0.86,-0.66,-0.23,
4.965,0.65,0.10,-4.22,0.86,-0.66,-0.23,
4.965,0.65,0.10,-4.22,0.83,-0.66,-0.24,
4.966,0.65,0.10,-4.22,0.81,-0.66,-0.24,
4.969,0.65,0.10,-4.22,0.78,-0.66,-0.25,
4.974,0.65,0.10,-4.22,0.76,-0.66,-0.26,
4.974,0.65,0.10,-4.22,0.73,-0.66,-0.27,
4.975,0.63,0.05,-3.99,0.73,-0.66,-0.27,
4.975,0.63,0.05,-3.99,0.70,-0.65,-0.28,
4.977,0.63,0.05,-3.99,0.68,-0.65,-0.29,
4.979,0.63,0.05,-3.99,0.65,-0.64,-0.31,
4.981,0.63,0.05,-3.99,0.63,-0.63,-0.32,
4.983,0.63,0.05,-3.99,0.60,-0.63,-0.33,
4.985,0.77,0.14,-3.62,0.60,-0.63,-0.33,
4.985,0.77,0.14,-3.62,0.59,-0.62,-0.35,
