
time,ax,ay,az,wx,wy,wz,
0.004,-0.39,-1.19,-1.18,-0.51,0.19,1.13,
0.004,-0.39,-1.19,-1.18,-0.54,0.20,1.16,
0.004,-0.39,-1.19,-1.18,-0.57,0.21,1.20,
0.004,-0.39,-1.19,-1.18,-0.62,0.22,1.25,
0.005,-0.39,-1.19,-1.18,-0.63,0.22,1.26,
0.005,-0.39,-1.19,-1.18,-0.66,0.22,1.29,
0.006,-0.17,-1.10,-1.08,-0.66,0.22,1.29,
0.007,-0.17,-1.10,-1.08,-0.68,0.21,1.31,
0.008,-0.17,-1.10,-1.08,-0.70,0.21,1.33,
0.011,-0.17,-1.10,-1.08,-0.73,0.19,1.35,
0.016,-0.17,-1.10,-1.08,-0.74,0.19,1.35,
0.017,-0.17,-1.10,-1.08,-0.75,0.17,1.36,
0.017,0.29,-0.72,-0.88,-0.75,0.17,1.36,
0.017,0.29,-0.72,-0.88,-0.76,0.15,1.36,
0.018,0.29,-0.72,-0.88,-0.77,0.13,1.36,
0.021,0.29,-0.72,-0.88,-0.78,0.11,1.36,
0.023,0.29,-0.72,-0.88,-0.79,0.10,1.36,
0.024,0.29,-0.72,-0.88,-0.79,0.09,1.36,
0.028,0.90,-0.37,-0.66,-0.79,0.09,1.36,
0.028,0.90,-0.37,-0.66,-0.79,0.08,1.35,
0.029,0.90,-0.37,-0.66,-0.80,0.08,1.34,
0.032,0.90,-0.37,-0.66,-0.80,0.06,1.32,
0.033,0.90,-0.37,-0.66,-0.81,0.06,1.31,
0.035,0.90,-0.37,-0.66,-0.81,0.06,1.30,
0.04,1.49,-0.34,-0.40,-0.81,0.06,1.30,
0.04,1.49,-0.34,-0.40,-0.81,0.05,1.28,
0.041,1.49,-0.34,-0.40,-0.81,0.05,1.26,
0.041,1.49,-0.34,-0.40,-0.80,0.04,1.23,
0.041,1.49,-0.34,-0.40,-0.80,0.04,1.22,
0.054,1.49,-0.34,-0.40,-0.80,0.04,1.19,
0.055,1.97,-0.43,-0.19,-0.80,0.04,1.19,
0.055,1.97,-0.43,-0.19,-0.80,0.03,1.17,
0.055,1.97,-0.43,-0.19,-0.80,0.03,1.15,
0.056,1.97,-0.43,-0.19,-0.80,0.02,1.11,
0.056,1.97,-0.43,-0.19,-0.80,0.02,1.10,
0.06,1.97,-0.43,-0.19,-0.79,0.02,1.08,
0.06,2.03,-0.49,-0.06,-0.79,0.02,1.08,
0.061,2.03,-0.49,-0.06,-0.79,0.02,1.06,
0.061,2.03,-0.49,-0.06,-0.79,0.01,1.04,
0.061,2.03,-0.49,-0.06,-0.79,0.01,1.02,
0.062,2.03,-0.49,-0.06,-0.79,0.01,1.01,
0.063,2.03,-0.49,-0.06,-0.79,0.00,0.99,
0.069,1.85,-0.48,0.16,-0.79,0.00,0.99,
0.072,1.85,-0.48,0.16,-0.79,0.01,0.97,
0.073,1.85,-0.48,0.16,-0.79,0.01,0.96,
0.087,1.85,-0.48,0.16,-0.78,0.03,0.95,
0.088,1.85,-0.48,0.16,-0.78,0.04,0.94,
0.088,1.85,-0.48,0.16,-0.77,0.07,0.93,
0.088,1.56,-0.32,0.43,-0.77,0.07,0.93,
0.088,1.56,-0.32,0.43,-0.76,0.09,0.92,
0.089,1.56,-0.32,0.43,-0.76,0.11,0.92,
0.089,1.56,-0.32,0.43,-0.74,0.14,0.91,
0.089,1.56,-0.32,0.43,-0.74,0.15,0.91,
0.09,1.56,-0.32,0.43,-0.72,0.18,0.90,
0.09,1.43,-0.31,0.95,-0.72,0.18,0.90,
0.09,1.43,-0.31,0.95,-0.71,0.20,0.90,
0.09,1.43,-0.31,0.95,-0.69,0.22,0.89,
0.091,1.43,-0.31,0.95,-0.66,0.24,0.89,
0.091,1.43,-0.31,0.95,-0.65,0.25,0.88,
0.094,1.43,-0.31,0.95,-0.62,0.27,0.87,
0.096,1.30,-0.30,1.31,-0.62,0.27,0.87,
0.097,1.30,-0.30,1.31,-0.60,0.29,0.87,
0.098,1.30,-0.30,1.31,-0.57,0.30,0.86,
0.1,1.30,-0.30,1.31,-0.54,0.32,0.84,
0.101,1.30,-0.30,1.31,-0.52,0.33,0.84,
0.103,1.30,-0.30,1.31,-0.50,0.35,0.83,
0.105,1.32,-0.29,1.50,-0.50,0.35,0.83,
0.106,1.32,-0.29,1.50,-0.48,0.36,0.82,
0.107,1.32,-0.29,1.50,-0.45,0.36,0.81,
0.11,1.32,-0.29,1.50,-0.42,0.37,0.80,
0.112,1.32,-0.29,1.50,-0.41,0.38,0.79,
0.113,1.32,-0.29,1.50,-0.39,0.38,0.79,
0.117,1.31,-0.25,1.47,-0.39,0.38,0.79,
0.117,1.31,-0.25,1.47,-0.37,0.38,0.78,
0.117,1.31,-0.25,1.47,-0.36,0.38,0.77,
0.12,1.31,-0.25,1.47,-0.33,0.38,0.75,
0.122,1.31,-0.25,1.47,-0.33,0.38,0.75,
0.123,1.31,-0.25,1.47,-0.31,0.37,0.74,
0.128,1.43,-0.24,1.34,-0.31,0.37,0.74,
0.129,1.43,-0.24,1.34,-0.30,0.36,0.73,
0.129,1.43,-0.24,1.34,-0.29,0.34,0.71,
0.131,1.43,-0.24,1.34,-0.28,0.32,0.70,
0.131,1.43,-0.24,1.34,-0.27,0.31,0.69,
0.133,1.43,-0.24,1.34,-0.26,0.30,0.68,
0.136,1.40,-0.16,1.14,-0.26,0.30,0.68,
0.136,1.40,-0.16,1.14,-0.26,0.28,0.67,
0.136,1.40,-0.16,1.14,-0.25,0.27,0.66,
0.14,1.40,-0.16,1.14,-0.25,0.24,0.65,
0.141,1.40,-0.16,1.14,-0.25,0.24,0.64,
0.148,1.40,-0.16,1.14,-0.24,0.20,0.62,
0.148,1.40,-0.16,1.14,-0.24,0.20,0.62,
0.148,1.40,-0.16,1.14,-0.24,0.20,0.62,
0.149,1.34,-0.13,1.04,-0.24,0.20,0.62,
0.151,1.34,-0.13,1.04,-0.24,0.18,0.61,
0.152,1.34,-0.13,1.04,-0.23,0.18,0.61,
0.153,1.34,-0.13,1.04,-0.23,0.17,0.61,
0.156,1.24,-0.19,1.00,-0.23,0.17,0.61,
0.156,1.24,-0.19,1.00,-0.23,0.17,0.60,
0.157,1.24,-0.19,1.00,-0.22,0.18,0.60,
0.177,1.24,-0.19,1.00,-0.22,0.18,0.60,
0.177,1.24,-0.19,1.00,-0.22,0.19,0.60,
0.178,1.24,-0.19,1.00,-0.21,0.19,0.60,
0.178,1.24,-0.38,1.02,-0.21,0.19,0.60,
0.178,1.24,-0.38,1.02,-0.21,0.20,0.60,
0.179,1.24,-0.38,1.02,-0.21,0.20,0.61,
0.179,1.24,-0.38,1.02,-0.20,0.21,0.62,
0.179,1.24,-0.38,1.02,-0.20,0.21,0.62,
0.179,1.24,-0.38,1.02,-0.20,0.22,0.63,
0.208,1.09,-0.54,1.01,-0.20,0.22,0.63,
0.209,1.09,-0.54,1.01,-0.19,0.23,0.64,
0.209,1.09,-0.54,1.01,-0.19,0.23,0.65,
0.21,1.09,-0.54,1.01,-0.18,0.25,0.66,
0.21,1.09,-0.54,1.01,-0.18,0.25,0.66,
0.21,1.09,-0.54,1.01,-0.17,0.26,0.67,
0.211,1.07,-0.65,1.02,-0.17,0.26,0.67,
0.211,1.07,-0.65,1.02,-0.16,0.27,0.68,
0.212,1.07,-0.65,1.02,-0.16,0.27,0.69,
0.212,1.07,-0.65,1.02,-0.15,0.28,0.70,
0.213,1.07,-0.65,1.02,-0.15,0.28,0.71,
0.213,1.07,-0.65,1.02,-0.14,0.29,0.71,
0.213,1.11,-0.66,0.98,-0.14,0.29,0.71,
0.214,1.11,-0.66,0.98,-0.14,0.29,0.72,
0.214,1.11,-0.66,0.98,-0.14,0.30,0.73,
0.215,1.11,-0.66,0.98,-0.14,0.30,0.74,
0.215,1.11,-0.66,0.98,-0.13,0.30,0.74,
0.216,1.11,-0.66,0.98,-0.14,0.30,0.74,
0.216,1.35,-0.63,0.88,-0.14,0.30,0.74,
0.216,1.35,-0.63,0.88,-0.14,0.30,0.74,
0.217,1.35,-0.63,0.88,-0.14,0.29,0.75,
0.217,1.35,-0.63,0.88,-0.14,0.28,0.75,
0.217,1.35,-0.63,0.88,-0.14,0.28,0.75,
0.218,1.35,-0.63,0.88,-0.15,0.27,0.74,
0.218,1.47,-0.56,0.67,-0.15,0.27,0.74,
0.218,1.47,-0.56,0.67,-0.16,0.27,0.74,
0.218,1.47,-0.56,0.67,-0.17,0.26,0.74,
0.23,1.47,-0.56,0.67,-0.18,0.25,0.74,
0.231,1.47,-0.56,0.67,-0.19,0.25,0.74,
0.231,1.47,-0.56,0.67,-0.21,0.25,0.74,
0.231,1.65,-0.50,0.47,-0.21,0.25,0.74,
0.232,1.65,-0.50,0.47,-0.22,0.25,0.74,
0.232,1.65,-0.50,0.47,-0.24,0.25,0.74,
0.232,1.65,-0.50,0.47,-0.27,0.24,0.74,
0.241,1.65,-0.50,0.47,-0.27,0.24,0.74,
0.242,1.65,-0.50,0.47,-0.29,0.23,0.73,
0.242,1.72,-0.40,0.31,-0.29,0.23,0.73,
0.242,1.72,-0.40,0.31,-0.31,0.23,0.73,
0.242,1.72,-0.40,0.31,-0.33,0.22,0.73,
0.245,1.72,-0.40,0.31,-0.36,0.22,0.72,
0.245,1.72,-0.40,0.31,-0.37,0.22,0.72,
0.245,1.72,-0.40,0.31,-0.39,0.21,0.71,
0.248,1.78,-0.34,0.26,-0.39,0.21,0.71,
0.248,1.78,-0.34,0.26,-0.40,0.20,0.71,
0.248,1.78,-0.34,0.26,-0.42,0.19,0.71,
0.252,1.78,-0.34,0.26,-0.45,0.18,0.70,
0.253,1.78,-0.34,0.26,-0.46,0.17,0.70,
0.253,1.78,-0.34,0.26,-0.47,0.17,0.70,
0.256,1.76,-0.29,0.29,-0.47,0.17,0.70,
0.256,1.76,-0.29,0.29,-0.49,0.16,0.69,
0.258,1.76,-0.29,0.29,-0.50,0.15,0.69,
0.26,1.76,-0.29,0.29,-0.52,0.14,0.68,
0.261,1.76,-0.29,0.29,-0.52,0.14,0.68,
0.263,1.76,-0.29,0.29,-0.53,0.13,0.67,
0.265,1.85,-0.21,0.46,-0.53,0.13,0.67,
0.266,1.85,-0.21,0.46,-0.53,0.13,0.67,
0.267,1.85,-0.21,0.46,-0.54,0.12,0.66,
0.27,1.85,-0.21,0.46,-0.54,0.12,0.65,
0.271,1.85,-0.21,0.46,-0.55,0.11,0.65,
0.273,1.85,-0.21,0.46,-0.55,0.11,0.64,
0.278,1.81,-0.21,0.53,-0.55,0.11,0.64,
0.278,1.81,-0.21,0.53,-0.55,0.10,0.64,
0.278,1.81,-0.21,0.53,-0.55,0.09,0.63,
0.282,1.81,-0.21,0.53,-0.55,0.08,0.63,
0.283,1.81,-0.21,0.53,-0.55,0.08,0.63,
0.283,1.81,-0.21,0.53,-0.55,0.07,0.62,
0.285,1.74,-0.34,0.57,-0.55,0.07,0.62,
0.285,1.74,-0.34,0.57,-0.55,0.07,0.62,
0.287,1.74,-0.34,0.57,-0.55,0.07,0.63,
0.29,1.74,-0.34,0.57,-0.55,0.07,0.63,
0.303,1.74,-0.34,0.57,-0.55,0.07,0.64,
0.304,1.74,-0.34,0.57,-0.55,0.07,0.64,
0.304,1.48,-0.36,0.44,-0.55,0.07,0.64,
0.304,1.48,-0.36,0.44,-0.55,0.08,0.65,
0.304,1.48,-0.36,0.44,-0.55,0.08,0.66,
0.304,1.48,-0.36,0.44,-0.55,0.08,0.67,
0.305,1.48,-0.36,0.44,-0.55,0.08,0.68,
0.305,1.48,-0.36,0.44,-0.55,0.08,0.69,
0.306,1.23,-0.33,0.33,-0.55,0.08,0.69,
0.307,1.23,-0.33,0.33,-0.55,0.09,0.70,
0.307,1.23,-0.33,0.33,-0.55,0.09,0.72,
0.311,1.23,-0.33,0.33,-0.54,0.08,0.73,
0.311,1.23,-0.33,0.33,-0.54,0.08,0.74,
0.313,1.23,-0.33,0.33,-0.54,0.07,0.75,
0.315,1.05,-0.22,0.18,-0.54,0.07,0.75,
0.316,1.05,-0.22,0.18,-0.54,0.07,0.77,
0.32,1.05,-0.22,0.18,-0.53,0.06,0.78,
0.32,1.05,-0.22,0.18,-0.53,0.06,0.80,
0.321,1.05,-0.22,0.18,-0.53,0.06,0.80,
0.337,1.05,-0.22,0.18,-0.52,0.06,0.82,
0.338,1.08,-0.17,0.11,-0.52,0.06,0.82,
0.338,1.08,-0.17,0.11,-0.52,0.05,0.83,
0.338,1.08,-0.17,0.11,-0.51,0.05,0.84,
0.338,1.08,-0.17,0.11,-0.50,0.06,0.85,
0.338,1.08,-0.17,0.11,-0.50,0.07,0.86,
0.338,1.08,-0.17,0.11,-0.49,0.07,0.86,
0.339,1.23,-0.13,0.10,-0.49,0.07,0.86,
0.339,1.23,-0.13,0.10,-0.48,0.07,0.87,
0.341,1.23,-0.13,0.10,-0.47,0.08,0.87,
0.341,1.23,-0.13,0.10,-0.45,0.08,0.88,
0.358,1.23,-0.13,0.10,-0.45,0.08,0.88,
0.358,1.23,-0.13,0.10,-0.44,0.08,0.88,
0.359,1.48,-0.08,0.07,-0.44,0.08,0.88,
0.359,1.48,-0.08,0.07,-0.43,0.08,0.88,
0.359,1.48,-0.08,0.07,-0.41,0.08,0.88,
0.359,1.48,-0.08,0.07,-0.40,0.07,0.87,
0.359,1.48,-0.08,0.07,-0.39,0.07,0.86,
0.36,1.48,-0.08,0.07,-0.38,0.06,0.86,
0.36,1.69,0.02,-0.05,-0.38,0.06,0.86,
0.36,1.69,0.02,-0.05,-0.37,0.05,0.85,
0.36,1.69,0.02,-0.05,-0.36,0.04,0.84,
0.37,1.69,0.02,-0.05,-0.34,0.03,0.82,
0.371,1.69,0.02,-0.05,-0.34,0.02,0.82,
0.371,1.69,0.02,-0.05,-0.33,0.01,0.81,
0.371,1.89,0.13,-0.24,-0.33,0.01,0.81,
0.371,1.89,0.13,-0.24,-0.32,0.01,0.80,
0.371,1.89,0.13,-0.24,-0.31,-0.00,0.79,
0.372,1.89,0.13,-0.24,-0.31,-0.02,0.77,
0.372,1.89,0.13,-0.24,-0.31,-0.02,0.76,
0.374,1.89,0.13,-0.24,-0.30,-0.03,0.75,
0.375,1.80,0.16,-0.49,-0.30,-0.03,0.75,
0.375,1.80,0.16,-0.49,-0.30,-0.04,0.74,
0.377,1.80,0.16,-0.49,-0.31,-0.05,0.73,
0.38,1.80,0.16,-0.49,-0.31,-0.07,0.72,
0.381,1.80,0.16,-0.49,-0.31,-0.08,0.71,
0.383,1.80,0.16,-0.49,-0.31,-0.10,0.71,
0.385,1.61,0.12,-0.70,-0.31,-0.10,0.71,
0.386,1.61,0.12,-0.70,-0.31,-0.11,0.71,
0.386,1.61,0.12,-0.70,-0.31,-0.13,0.71,
0.391,1.61,0.12,-0.70,-0.32,-0.16,0.71,
0.391,1.61,0.12,-0.70,-0.32,-0.17,0.71,
0.393,1.61,0.12,-0.70,-0.33,-0.18,0.72,
0.395,1.17,0.05,-0.97,-0.33,-0.18,0.72,
0.395,1.17,0.05,-0.97,-0.34,-0.20,0.73,
0.397,1.17,0.05,-0.97,-0.35,-0.22,0.74,
0.4,1.17,0.05,-0.97,-0.38,-0.25,0.76,
0.401,1.17,0.05,-0.97,-0.38,-0.26,0.76,
0.403,1.17,0.05,-0.97,-0.40,-0.28,0.78,
0.405,0.92,0.04,-1.17,-0.40,-0.28,0.78,
0.405,0.92,0.04,-1.17,-0.41,-0.29,0.79,
0.407,0.92,0.04,-1.17,-0.43,-0.31,0.81,
0.41,0.92,0.04,-1.17,-0.45,-0.34,0.83,
0.413,0.92,0.04,-1.17,-0.46,-0.34,0.84,
0.413,0.92,0.04,-1.17,-0.47,-0.36,0.86,
0.415,0.68,0.07,-1.13,-0.47,-0.36,0.86,
0.415,0.68,0.07,-1.13,-0.49,-0.37,0.88,
0.417,0.68,0.07,-1.13,-0.49,-0.37,0.90,
0.42,0.68,0.07,-1.13,-0.51,-0.36,0.93,
0.421,0.68,0.07,-1.13,-0.51,-0.36,0.94,
0.424,0.68,0.07,-1.13,-0.52,-0.35,0.96,
0.425,0.73,0.12,-0.84,-0.52,-0.35,0.96,
0.426,0.73,0.12,-0.84,-0.53,-0.34,0.97,
0.427,0.73,0.12,-0.84,-0.52,-0.33,0.99,
0.43,0.73,0.12,-0.84,-0.52,-0.31,1.01,
0.431,0.73,0.12,-0.84,-0.52,-0.30,1.01,
0.432,0.73,0.12,-0.84,-0.52,-0.29,1.02,
0.435,0.94,0.11,-0.45,-0.52,-0.29,1.02,
0.435,0.94,0.11,-0.45,-0.51,-0.27,1.03,
0.436,0.94,0.11,-0.45,-0.51,-0.25,1.03,
0.451,0.94,0.11,-0.45,-0.49,-0.23,1.03,
0.451,0.94,0.11,-0.45,-0.49,-0.22,1.02,
0.452,0.94,0.11,-0.45,-0.47,-0.21,1.02,
0.452,1.28,0.11,-0.22,-0.47,-0.21,1.02,
0.453,1.28,0.11,-0.22,-0.46,-0.19,1.01,
0.453,1.28,0.11,-0.22,-0.44,-0.17,1.00,
0.453,1.28,0.11,-0.22,-0.42,-0.15,0.98,
0.454,1.28,0.11,-0.22,-0.41,-0.14,0.97,
0.454,1.28,0.11,-0.22,-0.39,-0.12,0.96,
0.456,1.55,0.16,-0.09,-0.39,-0.12,0.96,
0.456,1.55,0.16,-0.09,-0.37,-0.09,0.95,
0.476,1.55,0.16,-0.09,-0.36,-0.07,0.93,
0.477,1.55,0.16,-0.09,-0.34,-0.04,0.90,
0.477,1.55,0.16,-0.09,-0.33,-0.03,0.89,
0.477,1.55,0.16,-0.09,-0.31,-0.01,0.88,
0.478,1.79,0.21,-0.17,-0.31,-0.01,0.88,
0.478,1.79,0.21,-0.17,-0.30,0.00,0.86,
0.478,1.79,0.21,-0.17,-0.28,0.02,0.84,
0.478,1.79,0.21,-0.17,-0.26,0.04,0.81,
0.478,1.79,0.21,-0.17,-0.26,0.05,0.80,
0.479,1.79,0.21,-0.17,-0.25,0.06,0.78,
0.479,1.72,0.22,-0.31,-0.25,0.06,0.78,
0.479,1.72,0.22,-0.31,-0.24,0.07,0.76,
0.479,1.72,0.22,-0.31,-0.22,0.07,0.74,
0.487,1.72,0.22,-0.31,-0.21,0.07,0.72,
0.487,1.72,0.22,-0.31,-0.20,0.08,0.71,
0.487,1.72,0.22,-0.31,-0.19,0.08,0.69,
0.487,1.59,0.30,-0.53,-0.19,0.08,0.69,
0.488,1.59,0.30,-0.53,-0.18,0.08,0.68,
0.488,1.59,0.30,-0.53,-0.18,0.07,0.66,
0.506,1.59,0.30,-0.53,-0.16,0.07,0.64,
0.507,1.59,0.30,-0.53,-0.16,0.07,0.64,
0.507,1.59,0.30,-0.53,-0.16,0.07,0.63,
0.507,1.25,0.34,-0.82,-0.16,0.07,0.63,
0.507,1.25,0.34,-0.82,-0.16,0.07,0.62,
0.507,1.25,0.34,-0.82,-0.16,0.06,0.61,
0.508,1.25,0.34,-0.82,-0.16,0.06,0.61,
0.508,1.25,0.34,-0.82,-0.15,0.06,0.61,
0.508,1.25,0.34,-0.82,-0.16,0.06,0.61,
0.508,0.99,0.38,-1.01,-0.16,0.06,0.61,
0.508,0.99,0.38,-1.01,-0.15,0.07,0.61,
0.528,0.99,0.38,-1.01,-0.15,0.06,0.61,
0.528,0.99,0.38,-1.01,-0.14,0.06,0.62,
0.528,0.99,0.38,-1.01,-0.14,0.06,0.62,
0.529,0.99,0.38,-1.01,-0.13,0.05,0.62,
0.529,0.84,0.45,-0.86,-0.13,0.05,0.62,
0.529,0.84,0.45,-0.86,-0.13,0.04,0.62,
0.529,0.84,0.45,-0.86,-0.12,0.03,0.62,
0.529,0.84,0.45,-0.86,-0.11,0.02,0.61,
0.53,0.84,0.45,-0.86,-0.10,0.01,0.61,
0.53,0.84,0.45,-0.86,-0.09,-0.00,0.61,
0.53,0.75,0.54,-0.69,-0.09,-0.00,0.61,
0.53,0.75,0.54,-0.69,-0.08,-0.02,0.60,
0.53,0.75,0.54,-0.69,-0.07,-0.03,0.60,
0.531,0.75,0.54,-0.69,-0.04,-0.04,0.59,
0.531,0.75,0.54,-0.69,-0.04,-0.05,0.59,
0.536,0.75,0.54,-0.69,-0.03,-0.06,0.58,
0.536,0.62,0.55,-0.59,-0.03,-0.06,0.58,
0.536,0.62,0.55,-0.59,-0.02,-0.07,0.58,
0.537,0.62,0.55,-0.59,-0.01,-0.08,0.57,
0.543,0.62,0.55,-0.59,0.01,-0.08,0.57,
0.544,0.62,0.55,-0.59,0.01,-0.09,0.57,
0.544,0.62,0.55,-0.59,0.02,-0.09,0.57,
0.546,0.43,0.52,-0.59,0.02,-0.09,0.57,
0.546,0.43,0.52,-0.59,0.02,-0.10,0.57,
0.547,0.43,0.52,-0.59,0.03,-0.10,0.58,
0.551,0.43,0.52,-0.59,0.04,-0.09,0.58,
0.552,0.43,0.52,-0.59,0.04,-0.09,0.58,
0.553,0.43,0.52,-0.59,0.04,-0.08,0.59,
0.555,0.24,0.56,-0.66,0.04,-0.08,0.59,
0.556,0.24,0.56,-0.66,0.05,-0.08,0.60,
0.557,0.24,0.56,-0.66,0.05,-0.07,0.60,
0.56,0.24,0.56,-0.66,0.06,-0.07,0.61,
0.56,0.24,0.56,-0.66,0.06,-0.06,0.61,
0.569,0.24,0.56,-0.66,0.06,-0.06,0.62,
0.57,0.20,0.63,-0.71,0.06,-0.06,0.62,
0.57,0.20,0.63,-0.71,0.06,-0.06,0.62,
0.571,0.20,0.63,-0.71,0.07,-0.06,0.62,
0.571,0.20,0.63,-0.71,0.07,-0.06,0.63,
0.572,0.20,0.63,-0.71,0.07,-0.06,0.63,
0.574,0.20,0.63,-0.71,0.07,-0.07,0.63,
0.577,0.17,0.71,-0.76,0.07,-0.07,0.63,
0.577,0.17,0.71,-0.76,0.07,-0.07,0.63,
0.577,0.17,0.71,-0.76,0.07,-0.08,0.63,
0.58,0.17,0.71,-0.76,0.07,-0.08,0.63,
0.581,0.17,0.71,-0.76,0.07,-0.08,0.63,
0.584,0.17,0.71,-0.76,0.07,-0.09,0.62,
0.585,0.19,0.85,-0.84,0.07,-0.09,0.62,
0.585,0.19,0.85,-0.84,0.07,-0.09,0.62,
0.587,0.19,0.85,-0.84,0.07,-0.10,0.62,
0.594,0.19,0.85,-0.84,0.06,-0.11,0.62,
0.594,0.19,0.85,-0.84,0.06,-0.12,0.62,
0.594,0.19,0.85,-0.84,0.06,-0.13,0.61,
0.596,0.23,0.89,-1.01,0.06,-0.13,0.61,
0.596,0.23,0.89,-1.01,0.05,-0.15,0.61,
0.597,0.23,0.89,-1.01,0.04,-0.16,0.61,
0.601,0.23,0.89,-1.01,0.02,-0.18,0.60,
0.601,0.23,0.89,-1.01,0.02,-0.19,0.60,
0.603,0.23,0.89,-1.01,0.00,-0.20,0.60,
0.617,0.26,0.99,-1.21,0.00,-0.20,0.60,
0.618,0.26,0.99,-1.21,-0.01,-0.21,0.60,
0.618,0.26,0.99,-1.21,-0.02,-0.22,0.60,
0.619,0.26,0.99,-1.21,-0.04,-0.24,0.60,
0.619,0.26,0.99,-1.21,-0.05,-0.24,0.60,
0.619,0.26,0.99,-1.21,-0.06,-0.25,0.60,
0.619,0.31,1.06,-1.20,-0.06,-0.25,0.60,
0.619,0.31,1.06,-1.20,-0.07,-0.25,0.60,
0.619,0.31,1.06,-1.20,-0.09,-0.25,0.59,
0.621,0.31,1.06,-1.20,-0.12,-0.25,0.59,
0.621,0.31,1.06,-1.20,-0.12,-0.25,0.59,
0.625,0.31,1.06,-1.20,-0.14,-0.24,0.59,
0.626,0.33,1.11,-1.07,-0.14,-0.24,0.59,
0.626,0.33,1.11,-1.07,-0.16,-0.23,0.59,
0.627,0.33,1.11,-1.07,-0.17,-0.22,0.59,
0.63,0.33,1.11,-1.07,-0.19,-0.19,0.59,
0.631,0.33,1.11,-1.07,-0.20,-0.18,0.60,
0.633,0.33,1.11,-1.07,-0.21,-0.15,0.60,
0.635,0.33,1.04,-0.56,-0.21,-0.15,0.60,
0.636,0.33,1.04,-0.56,-0.21,-0.12,0.61,
0.637,0.33,1.04,-0.56,-0.22,-0.08,0.61,
0.64,0.33,1.04,-0.56,-0.23,-0.03,0.62,
0.641,0.33,1.04,-0.56,-0.22,-0.02,0.62,
0.643,0.33,1.04,-0.56,-0.22,0.02,0.62,
0.646,0.33,1.04,-0.56,-0.22,0.04,0.62,
0.646,0.25,0.90,0.04,-0.22,0.04,0.62,
0.646,0.25,0.90,0.04,-0.21,0.07,0.62,
0.65,0.25,0.90,0.04,-0.20,0.10,0.62,
0.65,0.25,0.90,0.04,-0.19,0.11,0.62,
0.653,0.25,0.90,0.04,-0.18,0.13,0.61,
0.656,-0.13,0.80,0.44,-0.18,0.13,0.61,
0.656,-0.13,0.80,0.44,-0.17,0.14,0.61,
0.656,-0.13,0.80,0.44,-0.17,0.15,0.61,
0.66,-0.13,0.80,0.44,-0.16,0.14,0.61,
0.66,-0.13,0.80,0.44,-0.16,0.14,0.61,
0.665,-0.13,0.80,0.44,-0.17,0.13,0.61,
0.668,-0.36,0.96,0.40,-0.17,0.13,0.61,
0.668,-0.36,0.96,0.40,-0.17,0.11,0.61,
0.668,-0.36,0.96,0.40,-0.18,0.09,0.61,
0.669,-0.36,0.96,0.40,-0.21,0.06,0.61,
0.67,-0.36,0.96,0.40,-0.21,0.05,0.61,
0.673,-0.36,0.96,0.40,-0.23,0.02,0.61,
0.684,-0.44,1.12,0.13,-0.23,0.02,0.61,
0.684,-0.44,1.12,0.13,-0.25,-0.01,0.61,
0.684,-0.44,1.12,0.13,-0.27,-0.04,0.62,
0.684,-0.44,1.12,0.13,-0.31,-0.08,0.62,
0.684,-0.44,1.12,0.13,-0.33,-0.09,0.62,
0.684,-0.44,1.12,0.13,-0.36,-0.12,0.62,
0.685,-0.20,1.27,0.05,-0.36,-0.12,0.62,
0.685,-0.20,1.27,0.05,-0.39,-0.15,0.61,
0.686,-0.20,1.27,0.05,-0.42,-0.17,0.61,
0.69,-0.20,1.27,0.05,-0.48,-0.21,0.60,
0.691,-0.20,1.27,0.05,-0.49,-0.22,0.59,
0.694,-0.20,1.27,0.05,-0.53,-0.24,0.58,
0.695,0.32,1.21,0.14,-0.53,-0.24,0.58,
0.695,0.32,1.21,0.14,-0.57,-0.25,0.57,
0.697,0.32,1.21,0.14,-0.60,-0.27,0.56,
0.7,0.32,1.21,0.14,-0.65,-0.28,0.53,
0.7,0.32,1.21,0.14,-0.66,-0.28,0.52,
0.703,0.32,1.21,0.14,-0.70,-0.29,0.51,
0.707,0.81,1.16,0.46,-0.70,-0.29,0.51,
0.708,0.81,1.16,0.46,-0.73,-0.29,0.49,
0.708,0.81,1.16,0.46,-0.76,-0.29,0.47,
0.71,0.81,1.16,0.46,-0.80,-0.28,0.45,
0.715,0.81,1.16,0.46,-0.81,-0.28,0.44,
0.715,0.81,1.16,0.46,-0.84,-0.27,0.42,
0.715,1.06,1.02,0.85,-0.84,-0.27,0.42,
0.716,1.06,1.02,0.85,-0.86,-0.25,0.40,
0.717,1.06,1.02,0.85,-0.89,-0.23,0.39,
0.719,1.06,1.02,0.85,-0.92,-0.19,0.36,
0.72,1.06,1.02,0.85,-0.93,-0.18,0.36,
0.722,1.06,1.02,0.85,-0.95,-0.15,0.34,
0.725,1.22,0.82,1.50,-0.95,-0.15,0.34,
0.725,1.22,0.82,1.50,-0.96,-0.11,0.32,
0.726,1.22,0.82,1.50,-0.97,-0.06,0.30,
0.729,1.22,0.82,1.50,-0.97,0.02,0.27,
0.731,1.22,0.82,1.50,-0.98,0.05,0.27,
0.733,1.22,0.82,1.50,-0.98,0.11,0.25,
0.735,1.14,0.69,2.15,-0.98,0.11,0.25,
0.735,1.14,0.69,2.15,-0.98,0.16,0.22,
0.736,1.14,0.69,2.15,-0.97,0.22,0.21,
0.74,1.14,0.69,2.15,-0.96,0.31,0.17,
0.741,1.14,0.69,2.15,-0.96,0.34,0.16,
0.743,1.14,0.69,2.15,-0.95,0.45,0.12,
0.745,1.07,0.45,2.59,-0.95,0.45,0.12,
0.745,1.07,0.45,2.59,-0.95,0.49,0.11,
0.747,1.07,0.45,2.59,-0.94,0.56,0.09,
0.75,1.07,0.45,2.59,-0.92,0.65,0.06,
0.75,1.07,0.45,2.59,-0.92,0.68,0.04,
0.753,1.07,0.45,2.59,-0.92,0.73,0.03,
0.755,0.82,0.25,2.60,-0.92,0.73,0.03,
0.755,0.82,0.25,2.60,-0.91,0.77,0.01,
0.757,0.82,0.25,2.60,-0.90,0.82,-0.01,
0.759,0.82,0.25,2.60,-0.89,0.89,-0.03,
0.76,0.82,0.25,2.60,-0.89,0.91,-0.04,
0.763,0.82,0.25,2.60,-0.89,0.93,-0.05,
0.765,0.40,0.02,2.50,-0.89,0.93,-0.05,
0.765,0.40,0.02,2.50,-0.88,0.96,-0.06,
0.766,0.40,0.02,2.50,-0.88,0.98,-0.06,
0.769,0.40,0.02,2.50,-0.87,1.00,-0.06,
0.77,0.40,0.02,2.50,-0.86,1.01,-0.06,
0.773,0.40,0.02,2.50,-0.85,1.02,-0.06,
0.775,-0.21,-0.12,2.44,-0.85,1.02,-0.06,
0.775,-0.21,-0.12,2.44,-0.85,1.03,-0.05,
0.776,-0.21,-0.12,2.44,-0.84,1.04,-0.04,
0.78,-0.21,-0.12,2.44,-0.82,1.06,-0.03,
0.781,-0.21,-0.12,2.44,-0.81,1.06,-0.02,
0.784,-0.21,-0.12,2.44,-0.80,1.06,-0.01,
0.785,-0.70,-0.27,2.40,-0.80,1.06,-0.01,
0.785,-0.70,-0.27,2.40,-0.78,1.07,0.00,
0.786,-0.70,-0.27,2.40,-0.77,1.08,0.02,
0.789,-0.70,-0.27,2.40,-0.74,1.09,0.04,
0.79,-0.70,-0.27,2.40,-0.73,1.09,0.05,
0.793,-0.70,-0.27,2.40,-0.70,1.10,0.06,
0.796,-1.14,-0.37,2.38,-0.70,1.10,0.06,
0.796,-1.14,-0.37,2.38,-0.68,1.11,0.08,
0.796,-1.14,-0.37,2.38,-0.65,1.12,0.10,
0.8,-1.14,-0.37,2.38,-0.60,1.14,0.13,
0.802,-1.14,-0.37,2.38,-0.59,1.14,0.14,
0.803,-1.14,-0.37,2.38,-0.55,1.15,0.16,
0.805,-1.51,-0.48,2.32,-0.55,1.15,0.16,
0.805,-1.51,-0.48,2.32,-0.51,1.16,0.18,
0.806,-1.51,-0.48,2.32,-0.48,1.16,0.20,
0.81,-1.51,-0.48,2.32,-0.42,1.17,0.24,
0.811,-1.51,-0.48,2.32,-0.40,1.17,0.25,
0.813,-1.51,-0.48,2.32,-0.36,1.16,0.27,
0.815,-1.78,-0.55,2.03,-0.36,1.16,0.27,
0.816,-1.78,-0.55,2.03,-0.32,1.16,0.30,
0.817,-1.78,-0.55,2.03,-0.28,1.15,0.32,
0.82,-1.78,-0.55,2.03,-0.23,1.13,0.36,
0.821,-1.78,-0.55,2.03,-0.21,1.12,0.38,
0.823,-1.78,-0.55,2.03,-0.18,1.11,0.40,
0.826,-1.96,-0.60,1.44,-0.18,1.11,0.40,
0.826,-1.96,-0.60,1.44,-0.15,1.09,0.43,
0.826,-1.96,-0.60,1.44,-0.12,1.07,0.46,
0.829,-1.96,-0.60,1.44,-0.09,1.03,0.50,
0.83,-1.96,-0.60,1.44,-0.08,1.01,0.51,
0.832,-1.96,-0.60,1.44,-0.06,0.99,0.54,
0.835,-1.99,-0.58,0.76,-0.06,0.99,0.54,
0.835,-1.99,-0.58,0.76,-0.04,0.96,0.56,
0.836,-1.99,-0.58,0.76,-0.02,0.92,0.59,
0.839,-1.99,-0.58,0.76,-0.00,0.86,0.62,
0.872,-1.99,-0.58,0.76,0.00,0.84,0.63,
0.872,-1.99,-0.58,0.76,0.01,0.81,0.65,
0.872,-1.93,-0.59,0.09,0.01,0.81,0.65,
0.872,-1.93,-0.59,0.09,0.01,0.76,0.67,
0.873,-1.93,-0.59,0.09,0.01,0.72,0.69,
0.873,-1.93,-0.59,0.09,0.01,0.65,0.72,
0.873,-1.93,-0.59,0.09,0.01,0.63,0.72,
0.873,-1.93,-0.59,0.09,0.00,0.58,0.73,
0.874,-1.62,-0.56,-0.33,0.00,0.58,0.73,
0.874,-1.62,-0.56,-0.33,-0.00,0.53,0.75,
0.874,-1.62,-0.56,-0.33,-0.01,0.49,0.76,
0.874,-1.62,-0.56,-0.33,-0.03,0.43,0.77,
0.875,-1.62,-0.56,-0.33,-0.03,0.40,0.77,
0.875,-1.62,-0.56,-0.33,-0.04,0.36,0.78,
0.875,-1.21,-0.57,-0.34,-0.04,0.36,0.78,
0.875,-1.21,-0.57,-0.34,-0.05,0.33,0.78,
0.876,-1.21,-0.57,-0.34,-0.06,0.29,0.78,
0.876,-1.21,-0.57,-0.34,-0.07,0.24,0.79,
0.876,-1.21,-0.57,-0.34,-0.08,0.22,0.79,
0.876,-1.21,-0.57,-0.34,-0.09,0.19,0.79,
0.877,-0.90,-0.58,-0.06,-0.09,0.19,0.79,
0.877,-0.90,-0.58,-0.06,-0.10,0.16,0.79,
0.877,-0.90,-0.58,-0.06,-0.10,0.13,0.79,
0.888,-0.90,-0.58,-0.06,-0.11,0.08,0.79,
0.888,-0.90,-0.58,-0.06,-0.12,0.07,0.79,
0.889,-0.90,-0.58,-0.06,-0.13,0.04,0.79,
0.889,-0.63,-0.70,0.35,-0.13,0.04,0.79,
0.889,-0.63,-0.70,0.35,-0.13,0.01,0.79,
0.889,-0.63,-0.70,0.35,-0.14,-0.02,0.79,
0.89,-0.63,-0.70,0.35,-0.14,-0.06,0.78,
0.892,-0.63,-0.70,0.35,-0.15,-0.08,0.78,
0.893,-0.63,-0.70,0.35,-0.16,-0.11,0.78,
0.899,-0.43,-0.75,0.72,-0.16,-0.11,0.78,
0.899,-0.43,-0.75,0.72,-0.17,-0.14,0.78,
0.9,-0.43,-0.75,0.72,-0.18,-0.17,0.78,
0.9,-0.43,-0.75,0.72,-0.20,-0.22,0.78,
0.901,-0.43,-0.75,0.72,-0.20,-0.24,0.78,
0.903,-0.43,-0.75,0.72,-0.22,-0.26,0.78,
0.915,-0.38,-0.86,1.11,-0.22,-0.26,0.78,
0.915,-0.38,-0.86,1.11,-0.23,-0.29,0.78,
0.915,-0.38,-0.86,1.11,-0.24,-0.31,0.78,
0.916,-0.38,-0.86,1.11,-0.26,-0.34,0.78,
0.916,-0.38,-0.86,1.11,-0.27,-0.34,0.78,
0.916,-0.38,-0.86,1.11,-0.28,-0.36,0.78,
0.916,-0.29,-0.97,1.55,-0.28,-0.36,0.78,
0.916,-0.29,-0.97,1.55,-0.29,-0.36,0.79,
0.917,-0.29,-0.97,1.55,-0.30,-0.36,0.79,
0.92,-0.29,-0.97,1.55,-0.31,-0.36,0.80,
0.923,-0.29,-0.97,1.55,-0.31,-0.36,0.80,
0.924,-0.29,-0.97,1.55,-0.31,-0.34,0.80,
0.925,-0.12,-1.14,2.07,-0.31,-0.34,0.80,
0.925,-0.12,-1.14,2.07,-0.32,-0.33,0.81,
0.927,-0.12,-1.14,2.07,-0.32,-0.31,0.81,
0.93,-0.12,-1.14,2.07,-0.31,-0.28,0.81,
0.93,-0.12,-1.14,2.07,-0.31,-0.26,0.81,
0.933,-0.12,-1.14,2.07,-0.30,-0.23,0.81,
0.935,0.14,-1.21,2.46,-0.30,-0.23,0.81,
0.935,0.14,-1.21,2.46,-0.30,-0.20,0.81,
0.936,0.14,-1.21,2.46,-0.29,-0.16,0.81,
0.94,0.14,-1.21,2.46,-0.27,-0.11,0.80,
0.941,0.14,-1.21,2.46,-0.26,-0.09,0.80,
0.943,0.14,-1.21,2.46,-0.25,-0.05,0.79,
0.946,0.43,-1.37,2.63,-0.25,-0.05,0.79,
0.946,0.43,-1.37,2.63,-0.23,-0.00,0.79,
0.947,0.43,-1.37,2.63,-0.22,0.04,0.78,
0.95,0.43,-1.37,2.63,-0.19,0.11,0.77,
0.95,0.43,-1.37,2.63,-0.19,0.13,0.77,
0.953,0.43,-1.37,2.63,-0.17,0.17,0.76,
0.955,0.54,-1.39,2.45,-0.17,0.17,0.76,
0.956,0.54,-1.39,2.45,-0.15,0.22,0.75,
0.957,0.54,-1.39,2.45,-0.13,0.26,0.75,
0.961,0.54,-1.39,2.45,-0.11,0.33,0.74,
0.962,0.54,-1.39,2.45,-0.10,0.35,0.74,
0.963,0.54,-1.39,2.45,-0.08,0.39,0.73,
0.965,0.55,-1.38,1.99,-0.08,0.39,0.73,
0.966,0.55,-1.38,1.99,-0.07,0.42,0.73,
0.967,0.55,-1.38,1.99,-0.06,0.46,0.72,
0.97,0.55,-1.38,1.99,-0.05,0.51,0.72,
0.972,0.55,-1.38,1.99,-0.05,0.53,0.72,
0.974,0.55,-1.38,1.99,-0.04,0.56,0.71,
0.975,0.43,-1.29,1.13,-0.04,0.56,0.71,
0.976,0.43,-1.29,1.13,-0.04,0.59,0.71,
0.977,0.43,-1.29,1.13,-0.05,0.61,0.71,
0.98,0.43,-1.29,1.13,-0.05,0.64,0.70,
0.982,0.43,-1.29,1.13,-0.06,0.65,0.70,
0.983,0.43,-1.29,1.13,-0.06,0.66,0.70,
0.985,0.26,-1.22,0.21,-0.06,0.66,0.70,
0.986,0.26,-1.22,0.21,-0.07,0.66,0.70,
0.988,0.26,-1.22,0.21,-0.08,0.67,0.70,
0.991,0.26,-1.22,0.21,-0.10,0.67,0.70,
0.992,0.26,-1.22,0.21,-0.10,0.67,0.70,
0.994,0.26,-1.22,0.21,-0.11,0.67,0.70,
0.996,0.06,-1.16,-0.51,-0.11,0.67,0.70,
0.996,0.06,-1.16,-0.51,-0.12,0.66,0.70,
0.997,0.06,-1.16,-0.51,-0.13,0.65,0.71,
1.0,0.06,-1.16,-0.51,-0.14,0.64,0.71,
1.001,0.06,-1.16,-0.51,-0.14,0.63,0.71,
1.003,0.06,-1.16,-0.51,-0.15,0.62,0.71,
1.009,-0.12,-1.15,-0.97,-0.15,0.62,0.71,
1.01,-0.12,-1.15,-0.97,-0.15,0.61,0.72,
1.036,-0.12,-1.15,-0.97,-0.16,0.60,0.72,
1.036,-0.12,-1.15,-0.97,-0.15,0.57,0.74,
1.037,-0.12,-1.15,-0.97,-0.15,0.56,0.74,
1.037,-0.12,-1.15,-0.97,-0.15,0.54,0.75,
1.037,-0.26,-1.09,-1.20,-0.15,0.54,0.75,
1.037,-0.26,-1.09,-1.20,-0.15,0.52,0.76,
1.038,-0.26,-1.09,-1.20,-0.14,0.50,0.77,
1.038,-0.26,-1.09,-1.20,-0.13,0.48,0.78,
1.038,-0.26,-1.09,-1.20,-0.13,0.46,0.79,
1.039,-0.26,-1.09,-1.20,-0.12,0.44,0.80,
1.039,-0.34,-1.07,-1.30,-0.12,0.44,0.80,
1.039,-0.34,-1.07,-1.30,-0.11,0.42,0.81,
1.04,-0.34,-1.07,-1.30,-0.10,0.39,0.82,
1.04,-0.34,-1.07,-1.30,-0.08,0.36,0.84,
1.04,-0.34,-1.07,-1.30,-0.07,0.35,0.84,
1.04,-0.34,-1.07,-1.30,-0.06,0.33,0.85,
1.041,-0.27,-0.97,-1.41,-0.06,0.33,0.85,
1.041,-0.27,-0.97,-1.41,-0.05,0.30,0.86,
1.041,-0.27,-0.97,-1.41,-0.04,0.28,0.87,
1.042,-0.27,-0.97,-1.41,-0.02,0.24,0.89,
1.042,-0.27,-0.97,-1.41,-0.01,0.23,0.90,
1.047,-0.27,-0.97,-1.41,0.00,0.21,0.90,
1.048,-0.15,-0.93,-1.60,0.00,0.21,0.90,
1.048,-0.15,-0.93,-1.60,0.02,0.19,0.91,
1.048,-0.15,-0.93,-1.60,0.03,0.17,0.92,
1.052,-0.15,-0.93,-1.60,0.04,0.14,0.93,
1.053,-0.15,-0.93,-1.60,0.05,0.13,0.94,
1.053,-0.15,-0.93,-1.60,0.06,0.11,0.95,
1.057,0.10,-0.92,-1.89,0.06,0.11,0.95,
1.058,0.10,-0.92,-1.89,0.07,0.10,0.96,
1.058,0.10,-0.92,-1.89,0.07,0.08,0.96,
1.061,0.10,-0.92,-1.89,0.08,0.06,0.97,
1.061,0.10,-0.92,-1.89,0.08,0.05,0.98,
1.065,0.10,-0.92,-1.89,0.09,0.04,0.98,
1.065,0.45,-0.88,-2.16,0.09,0.04,0.98,
1.066,0.45,-0.88,-2.16,0.09,0.02,0.99,
1.067,0.45,-0.88,-2.16,0.09,0.01,0.99,
1.071,0.45,-0.88,-2.16,0.09,-0.01,1.00,
1.072,0.45,-0.88,-2.16,0.09,-0.01,0.99,
1.073,0.45,-0.88,-2.16,0.09,-0.02,1.00,
1.075,0.82,-0.78,-2.33,0.09,-0.02,1.00,
1.076,0.82,-0.78,-2.33,0.09,-0.03,0.99,
1.079,0.82,-0.78,-2.33,0.08,-0.04,0.99,
1.079,0.82,-0.78,-2.33,0.08,-0.06,0.98,
1.083,0.82,-0.78,-2.33,0.08,-0.06,0.98,
1.084,0.82,-0.78,-2.33,0.07,-0.07,0.97,
1.087,1.12,-0.63,-2.39,0.07,-0.07,0.97,
1.087,1.12,-0.63,-2.39,0.07,-0.08,0.96,
1.087,1.12,-0.63,-2.39,0.06,-0.09,0.95,
1.095,1.12,-0.63,-2.39,0.05,-0.11,0.93,
1.097,1.12,-0.63,-2.39,0.05,-0.12,0.92,
1.097,1.12,-0.63,-2.39,0.04,-0.13,0.90,
1.097,1.31,-0.46,-2.27,0.04,-0.13,0.90,
1.097,1.31,-0.46,-2.27,0.04,-0.14,0.89,
1.098,1.31,-0.46,-2.27,0.03,-0.15,0.88,
1.102,1.31,-0.46,-2.27,0.03,-0.16,0.86,
1.102,1.31,-0.46,-2.27,0.03,-0.16,0.86,
1.103,1.31,-0.46,-2.27,0.02,-0.17,0.85,
1.11,1.33,-0.35,-2.08,0.02,-0.17,0.85,
1.111,1.33,-0.35,-2.08,0.02,-0.17,0.84,
1.111,1.33,-0.35,-2.08,0.02,-0.18,0.83,
1.111,1.33,-0.35,-2.08,0.01,-0.18,0.82,
1.111,1.33,-0.35,-2.08,0.01,-0.18,0.82,
1.115,1.33,-0.35,-2.08,0.01,-0.19,0.81,
1.116,1.24,-0.21,-1.82,0.01,-0.19,0.81,
1.116,1.24,-0.21,-1.82,0.01,-0.19,0.80,
1.116,1.24,-0.21,-1.82,0.00,-0.20,0.80,
1.121,1.24,-0.21,-1.82,0.00,-0.21,0.79,
1.121,1.24,-0.21,-1.82,0.00,-0.21,0.79,
1.126,1.24,-0.21,-1.82,0.00,-0.21,0.78,
1.127,1.29,-0.22,-1.57,0.00,-0.21,0.78,
1.127,1.29,-0.22,-1.57,0.00,-0.21,0.78,
1.127,1.29,-0.22,-1.57,0.00,-0.22,0.77,
1.131,1.29,-0.22,-1.57,0.01,-0.22,0.76,
1.131,1.29,-0.22,-1.57,0.01,-0.22,0.76,
1.135,1.29,-0.22,-1.57,0.01,-0.22,0.75,
1.135,1.35,-0.25,-1.33,0.01,-0.22,0.75,
1.135,1.35,-0.25,-1.33,0.01,-0.22,0.74,
1.144,1.35,-0.25,-1.33,0.02,-0.22,0.73,
1.145,1.35,-0.25,-1.33,0.02,-0.22,0.73,
1.145,1.35,-0.25,-1.33,0.02,-0.22,0.72,
1.152,1.35,-0.25,-1.33,0.03,-0.21,0.70,
1.152,1.35,-0.25,-1.33,0.03,-0.21,0.70,
1.152,1.35,-0.25,-1.33,0.03,-0.21,0.70,
1.152,1.33,-0.24,-1.08,0.03,-0.21,0.70,
1.153,1.33,-0.24,-1.08,0.04,-0.20,0.70,
1.153,1.33,-0.24,-1.08,0.05,-0.20,0.70,
1.18,1.33,-0.24,-1.08,0.05,-0.20,0.70,
1.18,1.19,-0.19,-1.00,0.05,-0.20,0.70,
1.181,1.19,-0.19,-1.00,0.05,-0.20,0.69,
1.181,1.19,-0.19,-1.00,0.05,-0.19,0.69,
1.181,1.19,-0.19,-1.00,0.05,-0.19,0.69,
1.181,1.19,-0.19,-1.00,0.06,-0.19,0.69,
1.181,1.19,-0.19,-1.00,0.06,-0.19,0.68,
1.181,1.19,-0.15,-0.78,0.06,-0.19,0.68,
1.182,1.19,-0.15,-0.78,0.07,-0.18,0.68,
1.182,1.19,-0.15,-0.78,0.07,-0.18,0.68,
1.182,1.19,-0.15,-0.78,0.08,-0.16,0.67,
1.182,1.19,-0.15,-0.78,0.08,-0.16,0.67,
1.182,1.19,-0.15,-0.78,0.09,-0.15,0.66,
1.22,1.23,-0.10,-0.58,0.09,-0.15,0.66,
1.22,1.23,-0.10,-0.58,0.10,-0.14,0.65,
1.221,1.23,-0.10,-0.58,0.11,-0.13,0.65,
1.222,1.23,-0.10,-0.58,0.12,-0.11,0.64,
1.222,1.23,-0.10,-0.58,0.12,-0.10,0.64,
1.223,1.23,-0.10,-0.58,0.13,-0.09,0.63,
1.224,1.25,-0.03,-0.48,0.13,-0.09,0.63,
1.224,1.25,-0.03,-0.48,0.14,-0.08,0.63,
1.224,1.25,-0.03,-0.48,0.15,-0.06,0.62,
1.224,1.25,-0.03,-0.48,0.15,-0.05,0.62,
1.225,1.25,-0.03,-0.48,0.16,-0.04,0.61,
1.225,1.25,-0.03,-0.48,0.17,-0.03,0.61,
1.225,1.14,0.04,-0.52,0.17,-0.03,0.61,
1.225,1.14,0.04,-0.52,0.17,-0.02,0.60,
1.226,1.14,0.04,-0.52,0.17,-0.01,0.60,
1.226,1.14,0.04,-0.52,0.18,0.00,0.58,
1.226,1.14,0.04,-0.52,0.18,0.00,0.58,
1.226,1.14,0.04,-0.52,0.18,0.01,0.57,
1.226,1.13,0.02,-0.68,0.18,0.01,0.57,
1.227,1.13,0.02,-0.68,0.18,0.01,0.56,
1.227,1.13,0.02,-0.68,0.18,0.01,0.55,
1.227,1.13,0.02,-0.68,0.18,0.01,0.55,
1.227,1.13,0.02,-0.68,0.17,0.01,0.54,
1.228,1.13,0.02,-0.68,0.17,0.00,0.54,
1.228,0.85,0.09,-0.82,0.17,0.00,0.54,
1.228,0.85,0.09,-0.82,0.17,-0.01,0.54,
1.228,0.85,0.09,-0.82,0.16,-0.01,0.54,
1.228,0.85,0.09,-0.82,0.15,-0.03,0.54,
1.229,0.85,0.09,-0.82,0.15,-0.03,0.54,
1.229,0.85,0.09,-0.82,0.15,-0.05,0.54,
1.229,0.58,0.23,-0.81,0.15,-0.05,0.54,
1.229,0.58,0.23,-0.81,0.14,-0.06,0.55,
1.229,0.58,0.23,-0.81,0.14,-0.07,0.55,
1.229,0.58,0.23,-0.81,0.13,-0.09,0.55,
1.237,0.58,0.23,-0.81,0.12,-0.10,0.55,
1.237,0.58,0.23,-0.81,0.12,-0.12,0.55,
1.237,0.41,0.20,-0.61,0.12,-0.12,0.55,
1.238,0.41,0.20,-0.61,0.11,-0.13,0.55,
1.238,0.41,0.20,-0.61,0.11,-0.14,0.55,
1.24,0.41,0.20,-0.61,0.11,-0.15,0.55,
1.241,0.41,0.20,-0.61,0.10,-0.16,0.55,
1.245,0.41,0.20,-0.61,0.10,-0.16,0.56,
1.245,0.15,0.33,-0.17,0.10,-0.16,0.56,
1.245,0.15,0.33,-0.17,0.10,-0.17,0.56,
1.247,0.15,0.33,-0.17,0.11,-0.17,0.57,
1.25,0.15,0.33,-0.17,0.11,-0.17,0.58,
1.251,0.15,0.33,-0.17,0.12,-0.18,0.58,
1.255,0.15,0.33,-0.17,0.12,-0.18,0.59,
1.255,-0.11,0.47,0.44,0.12,-0.18,0.59,
1.256,-0.11,0.47,0.44,0.14,-0.18,0.60,
1.259,-0.11,0.47,0.44,0.14,-0.18,0.61,
1.26,-0.11,0.47,0.44,0.16,-0.19,0.62,
1.264,-0.11,0.47,0.44,0.17,-0.20,0.63,
1.264,-0.11,0.47,0.44,0.18,-0.20,0.64,
1.265,-0.14,0.43,0.92,0.18,-0.20,0.64,
1.265,-0.14,0.43,0.92,0.19,-0.21,0.65,
1.267,-0.14,0.43,0.92,0.20,-0.23,0.65,
1.273,-0.14,0.43,0.92,0.21,-0.25,0.67,
1.275,-0.14,0.43,0.92,0.21,-0.25,0.67,
1.276,-0.14,0.43,0.92,0.22,-0.26,0.68,
1.278,-0.02,0.32,1.32,0.22,-0.26,0.68,
1.28,-0.02,0.32,1.32,0.23,-0.27,0.69,
1.281,-0.02,0.32,1.32,0.24,-0.28,0.70,
1.281,-0.02,0.32,1.32,0.25,-0.29,0.71,
1.281,-0.02,0.32,1.32,0.25,-0.29,0.71,
1.302,-0.02,0.32,1.32,0.25,-0.29,0.72,
1.302,0.23,0.34,1.61,0.25,-0.29,0.72,
1.302,0.23,0.34,1.61,0.25,-0.30,0.72,
1.303,0.23,0.34,1.61,0.26,-0.30,0.73,
1.303,0.23,0.34,1.61,0.25,-0.30,0.73,
1.303,0.23,0.34,1.61,0.25,-0.30,0.72,
1.303,0.23,0.34,1.61,0.25,-0.30,0.72,
1.303,0.57,0.42,1.75,0.25,-0.30,0.72,
1.303,0.57,0.42,1.75,0.24,-0.29,0.71,
1.304,0.57,0.42,1.75,0.23,-0.28,0.70,
1.304,0.57,0.42,1.75,0.21,-0.27,0.69,
1.304,0.57,0.42,1.75,0.21,-0.26,0.68,
1.304,0.57,0.42,1.75,0.19,-0.25,0.66,
1.306,0.77,0.42,1.89,0.19,-0.25,0.66,
1.306,0.77,0.42,1.89,0.17,-0.24,0.64,
1.307,0.77,0.42,1.89,0.15,-0.22,0.62,
1.31,0.77,0.42,1.89,0.12,-0.20,0.60,
1.31,0.77,0.42,1.89,0.11,-0.19,0.59,
1.313,0.77,0.42,1.89,0.09,-0.17,0.57,
1.315,0.66,0.27,2.11,0.09,-0.17,0.57,
1.316,0.66,0.27,2.11,0.06,-0.16,0.55,
1.317,0.66,0.27,2.11,0.04,-0.14,0.53,
1.321,0.66,0.27,2.11,0.00,-0.12,0.51,
1.322,0.66,0.27,2.11,-0.01,-0.12,0.50,
1.324,0.66,0.27,2.11,-0.03,-0.11,0.49,
1.326,0.30,0.04,2.66,-0.03,-0.11,0.49,
1.326,0.30,0.04,2.66,-0.04,-0.10,0.49,
1.327,0.30,0.04,2.66,-0.06,-0.09,0.49,
1.33,0.30,0.04,2.66,-0.08,-0.08,0.49,
1.331,0.30,0.04,2.66,-0.08,-0.07,0.50,
1.336,0.30,0.04,2.66,-0.09,-0.06,0.51,
1.338,-0.05,0.09,3.65,-0.09,-0.06,0.51,
1.338,-0.05,0.09,3.65,-0.09,-0.04,0.52,
1.339,-0.05,0.09,3.65,-0.09,-0.02,0.55,
1.34,-0.05,0.09,3.65,-0.08,0.03,0.58,
1.366,-0.05,0.09,3.65,-0.07,0.05,0.59,
1.366,-0.05,0.09,3.65,-0.06,0.09,0.61,
1.366,-0.07,0.22,4.70,-0.06,0.09,0.61,
1.367,-0.07,0.22,4.70,-0.05,0.13,0.64,
1.367,-0.07,0.22,4.70,-0.03,0.17,0.66,
1.367,-0.07,0.22,4.70,-0.00,0.22,0.69,
1.367,-0.07,0.22,4.70,0.01,0.24,0.70,
1.368,-0.07,0.22,4.70,0.03,0.27,0.71,
1.368,0.22,0.21,5.32,0.03,0.27,0.71,
1.368,0.22,0.21,5.32,0.05,0.31,0.72,
1.369,0.22,0.21,5.32,0.08,0.34,0.73,
1.369,0.22,0.21,5.32,0.13,0.38,0.73,
1.369,0.22,0.21,5.32,0.14,0.40,0.73,
1.369,0.22,0.21,5.32,0.17,0.41,0.73,
1.37,0.41,0.27,5.56,0.17,0.41,0.73,
1.37,0.41,0.27,5.56,0.21,0.42,0.73,
1.37,0.41,0.27,5.56,0.24,0.43,0.72,
1.371,0.41,0.27,5.56,0.28,0.41,0.70,
1.371,0.41,0.27,5.56,0.30,0.41,0.70,
1.375,0.41,0.27,5.56,0.33,0.38,0.68,
1.375,0.63,0.51,5.40,0.33,0.38,0.68,
1.376,0.63,0.51,5.40,0.35,0.35,0.66,
1.38,0.63,0.51,5.40,0.37,0.32,0.64,
1.38,0.63,0.51,5.40,0.41,0.26,0.61,
1.381,0.63,0.51,5.40,0.42,0.24,0.59,
1.385,0.63,0.51,5.40,0.44,0.19,0.56,
1.386,1.08,0.52,5.00,0.44,0.19,0.56,
1.386,1.08,0.52,5.00,0.46,0.15,0.53,
1.392,1.08,0.52,5.00,0.48,0.10,0.50,
1.392,1.08,0.52,5.00,0.51,0.04,0.46,
1.393,1.08,0.52,5.00,0.52,0.02,0.44,
1.393,1.08,0.52,5.00,0.55,-0.02,0.41,
1.397,1.18,0.50,4.61,0.55,-0.02,0.41,
1.397,1.18,0.50,4.61,0.57,-0.05,0.38,
1.398,1.18,0.50,4.61,0.59,-0.08,0.35,
1.401,1.18,0.50,4.61,0.62,-0.12,0.31,
1.401,1.18,0.50,4.61,0.63,-0.13,0.30,
1.403,1.18,0.50,4.61,0.65,-0.15,0.27,
1.405,0.92,0.46,4.30,0.65,-0.15,0.27,
1.406,0.92,0.46,4.30,0.67,-0.17,0.25,
1.407,0.92,0.46,4.30,0.69,-0.18,0.23,
1.41,0.92,0.46,4.30,0.72,-0.21,0.20,
1.411,0.92,0.46,4.30,0.73,-0.21,0.20,
1.415,0.92,0.46,4.30,0.75,-0.23,0.18,
1.416,0.61,0.22,3.93,0.75,-0.23,0.18,
1.416,0.61,0.22,3.93,0.77,-0.24,0.17,
1.419,0.61,0.22,3.93,0.78,-0.25,0.16,
1.42,0.61,0.22,3.93,0.80,-0.26,0.15,
1.428,0.61,0.22,3.93,0.81,-0.26,0.15,
1.429,0.61,0.22,3.93,0.83,-0.26,0.15,
1.429,0.39,-0.10,3.49,0.83,-0.26,0.15,
1.429,0.39,-0.10,3.49,0.84,-0.27,0.15,
1.429,0.39,-0.10,3.49,0.85,-0.27,0.15,
1.437,0.39,-0.10,3.49,0.86,-0.27,0.15,
1.437,0.39,-0.10,3.49,0.87,-0.27,0.15,
1.437,0.39,-0.10,3.49,0.88,-0.27,0.16,
1.437,0.33,-0.38,2.92,0.88,-0.27,0.16,
1.453,0.33,-0.38,2.92,0.89,-0.27,0.16,
1.454,0.33,-0.38,2.92,0.89,-0.27,0.17,
1.454,0.33,-0.38,2.92,0.90,-0.27,0.17,
1.454,0.33,-0.38,2.92,0.90,-0.27,0.18,
1.455,0.33,-0.38,2.92,0.89,-0.28,0.18,
1.455,0.61,-0.60,2.24,0.89,-0.28,0.18,
1.455,0.61,-0.60,2.24,0.89,-0.28,0.18,
1.455,0.61,-0.60,2.24,0.89,-0.29,0.18,
1.456,0.61,-0.60,2.24,0.88,-0.31,0.18,
1.456,0.61,-0.60,2.24,0.87,-0.31,0.18,
1.456,0.61,-0.60,2.24,0.86,-0.33,0.17,
1.456,1.02,-0.73,1.68,0.86,-0.33,0.17,
1.456,1.02,-0.73,1.68,0.85,-0.35,0.17,
1.456,1.02,-0.73,1.68,0.84,-0.38,0.17,
1.46,1.02,-0.73,1.68,0.82,-0.41,0.16,
1.461,1.02,-0.73,1.68,0.81,-0.43,0.15,
1.463,1.02,-0.73,1.68,0.80,-0.46,0.14,
1.465,1.38,-0.76,1.39,0.80,-0.46,0.14,
1.466,1.38,-0.76,1.39,0.79,-0.49,0.14,
1.467,1.38,-0.76,1.39,0.78,-0.52,0.13,
1.47,1.38,-0.76,1.39,0.76,-0.57,0.12,
1.472,1.38,-0.76,1.39,0.75,-0.58,0.11,
1.474,1.38,-0.76,1.39,0.73,-0.61,0.10,
1.479,1.69,-0.88,1.14,0.73,-0.61,0.10,
1.479,1.69,-0.88,1.14,0.72,-0.63,0.09,
1.483,1.69,-0.88,1.14,0.70,-0.65,0.07,
1.484,1.69,-0.88,1.14,0.68,-0.67,0.06,
1.484,1.69,-0.88,1.14,0.67,-0.68,0.05,
1.485,1.69,-0.88,1.14,0.65,-0.68,0.04,
1.491,1.92,-1.17,0.84,0.65,-0.68,0.04,
1.493,1.92,-1.17,0.84,0.63,-0.68,0.02,
1.494,1.92,-1.17,0.84,0.62,-0.67,0.01,
1.494,1.92,-1.17,0.84,0.59,-0.66,-0.01,
1.495,1.92,-1.17,0.84,0.58,-0.65,-0.01,
1.501,1.92,-1.17,0.84,0.56,-0.63,-0.03,
1.501,1.91,-1.39,0.41,0.56,-0.63,-0.03,
1.501,1.91,-1.39,0.41,0.54,-0.60,-0.04,
1.502,1.91,-1.39,0.41,0.52,-0.57,-0.06,
1.502,1.91,-1.39,0.41,0.49,-0.53,-0.07,
1.502,1.91,-1.39,0.41,0.48,-0.51,-0.08,
1.505,1.91,-1.39,0.41,0.46,-0.48,-0.10,
1.506,2.03,-1.61,-0.06,0.46,-0.48,-0.10,
1.507,2.03,-1.61,-0.06,0.44,-0.44,-0.11,
1.525,2.03,-1.61,-0.06,0.42,-0.40,-0.13,
1.526,2.03,-1.61,-0.06,0.38,-0.33,-0.15,
1.526,2.03,-1.61,-0.06,0.37,-0.31,-0.16,
1.526,2.03,-1.61,-0.06,0.35,-0.27,-0.18,
1.526,1.99,-1.77,-0.64,0.35,-0.27,-0.18,
1.527,1.99,-1.77,-0.64,0.32,-0.23,-0.20,
1.527,1.99,-1.77,-0.64,0.30,-0.18,-0.22,
1.527,1.99,-1.77,-0.64,0.26,-0.11,-0.25,
1.527,1.99,-1.77,-0.64,0.25,-0.09,-0.26,
1.527,1.99,-1.77,-0.64,0.22,-0.05,-0.28,
1.528,1.87,-1.97,-1.29,0.22,-0.05,-0.28,
1.528,1.87,-1.97,-1.29,0.20,-0.01,-0.30,
1.528,1.87,-1.97,-1.29,0.18,0.04,-0.33,
1.532,1.87,-1.97,-1.29,0.14,0.09,-0.36,
1.532,1.87,-1.97,-1.29,0.13,0.11,-0.37,
1.533,1.87,-1.97,-1.29,0.11,0.14,-0.39,
1.536,1.60,-2.13,-1.88,0.11,0.14,-0.39,
1.536,1.60,-2.13,-1.88,0.09,0.17,-0.41,
1.538,1.60,-2.13,-1.88,0.07,0.20,-0.43,
1.54,1.60,-2.13,-1.88,0.04,0.23,-0.46,
1.542,1.60,-2.13,-1.88,0.03,0.24,-0.47,
1.543,1.60,-2.13,-1.88,0.01,0.26,-0.49,
1.545,1.34,-2.25,-2.39,0.01,0.26,-0.49,
1.545,1.34,-2.25,-2.39,-0.00,0.28,-0.51,
1.547,1.34,-2.25,-2.39,-0.02,0.30,-0.53,
1.55,1.34,-2.25,-2.39,-0.05,0.32,-0.56,
1.554,1.34,-2.25,-2.39,-0.06,0.33,-0.57,
1.554,1.34,-2.25,-2.39,-0.08,0.34,-0.59,
1.557,1.01,-2.18,-2.85,-0.08,0.34,-0.59,
1.557,1.01,-2.18,-2.85,-0.09,0.35,-0.61,
1.557,1.01,-2.18,-2.85,-0.11,0.37,-0.64,
1.56,1.01,-2.18,-2.85,-0.13,0.39,-0.67,
1.561,1.01,-2.18,-2.85,-0.14,0.39,-0.68,
1.563,1.01,-2.18,-2.85,-0.16,0.40,-0.70,
1.565,0.77,-2.13,-3.28,-0.16,0.40,-0.70,
1.565,0.77,-2.13,-3.28,-0.18,0.41,-0.72,
1.566,0.77,-2.13,-3.28,-0.20,0.42,-0.73,
1.576,0.77,-2.13,-3.28,-0.22,0.42,-0.76,
1.576,0.77,-2.13,-3.28,-0.23,0.43,-0.76,
1.576,0.77,-2.13,-3.28,-0.24,0.43,-0.77,
1.577,0.33,-1.97,-3.51,-0.24,0.43,-0.77,
1.577,0.33,-1.97,-3.51,-0.25,0.43,-0.79,
1.577,0.33,-1.97,-3.51,-0.26,0.43,-0.79,
1.581,0.33,-1.97,-3.51,-0.29,0.42,-0.81,
1.581,0.33,-1.97,-3.51,-0.29,0.42,-0.81,
1.583,0.33,-1.97,-3.51,-0.30,0.42,-0.81,
1.585,-0.01,-1.86,-3.49,-0.30,0.42,-0.81,
1.585,-0.01,-1.86,-3.49,-0.30,0.42,-0.81,
1.587,-0.01,-1.86,-3.49,-0.31,0.41,-0.81,
1.59,-0.01,-1.86,-3.49,-0.30,0.41,-0.82,
1.593,-0.01,-1.86,-3.49,-0.30,0.41,-0.82,
1.593,-0.01,-1.86,-3.49,-0.29,0.40,-0.82,
1.595,-0.26,-1.78,-3.23,-0.29,0.40,-0.82,
1.596,-0.26,-1.78,-3.23,-0.29,0.40,-0.82,
1.596,-0.26,-1.78,-3.23,-0.27,0.40,-0.82,
1.599,-0.26,-1.78,-3.23,-0.25,0.38,-0.82,
1.601,-0.26,-1.78,-3.23,-0.24,0.38,-0.82,
1.603,-0.26,-1.78,-3.23,-0.22,0.38,-0.82,
1.605,-0.45,-1.75,-2.81,-0.22,0.38,-0.82,
1.605,-0.45,-1.75,-2.81,-0.19,0.37,-0.82,
1.607,-0.45,-1.75,-2.81,-0.17,0.36,-0.81,
1.609,-0.45,-1.75,-2.81,-0.12,0.34,-0.81,
1.61,-0.45,-1.75,-2.81,-0.11,0.33,-0.80,
1.613,-0.45,-1.75,-2.81,-0.07,0.31,-0.80,
1.615,-0.73,-1.60,-2.44,-0.07,0.31,-0.80,
1.615,-0.73,-1.60,-2.44,-0.04,0.30,-0.79,
1.616,-0.73,-1.60,-2.44,-0.00,0.28,-0.78,
1.62,-0.73,-1.60,-2.44,0.06,0.26,-0.76,
1.621,-0.73,-1.60,-2.44,0.08,0.25,-0.76,
1.623,-0.73,-1.60,-2.44,0.12,0.24,-0.74,
1.625,-0.97,-1.54,-2.27,0.12,0.24,-0.74,
1.625,-0.97,-1.54,-2.27,0.16,0.22,-0.73,
1.626,-0.97,-1.54,-2.27,0.20,0.21,-0.72,
1.63,-0.97,-1.54,-2.27,0.25,0.19,-0.69,
1.631,-0.97,-1.54,-2.27,0.27,0.18,-0.68,
1.633,-0.97,-1.54,-2.27,0.31,0.17,-0.67,
1.635,-1.08,-1.41,-2.40,0.31,0.17,-0.67,
1.635,-1.08,-1.41,-2.40,0.35,0.15,-0.65,
1.637,-1.08,-1.41,-2.40,0.38,0.14,-0.63,
1.64,-1.08,-1.41,-2.40,0.43,0.11,-0.61,
1.641,-1.08,-1.41,-2.40,0.44,0.10,-0.60,
1.643,-1.08,-1.41,-2.40,0.47,0.08,-0.59,
1.645,-1.08,-1.41,-2.40,0.49,0.06,-0.57,
1.646,-1.04,-1.31,-2.76,0.49,0.06,-0.57,
1.647,-1.04,-1.31,-2.76,0.51,0.04,-0.56,
1.65,-1.04,-1.31,-2.76,0.54,0.00,-0.54,
1.651,-1.04,-1.31,-2.76,0.56,-0.02,-0.52,
1.653,-1.04,-1.31,-2.76,0.57,-0.03,-0.52,
1.661,-0.88,-1.10,-3.25,0.57,-0.03,-0.52,
1.662,-0.88,-1.10,-3.25,0.58,-0.06,-0.51,
1.662,-0.88,-1.10,-3.25,0.59,-0.08,-0.50,
1.662,-0.88,-1.10,-3.25,0.61,-0.13,-0.49,
1.662,-0.88,-1.10,-3.25,0.61,-0.16,-0.48,
1.663,-0.88,-1.10,-3.25,0.62,-0.19,-0.48,
1.665,-0.68,-0.82,-3.64,0.62,-0.19,-0.48,
1.666,-0.68,-0.82,-3.64,0.62,-0.20,-0.48,
1.668,-0.68,-0.82,-3.64,0.62,-0.23,-0.47,
1.671,-0.68,-0.82,-3.64,0.62,-0.26,-0.47,
1.672,-0.68,-0.82,-3.64,0.62,-0.28,-0.48,
1.673,-0.68,-0.82,-3.64,0.62,-0.30,-0.48,
1.688,-0.41,-0.55,-3.91,0.62,-0.30,-0.48,
1.688,-0.41,-0.55,-3.91,0.61,-0.33,-0.48,
1.689,-0.41,-0.55,-3.91,0.61,-0.35,-0.49,
1.689,-0.41,-0.55,-3.91,0.59,-0.39,-0.50,
1.689,-0.41,-0.55,-3.91,0.59,-0.40,-0.50,
1.689,-0.41,-0.55,-3.91,0.57,-0.43,-0.51,
1.689,-0.20,-0.34,-4.19,0.57,-0.43,-0.51,
1.689,-0.20,-0.34,-4.19,0.55,-0.46,-0.52,
1.689,-0.20,-0.34,-4.19,0.53,-0.49,-0.53,
1.689,-0.20,-0.34,-4.19,0.49,-0.54,-0.55,
1.691,-0.20,-0.34,-4.19,0.47,-0.57,-0.56,
1.693,-0.20,-0.34,-4.19,0.45,-0.59,-0.57,
1.695,-0.10,-0.32,-4.26,0.45,-0.59,-0.57,
1.696,-0.10,-0.32,-4.26,0.42,-0.62,-0.58,
1.696,-0.10,-0.32,-4.26,0.37,-0.67,-0.60,
1.7,-0.10,-0.32,-4.26,0.35,-0.69,-0.60,
1.703,-0.10,-0.32,-4.26,0.33,-0.71,-0.61,
1.703,-0.10,-0.32,-4.26,0.30,-0.73,-0.61,
1.705,-0.11,-0.16,-3.97,0.30,-0.73,-0.61,
1.705,-0.11,-0.16,-3.97,0.25,-0.77,-0.62,
1.712,-0.11,-0.16,-3.97,0.24,-0.78,-0.63,
1.712,-0.11,-0.16,-3.97,0.19,-0.81,-0.64,
1.712,-0.11,-0.16,-3.97,0.16,-0.83,-0.65,
1.713,-0.11,-0.16,-3.97,0.14,-0.85,-0.66,
1.716,-0.03,-0.05,-3.29,0.14,-0.85,-0.66,
1.716,-0.03,-0.05,-3.29,0.11,-0.86,-0.67,
1.73,-0.03,-0.05,-3.29,0.09,-0.87,-0.68,
1.73,-0.03,-0.05,-3.29,0.07,-0.88,-0.70,
1.73,-0.03,-0.05,-3.29,0.04,-0.88,-0.71,
1.73,-0.03,-0.05,-3.29,0.03,-0.88,-0.72,
1.731,0.07,0.04,-2.45,0.03,-0.88,-0.72,
1.731,0.07,0.04,-2.45,0.01,-0.87,-0.74,
1.731,0.07,0.04,-2.45,0.00,-0.87,-0.74,
1.731,0.07,0.04,-2.45,-0.02,-0.85,-0.76,
1.731,0.07,0.04,-2.45,-0.03,-0.83,-0.77,
1.733,0.07,0.04,-2.45,-0.04,-0.80,-0.78,
1.735,-0.01,0.16,-1.75,-0.04,-0.80,-0.78,
1.736,-0.01,0.16,-1.75,-0.06,-0.78,-0.79,
1.737,-0.01,0.16,-1.75,-0.07,-0.75,-0.80,
1.74,-0.01,0.16,-1.75,-0.08,-0.72,-0.80,
1.74,-0.01,0.16,-1.75,-0.10,-0.68,-0.81,
1.742,-0.01,0.16,-1.75,-0.12,-0.65,-0.82,
1.745,-0.11,0.29,-1.33,-0.12,-0.65,-0.82,
1.745,-0.11,0.29,-1.33,-0.13,-0.61,-0.83,
1.746,-0.11,0.29,-1.33,-0.15,-0.58,-0.83,
1.75,-0.11,0.29,-1.33,-0.18,-0.54,-0.84,
1.751,-0.11,0.29,-1.33,-0.20,-0.51,-0.85,
1.753,-0.11,0.29,-1.33,-0.23,-0.47,-0.86,
1.755,-0.16,0.30,-1.12,-0.23,-0.47,-0.86,
1.755,-0.16,0.30,-1.12,-0.25,-0.44,-0.87,
1.757,-0.16,0.30,-1.12,-0.28,-0.41,-0.88,
1.759,-0.16,0.30,-1.12,-0.31,-0.38,-0.90,
1.761,-0.16,0.30,-1.12,-0.34,-0.34,-0.90,
1.763,-0.16,0.30,-1.12,-0.37,-0.32,-0.92,
1.765,-0.30,0.33,-0.92,-0.37,-0.32,-0.92,
1.765,-0.30,0.33,-0.92,-0.41,-0.29,-0.93,
1.767,-0.30,0.33,-0.92,-0.44,-0.26,-0.93,
1.77,-0.30,0.33,-0.92,-0.46,-0.23,-0.94,
1.771,-0.30,0.33,-0.92,-0.50,-0.20,-0.95,
1.773,-0.30,0.33,-0.92,-0.53,-0.18,-0.95,
1.775,-0.53,0.40,-0.54,-0.53,-0.18,-0.95,
1.776,-0.53,0.40,-0.54,-0.55,-0.15,-0.96,
1.776,-0.53,0.40,-0.54,-0.58,-0.13,-0.96,
1.78,-0.53,0.40,-0.54,-0.61,-0.11,-0.96,
1.781,-0.53,0.40,-0.54,-0.64,-0.08,-0.96,
1.783,-0.53,0.40,-0.54,-0.66,-0.06,-0.96,
1.786,-0.81,0.52,0.05,-0.66,-0.06,-0.96,
1.787,-0.81,0.52,0.05,-0.68,-0.04,-0.97,
1.787,-0.81,0.52,0.05,-0.70,-0.03,-0.97,
1.79,-0.81,0.52,0.05,-0.72,-0.01,-0.96,
1.791,-0.81,0.52,0.05,-0.74,0.01,-0.96,
1.793,-0.81,0.52,0.05,-0.75,0.03,-0.96,
1.795,-1.05,0.60,0.84,-0.75,0.03,-0.96,
1.795,-1.05,0.60,0.84,-0.76,0.04,-0.95,
1.797,-1.05,0.60,0.84,-0.77,0.05,-0.95,
1.809,-1.05,0.60,0.84,-0.78,0.07,-0.94,
1.81,-1.05,0.60,0.84,-0.78,0.08,-0.93,
1.811,-1.05,0.60,0.84,-0.78,0.09,-0.92,
1.811,-1.31,0.66,1.69,-0.78,0.09,-0.92,
1.811,-1.31,0.66,1.69,-0.78,0.10,-0.91,
1.812,-1.31,0.66,1.69,-0.78,0.12,-0.89,
1.812,-1.31,0.66,1.69,-0.77,0.12,-0.88,
1.813,-1.31,0.66,1.69,-0.76,0.13,-0.87,
1.813,-1.31,0.66,1.69,-0.75,0.13,-0.85,
1.817,-1.50,0.69,2.54,-0.75,0.13,-0.85,
1.818,-1.50,0.69,2.54,-0.73,0.14,-0.83,
1.818,-1.50,0.69,2.54,-0.72,0.14,-0.81,
1.833,-1.50,0.69,2.54,-0.70,0.15,-0.80,
1.835,-1.50,0.69,2.54,-0.68,0.15,-0.78,
1.836,-1.50,0.69,2.54,-0.65,0.16,-0.75,
1.837,-1.74,0.73,3.28,-0.65,0.16,-0.75,
1.837,-1.74,0.73,3.28,-0.63,0.16,-0.73,
1.838,-1.74,0.73,3.28,-0.61,0.16,-0.71,
1.838,-1.74,0.73,3.28,-0.58,0.16,-0.69,
1.839,-1.74,0.73,3.28,-0.55,0.16,-0.66,
1.839,-1.74,0.73,3.28,-0.52,0.16,-0.64,
1.84,-1.89,0.81,3.81,-0.52,0.16,-0.64,
1.841,-1.89,0.81,3.81,-0.49,0.16,-0.61,
1.841,-1.89,0.81,3.81,-0.46,0.15,-0.59,
1.841,-1.89,0.81,3.81,-0.43,0.15,-0.56,
1.86,-1.89,0.81,3.81,-0.40,0.14,-0.53,
1.86,-1.89,0.81,3.81,-0.37,0.13,-0.50,
1.86,-2.01,0.93,4.12,-0.37,0.13,-0.50,
1.86,-2.01,0.93,4.12,-0.34,0.12,-0.47,
1.861,-2.01,0.93,4.12,-0.31,0.11,-0.44,
1.861,-2.01,0.93,4.12,-0.29,0.10,-0.41,
1.861,-2.01,0.93,4.12,-0.26,0.10,-0.39,
1.861,-2.01,0.93,4.12,-0.23,0.09,-0.36,
1.861,-1.95,1.07,4.26,-0.23,0.09,-0.36,
1.862,-1.95,1.07,4.26,-0.20,0.09,-0.33,
1.862,-1.95,1.07,4.26,-0.17,0.09,-0.30,
1.862,-1.95,1.07,4.26,-0.14,0.09,-0.27,
1.862,-1.95,1.07,4.26,-0.12,0.09,-0.24,
1.865,-1.95,1.07,4.26,-0.10,0.09,-0.22,
1.865,-1.76,1.18,4.22,-0.10,0.09,-0.22,
1.866,-1.76,1.18,4.22,-0.08,0.09,-0.19,
1.869,-1.76,1.18,4.22,-0.05,0.10,-0.17,
1.87,-1.76,1.18,4.22,-0.03,0.11,-0.14,
1.873,-1.76,1.18,4.22,-0.01,0.12,-0.12,
1.873,-1.76,1.18,4.22,0.00,0.13,-0.10,
1.877,-1.45,1.29,3.99,0.00,0.13,-0.10,
1.877,-1.45,1.29,3.99,0.02,0.15,-0.07,
1.878,-1.45,1.29,3.99,0.03,0.16,-0.05,
1.881,-1.45,1.29,3.99,0.04,0.18,-0.03,
1.881,-1.45,1.29,3.99,0.05,0.19,-0.01,
1.884,-1.45,1.29,3.99,0.06,0.20,0.00,
1.885,-1.16,1.40,3.67,0.06,0.20,0.00,
1.885,-1.16,1.40,3.67,0.06,0.22,0.02,
1.887,-1.16,1.40,3.67,0.06,0.23,0.03,
1.89,-1.16,1.40,3.67,0.06,0.24,0.05,
1.89,-1.16,1.40,3.67,0.06,0.25,0.06,
1.893,-1.16,1.40,3.67,0.06,0.25,0.07,
1.895,-0.91,1.48,3.28,0.06,0.25,0.07,
1.895,-0.91,1.48,3.28,0.05,0.25,0.08,
1.897,-0.91,1.48,3.28,0.05,0.25,0.09,
1.9,-0.91,1.48,3.28,0.04,0.25,0.09,
1.901,-0.91,1.48,3.28,0.03,0.25,0.09,
1.903,-0.91,1.48,3.28,0.02,0.26,0.10,
1.905,-0.60,1.57,3.03,0.02,0.26,0.10,
1.905,-0.60,1.57,3.03,0.01,0.26,0.10,
1.907,-0.60,1.57,3.03,-0.00,0.26,0.09,
1.91,-0.60,1.57,3.03,-0.01,0.26,0.09,
1.911,-0.60,1.57,3.03,-0.02,0.27,0.09,
1.913,-0.60,1.57,3.03,-0.03,0.28,0.08,
1.915,-0.36,1.68,2.92,-0.03,0.28,0.08,
1.917,-0.36,1.68,2.92,-0.03,0.29,0.07,
1.917,-0.36,1.68,2.92,-0.04,0.30,0.06,
1.92,-0.36,1.68,2.92,-0.04,0.32,0.06,
1.921,-0.36,1.68,2.92,-0.05,0.33,0.04,
1.923,-0.36,1.68,2.92,-0.05,0.34,0.03,
1.925,-0.35,1.71,2.89,-0.05,0.34,0.03,
1.925,-0.35,1.71,2.89,-0.06,0.35,0.03,
1.927,-0.35,1.71,2.89,-0.06,0.35,0.01,
1.93,-0.35,1.71,2.89,-0.06,0.36,0.01,
1.931,-0.35,1.71,2.89,-0.07,0.36,-0.00,
1.939,-0.35,1.71,2.89,-0.07,0.36,-0.01,
1.939,-0.57,1.55,2.81,-0.07,0.36,-0.01,
1.939,-0.57,1.55,2.81,-0.07,0.36,-0.02,
1.939,-0.57,1.55,2.81,-0.07,0.36,-0.02,
1.94,-0.57,1.55,2.81,-0.07,0.36,-0.03,
1.941,-0.57,1.55,2.81,-0.08,0.36,-0.03,
1.943,-0.57,1.55,2.81,-0.08,0.36,-0.03,
1.945,-0.92,1.26,2.76,-0.08,0.36,-0.03,
1.945,-0.92,1.26,2.76,-0.07,0.36,-0.03,
1.947,-0.92,1.26,2.76,-0.07,0.37,-0.03,
1.973,-0.92,1.26,2.76,-0.06,0.37,-0.02,
1.973,-0.92,1.26,2.76,-0.06,0.37,-0.01,
1.973,-0.92,1.26,2.76,-0.06,0.38,-0.01,
1.974,-1.30,0.88,2.75,-0.06,0.38,-0.01,
1.974,-1.30,0.88,2.75,-0.05,0.38,0.00,
1.974,-1.30,0.88,2.75,-0.03,0.39,0.01,
1.975,-1.30,0.88,2.75,-0.02,0.39,0.03,
1.975,-1.30,0.88,2.75,-0.01,0.39,0.04,
1.975,-1.30,0.88,2.75,0.01,0.40,0.05,
1.976,-1.74,0.53,2.78,0.01,0.40,0.05,
1.976,-1.74,0.53,2.78,0.02,0.40,0.07,
1.976,-1.74,0.53,2.78,0.04,0.40,0.08,
1.976,-1.74,0.53,2.78,0.07,0.40,0.11,
1.977,-1.74,0.53,2.78,0.08,0.40,0.11,
1.977,-1.74,0.53,2.78,0.11,0.41,0.13,
1.977,-2.05,0.26,2.79,0.11,0.41,0.13,
1.978,-2.05,0.26,2.79,0.13,0.42,0.15,
1.978,-2.05,0.26,2.79,0.16,0.42,0.17,
1.98,-2.05,0.26,2.79,0.20,0.43,0.20,
1.981,-2.05,0.26,2.79,0.21,0.44,0.21,
1.984,-2.05,0.26,2.79,0.23,0.45,0.23,
1.986,-2.42,-0.07,2.55,0.23,0.45,0.23,
1.987,-2.42,-0.07,2.55,0.25,0.45,0.26,
1.987,-2.42,-0.07,2.55,0.27,0.46,0.28,
1.992,-2.42,-0.07,2.55,0.30,0.46,0.32,
1.992,-2.42,-0.07,2.55,0.31,0.47,0.34,
1.993,-2.42,-0.07,2.55,0.32,0.47,0.37,
1.996,-2.60,-0.26,1.97,0.32,0.47,0.37,
1.997,-2.60,-0.26,1.97,0.34,0.47,0.39,
1.997,-2.60,-0.26,1.97,0.35,0.46,0.42,
2.003,-2.60,-0.26,1.97,0.36,0.45,0.46,
2.004,-2.60,-0.26,1.97,0.36,0.45,0.48,
2.005,-2.60,-0.26,1.97,0.36,0.44,0.50,
2.007,-2.73,-0.33,1.33,0.36,0.44,0.50,
2.007,-2.73,-0.33,1.33,0.36,0.43,0.53,
2.033,-2.73,-0.33,1.33,0.37,0.42,0.55,
2.033,-2.73,-0.33,1.33,0.36,0.40,0.59,
2.034,-2.73,-0.33,1.33,0.36,0.39,0.60,
2.034,-2.73,-0.33,1.33,0.35,0.37,0.62,
2.034,-2.61,-0.34,0.76,0.35,0.37,0.62,
2.035,-2.61,-0.34,0.76,0.35,0.35,0.64,
2.035,-2.61,-0.34,0.76,0.34,0.33,0.66,
2.035,-2.61,-0.34,0.76,0.32,0.30,0.68,
2.036,-2.61,-0.34,0.76,0.31,0.28,0.69,
2.036,-2.61,-0.34,0.76,0.30,0.26,0.71,
2.036,-2.42,-0.34,0.29,0.30,0.26,0.71,
2.036,-2.42,-0.34,0.29,0.28,0.23,0.72,
2.037,-2.42,-0.34,0.29,0.26,0.20,0.74,
2.037,-2.42,-0.34,0.29,0.24,0.15,0.75,
2.037,-2.42,-0.34,0.29,0.22,0.13,0.76,
2.037,-2.42,-0.34,0.29,0.20,0.10,0.77,
2.038,-2.09,-0.29,-0.05,0.20,0.10,0.77,
2.038,-2.09,-0.29,-0.05,0.17,0.06,0.78,
2.038,-2.09,-0.29,-0.05,0.15,0.02,0.79,
2.048,-2.09,-0.29,-0.05,0.11,-0.04,0.80,
2.049,-2.09,-0.29,-0.05,0.09,-0.06,0.81,
2.049,-2.09,-0.29,-0.05,0.06,-0.10,0.81,
2.05,-1.74,-0.25,-0.06,0.06,-0.10,0.81,
2.05,-1.74,-0.25,-0.06,0.03,-0.14,0.82,
2.05,-1.74,-0.25,-0.06,0.01,-0.19,0.82,
2.05,-1.74,-0.25,-0.06,-0.03,-0.24,0.82,
2.051,-1.74,-0.25,-0.06,-0.04,-0.26,0.82,
2.055,-1.74,-0.25,-0.06,-0.06,-0.30,0.82,
2.056,-1.34,-0.20,0.36,-0.06,-0.30,0.82,
2.056,-1.34,-0.20,0.36,-0.08,-0.33,0.82,
2.057,-1.34,-0.20,0.36,-0.09,-0.36,0.82,
2.061,-1.34,-0.20,0.36,-0.10,-0.40,0.82,
2.061,-1.34,-0.20,0.36,-0.10,-0.41,0.82,
2.065,-1.34,-0.20,0.36,-0.10,-0.43,0.82,
2.065,-1.18,-0.21,1.09,-0.10,-0.43,0.82,
2.066,-1.18,-0.21,1.09,-0.10,-0.45,0.82,
2.072,-1.18,-0.21,1.09,-0.09,-0.46,0.82,
2.075,-1.18,-0.21,1.09,-0.09,-0.47,0.82,
2.077,-1.18,-0.21,1.09,-0.08,-0.47,0.82,
2.077,-1.18,-0.21,1.09,-0.07,-0.47,0.82,
2.078,-0.90,-0.21,1.66,-0.07,-0.47,0.82,
2.078,-0.90,-0.21,1.66,-0.06,-0.47,0.82,
2.079,-0.90,-0.21,1.66,-0.05,-0.46,0.81,
2.085,-0.90,-0.21,1.66,-0.02,-0.44,0.81,
2.086,-0.90,-0.21,1.66,-0.02,-0.43,0.81,
2.086,-0.90,-0.21,1.66,-0.00,-0.40,0.80,
2.086,-0.57,-0.32,1.90,-0.00,-0.40,0.80,
2.087,-0.57,-0.32,1.90,0.01,-0.38,0.80,
2.096,-0.57,-0.32,1.90,0.03,-0.35,0.79,
2.096,-0.57,-0.32,1.90,0.05,-0.30,0.79,
2.097,-0.57,-0.32,1.90,0.06,-0.28,0.78,
2.097,-0.57,-0.32,1.90,0.07,-0.25,0.78,
2.097,-0.30,-0.37,1.81,0.07,-0.25,0.78,
2.098,-0.30,-0.37,1.81,0.09,-0.21,0.78,
2.098,-0.30,-0.37,1.81,0.11,-0.17,0.77,
2.128,-0.30,-0.37,1.81,0.13,-0.11,0.76,
2.129,-0.30,-0.37,1.81,0.14,-0.08,0.76,
2.129,-0.30,-0.37,1.81,0.15,-0.04,0.75,
2.129,-0.01,-0.48,1.41,0.15,-0.04,0.75,
2.129,-0.01,-0.48,1.41,0.16,0.00,0.74,
2.129,-0.01,-0.48,1.41,0.17,0.05,0.73,
2.13,-0.01,-0.48,1.41,0.19,0.11,0.72,
2.13,-0.01,-0.48,1.41,0.19,0.13,0.71,
2.13,-0.01,-0.48,1.41,0.20,0.18,0.70,
2.13,0.14,-0.49,0.70,0.20,0.18,0.70,
2.13,0.14,-0.49,0.70,0.21,0.22,0.68,
2.131,0.14,-0.49,0.70,0.21,0.25,0.67,
2.131,0.14,-0.49,0.70,0.21,0.30,0.65,
2.131,0.14,-0.49,0.70,0.22,0.32,0.65,
2.131,0.14,-0.49,0.70,0.22,0.35,0.64,
2.131,0.16,-0.48,-0.09,0.22,0.35,0.64,
2.132,0.16,-0.48,-0.09,0.22,0.38,0.62,
2.132,0.16,-0.48,-0.09,0.22,0.41,0.62,
2.133,0.16,-0.48,-0.09,0.21,0.46,0.60,
2.135,0.16,-0.48,-0.09,0.21,0.47,0.59,
2.135,0.16,-0.48,-0.09,0.21,0.50,0.59,
2.136,0.14,-0.53,-0.92,0.21,0.50,0.59,
2.136,0.14,-0.53,-0.92,0.20,0.53,0.58,
2.139,0.14,-0.53,-0.92,0.20,0.56,0.57,
2.14,0.14,-0.53,-0.92,0.19,0.61,0.56,
2.141,0.14,-0.53,-0.92,0.18,0.62,0.55,
2.151,0.14,-0.53,-0.92,0.16,0.72,0.53,
2.151,0.14,-0.53,-0.92,0.16,0.72,0.53,
2.151,0.14,-0.53,-0.92,0.16,0.72,0.53,
2.152,0.09,-0.67,-2.00,0.16,0.72,0.53,
2.152,0.09,-0.67,-2.00,0.14,0.78,0.52,
2.152,0.09,-0.67,-2.00,0.13,0.80,0.51,
2.154,0.09,-0.67,-2.00,0.12,0.81,0.51,
2.155,0.08,-0.75,-2.45,0.12,0.81,0.51,
2.156,0.08,-0.75,-2.45,0.11,0.85,0.50,
2.157,0.08,-0.75,-2.45,0.10,0.87,0.49,
2.16,0.08,-0.75,-2.45,0.07,0.92,0.49,
2.163,0.08,-0.75,-2.45,0.06,0.93,0.48,
2.163,0.08,-0.75,-2.45,0.05,0.96,0.48,
2.166,0.03,-0.84,-3.10,0.05,0.96,0.48,
2.167,0.03,-0.84,-3.10,0.03,0.99,0.47,
2.169,0.03,-0.84,-3.10,0.01,1.02,0.47,
2.17,0.03,-0.84,-3.10,-0.02,1.07,0.46,
2.172,0.03,-0.84,-3.10,-0.03,1.09,0.46,
2.173,0.03,-0.84,-3.10,-0.05,1.12,0.45,
2.205,0.03,-0.91,-3.63,-0.05,1.12,0.45,
2.206,0.03,-0.91,-3.63,-0.07,1.15,0.45,
2.206,0.03,-0.91,-3.63,-0.09,1.18,0.45,
2.207,0.03,-0.91,-3.63,-0.12,1.23,0.44,
2.207,0.03,-0.91,-3.63,-0.13,1.24,0.44,
2.208,0.03,-0.91,-3.63,-0.16,1.27,0.43,
2.208,-0.04,-0.97,-4.00,-0.16,1.27,0.43,
2.208,-0.04,-0.97,-4.00,-0.18,1.30,0.43,
2.209,-0.04,-0.97,-4.00,-0.20,1.33,0.43,
2.209,-0.04,-0.97,-4.00,-0.24,1.37,0.43,
2.21,-0.04,-0.97,-4.00,-0.25,1.38,0.43,
2.21,-0.04,-0.97,-4.00,-0.28,1.41,0.43,
2.21,-0.32,-1.07,-4.17,-0.28,1.41,0.43,
2.211,-0.32,-1.07,-4.17,-0.30,1.43,0.43,
2.211,-0.32,-1.07,-4.17,-0.33,1.45,0.44,
2.212,-0.32,-1.07,-4.17,-0.37,1.47,0.46,
2.212,-0.32,-1.07,-4.17,-0.38,1.48,0.46,
2.212,-0.32,-1.07,-4.17,-0.41,1.49,0.47,
2.213,-0.70,-1.14,-4.16,-0.41,1.49,0.47,
2.213,-0.70,-1.14,-4.16,-0.43,1.50,0.49,
2.214,-0.70,-1.14,-4.16,-0.46,1.52,0.50,
2.214,-0.70,-1.14,-4.16,-0.49,1.53,0.53,
2.214,-0.70,-1.14,-4.16,-0.50,1.54,0.54,
2.215,-0.70,-1.14,-4.16,-0.53,1.55,0.57,
2.215,-0.94,-1.22,-3.96,-0.53,1.55,0.57,
2.216,-0.94,-1.22,-3.96,-0.55,1.56,0.59,
2.229,-0.94,-1.22,-3.96,-0.57,1.57,0.62,
2.229,-0.94,-1.22,-3.96,-0.59,1.58,0.66,
2.23,-0.94,-1.22,-3.96,-0.60,1.58,0.68,
2.23,-0.94,-1.22,-3.96,-0.61,1.59,0.71,
2.23,-1.10,-1.33,-3.59,-0.61,1.59,0.71,
2.23,-1.10,-1.33,-3.59,-0.63,1.59,0.74,
2.231,-1.10,-1.33,-3.59,-0.64,1.59,0.77,
2.231,-1.10,-1.33,-3.59,-0.66,1.58,0.82,
2.264,-1.10,-1.33,-3.59,-0.67,1.58,0.84,
2.264,-1.10,-1.33,-3.59,-0.67,1.56,0.87,
2.265,-0.89,-1.36,-3.13,-0.67,1.56,0.87,
2.265,-0.89,-1.36,-3.13,-0.68,1.55,0.90,
2.265,-0.89,-1.36,-3.13,-0.68,1.53,0.93,
2.265,-0.89,-1.36,-3.13,-0.68,1.50,0.97,
2.265,-0.89,-1.36,-3.13,-0.68,1.48,0.98,
2.265,-0.89,-1.36,-3.13,-0.67,1.46,1.00,
2.266,-0.50,-1.26,-2.46,-0.67,1.46,1.00,
2.266,-0.50,-1.26,-2.46,-0.66,1.43,1.02,
2.266,-0.50,-1.26,-2.46,-0.64,1.40,1.04,
2.266,-0.50,-1.26,-2.46,-0.61,1.35,1.06,
2.266,-0.50,-1.26,-2.46,-0.60,1.33,1.07,
2.267,-0.50,-1.26,-2.46,-0.57,1.29,1.07,
2.267,0.10,-1.03,-1.62,-0.57,1.29,1.07,
2.267,0.10,-1.03,-1.62,-0.54,1.25,1.08,
2.267,0.10,-1.03,-1.62,-0.50,1.20,1.08,
2.267,0.10,-1.03,-1.62,-0.44,1.14,1.08,
2.267,0.10,-1.03,-1.62,-0.42,1.11,1.08,
2.268,0.10,-1.03,-1.62,-0.37,1.06,1.08,
2.268,0.63,-0.86,-0.81,-0.37,1.06,1.08,
2.268,0.63,-0.86,-0.81,-0.33,1.01,1.07,
2.268,0.63,-0.86,-0.81,-0.27,0.95,1.06,
2.271,0.63,-0.86,-0.81,-0.19,0.87,1.04,
2.272,0.63,-0.86,-0.81,-0.17,0.84,1.04,
2.273,0.63,-0.86,-0.81,-0.11,0.79,1.03,
2.276,0.88,-0.71,-0.23,-0.11,0.79,1.03,
2.276,0.88,-0.71,-0.23,-0.05,0.73,1.02,
2.277,0.88,-0.71,-0.23,0.02,0.67,1.01,
2.281,0.88,-0.71,-0.23,0.11,0.58,0.99,
2.282,0.88,-0.71,-0.23,0.14,0.55,0.98,
2.285,0.88,-0.71,-0.23,0.20,0.49,0.97,
2.286,0.93,-0.64,0.08,0.20,0.49,0.97,
2.287,0.93,-0.64,0.08,0.26,0.43,0.96,
2.291,0.93,-0.64,0.08,0.32,0.36,0.95,
2.298,0.93,-0.64,0.08,0.41,0.27,0.94,
2.301,0.93,-0.64,0.08,0.44,0.24,0.93,
2.302,0.93,-0.64,0.08,0.50,0.18,0.92,
2.302,0.82,-0.61,0.04,0.50,0.18,0.92,
2.302,0.82,-0.61,0.04,0.55,0.12,0.92,
2.302,0.82,-0.61,0.04,0.60,0.06,0.91,
2.303,0.82,-0.61,0.04,0.67,-0.03,0.90,
2.303,0.82,-0.61,0.04,0.69,-0.06,0.89,
2.303,0.82,-0.61,0.04,0.73,-0.12,0.88,
2.307,0.75,-0.60,-0.27,0.73,-0.12,0.88,
2.308,0.75,-0.60,-0.27,0.77,-0.18,0.88,
2.314,0.75,-0.60,-0.27,0.80,-0.25,0.87,
2.314,0.75,-0.60,-0.27,0.84,-0.34,0.85,
2.315,0.75,-0.60,-0.27,0.86,-0.37,0.85,
2.315,0.75,-0.60,-0.27,0.88,-0.43,0.83,
2.315,0.72,-0.57,-0.56,0.88,-0.43,0.83,
2.316,0.72,-0.57,-0.56,0.90,-0.48,0.82,
2.317,0.72,-0.57,-0.56,0.92,-0.54,0.81,
2.32,0.72,-0.57,-0.56,0.94,-0.61,0.79,
2.321,0.72,-0.57,-0.56,0.95,-0.63,0.79,
2.323,0.72,-0.57,-0.56,0.96,-0.68,0.77,
2.325,0.61,-0.61,-0.71,0.96,-0.68,0.77,
2.326,0.61,-0.61,-0.71,0.96,-0.72,0.76,
2.327,0.61,-0.61,-0.71,0.97,-0.75,0.75,
2.335,0.61,-0.61,-0.71,0.98,-0.79,0.73,
2.336,0.61,-0.61,-0.71,0.98,-0.81,0.72,
2.336,0.61,-0.61,-0.71,0.98,-0.83,0.71,
2.337,0.53,-0.64,-0.72,0.98,-0.83,0.71,
2.337,0.53,-0.64,-0.72,0.97,-0.85,0.70,
2.337,0.53,-0.64,-0.72,0.97,-0.87,0.69,
2.34,0.53,-0.64,-0.72,0.95,-0.89,0.67,
2.367,0.53,-0.64,-0.72,0.95,-0.89,0.66,
2.368,0.53,-0.64,-0.72,0.94,-0.90,0.65,
2.368,0.51,-0.70,-0.69,0.94,-0.90,0.65,
2.368,0.51,-0.70,-0.69,0.92,-0.91,0.64,
2.369,0.51,-0.70,-0.69,0.90,-0.91,0.63,
2.369,0.51,-0.70,-0.69,0.88,-0.92,0.61,
2.369,0.51,-0.70,-0.69,0.87,-0.92,0.60,
2.369,0.51,-0.70,-0.69,0.85,-0.92,0.59,
2.37,0.54,-0.74,-0.51,0.85,-0.92,0.59,
2.37,0.54,-0.74,-0.51,0.83,-0.93,0.57,
2.37,0.54,-0.74,-0.51,0.80,-0.93,0.56,
2.371,0.54,-0.74,-0.51,0.77,-0.94,0.54,
2.371,0.54,-0.74,-0.51,0.76,-0.94,0.54,
2.371,0.54,-0.74,-0.51,0.74,-0.94,0.52,
2.371,0.59,-0.72,-0.06,0.74,-0.94,0.52,
2.372,0.59,-0.72,-0.06,0.73,-0.95,0.51,
2.372,0.59,-0.72,-0.06,0.71,-0.95,0.50,
2.372,0.59,-0.72,-0.06,0.69,-0.95,0.47,
2.372,0.59,-0.72,-0.06,0.68,-0.96,0.47,
2.377,0.59,-0.72,-0.06,0.67,-0.96,0.45,
2.377,0.66,-0.68,0.52,0.67,-0.96,0.45,
2.377,0.66,-0.68,0.52,0.66,-0.97,0.44,
2.377,0.66,-0.68,0.52,0.65,-0.97,0.42,
2.383,0.66,-0.68,0.52,0.64,-0.97,0.39,
2.383,0.66,-0.68,0.52,0.63,-0.97,0.39,
2.393,0.66,-0.68,0.52,0.63,-0.96,0.37,
2.393,0.77,-0.65,1.10,0.63,-0.96,0.37,
2.393,0.77,-0.65,1.10,0.62,-0.96,0.35,
2.393,0.77,-0.65,1.10,0.61,-0.95,0.34,
2.393,0.77,-0.65,1.10,0.60,-0.94,0.31,
2.394,0.77,-0.65,1.10,0.59,-0.94,0.30,
2.394,0.77,-0.65,1.10,0.58,-0.93,0.28,
2.398,0.97,-0.56,1.45,0.58,-0.93,0.28,
2.398,0.97,-0.56,1.45,0.57,-0.91,0.26,
2.398,0.97,-0.56,1.45,0.56,-0.89,0.24,
2.4,0.97,-0.56,1.45,0.53,-0.85,0.20,
2.401,0.97,-0.56,1.45,0.53,-0.84,0.19,
2.417,0.97,-0.56,1.45,0.51,-0.81,0.17,
2.418,1.20,-0.49,1.41,0.51,-0.81,0.17,
2.418,1.20,-0.49,1.41,0.48,-0.78,0.14,
2.418,1.20,-0.49,1.41,0.46,-0.75,0.11,
2.418,1.20,-0.49,1.41,0.41,-0.70,0.08,
2.418,1.20,-0.49,1.41,0.40,-0.69,0.06,
2.419,1.20,-0.49,1.41,0.36,-0.65,0.03,
2.419,1.34,-0.41,1.31,0.36,-0.65,0.03,
2.419,1.34,-0.41,1.31,0.33,-0.62,0.01,
2.419,1.34,-0.41,1.31,0.29,-0.57,-0.02,
2.422,1.34,-0.41,1.31,0.24,-0.51,-0.06,
2.423,1.34,-0.41,1.31,0.22,-0.48,-0.07,
2.423,1.34,-0.41,1.31,0.18,-0.43,-0.09,
2.425,1.29,-0.24,1.27,0.18,-0.43,-0.09,
2.425,1.29,-0.24,1.27,0.15,-0.38,-0.12,
2.427,1.29,-0.24,1.27,0.11,-0.32,-0.14,
2.43,1.29,-0.24,1.27,0.06,-0.24,-0.16,
2.432,1.29,-0.24,1.27,0.04,-0.21,-0.17,
2.433,1.29,-0.24,1.27,0.00,-0.16,-0.19,
2.443,1.08,-0.05,1.25,0.00,-0.16,-0.19,
2.444,1.08,-0.05,1.25,-0.04,-0.10,-0.21,
2.444,1.08,-0.05,1.25,-0.08,-0.05,-0.22,
2.444,1.08,-0.05,1.25,-0.13,0.03,-0.24,
2.444,1.08,-0.05,1.25,-0.16,0.06,-0.25,
2.445,1.08,-0.05,1.25,-0.20,0.11,-0.26,
2.451,1.06,-0.02,1.12,-0.20,0.11,-0.26,
2.452,1.06,-0.02,1.12,-0.24,0.16,-0.27,
2.452,1.06,-0.02,1.12,-0.29,0.21,-0.29,
2.452,1.06,-0.02,1.12,-0.36,0.28,-0.31,
2.452,1.06,-0.02,1.12,-0.38,0.30,-0.31,
2.453,1.06,-0.02,1.12,-0.43,0.34,-0.33,
2.457,1.13,0.06,0.92,-0.43,0.34,-0.33,
2.457,1.13,0.06,0.92,-0.48,0.38,-0.34,
2.458,1.13,0.06,0.92,-0.53,0.42,-0.37,
2.461,1.13,0.06,0.92,-0.60,0.47,-0.39,
2.462,1.13,0.06,0.92,-0.63,0.48,-0.40,
2.473,1.13,0.06,0.92,-0.67,0.50,-0.43,
2.474,1.28,0.28,0.87,-0.67,0.50,-0.43,
2.474,1.28,0.28,0.87,-0.72,0.51,-0.45,
2.474,1.28,0.28,0.87,-0.77,0.51,-0.48,
2.474,1.28,0.28,0.87,-0.84,0.51,-0.52,
2.475,1.28,0.28,0.87,-0.86,0.50,-0.53,
2.475,1.28,0.28,0.87,-0.90,0.49,-0.56,
2.476,1.39,0.44,1.15,-0.90,0.49,-0.56,
2.476,1.39,0.44,1.15,-0.94,0.47,-0.59,
2.477,1.39,0.44,1.15,-0.97,0.44,-0.62,
2.48,1.39,0.44,1.15,-1.02,0.40,-0.67,
2.481,1.39,0.44,1.15,-1.03,0.38,-0.68,
2.484,1.39,0.44,1.15,-1.05,0.35,-0.71,
2.487,1.39,0.55,2.00,-1.05,0.35,-0.71,
2.487,1.39,0.55,2.00,-1.07,0.32,-0.74,
2.489,1.39,0.55,2.00,-1.07,0.28,-0.77,
2.49,1.39,0.55,2.00,-1.08,0.23,-0.80,
2.491,1.39,0.55,2.00,-1.08,0.21,-0.82,
2.494,1.39,0.55,2.00,-1.08,0.18,-0.83,
2.495,1.05,0.52,3.15,-1.08,0.18,-0.83,
2.495,1.05,0.52,3.15,-1.07,0.14,-0.85,
2.499,1.05,0.52,3.15,-1.06,0.10,-0.87,
2.5,1.05,0.52,3.15,-1.03,0.05,-0.88,
2.502,1.05,0.52,3.15,-1.02,0.03,-0.88,
2.503,1.05,0.52,3.15,-0.99,-0.01,-0.89,
2.505,0.66,0.24,4.14,-0.99,-0.01,-0.89,
2.505,0.66,0.24,4.14,-0.96,-0.04,-0.89,
2.524,0.66,0.24,4.14,-0.93,-0.08,-0.88,
2.524,0.66,0.24,4.14,-0.86,-0.13,-0.87,
2.525,0.66,0.24,4.14,-0.84,-0.15,-0.86,
2.525,0.66,0.24,4.14,-0.79,-0.18,-0.84,
2.525,0.10,-0.18,5.16,-0.79,-0.18,-0.84,
2.525,0.10,-0.18,5.16,-0.74,-0.21,-0.82,
2.525,0.10,-0.18,5.16,-0.68,-0.24,-0.80,
2.526,0.10,-0.18,5.16,-0.58,-0.27,-0.76,
2.526,0.10,-0.18,5.16,-0.55,-0.28,-0.74,
2.526,0.10,-0.18,5.16,-0.47,-0.29,-0.71,
2.526,-0.33,-0.63,5.88,-0.47,-0.29,-0.71,
2.527,-0.33,-0.63,5.88,-0.40,-0.31,-0.67,
2.527,-0.33,-0.63,5.88,-0.33,-0.32,-0.63,
2.531,-0.33,-0.63,5.88,-0.21,-0.33,-0.57,
2.531,-0.33,-0.63,5.88,-0.17,-0.34,-0.55,
2.533,-0.33,-0.63,5.88,-0.09,-0.35,-0.51,
2.535,-0.57,-0.95,5.97,-0.09,-0.35,-0.51,
2.536,-0.57,-0.95,5.97,-0.01,-0.35,-0.46,
2.537,-0.57,-0.95,5.97,0.06,-0.36,-0.41,
2.54,-0.57,-0.95,5.97,0.18,-0.36,-0.34,
2.541,-0.57,-0.95,5.97,0.21,-0.37,-0.31,
2.543,-0.57,-0.95,5.97,0.28,-0.37,-0.27,
2.546,-0.58,-1.19,5.38,0.28,-0.37,-0.27,
2.546,-0.58,-1.19,5.38,0.35,-0.38,-0.22,
2.548,-0.58,-1.19,5.38,0.41,-0.38,-0.17,
2.55,-0.58,-1.19,5.38,0.49,-0.39,-0.10,
2.551,-0.58,-1.19,5.38,0.52,-0.40,-0.07,
2.553,-0.58,-1.19,5.38,0.56,-0.41,-0.03,
2.555,-0.27,-1.17,4.06,0.56,-0.41,-0.03,
2.555,-0.27,-1.17,4.06,0.60,-0.41,0.01,
2.557,-0.27,-1.17,4.06,0.64,-0.43,0.05,
2.56,-0.27,-1.17,4.06,0.68,-0.45,0.09,
2.56,-0.27,-1.17,4.06,0.69,-0.46,0.11,
2.563,-0.27,-1.17,4.06,0.71,-0.47,0.13,
2.566,0.43,-1.07,2.51,0.71,-0.47,0.13,
2.566,0.43,-1.07,2.51,0.72,-0.49,0.15,
2.566,0.43,-1.07,2.51,0.72,-0.51,0.16,
2.57,0.43,-1.07,2.51,0.72,-0.54,0.17,
2.57,0.43,-1.07,2.51,0.72,-0.55,0.18,
2.574,0.43,-1.07,2.51,0.71,-0.57,0.18,
2.575,1.28,-0.83,1.01,0.71,-0.57,0.18,
2.575,1.28,-0.83,1.01,0.70,-0.59,0.18,
2.576,1.28,-0.83,1.01,0.69,-0.61,0.17,
2.58,1.28,-0.83,1.01,0.65,-0.63,0.16,
2.581,1.28,-0.83,1.01,0.64,-0.64,0.16,
2.583,1.28,-0.83,1.01,0.62,-0.65,0.14,
2.585,2.07,-0.60,-0.13,0.62,-0.65,0.14,
2.585,2.07,-0.60,-0.13,0.59,-0.66,0.13,
2.586,2.07,-0.60,-0.13,0.56,-0.67,0.11,
2.59,2.07,-0.60,-0.13,0.51,-0.68,0.08,
2.59,2.07,-0.60,-0.13,0.50,-0.68,0.07,
2.593,2.07,-0.60,-0.13,0.46,-0.68,0.04,
2.598,2.59,-0.39,-0.98,0.46,-0.68,0.04,
2.598,2.59,-0.39,-0.98,0.43,-0.69,0.01,
2.598,2.59,-0.39,-0.98,0.39,-0.68,-0.02,
2.6,2.59,-0.39,-0.98,0.33,-0.66,-0.06,
2.601,2.59,-0.39,-0.98,0.31,-0.66,-0.08,
2.603,2.59,-0.39,-0.98,0.27,-0.64,-0.11,
2.605,2.99,-0.27,-1.64,0.27,-0.64,-0.11,
2.605,2.99,-0.27,-1.64,0.22,-0.62,-0.14,
2.607,2.99,-0.27,-1.64,0.18,-0.60,-0.17,
2.61,2.99,-0.27,-1.64,0.12,-0.57,-0.22,
2.611,2.99,-0.27,-1.64,0.09,-0.55,-0.24,
2.613,2.99,-0.27,-1.64,0.05,-0.53,-0.27,
2.615,2.94,-0.23,-2.18,0.05,-0.53,-0.27,
2.615,2.94,-0.23,-2.18,0.00,-0.50,-0.30,
2.616,2.94,-0.23,-2.18,-0.04,-0.47,-0.33,
2.619,2.94,-0.23,-2.18,-0.11,-0.43,-0.38,
2.62,2.94,-0.23,-2.18,-0.14,-0.41,-0.39,
2.622,2.94,-0.23,-2.18,-0.18,-0.38,-0.42,
2.625,2.84,-0.23,-2.56,-0.18,-0.38,-0.42,
2.625,2.84,-0.23,-2.56,-0.23,-0.35,-0.45,
2.627,2.84,-0.23,-2.56,-0.27,-0.31,-0.48,
2.629,2.84,-0.23,-2.56,-0.34,-0.26,-0.52,
2.63,2.84,-0.23,-2.56,-0.35,-0.24,-0.53,
2.633,2.84,-0.23,-2.56,-0.39,-0.21,-0.56,
2.635,2.50,-0.28,-2.68,-0.39,-0.21,-0.56,
2.636,2.50,-0.28,-2.68,-0.42,-0.17,-0.58,
2.637,2.50,-0.28,-2.68,-0.45,-0.14,-0.61,
2.641,2.50,-0.28,-2.68,-0.49,-0.09,-0.64,
2.641,2.50,-0.28,-2.68,-0.51,-0.07,-0.65,
2.643,2.50,-0.28,-2.68,-0.53,-0.04,-0.67,
2.645,2.50,-0.28,-2.68,-0.54,-0.01,-0.69,
2.646,2.24,-0.30,-2.61,-0.54,-0.01,-0.69,
2.647,2.24,-0.30,-2.61,-0.56,0.01,-0.71,
2.65,2.24,-0.30,-2.61,-0.58,0.05,-0.74,
2.651,2.24,-0.30,-2.61,-0.59,0.06,-0.74,
2.653,2.24,-0.30,-2.61,-0.59,0.08,-0.76,
2.655,1.87,-0.36,-2.43,-0.59,0.08,-0.76,
2.655,1.87,-0.36,-2.43,-0.60,0.10,-0.77,
2.656,1.87,-0.36,-2.43,-0.60,0.11,-0.79,
2.66,1.87,-0.36,-2.43,-0.60,0.13,-0.80,
2.661,1.87,-0.36,-2.43,-0.59,0.14,-0.81,
2.663,1.87,-0.36,-2.43,-0.59,0.15,-0.82,
2.666,1.58,-0.34,-2.21,-0.59,0.15,-0.82,
2.666,1.58,-0.34,-2.21,-0.58,0.16,-0.83,
2.667,1.58,-0.34,-2.21,-0.57,0.17,-0.84,
2.67,1.58,-0.34,-2.21,-0.55,0.18,-0.85,
2.671,1.58,-0.34,-2.21,-0.54,0.18,-0.86,
2.673,1.58,-0.34,-2.21,-0.52,0.18,-0.86,
2.698,1.20,-0.36,-2.03,-0.52,0.18,-0.86,
2.698,1.20,-0.36,-2.03,-0.51,0.18,-0.87,
2.698,1.20,-0.36,-2.03,-0.49,0.17,-0.87,
2.698,1.20,-0.36,-2.03,-0.46,0.17,-0.88,
2.699,1.20,-0.36,-2.03,-0.45,0.16,-0.88,
2.699,1.20,-0.36,-2.03,-0.43,0.16,-0.88,
2.699,0.85,-0.38,-1.89,-0.43,0.16,-0.88,
2.699,0.85,-0.38,-1.89,-0.40,0.14,-0.88,
2.699,0.85,-0.38,-1.89,-0.38,0.13,-0.88,
2.7,0.85,-0.38,-1.89,-0.33,0.11,-0.87,
2.7,0.85,-0.38,-1.89,-0.32,0.11,-0.87,
2.7,0.85,-0.38,-1.89,-0.29,0.09,-0.87,
2.7,0.45,-0.45,-1.77,-0.29,0.09,-0.87,
2.7,0.45,-0.45,-1.77,-0.26,0.08,-0.86,
2.701,0.45,-0.45,-1.77,-0.23,0.06,-0.86,
2.701,0.45,-0.45,-1.77,-0.19,0.04,-0.84,
2.701,0.45,-0.45,-1.77,-0.17,0.03,-0.84,
2.704,0.45,-0.45,-1.77,-0.14,0.01,-0.83,
2.705,0.09,-0.50,-1.68,-0.14,0.01,-0.83,
2.705,0.09,-0.50,-1.68,-0.10,-0.01,-0.82,
2.706,0.09,-0.50,-1.68,-0.07,-0.03,-0.81,
2.709,0.09,-0.50,-1.68,-0.02,-0.06,-0.78,
2.71,0.09,-0.50,-1.68,-0.00,-0.07,-0.78,
2.713,0.09,-0.50,-1.68,0.03,-0.09,-0.77,
2.715,-0.20,-0.48,-1.65,0.03,-0.09,-0.77,
2.716,-0.20,-0.48,-1.65,0.06,-0.12,-0.75,
2.717,-0.20,-0.48,-1.65,0.10,-0.14,-0.73,
2.719,-0.20,-0.48,-1.65,0.15,-0.18,-0.71,
2.72,-0.20,-0.48,-1.65,0.16,-0.20,-0.71,
2.723,-0.20,-0.48,-1.65,0.19,-0.22,-0.70,
2.725,-0.31,-0.44,-1.73,0.19,-0.22,-0.70,
2.726,-0.31,-0.44,-1.73,0.23,-0.25,-0.68,
2.727,-0.31,-0.44,-1.73,0.25,-0.29,-0.67,
2.74,-0.31,-0.44,-1.73,0.30,-0.33,-0.66,
2.741,-0.31,-0.44,-1.73,0.31,-0.35,-0.65,
2.741,-0.31,-0.44,-1.73,0.33,-0.38,-0.64,
2.741,-0.41,-0.38,-1.80,0.33,-0.38,-0.64,
2.742,-0.41,-0.38,-1.80,0.36,-0.41,-0.63,
2.742,-0.41,-0.38,-1.80,0.38,-0.43,-0.62,
2.742,-0.41,-0.38,-1.80,0.41,-0.47,-0.60,
2.742,-0.41,-0.38,-1.80,0.43,-0.48,-0.60,
2.79,-0.41,-0.38,-1.80,0.44,-0.50,-0.59,
2.792,-0.51,-0.30,-1.88,0.44,-0.50,-0.59,
2.793,-0.51,-0.30,-1.88,0.46,-0.52,-0.57,
2.794,-0.51,-0.30,-1.88,0.47,-0.54,-0.56,
2.794,-0.51,-0.30,-1.88,0.49,-0.56,-0.55,
2.795,-0.51,-0.30,-1.88,0.50,-0.57,-0.55,
2.795,-0.51,-0.30,-1.88,0.50,-0.58,-0.54,
2.798,-0.50,-0.26,-2.10,0.50,-0.58,-0.54,
2.802,-0.50,-0.26,-2.10,0.50,-0.58,-0.53,
2.802,-0.50,-0.26,-2.10,0.51,-0.59,-0.52,
2.802,-0.50,-0.26,-2.10,0.51,-0.60,-0.52,
2.802,-0.50,-0.26,-2.10,0.50,-0.60,-0.52,
2.802,-0.50,-0.26,-2.10,0.50,-0.60,-0.51,
2.803,-0.44,-0.13,-2.38,0.50,-0.60,-0.51,
2.803,-0.44,-0.13,-2.38,0.49,-0.60,-0.51,
2.803,-0.44,-0.13,-2.38,0.48,-0.61,-0.51,
2.803,-0.44,-0.13,-2.38,0.47,-0.61,-0.51,
2.803,-0.44,-0.13,-2.38,0.46,-0.61,-0.51,
2.804,-0.44,-0.13,-2.38,0.44,-0.60,-0.52,
2.804,-0.35,-0.07,-2.58,0.44,-0.60,-0.52,
2.804,-0.35,-0.07,-2.58,0.42,-0.60,-0.52,
2.804,-0.35,-0.07,-2.58,0.40,-0.60,-0.52,
2.804,-0.35,-0.07,-2.58,0.37,-0.59,-0.53,
2.804,-0.35,-0.07,-2.58,0.36,-0.59,-0.54,
2.805,-0.35,-0.07,-2.58,0.34,-0.58,-0.54,
2.805,-0.25,0.04,-2.59,0.34,-0.58,-0.54,
2.805,-0.25,0.04,-2.59,0.32,-0.57,-0.55,
2.805,-0.25,0.04,-2.59,0.30,-0.56,-0.56,
2.805,-0.25,0.04,-2.59,0.26,-0.55,-0.57,
2.806,-0.25,0.04,-2.59,0.25,-0.54,-0.57,
2.806,-0.25,0.04,-2.59,0.23,-0.53,-0.58,
2.806,-0.21,0.09,-2.38,0.23,-0.53,-0.58,
2.806,-0.21,0.09,-2.38,0.21,-0.52,-0.59,
2.806,-0.21,0.09,-2.38,0.19,-0.51,-0.60,
2.806,-0.21,0.09,-2.38,0.17,-0.49,-0.61,
2.807,-0.21,0.09,-2.38,0.16,-0.48,-0.61,
2.807,-0.21,0.09,-2.38,0.14,-0.47,-0.62,
2.807,-0.28,0.20,-2.02,0.14,-0.47,-0.62,
2.807,-0.28,0.20,-2.02,0.12,-0.46,-0.63,
2.807,-0.28,0.20,-2.02,0.10,-0.45,-0.63,
2.814,-0.28,0.20,-2.02,0.08,-0.43,-0.65,
2.815,-0.28,0.20,-2.02,0.08,-0.43,-0.65,
2.816,-0.28,0.20,-2.02,0.06,-0.42,-0.66,
2.817,-0.35,0.20,-1.52,0.06,-0.42,-0.66,
2.819,-0.35,0.20,-1.52,0.05,-0.41,-0.66,
2.82,-0.35,0.20,-1.52,0.04,-0.40,-0.67,
2.823,-0.35,0.20,-1.52,0.02,-0.39,-0.68,
2.824,-0.35,0.20,-1.52,0.02,-0.38,-0.68,
2.824,-0.35,0.20,-1.52,0.01,-0.37,-0.69,
2.828,-0.40,0.19,-1.04,0.01,-0.37,-0.69,
2.829,-0.40,0.19,-1.04,0.00,-0.36,-0.69,
2.83,-0.40,0.19,-1.04,-0.00,-0.35,-0.70,
2.835,-0.40,0.19,-1.04,-0.01,-0.33,-0.71,
2.836,-0.40,0.19,-1.04,-0.01,-0.32,-0.71,
2.836,-0.40,0.19,-1.04,-0.02,-0.31,-0.72,
2.837,-0.51,0.25,-0.52,-0.02,-0.31,-0.72,
2.837,-0.51,0.25,-0.52,-0.02,-0.29,-0.72,
2.837,-0.51,0.25,-0.52,-0.02,-0.28,-0.72,
2.84,-0.51,0.25,-0.52,-0.02,-0.25,-0.73,
2.873,-0.51,0.25,-0.52,-0.02,-0.24,-0.73,
2.873,-0.51,0.25,-0.52,-0.02,-0.22,-0.73,
2.874,-0.86,0.31,-0.02,-0.02,-0.22,-0.73,
2.874,-0.86,0.31,-0.02,-0.02,-0.21,-0.73,
2.874,-0.86,0.31,-0.02,-0.02,-0.19,-0.73,
2.875,-0.86,0.31,-0.02,-0.02,-0.16,-0.72,
2.875,-0.86,0.31,-0.02,-0.02,-0.15,-0.72,
2.876,-0.86,0.31,-0.02,-0.02,-0.13,-0.72,
2.876,-1.21,0.35,0.23,-0.02,-0.13,-0.72,
2.876,-1.21,0.35,0.23,-0.02,-0.12,-0.71,
2.876,-1.21,0.35,0.23,-0.02,-0.10,-0.71,
2.877,-1.21,0.35,0.23,-0.02,-0.06,-0.70,
2.877,-1.21,0.35,0.23,-0.03,-0.05,-0.69,
2.877,-1.21,0.35,0.23,-0.02,-0.03,-0.68,
2.877,-1.77,0.34,0.36,-0.02,-0.03,-0.68,
2.878,-1.77,0.34,0.36,-0.02,-0.01,-0.66,
2.878,-1.77,0.34,0.36,-0.03,0.01,-0.65,
2.878,-1.77,0.34,0.36,-0.03,0.04,-0.62,
2.878,-1.77,0.34,0.36,-0.02,0.06,-0.61,
2.879,-1.77,0.34,0.36,-0.02,0.08,-0.58,
2.879,-2.31,0.35,0.43,-0.02,0.08,-0.58,
2.879,-2.31,0.35,0.43,-0.02,0.10,-0.56,
2.879,-2.31,0.35,0.43,-0.03,0.12,-0.53,
2.88,-2.31,0.35,0.43,-0.03,0.15,-0.49,
2.886,-2.31,0.35,0.43,-0.03,0.15,-0.47,
2.887,-2.31,0.35,0.43,-0.03,0.17,-0.45,
2.887,-2.79,0.36,0.44,-0.03,0.17,-0.45,
2.887,-2.79,0.36,0.44,-0.04,0.18,-0.42,
2.887,-2.79,0.36,0.44,-0.04,0.19,-0.39,
2.89,-2.79,0.36,0.44,-0.04,0.20,-0.35,
2.891,-2.79,0.36,0.44,-0.04,0.20,-0.33,
2.893,-2.79,0.36,0.44,-0.05,0.20,-0.31,
2.902,-3.01,0.36,0.60,-0.05,0.20,-0.31,
2.902,-3.01,0.36,0.60,-0.05,0.20,-0.28,
2.904,-3.01,0.36,0.60,-0.05,0.20,-0.24,
2.904,-3.01,0.36,0.60,-0.04,0.19,-0.20,
2.904,-3.01,0.36,0.60,-0.04,0.18,-0.17,
2.904,-3.01,0.36,0.60,-0.04,0.17,-0.16,
2.905,-3.20,0.43,0.93,-0.04,0.17,-0.16,
2.906,-3.20,0.43,0.93,-0.03,0.16,-0.13,
2.906,-3.20,0.43,0.93,-0.03,0.15,-0.10,
2.91,-3.20,0.43,0.93,-0.02,0.12,-0.06,
2.916,-3.20,0.43,0.93,-0.01,0.11,-0.05,
2.916,-3.20,0.43,0.93,-0.01,0.09,-0.03,
2.917,-3.06,0.51,1.26,-0.01,0.09,-0.03,
2.917,-3.06,0.51,1.26,0.00,0.08,-0.01,
2.917,-3.06,0.51,1.26,0.01,0.06,0.02,
2.92,-3.06,0.51,1.26,0.02,0.03,0.05,
2.921,-3.06,0.51,1.26,0.03,0.02,0.06,
2.923,-3.06,0.51,1.26,0.03,-0.00,0.08,
2.953,-2.89,0.60,1.61,0.03,-0.00,0.08,
2.954,-2.89,0.60,1.61,0.04,-0.02,0.09,
2.954,-2.89,0.60,1.61,0.05,-0.04,0.11,
2.954,-2.89,0.60,1.61,0.06,-0.06,0.13,
2.954,-2.89,0.60,1.61,0.06,-0.07,0.14,
2.954,-2.89,0.60,1.61,0.07,-0.08,0.15,
2.955,-2.53,0.69,1.91,0.07,-0.08,0.15,
2.955,-2.53,0.69,1.91,0.07,-0.10,0.16,
2.955,-2.53,0.69,1.91,0.07,-0.11,0.17,
2.955,-2.53,0.69,1.91,0.08,-0.11,0.19,
2.955,-2.53,0.69,1.91,0.08,-0.11,0.20,
2.956,-2.53,0.69,1.91,0.09,-0.11,0.21,
2.956,-2.26,0.80,2.17,0.09,-0.11,0.21,
2.956,-2.26,0.80,2.17,0.09,-0.11,0.22,
2.956,-2.26,0.80,2.17,0.09,-0.10,0.22,
2.956,-2.26,0.80,2.17,0.10,-0.08,0.23,
2.956,-2.26,0.80,2.17,0.10,-0.07,0.24,
2.957,-2.26,0.80,2.17,0.10,-0.05,0.24,
2.957,-1.90,0.90,2.35,0.10,-0.05,0.24,
2.957,-1.90,0.90,2.35,0.10,-0.02,0.25,
2.957,-1.90,0.90,2.35,0.11,0.00,0.25,
2.96,-1.90,0.90,2.35,0.10,0.04,0.25,
2.963,-1.90,0.90,2.35,0.10,0.06,0.25,
2.964,-1.90,0.90,2.35,0.10,0.08,0.25,
2.966,-1.64,0.92,2.31,0.10,0.08,0.25,
2.966,-1.64,0.92,2.31,0.09,0.11,0.25,
2.967,-1.64,0.92,2.31,0.08,0.13,0.25,
2.971,-1.64,0.92,2.31,0.06,0.16,0.25,
2.972,-1.64,0.92,2.31,0.05,0.17,0.25,
2.973,-1.64,0.92,2.31,0.03,0.18,0.25,
2.976,-1.31,0.91,1.95,0.03,0.18,0.25,
2.976,-1.31,0.91,1.95,0.01,0.19,0.25,
2.978,-1.31,0.91,1.95,-0.02,0.20,0.24,
2.98,-1.31,0.91,1.95,-0.06,0.21,0.23,
2.981,-1.31,0.91,1.95,-0.07,0.22,0.22,
2.983,-1.31,0.91,1.95,-0.11,0.22,0.21,
2.986,-1.05,1.04,1.62,-0.11,0.22,0.21,
2.986,-1.05,1.04,1.62,-0.14,0.23,0.20,
2.987,-1.05,1.04,1.62,-0.17,0.24,0.19,
2.99,-1.05,1.04,1.62,-0.22,0.24,0.17,
2.991,-1.05,1.04,1.62,-0.24,0.24,0.16,
2.994,-1.05,1.04,1.62,-0.27,0.24,0.15,
2.997,-0.92,1.19,1.56,-0.27,0.24,0.15,
2.997,-0.92,1.19,1.56,-0.31,0.24,0.13,
2.998,-0.92,1.19,1.56,-0.34,0.23,0.11,
3.0,-0.92,1.19,1.56,-0.39,0.21,0.08,
3.001,-0.92,1.19,1.56,-0.41,0.20,0.07,
3.003,-0.92,1.19,1.56,-0.44,0.19,0.05,
3.006,-0.87,1.18,1.82,-0.44,0.19,0.05,
3.006,-0.87,1.18,1.82,-0.47,0.17,0.03,
3.028,-0.87,1.18,1.82,-0.49,0.16,0.01,
3.028,-0.87,1.18,1.82,-0.53,0.14,-0.01,
3.028,-0.87,1.18,1.82,-0.54,0.14,-0.02,
3.028,-0.87,1.18,1.82,-0.55,0.13,-0.03,
3.029,-1.00,1.00,2.44,-0.55,0.13,-0.03,
3.029,-1.00,1.00,2.44,-0.57,0.13,-0.04,
3.029,-1.00,1.00,2.44,-0.58,0.13,-0.05,
3.029,-1.00,1.00,2.44,-0.59,0.13,-0.07,
3.029,-1.00,1.00,2.44,-0.59,0.14,-0.07,
3.029,-1.00,1.00,2.44,-0.59,0.15,-0.07,
3.03,-1.36,0.66,3.18,-0.59,0.15,-0.07,
3.03,-1.36,0.66,3.18,-0.59,0.16,-0.07,
3.03,-1.36,0.66,3.18,-0.59,0.17,-0.07,
3.035,-1.36,0.66,3.18,-0.57,0.19,-0.07,
3.035,-1.36,0.66,3.18,-0.57,0.19,-0.06,
3.035,-1.36,0.66,3.18,-0.56,0.20,-0.06,
3.036,-1.89,0.34,3.81,-0.56,0.20,-0.06,
3.036,-1.89,0.34,3.81,-0.54,0.22,-0.05,
3.037,-1.89,0.34,3.81,-0.52,0.23,-0.03,
3.04,-1.89,0.34,3.81,-0.49,0.26,-0.01,
3.041,-1.89,0.34,3.81,-0.48,0.27,-0.00,
3.049,-1.89,0.34,3.81,-0.46,0.28,0.02,
3.05,-2.53,0.02,4.25,-0.46,0.28,0.02,
3.05,-2.53,0.02,4.25,-0.43,0.30,0.04,
3.05,-2.53,0.02,4.25,-0.40,0.32,0.06,
3.05,-2.53,0.02,4.25,-0.35,0.35,0.11,
3.051,-2.53,0.02,4.25,-0.34,0.36,0.12,
3.055,-2.53,0.02,4.25,-0.31,0.38,0.15,
3.058,-2.99,-0.18,4.40,-0.31,0.38,0.15,
3.059,-2.99,-0.18,4.40,-0.27,0.40,0.18,
3.078,-2.99,-0.18,4.40,-0.24,0.43,0.22,
3.079,-2.99,-0.18,4.40,-0.20,0.46,0.28,
3.079,-2.99,-0.18,4.40,-0.18,0.47,0.29,
3.079,-2.99,-0.18,4.40,-0.16,0.49,0.33,
3.079,-3.28,-0.35,4.05,-0.16,0.49,0.33,
3.08,-3.28,-0.35,4.05,-0.13,0.50,0.37,
3.08,-3.28,-0.35,4.05,-0.12,0.51,0.41,
3.08,-3.28,-0.35,4.05,-0.09,0.52,0.47,
3.08,-3.28,-0.35,4.05,-0.09,0.52,0.49,
3.08,-3.28,-0.35,4.05,-0.08,0.51,0.53,
3.08,-3.07,-0.29,3.28,-0.08,0.51,0.53,
3.081,-3.07,-0.29,3.28,-0.07,0.50,0.57,
3.081,-3.07,-0.29,3.28,-0.07,0.49,0.60,
3.081,-3.07,-0.29,3.28,-0.08,0.45,0.65,
3.081,-3.07,-0.29,3.28,-0.08,0.44,0.66,
3.083,-3.07,-0.29,3.28,-0.08,0.41,0.69,
3.085,-2.53,-0.12,2.53,-0.08,0.41,0.69,
3.085,-2.53,-0.12,2.53,-0.09,0.38,0.71,
3.087,-2.53,-0.12,2.53,-0.10,0.34,0.73,
3.09,-2.53,-0.12,2.53,-0.12,0.28,0.75,
3.091,-2.53,-0.12,2.53,-0.13,0.26,0.75,
3.094,-2.53,-0.12,2.53,-0.14,0.21,0.76,
3.096,-1.58,0.17,2.13,-0.14,0.21,0.76,
3.097,-1.58,0.17,2.13,-0.15,0.17,0.77,
3.097,-1.58,0.17,2.13,-0.16,0.12,0.77,
3.1,-1.58,0.17,2.13,-0.18,0.05,0.76,
3.101,-1.58,0.17,2.13,-0.18,0.03,0.75,
3.103,-1.58,0.17,2.13,-0.19,-0.02,0.75,
3.105,-0.64,0.35,2.11,-0.19,-0.02,0.75,
3.105,-0.64,0.35,2.11,-0.19,-0.06,0.73,
3.107,-0.64,0.35,2.11,-0.20,-0.09,0.72,
3.11,-0.64,0.35,2.11,-0.20,-0.14,0.70,
3.112,-0.64,0.35,2.11,-0.20,-0.15,0.69,
3.113,-0.64,0.35,2.11,-0.20,-0.17,0.67,
3.116,0.05,0.49,2.15,-0.20,-0.17,0.67,
3.116,0.05,0.49,2.15,-0.20,-0.19,0.66,
3.118,0.05,0.49,2.15,-0.21,-0.20,0.64,
3.12,0.05,0.49,2.15,-0.21,-0.21,0.61,
3.121,0.05,0.49,2.15,-0.21,-0.21,0.60,
3.123,0.05,0.49,2.15,-0.21,-0.21,0.58,
3.128,0.60,0.46,1.92,-0.21,-0.21,0.58,
3.128,0.60,0.46,1.92,-0.22,-0.21,0.56,
3.129,0.60,0.46,1.92,-0.22,-0.20,0.54,
3.131,0.60,0.46,1.92,-0.24,-0.19,0.51,
3.132,0.60,0.46,1.92,-0.24,-0.18,0.50,
3.138,0.60,0.46,1.92,-0.24,-0.17,0.48,
3.138,0.79,0.36,1.50,-0.24,-0.17,0.48,
3.139,0.79,0.36,1.50,-0.25,-0.14,0.47,
3.139,0.79,0.36,1.50,-0.26,-0.12,0.45,
3.14,0.79,0.36,1.50,-0.27,-0.08,0.42,
3.142,0.79,0.36,1.50,-0.27,-0.07,0.42,
3.158,0.79,0.36,1.50,-0.30,0.03,0.38,
3.159,0.79,0.36,1.50,-0.30,0.03,0.38,
3.16,0.79,0.36,1.50,-0.30,0.03,0.38,
3.161,0.90,0.18,0.71,-0.30,0.03,0.38,
3.162,0.90,0.18,0.71,-0.32,0.10,0.35,
3.163,0.90,0.18,0.71,-0.33,0.12,0.35,
3.163,0.90,0.18,0.71,-0.33,0.14,0.34,
3.164,0.88,0.09,0.34,-0.33,0.14,0.34,
3.165,0.88,0.09,0.34,-0.34,0.18,0.33,
3.165,0.88,0.09,0.34,-0.35,0.22,0.32,
3.166,0.88,0.09,0.34,-0.37,0.27,0.31,
3.166,0.88,0.09,0.34,-0.37,0.29,0.31,
3.166,0.88,0.09,0.34,-0.38,0.33,0.30,
3.171,0.84,-0.06,-0.25,-0.38,0.33,0.30,
3.173,0.84,-0.06,-0.25,-0.39,0.36,0.30,
3.176,0.84,-0.06,-0.25,-0.40,0.40,0.29,
3.176,0.84,-0.06,-0.25,-0.41,0.45,0.29,
3.177,0.84,-0.06,-0.25,-0.41,0.46,0.29,
3.177,0.84,-0.06,-0.25,-0.41,0.50,0.29,
3.199,0.71,-0.18,-0.75,-0.41,0.50,0.29,
3.2,0.71,-0.18,-0.75,-0.41,0.52,0.29,
3.2,0.71,-0.18,-0.75,-0.41,0.55,0.29,
3.2,0.71,-0.18,-0.75,-0.41,0.59,0.29,
3.201,0.71,-0.18,-0.75,-0.41,0.60,0.29,
3.201,0.71,-0.18,-0.75,-0.41,0.62,0.30,
3.201,0.59,-0.31,-1.15,-0.41,0.62,0.30,
3.201,0.59,-0.31,-1.15,-0.40,0.63,0.30,
3.202,0.59,-0.31,-1.15,-0.40,0.65,0.31,
3.202,0.59,-0.31,-1.15,-0.38,0.67,0.32,
3.202,0.59,-0.31,-1.15,-0.38,0.67,0.32,
3.202,0.59,-0.31,-1.15,-0.36,0.68,0.33,
3.203,0.45,-0.39,-1.52,-0.36,0.68,0.33,
3.203,0.45,-0.39,-1.52,-0.36,0.68,0.34,
3.203,0.45,-0.39,-1.52,-0.34,0.68,0.34,
3.203,0.45,-0.39,-1.52,-0.32,0.68,0.36,
3.204,0.45,-0.39,-1.52,-0.31,0.68,0.37,
3.204,0.45,-0.39,-1.52,-0.30,0.67,0.38,
3.206,0.32,-0.39,-1.80,-0.30,0.67,0.38,
3.207,0.32,-0.39,-1.80,-0.28,0.66,0.39,
3.211,0.32,-0.39,-1.80,-0.26,0.65,0.40,
3.212,0.32,-0.39,-1.80,-0.23,0.63,0.42,
3.212,0.32,-0.39,-1.80,-0.22,0.62,0.43,
3.214,0.32,-0.39,-1.80,-0.20,0.61,0.44,
3.216,0.20,-0.43,-1.99,-0.20,0.61,0.44,
3.216,0.20,-0.43,-1.99,-0.17,0.58,0.45,
3.217,0.20,-0.43,-1.99,-0.15,0.56,0.47,
3.22,0.20,-0.43,-1.99,-0.11,0.53,0.49,
3.221,0.20,-0.43,-1.99,-0.10,0.52,0.49,
3.223,0.20,-0.43,-1.99,-0.07,0.49,0.50,
3.226,0.14,-0.51,-2.17,-0.07,0.49,0.50,
3.226,0.14,-0.51,-2.17,-0.05,0.47,0.52,
3.227,0.14,-0.51,-2.17,-0.02,0.44,0.53,
3.23,0.14,-0.51,-2.17,0.03,0.40,0.55,
3.231,0.14,-0.51,-2.17,0.04,0.38,0.56,
3.233,0.14,-0.51,-2.17,0.07,0.35,0.57,
3.237,0.07,-0.61,-2.31,0.07,0.35,0.57,
3.237,0.07,-0.61,-2.31,0.10,0.32,0.58,
3.237,0.07,-0.61,-2.31,0.13,0.29,0.60,
3.24,0.07,-0.61,-2.31,0.18,0.25,0.62,
3.243,0.07,-0.61,-2.31,0.19,0.23,0.63,
3.243,0.07,-0.61,-2.31,0.22,0.20,0.64,
3.245,-0.07,-0.67,-2.44,0.22,0.20,0.64,
3.246,-0.07,-0.67,-2.44,0.25,0.17,0.66,
3.247,-0.07,-0.67,-2.44,0.28,0.14,0.67,
3.25,-0.07,-0.67,-2.44,0.33,0.10,0.70,
3.251,-0.07,-0.67,-2.44,0.34,0.08,0.70,
3.254,-0.07,-0.67,-2.44,0.37,0.05,0.72,
3.256,-0.21,-0.80,-2.57,0.37,0.05,0.72,
3.256,-0.21,-0.80,-2.57,0.40,0.03,0.74,
3.257,-0.21,-0.80,-2.57,0.42,0.00,0.76,
3.262,-0.21,-0.80,-2.57,0.46,-0.04,0.78,
3.262,-0.21,-0.80,-2.57,0.47,-0.05,0.79,
3.263,-0.21,-0.80,-2.57,0.50,-0.07,0.82,
3.266,-0.41,-0.94,-2.58,0.50,-0.07,0.82,
3.266,-0.41,-0.94,-2.58,0.52,-0.10,0.83,
3.267,-0.41,-0.94,-2.58,0.55,-0.11,0.85,
3.271,-0.41,-0.94,-2.58,0.59,-0.13,0.88,
3.272,-0.41,-0.94,-2.58,0.60,-0.14,0.89,
3.274,-0.41,-0.94,-2.58,0.62,-0.15,0.91,
3.282,-0.67,-1.03,-2.35,0.62,-0.15,0.91,
3.283,-0.67,-1.03,-2.35,0.65,-0.16,0.93,
3.286,-0.67,-1.03,-2.35,0.67,-0.18,0.95,
3.286,-0.67,-1.03,-2.35,0.71,-0.19,0.98,
3.287,-0.67,-1.03,-2.35,0.73,-0.19,0.99,
3.287,-0.67,-1.03,-2.35,0.75,-0.19,1.01,
3.287,-0.92,-1.12,-1.96,0.75,-0.19,1.01,
3.287,-0.92,-1.12,-1.96,0.78,-0.19,1.03,
3.287,-0.92,-1.12,-1.96,0.81,-0.18,1.06,
3.311,-0.92,-1.12,-1.96,0.84,-0.15,1.09,
3.312,-0.92,-1.12,-1.96,0.86,-0.14,1.10,
3.312,-0.92,-1.12,-1.96,0.88,-0.11,1.13,
3.312,-0.85,-1.38,-1.85,0.88,-0.11,1.13,
3.312,-0.85,-1.38,-1.85,0.90,-0.07,1.15,
3.313,-0.85,-1.38,-1.85,0.92,-0.03,1.18,
3.313,-0.85,-1.38,-1.85,0.94,0.03,1.22,
3.313,-0.85,-1.38,-1.85,0.95,0.05,1.23,
3.313,-0.85,-1.38,-1.85,0.96,0.09,1.26,
3.313,-0.65,-1.65,-2.08,0.96,0.09,1.26,
3.314,-0.65,-1.65,-2.08,0.96,0.14,1.28,
3.314,-0.65,-1.65,-2.08,0.96,0.19,1.31,
3.314,-0.65,-1.65,-2.08,0.97,0.26,1.34,
3.314,-0.65,-1.65,-2.08,0.97,0.28,1.36,
3.314,-0.65,-1.65,-2.08,0.96,0.32,1.38,
3.317,-0.38,-1.72,-2.51,0.96,0.32,1.38,
3.317,-0.38,-1.72,-2.51,0.95,0.37,1.41,
3.317,-0.38,-1.72,-2.51,0.94,0.41,1.43,
3.319,-0.38,-1.72,-2.51,0.92,0.47,1.46,
3.32,-0.38,-1.72,-2.51,0.91,0.49,1.47,
3.322,-0.38,-1.72,-2.51,0.89,0.53,1.49,
3.326,-0.21,-1.66,-2.83,0.89,0.53,1.49,
3.326,-0.21,-1.66,-2.83,0.87,0.56,1.51,
3.327,-0.21,-1.66,-2.83,0.85,0.60,1.52,
3.33,-0.21,-1.66,-2.83,0.82,0.63,1.55,
3.331,-0.21,-1.66,-2.83,0.81,0.64,1.55,
3.333,-0.21,-1.66,-2.83,0.79,0.66,1.56,
3.335,0.10,-1.54,-3.00,0.79,0.66,1.56,
3.337,0.10,-1.54,-3.00,0.77,0.67,1.57,
3.338,0.10,-1.54,-3.00,0.75,0.69,1.57,
3.34,0.10,-1.54,-3.00,0.72,0.70,1.57,
3.367,0.10,-1.54,-3.00,0.72,0.70,1.57,
3.368,0.10,-1.54,-3.00,0.69,0.70,1.57,
3.368,0.56,-1.40,-2.92,0.69,0.70,1.57,
3.368,0.56,-1.40,-2.92,0.68,0.70,1.56,
3.368,0.56,-1.40,-2.92,0.66,0.69,1.55,
3.368,0.56,-1.40,-2.92,0.64,0.66,1.53,
3.369,0.56,-1.40,-2.92,0.63,0.65,1.52,
3.369,0.56,-1.40,-2.92,0.62,0.63,1.51,
3.369,0.94,-1.14,-2.53,0.62,0.63,1.51,
3.369,0.94,-1.14,-2.53,0.61,0.61,1.48,
3.369,0.94,-1.14,-2.53,0.60,0.58,1.46,
3.37,0.94,-1.14,-2.53,0.59,0.55,1.42,
3.37,0.94,-1.14,-2.53,0.59,0.53,1.41,
3.37,0.94,-1.14,-2.53,0.59,0.51,1.38,
3.37,1.21,-0.81,-2.01,0.59,0.51,1.38,
3.37,1.21,-0.81,-2.01,0.58,0.48,1.34,
3.37,1.21,-0.81,-2.01,0.58,0.45,1.31,
3.371,1.21,-0.81,-2.01,0.58,0.40,1.26,
3.371,1.21,-0.81,-2.01,0.58,0.39,1.25,
3.376,1.21,-0.81,-2.01,0.58,0.36,1.21,
3.376,1.23,-0.58,-1.51,0.58,0.36,1.21,
3.376,1.23,-0.58,-1.51,0.58,0.32,1.17,
3.377,1.23,-0.58,-1.51,0.58,0.29,1.14,
3.38,1.23,-0.58,-1.51,0.58,0.24,1.08,
3.381,1.23,-0.58,-1.51,0.58,0.22,1.06,
3.383,1.23,-0.58,-1.51,0.58,0.19,1.03,
3.385,1.01,-0.48,-1.11,0.58,0.19,1.03,
3.385,1.01,-0.48,-1.11,0.58,0.15,0.99,
3.386,1.01,-0.48,-1.11,0.58,0.12,0.96,
3.39,1.01,-0.48,-1.11,0.59,0.08,0.91,
3.391,1.01,-0.48,-1.11,0.59,0.07,0.89,
3.393,1.01,-0.48,-1.11,0.59,0.04,0.87,
3.395,0.62,-0.46,-0.73,0.59,0.04,0.87,
3.397,0.62,-0.46,-0.73,0.59,0.02,0.84,
3.397,0.62,-0.46,-0.73,0.59,-0.01,0.82,
3.4,0.62,-0.46,-0.73,0.59,-0.04,0.79,
3.401,0.62,-0.46,-0.73,0.59,-0.05,0.78,
3.403,0.62,-0.46,-0.73,0.58,-0.07,0.76,
3.409,0.29,-0.54,-0.49,0.58,-0.07,0.76,
3.416,0.29,-0.54,-0.49,0.58,-0.08,0.75,
3.417,0.29,-0.54,-0.49,0.57,-0.10,0.73,
3.418,0.29,-0.54,-0.49,0.56,-0.13,0.71,
3.418,0.29,-0.54,-0.49,0.54,-0.14,0.70,
3.418,0.29,-0.54,-0.49,0.54,-0.14,0.69,
3.418,0.07,-0.59,-0.24,0.54,-0.14,0.69,
3.418,0.07,-0.59,-0.24,0.53,-0.16,0.68,
3.418,0.07,-0.59,-0.24,0.51,-0.16,0.67,
3.42,0.07,-0.59,-0.24,0.49,-0.17,0.65,
3.42,0.07,-0.59,-0.24,0.48,-0.17,0.65,
3.423,0.07,-0.59,-0.24,0.47,-0.17,0.63,
3.436,0.04,-0.71,0.03,0.47,-0.17,0.63,
3.437,0.04,-0.71,0.03,0.45,-0.17,0.62,
3.437,0.04,-0.71,0.03,0.43,-0.17,0.61,
3.438,0.04,-0.71,0.03,0.40,-0.17,0.60,
3.438,0.04,-0.71,0.03,0.39,-0.16,0.59,
3.438,0.04,-0.71,0.03,0.37,-0.16,0.58,
3.44,0.12,-0.74,0.24,0.37,-0.16,0.58,
3.44,0.12,-0.74,0.24,0.34,-0.16,0.57,
3.44,0.12,-0.74,0.24,0.32,-0.16,0.56,
3.441,0.12,-0.74,0.24,0.28,-0.15,0.54,
3.441,0.12,-0.74,0.24,0.27,-0.15,0.53,
3.464,0.12,-0.74,0.24,0.24,-0.14,0.52,
3.465,0.29,-0.70,0.49,0.24,-0.14,0.52,
3.465,0.29,-0.70,0.49,0.21,-0.13,0.51,
3.466,0.29,-0.70,0.49,0.18,-0.12,0.49,
3.466,0.29,-0.70,0.49,0.14,-0.10,0.47,
3.466,0.29,-0.70,0.49,0.13,-0.09,0.46,
3.467,0.29,-0.70,0.49,0.10,-0.08,0.45,
3.467,0.48,-0.66,0.66,0.10,-0.08,0.45,
3.467,0.48,-0.66,0.66,0.07,-0.06,0.43,
3.468,0.48,-0.66,0.66,0.03,-0.04,0.41,
3.468,0.48,-0.66,0.66,-0.01,-0.01,0.38,
3.468,0.48,-0.66,0.66,-0.03,-0.00,0.37,
3.469,0.48,-0.66,0.66,-0.07,0.01,0.35,
3.469,0.71,-0.53,0.77,-0.07,0.01,0.35,
3.469,0.71,-0.53,0.77,-0.10,0.03,0.33,
3.469,0.71,-0.53,0.77,-0.14,0.05,0.31,
3.47,0.71,-0.53,0.77,-0.19,0.07,0.27,
3.471,0.71,-0.53,0.77,-0.21,0.08,0.26,
3.473,0.71,-0.53,0.77,-0.24,0.09,0.23,
3.476,0.86,-0.30,0.98,-0.24,0.09,0.23,
3.477,0.86,-0.30,0.98,-0.28,0.10,0.20,
3.477,0.86,-0.30,0.98,-0.31,0.11,0.17,
3.48,0.86,-0.30,0.98,-0.36,0.13,0.13,
3.481,0.86,-0.30,0.98,-0.38,0.13,0.12,
3.483,0.86,-0.30,0.98,-0.41,0.14,0.08,
3.485,0.96,-0.09,1.39,-0.41,0.14,0.08,
3.486,0.96,-0.09,1.39,-0.43,0.16,0.05,
3.487,0.96,-0.09,1.39,-0.46,0.17,0.02,
3.49,0.96,-0.09,1.39,-0.49,0.20,-0.02,
3.494,0.96,-0.09,1.39,-0.50,0.21,-0.03,
3.495,0.96,-0.09,1.39,-0.52,0.22,-0.06,
3.495,0.85,0.14,1.87,-0.52,0.22,-0.06,
3.495,0.85,0.14,1.87,-0.53,0.24,-0.08,
3.498,0.85,0.14,1.87,-0.55,0.26,-0.11,
3.5,0.85,0.14,1.87,-0.57,0.28,-0.14,
3.501,0.85,0.14,1.87,-0.58,0.29,-0.15,
3.504,0.85,0.14,1.87,-0.59,0.31,-0.17,
3.505,0.80,0.18,2.15,-0.59,0.31,-0.17,
3.506,0.80,0.18,2.15,-0.61,0.32,-0.19,
3.534,0.80,0.18,2.15,-0.62,0.34,-0.21,
3.534,0.80,0.18,2.15,-0.65,0.37,-0.24,
3.535,0.80,0.18,2.15,-0.66,0.37,-0.24,
3.535,0.80,0.18,2.15,-0.68,0.39,-0.26,
3.535,0.89,0.15,2.21,-0.68,0.39,-0.26,
3.536,0.89,0.15,2.21,-0.69,0.41,-0.28,
3.536,0.89,0.15,2.21,-0.71,0.42,-0.29,
3.536,0.89,0.15,2.21,-0.74,0.44,-0.32,
3.536,0.89,0.15,2.21,-0.75,0.44,-0.33,
3.537,0.89,0.15,2.21,-0.77,0.45,-0.35,
3.537,1.06,0.29,2.22,-0.77,0.45,-0.35,
3.537,1.06,0.29,2.22,-0.79,0.45,-0.37,
3.538,1.06,0.29,2.22,-0.81,0.44,-0.40,
3.538,1.06,0.29,2.22,-0.84,0.43,-0.43,
3.538,1.06,0.29,2.22,-0.84,0.43,-0.44,
3.538,1.06,0.29,2.22,-0.86,0.41,-0.47,
3.539,1.07,0.51,2.49,-0.86,0.41,-0.47,
3.539,1.07,0.51,2.49,-0.87,0.40,-0.49,
3.539,1.07,0.51,2.49,-0.87,0.38,-0.51,
3.539,1.07,0.51,2.49,-0.88,0.35,-0.55,
3.548,1.07,0.51,2.49,-0.88,0.34,-0.56,
3.549,1.07,0.51,2.49,-0.87,0.32,-0.59,
3.549,1.00,0.62,3.08,-0.87,0.32,-0.59,
3.549,1.00,0.62,3.08,-0.87,0.32,-0.61,
3.549,1.00,0.62,3.08,-0.85,0.31,-0.62,
3.55,1.00,0.62,3.08,-0.83,0.29,-0.65,
3.551,1.00,0.62,3.08,-0.82,0.29,-0.66,
3.555,1.00,0.62,3.08,-0.80,0.28,-0.67,
3.556,0.79,0.61,3.60,-0.80,0.28,-0.67,
3.556,0.79,0.61,3.60,-0.78,0.27,-0.68,
3.561,0.79,0.61,3.60,-0.75,0.27,-0.69,
3.561,0.79,0.61,3.60,-0.72,0.25,-0.71,
3.561,0.79,0.61,3.60,-0.70,0.24,-0.71,
3.565,0.79,0.61,3.60,-0.68,0.22,-0.72,
3.566,0.51,0.39,3.93,-0.68,0.22,-0.72,
3.566,0.51,0.39,3.93,-0.65,0.20,-0.72,
3.57,0.51,0.39,3.93,-0.62,0.18,-0.72,
3.57,0.51,0.39,3.93,-0.57,0.15,-0.71,
3.571,0.51,0.39,3.93,-0.55,0.14,-0.71,
3.575,0.51,0.39,3.93,-0.51,0.12,-0.70,
3.575,0.20,0.23,4.15,-0.51,0.12,-0.70,
3.576,0.20,0.23,4.15,-0.48,0.10,-0.69,
3.586,0.20,0.23,4.15,-0.44,0.07,-0.67,
3.587,0.20,0.23,4.15,-0.37,0.04,-0.65,
3.587,0.20,0.23,4.15,-0.35,0.03,-0.64,
3.587,0.20,0.23,4.15,-0.31,0.00,-0.63,
3.587,0.02,0.05,4.15,-0.31,0.00,-0.63,
3.588,0.02,0.05,4.15,-0.27,-0.02,-0.61,
3.588,0.02,0.05,4.15,-0.23,-0.05,-0.58,
3.62,0.02,0.05,4.15,-0.16,-0.09,-0.55,
3.621,0.02,0.05,4.15,-0.14,-0.10,-0.54,
3.621,0.02,0.05,4.15,-0.10,-0.13,-0.52,
3.621,0.01,-0.09,3.89,-0.10,-0.13,-0.52,
3.621,0.01,-0.09,3.89,-0.06,-0.16,-0.50,
3.622,0.01,-0.09,3.89,-0.02,-0.19,-0.48,
3.622,0.01,-0.09,3.89,0.04,-0.23,-0.45,
3.622,0.01,-0.09,3.89,0.06,-0.24,-0.44,
3.622,0.01,-0.09,3.89,0.09,-0.27,-0.42,
3.622,0.17,-0.14,3.20,0.09,-0.27,-0.42,
3.623,0.17,-0.14,3.20,0.12,-0.29,-0.39,
3.623,0.17,-0.14,3.20,0.15,-0.32,-0.38,
3.623,0.17,-0.14,3.20,0.18,-0.35,-0.35,
3.623,0.17,-0.14,3.20,0.18,-0.36,-0.35,
3.623,0.17,-0.14,3.20,0.19,-0.39,-0.33,
3.624,0.62,-0.14,2.11,0.19,-0.39,-0.33,
3.624,0.62,-0.14,2.11,0.20,-0.41,-0.32,
3.624,0.62,-0.14,2.11,0.20,-0.42,-0.32,
3.624,0.62,-0.14,2.11,0.19,-0.45,-0.31,
3.624,0.62,-0.14,2.11,0.19,-0.46,-0.31,
3.625,0.62,-0.14,2.11,0.18,-0.47,-0.31,
3.633,1.28,-0.13,0.89,0.18,-0.47,-0.31,
3.633,1.28,-0.13,0.89,0.16,-0.49,-0.31,
3.634,1.28,-0.13,0.89,0.13,-0.50,-0.32,
3.634,1.28,-0.13,0.89,0.09,-0.52,-0.33,
3.634,1.28,-0.13,0.89,0.08,-0.53,-0.33,
3.634,1.28,-0.13,0.89,0.04,-0.54,-0.34,
3.636,1.83,-0.13,-0.28,0.04,-0.54,-0.34,
3.637,1.83,-0.13,-0.28,0.00,-0.55,-0.35,
3.637,1.83,-0.13,-0.28,-0.04,-0.56,-0.37,
3.646,1.83,-0.13,-0.28,-0.11,-0.58,-0.39,
3.649,1.83,-0.13,-0.28,-0.13,-0.59,-0.41,
3.65,1.83,-0.13,-0.28,-0.18,-0.60,-0.43,
3.651,1.83,-0.13,-0.28,-0.23,-0.62,-0.44,
3.652,2.35,-0.11,-1.16,-0.23,-0.62,-0.44,
3.652,2.35,-0.11,-1.16,-0.31,-0.64,-0.48,
3.652,2.35,-0.11,-1.16,-0.37,-0.66,-0.50,
3.653,2.35,-0.11,-1.16,-0.39,-0.66,-0.51,
3.658,2.35,-0.11,-1.16,-0.44,-0.68,-0.53,
3.658,2.45,-0.16,-1.65,-0.44,-0.68,-0.53,
3.659,2.45,-0.16,-1.65,-0.50,-0.70,-0.55,
3.659,2.45,-0.16,-1.65,-0.55,-0.71,-0.58,
3.663,2.45,-0.16,-1.65,-0.62,-0.73,-0.61,
3.664,2.45,-0.16,-1.65,-0.64,-0.74,-0.62,
3.664,2.45,-0.16,-1.65,-0.69,-0.75,-0.64,
3.666,2.43,-0.29,-1.63,-0.69,-0.75,-0.64,
3.666,2.43,-0.29,-1.63,-0.72,-0.76,-0.66,
3.667,2.43,-0.29,-1.63,-0.76,-0.77,-0.67,
3.671,2.43,-0.29,-1.63,-0.81,-0.78,-0.69,
3.672,2.43,-0.29,-1.63,-0.83,-0.78,-0.70,
3.674,2.43,-0.29,-1.63,-0.85,-0.79,-0.71,
3.7,2.11,-0.49,-1.25,-0.85,-0.79,-0.71,
3.7,2.11,-0.49,-1.25,-0.87,-0.78,-0.72,
3.701,2.11,-0.49,-1.25,-0.89,-0.78,-0.73,
3.701,2.11,-0.49,-1.25,-0.91,-0.77,-0.73,
3.701,2.11,-0.49,-1.25,-0.91,-0.77,-0.73,
3.702,2.11,-0.49,-1.25,-0.92,-0.75,-0.74,
3.702,1.78,-0.68,-0.77,-0.92,-0.75,-0.74,
3.702,1.78,-0.68,-0.77,-0.92,-0.73,-0.73,
3.702,1.78,-0.68,-0.77,-0.92,-0.72,-0.73,
3.703,1.78,-0.68,-0.77,-0.91,-0.69,-0.73,
3.703,1.78,-0.68,-0.77,-0.90,-0.67,-0.72,
3.703,1.78,-0.68,-0.77,-0.89,-0.64,-0.71,
3.703,1.41,-0.76,-0.44,-0.89,-0.64,-0.71,
3.704,1.41,-0.76,-0.44,-0.87,-0.62,-0.71,
3.704,1.41,-0.76,-0.44,-0.87,-0.60,-0.70,
3.704,1.41,-0.76,-0.44,-0.84,-0.57,-0.69,
3.704,1.41,-0.76,-0.44,-0.82,-0.54,-0.69,
3.704,1.41,-0.76,-0.44,-0.80,-0.52,-0.68,
3.707,1.15,-0.75,-0.28,-0.80,-0.52,-0.68,
3.707,1.15,-0.75,-0.28,-0.78,-0.50,-0.67,
3.707,1.15,-0.75,-0.28,-0.77,-0.48,-0.67,
3.715,1.15,-0.75,-0.28,-0.74,-0.45,-0.66,
3.716,1.15,-0.75,-0.28,-0.71,-0.43,-0.65,
3.716,1.15,-0.75,-0.28,-0.68,-0.41,-0.64,
3.716,0.85,-0.71,-0.23,-0.68,-0.41,-0.64,
3.716,0.85,-0.71,-0.23,-0.65,-0.38,-0.63,
3.717,0.85,-0.71,-0.23,-0.63,-0.36,-0.62,
3.721,0.85,-0.71,-0.23,-0.60,-0.34,-0.61,
3.725,0.85,-0.71,-0.23,-0.56,-0.32,-0.60,
3.726,0.85,-0.71,-0.23,-0.53,-0.30,-0.59,
3.726,0.53,-0.66,-0.24,-0.53,-0.30,-0.59,
3.726,0.53,-0.66,-0.24,-0.50,-0.29,-0.57,
3.747,0.53,-0.66,-0.24,-0.46,-0.27,-0.56,
3.748,0.53,-0.66,-0.24,-0.43,-0.26,-0.54,
3.748,0.53,-0.66,-0.24,-0.39,-0.24,-0.52,
3.749,0.53,-0.66,-0.24,-0.35,-0.23,-0.50,
3.749,0.04,-0.54,-0.12,-0.35,-0.23,-0.50,
3.749,0.04,-0.54,-0.12,-0.31,-0.22,-0.48,
3.749,0.04,-0.54,-0.12,-0.27,-0.21,-0.45,
3.749,0.04,-0.54,-0.12,-0.22,-0.20,-0.43,
3.749,0.04,-0.54,-0.12,-0.17,-0.19,-0.40,
3.75,0.04,-0.54,-0.12,-0.12,-0.19,-0.37,
3.753,-0.48,-0.42,0.15,-0.12,-0.19,-0.37,
3.753,-0.48,-0.42,0.15,-0.07,-0.18,-0.34,
3.753,-0.48,-0.42,0.15,-0.01,-0.18,-0.31,
3.754,-0.48,-0.42,0.15,0.05,-0.19,-0.27,
3.754,-0.48,-0.42,0.15,0.11,-0.19,-0.23,
3.754,-0.48,-0.42,0.15,0.17,-0.19,-0.19,
3.756,-0.85,-0.26,0.40,0.17,-0.19,-0.19,
3.757,-0.85,-0.26,0.40,0.23,-0.20,-0.15,
3.761,-0.85,-0.26,0.40,0.30,-0.20,-0.10,
3.764,-0.85,-0.26,0.40,0.36,-0.21,-0.06,
3.765,-0.85,-0.26,0.40,0.43,-0.21,-0.01,
3.765,-0.85,-0.26,0.40,0.50,-0.22,0.03,
3.766,-0.95,-0.19,0.43,0.50,-0.22,0.03,
3.766,-0.95,-0.19,0.43,0.56,-0.22,0.07,
3.767,-0.95,-0.19,0.43,0.62,-0.23,0.11,
3.77,-0.95,-0.19,0.43,0.68,-0.24,0.14,
3.772,-0.95,-0.19,0.43,0.74,-0.25,0.18,
3.774,-0.95,-0.19,0.43,0.79,-0.27,0.21,
3.776,-0.70,-0.13,0.12,0.79,-0.27,0.21,
3.776,-0.70,-0.13,0.12,0.85,-0.28,0.24,
3.777,-0.70,-0.13,0.12,0.89,-0.30,0.27,
3.78,-0.70,-0.13,0.12,0.94,-0.31,0.29,
3.781,-0.70,-0.13,0.12,0.98,-0.32,0.31,
3.783,-0.70,-0.13,0.12,1.02,-0.34,0.33,
3.787,-0.32,-0.05,-0.39,1.02,-0.34,0.33,
3.787,-0.32,-0.05,-0.39,1.06,-0.35,0.35,
3.788,-0.32,-0.05,-0.39,1.09,-0.36,0.36,
3.791,-0.32,-0.05,-0.39,1.12,-0.37,0.37,
3.792,-0.32,-0.05,-0.39,1.15,-0.38,0.37,
3.796,-0.32,-0.05,-0.39,1.18,-0.39,0.37,
3.796,0.12,0.11,-0.88,1.18,-0.39,0.37,
3.797,0.12,0.11,-0.88,1.20,-0.40,0.37,
3.797,0.12,0.11,-0.88,1.22,-0.41,0.37,
3.801,0.12,0.11,-0.88,1.24,-0.42,0.37,
3.801,0.12,0.11,-0.88,1.25,-0.42,0.37,
3.805,0.12,0.11,-0.88,1.26,-0.42,0.37,
3.805,0.37,0.26,-1.54,1.26,-0.42,0.37,
3.806,0.37,0.26,-1.54,1.26,-0.41,0.36,
3.807,0.37,0.26,-1.54,1.27,-0.40,0.35,
3.81,0.37,0.26,-1.54,1.27,-0.40,0.34,
3.811,0.37,0.26,-1.54,1.27,-0.39,0.32,
3.813,0.37,0.26,-1.54,1.27,-0.37,0.30,
3.815,0.72,0.42,-2.10,1.27,-0.37,0.30,
3.816,0.72,0.42,-2.10,1.26,-0.35,0.28,
3.817,0.72,0.42,-2.10,1.25,-0.32,0.27,
3.82,0.72,0.42,-2.10,1.24,-0.30,0.25,
3.821,0.72,0.42,-2.10,1.22,-0.28,0.23,
3.838,0.72,0.42,-2.10,1.20,-0.26,0.21,
3.839,0.92,0.63,-2.75,1.20,-0.26,0.21,
3.839,0.92,0.63,-2.75,1.18,-0.23,0.18,
3.839,0.92,0.63,-2.75,1.15,-0.21,0.16,
3.84,0.92,0.63,-2.75,1.12,-0.19,0.13,
3.84,0.92,0.63,-2.75,1.09,-0.17,0.11,
3.84,0.92,0.63,-2.75,1.06,-0.16,0.08,
3.841,0.83,0.72,-3.23,1.06,-0.16,0.08,
3.841,0.83,0.72,-3.23,1.03,-0.14,0.05,
3.841,0.83,0.72,-3.23,0.99,-0.13,0.02,
3.848,0.83,0.72,-3.23,0.96,-0.12,-0.01,
3.88,0.83,0.72,-3.23,0.92,-0.11,-0.04,
3.881,0.83,0.72,-3.23,0.88,-0.10,-0.07,
3.881,0.68,0.89,-3.55,0.88,-0.10,-0.07,
3.882,0.68,0.89,-3.55,0.84,-0.10,-0.10,
3.882,0.68,0.89,-3.55,0.80,-0.10,-0.13,
3.882,0.68,0.89,-3.55,0.76,-0.10,-0.16,
3.883,0.68,0.89,-3.55,0.72,-0.10,-0.19,
3.883,0.68,0.89,-3.55,0.68,-0.11,-0.22,
3.884,0.49,1.01,-3.53,0.68,-0.11,-0.22,
3.884,0.49,1.01,-3.53,0.63,-0.12,-0.24,
3.885,0.49,1.01,-3.53,0.59,-0.12,-0.27,
3.885,0.49,1.01,-3.53,0.55,-0.13,-0.30,
3.885,0.49,1.01,-3.53,0.51,-0.13,-0.32,
3.886,0.49,1.01,-3.53,0.48,-0.14,-0.35,
3.886,0.40,1.10,-3.33,0.48,-0.14,-0.35,
3.887,0.40,1.10,-3.33,0.44,-0.14,-0.38,
3.887,0.40,1.10,-3.33,0.40,-0.15,-0.40,
3.887,0.40,1.10,-3.33,0.37,-0.15,-0.43,
3.888,0.40,1.10,-3.33,0.33,-0.15,-0.46,
3.888,0.40,1.10,-3.33,0.30,-0.15,-0.49,
3.888,0.42,1.06,-2.95,0.30,-0.15,-0.49,
3.888,0.42,1.06,-2.95,0.26,-0.14,-0.52,
3.889,0.42,1.06,-2.95,0.23,-0.14,-0.55,
3.889,0.42,1.06,-2.95,0.19,-0.13,-0.58,
3.889,0.42,1.06,-2.95,0.15,-0.12,-0.61,
3.889,0.42,1.06,-2.95,0.11,-0.12,-0.64,
3.89,0.47,1.12,-2.80,0.11,-0.12,-0.64,
3.89,0.47,1.12,-2.80,0.07,-0.11,-0.67,
3.89,0.47,1.12,-2.80,0.03,-0.10,-0.70,
3.891,0.47,1.12,-2.80,-0.01,-0.09,-0.73,
3.891,0.47,1.12,-2.80,-0.05,-0.08,-0.76,
3.9,0.47,1.12,-2.80,-0.09,-0.07,-0.78,
3.901,0.26,1.04,-2.56,-0.09,-0.07,-0.78,
3.901,0.26,1.04,-2.56,-0.13,-0.05,-0.80,
3.901,0.26,1.04,-2.56,-0.17,-0.04,-0.83,
3.902,0.26,1.04,-2.56,-0.21,-0.02,-0.85,
3.902,0.26,1.04,-2.56,-0.25,0.00,-0.87,
3.905,0.26,1.04,-2.56,-0.28,0.02,-0.89,
3.905,-0.06,1.00,-2.06,-0.28,0.02,-0.89,
3.906,-0.06,1.00,-2.06,-0.31,0.05,-0.91,
3.916,-0.06,1.00,-2.06,-0.34,0.08,-0.92,
3.916,-0.06,1.00,-2.06,-0.36,0.11,-0.93,
3.917,-0.06,1.00,-2.06,-0.39,0.14,-0.94,
3.917,-0.06,1.00,-2.06,-0.41,0.17,-0.95,
3.917,-0.52,0.84,-1.39,-0.41,0.17,-0.95,
3.917,-0.52,0.84,-1.39,-0.42,0.19,-0.95,
3.918,-0.52,0.84,-1.39,-0.44,0.22,-0.96,
3.927,-0.52,0.84,-1.39,-0.46,0.26,-0.96,
3.928,-0.52,0.84,-1.39,-0.46,0.28,-0.95,
3.928,-0.52,0.84,-1.39,-0.47,0.30,-0.95,
3.928,-0.98,0.71,-0.79,-0.47,0.30,-0.95,
3.928,-0.98,0.71,-0.79,-0.47,0.33,-0.95,
3.929,-0.98,0.71,-0.79,-0.48,0.35,-0.94,
3.93,-0.98,0.71,-0.79,-0.48,0.37,-0.92,
3.931,-0.98,0.71,-0.79,-0.48,0.38,-0.92,
3.933,-0.98,0.71,-0.79,-0.48,0.39,-0.91,
3.935,-1.42,0.59,-0.18,-0.48,0.39,-0.91,
3.935,-1.42,0.59,-0.18,-0.48,0.40,-0.89,
3.937,-1.42,0.59,-0.18,-0.47,0.40,-0.88,
3.94,-1.42,0.59,-0.18,-0.46,0.40,-0.85,
3.941,-1.42,0.59,-0.18,-0.46,0.40,-0.84,
3.943,-1.42,0.59,-0.18,-0.44,0.40,-0.82,
3.945,-1.91,0.48,0.48,-0.44,0.40,-0.82,
3.946,-1.91,0.48,0.48,-0.43,0.39,-0.80,
3.947,-1.91,0.48,0.48,-0.41,0.38,-0.78,
3.95,-1.91,0.48,0.48,-0.38,0.36,-0.75,
3.951,-1.91,0.48,0.48,-0.37,0.35,-0.73,
3.954,-1.91,0.48,0.48,-0.34,0.33,-0.70,
3.966,-2.25,0.38,1.21,-0.34,0.33,-0.70,
3.966,-2.25,0.38,1.21,-0.31,0.32,-0.67,
3.966,-2.25,0.38,1.21,-0.28,0.30,-0.65,
3.967,-2.25,0.38,1.21,-0.23,0.27,-0.60,
3.967,-2.25,0.38,1.21,-0.22,0.26,-0.58,
3.967,-2.25,0.38,1.21,-0.18,0.24,-0.55,
3.967,-2.60,0.31,1.90,-0.18,0.24,-0.55,
3.967,-2.60,0.31,1.90,-0.14,0.22,-0.52,
3.968,-2.60,0.31,1.90,-0.10,0.20,-0.48,
3.97,-2.60,0.31,1.90,-0.03,0.17,-0.43,
3.971,-2.60,0.31,1.90,-0.01,0.16,-0.42,
3.997,-2.60,0.31,1.90,0.03,0.14,-0.38,
3.997,-2.71,0.34,2.43,0.03,0.14,-0.38,
3.997,-2.71,0.34,2.43,0.07,0.12,-0.35,
3.997,-2.71,0.34,2.43,0.11,0.10,-0.31,
3.998,-2.71,0.34,2.43,0.17,0.06,-0.27,
3.998,-2.71,0.34,2.43,0.19,0.05,-0.25,
3.998,-2.71,0.34,2.43,0.23,0.03,-0.22,
3.998,-2.61,0.34,2.59,0.23,0.03,-0.22,
3.998,-2.61,0.34,2.59,0.26,0.00,-0.19,
3.998,-2.61,0.34,2.59,0.30,-0.02,-0.16,
3.999,-2.61,0.34,2.59,0.34,-0.06,-0.12,
3.999,-2.61,0.34,2.59,0.35,-0.07,-0.10,
3.999,-2.61,0.34,2.59,0.37,-0.09,-0.07,
3.999,-2.27,0.42,2.39,0.37,-0.09,-0.07,
3.999,-2.27,0.42,2.39,0.39,-0.11,-0.05,
4.0,-2.27,0.42,2.39,0.40,-0.13,-0.02,
4.0,-2.27,0.42,2.39,0.41,-0.15,0.01,
4.001,-2.27,0.42,2.39,0.42,-0.16,0.02,
4.003,-2.27,0.42,2.39,0.42,-0.17,0.04,
4.006,-2.04,0.65,1.97,0.42,-0.17,0.04,
4.007,-2.04,0.65,1.97,0.42,-0.18,0.06,
4.031,-2.04,0.65,1.97,0.41,-0.19,0.08,
4.031,-2.04,0.65,1.97,0.40,-0.21,0.10,
4.031,-2.04,0.65,1.97,0.39,-0.21,0.10,
4.031,-2.04,0.65,1.97,0.37,-0.22,0.11,
4.031,-1.53,0.75,1.52,0.37,-0.22,0.11,
4.032,-1.53,0.75,1.52,0.36,-0.23,0.11,
4.032,-1.53,0.75,1.52,0.33,-0.24,0.12,
4.032,-1.53,0.75,1.52,0.29,-0.25,0.12,
4.032,-1.53,0.75,1.52,0.28,-0.26,0.12,
4.032,-1.53,0.75,1.52,0.25,-0.26,0.12,
4.032,-1.05,0.70,1.12,0.25,-0.26,0.12,
4.033,-1.05,0.70,1.12,0.21,-0.27,0.12,
4.033,-1.05,0.70,1.12,0.18,-0.27,0.12,
4.033,-1.05,0.70,1.12,0.12,-0.27,0.12,
4.033,-1.05,0.70,1.12,0.10,-0.27,0.11,
4.033,-1.05,0.70,1.12,0.05,-0.28,0.11,
4.038,-0.85,0.80,0.92,0.05,-0.28,0.11,
4.038,-0.85,0.80,0.92,0.01,-0.28,0.11,
4.039,-0.85,0.80,0.92,-0.04,-0.28,0.10,
4.041,-0.85,0.80,0.92,-0.10,-0.29,0.09,
4.041,-0.85,0.80,0.92,-0.12,-0.30,0.09,
4.043,-0.85,0.80,0.92,-0.17,-0.31,0.08,
4.045,-0.80,0.95,1.17,-0.17,-0.31,0.08,
4.045,-0.80,0.95,1.17,-0.21,-0.32,0.08,
4.046,-0.80,0.95,1.17,-0.25,-0.33,0.07,
4.05,-0.80,0.95,1.17,-0.31,-0.35,0.06,
4.05,-0.80,0.95,1.17,-0.32,-0.35,0.05,
4.052,-0.80,0.95,1.17,-0.36,-0.36,0.04,
4.055,-0.72,0.86,1.76,-0.36,-0.36,0.04,
4.056,-0.72,0.86,1.76,-0.39,-0.38,0.04,
4.058,-0.72,0.86,1.76,-0.42,-0.39,0.03,
4.06,-0.72,0.86,1.76,-0.46,-0.40,0.01,
4.061,-0.72,0.86,1.76,-0.47,-0.41,0.01,
4.063,-0.72,0.86,1.76,-0.50,-0.42,0.00,
4.065,-0.74,0.64,2.52,-0.50,-0.42,0.00,
4.066,-0.74,0.64,2.52,-0.51,-0.43,-0.00,
4.067,-0.74,0.64,2.52,-0.53,-0.44,-0.01,
4.07,-0.74,0.64,2.52,-0.55,-0.45,-0.01,
4.071,-0.74,0.64,2.52,-0.56,-0.45,-0.01,
4.073,-0.74,0.64,2.52,-0.57,-0.45,-0.01,
4.076,-0.99,0.49,3.39,-0.57,-0.45,-0.01,
4.076,-0.99,0.49,3.39,-0.57,-0.46,-0.01,
4.077,-0.99,0.49,3.39,-0.57,-0.46,-0.01,
4.08,-0.99,0.49,3.39,-0.56,-0.45,-0.00,
4.081,-0.99,0.49,3.39,-0.55,-0.45,0.00,
4.083,-0.99,0.49,3.39,-0.54,-0.44,0.01,
4.085,-1.45,0.35,4.26,-0.54,-0.44,0.01,
4.086,-1.45,0.35,4.26,-0.53,-0.44,0.02,
4.087,-1.45,0.35,4.26,-0.51,-0.42,0.03,
4.099,-1.45,0.35,4.26,-0.48,-0.40,0.04,
4.099,-1.45,0.35,4.26,-0.47,-0.39,0.05,
4.1,-1.45,0.35,4.26,-0.44,-0.37,0.07,
4.1,-1.83,0.24,4.87,-0.44,-0.37,0.07,
4.101,-1.83,0.24,4.87,-0.42,-0.34,0.08,
4.101,-1.83,0.24,4.87,-0.40,-0.31,0.10,
4.101,-1.83,0.24,4.87,-0.36,-0.26,0.13,
4.102,-1.83,0.24,4.87,-0.34,-0.24,0.14,
4.13,-1.83,0.24,4.87,-0.32,-0.20,0.16,
4.132,-2.21,0.11,5.01,-0.32,-0.20,0.16,
4.132,-2.21,0.11,5.01,-0.30,-0.16,0.19,
4.132,-2.21,0.11,5.01,-0.28,-0.11,0.21,
4.133,-2.21,0.11,5.01,-0.26,-0.05,0.25,
4.133,-2.21,0.11,5.01,-0.25,-0.03,0.26,
4.134,-2.21,0.11,5.01,-0.25,0.00,0.29,
4.134,-2.41,0.13,4.45,-0.25,0.00,0.29,
4.134,-2.41,0.13,4.45,-0.24,0.04,0.32,
4.135,-2.41,0.13,4.45,-0.25,0.07,0.34,
4.135,-2.41,0.13,4.45,-0.26,0.11,0.38,
4.136,-2.41,0.13,4.45,-0.27,0.12,0.39,
4.136,-2.41,0.13,4.45,-0.29,0.14,0.41,
4.137,-2.42,0.30,3.52,-0.29,0.14,0.41,
4.137,-2.42,0.30,3.52,-0.31,0.16,0.43,
4.137,-2.42,0.30,3.52,-0.33,0.17,0.45,
4.138,-2.42,0.30,3.52,-0.37,0.19,0.47,
4.138,-2.42,0.30,3.52,-0.39,0.20,0.47,
4.139,-2.42,0.30,3.52,-0.42,0.21,0.48,
4.139,-2.16,0.51,2.73,-0.42,0.21,0.48,
4.14,-2.16,0.51,2.73,-0.45,0.22,0.49,
4.141,-2.16,0.51,2.73,-0.48,0.24,0.50,
4.141,-2.16,0.51,2.73,-0.52,0.26,0.51,
4.142,-2.16,0.51,2.73,-0.54,0.26,0.51,
4.148,-2.16,0.51,2.73,-0.62,0.30,0.52,
4.15,-2.16,0.51,2.73,-0.62,0.30,0.52,
4.15,-2.16,0.51,2.73,-0.62,0.30,0.52,
4.153,-1.96,0.65,2.34,-0.62,0.30,0.52,
4.154,-1.96,0.65,2.34,-0.65,0.31,0.53,
4.154,-1.96,0.65,2.34,-0.66,0.32,0.53,
4.154,-1.96,0.65,2.34,-0.68,0.33,0.53,
4.162,-1.81,0.68,2.33,-0.68,0.33,0.53,
4.164,-1.81,0.68,2.33,-0.70,0.33,0.53,
4.165,-1.81,0.68,2.33,-0.71,0.34,0.54,
4.166,-1.81,0.68,2.33,-0.73,0.36,0.54,
4.166,-1.81,0.68,2.33,-0.74,0.36,0.54,
4.166,-1.81,0.68,2.33,-0.75,0.37,0.54,
4.167,-1.65,0.66,2.28,-0.75,0.37,0.54,
4.168,-1.65,0.66,2.28,-0.76,0.37,0.54,
4.168,-1.65,0.66,2.28,-0.76,0.38,0.54,
4.171,-1.65,0.66,2.28,-0.78,0.38,0.54,
4.172,-1.65,0.66,2.28,-0.78,0.39,0.54,
4.177,-1.65,0.66,2.28,-0.78,0.39,0.55,
4.196,-1.44,0.68,2.11,-0.78,0.39,0.55,
4.197,-1.44,0.68,2.11,-0.79,0.39,0.55,
4.197,-1.44,0.68,2.11,-0.79,0.39,0.55,
4.197,-1.44,0.68,2.11,-0.79,0.40,0.55,
4.197,-1.44,0.68,2.11,-0.78,0.40,0.55,
4.198,-1.44,0.68,2.11,-0.78,0.40,0.55,
4.198,-1.31,0.64,1.85,-0.78,0.40,0.55,
4.198,-1.31,0.64,1.85,-0.78,0.40,0.56,
4.198,-1.31,0.64,1.85,-0.78,0.39,0.56,
4.199,-1.31,0.64,1.85,-0.77,0.39,0.56,
4.199,-1.31,0.64,1.85,-0.77,0.39,0.56,
4.199,-1.31,0.64,1.85,-0.76,0.39,0.56,
4.2,-1.11,0.55,1.53,-0.76,0.39,0.56,
4.2,-1.11,0.55,1.53,-0.75,0.38,0.56,
4.2,-1.11,0.55,1.53,-0.74,0.38,0.57,
4.2,-1.11,0.55,1.53,-0.72,0.38,0.57,
4.2,-1.11,0.55,1.53,-0.72,0.38,0.57,
4.203,-1.11,0.55,1.53,-0.70,0.37,0.58,
4.207,-1.02,0.48,1.23,-0.70,0.37,0.58,
4.208,-1.02,0.48,1.23,-0.68,0.37,0.58,
4.208,-1.02,0.48,1.23,-0.67,0.37,0.59,
4.213,-1.02,0.48,1.23,-0.64,0.37,0.60,
4.214,-1.02,0.48,1.23,-0.62,0.37,0.60,
4.214,-1.02,0.48,1.23,-0.60,0.37,0.61,
4.217,-0.92,0.40,0.97,-0.60,0.37,0.61,
4.22,-0.92,0.40,0.97,-0.58,0.36,0.62,
4.221,-0.92,0.40,0.97,-0.55,0.36,0.62,
4.221,-0.92,0.40,0.97,-0.51,0.36,0.63,
4.221,-0.92,0.40,0.97,-0.49,0.36,0.64,
4.228,-0.92,0.40,0.97,-0.47,0.36,0.64,
4.228,-0.82,0.26,0.69,-0.47,0.36,0.64,
4.228,-0.82,0.26,0.69,-0.44,0.36,0.65,
4.229,-0.82,0.26,0.69,-0.41,0.36,0.66,
4.23,-0.82,0.26,0.69,-0.36,0.36,0.67,
4.236,-0.82,0.26,0.69,-0.34,0.35,0.67,
4.256,-0.82,0.26,0.69,-0.30,0.35,0.68,
4.257,-0.65,0.14,0.44,-0.30,0.35,0.68,
4.257,-0.65,0.14,0.44,-0.26,0.35,0.68,
4.257,-0.65,0.14,0.44,-0.23,0.34,0.69,
4.257,-0.65,0.14,0.44,-0.17,0.34,0.70,
4.258,-0.65,0.14,0.44,-0.15,0.34,0.70,
4.258,-0.65,0.14,0.44,-0.11,0.34,0.71,
4.258,-0.59,0.04,0.19,-0.11,0.34,0.71,
4.258,-0.59,0.04,0.19,-0.06,0.34,0.72,
4.258,-0.59,0.04,0.19,-0.02,0.34,0.73,
4.258,-0.59,0.04,0.19,0.05,0.35,0.74,
4.258,-0.59,0.04,0.19,0.08,0.35,0.74,
4.258,-0.59,0.04,0.19,0.12,0.35,0.75,
4.258,-0.65,-0.15,-0.10,0.12,0.35,0.75,
4.259,-0.65,-0.15,-0.10,0.17,0.35,0.76,
4.259,-0.65,-0.15,-0.10,0.22,0.35,0.78,
4.26,-0.65,-0.15,-0.10,0.29,0.36,0.80,
4.26,-0.65,-0.15,-0.10,0.31,0.36,0.80,
4.263,-0.65,-0.15,-0.10,0.35,0.36,0.82,
4.265,-0.74,-0.30,-0.56,0.35,0.36,0.82,
4.265,-0.74,-0.30,-0.56,0.40,0.37,0.83,
4.266,-0.74,-0.30,-0.56,0.44,0.37,0.85,
4.271,-0.74,-0.30,-0.56,0.50,0.38,0.87,
4.272,-0.74,-0.30,-0.56,0.52,0.38,0.88,
4.274,-0.74,-0.30,-0.56,0.56,0.38,0.90,
4.276,-0.82,-0.49,-1.20,0.56,0.38,0.90,
4.276,-0.82,-0.49,-1.20,0.60,0.38,0.92,
4.277,-0.82,-0.49,-1.20,0.64,0.38,0.94,
4.28,-0.82,-0.49,-1.20,0.69,0.38,0.97,
4.281,-0.82,-0.49,-1.20,0.71,0.38,0.98,
4.282,-0.82,-0.49,-1.20,0.74,0.37,0.99,
4.285,-0.88,-0.72,-1.84,0.74,0.37,0.99,
4.285,-0.88,-0.72,-1.84,0.77,0.37,1.01,
4.287,-0.88,-0.72,-1.84,0.80,0.37,1.03,
4.29,-0.88,-0.72,-1.84,0.84,0.37,1.06,
4.29,-0.88,-0.72,-1.84,0.85,0.37,1.07,
4.293,-0.88,-0.72,-1.84,0.87,0.37,1.09,
4.295,-0.78,-0.91,-2.48,0.87,0.37,1.09,
4.295,-0.78,-0.91,-2.48,0.90,0.36,1.11,
4.296,-0.78,-0.91,-2.48,0.92,0.36,1.12,
4.299,-0.78,-0.91,-2.48,0.94,0.35,1.15,
4.301,-0.78,-0.91,-2.48,0.95,0.35,1.16,
4.303,-0.78,-0.91,-2.48,0.97,0.34,1.17,
4.305,-0.77,-1.01,-3.07,0.97,0.34,1.17,
4.305,-0.77,-1.01,-3.07,0.98,0.33,1.19,
4.307,-0.77,-1.01,-3.07,0.99,0.33,1.20,
4.31,-0.77,-1.01,-3.07,1.01,0.31,1.22,
4.311,-0.77,-1.01,-3.07,1.01,0.30,1.23,
4.313,-0.77,-1.01,-3.07,1.02,0.29,1.24,
4.315,-0.63,-1.12,-3.54,1.02,0.29,1.24,
4.315,-0.63,-1.12,-3.54,1.03,0.27,1.25,
4.317,-0.63,-1.12,-3.54,1.03,0.25,1.26,
4.321,-0.63,-1.12,-3.54,1.04,0.22,1.27,
4.325,-0.63,-1.12,-3.54,1.04,0.20,1.28,
4.325,-0.63,-1.12,-3.54,1.04,0.18,1.29,
4.326,-0.48,-1.18,-3.78,1.04,0.18,1.29,
4.326,-0.48,-1.18,-3.78,1.04,0.16,1.29,
4.327,-0.48,-1.18,-3.78,1.04,0.13,1.29,
4.33,-0.48,-1.18,-3.78,1.05,0.08,1.29,
4.331,-0.48,-1.18,-3.78,1.05,0.07,1.29,
4.333,-0.48,-1.18,-3.78,1.06,0.04,1.29,
4.335,-0.28,-1.26,-3.71,1.06,0.04,1.29,
4.336,-0.28,-1.26,-3.71,1.06,0.01,1.29,
4.34,-0.28,-1.26,-3.71,1.07,-0.02,1.29,
4.341,-0.28,-1.26,-3.71,1.09,-0.07,1.28,
4.366,-0.28,-1.26,-3.71,1.09,-0.08,1.28,
4.366,-0.28,-1.26,-3.71,1.11,-0.11,1.27,
4.366,-0.07,-1.36,-3.35,1.11,-0.11,1.27,
4.366,-0.07,-1.36,-3.35,1.13,-0.13,1.26,
4.367,-0.07,-1.36,-3.35,1.14,-0.16,1.26,
4.367,-0.07,-1.36,-3.35,1.17,-0.19,1.25,
4.367,-0.07,-1.36,-3.35,1.18,-0.20,1.25,
4.368,-0.07,-1.36,-3.35,1.20,-0.21,1.24,
4.368,0.02,-1.51,-3.01,1.20,-0.21,1.24,
4.368,0.02,-1.51,-3.01,1.22,-0.23,1.24,
4.369,0.02,-1.51,-3.01,1.24,-0.24,1.23,
4.369,0.02,-1.51,-3.01,1.27,-0.25,1.23,
4.369,0.02,-1.51,-3.01,1.28,-0.25,1.23,
4.369,0.02,-1.51,-3.01,1.30,-0.26,1.23,
4.37,-0.05,-1.64,-2.92,1.30,-0.26,1.23,
4.37,-0.05,-1.64,-2.92,1.31,-0.25,1.23,
4.37,-0.05,-1.64,-2.92,1.33,-0.25,1.23,
4.37,-0.05,-1.64,-2.92,1.34,-0.24,1.24,
4.371,-0.05,-1.64,-2.92,1.35,-0.24,1.24,
4.377,-0.05,-1.64,-2.92,1.36,-0.23,1.24,
4.378,-0.14,-1.82,-3.07,1.36,-0.23,1.24,
4.378,-0.14,-1.82,-3.07,1.36,-0.22,1.24,
4.378,-0.14,-1.82,-3.07,1.36,-0.21,1.25,
4.381,-0.14,-1.82,-3.07,1.36,-0.19,1.25,
4.381,-0.14,-1.82,-3.07,1.35,-0.18,1.25,
4.384,-0.14,-1.82,-3.07,1.35,-0.16,1.26,
4.385,-0.25,-2.04,-3.40,1.35,-0.16,1.26,
4.385,-0.25,-2.04,-3.40,1.34,-0.14,1.26,
4.388,-0.25,-2.04,-3.40,1.33,-0.12,1.27,
4.396,-0.25,-2.04,-3.40,1.31,-0.09,1.28,
4.397,-0.25,-2.04,-3.40,1.30,-0.08,1.28,
4.397,-0.25,-2.04,-3.40,1.28,-0.06,1.29,
4.397,-0.44,-2.20,-3.64,1.28,-0.06,1.29,
4.398,-0.44,-2.20,-3.64,1.26,-0.03,1.30,
4.398,-0.44,-2.20,-3.64,1.24,0.00,1.31,
4.405,-0.44,-2.20,-3.64,1.21,0.05,1.33,
4.406,-0.44,-2.20,-3.64,1.20,0.07,1.33,
4.406,-0.44,-2.20,-3.64,1.17,0.10,1.35,
4.406,-0.68,-2.36,-3.71,1.17,0.10,1.35,
4.406,-0.68,-2.36,-3.71,1.15,0.13,1.36,
4.431,-0.68,-2.36,-3.71,1.12,0.16,1.38,
4.431,-0.68,-2.36,-3.71,1.08,0.20,1.41,
4.431,-0.68,-2.36,-3.71,1.07,0.21,1.42,
4.432,-0.68,-2.36,-3.71,1.04,0.24,1.44,
4.432,-0.92,-2.45,-3.63,1.04,0.24,1.44,
4.432,-0.92,-2.45,-3.63,1.01,0.25,1.46,
4.432,-0.92,-2.45,-3.63,0.97,0.27,1.48,
4.432,-0.92,-2.45,-3.63,0.92,0.28,1.51,
4.433,-0.92,-2.45,-3.63,0.90,0.28,1.52,
4.433,-0.92,-2.45,-3.63,0.86,0.28,1.54,
4.433,-0.88,-2.59,-3.54,0.86,0.28,1.54,
4.433,-0.88,-2.59,-3.54,0.82,0.28,1.56,
4.433,-0.88,-2.59,-3.54,0.77,0.27,1.57,
4.434,-0.88,-2.59,-3.54,0.70,0.25,1.60,
4.434,-0.88,-2.59,-3.54,0.68,0.24,1.60,
4.434,-0.88,-2.59,-3.54,0.64,0.21,1.62,
4.435,-0.44,-2.60,-3.24,0.64,0.21,1.62,
4.436,-0.44,-2.60,-3.24,0.59,0.19,1.63,
4.438,-0.44,-2.60,-3.24,0.55,0.17,1.63,
4.44,-0.44,-2.60,-3.24,0.49,0.12,1.63,
4.441,-0.44,-2.60,-3.24,0.48,0.11,1.63,
4.443,-0.44,-2.60,-3.24,0.45,0.08,1.62,
4.445,0.30,-2.53,-2.25,0.45,0.08,1.62,
4.446,0.30,-2.53,-2.25,0.43,0.05,1.61,
4.446,0.30,-2.53,-2.25,0.40,0.02,1.60,
4.45,0.30,-2.53,-2.25,0.38,-0.02,1.57,
4.451,0.30,-2.53,-2.25,0.37,-0.03,1.56,
4.455,0.30,-2.53,-2.25,0.36,-0.06,1.54,
4.457,1.16,-2.23,-0.88,0.36,-0.06,1.54,
4.458,1.16,-2.23,-0.88,0.36,-0.09,1.51,
4.458,1.16,-2.23,-0.88,0.35,-0.12,1.47,
4.46,1.16,-2.23,-0.88,0.35,-0.17,1.42,
4.461,1.16,-2.23,-0.88,0.35,-0.18,1.40,
4.463,1.16,-2.23,-0.88,0.35,-0.21,1.35,
4.466,2.06,-1.94,0.29,0.35,-0.21,1.35,
4.466,2.06,-1.94,0.29,0.35,-0.25,1.31,
4.467,2.06,-1.94,0.29,0.34,-0.27,1.25,
4.47,2.06,-1.94,0.29,0.34,-0.31,1.17,
4.475,2.06,-1.94,0.29,0.34,-0.33,1.14,
4.476,2.06,-1.94,0.29,0.33,-0.35,1.07,
4.479,2.75,-1.61,1.16,0.33,-0.35,1.07,
4.48,2.75,-1.61,1.16,0.33,-0.37,1.01,
4.481,2.75,-1.61,1.16,0.33,-0.38,0.94,
4.481,2.75,-1.61,1.16,0.33,-0.39,0.84,
4.482,2.75,-1.61,1.16,0.32,-0.38,0.80,
4.485,2.75,-1.61,1.16,0.32,-0.37,0.73,
4.494,3.26,-1.52,1.93,0.32,-0.37,0.73,
4.496,3.26,-1.52,1.93,0.32,-0.36,0.67,
4.498,3.26,-1.52,1.93,0.31,-0.34,0.60,
4.498,3.26,-1.52,1.93,0.30,-0.30,0.50,
4.499,3.26,-1.52,1.93,0.30,-0.28,0.47,
4.499,3.26,-1.52,1.93,0.29,-0.24,0.40,
4.5,3.32,-1.43,2.25,0.29,-0.24,0.40,
4.501,3.32,-1.43,2.25,0.28,-0.19,0.34,
4.501,3.32,-1.43,2.25,0.26,-0.14,0.28,
4.502,3.32,-1.43,2.25,0.22,-0.06,0.19,
4.503,3.32,-1.43,2.25,0.21,-0.03,0.16,
4.505,3.32,-1.43,2.25,0.19,0.04,0.11,
4.506,3.14,-1.42,2.12,0.19,0.04,0.11,
4.506,3.14,-1.42,2.12,0.15,0.10,0.05,
4.534,3.14,-1.42,2.12,0.12,0.17,0.01,
4.534,3.14,-1.42,2.12,0.06,0.28,-0.06,
4.535,3.14,-1.42,2.12,0.04,0.31,-0.08,
4.535,3.14,-1.42,2.12,0.00,0.39,-0.12,
4.536,2.59,-1.35,1.68,0.00,0.39,-0.12,
4.536,2.59,-1.35,1.68,-0.04,0.46,-0.16,
4.537,2.59,-1.35,1.68,-0.09,0.54,-0.19,
4.537,2.59,-1.35,1.68,-0.16,0.65,-0.24,
4.537,2.59,-1.35,1.68,-0.19,0.69,-0.25,
4.538,2.59,-1.35,1.68,-0.23,0.76,-0.28,
4.538,2.01,-1.33,1.29,-0.23,0.76,-0.28,
4.539,2.01,-1.33,1.29,-0.28,0.84,-0.30,
4.539,2.01,-1.33,1.29,-0.33,0.90,-0.32,
4.539,2.01,-1.33,1.29,-0.40,1.01,-0.34,
4.54,2.01,-1.33,1.29,-0.42,1.04,-0.34,
4.54,2.01,-1.33,1.29,-0.47,1.10,-0.35,
4.541,1.33,-1.15,1.06,-0.47,1.10,-0.35,
4.541,1.33,-1.15,1.06,-0.52,1.16,-0.35,
4.542,1.33,-1.15,1.06,-0.56,1.22,-0.35,
4.542,1.33,-1.15,1.06,-0.63,1.29,-0.35,
4.543,1.33,-1.15,1.06,-0.65,1.31,-0.35,
4.543,1.33,-1.15,1.06,-0.70,1.35,-0.34,
4.56,1.00,-1.02,0.88,-0.70,1.35,-0.34,
4.56,1.00,-1.02,0.88,-0.74,1.38,-0.34,
4.56,1.00,-1.02,0.88,-0.79,1.41,-0.33,
4.561,1.00,-1.02,0.88,-0.86,1.44,-0.33,
4.561,1.00,-1.02,0.88,-0.88,1.45,-0.33,
4.561,1.00,-1.02,0.88,-0.93,1.46,-0.33,
4.561,1.11,-0.85,0.65,-0.93,1.46,-0.33,
4.562,1.11,-0.85,0.65,-0.97,1.47,-0.33,
4.562,1.11,-0.85,0.65,-1.02,1.47,-0.33,
4.562,1.11,-0.85,0.65,-1.09,1.45,-0.34,
4.562,1.11,-0.85,0.65,-1.11,1.44,-0.34,
4.563,1.11,-0.85,0.65,-1.15,1.42,-0.34,
4.565,1.42,-0.43,0.71,-1.15,1.42,-0.34,
4.565,1.42,-0.43,0.71,-1.18,1.38,-0.35,
4.569,1.42,-0.43,0.71,-1.22,1.34,-0.36,
4.58,1.42,-0.43,0.71,-1.26,1.26,-0.38,
4.581,1.42,-0.43,0.71,-1.28,1.23,-0.39,
4.581,1.42,-0.43,0.71,-1.30,1.17,-0.40,
4.581,1.64,0.06,1.29,-1.30,1.17,-0.40,
4.581,1.64,0.06,1.29,-1.31,1.09,-0.42,
4.582,1.64,0.06,1.29,-1.32,1.02,-0.44,
4.582,1.64,0.06,1.29,-1.33,0.91,-0.47,
4.582,1.64,0.06,1.29,-1.33,0.88,-0.49,
4.584,1.64,0.06,1.29,-1.32,0.81,-0.51,
4.588,2.01,0.44,2.33,-1.32,0.81,-0.51,
4.588,2.01,0.44,2.33,-1.31,0.75,-0.53,
4.588,2.01,0.44,2.33,-1.30,0.69,-0.56,
4.63,2.01,0.44,2.33,-1.26,0.61,-0.60,
4.632,2.01,0.44,2.33,-1.25,0.59,-0.61,
4.632,2.01,0.44,2.33,-1.22,0.54,-0.64,
4.633,2.26,0.66,3.44,-1.22,0.54,-0.64,
4.633,2.26,0.66,3.44,-1.19,0.50,-0.66,
4.634,2.26,0.66,3.44,-1.16,0.46,-0.68,
4.634,2.26,0.66,3.44,-1.10,0.41,-0.71,
4.634,2.26,0.66,3.44,-1.08,0.40,-0.72,
4.635,2.26,0.66,3.44,-1.04,0.37,-0.74,
4.635,2.31,0.63,4.05,-1.04,0.37,-0.74,
4.636,2.31,0.63,4.05,-1.00,0.34,-0.76,
4.637,2.31,0.63,4.05,-0.97,0.32,-0.77,
4.638,2.31,0.63,4.05,-0.90,0.29,-0.78,
4.638,2.31,0.63,4.05,-0.88,0.28,-0.78,
4.638,2.31,0.63,4.05,-0.84,0.26,-0.78,
4.639,1.91,0.51,4.27,-0.84,0.26,-0.78,
4.639,1.91,0.51,4.27,-0.79,0.25,-0.77,
4.64,1.91,0.51,4.27,-0.75,0.23,-0.76,
4.64,1.91,0.51,4.27,-0.68,0.21,-0.75,
4.641,1.91,0.51,4.27,-0.66,0.20,-0.74,
4.641,1.91,0.51,4.27,-0.62,0.20,-0.73,
4.642,1.53,0.41,4.13,-0.62,0.20,-0.73,
4.642,1.53,0.41,4.13,-0.59,0.19,-0.72,
4.643,1.53,0.41,4.13,-0.55,0.18,-0.70,
4.644,1.53,0.41,4.13,-0.50,0.17,-0.68,
4.644,1.53,0.41,4.13,-0.49,0.17,-0.67,
4.644,1.53,0.41,4.13,-0.46,0.16,-0.66,
4.644,1.32,0.30,3.57,-0.46,0.16,-0.66,
4.645,1.32,0.30,3.57,-0.43,0.15,-0.64,
4.645,1.32,0.30,3.57,-0.41,0.15,-0.63,
4.646,1.32,0.30,3.57,-0.39,0.14,-0.61,
4.646,1.32,0.30,3.57,-0.38,0.13,-0.60,
4.647,1.32,0.30,3.57,-0.37,0.12,-0.58,
4.647,1.32,0.30,3.57,-0.36,0.11,-0.57,
4.648,1.30,0.25,2.82,-0.36,0.11,-0.57,
4.648,1.30,0.25,2.82,-0.35,0.10,-0.56,
4.656,1.30,0.25,2.82,-0.35,0.08,-0.54,
4.657,1.30,0.25,2.82,-0.35,0.08,-0.53,
4.657,1.30,0.25,2.82,-0.35,0.07,-0.51,
4.657,1.29,0.27,2.03,-0.35,0.07,-0.51,
4.658,1.29,0.27,2.03,-0.36,0.06,-0.50,
4.658,1.29,0.27,2.03,-0.36,0.05,-0.49,
4.66,1.29,0.27,2.03,-0.38,0.04,-0.47,
4.66,1.29,0.27,2.03,-0.39,0.03,-0.46,
4.663,1.29,0.27,2.03,-0.40,0.03,-0.45,
4.665,1.61,0.30,1.35,-0.40,0.03,-0.45,
4.666,1.61,0.30,1.35,-0.42,0.03,-0.44,
4.667,1.61,0.30,1.35,-0.44,0.03,-0.43,
4.675,1.61,0.30,1.35,-0.48,0.04,-0.43,
4.676,1.61,0.30,1.35,-0.49,0.04,-0.43,
4.676,1.61,0.30,1.35,-0.51,0.04,-0.42,
4.701,2.09,0.30,0.83,-0.51,0.04,-0.42,
4.701,2.09,0.30,0.83,-0.54,0.05,-0.42,
4.702,2.09,0.30,0.83,-0.56,0.06,-0.42,
4.702,2.09,0.30,0.83,-0.60,0.07,-0.43,
4.702,2.09,0.30,0.83,-0.61,0.07,-0.43,
4.702,2.09,0.30,0.83,-0.62,0.08,-0.44,
4.703,2.53,0.35,0.53,-0.62,0.08,-0.44,
4.703,2.53,0.35,0.53,-0.64,0.09,-0.44,
4.703,2.53,0.35,0.53,-0.66,0.10,-0.45,
4.704,2.53,0.35,0.53,-0.69,0.11,-0.46,
4.704,2.53,0.35,0.53,-0.70,0.12,-0.47,
4.704,2.53,0.35,0.53,-0.72,0.13,-0.48,
4.705,2.66,0.40,0.29,-0.72,0.13,-0.48,
4.705,2.66,0.40,0.29,-0.73,0.13,-0.48,
4.705,2.66,0.40,0.29,-0.75,0.14,-0.49,
4.705,2.66,0.40,0.29,-0.78,0.15,-0.50,
4.706,2.66,0.40,0.29,-0.79,0.15,-0.51,
4.706,2.66,0.40,0.29,-0.80,0.15,-0.52,
4.706,2.72,0.40,-0.01,-0.80,0.15,-0.52,
4.707,2.72,0.40,-0.01,-0.82,0.16,-0.52,
4.707,2.72,0.40,-0.01,-0.83,0.16,-0.53,
4.718,2.72,0.40,-0.01,-0.85,0.16,-0.55,
4.719,2.72,0.40,-0.01,-0.85,0.15,-0.55,
4.719,2.72,0.40,-0.01,-0.86,0.15,-0.55,
4.719,2.56,0.40,-0.08,-0.86,0.15,-0.55,
4.719,2.56,0.40,-0.08,-0.87,0.15,-0.56,
4.719,2.56,0.40,-0.08,-0.87,0.15,-0.56,
4.72,2.56,0.40,-0.08,-0.86,0.14,-0.57,
4.724,2.56,0.40,-0.08,-0.86,0.14,-0.57,
4.724,2.56,0.40,-0.08,-0.85,0.13,-0.57,
4.728,2.24,0.41,0.04,-0.85,0.13,-0.57,
4.728,2.24,0.41,0.04,-0.84,0.12,-0.57,
4.729,2.24,0.41,0.04,-0.82,0.11,-0.57,
4.732,2.24,0.41,0.04,-0.79,0.09,-0.57,
4.732,2.24,0.41,0.04,-0.77,0.09,-0.57,
4.733,2.24,0.41,0.04,-0.75,0.08,-0.57,
4.737,1.80,0.39,0.22,-0.75,0.08,-0.57,
4.737,1.80,0.39,0.22,-0.72,0.07,-0.56,
4.742,1.80,0.39,0.22,-0.68,0.05,-0.55,
4.742,1.80,0.39,0.22,-0.63,0.04,-0.54,
4.742,1.80,0.39,0.22,-0.61,0.03,-0.54,
4.743,1.80,0.39,0.22,-0.57,0.02,-0.53,
4.747,1.42,0.42,0.25,-0.57,0.02,-0.53,
4.747,1.42,0.42,0.25,-0.53,0.01,-0.52,
4.748,1.42,0.42,0.25,-0.49,-0.00,-0.51,
4.752,1.42,0.42,0.25,-0.42,-0.02,-0.50,
4.752,1.42,0.42,0.25,-0.40,-0.02,-0.49,
4.753,1.42,0.42,0.25,-0.35,-0.03,-0.48,
4.758,1.03,0.43,0.08,-0.35,-0.03,-0.48,
4.758,1.03,0.43,0.08,-0.30,-0.05,-0.47,
4.759,1.03,0.43,0.08,-0.25,-0.06,-0.45,
4.76,1.03,0.43,0.08,-0.18,-0.08,-0.43,
4.761,1.03,0.43,0.08,-0.16,-0.09,-0.43,
4.763,1.03,0.43,0.08,-0.11,-0.10,-0.42,
4.766,0.78,0.45,-0.35,-0.11,-0.10,-0.42,
4.766,0.78,0.45,-0.35,-0.07,-0.12,-0.40,
4.767,0.78,0.45,-0.35,-0.03,-0.13,-0.39,
4.785,0.78,0.45,-0.35,0.03,-0.16,-0.37,
4.786,0.78,0.45,-0.35,0.05,-0.17,-0.37,
4.786,0.78,0.45,-0.35,0.09,-0.18,-0.35,
4.786,0.56,0.49,-1.05,0.09,-0.18,-0.35,
4.786,0.56,0.49,-1.05,0.12,-0.20,-0.34,
4.787,0.56,0.49,-1.05,0.15,-0.23,-0.33,
4.787,0.56,0.49,-1.05,0.20,-0.26,-0.31,
4.787,0.56,0.49,-1.05,0.21,-0.27,-0.31,
4.787,0.56,0.49,-1.05,0.23,-0.29,-0.30,
4.787,0.40,0.57,-1.83,0.23,-0.29,-0.30,
4.788,0.40,0.57,-1.83,0.25,-0.32,-0.29,
4.788,0.40,0.57,-1.83,0.27,-0.34,-0.28,
4.79,0.40,0.57,-1.83,0.29,-0.38,-0.27,
4.791,0.40,0.57,-1.83,0.30,-0.40,-0.27,
4.794,0.40,0.57,-1.83,0.31,-0.42,-0.26,
4.796,0.37,0.61,-2.58,0.31,-0.42,-0.26,
4.797,0.37,0.61,-2.58,0.32,-0.45,-0.26,
4.797,0.37,0.61,-2.58,0.32,-0.48,-0.25,
4.8,0.37,0.61,-2.58,0.32,-0.52,-0.25,
4.806,0.37,0.61,-2.58,0.33,-0.53,-0.25,
4.808,0.37,0.61,-2.58,0.32,-0.56,-0.25,
4.809,0.52,0.76,-3.04,0.32,-0.56,-0.25,
4.809,0.52,0.76,-3.04,0.32,-0.59,-0.25,
4.809,0.52,0.76,-3.04,0.32,-0.61,-0.26,
4.81,0.52,0.76,-3.04,0.32,-0.65,-0.27,
4.814,0.52,0.76,-3.04,0.32,-0.66,-0.27,
4.814,0.52,0.76,-3.04,0.32,-0.68,-0.28,
4.816,0.86,0.89,-3.07,0.32,-0.68,-0.28,
4.816,0.86,0.89,-3.07,0.32,-0.71,-0.30,
4.816,0.86,0.89,-3.07,0.32,-0.73,-0.31,
4.821,0.86,0.89,-3.07,0.32,-0.75,-0.34,
4.822,0.86,0.89,-3.07,0.33,-0.76,-0.35,
4.823,0.86,0.89,-3.07,0.34,-0.78,-0.38,
4.825,1.20,1.07,-2.76,0.34,-0.78,-0.38,
4.826,1.20,1.07,-2.76,0.34,-0.79,-0.40,
4.827,1.20,1.07,-2.76,0.35,-0.80,-0.42,
4.83,1.20,1.07,-2.76,0.37,-0.82,-0.47,
4.831,1.20,1.07,-2.76,0.37,-0.82,-0.48,
4.833,1.20,1.07,-2.76,0.39,-0.82,-0.50,
4.836,1.25,1.08,-2.39,0.39,-0.82,-0.50,
4.836,1.25,1.08,-2.39,0.40,-0.83,-0.53,
4.837,1.25,1.08,-2.39,0.41,-0.83,-0.56,
4.84,1.25,1.08,-2.39,0.42,-0.82,-0.59,
4.871,1.25,1.08,-2.39,0.42,-0.82,-0.60,
4.871,1.25,1.08,-2.39,0.42,-0.82,-0.62,
4.872,1.06,1.07,-2.40,0.42,-0.82,-0.62,
4.872,1.06,1.07,-2.40,0.42,-0.82,-0.64,
4.873,1.06,1.07,-2.40,0.42,-0.81,-0.66,
4.873,1.06,1.07,-2.40,0.42,-0.80,-0.68,
4.873,1.06,1.07,-2.40,0.42,-0.80,-0.69,
4.874,1.06,1.07,-2.40,0.41,-0.80,-0.70,
4.874,0.72,0.96,-2.40,0.41,-0.80,-0.70,
4.875,0.72,0.96,-2.40,0.40,-0.79,-0.72,
4.875,0.72,0.96,-2.40,0.39,-0.78,-0.73,
4.876,0.72,0.96,-2.40,0.38,-0.76,-0.75,
4.876,0.72,0.96,-2.40,0.37,-0.75,-0.75,
4.876,0.72,0.96,-2.40,0.36,-0.73,-0.76,
4.877,0.46,0.93,-2.35,0.36,-0.73,-0.76,
4.877,0.46,0.93,-2.35,0.35,-0.71,-0.77,
4.878,0.46,0.93,-2.35,0.33,-0.69,-0.78,
4.878,0.46,0.93,-2.35,0.31,-0.65,-0.79,
4.878,0.46,0.93,-2.35,0.30,-0.64,-0.79,
4.879,0.46,0.93,-2.35,0.29,-0.62,-0.80,
4.879,0.19,0.84,-2.15,0.29,-0.62,-0.80,
4.88,0.19,0.84,-2.15,0.27,-0.59,-0.80,
4.88,0.19,0.84,-2.15,0.26,-0.57,-0.80,
4.88,0.19,0.84,-2.15,0.24,-0.54,-0.80,
4.881,0.19,0.84,-2.15,0.23,-0.52,-0.80,
4.892,0.19,0.84,-2.15,0.22,-0.50,-0.80,
4.892,-0.04,0.81,-1.82,0.22,-0.50,-0.80,
4.893,-0.04,0.81,-1.82,0.21,-0.48,-0.80,
4.893,-0.04,0.81,-1.82,0.20,-0.46,-0.80,
4.893,-0.04,0.81,-1.82,0.19,-0.42,-0.80,
4.893,-0.04,0.81,-1.82,0.18,-0.41,-0.80,
4.893,-0.04,0.81,-1.82,0.18,-0.39,-0.80,
4.897,-0.19,0.70,-1.41,0.18,-0.39,-0.80,
4.898,-0.19,0.70,-1.41,0.17,-0.37,-0.80,
4.898,-0.19,0.70,-1.41,0.17,-0.36,-0.80,
4.9,-0.19,0.70,-1.41,0.16,-0.33,-0.79,
4.902,-0.19,0.70,-1.41,0.16,-0.33,-0.79,
4.903,-0.19,0.70,-1.41,0.16,-0.32,-0.79,
4.907,-0.25,0.68,-1.10,0.16,-0.32,-0.79,
4.908,-0.25,0.68,-1.10,0.15,-0.31,-0.79,
4.908,-0.25,0.68,-1.10,0.15,-0.30,-0.79,
4.91,-0.25,0.68,-1.10,0.14,-0.30,-0.79,
4.911,-0.25,0.68,-1.10,0.14,-0.30,-0.79,
4.913,-0.25,0.68,-1.10,0.14,-0.29,-0.79,
4.917,-0.26,0.63,-0.74,0.14,-0.29,-0.79,
4.917,-0.26,0.63,-0.74,0.14,-0.29,-0.79,
4.918,-0.26,0.63,-0.74,0.14,-0.29,-0.79,
4.924,-0.26,0.63,-0.74,0.15,-0.28,-0.79,
4.925,-0.26,0.63,-0.74,0.15,-0.28,-0.79,
4.925,-0.26,0.63,-0.74,0.15,-0.29,-0.79,
4.925,-0.29,0.60,-0.37,0.15,-0.29,-0.79,
4.926,-0.29,0.60,-0.37,0.16,-0.29,-0.78,
4.927,-0.29,0.60,-0.37,0.16,-0.29,-0.79,
4.932,-0.29,0.60,-0.37,0.18,-0.30,-0.78,
4.932,-0.29,0.60,-0.37,0.18,-0.30,-0.78,
4.933,-0.29,0.60,-0.37,0.19,-0.30,-0.78,
4.953,-0.50,0.63,0.04,0.19,-0.30,-0.78,
4.953,-0.50,0.63,0.04,0.20,-0.30,-0.77,
4.953,-0.50,0.63,0.04,0.22,-0.30,-0.76,
4.954,-0.50,0.63,0.04,0.24,-0.29,-0.75,
4.954,-0.50,0.63,0.04,0.25,-0.29,-0.75,
4.954,-0.50,0.63,0.04,0.28,-0.29,-0.74,
4.955,-0.73,0.70,0.40,0.28,-0.29,-0.74,
4.956,-0.73,0.70,0.40,0.29,-0.28,-0.74,
4.956,-0.73,0.70,0.40,0.30,-0.28,-0.73,
4.956,-0.73,0.70,0.40,0.33,-0.27,-0.72,
4.956,-0.73,0.70,0.40,0.34,-0.27,-0.71,
4.956,-0.73,0.70,0.40,0.35,-0.27,-0.70,
4.957,-0.73,0.70,0.40,0.36,-0.26,-0.69,
4.957,-0.90,0.73,0.43,0.36,-0.26,-0.69,
4.957,-0.90,0.73,0.43,0.37,-0.26,-0.68,
4.96,-0.90,0.73,0.43,0.38,-0.26,-0.66,
4.961,-0.90,0.73,0.43,0.38,-0.26,-0.66,
4.965,-0.90,0.73,0.43,0.39,-0.27,-0.65,
4.966,-1.12,0.82,0.28,0.39,-0.27,-0.65,
4.966,-1.12,0.82,0.28,0.39,-0.27,-0.63,
4.97,-1.12,0.82,0.28,0.38,-0.27,-0.62,
4.971,-1.12,0.82,0.28,0.38,-0.28,-0.60,
4.973,-1.12,0.82,0.28,0.38,-0.27,-0.60,
4.974,-1.12,0.82,0.28,0.38,-0.28,-0.58,
4.976,-1.19,0.86,0.21,0.38,-0.28,-0.58,
4.976,-1.19,0.86,0.21,0.37,-0.28,-0.57,
4.977,-1.19,0.86,0.21,0.36,-0.28,-0.56,
4.98,-1.19,0.86,0.21,0.35,-0.28,-0.55,
4.981,-1.19,0.86,0.21,0.34,-0.28,-0.54,
4.985,-1.19,0.86,0.21,0.33,-0.28,-0.53,
4.989,-1.21,0.89,0.27,0.33,-0.28,-0.53,
4.989,-1.21,0.89,0.27,0.32,-0.28,-0.53,
4.989,-1.21,0.89,0.27,0.31,-0.28,-0.52,
4.99,-1.21,0.89,0.27,0.30,-0.27,-0.50,
4.991,-1.21,0.89,0.27,0.29,-0.27,-0.50,
4.994,-1.21,0.89,0.27,0.28,-0.26,-0.49,
4.996,-1.28,0.86,0.56,0.28,-0.26,-0.49,
4.996,-1.28,0.86,0.56,0.28,-0.26,-0.48,
4.997,-1.28,0.86,0.56,0.27,-0.25,-0.47,
5.001,-1.28,0.86,0.56,0.26,-0.25,-0.45,
5.002,-1.28,0.86,0.56,0.26,-0.24,-0.44,
5.004,-1.28,0.86,0.56,0.26,-0.24,-0.43,
5.006,-1.52,0.81,0.98,0.26,-0.24,-0.43,
5.006,-1.52,0.81,0.98,0.25,-0.23,-0.42,
5.033,-1.52,0.81,0.98,0.25,-0.22,-0.40,
5.033,-1.52,0.81,0.98,0.25,-0.21,-0.38,
5.034,-1.52,0.81,0.98,0.25,-0.21,-0.37,
5.034,-1.52,0.81,0.98,0.25,-0.20,-0.36,
5.035,-1.55,0.78,1.34,0.25,-0.20,-0.36,
5.035,-1.55,0.78,1.34,0.25,-0.19,-0.34,
5.036,-1.55,0.78,1.34,0.25,-0.17,-0.33,
5.036,-1.55,0.78,1.34,0.25,-0.16,-0.30,
5.036,-1.55,0.78,1.34,0.25,-0.15,-0.30,
5.036,-1.55,0.78,1.34,0.25,-0.14,-0.28,
5.036,-1.52,0.61,1.62,0.25,-0.14,-0.28,
5.037,-1.52,0.61,1.62,0.25,-0.13,-0.27,
