
time,ax,ay,az,wx,wy,wz,
0.005,-1.33,0.95,-1.27,-0.52,-0.33,0.30,
0.006,-1.33,0.95,-1.27,-0.54,-0.36,0.33,
0.006,-1.33,0.95,-1.27,-0.57,-0.39,0.34,
0.006,-1.33,0.95,-1.27,-0.59,-0.41,0.37,
0.006,-1.33,0.95,-1.27,-0.62,-0.44,0.39,
0.006,-1.33,0.95,-1.27,-0.65,-0.47,0.41,
0.007,-1.49,1.05,-1.49,-0.65,-0.47,0.41,
0.007,-1.49,1.05,-1.49,-0.68,-0.49,0.42,
0.007,-1.49,1.05,-1.49,-0.71,-0.52,0.45,
0.007,-1.49,1.05,-1.49,-0.75,-0.54,0.46,
0.009,-1.49,1.05,-1.49,-0.78,-0.57,0.47,
0.021,-1.49,1.05,-1.49,-0.82,-0.60,0.49,
0.021,-1.40,1.15,-1.66,-0.82,-0.60,0.49,
0.022,-1.40,1.15,-1.66,-0.85,-0.62,0.50,
0.022,-1.40,1.15,-1.66,-0.89,-0.65,0.51,
0.022,-1.40,1.15,-1.66,-0.93,-0.67,0.53,
0.022,-1.40,1.15,-1.66,-0.96,-0.69,0.54,
0.022,-1.40,1.15,-1.66,-1.00,-0.71,0.55,
0.023,-1.26,1.25,-1.75,-1.00,-0.71,0.55,
0.023,-1.26,1.25,-1.75,-1.04,-0.72,0.56,
0.027,-1.26,1.25,-1.75,-1.08,-0.73,0.57,
0.028,-1.26,1.25,-1.75,-1.12,-0.73,0.58,
0.028,-1.26,1.25,-1.75,-1.15,-0.73,0.59,
0.031,-1.26,1.25,-1.75,-1.19,-0.73,0.61,
0.033,-1.05,1.06,-1.79,-1.19,-0.73,0.61,
0.033,-1.05,1.06,-1.79,-1.23,-0.72,0.61,
0.034,-1.05,1.06,-1.79,-1.27,-0.72,0.62,
0.037,-1.05,1.06,-1.79,-1.31,-0.72,0.63,
0.038,-1.05,1.06,-1.79,-1.35,-0.72,0.64,
0.04,-1.05,1.06,-1.79,-1.38,-0.71,0.65,
0.047,-0.58,0.81,-1.47,-1.38,-0.71,0.65,
0.047,-0.58,0.81,-1.47,-1.42,-0.70,0.66,
0.047,-0.58,0.81,-1.47,-1.46,-0.68,0.67,
0.047,-0.58,0.81,-1.47,-1.49,-0.64,0.68,
0.048,-0.58,0.81,-1.47,-1.52,-0.60,0.68,
0.05,-0.58,0.81,-1.47,-1.54,-0.54,0.69,
0.098,-0.11,0.59,-0.63,-1.54,-0.54,0.69,
0.099,-0.11,0.59,-0.63,-1.56,-0.48,0.70,
0.099,-0.11,0.59,-0.63,-1.57,-0.41,0.70,
0.099,-0.11,0.59,-0.63,-1.57,-0.34,0.71,
0.104,-0.11,0.59,-0.63,-1.58,-0.26,0.71,
0.104,-0.11,0.59,-0.63,-1.57,-0.19,0.72,
0.104,0.01,0.44,0.26,-1.57,-0.19,0.72,
0.104,0.01,0.44,0.26,-1.56,-0.13,0.72,
0.105,0.01,0.44,0.26,-1.54,-0.07,0.71,
0.105,0.01,0.44,0.26,-1.52,-0.01,0.71,
0.105,0.01,0.44,0.26,-1.50,0.03,0.71,
0.105,0.01,0.44,0.26,-1.46,0.07,0.70,
0.105,-0.02,0.49,1.06,-1.46,0.07,0.70,
0.106,-0.02,0.49,1.06,-1.43,0.11,0.69,
0.106,-0.02,0.49,1.06,-1.38,0.14,0.68,
0.106,-0.02,0.49,1.06,-1.34,0.17,0.66,
0.106,-0.02,0.49,1.06,-1.29,0.19,0.64,
0.106,-0.02,0.49,1.06,-1.23,0.22,0.62,
0.107,0.08,0.70,1.69,-1.23,0.22,0.62,
0.107,0.08,0.70,1.69,-1.17,0.24,0.59,
0.107,0.08,0.70,1.69,-1.10,0.26,0.57,
0.107,0.08,0.70,1.69,-1.04,0.28,0.54,
0.107,0.08,0.70,1.69,-0.97,0.28,0.51,
0.108,0.08,0.70,1.69,-0.90,0.28,0.47,
0.108,0.26,0.87,2.07,-0.90,0.28,0.47,
0.108,0.26,0.87,2.07,-0.82,0.27,0.44,
0.108,0.26,0.87,2.07,-0.75,0.24,0.41,
0.108,0.26,0.87,2.07,-0.68,0.18,0.39,
0.109,0.26,0.87,2.07,-0.62,0.09,0.37,
0.109,0.26,0.87,2.07,-0.56,-0.01,0.34,
0.109,0.10,0.53,1.88,-0.56,-0.01,0.34,
0.109,0.10,0.53,1.88,-0.50,-0.10,0.32,
0.109,0.10,0.53,1.88,-0.44,-0.18,0.29,
0.11,0.10,0.53,1.88,-0.39,-0.24,0.26,
0.125,0.10,0.53,1.88,-0.34,-0.29,0.23,
0.125,0.10,0.53,1.88,-0.29,-0.34,0.21,
0.126,-0.37,0.80,1.04,-0.29,-0.34,0.21,
0.126,-0.37,0.80,1.04,-0.25,-0.39,0.18,
0.126,-0.37,0.80,1.04,-0.22,-0.44,0.16,
0.126,-0.37,0.80,1.04,-0.19,-0.49,0.14,
0.126,-0.37,0.80,1.04,-0.16,-0.54,0.13,
0.127,-0.37,0.80,1.04,-0.13,-0.58,0.13,
0.127,-0.96,1.15,0.50,-0.13,-0.58,0.13,
0.127,-0.96,1.15,0.50,-0.12,-0.62,0.13,
0.127,-0.96,1.15,0.50,-0.09,-0.64,0.13,
0.127,-0.96,1.15,0.50,-0.07,-0.66,0.14,
0.13,-0.96,1.15,0.50,-0.05,-0.68,0.16,
0.13,-0.96,1.15,0.50,-0.03,-0.69,0.18,
0.132,-1.47,0.95,0.39,-0.03,-0.69,0.18,
0.133,-1.47,0.95,0.39,-0.02,-0.71,0.21,
0.134,-1.47,0.95,0.39,-0.01,-0.73,0.23,
0.136,-1.47,0.95,0.39,0.01,-0.74,0.27,
0.138,-1.47,0.95,0.39,0.01,-0.76,0.30,
0.141,-1.47,0.95,0.39,0.02,-0.78,0.33,
0.143,-1.81,0.43,0.09,0.02,-0.78,0.33,
0.143,-1.81,0.43,0.09,0.02,-0.79,0.36,
0.144,-1.81,0.43,0.09,0.02,-0.79,0.40,
0.15,-1.81,0.43,0.09,0.01,-0.79,0.43,
0.15,-1.81,0.43,0.09,0.01,-0.77,0.46,
0.15,-1.81,0.43,0.09,0.00,-0.76,0.49,
0.153,-1.87,0.21,-0.54,0.00,-0.76,0.49,
0.153,-1.87,0.21,-0.54,-0.01,-0.74,0.51,
0.154,-1.87,0.21,-0.54,-0.03,-0.72,0.54,
0.156,-1.87,0.21,-0.54,-0.04,-0.70,0.57,
0.158,-1.87,0.21,-0.54,-0.06,-0.69,0.59,
0.16,-1.87,0.21,-0.54,-0.08,-0.68,0.61,
0.162,-1.95,0.34,-1.06,-0.08,-0.68,0.61,
0.163,-1.95,0.34,-1.06,-0.11,-0.67,0.63,
0.164,-1.95,0.34,-1.06,-0.13,-0.67,0.65,
0.166,-1.95,0.34,-1.06,-0.15,-0.66,0.67,
0.168,-1.95,0.34,-1.06,-0.17,-0.66,0.68,
0.17,-1.95,0.34,-1.06,-0.20,-0.65,0.70,
0.172,-1.82,0.65,-1.34,-0.20,-0.65,0.70,
0.173,-1.82,0.65,-1.34,-0.22,-0.64,0.71,
0.188,-1.82,0.65,-1.34,-0.24,-0.63,0.73,
0.188,-1.82,0.65,-1.34,-0.27,-0.62,0.74,
0.189,-1.82,0.65,-1.34,-0.29,-0.60,0.76,
0.189,-1.82,0.65,-1.34,-0.31,-0.58,0.77,
0.189,-1.53,1.23,-1.24,-0.31,-0.58,0.77,
0.189,-1.53,1.23,-1.24,-0.34,-0.56,0.78,
0.189,-1.53,1.23,-1.24,-0.35,-0.54,0.79,
0.189,-1.53,1.23,-1.24,-0.37,-0.52,0.80,
0.189,-1.53,1.23,-1.24,-0.39,-0.50,0.81,
0.191,-1.53,1.23,-1.24,-0.41,-0.48,0.82,
0.193,-1.09,1.63,-0.97,-0.41,-0.48,0.82,
0.193,-1.09,1.63,-0.97,-0.43,-0.46,0.83,
0.194,-1.09,1.63,-0.97,-0.44,-0.44,0.83,
0.197,-1.09,1.63,-0.97,-0.46,-0.42,0.83,
0.198,-1.09,1.63,-0.97,-0.47,-0.39,0.83,
0.201,-1.09,1.63,-0.97,-0.49,-0.37,0.83,
0.205,-0.54,1.69,-0.86,-0.49,-0.37,0.83,
0.205,-0.54,1.69,-0.86,-0.51,-0.33,0.83,
0.229,-0.54,1.69,-0.86,-0.52,-0.31,0.82,
0.23,-0.54,1.69,-0.86,-0.54,-0.27,0.81,
0.23,-0.54,1.69,-0.86,-0.55,-0.25,0.80,
0.23,-0.54,1.69,-0.86,-0.57,-0.23,0.78,
0.23,-0.04,1.36,-0.91,-0.57,-0.23,0.78,
0.23,-0.04,1.36,-0.91,-0.58,-0.21,0.77,
0.231,-0.04,1.36,-0.91,-0.60,-0.21,0.75,
0.231,-0.04,1.36,-0.91,-0.61,-0.21,0.73,
0.231,-0.04,1.36,-0.91,-0.63,-0.21,0.72,
0.231,-0.04,1.36,-0.91,-0.64,-0.23,0.70,
0.231,0.23,1.01,-0.95,-0.64,-0.23,0.70,
0.231,0.23,1.01,-0.95,-0.65,-0.24,0.68,
0.246,0.23,1.01,-0.95,-0.67,-0.25,0.66,
0.246,0.23,1.01,-0.95,-0.68,-0.26,0.65,
0.246,0.23,1.01,-0.95,-0.68,-0.27,0.63,
0.246,0.23,1.01,-0.95,-0.69,-0.28,0.62,
0.246,0.29,0.77,-0.92,-0.69,-0.28,0.62,
0.247,0.29,0.77,-0.92,-0.69,-0.28,0.60,
0.247,0.29,0.77,-0.92,-0.70,-0.28,0.59,
0.247,0.29,0.77,-0.92,-0.70,-0.28,0.58,
0.247,0.29,0.77,-0.92,-0.71,-0.29,0.56,
0.247,0.29,0.77,-0.92,-0.71,-0.29,0.55,
0.247,0.24,0.62,-1.12,-0.71,-0.29,0.55,
0.247,0.24,0.62,-1.12,-0.71,-0.30,0.54,
0.248,0.24,0.62,-1.12,-0.71,-0.31,0.53,
0.248,0.24,0.62,-1.12,-0.71,-0.33,0.52,
0.269,0.24,0.62,-1.12,-0.72,-0.36,0.51,
0.269,0.24,0.62,-1.12,-0.72,-0.39,0.50,
0.269,0.09,0.40,-1.36,-0.72,-0.39,0.50,
0.269,0.09,0.40,-1.36,-0.72,-0.43,0.49,
0.27,0.09,0.40,-1.36,-0.72,-0.47,0.48,
0.27,0.09,0.40,-1.36,-0.72,-0.51,0.47,
0.27,0.09,0.40,-1.36,-0.72,-0.55,0.46,
0.27,0.09,0.40,-1.36,-0.71,-0.59,0.46,
0.27,-0.01,0.33,-1.50,-0.71,-0.59,0.46,
0.27,-0.01,0.33,-1.50,-0.71,-0.63,0.45,
0.271,-0.01,0.33,-1.50,-0.71,-0.67,0.45,
0.271,-0.01,0.33,-1.50,-0.71,-0.71,0.45,
0.271,-0.01,0.33,-1.50,-0.71,-0.74,0.45,
0.271,-0.01,0.33,-1.50,-0.71,-0.78,0.44,
0.274,0.01,0.20,-1.70,-0.71,-0.78,0.44,
0.275,0.01,0.20,-1.70,-0.72,-0.83,0.44,
0.275,0.01,0.20,-1.70,-0.72,-0.87,0.43,
0.286,0.01,0.20,-1.70,-0.72,-0.90,0.43,
0.286,0.01,0.20,-1.70,-0.72,-0.94,0.43,
0.286,0.01,0.20,-1.70,-0.72,-0.97,0.42,
0.286,0.08,0.19,-1.68,-0.72,-0.97,0.42,
0.286,0.08,0.19,-1.68,-0.72,-0.99,0.42,
0.286,0.08,0.19,-1.68,-0.72,-1.00,0.42,
0.287,0.08,0.19,-1.68,-0.71,-1.01,0.41,
0.288,0.08,0.19,-1.68,-0.70,-1.01,0.40,
0.29,0.08,0.19,-1.68,-0.69,-0.99,0.39,
0.294,0.22,0.36,-1.21,-0.69,-0.99,0.39,
0.294,0.22,0.36,-1.21,-0.68,-0.96,0.38,
0.295,0.22,0.36,-1.21,-0.66,-0.92,0.37,
0.296,0.22,0.36,-1.21,-0.65,-0.88,0.36,
0.298,0.22,0.36,-1.21,-0.63,-0.83,0.35,
0.3,0.22,0.36,-1.21,-0.60,-0.78,0.33,
0.302,0.38,0.56,-0.61,-0.60,-0.78,0.33,
0.302,0.38,0.56,-0.61,-0.58,-0.72,0.32,
0.304,0.38,0.56,-0.61,-0.56,-0.66,0.30,
0.306,0.38,0.56,-0.61,-0.53,-0.60,0.28,
0.308,0.38,0.56,-0.61,-0.50,-0.54,0.26,
0.311,0.38,0.56,-0.61,-0.48,-0.49,0.24,
0.313,0.42,0.63,-0.04,-0.48,-0.49,0.24,
0.313,0.42,0.63,-0.04,-0.45,-0.44,0.22,
0.319,0.42,0.63,-0.04,-0.42,-0.38,0.20,
0.319,0.42,0.63,-0.04,-0.39,-0.33,0.17,
0.319,0.42,0.63,-0.04,-0.36,-0.27,0.15,
0.32,0.42,0.63,-0.04,-0.34,-0.21,0.13,
0.335,0.50,0.60,0.30,-0.34,-0.21,0.13,
0.335,0.50,0.60,0.30,-0.31,-0.16,0.10,
0.335,0.50,0.60,0.30,-0.28,-0.11,0.08,
0.335,0.50,0.60,0.30,-0.25,-0.06,0.06,
0.335,0.50,0.60,0.30,-0.23,-0.03,0.04,
0.336,0.50,0.60,0.30,-0.21,-0.01,0.01,
0.336,0.54,0.40,0.20,-0.21,-0.01,0.01,
0.336,0.54,0.40,0.20,-0.19,0.01,-0.01,
0.336,0.54,0.40,0.20,-0.18,0.01,-0.03,
0.336,0.54,0.40,0.20,-0.16,0.01,-0.04,
0.337,0.54,0.40,0.20,-0.15,-0.00,-0.06,
0.34,0.54,0.40,0.20,-0.14,-0.02,-0.08,
0.342,0.56,0.11,-0.15,-0.14,-0.02,-0.08,
0.342,0.56,0.11,-0.15,-0.13,-0.04,-0.10,
0.343,0.56,0.11,-0.15,-0.12,-0.06,-0.12,
0.346,0.56,0.11,-0.15,-0.12,-0.08,-0.13,
0.348,0.56,0.11,-0.15,-0.13,-0.10,-0.14,
0.351,0.56,0.11,-0.15,-0.13,-0.12,-0.16,
0.352,0.49,-0.10,-0.73,-0.13,-0.12,-0.16,
0.352,0.49,-0.10,-0.73,-0.14,-0.14,-0.17,
0.354,0.49,-0.10,-0.73,-0.14,-0.16,-0.18,
0.367,0.49,-0.10,-0.73,-0.16,-0.19,-0.19,
0.367,0.49,-0.10,-0.73,-0.17,-0.23,-0.20,
0.368,0.49,-0.10,-0.73,-0.19,-0.28,-0.20,
0.368,0.04,-0.22,-1.38,-0.19,-0.28,-0.20,
0.368,0.04,-0.22,-1.38,-0.21,-0.33,-0.20,
0.368,0.04,-0.22,-1.38,-0.23,-0.38,-0.20,
0.369,0.04,-0.22,-1.38,-0.25,-0.44,-0.19,
0.369,0.04,-0.22,-1.38,-0.28,-0.51,-0.18,
0.37,0.04,-0.22,-1.38,-0.31,-0.57,-0.17,
0.373,-0.53,-0.22,-1.88,-0.31,-0.57,-0.17,
0.373,-0.53,-0.22,-1.88,-0.34,-0.63,-0.15,
0.374,-0.53,-0.22,-1.88,-0.37,-0.68,-0.13,
0.376,-0.53,-0.22,-1.88,-0.40,-0.74,-0.11,
0.378,-0.53,-0.22,-1.88,-0.43,-0.80,-0.08,
0.38,-0.53,-0.22,-1.88,-0.47,-0.86,-0.04,
0.383,-1.38,0.02,-2.17,-0.47,-0.86,-0.04,
0.383,-1.38,0.02,-2.17,-0.51,-0.90,-0.01,
0.384,-1.38,0.02,-2.17,-0.55,-0.95,0.03,
0.386,-1.38,0.02,-2.17,-0.58,-1.00,0.07,
0.388,-1.38,0.02,-2.17,-0.62,-1.04,0.10,
0.39,-1.38,0.02,-2.17,-0.65,-1.08,0.14,
0.412,-1.57,0.15,-2.03,-0.65,-1.08,0.14,
0.413,-1.57,0.15,-2.03,-0.68,-1.11,0.17,
0.413,-1.57,0.15,-2.03,-0.71,-1.14,0.20,
0.413,-1.57,0.15,-2.03,-0.74,-1.15,0.23,
0.414,-1.57,0.15,-2.03,-0.76,-1.14,0.25,
0.414,-1.57,0.15,-2.03,-0.78,-1.12,0.28,
0.414,-1.10,0.34,-1.26,-0.78,-1.12,0.28,
0.414,-1.10,0.34,-1.26,-0.79,-1.10,0.30,
0.415,-1.10,0.34,-1.26,-0.80,-1.07,0.31,
0.415,-1.10,0.34,-1.26,-0.80,-1.03,0.33,
0.415,-1.10,0.34,-1.26,-0.79,-0.99,0.34,
0.416,-1.10,0.34,-1.26,-0.79,-0.94,0.36,
0.416,-0.47,0.66,-0.08,-0.79,-0.94,0.36,
0.416,-0.47,0.66,-0.08,-0.78,-0.90,0.37,
0.416,-0.47,0.66,-0.08,-0.76,-0.85,0.38,
0.417,-0.47,0.66,-0.08,-0.75,-0.81,0.39,
0.453,-0.47,0.66,-0.08,-0.73,-0.77,0.39,
0.453,-0.47,0.66,-0.08,-0.71,-0.73,0.40,
0.454,0.32,0.67,0.67,-0.71,-0.73,0.40,
0.454,0.32,0.67,0.67,-0.69,-0.70,0.40,
0.454,0.32,0.67,0.67,-0.67,-0.68,0.39,
0.454,0.32,0.67,0.67,-0.65,-0.65,0.39,
0.455,0.32,0.67,0.67,-0.63,-0.63,0.38,
0.455,0.32,0.67,0.67,-0.62,-0.61,0.37,
0.455,1.00,0.45,0.85,-0.62,-0.61,0.37,
0.455,1.00,0.45,0.85,-0.60,-0.59,0.35,
0.456,1.00,0.45,0.85,-0.58,-0.57,0.34,
0.456,1.00,0.45,0.85,-0.57,-0.55,0.32,
0.456,1.00,0.45,0.85,-0.55,-0.53,0.31,
0.456,1.00,0.45,0.85,-0.54,-0.51,0.29,
0.457,1.32,0.28,0.79,-0.54,-0.51,0.29,
0.457,1.32,0.28,0.79,-0.52,-0.49,0.27,
0.457,1.32,0.28,0.79,-0.51,-0.48,0.26,
0.457,1.32,0.28,0.79,-0.49,-0.47,0.24,
0.458,1.32,0.28,0.79,-0.48,-0.46,0.22,
0.458,1.32,0.28,0.79,-0.46,-0.46,0.20,
0.458,1.29,0.24,0.67,-0.46,-0.46,0.20,
0.459,1.29,0.24,0.67,-0.45,-0.45,0.18,
0.459,1.29,0.24,0.67,-0.43,-0.45,0.16,
0.459,1.29,0.24,0.67,-0.42,-0.44,0.15,
0.459,1.29,0.24,0.67,-0.41,-0.44,0.13,
0.46,1.29,0.24,0.67,-0.39,-0.43,0.12,
0.464,1.08,0.33,0.50,-0.39,-0.43,0.12,
0.464,1.08,0.33,0.50,-0.38,-0.42,0.11,
0.464,1.08,0.33,0.50,-0.37,-0.42,0.10,
0.466,1.08,0.33,0.50,-0.36,-0.41,0.09,
0.468,1.08,0.33,0.50,-0.35,-0.42,0.08,
0.47,1.08,0.33,0.50,-0.34,-0.42,0.07,
0.479,0.85,0.39,0.33,-0.34,-0.42,0.07,
0.479,0.85,0.39,0.33,-0.34,-0.44,0.06,
0.479,0.85,0.39,0.33,-0.33,-0.45,0.06,
0.48,0.85,0.39,0.33,-0.33,-0.47,0.05,
0.48,0.85,0.39,0.33,-0.32,-0.48,0.05,
0.48,0.85,0.39,0.33,-0.32,-0.50,0.04,
0.523,0.86,0.33,0.25,-0.32,-0.50,0.04,
0.524,0.86,0.33,0.25,-0.31,-0.51,0.04,
0.524,0.86,0.33,0.25,-0.30,-0.51,0.03,
0.524,0.86,0.33,0.25,-0.29,-0.51,0.03,
0.524,0.86,0.33,0.25,-0.27,-0.51,0.03,
0.525,0.86,0.33,0.25,-0.26,-0.50,0.03,
0.525,0.73,0.28,0.52,-0.26,-0.50,0.03,
0.525,0.73,0.28,0.52,-0.24,-0.49,0.03,
0.525,0.73,0.28,0.52,-0.22,-0.47,0.04,
0.525,0.73,0.28,0.52,-0.21,-0.45,0.05,
0.526,0.73,0.28,0.52,-0.19,-0.42,0.05,
0.526,0.73,0.28,0.52,-0.17,-0.39,0.06,
0.526,0.50,0.21,0.66,-0.17,-0.39,0.06,
0.526,0.50,0.21,0.66,-0.15,-0.36,0.07,
0.526,0.50,0.21,0.66,-0.13,-0.34,0.08,
0.526,0.50,0.21,0.66,-0.12,-0.31,0.09,
0.527,0.50,0.21,0.66,-0.11,-0.29,0.10,
0.527,0.50,0.21,0.66,-0.09,-0.27,0.12,
0.527,0.30,0.04,0.53,-0.09,-0.27,0.12,
0.527,0.30,0.04,0.53,-0.08,-0.26,0.13,
0.527,0.30,0.04,0.53,-0.07,-0.24,0.14,
0.527,0.30,0.04,0.53,-0.06,-0.23,0.15,
0.528,0.30,0.04,0.53,-0.06,-0.22,0.17,
0.528,0.30,0.04,0.53,-0.05,-0.21,0.18,
0.528,0.14,-0.09,0.21,-0.05,-0.21,0.18,
0.528,0.14,-0.09,0.21,-0.04,-0.21,0.20,
0.528,0.14,-0.09,0.21,-0.04,-0.20,0.22,
0.529,0.14,-0.09,0.21,-0.04,-0.20,0.23,
0.529,0.14,-0.09,0.21,-0.04,-0.21,0.25,
0.532,0.14,-0.09,0.21,-0.04,-0.21,0.27,
0.532,-0.06,-0.14,-0.11,-0.04,-0.21,0.27,
0.532,-0.06,-0.14,-0.11,-0.03,-0.21,0.28,
0.535,-0.06,-0.14,-0.11,-0.03,-0.22,0.30,
0.537,-0.06,-0.14,-0.11,-0.03,-0.24,0.32,
0.539,-0.06,-0.14,-0.11,-0.03,-0.25,0.34,
0.541,-0.06,-0.14,-0.11,-0.03,-0.27,0.36,
0.543,-0.21,-0.16,-0.16,-0.03,-0.27,0.36,
0.543,-0.21,-0.16,-0.16,-0.02,-0.29,0.38,
0.545,-0.21,-0.16,-0.16,-0.01,-0.31,0.41,
0.546,-0.21,-0.16,-0.16,-0.01,-0.32,0.43,
0.548,-0.21,-0.16,-0.16,0.00,-0.34,0.45,
0.551,-0.21,-0.16,-0.16,0.01,-0.34,0.48,
0.553,-0.26,-0.09,0.11,0.01,-0.34,0.48,
0.553,-0.26,-0.09,0.11,0.02,-0.35,0.50,
0.554,-0.26,-0.09,0.11,0.03,-0.35,0.53,
0.556,-0.26,-0.09,0.11,0.03,-0.34,0.56,
0.575,-0.26,-0.09,0.11,0.04,-0.34,0.59,
0.575,-0.26,-0.09,0.11,0.04,-0.32,0.63,
0.576,-0.23,-0.03,0.31,0.04,-0.32,0.63,
0.576,-0.23,-0.03,0.31,0.04,-0.29,0.67,
0.576,-0.23,-0.03,0.31,0.04,-0.27,0.71,
0.577,-0.23,-0.03,0.31,0.04,-0.24,0.75,
0.577,-0.23,-0.03,0.31,0.03,-0.23,0.79,
0.577,-0.23,-0.03,0.31,0.03,-0.22,0.83,
0.577,-0.09,0.07,0.40,0.03,-0.22,0.83,
0.577,-0.09,0.07,0.40,0.03,-0.22,0.87,
0.578,-0.09,0.07,0.40,0.03,-0.23,0.90,
0.578,-0.09,0.07,0.40,0.04,-0.25,0.92,
0.578,-0.09,0.07,0.40,0.04,-0.27,0.94,
0.603,-0.09,0.07,0.40,0.04,-0.30,0.95,
0.603,0.50,0.27,0.48,0.04,-0.30,0.95,
0.604,0.50,0.27,0.48,0.04,-0.34,0.96,
0.604,0.50,0.27,0.48,0.04,-0.38,0.97,
0.604,0.50,0.27,0.48,0.04,-0.43,0.96,
0.604,0.50,0.27,0.48,0.03,-0.47,0.95,
0.604,0.50,0.27,0.48,0.03,-0.50,0.93,
0.604,1.40,0.51,0.35,0.03,-0.50,0.93,
0.604,1.40,0.51,0.35,0.02,-0.53,0.89,
0.605,1.40,0.51,0.35,0.00,-0.56,0.85,
0.605,1.40,0.51,0.35,-0.01,-0.59,0.81,
0.605,1.40,0.51,0.35,-0.02,-0.61,0.76,
0.605,1.40,0.51,0.35,-0.03,-0.63,0.70,
0.605,2.34,1.02,0.44,-0.03,-0.63,0.70,
0.607,2.34,1.02,0.44,-0.04,-0.64,0.64,
0.607,2.34,1.02,0.44,-0.04,-0.64,0.58,
0.607,2.34,1.02,0.44,-0.05,-0.65,0.51,
0.608,2.34,1.02,0.44,-0.06,-0.64,0.44,
0.61,2.34,1.02,0.44,-0.07,-0.64,0.37,
0.612,2.83,1.20,0.74,-0.07,-0.64,0.37,
0.612,2.83,1.20,0.74,-0.08,-0.64,0.31,
0.613,2.83,1.20,0.74,-0.09,-0.63,0.24,
0.615,2.83,1.20,0.74,-0.10,-0.62,0.17,
0.617,2.83,1.20,0.74,-0.12,-0.60,0.10,
0.619,2.83,1.20,0.74,-0.14,-0.59,0.04,
0.624,3.11,1.00,0.71,-0.14,-0.59,0.04,
0.624,3.11,1.00,0.71,-0.18,-0.57,-0.06,
0.624,3.11,1.00,0.71,-0.19,-0.57,-0.09,
0.626,3.11,1.00,0.71,-0.23,-0.56,-0.14,
0.628,3.11,1.00,0.71,-0.26,-0.55,-0.19,
0.632,3.11,1.00,0.71,-0.31,-0.55,-0.25,
0.632,2.78,0.70,0.36,-0.31,-0.55,-0.25,
0.635,2.78,0.70,0.36,-0.35,-0.55,-0.29,
0.636,2.78,0.70,0.36,-0.39,-0.55,-0.33,
0.636,2.78,0.70,0.36,-0.44,-0.55,-0.37,
0.646,2.78,0.70,0.36,-0.49,-0.55,-0.40,
0.646,2.78,0.70,0.36,-0.54,-0.55,-0.44,
0.646,2.21,0.43,0.23,-0.54,-0.55,-0.44,
0.646,2.21,0.43,0.23,-0.59,-0.55,-0.46,
0.646,2.21,0.43,0.23,-0.64,-0.54,-0.49,
0.647,2.21,0.43,0.23,-0.69,-0.53,-0.51,
0.648,2.21,0.43,0.23,-0.73,-0.51,-0.53,
0.65,2.21,0.43,0.23,-0.78,-0.49,-0.55,
0.652,1.67,0.02,0.42,-0.78,-0.49,-0.55,
0.653,1.67,0.02,0.42,-0.82,-0.46,-0.57,
0.654,1.67,0.02,0.42,-0.86,-0.43,-0.58,
0.656,1.67,0.02,0.42,-0.89,-0.40,-0.59,
0.658,1.67,0.02,0.42,-0.92,-0.36,-0.60,
0.66,1.67,0.02,0.42,-0.95,-0.31,-0.61,
0.662,1.17,-0.44,0.96,-0.95,-0.31,-0.61,
0.662,1.17,-0.44,0.96,-0.97,-0.27,-0.61,
0.663,1.17,-0.44,0.96,-0.99,-0.21,-0.61,
0.666,1.17,-0.44,0.96,-1.00,-0.16,-0.61,
0.667,1.17,-0.44,0.96,-1.02,-0.10,-0.60,
0.669,1.17,-0.44,0.96,-1.03,-0.04,-0.59,
0.672,0.50,-0.68,1.62,-1.03,-0.04,-0.59,
0.673,0.50,-0.68,1.62,-1.02,0.02,-0.57,
0.673,0.50,-0.68,1.62,-1.03,0.07,-0.55,
0.676,0.50,-0.68,1.62,-1.03,0.13,-0.52,
0.677,0.50,-0.68,1.62,-1.02,0.18,-0.49,
0.679,0.50,-0.68,1.62,-1.01,0.22,-0.46,
0.682,-0.20,-0.95,2.00,-1.01,0.22,-0.46,
0.682,-0.20,-0.95,2.00,-1.01,0.26,-0.43,
0.683,-0.20,-0.95,2.00,-1.00,0.29,-0.40,
0.685,-0.20,-0.95,2.00,-0.99,0.32,-0.37,
0.688,-0.20,-0.95,2.00,-0.97,0.34,-0.34,
0.69,-0.20,-0.95,2.00,-0.96,0.36,-0.31,
0.692,-0.50,-0.99,2.24,-0.96,0.36,-0.31,
0.692,-0.50,-0.99,2.24,-0.95,0.37,-0.28,
0.694,-0.50,-0.99,2.24,-0.93,0.39,-0.26,
0.696,-0.50,-0.99,2.24,-0.91,0.40,-0.24,
0.698,-0.50,-0.99,2.24,-0.89,0.41,-0.23,
0.7,-0.50,-0.99,2.24,-0.87,0.42,-0.21,
0.702,-0.36,-0.88,2.51,-0.87,0.42,-0.21,
0.702,-0.36,-0.88,2.51,-0.84,0.43,-0.21,
0.705,-0.36,-0.88,2.51,-0.82,0.44,-0.21,
0.706,-0.36,-0.88,2.51,-0.79,0.44,-0.21,
0.708,-0.36,-0.88,2.51,-0.76,0.44,-0.21,
0.71,-0.36,-0.88,2.51,-0.73,0.44,-0.22,
0.713,-0.04,-0.62,2.76,-0.73,0.44,-0.22,
0.713,-0.04,-0.62,2.76,-0.69,0.42,-0.23,
0.714,-0.04,-0.62,2.76,-0.66,0.41,-0.25,
0.716,-0.04,-0.62,2.76,-0.62,0.39,-0.26,
0.718,-0.04,-0.62,2.76,-0.58,0.36,-0.28,
0.721,-0.04,-0.62,2.76,-0.54,0.33,-0.29,
0.727,0.13,-0.44,2.98,-0.54,0.33,-0.29,
0.728,0.13,-0.44,2.98,-0.50,0.31,-0.31,
0.747,0.13,-0.44,2.98,-0.46,0.28,-0.32,
0.747,0.13,-0.44,2.98,-0.42,0.26,-0.34,
0.747,0.13,-0.44,2.98,-0.39,0.25,-0.35,
0.747,0.13,-0.44,2.98,-0.35,0.23,-0.36,
0.748,-0.01,-0.24,2.98,-0.35,0.23,-0.36,
0.748,-0.01,-0.24,2.98,-0.31,0.21,-0.37,
0.748,-0.01,-0.24,2.98,-0.28,0.19,-0.38,
0.748,-0.01,-0.24,2.98,-0.25,0.18,-0.38,
0.748,-0.01,-0.24,2.98,-0.21,0.16,-0.39,
0.749,-0.01,-0.24,2.98,-0.19,0.15,-0.40,
0.749,-0.14,-0.26,2.76,-0.19,0.15,-0.40,
0.749,-0.14,-0.26,2.76,-0.16,0.13,-0.41,
0.749,-0.14,-0.26,2.76,-0.13,0.11,-0.42,
0.749,-0.14,-0.26,2.76,-0.11,0.10,-0.44,
0.774,-0.14,-0.26,2.76,-0.09,0.08,-0.45,
0.775,-0.14,-0.26,2.76,-0.07,0.07,-0.46,
0.775,-0.22,-0.39,2.45,-0.07,0.07,-0.46,
0.775,-0.22,-0.39,2.45,-0.05,0.06,-0.47,
0.775,-0.22,-0.39,2.45,-0.04,0.05,-0.47,
0.775,-0.22,-0.39,2.45,-0.02,0.04,-0.48,
0.776,-0.22,-0.39,2.45,-0.01,0.03,-0.48,
0.776,-0.22,-0.39,2.45,-0.00,0.03,-0.48,
0.776,-0.55,-0.49,2.05,-0.00,0.03,-0.48,
0.776,-0.55,-0.49,2.05,-0.00,0.02,-0.48,
0.776,-0.55,-0.49,2.05,0.00,0.02,-0.47,
0.777,-0.55,-0.49,2.05,0.00,0.01,-0.47,
0.777,-0.55,-0.49,2.05,-0.00,0.01,-0.46,
0.777,-0.55,-0.49,2.05,-0.01,0.01,-0.45,
0.777,-0.70,-0.54,1.62,-0.01,0.01,-0.45,
0.778,-0.70,-0.54,1.62,-0.02,0.00,-0.44,
0.778,-0.70,-0.54,1.62,-0.03,-0.00,-0.43,
0.778,-0.70,-0.54,1.62,-0.05,-0.01,-0.42,
0.778,-0.70,-0.54,1.62,-0.06,-0.01,-0.41,
0.784,-0.70,-0.54,1.62,-0.08,-0.01,-0.39,
0.784,-0.81,-0.66,1.46,-0.08,-0.01,-0.39,
0.785,-0.81,-0.66,1.46,-0.10,-0.01,-0.38,
0.785,-0.81,-0.66,1.46,-0.11,-0.01,-0.36,
0.788,-0.81,-0.66,1.46,-0.13,-0.00,-0.35,
0.788,-0.81,-0.66,1.46,-0.14,0.00,-0.33,
0.79,-0.81,-0.66,1.46,-0.15,0.02,-0.31,
0.801,-0.81,-0.66,1.58,-0.15,0.02,-0.31,
0.802,-0.81,-0.66,1.58,-0.17,0.04,-0.29,
0.802,-0.81,-0.66,1.58,-0.17,0.05,-0.28,
0.802,-0.81,-0.66,1.58,-0.18,0.07,-0.27,
0.802,-0.81,-0.66,1.58,-0.19,0.09,-0.26,
0.802,-0.81,-0.66,1.58,-0.19,0.10,-0.25,
0.848,-0.34,-0.87,1.83,-0.19,0.10,-0.25,
0.848,-0.34,-0.87,1.83,-0.20,0.12,-0.24,
0.848,-0.34,-0.87,1.83,-0.19,0.13,-0.24,
0.849,-0.34,-0.87,1.83,-0.19,0.14,-0.23,
0.849,-0.34,-0.87,1.83,-0.19,0.15,-0.23,
0.849,-0.34,-0.87,1.83,-0.18,0.15,-0.23,
0.849,0.22,-1.04,2.18,-0.18,0.15,-0.23,
0.849,0.22,-1.04,2.18,-0.17,0.15,-0.23,
0.849,0.22,-1.04,2.18,-0.15,0.16,-0.23,
0.849,0.22,-1.04,2.18,-0.13,0.16,-0.23,
0.849,0.22,-1.04,2.18,-0.11,0.16,-0.23,
0.85,0.22,-1.04,2.18,-0.09,0.17,-0.23,
0.85,0.48,-0.94,2.52,-0.09,0.17,-0.23,
0.85,0.48,-0.94,2.52,-0.06,0.18,-0.23,
0.85,0.48,-0.94,2.52,-0.03,0.18,-0.23,
0.85,0.48,-0.94,2.52,0.00,0.18,-0.23,
0.85,0.48,-0.94,2.52,0.04,0.19,-0.23,
0.85,0.48,-0.94,2.52,0.07,0.19,-0.24,
0.85,0.73,-0.79,2.64,0.07,0.19,-0.24,
0.85,0.73,-0.79,2.64,0.11,0.20,-0.24,
0.851,0.73,-0.79,2.64,0.15,0.20,-0.25,
0.851,0.73,-0.79,2.64,0.19,0.21,-0.26,
0.851,0.73,-0.79,2.64,0.23,0.21,-0.27,
0.851,0.73,-0.79,2.64,0.27,0.21,-0.28,
0.851,0.99,-0.77,2.39,0.27,0.21,-0.28,
0.851,0.99,-0.77,2.39,0.31,0.21,-0.29,
0.851,0.99,-0.77,2.39,0.35,0.22,-0.30,
0.851,0.99,-0.77,2.39,0.38,0.22,-0.32,
0.852,0.99,-0.77,2.39,0.42,0.22,-0.33,
0.852,0.99,-0.77,2.39,0.46,0.22,-0.34,
0.852,1.08,-0.76,1.72,0.46,0.22,-0.34,
0.852,1.08,-0.76,1.72,0.50,0.22,-0.35,
0.855,1.08,-0.76,1.72,0.53,0.22,-0.37,
0.859,1.08,-0.76,1.72,0.56,0.22,-0.38,
0.86,1.08,-0.76,1.72,0.59,0.22,-0.38,
0.86,1.08,-0.76,1.72,0.62,0.21,-0.39,
0.862,0.90,-0.83,0.85,0.62,0.21,-0.39,
0.862,0.90,-0.83,0.85,0.65,0.21,-0.39,
0.863,0.90,-0.83,0.85,0.68,0.20,-0.39,
0.869,0.90,-0.83,0.85,0.70,0.20,-0.39,
0.869,0.90,-0.83,0.85,0.73,0.19,-0.39,
0.873,0.90,-0.83,0.85,0.75,0.19,-0.39,
0.874,0.51,-0.89,-0.07,0.75,0.19,-0.39,
0.874,0.51,-0.89,-0.07,0.77,0.18,-0.38,
0.874,0.51,-0.89,-0.07,0.79,0.17,-0.37,
0.876,0.51,-0.89,-0.07,0.80,0.17,-0.37,
0.878,0.51,-0.89,-0.07,0.82,0.17,-0.35,
0.88,0.51,-0.89,-0.07,0.83,0.17,-0.34,
0.882,0.21,-1.01,-1.04,0.83,0.17,-0.34,
0.883,0.21,-1.01,-1.04,0.84,0.16,-0.33,
0.883,0.21,-1.01,-1.04,0.85,0.16,-0.32,
0.886,0.21,-1.01,-1.04,0.86,0.16,-0.31,
0.893,0.21,-1.01,-1.04,0.86,0.16,-0.30,
0.893,0.21,-1.01,-1.04,0.86,0.16,-0.28,
0.906,0.11,-1.05,-1.91,0.86,0.16,-0.28,
0.906,0.11,-1.05,-1.91,0.86,0.16,-0.27,
0.906,0.11,-1.05,-1.91,0.86,0.16,-0.26,
0.906,0.11,-1.05,-1.91,0.86,0.16,-0.25,
0.907,0.11,-1.05,-1.91,0.86,0.16,-0.24,
0.907,0.11,-1.05,-1.91,0.85,0.16,-0.23,
0.907,0.18,-1.05,-2.56,0.85,0.16,-0.23,
0.907,0.18,-1.05,-2.56,0.84,0.16,-0.22,
0.907,0.18,-1.05,-2.56,0.84,0.15,-0.20,
0.927,0.18,-1.05,-2.56,0.83,0.15,-0.20,
0.927,0.18,-1.05,-2.56,0.83,0.15,-0.19,
0.928,0.18,-1.05,-2.56,0.82,0.15,-0.19,
0.928,0.48,-0.99,-3.03,0.82,0.15,-0.19,
0.928,0.48,-0.99,-3.03,0.81,0.14,-0.19,
0.928,0.48,-0.99,-3.03,0.80,0.14,-0.19,
0.928,0.48,-0.99,-3.03,0.79,0.14,-0.19,
0.928,0.48,-0.99,-3.03,0.78,0.14,-0.20,
0.928,0.48,-0.99,-3.03,0.77,0.14,-0.21,
0.928,0.92,-0.85,-3.33,0.77,0.14,-0.21,
0.929,0.92,-0.85,-3.33,0.77,0.14,-0.22,
0.929,0.92,-0.85,-3.33,0.76,0.14,-0.23,
0.929,0.92,-0.85,-3.33,0.74,0.14,-0.24,
0.929,0.92,-0.85,-3.33,0.73,0.14,-0.26,
0.93,0.92,-0.85,-3.33,0.72,0.14,-0.28,
0.933,1.23,-0.67,-3.55,0.72,0.14,-0.28,
0.933,1.23,-0.67,-3.55,0.71,0.13,-0.30,
0.934,1.23,-0.67,-3.55,0.70,0.14,-0.31,
0.937,1.23,-0.67,-3.55,0.69,0.13,-0.33,
0.938,1.23,-0.67,-3.55,0.68,0.13,-0.35,
0.94,1.23,-0.67,-3.55,0.67,0.12,-0.37,
0.943,1.32,-0.50,-3.67,0.67,0.12,-0.37,
0.944,1.32,-0.50,-3.67,0.66,0.11,-0.39,
0.944,1.32,-0.50,-3.67,0.65,0.10,-0.41,
0.946,1.32,-0.50,-3.67,0.64,0.09,-0.43,
0.948,1.32,-0.50,-3.67,0.63,0.08,-0.44,
0.95,1.32,-0.50,-3.67,0.62,0.06,-0.46,
0.952,1.17,-0.41,-3.63,0.62,0.06,-0.46,
0.953,1.17,-0.41,-3.63,0.61,0.05,-0.48,
0.954,1.17,-0.41,-3.63,0.60,0.03,-0.49,
0.956,1.17,-0.41,-3.63,0.59,0.02,-0.51,
0.958,1.17,-0.41,-3.63,0.58,0.01,-0.52,
0.96,1.17,-0.41,-3.63,0.56,-0.01,-0.53,
0.962,0.96,-0.30,-3.64,0.56,-0.01,-0.53,
0.962,0.96,-0.30,-3.64,0.55,-0.02,-0.55,
0.965,0.96,-0.30,-3.64,0.53,-0.03,-0.56,
0.965,0.96,-0.30,-3.64,0.52,-0.03,-0.56,
0.968,0.96,-0.30,-3.64,0.50,-0.04,-0.57,
0.97,0.96,-0.30,-3.64,0.49,-0.05,-0.57,
0.973,0.96,-0.30,-3.64,0.47,-0.05,-0.58,
0.974,0.50,-0.25,-3.54,0.47,-0.05,-0.58,
0.979,0.50,-0.25,-3.54,0.43,-0.05,-0.57,
0.98,0.50,-0.25,-3.54,0.41,-0.04,-0.56,
0.982,0.33,-0.30,-3.37,0.41,-0.04,-0.56,
0.982,0.33,-0.30,-3.37,0.41,-0.03,-0.56,
0.984,0.33,-0.30,-3.37,0.40,-0.02,-0.55,
0.984,0.33,-0.30,-3.37,0.40,-0.02,-0.55,
0.984,0.33,-0.30,-3.37,0.40,-0.02,-0.55,
0.986,0.33,-0.30,-3.37,0.38,-0.01,-0.54,
0.988,0.33,-0.30,-3.37,0.37,0.00,-0.52,
0.99,0.33,-0.30,-3.37,0.36,0.01,-0.51,
0.992,0.15,-0.26,-3.15,0.36,0.01,-0.51,
0.992,0.15,-0.26,-3.15,0.34,0.02,-0.49,
0.993,0.15,-0.26,-3.15,0.33,0.03,-0.48,
0.995,0.15,-0.26,-3.15,0.31,0.04,-0.47,
0.997,0.15,-0.26,-3.15,0.30,0.04,-0.45,
1.0,0.15,-0.26,-3.15,0.27,0.05,-0.43,
1.003,0.17,-0.30,-2.87,0.27,0.05,-0.43,
1.003,0.17,-0.30,-2.87,0.25,0.06,-0.41,
1.004,0.17,-0.30,-2.87,0.23,0.07,-0.39,
1.006,0.17,-0.30,-2.87,0.21,0.08,-0.37,
1.008,0.17,-0.30,-2.87,0.18,0.09,-0.35,
1.01,0.17,-0.30,-2.87,0.16,0.10,-0.32,
1.012,0.10,-0.30,-2.40,0.16,0.10,-0.32,
1.012,0.10,-0.30,-2.40,0.14,0.11,-0.29,
1.013,0.10,-0.30,-2.40,0.12,0.12,-0.26,
1.016,0.10,-0.30,-2.40,0.09,0.13,-0.23,
1.018,0.10,-0.30,-2.40,0.07,0.14,-0.19,
1.02,0.10,-0.30,-2.40,0.05,0.14,-0.16,
1.023,0.01,-0.28,-1.78,0.05,0.14,-0.16,
1.024,0.01,-0.28,-1.78,0.03,0.15,-0.13,
1.024,0.01,-0.28,-1.78,0.01,0.16,-0.09,
1.027,0.01,-0.28,-1.78,-0.01,0.17,-0.06,
1.028,0.01,-0.28,-1.78,-0.03,0.19,-0.02,
1.032,0.01,-0.28,-1.78,-0.05,0.20,0.01,
1.032,0.00,-0.26,-1.19,-0.05,0.20,0.01,
1.032,0.00,-0.26,-1.19,-0.07,0.21,0.04,
1.036,0.00,-0.26,-1.19,-0.09,0.22,0.06,
1.036,0.00,-0.26,-1.19,-0.11,0.24,0.08,
1.042,0.00,-0.26,-1.19,-0.13,0.26,0.11,
1.043,0.00,-0.26,-1.19,-0.15,0.28,0.12,
1.043,0.23,-0.12,-0.69,-0.15,0.28,0.12,
1.043,0.23,-0.12,-0.69,-0.17,0.29,0.14,
1.045,0.23,-0.12,-0.69,-0.18,0.31,0.15,
1.048,0.23,-0.12,-0.69,-0.20,0.34,0.16,
1.048,0.23,-0.12,-0.69,-0.22,0.36,0.17,
1.05,0.23,-0.12,-0.69,-0.24,0.38,0.17,
1.086,0.47,0.12,-0.27,-0.24,0.38,0.17,
1.087,0.47,0.12,-0.27,-0.25,0.40,0.17,
1.087,0.47,0.12,-0.27,-0.27,0.42,0.17,
1.087,0.47,0.12,-0.27,-0.28,0.44,0.16,
1.104,0.47,0.12,-0.27,-0.29,0.45,0.16,
1.104,0.47,0.12,-0.27,-0.30,0.47,0.14,
1.104,0.56,0.48,0.12,-0.30,0.47,0.14,
1.104,0.56,0.48,0.12,-0.31,0.47,0.13,
1.104,0.56,0.48,0.12,-0.31,0.48,0.12,
1.105,0.56,0.48,0.12,-0.32,0.49,0.11,
1.105,0.56,0.48,0.12,-0.32,0.48,0.09,
1.105,0.56,0.48,0.12,-0.32,0.47,0.07,
1.105,0.56,0.70,0.53,-0.32,0.47,0.07,
1.105,0.56,0.70,0.53,-0.32,0.47,0.06,
1.106,0.56,0.70,0.53,-0.33,0.46,0.04,
1.106,0.56,0.70,0.53,-0.32,0.45,0.02,
1.106,0.56,0.70,0.53,-0.32,0.44,0.00,
1.106,0.56,0.70,0.53,-0.32,0.43,-0.01,
1.106,0.41,0.90,0.94,-0.32,0.43,-0.01,
1.106,0.41,0.90,0.94,-0.32,0.42,-0.03,
1.107,0.41,0.90,0.94,-0.31,0.41,-0.05,
1.107,0.41,0.90,0.94,-0.31,0.40,-0.07,
1.107,0.41,0.90,0.94,-0.30,0.40,-0.09,
1.107,0.41,0.90,0.94,-0.29,0.39,-0.11,
1.107,0.41,0.78,1.50,-0.29,0.39,-0.11,
1.108,0.41,0.78,1.50,-0.28,0.38,-0.12,
1.108,0.41,0.78,1.50,-0.27,0.37,-0.14,
1.108,0.41,0.78,1.50,-0.25,0.36,-0.16,
1.108,0.41,0.78,1.50,-0.23,0.35,-0.18,
1.108,0.41,0.78,1.50,-0.22,0.33,-0.20,
1.109,0.28,0.70,2.26,-0.22,0.33,-0.20,
1.109,0.28,0.70,2.26,-0.20,0.32,-0.21,
1.109,0.28,0.70,2.26,-0.17,0.30,-0.22,
1.109,0.28,0.70,2.26,-0.15,0.28,-0.23,
1.109,0.28,0.70,2.26,-0.13,0.26,-0.24,
1.109,0.28,0.70,2.26,-0.11,0.25,-0.25,
1.119,0.02,0.89,2.95,-0.11,0.25,-0.25,
1.12,0.02,0.89,2.95,-0.08,0.23,-0.25,
1.12,0.02,0.89,2.95,-0.06,0.22,-0.26,
1.12,0.02,0.89,2.95,-0.03,0.20,-0.26,
1.121,0.02,0.89,2.95,-0.01,0.19,-0.27,
1.121,0.02,0.89,2.95,0.02,0.18,-0.27,
1.125,-0.23,1.05,3.32,0.02,0.18,-0.27,
1.125,-0.23,1.05,3.32,0.04,0.18,-0.27,
1.125,-0.23,1.05,3.32,0.07,0.18,-0.27,
1.126,-0.23,1.05,3.32,0.09,0.18,-0.27,
1.13,-0.23,1.05,3.32,0.11,0.18,-0.27,
1.13,-0.23,1.05,3.32,0.13,0.19,-0.27,
1.134,-0.34,0.89,3.41,0.13,0.19,-0.27,
1.134,-0.34,0.89,3.41,0.15,0.19,-0.27,
1.135,-0.34,0.89,3.41,0.17,0.20,-0.27,
1.14,-0.34,0.89,3.41,0.18,0.21,-0.26,
1.14,-0.34,0.89,3.41,0.20,0.22,-0.26,
1.142,-0.34,0.89,3.41,0.21,0.23,-0.24,
1.142,-0.59,0.68,3.35,0.21,0.23,-0.24,
1.143,-0.59,0.68,3.35,0.22,0.24,-0.23,
1.144,-0.59,0.68,3.35,0.24,0.26,-0.22,
1.146,-0.59,0.68,3.35,0.25,0.27,-0.20,
1.148,-0.59,0.68,3.35,0.26,0.28,-0.18,
1.15,-0.59,0.68,3.35,0.26,0.30,-0.16,
1.156,-0.84,0.69,3.17,0.26,0.30,-0.16,
1.156,-0.84,0.69,3.17,0.27,0.31,-0.14,
1.156,-0.84,0.69,3.17,0.27,0.32,-0.12,
1.156,-0.84,0.69,3.17,0.28,0.34,-0.11,
1.158,-0.84,0.69,3.17,0.28,0.35,-0.10,
1.16,-0.84,0.69,3.17,0.28,0.36,-0.09,
1.163,-0.61,0.80,2.89,0.28,0.36,-0.09,
1.164,-0.61,0.80,2.89,0.28,0.36,-0.08,
1.164,-0.61,0.80,2.89,0.28,0.37,-0.07,
1.166,-0.61,0.80,2.89,0.28,0.37,-0.07,
1.168,-0.61,0.80,2.89,0.28,0.36,-0.08,
1.173,-0.61,0.80,2.89,0.27,0.36,-0.08,
1.174,-0.15,0.94,2.61,0.27,0.36,-0.08,
1.174,-0.15,0.94,2.61,0.26,0.35,-0.09,
1.174,-0.15,0.94,2.61,0.25,0.34,-0.10,
1.176,-0.15,0.94,2.61,0.24,0.33,-0.12,
1.178,-0.15,0.94,2.61,0.23,0.31,-0.14,
1.18,-0.15,0.94,2.61,0.22,0.30,-0.16,
1.183,0.20,1.07,2.39,0.22,0.30,-0.16,
1.183,0.20,1.07,2.39,0.21,0.28,-0.18,
1.184,0.20,1.07,2.39,0.20,0.27,-0.21,
1.186,0.20,1.07,2.39,0.19,0.25,-0.23,
1.188,0.20,1.07,2.39,0.18,0.23,-0.26,
1.19,0.20,1.07,2.39,0.16,0.22,-0.29,
1.192,0.32,1.14,2.23,0.16,0.22,-0.29,
1.193,0.32,1.14,2.23,0.15,0.20,-0.32,
1.194,0.32,1.14,2.23,0.14,0.18,-0.35,
1.196,0.32,1.14,2.23,0.12,0.15,-0.38,
1.198,0.32,1.14,2.23,0.11,0.13,-0.40,
1.2,0.32,1.14,2.23,0.09,0.11,-0.43,
1.203,0.19,1.01,2.19,0.09,0.11,-0.43,
1.203,0.19,1.01,2.19,0.08,0.09,-0.46,
1.204,0.19,1.01,2.19,0.07,0.07,-0.48,
1.206,0.19,1.01,2.19,0.06,0.05,-0.50,
1.208,0.19,1.01,2.19,0.04,0.04,-0.51,
1.212,0.19,1.01,2.19,0.03,0.03,-0.52,
1.212,-0.23,0.80,2.37,0.03,0.03,-0.52,
1.212,-0.23,0.80,2.37,0.02,0.02,-0.53,
1.216,-0.23,0.80,2.37,0.01,0.01,-0.54,
1.217,-0.23,0.80,2.37,0.00,0.00,-0.55,
1.219,-0.23,0.80,2.37,-0.00,-0.00,-0.55,
1.22,-0.23,0.80,2.37,-0.00,-0.00,-0.55,
1.223,-0.73,0.38,2.79,-0.00,-0.00,-0.55,
1.223,-0.73,0.38,2.79,-0.00,-0.00,-0.55,
1.235,-0.73,0.38,2.79,0.00,0.00,-0.54,
1.236,-0.73,0.38,2.79,0.01,0.01,-0.53,
1.236,-0.73,0.38,2.79,0.02,0.03,-0.52,
1.236,-0.73,0.38,2.79,0.04,0.04,-0.50,
1.236,-1.23,-0.00,3.35,0.04,0.04,-0.50,
1.236,-1.23,-0.00,3.35,0.06,0.06,-0.49,
1.236,-1.23,-0.00,3.35,0.08,0.08,-0.46,
1.259,-1.23,-0.00,3.35,0.11,0.11,-0.44,
1.26,-1.23,-0.00,3.35,0.14,0.14,-0.41,
1.26,-1.23,-0.00,3.35,0.17,0.16,-0.38,
1.26,-1.78,-0.34,3.76,0.17,0.16,-0.38,
1.26,-1.78,-0.34,3.76,0.20,0.19,-0.35,
1.261,-1.78,-0.34,3.76,0.24,0.22,-0.32,
1.261,-1.78,-0.34,3.76,0.28,0.25,-0.28,
1.261,-1.78,-0.34,3.76,0.31,0.27,-0.25,
1.261,-1.78,-0.34,3.76,0.34,0.29,-0.21,
1.261,-2.14,-0.52,3.63,0.34,0.29,-0.21,
1.261,-2.14,-0.52,3.63,0.38,0.30,-0.18,
1.262,-2.14,-0.52,3.63,0.41,0.32,-0.14,
1.262,-2.14,-0.52,3.63,0.44,0.33,-0.11,
1.262,-2.14,-0.52,3.63,0.47,0.33,-0.08,
1.262,-2.14,-0.52,3.63,0.49,0.33,-0.05,
1.265,-2.27,-0.61,3.00,0.49,0.33,-0.05,
1.265,-2.27,-0.61,3.00,0.52,0.33,-0.03,
1.265,-2.27,-0.61,3.00,0.54,0.32,-0.00,
1.267,-2.27,-0.61,3.00,0.55,0.31,0.02,
1.269,-2.27,-0.61,3.00,0.57,0.29,0.05,
1.27,-2.27,-0.61,3.00,0.58,0.27,0.07,
1.273,-2.23,-0.49,2.16,0.58,0.27,0.07,
1.273,-2.23,-0.49,2.16,0.59,0.25,0.09,
1.274,-2.23,-0.49,2.16,0.60,0.23,0.10,
1.276,-2.23,-0.49,2.16,0.60,0.21,0.12,
1.278,-2.23,-0.49,2.16,0.60,0.19,0.13,
1.28,-2.23,-0.49,2.16,0.60,0.16,0.14,
1.282,-2.17,-0.32,1.33,0.60,0.16,0.14,
1.283,-2.17,-0.32,1.33,0.60,0.13,0.16,
1.284,-2.17,-0.32,1.33,0.60,0.11,0.16,
1.288,-2.17,-0.32,1.33,0.59,0.09,0.17,
1.289,-2.17,-0.32,1.33,0.58,0.06,0.18,
1.29,-2.17,-0.32,1.33,0.57,0.03,0.19,
1.308,-1.96,-0.21,0.59,0.57,0.03,0.19,
1.309,-1.96,-0.21,0.59,0.55,0.00,0.19,
1.309,-1.96,-0.21,0.59,0.53,-0.03,0.20,
1.309,-1.96,-0.21,0.59,0.51,-0.06,0.20,
1.309,-1.96,-0.21,0.59,0.49,-0.10,0.20,
1.309,-1.96,-0.21,0.59,0.46,-0.14,0.21,
1.309,-1.70,-0.13,0.08,0.46,-0.14,0.21,
1.309,-1.70,-0.13,0.08,0.43,-0.18,0.21,
1.309,-1.70,-0.13,0.08,0.40,-0.22,0.21,
1.31,-1.70,-0.13,0.08,0.37,-0.26,0.21,
1.31,-1.70,-0.13,0.08,0.34,-0.30,0.21,
1.311,-1.70,-0.13,0.08,0.30,-0.33,0.20,
1.313,-1.27,-0.16,-0.06,0.30,-0.33,0.20,
1.313,-1.27,-0.16,-0.06,0.27,-0.37,0.20,
1.314,-1.27,-0.16,-0.06,0.24,-0.40,0.19,
1.318,-1.27,-0.16,-0.06,0.21,-0.42,0.19,
1.319,-1.27,-0.16,-0.06,0.18,-0.45,0.18,
1.32,-1.27,-0.16,-0.06,0.15,-0.47,0.18,
1.323,-0.93,-0.23,0.23,0.15,-0.47,0.18,
1.324,-0.93,-0.23,0.23,0.12,-0.49,0.17,
1.325,-0.93,-0.23,0.23,0.09,-0.49,0.17,
1.329,-0.93,-0.23,0.23,0.08,-0.49,0.17,
1.329,-0.93,-0.23,0.23,0.06,-0.49,0.17,
1.33,-0.93,-0.23,0.23,0.05,-0.49,0.17,
1.332,-0.74,-0.23,0.72,0.05,-0.49,0.17,
1.332,-0.74,-0.23,0.72,0.04,-0.48,0.17,
1.333,-0.74,-0.23,0.72,0.02,-0.47,0.17,
1.336,-0.74,-0.23,0.72,0.02,-0.46,0.17,
1.338,-0.74,-0.23,0.72,0.02,-0.44,0.17,
1.34,-0.74,-0.23,0.72,0.01,-0.41,0.17,
1.342,-0.51,-0.38,1.20,0.01,-0.41,0.17,
1.342,-0.51,-0.38,1.20,0.02,-0.39,0.18,
1.344,-0.51,-0.38,1.20,0.02,-0.36,0.18,
1.346,-0.51,-0.38,1.20,0.03,-0.33,0.18,
1.348,-0.51,-0.38,1.20,0.03,-0.29,0.18,
1.35,-0.51,-0.38,1.20,0.04,-0.26,0.19,
1.354,-0.35,-0.53,1.24,0.04,-0.26,0.19,
1.355,-0.35,-0.53,1.24,0.04,-0.23,0.19,
1.355,-0.35,-0.53,1.24,0.05,-0.19,0.20,
1.358,-0.35,-0.53,1.24,0.06,-0.16,0.20,
1.359,-0.35,-0.53,1.24,0.07,-0.13,0.21,
1.36,-0.35,-0.53,1.24,0.07,-0.10,0.22,
1.364,-0.30,-0.71,0.90,0.07,-0.10,0.22,
1.364,-0.30,-0.71,0.90,0.08,-0.06,0.23,
1.364,-0.30,-0.71,0.90,0.08,-0.04,0.24,
1.366,-0.30,-0.71,0.90,0.09,-0.02,0.24,
1.368,-0.30,-0.71,0.90,0.09,0.00,0.25,
1.37,-0.30,-0.71,0.90,0.10,0.02,0.26,
1.373,-0.32,-0.70,0.28,0.10,0.02,0.26,
1.373,-0.32,-0.70,0.28,0.10,0.03,0.27,
1.374,-0.32,-0.70,0.28,0.10,0.05,0.28,
1.376,-0.32,-0.70,0.28,0.10,0.05,0.28,
1.378,-0.32,-0.70,0.28,0.10,0.06,0.29,
1.38,-0.32,-0.70,0.28,0.09,0.06,0.30,
1.383,-0.29,-0.67,-0.40,0.09,0.06,0.30,
1.383,-0.29,-0.67,-0.40,0.09,0.06,0.30,
1.384,-0.29,-0.67,-0.40,0.08,0.05,0.30,
1.386,-0.29,-0.67,-0.40,0.07,0.05,0.30,
1.388,-0.29,-0.67,-0.40,0.07,0.04,0.30,
1.39,-0.29,-0.67,-0.40,0.06,0.04,0.31,
1.413,-0.24,-0.67,-1.00,0.06,0.04,0.31,
1.413,-0.24,-0.67,-1.00,0.05,0.03,0.31,
1.413,-0.24,-0.67,-1.00,0.04,0.02,0.31,
1.413,-0.24,-0.67,-1.00,0.03,0.02,0.31,
1.414,-0.24,-0.67,-1.00,0.02,0.01,0.31,
1.414,-0.24,-0.67,-1.00,0.01,-0.00,0.31,
1.414,-0.16,-0.64,-1.43,0.01,-0.00,0.31,
1.414,-0.16,-0.64,-1.43,-0.01,-0.01,0.31,
1.414,-0.16,-0.64,-1.43,-0.02,-0.01,0.31,
1.414,-0.16,-0.64,-1.43,-0.03,-0.02,0.31,
1.415,-0.16,-0.64,-1.43,-0.04,-0.02,0.30,
1.415,-0.16,-0.64,-1.43,-0.06,-0.02,0.30,
1.415,-0.05,-0.61,-1.69,-0.06,-0.02,0.30,
1.415,-0.05,-0.61,-1.69,-0.07,-0.02,0.30,
1.415,-0.05,-0.61,-1.69,-0.08,-0.02,0.30,
1.441,-0.05,-0.61,-1.69,-0.09,-0.01,0.29,
1.442,-0.05,-0.61,-1.69,-0.10,-0.01,0.29,
1.442,-0.05,-0.61,-1.69,-0.11,0.00,0.29,
1.442,0.02,-0.68,-1.76,-0.11,0.00,0.29,
1.442,0.02,-0.68,-1.76,-0.12,0.02,0.28,
1.443,0.02,-0.68,-1.76,-0.12,0.03,0.28,
1.443,0.02,-0.68,-1.76,-0.12,0.04,0.27,
1.443,0.02,-0.68,-1.76,-0.12,0.05,0.27,
1.443,0.02,-0.68,-1.76,-0.12,0.06,0.26,
1.444,0.03,-0.82,-1.55,-0.12,0.06,0.26,
1.444,0.03,-0.82,-1.55,-0.11,0.08,0.26,
1.445,0.03,-0.82,-1.55,-0.10,0.09,0.25,
1.445,0.03,-0.82,-1.55,-0.09,0.11,0.25,
1.445,0.03,-0.82,-1.55,-0.08,0.13,0.24,
1.445,0.03,-0.82,-1.55,-0.06,0.15,0.24,
1.446,-0.17,-1.01,-1.18,-0.06,0.15,0.24,
1.446,-0.17,-1.01,-1.18,-0.04,0.17,0.25,
1.446,-0.17,-1.01,-1.18,-0.02,0.19,0.25,
1.462,-0.17,-1.01,-1.18,0.00,0.21,0.25,
1.462,-0.17,-1.01,-1.18,0.03,0.22,0.26,
1.463,-0.17,-1.01,-1.18,0.06,0.24,0.27,
1.463,-0.41,-1.20,-0.90,0.06,0.24,0.27,
1.463,-0.41,-1.20,-0.90,0.09,0.25,0.28,
1.463,-0.41,-1.20,-0.90,0.11,0.27,0.28,
1.464,-0.41,-1.20,-0.90,0.14,0.28,0.30,
1.464,-0.41,-1.20,-0.90,0.18,0.29,0.31,
1.464,-0.41,-1.20,-0.90,0.21,0.29,0.32,
1.464,-0.68,-1.38,-0.77,0.21,0.29,0.32,
1.464,-0.68,-1.38,-0.77,0.24,0.30,0.34,
1.467,-0.68,-1.38,-0.77,0.27,0.30,0.35,
1.467,-0.68,-1.38,-0.77,0.31,0.31,0.37,
1.496,-0.68,-1.38,-0.77,0.34,0.31,0.39,
1.496,-0.68,-1.38,-0.77,0.37,0.30,0.40,
1.497,-0.85,-1.44,-0.92,0.37,0.30,0.40,
1.497,-0.85,-1.44,-0.92,0.41,0.30,0.42,
1.497,-0.85,-1.44,-0.92,0.44,0.29,0.44,
1.497,-0.85,-1.44,-0.92,0.47,0.28,0.46,
1.497,-0.85,-1.44,-0.92,0.49,0.27,0.48,
1.497,-0.85,-1.44,-0.92,0.52,0.26,0.50,
1.498,-0.97,-1.45,-1.26,0.52,0.26,0.50,
1.498,-0.97,-1.45,-1.26,0.55,0.25,0.51,
1.498,-0.97,-1.45,-1.26,0.57,0.23,0.53,
1.498,-0.97,-1.45,-1.26,0.59,0.21,0.55,
1.498,-0.97,-1.45,-1.26,0.62,0.20,0.57,
1.499,-0.97,-1.45,-1.26,0.64,0.18,0.58,
1.499,-1.00,-1.32,-1.56,0.64,0.18,0.58,
1.499,-1.00,-1.32,-1.56,0.67,0.17,0.60,
1.499,-1.00,-1.32,-1.56,0.69,0.15,0.62,
1.499,-1.00,-1.32,-1.56,0.72,0.12,0.63,
1.499,-1.00,-1.32,-1.56,0.74,0.09,0.64,
1.502,-1.00,-1.32,-1.56,0.76,0.06,0.66,
1.503,-0.60,-1.58,-1.87,0.76,0.06,0.66,
1.505,-0.60,-1.58,-1.87,0.77,0.02,0.66,
1.505,-0.60,-1.58,-1.87,0.79,-0.02,0.67,
1.506,-0.60,-1.58,-1.87,0.80,-0.05,0.67,
1.509,-0.60,-1.58,-1.87,0.81,-0.09,0.67,
1.52,-0.60,-1.58,-1.87,0.83,-0.13,0.67,
1.521,-0.36,-1.72,-2.13,0.83,-0.13,0.67,
1.521,-0.36,-1.72,-2.13,0.84,-0.16,0.68,
1.521,-0.36,-1.72,-2.13,0.85,-0.18,0.68,
1.521,-0.36,-1.72,-2.13,0.86,-0.21,0.68,
1.521,-0.36,-1.72,-2.13,0.88,-0.23,0.68,
1.522,-0.36,-1.72,-2.13,0.89,-0.25,0.69,
1.524,-0.42,-1.56,-2.16,0.89,-0.25,0.69,
1.524,-0.42,-1.56,-2.16,0.90,-0.26,0.69,
1.524,-0.42,-1.56,-2.16,0.91,-0.28,0.70,
1.526,-0.42,-1.56,-2.16,0.92,-0.29,0.70,
1.528,-0.42,-1.56,-2.16,0.92,-0.31,0.71,
1.53,-0.42,-1.56,-2.16,0.93,-0.32,0.71,
1.533,-0.33,-1.48,-2.13,0.93,-0.32,0.71,
1.533,-0.33,-1.48,-2.13,0.93,-0.33,0.72,
1.54,-0.33,-1.48,-2.13,0.94,-0.33,0.72,
1.541,-0.33,-1.48,-2.13,0.94,-0.34,0.73,
1.541,-0.33,-1.48,-2.13,0.95,-0.34,0.73,
1.541,-0.33,-1.48,-2.13,0.95,-0.34,0.73,
1.543,-0.17,-1.55,-2.15,0.95,-0.34,0.73,
1.543,-0.17,-1.55,-2.15,0.94,-0.33,0.73,
1.544,-0.17,-1.55,-2.15,0.94,-0.33,0.74,
1.547,-0.17,-1.55,-2.15,0.94,-0.32,0.73,
1.549,-0.17,-1.55,-2.15,0.94,-0.32,0.73,
1.558,-0.17,-1.55,-2.15,0.93,-0.31,0.74,
1.558,0.06,-1.44,-2.17,0.93,-0.31,0.74,
1.558,0.06,-1.44,-2.17,0.93,-0.31,0.73,
1.559,0.06,-1.44,-2.17,0.92,-0.31,0.72,
1.559,0.06,-1.44,-2.17,0.91,-0.30,0.72,
1.577,0.06,-1.44,-2.17,0.90,-0.29,0.71,
1.577,0.06,-1.44,-2.17,0.89,-0.29,0.71,
1.577,0.31,-1.29,-2.19,0.89,-0.29,0.71,
1.577,0.31,-1.29,-2.19,0.88,-0.29,0.69,
1.578,0.31,-1.29,-2.19,0.87,-0.28,0.68,
1.578,0.31,-1.29,-2.19,0.86,-0.28,0.67,
1.578,0.31,-1.29,-2.19,0.84,-0.28,0.66,
1.578,0.31,-1.29,-2.19,0.83,-0.28,0.64,
1.578,0.50,-1.11,-2.15,0.83,-0.28,0.64,
1.579,0.50,-1.11,-2.15,0.81,-0.28,0.62,
1.579,0.50,-1.11,-2.15,0.80,-0.29,0.61,
1.579,0.50,-1.11,-2.15,0.78,-0.29,0.59,
1.579,0.50,-1.11,-2.15,0.76,-0.30,0.57,
1.609,0.50,-1.11,-2.15,0.74,-0.31,0.55,
1.609,0.66,-1.00,-2.01,0.74,-0.31,0.55,
1.61,0.66,-1.00,-2.01,0.72,-0.32,0.53,
1.61,0.66,-1.00,-2.01,0.69,-0.33,0.51,
1.61,0.66,-1.00,-2.01,0.67,-0.34,0.49,
1.61,0.66,-1.00,-2.01,0.65,-0.36,0.47,
1.61,0.66,-1.00,-2.01,0.63,-0.37,0.45,
1.611,0.71,-0.92,-1.64,0.63,-0.37,0.45,
1.611,0.71,-0.92,-1.64,0.60,-0.39,0.44,
1.611,0.71,-0.92,-1.64,0.58,-0.40,0.42,
1.611,0.71,-0.92,-1.64,0.56,-0.41,0.40,
1.611,0.71,-0.92,-1.64,0.54,-0.42,0.38,
1.611,0.71,-0.92,-1.64,0.52,-0.43,0.36,
1.612,0.81,-0.84,-1.01,0.52,-0.43,0.36,
1.612,0.81,-0.84,-1.01,0.50,-0.44,0.34,
1.612,0.81,-0.84,-1.01,0.49,-0.44,0.32,
1.612,0.81,-0.84,-1.01,0.47,-0.44,0.29,
1.613,0.81,-0.84,-1.01,0.46,-0.44,0.27,
1.613,0.81,-0.84,-1.01,0.44,-0.44,0.25,
1.613,0.85,-0.77,-0.29,0.44,-0.44,0.25,
1.613,0.85,-0.77,-0.29,0.43,-0.43,0.23,
1.615,0.85,-0.77,-0.29,0.42,-0.43,0.20,
1.619,0.85,-0.77,-0.29,0.41,-0.41,0.18,
1.622,0.85,-0.77,-0.29,0.40,-0.39,0.15,
1.626,0.85,-0.77,-0.29,0.40,-0.39,0.14,
1.627,0.86,-0.74,0.45,0.40,-0.39,0.14,
1.627,0.86,-0.74,0.45,0.39,-0.37,0.12,
1.627,0.86,-0.74,0.45,0.39,-0.35,0.09,
1.627,0.86,-0.74,0.45,0.38,-0.34,0.08,
1.629,0.86,-0.74,0.45,0.38,-0.31,0.05,
1.63,0.86,-0.74,0.45,0.38,-0.30,0.04,
1.633,0.75,-0.72,1.04,0.38,-0.30,0.04,
1.633,0.75,-0.72,1.04,0.38,-0.27,0.02,
1.634,0.75,-0.72,1.04,0.38,-0.24,0.00,
1.637,0.75,-0.72,1.04,0.38,-0.21,-0.01,
1.638,0.75,-0.72,1.04,0.38,-0.18,-0.02,
1.64,0.75,-0.72,1.04,0.38,-0.15,-0.03,
1.643,0.53,-0.82,1.43,0.38,-0.15,-0.03,
1.643,0.53,-0.82,1.43,0.39,-0.10,-0.04,
1.644,0.53,-0.82,1.43,0.39,-0.08,-0.04,
1.646,0.53,-0.82,1.43,0.39,-0.05,-0.05,
1.648,0.53,-0.82,1.43,0.39,0.00,-0.06,
1.651,0.53,-0.82,1.43,0.39,0.02,-0.06,
1.653,0.33,-0.74,1.46,0.39,0.02,-0.06,
1.653,0.33,-0.74,1.46,0.39,0.06,-0.06,
1.654,0.33,-0.74,1.46,0.39,0.08,-0.07,
1.656,0.33,-0.74,1.46,0.38,0.10,-0.07,
1.658,0.33,-0.74,1.46,0.37,0.13,-0.08,
1.66,0.33,-0.74,1.46,0.37,0.16,-0.08,
1.662,0.29,-0.69,1.22,0.37,0.16,-0.08,
1.663,0.29,-0.69,1.22,0.35,0.18,-0.09,
1.665,0.29,-0.69,1.22,0.35,0.19,-0.10,
1.667,0.29,-0.69,1.22,0.33,0.21,-0.10,
1.668,0.29,-0.69,1.22,0.31,0.23,-0.11,
1.67,0.29,-0.69,1.22,0.30,0.24,-0.12,
1.673,0.25,-0.63,0.76,0.30,0.24,-0.12,
1.673,0.25,-0.63,0.76,0.26,0.26,-0.12,
1.673,0.25,-0.63,0.76,0.24,0.27,-0.13,
1.676,0.25,-0.63,0.76,0.23,0.28,-0.13,
1.678,0.25,-0.63,0.76,0.20,0.29,-0.13,
1.68,0.25,-0.63,0.76,0.17,0.29,-0.12,
1.682,0.05,-0.48,0.35,0.17,0.29,-0.12,
1.682,0.05,-0.48,0.35,0.13,0.28,-0.12,
1.685,0.05,-0.48,0.35,0.11,0.28,-0.12,
1.686,0.05,-0.48,0.35,0.08,0.27,-0.12,
1.688,0.05,-0.48,0.35,0.04,0.25,-0.11,
1.69,0.05,-0.48,0.35,0.01,0.24,-0.11,
1.692,0.00,-0.33,0.29,0.01,0.24,-0.11,
1.692,0.00,-0.33,0.29,-0.04,0.22,-0.11,
1.694,0.00,-0.33,0.29,-0.05,0.21,-0.11,
1.696,0.00,-0.33,0.29,-0.08,0.20,-0.11,
1.697,0.00,-0.33,0.29,-0.12,0.19,-0.11,
1.702,0.00,-0.33,0.29,-0.13,0.19,-0.11,
1.703,0.22,-0.24,0.68,-0.13,0.19,-0.11,
1.703,0.22,-0.24,0.68,-0.17,0.18,-0.11,
1.704,0.22,-0.24,0.68,-0.19,0.18,-0.12,
1.706,0.22,-0.24,0.68,-0.21,0.17,-0.12,
1.709,0.22,-0.24,0.68,-0.23,0.17,-0.12,
1.712,0.22,-0.24,0.68,-0.24,0.18,-0.13,
1.714,0.61,-0.09,1.38,-0.24,0.18,-0.13,
1.714,0.61,-0.09,1.38,-0.26,0.18,-0.13,
1.714,0.61,-0.09,1.38,-0.26,0.19,-0.14,
1.751,0.61,-0.09,1.38,-0.27,0.20,-0.15,
1.751,0.61,-0.09,1.38,-0.28,0.22,-0.15,
1.751,0.61,-0.09,1.38,-0.28,0.24,-0.16,
1.751,0.88,0.13,2.14,-0.28,0.24,-0.16,
1.751,0.88,0.13,2.14,-0.28,0.27,-0.16,
1.763,0.88,0.13,2.14,-0.28,0.29,-0.17,
1.763,0.88,0.13,2.14,-0.27,0.32,-0.18,
1.763,0.88,0.13,2.14,-0.27,0.34,-0.18,
1.763,0.88,0.13,2.14,-0.26,0.36,-0.19,
1.763,1.06,0.24,2.52,-0.26,0.36,-0.19,
1.764,1.06,0.24,2.52,-0.26,0.38,-0.20,
1.764,1.06,0.24,2.52,-0.26,0.40,-0.20,
1.764,1.06,0.24,2.52,-0.25,0.42,-0.21,
1.764,1.06,0.24,2.52,-0.25,0.43,-0.21,
1.764,1.06,0.24,2.52,-0.25,0.45,-0.22,
1.764,1.11,0.17,2.39,-0.25,0.45,-0.22,
1.765,1.11,0.17,2.39,-0.25,0.46,-0.22,
1.765,1.11,0.17,2.39,-0.26,0.47,-0.23,
1.765,1.11,0.17,2.39,-0.28,0.48,-0.24,
1.765,1.11,0.17,2.39,-0.29,0.49,-0.24,
1.765,1.11,0.17,2.39,-0.31,0.50,-0.25,
1.765,1.18,0.18,1.78,-0.31,0.50,-0.25,
1.766,1.18,0.18,1.78,-0.34,0.52,-0.27,
1.766,1.18,0.18,1.78,-0.36,0.53,-0.28,
1.766,1.18,0.18,1.78,-0.39,0.54,-0.30,
1.766,1.18,0.18,1.78,-0.42,0.54,-0.31,
1.766,1.18,0.18,1.78,-0.46,0.55,-0.33,
1.766,1.37,0.10,1.17,-0.46,0.55,-0.33,
1.766,1.37,0.10,1.17,-0.49,0.55,-0.35,
1.767,1.37,0.10,1.17,-0.52,0.55,-0.37,
1.767,1.37,0.10,1.17,-0.55,0.55,-0.40,
1.772,1.37,0.10,1.17,-0.58,0.55,-0.42,
1.772,1.37,0.10,1.17,-0.60,0.54,-0.43,
1.772,1.25,0.10,1.06,-0.60,0.54,-0.43,
1.772,1.25,0.10,1.06,-0.62,0.53,-0.45,
1.779,1.25,0.10,1.06,-0.64,0.52,-0.47,
1.779,1.25,0.10,1.06,-0.65,0.50,-0.48,
1.779,1.25,0.10,1.06,-0.67,0.49,-0.49,
1.78,1.25,0.10,1.06,-0.67,0.48,-0.50,
1.783,0.84,-0.01,1.42,-0.67,0.48,-0.50,
1.783,0.84,-0.01,1.42,-0.68,0.47,-0.50,
1.784,0.84,-0.01,1.42,-0.68,0.46,-0.50,
1.786,0.84,-0.01,1.42,-0.68,0.45,-0.50,
1.788,0.84,-0.01,1.42,-0.67,0.44,-0.50,
1.79,0.84,-0.01,1.42,-0.67,0.43,-0.49,
1.792,0.31,-0.19,1.82,-0.67,0.43,-0.49,
1.792,0.31,-0.19,1.82,-0.66,0.42,-0.48,
1.793,0.31,-0.19,1.82,-0.65,0.42,-0.47,
1.796,0.31,-0.19,1.82,-0.63,0.41,-0.46,
1.797,0.31,-0.19,1.82,-0.62,0.40,-0.44,
1.8,0.31,-0.19,1.82,-0.61,0.40,-0.42,
1.803,-0.04,-0.41,1.96,-0.61,0.40,-0.42,
1.803,-0.04,-0.41,1.96,-0.59,0.38,-0.40,
1.804,-0.04,-0.41,1.96,-0.58,0.38,-0.39,
1.806,-0.04,-0.41,1.96,-0.56,0.36,-0.37,
1.807,-0.04,-0.41,1.96,-0.54,0.35,-0.35,
1.809,-0.04,-0.41,1.96,-0.52,0.33,-0.34,
1.812,-0.08,-0.52,2.00,-0.52,0.33,-0.34,
1.812,-0.08,-0.52,2.00,-0.50,0.31,-0.32,
1.814,-0.08,-0.52,2.00,-0.48,0.29,-0.31,
1.816,-0.08,-0.52,2.00,-0.46,0.27,-0.30,
1.818,-0.08,-0.52,2.00,-0.43,0.25,-0.28,
1.82,-0.08,-0.52,2.00,-0.41,0.23,-0.27,
1.822,0.03,-0.64,1.97,-0.41,0.23,-0.27,
1.822,0.03,-0.64,1.97,-0.38,0.20,-0.26,
1.824,0.03,-0.64,1.97,-0.35,0.17,-0.25,
1.826,0.03,-0.64,1.97,-0.33,0.14,-0.24,
1.828,0.03,-0.64,1.97,-0.30,0.10,-0.23,
1.83,0.03,-0.64,1.97,-0.28,0.05,-0.22,
1.834,0.26,-0.64,1.66,-0.28,0.05,-0.22,
1.834,0.26,-0.64,1.66,-0.26,0.00,-0.21,
1.835,0.26,-0.64,1.66,-0.25,-0.05,-0.21,
1.84,0.26,-0.64,1.66,-0.24,-0.11,-0.21,
1.841,0.26,-0.64,1.66,-0.24,-0.16,-0.21,
1.841,0.26,-0.64,1.66,-0.24,-0.22,-0.21,
1.843,0.68,-0.56,1.09,-0.24,-0.22,-0.21,
1.843,0.68,-0.56,1.09,-0.24,-0.28,-0.22,
1.844,0.68,-0.56,1.09,-0.26,-0.33,-0.22,
1.846,0.68,-0.56,1.09,-0.27,-0.38,-0.24,
1.847,0.68,-0.56,1.09,-0.29,-0.42,-0.25,
1.855,0.68,-0.56,1.09,-0.31,-0.46,-0.27,
1.855,1.22,-0.47,0.59,-0.31,-0.46,-0.27,
1.855,1.22,-0.47,0.59,-0.33,-0.48,-0.28,
1.855,1.22,-0.47,0.59,-0.35,-0.50,-0.30,
1.855,1.22,-0.47,0.59,-0.38,-0.52,-0.32,
1.857,1.22,-0.47,0.59,-0.40,-0.52,-0.34,
1.86,1.22,-0.47,0.59,-0.43,-0.52,-0.36,
1.862,1.67,-0.49,0.55,-0.43,-0.52,-0.36,
1.862,1.67,-0.49,0.55,-0.46,-0.52,-0.38,
1.863,1.67,-0.49,0.55,-0.48,-0.51,-0.40,
1.866,1.67,-0.49,0.55,-0.50,-0.49,-0.42,
1.867,1.67,-0.49,0.55,-0.53,-0.47,-0.43,
1.869,1.67,-0.49,0.55,-0.55,-0.45,-0.45,
1.872,1.79,-0.59,0.70,-0.55,-0.45,-0.45,
1.872,1.79,-0.59,0.70,-0.58,-0.42,-0.47,
1.873,1.79,-0.59,0.70,-0.60,-0.39,-0.48,
1.875,1.79,-0.59,0.70,-0.62,-0.36,-0.50,
1.877,1.79,-0.59,0.70,-0.65,-0.32,-0.51,
1.879,1.79,-0.59,0.70,-0.67,-0.28,-0.52,
1.882,1.73,-0.79,0.82,-0.67,-0.28,-0.52,
1.882,1.73,-0.79,0.82,-0.69,-0.24,-0.54,
1.883,1.73,-0.79,0.82,-0.71,-0.20,-0.55,
1.886,1.73,-0.79,0.82,-0.72,-0.15,-0.55,
1.887,1.73,-0.79,0.82,-0.74,-0.10,-0.56,
1.889,1.73,-0.79,0.82,-0.76,-0.06,-0.56,
1.899,1.45,-0.90,0.77,-0.76,-0.06,-0.56,
1.899,1.45,-0.90,0.77,-0.77,-0.02,-0.57,
1.899,1.45,-0.90,0.77,-0.78,0.02,-0.57,
1.899,1.45,-0.90,0.77,-0.79,0.06,-0.57,
1.899,1.45,-0.90,0.77,-0.80,0.10,-0.57,
1.9,1.45,-0.90,0.77,-0.81,0.13,-0.57,
1.93,1.09,-1.03,0.64,-0.81,0.13,-0.57,
1.931,1.09,-1.03,0.64,-0.81,0.16,-0.56,
1.931,1.09,-1.03,0.64,-0.81,0.19,-0.56,
1.931,1.09,-1.03,0.64,-0.81,0.22,-0.55,
1.931,1.09,-1.03,0.64,-0.81,0.24,-0.55,
1.932,1.09,-1.03,0.64,-0.80,0.26,-0.54,
1.932,0.65,-0.95,0.45,-0.80,0.26,-0.54,
1.932,0.65,-0.95,0.45,-0.80,0.28,-0.53,
1.932,0.65,-0.95,0.45,-0.79,0.29,-0.52,
1.933,0.65,-0.95,0.45,-0.78,0.30,-0.51,
1.933,0.65,-0.95,0.45,-0.77,0.31,-0.50,
1.933,0.65,-0.95,0.45,-0.75,0.31,-0.49,
1.933,0.34,-0.89,0.19,-0.75,0.31,-0.49,
1.934,0.34,-0.89,0.19,-0.74,0.32,-0.48,
1.934,0.34,-0.89,0.19,-0.72,0.32,-0.47,
1.934,0.34,-0.89,0.19,-0.70,0.32,-0.46,
1.934,0.34,-0.89,0.19,-0.68,0.32,-0.45,
1.935,0.34,-0.89,0.19,-0.67,0.32,-0.43,
1.935,0.13,-0.79,-0.19,-0.67,0.32,-0.43,
1.935,0.13,-0.79,-0.19,-0.65,0.31,-0.42,
1.935,0.13,-0.79,-0.19,-0.63,0.31,-0.40,
1.936,0.13,-0.79,-0.19,-0.61,0.30,-0.39,
1.94,0.13,-0.79,-0.19,-0.59,0.29,-0.37,
1.94,0.13,-0.79,-0.19,-0.57,0.27,-0.35,
1.943,0.03,-0.70,-0.70,-0.57,0.27,-0.35,
1.943,0.03,-0.70,-0.70,-0.55,0.26,-0.34,
1.944,0.03,-0.70,-0.70,-0.54,0.24,-0.33,
1.946,0.03,-0.70,-0.70,-0.52,0.21,-0.32,
1.949,0.03,-0.70,-0.70,-0.50,0.19,-0.30,
1.951,0.03,-0.70,-0.70,-0.49,0.16,-0.29,
1.953,0.01,-0.63,-1.12,-0.49,0.16,-0.29,
1.953,0.01,-0.63,-1.12,-0.47,0.12,-0.28,
1.953,0.01,-0.63,-1.12,-0.45,0.09,-0.27,
1.956,0.01,-0.63,-1.12,-0.42,0.05,-0.25,
1.958,0.01,-0.63,-1.12,-0.40,0.02,-0.24,
1.96,0.01,-0.63,-1.12,-0.37,-0.02,-0.22,
1.962,-0.13,-0.55,-1.10,-0.37,-0.02,-0.22,
1.963,-0.13,-0.55,-1.10,-0.33,-0.06,-0.21,
1.964,-0.13,-0.55,-1.10,-0.30,-0.10,-0.19,
1.966,-0.13,-0.55,-1.10,-0.27,-0.14,-0.17,
1.968,-0.13,-0.55,-1.10,-0.23,-0.18,-0.16,
1.97,-0.13,-0.55,-1.10,-0.18,-0.21,-0.14,
1.972,-0.22,-0.49,-0.85,-0.18,-0.21,-0.14,
1.977,-0.22,-0.49,-0.85,-0.05,-0.28,-0.08,
1.977,-0.22,-0.49,-0.85,-0.05,-0.28,-0.08,
1.978,-0.22,-0.49,-0.85,-0.00,-0.30,-0.07,
1.98,-0.22,-0.49,-0.85,0.05,-0.31,-0.05,
1.98,-0.22,-0.49,-0.85,0.05,-0.31,-0.05,
1.988,-0.09,-0.42,-0.78,0.05,-0.31,-0.05,
1.989,-0.09,-0.42,-0.78,0.10,-0.32,-0.04,
1.989,-0.09,-0.42,-0.78,0.14,-0.32,-0.03,
1.989,-0.09,-0.42,-0.78,0.18,-0.32,-0.02,
1.999,-0.09,-0.42,-0.78,0.22,-0.32,-0.01,
1.999,-0.09,-0.42,-0.78,0.26,-0.32,-0.00,
1.999,0.18,-0.31,-1.09,0.26,-0.32,-0.00,
1.999,0.18,-0.31,-1.09,0.30,-0.32,0.00,
2.0,0.18,-0.31,-1.09,0.32,-0.31,0.01,
2.0,0.18,-0.31,-1.09,0.35,-0.31,0.01,
2.0,0.18,-0.31,-1.09,0.38,-0.31,0.01,
2.0,0.18,-0.31,-1.09,0.40,-0.30,0.01,
2.007,0.43,-0.16,-1.70,0.40,-0.30,0.01,
2.008,0.43,-0.16,-1.70,0.42,-0.29,0.00,
2.008,0.43,-0.16,-1.70,0.44,-0.28,-0.00,
2.008,0.43,-0.16,-1.70,0.45,-0.27,-0.01,
2.012,0.43,-0.16,-1.70,0.46,-0.26,-0.01,
2.012,0.43,-0.16,-1.70,0.47,-0.25,-0.02,
2.012,0.62,-0.04,-2.39,0.47,-0.25,-0.02,
2.012,0.62,-0.04,-2.39,0.48,-0.23,-0.03,
2.014,0.62,-0.04,-2.39,0.48,-0.22,-0.04,
2.016,0.62,-0.04,-2.39,0.48,-0.21,-0.05,
2.018,0.62,-0.04,-2.39,0.48,-0.20,-0.06,
2.02,0.62,-0.04,-2.39,0.47,-0.19,-0.07,
2.023,0.71,0.16,-3.09,0.47,-0.19,-0.07,
2.023,0.71,0.16,-3.09,0.45,-0.19,-0.08,
2.024,0.71,0.16,-3.09,0.44,-0.18,-0.09,
2.026,0.71,0.16,-3.09,0.42,-0.18,-0.11,
2.028,0.71,0.16,-3.09,0.40,-0.18,-0.12,
2.03,0.71,0.16,-3.09,0.38,-0.18,-0.14,
2.032,0.82,0.28,-3.63,0.38,-0.18,-0.14,
2.033,0.82,0.28,-3.63,0.35,-0.19,-0.16,
2.034,0.82,0.28,-3.63,0.32,-0.19,-0.18,
2.036,0.82,0.28,-3.63,0.30,-0.20,-0.20,
2.038,0.82,0.28,-3.63,0.27,-0.20,-0.22,
2.04,0.82,0.28,-3.63,0.24,-0.21,-0.24,
2.042,0.90,0.45,-3.91,0.24,-0.21,-0.24,
2.043,0.90,0.45,-3.91,0.21,-0.21,-0.26,
2.044,0.90,0.45,-3.91,0.18,-0.21,-0.29,
2.046,0.90,0.45,-3.91,0.15,-0.22,-0.31,
2.049,0.90,0.45,-3.91,0.12,-0.22,-0.33,
2.05,0.90,0.45,-3.91,0.09,-0.23,-0.35,
2.053,0.72,0.48,-3.72,0.09,-0.23,-0.35,
2.053,0.72,0.48,-3.72,0.06,-0.23,-0.37,
2.054,0.72,0.48,-3.72,0.04,-0.24,-0.39,
2.056,0.72,0.48,-3.72,0.01,-0.24,-0.41,
2.076,0.72,0.48,-3.72,-0.01,-0.24,-0.42,
2.076,0.72,0.48,-3.72,-0.03,-0.25,-0.44,
2.076,0.45,0.56,-3.20,-0.03,-0.25,-0.44,
2.076,0.45,0.56,-3.20,-0.05,-0.25,-0.45,
2.077,0.45,0.56,-3.20,-0.06,-0.25,-0.46,
2.077,0.45,0.56,-3.20,-0.08,-0.26,-0.47,
2.077,0.45,0.56,-3.20,-0.09,-0.25,-0.47,
2.077,0.45,0.56,-3.20,-0.10,-0.25,-0.48,
2.077,0.24,0.47,-2.47,-0.10,-0.25,-0.48,
2.078,0.24,0.47,-2.47,-0.11,-0.25,-0.48,
2.078,0.24,0.47,-2.47,-0.12,-0.25,-0.49,
2.078,0.24,0.47,-2.47,-0.12,-0.25,-0.49,
2.078,0.24,0.47,-2.47,-0.13,-0.25,-0.49,
2.112,0.24,0.47,-2.47,-0.13,-0.25,-0.50,
2.113,0.11,0.47,-1.81,-0.13,-0.25,-0.50,
2.113,0.11,0.47,-1.81,-0.13,-0.24,-0.50,
2.113,0.11,0.47,-1.81,-0.13,-0.24,-0.50,
2.113,0.11,0.47,-1.81,-0.14,-0.24,-0.50,
2.113,0.11,0.47,-1.81,-0.14,-0.24,-0.50,
2.114,0.11,0.47,-1.81,-0.14,-0.25,-0.51,
2.114,0.09,0.48,-1.15,-0.14,-0.25,-0.51,
2.114,0.09,0.48,-1.15,-0.14,-0.25,-0.51,
2.114,0.09,0.48,-1.15,-0.14,-0.25,-0.51,
2.114,0.09,0.48,-1.15,-0.14,-0.26,-0.51,
2.114,0.09,0.48,-1.15,-0.14,-0.27,-0.51,
2.115,0.09,0.48,-1.15,-0.13,-0.27,-0.52,
2.115,0.12,0.55,-0.48,-0.13,-0.27,-0.52,
2.115,0.12,0.55,-0.48,-0.13,-0.27,-0.52,
2.115,0.12,0.55,-0.48,-0.12,-0.27,-0.53,
2.115,0.12,0.55,-0.48,-0.12,-0.27,-0.53,
2.115,0.12,0.55,-0.48,-0.11,-0.26,-0.54,
2.116,0.12,0.55,-0.48,-0.10,-0.26,-0.54,
2.116,0.11,0.50,0.25,-0.10,-0.26,-0.54,
2.116,0.11,0.50,0.25,-0.08,-0.25,-0.55,
2.116,0.11,0.50,0.25,-0.07,-0.25,-0.55,
2.116,0.11,0.50,0.25,-0.06,-0.24,-0.55,
2.135,0.11,0.50,0.25,-0.04,-0.23,-0.55,
2.135,0.11,0.50,0.25,-0.02,-0.22,-0.55,
2.135,-0.02,0.48,0.91,-0.02,-0.22,-0.55,
2.136,-0.02,0.48,0.91,-0.01,-0.21,-0.55,
2.136,-0.02,0.48,0.91,0.01,-0.20,-0.55,
2.136,-0.02,0.48,0.91,0.03,-0.19,-0.54,
2.136,-0.02,0.48,0.91,0.05,-0.18,-0.54,
2.136,-0.02,0.48,0.91,0.07,-0.17,-0.53,
2.136,-0.29,0.48,1.40,0.07,-0.17,-0.53,
2.136,-0.29,0.48,1.40,0.09,-0.16,-0.53,
2.137,-0.29,0.48,1.40,0.11,-0.15,-0.52,
2.137,-0.29,0.48,1.40,0.13,-0.13,-0.51,
2.139,-0.29,0.48,1.40,0.14,-0.12,-0.50,
2.14,-0.29,0.48,1.40,0.16,-0.10,-0.49,
2.142,-0.58,0.45,1.68,0.16,-0.10,-0.49,
2.142,-0.58,0.45,1.68,0.18,-0.09,-0.48,
2.143,-0.58,0.45,1.68,0.20,-0.07,-0.47,
2.145,-0.58,0.45,1.68,0.22,-0.06,-0.45,
2.148,-0.58,0.45,1.68,0.24,-0.04,-0.44,
2.15,-0.58,0.45,1.68,0.26,-0.03,-0.43,
2.153,-0.90,0.48,1.76,0.26,-0.03,-0.43,
2.153,-0.90,0.48,1.76,0.27,-0.02,-0.41,
2.153,-0.90,0.48,1.76,0.29,-0.00,-0.40,
2.156,-0.90,0.48,1.76,0.30,0.00,-0.38,
2.158,-0.90,0.48,1.76,0.32,0.01,-0.36,
2.16,-0.90,0.48,1.76,0.33,0.02,-0.35,
2.162,-1.18,0.55,1.64,0.33,0.02,-0.35,
2.162,-1.18,0.55,1.64,0.34,0.02,-0.33,
2.164,-1.18,0.55,1.64,0.34,0.02,-0.32,
2.166,-1.18,0.55,1.64,0.35,0.02,-0.30,
2.168,-1.18,0.55,1.64,0.35,0.02,-0.28,
2.17,-1.18,0.55,1.64,0.35,0.01,-0.27,
2.172,-1.33,0.57,1.39,0.35,0.01,-0.27,
2.172,-1.33,0.57,1.39,0.35,0.01,-0.25,
2.173,-1.33,0.57,1.39,0.35,0.00,-0.23,
2.175,-1.33,0.57,1.39,0.34,-0.01,-0.22,
2.178,-1.33,0.57,1.39,0.34,-0.02,-0.20,
2.18,-1.33,0.57,1.39,0.33,-0.03,-0.18,
2.182,-1.42,0.61,1.33,0.33,-0.03,-0.18,
2.183,-1.42,0.61,1.33,0.33,-0.04,-0.16,
2.184,-1.42,0.61,1.33,0.32,-0.05,-0.15,
2.186,-1.42,0.61,1.33,0.32,-0.06,-0.13,
2.187,-1.42,0.61,1.33,0.31,-0.07,-0.12,
2.19,-1.42,0.61,1.33,0.31,-0.08,-0.10,
2.192,-1.41,0.66,1.56,0.31,-0.08,-0.10,
2.192,-1.41,0.66,1.56,0.30,-0.09,-0.09,
2.194,-1.41,0.66,1.56,0.30,-0.10,-0.08,
2.196,-1.41,0.66,1.56,0.30,-0.11,-0.07,
2.199,-1.41,0.66,1.56,0.30,-0.12,-0.06,
2.2,-1.41,0.66,1.56,0.29,-0.13,-0.05,
2.205,-1.35,0.67,1.93,0.29,-0.13,-0.05,
2.205,-1.35,0.67,1.93,0.29,-0.13,-0.04,
2.205,-1.35,0.67,1.93,0.29,-0.14,-0.03,
2.208,-1.35,0.67,1.93,0.29,-0.15,-0.02,
2.208,-1.35,0.67,1.93,0.28,-0.16,-0.02,
2.219,-1.35,0.67,1.93,0.28,-0.18,-0.01,
2.219,-1.21,0.63,2.31,0.28,-0.18,-0.01,
2.22,-1.21,0.63,2.31,0.28,-0.19,0.00,
2.22,-1.21,0.63,2.31,0.28,-0.20,0.01,
2.22,-1.21,0.63,2.31,0.28,-0.22,0.02,
2.22,-1.21,0.63,2.31,0.28,-0.23,0.03,
2.22,-1.21,0.63,2.31,0.28,-0.24,0.03,
2.222,-1.03,0.56,2.69,0.28,-0.24,0.03,
2.222,-1.03,0.56,2.69,0.28,-0.25,0.04,
2.232,-1.03,0.56,2.69,0.28,-0.26,0.05,
2.232,-1.03,0.56,2.69,0.28,-0.26,0.05,
2.232,-1.03,0.56,2.69,0.28,-0.26,0.06,
2.232,-1.03,0.56,2.69,0.29,-0.26,0.06,
2.233,-0.85,0.57,3.00,0.29,-0.26,0.06,
2.233,-0.85,0.57,3.00,0.29,-0.25,0.07,
2.235,-0.85,0.57,3.00,0.30,-0.25,0.07,
2.248,-0.85,0.57,3.00,0.31,-0.24,0.08,
2.248,-0.85,0.57,3.00,0.31,-0.23,0.08,
2.248,-0.85,0.57,3.00,0.32,-0.22,0.08,
2.248,-0.79,0.65,3.13,0.32,-0.22,0.08,
2.248,-0.79,0.65,3.13,0.32,-0.21,0.09,
2.248,-0.79,0.65,3.13,0.33,-0.19,0.09,
2.249,-0.79,0.65,3.13,0.33,-0.18,0.09,
2.249,-0.79,0.65,3.13,0.33,-0.16,0.10,
2.251,-0.79,0.65,3.13,0.32,-0.14,0.10,
2.252,-0.88,0.82,2.88,0.32,-0.14,0.10,
2.252,-0.88,0.82,2.88,0.32,-0.12,0.11,
2.254,-0.88,0.82,2.88,0.31,-0.10,0.12,
2.256,-0.88,0.82,2.88,0.30,-0.09,0.12,
2.258,-0.88,0.82,2.88,0.28,-0.07,0.12,
2.26,-0.88,0.82,2.88,0.26,-0.06,0.13,
2.262,-0.78,0.88,2.42,0.26,-0.06,0.13,
2.262,-0.78,0.88,2.42,0.24,-0.04,0.13,
2.264,-0.78,0.88,2.42,0.22,-0.03,0.13,
2.266,-0.78,0.88,2.42,0.19,-0.01,0.12,
2.267,-0.78,0.88,2.42,0.16,0.01,0.12,
2.27,-0.78,0.88,2.42,0.13,0.03,0.11,
2.272,-0.36,0.91,2.06,0.13,0.03,0.11,
2.272,-0.36,0.91,2.06,0.10,0.05,0.10,
2.274,-0.36,0.91,2.06,0.07,0.07,0.08,
2.275,-0.36,0.91,2.06,0.03,0.09,0.07,
2.277,-0.36,0.91,2.06,-0.00,0.11,0.04,
2.28,-0.36,0.91,2.06,-0.04,0.12,0.02,
2.282,0.12,1.09,1.92,-0.04,0.12,0.02,
2.283,0.12,1.09,1.92,-0.08,0.14,-0.01,
2.283,0.12,1.09,1.92,-0.11,0.15,-0.04,
2.285,0.12,1.09,1.92,-0.15,0.17,-0.07,
2.287,0.12,1.09,1.92,-0.19,0.18,-0.11,
2.289,0.12,1.09,1.92,-0.22,0.19,-0.14,
2.292,0.31,1.14,2.03,-0.22,0.19,-0.14,
2.292,0.31,1.14,2.03,-0.25,0.20,-0.18,
2.293,0.31,1.14,2.03,-0.29,0.21,-0.21,
2.296,0.31,1.14,2.03,-0.32,0.22,-0.24,
2.298,0.31,1.14,2.03,-0.34,0.23,-0.27,
2.3,0.31,1.14,2.03,-0.37,0.25,-0.30,
2.302,0.13,0.89,2.33,-0.37,0.25,-0.30,
2.302,0.13,0.89,2.33,-0.40,0.27,-0.32,
2.303,0.13,0.89,2.33,-0.42,0.29,-0.34,
2.306,0.13,0.89,2.33,-0.44,0.31,-0.35,
2.307,0.13,0.89,2.33,-0.45,0.33,-0.36,
2.309,0.13,0.89,2.33,-0.47,0.36,-0.37,
2.312,-0.48,0.48,2.85,-0.47,0.36,-0.37,
2.312,-0.48,0.48,2.85,-0.47,0.39,-0.38,
2.314,-0.48,0.48,2.85,-0.48,0.43,-0.38,
2.316,-0.48,0.48,2.85,-0.48,0.46,-0.37,
2.317,-0.48,0.48,2.85,-0.47,0.50,-0.36,
2.319,-0.48,0.48,2.85,-0.46,0.54,-0.35,
2.323,-1.22,-0.03,3.42,-0.46,0.54,-0.35,
2.323,-1.22,-0.03,3.42,-0.44,0.57,-0.34,
2.323,-1.22,-0.03,3.42,-0.42,0.61,-0.32,
2.325,-1.22,-0.03,3.42,-0.40,0.64,-0.30,
2.328,-1.22,-0.03,3.42,-0.38,0.67,-0.29,
2.33,-1.22,-0.03,3.42,-0.35,0.69,-0.26,
2.333,-1.87,-0.41,3.72,-0.35,0.69,-0.26,
2.333,-1.87,-0.41,3.72,-0.32,0.71,-0.24,
2.334,-1.87,-0.41,3.72,-0.29,0.72,-0.21,
2.336,-1.87,-0.41,3.72,-0.25,0.72,-0.18,
2.338,-1.87,-0.41,3.72,-0.22,0.72,-0.15,
2.34,-1.87,-0.41,3.72,-0.18,0.71,-0.12,
2.343,-2.50,-0.68,3.68,-0.18,0.71,-0.12,
2.343,-2.50,-0.68,3.68,-0.14,0.70,-0.08,
2.344,-2.50,-0.68,3.68,-0.11,0.67,-0.05,
2.351,-2.50,-0.68,3.68,-0.07,0.65,-0.01,
2.352,-2.50,-0.68,3.68,-0.03,0.62,0.03,
2.354,-2.50,-0.68,3.68,0.00,0.58,0.07,
2.358,-2.90,-0.72,3.27,0.00,0.58,0.07,
2.359,-2.90,-0.72,3.27,0.04,0.55,0.11,
2.359,-2.90,-0.72,3.27,0.07,0.51,0.15,
2.359,-2.90,-0.72,3.27,0.11,0.46,0.19,
2.359,-2.90,-0.72,3.27,0.14,0.41,0.23,
2.36,-2.90,-0.72,3.27,0.17,0.36,0.27,
2.385,-3.02,-0.73,2.69,0.17,0.36,0.27,
2.385,-3.02,-0.73,2.69,0.21,0.31,0.30,
2.385,-3.02,-0.73,2.69,0.24,0.25,0.34,
2.386,-3.02,-0.73,2.69,0.26,0.19,0.37,
2.386,-3.02,-0.73,2.69,0.29,0.13,0.41,
2.386,-3.02,-0.73,2.69,0.31,0.06,0.44,
2.387,-2.60,-0.59,2.05,0.31,0.06,0.44,
2.387,-2.60,-0.59,2.05,0.33,0.00,0.46,
2.387,-2.60,-0.59,2.05,0.35,-0.06,0.49,
2.387,-2.60,-0.59,2.05,0.37,-0.13,0.51,
2.388,-2.60,-0.59,2.05,0.39,-0.19,0.53,
2.388,-2.60,-0.59,2.05,0.40,-0.25,0.55,
2.388,-1.99,-0.47,1.39,0.40,-0.25,0.55,
2.389,-1.99,-0.47,1.39,0.40,-0.31,0.56,
2.389,-1.99,-0.47,1.39,0.40,-0.37,0.57,
2.389,-1.99,-0.47,1.39,0.40,-0.42,0.58,
2.389,-1.99,-0.47,1.39,0.39,-0.47,0.59,
2.39,-1.99,-0.47,1.39,0.38,-0.52,0.59,
2.412,-1.19,-0.38,0.64,0.38,-0.52,0.59,
2.412,-1.19,-0.38,0.64,0.37,-0.56,0.59,
2.413,-1.19,-0.38,0.64,0.35,-0.60,0.60,
2.413,-1.19,-0.38,0.64,0.33,-0.63,0.59,
2.413,-1.19,-0.38,0.64,0.31,-0.65,0.59,
2.413,-1.19,-0.38,0.64,0.29,-0.67,0.59,
2.413,-0.49,-0.31,0.27,0.29,-0.67,0.59,
2.414,-0.49,-0.31,0.27,0.27,-0.69,0.59,
2.414,-0.49,-0.31,0.27,0.25,-0.70,0.58,
2.414,-0.49,-0.31,0.27,0.23,-0.71,0.57,
2.414,-0.49,-0.31,0.27,0.20,-0.71,0.56,
2.414,-0.49,-0.31,0.27,0.19,-0.70,0.55,
2.414,0.22,-0.26,0.26,0.19,-0.70,0.55,
2.415,0.22,-0.26,0.26,0.17,-0.69,0.54,
2.415,0.22,-0.26,0.26,0.15,-0.67,0.52,
2.454,0.22,-0.26,0.26,0.13,-0.65,0.51,
2.454,0.22,-0.26,0.26,0.11,-0.62,0.50,
2.455,0.22,-0.26,0.26,0.09,-0.59,0.48,
2.455,0.74,-0.27,0.26,0.09,-0.59,0.48,
2.455,0.74,-0.27,0.26,0.08,-0.55,0.46,
2.455,0.74,-0.27,0.26,0.06,-0.51,0.44,
2.456,0.74,-0.27,0.26,0.04,-0.47,0.42,
2.456,0.74,-0.27,0.26,0.02,-0.43,0.41,
2.456,0.74,-0.27,0.26,-0.00,-0.38,0.39,
2.456,0.99,-0.34,0.01,-0.00,-0.38,0.39,
2.457,0.99,-0.34,0.01,-0.02,-0.33,0.37,
2.457,0.99,-0.34,0.01,-0.04,-0.28,0.36,
2.457,0.99,-0.34,0.01,-0.06,-0.23,0.34,
2.457,0.99,-0.34,0.01,-0.08,-0.18,0.32,
2.458,0.99,-0.34,0.01,-0.11,-0.13,0.31,
2.458,1.15,-0.42,-0.47,-0.11,-0.13,0.31,
2.458,1.15,-0.42,-0.47,-0.13,-0.08,0.29,
2.458,1.15,-0.42,-0.47,-0.16,-0.03,0.28,
2.459,1.15,-0.42,-0.47,-0.19,0.01,0.26,
2.459,1.15,-0.42,-0.47,-0.21,0.05,0.24,
2.459,1.15,-0.42,-0.47,-0.24,0.10,0.23,
2.459,1.08,-0.51,-1.07,-0.24,0.10,0.23,
2.46,1.08,-0.51,-1.07,-0.26,0.14,0.21,
2.46,1.08,-0.51,-1.07,-0.29,0.18,0.20,
2.46,1.08,-0.51,-1.07,-0.32,0.22,0.18,
2.461,1.08,-0.51,-1.07,-0.34,0.25,0.17,
2.461,1.08,-0.51,-1.07,-0.36,0.28,0.16,
2.471,0.99,-0.57,-1.51,-0.36,0.28,0.16,
2.471,0.99,-0.57,-1.51,-0.38,0.31,0.14,
2.471,0.99,-0.57,-1.51,-0.40,0.34,0.13,
2.471,0.99,-0.57,-1.51,-0.42,0.36,0.12,
2.472,0.99,-0.57,-1.51,-0.43,0.39,0.11,
2.472,0.99,-0.57,-1.51,-0.44,0.40,0.10,
2.472,0.76,-0.68,-1.69,-0.44,0.40,0.10,
2.472,0.76,-0.68,-1.69,-0.45,0.42,0.09,
2.479,0.76,-0.68,-1.69,-0.46,0.43,0.09,
2.48,0.76,-0.68,-1.69,-0.46,0.44,0.08,
2.48,0.76,-0.68,-1.69,-0.47,0.45,0.08,
2.485,0.76,-0.68,-1.69,-0.47,0.45,0.08,
2.485,0.43,-0.83,-1.80,-0.47,0.45,0.08,
2.485,0.43,-0.83,-1.80,-0.47,0.46,0.08,
2.486,0.43,-0.83,-1.80,-0.47,0.45,0.08,
2.487,0.43,-0.83,-1.80,-0.47,0.45,0.08,
2.491,0.43,-0.83,-1.80,-0.47,0.44,0.08,
2.491,0.43,-0.83,-1.80,-0.46,0.43,0.09,
2.496,0.17,-1.00,-1.84,-0.46,0.43,0.09,
2.496,0.17,-1.00,-1.84,-0.45,0.42,0.09,
2.496,0.17,-1.00,-1.84,-0.44,0.40,0.10,
2.497,0.17,-1.00,-1.84,-0.43,0.39,0.11,
2.502,0.17,-1.00,-1.84,-0.42,0.37,0.12,
2.502,0.17,-1.00,-1.84,-0.40,0.35,0.14,
2.502,-0.18,-1.15,-1.72,-0.40,0.35,0.14,
2.503,-0.18,-1.15,-1.72,-0.39,0.33,0.15,
2.504,-0.18,-1.15,-1.72,-0.36,0.31,0.16,
2.509,-0.18,-1.15,-1.72,-0.34,0.30,0.18,
2.509,-0.18,-1.15,-1.72,-0.31,0.27,0.20,
2.51,-0.18,-1.15,-1.72,-0.29,0.25,0.22,
2.527,-0.46,-1.27,-1.53,-0.29,0.25,0.22,
2.527,-0.46,-1.27,-1.53,-0.26,0.23,0.24,
2.527,-0.46,-1.27,-1.53,-0.23,0.21,0.26,
2.528,-0.46,-1.27,-1.53,-0.19,0.18,0.29,
2.528,-0.46,-1.27,-1.53,-0.16,0.16,0.31,
2.528,-0.46,-1.27,-1.53,-0.12,0.14,0.33,
2.528,-0.62,-1.39,-1.38,-0.12,0.14,0.33,
2.529,-0.62,-1.39,-1.38,-0.09,0.12,0.35,
2.529,-0.62,-1.39,-1.38,-0.05,0.09,0.38,
2.529,-0.62,-1.39,-1.38,-0.01,0.07,0.40,
2.533,-0.62,-1.39,-1.38,0.03,0.06,0.42,
2.534,-0.62,-1.39,-1.38,0.06,0.04,0.44,
2.535,-0.59,-1.40,-1.38,0.06,0.04,0.44,
2.536,-0.59,-1.40,-1.38,0.10,0.02,0.46,
2.537,-0.59,-1.40,-1.38,0.14,0.01,0.48,
2.538,-0.59,-1.40,-1.38,0.18,-0.01,0.50,
2.54,-0.59,-1.40,-1.38,0.22,-0.03,0.52,
2.54,-0.59,-1.40,-1.38,0.25,-0.04,0.54,
2.543,-0.52,-1.41,-1.52,0.25,-0.04,0.54,
2.543,-0.52,-1.41,-1.52,0.29,-0.06,0.56,
2.544,-0.52,-1.41,-1.52,0.32,-0.08,0.57,
2.558,-0.52,-1.41,-1.52,0.35,-0.09,0.59,
2.559,-0.52,-1.41,-1.52,0.39,-0.10,0.61,
2.559,-0.52,-1.41,-1.52,0.42,-0.12,0.62,
2.559,-0.37,-1.37,-1.78,0.42,-0.12,0.62,
2.56,-0.37,-1.37,-1.78,0.45,-0.13,0.64,
2.56,-0.37,-1.37,-1.78,0.48,-0.14,0.65,
2.56,-0.37,-1.37,-1.78,0.50,-0.15,0.66,
2.578,-0.37,-1.37,-1.78,0.53,-0.16,0.67,
2.578,-0.37,-1.37,-1.78,0.55,-0.17,0.68,
2.578,-0.18,-1.28,-2.18,0.55,-0.17,0.68,
2.578,-0.18,-1.28,-2.18,0.57,-0.17,0.69,
2.579,-0.18,-1.28,-2.18,0.59,-0.18,0.69,
2.579,-0.18,-1.28,-2.18,0.60,-0.19,0.70,
2.579,-0.18,-1.28,-2.18,0.61,-0.19,0.71,
2.579,-0.18,-1.28,-2.18,0.62,-0.20,0.71,
2.579,0.01,-1.19,-2.64,0.62,-0.20,0.71,
2.58,0.01,-1.19,-2.64,0.63,-0.21,0.72,
2.58,0.01,-1.19,-2.64,0.63,-0.21,0.72,
2.58,0.01,-1.19,-2.64,0.63,-0.22,0.72,
2.58,0.01,-1.19,-2.64,0.64,-0.22,0.72,
2.58,0.01,-1.19,-2.64,0.64,-0.22,0.72,
2.618,0.20,-1.03,-2.95,0.64,-0.22,0.72,
2.618,0.20,-1.03,-2.95,0.63,-0.22,0.72,
2.619,0.20,-1.03,-2.95,0.63,-0.22,0.72,
2.619,0.20,-1.03,-2.95,0.62,-0.22,0.71,
2.619,0.20,-1.03,-2.95,0.62,-0.21,0.71,
2.62,0.20,-1.03,-2.95,0.61,-0.20,0.70,
2.62,0.35,-0.90,-3.12,0.61,-0.20,0.70,
2.62,0.35,-0.90,-3.12,0.60,-0.19,0.69,
2.62,0.35,-0.90,-3.12,0.59,-0.18,0.68,
2.621,0.35,-0.90,-3.12,0.58,-0.17,0.67,
2.621,0.35,-0.90,-3.12,0.56,-0.17,0.67,
2.621,0.35,-0.90,-3.12,0.55,-0.16,0.65,
2.621,0.53,-0.79,-3.24,0.55,-0.16,0.65,
2.621,0.53,-0.79,-3.24,0.53,-0.15,0.64,
2.622,0.53,-0.79,-3.24,0.52,-0.14,0.63,
2.622,0.53,-0.79,-3.24,0.50,-0.13,0.62,
2.622,0.53,-0.79,-3.24,0.48,-0.13,0.60,
2.622,0.53,-0.79,-3.24,0.47,-0.12,0.59,
2.622,0.56,-0.77,-3.22,0.47,-0.12,0.59,
2.623,0.56,-0.77,-3.22,0.45,-0.12,0.58,
2.623,0.56,-0.77,-3.22,0.43,-0.11,0.57,
2.623,0.56,-0.77,-3.22,0.41,-0.11,0.56,
2.623,0.56,-0.77,-3.22,0.40,-0.10,0.54,
2.623,0.56,-0.77,-3.22,0.39,-0.09,0.53,
2.624,0.53,-0.71,-2.97,0.39,-0.09,0.53,
2.624,0.53,-0.71,-2.97,0.37,-0.09,0.52,
2.624,0.53,-0.71,-2.97,0.36,-0.08,0.51,
2.626,0.53,-0.71,-2.97,0.36,-0.08,0.50,
2.629,0.53,-0.71,-2.97,0.35,-0.08,0.49,
2.63,0.53,-0.71,-2.97,0.35,-0.07,0.48,
2.633,0.40,-0.72,-2.49,0.35,-0.07,0.48,
2.633,0.40,-0.72,-2.49,0.34,-0.07,0.47,
2.634,0.40,-0.72,-2.49,0.34,-0.07,0.46,
2.636,0.40,-0.72,-2.49,0.35,-0.08,0.45,
2.638,0.40,-0.72,-2.49,0.35,-0.08,0.44,
2.64,0.40,-0.72,-2.49,0.35,-0.09,0.43,
2.642,0.38,-0.69,-2.00,0.35,-0.09,0.43,
2.643,0.38,-0.69,-2.00,0.35,-0.10,0.42,
2.653,0.38,-0.69,-2.00,0.35,-0.10,0.41,
2.653,0.38,-0.69,-2.00,0.35,-0.11,0.40,
2.653,0.38,-0.69,-2.00,0.35,-0.12,0.38,
2.653,0.38,-0.69,-2.00,0.35,-0.13,0.37,
2.654,0.44,-0.61,-1.60,0.35,-0.13,0.37,
2.654,0.44,-0.61,-1.60,0.35,-0.14,0.35,
2.654,0.44,-0.61,-1.60,0.35,-0.15,0.34,
2.656,0.44,-0.61,-1.60,0.35,-0.17,0.32,
2.658,0.44,-0.61,-1.60,0.35,-0.18,0.30,
2.662,0.44,-0.61,-1.60,0.35,-0.19,0.28,
2.672,0.61,-0.50,-1.13,0.35,-0.19,0.28,
2.673,0.61,-0.50,-1.13,0.36,-0.21,0.26,
2.673,0.61,-0.50,-1.13,0.36,-0.22,0.24,
2.673,0.61,-0.50,-1.13,0.36,-0.24,0.21,
2.673,0.61,-0.50,-1.13,0.36,-0.25,0.19,
2.673,0.61,-0.50,-1.13,0.36,-0.26,0.17,
2.673,0.62,-0.49,-0.54,0.36,-0.26,0.17,
2.673,0.62,-0.49,-0.54,0.36,-0.26,0.15,
2.674,0.62,-0.49,-0.54,0.37,-0.26,0.13,
2.678,0.62,-0.49,-0.54,0.37,-0.26,0.11,
2.678,0.62,-0.49,-0.54,0.37,-0.26,0.09,
2.682,0.62,-0.49,-0.54,0.37,-0.25,0.08,
2.683,0.40,-0.46,-0.05,0.37,-0.25,0.08,
2.683,0.40,-0.46,-0.05,0.37,-0.25,0.06,
2.684,0.40,-0.46,-0.05,0.36,-0.24,0.05,
2.686,0.40,-0.46,-0.05,0.36,-0.22,0.04,
2.688,0.40,-0.46,-0.05,0.36,-0.21,0.03,
2.69,0.40,-0.46,-0.05,0.35,-0.20,0.02,
2.692,0.08,-0.47,0.34,0.35,-0.20,0.02,
2.692,0.08,-0.47,0.34,0.35,-0.19,0.01,
2.693,0.08,-0.47,0.34,0.35,-0.18,-0.00,
2.696,0.08,-0.47,0.34,0.34,-0.16,-0.01,
2.698,0.08,-0.47,0.34,0.34,-0.15,-0.01,
2.7,0.08,-0.47,0.34,0.34,-0.14,-0.01,
2.702,-0.23,-0.53,0.76,0.34,-0.14,-0.01,
2.702,-0.23,-0.53,0.76,0.33,-0.13,-0.01,
2.703,-0.23,-0.53,0.76,0.33,-0.12,-0.01,
2.706,-0.23,-0.53,0.76,0.33,-0.11,-0.01,
2.708,-0.23,-0.53,0.76,0.32,-0.10,-0.01,
2.71,-0.23,-0.53,0.76,0.32,-0.08,-0.01,
2.712,-0.47,-0.55,1.12,0.32,-0.08,-0.01,
2.712,-0.47,-0.55,1.12,0.32,-0.07,-0.01,
2.714,-0.47,-0.55,1.12,0.32,-0.05,-0.00,
2.716,-0.47,-0.55,1.12,0.32,-0.04,0.00,
2.718,-0.47,-0.55,1.12,0.32,-0.02,0.01,
2.72,-0.47,-0.55,1.12,0.32,-0.01,0.01,
2.723,-0.57,-0.54,1.34,0.32,-0.01,0.01,
2.723,-0.57,-0.54,1.34,0.32,0.00,0.02,
2.734,-0.57,-0.54,1.34,0.31,0.01,0.02,
2.734,-0.57,-0.54,1.34,0.30,0.01,0.02,
2.734,-0.57,-0.54,1.34,0.30,0.02,0.02,
2.735,-0.57,-0.54,1.34,0.29,0.02,0.02,
2.735,-0.31,-0.45,1.24,0.29,0.02,0.02,
2.735,-0.31,-0.45,1.24,0.27,0.02,0.01,
2.735,-0.31,-0.45,1.24,0.25,0.02,0.00,
2.757,-0.31,-0.45,1.24,0.23,0.02,-0.00,
2.758,-0.31,-0.45,1.24,0.21,0.02,-0.02,
2.758,-0.31,-0.45,1.24,0.18,0.02,-0.03,
2.758,0.02,-0.32,1.01,0.18,0.02,-0.03,
2.759,0.02,-0.32,1.01,0.15,0.01,-0.04,
2.759,0.02,-0.32,1.01,0.12,0.01,-0.06,
2.759,0.02,-0.32,1.01,0.09,0.01,-0.08,
2.759,0.02,-0.32,1.01,0.05,0.00,-0.09,
2.76,0.02,-0.32,1.01,0.02,-0.01,-0.11,
2.76,0.39,-0.20,0.84,0.02,-0.01,-0.11,
2.76,0.39,-0.20,0.84,-0.02,-0.01,-0.13,
2.76,0.39,-0.20,0.84,-0.07,-0.02,-0.16,
2.761,0.39,-0.20,0.84,-0.11,-0.03,-0.18,
2.761,0.39,-0.20,0.84,-0.15,-0.04,-0.20,
2.761,0.39,-0.20,0.84,-0.20,-0.04,-0.22,
2.767,0.73,-0.16,0.96,-0.20,-0.04,-0.22,
2.767,0.73,-0.16,0.96,-0.24,-0.05,-0.25,
2.767,0.73,-0.16,0.96,-0.29,-0.05,-0.27,
2.768,0.73,-0.16,0.96,-0.32,-0.05,-0.29,
2.768,0.73,-0.16,0.96,-0.35,-0.04,-0.31,
2.773,0.73,-0.16,0.96,-0.38,-0.02,-0.32,
2.773,0.64,0.05,1.71,-0.38,-0.02,-0.32,
2.773,0.64,0.05,1.71,-0.40,-0.01,-0.34,
2.773,0.64,0.05,1.71,-0.42,0.01,-0.35,
2.778,0.64,0.05,1.71,-0.44,0.04,-0.35,
2.778,0.64,0.05,1.71,-0.45,0.06,-0.36,
2.788,0.64,0.05,1.71,-0.46,0.08,-0.36,
2.789,0.27,0.16,2.54,-0.46,0.08,-0.36,
2.789,0.27,0.16,2.54,-0.47,0.09,-0.36,
2.789,0.27,0.16,2.54,-0.49,0.11,-0.36,
2.789,0.27,0.16,2.54,-0.50,0.12,-0.35,
2.794,0.27,0.16,2.54,-0.52,0.14,-0.35,
2.794,0.27,0.16,2.54,-0.53,0.15,-0.34,
2.795,0.29,-0.11,2.74,-0.53,0.15,-0.34,
2.795,0.29,-0.11,2.74,-0.55,0.17,-0.34,
2.795,0.29,-0.11,2.74,-0.57,0.19,-0.33,
2.822,0.29,-0.11,2.74,-0.59,0.20,-0.33,
2.822,0.29,-0.11,2.74,-0.61,0.23,-0.32,
2.822,0.29,-0.11,2.74,-0.63,0.26,-0.32,
2.823,0.61,-0.28,2.70,-0.63,0.26,-0.32,
2.823,0.61,-0.28,2.70,-0.65,0.28,-0.32,
2.823,0.61,-0.28,2.70,-0.67,0.31,-0.33,
2.823,0.61,-0.28,2.70,-0.68,0.34,-0.33,
2.823,0.61,-0.28,2.70,-0.70,0.36,-0.34,
2.824,0.61,-0.28,2.70,-0.72,0.38,-0.36,
2.824,1.07,-0.06,2.72,-0.72,0.38,-0.36,
2.824,1.07,-0.06,2.72,-0.73,0.39,-0.38,
2.824,1.07,-0.06,2.72,-0.74,0.40,-0.40,
2.824,1.07,-0.06,2.72,-0.76,0.41,-0.43,
2.824,1.07,-0.06,2.72,-0.78,0.41,-0.46,
2.825,1.07,-0.06,2.72,-0.80,0.41,-0.49,
2.825,1.52,0.03,2.62,-0.80,0.41,-0.49,
2.825,1.52,0.03,2.62,-0.81,0.40,-0.52,
2.825,1.52,0.03,2.62,-0.83,0.40,-0.56,
2.827,1.52,0.03,2.62,-0.85,0.39,-0.59,
2.841,1.52,0.03,2.62,-0.86,0.38,-0.62,
2.842,1.52,0.03,2.62,-0.88,0.38,-0.65,
2.842,1.47,0.04,2.60,-0.88,0.38,-0.65,
2.842,1.47,0.04,2.60,-0.89,0.38,-0.68,
2.842,1.47,0.04,2.60,-0.90,0.38,-0.70,
2.843,1.47,0.04,2.60,-0.91,0.37,-0.71,
2.843,1.47,0.04,2.60,-0.92,0.37,-0.73,
2.843,1.47,0.04,2.60,-0.92,0.37,-0.74,
2.843,1.00,-0.14,2.86,-0.92,0.37,-0.74,
2.843,1.00,-0.14,2.86,-0.92,0.38,-0.75,
2.856,1.00,-0.14,2.86,-0.93,0.38,-0.75,
2.857,1.00,-0.14,2.86,-0.92,0.39,-0.75,
2.857,1.00,-0.14,2.86,-0.91,0.39,-0.74,
2.857,1.00,-0.14,2.86,-0.90,0.40,-0.73,
2.857,0.47,-0.38,3.23,-0.90,0.40,-0.73,
2.858,0.47,-0.38,3.23,-0.89,0.41,-0.73,
2.858,0.47,-0.38,3.23,-0.88,0.42,-0.71,
2.858,0.47,-0.38,3.23,-0.86,0.43,-0.70,
2.858,0.47,-0.38,3.23,-0.84,0.43,-0.69,
2.863,0.47,-0.38,3.23,-0.81,0.44,-0.67,
2.863,0.05,-0.59,3.52,-0.81,0.44,-0.67,
2.863,0.05,-0.59,3.52,-0.78,0.44,-0.65,
2.871,0.05,-0.59,3.52,-0.75,0.44,-0.64,
2.872,0.05,-0.59,3.52,-0.72,0.43,-0.62,
2.872,0.05,-0.59,3.52,-0.68,0.42,-0.60,
2.872,0.05,-0.59,3.52,-0.64,0.40,-0.58,
2.873,-0.28,-0.63,3.62,-0.64,0.40,-0.58,
2.873,-0.28,-0.63,3.62,-0.60,0.39,-0.55,
2.873,-0.28,-0.63,3.62,-0.56,0.36,-0.53,
2.878,-0.28,-0.63,3.62,-0.52,0.34,-0.51,
2.879,-0.28,-0.63,3.62,-0.48,0.31,-0.48,
2.884,-0.28,-0.63,3.62,-0.45,0.27,-0.45,
2.885,-0.56,-0.70,3.30,-0.45,0.27,-0.45,
2.885,-0.56,-0.70,3.30,-0.41,0.24,-0.43,
2.885,-0.56,-0.70,3.30,-0.38,0.20,-0.40,
2.889,-0.56,-0.70,3.30,-0.35,0.16,-0.38,
2.889,-0.56,-0.70,3.30,-0.32,0.11,-0.35,
2.89,-0.56,-0.70,3.30,-0.30,0.07,-0.32,
2.908,-0.59,-0.68,2.56,-0.30,0.07,-0.32,
2.908,-0.59,-0.68,2.56,-0.28,0.02,-0.30,
2.908,-0.59,-0.68,2.56,-0.26,-0.03,-0.28,
2.908,-0.59,-0.68,2.56,-0.25,-0.09,-0.26,
2.909,-0.59,-0.68,2.56,-0.24,-0.14,-0.24,
2.909,-0.59,-0.68,2.56,-0.24,-0.20,-0.23,
2.909,-0.18,-0.62,1.80,-0.24,-0.20,-0.23,
2.909,-0.18,-0.62,1.80,-0.23,-0.25,-0.22,
2.909,-0.18,-0.62,1.80,-0.24,-0.30,-0.21,
2.909,-0.18,-0.62,1.80,-0.24,-0.34,-0.20,
2.91,-0.18,-0.62,1.80,-0.24,-0.39,-0.20,
2.91,-0.18,-0.62,1.80,-0.24,-0.42,-0.20,
2.958,0.40,-0.46,1.33,-0.24,-0.42,-0.20,
2.959,0.40,-0.46,1.33,-0.25,-0.45,-0.20,
2.959,0.40,-0.46,1.33,-0.25,-0.48,-0.21,
2.959,0.40,-0.46,1.33,-0.26,-0.50,-0.21,
2.959,0.40,-0.46,1.33,-0.27,-0.51,-0.22,
2.96,0.40,-0.46,1.33,-0.28,-0.52,-0.22,
2.96,0.88,-0.38,1.19,-0.28,-0.52,-0.22,
2.96,0.88,-0.38,1.19,-0.29,-0.53,-0.23,
2.96,0.88,-0.38,1.19,-0.30,-0.53,-0.24,
2.96,0.88,-0.38,1.19,-0.31,-0.52,-0.24,
2.96,0.88,-0.38,1.19,-0.31,-0.51,-0.25,
2.961,0.88,-0.38,1.19,-0.32,-0.49,-0.26,
2.961,1.14,-0.41,1.16,-0.32,-0.49,-0.26,
2.961,1.14,-0.41,1.16,-0.33,-0.47,-0.26,
2.961,1.14,-0.41,1.16,-0.34,-0.44,-0.27,
2.961,1.14,-0.41,1.16,-0.35,-0.40,-0.27,
2.962,1.14,-0.41,1.16,-0.35,-0.36,-0.27,
2.962,1.14,-0.41,1.16,-0.36,-0.32,-0.28,
2.962,1.19,-0.50,1.09,-0.36,-0.32,-0.28,
2.962,1.19,-0.50,1.09,-0.37,-0.28,-0.28,
2.962,1.19,-0.50,1.09,-0.37,-0.24,-0.28,
2.963,1.19,-0.50,1.09,-0.37,-0.19,-0.28,
2.963,1.19,-0.50,1.09,-0.37,-0.15,-0.28,
2.963,1.19,-0.50,1.09,-0.37,-0.11,-0.28,
2.963,1.05,-0.55,1.01,-0.37,-0.11,-0.28,
2.963,1.05,-0.55,1.01,-0.37,-0.06,-0.28,
2.964,1.05,-0.55,1.01,-0.37,-0.02,-0.28,
2.964,1.05,-0.55,1.01,-0.36,0.02,-0.27,
2.964,1.05,-0.55,1.01,-0.35,0.06,-0.27,
2.964,1.05,-0.55,1.01,-0.34,0.10,-0.27,
2.964,0.81,-0.58,0.80,-0.34,0.10,-0.27,
2.964,0.81,-0.58,0.80,-0.33,0.14,-0.26,
2.965,0.81,-0.58,0.80,-0.32,0.17,-0.26,
2.993,0.81,-0.58,0.80,-0.31,0.20,-0.25,
2.994,0.81,-0.58,0.80,-0.30,0.23,-0.25,
2.994,0.81,-0.58,0.80,-0.28,0.26,-0.24,
2.994,0.55,-0.48,0.39,-0.28,0.26,-0.24,
2.994,0.55,-0.48,0.39,-0.24,0.31,-0.24,
2.994,0.55,-0.48,0.39,-0.24,0.31,-0.24,
2.995,0.55,-0.48,0.39,-0.22,0.33,-0.23,
2.995,0.55,-0.48,0.39,-0.21,0.33,-0.23,
2.995,0.55,-0.48,0.39,-0.21,0.33,-0.23,
2.995,0.34,-0.44,-0.20,-0.21,0.33,-0.23,
2.995,0.34,-0.44,-0.20,-0.20,0.34,-0.23,
2.996,0.34,-0.44,-0.20,-0.18,0.34,-0.22,
2.996,0.34,-0.44,-0.20,-0.17,0.33,-0.22,
2.996,0.34,-0.44,-0.20,-0.15,0.33,-0.22,
2.996,0.34,-0.44,-0.20,-0.14,0.32,-0.22,
2.996,0.17,-0.41,-0.83,-0.14,0.32,-0.22,
2.996,0.17,-0.41,-0.83,-0.12,0.31,-0.22,
2.997,0.17,-0.41,-0.83,-0.11,0.29,-0.21,
2.997,0.17,-0.41,-0.83,-0.09,0.27,-0.21,
2.998,0.17,-0.41,-0.83,-0.08,0.26,-0.21,
3.0,0.17,-0.41,-0.83,-0.06,0.24,-0.21,
3.002,0.03,-0.34,-1.37,-0.06,0.24,-0.21,
3.002,0.03,-0.34,-1.37,-0.04,0.22,-0.21,
3.004,0.03,-0.34,-1.37,-0.03,0.20,-0.20,
3.006,0.03,-0.34,-1.37,-0.01,0.18,-0.20,
3.008,0.03,-0.34,-1.37,0.00,0.16,-0.20,
3.011,0.03,-0.34,-1.37,0.02,0.14,-0.19,
3.015,-0.14,-0.31,-1.85,0.02,0.14,-0.19,
3.015,-0.14,-0.31,-1.85,0.03,0.13,-0.19,
3.016,-0.14,-0.31,-1.85,0.05,0.11,-0.19,
3.016,-0.14,-0.31,-1.85,0.06,0.09,-0.18,
3.018,-0.14,-0.31,-1.85,0.07,0.07,-0.18,
3.027,-0.14,-0.31,-1.85,0.09,0.05,-0.18,
3.027,-0.26,-0.26,-2.27,0.09,0.05,-0.18,
3.027,-0.26,-0.26,-2.27,0.10,0.04,-0.17,
3.027,-0.26,-0.26,-2.27,0.12,0.02,-0.16,
3.027,-0.26,-0.26,-2.27,0.13,0.01,-0.16,
3.033,-0.26,-0.26,-2.27,0.14,-0.01,-0.16,
3.034,-0.26,-0.26,-2.27,0.15,-0.03,-0.15,
3.034,-0.37,-0.26,-2.61,0.15,-0.03,-0.15,
3.034,-0.37,-0.26,-2.61,0.16,-0.04,-0.15,
3.034,-0.37,-0.26,-2.61,0.17,-0.05,-0.14,
3.039,-0.37,-0.26,-2.61,0.18,-0.06,-0.14,
3.039,-0.37,-0.26,-2.61,0.19,-0.07,-0.13,
3.04,-0.37,-0.26,-2.61,0.20,-0.08,-0.13,
3.045,-0.44,-0.20,-2.86,0.20,-0.08,-0.13,
3.045,-0.44,-0.20,-2.86,0.21,-0.09,-0.13,
3.045,-0.44,-0.20,-2.86,0.22,-0.10,-0.12,
3.054,-0.44,-0.20,-2.86,0.23,-0.11,-0.12,
3.055,-0.44,-0.20,-2.86,0.24,-0.13,-0.12,
3.055,-0.44,-0.20,-2.86,0.24,-0.13,-0.12,
3.055,-0.42,-0.18,-3.03,0.24,-0.13,-0.12,
3.055,-0.42,-0.18,-3.03,0.25,-0.14,-0.12,
3.055,-0.42,-0.18,-3.03,0.25,-0.15,-0.11,
3.059,-0.42,-0.18,-3.03,0.25,-0.16,-0.11,
3.075,-0.42,-0.18,-3.03,0.26,-0.17,-0.11,
3.075,-0.42,-0.18,-3.03,0.26,-0.18,-0.11,
3.075,-0.47,-0.05,-3.18,0.26,-0.18,-0.11,
3.076,-0.47,-0.05,-3.18,0.26,-0.18,-0.10,
3.076,-0.47,-0.05,-3.18,0.26,-0.19,-0.10,
3.076,-0.47,-0.05,-3.18,0.26,-0.20,-0.10,
3.076,-0.47,-0.05,-3.18,0.25,-0.20,-0.09,
3.076,-0.47,-0.05,-3.18,0.25,-0.21,-0.09,
3.076,-0.45,0.01,-3.24,0.25,-0.21,-0.09,
3.077,-0.45,0.01,-3.24,0.24,-0.22,-0.09,
3.077,-0.45,0.01,-3.24,0.24,-0.22,-0.09,
3.077,-0.45,0.01,-3.24,0.23,-0.22,-0.09,
3.108,-0.45,0.01,-3.24,0.23,-0.23,-0.09,
3.108,-0.45,0.01,-3.24,0.22,-0.23,-0.09,
3.109,-0.30,0.15,-3.27,0.22,-0.23,-0.09,
3.109,-0.30,0.15,-3.27,0.21,-0.23,-0.09,
3.109,-0.30,0.15,-3.27,0.20,-0.23,-0.09,
3.109,-0.30,0.15,-3.27,0.19,-0.23,-0.10,
3.109,-0.30,0.15,-3.27,0.18,-0.23,-0.10,
3.11,-0.30,0.15,-3.27,0.17,-0.23,-0.11,
3.11,-0.13,0.32,-3.05,0.17,-0.23,-0.11,
3.11,-0.13,0.32,-3.05,0.16,-0.23,-0.11,
3.11,-0.13,0.32,-3.05,0.15,-0.22,-0.11,
3.11,-0.13,0.32,-3.05,0.15,-0.22,-0.12,
3.111,-0.13,0.32,-3.05,0.14,-0.22,-0.13,
3.111,-0.13,0.32,-3.05,0.13,-0.22,-0.14,
3.111,0.08,0.55,-2.75,0.13,-0.22,-0.14,
3.111,0.08,0.55,-2.75,0.12,-0.21,-0.15,
3.111,0.08,0.55,-2.75,0.11,-0.21,-0.16,
3.112,0.08,0.55,-2.75,0.11,-0.21,-0.18,
3.112,0.08,0.55,-2.75,0.10,-0.20,-0.19,
3.112,0.08,0.55,-2.75,0.10,-0.20,-0.20,
3.118,0.22,0.65,-2.30,0.10,-0.20,-0.20,
3.118,0.22,0.65,-2.30,0.09,-0.19,-0.21,
3.118,0.22,0.65,-2.30,0.09,-0.19,-0.23,
3.119,0.22,0.65,-2.30,0.08,-0.18,-0.24,
3.119,0.22,0.65,-2.30,0.08,-0.18,-0.25,
3.123,0.22,0.65,-2.30,0.08,-0.17,-0.26,
3.124,0.23,0.75,-1.89,0.08,-0.17,-0.26,
3.124,0.23,0.75,-1.89,0.07,-0.17,-0.27,
3.124,0.23,0.75,-1.89,0.07,-0.16,-0.28,
3.129,0.23,0.75,-1.89,0.07,-0.16,-0.29,
3.129,0.23,0.75,-1.89,0.07,-0.16,-0.30,
3.134,0.23,0.75,-1.89,0.06,-0.15,-0.31,
3.135,0.22,0.76,-1.50,0.06,-0.15,-0.31,
3.135,0.22,0.76,-1.50,0.06,-0.15,-0.32,
3.139,0.22,0.76,-1.50,0.05,-0.15,-0.34,
3.139,0.22,0.76,-1.50,0.05,-0.14,-0.34,
3.14,0.22,0.76,-1.50,0.05,-0.14,-0.36,
3.14,0.22,0.76,-1.50,0.04,-0.14,-0.36,
3.145,0.18,0.83,-1.17,0.04,-0.14,-0.36,
3.145,0.18,0.83,-1.17,0.04,-0.14,-0.37,
3.146,0.18,0.83,-1.17,0.04,-0.14,-0.38,
3.154,0.18,0.83,-1.17,0.04,-0.14,-0.38,
3.154,0.18,0.83,-1.17,0.04,-0.14,-0.39,
3.154,0.18,0.83,-1.17,0.04,-0.14,-0.40,
3.155,0.07,0.83,-0.59,0.04,-0.14,-0.40,
3.155,0.07,0.83,-0.59,0.04,-0.15,-0.40,
3.156,0.07,0.83,-0.59,0.05,-0.15,-0.41,
3.161,0.07,0.83,-0.59,0.06,-0.15,-0.41,
3.161,0.07,0.83,-0.59,0.07,-0.15,-0.41,
3.162,0.07,0.83,-0.59,0.08,-0.15,-0.42,
3.163,-0.04,0.83,0.03,0.08,-0.15,-0.42,
3.163,-0.04,0.83,0.03,0.09,-0.15,-0.42,
3.164,-0.04,0.83,0.03,0.10,-0.14,-0.42,
3.168,-0.04,0.83,0.03,0.11,-0.14,-0.42,
3.169,-0.04,0.83,0.03,0.12,-0.13,-0.43,
3.17,-0.04,0.83,0.03,0.14,-0.12,-0.43,
3.173,-0.13,0.82,0.51,0.14,-0.12,-0.43,
3.173,-0.13,0.82,0.51,0.15,-0.11,-0.43,
3.174,-0.13,0.82,0.51,0.16,-0.10,-0.43,
3.187,-0.13,0.82,0.51,0.18,-0.09,-0.43,
3.187,-0.13,0.82,0.51,0.19,-0.08,-0.43,
3.187,-0.13,0.82,0.51,0.20,-0.06,-0.43,
3.187,-0.31,0.88,0.79,0.20,-0.06,-0.43,
3.187,-0.31,0.88,0.79,0.21,-0.05,-0.43,
3.188,-0.31,0.88,0.79,0.22,-0.04,-0.43,
3.188,-0.31,0.88,0.79,0.23,-0.03,-0.42,
3.188,-0.31,0.88,0.79,0.23,-0.02,-0.42,
3.194,-0.31,0.88,0.79,0.23,-0.01,-0.41,
3.194,-0.64,0.95,0.77,0.23,-0.01,-0.41,
3.194,-0.64,0.95,0.77,0.23,-0.00,-0.40,
3.195,-0.64,0.95,0.77,0.23,0.01,-0.40,
3.212,-0.64,0.95,0.77,0.22,0.02,-0.39,
3.213,-0.64,0.95,0.77,0.21,0.02,-0.38,
3.213,-0.64,0.95,0.77,0.21,0.03,-0.37,
3.213,-0.97,0.96,0.70,0.21,0.03,-0.37,
3.213,-0.97,0.96,0.70,0.20,0.04,-0.36,
3.213,-0.97,0.96,0.70,0.19,0.04,-0.35,
3.213,-0.97,0.96,0.70,0.18,0.05,-0.34,
3.213,-0.97,0.96,0.70,0.17,0.06,-0.32,
3.213,-0.97,0.96,0.70,0.16,0.07,-0.31,
3.213,-1.29,0.94,0.88,0.16,0.07,-0.31,
3.214,-1.29,0.94,0.88,0.15,0.07,-0.29,
3.214,-1.29,0.94,0.88,0.14,0.08,-0.27,
3.218,-1.29,0.94,0.88,0.13,0.08,-0.25,
3.218,-1.29,0.94,0.88,0.13,0.09,-0.23,
3.222,-1.29,0.94,0.88,0.13,0.10,-0.21,
3.222,-1.58,1.00,1.36,0.13,0.10,-0.21,
3.222,-1.58,1.00,1.36,0.12,0.10,-0.19,
3.233,-1.58,1.00,1.36,0.13,0.10,-0.17,
3.234,-1.58,1.00,1.36,0.13,0.10,-0.15,
3.234,-1.58,1.00,1.36,0.14,0.10,-0.12,
3.234,-1.58,1.00,1.36,0.14,0.10,-0.10,
3.234,-1.56,1.01,1.90,0.14,0.10,-0.10,
3.234,-1.56,1.01,1.90,0.15,0.10,-0.08,
3.257,-1.56,1.01,1.90,0.16,0.10,-0.06,
3.258,-1.56,1.01,1.90,0.17,0.10,-0.04,
3.258,-1.56,1.01,1.90,0.18,0.10,-0.02,
3.258,-1.56,1.01,1.90,0.19,0.09,-0.00,
3.258,-1.45,1.11,2.38,0.19,0.09,-0.00,
3.259,-1.45,1.11,2.38,0.20,0.09,0.01,
3.259,-1.45,1.11,2.38,0.21,0.08,0.03,
3.259,-1.45,1.11,2.38,0.23,0.08,0.05,
3.259,-1.45,1.11,2.38,0.24,0.07,0.06,
3.259,-1.45,1.11,2.38,0.26,0.06,0.08,
3.259,-1.23,1.22,2.74,0.26,0.06,0.08,
3.26,-1.23,1.22,2.74,0.27,0.05,0.09,
3.26,-1.23,1.22,2.74,0.29,0.04,0.11,
3.26,-1.23,1.22,2.74,0.30,0.02,0.12,
3.26,-1.23,1.22,2.74,0.32,0.01,0.14,
3.26,-1.23,1.22,2.74,0.33,-0.00,0.15,
3.265,-0.96,1.25,2.96,0.33,-0.00,0.15,
3.266,-0.96,1.25,2.96,0.35,-0.01,0.16,
3.266,-0.96,1.25,2.96,0.37,-0.03,0.17,
3.266,-0.96,1.25,2.96,0.37,-0.04,0.18,
3.27,-0.96,1.25,2.96,0.39,-0.06,0.19,
3.27,-0.96,1.25,2.96,0.39,-0.07,0.19,
3.274,-0.56,1.27,3.00,0.39,-0.07,0.19,
3.274,-0.56,1.27,3.00,0.40,-0.08,0.20,
3.274,-0.56,1.27,3.00,0.41,-0.09,0.20,
3.278,-0.56,1.27,3.00,0.42,-0.10,0.20,
3.279,-0.56,1.27,3.00,0.42,-0.11,0.20,
3.282,-0.56,1.27,3.00,0.43,-0.11,0.20,
3.282,-0.14,1.30,3.03,0.43,-0.11,0.20,
3.282,-0.14,1.30,3.03,0.43,-0.12,0.21,
3.286,-0.14,1.30,3.03,0.44,-0.12,0.20,
3.286,-0.14,1.30,3.03,0.45,-0.13,0.20,
3.287,-0.14,1.30,3.03,0.46,-0.13,0.20,
3.292,-0.14,1.30,3.03,0.48,-0.14,0.20,
3.295,-0.03,1.41,3.22,0.48,-0.14,0.20,
3.296,-0.03,1.41,3.22,0.49,-0.14,0.20,
3.296,-0.03,1.41,3.22,0.50,-0.14,0.20,
3.296,-0.03,1.41,3.22,0.52,-0.14,0.20,
3.298,-0.03,1.41,3.22,0.54,-0.14,0.20,
3.3,-0.03,1.41,3.22,0.55,-0.13,0.20,
3.302,-0.18,1.51,3.21,0.55,-0.13,0.20,
3.303,-0.18,1.51,3.21,0.57,-0.13,0.20,
3.304,-0.18,1.51,3.21,0.58,-0.12,0.19,
3.306,-0.18,1.51,3.21,0.59,-0.12,0.19,
3.308,-0.18,1.51,3.21,0.59,-0.12,0.19,
3.31,-0.18,1.51,3.21,0.58,-0.11,0.19,
3.313,-0.23,1.44,2.58,0.58,-0.11,0.19,
3.313,-0.23,1.44,2.58,0.57,-0.11,0.18,
3.314,-0.23,1.44,2.58,0.56,-0.11,0.18,
3.316,-0.23,1.44,2.58,0.53,-0.11,0.18,
3.318,-0.23,1.44,2.58,0.51,-0.10,0.17,
3.32,-0.23,1.44,2.58,0.48,-0.10,0.16,
3.322,-0.16,1.30,1.67,0.48,-0.10,0.16,
3.323,-0.16,1.30,1.67,0.44,-0.10,0.16,
3.324,-0.16,1.30,1.67,0.40,-0.09,0.15,
3.329,-0.16,1.30,1.67,0.36,-0.09,0.14,
3.33,-0.16,1.30,1.67,0.31,-0.08,0.12,
3.33,-0.16,1.30,1.67,0.27,-0.08,0.11,
3.333,0.05,1.20,1.23,0.27,-0.08,0.11,
3.333,0.05,1.20,1.23,0.22,-0.07,0.09,
3.334,0.05,1.20,1.23,0.18,-0.06,0.07,
3.336,0.05,1.20,1.23,0.14,-0.05,0.05,
3.341,0.05,1.20,1.23,0.11,-0.03,0.03,
3.341,0.05,1.20,1.23,0.07,-0.02,0.01,
3.358,0.08,1.09,1.47,0.07,-0.02,0.01,
3.359,0.08,1.09,1.47,0.04,-0.01,-0.01,
3.359,0.08,1.09,1.47,0.02,-0.00,-0.03,
3.359,0.08,1.09,1.47,-0.01,0.01,-0.05,
3.359,0.08,1.09,1.47,-0.03,0.01,-0.06,
3.36,0.08,1.09,1.47,-0.05,0.02,-0.07,
3.36,-0.32,0.87,2.15,-0.05,0.02,-0.07,
3.36,-0.32,0.87,2.15,-0.07,0.03,-0.08,
3.36,-0.32,0.87,2.15,-0.09,0.03,-0.09,
3.36,-0.32,0.87,2.15,-0.10,0.04,-0.09,
3.361,-0.32,0.87,2.15,-0.11,0.05,-0.09,
3.361,-0.32,0.87,2.15,-0.12,0.07,-0.09,
3.365,-0.86,0.40,2.76,-0.12,0.07,-0.09,
3.365,-0.86,0.40,2.76,-0.12,0.09,-0.08,
3.365,-0.86,0.40,2.76,-0.12,0.11,-0.07,
3.369,-0.86,0.40,2.76,-0.12,0.13,-0.06,
3.37,-0.86,0.40,2.76,-0.11,0.15,-0.04,
3.37,-0.86,0.40,2.76,-0.10,0.17,-0.03,
3.375,-1.43,-0.11,3.33,-0.10,0.17,-0.03,
3.375,-1.43,-0.11,3.33,-0.09,0.19,-0.01,
3.375,-1.43,-0.11,3.33,-0.07,0.21,0.02,
3.38,-1.43,-0.11,3.33,-0.05,0.23,0.04,
3.381,-1.43,-0.11,3.33,-0.03,0.25,0.06,
3.381,-1.43,-0.11,3.33,-0.00,0.27,0.09,
3.385,-1.99,-0.60,3.73,-0.00,0.27,0.09,
3.385,-1.99,-0.60,3.73,0.03,0.29,0.12,
3.386,-1.99,-0.60,3.73,0.06,0.31,0.15,
3.386,-1.99,-0.60,3.73,0.09,0.32,0.18,
3.388,-1.99,-0.60,3.73,0.12,0.34,0.20,
3.393,-1.99,-0.60,3.73,0.16,0.35,0.23,
3.41,-2.38,-0.93,3.75,0.16,0.35,0.23,
3.41,-2.38,-0.93,3.75,0.19,0.37,0.26,
3.411,-2.38,-0.93,3.75,0.23,0.37,0.29,
3.411,-2.38,-0.93,3.75,0.27,0.38,0.32,
3.411,-2.38,-0.93,3.75,0.30,0.38,0.35,
3.411,-2.38,-0.93,3.75,0.34,0.38,0.38,
3.411,-2.79,-1.15,3.41,0.34,0.38,0.38,
3.412,-2.79,-1.15,3.41,0.37,0.38,0.41,
3.412,-2.79,-1.15,3.41,0.41,0.38,0.44,
3.412,-2.79,-1.15,3.41,0.44,0.37,0.48,
3.412,-2.79,-1.15,3.41,0.47,0.36,0.51,
3.412,-2.79,-1.15,3.41,0.50,0.35,0.54,
3.413,-3.09,-1.07,2.64,0.50,0.35,0.54,
3.413,-3.09,-1.07,2.64,0.52,0.33,0.58,
3.448,-3.09,-1.07,2.64,0.53,0.31,0.62,
3.449,-3.09,-1.07,2.64,0.54,0.28,0.65,
3.449,-3.09,-1.07,2.64,0.55,0.25,0.69,
3.449,-3.09,-1.07,2.64,0.55,0.22,0.73,
3.449,-3.14,-1.04,1.50,0.55,0.22,0.73,
3.45,-3.14,-1.04,1.50,0.54,0.15,0.78,
3.45,-3.14,-1.04,1.50,0.53,0.10,0.81,
3.45,-3.14,-1.04,1.50,0.52,0.08,0.83,
3.45,-3.14,-1.04,1.50,0.50,0.03,0.86,
3.451,-3.14,-1.04,1.50,0.48,-0.02,0.89,
3.451,-2.67,-0.97,0.42,0.48,-0.02,0.89,
3.451,-2.67,-0.97,0.42,0.45,-0.08,0.92,
3.451,-2.67,-0.97,0.42,0.42,-0.13,0.95,
3.452,-2.67,-0.97,0.42,0.39,-0.19,0.97,
3.452,-2.67,-0.97,0.42,0.36,-0.24,0.99,
3.452,-2.67,-0.97,0.42,0.33,-0.30,1.00,
3.452,-1.81,-0.89,-0.08,0.33,-0.30,1.00,
3.453,-1.81,-0.89,-0.08,0.30,-0.35,1.02,
3.453,-1.81,-0.89,-0.08,0.28,-0.39,1.03,
3.453,-1.81,-0.89,-0.08,0.25,-0.43,1.03,
3.453,-1.81,-0.89,-0.08,0.23,-0.47,1.03,
3.454,-1.81,-0.89,-0.08,0.21,-0.50,1.03,
3.454,-0.72,-0.67,-0.01,0.21,-0.50,1.03,
3.454,-0.72,-0.67,-0.01,0.19,-0.53,1.03,
3.461,-0.72,-0.67,-0.01,0.17,-0.55,1.02,
3.462,-0.72,-0.67,-0.01,0.15,-0.56,1.01,
3.462,-0.72,-0.67,-0.01,0.14,-0.57,0.99,
3.462,-0.72,-0.67,-0.01,0.12,-0.57,0.97,
3.463,0.22,-0.48,0.04,0.12,-0.57,0.97,
3.463,0.22,-0.48,0.04,0.10,-0.56,0.95,
3.468,0.22,-0.48,0.04,0.09,-0.55,0.92,
3.468,0.22,-0.48,0.04,0.07,-0.53,0.90,
3.469,0.22,-0.48,0.04,0.05,-0.51,0.87,
3.474,0.22,-0.48,0.04,0.03,-0.48,0.85,
3.475,0.87,-0.40,-0.14,0.03,-0.48,0.85,
3.475,0.87,-0.40,-0.14,0.01,-0.44,0.82,
3.475,0.87,-0.40,-0.14,-0.01,-0.41,0.79,
3.487,0.87,-0.40,-0.14,-0.03,-0.37,0.76,
3.488,0.87,-0.40,-0.14,-0.05,-0.32,0.73,
3.488,0.87,-0.40,-0.14,-0.07,-0.28,0.70,
3.488,1.29,-0.46,-0.52,-0.07,-0.28,0.70,
3.489,1.29,-0.46,-0.52,-0.10,-0.23,0.67,
3.489,1.29,-0.46,-0.52,-0.12,-0.19,0.64,
3.489,1.29,-0.46,-0.52,-0.14,-0.14,0.61,
3.489,1.29,-0.46,-0.52,-0.17,-0.10,0.58,
3.53,1.29,-0.46,-0.52,-0.19,-0.06,0.56,
3.53,1.47,-0.53,-0.98,-0.19,-0.06,0.56,
3.53,1.47,-0.53,-0.98,-0.21,-0.02,0.53,
3.531,1.47,-0.53,-0.98,-0.24,0.02,0.50,
3.531,1.47,-0.53,-0.98,-0.26,0.06,0.47,
3.531,1.47,-0.53,-0.98,-0.28,0.09,0.45,
3.531,1.47,-0.53,-0.98,-0.30,0.13,0.42,
3.531,1.36,-0.58,-1.36,-0.30,0.13,0.42,
3.531,1.36,-0.58,-1.36,-0.31,0.17,0.40,
3.531,1.36,-0.58,-1.36,-0.33,0.20,0.38,
3.532,1.36,-0.58,-1.36,-0.35,0.23,0.36,
3.532,1.36,-0.58,-1.36,-0.37,0.25,0.34,
3.532,1.36,-0.58,-1.36,-0.38,0.28,0.32,
3.532,0.97,-0.64,-1.61,-0.38,0.28,0.32,
3.532,0.97,-0.64,-1.61,-0.39,0.30,0.31,
3.532,0.97,-0.64,-1.61,-0.41,0.31,0.30,
3.533,0.97,-0.64,-1.61,-0.42,0.33,0.29,
3.533,0.97,-0.64,-1.61,-0.43,0.34,0.28,
3.533,0.97,-0.64,-1.61,-0.44,0.35,0.27,
3.533,0.70,-0.74,-1.82,-0.44,0.35,0.27,
3.533,0.70,-0.74,-1.82,-0.45,0.35,0.26,
3.533,0.70,-0.74,-1.82,-0.46,0.35,0.25,
3.533,0.70,-0.74,-1.82,-0.47,0.36,0.25,
3.534,0.70,-0.74,-1.82,-0.47,0.36,0.24,
3.534,0.70,-0.74,-1.82,-0.47,0.35,0.24,
3.534,0.51,-0.85,-1.84,-0.47,0.35,0.24,
3.534,0.51,-0.85,-1.84,-0.47,0.36,0.24,
3.534,0.51,-0.85,-1.84,-0.47,0.36,0.24,
3.536,0.51,-0.85,-1.84,-0.47,0.36,0.24,
3.538,0.51,-0.85,-1.84,-0.46,0.36,0.24,
3.542,0.51,-0.85,-1.84,-0.45,0.37,0.24,
3.543,0.32,-0.85,-1.73,-0.45,0.37,0.24,
3.543,0.32,-0.85,-1.73,-0.44,0.37,0.24,
3.547,0.32,-0.85,-1.73,-0.43,0.38,0.25,
3.548,0.32,-0.85,-1.73,-0.41,0.39,0.25,
3.548,0.32,-0.85,-1.73,-0.39,0.39,0.26,
3.553,0.32,-0.85,-1.73,-0.38,0.40,0.26,
3.553,0.24,-0.89,-1.77,-0.38,0.40,0.26,
3.553,0.24,-0.89,-1.77,-0.37,0.40,0.27,
3.554,0.24,-0.89,-1.77,-0.35,0.41,0.28,
3.558,0.24,-0.89,-1.77,-0.33,0.41,0.29,
3.573,0.24,-0.89,-1.77,-0.31,0.41,0.30,
3.574,0.24,-0.89,-1.77,-0.30,0.41,0.31,
3.574,0.24,-0.89,-1.93,-0.30,0.41,0.31,
3.574,0.24,-0.89,-1.93,-0.28,0.41,0.32,
3.574,0.24,-0.89,-1.93,-0.26,0.41,0.33,
3.574,0.24,-0.89,-1.93,-0.24,0.41,0.34,
3.574,0.24,-0.89,-1.93,-0.22,0.40,0.35,
3.575,0.24,-0.89,-1.93,-0.21,0.40,0.36,
3.575,0.27,-0.83,-2.13,-0.21,0.40,0.36,
3.575,0.27,-0.83,-2.13,-0.19,0.39,0.37,
3.575,0.27,-0.83,-2.13,-0.17,0.38,0.38,
3.609,0.27,-0.83,-2.13,-0.15,0.37,0.38,
3.61,0.27,-0.83,-2.13,-0.13,0.36,0.39,
3.61,0.27,-0.83,-2.13,-0.11,0.34,0.39,
3.61,0.46,-0.82,-2.31,-0.11,0.34,0.39,
3.61,0.46,-0.82,-2.31,-0.09,0.32,0.40,
3.611,0.46,-0.82,-2.31,-0.07,0.30,0.40,
3.611,0.46,-0.82,-2.31,-0.05,0.28,0.40,
3.611,0.46,-0.82,-2.31,-0.03,0.26,0.40,
3.611,0.46,-0.82,-2.31,-0.00,0.24,0.40,
3.611,0.77,-0.74,-2.35,-0.00,0.24,0.40,
3.612,0.77,-0.74,-2.35,0.02,0.22,0.39,
3.612,0.77,-0.74,-2.35,0.04,0.20,0.39,
3.612,0.77,-0.74,-2.35,0.07,0.18,0.38,
3.612,0.77,-0.74,-2.35,0.09,0.16,0.37,
3.612,0.77,-0.74,-2.35,0.11,0.15,0.36,
3.613,1.05,-0.63,-2.42,0.11,0.15,0.36,
3.613,1.05,-0.63,-2.42,0.13,0.14,0.35,
3.613,1.05,-0.63,-2.42,0.16,0.13,0.33,
3.613,1.05,-0.63,-2.42,0.18,0.12,0.32,
3.613,1.05,-0.63,-2.42,0.20,0.12,0.30,
3.614,1.05,-0.63,-2.42,0.22,0.12,0.29,
3.614,1.06,-0.61,-2.58,0.22,0.12,0.29,
3.614,1.06,-0.61,-2.58,0.23,0.12,0.27,
3.614,1.06,-0.61,-2.58,0.25,0.12,0.25,
3.618,1.06,-0.61,-2.58,0.26,0.12,0.24,
3.619,1.06,-0.61,-2.58,0.28,0.12,0.22,
3.622,1.06,-0.61,-2.58,0.29,0.11,0.21,
3.622,0.96,-0.58,-2.84,0.29,0.11,0.21,
3.622,0.96,-0.58,-2.84,0.30,0.11,0.20,
3.626,0.96,-0.58,-2.84,0.30,0.11,0.19,
3.626,0.96,-0.58,-2.84,0.31,0.10,0.18,
3.634,0.96,-0.58,-2.84,0.32,0.10,0.17,
3.634,0.96,-0.58,-2.84,0.32,0.10,0.16,
3.635,0.85,-0.61,-3.09,0.32,0.10,0.16,
3.635,0.85,-0.61,-3.09,0.32,0.10,0.16,
3.635,0.85,-0.61,-3.09,0.32,0.09,0.15,
3.64,0.85,-0.61,-3.09,0.32,0.10,0.14,
3.656,0.85,-0.61,-3.09,0.32,0.10,0.13,
3.657,0.85,-0.61,-3.09,0.32,0.10,0.12,
3.657,0.87,-0.53,-3.20,0.32,0.10,0.12,
3.657,0.87,-0.53,-3.20,0.32,0.10,0.11,
3.657,0.87,-0.53,-3.20,0.32,0.10,0.10,
3.657,0.87,-0.53,-3.20,0.32,0.09,0.09,
3.657,0.87,-0.53,-3.20,0.32,0.09,0.08,
3.658,0.87,-0.53,-3.20,0.31,0.08,0.07,
3.658,0.76,-0.54,-3.26,0.31,0.08,0.07,
3.658,0.76,-0.54,-3.26,0.31,0.06,0.06,
3.658,0.76,-0.54,-3.26,0.30,0.05,0.04,
3.658,0.76,-0.54,-3.26,0.29,0.03,0.03,
3.658,0.76,-0.54,-3.26,0.28,0.01,0.02,
3.661,0.76,-0.54,-3.26,0.27,-0.01,0.01,
3.662,0.58,-0.53,-3.29,0.27,-0.01,0.01,
3.663,0.58,-0.53,-3.29,0.26,-0.04,-0.00,
3.663,0.58,-0.53,-3.29,0.25,-0.07,-0.01,
3.669,0.58,-0.53,-3.29,0.24,-0.11,-0.03,
3.669,0.58,-0.53,-3.29,0.22,-0.14,-0.04,
3.672,0.58,-0.53,-3.29,0.21,-0.18,-0.05,
3.672,0.27,-0.54,-2.98,0.21,-0.18,-0.05,
3.673,0.27,-0.54,-2.98,0.20,-0.22,-0.06,
3.674,0.27,-0.54,-2.98,0.19,-0.26,-0.07,
3.676,0.27,-0.54,-2.98,0.19,-0.30,-0.08,
3.678,0.27,-0.54,-2.98,0.18,-0.34,-0.09,
3.68,0.27,-0.54,-2.98,0.19,-0.37,-0.10,
3.682,0.02,-0.59,-2.19,0.19,-0.37,-0.10,
3.682,0.02,-0.59,-2.19,0.19,-0.40,-0.10,
3.684,0.02,-0.59,-2.19,0.20,-0.42,-0.11,
3.688,0.02,-0.59,-2.19,0.22,-0.44,-0.11,
3.688,0.02,-0.59,-2.19,0.23,-0.46,-0.11,
3.69,0.02,-0.59,-2.19,0.25,-0.47,-0.10,
3.692,-0.23,-0.80,-1.20,0.25,-0.47,-0.10,
3.693,-0.23,-0.80,-1.20,0.27,-0.49,-0.10,
3.694,-0.23,-0.80,-1.20,0.29,-0.49,-0.09,
3.696,-0.23,-0.80,-1.20,0.32,-0.50,-0.08,
3.697,-0.23,-0.80,-1.20,0.34,-0.50,-0.07,
3.7,-0.23,-0.80,-1.20,0.36,-0.50,-0.06,
3.702,-0.44,-1.01,-0.46,0.36,-0.50,-0.06,
3.702,-0.44,-1.01,-0.46,0.39,-0.50,-0.05,
3.704,-0.44,-1.01,-0.46,0.41,-0.50,-0.04,
3.706,-0.44,-1.01,-0.46,0.44,-0.49,-0.03,
3.708,-0.44,-1.01,-0.46,0.46,-0.49,-0.02,
3.71,-0.44,-1.01,-0.46,0.48,-0.48,-0.01,
3.713,-0.53,-1.07,-0.11,0.48,-0.48,-0.01,
3.713,-0.53,-1.07,-0.11,0.49,-0.46,0.01,
3.714,-0.53,-1.07,-0.11,0.51,-0.45,0.02,
3.716,-0.53,-1.07,-0.11,0.52,-0.44,0.03,
3.718,-0.53,-1.07,-0.11,0.53,-0.42,0.04,
3.721,-0.53,-1.07,-0.11,0.54,-0.40,0.05,
3.723,-0.56,-1.12,-0.08,0.54,-0.40,0.05,
3.723,-0.56,-1.12,-0.08,0.54,-0.39,0.06,
3.745,-0.56,-1.12,-0.08,0.55,-0.37,0.07,
3.746,-0.56,-1.12,-0.08,0.55,-0.35,0.09,
3.746,-0.56,-1.12,-0.08,0.55,-0.33,0.10,
3.746,-0.56,-1.12,-0.08,0.55,-0.31,0.11,
3.746,-0.49,-1.13,-0.08,0.55,-0.31,0.11,
3.747,-0.49,-1.13,-0.08,0.55,-0.30,0.12,
3.747,-0.49,-1.13,-0.08,0.55,-0.29,0.13,
3.747,-0.49,-1.13,-0.08,0.55,-0.27,0.14,
3.748,-0.49,-1.13,-0.08,0.55,-0.26,0.15,
3.748,-0.49,-1.13,-0.08,0.54,-0.25,0.15,
3.748,-0.36,-1.02,-0.12,0.54,-0.25,0.15,
3.749,-0.36,-1.02,-0.12,0.53,-0.24,0.16,
3.749,-0.36,-1.02,-0.12,0.53,-0.23,0.16,
3.749,-0.36,-1.02,-0.12,0.52,-0.22,0.17,
3.749,-0.36,-1.02,-0.12,0.50,-0.21,0.16,
3.75,-0.36,-1.02,-0.12,0.50,-0.21,0.16,
3.789,-0.21,-0.76,-0.22,0.50,-0.21,0.16,
3.79,-0.21,-0.76,-0.22,0.48,-0.21,0.16,
3.79,-0.21,-0.76,-0.22,0.46,-0.21,0.16,
3.791,-0.21,-0.76,-0.22,0.45,-0.21,0.15,
3.791,-0.21,-0.76,-0.22,0.43,-0.22,0.15,
3.791,-0.21,-0.76,-0.22,0.41,-0.22,0.14,
3.791,-0.12,-0.58,-0.30,0.41,-0.22,0.14,
3.792,-0.12,-0.58,-0.30,0.39,-0.23,0.13,
3.792,-0.12,-0.58,-0.30,0.37,-0.23,0.12,
3.792,-0.12,-0.58,-0.30,0.35,-0.24,0.11,
3.792,-0.12,-0.58,-0.30,0.33,-0.25,0.10,
3.793,-0.12,-0.58,-0.30,0.30,-0.25,0.09,
3.793,-0.06,-0.38,-0.19,0.30,-0.25,0.09,
3.793,-0.06,-0.38,-0.19,0.27,-0.26,0.07,
3.793,-0.06,-0.38,-0.19,0.25,-0.26,0.06,
3.794,-0.06,-0.38,-0.19,0.24,-0.26,0.05,
3.794,-0.06,-0.38,-0.19,0.22,-0.27,0.04,
3.794,-0.06,-0.38,-0.19,0.19,-0.27,0.02,
3.794,0.10,-0.20,0.03,0.19,-0.27,0.02,
3.795,0.10,-0.20,0.03,0.16,-0.27,0.00,
3.795,0.10,-0.20,0.03,0.15,-0.26,-0.01,
3.795,0.10,-0.20,0.03,0.13,-0.26,-0.02,
3.795,0.10,-0.20,0.03,0.10,-0.26,-0.04,
3.797,0.10,-0.20,0.03,0.08,-0.26,-0.06,
3.799,0.14,-0.05,0.24,0.08,-0.26,-0.06,
3.799,0.14,-0.05,0.24,0.04,-0.26,-0.09,
3.8,0.14,-0.05,0.24,0.02,-0.25,-0.10,
3.801,0.14,-0.05,0.24,0.00,-0.25,-0.11,
3.802,0.14,-0.05,0.24,-0.04,-0.25,-0.14,
3.802,0.14,-0.05,0.24,-0.06,-0.24,-0.14,
3.804,0.21,0.04,0.37,-0.06,-0.24,-0.14,
3.805,0.21,0.04,0.37,-0.10,-0.23,-0.16,
3.805,0.21,0.04,0.37,-0.12,-0.22,-0.17,
3.815,0.21,0.04,0.37,-0.15,-0.21,-0.18,
3.816,0.21,0.04,0.37,-0.19,-0.20,-0.20,
3.816,0.21,0.04,0.37,-0.24,-0.17,-0.21,
3.816,0.28,0.05,0.44,-0.24,-0.17,-0.21,
3.817,0.28,0.05,0.44,-0.28,-0.16,-0.23,
3.817,0.28,0.05,0.44,-0.29,-0.15,-0.23,
3.817,0.28,0.05,0.44,-0.33,-0.13,-0.24,
3.818,0.28,0.05,0.44,-0.37,-0.11,-0.25,
3.82,0.28,0.05,0.44,-0.41,-0.09,-0.26,
3.823,0.25,0.04,0.63,-0.41,-0.09,-0.26,
3.823,0.25,0.04,0.63,-0.47,-0.05,-0.26,
3.825,0.25,0.04,0.63,-0.49,-0.04,-0.27,
3.826,0.25,0.04,0.63,-0.52,-0.01,-0.27,
3.828,0.25,0.04,0.63,-0.55,0.04,-0.27,
3.83,0.25,0.04,0.63,-0.56,0.06,-0.27,
3.833,-0.04,0.20,1.36,-0.56,0.06,-0.27,
3.833,-0.04,0.20,1.36,-0.59,0.12,-0.26,
3.834,-0.04,0.20,1.36,-0.59,0.14,-0.26,
3.836,-0.04,0.20,1.36,-0.60,0.19,-0.25,
3.838,-0.04,0.20,1.36,-0.61,0.23,-0.24,
3.842,-0.04,0.20,1.36,-0.61,0.26,-0.23,
3.843,-0.22,0.30,2.14,-0.61,0.26,-0.23,
3.843,-0.22,0.30,2.14,-0.61,0.29,-0.23,
3.844,-0.22,0.30,2.14,-0.61,0.31,-0.22,
3.847,-0.22,0.30,2.14,-0.61,0.33,-0.21,
3.848,-0.22,0.30,2.14,-0.61,0.34,-0.20,
3.854,-0.22,0.30,2.14,-0.62,0.35,-0.19,
3.854,-0.15,0.18,2.49,-0.62,0.35,-0.19,
3.854,-0.15,0.18,2.49,-0.62,0.35,-0.18,
3.854,-0.15,0.18,2.49,-0.63,0.35,-0.18,
3.864,-0.15,0.18,2.49,-0.64,0.35,-0.17,
3.864,-0.15,0.18,2.49,-0.65,0.34,-0.16,
3.865,-0.15,0.18,2.49,-0.66,0.34,-0.16,
3.865,-0.01,-0.03,2.47,-0.66,0.34,-0.16,
3.865,-0.01,-0.03,2.47,-0.68,0.33,-0.15,
3.865,-0.01,-0.03,2.47,-0.69,0.32,-0.14,
3.866,-0.01,-0.03,2.47,-0.70,0.31,-0.14,
3.868,-0.01,-0.03,2.47,-0.72,0.30,-0.13,
3.87,-0.01,-0.03,2.47,-0.73,0.29,-0.13,
3.942,0.21,-0.01,2.59,-0.73,0.29,-0.13,
3.942,0.21,-0.01,2.59,-0.74,0.27,-0.13,
3.942,0.21,-0.01,2.59,-0.75,0.26,-0.13,
3.943,0.21,-0.01,2.59,-0.76,0.25,-0.13,
3.943,0.21,-0.01,2.59,-0.76,0.24,-0.14,
3.943,0.21,-0.01,2.59,-0.77,0.23,-0.15,
3.943,0.48,0.24,2.94,-0.77,0.23,-0.15,
3.943,0.48,0.24,2.94,-0.77,0.22,-0.16,
3.943,0.48,0.24,2.94,-0.77,0.22,-0.17,
3.944,0.48,0.24,2.94,-0.78,0.21,-0.19,
3.944,0.48,0.24,2.94,-0.78,0.20,-0.20,
3.944,0.48,0.24,2.94,-0.78,0.20,-0.22,
3.963,0.64,0.50,3.20,-0.78,0.20,-0.22,
3.964,0.64,0.50,3.20,-0.78,0.19,-0.24,
3.964,0.64,0.50,3.20,-0.79,0.18,-0.26,
3.964,0.64,0.50,3.20,-0.79,0.17,-0.28,
3.964,0.64,0.50,3.20,-0.79,0.17,-0.29,
3.965,0.64,0.50,3.20,-0.79,0.16,-0.31,
3.965,0.64,0.47,3.37,-0.79,0.16,-0.31,
3.965,0.64,0.47,3.37,-0.79,0.15,-0.32,
3.965,0.64,0.47,3.37,-0.78,0.15,-0.33,
3.965,0.64,0.47,3.37,-0.78,0.15,-0.34,
3.966,0.64,0.47,3.37,-0.77,0.15,-0.35,
3.966,0.64,0.47,3.37,-0.76,0.15,-0.35,
3.966,0.31,0.25,3.65,-0.76,0.15,-0.35,
3.966,0.31,0.25,3.65,-0.74,0.15,-0.34,
3.966,0.31,0.25,3.65,-0.73,0.15,-0.34,
3.967,0.31,0.25,3.65,-0.70,0.15,-0.33,
3.967,0.31,0.25,3.65,-0.68,0.15,-0.32,
3.967,0.31,0.25,3.65,-0.65,0.14,-0.30,
3.967,-0.15,0.01,3.97,-0.65,0.14,-0.30,
3.967,-0.15,0.01,3.97,-0.62,0.13,-0.28,
3.968,-0.15,0.01,3.97,-0.59,0.12,-0.27,
3.968,-0.15,0.01,3.97,-0.55,0.11,-0.25,
3.968,-0.15,0.01,3.97,-0.52,0.09,-0.23,
3.968,-0.15,0.01,3.97,-0.48,0.07,-0.21,
3.969,-0.51,-0.09,4.00,-0.48,0.07,-0.21,
3.969,-0.51,-0.09,4.00,-0.45,0.04,-0.19,
3.969,-0.51,-0.09,4.00,-0.41,0.02,-0.16,
3.969,-0.51,-0.09,4.00,-0.38,-0.02,-0.14,
3.969,-0.51,-0.09,4.00,-0.35,-0.05,-0.12,
3.97,-0.51,-0.09,4.00,-0.33,-0.09,-0.11,
3.97,-0.61,-0.11,3.65,-0.33,-0.09,-0.11,
3.97,-0.61,-0.11,3.65,-0.30,-0.13,-0.09,
3.97,-0.61,-0.11,3.65,-0.28,-0.16,-0.08,
3.97,-0.61,-0.11,3.65,-0.26,-0.19,-0.07,
3.971,-0.61,-0.11,3.65,-0.25,-0.22,-0.06,
3.971,-0.61,-0.11,3.65,-0.24,-0.25,-0.05,
3.971,-0.29,-0.10,3.05,-0.24,-0.25,-0.05,
3.971,-0.29,-0.10,3.05,-0.22,-0.27,-0.04,
3.971,-0.29,-0.10,3.05,-0.21,-0.30,-0.04,
3.972,-0.29,-0.10,3.05,-0.20,-0.31,-0.03,
3.972,-0.29,-0.10,3.05,-0.19,-0.32,-0.03,
3.972,-0.29,-0.10,3.05,-0.18,-0.33,-0.03,
3.972,0.11,-0.18,2.60,-0.18,-0.33,-0.03,
3.972,0.11,-0.18,2.60,-0.17,-0.33,-0.02,
3.973,0.11,-0.18,2.60,-0.16,-0.33,-0.02,
3.973,0.11,-0.18,2.60,-0.15,-0.33,-0.02,
3.973,0.11,-0.18,2.60,-0.14,-0.32,-0.02,
3.973,0.11,-0.18,2.60,-0.13,-0.31,-0.01,
3.973,0.37,-0.23,2.17,-0.13,-0.31,-0.01,
3.987,0.37,-0.23,2.17,-0.10,-0.26,-0.02,
3.987,0.37,-0.23,2.17,-0.10,-0.26,-0.02,
3.987,0.37,-0.23,2.17,-0.09,-0.24,-0.01,
3.987,0.37,-0.23,2.17,-0.09,-0.24,-0.01,
3.988,0.37,-0.23,2.17,-0.08,-0.22,-0.02,
3.988,0.55,-0.26,1.54,-0.08,-0.22,-0.02,
3.988,0.55,-0.26,1.54,-0.08,-0.20,-0.02,
3.988,0.55,-0.26,1.54,-0.08,-0.18,-0.02,
3.988,0.55,-0.26,1.54,-0.08,-0.16,-0.02,
3.988,0.55,-0.26,1.54,-0.08,-0.14,-0.02,
3.99,0.55,-0.26,1.54,-0.08,-0.13,-0.02,
3.993,0.57,-0.26,0.62,-0.08,-0.13,-0.02,
3.993,0.57,-0.26,0.62,-0.09,-0.11,-0.03,
3.994,0.57,-0.26,0.62,-0.10,-0.09,-0.03,
3.996,0.57,-0.26,0.62,-0.11,-0.07,-0.03,
3.998,0.57,-0.26,0.62,-0.12,-0.05,-0.03,
4.0,0.57,-0.26,0.62,-0.14,-0.04,-0.03,
4.002,0.59,-0.20,-0.35,-0.14,-0.04,-0.03,
4.002,0.59,-0.20,-0.35,-0.16,-0.02,-0.03,
4.004,0.59,-0.20,-0.35,-0.17,-0.00,-0.03,
4.007,0.59,-0.20,-0.35,-0.19,0.02,-0.03,
4.007,0.59,-0.20,-0.35,-0.21,0.03,-0.04,
4.01,0.59,-0.20,-0.35,-0.23,0.05,-0.04,
4.012,0.74,-0.12,-1.16,-0.23,0.05,-0.04,
4.012,0.74,-0.12,-1.16,-0.25,0.07,-0.05,
4.013,0.74,-0.12,-1.16,-0.27,0.08,-0.05,
4.016,0.74,-0.12,-1.16,-0.29,0.09,-0.06,
4.018,0.74,-0.12,-1.16,-0.31,0.11,-0.07,
4.02,0.74,-0.12,-1.16,-0.34,0.12,-0.08,
4.027,0.93,-0.05,-1.82,-0.34,0.12,-0.08,
4.027,0.93,-0.05,-1.82,-0.36,0.12,-0.09,
4.027,0.93,-0.05,-1.82,-0.38,0.13,-0.11,
4.027,0.93,-0.05,-1.82,-0.40,0.13,-0.12,
4.027,0.93,-0.05,-1.82,-0.42,0.13,-0.14,
4.03,0.93,-0.05,-1.82,-0.45,0.13,-0.15,
4.033,1.10,-0.07,-2.30,-0.45,0.13,-0.15,
4.033,1.10,-0.07,-2.30,-0.47,0.13,-0.17,
4.034,1.10,-0.07,-2.30,-0.49,0.12,-0.19,
4.036,1.10,-0.07,-2.30,-0.51,0.11,-0.21,
4.038,1.10,-0.07,-2.30,-0.53,0.10,-0.23,
4.049,1.10,-0.07,-2.30,-0.56,0.09,-0.25,
4.05,1.17,-0.05,-2.53,-0.56,0.09,-0.25,
4.05,1.17,-0.05,-2.53,-0.57,0.07,-0.27,
4.05,1.17,-0.05,-2.53,-0.59,0.05,-0.28,
4.05,1.17,-0.05,-2.53,-0.61,0.02,-0.30,
4.05,1.17,-0.05,-2.53,-0.62,-0.01,-0.32,
4.05,1.17,-0.05,-2.53,-0.63,-0.04,-0.34,
4.053,0.98,-0.17,-2.24,-0.63,-0.04,-0.34,
4.053,0.98,-0.17,-2.24,-0.63,-0.07,-0.36,
4.054,0.98,-0.17,-2.24,-0.63,-0.10,-0.38,
4.056,0.98,-0.17,-2.24,-0.63,-0.13,-0.39,
4.067,0.98,-0.17,-2.24,-0.62,-0.15,-0.40,
4.068,0.98,-0.17,-2.24,-0.60,-0.18,-0.41,
4.068,0.57,-0.37,-1.41,-0.60,-0.18,-0.41,
4.068,0.57,-0.37,-1.41,-0.58,-0.20,-0.42,
4.068,0.57,-0.37,-1.41,-0.56,-0.22,-0.42,
4.068,0.57,-0.37,-1.41,-0.53,-0.24,-0.42,
4.068,0.57,-0.37,-1.41,-0.50,-0.26,-0.42,
4.086,0.57,-0.37,-1.41,-0.46,-0.28,-0.41,
4.086,-0.01,-0.59,-0.48,-0.46,-0.28,-0.41,
4.086,-0.01,-0.59,-0.48,-0.42,-0.29,-0.40,
4.087,-0.01,-0.59,-0.48,-0.37,-0.30,-0.39,
4.087,-0.01,-0.59,-0.48,-0.33,-0.31,-0.37,
4.087,-0.01,-0.59,-0.48,-0.27,-0.32,-0.36,
4.087,-0.01,-0.59,-0.48,-0.22,-0.33,-0.34,
4.087,-0.47,-0.79,0.21,-0.22,-0.33,-0.34,
4.087,-0.47,-0.79,0.21,-0.16,-0.33,-0.31,
4.088,-0.47,-0.79,0.21,-0.11,-0.34,-0.29,
4.088,-0.47,-0.79,0.21,-0.05,-0.34,-0.27,
4.089,-0.47,-0.79,0.21,0.01,-0.33,-0.24,
4.09,-0.47,-0.79,0.21,0.07,-0.33,-0.21,
4.094,-0.76,-0.86,0.43,0.07,-0.33,-0.21,
4.094,-0.76,-0.86,0.43,0.12,-0.32,-0.19,
4.094,-0.76,-0.86,0.43,0.18,-0.31,-0.16,
4.096,-0.76,-0.86,0.43,0.24,-0.29,-0.13,
4.098,-0.76,-0.86,0.43,0.29,-0.27,-0.11,
4.099,-0.76,-0.86,0.43,0.35,-0.25,-0.08,
4.102,-0.79,-0.81,0.16,0.35,-0.25,-0.08,
4.102,-0.79,-0.81,0.16,0.40,-0.22,-0.06,
4.104,-0.79,-0.81,0.16,0.44,-0.19,-0.03,
4.106,-0.79,-0.81,0.16,0.49,-0.16,-0.01,
4.108,-0.79,-0.81,0.16,0.53,-0.13,0.01,
4.11,-0.79,-0.81,0.16,0.57,-0.10,0.03,
4.113,-0.63,-0.64,-0.61,0.57,-0.10,0.03,
4.113,-0.63,-0.64,-0.61,0.60,-0.07,0.05,
4.113,-0.63,-0.64,-0.61,0.64,-0.05,0.06,
4.116,-0.63,-0.64,-0.61,0.67,-0.02,0.07,
4.117,-0.63,-0.64,-0.61,0.70,-0.00,0.08,
4.12,-0.63,-0.64,-0.61,0.73,0.02,0.09,
4.124,-0.45,-0.40,-1.60,0.73,0.02,0.09,
4.124,-0.45,-0.40,-1.60,0.75,0.04,0.10,
4.124,-0.45,-0.40,-1.60,0.77,0.05,0.10,
4.126,-0.45,-0.40,-1.60,0.79,0.07,0.11,
4.128,-0.45,-0.40,-1.60,0.80,0.08,0.11,
4.13,-0.45,-0.40,-1.60,0.81,0.09,0.11,
4.132,-0.24,-0.23,-2.59,0.81,0.09,0.11,
4.133,-0.24,-0.23,-2.59,0.82,0.09,0.11,
4.134,-0.24,-0.23,-2.59,0.82,0.10,0.11,
4.136,-0.24,-0.23,-2.59,0.82,0.10,0.11,
4.148,-0.24,-0.23,-2.59,0.82,0.10,0.11,
4.149,-0.24,-0.23,-2.59,0.82,0.10,0.10,
4.149,-0.07,-0.10,-3.46,0.82,0.10,0.10,
4.149,-0.07,-0.10,-3.46,0.81,0.09,0.10,
4.149,-0.07,-0.10,-3.46,0.80,0.09,0.09,
4.149,-0.07,-0.10,-3.46,0.79,0.08,0.09,
4.149,-0.07,-0.10,-3.46,0.77,0.07,0.08,
4.15,-0.07,-0.10,-3.46,0.76,0.06,0.07,
4.153,0.08,-0.06,-4.06,0.76,0.06,0.07,
4.153,0.08,-0.06,-4.06,0.74,0.04,0.07,
4.154,0.08,-0.06,-4.06,0.72,0.03,0.06,
4.156,0.08,-0.06,-4.06,0.70,0.01,0.05,
4.158,0.08,-0.06,-4.06,0.68,-0.01,0.04,
4.16,0.08,-0.06,-4.06,0.65,-0.03,0.04,
4.162,0.25,0.12,-4.42,0.65,-0.03,0.04,
4.162,0.25,0.12,-4.42,0.63,-0.05,0.02,
4.163,0.25,0.12,-4.42,0.60,-0.07,0.01,
4.166,0.25,0.12,-4.42,0.58,-0.10,-0.00,
4.167,0.25,0.12,-4.42,0.55,-0.12,-0.01,
4.169,0.25,0.12,-4.42,0.52,-0.15,-0.03,
4.172,0.36,0.17,-4.47,0.52,-0.15,-0.03,
4.172,0.36,0.17,-4.47,0.49,-0.17,-0.04,
4.174,0.36,0.17,-4.47,0.46,-0.19,-0.06,
4.176,0.36,0.17,-4.47,0.43,-0.21,-0.07,
4.178,0.36,0.17,-4.47,0.40,-0.24,-0.09,
4.18,0.36,0.17,-4.47,0.37,-0.25,-0.11,
4.182,0.44,0.29,-4.42,0.37,-0.25,-0.11,
4.182,0.44,0.29,-4.42,0.34,-0.27,-0.12,
4.184,0.44,0.29,-4.42,0.30,-0.28,-0.14,
4.186,0.44,0.29,-4.42,0.27,-0.29,-0.15,
4.187,0.44,0.29,-4.42,0.24,-0.30,-0.16,
4.19,0.44,0.29,-4.42,0.21,-0.31,-0.17,
4.193,0.29,0.31,-4.11,0.21,-0.31,-0.17,
4.193,0.29,0.31,-4.11,0.19,-0.31,-0.18,
4.193,0.29,0.31,-4.11,0.16,-0.32,-0.19,
4.196,0.29,0.31,-4.11,0.13,-0.32,-0.20,
4.198,0.29,0.31,-4.11,0.10,-0.33,-0.21,
4.2,0.29,0.31,-4.11,0.08,-0.33,-0.22,
4.203,0.18,0.41,-3.61,0.08,-0.33,-0.22,
4.203,0.18,0.41,-3.61,0.06,-0.33,-0.22,
4.205,0.18,0.41,-3.61,0.03,-0.33,-0.23,
4.206,0.18,0.41,-3.61,0.02,-0.33,-0.24,
4.208,0.18,0.41,-3.61,-0.00,-0.32,-0.24,
4.21,0.18,0.41,-3.61,-0.02,-0.31,-0.25,
4.213,0.14,0.39,-2.85,-0.02,-0.31,-0.25,
4.213,0.14,0.39,-2.85,-0.03,-0.30,-0.25,
4.214,0.14,0.39,-2.85,-0.03,-0.29,-0.25,
4.216,0.14,0.39,-2.85,-0.04,-0.27,-0.26,
4.218,0.14,0.39,-2.85,-0.05,-0.26,-0.26,
4.22,0.14,0.39,-2.85,-0.05,-0.25,-0.26,
4.225,0.01,0.40,-2.10,-0.05,-0.25,-0.26,
4.226,0.01,0.40,-2.10,-0.05,-0.24,-0.26,
4.248,0.01,0.40,-2.10,-0.04,-0.22,-0.25,
4.249,0.01,0.40,-2.10,-0.04,-0.21,-0.25,
4.249,0.01,0.40,-2.10,-0.03,-0.20,-0.24,
4.249,0.01,0.40,-2.10,-0.02,-0.18,-0.24,
4.249,-0.10,0.36,-1.40,-0.02,-0.18,-0.24,
4.25,-0.10,0.36,-1.40,-0.01,-0.18,-0.23,
4.25,-0.10,0.36,-1.40,-0.00,-0.16,-0.22,
4.25,-0.10,0.36,-1.40,0.00,-0.16,-0.21,
4.25,-0.10,0.36,-1.40,0.01,-0.15,-0.20,
4.251,-0.10,0.36,-1.40,0.02,-0.14,-0.19,
4.251,-0.18,0.44,-1.03,0.02,-0.14,-0.19,
4.251,-0.18,0.44,-1.03,0.03,-0.13,-0.19,
4.251,-0.18,0.44,-1.03,0.03,-0.12,-0.18,
4.252,-0.18,0.44,-1.03,0.03,-0.11,-0.17,
4.252,-0.18,0.44,-1.03,0.03,-0.11,-0.16,
4.252,-0.18,0.44,-1.03,0.03,-0.10,-0.16,
4.281,-0.17,0.59,-0.92,0.03,-0.10,-0.16,
4.281,-0.17,0.59,-0.92,0.03,-0.09,-0.15,
4.281,-0.17,0.59,-0.92,0.02,-0.08,-0.15,
4.281,-0.17,0.59,-0.92,0.02,-0.07,-0.15,
4.282,-0.17,0.59,-0.92,0.01,-0.06,-0.15,
4.282,-0.17,0.59,-0.92,-0.00,-0.05,-0.15,
4.282,-0.05,0.86,-0.96,-0.00,-0.05,-0.15,
4.282,-0.05,0.86,-0.96,-0.02,-0.04,-0.15,
4.282,-0.05,0.86,-0.96,-0.03,-0.03,-0.16,
4.283,-0.05,0.86,-0.96,-0.05,-0.01,-0.16,
4.283,-0.05,0.86,-0.96,-0.07,-0.00,-0.17,
4.283,-0.05,0.86,-0.96,-0.09,0.00,-0.17,
4.283,0.11,1.05,-0.88,-0.09,0.00,-0.17,
4.283,0.11,1.05,-0.88,-0.11,0.01,-0.18,
4.284,0.11,1.05,-0.88,-0.13,0.02,-0.19,
4.284,0.11,1.05,-0.88,-0.15,0.03,-0.20,
4.284,0.11,1.05,-0.88,-0.17,0.04,-0.21,
4.284,0.11,1.05,-0.88,-0.20,0.05,-0.21,
4.285,0.14,1.24,-0.61,-0.20,0.05,-0.21,
4.285,0.14,1.24,-0.61,-0.22,0.05,-0.22,
4.285,0.14,1.24,-0.61,-0.25,0.05,-0.23,
4.292,0.14,1.24,-0.61,-0.28,0.05,-0.23,
4.299,0.14,1.24,-0.61,-0.30,0.05,-0.24,
4.3,0.14,1.24,-0.61,-0.33,0.05,-0.25,
4.3,0.08,1.25,-0.13,-0.33,0.05,-0.25,
4.3,0.08,1.25,-0.13,-0.35,0.04,-0.26,
4.3,0.08,1.25,-0.13,-0.38,0.04,-0.26,
4.301,0.08,1.25,-0.13,-0.39,0.04,-0.27,
4.301,0.08,1.25,-0.13,-0.41,0.04,-0.27,
4.335,0.08,1.25,-0.13,-0.43,0.03,-0.27,
4.335,-0.07,1.28,0.64,-0.43,0.03,-0.27,
4.336,-0.07,1.28,0.64,-0.45,0.03,-0.27,
4.336,-0.07,1.28,0.64,-0.46,0.03,-0.28,
4.336,-0.07,1.28,0.64,-0.47,0.03,-0.27,
4.336,-0.07,1.28,0.64,-0.47,0.03,-0.27,
4.337,-0.07,1.28,0.64,-0.47,0.03,-0.27,
4.337,-0.24,1.18,1.68,-0.47,0.03,-0.27,
4.337,-0.24,1.18,1.68,-0.47,0.03,-0.26,
4.337,-0.24,1.18,1.68,-0.46,0.03,-0.26,
4.337,-0.24,1.18,1.68,-0.45,0.03,-0.25,
4.338,-0.24,1.18,1.68,-0.45,0.03,-0.25,
4.338,-0.24,1.18,1.68,-0.43,0.03,-0.24,
4.338,-0.29,1.07,2.63,-0.43,0.03,-0.24,
4.338,-0.29,1.07,2.63,-0.42,0.02,-0.23,
4.338,-0.29,1.07,2.63,-0.41,0.02,-0.22,
4.339,-0.29,1.07,2.63,-0.39,0.01,-0.22,
4.34,-0.29,1.07,2.63,-0.37,0.01,-0.21,
4.342,-0.29,1.07,2.63,-0.36,-0.00,-0.20,
4.345,-0.20,0.95,3.29,-0.36,-0.00,-0.20,
4.345,-0.20,0.95,3.29,-0.34,-0.02,-0.19,
4.346,-0.20,0.95,3.29,-0.32,-0.03,-0.19,
4.346,-0.20,0.95,3.29,-0.30,-0.03,-0.18,
4.346,-0.20,0.95,3.29,-0.28,-0.04,-0.16,
4.346,-0.20,0.95,3.29,-0.25,-0.03,-0.16,
4.346,-0.11,0.88,3.90,-0.25,-0.03,-0.16,
4.346,-0.11,0.88,3.90,-0.23,-0.02,-0.15,
4.347,-0.11,0.88,3.90,-0.20,-0.01,-0.14,
4.347,-0.11,0.88,3.90,-0.16,0.02,-0.13,
4.349,-0.11,0.88,3.90,-0.13,0.05,-0.12,
4.351,-0.11,0.88,3.90,-0.09,0.09,-0.11,
4.353,-0.04,1.02,4.48,-0.09,0.09,-0.11,
4.353,-0.04,1.02,4.48,-0.06,0.14,-0.11,
4.38,-0.04,1.02,4.48,-0.01,0.19,-0.10,
4.38,-0.04,1.02,4.48,0.02,0.23,-0.10,
4.381,-0.04,1.02,4.48,0.06,0.28,-0.10,
4.381,-0.04,1.02,4.48,0.09,0.33,-0.10,
4.381,0.03,1.21,4.45,0.09,0.33,-0.10,
4.381,0.03,1.21,4.45,0.12,0.37,-0.10,
4.381,0.03,1.21,4.45,0.14,0.40,-0.11,
4.381,0.03,1.21,4.45,0.15,0.43,-0.11,
4.381,0.03,1.21,4.45,0.15,0.45,-0.12,
4.381,0.03,1.21,4.45,0.14,0.47,-0.12,
4.382,0.14,1.04,3.30,0.14,0.47,-0.12,
4.382,0.14,1.04,3.30,0.13,0.48,-0.13,
4.382,0.14,1.04,3.30,0.10,0.48,-0.14,
4.382,0.14,1.04,3.30,0.07,0.48,-0.15,
4.382,0.14,1.04,3.30,0.02,0.48,-0.15,
4.382,0.14,1.04,3.30,-0.03,0.48,-0.16,
4.382,0.34,0.62,1.86,-0.03,0.48,-0.16,
4.382,0.34,0.62,1.86,-0.09,0.49,-0.17,
4.384,0.34,0.62,1.86,-0.14,0.50,-0.17,
4.386,0.34,0.62,1.86,-0.20,0.51,-0.18,
4.388,0.34,0.62,1.86,-0.26,0.53,-0.19,
4.39,0.34,0.62,1.86,-0.32,0.56,-0.19,
4.402,0.34,0.53,1.36,-0.32,0.56,-0.19,
4.402,0.34,0.53,1.36,-0.38,0.59,-0.20,
4.402,0.34,0.53,1.36,-0.43,0.63,-0.21,
4.402,0.34,0.53,1.36,-0.48,0.67,-0.22,
4.402,0.34,0.53,1.36,-0.52,0.72,-0.24,
4.402,0.34,0.53,1.36,-0.57,0.77,-0.25,
4.402,0.18,0.62,1.58,-0.57,0.77,-0.25,
4.402,0.18,0.62,1.58,-0.60,0.81,-0.27,
4.425,0.18,0.62,1.58,-0.65,0.86,-0.28,
4.425,0.18,0.62,1.58,-0.69,0.91,-0.29,
4.425,0.18,0.62,1.58,-0.73,0.95,-0.31,
4.425,0.18,0.62,1.58,-0.77,0.99,-0.33,
4.426,-0.03,0.47,1.67,-0.77,0.99,-0.33,
4.426,-0.03,0.47,1.67,-0.82,1.03,-0.34,
4.426,-0.03,0.47,1.67,-0.87,1.07,-0.35,
4.426,-0.03,0.47,1.67,-0.92,1.10,-0.36,
4.426,-0.03,0.47,1.67,-0.97,1.14,-0.37,
4.426,-0.03,0.47,1.67,-1.01,1.19,-0.38,
4.426,-0.44,0.09,1.68,-1.01,1.19,-0.38,
4.427,-0.44,0.09,1.68,-1.05,1.23,-0.38,
4.427,-0.44,0.09,1.68,-1.09,1.28,-0.39,
4.433,-0.44,0.09,1.68,-1.13,1.33,-0.38,
4.433,-0.44,0.09,1.68,-1.16,1.38,-0.38,
4.434,-0.44,0.09,1.68,-1.19,1.43,-0.37,
4.435,-1.08,-0.25,2.09,-1.19,1.43,-0.37,
4.436,-1.08,-0.25,2.09,-1.21,1.48,-0.36,
4.436,-1.08,-0.25,2.09,-1.23,1.54,-0.35,
4.436,-1.08,-0.25,2.09,-1.24,1.58,-0.33,
4.447,-1.08,-0.25,2.09,-1.25,1.62,-0.32,
4.447,-1.08,-0.25,2.09,-1.25,1.66,-0.30,
4.447,-1.75,-0.51,2.67,-1.25,1.66,-0.30,
4.447,-1.75,-0.51,2.67,-1.25,1.69,-0.28,
4.447,-1.75,-0.51,2.67,-1.25,1.71,-0.26,
4.447,-1.75,-0.51,2.67,-1.24,1.72,-0.24,
4.448,-1.75,-0.51,2.67,-1.24,1.73,-0.22,
4.45,-1.75,-0.51,2.67,-1.23,1.72,-0.20,
4.452,-2.12,-0.57,2.81,-1.23,1.72,-0.20,
4.452,-2.12,-0.57,2.81,-1.23,1.71,-0.18,
4.454,-2.12,-0.57,2.81,-1.22,1.68,-0.16,
4.456,-2.12,-0.57,2.81,-1.21,1.65,-0.14,
4.458,-2.12,-0.57,2.81,-1.20,1.60,-0.12,
4.46,-2.12,-0.57,2.81,-1.18,1.55,-0.11,
4.464,-2.28,-0.52,2.82,-1.18,1.55,-0.11,
4.464,-2.28,-0.52,2.82,-1.17,1.48,-0.09,
4.464,-2.28,-0.52,2.82,-1.15,1.40,-0.08,
4.467,-2.28,-0.52,2.82,-1.13,1.31,-0.07,
4.468,-2.28,-0.52,2.82,-1.12,1.22,-0.06,
4.471,-2.28,-0.52,2.82,-1.10,1.11,-0.05,
4.475,-2.06,-0.46,3.02,-1.10,1.11,-0.05,
4.475,-2.06,-0.46,3.02,-1.07,1.01,-0.04,
4.475,-2.06,-0.46,3.02,-1.05,0.90,-0.03,
4.479,-2.06,-0.46,3.02,-1.03,0.78,-0.03,
4.479,-2.06,-0.46,3.02,-1.00,0.67,-0.03,
4.482,-2.06,-0.46,3.02,-0.97,0.55,-0.03,
4.482,-1.62,-0.63,3.29,-0.97,0.55,-0.03,
4.482,-1.62,-0.63,3.29,-0.94,0.43,-0.03,
4.484,-1.62,-0.63,3.29,-0.91,0.30,-0.03,
4.486,-1.62,-0.63,3.29,-0.88,0.19,-0.03,
4.488,-1.62,-0.63,3.29,-0.84,0.07,-0.03,
4.49,-1.62,-0.63,3.29,-0.80,-0.04,-0.03,
4.497,-1.24,-0.71,3.74,-0.80,-0.04,-0.03,
4.497,-1.24,-0.71,3.74,-0.76,-0.15,-0.03,
4.497,-1.24,-0.71,3.74,-0.71,-0.25,-0.03,
4.497,-1.24,-0.71,3.74,-0.66,-0.35,-0.02,
4.498,-1.24,-0.71,3.74,-0.61,-0.45,-0.02,
4.502,-1.24,-0.71,3.74,-0.55,-0.54,-0.01,
4.508,-1.20,-0.81,4.32,-0.55,-0.54,-0.01,
4.508,-1.20,-0.81,4.32,-0.49,-0.62,0.00,
4.508,-1.20,-0.81,4.32,-0.42,-0.69,0.01,
4.509,-1.20,-0.81,4.32,-0.36,-0.76,0.02,
4.509,-1.20,-0.81,4.32,-0.29,-0.82,0.04,
4.515,-1.20,-0.81,4.32,-0.23,-0.87,0.05,
4.515,-1.19,-0.88,4.60,-0.23,-0.87,0.05,
4.516,-1.19,-0.88,4.60,-0.16,-0.91,0.06,
4.516,-1.19,-0.88,4.60,-0.10,-0.94,0.08,
4.516,-1.19,-0.88,4.60,-0.04,-0.96,0.10,
4.518,-1.19,-0.88,4.60,0.02,-0.97,0.12,
4.521,-1.19,-0.88,4.60,0.07,-0.98,0.13,
4.527,-1.10,-1.00,4.11,0.07,-0.98,0.13,
4.527,-1.10,-1.00,4.11,0.11,-0.98,0.15,
4.528,-1.10,-1.00,4.11,0.15,-0.97,0.17,
4.528,-1.10,-1.00,4.11,0.19,-0.96,0.19,
4.528,-1.10,-1.00,4.11,0.22,-0.93,0.21,
4.533,-1.10,-1.00,4.11,0.24,-0.91,0.23,
4.533,-0.84,-1.05,2.93,0.24,-0.91,0.23,
4.533,-0.84,-1.05,2.93,0.26,-0.87,0.25,
4.534,-0.84,-1.05,2.93,0.28,-0.84,0.26,
4.538,-0.84,-1.05,2.93,0.29,-0.80,0.28,
4.539,-0.84,-1.05,2.93,0.29,-0.75,0.30,
4.544,-0.84,-1.05,2.93,0.30,-0.70,0.32,
4.544,-0.53,-1.06,1.67,0.30,-0.70,0.32,
4.545,-0.53,-1.06,1.67,0.30,-0.65,0.33,
4.545,-0.53,-1.06,1.67,0.29,-0.60,0.35,
4.546,-0.53,-1.06,1.67,0.28,-0.55,0.36,
4.548,-0.53,-1.06,1.67,0.27,-0.49,0.38,
4.55,-0.53,-1.06,1.67,0.27,-0.44,0.39,
4.553,-0.29,-0.96,0.45,0.27,-0.44,0.39,
4.553,-0.29,-0.96,0.45,0.25,-0.38,0.40,
4.553,-0.29,-0.96,0.45,0.23,-0.33,0.41,
4.561,-0.29,-0.96,0.45,0.22,-0.28,0.43,
4.586,-0.29,-0.96,0.45,0.20,-0.22,0.44,
4.587,-0.29,-0.96,0.45,0.18,-0.17,0.45,
4.587,-0.12,-0.83,-0.59,0.18,-0.17,0.45,
4.588,-0.12,-0.83,-0.59,0.16,-0.13,0.46,
4.588,-0.12,-0.83,-0.59,0.14,-0.07,0.46,
4.588,-0.12,-0.83,-0.59,0.12,-0.03,0.47,
4.589,-0.12,-0.83,-0.59,0.09,0.01,0.48,
4.589,-0.12,-0.83,-0.59,0.07,0.05,0.48,
4.589,0.04,-0.68,-1.43,0.07,0.05,0.48,
4.589,0.04,-0.68,-1.43,0.06,0.09,0.48,
4.59,0.04,-0.68,-1.43,0.03,0.12,0.49,
4.59,0.04,-0.68,-1.43,0.01,0.15,0.49,
4.59,0.04,-0.68,-1.43,-0.01,0.17,0.49,
4.59,0.04,-0.68,-1.43,-0.03,0.20,0.49,
4.591,0.22,-0.59,-2.05,-0.03,0.20,0.49,
4.591,0.22,-0.59,-2.05,-0.06,0.21,0.49,
4.591,0.22,-0.59,-2.05,-0.08,0.23,0.49,
4.591,0.22,-0.59,-2.05,-0.10,0.24,0.49,
4.592,0.22,-0.59,-2.05,-0.12,0.25,0.49,
4.592,0.22,-0.59,-2.05,-0.14,0.25,0.49,
4.626,0.35,-0.53,-2.42,-0.14,0.25,0.49,
4.626,0.35,-0.53,-2.42,-0.15,0.25,0.48,
4.627,0.35,-0.53,-2.42,-0.17,0.25,0.48,
4.627,0.35,-0.53,-2.42,-0.18,0.25,0.47,
4.627,0.35,-0.53,-2.42,-0.19,0.24,0.47,
4.627,0.35,-0.53,-2.42,-0.19,0.24,0.46,
4.628,0.32,-0.45,-2.37,-0.19,0.24,0.46,
4.628,0.32,-0.45,-2.37,-0.19,0.23,0.46,
4.628,0.32,-0.45,-2.37,-0.18,0.22,0.45,
4.628,0.32,-0.45,-2.37,-0.17,0.21,0.45,
4.628,0.32,-0.45,-2.37,-0.16,0.19,0.45,
4.629,0.32,-0.45,-2.37,-0.15,0.18,0.45,
4.629,0.00,-0.38,-2.06,-0.15,0.18,0.45,
4.629,0.00,-0.38,-2.06,-0.13,0.16,0.45,
4.629,0.00,-0.38,-2.06,-0.11,0.14,0.46,
4.63,0.00,-0.38,-2.06,-0.09,0.12,0.47,
4.63,0.00,-0.38,-2.06,-0.06,0.09,0.47,
4.63,0.00,-0.38,-2.06,-0.02,0.07,0.49,
4.63,-0.49,-0.42,-1.67,-0.02,0.07,0.49,
4.631,-0.49,-0.42,-1.67,0.01,0.05,0.50,
4.631,-0.49,-0.42,-1.67,0.04,0.02,0.51,
4.631,-0.49,-0.42,-1.67,0.08,0.00,0.53,
4.631,-0.49,-0.42,-1.67,0.12,-0.02,0.55,
4.631,-0.49,-0.42,-1.67,0.17,-0.04,0.57,
4.642,-0.87,-0.60,-1.44,0.17,-0.04,0.57,
4.643,-0.87,-0.60,-1.44,0.21,-0.06,0.60,
4.643,-0.87,-0.60,-1.44,0.25,-0.09,0.62,
4.643,-0.87,-0.60,-1.44,0.30,-0.11,0.65,
4.644,-0.87,-0.60,-1.44,0.34,-0.13,0.67,
4.644,-0.87,-0.60,-1.44,0.38,-0.16,0.70,
4.644,-1.14,-0.73,-1.45,0.38,-0.16,0.70,
4.644,-1.14,-0.73,-1.45,0.43,-0.18,0.73,
4.645,-1.14,-0.73,-1.45,0.47,-0.20,0.76,
4.646,-1.14,-0.73,-1.45,0.51,-0.23,0.78,
4.651,-1.14,-0.73,-1.45,0.55,-0.26,0.81,
4.651,-1.14,-0.73,-1.45,0.59,-0.28,0.83,
4.654,-1.06,-0.75,-1.73,0.59,-0.28,0.83,
4.655,-1.06,-0.75,-1.73,0.63,-0.30,0.85,
4.655,-1.06,-0.75,-1.73,0.66,-0.33,0.88,
4.656,-1.06,-0.75,-1.73,0.69,-0.35,0.89,
4.658,-1.06,-0.75,-1.73,0.71,-0.37,0.91,
4.66,-1.06,-0.75,-1.73,0.74,-0.39,0.92,
4.663,-0.69,-0.74,-2.21,0.74,-0.39,0.92,
4.663,-0.69,-0.74,-2.21,0.76,-0.41,0.93,
4.664,-0.69,-0.74,-2.21,0.78,-0.43,0.94,
4.666,-0.69,-0.74,-2.21,0.80,-0.45,0.95,
4.668,-0.69,-0.74,-2.21,0.81,-0.46,0.95,
4.67,-0.69,-0.74,-2.21,0.82,-0.47,0.96,
4.673,-0.18,-0.67,-2.72,0.82,-0.47,0.96,
4.673,-0.18,-0.67,-2.72,0.83,-0.48,0.96,
4.674,-0.18,-0.67,-2.72,0.84,-0.49,0.96,
4.676,-0.18,-0.67,-2.72,0.84,-0.50,0.95,
4.68,-0.18,-0.67,-2.72,0.84,-0.51,0.95,
4.68,-0.18,-0.67,-2.72,0.84,-0.51,0.94,
4.683,0.25,-0.52,-3.16,0.84,-0.51,0.94,
4.683,0.25,-0.52,-3.16,0.84,-0.52,0.93,
4.684,0.25,-0.52,-3.16,0.83,-0.52,0.93,
4.687,0.25,-0.52,-3.16,0.83,-0.52,0.91,
4.692,0.25,-0.52,-3.16,0.82,-0.52,0.90,
4.693,0.25,-0.52,-3.16,0.81,-0.52,0.89,
4.698,0.47,-0.49,-3.45,0.81,-0.52,0.89,
4.698,0.47,-0.49,-3.45,0.79,-0.52,0.88,
4.699,0.47,-0.49,-3.45,0.78,-0.52,0.87,
4.699,0.47,-0.49,-3.45,0.77,-0.51,0.85,
4.699,0.47,-0.49,-3.45,0.75,-0.51,0.84,
4.7,0.47,-0.49,-3.45,0.73,-0.51,0.83,
4.705,0.52,-0.44,-3.63,0.73,-0.51,0.83,
4.705,0.52,-0.44,-3.63,0.71,-0.51,0.82,
4.705,0.52,-0.44,-3.63,0.69,-0.51,0.80,
4.715,0.52,-0.44,-3.63,0.67,-0.51,0.79,
4.715,0.52,-0.44,-3.63,0.65,-0.51,0.78,
4.715,0.52,-0.44,-3.63,0.63,-0.51,0.76,
4.716,0.55,-0.49,-3.57,0.63,-0.51,0.76,
4.716,0.55,-0.49,-3.57,0.61,-0.51,0.75,
4.716,0.55,-0.49,-3.57,0.59,-0.50,0.73,
4.716,0.55,-0.49,-3.57,0.58,-0.50,0.71,
4.721,0.55,-0.49,-3.57,0.56,-0.50,0.70,
4.721,0.55,-0.49,-3.57,0.55,-0.49,0.69,
4.777,0.57,-0.48,-3.17,0.55,-0.49,0.69,
4.778,0.57,-0.48,-3.17,0.53,-0.48,0.67,
4.796,0.57,-0.48,-3.17,0.52,-0.48,0.66,
4.796,0.57,-0.48,-3.17,0.51,-0.47,0.64,
4.796,0.57,-0.48,-3.17,0.50,-0.46,0.63,
4.796,0.57,-0.48,-3.17,0.50,-0.46,0.62,
4.797,0.50,-0.51,-2.66,0.50,-0.46,0.62,
4.797,0.50,-0.51,-2.66,0.49,-0.44,0.60,
4.797,0.50,-0.51,-2.66,0.48,-0.43,0.59,
4.797,0.50,-0.51,-2.66,0.48,-0.42,0.57,
4.798,0.50,-0.51,-2.66,0.47,-0.41,0.56,
4.798,0.50,-0.51,-2.66,0.47,-0.40,0.55,
4.798,0.40,-0.46,-2.22,0.47,-0.40,0.55,
4.798,0.40,-0.46,-2.22,0.46,-0.39,0.54,
4.798,0.40,-0.46,-2.22,0.46,-0.38,0.53,
4.799,0.40,-0.46,-2.22,0.46,-0.37,0.52,
4.799,0.40,-0.46,-2.22,0.46,-0.36,0.51,
4.799,0.40,-0.46,-2.22,0.45,-0.35,0.50,
4.799,0.26,-0.41,-1.89,0.45,-0.35,0.50,
4.799,0.26,-0.41,-1.89,0.45,-0.35,0.49,
4.8,0.26,-0.41,-1.89,0.45,-0.35,0.48,
4.8,0.26,-0.41,-1.89,0.45,-0.35,0.47,
4.8,0.26,-0.41,-1.89,0.45,-0.36,0.46,
4.8,0.26,-0.41,-1.89,0.44,-0.37,0.45,
4.8,0.20,-0.37,-1.63,0.44,-0.37,0.45,
4.801,0.20,-0.37,-1.63,0.43,-0.38,0.44,
4.801,0.20,-0.37,-1.63,0.42,-0.38,0.43,
4.801,0.20,-0.37,-1.63,0.42,-0.39,0.42,
4.801,0.20,-0.37,-1.63,0.41,-0.40,0.41,
4.801,0.20,-0.37,-1.63,0.40,-0.41,0.40,
4.802,0.25,-0.36,-1.36,0.40,-0.41,0.40,
4.802,0.25,-0.36,-1.36,0.39,-0.41,0.38,
4.802,0.25,-0.36,-1.36,0.38,-0.42,0.37,
4.802,0.25,-0.36,-1.36,0.36,-0.42,0.36,
4.802,0.25,-0.36,-1.36,0.35,-0.42,0.34,
4.803,0.25,-0.36,-1.36,0.34,-0.42,0.33,
4.803,0.35,-0.29,-0.92,0.34,-0.42,0.33,
4.803,0.35,-0.29,-0.92,0.33,-0.42,0.31,
4.803,0.35,-0.29,-0.92,0.32,-0.42,0.29,
4.803,0.35,-0.29,-0.92,0.31,-0.41,0.28,
4.804,0.35,-0.29,-0.92,0.30,-0.40,0.26,
4.804,0.35,-0.29,-0.92,0.29,-0.39,0.24,
4.804,0.32,-0.24,-0.32,0.29,-0.39,0.24,
4.804,0.32,-0.24,-0.32,0.29,-0.38,0.23,
4.805,0.32,-0.24,-0.32,0.29,-0.37,0.21,
4.805,0.32,-0.24,-0.32,0.28,-0.36,0.20,
4.805,0.32,-0.24,-0.32,0.28,-0.34,0.19,
4.805,0.32,-0.24,-0.32,0.28,-0.33,0.18,
4.805,0.19,-0.18,0.28,0.28,-0.33,0.18,
4.806,0.19,-0.18,0.28,0.27,-0.32,0.17,
4.806,0.19,-0.18,0.28,0.27,-0.31,0.16,
4.806,0.19,-0.18,0.28,0.28,-0.30,0.15,
4.821,0.19,-0.18,0.28,0.28,-0.29,0.14,
4.822,0.19,-0.18,0.28,0.28,-0.28,0.13,
4.822,0.13,-0.20,0.73,0.28,-0.28,0.13,
4.822,0.13,-0.20,0.73,0.28,-0.27,0.12,
4.822,0.13,-0.20,0.73,0.28,-0.26,0.11,
4.822,0.13,-0.20,0.73,0.29,-0.26,0.10,
4.823,0.13,-0.20,0.73,0.29,-0.25,0.09,
4.823,0.13,-0.20,0.73,0.29,-0.25,0.08,
4.823,0.19,-0.25,1.01,0.29,-0.25,0.08,
4.823,0.19,-0.25,1.01,0.29,-0.25,0.06,
4.824,0.19,-0.25,1.01,0.29,-0.26,0.06,
4.829,0.19,-0.25,1.01,0.30,-0.26,0.05,
4.829,0.19,-0.25,1.01,0.30,-0.27,0.04,
4.833,0.19,-0.25,1.01,0.29,-0.27,0.03,
4.833,0.15,-0.26,1.16,0.29,-0.27,0.03,
4.834,0.15,-0.26,1.16,0.29,-0.28,0.03,
4.834,0.15,-0.26,1.16,0.28,-0.29,0.02,
4.839,0.15,-0.26,1.16,0.27,-0.29,0.01,
4.84,0.15,-0.26,1.16,0.25,-0.30,-0.00,
4.844,0.15,-0.26,1.16,0.23,-0.30,-0.01,
4.845,0.20,-0.19,1.00,0.23,-0.30,-0.01,
4.845,0.20,-0.19,1.00,0.21,-0.30,-0.02,
4.845,0.20,-0.19,1.00,0.18,-0.30,-0.04,
4.849,0.20,-0.19,1.00,0.15,-0.30,-0.05,
4.849,0.20,-0.19,1.00,0.12,-0.30,-0.06,
4.85,0.20,-0.19,1.00,0.08,-0.29,-0.08,
4.854,0.35,-0.13,0.87,0.08,-0.29,-0.08,
4.854,0.35,-0.13,0.87,0.04,-0.29,-0.09,
4.854,0.35,-0.13,0.87,0.00,-0.28,-0.10,
4.861,0.35,-0.13,0.87,-0.04,-0.27,-0.11,
4.861,0.35,-0.13,0.87,-0.07,-0.26,-0.12,
4.862,0.35,-0.13,0.87,-0.11,-0.25,-0.13,
4.866,0.39,-0.07,1.27,-0.11,-0.25,-0.13,
4.866,0.39,-0.07,1.27,-0.14,-0.23,-0.13,
4.866,0.39,-0.07,1.27,-0.17,-0.22,-0.14,
4.866,0.39,-0.07,1.27,-0.19,-0.19,-0.14,
4.871,0.39,-0.07,1.27,-0.21,-0.16,-0.14,
4.871,0.39,-0.07,1.27,-0.23,-0.12,-0.14,
4.896,0.28,0.04,2.30,-0.23,-0.12,-0.14,
4.896,0.28,0.04,2.30,-0.24,-0.08,-0.14,
4.896,0.28,0.04,2.30,-0.24,-0.04,-0.13,
4.896,0.28,0.04,2.30,-0.24,0.01,-0.12,
4.897,0.28,0.04,2.30,-0.24,0.07,-0.11,
4.897,0.28,0.04,2.30,-0.23,0.12,-0.10,
4.897,0.04,0.24,3.34,-0.23,0.12,-0.10,
4.897,0.04,0.24,3.34,-0.22,0.18,-0.09,
4.897,0.04,0.24,3.34,-0.20,0.24,-0.08,
4.897,0.04,0.24,3.34,-0.19,0.29,-0.07,
4.898,0.04,0.24,3.34,-0.17,0.35,-0.06,
4.898,0.04,0.24,3.34,-0.16,0.39,-0.05,
4.919,0.05,0.43,3.72,-0.16,0.39,-0.05,
4.919,0.05,0.43,3.72,-0.14,0.44,-0.05,
4.919,0.05,0.43,3.72,-0.13,0.47,-0.04,
4.919,0.05,0.43,3.72,-0.12,0.50,-0.04,
4.919,0.05,0.43,3.72,-0.12,0.52,-0.04,
4.92,0.05,0.43,3.72,-0.11,0.53,-0.05,
4.92,0.45,0.12,3.25,-0.11,0.53,-0.05,
4.92,0.45,0.12,3.25,-0.11,0.54,-0.05,
4.92,0.45,0.12,3.25,-0.12,0.54,-0.05,
4.92,0.45,0.12,3.25,-0.12,0.53,-0.05,
4.921,0.45,0.12,3.25,-0.13,0.52,-0.05,
4.921,0.45,0.12,3.25,-0.14,0.50,-0.06,
4.921,0.77,-0.20,2.52,-0.14,0.50,-0.06,
4.921,0.77,-0.20,2.52,-0.16,0.48,-0.06,
4.921,0.77,-0.20,2.52,-0.17,0.46,-0.06,
4.921,0.77,-0.20,2.52,-0.18,0.44,-0.07,
4.921,0.77,-0.20,2.52,-0.19,0.42,-0.08,
4.922,0.77,-0.20,2.52,-0.20,0.40,-0.09,
4.946,1.11,-0.12,2.17,-0.20,0.40,-0.09,
4.946,1.11,-0.12,2.17,-0.21,0.37,-0.11,
4.946,1.11,-0.12,2.17,-0.23,0.35,-0.12,
4.946,1.11,-0.12,2.17,-0.23,0.34,-0.15,
4.946,1.11,-0.12,2.17,-0.24,0.31,-0.17,
4.947,1.11,-0.12,2.17,-0.25,0.29,-0.20,
4.947,1.47,0.07,2.01,-0.25,0.29,-0.20,
4.947,1.47,0.07,2.01,-0.27,0.27,-0.23,
4.947,1.47,0.07,2.01,-0.28,0.25,-0.26,
4.947,1.47,0.07,2.01,-0.29,0.22,-0.30,
4.947,1.47,0.07,2.01,-0.31,0.19,-0.33,
4.948,1.47,0.07,2.01,-0.33,0.15,-0.36,
4.948,1.60,0.06,1.82,-0.33,0.15,-0.36,
4.948,1.60,0.06,1.82,-0.35,0.12,-0.39,
4.948,1.60,0.06,1.82,-0.37,0.08,-0.42,
4.948,1.60,0.06,1.82,-0.38,0.05,-0.44,
4.948,1.60,0.06,1.82,-0.40,0.02,-0.46,
4.95,1.60,0.06,1.82,-0.41,-0.01,-0.48,
4.954,1.18,-0.13,1.98,-0.41,-0.01,-0.48,
4.954,1.18,-0.13,1.98,-0.42,-0.03,-0.50,
4.954,1.18,-0.13,1.98,-0.42,-0.06,-0.50,
4.956,1.18,-0.13,1.98,-0.42,-0.08,-0.51,
4.958,1.18,-0.13,1.98,-0.42,-0.09,-0.50,
4.959,1.18,-0.13,1.98,-0.41,-0.11,-0.50,
4.962,0.56,-0.46,2.58,-0.41,-0.11,-0.50,
4.962,0.56,-0.46,2.58,-0.40,-0.12,-0.49,
4.963,0.56,-0.46,2.58,-0.38,-0.12,-0.47,
4.968,0.56,-0.46,2.58,-0.36,-0.14,-0.46,
4.968,0.56,-0.46,2.58,-0.35,-0.15,-0.44,
4.975,0.56,-0.46,2.58,-0.33,-0.15,-0.42,
4.975,0.09,-0.65,3.06,-0.33,-0.15,-0.42,
4.979,0.09,-0.65,3.06,-0.27,-0.19,-0.37,
4.98,0.09,-0.65,3.06,-0.27,-0.19,-0.37,
4.98,0.09,-0.65,3.06,-0.25,-0.21,-0.34,
4.983,0.09,-0.65,3.06,-0.24,-0.22,-0.33,
4.983,0.09,-0.65,3.06,-0.24,-0.22,-0.33,
4.983,0.10,-0.81,2.91,-0.24,-0.22,-0.33,
4.983,0.10,-0.81,2.91,-0.24,-0.23,-0.32,
4.984,0.10,-0.81,2.91,-0.23,-0.25,-0.31,
5.0,0.10,-0.81,2.91,-0.23,-0.26,-0.29,
5.0,0.10,-0.81,2.91,-0.23,-0.27,-0.29,
5.0,0.10,-0.81,2.91,-0.24,-0.29,-0.28,
