
time,ax,ay,az,wx,wy,wz,
0.003,0.12,0.32,-0.23,0.42,0.18,-0.24,
0.003,0.12,0.32,-0.23,0.41,0.18,-0.25,
0.004,0.12,0.32,-0.23,0.41,0.18,-0.25,
0.004,0.12,0.32,-0.23,0.40,0.18,-0.25,
0.004,0.12,0.32,-0.23,0.39,0.17,-0.25,
0.004,0.12,0.32,-0.23,0.37,0.16,-0.25,
0.004,-0.03,0.33,-0.39,0.37,0.16,-0.25,
0.004,-0.03,0.33,-0.39,0.36,0.14,-0.24,
0.004,-0.03,0.33,-0.39,0.34,0.11,-0.24,
0.005,-0.03,0.33,-0.39,0.32,0.08,-0.22,
0.005,-0.03,0.33,-0.39,0.30,0.05,-0.21,
0.007,-0.03,0.33,-0.39,0.28,0.01,-0.20,
0.014,-0.29,0.44,-0.61,0.28,0.01,-0.20,
0.014,-0.29,0.44,-0.61,0.26,-0.03,-0.18,
0.014,-0.29,0.44,-0.61,0.24,-0.07,-0.17,
0.014,-0.29,0.44,-0.61,0.22,-0.10,-0.15,
0.015,-0.29,0.44,-0.61,0.19,-0.14,-0.14,
0.017,-0.29,0.44,-0.61,0.16,-0.18,-0.12,
0.021,-0.52,0.68,-0.90,0.16,-0.18,-0.12,
0.022,-0.52,0.68,-0.90,0.13,-0.21,-0.11,
0.022,-0.52,0.68,-0.90,0.10,-0.25,-0.10,
0.023,-0.52,0.68,-0.90,0.07,-0.28,-0.08,
0.029,-0.52,0.68,-0.90,0.03,-0.31,-0.08,
0.03,-0.52,0.68,-0.90,-0.01,-0.34,-0.07,
0.03,-0.60,0.98,-1.35,-0.01,-0.34,-0.07,
0.03,-0.60,0.98,-1.35,-0.05,-0.37,-0.06,
0.031,-0.60,0.98,-1.35,-0.09,-0.40,-0.05,
0.033,-0.60,0.98,-1.35,-0.13,-0.43,-0.05,
0.035,-0.60,0.98,-1.35,-0.17,-0.47,-0.04,
0.037,-0.60,0.98,-1.35,-0.22,-0.50,-0.03,
0.039,-0.68,0.85,-1.50,-0.22,-0.50,-0.03,
0.04,-0.68,0.85,-1.50,-0.26,-0.54,-0.03,
0.052,-0.68,0.85,-1.50,-0.30,-0.57,-0.02,
0.052,-0.68,0.85,-1.50,-0.34,-0.60,-0.02,
0.052,-0.68,0.85,-1.50,-0.39,-0.62,-0.01,
0.052,-0.68,0.85,-1.50,-0.43,-0.65,-0.01,
0.052,-0.83,0.62,-1.35,-0.43,-0.65,-0.01,
0.053,-0.83,0.62,-1.35,-0.47,-0.68,-0.00,
0.053,-0.83,0.62,-1.35,-0.51,-0.71,0.00,
0.053,-0.83,0.62,-1.35,-0.55,-0.74,0.01,
0.06,-0.83,0.62,-1.35,-0.59,-0.77,0.01,
0.06,-0.83,0.62,-1.35,-0.63,-0.81,0.02,
0.061,-0.86,0.49,-1.05,-0.63,-0.81,0.02,
0.061,-0.86,0.49,-1.05,-0.67,-0.84,0.02,
0.061,-0.86,0.49,-1.05,-0.71,-0.88,0.02,
0.081,-0.86,0.49,-1.05,-0.75,-0.92,0.03,
0.087,-0.86,0.49,-1.05,-0.79,-0.95,0.03,
0.087,-0.86,0.49,-1.05,-0.82,-0.97,0.03,
0.088,-0.75,0.42,-0.76,-0.82,-0.97,0.03,
0.088,-0.75,0.42,-0.76,-0.86,-1.00,0.04,
0.088,-0.75,0.42,-0.76,-0.89,-1.02,0.04,
0.088,-0.75,0.42,-0.76,-0.92,-1.03,0.04,
0.089,-0.75,0.42,-0.76,-0.95,-1.02,0.04,
0.089,-0.75,0.42,-0.76,-0.98,-1.01,0.04,
0.089,-0.24,0.23,-0.46,-0.98,-1.01,0.04,
0.089,-0.24,0.23,-0.46,-1.00,-0.99,0.04,
0.089,-0.24,0.23,-0.46,-1.02,-0.96,0.04,
0.09,-0.24,0.23,-0.46,-1.04,-0.93,0.05,
0.09,-0.24,0.23,-0.46,-1.06,-0.90,0.05,
0.09,-0.24,0.23,-0.46,-1.07,-0.87,0.06,
0.09,0.14,0.11,-0.04,-1.07,-0.87,0.06,
0.09,0.14,0.11,-0.04,-1.08,-0.84,0.07,
0.094,0.14,0.11,-0.04,-1.09,-0.83,0.08,
0.094,0.14,0.11,-0.04,-1.09,-0.82,0.09,
0.096,0.14,0.11,-0.04,-1.09,-0.81,0.11,
0.098,0.14,0.11,-0.04,-1.08,-0.80,0.12,
0.102,0.29,0.16,0.34,-1.08,-0.80,0.12,
0.102,0.29,0.16,0.34,-1.08,-0.79,0.14,
0.102,0.29,0.16,0.34,-1.06,-0.78,0.15,
0.104,0.29,0.16,0.34,-1.05,-0.78,0.16,
0.106,0.29,0.16,0.34,-1.03,-0.77,0.18,
0.122,0.29,0.16,0.34,-1.01,-0.76,0.19,
0.122,0.31,0.33,0.49,-1.01,-0.76,0.19,
0.122,0.31,0.33,0.49,-0.98,-0.76,0.19,
0.122,0.31,0.33,0.49,-0.96,-0.76,0.20,
0.123,0.31,0.33,0.49,-0.93,-0.76,0.21,
0.124,0.31,0.33,0.49,-0.90,-0.77,0.22,
0.124,0.31,0.33,0.49,-0.87,-0.79,0.22,
0.125,0.09,0.54,0.73,-0.87,-0.79,0.22,
0.125,0.09,0.54,0.73,-0.84,-0.82,0.23,
0.125,0.09,0.54,0.73,-0.80,-0.86,0.23,
0.125,0.09,0.54,0.73,-0.76,-0.91,0.24,
0.139,0.09,0.54,0.73,-0.72,-0.97,0.24,
0.139,0.09,0.54,0.73,-0.69,-1.04,0.25,
0.14,-0.33,0.77,1.41,-0.69,-1.04,0.25,
0.14,-0.33,0.77,1.41,-0.64,-1.10,0.25,
0.14,-0.33,0.77,1.41,-0.60,-1.17,0.25,
0.14,-0.33,0.77,1.41,-0.55,-1.24,0.26,
0.14,-0.33,0.77,1.41,-0.51,-1.31,0.26,
0.14,-0.33,0.77,1.41,-0.46,-1.37,0.26,
0.14,-0.76,0.85,1.87,-0.46,-1.37,0.26,
0.14,-0.76,0.85,1.87,-0.42,-1.43,0.26,
0.142,-0.76,0.85,1.87,-0.37,-1.49,0.25,
0.144,-0.76,0.85,1.87,-0.34,-1.55,0.24,
0.145,-0.76,0.85,1.87,-0.30,-1.61,0.23,
0.147,-0.76,0.85,1.87,-0.26,-1.67,0.23,
0.149,-1.01,0.78,1.75,-0.26,-1.67,0.23,
0.149,-1.01,0.78,1.75,-0.23,-1.73,0.21,
0.15,-1.01,0.78,1.75,-0.21,-1.78,0.20,
0.153,-1.01,0.78,1.75,-0.19,-1.82,0.18,
0.154,-1.01,0.78,1.75,-0.17,-1.84,0.16,
0.157,-1.01,0.78,1.75,-0.16,-1.84,0.14,
0.159,-0.90,0.56,1.55,-0.16,-1.84,0.14,
0.159,-0.90,0.56,1.55,-0.15,-1.83,0.13,
0.16,-0.90,0.56,1.55,-0.14,-1.80,0.11,
0.163,-0.90,0.56,1.55,-0.15,-1.77,0.09,
0.164,-0.90,0.56,1.55,-0.15,-1.73,0.07,
0.167,-0.90,0.56,1.55,-0.17,-1.68,0.05,
0.169,-0.30,0.06,1.29,-0.17,-1.68,0.05,
0.169,-0.30,0.06,1.29,-0.20,-1.62,0.03,
0.171,-0.30,0.06,1.29,-0.23,-1.55,0.01,
0.175,-0.30,0.06,1.29,-0.26,-1.46,0.00,
0.175,-0.30,0.06,1.29,-0.30,-1.36,0.00,
0.177,-0.30,0.06,1.29,-0.34,-1.26,0.01,
0.179,0.35,-0.78,0.53,-0.34,-1.26,0.01,
0.179,0.35,-0.78,0.53,-0.38,-1.16,0.01,
0.181,0.35,-0.78,0.53,-0.40,-1.07,0.03,
0.183,0.35,-0.78,0.53,-0.42,-0.99,0.04,
0.184,0.35,-0.78,0.53,-0.44,-0.93,0.05,
0.186,0.35,-0.78,0.53,-0.46,-0.88,0.07,
0.189,0.68,-1.65,0.16,-0.46,-0.88,0.07,
0.189,0.68,-1.65,0.16,-0.47,-0.83,0.08,
0.191,0.68,-1.65,0.16,-0.47,-0.79,0.09,
0.193,0.68,-1.65,0.16,-0.49,-0.76,0.10,
0.195,0.68,-1.65,0.16,-0.49,-0.74,0.11,
0.197,0.68,-1.65,0.16,-0.49,-0.74,0.13,
0.199,0.78,-1.92,-0.41,-0.49,-0.74,0.13,
0.199,0.78,-1.92,-0.41,-0.49,-0.75,0.14,
0.2,0.78,-1.92,-0.41,-0.49,-0.77,0.16,
0.203,0.78,-1.92,-0.41,-0.49,-0.79,0.18,
0.205,0.78,-1.92,-0.41,-0.48,-0.81,0.20,
0.209,0.78,-1.92,-0.41,-0.48,-0.83,0.23,
0.21,0.32,-1.37,-0.86,-0.48,-0.83,0.23,
0.21,0.32,-1.37,-0.86,-0.48,-0.85,0.26,
0.21,0.32,-1.37,-0.86,-0.48,-0.87,0.30,
0.213,0.32,-1.37,-0.86,-0.48,-0.90,0.33,
0.217,0.32,-1.37,-0.86,-0.49,-0.92,0.37,
0.219,0.32,-1.37,-0.86,-0.51,-0.94,0.40,
0.219,-0.37,-0.60,-1.35,-0.51,-0.94,0.40,
0.22,-0.37,-0.60,-1.35,-0.52,-0.96,0.43,
0.221,-0.37,-0.60,-1.35,-0.55,-0.99,0.46,
0.23,-0.37,-0.60,-1.35,-0.58,-1.02,0.48,
0.231,-0.37,-0.60,-1.35,-0.61,-1.05,0.50,
0.231,-0.37,-0.60,-1.35,-0.64,-1.09,0.52,
0.232,-0.64,0.08,-1.60,-0.64,-1.09,0.52,
0.232,-0.64,0.08,-1.60,-0.68,-1.11,0.54,
0.25,-0.64,0.08,-1.60,-0.71,-1.13,0.55,
0.25,-0.64,0.08,-1.60,-0.74,-1.14,0.56,
0.25,-0.64,0.08,-1.60,-0.76,-1.14,0.57,
0.25,-0.64,0.08,-1.60,-0.78,-1.14,0.58,
0.251,-0.71,0.90,-0.99,-0.78,-1.14,0.58,
0.251,-0.71,0.90,-0.99,-0.80,-1.14,0.59,
0.251,-0.71,0.90,-0.99,-0.82,-1.13,0.60,
0.251,-0.71,0.90,-0.99,-0.83,-1.13,0.61,
0.251,-0.71,0.90,-0.99,-0.83,-1.12,0.62,
0.252,-0.71,0.90,-0.99,-0.84,-1.11,0.64,
0.252,-0.90,1.70,-0.15,-0.84,-1.11,0.64,
0.252,-0.90,1.70,-0.15,-0.84,-1.11,0.64,
0.253,-0.90,1.70,-0.15,-0.84,-1.09,0.65,
0.253,-0.90,1.70,-0.15,-0.84,-1.08,0.65,
0.259,-0.90,1.70,-0.15,-0.83,-1.06,0.66,
0.259,-0.90,1.70,-0.15,-0.83,-1.04,0.65,
0.26,-0.73,1.92,0.19,-0.83,-1.04,0.65,
0.26,-0.73,1.92,0.19,-0.83,-1.02,0.65,
0.27,-0.73,1.92,0.19,-0.83,-0.98,0.64,
0.27,-0.73,1.92,0.19,-0.82,-0.95,0.63,
0.271,-0.73,1.92,0.19,-0.81,-0.90,0.62,
0.271,-0.73,1.92,0.19,-0.79,-0.86,0.60,
0.271,-0.23,1.81,0.45,-0.79,-0.86,0.60,
0.272,-0.23,1.81,0.45,-0.77,-0.81,0.58,
0.272,-0.23,1.81,0.45,-0.76,-0.76,0.56,
0.274,-0.23,1.81,0.45,-0.74,-0.71,0.53,
0.276,-0.23,1.81,0.45,-0.72,-0.66,0.50,
0.277,-0.23,1.81,0.45,-0.70,-0.60,0.47,
0.279,0.43,1.52,0.79,-0.70,-0.60,0.47,
0.279,0.43,1.52,0.79,-0.67,-0.56,0.43,
0.281,0.43,1.52,0.79,-0.65,-0.52,0.40,
0.283,0.43,1.52,0.79,-0.63,-0.50,0.36,
0.286,0.43,1.52,0.79,-0.62,-0.49,0.33,
0.287,0.43,1.52,0.79,-0.60,-0.49,0.30,
0.291,1.03,1.08,0.43,-0.60,-0.49,0.30,
0.292,1.03,1.08,0.43,-0.58,-0.48,0.26,
0.292,1.03,1.08,0.43,-0.55,-0.48,0.22,
0.293,1.03,1.08,0.43,-0.54,-0.48,0.19,
0.295,1.03,1.08,0.43,-0.53,-0.49,0.15,
0.298,1.03,1.08,0.43,-0.52,-0.52,0.12,
0.299,1.26,0.75,-0.10,-0.52,-0.52,0.12,
0.299,1.26,0.75,-0.10,-0.52,-0.55,0.09,
0.309,1.26,0.75,-0.10,-0.51,-0.58,0.05,
0.309,1.26,0.75,-0.10,-0.52,-0.62,0.02,
0.309,1.26,0.75,-0.10,-0.54,-0.66,-0.01,
0.31,1.26,0.75,-0.10,-0.57,-0.71,-0.04,
0.31,1.13,0.55,-0.96,-0.57,-0.71,-0.04,
0.311,1.13,0.55,-0.96,-0.61,-0.74,-0.07,
0.314,1.13,0.55,-0.96,-0.66,-0.78,-0.09,
0.315,1.13,0.55,-0.96,-0.71,-0.79,-0.12,
0.315,1.13,0.55,-0.96,-0.76,-0.79,-0.13,
0.317,1.13,0.55,-0.96,-0.81,-0.75,-0.15,
0.322,0.60,0.46,-1.98,-0.81,-0.75,-0.15,
0.322,0.60,0.46,-1.98,-0.86,-0.70,-0.16,
0.322,0.60,0.46,-1.98,-0.91,-0.63,-0.17,
0.327,0.60,0.46,-1.98,-0.96,-0.54,-0.18,
0.327,0.60,0.46,-1.98,-1.00,-0.44,-0.18,
0.328,0.60,0.46,-1.98,-1.05,-0.33,-0.18,
0.335,-0.06,0.31,-2.73,-1.05,-0.33,-0.18,
0.335,-0.06,0.31,-2.73,-1.10,-0.22,-0.18,
0.336,-0.06,0.31,-2.73,-1.15,-0.10,-0.18,
0.338,-0.06,0.31,-2.73,-1.21,0.02,-0.18,
0.352,-0.06,0.31,-2.73,-1.27,0.15,-0.17,
0.352,-0.06,0.31,-2.73,-1.33,0.28,-0.16,
0.352,-0.60,-0.04,-3.42,-1.33,0.28,-0.16,
0.353,-0.60,-0.04,-3.42,-1.39,0.41,-0.15,
0.353,-0.60,-0.04,-3.42,-1.45,0.54,-0.14,
0.353,-0.60,-0.04,-3.42,-1.52,0.67,-0.13,
0.353,-0.60,-0.04,-3.42,-1.58,0.79,-0.12,
0.353,-0.60,-0.04,-3.42,-1.65,0.91,-0.11,
0.354,-0.96,-0.18,-3.79,-1.65,0.91,-0.11,
0.354,-0.96,-0.18,-3.79,-1.71,1.02,-0.10,
0.354,-0.96,-0.18,-3.79,-1.77,1.13,-0.09,
0.381,-0.96,-0.18,-3.79,-1.83,1.22,-0.09,
0.381,-0.96,-0.18,-3.79,-1.89,1.31,-0.08,
0.381,-0.96,-0.18,-3.79,-1.94,1.39,-0.08,
0.381,-1.22,-0.10,-3.45,-1.94,1.39,-0.08,
0.382,-1.22,-0.10,-3.45,-2.00,1.45,-0.08,
0.382,-1.22,-0.10,-3.45,-2.05,1.50,-0.07,
0.382,-1.22,-0.10,-3.45,-2.09,1.54,-0.07,
0.382,-1.22,-0.10,-3.45,-2.15,1.56,-0.07,
0.382,-1.22,-0.10,-3.45,-2.20,1.57,-0.08,
0.383,-1.43,0.15,-2.88,-2.20,1.57,-0.08,
0.383,-1.43,0.15,-2.88,-2.24,1.56,-0.08,
0.383,-1.43,0.15,-2.88,-2.29,1.55,-0.09,
0.383,-1.43,0.15,-2.88,-2.33,1.53,-0.09,
0.383,-1.43,0.15,-2.88,-2.38,1.49,-0.10,
0.383,-1.43,0.15,-2.88,-2.42,1.45,-0.11,
0.384,-1.47,0.34,-2.20,-2.42,1.45,-0.11,
0.384,-1.47,0.34,-2.20,-2.46,1.40,-0.12,
0.384,-1.47,0.34,-2.20,-2.49,1.34,-0.13,
0.384,-1.47,0.34,-2.20,-2.52,1.29,-0.14,
0.386,-1.47,0.34,-2.20,-2.56,1.23,-0.14,
0.387,-1.47,0.34,-2.20,-2.58,1.17,-0.15,
0.403,-2.09,0.70,-1.60,-2.58,1.17,-0.15,
0.404,-2.09,0.70,-1.60,-2.60,1.12,-0.15,
0.404,-2.09,0.70,-1.60,-2.61,1.07,-0.14,
0.404,-2.09,0.70,-1.60,-2.62,1.04,-0.14,
0.404,-2.09,0.70,-1.60,-2.63,1.03,-0.13,
0.404,-2.09,0.70,-1.60,-2.63,1.03,-0.11,
0.422,-3.13,1.30,-0.87,-2.63,1.03,-0.11,
0.423,-3.13,1.30,-0.87,-2.62,1.04,-0.09,
0.423,-3.13,1.30,-0.87,-2.61,1.07,-0.07,
0.423,-3.13,1.30,-0.87,-2.59,1.09,-0.04,
0.424,-3.13,1.30,-0.87,-2.56,1.11,-0.01,
0.424,-3.13,1.30,-0.87,-2.52,1.13,0.02,
0.424,-4.06,2.20,0.08,-2.52,1.13,0.02,
0.425,-4.06,2.20,0.08,-2.48,1.15,0.06,
0.425,-4.06,2.20,0.08,-2.43,1.17,0.09,
0.425,-4.06,2.20,0.08,-2.38,1.17,0.12,
0.426,-4.06,2.20,0.08,-2.31,1.18,0.15,
0.426,-4.06,2.20,0.08,-2.23,1.19,0.18,
0.426,-3.30,2.62,1.29,-2.23,1.19,0.18,
0.427,-3.30,2.62,1.29,-2.15,1.21,0.20,
0.427,-3.30,2.62,1.29,-2.07,1.22,0.22,
0.427,-3.30,2.62,1.29,-1.99,1.24,0.24,
0.428,-3.30,2.62,1.29,-1.91,1.25,0.25,
0.428,-3.30,2.62,1.29,-1.84,1.25,0.26,
0.434,-1.76,2.11,1.53,-1.84,1.25,0.26,
0.434,-1.76,2.11,1.53,-1.76,1.24,0.27,
0.435,-1.76,2.11,1.53,-1.68,1.22,0.27,
0.435,-1.76,2.11,1.53,-1.61,1.19,0.26,
0.435,-1.76,2.11,1.53,-1.54,1.15,0.25,
0.437,-1.76,2.11,1.53,-1.47,1.09,0.23,
0.441,-0.08,1.10,1.43,-1.47,1.09,0.23,
0.443,-0.08,1.10,1.43,-1.40,1.03,0.21,
0.443,-0.08,1.10,1.43,-1.33,0.96,0.19,
0.444,-0.08,1.10,1.43,-1.25,0.89,0.17,
0.445,-0.08,1.10,1.43,-1.18,0.82,0.14,
0.447,-0.08,1.10,1.43,-1.10,0.74,0.12,
0.449,0.67,1.08,1.85,-1.10,0.74,0.12,
0.449,0.67,1.08,1.85,-1.02,0.67,0.10,
0.451,0.67,1.08,1.85,-0.94,0.61,0.08,
0.453,0.67,1.08,1.85,-0.85,0.55,0.06,
0.455,0.67,1.08,1.85,-0.77,0.49,0.04,
0.458,0.67,1.08,1.85,-0.68,0.43,0.02,
0.465,0.57,1.20,2.28,-0.68,0.43,0.02,
0.465,0.57,1.20,2.28,-0.60,0.38,0.00,
0.465,0.57,1.20,2.28,-0.52,0.34,-0.01,
0.469,0.57,1.20,2.28,-0.44,0.30,-0.03,
0.469,0.57,1.20,2.28,-0.36,0.26,-0.04,
0.469,0.57,1.20,2.28,-0.28,0.22,-0.05,
0.471,0.57,1.20,2.28,-0.20,0.19,-0.06,
0.471,0.33,1.00,2.27,-0.20,0.19,-0.06,
0.476,0.33,1.00,2.27,-0.13,0.15,-0.07,
0.477,0.33,1.00,2.27,-0.05,0.13,-0.07,
0.477,0.33,1.00,2.27,0.02,0.10,-0.08,
0.477,0.33,1.00,2.27,0.08,0.07,-0.07,
0.48,-0.04,0.88,2.06,0.08,0.07,-0.07,
0.48,-0.04,0.88,2.06,0.15,0.05,-0.07,
0.481,-0.04,0.88,2.06,0.22,0.02,-0.06,
0.483,-0.04,0.88,2.06,0.28,0.00,-0.05,
0.485,-0.04,0.88,2.06,0.33,-0.01,-0.03,
0.487,-0.04,0.88,2.06,0.39,-0.03,-0.01,
0.507,-0.65,0.84,1.57,0.39,-0.03,-0.01,
0.507,-0.65,0.84,1.57,0.44,-0.05,0.00,
0.508,-0.65,0.84,1.57,0.48,-0.06,0.03,
0.508,-0.65,0.84,1.57,0.52,-0.07,0.05,
0.508,-0.65,0.84,1.57,0.55,-0.08,0.07,
0.508,-0.65,0.84,1.57,0.58,-0.09,0.10,
0.508,-1.07,0.89,0.66,0.58,-0.09,0.10,
0.508,-1.07,0.89,0.66,0.60,-0.10,0.12,
0.509,-1.07,0.89,0.66,0.61,-0.10,0.15,
0.509,-1.07,0.89,0.66,0.62,-0.11,0.17,
0.509,-1.07,0.89,0.66,0.63,-0.11,0.20,
0.509,-1.07,0.89,0.66,0.64,-0.11,0.22,
0.511,-1.13,1.07,-0.23,0.64,-0.11,0.22,
0.511,-1.13,1.07,-0.23,0.64,-0.11,0.24,
0.511,-1.13,1.07,-0.23,0.64,-0.10,0.26,
0.513,-1.13,1.07,-0.23,0.63,-0.10,0.28,
0.515,-1.13,1.07,-0.23,0.63,-0.09,0.29,
0.518,-1.13,1.07,-0.23,0.63,-0.07,0.31,
0.523,-0.80,1.28,-0.81,0.63,-0.07,0.31,
0.523,-0.80,1.28,-0.81,0.62,-0.06,0.32,
0.523,-0.80,1.28,-0.81,0.61,-0.04,0.33,
0.524,-0.80,1.28,-0.81,0.60,-0.02,0.33,
0.527,-0.80,1.28,-0.81,0.59,-0.00,0.34,
0.528,-0.80,1.28,-0.81,0.58,0.02,0.34,
0.53,-0.38,1.52,-1.24,0.58,0.02,0.34,
0.531,-0.38,1.52,-1.24,0.57,0.03,0.34,
0.531,-0.38,1.52,-1.24,0.57,0.05,0.34,
0.537,-0.38,1.52,-1.24,0.55,0.07,0.33,
0.537,-0.38,1.52,-1.24,0.54,0.09,0.32,
0.538,-0.38,1.52,-1.24,0.53,0.11,0.31,
0.54,-0.02,1.65,-1.50,0.53,0.11,0.31,
0.54,-0.02,1.65,-1.50,0.51,0.13,0.30,
0.541,-0.02,1.65,-1.50,0.50,0.14,0.28,
0.543,-0.02,1.65,-1.50,0.48,0.16,0.26,
0.545,-0.02,1.65,-1.50,0.47,0.18,0.24,
0.547,-0.02,1.65,-1.50,0.46,0.20,0.22,
0.55,0.16,1.78,-1.62,0.46,0.20,0.22,
0.55,0.16,1.78,-1.62,0.44,0.22,0.20,
0.551,0.16,1.78,-1.62,0.43,0.24,0.18,
0.553,0.16,1.78,-1.62,0.41,0.26,0.16,
0.559,0.16,1.78,-1.62,0.40,0.29,0.14,
0.559,0.16,1.78,-1.62,0.38,0.31,0.12,
0.56,0.05,1.65,-1.67,0.38,0.31,0.12,
0.562,0.05,1.65,-1.67,0.36,0.33,0.10,
0.562,0.05,1.65,-1.67,0.34,0.36,0.09,
0.563,0.05,1.65,-1.67,0.32,0.37,0.07,
0.59,0.05,1.65,-1.67,0.29,0.39,0.06,
0.59,0.05,1.65,-1.67,0.27,0.40,0.05,
0.591,-0.34,1.46,-1.88,0.27,0.40,0.05,
0.591,-0.34,1.46,-1.88,0.24,0.41,0.05,
0.592,-0.34,1.46,-1.88,0.21,0.42,0.04,
0.592,-0.34,1.46,-1.88,0.18,0.43,0.03,
0.592,-0.34,1.46,-1.88,0.15,0.44,0.03,
0.593,-0.34,1.46,-1.88,0.13,0.44,0.03,
0.593,-0.58,1.11,-1.84,0.13,0.44,0.03,
0.594,-0.58,1.11,-1.84,0.11,0.45,0.03,
0.594,-0.58,1.11,-1.84,0.09,0.46,0.04,
0.595,-0.58,1.11,-1.84,0.08,0.47,0.05,
0.595,-0.58,1.11,-1.84,0.07,0.48,0.07,
0.595,-0.58,1.11,-1.84,0.07,0.48,0.09,
0.596,-1.27,1.02,-1.08,0.07,0.48,0.09,
0.596,-1.27,1.02,-1.08,0.07,0.49,0.11,
0.597,-1.27,1.02,-1.08,0.07,0.50,0.15,
0.597,-1.27,1.02,-1.08,0.08,0.51,0.20,
0.598,-1.27,1.02,-1.08,0.09,0.51,0.23,
0.598,-1.27,1.02,-1.08,0.09,0.51,0.25,
0.605,-1.74,0.76,-0.15,0.09,0.51,0.25,
0.606,-1.74,0.76,-0.15,0.10,0.51,0.29,
0.606,-1.74,0.76,-0.15,0.12,0.51,0.33,
0.606,-1.74,0.76,-0.15,0.13,0.51,0.37,
0.608,-1.74,0.76,-0.15,0.14,0.51,0.41,
0.608,-1.74,0.76,-0.15,0.15,0.50,0.44,
0.611,-1.54,0.58,0.56,0.15,0.50,0.44,
0.611,-1.54,0.58,0.56,0.17,0.50,0.48,
0.611,-1.54,0.58,0.56,0.19,0.49,0.51,
0.615,-1.54,0.58,0.56,0.20,0.48,0.53,
0.615,-1.54,0.58,0.56,0.22,0.47,0.56,
0.617,-1.54,0.58,0.56,0.23,0.46,0.58,
0.62,-0.76,0.59,1.18,0.23,0.46,0.58,
0.621,-0.76,0.59,1.18,0.24,0.44,0.59,
0.621,-0.76,0.59,1.18,0.25,0.42,0.60,
0.623,-0.76,0.59,1.18,0.26,0.40,0.60,
0.625,-0.76,0.59,1.18,0.27,0.38,0.60,
0.627,-0.76,0.59,1.18,0.27,0.35,0.60,
0.629,0.03,0.76,1.58,0.27,0.35,0.60,
0.63,0.03,0.76,1.58,0.28,0.32,0.59,
0.631,0.03,0.76,1.58,0.28,0.30,0.57,
0.633,0.03,0.76,1.58,0.28,0.27,0.55,
0.636,0.03,0.76,1.58,0.29,0.25,0.51,
0.637,0.03,0.76,1.58,0.29,0.23,0.48,
0.644,0.86,0.96,1.83,0.29,0.23,0.48,
0.645,0.86,0.96,1.83,0.29,0.21,0.43,
0.645,0.86,0.96,1.83,0.29,0.19,0.39,
0.646,0.86,0.96,1.83,0.29,0.18,0.34,
0.647,0.86,0.96,1.83,0.29,0.16,0.29,
0.647,0.86,0.96,1.83,0.29,0.14,0.24,
0.651,1.28,1.03,1.93,0.29,0.14,0.24,
0.651,1.28,1.03,1.93,0.29,0.12,0.19,
0.651,1.28,1.03,1.93,0.29,0.10,0.14,
0.653,1.28,1.03,1.93,0.30,0.08,0.09,
0.662,1.28,1.03,1.93,0.31,0.05,0.04,
0.663,1.28,1.03,1.93,0.31,0.02,-0.00,
0.663,1.18,0.85,2.15,0.31,0.02,-0.00,
0.663,1.18,0.85,2.15,0.32,0.00,-0.04,
0.663,1.18,0.85,2.15,0.34,-0.03,-0.07,
0.664,1.18,0.85,2.15,0.34,-0.06,-0.10,
0.665,1.18,0.85,2.15,0.36,-0.09,-0.12,
0.667,1.18,0.85,2.15,0.37,-0.12,-0.14,
0.669,0.72,0.56,2.41,0.37,-0.12,-0.14,
0.67,0.72,0.56,2.41,0.39,-0.15,-0.16,
0.671,0.72,0.56,2.41,0.41,-0.17,-0.17,
0.674,0.72,0.56,2.41,0.43,-0.19,-0.17,
0.676,0.72,0.56,2.41,0.46,-0.21,-0.17,
0.677,0.72,0.56,2.41,0.49,-0.21,-0.16,
0.68,0.10,0.20,2.66,0.49,-0.21,-0.16,
0.68,0.10,0.20,2.66,0.52,-0.22,-0.15,
0.681,0.10,0.20,2.66,0.55,-0.22,-0.14,
0.683,0.10,0.20,2.66,0.58,-0.22,-0.12,
0.686,0.10,0.20,2.66,0.61,-0.22,-0.10,
0.687,0.10,0.20,2.66,0.63,-0.21,-0.08,
0.69,-0.35,-0.05,2.63,0.63,-0.21,-0.08,
0.691,-0.35,-0.05,2.63,0.66,-0.21,-0.06,
0.691,-0.35,-0.05,2.63,0.69,-0.21,-0.04,
0.696,-0.35,-0.05,2.63,0.72,-0.21,-0.01,
0.696,-0.35,-0.05,2.63,0.74,-0.21,0.01,
0.696,-0.35,-0.05,2.63,0.76,-0.20,0.04,
0.7,-0.45,-0.14,2.32,0.76,-0.20,0.04,
0.7,-0.45,-0.14,2.32,0.78,-0.20,0.06,
0.701,-0.45,-0.14,2.32,0.81,-0.20,0.08,
0.703,-0.45,-0.14,2.32,0.83,-0.20,0.10,
0.707,-0.45,-0.14,2.32,0.85,-0.19,0.12,
0.707,-0.45,-0.14,2.32,0.87,-0.19,0.14,
0.71,-0.31,-0.10,1.89,0.87,-0.19,0.14,
0.71,-0.31,-0.10,1.89,0.89,-0.19,0.16,
0.711,-0.31,-0.10,1.89,0.90,-0.19,0.17,
0.713,-0.31,-0.10,1.89,0.92,-0.19,0.19,
0.715,-0.31,-0.10,1.89,0.93,-0.19,0.20,
0.717,-0.31,-0.10,1.89,0.95,-0.19,0.21,
0.719,-0.11,0.00,1.34,0.95,-0.19,0.21,
0.719,-0.11,0.00,1.34,0.96,-0.19,0.21,
0.722,-0.11,0.00,1.34,0.97,-0.20,0.22,
0.723,-0.11,0.00,1.34,0.98,-0.20,0.22,
0.726,-0.11,0.00,1.34,0.98,-0.20,0.22,
0.727,-0.11,0.00,1.34,0.99,-0.21,0.22,
0.731,0.11,0.13,0.75,0.99,-0.21,0.22,
0.731,0.11,0.13,0.75,1.00,-0.21,0.22,
0.748,0.11,0.13,0.75,1.00,-0.21,0.21,
0.748,0.11,0.13,0.75,1.00,-0.21,0.21,
0.748,0.11,0.13,0.75,1.00,-0.21,0.20,
0.749,0.11,0.13,0.75,1.00,-0.21,0.20,
0.749,0.29,0.23,0.17,1.00,-0.21,0.20,
0.75,0.29,0.23,0.17,0.99,-0.22,0.19,
0.75,0.29,0.23,0.17,0.98,-0.22,0.18,
0.75,0.29,0.23,0.17,0.97,-0.22,0.17,
0.75,0.29,0.23,0.17,0.96,-0.23,0.16,
0.752,0.29,0.23,0.17,0.95,-0.23,0.15,
0.752,0.40,0.35,-0.29,0.95,-0.23,0.15,
0.752,0.40,0.35,-0.29,0.94,-0.23,0.14,
0.753,0.40,0.35,-0.29,0.93,-0.24,0.13,
0.753,0.40,0.35,-0.29,0.91,-0.25,0.13,
0.758,0.40,0.35,-0.29,0.89,-0.25,0.12,
0.758,0.40,0.35,-0.29,0.87,-0.26,0.11,
0.762,0.30,0.39,-0.64,0.87,-0.26,0.11,
0.762,0.30,0.39,-0.64,0.85,-0.27,0.10,
0.762,0.30,0.39,-0.64,0.83,-0.28,0.10,
0.763,0.30,0.39,-0.64,0.80,-0.29,0.09,
0.765,0.30,0.39,-0.64,0.78,-0.31,0.09,
0.767,0.30,0.39,-0.64,0.75,-0.33,0.08,
0.769,0.21,0.44,-0.90,0.75,-0.33,0.08,
0.77,0.21,0.44,-0.90,0.72,-0.34,0.07,
0.783,0.21,0.44,-0.90,0.70,-0.36,0.07,
0.783,0.21,0.44,-0.90,0.67,-0.38,0.06,
0.784,0.21,0.44,-0.90,0.64,-0.40,0.05,
0.784,0.21,0.44,-0.90,0.62,-0.42,0.05,
0.784,0.19,0.47,-0.85,0.62,-0.42,0.05,
0.785,0.19,0.47,-0.85,0.59,-0.45,0.04,
0.785,0.19,0.47,-0.85,0.56,-0.47,0.03,
0.785,0.19,0.47,-0.85,0.54,-0.49,0.03,
0.785,0.19,0.47,-0.85,0.52,-0.51,0.02,
0.787,0.19,0.47,-0.85,0.50,-0.54,0.01,
0.794,0.21,0.53,-0.52,0.50,-0.54,0.01,
0.794,0.21,0.53,-0.52,0.47,-0.55,-0.00,
0.794,0.21,0.53,-0.52,0.46,-0.56,-0.01,
0.799,0.21,0.53,-0.52,0.44,-0.57,-0.02,
0.799,0.21,0.53,-0.52,0.43,-0.58,-0.03,
0.799,0.21,0.53,-0.52,0.42,-0.59,-0.04,
0.799,0.10,0.60,-0.00,0.42,-0.59,-0.04,
0.832,0.10,0.60,-0.00,0.41,-0.59,-0.04,
0.833,0.10,0.60,-0.00,0.40,-0.60,-0.05,
0.833,0.10,0.60,-0.00,0.39,-0.60,-0.05,
0.834,0.10,0.60,-0.00,0.38,-0.61,-0.06,
0.834,0.10,0.60,-0.00,0.36,-0.62,-0.06,
0.834,0.02,0.76,0.24,0.36,-0.62,-0.06,
0.834,0.02,0.76,0.24,0.35,-0.63,-0.07,
0.835,0.02,0.76,0.24,0.33,-0.65,-0.08,
0.835,0.02,0.76,0.24,0.30,-0.67,-0.08,
0.835,0.02,0.76,0.24,0.28,-0.70,-0.09,
0.835,0.02,0.76,0.24,0.25,-0.73,-0.10,
0.836,0.20,0.77,0.17,0.25,-0.73,-0.10,
0.836,0.20,0.77,0.17,0.21,-0.77,-0.11,
0.836,0.20,0.77,0.17,0.18,-0.81,-0.12,
0.836,0.20,0.77,0.17,0.14,-0.86,-0.14,
0.836,0.20,0.77,0.17,0.10,-0.90,-0.15,
0.837,0.20,0.77,0.17,0.06,-0.94,-0.17,
0.837,0.51,0.65,0.38,0.06,-0.94,-0.17,
0.837,0.51,0.65,0.38,0.02,-0.98,-0.19,
0.837,0.51,0.65,0.38,-0.01,-1.02,-0.21,
0.838,0.51,0.65,0.38,-0.04,-1.05,-0.24,
0.838,0.51,0.65,0.38,-0.07,-1.07,-0.27,
0.838,0.51,0.65,0.38,-0.10,-1.10,-0.29,
0.845,0.85,0.40,1.14,-0.10,-1.10,-0.29,
0.846,0.85,0.40,1.14,-0.12,-1.12,-0.32,
0.846,0.85,0.40,1.14,-0.13,-1.13,-0.35,
0.847,0.85,0.40,1.14,-0.14,-1.14,-0.38,
0.847,0.85,0.40,1.14,-0.15,-1.14,-0.40,
0.847,0.85,0.40,1.14,-0.15,-1.14,-0.43,
0.85,1.06,0.15,2.14,-0.15,-1.14,-0.43,
0.851,1.06,0.15,2.14,-0.16,-1.14,-0.46,
0.851,1.06,0.15,2.14,-0.16,-1.13,-0.48,
0.855,1.06,0.15,2.14,-0.15,-1.12,-0.51,
0.855,1.06,0.15,2.14,-0.15,-1.11,-0.53,
0.857,1.06,0.15,2.14,-0.15,-1.10,-0.56,
0.859,1.28,-0.09,2.80,-0.15,-1.10,-0.56,
0.859,1.28,-0.09,2.80,-0.15,-1.08,-0.58,
0.861,1.28,-0.09,2.80,-0.14,-1.06,-0.61,
0.863,1.28,-0.09,2.80,-0.14,-1.04,-0.63,
0.865,1.28,-0.09,2.80,-0.14,-1.02,-0.66,
0.867,1.28,-0.09,2.80,-0.13,-0.99,-0.68,
0.871,1.47,-0.56,3.12,-0.13,-0.99,-0.68,
0.871,1.47,-0.56,3.12,-0.13,-0.96,-0.70,
0.872,1.47,-0.56,3.12,-0.12,-0.93,-0.72,
0.873,1.47,-0.56,3.12,-0.12,-0.89,-0.74,
0.875,1.47,-0.56,3.12,-0.11,-0.86,-0.75,
0.877,1.47,-0.56,3.12,-0.10,-0.81,-0.77,
0.879,1.31,-0.93,3.21,-0.10,-0.81,-0.77,
0.879,1.31,-0.93,3.21,-0.09,-0.76,-0.78,
0.881,1.31,-0.93,3.21,-0.09,-0.71,-0.78,
0.883,1.31,-0.93,3.21,-0.07,-0.65,-0.79,
0.885,1.31,-0.93,3.21,-0.06,-0.59,-0.79,
0.889,1.31,-0.93,3.21,-0.05,-0.53,-0.79,
0.89,0.87,-1.24,3.10,-0.05,-0.53,-0.79,
0.89,0.87,-1.24,3.10,-0.03,-0.46,-0.79,
0.892,0.87,-1.24,3.10,-0.02,-0.40,-0.78,
0.894,0.87,-1.24,3.10,-0.00,-0.34,-0.77,
0.895,0.87,-1.24,3.10,0.01,-0.28,-0.76,
0.898,0.87,-1.24,3.10,0.03,-0.21,-0.74,
0.916,0.29,-1.47,2.71,0.03,-0.21,-0.74,
0.916,0.29,-1.47,2.71,0.04,-0.16,-0.72,
0.917,0.29,-1.47,2.71,0.06,-0.11,-0.70,
0.917,0.29,-1.47,2.71,0.07,-0.05,-0.68,
0.917,0.29,-1.47,2.71,0.08,-0.01,-0.66,
0.918,0.29,-1.47,2.71,0.09,0.04,-0.64,
0.918,-0.16,-1.66,2.16,0.09,0.04,-0.64,
0.918,-0.16,-1.66,2.16,0.11,0.08,-0.62,
0.918,-0.16,-1.66,2.16,0.11,0.12,-0.59,
0.919,-0.16,-1.66,2.16,0.12,0.15,-0.57,
0.919,-0.16,-1.66,2.16,0.13,0.18,-0.54,
0.919,-0.16,-1.66,2.16,0.14,0.20,-0.52,
0.919,-0.49,-1.55,1.52,0.14,0.20,-0.52,
0.92,-0.49,-1.55,1.52,0.15,0.23,-0.49,
0.931,-0.49,-1.55,1.52,0.16,0.25,-0.47,
0.931,-0.49,-1.55,1.52,0.17,0.26,-0.45,
0.932,-0.49,-1.55,1.52,0.18,0.26,-0.43,
0.932,-0.49,-1.55,1.52,0.18,0.26,-0.41,
0.932,-0.62,-1.48,1.19,0.18,0.26,-0.41,
0.932,-0.62,-1.48,1.19,0.19,0.25,-0.40,
0.932,-0.62,-1.48,1.19,0.21,0.25,-0.39,
0.952,-0.62,-1.48,1.19,0.22,0.23,-0.38,
0.952,-0.62,-1.48,1.19,0.23,0.21,-0.37,
0.953,-0.62,-1.48,1.19,0.24,0.19,-0.37,
0.953,-0.25,-1.64,0.95,0.24,0.19,-0.37,
0.953,-0.25,-1.64,0.95,0.25,0.17,-0.37,
0.953,-0.25,-1.64,0.95,0.26,0.14,-0.37,
0.953,-0.25,-1.64,0.95,0.27,0.09,-0.37,
0.953,-0.25,-1.64,0.95,0.28,0.05,-0.37,
0.953,-0.25,-1.64,0.95,0.29,0.03,-0.37,
0.953,0.03,-1.77,0.75,0.29,0.03,-0.37,
0.954,0.03,-1.77,0.75,0.29,-0.02,-0.38,
0.954,0.03,-1.77,0.75,0.30,-0.07,-0.38,
0.954,0.03,-1.77,0.75,0.31,-0.12,-0.38,
0.955,0.03,-1.77,0.75,0.31,-0.17,-0.39,
0.957,0.03,-1.77,0.75,0.32,-0.22,-0.39,
0.96,0.18,-1.65,0.62,0.32,-0.22,-0.39,
0.96,0.18,-1.65,0.62,0.32,-0.28,-0.40,
0.96,0.18,-1.65,0.62,0.33,-0.34,-0.41,
0.965,0.18,-1.65,0.62,0.34,-0.46,-0.43,
0.965,0.18,-1.65,0.62,0.34,-0.46,-0.43,
0.967,0.18,-1.65,0.62,0.34,-0.51,-0.43,
0.97,0.36,-1.69,0.61,0.34,-0.51,-0.43,
0.971,0.36,-1.69,0.61,0.35,-0.57,-0.44,
0.979,0.36,-1.69,0.61,0.35,-0.62,-0.45,
0.979,0.36,-1.69,0.61,0.36,-0.68,-0.47,
0.979,0.36,-1.69,0.61,0.36,-0.72,-0.48,
0.979,0.36,-1.69,0.61,0.37,-0.77,-0.49,
0.98,0.64,-1.73,0.61,0.37,-0.77,-0.49,
0.98,0.64,-1.73,0.61,0.37,-0.81,-0.50,
0.981,0.64,-1.73,0.61,0.38,-0.85,-0.51,
0.983,0.64,-1.73,0.61,0.38,-0.89,-0.52,
0.985,0.64,-1.73,0.61,0.39,-0.92,-0.54,
0.988,0.64,-1.73,0.61,0.39,-0.94,-0.55,
0.99,0.99,-1.78,0.67,0.39,-0.94,-0.55,
0.99,0.99,-1.78,0.67,0.39,-0.97,-0.56,
0.992,0.99,-1.78,0.67,0.40,-0.99,-0.57,
0.994,0.99,-1.78,0.67,0.40,-1.00,-0.58,
0.997,0.99,-1.78,0.67,0.40,-1.02,-0.59,
0.997,0.99,-1.78,0.67,0.41,-1.03,-0.60,
0.999,1.23,-1.77,0.59,0.41,-1.03,-0.60,
0.999,1.23,-1.77,0.59,0.41,-1.03,-0.62,
1.0,1.23,-1.77,0.59,0.41,-1.03,-0.63,
1.003,1.23,-1.77,0.59,0.41,-1.03,-0.64,
1.005,1.23,-1.77,0.59,0.41,-1.03,-0.65,
1.007,1.23,-1.77,0.59,0.41,-1.02,-0.66,
1.009,1.39,-1.84,0.42,0.41,-1.02,-0.66,
1.009,1.39,-1.84,0.42,0.41,-1.01,-0.67,
1.01,1.39,-1.84,0.42,0.41,-1.00,-0.68,
1.013,1.39,-1.84,0.42,0.41,-0.99,-0.69,
1.014,1.39,-1.84,0.42,0.41,-0.98,-0.70,
1.017,1.39,-1.84,0.42,0.41,-0.97,-0.70,
1.019,1.40,-1.83,0.11,0.41,-0.97,-0.70,
1.02,1.40,-1.83,0.11,0.40,-0.95,-0.71,
1.021,1.40,-1.83,0.11,0.40,-0.93,-0.72,
1.023,1.40,-1.83,0.11,0.39,-0.90,-0.72,
1.025,1.40,-1.83,0.11,0.38,-0.88,-0.73,
1.026,1.40,-1.83,0.11,0.38,-0.85,-0.74,
1.029,1.37,-1.77,-0.30,0.38,-0.85,-0.74,
1.029,1.37,-1.77,-0.30,0.37,-0.83,-0.74,
1.031,1.37,-1.77,-0.30,0.36,-0.80,-0.75,
1.033,1.37,-1.77,-0.30,0.34,-0.77,-0.75,
1.035,1.37,-1.77,-0.30,0.33,-0.74,-0.75,
1.039,1.37,-1.77,-0.30,0.32,-0.72,-0.76,
1.04,1.19,-1.63,-0.91,0.32,-0.72,-0.76,
1.041,1.19,-1.63,-0.91,0.30,-0.69,-0.76,
1.041,1.19,-1.63,-0.91,0.29,-0.66,-0.77,
1.043,1.19,-1.63,-0.91,0.27,-0.64,-0.77,
1.045,1.19,-1.63,-0.91,0.25,-0.61,-0.77,
1.047,1.19,-1.63,-0.91,0.23,-0.59,-0.77,
1.049,1.01,-1.49,-1.47,0.23,-0.59,-0.77,
1.05,1.01,-1.49,-1.47,0.21,-0.57,-0.77,
1.051,1.01,-1.49,-1.47,0.19,-0.54,-0.78,
1.064,1.01,-1.49,-1.47,0.17,-0.52,-0.78,
1.066,1.01,-1.49,-1.47,0.15,-0.50,-0.78,
1.066,1.01,-1.49,-1.47,0.13,-0.47,-0.78,
1.067,0.70,-1.32,-2.03,0.13,-0.47,-0.78,
1.067,0.70,-1.32,-2.03,0.11,-0.45,-0.78,
1.068,0.70,-1.32,-2.03,0.09,-0.43,-0.77,
1.068,0.70,-1.32,-2.03,0.07,-0.41,-0.77,
1.093,0.70,-1.32,-2.03,0.05,-0.39,-0.77,
1.093,0.70,-1.32,-2.03,0.03,-0.37,-0.77,
1.094,0.52,-1.14,-2.49,0.03,-0.37,-0.77,
1.094,0.52,-1.14,-2.49,0.01,-0.35,-0.77,
1.094,0.52,-1.14,-2.49,-0.00,-0.34,-0.77,
1.095,0.52,-1.14,-2.49,-0.03,-0.32,-0.77,
1.095,0.52,-1.14,-2.49,-0.04,-0.30,-0.77,
1.096,0.52,-1.14,-2.49,-0.06,-0.29,-0.77,
1.096,0.42,-1.03,-2.80,-0.06,-0.29,-0.77,
1.096,0.42,-1.03,-2.80,-0.08,-0.27,-0.78,
1.097,0.42,-1.03,-2.80,-0.10,-0.26,-0.78,
1.097,0.42,-1.03,-2.80,-0.12,-0.25,-0.78,
1.098,0.42,-1.03,-2.80,-0.13,-0.25,-0.79,
1.098,0.42,-1.03,-2.80,-0.15,-0.24,-0.80,
1.099,0.55,-1.05,-3.06,-0.15,-0.24,-0.80,
1.099,0.55,-1.05,-3.06,-0.17,-0.24,-0.81,
1.099,0.55,-1.05,-3.06,-0.19,-0.23,-0.82,
1.1,0.55,-1.05,-3.06,-0.21,-0.23,-0.83,
1.1,0.55,-1.05,-3.06,-0.23,-0.23,-0.84,
1.101,0.55,-1.05,-3.06,-0.24,-0.23,-0.85,
1.101,0.61,-0.83,-3.17,-0.24,-0.23,-0.85,
1.102,0.61,-0.83,-3.17,-0.26,-0.23,-0.86,
1.102,0.61,-0.83,-3.17,-0.27,-0.23,-0.88,
1.111,0.61,-0.83,-3.17,-0.29,-0.23,-0.89,
1.112,0.61,-0.83,-3.17,-0.30,-0.23,-0.91,
1.113,0.61,-0.83,-3.17,-0.32,-0.23,-0.93,
1.113,0.62,-0.54,-3.22,-0.32,-0.23,-0.93,
1.114,0.62,-0.54,-3.22,-0.33,-0.23,-0.94,
1.114,0.62,-0.54,-3.22,-0.34,-0.23,-0.96,
1.114,0.62,-0.54,-3.22,-0.35,-0.22,-0.98,
1.115,0.62,-0.54,-3.22,-0.36,-0.22,-0.99,
1.117,0.62,-0.54,-3.22,-0.38,-0.22,-1.01,
1.12,0.49,-0.41,-3.24,-0.38,-0.22,-1.01,
1.121,0.49,-0.41,-3.24,-0.39,-0.22,-1.02,
1.122,0.49,-0.41,-3.24,-0.40,-0.23,-1.04,
1.124,0.49,-0.41,-3.24,-0.41,-0.23,-1.05,
1.125,0.49,-0.41,-3.24,-0.42,-0.23,-1.06,
1.127,0.49,-0.41,-3.24,-0.43,-0.24,-1.07,
1.129,0.20,-0.36,-3.20,-0.43,-0.24,-1.07,
1.13,0.20,-0.36,-3.20,-0.44,-0.25,-1.07,
1.131,0.20,-0.36,-3.20,-0.45,-0.25,-1.08,
1.134,0.20,-0.36,-3.20,-0.46,-0.26,-1.08,
1.135,0.20,-0.36,-3.20,-0.47,-0.27,-1.08,
1.137,0.20,-0.36,-3.20,-0.48,-0.28,-1.08,
1.141,-0.12,-0.31,-3.02,-0.48,-0.28,-1.08,
1.141,-0.12,-0.31,-3.02,-0.49,-0.29,-1.08,
1.142,-0.12,-0.31,-3.02,-0.50,-0.30,-1.08,
1.143,-0.12,-0.31,-3.02,-0.50,-0.31,-1.08,
1.145,-0.12,-0.31,-3.02,-0.51,-0.32,-1.07,
1.147,-0.12,-0.31,-3.02,-0.52,-0.33,-1.07,
1.15,-0.39,-0.30,-2.69,-0.52,-0.33,-1.07,
1.15,-0.39,-0.30,-2.69,-0.53,-0.35,-1.06,
1.151,-0.39,-0.30,-2.69,-0.53,-0.36,-1.06,
1.154,-0.39,-0.30,-2.69,-0.53,-0.38,-1.05,
1.155,-0.39,-0.30,-2.69,-0.54,-0.40,-1.05,
1.157,-0.39,-0.30,-2.69,-0.54,-0.42,-1.04,
1.16,-0.53,-0.33,-2.14,-0.54,-0.42,-1.04,
1.161,-0.53,-0.33,-2.14,-0.54,-0.43,-1.03,
1.161,-0.53,-0.33,-2.14,-0.54,-0.45,-1.03,
1.163,-0.53,-0.33,-2.14,-0.53,-0.46,-1.02,
1.165,-0.53,-0.33,-2.14,-0.53,-0.47,-1.01,
1.167,-0.53,-0.33,-2.14,-0.52,-0.49,-1.00,
1.181,-0.68,-0.28,-1.47,-0.52,-0.49,-1.00,
1.181,-0.68,-0.28,-1.47,-0.51,-0.50,-0.99,
1.181,-0.68,-0.28,-1.47,-0.49,-0.51,-0.98,
1.181,-0.68,-0.28,-1.47,-0.48,-0.52,-0.97,
1.182,-0.68,-0.28,-1.47,-0.46,-0.52,-0.96,
1.182,-0.68,-0.28,-1.47,-0.44,-0.53,-0.95,
1.182,-0.79,-0.20,-0.86,-0.44,-0.53,-0.95,
1.182,-0.79,-0.20,-0.86,-0.43,-0.53,-0.93,
1.182,-0.79,-0.20,-0.86,-0.41,-0.53,-0.92,
1.184,-0.79,-0.20,-0.86,-0.39,-0.53,-0.90,
1.206,-0.79,-0.20,-0.86,-0.37,-0.53,-0.89,
1.206,-0.79,-0.20,-0.86,-0.35,-0.53,-0.87,
1.206,-0.74,-0.07,-0.46,-0.35,-0.53,-0.87,
1.206,-0.74,-0.07,-0.46,-0.34,-0.53,-0.86,
1.207,-0.74,-0.07,-0.46,-0.32,-0.53,-0.85,
1.207,-0.74,-0.07,-0.46,-0.30,-0.52,-0.83,
1.207,-0.74,-0.07,-0.46,-0.28,-0.51,-0.82,
1.207,-0.74,-0.07,-0.46,-0.27,-0.51,-0.81,
1.207,-0.60,0.07,-0.26,-0.27,-0.51,-0.81,
1.208,-0.60,0.07,-0.26,-0.25,-0.50,-0.80,
1.208,-0.60,0.07,-0.26,-0.24,-0.50,-0.78,
1.208,-0.60,0.07,-0.26,-0.23,-0.49,-0.77,
1.208,-0.60,0.07,-0.26,-0.21,-0.49,-0.76,
1.208,-0.60,0.07,-0.26,-0.20,-0.48,-0.76,
1.21,-0.44,0.22,-0.13,-0.20,-0.48,-0.76,
1.21,-0.44,0.22,-0.13,-0.19,-0.48,-0.75,
1.21,-0.44,0.22,-0.13,-0.18,-0.47,-0.75,
1.213,-0.44,0.22,-0.13,-0.17,-0.46,-0.74,
1.214,-0.44,0.22,-0.13,-0.16,-0.46,-0.74,
1.216,-0.44,0.22,-0.13,-0.15,-0.45,-0.74,
1.221,-0.18,0.39,0.00,-0.15,-0.45,-0.74,
1.222,-0.18,0.39,0.00,-0.14,-0.45,-0.74,
1.222,-0.18,0.39,0.00,-0.13,-0.44,-0.74,
1.224,-0.18,0.39,0.00,-0.12,-0.43,-0.74,
1.225,-0.18,0.39,0.00,-0.12,-0.42,-0.75,
1.227,-0.18,0.39,0.00,-0.11,-0.41,-0.75,
1.229,-0.07,0.52,0.13,-0.11,-0.41,-0.75,
1.23,-0.07,0.52,0.13,-0.10,-0.40,-0.76,
1.253,-0.07,0.52,0.13,-0.10,-0.39,-0.76,
1.253,-0.07,0.52,0.13,-0.09,-0.38,-0.77,
1.254,-0.07,0.52,0.13,-0.09,-0.37,-0.77,
1.254,-0.07,0.52,0.13,-0.08,-0.36,-0.77,
1.254,-0.14,0.54,0.17,-0.08,-0.36,-0.77,
1.254,-0.14,0.54,0.17,-0.08,-0.35,-0.78,
1.255,-0.14,0.54,0.17,-0.08,-0.34,-0.78,
1.255,-0.14,0.54,0.17,-0.08,-0.34,-0.78,
1.255,-0.14,0.54,0.17,-0.08,-0.33,-0.78,
1.255,-0.14,0.54,0.17,-0.08,-0.33,-0.78,
1.256,-0.36,0.54,0.24,-0.08,-0.33,-0.78,
1.256,-0.36,0.54,0.24,-0.08,-0.33,-0.78,
1.256,-0.36,0.54,0.24,-0.08,-0.32,-0.77,
1.256,-0.36,0.54,0.24,-0.09,-0.32,-0.76,
1.257,-0.36,0.54,0.24,-0.09,-0.31,-0.76,
1.262,-0.36,0.54,0.24,-0.09,-0.31,-0.75,
1.262,-0.49,0.49,0.34,-0.09,-0.31,-0.75,
1.262,-0.49,0.49,0.34,-0.09,-0.30,-0.74,
1.264,-0.49,0.49,0.34,-0.09,-0.29,-0.73,
1.264,-0.49,0.49,0.34,-0.09,-0.28,-0.72,
1.268,-0.49,0.49,0.34,-0.09,-0.26,-0.71,
1.271,-0.49,0.49,0.34,-0.08,-0.25,-0.70,
1.271,-0.60,0.46,0.51,-0.08,-0.25,-0.70,
1.272,-0.60,0.46,0.51,-0.08,-0.24,-0.69,
1.272,-0.60,0.46,0.51,-0.08,-0.22,-0.68,
1.273,-0.60,0.46,0.51,-0.07,-0.21,-0.66,
1.275,-0.60,0.46,0.51,-0.06,-0.19,-0.65,
1.277,-0.60,0.46,0.51,-0.05,-0.18,-0.64,
1.283,-0.71,0.44,0.77,-0.05,-0.18,-0.64,
1.283,-0.71,0.44,0.77,-0.04,-0.16,-0.62,
1.283,-0.71,0.44,0.77,-0.03,-0.14,-0.61,
1.284,-0.71,0.44,0.77,-0.02,-0.12,-0.59,
1.286,-0.71,0.44,0.77,-0.00,-0.10,-0.58,
1.287,-0.71,0.44,0.77,0.01,-0.08,-0.56,
1.29,-0.76,0.51,0.96,0.01,-0.08,-0.56,
1.291,-0.76,0.51,0.96,0.03,-0.05,-0.55,
1.292,-0.76,0.51,0.96,0.04,-0.03,-0.54,
1.294,-0.76,0.51,0.96,0.07,0.01,-0.52,
1.295,-0.76,0.51,0.96,0.08,0.03,-0.51,
1.297,-0.76,0.51,0.96,0.09,0.04,-0.50,
1.299,-0.71,0.51,0.96,0.09,0.04,-0.50,
1.3,-0.71,0.51,0.96,0.11,0.05,-0.49,
1.301,-0.71,0.51,0.96,0.12,0.07,-0.48,
1.303,-0.71,0.51,0.96,0.14,0.08,-0.47,
1.306,-0.71,0.51,0.96,0.15,0.10,-0.46,
1.308,-0.71,0.51,0.96,0.17,0.11,-0.45,
1.31,-0.85,0.50,0.96,0.17,0.11,-0.45,
1.31,-0.85,0.50,0.96,0.18,0.12,-0.44,
1.312,-0.85,0.50,0.96,0.19,0.13,-0.43,
1.313,-0.85,0.50,0.96,0.21,0.14,-0.42,
1.317,-0.85,0.50,0.96,0.22,0.15,-0.41,
1.318,-0.85,0.50,0.96,0.24,0.15,-0.40,
1.33,-0.95,0.51,0.88,0.24,0.15,-0.40,
1.331,-0.95,0.51,0.88,0.25,0.15,-0.39,
1.331,-0.95,0.51,0.88,0.26,0.15,-0.38,
1.331,-0.95,0.51,0.88,0.27,0.15,-0.37,
1.331,-0.95,0.51,0.88,0.27,0.14,-0.37,
1.332,-0.95,0.51,0.88,0.28,0.13,-0.36,
1.332,-1.06,0.49,0.76,0.28,0.13,-0.36,
1.332,-1.06,0.49,0.76,0.29,0.12,-0.35,
1.333,-1.06,0.49,0.76,0.29,0.11,-0.34,
1.334,-1.06,0.49,0.76,0.30,0.09,-0.33,
1.364,-1.06,0.49,0.76,0.30,0.08,-0.32,
1.365,-1.06,0.49,0.76,0.31,0.05,-0.31,
1.365,-1.03,0.50,0.84,0.31,0.05,-0.31,
1.365,-1.03,0.50,0.84,0.32,0.03,-0.31,
1.365,-1.03,0.50,0.84,0.32,0.01,-0.31,
1.365,-1.03,0.50,0.84,0.32,-0.01,-0.30,
1.366,-1.03,0.50,0.84,0.33,-0.03,-0.30,
1.366,-1.03,0.50,0.84,0.34,-0.05,-0.29,
1.366,-0.95,0.53,1.03,0.34,-0.05,-0.29,
1.366,-0.95,0.53,1.03,0.34,-0.06,-0.29,
1.366,-0.95,0.53,1.03,0.35,-0.08,-0.29,
1.366,-0.95,0.53,1.03,0.36,-0.10,-0.29,
1.367,-0.95,0.53,1.03,0.37,-0.11,-0.29,
1.367,-0.95,0.53,1.03,0.37,-0.12,-0.29,
1.367,-0.88,0.53,1.27,0.37,-0.12,-0.29,
1.367,-0.88,0.53,1.27,0.38,-0.13,-0.28,
1.367,-0.88,0.53,1.27,0.39,-0.14,-0.28,
1.368,-0.88,0.53,1.27,0.39,-0.16,-0.28,
1.369,-0.88,0.53,1.27,0.40,-0.17,-0.27,
1.371,-0.88,0.53,1.27,0.40,-0.18,-0.26,
1.371,-0.90,0.48,1.40,0.40,-0.18,-0.26,
1.371,-0.90,0.48,1.40,0.41,-0.19,-0.26,
1.372,-0.90,0.48,1.40,0.41,-0.20,-0.25,
1.374,-0.90,0.48,1.40,0.41,-0.21,-0.24,
1.375,-0.90,0.48,1.40,0.42,-0.22,-0.24,
1.377,-0.90,0.48,1.40,0.41,-0.22,-0.23,
1.379,-0.83,0.44,1.43,0.41,-0.22,-0.23,
1.38,-0.83,0.44,1.43,0.41,-0.23,-0.22,
1.381,-0.83,0.44,1.43,0.41,-0.23,-0.21,
1.384,-0.83,0.44,1.43,0.41,-0.23,-0.21,
1.389,-0.83,0.44,1.43,0.41,-0.23,-0.20,
1.39,-0.83,0.44,1.43,0.41,-0.23,-0.19,
1.39,-0.81,0.47,1.44,0.41,-0.23,-0.19,
1.39,-0.81,0.47,1.44,0.40,-0.22,-0.18,
1.391,-0.81,0.47,1.44,0.39,-0.20,-0.18,
1.393,-0.81,0.47,1.44,0.39,-0.19,-0.17,
1.396,-0.81,0.47,1.44,0.38,-0.17,-0.16,
1.397,-0.81,0.47,1.44,0.37,-0.15,-0.16,
1.425,-0.82,0.60,1.25,0.37,-0.15,-0.16,
1.425,-0.82,0.60,1.25,0.35,-0.13,-0.15,
1.425,-0.82,0.60,1.25,0.33,-0.11,-0.14,
1.426,-0.82,0.60,1.25,0.31,-0.09,-0.14,
1.426,-0.82,0.60,1.25,0.29,-0.08,-0.13,
1.426,-0.82,0.60,1.25,0.26,-0.07,-0.13,
1.427,-0.75,0.59,0.88,0.26,-0.07,-0.13,
1.427,-0.75,0.59,0.88,0.23,-0.06,-0.12,
1.427,-0.75,0.59,0.88,0.20,-0.06,-0.12,
1.427,-0.75,0.59,0.88,0.16,-0.07,-0.11,
1.428,-0.75,0.59,0.88,0.13,-0.07,-0.11,
1.428,-0.75,0.59,0.88,0.09,-0.08,-0.11,
1.428,-0.56,0.62,0.74,0.09,-0.08,-0.11,
1.428,-0.56,0.62,0.74,0.05,-0.09,-0.11,
1.429,-0.56,0.62,0.74,0.01,-0.10,-0.11,
1.429,-0.56,0.62,0.74,-0.02,-0.11,-0.11,
1.429,-0.56,0.62,0.74,-0.06,-0.12,-0.11,
1.43,-0.56,0.62,0.74,-0.10,-0.13,-0.11,
1.43,-0.33,0.70,1.03,-0.10,-0.13,-0.11,
1.43,-0.33,0.70,1.03,-0.13,-0.13,-0.11,
1.436,-0.33,0.70,1.03,-0.16,-0.14,-0.12,
1.437,-0.33,0.70,1.03,-0.19,-0.14,-0.13,
1.437,-0.33,0.70,1.03,-0.22,-0.13,-0.14,
1.438,-0.33,0.70,1.03,-0.25,-0.13,-0.15,
1.442,-0.16,0.73,1.55,-0.25,-0.13,-0.15,
1.442,-0.16,0.73,1.55,-0.27,-0.13,-0.16,
1.442,-0.16,0.73,1.55,-0.29,-0.12,-0.17,
1.443,-0.16,0.73,1.55,-0.31,-0.11,-0.18,
1.445,-0.16,0.73,1.55,-0.34,-0.11,-0.19,
1.447,-0.16,0.73,1.55,-0.35,-0.10,-0.20,
1.449,-0.13,0.71,2.08,-0.35,-0.10,-0.20,
1.45,-0.13,0.71,2.08,-0.37,-0.10,-0.21,
1.452,-0.13,0.71,2.08,-0.39,-0.10,-0.23,
1.453,-0.13,0.71,2.08,-0.41,-0.10,-0.24,
1.455,-0.13,0.71,2.08,-0.43,-0.10,-0.25,
1.457,-0.13,0.71,2.08,-0.45,-0.10,-0.26,
1.459,-0.14,0.52,2.44,-0.45,-0.10,-0.26,
1.459,-0.14,0.52,2.44,-0.47,-0.10,-0.26,
1.461,-0.14,0.52,2.44,-0.49,-0.10,-0.27,
1.463,-0.14,0.52,2.44,-0.50,-0.10,-0.28,
1.465,-0.14,0.52,2.44,-0.52,-0.10,-0.28,
1.474,-0.14,0.52,2.44,-0.53,-0.10,-0.28,
1.474,-0.14,0.52,2.44,-0.54,-0.09,-0.29,
1.474,-0.19,0.18,2.85,-0.54,-0.09,-0.29,
1.474,-0.19,0.18,2.85,-0.55,-0.09,-0.29,
1.475,-0.19,0.18,2.85,-0.55,-0.08,-0.29,
1.475,-0.19,0.18,2.85,-0.55,-0.07,-0.29,
1.477,-0.19,0.18,2.85,-0.55,-0.05,-0.28,
1.499,-0.23,-0.19,3.43,-0.55,-0.05,-0.28,
1.5,-0.23,-0.19,3.43,-0.54,-0.03,-0.27,
1.5,-0.23,-0.19,3.43,-0.53,0.00,-0.27,
1.5,-0.23,-0.19,3.43,-0.51,0.03,-0.26,
1.501,-0.23,-0.19,3.43,-0.49,0.07,-0.25,
1.501,-0.23,-0.19,3.43,-0.47,0.12,-0.24,
1.501,-0.52,-0.59,3.93,-0.47,0.12,-0.24,
1.501,-0.52,-0.59,3.93,-0.44,0.16,-0.22,
1.502,-0.52,-0.59,3.93,-0.40,0.24,-0.20,
1.502,-0.52,-0.59,3.93,-0.36,0.29,-0.18,
1.502,-0.52,-0.59,3.93,-0.28,0.42,-0.12,
1.502,-0.52,-0.59,3.93,-0.27,0.44,-0.10,
1.517,-0.52,-0.59,3.93,-0.25,0.46,-0.09,
1.517,-1.06,-1.00,3.79,-0.25,0.46,-0.09,
1.518,-1.06,-1.00,3.79,-0.23,0.48,-0.07,
1.518,-1.06,-1.00,3.79,-0.20,0.52,-0.04,
1.518,-1.06,-1.00,3.79,-0.17,0.56,-0.01,
1.518,-1.06,-1.00,3.79,-0.15,0.58,0.01,
1.518,-1.35,-1.12,3.49,-0.15,0.58,0.01,
1.518,-1.35,-1.12,3.49,-0.12,0.61,0.04,
1.519,-1.35,-1.12,3.49,-0.09,0.64,0.08,
1.519,-1.35,-1.12,3.49,-0.06,0.66,0.12,
1.519,-1.35,-1.12,3.49,-0.04,0.69,0.15,
1.519,-1.35,-1.12,3.49,-0.01,0.71,0.19,
1.521,-1.63,-1.20,2.70,-0.01,0.71,0.19,
1.521,-1.63,-1.20,2.70,0.01,0.72,0.22,
1.522,-1.63,-1.20,2.70,0.03,0.73,0.26,
1.523,-1.63,-1.20,2.70,0.05,0.74,0.29,
1.525,-1.63,-1.20,2.70,0.07,0.74,0.32,
1.527,-1.63,-1.20,2.70,0.09,0.75,0.35,
1.529,-1.78,-1.27,1.98,0.09,0.75,0.35,
1.529,-1.78,-1.27,1.98,0.10,0.75,0.38,
1.53,-1.78,-1.27,1.98,0.12,0.74,0.41,
1.533,-1.78,-1.27,1.98,0.14,0.73,0.44,
1.536,-1.78,-1.27,1.98,0.15,0.72,0.46,
1.54,-1.78,-1.27,1.98,0.17,0.71,0.49,
1.541,-1.76,-1.16,1.41,0.17,0.71,0.49,
1.542,-1.76,-1.16,1.41,0.18,0.69,0.51,
1.542,-1.76,-1.16,1.41,0.19,0.67,0.53,
1.543,-1.76,-1.16,1.41,0.21,0.64,0.55,
1.545,-1.76,-1.16,1.41,0.22,0.60,0.58,
1.547,-1.76,-1.16,1.41,0.23,0.58,0.59,
1.549,-1.81,-1.04,1.05,0.23,0.58,0.59,
1.55,-1.81,-1.04,1.05,0.24,0.54,0.61,
1.553,-1.81,-1.04,1.05,0.25,0.51,0.63,
1.554,-1.81,-1.04,1.05,0.26,0.48,0.64,
1.555,-1.81,-1.04,1.05,0.28,0.42,0.66,
1.557,-1.81,-1.04,1.05,0.28,0.40,0.67,
1.559,-1.72,-0.89,0.89,0.28,0.40,0.67,
1.56,-1.72,-0.89,0.89,0.30,0.37,0.68,
1.561,-1.72,-0.89,0.89,0.31,0.33,0.69,
1.563,-1.72,-0.89,0.89,0.32,0.30,0.70,
1.58,-1.72,-0.89,0.89,0.34,0.24,0.72,
1.581,-1.72,-0.89,0.89,0.34,0.22,0.72,
1.581,-1.69,-0.83,0.74,0.34,0.22,0.72,
1.581,-1.69,-0.83,0.74,0.35,0.18,0.73,
1.581,-1.69,-0.83,0.74,0.36,0.14,0.74,
1.582,-1.69,-0.83,0.74,0.38,0.11,0.75,
1.582,-1.69,-0.83,0.74,0.39,0.05,0.76,
1.582,-1.69,-0.83,0.74,0.40,0.03,0.76,
1.582,-1.61,-0.82,0.64,0.40,0.03,0.76,
1.583,-1.61,-0.82,0.64,0.41,-0.01,0.77,
1.583,-1.61,-0.82,0.64,0.43,-0.07,0.79,
1.583,-1.61,-0.82,0.64,0.44,-0.11,0.80,
1.587,-1.61,-0.82,0.64,0.45,-0.15,0.81,
1.587,-1.61,-0.82,0.64,0.45,-0.17,0.81,
1.59,-1.53,-0.85,0.60,0.45,-0.17,0.81,
1.59,-1.53,-0.85,0.60,0.47,-0.22,0.82,
1.591,-1.53,-0.85,0.60,0.47,-0.24,0.83,
1.593,-1.53,-0.85,0.60,0.49,-0.29,0.84,
1.595,-1.53,-0.85,0.60,0.50,-0.32,0.85,
1.596,-1.53,-0.85,0.60,0.50,-0.33,0.86,
1.599,-1.28,-0.79,0.60,0.50,-0.33,0.86,
1.599,-1.28,-0.79,0.60,0.51,-0.36,0.87,
1.601,-1.28,-0.79,0.60,0.52,-0.37,0.87,
1.603,-1.28,-0.79,0.60,0.52,-0.39,0.88,
1.605,-1.28,-0.79,0.60,0.53,-0.40,0.88,
1.607,-1.28,-0.79,0.60,0.53,-0.41,0.88,
1.609,-1.04,-0.73,0.56,0.53,-0.41,0.88,
1.609,-1.04,-0.73,0.56,0.53,-0.42,0.89,
1.61,-1.04,-0.73,0.56,0.53,-0.42,0.89,
1.613,-1.04,-0.73,0.56,0.53,-0.43,0.89,
1.614,-1.04,-0.73,0.56,0.53,-0.44,0.89,
1.62,-1.04,-0.73,0.56,0.52,-0.44,0.89,
1.62,-0.72,-0.67,0.39,0.52,-0.44,0.89,
1.62,-0.72,-0.67,0.39,0.52,-0.45,0.89,
1.621,-0.72,-0.67,0.39,0.51,-0.45,0.88,
1.629,-0.72,-0.67,0.39,0.50,-0.45,0.88,
1.629,-0.72,-0.67,0.39,0.50,-0.45,0.88,
1.63,-0.72,-0.67,0.39,0.48,-0.45,0.88,
1.63,-0.49,-0.66,0.23,0.48,-0.45,0.88,
1.63,-0.49,-0.66,0.23,0.48,-0.45,0.88,
1.631,-0.49,-0.66,0.23,0.47,-0.44,0.87,
1.634,-0.49,-0.66,0.23,0.46,-0.44,0.87,
1.635,-0.49,-0.66,0.23,0.46,-0.43,0.86,
1.637,-0.49,-0.66,0.23,0.44,-0.42,0.86,
1.639,-0.23,-0.60,0.16,0.44,-0.42,0.86,
1.639,-0.23,-0.60,0.16,0.44,-0.41,0.85,
1.641,-0.23,-0.60,0.16,0.43,-0.40,0.84,
1.643,-0.23,-0.60,0.16,0.42,-0.38,0.84,
1.645,-0.23,-0.60,0.16,0.41,-0.36,0.83,
1.646,-0.23,-0.60,0.16,0.40,-0.34,0.82,
1.649,-0.07,-0.63,0.03,0.40,-0.34,0.82,
1.649,-0.07,-0.63,0.03,0.39,-0.32,0.81,
1.651,-0.07,-0.63,0.03,0.39,-0.29,0.80,
1.653,-0.07,-0.63,0.03,0.37,-0.27,0.78,
1.655,-0.07,-0.63,0.03,0.36,-0.24,0.77,
1.657,-0.07,-0.63,0.03,0.35,-0.21,0.76,
1.659,0.04,-0.64,-0.23,0.35,-0.21,0.76,
1.659,0.04,-0.64,-0.23,0.34,-0.18,0.75,
1.66,0.04,-0.64,-0.23,0.33,-0.15,0.74,
1.663,0.04,-0.64,-0.23,0.32,-0.12,0.73,
1.665,0.04,-0.64,-0.23,0.30,-0.08,0.72,
1.667,0.04,-0.64,-0.23,0.29,-0.04,0.71,
1.669,-0.00,-0.71,-0.59,0.29,-0.04,0.71,
1.67,-0.00,-0.71,-0.59,0.27,-0.00,0.70,
1.671,-0.00,-0.71,-0.59,0.26,0.04,0.69,
1.673,-0.00,-0.71,-0.59,0.24,0.08,0.69,
1.675,-0.00,-0.71,-0.59,0.23,0.12,0.68,
1.676,-0.00,-0.71,-0.59,0.22,0.17,0.67,
1.679,-0.18,-0.79,-1.06,0.22,0.17,0.67,
1.679,-0.18,-0.79,-1.06,0.20,0.21,0.67,
1.681,-0.18,-0.79,-1.06,0.19,0.25,0.67,
1.683,-0.18,-0.79,-1.06,0.17,0.30,0.66,
1.686,-0.18,-0.79,-1.06,0.15,0.34,0.66,
1.687,-0.18,-0.79,-1.06,0.14,0.39,0.66,
1.689,-0.40,-0.88,-1.59,0.14,0.39,0.66,
1.689,-0.40,-0.88,-1.59,0.12,0.43,0.66,
1.691,-0.40,-0.88,-1.59,0.10,0.48,0.66,
1.693,-0.40,-0.88,-1.59,0.08,0.52,0.67,
1.695,-0.40,-0.88,-1.59,0.06,0.56,0.67,
1.697,-0.40,-0.88,-1.59,0.04,0.60,0.67,
1.699,-0.60,-0.96,-2.17,0.04,0.60,0.67,
1.7,-0.60,-0.96,-2.17,0.02,0.63,0.68,
1.701,-0.60,-0.96,-2.17,0.00,0.66,0.68,
1.707,-0.60,-0.96,-2.17,-0.02,0.70,0.69,
1.707,-0.60,-0.96,-2.17,-0.04,0.73,0.70,
1.707,-0.60,-0.96,-2.17,-0.06,0.75,0.70,
1.71,-0.84,-1.04,-2.56,-0.06,0.75,0.70,
1.711,-0.84,-1.04,-2.56,-0.07,0.77,0.71,
1.711,-0.84,-1.04,-2.56,-0.09,0.79,0.72,
1.715,-0.84,-1.04,-2.56,-0.11,0.80,0.72,
1.715,-0.84,-1.04,-2.56,-0.12,0.81,0.73,
1.719,-0.84,-1.04,-2.56,-0.14,0.81,0.74,
1.72,-0.92,-1.03,-2.81,-0.14,0.81,0.74,
1.724,-0.92,-1.03,-2.81,-0.15,0.82,0.74,
1.724,-0.92,-1.03,-2.81,-0.17,0.82,0.75,
1.724,-0.92,-1.03,-2.81,-0.18,0.82,0.75,
1.725,-0.92,-1.03,-2.81,-0.19,0.81,0.75,
1.73,-0.92,-1.03,-2.81,-0.20,0.81,0.76,
1.732,-0.92,-0.98,-2.89,-0.20,0.81,0.76,
1.733,-0.92,-0.98,-2.89,-0.21,0.80,0.76,
1.761,-0.92,-0.98,-2.89,-0.21,0.80,0.76,
1.762,-0.92,-0.98,-2.89,-0.22,0.79,0.76,
1.762,-0.92,-0.98,-2.89,-0.22,0.78,0.76,
1.763,-0.92,-0.98,-2.89,-0.22,0.76,0.76,
1.763,-0.83,-0.96,-2.84,-0.22,0.76,0.76,
1.763,-0.83,-0.96,-2.84,-0.22,0.75,0.76,
1.764,-0.83,-0.96,-2.84,-0.22,0.73,0.76,
1.764,-0.83,-0.96,-2.84,-0.22,0.71,0.76,
1.765,-0.83,-0.96,-2.84,-0.21,0.69,0.76,
1.765,-0.83,-0.96,-2.84,-0.20,0.68,0.76,
1.765,-0.83,-0.93,-2.66,-0.20,0.68,0.76,
1.766,-0.83,-0.93,-2.66,-0.19,0.65,0.76,
1.766,-0.83,-0.93,-2.66,-0.19,0.63,0.76,
1.767,-0.83,-0.93,-2.66,-0.18,0.61,0.76,
1.767,-0.83,-0.93,-2.66,-0.16,0.58,0.76,
1.767,-0.83,-0.93,-2.66,-0.15,0.56,0.76,
1.768,-0.79,-0.90,-2.47,-0.15,0.56,0.76,
1.768,-0.79,-0.90,-2.47,-0.14,0.53,0.76,
1.769,-0.79,-0.90,-2.47,-0.12,0.50,0.76,
1.769,-0.79,-0.90,-2.47,-0.11,0.48,0.75,
1.769,-0.79,-0.90,-2.47,-0.09,0.45,0.75,
1.77,-0.79,-0.90,-2.47,-0.08,0.42,0.75,
1.77,-0.75,-0.88,-2.34,-0.08,0.42,0.75,
1.771,-0.75,-0.88,-2.34,-0.06,0.39,0.75,
1.771,-0.75,-0.88,-2.34,-0.05,0.36,0.75,
1.783,-0.75,-0.88,-2.34,-0.04,0.33,0.75,
1.783,-0.75,-0.88,-2.34,-0.03,0.31,0.74,
1.784,-0.75,-0.88,-2.34,-0.01,0.28,0.74,
1.784,-0.68,-0.87,-2.20,-0.01,0.28,0.74,
1.784,-0.68,-0.87,-2.20,0.00,0.25,0.74,
1.785,-0.68,-0.87,-2.20,0.02,0.23,0.74,
1.785,-0.68,-0.87,-2.20,0.03,0.21,0.74,
1.785,-0.68,-0.87,-2.20,0.04,0.19,0.74,
1.787,-0.68,-0.87,-2.20,0.06,0.17,0.74,
1.793,-0.66,-0.85,-1.95,0.06,0.17,0.74,
1.793,-0.66,-0.85,-1.95,0.07,0.15,0.74,
1.797,-0.66,-0.85,-1.95,0.09,0.13,0.75,
1.797,-0.66,-0.85,-1.95,0.11,0.11,0.75,
1.797,-0.66,-0.85,-1.95,0.13,0.10,0.75,
1.797,-0.66,-0.85,-1.95,0.15,0.08,0.76,
1.801,-0.62,-0.77,-1.63,0.15,0.08,0.76,
1.802,-0.62,-0.77,-1.63,0.16,0.06,0.76,
1.802,-0.62,-0.77,-1.63,0.18,0.05,0.76,
1.812,-0.62,-0.77,-1.63,0.20,0.03,0.77,
1.813,-0.62,-0.77,-1.63,0.22,0.02,0.77,
1.813,-0.62,-0.77,-1.63,0.24,0.01,0.78,
1.814,-0.56,-0.72,-1.37,0.24,0.01,0.78,
1.814,-0.56,-0.72,-1.37,0.26,-0.01,0.78,
1.814,-0.56,-0.72,-1.37,0.27,-0.02,0.78,
1.814,-0.56,-0.72,-1.37,0.29,-0.03,0.78,
1.84,-0.56,-0.72,-1.37,0.30,-0.04,0.78,
1.841,-0.56,-0.72,-1.37,0.31,-0.05,0.78,
1.841,-0.33,-0.64,-1.24,0.31,-0.05,0.78,
1.842,-0.33,-0.64,-1.24,0.33,-0.06,0.78,
1.842,-0.33,-0.64,-1.24,0.34,-0.07,0.78,
1.842,-0.33,-0.64,-1.24,0.36,-0.07,0.78,
1.842,-0.33,-0.64,-1.24,0.37,-0.08,0.78,
1.843,-0.33,-0.64,-1.24,0.38,-0.08,0.77,
1.843,-0.04,-0.54,-1.10,0.38,-0.08,0.77,
1.843,-0.04,-0.54,-1.10,0.39,-0.09,0.76,
1.843,-0.04,-0.54,-1.10,0.40,-0.09,0.76,
1.843,-0.04,-0.54,-1.10,0.41,-0.09,0.75,
1.844,-0.04,-0.54,-1.10,0.41,-0.08,0.74,
1.844,-0.04,-0.54,-1.10,0.42,-0.08,0.73,
1.845,0.13,-0.43,-1.00,0.42,-0.08,0.73,
1.845,0.13,-0.43,-1.00,0.42,-0.08,0.73,
1.845,0.13,-0.43,-1.00,0.42,-0.08,0.72,
1.845,0.13,-0.43,-1.00,0.42,-0.07,0.71,
1.846,0.13,-0.43,-1.00,0.43,-0.06,0.70,
1.847,0.13,-0.43,-1.00,0.42,-0.05,0.69,
1.851,0.35,-0.30,-0.97,0.42,-0.05,0.69,
1.851,0.35,-0.30,-0.97,0.42,-0.05,0.68,
1.851,0.35,-0.30,-0.97,0.42,-0.03,0.66,
1.853,0.35,-0.30,-0.97,0.42,-0.03,0.65,
1.857,0.35,-0.30,-0.97,0.41,-0.01,0.64,
1.857,0.35,-0.30,-0.97,0.41,0.00,0.63,
1.859,0.47,-0.15,-0.94,0.41,0.00,0.63,
1.859,0.47,-0.15,-0.94,0.40,0.02,0.61,
1.861,0.47,-0.15,-0.94,0.39,0.03,0.60,
1.865,0.47,-0.15,-0.94,0.38,0.04,0.58,
1.865,0.47,-0.15,-0.94,0.38,0.06,0.57,
1.868,0.47,-0.15,-0.94,0.36,0.07,0.56,
1.869,0.55,-0.06,-0.89,0.36,0.07,0.56,
1.87,0.55,-0.06,-0.89,0.35,0.09,0.54,
1.871,0.55,-0.06,-0.89,0.34,0.11,0.52,
1.873,0.55,-0.06,-0.89,0.33,0.12,0.51,
1.875,0.55,-0.06,-0.89,0.32,0.14,0.49,
1.877,0.55,-0.06,-0.89,0.31,0.16,0.47,
1.881,0.44,0.01,-0.78,0.31,0.16,0.47,
1.882,0.44,0.01,-0.78,0.30,0.18,0.46,
1.882,0.44,0.01,-0.78,0.29,0.20,0.45,
1.891,0.44,0.01,-0.78,0.28,0.22,0.43,
1.891,0.44,0.01,-0.78,0.27,0.24,0.42,
1.891,0.44,0.01,-0.78,0.26,0.27,0.41,
1.892,0.24,0.02,-0.55,0.26,0.27,0.41,
1.892,0.24,0.02,-0.55,0.25,0.29,0.40,
1.892,0.24,0.02,-0.55,0.25,0.31,0.38,
1.895,0.24,0.02,-0.55,0.24,0.34,0.38,
1.895,0.24,0.02,-0.55,0.24,0.36,0.37,
1.899,0.24,0.02,-0.55,0.23,0.38,0.37,
1.92,-0.08,-0.02,-0.27,0.23,0.38,0.37,
1.92,-0.08,-0.02,-0.27,0.22,0.40,0.37,
1.92,-0.08,-0.02,-0.27,0.22,0.42,0.37,
1.921,-0.08,-0.02,-0.27,0.21,0.44,0.37,
1.921,-0.08,-0.02,-0.27,0.21,0.45,0.37,
1.921,-0.08,-0.02,-0.27,0.20,0.46,0.37,
1.921,-0.41,-0.08,-0.00,0.20,0.46,0.37,
1.922,-0.41,-0.08,-0.00,0.20,0.47,0.38,
1.922,-0.41,-0.08,-0.00,0.19,0.47,0.38,
1.922,-0.41,-0.08,-0.00,0.19,0.48,0.39,
1.922,-0.41,-0.08,-0.00,0.19,0.48,0.40,
1.923,-0.41,-0.08,-0.00,0.19,0.47,0.40,
1.923,-0.51,-0.10,0.36,0.19,0.47,0.40,
1.923,-0.51,-0.10,0.36,0.19,0.47,0.41,
1.923,-0.51,-0.10,0.36,0.19,0.46,0.41,
1.924,-0.51,-0.10,0.36,0.19,0.46,0.41,
1.93,-0.51,-0.10,0.36,0.19,0.45,0.41,
1.93,-0.51,-0.10,0.36,0.19,0.44,0.41,
1.93,-0.37,-0.07,0.75,0.19,0.44,0.41,
1.931,-0.37,-0.07,0.75,0.19,0.44,0.41,
1.931,-0.37,-0.07,0.75,0.19,0.44,0.41,
1.933,-0.37,-0.07,0.75,0.19,0.43,0.41,
1.944,-0.37,-0.07,0.75,0.19,0.43,0.40,
1.944,-0.37,-0.07,0.75,0.19,0.43,0.40,
1.945,-0.11,-0.03,0.95,0.19,0.43,0.40,
1.945,-0.11,-0.03,0.95,0.19,0.43,0.40,
1.945,-0.11,-0.03,0.95,0.18,0.44,0.39,
1.945,-0.11,-0.03,0.95,0.18,0.44,0.39,
1.946,-0.11,-0.03,0.95,0.17,0.44,0.39,
1.948,-0.11,-0.03,0.95,0.16,0.43,0.39,
1.95,0.06,-0.01,1.00,0.16,0.43,0.39,
1.95,0.06,-0.01,1.00,0.15,0.43,0.39,
1.951,0.06,-0.01,1.00,0.14,0.44,0.38,
1.953,0.06,-0.01,1.00,0.13,0.44,0.38,
1.955,0.06,-0.01,1.00,0.11,0.44,0.38,
1.957,0.06,-0.01,1.00,0.10,0.44,0.38,
1.961,0.27,0.03,0.97,0.10,0.44,0.38,
1.962,0.27,0.03,0.97,0.08,0.45,0.37,
1.963,0.27,0.03,0.97,0.06,0.46,0.37,
1.966,0.27,0.03,0.97,0.02,0.47,0.36,
1.967,0.27,0.03,0.97,0.02,0.47,0.36,
1.968,0.27,0.03,0.97,0.00,0.48,0.36,
1.971,0.58,0.03,0.94,0.00,0.48,0.36,
1.971,0.58,0.03,0.94,-0.02,0.48,0.35,
1.971,0.58,0.03,0.94,-0.04,0.49,0.34,
1.974,0.58,0.03,0.94,-0.06,0.49,0.34,
1.975,0.58,0.03,0.94,-0.07,0.49,0.33,
1.977,0.58,0.03,0.94,-0.09,0.49,0.33,
1.98,0.82,0.04,1.05,-0.09,0.49,0.33,
1.98,0.82,0.04,1.05,-0.11,0.49,0.32,
1.98,0.82,0.04,1.05,-0.13,0.50,0.32,
1.983,0.82,0.04,1.05,-0.14,0.51,0.31,
1.985,0.82,0.04,1.05,-0.16,0.52,0.31,
1.986,0.82,0.04,1.05,-0.17,0.53,0.30,
1.989,0.90,0.18,1.18,-0.17,0.53,0.30,
1.989,0.90,0.18,1.18,-0.18,0.55,0.30,
1.991,0.90,0.18,1.18,-0.19,0.56,0.29,
1.993,0.90,0.18,1.18,-0.20,0.58,0.29,
1.995,0.90,0.18,1.18,-0.22,0.60,0.29,
1.997,0.90,0.18,1.18,-0.23,0.61,0.28,
2.001,0.77,0.43,1.17,-0.23,0.61,0.28,
2.002,0.77,0.43,1.17,-0.24,0.63,0.28,
2.004,0.77,0.43,1.17,-0.25,0.64,0.28,
2.004,0.77,0.43,1.17,-0.27,0.65,0.28,
2.005,0.77,0.43,1.17,-0.29,0.65,0.27,
2.006,0.77,0.43,1.17,-0.31,0.65,0.27,
2.009,0.82,0.65,0.91,-0.31,0.65,0.27,
2.009,0.82,0.65,0.91,-0.33,0.65,0.26,
2.01,0.82,0.65,0.91,-0.35,0.65,0.25,
2.013,0.82,0.65,0.91,-0.38,0.64,0.24,
2.015,0.82,0.65,0.91,-0.41,0.62,0.23,
2.017,0.82,0.65,0.91,-0.44,0.60,0.22,
2.019,0.99,0.70,0.58,-0.44,0.60,0.22,
2.019,0.99,0.70,0.58,-0.47,0.56,0.21,
2.021,0.99,0.70,0.58,-0.51,0.53,0.20,
2.023,0.99,0.70,0.58,-0.54,0.49,0.18,
2.025,0.99,0.70,0.58,-0.58,0.44,0.17,
2.027,0.99,0.70,0.58,-0.62,0.39,0.15,
2.03,1.32,0.84,0.49,-0.62,0.39,0.15,
2.03,1.32,0.84,0.49,-0.65,0.33,0.12,
2.031,1.32,0.84,0.49,-0.69,0.27,0.10,
2.041,1.32,0.84,0.49,-0.73,0.20,0.07,
2.042,1.32,0.84,0.49,-0.76,0.14,0.04,
2.042,1.32,0.84,0.49,-0.79,0.07,0.01,
2.042,1.68,0.99,0.84,-0.79,0.07,0.01,
2.042,1.68,0.99,0.84,-0.82,-0.01,-0.04,
2.042,1.68,0.99,0.84,-0.85,-0.08,-0.08,
2.043,1.68,0.99,0.84,-0.88,-0.16,-0.13,
2.046,1.68,0.99,0.84,-0.90,-0.23,-0.17,
2.047,1.68,0.99,0.84,-0.91,-0.31,-0.23,
2.055,2.18,0.93,1.63,-0.91,-0.31,-0.23,
2.055,2.18,0.93,1.63,-0.93,-0.38,-0.28,
2.055,2.18,0.93,1.63,-0.94,-0.44,-0.34,
2.055,2.18,0.93,1.63,-0.94,-0.50,-0.39,
2.055,2.18,0.93,1.63,-0.95,-0.56,-0.44,
2.056,2.18,0.93,1.63,-0.94,-0.60,-0.49,
2.059,2.42,0.63,2.56,-0.94,-0.60,-0.49,
2.059,2.42,0.63,2.56,-0.94,-0.65,-0.54,
2.061,2.42,0.63,2.56,-0.93,-0.69,-0.58,
2.063,2.42,0.63,2.56,-0.93,-0.72,-0.62,
2.085,2.42,0.63,2.56,-0.91,-0.74,-0.66,
2.085,2.42,0.63,2.56,-0.90,-0.77,-0.69,
2.086,2.35,0.10,3.37,-0.90,-0.77,-0.69,
2.086,2.35,0.10,3.37,-0.88,-0.79,-0.71,
2.086,2.35,0.10,3.37,-0.86,-0.80,-0.73,
2.087,2.35,0.10,3.37,-0.84,-0.81,-0.75,
2.087,2.35,0.10,3.37,-0.81,-0.82,-0.76,
2.088,2.35,0.10,3.37,-0.78,-0.82,-0.77,
2.088,1.99,-0.45,4.02,-0.78,-0.82,-0.77,
2.088,1.99,-0.45,4.02,-0.75,-0.81,-0.78,
2.089,1.99,-0.45,4.02,-0.72,-0.80,-0.78,
2.089,1.99,-0.45,4.02,-0.68,-0.78,-0.78,
2.09,1.99,-0.45,4.02,-0.64,-0.75,-0.78,
2.09,1.99,-0.45,4.02,-0.60,-0.72,-0.77,
2.09,1.53,-0.92,4.44,-0.60,-0.72,-0.77,
2.091,1.53,-0.92,4.44,-0.56,-0.68,-0.76,
2.091,1.53,-0.92,4.44,-0.52,-0.64,-0.75,
2.1,1.53,-0.92,4.44,-0.47,-0.59,-0.73,
2.101,1.53,-0.92,4.44,-0.43,-0.55,-0.71,
2.101,1.53,-0.92,4.44,-0.39,-0.50,-0.68,
2.102,1.00,-1.18,4.37,-0.39,-0.50,-0.68,
2.102,1.00,-1.18,4.37,-0.34,-0.44,-0.66,
2.102,1.00,-1.18,4.37,-0.30,-0.38,-0.63,
2.105,1.00,-1.18,4.37,-0.26,-0.33,-0.60,
2.105,1.00,-1.18,4.37,-0.22,-0.28,-0.57,
2.109,1.00,-1.18,4.37,-0.19,-0.22,-0.53,
2.109,0.45,-1.38,3.82,-0.19,-0.22,-0.53,
2.11,0.45,-1.38,3.82,-0.15,-0.17,-0.49,
2.113,0.45,-1.38,3.82,-0.12,-0.13,-0.46,
2.116,0.45,-1.38,3.82,-0.09,-0.08,-0.42,
2.116,0.45,-1.38,3.82,-0.07,-0.05,-0.39,
2.117,0.45,-1.38,3.82,-0.05,-0.01,-0.35,
2.12,0.06,-1.35,2.87,-0.05,-0.01,-0.35,
2.121,0.06,-1.35,2.87,-0.03,0.01,-0.31,
2.121,0.06,-1.35,2.87,-0.02,0.03,-0.28,
2.125,0.06,-1.35,2.87,-0.00,0.05,-0.25,
2.125,0.06,-1.35,2.87,0.01,0.06,-0.22,
2.129,0.06,-1.35,2.87,0.02,0.07,-0.19,
2.129,-0.03,-1.26,1.94,0.02,0.07,-0.19,
2.129,-0.03,-1.26,1.94,0.03,0.07,-0.16,
2.133,-0.03,-1.26,1.94,0.04,0.06,-0.14,
2.134,-0.03,-1.26,1.94,0.05,0.06,-0.12,
2.138,-0.03,-1.26,1.94,0.06,0.05,-0.10,
2.139,-0.03,-1.26,1.94,0.08,0.03,-0.09,
2.139,0.12,-1.02,1.29,0.08,0.03,-0.09,
2.139,0.12,-1.02,1.29,0.09,0.01,-0.07,
2.143,0.12,-1.02,1.29,0.09,-0.01,-0.06,
2.143,0.12,-1.02,1.29,0.11,-0.04,-0.05,
2.147,0.12,-1.02,1.29,0.12,-0.07,-0.05,
2.147,0.12,-1.02,1.29,0.13,-0.10,-0.05,
2.152,0.49,-0.82,0.84,0.13,-0.10,-0.05,
2.152,0.49,-0.82,0.84,0.14,-0.14,-0.05,
2.153,0.49,-0.82,0.84,0.14,-0.18,-0.05,
2.153,0.49,-0.82,0.84,0.16,-0.23,-0.06,
2.156,0.49,-0.82,0.84,0.16,-0.28,-0.06,
2.157,0.49,-0.82,0.84,0.17,-0.33,-0.07,
2.159,0.88,-0.61,0.52,0.17,-0.33,-0.07,
2.159,0.88,-0.61,0.52,0.18,-0.38,-0.09,
2.161,0.88,-0.61,0.52,0.19,-0.43,-0.09,
2.163,0.88,-0.61,0.52,0.20,-0.49,-0.11,
2.175,0.88,-0.61,0.52,0.21,-0.54,-0.12,
2.179,0.88,-0.61,0.52,0.23,-0.59,-0.14,
2.204,1.12,-0.48,0.38,0.23,-0.59,-0.14,
2.205,1.12,-0.48,0.38,0.24,-0.64,-0.15,
2.205,1.12,-0.48,0.38,0.25,-0.69,-0.16,
2.205,1.12,-0.48,0.38,0.27,-0.73,-0.18,
2.205,1.12,-0.48,0.38,0.29,-0.77,-0.19,
2.206,1.12,-0.48,0.38,0.30,-0.81,-0.21,
2.206,1.25,-0.37,0.31,0.30,-0.81,-0.21,
2.206,1.25,-0.37,0.31,0.32,-0.84,-0.22,
2.206,1.25,-0.37,0.31,0.34,-0.87,-0.24,
2.206,1.25,-0.37,0.31,0.36,-0.90,-0.25,
2.206,1.25,-0.37,0.31,0.37,-0.93,-0.27,
2.207,1.25,-0.37,0.31,0.39,-0.95,-0.28,
2.207,1.33,-0.39,0.23,0.39,-0.95,-0.28,
2.207,1.33,-0.39,0.23,0.41,-0.96,-0.29,
2.207,1.33,-0.39,0.23,0.43,-0.98,-0.31,
2.207,1.33,-0.39,0.23,0.45,-0.99,-0.32,
2.208,1.33,-0.39,0.23,0.47,-1.00,-0.33,
2.208,1.33,-0.39,0.23,0.48,-1.00,-0.34,
2.208,1.23,-0.40,0.01,0.48,-1.00,-0.34,
2.208,1.23,-0.40,0.01,0.49,-1.00,-0.35,
2.208,1.23,-0.40,0.01,0.51,-1.00,-0.36,
2.209,1.23,-0.40,0.01,0.52,-1.00,-0.37,
2.209,1.23,-0.40,0.01,0.53,-1.00,-0.38,
2.209,1.23,-0.40,0.01,0.54,-1.00,-0.38,
2.213,1.09,-0.45,-0.40,0.54,-1.00,-0.38,
2.214,1.09,-0.45,-0.40,0.54,-0.99,-0.39,
2.217,1.09,-0.45,-0.40,0.55,-0.98,-0.40,
2.218,1.09,-0.45,-0.40,0.55,-0.97,-0.41,
2.218,1.09,-0.45,-0.40,0.55,-0.96,-0.41,
2.218,1.09,-0.45,-0.40,0.55,-0.94,-0.42,
2.239,0.84,-0.46,-0.95,0.55,-0.94,-0.42,
2.24,0.84,-0.46,-0.95,0.55,-0.93,-0.42,
2.24,0.84,-0.46,-0.95,0.55,-0.91,-0.43,
2.24,0.84,-0.46,-0.95,0.54,-0.89,-0.43,
2.24,0.84,-0.46,-0.95,0.54,-0.87,-0.43,
2.241,0.84,-0.46,-0.95,0.53,-0.85,-0.44,
2.241,0.65,-0.45,-1.53,0.53,-0.85,-0.44,
2.241,0.65,-0.45,-1.53,0.52,-0.83,-0.45,
2.266,0.65,-0.45,-1.53,0.51,-0.81,-0.45,
2.266,0.65,-0.45,-1.53,0.49,-0.79,-0.46,
2.266,0.65,-0.45,-1.53,0.48,-0.77,-0.46,
2.266,0.65,-0.45,-1.53,0.46,-0.75,-0.47,
2.267,0.46,-0.44,-2.05,0.46,-0.75,-0.47,
2.267,0.46,-0.44,-2.05,0.45,-0.72,-0.47,
2.267,0.46,-0.44,-2.05,0.43,-0.70,-0.48,
2.267,0.46,-0.44,-2.05,0.41,-0.67,-0.48,
2.268,0.46,-0.44,-2.05,0.39,-0.65,-0.49,
2.268,0.46,-0.44,-2.05,0.38,-0.62,-0.49,
2.268,0.30,-0.42,-2.48,0.38,-0.62,-0.49,
2.269,0.30,-0.42,-2.48,0.36,-0.59,-0.50,
2.269,0.30,-0.42,-2.48,0.34,-0.57,-0.50,
2.269,0.30,-0.42,-2.48,0.32,-0.54,-0.51,
2.269,0.30,-0.42,-2.48,0.30,-0.51,-0.51,
2.27,0.30,-0.42,-2.48,0.28,-0.49,-0.52,
2.27,0.15,-0.40,-2.78,0.28,-0.49,-0.52,
2.27,0.15,-0.40,-2.78,0.26,-0.46,-0.52,
2.27,0.15,-0.40,-2.78,0.24,-0.43,-0.53,
2.271,0.15,-0.40,-2.78,0.22,-0.41,-0.53,
2.271,0.15,-0.40,-2.78,0.20,-0.38,-0.54,
2.271,0.15,-0.40,-2.78,0.18,-0.35,-0.55,
2.272,0.09,-0.37,-3.02,0.18,-0.35,-0.55,
2.272,0.09,-0.37,-3.02,0.16,-0.32,-0.56,
2.272,0.09,-0.37,-3.02,0.14,-0.30,-0.57,
2.278,0.09,-0.37,-3.02,0.12,-0.27,-0.58,
2.279,0.09,-0.37,-3.02,0.10,-0.24,-0.60,
2.279,0.09,-0.37,-3.02,0.09,-0.21,-0.61,
2.28,0.07,-0.23,-3.05,0.09,-0.21,-0.61,
2.28,0.07,-0.23,-3.05,0.07,-0.19,-0.62,
2.289,0.07,-0.23,-3.05,0.06,-0.16,-0.63,
2.289,0.07,-0.23,-3.05,0.05,-0.14,-0.65,
2.289,0.07,-0.23,-3.05,0.03,-0.12,-0.66,
2.29,0.07,-0.23,-3.05,0.02,-0.11,-0.68,
2.29,0.01,-0.32,-2.98,0.02,-0.11,-0.68,
2.29,0.01,-0.32,-2.98,0.01,-0.10,-0.69,
2.291,0.01,-0.32,-2.98,-0.01,-0.08,-0.71,
2.293,0.01,-0.32,-2.98,-0.02,-0.08,-0.73,
2.295,0.01,-0.32,-2.98,-0.03,-0.07,-0.75,
2.303,0.01,-0.32,-2.98,-0.04,-0.06,-0.77,
2.304,0.04,-0.53,-3.00,-0.04,-0.06,-0.77,
2.304,0.04,-0.53,-3.00,-0.05,-0.06,-0.79,
2.304,0.04,-0.53,-3.00,-0.06,-0.05,-0.80,
2.305,0.04,-0.53,-3.00,-0.07,-0.05,-0.81,
2.305,0.04,-0.53,-3.00,-0.08,-0.05,-0.82,
2.308,0.04,-0.53,-3.00,-0.08,-0.04,-0.83,
2.31,-0.45,-0.43,-2.79,-0.08,-0.04,-0.83,
2.311,-0.45,-0.43,-2.79,-0.09,-0.04,-0.84,
2.312,-0.45,-0.43,-2.79,-0.09,-0.04,-0.85,
2.313,-0.45,-0.43,-2.79,-0.09,-0.04,-0.85,
2.318,-0.45,-0.43,-2.79,-0.10,-0.04,-0.86,
2.318,-0.45,-0.43,-2.79,-0.10,-0.05,-0.86,
2.319,-0.70,-0.48,-2.62,-0.10,-0.05,-0.86,
2.32,-0.70,-0.48,-2.62,-0.10,-0.06,-0.87,
2.321,-0.70,-0.48,-2.62,-0.10,-0.06,-0.87,
2.323,-0.70,-0.48,-2.62,-0.10,-0.07,-0.87,
2.325,-0.70,-0.48,-2.62,-0.10,-0.08,-0.88,
2.327,-0.70,-0.48,-2.62,-0.10,-0.09,-0.88,
2.329,-0.94,-0.50,-2.42,-0.10,-0.09,-0.88,
2.331,-0.94,-0.50,-2.42,-0.10,-0.10,-0.88,
2.331,-0.94,-0.50,-2.42,-0.09,-0.11,-0.88,
2.333,-0.94,-0.50,-2.42,-0.09,-0.12,-0.88,
2.335,-0.94,-0.50,-2.42,-0.09,-0.13,-0.88,
2.341,-0.94,-0.50,-2.42,-0.09,-0.13,-0.88,
2.342,-1.06,-0.48,-2.18,-0.09,-0.13,-0.88,
2.342,-1.06,-0.48,-2.18,-0.08,-0.15,-0.87,
2.342,-1.06,-0.48,-2.18,-0.08,-0.16,-0.87,
2.345,-1.06,-0.48,-2.18,-0.07,-0.17,-0.87,
2.346,-1.06,-0.48,-2.18,-0.07,-0.19,-0.86,
2.348,-1.06,-0.48,-2.18,-0.07,-0.21,-0.86,
2.349,-1.18,-0.44,-1.97,-0.07,-0.21,-0.86,
2.35,-1.18,-0.44,-1.97,-0.06,-0.22,-0.85,
2.351,-1.18,-0.44,-1.97,-0.06,-0.24,-0.85,
2.353,-1.18,-0.44,-1.97,-0.06,-0.26,-0.84,
2.355,-1.18,-0.44,-1.97,-0.06,-0.27,-0.84,
2.356,-1.18,-0.44,-1.97,-0.06,-0.28,-0.83,
2.359,-1.17,-0.35,-1.75,-0.06,-0.28,-0.83,
2.36,-1.17,-0.35,-1.75,-0.06,-0.29,-0.83,
2.361,-1.17,-0.35,-1.75,-0.05,-0.30,-0.82,
2.363,-1.17,-0.35,-1.75,-0.06,-0.31,-0.82,
2.366,-1.17,-0.35,-1.75,-0.05,-0.31,-0.82,
2.367,-1.17,-0.35,-1.75,-0.05,-0.32,-0.81,
2.369,-1.07,-0.26,-1.52,-0.05,-0.32,-0.81,
2.37,-1.07,-0.26,-1.52,-0.05,-0.33,-0.81,
2.371,-1.07,-0.26,-1.52,-0.05,-0.33,-0.81,
2.373,-1.07,-0.26,-1.52,-0.05,-0.33,-0.81,
2.375,-1.07,-0.26,-1.52,-0.06,-0.34,-0.81,
2.377,-1.07,-0.26,-1.52,-0.06,-0.34,-0.81,
2.379,-0.85,-0.14,-1.28,-0.06,-0.34,-0.81,
2.38,-0.85,-0.14,-1.28,-0.06,-0.34,-0.81,
2.382,-0.85,-0.14,-1.28,-0.06,-0.34,-0.81,
2.383,-0.85,-0.14,-1.28,-0.06,-0.35,-0.82,
2.386,-0.85,-0.14,-1.28,-0.07,-0.35,-0.82,
2.387,-0.85,-0.14,-1.28,-0.07,-0.35,-0.82,
2.391,-0.79,-0.06,-1.01,-0.07,-0.35,-0.82,
2.391,-0.79,-0.06,-1.01,-0.07,-0.35,-0.83,
2.392,-0.79,-0.06,-1.01,-0.08,-0.35,-0.83,
2.393,-0.79,-0.06,-1.01,-0.08,-0.36,-0.83,
2.395,-0.79,-0.06,-1.01,-0.08,-0.36,-0.83,
2.398,-0.79,-0.06,-1.01,-0.08,-0.36,-0.83,
2.416,-0.73,-0.05,-0.70,-0.08,-0.36,-0.83,
2.417,-0.73,-0.05,-0.70,-0.09,-0.36,-0.84,
2.417,-0.73,-0.05,-0.70,-0.09,-0.36,-0.84,
2.417,-0.73,-0.05,-0.70,-0.09,-0.36,-0.84,
2.417,-0.73,-0.05,-0.70,-0.10,-0.36,-0.84,
2.418,-0.73,-0.05,-0.70,-0.10,-0.36,-0.84,
2.418,-0.80,-0.06,-0.39,-0.10,-0.36,-0.84,
2.418,-0.80,-0.06,-0.39,-0.10,-0.36,-0.84,
2.418,-0.80,-0.06,-0.39,-0.10,-0.36,-0.84,
2.419,-0.80,-0.06,-0.39,-0.10,-0.36,-0.83,
2.419,-0.80,-0.06,-0.39,-0.10,-0.37,-0.83,
2.419,-0.80,-0.06,-0.39,-0.10,-0.37,-0.82,
2.419,-0.88,-0.14,-0.07,-0.10,-0.37,-0.82,
2.42,-0.88,-0.14,-0.07,-0.10,-0.36,-0.82,
2.425,-0.88,-0.14,-0.07,-0.10,-0.36,-0.81,
2.425,-0.88,-0.14,-0.07,-0.09,-0.35,-0.80,
2.425,-0.88,-0.14,-0.07,-0.09,-0.34,-0.79,
2.429,-0.88,-0.14,-0.07,-0.09,-0.33,-0.78,
2.43,-1.07,-0.14,0.30,-0.09,-0.33,-0.78,
2.43,-1.07,-0.14,0.30,-0.08,-0.32,-0.77,
2.431,-1.07,-0.14,0.30,-0.07,-0.30,-0.75,
2.433,-1.07,-0.14,0.30,-0.07,-0.28,-0.74,
2.435,-1.07,-0.14,0.30,-0.06,-0.26,-0.73,
2.437,-1.07,-0.14,0.30,-0.05,-0.24,-0.71,
2.439,-1.15,-0.16,0.54,-0.05,-0.24,-0.71,
2.439,-1.15,-0.16,0.54,-0.04,-0.22,-0.70,
2.441,-1.15,-0.16,0.54,-0.04,-0.19,-0.68,
2.443,-1.15,-0.16,0.54,-0.03,-0.17,-0.66,
2.445,-1.15,-0.16,0.54,-0.02,-0.14,-0.64,
2.453,-1.15,-0.16,0.54,-0.01,-0.12,-0.62,
2.454,-1.35,-0.12,0.78,-0.01,-0.12,-0.62,
2.454,-1.35,-0.12,0.78,0.01,-0.09,-0.60,
2.454,-1.35,-0.12,0.78,0.02,-0.06,-0.58,
2.454,-1.35,-0.12,0.78,0.03,-0.03,-0.56,
2.455,-1.35,-0.12,0.78,0.04,0.00,-0.53,
2.462,-1.35,-0.12,0.78,0.06,0.03,-0.51,
2.478,-1.46,0.04,1.02,0.06,0.03,-0.51,
2.479,-1.46,0.04,1.02,0.07,0.06,-0.49,
2.479,-1.46,0.04,1.02,0.09,0.09,-0.46,
2.479,-1.46,0.04,1.02,0.10,0.12,-0.44,
2.479,-1.46,0.04,1.02,0.12,0.15,-0.41,
2.48,-1.46,0.04,1.02,0.13,0.17,-0.39,
2.48,-1.46,0.04,1.02,0.14,0.20,-0.37,
2.48,-1.47,0.20,1.09,0.14,0.20,-0.37,
2.48,-1.47,0.20,1.09,0.16,0.22,-0.34,
2.48,-1.47,0.20,1.09,0.17,0.24,-0.32,
2.481,-1.47,0.20,1.09,0.18,0.26,-0.30,
2.481,-1.47,0.20,1.09,0.19,0.28,-0.28,
2.481,-1.40,0.44,0.97,0.19,0.28,-0.28,
2.481,-1.40,0.44,0.97,0.20,0.29,-0.26,
2.482,-1.40,0.44,0.97,0.21,0.30,-0.24,
2.493,-1.40,0.44,0.97,0.22,0.31,-0.22,
2.494,-1.40,0.44,0.97,0.22,0.32,-0.21,
2.494,-1.40,0.44,0.97,0.23,0.33,-0.19,
2.495,-1.38,0.62,0.87,0.23,0.33,-0.19,
2.495,-1.38,0.62,0.87,0.23,0.33,-0.17,
2.495,-1.38,0.62,0.87,0.24,0.33,-0.16,
2.495,-1.38,0.62,0.87,0.25,0.32,-0.14,
2.495,-1.38,0.62,0.87,0.25,0.32,-0.13,
2.498,-1.38,0.62,0.87,0.26,0.32,-0.11,
2.504,-1.34,0.79,0.92,0.26,0.32,-0.11,
2.504,-1.34,0.79,0.92,0.27,0.31,-0.09,
2.504,-1.34,0.79,0.92,0.28,0.30,-0.08,
2.505,-1.34,0.79,0.92,0.28,0.29,-0.07,
2.505,-1.34,0.79,0.92,0.29,0.28,-0.05,
2.508,-1.34,0.79,0.92,0.30,0.27,-0.04,
2.51,-1.26,0.95,1.04,0.30,0.27,-0.04,
2.511,-1.26,0.95,1.04,0.31,0.26,-0.02,
2.513,-1.26,0.95,1.04,0.31,0.25,-0.01,
2.515,-1.26,0.95,1.04,0.32,0.24,-0.00,
2.516,-1.26,0.95,1.04,0.33,0.23,0.00,
2.518,-1.26,0.95,1.04,0.34,0.22,0.01,
2.52,-1.04,1.07,1.22,0.34,0.22,0.01,
2.52,-1.04,1.07,1.22,0.34,0.20,0.02,
2.521,-1.04,1.07,1.22,0.35,0.19,0.02,
2.523,-1.04,1.07,1.22,0.36,0.17,0.03,
2.525,-1.04,1.07,1.22,0.36,0.16,0.03,
2.527,-1.04,1.07,1.22,0.37,0.14,0.04,
2.531,-0.80,1.16,1.39,0.37,0.14,0.04,
2.533,-0.80,1.16,1.39,0.37,0.13,0.04,
2.534,-0.80,1.16,1.39,0.38,0.11,0.04,
2.534,-0.80,1.16,1.39,0.38,0.11,0.04,
2.536,-0.80,1.16,1.39,0.38,0.10,0.04,
2.537,-0.80,1.16,1.39,0.39,0.09,0.04,
2.539,-0.60,1.27,1.53,0.39,0.09,0.04,
2.54,-0.60,1.27,1.53,0.39,0.08,0.05,
2.541,-0.60,1.27,1.53,0.39,0.08,0.05,
2.544,-0.60,1.27,1.53,0.39,0.07,0.05,
2.545,-0.60,1.27,1.53,0.39,0.07,0.05,
2.547,-0.60,1.27,1.53,0.39,0.07,0.04,
2.549,-0.54,1.44,1.58,0.39,0.07,0.04,
2.55,-0.54,1.44,1.58,0.38,0.07,0.05,
2.551,-0.54,1.44,1.58,0.38,0.08,0.05,
2.553,-0.54,1.44,1.58,0.37,0.09,0.04,
2.555,-0.54,1.44,1.58,0.36,0.09,0.04,
2.557,-0.54,1.44,1.58,0.35,0.11,0.04,
2.559,-0.54,1.65,1.56,0.35,0.11,0.04,
2.56,-0.54,1.65,1.56,0.33,0.12,0.03,
2.561,-0.54,1.65,1.56,0.31,0.13,0.02,
2.563,-0.54,1.65,1.56,0.29,0.14,0.01,
2.596,-0.54,1.65,1.56,0.27,0.15,0.00,
2.596,-0.54,1.65,1.56,0.24,0.16,-0.01,
2.596,-0.44,1.71,1.23,0.24,0.16,-0.01,
2.597,-0.44,1.71,1.23,0.20,0.16,-0.02,
2.597,-0.44,1.71,1.23,0.16,0.17,-0.03,
2.597,-0.44,1.71,1.23,0.12,0.16,-0.05,
2.597,-0.44,1.71,1.23,0.07,0.16,-0.07,
2.598,-0.44,1.71,1.23,0.02,0.15,-0.08,
2.598,-0.32,1.58,0.90,0.02,0.15,-0.08,
2.598,-0.32,1.58,0.90,-0.04,0.14,-0.10,
2.599,-0.32,1.58,0.90,-0.09,0.13,-0.12,
2.599,-0.32,1.58,0.90,-0.15,0.12,-0.14,
2.599,-0.32,1.58,0.90,-0.21,0.11,-0.17,
2.599,-0.32,1.58,0.90,-0.26,0.10,-0.19,
2.6,-0.22,1.30,1.04,-0.26,0.10,-0.19,
2.6,-0.22,1.30,1.04,-0.31,0.09,-0.21,
2.6,-0.22,1.30,1.04,-0.36,0.07,-0.23,
2.6,-0.22,1.30,1.04,-0.41,0.06,-0.24,
2.601,-0.22,1.30,1.04,-0.45,0.05,-0.25,
2.601,-0.22,1.30,1.04,-0.49,0.05,-0.26,
2.605,-0.33,1.04,1.80,-0.49,0.05,-0.26,
2.606,-0.33,1.04,1.80,-0.52,0.04,-0.26,
2.606,-0.33,1.04,1.80,-0.54,0.03,-0.27,
2.606,-0.33,1.04,1.80,-0.57,0.02,-0.27,
2.606,-0.33,1.04,1.80,-0.58,0.02,-0.26,
2.608,-0.33,1.04,1.80,-0.60,0.00,-0.26,
2.609,-0.39,0.68,2.88,-0.60,0.00,-0.26,
2.61,-0.39,0.68,2.88,-0.61,-0.01,-0.26,
2.611,-0.39,0.68,2.88,-0.61,-0.02,-0.25,
2.614,-0.39,0.68,2.88,-0.61,-0.03,-0.25,
2.616,-0.39,0.68,2.88,-0.61,-0.04,-0.24,
2.617,-0.39,0.68,2.88,-0.60,-0.04,-0.24,
2.62,-0.07,0.12,3.92,-0.60,-0.04,-0.24,
2.62,-0.07,0.12,3.92,-0.58,-0.04,-0.24,
2.621,-0.07,0.12,3.92,-0.56,-0.04,-0.23,
2.623,-0.07,0.12,3.92,-0.54,-0.03,-0.23,
2.625,-0.07,0.12,3.92,-0.50,-0.01,-0.22,
2.627,-0.07,0.12,3.92,-0.47,0.01,-0.21,
2.636,0.08,-0.40,4.84,-0.47,0.01,-0.21,
2.636,0.08,-0.40,4.84,-0.43,0.04,-0.20,
2.636,0.08,-0.40,4.84,-0.38,0.07,-0.19,
2.637,0.08,-0.40,4.84,-0.34,0.11,-0.17,
2.638,0.08,-0.40,4.84,-0.29,0.15,-0.15,
2.639,0.08,-0.40,4.84,-0.24,0.20,-0.13,
2.64,-0.09,-0.67,5.23,-0.24,0.20,-0.13,
2.64,-0.09,-0.67,5.23,-0.19,0.24,-0.11,
2.668,-0.09,-0.67,5.23,-0.13,0.29,-0.09,
2.668,-0.09,-0.67,5.23,-0.08,0.33,-0.06,
2.669,-0.09,-0.67,5.23,-0.03,0.38,-0.03,
2.669,-0.09,-0.67,5.23,0.01,0.42,-0.01,
2.669,-0.39,-0.85,4.89,0.01,0.42,-0.01,
2.669,-0.39,-0.85,4.89,0.06,0.47,0.03,
2.67,-0.39,-0.85,4.89,0.09,0.51,0.06,
2.67,-0.39,-0.85,4.89,0.12,0.55,0.09,
2.67,-0.39,-0.85,4.89,0.15,0.58,0.12,
2.67,-0.39,-0.85,4.89,0.17,0.62,0.15,
2.671,-0.75,-0.89,3.76,0.17,0.62,0.15,
2.671,-0.75,-0.89,3.76,0.19,0.65,0.18,
2.671,-0.75,-0.89,3.76,0.19,0.67,0.21,
2.671,-0.75,-0.89,3.76,0.20,0.70,0.24,
2.671,-0.75,-0.89,3.76,0.20,0.73,0.27,
2.672,-0.75,-0.89,3.76,0.19,0.75,0.30,
2.672,-1.09,-0.81,2.42,0.19,0.75,0.30,
2.672,-1.09,-0.81,2.42,0.18,0.77,0.32,
2.672,-1.09,-0.81,2.42,0.16,0.79,0.35,
2.674,-1.09,-0.81,2.42,0.14,0.81,0.37,
2.678,-1.09,-0.81,2.42,0.12,0.83,0.40,
2.678,-1.09,-0.81,2.42,0.09,0.84,0.42,
2.681,-1.24,-0.62,1.22,0.09,0.84,0.42,
2.681,-1.24,-0.62,1.22,0.07,0.86,0.45,
2.681,-1.24,-0.62,1.22,0.04,0.86,0.47,
2.683,-1.24,-0.62,1.22,0.00,0.87,0.49,
2.685,-1.24,-0.62,1.22,-0.03,0.87,0.51,
2.688,-1.24,-0.62,1.22,-0.06,0.87,0.53,
2.689,-1.18,-0.47,0.52,-0.06,0.87,0.53,
2.689,-1.18,-0.47,0.52,-0.10,0.86,0.55,
2.692,-1.18,-0.47,0.52,-0.13,0.85,0.57,
2.694,-1.18,-0.47,0.52,-0.18,0.83,0.58,
2.696,-1.18,-0.47,0.52,-0.21,0.81,0.60,
2.697,-1.18,-0.47,0.52,-0.22,0.80,0.60,
2.7,-0.92,-0.32,0.33,-0.22,0.80,0.60,
2.7,-0.92,-0.32,0.33,-0.25,0.77,0.61,
2.701,-0.92,-0.32,0.33,-0.27,0.75,0.61,
2.703,-0.92,-0.32,0.33,-0.29,0.71,0.62,
2.705,-0.92,-0.32,0.33,-0.31,0.68,0.62,
2.706,-0.92,-0.32,0.33,-0.32,0.64,0.62,
2.71,-0.50,-0.28,0.59,-0.32,0.64,0.62,
2.71,-0.50,-0.28,0.59,-0.33,0.60,0.61,
2.711,-0.50,-0.28,0.59,-0.34,0.56,0.61,
2.713,-0.50,-0.28,0.59,-0.34,0.53,0.60,
2.715,-0.50,-0.28,0.59,-0.34,0.49,0.59,
2.717,-0.50,-0.28,0.59,-0.34,0.44,0.58,
2.72,-0.06,-0.25,0.95,-0.34,0.44,0.58,
2.72,-0.06,-0.25,0.95,-0.34,0.40,0.57,
2.721,-0.06,-0.25,0.95,-0.33,0.37,0.56,
2.723,-0.06,-0.25,0.95,-0.32,0.32,0.54,
2.725,-0.06,-0.25,0.95,-0.31,0.28,0.53,
2.727,-0.06,-0.25,0.95,-0.30,0.25,0.52,
2.733,0.26,-0.26,1.25,-0.30,0.25,0.52,
2.734,0.26,-0.26,1.25,-0.28,0.21,0.51,
2.758,0.26,-0.26,1.25,-0.27,0.17,0.50,
2.758,0.26,-0.26,1.25,-0.25,0.14,0.48,
2.758,0.26,-0.26,1.25,-0.23,0.11,0.47,
2.758,0.26,-0.26,1.25,-0.21,0.08,0.46,
2.759,0.31,-0.32,1.32,-0.21,0.08,0.46,
2.759,0.31,-0.32,1.32,-0.19,0.05,0.45,
2.759,0.31,-0.32,1.32,-0.17,0.03,0.45,
2.759,0.31,-0.32,1.32,-0.15,0.01,0.44,
2.759,0.31,-0.32,1.32,-0.14,-0.01,0.44,
2.76,0.31,-0.32,1.32,-0.12,-0.02,0.43,
2.76,0.30,-0.40,1.08,-0.12,-0.02,0.43,
2.76,0.30,-0.40,1.08,-0.10,-0.03,0.43,
2.76,0.30,-0.40,1.08,-0.09,-0.03,0.43,
2.76,0.30,-0.40,1.08,-0.07,-0.04,0.43,
2.761,0.30,-0.40,1.08,-0.07,-0.04,0.43,
2.761,0.30,-0.40,1.08,-0.06,-0.03,0.44,
2.761,0.18,-0.45,0.53,-0.06,-0.03,0.44,
2.761,0.18,-0.45,0.53,-0.05,-0.03,0.44,
2.762,0.18,-0.45,0.53,-0.04,-0.01,0.44,
2.771,0.18,-0.45,0.53,-0.04,-0.00,0.44,
2.771,0.18,-0.45,0.53,-0.04,0.01,0.45,
2.771,0.18,-0.45,0.53,-0.04,0.03,0.45,
2.772,0.13,-0.54,-0.23,-0.04,0.03,0.45,
2.772,0.13,-0.54,-0.23,-0.05,0.05,0.46,
2.772,0.13,-0.54,-0.23,-0.06,0.07,0.46,
2.773,0.13,-0.54,-0.23,-0.07,0.09,0.47,
2.774,0.13,-0.54,-0.23,-0.08,0.11,0.47,
2.777,0.13,-0.54,-0.23,-0.09,0.14,0.48,
2.779,0.06,-0.53,-1.03,-0.09,0.14,0.48,
2.78,0.06,-0.53,-1.03,-0.10,0.16,0.48,
2.782,0.06,-0.53,-1.03,-0.12,0.19,0.49,
2.784,0.06,-0.53,-1.03,-0.14,0.21,0.50,
2.785,0.06,-0.53,-1.03,-0.15,0.24,0.50,
2.787,0.06,-0.53,-1.03,-0.17,0.27,0.50,
2.789,0.03,-0.55,-1.63,-0.17,0.27,0.50,
2.79,0.03,-0.55,-1.63,-0.19,0.30,0.51,
2.79,0.03,-0.55,-1.63,-0.20,0.33,0.51,
2.793,0.03,-0.55,-1.63,-0.22,0.36,0.52,
2.796,0.03,-0.55,-1.63,-0.24,0.38,0.52,
2.798,0.03,-0.55,-1.63,-0.25,0.41,0.52,
2.8,-0.02,-0.59,-2.05,-0.25,0.41,0.52,
2.8,-0.02,-0.59,-2.05,-0.27,0.43,0.53,
2.801,-0.02,-0.59,-2.05,-0.29,0.46,0.53,
2.803,-0.02,-0.59,-2.05,-0.30,0.48,0.53,
2.805,-0.02,-0.59,-2.05,-0.31,0.51,0.54,
2.807,-0.02,-0.59,-2.05,-0.33,0.53,0.54,
2.809,-0.03,-0.60,-2.28,-0.33,0.53,0.54,
2.81,-0.03,-0.60,-2.28,-0.34,0.56,0.55,
2.812,-0.03,-0.60,-2.28,-0.35,0.57,0.55,
2.813,-0.03,-0.60,-2.28,-0.36,0.59,0.55,
2.815,-0.03,-0.60,-2.28,-0.37,0.61,0.56,
2.817,-0.03,-0.60,-2.28,-0.38,0.63,0.56,
2.819,-0.08,-0.65,-2.41,-0.38,0.63,0.56,
2.82,-0.08,-0.65,-2.41,-0.38,0.64,0.56,
2.82,-0.08,-0.65,-2.41,-0.39,0.65,0.56,
2.823,-0.08,-0.65,-2.41,-0.39,0.66,0.56,
2.824,-0.08,-0.65,-2.41,-0.40,0.67,0.57,
2.827,-0.08,-0.65,-2.41,-0.40,0.67,0.57,
2.829,-0.10,-0.73,-2.40,-0.40,0.67,0.57,
2.83,-0.10,-0.73,-2.40,-0.40,0.67,0.58,
2.831,-0.10,-0.73,-2.40,-0.40,0.67,0.58,
2.833,-0.10,-0.73,-2.40,-0.39,0.67,0.58,
2.835,-0.10,-0.73,-2.40,-0.38,0.67,0.59,
2.837,-0.10,-0.73,-2.40,-0.37,0.67,0.59,
2.839,-0.20,-0.67,-2.23,-0.37,0.67,0.59,
2.839,-0.20,-0.67,-2.23,-0.36,0.67,0.60,
2.841,-0.20,-0.67,-2.23,-0.35,0.67,0.61,
2.843,-0.20,-0.67,-2.23,-0.33,0.67,0.61,
2.853,-0.20,-0.67,-2.23,-0.31,0.67,0.62,
2.853,-0.20,-0.67,-2.23,-0.30,0.66,0.64,
2.853,-0.29,-0.61,-2.07,-0.30,0.66,0.64,
2.853,-0.29,-0.61,-2.07,-0.28,0.65,0.65,
2.853,-0.29,-0.61,-2.07,-0.26,0.64,0.65,
2.854,-0.29,-0.61,-2.07,-0.24,0.63,0.66,
2.855,-0.29,-0.61,-2.07,-0.23,0.62,0.67,
2.86,-0.29,-0.61,-2.07,-0.21,0.60,0.68,
2.86,-0.27,-0.50,-2.04,-0.21,0.60,0.68,
2.86,-0.27,-0.50,-2.04,-0.19,0.59,0.69,
2.861,-0.27,-0.50,-2.04,-0.17,0.57,0.70,
2.868,-0.27,-0.50,-2.04,-0.15,0.55,0.71,
2.869,-0.27,-0.50,-2.04,-0.14,0.52,0.72,
2.869,-0.27,-0.50,-2.04,-0.12,0.50,0.72,
2.869,-0.06,-0.61,-2.16,-0.12,0.50,0.72,
2.87,-0.06,-0.61,-2.16,-0.11,0.47,0.72,
2.871,-0.06,-0.61,-2.16,-0.09,0.44,0.72,
2.873,-0.06,-0.61,-2.16,-0.08,0.41,0.73,
2.875,-0.06,-0.61,-2.16,-0.07,0.38,0.73,
2.876,-0.06,-0.61,-2.16,-0.05,0.35,0.73,
2.879,-0.02,-0.56,-2.13,-0.05,0.35,0.73,
2.88,-0.02,-0.56,-2.13,-0.04,0.32,0.73,
2.881,-0.02,-0.56,-2.13,-0.02,0.30,0.74,
2.883,-0.02,-0.56,-2.13,-0.00,0.27,0.74,
2.885,-0.02,-0.56,-2.13,0.01,0.24,0.74,
2.886,-0.02,-0.56,-2.13,0.03,0.21,0.74,
2.889,-0.01,-0.45,-2.02,0.03,0.21,0.74,
2.889,-0.01,-0.45,-2.02,0.04,0.18,0.74,
2.891,-0.01,-0.45,-2.02,0.06,0.16,0.74,
2.893,-0.01,-0.45,-2.02,0.08,0.13,0.75,
2.895,-0.01,-0.45,-2.02,0.10,0.10,0.74,
2.897,-0.01,-0.45,-2.02,0.11,0.07,0.74,
2.919,0.00,-0.38,-1.89,0.11,0.07,0.74,
2.92,0.00,-0.38,-1.89,0.13,0.04,0.74,
2.92,0.00,-0.38,-1.89,0.15,0.01,0.74,
2.921,0.00,-0.38,-1.89,0.17,-0.02,0.74,
2.921,0.00,-0.38,-1.89,0.18,-0.05,0.74,
2.921,0.00,-0.38,-1.89,0.20,-0.08,0.74,
2.922,0.09,-0.33,-1.78,0.20,-0.08,0.74,
2.922,0.09,-0.33,-1.78,0.22,-0.10,0.74,
2.923,0.09,-0.33,-1.78,0.23,-0.13,0.74,
2.923,0.09,-0.33,-1.78,0.24,-0.15,0.73,
2.923,0.09,-0.33,-1.78,0.26,-0.17,0.73,
2.924,0.09,-0.33,-1.78,0.26,-0.19,0.73,
2.924,0.15,-0.27,-1.81,0.26,-0.19,0.73,
2.925,0.15,-0.27,-1.81,0.27,-0.21,0.73,
2.925,0.15,-0.27,-1.81,0.28,-0.22,0.72,
2.926,0.15,-0.27,-1.81,0.28,-0.23,0.72,
2.926,0.15,-0.27,-1.81,0.29,-0.25,0.72,
2.933,0.15,-0.27,-1.81,0.29,-0.26,0.71,
2.934,0.20,-0.25,-1.91,0.29,-0.26,0.71,
2.934,0.20,-0.25,-1.91,0.29,-0.26,0.71,
2.934,0.20,-0.25,-1.91,0.29,-0.27,0.71,
2.935,0.20,-0.25,-1.91,0.29,-0.28,0.70,
2.935,0.20,-0.25,-1.91,0.28,-0.28,0.70,
2.937,0.20,-0.25,-1.91,0.28,-0.29,0.70,
2.939,0.26,-0.24,-1.92,0.28,-0.29,0.70,
2.939,0.26,-0.24,-1.92,0.27,-0.29,0.69,
2.94,0.26,-0.24,-1.92,0.27,-0.29,0.69,
2.943,0.26,-0.24,-1.92,0.26,-0.29,0.69,
2.945,0.26,-0.24,-1.92,0.26,-0.28,0.68,
2.947,0.26,-0.24,-1.92,0.25,-0.28,0.67,
2.949,0.42,-0.23,-1.77,0.25,-0.28,0.67,
2.949,0.42,-0.23,-1.77,0.25,-0.27,0.66,
2.95,0.42,-0.23,-1.77,0.24,-0.27,0.66,
2.953,0.42,-0.23,-1.77,0.23,-0.26,0.65,
2.955,0.42,-0.23,-1.77,0.23,-0.25,0.64,
2.957,0.42,-0.23,-1.77,0.22,-0.24,0.63,
2.959,0.57,-0.27,-1.58,0.22,-0.24,0.63,
2.959,0.57,-0.27,-1.58,0.22,-0.23,0.61,
2.969,0.57,-0.27,-1.58,0.21,-0.22,0.60,
2.97,0.57,-0.27,-1.58,0.20,-0.20,0.57,
2.97,0.57,-0.27,-1.58,0.20,-0.20,0.57,
2.97,0.57,-0.27,-1.58,0.20,-0.19,0.56,
2.971,0.75,-0.34,-1.25,0.20,-0.19,0.56,
2.971,0.75,-0.34,-1.25,0.20,-0.18,0.54,
2.973,0.75,-0.34,-1.25,0.20,-0.17,0.53,
2.974,0.75,-0.34,-1.25,0.20,-0.16,0.51,
2.975,0.75,-0.34,-1.25,0.20,-0.15,0.49,
2.989,0.75,-0.34,-1.25,0.21,-0.14,0.48,
2.99,0.73,-0.36,-0.83,0.21,-0.14,0.48,
2.99,0.73,-0.36,-0.83,0.21,-0.12,0.46,
2.991,0.73,-0.36,-0.83,0.22,-0.11,0.45,
2.992,0.73,-0.36,-0.83,0.23,-0.10,0.43,
2.992,0.73,-0.36,-0.83,0.24,-0.09,0.42,
2.992,0.73,-0.36,-0.83,0.25,-0.08,0.40,
2.992,0.64,-0.32,-0.43,0.25,-0.08,0.40,
2.993,0.64,-0.32,-0.43,0.26,-0.07,0.39,
2.993,0.64,-0.32,-0.43,0.27,-0.05,0.38,
2.993,0.64,-0.32,-0.43,0.28,-0.04,0.37,
3.003,0.64,-0.32,-0.43,0.29,-0.03,0.35,
3.004,0.64,-0.32,-0.43,0.30,-0.02,0.34,
3.004,0.46,-0.36,-0.29,0.30,-0.02,0.34,
3.004,0.46,-0.36,-0.29,0.30,-0.01,0.33,
3.004,0.46,-0.36,-0.29,0.31,-0.01,0.31,
3.005,0.46,-0.36,-0.29,0.31,-0.01,0.30,
3.005,0.46,-0.36,-0.29,0.32,-0.00,0.29,
3.007,0.46,-0.36,-0.29,0.32,-0.00,0.28,
3.01,0.31,-0.49,-0.09,0.32,-0.00,0.28,
3.01,0.31,-0.49,-0.09,0.33,-0.00,0.27,
3.018,0.31,-0.49,-0.09,0.33,-0.01,0.26,
3.019,0.31,-0.49,-0.09,0.33,-0.00,0.25,
3.019,0.31,-0.49,-0.09,0.34,-0.00,0.25,
3.019,0.31,-0.49,-0.09,0.34,-0.00,0.24,
3.026,0.07,-0.55,0.15,0.34,-0.00,0.24,
3.026,0.07,-0.55,0.15,0.35,0.00,0.24,
3.03,0.07,-0.55,0.15,0.35,0.00,0.24,
3.03,0.07,-0.55,0.15,0.35,0.01,0.23,
3.03,0.07,-0.55,0.15,0.36,0.01,0.23,
3.031,0.07,-0.55,0.15,0.36,0.01,0.23,
3.031,-0.12,-0.66,0.41,0.36,0.01,0.23,
3.031,-0.12,-0.66,0.41,0.37,0.02,0.24,
3.032,-0.12,-0.66,0.41,0.37,0.02,0.24,
3.033,-0.12,-0.66,0.41,0.37,0.02,0.24,
3.035,-0.12,-0.66,0.41,0.37,0.02,0.24,
3.037,-0.12,-0.66,0.41,0.37,0.02,0.24,
3.04,-0.28,-0.68,0.55,0.37,0.02,0.24,
3.04,-0.28,-0.68,0.55,0.37,0.02,0.25,
3.041,-0.28,-0.68,0.55,0.37,0.02,0.25,
3.045,-0.28,-0.68,0.55,0.37,0.02,0.26,
3.045,-0.28,-0.68,0.55,0.36,0.01,0.26,
3.047,-0.28,-0.68,0.55,0.36,0.01,0.26,
3.05,-0.15,-0.69,0.69,0.36,0.01,0.26,
3.05,-0.15,-0.69,0.69,0.36,0.01,0.26,
3.051,-0.15,-0.69,0.69,0.35,0.01,0.26,
3.053,-0.15,-0.69,0.69,0.35,0.01,0.25,
3.055,-0.15,-0.69,0.69,0.34,0.01,0.25,
3.057,-0.15,-0.69,0.69,0.34,0.02,0.25,
3.06,0.12,-0.61,0.82,0.34,0.02,0.25,
3.06,0.12,-0.61,0.82,0.33,0.02,0.24,
3.063,0.12,-0.61,0.82,0.32,0.03,0.23,
3.063,0.12,-0.61,0.82,0.31,0.03,0.22,
3.094,0.12,-0.61,0.82,0.30,0.04,0.22,
3.095,0.12,-0.61,0.82,0.29,0.05,0.21,
3.095,0.43,-0.57,0.83,0.29,0.05,0.21,
3.095,0.43,-0.57,0.83,0.27,0.05,0.20,
3.096,0.43,-0.57,0.83,0.26,0.06,0.19,
3.096,0.43,-0.57,0.83,0.24,0.06,0.18,
3.097,0.43,-0.57,0.83,0.22,0.07,0.17,
3.097,0.43,-0.57,0.83,0.20,0.07,0.15,
3.098,0.64,-0.45,0.75,0.20,0.07,0.15,
3.098,0.64,-0.45,0.75,0.18,0.08,0.14,
3.098,0.64,-0.45,0.75,0.15,0.09,0.13,
3.099,0.64,-0.45,0.75,0.13,0.09,0.12,
3.099,0.64,-0.45,0.75,0.10,0.10,0.10,
3.1,0.64,-0.45,0.75,0.07,0.11,0.09,
3.1,0.93,-0.40,0.72,0.07,0.11,0.09,
3.1,0.93,-0.40,0.72,0.05,0.11,0.07,
3.101,0.93,-0.40,0.72,0.02,0.12,0.06,
3.101,0.93,-0.40,0.72,-0.01,0.13,0.05,
3.102,0.93,-0.40,0.72,-0.04,0.14,0.03,
3.102,0.93,-0.40,0.72,-0.07,0.15,0.02,
3.102,1.04,-0.31,0.76,-0.07,0.15,0.02,
3.103,1.04,-0.31,0.76,-0.10,0.16,0.00,
3.103,1.04,-0.31,0.76,-0.13,0.17,-0.01,
3.104,1.04,-0.31,0.76,-0.16,0.17,-0.03,
3.111,1.04,-0.31,0.76,-0.19,0.18,-0.04,
3.112,1.04,-0.31,0.76,-0.22,0.19,-0.06,
3.112,1.19,-0.33,0.94,-0.22,0.19,-0.06,
3.113,1.19,-0.33,0.94,-0.24,0.19,-0.07,
3.113,1.19,-0.33,0.94,-0.27,0.20,-0.09,
3.113,1.19,-0.33,0.94,-0.29,0.20,-0.10,
3.115,1.19,-0.33,0.94,-0.31,0.20,-0.11,
3.117,1.19,-0.33,0.94,-0.34,0.21,-0.12,
3.119,1.08,-0.23,1.35,-0.34,0.21,-0.12,
3.12,1.08,-0.23,1.35,-0.35,0.21,-0.13,
3.121,1.08,-0.23,1.35,-0.37,0.21,-0.14,
3.123,1.08,-0.23,1.35,-0.39,0.21,-0.14,
3.125,1.08,-0.23,1.35,-0.40,0.22,-0.15,
3.128,1.08,-0.23,1.35,-0.41,0.22,-0.14,
3.13,1.05,-0.15,1.94,-0.41,0.22,-0.14,
3.13,1.05,-0.15,1.94,-0.42,0.22,-0.14,
3.131,1.05,-0.15,1.94,-0.42,0.22,-0.14,
3.133,1.05,-0.15,1.94,-0.43,0.22,-0.13,
3.135,1.05,-0.15,1.94,-0.44,0.23,-0.13,
3.137,1.05,-0.15,1.94,-0.44,0.22,-0.13,
3.139,1.01,-0.04,2.37,-0.44,0.22,-0.13,
3.139,1.01,-0.04,2.37,-0.44,0.22,-0.12,
3.141,1.01,-0.04,2.37,-0.44,0.22,-0.11,
3.149,1.01,-0.04,2.37,-0.45,0.21,-0.11,
3.15,1.01,-0.04,2.37,-0.46,0.20,-0.10,
3.15,1.01,-0.04,2.37,-0.47,0.18,-0.10,
3.15,1.26,0.02,2.43,-0.47,0.18,-0.10,
3.151,1.26,0.02,2.43,-0.48,0.17,-0.10,
3.151,1.26,0.02,2.43,-0.50,0.14,-0.10,
3.18,1.26,0.02,2.43,-0.52,0.12,-0.11,
3.18,1.26,0.02,2.43,-0.55,0.09,-0.13,
3.181,1.26,0.02,2.43,-0.57,0.06,-0.15,
3.181,1.84,0.02,2.28,-0.57,0.06,-0.15,
3.181,1.84,0.02,2.28,-0.60,0.04,-0.17,
3.181,1.84,0.02,2.28,-0.63,0.01,-0.19,
3.181,1.84,0.02,2.28,-0.66,-0.01,-0.22,
3.182,1.84,0.02,2.28,-0.68,-0.03,-0.25,
3.182,1.84,0.02,2.28,-0.71,-0.03,-0.28,
3.182,2.35,-0.09,2.62,-0.71,-0.03,-0.28,
3.182,2.35,-0.09,2.62,-0.73,-0.03,-0.32,
3.182,2.35,-0.09,2.62,-0.75,-0.03,-0.35,
3.183,2.35,-0.09,2.62,-0.76,-0.02,-0.38,
3.183,2.35,-0.09,2.62,-0.77,-0.00,-0.41,
3.183,2.35,-0.09,2.62,-0.77,0.02,-0.43,
3.183,2.17,-0.30,3.35,-0.77,0.02,-0.43,
3.183,2.17,-0.30,3.35,-0.77,0.05,-0.45,
3.183,2.17,-0.30,3.35,-0.76,0.08,-0.46,
3.184,2.17,-0.30,3.35,-0.75,0.12,-0.47,
3.185,2.17,-0.30,3.35,-0.73,0.15,-0.48,
3.187,2.17,-0.30,3.35,-0.72,0.19,-0.47,
3.19,1.52,-0.66,4.09,-0.72,0.19,-0.47,
3.19,1.52,-0.66,4.09,-0.70,0.23,-0.47,
3.191,1.52,-0.66,4.09,-0.67,0.26,-0.45,
3.194,1.52,-0.66,4.09,-0.65,0.29,-0.44,
3.196,1.52,-0.66,4.09,-0.62,0.32,-0.42,
3.199,1.52,-0.66,4.09,-0.59,0.35,-0.39,
3.2,0.82,-1.05,4.58,-0.59,0.35,-0.39,
3.201,0.82,-1.05,4.58,-0.56,0.38,-0.36,
3.201,0.82,-1.05,4.58,-0.52,0.41,-0.33,
3.203,0.82,-1.05,4.58,-0.48,0.44,-0.29,
3.213,0.82,-1.05,4.58,-0.44,0.46,-0.25,
3.213,0.82,-1.05,4.58,-0.40,0.49,-0.21,
3.214,0.36,-1.40,4.82,-0.40,0.49,-0.21,
3.214,0.36,-1.40,4.82,-0.36,0.51,-0.16,
3.214,0.36,-1.40,4.82,-0.32,0.52,-0.12,
3.214,0.36,-1.40,4.82,-0.27,0.54,-0.08,
3.216,0.36,-1.40,4.82,-0.23,0.55,-0.03,
3.217,0.36,-1.40,4.82,-0.18,0.56,0.02,
3.22,0.13,-1.60,4.76,-0.18,0.56,0.02,
3.22,0.13,-1.60,4.76,-0.13,0.56,0.06,
3.221,0.13,-1.60,4.76,-0.08,0.57,0.10,
3.223,0.13,-1.60,4.76,-0.03,0.56,0.15,
3.226,0.13,-1.60,4.76,0.03,0.56,0.19,
3.232,0.13,-1.60,4.76,0.07,0.55,0.23,
3.233,0.19,-1.81,4.40,0.07,0.55,0.23,
3.234,0.19,-1.81,4.40,0.12,0.53,0.27,
3.262,0.19,-1.81,4.40,0.17,0.51,0.30,
3.263,0.19,-1.81,4.40,0.22,0.48,0.33,
3.263,0.19,-1.81,4.40,0.26,0.45,0.36,
3.264,0.19,-1.81,4.40,0.30,0.42,0.39,
3.264,0.47,-1.79,3.61,0.30,0.42,0.39,
3.264,0.47,-1.79,3.61,0.34,0.37,0.41,
3.265,0.47,-1.79,3.61,0.38,0.33,0.43,
3.265,0.47,-1.79,3.61,0.41,0.28,0.45,
3.266,0.47,-1.79,3.61,0.44,0.22,0.47,
3.266,0.47,-1.79,3.61,0.47,0.16,0.48,
3.267,0.93,-1.77,2.75,0.47,0.16,0.48,
3.267,0.93,-1.77,2.75,0.50,0.10,0.49,
3.267,0.93,-1.77,2.75,0.52,0.03,0.50,
3.268,0.93,-1.77,2.75,0.54,-0.04,0.51,
3.268,0.93,-1.77,2.75,0.56,-0.11,0.52,
3.269,0.93,-1.77,2.75,0.57,-0.18,0.52,
3.269,1.41,-1.52,1.96,0.57,-0.18,0.52,
3.269,1.41,-1.52,1.96,0.58,-0.26,0.51,
3.27,1.41,-1.52,1.96,0.59,-0.33,0.51,
3.27,1.41,-1.52,1.96,0.59,-0.41,0.50,
3.271,1.41,-1.52,1.96,0.60,-0.48,0.48,
3.271,1.41,-1.52,1.96,0.60,-0.54,0.46,
3.272,2.22,-1.25,1.43,0.60,-0.54,0.46,
3.272,2.22,-1.25,1.43,0.60,-0.61,0.43,
3.272,2.22,-1.25,1.43,0.59,-0.67,0.41,
3.273,2.22,-1.25,1.43,0.59,-0.72,0.37,
3.29,2.22,-1.25,1.43,0.58,-0.78,0.33,
3.291,2.22,-1.25,1.43,0.57,-0.82,0.29,
3.291,2.79,-1.05,1.10,0.57,-0.82,0.29,
3.291,2.79,-1.05,1.10,0.56,-0.86,0.25,
3.291,2.79,-1.05,1.10,0.55,-0.89,0.21,
3.292,2.79,-1.05,1.10,0.54,-0.92,0.16,
3.292,2.79,-1.05,1.10,0.53,-0.94,0.11,
3.292,2.79,-1.05,1.10,0.52,-0.96,0.06,
3.292,3.03,-1.07,0.92,0.52,-0.96,0.06,
3.292,3.03,-1.07,0.92,0.51,-0.97,0.02,
3.293,3.03,-1.07,0.92,0.50,-0.98,-0.02,
3.313,3.03,-1.07,0.92,0.49,-0.99,-0.07,
3.314,3.03,-1.07,0.92,0.48,-1.00,-0.11,
3.314,3.03,-1.07,0.92,0.47,-1.00,-0.14,
3.315,2.66,-1.17,0.67,0.47,-1.00,-0.14,
3.315,2.66,-1.17,0.67,0.46,-0.99,-0.17,
3.315,2.66,-1.17,0.67,0.44,-0.98,-0.20,
3.315,2.66,-1.17,0.67,0.43,-0.96,-0.22,
3.315,2.66,-1.17,0.67,0.41,-0.94,-0.24,
3.316,2.66,-1.17,0.67,0.40,-0.92,-0.26,
3.316,2.07,-1.35,0.36,0.40,-0.92,-0.26,
3.316,2.07,-1.35,0.36,0.39,-0.89,-0.27,
3.316,2.07,-1.35,0.36,0.37,-0.85,-0.28,
3.317,2.07,-1.35,0.36,0.35,-0.82,-0.28,
3.317,2.07,-1.35,0.36,0.34,-0.78,-0.28,
3.317,2.07,-1.35,0.36,0.32,-0.74,-0.28,
3.319,1.44,-1.47,-0.05,0.32,-0.74,-0.28,
3.32,1.44,-1.47,-0.05,0.31,-0.70,-0.27,
3.321,1.44,-1.47,-0.05,0.30,-0.66,-0.26,
3.323,1.44,-1.47,-0.05,0.28,-0.61,-0.26,
3.325,1.44,-1.47,-0.05,0.26,-0.57,-0.25,
3.327,1.44,-1.47,-0.05,0.25,-0.53,-0.24,
3.329,0.97,-1.57,-0.50,0.25,-0.53,-0.24,
3.329,0.97,-1.57,-0.50,0.23,-0.48,-0.22,
3.332,0.97,-1.57,-0.50,0.21,-0.43,-0.21,
3.333,0.97,-1.57,-0.50,0.20,-0.39,-0.19,
3.335,0.97,-1.57,-0.50,0.18,-0.35,-0.17,
3.337,0.97,-1.57,-0.50,0.16,-0.31,-0.16,
3.339,0.64,-1.51,-1.06,0.16,-0.31,-0.16,
3.34,0.64,-1.51,-1.06,0.15,-0.26,-0.14,
3.341,0.64,-1.51,-1.06,0.13,-0.22,-0.13,
3.344,0.64,-1.51,-1.06,0.11,-0.18,-0.12,
3.345,0.64,-1.51,-1.06,0.09,-0.15,-0.10,
3.347,0.64,-1.51,-1.06,0.07,-0.11,-0.09,
3.349,0.59,-1.45,-1.57,0.07,-0.11,-0.09,
3.35,0.59,-1.45,-1.57,0.05,-0.08,-0.08,
3.351,0.59,-1.45,-1.57,0.04,-0.05,-0.07,
3.353,0.59,-1.45,-1.57,0.02,-0.02,-0.06,
3.357,0.59,-1.45,-1.57,-0.00,0.01,-0.05,
3.357,0.59,-1.45,-1.57,-0.02,0.03,-0.05,
3.362,0.73,-1.35,-2.02,-0.02,0.03,-0.05,
3.363,0.73,-1.35,-2.02,-0.03,0.06,-0.04,
3.363,0.73,-1.35,-2.02,-0.05,0.08,-0.04,
3.364,0.73,-1.35,-2.02,-0.06,0.10,-0.04,
3.365,0.73,-1.35,-2.02,-0.07,0.12,-0.03,
3.367,0.73,-1.35,-2.02,-0.08,0.14,-0.03,
3.369,0.87,-1.22,-2.25,-0.08,0.14,-0.03,
3.37,0.87,-1.22,-2.25,-0.09,0.15,-0.03,
3.371,0.87,-1.22,-2.25,-0.10,0.17,-0.03,
3.373,0.87,-1.22,-2.25,-0.10,0.18,-0.03,
3.375,0.87,-1.22,-2.25,-0.10,0.19,-0.03,
3.377,0.87,-1.22,-2.25,-0.10,0.20,-0.03,
3.38,0.86,-1.10,-2.37,-0.10,0.20,-0.03,
3.38,0.86,-1.10,-2.37,-0.10,0.20,-0.03,
3.381,0.86,-1.10,-2.37,-0.10,0.20,-0.03,
3.383,0.86,-1.10,-2.37,-0.09,0.20,-0.03,
3.385,0.86,-1.10,-2.37,-0.09,0.20,-0.04,
3.387,0.86,-1.10,-2.37,-0.08,0.20,-0.04,
3.39,0.92,-0.98,-2.50,-0.08,0.20,-0.04,
3.39,0.92,-0.98,-2.50,-0.07,0.19,-0.04,
3.39,0.92,-0.98,-2.50,-0.07,0.19,-0.04,
3.406,0.92,-0.98,-2.50,-0.06,0.18,-0.05,
3.406,0.92,-0.98,-2.50,-0.05,0.17,-0.06,
3.406,0.92,-0.98,-2.50,-0.04,0.17,-0.06,
3.424,0.93,-0.86,-2.71,-0.04,0.17,-0.06,
3.425,0.93,-0.86,-2.71,-0.04,0.16,-0.06,
3.425,0.93,-0.86,-2.71,-0.03,0.15,-0.07,
3.426,0.93,-0.86,-2.71,-0.02,0.14,-0.08,
3.426,0.93,-0.86,-2.71,-0.01,0.13,-0.08,
3.426,0.93,-0.86,-2.71,-0.00,0.12,-0.09,
3.426,0.99,-0.76,-2.86,-0.00,0.12,-0.09,
3.427,0.99,-0.76,-2.86,0.01,0.11,-0.10,
3.427,0.99,-0.76,-2.86,0.02,0.10,-0.11,
3.427,0.99,-0.76,-2.86,0.04,0.09,-0.11,
3.427,0.99,-0.76,-2.86,0.05,0.09,-0.13,
3.428,0.99,-0.76,-2.86,0.06,0.09,-0.14,
3.428,1.00,-0.67,-2.95,0.06,0.09,-0.14,
3.428,1.00,-0.67,-2.95,0.07,0.08,-0.15,
3.428,1.00,-0.67,-2.95,0.08,0.08,-0.16,
3.429,1.00,-0.67,-2.95,0.09,0.09,-0.17,
3.429,1.00,-0.67,-2.95,0.10,0.09,-0.18,
3.429,1.00,-0.67,-2.95,0.11,0.09,-0.19,
3.434,1.07,-0.64,-3.15,0.11,0.09,-0.19,
3.435,1.07,-0.64,-3.15,0.11,0.09,-0.20,
3.435,1.07,-0.64,-3.15,0.11,0.09,-0.21,
3.435,1.07,-0.64,-3.15,0.12,0.09,-0.22,
3.435,1.07,-0.64,-3.15,0.12,0.09,-0.23,
3.44,1.07,-0.64,-3.15,0.11,0.09,-0.24,
3.441,0.95,-0.60,-3.45,0.11,0.09,-0.24,
3.441,0.95,-0.60,-3.45,0.11,0.10,-0.25,
3.443,0.95,-0.60,-3.45,0.10,0.10,-0.26,
3.443,0.95,-0.60,-3.45,0.09,0.10,-0.27,
3.445,0.95,-0.60,-3.45,0.08,0.10,-0.28,
3.447,0.95,-0.60,-3.45,0.07,0.11,-0.29,
3.449,0.92,-0.46,-3.75,0.07,0.11,-0.29,
3.45,0.92,-0.46,-3.75,0.06,0.11,-0.30,
3.45,0.92,-0.46,-3.75,0.04,0.11,-0.31,
3.453,0.92,-0.46,-3.75,0.03,0.11,-0.32,
3.455,0.92,-0.46,-3.75,0.01,0.11,-0.33,
3.457,0.92,-0.46,-3.75,-0.00,0.10,-0.35,
3.46,0.85,-0.33,-3.82,-0.00,0.10,-0.35,
3.46,0.85,-0.33,-3.82,-0.02,0.10,-0.36,
3.461,0.85,-0.33,-3.82,-0.04,0.10,-0.37,
3.463,0.85,-0.33,-3.82,-0.06,0.09,-0.38,
3.465,0.85,-0.33,-3.82,-0.09,0.08,-0.40,
3.469,0.85,-0.33,-3.82,-0.09,0.07,-0.40,
3.469,0.85,-0.33,-3.82,-0.12,0.06,-0.42,
3.47,0.83,-0.17,-3.70,-0.12,0.06,-0.42,
3.471,0.83,-0.17,-3.70,-0.14,0.05,-0.44,
3.473,0.83,-0.17,-3.70,-0.15,0.04,-0.44,
3.475,0.83,-0.17,-3.70,-0.18,0.02,-0.46,
3.477,0.83,-0.17,-3.70,-0.19,0.02,-0.47,
3.479,0.80,-0.10,-3.37,-0.19,0.02,-0.47,
3.48,0.80,-0.10,-3.37,-0.20,0.01,-0.49,
3.482,0.80,-0.10,-3.37,-0.22,-0.00,-0.50,
3.483,0.80,-0.10,-3.37,-0.23,-0.01,-0.51,
3.485,0.80,-0.10,-3.37,-0.25,-0.03,-0.54,
3.487,0.80,-0.10,-3.37,-0.26,-0.03,-0.54,
3.49,0.84,0.02,-2.98,-0.26,-0.03,-0.54,
3.49,0.84,0.02,-2.98,-0.27,-0.05,-0.56,
3.491,0.84,0.02,-2.98,-0.29,-0.06,-0.57,
3.493,0.84,0.02,-2.98,-0.30,-0.07,-0.58,
3.496,0.84,0.02,-2.98,-0.32,-0.09,-0.60,
3.497,0.84,0.02,-2.98,-0.32,-0.09,-0.61,
3.499,0.79,0.06,-2.50,-0.32,-0.09,-0.61,
3.499,0.79,0.06,-2.50,-0.33,-0.11,-0.62,
3.501,0.79,0.06,-2.50,-0.34,-0.12,-0.63,
3.503,0.79,0.06,-2.50,-0.35,-0.13,-0.64,
3.505,0.79,0.06,-2.50,-0.36,-0.15,-0.66,
3.507,0.79,0.06,-2.50,-0.37,-0.16,-0.66,
3.517,0.70,0.07,-2.03,-0.37,-0.16,-0.66,
3.517,0.70,0.07,-2.03,-0.37,-0.17,-0.67,
3.517,0.70,0.07,-2.03,-0.38,-0.18,-0.68,
3.517,0.70,0.07,-2.03,-0.39,-0.19,-0.69,
3.518,0.70,0.07,-2.03,-0.40,-0.20,-0.69,
3.518,0.70,0.07,-2.03,-0.40,-0.21,-0.70,
3.519,0.56,-0.02,-1.56,-0.40,-0.21,-0.70,
3.519,0.56,-0.02,-1.56,-0.41,-0.21,-0.70,
3.521,0.56,-0.02,-1.56,-0.41,-0.21,-0.70,
3.523,0.56,-0.02,-1.56,-0.41,-0.22,-0.70,
3.536,0.56,-0.02,-1.56,-0.41,-0.22,-0.70,
3.536,0.56,-0.02,-1.56,-0.41,-0.22,-0.70,
3.536,0.45,-0.04,-1.03,-0.41,-0.22,-0.70,
3.536,0.45,-0.04,-1.03,-0.42,-0.21,-0.70,
3.536,0.45,-0.04,-1.03,-0.41,-0.21,-0.69,
3.536,0.45,-0.04,-1.03,-0.41,-0.21,-0.69,
3.537,0.45,-0.04,-1.03,-0.40,-0.21,-0.68,
3.538,0.45,-0.04,-1.03,-0.40,-0.20,-0.68,
3.539,0.41,-0.09,-0.50,-0.40,-0.20,-0.68,
3.54,0.41,-0.09,-0.50,-0.39,-0.19,-0.67,
3.545,0.41,-0.09,-0.50,-0.38,-0.18,-0.67,
3.546,0.41,-0.09,-0.50,-0.37,-0.17,-0.66,
3.547,0.41,-0.09,-0.50,-0.37,-0.16,-0.65,
3.547,0.41,-0.09,-0.50,-0.36,-0.15,-0.64,
3.55,0.42,-0.13,-0.05,-0.36,-0.15,-0.64,
3.551,0.42,-0.13,-0.05,-0.34,-0.13,-0.64,
3.553,0.42,-0.13,-0.05,-0.34,-0.12,-0.63,
3.554,0.42,-0.13,-0.05,-0.33,-0.11,-0.62,
3.555,0.42,-0.13,-0.05,-0.32,-0.10,-0.61,
3.556,0.42,-0.13,-0.05,-0.30,-0.08,-0.60,
3.559,0.41,-0.12,0.32,-0.30,-0.08,-0.60,
3.56,0.41,-0.12,0.32,-0.29,-0.07,-0.59,
3.561,0.41,-0.12,0.32,-0.28,-0.05,-0.58,
3.563,0.41,-0.12,0.32,-0.27,-0.04,-0.56,
3.584,0.41,-0.12,0.32,-0.26,-0.02,-0.55,
3.584,0.41,-0.12,0.32,-0.24,-0.00,-0.53,
3.584,0.19,-0.02,0.65,-0.24,-0.00,-0.53,
3.584,0.19,-0.02,0.65,-0.23,0.01,-0.52,
3.584,0.19,-0.02,0.65,-0.22,0.03,-0.50,
3.585,0.19,-0.02,0.65,-0.20,0.05,-0.48,
3.585,0.19,-0.02,0.65,-0.19,0.07,-0.46,
3.585,0.19,-0.02,0.65,-0.17,0.09,-0.44,
3.585,-0.15,0.16,1.00,-0.17,0.09,-0.44,
3.586,-0.15,0.16,1.00,-0.15,0.10,-0.42,
3.586,-0.15,0.16,1.00,-0.13,0.12,-0.39,
3.586,-0.15,0.16,1.00,-0.12,0.14,-0.37,
3.587,-0.15,0.16,1.00,-0.09,0.16,-0.34,
3.587,-0.15,0.16,1.00,-0.07,0.18,-0.32,
3.594,-0.52,0.39,1.32,-0.07,0.18,-0.32,
3.595,-0.52,0.39,1.32,-0.05,0.20,-0.29,
3.595,-0.52,0.39,1.32,-0.03,0.22,-0.26,
3.596,-0.52,0.39,1.32,-0.01,0.24,-0.23,
3.596,-0.52,0.39,1.32,0.01,0.26,-0.21,
3.597,-0.52,0.39,1.32,0.03,0.27,-0.18,
3.599,-0.83,0.70,1.48,0.03,0.27,-0.18,
3.599,-0.83,0.70,1.48,0.05,0.28,-0.15,
3.601,-0.83,0.70,1.48,0.08,0.29,-0.12,
3.603,-0.83,0.70,1.48,0.09,0.29,-0.09,
3.606,-0.83,0.70,1.48,0.11,0.28,-0.07,
3.607,-0.83,0.70,1.48,0.13,0.28,-0.04,
3.609,-1.01,1.00,1.52,0.13,0.28,-0.04,
3.61,-1.01,1.00,1.52,0.15,0.26,-0.02,
3.611,-1.01,1.00,1.52,0.17,0.25,0.00,
3.613,-1.01,1.00,1.52,0.18,0.23,0.02,
3.615,-1.01,1.00,1.52,0.20,0.21,0.04,
3.617,-1.01,1.00,1.52,0.22,0.19,0.05,
3.619,-0.86,1.22,1.57,0.22,0.19,0.05,
3.619,-0.86,1.22,1.57,0.23,0.16,0.07,
3.621,-0.86,1.22,1.57,0.25,0.13,0.08,
3.623,-0.86,1.22,1.57,0.26,0.09,0.09,
3.626,-0.86,1.22,1.57,0.28,0.05,0.09,
3.628,-0.86,1.22,1.57,0.29,0.01,0.09,
3.629,-0.46,1.39,1.71,0.29,0.01,0.09,
3.63,-0.46,1.39,1.71,0.30,-0.03,0.09,
3.631,-0.46,1.39,1.71,0.31,-0.08,0.08,
3.633,-0.46,1.39,1.71,0.32,-0.14,0.07,
3.635,-0.46,1.39,1.71,0.32,-0.19,0.06,
3.637,-0.46,1.39,1.71,0.33,-0.25,0.04,
3.639,0.14,1.48,1.91,0.33,-0.25,0.04,
3.654,0.14,1.48,1.91,0.33,-0.31,0.03,
3.654,0.14,1.48,1.91,0.33,-0.37,0.00,
3.655,0.14,1.48,1.91,0.33,-0.43,-0.02,
3.655,0.14,1.48,1.91,0.32,-0.48,-0.04,
3.655,0.14,1.48,1.91,0.32,-0.54,-0.07,
3.656,0.67,1.46,2.25,0.32,-0.54,-0.07,
3.656,0.67,1.46,2.25,0.31,-0.60,-0.10,
3.657,0.67,1.46,2.25,0.30,-0.64,-0.13,
3.657,0.67,1.46,2.25,0.29,-0.69,-0.16,
3.657,0.67,1.46,2.25,0.29,-0.74,-0.20,
3.658,0.67,1.46,2.25,0.28,-0.77,-0.23,
3.674,1.03,1.30,2.79,0.28,-0.77,-0.23,
3.674,1.03,1.30,2.79,0.27,-0.80,-0.26,
3.675,1.03,1.30,2.79,0.27,-0.83,-0.29,
3.675,1.03,1.30,2.79,0.26,-0.84,-0.32,
3.675,1.03,1.30,2.79,0.26,-0.85,-0.35,
3.676,1.03,1.30,2.79,0.26,-0.85,-0.37,
3.676,1.09,1.11,3.44,0.26,-0.85,-0.37,
3.676,1.09,1.11,3.44,0.26,-0.85,-0.40,
3.676,1.09,1.11,3.44,0.26,-0.84,-0.42,
3.677,1.09,1.11,3.44,0.27,-0.82,-0.44,
3.677,1.09,1.11,3.44,0.27,-0.78,-0.45,
3.677,1.09,1.11,3.44,0.28,-0.75,-0.47,
3.681,0.91,0.83,3.91,0.28,-0.75,-0.47,
3.682,0.91,0.83,3.91,0.29,-0.70,-0.48,
3.682,0.91,0.83,3.91,0.29,-0.65,-0.49,
3.684,0.91,0.83,3.91,0.30,-0.59,-0.49,
3.686,0.91,0.83,3.91,0.31,-0.53,-0.49,
3.687,0.91,0.83,3.91,0.31,-0.46,-0.49,
3.69,0.47,0.58,4.02,0.31,-0.46,-0.49,
3.69,0.47,0.58,4.02,0.32,-0.39,-0.48,
3.699,0.47,0.58,4.02,0.32,-0.32,-0.47,
3.699,0.47,0.58,4.02,0.33,-0.24,-0.46,
3.7,0.47,0.58,4.02,0.32,-0.17,-0.44,
3.7,0.47,0.58,4.02,0.32,-0.09,-0.41,
3.7,-0.14,0.55,3.67,0.32,-0.09,-0.41,
3.701,-0.14,0.55,3.67,0.32,-0.02,-0.39,
3.701,-0.14,0.55,3.67,0.31,0.05,-0.36,
3.704,-0.14,0.55,3.67,0.31,0.13,-0.32,
3.709,-0.14,0.55,3.67,0.29,0.19,-0.29,
3.709,-0.14,0.55,3.67,0.27,0.25,-0.25,
3.71,-0.77,0.63,2.92,0.27,0.25,-0.25,
3.71,-0.77,0.63,2.92,0.25,0.31,-0.21,
3.715,-0.77,0.63,2.92,0.22,0.36,-0.18,
3.716,-0.77,0.63,2.92,0.19,0.40,-0.14,
3.716,-0.77,0.63,2.92,0.15,0.43,-0.10,
3.72,-0.77,0.63,2.92,0.12,0.46,-0.07,
3.72,-0.97,0.66,2.05,0.12,0.46,-0.07,
3.72,-0.97,0.66,2.05,0.08,0.48,-0.03,
3.723,-0.97,0.66,2.05,0.04,0.50,-0.00,
3.724,-0.97,0.66,2.05,-0.00,0.52,0.03,
3.727,-0.97,0.66,2.05,-0.04,0.54,0.06,
3.73,-0.97,0.66,2.05,-0.06,0.55,0.09,
3.735,-0.97,0.74,1.71,-0.06,0.55,0.09,
3.736,-0.97,0.74,1.71,-0.10,0.57,0.12,
3.759,-0.97,0.74,1.71,-0.12,0.59,0.14,
3.759,-0.97,0.74,1.71,-0.14,0.61,0.16,
3.76,-0.97,0.74,1.71,-0.15,0.62,0.18,
3.761,-0.97,0.74,1.71,-0.16,0.64,0.20,
3.761,-0.80,0.90,2.03,-0.16,0.64,0.20,
3.761,-0.80,0.90,2.03,-0.16,0.65,0.22,
3.762,-0.80,0.90,2.03,-0.16,0.67,0.23,
3.762,-0.80,0.90,2.03,-0.15,0.68,0.25,
3.762,-0.80,0.90,2.03,-0.13,0.69,0.26,
3.762,-0.80,0.90,2.03,-0.11,0.69,0.27,
3.763,-0.62,0.86,2.53,-0.11,0.69,0.27,
3.763,-0.62,0.86,2.53,-0.09,0.70,0.28,
3.763,-0.62,0.86,2.53,-0.06,0.71,0.29,
3.764,-0.62,0.86,2.53,-0.03,0.72,0.30,
3.764,-0.62,0.86,2.53,0.01,0.73,0.31,
3.764,-0.62,0.86,2.53,0.05,0.74,0.31,
3.764,-0.51,0.69,2.94,0.05,0.74,0.31,
3.765,-0.51,0.69,2.94,0.09,0.75,0.32,
3.765,-0.51,0.69,2.94,0.14,0.76,0.32,
3.765,-0.51,0.69,2.94,0.19,0.77,0.33,
3.765,-0.51,0.69,2.94,0.24,0.78,0.34,
3.771,-0.51,0.69,2.94,0.29,0.80,0.34,
3.772,-0.40,0.29,2.99,0.29,0.80,0.34,
3.772,-0.40,0.29,2.99,0.34,0.81,0.35,
3.772,-0.40,0.29,2.99,0.39,0.83,0.35,
3.773,-0.40,0.29,2.99,0.45,0.84,0.36,
3.78,-0.40,0.29,2.99,0.50,0.85,0.36,
3.78,-0.40,0.29,2.99,0.54,0.86,0.37,
3.78,-0.46,-0.09,2.44,0.54,0.86,0.37,
3.78,-0.46,-0.09,2.44,0.59,0.87,0.38,
3.781,-0.46,-0.09,2.44,0.63,0.88,0.38,
3.783,-0.46,-0.09,2.44,0.67,0.88,0.39,
3.786,-0.46,-0.09,2.44,0.70,0.88,0.40,
3.787,-0.46,-0.09,2.44,0.73,0.88,0.41,
3.789,-0.64,-0.44,1.46,0.73,0.88,0.41,
3.79,-0.64,-0.44,1.46,0.76,0.88,0.42,
3.798,-0.64,-0.44,1.46,0.78,0.88,0.43,
3.798,-0.64,-0.44,1.46,0.79,0.88,0.44,
3.798,-0.64,-0.44,1.46,0.80,0.87,0.45,
3.799,-0.64,-0.44,1.46,0.79,0.87,0.46,
3.799,-1.00,-0.49,0.15,0.79,0.87,0.46,
3.8,-1.00,-0.49,0.15,0.78,0.87,0.47,
3.83,-1.00,-0.49,0.15,0.76,0.86,0.49,
3.831,-1.00,-0.49,0.15,0.74,0.85,0.50,
3.831,-1.00,-0.49,0.15,0.71,0.85,0.51,
3.831,-1.00,-0.49,0.15,0.67,0.84,0.52,
3.832,-1.18,-0.60,-1.25,0.67,0.84,0.52,
3.832,-1.18,-0.60,-1.25,0.62,0.84,0.53,
3.832,-1.18,-0.60,-1.25,0.56,0.82,0.54,
3.832,-1.18,-0.60,-1.25,0.50,0.81,0.54,
3.832,-1.18,-0.60,-1.25,0.43,0.80,0.55,
3.833,-1.18,-0.60,-1.25,0.36,0.79,0.55,
3.833,-1.10,-0.72,-2.35,0.36,0.79,0.55,
3.833,-1.10,-0.72,-2.35,0.29,0.78,0.55,
3.833,-1.10,-0.72,-2.35,0.21,0.76,0.55,
3.834,-1.10,-0.72,-2.35,0.13,0.75,0.55,
3.834,-1.10,-0.72,-2.35,0.05,0.73,0.55,
3.834,-1.10,-0.72,-2.35,-0.03,0.70,0.55,
3.834,-0.82,-0.84,-2.77,-0.03,0.70,0.55,
3.835,-0.82,-0.84,-2.77,-0.12,0.68,0.55,
3.835,-0.82,-0.84,-2.77,-0.20,0.65,0.54,
3.835,-0.82,-0.84,-2.77,-0.29,0.61,0.53,
3.835,-0.82,-0.84,-2.77,-0.37,0.58,0.52,
3.838,-0.82,-0.84,-2.77,-0.45,0.54,0.51,
3.839,-0.51,-0.89,-2.51,-0.45,0.54,0.51,
3.84,-0.51,-0.89,-2.51,-0.54,0.49,0.49,
3.843,-0.51,-0.89,-2.51,-0.61,0.45,0.48,
3.845,-0.51,-0.89,-2.51,-0.69,0.40,0.46,
3.847,-0.51,-0.89,-2.51,-0.76,0.36,0.44,
3.847,-0.51,-0.89,-2.51,-0.82,0.31,0.42,
3.85,-0.28,-1.05,-1.57,-0.82,0.31,0.42,
3.851,-0.28,-1.05,-1.57,-0.88,0.26,0.40,
3.851,-0.28,-1.05,-1.57,-0.93,0.22,0.37,
3.853,-0.28,-1.05,-1.57,-0.98,0.17,0.35,
3.855,-0.28,-1.05,-1.57,-1.02,0.13,0.33,
3.861,-0.28,-1.05,-1.57,-1.05,0.09,0.31,
3.863,-0.24,-1.30,-0.16,-1.05,0.09,0.31,
3.863,-0.24,-1.30,-0.16,-1.08,0.04,0.30,
3.864,-0.24,-1.30,-0.16,-1.10,0.01,0.28,
3.864,-0.24,-1.30,-0.16,-1.11,-0.03,0.27,
3.865,-0.24,-1.30,-0.16,-1.11,-0.07,0.27,
3.867,-0.24,-1.30,-0.16,-1.11,-0.10,0.27,
3.87,-0.55,-1.76,1.41,-1.11,-0.10,0.27,
3.871,-0.55,-1.76,1.41,-1.10,-0.14,0.27,
3.873,-0.55,-1.76,1.41,-1.08,-0.18,0.28,
3.873,-0.55,-1.76,1.41,-1.06,-0.21,0.29,
3.876,-0.55,-1.76,1.41,-1.03,-0.24,0.30,
3.877,-0.55,-1.76,1.41,-0.99,-0.27,0.32,
3.88,-0.90,-2.10,2.69,-0.99,-0.27,0.32,
3.881,-0.90,-2.10,2.69,-0.95,-0.29,0.34,
3.881,-0.90,-2.10,2.69,-0.91,-0.30,0.36,
3.883,-0.90,-2.10,2.69,-0.86,-0.31,0.39,
3.885,-0.90,-2.10,2.69,-0.81,-0.32,0.42,
3.888,-0.90,-2.10,2.69,-0.76,-0.32,0.44,
3.891,-1.02,-2.41,3.51,-0.76,-0.32,0.44,
3.891,-1.02,-2.41,3.51,-0.70,-0.32,0.47,
3.892,-1.02,-2.41,3.51,-0.64,-0.32,0.50,
3.893,-1.02,-2.41,3.51,-0.59,-0.31,0.54,
3.895,-1.02,-2.41,3.51,-0.53,-0.31,0.57,
3.898,-1.02,-2.41,3.51,-0.47,-0.30,0.60,
3.927,-0.91,-2.41,3.59,-0.47,-0.30,0.60,
3.927,-0.91,-2.41,3.59,-0.42,-0.29,0.63,
3.928,-0.91,-2.41,3.59,-0.36,-0.28,0.66,
3.928,-0.91,-2.41,3.59,-0.31,-0.27,0.69,
3.929,-0.91,-2.41,3.59,-0.26,-0.26,0.72,
3.929,-0.91,-2.41,3.59,-0.22,-0.24,0.74,
3.929,-0.55,-2.39,3.10,-0.22,-0.24,0.74,
3.93,-0.55,-2.39,3.10,-0.17,-0.23,0.77,
3.93,-0.55,-2.39,3.10,-0.13,-0.21,0.79,
3.931,-0.55,-2.39,3.10,-0.09,-0.18,0.81,
3.931,-0.55,-2.39,3.10,-0.06,-0.16,0.82,
3.932,-0.55,-2.39,3.10,-0.03,-0.13,0.84,
3.932,-0.10,-2.10,2.19,-0.03,-0.13,0.84,
3.932,-0.10,-2.10,2.19,0.00,-0.11,0.85,
3.933,-0.10,-2.10,2.19,0.03,-0.07,0.86,
3.933,-0.10,-2.10,2.19,0.06,-0.04,0.87,
3.934,-0.10,-2.10,2.19,0.08,-0.01,0.87,
3.934,-0.10,-2.10,2.19,0.10,0.02,0.88,
3.934,0.30,-1.84,1.15,0.10,0.02,0.88,
3.935,0.30,-1.84,1.15,0.11,0.06,0.88,
3.935,0.30,-1.84,1.15,0.13,0.10,0.88,
3.936,0.30,-1.84,1.15,0.14,0.14,0.89,
3.936,0.30,-1.84,1.15,0.15,0.18,0.89,
3.937,0.30,-1.84,1.15,0.16,0.21,0.89,
3.943,0.56,-1.58,0.14,0.16,0.21,0.89,
3.944,0.56,-1.58,0.14,0.17,0.25,0.89,
3.944,0.56,-1.58,0.14,0.17,0.29,0.90,
3.944,0.56,-1.58,0.14,0.18,0.32,0.90,
3.946,0.56,-1.58,0.14,0.18,0.36,0.90,
3.947,0.56,-1.58,0.14,0.18,0.39,0.90,
3.95,0.64,-1.40,-0.75,0.18,0.39,0.90,
3.95,0.64,-1.40,-0.75,0.18,0.42,0.91,
3.951,0.64,-1.40,-0.75,0.18,0.45,0.91,
3.954,0.64,-1.40,-0.75,0.18,0.47,0.91,
3.955,0.64,-1.40,-0.75,0.18,0.49,0.91,
3.957,0.64,-1.40,-0.75,0.17,0.52,0.91,
3.959,0.64,-1.22,-1.52,0.17,0.52,0.91,
3.96,0.64,-1.22,-1.52,0.17,0.53,0.92,
3.961,0.64,-1.22,-1.52,0.16,0.55,0.92,
3.966,0.64,-1.22,-1.52,0.15,0.59,0.92,
3.966,0.64,-1.22,-1.52,0.15,0.59,0.92,
3.967,0.64,-1.22,-1.52,0.15,0.60,0.92,
3.969,0.66,-1.05,-2.09,0.15,0.60,0.92,
3.97,0.66,-1.05,-2.09,0.14,0.62,0.91,
3.97,0.66,-1.05,-2.09,0.13,0.63,0.91,
3.979,0.66,-1.05,-2.09,0.13,0.65,0.91,
3.979,0.66,-1.05,-2.09,0.12,0.66,0.91,
3.979,0.66,-1.05,-2.09,0.12,0.67,0.91,
3.98,0.65,-0.96,-2.54,0.12,0.67,0.91,
3.98,0.65,-0.96,-2.54,0.11,0.68,0.90,
3.981,0.65,-0.96,-2.54,0.10,0.68,0.90,
4.016,0.65,-0.96,-2.54,0.10,0.68,0.90,
4.017,0.65,-0.96,-2.54,0.10,0.68,0.89,
4.017,0.65,-0.96,-2.54,0.09,0.68,0.89,
4.018,0.70,-0.91,-2.80,0.09,0.68,0.89,
4.018,0.70,-0.91,-2.80,0.09,0.67,0.88,
4.019,0.70,-0.91,-2.80,0.09,0.67,0.88,
4.019,0.70,-0.91,-2.80,0.09,0.66,0.87,
4.019,0.70,-0.91,-2.80,0.08,0.64,0.87,
4.02,0.70,-0.91,-2.80,0.08,0.63,0.86,
4.02,0.73,-0.87,-2.88,0.08,0.63,0.86,
4.021,0.73,-0.87,-2.88,0.08,0.61,0.86,
4.021,0.73,-0.87,-2.88,0.09,0.59,0.85,
4.021,0.73,-0.87,-2.88,0.09,0.57,0.85,
4.022,0.73,-0.87,-2.88,0.09,0.55,0.84,
4.022,0.73,-0.87,-2.88,0.10,0.53,0.84,
4.022,0.74,-0.80,-2.85,0.10,0.53,0.84,
4.023,0.74,-0.80,-2.85,0.10,0.50,0.83,
4.023,0.74,-0.80,-2.85,0.11,0.47,0.83,
4.025,0.74,-0.80,-2.85,0.11,0.45,0.83,
4.026,0.74,-0.80,-2.85,0.12,0.42,0.82,
4.026,0.74,-0.80,-2.85,0.12,0.39,0.81,
4.026,0.75,-0.73,-2.79,0.12,0.39,0.81,
4.027,0.75,-0.73,-2.79,0.13,0.36,0.80,
4.027,0.75,-0.73,-2.79,0.14,0.33,0.79,
4.027,0.75,-0.73,-2.79,0.14,0.31,0.78,
4.028,0.75,-0.73,-2.79,0.15,0.29,0.77,
4.028,0.75,-0.73,-2.79,0.16,0.26,0.76,
4.032,0.80,-0.63,-2.58,0.16,0.26,0.76,
4.033,0.80,-0.63,-2.58,0.17,0.23,0.76,
4.034,0.80,-0.63,-2.58,0.17,0.19,0.75,
4.034,0.80,-0.63,-2.58,0.18,0.15,0.74,
4.035,0.80,-0.63,-2.58,0.19,0.11,0.73,
4.038,0.80,-0.63,-2.58,0.20,0.08,0.71,
4.047,0.92,-0.78,-2.32,0.20,0.08,0.71,
4.048,0.92,-0.78,-2.32,0.21,0.04,0.70,
4.048,0.92,-0.78,-2.32,0.22,0.00,0.69,
4.049,0.92,-0.78,-2.32,0.23,-0.04,0.68,
4.052,0.92,-0.78,-2.32,0.24,-0.07,0.67,
4.053,0.92,-0.78,-2.32,0.25,-0.11,0.65,
4.054,0.98,-0.89,-1.95,0.25,-0.11,0.65,
4.054,0.98,-0.89,-1.95,0.26,-0.14,0.64,
4.055,0.98,-0.89,-1.95,0.27,-0.17,0.63,
4.055,0.98,-0.89,-1.95,0.29,-0.19,0.62,
4.056,0.98,-0.89,-1.95,0.30,-0.21,0.60,
4.059,0.98,-0.89,-1.95,0.32,-0.22,0.59,
4.06,0.96,-0.81,-1.53,0.32,-0.22,0.59,
4.061,0.96,-0.81,-1.53,0.33,-0.22,0.59,
4.062,0.96,-0.81,-1.53,0.35,-0.22,0.58,
4.063,0.96,-0.81,-1.53,0.37,-0.22,0.57,
4.088,0.96,-0.81,-1.53,0.38,-0.22,0.56,
4.088,0.96,-0.81,-1.53,0.39,-0.22,0.55,
4.089,1.05,-0.82,-1.27,0.39,-0.22,0.55,
4.089,1.05,-0.82,-1.27,0.40,-0.21,0.54,
4.089,1.05,-0.82,-1.27,0.41,-0.21,0.53,
4.09,1.05,-0.82,-1.27,0.42,-0.20,0.52,
4.09,1.05,-0.82,-1.27,0.42,-0.19,0.52,
4.09,1.05,-0.82,-1.27,0.43,-0.18,0.51,
4.09,1.14,-0.85,-1.29,0.43,-0.18,0.51,
4.091,1.14,-0.85,-1.29,0.43,-0.16,0.50,
4.091,1.14,-0.85,-1.29,0.43,-0.15,0.49,
4.091,1.14,-0.85,-1.29,0.43,-0.14,0.48,
4.091,1.14,-0.85,-1.29,0.43,-0.12,0.48,
4.092,1.14,-0.85,-1.29,0.43,-0.11,0.47,
4.092,1.12,-0.77,-1.37,0.43,-0.11,0.47,
4.092,1.12,-0.77,-1.37,0.42,-0.10,0.46,
4.092,1.12,-0.77,-1.37,0.42,-0.09,0.45,
4.104,1.12,-0.77,-1.37,0.41,-0.08,0.44,
4.105,1.12,-0.77,-1.37,0.40,-0.07,0.43,
4.105,1.12,-0.77,-1.37,0.40,-0.06,0.42,
4.105,1.05,-0.70,-1.35,0.40,-0.06,0.42,
4.105,1.05,-0.70,-1.35,0.39,-0.05,0.40,
4.106,1.05,-0.70,-1.35,0.38,-0.04,0.39,
4.106,1.05,-0.70,-1.35,0.37,-0.03,0.38,
4.131,1.05,-0.70,-1.35,0.37,-0.02,0.37,
4.131,1.05,-0.70,-1.35,0.37,-0.01,0.35,
4.131,0.96,-0.70,-1.20,0.37,-0.01,0.35,
4.132,0.96,-0.70,-1.20,0.36,0.00,0.34,
4.132,0.96,-0.70,-1.20,0.36,0.01,0.33,
4.132,0.96,-0.70,-1.20,0.36,0.02,0.32,
4.132,0.96,-0.70,-1.20,0.36,0.03,0.31,
4.132,0.96,-0.70,-1.20,0.36,0.03,0.30,
4.133,0.86,-0.69,-0.91,0.36,0.03,0.30,
4.133,0.86,-0.69,-0.91,0.36,0.04,0.29,
4.133,0.86,-0.69,-0.91,0.37,0.04,0.28,
4.133,0.86,-0.69,-0.91,0.37,0.04,0.27,
4.134,0.86,-0.69,-0.91,0.37,0.04,0.26,
4.134,0.86,-0.69,-0.91,0.37,0.04,0.25,
4.134,0.83,-0.72,-0.60,0.37,0.04,0.25,
4.134,0.83,-0.72,-0.60,0.37,0.03,0.24,
4.134,0.83,-0.72,-0.60,0.37,0.02,0.22,
4.135,0.83,-0.72,-0.60,0.38,0.02,0.21,
4.135,0.83,-0.72,-0.60,0.38,0.01,0.20,
4.137,0.83,-0.72,-0.60,0.39,0.00,0.19,
4.14,0.74,-0.72,-0.18,0.39,0.00,0.19,
4.141,0.74,-0.72,-0.18,0.39,-0.01,0.18,
4.141,0.74,-0.72,-0.18,0.40,-0.01,0.16,
4.143,0.74,-0.72,-0.18,0.41,-0.02,0.15,
4.146,0.74,-0.72,-0.18,0.42,-0.02,0.13,
4.147,0.74,-0.72,-0.18,0.43,-0.02,0.12,
4.149,0.71,-0.80,0.33,0.43,-0.02,0.12,
4.15,0.71,-0.80,0.33,0.44,-0.02,0.11,
4.151,0.71,-0.80,0.33,0.46,-0.02,0.09,
4.153,0.71,-0.80,0.33,0.47,-0.02,0.08,
4.155,0.71,-0.80,0.33,0.48,-0.01,0.07,
4.157,0.71,-0.80,0.33,0.50,-0.00,0.07,
4.161,0.51,-0.77,0.66,0.50,-0.00,0.07,
4.161,0.51,-0.77,0.66,0.51,0.00,0.06,
4.162,0.51,-0.77,0.66,0.52,0.01,0.06,
4.163,0.51,-0.77,0.66,0.53,0.01,0.05,
4.171,0.51,-0.77,0.66,0.53,0.02,0.05,
4.171,0.51,-0.77,0.66,0.54,0.02,0.05,
4.172,0.20,-0.81,0.60,0.54,0.02,0.05,
4.172,0.20,-0.81,0.60,0.54,0.02,0.05,
4.172,0.20,-0.81,0.60,0.53,0.03,0.05,
4.173,0.20,-0.81,0.60,0.52,0.03,0.05,
4.175,0.20,-0.81,0.60,0.51,0.03,0.06,
4.178,0.20,-0.81,0.60,0.50,0.03,0.06,
4.179,-0.04,-0.74,0.27,0.50,0.03,0.06,
4.18,-0.04,-0.74,0.27,0.48,0.04,0.07,
4.181,-0.04,-0.74,0.27,0.46,0.05,0.07,
4.183,-0.04,-0.74,0.27,0.43,0.06,0.08,
4.185,-0.04,-0.74,0.27,0.40,0.08,0.08,
4.187,-0.04,-0.74,0.27,0.37,0.10,0.09,
4.19,-0.21,-0.73,-0.07,0.37,0.10,0.09,
4.19,-0.21,-0.73,-0.07,0.34,0.11,0.10,
4.192,-0.21,-0.73,-0.07,0.30,0.13,0.11,
4.194,-0.21,-0.73,-0.07,0.26,0.15,0.12,
4.196,-0.21,-0.73,-0.07,0.22,0.18,0.13,
4.197,-0.21,-0.73,-0.07,0.18,0.20,0.14,
4.199,-0.20,-0.70,-0.31,0.18,0.20,0.14,
4.2,-0.20,-0.70,-0.31,0.14,0.21,0.15,
4.201,-0.20,-0.70,-0.31,0.09,0.23,0.16,
4.203,-0.20,-0.70,-0.31,0.05,0.24,0.17,
4.218,-0.20,-0.70,-0.31,0.01,0.25,0.18,
4.219,-0.20,-0.70,-0.31,-0.04,0.25,0.19,
4.22,0.09,-0.57,-0.34,-0.04,0.25,0.19,
4.22,0.09,-0.57,-0.34,-0.08,0.25,0.20,
4.221,0.09,-0.57,-0.34,-0.13,0.25,0.20,
4.221,0.09,-0.57,-0.34,-0.17,0.23,0.21,
4.221,0.09,-0.57,-0.34,-0.21,0.21,0.21,
4.222,0.09,-0.57,-0.34,-0.25,0.18,0.20,
4.222,0.68,-0.31,-0.17,-0.25,0.18,0.20,
4.222,0.68,-0.31,-0.17,-0.28,0.14,0.20,
4.245,0.68,-0.31,-0.17,-0.32,0.10,0.19,
4.245,0.68,-0.31,-0.17,-0.35,0.04,0.17,
4.246,0.68,-0.31,-0.17,-0.38,-0.02,0.15,
4.246,0.68,-0.31,-0.17,-0.41,-0.09,0.12,
4.246,1.58,0.07,0.22,-0.41,-0.09,0.12,
4.246,1.58,0.07,0.22,-0.43,-0.16,0.09,
4.271,1.58,0.07,0.22,-0.45,-0.24,0.05,
4.272,1.58,0.07,0.22,-0.47,-0.32,0.01,
4.272,1.58,0.07,0.22,-0.48,-0.40,-0.04,
4.272,1.58,0.07,0.22,-0.49,-0.48,-0.09,
4.273,2.41,0.41,0.91,-0.49,-0.48,-0.09,
4.273,2.41,0.41,0.91,-0.49,-0.56,-0.14,
4.274,2.41,0.41,0.91,-0.48,-0.63,-0.18,
4.274,2.41,0.41,0.91,-0.48,-0.69,-0.24,
4.274,2.41,0.41,0.91,-0.46,-0.75,-0.29,
4.274,2.41,0.41,0.91,-0.44,-0.80,-0.34,
4.275,2.78,0.62,1.81,-0.44,-0.80,-0.34,
4.275,2.78,0.62,1.81,-0.43,-0.84,-0.39,
4.275,2.78,0.62,1.81,-0.40,-0.88,-0.43,
4.275,2.78,0.62,1.81,-0.38,-0.91,-0.48,
4.276,2.78,0.62,1.81,-0.36,-0.94,-0.51,
4.276,2.78,0.62,1.81,-0.33,-0.96,-0.55,
4.276,2.41,0.61,2.35,-0.33,-0.96,-0.55,
4.276,2.41,0.61,2.35,-0.31,-0.98,-0.58,
4.277,2.41,0.61,2.35,-0.29,-0.99,-0.60,
4.277,2.41,0.61,2.35,-0.27,-1.00,-0.62,
4.277,2.41,0.61,2.35,-0.26,-1.01,-0.64,
4.277,2.41,0.61,2.35,-0.25,-1.02,-0.65,
4.278,1.75,0.36,2.31,-0.25,-1.02,-0.65,
4.278,1.75,0.36,2.31,-0.24,-1.03,-0.65,
4.278,1.75,0.36,2.31,-0.24,-1.03,-0.65,
4.279,1.75,0.36,2.31,-0.24,-1.03,-0.65,
4.279,1.75,0.36,2.31,-0.24,-1.03,-0.65,
4.279,1.75,0.36,2.31,-0.26,-1.03,-0.64,
4.279,1.28,0.03,2.03,-0.26,-1.03,-0.64,
4.28,1.28,0.03,2.03,-0.27,-1.02,-0.63,
4.286,1.28,0.03,2.03,-0.29,-1.01,-0.63,
4.287,1.28,0.03,2.03,-0.31,-0.99,-0.62,
4.287,1.28,0.03,2.03,-0.33,-0.98,-0.61,
4.287,1.28,0.03,2.03,-0.36,-0.96,-0.60,
4.3,1.16,-0.36,1.81,-0.36,-0.96,-0.60,
4.301,1.16,-0.36,1.81,-0.39,-0.94,-0.59,
4.301,1.16,-0.36,1.81,-0.42,-0.91,-0.58,
4.301,1.16,-0.36,1.81,-0.45,-0.89,-0.58,
4.301,1.16,-0.36,1.81,-0.47,-0.86,-0.57,
4.302,1.16,-0.36,1.81,-0.50,-0.83,-0.57,
4.302,1.15,-0.54,1.95,-0.50,-0.83,-0.57,
4.302,1.15,-0.54,1.95,-0.53,-0.79,-0.57,
4.302,1.15,-0.54,1.95,-0.56,-0.76,-0.56,
4.303,1.15,-0.54,1.95,-0.58,-0.72,-0.56,
4.306,1.15,-0.54,1.95,-0.60,-0.67,-0.56,
4.307,1.15,-0.54,1.95,-0.62,-0.63,-0.56,
4.31,1.21,-0.69,2.42,-0.62,-0.63,-0.56,
4.31,1.21,-0.69,2.42,-0.64,-0.59,-0.56,
4.311,1.21,-0.69,2.42,-0.65,-0.54,-0.56,
4.313,1.21,-0.69,2.42,-0.67,-0.49,-0.56,
4.315,1.21,-0.69,2.42,-0.68,-0.44,-0.56,
4.316,1.21,-0.69,2.42,-0.68,-0.39,-0.56,
4.319,1.14,-0.83,2.89,-0.68,-0.39,-0.56,
4.319,1.14,-0.83,2.89,-0.69,-0.34,-0.55,
4.329,1.14,-0.83,2.89,-0.69,-0.29,-0.55,
4.33,1.14,-0.83,2.89,-0.70,-0.25,-0.54,
4.33,1.14,-0.83,2.89,-0.70,-0.20,-0.54,
4.33,1.14,-0.83,2.89,-0.69,-0.15,-0.53,
4.33,1.01,-1.09,3.32,-0.69,-0.15,-0.53,
4.33,1.01,-1.09,3.32,-0.69,-0.10,-0.52,
4.331,1.01,-1.09,3.32,-0.68,-0.05,-0.51,
4.333,1.01,-1.09,3.32,-0.68,-0.01,-0.50,
4.36,1.01,-1.09,3.32,-0.66,0.04,-0.48,
4.361,1.01,-1.09,3.32,-0.65,0.08,-0.47,
4.361,0.79,-1.30,3.51,-0.65,0.08,-0.47,
4.361,0.79,-1.30,3.51,-0.63,0.12,-0.46,
4.361,0.79,-1.30,3.51,-0.62,0.15,-0.44,
4.362,0.79,-1.30,3.51,-0.60,0.18,-0.42,
4.362,0.79,-1.30,3.51,-0.57,0.21,-0.41,
4.362,0.79,-1.30,3.51,-0.55,0.24,-0.39,
4.362,0.48,-1.54,3.56,-0.55,0.24,-0.39,
4.362,0.48,-1.54,3.56,-0.52,0.26,-0.36,
4.362,0.48,-1.54,3.56,-0.49,0.27,-0.34,
4.363,0.48,-1.54,3.56,-0.46,0.28,-0.32,
4.363,0.48,-1.54,3.56,-0.42,0.28,-0.30,
4.363,0.48,-1.54,3.56,-0.39,0.28,-0.28,
4.363,0.15,-1.52,3.36,-0.39,0.28,-0.28,
4.363,0.15,-1.52,3.36,-0.35,0.27,-0.26,
4.364,0.15,-1.52,3.36,-0.32,0.26,-0.24,
4.364,0.15,-1.52,3.36,-0.28,0.24,-0.22,
4.365,0.15,-1.52,3.36,-0.24,0.22,-0.20,
4.368,0.15,-1.52,3.36,-0.21,0.20,-0.18,
4.369,-0.02,-1.46,2.83,-0.21,0.20,-0.18,
4.37,-0.02,-1.46,2.83,-0.18,0.16,-0.17,
4.372,-0.02,-1.46,2.83,-0.15,0.13,-0.15,
4.375,-0.02,-1.46,2.83,-0.12,0.09,-0.14,
4.377,-0.02,-1.46,2.83,-0.10,0.05,-0.13,
4.378,-0.02,-1.46,2.83,-0.08,0.00,-0.12,
4.379,0.03,-1.26,1.96,-0.08,0.00,-0.12,
4.379,0.03,-1.26,1.96,-0.06,-0.05,-0.11,
4.381,0.03,-1.26,1.96,-0.04,-0.10,-0.10,
4.383,0.03,-1.26,1.96,-0.03,-0.15,-0.09,
4.385,0.03,-1.26,1.96,-0.03,-0.20,-0.09,
4.388,0.03,-1.26,1.96,-0.02,-0.26,-0.09,
4.39,0.26,-1.10,1.08,-0.02,-0.26,-0.09,
4.393,0.26,-1.10,1.08,-0.02,-0.31,-0.09,
4.393,0.26,-1.10,1.08,-0.02,-0.37,-0.09,
4.393,0.26,-1.10,1.08,-0.03,-0.42,-0.10,
4.395,0.26,-1.10,1.08,-0.04,-0.47,-0.11,
4.398,0.26,-1.10,1.08,-0.05,-0.52,-0.12,
4.431,0.73,-0.91,0.42,-0.05,-0.52,-0.12,
4.431,0.73,-0.91,0.42,-0.06,-0.57,-0.13,
4.432,0.73,-0.91,0.42,-0.08,-0.61,-0.15,
4.432,0.73,-0.91,0.42,-0.10,-0.65,-0.16,
4.432,0.73,-0.91,0.42,-0.11,-0.68,-0.18,
4.432,0.73,-0.91,0.42,-0.14,-0.70,-0.20,
4.433,1.30,-0.95,0.04,-0.14,-0.70,-0.20,
4.433,1.30,-0.95,0.04,-0.15,-0.72,-0.22,
4.433,1.30,-0.95,0.04,-0.18,-0.74,-0.24,
4.434,1.30,-0.95,0.04,-0.20,-0.75,-0.26,
4.434,1.30,-0.95,0.04,-0.23,-0.76,-0.27,
4.434,1.30,-0.95,0.04,-0.25,-0.76,-0.29,
4.434,1.48,-0.85,-0.25,-0.25,-0.76,-0.29,
4.435,1.48,-0.85,-0.25,-0.28,-0.76,-0.31,
4.435,1.48,-0.85,-0.25,-0.31,-0.75,-0.33,
4.435,1.48,-0.85,-0.25,-0.33,-0.74,-0.34,
4.435,1.48,-0.85,-0.25,-0.36,-0.73,-0.36,
4.436,1.48,-0.85,-0.25,-0.39,-0.72,-0.37,
4.436,1.60,-1.03,-0.41,-0.39,-0.72,-0.37,
4.436,1.60,-1.03,-0.41,-0.42,-0.70,-0.39,
4.436,1.60,-1.03,-0.41,-0.44,-0.68,-0.40,
4.437,1.60,-1.03,-0.41,-0.47,-0.66,-0.41,
4.437,1.60,-1.03,-0.41,-0.50,-0.64,-0.42,
4.437,1.60,-1.03,-0.41,-0.52,-0.61,-0.43,
4.444,1.46,-1.05,-0.48,-0.52,-0.61,-0.43,
4.445,1.46,-1.05,-0.48,-0.54,-0.58,-0.44,
4.445,1.46,-1.05,-0.48,-0.56,-0.55,-0.45,
4.445,1.46,-1.05,-0.48,-0.59,-0.51,-0.46,
4.446,1.46,-1.05,-0.48,-0.60,-0.48,-0.47,
4.447,1.46,-1.05,-0.48,-0.61,-0.46,-0.47,
4.45,1.33,-1.19,-0.40,-0.61,-0.46,-0.47,
4.45,1.33,-1.19,-0.40,-0.62,-0.44,-0.47,
4.451,1.33,-1.19,-0.40,-0.63,-0.41,-0.48,
4.453,1.33,-1.19,-0.40,-0.63,-0.38,-0.48,
4.455,1.33,-1.19,-0.40,-0.63,-0.36,-0.48,
4.457,1.33,-1.19,-0.40,-0.63,-0.33,-0.48,
4.46,1.03,-1.26,-0.25,-0.63,-0.33,-0.48,
4.461,1.03,-1.26,-0.25,-0.63,-0.31,-0.48,
4.461,1.03,-1.26,-0.25,-0.62,-0.29,-0.48,
4.463,1.03,-1.26,-0.25,-0.61,-0.26,-0.47,
4.465,1.03,-1.26,-0.25,-0.60,-0.23,-0.47,
4.469,1.03,-1.26,-0.25,-0.59,-0.21,-0.47,
4.469,1.03,-1.26,-0.25,-0.58,-0.19,-0.46,
4.47,0.79,-1.36,-0.20,-0.58,-0.19,-0.46,
4.476,0.79,-1.36,-0.20,-0.56,-0.16,-0.46,
4.477,0.79,-1.36,-0.20,-0.54,-0.14,-0.45,
4.478,0.79,-1.36,-0.20,-0.52,-0.12,-0.45,
4.478,0.79,-1.36,-0.20,-0.50,-0.10,-0.44,
4.502,0.55,-1.27,-0.30,-0.50,-0.10,-0.44,
4.502,0.55,-1.27,-0.30,-0.48,-0.08,-0.44,
4.503,0.55,-1.27,-0.30,-0.46,-0.05,-0.43,
4.503,0.55,-1.27,-0.30,-0.43,-0.04,-0.42,
4.503,0.55,-1.27,-0.30,-0.41,-0.02,-0.42,
4.503,0.55,-1.27,-0.30,-0.38,0.00,-0.41,
4.503,0.36,-1.22,-0.61,-0.38,0.00,-0.41,
4.504,0.36,-1.22,-0.61,-0.36,0.02,-0.41,
4.504,0.36,-1.22,-0.61,-0.34,0.03,-0.40,
4.504,0.36,-1.22,-0.61,-0.31,0.05,-0.39,
4.504,0.36,-1.22,-0.61,-0.29,0.06,-0.38,
4.504,0.36,-1.22,-0.61,-0.27,0.07,-0.37,
4.504,0.17,-1.09,-1.08,-0.27,0.07,-0.37,
4.505,0.17,-1.09,-1.08,-0.24,0.08,-0.36,
4.505,0.17,-1.09,-1.08,-0.22,0.09,-0.35,
4.505,0.17,-1.09,-1.08,-0.20,0.09,-0.34,
4.505,0.17,-1.09,-1.08,-0.18,0.10,-0.34,
4.508,0.17,-1.09,-1.08,-0.17,0.10,-0.33,
4.51,0.04,-0.92,-1.67,-0.17,0.10,-0.33,
4.51,0.04,-0.92,-1.67,-0.15,0.10,-0.32,
4.511,0.04,-0.92,-1.67,-0.14,0.10,-0.32,
4.513,0.04,-0.92,-1.67,-0.13,0.10,-0.31,
4.515,0.04,-0.92,-1.67,-0.11,0.10,-0.31,
4.516,0.04,-0.92,-1.67,-0.10,0.10,-0.30,
4.519,0.05,-0.73,-2.25,-0.10,0.10,-0.30,
4.519,0.05,-0.73,-2.25,-0.09,0.10,-0.30,
4.523,0.05,-0.73,-2.25,-0.08,0.10,-0.29,
4.524,0.05,-0.73,-2.25,-0.07,0.09,-0.29,
4.525,0.05,-0.73,-2.25,-0.06,0.09,-0.29,
4.527,0.05,-0.73,-2.25,-0.06,0.09,-0.29,
4.529,0.06,-0.56,-2.70,-0.06,0.09,-0.29,
4.53,0.06,-0.56,-2.70,-0.05,0.09,-0.29,
4.531,0.06,-0.56,-2.70,-0.04,0.09,-0.29,
4.533,0.06,-0.56,-2.70,-0.04,0.09,-0.30,
4.535,0.06,-0.56,-2.70,-0.03,0.09,-0.30,
4.539,0.06,-0.56,-2.70,-0.03,0.09,-0.30,
4.54,0.09,-0.37,-3.07,-0.03,0.09,-0.30,
4.54,0.09,-0.37,-3.07,-0.02,0.08,-0.30,
4.541,0.09,-0.37,-3.07,-0.02,0.08,-0.30,
4.543,0.09,-0.37,-3.07,-0.02,0.07,-0.31,
4.545,0.09,-0.37,-3.07,-0.02,0.06,-0.31,
4.547,0.09,-0.37,-3.07,-0.03,0.05,-0.32,
4.55,0.12,-0.11,-3.41,-0.03,0.05,-0.32,
4.55,0.12,-0.11,-3.41,-0.03,0.04,-0.32,
4.551,0.12,-0.11,-3.41,-0.04,0.02,-0.33,
4.554,0.12,-0.11,-3.41,-0.05,0.01,-0.34,
4.562,0.12,-0.11,-3.41,-0.06,-0.01,-0.35,
4.564,0.12,-0.11,-3.41,-0.07,-0.03,-0.36,
4.565,0.15,0.01,-3.63,-0.07,-0.03,-0.36,
4.566,0.15,0.01,-3.63,-0.08,-0.05,-0.37,
4.566,0.15,0.01,-3.63,-0.10,-0.08,-0.38,
4.567,0.15,0.01,-3.63,-0.12,-0.11,-0.39,
4.599,0.15,0.01,-3.63,-0.14,-0.15,-0.41,
4.6,0.15,0.01,-3.63,-0.15,-0.16,-0.42,
4.6,0.23,0.19,-3.63,-0.15,-0.16,-0.42,
4.6,0.23,0.19,-3.63,-0.17,-0.19,-0.44,
4.601,0.23,0.19,-3.63,-0.19,-0.22,-0.46,
4.601,0.23,0.19,-3.63,-0.21,-0.24,-0.47,
4.601,0.23,0.19,-3.63,-0.22,-0.26,-0.49,
4.601,0.23,0.19,-3.63,-0.23,-0.28,-0.51,
4.602,0.30,0.27,-3.20,-0.23,-0.28,-0.51,
4.602,0.30,0.27,-3.20,-0.25,-0.29,-0.52,
4.602,0.30,0.27,-3.20,-0.26,-0.30,-0.54,
4.602,0.30,0.27,-3.20,-0.27,-0.31,-0.56,
4.603,0.30,0.27,-3.20,-0.28,-0.32,-0.57,
4.603,0.30,0.27,-3.20,-0.29,-0.32,-0.59,
4.603,0.34,0.33,-2.62,-0.29,-0.32,-0.59,
4.604,0.34,0.33,-2.62,-0.30,-0.33,-0.60,
4.604,0.34,0.33,-2.62,-0.31,-0.34,-0.62,
4.604,0.34,0.33,-2.62,-0.31,-0.34,-0.63,
4.604,0.34,0.33,-2.62,-0.32,-0.35,-0.64,
4.605,0.34,0.33,-2.62,-0.32,-0.36,-0.66,
4.605,0.35,0.34,-1.96,-0.32,-0.36,-0.66,
4.605,0.35,0.34,-1.96,-0.33,-0.37,-0.67,
4.605,0.35,0.34,-1.96,-0.34,-0.38,-0.68,
4.606,0.35,0.34,-1.96,-0.34,-0.38,-0.69,
4.606,0.35,0.34,-1.96,-0.34,-0.38,-0.70,
4.613,0.35,0.34,-1.96,-0.34,-0.39,-0.71,
4.613,0.31,0.38,-1.32,-0.34,-0.39,-0.71,
4.614,0.31,0.38,-1.32,-0.34,-0.38,-0.72,
4.614,0.31,0.38,-1.32,-0.34,-0.38,-0.74,
4.614,0.31,0.38,-1.32,-0.34,-0.38,-0.75,
4.615,0.31,0.38,-1.32,-0.34,-0.38,-0.76,
4.618,0.31,0.38,-1.32,-0.34,-0.38,-0.77,
4.619,0.26,0.36,-0.75,-0.34,-0.38,-0.77,
4.619,0.26,0.36,-0.75,-0.34,-0.37,-0.77,
4.621,0.26,0.36,-0.75,-0.33,-0.36,-0.78,
4.624,0.26,0.36,-0.75,-0.33,-0.36,-0.79,
4.625,0.26,0.36,-0.75,-0.33,-0.35,-0.80,
4.627,0.26,0.36,-0.75,-0.33,-0.34,-0.80,
4.629,0.22,0.35,-0.31,-0.33,-0.34,-0.80,
4.629,0.22,0.35,-0.31,-0.33,-0.33,-0.81,
4.631,0.22,0.35,-0.31,-0.33,-0.32,-0.81,
4.633,0.22,0.35,-0.31,-0.33,-0.31,-0.81,
4.635,0.22,0.35,-0.31,-0.33,-0.29,-0.82,
4.643,0.22,0.35,-0.31,-0.33,-0.28,-0.82,
4.644,0.13,0.32,0.06,-0.33,-0.28,-0.82,
4.644,0.13,0.32,0.06,-0.33,-0.26,-0.82,
4.644,0.13,0.32,0.06,-0.33,-0.25,-0.82,
4.644,0.13,0.32,0.06,-0.33,-0.23,-0.82,
4.662,0.13,0.32,0.06,-0.34,-0.22,-0.82,
4.662,0.13,0.32,0.06,-0.33,-0.20,-0.82,
4.662,0.05,0.32,0.36,-0.33,-0.20,-0.82,
4.663,0.05,0.32,0.36,-0.34,-0.19,-0.81,
4.663,0.05,0.32,0.36,-0.34,-0.17,-0.81,
4.663,0.05,0.32,0.36,-0.34,-0.15,-0.81,
4.663,0.05,0.32,0.36,-0.34,-0.14,-0.81,
4.664,0.05,0.32,0.36,-0.34,-0.12,-0.81,
4.664,0.01,0.28,0.64,-0.34,-0.12,-0.81,
4.665,0.01,0.28,0.64,-0.34,-0.10,-0.81,
4.665,0.01,0.28,0.64,-0.34,-0.09,-0.81,
4.665,0.01,0.28,0.64,-0.34,-0.06,-0.80,
4.665,0.01,0.28,0.64,-0.34,-0.04,-0.80,
4.667,0.01,0.28,0.64,-0.34,-0.01,-0.80,
4.671,-0.02,0.24,1.06,-0.34,-0.01,-0.80,
4.671,-0.02,0.24,1.06,-0.33,0.01,-0.80,
4.671,-0.02,0.24,1.06,-0.32,0.04,-0.79,
4.675,-0.02,0.24,1.06,-0.32,0.07,-0.78,
4.675,-0.02,0.24,1.06,-0.31,0.10,-0.77,
4.677,-0.02,0.24,1.06,-0.29,0.13,-0.77,
4.679,-0.23,0.24,1.51,-0.29,0.13,-0.77,
4.679,-0.23,0.24,1.51,-0.28,0.16,-0.75,
4.68,-0.23,0.24,1.51,-0.27,0.19,-0.74,
4.683,-0.23,0.24,1.51,-0.26,0.22,-0.73,
4.685,-0.23,0.24,1.51,-0.24,0.25,-0.72,
4.688,-0.23,0.24,1.51,-0.22,0.28,-0.70,
4.69,-0.52,0.21,1.89,-0.22,0.28,-0.70,
4.69,-0.52,0.21,1.89,-0.20,0.31,-0.69,
4.69,-0.52,0.21,1.89,-0.18,0.34,-0.67,
4.693,-0.52,0.21,1.89,-0.16,0.38,-0.65,
4.695,-0.52,0.21,1.89,-0.14,0.41,-0.62,
4.697,-0.52,0.21,1.89,-0.11,0.43,-0.60,
4.7,-0.94,0.26,2.12,-0.11,0.43,-0.60,
4.7,-0.94,0.26,2.12,-0.09,0.46,-0.57,
4.701,-0.94,0.26,2.12,-0.07,0.48,-0.55,
4.703,-0.94,0.26,2.12,-0.04,0.50,-0.52,
4.711,-0.94,0.26,2.12,-0.01,0.51,-0.49,
4.711,-0.94,0.26,2.12,0.01,0.53,-0.47,
4.711,-1.25,0.30,2.17,0.01,0.53,-0.47,
4.711,-1.25,0.30,2.17,0.03,0.54,-0.44,
4.712,-1.25,0.30,2.17,0.06,0.54,-0.41,
4.713,-1.25,0.30,2.17,0.09,0.55,-0.39,
4.715,-1.25,0.30,2.17,0.11,0.55,-0.36,
4.717,-1.25,0.30,2.17,0.13,0.55,-0.34,
4.72,-1.32,0.39,2.09,0.13,0.55,-0.34,
4.721,-1.32,0.39,2.09,0.15,0.55,-0.31,
4.723,-1.32,0.39,2.09,0.17,0.54,-0.29,
4.723,-1.32,0.39,2.09,0.20,0.53,-0.27,
4.726,-1.32,0.39,2.09,0.22,0.51,-0.24,
4.727,-1.32,0.39,2.09,0.24,0.50,-0.22,
4.73,-1.36,0.50,1.97,0.24,0.50,-0.22,
4.73,-1.36,0.50,1.97,0.26,0.47,-0.20,
4.758,-1.36,0.50,1.97,0.27,0.45,-0.18,
4.758,-1.36,0.50,1.97,0.29,0.42,-0.16,
4.758,-1.36,0.50,1.97,0.31,0.39,-0.14,
4.758,-1.36,0.50,1.97,0.33,0.36,-0.12,
4.759,-1.35,0.61,1.94,0.33,0.36,-0.12,
4.759,-1.35,0.61,1.94,0.35,0.33,-0.10,
4.759,-1.35,0.61,1.94,0.37,0.29,-0.08,
4.759,-1.35,0.61,1.94,0.39,0.25,-0.06,
4.76,-1.35,0.61,1.94,0.41,0.20,-0.05,
4.76,-1.35,0.61,1.94,0.42,0.16,-0.03,
4.76,-1.26,0.73,1.95,0.42,0.16,-0.03,
4.76,-1.26,0.73,1.95,0.44,0.11,-0.02,
4.76,-1.26,0.73,1.95,0.45,0.07,-0.01,
4.761,-1.26,0.73,1.95,0.46,0.02,0.01,
4.761,-1.26,0.73,1.95,0.47,-0.03,0.02,
4.761,-1.26,0.73,1.95,0.48,-0.07,0.03,
4.761,-0.94,0.73,1.95,0.48,-0.07,0.03,
4.761,-0.94,0.73,1.95,0.49,-0.12,0.03,
4.762,-0.94,0.73,1.95,0.49,-0.16,0.04,
4.766,-0.94,0.73,1.95,0.50,-0.21,0.04,
4.767,-0.94,0.73,1.95,0.50,-0.25,0.04,
4.767,-0.94,0.73,1.95,0.51,-0.30,0.04,
4.775,-0.49,0.69,2.01,0.51,-0.30,0.04,
4.776,-0.49,0.69,2.01,0.51,-0.35,0.04,
4.776,-0.49,0.69,2.01,0.51,-0.39,0.04,
4.776,-0.49,0.69,2.01,0.51,-0.44,0.04,
4.776,-0.49,0.69,2.01,0.51,-0.49,0.03,
4.777,-0.49,0.69,2.01,0.51,-0.54,0.02,
4.78,0.01,0.60,2.27,0.51,-0.54,0.02,
4.78,0.01,0.60,2.27,0.51,-0.58,0.02,
4.78,0.01,0.60,2.27,0.51,-0.62,0.01,
4.783,0.01,0.60,2.27,0.52,-0.66,-0.00,
4.785,0.01,0.60,2.27,0.52,-0.69,-0.01,
4.791,0.01,0.60,2.27,0.52,-0.71,-0.02,
4.791,0.33,0.62,2.73,0.52,-0.71,-0.02,
4.791,0.33,0.62,2.73,0.53,-0.73,-0.03,
4.794,0.33,0.62,2.73,0.53,-0.74,-0.03,
4.795,0.33,0.62,2.73,0.53,-0.75,-0.04,
4.798,0.33,0.62,2.73,0.53,-0.76,-0.05,
4.823,0.33,0.62,2.73,0.53,-0.75,-0.05,
4.824,0.36,0.62,3.00,0.53,-0.75,-0.05,
4.824,0.36,0.62,3.00,0.53,-0.75,-0.05,
4.824,0.36,0.62,3.00,0.53,-0.75,-0.06,
4.824,0.36,0.62,3.00,0.52,-0.74,-0.06,
4.825,0.36,0.62,3.00,0.51,-0.73,-0.06,
4.825,0.36,0.62,3.00,0.50,-0.72,-0.06,
4.825,0.29,0.61,2.95,0.50,-0.72,-0.06,
4.825,0.29,0.61,2.95,0.48,-0.71,-0.06,
4.825,0.29,0.61,2.95,0.47,-0.69,-0.06,
4.826,0.29,0.61,2.95,0.44,-0.68,-0.06,
4.826,0.29,0.61,2.95,0.42,-0.66,-0.06,
4.826,0.29,0.61,2.95,0.40,-0.64,-0.06,
4.826,0.32,0.49,2.76,0.40,-0.64,-0.06,
4.827,0.32,0.49,2.76,0.37,-0.62,-0.06,
4.827,0.32,0.49,2.76,0.35,-0.60,-0.06,
4.827,0.32,0.49,2.76,0.32,-0.57,-0.06,
4.827,0.32,0.49,2.76,0.29,-0.54,-0.06,
4.827,0.32,0.49,2.76,0.27,-0.51,-0.06,
4.829,0.41,0.34,2.67,0.27,-0.51,-0.06,
4.829,0.41,0.34,2.67,0.24,-0.47,-0.07,
4.83,0.41,0.34,2.67,0.22,-0.43,-0.07,
4.833,0.41,0.34,2.67,0.19,-0.39,-0.07,
4.835,0.41,0.34,2.67,0.17,-0.34,-0.08,
4.837,0.41,0.34,2.67,0.15,-0.29,-0.09,
4.84,0.43,0.18,2.75,0.15,-0.29,-0.09,
4.84,0.43,0.18,2.75,0.14,-0.24,-0.09,
4.841,0.43,0.18,2.75,0.12,-0.18,-0.10,
4.843,0.43,0.18,2.75,0.11,-0.13,-0.11,
4.845,0.43,0.18,2.75,0.10,-0.07,-0.11,
4.846,0.43,0.18,2.75,0.08,-0.01,-0.12,
4.849,0.41,-0.09,2.78,0.08,-0.01,-0.12,
4.85,0.41,-0.09,2.78,0.07,0.04,-0.12,
4.851,0.41,-0.09,2.78,0.06,0.10,-0.13,
4.854,0.41,-0.09,2.78,0.06,0.16,-0.13,
4.855,0.41,-0.09,2.78,0.05,0.22,-0.14,
4.857,0.41,-0.09,2.78,0.05,0.28,-0.14,
4.86,0.19,-0.40,2.69,0.05,0.28,-0.14,
4.861,0.19,-0.40,2.69,0.05,0.34,-0.14,
4.862,0.19,-0.40,2.69,0.06,0.40,-0.13,
4.864,0.19,-0.40,2.69,0.06,0.46,-0.13,
4.865,0.19,-0.40,2.69,0.07,0.52,-0.12,
4.867,0.19,-0.40,2.69,0.08,0.58,-0.11,
4.87,-0.37,-0.76,2.52,0.08,0.58,-0.11,
4.87,-0.37,-0.76,2.52,0.09,0.64,-0.10,
4.872,-0.37,-0.76,2.52,0.11,0.70,-0.08,
4.873,-0.37,-0.76,2.52,0.12,0.76,-0.06,
4.876,-0.37,-0.76,2.52,0.14,0.81,-0.04,
4.877,-0.37,-0.76,2.52,0.16,0.86,-0.02,
4.879,-1.04,-0.97,2.08,0.16,0.86,-0.02,
4.88,-1.04,-0.97,2.08,0.18,0.90,0.01,
4.881,-1.04,-0.97,2.08,0.20,0.94,0.03,
4.883,-1.04,-0.97,2.08,0.21,0.97,0.06,
4.886,-1.04,-0.97,2.08,0.23,1.00,0.09,
4.887,-1.04,-0.97,2.08,0.24,1.02,0.11,
4.89,-1.59,-1.23,1.30,0.24,1.02,0.11,
4.89,-1.59,-1.23,1.30,0.25,1.04,0.14,
4.891,-1.59,-1.23,1.30,0.26,1.06,0.17,
4.893,-1.59,-1.23,1.30,0.27,1.07,0.20,
4.895,-1.59,-1.23,1.30,0.28,1.07,0.22,
4.897,-1.59,-1.23,1.30,0.28,1.08,0.25,
4.924,-1.71,-1.32,0.48,0.28,1.08,0.25,
4.925,-1.71,-1.32,0.48,0.29,1.08,0.28,
4.925,-1.71,-1.32,0.48,0.29,1.08,0.30,
4.926,-1.71,-1.32,0.48,0.29,1.09,0.32,
4.926,-1.71,-1.32,0.48,0.29,1.09,0.35,
4.926,-1.71,-1.32,0.48,0.28,1.09,0.37,
4.927,-1.79,-1.25,-0.29,0.28,1.09,0.37,
4.927,-1.79,-1.25,-0.29,0.28,1.09,0.40,
4.928,-1.79,-1.25,-0.29,0.27,1.09,0.42,
4.928,-1.79,-1.25,-0.29,0.27,1.08,0.44,
4.928,-1.79,-1.25,-0.29,0.26,1.07,0.46,
4.929,-1.79,-1.25,-0.29,0.25,1.05,0.48,
4.929,-1.69,-1.05,-0.95,0.25,1.05,0.48,
4.93,-1.69,-1.05,-0.95,0.24,1.03,0.50,
4.93,-1.69,-1.05,-0.95,0.22,1.01,0.52,
4.931,-1.69,-1.05,-0.95,0.21,0.98,0.53,
4.931,-1.69,-1.05,-0.95,0.19,0.94,0.55,
4.931,-1.69,-1.05,-0.95,0.17,0.90,0.56,
4.932,-1.58,-0.85,-1.50,0.17,0.90,0.56,
4.932,-1.58,-0.85,-1.50,0.15,0.86,0.58,
4.933,-1.58,-0.85,-1.50,0.12,0.81,0.59,
4.933,-1.58,-0.85,-1.50,0.10,0.77,0.60,
4.946,-1.58,-0.85,-1.50,0.07,0.71,0.61,
4.946,-1.58,-0.85,-1.50,0.04,0.66,0.62,
4.947,-1.24,-0.63,-2.01,0.04,0.66,0.62,
4.947,-1.24,-0.63,-2.01,0.01,0.59,0.62,
4.947,-1.24,-0.63,-2.01,-0.03,0.53,0.62,
4.947,-1.24,-0.63,-2.01,-0.06,0.45,0.62,
4.947,-1.24,-0.63,-2.01,-0.10,0.38,0.62,
4.948,-1.24,-0.63,-2.01,-0.14,0.29,0.61,
4.95,-0.82,-0.46,-2.31,-0.14,0.29,0.61,
4.971,-0.82,-0.46,-2.31,-0.18,0.21,0.61,
4.972,-0.82,-0.46,-2.31,-0.23,0.12,0.60,
4.972,-0.82,-0.46,-2.31,-0.27,0.03,0.59,
4.973,-0.82,-0.46,-2.31,-0.32,-0.07,0.58,
4.973,-0.82,-0.46,-2.31,-0.36,-0.16,0.56,
4.973,-0.24,-0.35,-2.15,-0.36,-0.16,0.56,
4.974,-0.24,-0.35,-2.15,-0.41,-0.26,0.54,
4.974,-0.24,-0.35,-2.15,-0.45,-0.35,0.52,
4.974,-0.24,-0.35,-2.15,-0.53,-0.52,0.47,
4.974,-0.24,-0.35,-2.15,-0.53,-0.52,0.47,
4.974,-0.24,-0.35,-2.15,-0.55,-0.60,0.44,
4.975,0.34,-0.31,-1.27,-0.55,-0.60,0.44,
4.975,0.34,-0.31,-1.27,-0.58,-0.67,0.41,
4.975,0.34,-0.31,-1.27,-0.60,-0.73,0.38,
4.975,0.34,-0.31,-1.27,-0.62,-0.78,0.35,
4.976,0.34,-0.31,-1.27,-0.64,-0.82,0.33,
4.978,0.34,-0.31,-1.27,-0.65,-0.86,0.30,
4.979,0.60,-0.39,-0.13,-0.65,-0.86,0.30,
4.979,0.60,-0.39,-0.13,-0.65,-0.89,0.28,
4.981,0.60,-0.39,-0.13,-0.66,-0.91,0.26,
4.983,0.60,-0.39,-0.13,-0.66,-0.93,0.24,
4.986,0.60,-0.39,-0.13,-0.66,-0.93,0.23,
4.987,0.60,-0.39,-0.13,-0.66,-0.93,0.22,
4.989,0.76,-0.67,0.77,-0.66,-0.93,0.22,
4.99,0.76,-0.67,0.77,-0.66,-0.93,0.21,
4.991,0.76,-0.67,0.77,-0.66,-0.92,0.20,
4.993,0.76,-0.67,0.77,-0.65,-0.90,0.19,
