
time,ax,ay,az,wx,wy,wz,
0.008,-0.96,-0.16,3.27,-0.74,-0.47,0.42,
0.008,-0.96,-0.16,3.27,-0.68,-0.52,0.42,
0.009,-0.96,-0.16,3.27,-0.66,-0.54,0.43,
0.009,-0.96,-0.16,3.27,-0.62,-0.58,0.43,
0.009,-1.11,-0.06,2.20,-0.62,-0.58,0.43,
0.01,-1.11,-0.06,2.20,-0.59,-0.62,0.44,
0.01,-1.11,-0.06,2.20,-0.56,-0.65,0.45,
0.011,-1.11,-0.06,2.20,-0.51,-0.71,0.46,
0.011,-1.11,-0.06,2.20,-0.49,-0.72,0.47,
0.011,-1.11,-0.06,2.20,-0.46,-0.76,0.48,
0.012,-1.10,-0.12,1.46,-0.46,-0.76,0.48,
0.012,-1.10,-0.12,1.46,-0.42,-0.79,0.49,
0.013,-1.10,-0.12,1.46,-0.39,-0.81,0.50,
0.013,-1.10,-0.12,1.46,-0.33,-0.83,0.51,
0.013,-1.10,-0.12,1.46,-0.31,-0.84,0.52,
0.014,-1.10,-0.12,1.46,-0.27,-0.84,0.53,
0.037,-0.86,-0.30,1.08,-0.27,-0.84,0.53,
0.037,-0.86,-0.30,1.08,-0.23,-0.83,0.54,
0.038,-0.86,-0.30,1.08,-0.19,-0.82,0.55,
0.038,-0.86,-0.30,1.08,-0.13,-0.81,0.56,
0.038,-0.86,-0.30,1.08,-0.11,-0.80,0.57,
0.039,-0.86,-0.30,1.08,-0.07,-0.78,0.57,
0.039,-0.76,-0.43,0.57,-0.07,-0.78,0.57,
0.039,-0.76,-0.43,0.57,-0.03,-0.76,0.58,
0.04,-0.76,-0.43,0.57,0.00,-0.73,0.59,
0.04,-0.76,-0.43,0.57,0.05,-0.69,0.60,
0.04,-0.76,-0.43,0.57,0.07,-0.67,0.61,
0.041,-0.76,-0.43,0.57,0.10,-0.64,0.62,
0.041,-0.77,-0.46,-0.11,0.10,-0.64,0.62,
0.041,-0.77,-0.46,-0.11,0.13,-0.61,0.63,
0.042,-0.77,-0.46,-0.11,0.15,-0.58,0.64,
0.042,-0.77,-0.46,-0.11,0.19,-0.53,0.66,
0.042,-0.77,-0.46,-0.11,0.20,-0.51,0.67,
0.043,-0.77,-0.46,-0.11,0.22,-0.48,0.68,
0.043,-0.76,-0.48,-0.81,0.22,-0.48,0.68,
0.043,-0.76,-0.48,-0.81,0.23,-0.45,0.70,
0.044,-0.76,-0.48,-0.81,0.25,-0.42,0.71,
0.044,-0.76,-0.48,-0.81,0.27,-0.37,0.73,
0.044,-0.76,-0.48,-0.81,0.27,-0.36,0.74,
0.046,-0.76,-0.48,-0.81,0.28,-0.33,0.75,
0.047,-0.68,-0.44,-1.51,0.28,-0.33,0.75,
0.047,-0.68,-0.44,-1.51,0.29,-0.29,0.77,
0.051,-0.68,-0.44,-1.51,0.30,-0.26,0.78,
0.053,-0.68,-0.44,-1.51,0.31,-0.22,0.80,
0.06,-0.68,-0.44,-1.51,0.31,-0.20,0.80,
0.06,-0.68,-0.44,-1.51,0.32,-0.18,0.81,
0.061,-0.47,-0.37,-2.12,0.32,-0.18,0.81,
0.061,-0.47,-0.37,-2.12,0.32,-0.16,0.82,
0.061,-0.47,-0.37,-2.12,0.32,-0.14,0.82,
0.062,-0.47,-0.37,-2.12,0.32,-0.12,0.83,
0.063,-0.47,-0.37,-2.12,0.32,-0.11,0.84,
0.065,-0.47,-0.37,-2.12,0.32,-0.10,0.84,
0.082,-0.28,-0.36,-2.65,0.32,-0.10,0.84,
0.082,-0.28,-0.36,-2.65,0.32,-0.08,0.85,
0.083,-0.28,-0.36,-2.65,0.31,-0.06,0.86,
0.083,-0.28,-0.36,-2.65,0.30,-0.05,0.88,
0.083,-0.28,-0.36,-2.65,0.30,-0.04,0.90,
0.084,-0.28,-0.36,-2.65,0.29,-0.03,0.92,
0.084,-0.72,-0.52,-3.14,0.29,-0.03,0.92,
0.084,-0.72,-0.52,-3.14,0.29,-0.02,0.96,
0.085,-0.72,-0.52,-3.14,0.28,-0.02,1.01,
0.085,-0.72,-0.52,-3.14,0.28,-0.01,1.08,
0.085,-0.72,-0.52,-3.14,0.28,-0.01,1.10,
0.086,-0.72,-0.52,-3.14,0.28,0.00,1.14,
0.088,-0.77,-0.58,-3.31,0.28,0.00,1.14,
0.09,-0.77,-0.58,-3.31,0.27,0.02,1.18,
0.09,-0.77,-0.58,-3.31,0.26,0.04,1.20,
0.093,-0.77,-0.58,-3.31,0.24,0.06,1.22,
0.094,-0.77,-0.58,-3.31,0.24,0.06,1.22,
0.096,-0.77,-0.58,-3.31,0.22,0.06,1.23,
0.1,-0.30,-0.40,-3.51,0.22,0.06,1.23,
0.101,-0.30,-0.40,-3.51,0.21,0.06,1.22,
0.102,-0.30,-0.40,-3.51,0.19,0.04,1.21,
0.104,-0.30,-0.40,-3.51,0.17,0.01,1.19,
0.105,-0.30,-0.40,-3.51,0.16,-0.01,1.18,
0.136,-0.30,-0.40,-3.51,0.15,-0.04,1.16,
0.14,0.23,-0.33,-3.45,0.15,-0.04,1.16,
0.141,0.23,-0.33,-3.45,0.14,-0.07,1.14,
0.141,0.23,-0.33,-3.45,0.13,-0.11,1.12,
0.142,0.23,-0.33,-3.45,0.13,-0.15,1.09,
0.144,0.23,-0.33,-3.45,0.13,-0.17,1.08,
0.144,0.23,-0.33,-3.45,0.14,-0.20,1.07,
0.145,0.37,-0.23,-3.25,0.14,-0.20,1.07,
0.147,0.37,-0.23,-3.25,0.14,-0.23,1.06,
0.148,0.37,-0.23,-3.25,0.16,-0.26,1.05,
0.148,0.37,-0.23,-3.25,0.18,-0.30,1.03,
0.149,0.37,-0.23,-3.25,0.19,-0.32,1.03,
0.149,0.37,-0.23,-3.25,0.20,-0.35,1.02,
0.149,0.44,-0.18,-3.01,0.20,-0.35,1.02,
0.15,0.44,-0.18,-3.01,0.22,-0.38,1.01,
0.151,0.44,-0.18,-3.01,0.24,-0.41,1.01,
0.151,0.44,-0.18,-3.01,0.26,-0.46,1.00,
0.151,0.44,-0.18,-3.01,0.27,-0.48,0.99,
0.152,0.44,-0.18,-3.01,0.28,-0.52,0.98,
0.153,0.77,-0.27,-2.90,0.28,-0.52,0.98,
0.155,0.77,-0.27,-2.90,0.30,-0.54,0.97,
0.155,0.77,-0.27,-2.90,0.31,-0.57,0.96,
0.156,0.77,-0.27,-2.90,0.33,-0.61,0.93,
0.156,0.77,-0.27,-2.90,0.34,-0.62,0.93,
0.157,0.77,-0.27,-2.90,0.35,-0.65,0.91,
0.195,1.15,-0.46,-2.80,0.35,-0.65,0.91,
0.196,1.15,-0.46,-2.80,0.36,-0.66,0.89,
0.197,1.15,-0.46,-2.80,0.37,-0.68,0.86,
0.198,1.15,-0.46,-2.80,0.39,-0.70,0.83,
0.199,1.15,-0.46,-2.80,0.39,-0.70,0.81,
0.2,1.15,-0.46,-2.80,0.40,-0.71,0.79,
0.202,1.50,-0.58,-2.70,0.40,-0.71,0.79,
0.203,1.50,-0.58,-2.70,0.41,-0.72,0.76,
0.206,1.50,-0.58,-2.70,0.42,-0.72,0.73,
0.208,1.50,-0.58,-2.70,0.43,-0.72,0.69,
0.209,1.50,-0.58,-2.70,0.43,-0.71,0.68,
0.21,1.50,-0.58,-2.70,0.43,-0.70,0.65,
0.211,1.47,-0.62,-2.54,0.43,-0.70,0.65,
0.213,1.47,-0.62,-2.54,0.43,-0.70,0.62,
0.214,1.47,-0.62,-2.54,0.44,-0.69,0.59,
0.215,1.47,-0.62,-2.54,0.43,-0.68,0.55,
0.216,1.47,-0.62,-2.54,0.43,-0.68,0.54,
0.217,1.47,-0.62,-2.54,0.42,-0.67,0.51,
0.218,1.37,-0.49,-2.22,0.42,-0.67,0.51,
0.221,1.37,-0.49,-2.22,0.42,-0.66,0.49,
0.223,1.37,-0.49,-2.22,0.41,-0.65,0.46,
0.224,1.37,-0.49,-2.22,0.40,-0.63,0.42,
0.225,1.37,-0.49,-2.22,0.40,-0.62,0.41,
0.226,1.37,-0.49,-2.22,0.39,-0.60,0.39,
0.227,1.06,-0.40,-1.84,0.39,-0.60,0.39,
0.227,1.06,-0.40,-1.84,0.38,-0.57,0.36,
0.228,1.06,-0.40,-1.84,0.37,-0.55,0.34,
0.229,1.06,-0.40,-1.84,0.35,-0.51,0.31,
0.229,1.06,-0.40,-1.84,0.35,-0.50,0.30,
0.23,1.06,-0.40,-1.84,0.34,-0.47,0.28,
0.231,0.75,-0.32,-1.52,0.34,-0.47,0.28,
0.232,0.75,-0.32,-1.52,0.33,-0.44,0.26,
0.233,0.75,-0.32,-1.52,0.32,-0.41,0.25,
0.234,0.75,-0.32,-1.52,0.30,-0.37,0.23,
0.236,0.75,-0.32,-1.52,0.29,-0.36,0.22,
0.238,0.75,-0.32,-1.52,0.28,-0.34,0.21,
0.239,0.38,-0.30,-1.25,0.28,-0.34,0.21,
0.241,0.38,-0.30,-1.25,0.27,-0.32,0.20,
0.242,0.38,-0.30,-1.25,0.26,-0.30,0.20,
0.243,0.38,-0.30,-1.25,0.25,-0.29,0.19,
0.243,0.38,-0.30,-1.25,0.25,-0.29,0.19,
0.244,0.38,-0.30,-1.25,0.24,-0.29,0.18,
0.244,0.16,-0.35,-1.12,0.24,-0.29,0.18,
0.245,0.16,-0.35,-1.12,0.23,-0.29,0.18,
0.245,0.16,-0.35,-1.12,0.22,-0.30,0.18,
0.245,0.16,-0.35,-1.12,0.20,-0.33,0.17,
0.246,0.16,-0.35,-1.12,0.20,-0.35,0.17,
0.246,0.16,-0.35,-1.12,0.19,-0.38,0.17,
0.247,0.07,-0.35,-0.90,0.19,-0.38,0.17,
0.247,0.07,-0.35,-0.90,0.18,-0.42,0.17,
0.247,0.07,-0.35,-0.90,0.17,-0.46,0.16,
0.248,0.07,-0.35,-0.90,0.16,-0.53,0.15,
0.249,0.07,-0.35,-0.90,0.16,-0.55,0.15,
0.249,0.07,-0.35,-0.90,0.15,-0.60,0.14,
0.25,0.16,-0.27,-0.54,0.15,-0.60,0.14,
0.25,0.16,-0.27,-0.54,0.15,-0.66,0.12,
0.25,0.16,-0.27,-0.54,0.15,-0.70,0.11,
0.251,0.16,-0.27,-0.54,0.15,-0.76,0.08,
0.253,0.16,-0.27,-0.54,0.15,-0.77,0.07,
0.254,0.16,-0.27,-0.54,0.15,-0.79,0.05,
0.255,0.40,-0.12,0.01,0.15,-0.79,0.05,
0.256,0.40,-0.12,0.01,0.16,-0.79,0.03,
0.258,0.40,-0.12,0.01,0.16,-0.79,0.01,
0.259,0.40,-0.12,0.01,0.16,-0.79,-0.03,
0.26,0.40,-0.12,0.01,0.16,-0.79,-0.05,
0.26,0.40,-0.12,0.01,0.15,-0.80,-0.07,
0.261,0.74,-0.13,0.39,0.15,-0.80,-0.07,
0.261,0.74,-0.13,0.39,0.15,-0.80,-0.10,
0.262,0.74,-0.13,0.39,0.14,-0.81,-0.13,
0.274,0.74,-0.13,0.39,0.12,-0.82,-0.17,
0.277,0.74,-0.13,0.39,0.11,-0.81,-0.18,
0.278,0.74,-0.13,0.39,0.09,-0.81,-0.21,
0.279,0.81,-0.21,0.85,0.09,-0.81,-0.21,
0.28,0.81,-0.21,0.85,0.07,-0.80,-0.23,
0.28,0.81,-0.21,0.85,0.06,-0.79,-0.26,
0.28,0.81,-0.21,0.85,0.02,-0.76,-0.29,
0.281,0.81,-0.21,0.85,0.00,-0.75,-0.30,
0.281,0.81,-0.21,0.85,-0.02,-0.73,-0.32,
0.282,0.60,-0.26,1.20,-0.02,-0.73,-0.32,
0.283,0.60,-0.26,1.20,-0.04,-0.70,-0.34,
0.284,0.60,-0.26,1.20,-0.07,-0.67,-0.35,
0.284,0.60,-0.26,1.20,-0.11,-0.63,-0.37,
0.285,0.60,-0.26,1.20,-0.13,-0.61,-0.38,
0.293,0.60,-0.26,1.20,-0.16,-0.58,-0.39,
0.294,0.39,-0.30,1.52,-0.16,-0.58,-0.39,
0.295,0.39,-0.30,1.52,-0.19,-0.55,-0.40,
0.296,0.39,-0.30,1.52,-0.21,-0.53,-0.40,
0.296,0.39,-0.30,1.52,-0.26,-0.49,-0.41,
0.296,0.39,-0.30,1.52,-0.28,-0.47,-0.41,
0.297,0.39,-0.30,1.52,-0.31,-0.44,-0.42,
0.298,0.35,-0.36,1.92,-0.31,-0.44,-0.42,
0.299,0.35,-0.36,1.92,-0.34,-0.42,-0.42,
0.3,0.35,-0.36,1.92,-0.37,-0.39,-0.42,
0.307,0.35,-0.36,1.92,-0.41,-0.34,-0.43,
0.308,0.35,-0.36,1.92,-0.43,-0.32,-0.43,
0.309,0.35,-0.36,1.92,-0.45,-0.28,-0.43,
0.309,0.39,-0.32,2.37,-0.45,-0.28,-0.43,
0.31,0.39,-0.32,2.37,-0.48,-0.25,-0.44,
0.31,0.39,-0.32,2.37,-0.51,-0.21,-0.44,
0.312,0.39,-0.32,2.37,-0.54,-0.16,-0.44,
0.341,0.39,-0.32,2.37,-0.55,-0.15,-0.44,
0.342,0.39,-0.32,2.37,-0.57,-0.11,-0.44,
0.343,0.53,-0.20,2.79,-0.57,-0.11,-0.44,
0.344,0.53,-0.20,2.79,-0.60,-0.08,-0.45,
0.344,0.53,-0.20,2.79,-0.61,-0.05,-0.45,
0.345,0.53,-0.20,2.79,-0.64,-0.00,-0.46,
0.345,0.53,-0.20,2.79,-0.65,0.01,-0.46,
0.346,0.53,-0.20,2.79,-0.66,0.04,-0.46,
0.347,0.77,-0.12,3.15,-0.66,0.04,-0.46,
0.348,0.77,-0.12,3.15,-0.67,0.07,-0.47,
0.348,0.77,-0.12,3.15,-0.68,0.09,-0.47,
0.349,0.77,-0.12,3.15,-0.70,0.13,-0.47,
0.349,0.77,-0.12,3.15,-0.70,0.14,-0.48,
0.35,0.77,-0.12,3.15,-0.71,0.15,-0.48,
0.351,1.00,-0.19,3.28,-0.71,0.15,-0.48,
0.351,1.00,-0.19,3.28,-0.72,0.16,-0.48,
0.352,1.00,-0.19,3.28,-0.72,0.17,-0.48,
0.352,1.00,-0.19,3.28,-0.73,0.16,-0.48,
0.353,1.00,-0.19,3.28,-0.73,0.16,-0.49,
0.353,1.00,-0.19,3.28,-0.74,0.16,-0.48,
0.354,0.88,-0.15,3.24,-0.74,0.16,-0.48,
0.354,0.88,-0.15,3.24,-0.74,0.15,-0.48,
0.355,0.88,-0.15,3.24,-0.75,0.14,-0.48,
0.355,0.88,-0.15,3.24,-0.76,0.13,-0.48,
0.356,0.88,-0.15,3.24,-0.77,0.12,-0.48,
0.356,0.88,-0.15,3.24,-0.77,0.09,-0.48,
0.372,0.61,-0.08,3.11,-0.77,0.09,-0.48,
0.375,0.61,-0.08,3.11,-0.78,0.07,-0.47,
0.376,0.61,-0.08,3.11,-0.78,0.03,-0.47,
0.376,0.61,-0.08,3.11,-0.78,-0.03,-0.46,
0.377,0.61,-0.08,3.11,-0.78,-0.05,-0.46,
0.378,0.61,-0.08,3.11,-0.77,-0.08,-0.45,
0.379,0.50,0.11,3.50,-0.77,-0.08,-0.45,
0.38,0.50,0.11,3.50,-0.77,-0.11,-0.45,
0.38,0.50,0.11,3.50,-0.75,-0.13,-0.45,
0.383,0.50,0.11,3.50,-0.73,-0.16,-0.45,
0.384,0.50,0.11,3.50,-0.72,-0.16,-0.45,
0.385,0.50,0.11,3.50,-0.69,-0.17,-0.45,
0.386,0.70,0.25,4.13,-0.69,-0.17,-0.45,
0.388,0.70,0.25,4.13,-0.66,-0.17,-0.45,
0.388,0.70,0.25,4.13,-0.63,-0.17,-0.45,
0.389,0.70,0.25,4.13,-0.58,-0.16,-0.45,
0.389,0.70,0.25,4.13,-0.57,-0.16,-0.45,
0.389,0.70,0.25,4.13,-0.53,-0.14,-0.45,
0.39,1.07,0.27,4.73,-0.53,-0.14,-0.45,
0.39,1.07,0.27,4.73,-0.49,-0.13,-0.46,
0.39,1.07,0.27,4.73,-0.45,-0.10,-0.46,
0.392,1.07,0.27,4.73,-0.38,-0.05,-0.46,
0.393,1.07,0.27,4.73,-0.36,-0.03,-0.46,
0.396,1.07,0.27,4.73,-0.31,0.01,-0.46,
0.399,1.29,0.09,5.27,-0.31,0.01,-0.46,
0.401,1.29,0.09,5.27,-0.27,0.06,-0.45,
0.401,1.29,0.09,5.27,-0.22,0.11,-0.45,
0.411,1.29,0.09,5.27,-0.15,0.19,-0.44,
0.412,1.29,0.09,5.27,-0.13,0.21,-0.44,
0.412,1.29,0.09,5.27,-0.08,0.27,-0.42,
0.413,1.14,-0.10,5.27,-0.08,0.27,-0.42,
0.413,1.14,-0.10,5.27,-0.03,0.32,-0.41,
0.413,1.14,-0.10,5.27,0.01,0.36,-0.40,
0.413,1.14,-0.10,5.27,0.07,0.42,-0.37,
0.414,1.14,-0.10,5.27,0.09,0.43,-0.36,
0.415,1.14,-0.10,5.27,0.12,0.46,-0.34,
0.422,0.75,-0.15,4.79,0.12,0.46,-0.34,
0.425,0.75,-0.15,4.79,0.16,0.48,-0.32,
0.426,0.75,-0.15,4.79,0.20,0.50,-0.28,
0.426,0.75,-0.15,4.79,0.22,0.50,-0.26,
0.427,0.75,-0.15,4.79,0.23,0.50,-0.25,
0.427,0.75,-0.15,4.79,0.25,0.49,-0.23,
0.428,0.40,-0.05,3.81,0.25,0.49,-0.23,
0.428,0.40,-0.05,3.81,0.26,0.47,-0.20,
0.429,0.40,-0.05,3.81,0.26,0.44,-0.18,
0.444,0.40,-0.05,3.81,0.26,0.37,-0.15,
0.447,0.40,-0.05,3.81,0.26,0.35,-0.14,
0.447,0.40,-0.05,3.81,0.25,0.29,-0.13,
0.448,0.35,0.07,2.54,0.25,0.29,-0.13,
0.449,0.35,0.07,2.54,0.24,0.22,-0.11,
0.45,0.35,0.07,2.54,0.23,0.15,-0.10,
0.451,0.35,0.07,2.54,0.20,0.04,-0.09,
0.452,0.35,0.07,2.54,0.19,-0.00,-0.08,
0.456,0.35,0.07,2.54,0.18,-0.08,-0.08,
0.457,0.65,0.30,1.80,0.18,-0.08,-0.08,
0.458,0.65,0.30,1.80,0.16,-0.16,-0.08,
0.459,0.65,0.30,1.80,0.13,-0.25,-0.09,
0.46,0.65,0.30,1.80,0.11,-0.38,-0.10,
0.461,0.65,0.30,1.80,0.10,-0.43,-0.11,
0.461,0.65,0.30,1.80,0.08,-0.52,-0.13,
0.462,1.30,0.66,1.60,0.08,-0.52,-0.13,
0.463,1.30,0.66,1.60,0.06,-0.60,-0.15,
0.463,1.30,0.66,1.60,0.05,-0.68,-0.17,
0.464,1.30,0.66,1.60,0.03,-0.78,-0.21,
0.464,1.30,0.66,1.60,0.03,-0.81,-0.22,
0.48,1.30,0.66,1.60,0.02,-0.85,-0.25,
0.485,1.94,0.84,1.94,0.02,-0.85,-0.25,
0.485,1.94,0.84,1.94,0.02,-0.89,-0.29,
0.485,1.94,0.84,1.94,0.02,-0.91,-0.32,
0.486,1.94,0.84,1.94,0.02,-0.92,-0.37,
0.486,1.94,0.84,1.94,0.02,-0.91,-0.38,
0.486,1.94,0.84,1.94,0.01,-0.87,-0.42,
0.487,2.34,0.65,2.48,0.01,-0.87,-0.42,
0.487,2.34,0.65,2.48,-0.01,-0.81,-0.45,
0.525,2.34,0.65,2.48,-0.03,-0.75,-0.48,
0.525,2.34,0.65,2.48,-0.06,-0.63,-0.52,
0.526,2.34,0.65,2.48,-0.07,-0.59,-0.53,
0.527,2.34,0.65,2.48,-0.10,-0.53,-0.54,
0.527,2.29,0.04,2.54,-0.10,-0.53,-0.54,
0.528,2.29,0.04,2.54,-0.11,-0.47,-0.55,
0.528,2.29,0.04,2.54,-0.12,-0.40,-0.55,
0.529,2.29,0.04,2.54,-0.12,-0.31,-0.53,
0.53,2.29,0.04,2.54,-0.12,-0.28,-0.53,
0.531,2.29,0.04,2.54,-0.11,-0.20,-0.50,
0.532,1.64,-0.49,2.57,-0.11,-0.20,-0.50,
0.532,1.64,-0.49,2.57,-0.11,-0.13,-0.48,
0.532,1.64,-0.49,2.57,-0.11,-0.05,-0.45,
0.533,1.64,-0.49,2.57,-0.12,0.07,-0.40,
0.534,1.64,-0.49,2.57,-0.13,0.11,-0.38,
0.536,1.64,-0.49,2.57,-0.14,0.18,-0.35,
0.536,0.90,-0.64,1.85,-0.14,0.18,-0.35,
0.536,0.90,-0.64,1.85,-0.16,0.25,-0.32,
0.538,0.90,-0.64,1.85,-0.17,0.31,-0.30,
0.54,0.90,-0.64,1.85,-0.20,0.38,-0.25,
0.541,0.90,-0.64,1.85,-0.21,0.40,-0.24,
0.541,0.90,-0.64,1.85,-0.22,0.44,-0.22,
0.542,0.59,-0.72,0.79,-0.22,0.44,-0.22,
0.543,0.59,-0.72,0.79,-0.24,0.48,-0.20,
0.544,0.59,-0.72,0.79,-0.26,0.51,-0.18,
0.544,0.59,-0.72,0.79,-0.29,0.54,-0.16,
0.545,0.59,-0.72,0.79,-0.29,0.55,-0.15,
0.546,0.59,-0.72,0.79,-0.31,0.57,-0.14,
0.546,0.59,-0.57,-0.14,-0.31,0.57,-0.14,
0.548,0.59,-0.57,-0.14,-0.32,0.58,-0.13,
0.548,0.59,-0.57,-0.14,-0.33,0.60,-0.12,
0.548,0.59,-0.57,-0.14,-0.34,0.61,-0.12,
0.549,0.59,-0.57,-0.14,-0.35,0.61,-0.11,
0.55,0.59,-0.57,-0.14,-0.35,0.62,-0.11,
0.55,0.84,-0.29,-0.73,-0.35,0.62,-0.11,
0.551,0.84,-0.29,-0.73,-0.35,0.62,-0.12,
0.551,0.84,-0.29,-0.73,-0.35,0.62,-0.12,
0.551,0.84,-0.29,-0.73,-0.34,0.62,-0.13,
0.552,0.84,-0.29,-0.73,-0.34,0.62,-0.13,
0.553,0.84,-0.29,-0.73,-0.32,0.62,-0.14,
0.554,1.09,-0.14,-1.15,-0.32,0.62,-0.14,
0.555,1.09,-0.14,-1.15,-0.31,0.62,-0.16,
0.555,1.09,-0.14,-1.15,-0.30,0.62,-0.17,
0.556,1.09,-0.14,-1.15,-0.28,0.62,-0.20,
0.556,1.09,-0.14,-1.15,-0.27,0.62,-0.21,
0.556,1.09,-0.14,-1.15,-0.25,0.62,-0.22,
0.558,1.27,-0.14,-1.65,-0.25,0.62,-0.22,
0.558,1.27,-0.14,-1.65,-0.24,0.62,-0.25,
0.562,1.27,-0.14,-1.65,-0.22,0.62,-0.26,
0.566,1.27,-0.14,-1.65,-0.19,0.62,-0.29,
0.567,1.27,-0.14,-1.65,-0.18,0.63,-0.30,
0.569,1.27,-0.14,-1.65,-0.16,0.64,-0.32,
0.57,1.12,-0.18,-2.11,-0.16,0.64,-0.32,
0.571,1.12,-0.18,-2.11,-0.15,0.65,-0.34,
0.572,1.12,-0.18,-2.11,-0.13,0.66,-0.35,
0.574,1.12,-0.18,-2.11,-0.11,0.67,-0.38,
0.575,1.12,-0.18,-2.11,-0.10,0.68,-0.39,
0.576,1.12,-0.18,-2.11,-0.09,0.69,-0.40,
0.578,0.75,-0.15,-2.65,-0.09,0.69,-0.40,
0.579,0.75,-0.15,-2.65,-0.08,0.71,-0.42,
0.58,0.75,-0.15,-2.65,-0.07,0.72,-0.43,
0.587,0.75,-0.15,-2.65,-0.05,0.72,-0.44,
0.59,0.75,-0.15,-2.65,-0.05,0.71,-0.44,
0.591,0.75,-0.15,-2.65,-0.05,0.70,-0.44,
0.592,0.24,-0.32,-3.41,-0.05,0.70,-0.44,
0.592,0.24,-0.32,-3.41,-0.05,0.68,-0.43,
0.594,0.24,-0.32,-3.41,-0.05,0.66,-0.42,
0.596,0.24,-0.32,-3.41,-0.05,0.63,-0.40,
0.596,0.24,-0.32,-3.41,-0.05,0.61,-0.40,
0.598,0.24,-0.32,-3.41,-0.06,0.59,-0.38,
0.599,-0.34,-0.54,-4.19,-0.06,0.59,-0.38,
0.604,-0.34,-0.54,-4.19,-0.06,0.58,-0.37,
0.605,-0.34,-0.54,-4.19,-0.07,0.56,-0.35,
0.606,-0.34,-0.54,-4.19,-0.08,0.53,-0.33,
0.606,-0.34,-0.54,-4.19,-0.08,0.52,-0.32,
0.607,-0.34,-0.54,-4.19,-0.08,0.50,-0.30,
0.607,-0.57,-0.51,-4.52,-0.08,0.50,-0.30,
0.608,-0.57,-0.51,-4.52,-0.08,0.48,-0.29,
0.62,-0.57,-0.51,-4.52,-0.09,0.46,-0.27,
0.623,-0.57,-0.51,-4.52,-0.09,0.43,-0.25,
0.624,-0.57,-0.51,-4.52,-0.09,0.42,-0.24,
0.624,-0.57,-0.51,-4.52,-0.08,0.39,-0.23,
0.624,-0.47,-0.24,-4.45,-0.08,0.39,-0.23,
0.626,-0.47,-0.24,-4.45,-0.08,0.36,-0.22,
0.628,-0.47,-0.24,-4.45,-0.07,0.34,-0.21,
0.629,-0.47,-0.24,-4.45,-0.06,0.29,-0.20,
0.63,-0.47,-0.24,-4.45,-0.06,0.28,-0.20,
0.651,-0.47,-0.24,-4.45,-0.04,0.25,-0.20,
0.654,-0.16,-0.15,-4.18,-0.04,0.25,-0.20,
0.655,-0.16,-0.15,-4.18,-0.03,0.22,-0.19,
0.655,-0.16,-0.15,-4.18,-0.01,0.19,-0.19,
0.656,-0.16,-0.15,-4.18,0.01,0.15,-0.19,
0.656,-0.16,-0.15,-4.18,0.03,0.12,-0.19,
0.656,-0.16,-0.15,-4.18,0.04,0.11,-0.19,
0.657,0.04,0.02,-3.99,0.04,0.11,-0.19,
0.657,0.04,0.02,-3.99,0.05,0.08,-0.19,
0.658,0.04,0.02,-3.99,0.07,0.06,-0.19,
0.658,0.04,0.02,-3.99,0.10,0.02,-0.19,
0.659,0.04,0.02,-3.99,0.11,0.01,-0.19,
0.66,0.04,0.02,-3.99,0.12,-0.01,-0.19,
0.695,0.09,0.04,-4.06,0.12,-0.01,-0.19,
0.695,0.09,0.04,-4.06,0.14,-0.04,-0.19,
0.696,0.09,0.04,-4.06,0.15,-0.06,-0.20,
0.697,0.09,0.04,-4.06,0.17,-0.11,-0.20,
0.697,0.09,0.04,-4.06,0.17,-0.12,-0.20,
0.698,0.09,0.04,-4.06,0.17,-0.15,-0.21,
0.699,0.17,0.12,-4.32,0.17,-0.15,-0.21,
0.699,0.17,0.12,-4.32,0.18,-0.19,-0.21,
0.7,0.17,0.12,-4.32,0.17,-0.22,-0.22,
0.7,0.17,0.12,-4.32,0.17,-0.27,-0.23,
0.701,0.17,0.12,-4.32,0.16,-0.28,-0.23,
0.701,0.17,0.12,-4.32,0.15,-0.32,-0.23,
0.702,0.16,0.18,-4.51,0.15,-0.32,-0.23,
0.702,0.16,0.18,-4.51,0.14,-0.35,-0.24,
0.703,0.16,0.18,-4.51,0.13,-0.38,-0.25,
0.703,0.16,0.18,-4.51,0.11,-0.42,-0.25,
0.704,0.16,0.18,-4.51,0.11,-0.44,-0.26,
0.704,0.16,0.18,-4.51,0.09,-0.46,-0.26,
0.705,0.10,0.34,-4.38,0.09,-0.46,-0.26,
0.706,0.10,0.34,-4.38,0.08,-0.48,-0.27,
0.707,0.10,0.34,-4.38,0.07,-0.50,-0.27,
0.707,0.10,0.34,-4.38,0.05,-0.52,-0.28,
0.708,0.10,0.34,-4.38,0.04,-0.54,-0.29,
0.708,0.10,0.34,-4.38,0.03,-0.55,-0.29,
0.709,0.01,0.36,-3.95,0.03,-0.55,-0.29,
0.71,0.01,0.36,-3.95,0.03,-0.56,-0.29,
0.71,0.01,0.36,-3.95,0.02,-0.58,-0.30,
0.711,0.01,0.36,-3.95,0.00,-0.60,-0.30,
0.711,0.01,0.36,-3.95,-0.00,-0.61,-0.30,
0.712,0.01,0.36,-3.95,-0.01,-0.62,-0.30,
0.712,-0.08,0.43,-3.44,-0.01,-0.62,-0.30,
0.713,-0.08,0.43,-3.44,-0.02,-0.63,-0.31,
0.713,-0.08,0.43,-3.44,-0.03,-0.64,-0.31,
0.714,-0.08,0.43,-3.44,-0.05,-0.65,-0.32,
0.714,-0.08,0.43,-3.44,-0.06,-0.66,-0.32,
0.715,-0.08,0.43,-3.44,-0.07,-0.66,-0.32,
0.715,-0.13,0.38,-2.88,-0.07,-0.66,-0.32,
0.716,-0.13,0.38,-2.88,-0.08,-0.66,-0.32,
0.717,-0.13,0.38,-2.88,-0.09,-0.66,-0.32,
0.717,-0.13,0.38,-2.88,-0.10,-0.65,-0.32,
0.718,-0.13,0.38,-2.88,-0.10,-0.64,-0.32,
0.719,-0.13,0.38,-2.88,-0.11,-0.64,-0.32,
0.719,-0.18,0.40,-2.20,-0.11,-0.64,-0.32,
0.72,-0.18,0.40,-2.20,-0.11,-0.61,-0.31,
0.72,-0.18,0.40,-2.20,-0.12,-0.54,-0.30,
0.724,-0.18,0.40,-2.20,-0.14,-0.36,-0.28,
0.727,-0.18,0.40,-2.20,-0.15,-0.20,-0.26,
0.727,-0.18,0.40,-2.20,-0.15,-0.13,-0.25,
0.728,-0.42,0.18,-0.92,-0.15,-0.13,-0.25,
0.729,-0.42,0.18,-0.92,-0.16,0.01,-0.22,
0.73,-0.42,0.18,-0.92,-0.18,0.10,-0.20,
0.741,-0.42,0.18,-0.92,-0.20,0.13,-0.16,
0.745,-0.42,0.18,-0.92,-0.21,0.12,-0.13,
0.746,-0.42,0.18,-0.92,-0.22,0.13,-0.12,
0.747,-0.37,0.06,-0.49,-0.22,0.13,-0.12,
0.747,-0.37,0.06,-0.49,-0.24,0.15,-0.09,
0.748,-0.37,0.06,-0.49,-0.26,0.19,-0.07,
0.749,-0.37,0.06,-0.49,-0.26,0.29,-0.03,
0.749,-0.37,0.06,-0.49,-0.27,0.36,-0.01,
0.75,-0.37,0.06,-0.49,-0.26,0.40,-0.00,
0.751,-0.71,0.46,-0.39,-0.26,0.40,-0.00,
0.752,-0.71,0.46,-0.39,-0.26,0.46,0.02,
0.753,-0.71,0.46,-0.39,-0.25,0.50,0.03,
0.753,-0.71,0.46,-0.39,-0.25,0.53,0.04,
0.754,-0.71,0.46,-0.39,-0.25,0.54,0.05,
0.756,-0.71,0.46,-0.39,-0.25,0.53,0.05,
0.77,-0.47,0.61,0.08,-0.25,0.53,0.05,
0.773,-0.47,0.61,0.08,-0.24,0.52,0.05,
0.773,-0.47,0.61,0.08,-0.24,0.51,0.04,
0.774,-0.47,0.61,0.08,-0.24,0.49,0.04,
0.774,-0.47,0.61,0.08,-0.23,0.47,0.04,
0.774,-0.47,0.61,0.08,-0.23,0.46,0.04,
0.775,-0.26,0.81,0.23,-0.23,0.46,0.04,
0.775,-0.26,0.81,0.23,-0.22,0.44,0.04,
0.775,-0.26,0.81,0.23,-0.20,0.41,0.04,
0.776,-0.26,0.81,0.23,-0.19,0.38,0.05,
0.776,-0.26,0.81,0.23,-0.18,0.36,0.05,
0.776,-0.26,0.81,0.23,-0.16,0.33,0.05,
0.78,-0.29,1.04,0.50,-0.16,0.33,0.05,
0.782,-0.29,1.04,0.50,-0.15,0.29,0.05,
0.809,-0.29,1.04,0.50,-0.13,0.25,0.05,
0.813,-0.29,1.04,0.50,-0.10,0.19,0.05,
0.815,-0.29,1.04,0.50,-0.09,0.15,0.05,
0.817,-0.29,1.04,0.50,-0.08,0.13,0.04,
0.82,-0.19,1.12,0.88,-0.08,0.13,0.04,
0.821,-0.19,1.12,0.88,-0.06,0.09,0.04,
0.821,-0.19,1.12,0.88,-0.04,0.05,0.04,
0.822,-0.19,1.12,0.88,-0.02,-0.01,0.03,
0.823,-0.19,1.12,0.88,0.00,-0.05,0.03,
0.824,-0.19,1.12,0.88,0.01,-0.07,0.02,
0.824,-0.05,1.18,1.22,0.01,-0.07,0.02,
0.825,-0.05,1.18,1.22,0.02,-0.10,0.02,
0.825,-0.05,1.18,1.22,0.04,-0.13,0.01,
0.826,-0.05,1.18,1.22,0.06,-0.18,-0.01,
0.827,-0.05,1.18,1.22,0.08,-0.20,-0.02,
0.828,-0.05,1.18,1.22,0.08,-0.21,-0.02,
0.829,0.11,1.21,1.48,0.08,-0.21,-0.02,
0.83,0.11,1.21,1.48,0.09,-0.23,-0.04,
0.83,0.11,1.21,1.48,0.10,-0.25,-0.05,
0.83,0.11,1.21,1.48,0.11,-0.27,-0.07,
0.872,0.11,1.21,1.48,0.12,-0.28,-0.08,
0.872,0.11,1.21,1.48,0.12,-0.29,-0.08,
0.873,0.23,1.22,1.69,0.12,-0.29,-0.08,
0.873,0.23,1.22,1.69,0.12,-0.30,-0.10,
0.873,0.23,1.22,1.69,0.12,-0.30,-0.11,
0.874,0.23,1.22,1.69,0.12,-0.31,-0.13,
0.875,0.23,1.22,1.69,0.11,-0.31,-0.14,
0.876,0.23,1.22,1.69,0.11,-0.31,-0.15,
0.878,0.29,1.12,1.99,0.11,-0.31,-0.15,
0.879,0.29,1.12,1.99,0.10,-0.31,-0.16,
0.88,0.29,1.12,1.99,0.09,-0.30,-0.17,
0.881,0.29,1.12,1.99,0.08,-0.29,-0.18,
0.881,0.29,1.12,1.99,0.07,-0.27,-0.19,
0.881,0.29,1.12,1.99,0.07,-0.26,-0.19,
0.882,0.22,0.95,2.40,0.07,-0.26,-0.19,
0.884,0.22,0.95,2.40,0.06,-0.24,-0.20,
0.885,0.22,0.95,2.40,0.05,-0.19,-0.21,
0.887,0.22,0.95,2.40,0.05,-0.16,-0.21,
0.889,0.22,0.95,2.40,0.05,-0.12,-0.21,
0.89,0.22,0.95,2.40,0.04,-0.09,-0.21,
0.89,0.11,0.75,2.87,0.04,-0.09,-0.21,
0.891,0.11,0.75,2.87,0.04,-0.04,-0.21,
0.891,0.11,0.75,2.87,0.04,0.02,-0.21,
0.892,0.11,0.75,2.87,0.04,0.10,-0.20,
0.894,0.11,0.75,2.87,0.05,0.17,-0.19,
0.896,0.11,0.75,2.87,0.05,0.20,-0.19,
0.898,-0.04,0.60,3.07,0.05,0.20,-0.19,
0.899,-0.04,0.60,3.07,0.05,0.26,-0.17,
0.9,-0.04,0.60,3.07,0.05,0.32,-0.16,
0.9,-0.04,0.60,3.07,0.05,0.41,-0.14,
0.9,-0.04,0.60,3.07,0.06,0.47,-0.13,
0.901,-0.04,0.60,3.07,0.06,0.50,-0.13,
0.901,-0.09,0.56,2.89,0.06,0.50,-0.13,
0.901,-0.09,0.56,2.89,0.06,0.55,-0.12,
0.904,-0.09,0.56,2.89,0.06,0.60,-0.10,
0.905,-0.09,0.56,2.89,0.06,0.67,-0.09,
0.905,-0.09,0.56,2.89,0.05,0.70,-0.08,
0.905,-0.09,0.56,2.89,0.05,0.73,-0.08,
0.905,-0.05,0.64,2.38,0.05,0.73,-0.08,
0.906,-0.05,0.64,2.38,0.04,0.75,-0.08,
0.906,-0.05,0.64,2.38,0.03,0.76,-0.08,
0.907,-0.05,0.64,2.38,0.02,0.76,-0.08,
0.907,-0.05,0.64,2.38,0.00,0.75,-0.09,
0.907,-0.05,0.64,2.38,-0.01,0.74,-0.09,
0.907,0.02,0.80,1.83,-0.01,0.74,-0.09,
0.908,0.02,0.80,1.83,-0.03,0.73,-0.10,
0.908,0.02,0.80,1.83,-0.04,0.71,-0.11,
0.908,0.02,0.80,1.83,-0.06,0.69,-0.12,
0.909,0.02,0.80,1.83,-0.07,0.66,-0.13,
0.909,0.02,0.80,1.83,-0.09,0.63,-0.14,
0.909,-0.15,0.99,1.71,-0.09,0.63,-0.14,
0.91,-0.15,0.99,1.71,-0.10,0.60,-0.15,
0.91,-0.15,0.99,1.71,-0.11,0.57,-0.16,
0.91,-0.15,0.99,1.71,-0.12,0.54,-0.17,
0.911,-0.15,0.99,1.71,-0.13,0.50,-0.18,
0.911,-0.56,1.04,2.08,-0.13,0.50,-0.18,
0.911,-0.56,1.04,2.08,-0.16,0.39,-0.21,
0.912,-0.56,1.04,2.08,-0.16,0.39,-0.21,
0.912,-0.56,1.04,2.08,-0.16,0.39,-0.21,
0.912,-0.56,1.04,2.08,-0.16,0.35,-0.21,
0.915,-0.56,1.04,2.08,-0.16,0.31,-0.21,
0.918,-0.56,1.04,2.08,-0.16,0.27,-0.22,
0.919,-0.85,0.88,2.70,-0.16,0.27,-0.22,
0.92,-0.85,0.88,2.70,-0.16,0.24,-0.22,
0.921,-0.85,0.88,2.70,-0.15,0.21,-0.21,
0.923,-0.85,0.88,2.70,-0.14,0.19,-0.21,
0.924,-0.85,0.88,2.70,-0.13,0.17,-0.20,
0.926,-0.85,0.88,2.70,-0.11,0.16,-0.19,
0.928,-1.20,0.56,3.63,-0.11,0.16,-0.19,
0.93,-1.20,0.56,3.63,-0.09,0.16,-0.18,
0.931,-1.20,0.56,3.63,-0.07,0.16,-0.17,
0.942,-1.20,0.56,3.63,-0.03,0.17,-0.15,
0.944,-1.20,0.56,3.63,-0.02,0.17,-0.14,
0.944,-1.20,0.56,3.63,0.01,0.19,-0.12,
0.945,-1.58,0.23,4.36,0.01,0.19,-0.12,
0.946,-1.58,0.23,4.36,0.04,0.20,-0.10,
0.946,-1.58,0.23,4.36,0.07,0.22,-0.08,
0.982,-1.58,0.23,4.36,0.10,0.24,-0.06,
0.985,-1.58,0.23,4.36,0.13,0.26,-0.03,
0.987,-1.58,0.23,4.36,0.15,0.27,-0.01,
0.987,-1.87,0.00,4.61,0.15,0.27,-0.01,
0.987,-1.87,0.00,4.61,0.18,0.29,0.02,
0.988,-1.87,0.00,4.61,0.21,0.30,0.05,
0.988,-1.87,0.00,4.61,0.23,0.32,0.08,
0.988,-1.87,0.00,4.61,0.26,0.33,0.10,
0.989,-1.87,0.00,4.61,0.28,0.33,0.13,
0.989,-2.17,-0.13,4.38,0.28,0.33,0.13,
0.989,-2.17,-0.13,4.38,0.30,0.34,0.16,
0.99,-2.17,-0.13,4.38,0.31,0.35,0.19,
0.99,-2.17,-0.13,4.38,0.32,0.35,0.21,
0.99,-2.17,-0.13,4.38,0.33,0.35,0.24,
0.991,-2.17,-0.13,4.38,0.35,0.35,0.26,
0.991,-2.26,-0.14,3.87,0.35,0.35,0.26,
0.991,-2.26,-0.14,3.87,0.35,0.34,0.29,
0.991,-2.26,-0.14,3.87,0.36,0.33,0.32,
0.992,-2.26,-0.14,3.87,0.36,0.30,0.35,
0.992,-2.26,-0.14,3.87,0.36,0.29,0.36,
0.992,-2.26,-0.14,3.87,0.35,0.26,0.38,
0.993,-2.29,-0.14,3.36,0.35,0.26,0.38,
0.993,-2.29,-0.14,3.36,0.35,0.23,0.40,
1.017,-2.29,-0.14,3.36,0.34,0.19,0.41,
1.017,-2.29,-0.14,3.36,0.32,0.13,0.44,
1.021,-2.29,-0.14,3.36,0.31,0.11,0.44,
1.022,-2.29,-0.14,3.36,0.29,0.06,0.45,
1.022,-1.94,0.01,2.97,0.29,0.06,0.45,
1.023,-1.94,0.01,2.97,0.27,0.00,0.46,
1.023,-1.94,0.01,2.97,0.25,-0.06,0.46,
1.024,-1.94,0.01,2.97,0.22,-0.13,0.46,
1.024,-1.94,0.01,2.97,0.20,-0.19,0.46,
1.025,-1.94,0.01,2.97,0.17,-0.26,0.45,
1.025,-1.44,0.16,2.95,0.17,-0.26,0.45,
1.025,-1.44,0.16,2.95,0.14,-0.34,0.44,
1.026,-1.44,0.16,2.95,0.12,-0.41,0.43,
1.026,-1.44,0.16,2.95,0.09,-0.48,0.42,
1.027,-1.44,0.16,2.95,0.06,-0.55,0.40,
1.027,-1.44,0.16,2.95,0.04,-0.61,0.39,
1.028,-0.91,0.24,3.53,0.04,-0.61,0.39,
1.028,-0.91,0.24,3.53,0.02,-0.67,0.37,
1.029,-0.91,0.24,3.53,0.00,-0.72,0.36,
1.029,-0.91,0.24,3.53,-0.01,-0.77,0.34,
1.03,-0.91,0.24,3.53,-0.03,-0.81,0.33,
1.03,-0.91,0.24,3.53,-0.04,-0.84,0.32,
1.031,-0.60,0.05,4.43,-0.04,-0.84,0.32,
1.031,-0.60,0.05,4.43,-0.05,-0.87,0.31,
1.031,-0.60,0.05,4.43,-0.06,-0.89,0.30,
1.032,-0.60,0.05,4.43,-0.06,-0.91,0.29,
1.032,-0.60,0.05,4.43,-0.06,-0.91,0.28,
1.033,-0.60,0.05,4.43,-0.06,-0.92,0.28,
1.033,-0.49,-0.31,5.31,-0.06,-0.92,0.28,
1.034,-0.49,-0.31,5.31,-0.05,-0.91,0.28,
1.034,-0.49,-0.31,5.31,-0.04,-0.90,0.28,
1.035,-0.49,-0.31,5.31,-0.02,-0.87,0.28,
1.035,-0.49,-0.31,5.31,-0.01,-0.86,0.28,
1.035,-0.49,-0.31,5.31,0.01,-0.83,0.29,
1.041,-0.47,-0.71,5.99,0.01,-0.83,0.29,
1.043,-0.47,-0.71,5.99,0.03,-0.79,0.29,
1.044,-0.47,-0.71,5.99,0.06,-0.75,0.30,
1.044,-0.47,-0.71,5.99,0.09,-0.68,0.32,
1.045,-0.47,-0.71,5.99,0.10,-0.66,0.32,
1.06,-0.47,-0.71,5.99,0.13,-0.60,0.33,
1.061,-0.43,-1.01,6.11,0.13,-0.60,0.33,
1.062,-0.43,-1.01,6.11,0.15,-0.54,0.35,
1.063,-0.43,-1.01,6.11,0.18,-0.48,0.36,
1.064,-0.43,-1.01,6.11,0.22,-0.38,0.39,
1.065,-0.43,-1.01,6.11,0.23,-0.34,0.41,
1.065,-0.43,-1.01,6.11,0.25,-0.27,0.43,
1.068,-0.47,-1.30,5.58,0.25,-0.27,0.43,
1.07,-0.47,-1.30,5.58,0.28,-0.20,0.45,
1.071,-0.47,-1.30,5.58,0.30,-0.12,0.47,
1.072,-0.47,-1.30,5.58,0.33,-0.01,0.51,
1.073,-0.47,-1.30,5.58,0.34,0.03,0.52,
1.074,-0.47,-1.30,5.58,0.35,0.10,0.55,
1.074,-0.49,-1.34,4.44,0.35,0.10,0.55,
1.075,-0.49,-1.34,4.44,0.37,0.17,0.57,
1.075,-0.49,-1.34,4.44,0.38,0.23,0.59,
1.076,-0.49,-1.34,4.44,0.39,0.33,0.62,
1.077,-0.49,-1.34,4.44,0.39,0.35,0.63,
1.077,-0.49,-1.34,4.44,0.40,0.40,0.64,
1.081,-0.39,-1.24,2.89,0.40,0.40,0.64,
1.083,-0.39,-1.24,2.89,0.40,0.45,0.66,
1.084,-0.39,-1.24,2.89,0.40,0.49,0.67,
1.085,-0.39,-1.24,2.89,0.40,0.54,0.68,
1.085,-0.39,-1.24,2.89,0.40,0.55,0.68,
1.085,-0.39,-1.24,2.89,0.40,0.57,0.69,
1.088,-0.20,-0.94,1.21,0.40,0.57,0.69,
1.089,-0.20,-0.94,1.21,0.40,0.59,0.69,
1.089,-0.20,-0.94,1.21,0.39,0.60,0.69,
1.093,-0.20,-0.94,1.21,0.39,0.60,0.70,
1.094,-0.20,-0.94,1.21,0.39,0.60,0.70,
1.098,-0.20,-0.94,1.21,0.38,0.60,0.69,
1.102,-0.00,-0.75,-0.43,0.38,0.60,0.69,
1.103,-0.00,-0.75,-0.43,0.38,0.59,0.69,
1.106,-0.00,-0.75,-0.43,0.37,0.57,0.69,
1.108,-0.00,-0.75,-0.43,0.36,0.55,0.68,
1.108,-0.00,-0.75,-0.43,0.35,0.54,0.68,
1.109,-0.00,-0.75,-0.43,0.35,0.51,0.67,
1.11,0.15,-0.62,-1.86,0.35,0.51,0.67,
1.111,0.15,-0.62,-1.86,0.34,0.49,0.67,
1.111,0.15,-0.62,-1.86,0.33,0.46,0.66,
1.124,0.15,-0.62,-1.86,0.32,0.42,0.65,
1.126,0.15,-0.62,-1.86,0.32,0.41,0.65,
1.127,0.15,-0.62,-1.86,0.32,0.38,0.65,
1.128,0.12,-0.52,-2.91,0.32,0.38,0.65,
1.128,0.12,-0.52,-2.91,0.31,0.35,0.64,
1.129,0.12,-0.52,-2.91,0.31,0.32,0.64,
1.129,0.12,-0.52,-2.91,0.30,0.27,0.64,
1.13,0.12,-0.52,-2.91,0.30,0.26,0.64,
1.131,0.12,-0.52,-2.91,0.29,0.23,0.64,
1.132,-0.07,-0.62,-3.68,0.29,0.23,0.64,
1.132,-0.07,-0.62,-3.68,0.28,0.20,0.64,
1.133,-0.07,-0.62,-3.68,0.28,0.18,0.65,
1.161,-0.07,-0.62,-3.68,0.26,0.14,0.65,
1.163,-0.07,-0.62,-3.68,0.25,0.13,0.65,
1.164,-0.07,-0.62,-3.68,0.24,0.12,0.66,
1.165,-0.28,-0.75,-4.35,0.24,0.12,0.66,
1.165,-0.28,-0.75,-4.35,0.23,0.10,0.66,
1.166,-0.28,-0.75,-4.35,0.21,0.08,0.67,
1.167,-0.28,-0.75,-4.35,0.19,0.05,0.68,
1.168,-0.28,-0.75,-4.35,0.17,0.04,0.68,
1.168,-0.28,-0.75,-4.35,0.15,0.02,0.69,
1.2,-0.46,-0.94,-5.07,0.15,0.02,0.69,
1.201,-0.46,-0.94,-5.07,0.12,0.01,0.70,
1.202,-0.46,-0.94,-5.07,0.10,-0.01,0.71,
1.202,-0.46,-0.94,-5.07,0.06,-0.04,0.73,
1.203,-0.46,-0.94,-5.07,0.04,-0.05,0.74,
1.204,-0.46,-0.94,-5.07,0.00,-0.07,0.78,
1.204,-1.13,-1.65,-5.64,0.00,-0.07,0.78,
1.205,-1.13,-1.65,-5.64,-0.03,-0.10,0.81,
1.206,-1.13,-1.65,-5.64,-0.07,-0.11,0.85,
1.206,-1.13,-1.65,-5.64,-0.11,-0.10,0.93,
1.207,-1.13,-1.65,-5.64,-0.12,-0.08,0.95,
1.208,-1.13,-1.65,-5.64,-0.14,-0.05,1.00,
1.209,-1.66,-1.61,-5.72,-0.14,-0.05,1.00,
1.209,-1.66,-1.61,-5.72,-0.15,-0.02,1.04,
1.21,-1.66,-1.61,-5.72,-0.15,0.01,1.08,
1.211,-1.66,-1.61,-5.72,-0.16,0.05,1.14,
1.212,-1.66,-1.61,-5.72,-0.16,0.06,1.16,
1.212,-1.66,-1.61,-5.72,-0.16,0.07,1.20,
1.213,-0.88,-1.25,-5.08,-0.16,0.07,1.20,
1.214,-0.88,-1.25,-5.08,-0.16,0.07,1.22,
1.214,-0.88,-1.25,-5.08,-0.16,0.07,1.24,
1.215,-0.88,-1.25,-5.08,-0.15,0.05,1.26,
1.215,-0.88,-1.25,-5.08,-0.14,0.04,1.26,
1.216,-0.88,-1.25,-5.08,-0.13,0.02,1.27,
1.216,0.18,-1.45,-4.57,-0.13,0.02,1.27,
1.216,0.18,-1.45,-4.57,-0.12,0.01,1.26,
1.217,0.18,-1.45,-4.57,-0.10,-0.02,1.26,
1.218,0.18,-1.45,-4.57,-0.07,-0.05,1.24,
1.218,0.18,-1.45,-4.57,-0.05,-0.06,1.24,
1.219,0.18,-1.45,-4.57,-0.03,-0.08,1.23,
1.219,0.75,-1.60,-4.23,-0.03,-0.08,1.23,
1.22,0.75,-1.60,-4.23,0.00,-0.11,1.21,
1.22,0.75,-1.60,-4.23,0.03,-0.13,1.20,
1.22,0.75,-1.60,-4.23,0.08,-0.16,1.19,
1.221,0.75,-1.60,-4.23,0.10,-0.17,1.18,
1.221,0.75,-1.60,-4.23,0.14,-0.20,1.17,
1.221,0.80,-1.33,-3.94,0.14,-0.20,1.17,
1.223,0.80,-1.33,-3.94,0.17,-0.22,1.17,
1.223,0.80,-1.33,-3.94,0.20,-0.24,1.16,
1.224,0.80,-1.33,-3.94,0.26,-0.27,1.15,
1.224,0.80,-1.33,-3.94,0.27,-0.28,1.15,
1.224,0.80,-1.33,-3.94,0.31,-0.31,1.14,
1.225,0.73,-1.08,-3.85,0.31,-0.31,1.14,
1.225,0.73,-1.08,-3.85,0.34,-0.34,1.13,
1.226,0.73,-1.08,-3.85,0.37,-0.36,1.12,
1.226,0.73,-1.08,-3.85,0.40,-0.40,1.10,
1.227,0.73,-1.08,-3.85,0.42,-0.41,1.10,
1.227,0.73,-1.08,-3.85,0.44,-0.44,1.09,
1.228,0.59,-1.11,-3.99,0.44,-0.44,1.09,
1.228,0.59,-1.11,-3.99,0.45,-0.46,1.07,
1.232,0.59,-1.11,-3.99,0.47,-0.48,1.06,
1.235,0.59,-1.11,-3.99,0.49,-0.51,1.04,
1.236,0.59,-1.11,-3.99,0.49,-0.52,1.03,
1.236,0.59,-1.11,-3.99,0.50,-0.54,1.02,
1.237,0.48,-1.19,-4.22,0.50,-0.54,1.02,
1.239,0.48,-1.19,-4.22,0.51,-0.56,1.00,
1.24,0.48,-1.19,-4.22,0.51,-0.58,0.99,
1.243,0.48,-1.19,-4.22,0.51,-0.61,0.97,
1.244,0.48,-1.19,-4.22,0.51,-0.61,0.97,
1.247,0.48,-1.19,-4.22,0.50,-0.62,0.96,
1.249,0.34,-1.17,-4.35,0.50,-0.62,0.96,
1.25,0.34,-1.17,-4.35,0.50,-0.63,0.95,
1.251,0.34,-1.17,-4.35,0.49,-0.64,0.94,
1.253,0.34,-1.17,-4.35,0.47,-0.64,0.93,
1.254,0.34,-1.17,-4.35,0.47,-0.65,0.92,
1.256,0.34,-1.17,-4.35,0.46,-0.64,0.92,
1.258,0.35,-1.07,-4.40,0.46,-0.64,0.92,
1.258,0.35,-1.07,-4.40,0.44,-0.64,0.90,
1.259,0.35,-1.07,-4.40,0.42,-0.64,0.90,
1.271,0.35,-1.07,-4.40,0.39,-0.63,0.87,
1.273,0.35,-1.07,-4.40,0.38,-0.63,0.87,
1.274,0.35,-1.07,-4.40,0.36,-0.63,0.85,
1.274,0.46,-1.02,-4.31,0.36,-0.63,0.85,
1.276,0.46,-1.02,-4.31,0.33,-0.62,0.83,
1.276,0.46,-1.02,-4.31,0.31,-0.61,0.82,
1.276,0.46,-1.02,-4.31,0.27,-0.60,0.79,
1.277,0.46,-1.02,-4.31,0.25,-0.59,0.78,
1.277,0.46,-1.02,-4.31,0.23,-0.58,0.76,
1.278,0.54,-0.88,-4.10,0.23,-0.58,0.76,
1.279,0.54,-0.88,-4.10,0.20,-0.56,0.75,
1.317,0.54,-0.88,-4.10,0.17,-0.54,0.73,
1.32,0.54,-0.88,-4.10,0.12,-0.51,0.71,
1.32,0.54,-0.88,-4.10,0.11,-0.49,0.70,
1.321,0.54,-0.88,-4.10,0.08,-0.47,0.69,
1.321,0.42,-0.84,-3.79,0.08,-0.47,0.69,
1.321,0.42,-0.84,-3.79,0.04,-0.44,0.68,
1.322,0.42,-0.84,-3.79,0.01,-0.41,0.67,
1.322,0.42,-0.84,-3.79,-0.03,-0.37,0.65,
1.323,0.42,-0.84,-3.79,-0.05,-0.36,0.65,
1.323,0.42,-0.84,-3.79,-0.08,-0.34,0.64,
1.324,0.26,-0.75,-3.44,-0.08,-0.34,0.64,
1.324,0.26,-0.75,-3.44,-0.11,-0.31,0.63,
1.325,0.26,-0.75,-3.44,-0.14,-0.28,0.62,
1.325,0.26,-0.75,-3.44,-0.19,-0.25,0.61,
1.325,0.26,-0.75,-3.44,-0.21,-0.24,0.60,
1.326,0.26,-0.75,-3.44,-0.24,-0.23,0.59,
1.327,0.17,-0.60,-2.99,-0.24,-0.23,0.59,
1.328,0.17,-0.60,-2.99,-0.27,-0.22,0.58,
1.328,0.17,-0.60,-2.99,-0.30,-0.22,0.56,
1.329,0.17,-0.60,-2.99,-0.34,-0.22,0.55,
1.364,0.17,-0.60,-2.99,-0.35,-0.23,0.54,
1.366,0.17,-0.60,-2.99,-0.37,-0.23,0.53,
1.368,0.05,-0.37,-2.16,-0.37,-0.23,0.53,
1.368,0.05,-0.37,-2.16,-0.39,-0.24,0.52,
1.369,0.05,-0.37,-2.16,-0.41,-0.23,0.52,
1.37,0.05,-0.37,-2.16,-0.44,-0.23,0.52,
1.371,0.05,-0.37,-2.16,-0.44,-0.22,0.52,
1.371,0.05,-0.37,-2.16,-0.46,-0.21,0.52,
1.372,-0.07,-0.13,-1.44,-0.46,-0.21,0.52,
1.372,-0.07,-0.13,-1.44,-0.47,-0.21,0.53,
1.374,-0.07,-0.13,-1.44,-0.48,-0.20,0.53,
1.374,-0.07,-0.13,-1.44,-0.49,-0.18,0.53,
1.375,-0.07,-0.13,-1.44,-0.49,-0.18,0.53,
1.376,-0.07,-0.13,-1.44,-0.49,-0.16,0.52,
1.377,0.16,-0.17,-0.79,-0.49,-0.16,0.52,
1.377,0.16,-0.17,-0.79,-0.48,-0.14,0.51,
1.379,0.16,-0.17,-0.79,-0.48,-0.13,0.49,
1.38,0.16,-0.17,-0.79,-0.46,-0.12,0.45,
1.381,0.16,-0.17,-0.79,-0.46,-0.11,0.43,
1.381,0.16,-0.17,-0.79,-0.45,-0.11,0.40,
1.382,0.85,-0.19,-0.13,-0.45,-0.11,0.40,
1.383,0.85,-0.19,-0.13,-0.44,-0.11,0.36,
1.384,0.85,-0.19,-0.13,-0.43,-0.11,0.32,
1.384,0.85,-0.19,-0.13,-0.42,-0.13,0.25,
1.385,0.85,-0.19,-0.13,-0.42,-0.14,0.23,
1.386,0.85,-0.19,-0.13,-0.42,-0.15,0.18,
1.387,1.40,-0.01,0.37,-0.42,-0.15,0.18,
1.387,1.40,-0.01,0.37,-0.43,-0.17,0.14,
1.388,1.40,-0.01,0.37,-0.44,-0.18,0.09,
1.389,1.40,-0.01,0.37,-0.46,-0.21,0.02,
1.389,1.40,-0.01,0.37,-0.47,-0.22,0.00,
1.39,1.40,-0.01,0.37,-0.49,-0.24,-0.04,
1.39,1.60,0.24,0.78,-0.49,-0.24,-0.04,
1.391,1.60,0.24,0.78,-0.51,-0.26,-0.09,
1.391,1.60,0.24,0.78,-0.55,-0.28,-0.13,
1.392,1.60,0.24,0.78,-0.60,-0.32,-0.20,
1.392,1.60,0.24,0.78,-0.62,-0.33,-0.22,
1.392,1.60,0.24,0.78,-0.66,-0.35,-0.26,
1.393,1.66,0.28,1.31,-0.66,-0.35,-0.26,
1.393,1.66,0.28,1.31,-0.70,-0.37,-0.30,
1.394,1.66,0.28,1.31,-0.74,-0.37,-0.34,
1.394,1.66,0.28,1.31,-0.80,-0.38,-0.40,
1.395,1.66,0.28,1.31,-0.81,-0.37,-0.41,
1.395,1.66,0.28,1.31,-0.84,-0.36,-0.45,
1.395,1.58,0.20,2.48,-0.84,-0.36,-0.45,
1.396,1.58,0.20,2.48,-0.87,-0.34,-0.48,
1.396,1.58,0.20,2.48,-0.89,-0.32,-0.52,
1.397,1.58,0.20,2.48,-0.92,-0.27,-0.56,
1.397,1.58,0.20,2.48,-0.93,-0.26,-0.58,
1.398,1.58,0.20,2.48,-0.94,-0.22,-0.60,
1.398,1.51,0.09,3.90,-0.94,-0.22,-0.60,
1.399,1.51,0.09,3.90,-0.95,-0.18,-0.63,
1.399,1.51,0.09,3.90,-0.95,-0.14,-0.66,
1.403,1.51,0.09,3.90,-0.95,-0.07,-0.69,
1.405,1.51,0.09,3.90,-0.95,-0.05,-0.70,
1.407,1.51,0.09,3.90,-0.94,-0.01,-0.71,
1.408,1.20,0.06,4.99,-0.94,-0.01,-0.71,
1.409,1.20,0.06,4.99,-0.93,0.03,-0.73,
1.41,1.20,0.06,4.99,-0.92,0.08,-0.74,
1.426,1.20,0.06,4.99,-0.90,0.14,-0.74,
1.428,1.20,0.06,4.99,-0.89,0.16,-0.74,
1.429,1.20,0.06,4.99,-0.87,0.20,-0.74,
1.429,0.72,-0.04,5.46,-0.87,0.20,-0.74,
1.43,0.72,-0.04,5.46,-0.85,0.23,-0.74,
1.431,0.72,-0.04,5.46,-0.83,0.26,-0.73,
1.431,0.72,-0.04,5.46,-0.80,0.30,-0.71,
1.431,0.72,-0.04,5.46,-0.79,0.30,-0.71,
1.432,0.72,-0.04,5.46,-0.77,0.31,-0.69,
1.432,0.34,-0.06,5.39,-0.77,0.31,-0.69,
1.432,0.34,-0.06,5.39,-0.74,0.30,-0.66,
1.433,0.34,-0.06,5.39,-0.71,0.27,-0.63,
1.434,0.34,-0.06,5.39,-0.66,0.25,-0.58,
1.435,0.34,-0.06,5.39,-0.65,0.23,-0.57,
1.436,0.34,-0.06,5.39,-0.62,0.21,-0.54,
1.47,0.00,-0.01,5.13,-0.62,0.21,-0.54,
1.472,0.00,-0.01,5.13,-0.59,0.19,-0.52,
1.473,0.00,-0.01,5.13,-0.57,0.17,-0.50,
1.474,0.00,-0.01,5.13,-0.54,0.14,-0.49,
1.475,0.00,-0.01,5.13,-0.53,0.12,-0.49,
1.475,0.00,-0.01,5.13,-0.52,0.09,-0.49,
1.476,0.45,0.48,4.85,-0.52,0.09,-0.49,
1.477,0.45,0.48,4.85,-0.51,0.07,-0.50,
1.477,0.45,0.48,4.85,-0.51,0.04,-0.52,
1.478,0.45,0.48,4.85,-0.51,-0.00,-0.55,
1.479,0.45,0.48,4.85,-0.50,-0.02,-0.56,
1.479,0.45,0.48,4.85,-0.50,-0.04,-0.58,
1.48,0.93,0.93,4.76,-0.50,-0.04,-0.58,
1.481,0.93,0.93,4.76,-0.50,-0.06,-0.60,
1.481,0.93,0.93,4.76,-0.50,-0.08,-0.63,
1.482,0.93,0.93,4.76,-0.50,-0.10,-0.67,
1.483,0.93,0.93,4.76,-0.49,-0.10,-0.68,
1.483,0.93,0.93,4.76,-0.48,-0.11,-0.70,
1.484,1.22,1.09,5.11,-0.48,-0.11,-0.70,
1.484,1.22,1.09,5.11,-0.47,-0.12,-0.72,
1.485,1.22,1.09,5.11,-0.46,-0.13,-0.75,
1.485,1.22,1.09,5.11,-0.44,-0.13,-0.77,
1.485,1.22,1.09,5.11,-0.43,-0.13,-0.78,
1.486,1.22,1.09,5.11,-0.41,-0.14,-0.79,
1.489,1.29,1.04,5.64,-0.41,-0.14,-0.79,
1.492,1.29,1.04,5.64,-0.40,-0.14,-0.80,
1.531,1.29,1.04,5.64,-0.37,-0.13,-0.82,
1.531,1.29,1.04,5.64,-0.34,-0.12,-0.83,
1.532,1.29,1.04,5.64,-0.33,-0.11,-0.83,
1.532,1.29,1.04,5.64,-0.30,-0.10,-0.84,
1.533,1.06,0.92,6.07,-0.30,-0.10,-0.84,
1.533,1.06,0.92,6.07,-0.28,-0.09,-0.84,
1.534,1.06,0.92,6.07,-0.25,-0.07,-0.84,
1.534,1.06,0.92,6.07,-0.21,-0.04,-0.84,
1.535,1.06,0.92,6.07,-0.20,-0.03,-0.84,
1.535,1.06,0.92,6.07,-0.17,-0.01,-0.83,
1.536,0.76,0.71,6.21,-0.17,-0.01,-0.83,
1.537,0.76,0.71,6.21,-0.14,0.01,-0.83,
1.537,0.76,0.71,6.21,-0.12,0.03,-0.82,
1.537,0.76,0.71,6.21,-0.09,0.05,-0.80,
1.538,0.76,0.71,6.21,-0.08,0.06,-0.79,
1.538,0.76,0.71,6.21,-0.06,0.08,-0.77,
1.539,0.42,0.50,6.08,-0.06,0.08,-0.77,
1.539,0.42,0.50,6.08,-0.03,0.09,-0.75,
1.54,0.42,0.50,6.08,-0.02,0.09,-0.73,
1.54,0.42,0.50,6.08,0.01,0.10,-0.70,
1.54,0.42,0.50,6.08,0.01,0.10,-0.69,
1.541,0.42,0.50,6.08,0.03,0.10,-0.67,
1.541,0.15,0.32,5.88,0.03,0.10,-0.67,
1.542,0.15,0.32,5.88,0.04,0.09,-0.65,
1.542,0.15,0.32,5.88,0.06,0.08,-0.63,
1.543,0.15,0.32,5.88,0.08,0.06,-0.60,
1.543,0.15,0.32,5.88,0.09,0.05,-0.59,
1.544,0.15,0.32,5.88,0.10,0.03,-0.58,
1.544,0.26,0.24,5.78,0.10,0.03,-0.58,
1.545,0.26,0.24,5.78,0.12,-0.00,-0.56,
1.545,0.26,0.24,5.78,0.14,-0.03,-0.55,
1.546,0.26,0.24,5.78,0.17,-0.08,-0.54,
1.547,0.26,0.24,5.78,0.18,-0.10,-0.53,
1.547,0.26,0.24,5.78,0.20,-0.13,-0.53,
1.549,0.61,0.15,5.80,0.20,-0.13,-0.53,
1.549,0.61,0.15,5.80,0.23,-0.16,-0.52,
1.55,0.61,0.15,5.80,0.26,-0.18,-0.52,
1.55,0.61,0.15,5.80,0.31,-0.22,-0.52,
1.551,0.61,0.15,5.80,0.32,-0.23,-0.51,
1.551,0.61,0.15,5.80,0.36,-0.25,-0.51,
1.552,0.97,0.07,5.75,0.36,-0.25,-0.51,
1.552,0.97,0.07,5.75,0.40,-0.26,-0.52,
1.553,0.97,0.07,5.75,0.43,-0.28,-0.51,
1.553,0.97,0.07,5.75,0.47,-0.29,-0.52,
1.554,0.97,0.07,5.75,0.49,-0.30,-0.52,
1.557,0.97,0.07,5.75,0.52,-0.30,-0.52,
1.56,1.29,-0.11,5.11,0.52,-0.30,-0.52,
1.56,1.29,-0.11,5.11,0.54,-0.31,-0.52,
1.561,1.29,-0.11,5.11,0.56,-0.31,-0.52,
1.563,1.29,-0.11,5.11,0.59,-0.32,-0.52,
1.564,1.29,-0.11,5.11,0.60,-0.32,-0.52,
1.565,1.29,-0.11,5.11,0.61,-0.32,-0.52,
1.567,1.39,-0.24,3.99,0.61,-0.32,-0.52,
1.568,1.39,-0.24,3.99,0.62,-0.31,-0.51,
1.569,1.39,-0.24,3.99,0.62,-0.31,-0.52,
1.572,1.39,-0.24,3.99,0.62,-0.30,-0.51,
1.573,1.39,-0.24,3.99,0.62,-0.30,-0.51,
1.577,1.39,-0.24,3.99,0.62,-0.29,-0.51,
1.582,1.45,-0.38,2.66,0.62,-0.29,-0.51,
1.583,1.45,-0.38,2.66,0.61,-0.28,-0.51,
1.583,1.45,-0.38,2.66,0.60,-0.27,-0.51,
1.584,1.45,-0.38,2.66,0.59,-0.25,-0.51,
1.584,1.45,-0.38,2.66,0.58,-0.25,-0.51,
1.586,1.45,-0.38,2.66,0.57,-0.23,-0.51,
1.587,1.39,-0.49,1.44,0.57,-0.23,-0.51,
1.588,1.39,-0.49,1.44,0.56,-0.22,-0.51,
1.589,1.39,-0.49,1.44,0.54,-0.21,-0.51,
1.605,1.39,-0.49,1.44,0.52,-0.19,-0.51,
1.608,1.39,-0.49,1.44,0.51,-0.19,-0.51,
1.609,1.39,-0.49,1.44,0.50,-0.17,-0.51,
1.609,1.28,-0.62,0.46,0.50,-0.17,-0.51,
1.61,1.28,-0.62,0.46,0.48,-0.16,-0.51,
1.611,1.28,-0.62,0.46,0.47,-0.15,-0.51,
1.612,1.28,-0.62,0.46,0.45,-0.12,-0.51,
1.613,1.28,-0.62,0.46,0.44,-0.11,-0.51,
1.615,1.28,-0.62,0.46,0.42,-0.09,-0.51,
1.615,1.10,-0.74,-0.35,0.42,-0.09,-0.51,
1.616,1.10,-0.74,-0.35,0.41,-0.07,-0.50,
1.617,1.10,-0.74,-0.35,0.39,-0.04,-0.50,
1.618,1.10,-0.74,-0.35,0.37,0.01,-0.49,
1.619,1.10,-0.74,-0.35,0.36,0.02,-0.49,
1.62,1.10,-0.74,-0.35,0.34,0.06,-0.48,
1.621,0.93,-0.94,-1.12,0.34,0.06,-0.48,
1.621,0.93,-0.94,-1.12,0.32,0.09,-0.48,
1.622,0.93,-0.94,-1.12,0.30,0.13,-0.47,
1.623,0.93,-0.94,-1.12,0.27,0.18,-0.46,
1.623,0.93,-0.94,-1.12,0.26,0.19,-0.46,
1.642,0.93,-0.94,-1.12,0.25,0.22,-0.45,
1.645,0.73,-1.02,-1.80,0.25,0.22,-0.45,
1.646,0.73,-1.02,-1.80,0.23,0.25,-0.45,
1.648,0.73,-1.02,-1.80,0.22,0.27,-0.44,
1.649,0.73,-1.02,-1.80,0.21,0.30,-0.44,
1.65,0.73,-1.02,-1.80,0.21,0.32,-0.44,
1.65,0.73,-1.02,-1.80,0.20,0.34,-0.43,
1.651,0.57,-1.09,-2.48,0.20,0.34,-0.43,
1.651,0.57,-1.09,-2.48,0.19,0.35,-0.43,
1.651,0.57,-1.09,-2.48,0.19,0.37,-0.43,
1.652,0.57,-1.09,-2.48,0.18,0.39,-0.43,
1.652,0.57,-1.09,-2.48,0.17,0.39,-0.43,
1.652,0.57,-1.09,-2.48,0.17,0.40,-0.43,
1.684,0.37,-1.15,-3.18,0.17,0.40,-0.43,
1.686,0.37,-1.15,-3.18,0.16,0.41,-0.43,
1.688,0.37,-1.15,-3.18,0.15,0.42,-0.43,
1.689,0.37,-1.15,-3.18,0.14,0.42,-0.43,
1.689,0.37,-1.15,-3.18,0.14,0.42,-0.43,
1.69,0.37,-1.15,-3.18,0.13,0.42,-0.42,
1.691,0.25,-1.20,-3.79,0.13,0.42,-0.42,
1.691,0.25,-1.20,-3.79,0.13,0.41,-0.42,
1.692,0.25,-1.20,-3.79,0.13,0.40,-0.42,
1.693,0.25,-1.20,-3.79,0.13,0.39,-0.42,
1.693,0.25,-1.20,-3.79,0.13,0.39,-0.42,
1.694,0.25,-1.20,-3.79,0.13,0.38,-0.42,
1.695,0.12,-1.27,-4.18,0.13,0.38,-0.42,
1.696,0.12,-1.27,-4.18,0.13,0.37,-0.42,
1.696,0.12,-1.27,-4.18,0.14,0.37,-0.42,
1.697,0.12,-1.27,-4.18,0.14,0.36,-0.42,
1.698,0.12,-1.27,-4.18,0.14,0.36,-0.42,
1.698,0.12,-1.27,-4.18,0.14,0.36,-0.42,
1.699,0.00,-1.30,-4.52,0.14,0.36,-0.42,
1.699,0.00,-1.30,-4.52,0.15,0.36,-0.42,
1.7,0.00,-1.30,-4.52,0.15,0.35,-0.42,
1.7,0.00,-1.30,-4.52,0.15,0.35,-0.42,
1.701,0.00,-1.30,-4.52,0.15,0.35,-0.41,
1.701,0.00,-1.30,-4.52,0.15,0.34,-0.41,
1.702,-0.20,-1.32,-4.93,0.15,0.34,-0.41,
1.703,-0.20,-1.32,-4.93,0.15,0.34,-0.41,
1.704,-0.20,-1.32,-4.93,0.15,0.34,-0.41,
1.704,-0.20,-1.32,-4.93,0.15,0.34,-0.41,
1.705,-0.20,-1.32,-4.93,0.14,0.34,-0.41,
1.705,-0.20,-1.32,-4.93,0.14,0.34,-0.41,
1.706,-0.30,-1.28,-5.41,0.14,0.34,-0.41,
1.707,-0.30,-1.28,-5.41,0.12,0.34,-0.41,
1.708,-0.30,-1.28,-5.41,0.11,0.34,-0.41,
1.709,-0.30,-1.28,-5.41,0.09,0.34,-0.41,
1.71,-0.30,-1.28,-5.41,0.08,0.34,-0.41,
1.71,-0.30,-1.28,-5.41,0.07,0.34,-0.42,
1.711,-0.43,-1.29,-5.96,0.07,0.34,-0.42,
1.711,-0.43,-1.29,-5.96,0.05,0.34,-0.42,
1.712,-0.43,-1.29,-5.96,0.02,0.33,-0.42,
1.713,-0.43,-1.29,-5.96,-0.02,0.32,-0.42,
1.714,-0.43,-1.29,-5.96,-0.04,0.32,-0.42,
1.717,-0.43,-1.29,-5.96,-0.06,0.31,-0.42,
1.72,-0.64,-1.22,-6.41,-0.06,0.31,-0.42,
1.72,-0.64,-1.22,-6.41,-0.10,0.30,-0.42,
1.722,-0.64,-1.22,-6.41,-0.13,0.29,-0.42,
1.723,-0.64,-1.22,-6.41,-0.18,0.27,-0.41,
1.724,-0.64,-1.22,-6.41,-0.19,0.26,-0.41,
1.726,-0.64,-1.22,-6.41,-0.22,0.25,-0.41,
1.728,-0.73,-1.21,-6.48,-0.22,0.25,-0.41,
1.73,-0.73,-1.21,-6.48,-0.25,0.23,-0.40,
1.73,-0.73,-1.21,-6.48,-0.28,0.21,-0.40,
1.733,-0.73,-1.21,-6.48,-0.32,0.19,-0.39,
1.734,-0.73,-1.21,-6.48,-0.34,0.18,-0.39,
1.736,-0.73,-1.21,-6.48,-0.36,0.17,-0.39,
1.737,-0.77,-1.12,-6.05,-0.36,0.17,-0.39,
1.739,-0.77,-1.12,-6.05,-0.37,0.15,-0.38,
1.74,-0.77,-1.12,-6.05,-0.39,0.13,-0.38,
1.755,-0.77,-1.12,-6.05,-0.42,0.10,-0.37,
1.757,-0.77,-1.12,-6.05,-0.42,0.09,-0.37,
1.758,-0.77,-1.12,-6.05,-0.43,0.07,-0.37,
1.759,-0.64,-1.05,-5.29,-0.43,0.07,-0.37,
1.76,-0.64,-1.05,-5.29,-0.44,0.05,-0.36,
1.761,-0.64,-1.05,-5.29,-0.44,0.03,-0.36,
1.761,-0.64,-1.05,-5.29,-0.45,-0.01,-0.36,
1.762,-0.64,-1.05,-5.29,-0.45,-0.01,-0.36,
1.762,-0.64,-1.05,-5.29,-0.45,-0.03,-0.36,
1.763,-0.55,-0.88,-4.47,-0.45,-0.03,-0.36,
1.764,-0.55,-0.88,-4.47,-0.45,-0.06,-0.36,
1.765,-0.55,-0.88,-4.47,-0.44,-0.08,-0.36,
1.765,-0.55,-0.88,-4.47,-0.44,-0.12,-0.36,
1.766,-0.55,-0.88,-4.47,-0.44,-0.13,-0.36,
1.767,-0.55,-0.88,-4.47,-0.43,-0.15,-0.36,
1.768,-0.51,-0.76,-3.66,-0.43,-0.15,-0.36,
1.769,-0.51,-0.76,-3.66,-0.43,-0.17,-0.36,
1.799,-0.51,-0.76,-3.66,-0.42,-0.19,-0.36,
1.808,-0.51,-0.76,-3.66,-0.41,-0.20,-0.35,
1.809,-0.51,-0.76,-3.66,-0.40,-0.21,-0.35,
1.809,-0.51,-0.76,-3.66,-0.39,-0.22,-0.35,
1.809,-0.72,-0.65,-2.91,-0.39,-0.22,-0.35,
1.81,-0.72,-0.65,-2.91,-0.38,-0.23,-0.34,
1.81,-0.72,-0.65,-2.91,-0.37,-0.24,-0.32,
1.81,-0.72,-0.65,-2.91,-0.35,-0.25,-0.31,
1.811,-0.72,-0.65,-2.91,-0.35,-0.25,-0.30,
1.811,-0.72,-0.65,-2.91,-0.34,-0.25,-0.29,
1.811,-0.91,-0.60,-2.34,-0.34,-0.25,-0.29,
1.812,-0.91,-0.60,-2.34,-0.33,-0.26,-0.27,
1.812,-0.91,-0.60,-2.34,-0.32,-0.27,-0.26,
1.812,-0.91,-0.60,-2.34,-0.31,-0.28,-0.23,
1.813,-0.91,-0.60,-2.34,-0.30,-0.28,-0.23,
1.813,-0.91,-0.60,-2.34,-0.30,-0.28,-0.21,
1.813,-0.97,-0.43,-1.88,-0.30,-0.28,-0.21,
1.814,-0.97,-0.43,-1.88,-0.29,-0.29,-0.20,
1.814,-0.97,-0.43,-1.88,-0.29,-0.29,-0.19,
1.814,-0.97,-0.43,-1.88,-0.28,-0.29,-0.16,
1.815,-0.97,-0.43,-1.88,-0.28,-0.29,-0.16,
1.815,-0.97,-0.43,-1.88,-0.27,-0.29,-0.15,
1.815,-0.87,-0.24,-1.47,-0.27,-0.29,-0.15,
1.815,-0.87,-0.24,-1.47,-0.27,-0.30,-0.13,
1.816,-0.87,-0.24,-1.47,-0.26,-0.30,-0.12,
1.816,-0.87,-0.24,-1.47,-0.26,-0.30,-0.11,
1.847,-0.87,-0.24,-1.47,-0.26,-0.31,-0.11,
1.847,-0.87,-0.24,-1.47,-0.25,-0.31,-0.10,
1.848,-0.68,-0.01,-0.99,-0.25,-0.31,-0.10,
1.848,-0.68,-0.01,-0.99,-0.25,-0.31,-0.10,
1.849,-0.68,-0.01,-0.99,-0.24,-0.31,-0.09,
1.849,-0.68,-0.01,-0.99,-0.24,-0.31,-0.09,
1.85,-0.68,-0.01,-0.99,-0.24,-0.31,-0.09,
1.85,-0.68,-0.01,-0.99,-0.23,-0.31,-0.09,
1.85,-0.51,0.27,-0.48,-0.23,-0.31,-0.09,
1.851,-0.51,0.27,-0.48,-0.23,-0.30,-0.09,
1.851,-0.51,0.27,-0.48,-0.23,-0.30,-0.10,
1.852,-0.51,0.27,-0.48,-0.22,-0.29,-0.10,
1.852,-0.51,0.27,-0.48,-0.22,-0.28,-0.10,
1.853,-0.51,0.27,-0.48,-0.22,-0.27,-0.10,
1.853,-0.49,0.50,-0.05,-0.22,-0.27,-0.10,
1.853,-0.49,0.50,-0.05,-0.23,-0.26,-0.11,
1.854,-0.49,0.50,-0.05,-0.22,-0.25,-0.11,
1.854,-0.49,0.50,-0.05,-0.23,-0.23,-0.11,
1.855,-0.49,0.50,-0.05,-0.23,-0.23,-0.11,
1.855,-0.49,0.50,-0.05,-0.23,-0.21,-0.11,
1.856,-0.50,0.64,0.27,-0.23,-0.21,-0.11,
1.857,-0.50,0.64,0.27,-0.24,-0.20,-0.12,
1.858,-0.50,0.64,0.27,-0.24,-0.18,-0.11,
1.859,-0.50,0.64,0.27,-0.25,-0.15,-0.12,
1.859,-0.50,0.64,0.27,-0.25,-0.14,-0.11,
1.859,-0.50,0.64,0.27,-0.26,-0.12,-0.11,
1.86,-0.62,0.75,0.46,-0.26,-0.12,-0.11,
1.86,-0.62,0.75,0.46,-0.27,-0.10,-0.11,
1.861,-0.62,0.75,0.46,-0.28,-0.08,-0.11,
1.864,-0.62,0.75,0.46,-0.30,-0.05,-0.10,
1.868,-0.62,0.75,0.46,-0.30,-0.04,-0.10,
1.87,-0.62,0.75,0.46,-0.31,-0.01,-0.10,
1.871,-0.61,0.80,0.62,-0.31,-0.01,-0.10,
1.871,-0.61,0.80,0.62,-0.33,0.01,-0.10,
1.872,-0.61,0.80,0.62,-0.34,0.03,-0.10,
1.874,-0.61,0.80,0.62,-0.36,0.07,-0.10,
1.877,-0.61,0.80,0.62,-0.37,0.08,-0.10,
1.878,-0.61,0.80,0.62,-0.38,0.11,-0.10,
1.879,-0.53,0.86,0.88,-0.38,0.11,-0.10,
1.879,-0.53,0.86,0.88,-0.39,0.14,-0.09,
1.88,-0.53,0.86,0.88,-0.40,0.16,-0.10,
1.892,-0.53,0.86,0.88,-0.42,0.20,-0.10,
1.896,-0.53,0.86,0.88,-0.42,0.22,-0.10,
1.897,-0.53,0.86,0.88,-0.44,0.25,-0.10,
1.897,-0.41,0.85,1.17,-0.44,0.25,-0.10,
1.898,-0.41,0.85,1.17,-0.45,0.28,-0.10,
1.898,-0.41,0.85,1.17,-0.46,0.31,-0.11,
1.898,-0.41,0.85,1.17,-0.48,0.35,-0.11,
1.899,-0.41,0.85,1.17,-0.48,0.37,-0.11,
1.899,-0.41,0.85,1.17,-0.50,0.40,-0.12,
1.906,-0.19,0.80,1.40,-0.50,0.40,-0.12,
1.907,-0.19,0.80,1.40,-0.51,0.43,-0.12,
1.907,-0.19,0.80,1.40,-0.53,0.45,-0.13,
1.908,-0.19,0.80,1.40,-0.56,0.49,-0.14,
1.908,-0.19,0.80,1.40,-0.56,0.50,-0.14,
1.928,0.11,0.78,1.49,-0.56,0.50,-0.14,
1.933,0.11,0.78,1.49,-0.63,0.55,-0.18,
1.933,0.11,0.78,1.49,-0.63,0.55,-0.18,
1.933,0.11,0.78,1.49,-0.63,0.55,-0.18,
1.934,0.11,0.78,1.49,-0.67,0.57,-0.20,
1.934,0.11,0.78,1.49,-0.69,0.57,-0.20,
1.934,0.11,0.78,1.49,-0.72,0.58,-0.22,
1.935,0.34,0.76,1.54,-0.72,0.58,-0.22,
1.935,0.34,0.76,1.54,-0.75,0.59,-0.23,
1.935,0.34,0.76,1.54,-0.78,0.59,-0.25,
1.936,0.34,0.76,1.54,-0.82,0.59,-0.27,
1.936,0.34,0.76,1.54,-0.83,0.59,-0.28,
1.936,0.34,0.76,1.54,-0.86,0.60,-0.30,
1.936,0.45,0.72,1.77,-0.86,0.60,-0.30,
1.937,0.45,0.72,1.77,-0.89,0.60,-0.32,
1.937,0.45,0.72,1.77,-0.91,0.60,-0.33,
1.937,0.45,0.72,1.77,-0.95,0.60,-0.35,
1.938,0.45,0.72,1.77,-0.95,0.60,-0.36,
1.938,0.45,0.72,1.77,-0.98,0.60,-0.37,
1.938,0.22,0.62,2.22,-0.98,0.60,-0.37,
1.939,0.22,0.62,2.22,-1.00,0.59,-0.38,
1.941,0.22,0.62,2.22,-1.01,0.58,-0.39,
1.942,0.22,0.62,2.22,-1.03,0.56,-0.39,
1.943,0.22,0.62,2.22,-1.03,0.55,-0.40,
1.946,0.22,0.62,2.22,-1.04,0.55,-0.39,
1.947,-0.29,0.40,2.98,-1.04,0.55,-0.39,
1.948,-0.29,0.40,2.98,-1.03,0.54,-0.39,
1.949,-0.29,0.40,2.98,-1.03,0.54,-0.38,
1.952,-0.29,0.40,2.98,-1.00,0.54,-0.36,
1.953,-0.29,0.40,2.98,-0.99,0.54,-0.35,
1.955,-0.29,0.40,2.98,-0.97,0.54,-0.33,
1.959,-0.92,0.11,4.02,-0.97,0.54,-0.33,
1.962,-0.92,0.11,4.02,-0.94,0.54,-0.31,
1.963,-0.92,0.11,4.02,-0.91,0.54,-0.28,
1.963,-0.92,0.11,4.02,-0.85,0.53,-0.25,
1.963,-0.92,0.11,4.02,-0.83,0.53,-0.24,
1.965,-0.92,0.11,4.02,-0.78,0.53,-0.22,
1.967,-0.97,-0.10,5.10,-0.78,0.53,-0.22,
1.968,-0.97,-0.10,5.10,-0.73,0.53,-0.20,
1.969,-0.97,-0.10,5.10,-0.67,0.54,-0.19,
1.982,-0.97,-0.10,5.10,-0.58,0.55,-0.17,
1.983,-0.97,-0.10,5.10,-0.55,0.55,-0.16,
1.984,-0.97,-0.10,5.10,-0.48,0.56,-0.15,
1.984,-0.66,-0.05,5.97,-0.48,0.56,-0.15,
1.984,-0.66,-0.05,5.97,-0.42,0.57,-0.14,
2.023,-0.66,-0.05,5.97,-0.35,0.58,-0.14,
2.024,-0.66,-0.05,5.97,-0.26,0.59,-0.13,
2.026,-0.66,-0.05,5.97,-0.24,0.59,-0.13,
2.028,-0.66,-0.05,5.97,-0.18,0.60,-0.13,
2.029,-0.37,0.21,5.92,-0.18,0.60,-0.13,
2.033,-0.37,0.21,5.92,-0.14,0.60,-0.13,
2.034,-0.37,0.21,5.92,-0.09,0.59,-0.13,
2.034,-0.37,0.21,5.92,-0.04,0.58,-0.14,
2.034,-0.37,0.21,5.92,-0.02,0.58,-0.14,
2.035,-0.37,0.21,5.92,0.00,0.57,-0.14,
2.035,-0.36,0.52,5.10,0.00,0.57,-0.14,
2.036,-0.36,0.52,5.10,0.02,0.55,-0.14,
2.036,-0.36,0.52,5.10,0.04,0.54,-0.15,
2.037,-0.36,0.52,5.10,0.05,0.51,-0.15,
2.037,-0.36,0.52,5.10,0.06,0.50,-0.15,
2.038,-0.36,0.52,5.10,0.07,0.48,-0.15,
2.038,-0.68,0.76,4.19,0.07,0.48,-0.15,
2.039,-0.68,0.76,4.19,0.07,0.46,-0.15,
2.039,-0.68,0.76,4.19,0.07,0.44,-0.15,
2.04,-0.68,0.76,4.19,0.06,0.41,-0.15,
2.04,-0.68,0.76,4.19,0.06,0.40,-0.15,
2.04,-0.68,0.76,4.19,0.06,0.39,-0.14,
2.041,-1.06,0.94,3.68,0.06,0.39,-0.14,
2.041,-1.06,0.94,3.68,0.05,0.37,-0.14,
2.042,-1.06,0.94,3.68,0.05,0.36,-0.13,
2.042,-1.06,0.94,3.68,0.04,0.34,-0.12,
2.043,-1.06,0.94,3.68,0.04,0.34,-0.11,
2.043,-1.06,0.94,3.68,0.04,0.33,-0.11,
2.043,-1.30,0.96,3.58,0.04,0.33,-0.11,
2.044,-1.30,0.96,3.58,0.04,0.32,-0.10,
2.044,-1.30,0.96,3.58,0.04,0.31,-0.09,
2.045,-1.30,0.96,3.58,0.05,0.31,-0.07,
2.045,-1.30,0.96,3.58,0.05,0.30,-0.05,
2.046,-1.30,0.96,3.58,0.06,0.30,-0.05,
2.046,-1.55,0.87,3.76,0.06,0.30,-0.05,
2.046,-1.55,0.87,3.76,0.06,0.29,-0.03,
2.047,-1.55,0.87,3.76,0.07,0.29,-0.02,
2.047,-1.55,0.87,3.76,0.09,0.28,0.01,
2.048,-1.55,0.87,3.76,0.10,0.27,0.01,
2.048,-1.55,0.87,3.76,0.11,0.27,0.03,
2.049,-1.57,0.76,4.08,0.11,0.27,0.03,
2.049,-1.57,0.76,4.08,0.13,0.26,0.04,
2.049,-1.57,0.76,4.08,0.14,0.25,0.06,
2.055,-1.57,0.76,4.08,0.16,0.25,0.08,
2.056,-1.57,0.76,4.08,0.17,0.24,0.09,
2.068,-1.57,0.76,4.08,0.18,0.23,0.10,
2.069,-1.52,0.70,4.25,0.18,0.23,0.10,
2.069,-1.52,0.70,4.25,0.19,0.22,0.11,
2.07,-1.52,0.70,4.25,0.20,0.22,0.12,
2.07,-1.52,0.70,4.25,0.21,0.20,0.14,
2.071,-1.52,0.70,4.25,0.21,0.19,0.14,
2.08,-1.52,0.70,4.25,0.21,0.18,0.15,
2.081,-1.34,0.69,4.10,0.21,0.18,0.15,
2.081,-1.34,0.69,4.10,0.21,0.16,0.16,
2.081,-1.34,0.69,4.10,0.20,0.14,0.16,
2.082,-1.34,0.69,4.10,0.18,0.10,0.17,
2.082,-1.34,0.69,4.10,0.17,0.09,0.17,
2.083,-1.34,0.69,4.10,0.15,0.06,0.17,
2.083,-1.18,0.73,3.78,0.15,0.06,0.17,
2.083,-1.18,0.73,3.78,0.13,0.02,0.18,
2.084,-1.18,0.73,3.78,0.11,-0.01,0.18,
2.084,-1.18,0.73,3.78,0.07,-0.06,0.18,
2.084,-1.18,0.73,3.78,0.04,-0.09,0.18,
2.093,-1.18,0.73,3.78,0.03,-0.11,0.17,
2.094,-0.98,0.72,3.77,0.03,-0.11,0.17,
2.094,-0.98,0.72,3.77,0.01,-0.14,0.17,
2.095,-0.98,0.72,3.77,-0.02,-0.16,0.17,
2.096,-0.98,0.72,3.77,-0.06,-0.20,0.16,
2.096,-0.98,0.72,3.77,-0.06,-0.21,0.16,
2.096,-0.98,0.72,3.77,-0.09,-0.23,0.16,
2.131,-0.79,0.62,4.22,-0.09,-0.23,0.16,
2.134,-0.79,0.62,4.22,-0.10,-0.24,0.16,
2.134,-0.79,0.62,4.22,-0.12,-0.25,0.16,
2.136,-0.79,0.62,4.22,-0.13,-0.26,0.16,
2.138,-0.79,0.62,4.22,-0.14,-0.26,0.16,
2.14,-0.79,0.62,4.22,-0.14,-0.25,0.16,
2.141,-0.67,0.33,4.91,-0.14,-0.25,0.16,
2.145,-0.67,0.33,4.91,-0.14,-0.25,0.17,
2.145,-0.67,0.33,4.91,-0.14,-0.24,0.17,
2.145,-0.67,0.33,4.91,-0.12,-0.22,0.18,
2.146,-0.67,0.33,4.91,-0.12,-0.21,0.18,
2.146,-0.67,0.33,4.91,-0.10,-0.19,0.19,
2.146,-0.72,0.01,5.52,-0.10,-0.19,0.19,
2.147,-0.72,0.01,5.52,-0.09,-0.16,0.20,
2.147,-0.72,0.01,5.52,-0.07,-0.13,0.21,
2.147,-0.72,0.01,5.52,-0.03,-0.09,0.23,
2.148,-0.72,0.01,5.52,-0.02,-0.07,0.24,
2.148,-0.72,0.01,5.52,0.00,-0.03,0.25,
2.148,-0.80,-0.28,5.74,0.00,-0.03,0.25,
2.149,-0.80,-0.28,5.74,0.03,0.00,0.26,
2.149,-0.80,-0.28,5.74,0.06,0.04,0.28,
2.149,-0.80,-0.28,5.74,0.11,0.09,0.30,
2.15,-0.80,-0.28,5.74,0.14,0.13,0.32,
2.15,-0.80,-0.28,5.74,0.16,0.15,0.33,
2.15,-0.94,-0.54,5.43,0.16,0.15,0.33,
2.151,-0.94,-0.54,5.43,0.19,0.18,0.35,
2.151,-0.94,-0.54,5.43,0.22,0.21,0.37,
2.151,-0.94,-0.54,5.43,0.27,0.26,0.40,
2.152,-0.94,-0.54,5.43,0.28,0.28,0.41,
2.152,-0.94,-0.54,5.43,0.32,0.30,0.43,
2.185,-1.02,-0.63,4.58,0.32,0.30,0.43,
2.186,-1.02,-0.63,4.58,0.35,0.33,0.45,
2.187,-1.02,-0.63,4.58,0.37,0.35,0.47,
2.188,-1.02,-0.63,4.58,0.41,0.38,0.49,
2.188,-1.02,-0.63,4.58,0.43,0.39,0.50,
2.189,-1.02,-0.63,4.58,0.45,0.41,0.52,
2.189,-1.01,-0.70,3.34,0.45,0.41,0.52,
2.191,-1.01,-0.70,3.34,0.47,0.43,0.54,
2.192,-1.01,-0.70,3.34,0.49,0.44,0.55,
2.192,-1.01,-0.70,3.34,0.52,0.46,0.58,
2.193,-1.01,-0.70,3.34,0.53,0.46,0.59,
2.194,-1.01,-0.70,3.34,0.56,0.47,0.60,
2.195,-1.00,-0.64,2.05,0.56,0.47,0.60,
2.196,-1.00,-0.64,2.05,0.58,0.48,0.62,
2.196,-1.00,-0.64,2.05,0.61,0.48,0.64,
2.197,-1.00,-0.64,2.05,0.63,0.48,0.66,
2.197,-1.00,-0.64,2.05,0.64,0.48,0.67,
2.198,-1.00,-0.64,2.05,0.65,0.48,0.68,
2.198,-1.00,-0.66,0.85,0.65,0.48,0.68,
2.199,-1.00,-0.66,0.85,0.67,0.47,0.69,
2.203,-1.00,-0.66,0.85,0.69,0.46,0.71,
2.204,-1.00,-0.66,0.85,0.71,0.43,0.73,
2.205,-1.00,-0.66,0.85,0.72,0.42,0.74,
2.205,-1.00,-0.66,0.85,0.73,0.41,0.75,
2.206,-0.90,-0.64,-0.36,0.73,0.41,0.75,
2.206,-0.90,-0.64,-0.36,0.74,0.39,0.77,
2.208,-0.90,-0.64,-0.36,0.75,0.37,0.78,
2.208,-0.90,-0.64,-0.36,0.77,0.33,0.79,
2.208,-0.90,-0.64,-0.36,0.77,0.32,0.79,
2.209,-0.90,-0.64,-0.36,0.78,0.29,0.80,
2.209,-0.68,-0.62,-1.56,0.78,0.29,0.80,
2.21,-0.68,-0.62,-1.56,0.78,0.25,0.80,
2.21,-0.68,-0.62,-1.56,0.78,0.22,0.81,
2.21,-0.68,-0.62,-1.56,0.78,0.17,0.81,
2.211,-0.68,-0.62,-1.56,0.78,0.14,0.81,
2.211,-0.68,-0.62,-1.56,0.78,0.10,0.80,
2.211,-0.41,-0.52,-2.74,0.78,0.10,0.80,
2.212,-0.41,-0.52,-2.74,0.77,0.06,0.80,
2.212,-0.41,-0.52,-2.74,0.77,0.02,0.79,
2.213,-0.41,-0.52,-2.74,0.75,-0.05,0.78,
2.213,-0.41,-0.52,-2.74,0.74,-0.07,0.78,
2.22,-0.41,-0.52,-2.74,0.73,-0.13,0.77,
2.225,-0.30,-0.42,-3.83,0.73,-0.13,0.77,
2.228,-0.30,-0.42,-3.83,0.71,-0.18,0.76,
2.23,-0.30,-0.42,-3.83,0.69,-0.23,0.75,
2.231,-0.30,-0.42,-3.83,0.66,-0.32,0.74,
2.233,-0.30,-0.42,-3.83,0.65,-0.35,0.73,
2.235,-0.30,-0.42,-3.83,0.62,-0.42,0.72,
2.237,-0.25,-0.42,-4.82,0.62,-0.42,0.72,
2.239,-0.25,-0.42,-4.82,0.60,-0.48,0.71,
2.24,-0.25,-0.42,-4.82,0.57,-0.54,0.70,
2.244,-0.25,-0.42,-4.82,0.53,-0.63,0.69,
2.245,-0.25,-0.42,-4.82,0.52,-0.66,0.69,
2.245,-0.25,-0.42,-4.82,0.50,-0.72,0.69,
2.245,-0.54,-0.52,-5.40,0.50,-0.72,0.69,
2.246,-0.54,-0.52,-5.40,0.47,-0.78,0.69,
2.246,-0.54,-0.52,-5.40,0.45,-0.84,0.70,
2.247,-0.54,-0.52,-5.40,0.43,-0.93,0.71,
2.247,-0.54,-0.52,-5.40,0.43,-0.95,0.72,
2.247,-0.54,-0.52,-5.40,0.42,-1.00,0.74,
2.248,-0.89,-0.81,-5.13,0.42,-1.00,0.74,
2.248,-0.89,-0.81,-5.13,0.41,-1.04,0.75,
2.25,-0.89,-0.81,-5.13,0.41,-1.08,0.77,
2.253,-0.89,-0.81,-5.13,0.42,-1.12,0.80,
2.254,-0.89,-0.81,-5.13,0.42,-1.14,0.82,
2.272,-0.89,-0.81,-5.13,0.42,-1.15,0.84,
2.278,-1.16,-1.26,-4.55,0.42,-1.15,0.84,
2.279,-1.16,-1.26,-4.55,0.43,-1.17,0.87,
2.28,-1.16,-1.26,-4.55,0.43,-1.17,0.90,
2.28,-1.16,-1.26,-4.55,0.44,-1.18,0.94,
2.281,-1.16,-1.26,-4.55,0.44,-1.17,0.96,
2.282,-1.16,-1.26,-4.55,0.44,-1.17,0.99,
2.283,-1.22,-1.68,-4.17,0.44,-1.17,0.99,
2.284,-1.22,-1.68,-4.17,0.44,-1.15,1.02,
2.285,-1.22,-1.68,-4.17,0.45,-1.12,1.05,
2.286,-1.22,-1.68,-4.17,0.46,-1.08,1.09,
2.287,-1.22,-1.68,-4.17,0.47,-1.04,1.12,
2.288,-1.22,-1.68,-4.17,0.47,-1.02,1.13,
2.289,-0.79,-1.89,-3.68,0.47,-1.02,1.13,
2.29,-0.79,-1.89,-3.68,0.49,-0.98,1.16,
2.291,-0.79,-1.89,-3.68,0.50,-0.93,1.18,
2.291,-0.79,-1.89,-3.68,0.52,-0.86,1.21,
2.292,-0.79,-1.89,-3.68,0.53,-0.80,1.23,
2.293,-0.79,-1.89,-3.68,0.54,-0.78,1.24,
2.293,-0.22,-1.80,-3.26,0.54,-0.78,1.24,
2.294,-0.22,-1.80,-3.26,0.56,-0.72,1.25,
2.295,-0.22,-1.80,-3.26,0.58,-0.67,1.27,
2.296,-0.22,-1.80,-3.26,0.61,-0.59,1.28,
2.296,-0.22,-1.80,-3.26,0.63,-0.53,1.29,
2.297,-0.22,-1.80,-3.26,0.64,-0.50,1.29,
2.298,0.34,-1.76,-3.04,0.64,-0.50,1.29,
2.299,0.34,-1.76,-3.04,0.66,-0.45,1.29,
2.3,0.34,-1.76,-3.04,0.68,-0.40,1.29,
2.307,0.34,-1.76,-3.04,0.70,-0.33,1.28,
2.31,0.34,-1.76,-3.04,0.72,-0.29,1.28,
2.311,0.34,-1.76,-3.04,0.73,-0.27,1.27,
2.311,0.73,-1.57,-2.98,0.73,-0.27,1.27,
2.313,0.73,-1.57,-2.98,0.75,-0.23,1.26,
2.314,0.73,-1.57,-2.98,0.77,-0.19,1.25,
2.315,0.73,-1.57,-2.98,0.79,-0.15,1.24,
2.349,0.73,-1.57,-2.98,0.81,-0.12,1.22,
2.349,0.73,-1.57,-2.98,0.81,-0.11,1.21,
2.35,1.04,-1.42,-2.99,0.81,-0.11,1.21,
2.35,1.04,-1.42,-2.99,0.83,-0.09,1.20,
2.35,1.04,-1.42,-2.99,0.84,-0.07,1.18,
2.351,1.04,-1.42,-2.99,0.86,-0.03,1.14,
2.351,1.04,-1.42,-2.99,0.87,-0.02,1.12,
2.352,1.04,-1.42,-2.99,0.88,-0.01,1.11,
2.352,1.13,-1.25,-3.12,0.88,-0.01,1.11,
2.353,1.13,-1.25,-3.12,0.89,0.01,1.09,
2.353,1.13,-1.25,-3.12,0.90,0.02,1.07,
2.354,1.13,-1.25,-3.12,0.91,0.04,1.03,
2.354,1.13,-1.25,-3.12,0.91,0.05,1.01,
2.355,1.13,-1.25,-3.12,0.91,0.05,1.00,
2.355,1.17,-1.17,-3.42,0.91,0.05,1.00,
2.356,1.17,-1.17,-3.42,0.91,0.06,0.98,
2.356,1.17,-1.17,-3.42,0.91,0.06,0.95,
2.356,1.17,-1.17,-3.42,0.90,0.07,0.92,
2.357,1.17,-1.17,-3.42,0.89,0.07,0.89,
2.357,1.17,-1.17,-3.42,0.88,0.07,0.88,
2.358,1.08,-1.03,-3.79,0.88,0.07,0.88,
2.358,1.08,-1.03,-3.79,0.87,0.08,0.85,
2.359,1.08,-1.03,-3.79,0.85,0.08,0.83,
2.359,1.08,-1.03,-3.79,0.83,0.08,0.78,
2.359,1.08,-1.03,-3.79,0.81,0.08,0.75,
2.36,1.08,-1.03,-3.79,0.80,0.08,0.74,
2.36,1.04,-0.83,-4.10,0.80,0.08,0.74,
2.361,1.04,-0.83,-4.10,0.78,0.07,0.71,
2.361,1.04,-0.83,-4.10,0.75,0.07,0.68,
2.364,1.04,-0.83,-4.10,0.71,0.07,0.64,
2.367,1.04,-0.83,-4.10,0.68,0.07,0.61,
2.368,1.04,-0.83,-4.10,0.67,0.06,0.59,
2.368,0.80,-0.83,-4.27,0.67,0.06,0.59,
2.369,0.80,-0.83,-4.27,0.65,0.05,0.57,
2.37,0.80,-0.83,-4.27,0.62,0.06,0.54,
2.381,0.80,-0.83,-4.27,0.54,0.05,0.50,
2.387,0.80,-0.83,-4.27,0.52,0.04,0.48,
2.387,0.80,-0.83,-4.27,0.50,0.04,0.47,
2.388,0.57,-0.81,-4.27,0.50,0.04,0.47,
2.389,0.57,-0.81,-4.27,0.46,0.04,0.45,
2.39,0.57,-0.81,-4.27,0.42,0.04,0.43,
2.391,0.57,-0.81,-4.27,0.36,0.03,0.41,
2.391,0.57,-0.81,-4.27,0.31,0.03,0.39,
2.392,0.57,-0.81,-4.27,0.29,0.02,0.39,
2.393,0.21,-0.84,-4.10,0.29,0.02,0.39,
2.394,0.21,-0.84,-4.10,0.25,0.02,0.38,
2.394,0.21,-0.84,-4.10,0.21,0.02,0.37,
2.395,0.21,-0.84,-4.10,0.14,0.02,0.35,
2.398,0.21,-0.84,-4.10,0.09,0.02,0.34,
2.399,0.21,-0.84,-4.10,0.07,0.02,0.34,
2.4,0.05,-0.79,-3.78,0.07,0.02,0.34,
2.4,0.05,-0.79,-3.78,0.03,0.02,0.32,
2.401,0.05,-0.79,-3.78,-0.02,0.01,0.31,
2.413,0.05,-0.79,-3.78,-0.08,-0.01,0.29,
2.415,0.05,-0.79,-3.78,-0.12,-0.02,0.27,
2.416,0.05,-0.79,-3.78,-0.15,-0.02,0.26,
2.417,0.20,-0.66,-3.19,-0.15,-0.02,0.26,
2.417,0.20,-0.66,-3.19,-0.19,-0.03,0.23,
2.418,0.20,-0.66,-3.19,-0.22,-0.04,0.21,
2.419,0.20,-0.66,-3.19,-0.27,-0.04,0.17,
2.42,0.20,-0.66,-3.19,-0.31,-0.05,0.14,
2.42,0.20,-0.66,-3.19,-0.32,-0.05,0.12,
2.421,0.46,-0.26,-2.51,-0.32,-0.05,0.12,
2.422,0.46,-0.26,-2.51,-0.36,-0.06,0.09,
2.422,0.46,-0.26,-2.51,-0.39,-0.07,0.06,
2.423,0.46,-0.26,-2.51,-0.43,-0.09,0.00,
2.424,0.46,-0.26,-2.51,-0.47,-0.10,-0.04,
2.446,0.46,-0.26,-2.51,-0.48,-0.10,-0.06,
2.447,0.69,0.01,-1.89,-0.48,-0.10,-0.06,
2.448,0.69,0.01,-1.89,-0.52,-0.12,-0.10,
2.448,0.69,0.01,-1.89,-0.56,-0.14,-0.17,
2.448,0.69,0.01,-1.89,-0.60,-0.17,-0.21,
2.449,0.69,0.01,-1.89,-0.63,-0.19,-0.26,
2.449,0.69,0.01,-1.89,-0.66,-0.21,-0.30,
2.449,0.96,0.12,-1.21,-0.66,-0.21,-0.30,
2.45,0.96,0.12,-1.21,-0.70,-0.24,-0.34,
2.45,0.96,0.12,-1.21,-0.74,-0.27,-0.38,
2.45,0.96,0.12,-1.21,-0.76,-0.28,-0.42,
2.451,0.96,0.12,-1.21,-0.76,-0.27,-0.44,
2.451,0.96,0.12,-1.21,-0.75,-0.26,-0.45,
2.451,0.05,0.01,0.72,-0.75,-0.26,-0.45,
2.452,0.05,0.01,0.72,-0.74,-0.23,-0.46,
2.452,0.05,0.01,0.72,-0.74,-0.20,-0.47,
2.452,0.05,0.01,0.72,-0.75,-0.15,-0.48,
2.48,0.05,0.01,0.72,-0.76,-0.12,-0.50,
2.481,0.05,0.01,0.72,-0.77,-0.10,-0.52,
2.481,0.06,-0.12,1.35,-0.77,-0.10,-0.52,
2.482,0.06,-0.12,1.35,-0.79,-0.11,-0.54,
2.482,0.06,-0.12,1.35,-0.82,-0.12,-0.56,
2.482,0.06,-0.12,1.35,-0.84,-0.14,-0.59,
2.483,0.06,-0.12,1.35,-0.87,-0.15,-0.62,
2.483,0.06,-0.12,1.35,-0.90,-0.15,-0.64,
2.483,0.53,-0.58,2.13,-0.90,-0.15,-0.64,
2.484,0.53,-0.58,2.13,-0.93,-0.14,-0.67,
2.484,0.53,-0.58,2.13,-0.95,-0.13,-0.70,
2.484,0.53,-0.58,2.13,-0.97,-0.11,-0.73,
2.485,0.53,-0.58,2.13,-0.99,-0.09,-0.75,
2.485,0.53,-0.58,2.13,-1.01,-0.06,-0.77,
2.485,0.65,-0.96,3.10,-1.01,-0.06,-0.77,
2.486,0.65,-0.96,3.10,-1.03,-0.03,-0.79,
2.519,0.65,-0.96,3.10,-1.04,0.00,-0.81,
2.52,0.65,-0.96,3.10,-1.05,0.04,-0.82,
2.521,0.65,-0.96,3.10,-1.06,0.08,-0.83,
2.522,0.65,-0.96,3.10,-1.07,0.12,-0.83,
2.523,0.53,-1.26,4.30,-1.07,0.12,-0.83,
2.524,0.53,-1.26,4.30,-1.07,0.17,-0.83,
2.524,0.53,-1.26,4.30,-1.07,0.22,-0.83,
2.526,0.53,-1.26,4.30,-1.06,0.27,-0.83,
2.526,0.53,-1.26,4.30,-1.05,0.32,-0.82,
2.527,0.53,-1.26,4.30,-1.04,0.36,-0.81,
2.527,0.12,-1.28,5.47,-1.04,0.36,-0.81,
2.527,0.12,-1.28,5.47,-1.02,0.41,-0.79,
2.528,0.12,-1.28,5.47,-0.99,0.46,-0.77,
2.528,0.12,-1.28,5.47,-0.97,0.50,-0.75,
2.529,0.12,-1.28,5.47,-0.94,0.55,-0.73,
2.529,0.12,-1.28,5.47,-0.90,0.61,-0.72,
2.529,-0.07,-1.07,6.27,-0.90,0.61,-0.72,
2.53,-0.07,-1.07,6.27,-0.87,0.66,-0.71,
2.53,-0.07,-1.07,6.27,-0.83,0.70,-0.70,
2.531,-0.07,-1.07,6.27,-0.79,0.75,-0.69,
2.531,-0.07,-1.07,6.27,-0.75,0.79,-0.68,
2.532,-0.07,-1.07,6.27,-0.71,0.82,-0.68,
2.532,0.37,-0.96,6.56,-0.71,0.82,-0.68,
2.532,0.37,-0.96,6.56,-0.67,0.85,-0.68,
2.533,0.37,-0.96,6.56,-0.62,0.89,-0.68,
2.533,0.37,-0.96,6.56,-0.58,0.93,-0.68,
2.534,0.37,-0.96,6.56,-0.53,0.96,-0.69,
2.534,0.37,-0.96,6.56,-0.49,0.99,-0.69,
2.534,0.90,-0.56,6.36,-0.49,0.99,-0.69,
2.535,0.90,-0.56,6.36,-0.45,1.03,-0.71,
2.536,0.90,-0.56,6.36,-0.41,1.06,-0.72,
2.537,0.90,-0.56,6.36,-0.37,1.09,-0.74,
2.538,0.90,-0.56,6.36,-0.34,1.11,-0.76,
2.54,0.90,-0.56,6.36,-0.31,1.13,-0.77,
2.54,1.52,-0.14,5.51,-0.31,1.13,-0.77,
2.541,1.52,-0.14,5.51,-0.29,1.14,-0.79,
2.541,1.52,-0.14,5.51,-0.28,1.16,-0.82,
2.547,1.52,-0.14,5.51,-0.26,1.17,-0.84,
2.548,1.52,-0.14,5.51,-0.26,1.17,-0.87,
2.548,1.52,-0.14,5.51,-0.25,1.17,-0.89,
2.548,1.88,0.30,4.26,-0.25,1.17,-0.89,
2.549,1.88,0.30,4.26,-0.25,1.17,-0.92,
2.551,1.88,0.30,4.26,-0.25,1.17,-0.95,
2.565,1.88,0.30,4.26,-0.26,1.17,-0.98,
2.566,1.88,0.30,4.26,-0.26,1.16,-1.01,
2.567,1.88,0.30,4.26,-0.27,1.16,-1.04,
2.567,2.11,0.65,3.28,-0.27,1.16,-1.04,
2.567,2.11,0.65,3.28,-0.28,1.15,-1.07,
2.568,2.11,0.65,3.28,-0.29,1.15,-1.10,
2.568,2.11,0.65,3.28,-0.29,1.14,-1.13,
2.568,2.11,0.65,3.28,-0.30,1.13,-1.16,
2.569,2.11,0.65,3.28,-0.31,1.13,-1.18,
2.569,1.92,0.83,2.65,-0.31,1.13,-1.18,
2.569,1.92,0.83,2.65,-0.32,1.12,-1.21,
2.617,1.92,0.83,2.65,-0.33,1.12,-1.23,
2.618,1.92,0.83,2.65,-0.34,1.12,-1.25,
2.618,1.92,0.83,2.65,-0.35,1.12,-1.26,
2.619,1.92,0.83,2.65,-0.35,1.12,-1.28,
2.619,1.47,0.82,2.27,-0.35,1.12,-1.28,
2.619,1.47,0.82,2.27,-0.36,1.12,-1.29,
2.62,1.47,0.82,2.27,-0.37,1.12,-1.30,
2.62,1.47,0.82,2.27,-0.37,1.13,-1.31,
2.62,1.47,0.82,2.27,-0.38,1.13,-1.31,
2.621,1.47,0.82,2.27,-0.38,1.13,-1.31,
2.621,0.74,0.66,2.07,-0.38,1.13,-1.31,
2.621,0.74,0.66,2.07,-0.38,1.13,-1.31,
2.621,0.74,0.66,2.07,-0.39,1.13,-1.30,
2.622,0.74,0.66,2.07,-0.39,1.12,-1.29,
2.622,0.74,0.66,2.07,-0.39,1.11,-1.27,
2.622,0.74,0.66,2.07,-0.39,1.11,-1.26,
2.623,0.07,0.45,2.02,-0.39,1.11,-1.26,
2.623,0.07,0.45,2.02,-0.39,1.09,-1.24,
2.623,0.07,0.45,2.02,-0.39,1.07,-1.21,
2.624,0.07,0.45,2.02,-0.39,1.04,-1.17,
2.624,0.07,0.45,2.02,-0.39,1.03,-1.16,
2.624,0.07,0.45,2.02,-0.39,1.00,-1.13,
2.625,-0.45,0.21,2.05,-0.39,1.00,-1.13,
2.625,-0.45,0.21,2.05,-0.39,0.96,-1.10,
2.625,-0.45,0.21,2.05,-0.38,0.93,-1.07,
2.626,-0.45,0.21,2.05,-0.38,0.88,-1.02,
2.626,-0.45,0.21,2.05,-0.38,0.86,-1.00,
2.626,-0.45,0.21,2.05,-0.38,0.82,-0.96,
2.627,-0.74,-0.06,1.99,-0.38,0.82,-0.96,
2.627,-0.74,-0.06,1.99,-0.38,0.77,-0.93,
2.627,-0.74,-0.06,1.99,-0.38,0.73,-0.90,
2.627,-0.74,-0.06,1.99,-0.36,0.65,-0.85,
2.628,-0.74,-0.06,1.99,-0.36,0.62,-0.83,
2.628,-0.74,-0.06,1.99,-0.34,0.57,-0.80,
2.629,-0.69,-0.13,2.19,-0.34,0.57,-0.80,
2.63,-0.69,-0.13,2.19,-0.33,0.51,-0.77,
2.63,-0.69,-0.13,2.19,-0.31,0.46,-0.73,
2.634,-0.69,-0.13,2.19,-0.26,0.39,-0.69,
2.635,-0.69,-0.13,2.19,-0.25,0.36,-0.68,
2.635,-0.69,-0.13,2.19,-0.21,0.32,-0.65,
2.64,-0.31,-0.11,2.69,-0.21,0.32,-0.65,
2.641,-0.31,-0.11,2.69,-0.17,0.28,-0.63,
2.641,-0.31,-0.11,2.69,-0.13,0.24,-0.61,
2.644,-0.31,-0.11,2.69,-0.06,0.18,-0.57,
2.644,-0.31,-0.11,2.69,-0.04,0.17,-0.56,
2.645,-0.31,-0.11,2.69,0.00,0.13,-0.55,
2.671,0.12,-0.20,2.76,0.00,0.13,-0.55,
2.671,0.12,-0.20,2.76,0.05,0.10,-0.53,
2.671,0.12,-0.20,2.76,0.09,0.07,-0.51,
2.672,0.12,-0.20,2.76,0.15,0.02,-0.49,
2.672,0.12,-0.20,2.76,0.17,0.01,-0.48,
2.672,0.12,-0.20,2.76,0.21,-0.02,-0.47,
2.673,0.39,-0.34,2.36,0.21,-0.02,-0.47,
2.673,0.39,-0.34,2.36,0.25,-0.04,-0.45,
2.673,0.39,-0.34,2.36,0.28,-0.06,-0.44,
2.674,0.39,-0.34,2.36,0.33,-0.09,-0.41,
2.674,0.39,-0.34,2.36,0.34,-0.09,-0.41,
2.674,0.39,-0.34,2.36,0.37,-0.11,-0.39,
2.675,0.48,-0.37,1.46,0.37,-0.11,-0.39,
2.675,0.48,-0.37,1.46,0.38,-0.11,-0.38,
2.675,0.48,-0.37,1.46,0.40,-0.12,-0.36,
2.676,0.48,-0.37,1.46,0.41,-0.13,-0.34,
2.676,0.48,-0.37,1.46,0.42,-0.13,-0.33,
2.676,0.48,-0.37,1.46,0.42,-0.13,-0.32,
2.684,0.43,-0.42,0.25,0.42,-0.13,-0.32,
2.685,0.43,-0.42,0.25,0.42,-0.13,-0.30,
2.685,0.43,-0.42,0.25,0.41,-0.13,-0.28,
2.686,0.43,-0.42,0.25,0.40,-0.13,-0.26,
2.686,0.43,-0.42,0.25,0.39,-0.13,-0.25,
2.687,0.43,-0.42,0.25,0.38,-0.13,-0.23,
2.687,0.31,-0.45,-0.86,0.38,-0.13,-0.23,
2.688,0.31,-0.45,-0.86,0.36,-0.12,-0.22,
2.691,0.31,-0.45,-0.86,0.34,-0.11,-0.20,
2.693,0.31,-0.45,-0.86,0.31,-0.11,-0.17,
2.694,0.31,-0.45,-0.86,0.30,-0.11,-0.16,
2.696,0.31,-0.45,-0.86,0.27,-0.11,-0.14,
2.698,0.18,-0.48,-1.75,0.27,-0.11,-0.14,
2.698,0.18,-0.48,-1.75,0.24,-0.10,-0.12,
2.7,0.18,-0.48,-1.75,0.21,-0.10,-0.10,
2.713,0.18,-0.48,-1.75,0.16,-0.10,-0.07,
2.714,0.18,-0.48,-1.75,0.14,-0.10,-0.06,
2.715,0.18,-0.48,-1.75,0.11,-0.10,-0.04,
2.715,0.17,-0.53,-2.32,0.11,-0.10,-0.04,
2.716,0.17,-0.53,-2.32,0.08,-0.11,-0.03,
2.717,0.17,-0.53,-2.32,0.05,-0.11,-0.01,
2.718,0.17,-0.53,-2.32,-0.01,-0.12,0.02,
2.718,0.17,-0.53,-2.32,-0.02,-0.12,0.03,
2.719,0.17,-0.53,-2.32,-0.05,-0.13,0.04,
2.719,0.20,-0.59,-2.44,-0.05,-0.13,0.04,
2.721,0.20,-0.59,-2.44,-0.08,-0.14,0.06,
2.721,0.20,-0.59,-2.44,-0.10,-0.14,0.07,
2.725,0.20,-0.59,-2.44,-0.13,-0.15,0.09,
2.725,0.20,-0.59,-2.44,-0.14,-0.15,0.10,
2.73,0.20,-0.59,-2.44,-0.15,-0.16,0.11,
2.73,0.14,-0.59,-2.07,-0.15,-0.16,0.11,
2.731,0.14,-0.59,-2.07,-0.16,-0.16,0.13,
2.731,0.14,-0.59,-2.07,-0.16,-0.16,0.15,
2.733,0.14,-0.59,-2.07,-0.16,-0.17,0.17,
2.733,0.14,-0.59,-2.07,-0.16,-0.18,0.18,
2.739,0.14,-0.59,-2.07,-0.15,-0.19,0.19,
2.74,0.04,-0.56,-1.52,-0.15,-0.19,0.19,
2.74,0.04,-0.56,-1.52,-0.14,-0.19,0.21,
2.741,0.04,-0.56,-1.52,-0.13,-0.20,0.22,
2.743,0.04,-0.56,-1.52,-0.10,-0.20,0.24,
2.743,0.04,-0.56,-1.52,-0.09,-0.21,0.25,
2.745,0.04,-0.56,-1.52,-0.08,-0.21,0.26,
2.747,0.02,-0.52,-1.16,-0.08,-0.21,0.26,
2.748,0.02,-0.52,-1.16,-0.05,-0.22,0.28,
2.751,0.02,-0.52,-1.16,-0.03,-0.22,0.29,
2.752,0.02,-0.52,-1.16,0.00,-0.22,0.31,
2.753,0.02,-0.52,-1.16,0.02,-0.22,0.31,
2.756,0.02,-0.52,-1.16,0.04,-0.23,0.33,
2.758,-0.01,-0.48,-1.13,0.04,-0.23,0.33,
2.759,-0.01,-0.48,-1.13,0.06,-0.23,0.34,
2.76,-0.01,-0.48,-1.13,0.08,-0.23,0.35,
2.763,-0.01,-0.48,-1.13,0.11,-0.22,0.37,
2.763,-0.01,-0.48,-1.13,0.12,-0.22,0.37,
2.765,-0.01,-0.48,-1.13,0.14,-0.23,0.38,
2.767,0.05,-0.40,-1.41,0.14,-0.23,0.38,
2.768,0.05,-0.40,-1.41,0.16,-0.22,0.39,
2.771,0.05,-0.40,-1.41,0.18,-0.22,0.39,
2.774,0.05,-0.40,-1.41,0.20,-0.22,0.40,
2.775,0.05,-0.40,-1.41,0.21,-0.22,0.40,
2.775,0.05,-0.40,-1.41,0.22,-0.21,0.41,
2.777,0.13,-0.32,-1.89,0.22,-0.21,0.41,
2.778,0.13,-0.32,-1.89,0.23,-0.21,0.41,
2.78,0.13,-0.32,-1.89,0.24,-0.20,0.41,
2.782,0.13,-0.32,-1.89,0.26,-0.19,0.42,
2.784,0.13,-0.32,-1.89,0.26,-0.19,0.42,
2.797,0.13,-0.32,-1.89,0.27,-0.18,0.42,
2.799,0.22,-0.18,-2.46,0.27,-0.18,0.42,
2.799,0.22,-0.18,-2.46,0.27,-0.17,0.42,
2.799,0.22,-0.18,-2.46,0.27,-0.17,0.42,
2.8,0.22,-0.18,-2.46,0.27,-0.15,0.41,
2.8,0.22,-0.18,-2.46,0.27,-0.15,0.41,
2.8,0.22,-0.18,-2.46,0.27,-0.14,0.41,
2.801,0.41,-0.02,-3.11,0.27,-0.14,0.41,
2.801,0.41,-0.02,-3.11,0.26,-0.13,0.40,
2.801,0.41,-0.02,-3.11,0.25,-0.13,0.40,
2.825,0.41,-0.02,-3.11,0.24,-0.12,0.39,
2.827,0.41,-0.02,-3.11,0.23,-0.12,0.39,
2.827,0.41,-0.02,-3.11,0.22,-0.12,0.38,
2.828,0.55,0.10,-3.70,0.22,-0.12,0.38,
2.828,0.55,0.10,-3.70,0.20,-0.12,0.37,
2.829,0.55,0.10,-3.70,0.19,-0.12,0.36,
2.829,0.55,0.10,-3.70,0.16,-0.12,0.35,
2.873,0.55,0.10,-3.70,0.15,-0.12,0.34,
2.875,0.55,0.10,-3.70,0.13,-0.12,0.34,
2.876,0.67,0.29,-4.06,0.13,-0.12,0.34,
2.877,0.67,0.29,-4.06,0.11,-0.12,0.32,
2.878,0.67,0.29,-4.06,0.09,-0.13,0.31,
2.879,0.67,0.29,-4.06,0.06,-0.13,0.30,
2.88,0.67,0.29,-4.06,0.05,-0.13,0.29,
2.881,0.67,0.29,-4.06,0.03,-0.14,0.28,
2.882,0.74,0.38,-4.19,0.03,-0.14,0.28,
2.882,0.74,0.38,-4.19,0.01,-0.14,0.26,
2.883,0.74,0.38,-4.19,-0.01,-0.15,0.25,
2.884,0.74,0.38,-4.19,-0.04,-0.16,0.23,
2.885,0.74,0.38,-4.19,-0.06,-0.16,0.23,
2.886,0.74,0.38,-4.19,-0.08,-0.17,0.21,
2.887,0.75,0.52,-4.12,-0.08,-0.17,0.21,
2.888,0.75,0.52,-4.12,-0.10,-0.17,0.20,
2.889,0.75,0.52,-4.12,-0.12,-0.18,0.19,
2.89,0.75,0.52,-4.12,-0.15,-0.19,0.17,
2.892,0.75,0.52,-4.12,-0.15,-0.19,0.16,
2.893,0.75,0.52,-4.12,-0.17,-0.19,0.15,
2.893,0.72,0.52,-3.74,-0.17,-0.19,0.15,
2.894,0.72,0.52,-3.74,-0.19,-0.20,0.14,
2.895,0.72,0.52,-3.74,-0.20,-0.20,0.13,
2.896,0.72,0.52,-3.74,-0.22,-0.20,0.12,
2.896,0.72,0.52,-3.74,-0.23,-0.20,0.11,
2.897,0.72,0.52,-3.74,-0.24,-0.20,0.10,
2.898,0.69,0.59,-3.23,-0.24,-0.20,0.10,
2.899,0.69,0.59,-3.23,-0.24,-0.20,0.09,
2.9,0.69,0.59,-3.23,-0.26,-0.20,0.08,
2.901,0.69,0.59,-3.23,-0.27,-0.20,0.07,
2.901,0.69,0.59,-3.23,-0.27,-0.20,0.07,
2.902,0.69,0.59,-3.23,-0.28,-0.20,0.06,
2.903,0.59,0.57,-2.74,-0.28,-0.20,0.06,
2.903,0.59,0.57,-2.74,-0.29,-0.20,0.06,
2.904,0.59,0.57,-2.74,-0.30,-0.19,0.05,
2.904,0.59,0.57,-2.74,-0.31,-0.19,0.04,
2.905,0.59,0.57,-2.74,-0.32,-0.19,0.04,
2.906,0.59,0.57,-2.74,-0.32,-0.19,0.04,
2.906,0.47,0.65,-2.20,-0.32,-0.19,0.04,
2.907,0.47,0.65,-2.20,-0.33,-0.19,0.03,
2.907,0.47,0.65,-2.20,-0.33,-0.18,0.03,
2.908,0.47,0.65,-2.20,-0.33,-0.17,0.02,
2.908,0.47,0.65,-2.20,-0.33,-0.17,0.02,
2.908,0.47,0.65,-2.20,-0.33,-0.16,0.02,
2.909,0.33,0.70,-1.38,-0.33,-0.16,0.02,
2.909,0.33,0.70,-1.38,-0.32,-0.15,0.02,
2.909,0.33,0.70,-1.38,-0.32,-0.15,0.02,
2.91,0.33,0.70,-1.38,-0.30,-0.14,0.02,
2.911,0.33,0.70,-1.38,-0.29,-0.13,0.02,
2.911,0.33,0.70,-1.38,-0.28,-0.13,0.02,
2.912,0.20,0.73,-0.50,-0.28,-0.13,0.02,
2.912,0.20,0.73,-0.50,-0.26,-0.12,0.02,
2.913,0.20,0.73,-0.50,-0.24,-0.11,0.02,
2.914,0.20,0.73,-0.50,-0.20,-0.10,0.02,
2.914,0.20,0.73,-0.50,-0.18,-0.10,0.02,
2.915,0.04,0.79,0.41,-0.18,-0.10,0.02,
2.916,0.04,0.79,0.41,-0.09,-0.08,0.04,
2.916,0.04,0.79,0.41,-0.09,-0.08,0.04,
2.916,0.04,0.79,0.41,-0.09,-0.08,0.04,
2.917,0.04,0.79,0.41,-0.05,-0.07,0.05,
2.918,0.04,0.79,0.41,-0.03,-0.06,0.05,
2.918,0.04,0.79,0.41,-0.01,-0.06,0.06,
2.919,-0.10,0.87,0.61,-0.01,-0.06,0.06,
2.92,-0.10,0.87,0.61,0.02,-0.06,0.06,
2.921,-0.10,0.87,0.61,0.05,-0.06,0.07,
2.924,-0.10,0.87,0.61,0.08,-0.06,0.07,
2.925,-0.10,0.87,0.61,0.08,-0.06,0.07,
2.929,-0.10,0.87,0.61,0.10,-0.07,0.08,
2.929,-0.14,1.04,0.45,0.10,-0.07,0.08,
2.929,-0.14,1.04,0.45,0.11,-0.07,0.08,
2.93,-0.14,1.04,0.45,0.12,-0.07,0.08,
2.932,-0.14,1.04,0.45,0.13,-0.08,0.08,
2.936,-0.14,1.04,0.45,0.13,-0.08,0.08,
2.937,-0.14,1.04,0.45,0.12,-0.08,0.08,
2.937,-0.11,1.23,0.01,0.12,-0.08,0.08,
2.938,-0.11,1.23,0.01,0.12,-0.09,0.08,
2.94,-0.11,1.23,0.01,0.10,-0.09,0.08,
2.943,-0.11,1.23,0.01,0.09,-0.09,0.07,
2.943,-0.11,1.23,0.01,0.08,-0.10,0.07,
2.945,-0.11,1.23,0.01,0.06,-0.10,0.07,
2.947,-0.08,1.35,-0.26,0.06,-0.10,0.07,
2.948,-0.08,1.35,-0.26,0.04,-0.11,0.06,
2.949,-0.08,1.35,-0.26,0.01,-0.12,0.06,
2.96,-0.08,1.35,-0.26,-0.02,-0.13,0.05,
2.96,-0.08,1.35,-0.26,-0.03,-0.14,0.05,
2.961,-0.08,1.35,-0.26,-0.06,-0.15,0.04,
2.961,-0.03,1.55,-0.18,-0.06,-0.15,0.04,
2.961,-0.03,1.55,-0.18,-0.09,-0.16,0.03,
2.962,-0.03,1.55,-0.18,-0.11,-0.17,0.02,
2.962,-0.03,1.55,-0.18,-0.16,-0.19,0.01,
2.963,-0.03,1.55,-0.18,-0.17,-0.19,0.00,
2.989,-0.03,1.55,-0.18,-0.19,-0.20,-0.01,
2.992,-0.05,1.64,0.38,-0.19,-0.20,-0.01,
2.993,-0.05,1.64,0.38,-0.22,-0.21,-0.02,
2.993,-0.05,1.64,0.38,-0.25,-0.22,-0.03,
2.994,-0.05,1.64,0.38,-0.29,-0.24,-0.05,
2.995,-0.05,1.64,0.38,-0.30,-0.24,-0.05,
2.996,-0.05,1.64,0.38,-0.32,-0.25,-0.07,
2.996,0.03,1.62,1.11,-0.32,-0.25,-0.07,
2.996,0.03,1.62,1.11,-0.35,-0.26,-0.08,
3.023,0.03,1.62,1.11,-0.37,-0.27,-0.09,
3.024,0.03,1.62,1.11,-0.39,-0.27,-0.11,
3.025,0.03,1.62,1.11,-0.40,-0.28,-0.12,
3.025,0.03,1.62,1.11,-0.42,-0.27,-0.13,
3.026,0.13,1.60,2.09,-0.42,-0.27,-0.13,
3.026,0.13,1.60,2.09,-0.43,-0.27,-0.14,
3.027,0.13,1.60,2.09,-0.44,-0.27,-0.16,
3.027,0.13,1.60,2.09,-0.46,-0.27,-0.18,
3.028,0.13,1.60,2.09,-0.46,-0.27,-0.18,
3.028,0.13,1.60,2.09,-0.47,-0.27,-0.19,
3.028,0.17,1.60,3.03,-0.47,-0.27,-0.19,
3.029,0.17,1.60,3.03,-0.48,-0.26,-0.20,
3.029,0.17,1.60,3.03,-0.48,-0.25,-0.22,
3.03,0.17,1.60,3.03,-0.48,-0.24,-0.23,
3.03,0.17,1.60,3.03,-0.47,-0.24,-0.23,
3.031,0.17,1.60,3.03,-0.47,-0.23,-0.24,
3.031,0.16,1.23,4.18,-0.47,-0.23,-0.24,
3.031,0.16,1.23,4.18,-0.46,-0.23,-0.25,
3.032,0.16,1.23,4.18,-0.44,-0.22,-0.25,
3.032,0.16,1.23,4.18,-0.41,-0.20,-0.26,
3.033,0.16,1.23,4.18,-0.40,-0.20,-0.26,
3.033,0.16,1.23,4.18,-0.37,-0.18,-0.26,
3.034,0.10,0.79,5.47,-0.37,-0.18,-0.26,
3.034,0.10,0.79,5.47,-0.34,-0.15,-0.26,
3.035,0.10,0.79,5.47,-0.30,-0.12,-0.26,
3.035,0.10,0.79,5.47,-0.24,-0.07,-0.25,
3.035,0.10,0.79,5.47,-0.22,-0.05,-0.25,
3.036,0.10,0.79,5.47,-0.18,-0.02,-0.24,
3.036,-0.10,0.70,6.34,-0.18,-0.02,-0.24,
3.037,-0.10,0.70,6.34,-0.14,0.02,-0.23,
3.037,-0.10,0.70,6.34,-0.09,0.06,-0.22,
3.038,-0.10,0.70,6.34,-0.03,0.12,-0.21,
3.038,-0.10,0.70,6.34,-0.01,0.14,-0.20,
3.039,-0.10,0.70,6.34,0.03,0.18,-0.19,
3.039,-0.21,0.66,6.49,0.03,0.18,-0.19,
3.04,-0.21,0.66,6.49,0.06,0.21,-0.18,
3.04,-0.21,0.66,6.49,0.10,0.25,-0.18,
3.046,-0.21,0.66,6.49,0.14,0.29,-0.17,
3.047,-0.21,0.66,6.49,0.15,0.31,-0.17,
3.048,-0.21,0.66,6.49,0.17,0.33,-0.17,
3.048,-0.09,0.59,5.87,0.17,0.33,-0.17,
3.049,-0.09,0.59,5.87,0.19,0.35,-0.18,
3.049,-0.09,0.59,5.87,0.20,0.37,-0.18,
3.053,-0.09,0.59,5.87,0.21,0.39,-0.19,
3.053,-0.09,0.59,5.87,0.22,0.40,-0.19,
3.056,-0.09,0.59,5.87,0.22,0.41,-0.20,
3.059,-0.05,0.67,5.11,0.22,0.41,-0.20,
3.06,-0.05,0.67,5.11,0.22,0.42,-0.21,
3.06,-0.05,0.67,5.11,0.22,0.43,-0.21,
3.066,-0.05,0.67,5.11,0.22,0.43,-0.22,
3.066,-0.05,0.67,5.11,0.22,0.43,-0.23,
3.067,-0.05,0.67,5.11,0.22,0.43,-0.23,
3.067,-0.26,0.78,4.59,0.22,0.43,-0.23,
3.067,-0.26,0.78,4.59,0.21,0.42,-0.24,
3.069,-0.26,0.78,4.59,0.21,0.42,-0.24,
3.072,-0.26,0.78,4.59,0.20,0.40,-0.25,
3.077,-0.26,0.78,4.59,0.20,0.40,-0.25,
3.077,-0.26,0.78,4.59,0.20,0.39,-0.25,
3.078,-0.53,0.80,4.34,0.20,0.39,-0.25,
3.079,-0.53,0.80,4.34,0.19,0.38,-0.25,
3.08,-0.53,0.80,4.34,0.19,0.37,-0.25,
3.091,-0.53,0.80,4.34,0.19,0.36,-0.25,
3.092,-0.53,0.80,4.34,0.19,0.36,-0.25,
3.093,-0.53,0.80,4.34,0.19,0.35,-0.25,
3.093,-0.86,0.70,4.35,0.19,0.35,-0.25,
3.094,-0.86,0.70,4.35,0.20,0.34,-0.24,
3.094,-0.86,0.70,4.35,0.20,0.34,-0.24,
3.095,-0.86,0.70,4.35,0.22,0.34,-0.23,
3.095,-0.86,0.70,4.35,0.23,0.34,-0.22,
3.096,-0.86,0.70,4.35,0.24,0.35,-0.22,
3.097,-1.16,0.49,4.59,0.24,0.35,-0.22,
3.098,-1.16,0.49,4.59,0.25,0.35,-0.21,
3.127,-1.16,0.49,4.59,0.27,0.36,-0.20,
3.13,-1.16,0.49,4.59,0.30,0.38,-0.18,
3.131,-1.16,0.49,4.59,0.31,0.39,-0.17,
3.131,-1.16,0.49,4.59,0.33,0.40,-0.16,
3.132,-1.34,0.33,4.71,0.33,0.40,-0.16,
3.132,-1.34,0.33,4.71,0.36,0.41,-0.15,
3.133,-1.34,0.33,4.71,0.38,0.43,-0.13,
3.133,-1.34,0.33,4.71,0.41,0.45,-0.11,
3.134,-1.34,0.33,4.71,0.42,0.45,-0.10,
3.136,-1.34,0.33,4.71,0.44,0.46,-0.09,
3.137,-1.46,0.27,4.55,0.44,0.46,-0.09,
3.138,-1.46,0.27,4.55,0.46,0.47,-0.07,
3.139,-1.46,0.27,4.55,0.47,0.48,-0.06,
3.139,-1.46,0.27,4.55,0.49,0.50,-0.04,
3.139,-1.46,0.27,4.55,0.50,0.50,-0.03,
3.14,-1.46,0.27,4.55,0.50,0.50,-0.02,
3.14,-1.47,0.21,3.91,0.50,0.50,-0.02,
3.141,-1.47,0.21,3.91,0.51,0.50,-0.01,
3.141,-1.47,0.21,3.91,0.51,0.49,-0.00,
3.141,-1.47,0.21,3.91,0.51,0.47,0.01,
3.142,-1.47,0.21,3.91,0.51,0.47,0.02,
3.142,-1.47,0.21,3.91,0.50,0.45,0.03,
3.142,-1.50,0.20,3.11,0.50,0.45,0.03,
3.143,-1.50,0.20,3.11,0.50,0.43,0.03,
3.143,-1.50,0.20,3.11,0.48,0.41,0.04,
3.143,-1.50,0.20,3.11,0.47,0.37,0.06,
3.144,-1.50,0.20,3.11,0.46,0.36,0.06,
3.147,-1.50,0.20,3.11,0.44,0.33,0.07,
3.183,-1.58,0.29,2.35,0.44,0.33,0.07,
3.183,-1.58,0.29,2.35,0.42,0.30,0.08,
3.184,-1.58,0.29,2.35,0.40,0.27,0.09,
3.184,-1.58,0.29,2.35,0.36,0.21,0.10,
3.185,-1.58,0.29,2.35,0.34,0.19,0.11,
3.185,-1.58,0.29,2.35,0.31,0.15,0.11,
3.186,-1.57,0.31,1.66,0.31,0.15,0.11,
3.186,-1.57,0.31,1.66,0.27,0.11,0.12,
3.187,-1.57,0.31,1.66,0.24,0.07,0.13,
3.187,-1.57,0.31,1.66,0.18,0.01,0.13,
3.187,-1.57,0.31,1.66,0.16,-0.01,0.13,
3.188,-1.57,0.31,1.66,0.11,-0.06,0.13,
3.188,-1.29,0.28,1.33,0.11,-0.06,0.13,
3.189,-1.29,0.28,1.33,0.07,-0.10,0.13,
3.19,-1.29,0.28,1.33,0.03,-0.14,0.13,
3.19,-1.29,0.28,1.33,-0.02,-0.20,0.13,
3.191,-1.29,0.28,1.33,-0.04,-0.21,0.13,
3.191,-1.29,0.28,1.33,-0.08,-0.25,0.12,
3.194,-1.02,0.24,1.52,-0.08,-0.25,0.12,
3.195,-1.02,0.24,1.52,-0.11,-0.28,0.12,
3.195,-1.02,0.24,1.52,-0.14,-0.31,0.12,
3.196,-1.02,0.24,1.52,-0.17,-0.34,0.11,
3.196,-1.02,0.24,1.52,-0.18,-0.35,0.11,
3.199,-1.02,0.24,1.52,-0.20,-0.37,0.10,
3.2,-0.79,0.16,2.12,-0.20,-0.37,0.10,
3.2,-0.79,0.16,2.12,-0.21,-0.39,0.10,
3.201,-0.79,0.16,2.12,-0.21,-0.39,0.09,
3.201,-0.79,0.16,2.12,-0.21,-0.41,0.08,
3.202,-0.79,0.16,2.12,-0.21,-0.40,0.08,
3.202,-0.79,0.16,2.12,-0.21,-0.40,0.08,
3.202,-0.64,-0.10,2.71,-0.21,-0.40,0.08,
3.203,-0.64,-0.10,2.71,-0.20,-0.40,0.07,
3.203,-0.64,-0.10,2.71,-0.18,-0.39,0.07,
3.206,-0.64,-0.10,2.71,-0.16,-0.38,0.07,
3.208,-0.64,-0.10,2.71,-0.15,-0.38,0.07,
3.208,-0.64,-0.10,2.71,-0.12,-0.36,0.07,
3.209,-0.60,-0.38,3.00,-0.12,-0.36,0.07,
3.209,-0.60,-0.38,3.00,-0.10,-0.35,0.07,
3.211,-0.60,-0.38,3.00,-0.07,-0.34,0.08,
3.212,-0.60,-0.38,3.00,-0.03,-0.32,0.09,
3.213,-0.60,-0.38,3.00,-0.02,-0.31,0.09,
3.227,-0.60,-0.38,3.00,0.01,-0.29,0.10,
3.228,-0.76,-0.57,2.80,0.01,-0.29,0.10,
3.229,-0.76,-0.57,2.80,0.04,-0.28,0.11,
3.23,-0.76,-0.57,2.80,0.08,-0.26,0.13,
3.231,-0.76,-0.57,2.80,0.11,-0.25,0.14,
3.231,-0.76,-0.57,2.80,0.13,-0.24,0.15,
3.232,-0.76,-0.57,2.80,0.16,-0.23,0.16,
3.233,-0.82,-0.73,2.36,0.16,-0.23,0.16,
3.234,-0.82,-0.73,2.36,0.19,-0.21,0.17,
3.235,-0.82,-0.73,2.36,0.23,-0.20,0.19,
3.236,-0.82,-0.73,2.36,0.28,-0.17,0.21,
3.239,-0.82,-0.73,2.36,0.29,-0.16,0.22,
3.24,-0.82,-0.73,2.36,0.33,-0.13,0.24,
3.241,-0.95,-0.89,1.78,0.33,-0.13,0.24,
3.241,-0.95,-0.89,1.78,0.36,-0.11,0.25,
3.242,-0.95,-0.89,1.78,0.39,-0.09,0.27,
3.243,-0.95,-0.89,1.78,0.43,-0.06,0.30,
3.244,-0.95,-0.89,1.78,0.45,-0.05,0.31,
3.246,-0.95,-0.89,1.78,0.48,-0.02,0.33,
3.249,-1.02,-0.99,0.97,0.48,-0.02,0.33,
3.25,-1.02,-0.99,0.97,0.50,-0.00,0.35,
3.251,-1.02,-0.99,0.97,0.52,0.02,0.36,
3.274,-1.02,-0.99,0.97,0.56,0.05,0.39,
3.276,-1.02,-0.99,0.97,0.57,0.06,0.40,
3.277,-1.02,-0.99,0.97,0.58,0.09,0.42,
3.277,-1.06,-1.10,0.02,0.58,0.09,0.42,
3.278,-1.06,-1.10,0.02,0.60,0.11,0.44,
3.279,-1.06,-1.10,0.02,0.61,0.13,0.46,
3.279,-1.06,-1.10,0.02,0.63,0.16,0.49,
3.28,-1.06,-1.10,0.02,0.63,0.17,0.49,
3.28,-1.06,-1.10,0.02,0.64,0.19,0.51,
3.28,-1.01,-1.13,-0.95,0.64,0.19,0.51,
3.281,-1.01,-1.13,-0.95,0.64,0.21,0.53,
3.281,-1.01,-1.13,-0.95,0.65,0.22,0.55,
3.282,-1.01,-1.13,-0.95,0.65,0.24,0.57,
3.282,-1.01,-1.13,-0.95,0.66,0.25,0.58,
3.283,-1.01,-1.13,-0.95,0.66,0.26,0.59,
3.283,-0.88,-1.12,-1.80,0.66,0.26,0.59,
3.284,-0.88,-1.12,-1.80,0.66,0.26,0.60,
3.285,-0.88,-1.12,-1.80,0.66,0.27,0.61,
3.285,-0.88,-1.12,-1.80,0.66,0.27,0.62,
3.285,-0.88,-1.12,-1.80,0.66,0.27,0.63,
3.288,-0.88,-1.12,-1.80,0.65,0.27,0.63,
3.294,-0.64,-1.07,-2.46,0.65,0.27,0.63,
3.297,-0.64,-1.07,-2.46,0.66,0.26,0.64,
3.298,-0.64,-1.07,-2.46,0.66,0.25,0.64,
3.298,-0.64,-1.07,-2.46,0.65,0.24,0.65,
3.299,-0.64,-1.07,-2.46,0.65,0.24,0.65,
3.299,-0.64,-1.07,-2.46,0.65,0.23,0.65,
3.302,-0.62,-0.95,-2.96,0.65,0.23,0.65,
3.308,-0.62,-0.95,-2.96,0.65,0.22,0.66,
3.309,-0.62,-0.95,-2.96,0.66,0.21,0.67,
3.31,-0.62,-0.95,-2.96,0.66,0.19,0.67,
3.31,-0.62,-0.95,-2.96,0.66,0.18,0.68,
3.311,-0.62,-0.95,-2.96,0.66,0.17,0.69,
3.311,-0.63,-0.99,-3.29,0.66,0.17,0.69,
3.311,-0.63,-0.99,-3.29,0.67,0.16,0.69,
3.312,-0.63,-0.99,-3.29,0.67,0.14,0.70,
3.313,-0.63,-0.99,-3.29,0.67,0.12,0.72,
3.35,-0.63,-0.99,-3.29,0.67,0.11,0.73,
3.351,-0.63,-0.99,-3.29,0.67,0.10,0.74,
3.352,-0.79,-1.00,-3.59,0.67,0.10,0.74,
3.352,-0.79,-1.00,-3.59,0.67,0.08,0.75,
3.353,-0.79,-1.00,-3.59,0.67,0.06,0.77,
3.353,-0.79,-1.00,-3.59,0.67,0.04,0.79,
3.354,-0.79,-1.00,-3.59,0.67,0.03,0.79,
3.354,-0.79,-1.00,-3.59,0.67,0.02,0.81,
3.355,-0.75,-1.08,-3.84,0.67,0.02,0.81,
3.356,-0.75,-1.08,-3.84,0.68,-0.00,0.82,
3.356,-0.75,-1.08,-3.84,0.69,-0.02,0.84,
3.356,-0.75,-1.08,-3.84,0.66,-0.04,0.85,
3.357,-0.75,-1.08,-3.84,0.66,-0.05,0.86,
3.358,-0.75,-1.08,-3.84,0.66,-0.07,0.87,
3.358,-0.71,-1.10,-4.03,0.66,-0.07,0.87,
3.359,-0.71,-1.10,-4.03,0.67,-0.08,0.88,
3.359,-0.71,-1.10,-4.03,0.65,-0.09,0.89,
3.36,-0.71,-1.10,-4.03,0.64,-0.10,0.91,
3.36,-0.71,-1.10,-4.03,0.64,-0.11,0.91,
3.361,-0.71,-1.10,-4.03,0.64,-0.12,0.92,
3.361,-0.51,-1.11,-4.13,0.64,-0.12,0.92,
3.362,-0.51,-1.11,-4.13,0.63,-0.13,0.93,
3.362,-0.51,-1.11,-4.13,0.63,-0.14,0.94,
3.363,-0.51,-1.11,-4.13,0.62,-0.15,0.95,
3.363,-0.51,-1.11,-4.13,0.62,-0.16,0.96,
3.364,-0.51,-1.11,-4.13,0.61,-0.17,0.96,
3.364,-0.39,-1.10,-4.15,0.61,-0.17,0.96,
3.365,-0.39,-1.10,-4.15,0.60,-0.18,0.97,
3.365,-0.39,-1.10,-4.15,0.60,-0.19,0.97,
3.366,-0.39,-1.10,-4.15,0.59,-0.20,0.98,
3.366,-0.39,-1.10,-4.15,0.59,-0.21,0.98,
3.367,-0.39,-1.10,-4.15,0.59,-0.22,0.98,
3.368,-0.12,-1.12,-4.04,0.59,-0.22,0.98,
3.369,-0.12,-1.12,-4.04,0.58,-0.23,0.98,
3.369,-0.12,-1.12,-4.04,0.58,-0.23,0.98,
3.373,-0.12,-1.12,-4.04,0.58,-0.25,0.99,
3.375,-0.12,-1.12,-4.04,0.57,-0.25,0.99,
3.378,-0.12,-1.12,-4.04,0.57,-0.26,0.98,
3.379,0.05,-1.01,-3.84,0.57,-0.26,0.98,
3.38,0.05,-1.01,-3.84,0.57,-0.28,0.98,
3.381,0.05,-1.01,-3.84,0.57,-0.29,0.98,
3.384,0.05,-1.01,-3.84,0.57,-0.31,0.98,
3.387,0.05,-1.01,-3.84,0.56,-0.32,0.97,
3.388,0.05,-1.01,-3.84,0.56,-0.34,0.97,
3.389,0.22,-0.95,-3.60,0.56,-0.34,0.97,
3.39,0.22,-0.95,-3.60,0.56,-0.35,0.96,
3.391,0.22,-0.95,-3.60,0.56,-0.37,0.96,
3.392,0.22,-0.95,-3.60,0.56,-0.39,0.95,
3.394,0.22,-0.95,-3.60,0.56,-0.40,0.94,
3.396,0.22,-0.95,-3.60,0.56,-0.42,0.93,
3.416,0.37,-0.89,-3.29,0.56,-0.42,0.93,
3.419,0.37,-0.89,-3.29,0.57,-0.43,0.93,
3.421,0.37,-0.89,-3.29,0.57,-0.45,0.92,
3.422,0.37,-0.89,-3.29,0.58,-0.46,0.90,
3.423,0.37,-0.89,-3.29,0.58,-0.47,0.90,
3.424,0.37,-0.89,-3.29,0.59,-0.47,0.89,
3.425,0.47,-0.83,-2.95,0.59,-0.47,0.89,
3.426,0.47,-0.83,-2.95,0.59,-0.47,0.88,
3.427,0.47,-0.83,-2.95,0.60,-0.47,0.87,
3.428,0.47,-0.83,-2.95,0.60,-0.47,0.85,
3.429,0.47,-0.83,-2.95,0.60,-0.46,0.84,
3.43,0.47,-0.83,-2.95,0.60,-0.46,0.83,
3.431,0.56,-0.76,-2.88,0.60,-0.46,0.83,
3.432,0.56,-0.76,-2.88,0.60,-0.45,0.81,
3.433,0.56,-0.76,-2.88,0.60,-0.44,0.80,
3.434,0.56,-0.76,-2.88,0.59,-0.42,0.78,
3.434,0.56,-0.76,-2.88,0.59,-0.42,0.77,
3.435,0.56,-0.76,-2.88,0.58,-0.41,0.76,
3.436,0.58,-0.71,-3.02,0.58,-0.41,0.76,
3.436,0.58,-0.71,-3.02,0.56,-0.39,0.74,
3.437,0.58,-0.71,-3.02,0.55,-0.38,0.73,
3.437,0.58,-0.71,-3.02,0.52,-0.36,0.71,
3.438,0.58,-0.71,-3.02,0.51,-0.35,0.70,
3.438,0.58,-0.71,-3.02,0.50,-0.34,0.69,
3.439,0.54,-0.58,-3.09,0.50,-0.34,0.69,
3.44,0.54,-0.58,-3.09,0.48,-0.33,0.68,
3.441,0.54,-0.58,-3.09,0.46,-0.31,0.66,
3.464,0.54,-0.58,-3.09,0.43,-0.30,0.64,
3.466,0.54,-0.58,-3.09,0.42,-0.29,0.63,
3.467,0.54,-0.58,-3.09,0.40,-0.28,0.62,
3.468,0.45,-0.38,-2.96,0.40,-0.28,0.62,
3.469,0.45,-0.38,-2.96,0.38,-0.28,0.60,
3.473,0.45,-0.38,-2.96,0.35,-0.28,0.59,
3.473,0.45,-0.38,-2.96,0.35,-0.28,0.57,
3.473,0.45,-0.38,-2.96,0.34,-0.27,0.56,
3.474,0.45,-0.38,-2.96,0.33,-0.28,0.54,
3.474,0.35,-0.13,-2.56,0.33,-0.28,0.54,
3.474,0.35,-0.13,-2.56,0.31,-0.28,0.53,
3.475,0.35,-0.13,-2.56,0.30,-0.29,0.51,
3.475,0.35,-0.13,-2.56,0.29,-0.31,0.48,
3.475,0.35,-0.13,-2.56,0.29,-0.31,0.47,
3.476,0.35,-0.13,-2.56,0.28,-0.33,0.45,
3.476,0.26,0.04,-1.90,0.28,-0.33,0.45,
3.476,0.26,0.04,-1.90,0.28,-0.35,0.44,
3.476,0.26,0.04,-1.90,0.27,-0.36,0.41,
3.477,0.26,0.04,-1.90,0.28,-0.38,0.39,
3.477,0.26,0.04,-1.90,0.28,-0.39,0.38,
3.477,0.26,0.04,-1.90,0.28,-0.40,0.36,
3.478,0.29,0.12,-1.07,0.28,-0.40,0.36,
3.478,0.29,0.12,-1.07,0.29,-0.41,0.34,
3.512,0.29,0.12,-1.07,0.29,-0.42,0.32,
3.513,0.29,0.12,-1.07,0.30,-0.44,0.28,
3.513,0.29,0.12,-1.07,0.30,-0.44,0.27,
3.514,0.29,0.12,-1.07,0.30,-0.45,0.26,
3.514,0.36,0.08,-0.34,0.30,-0.45,0.26,
3.515,0.36,0.08,-0.34,0.31,-0.45,0.24,
3.515,0.36,0.08,-0.34,0.31,-0.45,0.22,
3.516,0.36,0.08,-0.34,0.29,-0.46,0.19,
3.516,0.36,0.08,-0.34,0.30,-0.46,0.19,
3.517,0.36,0.08,-0.34,0.30,-0.46,0.18,
3.517,0.32,0.02,0.07,0.30,-0.46,0.18,
3.518,0.32,0.02,0.07,0.30,-0.46,0.16,
3.519,0.32,0.02,0.07,0.28,-0.47,0.14,
3.52,0.32,0.02,0.07,0.25,-0.46,0.12,
3.52,0.32,0.02,0.07,0.24,-0.46,0.11,
3.521,0.32,0.02,0.07,0.23,-0.46,0.10,
3.521,0.29,0.13,0.22,0.23,-0.46,0.10,
3.522,0.29,0.13,0.22,0.21,-0.46,0.08,
3.522,0.29,0.13,0.22,0.18,-0.45,0.07,
3.523,0.29,0.13,0.22,0.14,-0.43,0.04,
3.524,0.29,0.13,0.22,0.13,-0.43,0.03,
3.524,0.29,0.13,0.22,0.10,-0.42,0.02,
3.524,0.33,0.32,0.27,0.10,-0.42,0.02,
3.525,0.33,0.32,0.27,0.06,-0.41,-0.01,
3.525,0.33,0.32,0.27,0.03,-0.39,-0.03,
3.526,0.33,0.32,0.27,-0.03,-0.37,-0.06,
3.527,0.33,0.32,0.27,-0.06,-0.36,-0.07,
3.527,0.33,0.32,0.27,-0.10,-0.34,-0.10,
3.538,0.60,0.53,0.31,-0.10,-0.34,-0.10,
3.54,0.60,0.53,0.31,-0.14,-0.32,-0.13,
3.541,0.60,0.53,0.31,-0.19,-0.29,-0.16,
3.541,0.60,0.53,0.31,-0.26,-0.25,-0.20,
3.542,0.60,0.53,0.31,-0.29,-0.24,-0.22,
3.542,0.60,0.53,0.31,-0.34,-0.21,-0.25,
3.543,0.83,0.68,0.44,-0.34,-0.21,-0.25,
3.544,0.83,0.68,0.44,-0.38,-0.18,-0.27,
3.544,0.83,0.68,0.44,-0.44,-0.15,-0.31,
3.545,0.83,0.68,0.44,-0.51,-0.11,-0.35,
3.545,0.83,0.68,0.44,-0.53,-0.09,-0.36,
3.548,0.83,0.68,0.44,-0.58,-0.06,-0.39,
3.549,0.79,0.67,0.85,-0.58,-0.06,-0.39,
3.549,0.79,0.67,0.85,-0.62,-0.03,-0.41,
3.549,0.79,0.67,0.85,-0.66,0.01,-0.43,
3.558,0.79,0.67,0.85,-0.71,0.07,-0.46,
3.559,0.79,0.67,0.85,-0.72,0.10,-0.47,
3.559,0.79,0.67,0.85,-0.75,0.14,-0.48,
3.559,0.61,0.64,1.71,-0.75,0.14,-0.48,
3.56,0.61,0.64,1.71,-0.77,0.18,-0.50,
3.56,0.61,0.64,1.71,-0.79,0.23,-0.51,
3.587,0.61,0.64,1.71,-0.81,0.29,-0.52,
3.588,0.61,0.64,1.71,-0.82,0.31,-0.52,
3.588,0.61,0.64,1.71,-0.82,0.34,-0.52,
3.589,0.27,0.57,2.68,-0.82,0.34,-0.52,
3.589,0.27,0.57,2.68,-0.83,0.37,-0.52,
3.589,0.27,0.57,2.68,-0.83,0.41,-0.51,
3.59,0.27,0.57,2.68,-0.83,0.44,-0.50,
3.59,0.27,0.57,2.68,-0.82,0.45,-0.50,
3.59,0.27,0.57,2.68,-0.82,0.47,-0.48,
3.591,0.01,0.47,3.51,-0.82,0.47,-0.48,
3.591,0.01,0.47,3.51,-0.81,0.49,-0.47,
3.591,0.01,0.47,3.51,-0.80,0.51,-0.46,
3.592,0.01,0.47,3.51,-0.78,0.53,-0.43,
3.592,0.01,0.47,3.51,-0.77,0.53,-0.43,
3.592,0.01,0.47,3.51,-0.75,0.54,-0.41,
3.593,-0.04,0.50,4.06,-0.75,0.54,-0.41,
3.593,-0.04,0.50,4.06,-0.73,0.55,-0.40,
3.593,-0.04,0.50,4.06,-0.72,0.55,-0.39,
3.594,-0.04,0.50,4.06,-0.69,0.54,-0.38,
3.594,-0.04,0.50,4.06,-0.67,0.54,-0.38,
3.596,-0.04,0.50,4.06,-0.65,0.53,-0.38,
3.601,0.24,0.58,4.54,-0.65,0.53,-0.38,
3.602,0.24,0.58,4.54,-0.63,0.52,-0.37,
3.602,0.24,0.58,4.54,-0.60,0.51,-0.38,
3.603,0.24,0.58,4.54,-0.56,0.49,-0.38,
3.603,0.24,0.58,4.54,-0.54,0.49,-0.38,
3.606,0.24,0.58,4.54,-0.51,0.47,-0.39,
3.608,0.51,0.75,5.01,-0.51,0.47,-0.39,
3.61,0.51,0.75,5.01,-0.47,0.46,-0.39,
3.611,0.51,0.75,5.01,-0.44,0.44,-0.40,
3.626,0.51,0.75,5.01,-0.39,0.41,-0.41,
3.628,0.51,0.75,5.01,-0.37,0.40,-0.41,
3.629,0.51,0.75,5.01,-0.33,0.39,-0.42,
3.63,0.76,0.84,5.36,-0.33,0.39,-0.42,
3.631,0.76,0.84,5.36,-0.30,0.37,-0.43,
3.632,0.76,0.84,5.36,-0.26,0.35,-0.44,
3.633,0.76,0.84,5.36,-0.20,0.32,-0.45,
3.633,0.76,0.84,5.36,-0.19,0.31,-0.45,
3.634,0.76,0.84,5.36,-0.15,0.30,-0.46,
3.635,0.81,0.82,5.52,-0.15,0.30,-0.46,
3.636,0.81,0.82,5.52,-0.11,0.29,-0.46,
3.636,0.81,0.82,5.52,-0.08,0.28,-0.46,
3.637,0.81,0.82,5.52,-0.03,0.27,-0.46,
3.638,0.81,0.82,5.52,-0.01,0.27,-0.46,
3.639,0.81,0.82,5.52,0.02,0.27,-0.46,
3.64,0.74,0.68,5.40,0.02,0.27,-0.46,
3.641,0.74,0.68,5.40,0.05,0.28,-0.46,
3.641,0.74,0.68,5.40,0.08,0.29,-0.45,
3.674,0.74,0.68,5.40,0.12,0.30,-0.44,
3.676,0.74,0.68,5.40,0.13,0.31,-0.44,
3.677,0.74,0.68,5.40,0.15,0.31,-0.43,
3.711,0.65,0.47,4.93,0.15,0.31,-0.43,
3.712,0.65,0.47,4.93,0.17,0.32,-0.42,
3.712,0.65,0.47,4.93,0.19,0.32,-0.41,
3.713,0.65,0.47,4.93,0.20,0.32,-0.40,
3.714,0.65,0.47,4.93,0.21,0.32,-0.39,
3.714,0.65,0.47,4.93,0.22,0.30,-0.38,
3.715,0.70,0.18,4.25,0.22,0.30,-0.38,
3.715,0.70,0.18,4.25,0.22,0.29,-0.37,
3.716,0.70,0.18,4.25,0.22,0.27,-0.37,
3.716,0.70,0.18,4.25,0.21,0.23,-0.35,
3.717,0.70,0.18,4.25,0.21,0.21,-0.35,
3.718,0.70,0.18,4.25,0.20,0.18,-0.35,
3.718,0.99,0.13,3.61,0.20,0.18,-0.35,
3.719,0.99,0.13,3.61,0.19,0.15,-0.35,
3.72,0.99,0.13,3.61,0.17,0.11,-0.36,
3.72,0.99,0.13,3.61,0.14,0.05,-0.37,
3.721,0.99,0.13,3.61,0.13,0.03,-0.37,
3.721,0.99,0.13,3.61,0.11,-0.01,-0.38,
3.722,1.39,0.11,3.18,0.11,-0.01,-0.38,
3.722,1.39,0.11,3.18,0.08,-0.05,-0.39,
3.723,1.39,0.11,3.18,0.06,-0.09,-0.40,
3.724,1.39,0.11,3.18,0.03,-0.14,-0.41,
3.724,1.39,0.11,3.18,0.02,-0.16,-0.41,
3.725,1.39,0.11,3.18,0.01,-0.19,-0.42,
3.725,1.54,-0.02,3.13,0.01,-0.19,-0.42,
3.726,1.54,-0.02,3.13,-0.01,-0.21,-0.42,
3.726,1.54,-0.02,3.13,-0.01,-0.24,-0.43,
3.727,1.54,-0.02,3.13,-0.02,-0.26,-0.43,
3.728,1.54,-0.02,3.13,-0.03,-0.27,-0.43,
3.728,1.54,-0.02,3.13,-0.03,-0.28,-0.43,
3.729,1.65,-0.26,3.28,-0.03,-0.28,-0.43,
3.729,1.65,-0.26,3.28,-0.03,-0.29,-0.43,
3.73,1.65,-0.26,3.28,-0.02,-0.29,-0.43,
3.731,1.65,-0.26,3.28,-0.02,-0.29,-0.43,
3.731,1.65,-0.26,3.28,-0.01,-0.29,-0.43,
3.732,1.65,-0.26,3.28,-0.01,-0.28,-0.43,
3.732,1.71,-0.51,3.23,-0.01,-0.28,-0.43,
3.733,1.71,-0.51,3.23,0.00,-0.27,-0.43,
3.734,1.71,-0.51,3.23,0.01,-0.25,-0.42,
3.735,1.71,-0.51,3.23,0.02,-0.22,-0.42,
3.735,1.71,-0.51,3.23,0.02,-0.21,-0.41,
3.736,1.71,-0.51,3.23,0.03,-0.19,-0.41,
3.736,1.78,-0.80,2.76,0.03,-0.19,-0.41,
3.737,1.78,-0.80,2.76,0.03,-0.16,-0.41,
3.737,1.78,-0.80,2.76,0.04,-0.14,-0.40,
3.738,1.78,-0.80,2.76,0.04,-0.09,-0.40,
3.739,1.78,-0.80,2.76,0.04,-0.08,-0.40,
3.739,1.78,-0.80,2.76,0.04,-0.04,-0.39,
3.74,1.74,-1.01,1.98,0.04,-0.04,-0.39,
3.74,1.74,-1.01,1.98,0.04,-0.01,-0.39,
3.741,1.74,-1.01,1.98,0.05,0.02,-0.38,
3.741,1.74,-1.01,1.98,0.05,0.08,-0.37,
3.741,1.74,-1.01,1.98,0.05,0.10,-0.37,
3.742,1.74,-1.01,1.98,0.05,0.13,-0.37,
3.742,1.73,-1.23,1.10,0.05,0.13,-0.37,
3.743,1.73,-1.23,1.10,0.05,0.17,-0.36,
3.744,1.73,-1.23,1.10,0.06,0.20,-0.35,
3.744,1.73,-1.23,1.10,0.06,0.25,-0.35,
3.744,1.73,-1.23,1.10,0.06,0.26,-0.35,
3.748,1.73,-1.23,1.10,0.07,0.28,-0.34,
3.751,1.71,-1.29,0.24,0.07,0.28,-0.34,
3.751,1.71,-1.29,0.24,0.07,0.30,-0.34,
3.752,1.71,-1.29,0.24,0.08,0.32,-0.34,
3.752,1.71,-1.29,0.24,0.09,0.35,-0.35,
3.754,1.71,-1.29,0.24,0.09,0.35,-0.35,
3.756,1.71,-1.29,0.24,0.10,0.37,-0.35,
3.758,1.83,-1.26,-0.55,0.10,0.37,-0.35,
3.759,1.83,-1.26,-0.55,0.11,0.38,-0.36,
3.76,1.83,-1.26,-0.55,0.12,0.38,-0.37,
3.77,1.83,-1.26,-0.55,0.14,0.39,-0.38,
3.776,1.83,-1.26,-0.55,0.15,0.39,-0.38,
3.781,1.83,-1.26,-0.55,0.16,0.40,-0.39,
3.781,1.87,-1.17,-1.29,0.16,0.40,-0.39,
3.781,1.87,-1.17,-1.29,0.17,0.40,-0.40,
3.782,1.87,-1.17,-1.29,0.18,0.39,-0.42,
3.782,1.87,-1.17,-1.29,0.20,0.38,-0.44,
3.782,1.87,-1.17,-1.29,0.21,0.38,-0.45,
3.783,1.87,-1.17,-1.29,0.22,0.37,-0.47,
3.783,2.05,-1.11,-1.97,0.22,0.37,-0.47,
3.784,2.05,-1.11,-1.97,0.23,0.36,-0.48,
3.784,2.05,-1.11,-1.97,0.23,0.35,-0.50,
3.784,2.05,-1.11,-1.97,0.25,0.33,-0.53,
3.785,2.05,-1.11,-1.97,0.25,0.32,-0.54,
3.786,2.05,-1.11,-1.97,0.25,0.31,-0.56,
3.798,1.98,-1.01,-2.71,0.25,0.31,-0.56,
3.8,1.98,-1.01,-2.71,0.26,0.29,-0.59,
3.801,1.98,-1.01,-2.71,0.26,0.26,-0.61,
3.801,1.98,-1.01,-2.71,0.26,0.23,-0.64,
3.802,1.98,-1.01,-2.71,0.26,0.22,-0.65,
3.804,1.98,-1.01,-2.71,0.26,0.19,-0.68,
3.805,1.81,-0.84,-3.35,0.26,0.19,-0.68,
3.805,1.81,-0.84,-3.35,0.26,0.17,-0.70,
3.805,1.81,-0.84,-3.35,0.25,0.15,-0.72,
3.806,1.81,-0.84,-3.35,0.24,0.14,-0.75,
3.806,1.81,-0.84,-3.35,0.24,0.13,-0.76,
3.812,1.81,-0.84,-3.35,0.24,0.12,-0.77,
3.813,1.35,-0.75,-3.95,0.24,0.12,-0.77,
3.815,1.35,-0.75,-3.95,0.22,0.11,-0.79,
3.816,1.35,-0.75,-3.95,0.21,0.11,-0.80,
3.817,1.35,-0.75,-3.95,0.18,0.10,-0.83,
3.864,1.35,-0.75,-3.95,0.17,0.10,-0.84,
3.865,1.35,-0.75,-3.95,0.15,0.09,-0.85,
3.865,0.93,-0.81,-4.42,0.15,0.09,-0.85,
3.866,0.93,-0.81,-4.42,0.13,0.09,-0.85,
3.866,0.93,-0.81,-4.42,0.12,0.09,-0.86,
3.867,0.93,-0.81,-4.42,0.10,0.11,-0.86,
3.868,0.93,-0.81,-4.42,0.09,0.12,-0.86,
3.869,0.93,-0.81,-4.42,0.08,0.14,-0.86,
3.869,0.37,-0.83,-4.43,0.08,0.14,-0.86,
3.87,0.37,-0.83,-4.43,0.07,0.16,-0.85,
3.87,0.37,-0.83,-4.43,0.06,0.18,-0.85,
3.871,0.37,-0.83,-4.43,0.05,0.22,-0.84,
3.871,0.37,-0.83,-4.43,0.05,0.24,-0.83,
3.871,0.37,-0.83,-4.43,0.05,0.25,-0.82,
3.872,0.19,-0.96,-4.30,0.05,0.25,-0.82,
3.872,0.19,-0.96,-4.30,0.04,0.27,-0.82,
3.873,0.19,-0.96,-4.30,0.03,0.29,-0.80,
3.873,0.19,-0.96,-4.30,0.03,0.32,-0.79,
3.874,0.19,-0.96,-4.30,0.03,0.34,-0.78,
3.875,0.19,-0.96,-4.30,0.03,0.36,-0.77,
3.875,0.10,-1.12,-4.19,0.03,0.36,-0.77,
3.876,0.10,-1.12,-4.19,0.04,0.39,-0.75,
3.876,0.10,-1.12,-4.19,0.06,0.44,-0.73,
3.877,0.10,-1.12,-4.19,0.09,0.51,-0.71,
3.878,0.10,-1.12,-4.19,0.11,0.55,-0.69,
3.879,0.10,-1.12,-4.19,0.12,0.57,-0.68,
3.879,-0.07,-0.96,-3.92,0.12,0.57,-0.68,
3.88,-0.07,-0.96,-3.92,0.14,0.59,-0.66,
3.88,-0.07,-0.96,-3.92,0.15,0.60,-0.65,
3.881,-0.07,-0.96,-3.92,0.15,0.58,-0.63,
3.881,-0.07,-0.96,-3.92,0.15,0.56,-0.61,
3.881,-0.07,-0.96,-3.92,0.14,0.54,-0.60,
3.882,0.08,-1.07,-4.33,0.14,0.54,-0.60,
3.884,0.08,-1.07,-4.33,0.12,0.50,-0.59,
3.884,0.08,-1.07,-4.33,0.10,0.46,-0.57,
3.885,0.08,-1.07,-4.33,0.06,0.40,-0.55,
3.885,0.08,-1.07,-4.33,0.04,0.35,-0.53,
3.886,0.08,-1.07,-4.33,0.02,0.33,-0.52,
3.887,0.12,-0.97,-5.11,0.02,0.33,-0.52,
3.888,0.12,-0.97,-5.11,-0.00,0.29,-0.50,
3.889,0.12,-0.97,-5.11,-0.03,0.25,-0.48,
3.89,0.12,-0.97,-5.11,-0.06,0.21,-0.45,
3.891,0.12,-0.97,-5.11,-0.09,0.18,-0.42,
3.892,0.12,-0.97,-5.11,-0.10,0.17,-0.41,
3.893,-0.05,-0.54,-5.42,-0.10,0.17,-0.41,
3.895,-0.05,-0.54,-5.42,-0.12,0.14,-0.39,
3.895,-0.05,-0.54,-5.42,-0.13,0.12,-0.38,
3.896,-0.05,-0.54,-5.42,-0.16,0.09,-0.35,
3.896,-0.05,-0.54,-5.42,-0.17,0.07,-0.34,
3.897,-0.05,-0.54,-5.42,-0.18,0.06,-0.33,
3.897,-0.08,-0.07,-5.34,-0.18,0.06,-0.33,
3.899,-0.08,-0.07,-5.34,-0.19,0.04,-0.32,
3.899,-0.08,-0.07,-5.34,-0.21,0.02,-0.31,
3.903,-0.08,-0.07,-5.34,-0.23,-0.01,-0.30,
3.904,-0.08,-0.07,-5.34,-0.24,-0.02,-0.30,
3.909,-0.08,-0.07,-5.34,-0.26,-0.05,-0.29,
3.91,0.15,0.12,-5.02,-0.26,-0.05,-0.29,
3.911,0.15,0.12,-5.02,-0.28,-0.06,-0.29,
3.911,0.15,0.12,-5.02,-0.28,-0.06,-0.29,
3.923,0.15,0.12,-5.02,-0.30,-0.08,-0.28,
3.926,0.15,0.12,-5.02,-0.31,-0.09,-0.28,
3.927,0.15,0.12,-5.02,-0.32,-0.09,-0.28,
3.93,0.38,0.23,-4.84,-0.32,-0.09,-0.28,
3.931,0.38,0.23,-4.84,-0.33,-0.10,-0.28,
3.931,0.38,0.23,-4.84,-0.35,-0.11,-0.27,
3.932,0.38,0.23,-4.84,-0.36,-0.12,-0.27,
3.933,0.38,0.23,-4.84,-0.37,-0.12,-0.27,
3.934,0.38,0.23,-4.84,-0.38,-0.13,-0.27,
3.935,0.51,0.39,-4.45,-0.38,-0.13,-0.27,
3.935,0.51,0.39,-4.45,-0.39,-0.13,-0.27,
3.937,0.51,0.39,-4.45,-0.40,-0.13,-0.27,
3.939,0.51,0.39,-4.45,-0.42,-0.13,-0.26,
3.94,0.51,0.39,-4.45,-0.43,-0.13,-0.26,
3.941,0.51,0.39,-4.45,-0.44,-0.13,-0.26,
3.942,0.55,0.71,-4.03,-0.44,-0.13,-0.26,
3.943,0.55,0.71,-4.03,-0.45,-0.13,-0.25,
3.943,0.55,0.71,-4.03,-0.46,-0.13,-0.25,
3.944,0.55,0.71,-4.03,-0.48,-0.13,-0.24,
3.945,0.55,0.71,-4.03,-0.49,-0.13,-0.23,
3.945,0.55,0.71,-4.03,-0.50,-0.14,-0.22,
3.973,0.42,1.17,-3.42,-0.50,-0.14,-0.22,
3.975,0.42,1.17,-3.42,-0.51,-0.15,-0.22,
3.976,0.42,1.17,-3.42,-0.53,-0.16,-0.21,
3.976,0.42,1.17,-3.42,-0.55,-0.19,-0.21,
3.977,0.42,1.17,-3.42,-0.57,-0.20,-0.21,
3.977,0.42,1.17,-3.42,-0.58,-0.21,-0.21,
3.977,0.50,1.44,-2.71,-0.58,-0.21,-0.21,
3.978,0.50,1.44,-2.71,-0.59,-0.22,-0.22,
3.979,0.50,1.44,-2.71,-0.61,-0.23,-0.22,
3.979,0.50,1.44,-2.71,-0.62,-0.24,-0.24,
3.98,0.50,1.44,-2.71,-0.64,-0.24,-0.25,
3.98,0.50,1.44,-2.71,-0.64,-0.24,-0.26,
3.981,0.61,1.21,-2.10,-0.64,-0.24,-0.26,
3.981,0.61,1.21,-2.10,-0.65,-0.24,-0.27,
3.982,0.61,1.21,-2.10,-0.66,-0.23,-0.29,
3.983,0.61,1.21,-2.10,-0.67,-0.21,-0.30,
3.984,0.61,1.21,-2.10,-0.68,-0.19,-0.31,
3.984,0.61,1.21,-2.10,-0.68,-0.18,-0.31,
3.985,0.34,1.21,-1.42,-0.68,-0.18,-0.31,
3.985,0.34,1.21,-1.42,-0.68,-0.15,-0.32,
4.023,0.34,1.21,-1.42,-0.68,-0.13,-0.32,
4.024,0.34,1.21,-1.42,-0.69,-0.10,-0.32,
4.025,0.34,1.21,-1.42,-0.69,-0.08,-0.32,
4.025,0.34,1.21,-1.42,-0.69,-0.08,-0.31,
4.026,-0.10,1.15,-0.63,-0.69,-0.08,-0.31,
4.027,-0.10,1.15,-0.63,-0.69,-0.05,-0.30,
4.027,-0.10,1.15,-0.63,-0.69,-0.04,-0.30,
4.028,-0.10,1.15,-0.63,-0.69,-0.03,-0.29,
4.029,-0.10,1.15,-0.63,-0.69,-0.03,-0.28,
4.029,-0.10,1.15,-0.63,-0.69,-0.03,-0.27,
4.03,-0.45,1.15,0.19,-0.69,-0.03,-0.27,
4.031,-0.45,1.15,0.19,-0.69,-0.02,-0.26,
4.031,-0.45,1.15,0.19,-0.69,-0.03,-0.25,
4.032,-0.45,1.15,0.19,-0.69,-0.03,-0.23,
4.032,-0.45,1.15,0.19,-0.69,-0.04,-0.22,
4.033,-0.45,1.15,0.19,-0.68,-0.06,-0.20,
4.033,-0.58,1.28,0.80,-0.68,-0.06,-0.20,
4.034,-0.58,1.28,0.80,-0.68,-0.07,-0.19,
4.034,-0.58,1.28,0.80,-0.68,-0.09,-0.18,
4.035,-0.58,1.28,0.80,-0.67,-0.11,-0.17,
4.035,-0.58,1.28,0.80,-0.67,-0.13,-0.16,
4.036,-0.58,1.28,0.80,-0.66,-0.16,-0.15,
4.036,-0.43,1.44,1.43,-0.66,-0.16,-0.15,
4.037,-0.43,1.44,1.43,-0.65,-0.18,-0.15,
4.038,-0.43,1.44,1.43,-0.65,-0.21,-0.14,
4.038,-0.43,1.44,1.43,-0.63,-0.24,-0.14,
4.039,-0.43,1.44,1.43,-0.62,-0.28,-0.14,
4.04,-0.43,1.44,1.43,-0.61,-0.31,-0.14,
4.04,-0.27,1.64,2.29,-0.61,-0.31,-0.14,
4.041,-0.27,1.64,2.29,-0.59,-0.35,-0.14,
4.041,-0.27,1.64,2.29,-0.57,-0.39,-0.14,
4.042,-0.27,1.64,2.29,-0.55,-0.43,-0.14,
4.043,-0.27,1.64,2.29,-0.53,-0.47,-0.14,
4.043,-0.27,1.64,2.29,-0.50,-0.51,-0.14,
4.044,-0.22,1.79,3.51,-0.50,-0.51,-0.14,
4.045,-0.22,1.79,3.51,-0.47,-0.55,-0.14,
4.045,-0.22,1.79,3.51,-0.44,-0.59,-0.14,
4.046,-0.22,1.79,3.51,-0.40,-0.63,-0.14,
4.046,-0.22,1.79,3.51,-0.36,-0.66,-0.14,
4.047,-0.22,1.79,3.51,-0.32,-0.69,-0.15,
4.048,-0.07,1.82,4.71,-0.32,-0.69,-0.15,
4.048,-0.07,1.82,4.71,-0.28,-0.72,-0.15,
4.052,-0.07,1.82,4.71,-0.24,-0.74,-0.15,
4.056,-0.07,1.82,4.71,-0.20,-0.76,-0.15,
4.057,-0.07,1.82,4.71,-0.16,-0.77,-0.15,
4.058,-0.07,1.82,4.71,-0.12,-0.79,-0.16,
4.071,0.20,1.82,5.50,-0.12,-0.79,-0.16,
4.072,0.20,1.82,5.50,-0.08,-0.80,-0.16,
4.072,0.20,1.82,5.50,-0.03,-0.81,-0.16,
4.073,0.20,1.82,5.50,0.01,-0.82,-0.16,
4.073,0.20,1.82,5.50,0.05,-0.82,-0.16,
4.074,0.20,1.82,5.50,0.09,-0.81,-0.16,
4.074,0.37,1.85,6.08,0.09,-0.81,-0.16,
4.074,0.37,1.85,6.08,0.13,-0.81,-0.17,
4.075,0.37,1.85,6.08,0.16,-0.80,-0.17,
4.075,0.37,1.85,6.08,0.20,-0.79,-0.17,
4.08,0.37,1.85,6.08,0.23,-0.78,-0.18,
4.08,0.37,1.85,6.08,0.26,-0.76,-0.18,
4.081,0.45,1.81,6.28,0.26,-0.76,-0.18,
4.081,0.45,1.81,6.28,0.28,-0.74,-0.19,
4.084,0.45,1.81,6.28,0.31,-0.72,-0.19,
4.085,0.45,1.81,6.28,0.33,-0.69,-0.20,
4.085,0.45,1.81,6.28,0.35,-0.66,-0.20,
4.086,0.45,1.81,6.28,0.37,-0.62,-0.21,
4.104,0.35,1.69,6.30,0.37,-0.62,-0.21,
4.106,0.35,1.69,6.30,0.39,-0.58,-0.21,
4.107,0.35,1.69,6.30,0.42,-0.54,-0.21,
4.108,0.35,1.69,6.30,0.43,-0.49,-0.21,
4.108,0.35,1.69,6.30,0.45,-0.45,-0.21,
4.109,0.35,1.69,6.30,0.46,-0.40,-0.21,
4.11,0.12,1.51,6.20,0.46,-0.40,-0.21,
4.111,0.12,1.51,6.20,0.47,-0.36,-0.20,
4.112,0.12,1.51,6.20,0.47,-0.31,-0.20,
4.113,0.12,1.51,6.20,0.48,-0.27,-0.20,
4.115,0.12,1.51,6.20,0.48,-0.23,-0.19,
4.116,0.12,1.51,6.20,0.48,-0.18,-0.18,
4.118,-0.23,1.13,5.74,0.48,-0.18,-0.18,
4.118,-0.23,1.13,5.74,0.48,-0.14,-0.18,
4.118,-0.23,1.13,5.74,0.46,-0.10,-0.17,
4.119,-0.23,1.13,5.74,0.45,-0.06,-0.16,
4.119,-0.23,1.13,5.74,0.44,-0.03,-0.15,
4.12,-0.23,1.13,5.74,0.42,-0.00,-0.14,
4.12,-0.55,0.95,5.00,0.42,-0.00,-0.14,
4.121,-0.55,0.95,5.00,0.40,0.02,-0.13,
4.123,-0.55,0.95,5.00,0.38,0.04,-0.12,
4.124,-0.55,0.95,5.00,0.36,0.06,-0.12,
4.124,-0.55,0.95,5.00,0.34,0.07,-0.12,
4.125,-0.55,0.95,5.00,0.31,0.08,-0.12,
4.151,-0.55,0.99,4.58,0.31,0.08,-0.12,
4.153,-0.55,0.99,4.58,0.29,0.09,-0.13,
4.154,-0.55,0.99,4.58,0.28,0.09,-0.14,
4.154,-0.55,0.99,4.58,0.26,0.09,-0.15,
4.155,-0.55,0.99,4.58,0.26,0.09,-0.16,
4.155,-0.55,0.99,4.58,0.26,0.09,-0.17,
4.155,-0.69,1.17,4.91,0.26,0.09,-0.17,
4.156,-0.69,1.17,4.91,0.26,0.09,-0.17,
4.156,-0.69,1.17,4.91,0.27,0.09,-0.18,
4.157,-0.69,1.17,4.91,0.28,0.09,-0.19,
4.157,-0.69,1.17,4.91,0.29,0.08,-0.18,
4.158,-0.69,1.17,4.91,0.30,0.08,-0.19,
4.196,-1.14,1.05,5.25,0.30,0.08,-0.19,
4.197,-1.14,1.05,5.25,0.32,0.08,-0.18,
4.198,-1.14,1.05,5.25,0.34,0.08,-0.18,
4.198,-1.14,1.05,5.25,0.35,0.07,-0.17,
4.199,-1.14,1.05,5.25,0.37,0.07,-0.16,
4.2,-1.14,1.05,5.25,0.39,0.07,-0.14,
4.201,-1.68,0.77,5.08,0.39,0.07,-0.14,
4.201,-1.68,0.77,5.08,0.40,0.06,-0.13,
4.203,-1.68,0.77,5.08,0.42,0.05,-0.11,
4.204,-1.68,0.77,5.08,0.43,0.03,-0.08,
4.205,-1.68,0.77,5.08,0.44,0.02,-0.08,
4.206,-1.68,0.77,5.08,0.44,0.01,-0.06,
4.207,-2.14,0.65,4.48,0.44,0.01,-0.06,
4.208,-2.14,0.65,4.48,0.44,-0.01,-0.04,
4.21,-2.14,0.65,4.48,0.44,-0.02,-0.02,
4.211,-2.14,0.65,4.48,0.43,-0.05,0.01,
4.211,-2.14,0.65,4.48,0.42,-0.06,0.02,
4.212,-2.14,0.65,4.48,0.41,-0.08,0.04,
4.213,-2.45,0.70,3.59,0.41,-0.08,0.04,
4.214,-2.45,0.70,3.59,0.39,-0.11,0.06,
4.214,-2.45,0.70,3.59,0.37,-0.13,0.07,
4.215,-2.45,0.70,3.59,0.33,-0.18,0.09,
4.216,-2.45,0.70,3.59,0.32,-0.19,0.09,
4.218,-2.45,0.70,3.59,0.29,-0.23,0.11,
4.219,-2.31,0.74,2.94,0.29,-0.23,0.11,
4.221,-2.31,0.74,2.94,0.26,-0.27,0.11,
4.221,-2.31,0.74,2.94,0.23,-0.31,0.12,
4.222,-2.31,0.74,2.94,0.18,-0.37,0.13,
4.222,-2.31,0.74,2.94,0.16,-0.39,0.13,
4.224,-2.31,0.74,2.94,0.13,-0.43,0.13,
4.224,-2.03,0.76,2.83,0.13,-0.43,0.13,
4.225,-2.03,0.76,2.83,0.10,-0.47,0.13,
4.225,-2.03,0.76,2.83,0.08,-0.51,0.13,
4.225,-2.03,0.76,2.83,0.04,-0.56,0.12,
4.226,-2.03,0.76,2.83,0.03,-0.58,0.12,
4.226,-2.03,0.76,2.83,0.01,-0.61,0.12,
4.227,-1.60,0.64,3.23,0.01,-0.61,0.12,
4.227,-1.60,0.64,3.23,-0.01,-0.63,0.11,
4.228,-1.60,0.64,3.23,-0.03,-0.66,0.11,
4.228,-1.60,0.64,3.23,-0.04,-0.69,0.10,
4.228,-1.60,0.64,3.23,-0.05,-0.70,0.10,
4.229,-1.60,0.64,3.23,-0.06,-0.70,0.09,
4.229,-1.31,0.44,3.90,-0.06,-0.70,0.09,
4.23,-1.31,0.44,3.90,-0.06,-0.70,0.09,
4.23,-1.31,0.44,3.90,-0.07,-0.70,0.09,
4.23,-1.31,0.44,3.90,-0.07,-0.67,0.08,
4.231,-1.31,0.44,3.90,-0.07,-0.66,0.08,
4.231,-1.31,0.44,3.90,-0.07,-0.64,0.08,
4.231,-1.03,0.16,4.43,-0.07,-0.64,0.08,
4.232,-1.03,0.16,4.43,-0.06,-0.61,0.08,
4.232,-1.03,0.16,4.43,-0.06,-0.57,0.08,
4.233,-1.03,0.16,4.43,-0.05,-0.50,0.08,
4.233,-1.03,0.16,4.43,-0.04,-0.48,0.09,
4.237,-1.03,0.16,4.43,-0.04,-0.43,0.09,
4.239,-0.98,-0.13,4.56,-0.04,-0.43,0.09,
4.24,-0.98,-0.13,4.56,-0.03,-0.38,0.10,
4.241,-0.98,-0.13,4.56,-0.02,-0.33,0.11,
4.255,-0.98,-0.13,4.56,0.00,-0.26,0.13,
4.258,-0.98,-0.13,4.56,0.01,-0.23,0.13,
4.259,-0.98,-0.13,4.56,0.02,-0.18,0.14,
4.26,-1.06,-0.35,4.30,0.02,-0.18,0.14,
4.26,-1.06,-0.35,4.30,0.03,-0.14,0.15,
4.261,-1.06,-0.35,4.30,0.04,-0.09,0.17,
4.261,-1.06,-0.35,4.30,0.06,-0.02,0.19,
4.268,-1.06,-0.35,4.30,0.07,-0.00,0.19,
4.271,-1.06,-0.35,4.30,0.08,0.03,0.21,
4.274,-1.19,-0.54,3.64,0.08,0.03,0.21,
4.275,-1.19,-0.54,3.64,0.09,0.07,0.22,
4.276,-1.19,-0.54,3.64,0.10,0.10,0.23,
4.279,-1.19,-0.54,3.64,0.12,0.14,0.25,
4.28,-1.19,-0.54,3.64,0.13,0.14,0.25,
4.281,-1.19,-0.54,3.64,0.14,0.16,0.26,
4.284,-1.22,-0.52,2.71,0.14,0.16,0.26,
4.287,-1.22,-0.52,2.71,0.15,0.16,0.27,
4.288,-1.22,-0.52,2.71,0.16,0.16,0.28,
4.289,-1.22,-0.52,2.71,0.18,0.14,0.29,
4.29,-1.22,-0.52,2.71,0.19,0.13,0.30,
4.291,-1.22,-0.52,2.71,0.20,0.11,0.31,
4.292,-1.20,-0.44,1.76,0.20,0.11,0.31,
4.292,-1.20,-0.44,1.76,0.22,0.08,0.31,
4.293,-1.20,-0.44,1.76,0.24,0.05,0.32,
4.293,-1.20,-0.44,1.76,0.26,-0.05,0.33,
4.294,-1.20,-0.44,1.76,0.27,-0.09,0.34,
4.294,-1.20,-0.44,1.76,0.28,-0.16,0.34,
4.305,-1.00,-0.35,0.65,0.28,-0.16,0.34,
4.307,-1.00,-0.35,0.65,0.30,-0.21,0.35,
4.308,-1.00,-0.35,0.65,0.32,-0.26,0.36,
4.309,-1.00,-0.35,0.65,0.36,-0.31,0.36,
4.309,-1.00,-0.35,0.65,0.37,-0.33,0.36,
4.309,-1.00,-0.35,0.65,0.39,-0.35,0.36,
4.31,-1.23,-0.13,-0.06,0.39,-0.35,0.36,
4.311,-1.23,-0.13,-0.06,0.41,-0.37,0.36,
4.311,-1.23,-0.13,-0.06,0.43,-0.38,0.35,
4.312,-1.23,-0.13,-0.06,0.46,-0.40,0.35,
4.314,-1.23,-0.13,-0.06,0.46,-0.40,0.34,
4.316,-1.23,-0.13,-0.06,0.47,-0.41,0.34,
4.317,-0.92,-0.51,-0.94,0.47,-0.41,0.34,
4.317,-0.92,-0.51,-0.94,0.49,-0.42,0.34,
4.318,-0.92,-0.51,-0.94,0.50,-0.43,0.34,
4.319,-0.92,-0.51,-0.94,0.51,-0.44,0.35,
4.354,-0.92,-0.51,-0.94,0.52,-0.43,0.36,
4.354,-0.92,-0.51,-0.94,0.52,-0.43,0.36,
4.355,-1.01,-0.71,-1.79,0.52,-0.43,0.36,
4.355,-1.01,-0.71,-1.79,0.54,-0.42,0.38,
4.356,-1.01,-0.71,-1.79,0.55,-0.41,0.39,
4.356,-1.01,-0.71,-1.79,0.56,-0.37,0.42,
4.357,-1.01,-0.71,-1.79,0.56,-0.36,0.43,
4.358,-1.01,-0.71,-1.79,0.57,-0.33,0.46,
4.358,-1.39,-0.83,-2.42,0.57,-0.33,0.46,
4.359,-1.39,-0.83,-2.42,0.58,-0.29,0.48,
4.359,-1.39,-0.83,-2.42,0.59,-0.24,0.51,
4.36,-1.39,-0.83,-2.42,0.59,-0.16,0.54,
4.36,-1.39,-0.83,-2.42,0.60,-0.13,0.56,
4.361,-1.39,-0.83,-2.42,0.59,-0.06,0.59,
4.361,-1.67,-1.17,-2.95,0.59,-0.06,0.59,
4.362,-1.67,-1.17,-2.95,0.60,0.01,0.62,
4.362,-1.67,-1.17,-2.95,0.59,0.09,0.65,
4.363,-1.67,-1.17,-2.95,0.58,0.22,0.70,
4.364,-1.67,-1.17,-2.95,0.58,0.26,0.72,
4.364,-1.67,-1.17,-2.95,0.57,0.36,0.76,
4.364,-1.77,-1.53,-3.36,0.57,0.36,0.76,
4.365,-1.77,-1.53,-3.36,0.56,0.46,0.80,
4.365,-1.77,-1.53,-3.36,0.55,0.56,0.84,
4.366,-1.77,-1.53,-3.36,0.52,0.71,0.90,
4.366,-1.77,-1.53,-3.36,0.51,0.76,0.93,
4.367,-1.77,-1.53,-3.36,0.49,0.87,0.97,
4.368,-1.96,-1.93,-3.58,0.49,0.87,0.97,
4.368,-1.96,-1.93,-3.58,0.47,0.97,1.02,
4.369,-1.96,-1.93,-3.58,0.45,1.07,1.07,
4.369,-1.96,-1.93,-3.58,0.42,1.20,1.15,
4.37,-1.96,-1.93,-3.58,0.41,1.24,1.17,
4.37,-1.96,-1.93,-3.58,0.38,1.30,1.22,
4.371,-1.80,-1.92,-3.88,0.38,1.30,1.22,
4.371,-1.80,-1.92,-3.88,0.36,1.35,1.26,
4.371,-1.80,-1.92,-3.88,0.33,1.38,1.31,
4.373,-1.80,-1.92,-3.88,0.29,1.40,1.36,
4.373,-1.80,-1.92,-3.88,0.28,1.41,1.38,
4.377,-1.80,-1.92,-3.88,0.25,1.40,1.41,
4.379,-1.33,-1.43,-4.39,0.25,1.40,1.41,
4.381,-1.33,-1.43,-4.39,0.22,1.39,1.43,
4.381,-1.33,-1.43,-4.39,0.19,1.38,1.45,
4.383,-1.33,-1.43,-4.39,0.16,1.35,1.48,
4.384,-1.33,-1.43,-4.39,0.15,1.33,1.48,
4.386,-1.33,-1.43,-4.39,0.12,1.29,1.49,
4.388,-0.42,-1.11,-4.80,0.12,1.29,1.49,
4.389,-0.42,-1.11,-4.80,0.09,1.26,1.49,
4.39,-0.42,-1.11,-4.80,0.06,1.21,1.49,
4.405,-0.42,-1.11,-4.80,0.01,1.14,1.49,
4.409,-0.42,-1.11,-4.80,-0.00,1.12,1.50,
4.41,-0.42,-1.11,-4.80,-0.03,1.06,1.50,
4.411,-0.11,-0.69,-4.71,-0.03,1.06,1.50,
4.412,-0.11,-0.69,-4.71,-0.05,1.00,1.51,
4.413,-0.11,-0.69,-4.71,-0.07,0.95,1.52,
4.413,-0.11,-0.69,-4.71,-0.09,0.86,1.55,
4.414,-0.11,-0.69,-4.71,-0.10,0.84,1.55,
4.415,-0.11,-0.69,-4.71,-0.11,0.79,1.57,
4.416,-0.46,-0.02,-3.70,-0.11,0.79,1.57,
4.417,-0.46,-0.02,-3.70,-0.11,0.75,1.58,
4.417,-0.46,-0.02,-3.70,-0.11,0.72,1.59,
4.418,-0.46,-0.02,-3.70,-0.09,0.69,1.60,
4.419,-0.46,-0.02,-3.70,-0.09,0.68,1.60,
4.419,-0.46,-0.02,-3.70,-0.06,0.67,1.59,
4.42,-0.05,0.07,-2.76,-0.06,0.67,1.59,
4.421,-0.05,0.07,-2.76,-0.04,0.67,1.58,
4.423,-0.05,0.07,-2.76,-0.01,0.67,1.56,
4.424,-0.05,0.07,-2.76,0.05,0.68,1.51,
4.425,-0.05,0.07,-2.76,0.07,0.68,1.49,
4.426,-0.05,0.07,-2.76,0.11,0.69,1.46,
4.459,0.77,-0.36,-2.00,0.11,0.69,1.46,
4.461,0.77,-0.36,-2.00,0.16,0.70,1.41,
4.462,0.77,-0.36,-2.00,0.20,0.71,1.36,
4.463,0.77,-0.36,-2.00,0.27,0.71,1.28,
4.463,0.77,-0.36,-2.00,0.30,0.71,1.26,
4.464,0.77,-0.36,-2.00,0.35,0.70,1.20,
4.464,1.36,-0.60,-1.47,0.35,0.70,1.20,
4.464,1.36,-0.60,-1.47,0.39,0.69,1.15,
4.465,1.36,-0.60,-1.47,0.44,0.67,1.10,
4.465,1.36,-0.60,-1.47,0.51,0.63,1.03,
4.466,1.36,-0.60,-1.47,0.54,0.62,1.01,
4.467,1.36,-0.60,-1.47,0.59,0.58,0.97,
4.467,1.29,-0.48,-1.29,0.59,0.58,0.97,
4.468,1.29,-0.48,-1.29,0.63,0.55,0.94,
4.469,1.29,-0.48,-1.29,0.67,0.52,0.91,
4.469,1.29,-0.48,-1.29,0.74,0.47,0.86,
4.469,1.29,-0.48,-1.29,0.75,0.45,0.85,
4.47,1.29,-0.48,-1.29,0.79,0.42,0.83,
4.471,1.02,-0.40,-1.61,0.79,0.42,0.83,
4.471,1.02,-0.40,-1.61,0.82,0.38,0.81,
4.471,1.02,-0.40,-1.61,0.84,0.34,0.79,
4.472,1.02,-0.40,-1.61,0.87,0.28,0.76,
4.472,1.02,-0.40,-1.61,0.88,0.26,0.75,
4.472,1.02,-0.40,-1.61,0.89,0.22,0.73,
4.473,0.77,-0.45,-2.07,0.89,0.22,0.73,
4.473,0.77,-0.45,-2.07,0.90,0.17,0.71,
4.474,0.77,-0.45,-2.07,0.91,0.13,0.69,
4.474,0.77,-0.45,-2.07,0.91,0.07,0.67,
4.474,0.77,-0.45,-2.07,0.91,0.05,0.66,
4.475,0.77,-0.45,-2.07,0.91,0.02,0.64,
4.487,0.61,-0.57,-2.52,0.91,0.02,0.64,
4.489,0.61,-0.57,-2.52,0.91,-0.01,0.63,
4.526,0.61,-0.57,-2.52,0.91,-0.04,0.62,
4.527,0.61,-0.57,-2.52,0.90,-0.09,0.60,
4.528,0.61,-0.57,-2.52,0.89,-0.10,0.59,
4.529,0.61,-0.57,-2.52,0.89,-0.13,0.58,
4.531,0.37,-0.65,-2.70,0.89,-0.13,0.58,
4.531,0.37,-0.65,-2.70,0.88,-0.16,0.58,
4.532,0.37,-0.65,-2.70,0.87,-0.19,0.57,
4.533,0.37,-0.65,-2.70,0.85,-0.23,0.56,
4.534,0.37,-0.65,-2.70,0.84,-0.24,0.55,
4.535,0.37,-0.65,-2.70,0.83,-0.27,0.54,
4.536,0.12,-0.57,-2.75,0.83,-0.27,0.54,
4.537,0.12,-0.57,-2.75,0.82,-0.29,0.54,
4.538,0.12,-0.57,-2.75,0.81,-0.31,0.53,
4.539,0.12,-0.57,-2.75,0.79,-0.34,0.52,
4.539,0.12,-0.57,-2.75,0.78,-0.35,0.51,
4.54,0.12,-0.57,-2.75,0.77,-0.37,0.50,
4.54,0.02,-0.47,-2.59,0.77,-0.37,0.50,
4.541,0.02,-0.47,-2.59,0.75,-0.39,0.49,
4.541,0.02,-0.47,-2.59,0.74,-0.41,0.48,
4.541,0.02,-0.47,-2.59,0.72,-0.44,0.47,
4.542,0.02,-0.47,-2.59,0.71,-0.44,0.46,
4.542,0.02,-0.47,-2.59,0.70,-0.46,0.45,
4.543,0.06,-0.41,-2.23,0.70,-0.46,0.45,
4.543,0.06,-0.41,-2.23,0.69,-0.46,0.44,
4.543,0.06,-0.41,-2.23,0.67,-0.47,0.43,
4.544,0.06,-0.41,-2.23,0.65,-0.47,0.41,
4.544,0.06,-0.41,-2.23,0.65,-0.47,0.40,
4.544,0.06,-0.41,-2.23,0.63,-0.47,0.39,
4.545,0.20,-0.49,-1.91,0.63,-0.47,0.39,
4.545,0.20,-0.49,-1.91,0.62,-0.47,0.38,
4.546,0.20,-0.49,-1.91,0.61,-0.46,0.37,
4.546,0.20,-0.49,-1.91,0.58,-0.44,0.36,
4.546,0.20,-0.49,-1.91,0.58,-0.43,0.35,
4.547,0.20,-0.49,-1.91,0.56,-0.42,0.34,
4.547,0.35,-0.61,-1.70,0.56,-0.42,0.34,
4.548,0.35,-0.61,-1.70,0.54,-0.40,0.33,
4.548,0.35,-0.61,-1.70,0.52,-0.37,0.31,
4.548,0.35,-0.61,-1.70,0.48,-0.33,0.29,
4.549,0.35,-0.61,-1.70,0.47,-0.31,0.29,
4.549,0.35,-0.61,-1.70,0.44,-0.29,0.27,
4.549,0.61,-0.75,-1.80,0.44,-0.29,0.27,
4.55,0.61,-0.75,-1.80,0.41,-0.26,0.25,
4.55,0.61,-0.75,-1.80,0.37,-0.23,0.23,
4.555,0.61,-0.75,-1.80,0.31,-0.20,0.20,
4.556,0.61,-0.75,-1.80,0.29,-0.19,0.19,
4.557,0.61,-0.75,-1.80,0.24,-0.17,0.16,
4.557,0.90,-0.70,-1.98,0.24,-0.17,0.16,
4.558,0.90,-0.70,-1.98,0.19,-0.16,0.14,
4.573,0.90,-0.70,-1.98,0.13,-0.14,0.11,
4.574,0.90,-0.70,-1.98,0.05,-0.12,0.07,
4.574,0.90,-0.70,-1.98,0.02,-0.12,0.05,
4.575,0.90,-0.70,-1.98,-0.04,-0.11,0.02,
4.575,1.06,-0.46,-2.03,-0.04,-0.11,0.02,
4.575,1.06,-0.46,-2.03,-0.10,-0.10,-0.02,
4.576,1.06,-0.46,-2.03,-0.17,-0.09,-0.05,
4.576,1.06,-0.46,-2.03,-0.26,-0.08,-0.11,
4.576,1.06,-0.46,-2.03,-0.29,-0.07,-0.13,
4.576,1.06,-0.46,-2.03,-0.36,-0.07,-0.17,
4.577,1.24,-0.15,-1.82,-0.36,-0.07,-0.17,
4.578,1.24,-0.15,-1.82,-0.43,-0.07,-0.21,
4.579,1.24,-0.15,-1.82,-0.50,-0.06,-0.25,
4.583,1.24,-0.15,-1.82,-0.61,-0.06,-0.32,
4.584,1.24,-0.15,-1.82,-0.64,-0.06,-0.34,
4.586,1.24,-0.15,-1.82,-0.71,-0.06,-0.38,
4.588,1.22,0.03,-1.15,-0.71,-0.06,-0.38,
4.589,1.22,0.03,-1.15,-0.78,-0.06,-0.42,
4.59,1.22,0.03,-1.15,-0.84,-0.06,-0.46,
4.606,1.22,0.03,-1.15,-0.93,-0.04,-0.52,
4.609,1.22,0.03,-1.15,-0.96,-0.04,-0.54,
4.609,1.22,0.03,-1.15,-1.01,-0.03,-0.57,
4.61,1.08,-0.09,-0.04,-1.01,-0.03,-0.57,
4.61,1.08,-0.09,-0.04,-1.06,-0.01,-0.60,
4.611,1.08,-0.09,-0.04,-1.11,0.02,-0.63,
4.611,1.08,-0.09,-0.04,-1.17,0.06,-0.67,
4.611,1.08,-0.09,-0.04,-1.19,0.07,-0.68,
4.612,1.08,-0.09,-0.04,-1.22,0.10,-0.71,
4.624,0.78,-0.55,1.35,-1.22,0.10,-0.71,
4.625,0.78,-0.55,1.35,-1.25,0.14,-0.72,
4.626,0.78,-0.55,1.35,-1.28,0.17,-0.73,
4.627,0.78,-0.55,1.35,-1.31,0.22,-0.74,
4.628,0.78,-0.55,1.35,-1.32,0.24,-0.74,
4.628,0.78,-0.55,1.35,-1.33,0.27,-0.73,
4.629,0.17,-1.10,2.67,-1.33,0.27,-0.73,
4.63,0.17,-1.10,2.67,-1.35,0.30,-0.72,
4.631,0.17,-1.10,2.67,-1.36,0.36,-0.69,
4.631,0.17,-1.10,2.67,-1.36,0.40,-0.66,
4.632,0.17,-1.10,2.67,-1.36,0.42,-0.65,
4.633,0.17,-1.10,2.67,-1.35,0.47,-0.61,
4.633,-0.54,-1.31,3.65,-1.35,0.47,-0.61,
4.636,-0.54,-1.31,3.65,-1.34,0.51,-0.58,
4.637,-0.54,-1.31,3.65,-1.33,0.55,-0.54,
4.637,-0.54,-1.31,3.65,-1.30,0.61,-0.49,
4.637,-0.54,-1.31,3.65,-1.29,0.63,-0.47,
4.638,-0.54,-1.31,3.65,-1.28,0.65,-0.44,
4.638,-0.80,-1.29,4.13,-1.28,0.65,-0.44,
4.638,-0.80,-1.29,4.13,-1.26,0.68,-0.41,
4.65,-0.80,-1.29,4.13,-1.24,0.68,-0.38,
4.652,-0.80,-1.29,4.13,-1.21,0.69,-0.35,
4.653,-0.80,-1.29,4.13,-1.21,0.69,-0.34,
4.654,-0.80,-1.29,4.13,-1.19,0.69,-0.32,
4.691,-0.44,-0.79,4.02,-1.19,0.69,-0.32,
4.691,-0.44,-0.79,4.02,-1.17,0.67,-0.31,
4.692,-0.44,-0.79,4.02,-1.16,0.66,-0.30,
4.692,-0.44,-0.79,4.02,-1.13,0.63,-0.30,
4.693,-0.44,-0.79,4.02,-1.12,0.61,-0.30,
4.693,-0.44,-0.79,4.02,-1.10,0.59,-0.30,
4.694,0.22,-0.21,3.87,-1.10,0.59,-0.30,
4.695,0.22,-0.21,3.87,-1.08,0.56,-0.31,
4.696,0.22,-0.21,3.87,-1.05,0.53,-0.32,
4.697,0.22,-0.21,3.87,-1.02,0.47,-0.35,
4.698,0.22,-0.21,3.87,-1.01,0.45,-0.36,
4.699,0.22,-0.21,3.87,-1.00,0.41,-0.39,
4.7,1.05,0.30,3.53,-1.00,0.41,-0.39,
4.701,1.05,0.30,3.53,-0.98,0.37,-0.42,
4.701,1.05,0.30,3.53,-0.96,0.33,-0.46,
4.702,1.05,0.30,3.53,-0.93,0.27,-0.53,
4.703,1.05,0.30,3.53,-0.92,0.25,-0.56,
4.704,1.05,0.30,3.53,-0.90,0.21,-0.61,
4.705,2.38,0.59,3.42,-0.90,0.21,-0.61,
4.706,2.38,0.59,3.42,-0.87,0.17,-0.67,
4.707,2.38,0.59,3.42,-0.84,0.15,-0.73,
4.708,2.38,0.59,3.42,-0.79,0.12,-0.80,
4.709,2.38,0.59,3.42,-0.77,0.10,-0.82,
4.709,2.38,0.59,3.42,-0.73,0.08,-0.86,
4.71,2.33,0.67,3.75,-0.73,0.08,-0.86,
4.71,2.33,0.67,3.75,-0.69,0.05,-0.90,
4.711,2.33,0.67,3.75,-0.65,0.03,-0.92,
4.712,2.33,0.67,3.75,-0.60,-0.00,-0.96,
4.713,2.33,0.67,3.75,-0.58,-0.01,-0.97,
4.714,2.33,0.67,3.75,-0.54,-0.02,-0.98,
4.714,1.24,0.53,4.02,-0.54,-0.02,-0.98,
4.715,1.24,0.53,4.02,-0.51,-0.02,-0.99,
4.716,1.24,0.53,4.02,-0.47,-0.03,-0.99,
4.716,1.24,0.53,4.02,-0.42,-0.01,-0.97,
4.717,1.24,0.53,4.02,-0.40,0.00,-0.96,
4.718,1.24,0.53,4.02,-0.37,0.03,-0.93,
4.719,0.22,0.28,4.28,-0.37,0.03,-0.93,
4.719,0.22,0.28,4.28,-0.34,0.06,-0.90,
4.72,0.22,0.28,4.28,-0.31,0.09,-0.85,
4.72,0.22,0.28,4.28,-0.28,0.14,-0.79,
4.721,0.22,0.28,4.28,-0.28,0.16,-0.77,
4.721,0.22,0.28,4.28,-0.26,0.19,-0.73,
4.722,-0.43,-0.19,4.14,-0.26,0.19,-0.73,
4.723,-0.43,-0.19,4.14,-0.26,0.22,-0.68,
4.724,-0.43,-0.19,4.14,-0.26,0.25,-0.65,
4.724,-0.43,-0.19,4.14,-0.26,0.28,-0.59,
4.729,-0.43,-0.19,4.14,-0.26,0.29,-0.58,
4.733,-0.43,-0.19,4.14,-0.27,0.30,-0.54,
4.735,-0.53,-0.41,3.74,-0.27,0.30,-0.54,
4.736,-0.53,-0.41,3.74,-0.27,0.32,-0.51,
4.737,-0.53,-0.41,3.74,-0.28,0.34,-0.49,
4.74,-0.53,-0.41,3.74,-0.29,0.35,-0.45,
4.741,-0.53,-0.41,3.74,-0.29,0.36,-0.44,
4.741,-0.53,-0.41,3.74,-0.28,0.37,-0.43,
4.742,-0.38,-0.23,3.65,-0.28,0.37,-0.43,
4.742,-0.38,-0.23,3.65,-0.28,0.39,-0.40,
4.742,-0.38,-0.23,3.65,-0.27,0.40,-0.39,
4.743,-0.38,-0.23,3.65,-0.26,0.42,-0.36,
4.749,-0.38,-0.23,3.65,-0.25,0.43,-0.35,
4.75,-0.38,-0.23,3.65,-0.24,0.44,-0.34,
4.751,-0.05,-0.00,3.59,-0.24,0.44,-0.34,
4.751,-0.05,-0.00,3.59,-0.22,0.46,-0.33,
4.752,-0.05,-0.00,3.59,-0.20,0.48,-0.32,
4.753,-0.05,-0.00,3.59,-0.17,0.51,-0.32,
4.755,-0.05,-0.00,3.59,-0.16,0.52,-0.32,
4.756,-0.05,-0.00,3.59,-0.14,0.55,-0.32,
4.77,0.60,0.13,3.18,-0.14,0.55,-0.32,
4.772,0.60,0.13,3.18,-0.12,0.57,-0.33,
4.773,0.60,0.13,3.18,-0.11,0.59,-0.34,
4.773,0.60,0.13,3.18,-0.08,0.62,-0.36,
4.774,0.60,0.13,3.18,-0.08,0.63,-0.38,
4.775,0.60,0.13,3.18,-0.06,0.64,-0.40,
4.779,1.43,0.22,2.24,-0.06,0.64,-0.40,
4.78,1.43,0.22,2.24,-0.05,0.65,-0.42,
4.781,1.43,0.22,2.24,-0.04,0.65,-0.45,
4.782,1.43,0.22,2.24,-0.03,0.65,-0.50,
4.783,1.43,0.22,2.24,-0.03,0.65,-0.52,
4.808,1.43,0.22,2.24,-0.03,0.64,-0.55,
4.81,2.06,0.29,1.05,-0.03,0.64,-0.55,
4.811,2.06,0.29,1.05,-0.02,0.62,-0.59,
4.812,2.06,0.29,1.05,-0.03,0.60,-0.63,
4.812,2.06,0.29,1.05,-0.03,0.56,-0.68,
4.813,2.06,0.29,1.05,-0.04,0.55,-0.70,
4.814,2.06,0.29,1.05,-0.05,0.51,-0.74,
4.815,1.92,0.29,-0.24,-0.05,0.51,-0.74,
4.815,1.92,0.29,-0.24,-0.06,0.48,-0.77,
4.816,1.92,0.29,-0.24,-0.08,0.45,-0.80,
4.816,1.92,0.29,-0.24,-0.12,0.38,-0.84,
4.816,1.92,0.29,-0.24,-0.13,0.36,-0.85,
4.817,1.92,0.29,-0.24,-0.16,0.31,-0.87,
4.817,1.29,0.29,-1.43,-0.16,0.31,-0.87,
4.818,1.29,0.29,-1.43,-0.20,0.26,-0.89,
4.818,1.29,0.29,-1.43,-0.24,0.21,-0.90,
4.819,1.29,0.29,-1.43,-0.30,0.13,-0.92,
4.819,1.29,0.29,-1.43,-0.32,0.10,-0.92,
4.82,1.29,0.29,-1.43,-0.36,0.05,-0.92,
4.82,0.40,0.18,-2.09,-0.36,0.05,-0.92,
4.82,0.40,0.18,-2.09,-0.41,-0.00,-0.91,
4.821,0.40,0.18,-2.09,-0.45,-0.05,-0.91,
4.821,0.40,0.18,-2.09,-0.50,-0.11,-0.88,
4.857,0.40,0.18,-2.09,-0.52,-0.13,-0.87,
4.857,0.40,0.18,-2.09,-0.55,-0.16,-0.85,
4.858,-0.52,-0.14,-1.91,-0.55,-0.16,-0.85,
4.859,-0.52,-0.14,-1.91,-0.57,-0.19,-0.82,
4.859,-0.52,-0.14,-1.91,-0.59,-0.21,-0.79,
4.86,-0.52,-0.14,-1.91,-0.61,-0.24,-0.73,
4.86,-0.52,-0.14,-1.91,-0.62,-0.25,-0.71,
4.861,-0.52,-0.14,-1.91,-0.62,-0.26,-0.67,
4.861,-1.28,-0.62,-0.98,-0.62,-0.26,-0.67,
4.861,-1.28,-0.62,-0.98,-0.62,-0.26,-0.63,
4.862,-1.28,-0.62,-0.98,-0.61,-0.26,-0.58,
4.863,-1.28,-0.62,-0.98,-0.58,-0.25,-0.51,
4.863,-1.28,-0.62,-0.98,-0.57,-0.24,-0.49,
4.864,-1.28,-0.62,-0.98,-0.55,-0.23,-0.45,
4.864,-1.52,-0.85,0.04,-0.55,-0.23,-0.45,
4.864,-1.52,-0.85,0.04,-0.52,-0.22,-0.40,
4.865,-1.52,-0.85,0.04,-0.48,-0.20,-0.35,
4.865,-1.52,-0.85,0.04,-0.42,-0.18,-0.29,
4.866,-1.52,-0.85,0.04,-0.40,-0.17,-0.26,
4.866,-1.52,-0.85,0.04,-0.36,-0.15,-0.22,
4.867,-1.13,-0.88,0.66,-0.36,-0.15,-0.22,
4.867,-1.13,-0.88,0.66,-0.31,-0.13,-0.18,
4.868,-1.13,-0.88,0.66,-0.26,-0.11,-0.14,
4.868,-1.13,-0.88,0.66,-0.18,-0.08,-0.08,
4.868,-1.13,-0.88,0.66,-0.15,-0.07,-0.06,
4.869,-1.13,-0.88,0.66,-0.10,-0.05,-0.03,
4.869,-0.53,-0.93,0.68,-0.10,-0.05,-0.03,
4.87,-0.53,-0.93,0.68,-0.04,-0.03,0.00,
4.87,-0.53,-0.93,0.68,0.01,-0.01,0.03,
4.871,-0.53,-0.93,0.68,0.09,0.00,0.06,
4.871,-0.53,-0.93,0.68,0.12,0.01,0.07,
4.871,-0.53,-0.93,0.68,0.17,0.01,0.09,
4.872,0.00,-0.79,0.16,0.17,0.01,0.09,
4.872,0.00,-0.79,0.16,0.22,0.02,0.10,
4.874,0.00,-0.79,0.16,0.26,0.02,0.12,
4.876,0.00,-0.79,0.16,0.33,0.03,0.14,
4.877,0.00,-0.79,0.16,0.35,0.04,0.14,
4.878,0.00,-0.79,0.16,0.38,0.04,0.15,
4.878,0.42,-0.54,-0.78,0.38,0.04,0.15,
4.879,0.42,-0.54,-0.78,0.41,0.04,0.16,
4.881,0.42,-0.54,-0.78,0.44,0.04,0.17,
4.884,0.42,-0.54,-0.78,0.48,0.04,0.18,
4.885,0.42,-0.54,-0.78,0.49,0.04,0.18,
4.886,0.42,-0.54,-0.78,0.50,0.04,0.19,
4.888,0.76,-0.34,-1.92,0.50,0.04,0.19,
4.889,0.76,-0.34,-1.92,0.52,0.03,0.19,
4.9,0.76,-0.34,-1.92,0.52,0.02,0.19,
4.903,0.76,-0.34,-1.92,0.53,0.01,0.18,
4.904,0.76,-0.34,-1.92,0.53,0.00,0.18,
4.904,0.76,-0.34,-1.92,0.52,-0.01,0.18,
4.905,1.04,-0.13,-3.03,0.52,-0.01,0.18,
4.905,1.04,-0.13,-3.03,0.51,-0.02,0.17,
4.905,1.04,-0.13,-3.03,0.50,-0.03,0.16,
4.906,1.04,-0.13,-3.03,0.49,-0.06,0.15,
4.906,1.04,-0.13,-3.03,0.48,-0.07,0.15,
4.925,1.17,0.01,-4.02,0.48,-0.07,0.15,
4.929,1.17,0.01,-4.02,0.42,-0.12,0.12,
4.93,1.17,0.01,-4.02,0.42,-0.12,0.12,
4.93,1.17,0.01,-4.02,0.42,-0.12,0.12,
4.93,1.17,0.01,-4.02,0.39,-0.13,0.10,
4.931,1.17,0.01,-4.02,0.38,-0.14,0.10,
4.931,1.17,0.01,-4.02,0.36,-0.14,0.09,
4.931,1.22,0.11,-4.45,0.36,-0.14,0.09,
4.932,1.22,0.11,-4.45,0.34,-0.15,0.08,
4.932,1.22,0.11,-4.45,0.31,-0.16,0.07,
4.932,1.22,0.11,-4.45,0.27,-0.16,0.07,
4.933,1.22,0.11,-4.45,0.26,-0.16,0.07,
4.933,1.22,0.11,-4.45,0.24,-0.17,0.06,
4.933,1.04,0.13,-4.73,0.24,-0.17,0.06,
4.934,1.04,0.13,-4.73,0.22,-0.17,0.06,
4.963,1.04,0.13,-4.73,0.19,-0.17,0.06,
4.965,1.04,0.13,-4.73,0.16,-0.18,0.07,
4.966,1.04,0.13,-4.73,0.15,-0.18,0.07,
4.966,1.04,0.13,-4.73,0.13,-0.18,0.07,
4.967,0.89,0.22,-4.79,0.13,-0.18,0.07,
4.968,0.89,0.22,-4.79,0.11,-0.18,0.08,
4.969,0.89,0.22,-4.79,0.09,-0.19,0.08,
4.97,0.89,0.22,-4.79,0.07,-0.18,0.09,
4.971,0.89,0.22,-4.79,0.06,-0.19,0.10,
4.972,0.89,0.22,-4.79,0.05,-0.19,0.10,
4.972,0.80,0.20,-4.64,0.05,-0.19,0.10,
4.973,0.80,0.20,-4.64,0.04,-0.19,0.11,
4.974,0.80,0.20,-4.64,0.03,-0.19,0.11,
4.975,0.80,0.20,-4.64,0.01,-0.20,0.12,
4.976,0.80,0.20,-4.64,0.01,-0.20,0.13,
4.977,0.80,0.20,-4.64,0.00,-0.21,0.13,
4.978,0.86,0.29,-4.42,0.00,-0.21,0.13,
4.979,0.86,0.29,-4.42,0.00,-0.21,0.13,
4.979,0.86,0.29,-4.42,-0.00,-0.22,0.14,
4.979,0.86,0.29,-4.42,-0.01,-0.24,0.14,
4.98,0.86,0.29,-4.42,-0.01,-0.25,0.14,
4.98,0.86,0.29,-4.42,-0.01,-0.26,0.14,
4.98,0.93,0.33,-4.14,-0.01,-0.26,0.14,
4.981,0.93,0.33,-4.14,-0.02,-0.28,0.14,
4.981,0.93,0.33,-4.14,-0.02,-0.30,0.13,
4.981,0.93,0.33,-4.14,-0.02,-0.32,0.13,
4.982,0.93,0.33,-4.14,-0.02,-0.33,0.12,
4.982,0.93,0.33,-4.14,-0.01,-0.35,0.11,
4.983,1.27,0.59,-3.80,-0.01,-0.35,0.11,
4.983,1.27,0.59,-3.80,-0.01,-0.37,0.10,
5.014,1.27,0.59,-3.80,-0.01,-0.39,0.09,
5.015,1.27,0.59,-3.80,-0.01,-0.42,0.07,
5.016,1.27,0.59,-3.80,-0.02,-0.43,0.07,
5.016,1.27,0.59,-3.80,-0.02,-0.45,0.05,
5.017,1.40,0.72,-3.65,-0.02,-0.45,0.05,
