
time,ax,ay,az,wx,wy,wz,
0.002,0.40,0.17,-0.45,-0.11,-0.22,-0.03,
0.003,0.40,0.17,-0.45,-0.12,-0.22,-0.03,
0.003,0.40,0.17,-0.45,-0.13,-0.23,-0.02,
0.003,0.32,0.36,-0.37,-0.13,-0.23,-0.02,
0.004,0.32,0.36,-0.37,-0.14,-0.23,-0.01,
0.004,0.32,0.36,-0.37,-0.16,-0.23,-0.01,
0.013,0.32,0.36,-0.37,-0.18,-0.24,0.00,
0.013,0.32,0.36,-0.37,-0.19,-0.24,0.01,
0.013,0.32,0.36,-0.37,-0.20,-0.24,0.01,
0.013,0.32,0.46,-0.42,-0.20,-0.24,0.01,
0.014,0.32,0.46,-0.42,-0.21,-0.24,0.02,
0.014,0.32,0.46,-0.42,-0.23,-0.25,0.03,
0.015,0.32,0.46,-0.42,-0.25,-0.26,0.03,
0.046,0.32,0.46,-0.42,-0.26,-0.26,0.03,
0.046,0.32,0.46,-0.42,-0.28,-0.27,0.04,
0.046,0.43,0.49,-0.53,-0.28,-0.27,0.04,
0.047,0.43,0.49,-0.53,-0.29,-0.27,0.04,
0.047,0.43,0.49,-0.53,-0.31,-0.28,0.04,
0.047,0.43,0.49,-0.53,-0.33,-0.30,0.04,
0.047,0.43,0.49,-0.53,-0.34,-0.31,0.04,
0.047,0.43,0.49,-0.53,-0.35,-0.32,0.04,
0.048,0.58,0.49,-0.52,-0.35,-0.32,0.04,
0.048,0.58,0.49,-0.52,-0.37,-0.34,0.04,
0.048,0.58,0.49,-0.52,-0.38,-0.35,0.03,
0.048,0.58,0.49,-0.52,-0.40,-0.37,0.02,
0.048,0.58,0.49,-0.52,-0.41,-0.38,0.02,
0.048,0.58,0.49,-0.52,-0.42,-0.39,0.01,
0.049,0.76,0.40,-0.24,-0.42,-0.39,0.01,
0.049,0.76,0.40,-0.24,-0.43,-0.40,0.01,
0.049,0.76,0.40,-0.24,-0.44,-0.41,-0.00,
0.049,0.76,0.40,-0.24,-0.46,-0.42,-0.01,
0.049,0.76,0.40,-0.24,-0.47,-0.42,-0.02,
0.049,0.76,0.40,-0.24,-0.49,-0.42,-0.03,
0.054,0.78,0.28,-0.11,-0.49,-0.42,-0.03,
0.054,0.78,0.28,-0.11,-0.50,-0.42,-0.04,
0.054,0.78,0.28,-0.11,-0.52,-0.43,-0.05,
0.056,0.78,0.28,-0.11,-0.55,-0.43,-0.06,
0.056,0.78,0.28,-0.11,-0.56,-0.42,-0.06,
0.073,0.78,0.28,-0.11,-0.58,-0.42,-0.06,
0.073,0.90,0.22,-0.02,-0.58,-0.42,-0.06,
0.073,0.90,0.22,-0.02,-0.59,-0.42,-0.06,
0.073,0.90,0.22,-0.02,-0.61,-0.41,-0.07,
0.073,0.90,0.22,-0.02,-0.64,-0.39,-0.07,
0.074,0.90,0.22,-0.02,-0.65,-0.38,-0.07,
0.074,0.90,0.22,-0.02,-0.67,-0.37,-0.07,
0.074,0.91,0.12,-0.08,-0.67,-0.37,-0.07,
0.074,0.91,0.12,-0.08,-0.70,-0.34,-0.07,
0.074,0.91,0.12,-0.08,-0.72,-0.32,-0.07,
0.085,0.91,0.12,-0.08,-0.75,-0.27,-0.07,
0.086,0.91,0.12,-0.08,-0.76,-0.25,-0.07,
0.086,0.91,0.12,-0.08,-0.78,-0.23,-0.07,
0.087,1.17,-0.07,-0.26,-0.78,-0.23,-0.07,
0.087,1.17,-0.07,-0.26,-0.79,-0.21,-0.08,
0.088,1.17,-0.07,-0.26,-0.81,-0.20,-0.08,
0.089,1.17,-0.07,-0.26,-0.83,-0.18,-0.10,
0.089,1.17,-0.07,-0.26,-0.83,-0.17,-0.10,
0.09,1.17,-0.07,-0.26,-0.83,-0.16,-0.11,
0.096,1.58,-0.13,-0.14,-0.83,-0.16,-0.11,
0.096,1.58,-0.13,-0.14,-0.83,-0.16,-0.12,
0.097,1.58,-0.13,-0.14,-0.82,-0.15,-0.14,
0.097,1.58,-0.13,-0.14,-0.79,-0.13,-0.16,
0.098,1.58,-0.13,-0.14,-0.79,-0.13,-0.16,
0.098,1.58,-0.13,-0.14,-0.77,-0.12,-0.18,
0.102,1.83,-0.16,0.03,-0.77,-0.12,-0.18,
0.103,1.83,-0.16,0.03,-0.75,-0.11,-0.20,
0.104,1.83,-0.16,0.03,-0.73,-0.11,-0.22,
0.111,1.83,-0.16,0.03,-0.70,-0.10,-0.26,
0.112,1.83,-0.16,0.03,-0.69,-0.09,-0.27,
0.112,1.83,-0.16,0.03,-0.67,-0.09,-0.29,
0.113,1.86,-0.08,-0.05,-0.67,-0.09,-0.29,
0.113,1.86,-0.08,-0.05,-0.65,-0.10,-0.31,
0.114,1.86,-0.08,-0.05,-0.63,-0.11,-0.34,
0.116,1.86,-0.08,-0.05,-0.60,-0.14,-0.37,
0.117,1.86,-0.08,-0.05,-0.58,-0.15,-0.38,
0.118,1.86,-0.08,-0.05,-0.56,-0.19,-0.41,
0.121,1.94,0.03,0.02,-0.56,-0.19,-0.41,
0.121,1.94,0.03,0.02,-0.54,-0.23,-0.43,
0.123,1.94,0.03,0.02,-0.51,-0.28,-0.45,
0.126,1.94,0.03,0.02,-0.48,-0.34,-0.48,
0.126,1.94,0.03,0.02,-0.47,-0.37,-0.49,
0.128,1.94,0.03,0.02,-0.44,-0.43,-0.51,
0.13,1.79,0.09,0.15,-0.44,-0.43,-0.51,
0.131,1.79,0.09,0.15,-0.42,-0.48,-0.53,
0.133,1.79,0.09,0.15,-0.40,-0.53,-0.55,
0.151,1.79,0.09,0.15,-0.37,-0.62,-0.57,
0.152,1.79,0.09,0.15,-0.36,-0.64,-0.58,
0.152,1.79,0.09,0.15,-0.35,-0.70,-0.60,
0.153,1.66,0.22,0.23,-0.35,-0.70,-0.60,
0.153,1.66,0.22,0.23,-0.33,-0.76,-0.61,
0.154,1.66,0.22,0.23,-0.32,-0.82,-0.62,
0.154,1.66,0.22,0.23,-0.30,-0.91,-0.63,
0.155,1.66,0.22,0.23,-0.30,-0.94,-0.64,
0.155,1.66,0.22,0.23,-0.29,-0.99,-0.65,
0.156,1.43,0.28,0.36,-0.29,-0.99,-0.65,
0.156,1.43,0.28,0.36,-0.28,-1.05,-0.65,
0.157,1.43,0.28,0.36,-0.27,-1.10,-0.66,
0.157,1.43,0.28,0.36,-0.26,-1.17,-0.67,
0.161,1.43,0.28,0.36,-0.26,-1.19,-0.67,
0.161,1.43,0.28,0.36,-0.26,-1.22,-0.67,
0.162,1.32,0.28,0.63,-0.26,-1.22,-0.67,
0.162,1.32,0.28,0.63,-0.25,-1.24,-0.67,
0.162,1.32,0.28,0.63,-0.25,-1.25,-0.67,
0.167,1.32,0.28,0.63,-0.26,-1.25,-0.68,
0.169,1.32,0.28,0.63,-0.26,-1.25,-0.68,
0.169,1.32,0.28,0.63,-0.26,-1.23,-0.68,
0.211,1.33,0.26,0.71,-0.26,-1.23,-0.68,
0.213,1.33,0.26,0.71,-0.27,-1.21,-0.67,
0.214,1.33,0.26,0.71,-0.28,-1.18,-0.67,
0.215,1.33,0.26,0.71,-0.31,-1.13,-0.67,
0.215,1.33,0.26,0.71,-0.31,-1.11,-0.67,
0.215,1.33,0.26,0.71,-0.34,-1.08,-0.67,
0.216,1.44,0.20,0.47,-0.34,-1.08,-0.67,
0.251,1.44,0.20,0.47,-0.36,-1.03,-0.66,
0.251,1.44,0.20,0.47,-0.38,-1.00,-0.66,
0.252,1.44,0.20,0.47,-0.42,-0.93,-0.65,
0.252,1.44,0.20,0.47,-0.43,-0.91,-0.65,
0.253,1.44,0.20,0.47,-0.45,-0.87,-0.64,
0.253,1.42,0.23,0.25,-0.45,-0.87,-0.64,
0.254,1.42,0.23,0.25,-0.47,-0.82,-0.63,
0.254,1.42,0.23,0.25,-0.49,-0.77,-0.62,
0.255,1.42,0.23,0.25,-0.51,-0.69,-0.61,
0.255,1.42,0.23,0.25,-0.52,-0.66,-0.61,
0.255,1.42,0.23,0.25,-0.53,-0.60,-0.60,
0.256,1.23,0.35,0.14,-0.53,-0.60,-0.60,
0.256,1.23,0.35,0.14,-0.54,-0.55,-0.60,
0.256,1.23,0.35,0.14,-0.55,-0.50,-0.59,
0.257,1.23,0.35,0.14,-0.57,-0.43,-0.58,
0.257,1.23,0.35,0.14,-0.57,-0.41,-0.58,
0.258,1.23,0.35,0.14,-0.57,-0.38,-0.57,
0.258,0.84,0.54,0.03,-0.57,-0.38,-0.57,
0.258,0.84,0.54,0.03,-0.58,-0.35,-0.57,
0.259,0.84,0.54,0.03,-0.59,-0.32,-0.56,
0.259,0.84,0.54,0.03,-0.59,-0.29,-0.53,
0.259,0.84,0.54,0.03,-0.60,-0.28,-0.52,
0.26,0.84,0.54,0.03,-0.60,-0.29,-0.49,
0.26,-0.13,0.23,-0.14,-0.60,-0.29,-0.49,
0.26,-0.13,0.23,-0.14,-0.61,-0.31,-0.46,
0.261,-0.13,0.23,-0.14,-0.62,-0.32,-0.44,
0.261,-0.13,0.23,-0.14,-0.62,-0.30,-0.41,
0.261,-0.13,0.23,-0.14,-0.62,-0.28,-0.41,
0.262,-0.13,0.23,-0.14,-0.62,-0.22,-0.39,
0.262,-0.30,0.75,-0.20,-0.62,-0.22,-0.39,
0.262,-0.30,0.75,-0.20,-0.61,-0.16,-0.39,
0.263,-0.30,0.75,-0.20,-0.60,-0.09,-0.38,
0.263,-0.30,0.75,-0.20,-0.58,0.00,-0.37,
0.264,-0.30,0.75,-0.20,-0.57,0.02,-0.37,
0.264,-0.30,0.75,-0.20,-0.55,0.06,-0.37,
0.264,-0.03,1.55,-0.18,-0.55,0.06,-0.37,
0.265,-0.03,1.55,-0.18,-0.53,0.08,-0.36,
0.265,-0.03,1.55,-0.18,-0.52,0.09,-0.35,
0.265,-0.03,1.55,-0.18,-0.49,0.08,-0.34,
0.266,-0.03,1.55,-0.18,-0.48,0.07,-0.34,
0.266,-0.03,1.55,-0.18,-0.46,0.04,-0.33,
0.266,-0.09,1.64,-0.02,-0.46,0.04,-0.33,
0.267,-0.09,1.64,-0.02,-0.44,-0.00,-0.33,
0.267,-0.09,1.64,-0.02,-0.42,-0.05,-0.32,
0.268,-0.09,1.64,-0.02,-0.40,-0.12,-0.30,
0.268,-0.09,1.64,-0.02,-0.38,-0.20,-0.29,
0.268,-0.09,1.64,-0.02,-0.35,-0.30,-0.26,
0.269,-0.09,1.64,-0.02,-0.35,-0.30,-0.26,
0.269,-0.25,1.52,-0.06,-0.35,-0.30,-0.26,
0.269,-0.25,1.52,-0.06,-0.35,-0.30,-0.26,
0.269,-0.25,1.52,-0.06,-0.34,-0.42,-0.24,
0.27,-0.25,1.52,-0.06,-0.33,-0.45,-0.23,
0.27,-0.25,1.52,-0.06,-0.33,-0.47,-0.22,
0.304,-0.19,1.43,-0.23,-0.33,-0.47,-0.22,
0.305,-0.19,1.43,-0.23,-0.33,-0.49,-0.22,
0.305,-0.19,1.43,-0.23,-0.34,-0.52,-0.21,
0.305,-0.19,1.43,-0.23,-0.35,-0.56,-0.20,
0.306,-0.19,1.43,-0.23,-0.35,-0.57,-0.19,
0.306,-0.19,1.43,-0.23,-0.36,-0.58,-0.18,
0.306,-0.19,1.38,-0.57,-0.36,-0.58,-0.18,
0.306,-0.19,1.38,-0.57,-0.38,-0.59,-0.18,
0.306,-0.19,1.38,-0.57,-0.40,-0.60,-0.17,
0.306,-0.19,1.38,-0.57,-0.43,-0.62,-0.16,
0.307,-0.19,1.38,-0.57,-0.44,-0.62,-0.15,
0.307,-0.19,1.38,-0.57,-0.47,-0.63,-0.15,
0.307,-0.26,1.17,-0.92,-0.47,-0.63,-0.15,
0.307,-0.26,1.17,-0.92,-0.49,-0.63,-0.14,
0.307,-0.26,1.17,-0.92,-0.52,-0.63,-0.14,
0.308,-0.26,1.17,-0.92,-0.56,-0.63,-0.13,
0.308,-0.26,1.17,-0.92,-0.57,-0.62,-0.14,
0.308,-0.26,1.17,-0.92,-0.60,-0.61,-0.14,
0.308,-0.37,1.09,-1.28,-0.60,-0.61,-0.14,
0.308,-0.37,1.09,-1.28,-0.62,-0.59,-0.14,
0.308,-0.37,1.09,-1.28,-0.65,-0.57,-0.14,
0.309,-0.37,1.09,-1.28,-0.69,-0.54,-0.14,
0.309,-0.37,1.09,-1.28,-0.70,-0.54,-0.14,
0.309,-0.37,1.09,-1.28,-0.72,-0.52,-0.14,
0.318,-0.62,1.02,-1.50,-0.72,-0.52,-0.14,
0.318,-0.62,1.02,-1.50,-0.75,-0.52,-0.14,
0.319,-0.62,1.02,-1.50,-0.77,-0.51,-0.13,
0.319,-0.62,1.02,-1.50,-0.80,-0.52,-0.13,
0.319,-0.62,1.02,-1.50,-0.81,-0.52,-0.12,
0.319,-0.62,1.02,-1.50,-0.83,-0.54,-0.12,
0.323,-0.98,1.01,-1.44,-0.83,-0.54,-0.12,
0.323,-0.98,1.01,-1.44,-0.85,-0.56,-0.11,
0.323,-0.98,1.01,-1.44,-0.86,-0.59,-0.10,
0.325,-0.98,1.01,-1.44,-0.89,-0.64,-0.09,
0.326,-0.98,1.01,-1.44,-0.89,-0.67,-0.08,
0.328,-0.98,1.01,-1.44,-0.90,-0.71,-0.08,
0.33,-1.07,0.98,-1.12,-0.90,-0.71,-0.08,
0.33,-1.07,0.98,-1.12,-0.91,-0.75,-0.07,
0.332,-1.07,0.98,-1.12,-0.92,-0.80,-0.07,
0.339,-1.07,0.98,-1.12,-0.93,-0.87,-0.06,
0.34,-1.07,0.98,-1.12,-0.93,-0.90,-0.06,
0.34,-1.07,0.98,-1.12,-0.93,-0.95,-0.06,
0.34,-0.85,0.95,-0.84,-0.93,-0.95,-0.06,
0.34,-0.85,0.95,-0.84,-0.93,-1.00,-0.06,
0.342,-0.85,0.95,-0.84,-0.93,-1.04,-0.06,
0.349,-0.85,0.95,-0.84,-0.92,-1.08,-0.06,
0.349,-0.85,0.95,-0.84,-0.91,-1.09,-0.06,
0.37,-0.85,0.95,-0.84,-0.90,-1.09,-0.08,
0.371,-0.18,0.98,-0.20,-0.90,-1.09,-0.08,
0.371,-0.18,0.98,-0.20,-0.88,-1.07,-0.09,
0.371,-0.18,0.98,-0.20,-0.87,-1.05,-0.11,
0.371,-0.18,0.98,-0.20,-0.87,-1.06,-0.18,
0.371,-0.18,0.98,-0.20,-0.88,-1.08,-0.22,
0.372,-0.18,0.98,-0.20,-0.90,-1.10,-0.29,
0.372,1.91,1.12,-0.90,-0.90,-1.10,-0.29,
0.372,1.91,1.12,-0.90,-0.90,-1.09,-0.35,
0.372,1.91,1.12,-0.90,-0.90,-1.06,-0.41,
0.372,1.91,1.12,-0.90,-0.88,-1.01,-0.49,
0.373,1.91,1.12,-0.90,-0.88,-0.99,-0.51,
0.373,1.91,1.12,-0.90,-0.86,-0.94,-0.55,
0.373,1.91,0.79,-0.53,-0.86,-0.94,-0.55,
0.373,1.91,0.79,-0.53,-0.84,-0.89,-0.59,
0.373,1.91,0.79,-0.53,-0.82,-0.85,-0.63,
0.375,1.91,0.79,-0.53,-0.78,-0.79,-0.68,
0.377,1.91,0.79,-0.53,-0.77,-0.77,-0.69,
0.378,1.91,0.79,-0.53,-0.75,-0.73,-0.72,
0.38,1.42,0.45,0.03,-0.75,-0.73,-0.72,
0.38,1.42,0.45,0.03,-0.72,-0.70,-0.74,
0.382,1.42,0.45,0.03,-0.70,-0.67,-0.76,
0.385,1.42,0.45,0.03,-0.67,-0.63,-0.78,
0.386,1.42,0.45,0.03,-0.65,-0.62,-0.78,
0.388,1.42,0.45,0.03,-0.62,-0.58,-0.79,
0.39,0.51,0.21,0.25,-0.62,-0.58,-0.79,
0.39,0.51,0.21,0.25,-0.59,-0.55,-0.79,
0.392,0.51,0.21,0.25,-0.56,-0.52,-0.79,
0.395,0.51,0.21,0.25,-0.52,-0.48,-0.79,
0.396,0.51,0.21,0.25,-0.51,-0.47,-0.79,
0.398,0.51,0.21,0.25,-0.48,-0.45,-0.79,
0.4,-0.25,0.03,0.11,-0.48,-0.45,-0.79,
0.4,-0.25,0.03,0.11,-0.45,-0.43,-0.79,
0.405,-0.25,0.03,0.11,-0.43,-0.41,-0.79,
0.405,-0.25,0.03,0.11,-0.38,-0.39,-0.78,
0.406,-0.25,0.03,0.11,-0.37,-0.38,-0.78,
0.408,-0.25,0.03,0.11,-0.35,-0.37,-0.77,
0.41,-0.51,0.05,-0.07,-0.35,-0.37,-0.77,
0.411,-0.51,0.05,-0.07,-0.32,-0.36,-0.77,
0.412,-0.51,0.05,-0.07,-0.30,-0.36,-0.76,
0.415,-0.51,0.05,-0.07,-0.27,-0.37,-0.75,
0.418,-0.51,0.05,-0.07,-0.26,-0.37,-0.75,
0.435,-0.51,0.05,-0.07,-0.24,-0.39,-0.74,
0.436,-0.64,0.21,-0.30,-0.24,-0.39,-0.74,
0.436,-0.64,0.21,-0.30,-0.23,-0.41,-0.73,
0.436,-0.64,0.21,-0.30,-0.21,-0.43,-0.72,
0.436,-0.64,0.21,-0.30,-0.19,-0.46,-0.72,
0.436,-0.64,0.21,-0.30,-0.18,-0.47,-0.72,
0.436,-0.64,0.21,-0.30,-0.17,-0.50,-0.71,
0.436,-0.64,0.34,-0.49,-0.17,-0.50,-0.71,
0.437,-0.64,0.34,-0.49,-0.17,-0.52,-0.71,
0.437,-0.64,0.34,-0.49,-0.15,-0.53,-0.71,
0.437,-0.64,0.34,-0.49,-0.14,-0.56,-0.70,
0.437,-0.64,0.34,-0.49,-0.14,-0.56,-0.70,
0.447,-0.64,0.34,-0.49,-0.13,-0.57,-0.69,
0.447,-0.58,0.53,-0.55,-0.13,-0.57,-0.69,
0.448,-0.58,0.53,-0.55,-0.12,-0.57,-0.69,
0.448,-0.58,0.53,-0.55,-0.11,-0.57,-0.69,
0.448,-0.58,0.53,-0.55,-0.11,-0.56,-0.68,
0.448,-0.58,0.53,-0.55,-0.11,-0.55,-0.68,
0.449,-0.58,0.53,-0.55,-0.10,-0.54,-0.67,
0.453,-0.63,0.55,-0.63,-0.10,-0.54,-0.67,
0.454,-0.63,0.55,-0.63,-0.10,-0.53,-0.66,
0.455,-0.63,0.55,-0.63,-0.11,-0.52,-0.65,
0.459,-0.63,0.55,-0.63,-0.12,-0.52,-0.62,
0.46,-0.63,0.55,-0.63,-0.12,-0.52,-0.61,
0.46,-0.63,0.55,-0.63,-0.14,-0.53,-0.58,
0.461,-1.20,0.05,-1.05,-0.14,-0.53,-0.58,
0.461,-1.20,0.05,-1.05,-0.16,-0.55,-0.55,
0.463,-1.20,0.05,-1.05,-0.18,-0.56,-0.51,
0.466,-1.20,0.05,-1.05,-0.21,-0.53,-0.47,
0.467,-1.20,0.05,-1.05,-0.22,-0.52,-0.45,
0.474,-1.20,0.05,-1.05,-0.24,-0.49,-0.41,
0.475,-1.49,0.20,-1.20,-0.24,-0.49,-0.41,
0.475,-1.49,0.20,-1.20,-0.26,-0.48,-0.37,
0.476,-1.49,0.20,-1.20,-0.29,-0.47,-0.34,
0.476,-1.49,0.20,-1.20,-0.33,-0.45,-0.28,
0.477,-1.49,0.20,-1.20,-0.34,-0.45,-0.27,
0.479,-1.49,0.20,-1.20,-0.36,-0.43,-0.24,
0.48,-1.72,0.71,-1.19,-0.36,-0.43,-0.24,
0.481,-1.72,0.71,-1.19,-0.39,-0.41,-0.20,
0.482,-1.72,0.71,-1.19,-0.41,-0.39,-0.18,
0.486,-1.72,0.71,-1.19,-0.44,-0.36,-0.14,
0.486,-1.72,0.71,-1.19,-0.45,-0.35,-0.12,
0.488,-1.72,0.71,-1.19,-0.46,-0.32,-0.10,
0.491,-1.51,1.01,-0.87,-0.46,-0.32,-0.10,
0.492,-1.51,1.01,-0.87,-0.48,-0.29,-0.09,
0.492,-1.51,1.01,-0.87,-0.49,-0.26,-0.07,
0.497,-1.51,1.01,-0.87,-0.51,-0.21,-0.06,
0.498,-1.51,1.01,-0.87,-0.51,-0.19,-0.06,
0.498,-1.51,1.01,-0.87,-0.52,-0.17,-0.06,
0.502,-1.11,1.29,-0.38,-0.52,-0.17,-0.06,
0.504,-1.11,1.29,-0.38,-0.52,-0.14,-0.06,
0.506,-1.11,1.29,-0.38,-0.53,-0.11,-0.06,
0.506,-1.11,1.29,-0.38,-0.53,-0.08,-0.07,
0.51,-1.11,1.29,-0.38,-0.53,-0.07,-0.07,
0.511,-1.11,1.29,-0.38,-0.54,-0.05,-0.08,
0.512,-0.68,1.43,0.10,-0.54,-0.05,-0.08,
0.512,-0.68,1.43,0.10,-0.53,-0.02,-0.09,
0.513,-0.68,1.43,0.10,-0.53,0.01,-0.10,
0.541,-0.68,1.43,0.10,-0.53,0.06,-0.12,
0.541,-0.68,1.43,0.10,-0.52,0.08,-0.13,
0.542,-0.68,1.43,0.10,-0.52,0.12,-0.14,
0.542,-0.50,1.57,0.58,-0.52,0.12,-0.14,
0.542,-0.50,1.57,0.58,-0.51,0.16,-0.15,
0.543,-0.50,1.57,0.58,-0.49,0.21,-0.17,
0.543,-0.50,1.57,0.58,-0.47,0.27,-0.19,
0.544,-0.50,1.57,0.58,-0.46,0.31,-0.20,
0.544,-0.50,1.57,0.58,-0.45,0.32,-0.21,
0.545,-0.52,1.54,1.09,-0.45,0.32,-0.21,
0.545,-0.52,1.54,1.09,-0.43,0.36,-0.22,
0.546,-0.52,1.54,1.09,-0.41,0.38,-0.23,
0.546,-0.52,1.54,1.09,-0.39,0.42,-0.25,
0.546,-0.52,1.54,1.09,-0.38,0.43,-0.25,
0.547,-0.52,1.54,1.09,-0.36,0.45,-0.26,
0.547,-0.56,1.44,1.27,-0.36,0.45,-0.26,
0.548,-0.56,1.44,1.27,-0.34,0.46,-0.26,
0.548,-0.56,1.44,1.27,-0.33,0.47,-0.27,
0.549,-0.56,1.44,1.27,-0.32,0.48,-0.27,
0.549,-0.56,1.44,1.27,-0.31,0.49,-0.28,
0.549,-0.56,1.44,1.27,-0.31,0.49,-0.28,
0.556,-0.72,1.30,1.01,-0.31,0.49,-0.28,
0.557,-0.72,1.30,1.01,-0.31,0.49,-0.27,
0.557,-0.72,1.30,1.01,-0.32,0.49,-0.27,
0.557,-0.72,1.30,1.01,-0.33,0.49,-0.26,
0.557,-0.72,1.30,1.01,-0.34,0.48,-0.26,
0.558,-0.72,1.30,1.01,-0.35,0.48,-0.25,
0.56,-1.11,1.19,0.47,-0.35,0.48,-0.25,
0.561,-1.11,1.19,0.47,-0.37,0.48,-0.24,
0.562,-1.11,1.19,0.47,-0.39,0.47,-0.22,
0.565,-1.11,1.19,0.47,-0.41,0.48,-0.20,
0.574,-1.11,1.19,0.47,-0.43,0.48,-0.19,
0.574,-1.11,1.19,0.47,-0.45,0.49,-0.17,
0.574,-1.54,1.10,0.20,-0.45,0.49,-0.17,
0.575,-1.54,1.10,0.20,-0.47,0.51,-0.15,
0.575,-1.54,1.10,0.20,-0.49,0.53,-0.12,
0.575,-1.54,1.10,0.20,-0.51,0.57,-0.09,
0.576,-1.54,1.10,0.20,-0.53,0.59,-0.07,
0.578,-1.54,1.10,0.20,-0.53,0.61,-0.06,
0.581,-1.73,1.03,0.53,-0.53,0.61,-0.06,
0.581,-1.73,1.03,0.53,-0.54,0.63,-0.04,
0.582,-1.73,1.03,0.53,-0.55,0.65,-0.02,
0.61,-1.73,1.03,0.53,-0.55,0.68,0.00,
0.61,-1.73,1.03,0.53,-0.55,0.69,0.01,
0.61,-1.73,1.03,0.53,-0.55,0.70,0.03,
0.611,-1.49,0.90,1.21,-0.55,0.70,0.03,
0.611,-1.49,0.90,1.21,-0.54,0.70,0.04,
0.611,-1.49,0.90,1.21,-0.52,0.70,0.05,
0.611,-1.49,0.90,1.21,-0.49,0.68,0.06,
0.611,-1.49,0.90,1.21,-0.48,0.67,0.06,
0.612,-1.49,0.90,1.21,-0.45,0.65,0.06,
0.612,-0.95,0.84,2.07,-0.45,0.65,0.06,
0.612,-0.95,0.84,2.07,-0.43,0.62,0.06,
0.612,-0.95,0.84,2.07,-0.40,0.59,0.05,
0.612,-0.95,0.84,2.07,-0.36,0.55,0.04,
0.613,-0.95,0.84,2.07,-0.30,0.50,0.03,
0.613,-0.95,0.84,2.07,-0.29,0.49,0.02,
0.613,-0.49,0.91,2.80,-0.29,0.49,0.02,
0.613,-0.49,0.91,2.80,-0.27,0.47,0.02,
0.613,-0.49,0.91,2.80,-0.23,0.45,0.00,
0.616,-0.49,0.91,2.80,-0.18,0.41,-0.01,
0.617,-0.49,0.91,2.80,-0.17,0.39,-0.02,
0.618,-0.49,0.91,2.80,-0.13,0.37,-0.03,
0.62,-0.38,0.91,3.14,-0.13,0.37,-0.03,
0.621,-0.38,0.91,3.14,-0.10,0.35,-0.04,
0.622,-0.38,0.91,3.14,-0.07,0.33,-0.05,
0.625,-0.38,0.91,3.14,-0.02,0.31,-0.05,
0.626,-0.38,0.91,3.14,0.02,0.30,-0.06,
0.628,-0.38,0.91,3.14,0.03,0.29,-0.06,
0.631,-0.42,0.84,3.20,0.03,0.29,-0.06,
0.631,-0.42,0.84,3.20,0.07,0.29,-0.06,
0.632,-0.42,0.84,3.20,0.10,0.29,-0.06,
0.635,-0.42,0.84,3.20,0.15,0.30,-0.06,
0.637,-0.42,0.84,3.20,0.16,0.30,-0.05,
0.638,-0.42,0.84,3.20,0.19,0.31,-0.05,
0.641,-0.58,0.77,2.91,0.19,0.31,-0.05,
0.641,-0.58,0.77,2.91,0.22,0.32,-0.04,
0.642,-0.58,0.77,2.91,0.24,0.33,-0.04,
0.645,-0.58,0.77,2.91,0.26,0.34,-0.02,
0.646,-0.58,0.77,2.91,0.27,0.35,-0.02,
0.649,-0.58,0.77,2.91,0.29,0.36,-0.01,
0.66,-0.73,0.64,2.24,0.29,0.36,-0.01,
0.661,-0.73,0.64,2.24,0.30,0.37,0.00,
0.661,-0.73,0.64,2.24,0.30,0.37,0.01,
0.661,-0.73,0.64,2.24,0.30,0.38,0.03,
0.661,-0.73,0.64,2.24,0.30,0.39,0.04,
0.661,-0.73,0.64,2.24,0.29,0.40,0.05,
0.662,-0.90,0.52,1.49,0.29,0.40,0.05,
0.662,-0.90,0.52,1.49,0.28,0.40,0.06,
0.662,-0.90,0.52,1.49,0.27,0.41,0.07,
0.666,-0.90,0.52,1.49,0.25,0.42,0.09,
0.697,-0.90,0.52,1.49,0.24,0.42,0.09,
0.698,-0.90,0.52,1.49,0.22,0.43,0.10,
0.698,-0.89,0.30,1.08,0.22,0.43,0.10,
0.698,-0.89,0.30,1.08,0.20,0.44,0.11,
0.698,-0.89,0.30,1.08,0.18,0.45,0.12,
0.699,-0.89,0.30,1.08,0.15,0.47,0.14,
0.699,-0.89,0.30,1.08,0.14,0.48,0.14,
0.699,-0.89,0.30,1.08,0.13,0.49,0.15,
0.699,-0.82,0.16,1.01,0.13,0.49,0.15,
0.731,-0.82,0.16,1.01,0.11,0.50,0.16,
0.732,-0.82,0.16,1.01,0.09,0.52,0.17,
0.733,-0.82,0.16,1.01,0.07,0.54,0.18,
0.733,-0.82,0.16,1.01,0.07,0.54,0.19,
0.734,-0.82,0.16,1.01,0.06,0.55,0.19,
0.734,-0.75,0.14,1.22,0.06,0.55,0.19,
0.734,-0.75,0.14,1.22,0.05,0.56,0.20,
0.735,-0.75,0.14,1.22,0.04,0.57,0.21,
0.735,-0.75,0.14,1.22,0.03,0.58,0.22,
0.736,-0.75,0.14,1.22,0.03,0.58,0.23,
0.736,-0.75,0.14,1.22,0.02,0.58,0.23,
0.737,-0.66,0.06,1.41,0.02,0.58,0.23,
0.737,-0.66,0.06,1.41,0.02,0.58,0.24,
0.737,-0.66,0.06,1.41,0.01,0.58,0.24,
0.738,-0.66,0.06,1.41,-0.00,0.57,0.24,
0.738,-0.66,0.06,1.41,-0.01,0.56,0.24,
0.738,-0.66,0.06,1.41,-0.01,0.55,0.24,
0.739,-0.44,-0.21,1.58,-0.01,0.55,0.24,
0.739,-0.44,-0.21,1.58,-0.02,0.53,0.24,
0.739,-0.44,-0.21,1.58,-0.02,0.51,0.24,
0.74,-0.44,-0.21,1.58,-0.01,0.49,0.23,
0.74,-0.44,-0.21,1.58,-0.01,0.48,0.23,
0.741,-0.44,-0.21,1.58,-0.01,0.47,0.23,
0.741,-0.36,-0.44,2.02,-0.01,0.47,0.23,
0.742,-0.36,-0.44,2.02,0.00,0.45,0.23,
0.742,-0.36,-0.44,2.02,0.02,0.44,0.22,
0.742,-0.36,-0.44,2.02,0.04,0.43,0.22,
0.743,-0.36,-0.44,2.02,0.06,0.42,0.22,
0.743,-0.36,-0.44,2.02,0.07,0.42,0.22,
0.743,-0.44,-0.57,2.50,0.07,0.42,0.22,
0.744,-0.44,-0.57,2.50,0.09,0.41,0.22,
0.744,-0.44,-0.57,2.50,0.12,0.40,0.22,
0.745,-0.44,-0.57,2.50,0.15,0.38,0.23,
0.745,-0.44,-0.57,2.50,0.16,0.37,0.23,
0.745,-0.44,-0.57,2.50,0.18,0.36,0.23,
0.746,-0.56,-0.82,2.77,0.18,0.36,0.23,
0.746,-0.56,-0.82,2.77,0.20,0.34,0.24,
0.747,-0.56,-0.82,2.77,0.22,0.32,0.24,
0.747,-0.56,-0.82,2.77,0.25,0.28,0.25,
0.747,-0.56,-0.82,2.77,0.27,0.26,0.26,
0.76,-0.56,-0.82,2.77,0.28,0.25,0.26,
0.76,-0.64,-1.07,2.91,0.28,0.25,0.26,
0.76,-0.64,-1.07,2.91,0.30,0.23,0.27,
0.761,-0.64,-1.07,2.91,0.32,0.22,0.28,
0.761,-0.64,-1.07,2.91,0.35,0.19,0.29,
0.761,-0.64,-1.07,2.91,0.37,0.18,0.30,
0.762,-0.64,-1.07,2.91,0.39,0.17,0.30,
0.762,-0.72,-1.31,3.16,0.39,0.17,0.30,
0.762,-0.72,-1.31,3.16,0.41,0.15,0.31,
0.762,-0.72,-1.31,3.16,0.43,0.14,0.32,
0.767,-0.72,-1.31,3.16,0.47,0.12,0.33,
0.768,-0.72,-1.31,3.16,0.49,0.10,0.34,
0.774,-0.72,-1.31,3.16,0.50,0.09,0.34,
0.774,-0.57,-1.45,3.43,0.50,0.09,0.34,
0.774,-0.57,-1.45,3.43,0.53,0.07,0.35,
0.774,-0.57,-1.45,3.43,0.56,0.04,0.35,
0.777,-0.57,-1.45,3.43,0.60,0.01,0.36,
0.778,-0.57,-1.45,3.43,0.62,-0.01,0.36,
0.778,-0.57,-1.45,3.43,0.64,-0.02,0.36,
0.781,-0.26,-1.59,3.60,0.64,-0.02,0.36,
0.782,-0.26,-1.59,3.60,0.66,-0.04,0.36,
0.79,-0.26,-1.59,3.60,0.69,-0.06,0.36,
0.79,-0.26,-1.59,3.60,0.73,-0.09,0.35,
0.791,-0.26,-1.59,3.60,0.76,-0.11,0.35,
0.791,-0.26,-1.59,3.60,0.77,-0.12,0.35,
0.792,0.06,-1.58,3.54,0.77,-0.12,0.35,
0.795,0.06,-1.58,3.54,0.79,-0.13,0.34,
0.796,0.06,-1.58,3.54,0.81,-0.14,0.34,
0.796,0.06,-1.58,3.54,0.85,-0.16,0.34,
0.797,0.06,-1.58,3.54,0.87,-0.17,0.33,
0.8,0.06,-1.58,3.54,0.88,-0.17,0.33,
0.801,0.23,-1.64,3.22,0.88,-0.17,0.33,
0.801,0.23,-1.64,3.22,0.90,-0.18,0.32,
0.807,0.23,-1.64,3.22,0.92,-0.18,0.32,
0.808,0.23,-1.64,3.22,0.94,-0.19,0.31,
0.809,0.23,-1.64,3.22,0.95,-0.19,0.30,
0.811,0.23,-1.64,3.22,0.96,-0.20,0.30,
0.815,0.50,-1.59,2.74,0.96,-0.20,0.30,
0.816,0.50,-1.59,2.74,0.97,-0.20,0.29,
0.816,0.50,-1.59,2.74,0.98,-0.20,0.29,
0.816,0.50,-1.59,2.74,0.98,-0.21,0.27,
0.825,0.50,-1.59,2.74,0.99,-0.21,0.27,
0.825,0.50,-1.59,2.74,0.99,-0.21,0.26,
0.826,0.68,-1.57,2.19,0.99,-0.21,0.26,
0.826,0.68,-1.57,2.19,0.99,-0.20,0.25,
0.826,0.68,-1.57,2.19,0.98,-0.20,0.25,
0.827,0.68,-1.57,2.19,0.98,-0.19,0.24,
0.827,0.68,-1.57,2.19,0.97,-0.18,0.23,
0.828,0.68,-1.57,2.19,0.97,-0.17,0.22,
0.831,0.73,-1.48,1.55,0.97,-0.17,0.22,
0.831,0.73,-1.48,1.55,0.96,-0.16,0.21,
0.847,0.73,-1.48,1.55,0.95,-0.14,0.20,
0.847,0.73,-1.48,1.55,0.93,-0.11,0.19,
0.848,0.73,-1.48,1.55,0.92,-0.10,0.18,
0.848,0.73,-1.48,1.55,0.91,-0.09,0.18,
0.848,0.66,-1.53,0.91,0.91,-0.09,0.18,
0.849,0.66,-1.53,0.91,0.90,-0.06,0.17,
0.849,0.66,-1.53,0.91,0.88,-0.04,0.16,
0.849,0.66,-1.53,0.91,0.86,-0.01,0.15,
0.849,0.66,-1.53,0.91,0.84,0.01,0.14,
0.876,0.66,-1.53,0.91,0.84,0.03,0.13,
0.877,0.45,-1.51,0.41,0.84,0.03,0.13,
0.877,0.45,-1.51,0.41,0.82,0.06,0.13,
0.878,0.45,-1.51,0.41,0.80,0.08,0.12,
0.878,0.45,-1.51,0.41,0.78,0.12,0.11,
0.879,0.45,-1.51,0.41,0.77,0.15,0.11,
0.879,0.45,-1.51,0.41,0.76,0.16,0.11,
0.879,0.22,-1.50,0.01,0.76,0.16,0.11,
0.88,0.22,-1.50,0.01,0.74,0.19,0.11,
0.88,0.22,-1.50,0.01,0.73,0.22,0.11,
0.881,0.22,-1.50,0.01,0.71,0.26,0.11,
0.881,0.22,-1.50,0.01,0.70,0.29,0.12,
0.881,0.22,-1.50,0.01,0.70,0.30,0.12,
0.882,-0.12,-1.44,-0.27,0.70,0.30,0.12,
0.882,-0.12,-1.44,-0.27,0.68,0.32,0.12,
0.883,-0.12,-1.44,-0.27,0.68,0.35,0.12,
0.883,-0.12,-1.44,-0.27,0.66,0.38,0.12,
0.884,-0.12,-1.44,-0.27,0.65,0.41,0.12,
0.884,-0.12,-1.44,-0.27,0.64,0.42,0.13,
0.884,-0.04,-1.59,-0.61,0.64,0.42,0.13,
0.885,-0.04,-1.59,-0.61,0.63,0.44,0.13,
0.885,-0.04,-1.59,-0.61,0.62,0.46,0.13,
0.885,-0.04,-1.59,-0.61,0.60,0.48,0.14,
0.892,-0.04,-1.59,-0.61,0.58,0.49,0.14,
0.893,-0.04,-1.59,-0.61,0.58,0.50,0.14,
0.893,-0.17,-1.67,-1.13,0.58,0.50,0.14,
0.893,-0.17,-1.67,-1.13,0.56,0.50,0.15,
0.893,-0.17,-1.67,-1.13,0.55,0.51,0.15,
0.895,-0.17,-1.67,-1.13,0.53,0.52,0.16,
0.896,-0.17,-1.67,-1.13,0.51,0.53,0.16,
0.906,-0.17,-1.67,-1.13,0.51,0.53,0.16,
0.906,-0.40,-1.69,-1.53,0.51,0.53,0.16,
0.906,-0.40,-1.69,-1.53,0.49,0.53,0.17,
0.906,-0.40,-1.69,-1.53,0.48,0.53,0.17,
0.907,-0.40,-1.69,-1.53,0.46,0.53,0.18,
0.907,-0.40,-1.69,-1.53,0.45,0.53,0.18,
0.908,-0.40,-1.69,-1.53,0.45,0.52,0.18,
0.911,-0.52,-1.59,-1.83,0.45,0.52,0.18,
0.911,-0.52,-1.59,-1.83,0.44,0.52,0.19,
0.912,-0.52,-1.59,-1.83,0.43,0.51,0.19,
0.915,-0.52,-1.59,-1.83,0.41,0.49,0.19,
0.916,-0.52,-1.59,-1.83,0.41,0.48,0.20,
0.919,-0.52,-1.59,-1.83,0.40,0.48,0.20,
0.92,-0.59,-1.55,-1.98,0.40,0.48,0.20,
0.921,-0.59,-1.55,-1.98,0.40,0.46,0.20,
0.922,-0.59,-1.55,-1.98,0.40,0.45,0.21,
0.925,-0.59,-1.55,-1.98,0.39,0.44,0.21,
0.927,-0.59,-1.55,-1.98,0.39,0.43,0.21,
0.928,-0.59,-1.55,-1.98,0.39,0.42,0.21,
0.931,-0.56,-1.46,-1.95,0.39,0.42,0.21,
0.931,-0.56,-1.46,-1.95,0.39,0.41,0.21,
0.936,-0.56,-1.46,-1.95,0.40,0.40,0.22,
0.937,-0.56,-1.46,-1.95,0.41,0.39,0.22,
0.938,-0.56,-1.46,-1.95,0.42,0.39,0.23,
0.939,-0.56,-1.46,-1.95,0.43,0.39,0.23,
0.94,-0.59,-1.40,-1.85,0.43,0.39,0.23,
0.941,-0.59,-1.40,-1.85,0.43,0.39,0.23,
0.942,-0.59,-1.40,-1.85,0.45,0.38,0.24,
0.945,-0.59,-1.40,-1.85,0.47,0.38,0.25,
0.946,-0.59,-1.40,-1.85,0.48,0.39,0.25,
0.953,-0.59,-1.40,-1.85,0.48,0.39,0.26,
0.953,-0.69,-1.33,-1.90,0.48,0.39,0.26,
0.953,-0.69,-1.33,-1.90,0.49,0.40,0.27,
0.954,-0.69,-1.33,-1.90,0.51,0.40,0.28,
0.955,-0.69,-1.33,-1.90,0.53,0.42,0.29,
0.958,-0.69,-1.33,-1.90,0.55,0.44,0.31,
0.959,-0.69,-1.33,-1.90,0.55,0.45,0.32,
0.961,-0.97,-1.26,-2.15,0.55,0.45,0.32,
0.961,-0.97,-1.26,-2.15,0.57,0.46,0.33,
0.989,-0.97,-1.26,-2.15,0.57,0.47,0.34,
0.99,-0.97,-1.26,-2.15,0.59,0.49,0.35,
0.991,-0.97,-1.26,-2.15,0.60,0.51,0.37,
0.991,-0.97,-1.26,-2.15,0.60,0.52,0.38,
0.991,-0.93,-1.22,-2.43,0.60,0.52,0.38,
0.992,-0.93,-1.22,-2.43,0.61,0.53,0.39,
0.992,-0.93,-1.22,-2.43,0.61,0.55,0.40,
0.993,-0.93,-1.22,-2.43,0.62,0.56,0.42,
0.993,-0.93,-1.22,-2.43,0.63,0.58,0.44,
0.993,-0.93,-1.22,-2.43,0.63,0.58,0.45,
0.994,-1.01,-1.13,-2.75,0.63,0.58,0.45,
0.994,-1.01,-1.13,-2.75,0.63,0.60,0.46,
0.994,-1.01,-1.13,-2.75,0.63,0.61,0.48,
0.995,-1.01,-1.13,-2.75,0.64,0.62,0.50,
0.995,-1.01,-1.13,-2.75,0.63,0.63,0.51,
0.996,-1.01,-1.13,-2.75,0.63,0.64,0.52,
0.996,-0.96,-1.00,-3.02,0.63,0.64,0.52,
0.997,-0.96,-1.00,-3.02,0.63,0.65,0.54,
0.997,-0.96,-1.00,-3.02,0.63,0.66,0.55,
0.998,-0.96,-1.00,-3.02,0.63,0.66,0.57,
0.998,-0.96,-1.00,-3.02,0.62,0.66,0.58,
0.999,-0.96,-1.00,-3.02,0.62,0.67,0.59,
1.006,-0.91,-0.84,-3.23,0.62,0.67,0.59,
1.007,-0.91,-0.84,-3.23,0.62,0.67,0.60,
1.007,-0.91,-0.84,-3.23,0.61,0.67,0.61,
1.007,-0.91,-0.84,-3.23,0.61,0.67,0.61,
1.008,-0.91,-0.84,-3.23,0.61,0.66,0.62,
1.008,-0.91,-0.84,-3.23,0.60,0.65,0.63,
1.01,-0.73,-0.74,-3.27,0.60,0.65,0.63,
1.012,-0.73,-0.74,-3.27,0.60,0.64,0.64,
1.013,-0.73,-0.74,-3.27,0.59,0.63,0.64,
1.034,-0.73,-0.74,-3.27,0.59,0.62,0.65,
1.034,-0.73,-0.74,-3.27,0.58,0.60,0.65,
1.034,-0.73,-0.74,-3.27,0.58,0.59,0.66,
1.034,-0.63,-0.59,-3.24,0.58,0.59,0.66,
1.035,-0.63,-0.59,-3.24,0.57,0.58,0.67,
1.035,-0.63,-0.59,-3.24,0.57,0.56,0.67,
1.035,-0.63,-0.59,-3.24,0.56,0.55,0.68,
1.035,-0.63,-0.59,-3.24,0.56,0.53,0.68,
1.035,-0.63,-0.59,-3.24,0.55,0.52,0.69,
1.036,-0.50,-0.51,-3.17,0.55,0.52,0.69,
1.036,-0.50,-0.51,-3.17,0.55,0.51,0.70,
1.036,-0.50,-0.51,-3.17,0.54,0.50,0.70,
1.036,-0.50,-0.51,-3.17,0.53,0.49,0.71,
1.036,-0.50,-0.51,-3.17,0.53,0.48,0.71,
1.04,-0.50,-0.51,-3.17,0.52,0.47,0.72,
1.041,-0.40,-0.37,-3.05,0.52,0.47,0.72,
1.041,-0.40,-0.37,-3.05,0.52,0.46,0.72,
1.043,-0.40,-0.37,-3.05,0.51,0.45,0.73,
1.045,-0.40,-0.37,-3.05,0.51,0.43,0.73,
1.046,-0.40,-0.37,-3.05,0.50,0.42,0.73,
1.05,-0.40,-0.37,-3.05,0.49,0.41,0.73,
1.051,-0.17,-0.29,-2.86,0.49,0.41,0.73,
1.052,-0.17,-0.29,-2.86,0.49,0.40,0.73,
1.053,-0.17,-0.29,-2.86,0.48,0.39,0.72,
1.055,-0.17,-0.29,-2.86,0.48,0.37,0.72,
1.056,-0.17,-0.29,-2.86,0.47,0.36,0.72,
1.058,-0.17,-0.29,-2.86,0.46,0.36,0.71,
1.06,0.07,-0.15,-2.70,0.46,0.36,0.71,
1.061,0.07,-0.15,-2.70,0.46,0.35,0.70,
1.062,0.07,-0.15,-2.70,0.45,0.34,0.70,
1.07,0.07,-0.15,-2.70,0.44,0.34,0.69,
1.07,0.07,-0.15,-2.70,0.44,0.34,0.68,
1.07,0.07,-0.15,-2.70,0.43,0.33,0.67,
1.071,0.33,-0.07,-2.45,0.43,0.33,0.67,
1.072,0.33,-0.07,-2.45,0.43,0.33,0.66,
1.072,0.33,-0.07,-2.45,0.41,0.33,0.65,
1.075,0.33,-0.07,-2.45,0.41,0.33,0.64,
1.076,0.33,-0.07,-2.45,0.40,0.33,0.62,
1.078,0.33,-0.07,-2.45,0.39,0.33,0.61,
1.1,0.56,0.04,-2.14,0.39,0.33,0.61,
1.1,0.56,0.04,-2.14,0.38,0.33,0.60,
1.1,0.56,0.04,-2.14,0.37,0.33,0.58,
1.101,0.56,0.04,-2.14,0.36,0.33,0.57,
1.101,0.56,0.04,-2.14,0.35,0.32,0.55,
1.101,0.56,0.04,-2.14,0.33,0.32,0.54,
1.101,0.64,0.01,-1.86,0.33,0.32,0.54,
1.102,0.64,0.01,-1.86,0.32,0.31,0.52,
1.102,0.64,0.01,-1.86,0.30,0.31,0.50,
1.102,0.64,0.01,-1.86,0.29,0.30,0.48,
1.102,0.64,0.01,-1.86,0.27,0.30,0.47,
1.102,0.64,0.01,-1.86,0.26,0.29,0.45,
1.103,0.59,-0.06,-1.64,0.26,0.29,0.45,
1.103,0.59,-0.06,-1.64,0.24,0.29,0.43,
1.103,0.59,-0.06,-1.64,0.22,0.29,0.42,
1.105,0.59,-0.06,-1.64,0.20,0.29,0.40,
1.106,0.59,-0.06,-1.64,0.18,0.29,0.39,
1.108,0.59,-0.06,-1.64,0.17,0.29,0.38,
1.11,0.32,-0.12,-1.43,0.17,0.29,0.38,
1.111,0.32,-0.12,-1.43,0.15,0.29,0.37,
1.113,0.32,-0.12,-1.43,0.12,0.30,0.36,
1.115,0.32,-0.12,-1.43,0.09,0.31,0.35,
1.116,0.32,-0.12,-1.43,0.08,0.32,0.35,
1.121,0.32,-0.12,-1.43,0.05,0.33,0.35,
1.121,0.00,-0.20,-1.24,0.05,0.33,0.35,
1.121,0.00,-0.20,-1.24,0.02,0.35,0.35,
1.122,0.00,-0.20,-1.24,-0.00,0.37,0.36,
1.125,0.00,-0.20,-1.24,-0.03,0.40,0.37,
1.126,0.00,-0.20,-1.24,-0.06,0.43,0.39,
1.128,0.00,-0.20,-1.24,-0.10,0.47,0.41,
1.132,-0.47,-0.51,-0.99,-0.10,0.47,0.41,
1.133,-0.47,-0.51,-0.99,-0.13,0.51,0.43,
1.133,-0.47,-0.51,-0.99,-0.17,0.55,0.46,
1.135,-0.47,-0.51,-0.99,-0.21,0.60,0.49,
1.136,-0.47,-0.51,-0.99,-0.25,0.65,0.52,
1.138,-0.47,-0.51,-0.99,-0.29,0.70,0.56,
1.141,-0.92,-0.82,-0.55,-0.29,0.70,0.56,
1.142,-0.92,-0.82,-0.55,-0.33,0.76,0.60,
1.142,-0.92,-0.82,-0.55,-0.37,0.82,0.65,
1.146,-0.92,-0.82,-0.55,-0.41,0.88,0.69,
1.146,-0.92,-0.82,-0.55,-0.45,0.93,0.73,
1.152,-0.92,-0.82,-0.55,-0.50,0.98,0.78,
1.153,-1.06,-0.84,0.17,-0.50,0.98,0.78,
1.153,-1.06,-0.84,0.17,-0.53,1.02,0.82,
1.154,-1.06,-0.84,0.17,-0.57,1.06,0.86,
1.155,-1.06,-0.84,0.17,-0.60,1.10,0.91,
1.156,-1.06,-0.84,0.17,-0.64,1.12,0.95,
1.159,-1.06,-0.84,0.17,-0.67,1.13,0.99,
1.16,-1.21,-0.80,1.02,-0.67,1.13,0.99,
1.161,-1.21,-0.80,1.02,-0.71,1.14,1.03,
1.162,-1.21,-0.80,1.02,-0.73,1.15,1.06,
1.166,-1.21,-0.80,1.02,-0.76,1.15,1.09,
1.168,-1.21,-0.80,1.02,-0.79,1.14,1.12,
1.17,-1.21,-0.80,1.02,-0.81,1.13,1.13,
1.171,-1.00,-0.58,1.97,-0.81,1.13,1.13,
1.172,-1.00,-0.58,1.97,-0.83,1.11,1.15,
1.173,-1.00,-0.58,1.97,-0.84,1.10,1.15,
1.175,-1.00,-0.58,1.97,-0.85,1.09,1.16,
1.176,-1.00,-0.58,1.97,-0.86,1.09,1.16,
1.178,-1.00,-0.58,1.97,-0.86,1.08,1.15,
1.182,-0.40,-0.25,2.93,-0.86,1.08,1.15,
1.213,-0.40,-0.25,2.93,-0.86,1.07,1.14,
1.214,-0.40,-0.25,2.93,-0.85,1.06,1.12,
1.214,-0.40,-0.25,2.93,-0.85,1.04,1.10,
1.215,-0.40,-0.25,2.93,-0.83,1.03,1.08,
1.215,-0.40,-0.25,2.93,-0.82,1.01,1.05,
1.215,0.23,-0.01,3.75,-0.82,1.01,1.05,
1.216,0.23,-0.01,3.75,-0.80,1.00,1.02,
1.216,0.23,-0.01,3.75,-0.77,0.99,0.99,
1.217,0.23,-0.01,3.75,-0.75,0.98,0.96,
1.217,0.23,-0.01,3.75,-0.71,0.98,0.92,
1.218,0.23,-0.01,3.75,-0.67,0.98,0.89,
1.218,0.69,-0.10,4.35,-0.67,0.98,0.89,
1.218,0.69,-0.10,4.35,-0.64,0.98,0.85,
1.219,0.69,-0.10,4.35,-0.59,0.98,0.82,
1.219,0.69,-0.10,4.35,-0.53,0.98,0.77,
1.219,0.69,-0.10,4.35,-0.50,0.97,0.75,
1.22,0.69,-0.10,4.35,-0.46,0.97,0.72,
1.22,0.98,-0.14,4.51,-0.46,0.97,0.72,
1.221,0.98,-0.14,4.51,-0.41,0.96,0.69,
1.221,0.98,-0.14,4.51,-0.37,0.96,0.66,
1.221,0.98,-0.14,4.51,-0.30,0.95,0.61,
1.222,0.98,-0.14,4.51,-0.28,0.95,0.60,
1.222,0.98,-0.14,4.51,-0.24,0.95,0.57,
1.222,1.10,-0.12,4.09,-0.24,0.95,0.57,
1.222,1.10,-0.12,4.09,-0.20,0.94,0.55,
1.223,1.10,-0.12,4.09,-0.17,0.94,0.53,
1.227,1.10,-0.12,4.09,-0.13,0.94,0.50,
1.228,1.10,-0.12,4.09,-0.12,0.93,0.50,
1.228,1.10,-0.12,4.09,-0.10,0.93,0.48,
1.232,0.87,0.00,3.15,-0.10,0.93,0.48,
1.232,0.87,0.00,3.15,-0.08,0.91,0.47,
1.232,0.87,0.00,3.15,-0.07,0.90,0.47,
1.235,0.87,0.00,3.15,-0.07,0.87,0.46,
1.236,0.87,0.00,3.15,-0.07,0.86,0.46,
1.238,0.87,0.00,3.15,-0.07,0.84,0.45,
1.24,0.59,0.12,2.08,-0.07,0.84,0.45,
1.241,0.59,0.12,2.08,-0.08,0.82,0.45,
1.242,0.59,0.12,2.08,-0.09,0.79,0.45,
1.245,0.59,0.12,2.08,-0.11,0.76,0.45,
1.252,0.59,0.12,2.08,-0.11,0.74,0.45,
1.252,0.59,0.12,2.08,-0.13,0.72,0.44,
1.253,0.46,0.26,1.19,-0.13,0.72,0.44,
1.253,0.46,0.26,1.19,-0.16,0.69,0.44,
1.253,0.46,0.26,1.19,-0.18,0.65,0.43,
1.255,0.46,0.26,1.19,-0.23,0.59,0.42,
1.275,0.46,0.26,1.19,-0.31,0.48,0.39,
1.276,0.46,0.26,1.19,-0.31,0.48,0.39,
1.277,0.46,0.26,1.19,-0.31,0.48,0.39,
1.277,0.72,0.38,0.43,-0.31,0.48,0.39,
1.277,0.72,0.38,0.43,-0.35,0.44,0.37,
1.277,0.72,0.38,0.43,-0.41,0.37,0.34,
1.278,0.72,0.38,0.43,-0.43,0.34,0.34,
1.278,0.72,0.38,0.43,-0.48,0.30,0.32,
1.278,0.87,0.48,0.23,-0.48,0.30,0.32,
1.278,0.87,0.48,0.23,-0.52,0.25,0.30,
1.278,0.87,0.48,0.23,-0.56,0.21,0.27,
1.279,0.87,0.48,0.23,-0.63,0.15,0.24,
1.279,0.87,0.48,0.23,-0.65,0.12,0.22,
1.279,0.87,0.48,0.23,-0.69,0.08,0.19,
1.282,1.10,0.68,0.35,-0.69,0.08,0.19,
1.282,1.10,0.68,0.35,-0.74,0.03,0.17,
1.282,1.10,0.68,0.35,-0.78,-0.02,0.14,
1.288,1.10,0.68,0.35,-0.84,-0.09,0.08,
1.289,1.10,0.68,0.35,-0.87,-0.11,0.06,
1.29,1.10,0.68,0.35,-0.91,-0.16,0.03,
1.291,1.38,0.67,0.82,-0.91,-0.16,0.03,
1.291,1.38,0.67,0.82,-0.95,-0.20,-0.01,
1.293,1.38,0.67,0.82,-0.99,-0.24,-0.05,
1.295,1.38,0.67,0.82,-1.04,-0.29,-0.10,
1.3,1.38,0.67,0.82,-1.05,-0.31,-0.12,
1.301,1.38,0.67,0.82,-1.08,-0.34,-0.15,
1.301,1.55,0.54,1.70,-1.08,-0.34,-0.15,
1.301,1.55,0.54,1.70,-1.11,-0.37,-0.18,
1.302,1.55,0.54,1.70,-1.14,-0.39,-0.21,
1.305,1.55,0.54,1.70,-1.16,-0.41,-0.24,
1.308,1.55,0.54,1.70,-1.18,-0.42,-0.26,
1.308,1.55,0.54,1.70,-1.19,-0.42,-0.27,
1.31,1.30,0.32,2.84,-1.19,-0.42,-0.27,
1.31,1.30,0.32,2.84,-1.20,-0.43,-0.29,
1.312,1.30,0.32,2.84,-1.21,-0.43,-0.30,
1.316,1.30,0.32,2.84,-1.21,-0.43,-0.31,
1.316,1.30,0.32,2.84,-1.21,-0.43,-0.31,
1.318,1.30,0.32,2.84,-1.20,-0.42,-0.32,
1.321,1.15,-0.08,3.84,-1.20,-0.42,-0.32,
1.321,1.15,-0.08,3.84,-1.19,-0.41,-0.32,
1.322,1.15,-0.08,3.84,-1.17,-0.39,-0.32,
1.325,1.15,-0.08,3.84,-1.13,-0.36,-0.33,
1.327,1.15,-0.08,3.84,-1.11,-0.34,-0.33,
1.328,1.15,-0.08,3.84,-1.07,-0.30,-0.33,
1.343,1.13,-0.61,5.02,-1.07,-0.30,-0.33,
1.344,1.13,-0.61,5.02,-1.03,-0.26,-0.33,
1.344,1.13,-0.61,5.02,-0.98,-0.21,-0.32,
1.345,1.13,-0.61,5.02,-0.91,-0.14,-0.31,
1.346,1.13,-0.61,5.02,-0.88,-0.12,-0.30,
1.347,1.13,-0.61,5.02,-0.82,-0.08,-0.30,
1.347,0.98,-1.03,5.77,-0.82,-0.08,-0.30,
1.347,0.98,-1.03,5.77,-0.75,-0.05,-0.29,
1.349,0.98,-1.03,5.77,-0.69,-0.01,-0.28,
1.349,0.98,-1.03,5.77,-0.58,0.06,-0.26,
1.351,0.98,-1.03,5.77,-0.54,0.08,-0.25,
1.375,0.98,-1.03,5.77,-0.47,0.12,-0.23,
1.375,0.92,-1.39,6.00,-0.47,0.12,-0.23,
1.376,0.92,-1.39,6.00,-0.39,0.15,-0.22,
1.376,0.92,-1.39,6.00,-0.32,0.19,-0.20,
1.376,0.92,-1.39,6.00,-0.20,0.22,-0.17,
1.376,0.92,-1.39,6.00,-0.16,0.23,-0.16,
1.377,0.92,-1.39,6.00,-0.08,0.25,-0.13,
1.377,0.85,-1.54,5.67,-0.08,0.25,-0.13,
1.377,0.85,-1.54,5.67,-0.01,0.26,-0.11,
1.378,0.85,-1.54,5.67,0.06,0.27,-0.09,
1.378,0.85,-1.54,5.67,0.17,0.27,-0.06,
1.378,0.85,-1.54,5.67,0.20,0.27,-0.04,
1.378,0.85,-1.54,5.67,0.27,0.26,-0.02,
1.379,0.90,-1.54,4.71,0.27,0.26,-0.02,
1.379,0.90,-1.54,4.71,0.33,0.24,-0.00,
1.379,0.90,-1.54,4.71,0.39,0.22,0.02,
1.379,0.90,-1.54,4.71,0.47,0.18,0.05,
1.38,0.90,-1.54,4.71,0.50,0.17,0.06,
1.38,0.90,-1.54,4.71,0.54,0.13,0.08,
1.38,1.10,-1.54,3.50,0.54,0.13,0.08,
1.38,1.10,-1.54,3.50,0.59,0.09,0.11,
1.386,1.10,-1.54,3.50,0.63,0.05,0.12,
1.386,1.10,-1.54,3.50,0.68,-0.02,0.15,
1.386,1.10,-1.54,3.50,0.70,-0.05,0.16,
1.388,1.10,-1.54,3.50,0.73,-0.10,0.18,
1.39,1.38,-1.43,2.23,0.73,-0.10,0.18,
1.39,1.38,-1.43,2.23,0.75,-0.16,0.20,
1.392,1.38,-1.43,2.23,0.77,-0.22,0.21,
1.395,1.38,-1.43,2.23,0.80,-0.32,0.22,
1.398,1.38,-1.43,2.23,0.80,-0.35,0.22,
1.398,1.38,-1.43,2.23,0.81,-0.41,0.23,
1.4,1.94,-1.41,1.18,0.81,-0.41,0.23,
1.401,1.94,-1.41,1.18,0.82,-0.48,0.23,
1.402,1.94,-1.41,1.18,0.83,-0.54,0.23,
1.405,1.94,-1.41,1.18,0.83,-0.62,0.22,
1.406,1.94,-1.41,1.18,0.83,-0.65,0.21,
1.408,1.94,-1.41,1.18,0.83,-0.71,0.20,
1.41,2.58,-1.33,0.41,0.83,-0.71,0.20,
1.41,2.58,-1.33,0.41,0.83,-0.77,0.19,
1.413,2.58,-1.33,0.41,0.83,-0.82,0.18,
1.415,2.58,-1.33,0.41,0.82,-0.90,0.16,
1.416,2.58,-1.33,0.41,0.82,-0.92,0.15,
1.418,2.58,-1.33,0.41,0.82,-0.96,0.14,
1.42,3.05,-1.37,-0.01,0.82,-0.96,0.14,
1.42,3.05,-1.37,-0.01,0.81,-1.00,0.12,
1.422,3.05,-1.37,-0.01,0.81,-1.04,0.10,
1.425,3.05,-1.37,-0.01,0.80,-1.08,0.08,
1.426,3.05,-1.37,-0.01,0.80,-1.10,0.07,
1.428,3.05,-1.37,-0.01,0.79,-1.12,0.05,
1.43,3.29,-1.31,-0.32,0.79,-1.12,0.05,
1.43,3.29,-1.31,-0.32,0.78,-1.14,0.03,
1.433,3.29,-1.31,-0.32,0.77,-1.15,0.01,
1.435,3.29,-1.31,-0.32,0.76,-1.16,-0.03,
1.436,3.29,-1.31,-0.32,0.75,-1.17,-0.04,
1.438,3.29,-1.31,-0.32,0.74,-1.17,-0.07,
1.44,3.67,-1.33,-0.66,0.74,-1.17,-0.07,
1.441,3.67,-1.33,-0.66,0.73,-1.17,-0.10,
1.442,3.67,-1.33,-0.66,0.71,-1.16,-0.13,
1.445,3.67,-1.33,-0.66,0.69,-1.15,-0.17,
1.446,3.67,-1.33,-0.66,0.68,-1.14,-0.19,
1.449,3.67,-1.33,-0.66,0.67,-1.12,-0.22,
1.45,3.74,-1.30,-1.07,0.67,-1.12,-0.22,
1.451,3.74,-1.30,-1.07,0.65,-1.11,-0.25,
1.452,3.74,-1.30,-1.07,0.63,-1.08,-0.28,
1.455,3.74,-1.30,-1.07,0.60,-1.04,-0.33,
1.456,3.74,-1.30,-1.07,0.59,-1.03,-0.35,
1.458,3.74,-1.30,-1.07,0.57,-1.00,-0.38,
1.46,3.77,-1.26,-1.52,0.57,-1.00,-0.38,
1.46,3.77,-1.26,-1.52,0.55,-0.97,-0.41,
1.462,3.77,-1.26,-1.52,0.53,-0.94,-0.44,
1.465,3.77,-1.26,-1.52,0.50,-0.89,-0.49,
1.466,3.77,-1.26,-1.52,0.49,-0.88,-0.51,
1.468,3.77,-1.26,-1.52,0.47,-0.84,-0.55,
1.47,3.54,-1.28,-1.97,0.47,-0.84,-0.55,
1.47,3.54,-1.28,-1.97,0.44,-0.80,-0.58,
1.472,3.54,-1.28,-1.97,0.42,-0.77,-0.61,
1.475,3.54,-1.28,-1.97,0.39,-0.71,-0.66,
1.476,3.54,-1.28,-1.97,0.38,-0.69,-0.67,
1.478,3.54,-1.28,-1.97,0.35,-0.65,-0.71,
1.491,3.38,-1.32,-2.43,0.35,-0.65,-0.71,
1.492,3.38,-1.32,-2.43,0.33,-0.61,-0.74,
1.492,3.38,-1.32,-2.43,0.30,-0.57,-0.76,
1.493,3.38,-1.32,-2.43,0.27,-0.51,-0.80,
1.493,3.38,-1.32,-2.43,0.26,-0.49,-0.82,
1.494,3.38,-1.32,-2.43,0.23,-0.45,-0.84,
1.519,2.84,-1.34,-2.90,0.23,-0.45,-0.84,
1.52,2.84,-1.34,-2.90,0.21,-0.42,-0.86,
1.52,2.84,-1.34,-2.90,0.18,-0.38,-0.88,
1.521,2.84,-1.34,-2.90,0.14,-0.33,-0.91,
1.521,2.84,-1.34,-2.90,0.13,-0.31,-0.92,
1.522,2.84,-1.34,-2.90,0.10,-0.28,-0.94,
1.522,2.35,-1.36,-3.34,0.10,-0.28,-0.94,
1.523,2.35,-1.36,-3.34,0.08,-0.25,-0.96,
1.523,2.35,-1.36,-3.34,0.05,-0.23,-0.97,
1.524,2.35,-1.36,-3.34,0.01,-0.19,-0.99,
1.524,2.35,-1.36,-3.34,-0.00,-0.18,-1.00,
1.524,2.35,-1.36,-3.34,-0.03,-0.15,-1.01,
1.525,1.80,-1.37,-3.67,-0.03,-0.15,-1.01,
1.525,1.80,-1.37,-3.67,-0.06,-0.13,-1.03,
1.525,1.80,-1.37,-3.67,-0.08,-0.12,-1.03,
1.557,1.80,-1.37,-3.67,-0.12,-0.10,-1.05,
1.558,1.80,-1.37,-3.67,-0.13,-0.09,-1.05,
1.558,1.80,-1.37,-3.67,-0.15,-0.07,-1.06,
1.559,1.43,-1.36,-3.84,-0.15,-0.07,-1.06,
1.559,1.43,-1.36,-3.84,-0.17,-0.06,-1.07,
1.559,1.43,-1.36,-3.84,-0.19,-0.06,-1.08,
1.56,1.43,-1.36,-3.84,-0.21,-0.05,-1.08,
1.56,1.43,-1.36,-3.84,-0.22,-0.05,-1.09,
1.561,1.43,-1.36,-3.84,-0.23,-0.05,-1.09,
1.561,1.10,-1.35,-3.78,-0.23,-0.05,-1.09,
1.561,1.10,-1.35,-3.78,-0.24,-0.04,-1.10,
1.562,1.10,-1.35,-3.78,-0.24,-0.05,-1.10,
1.562,1.10,-1.35,-3.78,-0.25,-0.05,-1.10,
1.563,1.10,-1.35,-3.78,-0.25,-0.06,-1.11,
1.563,1.10,-1.35,-3.78,-0.25,-0.07,-1.11,
1.563,0.81,-1.27,-3.60,-0.25,-0.07,-1.11,
1.564,0.81,-1.27,-3.60,-0.24,-0.08,-1.10,
1.564,0.81,-1.27,-3.60,-0.24,-0.09,-1.11,
1.565,0.81,-1.27,-3.60,-0.23,-0.11,-1.10,
1.565,0.81,-1.27,-3.60,-0.23,-0.12,-1.10,
1.565,0.81,-1.27,-3.60,-0.22,-0.14,-1.10,
1.566,0.53,-1.16,-3.46,-0.22,-0.14,-1.10,
1.566,0.53,-1.16,-3.46,-0.21,-0.16,-1.10,
1.567,0.53,-1.16,-3.46,-0.20,-0.19,-1.10,
1.567,0.53,-1.16,-3.46,-0.19,-0.23,-1.09,
1.567,0.53,-1.16,-3.46,-0.18,-0.24,-1.09,
1.568,0.53,-1.16,-3.46,-0.17,-0.27,-1.09,
1.568,0.38,-1.05,-3.34,-0.17,-0.27,-1.09,
1.569,0.38,-1.05,-3.34,-0.16,-0.30,-1.09,
1.569,0.38,-1.05,-3.34,-0.15,-0.32,-1.09,
1.57,0.38,-1.05,-3.34,-0.13,-0.36,-1.08,
1.57,0.38,-1.05,-3.34,-0.13,-0.38,-1.08,
1.57,0.38,-1.05,-3.34,-0.11,-0.40,-1.08,
1.571,0.33,-0.90,-3.18,-0.11,-0.40,-1.08,
1.571,0.33,-0.90,-3.18,-0.10,-0.42,-1.08,
1.583,0.33,-0.90,-3.18,-0.09,-0.44,-1.07,
1.584,0.33,-0.90,-3.18,-0.07,-0.47,-1.07,
1.584,0.33,-0.90,-3.18,-0.07,-0.48,-1.07,
1.584,0.33,-0.90,-3.18,-0.06,-0.49,-1.06,
1.585,0.28,-0.71,-3.08,-0.06,-0.49,-1.06,
1.585,0.28,-0.71,-3.08,-0.05,-0.51,-1.06,
1.585,0.28,-0.71,-3.08,-0.04,-0.52,-1.06,
1.585,0.28,-0.71,-3.08,-0.03,-0.54,-1.06,
1.586,0.28,-0.71,-3.08,-0.03,-0.55,-1.06,
1.59,0.28,-0.71,-3.08,-0.03,-0.56,-1.05,
1.591,0.28,-0.54,-3.15,-0.03,-0.56,-1.05,
1.591,0.28,-0.54,-3.15,-0.03,-0.57,-1.05,
1.597,0.28,-0.54,-3.15,-0.03,-0.58,-1.06,
1.597,0.28,-0.54,-3.15,-0.04,-0.59,-1.05,
1.597,0.28,-0.54,-3.15,-0.04,-0.59,-1.06,
1.603,0.28,-0.54,-3.15,-0.05,-0.59,-1.06,
1.603,0.29,-0.35,-3.26,-0.05,-0.59,-1.06,
1.604,0.29,-0.35,-3.26,-0.06,-0.60,-1.06,
1.604,0.29,-0.35,-3.26,-0.07,-0.61,-1.06,
1.607,0.29,-0.35,-3.26,-0.08,-0.62,-1.06,
1.608,0.29,-0.35,-3.26,-0.09,-0.62,-1.06,
1.609,0.29,-0.35,-3.26,-0.11,-0.62,-1.07,
1.612,0.25,-0.18,-3.32,-0.11,-0.62,-1.07,
1.613,0.25,-0.18,-3.32,-0.12,-0.63,-1.07,
1.613,0.25,-0.18,-3.32,-0.14,-0.63,-1.07,
1.619,0.25,-0.18,-3.32,-0.17,-0.63,-1.07,
1.62,0.25,-0.18,-3.32,-0.18,-0.63,-1.08,
1.62,0.25,-0.18,-3.32,-0.20,-0.63,-1.08,
1.621,0.14,0.01,-3.28,-0.20,-0.63,-1.08,
1.621,0.14,0.01,-3.28,-0.22,-0.62,-1.08,
1.625,0.14,0.01,-3.28,-0.24,-0.61,-1.08,
1.625,0.14,0.01,-3.28,-0.27,-0.60,-1.09,
1.626,0.14,0.01,-3.28,-0.28,-0.59,-1.09,
1.65,0.14,0.01,-3.28,-0.30,-0.58,-1.09,
1.651,0.07,0.04,-3.11,-0.30,-0.58,-1.09,
1.651,0.07,0.04,-3.11,-0.32,-0.57,-1.09,
1.651,0.07,0.04,-3.11,-0.34,-0.55,-1.10,
1.652,0.07,0.04,-3.11,-0.38,-0.53,-1.10,
1.652,0.07,0.04,-3.11,-0.39,-0.53,-1.11,
1.652,0.07,0.04,-3.11,-0.41,-0.51,-1.11,
1.652,0.06,0.16,-2.95,-0.41,-0.51,-1.11,
1.652,0.06,0.16,-2.95,-0.43,-0.50,-1.11,
1.653,0.06,0.16,-2.95,-0.45,-0.49,-1.12,
1.653,0.06,0.16,-2.95,-0.49,-0.47,-1.13,
1.653,0.06,0.16,-2.95,-0.50,-0.47,-1.13,
1.653,0.06,0.16,-2.95,-0.52,-0.45,-1.13,
1.653,-0.02,0.31,-2.67,-0.52,-0.45,-1.13,
1.654,-0.02,0.31,-2.67,-0.54,-0.44,-1.14,
1.654,-0.02,0.31,-2.67,-0.56,-0.43,-1.14,
1.655,-0.02,0.31,-2.67,-0.59,-0.40,-1.16,
1.663,-0.02,0.31,-2.67,-0.61,-0.39,-1.16,
1.664,-0.02,0.31,-2.67,-0.62,-0.38,-1.17,
1.666,-0.07,0.48,-2.19,-0.62,-0.38,-1.17,
1.668,-0.07,0.48,-2.19,-0.63,-0.36,-1.18,
1.669,-0.07,0.48,-2.19,-0.64,-0.33,-1.19,
1.669,-0.07,0.48,-2.19,-0.66,-0.30,-1.20,
1.67,-0.07,0.48,-2.19,-0.66,-0.29,-1.20,
1.67,-0.07,0.48,-2.19,-0.67,-0.27,-1.21,
1.671,-0.23,0.53,-1.67,-0.67,-0.27,-1.21,
1.671,-0.23,0.53,-1.67,-0.67,-0.25,-1.22,
1.689,-0.23,0.53,-1.67,-0.68,-0.23,-1.23,
1.691,-0.23,0.53,-1.67,-0.68,-0.20,-1.23,
1.694,-0.23,0.53,-1.67,-0.68,-0.19,-1.24,
1.694,-0.23,0.53,-1.67,-0.68,-0.17,-1.24,
1.695,-0.63,0.57,-1.16,-0.68,-0.17,-1.24,
1.716,-0.63,0.57,-1.16,-0.68,-0.15,-1.24,
1.716,-0.63,0.57,-1.16,-0.68,-0.14,-1.24,
1.717,-0.63,0.57,-1.16,-0.68,-0.11,-1.23,
1.717,-0.63,0.57,-1.16,-0.67,-0.11,-1.22,
1.717,-0.63,0.57,-1.16,-0.67,-0.10,-1.21,
1.717,-1.18,0.58,-0.78,-0.67,-0.10,-1.21,
1.718,-1.18,0.58,-0.78,-0.68,-0.09,-1.20,
1.718,-1.18,0.58,-0.78,-0.68,-0.08,-1.19,
1.718,-1.18,0.58,-0.78,-0.68,-0.08,-1.17,
1.718,-1.18,0.58,-0.78,-0.68,-0.08,-1.16,
1.719,-1.18,0.58,-0.78,-0.69,-0.09,-1.14,
1.719,-1.72,0.66,-0.56,-0.69,-0.09,-1.14,
1.719,-1.72,0.66,-0.56,-0.70,-0.09,-1.12,
1.72,-1.72,0.66,-0.56,-0.71,-0.10,-1.11,
1.72,-1.72,0.66,-0.56,-0.72,-0.13,-1.08,
1.72,-1.72,0.66,-0.56,-0.73,-0.13,-1.06,
1.72,-1.72,0.66,-0.56,-0.74,-0.16,-1.05,
1.721,-2.01,0.70,-0.16,-0.74,-0.16,-1.05,
1.721,-2.01,0.70,-0.16,-0.74,-0.18,-1.03,
1.721,-2.01,0.70,-0.16,-0.75,-0.20,-1.00,
1.721,-2.01,0.70,-0.16,-0.76,-0.24,-0.98,
1.722,-2.01,0.70,-0.16,-0.76,-0.26,-0.97,
1.722,-2.01,0.70,-0.16,-0.76,-0.29,-0.95,
1.722,-2.26,0.83,0.74,-0.76,-0.29,-0.95,
1.722,-2.26,0.83,0.74,-0.76,-0.32,-0.93,
1.732,-2.26,0.83,0.74,-0.75,-0.35,-0.91,
1.732,-2.26,0.83,0.74,-0.74,-0.39,-0.88,
1.733,-2.26,0.83,0.74,-0.73,-0.41,-0.87,
1.733,-2.26,0.83,0.74,-0.72,-0.43,-0.85,
1.733,-2.39,0.95,1.93,-0.72,-0.43,-0.85,
1.733,-2.39,0.95,1.93,-0.70,-0.45,-0.83,
1.734,-2.39,0.95,1.93,-0.68,-0.47,-0.81,
1.737,-2.39,0.95,1.93,-0.64,-0.49,-0.78,
1.738,-2.39,0.95,1.93,-0.63,-0.50,-0.77,
1.738,-2.39,0.95,1.93,-0.61,-0.51,-0.74,
1.742,-2.60,1.00,3.15,-0.61,-0.51,-0.74,
1.743,-2.60,1.00,3.15,-0.58,-0.52,-0.72,
1.743,-2.60,1.00,3.15,-0.55,-0.52,-0.69,
1.748,-2.60,1.00,3.15,-0.50,-0.51,-0.65,
1.749,-2.60,1.00,3.15,-0.48,-0.51,-0.64,
1.749,-2.60,1.00,3.15,-0.44,-0.49,-0.61,
1.753,-2.74,1.03,4.03,-0.44,-0.49,-0.61,
1.754,-2.74,1.03,4.03,-0.41,-0.48,-0.58,
1.754,-2.74,1.03,4.03,-0.38,-0.46,-0.54,
1.755,-2.74,1.03,4.03,-0.33,-0.42,-0.50,
1.759,-2.74,1.03,4.03,-0.31,-0.41,-0.48,
1.76,-2.74,1.03,4.03,-0.27,-0.38,-0.45,
1.76,-2.84,1.12,4.52,-0.27,-0.38,-0.45,
1.76,-2.84,1.12,4.52,-0.24,-0.35,-0.42,
1.77,-2.84,1.12,4.52,-0.21,-0.31,-0.38,
1.771,-2.84,1.12,4.52,-0.16,-0.26,-0.34,
1.771,-2.84,1.12,4.52,-0.15,-0.24,-0.32,
1.794,-2.84,1.12,4.52,-0.12,-0.21,-0.29,
1.794,-2.66,1.22,4.66,-0.12,-0.21,-0.29,
1.795,-2.66,1.22,4.66,-0.09,-0.17,-0.27,
1.795,-2.66,1.22,4.66,-0.06,-0.13,-0.24,
1.795,-2.66,1.22,4.66,-0.02,-0.08,-0.21,
1.795,-2.66,1.22,4.66,-0.01,-0.06,-0.19,
1.796,-2.66,1.22,4.66,0.02,-0.03,-0.18,
1.796,-2.36,1.36,4.49,0.02,-0.03,-0.18,
1.796,-2.36,1.36,4.49,0.04,-0.01,-0.16,
1.796,-2.36,1.36,4.49,0.06,0.02,-0.14,
1.797,-2.36,1.36,4.49,0.09,0.05,-0.12,
1.797,-2.36,1.36,4.49,0.10,0.06,-0.12,
1.797,-2.36,1.36,4.49,0.11,0.08,-0.11,
1.797,-1.91,1.47,4.12,0.11,0.08,-0.11,
1.798,-1.91,1.47,4.12,0.13,0.10,-0.10,
1.798,-1.91,1.47,4.12,0.14,0.12,-0.09,
1.798,-1.91,1.47,4.12,0.16,0.14,-0.09,
1.807,-1.91,1.47,4.12,0.16,0.15,-0.09,
1.807,-1.91,1.47,4.12,0.17,0.17,-0.08,
1.807,-1.64,1.62,3.76,0.17,0.17,-0.08,
1.808,-1.64,1.62,3.76,0.18,0.18,-0.08,
1.808,-1.64,1.62,3.76,0.19,0.20,-0.07,
1.808,-1.64,1.62,3.76,0.20,0.23,-0.07,
1.812,-1.64,1.62,3.76,0.20,0.25,-0.07,
1.814,-1.64,1.62,3.76,0.21,0.27,-0.06,
1.815,-1.49,1.79,3.46,0.21,0.27,-0.06,
1.817,-1.49,1.79,3.46,0.21,0.30,-0.06,
1.818,-1.49,1.79,3.46,0.22,0.33,-0.06,
1.818,-1.49,1.79,3.46,0.23,0.37,-0.06,
1.818,-1.49,1.79,3.46,0.23,0.38,-0.06,
1.818,-1.49,1.79,3.46,0.23,0.41,-0.06,
1.821,-1.50,1.98,3.13,0.23,0.41,-0.06,
1.821,-1.50,1.98,3.13,0.24,0.44,-0.06,
1.822,-1.50,1.98,3.13,0.24,0.45,-0.06,
1.827,-1.50,1.98,3.13,0.24,0.48,-0.06,
1.828,-1.50,1.98,3.13,0.23,0.49,-0.06,
1.83,-1.50,1.98,3.13,0.23,0.50,-0.06,
1.83,-1.52,1.96,2.63,0.23,0.50,-0.06,
1.83,-1.52,1.96,2.63,0.22,0.50,-0.06,
1.832,-1.52,1.96,2.63,0.21,0.51,-0.06,
1.835,-1.52,1.96,2.63,0.19,0.51,-0.06,
1.836,-1.52,1.96,2.63,0.18,0.51,-0.06,
1.838,-1.52,1.96,2.63,0.17,0.51,-0.06,
1.84,-1.64,1.87,2.13,0.17,0.51,-0.06,
1.84,-1.64,1.87,2.13,0.15,0.51,-0.06,
1.842,-1.64,1.87,2.13,0.13,0.50,-0.06,
1.845,-1.64,1.87,2.13,0.10,0.48,-0.07,
1.849,-1.64,1.87,2.13,0.09,0.48,-0.07,
1.873,-1.64,1.87,2.13,0.07,0.46,-0.07,
1.873,-1.68,1.90,1.90,0.07,0.46,-0.07,
1.874,-1.68,1.90,1.90,0.04,0.45,-0.08,
1.874,-1.68,1.90,1.90,0.02,0.43,-0.09,
1.874,-1.68,1.90,1.90,-0.01,0.39,-0.10,
1.874,-1.68,1.90,1.90,-0.03,0.37,-0.10,
1.875,-1.68,1.90,1.90,-0.05,0.34,-0.11,
1.875,-1.69,1.95,1.91,-0.05,0.34,-0.11,
1.875,-1.69,1.95,1.91,-0.07,0.30,-0.13,
1.875,-1.69,1.95,1.91,-0.09,0.26,-0.14,
1.876,-1.69,1.95,1.91,-0.12,0.18,-0.17,
1.876,-1.69,1.95,1.91,-0.13,0.16,-0.18,
1.876,-1.69,1.95,1.91,-0.15,0.12,-0.20,
1.877,-1.58,1.75,2.39,-0.15,0.12,-0.20,
1.877,-1.58,1.75,2.39,-0.16,0.07,-0.22,
1.877,-1.58,1.75,2.39,-0.17,0.03,-0.23,
1.877,-1.58,1.75,2.39,-0.18,-0.02,-0.26,
1.878,-1.58,1.75,2.39,-0.18,-0.04,-0.27,
1.878,-1.58,1.75,2.39,-0.17,-0.06,-0.28,
1.883,-1.64,1.37,3.31,-0.17,-0.06,-0.28,
1.884,-1.64,1.37,3.31,-0.17,-0.08,-0.29,
1.884,-1.64,1.37,3.31,-0.16,-0.10,-0.30,
1.885,-1.64,1.37,3.31,-0.14,-0.11,-0.32,
1.886,-1.64,1.37,3.31,-0.13,-0.12,-0.32,
1.888,-1.64,1.37,3.31,-0.11,-0.12,-0.32,
1.89,-1.78,0.74,4.27,-0.11,-0.12,-0.32,
1.891,-1.78,0.74,4.27,-0.08,-0.11,-0.32,
1.892,-1.78,0.74,4.27,-0.05,-0.10,-0.32,
1.895,-1.78,0.74,4.27,0.00,-0.08,-0.31,
1.896,-1.78,0.74,4.27,0.02,-0.08,-0.31,
1.898,-1.78,0.74,4.27,0.05,-0.06,-0.30,
1.901,-2.22,0.18,4.90,0.05,-0.06,-0.30,
1.901,-2.22,0.18,4.90,0.09,-0.04,-0.29,
1.902,-2.22,0.18,4.90,0.13,-0.03,-0.27,
1.905,-2.22,0.18,4.90,0.19,-0.00,-0.25,
1.906,-2.22,0.18,4.90,0.21,0.01,-0.24,
1.908,-2.22,0.18,4.90,0.25,0.02,-0.22,
1.916,-2.66,-0.27,5.03,0.25,0.02,-0.22,
1.917,-2.66,-0.27,5.03,0.29,0.04,-0.20,
1.917,-2.66,-0.27,5.03,0.32,0.06,-0.18,
1.917,-2.66,-0.27,5.03,0.38,0.08,-0.15,
1.918,-2.66,-0.27,5.03,0.40,0.08,-0.14,
1.918,-2.66,-0.27,5.03,0.43,0.09,-0.12,
1.921,-3.16,-0.67,4.72,0.43,0.09,-0.12,
1.921,-3.16,-0.67,4.72,0.46,0.11,-0.09,
1.923,-3.16,-0.67,4.72,0.49,0.11,-0.07,
1.926,-3.16,-0.67,4.72,0.53,0.12,-0.03,
1.949,-3.16,-0.67,4.72,0.54,0.12,-0.01,
1.949,-3.16,-0.67,4.72,0.56,0.12,0.02,
1.949,-3.52,-0.86,4.19,0.56,0.12,0.02,
1.949,-3.52,-0.86,4.19,0.58,0.12,0.05,
1.95,-3.52,-0.86,4.19,0.60,0.12,0.08,
1.95,-3.52,-0.86,4.19,0.63,0.10,0.13,
1.95,-3.52,-0.86,4.19,0.64,0.10,0.14,
1.95,-3.52,-0.86,4.19,0.65,0.08,0.18,
1.95,-3.84,-1.03,3.55,0.65,0.08,0.18,
1.95,-3.84,-1.03,3.55,0.66,0.06,0.21,
1.95,-3.84,-1.03,3.55,0.66,0.04,0.25,
1.951,-3.84,-1.03,3.55,0.66,0.00,0.29,
1.951,-3.84,-1.03,3.55,0.66,-0.01,0.31,
1.951,-3.84,-1.03,3.55,0.65,-0.04,0.34,
1.951,-3.76,-1.10,2.89,0.65,-0.04,0.34,
1.951,-3.76,-1.10,2.89,0.64,-0.07,0.37,
1.954,-3.76,-1.10,2.89,0.63,-0.10,0.40,
1.955,-3.76,-1.10,2.89,0.60,-0.14,0.44,
1.958,-3.76,-1.10,2.89,0.60,-0.16,0.45,
1.958,-3.76,-1.10,2.89,0.58,-0.19,0.48,
1.96,-3.27,-1.18,2.46,0.58,-0.19,0.48,
1.961,-3.27,-1.18,2.46,0.55,-0.21,0.50,
1.966,-3.27,-1.18,2.46,0.53,-0.24,0.51,
1.966,-3.27,-1.18,2.46,0.50,-0.28,0.54,
1.966,-3.27,-1.18,2.46,0.49,-0.29,0.54,
1.97,-3.27,-1.18,2.46,0.47,-0.30,0.55,
1.97,-2.43,-1.14,2.37,0.47,-0.30,0.55,
1.971,-2.43,-1.14,2.37,0.45,-0.32,0.56,
1.974,-2.43,-1.14,2.37,0.44,-0.33,0.57,
1.977,-2.43,-1.14,2.37,0.42,-0.34,0.58,
1.978,-2.43,-1.14,2.37,0.42,-0.35,0.58,
1.979,-2.43,-1.14,2.37,0.41,-0.35,0.58,
1.98,-1.65,-1.13,2.52,0.41,-0.35,0.58,
1.981,-1.65,-1.13,2.52,0.40,-0.35,0.58,
1.982,-1.65,-1.13,2.52,0.40,-0.35,0.58,
1.985,-1.65,-1.13,2.52,0.39,-0.34,0.57,
1.986,-1.65,-1.13,2.52,0.39,-0.33,0.57,
1.988,-1.65,-1.13,2.52,0.39,-0.32,0.57,
1.992,-0.92,-1.05,2.45,0.39,-0.32,0.57,
1.992,-0.92,-1.05,2.45,0.38,-0.31,0.56,
1.992,-0.92,-1.05,2.45,0.38,-0.29,0.55,
1.997,-0.92,-1.05,2.45,0.37,-0.26,0.54,
1.997,-0.92,-1.05,2.45,0.36,-0.24,0.53,
2.0,-0.92,-1.05,2.45,0.35,-0.22,0.52,
2.001,-0.30,-1.09,1.99,0.35,-0.22,0.52,
2.001,-0.30,-1.09,1.99,0.34,-0.20,0.51,
2.004,-0.30,-1.09,1.99,0.33,-0.18,0.49,
2.007,-0.30,-1.09,1.99,0.31,-0.14,0.47,
2.008,-0.30,-1.09,1.99,0.29,-0.09,0.45,
2.011,-0.30,-1.09,1.99,0.28,-0.08,0.44,
2.011,0.12,-1.09,1.23,0.28,-0.08,0.44,
2.011,0.12,-1.09,1.23,0.28,-0.06,0.43,
2.013,0.12,-1.09,1.23,0.26,-0.03,0.42,
2.038,0.12,-1.09,1.23,0.24,0.01,0.40,
2.038,0.12,-1.09,1.23,0.23,0.02,0.39,
2.038,0.12,-1.09,1.23,0.21,0.05,0.38,
2.039,0.27,-1.16,0.57,0.21,0.05,0.38,
2.039,0.27,-1.16,0.57,0.19,0.09,0.37,
2.04,0.27,-1.16,0.57,0.18,0.11,0.36,
2.04,0.27,-1.16,0.57,0.15,0.16,0.34,
2.041,0.27,-1.16,0.57,0.14,0.17,0.34,
2.041,0.27,-1.16,0.57,0.13,0.19,0.33,
2.041,0.30,-1.22,-0.14,0.13,0.19,0.33,
2.042,0.30,-1.22,-0.14,0.11,0.22,0.32,
2.042,0.30,-1.22,-0.14,0.10,0.24,0.31,
2.043,0.30,-1.22,-0.14,0.08,0.27,0.30,
2.043,0.30,-1.22,-0.14,0.07,0.28,0.30,
2.043,0.30,-1.22,-0.14,0.06,0.30,0.30,
2.044,0.20,-1.33,-0.72,0.06,0.30,0.30,
2.044,0.20,-1.33,-0.72,0.05,0.31,0.29,
2.045,0.20,-1.33,-0.72,0.04,0.32,0.29,
2.045,0.20,-1.33,-0.72,0.03,0.34,0.30,
2.051,0.20,-1.33,-0.72,0.03,0.34,0.30,
2.052,0.20,-1.33,-0.72,0.03,0.35,0.30,
2.052,0.05,-1.38,-1.23,0.03,0.35,0.30,
2.053,0.05,-1.38,-1.23,0.02,0.35,0.30,
2.053,0.05,-1.38,-1.23,0.02,0.36,0.31,
2.062,0.05,-1.38,-1.23,0.02,0.37,0.32,
2.063,0.05,-1.38,-1.23,0.02,0.38,0.32,
2.063,0.05,-1.38,-1.23,0.02,0.38,0.32,
2.063,-0.03,-1.45,-1.62,0.02,0.38,0.32,
2.063,-0.03,-1.45,-1.62,0.03,0.39,0.33,
2.064,-0.03,-1.45,-1.62,0.03,0.40,0.34,
2.065,-0.03,-1.45,-1.62,0.04,0.41,0.35,
2.068,-0.03,-1.45,-1.62,0.04,0.41,0.36,
2.071,-0.03,-1.45,-1.62,0.05,0.42,0.37,
2.071,-0.11,-1.49,-1.99,0.05,0.42,0.37,
2.071,-0.11,-1.49,-1.99,0.06,0.42,0.38,
2.072,-0.11,-1.49,-1.99,0.07,0.43,0.39,
2.075,-0.11,-1.49,-1.99,0.09,0.43,0.41,
2.091,-0.11,-1.49,-1.99,0.10,0.43,0.42,
2.092,-0.11,-1.49,-1.99,0.11,0.43,0.43,
2.092,-0.22,-1.51,-2.38,0.11,0.43,0.43,
2.092,-0.22,-1.51,-2.38,0.12,0.43,0.45,
2.093,-0.22,-1.51,-2.38,0.13,0.43,0.46,
2.093,-0.22,-1.51,-2.38,0.15,0.43,0.49,
2.093,-0.22,-1.51,-2.38,0.16,0.42,0.50,
2.093,-0.22,-1.51,-2.38,0.17,0.42,0.51,
2.094,-0.25,-1.49,-2.77,0.17,0.42,0.51,
2.094,-0.25,-1.49,-2.77,0.19,0.41,0.53,
2.094,-0.25,-1.49,-2.77,0.20,0.40,0.54,
2.097,-0.25,-1.49,-2.77,0.22,0.39,0.57,
2.097,-0.25,-1.49,-2.77,0.23,0.38,0.57,
2.098,-0.25,-1.49,-2.77,0.24,0.37,0.59,
2.102,-0.22,-1.51,-3.14,0.24,0.37,0.59,
2.102,-0.22,-1.51,-3.14,0.26,0.36,0.60,
2.102,-0.22,-1.51,-3.14,0.27,0.34,0.62,
2.107,-0.22,-1.51,-3.14,0.29,0.32,0.64,
2.108,-0.22,-1.51,-3.14,0.29,0.31,0.64,
2.108,-0.22,-1.51,-3.14,0.30,0.29,0.66,
2.11,-0.15,-1.45,-3.47,0.30,0.29,0.66,
2.111,-0.15,-1.45,-3.47,0.32,0.27,0.67,
2.112,-0.15,-1.45,-3.47,0.33,0.25,0.68,
2.116,-0.15,-1.45,-3.47,0.35,0.22,0.70,
2.116,-0.15,-1.45,-3.47,0.35,0.21,0.71,
2.118,-0.15,-1.45,-3.47,0.36,0.19,0.72,
2.12,-0.13,-1.41,-3.70,0.36,0.19,0.72,
2.121,-0.13,-1.41,-3.70,0.37,0.16,0.74,
2.122,-0.13,-1.41,-3.70,0.38,0.14,0.75,
2.126,-0.13,-1.41,-3.70,0.40,0.11,0.77,
2.128,-0.13,-1.41,-3.70,0.40,0.10,0.77,
2.128,-0.13,-1.41,-3.70,0.41,0.08,0.78,
2.131,-0.01,-1.34,-3.91,0.41,0.08,0.78,
2.133,-0.01,-1.34,-3.91,0.41,0.06,0.80,
2.133,-0.01,-1.34,-3.91,0.42,0.05,0.81,
2.135,-0.01,-1.34,-3.91,0.43,0.03,0.81,
2.137,-0.01,-1.34,-3.91,0.43,0.02,0.82,
2.14,-0.01,-1.34,-3.91,0.44,0.01,0.83,
2.14,0.25,-1.38,-4.00,0.44,0.01,0.83,
2.14,0.25,-1.38,-4.00,0.44,-0.01,0.83,
2.144,0.25,-1.38,-4.00,0.45,-0.02,0.83,
2.148,0.25,-1.38,-4.00,0.45,-0.04,0.83,
2.149,0.25,-1.38,-4.00,0.45,-0.05,0.84,
2.149,0.25,-1.38,-4.00,0.46,-0.06,0.84,
2.15,0.45,-1.32,-4.02,0.46,-0.06,0.84,
2.15,0.45,-1.32,-4.02,0.46,-0.07,0.84,
2.155,0.45,-1.32,-4.02,0.46,-0.08,0.84,
2.155,0.45,-1.32,-4.02,0.47,-0.10,0.84,
2.158,0.45,-1.32,-4.02,0.47,-0.11,0.84,
2.159,0.45,-1.32,-4.02,0.46,-0.11,0.84,
2.168,0.56,-1.22,-3.99,0.46,-0.11,0.84,
2.169,0.56,-1.22,-3.99,0.46,-0.13,0.84,
2.169,0.56,-1.22,-3.99,0.46,-0.13,0.83,
2.17,0.56,-1.22,-3.99,0.46,-0.15,0.83,
2.17,0.56,-1.22,-3.99,0.45,-0.15,0.83,
2.17,0.56,-1.22,-3.99,0.45,-0.16,0.83,
2.171,0.50,-1.20,-3.95,0.45,-0.16,0.83,
2.171,0.50,-1.20,-3.95,0.44,-0.16,0.83,
2.173,0.50,-1.20,-3.95,0.43,-0.17,0.83,
2.2,0.50,-1.20,-3.95,0.43,-0.17,0.82,
2.2,0.50,-1.20,-3.95,0.43,-0.17,0.83,
2.201,0.50,-1.20,-3.95,0.42,-0.18,0.83,
2.201,0.45,-1.23,-3.81,0.42,-0.18,0.83,
2.23,0.45,-1.23,-3.81,0.41,-0.18,0.83,
2.231,0.45,-1.23,-3.81,0.40,-0.18,0.83,
2.231,0.45,-1.23,-3.81,0.39,-0.18,0.83,
2.231,0.45,-1.23,-3.81,0.39,-0.18,0.83,
2.232,0.45,-1.23,-3.81,0.38,-0.18,0.83,
2.232,0.47,-1.25,-3.59,0.38,-0.18,0.83,
2.233,0.47,-1.25,-3.59,0.37,-0.18,0.83,
2.233,0.47,-1.25,-3.59,0.36,-0.18,0.84,
2.233,0.47,-1.25,-3.59,0.35,-0.18,0.83,
2.234,0.47,-1.25,-3.59,0.34,-0.18,0.83,
2.234,0.47,-1.25,-3.59,0.33,-0.18,0.84,
2.235,0.62,-1.24,-3.30,0.33,-0.18,0.84,
2.235,0.62,-1.24,-3.30,0.32,-0.18,0.83,
2.235,0.62,-1.24,-3.30,0.31,-0.18,0.83,
2.236,0.62,-1.24,-3.30,0.30,-0.18,0.82,
2.236,0.62,-1.24,-3.30,0.29,-0.18,0.82,
2.237,0.62,-1.24,-3.30,0.29,-0.18,0.81,
2.237,0.84,-1.20,-2.87,0.29,-0.18,0.81,
2.237,0.84,-1.20,-2.87,0.28,-0.19,0.80,
2.238,0.84,-1.20,-2.87,0.28,-0.19,0.79,
2.238,0.84,-1.20,-2.87,0.27,-0.19,0.76,
2.239,0.84,-1.20,-2.87,0.27,-0.19,0.76,
2.239,0.84,-1.20,-2.87,0.27,-0.19,0.74,
2.239,1.05,-1.09,-2.32,0.27,-0.19,0.74,
2.24,1.05,-1.09,-2.32,0.27,-0.19,0.73,
2.24,1.05,-1.09,-2.32,0.27,-0.19,0.71,
2.241,1.05,-1.09,-2.32,0.27,-0.18,0.68,
2.241,1.05,-1.09,-2.32,0.27,-0.18,0.67,
2.241,1.05,-1.09,-2.32,0.28,-0.18,0.66,
2.242,1.13,-0.98,-1.76,0.28,-0.18,0.66,
2.242,1.13,-0.98,-1.76,0.28,-0.17,0.64,
2.243,1.13,-0.98,-1.76,0.28,-0.17,0.62,
2.243,1.13,-0.98,-1.76,0.29,-0.17,0.59,
2.243,1.13,-0.98,-1.76,0.29,-0.17,0.58,
2.244,1.13,-0.98,-1.76,0.30,-0.17,0.57,
2.244,1.16,-1.00,-1.30,0.30,-0.17,0.57,
2.245,1.16,-1.00,-1.30,0.30,-0.17,0.55,
2.245,1.16,-1.00,-1.30,0.31,-0.17,0.53,
2.245,1.16,-1.00,-1.30,0.32,-0.17,0.51,
2.258,1.16,-1.00,-1.30,0.32,-0.17,0.50,
2.259,1.16,-1.00,-1.30,0.33,-0.16,0.49,
2.259,0.84,-1.05,-0.91,0.33,-0.16,0.49,
2.259,0.84,-1.05,-0.91,0.34,-0.16,0.49,
2.259,0.84,-1.05,-0.91,0.35,-0.16,0.48,
2.259,0.84,-1.05,-0.91,0.36,-0.15,0.47,
2.264,0.84,-1.05,-0.91,0.39,-0.13,0.47,
2.264,0.84,-1.05,-0.91,0.39,-0.13,0.47,
2.264,0.84,-1.05,-0.91,0.39,-0.13,0.47,
2.265,0.42,-1.11,-0.46,0.39,-0.13,0.47,
2.265,0.42,-1.11,-0.46,0.41,-0.12,0.47,
2.265,0.42,-1.11,-0.46,0.42,-0.11,0.48,
2.267,0.42,-1.11,-0.46,0.43,-0.11,0.48,
2.268,0.42,-1.11,-0.46,0.44,-0.10,0.48,
2.27,0.27,-1.17,-0.17,0.44,-0.10,0.48,
2.271,0.27,-1.17,-0.17,0.45,-0.09,0.48,
2.272,0.27,-1.17,-0.17,0.47,-0.08,0.49,
2.276,0.27,-1.17,-0.17,0.48,-0.06,0.50,
2.277,0.27,-1.17,-0.17,0.49,-0.05,0.50,
2.278,0.27,-1.17,-0.17,0.50,-0.03,0.50,
2.281,0.21,-1.26,0.25,0.50,-0.03,0.50,
2.281,0.21,-1.26,0.25,0.51,-0.02,0.50,
2.282,0.21,-1.26,0.25,0.52,0.00,0.50,
2.285,0.21,-1.26,0.25,0.54,0.03,0.51,
2.286,0.21,-1.26,0.25,0.55,0.04,0.51,
2.288,0.21,-1.26,0.25,0.55,0.06,0.52,
2.29,0.15,-1.20,0.58,0.55,0.06,0.52,
2.29,0.15,-1.20,0.58,0.56,0.07,0.52,
2.294,0.15,-1.20,0.58,0.57,0.08,0.52,
2.295,0.15,-1.20,0.58,0.57,0.09,0.53,
2.296,0.15,-1.20,0.58,0.57,0.09,0.53,
2.298,0.15,-1.20,0.58,0.57,0.09,0.53,
2.3,0.21,-1.22,0.71,0.57,0.09,0.53,
2.301,0.21,-1.22,0.71,0.56,0.09,0.53,
2.302,0.21,-1.22,0.71,0.56,0.09,0.53,
2.306,0.21,-1.22,0.71,0.55,0.08,0.53,
2.307,0.21,-1.22,0.71,0.54,0.08,0.53,
2.327,0.21,-1.22,0.71,0.53,0.07,0.53,
2.328,0.40,-1.08,0.81,0.53,0.07,0.53,
2.328,0.40,-1.08,0.81,0.52,0.07,0.53,
2.328,0.40,-1.08,0.81,0.51,0.06,0.52,
2.328,0.40,-1.08,0.81,0.49,0.06,0.51,
2.328,0.40,-1.08,0.81,0.48,0.06,0.51,
2.329,0.40,-1.08,0.81,0.47,0.06,0.50,
2.329,0.72,-0.86,1.04,0.47,0.06,0.50,
2.329,0.72,-0.86,1.04,0.45,0.06,0.49,
2.329,0.72,-0.86,1.04,0.44,0.06,0.47,
2.329,0.72,-0.86,1.04,0.42,0.07,0.45,
2.329,0.72,-0.86,1.04,0.42,0.07,0.44,
2.33,0.72,-0.86,1.04,0.40,0.07,0.42,
2.364,1.00,-0.62,1.19,0.40,0.07,0.42,
2.365,1.00,-0.62,1.19,0.38,0.08,0.41,
2.365,1.00,-0.62,1.19,0.37,0.09,0.39,
2.365,1.00,-0.62,1.19,0.34,0.11,0.36,
2.365,1.00,-0.62,1.19,0.33,0.12,0.35,
2.365,1.00,-0.62,1.19,0.31,0.13,0.33,
2.366,1.12,-0.40,1.15,0.31,0.13,0.33,
2.366,1.12,-0.40,1.15,0.29,0.15,0.32,
2.366,1.12,-0.40,1.15,0.27,0.17,0.30,
2.366,1.12,-0.40,1.15,0.23,0.21,0.28,
2.366,1.12,-0.40,1.15,0.22,0.23,0.28,
2.389,1.12,-0.40,1.15,0.19,0.26,0.27,
2.389,1.04,-0.11,0.96,0.19,0.26,0.27,
2.389,1.04,-0.11,0.96,0.16,0.29,0.25,
2.389,1.04,-0.11,0.96,0.13,0.33,0.24,
2.39,1.04,-0.11,0.96,0.07,0.38,0.23,
2.39,1.04,-0.11,0.96,0.02,0.44,0.22,
2.39,1.04,-0.11,0.96,-0.00,0.45,0.21,
2.39,1.10,0.03,0.51,-0.00,0.45,0.21,
2.391,1.10,0.03,0.51,-0.03,0.47,0.21,
2.391,1.10,0.03,0.51,-0.07,0.50,0.19,
2.391,1.10,0.03,0.51,-0.15,0.55,0.17,
2.392,1.10,0.03,0.51,-0.18,0.56,0.16,
2.392,1.10,0.03,0.51,-0.24,0.59,0.14,
2.392,1.34,0.05,-0.00,-0.24,0.59,0.14,
2.392,1.34,0.05,-0.00,-0.29,0.63,0.12,
2.393,1.34,0.05,-0.00,-0.35,0.66,0.10,
2.393,1.34,0.05,-0.00,-0.45,0.70,0.07,
2.393,1.34,0.05,-0.00,-0.48,0.72,0.06,
2.393,1.34,0.05,-0.00,-0.54,0.74,0.03,
2.394,1.61,0.34,-0.43,-0.54,0.74,0.03,
2.394,1.61,0.34,-0.43,-0.61,0.77,0.00,
2.394,1.61,0.34,-0.43,-0.68,0.78,-0.03,
2.395,1.61,0.34,-0.43,-0.79,0.80,-0.09,
2.395,1.61,0.34,-0.43,-0.82,0.80,-0.11,
2.395,1.61,0.34,-0.43,-0.90,0.80,-0.16,
2.395,1.90,0.66,-0.64,-0.90,0.80,-0.16,
2.396,1.90,0.66,-0.64,-0.97,0.79,-0.20,
2.396,1.90,0.66,-0.64,-1.05,0.78,-0.25,
2.396,1.90,0.66,-0.64,-1.16,0.74,-0.33,
2.396,1.90,0.66,-0.64,-1.19,0.72,-0.36,
2.408,1.90,0.66,-0.64,-1.26,0.69,-0.42,
2.409,2.16,0.91,-0.45,-1.26,0.69,-0.42,
2.409,2.16,0.91,-0.45,-1.33,0.65,-0.48,
2.41,2.16,0.91,-0.45,-1.39,0.61,-0.54,
2.41,2.16,0.91,-0.45,-1.48,0.55,-0.62,
2.41,2.16,0.91,-0.45,-1.51,0.53,-0.65,
2.41,2.16,0.91,-0.45,-1.56,0.48,-0.71,
2.411,2.08,0.92,0.53,-1.56,0.48,-0.71,
2.411,2.08,0.92,0.53,-1.61,0.45,-0.76,
2.412,2.08,0.92,0.53,-1.65,0.41,-0.81,
2.422,2.08,0.92,0.53,-1.69,0.36,-0.89,
2.423,2.08,0.92,0.53,-1.71,0.34,-0.91,
2.423,2.08,0.92,0.53,-1.73,0.31,-0.95,
2.423,1.72,0.68,1.94,-1.73,0.31,-0.95,
2.424,1.72,0.68,1.94,-1.75,0.29,-0.99,
2.424,1.72,0.68,1.94,-1.76,0.26,-1.03,
2.425,1.72,0.68,1.94,-1.77,0.23,-1.07,
2.44,1.72,0.68,1.94,-1.76,0.23,-1.09,
2.441,1.72,0.68,1.94,-1.76,0.22,-1.10,
2.441,0.94,0.27,3.42,-1.76,0.22,-1.10,
2.441,0.94,0.27,3.42,-1.75,0.20,-1.12,
2.442,0.94,0.27,3.42,-1.73,0.19,-1.12,
2.442,0.94,0.27,3.42,-1.70,0.18,-1.13,
2.442,0.94,0.27,3.42,-1.68,0.17,-1.12,
2.442,0.94,0.27,3.42,-1.65,0.17,-1.12,
2.443,0.08,-0.29,4.75,-1.65,0.17,-1.12,
2.443,0.08,-0.29,4.75,-1.61,0.17,-1.11,
2.444,0.08,-0.29,4.75,-1.58,0.17,-1.09,
2.445,0.08,-0.29,4.75,-1.51,0.17,-1.06,
2.447,0.08,-0.29,4.75,-1.48,0.17,-1.04,
2.448,0.08,-0.29,4.75,-1.44,0.18,-1.01,
2.453,-0.95,-0.70,5.68,-1.44,0.18,-1.01,
2.454,-0.95,-0.70,5.68,-1.38,0.18,-0.98,
2.454,-0.95,-0.70,5.68,-1.33,0.19,-0.94,
2.457,-0.95,-0.70,5.68,-1.24,0.21,-0.87,
2.458,-0.95,-0.70,5.68,-1.21,0.21,-0.85,
2.471,-0.95,-0.70,5.68,-1.14,0.23,-0.80,
2.471,-1.77,-1.13,6.32,-1.14,0.23,-0.80,
2.471,-1.77,-1.13,6.32,-1.07,0.24,-0.74,
2.472,-1.77,-1.13,6.32,-1.00,0.26,-0.68,
2.472,-1.77,-1.13,6.32,-0.90,0.28,-0.58,
2.472,-1.77,-1.13,6.32,-0.86,0.29,-0.55,
2.473,-1.77,-1.13,6.32,-0.78,0.30,-0.48,
2.473,-2.31,-1.33,6.37,-0.78,0.30,-0.48,
2.473,-2.31,-1.33,6.37,-0.71,0.31,-0.41,
2.473,-2.31,-1.33,6.37,-0.63,0.32,-0.34,
2.482,-2.31,-1.33,6.37,-0.52,0.32,-0.23,
2.483,-2.31,-1.33,6.37,-0.48,0.32,-0.19,
2.483,-2.31,-1.33,6.37,-0.41,0.32,-0.12,
2.483,-2.41,-1.31,5.87,-0.41,0.32,-0.12,
2.483,-2.41,-1.31,5.87,-0.34,0.31,-0.05,
2.483,-2.41,-1.31,5.87,-0.27,0.30,0.01,
2.485,-2.41,-1.31,5.87,-0.17,0.27,0.11,
2.486,-2.41,-1.31,5.87,-0.14,0.26,0.13,
2.489,-2.41,-1.31,5.87,-0.09,0.23,0.19,
2.491,-1.84,-1.04,4.73,-0.09,0.23,0.19,
2.491,-1.84,-1.04,4.73,-0.03,0.20,0.24,
2.492,-1.84,-1.04,4.73,0.02,0.17,0.28,
2.495,-1.84,-1.04,4.73,0.08,0.11,0.34,
2.496,-1.84,-1.04,4.73,0.10,0.09,0.36,
2.498,-1.84,-1.04,4.73,0.13,0.05,0.39,
2.501,-0.94,-0.75,3.23,0.13,0.05,0.39,
2.501,-0.94,-0.75,3.23,0.16,0.00,0.42,
2.502,-0.94,-0.75,3.23,0.19,-0.04,0.44,
2.505,-0.94,-0.75,3.23,0.22,-0.12,0.47,
2.506,-0.94,-0.75,3.23,0.23,-0.14,0.48,
2.509,-0.94,-0.75,3.23,0.24,-0.19,0.49,
2.511,-0.02,-0.41,1.77,0.24,-0.19,0.49,
2.512,-0.02,-0.41,1.77,0.25,-0.25,0.50,
2.512,-0.02,-0.41,1.77,0.26,-0.30,0.51,
2.532,-0.02,-0.41,1.77,0.26,-0.37,0.52,
2.532,-0.02,-0.41,1.77,0.26,-0.40,0.52,
2.532,-0.02,-0.41,1.77,0.25,-0.45,0.51,
2.533,0.83,-0.12,0.49,0.25,-0.45,0.51,
2.533,0.83,-0.12,0.49,0.25,-0.50,0.51,
2.533,0.83,-0.12,0.49,0.23,-0.54,0.50,
2.534,0.83,-0.12,0.49,0.21,-0.61,0.49,
2.534,0.83,-0.12,0.49,0.20,-0.63,0.48,
2.534,0.83,-0.12,0.49,0.18,-0.66,0.46,
2.534,1.51,0.08,-0.53,0.18,-0.66,0.46,
2.535,1.51,0.08,-0.53,0.16,-0.70,0.45,
2.535,1.51,0.08,-0.53,0.13,-0.73,0.43,
2.535,1.51,0.08,-0.53,0.09,-0.76,0.40,
2.54,1.51,0.08,-0.53,0.08,-0.77,0.39,
2.541,1.51,0.08,-0.53,0.04,-0.79,0.36,
2.541,2.09,0.23,-1.34,0.04,-0.79,0.36,
2.541,2.09,0.23,-1.34,0.01,-0.81,0.34,
2.542,2.09,0.23,-1.34,-0.02,-0.82,0.32,
2.548,2.09,0.23,-1.34,-0.07,-0.83,0.28,
2.548,2.09,0.23,-1.34,-0.09,-0.83,0.27,
2.549,2.09,0.23,-1.34,-0.12,-0.84,0.24,
2.552,2.34,0.31,-1.94,-0.12,-0.84,0.24,
2.553,2.34,0.31,-1.94,-0.16,-0.84,0.21,
2.553,2.34,0.31,-1.94,-0.19,-0.84,0.19,
2.559,2.34,0.31,-1.94,-0.25,-0.83,0.15,
2.56,2.34,0.31,-1.94,-0.27,-0.83,0.13,
2.56,2.34,0.31,-1.94,-0.30,-0.83,0.11,
2.56,2.41,0.38,-2.31,-0.30,-0.83,0.11,
2.56,2.41,0.38,-2.31,-0.34,-0.83,0.08,
2.565,2.41,0.38,-2.31,-0.37,-0.83,0.06,
2.566,2.41,0.38,-2.31,-0.41,-0.82,0.02,
2.566,2.41,0.38,-2.31,-0.43,-0.81,0.01,
2.568,2.41,0.38,-2.31,-0.45,-0.80,-0.02,
2.572,2.21,0.33,-2.28,-0.45,-0.80,-0.02,
2.573,2.21,0.33,-2.28,-0.47,-0.79,-0.04,
2.573,2.21,0.33,-2.28,-0.49,-0.78,-0.06,
2.58,2.21,0.33,-2.28,-0.51,-0.76,-0.09,
2.581,2.21,0.33,-2.28,-0.52,-0.75,-0.10,
2.581,2.21,0.33,-2.28,-0.52,-0.73,-0.12,
2.581,1.97,0.25,-1.90,-0.52,-0.73,-0.12,
2.581,1.97,0.25,-1.90,-0.53,-0.71,-0.14,
2.582,1.97,0.25,-1.90,-0.53,-0.68,-0.15,
2.585,1.97,0.25,-1.90,-0.52,-0.64,-0.18,
2.586,1.97,0.25,-1.90,-0.52,-0.62,-0.19,
2.588,1.97,0.25,-1.90,-0.52,-0.60,-0.20,
2.613,1.65,0.15,-1.51,-0.52,-0.60,-0.20,
2.613,1.65,0.15,-1.51,-0.51,-0.57,-0.22,
2.614,1.65,0.15,-1.51,-0.50,-0.54,-0.23,
2.614,1.65,0.15,-1.51,-0.49,-0.49,-0.25,
2.614,1.65,0.15,-1.51,-0.48,-0.48,-0.25,
2.614,1.65,0.15,-1.51,-0.47,-0.45,-0.27,
2.614,1.48,0.04,-1.30,-0.47,-0.45,-0.27,
2.614,1.48,0.04,-1.30,-0.46,-0.42,-0.27,
2.614,1.48,0.04,-1.30,-0.45,-0.39,-0.29,
2.615,1.48,0.04,-1.30,-0.43,-0.35,-0.30,
2.615,1.48,0.04,-1.30,-0.42,-0.34,-0.31,
2.615,1.48,0.04,-1.30,-0.40,-0.32,-0.32,
2.615,1.27,-0.06,-1.11,-0.40,-0.32,-0.32,
2.615,1.27,-0.06,-1.11,-0.38,-0.29,-0.33,
2.615,1.27,-0.06,-1.11,-0.36,-0.27,-0.34,
2.616,1.27,-0.06,-1.11,-0.32,-0.23,-0.35,
2.616,1.27,-0.06,-1.11,-0.31,-0.22,-0.35,
2.62,1.27,-0.06,-1.11,-0.29,-0.20,-0.36,
2.62,1.07,-0.06,-0.94,-0.29,-0.20,-0.36,
2.62,1.07,-0.06,-0.94,-0.27,-0.18,-0.37,
2.624,1.07,-0.06,-0.94,-0.24,-0.16,-0.38,
2.629,1.07,-0.06,-0.94,-0.20,-0.13,-0.39,
2.629,1.07,-0.06,-0.94,-0.19,-0.12,-0.39,
2.629,1.07,-0.06,-0.94,-0.16,-0.11,-0.40,
2.631,0.85,-0.06,-0.90,-0.16,-0.11,-0.40,
2.631,0.85,-0.06,-0.90,-0.13,-0.09,-0.41,
2.632,0.85,-0.06,-0.90,-0.10,-0.08,-0.42,
2.635,0.85,-0.06,-0.90,-0.06,-0.06,-0.43,
2.638,0.85,-0.06,-0.90,-0.04,-0.06,-0.43,
2.639,0.85,-0.06,-0.90,-0.01,-0.05,-0.44,
2.649,0.68,-0.04,-0.98,-0.01,-0.05,-0.44,
2.649,0.68,-0.04,-0.98,0.02,-0.04,-0.44,
2.649,0.68,-0.04,-0.98,0.05,-0.03,-0.45,
2.649,0.68,-0.04,-0.98,0.10,-0.02,-0.46,
2.65,0.68,-0.04,-0.98,0.11,-0.02,-0.46,
2.65,0.68,-0.04,-0.98,0.14,-0.01,-0.46,
2.65,0.47,0.01,-1.15,0.14,-0.01,-0.46,
2.65,0.47,0.01,-1.15,0.17,-0.01,-0.46,
2.652,0.47,0.01,-1.15,0.20,-0.00,-0.47,
2.655,0.47,0.01,-1.15,0.24,-0.01,-0.47,
2.66,0.47,0.01,-1.15,0.26,-0.01,-0.47,
2.661,0.47,0.01,-1.15,0.29,-0.01,-0.47,
2.661,0.29,0.07,-1.49,0.29,-0.01,-0.47,
2.661,0.29,0.07,-1.49,0.31,-0.01,-0.47,
2.662,0.29,0.07,-1.49,0.33,-0.02,-0.47,
2.665,0.29,0.07,-1.49,0.37,-0.03,-0.47,
2.666,0.29,0.07,-1.49,0.38,-0.03,-0.47,
2.669,0.29,0.07,-1.49,0.39,-0.04,-0.47,
2.67,0.11,0.15,-1.88,0.39,-0.04,-0.47,
2.671,0.11,0.15,-1.88,0.41,-0.05,-0.47,
2.672,0.11,0.15,-1.88,0.43,-0.06,-0.46,
2.675,0.11,0.15,-1.88,0.44,-0.07,-0.46,
2.676,0.11,0.15,-1.88,0.45,-0.08,-0.46,
2.678,0.11,0.15,-1.88,0.46,-0.09,-0.46,
2.681,0.03,0.25,-2.31,0.46,-0.09,-0.46,
2.708,0.03,0.25,-2.31,0.47,-0.10,-0.46,
2.708,0.03,0.25,-2.31,0.47,-0.12,-0.46,
2.709,0.03,0.25,-2.31,0.48,-0.14,-0.46,
2.709,0.03,0.25,-2.31,0.48,-0.15,-0.46,
2.709,0.03,0.25,-2.31,0.48,-0.16,-0.46,
2.709,-0.03,0.30,-2.51,0.48,-0.16,-0.46,
2.71,-0.03,0.30,-2.51,0.49,-0.17,-0.46,
2.71,-0.03,0.30,-2.51,0.49,-0.18,-0.46,
2.71,-0.03,0.30,-2.51,0.49,-0.20,-0.47,
2.71,-0.03,0.30,-2.51,0.49,-0.20,-0.47,
2.71,-0.03,0.30,-2.51,0.49,-0.20,-0.47,
2.711,-0.07,0.36,-2.33,0.49,-0.20,-0.47,
2.711,-0.07,0.36,-2.33,0.50,-0.20,-0.47,
2.711,-0.07,0.36,-2.33,0.50,-0.20,-0.47,
2.711,-0.07,0.36,-2.33,0.51,-0.20,-0.47,
2.711,-0.07,0.36,-2.33,0.52,-0.19,-0.46,
2.712,-0.07,0.36,-2.33,0.53,-0.19,-0.46,
2.712,-0.22,0.44,-1.91,0.53,-0.19,-0.46,
2.712,-0.22,0.44,-1.91,0.53,-0.19,-0.46,
2.722,-0.22,0.44,-1.91,0.53,-0.19,-0.46,
2.723,-0.22,0.44,-1.91,0.55,-0.19,-0.45,
2.723,-0.22,0.44,-1.91,0.55,-0.19,-0.45,
2.723,-0.22,0.44,-1.91,0.56,-0.19,-0.45,
2.723,-0.27,0.52,-1.67,0.56,-0.19,-0.45,
2.723,-0.27,0.52,-1.67,0.56,-0.19,-0.45,
2.724,-0.27,0.52,-1.67,0.57,-0.19,-0.44,
2.733,-0.27,0.52,-1.67,0.57,-0.19,-0.44,
2.733,-0.27,0.52,-1.67,0.58,-0.19,-0.45,
2.734,-0.27,0.52,-1.67,0.58,-0.20,-0.45,
2.734,-0.27,0.59,-1.56,0.58,-0.20,-0.45,
2.735,-0.27,0.59,-1.56,0.58,-0.20,-0.45,
2.735,-0.27,0.59,-1.56,0.58,-0.20,-0.46,
2.735,-0.27,0.59,-1.56,0.57,-0.21,-0.46,
2.738,-0.27,0.59,-1.56,0.57,-0.22,-0.47,
2.738,-0.27,0.59,-1.56,0.57,-0.23,-0.47,
2.75,-0.28,0.74,-1.61,0.57,-0.23,-0.47,
2.751,-0.28,0.74,-1.61,0.56,-0.24,-0.47,
2.751,-0.28,0.74,-1.61,0.55,-0.24,-0.48,
2.751,-0.28,0.74,-1.61,0.54,-0.25,-0.48,
2.751,-0.28,0.74,-1.61,0.53,-0.26,-0.48,
2.751,-0.28,0.74,-1.61,0.52,-0.26,-0.48,
2.753,-0.39,0.85,-1.66,0.52,-0.26,-0.48,
2.753,-0.39,0.85,-1.66,0.51,-0.27,-0.48,
2.754,-0.39,0.85,-1.66,0.50,-0.28,-0.48,
2.755,-0.39,0.85,-1.66,0.47,-0.28,-0.49,
2.761,-0.39,0.85,-1.66,0.45,-0.29,-0.48,
2.761,-0.39,0.85,-1.66,0.45,-0.29,-0.49,
2.761,-0.53,0.93,-1.66,0.45,-0.29,-0.49,
2.762,-0.53,0.93,-1.66,0.43,-0.29,-0.49,
2.762,-0.53,0.93,-1.66,0.41,-0.29,-0.48,
2.765,-0.53,0.93,-1.66,0.38,-0.30,-0.49,
2.766,-0.53,0.93,-1.66,0.37,-0.30,-0.49,
2.768,-0.53,0.93,-1.66,0.36,-0.30,-0.49,
2.77,-0.62,0.92,-1.30,0.36,-0.30,-0.49,
2.771,-0.62,0.92,-1.30,0.35,-0.30,-0.49,
2.772,-0.62,0.92,-1.30,0.34,-0.30,-0.50,
2.776,-0.62,0.92,-1.30,0.33,-0.29,-0.50,
2.777,-0.62,0.92,-1.30,0.33,-0.29,-0.50,
2.778,-0.62,0.92,-1.30,0.33,-0.28,-0.50,
2.78,-0.75,0.98,-0.70,0.33,-0.28,-0.50,
2.781,-0.75,0.98,-0.70,0.33,-0.27,-0.49,
2.782,-0.75,0.98,-0.70,0.33,-0.26,-0.49,
2.785,-0.75,0.98,-0.70,0.34,-0.24,-0.49,
2.786,-0.75,0.98,-0.70,0.34,-0.23,-0.48,
2.788,-0.75,0.98,-0.70,0.35,-0.22,-0.48,
2.791,-0.99,1.03,-0.16,0.35,-0.22,-0.48,
2.792,-0.99,1.03,-0.16,0.35,-0.20,-0.47,
2.793,-0.99,1.03,-0.16,0.36,-0.18,-0.47,
2.795,-0.99,1.03,-0.16,0.36,-0.16,-0.45,
2.797,-0.99,1.03,-0.16,0.36,-0.15,-0.44,
2.798,-0.99,1.03,-0.16,0.37,-0.14,-0.44,
2.803,-1.35,1.08,0.07,0.37,-0.14,-0.44,
2.804,-1.35,1.08,0.07,0.37,-0.12,-0.42,
2.804,-1.35,1.08,0.07,0.37,-0.11,-0.41,
2.806,-1.35,1.08,0.07,0.37,-0.09,-0.39,
2.807,-1.35,1.08,0.07,0.37,-0.07,-0.37,
2.809,-1.35,1.08,0.07,0.36,-0.07,-0.36,
2.813,-1.58,1.08,0.17,0.36,-0.07,-0.36,
2.813,-1.58,1.08,0.17,0.36,-0.05,-0.35,
2.814,-1.58,1.08,0.17,0.36,-0.04,-0.33,
2.815,-1.58,1.08,0.17,0.35,-0.02,-0.31,
2.816,-1.58,1.08,0.17,0.34,-0.02,-0.29,
2.818,-1.58,1.08,0.17,0.34,-0.01,-0.28,
2.821,-1.76,1.16,0.26,0.34,-0.01,-0.28,
2.822,-1.76,1.16,0.26,0.33,-0.01,-0.27,
2.822,-1.76,1.16,0.26,0.32,-0.00,-0.25,
2.827,-1.76,1.16,0.26,0.30,-0.00,-0.22,
2.828,-1.76,1.16,0.26,0.30,-0.00,-0.21,
2.829,-1.76,1.16,0.26,0.29,-0.01,-0.20,
2.836,-1.81,1.18,0.50,0.29,-0.01,-0.20,
2.836,-1.81,1.18,0.50,0.28,-0.01,-0.18,
2.837,-1.81,1.18,0.50,0.27,-0.02,-0.17,
2.837,-1.81,1.18,0.50,0.26,-0.02,-0.14,
2.837,-1.81,1.18,0.50,0.25,-0.03,-0.12,
2.838,-1.81,1.18,0.50,0.25,-0.03,-0.11,
2.849,-1.94,1.15,0.96,0.25,-0.03,-0.11,
2.85,-1.94,1.15,0.96,0.24,-0.04,-0.09,
2.85,-1.94,1.15,0.96,0.24,-0.04,-0.07,
2.85,-1.94,1.15,0.96,0.24,-0.05,-0.04,
2.851,-1.94,1.15,0.96,0.25,-0.06,-0.01,
2.881,-1.94,1.15,0.96,0.25,-0.06,-0.00,
2.881,-1.96,1.04,1.57,0.25,-0.06,-0.00,
2.882,-1.96,1.04,1.57,0.25,-0.07,0.02,
2.882,-1.96,1.04,1.57,0.25,-0.08,0.04,
2.882,-1.96,1.04,1.57,0.26,-0.09,0.07,
2.883,-1.96,1.04,1.57,0.27,-0.10,0.09,
2.883,-1.96,1.04,1.57,0.27,-0.11,0.09,
2.884,-1.86,0.88,2.07,0.27,-0.11,0.09,
2.884,-1.86,0.88,2.07,0.28,-0.12,0.12,
2.885,-1.86,0.88,2.07,0.28,-0.13,0.13,
2.885,-1.86,0.88,2.07,0.29,-0.14,0.16,
2.885,-1.86,0.88,2.07,0.30,-0.16,0.17,
2.886,-1.86,0.88,2.07,0.30,-0.16,0.18,
2.886,-1.52,0.72,2.42,0.30,-0.16,0.18,
2.887,-1.52,0.72,2.42,0.30,-0.17,0.19,
2.887,-1.52,0.72,2.42,0.31,-0.19,0.21,
2.887,-1.52,0.72,2.42,0.32,-0.21,0.22,
2.888,-1.52,0.72,2.42,0.32,-0.23,0.24,
2.888,-1.52,0.72,2.42,0.33,-0.24,0.24,
2.889,-1.12,0.58,2.73,0.33,-0.24,0.24,
2.889,-1.12,0.58,2.73,0.33,-0.26,0.25,
2.889,-1.12,0.58,2.73,0.34,-0.27,0.26,
2.89,-1.12,0.58,2.73,0.35,-0.29,0.27,
2.89,-1.12,0.58,2.73,0.36,-0.30,0.28,
2.891,-1.12,0.58,2.73,0.37,-0.31,0.29,
2.891,-0.77,0.63,3.05,0.37,-0.31,0.29,
2.891,-0.77,0.63,3.05,0.38,-0.31,0.30,
2.9,-0.77,0.63,3.05,0.40,-0.32,0.30,
2.901,-0.77,0.63,3.05,0.42,-0.31,0.32,
2.901,-0.77,0.63,3.05,0.44,-0.31,0.32,
2.901,-0.77,0.63,3.05,0.44,-0.31,0.33,
2.901,-0.57,0.73,3.24,0.44,-0.31,0.33,
2.902,-0.57,0.73,3.24,0.45,-0.30,0.34,
2.902,-0.57,0.73,3.24,0.47,-0.29,0.34,
2.906,-0.57,0.73,3.24,0.49,-0.29,0.36,
2.906,-0.57,0.73,3.24,0.50,-0.28,0.37,
2.908,-0.57,0.73,3.24,0.50,-0.28,0.37,
2.911,-0.42,0.79,3.09,0.50,-0.28,0.37,
2.911,-0.42,0.79,3.09,0.51,-0.28,0.38,
2.912,-0.42,0.79,3.09,0.51,-0.27,0.40,
2.915,-0.42,0.79,3.09,0.51,-0.27,0.42,
2.916,-0.42,0.79,3.09,0.51,-0.27,0.43,
2.918,-0.42,0.79,3.09,0.51,-0.28,0.43,
2.92,-0.28,0.86,2.73,0.51,-0.28,0.43,
2.92,-0.28,0.86,2.73,0.50,-0.28,0.44,
2.924,-0.28,0.86,2.73,0.50,-0.28,0.45,
2.925,-0.28,0.86,2.73,0.48,-0.28,0.46,
2.927,-0.28,0.86,2.73,0.47,-0.28,0.46,
2.928,-0.28,0.86,2.73,0.47,-0.28,0.46,
2.93,0.00,1.06,2.37,0.47,-0.28,0.46,
2.93,0.00,1.06,2.37,0.46,-0.28,0.46,
2.932,0.00,1.06,2.37,0.45,-0.28,0.45,
2.935,0.00,1.06,2.37,0.43,-0.29,0.44,
2.936,0.00,1.06,2.37,0.42,-0.29,0.42,
2.939,0.00,1.06,2.37,0.42,-0.29,0.41,
2.946,0.38,1.23,2.25,0.42,-0.29,0.41,
2.946,0.38,1.23,2.25,0.40,-0.29,0.40,
2.946,0.38,1.23,2.25,0.40,-0.29,0.38,
2.947,0.38,1.23,2.25,0.39,-0.28,0.34,
2.947,0.38,1.23,2.25,0.39,-0.27,0.32,
2.948,0.38,1.23,2.25,0.39,-0.26,0.30,
2.95,0.54,1.25,2.36,0.39,-0.26,0.30,
2.951,0.54,1.25,2.36,0.39,-0.25,0.28,
2.952,0.54,1.25,2.36,0.39,-0.23,0.25,
2.956,0.54,1.25,2.36,0.40,-0.21,0.23,
2.957,0.54,1.25,2.36,0.40,-0.18,0.21,
2.958,0.54,1.25,2.36,0.41,-0.15,0.19,
2.961,0.34,1.18,2.54,0.41,-0.15,0.19,
2.961,0.34,1.18,2.54,0.42,-0.12,0.17,
2.962,0.34,1.18,2.54,0.43,-0.08,0.15,
2.965,0.34,1.18,2.54,0.43,-0.04,0.14,
2.966,0.34,1.18,2.54,0.44,0.01,0.12,
2.968,0.34,1.18,2.54,0.44,0.06,0.11,
2.97,-0.05,1.00,2.39,0.44,0.06,0.11,
2.971,-0.05,1.00,2.39,0.44,0.11,0.09,
2.977,-0.05,1.00,2.39,0.44,0.16,0.08,
2.977,-0.05,1.00,2.39,0.43,0.25,0.07,
2.978,-0.05,1.00,2.39,0.43,0.27,0.06,
2.978,-0.05,1.00,2.39,0.41,0.33,0.05,
2.98,-0.44,0.78,1.87,0.41,0.33,0.05,
2.981,-0.44,0.78,1.87,0.40,0.38,0.04,
2.982,-0.44,0.78,1.87,0.38,0.43,0.03,
3.009,-0.44,0.78,1.87,0.37,0.49,0.02,
3.01,-0.44,0.78,1.87,0.35,0.54,0.01,
3.011,-0.44,0.78,1.87,0.33,0.58,0.01,
3.011,-0.89,0.59,1.26,0.33,0.58,0.01,
3.011,-0.89,0.59,1.26,0.31,0.62,0.01,
3.012,-0.89,0.59,1.26,0.29,0.67,0.01,
3.012,-0.89,0.59,1.26,0.26,0.71,0.01,
3.013,-0.89,0.59,1.26,0.24,0.75,0.01,
3.013,-0.89,0.59,1.26,0.22,0.79,0.01,
3.013,-1.50,0.53,0.81,0.22,0.79,0.01,
3.014,-1.50,0.53,0.81,0.20,0.82,0.02,
3.014,-1.50,0.53,0.81,0.17,0.86,0.02,
3.014,-1.50,0.53,0.81,0.15,0.90,0.02,
3.015,-1.50,0.53,0.81,0.12,0.92,0.03,
3.015,-1.50,0.53,0.81,0.09,0.95,0.03,
3.015,-1.78,0.48,0.30,0.09,0.95,0.03,
3.016,-1.78,0.48,0.30,0.06,0.96,0.03,
3.016,-1.78,0.48,0.30,0.02,0.98,0.04,
3.044,-1.78,0.48,0.30,-0.02,0.98,0.04,
3.045,-1.78,0.48,0.30,-0.05,0.98,0.04,
3.045,-1.78,0.48,0.30,-0.09,0.97,0.04,
3.046,-1.97,0.41,-0.19,-0.09,0.97,0.04,
3.046,-1.97,0.41,-0.19,-0.13,0.96,0.05,
3.046,-1.97,0.41,-0.19,-0.18,0.94,0.05,
3.047,-1.97,0.41,-0.19,-0.24,0.89,0.05,
3.047,-1.97,0.41,-0.19,-0.27,0.87,0.06,
3.048,-1.97,0.41,-0.19,-0.31,0.82,0.06,
3.048,-1.93,0.33,-0.44,-0.31,0.82,0.06,
3.048,-1.93,0.33,-0.44,-0.36,0.77,0.06,
3.049,-1.93,0.33,-0.44,-0.41,0.71,0.07,
3.049,-1.93,0.33,-0.44,-0.46,0.64,0.07,
3.05,-1.93,0.33,-0.44,-0.50,0.57,0.06,
3.05,-1.93,0.33,-0.44,-0.55,0.49,0.06,
3.05,-1.72,0.24,-0.26,-0.55,0.49,0.06,
3.051,-1.72,0.24,-0.26,-0.60,0.41,0.06,
3.051,-1.72,0.24,-0.26,-0.64,0.32,0.06,
3.052,-1.72,0.24,-0.26,-0.68,0.24,0.05,
3.052,-1.72,0.24,-0.26,-0.71,0.15,0.04,
3.053,-1.72,0.24,-0.26,-0.73,0.07,0.04,
3.053,-1.42,0.13,0.72,-0.73,0.07,0.04,
3.053,-1.42,0.13,0.72,-0.75,-0.01,0.04,
3.054,-1.42,0.13,0.72,-0.76,-0.09,0.03,
3.064,-1.42,0.13,0.72,-0.76,-0.16,0.03,
3.065,-1.42,0.13,0.72,-0.76,-0.26,0.04,
3.065,-1.42,0.13,0.72,-0.75,-0.29,0.04,
3.066,-1.40,-0.06,2.13,-0.75,-0.29,0.04,
3.066,-1.40,-0.06,2.13,-0.74,-0.35,0.04,
3.067,-1.40,-0.06,2.13,-0.71,-0.41,0.05,
3.067,-1.40,-0.06,2.13,-0.69,-0.46,0.05,
3.068,-1.40,-0.06,2.13,-0.66,-0.51,0.06,
3.068,-1.40,-0.06,2.13,-0.62,-0.54,0.07,
3.07,-1.34,-0.32,3.23,-0.62,-0.54,0.07,
3.071,-1.34,-0.32,3.23,-0.59,-0.58,0.09,
3.078,-1.34,-0.32,3.23,-0.55,-0.60,0.10,
3.079,-1.34,-0.32,3.23,-0.51,-0.61,0.12,
3.079,-1.34,-0.32,3.23,-0.47,-0.62,0.14,
3.08,-1.34,-0.32,3.23,-0.42,-0.63,0.16,
3.08,-1.26,-0.56,3.78,-0.42,-0.63,0.16,
3.081,-1.26,-0.56,3.78,-0.38,-0.62,0.17,
3.084,-1.26,-0.56,3.78,-0.33,-0.61,0.20,
3.085,-1.26,-0.56,3.78,-0.29,-0.59,0.21,
3.086,-1.26,-0.56,3.78,-0.24,-0.57,0.23,
3.09,-1.26,-0.56,3.78,-0.21,-0.53,0.26,
3.093,-0.93,-0.66,3.63,-0.21,-0.53,0.26,
3.093,-0.93,-0.66,3.63,-0.17,-0.50,0.27,
3.094,-0.93,-0.66,3.63,-0.13,-0.46,0.29,
3.095,-0.93,-0.66,3.63,-0.10,-0.42,0.31,
3.096,-0.93,-0.66,3.63,-0.07,-0.37,0.32,
3.098,-0.93,-0.66,3.63,-0.05,-0.32,0.34,
3.1,-0.51,-0.68,2.86,-0.05,-0.32,0.34,
3.101,-0.51,-0.68,2.86,-0.02,-0.27,0.35,
3.102,-0.51,-0.68,2.86,-0.00,-0.22,0.36,
3.111,-0.51,-0.68,2.86,0.01,-0.17,0.36,
3.112,-0.51,-0.68,2.86,0.03,-0.12,0.37,
3.112,-0.51,-0.68,2.86,0.04,-0.06,0.37,
3.113,-0.06,-0.52,1.73,0.04,-0.06,0.37,
3.113,-0.06,-0.52,1.73,0.04,-0.01,0.37,
3.113,-0.06,-0.52,1.73,0.05,0.04,0.37,
3.116,-0.06,-0.52,1.73,0.05,0.10,0.37,
3.148,-0.06,-0.52,1.73,0.05,0.15,0.36,
3.148,-0.06,-0.52,1.73,0.05,0.21,0.36,
3.149,0.24,-0.39,0.56,0.05,0.21,0.36,
3.149,0.24,-0.39,0.56,0.05,0.26,0.35,
3.149,0.24,-0.39,0.56,0.04,0.32,0.34,
3.149,0.24,-0.39,0.56,0.03,0.39,0.33,
3.149,0.24,-0.39,0.56,0.03,0.42,0.33,
3.149,0.24,-0.39,0.56,0.02,0.47,0.32,
3.15,0.47,-0.34,-0.50,0.02,0.47,0.32,
3.15,0.47,-0.34,-0.50,0.01,0.52,0.31,
3.15,0.47,-0.34,-0.50,0.01,0.56,0.30,
3.15,0.47,-0.34,-0.50,-0.00,0.60,0.29,
3.15,0.47,-0.34,-0.50,-0.01,0.65,0.28,
3.151,0.47,-0.34,-0.50,-0.02,0.68,0.27,
3.151,0.60,-0.34,-1.37,-0.02,0.68,0.27,
3.151,0.60,-0.34,-1.37,-0.03,0.72,0.26,
3.151,0.60,-0.34,-1.37,-0.04,0.74,0.25,
3.151,0.60,-0.34,-1.37,-0.05,0.77,0.24,
3.152,0.60,-0.34,-1.37,-0.06,0.79,0.23,
3.152,0.60,-0.34,-1.37,-0.07,0.81,0.22,
3.152,0.50,-0.35,-2.08,-0.07,0.81,0.22,
3.152,0.50,-0.35,-2.08,-0.08,0.83,0.21,
3.152,0.50,-0.35,-2.08,-0.09,0.84,0.21,
3.157,0.50,-0.35,-2.08,-0.09,0.85,0.20,
3.158,0.50,-0.35,-2.08,-0.10,0.86,0.19,
3.16,0.50,-0.35,-2.08,-0.11,0.87,0.19,
3.165,0.39,-0.40,-2.67,-0.11,0.87,0.19,
3.165,0.39,-0.40,-2.67,-0.11,0.87,0.18,
3.166,0.39,-0.40,-2.67,-0.12,0.86,0.17,
3.166,0.39,-0.40,-2.67,-0.13,0.85,0.17,
3.167,0.39,-0.40,-2.67,-0.13,0.85,0.17,
3.169,0.39,-0.40,-2.67,-0.13,0.83,0.16,
3.172,0.31,-0.51,-3.10,-0.13,0.83,0.16,
3.172,0.31,-0.51,-3.10,-0.14,0.81,0.16,
3.173,0.31,-0.51,-3.10,-0.14,0.80,0.16,
3.175,0.31,-0.51,-3.10,-0.14,0.76,0.16,
3.177,0.31,-0.51,-3.10,-0.13,0.75,0.16,
3.178,0.31,-0.51,-3.10,-0.13,0.72,0.16,
3.18,0.14,-0.59,-3.31,-0.13,0.72,0.16,
3.206,0.14,-0.59,-3.31,-0.13,0.69,0.17,
3.206,0.14,-0.59,-3.31,-0.12,0.65,0.17,
3.206,0.14,-0.59,-3.31,-0.11,0.60,0.18,
3.207,0.14,-0.59,-3.31,-0.10,0.58,0.18,
3.207,0.14,-0.59,-3.31,-0.09,0.54,0.19,
3.207,-0.01,-0.68,-3.33,-0.09,0.54,0.19,
3.207,-0.01,-0.68,-3.33,-0.08,0.51,0.19,
3.208,-0.01,-0.68,-3.33,-0.07,0.47,0.20,
3.208,-0.01,-0.68,-3.33,-0.04,0.41,0.20,
3.208,-0.01,-0.68,-3.33,-0.03,0.39,0.21,
3.209,-0.01,-0.68,-3.33,-0.02,0.35,0.21,
3.209,-0.12,-0.71,-3.17,-0.02,0.35,0.21,
3.209,-0.12,-0.71,-3.17,0.00,0.31,0.22,
3.209,-0.12,-0.71,-3.17,0.02,0.28,0.23,
3.21,-0.12,-0.71,-3.17,0.06,0.22,0.24,
3.21,-0.12,-0.71,-3.17,0.07,0.20,0.25,
3.21,-0.12,-0.71,-3.17,0.09,0.16,0.26,
3.21,-0.18,-0.72,-2.96,0.09,0.16,0.26,
3.211,-0.18,-0.72,-2.96,0.12,0.13,0.27,
3.216,-0.18,-0.72,-2.96,0.14,0.09,0.28,
3.217,-0.18,-0.72,-2.96,0.18,0.03,0.29,
3.217,-0.18,-0.72,-2.96,0.19,0.01,0.30,
3.218,-0.18,-0.72,-2.96,0.22,-0.02,0.31,
3.226,-0.27,-0.73,-2.69,0.22,-0.02,0.31,
3.226,-0.27,-0.73,-2.69,0.25,-0.06,0.32,
3.226,-0.27,-0.73,-2.69,0.28,-0.09,0.33,
3.227,-0.27,-0.73,-2.69,0.33,-0.14,0.34,
3.227,-0.27,-0.73,-2.69,0.35,-0.15,0.35,
3.228,-0.27,-0.73,-2.69,0.38,-0.18,0.36,
3.23,-0.35,-0.79,-2.43,0.38,-0.18,0.36,
3.23,-0.35,-0.79,-2.43,0.41,-0.20,0.38,
3.232,-0.35,-0.79,-2.43,0.43,-0.23,0.39,
3.235,-0.35,-0.79,-2.43,0.48,-0.26,0.41,
3.236,-0.35,-0.79,-2.43,0.49,-0.26,0.41,
3.242,-0.35,-0.79,-2.43,0.51,-0.28,0.43,
3.243,-0.35,-0.86,-2.32,0.51,-0.28,0.43,
3.243,-0.35,-0.86,-2.32,0.54,-0.30,0.44,
3.243,-0.35,-0.86,-2.32,0.56,-0.31,0.45,
3.245,-0.35,-0.86,-2.32,0.59,-0.33,0.47,
3.246,-0.35,-0.86,-2.32,0.60,-0.34,0.48,
3.253,-0.35,-0.86,-2.32,0.61,-0.35,0.49,
3.253,-0.25,-0.89,-2.33,0.61,-0.35,0.49,
3.254,-0.25,-0.89,-2.33,0.63,-0.36,0.50,
3.254,-0.25,-0.89,-2.33,0.65,-0.37,0.51,
3.267,-0.25,-0.89,-2.33,0.66,-0.39,0.51,
3.268,-0.25,-0.89,-2.33,0.68,-0.41,0.52,
3.268,-0.25,-0.89,-2.33,0.68,-0.41,0.52,
3.268,-0.25,-0.89,-2.33,0.68,-0.41,0.52,
3.269,-0.05,-0.76,-2.38,0.68,-0.41,0.52,
3.269,-0.05,-0.76,-2.38,0.69,-0.42,0.52,
3.269,-0.05,-0.76,-2.38,0.69,-0.43,0.52,
3.269,-0.05,-0.76,-2.38,0.69,-0.43,0.52,
3.269,-0.05,-0.76,-2.38,0.69,-0.44,0.51,
3.271,0.06,-0.73,-2.36,0.69,-0.44,0.51,
3.271,0.06,-0.73,-2.36,0.69,-0.44,0.50,
3.279,0.06,-0.73,-2.36,0.69,-0.44,0.50,
3.28,0.06,-0.73,-2.36,0.69,-0.43,0.49,
3.28,0.06,-0.73,-2.36,0.68,-0.43,0.49,
3.28,0.06,-0.73,-2.36,0.68,-0.42,0.48,
3.28,0.13,-0.67,-2.15,0.68,-0.42,0.48,
3.28,0.13,-0.67,-2.15,0.69,-0.40,0.47,
3.282,0.13,-0.67,-2.15,0.69,-0.39,0.46,
3.285,0.13,-0.67,-2.15,0.68,-0.36,0.45,
3.286,0.13,-0.67,-2.15,0.69,-0.35,0.44,
3.29,0.13,-0.67,-2.15,0.69,-0.33,0.44,
3.291,0.14,-0.67,-1.83,0.69,-0.33,0.44,
3.291,0.14,-0.67,-1.83,0.69,-0.31,0.43,
3.292,0.14,-0.67,-1.83,0.70,-0.29,0.43,
3.295,0.14,-0.67,-1.83,0.70,-0.26,0.42,
3.296,0.14,-0.67,-1.83,0.70,-0.25,0.41,
3.298,0.14,-0.67,-1.83,0.71,-0.22,0.40,
3.301,0.07,-0.59,-1.61,0.71,-0.22,0.40,
3.301,0.07,-0.59,-1.61,0.71,-0.20,0.40,
3.302,0.07,-0.59,-1.61,0.71,-0.18,0.39,
3.305,0.07,-0.59,-1.61,0.71,-0.15,0.38,
3.306,0.07,-0.59,-1.61,0.71,-0.14,0.38,
3.309,0.07,-0.59,-1.61,0.71,-0.13,0.37,
3.31,-0.02,-0.53,-1.54,0.71,-0.13,0.37,
3.311,-0.02,-0.53,-1.54,0.71,-0.11,0.36,
3.312,-0.02,-0.53,-1.54,0.70,-0.10,0.35,
3.315,-0.02,-0.53,-1.54,0.70,-0.10,0.34,
3.316,-0.02,-0.53,-1.54,0.69,-0.09,0.33,
3.318,-0.02,-0.53,-1.54,0.69,-0.09,0.32,
3.322,-0.09,-0.53,-1.53,0.69,-0.09,0.32,
3.324,-0.09,-0.53,-1.53,0.68,-0.09,0.31,
3.324,-0.09,-0.53,-1.53,0.67,-0.09,0.30,
3.325,-0.09,-0.53,-1.53,0.65,-0.11,0.29,
3.328,-0.09,-0.53,-1.53,0.65,-0.11,0.29,
3.329,-0.09,-0.53,-1.53,0.64,-0.13,0.28,
3.33,-0.22,-0.53,-1.53,0.64,-0.13,0.28,
3.33,-0.22,-0.53,-1.53,0.62,-0.14,0.27,
3.332,-0.22,-0.53,-1.53,0.60,-0.16,0.27,
3.335,-0.22,-0.53,-1.53,0.58,-0.19,0.25,
3.336,-0.22,-0.53,-1.53,0.57,-0.20,0.24,
3.338,-0.22,-0.53,-1.53,0.55,-0.23,0.23,
3.342,-0.18,-0.48,-1.38,0.55,-0.23,0.23,
3.343,-0.18,-0.48,-1.38,0.53,-0.26,0.22,
3.344,-0.18,-0.48,-1.38,0.50,-0.29,0.20,
3.345,-0.18,-0.48,-1.38,0.48,-0.34,0.18,
3.347,-0.18,-0.48,-1.38,0.47,-0.36,0.17,
3.365,-0.18,-0.48,-1.38,0.45,-0.39,0.15,
3.365,0.00,-0.54,-0.76,0.45,-0.39,0.15,
3.365,0.00,-0.54,-0.76,0.43,-0.42,0.13,
3.366,0.00,-0.54,-0.76,0.42,-0.45,0.11,
3.366,0.00,-0.54,-0.76,0.41,-0.49,0.08,
3.366,0.00,-0.54,-0.76,0.41,-0.50,0.07,
3.366,0.00,-0.54,-0.76,0.40,-0.52,0.06,
3.367,0.16,-0.63,0.32,0.40,-0.52,0.06,
3.367,0.16,-0.63,0.32,0.40,-0.53,0.04,
3.367,0.16,-0.63,0.32,0.40,-0.55,0.03,
3.367,0.16,-0.63,0.32,0.41,-0.56,0.01,
3.367,0.16,-0.63,0.32,0.41,-0.56,0.00,
3.376,0.16,-0.63,0.32,0.41,-0.57,-0.01,
3.376,0.22,-0.79,1.25,0.41,-0.57,-0.01,
3.376,0.22,-0.79,1.25,0.41,-0.57,-0.02,
3.377,0.22,-0.79,1.25,0.41,-0.57,-0.03,
3.377,0.22,-0.79,1.25,0.40,-0.56,-0.05,
3.377,0.22,-0.79,1.25,0.40,-0.56,-0.06,
3.378,0.22,-0.79,1.25,0.40,-0.54,-0.07,
3.413,0.35,-1.00,1.75,0.40,-0.54,-0.07,
3.413,0.35,-1.00,1.75,0.39,-0.53,-0.08,
3.414,0.35,-1.00,1.75,0.38,-0.51,-0.09,
3.414,0.35,-1.00,1.75,0.37,-0.47,-0.10,
3.414,0.35,-1.00,1.75,0.36,-0.46,-0.11,
3.414,0.35,-1.00,1.75,0.35,-0.43,-0.11,
3.414,0.46,-1.02,1.99,0.35,-0.43,-0.11,
3.414,0.46,-1.02,1.99,0.33,-0.39,-0.13,
3.415,0.46,-1.02,1.99,0.31,-0.36,-0.13,
3.415,0.46,-1.02,1.99,0.28,-0.29,-0.15,
3.415,0.46,-1.02,1.99,0.27,-0.27,-0.15,
3.415,0.46,-1.02,1.99,0.24,-0.22,-0.16,
3.415,0.60,-1.08,2.05,0.24,-0.22,-0.16,
3.416,0.60,-1.08,2.05,0.22,-0.17,-0.16,
3.416,0.60,-1.08,2.05,0.19,-0.12,-0.17,
3.416,0.60,-1.08,2.05,0.15,-0.03,-0.19,
3.416,0.60,-1.08,2.05,0.12,0.03,-0.20,
3.416,0.60,-1.08,2.05,0.10,0.06,-0.21,
3.416,0.75,-0.97,2.00,0.10,0.06,-0.21,
3.417,0.75,-0.97,2.00,0.08,0.12,-0.22,
3.417,0.75,-0.97,2.00,0.05,0.19,-0.23,
3.417,0.75,-0.97,2.00,0.01,0.28,-0.25,
3.417,0.75,-0.97,2.00,-0.01,0.32,-0.25,
3.418,0.75,-0.97,2.00,-0.03,0.38,-0.26,
3.422,0.72,-0.79,2.07,-0.03,0.38,-0.26,
3.422,0.72,-0.79,2.07,-0.06,0.45,-0.27,
3.423,0.72,-0.79,2.07,-0.08,0.51,-0.28,
3.425,0.72,-0.79,2.07,-0.12,0.60,-0.29,
3.427,0.72,-0.79,2.07,-0.13,0.63,-0.29,
3.428,0.72,-0.79,2.07,-0.15,0.68,-0.30,
3.43,0.67,-0.65,1.97,-0.15,0.68,-0.30,
3.43,0.67,-0.65,1.97,-0.18,0.74,-0.30,
3.432,0.67,-0.65,1.97,-0.20,0.79,-0.31,
3.435,0.67,-0.65,1.97,-0.24,0.86,-0.31,
3.437,0.67,-0.65,1.97,-0.26,0.88,-0.32,
3.438,0.67,-0.65,1.97,-0.28,0.92,-0.32,
3.44,0.73,-0.71,1.60,-0.28,0.92,-0.32,
3.44,0.73,-0.71,1.60,-0.31,0.95,-0.33,
3.442,0.73,-0.71,1.60,-0.34,0.99,-0.33,
3.445,0.73,-0.71,1.60,-0.39,1.03,-0.34,
3.446,0.73,-0.71,1.60,-0.40,1.04,-0.35,
3.448,0.73,-0.71,1.60,-0.43,1.06,-0.35,
3.45,0.79,-0.52,1.19,-0.43,1.06,-0.35,
3.451,0.79,-0.52,1.19,-0.46,1.06,-0.36,
3.452,0.79,-0.52,1.19,-0.50,1.06,-0.37,
3.456,0.79,-0.52,1.19,-0.55,1.05,-0.39,
3.457,0.79,-0.52,1.19,-0.56,1.04,-0.40,
3.459,0.79,-0.52,1.19,-0.59,1.01,-0.42,
3.461,1.11,-0.36,0.91,-0.59,1.01,-0.42,
3.461,1.11,-0.36,0.91,-0.63,0.98,-0.44,
3.462,1.11,-0.36,0.91,-0.66,0.94,-0.47,
3.465,1.11,-0.36,0.91,-0.71,0.87,-0.52,
3.466,1.11,-0.36,0.91,-0.72,0.85,-0.53,
3.468,1.11,-0.36,0.91,-0.75,0.79,-0.57,
3.471,1.43,-0.21,0.91,-0.75,0.79,-0.57,
3.471,1.43,-0.21,0.91,-0.78,0.74,-0.60,
3.473,1.43,-0.21,0.91,-0.81,0.69,-0.63,
3.475,1.43,-0.21,0.91,-0.84,0.61,-0.69,
3.476,1.43,-0.21,0.91,-0.85,0.59,-0.70,
3.478,1.43,-0.21,0.91,-0.87,0.54,-0.74,
3.48,1.55,-0.15,1.30,-0.87,0.54,-0.74,
3.481,1.55,-0.15,1.30,-0.89,0.49,-0.77,
3.482,1.55,-0.15,1.30,-0.90,0.44,-0.80,
3.485,1.55,-0.15,1.30,-0.92,0.37,-0.85,
3.487,1.55,-0.15,1.30,-0.93,0.35,-0.86,
3.489,1.55,-0.15,1.30,-0.93,0.31,-0.89,
3.491,1.36,-0.30,1.98,-0.93,0.31,-0.89,
3.492,1.36,-0.30,1.98,-0.94,0.28,-0.91,
3.492,1.36,-0.30,1.98,-0.94,0.25,-0.93,
3.495,1.36,-0.30,1.98,-0.94,0.21,-0.95,
3.496,1.36,-0.30,1.98,-0.94,0.20,-0.96,
3.499,1.36,-0.30,1.98,-0.94,0.18,-0.97,
3.501,0.97,-0.75,2.69,-0.94,0.18,-0.97,
3.501,0.97,-0.75,2.69,-0.92,0.17,-0.97,
3.508,0.97,-0.75,2.69,-0.92,0.16,-0.97,
3.508,0.97,-0.75,2.69,-0.89,0.15,-0.96,
3.509,0.97,-0.75,2.69,-0.89,0.15,-0.96,
3.509,0.97,-0.75,2.69,-0.87,0.15,-0.95,
3.51,0.47,-1.20,3.25,-0.87,0.15,-0.95,
3.51,0.47,-1.20,3.25,-0.84,0.14,-0.93,
3.512,0.47,-1.20,3.25,-0.82,0.15,-0.92,
3.529,0.47,-1.20,3.25,-0.78,0.15,-0.89,
3.529,0.47,-1.20,3.25,-0.76,0.15,-0.88,
3.529,0.47,-1.20,3.25,-0.73,0.16,-0.85,
3.529,-0.07,-1.67,3.66,-0.73,0.16,-0.85,
3.53,-0.07,-1.67,3.66,-0.69,0.16,-0.82,
3.53,-0.07,-1.67,3.66,-0.66,0.17,-0.79,
3.53,-0.07,-1.67,3.66,-0.60,0.18,-0.73,
3.532,-0.07,-1.67,3.66,-0.58,0.18,-0.71,
3.532,-0.07,-1.67,3.66,-0.54,0.18,-0.67,
3.532,-0.61,-1.91,3.75,-0.54,0.18,-0.67,
3.533,-0.61,-1.91,3.75,-0.50,0.19,-0.63,
3.533,-0.61,-1.91,3.75,-0.46,0.20,-0.58,
3.544,-0.61,-1.91,3.75,-0.39,0.20,-0.51,
3.544,-0.61,-1.91,3.75,-0.37,0.20,-0.48,
3.544,-0.61,-1.91,3.75,-0.33,0.21,-0.43,
3.545,-0.93,-2.07,3.39,-0.33,0.21,-0.43,
3.545,-0.93,-2.07,3.39,-0.29,0.21,-0.38,
3.545,-0.93,-2.07,3.39,-0.26,0.21,-0.33,
3.545,-0.93,-2.07,3.39,-0.21,0.20,-0.26,
3.546,-0.93,-2.07,3.39,-0.20,0.20,-0.23,
3.548,-0.93,-2.07,3.39,-0.18,0.19,-0.19,
3.55,-0.81,-1.92,2.44,-0.18,0.19,-0.19,
3.551,-0.81,-1.92,2.44,-0.16,0.18,-0.14,
3.553,-0.81,-1.92,2.44,-0.14,0.16,-0.10,
3.555,-0.81,-1.92,2.44,-0.13,0.13,-0.05,
3.556,-0.81,-1.92,2.44,-0.12,0.12,-0.03,
3.558,-0.81,-1.92,2.44,-0.12,0.10,-0.01,
3.56,-0.24,-1.68,1.21,-0.12,0.10,-0.01,
3.56,-0.24,-1.68,1.21,-0.12,0.07,0.02,
3.562,-0.24,-1.68,1.21,-0.13,0.04,0.04,
3.566,-0.24,-1.68,1.21,-0.15,-0.00,0.06,
3.567,-0.24,-1.68,1.21,-0.16,-0.01,0.06,
3.568,-0.24,-1.68,1.21,-0.17,-0.04,0.07,
3.571,0.70,-1.28,0.08,-0.17,-0.04,0.07,
3.571,0.70,-1.28,0.08,-0.20,-0.08,0.07,
3.572,0.70,-1.28,0.08,-0.22,-0.11,0.06,
3.575,0.70,-1.28,0.08,-0.27,-0.15,0.04,
3.576,0.70,-1.28,0.08,-0.28,-0.16,0.04,
3.578,0.70,-1.28,0.08,-0.32,-0.19,0.02,
3.581,1.70,-0.89,-0.75,-0.32,-0.19,0.02,
3.581,1.70,-0.89,-0.75,-0.36,-0.21,-0.01,
3.582,1.70,-0.89,-0.75,-0.39,-0.24,-0.03,
3.585,1.70,-0.89,-0.75,-0.46,-0.26,-0.08,
3.586,1.70,-0.89,-0.75,-0.48,-0.27,-0.09,
3.588,1.70,-0.89,-0.75,-0.52,-0.28,-0.12,
3.59,2.26,-0.60,-1.30,-0.52,-0.28,-0.12,
3.59,2.26,-0.60,-1.30,-0.57,-0.29,-0.16,
3.592,2.26,-0.60,-1.30,-0.62,-0.29,-0.19,
3.595,2.26,-0.60,-1.30,-0.69,-0.30,-0.23,
3.596,2.26,-0.60,-1.30,-0.71,-0.30,-0.25,
3.598,2.26,-0.60,-1.30,-0.75,-0.30,-0.28,
3.6,2.39,-0.45,-1.48,-0.75,-0.30,-0.28,
3.601,2.39,-0.45,-1.48,-0.80,-0.30,-0.30,
3.603,2.39,-0.45,-1.48,-0.84,-0.29,-0.33,
3.605,2.39,-0.45,-1.48,-0.90,-0.27,-0.36,
3.606,2.39,-0.45,-1.48,-0.92,-0.27,-0.37,
3.608,2.39,-0.45,-1.48,-0.95,-0.26,-0.39,
3.61,2.05,-0.45,-1.31,-0.95,-0.26,-0.39,
3.611,2.05,-0.45,-1.31,-0.98,-0.24,-0.41,
3.613,2.05,-0.45,-1.31,-1.02,-0.22,-0.42,
3.615,2.05,-0.45,-1.31,-1.05,-0.19,-0.43,
3.617,2.05,-0.45,-1.31,-1.06,-0.18,-0.44,
3.618,2.05,-0.45,-1.31,-1.08,-0.16,-0.44,
3.622,1.61,-0.54,-0.95,-1.08,-0.16,-0.44,
3.623,1.61,-0.54,-0.95,-1.10,-0.14,-0.44,
3.624,1.61,-0.54,-0.95,-1.11,-0.13,-0.45,
3.625,1.61,-0.54,-0.95,-1.12,-0.10,-0.45,
3.626,1.61,-0.54,-0.95,-1.12,-0.09,-0.45,
3.628,1.61,-0.54,-0.95,-1.12,-0.07,-0.44,
3.63,1.07,-0.58,-0.46,-1.12,-0.07,-0.44,
3.631,1.07,-0.58,-0.46,-1.11,-0.05,-0.43,
3.632,1.07,-0.58,-0.46,-1.09,-0.03,-0.43,
3.645,1.07,-0.58,-0.46,-1.07,-0.00,-0.41,
3.646,1.07,-0.58,-0.46,-1.06,0.01,-0.41,
3.646,1.07,-0.58,-0.46,-1.03,0.02,-0.39,
3.647,0.59,-0.57,0.11,-1.03,0.02,-0.39,
3.647,0.59,-0.57,0.11,-1.00,0.04,-0.38,
3.648,0.59,-0.57,0.11,-0.96,0.06,-0.36,
3.648,0.59,-0.57,0.11,-0.90,0.09,-0.33,
3.648,0.59,-0.57,0.11,-0.88,0.10,-0.32,
3.649,0.59,-0.57,0.11,-0.84,0.12,-0.30,
3.652,0.29,-0.50,0.56,-0.84,0.12,-0.30,
3.653,0.29,-0.50,0.56,-0.79,0.13,-0.28,
3.675,0.29,-0.50,0.56,-0.74,0.15,-0.26,
3.676,0.29,-0.50,0.56,-0.66,0.18,-0.23,
3.676,0.29,-0.50,0.56,-0.63,0.18,-0.22,
3.676,0.29,-0.50,0.56,-0.58,0.20,-0.20,
3.676,0.16,-0.42,0.63,-0.58,0.20,-0.20,
3.677,0.16,-0.42,0.63,-0.52,0.21,-0.18,
3.677,0.16,-0.42,0.63,-0.47,0.22,-0.16,
3.677,0.16,-0.42,0.63,-0.39,0.24,-0.12,
3.678,0.16,-0.42,0.63,-0.36,0.24,-0.11,
3.678,0.16,-0.42,0.63,-0.31,0.25,-0.10,
3.678,0.21,-0.29,0.25,-0.31,0.25,-0.10,
3.678,0.21,-0.29,0.25,-0.26,0.25,-0.08,
3.679,0.21,-0.29,0.25,-0.21,0.26,-0.06,
3.679,0.21,-0.29,0.25,-0.14,0.26,-0.04,
3.679,0.21,-0.29,0.25,-0.12,0.26,-0.03,
3.68,0.21,-0.29,0.25,-0.08,0.25,-0.02,
3.68,0.34,-0.12,-0.46,-0.08,0.25,-0.02,
3.703,0.34,-0.12,-0.46,-0.03,0.25,-0.01,
3.704,0.34,-0.12,-0.46,0.01,0.25,0.00,
3.704,0.34,-0.12,-0.46,0.06,0.24,0.02,
3.704,0.34,-0.12,-0.46,0.08,0.23,0.02,
3.705,0.34,-0.12,-0.46,0.12,0.22,0.03,
3.705,0.39,0.10,-1.25,0.12,0.22,0.03,
3.705,0.39,0.10,-1.25,0.15,0.22,0.04,
3.705,0.39,0.10,-1.25,0.19,0.21,0.04,
3.706,0.39,0.10,-1.25,0.24,0.19,0.05,
3.706,0.39,0.10,-1.25,0.25,0.18,0.06,
3.706,0.39,0.10,-1.25,0.28,0.17,0.06,
3.707,0.46,0.29,-2.08,0.28,0.17,0.06,
3.707,0.46,0.29,-2.08,0.30,0.15,0.06,
3.707,0.46,0.29,-2.08,0.32,0.14,0.07,
3.707,0.46,0.29,-2.08,0.35,0.12,0.07,
3.708,0.46,0.29,-2.08,0.36,0.11,0.07,
3.708,0.46,0.29,-2.08,0.37,0.09,0.07,
3.714,0.46,0.41,-2.86,0.37,0.09,0.07,
3.714,0.46,0.41,-2.86,0.38,0.08,0.07,
3.714,0.46,0.41,-2.86,0.39,0.07,0.08,
3.715,0.46,0.41,-2.86,0.40,0.04,0.07,
3.717,0.46,0.41,-2.86,0.40,0.04,0.08,
3.73,0.46,0.41,-2.86,0.40,0.02,0.07,
3.73,0.46,0.57,-3.59,0.40,0.02,0.07,
3.73,0.46,0.57,-3.59,0.40,0.01,0.07,
3.731,0.46,0.57,-3.59,0.40,-0.01,0.07,
3.731,0.46,0.57,-3.59,0.38,-0.04,0.07,
3.731,0.46,0.57,-3.59,0.38,-0.05,0.07,
3.731,0.46,0.57,-3.59,0.37,-0.07,0.06,
3.732,0.46,0.63,-4.10,0.37,-0.07,0.06,
3.732,0.46,0.63,-4.10,0.36,-0.09,0.06,
3.732,0.46,0.63,-4.10,0.35,-0.11,0.06,
3.738,0.46,0.63,-4.10,0.32,-0.14,0.05,
3.739,0.46,0.63,-4.10,0.32,-0.15,0.04,
3.739,0.46,0.63,-4.10,0.30,-0.17,0.04,
3.741,0.50,0.85,-4.28,0.30,-0.17,0.04,
3.742,0.50,0.85,-4.28,0.29,-0.19,0.03,
3.742,0.50,0.85,-4.28,0.27,-0.21,0.02,
3.745,0.50,0.85,-4.28,0.25,-0.24,0.01,
3.746,0.50,0.85,-4.28,0.24,-0.24,0.00,
3.748,0.50,0.85,-4.28,0.23,-0.26,-0.01,
3.75,0.55,0.97,-4.04,0.23,-0.26,-0.01,
3.75,0.55,0.97,-4.04,0.21,-0.27,-0.02,
3.752,0.55,0.97,-4.04,0.20,-0.28,-0.03,
3.755,0.55,0.97,-4.04,0.18,-0.30,-0.05,
3.759,0.55,0.97,-4.04,0.17,-0.31,-0.07,
3.759,0.55,0.97,-4.04,0.15,-0.32,-0.08,
3.76,0.55,0.97,-4.04,0.15,-0.33,-0.09,
3.761,0.57,1.18,-3.61,0.15,-0.33,-0.09,
3.762,0.57,1.18,-3.61,0.13,-0.34,-0.11,
3.765,0.57,1.18,-3.61,0.11,-0.35,-0.13,
3.766,0.57,1.18,-3.61,0.10,-0.36,-0.14,
3.784,0.57,1.18,-3.61,0.09,-0.36,-0.15,
3.785,0.47,1.15,-3.08,0.09,-0.36,-0.15,
3.786,0.47,1.15,-3.08,0.08,-0.37,-0.17,
3.787,0.47,1.15,-3.08,0.08,-0.37,-0.18,
3.787,0.47,1.15,-3.08,0.07,-0.37,-0.20,
3.787,0.47,1.15,-3.08,0.06,-0.37,-0.21,
3.787,0.47,1.15,-3.08,0.06,-0.37,-0.22,
3.787,0.28,1.20,-2.41,0.06,-0.37,-0.22,
3.788,0.28,1.20,-2.41,0.06,-0.36,-0.23,
3.788,0.28,1.20,-2.41,0.06,-0.36,-0.23,
3.788,0.28,1.20,-2.41,0.06,-0.35,-0.24,
3.788,0.28,1.20,-2.41,0.06,-0.35,-0.24,
3.793,0.28,1.20,-2.41,0.06,-0.34,-0.25,
3.794,0.08,1.18,-1.76,0.06,-0.34,-0.25,
3.794,0.08,1.18,-1.76,0.07,-0.34,-0.25,
3.794,0.08,1.18,-1.76,0.07,-0.33,-0.26,
3.796,0.08,1.18,-1.76,0.07,-0.33,-0.26,
3.797,0.08,1.18,-1.76,0.07,-0.32,-0.26,
3.799,0.08,1.18,-1.76,0.07,-0.32,-0.26,
3.8,-0.04,1.26,-1.45,0.07,-0.32,-0.26,
3.801,-0.04,1.26,-1.45,0.06,-0.32,-0.27,
3.818,-0.04,1.26,-1.45,0.06,-0.32,-0.27,
3.818,-0.04,1.26,-1.45,0.05,-0.31,-0.28,
3.819,-0.04,1.26,-1.45,0.04,-0.31,-0.28,
3.819,-0.04,1.26,-1.45,0.04,-0.31,-0.28,
3.819,-0.10,1.35,-1.31,0.04,-0.31,-0.28,
3.819,-0.10,1.35,-1.31,0.03,-0.31,-0.29,
3.819,-0.10,1.35,-1.31,0.02,-0.31,-0.29,
3.82,-0.10,1.35,-1.31,-0.01,-0.31,-0.30,
3.82,-0.10,1.35,-1.31,-0.02,-0.31,-0.31,
3.82,-0.10,1.35,-1.31,-0.03,-0.31,-0.32,
3.822,-0.14,1.42,-1.23,-0.03,-0.31,-0.32,
3.822,-0.14,1.42,-1.23,-0.04,-0.31,-0.32,
3.822,-0.14,1.42,-1.23,-0.06,-0.31,-0.33,
3.825,-0.14,1.42,-1.23,-0.08,-0.31,-0.34,
3.826,-0.14,1.42,-1.23,-0.09,-0.31,-0.35,
3.828,-0.14,1.42,-1.23,-0.11,-0.31,-0.35,
3.831,-0.23,1.41,-0.98,-0.11,-0.31,-0.35,
3.831,-0.23,1.41,-0.98,-0.12,-0.31,-0.36,
3.832,-0.23,1.41,-0.98,-0.13,-0.31,-0.37,
3.835,-0.23,1.41,-0.98,-0.16,-0.30,-0.37,
3.837,-0.23,1.41,-0.98,-0.16,-0.30,-0.37,
3.838,-0.23,1.41,-0.98,-0.17,-0.29,-0.38,
3.841,-0.48,1.43,-0.47,-0.17,-0.29,-0.38,
3.842,-0.48,1.43,-0.47,-0.18,-0.29,-0.38,
3.842,-0.48,1.43,-0.47,-0.19,-0.28,-0.38,
3.845,-0.48,1.43,-0.47,-0.19,-0.27,-0.38,
3.846,-0.48,1.43,-0.47,-0.20,-0.26,-0.38,
3.867,-0.48,1.43,-0.47,-0.20,-0.25,-0.37,
3.867,-0.67,1.40,0.19,-0.20,-0.25,-0.37,
3.868,-0.67,1.40,0.19,-0.20,-0.23,-0.37,
3.868,-0.67,1.40,0.19,-0.20,-0.22,-0.37,
3.868,-0.67,1.40,0.19,-0.20,-0.19,-0.36,
3.869,-0.67,1.40,0.19,-0.20,-0.18,-0.36,
3.869,-0.67,1.40,0.19,-0.19,-0.16,-0.35,
3.869,-0.90,1.39,0.84,-0.19,-0.16,-0.35,
3.869,-0.90,1.39,0.84,-0.19,-0.14,-0.34,
3.87,-0.90,1.39,0.84,-0.18,-0.12,-0.33,
3.87,-0.90,1.39,0.84,-0.16,-0.09,-0.32,
3.87,-0.90,1.39,0.84,-0.16,-0.08,-0.31,
3.87,-0.90,1.39,0.84,-0.14,-0.06,-0.30,
3.871,-1.06,1.41,1.38,-0.14,-0.06,-0.30,
3.871,-1.06,1.41,1.38,-0.13,-0.05,-0.29,
3.876,-1.06,1.41,1.38,-0.12,-0.03,-0.29,
3.877,-1.06,1.41,1.38,-0.11,-0.00,-0.27,
3.877,-1.06,1.41,1.38,-0.10,0.00,-0.27,
3.878,-1.06,1.41,1.38,-0.09,0.02,-0.26,
3.88,-1.18,1.53,1.74,-0.09,0.02,-0.26,
3.881,-1.18,1.53,1.74,-0.08,0.04,-0.25,
3.882,-1.18,1.53,1.74,-0.07,0.05,-0.24,
3.885,-1.18,1.53,1.74,-0.05,0.07,-0.23,
3.887,-1.18,1.53,1.74,-0.05,0.07,-0.22,
3.888,-1.18,1.53,1.74,-0.04,0.08,-0.21,
3.89,-1.35,1.55,2.07,-0.04,0.08,-0.21,
3.891,-1.35,1.55,2.07,-0.03,0.09,-0.20,
3.892,-1.35,1.55,2.07,-0.01,0.09,-0.19,
3.895,-1.35,1.55,2.07,0.00,0.10,-0.17,
3.896,-1.35,1.55,2.07,0.01,0.10,-0.16,
3.898,-1.35,1.55,2.07,0.03,0.11,-0.14,
3.9,-1.61,1.52,2.39,0.03,0.11,-0.14,
3.9,-1.61,1.52,2.39,0.04,0.11,-0.13,
3.904,-1.61,1.52,2.39,0.06,0.11,-0.11,
3.905,-1.61,1.52,2.39,0.08,0.12,-0.08,
3.906,-1.61,1.52,2.39,0.09,0.12,-0.07,
3.908,-1.61,1.52,2.39,0.11,0.12,-0.05,
3.91,-1.78,1.46,2.67,0.11,0.12,-0.05,
3.91,-1.78,1.46,2.67,0.12,0.12,-0.03,
3.912,-1.78,1.46,2.67,0.14,0.13,-0.01,
3.915,-1.78,1.46,2.67,0.17,0.13,0.03,
3.916,-1.78,1.46,2.67,0.17,0.13,0.04,
3.925,-1.78,1.46,2.67,0.19,0.13,0.07,
3.925,-1.96,1.35,2.85,0.19,0.13,0.07,
3.925,-1.96,1.35,2.85,0.21,0.13,0.09,
3.925,-1.96,1.35,2.85,0.22,0.13,0.12,
3.926,-1.96,1.35,2.85,0.25,0.13,0.16,
3.926,-1.96,1.35,2.85,0.25,0.13,0.17,
3.933,-1.96,1.35,2.85,0.27,0.13,0.20,
3.957,-1.93,1.25,2.91,0.27,0.13,0.20,
3.958,-1.93,1.25,2.91,0.28,0.13,0.23,
3.958,-1.93,1.25,2.91,0.30,0.13,0.26,
3.958,-1.93,1.25,2.91,0.32,0.13,0.30,
3.958,-1.93,1.25,2.91,0.32,0.13,0.32,
3.958,-1.93,1.25,2.91,0.34,0.14,0.35,
3.959,-1.94,1.29,2.89,0.34,0.14,0.35,
3.959,-1.94,1.29,2.89,0.35,0.14,0.38,
3.959,-1.94,1.29,2.89,0.36,0.15,0.40,
3.959,-1.94,1.29,2.89,0.38,0.16,0.44,
3.959,-1.94,1.29,2.89,0.38,0.16,0.45,
3.959,-1.94,1.29,2.89,0.39,0.17,0.47,
3.959,-1.63,1.41,2.67,0.39,0.17,0.47,
3.96,-1.63,1.41,2.67,0.39,0.17,0.49,
3.96,-1.63,1.41,2.67,0.39,0.18,0.51,
3.96,-1.63,1.41,2.67,0.38,0.18,0.53,
3.96,-1.63,1.41,2.67,0.38,0.18,0.53,
3.96,-1.63,1.41,2.67,0.37,0.18,0.54,
3.96,-1.17,1.48,2.16,0.37,0.18,0.54,
3.96,-1.17,1.48,2.16,0.35,0.18,0.55,
3.962,-1.17,1.48,2.16,0.33,0.17,0.55,
3.965,-1.17,1.48,2.16,0.30,0.16,0.55,
3.968,-1.17,1.48,2.16,0.28,0.16,0.55,
3.969,-1.17,1.48,2.16,0.25,0.15,0.55,
3.972,-0.67,1.62,1.52,0.25,0.15,0.55,
3.972,-0.67,1.62,1.52,0.21,0.14,0.54,
3.973,-0.67,1.62,1.52,0.17,0.12,0.53,
3.975,-0.67,1.62,1.52,0.10,0.10,0.50,
3.976,-0.67,1.62,1.52,0.08,0.09,0.50,
3.978,-0.67,1.62,1.52,0.03,0.07,0.48,
3.981,-0.27,1.89,1.05,0.03,0.07,0.48,
3.981,-0.27,1.89,1.05,-0.01,0.04,0.45,
3.982,-0.27,1.89,1.05,-0.07,0.02,0.43,
3.985,-0.27,1.89,1.05,-0.14,-0.03,0.39,
3.986,-0.27,1.89,1.05,-0.16,-0.05,0.37,
3.988,-0.27,1.89,1.05,-0.21,-0.08,0.34,
3.99,0.02,1.89,1.26,-0.21,-0.08,0.34,
3.991,0.02,1.89,1.26,-0.26,-0.12,0.31,
3.992,0.02,1.89,1.26,-0.29,-0.15,0.28,
3.995,0.02,1.89,1.26,-0.34,-0.20,0.23,
3.996,0.02,1.89,1.26,-0.36,-0.22,0.22,
3.998,0.02,1.89,1.26,-0.38,-0.24,0.18,
4.001,0.12,1.71,2.24,-0.38,-0.24,0.18,
4.002,0.12,1.71,2.24,-0.40,-0.26,0.15,
4.003,0.12,1.71,2.24,-0.41,-0.28,0.12,
4.005,0.12,1.71,2.24,-0.43,-0.31,0.09,
4.006,0.12,1.71,2.24,-0.43,-0.31,0.07,
4.008,0.12,1.71,2.24,-0.42,-0.32,0.05,
4.011,-0.04,1.30,3.53,-0.42,-0.32,0.05,
4.011,-0.04,1.30,3.53,-0.42,-0.33,0.03,
4.012,-0.04,1.30,3.53,-0.40,-0.34,0.00,
4.043,-0.04,1.30,3.53,-0.38,-0.33,-0.03,
4.044,-0.04,1.30,3.53,-0.37,-0.33,-0.04,
4.044,-0.04,1.30,3.53,-0.34,-0.32,-0.05,
4.044,-0.29,0.80,4.74,-0.34,-0.32,-0.05,
4.045,-0.29,0.80,4.74,-0.31,-0.32,-0.06,
4.045,-0.29,0.80,4.74,-0.27,-0.30,-0.08,
4.046,-0.29,0.80,4.74,-0.22,-0.29,-0.09,
4.046,-0.29,0.80,4.74,-0.20,-0.28,-0.09,
4.046,-0.29,0.80,4.74,-0.16,-0.26,-0.09,
4.047,-0.83,0.32,5.54,-0.16,-0.26,-0.09,
4.047,-0.83,0.32,5.54,-0.11,-0.24,-0.09,
4.048,-0.83,0.32,5.54,-0.06,-0.22,-0.09,
4.048,-0.83,0.32,5.54,0.01,-0.18,-0.08,
4.048,-0.83,0.32,5.54,0.03,-0.17,-0.08,
4.049,-0.83,0.32,5.54,0.07,-0.14,-0.06,
4.049,-1.48,-0.17,5.76,0.07,-0.14,-0.06,
4.05,-1.48,-0.17,5.76,0.11,-0.11,-0.05,
4.05,-1.48,-0.17,5.76,0.16,-0.08,-0.03,
4.051,-1.48,-0.17,5.76,0.22,-0.02,0.00,
4.051,-1.48,-0.17,5.76,0.23,-0.00,0.02,
4.051,-1.48,-0.17,5.76,0.27,0.03,0.04,
4.052,-2.08,-0.57,5.34,0.27,0.03,0.04,
4.052,-2.08,-0.57,5.34,0.30,0.07,0.07,
4.053,-2.08,-0.57,5.34,0.33,0.11,0.11,
4.062,-2.08,-0.57,5.34,0.37,0.17,0.16,
4.063,-2.08,-0.57,5.34,0.38,0.19,0.18,
4.063,-2.08,-0.57,5.34,0.40,0.22,0.22,
4.063,-2.61,-0.83,4.47,0.40,0.22,0.22,
4.063,-2.61,-0.83,4.47,0.41,0.26,0.27,
4.064,-2.61,-0.83,4.47,0.42,0.29,0.31,
4.065,-2.61,-0.83,4.47,0.42,0.33,0.37,
4.071,-2.61,-0.83,4.47,0.42,0.35,0.40,
4.071,-2.61,-0.83,4.47,0.42,0.37,0.44,
4.071,-2.69,-0.90,3.30,0.42,0.37,0.44,
4.072,-2.69,-0.90,3.30,0.41,0.39,0.48,
4.072,-2.69,-0.90,3.30,0.40,0.40,0.52,
4.075,-2.69,-0.90,3.30,0.37,0.41,0.58,
4.077,-2.69,-0.90,3.30,0.36,0.41,0.59,
4.078,-2.69,-0.90,3.30,0.34,0.41,0.62,
4.08,-2.27,-0.82,2.17,0.34,0.41,0.62,
4.08,-2.27,-0.82,2.17,0.32,0.41,0.65,
4.082,-2.27,-0.82,2.17,0.29,0.40,0.67,
4.089,-2.27,-0.82,2.17,0.25,0.38,0.70,
4.089,-2.27,-0.82,2.17,0.23,0.37,0.70,
4.09,-2.27,-0.82,2.17,0.21,0.35,0.71,
4.09,-1.35,-0.52,1.42,0.21,0.35,0.71,
4.091,-1.35,-0.52,1.42,0.18,0.33,0.71,
4.096,-1.35,-0.52,1.42,0.15,0.30,0.71,
4.097,-1.35,-0.52,1.42,0.10,0.25,0.70,
4.098,-1.35,-0.52,1.42,0.09,0.24,0.70,
4.098,-1.35,-0.52,1.42,0.06,0.20,0.69,
4.124,-0.29,-0.24,1.13,0.06,0.20,0.69,
4.125,-0.29,-0.24,1.13,0.03,0.16,0.67,
4.126,-0.29,-0.24,1.13,0.01,0.12,0.65,
4.126,-0.29,-0.24,1.13,-0.02,0.06,0.61,
4.126,-0.29,-0.24,1.13,-0.05,0.01,0.56,
4.127,-0.29,-0.24,1.13,-0.06,-0.01,0.55,
4.127,0.60,-0.04,1.13,-0.06,-0.01,0.55,
4.128,0.60,-0.04,1.13,-0.07,-0.03,0.53,
4.128,0.60,-0.04,1.13,-0.08,-0.06,0.50,
4.128,0.60,-0.04,1.13,-0.10,-0.10,0.46,
4.129,0.60,-0.04,1.13,-0.11,-0.11,0.45,
4.129,0.60,-0.04,1.13,-0.11,-0.14,0.42,
4.13,0.93,0.06,1.13,-0.11,-0.14,0.42,
4.13,0.93,0.06,1.13,-0.12,-0.16,0.39,
4.13,0.93,0.06,1.13,-0.13,-0.18,0.36,
4.131,0.93,0.06,1.13,-0.14,-0.19,0.32,
4.131,0.93,0.06,1.13,-0.15,-0.20,0.31,
4.132,0.93,0.06,1.13,-0.16,-0.20,0.28,
4.132,1.07,0.09,0.94,-0.16,-0.20,0.28,
4.132,1.07,0.09,0.94,-0.16,-0.20,0.25,
4.133,1.07,0.09,0.94,-0.17,-0.20,0.22,
4.141,1.07,0.09,0.94,-0.18,-0.19,0.19,
4.142,1.07,0.09,0.94,-0.19,-0.19,0.17,
4.142,1.07,0.09,0.94,-0.20,-0.18,0.15,
4.142,1.16,-0.02,0.50,-0.20,-0.18,0.15,
4.143,1.16,-0.02,0.50,-0.21,-0.16,0.12,
4.143,1.16,-0.02,0.50,-0.22,-0.15,0.09,
4.146,1.16,-0.02,0.50,-0.24,-0.12,0.06,
4.147,1.16,-0.02,0.50,-0.25,-0.11,0.05,
4.148,1.16,-0.02,0.50,-0.26,-0.09,0.03,
4.15,1.05,-0.20,-0.07,-0.26,-0.09,0.03,
4.151,1.05,-0.20,-0.07,-0.28,-0.07,0.01,
4.152,1.05,-0.20,-0.07,-0.29,-0.04,-0.01,
4.156,1.05,-0.20,-0.07,-0.31,-0.00,-0.04,
4.157,1.05,-0.20,-0.07,-0.32,0.01,-0.04,
4.158,1.05,-0.20,-0.07,-0.33,0.04,-0.05,
4.16,0.73,-0.37,-0.55,-0.33,0.04,-0.05,
4.161,0.73,-0.37,-0.55,-0.34,0.07,-0.06,
4.162,0.73,-0.37,-0.55,-0.35,0.10,-0.07,
4.17,0.73,-0.37,-0.55,-0.36,0.15,-0.08,
4.17,0.73,-0.37,-0.55,-0.36,0.17,-0.08,
4.17,0.73,-0.37,-0.55,-0.36,0.20,-0.08,
4.171,0.37,-0.51,-0.90,-0.36,0.20,-0.08,
4.171,0.37,-0.51,-0.90,-0.37,0.24,-0.09,
4.172,0.37,-0.51,-0.90,-0.37,0.27,-0.09,
4.175,0.37,-0.51,-0.90,-0.37,0.31,-0.08,
4.18,0.37,-0.51,-0.90,-0.37,0.32,-0.08,
4.181,0.37,-0.51,-0.90,-0.36,0.35,-0.08,
4.181,0.14,-0.67,-1.21,-0.36,0.35,-0.08,
4.202,0.14,-0.67,-1.21,-0.36,0.38,-0.07,
4.202,0.14,-0.67,-1.21,-0.35,0.40,-0.06,
4.202,0.14,-0.67,-1.21,-0.34,0.42,-0.05,
4.203,0.14,-0.67,-1.21,-0.34,0.43,-0.05,
4.203,0.14,-0.67,-1.21,-0.33,0.45,-0.04,
4.203,-0.12,-0.75,-1.52,-0.33,0.45,-0.04,
4.203,-0.12,-0.75,-1.52,-0.32,0.46,-0.02,
4.204,-0.12,-0.75,-1.52,-0.31,0.47,-0.01,
4.204,-0.12,-0.75,-1.52,-0.29,0.48,0.01,
4.204,-0.12,-0.75,-1.52,-0.28,0.48,0.02,
4.205,-0.12,-0.75,-1.52,-0.27,0.48,0.03,
4.205,-0.33,-0.76,-1.79,-0.27,0.48,0.03,
4.205,-0.33,-0.76,-1.79,-0.25,0.48,0.04,
4.205,-0.33,-0.76,-1.79,-0.24,0.48,0.06,
4.206,-0.33,-0.76,-1.79,-0.22,0.46,0.07,
4.206,-0.33,-0.76,-1.79,-0.21,0.46,0.08,
4.211,-0.33,-0.76,-1.79,-0.20,0.44,0.09,
4.211,-0.32,-0.78,-2.01,-0.20,0.44,0.09,
4.211,-0.32,-0.78,-2.01,-0.18,0.43,0.11,
4.212,-0.32,-0.78,-2.01,-0.17,0.40,0.11,
4.215,-0.32,-0.78,-2.01,-0.14,0.37,0.13,
4.217,-0.32,-0.78,-2.01,-0.13,0.36,0.14,
4.219,-0.32,-0.78,-2.01,-0.11,0.34,0.15,
4.22,-0.40,-0.80,-2.04,-0.11,0.34,0.15,
4.221,-0.40,-0.80,-2.04,-0.09,0.32,0.16,
4.222,-0.40,-0.80,-2.04,-0.06,0.29,0.17,
4.225,-0.40,-0.80,-2.04,-0.02,0.25,0.19,
4.226,-0.40,-0.80,-2.04,-0.00,0.24,0.20,
4.228,-0.40,-0.80,-2.04,0.03,0.21,0.21,
4.23,-0.43,-0.83,-1.81,0.03,0.21,0.21,
4.231,-0.43,-0.83,-1.81,0.06,0.19,0.23,
4.232,-0.43,-0.83,-1.81,0.09,0.16,0.25,
4.236,-0.43,-0.83,-1.81,0.15,0.13,0.27,
4.239,-0.43,-0.83,-1.81,0.17,0.11,0.28,
4.239,-0.43,-0.83,-1.81,0.21,0.09,0.29,
4.24,-0.48,-0.91,-1.59,0.21,0.09,0.29,
4.24,-0.48,-0.91,-1.59,0.25,0.07,0.31,
4.242,-0.48,-0.91,-1.59,0.30,0.04,0.33,
4.245,-0.48,-0.91,-1.59,0.36,0.01,0.35,
4.246,-0.48,-0.91,-1.59,0.38,-0.00,0.36,
4.248,-0.48,-0.91,-1.59,0.42,-0.02,0.38,
4.25,-0.47,-0.98,-1.51,0.42,-0.02,0.38,
4.25,-0.47,-0.98,-1.51,0.46,-0.04,0.40,
4.252,-0.47,-0.98,-1.51,0.50,-0.07,0.41,
4.255,-0.47,-0.98,-1.51,0.56,-0.10,0.44,
4.261,-0.47,-0.98,-1.51,0.64,-0.15,0.48,
4.261,-0.47,-0.98,-1.51,0.64,-0.15,0.48,
4.262,-0.47,-0.98,-1.51,0.64,-0.15,0.48,
4.263,-0.45,-1.05,-1.81,0.64,-0.15,0.48,
4.264,-0.45,-1.05,-1.81,0.68,-0.18,0.50,
4.267,-0.45,-1.05,-1.81,0.70,-0.21,0.51,
4.268,-0.45,-1.05,-1.81,0.71,-0.22,0.52,
4.268,-0.45,-1.05,-1.81,0.73,-0.24,0.54,
4.27,-0.43,-1.06,-2.15,0.73,-0.24,0.54,
4.271,-0.43,-1.06,-2.15,0.75,-0.26,0.55,
4.272,-0.43,-1.06,-2.15,0.77,-0.28,0.57,
4.275,-0.43,-1.06,-2.15,0.79,-0.30,0.59,
4.277,-0.43,-1.06,-2.15,0.80,-0.31,0.59,
4.278,-0.43,-1.06,-2.15,0.81,-0.32,0.60,
4.281,-0.39,-1.05,-2.41,0.81,-0.32,0.60,
4.281,-0.39,-1.05,-2.41,0.82,-0.33,0.62,
4.283,-0.39,-1.05,-2.41,0.83,-0.33,0.63,
4.285,-0.39,-1.05,-2.41,0.85,-0.34,0.64,
4.287,-0.39,-1.05,-2.41,0.85,-0.34,0.65,
4.289,-0.39,-1.05,-2.41,0.86,-0.33,0.65,
4.29,-0.23,-1.04,-2.57,0.86,-0.33,0.65,
4.291,-0.23,-1.04,-2.57,0.86,-0.33,0.66,
4.292,-0.23,-1.04,-2.57,0.86,-0.33,0.66,
4.295,-0.23,-1.04,-2.57,0.87,-0.31,0.67,
4.297,-0.23,-1.04,-2.57,0.87,-0.31,0.67,
4.3,-0.23,-1.04,-2.57,0.87,-0.30,0.68,
4.302,-0.08,-1.08,-2.64,0.87,-0.30,0.68,
4.303,-0.08,-1.08,-2.64,0.87,-0.29,0.68,
4.303,-0.08,-1.08,-2.64,0.87,-0.27,0.68,
4.305,-0.08,-1.08,-2.64,0.88,-0.24,0.69,
4.306,-0.08,-1.08,-2.64,0.88,-0.23,0.69,
4.308,-0.08,-1.08,-2.64,0.88,-0.21,0.69,
4.31,0.04,-1.09,-2.70,0.88,-0.21,0.69,
4.311,0.04,-1.09,-2.70,0.87,-0.19,0.69,
4.312,0.04,-1.09,-2.70,0.87,-0.17,0.69,
4.315,0.04,-1.09,-2.70,0.87,-0.14,0.70,
4.316,0.04,-1.09,-2.70,0.87,-0.13,0.70,
4.318,0.04,-1.09,-2.70,0.87,-0.12,0.70,
4.32,0.10,-1.08,-2.70,0.87,-0.12,0.70,
4.321,0.10,-1.08,-2.70,0.87,-0.10,0.71,
4.322,0.10,-1.08,-2.70,0.87,-0.09,0.71,
4.326,0.10,-1.08,-2.70,0.87,-0.07,0.71,
4.327,0.10,-1.08,-2.70,0.87,-0.06,0.71,
4.328,0.10,-1.08,-2.70,0.87,-0.06,0.71,
4.331,0.11,-1.05,-2.77,0.87,-0.06,0.71,
4.331,0.11,-1.05,-2.77,0.87,-0.05,0.71,
4.346,0.11,-1.05,-2.77,0.87,-0.04,0.71,
4.347,0.11,-1.05,-2.77,0.86,-0.04,0.71,
4.347,0.11,-1.05,-2.77,0.86,-0.03,0.71,
4.348,0.11,-1.05,-2.77,0.86,-0.03,0.70,
4.348,0.19,-1.02,-2.83,0.86,-0.03,0.70,
4.348,0.19,-1.02,-2.83,0.86,-0.03,0.70,
4.349,0.19,-1.02,-2.83,0.85,-0.03,0.69,
4.349,0.19,-1.02,-2.83,0.84,-0.04,0.68,
4.35,0.19,-1.02,-2.83,0.84,-0.04,0.68,
4.378,0.19,-1.02,-2.83,0.83,-0.05,0.66,
4.379,0.35,-0.93,-2.90,0.83,-0.05,0.66,
4.379,0.35,-0.93,-2.90,0.82,-0.06,0.65,
4.379,0.35,-0.93,-2.90,0.81,-0.08,0.64,
4.38,0.35,-0.93,-2.90,0.80,-0.10,0.63,
4.38,0.35,-0.93,-2.90,0.79,-0.11,0.62,
4.381,0.35,-0.93,-2.90,0.78,-0.12,0.61,
4.381,0.44,-0.93,-2.87,0.78,-0.12,0.61,
4.382,0.44,-0.93,-2.87,0.77,-0.14,0.60,
4.382,0.44,-0.93,-2.87,0.76,-0.15,0.58,
4.382,0.44,-0.93,-2.87,0.75,-0.18,0.57,
4.383,0.44,-0.93,-2.87,0.75,-0.18,0.56,
4.383,0.44,-0.93,-2.87,0.73,-0.20,0.55,
4.384,0.37,-0.92,-2.63,0.73,-0.20,0.55,
4.384,0.37,-0.92,-2.63,0.73,-0.22,0.54,
4.385,0.37,-0.92,-2.63,0.72,-0.23,0.53,
4.385,0.37,-0.92,-2.63,0.70,-0.26,0.51,
4.385,0.37,-0.92,-2.63,0.70,-0.26,0.50,
4.386,0.37,-0.92,-2.63,0.69,-0.27,0.49,
4.386,0.36,-0.95,-2.20,0.69,-0.27,0.49,
4.387,0.36,-0.95,-2.20,0.69,-0.29,0.48,
4.387,0.36,-0.95,-2.20,0.68,-0.30,0.46,
4.387,0.36,-0.95,-2.20,0.67,-0.32,0.44,
4.388,0.36,-0.95,-2.20,0.67,-0.33,0.43,
4.388,0.36,-0.95,-2.20,0.67,-0.34,0.42,
4.397,0.31,-1.09,-1.61,0.67,-0.34,0.42,
4.398,0.31,-1.09,-1.61,0.66,-0.35,0.41,
4.398,0.31,-1.09,-1.61,0.66,-0.37,0.39,
4.399,0.31,-1.09,-1.61,0.67,-0.39,0.38,
4.399,0.31,-1.09,-1.61,0.67,-0.39,0.38,
4.399,0.31,-1.09,-1.61,0.67,-0.40,0.37,
4.4,0.13,-1.32,-0.85,0.67,-0.40,0.37,
4.401,0.13,-1.32,-0.85,0.68,-0.41,0.37,
4.402,0.13,-1.32,-0.85,0.68,-0.42,0.36,
4.405,0.13,-1.32,-0.85,0.69,-0.43,0.36,
4.406,0.13,-1.32,-0.85,0.69,-0.43,0.36,
4.408,0.13,-1.32,-0.85,0.70,-0.43,0.36,
4.41,-0.02,-1.49,-0.15,0.70,-0.43,0.36,
4.41,-0.02,-1.49,-0.15,0.70,-0.42,0.37,
4.412,-0.02,-1.49,-0.15,0.71,-0.41,0.37,
4.415,-0.02,-1.49,-0.15,0.71,-0.39,0.38,
4.416,-0.02,-1.49,-0.15,0.71,-0.39,0.39,
4.419,-0.02,-1.49,-0.15,0.71,-0.37,0.40,
4.42,-0.03,-1.76,0.24,0.71,-0.37,0.40,
4.421,-0.03,-1.76,0.24,0.70,-0.35,0.41,
4.422,-0.03,-1.76,0.24,0.70,-0.34,0.42,
4.425,-0.03,-1.76,0.24,0.68,-0.31,0.43,
4.426,-0.03,-1.76,0.24,0.68,-0.30,0.44,
4.43,-0.03,-1.76,0.24,0.66,-0.28,0.45,
4.43,0.12,-1.72,0.28,0.66,-0.28,0.45,
4.431,0.12,-1.72,0.28,0.64,-0.26,0.45,
4.435,0.12,-1.72,0.28,0.61,-0.24,0.45,
4.435,0.12,-1.72,0.28,0.57,-0.20,0.44,
4.436,0.12,-1.72,0.28,0.56,-0.18,0.44,
4.438,0.12,-1.72,0.28,0.53,-0.16,0.43,
4.443,0.63,-1.51,0.22,0.53,-0.16,0.43,
4.443,0.63,-1.51,0.22,0.49,-0.13,0.42,
4.444,0.63,-1.51,0.22,0.45,-0.10,0.40,
4.445,0.63,-1.51,0.22,0.39,-0.06,0.36,
4.446,0.63,-1.51,0.22,0.37,-0.05,0.35,
4.456,0.63,-1.51,0.22,0.32,-0.02,0.32,
4.456,1.19,-1.21,0.09,0.32,-0.02,0.32,
4.457,1.19,-1.21,0.09,0.28,0.01,0.28,
4.458,1.19,-1.21,0.09,0.23,0.03,0.25,
4.459,1.19,-1.21,0.09,0.15,0.08,0.20,
4.459,1.19,-1.21,0.09,0.08,0.12,0.14,
4.459,1.19,-1.21,0.09,0.06,0.14,0.13,
4.461,1.55,-0.94,0.16,0.06,0.14,0.13,
4.461,1.55,-0.94,0.16,0.03,0.16,0.11,
4.463,1.55,-0.94,0.16,-0.02,0.19,0.07,
4.495,1.55,-0.94,0.16,-0.09,0.23,0.02,
4.496,1.55,-0.94,0.16,-0.11,0.25,0.01,
4.496,1.55,-0.94,0.16,-0.16,0.28,-0.02,
4.496,1.50,-0.73,0.36,-0.16,0.28,-0.02,
4.496,1.50,-0.73,0.36,-0.20,0.32,-0.05,
4.497,1.50,-0.73,0.36,-0.24,0.35,-0.08,
4.497,1.50,-0.73,0.36,-0.30,0.40,-0.12,
4.497,1.50,-0.73,0.36,-0.32,0.42,-0.14,
4.497,1.50,-0.73,0.36,-0.35,0.46,-0.16,
4.497,1.22,-0.69,0.79,-0.35,0.46,-0.16,
4.498,1.22,-0.69,0.79,-0.38,0.50,-0.18,
4.498,1.22,-0.69,0.79,-0.41,0.53,-0.19,
4.498,1.22,-0.69,0.79,-0.45,0.58,-0.21,
4.498,1.22,-0.69,0.79,-0.47,0.60,-0.22,
4.498,1.22,-0.69,0.79,-0.49,0.63,-0.23,
4.498,0.84,-0.66,1.14,-0.49,0.63,-0.23,
4.499,0.84,-0.66,1.14,-0.51,0.66,-0.24,
4.499,0.84,-0.66,1.14,-0.54,0.68,-0.25,
4.499,0.84,-0.66,1.14,-0.57,0.70,-0.25,
4.499,0.84,-0.66,1.14,-0.58,0.71,-0.26,
4.499,0.84,-0.66,1.14,-0.61,0.72,-0.26,
4.511,0.60,-0.83,1.15,-0.61,0.72,-0.26,
4.513,0.60,-0.83,1.15,-0.63,0.73,-0.26,
4.514,0.60,-0.83,1.15,-0.66,0.74,-0.26,
4.515,0.60,-0.83,1.15,-0.70,0.75,-0.27,
4.52,0.60,-0.83,1.15,-0.71,0.75,-0.27,
4.521,0.60,-0.83,1.15,-0.74,0.75,-0.27,
4.522,0.56,-0.73,0.94,-0.74,0.75,-0.27,
4.522,0.56,-0.73,0.94,-0.77,0.74,-0.28,
4.523,0.56,-0.73,0.94,-0.80,0.73,-0.29,
4.549,0.56,-0.73,0.94,-0.84,0.71,-0.31,
4.55,0.56,-0.73,0.94,-0.86,0.69,-0.31,
4.55,0.56,-0.73,0.94,-0.88,0.67,-0.33,
4.55,0.73,-0.50,0.90,-0.88,0.67,-0.33,
4.551,0.73,-0.50,0.90,-0.91,0.63,-0.35,
4.551,0.73,-0.50,0.90,-0.94,0.60,-0.37,
4.551,0.73,-0.50,0.90,-0.97,0.53,-0.40,
4.551,0.73,-0.50,0.90,-0.98,0.51,-0.42,
4.552,0.73,-0.50,0.90,-0.99,0.46,-0.44,
4.552,0.92,-0.24,1.21,-0.99,0.46,-0.44,
4.552,0.92,-0.24,1.21,-1.01,0.41,-0.48,
4.553,0.92,-0.24,1.21,-1.03,0.36,-0.51,
4.553,0.92,-0.24,1.21,-1.04,0.29,-0.56,
4.553,0.92,-0.24,1.21,-1.04,0.27,-0.57,
4.553,0.92,-0.24,1.21,-1.05,0.22,-0.60,
4.554,1.01,-0.08,1.78,-1.05,0.22,-0.60,
4.554,1.01,-0.08,1.78,-1.05,0.18,-0.63,
4.554,1.01,-0.08,1.78,-1.06,0.14,-0.66,
4.554,1.01,-0.08,1.78,-1.06,0.09,-0.70,
4.555,1.01,-0.08,1.78,-1.06,0.07,-0.71,
4.555,1.01,-0.08,1.78,-1.06,0.04,-0.73,
4.555,0.81,-0.09,2.39,-1.06,0.04,-0.73,
4.555,0.81,-0.09,2.39,-1.06,0.01,-0.75,
4.556,0.81,-0.09,2.39,-1.06,-0.01,-0.76,
4.556,0.81,-0.09,2.39,-1.05,-0.03,-0.78,
4.556,0.81,-0.09,2.39,-1.04,-0.04,-0.78,
4.567,0.81,-0.09,2.39,-1.03,-0.05,-0.79,
4.568,0.44,-0.28,3.02,-1.03,-0.05,-0.79,
4.568,0.44,-0.28,3.02,-1.02,-0.06,-0.79,
4.568,0.44,-0.28,3.02,-1.00,-0.06,-0.78,
4.568,0.44,-0.28,3.02,-0.98,-0.06,-0.77,
4.569,0.44,-0.28,3.02,-0.95,-0.05,-0.76,
4.569,0.44,-0.28,3.02,-0.94,-0.05,-0.75,
4.573,0.07,-0.50,3.60,-0.94,-0.05,-0.75,
4.573,0.07,-0.50,3.60,-0.91,-0.04,-0.74,
4.574,0.07,-0.50,3.60,-0.89,-0.03,-0.72,
4.577,0.07,-0.50,3.60,-0.84,-0.01,-0.69,
4.577,0.07,-0.50,3.60,-0.82,-0.01,-0.67,
4.578,0.07,-0.50,3.60,-0.79,-0.00,-0.64,
4.586,-0.30,-0.72,4.00,-0.79,-0.00,-0.64,
4.587,-0.30,-0.72,4.00,-0.75,0.01,-0.62,
4.587,-0.30,-0.72,4.00,-0.72,0.01,-0.59,
4.587,-0.30,-0.72,4.00,-0.66,0.02,-0.54,
4.588,-0.30,-0.72,4.00,-0.63,0.03,-0.50,
4.588,-0.30,-0.72,4.00,-0.61,0.03,-0.49,
4.59,-0.52,-0.77,4.05,-0.61,0.03,-0.49,
4.59,-0.52,-0.77,4.05,-0.57,0.04,-0.45,
4.594,-0.52,-0.77,4.05,-0.53,0.04,-0.41,
4.597,-0.52,-0.77,4.05,-0.47,0.04,-0.36,
4.598,-0.52,-0.77,4.05,-0.45,0.04,-0.34,
4.604,-0.52,-0.77,4.05,-0.41,0.04,-0.30,
4.604,-0.53,-0.72,3.82,-0.41,0.04,-0.30,
4.605,-0.53,-0.72,3.82,-0.37,0.03,-0.27,
4.605,-0.53,-0.72,3.82,-0.34,0.03,-0.23,
4.605,-0.53,-0.72,3.82,-0.29,0.01,-0.19,
4.606,-0.53,-0.72,3.82,-0.28,0.01,-0.17,
4.608,-0.53,-0.72,3.82,-0.25,-0.01,-0.14,
4.61,-0.16,-0.53,3.15,-0.25,-0.01,-0.14,
4.61,-0.16,-0.53,3.15,-0.23,-0.02,-0.12,
4.633,-0.16,-0.53,3.15,-0.21,-0.03,-0.10,
4.633,-0.16,-0.53,3.15,-0.19,-0.06,-0.08,
4.633,-0.16,-0.53,3.15,-0.18,-0.07,-0.07,
4.633,-0.16,-0.53,3.15,-0.17,-0.09,-0.06,
4.633,0.50,-0.27,2.17,-0.17,-0.09,-0.06,
4.634,0.50,-0.27,2.17,-0.17,-0.12,-0.06,
4.634,0.50,-0.27,2.17,-0.17,-0.14,-0.06,
4.634,0.50,-0.27,2.17,-0.18,-0.17,-0.06,
4.634,0.50,-0.27,2.17,-0.18,-0.19,-0.07,
4.634,0.50,-0.27,2.17,-0.19,-0.20,-0.07,
4.634,1.24,0.08,1.25,-0.19,-0.20,-0.07,
4.635,1.24,0.08,1.25,-0.20,-0.21,-0.08,
4.635,1.24,0.08,1.25,-0.21,-0.23,-0.10,
4.635,1.24,0.08,1.25,-0.24,-0.24,-0.13,
4.637,1.24,0.08,1.25,-0.25,-0.25,-0.14,
4.638,1.24,0.08,1.25,-0.27,-0.26,-0.16,
4.641,2.05,0.34,0.48,-0.27,-0.26,-0.16,
4.641,2.05,0.34,0.48,-0.30,-0.26,-0.19,
4.642,2.05,0.34,0.48,-0.32,-0.27,-0.21,
4.645,2.05,0.34,0.48,-0.37,-0.27,-0.26,
4.646,2.05,0.34,0.48,-0.38,-0.27,-0.28,
4.648,2.05,0.34,0.48,-0.41,-0.26,-0.31,
4.65,2.51,0.49,-0.16,-0.41,-0.26,-0.31,
4.65,2.51,0.49,-0.16,-0.45,-0.26,-0.34,
4.652,2.51,0.49,-0.16,-0.48,-0.25,-0.37,
4.655,2.51,0.49,-0.16,-0.53,-0.23,-0.42,
4.656,2.51,0.49,-0.16,-0.55,-0.23,-0.44,
4.659,2.51,0.49,-0.16,-0.59,-0.21,-0.47,
4.663,2.71,0.55,-0.72,-0.59,-0.21,-0.47,
4.663,2.71,0.55,-0.72,-0.63,-0.20,-0.51,
4.663,2.71,0.55,-0.72,-0.67,-0.19,-0.54,
4.667,2.71,0.55,-0.72,-0.73,-0.17,-0.58,
4.668,2.71,0.55,-0.72,-0.77,-0.16,-0.62,
4.668,2.71,0.55,-0.72,-0.79,-0.16,-0.63,
4.67,2.55,0.50,-1.07,-0.79,-0.16,-0.63,
4.67,2.55,0.50,-1.07,-0.82,-0.14,-0.66,
4.674,2.55,0.50,-1.07,-0.85,-0.13,-0.69,
4.675,2.55,0.50,-1.07,-0.90,-0.12,-0.73,
4.678,2.55,0.50,-1.07,-0.93,-0.12,-0.76,
4.681,2.55,0.50,-1.07,-0.94,-0.12,-0.77,
4.682,2.22,0.39,-1.08,-0.94,-0.12,-0.77,
4.7,2.22,0.39,-1.08,-0.97,-0.12,-0.80,
4.7,2.22,0.39,-1.08,-0.99,-0.12,-0.82,
4.7,2.22,0.39,-1.08,-1.02,-0.12,-0.85,
4.701,2.22,0.39,-1.08,-1.03,-0.11,-0.87,
4.701,2.22,0.39,-1.08,-1.03,-0.11,-0.87,
4.701,1.56,0.21,-0.71,-1.03,-0.11,-0.87,
4.701,1.56,0.21,-0.71,-1.03,-0.11,-0.88,
4.701,1.56,0.21,-0.71,-1.03,-0.11,-0.89,
4.702,1.56,0.21,-0.71,-1.03,-0.10,-0.89,
4.702,1.56,0.21,-0.71,-1.02,-0.10,-0.89,
4.702,1.56,0.21,-0.71,-1.01,-0.09,-0.88,
4.702,0.83,-0.01,-0.20,-1.01,-0.09,-0.88,
4.702,0.83,-0.01,-0.20,-1.00,-0.09,-0.88,
4.703,0.83,-0.01,-0.20,-0.98,-0.08,-0.87,
4.709,0.83,-0.01,-0.20,-0.94,-0.07,-0.85,
4.71,0.83,-0.01,-0.20,-0.91,-0.07,-0.83,
4.71,0.83,-0.01,-0.20,-0.90,-0.07,-0.82,
4.71,0.20,-0.16,0.23,-0.90,-0.07,-0.82,
4.71,0.20,-0.16,0.23,-0.86,-0.06,-0.81,
4.714,0.20,-0.16,0.23,-0.83,-0.06,-0.79,
4.715,0.20,-0.16,0.23,-0.77,-0.05,-0.75,
4.717,0.20,-0.16,0.23,-0.72,-0.04,-0.73,
4.718,0.20,-0.16,0.23,-0.70,-0.04,-0.72,
4.721,-0.16,-0.23,0.43,-0.70,-0.04,-0.72,
4.721,-0.16,-0.23,0.43,-0.66,-0.04,-0.69,
4.722,-0.16,-0.23,0.43,-0.61,-0.03,-0.66,
4.725,-0.16,-0.23,0.43,-0.54,-0.02,-0.62,
4.726,-0.16,-0.23,0.43,-0.49,-0.02,-0.60,
4.728,-0.16,-0.23,0.43,-0.47,-0.02,-0.58,
4.736,-0.35,-0.21,0.31,-0.47,-0.02,-0.58,
4.737,-0.35,-0.21,0.31,-0.42,-0.01,-0.55,
4.737,-0.35,-0.21,0.31,-0.37,-0.01,-0.53,
4.737,-0.35,-0.21,0.31,-0.30,-0.01,-0.49,
4.737,-0.35,-0.21,0.31,-0.25,-0.01,-0.47,
4.738,-0.35,-0.21,0.31,-0.23,-0.01,-0.45,
4.773,-0.37,-0.14,-0.05,-0.23,-0.01,-0.45,
4.774,-0.37,-0.14,-0.05,-0.18,-0.01,-0.43,
4.774,-0.37,-0.14,-0.05,-0.14,-0.01,-0.41,
4.774,-0.37,-0.14,-0.05,-0.08,-0.02,-0.38,
4.774,-0.37,-0.14,-0.05,-0.04,-0.03,-0.36,
4.774,-0.37,-0.14,-0.05,-0.01,-0.03,-0.35,
4.774,-0.23,0.02,-0.65,-0.01,-0.03,-0.35,
4.775,-0.23,0.02,-0.65,0.02,-0.04,-0.34,
4.775,-0.23,0.02,-0.65,0.06,-0.05,-0.33,
4.775,-0.23,0.02,-0.65,0.11,-0.06,-0.31,
4.775,-0.23,0.02,-0.65,0.15,-0.06,-0.29,
4.775,-0.23,0.02,-0.65,0.16,-0.07,-0.29,
4.776,-0.05,0.20,-1.32,0.16,-0.07,-0.29,
4.776,-0.05,0.20,-1.32,0.19,-0.07,-0.28,
4.776,-0.05,0.20,-1.32,0.22,-0.08,-0.27,
4.776,-0.05,0.20,-1.32,0.27,-0.10,-0.26,
4.776,-0.05,0.20,-1.32,0.29,-0.11,-0.25,
4.777,-0.05,0.20,-1.32,0.30,-0.11,-0.25,
4.777,0.12,0.40,-1.98,0.30,-0.11,-0.25,
4.777,0.12,0.40,-1.98,0.32,-0.13,-0.24,
4.777,0.12,0.40,-1.98,0.34,-0.14,-0.24,
4.777,0.12,0.40,-1.98,0.37,-0.17,-0.24,
4.778,0.12,0.40,-1.98,0.38,-0.19,-0.24,
4.778,0.12,0.40,-1.98,0.38,-0.20,-0.24,
4.781,0.27,0.60,-2.63,0.38,-0.20,-0.24,
4.782,0.27,0.60,-2.63,0.39,-0.22,-0.24,
4.786,0.27,0.60,-2.63,0.40,-0.24,-0.24,
4.787,0.27,0.60,-2.63,0.41,-0.27,-0.24,
4.788,0.27,0.60,-2.63,0.41,-0.29,-0.25,
4.788,0.27,0.60,-2.63,0.41,-0.30,-0.25,
4.79,0.35,0.73,-3.15,0.41,-0.30,-0.25,
4.79,0.35,0.73,-3.15,0.41,-0.32,-0.26,
4.794,0.35,0.73,-3.15,0.41,-0.33,-0.26,
4.795,0.35,0.73,-3.15,0.41,-0.36,-0.27,
4.799,0.35,0.73,-3.15,0.41,-0.38,-0.28,
4.8,0.35,0.73,-3.15,0.40,-0.39,-0.28,
4.803,0.46,0.92,-3.49,0.40,-0.39,-0.28,
4.803,0.46,0.92,-3.49,0.40,-0.40,-0.29,
4.803,0.46,0.92,-3.49,0.39,-0.42,-0.30,
4.807,0.46,0.92,-3.49,0.37,-0.44,-0.32,
4.812,0.46,0.92,-3.49,0.36,-0.45,-0.34,
4.813,0.46,0.92,-3.49,0.35,-0.46,-0.35,
4.813,0.61,1.01,-3.58,0.35,-0.46,-0.35,
4.813,0.61,1.01,-3.58,0.35,-0.46,-0.36,
4.813,0.61,1.01,-3.58,0.34,-0.46,-0.37,
4.815,0.61,1.01,-3.58,0.32,-0.46,-0.39,
4.817,0.61,1.01,-3.58,0.31,-0.47,-0.41,
4.818,0.61,1.01,-3.58,0.30,-0.47,-0.42,
4.82,0.71,1.14,-3.53,0.30,-0.47,-0.42,
4.82,0.71,1.14,-3.53,0.29,-0.47,-0.43,
4.822,0.71,1.14,-3.53,0.27,-0.47,-0.45,
4.828,0.71,1.14,-3.53,0.25,-0.47,-0.48,
4.829,0.71,1.14,-3.53,0.24,-0.46,-0.50,
4.829,0.71,1.14,-3.53,0.23,-0.46,-0.50,
4.834,0.58,1.16,-3.29,0.23,-0.46,-0.50,
4.835,0.58,1.16,-3.29,0.22,-0.46,-0.52,
4.836,0.58,1.16,-3.29,0.20,-0.46,-0.53,
4.837,0.58,1.16,-3.29,0.18,-0.46,-0.55,
4.838,0.58,1.16,-3.29,0.17,-0.45,-0.57,
4.838,0.58,1.16,-3.29,0.16,-0.45,-0.57,
4.842,0.30,1.22,-2.91,0.16,-0.45,-0.57,
4.843,0.30,1.22,-2.91,0.15,-0.45,-0.58,
4.844,0.30,1.22,-2.91,0.14,-0.44,-0.59,
4.847,0.30,1.22,-2.91,0.12,-0.44,-0.60,
4.847,0.30,1.22,-2.91,0.11,-0.43,-0.61,
4.875,0.30,1.22,-2.91,0.11,-0.43,-0.61,
4.876,-0.01,1.11,-2.35,0.11,-0.43,-0.61,
4.876,-0.01,1.11,-2.35,0.10,-0.42,-0.61,
4.876,-0.01,1.11,-2.35,0.09,-0.41,-0.62,
4.877,-0.01,1.11,-2.35,0.09,-0.40,-0.62,
4.877,-0.01,1.11,-2.35,0.08,-0.38,-0.62,
4.877,-0.01,1.11,-2.35,0.08,-0.37,-0.62,
4.877,-0.23,1.08,-1.84,0.08,-0.37,-0.62,
4.878,-0.23,1.08,-1.84,0.08,-0.36,-0.62,
4.878,-0.23,1.08,-1.84,0.07,-0.34,-0.61,
4.878,-0.23,1.08,-1.84,0.06,-0.33,-0.61,
4.878,-0.23,1.08,-1.84,0.05,-0.31,-0.60,
4.879,-0.23,1.08,-1.84,0.05,-0.31,-0.60,
4.879,-0.44,1.07,-1.43,0.05,-0.31,-0.60,
4.879,-0.44,1.07,-1.43,0.04,-0.30,-0.60,
4.879,-0.44,1.07,-1.43,0.04,-0.30,-0.59,
4.88,-0.44,1.07,-1.43,0.03,-0.29,-0.59,
4.88,-0.44,1.07,-1.43,0.02,-0.28,-0.58,
4.88,-0.44,1.07,-1.43,0.02,-0.28,-0.58,
4.88,-0.62,1.18,-1.08,0.02,-0.28,-0.58,
4.881,-0.62,1.18,-1.08,0.01,-0.27,-0.58,
4.891,-0.62,1.18,-1.08,0.01,-0.27,-0.57,
4.892,-0.62,1.18,-1.08,-0.00,-0.26,-0.57,
4.892,-0.62,1.18,-1.08,-0.01,-0.26,-0.57,
4.892,-0.62,1.18,-1.08,-0.01,-0.25,-0.57,
4.893,-0.64,1.23,-0.62,-0.01,-0.25,-0.57,
4.893,-0.64,1.23,-0.62,-0.01,-0.25,-0.57,
4.893,-0.64,1.23,-0.62,-0.02,-0.25,-0.57,
4.899,-0.64,1.23,-0.62,-0.02,-0.24,-0.57,
4.899,-0.64,1.23,-0.62,-0.02,-0.23,-0.57,
4.899,-0.64,1.23,-0.62,-0.02,-0.23,-0.57,
4.914,-0.74,1.30,-0.15,-0.02,-0.23,-0.57,
4.915,-0.74,1.30,-0.15,-0.02,-0.22,-0.57,
4.915,-0.74,1.30,-0.15,-0.02,-0.21,-0.57,
4.916,-0.74,1.30,-0.15,-0.02,-0.20,-0.57,
4.916,-0.74,1.30,-0.15,-0.02,-0.19,-0.57,
4.916,-0.74,1.30,-0.15,-0.02,-0.17,-0.56,
4.916,-0.95,1.26,0.34,-0.02,-0.17,-0.56,
4.917,-0.95,1.26,0.34,-0.02,-0.16,-0.55,
4.917,-0.95,1.26,0.34,-0.01,-0.15,-0.55,
4.917,-0.95,1.26,0.34,-0.01,-0.13,-0.54,
4.917,-0.95,1.26,0.34,-0.01,-0.12,-0.53,
4.919,-0.95,1.26,0.34,-0.00,-0.10,-0.51,
4.92,-1.34,1.26,0.85,-0.00,-0.10,-0.51,
4.921,-1.34,1.26,0.85,0.00,-0.09,-0.50,
4.922,-1.34,1.26,0.85,0.00,-0.07,-0.49,
4.925,-1.34,1.26,0.85,0.01,-0.05,-0.47,
4.926,-1.34,1.26,0.85,0.02,-0.04,-0.46,
4.928,-1.34,1.26,0.85,0.02,-0.03,-0.44,
4.931,-1.62,1.28,1.26,0.02,-0.03,-0.44,
4.931,-1.62,1.28,1.26,0.03,-0.02,-0.43,
4.932,-1.62,1.28,1.26,0.04,-0.00,-0.41,
4.935,-1.62,1.28,1.26,0.05,0.01,-0.39,
4.936,-1.62,1.28,1.26,0.06,0.02,-0.38,
4.939,-1.62,1.28,1.26,0.07,0.03,-0.36,
4.94,-1.90,1.36,1.66,0.07,0.03,-0.36,
4.94,-1.90,1.36,1.66,0.08,0.04,-0.34,
4.942,-1.90,1.36,1.66,0.09,0.05,-0.32,
4.947,-1.90,1.36,1.66,0.10,0.06,-0.31,
4.947,-1.90,1.36,1.66,0.11,0.07,-0.29,
4.951,-1.90,1.36,1.66,0.12,0.07,-0.27,
4.952,-2.00,1.36,2.09,0.12,0.07,-0.27,
4.952,-2.00,1.36,2.09,0.14,0.08,-0.25,
4.953,-2.00,1.36,2.09,0.15,0.09,-0.23,
4.955,-2.00,1.36,2.09,0.17,0.10,-0.21,
4.956,-2.00,1.36,2.09,0.19,0.10,-0.19,
4.958,-2.00,1.36,2.09,0.20,0.11,-0.17,
4.96,-2.08,1.35,2.48,0.20,0.11,-0.17,
4.96,-2.08,1.35,2.48,0.22,0.11,-0.15,
4.963,-2.08,1.35,2.48,0.24,0.11,-0.13,
4.965,-2.08,1.35,2.48,0.26,0.10,-0.11,
4.966,-2.08,1.35,2.48,0.28,0.09,-0.09,
4.968,-2.08,1.35,2.48,0.30,0.08,-0.07,
4.97,-2.08,1.30,2.75,0.30,0.08,-0.07,
4.97,-2.08,1.30,2.75,0.32,0.07,-0.05,
4.972,-2.08,1.30,2.75,0.35,0.06,-0.03,
4.975,-2.08,1.30,2.75,0.37,0.03,0.00,
4.976,-2.08,1.30,2.75,0.39,0.02,0.01,
4.979,-2.08,1.30,2.75,0.41,0.01,0.03,
4.982,-2.07,1.30,2.99,0.41,0.01,0.03,
4.983,-2.07,1.30,2.99,0.43,-0.00,0.05,
4.983,-2.07,1.30,2.99,0.45,-0.01,0.07,
4.985,-2.07,1.30,2.99,0.46,-0.03,0.08,
4.986,-2.07,1.30,2.99,0.48,-0.03,0.09,
4.988,-2.07,1.30,2.99,0.50,-0.04,0.11,
4.99,-1.78,1.28,3.04,0.50,-0.04,0.11,
4.99,-1.78,1.28,3.04,0.51,-0.05,0.12,
