
time,ax,ay,az,wx,wy,wz,
0.003,-1.32,0.23,1.90,0.32,-0.56,0.07,
0.003,-1.32,0.23,1.90,0.34,-0.57,0.07,
0.004,-1.32,0.23,1.90,0.35,-0.58,0.08,
0.004,-1.32,0.23,1.90,0.36,-0.59,0.07,
0.004,-1.32,0.23,1.90,0.36,-0.60,0.07,
0.005,-1.32,0.23,1.90,0.36,-0.61,0.07,
0.005,-0.54,0.24,1.21,0.36,-0.61,0.07,
0.005,-0.54,0.24,1.21,0.36,-0.61,0.06,
0.005,-0.54,0.24,1.21,0.35,-0.61,0.06,
0.006,-0.54,0.24,1.21,0.34,-0.60,0.05,
0.006,-0.54,0.24,1.21,0.32,-0.59,0.04,
0.006,-0.54,0.24,1.21,0.30,-0.59,0.04,
0.017,0.24,0.21,0.53,0.30,-0.59,0.04,
0.018,0.24,0.21,0.53,0.29,-0.59,0.03,
0.018,0.24,0.21,0.53,0.27,-0.61,0.03,
0.018,0.24,0.21,0.53,0.25,-0.62,0.02,
0.019,0.24,0.21,0.53,0.22,-0.63,0.01,
0.019,0.24,0.21,0.53,0.20,-0.63,-0.01,
0.019,1.02,-0.08,-0.08,0.20,-0.63,-0.01,
0.02,1.02,-0.08,-0.08,0.17,-0.63,-0.03,
0.02,1.02,-0.08,-0.08,0.15,-0.62,-0.05,
0.028,1.02,-0.08,-0.08,0.13,-0.62,-0.08,
0.029,1.02,-0.08,-0.08,0.11,-0.64,-0.10,
0.029,1.02,-0.08,-0.08,0.10,-0.66,-0.11,
0.03,1.20,-0.13,-0.19,0.10,-0.66,-0.11,
0.03,1.20,-0.13,-0.19,0.09,-0.70,-0.12,
0.03,1.20,-0.13,-0.19,0.09,-0.73,-0.14,
0.032,1.20,-0.13,-0.19,0.08,-0.75,-0.15,
0.036,1.20,-0.13,-0.19,0.07,-0.76,-0.16,
0.036,1.20,-0.13,-0.19,0.06,-0.77,-0.17,
0.038,1.27,-0.20,-0.50,0.06,-0.77,-0.17,
0.039,1.27,-0.20,-0.50,0.05,-0.78,-0.19,
0.04,1.27,-0.20,-0.50,0.04,-0.81,-0.20,
0.043,1.27,-0.20,-0.50,0.03,-0.84,-0.21,
0.045,1.27,-0.20,-0.50,0.03,-0.88,-0.23,
0.046,1.27,-0.20,-0.50,0.02,-0.92,-0.23,
0.05,1.05,-0.12,-0.69,0.02,-0.92,-0.23,
0.051,1.05,-0.12,-0.69,0.02,-0.96,-0.20,
0.051,1.05,-0.12,-0.69,0.03,-1.00,-0.18,
0.059,1.05,-0.12,-0.69,0.03,-1.04,-0.17,
0.06,1.05,-0.12,-0.69,0.04,-1.09,-0.15,
0.06,1.05,-0.12,-0.69,0.05,-1.14,-0.13,
0.061,0.27,0.14,-0.42,0.05,-1.14,-0.13,
0.061,0.27,0.14,-0.42,0.06,-1.18,-0.11,
0.061,0.27,0.14,-0.42,0.07,-1.23,-0.09,
0.064,0.27,0.14,-0.42,0.08,-1.28,-0.07,
0.07,0.27,0.14,-0.42,0.08,-1.32,-0.05,
0.071,0.27,0.14,-0.42,0.09,-1.36,-0.03,
0.071,-0.15,0.17,-0.25,0.09,-1.36,-0.03,
0.071,-0.15,0.17,-0.25,0.09,-1.39,-0.01,
0.072,-0.15,0.17,-0.25,0.10,-1.42,0.02,
0.072,-0.15,0.17,-0.25,0.11,-1.45,0.04,
0.074,-0.15,0.17,-0.25,0.11,-1.48,0.06,
0.076,-0.15,0.17,-0.25,0.12,-1.51,0.08,
0.079,-0.05,0.18,-0.07,0.12,-1.51,0.08,
0.079,-0.05,0.18,-0.07,0.12,-1.54,0.11,
0.08,-0.05,0.18,-0.07,0.12,-1.57,0.13,
0.084,-0.05,0.18,-0.07,0.12,-1.60,0.16,
0.085,-0.05,0.18,-0.07,0.12,-1.63,0.17,
0.087,-0.05,0.18,-0.07,0.11,-1.66,0.19,
0.09,0.40,0.29,0.05,0.11,-1.66,0.19,
0.091,0.40,0.29,0.05,0.11,-1.68,0.20,
0.091,0.40,0.29,0.05,0.10,-1.70,0.21,
0.094,0.40,0.29,0.05,0.09,-1.71,0.21,
0.095,0.40,0.29,0.05,0.09,-1.72,0.21,
0.098,0.40,0.29,0.05,0.08,-1.72,0.21,
0.099,0.85,0.21,-0.08,0.08,-1.72,0.21,
0.099,0.85,0.21,-0.08,0.07,-1.71,0.20,
0.104,0.85,0.21,-0.08,0.06,-1.69,0.19,
0.105,0.85,0.21,-0.08,0.05,-1.67,0.19,
0.105,0.85,0.21,-0.08,0.04,-1.64,0.18,
0.106,0.85,0.21,-0.08,0.04,-1.61,0.18,
0.108,0.80,0.11,-0.52,0.04,-1.61,0.18,
0.108,0.80,0.11,-0.52,0.04,-1.57,0.18,
0.11,0.80,0.11,-0.52,0.04,-1.53,0.19,
0.129,0.80,0.11,-0.52,0.05,-1.48,0.21,
0.129,0.80,0.11,-0.52,0.06,-1.43,0.22,
0.129,0.80,0.11,-0.52,0.06,-1.37,0.24,
0.13,0.35,0.14,-1.04,0.06,-1.37,0.24,
0.13,0.35,0.14,-1.04,0.07,-1.30,0.25,
0.131,0.35,0.14,-1.04,0.07,-1.23,0.27,
0.131,0.35,0.14,-1.04,0.08,-1.15,0.29,
0.132,0.35,0.14,-1.04,0.08,-1.08,0.31,
0.132,0.35,0.14,-1.04,0.08,-1.03,0.34,
0.133,-0.42,-0.32,-1.58,0.08,-1.03,0.34,
0.133,-0.42,-0.32,-1.58,0.08,-0.98,0.38,
0.133,-0.42,-0.32,-1.58,0.08,-0.92,0.42,
0.134,-0.42,-0.32,-1.58,0.09,-0.87,0.46,
0.152,-0.42,-0.32,-1.58,0.09,-0.82,0.49,
0.153,-0.42,-0.32,-1.58,0.09,-0.78,0.52,
0.154,-0.82,-0.80,-1.48,0.09,-0.78,0.52,
0.154,-0.82,-0.80,-1.48,0.09,-0.75,0.55,
0.154,-0.82,-0.80,-1.48,0.09,-0.71,0.58,
0.155,-0.82,-0.80,-1.48,0.09,-0.68,0.61,
0.155,-0.82,-0.80,-1.48,0.08,-0.66,0.64,
0.156,-0.82,-0.80,-1.48,0.07,-0.64,0.66,
0.156,-0.43,-0.77,-1.55,0.07,-0.64,0.66,
0.156,-0.43,-0.77,-1.55,0.07,-0.62,0.68,
0.157,-0.43,-0.77,-1.55,0.06,-0.61,0.71,
0.157,-0.43,-0.77,-1.55,0.04,-0.60,0.73,
0.158,-0.43,-0.77,-1.55,0.03,-0.59,0.75,
0.158,-0.43,-0.77,-1.55,0.01,-0.58,0.78,
0.181,0.03,-0.77,-1.79,0.01,-0.58,0.78,
0.182,0.03,-0.77,-1.79,-0.00,-0.58,0.80,
0.182,0.03,-0.77,-1.79,-0.02,-0.58,0.82,
0.183,0.03,-0.77,-1.79,-0.04,-0.57,0.84,
0.183,0.03,-0.77,-1.79,-0.07,-0.56,0.86,
0.183,0.03,-0.77,-1.79,-0.09,-0.55,0.87,
0.184,0.33,-0.89,-2.13,-0.09,-0.55,0.87,
0.184,0.33,-0.89,-2.13,-0.11,-0.53,0.88,
0.184,0.33,-0.89,-2.13,-0.14,-0.52,0.89,
0.185,0.33,-0.89,-2.13,-0.17,-0.49,0.90,
0.185,0.33,-0.89,-2.13,-0.20,-0.47,0.91,
0.185,0.33,-0.89,-2.13,-0.24,-0.44,0.91,
0.186,0.47,-1.05,-2.51,-0.24,-0.44,0.91,
0.186,0.47,-1.05,-2.51,-0.27,-0.40,0.92,
0.186,0.47,-1.05,-2.51,-0.31,-0.36,0.92,
0.187,0.47,-1.05,-2.51,-0.34,-0.31,0.93,
0.187,0.47,-1.05,-2.51,-0.38,-0.27,0.93,
0.187,0.47,-1.05,-2.51,-0.42,-0.22,0.94,
0.199,0.39,-1.34,-2.51,-0.42,-0.22,0.94,
0.2,0.39,-1.34,-2.51,-0.45,-0.18,0.94,
0.2,0.39,-1.34,-2.51,-0.48,-0.12,0.95,
0.2,0.39,-1.34,-2.51,-0.52,-0.05,0.94,
0.201,0.39,-1.34,-2.51,-0.56,0.02,0.94,
0.201,0.39,-1.34,-2.51,-0.60,0.09,0.94,
0.201,0.61,-1.48,-2.16,-0.60,0.09,0.94,
0.202,0.61,-1.48,-2.16,-0.64,0.16,0.93,
0.202,0.61,-1.48,-2.16,-0.67,0.23,0.92,
0.217,0.61,-1.48,-2.16,-0.71,0.30,0.91,
0.218,0.61,-1.48,-2.16,-0.75,0.37,0.90,
0.218,0.61,-1.48,-2.16,-0.79,0.44,0.89,
0.218,1.14,-1.38,-2.01,-0.79,0.44,0.89,
0.219,1.14,-1.38,-2.01,-0.83,0.50,0.88,
0.219,1.14,-1.38,-2.01,-0.87,0.57,0.86,
0.219,1.14,-1.38,-2.01,-0.90,0.63,0.84,
0.22,1.14,-1.38,-2.01,-0.93,0.70,0.81,
0.22,1.14,-1.38,-2.01,-0.97,0.77,0.77,
0.22,2.30,-0.91,-2.11,-0.97,0.77,0.77,
0.221,2.30,-0.91,-2.11,-1.00,0.84,0.73,
0.233,2.30,-0.91,-2.11,-1.02,0.91,0.69,
0.234,2.30,-0.91,-2.11,-1.05,0.99,0.64,
0.234,2.30,-0.91,-2.11,-1.07,1.06,0.59,
0.234,2.30,-0.91,-2.11,-1.09,1.13,0.53,
0.235,3.12,-0.56,-2.15,-1.09,1.13,0.53,
0.235,3.12,-0.56,-2.15,-1.10,1.19,0.47,
0.235,3.12,-0.56,-2.15,-1.12,1.26,0.41,
0.236,3.12,-0.56,-2.15,-1.14,1.33,0.35,
0.236,3.12,-0.56,-2.15,-1.17,1.39,0.27,
0.242,3.12,-0.56,-2.15,-1.19,1.46,0.19,
0.245,3.69,-0.66,-2.18,-1.19,1.46,0.19,
0.246,3.69,-0.66,-2.18,-1.22,1.53,0.11,
0.248,3.69,-0.66,-2.18,-1.24,1.59,0.02,
0.25,3.69,-0.66,-2.18,-1.28,1.65,-0.07,
0.253,3.69,-0.66,-2.18,-1.31,1.71,-0.16,
0.253,3.69,-0.66,-2.18,-1.34,1.77,-0.25,
0.255,3.33,-0.99,-2.26,-1.34,1.77,-0.25,
0.256,3.33,-0.99,-2.26,-1.36,1.84,-0.34,
0.257,3.33,-0.99,-2.26,-1.39,1.91,-0.43,
0.258,3.33,-0.99,-2.26,-1.41,1.99,-0.51,
0.259,3.33,-0.99,-2.26,-1.44,2.06,-0.59,
0.26,3.33,-0.99,-2.26,-1.45,2.13,-0.66,
0.261,2.36,-1.50,-2.00,-1.45,2.13,-0.66,
0.261,2.36,-1.50,-2.00,-1.47,2.18,-0.72,
0.262,2.36,-1.50,-2.00,-1.48,2.23,-0.77,
0.262,2.36,-1.50,-2.00,-1.50,2.23,-0.81,
0.285,2.36,-1.50,-2.00,-1.53,2.20,-0.85,
0.288,2.36,-1.50,-2.00,-1.56,2.17,-0.88,
0.289,1.40,-1.46,-2.13,-1.56,2.17,-0.88,
0.29,1.40,-1.46,-2.13,-1.60,2.13,-0.91,
0.292,1.40,-1.46,-2.13,-1.65,2.09,-0.92,
0.294,1.40,-1.46,-2.13,-1.70,2.05,-0.93,
0.295,1.40,-1.46,-2.13,-1.76,2.01,-0.93,
0.296,1.40,-1.46,-2.13,-1.83,2.00,-0.92,
0.298,0.53,-0.86,-2.51,-1.83,2.00,-0.92,
0.35,0.53,-0.86,-2.51,-1.90,2.01,-0.91,
0.351,0.53,-0.86,-2.51,-1.97,2.04,-0.90,
0.352,0.53,-0.86,-2.51,-2.05,2.09,-0.87,
0.354,0.53,-0.86,-2.51,-2.12,2.17,-0.85,
0.354,0.53,-0.86,-2.51,-2.19,2.28,-0.82,
0.355,-0.34,-0.89,-1.95,-2.19,2.28,-0.82,
0.356,-0.34,-0.89,-1.95,-2.26,2.39,-0.79,
0.357,-0.34,-0.89,-1.95,-2.32,2.50,-0.77,
0.358,-0.34,-0.89,-1.95,-2.38,2.61,-0.74,
0.359,-0.34,-0.89,-1.95,-2.47,2.73,-0.71,
0.36,-0.34,-0.89,-1.95,-2.49,2.77,-0.70,
0.361,-0.12,-1.15,-0.99,-2.49,2.77,-0.70,
0.362,-0.12,-1.15,-0.99,-2.55,2.82,-0.68,
0.364,-0.12,-1.15,-0.99,-2.59,2.85,-0.66,
0.365,-0.12,-1.15,-0.99,-2.63,2.88,-0.64,
0.366,-0.12,-1.15,-0.99,-2.66,2.89,-0.62,
0.367,-0.12,-1.15,-0.99,-2.68,2.89,-0.60,
0.368,0.39,-1.21,0.15,-2.68,2.89,-0.60,
0.369,0.39,-1.21,0.15,-2.70,2.89,-0.58,
0.37,0.39,-1.21,0.15,-2.71,2.88,-0.56,
0.372,0.39,-1.21,0.15,-2.71,2.86,-0.54,
0.373,0.39,-1.21,0.15,-2.70,2.84,-0.50,
0.374,0.39,-1.21,0.15,-2.69,2.80,-0.46,
0.375,0.48,-1.34,1.29,-2.69,2.80,-0.46,
0.376,0.48,-1.34,1.29,-2.66,2.75,-0.42,
0.377,0.48,-1.34,1.29,-2.63,2.69,-0.38,
0.378,0.48,-1.34,1.29,-2.60,2.62,-0.35,
0.379,0.48,-1.34,1.29,-2.56,2.55,-0.33,
0.38,0.48,-1.34,1.29,-2.51,2.50,-0.31,
0.381,1.09,-0.77,2.19,-2.51,2.50,-0.31,
0.383,1.09,-0.77,2.19,-2.46,2.45,-0.30,
0.384,1.09,-0.77,2.19,-2.41,2.42,-0.30,
0.385,1.09,-0.77,2.19,-2.36,2.40,-0.29,
0.386,1.09,-0.77,2.19,-2.30,2.38,-0.30,
0.388,1.09,-0.77,2.19,-2.24,2.37,-0.30,
0.389,1.64,0.14,2.72,-2.24,2.37,-0.30,
0.39,1.64,0.14,2.72,-2.18,2.36,-0.31,
0.391,1.64,0.14,2.72,-2.13,2.36,-0.32,
0.392,1.64,0.14,2.72,-2.07,2.36,-0.32,
0.393,1.64,0.14,2.72,-2.01,2.36,-0.34,
0.394,1.64,0.14,2.72,-1.95,2.35,-0.35,
0.394,1.70,0.28,2.72,-1.95,2.35,-0.35,
0.396,1.70,0.28,2.72,-1.89,2.33,-0.36,
0.396,1.70,0.28,2.72,-1.83,2.30,-0.37,
0.397,1.70,0.28,2.72,-1.76,2.26,-0.39,
0.398,1.70,0.28,2.72,-1.70,2.20,-0.41,
0.399,1.70,0.28,2.72,-1.63,2.14,-0.43,
0.401,1.78,-0.29,2.92,-1.63,2.14,-0.43,
0.401,1.78,-0.29,2.92,-1.57,2.06,-0.45,
0.402,1.78,-0.29,2.92,-1.50,1.98,-0.48,
0.403,1.78,-0.29,2.92,-1.44,1.88,-0.51,
0.404,1.78,-0.29,2.92,-1.38,1.77,-0.54,
0.405,1.78,-0.29,2.92,-1.32,1.65,-0.58,
0.405,1.54,-0.95,3.00,-1.32,1.65,-0.58,
0.406,1.54,-0.95,3.00,-1.26,1.52,-0.62,
0.407,1.54,-0.95,3.00,-1.20,1.38,-0.66,
0.408,1.54,-0.95,3.00,-1.15,1.22,-0.70,
0.409,1.54,-0.95,3.00,-1.10,1.05,-0.75,
0.409,1.54,-0.95,3.00,-1.05,0.87,-0.81,
0.41,1.19,-1.34,2.80,-1.05,0.87,-0.81,
0.411,1.19,-1.34,2.80,-1.00,0.67,-0.86,
0.412,1.19,-1.34,2.80,-0.95,0.47,-0.92,
0.412,1.19,-1.34,2.80,-0.91,0.27,-0.98,
0.413,1.19,-1.34,2.80,-0.86,0.07,-1.03,
0.413,1.19,-1.34,2.80,-0.82,-0.13,-1.09,
0.414,0.50,-1.18,2.39,-0.82,-0.13,-1.09,
0.415,0.50,-1.18,2.39,-0.77,-0.33,-1.13,
0.416,0.50,-1.18,2.39,-0.72,-0.51,-1.17,
0.416,0.50,-1.18,2.39,-0.67,-0.70,-1.21,
0.417,0.50,-1.18,2.39,-0.61,-0.87,-1.24,
0.418,0.50,-1.18,2.39,-0.56,-1.03,-1.26,
0.419,-0.50,-0.84,1.73,-0.56,-1.03,-1.26,
0.42,-0.50,-0.84,1.73,-0.50,-1.17,-1.28,
0.421,-0.50,-0.84,1.73,-0.44,-1.31,-1.29,
0.422,-0.50,-0.84,1.73,-0.39,-1.43,-1.31,
0.423,-0.50,-0.84,1.73,-0.33,-1.54,-1.32,
0.423,-0.50,-0.84,1.73,-0.27,-1.65,-1.32,
0.424,-0.97,-0.79,1.13,-0.27,-1.65,-1.32,
0.425,-0.97,-0.79,1.13,-0.21,-1.74,-1.33,
0.425,-0.97,-0.79,1.13,-0.15,-1.83,-1.34,
0.426,-0.97,-0.79,1.13,-0.09,-1.91,-1.35,
0.426,-0.97,-0.79,1.13,-0.04,-1.99,-1.36,
0.427,-0.97,-0.79,1.13,0.02,-2.05,-1.37,
0.428,-1.06,-0.95,0.89,0.02,-2.05,-1.37,
0.429,-1.06,-0.95,0.89,0.08,-2.11,-1.38,
0.429,-1.06,-0.95,0.89,0.14,-2.18,-1.39,
0.43,-1.06,-0.95,0.89,0.19,-2.24,-1.40,
0.431,-1.06,-0.95,0.89,0.25,-2.30,-1.41,
0.432,-1.06,-0.95,0.89,0.30,-2.36,-1.42,
0.433,-0.91,-1.07,0.88,0.30,-2.36,-1.42,
0.433,-0.91,-1.07,0.88,0.35,-2.42,-1.42,
0.434,-0.91,-1.07,0.88,0.40,-2.48,-1.43,
0.435,-0.91,-1.07,0.88,0.45,-2.53,-1.43,
0.435,-0.91,-1.07,0.88,0.49,-2.58,-1.44,
0.436,-0.91,-1.07,0.88,0.53,-2.62,-1.44,
0.444,-0.88,-1.11,0.83,0.53,-2.62,-1.44,
0.447,-0.88,-1.11,0.83,0.57,-2.66,-1.44,
0.448,-0.88,-1.11,0.83,0.61,-2.68,-1.44,
0.449,-0.88,-1.11,0.83,0.64,-2.69,-1.44,
0.453,-0.88,-1.11,0.83,0.68,-2.71,-1.44,
0.488,-0.88,-1.11,0.83,0.72,-2.78,-1.44,
0.489,-0.80,-1.08,0.71,0.72,-2.78,-1.44,
0.489,-0.80,-1.08,0.71,0.76,-2.88,-1.43,
0.49,-0.80,-1.08,0.71,0.80,-2.99,-1.42,
0.49,-0.80,-1.08,0.71,0.84,-3.11,-1.41,
0.49,-0.80,-1.08,0.71,0.87,-3.23,-1.39,
0.491,-0.80,-1.08,0.71,0.88,-3.34,-1.37,
0.491,-0.60,-0.84,0.42,0.88,-3.34,-1.37,
0.492,-0.60,-0.84,0.42,0.84,-3.40,-1.34,
0.492,-0.60,-0.84,0.42,0.72,-3.31,-1.28,
0.493,-0.60,-0.84,0.42,0.48,-3.10,-1.19,
0.493,-0.60,-0.84,0.42,0.21,-2.86,-1.08,
0.494,-0.60,-0.84,0.42,0.00,-2.71,-0.99,
0.494,-1.81,-1.25,-2.54,0.00,-2.71,-0.99,
0.494,-1.81,-1.25,-2.54,-0.12,-2.66,-0.92,
0.495,-1.81,-1.25,-2.54,-0.20,-2.64,-0.87,
0.495,-1.81,-1.25,-2.54,-0.23,-2.63,-0.83,
0.496,-1.81,-1.25,-2.54,-0.24,-2.62,-0.80,
0.496,-1.81,-1.25,-2.54,-0.24,-2.60,-0.77,
0.497,-1.16,-1.07,-0.29,-0.24,-2.60,-0.77,
0.497,-1.16,-1.07,-0.29,-0.23,-2.57,-0.73,
0.498,-1.16,-1.07,-0.29,-0.22,-2.55,-0.69,
0.498,-1.16,-1.07,-0.29,-0.20,-2.53,-0.65,
0.498,-1.16,-1.07,-0.29,-0.18,-2.51,-0.62,
0.499,-1.16,-1.07,-0.29,-0.16,-2.50,-0.59,
0.499,-0.62,-0.69,0.37,-0.16,-2.50,-0.59,
0.5,-0.62,-0.69,0.37,-0.13,-2.49,-0.56,
0.5,-0.62,-0.69,0.37,-0.09,-2.48,-0.53,
0.501,-0.62,-0.69,0.37,-0.06,-2.45,-0.50,
0.501,-0.62,-0.69,0.37,-0.02,-2.42,-0.47,
0.501,-0.62,-0.69,0.37,0.02,-2.39,-0.45,
0.502,-0.58,-0.58,0.19,0.02,-2.39,-0.45,
0.502,-0.58,-0.58,0.19,0.07,-2.35,-0.43,
0.503,-0.58,-0.58,0.19,0.11,-2.31,-0.41,
0.503,-0.58,-0.58,0.19,0.15,-2.27,-0.38,
0.504,-0.58,-0.58,0.19,0.20,-2.21,-0.36,
0.513,-0.58,-0.58,0.19,0.24,-2.16,-0.34,
0.514,-0.96,-0.53,-0.21,0.24,-2.16,-0.34,
0.514,-0.96,-0.53,-0.21,0.28,-2.10,-0.32,
0.515,-0.96,-0.53,-0.21,0.32,-2.05,-0.31,
0.515,-0.96,-0.53,-0.21,0.35,-2.00,-0.29,
0.516,-0.96,-0.53,-0.21,0.39,-1.95,-0.27,
0.542,-0.96,-0.53,-0.21,0.43,-1.91,-0.24,
0.543,-1.36,-0.52,-0.73,0.43,-1.91,-0.24,
0.544,-1.36,-0.52,-0.73,0.45,-1.86,-0.20,
0.544,-1.36,-0.52,-0.73,0.48,-1.82,-0.15,
0.544,-1.36,-0.52,-0.73,0.49,-1.78,-0.10,
0.545,-1.36,-0.52,-0.73,0.51,-1.75,-0.04,
0.545,-1.36,-0.52,-0.73,0.52,-1.73,0.03,
0.546,-1.99,-0.56,-1.16,0.52,-1.73,0.03,
0.546,-1.99,-0.56,-1.16,0.53,-1.73,0.09,
0.546,-1.99,-0.56,-1.16,0.54,-1.75,0.17,
0.547,-1.99,-0.56,-1.16,0.55,-1.78,0.24,
0.547,-1.99,-0.56,-1.16,0.57,-1.84,0.31,
0.547,-1.99,-0.56,-1.16,0.58,-1.90,0.39,
0.548,-2.39,-0.39,-0.53,0.58,-1.90,0.39,
0.548,-2.39,-0.39,-0.53,0.60,-1.98,0.47,
0.549,-2.39,-0.39,-0.53,0.62,-2.07,0.54,
0.549,-2.39,-0.39,-0.53,0.64,-2.18,0.60,
0.549,-2.39,-0.39,-0.53,0.65,-2.29,0.66,
0.55,-2.39,-0.39,-0.53,0.67,-2.40,0.72,
0.55,-2.21,0.02,0.15,0.67,-2.40,0.72,
0.55,-2.21,0.02,0.15,0.68,-2.53,0.77,
0.551,-2.21,0.02,0.15,0.70,-2.66,0.80,
0.571,-2.21,0.02,0.15,0.71,-2.78,0.83,
0.572,-2.21,0.02,0.15,0.73,-2.90,0.85,
0.572,-2.21,0.02,0.15,0.74,-3.01,0.84,
0.572,-1.65,0.34,0.54,0.74,-3.01,0.84,
0.573,-1.65,0.34,0.54,0.75,-3.12,0.81,
0.573,-1.65,0.34,0.54,0.76,-3.21,0.76,
0.573,-1.65,0.34,0.54,0.76,-3.29,0.69,
0.574,-1.65,0.34,0.54,0.77,-3.36,0.60,
0.574,-1.65,0.34,0.54,0.76,-3.44,0.49,
0.574,-0.43,-0.09,0.17,0.76,-3.44,0.49,
0.574,-0.43,-0.09,0.17,0.76,-3.49,0.38,
0.575,-0.43,-0.09,0.17,0.76,-3.48,0.25,
0.575,-0.43,-0.09,0.17,0.76,-3.43,0.11,
0.575,-0.43,-0.09,0.17,0.76,-3.34,-0.03,
0.576,-0.43,-0.09,0.17,0.77,-3.26,-0.16,
0.583,0.07,-0.83,0.15,0.77,-3.26,-0.16,
0.583,0.07,-0.83,0.15,0.78,-3.17,-0.28,
0.584,0.07,-0.83,0.15,0.79,-3.10,-0.38,
0.584,0.07,-0.83,0.15,0.81,-3.03,-0.46,
0.584,0.07,-0.83,0.15,0.82,-2.96,-0.51,
0.61,0.07,-0.83,0.15,0.84,-2.89,-0.54,
0.611,-0.83,-1.59,0.09,0.84,-2.89,-0.54,
0.611,-0.83,-1.59,0.09,0.85,-2.83,-0.55,
0.612,-0.83,-1.59,0.09,0.86,-2.78,-0.54,
0.612,-0.83,-1.59,0.09,0.86,-2.74,-0.51,
0.612,-0.83,-1.59,0.09,0.86,-2.70,-0.47,
0.612,-0.83,-1.59,0.09,0.86,-2.68,-0.42,
0.613,-2.83,-1.54,-0.02,0.86,-2.68,-0.42,
0.613,-2.83,-1.54,-0.02,0.85,-2.65,-0.35,
0.613,-2.83,-1.54,-0.02,0.84,-2.63,-0.28,
0.614,-2.83,-1.54,-0.02,0.83,-2.61,-0.21,
0.614,-2.83,-1.54,-0.02,0.82,-2.60,-0.13,
0.614,-2.83,-1.54,-0.02,0.81,-2.59,-0.06,
0.615,-3.98,-0.96,-0.22,0.81,-2.59,-0.06,
0.615,-3.98,-0.96,-0.22,0.80,-2.58,0.02,
0.615,-3.98,-0.96,-0.22,0.79,-2.57,0.09,
0.642,-3.98,-0.96,-0.22,0.78,-2.57,0.16,
0.643,-3.98,-0.96,-0.22,0.78,-2.57,0.21,
0.643,-3.98,-0.96,-0.22,0.77,-2.57,0.26,
0.644,-3.90,-0.72,-0.51,0.77,-2.57,0.26,
0.644,-3.90,-0.72,-0.51,0.77,-2.57,0.30,
0.645,-3.90,-0.72,-0.51,0.77,-2.58,0.33,
0.645,-3.90,-0.72,-0.51,0.77,-2.58,0.36,
0.645,-3.90,-0.72,-0.51,0.78,-2.59,0.37,
0.646,-3.90,-0.72,-0.51,0.79,-2.60,0.39,
0.646,-3.24,-0.56,-0.63,0.79,-2.60,0.39,
0.647,-3.24,-0.56,-0.63,0.80,-2.60,0.41,
0.647,-3.24,-0.56,-0.63,0.81,-2.60,0.42,
0.648,-3.24,-0.56,-0.63,0.82,-2.60,0.43,
0.648,-3.24,-0.56,-0.63,0.83,-2.60,0.44,
0.649,-3.24,-0.56,-0.63,0.84,-2.60,0.45,
0.649,-3.08,-0.47,-0.87,0.84,-2.60,0.45,
0.649,-3.08,-0.47,-0.87,0.84,-2.61,0.46,
0.65,-3.08,-0.47,-0.87,0.84,-2.61,0.47,
0.65,-3.08,-0.47,-0.87,0.84,-2.62,0.49,
0.651,-3.08,-0.47,-0.87,0.82,-2.63,0.51,
0.651,-3.08,-0.47,-0.87,0.82,-2.64,0.52,
0.652,-2.89,-0.33,-1.34,0.82,-2.64,0.52,
0.652,-2.89,-0.33,-1.34,0.80,-2.65,0.54,
0.652,-2.89,-0.33,-1.34,0.78,-2.66,0.55,
0.653,-2.89,-0.33,-1.34,0.76,-2.68,0.57,
0.656,-2.89,-0.33,-1.34,0.74,-2.70,0.58,
0.656,-2.89,-0.33,-1.34,0.72,-2.71,0.60,
0.658,-2.81,-0.09,-1.68,0.72,-2.71,0.60,
0.659,-2.81,-0.09,-1.68,0.69,-2.73,0.61,
0.66,-2.81,-0.09,-1.68,0.67,-2.75,0.63,
0.665,-2.81,-0.09,-1.68,0.65,-2.76,0.64,
0.665,-2.81,-0.09,-1.68,0.63,-2.77,0.66,
0.667,-2.81,-0.09,-1.68,0.61,-2.78,0.67,
0.668,-2.66,-0.04,-1.75,0.61,-2.78,0.67,
0.669,-2.66,-0.04,-1.75,0.60,-2.78,0.68,
0.67,-2.66,-0.04,-1.75,0.58,-2.80,0.69,
0.672,-2.66,-0.04,-1.75,0.57,-2.81,0.71,
0.674,-2.66,-0.04,-1.75,0.57,-2.82,0.72,
0.676,-2.66,-0.04,-1.75,0.56,-2.83,0.73,
0.678,-2.64,-0.13,-1.46,0.56,-2.83,0.73,
0.679,-2.64,-0.13,-1.46,0.56,-2.85,0.75,
0.686,-2.64,-0.13,-1.46,0.56,-2.87,0.76,
0.687,-2.64,-0.13,-1.46,0.57,-2.89,0.78,
0.687,-2.64,-0.13,-1.46,0.58,-2.92,0.79,
0.688,-2.64,-0.13,-1.46,0.59,-2.96,0.80,
0.689,-2.48,-0.37,-1.19,0.59,-2.96,0.80,
0.689,-2.48,-0.37,-1.19,0.60,-3.00,0.82,
0.69,-2.48,-0.37,-1.19,0.62,-3.04,0.83,
0.694,-2.48,-0.37,-1.19,0.64,-3.09,0.84,
0.695,-2.48,-0.37,-1.19,0.66,-3.15,0.86,
0.71,-2.48,-0.37,-1.19,0.69,-3.21,0.87,
0.71,-2.38,-0.41,-0.94,0.69,-3.21,0.87,
0.711,-2.38,-0.41,-0.94,0.71,-3.27,0.88,
0.711,-2.38,-0.41,-0.94,0.73,-3.34,0.89,
0.711,-2.38,-0.41,-0.94,0.74,-3.42,0.90,
0.712,-2.38,-0.41,-0.94,0.75,-3.49,0.90,
0.712,-2.38,-0.41,-0.94,0.76,-3.56,0.91,
0.712,-2.08,-0.18,-1.11,0.76,-3.56,0.91,
0.713,-2.08,-0.18,-1.11,0.77,-3.63,0.91,
0.713,-2.08,-0.18,-1.11,0.77,-3.70,0.92,
0.713,-2.08,-0.18,-1.11,0.77,-3.76,0.92,
0.716,-2.08,-0.18,-1.11,0.76,-3.82,0.93,
0.717,-2.08,-0.18,-1.11,0.74,-3.87,0.94,
0.718,-1.89,-0.02,-1.47,0.74,-3.87,0.94,
0.719,-1.89,-0.02,-1.47,0.73,-3.92,0.95,
0.721,-1.89,-0.02,-1.47,0.70,-3.96,0.95,
0.722,-1.89,-0.02,-1.47,0.68,-4.00,0.96,
0.724,-1.89,-0.02,-1.47,0.65,-4.04,0.98,
0.726,-1.89,-0.02,-1.47,0.62,-4.07,0.99,
0.728,-1.88,-0.20,-1.71,0.62,-4.07,0.99,
0.729,-1.88,-0.20,-1.71,0.59,-4.09,1.01,
0.731,-1.88,-0.20,-1.71,0.56,-4.11,1.02,
0.733,-1.88,-0.20,-1.71,0.53,-4.12,1.04,
0.74,-2.07,-0.58,-1.60,0.53,-4.12,1.04,
0.74,-2.07,-0.58,-1.60,0.43,-4.13,1.10,
0.74,-2.07,-0.58,-1.60,0.43,-4.13,1.10,
0.741,-2.07,-0.58,-1.60,0.43,-4.13,1.10,
0.741,-2.07,-0.58,-1.60,0.41,-4.12,1.12,
0.742,-2.07,-0.58,-1.60,0.38,-4.11,1.14,
0.744,-2.07,-0.58,-1.60,0.36,-4.10,1.17,
0.746,-2.07,-0.58,-1.60,0.34,-4.08,1.20,
0.748,-2.12,-0.89,-1.13,0.34,-4.08,1.20,
0.749,-2.12,-0.89,-1.13,0.32,-4.07,1.23,
0.75,-2.12,-0.89,-1.13,0.30,-4.06,1.26,
0.752,-2.12,-0.89,-1.13,0.29,-4.04,1.29,
0.754,-2.12,-0.89,-1.13,0.29,-4.03,1.32,
0.756,-2.12,-0.89,-1.13,0.29,-4.02,1.35,
0.758,-1.83,-1.22,0.03,0.29,-4.02,1.35,
0.759,-1.83,-1.22,0.03,0.29,-4.02,1.37,
0.76,-1.83,-1.22,0.03,0.30,-4.02,1.40,
0.762,-1.83,-1.22,0.03,0.31,-4.02,1.42,
0.766,-1.83,-1.22,0.03,0.34,-4.03,1.44,
0.767,-1.83,-1.22,0.03,0.36,-4.04,1.45,
0.769,-1.28,-1.27,1.10,0.36,-4.04,1.45,
0.769,-1.28,-1.27,1.10,0.39,-4.04,1.47,
0.771,-1.28,-1.27,1.10,0.42,-4.05,1.48,
0.772,-1.28,-1.27,1.10,0.46,-4.06,1.50,
0.774,-1.28,-1.27,1.10,0.49,-4.08,1.51,
0.776,-1.28,-1.27,1.10,0.53,-4.09,1.52,
0.778,-0.97,-1.19,1.77,0.53,-4.09,1.52,
0.824,-0.97,-1.19,1.77,0.57,-4.11,1.54,
0.825,-0.97,-1.19,1.77,0.60,-4.13,1.55,
0.825,-0.97,-1.19,1.77,0.63,-4.15,1.57,
0.826,-0.97,-1.19,1.77,0.66,-4.17,1.59,
0.827,-0.97,-1.19,1.77,0.68,-4.19,1.61,
0.827,-0.93,-0.97,1.62,0.68,-4.19,1.61,
0.828,-0.93,-0.97,1.62,0.70,-4.20,1.64,
0.829,-0.93,-0.97,1.62,0.71,-4.21,1.67,
0.83,-0.93,-0.97,1.62,0.72,-4.22,1.71,
0.832,-0.93,-0.97,1.62,0.72,-4.22,1.75,
0.833,-0.93,-0.97,1.62,0.72,-4.23,1.80,
0.833,-1.17,-0.41,1.33,0.72,-4.23,1.80,
0.834,-1.17,-0.41,1.33,0.71,-4.23,1.85,
0.835,-1.17,-0.41,1.33,0.70,-4.21,1.90,
0.836,-1.17,-0.41,1.33,0.68,-4.19,1.94,
0.837,-1.17,-0.41,1.33,0.66,-4.15,1.99,
0.838,-1.17,-0.41,1.33,0.63,-4.10,2.03,
0.838,-0.61,-0.21,0.89,0.63,-4.10,2.03,
0.839,-0.61,-0.21,0.89,0.60,-4.05,2.07,
0.841,-0.61,-0.21,0.89,0.56,-3.98,2.11,
0.841,-0.61,-0.21,0.89,0.52,-3.90,2.15,
0.842,-0.61,-0.21,0.89,0.49,-3.82,2.18,
0.842,-0.61,-0.21,0.89,0.45,-3.73,2.21,
0.843,0.75,-0.31,1.02,0.45,-3.73,2.21,
0.843,0.75,-0.31,1.02,0.41,-3.62,2.23,
0.843,0.75,-0.31,1.02,0.37,-3.52,2.25,
0.844,0.75,-0.31,1.02,0.33,-3.40,2.26,
0.844,0.75,-0.31,1.02,0.30,-3.28,2.26,
0.845,0.75,-0.31,1.02,0.26,-3.15,2.26,
0.845,2.78,-0.27,1.57,0.26,-3.15,2.26,
0.845,2.78,-0.27,1.57,0.23,-3.02,2.26,
0.846,2.78,-0.27,1.57,0.19,-2.88,2.25,
0.846,2.78,-0.27,1.57,0.16,-2.74,2.22,
0.846,2.78,-0.27,1.57,0.13,-2.59,2.20,
0.847,2.78,-0.27,1.57,0.10,-2.45,2.17,
0.847,4.66,-0.15,2.13,0.10,-2.45,2.17,
0.848,4.66,-0.15,2.13,0.07,-2.30,2.12,
0.848,4.66,-0.15,2.13,0.04,-2.15,2.08,
0.848,4.66,-0.15,2.13,0.02,-2.00,2.03,
0.849,4.66,-0.15,2.13,-0.01,-1.85,1.98,
0.849,4.66,-0.15,2.13,-0.03,-1.71,1.92,
0.85,6.02,-0.08,2.78,-0.03,-1.71,1.92,
0.85,6.02,-0.08,2.78,-0.04,-1.58,1.86,
0.85,6.02,-0.08,2.78,-0.06,-1.44,1.80,
0.855,6.02,-0.08,2.78,-0.06,-1.31,1.73,
0.867,6.02,-0.08,2.78,-0.07,-1.19,1.67,
0.868,6.02,-0.08,2.78,-0.08,-1.07,1.60,
0.868,6.83,0.09,3.45,-0.08,-1.07,1.60,
0.868,6.83,0.09,3.45,-0.08,-0.95,1.54,
0.869,6.83,0.09,3.45,-0.08,-0.84,1.47,
0.869,6.83,0.09,3.45,-0.07,-0.74,1.41,
0.87,6.83,0.09,3.45,-0.06,-0.65,1.34,
0.87,6.83,0.09,3.45,-0.05,-0.55,1.28,
0.87,6.84,0.42,4.02,-0.05,-0.55,1.28,
0.871,6.84,0.42,4.02,-0.03,-0.46,1.22,
0.871,6.84,0.42,4.02,-0.02,-0.38,1.17,
0.872,6.84,0.42,4.02,-0.00,-0.29,1.11,
0.874,6.84,0.42,4.02,0.02,-0.20,1.07,
0.876,6.84,0.42,4.02,0.03,-0.11,1.02,
0.879,6.15,1.17,4.37,0.03,-0.11,1.02,
0.879,6.15,1.17,4.37,0.05,-0.03,0.98,
0.88,6.15,1.17,4.37,0.07,0.06,0.95,
0.902,6.15,1.17,4.37,0.09,0.15,0.91,
0.904,6.15,1.17,4.37,0.10,0.24,0.87,
0.905,6.15,1.17,4.37,0.12,0.33,0.83,
0.906,5.65,1.68,4.25,0.12,0.33,0.83,
0.906,5.65,1.68,4.25,0.13,0.43,0.79,
0.907,5.65,1.68,4.25,0.15,0.52,0.75,
0.907,5.65,1.68,4.25,0.16,0.62,0.70,
0.908,5.65,1.68,4.25,0.18,0.71,0.66,
0.908,5.65,1.68,4.25,0.20,0.80,0.61,
0.909,5.57,1.69,3.85,0.20,0.80,0.61,
0.91,5.57,1.69,3.85,0.21,0.89,0.56,
0.91,5.57,1.69,3.85,0.23,0.98,0.51,
0.911,5.57,1.69,3.85,0.25,1.06,0.46,
0.923,5.57,1.69,3.85,0.28,1.15,0.41,
0.924,5.57,1.69,3.85,0.30,1.22,0.36,
0.924,5.22,1.58,3.38,0.30,1.22,0.36,
0.924,5.22,1.58,3.38,0.32,1.29,0.32,
0.925,5.22,1.58,3.38,0.35,1.36,0.27,
0.925,5.22,1.58,3.38,0.37,1.42,0.23,
0.925,5.22,1.58,3.38,0.40,1.46,0.19,
0.926,5.22,1.58,3.38,0.43,1.50,0.15,
0.926,4.30,1.42,3.02,0.43,1.50,0.15,
0.927,4.30,1.42,3.02,0.46,1.53,0.12,
0.928,4.30,1.42,3.02,0.50,1.55,0.09,
0.928,4.30,1.42,3.02,0.54,1.57,0.06,
0.928,4.30,1.42,3.02,0.58,1.57,0.04,
0.929,4.30,1.42,3.02,0.62,1.57,0.03,
0.935,2.95,1.07,3.00,0.62,1.57,0.03,
0.936,2.95,1.07,3.00,0.66,1.57,0.02,
0.936,2.95,1.07,3.00,0.71,1.55,0.02,
0.936,2.95,1.07,3.00,0.76,1.53,0.02,
0.937,2.95,1.07,3.00,0.81,1.50,0.03,
0.937,2.95,1.07,3.00,0.86,1.47,0.05,
0.939,1.43,0.78,2.96,0.86,1.47,0.05,
0.939,1.43,0.78,2.96,0.91,1.43,0.07,
0.94,1.43,0.78,2.96,0.97,1.39,0.09,
0.942,1.43,0.78,2.96,1.02,1.34,0.11,
0.944,1.43,0.78,2.96,1.07,1.29,0.14,
0.972,1.43,0.78,2.96,1.12,1.23,0.17,
0.972,0.42,0.64,2.59,1.12,1.23,0.17,
0.973,0.42,0.64,2.59,1.17,1.16,0.20,
0.973,0.42,0.64,2.59,1.22,1.09,0.23,
0.974,0.42,0.64,2.59,1.27,1.02,0.26,
0.974,0.42,0.64,2.59,1.32,0.95,0.29,
0.975,0.42,0.64,2.59,1.36,0.87,0.32,
0.975,-0.05,0.77,2.05,1.36,0.87,0.32,
0.976,-0.05,0.77,2.05,1.40,0.80,0.35,
0.976,-0.05,0.77,2.05,1.44,0.72,0.37,
0.976,-0.05,0.77,2.05,1.48,0.64,0.40,
0.977,-0.05,0.77,2.05,1.51,0.56,0.42,
0.977,-0.05,0.77,2.05,1.55,0.48,0.44,
0.978,-0.07,1.14,1.41,1.55,0.48,0.44,
0.978,-0.07,1.14,1.41,1.58,0.40,0.47,
0.979,-0.07,1.14,1.41,1.62,0.31,0.50,
0.979,-0.07,1.14,1.41,1.66,0.22,0.53,
0.979,-0.07,1.14,1.41,1.70,0.13,0.56,
0.98,-0.07,1.14,1.41,1.73,0.05,0.59,
0.98,-0.43,1.00,1.08,1.73,0.05,0.59,
0.981,-0.43,1.00,1.08,1.77,-0.03,0.62,
0.981,-0.43,1.00,1.08,1.80,-0.11,0.65,
0.982,-0.43,1.00,1.08,1.83,-0.19,0.69,
0.987,-0.43,1.00,1.08,1.85,-0.25,0.72,
0.997,-0.43,1.00,1.08,1.87,-0.30,0.76,
0.998,-0.69,0.59,0.48,1.87,-0.30,0.76,
0.998,-0.69,0.59,0.48,1.89,-0.36,0.80,
0.999,-0.69,0.59,0.48,1.91,-0.40,0.84,
0.999,-0.69,0.59,0.48,1.93,-0.44,0.87,
0.999,-0.69,0.59,0.48,1.95,-0.50,0.92,
1.0,-0.69,0.59,0.48,1.96,-0.52,0.94,
1.011,-0.77,0.39,0.06,1.96,-0.52,0.94,
1.012,-0.77,0.39,0.06,1.98,-0.56,0.97,
1.013,-0.77,0.39,0.06,1.99,-0.60,1.00,
1.013,-0.77,0.39,0.06,2.01,-0.65,1.03,
1.014,-0.77,0.39,0.06,2.03,-0.70,1.06,
1.014,-0.77,0.39,0.06,2.04,-0.74,1.09,
1.014,-0.71,0.49,-0.07,2.04,-0.74,1.09,
1.015,-0.71,0.49,-0.07,2.06,-0.79,1.12,
1.015,-0.71,0.49,-0.07,2.07,-0.84,1.15,
1.016,-0.71,0.49,-0.07,2.09,-0.89,1.18,
1.021,-0.71,0.49,-0.07,2.11,-0.94,1.20,
1.022,-0.71,0.49,-0.07,2.12,-0.98,1.23,
1.022,-0.38,0.74,-0.16,2.12,-0.98,1.23,
1.023,-0.38,0.74,-0.16,2.14,-1.03,1.25,
1.023,-0.38,0.74,-0.16,2.16,-1.08,1.27,
1.023,-0.38,0.74,-0.16,2.18,-1.13,1.30,
1.024,-0.38,0.74,-0.16,2.20,-1.18,1.31,
1.027,-0.38,0.74,-0.16,2.22,-1.23,1.33,
1.037,-0.02,0.89,-0.29,2.22,-1.23,1.33,
1.038,-0.02,0.89,-0.29,2.24,-1.28,1.35,
1.038,-0.02,0.89,-0.29,2.26,-1.33,1.37,
1.039,-0.02,0.89,-0.29,2.27,-1.38,1.39,
1.039,-0.02,0.89,-0.29,2.29,-1.43,1.40,
1.039,-0.02,0.89,-0.29,2.30,-1.48,1.42,
1.04,0.34,0.81,-0.70,2.30,-1.48,1.42,
1.04,0.34,0.81,-0.70,2.31,-1.52,1.44,
1.041,0.34,0.81,-0.70,2.31,-1.56,1.46,
1.042,0.34,0.81,-0.70,2.31,-1.59,1.48,
1.043,0.34,0.81,-0.70,2.31,-1.62,1.50,
1.048,0.34,0.81,-0.70,2.30,-1.64,1.51,
1.048,0.59,0.52,-1.29,2.30,-1.64,1.51,
1.049,0.59,0.52,-1.29,2.29,-1.65,1.53,
1.05,0.59,0.52,-1.29,2.28,-1.66,1.54,
1.052,0.59,0.52,-1.29,2.27,-1.66,1.55,
1.054,0.59,0.52,-1.29,2.25,-1.66,1.56,
1.056,0.59,0.52,-1.29,2.23,-1.66,1.57,
1.058,0.72,0.18,-1.96,2.23,-1.66,1.57,
1.059,0.72,0.18,-1.96,2.21,-1.65,1.58,
1.06,0.72,0.18,-1.96,2.19,-1.64,1.59,
1.063,0.72,0.18,-1.96,2.16,-1.63,1.59,
1.064,0.72,0.18,-1.96,2.14,-1.62,1.61,
1.066,0.72,0.18,-1.96,2.11,-1.62,1.63,
1.069,0.51,0.02,-2.37,2.11,-1.62,1.63,
1.069,0.51,0.02,-2.37,2.08,-1.61,1.64,
1.07,0.51,0.02,-2.37,2.06,-1.61,1.66,
1.072,0.51,0.02,-2.37,2.03,-1.61,1.69,
1.074,0.51,0.02,-2.37,2.00,-1.61,1.71,
1.077,0.51,0.02,-2.37,1.97,-1.61,1.73,
1.079,0.43,0.17,-2.75,1.97,-1.61,1.73,
1.079,0.43,0.17,-2.75,1.93,-1.62,1.75,
1.08,0.43,0.17,-2.75,1.90,-1.63,1.77,
1.082,0.43,0.17,-2.75,1.87,-1.64,1.80,
1.084,0.43,0.17,-2.75,1.84,-1.65,1.82,
1.086,0.43,0.17,-2.75,1.81,-1.66,1.85,
1.089,0.45,0.27,-2.81,1.81,-1.66,1.85,
1.089,0.45,0.27,-2.81,1.78,-1.67,1.87,
1.09,0.45,0.27,-2.81,1.75,-1.68,1.89,
1.092,0.45,0.27,-2.81,1.73,-1.69,1.91,
1.094,0.45,0.27,-2.81,1.70,-1.69,1.93,
1.099,0.45,0.27,-2.81,1.67,-1.71,1.94,
1.1,1.06,0.50,-2.80,1.67,-1.71,1.94,
1.1,1.06,0.50,-2.80,1.65,-1.72,1.94,
1.101,1.06,0.50,-2.80,1.63,-1.72,1.95,
1.102,1.06,0.50,-2.80,1.61,-1.72,1.94,
1.104,1.06,0.50,-2.80,1.59,-1.72,1.94,
1.106,1.06,0.50,-2.80,1.57,-1.72,1.92,
1.11,2.13,0.91,-2.52,1.57,-1.72,1.92,
1.11,2.13,0.91,-2.52,1.55,-1.71,1.91,
1.111,2.13,0.91,-2.52,1.54,-1.70,1.89,
1.139,2.13,0.91,-2.52,1.52,-1.69,1.86,
1.139,2.13,0.91,-2.52,1.50,-1.69,1.84,
1.14,2.13,0.91,-2.52,1.48,-1.68,1.81,
1.14,3.03,1.13,-2.45,1.48,-1.68,1.81,
1.141,3.03,1.13,-2.45,1.46,-1.67,1.78,
1.141,3.03,1.13,-2.45,1.44,-1.66,1.74,
1.141,3.03,1.13,-2.45,1.42,-1.66,1.70,
1.142,3.03,1.13,-2.45,1.39,-1.66,1.66,
1.142,3.03,1.13,-2.45,1.36,-1.66,1.61,
1.143,3.42,1.19,-2.30,1.36,-1.66,1.61,
1.143,3.42,1.19,-2.30,1.34,-1.66,1.57,
1.144,3.42,1.19,-2.30,1.32,-1.67,1.53,
1.144,3.42,1.19,-2.30,1.30,-1.67,1.49,
1.144,3.42,1.19,-2.30,1.28,-1.67,1.46,
1.145,3.42,1.19,-2.30,1.26,-1.66,1.43,
1.145,3.38,1.24,-1.86,1.26,-1.66,1.43,
1.146,3.38,1.24,-1.86,1.25,-1.65,1.40,
1.146,3.38,1.24,-1.86,1.23,-1.64,1.37,
1.147,3.38,1.24,-1.86,1.21,-1.63,1.35,
1.147,3.38,1.24,-1.86,1.20,-1.61,1.32,
1.148,3.38,1.24,-1.86,1.18,-1.60,1.30,
1.151,2.92,1.16,-1.32,1.18,-1.60,1.30,
1.152,2.92,1.16,-1.32,1.17,-1.58,1.28,
1.152,2.92,1.16,-1.32,1.16,-1.57,1.25,
1.155,2.92,1.16,-1.32,1.16,-1.56,1.23,
1.155,2.92,1.16,-1.32,1.15,-1.56,1.21,
1.157,2.92,1.16,-1.32,1.15,-1.56,1.19,
1.158,2.53,0.93,-0.72,1.15,-1.56,1.19,
1.159,2.53,0.93,-0.72,1.15,-1.56,1.17,
1.16,2.53,0.93,-0.72,1.15,-1.56,1.15,
1.163,2.53,0.93,-0.72,1.16,-1.55,1.14,
1.164,2.53,0.93,-0.72,1.16,-1.54,1.12,
1.166,2.53,0.93,-0.72,1.18,-1.53,1.11,
1.169,2.07,0.49,-0.05,1.18,-1.53,1.11,
1.17,2.07,0.49,-0.05,1.19,-1.52,1.10,
1.17,2.07,0.49,-0.05,1.20,-1.50,1.09,
1.172,2.07,0.49,-0.05,1.22,-1.48,1.09,
1.174,2.07,0.49,-0.05,1.23,-1.46,1.08,
1.176,2.07,0.49,-0.05,1.25,-1.44,1.07,
1.179,1.48,0.06,0.43,1.25,-1.44,1.07,
1.18,1.48,0.06,0.43,1.27,-1.43,1.06,
1.18,1.48,0.06,0.43,1.29,-1.41,1.05,
1.182,1.48,0.06,0.43,1.31,-1.40,1.05,
1.185,1.48,0.06,0.43,1.33,-1.38,1.04,
1.186,1.48,0.06,0.43,1.35,-1.38,1.03,
1.188,0.81,-0.08,0.72,1.35,-1.38,1.03,
1.188,0.81,-0.08,0.72,1.37,-1.38,1.03,
1.19,0.81,-0.08,0.72,1.40,-1.37,1.02,
1.192,0.81,-0.08,0.72,1.42,-1.37,1.02,
1.194,0.81,-0.08,0.72,1.44,-1.37,1.01,
1.196,0.81,-0.08,0.72,1.47,-1.37,1.01,
1.199,0.29,0.15,0.92,1.47,-1.37,1.01,
1.2,0.29,0.15,0.92,1.49,-1.37,1.01,
1.201,0.29,0.15,0.92,1.51,-1.37,1.00,
1.201,0.29,0.15,0.92,1.53,-1.37,1.00,
1.204,0.29,0.15,0.92,1.56,-1.38,1.01,
1.206,0.29,0.15,0.92,1.58,-1.38,1.02,
1.208,-0.29,0.44,1.14,1.58,-1.38,1.02,
1.208,-0.29,0.44,1.14,1.60,-1.39,1.03,
1.21,-0.29,0.44,1.14,1.63,-1.40,1.04,
1.216,-0.29,0.44,1.14,1.65,-1.39,1.04,
1.217,-0.29,0.44,1.14,1.67,-1.39,1.05,
1.217,-0.29,0.44,1.14,1.69,-1.38,1.05,
1.218,0.12,0.35,1.42,1.69,-1.38,1.05,
1.219,0.12,0.35,1.42,1.72,-1.36,1.04,
1.22,0.12,0.35,1.42,1.75,-1.34,1.04,
1.222,0.12,0.35,1.42,1.77,-1.31,1.03,
1.238,0.12,0.35,1.42,1.80,-1.27,1.01,
1.239,0.12,0.35,1.42,1.83,-1.22,1.00,
1.24,1.05,0.03,1.63,1.83,-1.22,1.00,
1.24,1.05,0.03,1.63,1.85,-1.16,0.97,
1.24,1.05,0.03,1.63,1.88,-1.09,0.95,
1.241,1.05,0.03,1.63,1.90,-1.03,0.93,
1.241,1.05,0.03,1.63,1.92,-0.96,0.90,
1.241,1.05,0.03,1.63,1.94,-0.90,0.87,
1.242,1.67,-0.37,1.33,1.94,-0.90,0.87,
1.242,1.67,-0.37,1.33,1.95,-0.84,0.84,
1.242,1.67,-0.37,1.33,1.96,-0.79,0.80,
1.242,1.67,-0.37,1.33,1.97,-0.75,0.77,
1.246,1.67,-0.37,1.33,1.99,-0.70,0.74,
1.246,1.67,-0.37,1.33,2.00,-0.66,0.72,
1.254,1.62,-0.56,1.07,2.00,-0.66,0.72,
1.257,1.62,-0.56,1.07,2.01,-0.62,0.70,
1.257,1.62,-0.56,1.07,2.03,-0.58,0.68,
1.259,1.62,-0.56,1.07,2.05,-0.55,0.67,
1.26,1.62,-0.56,1.07,2.06,-0.52,0.66,
1.261,1.62,-0.56,1.07,2.08,-0.49,0.65,
1.261,0.76,-0.36,0.84,2.08,-0.49,0.65,
1.262,0.76,-0.36,0.84,2.09,-0.47,0.64,
1.263,0.76,-0.36,0.84,2.10,-0.45,0.64,
1.264,0.76,-0.36,0.84,2.11,-0.44,0.64,
1.266,0.76,-0.36,0.84,2.12,-0.43,0.64,
1.267,0.76,-0.36,0.84,2.12,-0.42,0.64,
1.271,-0.20,-0.10,0.28,2.12,-0.42,0.64,
1.274,-0.20,-0.10,0.28,2.12,-0.42,0.65,
1.274,-0.20,-0.10,0.28,2.13,-0.43,0.65,
1.275,-0.20,-0.10,0.28,2.13,-0.43,0.66,
1.276,-0.20,-0.10,0.28,2.13,-0.43,0.67,
1.277,-0.20,-0.10,0.28,2.12,-0.47,0.67,
1.281,-0.48,-0.09,-0.69,2.12,-0.47,0.67,
1.331,-0.48,-0.09,-0.69,2.09,-0.52,0.67,
1.332,-0.48,-0.09,-0.69,2.05,-0.57,0.66,
1.333,-0.48,-0.09,-0.69,1.98,-0.64,0.64,
1.334,-0.48,-0.09,-0.69,1.87,-0.75,0.62,
1.334,-0.48,-0.09,-0.69,1.74,-0.84,0.59,
1.335,0.74,-0.28,-5.56,1.74,-0.84,0.59,
1.336,0.74,-0.28,-5.56,1.62,-0.89,0.54,
1.337,0.74,-0.28,-5.56,1.49,-0.90,0.49,
1.337,0.74,-0.28,-5.56,1.34,-0.92,0.44,
1.338,0.74,-0.28,-5.56,1.16,-0.99,0.41,
1.339,0.74,-0.28,-5.56,0.93,-1.04,0.41,
1.34,0.22,0.28,-11.57,0.93,-1.04,0.41,
1.341,0.22,0.28,-11.57,0.71,-1.04,0.44,
1.342,0.22,0.28,-11.57,0.48,-0.98,0.47,
1.343,0.22,0.28,-11.57,0.28,-0.87,0.51,
1.344,0.22,0.28,-11.57,0.10,-0.71,0.56,
1.345,0.22,0.28,-11.57,-0.04,-0.51,0.60,
1.345,-1.92,0.93,-11.95,-0.04,-0.51,0.60,
1.347,-1.92,0.93,-11.95,-0.16,-0.31,0.63,
1.349,-1.92,0.93,-11.95,-0.24,-0.12,0.66,
1.35,-1.92,0.93,-11.95,-0.31,0.06,0.68,
1.35,-1.92,0.93,-11.95,-0.34,0.21,0.69,
1.351,-1.92,0.93,-11.95,-0.36,0.33,0.69,
1.352,-0.83,-0.17,-4.96,-0.36,0.33,0.69,
1.353,-0.83,-0.17,-4.96,-0.36,0.41,0.68,
1.353,-0.83,-0.17,-4.96,-0.35,0.46,0.68,
1.354,-0.83,-0.17,-4.96,-0.32,0.48,0.68,
1.355,-0.83,-0.17,-4.96,-0.29,0.48,0.68,
1.356,-0.83,-0.17,-4.96,-0.25,0.46,0.68,
1.356,-0.79,-0.85,0.18,-0.25,0.46,0.68,
1.357,-0.79,-0.85,0.18,-0.20,0.42,0.69,
1.358,-0.79,-0.85,0.18,-0.15,0.37,0.70,
1.358,-0.79,-0.85,0.18,-0.09,0.32,0.71,
1.36,-0.79,-0.85,0.18,-0.02,0.26,0.73,
1.361,-0.79,-0.85,0.18,0.03,0.20,0.75,
1.361,-1.75,-0.90,1.85,0.03,0.20,0.75,
1.362,-1.75,-0.90,1.85,0.09,0.14,0.77,
1.363,-1.75,-0.90,1.85,0.14,0.08,0.79,
1.364,-1.75,-0.90,1.85,0.19,0.01,0.82,
1.364,-1.75,-0.90,1.85,0.26,-0.08,0.86,
1.365,-1.75,-0.90,1.85,0.27,-0.10,0.88,
1.365,-2.58,-0.81,1.18,0.27,-0.10,0.88,
1.366,-2.58,-0.81,1.18,0.31,-0.16,0.91,
1.367,-2.58,-0.81,1.18,0.35,-0.20,0.93,
1.367,-2.58,-0.81,1.18,0.37,-0.24,0.95,
1.368,-2.58,-0.81,1.18,0.40,-0.26,0.97,
1.369,-2.58,-0.81,1.18,0.42,-0.28,0.99,
1.369,-2.35,-0.70,-0.14,0.42,-0.28,0.99,
1.37,-2.35,-0.70,-0.14,0.44,-0.28,1.01,
1.371,-2.35,-0.70,-0.14,0.44,-0.28,1.03,
1.371,-2.35,-0.70,-0.14,0.44,-0.26,1.04,
1.372,-2.35,-0.70,-0.14,0.44,-0.24,1.06,
1.373,-2.35,-0.70,-0.14,0.43,-0.21,1.08,
1.373,-2.26,-0.53,-1.55,0.43,-0.21,1.08,
1.374,-2.26,-0.53,-1.55,0.41,-0.17,1.10,
1.374,-2.26,-0.53,-1.55,0.39,-0.14,1.12,
1.375,-2.26,-0.53,-1.55,0.36,-0.10,1.15,
1.376,-2.26,-0.53,-1.55,0.33,-0.07,1.18,
1.376,-2.26,-0.53,-1.55,0.30,-0.04,1.22,
1.38,-2.77,-0.18,-2.02,0.30,-0.04,1.22,
1.383,-2.77,-0.18,-2.02,0.27,-0.02,1.26,
1.385,-2.77,-0.18,-2.02,0.24,0.01,1.30,
1.386,-2.77,-0.18,-2.02,0.21,0.02,1.33,
1.387,-2.77,-0.18,-2.02,0.18,0.03,1.37,
1.389,-2.77,-0.18,-2.02,0.16,0.03,1.41,
1.39,-2.82,0.04,-1.51,0.16,0.03,1.41,
1.391,-2.82,0.04,-1.51,0.13,0.03,1.44,
1.391,-2.82,0.04,-1.51,0.10,0.03,1.48,
1.392,-2.82,0.04,-1.51,0.07,0.02,1.54,
1.412,-2.82,0.04,-1.51,0.04,0.01,1.59,
1.415,-2.82,0.04,-1.51,0.01,-0.02,1.65,
1.415,-3.31,0.04,-1.57,0.01,-0.02,1.65,
1.416,-3.31,0.04,-1.57,-0.03,-0.05,1.70,
1.417,-3.31,0.04,-1.57,-0.07,-0.09,1.77,
1.418,-3.31,0.04,-1.57,-0.11,-0.12,1.83,
1.418,-3.31,0.04,-1.57,-0.16,-0.16,1.91,
1.419,-3.31,0.04,-1.57,-0.20,-0.20,1.99,
1.42,-4.33,0.30,-1.90,-0.20,-0.20,1.99,
1.421,-4.33,0.30,-1.90,-0.24,-0.22,2.07,
1.422,-4.33,0.30,-1.90,-0.28,-0.22,2.17,
1.422,-4.33,0.30,-1.90,-0.33,-0.21,2.26,
1.423,-4.33,0.30,-1.90,-0.37,-0.18,2.35,
1.424,-4.33,0.30,-1.90,-0.44,-0.19,2.47,
1.424,-6.26,-0.32,-2.50,-0.44,-0.19,2.47,
1.425,-6.26,-0.32,-2.50,-0.53,-0.21,2.61,
1.426,-6.26,-0.32,-2.50,-0.62,-0.21,2.76,
1.426,-6.26,-0.32,-2.50,-0.71,-0.20,2.92,
1.449,-6.26,-0.32,-2.50,-0.80,-0.20,3.09,
1.45,-6.26,-0.32,-2.50,-0.90,-0.20,3.26,
1.451,-8.37,-0.94,-3.41,-0.90,-0.20,3.26,
1.452,-8.37,-0.94,-3.41,-1.00,-0.18,3.42,
1.452,-8.37,-0.94,-3.41,-1.10,-0.17,3.57,
1.452,-8.37,-0.94,-3.41,-1.24,-0.17,3.77,
1.452,-8.37,-0.94,-3.41,-1.30,-0.17,3.83,
1.453,-8.37,-0.94,-3.41,-1.40,-0.19,3.96,
1.453,-7.69,-2.20,-3.71,-1.40,-0.19,3.96,
1.453,-7.69,-2.20,-3.71,-1.49,-0.21,4.11,
1.454,-7.69,-2.20,-3.71,-1.57,-0.22,4.28,
1.454,-7.69,-2.20,-3.71,-1.62,-0.23,4.46,
1.454,-7.69,-2.20,-3.71,-1.66,-0.25,4.67,
1.482,-7.69,-2.20,-3.71,-1.66,-0.27,4.89,
1.483,-10.75,-2.63,-0.35,-1.66,-0.27,4.89,
1.484,-10.75,-2.63,-0.35,-1.64,-0.29,5.10,
1.485,-10.75,-2.63,-0.35,-1.57,-0.30,5.29,
1.485,-10.75,-2.63,-0.35,-1.48,-0.29,5.46,
1.486,-10.75,-2.63,-0.35,-1.37,-0.31,5.58,
1.486,-10.75,-2.63,-0.35,-1.23,-0.37,5.66,
1.487,-6.67,-3.28,6.28,-1.23,-0.37,5.66,
1.487,-6.67,-3.28,6.28,-1.09,-0.46,5.71,
1.488,-6.67,-3.28,6.28,-0.94,-0.59,5.71,
1.488,-6.67,-3.28,6.28,-0.78,-0.73,5.66,
1.489,-6.67,-3.28,6.28,-0.62,-0.89,5.57,
1.489,-6.67,-3.28,6.28,-0.46,-1.08,5.45,
1.49,3.52,-3.92,9.29,-0.46,-1.08,5.45,
1.49,3.52,-3.92,9.29,-0.30,-1.26,5.29,
1.491,3.52,-3.92,9.29,-0.14,-1.42,5.11,
1.491,3.52,-3.92,9.29,0.01,-1.54,4.92,
1.492,3.52,-3.92,9.29,0.17,-1.65,4.71,
1.492,3.52,-3.92,9.29,0.31,-1.75,4.49,
1.492,11.48,-4.29,9.65,0.31,-1.75,4.49,
1.493,11.48,-4.29,9.65,0.44,-1.82,4.27,
1.493,11.48,-4.29,9.65,0.55,-1.87,4.05,
1.494,11.48,-4.29,9.65,0.63,-1.89,3.83,
1.494,11.48,-4.29,9.65,0.69,-1.88,3.63,
1.495,11.48,-4.29,9.65,0.71,-1.86,3.44,
1.495,13.66,-3.36,6.12,0.71,-1.86,3.44,
1.496,13.66,-3.36,6.12,0.70,-1.84,3.26,
1.496,13.66,-3.36,6.12,0.66,-1.83,3.08,
1.497,13.66,-3.36,6.12,0.53,-1.79,2.83,
1.497,13.66,-3.36,6.12,0.47,-1.76,2.76,
1.497,13.66,-3.36,6.12,0.33,-1.67,2.62,
1.498,12.10,-0.35,-0.62,0.33,-1.67,2.62,
1.498,12.10,-0.35,-0.62,0.17,-1.55,2.51,
1.503,12.10,-0.35,-0.62,-0.02,-1.39,2.43,
1.505,12.10,-0.35,-0.62,-0.31,-1.05,2.37,
1.51,12.10,-0.35,-0.62,-0.41,-0.92,2.37,
1.511,12.10,-0.35,-0.62,-0.60,-0.62,2.36,
1.511,5.55,1.26,-4.29,-0.60,-0.62,2.36,
1.511,5.55,1.26,-4.29,-0.79,-0.31,2.37,
1.512,5.55,1.26,-4.29,-0.98,-0.01,2.43,
1.512,5.55,1.26,-4.29,-1.16,0.29,2.53,
1.523,5.55,1.26,-4.29,-1.33,0.59,2.67,
1.524,5.55,1.26,-4.29,-1.49,0.89,2.81,
1.525,-1.25,0.85,-4.97,-1.49,0.89,2.81,
1.525,-1.25,0.85,-4.97,-1.65,1.16,2.97,
1.525,-1.25,0.85,-4.97,-1.79,1.43,3.12,
1.526,-1.25,0.85,-4.97,-1.92,1.68,3.26,
1.526,-1.25,0.85,-4.97,-2.03,1.92,3.39,
1.55,-1.25,0.85,-4.97,-2.12,2.13,3.50,
1.552,-3.68,-0.94,-3.29,-2.12,2.13,3.50,
1.552,-3.68,-0.94,-3.29,-2.18,2.32,3.61,
1.552,-3.68,-0.94,-3.29,-2.23,2.50,3.71,
1.553,-3.68,-0.94,-3.29,-2.26,2.69,3.88,
1.553,-3.68,-0.94,-3.29,-2.26,2.73,3.93,
1.558,-3.68,-0.94,-3.29,-2.24,2.77,4.02,
1.559,-2.43,-0.26,-0.15,-2.24,2.77,4.02,
1.559,-2.43,-0.26,-0.15,-2.20,2.75,4.11,
1.559,-2.43,-0.26,-0.15,-2.14,2.67,4.18,
1.56,-2.43,-0.26,-0.15,-2.02,2.45,4.23,
1.56,-2.43,-0.26,-0.15,-1.97,2.34,4.23,
1.56,-2.43,-0.26,-0.15,-1.86,2.10,4.20,
1.561,2.43,1.46,2.23,-1.86,2.10,4.20,
1.561,2.43,1.46,2.23,-1.73,1.79,4.15,
1.561,2.43,1.46,2.23,-1.59,1.43,4.07,
1.562,2.43,1.46,2.23,-1.35,0.85,3.93,
1.562,2.43,1.46,2.23,-1.27,0.65,3.87,
1.562,2.43,1.46,2.23,-1.09,0.26,3.76,
1.563,5.24,1.74,4.25,-1.09,0.26,3.76,
1.563,5.24,1.74,4.25,-0.91,-0.13,3.66,
1.563,5.24,1.74,4.25,-0.72,-0.49,3.58,
1.564,5.24,1.74,4.25,-0.47,-0.98,3.45,
1.564,5.24,1.74,4.25,-0.31,-1.29,3.39,
1.569,5.24,1.74,4.25,-0.16,-1.57,3.34,
1.57,3.81,1.91,5.00,-0.16,-1.57,3.34,
1.57,3.81,1.91,5.00,-0.03,-1.83,3.30,
1.571,3.81,1.91,5.00,0.03,-1.95,3.27,
1.574,3.81,1.91,5.00,0.21,-2.30,3.17,
1.575,3.81,1.91,5.00,0.31,-2.48,3.09,
1.578,3.81,1.91,5.00,0.36,-2.55,3.06,
1.579,2.51,1.47,3.91,0.36,-2.55,3.06,
1.579,2.51,1.47,3.91,0.49,-2.67,2.95,
1.585,2.51,1.47,3.91,0.53,-2.69,2.91,
1.586,2.51,1.47,3.91,0.60,-2.66,2.80,
1.587,2.51,1.47,3.91,0.63,-2.59,2.73,
1.587,2.51,1.47,3.91,0.64,-2.53,2.69,
1.588,1.40,-0.77,0.48,0.64,-2.53,2.69,
1.588,1.40,-0.77,0.48,0.63,-2.33,2.60,
1.59,1.40,-0.77,0.48,0.62,-2.25,2.58,
1.592,1.40,-0.77,0.48,0.56,-1.99,2.51,
1.594,1.40,-0.77,0.48,0.52,-1.81,2.47,
1.597,1.40,-0.77,0.48,0.49,-1.72,2.45,
1.6,-0.01,-1.86,-2.82,0.49,-1.72,2.45,
1.6,-0.01,-1.86,-2.82,0.42,-1.43,2.39,
1.6,-0.01,-1.86,-2.82,0.38,-1.25,2.35,
1.602,-0.01,-1.86,-2.82,0.34,-1.07,2.30,
1.604,-0.01,-1.86,-2.82,0.32,-0.92,2.26,
1.606,-0.01,-1.86,-2.82,0.30,-0.78,2.22,
1.608,-0.79,-0.54,-2.83,0.30,-0.78,2.22,
1.609,-0.79,-0.54,-2.83,0.29,-0.66,2.18,
1.62,-0.79,-0.54,-2.83,0.30,-0.54,2.15,
1.654,-0.79,-0.54,-2.83,0.31,-0.44,2.11,
1.654,-0.79,-0.54,-2.83,0.33,-0.34,2.07,
1.655,-0.79,-0.54,-2.83,0.35,-0.26,2.03,
1.655,-0.97,1.32,-1.66,0.35,-0.26,2.03,
1.656,-0.97,1.32,-1.66,0.37,-0.20,1.99,
1.656,-0.97,1.32,-1.66,0.40,-0.14,1.94,
1.656,-0.97,1.32,-1.66,0.43,-0.08,1.89,
1.657,-0.97,1.32,-1.66,0.45,-0.04,1.84,
1.657,-0.97,1.32,-1.66,0.46,0.01,1.78,
1.658,-0.38,2.77,-1.13,0.46,0.01,1.78,
1.658,-0.38,2.77,-1.13,0.48,0.05,1.72,
1.659,-0.38,2.77,-1.13,0.49,0.10,1.65,
1.659,-0.38,2.77,-1.13,0.50,0.14,1.58,
1.66,-0.38,2.77,-1.13,0.51,0.19,1.51,
1.66,-0.38,2.77,-1.13,0.51,0.24,1.44,
1.66,0.43,4.69,-0.49,0.51,0.24,1.44,
1.661,0.43,4.69,-0.49,0.52,0.30,1.37,
1.661,0.43,4.69,-0.49,0.52,0.37,1.31,
1.662,0.43,4.69,-0.49,0.52,0.45,1.25,
1.662,0.43,4.69,-0.49,0.52,0.53,1.20,
1.663,0.43,4.69,-0.49,0.52,0.62,1.16,
1.663,0.19,5.03,0.54,0.52,0.62,1.16,
1.663,0.19,5.03,0.54,0.52,0.71,1.12,
1.664,0.19,5.03,0.54,0.52,0.78,1.07,
1.664,0.19,5.03,0.54,0.54,0.85,1.02,
1.665,0.19,5.03,0.54,0.56,0.88,0.97,
1.665,0.19,5.03,0.54,0.61,0.89,0.91,
1.666,0.54,5.08,2.40,0.61,0.89,0.91,
1.666,0.54,5.08,2.40,0.65,0.87,0.86,
1.666,0.54,5.08,2.40,0.67,0.82,0.81,
1.667,0.54,5.08,2.40,0.68,0.75,0.76,
1.667,0.54,5.08,2.40,0.68,0.67,0.71,
1.668,0.54,5.08,2.40,0.67,0.60,0.66,
1.668,0.11,4.39,2.00,0.67,0.60,0.66,
1.669,0.11,4.39,2.00,0.65,0.51,0.62,
1.673,0.11,4.39,2.00,0.61,0.44,0.58,
1.674,0.11,4.39,2.00,0.56,0.36,0.54,
1.675,0.11,4.39,2.00,0.50,0.28,0.50,
1.678,0.11,4.39,2.00,0.42,0.20,0.46,
1.679,-0.61,2.89,0.38,0.42,0.20,0.46,
1.679,-0.61,2.89,0.38,0.35,0.13,0.43,
1.685,-0.61,2.89,0.38,0.28,0.08,0.39,
1.686,-0.61,2.89,0.38,0.22,0.04,0.37,
1.686,-0.61,2.89,0.38,0.15,-0.00,0.34,
1.687,-0.61,2.89,0.38,0.06,-0.06,0.31,
1.691,-1.50,0.02,0.45,0.06,-0.06,0.31,
1.691,-1.50,0.02,0.45,-0.03,-0.11,0.29,
1.692,-1.50,0.02,0.45,-0.12,-0.17,0.27,
1.692,-1.50,0.02,0.45,-0.22,-0.22,0.25,
1.7,-1.50,0.02,0.45,-0.32,-0.25,0.25,
1.7,-1.50,0.02,0.45,-0.39,-0.27,0.25,
1.701,-1.73,-2.79,0.08,-0.39,-0.27,0.25,
1.701,-1.73,-2.79,0.08,-0.47,-0.29,0.26,
1.701,-1.73,-2.79,0.08,-0.54,-0.32,0.25,
1.702,-1.73,-2.79,0.08,-0.59,-0.35,0.25,
1.704,-1.73,-2.79,0.08,-0.64,-0.39,0.25,
1.706,-1.73,-2.79,0.08,-0.69,-0.44,0.25,
1.708,-1.07,-3.36,1.06,-0.69,-0.44,0.25,
1.709,-1.07,-3.36,1.06,-0.73,-0.49,0.24,
1.712,-1.07,-3.36,1.06,-0.76,-0.53,0.24,
1.713,-1.07,-3.36,1.06,-0.77,-0.53,0.23,
1.714,-1.07,-3.36,1.06,-0.77,-0.53,0.22,
1.716,-1.07,-3.36,1.06,-0.78,-0.53,0.21,
1.718,-0.26,-4.32,2.01,-0.78,-0.53,0.21,
1.719,-0.26,-4.32,2.01,-0.79,-0.52,0.20,
1.722,-0.26,-4.32,2.01,-0.80,-0.51,0.18,
1.725,-0.26,-4.32,2.01,-0.81,-0.49,0.14,
1.726,-0.26,-4.32,2.01,-0.81,-0.47,0.11,
1.726,-0.26,-4.32,2.01,-0.80,-0.44,0.07,
1.731,1.29,-6.14,0.70,-0.80,-0.44,0.07,
1.732,1.29,-6.14,0.70,-0.79,-0.41,0.02,
1.732,1.29,-6.14,0.70,-0.78,-0.38,-0.03,
1.737,1.29,-6.14,0.70,-0.77,-0.34,-0.09,
1.742,1.29,-6.14,0.70,-0.70,-0.26,-0.27,
1.743,1.29,-6.14,0.70,-0.70,-0.26,-0.27,
1.743,1.29,-6.14,0.70,-0.70,-0.26,-0.27,
1.743,2.09,-7.03,-0.40,-0.70,-0.26,-0.27,
1.744,2.09,-7.03,-0.40,-0.66,-0.25,-0.32,
1.744,2.09,-7.03,-0.40,-0.62,-0.25,-0.38,
1.746,2.09,-7.03,-0.40,-0.58,-0.25,-0.42,
1.746,2.09,-7.03,-0.40,-0.53,-0.25,-0.47,
1.749,2.17,-7.14,-0.04,-0.53,-0.25,-0.47,
1.75,2.17,-7.14,-0.04,-0.48,-0.24,-0.50,
1.754,2.17,-7.14,-0.04,-0.43,-0.23,-0.52,
1.755,2.17,-7.14,-0.04,-0.39,-0.23,-0.53,
1.755,2.17,-7.14,-0.04,-0.34,-0.23,-0.54,
1.758,2.17,-7.14,-0.04,-0.31,-0.25,-0.53,
1.759,1.31,-6.68,0.48,-0.31,-0.25,-0.53,
1.759,1.31,-6.68,0.48,-0.28,-0.30,-0.50,
1.767,1.31,-6.68,0.48,-0.27,-0.36,-0.46,
1.768,1.31,-6.68,0.48,-0.26,-0.42,-0.41,
1.768,1.31,-6.68,0.48,-0.27,-0.51,-0.34,
1.769,1.31,-6.68,0.48,-0.29,-0.62,-0.25,
1.769,-0.45,-4.88,0.80,-0.29,-0.62,-0.25,
1.769,-0.45,-4.88,0.80,-0.34,-0.77,-0.12,
1.773,-0.45,-4.88,0.80,-0.40,-0.94,0.03,
1.778,-0.45,-4.88,0.80,-0.47,-1.12,0.16,
1.778,-0.45,-4.88,0.80,-0.55,-1.31,0.29,
1.779,-0.45,-4.88,0.80,-0.63,-1.50,0.41,
1.779,-0.60,-1.30,1.77,-0.63,-1.50,0.41,
1.807,-0.60,-1.30,1.77,-0.71,-1.68,0.51,
1.807,-0.60,-1.30,1.77,-0.80,-1.87,0.60,
1.808,-0.60,-1.30,1.77,-0.90,-2.06,0.68,
1.808,-0.60,-1.30,1.77,-1.01,-2.27,0.78,
1.809,-0.60,-1.30,1.77,-1.14,-2.46,0.89,
1.809,-1.21,0.47,1.38,-1.14,-2.46,0.89,
1.809,-1.21,0.47,1.38,-1.33,-2.51,1.06,
1.81,-1.21,0.47,1.38,-1.52,-2.54,1.25,
1.81,-1.21,0.47,1.38,-1.67,-2.63,1.41,
1.811,-1.21,0.47,1.38,-1.78,-2.73,1.55,
1.811,-1.21,0.47,1.38,-1.84,-2.76,1.67,
1.812,-2.02,0.05,0.05,-1.84,-2.76,1.67,
1.812,-2.02,0.05,0.05,-1.82,-2.72,1.77,
1.813,-2.02,0.05,0.05,-1.77,-2.66,1.84,
1.813,-2.02,0.05,0.05,-1.66,-2.53,1.90,
1.813,-2.02,0.05,0.05,-1.50,-2.31,1.92,
1.814,-2.02,0.05,0.05,-1.29,-1.99,1.92,
1.814,-0.92,1.11,-0.35,-1.29,-1.99,1.92,
1.815,-0.92,1.11,-0.35,-1.02,-1.59,1.89,
1.815,-0.92,1.11,-0.35,-0.72,-1.11,1.83,
1.816,-0.92,1.11,-0.35,-0.40,-0.58,1.73,
1.816,-0.92,1.11,-0.35,-0.07,-0.06,1.62,
1.817,-0.92,1.11,-0.35,0.23,0.41,1.49,
1.821,0.73,0.84,-1.29,0.23,0.41,1.49,
1.823,0.73,0.84,-1.29,0.50,0.75,1.37,
1.823,0.73,0.84,-1.29,0.70,0.95,1.26,
1.824,0.73,0.84,-1.29,0.84,1.07,1.17,
1.824,0.73,0.84,-1.29,0.93,1.11,1.08,
1.838,0.73,0.84,-1.29,0.98,1.09,1.02,
1.839,1.60,0.01,-0.92,0.98,1.09,1.02,
1.84,1.60,0.01,-0.92,0.98,1.06,0.96,
1.84,1.60,0.01,-0.92,0.96,1.02,0.92,
1.841,1.60,0.01,-0.92,0.90,0.97,0.88,
1.841,1.60,0.01,-0.92,0.83,0.91,0.86,
1.841,1.60,0.01,-0.92,0.73,0.83,0.84,
1.842,1.16,-0.83,0.13,0.73,0.83,0.84,
1.842,1.16,-0.83,0.13,0.60,0.76,0.84,
1.843,1.16,-0.83,0.13,0.44,0.72,0.85,
1.843,1.16,-0.83,0.13,0.22,0.72,0.89,
1.844,1.16,-0.83,0.13,-0.00,0.69,0.94,
1.854,1.16,-0.83,0.13,-0.20,0.60,0.98,
1.855,-0.27,-0.93,-0.10,-0.20,0.60,0.98,
1.856,-0.27,-0.93,-0.10,-0.36,0.43,1.00,
1.856,-0.27,-0.93,-0.10,-0.45,0.20,1.00,
1.856,-0.27,-0.93,-0.10,-0.49,-0.05,0.97,
1.857,-0.27,-0.93,-0.10,-0.48,-0.31,0.94,
1.857,-0.27,-0.93,-0.10,-0.43,-0.53,0.90,
1.858,0.06,-0.53,2.92,-0.43,-0.53,0.90,
1.859,0.06,-0.53,2.92,-0.37,-0.69,0.85,
1.861,0.06,-0.53,2.92,-0.28,-0.78,0.80,
1.862,0.06,-0.53,2.92,-0.19,-0.81,0.75,
1.864,0.06,-0.53,2.92,-0.09,-0.80,0.69,
1.866,0.06,-0.53,2.92,0.01,-0.73,0.62,
1.868,0.17,-0.84,2.03,0.01,-0.73,0.62,
1.869,0.17,-0.84,2.03,0.11,-0.62,0.56,
1.87,0.17,-0.84,2.03,0.21,-0.49,0.49,
1.872,0.17,-0.84,2.03,0.29,-0.34,0.41,
1.874,0.17,-0.84,2.03,0.35,-0.20,0.35,
1.877,0.17,-0.84,2.03,0.40,-0.07,0.29,
1.878,0.72,-1.34,-0.14,0.40,-0.07,0.29,
1.879,0.72,-1.34,-0.14,0.42,0.02,0.24,
1.88,0.72,-1.34,-0.14,0.43,0.10,0.19,
1.882,0.72,-1.34,-0.14,0.43,0.13,0.15,
1.884,0.72,-1.34,-0.14,0.41,0.15,0.12,
1.886,0.72,-1.34,-0.14,0.37,0.14,0.09,
1.888,0.67,-1.38,-0.29,0.37,0.14,0.09,
1.888,0.67,-1.38,-0.29,0.33,0.11,0.08,
1.89,0.67,-1.38,-0.29,0.28,0.07,0.06,
1.892,0.67,-1.38,-0.29,0.24,0.01,0.05,
1.894,0.67,-1.38,-0.29,0.19,-0.05,0.05,
1.896,0.67,-1.38,-0.29,0.14,-0.11,0.05,
1.898,0.35,-1.01,0.49,0.14,-0.11,0.05,
1.898,0.35,-1.01,0.49,0.10,-0.18,0.05,
1.9,0.35,-1.01,0.49,0.06,-0.23,0.05,
1.902,0.35,-1.01,0.49,0.03,-0.26,0.05,
1.904,0.35,-1.01,0.49,0.00,-0.27,0.05,
1.906,0.35,-1.01,0.49,-0.01,-0.28,0.06,
1.908,-0.03,-0.98,0.59,-0.01,-0.28,0.06,
1.909,-0.03,-0.98,0.59,-0.02,-0.27,0.06,
1.923,-0.03,-0.98,0.59,-0.02,-0.25,0.06,
1.925,-0.03,-0.98,0.59,-0.01,-0.23,0.05,
1.926,-0.03,-0.98,0.59,0.01,-0.21,0.05,
1.928,-0.03,-0.98,0.59,0.03,-0.19,0.04,
1.929,-0.21,-1.04,0.39,0.03,-0.19,0.04,
1.93,-0.21,-1.04,0.39,0.05,-0.17,0.03,
1.932,-0.21,-1.04,0.39,0.08,-0.15,0.02,
1.933,-0.21,-1.04,0.39,0.10,-0.13,0.01,
1.933,-0.21,-1.04,0.39,0.11,-0.11,-0.01,
1.934,-0.21,-1.04,0.39,0.12,-0.09,-0.04,
1.935,-0.19,-0.69,0.13,0.12,-0.09,-0.04,
1.937,-0.19,-0.69,0.13,0.13,-0.07,-0.07,
1.938,-0.19,-0.69,0.13,0.14,-0.05,-0.10,
1.939,-0.19,-0.69,0.13,0.14,-0.02,-0.12,
1.942,-0.19,-0.69,0.13,0.13,0.00,-0.14,
1.943,-0.19,-0.69,0.13,0.12,0.02,-0.13,
1.945,-1.32,1.22,-0.02,0.12,0.02,-0.13,
1.946,-1.32,1.22,-0.02,0.09,0.00,-0.10,
1.948,-1.32,1.22,-0.02,0.06,-0.04,-0.04,
1.948,-1.32,1.22,-0.02,0.03,-0.09,0.02,
1.95,-1.32,1.22,-0.02,-0.00,-0.16,0.09,
1.978,-1.32,1.22,-0.02,-0.02,-0.22,0.18,
1.978,-2.76,3.40,0.47,-0.02,-0.22,0.18,
1.979,-2.76,3.40,0.47,-0.02,-0.28,0.26,
1.979,-2.76,3.40,0.47,-0.02,-0.30,0.34,
1.98,-2.76,3.40,0.47,0.00,-0.31,0.40,
1.98,-2.76,3.40,0.47,0.04,-0.28,0.46,
1.98,-2.76,3.40,0.47,0.06,-0.24,0.51,
1.981,-2.12,3.03,0.89,0.06,-0.24,0.51,
1.981,-2.12,3.03,0.89,0.09,-0.17,0.55,
1.982,-2.12,3.03,0.89,0.12,-0.10,0.60,
1.982,-2.12,3.03,0.89,0.13,-0.02,0.64,
1.983,-2.12,3.03,0.89,0.13,0.05,0.68,
1.983,-2.12,3.03,0.89,0.10,0.11,0.73,
1.983,-1.03,1.62,0.02,0.10,0.11,0.73,
1.984,-1.03,1.62,0.02,0.06,0.16,0.77,
1.984,-1.03,1.62,0.02,0.00,0.20,0.82,
1.985,-1.03,1.62,0.02,-0.06,0.23,0.86,
1.985,-1.03,1.62,0.02,-0.13,0.26,0.91,
1.986,-1.03,1.62,0.02,-0.20,0.27,0.95,
1.986,-0.50,-0.17,-0.72,-0.20,0.27,0.95,
1.986,-0.50,-0.17,-0.72,-0.26,0.28,0.98,
1.987,-0.50,-0.17,-0.72,-0.32,0.27,1.01,
1.987,-0.50,-0.17,-0.72,-0.39,0.25,1.04,
1.988,-0.50,-0.17,-0.72,-0.45,0.23,1.05,
1.988,-0.50,-0.17,-0.72,-0.51,0.20,1.05,
1.989,0.21,-1.72,-0.53,-0.51,0.20,1.05,
1.989,0.21,-1.72,-0.53,-0.57,0.15,1.04,
1.992,0.21,-1.72,-0.53,-0.63,0.10,1.02,
1.994,0.21,-1.72,-0.53,-0.68,0.04,1.00,
1.995,0.21,-1.72,-0.53,-0.73,-0.02,0.97,
1.996,0.21,-1.72,-0.53,-0.77,-0.08,0.94,
1.998,0.31,-1.32,-0.12,-0.77,-0.08,0.94,
1.999,0.31,-1.32,-0.12,-0.79,-0.14,0.91,
2.0,0.31,-1.32,-0.12,-0.80,-0.19,0.90,
2.002,0.31,-1.32,-0.12,-0.80,-0.23,0.88,
2.004,0.31,-1.32,-0.12,-0.78,-0.25,0.88,
2.007,0.31,-1.32,-0.12,-0.74,-0.24,0.88,
2.008,-0.11,-0.40,0.49,-0.74,-0.24,0.88,
2.009,-0.11,-0.40,0.49,-0.68,-0.18,0.89,
2.01,-0.11,-0.40,0.49,-0.60,-0.09,0.91,
2.012,-0.11,-0.40,0.49,-0.50,0.02,0.94,
2.015,-0.11,-0.40,0.49,-0.41,0.14,0.98,
2.016,-0.11,-0.40,0.49,-0.31,0.26,1.03,
2.018,-0.96,0.44,0.43,-0.31,0.26,1.03,
2.019,-0.96,0.44,0.43,-0.23,0.35,1.07,
2.02,-0.96,0.44,0.43,-0.16,0.41,1.12,
2.023,-0.96,0.44,0.43,-0.11,0.43,1.18,
2.025,-0.96,0.44,0.43,-0.07,0.39,1.23,
2.027,-0.96,0.44,0.43,-0.03,0.32,1.27,
2.029,-1.34,1.01,0.23,-0.03,0.32,1.27,
2.029,-1.34,1.01,0.23,0.00,0.23,1.30,
2.03,-1.34,1.01,0.23,0.04,0.12,1.33,
2.032,-1.34,1.01,0.23,0.08,-0.00,1.35,
2.034,-1.34,1.01,0.23,0.12,-0.12,1.36,
2.037,-1.34,1.01,0.23,0.17,-0.24,1.36,
2.039,-0.69,1.04,0.91,0.17,-0.24,1.36,
2.039,-0.69,1.04,0.91,0.23,-0.36,1.36,
2.04,-0.69,1.04,0.91,0.27,-0.48,1.36,
2.047,-0.69,1.04,0.91,0.32,-0.59,1.35,
2.048,-0.69,1.04,0.91,0.37,-0.69,1.35,
2.048,-0.69,1.04,0.91,0.40,-0.77,1.34,
2.049,-0.45,2.06,1.00,0.40,-0.77,1.34,
2.049,-0.45,2.06,1.00,0.43,-0.82,1.34,
2.05,-0.45,2.06,1.00,0.46,-0.84,1.33,
2.052,-0.45,2.06,1.00,0.47,-0.86,1.31,
2.055,-0.45,2.06,1.00,0.48,-0.86,1.29,
2.074,-0.45,2.06,1.00,0.47,-0.85,1.27,
2.074,-0.39,2.83,-0.13,0.47,-0.85,1.27,
2.075,-0.39,2.83,-0.13,0.46,-0.82,1.25,
2.075,-0.39,2.83,-0.13,0.45,-0.78,1.23,
2.075,-0.39,2.83,-0.13,0.44,-0.71,1.22,
2.076,-0.39,2.83,-0.13,0.41,-0.64,1.19,
2.076,-0.39,2.83,-0.13,0.38,-0.57,1.17,
2.076,-0.32,3.08,-0.84,0.38,-0.57,1.17,
2.077,-0.32,3.08,-0.84,0.33,-0.51,1.15,
2.077,-0.32,3.08,-0.84,0.28,-0.45,1.15,
2.077,-0.32,3.08,-0.84,0.22,-0.41,1.15,
2.078,-0.32,3.08,-0.84,0.17,-0.38,1.15,
2.078,-0.32,3.08,-0.84,0.11,-0.35,1.13,
2.08,-0.15,2.47,-1.24,0.11,-0.35,1.13,
2.08,-0.15,2.47,-1.24,0.05,-0.32,1.10,
2.081,-0.15,2.47,-1.24,0.00,-0.30,1.08,
2.082,-0.15,2.47,-1.24,-0.05,-0.29,1.06,
2.084,-0.15,2.47,-1.24,-0.09,-0.30,1.05,
2.086,-0.15,2.47,-1.24,-0.12,-0.31,1.03,
2.088,0.76,0.20,-0.69,-0.12,-0.31,1.03,
2.089,0.76,0.20,-0.69,-0.12,-0.29,1.01,
2.09,0.76,0.20,-0.69,-0.12,-0.27,0.99,
2.093,0.76,0.20,-0.69,-0.10,-0.22,0.96,
2.094,0.76,0.20,-0.69,-0.06,-0.14,0.94,
2.096,0.76,0.20,-0.69,-0.02,-0.06,0.92,
2.098,0.51,-0.37,0.64,-0.02,-0.06,0.92,
2.099,0.51,-0.37,0.64,0.01,0.01,0.91,
2.1,0.51,-0.37,0.64,0.03,0.08,0.90,
2.102,0.51,-0.37,0.64,0.04,0.14,0.89,
2.104,0.51,-0.37,0.64,0.04,0.18,0.88,
2.106,0.51,-0.37,0.64,0.02,0.19,0.83,
2.111,1.41,0.32,-0.17,0.02,0.19,0.83,
2.113,1.41,0.32,-0.17,-0.00,0.16,0.77,
2.113,1.41,0.32,-0.17,-0.03,0.12,0.72,
2.153,1.41,0.32,-0.17,-0.04,0.06,0.69,
2.154,1.41,0.32,-0.17,-0.06,-0.01,0.66,
2.155,1.41,0.32,-0.17,-0.08,-0.09,0.64,
2.156,1.58,1.80,0.21,-0.08,-0.09,0.64,
2.156,1.58,1.80,0.21,-0.10,-0.16,0.63,
2.157,1.58,1.80,0.21,-0.10,-0.24,0.61,
2.158,1.58,1.80,0.21,-0.11,-0.32,0.61,
2.159,1.58,1.80,0.21,-0.10,-0.38,0.62,
2.16,1.58,1.80,0.21,-0.07,-0.42,0.62,
2.161,-0.85,2.05,0.92,-0.07,-0.42,0.62,
2.162,-0.85,2.05,0.92,-0.03,-0.45,0.64,
2.162,-0.85,2.05,0.92,0.02,-0.44,0.68,
2.163,-0.85,2.05,0.92,0.08,-0.41,0.73,
2.164,-0.85,2.05,0.92,0.14,-0.38,0.79,
2.164,-0.85,2.05,0.92,0.20,-0.34,0.85,
2.165,-3.75,2.45,0.75,0.20,-0.34,0.85,
2.166,-3.75,2.45,0.75,0.24,-0.32,0.92,
2.166,-3.75,2.45,0.75,0.29,-0.35,0.98,
2.167,-3.75,2.45,0.75,0.32,-0.41,1.03,
2.168,-3.75,2.45,0.75,0.32,-0.44,1.10,
2.169,-3.75,2.45,0.75,0.31,-0.46,1.15,
2.17,-4.69,3.12,0.16,0.31,-0.46,1.15,
2.17,-4.69,3.12,0.16,0.28,-0.48,1.20,
2.171,-4.69,3.12,0.16,0.25,-0.48,1.23,
2.172,-4.69,3.12,0.16,0.23,-0.49,1.25,
2.172,-4.69,3.12,0.16,0.22,-0.51,1.25,
2.173,-4.69,3.12,0.16,0.22,-0.54,1.26,
2.174,-4.10,2.51,0.07,0.22,-0.54,1.26,
2.175,-4.10,2.51,0.07,0.23,-0.57,1.27,
2.176,-4.10,2.51,0.07,0.23,-0.57,1.28,
2.177,-4.10,2.51,0.07,0.24,-0.56,1.30,
2.177,-4.10,2.51,0.07,0.24,-0.52,1.33,
2.178,-4.10,2.51,0.07,0.23,-0.45,1.36,
2.179,-4.17,3.40,0.06,0.23,-0.45,1.36,
2.18,-4.17,3.40,0.06,0.22,-0.39,1.38,
2.18,-4.17,3.40,0.06,0.23,-0.32,1.39,
2.181,-4.17,3.40,0.06,0.22,-0.24,1.39,
2.182,-4.17,3.40,0.06,0.21,-0.14,1.38,
2.182,-4.17,3.40,0.06,0.21,-0.02,1.36,
2.183,-3.29,4.36,-0.36,0.21,-0.02,1.36,
2.184,-3.29,4.36,-0.36,0.22,0.07,1.30,
2.184,-3.29,4.36,-0.36,0.24,0.17,1.24,
2.185,-3.29,4.36,-0.36,0.25,0.26,1.18,
2.186,-3.29,4.36,-0.36,0.27,0.33,1.13,
2.187,-3.29,4.36,-0.36,0.28,0.35,1.08,
2.191,-2.27,4.85,0.24,0.28,0.35,1.08,
2.192,-2.27,4.85,0.24,0.29,0.36,1.03,
2.193,-2.27,4.85,0.24,0.30,0.35,0.97,
2.193,-2.27,4.85,0.24,0.30,0.36,0.90,
2.194,-2.27,4.85,0.24,0.29,0.40,0.83,
2.196,-2.27,4.85,0.24,0.28,0.45,0.76,
2.199,-1.28,5.61,0.72,0.28,0.45,0.76,
2.199,-1.28,5.61,0.72,0.27,0.51,0.68,
2.2,-1.28,5.61,0.72,0.27,0.52,0.61,
2.202,-1.28,5.61,0.72,0.26,0.47,0.56,
2.204,-1.28,5.61,0.72,0.24,0.32,0.54,
2.206,-1.28,5.61,0.72,0.24,0.09,0.57,
2.213,2.90,-4.65,0.41,0.24,0.09,0.57,
2.217,2.90,-4.65,0.41,0.32,-0.26,0.66,
2.217,2.90,-4.65,0.41,0.37,-0.60,0.82,
2.218,2.90,-4.65,0.41,0.38,-0.85,1.04,
2.218,2.90,-4.65,0.41,0.37,-0.97,1.33,
2.219,2.90,-4.65,0.41,0.35,-0.98,1.65,
2.219,0.44,-11.33,0.50,0.35,-0.98,1.65,
2.22,0.44,-11.33,0.50,0.35,-0.89,1.98,
2.22,0.44,-11.33,0.50,0.33,-0.79,2.30,
2.222,0.44,-11.33,0.50,0.20,-0.63,2.56,
2.224,0.44,-11.33,0.50,0.00,-0.41,2.74,
2.239,0.44,-11.33,0.50,-0.22,-0.20,2.85,
2.24,1.75,-18.25,-4.29,-0.22,-0.20,2.85,
2.241,1.75,-18.25,-4.29,-0.47,0.01,2.89,
2.242,1.75,-18.25,-4.29,-0.63,0.16,2.87,
2.242,1.75,-18.25,-4.29,-0.67,0.24,2.79,
2.243,1.75,-18.25,-4.29,-0.66,0.27,2.61,
2.244,1.75,-18.25,-4.29,-0.60,0.27,2.31,
2.245,6.99,-16.98,-0.60,-0.60,0.27,2.31,
2.247,6.99,-16.98,-0.60,-0.54,0.28,1.97,
2.248,6.99,-16.98,-0.60,-0.46,0.34,1.62,
2.248,6.99,-16.98,-0.60,-0.37,0.49,1.25,
2.249,6.99,-16.98,-0.60,-0.33,0.83,0.91,
2.25,6.99,-16.98,-0.60,-0.34,1.52,0.59,
2.251,10.46,-11.16,0.93,-0.34,1.52,0.59,
2.252,10.46,-11.16,0.93,-0.23,2.11,0.31,
2.252,10.46,-11.16,0.93,0.06,2.13,0.11,
2.253,10.46,-11.16,0.93,0.36,1.86,-0.01,
2.266,10.46,-11.16,0.93,0.62,1.56,-0.09,
2.268,10.46,-11.16,0.93,0.83,1.34,-0.15,
2.269,5.48,-4.95,4.01,0.83,1.34,-0.15,
2.27,5.48,-4.95,4.01,0.94,1.26,-0.20,
2.271,5.48,-4.95,4.01,1.00,1.28,-0.23,
2.272,5.48,-4.95,4.01,1.04,1.38,-0.28,
2.272,5.48,-4.95,4.01,1.07,1.55,-0.34,
2.273,5.48,-4.95,4.01,1.08,1.74,-0.40,
2.274,1.93,-1.23,-1.28,1.08,1.74,-0.40,
2.275,1.93,-1.23,-1.28,1.07,1.91,-0.44,
2.278,1.93,-1.23,-1.28,1.03,2.03,-0.47,
2.28,1.93,-1.23,-1.28,0.98,2.12,-0.46,
2.28,1.93,-1.23,-1.28,0.95,2.15,-0.44,
2.28,1.93,-1.23,-1.28,0.92,2.13,-0.41,
2.281,-0.67,1.65,-2.69,0.92,2.13,-0.41,
2.306,-0.67,1.65,-2.69,0.89,2.08,-0.34,
2.306,-0.67,1.65,-2.69,0.86,2.01,-0.25,
2.307,-0.67,1.65,-2.69,0.82,1.93,-0.14,
2.307,-0.67,1.65,-2.69,0.77,1.84,-0.01,
2.308,-0.67,1.65,-2.69,0.71,1.78,0.14,
2.308,-3.45,3.54,-1.27,0.71,1.78,0.14,
2.308,-3.45,3.54,-1.27,0.64,1.74,0.29,
2.309,-3.45,3.54,-1.27,0.57,1.74,0.44,
2.309,-3.45,3.54,-1.27,0.50,1.75,0.56,
2.31,-3.45,3.54,-1.27,0.42,1.79,0.68,
2.31,-3.45,3.54,-1.27,0.35,1.81,0.77,
2.311,-3.17,3.44,-0.30,0.35,1.81,0.77,
2.311,-3.17,3.44,-0.30,0.27,1.80,0.82,
2.312,-3.17,3.44,-0.30,0.18,1.75,0.85,
2.312,-3.17,3.44,-0.30,0.10,1.67,0.87,
2.312,-3.17,3.44,-0.30,0.02,1.56,0.86,
2.313,-3.17,3.44,-0.30,-0.07,1.42,0.84,
2.313,0.42,0.29,0.78,-0.07,1.42,0.84,
2.314,0.42,0.29,0.78,-0.14,1.22,0.80,
2.314,0.42,0.29,0.78,-0.19,0.99,0.73,
2.315,0.42,0.29,0.78,-0.23,0.72,0.66,
2.315,0.42,0.29,0.78,-0.26,0.44,0.58,
2.315,0.42,0.29,0.78,-0.26,0.16,0.49,
2.318,4.81,-3.51,2.75,-0.26,0.16,0.49,
2.319,4.81,-3.51,2.75,-0.25,-0.11,0.41,
2.32,4.81,-3.51,2.75,-0.23,-0.36,0.33,
2.322,4.81,-3.51,2.75,-0.20,-0.57,0.24,
2.324,4.81,-3.51,2.75,-0.18,-0.68,0.16,
2.331,4.81,-3.51,2.75,-0.17,-0.70,0.09,
2.331,6.43,-5.55,1.82,-0.17,-0.70,0.09,
2.332,6.43,-5.55,1.82,-0.18,-0.66,0.04,
2.332,6.43,-5.55,1.82,-0.20,-0.60,-0.00,
2.333,6.43,-5.55,1.82,-0.23,-0.52,-0.03,
2.334,6.43,-5.55,1.82,-0.24,-0.45,-0.05,
2.336,6.43,-5.55,1.82,-0.25,-0.40,-0.07,
2.338,3.44,-3.62,-0.13,-0.25,-0.40,-0.07,
2.339,3.44,-3.62,-0.13,-0.24,-0.37,-0.08,
2.34,3.44,-3.62,-0.13,-0.22,-0.37,-0.08,
2.348,3.44,-3.62,-0.13,-0.21,-0.39,-0.09,
2.349,3.44,-3.62,-0.13,-0.17,-0.41,-0.10,
2.35,3.44,-3.62,-0.13,-0.14,-0.42,-0.10,
2.35,2.03,-2.28,0.22,-0.14,-0.42,-0.10,
2.35,2.03,-2.28,0.22,-0.11,-0.45,-0.12,
2.351,2.03,-2.28,0.22,-0.10,-0.48,-0.13,
2.352,2.03,-2.28,0.22,-0.09,-0.50,-0.14,
2.354,2.03,-2.28,0.22,-0.08,-0.52,-0.15,
2.356,2.03,-2.28,0.22,-0.08,-0.53,-0.17,
2.374,1.93,-2.27,-0.04,-0.08,-0.53,-0.17,
2.374,1.93,-2.27,-0.04,-0.08,-0.54,-0.18,
2.375,1.93,-2.27,-0.04,-0.08,-0.56,-0.20,
2.375,1.93,-2.27,-0.04,-0.09,-0.58,-0.23,
2.375,1.93,-2.27,-0.04,-0.10,-0.60,-0.25,
2.376,1.93,-2.27,-0.04,-0.10,-0.63,-0.28,
2.376,2.17,-3.03,-0.19,-0.10,-0.63,-0.28,
2.376,2.17,-3.03,-0.19,-0.10,-0.65,-0.32,
2.377,2.17,-3.03,-0.19,-0.10,-0.67,-0.37,
2.377,2.17,-3.03,-0.19,-0.10,-0.68,-0.42,
2.377,2.17,-3.03,-0.19,-0.11,-0.69,-0.48,
2.378,2.17,-3.03,-0.19,-0.11,-0.69,-0.53,
2.385,2.11,-2.22,-0.02,-0.11,-0.69,-0.53,
2.386,2.11,-2.22,-0.02,-0.11,-0.69,-0.58,
2.386,2.11,-2.22,-0.02,-0.10,-0.67,-0.63,
2.386,2.11,-2.22,-0.02,-0.09,-0.64,-0.66,
2.387,2.11,-2.22,-0.02,-0.09,-0.60,-0.68,
2.387,2.11,-2.22,-0.02,-0.09,-0.57,-0.65,
2.389,-0.72,1.83,0.18,-0.09,-0.57,-0.65,
2.389,-0.72,1.83,0.18,-0.11,-0.60,-0.50,
2.39,-0.72,1.83,0.18,-0.12,-0.63,-0.32,
2.399,-0.72,1.83,0.18,-0.11,-0.63,-0.17,
2.4,-0.72,1.83,0.18,-0.09,-0.60,-0.04,
2.4,-0.72,1.83,0.18,-0.04,-0.54,0.07,
2.4,-4.36,6.12,0.58,-0.04,-0.54,0.07,
2.401,-4.36,6.12,0.58,0.01,-0.48,0.16,
2.401,-4.36,6.12,0.58,0.06,-0.40,0.21,
2.402,-4.36,6.12,0.58,0.15,-0.30,0.22,
2.404,-4.36,6.12,0.58,0.22,-0.21,0.22,
2.406,-4.36,6.12,0.58,0.27,-0.14,0.21,
2.414,-1.48,2.65,0.70,0.27,-0.14,0.21,
2.414,-1.48,2.65,0.70,0.29,-0.10,0.18,
2.415,-1.48,2.65,0.70,0.28,-0.07,0.15,
2.416,-1.48,2.65,0.70,0.26,-0.06,0.12,
2.417,-1.48,2.65,0.70,0.22,-0.07,0.10,
2.417,-1.48,2.65,0.70,0.18,-0.08,0.08,
2.419,0.93,-0.25,-0.60,0.18,-0.08,0.08,
2.42,0.93,-0.25,-0.60,0.14,-0.09,0.07,
2.421,0.93,-0.25,-0.60,0.10,-0.10,0.06,
2.422,0.93,-0.25,-0.60,0.07,-0.12,0.06,
2.429,0.93,-0.25,-0.60,0.05,-0.13,0.07,
2.432,0.93,-0.25,-0.60,0.04,-0.14,0.08,
2.433,0.89,-1.15,-0.23,0.04,-0.14,0.08,
2.433,0.89,-1.15,-0.23,0.03,-0.16,0.08,
2.434,0.89,-1.15,-0.23,0.03,-0.16,0.09,
2.434,0.89,-1.15,-0.23,0.03,-0.16,0.09,
2.435,0.89,-1.15,-0.23,0.04,-0.16,0.09,
2.436,0.89,-1.15,-0.23,0.04,-0.16,0.08,
2.439,0.79,-1.09,0.25,0.04,-0.16,0.08,
2.44,0.79,-1.09,0.25,0.05,-0.16,0.08,
2.441,0.79,-1.09,0.25,0.06,-0.16,0.07,
2.447,0.79,-1.09,0.25,0.06,-0.16,0.07,
2.449,0.79,-1.09,0.25,0.07,-0.16,0.06,
2.497,0.79,-1.09,0.25,0.07,-0.16,0.04,
2.498,0.70,-0.74,0.19,0.07,-0.16,0.04,
2.499,0.70,-0.74,0.19,0.07,-0.16,0.03,
2.5,0.70,-0.74,0.19,0.07,-0.17,0.03,
2.5,0.70,-0.74,0.19,0.07,-0.16,0.03,
2.501,0.70,-0.74,0.19,0.07,-0.16,0.03,
2.502,0.70,-0.74,0.19,0.07,-0.16,0.04,
2.502,0.38,-0.63,0.05,0.07,-0.16,0.04,
2.503,0.38,-0.63,0.05,0.08,-0.16,0.04,
2.504,0.38,-0.63,0.05,0.08,-0.17,0.05,
2.505,0.38,-0.63,0.05,0.08,-0.17,0.06,
2.505,0.38,-0.63,0.05,0.08,-0.16,0.06,
2.506,0.38,-0.63,0.05,0.09,-0.15,0.06,
2.508,0.50,-1.04,0.03,0.09,-0.15,0.06,
2.509,0.50,-1.04,0.03,0.09,-0.14,0.06,
2.51,0.50,-1.04,0.03,0.08,-0.14,0.06,
2.51,0.50,-1.04,0.03,0.08,-0.13,0.05,
2.511,0.50,-1.04,0.03,0.08,-0.12,0.04,
2.512,0.50,-1.04,0.03,0.07,-0.11,0.03,
2.512,0.36,-0.61,-0.06,0.07,-0.11,0.03,
2.513,0.36,-0.61,-0.06,0.06,-0.11,0.02,
2.514,0.36,-0.61,-0.06,0.06,-0.12,0.03,
2.514,0.36,-0.61,-0.06,0.06,-0.12,0.03,
2.515,0.36,-0.61,-0.06,0.06,-0.12,0.03,
2.516,0.36,-0.61,-0.06,0.07,-0.11,0.04,
2.517,0.00,-0.68,0.05,0.07,-0.11,0.04,
2.517,0.00,-0.68,0.05,0.07,-0.10,0.04,
2.518,0.00,-0.68,0.05,0.08,-0.08,0.05,
2.519,0.00,-0.68,0.05,0.08,-0.07,0.05,
2.52,0.00,-0.68,0.05,0.08,-0.05,0.04,
2.52,0.00,-0.68,0.05,0.08,-0.03,0.03,
2.521,0.31,-0.83,-0.06,0.08,-0.03,0.03,
2.522,0.31,-0.83,-0.06,0.08,-0.01,0.03,
2.523,0.31,-0.83,-0.06,0.07,0.00,0.02,
2.523,0.31,-0.83,-0.06,0.07,0.02,0.02,
2.524,0.31,-0.83,-0.06,0.07,0.03,0.01,
2.525,0.31,-0.83,-0.06,0.07,0.04,0.02,
2.526,0.27,-0.74,-0.05,0.07,0.04,0.02,
2.527,0.27,-0.74,-0.05,0.07,0.04,0.01,
2.527,0.27,-0.74,-0.05,0.06,0.05,0.01,
2.529,0.27,-0.74,-0.05,0.06,0.05,0.01,
2.53,0.27,-0.74,-0.05,0.05,0.05,0.01,
2.531,0.27,-0.74,-0.05,0.05,0.05,0.01,
2.532,0.22,-0.76,0.01,0.05,0.05,0.01,
2.533,0.22,-0.76,0.01,0.05,0.04,0.01,
2.534,0.22,-0.76,0.01,0.04,0.04,0.01,
2.535,0.22,-0.76,0.01,0.04,0.04,0.01,
2.537,0.22,-0.76,0.01,0.04,0.04,0.01,
2.537,0.22,-0.76,0.01,0.04,0.04,0.00,
2.539,0.16,-0.77,-0.01,0.04,0.04,0.00,
2.54,0.16,-0.77,-0.01,0.04,0.04,0.00,
2.541,0.16,-0.77,-0.01,0.03,0.04,-0.00,
2.542,0.16,-0.77,-0.01,0.03,0.04,0.00,
2.543,0.16,-0.77,-0.01,0.03,0.04,0.00,
2.544,0.16,-0.77,-0.01,0.03,0.03,0.00,
2.545,0.20,-0.88,-0.09,0.03,0.03,0.00,
2.546,0.20,-0.88,-0.09,0.03,0.02,0.00,
2.546,0.20,-0.88,-0.09,0.02,0.02,0.00,
2.547,0.20,-0.88,-0.09,0.02,0.01,0.00,
2.548,0.20,-0.88,-0.09,0.02,0.01,0.01,
2.548,0.20,-0.88,-0.09,0.02,0.00,0.01,
2.549,0.20,-0.89,-0.11,0.02,0.00,0.01,
2.55,0.20,-0.89,-0.11,0.01,-0.00,0.01,
2.55,0.20,-0.89,-0.11,0.01,-0.01,0.00,
2.563,0.20,-0.89,-0.11,0.00,-0.02,-0.00,
2.565,0.20,-0.89,-0.11,0.00,-0.02,-0.00,
2.566,0.20,-0.89,-0.11,0.00,-0.02,0.01,
2.568,0.11,-0.83,0.00,0.00,-0.02,0.01,
2.569,0.11,-0.83,0.00,0.00,-0.02,0.02,
2.569,0.11,-0.83,0.00,0.01,-0.02,0.02,
2.589,0.11,-0.83,0.00,0.01,-0.02,0.03,
2.591,0.11,-0.83,0.00,0.01,-0.03,0.03,
2.595,0.11,-0.83,0.00,0.01,-0.04,0.03,
2.596,0.08,-0.59,0.08,0.01,-0.04,0.03,
2.596,0.08,-0.59,0.08,0.01,-0.05,0.04,
2.598,0.08,-0.59,0.08,0.01,-0.06,0.04,
2.6,0.08,-0.59,0.08,0.01,-0.07,0.05,
2.601,0.08,-0.59,0.08,0.00,-0.07,0.05,
2.601,0.08,-0.59,0.08,0.00,-0.07,0.06,
2.602,0.20,-0.35,0.09,0.00,-0.07,0.06,
2.603,0.20,-0.35,0.09,-0.00,-0.07,0.06,
2.603,0.20,-0.35,0.09,-0.01,-0.07,0.06,
2.604,0.20,-0.35,0.09,-0.01,-0.08,0.06,
2.604,0.20,-0.35,0.09,-0.01,-0.08,0.06,
2.605,0.20,-0.35,0.09,-0.01,-0.08,0.06,
2.605,0.44,-0.38,0.19,-0.01,-0.08,0.06,
2.606,0.44,-0.38,0.19,-0.01,-0.08,0.06,
2.607,0.44,-0.38,0.19,-0.01,-0.07,0.06,
2.607,0.44,-0.38,0.19,-0.01,-0.07,0.05,
2.609,0.44,-0.38,0.19,-0.01,-0.07,0.05,
2.61,0.44,-0.38,0.19,-0.01,-0.07,0.05,
2.611,0.57,-0.49,0.27,-0.01,-0.07,0.05,
2.612,0.57,-0.49,0.27,-0.00,-0.07,0.05,
2.612,0.57,-0.49,0.27,-0.00,-0.07,0.05,
2.613,0.57,-0.49,0.27,-0.00,-0.07,0.04,
2.614,0.57,-0.49,0.27,-0.00,-0.08,0.04,
2.615,0.57,-0.49,0.27,-0.00,-0.08,0.04,
2.616,0.56,-0.65,0.29,-0.00,-0.08,0.04,
2.616,0.56,-0.65,0.29,-0.00,-0.09,0.04,
2.617,0.56,-0.65,0.29,0.00,-0.09,0.03,
2.657,0.56,-0.65,0.29,0.01,-0.09,0.03,
2.659,0.56,-0.65,0.29,0.01,-0.10,0.03,
2.66,0.56,-0.65,0.29,0.01,-0.10,0.03,
2.661,0.54,-0.75,0.25,0.01,-0.10,0.03,
2.661,0.54,-0.75,0.25,0.01,-0.10,0.03,
2.662,0.54,-0.75,0.25,0.01,-0.10,0.02,
2.663,0.54,-0.75,0.25,0.00,-0.11,0.02,
2.664,0.54,-0.75,0.25,-0.00,-0.14,0.02,
2.664,0.54,-0.75,0.25,-0.01,-0.18,0.03,
2.665,0.59,-0.93,0.18,-0.01,-0.18,0.03,
2.666,0.59,-0.93,0.18,-0.01,-0.22,0.03,
2.666,0.59,-0.93,0.18,-0.02,-0.26,0.03,
2.667,0.59,-0.93,0.18,-0.03,-0.28,0.03,
2.668,0.59,-0.93,0.18,-0.04,-0.30,0.02,
2.669,0.59,-0.93,0.18,-0.05,-0.29,0.02,
2.67,0.59,-0.82,0.23,-0.05,-0.29,0.02,
2.671,0.59,-0.82,0.23,-0.05,-0.27,0.01,
2.672,0.59,-0.82,0.23,-0.05,-0.24,0.01,
2.672,0.59,-0.82,0.23,-0.04,-0.21,0.02,
2.673,0.59,-0.82,0.23,-0.03,-0.19,0.02,
2.674,0.59,-0.82,0.23,-0.03,-0.17,0.03,
2.675,0.51,-0.52,0.48,-0.03,-0.17,0.03,
2.676,0.51,-0.52,0.48,-0.02,-0.16,0.03,
2.676,0.51,-0.52,0.48,-0.01,-0.15,0.03,
2.677,0.51,-0.52,0.48,-0.00,-0.13,0.02,
2.678,0.51,-0.52,0.48,0.00,-0.10,0.00,
2.679,0.51,-0.52,0.48,0.02,-0.07,-0.02,
2.679,0.81,0.06,0.54,0.02,-0.07,-0.02,
2.68,0.81,0.06,0.54,0.03,-0.06,-0.03,
2.681,0.81,0.06,0.54,0.05,-0.05,-0.04,
2.681,0.81,0.06,0.54,0.07,-0.05,-0.05,
2.682,0.81,0.06,0.54,0.08,-0.05,-0.06,
2.683,0.81,0.06,0.54,0.10,-0.04,-0.06,
2.684,0.30,0.83,0.41,0.10,-0.04,-0.06,
2.684,0.30,0.83,0.41,0.11,-0.04,-0.06,
2.685,0.30,0.83,0.41,0.11,-0.05,-0.04,
2.685,0.30,0.83,0.41,0.10,-0.07,-0.01,
2.686,0.30,0.83,0.41,0.09,-0.10,0.00,
2.687,0.30,0.83,0.41,0.09,-0.11,0.01,
2.687,-0.07,0.94,0.03,0.09,-0.11,0.01,
2.688,-0.07,0.94,0.03,0.08,-0.10,0.01,
2.689,-0.07,0.94,0.03,0.07,-0.11,-0.00,
2.69,-0.07,0.94,0.03,0.06,-0.15,0.00,
2.69,-0.07,0.94,0.03,0.05,-0.19,0.02,
2.691,-0.07,0.94,0.03,0.04,-0.23,0.04,
2.692,0.15,-0.26,0.15,0.04,-0.23,0.04,
2.692,0.15,-0.26,0.15,0.03,-0.25,0.05,
2.693,0.15,-0.26,0.15,0.03,-0.25,0.05,
2.693,0.15,-0.26,0.15,0.04,-0.25,0.05,
2.694,0.15,-0.26,0.15,0.04,-0.24,0.06,
2.7,0.15,-0.26,0.15,0.05,-0.22,0.05,
2.703,0.69,-0.68,0.44,0.05,-0.22,0.05,
2.704,0.69,-0.68,0.44,0.06,-0.21,0.05,
2.704,0.69,-0.68,0.44,0.06,-0.20,0.04,
2.705,0.69,-0.68,0.44,0.07,-0.18,0.04,
2.706,0.69,-0.68,0.44,0.08,-0.16,0.03,
2.706,0.69,-0.68,0.44,0.09,-0.14,0.03,
2.712,0.67,-0.19,0.41,0.09,-0.14,0.03,
2.715,0.67,-0.19,0.41,0.10,-0.14,0.03,
2.715,0.67,-0.19,0.41,0.10,-0.14,0.03,
2.716,0.67,-0.19,0.41,0.11,-0.15,0.01,
2.717,0.67,-0.19,0.41,0.10,-0.16,-0.00,
2.717,0.67,-0.19,0.41,0.10,-0.17,-0.00,
2.719,0.54,-0.12,0.29,0.10,-0.17,-0.00,
2.72,0.54,-0.12,0.29,0.10,-0.18,0.01,
2.721,0.54,-0.12,0.29,0.11,-0.18,0.03,
2.722,0.54,-0.12,0.29,0.11,-0.18,0.03,
2.739,0.54,-0.12,0.29,0.11,-0.18,0.03,
2.743,0.54,-0.12,0.29,0.10,-0.18,0.02,
2.744,0.31,0.10,0.27,0.10,-0.18,0.02,
2.745,0.31,0.10,0.27,0.10,-0.19,0.01,
2.746,0.31,0.10,0.27,0.09,-0.19,0.00,
2.747,0.31,0.10,0.27,0.09,-0.20,-0.01,
2.748,0.31,0.10,0.27,0.10,-0.23,0.01,
2.749,0.31,0.10,0.27,0.10,-0.23,0.01,
2.749,0.31,0.10,0.27,0.10,-0.23,0.01,
2.75,0.10,0.03,0.27,0.10,-0.23,0.01,
2.751,0.10,0.03,0.27,0.11,-0.23,0.02,
2.752,0.10,0.03,0.27,0.11,-0.22,0.04,
2.752,0.10,0.03,0.27,0.11,-0.22,0.03,
2.756,0.10,0.03,0.27,0.09,-0.21,0.03,
2.777,0.31,-0.38,0.03,0.09,-0.21,0.03,
2.78,0.31,-0.38,0.03,0.08,-0.21,0.02,
2.781,0.31,-0.38,0.03,0.07,-0.22,0.01,
2.781,0.31,-0.38,0.03,0.06,-0.22,-0.00,
2.782,0.31,-0.38,0.03,0.07,-0.23,-0.00,
2.783,0.31,-0.38,0.03,0.07,-0.23,-0.00,
2.783,0.45,-0.49,0.10,0.07,-0.23,-0.00,
2.784,0.45,-0.49,0.10,0.07,-0.23,-0.01,
2.785,0.45,-0.49,0.10,0.07,-0.23,-0.01,
2.786,0.45,-0.49,0.10,0.07,-0.23,-0.01,
2.787,0.45,-0.49,0.10,0.07,-0.22,-0.02,
2.788,0.45,-0.49,0.10,0.06,-0.23,-0.03,
2.79,0.45,-0.56,0.03,0.06,-0.23,-0.03,
2.793,0.45,-0.56,0.03,0.06,-0.23,-0.04,
2.794,0.45,-0.56,0.03,0.06,-0.22,-0.03,
2.794,0.45,-0.56,0.03,0.07,-0.21,-0.02,
2.794,0.45,-0.56,0.03,0.07,-0.19,-0.01,
2.795,0.45,-0.56,0.03,0.06,-0.19,-0.00,
2.795,-0.13,-0.16,-0.04,0.06,-0.19,-0.00,
2.824,-0.13,-0.16,-0.04,0.04,-0.20,-0.00,
2.825,-0.13,-0.16,-0.04,0.03,-0.22,0.00,
2.825,-0.13,-0.16,-0.04,0.02,-0.25,0.00,
2.826,-0.13,-0.16,-0.04,0.02,-0.26,-0.00,
2.826,-0.13,-0.16,-0.04,0.03,-0.26,-0.01,
2.827,-0.13,-0.24,0.05,0.03,-0.26,-0.01,
2.827,-0.13,-0.24,0.05,0.03,-0.24,-0.01,
2.828,-0.13,-0.24,0.05,0.04,-0.23,-0.01,
2.828,-0.13,-0.24,0.05,0.04,-0.22,-0.01,
2.829,-0.13,-0.24,0.05,0.04,-0.21,-0.01,
2.829,-0.13,-0.24,0.05,0.05,-0.21,-0.02,
2.829,-0.14,-0.74,0.12,0.05,-0.21,-0.02,
2.83,-0.14,-0.74,0.12,0.05,-0.20,-0.01,
2.83,-0.14,-0.74,0.12,0.05,-0.20,-0.02,
2.831,-0.14,-0.74,0.12,0.04,-0.21,-0.02,
2.831,-0.14,-0.74,0.12,0.03,-0.21,-0.02,
2.832,-0.14,-0.74,0.12,0.03,-0.21,-0.02,
2.832,-0.20,-0.82,-0.00,0.03,-0.21,-0.02,
2.832,-0.20,-0.82,-0.00,0.03,-0.21,-0.02,
2.833,-0.20,-0.82,-0.00,0.02,-0.21,-0.02,
2.833,-0.20,-0.82,-0.00,0.02,-0.22,-0.02,
2.834,-0.20,-0.82,-0.00,0.02,-0.22,-0.02,
2.834,-0.20,-0.82,-0.00,0.02,-0.22,-0.02,
2.835,-0.24,-0.73,-0.00,0.02,-0.22,-0.02,
2.835,-0.24,-0.73,-0.00,0.02,-0.21,-0.02,
2.835,-0.24,-0.73,-0.00,0.02,-0.21,-0.02,
2.836,-0.24,-0.73,-0.00,0.01,-0.21,-0.02,
2.836,-0.24,-0.73,-0.00,0.01,-0.21,-0.02,
2.837,-0.24,-0.73,-0.00,0.01,-0.21,-0.02,
2.837,-0.25,-0.63,-0.00,0.01,-0.21,-0.02,
2.838,-0.25,-0.63,-0.00,0.01,-0.21,-0.02,
2.838,-0.25,-0.63,-0.00,0.01,-0.20,-0.02,
2.838,-0.25,-0.63,-0.00,0.01,-0.20,-0.01,
2.839,-0.25,-0.63,-0.00,0.01,-0.20,-0.01,
2.839,-0.25,-0.63,-0.00,0.00,-0.20,-0.01,
2.84,-0.26,-0.59,-0.00,0.00,-0.20,-0.01,
2.84,-0.26,-0.59,-0.00,-0.00,-0.20,-0.01,
2.841,-0.26,-0.59,-0.00,0.00,-0.19,-0.01,
2.845,-0.26,-0.59,-0.00,-0.00,-0.19,-0.01,
2.847,-0.26,-0.59,-0.00,-0.01,-0.19,-0.01,
2.847,-0.26,-0.59,-0.00,-0.01,-0.18,-0.01,
2.848,-0.22,-0.58,-0.00,-0.01,-0.18,-0.01,
2.848,-0.22,-0.58,-0.00,-0.01,-0.18,-0.01,
2.852,-0.22,-0.58,-0.00,-0.01,-0.18,-0.01,
2.853,-0.22,-0.58,-0.00,-0.02,-0.18,-0.01,
2.856,-0.22,-0.58,-0.00,-0.02,-0.18,-0.01,
2.861,-0.22,-0.58,-0.00,-0.02,-0.18,-0.01,
2.862,-0.25,-0.58,0.05,-0.02,-0.18,-0.01,
2.863,-0.25,-0.58,0.05,-0.02,-0.18,-0.01,
2.863,-0.25,-0.58,0.05,-0.02,-0.18,-0.01,
2.863,-0.25,-0.58,0.05,-0.02,-0.18,-0.00,
2.864,-0.25,-0.58,0.05,-0.02,-0.18,-0.00,
2.867,-0.25,-0.58,0.05,-0.02,-0.18,-0.00,
2.868,-0.24,-0.60,0.06,-0.02,-0.18,-0.00,
2.868,-0.24,-0.60,0.06,-0.02,-0.18,-0.00,
2.87,-0.24,-0.60,0.06,-0.02,-0.18,-0.00,
2.872,-0.24,-0.60,0.06,-0.03,-0.18,-0.00,
2.88,-0.24,-0.60,0.06,-0.02,-0.17,-0.00,
2.881,-0.24,-0.60,0.06,-0.02,-0.17,-0.00,
2.882,-0.26,-0.67,0.05,-0.02,-0.17,-0.00,
2.882,-0.26,-0.67,0.05,-0.02,-0.17,-0.00,
2.882,-0.26,-0.67,0.05,-0.02,-0.17,-0.00,
2.883,-0.26,-0.67,0.05,-0.03,-0.16,-0.00,
2.884,-0.26,-0.67,0.05,-0.03,-0.16,-0.00,
2.888,-0.26,-0.67,0.05,-0.03,-0.16,-0.00,
2.907,-0.25,-0.73,0.05,-0.03,-0.16,-0.00,
2.909,-0.25,-0.73,0.05,-0.03,-0.16,-0.00,
2.909,-0.25,-0.73,0.05,-0.03,-0.15,-0.00,
2.909,-0.25,-0.73,0.05,-0.03,-0.15,-0.00,
2.909,-0.25,-0.73,0.05,-0.03,-0.15,-0.00,
2.91,-0.25,-0.73,0.05,-0.02,-0.15,-0.00,
2.91,-0.29,-0.70,0.08,-0.02,-0.15,-0.00,
2.91,-0.29,-0.70,0.08,-0.03,-0.15,-0.00,
2.911,-0.29,-0.70,0.08,-0.03,-0.15,-0.00,
2.911,-0.29,-0.70,0.08,-0.02,-0.14,-0.00,
2.911,-0.29,-0.70,0.08,-0.03,-0.14,-0.00,
2.912,-0.29,-0.70,0.08,-0.02,-0.13,-0.00,
2.912,-0.35,-0.63,0.02,-0.02,-0.13,-0.00,
2.912,-0.35,-0.63,0.02,-0.02,-0.12,-0.00,
2.913,-0.35,-0.63,0.02,-0.03,-0.12,-0.00,
2.913,-0.35,-0.63,0.02,-0.02,-0.11,-0.00,
2.916,-0.35,-0.63,0.02,-0.02,-0.11,0.00,
2.917,-0.35,-0.63,0.02,-0.02,-0.11,-0.00,
2.921,-0.37,-0.54,0.01,-0.02,-0.11,-0.00,
2.922,-0.37,-0.54,0.01,-0.02,-0.10,-0.00,
2.922,-0.37,-0.54,0.01,-0.02,-0.09,-0.00,
2.922,-0.37,-0.54,0.01,-0.02,-0.09,-0.00,
2.924,-0.37,-0.54,0.01,-0.02,-0.08,-0.00,
2.926,-0.37,-0.54,0.01,-0.02,-0.08,-0.00,
2.928,-0.32,-0.49,0.01,-0.02,-0.08,-0.00,
2.929,-0.32,-0.49,0.01,-0.01,-0.07,-0.00,
2.93,-0.32,-0.49,0.01,-0.02,-0.06,-0.00,
2.932,-0.32,-0.49,0.01,-0.02,-0.06,-0.01,
2.934,-0.32,-0.49,0.01,-0.01,-0.05,-0.01,
2.936,-0.32,-0.49,0.01,-0.01,-0.05,-0.01,
2.938,-0.30,-0.39,0.02,-0.01,-0.05,-0.01,
2.939,-0.30,-0.39,0.02,-0.01,-0.04,-0.01,
2.941,-0.30,-0.39,0.02,-0.01,-0.03,-0.01,
2.944,-0.30,-0.39,0.02,-0.01,-0.02,-0.01,
2.945,-0.30,-0.39,0.02,-0.01,-0.01,-0.01,
2.971,-0.30,-0.39,0.02,-0.00,-0.01,-0.01,
2.972,-0.38,-0.32,0.02,-0.00,-0.01,-0.01,
2.972,-0.38,-0.32,0.02,-0.00,-0.00,-0.01,
2.973,-0.38,-0.32,0.02,-0.00,0.00,-0.01,
2.973,-0.38,-0.32,0.02,0.00,0.01,-0.01,
2.973,-0.38,-0.32,0.02,0.00,0.01,-0.01,
2.974,-0.38,-0.32,0.02,0.00,0.02,-0.01,
2.974,-0.42,-0.33,0.03,0.00,0.02,-0.01,
2.975,-0.42,-0.33,0.03,0.00,0.02,-0.00,
2.975,-0.42,-0.33,0.03,0.01,0.02,-0.00,
2.976,-0.42,-0.33,0.03,0.01,0.03,-0.00,
2.976,-0.42,-0.33,0.03,0.01,0.03,0.00,
2.977,-0.42,-0.33,0.03,0.01,0.04,0.00,
2.977,-0.31,-0.34,0.02,0.01,0.04,0.00,
2.977,-0.31,-0.34,0.02,0.01,0.04,0.00,
2.978,-0.31,-0.34,0.02,0.02,0.04,0.00,
2.978,-0.31,-0.34,0.02,0.02,0.05,0.01,
2.979,-0.31,-0.34,0.02,0.02,0.05,0.01,
2.979,-0.31,-0.34,0.02,0.02,0.06,0.01,
2.98,-0.17,-0.30,0.02,0.02,0.06,0.01,
2.98,-0.17,-0.30,0.02,0.02,0.07,0.01,
2.98,-0.17,-0.30,0.02,0.02,0.07,0.01,
2.985,-0.17,-0.30,0.02,0.02,0.07,0.01,
2.986,-0.17,-0.30,0.02,0.03,0.07,0.01,
2.987,-0.17,-0.30,0.02,0.03,0.07,0.01,
2.99,-0.09,-0.30,0.02,0.03,0.07,0.01,
2.991,-0.09,-0.30,0.02,0.03,0.08,0.01,
2.992,-0.09,-0.30,0.02,0.04,0.08,0.01,
3.003,-0.09,-0.30,0.02,0.04,0.08,0.01,
3.004,-0.09,-0.30,0.02,0.04,0.07,0.01,
3.004,-0.09,-0.30,0.02,0.03,0.05,-0.01,
3.005,0.17,-0.39,0.02,0.03,0.05,-0.01,
3.005,0.17,-0.39,0.02,0.03,0.03,-0.03,
3.006,0.17,-0.39,0.02,0.04,0.00,-0.03,
3.006,0.17,-0.39,0.02,0.04,-0.02,-0.03,
3.007,0.17,-0.39,0.02,0.04,-0.05,-0.04,
3.007,0.17,-0.39,0.02,0.03,-0.10,-0.03,
3.032,-0.18,-0.41,0.08,0.03,-0.10,-0.03,
3.033,-0.18,-0.41,0.08,0.03,-0.12,-0.02,
3.033,-0.18,-0.41,0.08,0.03,-0.13,0.00,
3.033,-0.18,-0.41,0.08,0.03,-0.12,0.02,
3.034,-0.18,-0.41,0.08,0.03,-0.12,0.04,
3.034,-0.18,-0.41,0.08,0.03,-0.14,0.04,
3.034,-0.06,-0.25,0.02,0.03,-0.14,0.04,
3.035,-0.06,-0.25,0.02,0.03,-0.16,0.04,
3.035,-0.06,-0.25,0.02,0.03,-0.17,0.04,
3.035,-0.06,-0.25,0.02,0.03,-0.16,0.03,
3.036,-0.06,-0.25,0.02,0.03,-0.14,0.04,
3.036,-0.06,-0.25,0.02,0.03,-0.11,0.05,
3.036,0.42,-0.12,-0.01,0.03,-0.11,0.05,
3.037,0.42,-0.12,-0.01,0.02,-0.08,0.06,
3.037,0.42,-0.12,-0.01,0.02,-0.07,0.07,
3.037,0.42,-0.12,-0.01,0.02,-0.05,0.08,
3.038,0.42,-0.12,-0.01,0.02,-0.03,0.07,
3.038,0.42,-0.12,-0.01,0.02,-0.01,0.07,
3.038,1.11,0.16,0.04,0.02,-0.01,0.07,
3.039,1.11,0.16,0.04,0.03,-0.01,0.09,
3.05,1.11,0.16,0.04,0.04,-0.00,0.10,
3.051,1.11,0.16,0.04,0.04,0.01,0.07,
3.051,1.11,0.16,0.04,0.04,0.01,0.05,
3.051,1.11,0.16,0.04,0.05,0.00,0.04,
3.052,1.44,0.33,0.01,0.05,0.00,0.04,
3.052,1.44,0.33,0.01,0.06,-0.01,0.05,
3.052,1.44,0.33,0.01,0.07,-0.01,0.06,
3.053,1.44,0.33,0.01,0.07,-0.02,0.08,
3.056,1.44,0.33,0.01,0.08,-0.02,0.09,
3.056,1.44,0.33,0.01,0.08,-0.03,0.08,
3.062,1.48,0.43,0.01,0.08,-0.03,0.08,
3.062,1.48,0.43,0.01,0.08,-0.05,0.07,
3.063,1.48,0.43,0.01,0.07,-0.07,0.05,
3.063,1.48,0.43,0.01,0.07,-0.09,0.05,
3.064,1.48,0.43,0.01,0.06,-0.11,0.06,
3.068,1.48,0.43,0.01,0.07,-0.14,0.08,
3.069,1.36,0.50,0.04,0.07,-0.14,0.08,
3.069,1.36,0.50,0.04,0.07,-0.15,0.09,
3.069,1.36,0.50,0.04,0.08,-0.16,0.11,
3.073,1.36,0.50,0.04,0.10,-0.16,0.11,
3.074,1.36,0.50,0.04,0.12,-0.15,0.11,
3.078,1.36,0.50,0.04,0.13,-0.14,0.10,
3.08,1.58,0.46,0.23,0.13,-0.14,0.10,
3.08,1.58,0.46,0.23,0.14,-0.13,0.09,
3.08,1.58,0.46,0.23,0.15,-0.13,0.08,
3.082,1.58,0.46,0.23,0.16,-0.12,0.06,
3.084,1.58,0.46,0.23,0.16,-0.12,0.05,
3.087,1.58,0.46,0.23,0.16,-0.12,0.04,
3.091,1.54,0.21,0.07,0.16,-0.12,0.04,
3.097,1.54,0.21,0.07,0.17,-0.13,0.04,
3.098,1.54,0.21,0.07,0.17,-0.15,0.04,
3.098,1.54,0.21,0.07,0.17,-0.17,0.05,
3.1,1.54,0.21,0.07,0.18,-0.21,0.05,
3.101,1.54,0.21,0.07,0.19,-0.22,0.05,
3.122,1.19,0.09,0.24,0.19,-0.22,0.05,
3.128,1.19,0.09,0.24,0.19,-0.24,0.06,
3.129,1.19,0.09,0.24,0.20,-0.26,0.06,
3.13,1.19,0.09,0.24,0.21,-0.28,0.06,
3.131,1.19,0.09,0.24,0.21,-0.30,0.06,
3.132,1.19,0.09,0.24,0.21,-0.31,0.06,
3.133,1.09,-0.18,0.22,0.21,-0.31,0.06,
3.134,1.09,-0.18,0.22,0.22,-0.31,0.05,
3.135,1.09,-0.18,0.22,0.22,-0.31,0.04,
3.173,1.09,-0.18,0.22,0.22,-0.33,0.04,
3.174,1.09,-0.18,0.22,0.22,-0.33,0.04,
3.174,1.09,-0.18,0.22,0.22,-0.34,0.04,
3.175,0.92,-0.37,0.19,0.22,-0.34,0.04,
3.175,0.92,-0.37,0.19,0.22,-0.36,0.04,
3.176,0.92,-0.37,0.19,0.23,-0.39,0.04,
3.176,0.92,-0.37,0.19,0.23,-0.41,0.05,
3.176,0.92,-0.37,0.19,0.23,-0.43,0.05,
3.177,0.92,-0.37,0.19,0.23,-0.44,0.05,
3.177,0.67,-0.45,0.25,0.23,-0.44,0.05,
3.178,0.67,-0.45,0.25,0.24,-0.46,0.05,
3.178,0.67,-0.45,0.25,0.24,-0.47,0.06,
3.179,0.67,-0.45,0.25,0.25,-0.50,0.06,
3.179,0.67,-0.45,0.25,0.26,-0.51,0.06,
3.179,0.67,-0.45,0.25,0.26,-0.52,0.06,
3.18,0.53,-0.48,0.24,0.26,-0.52,0.06,
3.18,0.53,-0.48,0.24,0.26,-0.51,0.05,
3.181,0.53,-0.48,0.24,0.25,-0.49,0.04,
3.181,0.53,-0.48,0.24,0.25,-0.48,0.03,
3.182,0.53,-0.48,0.24,0.25,-0.48,0.03,
3.182,0.53,-0.48,0.24,0.25,-0.48,0.03,
3.182,0.20,-0.61,-0.01,0.25,-0.48,0.03,
3.183,0.20,-0.61,-0.01,0.25,-0.49,0.04,
3.183,0.20,-0.61,-0.01,0.25,-0.50,0.04,
3.184,0.20,-0.61,-0.01,0.25,-0.50,0.04,
3.184,0.20,-0.61,-0.01,0.24,-0.48,0.03,
3.185,0.20,-0.61,-0.01,0.23,-0.46,0.02,
3.185,-0.20,-0.87,-0.26,0.23,-0.46,0.02,
3.186,-0.20,-0.87,-0.26,0.22,-0.43,0.01,
3.186,-0.20,-0.87,-0.26,0.22,-0.40,0.01,
3.186,-0.20,-0.87,-0.26,0.21,-0.39,0.01,
3.187,-0.20,-0.87,-0.26,0.20,-0.39,0.02,
3.187,-0.20,-0.87,-0.26,0.20,-0.39,0.02,
3.188,-0.67,-1.06,-0.32,0.20,-0.39,0.02,
3.188,-0.67,-1.06,-0.32,0.19,-0.39,0.02,
3.189,-0.67,-1.06,-0.32,0.19,-0.40,0.03,
3.189,-0.67,-1.06,-0.32,0.20,-0.42,0.04,
3.189,-0.67,-1.06,-0.32,0.19,-0.42,0.04,
3.19,-0.67,-1.06,-0.32,0.19,-0.43,0.04,
3.19,-0.78,-1.10,-0.22,0.19,-0.43,0.04,
3.191,-0.78,-1.10,-0.22,0.18,-0.43,0.04,
3.191,-0.78,-1.10,-0.22,0.18,-0.43,0.05,
3.192,-0.78,-1.10,-0.22,0.18,-0.44,0.05,
3.192,-0.78,-1.10,-0.22,0.17,-0.44,0.06,
3.192,-0.78,-1.10,-0.22,0.16,-0.42,0.05,
3.193,-0.71,-1.23,-0.26,0.16,-0.42,0.05,
3.193,-0.71,-1.23,-0.26,0.14,-0.39,0.04,
3.194,-0.71,-1.23,-0.26,0.13,-0.35,0.03,
3.194,-0.71,-1.23,-0.26,0.12,-0.32,0.02,
3.195,-0.71,-1.23,-0.26,0.11,-0.29,0.01,
3.197,-0.71,-1.23,-0.26,0.09,-0.28,0.01,
3.202,-0.79,-1.47,-0.15,0.09,-0.28,0.01,
3.203,-0.79,-1.47,-0.15,0.09,-0.28,0.01,
3.204,-0.79,-1.47,-0.15,0.08,-0.28,0.01,
3.204,-0.79,-1.47,-0.15,0.07,-0.27,0.01,
3.204,-0.79,-1.47,-0.15,0.07,-0.25,0.01,
3.217,-0.79,-1.47,-0.15,0.06,-0.23,0.01,
3.218,-0.99,-1.57,0.06,0.06,-0.23,0.01,
3.219,-0.99,-1.57,0.06,0.05,-0.20,0.01,
3.219,-0.99,-1.57,0.06,0.06,-0.21,0.02,
3.219,-0.99,-1.57,0.06,0.06,-0.23,0.03,
3.22,-0.99,-1.57,0.06,0.07,-0.24,0.03,
3.22,-0.99,-1.57,0.06,0.07,-0.25,0.04,
3.22,-1.04,-1.45,0.29,0.07,-0.25,0.04,
3.221,-1.04,-1.45,0.29,0.07,-0.26,0.04,
3.221,-1.04,-1.45,0.29,0.07,-0.25,0.03,
3.231,-1.04,-1.45,0.29,0.05,-0.23,0.03,
3.232,-1.04,-1.45,0.29,0.04,-0.18,0.01,
3.233,-1.04,-1.45,0.29,0.02,-0.14,0.01,
3.233,-0.93,-1.36,-0.01,0.02,-0.14,0.01,
3.234,-0.93,-1.36,-0.01,0.01,-0.12,0.01,
3.234,-0.93,-1.36,-0.01,0.01,-0.12,0.01,
3.234,-0.93,-1.36,-0.01,0.01,-0.13,0.02,
3.235,-0.93,-1.36,-0.01,0.00,-0.12,0.02,
3.238,-0.93,-1.36,-0.01,-0.01,-0.11,0.02,
3.239,-1.06,-1.32,0.29,-0.01,-0.11,0.02,
3.239,-1.06,-1.32,0.29,-0.01,-0.10,0.02,
3.249,-1.06,-1.32,0.29,-0.01,-0.09,0.02,
3.25,-1.06,-1.32,0.29,-0.01,-0.09,0.03,
3.251,-1.06,-1.32,0.29,-0.01,-0.09,0.03,
3.251,-1.06,-1.32,0.29,-0.01,-0.09,0.04,
3.252,-1.15,-1.18,0.36,-0.01,-0.09,0.04,
3.252,-1.15,-1.18,0.36,-0.02,-0.08,0.04,
3.252,-1.15,-1.18,0.36,-0.02,-0.07,0.04,
3.253,-1.15,-1.18,0.36,-0.02,-0.07,0.04,
3.257,-1.15,-1.18,0.36,-0.02,-0.06,0.05,
3.28,-1.15,-1.18,0.36,-0.03,-0.05,0.05,
3.281,-0.94,-0.99,0.32,-0.03,-0.05,0.05,
3.281,-0.94,-0.99,0.32,-0.03,-0.04,0.05,
3.281,-0.94,-0.99,0.32,-0.03,-0.03,0.05,
3.282,-0.94,-0.99,0.32,-0.04,-0.02,0.05,
3.282,-0.94,-0.99,0.32,-0.04,-0.02,0.05,
3.282,-0.94,-0.99,0.32,-0.04,-0.02,0.05,
3.283,-0.57,-0.81,0.39,-0.04,-0.02,0.05,
3.283,-0.57,-0.81,0.39,-0.04,-0.02,0.05,
3.283,-0.57,-0.81,0.39,-0.04,-0.03,0.06,
3.284,-0.57,-0.81,0.39,-0.04,-0.03,0.06,
3.284,-0.57,-0.81,0.39,-0.04,-0.03,0.06,
3.284,-0.57,-0.81,0.39,-0.04,-0.02,0.06,
3.285,-0.29,-0.68,0.51,-0.04,-0.02,0.06,
3.313,-0.29,-0.68,0.51,-0.03,-0.02,0.06,
3.313,-0.29,-0.68,0.51,-0.03,-0.02,0.06,
3.313,-0.29,-0.68,0.51,-0.03,-0.01,0.06,
3.314,-0.29,-0.68,0.51,-0.03,-0.01,0.05,
3.314,-0.29,-0.68,0.51,-0.03,-0.00,0.05,
3.315,-0.15,-0.54,0.54,-0.03,-0.00,0.05,
3.315,-0.15,-0.54,0.54,-0.03,0.01,0.05,
3.316,-0.15,-0.54,0.54,-0.02,0.01,0.05,
3.316,-0.15,-0.54,0.54,-0.02,0.02,0.05,
3.317,-0.15,-0.54,0.54,-0.02,0.02,0.05,
3.317,-0.15,-0.54,0.54,-0.01,0.03,0.05,
3.317,-0.15,-0.48,0.62,-0.01,0.03,0.05,
3.318,-0.15,-0.48,0.62,-0.01,0.03,0.05,
3.318,-0.15,-0.48,0.62,-0.01,0.04,0.05,
3.319,-0.15,-0.48,0.62,-0.01,0.05,0.05,
3.319,-0.15,-0.48,0.62,-0.01,0.06,0.05,
3.32,-0.15,-0.48,0.62,-0.01,0.08,0.04,
3.32,-0.11,-0.42,0.57,-0.01,0.08,0.04,
3.321,-0.11,-0.42,0.57,-0.01,0.10,0.04,
3.321,-0.11,-0.42,0.57,-0.00,0.12,0.03,
3.321,-0.11,-0.42,0.57,-0.00,0.14,0.03,
3.322,-0.11,-0.42,0.57,0.00,0.16,0.03,
3.322,-0.11,-0.42,0.57,0.01,0.17,0.03,
3.323,-0.15,-0.25,0.53,0.01,0.17,0.03,
3.323,-0.15,-0.25,0.53,0.01,0.18,0.03,
3.324,-0.15,-0.25,0.53,0.01,0.19,0.03,
3.324,-0.15,-0.25,0.53,0.02,0.19,0.03,
3.324,-0.15,-0.25,0.53,0.02,0.19,0.02,
3.328,-0.15,-0.25,0.53,0.02,0.20,0.02,
3.329,-0.13,-0.09,0.46,0.02,0.20,0.02,
3.329,-0.13,-0.09,0.46,0.03,0.21,0.02,
3.33,-0.13,-0.09,0.46,0.03,0.21,0.02,
3.332,-0.13,-0.09,0.46,0.03,0.21,0.02,
3.337,-0.13,-0.09,0.46,0.03,0.21,0.02,
3.337,-0.13,-0.09,0.46,0.04,0.21,0.02,
3.339,-0.19,0.01,0.40,0.04,0.21,0.02,
3.34,-0.19,0.01,0.40,0.04,0.22,0.01,
3.341,-0.19,0.01,0.40,0.04,0.21,0.02,
3.342,-0.19,0.01,0.40,0.05,0.21,0.02,
3.344,-0.19,0.01,0.40,0.05,0.21,0.02,
3.346,-0.19,0.01,0.40,0.06,0.21,0.03,
3.348,-0.21,0.12,0.25,0.06,0.21,0.03,
3.349,-0.21,0.12,0.25,0.06,0.20,0.03,
3.35,-0.21,0.12,0.25,0.06,0.20,0.03,
3.352,-0.21,0.12,0.25,0.06,0.19,0.04,
3.354,-0.21,0.12,0.25,0.05,0.19,0.04,
3.357,-0.21,0.12,0.25,0.04,0.18,0.04,
3.359,-0.05,0.20,0.03,0.04,0.18,0.04,
3.359,-0.05,0.20,0.03,0.04,0.17,0.05,
3.36,-0.05,0.20,0.03,0.03,0.15,0.05,
3.364,-0.05,0.20,0.03,0.03,0.14,0.06,
3.365,-0.05,0.20,0.03,0.03,0.14,0.06,
3.366,-0.05,0.20,0.03,0.02,0.13,0.06,
3.368,0.16,0.23,-0.03,0.02,0.13,0.06,
3.368,0.16,0.23,-0.03,0.02,0.14,0.06,
3.372,0.16,0.23,-0.03,0.02,0.14,0.06,
3.372,0.16,0.23,-0.03,0.02,0.14,0.06,
3.381,0.16,0.23,-0.03,0.02,0.14,0.07,
3.382,0.16,0.23,-0.03,0.02,0.14,0.07,
3.382,0.36,0.19,0.04,0.02,0.14,0.07,
3.382,0.36,0.19,0.04,0.02,0.15,0.06,
3.383,0.36,0.19,0.04,0.02,0.15,0.07,
3.383,0.36,0.19,0.04,0.03,0.15,0.07,
3.389,0.36,0.19,0.04,0.03,0.15,0.07,
3.39,0.36,0.19,0.04,0.03,0.15,0.07,
3.39,0.46,0.19,0.05,0.03,0.15,0.07,
3.39,0.46,0.19,0.05,0.03,0.16,0.07,
3.391,0.46,0.19,0.05,0.03,0.17,0.06,
3.41,0.46,0.19,0.05,0.03,0.17,0.07,
3.411,0.46,0.19,0.05,0.03,0.17,0.06,
3.411,0.46,0.19,0.05,0.03,0.17,0.06,
3.411,0.55,0.25,-0.02,0.03,0.17,0.06,
3.412,0.55,0.25,-0.02,0.02,0.16,0.06,
3.412,0.55,0.25,-0.02,0.02,0.15,0.06,
3.412,0.55,0.25,-0.02,0.02,0.14,0.06,
3.413,0.55,0.25,-0.02,0.02,0.13,0.06,
3.413,0.55,0.25,-0.02,0.02,0.12,0.06,
3.413,0.56,0.13,-0.09,0.02,0.12,0.06,
3.414,0.56,0.13,-0.09,0.02,0.12,0.06,
3.414,0.56,0.13,-0.09,0.02,0.11,0.07,
3.414,0.56,0.13,-0.09,0.02,0.10,0.07,
3.415,0.56,0.13,-0.09,0.02,0.10,0.07,
3.418,0.56,0.13,-0.09,0.02,0.09,0.06,
3.419,0.49,-0.03,-0.15,0.02,0.09,0.06,
3.419,0.49,-0.03,-0.15,0.02,0.09,0.07,
3.422,0.49,-0.03,-0.15,0.03,0.09,0.07,
3.422,0.49,-0.03,-0.15,0.04,0.08,0.06,
3.428,0.49,-0.03,-0.15,0.05,0.08,0.06,
3.429,0.49,-0.03,-0.15,0.06,0.06,0.07,
3.429,0.28,-0.16,0.02,0.06,0.06,0.07,
3.43,0.28,-0.16,0.02,0.08,0.05,0.08,
3.43,0.28,-0.16,0.02,0.09,0.04,0.08,
3.434,0.28,-0.16,0.02,0.09,0.04,0.08,
3.434,0.28,-0.16,0.02,0.09,0.04,0.08,
3.438,0.28,-0.16,0.02,0.09,0.04,0.08,
3.446,0.20,-0.17,-0.16,0.09,0.04,0.08,
3.447,0.20,-0.17,-0.16,0.09,0.03,0.08,
3.447,0.20,-0.17,-0.16,0.09,0.03,0.09,
3.448,0.20,-0.17,-0.16,0.09,0.02,0.09,
3.448,0.20,-0.17,-0.16,0.08,-0.01,0.08,
3.477,0.20,-0.17,-0.16,0.08,-0.02,0.09,
3.477,0.23,-0.19,-0.40,0.08,-0.02,0.09,
3.478,0.23,-0.19,-0.40,0.08,-0.04,0.09,
3.478,0.23,-0.19,-0.40,0.08,-0.06,0.09,
3.479,0.23,-0.19,-0.40,0.07,-0.07,0.09,
3.479,0.23,-0.19,-0.40,0.07,-0.09,0.09,
3.48,0.23,-0.19,-0.40,0.07,-0.10,0.09,
3.48,0.58,-0.11,-0.51,0.07,-0.10,0.09,
3.481,0.58,-0.11,-0.51,0.07,-0.12,0.09,
3.481,0.58,-0.11,-0.51,0.07,-0.14,0.09,
3.481,0.58,-0.11,-0.51,0.07,-0.14,0.09,
3.482,0.58,-0.11,-0.51,0.07,-0.14,0.08,
3.482,0.58,-0.11,-0.51,0.07,-0.13,0.07,
3.483,1.04,-0.19,-0.45,0.07,-0.13,0.07,
3.483,1.04,-0.19,-0.45,0.06,-0.12,0.06,
3.484,1.04,-0.19,-0.45,0.05,-0.10,0.05,
3.484,1.04,-0.19,-0.45,0.05,-0.07,0.04,
3.484,1.04,-0.19,-0.45,0.05,-0.05,0.03,
3.485,1.04,-0.19,-0.45,0.04,-0.04,0.02,
3.485,1.23,-0.28,-0.35,0.04,-0.04,0.02,
3.486,1.23,-0.28,-0.35,0.03,-0.03,0.01,
3.486,1.23,-0.28,-0.35,0.03,-0.03,-0.00,
3.487,1.23,-0.28,-0.35,0.02,-0.03,-0.01,
3.487,1.23,-0.28,-0.35,0.02,-0.03,-0.01,
3.488,1.23,-0.28,-0.35,0.03,-0.03,-0.02,
3.49,0.83,-0.28,-0.15,0.03,-0.03,-0.02,
3.491,0.83,-0.28,-0.15,0.03,-0.03,-0.02,
3.491,0.83,-0.28,-0.15,0.04,-0.04,-0.03,
3.492,0.83,-0.28,-0.15,0.04,-0.04,-0.03,
3.496,0.83,-0.28,-0.15,0.05,-0.04,-0.03,
3.497,0.83,-0.28,-0.15,0.05,-0.05,-0.03,
3.5,0.24,-0.28,0.01,0.05,-0.05,-0.03,
3.501,0.24,-0.28,0.01,0.06,-0.05,-0.02,
3.502,0.24,-0.28,0.01,0.07,-0.07,-0.02,
3.502,0.24,-0.28,0.01,0.08,-0.09,-0.01,
3.505,0.24,-0.28,0.01,0.08,-0.10,-0.00,
3.507,0.24,-0.28,0.01,0.08,-0.09,-0.00,
3.509,-0.17,-0.38,-0.21,0.08,-0.09,-0.00,
3.509,-0.17,-0.38,-0.21,0.08,-0.09,0.00,
3.51,-0.17,-0.38,-0.21,0.08,-0.08,0.01,
3.512,-0.17,-0.38,-0.21,0.07,-0.07,0.01,
3.514,-0.17,-0.38,-0.21,0.06,-0.06,0.02,
3.516,-0.17,-0.38,-0.21,0.06,-0.05,0.02,
3.519,-0.27,-0.75,-0.37,0.06,-0.05,0.02,
3.519,-0.27,-0.75,-0.37,0.05,-0.05,0.03,
3.52,-0.27,-0.75,-0.37,0.05,-0.04,0.03,
3.527,-0.27,-0.75,-0.37,0.05,-0.02,0.04,
3.529,-0.27,-0.75,-0.37,0.04,-0.01,0.04,
3.529,-0.27,-0.75,-0.37,0.04,0.00,0.04,
3.53,-0.16,-1.03,-0.18,0.04,0.00,0.04,
3.53,-0.16,-1.03,-0.18,0.04,0.03,0.04,
3.537,-0.16,-1.03,-0.18,0.04,0.05,0.04,
3.537,-0.16,-1.03,-0.18,0.04,0.07,0.03,
3.538,-0.16,-1.03,-0.18,0.03,0.09,0.03,
3.538,-0.16,-1.03,-0.18,0.02,0.10,0.03,
3.552,-0.04,-0.86,-0.15,0.02,0.10,0.03,
3.553,-0.04,-0.86,-0.15,0.01,0.12,0.03,
3.554,-0.04,-0.86,-0.15,0.00,0.14,0.03,
3.554,-0.04,-0.86,-0.15,-0.01,0.16,0.03,
3.554,-0.04,-0.86,-0.15,-0.03,0.17,0.03,
3.555,-0.04,-0.86,-0.15,-0.04,0.17,0.04,
3.555,-0.07,-1.07,-0.31,-0.04,0.17,0.04,
3.555,-0.07,-1.07,-0.31,-0.05,0.17,0.04,
3.556,-0.07,-1.07,-0.31,-0.06,0.17,0.05,
3.556,-0.07,-1.07,-0.31,-0.07,0.15,0.06,
3.556,-0.07,-1.07,-0.31,-0.08,0.14,0.07,
3.557,-0.07,-1.07,-0.31,-0.07,0.11,0.08,
3.56,0.01,-1.18,-0.08,-0.07,0.11,0.08,
3.561,0.01,-1.18,-0.08,-0.06,0.07,0.09,
3.561,0.01,-1.18,-0.08,-0.05,0.03,0.10,
3.562,0.01,-1.18,-0.08,-0.03,-0.01,0.12,
3.566,0.01,-1.18,-0.08,-0.01,-0.04,0.13,
3.567,0.01,-1.18,-0.08,0.00,-0.06,0.13,
3.57,0.27,-0.90,0.05,0.00,-0.06,0.13,
3.571,0.27,-0.90,0.05,0.01,-0.08,0.14,
3.571,0.27,-0.90,0.05,0.02,-0.08,0.14,
3.575,0.27,-0.90,0.05,0.02,-0.07,0.13,
3.576,0.27,-0.90,0.05,0.02,-0.06,0.13,
3.576,0.27,-0.90,0.05,0.03,-0.06,0.13,
3.58,0.42,-0.57,-0.12,0.03,-0.06,0.13,
3.581,0.42,-0.57,-0.12,0.04,-0.07,0.13,
3.581,0.42,-0.57,-0.12,0.04,-0.08,0.13,
3.582,0.42,-0.57,-0.12,0.06,-0.10,0.13,
3.586,0.42,-0.57,-0.12,0.06,-0.12,0.13,
3.586,0.42,-0.57,-0.12,0.07,-0.13,0.13,
3.588,0.40,-0.43,-0.04,0.07,-0.13,0.13,
3.589,0.40,-0.43,-0.04,0.07,-0.13,0.14,
3.59,0.40,-0.43,-0.04,0.07,-0.13,0.14,
3.592,0.40,-0.43,-0.04,0.07,-0.12,0.13,
3.594,0.40,-0.43,-0.04,0.06,-0.10,0.13,
3.596,0.40,-0.43,-0.04,0.05,-0.08,0.12,
3.598,0.52,-0.50,-0.08,0.05,-0.08,0.12,
3.598,0.52,-0.50,-0.08,0.05,-0.07,0.11,
3.6,0.52,-0.50,-0.08,0.05,-0.06,0.11,
3.603,0.52,-0.50,-0.08,0.04,-0.06,0.10,
3.604,0.52,-0.50,-0.08,0.04,-0.06,0.09,
3.607,0.52,-0.50,-0.08,0.04,-0.06,0.08,
3.608,0.56,-0.69,-0.05,0.04,-0.06,0.08,
3.609,0.56,-0.69,-0.05,0.04,-0.07,0.07,
3.61,0.56,-0.69,-0.05,0.04,-0.06,0.06,
3.637,0.56,-0.69,-0.05,0.04,-0.06,0.06,
3.638,0.56,-0.69,-0.05,0.03,-0.06,0.05,
3.638,0.56,-0.69,-0.05,0.02,-0.03,0.05,
3.639,0.58,-0.67,-0.29,0.02,-0.03,0.05,
3.639,0.58,-0.67,-0.29,0.01,-0.03,0.04,
3.64,0.58,-0.67,-0.29,0.00,-0.04,0.04,
3.64,0.58,-0.67,-0.29,-0.00,-0.04,0.04,
3.641,0.58,-0.67,-0.29,-0.01,-0.04,0.03,
3.641,0.58,-0.67,-0.29,-0.01,-0.04,0.03,
3.641,0.56,-0.65,-0.24,-0.01,-0.04,0.03,
3.642,0.56,-0.65,-0.24,-0.01,-0.04,0.03,
3.642,0.56,-0.65,-0.24,-0.01,-0.05,0.03,
3.643,0.56,-0.65,-0.24,-0.01,-0.05,0.02,
3.643,0.56,-0.65,-0.24,-0.02,-0.05,0.02,
3.644,0.56,-0.65,-0.24,-0.01,-0.06,0.02,
3.644,0.46,-0.53,-0.13,-0.01,-0.06,0.02,
3.644,0.46,-0.53,-0.13,-0.01,-0.08,0.02,
3.645,0.46,-0.53,-0.13,-0.01,-0.10,0.02,
3.645,0.46,-0.53,-0.13,-0.00,-0.12,0.02,
3.646,0.46,-0.53,-0.13,0.00,-0.13,0.02,
3.646,0.46,-0.53,-0.13,0.00,-0.14,0.02,
3.651,0.37,-0.39,-0.03,0.00,-0.14,0.02,
3.652,0.37,-0.39,-0.03,0.01,-0.16,0.02,
3.653,0.37,-0.39,-0.03,0.01,-0.17,0.02,
3.653,0.37,-0.39,-0.03,0.01,-0.18,0.02,
3.66,0.37,-0.39,-0.03,0.01,-0.19,0.02,
3.662,0.37,-0.39,-0.03,0.01,-0.19,0.02,
3.662,0.40,-0.38,-0.17,0.01,-0.19,0.02,
3.662,0.40,-0.38,-0.17,0.00,-0.18,0.02,
3.663,0.40,-0.38,-0.17,-0.01,-0.17,0.01,
3.663,0.40,-0.38,-0.17,-0.02,-0.16,0.01,
3.664,0.40,-0.38,-0.17,-0.02,-0.14,-0.00,
3.668,0.40,-0.38,-0.17,-0.04,-0.11,-0.02,
3.669,0.49,-0.31,-0.28,-0.04,-0.11,-0.02,
3.669,0.49,-0.31,-0.28,-0.05,-0.07,-0.04,
3.681,0.49,-0.31,-0.28,-0.06,-0.04,-0.05,
3.682,0.49,-0.31,-0.28,-0.06,-0.02,-0.06,
3.682,0.49,-0.31,-0.28,-0.07,-0.03,-0.06,
3.683,0.49,-0.31,-0.28,-0.06,-0.03,-0.05,
3.683,0.10,-0.59,0.01,-0.06,-0.03,-0.05,
3.683,0.10,-0.59,0.01,-0.06,-0.02,-0.05,
3.684,0.10,-0.59,0.01,-0.06,-0.01,-0.04,
3.684,0.10,-0.59,0.01,-0.06,-0.00,-0.03,
3.684,0.10,-0.59,0.01,-0.06,-0.00,-0.03,
3.706,0.10,-0.59,0.01,-0.06,-0.01,-0.04,
3.707,0.16,-0.79,0.00,-0.06,-0.01,-0.04,
3.708,0.16,-0.79,0.00,-0.06,-0.00,-0.04,
3.708,0.16,-0.79,0.00,-0.06,0.00,-0.04,
3.708,0.16,-0.79,0.00,-0.05,0.02,-0.05,
3.709,0.16,-0.79,0.00,-0.05,0.04,-0.05,
3.709,0.16,-0.79,0.00,-0.04,0.06,-0.05,
3.71,0.14,-0.51,0.26,-0.04,0.06,-0.05,
3.71,0.14,-0.51,0.26,-0.03,0.07,-0.05,
3.71,0.14,-0.51,0.26,-0.01,0.08,-0.04,
3.711,0.14,-0.51,0.26,0.02,0.06,-0.03,
3.711,0.14,-0.51,0.26,0.04,0.03,-0.00,
3.712,0.14,-0.51,0.26,0.06,-0.03,0.02,
3.712,0.11,-0.29,0.62,0.06,-0.03,0.02,
3.712,0.11,-0.29,0.62,0.07,-0.08,0.03,
3.713,0.11,-0.29,0.62,0.07,-0.11,0.03,
3.713,0.11,-0.29,0.62,0.07,-0.13,0.03,
3.714,0.11,-0.29,0.62,0.06,-0.13,0.03,
3.716,0.11,-0.29,0.62,0.05,-0.12,0.04,
3.72,0.22,0.07,0.11,0.05,-0.12,0.04,
3.721,0.22,0.07,0.11,0.05,-0.13,0.05,
3.721,0.22,0.07,0.11,0.06,-0.14,0.06,
3.725,0.22,0.07,0.11,0.06,-0.16,0.07,
3.726,0.22,0.07,0.11,0.08,-0.18,0.08,
3.727,0.22,0.07,0.11,0.09,-0.20,0.09,
3.737,0.11,0.03,0.29,0.09,-0.20,0.09,
3.737,0.11,0.03,0.29,0.10,-0.21,0.10,
3.737,0.11,0.03,0.29,0.10,-0.20,0.10,
3.738,0.11,0.03,0.29,0.12,-0.19,0.10,
3.74,0.05,-0.16,0.27,0.12,-0.19,0.10,
3.74,0.05,-0.16,0.27,0.12,-0.14,0.11,
3.741,0.05,-0.16,0.27,0.12,-0.14,0.11,
3.741,0.05,-0.16,0.27,0.12,-0.14,0.11,
3.741,0.05,-0.16,0.27,0.11,-0.13,0.11,
3.743,0.05,-0.16,0.27,0.11,-0.12,0.11,
3.744,0.05,-0.16,0.27,0.11,-0.11,0.11,
3.746,0.05,-0.16,0.27,0.10,-0.10,0.11,
3.749,-0.02,-0.23,0.31,0.10,-0.10,0.11,
3.749,-0.02,-0.23,0.31,0.10,-0.10,0.11,
3.75,-0.02,-0.23,0.31,0.10,-0.10,0.11,
3.752,-0.02,-0.23,0.31,0.10,-0.10,0.11,
3.754,-0.02,-0.23,0.31,0.10,-0.10,0.11,
3.756,-0.02,-0.23,0.31,0.10,-0.10,0.11,
3.76,-0.09,-0.35,0.40,0.10,-0.10,0.11,
3.76,-0.09,-0.35,0.40,0.11,-0.09,0.11,
3.76,-0.09,-0.35,0.40,0.11,-0.09,0.11,
3.763,-0.09,-0.35,0.40,0.11,-0.08,0.11,
3.765,-0.09,-0.35,0.40,0.11,-0.08,0.11,
3.766,-0.09,-0.35,0.40,0.11,-0.07,0.10,
3.769,0.00,-0.38,0.24,0.11,-0.07,0.10,
3.769,0.00,-0.38,0.24,0.12,-0.06,0.10,
3.77,0.00,-0.38,0.24,0.12,-0.06,0.10,
3.772,0.00,-0.38,0.24,0.12,-0.05,0.10,
3.774,0.00,-0.38,0.24,0.13,-0.04,0.10,
3.776,0.00,-0.38,0.24,0.13,-0.03,0.10,
3.779,0.01,-0.43,0.22,0.13,-0.03,0.10,
3.805,0.01,-0.43,0.22,0.13,-0.02,0.10,
3.805,0.01,-0.43,0.22,0.14,-0.01,0.10,
3.806,0.01,-0.43,0.22,0.14,-0.01,0.10,
3.806,0.01,-0.43,0.22,0.14,-0.01,0.10,
3.807,0.01,-0.43,0.22,0.14,-0.01,0.10,
3.807,-0.08,-0.43,0.17,0.14,-0.01,0.10,
3.808,-0.08,-0.43,0.17,0.15,-0.02,0.10,
3.808,-0.08,-0.43,0.17,0.15,-0.03,0.11,
3.809,-0.08,-0.43,0.17,0.15,-0.03,0.11,
3.809,-0.08,-0.43,0.17,0.15,-0.05,0.11,
3.809,-0.08,-0.43,0.17,0.15,-0.05,0.11,
3.81,-0.21,-0.41,-0.03,0.15,-0.05,0.11,
3.81,-0.21,-0.41,-0.03,0.15,-0.06,0.12,
3.811,-0.21,-0.41,-0.03,0.15,-0.07,0.12,
3.811,-0.21,-0.41,-0.03,0.15,-0.07,0.12,
3.812,-0.21,-0.41,-0.03,0.15,-0.06,0.12,
3.812,-0.21,-0.41,-0.03,0.16,-0.06,0.12,
3.812,-0.13,-0.34,-0.11,0.16,-0.06,0.12,
3.813,-0.13,-0.34,-0.11,0.16,-0.06,0.12,
3.813,-0.13,-0.34,-0.11,0.16,-0.05,0.12,
3.814,-0.13,-0.34,-0.11,0.16,-0.05,0.12,
3.814,-0.13,-0.34,-0.11,0.16,-0.04,0.12,
3.819,-0.13,-0.34,-0.11,0.16,-0.04,0.12,
3.82,-0.15,-0.32,-0.11,0.16,-0.04,0.12,
3.821,-0.15,-0.32,-0.11,0.16,-0.03,0.12,
3.821,-0.15,-0.32,-0.11,0.16,-0.03,0.12,
3.824,-0.15,-0.32,-0.11,0.16,-0.02,0.12,
3.825,-0.15,-0.32,-0.11,0.15,-0.02,0.12,
3.828,-0.15,-0.32,-0.11,0.15,-0.01,0.12,
3.829,-0.17,-0.35,-0.28,0.15,-0.01,0.12,
3.829,-0.17,-0.35,-0.28,0.15,0.01,0.12,
3.83,-0.17,-0.35,-0.28,0.15,0.02,0.12,
3.834,-0.17,-0.35,-0.28,0.15,0.03,0.12,
3.834,-0.17,-0.35,-0.28,0.15,0.05,0.12,
3.838,-0.17,-0.35,-0.28,0.14,0.06,0.12,
3.838,-0.18,-0.37,-0.27,0.14,0.06,0.12,
3.839,-0.18,-0.37,-0.27,0.14,0.07,0.12,
3.85,-0.18,-0.37,-0.27,0.14,0.09,0.12,
3.851,-0.18,-0.37,-0.27,0.14,0.10,0.12,
3.851,-0.18,-0.37,-0.27,0.14,0.11,0.12,
3.852,-0.18,-0.37,-0.27,0.14,0.13,0.13,
3.852,-0.24,-0.36,-0.21,0.14,0.13,0.13,
3.852,-0.24,-0.36,-0.21,0.15,0.14,0.13,
3.853,-0.24,-0.36,-0.21,0.15,0.16,0.13,
3.879,-0.24,-0.36,-0.21,0.15,0.17,0.13,
3.88,-0.24,-0.36,-0.21,0.15,0.18,0.14,
3.881,-0.24,-0.36,-0.21,0.15,0.19,0.14,
3.881,-0.24,-0.36,-0.16,0.15,0.19,0.14,
3.882,-0.24,-0.36,-0.16,0.15,0.21,0.14,
3.882,-0.24,-0.36,-0.16,0.16,0.22,0.14,
3.882,-0.24,-0.36,-0.16,0.16,0.23,0.15,
3.883,-0.24,-0.36,-0.16,0.16,0.24,0.15,
3.884,-0.24,-0.36,-0.16,0.16,0.24,0.15,
3.884,-0.15,-0.39,-0.14,0.16,0.24,0.15,
3.891,-0.15,-0.39,-0.14,0.16,0.24,0.15,
3.892,-0.15,-0.39,-0.14,0.16,0.24,0.16,
3.892,-0.15,-0.39,-0.14,0.15,0.24,0.16,
3.892,-0.15,-0.39,-0.14,0.15,0.24,0.16,
3.893,-0.15,-0.39,-0.14,0.15,0.24,0.16,
3.893,-0.01,-0.43,-0.25,0.15,0.24,0.16,
3.893,-0.01,-0.43,-0.25,0.15,0.24,0.16,
3.894,-0.01,-0.43,-0.25,0.15,0.23,0.17,
3.894,-0.01,-0.43,-0.25,0.15,0.23,0.16,
3.894,-0.01,-0.43,-0.25,0.15,0.24,0.17,
3.894,-0.01,-0.43,-0.25,0.15,0.24,0.16,
3.895,0.21,-0.43,-0.29,0.15,0.24,0.16,
3.895,0.21,-0.43,-0.29,0.15,0.25,0.16,
3.895,0.21,-0.43,-0.29,0.15,0.25,0.16,
3.896,0.21,-0.43,-0.29,0.15,0.26,0.16,
3.896,0.21,-0.43,-0.29,0.15,0.27,0.16,
3.896,0.21,-0.43,-0.29,0.16,0.28,0.16,
3.899,0.39,-0.41,-0.19,0.16,0.28,0.16,
3.899,0.39,-0.41,-0.19,0.16,0.29,0.16,
3.902,0.39,-0.41,-0.19,0.17,0.30,0.16,
3.903,0.39,-0.41,-0.19,0.17,0.30,0.16,
3.913,0.39,-0.41,-0.19,0.18,0.31,0.16,
3.914,0.39,-0.41,-0.19,0.18,0.31,0.16,
3.915,0.37,-0.37,0.00,0.18,0.31,0.16,
3.915,0.37,-0.37,0.00,0.19,0.31,0.16,
3.915,0.37,-0.37,0.00,0.19,0.31,0.16,
3.916,0.37,-0.37,0.00,0.20,0.31,0.16,
3.916,0.37,-0.37,0.00,0.20,0.30,0.17,
3.916,0.37,-0.37,0.00,0.21,0.29,0.17,
3.92,0.25,-0.39,-0.00,0.21,0.29,0.17,
3.921,0.25,-0.39,-0.00,0.21,0.28,0.17,
3.921,0.25,-0.39,-0.00,0.21,0.27,0.18,
3.925,0.25,-0.39,-0.00,0.22,0.26,0.18,
3.926,0.25,-0.39,-0.00,0.22,0.25,0.19,
3.927,0.25,-0.39,-0.00,0.22,0.24,0.19,
3.93,0.26,-0.39,-0.13,0.22,0.24,0.19,
3.931,0.26,-0.39,-0.13,0.22,0.23,0.19,
3.931,0.26,-0.39,-0.13,0.22,0.22,0.19,
3.932,0.26,-0.39,-0.13,0.22,0.21,0.20,
3.936,0.26,-0.39,-0.13,0.22,0.21,0.20,
3.936,0.26,-0.39,-0.13,0.22,0.20,0.20,
3.945,0.45,-0.41,-0.29,0.22,0.20,0.20,
3.946,0.45,-0.41,-0.29,0.22,0.20,0.20,
3.946,0.45,-0.41,-0.29,0.22,0.20,0.20,
3.947,0.45,-0.41,-0.29,0.22,0.20,0.20,
3.95,0.45,-0.41,-0.29,0.22,0.20,0.20,
3.979,0.45,-0.41,-0.29,0.21,0.19,0.20,
3.98,0.70,-0.48,-0.43,0.21,0.19,0.20,
3.98,0.70,-0.48,-0.43,0.22,0.19,0.20,
3.981,0.70,-0.48,-0.43,0.22,0.19,0.20,
3.981,0.70,-0.48,-0.43,0.21,0.21,0.19,
3.981,0.70,-0.48,-0.43,0.21,0.22,0.19,
3.982,0.70,-0.48,-0.43,0.21,0.24,0.19,
3.982,0.81,-0.52,-0.44,0.21,0.24,0.19,
3.983,0.81,-0.52,-0.44,0.22,0.25,0.18,
3.983,0.81,-0.52,-0.44,0.22,0.27,0.18,
3.984,0.81,-0.52,-0.44,0.22,0.27,0.18,
3.984,0.81,-0.52,-0.44,0.22,0.27,0.18,
3.984,0.81,-0.52,-0.44,0.22,0.28,0.18,
3.985,0.74,-0.48,-0.39,0.22,0.28,0.18,
3.985,0.74,-0.48,-0.39,0.22,0.27,0.18,
3.986,0.74,-0.48,-0.39,0.22,0.27,0.18,
3.986,0.74,-0.48,-0.39,0.23,0.27,0.18,
3.987,0.74,-0.48,-0.39,0.23,0.27,0.18,
3.987,0.74,-0.48,-0.39,0.23,0.27,0.18,
3.988,0.59,-0.44,-0.37,0.23,0.27,0.18,
3.988,0.59,-0.44,-0.37,0.23,0.27,0.18,
3.988,0.59,-0.44,-0.37,0.24,0.26,0.18,
3.989,0.59,-0.44,-0.37,0.25,0.26,0.19,
3.989,0.59,-0.44,-0.37,0.25,0.25,0.19,
3.99,0.59,-0.44,-0.37,0.25,0.25,0.19,
3.99,0.39,-0.33,-0.16,0.25,0.25,0.19,
3.99,0.39,-0.33,-0.16,0.26,0.24,0.19,
3.991,0.39,-0.33,-0.16,0.27,0.24,0.20,
3.996,0.39,-0.33,-0.16,0.27,0.23,0.21,
3.997,0.39,-0.33,-0.16,0.28,0.20,0.21,
3.998,0.39,-0.33,-0.16,0.28,0.17,0.22,
3.998,0.33,-0.31,-0.19,0.28,0.17,0.22,
3.999,0.33,-0.31,-0.19,0.28,0.17,0.22,
4.002,0.33,-0.31,-0.19,0.28,0.18,0.22,
4.01,0.33,-0.31,-0.19,0.27,0.19,0.22,
4.011,0.33,-0.31,-0.19,0.27,0.19,0.23,
4.012,0.33,-0.31,-0.19,0.27,0.20,0.23,
4.012,0.33,-0.38,-0.19,0.27,0.20,0.23,
4.012,0.33,-0.38,-0.19,0.27,0.19,0.24,
4.013,0.33,-0.38,-0.19,0.27,0.19,0.24,
4.013,0.33,-0.38,-0.19,0.28,0.18,0.25,
4.014,0.33,-0.38,-0.19,0.27,0.17,0.25,
4.018,0.33,-0.38,-0.19,0.27,0.16,0.26,
4.019,0.35,-0.47,-0.30,0.27,0.16,0.26,
4.019,0.35,-0.47,-0.30,0.27,0.15,0.26,
4.023,0.35,-0.47,-0.30,0.27,0.14,0.26,
4.025,0.35,-0.47,-0.30,0.27,0.13,0.26,
4.025,0.35,-0.47,-0.30,0.26,0.13,0.27,
4.028,0.35,-0.47,-0.30,0.26,0.13,0.27,
4.029,0.48,-0.57,-0.47,0.26,0.13,0.27,
4.029,0.48,-0.57,-0.47,0.26,0.13,0.27,
4.032,0.48,-0.57,-0.47,0.26,0.13,0.27,
4.033,0.48,-0.57,-0.47,0.26,0.14,0.27,
4.034,0.48,-0.57,-0.47,0.26,0.14,0.27,
4.037,0.48,-0.57,-0.47,0.26,0.15,0.26,
4.038,0.67,-0.64,-0.45,0.26,0.15,0.26,
4.039,0.67,-0.64,-0.45,0.26,0.15,0.26,
4.04,0.67,-0.64,-0.45,0.26,0.15,0.26,
4.043,0.67,-0.64,-0.45,0.27,0.15,0.26,
4.044,0.67,-0.64,-0.45,0.27,0.16,0.26,
4.046,0.67,-0.64,-0.45,0.27,0.16,0.26,
4.049,0.72,-0.67,-0.41,0.27,0.16,0.26,
4.049,0.72,-0.67,-0.41,0.27,0.16,0.26,
4.05,0.72,-0.67,-0.41,0.27,0.17,0.26,
4.053,0.72,-0.67,-0.41,0.26,0.17,0.26,
4.055,0.72,-0.67,-0.41,0.26,0.17,0.26,
4.057,0.72,-0.67,-0.41,0.26,0.17,0.26,
4.058,0.75,-0.69,-0.39,0.26,0.17,0.26,
4.059,0.75,-0.69,-0.39,0.26,0.17,0.25,
4.06,0.75,-0.69,-0.39,0.26,0.17,0.25,
4.062,0.75,-0.69,-0.39,0.26,0.17,0.25,
4.064,0.75,-0.69,-0.39,0.26,0.17,0.25,
4.066,0.75,-0.69,-0.39,0.26,0.17,0.25,
4.069,0.70,-0.69,-0.32,0.26,0.17,0.25,
4.07,0.70,-0.69,-0.32,0.26,0.17,0.25,
4.07,0.70,-0.69,-0.32,0.27,0.17,0.25,
4.072,0.70,-0.69,-0.32,0.27,0.17,0.25,
4.074,0.70,-0.69,-0.32,0.27,0.17,0.25,
4.076,0.70,-0.69,-0.32,0.27,0.17,0.25,
4.078,0.61,-0.65,-0.33,0.27,0.17,0.25,
4.079,0.61,-0.65,-0.33,0.27,0.17,0.25,
4.08,0.61,-0.65,-0.33,0.27,0.17,0.25,
4.082,0.61,-0.65,-0.33,0.28,0.17,0.25,
4.084,0.61,-0.65,-0.33,0.27,0.17,0.25,
4.09,0.61,-0.65,-0.33,0.27,0.17,0.25,
4.09,0.52,-0.59,-0.31,0.27,0.17,0.25,
4.091,0.52,-0.59,-0.31,0.28,0.17,0.26,
4.091,0.52,-0.59,-0.31,0.28,0.16,0.26,
4.092,0.52,-0.59,-0.31,0.27,0.15,0.26,
4.094,0.52,-0.59,-0.31,0.27,0.14,0.26,
4.098,0.52,-0.59,-0.31,0.27,0.14,0.26,
4.1,0.49,-0.52,-0.38,0.27,0.14,0.26,
4.1,0.49,-0.52,-0.38,0.27,0.14,0.26,
4.1,0.49,-0.52,-0.38,0.27,0.13,0.26,
4.11,0.49,-0.52,-0.38,0.27,0.13,0.26,
4.111,0.49,-0.52,-0.38,0.27,0.13,0.27,
4.111,0.49,-0.52,-0.38,0.27,0.12,0.27,
4.111,0.50,-0.47,-0.48,0.27,0.12,0.27,
4.111,0.50,-0.47,-0.48,0.26,0.11,0.27,
4.112,0.50,-0.47,-0.48,0.26,0.10,0.28,
4.138,0.50,-0.47,-0.48,0.26,0.08,0.28,
4.138,0.50,-0.47,-0.48,0.26,0.09,0.28,
4.138,0.50,-0.47,-0.48,0.26,0.09,0.28,
4.139,0.55,-0.41,-0.46,0.26,0.09,0.28,
4.139,0.55,-0.41,-0.46,0.26,0.12,0.27,
4.14,0.55,-0.41,-0.46,0.26,0.13,0.27,
4.14,0.55,-0.41,-0.46,0.26,0.16,0.27,
4.141,0.55,-0.41,-0.46,0.27,0.17,0.27,
4.141,0.55,-0.41,-0.46,0.27,0.17,0.27,
4.142,0.55,-0.34,-0.23,0.27,0.17,0.27,
4.142,0.55,-0.34,-0.23,0.28,0.17,0.27,
4.142,0.55,-0.34,-0.23,0.28,0.17,0.28,
4.143,0.55,-0.34,-0.23,0.29,0.17,0.28,
4.143,0.55,-0.34,-0.23,0.29,0.16,0.29,
4.144,0.55,-0.34,-0.23,0.29,0.16,0.29,
4.144,0.51,-0.35,-0.25,0.29,0.16,0.29,
4.145,0.51,-0.35,-0.25,0.29,0.16,0.29,
4.145,0.51,-0.35,-0.25,0.29,0.16,0.30,
4.145,0.51,-0.35,-0.25,0.29,0.15,0.30,
4.146,0.51,-0.35,-0.25,0.29,0.15,0.30,
4.146,0.51,-0.35,-0.25,0.29,0.15,0.31,
4.149,0.50,-0.35,-0.37,0.29,0.15,0.31,
4.15,0.50,-0.35,-0.37,0.29,0.15,0.31,
4.15,0.50,-0.35,-0.37,0.29,0.14,0.31,
4.162,0.50,-0.35,-0.37,0.29,0.14,0.32,
4.163,0.50,-0.35,-0.37,0.28,0.14,0.32,
4.163,0.50,-0.35,-0.37,0.28,0.14,0.32,
4.164,0.56,-0.35,-0.42,0.28,0.14,0.32,
4.164,0.56,-0.35,-0.42,0.28,0.13,0.32,
4.165,0.56,-0.35,-0.42,0.28,0.13,0.33,
4.165,0.56,-0.35,-0.42,0.27,0.13,0.33,
4.165,0.56,-0.35,-0.42,0.27,0.13,0.33,
4.166,0.56,-0.35,-0.42,0.27,0.12,0.33,
4.169,0.63,-0.38,-0.47,0.27,0.12,0.33,
4.17,0.63,-0.38,-0.47,0.27,0.12,0.33,
4.17,0.63,-0.38,-0.47,0.27,0.12,0.33,
4.172,0.63,-0.38,-0.47,0.27,0.12,0.33,
4.183,0.63,-0.38,-0.47,0.28,0.13,0.33,
4.188,0.63,-0.38,-0.47,0.28,0.13,0.33,
4.189,0.72,-0.42,-0.49,0.28,0.13,0.33,
4.189,0.72,-0.42,-0.49,0.28,0.13,0.32,
4.19,0.72,-0.42,-0.49,0.28,0.13,0.32,
4.19,0.72,-0.42,-0.49,0.29,0.14,0.32,
4.19,0.72,-0.42,-0.49,0.29,0.14,0.32,
4.191,0.72,-0.42,-0.49,0.29,0.14,0.31,
4.191,0.81,-0.38,-0.50,0.29,0.14,0.31,
4.191,0.81,-0.38,-0.50,0.29,0.15,0.31,
4.192,0.81,-0.38,-0.50,0.29,0.15,0.31,
4.192,0.81,-0.38,-0.50,0.29,0.15,0.31,
4.194,0.81,-0.38,-0.50,0.29,0.16,0.31,
4.196,0.81,-0.38,-0.50,0.29,0.16,0.31,
4.208,0.81,-0.30,-0.38,0.29,0.16,0.31,
4.208,0.81,-0.30,-0.38,0.30,0.16,0.31,
4.209,0.81,-0.30,-0.38,0.30,0.17,0.31,
4.209,0.81,-0.30,-0.38,0.30,0.17,0.31,
4.209,0.81,-0.30,-0.38,0.30,0.17,0.31,
4.21,0.81,-0.30,-0.38,0.30,0.17,0.31,
4.21,0.67,-0.16,-0.16,0.30,0.17,0.31,
4.21,0.67,-0.16,-0.16,0.30,0.15,0.32,
4.211,0.67,-0.16,-0.16,0.30,0.13,0.32,
4.213,0.67,-0.16,-0.16,0.30,0.11,0.33,
4.214,0.67,-0.16,-0.16,0.30,0.10,0.33,
4.238,0.67,-0.16,-0.16,0.30,0.08,0.33,
4.239,0.47,-0.07,-0.27,0.30,0.08,0.33,
4.239,0.47,-0.07,-0.27,0.29,0.07,0.33,
4.239,0.47,-0.07,-0.27,0.29,0.05,0.33,
4.24,0.47,-0.07,-0.27,0.29,0.03,0.34,
4.24,0.47,-0.07,-0.27,0.29,0.02,0.34,
4.24,0.47,-0.07,-0.27,0.29,0.00,0.34,
4.241,0.50,-0.04,-0.45,0.29,0.00,0.34,
4.241,0.50,-0.04,-0.45,0.29,-0.01,0.34,
4.241,0.50,-0.04,-0.45,0.29,-0.03,0.35,
4.242,0.50,-0.04,-0.45,0.29,-0.03,0.35,
4.242,0.50,-0.04,-0.45,0.29,-0.03,0.34,
4.242,0.50,-0.04,-0.45,0.29,-0.03,0.34,
4.242,0.79,-0.02,-0.60,0.29,-0.03,0.34,
4.243,0.79,-0.02,-0.60,0.29,-0.03,0.35,
4.243,0.79,-0.02,-0.60,0.29,-0.03,0.35,
4.243,0.79,-0.02,-0.60,0.29,-0.03,0.34,
4.244,0.79,-0.02,-0.60,0.29,-0.02,0.34,
4.246,0.79,-0.02,-0.60,0.28,-0.02,0.34,
4.248,1.04,0.03,-0.70,0.28,-0.02,0.34,
4.249,1.04,0.03,-0.70,0.27,-0.02,0.34,
4.25,1.04,0.03,-0.70,0.27,-0.02,0.34,
4.252,1.04,0.03,-0.70,0.26,-0.02,0.33,
4.254,1.04,0.03,-0.70,0.25,-0.01,0.33,
4.256,1.04,0.03,-0.70,0.25,-0.01,0.33,
4.259,1.19,0.04,-0.80,0.25,-0.01,0.33,
4.259,1.19,0.04,-0.80,0.24,-0.00,0.32,
4.26,1.19,0.04,-0.80,0.23,0.00,0.32,
4.262,1.19,0.04,-0.80,0.22,0.01,0.31,
4.264,1.19,0.04,-0.80,0.21,0.01,0.31,
4.266,1.19,0.04,-0.80,0.21,0.01,0.31,
4.269,1.18,0.05,-0.84,0.21,0.01,0.31,
4.27,1.18,0.05,-0.84,0.20,0.01,0.31,
4.273,1.18,0.05,-0.84,0.20,0.00,0.30,
4.273,1.18,0.05,-0.84,0.20,-0.01,0.30,
4.274,1.18,0.05,-0.84,0.20,-0.01,0.30,
4.276,1.18,0.05,-0.84,0.20,-0.01,0.29,
4.278,1.14,0.09,-0.71,0.20,-0.01,0.29,
4.32,1.14,0.09,-0.71,0.20,-0.00,0.29,
4.321,1.14,0.09,-0.71,0.21,0.00,0.29,
4.323,1.14,0.09,-0.71,0.22,0.01,0.29,
4.324,1.14,0.09,-0.71,0.24,0.02,0.29,
4.325,1.14,0.09,-0.71,0.24,0.03,0.29,
4.326,0.99,0.21,-0.45,0.24,0.03,0.29,
4.327,0.99,0.21,-0.45,0.25,0.04,0.29,
4.328,0.99,0.21,-0.45,0.26,0.04,0.29,
4.329,0.99,0.21,-0.45,0.26,0.04,0.29,
4.33,0.99,0.21,-0.45,0.27,0.04,0.29,
4.33,0.99,0.21,-0.45,0.27,0.02,0.30,
4.331,0.88,0.30,-0.51,0.27,0.02,0.30,
4.332,0.88,0.30,-0.51,0.27,0.01,0.30,
4.333,0.88,0.30,-0.51,0.27,-0.01,0.31,
4.334,0.88,0.30,-0.51,0.27,-0.04,0.31,
4.335,0.88,0.30,-0.51,0.27,-0.06,0.31,
4.337,0.88,0.30,-0.51,0.26,-0.10,0.31,
4.338,1.00,0.40,-0.67,0.26,-0.10,0.31,
4.34,1.00,0.40,-0.67,0.26,-0.14,0.31,
4.341,1.00,0.40,-0.67,0.25,-0.18,0.31,
4.342,1.00,0.40,-0.67,0.25,-0.20,0.31,
4.343,1.00,0.40,-0.67,0.24,-0.21,0.31,
4.343,1.00,0.40,-0.67,0.24,-0.22,0.31,
4.344,1.20,0.47,-0.78,0.24,-0.22,0.31,
4.345,1.20,0.47,-0.78,0.23,-0.23,0.31,
4.345,1.20,0.47,-0.78,0.23,-0.24,0.30,
4.346,1.20,0.47,-0.78,0.22,-0.24,0.30,
4.347,1.20,0.47,-0.78,0.22,-0.25,0.30,
4.348,1.20,0.47,-0.78,0.22,-0.26,0.30,
4.349,1.38,0.54,-0.75,0.22,-0.26,0.30,
4.35,1.38,0.54,-0.75,0.21,-0.27,0.29,
4.353,1.38,0.54,-0.75,0.21,-0.27,0.29,
4.354,1.38,0.54,-0.75,0.21,-0.28,0.29,
4.354,1.38,0.54,-0.75,0.20,-0.29,0.28,
4.354,1.38,0.54,-0.75,0.20,-0.30,0.27,
4.355,1.61,0.60,-0.79,0.20,-0.30,0.27,
4.355,1.61,0.60,-0.79,0.19,-0.31,0.27,
4.356,1.61,0.60,-0.79,0.19,-0.31,0.26,
4.356,1.61,0.60,-0.79,0.18,-0.31,0.26,
4.356,1.61,0.60,-0.79,0.17,-0.31,0.25,
4.357,1.61,0.60,-0.79,0.17,-0.31,0.25,
4.357,1.67,0.62,-0.84,0.17,-0.31,0.25,
4.357,1.67,0.62,-0.84,0.16,-0.31,0.24,
4.358,1.67,0.62,-0.84,0.15,-0.32,0.24,
4.358,1.67,0.62,-0.84,0.15,-0.32,0.23,
4.359,1.67,0.62,-0.84,0.14,-0.32,0.22,
4.362,1.67,0.62,-0.84,0.13,-0.32,0.21,
4.363,1.69,0.71,-0.85,0.13,-0.32,0.21,
4.364,1.69,0.71,-0.85,0.13,-0.32,0.21,
4.364,1.69,0.71,-0.85,0.13,-0.32,0.20,
4.364,1.69,0.71,-0.85,0.13,-0.32,0.20,
4.365,1.69,0.71,-0.85,0.12,-0.32,0.19,
4.367,1.69,0.71,-0.85,0.13,-0.33,0.19,
4.377,1.49,0.79,-0.67,0.13,-0.33,0.19,
4.377,1.49,0.79,-0.67,0.12,-0.33,0.18,
4.378,1.49,0.79,-0.67,0.12,-0.33,0.18,
4.378,1.49,0.79,-0.67,0.12,-0.33,0.17,
4.378,1.49,0.79,-0.67,0.12,-0.33,0.17,
4.379,1.49,0.79,-0.67,0.12,-0.33,0.16,
4.384,1.22,0.88,-0.61,0.12,-0.33,0.16,
4.385,1.22,0.88,-0.61,0.11,-0.34,0.16,
4.385,1.22,0.88,-0.61,0.11,-0.34,0.15,
4.385,1.22,0.88,-0.61,0.10,-0.35,0.15,
4.389,1.22,0.88,-0.61,0.09,-0.36,0.14,
4.39,1.22,0.88,-0.61,0.08,-0.36,0.14,
4.391,1.10,0.98,-0.79,0.08,-0.36,0.14,
4.391,1.10,0.98,-0.79,0.07,-0.37,0.13,
4.394,1.10,0.98,-0.79,0.06,-0.39,0.12,
4.395,1.10,0.98,-0.79,0.05,-0.41,0.12,
4.395,1.10,0.98,-0.79,0.03,-0.43,0.11,
4.398,1.10,0.98,-0.79,0.01,-0.45,0.10,
4.399,1.17,1.09,-1.07,0.01,-0.45,0.10,
4.399,1.17,1.09,-1.07,-0.01,-0.47,0.09,
4.402,1.17,1.09,-1.07,-0.03,-0.50,0.08,
4.402,1.17,1.09,-1.07,-0.05,-0.52,0.06,
4.411,1.17,1.09,-1.07,-0.07,-0.55,0.05,
4.412,1.17,1.09,-1.07,-0.10,-0.57,0.04,
4.412,1.43,1.21,-1.36,-0.10,-0.57,0.04,
4.412,1.43,1.21,-1.36,-0.12,-0.59,0.02,
4.414,1.43,1.21,-1.36,-0.15,-0.61,-0.00,
4.415,1.43,1.21,-1.36,-0.18,-0.62,-0.02,
4.415,1.43,1.21,-1.36,-0.20,-0.64,-0.04,
4.416,1.43,1.21,-1.36,-0.23,-0.66,-0.06,
4.439,1.82,1.36,-1.65,-0.23,-0.66,-0.06,
4.44,1.82,1.36,-1.65,-0.26,-0.67,-0.08,
4.44,1.82,1.36,-1.65,-0.29,-0.68,-0.10,
4.44,1.82,1.36,-1.65,-0.32,-0.69,-0.13,
4.441,1.82,1.36,-1.65,-0.36,-0.71,-0.15,
4.441,1.82,1.36,-1.65,-0.39,-0.72,-0.17,
4.441,2.02,1.52,-1.84,-0.39,-0.72,-0.17,
4.442,2.02,1.52,-1.84,-0.42,-0.73,-0.20,
4.442,2.02,1.52,-1.84,-0.46,-0.74,-0.22,
4.442,2.02,1.52,-1.84,-0.49,-0.75,-0.24,
4.443,2.02,1.52,-1.84,-0.52,-0.76,-0.27,
4.443,2.02,1.52,-1.84,-0.56,-0.77,-0.29,
4.443,2.15,1.70,-1.92,-0.56,-0.77,-0.29,
4.444,2.15,1.70,-1.92,-0.59,-0.79,-0.31,
4.444,2.15,1.70,-1.92,-0.62,-0.81,-0.33,
4.444,2.15,1.70,-1.92,-0.66,-0.83,-0.36,
4.444,2.15,1.70,-1.92,-0.69,-0.86,-0.38,
4.47,2.15,1.70,-1.92,-0.72,-0.89,-0.40,
4.47,1.91,1.93,-1.75,-0.72,-0.89,-0.40,
4.47,1.91,1.93,-1.75,-0.74,-0.91,-0.42,
4.471,1.91,1.93,-1.75,-0.77,-0.94,-0.43,
4.471,1.91,1.93,-1.75,-0.79,-0.98,-0.45,
4.472,1.91,1.93,-1.75,-0.80,-1.01,-0.46,
4.472,1.91,1.93,-1.75,-0.82,-1.04,-0.48,
4.473,1.53,2.24,-1.43,-0.82,-1.04,-0.48,
4.473,1.53,2.24,-1.43,-0.84,-1.07,-0.50,
4.474,1.53,2.24,-1.43,-0.86,-1.10,-0.51,
4.474,1.53,2.24,-1.43,-0.88,-1.13,-0.53,
4.475,1.53,2.24,-1.43,-0.90,-1.16,-0.54,
4.475,1.53,2.24,-1.43,-0.93,-1.17,-0.55,
4.475,1.04,2.80,-1.52,-0.93,-1.17,-0.55,
4.476,1.04,2.80,-1.52,-0.95,-1.18,-0.56,
4.476,1.04,2.80,-1.52,-0.97,-1.19,-0.58,
4.477,1.04,2.80,-1.52,-1.00,-1.20,-0.58,
4.477,1.04,2.80,-1.52,-1.02,-1.21,-0.59,
4.478,1.04,2.80,-1.52,-1.04,-1.22,-0.60,
4.478,0.60,3.31,-1.90,-1.04,-1.22,-0.60,
4.479,0.60,3.31,-1.90,-1.07,-1.23,-0.61,
4.481,0.60,3.31,-1.90,-1.09,-1.23,-0.62,
4.482,0.60,3.31,-1.90,-1.11,-1.24,-0.62,
4.49,0.60,3.31,-1.90,-1.13,-1.24,-0.63,
4.491,0.60,3.31,-1.90,-1.16,-1.24,-0.64,
4.496,0.36,3.92,-1.97,-1.16,-1.24,-0.64,
4.497,0.36,3.92,-1.97,-1.18,-1.23,-0.65,
4.497,0.36,3.92,-1.97,-1.20,-1.21,-0.65,
4.498,0.36,3.92,-1.97,-1.23,-1.19,-0.65,
4.498,0.36,3.92,-1.97,-1.25,-1.17,-0.64,
4.498,0.36,3.92,-1.97,-1.27,-1.14,-0.63,
4.499,-0.45,4.55,-1.97,-1.27,-1.14,-0.63,
4.5,-0.45,4.55,-1.97,-1.28,-1.11,-0.60,
4.5,-0.45,4.55,-1.97,-1.29,-1.07,-0.58,
4.509,-0.45,4.55,-1.97,-1.30,-1.03,-0.55,
4.51,-0.45,4.55,-1.97,-1.30,-0.98,-0.51,
4.51,-0.45,4.55,-1.97,-1.30,-0.94,-0.47,
4.511,-1.53,5.28,-1.46,-1.30,-0.94,-0.47,
4.511,-1.53,5.28,-1.46,-1.29,-0.90,-0.43,
4.512,-1.53,5.28,-1.46,-1.28,-0.86,-0.39,
4.515,-1.53,5.28,-1.46,-1.26,-0.84,-0.35,
4.517,-1.53,5.28,-1.46,-1.24,-0.81,-0.32,
4.517,-1.53,5.28,-1.46,-1.22,-0.80,-0.29,
4.525,-1.91,6.54,-1.10,-1.22,-0.80,-0.29,
4.526,-1.91,6.54,-1.10,-1.20,-0.80,-0.27,
4.527,-1.91,6.54,-1.10,-1.18,-0.82,-0.25,
4.527,-1.91,6.54,-1.10,-1.16,-0.84,-0.22,
4.528,-1.91,6.54,-1.10,-1.14,-0.86,-0.20,
4.528,-1.91,6.54,-1.10,-1.12,-0.89,-0.17,
4.529,-1.17,7.64,-1.34,-1.12,-0.89,-0.17,
4.529,-1.17,7.64,-1.34,-1.10,-0.89,-0.15,
4.53,-1.17,7.64,-1.34,-1.08,-0.88,-0.12,
4.532,-1.17,7.64,-1.34,-1.06,-0.86,-0.09,
4.535,-1.17,7.64,-1.34,-1.05,-0.82,-0.06,
4.536,-1.17,7.64,-1.34,-1.02,-0.76,-0.03,
4.538,-0.65,7.96,-1.46,-1.02,-0.76,-0.03,
4.539,-0.65,7.96,-1.46,-1.00,-0.69,-0.00,
4.541,-0.65,7.96,-1.46,-0.98,-0.60,0.03,
4.542,-0.65,7.96,-1.46,-0.95,-0.51,0.05,
4.544,-0.65,7.96,-1.46,-0.93,-0.41,0.08,
4.546,-0.65,7.96,-1.46,-0.89,-0.32,0.10,
4.548,0.06,7.65,-0.44,-0.89,-0.32,0.10,
4.549,0.06,7.65,-0.44,-0.87,-0.22,0.11,
4.551,0.06,7.65,-0.44,-0.84,-0.12,0.13,
4.555,0.06,7.65,-0.44,-0.81,-0.03,0.14,
4.556,0.06,7.65,-0.44,-0.77,0.05,0.15,
4.56,0.06,7.65,-0.44,-0.73,0.14,0.16,
4.56,0.68,7.43,0.78,-0.73,0.14,0.16,
4.561,0.68,7.43,0.78,-0.70,0.21,0.16,
4.561,0.68,7.43,0.78,-0.67,0.28,0.17,
4.564,0.68,7.43,0.78,-0.63,0.34,0.17,
4.565,0.68,7.43,0.78,-0.60,0.40,0.16,
4.568,0.68,7.43,0.78,-0.56,0.45,0.16,
4.568,0.83,7.61,1.47,-0.56,0.45,0.16,
4.569,0.83,7.61,1.47,-0.53,0.48,0.16,
4.571,0.83,7.61,1.47,-0.50,0.51,0.16,
4.572,0.83,7.61,1.47,-0.47,0.54,0.16,
4.574,0.83,7.61,1.47,-0.45,0.56,0.15,
4.576,0.83,7.61,1.47,-0.42,0.58,0.15,
4.578,0.50,7.99,2.07,-0.42,0.58,0.15,
4.579,0.50,7.99,2.07,-0.39,0.59,0.15,
4.58,0.50,7.99,2.07,-0.36,0.58,0.14,
4.582,0.50,7.99,2.07,-0.33,0.56,0.14,
4.584,0.50,7.99,2.07,-0.29,0.53,0.15,
4.586,0.50,7.99,2.07,-0.26,0.49,0.15,
4.589,0.06,8.44,2.58,-0.26,0.49,0.15,
4.589,0.06,8.44,2.58,-0.22,0.43,0.16,
4.594,0.06,8.44,2.58,-0.19,0.37,0.16,
4.594,0.06,8.44,2.58,-0.16,0.31,0.17,
4.595,0.06,8.44,2.58,-0.13,0.25,0.18,
4.598,0.06,8.44,2.58,-0.10,0.18,0.18,
4.599,-0.43,8.98,2.98,-0.10,0.18,0.18,
4.599,-0.43,8.98,2.98,-0.07,0.12,0.19,
4.6,-0.43,8.98,2.98,-0.03,0.05,0.20,
4.604,-0.43,8.98,2.98,-0.01,-0.01,0.20,
4.605,-0.43,8.98,2.98,0.03,-0.08,0.20,
4.608,-0.43,8.98,2.98,0.05,-0.15,0.20,
4.609,-0.39,9.38,2.78,0.05,-0.15,0.20,
4.609,-0.39,9.38,2.78,0.08,-0.21,0.20,
4.61,-0.39,9.38,2.78,0.11,-0.28,0.20,
4.64,-0.39,9.38,2.78,0.14,-0.34,0.19,
4.64,-0.39,9.38,2.78,0.17,-0.40,0.18,
4.641,-0.39,9.38,2.78,0.19,-0.46,0.18,
4.641,-0.17,9.34,2.89,0.19,-0.46,0.18,
4.642,-0.17,9.34,2.89,0.22,-0.52,0.16,
4.642,-0.17,9.34,2.89,0.24,-0.57,0.15,
4.643,-0.17,9.34,2.89,0.27,-0.62,0.14,
4.643,-0.17,9.34,2.89,0.30,-0.66,0.13,
4.644,-0.17,9.34,2.89,0.32,-0.70,0.12,
4.644,0.22,8.92,2.47,0.32,-0.70,0.12,
4.645,0.22,8.92,2.47,0.33,-0.73,0.11,
4.645,0.22,8.92,2.47,0.35,-0.75,0.10,
4.646,0.22,8.92,2.47,0.36,-0.76,0.09,
4.646,0.22,8.92,2.47,0.37,-0.77,0.08,
4.646,0.22,8.92,2.47,0.37,-0.76,0.07,
4.647,0.55,8.37,2.04,0.37,-0.76,0.07,
4.647,0.55,8.37,2.04,0.37,-0.74,0.06,
4.648,0.55,8.37,2.04,0.37,-0.72,0.05,
4.648,0.55,8.37,2.04,0.36,-0.68,0.04,
4.649,0.55,8.37,2.04,0.36,-0.64,0.04,
4.649,0.55,8.37,2.04,0.35,-0.59,0.03,
4.649,0.67,7.80,1.42,0.35,-0.59,0.03,
4.65,0.67,7.80,1.42,0.34,-0.53,0.02,
4.655,0.67,7.80,1.42,0.33,-0.48,0.02,
4.658,0.67,7.80,1.42,0.31,-0.42,0.01,
4.658,0.67,7.80,1.42,0.30,-0.36,0.01,
4.659,0.67,7.80,1.42,0.27,-0.30,0.00,
4.659,0.48,7.46,1.41,0.27,-0.30,0.00,
4.66,0.48,7.46,1.41,0.25,-0.26,-0.00,
4.66,0.48,7.46,1.41,0.22,-0.22,-0.01,
4.662,0.48,7.46,1.41,0.20,-0.19,-0.01,
4.664,0.48,7.46,1.41,0.18,-0.18,-0.01,
4.666,0.48,7.46,1.41,0.17,-0.18,-0.02,
4.674,-0.05,8.50,2.02,0.17,-0.18,-0.02,
4.675,-0.05,8.50,2.02,0.16,-0.21,-0.02,
4.675,-0.05,8.50,2.02,0.14,-0.25,-0.03,
4.676,-0.05,8.50,2.02,0.13,-0.31,-0.04,
4.676,-0.05,8.50,2.02,0.12,-0.38,-0.06,
4.677,-0.05,8.50,2.02,0.11,-0.47,-0.07,
4.68,-0.41,11.01,2.85,0.11,-0.47,-0.07,
4.681,-0.41,11.01,2.85,0.08,-0.55,-0.08,
4.682,-0.41,11.01,2.85,0.05,-0.63,-0.09,
4.682,-0.41,11.01,2.85,0.01,-0.69,-0.10,
4.704,-0.41,11.01,2.85,-0.01,-0.76,-0.09,
4.705,-0.41,11.01,2.85,-0.04,-0.81,-0.08,
4.706,-1.46,11.38,1.69,-0.04,-0.81,-0.08,
4.706,-1.46,11.38,1.69,-0.09,-0.81,-0.07,
4.706,-1.46,11.38,1.69,-0.14,-0.77,-0.05,
4.707,-1.46,11.38,1.69,-0.19,-0.70,-0.01,
4.707,-1.46,11.38,1.69,-0.24,-0.58,0.03,
4.707,-1.46,11.38,1.69,-0.29,-0.42,0.10,
4.708,-4.90,7.91,0.61,-0.29,-0.42,0.10,
4.708,-4.90,7.91,0.61,-0.33,-0.26,0.19,
4.708,-4.90,7.91,0.61,-0.37,-0.14,0.29,
4.709,-4.90,7.91,0.61,-0.39,-0.05,0.39,
4.709,-4.90,7.91,0.61,-0.39,0.00,0.50,
4.709,-4.90,7.91,0.61,-0.37,0.01,0.59,
4.71,-6.56,-0.87,2.71,-0.37,0.01,0.59,
4.71,-6.56,-0.87,2.71,-0.33,-0.01,0.68,
4.71,-6.56,-0.87,2.71,-0.28,-0.05,0.77,
4.712,-6.56,-0.87,2.71,-0.21,-0.11,0.84,
4.714,-6.56,-0.87,2.71,-0.13,-0.19,0.91,
4.716,-6.56,-0.87,2.71,-0.06,-0.29,0.97,
4.718,-5.41,-5.60,6.93,-0.06,-0.29,0.97,
4.719,-5.41,-5.60,6.93,0.02,-0.39,1.03,
4.72,-5.41,-5.60,6.93,0.10,-0.49,1.08,
4.722,-5.41,-5.60,6.93,0.17,-0.58,1.13,
4.724,-5.41,-5.60,6.93,0.25,-0.68,1.19,
4.726,-5.41,-5.60,6.93,0.33,-0.76,1.26,
4.728,-4.35,-8.09,8.22,0.33,-0.76,1.26,
4.729,-4.35,-8.09,8.22,0.40,-0.82,1.33,
4.73,-4.35,-8.09,8.22,0.48,-0.86,1.41,
4.732,-4.35,-8.09,8.22,0.55,-0.89,1.51,
4.74,-5.19,-10.21,8.89,0.55,-0.89,1.51,
4.74,-5.19,-10.21,8.89,0.77,-0.87,1.89,
4.741,-5.19,-10.21,8.89,0.77,-0.87,1.89,
4.741,-5.19,-10.21,8.89,0.77,-0.87,1.89,
4.741,-5.19,-10.21,8.89,0.84,-0.84,2.04,
4.742,-5.19,-10.21,8.89,0.91,-0.79,2.21,
4.744,-5.19,-10.21,8.89,0.97,-0.73,2.38,
4.746,-5.19,-10.21,8.89,1.04,-0.66,2.55,
4.748,-6.71,-11.72,10.01,1.04,-0.66,2.55,
4.75,-6.71,-11.72,10.01,1.10,-0.59,2.73,
4.75,-6.71,-11.72,10.01,1.16,-0.51,2.91,
4.752,-6.71,-11.72,10.01,1.22,-0.44,3.09,
4.754,-6.71,-11.72,10.01,1.29,-0.39,3.26,
4.758,-6.71,-11.72,10.01,1.34,-0.34,3.43,
4.759,-7.18,-10.99,10.70,1.34,-0.34,3.43,
4.76,-7.18,-10.99,10.70,1.40,-0.31,3.59,
4.761,-7.18,-10.99,10.70,1.47,-0.27,3.75,
4.762,-7.18,-10.99,10.70,1.53,-0.24,3.91,
4.764,-7.18,-10.99,10.70,1.60,-0.21,4.07,
4.766,-7.18,-10.99,10.70,1.66,-0.19,4.23,
4.769,-7.07,-9.93,10.50,1.66,-0.19,4.23,
4.771,-7.07,-9.93,10.50,1.74,-0.18,4.37,
4.772,-7.07,-9.93,10.50,1.82,-0.17,4.52,
4.773,-7.07,-9.93,10.50,1.91,-0.17,4.66,
4.774,-7.07,-9.93,10.50,2.00,-0.20,4.78,
4.776,-7.07,-9.93,10.50,2.10,-0.25,4.89,
4.778,-7.03,-12.38,10.60,2.10,-0.25,4.89,
4.808,-7.03,-12.38,10.60,2.21,-0.33,4.98,
4.809,-7.03,-12.38,10.60,2.31,-0.44,5.05,
4.809,-7.03,-12.38,10.60,2.41,-0.58,5.11,
4.81,-7.03,-12.38,10.60,2.51,-0.75,5.16,
4.81,-7.03,-12.38,10.60,2.61,-0.94,5.20,
4.811,-6.61,-17.73,9.48,2.61,-0.94,5.20,
4.811,-6.61,-17.73,9.48,2.70,-1.15,5.22,
4.812,-6.61,-17.73,9.48,2.80,-1.37,5.23,
4.812,-6.61,-17.73,9.48,2.90,-1.61,5.23,
4.812,-6.61,-17.73,9.48,3.00,-1.84,5.23,
4.813,-6.61,-17.73,9.48,3.11,-2.07,5.22,
4.813,-6.85,-22.81,8.44,3.11,-2.07,5.22,
4.814,-6.85,-22.81,8.44,3.23,-2.30,5.20,
4.814,-6.85,-22.81,8.44,3.35,-2.52,5.19,
4.815,-6.85,-22.81,8.44,3.48,-2.72,5.17,
4.815,-6.85,-22.81,8.44,3.60,-2.90,5.15,
4.816,-6.85,-22.81,8.44,3.72,-3.05,5.13,
4.816,-8.14,-26.81,8.28,3.72,-3.05,5.13,
4.817,-8.14,-26.81,8.28,3.83,-3.18,5.11,
4.817,-8.14,-26.81,8.28,3.92,-3.26,5.09,
4.818,-8.14,-26.81,8.28,4.00,-3.32,5.07,
4.818,-8.14,-26.81,8.28,4.06,-3.36,5.06,
4.818,-8.14,-26.81,8.28,4.11,-3.37,5.04,
4.819,-10.02,-29.23,6.73,4.11,-3.37,5.04,
4.82,-10.02,-29.23,6.73,4.13,-3.35,5.02,
4.82,-10.02,-29.23,6.73,4.14,-3.32,5.00,
4.83,-10.02,-29.23,6.73,4.14,-3.26,4.96,
4.831,-10.02,-29.23,6.73,4.13,-3.18,4.92,
4.832,-10.02,-29.23,6.73,4.11,-3.11,4.86,
4.832,-11.48,-29.50,4.82,4.11,-3.11,4.86,
4.833,-11.48,-29.50,4.82,4.06,-3.03,4.80,
4.834,-11.48,-29.50,4.82,4.01,-2.96,4.74,
4.836,-11.48,-29.50,4.82,3.95,-2.90,4.68,
4.837,-11.48,-29.50,4.82,3.86,-2.85,4.60,
4.859,-11.48,-29.50,4.82,3.76,-2.84,4.52,
4.86,-12.25,-28.58,2.61,3.76,-2.84,4.52,
4.861,-12.25,-28.58,2.61,3.64,-2.85,4.43,
4.861,-12.25,-28.58,2.61,3.52,-2.90,4.33,
4.862,-12.25,-28.58,2.61,3.39,-2.98,4.24,
4.862,-12.25,-28.58,2.61,3.25,-3.10,4.13,
4.863,-12.25,-28.58,2.61,3.12,-3.26,4.03,
4.863,-10.99,-26.80,-0.38,3.12,-3.26,4.03,
4.864,-10.99,-26.80,-0.38,2.98,-3.43,3.91,
4.864,-10.99,-26.80,-0.38,2.84,-3.61,3.78,
4.864,-10.99,-26.80,-0.38,2.69,-3.79,3.65,
4.865,-10.99,-26.80,-0.38,2.55,-3.98,3.51,
4.865,-10.99,-26.80,-0.38,2.41,-4.16,3.38,
4.866,-7.96,-24.90,-4.70,2.41,-4.16,3.38,
4.866,-7.96,-24.90,-4.70,2.27,-4.31,3.24,
4.867,-7.96,-24.90,-4.70,2.14,-4.46,3.11,
4.867,-7.96,-24.90,-4.70,2.01,-4.59,2.98,
4.867,-7.96,-24.90,-4.70,1.90,-4.70,2.85,
4.867,-7.96,-24.90,-4.70,1.79,-4.80,2.72,
4.874,-5.11,-22.47,-8.99,1.79,-4.80,2.72,
4.875,-5.11,-22.47,-8.99,1.70,-4.89,2.59,
4.875,-5.11,-22.47,-8.99,1.62,-4.97,2.44,
4.876,-5.11,-22.47,-8.99,1.56,-5.07,2.29,
4.876,-5.11,-22.47,-8.99,1.54,-5.19,2.16,
4.876,-5.11,-22.47,-8.99,1.57,-5.34,2.05,
4.881,-2.57,-19.62,-12.70,1.57,-5.34,2.05,
4.882,-2.57,-19.62,-12.70,1.65,-5.54,1.94,
4.882,-2.57,-19.62,-12.70,1.79,-5.78,1.82,
4.888,-2.57,-19.62,-12.70,1.98,-6.02,1.71,
4.889,-2.57,-19.62,-12.70,2.22,-6.23,1.60,
4.889,-2.57,-19.62,-12.70,2.48,-6.37,1.49,
4.889,-0.44,-15.42,-13.26,2.48,-6.37,1.49,
4.89,-0.44,-15.42,-13.26,2.74,-6.39,1.38,
4.89,-0.44,-15.42,-13.26,3.00,-6.31,1.26,
4.892,-0.44,-15.42,-13.26,3.25,-6.11,1.14,
4.896,-0.44,-15.42,-13.26,3.50,-5.81,1.02,
4.897,-0.44,-15.42,-13.26,3.74,-5.41,0.91,
4.9,2.21,-10.84,-14.83,3.74,-5.41,0.91,
4.901,2.21,-10.84,-14.83,3.98,-4.93,0.79,
4.902,2.21,-10.84,-14.83,4.20,-4.39,0.66,
4.906,2.21,-10.84,-14.83,4.41,-3.82,0.53,
4.907,2.21,-10.84,-14.83,4.61,-3.22,0.40,
4.907,2.21,-10.84,-14.83,4.80,-2.63,0.29,
4.908,4.31,-5.85,-13.52,4.80,-2.63,0.29,
4.909,4.31,-5.85,-13.52,4.98,-2.03,0.18,
4.909,4.31,-5.85,-13.52,5.14,-1.45,0.08,
4.914,4.31,-5.85,-13.52,5.30,-0.90,-0.01,
4.915,4.31,-5.85,-13.52,5.45,-0.37,-0.09,
4.923,4.31,-5.85,-13.52,5.59,0.12,-0.16,
4.924,4.72,-1.17,-9.82,5.59,0.12,-0.16,
4.925,4.72,-1.17,-9.82,5.74,0.57,-0.21,
4.925,4.72,-1.17,-9.82,5.88,0.97,-0.26,
4.926,4.72,-1.17,-9.82,6.03,1.33,-0.30,
4.926,4.72,-1.17,-9.82,6.18,1.64,-0.33,
4.926,4.72,-1.17,-9.82,6.33,1.91,-0.35,
4.931,3.64,2.61,-3.95,6.33,1.91,-0.35,
4.931,3.64,2.61,-3.95,6.48,2.13,-0.35,
4.932,3.64,2.61,-3.95,6.62,2.29,-0.34,
4.932,3.64,2.61,-3.95,6.75,2.41,-0.30,
4.958,3.64,2.61,-3.95,6.85,2.47,-0.25,
4.959,3.64,2.61,-3.95,6.95,2.48,-0.19,
4.96,1.52,5.48,-0.16,6.95,2.48,-0.19,
4.96,1.52,5.48,-0.16,7.02,2.42,-0.10,
4.96,1.52,5.48,-0.16,7.06,2.29,0.01,
4.961,1.52,5.48,-0.16,7.08,2.11,0.13,
4.961,1.52,5.48,-0.16,7.05,1.90,0.26,
4.991,1.52,5.48,-0.16,7.00,1.65,0.39,
4.991,-0.88,7.73,-0.70,7.00,1.65,0.39,
4.992,-0.88,7.73,-0.70,6.92,1.36,0.53,
4.992,-0.88,7.73,-0.70,6.81,1.06,0.67,
4.993,-0.88,7.73,-0.70,6.70,0.72,0.81,
4.993,-0.88,7.73,-0.70,6.56,0.37,0.94,
4.993,-0.88,7.73,-0.70,6.40,0.00,1.07,
4.994,-1.62,9.87,-3.04,6.40,0.00,1.07,
4.994,-1.62,9.87,-3.04,6.22,-0.38,1.19,
4.995,-1.62,9.87,-3.04,6.02,-0.77,1.31,
4.995,-1.62,9.87,-3.04,5.80,-1.16,1.41,
4.996,-1.62,9.87,-3.04,5.56,-1.54,1.49,
4.996,-1.62,9.87,-3.04,5.32,-1.91,1.56,
4.997,-0.15,10.63,-6.56,5.32,-1.91,1.56,
4.997,-0.15,10.63,-6.56,5.07,-2.24,1.62,
4.998,-0.15,10.63,-6.56,4.82,-2.52,1.65,
4.998,-0.15,10.63,-6.56,4.58,-2.77,1.67,
4.999,-0.15,10.63,-6.56,4.34,-2.96,1.65,
4.999,-0.15,10.63,-6.56,4.11,-3.10,1.62,
5.0,3.59,10.14,-8.45,4.11,-3.10,1.62,
5.0,3.59,10.14,-8.45,3.90,-3.19,1.57,
5.001,3.59,10.14,-8.45,3.69,-3.24,1.50,
5.001,3.59,10.14,-8.45,3.50,-3.24,1.41,
5.001,3.59,10.14,-8.45,3.33,-3.19,1.31,
5.002,3.59,10.14,-8.45,3.18,-3.09,1.20,
5.002,8.14,9.56,-8.64,3.18,-3.09,1.20,
5.003,8.14,9.56,-8.64,3.05,-2.93,1.10,
5.003,8.14,9.56,-8.64,2.96,-2.76,0.99,
5.004,8.14,9.56,-8.64,2.92,-2.62,0.87,
5.004,8.14,9.56,-8.64,2.89,-2.48,0.75,
5.005,8.14,9.56,-8.64,2.89,-2.35,0.65,
5.005,11.06,9.48,-6.64,2.89,-2.35,0.65,
5.006,11.06,9.48,-6.64,2.92,-2.29,0.54,
5.006,11.06,9.48,-6.64,2.98,-2.28,0.42,
5.006,11.06,9.48,-6.64,3.06,-2.28,0.30,
5.007,11.06,9.48,-6.64,3.12,-2.29,0.19,
5.007,11.06,9.48,-6.64,3.21,-2.30,0.08,
5.008,10.47,8.25,-5.26,3.21,-2.30,0.08,
5.008,10.47,8.25,-5.26,3.29,-2.31,-0.00,
5.012,10.47,8.25,-5.26,3.37,-2.31,-0.08,
5.013,10.47,8.25,-5.26,3.44,-2.30,-0.14,
5.014,10.47,8.25,-5.26,3.50,-2.29,-0.19,
5.019,10.47,8.25,-5.26,3.55,-2.27,-0.25,
