
time,ax,ay,az,wx,wy,wz,
0.003,-0.67,-0.11,-0.92,-0.27,-0.01,0.32,
0.004,-0.67,-0.11,-0.92,-0.27,-0.05,0.32,
0.004,-0.67,-0.11,-0.92,-0.27,-0.06,0.32,
0.005,-0.33,0.18,-0.17,-0.27,-0.06,0.32,
0.005,-0.33,0.18,-0.17,-0.27,-0.09,0.31,
0.005,-0.33,0.18,-0.17,-0.27,-0.11,0.30,
0.006,-0.33,0.18,-0.17,-0.25,-0.14,0.29,
0.006,-0.33,0.18,-0.17,-0.23,-0.16,0.28,
0.006,-0.33,0.18,-0.17,-0.23,-0.16,0.27,
0.007,0.11,0.39,0.75,-0.23,-0.16,0.27,
0.007,0.11,0.39,0.75,-0.21,-0.17,0.26,
0.007,0.11,0.39,0.75,-0.18,-0.17,0.24,
0.01,0.11,0.39,0.75,-0.15,-0.17,0.22,
0.011,0.11,0.39,0.75,-0.12,-0.15,0.20,
0.013,0.11,0.39,0.75,-0.11,-0.15,0.19,
0.015,0.55,0.35,1.56,-0.11,-0.15,0.19,
0.015,0.55,0.35,1.56,-0.08,-0.13,0.17,
0.017,0.55,0.35,1.56,-0.05,-0.11,0.15,
0.022,0.55,0.35,1.56,-0.00,-0.06,0.13,
0.023,0.55,0.35,1.56,0.02,-0.04,0.11,
0.023,0.55,0.35,1.56,0.04,-0.03,0.11,
0.025,0.70,0.24,1.75,0.04,-0.03,0.11,
0.025,0.70,0.24,1.75,0.06,0.00,0.09,
0.027,0.70,0.24,1.75,0.09,0.03,0.08,
0.03,0.70,0.24,1.75,0.12,0.06,0.06,
0.031,0.70,0.24,1.75,0.13,0.08,0.05,
0.033,0.70,0.24,1.75,0.14,0.09,0.05,
0.035,0.61,0.18,1.41,0.14,0.09,0.05,
0.036,0.61,0.18,1.41,0.15,0.11,0.04,
0.042,0.61,0.18,1.41,0.16,0.12,0.03,
0.042,0.61,0.18,1.41,0.17,0.15,0.02,
0.043,0.61,0.18,1.41,0.18,0.16,0.02,
0.045,0.61,0.18,1.41,0.18,0.17,0.02,
0.046,0.36,0.24,0.82,0.18,0.17,0.02,
0.046,0.36,0.24,0.82,0.18,0.18,0.02,
0.046,0.36,0.24,0.82,0.18,0.19,0.02,
0.05,0.36,0.24,0.82,0.17,0.19,0.02,
0.051,0.36,0.24,0.82,0.17,0.19,0.02,
0.073,0.36,0.24,0.82,0.17,0.19,0.02,
0.074,0.06,0.25,0.24,0.17,0.19,0.02,
0.074,0.06,0.25,0.24,0.16,0.18,0.02,
0.075,0.06,0.25,0.24,0.15,0.18,0.03,
0.075,0.06,0.25,0.24,0.14,0.17,0.04,
0.075,0.06,0.25,0.24,0.13,0.16,0.04,
0.076,0.06,0.25,0.24,0.12,0.15,0.04,
0.076,-0.11,0.23,-0.12,0.12,0.15,0.04,
0.076,-0.11,0.23,-0.12,0.11,0.14,0.05,
0.077,-0.11,0.23,-0.12,0.10,0.13,0.05,
0.077,-0.11,0.23,-0.12,0.08,0.12,0.06,
0.084,-0.11,0.23,-0.12,0.07,0.11,0.06,
0.088,-0.11,0.23,-0.12,0.07,0.10,0.06,
0.092,-0.11,0.19,-0.29,0.07,0.10,0.06,
0.093,-0.11,0.19,-0.29,0.05,0.09,0.07,
0.094,-0.11,0.19,-0.29,0.04,0.09,0.08,
0.094,-0.11,0.19,-0.29,0.03,0.06,0.08,
0.095,-0.11,0.19,-0.29,0.02,0.05,0.09,
0.096,-0.11,0.19,-0.29,0.01,0.05,0.09,
0.096,-0.08,0.15,-0.37,0.01,0.05,0.09,
0.097,-0.08,0.15,-0.37,0.00,0.04,0.10,
0.097,-0.08,0.15,-0.37,-0.01,0.03,0.10,
0.098,-0.08,0.15,-0.37,-0.02,0.01,0.11,
0.098,-0.08,0.15,-0.37,-0.03,0.00,0.11,
0.099,-0.08,0.15,-0.37,-0.04,-0.00,0.11,
0.099,-0.02,0.18,-0.33,-0.04,-0.00,0.11,
0.1,-0.02,0.18,-0.33,-0.04,-0.01,0.11,
0.1,-0.02,0.18,-0.33,-0.05,-0.03,0.11,
0.101,-0.02,0.18,-0.33,-0.06,-0.04,0.11,
0.102,-0.02,0.18,-0.33,-0.07,-0.05,0.11,
0.103,-0.02,0.18,-0.33,-0.07,-0.06,0.11,
0.115,0.06,0.22,-0.24,-0.07,-0.06,0.11,
0.117,0.06,0.22,-0.24,-0.08,-0.07,0.11,
0.118,0.06,0.22,-0.24,-0.08,-0.09,0.11,
0.118,0.06,0.22,-0.24,-0.08,-0.10,0.10,
0.12,0.06,0.22,-0.24,-0.09,-0.12,0.10,
0.12,0.06,0.22,-0.24,-0.09,-0.13,0.10,
0.121,0.11,0.23,-0.08,-0.09,-0.13,0.10,
0.122,0.11,0.23,-0.08,-0.09,-0.15,0.09,
0.122,0.11,0.23,-0.08,-0.09,-0.16,0.09,
0.123,0.11,0.23,-0.08,-0.09,-0.17,0.09,
0.123,0.11,0.23,-0.08,-0.09,-0.18,0.08,
0.124,0.11,0.23,-0.08,-0.09,-0.19,0.08,
0.126,0.11,0.26,0.19,-0.09,-0.19,0.08,
0.126,0.11,0.26,0.19,-0.09,-0.19,0.07,
0.127,0.11,0.26,0.19,-0.09,-0.20,0.07,
0.138,0.11,0.26,0.19,-0.09,-0.20,0.06,
0.141,0.11,0.26,0.19,-0.08,-0.20,0.06,
0.142,0.11,0.26,0.19,-0.08,-0.20,0.05,
0.143,0.16,0.24,0.40,-0.08,-0.20,0.05,
0.144,0.16,0.24,0.40,-0.08,-0.20,0.05,
0.144,0.16,0.24,0.40,-0.08,-0.20,0.04,
0.145,0.16,0.24,0.40,-0.08,-0.20,0.04,
0.146,0.16,0.24,0.40,-0.08,-0.20,0.03,
0.146,0.16,0.24,0.40,-0.07,-0.19,0.03,
0.147,0.23,0.16,0.49,-0.07,-0.19,0.03,
0.148,0.23,0.16,0.49,-0.07,-0.18,0.02,
0.148,0.23,0.16,0.49,-0.07,-0.18,0.01,
0.171,0.23,0.16,0.49,-0.07,-0.17,0.01,
0.172,0.23,0.16,0.49,-0.07,-0.16,0.00,
0.173,0.23,0.16,0.49,-0.07,-0.15,-0.01,
0.173,0.23,0.16,0.52,-0.07,-0.15,-0.01,
0.173,0.23,0.16,0.52,-0.08,-0.14,-0.01,
0.174,0.23,0.16,0.52,-0.08,-0.13,-0.02,
0.174,0.23,0.16,0.52,-0.08,-0.12,-0.03,
0.174,0.23,0.16,0.52,-0.09,-0.11,-0.03,
0.175,0.23,0.16,0.52,-0.09,-0.10,-0.04,
0.175,0.27,0.18,0.50,-0.09,-0.10,-0.04,
0.175,0.27,0.18,0.50,-0.09,-0.09,-0.05,
0.176,0.27,0.18,0.50,-0.09,-0.08,-0.06,
0.176,0.27,0.18,0.50,-0.10,-0.07,-0.07,
0.176,0.27,0.18,0.50,-0.11,-0.06,-0.08,
0.177,0.27,0.18,0.50,-0.11,-0.05,-0.09,
0.192,0.30,0.26,0.56,-0.11,-0.05,-0.09,
0.193,0.30,0.26,0.56,-0.11,-0.04,-0.10,
0.193,0.30,0.26,0.56,-0.12,-0.03,-0.11,
0.194,0.30,0.26,0.56,-0.13,-0.02,-0.12,
0.194,0.30,0.26,0.56,-0.14,-0.01,-0.13,
0.195,0.30,0.26,0.56,-0.15,0.01,-0.13,
0.195,0.21,0.23,0.59,-0.15,0.01,-0.13,
0.195,0.21,0.23,0.59,-0.16,0.02,-0.14,
0.196,0.21,0.23,0.59,-0.17,0.04,-0.15,
0.196,0.21,0.23,0.59,-0.19,0.07,-0.17,
0.196,0.21,0.23,0.59,-0.19,0.08,-0.17,
0.197,0.21,0.23,0.59,-0.20,0.10,-0.18,
0.197,0.20,0.27,0.76,-0.20,0.10,-0.18,
0.197,0.20,0.27,0.76,-0.22,0.13,-0.19,
0.198,0.20,0.27,0.76,-0.22,0.16,-0.19,
0.201,0.20,0.27,0.76,-0.23,0.18,-0.20,
0.202,0.20,0.27,0.76,-0.24,0.20,-0.21,
0.203,0.20,0.27,0.76,-0.24,0.22,-0.21,
0.208,0.14,0.19,0.85,-0.24,0.22,-0.21,
0.21,0.14,0.19,0.85,-0.25,0.24,-0.21,
0.211,0.14,0.19,0.85,-0.26,0.26,-0.21,
0.212,0.14,0.19,0.85,-0.26,0.28,-0.21,
0.212,0.14,0.19,0.85,-0.27,0.30,-0.22,
0.213,0.14,0.19,0.85,-0.27,0.31,-0.22,
0.215,0.06,0.03,0.81,-0.27,0.31,-0.22,
0.216,0.06,0.03,0.81,-0.28,0.32,-0.21,
0.216,0.06,0.03,0.81,-0.28,0.32,-0.21,
0.221,0.06,0.03,0.81,-0.28,0.33,-0.20,
0.224,0.06,0.03,0.81,-0.29,0.33,-0.20,
0.224,0.06,0.03,0.81,-0.29,0.32,-0.19,
0.225,-0.10,-0.05,0.60,-0.29,0.32,-0.19,
0.226,-0.10,-0.05,0.60,-0.29,0.31,-0.18,
0.227,-0.10,-0.05,0.60,-0.29,0.30,-0.17,
0.23,-0.10,-0.05,0.60,-0.30,0.28,-0.16,
0.231,-0.10,-0.05,0.60,-0.30,0.27,-0.15,
0.233,-0.10,-0.05,0.60,-0.31,0.25,-0.14,
0.235,-0.34,0.03,0.32,-0.31,0.25,-0.14,
0.235,-0.34,0.03,0.32,-0.32,0.23,-0.12,
0.272,-0.34,0.03,0.32,-0.33,0.20,-0.11,
0.272,-0.34,0.03,0.32,-0.34,0.18,-0.10,
0.273,-0.34,0.03,0.32,-0.35,0.15,-0.09,
0.273,-0.34,0.03,0.32,-0.35,0.12,-0.08,
0.274,-0.59,0.17,0.27,-0.35,0.12,-0.08,
0.274,-0.59,0.17,0.27,-0.37,0.09,-0.07,
0.275,-0.59,0.17,0.27,-0.37,0.06,-0.06,
0.275,-0.59,0.17,0.27,-0.38,0.04,-0.05,
0.275,-0.59,0.17,0.27,-0.38,0.02,-0.04,
0.276,-0.59,0.17,0.27,-0.38,0.00,-0.02,
0.276,-0.73,0.19,0.65,-0.38,0.00,-0.02,
0.277,-0.73,0.19,0.65,-0.38,-0.01,-0.01,
0.277,-0.73,0.19,0.65,-0.38,-0.02,0.01,
0.277,-0.73,0.19,0.65,-0.38,-0.03,0.02,
0.277,-0.73,0.19,0.65,-0.38,-0.04,0.04,
0.278,-0.73,0.19,0.65,-0.38,-0.04,0.05,
0.278,-0.68,0.09,0.96,-0.38,-0.04,0.05,
0.278,-0.68,0.09,0.96,-0.37,-0.04,0.07,
0.278,-0.68,0.09,0.96,-0.37,-0.04,0.09,
0.279,-0.68,0.09,0.96,-0.37,-0.04,0.10,
0.279,-0.68,0.09,0.96,-0.36,-0.03,0.12,
0.279,-0.68,0.09,0.96,-0.36,-0.03,0.14,
0.28,-0.44,0.03,1.12,-0.36,-0.03,0.14,
0.28,-0.44,0.03,1.12,-0.35,-0.02,0.15,
0.28,-0.44,0.03,1.12,-0.35,-0.02,0.17,
0.28,-0.44,0.03,1.12,-0.35,-0.02,0.18,
0.281,-0.44,0.03,1.12,-0.34,-0.01,0.19,
0.289,-0.44,0.03,1.12,-0.34,-0.01,0.20,
0.289,-0.07,0.02,0.94,-0.34,-0.01,0.20,
0.29,-0.07,0.02,0.94,-0.34,-0.00,0.21,
0.29,-0.07,0.02,0.94,-0.34,0.00,0.21,
0.29,-0.07,0.02,0.94,-0.34,0.01,0.22,
0.317,-0.07,0.02,0.94,-0.34,0.01,0.22,
0.318,-0.07,0.02,0.94,-0.35,0.02,0.21,
0.318,0.37,0.09,0.52,-0.35,0.02,0.21,
0.318,0.37,0.09,0.52,-0.36,0.02,0.20,
0.319,0.37,0.09,0.52,-0.38,0.02,0.19,
0.319,0.37,0.09,0.52,-0.39,0.01,0.18,
0.319,0.37,0.09,0.52,-0.41,0.02,0.17,
0.32,0.37,0.09,0.52,-0.43,0.01,0.15,
0.32,0.73,0.15,-0.09,-0.43,0.01,0.15,
0.32,0.73,0.15,-0.09,-0.45,0.01,0.14,
0.321,0.73,0.15,-0.09,-0.48,0.01,0.12,
0.321,0.73,0.15,-0.09,-0.51,0.00,0.09,
0.321,0.73,0.15,-0.09,-0.53,-0.01,0.08,
0.321,0.73,0.15,-0.09,-0.56,-0.03,0.05,
0.322,0.94,0.41,-0.66,-0.56,-0.03,0.05,
0.322,0.94,0.41,-0.66,-0.60,-0.05,0.03,
0.322,0.94,0.41,-0.66,-0.63,-0.07,0.01,
0.322,0.94,0.41,-0.66,-0.66,-0.10,-0.02,
0.322,0.94,0.41,-0.66,-0.70,-0.14,-0.04,
0.324,0.94,0.41,-0.66,-0.73,-0.19,-0.07,
0.325,1.08,0.65,-0.74,-0.73,-0.19,-0.07,
0.325,1.08,0.65,-0.74,-0.76,-0.24,-0.10,
0.327,1.08,0.65,-0.74,-0.78,-0.30,-0.13,
0.33,1.08,0.65,-0.74,-0.80,-0.37,-0.15,
0.333,1.08,0.65,-0.74,-0.82,-0.44,-0.18,
0.333,1.08,0.65,-0.74,-0.83,-0.51,-0.21,
0.336,0.99,0.69,-0.18,-0.83,-0.51,-0.21,
0.336,0.99,0.69,-0.18,-0.83,-0.57,-0.23,
0.337,0.99,0.69,-0.18,-0.83,-0.63,-0.26,
0.34,0.99,0.69,-0.18,-0.82,-0.72,-0.29,
0.341,0.99,0.69,-0.18,-0.81,-0.75,-0.29,
0.343,0.99,0.69,-0.18,-0.79,-0.79,-0.31,
0.345,0.65,0.44,0.64,-0.79,-0.79,-0.31,
0.345,0.65,0.44,0.64,-0.76,-0.84,-0.32,
0.347,0.65,0.44,0.64,-0.73,-0.87,-0.33,
0.35,0.65,0.44,0.64,-0.67,-0.91,-0.34,
0.351,0.65,0.44,0.64,-0.65,-0.92,-0.34,
0.354,0.65,0.44,0.64,-0.60,-0.93,-0.34,
0.358,0.21,0.03,1.52,-0.60,-0.93,-0.34,
0.358,0.21,0.03,1.52,-0.55,-0.92,-0.33,
0.358,0.21,0.03,1.52,-0.50,-0.91,-0.32,
0.36,0.21,0.03,1.52,-0.42,-0.86,-0.29,
0.361,0.21,0.03,1.52,-0.39,-0.84,-0.28,
0.363,0.21,0.03,1.52,-0.34,-0.80,-0.26,
0.365,-0.37,-0.38,1.84,-0.34,-0.80,-0.26,
0.369,-0.37,-0.38,1.84,-0.24,-0.68,-0.20,
0.37,-0.37,-0.38,1.84,-0.18,-0.59,-0.15,
0.371,-0.37,-0.38,1.84,-0.18,-0.59,-0.15,
0.372,-0.37,-0.38,1.84,-0.16,-0.55,-0.13,
0.374,-0.37,-0.38,1.84,-0.12,-0.49,-0.09,
0.375,-0.74,-0.76,1.38,-0.12,-0.49,-0.09,
0.375,-0.74,-0.76,1.38,-0.09,-0.42,-0.05,
0.377,-0.74,-0.76,1.38,-0.06,-0.36,-0.01,
0.38,-0.74,-0.76,1.38,-0.04,-0.28,0.06,
0.381,-0.74,-0.76,1.38,-0.03,-0.26,0.08,
0.383,-0.74,-0.76,1.38,-0.03,-0.21,0.13,
0.396,-0.74,-0.67,0.43,-0.03,-0.21,0.13,
0.398,-0.74,-0.67,0.43,-0.03,-0.17,0.17,
0.398,-0.74,-0.67,0.43,-0.03,-0.13,0.21,
0.399,-0.74,-0.67,0.43,-0.05,-0.09,0.27,
0.399,-0.74,-0.67,0.43,-0.05,-0.07,0.29,
0.4,-0.74,-0.67,0.43,-0.07,-0.05,0.32,
0.4,-0.52,-0.27,-0.62,-0.07,-0.05,0.32,
0.401,-0.52,-0.27,-0.62,-0.09,-0.03,0.35,
0.401,-0.52,-0.27,-0.62,-0.11,-0.02,0.38,
0.402,-0.52,-0.27,-0.62,-0.14,-0.01,0.40,
0.419,-0.52,-0.27,-0.62,-0.16,-0.01,0.41,
0.421,-0.52,-0.27,-0.62,-0.18,-0.02,0.42,
0.451,-0.07,0.18,-1.41,-0.18,-0.02,0.42,
0.452,-0.07,0.18,-1.41,-0.20,-0.03,0.43,
0.453,-0.07,0.18,-1.41,-0.23,-0.05,0.43,
0.453,-0.07,0.18,-1.41,-0.28,-0.12,0.43,
0.454,-0.07,0.18,-1.41,-0.29,-0.16,0.43,
0.454,-0.07,0.18,-1.41,-0.32,-0.30,0.45,
0.455,0.61,0.28,-1.82,-0.32,-0.30,0.45,
0.455,0.61,0.28,-1.82,-0.33,-0.53,0.49,
0.456,0.61,0.28,-1.82,-0.33,-0.77,0.53,
0.456,0.61,0.28,-1.82,-0.33,-1.08,0.57,
0.456,0.61,0.28,-1.82,-0.32,-1.18,0.58,
0.457,0.61,0.28,-1.82,-0.31,-1.36,0.60,
0.457,1.02,-0.13,-1.69,-0.31,-1.36,0.60,
0.458,1.02,-0.13,-1.69,-0.30,-1.53,0.60,
0.458,1.02,-0.13,-1.69,-0.28,-1.69,0.59,
0.459,1.02,-0.13,-1.69,-0.24,-1.91,0.57,
0.459,1.02,-0.13,-1.69,-0.22,-1.98,0.56,
0.459,1.02,-0.13,-1.69,-0.19,-2.11,0.54,
0.46,1.16,0.26,-0.68,-0.19,-2.11,0.54,
0.46,1.16,0.26,-0.68,-0.15,-2.23,0.52,
0.461,1.16,0.26,-0.68,-0.12,-2.33,0.49,
0.461,1.16,0.26,-0.68,-0.06,-2.45,0.45,
0.462,1.16,0.26,-0.68,-0.04,-2.48,0.44,
0.462,1.16,0.26,-0.68,-0.00,-2.53,0.41,
0.462,0.64,0.55,-0.03,-0.00,-2.53,0.41,
0.463,0.64,0.55,-0.03,0.03,-2.56,0.38,
0.463,0.64,0.55,-0.03,0.05,-2.57,0.35,
0.464,0.64,0.55,-0.03,0.08,-2.56,0.30,
0.464,0.64,0.55,-0.03,0.09,-2.55,0.29,
0.465,0.64,0.55,-0.03,0.10,-2.51,0.26,
0.465,0.28,0.53,-0.01,0.10,-2.51,0.26,
0.465,0.28,0.53,-0.01,0.12,-2.46,0.24,
0.466,0.28,0.53,-0.01,0.13,-2.38,0.22,
0.466,0.28,0.53,-0.01,0.13,-2.25,0.19,
0.467,0.28,0.53,-0.01,0.13,-2.20,0.18,
0.467,0.28,0.53,-0.01,0.13,-2.09,0.17,
0.468,0.32,0.43,-0.50,0.13,-2.09,0.17,
0.468,0.32,0.43,-0.50,0.13,-1.97,0.16,
0.468,0.32,0.43,-0.50,0.12,-1.84,0.15,
0.471,0.32,0.43,-0.50,0.11,-1.62,0.13,
0.472,0.32,0.43,-0.50,0.10,-1.54,0.12,
0.473,0.32,0.43,-0.50,0.08,-1.37,0.11,
0.475,0.78,0.43,-1.32,0.08,-1.37,0.11,
0.475,0.78,0.43,-1.32,0.07,-1.22,0.09,
0.477,0.78,0.43,-1.32,0.06,-1.08,0.07,
0.48,0.78,0.43,-1.32,0.04,-0.89,0.05,
0.481,0.78,0.43,-1.32,0.04,-0.84,0.04,
0.483,0.78,0.43,-1.32,0.04,-0.74,0.03,
0.485,1.22,0.42,-1.69,0.04,-0.74,0.03,
0.486,1.22,0.42,-1.69,0.04,-0.65,0.02,
0.487,1.22,0.42,-1.69,0.03,-0.58,0.01,
0.49,1.22,0.42,-1.69,0.02,-0.50,0.01,
0.491,1.22,0.42,-1.69,0.01,-0.48,0.01,
0.493,1.22,0.42,-1.69,-0.01,-0.44,0.00,
0.494,1.28,0.48,-2.13,-0.01,-0.44,0.00,
0.497,1.28,0.48,-2.13,-0.05,-0.41,0.00,
0.497,1.28,0.48,-2.13,-0.07,-0.41,0.00,
0.499,1.28,0.48,-2.13,-0.13,-0.41,0.00,
0.506,1.28,0.48,-2.13,-0.15,-0.41,0.00,
0.507,1.28,0.48,-2.13,-0.19,-0.42,0.00,
0.507,1.04,0.62,-2.60,-0.19,-0.42,0.00,
0.508,1.04,0.62,-2.60,-0.24,-0.43,0.00,
0.508,1.04,0.62,-2.60,-0.28,-0.44,-0.00,
0.51,1.04,0.62,-2.60,-0.34,-0.46,-0.00,
0.511,1.04,0.62,-2.60,-0.36,-0.47,-0.00,
0.513,1.04,0.62,-2.60,-0.40,-0.48,-0.00,
0.515,0.62,0.55,-2.70,-0.40,-0.48,-0.00,
0.517,0.62,0.55,-2.70,-0.43,-0.49,-0.00,
0.518,0.62,0.55,-2.70,-0.46,-0.50,-0.00,
0.522,0.62,0.55,-2.70,-0.50,-0.50,0.00,
0.524,0.62,0.55,-2.70,-0.51,-0.49,0.00,
0.525,0.62,0.55,-2.70,-0.54,-0.48,0.01,
0.527,0.18,0.19,-2.69,-0.54,-0.48,0.01,
0.528,0.18,0.19,-2.69,-0.56,-0.46,0.02,
0.529,0.18,0.19,-2.69,-0.57,-0.44,0.04,
0.53,0.18,0.19,-2.69,-0.59,-0.40,0.08,
0.533,0.18,0.19,-2.69,-0.60,-0.39,0.09,
0.534,0.18,0.19,-2.69,-0.60,-0.36,0.12,
0.538,-0.38,0.15,-2.36,-0.60,-0.36,0.12,
0.538,-0.38,0.15,-2.36,-0.61,-0.33,0.16,
0.539,-0.38,0.15,-2.36,-0.61,-0.31,0.20,
0.546,-0.38,0.15,-2.36,-0.60,-0.29,0.28,
0.548,-0.38,0.15,-2.36,-0.60,-0.29,0.31,
0.549,-0.38,0.15,-2.36,-0.59,-0.28,0.37,
0.549,-1.09,0.12,-1.80,-0.59,-0.28,0.37,
0.55,-1.09,0.12,-1.80,-0.59,-0.27,0.44,
0.55,-1.09,0.12,-1.80,-0.58,-0.27,0.51,
0.551,-1.09,0.12,-1.80,-0.57,-0.27,0.61,
0.554,-1.09,0.12,-1.80,-0.56,-0.27,0.65,
0.554,-1.09,0.12,-1.80,-0.55,-0.27,0.73,
0.558,-1.25,-0.29,-0.89,-0.55,-0.27,0.73,
0.559,-1.25,-0.29,-0.89,-0.54,-0.28,0.80,
0.56,-1.25,-0.29,-0.89,-0.52,-0.30,0.87,
0.561,-1.25,-0.29,-0.89,-0.49,-0.35,0.96,
0.562,-1.25,-0.29,-0.89,-0.47,-0.37,0.99,
0.565,-1.25,-0.29,-0.89,-0.44,-0.42,1.04,
0.565,-0.96,-0.71,-0.22,-0.44,-0.42,1.04,
0.566,-0.96,-0.71,-0.22,-0.41,-0.49,1.08,
0.574,-0.96,-0.71,-0.22,-0.37,-0.56,1.12,
0.575,-0.96,-0.71,-0.22,-0.31,-0.67,1.18,
0.602,-0.96,-0.71,-0.22,-0.29,-0.71,1.19,
0.603,-0.96,-0.71,-0.22,-0.24,-0.78,1.22,
0.603,-0.72,-0.68,-0.11,-0.24,-0.78,1.22,
0.604,-0.72,-0.68,-0.11,-0.19,-0.84,1.24,
0.604,-0.72,-0.68,-0.11,-0.14,-0.90,1.26,
0.605,-0.72,-0.68,-0.11,-0.05,-0.98,1.28,
0.605,-0.72,-0.68,-0.11,-0.02,-1.00,1.29,
0.606,-0.72,-0.68,-0.11,0.05,-1.06,1.30,
0.606,-0.48,-0.31,-0.32,0.05,-1.06,1.30,
0.607,-0.48,-0.31,-0.32,0.11,-1.15,1.33,
0.607,-0.48,-0.31,-0.32,0.16,-1.32,1.38,
0.607,-0.48,-0.31,-0.32,0.23,-1.52,1.45,
0.608,-0.48,-0.31,-0.32,0.26,-1.57,1.47,
0.608,-0.48,-0.31,-0.32,0.31,-1.65,1.52,
0.609,-0.65,-0.71,-1.36,0.31,-1.65,1.52,
0.609,-0.65,-0.71,-1.36,0.36,-1.70,1.57,
0.609,-0.65,-0.71,-1.36,0.41,-1.74,1.62,
0.61,-0.65,-0.71,-1.36,0.51,-1.84,1.70,
0.61,-0.65,-0.71,-1.36,0.54,-1.88,1.73,
0.61,-0.65,-0.71,-1.36,0.60,-1.98,1.78,
0.611,-0.86,-0.31,-1.05,0.60,-1.98,1.78,
0.611,-0.86,-0.31,-1.05,0.65,-2.08,1.82,
0.612,-0.86,-0.31,-1.05,0.70,-2.18,1.86,
0.612,-0.86,-0.31,-1.05,0.77,-2.33,1.91,
0.612,-0.86,-0.31,-1.05,0.78,-2.38,1.92,
0.613,-0.86,-0.31,-1.05,0.82,-2.49,1.94,
0.615,-0.73,-0.14,-1.88,0.82,-2.49,1.94,
0.616,-0.73,-0.14,-1.88,0.85,-2.62,1.96,
0.628,-0.73,-0.14,-1.88,0.88,-2.75,1.96,
0.629,-0.73,-0.14,-1.88,0.91,-2.97,1.96,
0.629,-0.73,-0.14,-1.88,0.93,-3.05,1.96,
0.629,-0.73,-0.14,-1.88,0.96,-3.23,1.95,
0.629,-0.59,-0.24,-2.18,0.96,-3.23,1.95,
0.63,-0.59,-0.24,-2.18,0.99,-3.42,1.93,
0.63,-0.59,-0.24,-2.18,1.01,-3.61,1.91,
0.63,-0.59,-0.24,-2.18,1.05,-3.85,1.87,
0.631,-0.59,-0.24,-2.18,1.06,-3.92,1.86,
0.633,-0.59,-0.24,-2.18,1.07,-4.05,1.83,
0.635,-0.38,-0.25,-2.35,1.07,-4.05,1.83,
0.635,-0.38,-0.25,-2.35,1.09,-4.15,1.79,
0.637,-0.38,-0.25,-2.35,1.10,-4.22,1.76,
0.64,-0.38,-0.25,-2.35,1.11,-4.29,1.70,
0.641,-0.38,-0.25,-2.35,1.12,-4.31,1.68,
0.643,-0.38,-0.25,-2.35,1.12,-4.35,1.64,
0.645,-0.25,-0.35,-2.23,1.12,-4.35,1.64,
0.645,-0.25,-0.35,-2.23,1.13,-4.38,1.61,
0.647,-0.25,-0.35,-2.23,1.13,-4.41,1.56,
0.662,-0.25,-0.35,-2.23,1.14,-4.45,1.50,
0.663,-0.25,-0.35,-2.23,1.14,-4.47,1.48,
0.663,-0.25,-0.35,-2.23,1.14,-4.49,1.44,
0.663,-0.50,-0.67,-2.05,1.14,-4.49,1.44,
0.664,-0.50,-0.67,-2.05,1.14,-4.51,1.39,
0.664,-0.50,-0.67,-2.05,1.15,-4.53,1.34,
0.664,-0.50,-0.67,-2.05,1.15,-4.55,1.27,
0.665,-0.50,-0.67,-2.05,1.15,-4.56,1.24,
0.665,-0.50,-0.67,-2.05,1.15,-4.58,1.19,
0.666,-0.70,-1.03,-2.07,1.15,-4.58,1.19,
0.666,-0.70,-1.03,-2.07,1.16,-4.60,1.13,
0.689,-0.70,-1.03,-2.07,1.16,-4.62,1.07,
0.691,-0.70,-1.03,-2.07,1.18,-4.66,0.97,
0.692,-0.70,-1.03,-2.07,1.19,-4.67,0.94,
0.692,-0.70,-1.03,-2.07,1.20,-4.70,0.88,
0.693,-0.96,-1.89,-2.24,1.20,-4.70,0.88,
0.693,-0.96,-1.89,-2.24,1.23,-4.73,0.81,
0.693,-0.96,-1.89,-2.24,1.26,-4.76,0.74,
0.694,-0.96,-1.89,-2.24,1.31,-4.83,0.65,
0.694,-0.96,-1.89,-2.24,1.33,-4.86,0.62,
0.695,-0.96,-1.89,-2.24,1.37,-4.93,0.57,
0.695,-1.67,-2.82,-2.34,1.37,-4.93,0.57,
0.696,-1.67,-2.82,-2.34,1.41,-5.02,0.53,
0.697,-1.67,-2.82,-2.34,1.46,-5.13,0.51,
0.697,-1.67,-2.82,-2.34,1.55,-5.30,0.50,
0.698,-1.67,-2.82,-2.34,1.58,-5.37,0.51,
0.698,-1.67,-2.82,-2.34,1.65,-5.49,0.53,
0.699,-3.13,-3.51,-2.02,1.65,-5.49,0.53,
0.699,-3.13,-3.51,-2.02,1.73,-5.61,0.57,
0.7,-3.13,-3.51,-2.02,1.80,-5.74,0.61,
0.7,-3.13,-3.51,-2.02,1.93,-5.90,0.71,
0.701,-3.13,-3.51,-2.02,1.97,-5.96,0.74,
0.703,-3.13,-3.51,-2.02,2.05,-6.05,0.82,
0.708,-4.57,-3.76,-1.79,2.05,-6.05,0.82,
0.711,-4.57,-3.76,-1.79,2.14,-6.13,0.90,
0.712,-4.57,-3.76,-1.79,2.22,-6.21,0.98,
0.713,-4.57,-3.76,-1.79,2.33,-6.30,1.10,
0.714,-4.57,-3.76,-1.79,2.37,-6.32,1.14,
0.715,-4.57,-3.76,-1.79,2.43,-6.37,1.22,
0.716,-5.60,-4.09,-1.77,2.43,-6.37,1.22,
0.723,-5.60,-4.09,-1.77,2.48,-6.41,1.29,
0.725,-5.60,-4.09,-1.77,2.52,-6.46,1.36,
0.726,-5.60,-4.09,-1.77,2.56,-6.54,1.47,
0.726,-5.60,-4.09,-1.77,2.57,-6.57,1.50,
0.727,-5.60,-4.09,-1.77,2.58,-6.63,1.57,
0.728,-5.89,-4.03,-2.85,2.58,-6.63,1.57,
0.728,-5.89,-4.03,-2.85,2.57,-6.69,1.64,
0.728,-5.89,-4.03,-2.85,2.57,-6.74,1.71,
0.73,-5.89,-4.03,-2.85,2.55,-6.80,1.83,
0.731,-5.89,-4.03,-2.85,2.54,-6.81,1.87,
0.737,-5.89,-4.03,-2.85,2.52,-6.82,1.95,
0.738,-6.33,-4.34,-3.71,2.52,-6.82,1.95,
0.739,-6.33,-4.34,-3.71,2.51,-6.82,2.03,
0.765,-6.33,-4.34,-3.71,2.49,-6.80,2.12,
0.765,-6.33,-4.34,-3.71,2.46,-6.74,2.25,
0.766,-6.33,-4.34,-3.71,2.45,-6.71,2.30,
0.766,-6.33,-4.34,-3.71,2.43,-6.66,2.39,
0.767,-6.60,-4.67,-4.32,2.43,-6.66,2.39,
0.767,-6.60,-4.67,-4.32,2.40,-6.59,2.49,
0.767,-6.60,-4.67,-4.32,2.37,-6.52,2.58,
0.768,-6.60,-4.67,-4.32,2.32,-6.41,2.73,
0.768,-6.60,-4.67,-4.32,2.30,-6.37,2.78,
0.769,-6.60,-4.67,-4.32,2.26,-6.29,2.88,
0.769,-6.55,-5.59,-4.84,2.26,-6.29,2.88,
0.77,-6.55,-5.59,-4.84,2.22,-6.20,2.97,
0.77,-6.55,-5.59,-4.84,2.17,-6.12,3.06,
0.77,-6.55,-5.59,-4.84,2.09,-5.98,3.18,
0.771,-6.55,-5.59,-4.84,2.06,-5.93,3.22,
0.771,-6.55,-5.59,-4.84,2.00,-5.84,3.29,
0.772,-6.29,-5.78,-5.39,2.00,-5.84,3.29,
0.772,-6.29,-5.78,-5.39,1.94,-5.75,3.36,
0.773,-6.29,-5.78,-5.39,1.87,-5.66,3.42,
0.773,-6.29,-5.78,-5.39,1.77,-5.53,3.51,
0.773,-6.29,-5.78,-5.39,1.74,-5.49,3.53,
0.773,-6.29,-5.78,-5.39,1.66,-5.41,3.59,
0.777,-5.47,-5.68,-5.99,1.66,-5.41,3.59,
0.777,-5.47,-5.68,-5.99,1.59,-5.33,3.63,
0.777,-5.47,-5.68,-5.99,1.52,-5.26,3.68,
0.78,-5.47,-5.68,-5.99,1.41,-5.16,3.74,
0.781,-5.47,-5.68,-5.99,1.37,-5.13,3.76,
0.789,-5.47,-5.68,-5.99,1.30,-5.08,3.79,
0.79,-4.49,-5.11,-6.05,1.30,-5.08,3.79,
0.79,-4.49,-5.11,-6.05,1.23,-5.03,3.82,
0.79,-4.49,-5.11,-6.05,1.16,-4.98,3.85,
0.791,-4.49,-5.11,-6.05,1.05,-4.93,3.87,
0.791,-4.49,-5.11,-6.05,1.02,-4.92,3.88,
0.793,-4.49,-5.11,-6.05,0.95,-4.88,3.90,
0.798,-3.23,-5.08,-5.74,0.95,-4.88,3.90,
0.798,-3.23,-5.08,-5.74,0.89,-4.86,3.91,
0.798,-3.23,-5.08,-5.74,0.83,-4.84,3.92,
0.81,-3.23,-5.08,-5.74,0.75,-4.81,3.94,
0.81,-3.23,-5.08,-5.74,0.73,-4.80,3.94,
0.81,-3.23,-5.08,-5.74,0.68,-4.79,3.95,
0.81,-2.13,-5.12,-4.70,0.68,-4.79,3.95,
0.811,-2.13,-5.12,-4.70,0.63,-4.77,3.96,
0.811,-2.13,-5.12,-4.70,0.59,-4.76,3.96,
0.811,-2.13,-5.12,-4.70,0.52,-4.73,3.97,
0.811,-2.13,-5.12,-4.70,0.50,-4.72,3.98,
0.813,-2.13,-5.12,-4.70,0.46,-4.70,3.99,
0.815,-1.29,-5.13,-3.63,0.46,-4.70,3.99,
0.815,-1.29,-5.13,-3.63,0.43,-4.68,4.00,
0.822,-1.29,-5.13,-3.63,0.39,-4.65,4.02,
0.823,-1.29,-5.13,-3.63,0.34,-4.60,4.06,
0.823,-1.29,-5.13,-3.63,0.32,-4.58,4.07,
0.823,-1.29,-5.13,-3.63,0.28,-4.54,4.10,
0.825,-0.92,-4.85,-2.63,0.28,-4.54,4.10,
0.825,-0.92,-4.85,-2.63,0.24,-4.50,4.13,
0.827,-0.92,-4.85,-2.63,0.20,-4.45,4.17,
0.831,-0.92,-4.85,-2.63,0.13,-4.37,4.23,
0.832,-0.92,-4.85,-2.63,0.11,-4.34,4.25,
0.836,-0.92,-4.85,-2.63,0.06,-4.28,4.30,
0.837,-0.72,-4.84,-2.11,0.06,-4.28,4.30,
0.837,-0.72,-4.84,-2.11,0.01,-4.21,4.35,
0.838,-0.72,-4.84,-2.11,-0.04,-4.14,4.40,
0.84,-0.72,-4.84,-2.11,-0.12,-4.02,4.47,
0.841,-0.72,-4.84,-2.11,-0.14,-3.98,4.49,
0.843,-0.72,-4.84,-2.11,-0.19,-3.90,4.54,
0.845,-0.32,-4.85,-1.47,-0.19,-3.90,4.54,
0.847,-0.32,-4.85,-1.47,-0.26,-3.78,4.60,
0.848,-0.32,-4.85,-1.47,-0.28,-3.73,4.62,
0.85,-0.32,-4.85,-1.47,-0.34,-3.60,4.68,
0.852,-0.32,-4.85,-1.47,-0.35,-3.56,4.69,
0.853,-0.32,-4.85,-1.47,-0.37,-3.48,4.71,
0.855,0.73,-5.19,-0.18,-0.37,-3.48,4.71,
0.855,0.73,-5.19,-0.18,-0.39,-3.40,4.72,
0.857,0.73,-5.19,-0.18,-0.40,-3.32,4.73,
0.86,0.73,-5.19,-0.18,-0.39,-3.21,4.72,
0.861,0.73,-5.19,-0.18,-0.38,-3.17,4.71,
0.863,0.73,-5.19,-0.18,-0.36,-3.10,4.69,
0.865,2.91,-5.04,1.74,-0.36,-3.10,4.69,
0.866,2.91,-5.04,1.74,-0.32,-3.04,4.66,
0.868,2.91,-5.04,1.74,-0.28,-2.98,4.62,
0.871,2.91,-5.04,1.74,-0.19,-2.90,4.55,
0.872,2.91,-5.04,1.74,-0.15,-2.88,4.53,
0.873,2.91,-5.04,1.74,-0.08,-2.84,4.48,
0.875,4.67,-4.60,3.85,-0.08,-2.84,4.48,
0.875,4.67,-4.60,3.85,0.01,-2.81,4.43,
0.877,4.67,-4.60,3.85,0.10,-2.78,4.37,
0.88,4.67,-4.60,3.85,0.25,-2.75,4.28,
0.881,4.67,-4.60,3.85,0.30,-2.74,4.25,
0.883,4.67,-4.60,3.85,0.41,-2.73,4.19,
0.885,5.58,-4.08,5.10,0.41,-2.73,4.19,
0.886,5.58,-4.08,5.10,0.51,-2.73,4.13,
0.887,5.58,-4.08,5.10,0.62,-2.74,4.07,
0.89,5.58,-4.08,5.10,0.79,-2.76,3.98,
0.891,5.58,-4.08,5.10,0.85,-2.76,3.95,
0.893,5.58,-4.08,5.10,0.96,-2.79,3.90,
0.895,6.06,-3.66,5.43,0.96,-2.79,3.90,
0.895,6.06,-3.66,5.43,1.07,-2.81,3.84,
0.897,6.06,-3.66,5.43,1.18,-2.84,3.79,
0.9,6.06,-3.66,5.43,1.33,-2.88,3.71,
0.901,6.06,-3.66,5.43,1.38,-2.89,3.69,
0.903,6.06,-3.66,5.43,1.47,-2.91,3.65,
0.935,6.33,-3.20,4.69,1.47,-2.91,3.65,
0.936,6.33,-3.20,4.69,1.56,-2.94,3.60,
0.936,6.33,-3.20,4.69,1.63,-2.95,3.57,
0.936,6.33,-3.20,4.69,1.73,-2.97,3.52,
0.937,6.33,-3.20,4.69,1.76,-2.97,3.50,
0.937,6.33,-3.20,4.69,1.81,-2.98,3.47,
0.938,6.53,-2.64,3.28,1.81,-2.98,3.47,
0.938,6.53,-2.64,3.28,1.85,-2.97,3.45,
0.939,6.53,-2.64,3.28,1.87,-2.96,3.43,
0.939,6.53,-2.64,3.28,1.90,-2.92,3.42,
0.939,6.53,-2.64,3.28,1.91,-2.90,3.42,
0.94,6.53,-2.64,3.28,1.92,-2.87,3.41,
0.94,6.31,-1.78,1.77,1.92,-2.87,3.41,
0.941,6.31,-1.78,1.77,1.92,-2.83,3.41,
0.941,6.31,-1.78,1.77,1.91,-2.78,3.41,
0.941,6.31,-1.78,1.77,1.88,-2.69,3.39,
0.942,6.31,-1.78,1.77,1.86,-2.65,3.39,
0.942,6.31,-1.78,1.77,1.83,-2.58,3.37,
0.942,7.10,-1.67,0.42,1.83,-2.58,3.37,
0.943,7.10,-1.67,0.42,1.79,-2.50,3.36,
0.943,7.10,-1.67,0.42,1.75,-2.41,3.34,
0.944,7.10,-1.67,0.42,1.67,-2.27,3.30,
0.944,7.10,-1.67,0.42,1.64,-2.22,3.29,
0.944,7.10,-1.67,0.42,1.59,-2.12,3.25,
0.945,8.18,-1.73,-0.60,1.59,-2.12,3.25,
0.945,8.18,-1.73,-0.60,1.53,-2.01,3.22,
0.948,8.18,-1.73,-0.60,1.47,-1.89,3.19,
0.95,8.18,-1.73,-0.60,1.38,-1.71,3.13,
0.951,8.18,-1.73,-0.60,1.35,-1.65,3.12,
0.953,8.18,-1.73,-0.60,1.29,-1.52,3.08,
0.955,9.22,-1.39,-1.13,1.29,-1.52,3.08,
0.955,9.22,-1.39,-1.13,1.23,-1.39,3.03,
0.957,9.22,-1.39,-1.13,1.16,-1.26,2.98,
0.96,9.22,-1.39,-1.13,1.07,-1.07,2.91,
0.961,9.22,-1.39,-1.13,1.04,-1.00,2.89,
0.963,9.22,-1.39,-1.13,0.98,-0.88,2.83,
0.965,10.00,-0.91,-1.24,0.98,-0.88,2.83,
0.966,10.00,-0.91,-1.24,0.92,-0.75,2.78,
0.969,10.00,-0.91,-1.24,0.87,-0.63,2.72,
0.974,10.00,-0.91,-1.24,0.79,-0.47,2.64,
0.974,10.00,-0.91,-1.24,0.76,-0.41,2.61,
0.974,10.00,-0.91,-1.24,0.71,-0.31,2.56,
0.975,10.57,-0.35,-1.16,0.71,-0.31,2.56,
0.975,10.57,-0.35,-1.16,0.66,-0.21,2.50,
0.977,10.57,-0.35,-1.16,0.61,-0.11,2.44,
0.979,10.57,-0.35,-1.16,0.55,0.03,2.35,
0.98,10.57,-0.35,-1.16,0.53,0.07,2.31,
0.995,10.57,-0.35,-1.16,0.49,0.15,2.25,
0.996,10.84,0.01,-0.95,0.49,0.15,2.25,
0.996,10.84,0.01,-0.95,0.46,0.22,2.19,
0.997,10.84,0.01,-0.95,0.42,0.29,2.12,
0.997,10.84,0.01,-0.95,0.38,0.40,2.03,
0.997,10.84,0.01,-0.95,0.36,0.43,1.99,
0.998,10.84,0.01,-0.95,0.33,0.49,1.93,
0.998,11.12,0.48,-0.75,0.33,0.49,1.93,
0.999,11.12,0.48,-0.75,0.31,0.55,1.86,
0.999,11.12,0.48,-0.75,0.28,0.61,1.79,
1.025,11.12,0.48,-0.75,0.25,0.69,1.69,
1.026,11.12,0.48,-0.75,0.24,0.72,1.65,
1.026,11.12,0.48,-0.75,0.22,0.77,1.58,
1.027,11.34,0.85,-0.65,0.22,0.77,1.58,
1.027,11.34,0.85,-0.65,0.20,0.81,1.50,
1.027,11.34,0.85,-0.65,0.18,0.86,1.43,
1.028,11.34,0.85,-0.65,0.15,0.93,1.31,
1.028,11.34,0.85,-0.65,0.14,0.95,1.27,
1.028,11.34,0.85,-0.65,0.13,0.99,1.20,
1.029,11.60,1.37,-0.64,0.13,0.99,1.20,
1.029,11.60,1.37,-0.64,0.11,1.03,1.12,
1.029,11.60,1.37,-0.64,0.09,1.07,1.04,
1.03,11.60,1.37,-0.64,0.07,1.13,0.93,
1.03,11.60,1.37,-0.64,0.06,1.15,0.89,
1.03,11.60,1.37,-0.64,0.05,1.19,0.82,
1.031,11.61,1.54,-0.63,0.05,1.19,0.82,
1.032,11.61,1.54,-0.63,0.04,1.24,0.74,
1.033,11.61,1.54,-0.63,0.02,1.28,0.66,
1.033,11.61,1.54,-0.63,0.01,1.35,0.55,
1.034,11.61,1.54,-0.63,0.00,1.37,0.51,
1.035,11.61,1.54,-0.63,0.00,1.42,0.44,
1.037,11.71,1.55,-0.63,0.00,1.42,0.44,
1.038,11.71,1.55,-0.63,-0.01,1.46,0.36,
1.039,11.71,1.55,-0.63,-0.01,1.51,0.28,
1.041,11.71,1.55,-0.63,-0.01,1.59,0.17,
1.042,11.71,1.55,-0.63,-0.01,1.61,0.13,
1.043,11.71,1.55,-0.63,-0.01,1.66,0.05,
1.045,11.53,1.20,-0.56,-0.01,1.66,0.05,
1.047,11.53,1.20,-0.56,-0.00,1.71,-0.02,
1.048,11.53,1.20,-0.56,0.00,1.75,-0.09,
1.054,11.53,1.20,-0.56,0.01,1.82,-0.20,
1.057,11.53,1.20,-0.56,0.02,1.84,-0.23,
1.057,11.53,1.20,-0.56,0.02,1.89,-0.30,
1.058,11.17,1.13,-0.45,0.02,1.89,-0.30,
1.058,11.17,1.13,-0.45,0.04,1.93,-0.37,
1.058,11.17,1.13,-0.45,0.04,1.96,-0.45,
1.06,11.17,1.13,-0.45,0.06,2.01,-0.55,
1.064,11.17,1.13,-0.45,0.06,2.02,-0.58,
1.064,11.17,1.13,-0.45,0.07,2.05,-0.65,
1.065,10.54,1.08,-0.52,0.07,2.05,-0.65,
1.065,10.54,1.08,-0.52,0.08,2.07,-0.71,
1.068,10.54,1.08,-0.52,0.09,2.08,-0.77,
1.07,10.54,1.08,-0.52,0.11,2.11,-0.85,
1.099,10.54,1.08,-0.52,0.11,2.12,-0.87,
1.1,10.54,1.08,-0.52,0.12,2.14,-0.92,
1.1,9.90,1.05,-0.73,0.12,2.14,-0.92,
1.101,9.90,1.05,-0.73,0.13,2.15,-0.97,
1.101,9.90,1.05,-0.73,0.14,2.16,-1.01,
1.102,9.90,1.05,-0.73,0.15,2.17,-1.07,
1.102,9.90,1.05,-0.73,0.15,2.17,-1.09,
1.103,9.90,1.05,-0.73,0.16,2.18,-1.12,
1.103,9.19,0.77,-0.95,0.16,2.18,-1.12,
1.103,9.19,0.77,-0.95,0.17,2.18,-1.16,
1.104,9.19,0.77,-0.95,0.17,2.18,-1.19,
1.104,9.19,0.77,-0.95,0.19,2.18,-1.25,
1.105,9.19,0.77,-0.95,0.19,2.18,-1.26,
1.105,9.19,0.77,-0.95,0.20,2.18,-1.30,
1.106,8.67,0.62,-1.11,0.20,2.18,-1.30,
1.106,8.67,0.62,-1.11,0.21,2.17,-1.34,
1.106,8.67,0.62,-1.11,0.22,2.17,-1.37,
1.107,8.67,0.62,-1.11,0.24,2.16,-1.44,
1.107,8.67,0.62,-1.11,0.24,2.16,-1.46,
1.108,8.67,0.62,-1.11,0.25,2.15,-1.51,
1.108,8.55,0.71,-1.24,0.25,2.15,-1.51,
1.109,8.55,0.71,-1.24,0.27,2.15,-1.56,
1.109,8.55,0.71,-1.24,0.28,2.14,-1.62,
1.109,8.55,0.71,-1.24,0.30,2.12,-1.71,
1.12,8.55,0.71,-1.24,0.31,2.12,-1.74,
1.121,8.55,0.71,-1.24,0.33,2.10,-1.81,
1.121,9.11,1.09,-1.53,0.33,2.10,-1.81,
1.122,9.11,1.09,-1.53,0.34,2.09,-1.87,
1.122,9.11,1.09,-1.53,0.36,2.08,-1.95,
1.122,9.11,1.09,-1.53,0.38,2.07,-2.08,
1.123,9.11,1.09,-1.53,0.39,2.06,-2.13,
1.123,9.11,1.09,-1.53,0.41,2.06,-2.24,
1.125,9.73,1.28,-2.17,0.41,2.06,-2.24,
1.13,9.73,1.28,-2.17,0.43,2.07,-2.35,
1.13,9.73,1.28,-2.17,0.45,2.08,-2.47,
1.13,9.73,1.28,-2.17,0.48,2.11,-2.65,
1.131,9.73,1.28,-2.17,0.49,2.12,-2.71,
1.143,9.73,1.28,-2.17,0.51,2.13,-2.82,
1.144,9.81,1.16,-3.30,0.51,2.13,-2.82,
1.144,9.81,1.16,-3.30,0.52,2.11,-2.92,
1.144,9.81,1.16,-3.30,0.52,2.08,-3.00,
1.144,9.81,1.16,-3.30,0.50,1.98,-3.10,
1.145,9.81,1.16,-3.30,0.50,1.94,-3.12,
1.145,9.81,1.16,-3.30,0.47,1.85,-3.16,
1.145,7.77,0.15,-3.82,0.47,1.85,-3.16,
1.145,7.77,0.15,-3.82,0.44,1.76,-3.17,
1.147,7.77,0.15,-3.82,0.41,1.68,-3.18,
1.154,7.77,0.15,-3.82,0.36,1.56,-3.18,
1.154,7.77,0.15,-3.82,0.34,1.53,-3.18,
1.155,7.77,0.15,-3.82,0.31,1.48,-3.17,
1.155,5.10,-0.47,-3.39,0.31,1.48,-3.17,
1.155,5.10,-0.47,-3.39,0.29,1.44,-3.17,
1.157,5.10,-0.47,-3.39,0.27,1.43,-3.16,
1.161,5.10,-0.47,-3.39,0.27,1.42,-3.14,
1.162,5.10,-0.47,-3.39,0.27,1.42,-3.14,
1.163,5.10,-0.47,-3.39,0.27,1.43,-3.12,
1.165,3.12,-0.33,-2.59,0.27,1.43,-3.12,
1.165,3.12,-0.33,-2.59,0.28,1.43,-3.11,
1.167,3.12,-0.33,-2.59,0.29,1.42,-3.09,
1.17,3.12,-0.33,-2.59,0.31,1.39,-3.07,
1.171,3.12,-0.33,-2.59,0.31,1.38,-3.06,
1.173,3.12,-0.33,-2.59,0.32,1.34,-3.03,
1.175,2.01,0.29,-2.01,0.32,1.34,-3.03,
1.176,2.01,0.29,-2.01,0.33,1.29,-3.01,
1.177,2.01,0.29,-2.01,0.34,1.24,-2.98,
1.179,2.01,0.29,-2.01,0.36,1.15,-2.92,
1.181,2.01,0.29,-2.01,0.36,1.11,-2.90,
1.183,2.01,0.29,-2.01,0.38,1.03,-2.85,
1.185,0.61,0.61,-0.63,0.38,1.03,-2.85,
1.185,0.61,0.61,-0.63,0.41,0.94,-2.80,
1.187,0.61,0.61,-0.63,0.44,0.86,-2.77,
1.19,0.61,0.61,-0.63,0.50,0.78,-2.72,
1.191,0.61,0.61,-0.63,0.52,0.77,-2.71,
1.193,0.61,0.61,-0.63,0.57,0.78,-2.69,
1.195,0.11,1.25,0.43,0.57,0.78,-2.69,
1.198,0.11,1.25,0.43,0.67,0.81,-2.66,
1.199,0.11,1.25,0.43,0.70,0.82,-2.65,
1.2,0.11,1.25,0.43,0.77,0.82,-2.61,
1.201,0.11,1.25,0.43,0.79,0.81,-2.59,
1.203,0.11,1.25,0.43,0.81,0.77,-2.55,
1.205,-0.08,1.23,-0.09,0.81,0.77,-2.55,
1.205,-0.08,1.23,-0.09,0.83,0.71,-2.51,
1.207,-0.08,1.23,-0.09,0.84,0.63,-2.46,
1.21,-0.08,1.23,-0.09,0.86,0.50,-2.41,
1.21,-0.08,1.23,-0.09,0.86,0.46,-2.39,
1.213,-0.08,1.23,-0.09,0.88,0.38,-2.37,
1.215,-0.88,0.79,0.97,0.88,0.38,-2.37,
1.216,-0.88,0.79,0.97,0.92,0.31,-2.35,
1.217,-0.88,0.79,0.97,0.97,0.25,-2.35,
1.22,-0.88,0.79,0.97,1.08,0.18,-2.35,
1.221,-0.88,0.79,0.97,1.12,0.17,-2.35,
1.223,-0.88,0.79,0.97,1.22,0.15,-2.36,
1.225,-0.78,0.81,2.94,1.22,0.15,-2.36,
1.225,-0.78,0.81,2.94,1.32,0.14,-2.36,
1.226,-0.78,0.81,2.94,1.43,0.14,-2.37,
1.23,-0.78,0.81,2.94,1.59,0.16,-2.37,
1.241,-0.78,0.81,2.94,1.63,0.16,-2.37,
1.242,-0.78,0.81,2.94,1.72,0.18,-2.36,
1.242,-1.07,0.91,2.42,1.72,0.18,-2.36,
1.243,-1.07,0.91,2.42,1.80,0.19,-2.33,
1.279,-1.07,0.91,2.42,1.86,0.19,-2.31,
1.28,-1.07,0.91,2.42,1.92,0.16,-2.28,
1.281,-1.07,0.91,2.42,1.94,0.14,-2.26,
1.282,-1.07,0.91,2.42,1.96,0.11,-2.23,
1.283,-1.62,0.92,0.51,1.96,0.11,-2.23,
1.283,-1.62,0.92,0.51,1.97,0.09,-2.21,
1.283,-1.62,0.92,0.51,1.99,0.07,-2.19,
1.284,-1.62,0.92,0.51,2.00,0.08,-2.16,
1.284,-1.62,0.92,0.51,2.00,0.09,-2.15,
1.285,-1.62,0.92,0.51,1.99,0.12,-2.13,
1.285,-2.22,0.92,-1.02,1.99,0.12,-2.13,
1.285,-2.22,0.92,-1.02,1.99,0.16,-2.10,
1.286,-2.22,0.92,-1.02,1.97,0.20,-2.06,
1.286,-2.22,0.92,-1.02,1.94,0.25,-1.99,
1.287,-2.22,0.92,-1.02,1.92,0.26,-1.96,
1.287,-2.22,0.92,-1.02,1.88,0.28,-1.90,
1.287,-3.29,0.72,-2.79,1.88,0.28,-1.90,
1.288,-3.29,0.72,-2.79,1.82,0.29,-1.83,
1.288,-3.29,0.72,-2.79,1.76,0.29,-1.76,
1.288,-3.29,0.72,-2.79,1.65,0.24,-1.65,
1.289,-3.29,0.72,-2.79,1.60,0.22,-1.62,
1.289,-3.29,0.72,-2.79,1.52,0.18,-1.55,
1.289,-3.98,0.61,-4.25,1.52,0.18,-1.55,
1.289,-3.98,0.61,-4.25,1.43,0.13,-1.48,
1.29,-3.98,0.61,-4.25,1.34,0.06,-1.41,
1.29,-3.98,0.61,-4.25,1.22,-0.03,-1.32,
1.29,-3.98,0.61,-4.25,1.18,-0.06,-1.29,
1.29,-3.98,0.61,-4.25,1.12,-0.11,-1.25,
1.291,-4.06,0.89,-4.61,1.12,-0.11,-1.25,
1.291,-4.06,0.89,-4.61,1.08,-0.15,-1.20,
1.291,-4.06,0.89,-4.61,1.06,-0.18,-1.16,
1.291,-4.06,0.89,-4.61,1.05,-0.25,-1.11,
1.292,-4.06,0.89,-4.61,1.05,-0.27,-1.09,
1.294,-4.06,0.89,-4.61,1.07,-0.34,-1.07,
1.295,-2.79,0.99,-2.52,1.07,-0.34,-1.07,
1.296,-2.79,0.99,-2.52,1.09,-0.42,-1.04,
1.297,-2.79,0.99,-2.52,1.11,-0.51,-1.01,
1.31,-2.79,0.99,-2.52,1.15,-0.69,-0.98,
1.311,-2.79,0.99,-2.52,1.16,-0.76,-0.96,
1.312,-2.79,0.99,-2.52,1.19,-0.92,-0.94,
1.312,-3.03,0.63,-1.21,1.19,-0.92,-0.94,
1.312,-3.03,0.63,-1.21,1.21,-1.09,-0.91,
1.312,-3.03,0.63,-1.21,1.24,-1.26,-0.90,
1.312,-3.03,0.63,-1.21,1.31,-1.45,-0.89,
1.313,-3.03,0.63,-1.21,1.33,-1.49,-0.89,
1.313,-3.03,0.63,-1.21,1.39,-1.54,-0.88,
1.323,-3.59,-0.17,-2.02,1.39,-1.54,-0.88,
1.323,-3.59,-0.17,-2.02,1.44,-1.54,-0.86,
1.324,-3.59,-0.17,-2.02,1.47,-1.52,-0.82,
1.324,-3.59,-0.17,-2.02,1.50,-1.47,-0.76,
1.324,-3.59,-0.17,-2.02,1.50,-1.45,-0.73,
1.324,-3.59,-0.17,-2.02,1.49,-1.42,-0.68,
1.324,-4.10,-0.77,-4.77,1.49,-1.42,-0.68,
1.325,-4.10,-0.77,-4.77,1.46,-1.37,-0.62,
1.327,-4.10,-0.77,-4.77,1.43,-1.33,-0.57,
1.331,-4.10,-0.77,-4.77,1.37,-1.25,-0.50,
1.332,-4.10,-0.77,-4.77,1.36,-1.21,-0.49,
1.333,-4.10,-0.77,-4.77,1.33,-1.15,-0.46,
1.335,-3.54,-1.15,-5.02,1.33,-1.15,-0.46,
1.336,-3.54,-1.15,-5.02,1.30,-1.07,-0.45,
1.339,-3.54,-1.15,-5.02,1.28,-0.98,-0.45,
1.34,-3.54,-1.15,-5.02,1.24,-0.86,-0.47,
1.341,-3.54,-1.15,-5.02,1.23,-0.83,-0.47,
1.343,-3.54,-1.15,-5.02,1.20,-0.78,-0.48,
1.345,-1.95,-1.63,-3.52,1.20,-0.78,-0.48,
1.346,-1.95,-1.63,-3.52,1.17,-0.75,-0.49,
1.349,-1.95,-1.63,-3.52,1.15,-0.72,-0.49,
1.353,-1.95,-1.63,-3.52,1.12,-0.69,-0.50,
1.354,-1.95,-1.63,-3.52,1.11,-0.69,-0.50,
1.355,-1.95,-1.63,-3.52,1.10,-0.70,-0.49,
1.356,-1.47,-1.58,-2.61,1.10,-0.70,-0.49,
1.356,-1.47,-1.58,-2.61,1.07,-0.72,-0.48,
1.357,-1.47,-1.58,-2.61,1.05,-0.76,-0.47,
1.36,-1.47,-1.58,-2.61,1.01,-0.79,-0.46,
1.361,-1.47,-1.58,-2.61,1.01,-0.79,-0.46,
1.365,-1.47,-1.58,-2.61,1.01,-0.80,-0.47,
1.366,-0.47,-0.66,-2.07,1.01,-0.80,-0.47,
1.369,-0.47,-0.66,-2.07,1.04,-0.81,-0.52,
1.369,-0.47,-0.66,-2.07,1.09,-0.80,-0.59,
1.37,-0.47,-0.66,-2.07,1.09,-0.80,-0.59,
1.371,-0.47,-0.66,-2.07,1.13,-0.79,-0.64,
1.373,-0.47,-0.66,-2.07,1.16,-0.78,-0.67,
1.375,1.90,0.07,0.32,1.16,-0.78,-0.67,
1.375,1.90,0.07,0.32,1.22,-0.77,-0.71,
1.377,1.90,0.07,0.32,1.26,-0.77,-0.74,
1.397,1.90,0.07,0.32,1.31,-0.80,-0.76,
1.399,1.90,0.07,0.32,1.33,-0.82,-0.76,
1.4,1.90,0.07,0.32,1.35,-0.88,-0.75,
1.401,1.49,-0.24,1.37,1.35,-0.88,-0.75,
1.401,1.49,-0.24,1.37,1.36,-0.94,-0.74,
1.402,1.49,-0.24,1.37,1.38,-0.99,-0.74,
1.403,1.49,-0.24,1.37,1.42,-1.04,-0.75,
1.403,1.49,-0.24,1.37,1.44,-1.06,-0.75,
1.403,1.49,-0.24,1.37,1.48,-1.06,-0.76,
1.404,1.08,0.20,1.36,1.48,-1.06,-0.76,
1.404,1.08,0.20,1.36,1.54,-1.05,-0.77,
1.404,1.08,0.20,1.36,1.60,-1.03,-0.78,
1.405,1.08,0.20,1.36,1.69,-1.03,-0.78,
1.405,1.08,0.20,1.36,1.72,-1.03,-0.79,
1.407,1.08,0.20,1.36,1.76,-1.04,-0.79,
1.436,0.83,0.05,2.01,1.76,-1.04,-0.79,
1.437,0.83,0.05,2.01,1.80,-1.03,-0.79,
1.437,0.83,0.05,2.01,1.84,-1.02,-0.78,
1.437,0.83,0.05,2.01,1.89,-1.00,-0.77,
1.438,0.83,0.05,2.01,1.90,-1.00,-0.77,
1.438,0.83,0.05,2.01,1.92,-0.99,-0.76,
1.439,0.26,-0.20,2.12,1.92,-0.99,-0.76,
1.439,0.26,-0.20,2.12,1.93,-0.99,-0.75,
1.44,0.26,-0.20,2.12,1.92,-0.99,-0.74,
1.44,0.26,-0.20,2.12,1.89,-0.97,-0.72,
1.44,0.26,-0.20,2.12,1.88,-0.97,-0.72,
1.441,0.26,-0.20,2.12,1.86,-0.95,-0.70,
1.441,-0.69,-0.38,0.62,1.86,-0.95,-0.70,
1.442,-0.69,-0.38,0.62,1.82,-0.92,-0.68,
1.442,-0.69,-0.38,0.62,1.79,-0.89,-0.66,
1.443,-0.69,-0.38,0.62,1.73,-0.83,-0.63,
1.443,-0.69,-0.38,0.62,1.71,-0.81,-0.62,
1.444,-0.69,-0.38,0.62,1.66,-0.76,-0.60,
1.444,-1.65,-0.50,-0.61,1.66,-0.76,-0.60,
1.444,-1.65,-0.50,-0.61,1.61,-0.72,-0.57,
1.445,-1.65,-0.50,-0.61,1.56,-0.67,-0.55,
1.445,-1.65,-0.50,-0.61,1.49,-0.60,-0.51,
1.446,-1.65,-0.50,-0.61,1.46,-0.58,-0.50,
1.446,-1.65,-0.50,-0.61,1.41,-0.55,-0.47,
1.447,-2.28,-0.80,-1.13,1.41,-0.55,-0.47,
1.447,-2.28,-0.80,-1.13,1.35,-0.52,-0.44,
1.447,-2.28,-0.80,-1.13,1.30,-0.50,-0.41,
1.453,-2.28,-0.80,-1.13,1.23,-0.46,-0.36,
1.455,-2.28,-0.80,-1.13,1.21,-0.46,-0.34,
1.455,-2.28,-0.80,-1.13,1.17,-0.44,-0.31,
1.456,-2.67,-1.02,-0.73,1.17,-0.44,-0.31,
1.456,-2.67,-1.02,-0.73,1.14,-0.43,-0.28,
1.457,-2.67,-1.02,-0.73,1.12,-0.42,-0.25,
1.46,-2.67,-1.02,-0.73,1.10,-0.42,-0.21,
1.461,-2.67,-1.02,-0.73,1.10,-0.41,-0.19,
1.469,-2.67,-1.02,-0.73,1.10,-0.41,-0.17,
1.469,-2.46,-0.78,0.41,1.10,-0.41,-0.17,
1.469,-2.46,-0.78,0.41,1.11,-0.41,-0.15,
1.47,-2.46,-0.78,0.41,1.11,-0.41,-0.13,
1.47,-2.46,-0.78,0.41,1.13,-0.43,-0.11,
1.473,-2.46,-0.78,0.41,1.14,-0.43,-0.10,
1.473,-2.46,-0.78,0.41,1.16,-0.44,-0.09,
1.477,-1.97,-0.65,1.32,1.16,-0.44,-0.09,
1.477,-1.97,-0.65,1.32,1.18,-0.46,-0.08,
1.478,-1.97,-0.65,1.32,1.21,-0.47,-0.07,
1.481,-1.97,-0.65,1.32,1.24,-0.49,-0.06,
1.481,-1.97,-0.65,1.32,1.25,-0.50,-0.06,
1.484,-1.97,-0.65,1.32,1.28,-0.51,-0.05,
1.485,-1.56,-0.51,1.55,1.28,-0.51,-0.05,
1.485,-1.56,-0.51,1.55,1.30,-0.52,-0.05,
1.487,-1.56,-0.51,1.55,1.32,-0.53,-0.04,
1.49,-1.56,-0.51,1.55,1.35,-0.53,-0.02,
1.491,-1.56,-0.51,1.55,1.36,-0.54,-0.02,
1.493,-1.56,-0.51,1.55,1.37,-0.54,-0.01,
1.496,-1.56,-0.38,1.18,1.37,-0.54,-0.01,
1.496,-1.56,-0.38,1.18,1.39,-0.53,0.00,
1.498,-1.56,-0.38,1.18,1.40,-0.52,0.01,
1.5,-1.56,-0.38,1.18,1.41,-0.52,0.04,
1.502,-1.56,-0.38,1.18,1.40,-0.51,0.05,
1.503,-1.56,-0.38,1.18,1.39,-0.50,0.07,
1.505,-2.00,-0.29,0.35,1.39,-0.50,0.07,
1.505,-2.00,-0.29,0.35,1.38,-0.48,0.10,
1.507,-2.00,-0.29,0.35,1.36,-0.46,0.12,
1.509,-2.00,-0.29,0.35,1.31,-0.44,0.17,
1.51,-2.00,-0.29,0.35,1.28,-0.44,0.18,
1.527,-2.00,-0.29,0.35,1.22,-0.44,0.21,
1.53,-2.61,-0.21,-1.53,1.22,-0.44,0.21,
1.531,-2.61,-0.21,-1.53,1.13,-0.46,0.24,
1.531,-2.61,-0.21,-1.53,1.02,-0.48,0.28,
1.531,-2.61,-0.21,-1.53,0.81,-0.47,0.35,
1.532,-2.61,-0.21,-1.53,0.74,-0.46,0.37,
1.532,-2.61,-0.21,-1.53,0.60,-0.43,0.42,
1.532,-4.03,-0.15,-5.66,0.60,-0.43,0.42,
1.533,-4.03,-0.15,-5.66,0.46,-0.39,0.47,
1.533,-4.03,-0.15,-5.66,0.33,-0.35,0.53,
1.533,-4.03,-0.15,-5.66,0.17,-0.28,0.60,
1.534,-4.03,-0.15,-5.66,0.13,-0.26,0.62,
1.534,-4.03,-0.15,-5.66,0.06,-0.20,0.65,
1.554,-3.87,-0.35,-5.32,0.06,-0.20,0.65,
1.554,-3.87,-0.35,-5.32,0.01,-0.13,0.67,
1.554,-3.87,-0.35,-5.32,-0.01,-0.07,0.67,
1.555,-3.87,-0.35,-5.32,-0.00,-0.01,0.66,
1.555,-3.87,-0.35,-5.32,0.01,0.01,0.65,
1.555,-3.87,-0.35,-5.32,0.04,0.02,0.62,
1.556,-1.55,-0.47,-0.99,0.04,0.02,0.62,
1.556,-1.55,-0.47,-0.99,0.09,0.00,0.59,
1.556,-1.55,-0.47,-0.99,0.11,-0.01,0.57,
1.557,-1.55,-0.47,-0.99,0.17,-0.06,0.55,
1.557,-1.55,-0.47,-0.99,0.19,-0.07,0.54,
1.557,-1.55,-0.47,-0.99,0.24,-0.11,0.52,
1.558,-1.02,-0.35,1.29,0.24,-0.11,0.52,
1.558,-1.02,-0.35,1.29,0.30,-0.14,0.50,
1.558,-1.02,-0.35,1.29,0.34,-0.17,0.50,
1.56,-1.02,-0.35,1.29,0.42,-0.20,0.50,
1.561,-1.02,-0.35,1.29,0.44,-0.22,0.50,
1.565,-1.02,-0.35,1.29,0.48,-0.23,0.51,
1.566,-1.37,-0.18,1.43,0.48,-0.23,0.51,
1.566,-1.37,-0.18,1.43,0.52,-0.24,0.51,
1.567,-1.37,-0.18,1.43,0.55,-0.23,0.52,
1.57,-1.37,-0.18,1.43,0.59,-0.23,0.54,
1.599,-1.37,-0.18,1.43,0.60,-0.22,0.54,
1.599,-1.37,-0.18,1.43,0.62,-0.21,0.55,
1.6,-1.55,-0.19,0.36,0.62,-0.21,0.55,
1.6,-1.55,-0.19,0.36,0.64,-0.20,0.56,
1.6,-1.55,-0.19,0.36,0.65,-0.20,0.58,
1.601,-1.55,-0.19,0.36,0.65,-0.19,0.60,
1.601,-1.55,-0.19,0.36,0.65,-0.19,0.60,
1.602,-1.55,-0.19,0.36,0.65,-0.19,0.62,
1.602,-1.66,0.40,-0.65,0.65,-0.19,0.62,
1.603,-1.66,0.40,-0.65,0.65,-0.19,0.65,
1.603,-1.66,0.40,-0.65,0.66,-0.18,0.68,
1.604,-1.66,0.40,-0.65,0.67,-0.18,0.72,
1.604,-1.66,0.40,-0.65,0.67,-0.18,0.74,
1.604,-1.66,0.40,-0.65,0.68,-0.18,0.77,
1.605,-1.81,0.97,-0.55,0.68,-0.18,0.77,
1.605,-1.81,0.97,-0.55,0.69,-0.19,0.81,
1.606,-1.81,0.97,-0.55,0.71,-0.19,0.83,
1.606,-1.81,0.97,-0.55,0.73,-0.20,0.87,
1.606,-1.81,0.97,-0.55,0.73,-0.21,0.88,
1.607,-1.81,0.97,-0.55,0.75,-0.23,0.92,
1.607,-1.63,0.97,-0.24,0.75,-0.23,0.92,
1.608,-1.63,0.97,-0.24,0.76,-0.25,0.95,
1.608,-1.63,0.97,-0.24,0.77,-0.28,0.99,
1.61,-1.63,0.97,-0.24,0.79,-0.32,1.04,
1.611,-1.63,0.97,-0.24,0.80,-0.33,1.06,
1.617,-1.63,0.97,-0.24,0.81,-0.36,1.09,
1.618,-1.68,0.91,-0.18,0.81,-0.36,1.09,
1.618,-1.68,0.91,-0.18,0.82,-0.38,1.14,
1.619,-1.68,0.91,-0.18,0.83,-0.40,1.18,
1.62,-1.68,0.91,-0.18,0.85,-0.44,1.25,
1.621,-1.68,0.91,-0.18,0.86,-0.46,1.27,
1.623,-1.68,0.91,-0.18,0.87,-0.49,1.31,
1.624,-2.49,1.12,0.15,0.87,-0.49,1.31,
1.625,-2.49,1.12,0.15,0.89,-0.52,1.36,
1.626,-2.49,1.12,0.15,0.90,-0.57,1.41,
1.63,-2.49,1.12,0.15,0.93,-0.65,1.48,
1.631,-2.49,1.12,0.15,0.94,-0.68,1.50,
1.632,-2.49,1.12,0.15,0.95,-0.73,1.55,
1.635,-2.78,0.84,0.73,0.95,-0.73,1.55,
1.635,-2.78,0.84,0.73,0.95,-0.78,1.59,
1.637,-2.78,0.84,0.73,0.95,-0.81,1.64,
1.64,-2.78,0.84,0.73,0.94,-0.86,1.70,
1.641,-2.78,0.84,0.73,0.94,-0.87,1.71,
1.643,-2.78,0.84,0.73,0.94,-0.88,1.75,
1.645,-2.41,0.60,0.46,0.94,-0.88,1.75,
1.645,-2.41,0.60,0.46,0.94,-0.90,1.77,
1.659,-2.41,0.60,0.46,0.93,-0.92,1.81,
1.66,-2.41,0.60,0.46,0.91,-0.95,1.86,
1.66,-2.41,0.60,0.46,0.90,-0.95,1.87,
1.66,-2.41,0.60,0.46,0.90,-0.97,1.88,
1.661,-1.74,0.54,0.28,0.90,-0.97,1.88,
1.661,-1.74,0.54,0.28,0.88,-0.99,1.88,
1.661,-1.74,0.54,0.28,0.85,-1.01,1.83,
1.661,-1.74,0.54,0.28,0.84,-0.96,1.61,
1.661,-1.74,0.54,0.28,0.84,-0.93,1.54,
1.684,-1.74,0.54,0.28,0.84,-0.87,1.42,
1.685,3.79,1.02,-0.02,0.84,-0.87,1.42,
1.686,3.79,1.02,-0.02,0.84,-0.83,1.38,
1.686,3.79,1.02,-0.02,0.83,-0.80,1.41,
1.686,3.79,1.02,-0.02,0.78,-0.78,1.50,
1.687,3.79,1.02,-0.02,0.76,-0.77,1.54,
1.687,3.79,1.02,-0.02,0.70,-0.76,1.64,
1.687,-1.59,2.51,-1.06,0.70,-0.76,1.64,
1.688,-1.59,2.51,-1.06,0.65,-0.76,1.76,
1.688,-1.59,2.51,-1.06,0.59,-0.77,1.81,
1.688,-1.59,2.51,-1.06,0.50,-0.77,1.80,
1.689,-1.59,2.51,-1.06,0.49,-0.77,1.80,
1.689,-1.59,2.51,-1.06,0.46,-0.76,1.81,
1.689,-0.34,1.33,-1.50,0.46,-0.76,1.81,
1.69,-0.34,1.33,-1.50,0.46,-0.73,1.84,
1.69,-0.34,1.33,-1.50,0.48,-0.73,1.84,
1.69,-0.34,1.33,-1.50,0.49,-0.75,1.85,
1.691,-0.34,1.33,-1.50,0.50,-0.76,1.85,
1.693,-0.34,1.33,-1.50,0.52,-0.76,1.86,
1.696,-0.17,0.33,0.72,0.52,-0.76,1.86,
1.697,-0.17,0.33,0.72,0.55,-0.76,1.90,
1.698,-0.17,0.33,0.72,0.60,-0.77,1.91,
1.701,-0.17,0.33,0.72,0.67,-0.78,1.91,
1.701,-0.17,0.33,0.72,0.73,-0.79,1.90,
1.703,-0.17,0.33,0.72,0.77,-0.80,1.90,
1.705,1.13,-0.04,2.86,0.77,-0.80,1.90,
1.705,1.13,-0.04,2.86,0.84,-0.81,1.86,
1.707,1.13,-0.04,2.86,0.92,-0.83,1.83,
1.71,1.13,-0.04,2.86,1.01,-0.88,1.75,
1.711,1.13,-0.04,2.86,1.03,-0.91,1.75,
1.713,1.13,-0.04,2.86,1.07,-0.99,1.79,
1.716,0.97,-0.19,2.94,1.07,-0.99,1.79,
1.716,0.97,-0.19,2.94,1.09,-1.04,1.82,
1.718,0.97,-0.19,2.94,1.11,-1.08,1.85,
1.72,0.97,-0.19,2.94,1.14,-1.11,1.92,
1.721,0.97,-0.19,2.94,1.14,-1.12,1.94,
1.723,0.97,-0.19,2.94,1.15,-1.12,1.99,
1.724,-0.93,-0.21,1.18,1.15,-1.12,1.99,
1.725,-0.93,-0.21,1.18,1.15,-1.09,2.03,
1.727,-0.93,-0.21,1.18,1.16,-1.04,2.07,
1.73,-0.93,-0.21,1.18,1.18,-0.98,2.14,
1.731,-0.93,-0.21,1.18,1.16,-0.97,2.17,
1.733,-0.93,-0.21,1.18,1.13,-0.93,2.22,
1.735,-0.96,-0.66,-0.19,1.13,-0.93,2.22,
1.736,-0.96,-0.66,-0.19,1.10,-0.87,2.28,
1.772,-0.96,-0.66,-0.19,1.07,-0.79,2.34,
1.772,-0.96,-0.66,-0.19,1.01,-0.69,2.44,
1.773,-0.96,-0.66,-0.19,0.98,-0.66,2.50,
1.773,-0.96,-0.66,-0.19,0.94,-0.60,2.60,
1.774,-2.31,-1.54,-0.79,0.94,-0.60,2.60,
1.774,-2.31,-1.54,-0.79,0.89,-0.53,2.69,
1.775,-2.31,-1.54,-0.79,0.85,-0.46,2.77,
1.775,-2.31,-1.54,-0.79,0.79,-0.34,2.87,
1.776,-2.31,-1.54,-0.79,0.76,-0.27,2.95,
1.777,-2.31,-1.54,-0.79,0.75,-0.23,2.98,
1.777,-1.69,-2.25,-0.37,0.75,-0.23,2.98,
1.778,-1.69,-2.25,-0.37,0.72,-0.14,3.04,
1.778,-1.69,-2.25,-0.37,0.70,-0.04,3.11,
1.779,-1.69,-2.25,-0.37,0.66,0.09,3.20,
1.779,-1.69,-2.25,-0.37,0.64,0.13,3.23,
1.78,-1.69,-2.25,-0.37,0.61,0.21,3.29,
1.78,-0.78,-1.94,0.09,0.61,0.21,3.29,
1.781,-0.78,-1.94,0.09,0.58,0.30,3.35,
1.781,-0.78,-1.94,0.09,0.54,0.37,3.42,
1.782,-0.78,-1.94,0.09,0.46,0.44,3.48,
1.782,-0.78,-1.94,0.09,0.42,0.46,3.50,
1.783,-0.78,-1.94,0.09,0.36,0.51,3.54,
1.783,0.30,-1.71,-0.62,0.36,0.51,3.54,
1.784,0.30,-1.71,-0.62,0.29,0.55,3.56,
1.785,0.30,-1.71,-0.62,0.22,0.60,3.57,
1.785,0.30,-1.71,-0.62,0.10,0.68,3.56,
1.785,0.30,-1.71,-0.62,0.04,0.77,3.55,
1.786,0.30,-1.71,-0.62,0.01,0.82,3.56,
1.786,2.28,-0.94,-0.76,0.01,0.82,3.56,
1.787,2.28,-0.94,-0.76,-0.05,0.92,3.57,
1.787,2.28,-0.94,-0.76,-0.11,1.05,3.58,
1.797,2.28,-0.94,-0.76,-0.19,1.31,3.59,
1.798,2.28,-0.94,-0.76,-0.22,1.39,3.60,
1.799,2.28,-0.94,-0.76,-0.29,1.51,3.62,
1.799,1.70,-0.38,0.60,-0.29,1.51,3.62,
1.799,1.70,-0.38,0.60,-0.36,1.61,3.65,
1.8,1.70,-0.38,0.60,-0.44,1.72,3.66,
1.8,1.70,-0.38,0.60,-0.58,1.91,3.65,
1.801,1.70,-0.38,0.60,-0.64,1.94,3.66,
1.806,1.70,-0.38,0.60,-0.71,1.99,3.68,
1.806,0.52,0.53,0.80,-0.71,1.99,3.68,
1.806,0.52,0.53,0.80,-0.79,2.00,3.73,
1.807,0.52,0.53,0.80,-0.89,1.99,3.80,
1.81,0.52,0.53,0.80,-0.98,1.91,3.95,
1.811,0.52,0.53,0.80,-1.06,1.83,4.06,
1.818,0.52,0.53,0.80,-1.10,1.79,4.11,
1.819,-2.40,-1.27,-0.01,-1.10,1.79,4.11,
1.819,-2.40,-1.27,-0.01,-1.22,1.73,4.20,
1.82,-2.40,-1.27,-0.01,-1.35,1.67,4.28,
1.82,-2.40,-1.27,-0.01,-1.50,1.55,4.44,
1.821,-2.40,-1.27,-0.01,-1.52,1.49,4.51,
1.824,-2.40,-1.27,-0.01,-1.51,1.37,4.63,
1.826,-4.00,-4.09,0.50,-1.51,1.37,4.63,
1.826,-4.00,-4.09,0.50,-1.46,1.27,4.75,
1.827,-4.00,-4.09,0.50,-1.37,1.20,4.84,
1.835,-4.00,-4.09,0.50,-1.23,1.08,4.91,
1.836,-4.00,-4.09,0.50,-1.15,1.02,4.91,
1.837,-4.00,-4.09,0.50,-1.11,1.00,4.88,
1.837,0.11,-1.17,4.16,-1.11,1.00,4.88,
1.837,0.11,-1.17,4.16,-1.07,0.98,4.80,
1.838,0.11,-1.17,4.16,-1.05,1.01,4.67,
1.84,0.11,-1.17,4.16,-1.10,1.12,4.41,
1.841,0.11,-1.17,4.16,-1.13,1.16,4.32,
1.843,0.11,-1.17,4.16,-1.20,1.26,4.12,
1.85,6.66,-2.48,-0.15,-1.20,1.26,4.12,
1.852,6.66,-2.48,-0.15,-1.30,1.36,3.94,
1.853,6.66,-2.48,-0.15,-1.40,1.45,3.80,
1.854,6.66,-2.48,-0.15,-1.58,1.57,3.66,
1.854,6.66,-2.48,-0.15,-1.64,1.60,3.63,
1.855,6.66,-2.48,-0.15,-1.75,1.67,3.60,
1.857,2.53,-4.01,-2.79,-1.75,1.67,3.60,
1.858,2.53,-4.01,-2.79,-1.84,1.74,3.59,
1.858,2.53,-4.01,-2.79,-1.92,1.79,3.59,
1.86,2.53,-4.01,-2.79,-2.02,1.87,3.61,
1.861,2.53,-4.01,-2.79,-2.07,1.97,3.63,
1.865,2.53,-4.01,-2.79,-2.08,2.03,3.65,
1.867,-3.17,-3.34,-1.72,-2.08,2.03,3.65,
1.868,-3.17,-3.34,-1.72,-2.09,2.14,3.68,
1.87,-3.17,-3.34,-1.72,-2.10,2.18,3.72,
1.871,-3.17,-3.34,-1.72,-2.13,2.06,3.76,
1.872,-3.17,-3.34,-1.72,-2.13,1.99,3.77,
1.874,-3.17,-3.34,-1.72,-2.13,1.81,3.79,
1.875,-4.67,-1.20,0.08,-2.13,1.81,3.79,
1.876,-4.67,-1.20,0.08,-2.09,1.63,3.81,
1.877,-4.67,-1.20,0.08,-2.02,1.44,3.81,
1.882,-4.67,-1.20,0.08,-1.86,1.16,3.81,
1.883,-4.67,-1.20,0.08,-1.80,1.07,3.81,
1.884,-4.67,-1.20,0.08,-1.65,0.89,3.80,
1.885,-2.87,0.73,2.69,-1.65,0.89,3.80,
1.885,-2.87,0.73,2.69,-1.48,0.70,3.77,
1.887,-2.87,0.73,2.69,-1.30,0.51,3.73,
1.89,-2.87,0.73,2.69,-1.00,0.22,3.64,
1.891,-2.87,0.73,2.69,-0.79,0.02,3.56,
1.893,-2.87,0.73,2.69,-0.68,-0.07,3.53,
1.897,-0.30,1.60,4.70,-0.68,-0.07,3.53,
1.9,-0.30,1.60,4.70,-0.37,-0.35,3.40,
1.902,-0.30,1.60,4.70,-0.18,-0.53,3.32,
1.903,-0.30,1.60,4.70,-0.01,-0.70,3.23,
1.905,-0.30,1.60,4.70,0.08,-0.77,3.19,
1.906,-0.30,1.60,4.70,0.24,-0.90,3.09,
1.94,0.77,2.02,2.81,0.24,-0.90,3.09,
1.941,0.77,2.02,2.81,0.38,-1.00,3.00,
1.941,0.77,2.02,2.81,0.50,-1.06,2.92,
1.942,0.77,2.02,2.81,0.63,-1.11,2.82,
1.942,0.77,2.02,2.81,0.68,-1.13,2.79,
1.943,0.77,2.02,2.81,0.70,-1.12,2.77,
1.944,-0.43,2.55,-0.05,0.70,-1.12,2.77,
1.944,-0.43,2.55,-0.05,0.72,-1.11,2.75,
1.945,-0.43,2.55,-0.05,0.71,-1.06,2.73,
1.946,-0.43,2.55,-0.05,0.69,-0.95,2.71,
1.947,-0.43,2.55,-0.05,0.65,-0.87,2.70,
1.947,-0.43,2.55,-0.05,0.63,-0.82,2.69,
1.948,-1.09,2.83,-1.89,0.63,-0.82,2.69,
1.949,-1.09,2.83,-1.89,0.58,-0.71,2.66,
1.949,-1.09,2.83,-1.89,0.52,-0.58,2.64,
1.95,-1.09,2.83,-1.89,0.43,-0.40,2.59,
1.95,-1.09,2.83,-1.89,0.37,-0.29,2.54,
1.95,-1.09,2.83,-1.89,0.33,-0.24,2.51,
1.951,0.09,2.73,-2.24,0.33,-0.24,2.51,
1.951,0.09,2.73,-2.24,0.27,-0.16,2.47,
1.952,0.09,2.73,-2.24,0.20,-0.11,2.43,
1.952,0.09,2.73,-2.24,0.11,0.02,2.38,
1.952,0.09,2.73,-2.24,0.07,0.17,2.36,
1.953,0.09,2.73,-2.24,0.04,0.22,2.35,
1.953,-0.38,3.78,-1.13,0.04,0.22,2.35,
1.954,-0.38,3.78,-1.13,-0.04,0.32,2.34,
1.954,-0.38,3.78,-1.13,-0.12,0.41,2.34,
1.954,-0.38,3.78,-1.13,-0.23,0.54,2.31,
1.955,-0.38,3.78,-1.13,-0.30,0.60,2.29,
1.955,-0.38,3.78,-1.13,-0.33,0.63,2.27,
1.955,0.90,3.37,-1.05,-0.33,0.63,2.27,
1.956,0.90,3.37,-1.05,-0.39,0.68,2.24,
1.956,0.90,3.37,-1.05,-0.44,0.71,2.21,
1.963,0.90,3.37,-1.05,-0.49,0.72,2.16,
1.964,0.90,3.37,-1.05,-0.51,0.70,2.11,
1.964,0.90,3.37,-1.05,-0.52,0.69,2.08,
1.965,2.28,2.17,0.85,-0.52,0.69,2.08,
1.965,2.28,2.17,0.85,-0.52,0.66,2.02,
1.985,2.28,2.17,0.85,-0.50,0.64,1.95,
1.985,2.28,2.17,0.85,-0.47,0.57,1.83,
1.985,2.28,2.17,0.85,-0.44,0.52,1.74,
1.986,2.28,2.17,0.85,-0.43,0.49,1.69,
1.986,3.62,-0.13,2.68,-0.43,0.49,1.69,
1.986,3.62,-0.13,2.68,-0.41,0.44,1.59,
1.987,3.62,-0.13,2.68,-0.39,0.37,1.49,
1.987,3.62,-0.13,2.68,-0.37,0.27,1.33,
1.987,3.62,-0.13,2.68,-0.36,0.20,1.22,
1.988,3.62,-0.13,2.68,-0.36,0.16,1.17,
1.988,4.28,-2.63,1.37,-0.36,0.16,1.17,
1.988,4.28,-2.63,1.37,-0.36,0.09,1.07,
1.989,4.28,-2.63,1.37,-0.35,0.03,0.99,
2.0,4.28,-2.63,1.37,-0.36,-0.06,0.90,
2.001,4.28,-2.63,1.37,-0.36,-0.12,0.86,
2.001,4.28,-2.63,1.37,-0.37,-0.16,0.86,
2.002,3.18,-3.87,0.79,-0.37,-0.16,0.86,
2.002,3.18,-3.87,0.79,-0.39,-0.23,0.86,
2.002,3.18,-3.87,0.79,-0.41,-0.31,0.88,
2.003,3.18,-3.87,0.79,-0.45,-0.42,0.90,
2.003,3.18,-3.87,0.79,-0.49,-0.49,0.92,
2.014,3.18,-3.87,0.79,-0.51,-0.52,0.92,
2.016,1.78,-5.91,0.57,-0.51,-0.52,0.92,
2.017,1.78,-5.91,0.57,-0.56,-0.61,0.93,
2.017,1.78,-5.91,0.57,-0.62,-0.71,0.93,
2.018,1.78,-5.91,0.57,-0.70,-0.91,0.98,
2.018,1.78,-5.91,0.57,-0.76,-1.07,1.01,
2.018,1.78,-5.91,0.57,-0.80,-1.16,1.04,
2.019,0.64,-6.37,0.45,-0.80,-1.16,1.04,
2.019,0.64,-6.37,0.45,-0.85,-1.38,1.10,
2.019,0.64,-6.37,0.45,-0.89,-1.61,1.18,
2.028,0.64,-6.37,0.45,-0.93,-1.95,1.29,
2.028,0.64,-6.37,0.45,-0.96,-2.19,1.35,
2.029,0.64,-6.37,0.45,-0.96,-2.32,1.38,
2.029,-0.53,-3.77,1.87,-0.96,-2.32,1.38,
2.029,-0.53,-3.77,1.87,-0.97,-2.58,1.42,
2.03,-0.53,-3.77,1.87,-0.97,-2.85,1.45,
2.03,-0.53,-3.77,1.87,-0.96,-3.27,1.48,
2.048,-0.53,-3.77,1.87,-0.94,-3.54,1.49,
2.05,-0.53,-3.77,1.87,-0.93,-3.68,1.50,
2.051,-0.13,-1.51,2.60,-0.93,-3.68,1.50,
2.051,-0.13,-1.51,2.60,-0.91,-3.95,1.52,
2.052,-0.13,-1.51,2.60,-0.89,-4.21,1.55,
2.053,-0.13,-1.51,2.60,-0.85,-4.49,1.58,
2.053,-0.13,-1.51,2.60,-0.80,-4.57,1.60,
2.054,-0.13,-1.51,2.60,-0.78,-4.58,1.61,
2.055,-0.45,-0.90,0.73,-0.78,-4.58,1.61,
2.056,-0.45,-0.90,0.73,-0.72,-4.53,1.62,
2.056,-0.45,-0.90,0.73,-0.67,-4.34,1.66,
2.057,-0.45,-0.90,0.73,-0.72,-3.52,1.88,
2.058,-0.45,-0.90,0.73,-0.74,-2.95,2.00,
2.058,-0.45,-0.90,0.73,-0.74,-2.68,2.04,
2.059,-3.18,-4.61,-4.09,-0.74,-2.68,2.04,
2.06,-3.18,-4.61,-4.09,-0.71,-2.18,2.12,
2.061,-3.18,-4.61,-4.09,-0.66,-1.71,2.15,
2.062,-3.18,-4.61,-4.09,-0.55,-1.08,2.16,
2.063,-3.18,-4.61,-4.09,-0.44,-0.69,2.13,
2.067,-3.18,-4.61,-4.09,-0.39,-0.50,2.10,
2.068,-0.05,-4.09,-3.59,-0.39,-0.50,2.10,
2.068,-0.05,-4.09,-3.59,-0.28,-0.13,2.03,
2.069,-0.05,-4.09,-3.59,-0.17,0.21,1.94,
2.07,-0.05,-4.09,-3.59,0.00,0.57,1.79,
2.105,-0.05,-4.09,-3.59,0.11,0.71,1.66,
2.105,-0.05,-4.09,-3.59,0.16,0.75,1.60,
2.105,2.89,-2.26,-0.94,0.16,0.75,1.60,
2.106,2.89,-2.26,-0.94,0.27,0.78,1.48,
2.106,2.89,-2.26,-0.94,0.36,0.75,1.35,
2.107,2.89,-2.26,-0.94,0.50,0.61,1.16,
2.107,2.89,-2.26,-0.94,0.57,0.47,1.04,
2.108,2.89,-2.26,-0.94,0.61,0.39,0.98,
2.108,3.63,-0.94,1.21,0.61,0.39,0.98,
2.109,3.63,-0.94,1.21,0.67,0.23,0.86,
2.109,3.63,-0.94,1.21,0.72,0.07,0.76,
2.109,3.63,-0.94,1.21,0.78,-0.17,0.62,
2.11,3.63,-0.94,1.21,0.79,-0.31,0.54,
2.11,3.63,-0.94,1.21,0.80,-0.37,0.50,
2.111,2.61,-0.56,1.74,0.80,-0.37,0.50,
2.111,2.61,-0.56,1.74,0.79,-0.49,0.43,
2.112,2.61,-0.56,1.74,0.78,-0.58,0.37,
2.112,2.61,-0.56,1.74,0.73,-0.67,0.31,
2.112,2.61,-0.56,1.74,0.68,-0.71,0.27,
2.113,2.61,-0.56,1.74,0.65,-0.73,0.25,
2.113,1.11,-0.54,0.76,0.65,-0.73,0.25,
2.114,1.11,-0.54,0.76,0.59,-0.74,0.23,
2.114,1.11,-0.54,0.76,0.53,-0.75,0.20,
2.115,1.11,-0.54,0.76,0.42,-0.75,0.17,
2.115,1.11,-0.54,0.76,0.36,-0.73,0.16,
2.115,1.11,-0.54,0.76,0.32,-0.72,0.15,
2.116,0.50,-0.46,-0.09,0.32,-0.72,0.15,
2.116,0.50,-0.46,-0.09,0.23,-0.68,0.12,
2.117,0.50,-0.46,-0.09,0.17,-0.66,0.11,
2.127,0.50,-0.46,-0.09,0.12,-0.64,0.10,
2.128,0.50,-0.46,-0.09,0.08,-0.62,0.09,
2.128,0.50,-0.46,-0.09,0.04,-0.60,0.08,
2.129,0.45,-0.36,-0.05,0.04,-0.60,0.08,
2.129,0.45,-0.36,-0.05,0.02,-0.59,0.07,
2.13,0.45,-0.36,-0.05,0.00,-0.57,0.07,
2.13,0.45,-0.36,-0.05,-0.00,-0.55,0.06,
2.13,0.45,-0.36,-0.05,0.00,-0.54,0.05,
2.154,0.45,-0.36,-0.05,0.01,-0.53,0.05,
2.155,0.28,-0.27,0.25,0.01,-0.53,0.05,
2.155,0.28,-0.27,0.25,0.02,-0.52,0.04,
2.155,0.28,-0.27,0.25,0.04,-0.51,0.04,
2.156,0.28,-0.27,0.25,0.08,-0.50,0.03,
2.156,0.28,-0.27,0.25,0.09,-0.49,0.02,
2.157,0.28,-0.27,0.25,0.13,-0.47,0.01,
2.157,0.13,-0.30,0.25,0.13,-0.47,0.01,
2.157,0.13,-0.30,0.25,0.16,-0.46,0.01,
2.158,0.13,-0.30,0.25,0.20,-0.44,-0.00,
2.158,0.13,-0.30,0.25,0.23,-0.43,-0.01,
2.158,0.13,-0.30,0.25,0.27,-0.41,-0.02,
2.159,0.13,-0.30,0.25,0.30,-0.40,-0.03,
2.159,-0.08,-0.44,0.08,0.30,-0.40,-0.03,
2.16,-0.08,-0.44,0.08,0.33,-0.38,-0.04,
2.16,-0.08,-0.44,0.08,0.35,-0.37,-0.05,
2.17,-0.08,-0.44,0.08,0.38,-0.36,-0.05,
2.17,-0.08,-0.44,0.08,0.39,-0.35,-0.06,
2.171,-0.08,-0.44,0.08,0.41,-0.35,-0.06,
2.171,-0.34,-0.55,-0.05,0.41,-0.35,-0.06,
2.171,-0.34,-0.55,-0.05,0.42,-0.34,-0.06,
2.172,-0.34,-0.55,-0.05,0.42,-0.33,-0.06,
2.172,-0.34,-0.55,-0.05,0.41,-0.29,-0.05,
2.172,-0.34,-0.55,-0.05,0.38,-0.23,-0.04,
2.173,-0.34,-0.55,-0.05,0.35,-0.16,-0.02,
2.175,-0.68,-0.95,-0.43,0.35,-0.16,-0.02,
2.176,-0.68,-0.95,-0.43,0.30,-0.11,-0.01,
2.184,-0.68,-0.95,-0.43,0.26,-0.05,0.00,
2.185,-0.68,-0.95,-0.43,0.21,0.00,0.01,
2.185,-0.68,-0.95,-0.43,0.15,0.11,0.02,
2.186,-0.68,-0.95,-0.43,0.07,0.23,0.03,
2.186,-0.63,-1.23,-0.49,0.07,0.23,0.03,
2.186,-0.63,-1.23,-0.49,-0.01,0.30,0.03,
2.187,-0.63,-1.23,-0.49,-0.07,0.26,0.02,
2.193,-0.63,-1.23,-0.49,-0.10,0.15,0.01,
2.193,-0.63,-1.23,-0.49,-0.11,0.00,-0.00,
2.209,-0.63,-1.23,-0.49,-0.11,-0.14,-0.01,
2.21,-0.35,-0.83,0.44,-0.11,-0.14,-0.01,
2.21,-0.35,-0.83,0.44,-0.09,-0.26,-0.00,
2.211,-0.35,-0.83,0.44,-0.07,-0.35,0.00,
2.211,-0.35,-0.83,0.44,-0.05,-0.39,0.01,
2.211,-0.35,-0.83,0.44,-0.02,-0.41,0.02,
2.212,-0.35,-0.83,0.44,0.01,-0.40,0.03,
2.212,-1.18,-1.12,0.65,0.01,-0.40,0.03,
2.212,-1.18,-1.12,0.65,0.04,-0.36,0.03,
2.212,-1.18,-1.12,0.65,0.07,-0.31,0.04,
2.213,-1.18,-1.12,0.65,0.09,-0.25,0.03,
2.213,-1.18,-1.12,0.65,0.11,-0.18,0.03,
2.213,-1.18,-1.12,0.65,0.13,-0.11,0.03,
2.215,-0.92,-1.16,0.31,0.13,-0.11,0.03,
2.215,-0.92,-1.16,0.31,0.14,-0.05,0.02,
2.218,-0.92,-1.16,0.31,0.15,-0.02,0.01,
2.22,-0.92,-1.16,0.31,0.16,-0.04,-0.00,
2.221,-0.92,-1.16,0.31,0.17,-0.06,-0.01,
2.223,-0.92,-1.16,0.31,0.18,-0.07,-0.01,
2.228,-0.62,-1.03,0.43,0.18,-0.07,-0.01,
2.232,-0.62,-1.03,0.43,0.17,-0.07,0.00,
2.233,-0.62,-1.03,0.43,0.17,-0.07,0.01,
2.233,-0.62,-1.03,0.43,0.16,-0.06,0.02,
2.234,-0.62,-1.03,0.43,0.14,-0.05,0.03,
2.234,-0.62,-1.03,0.43,0.12,-0.03,0.04,
2.236,-1.24,-0.92,0.31,0.12,-0.03,0.04,
2.237,-1.24,-0.92,0.31,0.07,-0.01,0.04,
2.28,-1.24,-0.92,0.31,-0.02,0.00,0.01,
2.281,-1.24,-0.92,0.31,-0.13,0.00,-0.02,
2.281,-1.24,-0.92,0.31,-0.28,-0.01,-0.04,
2.282,-1.24,-0.92,0.31,-0.46,-0.05,0.02,
2.282,-2.17,3.03,-0.81,-0.46,-0.05,0.02,
2.283,-2.17,3.03,-0.81,-0.78,-0.13,0.21,
2.283,-2.17,3.03,-0.81,-0.91,-0.16,0.27,
2.284,-2.17,3.03,-0.81,-1.16,-0.23,0.39,
2.284,-2.17,3.03,-0.81,-1.41,-0.30,0.50,
2.285,-2.17,3.03,-0.81,-1.66,-0.36,0.59,
2.286,-2.98,6.46,-1.52,-1.66,-0.36,0.59,
2.287,-2.98,6.46,-1.52,-1.88,-0.40,0.67,
2.288,-2.98,6.46,-1.52,-2.06,-0.43,0.72,
2.288,-2.98,6.46,-1.52,-2.19,-0.43,0.75,
2.289,-2.98,6.46,-1.52,-2.28,-0.40,0.76,
2.289,-2.98,6.46,-1.52,-2.31,-0.35,0.75,
2.29,-1.82,4.67,-0.00,-2.31,-0.35,0.75,
2.291,-1.82,4.67,-0.00,-2.30,-0.29,0.72,
2.292,-1.82,4.67,-0.00,-2.24,-0.19,0.69,
2.293,-1.82,4.67,-0.00,-2.15,-0.08,0.66,
2.293,-1.82,4.67,-0.00,-2.04,0.06,0.63,
2.296,-1.82,4.67,-0.00,-1.89,0.22,0.62,
2.298,-1.51,1.82,1.17,-1.89,0.22,0.62,
2.3,-1.51,1.82,1.17,-1.72,0.39,0.62,
2.301,-1.51,1.82,1.17,-1.54,0.55,0.65,
2.301,-1.51,1.82,1.17,-1.37,0.69,0.69,
2.302,-1.51,1.82,1.17,-1.21,0.80,0.77,
2.302,-1.51,1.82,1.17,-1.06,0.93,0.87,
2.302,-2.36,2.92,1.26,-1.06,0.93,0.87,
2.303,-2.36,2.92,1.26,-0.95,1.20,1.02,
2.303,-2.36,2.92,1.26,-0.90,1.80,1.18,
2.306,-2.36,2.92,1.26,-0.85,2.89,1.34,
2.307,-2.36,2.92,1.26,-0.83,3.14,1.38,
2.307,-2.36,2.92,1.26,-0.74,3.37,1.48,
2.308,-1.96,2.93,0.83,-0.74,3.37,1.48,
2.308,-1.96,2.93,0.83,-0.60,3.26,1.58,
2.308,-1.96,2.93,0.83,-0.43,2.93,1.70,
2.309,-1.96,2.93,0.83,-0.27,2.50,1.82,
2.309,-1.96,2.93,0.83,-0.12,2.03,1.93,
2.31,-1.96,2.93,0.83,0.02,1.59,2.04,
2.31,-2.98,1.46,3.16,0.02,1.59,2.04,
2.31,-2.98,1.46,3.16,0.13,1.19,2.13,
2.311,-2.98,1.46,3.16,0.21,0.84,2.22,
2.311,-2.98,1.46,3.16,0.28,0.52,2.29,
2.311,-2.98,1.46,3.16,0.34,0.22,2.34,
2.316,-2.98,1.46,3.16,0.39,-0.06,2.37,
2.317,-2.45,3.09,3.30,0.39,-0.06,2.37,
2.318,-2.45,3.09,3.30,0.42,-0.31,2.38,
2.318,-2.45,3.09,3.30,0.46,-0.52,2.36,
2.32,-2.45,3.09,3.30,0.54,-0.77,2.28,
2.322,-2.45,3.09,3.30,0.57,-0.84,2.25,
2.323,-2.45,3.09,3.30,0.62,-0.95,2.16,
2.325,-0.59,3.67,2.31,0.62,-0.95,2.16,
2.326,-0.59,3.67,2.31,0.66,-1.05,2.06,
2.328,-0.59,3.67,2.31,0.71,-1.13,1.95,
2.33,-0.59,3.67,2.31,0.73,-1.19,1.84,
2.331,-0.59,3.67,2.31,0.76,-1.24,1.72,
2.333,-0.59,3.67,2.31,0.78,-1.32,1.60,
2.335,-0.05,4.99,0.74,0.78,-1.32,1.60,
2.336,-0.05,4.99,0.74,0.79,-1.45,1.49,
2.337,-0.05,4.99,0.74,0.80,-1.60,1.39,
2.339,-0.05,4.99,0.74,0.75,-1.64,1.27,
2.34,-0.05,4.99,0.74,0.73,-1.60,1.25,
2.355,-0.05,4.99,0.74,0.68,-1.47,1.22,
2.357,-0.48,5.28,-0.76,0.68,-1.47,1.22,
2.358,-0.48,5.28,-0.76,0.62,-1.24,1.20,
2.359,-0.48,5.28,-0.76,0.57,-1.03,1.18,
2.362,-0.48,5.28,-0.76,0.50,-0.75,1.15,
2.363,-0.48,5.28,-0.76,0.47,-0.68,1.15,
2.363,-0.48,5.28,-0.76,0.42,-0.56,1.13,
2.363,-0.55,3.49,-2.09,0.42,-0.56,1.13,
2.364,-0.55,3.49,-2.09,0.38,-0.45,1.14,
2.364,-0.55,3.49,-2.09,0.35,-0.35,1.18,
2.364,-0.55,3.49,-2.09,0.32,-0.27,1.25,
2.365,-0.55,3.49,-2.09,0.32,-0.26,1.27,
2.365,-0.55,3.49,-2.09,0.30,-0.24,1.34,
2.365,-1.45,2.66,-1.62,0.30,-0.24,1.34,
2.375,-1.45,2.66,-1.62,0.23,-0.21,1.51,
2.376,-1.45,2.66,-1.62,0.19,-0.13,1.61,
2.376,-1.45,2.66,-1.62,0.19,-0.13,1.61,
2.377,-1.45,2.66,-1.62,0.18,-0.10,1.64,
2.377,-1.45,2.66,-1.62,0.19,-0.02,1.67,
2.377,-1.37,0.53,-0.55,0.19,-0.02,1.67,
2.378,-1.37,0.53,-0.55,0.24,0.04,1.66,
2.378,-1.37,0.53,-0.55,0.34,0.12,1.66,
2.38,-1.37,0.53,-0.55,0.45,0.25,1.71,
2.381,-1.37,0.53,-0.55,0.47,0.30,1.72,
2.383,-1.37,0.53,-0.55,0.53,0.39,1.72,
2.385,-0.83,1.53,0.48,0.53,0.39,1.72,
2.385,-0.83,1.53,0.48,0.55,0.47,1.72,
2.387,-0.83,1.53,0.48,0.54,0.55,1.73,
2.39,-0.83,1.53,0.48,0.51,0.65,1.75,
2.391,-0.83,1.53,0.48,0.48,0.67,1.76,
2.393,-0.83,1.53,0.48,0.39,0.72,1.77,
2.396,-0.99,1.94,-1.22,0.39,0.72,1.77,
2.396,-0.99,1.94,-1.22,0.24,0.76,1.77,
2.397,-0.99,1.94,-1.22,0.06,0.77,1.76,
2.4,-0.99,1.94,-1.22,-0.18,0.68,1.72,
2.401,-0.99,1.94,-1.22,-0.23,0.65,1.70,
2.403,-0.99,1.94,-1.22,-0.34,0.62,1.64,
2.433,-1.24,-0.32,-1.99,-0.34,0.62,1.64,
2.433,-1.24,-0.32,-1.99,-0.44,0.61,1.58,
2.433,-1.24,-0.32,-1.99,-0.57,0.55,1.53,
2.434,-1.24,-0.32,-1.99,-0.77,0.16,1.42,
2.434,-1.24,-0.32,-1.99,-0.80,-0.06,1.37,
2.435,-1.24,-0.32,-1.99,-0.78,-0.38,1.28,
2.435,-0.82,0.92,0.51,-0.78,-0.38,1.28,
2.436,-0.82,0.92,0.51,-0.66,-0.59,1.20,
2.436,-0.82,0.92,0.51,-0.57,-0.74,1.14,
2.437,-0.82,0.92,0.51,-0.50,-0.82,1.09,
2.437,-0.82,0.92,0.51,-0.47,-0.81,1.07,
2.437,-0.82,0.92,0.51,-0.47,-0.76,1.06,
2.438,-0.72,3.01,2.61,-0.47,-0.76,1.06,
2.438,-0.72,3.01,2.61,-0.49,-0.71,1.05,
2.439,-0.72,3.01,2.61,-0.49,-0.77,1.00,
2.439,-0.72,3.01,2.61,-0.29,-1.14,0.81,
2.44,-0.72,3.01,2.61,-0.23,-1.19,0.75,
2.44,-0.72,3.01,2.61,-0.16,-1.15,0.66,
2.44,1.29,1.43,1.60,-0.16,-1.15,0.66,
2.441,1.29,1.43,1.60,-0.04,-1.10,0.57,
2.441,1.29,1.43,1.60,0.08,-1.06,0.48,
2.442,1.29,1.43,1.60,0.17,-0.91,0.40,
2.442,1.29,1.43,1.60,0.18,-0.85,0.38,
2.443,1.29,1.43,1.60,0.16,-0.70,0.38,
2.445,0.97,-0.68,0.33,0.16,-0.70,0.38,
2.446,0.97,-0.68,0.33,0.14,-0.51,0.39,
2.447,0.97,-0.68,0.33,0.12,-0.27,0.41,
2.45,0.97,-0.68,0.33,0.14,0.22,0.44,
2.451,0.97,-0.68,0.33,0.12,0.38,0.47,
2.453,0.97,-0.68,0.33,0.04,0.61,0.64,
2.455,-1.08,-6.89,-1.05,0.04,0.61,0.64,
2.455,-1.08,-6.89,-1.05,-0.08,0.71,0.93,
2.457,-1.08,-6.89,-1.05,-0.21,0.76,1.34,
2.46,-1.08,-6.89,-1.05,-0.36,0.94,2.12,
2.461,-1.08,-6.89,-1.05,-0.42,1.09,2.41,
2.463,-1.08,-6.89,-1.05,-0.54,1.42,3.00,
2.465,-8.01,-28.77,-2.46,-0.54,1.42,3.00,
2.466,-8.01,-28.77,-2.46,-0.52,1.47,3.54,
2.467,-8.01,-28.77,-2.46,-0.43,1.31,4.00,
2.47,-8.01,-28.77,-2.46,-0.27,0.91,4.56,
2.471,-8.01,-28.77,-2.46,-0.23,0.76,4.69,
2.473,-8.01,-28.77,-2.46,-0.20,0.53,4.85,
2.488,3.63,-12.79,0.05,-0.20,0.53,4.85,
2.489,3.63,-12.79,0.05,-0.20,0.29,4.88,
2.49,3.63,-12.79,0.05,-0.16,0.00,4.83,
2.49,3.63,-12.79,0.05,-0.08,-0.38,4.63,
2.49,3.63,-12.79,0.05,-0.04,-0.46,4.53,
2.491,3.63,-12.79,0.05,0.02,-0.57,4.30,
2.491,14.26,-4.64,0.86,0.02,-0.57,4.30,
2.492,14.26,-4.64,0.86,0.01,-0.65,4.07,
2.493,14.26,-4.64,0.86,0.02,-0.68,3.86,
2.493,14.26,-4.64,0.86,0.04,-0.63,3.61,
2.494,14.26,-4.64,0.86,0.05,-0.60,3.55,
2.494,14.26,-4.64,0.86,0.06,-0.52,3.44,
2.512,10.59,-7.39,0.72,0.06,-0.52,3.44,
2.512,10.59,-7.39,0.72,0.06,-0.45,3.36,
2.513,10.59,-7.39,0.72,0.06,-0.41,3.32,
2.513,10.59,-7.39,0.72,0.01,-0.39,3.27,
2.513,10.59,-7.39,0.72,-0.01,-0.41,3.26,
2.513,10.59,-7.39,0.72,-0.06,-0.49,3.24,
2.513,4.25,-7.15,0.83,-0.06,-0.49,3.24,
2.514,4.25,-7.15,0.83,-0.13,-0.62,3.20,
2.514,4.25,-7.15,0.83,-0.20,-0.78,3.17,
2.514,4.25,-7.15,0.83,-0.32,-1.07,3.10,
2.514,4.25,-7.15,0.83,-0.35,-1.17,3.07,
2.514,4.25,-7.15,0.83,-0.41,-1.40,3.02,
2.515,-0.88,-5.73,0.70,-0.41,-1.40,3.02,
2.515,-0.88,-5.73,0.70,-0.47,-1.64,2.97,
2.517,-0.88,-5.73,0.70,-0.50,-1.88,2.91,
2.52,-0.88,-5.73,0.70,-0.51,-2.19,2.81,
2.522,-0.88,-5.73,0.70,-0.51,-2.29,2.77,
2.523,-0.88,-5.73,0.70,-0.50,-2.45,2.70,
2.528,-3.69,-2.73,0.54,-0.50,-2.45,2.70,
2.53,-3.69,-2.73,0.54,-0.45,-2.64,2.62,
2.531,-3.69,-2.73,0.54,-0.40,-2.71,2.53,
2.532,-3.69,-2.73,0.54,-0.33,-2.62,2.41,
2.533,-3.69,-2.73,0.54,-0.30,-2.56,2.37,
2.533,-3.69,-2.73,0.54,-0.26,-2.39,2.28,
2.535,-3.50,0.83,-0.06,-0.26,-2.39,2.28,
2.537,-3.50,0.83,-0.06,-0.22,-2.17,2.17,
2.538,-3.50,0.83,-0.06,-0.17,-1.90,2.03,
2.541,-3.50,0.83,-0.06,-0.06,-1.38,1.84,
2.542,-3.50,0.83,-0.06,-0.03,-1.20,1.78,
2.547,-3.50,0.83,-0.06,0.02,-0.81,1.65,
2.548,-1.58,1.89,-0.41,0.02,-0.81,1.65,
2.548,-1.58,1.89,-0.41,0.06,-0.47,1.52,
2.548,-1.58,1.89,-0.41,0.10,-0.15,1.40,
2.55,-1.58,1.89,-0.41,0.12,0.22,1.23,
2.551,-1.58,1.89,-0.41,0.12,0.32,1.18,
2.553,-1.58,1.89,-0.41,0.12,0.49,1.07,
2.555,0.10,1.82,-0.76,0.12,0.49,1.07,
2.556,0.10,1.82,-0.76,0.12,0.60,0.96,
2.557,0.10,1.82,-0.76,0.12,0.68,0.85,
2.56,0.10,1.82,-0.76,0.10,0.76,0.69,
2.561,0.10,1.82,-0.76,0.09,0.77,0.63,
2.563,0.10,1.82,-0.76,0.07,0.78,0.54,
2.564,0.71,0.50,-0.49,0.07,0.78,0.54,
2.565,0.71,0.50,-0.49,0.05,0.79,0.44,
2.567,0.71,0.50,-0.49,0.03,0.78,0.36,
2.57,0.71,0.50,-0.49,-0.00,0.74,0.24,
2.599,0.71,0.50,-0.49,-0.01,0.73,0.21,
2.599,0.71,0.50,-0.49,-0.02,0.70,0.16,
2.6,1.04,0.17,0.07,-0.02,0.70,0.16,
2.6,1.04,0.17,0.07,-0.03,0.67,0.13,
2.6,1.04,0.17,0.07,-0.05,0.63,0.07,
2.601,1.04,0.17,0.07,-0.09,0.57,-0.05,
2.601,1.04,0.17,0.07,-0.09,0.54,-0.08,
2.602,1.04,0.17,0.07,-0.08,0.48,-0.15,
2.602,0.78,-3.72,0.25,-0.08,0.48,-0.15,
2.603,0.78,-3.72,0.25,-0.06,0.42,-0.22,
2.603,0.78,-3.72,0.25,-0.04,0.37,-0.27,
2.604,0.78,-3.72,0.25,-0.01,0.35,-0.32,
2.604,0.78,-3.72,0.25,-0.00,0.35,-0.33,
2.604,0.78,-3.72,0.25,0.01,0.37,-0.35,
2.605,0.79,-3.96,-0.60,0.01,0.37,-0.35,
2.605,0.79,-3.96,-0.60,0.01,0.40,-0.36,
2.606,0.79,-3.96,-0.60,0.00,0.41,-0.37,
2.606,0.79,-3.96,-0.60,-0.03,0.43,-0.38,
2.606,0.79,-3.96,-0.60,-0.05,0.43,-0.39,
2.607,0.79,-3.96,-0.60,-0.08,0.44,-0.38,
2.607,0.98,-1.94,-1.48,-0.08,0.44,-0.38,
2.608,0.98,-1.94,-1.48,-0.11,0.43,-0.38,
2.608,0.98,-1.94,-1.48,-0.17,0.41,-0.40,
2.61,0.98,-1.94,-1.48,-0.42,0.42,-0.59,
2.614,0.98,-1.94,-1.48,-0.49,0.41,-0.64,
2.614,0.98,-1.94,-1.48,-0.56,0.40,-0.69,
2.615,1.00,0.48,-1.91,-0.56,0.40,-0.69,
2.617,1.00,0.48,-1.91,-0.59,0.36,-0.71,
2.617,1.00,0.48,-1.91,-0.58,0.31,-0.70,
2.62,1.00,0.48,-1.91,-0.51,0.22,-0.65,
2.622,1.00,0.48,-1.91,-0.47,0.18,-0.62,
2.622,1.00,0.48,-1.91,-0.39,0.11,-0.57,
2.625,-0.60,1.68,-0.01,-0.39,0.11,-0.57,
2.626,-0.60,1.68,-0.01,-0.30,0.05,-0.52,
2.628,-0.60,1.68,-0.01,-0.21,0.01,-0.45,
2.631,-0.60,1.68,-0.01,-0.08,-0.03,-0.37,
2.631,-0.60,1.68,-0.01,-0.04,-0.03,-0.34,
2.633,-0.60,1.68,-0.01,0.03,-0.03,-0.28,
2.635,-0.42,1.78,0.08,0.03,-0.03,-0.28,
2.636,-0.42,1.78,0.08,0.09,-0.03,-0.24,
2.637,-0.42,1.78,0.08,0.14,-0.01,-0.20,
2.64,-0.42,1.78,0.08,0.14,0.07,-0.16,
2.649,-0.42,1.78,0.08,0.12,0.13,-0.14,
2.651,-0.42,1.78,0.08,0.07,0.20,-0.14,
2.651,1.06,0.46,-1.16,0.07,0.20,-0.14,
2.652,1.06,0.46,-1.16,0.05,0.22,-0.17,
2.652,1.06,0.46,-1.16,0.02,0.21,-0.19,
2.653,1.06,0.46,-1.16,0.04,0.17,-0.22,
2.654,1.06,0.46,-1.16,0.05,0.16,-0.23,
2.658,1.06,0.46,-1.16,0.09,0.15,-0.25,
2.659,1.77,-0.25,-0.13,0.09,0.15,-0.25,
2.659,1.77,-0.25,-0.13,0.13,0.15,-0.26,
2.659,1.77,-0.25,-0.13,0.16,0.16,-0.28,
2.67,1.77,-0.25,-0.13,0.21,0.14,-0.31,
2.671,1.77,-0.25,-0.13,0.23,0.13,-0.32,
2.671,1.77,-0.25,-0.13,0.26,0.07,-0.34,
2.671,1.40,0.07,0.45,0.26,0.07,-0.34,
2.671,1.40,0.07,0.45,0.31,0.01,-0.35,
2.671,1.40,0.07,0.45,0.35,-0.05,-0.35,
2.672,1.40,0.07,0.45,0.41,-0.14,-0.35,
2.672,1.40,0.07,0.45,0.43,-0.17,-0.34,
2.673,1.40,0.07,0.45,0.45,-0.22,-0.33,
2.685,0.40,0.53,0.44,0.45,-0.22,-0.33,
2.687,0.40,0.53,0.44,0.47,-0.25,-0.31,
2.687,0.40,0.53,0.44,0.47,-0.28,-0.30,
2.688,0.40,0.53,0.44,0.47,-0.29,-0.26,
2.688,0.40,0.53,0.44,0.47,-0.30,-0.25,
2.689,0.40,0.53,0.44,0.46,-0.29,-0.22,
2.689,-0.36,0.97,-0.16,0.46,-0.29,-0.22,
2.689,-0.36,0.97,-0.16,0.45,-0.29,-0.20,
2.69,-0.36,0.97,-0.16,0.43,-0.28,-0.17,
2.691,-0.36,0.97,-0.16,0.39,-0.28,-0.12,
2.692,-0.36,0.97,-0.16,0.38,-0.28,-0.11,
2.699,-0.36,0.97,-0.16,0.36,-0.28,-0.08,
2.701,-0.93,1.29,-0.60,0.36,-0.28,-0.08,
2.702,-0.93,1.29,-0.60,0.33,-0.28,-0.05,
2.702,-0.93,1.29,-0.60,0.31,-0.27,-0.02,
2.702,-0.93,1.29,-0.60,0.27,-0.27,0.02,
2.703,-0.93,1.29,-0.60,0.26,-0.27,0.04,
2.704,-0.93,1.29,-0.60,0.24,-0.27,0.08,
2.705,-1.39,0.92,-0.80,0.24,-0.27,0.08,
2.706,-1.39,0.92,-0.80,0.21,-0.27,0.11,
2.707,-1.39,0.92,-0.80,0.19,-0.28,0.14,
2.71,-1.39,0.92,-0.80,0.16,-0.30,0.17,
2.711,-1.39,0.92,-0.80,0.15,-0.31,0.18,
2.713,-1.39,0.92,-0.80,0.13,-0.31,0.21,
2.715,-1.28,0.36,-1.12,0.13,-0.31,0.21,
2.715,-1.28,0.36,-1.12,0.12,-0.32,0.22,
2.717,-1.28,0.36,-1.12,0.10,-0.32,0.24,
2.72,-1.28,0.36,-1.12,0.09,-0.34,0.25,
2.723,-1.28,0.36,-1.12,0.09,-0.34,0.25,
2.728,-1.28,0.36,-1.12,0.09,-0.33,0.25,
2.729,-0.82,0.35,-1.25,0.09,-0.33,0.25,
2.729,-0.82,0.35,-1.25,0.09,-0.33,0.26,
2.73,-0.82,0.35,-1.25,0.09,-0.32,0.27,
2.73,-0.82,0.35,-1.25,0.10,-0.31,0.29,
2.732,-0.82,0.35,-1.25,0.10,-0.30,0.29,
2.733,-0.82,0.35,-1.25,0.10,-0.30,0.30,
2.738,-0.55,0.37,-1.39,0.10,-0.30,0.30,
2.739,-0.55,0.37,-1.39,0.11,-0.29,0.30,
2.757,-0.55,0.37,-1.39,0.12,-0.29,0.30,
2.757,-0.55,0.37,-1.39,0.15,-0.28,0.30,
2.757,-0.55,0.37,-1.39,0.16,-0.28,0.30,
2.758,-0.55,0.37,-1.39,0.18,-0.28,0.30,
2.758,-0.04,-0.22,-1.13,0.18,-0.28,0.30,
2.758,-0.04,-0.22,-1.13,0.20,-0.28,0.29,
2.759,-0.04,-0.22,-1.13,0.23,-0.28,0.29,
2.759,-0.04,-0.22,-1.13,0.26,-0.28,0.28,
2.759,-0.04,-0.22,-1.13,0.27,-0.28,0.27,
2.759,-0.04,-0.22,-1.13,0.30,-0.27,0.26,
2.76,0.33,-0.95,-0.97,0.30,-0.27,0.26,
2.76,0.33,-0.95,-0.97,0.32,-0.27,0.25,
2.76,0.33,-0.95,-0.97,0.34,-0.26,0.24,
2.761,0.33,-0.95,-0.97,0.36,-0.25,0.23,
2.761,0.33,-0.95,-0.97,0.37,-0.24,0.22,
2.763,0.33,-0.95,-0.97,0.38,-0.23,0.21,
2.765,0.57,-1.29,-1.03,0.38,-0.23,0.21,
2.765,0.57,-1.29,-1.03,0.38,-0.23,0.19,
2.767,0.57,-1.29,-1.03,0.38,-0.21,0.18,
2.77,0.57,-1.29,-1.03,0.39,-0.19,0.16,
2.77,0.57,-1.29,-1.03,0.39,-0.18,0.15,
2.773,0.57,-1.29,-1.03,0.40,-0.16,0.13,
2.776,0.90,-1.44,-0.77,0.40,-0.16,0.13,
2.777,0.90,-1.44,-0.77,0.41,-0.14,0.11,
2.777,0.90,-1.44,-0.77,0.42,-0.12,0.09,
2.78,0.90,-1.44,-0.77,0.44,-0.08,0.06,
2.78,0.90,-1.44,-0.77,0.45,-0.06,0.05,
2.785,0.90,-1.44,-0.77,0.48,-0.03,0.03,
2.785,1.31,-1.54,0.15,0.48,-0.03,0.03,
2.785,1.31,-1.54,0.15,0.50,-0.01,0.00,
2.787,1.31,-1.54,0.15,0.54,0.01,-0.02,
2.79,1.31,-1.54,0.15,0.59,0.04,-0.05,
2.791,1.31,-1.54,0.15,0.60,0.05,-0.06,
2.793,1.31,-1.54,0.15,0.64,0.06,-0.08,
2.795,1.79,-1.53,1.16,0.64,0.06,-0.08,
2.795,1.79,-1.53,1.16,0.67,0.06,-0.10,
2.797,1.79,-1.53,1.16,0.69,0.06,-0.12,
2.799,1.79,-1.53,1.16,0.72,0.07,-0.15,
2.8,1.79,-1.53,1.16,0.73,0.07,-0.16,
2.802,1.79,-1.53,1.16,0.73,0.07,-0.17,
2.804,1.86,-1.39,0.95,0.73,0.07,-0.17,
2.805,1.86,-1.39,0.95,0.73,0.07,-0.19,
2.809,1.86,-1.39,0.95,0.73,0.07,-0.20,
2.81,1.86,-1.39,0.95,0.73,0.09,-0.23,
2.811,1.86,-1.39,0.95,0.72,0.09,-0.24,
2.813,1.86,-1.39,0.95,0.71,0.09,-0.25,
2.815,1.91,-1.36,0.49,0.71,0.09,-0.25,
2.815,1.91,-1.36,0.49,0.70,0.09,-0.26,
2.817,1.91,-1.36,0.49,0.69,0.09,-0.27,
2.82,1.91,-1.36,0.49,0.67,0.08,-0.28,
2.82,1.91,-1.36,0.49,0.66,0.08,-0.29,
2.823,1.91,-1.36,0.49,0.65,0.07,-0.30,
2.825,1.46,-1.38,0.22,0.65,0.07,-0.30,
2.825,1.46,-1.38,0.22,0.63,0.06,-0.30,
2.827,1.46,-1.38,0.22,0.62,0.04,-0.31,
2.83,1.46,-1.38,0.22,0.59,0.01,-0.31,
2.83,1.46,-1.38,0.22,0.58,0.00,-0.31,
2.833,1.46,-1.38,0.22,0.57,-0.02,-0.30,
2.835,0.75,-1.39,-0.22,0.57,-0.02,-0.30,
2.835,0.75,-1.39,-0.22,0.55,-0.04,-0.30,
2.837,0.75,-1.39,-0.22,0.54,-0.06,-0.29,
2.841,0.75,-1.39,-0.22,0.53,-0.09,-0.28,
2.841,0.75,-1.39,-0.22,0.53,-0.09,-0.28,
2.845,0.75,-1.39,-0.22,0.53,-0.11,-0.27,
2.847,0.06,-1.17,-0.27,0.53,-0.11,-0.27,
2.848,0.06,-1.17,-0.27,0.53,-0.11,-0.26,
2.848,0.06,-1.17,-0.27,0.53,-0.12,-0.25,
2.85,0.06,-1.17,-0.27,0.53,-0.13,-0.24,
2.851,0.06,-1.17,-0.27,0.54,-0.13,-0.23,
2.853,0.06,-1.17,-0.27,0.54,-0.13,-0.22,
2.855,-0.47,-0.62,-0.09,0.54,-0.13,-0.22,
2.855,-0.47,-0.62,-0.09,0.55,-0.14,-0.21,
2.858,-0.47,-0.62,-0.09,0.55,-0.14,-0.19,
2.86,-0.47,-0.62,-0.09,0.55,-0.14,-0.16,
2.861,-0.47,-0.62,-0.09,0.55,-0.14,-0.15,
2.863,-0.47,-0.62,-0.09,0.55,-0.13,-0.13,
2.865,-1.05,-0.00,-0.20,0.55,-0.13,-0.13,
2.865,-1.05,-0.00,-0.20,0.55,-0.13,-0.11,
2.867,-1.05,-0.00,-0.20,0.54,-0.12,-0.09,
2.869,-1.05,-0.00,-0.20,0.53,-0.11,-0.05,
2.871,-1.05,-0.00,-0.20,0.52,-0.09,-0.04,
2.885,-1.05,-0.00,-0.20,0.49,-0.08,-0.02,
2.886,-1.43,0.51,-0.36,0.49,-0.08,-0.02,
2.886,-1.43,0.51,-0.36,0.47,-0.07,0.01,
2.887,-1.43,0.51,-0.36,0.45,-0.08,0.04,
2.887,-1.43,0.51,-0.36,0.44,-0.11,0.07,
2.888,-1.43,0.51,-0.36,0.44,-0.13,0.08,
2.888,-1.43,0.51,-0.36,0.42,-0.19,0.10,
2.889,-1.32,0.41,0.13,0.42,-0.19,0.10,
2.889,-1.32,0.41,0.13,0.40,-0.21,0.12,
2.889,-1.32,0.41,0.13,0.39,-0.20,0.13,
2.901,-1.32,0.41,0.13,0.39,-0.17,0.15,
2.902,-1.32,0.41,0.13,0.39,-0.16,0.15,
2.902,-1.32,0.41,0.13,0.39,-0.15,0.16,
2.902,-0.75,-0.07,0.43,0.39,-0.15,0.16,
2.903,-0.75,-0.07,0.43,0.39,-0.14,0.16,
2.903,-0.75,-0.07,0.43,0.38,-0.14,0.17,
2.904,-0.75,-0.07,0.43,0.37,-0.14,0.17,
2.904,-0.75,-0.07,0.43,0.36,-0.14,0.17,
2.905,-0.75,-0.07,0.43,0.35,-0.13,0.17,
2.931,0.00,-0.35,0.43,0.35,-0.13,0.17,
2.932,0.00,-0.35,0.43,0.34,-0.12,0.17,
2.932,0.00,-0.35,0.43,0.34,-0.11,0.17,
2.932,0.00,-0.35,0.43,0.33,-0.09,0.16,
2.932,0.00,-0.35,0.43,0.33,-0.08,0.16,
2.933,0.00,-0.35,0.43,0.33,-0.07,0.15,
2.933,0.69,-0.44,0.79,0.33,-0.07,0.15,
2.933,0.69,-0.44,0.79,0.32,-0.06,0.14,
2.933,0.69,-0.44,0.79,0.32,-0.05,0.12,
2.934,0.69,-0.44,0.79,0.32,-0.03,0.11,
2.934,0.69,-0.44,0.79,0.32,-0.03,0.10,
2.934,0.69,-0.44,0.79,0.32,-0.03,0.09,
2.935,1.02,-0.36,0.77,0.32,-0.03,0.09,
2.935,1.02,-0.36,0.77,0.32,-0.03,0.08,
2.935,1.02,-0.36,0.77,0.32,-0.03,0.07,
2.935,1.02,-0.36,0.77,0.31,-0.03,0.06,
2.936,1.02,-0.36,0.77,0.31,-0.04,0.06,
2.936,1.02,-0.36,0.77,0.31,-0.05,0.05,
2.936,1.08,-0.34,0.72,0.31,-0.05,0.05,
2.937,1.08,-0.34,0.72,0.31,-0.05,0.04,
2.937,1.08,-0.34,0.72,0.31,-0.05,0.04,
2.94,1.08,-0.34,0.72,0.31,-0.06,0.02,
2.941,1.08,-0.34,0.72,0.31,-0.06,0.02,
2.943,1.08,-0.34,0.72,0.32,-0.06,0.01,
2.954,1.15,-0.46,0.60,0.32,-0.06,0.01,
2.954,1.15,-0.46,0.60,0.32,-0.06,-0.01,
2.954,1.15,-0.46,0.60,0.32,-0.05,-0.01,
2.954,1.15,-0.46,0.60,0.33,-0.05,-0.02,
2.955,1.15,-0.46,0.60,0.33,-0.05,-0.02,
2.955,1.15,-0.46,0.60,0.33,-0.04,-0.03,
2.955,1.32,-0.60,0.54,0.33,-0.04,-0.03,
2.955,1.32,-0.60,0.54,0.33,-0.03,-0.04,
2.958,1.32,-0.60,0.54,0.33,-0.03,-0.04,
2.961,1.32,-0.60,0.54,0.32,-0.02,-0.05,
2.961,1.32,-0.60,0.54,0.32,-0.01,-0.06,
2.962,1.32,-0.60,0.54,0.32,-0.01,-0.06,
2.964,1.47,-0.78,0.29,0.32,-0.01,-0.06,
2.964,1.47,-0.78,0.29,0.31,0.00,-0.07,
2.966,1.47,-0.78,0.29,0.31,0.01,-0.07,
2.969,1.47,-0.78,0.29,0.30,0.02,-0.07,
2.971,1.47,-0.78,0.29,0.30,0.02,-0.08,
2.974,1.47,-0.78,0.29,0.29,0.03,-0.08,
2.975,1.43,-1.11,0.16,0.29,0.03,-0.08,
2.975,1.43,-1.11,0.16,0.29,0.04,-0.08,
2.977,1.43,-1.11,0.16,0.29,0.04,-0.08,
2.98,1.43,-1.11,0.16,0.28,0.04,-0.09,
2.98,1.43,-1.11,0.16,0.28,0.04,-0.09,
2.982,1.43,-1.11,0.16,0.26,0.03,-0.09,
2.985,1.35,-1.42,-0.01,0.26,0.03,-0.09,
2.985,1.35,-1.42,-0.01,0.25,0.02,-0.10,
2.987,1.35,-1.42,-0.01,0.25,0.01,-0.10,
2.99,1.35,-1.42,-0.01,0.24,0.01,-0.11,
2.991,1.35,-1.42,-0.01,0.24,0.01,-0.11,
2.993,1.35,-1.42,-0.01,0.24,0.01,-0.12,
2.995,1.37,-1.41,-0.04,0.24,0.01,-0.12,
2.996,1.37,-1.41,-0.04,0.23,0.02,-0.12,
2.997,1.37,-1.41,-0.04,0.22,0.03,-0.12,
2.999,1.37,-1.41,-0.04,0.21,0.06,-0.12,
3.001,1.37,-1.41,-0.04,0.21,0.07,-0.12,
3.003,1.37,-1.41,-0.04,0.20,0.08,-0.11,
3.005,1.09,-1.17,-0.31,0.20,0.08,-0.11,
3.005,1.09,-1.17,-0.31,0.19,0.08,-0.11,
3.011,1.09,-1.17,-0.31,0.18,0.08,-0.11,
3.011,1.09,-1.17,-0.31,0.18,0.08,-0.11,
3.012,1.09,-1.17,-0.31,0.18,0.09,-0.11,
3.013,1.09,-1.17,-0.31,0.18,0.09,-0.11,
3.015,0.97,-0.82,-0.29,0.18,0.09,-0.11,
3.015,0.97,-0.82,-0.29,0.17,0.08,-0.11,
3.017,0.97,-0.82,-0.29,0.17,0.08,-0.11,
3.02,0.97,-0.82,-0.29,0.18,0.08,-0.10,
3.035,0.97,-0.82,-0.29,0.18,0.08,-0.10,
3.036,0.97,-0.82,-0.29,0.19,0.08,-0.10,
3.036,0.75,-0.83,-0.20,0.19,0.08,-0.10,
3.037,0.75,-0.83,-0.20,0.20,0.08,-0.09,
3.037,0.75,-0.83,-0.20,0.20,0.09,-0.09,
3.037,0.75,-0.83,-0.20,0.20,0.11,-0.09,
3.038,0.75,-0.83,-0.20,0.20,0.12,-0.09,
3.038,0.75,-0.83,-0.20,0.20,0.13,-0.09,
3.038,0.85,-0.83,-0.26,0.20,0.13,-0.09,
3.039,0.85,-0.83,-0.26,0.21,0.14,-0.09,
3.04,0.85,-0.83,-0.26,0.21,0.15,-0.09,
3.04,0.85,-0.83,-0.26,0.22,0.17,-0.09,
3.041,0.85,-0.83,-0.26,0.23,0.17,-0.09,
3.043,0.85,-0.83,-0.26,0.24,0.18,-0.09,
3.045,0.90,-0.71,-0.00,0.24,0.18,-0.09,
3.045,0.90,-0.71,-0.00,0.25,0.19,-0.09,
3.047,0.90,-0.71,-0.00,0.25,0.19,-0.09,
3.05,0.90,-0.71,-0.00,0.26,0.20,-0.09,
3.051,0.90,-0.71,-0.00,0.27,0.20,-0.09,
3.053,0.90,-0.71,-0.00,0.28,0.20,-0.09,
3.055,1.07,-0.67,0.21,0.28,0.20,-0.09,
3.055,1.07,-0.67,0.21,0.28,0.20,-0.08,
3.058,1.07,-0.67,0.21,0.29,0.20,-0.08,
3.06,1.07,-0.67,0.21,0.30,0.19,-0.07,
3.061,1.07,-0.67,0.21,0.31,0.19,-0.07,
3.063,1.07,-0.67,0.21,0.31,0.18,-0.07,
3.065,1.03,-0.58,0.44,0.31,0.18,-0.07,
3.065,1.03,-0.58,0.44,0.32,0.17,-0.06,
3.067,1.03,-0.58,0.44,0.32,0.16,-0.06,
3.07,1.03,-0.58,0.44,0.32,0.15,-0.05,
3.098,1.03,-0.58,0.44,0.32,0.14,-0.05,
3.099,1.03,-0.58,0.44,0.33,0.13,-0.05,
3.099,1.11,-0.54,0.59,0.33,0.13,-0.05,
3.1,1.11,-0.54,0.59,0.33,0.11,-0.04,
3.1,1.11,-0.54,0.59,0.32,0.10,-0.04,
3.101,1.11,-0.54,0.59,0.32,0.07,-0.03,
3.101,1.11,-0.54,0.59,0.32,0.06,-0.03,
3.102,1.11,-0.54,0.59,0.31,0.04,-0.02,
3.102,1.06,-0.53,0.58,0.31,0.04,-0.02,
3.102,1.06,-0.53,0.58,0.31,0.02,-0.02,
3.103,1.06,-0.53,0.58,0.31,0.01,-0.01,
3.103,1.06,-0.53,0.58,0.31,-0.02,-0.01,
3.104,1.06,-0.53,0.58,0.31,-0.03,-0.00,
3.104,1.06,-0.53,0.58,0.32,-0.05,0.00,
3.105,1.18,-0.50,0.75,0.32,-0.05,0.00,
3.105,1.18,-0.50,0.75,0.32,-0.06,0.00,
3.105,1.18,-0.50,0.75,0.32,-0.08,0.01,
3.106,1.18,-0.50,0.75,0.33,-0.11,0.01,
3.106,1.18,-0.50,0.75,0.33,-0.12,0.02,
3.107,1.18,-0.50,0.75,0.34,-0.14,0.02,
3.107,1.17,-0.50,0.82,0.34,-0.14,0.02,
3.108,1.17,-0.50,0.82,0.34,-0.16,0.03,
3.108,1.17,-0.50,0.82,0.35,-0.19,0.03,
3.11,1.17,-0.50,0.82,0.36,-0.22,0.04,
3.111,1.17,-0.50,0.82,0.36,-0.23,0.05,
3.113,1.17,-0.50,0.82,0.36,-0.25,0.05,
3.115,1.20,-0.59,0.78,0.36,-0.25,0.05,
3.115,1.20,-0.59,0.78,0.37,-0.27,0.06,
3.118,1.20,-0.59,0.78,0.37,-0.29,0.07,
3.12,1.20,-0.59,0.78,0.38,-0.33,0.07,
3.121,1.20,-0.59,0.78,0.38,-0.34,0.08,
3.123,1.20,-0.59,0.78,0.39,-0.36,0.09,
3.126,1.18,-0.53,0.74,0.39,-0.36,0.09,
3.126,1.18,-0.53,0.74,0.39,-0.38,0.09,
3.127,1.18,-0.53,0.74,0.40,-0.39,0.10,
3.13,1.18,-0.53,0.74,0.41,-0.42,0.11,
3.13,1.18,-0.53,0.74,0.41,-0.43,0.12,
3.132,1.18,-0.53,0.74,0.41,-0.45,0.12,
3.135,1.15,-0.49,0.69,0.41,-0.45,0.12,
3.135,1.15,-0.49,0.69,0.41,-0.47,0.13,
3.137,1.15,-0.49,0.69,0.41,-0.49,0.14,
3.139,1.15,-0.49,0.69,0.41,-0.52,0.15,
3.14,1.15,-0.49,0.69,0.41,-0.53,0.15,
3.143,1.15,-0.49,0.69,0.40,-0.55,0.16,
3.146,0.96,-0.39,0.32,0.40,-0.55,0.16,
3.146,0.96,-0.39,0.32,0.40,-0.56,0.16,
3.146,0.96,-0.39,0.32,0.39,-0.57,0.17,
3.15,0.96,-0.39,0.32,0.37,-0.59,0.17,
3.151,0.96,-0.39,0.32,0.37,-0.59,0.18,
3.153,0.96,-0.39,0.32,0.36,-0.60,0.18,
3.155,0.84,-0.31,0.07,0.36,-0.60,0.18,
3.155,0.84,-0.31,0.07,0.35,-0.60,0.18,
3.157,0.84,-0.31,0.07,0.35,-0.61,0.18,
3.16,0.84,-0.31,0.07,0.35,-0.62,0.19,
3.161,0.84,-0.31,0.07,0.35,-0.62,0.19,
3.163,0.84,-0.31,0.07,0.35,-0.61,0.19,
3.165,0.79,-0.28,0.22,0.35,-0.61,0.19,
3.166,0.79,-0.28,0.22,0.36,-0.61,0.19,
3.167,0.79,-0.28,0.22,0.37,-0.60,0.19,
3.17,0.79,-0.28,0.22,0.39,-0.58,0.19,
3.17,0.79,-0.28,0.22,0.40,-0.57,0.19,
3.179,0.79,-0.28,0.22,0.41,-0.56,0.19,
3.18,0.82,-0.20,0.64,0.41,-0.56,0.19,
3.181,0.82,-0.20,0.64,0.42,-0.54,0.19,
3.181,0.82,-0.20,0.64,0.44,-0.53,0.19,
3.182,0.82,-0.20,0.64,0.46,-0.51,0.19,
3.183,0.82,-0.20,0.64,0.46,-0.51,0.19,
3.183,0.82,-0.20,0.64,0.47,-0.51,0.19,
3.185,0.50,-0.26,0.83,0.47,-0.51,0.19,
3.185,0.50,-0.26,0.83,0.47,-0.51,0.19,
3.187,0.50,-0.26,0.83,0.48,-0.51,0.19,
3.204,0.50,-0.26,0.83,0.48,-0.52,0.19,
3.205,0.50,-0.26,0.83,0.48,-0.53,0.19,
3.205,0.50,-0.26,0.83,0.47,-0.54,0.19,
3.205,0.21,-0.51,0.95,0.47,-0.54,0.19,
3.205,0.21,-0.51,0.95,0.47,-0.55,0.19,
3.205,0.21,-0.51,0.95,0.46,-0.56,0.19,
3.206,0.21,-0.51,0.95,0.44,-0.58,0.18,
3.206,0.21,-0.51,0.95,0.43,-0.59,0.18,
3.207,0.21,-0.51,0.95,0.42,-0.60,0.18,
3.208,-0.24,-0.66,0.91,0.42,-0.60,0.18,
3.208,-0.24,-0.66,0.91,0.41,-0.61,0.18,
3.208,-0.24,-0.66,0.91,0.40,-0.63,0.18,
3.21,-0.24,-0.66,0.91,0.39,-0.64,0.18,
3.212,-0.24,-0.66,0.91,0.39,-0.65,0.18,
3.213,-0.24,-0.66,0.91,0.39,-0.66,0.18,
3.214,-0.59,-0.66,0.99,0.39,-0.66,0.18,
3.215,-0.59,-0.66,0.99,0.39,-0.67,0.17,
3.217,-0.59,-0.66,0.99,0.38,-0.68,0.17,
3.22,-0.59,-0.66,0.99,0.38,-0.68,0.17,
3.22,-0.59,-0.66,0.99,0.37,-0.68,0.18,
3.223,-0.59,-0.66,0.99,0.37,-0.68,0.18,
3.225,-0.91,-0.52,0.65,0.37,-0.68,0.18,
3.226,-0.91,-0.52,0.65,0.36,-0.68,0.18,
3.227,-0.91,-0.52,0.65,0.36,-0.67,0.18,
3.23,-0.91,-0.52,0.65,0.35,-0.66,0.18,
3.231,-0.91,-0.52,0.65,0.35,-0.66,0.18,
3.233,-0.91,-0.52,0.65,0.34,-0.65,0.19,
3.235,-1.23,-0.23,0.05,0.34,-0.65,0.19,
3.235,-1.23,-0.23,0.05,0.33,-0.64,0.19,
3.267,-1.23,-0.23,0.05,0.32,-0.64,0.19,
3.267,-1.23,-0.23,0.05,0.32,-0.62,0.20,
3.268,-1.23,-0.23,0.05,0.31,-0.62,0.21,
3.268,-1.23,-0.23,0.05,0.31,-0.61,0.21,
3.269,-1.38,-0.11,-0.44,0.31,-0.61,0.21,
3.269,-1.38,-0.11,-0.44,0.32,-0.60,0.22,
3.27,-1.38,-0.11,-0.44,0.32,-0.58,0.22,
3.27,-1.38,-0.11,-0.44,0.33,-0.56,0.22,
3.27,-1.38,-0.11,-0.44,0.33,-0.55,0.22,
3.271,-1.38,-0.11,-0.44,0.34,-0.52,0.22,
3.271,-0.94,-0.31,-0.34,0.34,-0.52,0.22,
3.272,-0.94,-0.31,-0.34,0.35,-0.49,0.21,
3.272,-0.94,-0.31,-0.34,0.35,-0.46,0.21,
3.273,-0.94,-0.31,-0.34,0.36,-0.41,0.19,
3.273,-0.94,-0.31,-0.34,0.35,-0.39,0.19,
3.273,-0.94,-0.31,-0.34,0.35,-0.34,0.18,
3.274,-0.28,-0.59,-0.12,0.35,-0.34,0.18,
3.274,-0.28,-0.59,-0.12,0.35,-0.31,0.17,
3.275,-0.28,-0.59,-0.12,0.35,-0.28,0.16,
3.275,-0.28,-0.59,-0.12,0.35,-0.23,0.15,
3.275,-0.28,-0.59,-0.12,0.35,-0.22,0.15,
3.276,-0.28,-0.59,-0.12,0.36,-0.19,0.13,
3.276,0.11,-0.83,0.41,0.36,-0.19,0.13,
3.276,0.11,-0.83,0.41,0.37,-0.18,0.13,
3.277,0.11,-0.83,0.41,0.37,-0.16,0.11,
3.279,0.11,-0.83,0.41,0.39,-0.14,0.09,
3.281,0.11,-0.83,0.41,0.39,-0.14,0.09,
3.283,0.11,-0.83,0.41,0.39,-0.13,0.07,
3.285,0.34,-0.80,0.90,0.39,-0.13,0.07,
3.285,0.34,-0.80,0.90,0.39,-0.13,0.06,
3.289,0.34,-0.80,0.90,0.39,-0.13,0.05,
3.292,0.34,-0.80,0.90,0.38,-0.14,0.03,
3.293,0.34,-0.80,0.90,0.38,-0.15,0.02,
3.293,0.34,-0.80,0.90,0.37,-0.16,0.02,
3.295,0.27,-0.55,0.85,0.37,-0.16,0.02,
3.299,0.27,-0.55,0.85,0.36,-0.19,0.01,
3.3,0.27,-0.55,0.85,0.36,-0.21,0.00,
3.3,0.27,-0.55,0.85,0.34,-0.24,0.00,
3.301,0.27,-0.55,0.85,0.34,-0.26,-0.00,
3.303,0.27,-0.55,0.85,0.34,-0.28,-0.00,
3.31,-0.13,-0.17,0.79,0.34,-0.28,-0.00,
3.31,-0.13,-0.17,0.79,0.33,-0.30,-0.01,
3.311,-0.13,-0.17,0.79,0.33,-0.31,-0.01,
3.311,-0.13,-0.17,0.79,0.33,-0.32,-0.00,
3.311,-0.13,-0.17,0.79,0.33,-0.32,-0.00,
3.313,-0.13,-0.17,0.79,0.34,-0.32,-0.00,
3.319,-0.57,0.16,0.77,0.34,-0.32,-0.00,
3.319,-0.57,0.16,0.77,0.34,-0.31,0.00,
3.319,-0.57,0.16,0.77,0.34,-0.30,0.01,
3.32,-0.57,0.16,0.77,0.35,-0.28,0.01,
3.32,-0.57,0.16,0.77,0.35,-0.27,0.02,
3.33,-0.57,0.16,0.77,0.34,-0.25,0.02,
3.331,-0.86,0.16,0.25,0.34,-0.25,0.02,
3.331,-0.86,0.16,0.25,0.34,-0.23,0.02,
3.331,-0.86,0.16,0.25,0.33,-0.22,0.03,
3.332,-0.86,0.16,0.25,0.32,-0.19,0.04,
3.332,-0.86,0.16,0.25,0.32,-0.18,0.04,
3.333,-0.86,0.16,0.25,0.31,-0.16,0.04,
3.335,-0.88,-0.09,-0.43,0.31,-0.16,0.04,
3.335,-0.88,-0.09,-0.43,0.29,-0.13,0.04,
3.337,-0.88,-0.09,-0.43,0.29,-0.09,0.04,
3.345,-0.88,-0.09,-0.43,0.27,-0.03,0.05,
3.346,-0.88,-0.09,-0.43,0.27,-0.01,0.05,
3.346,-0.88,-0.09,-0.43,0.26,0.03,0.05,
3.347,-0.67,-0.31,-0.33,0.26,0.03,0.05,
3.347,-0.67,-0.31,-0.33,0.26,0.07,0.05,
3.347,-0.67,-0.31,-0.33,0.25,0.10,0.05,
3.35,-0.67,-0.31,-0.33,0.25,0.15,0.05,
3.351,-0.67,-0.31,-0.33,0.24,0.17,0.05,
3.353,-0.67,-0.31,-0.33,0.24,0.19,0.05,
3.356,-0.45,-0.60,0.26,0.24,0.19,0.05,
3.356,-0.45,-0.60,0.26,0.24,0.21,0.05,
3.356,-0.45,-0.60,0.26,0.24,0.23,0.05,
3.36,-0.45,-0.60,0.26,0.25,0.25,0.04,
3.361,-0.45,-0.60,0.26,0.25,0.25,0.04,
3.363,-0.45,-0.60,0.26,0.25,0.26,0.04,
3.365,-0.21,-0.91,0.76,0.25,0.26,0.04,
3.369,-0.21,-0.91,0.76,0.25,0.28,0.03,
3.369,-0.21,-0.91,0.76,0.25,0.29,0.02,
3.37,-0.21,-0.91,0.76,0.25,0.29,0.02,
3.373,-0.21,-0.91,0.76,0.26,0.30,0.02,
3.375,-0.21,-0.91,0.76,0.26,0.31,0.01,
3.375,-0.32,-1.05,1.03,0.26,0.31,0.01,
3.377,-0.32,-1.05,1.03,0.26,0.32,0.01,
3.377,-0.32,-1.05,1.03,0.26,0.32,0.01,
3.38,-0.32,-1.05,1.03,0.25,0.34,0.01,
3.381,-0.32,-1.05,1.03,0.25,0.34,0.01,
3.382,-0.32,-1.05,1.03,0.24,0.35,0.01,
3.384,-0.71,-1.06,0.73,0.24,0.35,0.01,
3.385,-0.71,-1.06,0.73,0.23,0.35,0.01,
3.387,-0.71,-1.06,0.73,0.22,0.36,0.01,
3.39,-0.71,-1.06,0.73,0.19,0.37,0.00,
3.391,-0.71,-1.06,0.73,0.19,0.37,0.00,
3.393,-0.71,-1.06,0.73,0.18,0.38,0.00,
3.394,-1.12,-1.02,0.44,0.18,0.38,0.00,
3.395,-1.12,-1.02,0.44,0.17,0.39,-0.00,
3.397,-1.12,-1.02,0.44,0.16,0.40,-0.01,
3.4,-1.12,-1.02,0.44,0.16,0.43,-0.01,
3.4,-1.12,-1.02,0.44,0.15,0.44,-0.01,
3.402,-1.12,-1.02,0.44,0.16,0.47,-0.01,
3.437,-1.67,-0.92,0.42,0.16,0.47,-0.01,
3.437,-1.67,-0.92,0.42,0.16,0.50,-0.01,
3.438,-1.67,-0.92,0.42,0.17,0.54,-0.00,
3.438,-1.67,-0.92,0.42,0.17,0.60,0.01,
3.438,-1.67,-0.92,0.42,0.18,0.63,0.01,
3.439,-1.67,-0.92,0.42,0.18,0.68,0.02,
3.439,-2.29,-0.56,0.16,0.18,0.68,0.02,
3.439,-2.29,-0.56,0.16,0.19,0.73,0.03,
3.439,-2.29,-0.56,0.16,0.20,0.79,0.04,
3.44,-2.29,-0.56,0.16,0.21,0.87,0.06,
3.44,-2.29,-0.56,0.16,0.21,0.90,0.06,
3.44,-2.29,-0.56,0.16,0.22,0.95,0.08,
3.441,-2.54,-0.05,-0.12,0.22,0.95,0.08,
3.441,-2.54,-0.05,-0.12,0.22,1.01,0.09,
3.441,-2.54,-0.05,-0.12,0.23,1.06,0.11,
3.441,-2.54,-0.05,-0.12,0.24,1.13,0.13,
3.442,-2.54,-0.05,-0.12,0.24,1.15,0.14,
3.442,-2.54,-0.05,-0.12,0.26,1.19,0.15,
3.442,-2.57,0.50,-0.10,0.26,1.19,0.15,
3.442,-2.57,0.50,-0.10,0.27,1.22,0.17,
3.443,-2.57,0.50,-0.10,0.29,1.25,0.18,
3.443,-2.57,0.50,-0.10,0.31,1.29,0.19,
3.443,-2.57,0.50,-0.10,0.32,1.29,0.19,
3.444,-2.57,0.50,-0.10,0.33,1.32,0.20,
3.448,-2.07,0.63,0.07,0.33,1.32,0.20,
3.449,-2.07,0.63,0.07,0.34,1.34,0.21,
3.449,-2.07,0.63,0.07,0.35,1.35,0.21,
3.45,-2.07,0.63,0.07,0.36,1.37,0.22,
3.453,-2.07,0.63,0.07,0.36,1.37,0.22,
3.453,-2.07,0.63,0.07,0.36,1.37,0.22,
3.456,-1.27,0.32,0.44,0.36,1.37,0.22,
3.457,-1.27,0.32,0.44,0.36,1.36,0.22,
3.457,-1.27,0.32,0.44,0.36,1.35,0.22,
3.46,-1.27,0.32,0.44,0.36,1.32,0.22,
3.46,-1.27,0.32,0.44,0.36,1.31,0.22,
3.463,-1.27,0.32,0.44,0.36,1.28,0.21,
3.464,-0.62,-0.32,0.68,0.36,1.28,0.21,
3.465,-0.62,-0.32,0.68,0.35,1.24,0.21,
3.466,-0.62,-0.32,0.68,0.35,1.21,0.20,
3.47,-0.62,-0.32,0.68,0.34,1.15,0.19,
3.476,-0.62,-0.32,0.68,0.34,1.13,0.19,
3.476,-0.62,-0.32,0.68,0.33,1.09,0.18,
3.476,0.08,-0.81,0.49,0.33,1.09,0.18,
3.477,0.08,-0.81,0.49,0.32,1.06,0.17,
3.478,0.08,-0.81,0.49,0.31,1.05,0.16,
3.48,0.08,-0.81,0.49,0.30,1.03,0.15,
3.511,0.08,-0.81,0.49,0.29,1.03,0.15,
3.512,0.08,-0.81,0.49,0.29,1.02,0.14,
3.513,0.49,-1.06,0.15,0.29,1.02,0.14,
3.513,0.49,-1.06,0.15,0.28,1.02,0.13,
3.513,0.49,-1.06,0.15,0.28,1.03,0.12,
3.514,0.49,-1.06,0.15,0.27,1.04,0.11,
3.514,0.49,-1.06,0.15,0.27,1.05,0.11,
3.514,0.49,-1.06,0.15,0.27,1.07,0.11,
3.515,0.67,-1.06,0.13,0.27,1.07,0.11,
3.515,0.67,-1.06,0.13,0.27,1.09,0.10,
3.516,0.67,-1.06,0.13,0.27,1.13,0.10,
3.516,0.67,-1.06,0.13,0.29,1.19,0.10,
3.516,0.67,-1.06,0.13,0.29,1.21,0.10,
3.517,0.67,-1.06,0.13,0.30,1.26,0.10,
3.517,0.48,-0.94,0.44,0.30,1.26,0.10,
3.518,0.48,-0.94,0.44,0.32,1.30,0.11,
3.518,0.48,-0.94,0.44,0.33,1.35,0.11,
3.518,0.48,-0.94,0.44,0.35,1.43,0.12,
3.519,0.48,-0.94,0.44,0.36,1.45,0.13,
3.519,0.48,-0.94,0.44,0.37,1.50,0.14,
3.52,0.24,-0.69,0.74,0.37,1.50,0.14,
3.52,0.24,-0.69,0.74,0.38,1.54,0.15,
3.521,0.24,-0.69,0.74,0.39,1.59,0.16,
3.521,0.24,-0.69,0.74,0.40,1.65,0.18,
3.522,0.24,-0.69,0.74,0.40,1.67,0.19,
3.523,0.24,-0.69,0.74,0.41,1.70,0.20,
3.529,-0.05,-0.51,0.74,0.41,1.70,0.20,
3.53,-0.05,-0.51,0.74,0.42,1.73,0.21,
3.53,-0.05,-0.51,0.74,0.42,1.76,0.22,
3.53,-0.05,-0.51,0.74,0.42,1.80,0.24,
3.531,-0.05,-0.51,0.74,0.42,1.81,0.25,
3.533,-0.05,-0.51,0.74,0.43,1.84,0.26,
3.535,-0.16,-0.56,0.58,0.43,1.84,0.26,
3.536,-0.16,-0.56,0.58,0.43,1.86,0.27,
3.548,-0.16,-0.56,0.58,0.43,1.87,0.28,
3.55,-0.16,-0.56,0.58,0.43,1.90,0.28,
3.55,-0.16,-0.56,0.58,0.43,1.91,0.29,
3.551,-0.16,-0.56,0.58,0.43,1.93,0.29,
3.551,-0.05,-0.67,0.31,0.43,1.93,0.29,
3.552,-0.05,-0.67,0.31,0.43,1.95,0.30,
3.552,-0.05,-0.67,0.31,0.43,1.97,0.30,
3.553,-0.05,-0.67,0.31,0.42,1.99,0.30,
3.554,-0.05,-0.67,0.31,0.42,2.00,0.30,
3.554,-0.05,-0.67,0.31,0.42,2.01,0.30,
3.557,0.39,-0.65,0.23,0.42,2.01,0.30,
3.559,0.39,-0.65,0.23,0.42,2.03,0.30,
3.56,0.39,-0.65,0.23,0.42,2.04,0.30,
3.56,0.39,-0.65,0.23,0.43,2.05,0.29,
3.576,0.39,-0.65,0.23,0.43,2.06,0.29,
3.578,0.39,-0.65,0.23,0.43,2.07,0.28,
3.579,0.97,-0.59,0.42,0.43,2.07,0.28,
3.579,0.97,-0.59,0.42,0.43,2.09,0.26,
3.58,0.97,-0.59,0.42,0.43,2.12,0.25,
3.581,0.97,-0.59,0.42,0.44,2.15,0.24,
3.609,0.97,-0.59,0.42,0.45,2.15,0.24,
3.609,0.97,-0.59,0.42,0.45,2.15,0.24,
3.61,1.16,-0.46,0.74,0.45,2.15,0.24,
3.61,1.16,-0.46,0.74,0.46,2.14,0.24,
3.61,1.16,-0.46,0.74,0.46,2.14,0.24,
3.61,1.16,-0.46,0.74,0.47,2.13,0.24,
3.611,1.16,-0.46,0.74,0.47,2.13,0.24,
3.611,1.16,-0.46,0.74,0.47,2.12,0.25,
3.611,1.15,-0.43,0.71,0.47,2.12,0.25,
3.612,1.15,-0.43,0.71,0.47,2.11,0.25,
3.612,1.15,-0.43,0.71,0.46,2.11,0.25,
3.612,1.15,-0.43,0.71,0.46,2.10,0.25,
3.612,1.15,-0.43,0.71,0.46,2.10,0.25,
3.613,1.15,-0.43,0.71,0.46,2.10,0.25,
3.613,1.26,-0.68,0.51,0.46,2.10,0.25,
3.613,1.26,-0.68,0.51,0.46,2.11,0.25,
3.614,1.26,-0.68,0.51,0.45,2.11,0.25,
3.614,1.26,-0.68,0.51,0.45,2.12,0.26,
3.614,1.26,-0.68,0.51,0.45,2.13,0.26,
3.614,1.26,-0.68,0.51,0.44,2.14,0.26,
3.615,1.37,-0.88,0.36,0.44,2.14,0.26,
3.615,1.37,-0.88,0.36,0.43,2.16,0.26,
3.615,1.37,-0.88,0.36,0.43,2.17,0.26,
3.615,1.37,-0.88,0.36,0.42,2.19,0.27,
3.616,1.37,-0.88,0.36,0.42,2.20,0.27,
3.616,1.37,-0.88,0.36,0.41,2.21,0.28,
3.616,1.34,-0.92,0.27,0.41,2.21,0.28,
3.617,1.34,-0.92,0.27,0.40,2.23,0.30,
3.617,1.34,-0.92,0.27,0.40,2.23,0.30,
3.621,1.34,-0.92,0.27,0.39,2.24,0.33,
3.622,1.34,-0.92,0.27,0.39,2.24,0.34,
3.623,1.34,-0.92,0.27,0.38,2.25,0.35,
3.627,1.10,-0.78,0.21,0.38,2.25,0.35,
3.628,1.10,-0.78,0.21,0.37,2.26,0.36,
3.628,1.10,-0.78,0.21,0.36,2.26,0.37,
3.63,1.10,-0.78,0.21,0.35,2.27,0.39,
3.631,1.10,-0.78,0.21,0.35,2.27,0.39,
3.633,1.10,-0.78,0.21,0.34,2.28,0.40,
3.634,1.14,-0.73,0.37,0.34,2.28,0.40,
3.635,1.14,-0.73,0.37,0.34,2.28,0.41,
3.637,1.14,-0.73,0.37,0.33,2.29,0.42,
3.642,1.14,-0.73,0.37,0.32,2.30,0.42,
3.642,1.14,-0.73,0.37,0.32,2.31,0.42,
3.643,1.14,-0.73,0.37,0.31,2.32,0.42,
3.647,1.32,-0.74,0.52,0.31,2.32,0.42,
3.648,1.32,-0.74,0.52,0.30,2.33,0.43,
3.648,1.32,-0.74,0.52,0.29,2.33,0.44,
3.652,1.32,-0.74,0.52,0.29,2.33,0.44,
3.652,1.32,-0.74,0.52,0.29,2.34,0.44,
3.653,1.32,-0.74,0.52,0.28,2.34,0.44,
3.656,1.52,-0.81,0.76,0.28,2.34,0.44,
3.657,1.52,-0.81,0.76,0.28,2.34,0.43,
3.657,1.52,-0.81,0.76,0.27,2.34,0.43,
3.66,1.52,-0.81,0.76,0.26,2.33,0.42,
3.665,1.52,-0.81,0.76,0.26,2.33,0.42,
3.665,1.52,-0.81,0.76,0.25,2.32,0.42,
3.666,1.63,-1.06,0.74,0.25,2.32,0.42,
3.666,1.63,-1.06,0.74,0.24,2.31,0.42,
3.667,1.63,-1.06,0.74,0.24,2.30,0.42,
3.671,1.63,-1.06,0.74,0.22,2.30,0.42,
3.671,1.63,-1.06,0.74,0.22,2.30,0.41,
3.673,1.63,-1.06,0.74,0.21,2.30,0.41,
3.675,1.69,-1.30,0.74,0.21,2.30,0.41,
3.675,1.69,-1.30,0.74,0.21,2.30,0.41,
3.677,1.69,-1.30,0.74,0.21,2.30,0.41,
3.679,1.69,-1.30,0.74,0.21,2.32,0.40,
3.681,1.69,-1.30,0.74,0.21,2.33,0.40,
3.683,1.69,-1.30,0.74,0.21,2.35,0.40,
3.684,1.58,-1.34,0.81,0.21,2.35,0.40,
3.685,1.58,-1.34,0.81,0.21,2.36,0.40,
3.69,1.58,-1.34,0.81,0.22,2.37,0.40,
3.691,1.58,-1.34,0.81,0.21,2.39,0.40,
3.691,1.58,-1.34,0.81,0.21,2.40,0.40,
3.693,1.58,-1.34,0.81,0.21,2.41,0.40,
3.695,1.51,-1.16,0.64,0.21,2.41,0.40,
3.695,1.51,-1.16,0.64,0.21,2.43,0.40,
3.697,1.51,-1.16,0.64,0.21,2.44,0.40,
3.7,1.51,-1.16,0.64,0.21,2.46,0.41,
3.701,1.51,-1.16,0.64,0.21,2.47,0.41,
3.719,1.51,-1.16,0.64,0.21,2.48,0.42,
3.721,1.34,-0.79,0.54,0.21,2.48,0.42,
3.722,1.34,-0.79,0.54,0.20,2.49,0.43,
3.722,1.34,-0.79,0.54,0.20,2.51,0.44,
3.723,1.34,-0.79,0.54,0.19,2.52,0.45,
3.724,1.34,-0.79,0.54,0.18,2.54,0.46,
3.724,1.34,-0.79,0.54,0.18,2.54,0.46,
3.725,1.16,-0.48,0.44,0.18,2.54,0.46,
3.726,1.16,-0.48,0.44,0.17,2.55,0.47,
3.726,1.16,-0.48,0.44,0.15,2.56,0.48,
3.727,1.16,-0.48,0.44,0.14,2.57,0.49,
3.727,1.16,-0.48,0.44,0.13,2.57,0.50,
3.728,1.16,-0.48,0.44,0.11,2.57,0.51,
3.735,1.07,-0.31,0.37,0.11,2.57,0.51,
3.736,1.07,-0.31,0.37,0.10,2.58,0.52,
3.736,1.07,-0.31,0.37,0.09,2.58,0.52,
3.736,1.07,-0.31,0.37,0.07,2.57,0.54,
3.737,1.07,-0.31,0.37,0.07,2.57,0.54,
3.737,1.07,-0.31,0.37,0.06,2.57,0.54,
3.743,1.10,-0.36,0.62,0.06,2.57,0.54,
3.744,1.10,-0.36,0.62,0.05,2.57,0.55,
3.768,1.10,-0.36,0.62,0.05,2.57,0.56,
3.768,1.10,-0.36,0.62,0.04,2.58,0.56,
3.768,1.10,-0.36,0.62,0.03,2.58,0.57,
3.769,1.10,-0.36,0.62,0.03,2.59,0.57,
3.769,1.17,-0.46,0.74,0.03,2.59,0.57,
3.769,1.17,-0.46,0.74,0.02,2.60,0.57,
3.769,1.17,-0.46,0.74,0.02,2.60,0.57,
3.77,1.17,-0.46,0.74,0.01,2.61,0.58,
3.77,1.17,-0.46,0.74,-0.00,2.61,0.58,
3.77,1.17,-0.46,0.74,-0.00,2.61,0.58,
3.771,1.44,-0.64,0.68,-0.00,2.61,0.58,
3.771,1.44,-0.64,0.68,-0.01,2.61,0.58,
3.771,1.44,-0.64,0.68,-0.02,2.60,0.58,
3.771,1.44,-0.64,0.68,-0.03,2.58,0.58,
3.772,1.44,-0.64,0.68,-0.03,2.58,0.58,
3.772,1.44,-0.64,0.68,-0.03,2.57,0.58,
3.772,1.74,-0.85,0.78,-0.03,2.57,0.58,
3.773,1.74,-0.85,0.78,-0.04,2.56,0.58,
3.773,1.74,-0.85,0.78,-0.04,2.56,0.57,
3.773,1.74,-0.85,0.78,-0.04,2.55,0.57,
3.773,1.74,-0.85,0.78,-0.04,2.55,0.57,
3.774,1.74,-0.85,0.78,-0.04,2.54,0.56,
3.776,2.21,-0.98,1.00,-0.04,2.54,0.56,
3.777,2.21,-0.98,1.00,-0.04,2.54,0.56,
3.777,2.21,-0.98,1.00,-0.05,2.53,0.55,
3.78,2.21,-0.98,1.00,-0.05,2.52,0.55,
3.781,2.21,-0.98,1.00,-0.05,2.52,0.54,
3.783,2.21,-0.98,1.00,-0.06,2.51,0.54,
3.784,2.51,-0.95,0.93,-0.06,2.51,0.54,
3.785,2.51,-0.95,0.93,-0.06,2.50,0.53,
3.787,2.51,-0.95,0.93,-0.06,2.49,0.52,
3.79,2.51,-0.95,0.93,-0.05,2.48,0.52,
3.791,2.51,-0.95,0.93,-0.05,2.47,0.52,
3.793,2.51,-0.95,0.93,-0.04,2.47,0.52,
3.794,2.62,-0.73,1.19,-0.04,2.47,0.52,
3.795,2.62,-0.73,1.19,-0.04,2.46,0.52,
3.796,2.62,-0.73,1.19,-0.03,2.45,0.52,
3.799,2.62,-0.73,1.19,-0.02,2.43,0.53,
3.801,2.62,-0.73,1.19,-0.01,2.43,0.53,
3.803,2.62,-0.73,1.19,-0.00,2.41,0.54,
3.805,2.31,-0.43,1.27,-0.00,2.41,0.54,
3.806,2.31,-0.43,1.27,0.00,2.40,0.55,
3.807,2.31,-0.43,1.27,0.01,2.38,0.56,
3.81,2.31,-0.43,1.27,0.00,2.34,0.58,
3.811,2.31,-0.43,1.27,0.00,2.33,0.59,
3.812,2.31,-0.43,1.27,-0.00,2.31,0.60,
3.814,2.12,-0.36,1.05,-0.00,2.31,0.60,
3.815,2.12,-0.36,1.05,-0.01,2.29,0.61,
3.817,2.12,-0.36,1.05,-0.01,2.26,0.62,
3.82,2.12,-0.36,1.05,-0.03,2.22,0.64,
3.823,2.12,-0.36,1.05,-0.03,2.21,0.64,
3.824,2.12,-0.36,1.05,-0.05,2.18,0.65,
3.825,1.98,-0.47,0.83,-0.05,2.18,0.65,
3.825,1.98,-0.47,0.83,-0.06,2.15,0.66,
3.827,1.98,-0.47,0.83,-0.08,2.13,0.68,
3.829,1.98,-0.47,0.83,-0.10,2.09,0.69,
3.831,1.98,-0.47,0.83,-0.11,2.07,0.70,
3.833,1.98,-0.47,0.83,-0.12,2.06,0.70,
3.834,1.91,-0.58,0.64,-0.12,2.06,0.70,
3.835,1.91,-0.58,0.64,-0.14,2.04,0.71,
3.837,1.91,-0.58,0.64,-0.15,2.02,0.72,
3.84,1.91,-0.58,0.64,-0.18,2.00,0.73,
3.841,1.91,-0.58,0.64,-0.19,1.99,0.74,
3.843,1.91,-0.58,0.64,-0.20,1.98,0.75,
3.845,1.69,-0.58,0.40,-0.20,1.98,0.75,
3.846,1.69,-0.58,0.40,-0.21,1.97,0.76,
3.849,1.69,-0.58,0.40,-0.22,1.95,0.77,
3.85,1.69,-0.58,0.40,-0.23,1.94,0.78,
3.853,1.69,-0.58,0.40,-0.23,1.93,0.79,
3.853,1.69,-0.58,0.40,-0.24,1.93,0.80,
3.861,1.53,-0.48,0.40,-0.24,1.93,0.80,
3.861,1.53,-0.48,0.40,-0.25,1.92,0.80,
3.861,1.53,-0.48,0.40,-0.26,1.91,0.81,
3.862,1.53,-0.48,0.40,-0.27,1.90,0.82,
3.862,1.53,-0.48,0.40,-0.27,1.90,0.82,
3.869,1.53,-0.48,0.40,-0.28,1.90,0.83,
3.869,1.44,-0.27,0.65,-0.28,1.90,0.83,
3.869,1.44,-0.27,0.65,-0.28,1.90,0.83,
3.87,1.44,-0.27,0.65,-0.28,1.91,0.84,
3.882,1.44,-0.27,0.65,-0.29,1.90,0.84,
3.882,1.44,-0.27,0.65,-0.29,1.90,0.84,
3.883,1.44,-0.27,0.65,-0.29,1.90,0.84,
3.883,1.58,-0.19,1.05,-0.29,1.90,0.84,
3.883,1.58,-0.19,1.05,-0.29,1.89,0.84,
3.883,1.58,-0.19,1.05,-0.29,1.88,0.84,
3.883,1.58,-0.19,1.05,-0.29,1.86,0.84,
3.883,1.58,-0.19,1.05,-0.29,1.84,0.83,
3.884,1.58,-0.19,1.05,-0.29,1.84,0.83,
3.885,1.87,-0.15,1.29,-0.29,1.84,0.83,
3.886,1.87,-0.15,1.29,-0.29,1.83,0.83,
3.889,1.87,-0.15,1.29,-0.28,1.82,0.82,
3.893,1.87,-0.15,1.29,-0.28,1.80,0.82,
3.895,1.87,-0.15,1.29,-0.28,1.80,0.82,
3.898,1.87,-0.15,1.29,-0.28,1.79,0.82,
3.898,2.15,-0.17,1.24,-0.28,1.79,0.82,
3.899,2.15,-0.17,1.24,-0.29,1.78,0.82,
3.899,2.15,-0.17,1.24,-0.29,1.77,0.81,
3.904,2.15,-0.17,1.24,-0.31,1.76,0.81,
3.905,2.15,-0.17,1.24,-0.31,1.75,0.81,
3.905,2.15,-0.17,1.24,-0.32,1.75,0.81,
3.932,2.18,-0.41,0.85,-0.32,1.75,0.81,
3.933,2.18,-0.41,0.85,-0.34,1.75,0.81,
3.933,2.18,-0.41,0.85,-0.35,1.75,0.81,
3.933,2.18,-0.41,0.85,-0.37,1.76,0.82,
3.933,2.18,-0.41,0.85,-0.38,1.76,0.82,
3.934,2.18,-0.41,0.85,-0.40,1.77,0.83,
3.934,2.03,-0.76,0.45,-0.40,1.77,0.83,
3.934,2.03,-0.76,0.45,-0.42,1.78,0.83,
3.935,2.03,-0.76,0.45,-0.44,1.79,0.84,
3.935,2.03,-0.76,0.45,-0.47,1.81,0.84,
3.935,2.03,-0.76,0.45,-0.49,1.83,0.85,
3.935,2.03,-0.76,0.45,-0.50,1.84,0.86,
3.936,1.59,-1.02,0.21,-0.50,1.84,0.86,
3.936,1.59,-1.02,0.21,-0.52,1.85,0.87,
3.936,1.59,-1.02,0.21,-0.53,1.88,0.88,
3.937,1.59,-1.02,0.21,-0.56,1.91,0.89,
3.937,1.59,-1.02,0.21,-0.58,1.94,0.90,
3.937,1.59,-1.02,0.21,-0.59,1.95,0.90,
3.937,1.24,-0.95,0.15,-0.59,1.95,0.90,
3.938,1.24,-0.95,0.15,-0.61,1.97,0.91,
3.938,1.24,-0.95,0.15,-0.62,2.00,0.92,
3.942,1.24,-0.95,0.15,-0.65,2.04,0.94,
3.943,1.24,-0.95,0.15,-0.67,2.06,0.94,
3.944,1.24,-0.95,0.15,-0.68,2.08,0.95,
3.947,1.03,-0.54,0.36,-0.68,2.08,0.95,
3.948,1.03,-0.54,0.36,-0.69,2.11,0.96,
3.948,1.03,-0.54,0.36,-0.71,2.14,0.97,
3.952,1.03,-0.54,0.36,-0.73,2.18,0.98,
3.952,1.03,-0.54,0.36,-0.75,2.21,0.99,
3.953,1.03,-0.54,0.36,-0.76,2.23,1.00,
3.958,0.97,-0.04,0.75,-0.76,2.23,1.00,
3.959,0.97,-0.04,0.75,-0.77,2.25,1.00,
3.959,0.97,-0.04,0.75,-0.78,2.27,1.01,
3.963,0.97,-0.04,0.75,-0.80,2.31,1.03,
3.964,0.97,-0.04,0.75,-0.81,2.32,1.04,
3.964,0.97,-0.04,0.75,-0.81,2.33,1.05,
3.964,0.82,0.46,1.33,-0.81,2.33,1.05,
3.964,0.82,0.46,1.33,-0.81,2.34,1.06,
3.968,0.82,0.46,1.33,-0.82,2.35,1.07,
3.973,0.82,0.46,1.33,-0.82,2.36,1.09,
3.974,0.82,0.46,1.33,-0.82,2.36,1.10,
3.976,0.82,0.46,1.33,-0.82,2.36,1.10,
3.977,0.75,0.81,1.94,-0.82,2.36,1.10,
3.977,0.75,0.81,1.94,-0.82,2.36,1.11,
3.978,0.75,0.81,1.94,-0.82,2.36,1.13,
3.982,0.75,0.81,1.94,-0.82,2.35,1.14,
3.982,0.75,0.81,1.94,-0.82,2.34,1.16,
3.985,0.75,0.81,1.94,-0.82,2.34,1.16,
3.994,0.91,1.00,2.15,-0.82,2.34,1.16,
3.995,0.91,1.00,2.15,-0.82,2.33,1.17,
3.996,0.91,1.00,2.15,-0.82,2.33,1.18,
3.996,0.91,1.00,2.15,-0.83,2.32,1.19,
3.998,0.91,1.00,2.15,-0.83,2.31,1.20,
3.999,0.91,1.00,2.15,-0.83,2.31,1.21,
3.999,1.22,0.90,2.13,-0.83,2.31,1.21,
3.999,1.22,0.90,2.13,-0.83,2.30,1.22,
4.016,1.22,0.90,2.13,-0.83,2.29,1.22,
4.017,1.22,0.90,2.13,-0.83,2.29,1.23,
4.017,1.22,0.90,2.13,-0.84,2.28,1.24,
4.018,1.22,0.90,2.13,-0.84,2.28,1.24,
4.018,1.66,0.64,2.04,-0.84,2.28,1.24,
4.018,1.66,0.64,2.04,-0.85,2.27,1.24,
4.018,1.66,0.64,2.04,-0.86,2.26,1.24,
4.018,1.66,0.64,2.04,-0.88,2.26,1.25,
4.019,1.66,0.64,2.04,-0.88,2.26,1.26,
4.019,1.66,0.64,2.04,-0.89,2.26,1.26,
4.019,2.00,0.21,2.11,-0.89,2.26,1.26,
4.019,2.00,0.21,2.11,-0.90,2.26,1.27,
4.02,2.00,0.21,2.11,-0.91,2.27,1.28,
4.02,2.00,0.21,2.11,-0.93,2.27,1.29,
4.021,2.00,0.21,2.11,-0.94,2.27,1.30,
4.023,2.00,0.21,2.11,-0.95,2.27,1.30,
4.024,2.39,-0.18,2.28,-0.95,2.27,1.30,
4.025,2.39,-0.18,2.28,-0.97,2.26,1.30,
4.027,2.39,-0.18,2.28,-0.99,2.26,1.31,
4.03,2.39,-0.18,2.28,-1.02,2.26,1.31,
4.031,2.39,-0.18,2.28,-1.05,2.27,1.31,
4.032,2.39,-0.18,2.28,-1.06,2.27,1.31,
4.038,2.87,-0.49,2.46,-1.06,2.27,1.31,
4.039,2.87,-0.49,2.46,-1.10,2.27,1.30,
4.039,2.87,-0.49,2.46,-1.13,2.27,1.31,
4.041,2.87,-0.49,2.46,-1.19,2.28,1.30,
4.042,2.87,-0.49,2.46,-1.23,2.28,1.30,
4.05,2.87,-0.49,2.46,-1.25,2.28,1.30,
4.051,3.13,-0.60,2.56,-1.25,2.28,1.30,
4.051,3.13,-0.60,2.56,-1.29,2.28,1.29,
4.052,3.13,-0.60,2.56,-1.33,2.28,1.29,
4.054,3.13,-0.60,2.56,-1.39,2.28,1.29,
4.058,3.13,-0.60,2.56,-1.42,2.28,1.28,
4.059,3.13,-0.60,2.56,-1.44,2.29,1.28,
4.06,3.38,-0.61,2.99,-1.44,2.29,1.28,
4.06,3.38,-0.61,2.99,-1.47,2.29,1.28,
4.061,3.38,-0.61,2.99,-1.49,2.29,1.27,
4.062,3.38,-0.61,2.99,-1.53,2.28,1.27,
4.062,3.38,-0.61,2.99,-1.54,2.28,1.27,
4.068,3.38,-0.61,2.99,-1.55,2.28,1.27,
4.069,3.35,-0.21,3.70,-1.55,2.28,1.27,
4.069,3.35,-0.21,3.70,-1.56,2.27,1.27,
4.07,3.35,-0.21,3.70,-1.57,2.27,1.27,
4.071,3.35,-0.21,3.70,-1.57,2.27,1.28,
4.102,3.35,-0.21,3.70,-1.57,2.26,1.28,
4.102,3.35,-0.21,3.70,-1.57,2.26,1.28,
4.102,3.03,0.35,4.43,-1.57,2.26,1.28,
4.103,3.03,0.35,4.43,-1.57,2.26,1.29,
4.103,3.03,0.35,4.43,-1.57,2.25,1.30,
4.104,3.03,0.35,4.43,-1.57,2.25,1.31,
4.104,3.03,0.35,4.43,-1.57,2.25,1.31,
4.105,3.03,0.35,4.43,-1.57,2.25,1.32,
4.105,2.43,1.08,4.49,-1.57,2.25,1.32,
4.106,2.43,1.08,4.49,-1.57,2.25,1.33,
4.106,2.43,1.08,4.49,-1.57,2.25,1.34,
4.106,2.43,1.08,4.49,-1.57,2.25,1.35,
4.107,2.43,1.08,4.49,-1.58,2.25,1.36,
4.107,2.43,1.08,4.49,-1.58,2.25,1.37,
4.108,1.85,1.65,4.31,-1.58,2.25,1.37,
4.108,1.85,1.65,4.31,-1.59,2.25,1.38,
4.109,1.85,1.65,4.31,-1.59,2.25,1.39,
4.109,1.85,1.65,4.31,-1.60,2.25,1.41,
4.109,1.85,1.65,4.31,-1.61,2.25,1.42,
4.11,1.85,1.65,4.31,-1.61,2.26,1.43,
4.11,1.45,2.04,3.97,-1.61,2.26,1.43,
4.111,1.45,2.04,3.97,-1.62,2.27,1.44,
4.111,1.45,2.04,3.97,-1.63,2.29,1.46,
4.114,1.45,2.04,3.97,-1.64,2.34,1.48,
4.114,1.45,2.04,3.97,-1.65,2.38,1.49,
4.115,1.45,2.04,3.97,-1.66,2.40,1.50,
4.116,1.09,2.04,3.86,-1.66,2.40,1.50,
4.116,1.09,2.04,3.86,-1.67,2.45,1.51,
4.124,1.09,2.04,3.86,-1.68,2.51,1.53,
4.124,1.09,2.04,3.86,-1.70,2.60,1.56,
4.125,1.09,2.04,3.86,-1.72,2.67,1.58,
4.125,1.09,2.04,3.86,-1.73,2.74,1.61,
4.126,0.59,1.88,4.21,-1.73,2.74,1.61,
4.129,0.59,1.88,4.21,-1.73,2.81,1.63,
4.129,0.59,1.88,4.21,-1.74,2.87,1.65,
4.13,0.59,1.88,4.21,-1.74,2.97,1.69,
4.134,0.59,1.88,4.21,-1.74,2.99,1.70,
4.135,0.59,1.88,4.21,-1.73,3.05,1.72,
4.135,-0.19,1.83,6.06,-1.73,3.05,1.72,
4.136,-0.19,1.83,6.06,-1.72,3.12,1.73,
4.139,-0.19,1.83,6.06,-1.71,3.17,1.74,
4.14,-0.19,1.83,6.06,-1.69,3.24,1.76,
4.141,-0.19,1.83,6.06,-1.69,3.26,1.76,
4.143,-0.19,1.83,6.06,-1.68,3.30,1.76,
4.146,-0.56,1.98,7.48,-1.68,3.30,1.76,
4.147,-0.56,1.98,7.48,-1.67,3.34,1.76,
4.147,-0.56,1.98,7.48,-1.67,3.37,1.76,
4.15,-0.56,1.98,7.48,-1.67,3.40,1.77,
4.158,-0.56,1.98,7.48,-1.67,3.43,1.76,
4.158,-0.56,1.98,7.48,-1.67,3.45,1.77,
4.159,-1.00,2.18,7.98,-1.67,3.45,1.77,
4.159,-1.00,2.18,7.98,-1.68,3.47,1.76,
4.16,-1.00,2.18,7.98,-1.69,3.49,1.76,
4.16,-1.00,2.18,7.98,-1.71,3.51,1.77,
4.161,-1.00,2.18,7.98,-1.72,3.52,1.77,
4.18,-1.00,2.18,7.98,-1.73,3.54,1.77,
4.181,-0.94,2.35,7.51,-1.73,3.54,1.77,
4.181,-0.94,2.35,7.51,-1.75,3.57,1.77,
4.181,-0.94,2.35,7.51,-1.78,3.59,1.77,
4.182,-0.94,2.35,7.51,-1.80,3.62,1.77,
4.182,-0.94,2.35,7.51,-1.83,3.65,1.78,
4.182,-0.94,2.35,7.51,-1.86,3.68,1.79,
4.183,-0.80,2.18,6.85,-1.86,3.68,1.79,
4.183,-0.80,2.18,6.85,-1.89,3.71,1.80,
4.183,-0.80,2.18,6.85,-1.92,3.74,1.81,
4.183,-0.80,2.18,6.85,-1.96,3.75,1.82,
4.184,-0.80,2.18,6.85,-1.98,3.76,1.83,
4.184,-0.80,2.18,6.85,-2.01,3.76,1.85,
4.186,-0.34,1.94,5.84,-2.01,3.76,1.85,
4.187,-0.34,1.94,5.84,-2.04,3.75,1.86,
4.188,-0.34,1.94,5.84,-2.07,3.73,1.88,
4.191,-0.34,1.94,5.84,-2.09,3.70,1.90,
4.192,-0.34,1.94,5.84,-2.10,3.68,1.92,
4.193,-0.34,1.94,5.84,-2.10,3.65,1.93,
4.195,0.37,1.70,5.31,-2.10,3.65,1.93,
4.195,0.37,1.70,5.31,-2.10,3.62,1.95,
4.197,0.37,1.70,5.31,-2.08,3.58,1.96,
4.2,0.37,1.70,5.31,-2.05,3.54,1.98,
4.202,0.37,1.70,5.31,-2.01,3.51,1.98,
4.203,0.37,1.70,5.31,-1.97,3.46,1.98,
4.205,2.20,1.86,5.40,-1.97,3.46,1.98,
4.206,2.20,1.86,5.40,-1.92,3.42,1.98,
4.207,2.20,1.86,5.40,-1.86,3.36,1.98,
4.21,2.20,1.86,5.40,-1.79,3.31,1.98,
4.211,2.20,1.86,5.40,-1.72,3.24,1.97,
4.213,2.20,1.86,5.40,-1.66,3.18,1.96,
4.214,4.41,2.30,5.11,-1.66,3.18,1.96,
4.215,4.41,2.30,5.11,-1.60,3.11,1.95,
4.218,4.41,2.30,5.11,-1.54,3.05,1.95,
4.22,4.41,2.30,5.11,-1.46,2.95,1.93,
4.221,4.41,2.30,5.11,-1.44,2.92,1.92,
4.223,4.41,2.30,5.11,-1.40,2.85,1.90,
4.225,6.35,3.07,3.28,-1.40,2.85,1.90,
4.225,6.35,3.07,3.28,-1.37,2.79,1.88,
4.227,6.35,3.07,3.28,-1.36,2.74,1.86,
4.231,6.35,3.07,3.28,-1.36,2.70,1.83,
4.231,6.35,3.07,3.28,-1.37,2.66,1.81,
4.233,6.35,3.07,3.28,-1.41,2.62,1.79,
4.235,8.42,3.56,0.10,-1.41,2.62,1.79,
4.235,8.42,3.56,0.10,-1.46,2.57,1.77,
4.265,8.42,3.56,0.10,-1.52,2.51,1.75,
4.266,8.42,3.56,0.10,-1.61,2.40,1.73,
4.266,8.42,3.56,0.10,-1.65,2.35,1.73,
4.267,8.42,3.56,0.10,-1.72,2.25,1.72,
4.267,9.32,4.04,-2.49,-1.72,2.25,1.72,
4.268,9.32,4.04,-2.49,-1.79,2.10,1.72,
4.268,9.32,4.04,-2.49,-1.87,1.93,1.73,
4.268,9.32,4.04,-2.49,-1.95,1.74,1.74,
4.269,9.32,4.04,-2.49,-2.04,1.52,1.77,
4.269,9.32,4.04,-2.49,-2.13,1.28,1.80,
4.27,8.42,4.88,-5.02,-2.13,1.28,1.80,
4.27,8.42,4.88,-5.02,-2.24,1.01,1.83,
4.271,8.42,4.88,-5.02,-2.37,0.74,1.87,
4.271,8.42,4.88,-5.02,-2.51,0.44,1.90,
4.271,8.42,4.88,-5.02,-2.67,0.14,1.92,
4.272,8.42,4.88,-5.02,-2.84,-0.16,1.93,
4.272,6.90,5.25,-10.20,-2.84,-0.16,1.93,
4.273,6.90,5.25,-10.20,-3.01,-0.45,1.92,
4.273,6.90,5.25,-10.20,-3.19,-0.72,1.91,
4.274,6.90,5.25,-10.20,-3.43,-1.03,1.86,
4.274,6.90,5.25,-10.20,-3.51,-1.11,1.84,
4.274,6.90,5.25,-10.20,-3.63,-1.22,1.80,
4.275,8.73,4.14,-13.57,-3.63,-1.22,1.80,
4.276,8.73,4.14,-13.57,-3.73,-1.25,1.77,
4.278,8.73,4.14,-13.57,-3.79,-1.21,1.73,
4.283,8.73,4.14,-13.57,-3.83,-1.10,1.72,
4.284,8.73,4.14,-13.57,-3.83,-0.95,1.71,
4.284,8.73,4.14,-13.57,-3.81,-0.76,1.71,
4.285,9.69,2.94,-10.82,-3.81,-0.76,1.71,
4.285,9.69,2.94,-10.82,-3.77,-0.54,1.73,
4.289,9.69,2.94,-10.82,-3.72,-0.32,1.76,
4.294,9.69,2.94,-10.82,-3.64,-0.02,1.81,
4.294,9.69,2.94,-10.82,-3.62,0.06,1.83,
4.295,9.69,2.94,-10.82,-3.59,0.17,1.85,
4.295,7.30,3.88,-6.66,-3.59,0.17,1.85,
4.295,7.30,3.88,-6.66,-3.59,0.22,1.86,
4.298,7.30,3.88,-6.66,-3.63,0.22,1.87,
4.302,7.30,3.88,-6.66,-3.72,0.12,1.88,
4.302,7.30,3.88,-6.66,-3.76,0.08,1.88,
4.304,7.30,3.88,-6.66,-3.85,-0.00,1.89,
4.305,3.60,4.56,-4.89,-3.85,-0.00,1.89,
4.307,3.60,4.56,-4.89,-3.94,-0.06,1.91,
4.307,3.60,4.56,-4.89,-4.03,-0.11,1.93,
4.31,3.60,4.56,-4.89,-4.12,-0.14,1.96,
4.31,3.60,4.56,-4.89,-4.20,-0.17,2.00,
4.313,3.60,4.56,-4.89,-4.27,-0.18,2.04,
4.314,0.54,3.57,-4.72,-4.27,-0.18,2.04,
4.315,0.54,3.57,-4.72,-4.34,-0.19,2.08,
4.327,0.54,3.57,-4.72,-4.40,-0.20,2.13,
4.328,0.54,3.57,-4.72,-4.44,-0.22,2.16,
4.328,0.54,3.57,-4.72,-4.48,-0.26,2.19,
4.328,0.54,3.57,-4.72,-4.50,-0.33,2.21,
4.329,-1.58,2.32,-5.25,-4.50,-0.33,2.21,
4.329,-1.58,2.32,-5.25,-4.52,-0.43,2.21,
4.329,-1.58,2.32,-5.25,-4.52,-0.57,2.21,
4.33,-1.58,2.32,-5.25,-4.48,-0.84,2.19,
4.331,-1.58,2.32,-5.25,-4.45,-0.93,2.18,
4.333,-1.58,2.32,-5.25,-4.39,-1.12,2.18,
4.342,-5.71,2.88,-8.47,-4.39,-1.12,2.18,
4.343,-5.71,2.88,-8.47,-4.30,-1.31,2.18,
4.343,-5.71,2.88,-8.47,-4.19,-1.49,2.19,
4.343,-5.71,2.88,-8.47,-4.03,-1.71,2.21,
4.344,-5.71,2.88,-8.47,-3.98,-1.76,2.22,
4.344,-5.71,2.88,-8.47,-3.88,-1.84,2.23,
4.345,-12.08,3.73,-16.52,-3.88,-1.84,2.23,
4.347,-12.08,3.73,-16.52,-3.76,-1.92,2.25,
4.347,-12.08,3.73,-16.52,-3.71,-1.92,2.25,
4.351,-12.08,3.73,-16.52,-3.62,-1.80,2.25,
4.352,-12.08,3.73,-16.52,-3.59,-1.72,2.25,
4.356,-12.08,3.73,-16.52,-3.55,-1.48,2.25,
4.357,-18.90,4.11,-25.24,-3.55,-1.48,2.25,
4.358,-18.90,4.11,-25.24,-3.51,-1.13,2.25,
4.358,-18.90,4.11,-25.24,-3.45,-0.69,2.24,
4.361,-18.90,4.11,-25.24,-3.35,0.15,2.24,
4.362,-18.90,4.11,-25.24,-3.30,0.46,2.25,
4.362,-18.90,4.11,-25.24,-3.21,1.07,2.27,
4.366,-25.50,0.71,-28.37,-3.21,1.07,2.27,
4.371,-25.50,0.71,-28.37,-2.99,2.11,2.35,
4.372,-25.50,0.71,-28.37,-2.99,2.11,2.35,
4.373,-25.50,0.71,-28.37,-2.85,2.56,2.50,
4.373,-25.50,0.71,-28.37,-2.80,2.63,2.58,
4.373,-25.50,0.71,-28.37,-2.73,2.61,2.77,
4.375,-30.95,-2.04,-23.02,-2.73,2.61,2.77,
4.375,-30.95,-2.04,-23.02,-2.68,2.35,2.98,
4.379,-30.95,-2.04,-23.02,-2.67,1.89,3.17,
4.38,-30.95,-2.04,-23.02,-2.73,1.16,3.35,
4.382,-30.95,-2.04,-23.02,-2.75,0.95,3.38,
4.383,-30.95,-2.04,-23.02,-2.79,0.64,3.42,
4.392,-11.87,0.90,-19.56,-2.79,0.64,3.42,
4.393,-11.87,0.90,-19.56,-2.82,0.46,3.43,
4.393,-11.87,0.90,-19.56,-2.84,0.40,3.42,
4.393,-11.87,0.90,-19.56,-2.83,0.43,3.39,
4.394,-11.87,0.90,-19.56,-2.83,0.47,3.37,
4.394,-11.87,0.90,-19.56,-2.82,0.54,3.33,
4.394,7.41,3.87,-16.06,-2.82,0.54,3.33,
4.395,7.41,3.87,-16.06,-2.82,0.61,3.30,
4.399,7.41,3.87,-16.06,-2.83,0.66,3.30,
4.4,7.41,3.87,-16.06,-2.87,0.66,3.33,
4.417,7.41,3.87,-16.06,-2.89,0.65,3.36,
4.417,7.41,3.87,-16.06,-2.95,0.61,3.42,
4.438,8.42,5.28,-17.82,-2.95,0.61,3.42,
4.439,8.42,5.28,-17.82,-3.00,0.56,3.47,
4.439,8.42,5.28,-17.82,-3.04,0.50,3.50,
4.439,8.42,5.28,-17.82,-3.07,0.43,3.48,
4.44,8.42,5.28,-17.82,-3.07,0.42,3.46,
4.44,8.42,5.28,-17.82,-3.06,0.40,3.41,
4.44,7.42,4.34,-15.18,-3.06,0.40,3.41,
4.44,7.42,4.34,-15.18,-3.03,0.41,3.33,
4.441,7.42,4.34,-15.18,-2.99,0.43,3.24,
4.441,7.42,4.34,-15.18,-2.93,0.49,3.08,
4.441,7.42,4.34,-15.18,-2.91,0.51,3.03,
4.441,7.42,4.34,-15.18,-2.88,0.55,2.92,
4.442,8.43,4.54,-9.09,-2.88,0.55,2.92,
4.442,8.43,4.54,-9.09,-2.86,0.57,2.81,
4.442,8.43,4.54,-9.09,-2.86,0.60,2.71,
4.443,8.43,4.54,-9.09,-2.87,0.62,2.56,
4.443,8.43,4.54,-9.09,-2.88,0.63,2.51,
4.443,8.43,4.54,-9.09,-2.89,0.64,2.41,
4.444,9.43,5.02,-5.86,-2.89,0.64,2.41,
4.444,9.43,5.02,-5.86,-2.91,0.66,2.31,
4.444,9.43,5.02,-5.86,-2.92,0.69,2.21,
4.444,9.43,5.02,-5.86,-2.92,0.73,2.08,
4.445,9.43,5.02,-5.86,-2.92,0.74,2.04,
4.445,9.43,5.02,-5.86,-2.90,0.77,1.96,
4.445,9.37,3.25,-3.14,-2.90,0.77,1.96,
4.445,9.37,3.25,-3.14,-2.87,0.80,1.88,
4.447,9.37,3.25,-3.14,-2.82,0.84,1.81,
4.449,9.37,3.25,-3.14,-2.73,0.88,1.72,
4.454,9.37,3.25,-3.14,-2.70,0.90,1.69,
4.455,9.37,3.25,-3.14,-2.64,0.94,1.64,
4.455,8.35,-1.37,0.32,-2.64,0.94,1.64,
4.455,8.35,-1.37,0.32,-2.58,0.97,1.60,
4.457,8.35,-1.37,0.32,-2.52,0.99,1.58,
4.46,8.35,-1.37,0.32,-2.45,1.04,1.57,
4.461,8.35,-1.37,0.32,-2.43,1.05,1.58,
4.462,8.35,-1.37,0.32,-2.41,1.07,1.59,
4.464,5.29,-6.76,2.61,-2.41,1.07,1.59,
4.465,5.29,-6.76,2.61,-2.40,1.10,1.59,
4.467,5.29,-6.76,2.61,-2.40,1.11,1.60,
4.47,5.29,-6.76,2.61,-2.43,1.11,1.59,
4.472,5.29,-6.76,2.61,-2.44,1.11,1.59,
4.473,5.29,-6.76,2.61,-2.47,1.10,1.57,
4.475,2.79,-11.31,2.43,-2.47,1.10,1.57,
4.475,2.79,-11.31,2.43,-2.51,1.07,1.53,
4.477,2.79,-11.31,2.43,-2.54,1.05,1.47,
4.48,2.79,-11.31,2.43,-2.60,1.00,1.36,
4.483,2.79,-11.31,2.43,-2.61,0.98,1.32,
4.483,2.79,-11.31,2.43,-2.63,0.95,1.23,
4.486,0.41,-13.72,1.74,-2.63,0.95,1.23,
4.489,0.41,-13.72,1.74,-2.64,0.92,1.13,
4.49,0.41,-13.72,1.74,-2.63,0.91,1.03,
4.491,0.41,-13.72,1.74,-2.59,0.93,0.88,
4.492,0.41,-13.72,1.74,-2.57,0.95,0.83,
4.493,0.41,-13.72,1.74,-2.52,1.00,0.74,
4.495,-4.35,-13.65,3.26,-2.52,1.00,0.74,
4.496,-4.35,-13.65,3.26,-2.46,1.09,0.66,
4.497,-4.35,-13.65,3.26,-2.41,1.19,0.59,
4.501,-4.35,-13.65,3.26,-2.33,1.39,0.49,
4.502,-4.35,-13.65,3.26,-2.31,1.46,0.47,
4.503,-4.35,-13.65,3.26,-2.27,1.60,0.43,
4.505,-8.64,-8.64,4.73,-2.27,1.60,0.43,
4.505,-8.64,-8.64,4.73,-2.24,1.74,0.40,
4.507,-8.64,-8.64,4.73,-2.23,1.87,0.39,
4.51,-8.64,-8.64,4.73,-2.25,2.04,0.39,
4.511,-8.64,-8.64,4.73,-2.26,2.08,0.39,
4.514,-8.64,-8.64,4.73,-2.29,2.17,0.41,
4.515,-11.32,-2.19,5.37,-2.29,2.17,0.41,
4.515,-11.32,-2.19,5.37,-2.34,2.25,0.44,
4.517,-11.32,-2.19,5.37,-2.40,2.30,0.47,
4.52,-11.32,-2.19,5.37,-2.49,2.34,0.53,
4.521,-11.32,-2.19,5.37,-2.52,2.34,0.55,
4.523,-11.32,-2.19,5.37,-2.58,2.31,0.60,
4.525,-12.77,2.29,6.90,-2.58,2.31,0.60,
4.525,-12.77,2.29,6.90,-2.64,2.24,0.65,
4.527,-12.77,2.29,6.90,-2.69,2.14,0.70,
4.53,-12.77,2.29,6.90,-2.72,1.93,0.78,
4.531,-12.77,2.29,6.90,-2.72,1.85,0.81,
4.545,-12.77,2.29,6.90,-2.71,1.69,0.87,
4.548,-13.51,5.72,10.04,-2.71,1.69,0.87,
4.55,-13.51,5.72,10.04,-2.68,1.53,0.93,
4.554,-13.51,5.72,10.04,-2.64,1.37,0.99,
4.555,-13.51,5.72,10.04,-2.56,1.17,1.07,
4.555,-13.51,5.72,10.04,-2.52,1.11,1.10,
4.556,-13.51,5.72,10.04,-2.45,1.02,1.13,
4.556,-12.32,8.44,12.09,-2.45,1.02,1.13,
4.557,-12.32,8.44,12.09,-2.39,0.98,1.16,
4.557,-12.32,8.44,12.09,-2.32,1.00,1.17,
4.573,-12.32,8.44,12.09,-2.20,1.17,1.16,
4.577,-12.32,8.44,12.09,-2.17,1.25,1.15,
4.578,-12.32,8.44,12.09,-2.09,1.47,1.13,
4.579,-8.88,10.68,11.77,-2.09,1.47,1.13,
4.58,-8.88,10.68,11.77,-2.00,1.76,1.09,
4.581,-8.88,10.68,11.77,-1.92,2.10,1.05,
4.582,-8.88,10.68,11.77,-1.77,2.68,0.98,
4.584,-8.88,10.68,11.77,-1.72,2.89,0.96,
4.585,-8.88,10.68,11.77,-1.61,3.30,0.94,
4.586,-4.00,11.79,11.64,-1.61,3.30,0.94,
4.587,-4.00,11.79,11.64,-1.50,3.70,0.93,
4.588,-4.00,11.79,11.64,-1.40,4.07,0.95,
4.59,-4.00,11.79,11.64,-1.26,4.53,1.00,
4.618,-4.00,11.79,11.64,-1.22,4.65,1.01,
4.619,-4.00,11.79,11.64,-1.14,4.85,1.04,
4.619,0.15,10.56,12.46,-1.14,4.85,1.04,
4.62,0.15,10.56,12.46,-1.08,5.00,1.06,
4.62,0.15,10.56,12.46,-1.02,5.11,1.06,
4.621,0.15,10.56,12.46,-0.94,5.21,1.04,
4.621,0.15,10.56,12.46,-0.91,5.23,1.02,
4.622,0.15,10.56,12.46,-0.84,5.26,0.98,
4.622,3.77,7.92,13.30,-0.84,5.26,0.98,
4.623,3.77,7.92,13.30,-0.77,5.26,0.93,
4.623,3.77,7.92,13.30,-0.70,5.25,0.86,
4.623,3.77,7.92,13.30,-0.58,5.20,0.76,
4.624,3.77,7.92,13.30,-0.54,5.18,0.73,
4.624,3.77,7.92,13.30,-0.46,5.11,0.67,
4.625,4.98,6.77,13.91,-0.46,5.11,0.67,
4.625,4.98,6.77,13.91,-0.38,5.05,0.62,
4.626,4.98,6.77,13.91,-0.30,4.99,0.59,
4.626,4.98,6.77,13.91,-0.19,4.90,0.56,
4.627,4.98,6.77,13.91,-0.16,4.88,0.55,
4.627,4.98,6.77,13.91,-0.09,4.82,0.54,
4.628,2.92,5.21,12.68,-0.09,4.82,0.54,
4.628,2.92,5.21,12.68,-0.04,4.75,0.53,
4.628,2.92,5.21,12.68,0.01,4.68,0.53,
4.629,2.92,5.21,12.68,0.08,4.56,0.52,
4.629,2.92,5.21,12.68,0.10,4.51,0.51,
4.629,2.92,5.21,12.68,0.13,4.43,0.51,
4.63,1.50,3.91,11.20,0.13,4.43,0.51,
4.63,1.50,3.91,11.20,0.15,4.34,0.50,
4.63,1.50,3.91,11.20,0.17,4.24,0.50,
4.63,1.50,3.91,11.20,0.17,4.09,0.51,
4.631,1.50,3.91,11.20,0.17,4.03,0.51,
4.631,1.50,3.91,11.20,0.16,3.93,0.51,
4.631,0.96,1.82,9.22,0.16,3.93,0.51,
4.632,0.96,1.82,9.22,0.14,3.82,0.52,
4.632,0.96,1.82,9.22,0.12,3.72,0.53,
4.632,0.96,1.82,9.22,0.08,3.56,0.54,
4.632,0.96,1.82,9.22,0.06,3.52,0.54,
4.635,0.96,1.82,9.22,0.03,3.43,0.55,
4.636,1.57,-0.57,7.78,0.03,3.43,0.55,
4.637,1.57,-0.57,7.78,-0.00,3.35,0.56,
4.637,1.57,-0.57,7.78,-0.04,3.28,0.56,
4.64,1.57,-0.57,7.78,-0.09,3.19,0.57,
4.64,1.57,-0.57,7.78,-0.11,3.17,0.57,
4.642,1.57,-0.57,7.78,-0.14,3.12,0.57,
4.645,2.46,-2.93,7.05,-0.14,3.12,0.57,
4.645,2.46,-2.93,7.05,-0.17,3.08,0.57,
4.647,2.46,-2.93,7.05,-0.20,3.05,0.58,
4.65,2.46,-2.93,7.05,-0.24,3.02,0.59,
4.652,2.46,-2.93,7.05,-0.25,3.01,0.59,
4.653,2.46,-2.93,7.05,-0.27,3.01,0.60,
4.656,3.29,-4.26,7.09,-0.27,3.01,0.60,
4.657,3.29,-4.26,7.09,-0.28,3.01,0.60,
4.657,3.29,-4.26,7.09,-0.28,3.02,0.62,
4.662,3.29,-4.26,7.09,-0.27,3.05,0.63,
4.662,3.29,-4.26,7.09,-0.26,3.07,0.63,
4.663,3.29,-4.26,7.09,-0.23,3.10,0.64,
4.666,2.97,-4.53,7.52,-0.23,3.10,0.64,
4.667,2.97,-4.53,7.52,-0.20,3.14,0.65,
4.667,2.97,-4.53,7.52,-0.15,3.18,0.66,
4.675,2.97,-4.53,7.52,-0.07,3.24,0.67,
4.676,2.97,-4.53,7.52,-0.04,3.26,0.68,
4.676,2.97,-4.53,7.52,0.02,3.30,0.68,
4.676,2.38,-4.08,8.20,0.02,3.30,0.68,
4.676,2.38,-4.08,8.20,0.10,3.33,0.68,
4.679,2.38,-4.08,8.20,0.17,3.36,0.67,
4.68,2.38,-4.08,8.20,0.28,3.39,0.65,
4.683,2.38,-4.08,8.20,0.31,3.40,0.64,
4.699,2.38,-4.08,8.20,0.38,3.41,0.63,
4.7,1.11,-3.23,8.28,0.38,3.41,0.63,
4.7,1.11,-3.23,8.28,0.44,3.42,0.61,
4.701,1.11,-3.23,8.28,0.50,3.43,0.59,
4.701,1.11,-3.23,8.28,0.58,3.44,0.57,
4.701,1.11,-3.23,8.28,0.61,3.43,0.56,
4.701,1.11,-3.23,8.28,0.66,3.43,0.54,
4.701,0.01,-1.76,8.45,0.66,3.43,0.54,
4.702,0.01,-1.76,8.45,0.73,3.41,0.51,
4.702,0.01,-1.76,8.45,0.75,3.40,0.50,
4.702,0.01,-1.76,8.45,0.81,3.36,0.47,
4.702,0.01,-1.76,8.45,0.83,3.34,0.47,
4.703,0.01,-1.76,8.45,0.86,3.29,0.45,
4.705,-0.62,0.00,8.52,0.86,3.29,0.45,
4.706,-0.62,0.00,8.52,0.90,3.24,0.43,
4.707,-0.62,0.00,8.52,0.93,3.17,0.41,
4.71,-0.62,0.00,8.52,0.97,3.04,0.37,
4.711,-0.62,0.00,8.52,0.99,2.99,0.36,
4.713,-0.62,0.00,8.52,1.01,2.89,0.34,
4.717,-0.25,2.19,8.11,1.01,2.89,0.34,
4.719,-0.25,2.19,8.11,1.03,2.78,0.31,
4.72,-0.25,2.19,8.11,1.04,2.67,0.28,
4.721,-0.25,2.19,8.11,1.07,2.49,0.22,
4.722,-0.25,2.19,8.11,1.08,2.43,0.20,
4.724,-0.25,2.19,8.11,1.10,2.31,0.16,
4.727,0.84,4.13,6.53,1.10,2.31,0.16,
4.727,0.84,4.13,6.53,1.12,2.19,0.12,
4.728,0.84,4.13,6.53,1.15,2.05,0.08,
4.732,0.84,4.13,6.53,1.20,1.85,0.03,
4.732,0.84,4.13,6.53,1.22,1.77,0.02,
4.734,0.84,4.13,6.53,1.26,1.63,-0.01,
4.735,2.34,5.91,4.79,1.26,1.63,-0.01,
4.735,2.34,5.91,4.79,1.31,1.48,-0.02,
4.755,2.34,5.91,4.79,1.36,1.34,-0.03,
4.755,2.34,5.91,4.79,1.45,1.13,-0.04,
4.756,2.34,5.91,4.79,1.48,1.06,-0.03,
4.756,2.34,5.91,4.79,1.56,0.94,-0.03,
4.756,4.51,7.05,2.43,1.56,0.94,-0.03,
4.756,4.51,7.05,2.43,1.63,0.83,-0.02,
4.757,4.51,7.05,2.43,1.71,0.72,0.00,
4.757,4.51,7.05,2.43,1.84,0.58,0.03,
4.757,4.51,7.05,2.43,1.88,0.54,0.05,
4.757,4.51,7.05,2.43,1.97,0.46,0.07,
4.758,7.38,7.60,-0.40,1.97,0.46,0.07,
4.758,7.38,7.60,-0.40,2.05,0.38,0.11,
4.758,7.38,7.60,-0.40,2.13,0.30,0.14,
4.763,7.38,7.60,-0.40,2.24,0.19,0.20,
4.764,7.38,7.60,-0.40,2.27,0.16,0.22,
4.764,7.38,7.60,-0.40,2.33,0.09,0.26,
4.767,10.49,7.51,-3.54,2.33,0.09,0.26,
4.768,10.49,7.51,-3.54,2.38,0.04,0.31,
4.768,10.49,7.51,-3.54,2.43,-0.02,0.35,
4.772,10.49,7.51,-3.54,2.47,-0.09,0.42,
4.773,10.49,7.51,-3.54,2.49,-0.10,0.44,
4.773,10.49,7.51,-3.54,2.51,-0.12,0.49,
4.776,13.55,6.13,-5.22,2.51,-0.12,0.49,
4.777,13.55,6.13,-5.22,2.52,-0.13,0.53,
4.778,13.55,6.13,-5.22,2.53,-0.12,0.57,
4.779,13.55,6.13,-5.22,2.52,-0.07,0.62,
4.78,13.55,6.13,-5.22,2.51,-0.05,0.63,
4.783,13.55,6.13,-5.22,2.49,-0.01,0.65,
4.785,15.67,3.40,-4.50,2.49,-0.01,0.65,
4.785,15.67,3.40,-4.50,2.46,0.04,0.65,
4.787,15.67,3.40,-4.50,2.42,0.09,0.64,
4.79,15.67,3.40,-4.50,2.35,0.16,0.63,
4.791,15.67,3.40,-4.50,2.33,0.18,0.62,
4.793,15.67,3.40,-4.50,2.28,0.19,0.60,
4.795,15.53,0.89,-2.46,2.28,0.19,0.60,
4.795,15.53,0.89,-2.46,2.22,0.20,0.58,
4.797,15.53,0.89,-2.46,2.15,0.19,0.56,
4.803,15.53,0.89,-2.46,2.05,0.16,0.52,
4.803,15.53,0.89,-2.46,2.01,0.14,0.51,
4.804,15.53,0.89,-2.46,1.93,0.12,0.48,
4.805,12.63,-0.58,-1.08,1.93,0.12,0.48,
4.805,12.63,-0.58,-1.08,1.84,0.09,0.44,
4.81,12.63,-0.58,-1.08,1.75,0.05,0.40,
4.81,12.63,-0.58,-1.08,1.62,-0.00,0.34,
4.811,12.63,-0.58,-1.08,1.57,-0.02,0.32,
4.813,12.63,-0.58,-1.08,1.49,-0.05,0.28,
4.816,7.94,-1.13,-0.24,1.49,-0.05,0.28,
4.817,7.94,-1.13,-0.24,1.41,-0.08,0.24,
4.817,7.94,-1.13,-0.24,1.34,-0.11,0.21,
4.82,7.94,-1.13,-0.24,1.26,-0.16,0.18,
4.821,7.94,-1.13,-0.24,1.24,-0.17,0.17,
4.822,7.94,-1.13,-0.24,1.22,-0.20,0.15,
4.825,2.47,-0.94,1.20,1.22,-0.20,0.15,
4.825,2.47,-0.94,1.20,1.21,-0.23,0.14,
4.826,2.47,-0.94,1.20,1.22,-0.26,0.12,
4.83,2.47,-0.94,1.20,1.25,-0.30,0.10,
4.833,2.47,-0.94,1.20,1.27,-0.32,0.10,
4.834,2.47,-0.94,1.20,1.31,-0.36,0.09,
4.836,-1.52,-0.83,2.93,1.31,-0.36,0.09,
4.836,-1.52,-0.83,2.93,1.35,-0.41,0.07,
4.84,-1.52,-0.83,2.93,1.39,-0.48,0.06,
4.84,-1.52,-0.83,2.93,1.47,-0.61,0.04,
4.842,-1.52,-0.83,2.93,1.50,-0.66,0.03,
4.843,-1.52,-0.83,2.93,1.56,-0.78,0.02,
4.845,-3.74,-0.88,3.45,1.56,-0.78,0.02,
4.845,-3.74,-0.88,3.45,1.63,-0.91,0.02,
4.847,-3.74,-0.88,3.45,1.69,-1.05,0.01,
4.855,-3.74,-0.88,3.45,1.77,-1.27,0.01,
4.856,-3.74,-0.88,3.45,1.80,-1.35,0.01,
4.857,-3.74,-0.88,3.45,1.86,-1.49,0.02,
4.857,-4.58,-0.32,2.33,1.86,-1.49,0.02,
4.857,-4.58,-0.32,2.33,1.90,-1.63,0.03,
4.858,-4.58,-0.32,2.33,1.95,-1.76,0.05,
4.859,-4.58,-0.32,2.33,2.00,-1.91,0.11,
4.861,-4.58,-0.32,2.33,2.01,-1.95,0.13,
4.862,-4.58,-0.32,2.33,2.02,-2.00,0.18,
4.87,-4.22,0.95,0.13,2.02,-2.00,0.18,
4.871,-4.22,0.95,0.13,2.03,-2.04,0.24,
4.871,-4.22,0.95,0.13,2.02,-2.07,0.31,
4.871,-4.22,0.95,0.13,1.97,-2.11,0.42,
4.872,-4.22,0.95,0.13,1.94,-2.12,0.46,
4.873,-4.22,0.95,0.13,1.88,-2.15,0.54,
4.875,-3.67,2.53,-2.14,1.88,-2.15,0.54,
4.876,-3.67,2.53,-2.14,1.81,-2.18,0.61,
4.879,-3.67,2.53,-2.14,1.72,-2.22,0.68,
4.879,-3.67,2.53,-2.14,1.57,-2.26,0.78,
4.882,-3.67,2.53,-2.14,1.53,-2.27,0.80,
4.883,-3.67,2.53,-2.14,1.44,-2.28,0.85,
4.887,-2.02,4.20,-2.59,1.44,-2.28,0.85,
4.888,-2.02,4.20,-2.59,1.36,-2.28,0.89,
4.888,-2.02,4.20,-2.59,1.28,-2.27,0.92,
4.89,-2.02,4.20,-2.59,1.20,-2.22,0.96,
4.891,-2.02,4.20,-2.59,1.18,-2.20,0.97,
4.893,-2.02,4.20,-2.59,1.15,-2.14,0.99,
4.895,-0.46,5.51,-0.21,1.15,-2.14,0.99,
4.896,-0.46,5.51,-0.21,1.13,-2.06,1.01,
4.897,-0.46,5.51,-0.21,1.13,-1.98,1.04,
4.901,-0.46,5.51,-0.21,1.15,-1.83,1.08,
4.903,-0.46,5.51,-0.21,1.16,-1.78,1.10,
4.904,-0.46,5.51,-0.21,1.20,-1.66,1.13,
4.934,-0.12,5.86,1.90,1.20,-1.66,1.13,
4.934,-0.12,5.86,1.90,1.25,-1.53,1.16,
4.935,-0.12,5.86,1.90,1.32,-1.40,1.19,
4.935,-0.12,5.86,1.90,1.45,-1.21,1.23,
4.936,-0.12,5.86,1.90,1.50,-1.15,1.24,
4.936,-0.12,5.86,1.90,1.61,-1.03,1.27,
4.937,-0.28,5.67,4.64,1.61,-1.03,1.27,
4.937,-0.28,5.67,4.64,1.72,-0.92,1.29,
4.937,-0.28,5.67,4.64,1.84,-0.83,1.32,
4.938,-0.28,5.67,4.64,2.02,-0.72,1.36,
4.938,-0.28,5.67,4.64,2.08,-0.70,1.37,
4.939,-0.28,5.67,4.64,2.20,-0.65,1.39,
4.939,-0.75,4.27,6.70,2.20,-0.65,1.39,
4.94,-0.75,4.27,6.70,2.31,-0.61,1.41,
4.94,-0.75,4.27,6.70,2.42,-0.59,1.43,
4.94,-0.75,4.27,6.70,2.58,-0.57,1.44,
4.941,-0.75,4.27,6.70,2.64,-0.57,1.44,
4.941,-0.75,4.27,6.70,2.73,-0.56,1.45,
4.941,-0.81,2.34,7.74,2.73,-0.56,1.45,
4.941,-0.81,2.34,7.74,2.82,-0.56,1.45,
4.942,-0.81,2.34,7.74,2.90,-0.56,1.45,
4.942,-0.81,2.34,7.74,3.01,-0.57,1.44,
4.942,-0.81,2.34,7.74,3.04,-0.57,1.44,
4.942,-0.81,2.34,7.74,3.09,-0.59,1.42,
4.952,-0.88,-0.31,7.40,3.09,-0.59,1.42,
4.953,-0.88,-0.31,7.40,3.13,-0.61,1.41,
4.954,-0.88,-0.31,7.40,3.16,-0.62,1.39,
4.954,-0.88,-0.31,7.40,3.18,-0.65,1.36,
4.954,-0.88,-0.31,7.40,3.18,-0.67,1.35,
4.954,-0.88,-0.31,7.40,3.18,-0.70,1.33,
4.955,-0.18,-1.92,5.89,3.18,-0.70,1.33,
4.955,-0.18,-1.92,5.89,3.16,-0.73,1.30,
4.959,-0.18,-1.92,5.89,3.14,-0.76,1.28,
4.96,-0.18,-1.92,5.89,3.11,-0.81,1.25,
4.961,-0.18,-1.92,5.89,3.09,-0.83,1.24,
4.963,-0.18,-1.92,5.89,3.06,-0.86,1.23,
4.975,-0.10,-2.15,3.96,3.06,-0.86,1.23,
4.976,-0.10,-2.15,3.96,3.03,-0.90,1.22,
4.976,-0.10,-2.15,3.96,2.99,-0.94,1.21,
4.976,-0.10,-2.15,3.96,2.94,-0.99,1.21,
4.976,-0.10,-2.15,3.96,2.93,-1.01,1.21,
4.976,-0.10,-2.15,3.96,2.91,-1.04,1.21,
4.978,-0.07,-1.33,2.25,2.91,-1.04,1.21,
4.978,-0.07,-1.33,2.25,2.89,-1.07,1.21,
4.978,-0.07,-1.33,2.25,2.87,-1.11,1.22,
4.989,-0.07,-1.33,2.25,2.85,-1.15,1.23,
4.99,-0.07,-1.33,2.25,2.85,-1.17,1.23,
4.99,-0.07,-1.33,2.25,2.84,-1.20,1.23,
4.99,0.37,0.34,1.00,2.84,-1.20,1.23,
4.99,0.37,0.34,1.00,2.84,-1.24,1.24,
4.991,0.37,0.34,1.00,2.84,-1.27,1.25,
4.991,0.37,0.34,1.00,2.83,-1.32,1.25,
4.991,0.37,0.34,1.00,2.83,-1.33,1.25,
4.993,0.37,0.34,1.00,2.83,-1.36,1.25,
4.995,0.98,1.54,-0.02,2.83,-1.36,1.25,
4.995,0.98,1.54,-0.02,2.83,-1.38,1.25,
5.0,0.98,1.54,-0.02,2.82,-1.40,1.24,
5.002,0.98,1.54,-0.02,2.80,-1.43,1.21,
5.002,0.98,1.54,-0.02,2.79,-1.44,1.21,
5.003,0.98,1.54,-0.02,2.77,-1.44,1.18,
5.004,1.77,1.84,-1.31,2.77,-1.44,1.18,
5.005,1.77,1.84,-1.31,2.74,-1.44,1.16,
5.007,1.77,1.84,-1.31,2.71,-1.43,1.14,
5.01,1.77,1.84,-1.31,2.66,-1.40,1.12,
5.011,1.77,1.84,-1.31,2.64,-1.38,1.11,
5.013,1.77,1.84,-1.31,2.59,-1.34,1.10,
5.015,1.76,1.81,-2.34,2.59,-1.34,1.10,
5.016,1.76,1.81,-2.34,2.55,-1.29,1.10,
5.017,1.76,1.81,-2.34,2.51,-1.23,1.09,
5.02,1.76,1.81,-2.34,2.43,-1.13,1.09,
5.021,1.76,1.81,-2.34,2.41,-1.10,1.09,
5.023,1.76,1.81,-2.34,2.36,-1.02,1.10,
5.025,0.83,1.22,-2.93,2.36,-1.02,1.10,
5.025,0.83,1.22,-2.93,2.31,-0.94,1.11,
5.026,0.83,1.22,-2.93,2.25,-0.87,1.12,
5.036,0.83,1.22,-2.93,2.14,-0.79,1.15,
5.036,0.83,1.22,-2.93,2.10,-0.76,1.16,
5.036,0.83,1.22,-2.93,2.00,-0.73,1.18,
5.036,-0.64,-0.37,-5.12,2.00,-0.73,1.18,
5.039,-0.64,-0.37,-5.12,1.89,-0.71,1.20,
5.039,-0.64,-0.37,-5.12,1.76,-0.71,1.21,
5.041,-0.64,-0.37,-5.12,1.52,-0.69,1.22,
5.041,-0.64,-0.37,-5.12,1.41,-0.68,1.22,
5.044,-0.64,-0.37,-5.12,1.18,-0.67,1.24,
5.045,-1.42,-4.28,-8.98,1.18,-0.67,1.24,
5.046,-1.42,-4.28,-8.98,0.75,-0.68,1.28,
5.048,-1.42,-4.28,-8.98,0.60,-0.67,1.29,
