
time,ax,ay,az,wx,wy,wz,
0.007,0.12,-0.44,-2.50,-1.13,0.02,-0.21,
0.008,-0.11,-0.46,-2.15,-1.13,0.02,-0.21,
0.008,-0.11,-0.46,-2.15,-1.15,0.01,-0.20,
0.009,-0.11,-0.46,-2.15,-1.19,-0.03,-0.18,
0.01,-0.11,-0.46,-2.15,-1.23,-0.06,-0.16,
0.011,-0.11,-0.46,-2.15,-1.26,-0.08,-0.15,
0.011,-0.11,-0.46,-2.15,-1.28,-0.09,-0.13,
0.012,-0.40,-0.23,-0.71,-1.28,-0.09,-0.13,
0.013,-0.40,-0.23,-0.71,-1.29,-0.09,-0.11,
0.013,-0.40,-0.23,-0.71,-1.30,-0.09,-0.10,
0.014,-0.40,-0.23,-0.71,-1.30,-0.07,-0.09,
0.015,-0.40,-0.23,-0.71,-1.29,-0.04,-0.08,
0.015,-0.40,-0.23,-0.71,-1.29,-0.01,-0.08,
0.015,-0.34,0.13,0.81,-1.29,-0.01,-0.08,
0.016,-0.34,0.13,0.81,-1.27,0.03,-0.07,
0.017,-0.34,0.13,0.81,-1.25,0.06,-0.08,
0.017,-0.34,0.13,0.81,-1.23,0.10,-0.09,
0.018,-0.34,0.13,0.81,-1.19,0.14,-0.10,
0.018,-0.34,0.13,0.81,-1.16,0.19,-0.11,
0.019,0.14,0.33,2.45,-1.16,0.19,-0.11,
0.019,0.14,0.33,2.45,-1.11,0.24,-0.13,
0.019,0.14,0.33,2.45,-1.06,0.30,-0.16,
0.02,0.14,0.33,2.45,-1.01,0.36,-0.19,
0.02,0.14,0.33,2.45,-0.96,0.42,-0.22,
0.032,0.14,0.33,2.45,-0.91,0.48,-0.24,
0.034,0.45,0.35,3.47,-0.91,0.48,-0.24,
0.035,0.45,0.35,3.47,-0.85,0.54,-0.27,
0.035,0.45,0.35,3.47,-0.80,0.60,-0.31,
0.036,0.45,0.35,3.47,-0.74,0.67,-0.34,
0.037,0.45,0.35,3.47,-0.69,0.74,-0.37,
0.037,0.45,0.35,3.47,-0.62,0.85,-0.42,
0.038,0.52,0.28,3.71,-0.62,0.85,-0.42,
0.038,0.52,0.28,3.71,-0.60,0.89,-0.44,
0.038,0.52,0.28,3.71,-0.56,0.97,-0.47,
0.039,0.52,0.28,3.71,-0.53,1.06,-0.50,
0.039,0.52,0.28,3.71,-0.51,1.14,-0.53,
0.056,0.52,0.28,3.71,-0.49,1.22,-0.57,
0.058,0.24,0.37,3.05,-0.49,1.22,-0.57,
0.059,0.24,0.37,3.05,-0.47,1.30,-0.60,
0.06,0.24,0.37,3.05,-0.46,1.38,-0.63,
0.061,0.24,0.37,3.05,-0.46,1.44,-0.66,
0.062,0.24,0.37,3.05,-0.46,1.50,-0.68,
0.062,0.24,0.37,3.05,-0.47,1.55,-0.71,
0.064,-0.29,0.49,2.26,-0.47,1.55,-0.71,
0.064,-0.29,0.49,2.26,-0.47,1.59,-0.73,
0.065,-0.29,0.49,2.26,-0.49,1.62,-0.75,
0.066,-0.29,0.49,2.26,-0.50,1.65,-0.77,
0.067,-0.29,0.49,2.26,-0.51,1.68,-0.79,
0.068,-0.29,0.49,2.26,-0.53,1.72,-0.81,
0.069,-0.70,0.47,1.66,-0.53,1.72,-0.81,
0.069,-0.70,0.47,1.66,-0.54,1.73,-0.82,
0.07,-0.70,0.47,1.66,-0.55,1.75,-0.83,
0.07,-0.70,0.47,1.66,-0.57,1.78,-0.83,
0.07,-0.70,0.47,1.66,-0.59,1.81,-0.84,
0.071,-0.70,0.47,1.66,-0.61,1.84,-0.84,
0.073,-0.67,0.20,0.87,-0.61,1.84,-0.84,
0.073,-0.67,0.20,0.87,-0.64,1.87,-0.85,
0.074,-0.67,0.20,0.87,-0.67,1.91,-0.85,
0.091,-0.67,0.20,0.87,-0.71,1.95,-0.86,
0.092,-0.67,0.20,0.87,-0.76,1.98,-0.87,
0.093,-0.67,0.20,0.87,-0.85,2.02,-0.90,
0.094,-0.05,-0.08,-0.34,-0.85,2.02,-0.90,
0.094,-0.05,-0.08,-0.34,-0.88,2.02,-0.90,
0.095,-0.05,-0.08,-0.34,-0.94,2.03,-0.93,
0.096,-0.05,-0.08,-0.34,-1.02,2.02,-0.95,
0.097,-0.05,-0.08,-0.34,-1.09,2.00,-0.98,
0.097,-0.05,-0.08,-0.34,-1.18,1.96,-1.01,
0.098,0.54,-0.18,-1.20,-1.18,1.96,-1.01,
0.098,0.54,-0.18,-1.20,-1.26,1.90,-1.04,
0.099,0.54,-0.18,-1.20,-1.35,1.80,-1.07,
0.099,0.54,-0.18,-1.20,-1.46,1.61,-1.11,
0.099,0.54,-0.18,-1.20,-1.56,1.44,-1.14,
0.103,0.54,-0.18,-1.20,-1.66,1.33,-1.18,
0.104,1.19,-0.34,-1.39,-1.66,1.33,-1.18,
0.105,1.19,-0.34,-1.39,-1.76,1.24,-1.21,
0.105,1.19,-0.34,-1.39,-1.84,1.14,-1.23,
0.131,1.19,-0.34,-1.39,-1.95,1.00,-1.26,
0.135,1.19,-0.34,-1.39,-1.98,0.96,-1.28,
0.136,1.19,-0.34,-1.39,-2.04,0.88,-1.30,
0.136,1.47,-0.45,-1.62,-2.04,0.88,-1.30,
0.138,1.47,-0.45,-1.62,-2.10,0.81,-1.33,
0.139,1.47,-0.45,-1.62,-2.16,0.73,-1.35,
0.139,1.47,-0.45,-1.62,-2.21,0.65,-1.38,
0.14,1.47,-0.45,-1.62,-2.26,0.57,-1.40,
0.14,1.47,-0.45,-1.62,-2.32,0.44,-1.44,
0.141,0.79,-0.19,-0.67,-2.32,0.44,-1.44,
0.145,0.79,-0.19,-0.67,-2.35,0.40,-1.45,
0.145,0.79,-0.19,-0.67,-2.39,0.32,-1.46,
0.148,0.79,-0.19,-0.67,-2.42,0.26,-1.47,
0.149,0.79,-0.19,-0.67,-2.44,0.20,-1.47,
0.15,0.79,-0.19,-0.67,-2.46,0.14,-1.46,
0.15,-0.36,0.34,0.18,-2.46,0.14,-1.46,
0.151,-0.36,0.34,0.18,-2.46,0.13,-1.45,
0.151,-0.36,0.34,0.18,-2.46,0.12,-1.42,
0.152,-0.36,0.34,0.18,-2.44,0.11,-1.39,
0.152,-0.36,0.34,0.18,-2.41,0.10,-1.35,
0.153,-0.36,0.34,0.18,-2.34,0.09,-1.28,
0.154,-1.32,0.80,1.03,-2.34,0.09,-1.28,
0.154,-1.32,0.80,1.03,-2.32,0.09,-1.26,
0.155,-1.32,0.80,1.03,-2.28,0.07,-1.20,
0.192,-1.32,0.80,1.03,-2.23,0.05,-1.15,
0.192,-1.32,0.80,1.03,-2.18,0.04,-1.09,
0.193,-1.32,0.80,1.03,-2.10,0.01,-1.01,
0.193,-1.49,0.55,1.13,-2.10,0.01,-1.01,
0.193,-1.49,0.55,1.13,-2.08,0.01,-0.98,
0.194,-1.49,0.55,1.13,-2.02,-0.02,-0.92,
0.194,-1.49,0.55,1.13,-1.97,-0.05,-0.86,
0.195,-1.49,0.55,1.13,-1.92,-0.10,-0.80,
0.195,-1.49,0.55,1.13,-1.85,-0.18,-0.72,
0.196,-1.07,0.00,0.84,-1.85,-0.18,-0.72,
0.196,-1.07,0.00,0.84,-1.83,-0.21,-0.69,
0.196,-1.07,0.00,0.84,-1.79,-0.26,-0.64,
0.197,-1.07,0.00,0.84,-1.76,-0.32,-0.58,
0.197,-1.07,0.00,0.84,-1.74,-0.37,-0.53,
0.198,-1.07,0.00,0.84,-1.71,-0.47,-0.45,
0.198,-0.55,-0.71,-0.01,-1.71,-0.47,-0.45,
0.199,-0.55,-0.71,-0.01,-1.70,-0.50,-0.43,
0.199,-0.55,-0.71,-0.01,-1.69,-0.56,-0.38,
0.199,-0.55,-0.71,-0.01,-1.69,-0.64,-0.33,
0.2,-0.55,-0.71,-0.01,-1.70,-0.71,-0.29,
0.2,-0.55,-0.71,-0.01,-1.72,-0.85,-0.22,
0.201,-0.04,-1.29,-0.95,-1.72,-0.85,-0.22,
0.201,-0.04,-1.29,-0.95,-1.73,-0.90,-0.19,
0.202,-0.04,-1.29,-0.95,-1.75,-1.01,-0.15,
0.202,-0.04,-1.29,-0.95,-1.77,-1.13,-0.10,
0.202,-0.04,-1.29,-0.95,-1.78,-1.26,-0.06,
0.203,-0.04,-1.29,-0.95,-1.81,-1.44,0.01,
0.203,0.03,-1.41,-1.14,-1.81,-1.44,0.01,
0.204,0.03,-1.41,-1.14,-1.81,-1.49,0.03,
0.204,0.03,-1.41,-1.14,-1.82,-1.60,0.07,
0.204,0.03,-1.41,-1.14,-1.82,-1.69,0.11,
0.205,0.03,-1.41,-1.14,-1.81,-1.77,0.15,
0.205,0.03,-1.41,-1.14,-1.79,-1.84,0.20,
0.206,-0.15,-0.99,-0.78,-1.79,-1.84,0.20,
0.206,-0.15,-0.99,-0.78,-1.78,-1.86,0.22,
0.206,-0.15,-0.99,-0.78,-1.76,-1.89,0.25,
0.207,-0.15,-0.99,-0.78,-1.73,-1.90,0.28,
0.211,-0.15,-0.99,-0.78,-1.70,-1.90,0.31,
0.212,-0.15,-0.99,-0.78,-1.64,-1.90,0.35,
0.213,-0.36,-0.53,-0.41,-1.64,-1.90,0.35,
0.215,-0.36,-0.53,-0.41,-1.62,-1.89,0.36,
0.216,-0.36,-0.53,-0.41,-1.58,-1.87,0.39,
0.216,-0.36,-0.53,-0.41,-1.53,-1.85,0.41,
0.218,-0.36,-0.53,-0.41,-1.48,-1.83,0.43,
0.221,-0.36,-0.53,-0.41,-1.47,-1.68,0.47,
0.222,-0.38,-0.21,-0.48,-1.47,-1.68,0.47,
0.223,-0.38,-0.21,-0.48,-1.50,-1.55,0.49,
0.224,-0.38,-0.21,-0.48,-1.65,-1.17,0.49,
0.231,-0.38,-0.21,-0.48,-1.80,-0.79,0.46,
0.231,-0.38,-0.21,-0.48,-1.87,-0.60,0.44,
0.232,-0.38,-0.21,-0.48,-1.87,-0.50,0.44,
0.232,-0.07,0.31,-1.33,-1.87,-0.50,0.44,
0.232,-0.07,0.31,-1.33,-1.88,-0.47,0.45,
0.234,-0.07,0.31,-1.33,-1.89,-0.41,0.47,
0.236,-0.07,0.31,-1.33,-1.92,-0.36,0.51,
0.238,-0.07,0.31,-1.33,-1.94,-0.36,0.55,
0.253,-0.07,0.31,-1.33,-1.97,-0.44,0.60,
0.255,-0.13,0.74,-0.26,-1.97,-0.44,0.60,
0.256,-0.13,0.74,-0.26,-1.98,-0.48,0.62,
0.256,-0.13,0.74,-0.26,-2.00,-0.57,0.66,
0.257,-0.13,0.74,-0.26,-2.03,-0.67,0.70,
0.258,-0.13,0.74,-0.26,-2.05,-0.77,0.73,
0.258,-0.13,0.74,-0.26,-2.08,-0.94,0.78,
0.259,0.35,1.29,0.33,-2.08,-0.94,0.78,
0.26,0.35,1.29,0.33,-2.09,-1.00,0.79,
0.261,0.35,1.29,0.33,-2.10,-1.11,0.82,
0.262,0.35,1.29,0.33,-2.11,-1.22,0.85,
0.262,0.35,1.29,0.33,-2.11,-1.32,0.87,
0.263,0.35,1.29,0.33,-2.10,-1.44,0.91,
0.287,0.70,1.35,0.87,-2.10,-1.44,0.91,
0.289,0.70,1.35,0.87,-2.10,-1.47,0.92,
0.289,0.70,1.35,0.87,-2.08,-1.53,0.94,
0.289,0.70,1.35,0.87,-2.06,-1.57,0.96,
0.29,0.70,1.35,0.87,-2.04,-1.60,0.98,
0.29,0.70,1.35,0.87,-2.00,-1.62,1.00,
0.29,0.92,1.15,0.86,-2.00,-1.62,1.00,
0.291,0.92,1.15,0.86,-1.98,-1.62,1.01,
0.291,0.92,1.15,0.86,-1.95,-1.62,1.03,
0.292,0.92,1.15,0.86,-1.90,-1.61,1.05,
0.293,0.92,1.15,0.86,-1.86,-1.59,1.08,
0.294,0.92,1.15,0.86,-1.78,-1.56,1.12,
0.295,0.71,0.88,0.35,-1.78,-1.56,1.12,
0.295,0.71,0.88,0.35,-1.76,-1.55,1.13,
0.296,0.71,0.88,0.35,-1.70,-1.53,1.16,
0.296,0.71,0.88,0.35,-1.63,-1.51,1.20,
0.297,0.71,0.88,0.35,-1.56,-1.50,1.24,
0.297,0.71,0.88,0.35,-1.45,-1.51,1.29,
0.298,0.45,0.65,-0.11,-1.45,-1.51,1.29,
0.298,0.45,0.65,-0.11,-1.41,-1.51,1.31,
0.299,0.45,0.65,-0.11,-1.32,-1.52,1.35,
0.299,0.45,0.65,-0.11,-1.23,-1.55,1.39,
0.299,0.45,0.65,-0.11,-1.13,-1.58,1.43,
0.302,0.45,0.65,-0.11,-0.98,-1.64,1.49,
0.304,0.29,0.33,-0.23,-0.98,-1.64,1.49,
0.305,0.29,0.33,-0.23,-0.93,-1.66,1.51,
0.306,0.29,0.33,-0.23,-0.82,-1.70,1.55,
0.307,0.29,0.33,-0.23,-0.71,-1.75,1.59,
0.309,0.29,0.33,-0.23,-0.60,-1.80,1.62,
0.313,0.29,0.33,-0.23,-0.42,-1.89,1.67,
0.315,0.12,0.15,-0.14,-0.42,-1.89,1.67,
0.346,0.12,0.15,-0.14,-0.36,-1.92,1.69,
0.348,0.12,0.15,-0.14,-0.24,-2.00,1.72,
0.351,0.12,0.15,-0.14,-0.11,-2.09,1.74,
0.352,0.12,0.15,-0.14,0.03,-2.19,1.77,
0.352,0.12,0.15,-0.14,0.25,-2.36,1.81,
0.353,-0.10,-0.06,0.40,0.25,-2.36,1.81,
0.353,-0.10,-0.06,0.40,0.32,-2.42,1.82,
0.354,-0.10,-0.06,0.40,0.47,-2.55,1.84,
0.354,-0.10,-0.06,0.40,0.79,-2.83,1.89,
0.355,-0.10,-0.06,0.40,0.79,-2.83,1.89,
0.355,-0.10,-0.06,0.40,1.03,-3.03,1.94,
0.355,-0.55,-0.32,0.78,1.03,-3.03,1.94,
0.356,-0.55,-0.32,0.78,1.11,-3.10,1.95,
0.356,-0.55,-0.32,0.78,1.26,-3.24,1.98,
0.357,-0.55,-0.32,0.78,1.42,-3.37,2.01,
0.357,-0.55,-0.32,0.78,1.58,-3.51,2.03,
0.358,-0.55,-0.32,0.78,1.81,-3.72,2.07,
0.358,-0.95,-0.50,0.58,1.81,-3.72,2.07,
0.359,-0.95,-0.50,0.58,1.89,-3.79,2.08,
0.359,-0.95,-0.50,0.58,2.04,-3.94,2.11,
0.359,-0.95,-0.50,0.58,2.19,-4.08,2.13,
0.36,-0.95,-0.50,0.58,2.34,-4.20,2.15,
0.36,-0.95,-0.50,0.58,2.54,-4.24,2.18,
0.361,-1.36,-0.78,0.30,2.54,-4.24,2.18,
0.361,-1.36,-0.78,0.30,2.60,-4.21,2.20,
0.362,-1.36,-0.78,0.30,2.70,-4.08,2.22,
0.362,-1.36,-0.78,0.30,2.79,-3.88,2.24,
0.362,-1.36,-0.78,0.30,2.85,-3.61,2.25,
0.363,-1.36,-0.78,0.30,2.85,-3.11,2.26,
0.363,-1.05,-1.03,0.27,2.85,-3.11,2.26,
0.364,-1.05,-1.03,0.27,2.82,-2.94,2.26,
0.364,-1.05,-1.03,0.27,2.74,-2.63,2.25,
0.373,-1.05,-1.03,0.27,2.61,-2.43,2.25,
0.375,-1.05,-1.03,0.27,2.45,-2.35,2.23,
0.377,-1.05,-1.03,0.27,2.14,-2.48,2.14,
0.381,-0.79,-1.45,-1.44,2.14,-2.48,2.14,
0.381,-0.79,-1.45,-1.44,2.01,-2.57,2.09,
0.382,-0.79,-1.45,-1.44,1.74,-2.75,1.97,
0.383,-0.79,-1.45,-1.44,1.44,-2.85,1.83,
0.383,-0.79,-1.45,-1.44,1.15,-2.82,1.66,
0.384,-0.79,-1.45,-1.44,0.75,-2.51,1.36,
0.384,0.86,-0.57,-2.32,0.75,-2.51,1.36,
0.384,0.86,-0.57,-2.32,0.64,-2.36,1.26,
0.385,0.86,-0.57,-2.32,0.46,-2.08,1.05,
0.386,0.86,-0.57,-2.32,0.32,-1.89,0.86,
0.388,0.86,-0.57,-2.32,0.22,-1.84,0.68,
0.409,0.86,-0.57,-2.32,0.12,-1.90,0.46,
0.41,3.05,0.38,-1.87,0.12,-1.90,0.46,
0.41,3.05,0.38,-1.87,0.10,-1.92,0.40,
0.41,3.05,0.38,-1.87,0.08,-1.93,0.30,
0.411,3.05,0.38,-1.87,0.07,-1.91,0.22,
0.411,3.05,0.38,-1.87,0.08,-1.85,0.15,
0.411,3.05,0.38,-1.87,0.11,-1.70,0.08,
0.412,3.74,0.11,-2.56,0.11,-1.70,0.08,
0.412,3.74,0.11,-2.56,0.12,-1.63,0.06,
0.412,3.74,0.11,-2.56,0.15,-1.50,0.03,
0.413,3.74,0.11,-2.56,0.19,-1.37,0.00,
0.413,3.74,0.11,-2.56,0.22,-1.26,-0.01,
0.413,3.74,0.11,-2.56,0.26,-1.15,-0.03,
0.414,3.80,-0.53,-2.83,0.26,-1.15,-0.03,
0.414,3.80,-0.53,-2.83,0.26,-1.13,-0.03,
0.414,3.80,-0.53,-2.83,0.27,-1.10,-0.03,
0.416,3.80,-0.53,-2.83,0.27,-1.09,-0.03,
0.418,3.80,-0.53,-2.83,0.26,-1.11,-0.04,
0.421,3.80,-0.53,-2.83,0.23,-1.19,-0.04,
0.423,2.91,-1.01,-3.00,0.23,-1.19,-0.04,
0.424,2.91,-1.01,-3.00,0.21,-1.23,-0.05,
0.424,2.91,-1.01,-3.00,0.18,-1.33,-0.07,
0.43,2.91,-1.01,-3.00,0.13,-1.44,-0.10,
0.431,2.91,-1.01,-3.00,0.09,-1.58,-0.14,
0.432,2.91,-1.01,-3.00,0.03,-1.80,-0.20,
0.433,3.45,-1.95,-2.81,0.03,-1.80,-0.20,
0.433,3.45,-1.95,-2.81,0.01,-1.87,-0.22,
0.434,3.45,-1.95,-2.81,-0.02,-2.01,-0.26,
0.436,3.45,-1.95,-2.81,-0.04,-2.15,-0.29,
0.438,3.45,-1.95,-2.81,-0.04,-2.27,-0.33,
0.454,3.45,-1.95,-2.81,-0.03,-2.41,-0.37,
0.456,3.00,-2.25,-1.58,-0.03,-2.41,-0.37,
0.457,3.00,-2.25,-1.58,-0.02,-2.46,-0.39,
0.458,3.00,-2.25,-1.58,0.01,-2.53,-0.41,
0.46,3.00,-2.25,-1.58,0.05,-2.59,-0.43,
0.461,3.00,-2.25,-1.58,0.10,-2.64,-0.44,
0.462,3.00,-2.25,-1.58,0.20,-2.69,-0.44,
0.462,1.91,-2.42,-0.38,0.20,-2.69,-0.44,
0.463,1.91,-2.42,-0.38,0.24,-2.71,-0.43,
0.464,1.91,-2.42,-0.38,0.32,-2.75,-0.42,
0.465,1.91,-2.42,-0.38,0.47,-2.82,-0.36,
0.466,1.91,-2.42,-0.38,0.52,-2.85,-0.34,
0.483,1.91,-2.42,-0.38,0.69,-2.96,-0.26,
0.485,0.35,-2.69,0.49,0.69,-2.96,-0.26,
0.486,0.35,-2.69,0.49,0.76,-3.00,-0.22,
0.487,0.35,-2.69,0.49,0.88,-3.10,-0.14,
0.488,0.35,-2.69,0.49,1.01,-3.22,-0.05,
0.489,0.35,-2.69,0.49,1.15,-3.35,0.04,
0.49,0.35,-2.69,0.49,1.36,-3.55,0.19,
0.49,-1.20,-3.21,0.79,1.36,-3.55,0.19,
0.491,-1.20,-3.21,0.79,1.43,-3.62,0.24,
0.493,-1.20,-3.21,0.79,1.57,-3.76,0.32,
0.494,-1.20,-3.21,0.79,1.69,-3.90,0.39,
0.495,-1.20,-3.21,0.79,1.82,-4.03,0.44,
0.529,-1.20,-3.21,0.79,1.99,-4.23,0.48,
0.529,-1.60,-3.07,0.19,1.99,-4.23,0.48,
0.53,-1.60,-3.07,0.19,2.05,-4.30,0.49,
0.53,-1.60,-3.07,0.19,2.14,-4.44,0.49,
0.531,-1.60,-3.07,0.19,2.23,-4.59,0.47,
0.531,-1.60,-3.07,0.19,2.31,-4.75,0.45,
0.532,-1.60,-3.07,0.19,2.41,-5.01,0.40,
0.532,-1.22,-2.94,-0.92,2.41,-5.01,0.40,
0.533,-1.22,-2.94,-0.92,2.45,-5.10,0.39,
0.533,-1.22,-2.94,-0.92,2.51,-5.29,0.35,
0.533,-1.22,-2.94,-0.92,2.57,-5.49,0.32,
0.534,-1.22,-2.94,-0.92,2.63,-5.68,0.29,
0.534,-1.22,-2.94,-0.92,2.72,-5.98,0.25,
0.535,-1.10,-2.71,-1.99,2.72,-5.98,0.25,
0.535,-1.10,-2.71,-1.99,2.75,-6.08,0.23,
0.536,-1.10,-2.71,-1.99,2.81,-6.27,0.20,
0.537,-1.10,-2.71,-1.99,2.87,-6.45,0.18,
0.538,-1.10,-2.71,-1.99,2.92,-6.63,0.15,
0.539,-1.10,-2.71,-1.99,3.01,-6.87,0.11,
0.539,-1.45,-2.54,-2.89,3.01,-6.87,0.11,
0.54,-1.45,-2.54,-2.89,3.04,-6.95,0.10,
0.542,-1.45,-2.54,-2.89,3.10,-7.09,0.07,
0.543,-1.45,-2.54,-2.89,3.15,-7.22,0.04,
0.543,-1.45,-2.54,-2.89,3.20,-7.35,0.02,
0.544,-1.45,-2.54,-2.89,3.27,-7.51,-0.02,
0.544,-1.95,-2.58,-3.83,3.27,-7.51,-0.02,
0.545,-1.95,-2.58,-3.83,3.30,-7.56,-0.03,
0.545,-1.95,-2.58,-3.83,3.34,-7.65,-0.04,
0.546,-1.95,-2.58,-3.83,3.37,-7.72,-0.06,
0.546,-1.95,-2.58,-3.83,3.40,-7.76,-0.08,
0.547,-1.95,-2.58,-3.83,3.42,-7.83,-0.10,
0.547,-2.70,-2.95,-4.90,3.42,-7.83,-0.10,
0.548,-2.70,-2.95,-4.90,3.42,-7.85,-0.11,
0.549,-2.70,-2.95,-4.90,3.41,-7.89,-0.12,
0.549,-2.70,-2.95,-4.90,3.39,-7.92,-0.13,
0.549,-2.70,-2.95,-4.90,3.36,-7.94,-0.13,
0.55,-2.70,-2.95,-4.90,3.28,-7.96,-0.13,
0.55,-3.79,-3.33,-6.08,3.28,-7.96,-0.13,
0.551,-3.79,-3.33,-6.08,3.25,-7.96,-0.12,
0.552,-3.79,-3.33,-6.08,3.18,-7.95,-0.11,
0.553,-3.79,-3.33,-6.08,3.10,-7.92,-0.09,
0.554,-3.79,-3.33,-6.08,3.00,-7.90,-0.05,
0.554,-3.79,-3.33,-6.08,2.83,-7.82,0.02,
0.555,-5.11,-3.82,-6.89,2.83,-7.82,0.02,
0.557,-5.11,-3.82,-6.89,2.77,-7.78,0.05,
0.558,-5.11,-3.82,-6.89,2.65,-7.70,0.11,
0.559,-5.11,-3.82,-6.89,2.51,-7.61,0.19,
0.559,-5.11,-3.82,-6.89,2.38,-7.50,0.27,
0.563,-5.11,-3.82,-6.89,2.16,-7.31,0.42,
0.565,-6.81,-3.56,-7.07,2.16,-7.31,0.42,
0.566,-6.81,-3.56,-7.07,2.08,-7.24,0.48,
0.567,-6.81,-3.56,-7.07,1.93,-7.10,0.59,
0.567,-6.81,-3.56,-7.07,1.77,-6.94,0.70,
0.568,-6.81,-3.56,-7.07,1.61,-6.78,0.83,
0.571,-6.81,-3.56,-7.07,1.37,-6.50,1.03,
0.573,-7.79,-3.37,-6.91,1.37,-6.50,1.03,
0.574,-7.79,-3.37,-6.91,1.28,-6.40,1.09,
0.575,-7.79,-3.37,-6.91,1.12,-6.19,1.22,
0.581,-7.79,-3.37,-6.91,0.96,-5.97,1.35,
0.583,-7.79,-3.37,-6.91,0.79,-5.75,1.48,
0.583,-7.79,-3.37,-6.91,0.55,-5.43,1.67,
0.584,-8.14,-3.06,-6.31,0.55,-5.43,1.67,
0.584,-8.14,-3.06,-6.31,0.47,-5.32,1.73,
0.585,-8.14,-3.06,-6.31,0.30,-5.11,1.85,
0.586,-8.14,-3.06,-6.31,0.15,-4.90,1.96,
0.588,-8.14,-3.06,-6.31,-0.01,-4.69,2.07,
0.605,-8.14,-3.06,-6.31,-0.22,-4.39,2.21,
0.608,-7.44,-3.28,-5.31,-0.22,-4.39,2.21,
0.609,-7.44,-3.28,-5.31,-0.29,-4.29,2.26,
0.61,-7.44,-3.28,-5.31,-0.42,-4.10,2.34,
0.611,-7.44,-3.28,-5.31,-0.54,-3.93,2.42,
0.612,-7.44,-3.28,-5.31,-0.65,-3.76,2.49,
0.613,-7.44,-3.28,-5.31,-0.80,-3.55,2.58,
0.613,-6.01,-3.20,-3.50,-0.80,-3.55,2.58,
0.614,-6.01,-3.20,-3.50,-0.84,-3.48,2.61,
0.614,-6.01,-3.20,-3.50,-0.93,-3.37,2.66,
0.614,-6.01,-3.20,-3.50,-1.00,-3.28,2.70,
0.615,-6.01,-3.20,-3.50,-1.07,-3.20,2.74,
0.615,-6.01,-3.20,-3.50,-1.16,-3.12,2.78,
0.617,-3.96,-3.22,-1.70,-1.16,-3.12,2.78,
0.618,-3.96,-3.22,-1.70,-1.18,-3.10,2.79,
0.619,-3.96,-3.22,-1.70,-1.23,-3.08,2.81,
0.62,-3.96,-3.22,-1.70,-1.27,-3.07,2.83,
0.621,-3.96,-3.22,-1.70,-1.30,-3.07,2.84,
0.621,-3.96,-3.22,-1.70,-1.34,-3.10,2.85,
0.622,-1.91,-2.78,0.03,-1.34,-3.10,2.85,
0.623,-1.91,-2.78,0.03,-1.35,-3.11,2.86,
0.634,-1.91,-2.78,0.03,-1.37,-3.15,2.86,
0.636,-1.91,-2.78,0.03,-1.39,-3.20,2.87,
0.637,-1.91,-2.78,0.03,-1.40,-3.25,2.87,
0.637,-1.91,-2.78,0.03,-1.42,-3.35,2.88,
0.638,-0.24,-2.41,1.69,-1.42,-3.35,2.88,
0.639,-0.24,-2.41,1.69,-1.43,-3.38,2.89,
0.639,-0.24,-2.41,1.69,-1.44,-3.44,2.90,
0.64,-0.24,-2.41,1.69,-1.46,-3.50,2.92,
0.641,-0.24,-2.41,1.69,-1.47,-3.55,2.94,
0.642,-0.24,-2.41,1.69,-1.48,-3.62,2.98,
0.643,0.71,-2.15,3.17,-1.48,-3.62,2.98,
0.643,0.71,-2.15,3.17,-1.49,-3.64,2.99,
0.644,0.71,-2.15,3.17,-1.49,-3.66,3.01,
0.675,0.71,-2.15,3.17,-1.49,-3.67,3.04,
0.676,0.71,-2.15,3.17,-1.49,-3.67,3.06,
0.677,0.71,-2.15,3.17,-1.48,-3.64,3.09,
0.678,1.83,-2.09,5.02,-1.48,-3.64,3.09,
0.678,1.83,-2.09,5.02,-1.48,-3.62,3.10,
0.679,1.83,-2.09,5.02,-1.46,-3.57,3.12,
0.679,1.83,-2.09,5.02,-1.44,-3.51,3.13,
0.68,1.83,-2.09,5.02,-1.42,-3.45,3.15,
0.68,1.83,-2.09,5.02,-1.38,-3.34,3.16,
0.681,3.14,-2.02,7.09,-1.38,-3.34,3.16,
0.682,3.14,-2.02,7.09,-1.36,-3.30,3.17,
0.682,3.14,-2.02,7.09,-1.32,-3.21,3.18,
0.683,3.14,-2.02,7.09,-1.27,-3.13,3.19,
0.684,3.14,-2.02,7.09,-1.20,-3.04,3.20,
0.684,3.14,-2.02,7.09,-1.10,-2.92,3.21,
0.685,4.09,-1.88,9.71,-1.10,-2.92,3.21,
0.685,4.09,-1.88,9.71,-1.05,-2.88,3.22,
0.686,4.09,-1.88,9.71,-0.96,-2.81,3.22,
0.686,4.09,-1.88,9.71,-0.85,-2.74,3.22,
0.687,4.09,-1.88,9.71,-0.74,-2.68,3.22,
0.688,4.09,-1.88,9.71,-0.55,-2.61,3.22,
0.688,4.76,-1.56,11.87,-0.55,-2.61,3.22,
0.69,4.76,-1.56,11.87,-0.48,-2.59,3.22,
0.69,4.76,-1.56,11.87,-0.34,-2.56,3.21,
0.691,4.76,-1.56,11.87,-0.19,-2.55,3.20,
0.691,4.76,-1.56,11.87,-0.04,-2.54,3.19,
0.692,4.76,-1.56,11.87,0.19,-2.55,3.17,
0.693,5.36,-1.24,12.92,0.19,-2.55,3.17,
0.693,5.36,-1.24,12.92,0.27,-2.56,3.16,
0.694,5.36,-1.24,12.92,0.42,-2.58,3.14,
0.699,5.36,-1.24,12.92,0.57,-2.60,3.11,
0.701,5.36,-1.24,12.92,0.72,-2.62,3.08,
0.701,5.36,-1.24,12.92,0.93,-2.64,3.02,
0.702,6.57,-0.58,11.99,0.93,-2.64,3.02,
0.702,6.57,-0.58,11.99,0.99,-2.64,2.99,
0.706,6.57,-0.58,11.99,1.12,-2.65,2.95,
0.706,6.57,-0.58,11.99,1.23,-2.65,2.90,
0.713,6.57,-0.58,11.99,1.33,-2.64,2.85,
0.714,6.57,-0.58,11.99,1.46,-2.62,2.78,
0.714,7.92,0.21,10.01,1.46,-2.62,2.78,
0.715,7.92,0.21,10.01,1.49,-2.61,2.76,
0.715,7.92,0.21,10.01,1.56,-2.59,2.71,
0.716,7.92,0.21,10.01,1.61,-2.55,2.66,
0.718,7.92,0.21,10.01,1.65,-2.51,2.61,
0.721,7.92,0.21,10.01,1.69,-2.43,2.54,
0.723,8.53,1.00,7.62,1.69,-2.43,2.54,
0.724,8.53,1.00,7.62,1.69,-2.40,2.51,
0.727,8.53,1.00,7.62,1.71,-2.34,2.47,
0.73,8.53,1.00,7.62,1.73,-2.28,2.44,
0.732,8.53,1.00,7.62,1.75,-2.21,2.41,
0.734,8.53,1.00,7.62,1.76,-2.13,2.38,
0.735,8.39,2.39,6.55,1.76,-2.13,2.38,
0.735,8.39,2.39,6.55,1.76,-2.10,2.36,
0.735,8.39,2.39,6.55,1.76,-2.04,2.34,
0.736,8.39,2.39,6.55,1.76,-1.96,2.31,
0.75,8.39,2.39,6.55,1.76,-1.89,2.28,
0.753,8.39,2.39,6.55,1.76,-1.77,2.23,
0.755,9.16,2.77,5.69,1.76,-1.77,2.23,
0.756,9.16,2.77,5.69,1.75,-1.72,2.21,
0.759,9.16,2.77,5.69,1.75,-1.63,2.17,
0.759,9.16,2.77,5.69,1.75,-1.52,2.13,
0.76,9.16,2.77,5.69,1.75,-1.41,2.09,
0.76,9.16,2.77,5.69,1.74,-1.24,2.01,
0.76,9.84,3.11,5.28,1.74,-1.24,2.01,
0.761,9.84,3.11,5.28,1.74,-1.18,1.98,
0.761,9.84,3.11,5.28,1.74,-1.06,1.93,
0.761,9.84,3.11,5.28,1.74,-0.94,1.88,
0.762,9.84,3.11,5.28,1.74,-0.82,1.83,
0.762,9.84,3.11,5.28,1.75,-0.65,1.75,
0.762,9.85,3.64,4.70,1.75,-0.65,1.75,
0.763,9.85,3.64,4.70,1.75,-0.60,1.73,
0.784,9.85,3.64,4.70,1.75,-0.49,1.68,
0.786,9.85,3.64,4.70,1.76,-0.38,1.63,
0.786,9.85,3.64,4.70,1.76,-0.27,1.59,
0.786,9.85,3.64,4.70,1.76,-0.12,1.52,
0.787,9.40,4.49,4.00,1.76,-0.12,1.52,
0.787,9.40,4.49,4.00,1.76,-0.07,1.50,
0.787,9.40,4.49,4.00,1.76,0.03,1.45,
0.788,9.40,4.49,4.00,1.76,0.13,1.41,
0.788,9.40,4.49,4.00,1.75,0.23,1.36,
0.788,9.40,4.49,4.00,1.74,0.37,1.30,
0.789,8.94,5.09,2.92,1.74,0.37,1.30,
0.789,8.94,5.09,2.92,1.74,0.41,1.27,
0.789,8.94,5.09,2.92,1.73,0.49,1.23,
0.789,8.94,5.09,2.92,1.72,0.56,1.18,
0.79,8.94,5.09,2.92,1.71,0.63,1.12,
0.792,8.94,5.09,2.92,1.70,0.73,1.03,
0.792,9.25,5.62,1.93,1.70,0.73,1.03,
0.793,9.25,5.62,1.93,1.69,0.76,1.00,
0.796,9.25,5.62,1.93,1.68,0.82,0.93,
0.796,9.25,5.62,1.93,1.67,0.88,0.86,
0.798,9.25,5.62,1.93,1.66,0.93,0.78,
0.801,9.25,5.62,1.93,1.64,1.00,0.66,
0.802,9.77,5.75,1.09,1.64,1.00,0.66,
0.803,9.77,5.75,1.09,1.63,1.03,0.62,
0.804,9.77,5.75,1.09,1.62,1.08,0.54,
0.807,9.77,5.75,1.09,1.60,1.17,0.42,
0.808,9.77,5.75,1.09,1.59,1.19,0.39,
0.811,9.77,5.75,1.09,1.57,1.25,0.27,
0.812,9.67,5.99,0.33,1.57,1.25,0.27,
0.845,9.67,5.99,0.33,1.57,1.27,0.24,
0.846,9.67,5.99,0.33,1.56,1.29,0.17,
0.847,9.67,5.99,0.33,1.54,1.30,0.10,
0.847,9.67,5.99,0.33,1.52,1.30,0.03,
0.848,9.67,5.99,0.33,1.49,1.28,-0.07,
0.848,8.91,5.63,-0.61,1.49,1.28,-0.07,
0.849,8.91,5.63,-0.61,1.48,1.27,-0.10,
0.849,8.91,5.63,-0.61,1.46,1.24,-0.17,
0.85,8.91,5.63,-0.61,1.44,1.21,-0.23,
0.85,8.91,5.63,-0.61,1.42,1.18,-0.29,
0.851,8.91,5.63,-0.61,1.39,1.12,-0.38,
0.851,7.96,5.36,-1.21,1.39,1.12,-0.38,
0.852,7.96,5.36,-1.21,1.39,1.10,-0.40,
0.853,7.96,5.36,-1.21,1.38,1.06,-0.45,
0.854,7.96,5.36,-1.21,1.37,1.02,-0.50,
0.854,7.96,5.36,-1.21,1.37,0.98,-0.55,
0.855,7.96,5.36,-1.21,1.39,0.94,-0.63,
0.856,7.14,4.96,-1.15,1.39,0.94,-0.63,
0.857,7.14,4.96,-1.15,1.40,0.93,-0.65,
0.857,7.14,4.96,-1.15,1.40,0.88,-0.70,
0.858,7.14,4.96,-1.15,1.41,0.84,-0.75,
0.858,7.14,4.96,-1.15,1.41,0.80,-0.80,
0.859,7.14,4.96,-1.15,1.43,0.73,-0.88,
0.859,6.21,4.55,-1.15,1.43,0.73,-0.88,
0.859,6.21,4.55,-1.15,1.43,0.71,-0.90,
0.86,6.21,4.55,-1.15,1.44,0.67,-0.94,
0.861,6.21,4.55,-1.15,1.46,0.63,-0.98,
0.862,6.21,4.55,-1.15,1.48,0.60,-1.01,
0.862,6.21,4.55,-1.15,1.52,0.57,-1.04,
0.863,4.91,4.12,-0.96,1.52,0.57,-1.04,
0.863,4.91,4.12,-0.96,1.54,0.56,-1.05,
0.864,4.91,4.12,-0.96,1.57,0.54,-1.06,
0.884,4.91,4.12,-0.96,1.61,0.53,-1.08,
0.887,4.91,4.12,-0.96,1.64,0.51,-1.09,
0.888,4.91,4.12,-0.96,1.68,0.47,-1.10,
0.889,3.77,3.94,-1.11,1.68,0.47,-1.10,
0.889,3.77,3.94,-1.11,1.69,0.46,-1.10,
0.89,3.77,3.94,-1.11,1.72,0.44,-1.10,
0.891,3.77,3.94,-1.11,1.75,0.42,-1.09,
0.891,3.77,3.94,-1.11,1.78,0.40,-1.08,
0.892,3.77,3.94,-1.11,1.83,0.38,-1.05,
0.892,2.08,3.82,-1.37,1.83,0.38,-1.05,
0.894,2.08,3.82,-1.37,1.84,0.36,-1.04,
0.895,2.08,3.82,-1.37,1.86,0.32,-1.02,
0.896,2.08,3.82,-1.37,1.88,0.28,-1.00,
0.897,2.08,3.82,-1.37,1.89,0.24,-0.98,
0.897,2.08,3.82,-1.37,1.90,0.17,-0.94,
0.898,0.90,3.37,-2.37,1.90,0.17,-0.94,
0.899,0.90,3.37,-2.37,1.90,0.15,-0.92,
0.899,0.90,3.37,-2.37,1.90,0.12,-0.89,
0.9,0.90,3.37,-2.37,1.89,0.09,-0.86,
0.901,0.90,3.37,-2.37,1.88,0.06,-0.83,
0.902,0.90,3.37,-2.37,1.86,0.01,-0.78,
0.913,-0.14,3.15,-3.36,1.86,0.01,-0.78,
0.915,-0.14,3.15,-3.36,1.86,-0.01,-0.76,
0.915,-0.14,3.15,-3.36,1.84,-0.05,-0.73,
0.916,-0.14,3.15,-3.36,1.82,-0.09,-0.70,
0.916,-0.14,3.15,-3.36,1.79,-0.14,-0.66,
0.917,-0.14,3.15,-3.36,1.74,-0.23,-0.62,
0.917,-0.51,2.73,-4.57,1.74,-0.23,-0.62,
0.917,-0.51,2.73,-4.57,1.72,-0.26,-0.60,
0.918,-0.51,2.73,-4.57,1.69,-0.32,-0.58,
0.918,-0.51,2.73,-4.57,1.65,-0.39,-0.56,
0.919,-0.51,2.73,-4.57,1.62,-0.45,-0.54,
0.927,-0.51,2.73,-4.57,1.56,-0.56,-0.52,
0.928,-0.55,2.16,-5.07,1.56,-0.56,-0.52,
0.929,-0.55,2.16,-5.07,1.53,-0.64,-0.51,
0.929,-0.55,2.16,-5.07,1.37,-0.91,-0.48,
0.929,-0.55,2.16,-5.07,1.16,-1.22,-0.44,
0.93,-0.55,2.16,-5.07,0.93,-1.48,-0.41,
0.931,-0.55,2.16,-5.07,0.58,-1.78,-0.34,
0.933,-2.65,2.05,-13.36,0.58,-1.78,-0.34,
0.934,-2.65,2.05,-13.36,0.47,-1.86,-0.32,
0.935,-2.65,2.05,-13.36,0.26,-1.97,-0.26,
0.936,-2.65,2.05,-13.36,0.08,-2.03,-0.20,
0.944,-2.65,2.05,-13.36,-0.08,-2.05,-0.13,
0.946,-2.65,2.05,-13.36,-0.26,-2.01,-0.01,
0.947,-4.44,1.97,-14.54,-0.26,-2.01,-0.01,
0.948,-4.44,1.97,-14.54,-0.30,-1.98,0.03,
0.949,-4.44,1.97,-14.54,-0.38,-1.92,0.10,
0.949,-4.44,1.97,-14.54,-0.42,-1.84,0.17,
0.95,-4.44,1.97,-14.54,-0.45,-1.76,0.22,
0.951,-4.44,1.97,-14.54,-0.45,-1.67,0.28,
0.953,-2.82,1.03,-8.66,-0.45,-1.67,0.28,
0.954,-2.82,1.03,-8.66,-0.44,-1.64,0.29,
0.955,-2.82,1.03,-8.66,-0.41,-1.60,0.29,
0.97,-2.82,1.03,-8.66,-0.37,-1.57,0.29,
0.972,-2.82,1.03,-8.66,-0.32,-1.56,0.27,
0.973,-2.82,1.03,-8.66,-0.22,-1.55,0.24,
0.977,-0.07,0.35,-2.32,-0.22,-1.55,0.24,
0.978,-0.07,0.35,-2.32,-0.19,-1.55,0.23,
0.979,-0.07,0.35,-2.32,-0.11,-1.55,0.21,
0.98,-0.07,0.35,-2.32,-0.03,-1.54,0.19,
0.981,-0.07,0.35,-2.32,0.06,-1.54,0.17,
0.982,-0.07,0.35,-2.32,0.19,-1.52,0.14,
0.982,0.88,0.51,1.47,0.19,-1.52,0.14,
0.983,0.88,0.51,1.47,0.24,-1.52,0.13,
0.984,0.88,0.51,1.47,0.34,-1.51,0.12,
0.985,0.88,0.51,1.47,0.42,-1.49,0.11,
0.985,0.88,0.51,1.47,0.51,-1.48,0.10,
1.019,0.88,0.51,1.47,0.62,-1.46,0.09,
1.02,0.77,0.91,2.55,0.62,-1.46,0.09,
1.02,0.77,0.91,2.55,0.66,-1.45,0.09,
1.021,0.77,0.91,2.55,0.72,-1.43,0.08,
1.021,0.77,0.91,2.55,0.78,-1.41,0.08,
1.021,0.77,0.91,2.55,0.82,-1.40,0.07,
1.022,0.77,0.91,2.55,0.89,-1.37,0.07,
1.022,0.40,0.93,1.59,0.89,-1.37,0.07,
1.023,0.40,0.93,1.59,0.91,-1.36,0.07,
1.023,0.40,0.93,1.59,0.95,-1.33,0.06,
1.024,0.40,0.93,1.59,0.97,-1.33,0.06,
1.024,0.40,0.93,1.59,0.98,-1.33,0.07,
1.024,0.40,0.93,1.59,0.99,-1.33,0.07,
1.025,0.11,0.75,-0.01,0.99,-1.33,0.07,
1.025,0.11,0.75,-0.01,1.00,-1.33,0.08,
1.026,0.11,0.75,-0.01,1.00,-1.34,0.09,
1.026,0.11,0.75,-0.01,1.01,-1.34,0.10,
1.027,0.11,0.75,-0.01,1.01,-1.36,0.11,
1.027,0.11,0.75,-0.01,1.02,-1.41,0.14,
1.027,-0.31,0.88,-0.43,1.02,-1.41,0.14,
1.028,-0.31,0.88,-0.43,1.02,-1.43,0.14,
1.028,-0.31,0.88,-0.43,1.03,-1.47,0.17,
1.029,-0.31,0.88,-0.43,1.04,-1.52,0.18,
1.029,-0.31,0.88,-0.43,1.05,-1.57,0.20,
1.03,-0.31,0.88,-0.43,1.08,-1.64,0.22,
1.03,-0.45,1.08,0.23,1.08,-1.64,0.22,
1.03,-0.45,1.08,0.23,1.09,-1.66,0.23,
1.031,-0.45,1.08,0.23,1.11,-1.71,0.24,
1.031,-0.45,1.08,0.23,1.15,-1.76,0.24,
1.032,-0.45,1.08,0.23,1.18,-1.81,0.25,
1.032,-0.45,1.08,0.23,1.25,-1.87,0.25,
1.033,-0.21,1.12,1.55,1.25,-1.87,0.25,
1.033,-0.21,1.12,1.55,1.28,-1.89,0.25,
1.035,-0.21,1.12,1.55,1.34,-1.90,0.25,
1.038,-0.21,1.12,1.55,1.40,-1.92,0.25,
1.038,-0.21,1.12,1.55,1.46,-1.95,0.25,
1.046,-0.21,1.12,1.55,1.53,-1.99,0.27,
1.047,-0.15,0.78,2.60,1.53,-1.99,0.27,
1.047,-0.15,0.78,2.60,1.56,-2.00,0.28,
1.048,-0.15,0.78,2.60,1.60,-2.02,0.31,
1.048,-0.15,0.78,2.60,1.65,-2.02,0.34,
1.049,-0.15,0.78,2.60,1.70,-2.01,0.37,
1.054,-0.15,0.78,2.60,1.76,-1.99,0.42,
1.055,-1.12,0.45,2.70,1.76,-1.99,0.42,
1.055,-1.12,0.45,2.70,1.78,-1.99,0.44,
1.055,-1.12,0.45,2.70,1.82,-1.97,0.47,
1.063,-1.12,0.45,2.70,1.86,-1.93,0.50,
1.064,-1.12,0.45,2.70,1.90,-1.89,0.52,
1.065,-1.12,0.45,2.70,1.95,-1.82,0.56,
1.065,-1.24,0.09,2.18,1.95,-1.82,0.56,
1.065,-1.24,0.09,2.18,1.96,-1.79,0.58,
1.066,-1.24,0.09,2.18,1.98,-1.73,0.60,
1.066,-1.24,0.09,2.18,1.99,-1.66,0.63,
1.07,-1.24,0.09,2.18,1.99,-1.59,0.66,
1.076,-1.24,0.09,2.18,1.98,-1.45,0.70,
1.081,-1.08,-0.33,0.52,1.98,-1.45,0.70,
1.082,-1.08,-0.33,0.52,1.98,-1.39,0.71,
1.084,-1.08,-0.33,0.52,1.99,-1.28,0.73,
1.084,-1.08,-0.33,0.52,1.95,-1.21,0.76,
1.085,-1.08,-0.33,0.52,1.90,-1.14,0.79,
1.085,-1.08,-0.33,0.52,1.79,-1.03,0.84,
1.086,-1.36,-0.60,-1.53,1.79,-1.03,0.84,
1.086,-1.36,-0.60,-1.53,1.75,-1.01,0.86,
1.086,-1.36,-0.60,-1.53,1.67,-0.96,0.90,
1.089,-1.36,-0.60,-1.53,1.58,-0.92,0.94,
1.09,-1.36,-0.60,-1.53,1.48,-0.89,0.98,
1.106,-1.36,-0.60,-1.53,1.35,-0.84,1.03,
1.108,-1.68,-0.41,-4.17,1.35,-0.84,1.03,
1.109,-1.68,-0.41,-4.17,1.30,-0.83,1.05,
1.109,-1.68,-0.41,-4.17,1.22,-0.80,1.08,
1.11,-1.68,-0.41,-4.17,1.15,-0.78,1.11,
1.11,-1.68,-0.41,-4.17,1.08,-0.76,1.13,
1.11,-1.68,-0.41,-4.17,1.01,-0.73,1.17,
1.111,-1.76,-0.53,-3.95,1.01,-0.73,1.17,
1.111,-1.76,-0.53,-3.95,0.98,-0.73,1.18,
1.112,-1.76,-0.53,-3.95,0.94,-0.73,1.20,
1.113,-1.76,-0.53,-3.95,0.92,-0.73,1.22,
1.114,-1.76,-0.53,-3.95,0.90,-0.74,1.23,
1.12,-1.76,-0.53,-3.95,0.90,-0.76,1.26,
1.12,-1.44,-1.03,-1.71,0.90,-0.76,1.26,
1.121,-1.44,-1.03,-1.71,0.91,-0.76,1.27,
1.121,-1.44,-1.03,-1.71,0.93,-0.77,1.28,
1.121,-1.44,-1.03,-1.71,0.96,-0.78,1.29,
1.122,-1.44,-1.03,-1.71,1.00,-0.80,1.30,
1.122,-1.44,-1.03,-1.71,1.07,-0.82,1.33,
1.122,-1.23,-1.20,0.87,1.07,-0.82,1.33,
1.125,-1.23,-1.20,0.87,1.09,-0.82,1.34,
1.125,-1.23,-1.20,0.87,1.14,-0.80,1.36,
1.131,-1.23,-1.20,0.87,1.18,-0.81,1.39,
1.132,-1.23,-1.20,0.87,1.23,-0.85,1.44,
1.132,-1.23,-1.20,0.87,1.30,-0.89,1.51,
1.133,-2.47,-1.86,1.84,1.30,-0.89,1.51,
1.133,-2.47,-1.86,1.84,1.32,-0.90,1.54,
1.134,-2.47,-1.86,1.84,1.36,-0.92,1.60,
1.136,-2.47,-1.86,1.84,1.40,-0.93,1.65,
1.146,-2.47,-1.86,1.84,1.44,-0.93,1.70,
1.149,-2.47,-1.86,1.84,1.49,-0.88,1.76,
1.149,-3.24,-2.15,1.56,1.49,-0.88,1.76,
1.15,-3.24,-2.15,1.56,1.50,-0.87,1.79,
1.15,-3.24,-2.15,1.56,1.52,-0.83,1.85,
1.185,-3.24,-2.15,1.56,1.53,-0.78,1.94,
1.186,-3.24,-2.15,1.56,1.53,-0.72,2.02,
1.187,-3.24,-2.15,1.56,1.51,-0.64,2.18,
1.188,-4.70,-2.13,0.25,1.51,-0.64,2.18,
1.189,-4.70,-2.13,0.25,1.50,-0.61,2.23,
1.189,-4.70,-2.13,0.25,1.47,-0.56,2.33,
1.19,-4.70,-2.13,0.25,1.40,-0.49,2.53,
1.19,-4.70,-2.13,0.25,1.37,-0.46,2.60,
1.191,-4.70,-2.13,0.25,1.27,-0.38,2.80,
1.191,-6.41,-1.95,-1.64,1.27,-0.38,2.80,
1.192,-6.41,-1.95,-1.64,1.22,-0.35,2.87,
1.193,-6.41,-1.95,-1.64,1.13,-0.28,3.02,
1.193,-6.41,-1.95,-1.64,1.02,-0.19,3.15,
1.194,-6.41,-1.95,-1.64,0.91,-0.09,3.30,
1.195,-6.41,-1.95,-1.64,0.74,0.09,3.57,
1.195,-8.14,-2.59,-3.90,0.74,0.09,3.57,
1.195,-8.14,-2.59,-3.90,0.68,0.16,3.66,
1.196,-8.14,-2.59,-3.90,0.57,0.29,3.88,
1.196,-8.14,-2.59,-3.90,0.45,0.41,4.07,
1.197,-8.14,-2.59,-3.90,0.33,0.53,4.26,
1.197,-8.14,-2.59,-3.90,0.21,0.68,4.59,
1.198,-9.46,-3.49,-3.71,0.21,0.68,4.59,
1.198,-9.46,-3.49,-3.71,0.16,0.71,4.70,
1.199,-9.46,-3.49,-3.71,0.08,0.75,4.91,
1.199,-9.46,-3.49,-3.71,-0.02,0.75,5.10,
1.199,-9.46,-3.49,-3.71,-0.12,0.75,5.26,
1.2,-9.46,-3.49,-3.71,-0.24,0.78,5.49,
1.2,-7.93,-4.25,-2.32,-0.24,0.78,5.49,
1.201,-7.93,-4.25,-2.32,-0.27,0.79,5.56,
1.201,-7.93,-4.25,-2.32,-0.30,0.81,5.71,
1.202,-7.93,-4.25,-2.32,-0.30,0.80,5.86,
1.203,-7.93,-4.25,-2.32,-0.31,0.75,6.01,
1.203,-7.93,-4.25,-2.32,-0.31,0.63,6.13,
1.205,-4.96,-2.32,1.14,-0.31,0.63,6.13,
1.205,-4.96,-2.32,1.14,-0.31,0.59,6.14,
1.206,-4.96,-2.32,1.14,-0.30,0.52,6.15,
1.206,-4.96,-2.32,1.14,-0.27,0.44,6.12,
1.209,-4.96,-2.32,1.14,-0.24,0.36,6.05,
1.211,-4.96,-2.32,1.14,-0.19,0.26,5.88,
1.213,4.31,-1.14,2.79,-0.19,0.26,5.88,
1.213,4.31,-1.14,2.79,-0.19,0.23,5.81,
1.215,4.31,-1.14,2.79,-0.16,0.22,5.66,
1.216,4.31,-1.14,2.79,-0.11,0.28,5.49,
1.22,4.31,-1.14,2.79,-0.08,0.34,5.32,
1.222,4.31,-1.14,2.79,-0.05,0.35,5.06,
1.222,10.33,0.34,3.50,-0.05,0.35,5.06,
1.223,10.33,0.34,3.50,-0.04,0.35,4.99,
1.225,10.33,0.34,3.50,-0.05,0.34,4.84,
1.226,10.33,0.34,3.50,-0.07,0.35,4.71,
1.228,10.33,0.34,3.50,-0.08,0.36,4.59,
1.231,10.33,0.34,3.50,-0.20,0.39,4.45,
1.232,11.32,1.91,2.17,-0.20,0.39,4.45,
1.234,11.32,1.91,2.17,-0.24,0.40,4.42,
1.234,11.32,1.91,2.17,-0.30,0.45,4.38,
1.248,11.32,1.91,2.17,-0.44,0.53,4.36,
1.251,11.32,1.91,2.17,-0.57,0.64,4.37,
1.253,11.32,1.91,2.17,-0.75,0.88,4.45,
1.257,6.47,2.13,0.01,-0.75,0.88,4.45,
1.259,6.47,2.13,0.01,-0.82,0.97,4.48,
1.26,6.47,2.13,0.01,-1.00,1.17,4.54,
1.263,6.47,2.13,0.01,-1.21,1.41,4.62,
1.264,6.47,2.13,0.01,-1.40,1.69,4.71,
1.265,6.47,2.13,0.01,-1.70,2.08,4.86,
1.266,1.82,0.78,-2.69,-1.70,2.08,4.86,
1.267,1.82,0.78,-2.69,-1.82,2.19,4.91,
1.267,1.82,0.78,-2.69,-2.05,2.39,4.99,
1.268,1.82,0.78,-2.69,-2.27,2.57,5.08,
1.268,1.82,0.78,-2.69,-2.49,2.72,5.17,
1.269,1.82,0.78,-2.69,-2.77,2.91,5.29,
1.269,-1.29,-0.22,-3.34,-2.77,2.91,5.29,
1.27,-1.29,-0.22,-3.34,-2.86,2.94,5.34,
1.271,-1.29,-0.22,-3.34,-3.04,2.99,5.42,
1.271,-1.29,-0.22,-3.34,-3.18,3.01,5.50,
1.272,-1.29,-0.22,-3.34,-3.28,2.97,5.56,
1.272,-1.29,-0.22,-3.34,-3.38,2.83,5.63,
1.278,-2.38,0.87,-0.30,-3.38,2.83,5.63,
1.28,-2.38,0.87,-0.30,-3.38,2.75,5.63,
1.281,-2.38,0.87,-0.30,-3.37,2.56,5.61,
1.282,-2.38,0.87,-0.30,-3.32,2.34,5.55,
1.282,-2.38,0.87,-0.30,-3.23,2.08,5.45,
1.283,-2.38,0.87,-0.30,-3.04,1.59,5.21,
1.284,1.88,0.93,4.18,-3.04,1.59,5.21,
1.284,1.88,0.93,4.18,-2.97,1.40,5.10,
1.285,1.88,0.93,4.18,-2.81,1.01,4.87,
1.286,1.88,0.93,4.18,-2.62,0.58,4.62,
1.294,1.88,0.93,4.18,-2.43,0.14,4.35,
1.295,1.88,0.93,4.18,-2.12,-0.53,3.95,
1.296,6.91,0.56,6.90,-2.12,-0.53,3.95,
1.297,6.91,0.56,6.90,-2.02,-0.76,3.82,
1.297,6.91,0.56,6.90,-1.80,-1.21,3.57,
1.298,6.91,0.56,6.90,-1.59,-1.62,3.34,
1.298,6.91,0.56,6.90,-1.38,-1.98,3.13,
1.301,6.91,0.56,6.90,-1.09,-2.37,2.84,
1.302,5.29,0.95,4.95,-1.09,-2.37,2.84,
1.303,5.29,0.95,4.95,-1.01,-2.46,2.75,
1.308,5.29,0.95,4.95,-0.86,-2.61,2.60,
1.31,5.29,0.95,4.95,-0.73,-2.70,2.46,
1.311,5.29,0.95,4.95,-0.63,-2.72,2.35,
1.312,5.29,0.95,4.95,-0.49,-2.59,2.28,
1.313,0.27,1.00,-1.13,-0.49,-2.59,2.28,
1.343,0.27,1.00,-1.13,-0.46,-2.51,2.28,
1.343,0.27,1.00,-1.13,-0.41,-2.31,2.30,
1.344,0.27,1.00,-1.13,-0.39,-2.09,2.34,
1.345,0.27,1.00,-1.13,-0.39,-1.85,2.38,
1.345,0.27,1.00,-1.13,-0.40,-1.48,2.42,
1.346,-2.85,1.68,-5.72,-0.40,-1.48,2.42,
1.347,-2.85,1.68,-5.72,-0.42,-1.36,2.42,
1.347,-2.85,1.68,-5.72,-0.44,-1.12,2.40,
1.347,-2.85,1.68,-5.72,-0.50,-0.71,2.29,
1.348,-2.85,1.68,-5.72,-0.50,-0.71,2.29,
1.349,-2.85,1.68,-5.72,-0.51,-0.48,2.18,
1.349,-0.39,2.02,-4.39,-0.51,-0.48,2.18,
1.35,-0.39,2.02,-4.39,-0.50,-0.36,2.09,
1.35,-0.39,2.02,-4.39,-0.49,-0.30,2.04,
1.351,-0.39,2.02,-4.39,-0.48,-0.21,1.93,
1.351,-0.39,2.02,-4.39,-0.46,-0.13,1.82,
1.352,-0.39,2.02,-4.39,-0.42,-0.02,1.64,
1.353,2.19,1.29,-0.93,-0.42,-0.02,1.64,
1.354,2.19,1.29,-0.93,-0.40,0.01,1.59,
1.355,2.19,1.29,-0.93,-0.37,0.09,1.48,
1.355,2.19,1.29,-0.93,-0.33,0.16,1.39,
1.356,2.19,1.29,-0.93,-0.28,0.23,1.29,
1.357,2.19,1.29,-0.93,-0.22,0.35,1.17,
1.357,1.58,1.71,1.83,-0.22,0.35,1.17,
1.358,1.58,1.71,1.83,-0.21,0.39,1.13,
1.358,1.58,1.71,1.83,-0.19,0.47,1.06,
1.359,1.58,1.71,1.83,-0.17,0.54,0.98,
1.359,1.58,1.71,1.83,-0.18,0.60,0.91,
1.363,1.58,1.71,1.83,-0.20,0.72,0.82,
1.365,0.47,1.96,1.70,-0.20,0.72,0.82,
1.366,0.47,1.96,1.70,-0.21,0.77,0.79,
1.367,0.47,1.96,1.70,-0.25,0.93,0.75,
1.368,0.47,1.96,1.70,-0.30,1.10,0.71,
1.372,0.47,1.96,1.70,-0.34,1.23,0.69,
1.375,0.47,1.96,1.70,-0.41,1.37,0.66,
1.376,-0.52,-0.30,0.80,-0.41,1.37,0.66,
1.376,-0.52,-0.30,0.80,-0.43,1.40,0.65,
1.377,-0.52,-0.30,0.80,-0.47,1.43,0.63,
1.378,-0.52,-0.30,0.80,-0.50,1.43,0.61,
1.379,-0.52,-0.30,0.80,-0.52,1.42,0.57,
1.382,-0.52,-0.30,0.80,-0.54,1.37,0.52,
1.383,0.14,-3.63,0.44,-0.54,1.37,0.52,
1.384,0.14,-3.63,0.44,-0.54,1.34,0.50,
1.385,0.14,-3.63,0.44,-0.54,1.28,0.46,
1.404,0.14,-3.63,0.44,-0.54,1.20,0.41,
1.405,0.14,-3.63,0.44,-0.54,1.12,0.37,
1.406,0.14,-3.63,0.44,-0.52,0.99,0.31,
1.406,1.22,-5.25,0.44,-0.52,0.99,0.31,
1.406,1.22,-5.25,0.44,-0.52,0.93,0.30,
1.407,1.22,-5.25,0.44,-0.50,0.83,0.28,
1.407,1.22,-5.25,0.44,-0.47,0.73,0.26,
1.407,1.22,-5.25,0.44,-0.44,0.66,0.24,
1.408,1.22,-5.25,0.44,-0.41,0.56,0.21,
1.408,1.74,-6.41,0.75,-0.41,0.56,0.21,
1.408,1.74,-6.41,0.75,-0.39,0.53,0.20,
1.409,1.74,-6.41,0.75,-0.37,0.47,0.18,
1.409,1.74,-6.41,0.75,-0.35,0.41,0.16,
1.424,1.74,-6.41,0.75,-0.34,0.36,0.14,
1.424,1.74,-6.41,0.75,-0.32,0.27,0.11,
1.424,2.03,-7.35,0.76,-0.32,0.27,0.11,
1.425,2.03,-7.35,0.76,-0.31,0.24,0.11,
1.425,2.03,-7.35,0.76,-0.30,0.19,0.10,
1.425,2.03,-7.35,0.76,-0.29,0.10,0.09,
1.426,2.03,-7.35,0.76,-0.28,-0.06,0.06,
1.426,2.03,-7.35,0.76,-0.25,-0.49,0.02,
1.426,1.94,-6.51,0.44,-0.25,-0.49,0.02,
1.427,1.94,-6.51,0.44,-0.24,-0.62,0.01,
1.427,1.94,-6.51,0.44,-0.22,-0.86,-0.02,
1.427,1.94,-6.51,0.44,-0.20,-1.01,-0.04,
1.428,1.94,-6.51,0.44,-0.19,-0.95,-0.05,
1.431,1.94,-6.51,0.44,-0.22,-0.87,-0.06,
1.433,0.88,-4.00,0.58,-0.22,-0.87,-0.06,
1.433,0.88,-4.00,0.58,-0.22,-0.86,-0.07,
1.434,0.88,-4.00,0.58,-0.24,-0.77,-0.08,
1.437,0.88,-4.00,0.58,-0.28,-0.65,-0.07,
1.438,0.88,-4.00,0.58,-0.33,-0.61,-0.06,
1.441,0.88,-4.00,0.58,-0.40,-0.56,-0.05,
1.445,1.35,-2.18,0.06,-0.40,-0.56,-0.05,
1.446,1.35,-2.18,0.06,-0.42,-0.52,-0.04,
1.446,1.35,-2.18,0.06,-0.45,-0.46,-0.02,
1.446,1.35,-2.18,0.06,-0.48,-0.43,0.01,
1.448,1.35,-2.18,0.06,-0.49,-0.43,0.04,
1.451,1.35,-2.18,0.06,-0.50,-0.47,0.08,
1.453,1.24,0.65,0.00,-0.50,-0.47,0.08,
1.455,1.24,0.65,0.00,-0.50,-0.47,0.10,
1.455,1.24,0.65,0.00,-0.49,-0.47,0.12,
1.457,1.24,0.65,0.00,-0.47,-0.49,0.14,
1.459,1.24,0.65,0.00,-0.46,-0.51,0.17,
1.461,1.24,0.65,0.00,-0.41,-0.53,0.21,
1.464,0.57,0.72,0.18,-0.41,-0.53,0.21,
1.464,0.57,0.72,0.18,-0.40,-0.52,0.22,
1.465,0.57,0.72,0.18,-0.36,-0.51,0.25,
1.466,0.57,0.72,0.18,-0.32,-0.52,0.27,
1.468,0.57,0.72,0.18,-0.27,-0.54,0.30,
1.473,0.57,0.72,0.18,-0.20,-0.55,0.32,
1.475,0.61,0.34,0.49,-0.20,-0.55,0.32,
1.476,0.61,0.34,0.49,-0.17,-0.55,0.33,
1.476,0.61,0.34,0.49,-0.13,-0.54,0.33,
1.477,0.61,0.34,0.49,-0.09,-0.52,0.32,
1.478,0.61,0.34,0.49,-0.05,-0.49,0.30,
1.515,0.61,0.34,0.49,-0.01,-0.42,0.26,
1.516,1.24,-0.03,0.12,-0.01,-0.42,0.26,
1.517,1.24,-0.03,0.12,0.00,-0.40,0.25,
1.518,1.24,-0.03,0.12,0.02,-0.37,0.21,
1.519,1.24,-0.03,0.12,0.04,-0.33,0.17,
1.52,1.24,-0.03,0.12,0.04,-0.27,0.13,
1.523,1.24,-0.03,0.12,-0.02,-0.07,-0.01,
1.524,2.48,0.51,-0.64,-0.02,-0.07,-0.01,
1.524,2.48,0.51,-0.64,-0.04,-0.02,-0.05,
1.526,2.48,0.51,-0.64,-0.08,0.03,-0.10,
1.527,2.48,0.51,-0.64,-0.09,0.04,-0.12,
1.527,2.48,0.51,-0.64,-0.11,0.03,-0.11,
1.528,2.48,0.51,-0.64,-0.12,-0.00,-0.08,
1.529,0.40,1.17,-0.07,-0.12,-0.00,-0.08,
1.529,0.40,1.17,-0.07,-0.12,-0.01,-0.07,
1.53,0.40,1.17,-0.07,-0.12,-0.04,-0.03,
1.532,0.40,1.17,-0.07,-0.12,-0.06,0.04,
1.534,0.40,1.17,-0.07,-0.11,-0.06,0.09,
1.535,0.40,1.17,-0.07,-0.11,-0.06,0.14,
1.535,0.15,0.70,0.25,-0.11,-0.06,0.14,
1.537,0.15,0.70,0.25,-0.10,-0.05,0.17,
1.537,0.15,0.70,0.25,-0.09,-0.05,0.23,
1.538,0.15,0.70,0.25,-0.07,-0.05,0.28,
1.538,0.15,0.70,0.25,-0.05,-0.05,0.32,
1.539,0.15,0.70,0.25,-0.03,-0.08,0.37,
1.539,0.53,0.14,0.29,-0.03,-0.08,0.37,
1.539,0.53,0.14,0.29,-0.02,-0.09,0.37,
1.54,0.53,0.14,0.29,0.00,-0.11,0.38,
1.54,0.53,0.14,0.29,0.02,-0.14,0.38,
1.541,0.53,0.14,0.29,0.04,-0.16,0.37,
1.541,0.53,0.14,0.29,0.06,-0.16,0.35,
1.542,0.96,0.09,0.23,0.06,-0.16,0.35,
1.542,0.96,0.09,0.23,0.07,-0.16,0.34,
1.543,0.96,0.09,0.23,0.08,-0.14,0.32,
1.543,0.96,0.09,0.23,0.10,-0.12,0.30,
1.544,0.96,0.09,0.23,0.10,-0.10,0.27,
1.546,0.96,0.09,0.23,0.12,-0.07,0.24,
1.547,0.97,0.05,-0.05,0.12,-0.07,0.24,
1.549,0.97,0.05,-0.05,0.12,-0.06,0.22,
1.549,0.97,0.05,-0.05,0.12,-0.04,0.20,
1.549,0.97,0.05,-0.05,0.13,-0.01,0.18,
1.55,0.97,0.05,-0.05,0.13,0.03,0.16,
1.553,0.97,0.05,-0.05,0.12,0.09,0.13,
1.555,0.86,-0.10,-0.16,0.12,0.09,0.13,
1.556,0.86,-0.10,-0.16,0.12,0.11,0.13,
1.558,0.86,-0.10,-0.16,0.12,0.15,0.12,
1.559,0.86,-0.10,-0.16,0.11,0.18,0.11,
1.56,0.86,-0.10,-0.16,0.10,0.20,0.10,
1.561,0.86,-0.10,-0.16,0.08,0.23,0.09,
1.562,0.52,-0.12,-0.20,0.08,0.23,0.09,
1.563,0.52,-0.12,-0.20,0.08,0.23,0.08,
1.564,0.52,-0.12,-0.20,0.07,0.23,0.08,
1.566,0.52,-0.12,-0.20,0.06,0.23,0.07,
1.57,0.52,-0.12,-0.20,0.05,0.23,0.07,
1.575,0.52,-0.12,-0.20,0.04,0.22,0.06,
1.576,0.26,-0.15,-0.10,0.04,0.22,0.06,
1.577,0.26,-0.15,-0.10,0.03,0.22,0.06,
1.577,0.26,-0.15,-0.10,0.03,0.22,0.06,
1.578,0.26,-0.15,-0.10,0.02,0.20,0.06,
1.578,0.26,-0.15,-0.10,0.02,0.20,0.06,
1.581,0.26,-0.15,-0.10,0.01,0.18,0.07,
1.582,0.05,-0.04,0.16,0.01,0.18,0.07,
1.583,0.05,-0.04,0.16,0.01,0.17,0.07,
1.584,0.05,-0.04,0.16,0.02,0.16,0.07,
1.597,0.05,-0.04,0.16,0.03,0.14,0.08,
1.598,0.05,-0.04,0.16,0.03,0.13,0.08,
1.599,0.05,-0.04,0.16,0.05,0.11,0.09,
1.599,-0.39,0.19,0.46,0.05,0.11,0.09,
1.599,-0.39,0.19,0.46,0.06,0.11,0.09,
1.6,-0.39,0.19,0.46,0.07,0.10,0.10,
1.6,-0.39,0.19,0.46,0.09,0.09,0.10,
1.6,-0.39,0.19,0.46,0.10,0.06,0.10,
1.601,-0.39,0.19,0.46,0.12,0.05,0.10,
1.626,-0.53,0.28,0.47,0.12,0.05,0.10,
1.628,-0.53,0.28,0.47,0.13,0.05,0.10,
1.629,-0.53,0.28,0.47,0.14,0.04,0.10,
1.629,-0.53,0.28,0.47,0.16,0.03,0.11,
1.63,-0.53,0.28,0.47,0.17,0.02,0.11,
1.63,-0.53,0.28,0.47,0.19,0.02,0.11,
1.631,-0.69,0.32,0.34,0.19,0.02,0.11,
1.632,-0.69,0.32,0.34,0.19,0.01,0.11,
1.633,-0.69,0.32,0.34,0.20,0.01,0.11,
1.634,-0.69,0.32,0.34,0.20,0.02,0.11,
1.634,-0.69,0.32,0.34,0.20,0.02,0.12,
1.635,-0.69,0.32,0.34,0.20,0.04,0.11,
1.635,-0.75,0.38,0.00,0.20,0.04,0.11,
1.636,-0.75,0.38,0.00,0.19,0.04,0.12,
1.637,-0.75,0.38,0.00,0.20,0.04,0.12,
1.641,-0.75,0.38,0.00,0.20,0.05,0.12,
1.641,-0.75,0.38,0.00,0.19,0.05,0.12,
1.642,-0.75,0.38,0.00,0.18,0.07,0.12,
1.642,-0.79,0.52,-0.02,0.18,0.07,0.12,
1.643,-0.79,0.52,-0.02,0.18,0.08,0.12,
1.643,-0.79,0.52,-0.02,0.17,0.10,0.13,
1.643,-0.79,0.52,-0.02,0.16,0.13,0.13,
1.644,-0.79,0.52,-0.02,0.14,0.15,0.14,
1.644,-0.79,0.52,-0.02,0.07,0.17,0.14,
1.644,-0.96,0.83,-0.25,0.07,0.17,0.14,
1.645,-0.96,0.83,-0.25,0.03,0.16,0.14,
1.645,-0.96,0.83,-0.25,-0.06,0.12,0.12,
1.678,-0.96,0.83,-0.25,-0.18,0.07,0.09,
1.679,-0.96,0.83,-0.25,-0.32,0.00,0.05,
1.679,-0.96,0.83,-0.25,-0.55,-0.09,-0.02,
1.68,-1.09,2.88,-0.92,-0.55,-0.09,-0.02,
1.683,-1.09,2.88,-0.92,-0.62,-0.11,-0.04,
1.684,-1.09,2.88,-0.92,-0.74,-0.15,-0.06,
1.684,-1.09,2.88,-0.92,-0.85,-0.17,-0.06,
1.685,-1.09,2.88,-0.92,-0.94,-0.17,-0.05,
1.685,-1.09,2.88,-0.92,-1.02,-0.12,-0.04,
1.686,-1.72,3.82,0.13,-1.02,-0.12,-0.04,
1.686,-1.72,3.82,0.13,-1.03,-0.09,-0.03,
1.686,-1.72,3.82,0.13,-1.04,-0.03,-0.02,
1.687,-1.72,3.82,0.13,-1.03,0.05,0.00,
1.687,-1.72,3.82,0.13,-1.01,0.15,0.04,
1.688,-1.72,3.82,0.13,-0.95,0.37,0.12,
1.688,-1.85,3.56,0.72,-0.95,0.37,0.12,
1.689,-1.85,3.56,0.72,-0.93,0.45,0.15,
1.689,-1.85,3.56,0.72,-0.87,0.60,0.22,
1.689,-1.85,3.56,0.72,-0.81,0.75,0.30,
1.69,-1.85,3.56,0.72,-0.73,0.87,0.39,
1.69,-1.85,3.56,0.72,-0.59,1.03,0.54,
1.691,-1.66,1.85,0.43,-0.59,1.03,0.54,
1.691,-1.66,1.85,0.43,-0.49,1.11,0.64,
1.692,-1.66,1.85,0.43,-0.44,1.14,0.70,
1.692,-1.66,1.85,0.43,-0.34,1.19,0.80,
1.692,-1.66,1.85,0.43,-0.25,1.21,0.90,
1.696,-1.66,1.85,0.43,-0.12,1.19,1.06,
1.698,-1.96,1.38,0.57,-0.12,1.19,1.06,
1.699,-1.96,1.38,0.57,-0.09,1.16,1.11,
1.701,-1.96,1.38,0.57,-0.02,1.10,1.20,
1.708,-1.96,1.38,0.57,0.04,1.03,1.29,
1.709,-1.96,1.38,0.57,0.09,0.94,1.36,
1.71,-1.96,1.38,0.57,0.14,0.78,1.45,
1.71,-1.95,2.38,1.07,0.14,0.78,1.45,
1.711,-1.95,2.38,1.07,0.16,0.73,1.48,
1.712,-1.95,2.38,1.07,0.19,0.62,1.52,
1.713,-1.95,2.38,1.07,0.21,0.53,1.54,
1.714,-1.95,2.38,1.07,0.23,0.44,1.56,
1.715,-1.95,2.38,1.07,0.25,0.34,1.55,
1.716,-1.38,3.13,1.11,0.25,0.34,1.55,
1.717,-1.38,3.13,1.11,0.25,0.32,1.54,
1.718,-1.38,3.13,1.11,0.22,0.29,1.52,
1.718,-1.38,3.13,1.11,0.18,0.29,1.49,
1.719,-1.38,3.13,1.11,0.12,0.31,1.44,
1.746,-1.38,3.13,1.11,0.00,0.35,1.37,
1.748,-0.68,2.90,-0.18,0.00,0.35,1.37,
1.749,-0.68,2.90,-0.18,-0.08,0.37,1.31,
1.75,-0.68,2.90,-0.18,-0.12,0.37,1.27,
1.75,-0.68,2.90,-0.18,-0.19,0.36,1.20,
1.751,-0.68,2.90,-0.18,-0.26,0.34,1.12,
1.752,-0.68,2.90,-0.18,-0.33,0.28,1.01,
1.752,-0.75,3.02,-0.32,-0.33,0.28,1.01,
1.753,-0.75,3.02,-0.32,-0.36,0.22,0.95,
1.754,-0.75,3.02,-0.32,-0.38,0.19,0.92,
1.754,-0.75,3.02,-0.32,-0.40,0.13,0.86,
1.755,-0.75,3.02,-0.32,-0.41,0.11,0.82,
1.756,-0.75,3.02,-0.32,-0.41,0.08,0.78,
1.756,-1.75,3.48,0.69,-0.41,0.08,0.78,
1.757,-1.75,3.48,0.69,-0.38,0.07,0.76,
1.758,-1.75,3.48,0.69,-0.37,0.08,0.75,
1.759,-1.75,3.48,0.69,-0.34,0.10,0.74,
1.76,-1.75,3.48,0.69,-0.30,0.14,0.74,
1.775,-1.75,3.48,0.69,-0.27,0.22,0.77,
1.777,-2.11,2.48,1.09,-0.27,0.22,0.77,
1.778,-2.11,2.48,1.09,-0.24,0.28,0.80,
1.778,-2.11,2.48,1.09,-0.23,0.30,0.82,
1.779,-2.11,2.48,1.09,-0.20,0.34,0.87,
1.779,-2.11,2.48,1.09,-0.17,0.38,0.93,
1.78,-2.11,2.48,1.09,-0.14,0.42,1.06,
1.78,-2.49,1.11,0.67,-0.14,0.42,1.06,
1.781,-2.49,1.11,0.67,-0.13,0.43,1.14,
1.781,-2.49,1.11,0.67,-0.13,0.43,1.17,
1.782,-2.49,1.11,0.67,-0.12,0.42,1.23,
1.782,-2.49,1.11,0.67,-0.10,0.41,1.31,
1.783,-2.49,1.11,0.67,-0.07,0.38,1.43,
1.783,-2.58,0.42,0.44,-0.07,0.38,1.43,
1.784,-2.58,0.42,0.44,-0.07,0.35,1.47,
1.784,-2.58,0.42,0.44,-0.06,0.33,1.49,
1.785,-2.58,0.42,0.44,-0.04,0.31,1.54,
1.785,-2.58,0.42,0.44,-0.04,0.28,1.56,
1.786,-2.58,0.42,0.44,-0.03,0.26,1.61,
1.786,-2.40,0.45,0.34,-0.03,0.26,1.61,
1.786,-2.40,0.45,0.34,-0.06,0.25,1.65,
1.787,-2.40,0.45,0.34,-0.07,0.25,1.67,
1.79,-2.40,0.45,0.34,-0.08,0.24,1.72,
1.791,-2.40,0.45,0.34,-0.09,0.25,1.77,
1.792,-2.40,0.45,0.34,-0.11,0.27,1.87,
1.793,-2.92,-0.34,-0.27,-0.11,0.27,1.87,
1.794,-2.92,-0.34,-0.27,-0.13,0.30,1.96,
1.794,-2.92,-0.34,-0.27,-0.14,0.31,2.01,
1.796,-2.92,-0.34,-0.27,-0.17,0.33,2.09,
1.798,-2.92,-0.34,-0.27,-0.17,0.36,2.17,
1.812,-2.92,-0.34,-0.27,-0.13,0.41,2.30,
1.812,-3.24,-0.95,0.10,-0.13,0.41,2.30,
1.813,-3.24,-0.95,0.10,-0.12,0.44,2.38,
1.813,-3.24,-0.95,0.10,-0.12,0.45,2.42,
1.813,-3.24,-0.95,0.10,-0.13,0.46,2.52,
1.814,-3.24,-0.95,0.10,-0.16,0.43,2.61,
1.814,-3.24,-0.95,0.10,-0.25,0.33,2.74,
1.814,-3.33,-0.75,-0.51,-0.25,0.33,2.74,
1.849,-3.33,-0.75,-0.51,-0.29,0.25,2.82,
1.849,-3.33,-0.75,-0.51,-0.31,0.20,2.87,
1.85,-3.33,-0.75,-0.51,-0.34,0.08,2.95,
1.85,-3.33,-0.75,-0.51,-0.33,-0.11,3.01,
1.851,-3.33,-0.75,-0.51,-0.30,-0.48,3.05,
1.851,-2.70,-2.30,-0.29,-0.30,-0.48,3.05,
1.852,-2.70,-2.30,-0.29,-0.32,-0.65,3.05,
1.852,-2.70,-2.30,-0.29,-0.34,-0.72,3.05,
1.853,-2.70,-2.30,-0.29,-0.36,-0.83,3.04,
1.853,-2.70,-2.30,-0.29,-0.39,-0.92,3.03,
1.853,-2.70,-2.30,-0.29,-0.45,-0.97,3.01,
1.854,-1.63,-2.19,-1.20,-0.45,-0.97,3.01,
1.854,-1.63,-2.19,-1.20,-0.48,-0.93,2.99,
1.855,-1.63,-2.19,-1.20,-0.49,-0.88,2.97,
1.855,-1.63,-2.19,-1.20,-0.48,-0.72,2.93,
1.856,-1.63,-2.19,-1.20,-0.44,-0.50,2.86,
1.856,-1.63,-2.19,-1.20,-0.35,-0.08,2.73,
1.857,0.02,1.39,1.91,-0.35,-0.08,2.73,
1.857,0.02,1.39,1.91,-0.28,0.21,2.63,
1.857,0.02,1.39,1.91,-0.24,0.35,2.58,
1.858,0.02,1.39,1.91,-0.18,0.59,2.50,
1.858,0.02,1.39,1.91,-0.18,0.78,2.41,
1.859,0.02,1.39,1.91,-0.22,0.95,2.30,
1.859,0.46,3.65,2.53,-0.22,0.95,2.30,
1.859,0.46,3.65,2.53,-0.24,1.01,2.24,
1.86,0.46,3.65,2.53,-0.26,1.03,2.21,
1.86,0.46,3.65,2.53,-0.29,1.02,2.14,
1.86,0.46,3.65,2.53,-0.27,0.99,2.10,
1.861,0.46,3.65,2.53,-0.24,0.94,2.06,
1.866,0.09,2.06,0.66,-0.24,0.94,2.06,
1.867,0.09,2.06,0.66,-0.22,0.90,2.02,
1.867,0.09,2.06,0.66,-0.21,0.87,2.00,
1.868,0.09,2.06,0.66,-0.17,0.83,1.97,
1.868,0.09,2.06,0.66,-0.12,0.80,1.94,
1.871,0.09,2.06,0.66,-0.02,0.75,1.92,
1.872,-0.17,-0.21,1.57,-0.02,0.75,1.92,
1.872,-0.17,-0.21,1.57,0.03,0.71,1.92,
1.874,-0.17,-0.21,1.57,0.04,0.71,1.92,
1.877,-0.17,-0.21,1.57,0.05,0.70,1.93,
1.878,-0.17,-0.21,1.57,0.05,0.70,1.94,
1.881,-0.17,-0.21,1.57,0.01,0.73,1.97,
1.882,-0.32,-2.43,0.75,0.01,0.73,1.97,
1.883,-0.32,-2.43,0.75,0.01,0.72,2.00,
1.885,-0.32,-2.43,0.75,-0.00,0.71,2.01,
1.887,-0.32,-2.43,0.75,-0.02,0.63,2.06,
1.889,-0.32,-2.43,0.75,-0.06,0.52,2.05,
1.891,-0.32,-2.43,0.75,-0.10,0.38,1.97,
1.892,1.81,-15.07,-0.34,-0.10,0.38,1.97,
1.893,1.81,-15.07,-0.34,-0.11,0.29,1.94,
1.894,1.81,-15.07,-0.34,-0.11,0.23,1.94,
1.896,1.81,-15.07,-0.34,-0.07,0.05,2.03,
1.898,1.81,-15.07,-0.34,0.00,-0.20,2.23,
1.903,1.81,-15.07,-0.34,0.07,-0.71,2.66,
1.904,-0.10,-13.18,1.61,0.07,-0.71,2.66,
1.904,-0.10,-13.18,1.61,0.12,-1.09,3.01,
1.905,-0.10,-13.18,1.61,0.17,-1.27,3.21,
1.906,-0.10,-13.18,1.61,0.24,-1.66,3.53,
1.908,-0.10,-13.18,1.61,0.22,-2.06,3.68,
1.911,-0.10,-13.18,1.61,0.15,-2.42,3.81,
1.912,3.56,-18.49,-1.00,0.15,-2.42,3.81,
1.912,3.56,-18.49,-1.00,0.14,-2.52,3.88,
1.914,3.56,-18.49,-1.00,0.13,-2.56,3.91,
1.915,3.56,-18.49,-1.00,0.14,-2.59,3.95,
1.92,3.56,-18.49,-1.00,0.16,-2.57,3.94,
1.921,3.56,-18.49,-1.00,0.25,-2.45,3.80,
1.922,9.93,-10.40,0.41,0.25,-2.45,3.80,
1.923,9.93,-10.40,0.41,0.32,-2.31,3.61,
1.924,9.93,-10.40,0.41,0.36,-2.22,3.50,
1.926,9.93,-10.40,0.41,0.43,-2.00,3.26,
1.928,9.93,-10.40,0.41,0.50,-1.74,3.03,
1.931,9.93,-10.40,0.41,0.59,-1.13,2.66,
1.932,10.19,-5.16,1.61,0.59,-1.13,2.66,
1.933,10.19,-5.16,1.61,0.60,-0.98,2.58,
1.946,10.19,-5.16,1.61,0.62,-0.83,2.52,
1.947,10.19,-5.16,1.61,0.64,-0.56,2.42,
1.947,10.19,-5.16,1.61,0.65,-0.31,2.33,
1.948,10.19,-5.16,1.61,0.65,-0.01,2.23,
1.948,3.89,-3.27,0.45,0.65,-0.01,2.23,
1.949,3.89,-3.27,0.45,0.65,0.14,2.18,
1.95,3.89,-3.27,0.45,0.64,0.19,2.15,
1.951,3.89,-3.27,0.45,0.64,0.28,2.10,
1.951,3.89,-3.27,0.45,0.64,0.29,2.08,
1.972,3.89,-3.27,0.45,0.63,0.20,2.05,
1.974,-1.21,-1.75,0.00,0.63,0.20,2.05,
1.975,-1.21,-1.75,0.00,0.62,0.11,2.05,
1.976,-1.21,-1.75,0.00,0.61,0.00,2.05,
1.976,-1.21,-1.75,0.00,0.59,-0.12,2.05,
1.977,-1.21,-1.75,0.00,0.58,-0.25,2.05,
1.977,-1.21,-1.75,0.00,0.57,-0.40,2.05,
1.978,-3.93,0.64,-0.16,0.57,-0.40,2.05,
1.978,-3.93,0.64,-0.16,0.56,-0.56,2.04,
1.978,-3.93,0.64,-0.16,0.55,-0.69,2.03,
1.979,-3.93,0.64,-0.16,0.54,-0.80,2.01,
1.979,-3.93,0.64,-0.16,0.54,-0.88,1.98,
1.979,-3.93,0.64,-0.16,0.53,-0.92,1.95,
1.98,-4.70,1.37,-0.15,0.53,-0.92,1.95,
1.98,-4.70,1.37,-0.15,0.54,-0.94,1.93,
1.981,-4.70,1.37,-0.15,0.54,-0.94,1.90,
1.981,-4.70,1.37,-0.15,0.55,-0.91,1.87,
1.982,-4.70,1.37,-0.15,0.56,-0.86,1.85,
2.019,-4.70,1.37,-0.15,0.59,-0.73,1.81,
2.02,-3.98,0.28,0.05,0.59,-0.73,1.81,
2.02,-3.98,0.28,0.05,0.60,-0.67,1.79,
2.022,-3.98,0.28,0.05,0.62,-0.54,1.77,
2.023,-3.98,0.28,0.05,0.63,-0.40,1.74,
2.024,-3.98,0.28,0.05,0.65,-0.24,1.70,
2.025,-3.98,0.28,0.05,0.67,-0.00,1.63,
2.025,-2.20,-1.42,-0.56,0.67,-0.00,1.63,
2.026,-2.20,-1.42,-0.56,0.67,0.08,1.61,
2.028,-2.20,-1.42,-0.56,0.68,0.27,1.56,
2.029,-2.20,-1.42,-0.56,0.68,0.45,1.52,
2.029,-2.20,-1.42,-0.56,0.68,0.62,1.47,
2.029,-2.20,-1.42,-0.56,0.67,0.80,1.42,
2.03,-0.16,-2.35,-0.93,0.67,0.80,1.42,
2.031,-0.16,-2.35,-0.93,0.67,0.97,1.37,
2.032,-0.16,-2.35,-0.93,0.67,1.12,1.31,
2.033,-0.16,-2.35,-0.93,0.68,1.25,1.26,
2.034,-0.16,-2.35,-0.93,0.68,1.37,1.21,
2.035,-0.16,-2.35,-0.93,0.69,1.45,1.16,
2.035,1.33,-2.31,-0.22,0.69,1.45,1.16,
2.036,1.33,-2.31,-0.22,0.70,1.51,1.10,
2.037,1.33,-2.31,-0.22,0.71,1.55,1.04,
2.038,1.33,-2.31,-0.22,0.72,1.57,0.98,
2.038,1.33,-2.31,-0.22,0.72,1.57,0.92,
2.039,1.33,-2.31,-0.22,0.73,1.56,0.86,
2.039,1.93,-1.98,0.76,0.73,1.56,0.86,
2.04,1.93,-1.98,0.76,0.74,1.54,0.80,
2.04,1.93,-1.98,0.76,0.74,1.50,0.74,
2.04,1.93,-1.98,0.76,0.74,1.46,0.67,
2.041,1.93,-1.98,0.76,0.74,1.40,0.62,
2.041,1.93,-1.98,0.76,0.74,1.30,0.54,
2.042,1.69,-1.81,1.38,0.74,1.30,0.54,
2.042,1.69,-1.81,1.38,0.74,1.27,0.51,
2.043,1.69,-1.81,1.38,0.73,1.20,0.45,
2.043,1.69,-1.81,1.38,0.71,1.13,0.39,
2.043,1.69,-1.81,1.38,0.69,1.06,0.33,
2.044,1.69,-1.81,1.38,0.67,0.99,0.27,
2.044,1.24,-1.68,1.22,0.67,0.99,0.27,
2.045,1.24,-1.68,1.22,0.65,0.94,0.22,
2.045,1.24,-1.68,1.22,0.62,0.88,0.17,
2.046,1.24,-1.68,1.22,0.59,0.84,0.12,
2.05,1.24,-1.68,1.22,0.57,0.81,0.08,
2.066,1.24,-1.68,1.22,0.55,0.78,0.03,
2.068,1.16,-1.42,0.90,0.55,0.78,0.03,
2.069,1.16,-1.42,0.90,0.52,0.75,-0.01,
2.069,1.16,-1.42,0.90,0.49,0.74,-0.07,
2.07,1.16,-1.42,0.90,0.47,0.74,-0.13,
2.07,1.16,-1.42,0.90,0.45,0.75,-0.18,
2.071,1.16,-1.42,0.90,0.42,0.77,-0.23,
2.071,1.44,-0.71,0.50,0.42,0.77,-0.23,
2.072,1.44,-0.71,0.50,0.40,0.79,-0.27,
2.072,1.44,-0.71,0.50,0.36,0.82,-0.32,
2.072,1.44,-0.71,0.50,0.33,0.85,-0.36,
2.073,1.44,-0.71,0.50,0.29,0.88,-0.40,
2.087,1.44,-0.71,0.50,0.24,0.92,-0.43,
2.089,1.50,0.59,-0.06,0.24,0.92,-0.43,
2.09,1.50,0.59,-0.06,0.20,0.97,-0.47,
2.09,1.50,0.59,-0.06,0.16,1.01,-0.51,
2.09,1.50,0.59,-0.06,0.13,1.06,-0.55,
2.091,1.50,0.59,-0.06,0.11,1.12,-0.59,
2.091,1.50,0.59,-0.06,0.10,1.20,-0.64,
2.092,0.99,1.21,0.02,0.10,1.20,-0.64,
2.093,0.99,1.21,0.02,0.10,1.23,-0.65,
2.094,0.99,1.21,0.02,0.09,1.29,-0.68,
2.094,0.99,1.21,0.02,0.10,1.34,-0.69,
2.095,0.99,1.21,0.02,0.11,1.38,-0.69,
2.096,0.99,1.21,0.02,0.13,1.41,-0.69,
2.118,-0.09,1.93,0.40,0.13,1.41,-0.69,
2.119,-0.09,1.93,0.40,0.15,1.42,-0.67,
2.119,-0.09,1.93,0.40,0.18,1.41,-0.64,
2.12,-0.09,1.93,0.40,0.22,1.39,-0.60,
2.12,-0.09,1.93,0.40,0.28,1.36,-0.57,
2.12,-0.09,1.93,0.40,0.35,1.33,-0.52,
2.121,-0.83,2.48,1.11,0.35,1.33,-0.52,
2.121,-0.83,2.48,1.11,0.43,1.30,-0.47,
2.121,-0.83,2.48,1.11,0.48,1.26,-0.42,
2.122,-0.83,2.48,1.11,0.53,1.24,-0.36,
2.122,-0.83,2.48,1.11,0.57,1.22,-0.31,
2.122,-0.83,2.48,1.11,0.59,1.22,-0.27,
2.122,-0.70,1.78,0.89,0.59,1.22,-0.27,
2.123,-0.70,1.78,0.89,0.57,1.25,-0.23,
2.123,-0.70,1.78,0.89,0.54,1.28,-0.20,
2.123,-0.70,1.78,0.89,0.50,1.31,-0.18,
2.124,-0.70,1.78,0.89,0.47,1.34,-0.15,
2.124,-0.70,1.78,0.89,0.45,1.37,-0.13,
2.124,0.39,0.37,0.61,0.45,1.37,-0.13,
2.125,0.39,0.37,0.61,0.40,1.44,-0.11,
2.125,0.39,0.37,0.61,0.29,1.66,-0.05,
2.129,0.39,0.37,0.61,0.10,2.00,0.05,
2.133,0.39,0.37,0.61,-0.08,2.30,0.15,
2.134,0.39,0.37,0.61,-0.17,2.43,0.21,
2.135,0.52,-3.38,-0.34,-0.17,2.43,0.21,
2.139,0.52,-3.38,-0.34,-0.18,2.36,0.22,
2.139,0.52,-3.38,-0.34,-0.13,2.18,0.20,
2.14,0.52,-3.38,-0.34,-0.07,1.99,0.17,
2.141,0.52,-3.38,-0.34,-0.02,1.85,0.16,
2.142,0.52,-3.38,-0.34,0.02,1.75,0.13,
2.142,1.83,-3.76,1.58,0.02,1.75,0.13,
2.143,1.83,-3.76,1.58,0.03,1.74,0.11,
2.146,1.83,-3.76,1.58,0.04,1.72,0.09,
2.187,1.83,-3.76,1.58,0.07,1.69,0.05,
2.187,1.83,-3.76,1.58,0.10,1.66,0.01,
2.187,1.83,-3.76,1.58,0.13,1.63,-0.01,
2.188,1.81,-3.17,1.07,0.13,1.63,-0.01,
2.188,1.81,-3.17,1.07,0.16,1.62,-0.04,
2.189,1.81,-3.17,1.07,0.18,1.62,-0.06,
2.189,1.81,-3.17,1.07,0.20,1.64,-0.07,
2.19,1.81,-3.17,1.07,0.21,1.66,-0.08,
2.19,1.81,-3.17,1.07,0.23,1.69,-0.09,
2.191,1.16,-1.82,0.52,0.23,1.69,-0.09,
2.191,1.16,-1.82,0.52,0.25,1.71,-0.10,
2.191,1.16,-1.82,0.52,0.27,1.74,-0.10,
2.192,1.16,-1.82,0.52,0.28,1.76,-0.12,
2.192,1.16,-1.82,0.52,0.30,1.79,-0.13,
2.193,1.16,-1.82,0.52,0.33,1.81,-0.15,
2.193,0.71,-0.66,0.60,0.33,1.81,-0.15,
2.194,0.71,-0.66,0.60,0.35,1.82,-0.17,
2.194,0.71,-0.66,0.60,0.37,1.85,-0.19,
2.194,0.71,-0.66,0.60,0.40,1.88,-0.20,
2.195,0.71,-0.66,0.60,0.42,1.91,-0.21,
2.195,0.71,-0.66,0.60,0.45,1.94,-0.21,
2.196,-0.03,-0.08,0.59,0.45,1.94,-0.21,
2.196,-0.03,-0.08,0.59,0.46,1.95,-0.22,
2.197,-0.03,-0.08,0.59,0.49,1.96,-0.22,
2.197,-0.03,-0.08,0.59,0.51,1.97,-0.23,
2.197,-0.03,-0.08,0.59,0.53,1.98,-0.24,
2.198,-0.03,-0.08,0.59,0.56,1.98,-0.25,
2.198,0.11,0.20,0.78,0.56,1.98,-0.25,
2.199,0.11,0.20,0.78,0.57,1.99,-0.25,
2.199,0.11,0.20,0.78,0.58,1.99,-0.27,
2.2,0.11,0.20,0.78,0.60,2.00,-0.27,
2.2,0.11,0.20,0.78,0.61,1.99,-0.29,
2.201,0.11,0.20,0.78,0.63,1.98,-0.31,
2.205,0.77,0.50,0.92,0.63,1.98,-0.31,
2.205,0.77,0.50,0.92,0.63,1.97,-0.31,
2.206,0.77,0.50,0.92,0.64,1.97,-0.32,
2.21,0.77,0.50,0.92,0.64,1.98,-0.33,
2.21,0.77,0.50,0.92,0.63,1.99,-0.32,
2.211,0.77,0.50,0.92,0.63,2.00,-0.31,
2.212,1.05,0.28,0.96,0.63,2.00,-0.31,
2.213,1.05,0.28,0.96,0.63,1.99,-0.31,
2.214,1.05,0.28,0.96,0.63,1.99,-0.30,
2.229,1.05,0.28,0.96,0.63,1.99,-0.29,
2.23,1.05,0.28,0.96,0.62,2.01,-0.27,
2.23,1.05,0.28,0.96,0.59,2.07,-0.23,
2.23,0.90,-0.86,1.03,0.59,2.07,-0.23,
2.231,0.90,-0.86,1.03,0.57,2.09,-0.22,
2.231,0.90,-0.86,1.03,0.55,2.13,-0.20,
2.232,0.90,-0.86,1.03,0.53,2.15,-0.19,
2.232,0.90,-0.86,1.03,0.53,2.15,-0.19,
2.233,0.90,-0.86,1.03,0.53,2.14,-0.18,
2.235,1.77,-0.90,1.34,0.53,2.14,-0.18,
2.235,1.77,-0.90,1.34,0.53,2.14,-0.18,
2.238,1.77,-0.90,1.34,0.54,2.15,-0.18,
2.239,1.77,-0.90,1.34,0.54,2.15,-0.17,
2.239,1.77,-0.90,1.34,0.54,2.16,-0.17,
2.241,1.77,-0.90,1.34,0.54,2.17,-0.17,
2.242,1.68,-1.02,1.33,0.54,2.17,-0.17,
2.243,1.68,-1.02,1.33,0.54,2.17,-0.16,
2.245,1.68,-1.02,1.33,0.54,2.17,-0.16,
2.256,1.68,-1.02,1.33,0.54,2.16,-0.15,
2.258,1.68,-1.02,1.33,0.53,2.15,-0.15,
2.259,1.68,-1.02,1.33,0.53,2.12,-0.15,
2.26,1.68,-0.84,1.20,0.53,2.12,-0.15,
2.26,1.68,-0.84,1.20,0.53,2.11,-0.15,
2.261,1.68,-0.84,1.20,0.53,2.09,-0.15,
2.262,1.68,-0.84,1.20,0.53,2.06,-0.15,
2.263,1.68,-0.84,1.20,0.53,2.04,-0.15,
2.264,1.68,-0.84,1.20,0.53,2.01,-0.15,
2.265,1.45,-0.69,1.12,0.53,2.01,-0.15,
2.265,1.45,-0.69,1.12,0.53,2.00,-0.14,
2.266,1.45,-0.69,1.12,0.53,1.99,-0.14,
2.268,1.45,-0.69,1.12,0.53,1.99,-0.13,
2.269,1.45,-0.69,1.12,0.53,2.00,-0.12,
2.275,1.45,-0.69,1.12,0.53,2.02,-0.10,
2.277,0.96,-0.92,1.17,0.53,2.02,-0.10,
2.278,0.96,-0.92,1.17,0.52,2.02,-0.09,
2.278,0.96,-0.92,1.17,0.51,2.02,-0.07,
2.279,0.96,-0.92,1.17,0.50,2.01,-0.05,
2.279,0.96,-0.92,1.17,0.49,2.01,-0.03,
2.281,0.96,-0.92,1.17,0.48,1.99,-0.01,
2.292,0.77,-0.46,1.12,0.48,1.99,-0.01,
2.293,0.77,-0.46,1.12,0.48,1.98,0.00,
2.294,0.77,-0.46,1.12,0.48,1.97,0.02,
2.295,0.77,-0.46,1.12,0.49,1.96,0.05,
2.296,0.77,-0.46,1.12,0.49,1.95,0.09,
2.297,0.77,-0.46,1.12,0.51,1.96,0.16,
2.298,0.36,1.15,1.12,0.51,1.96,0.16,
2.299,0.36,1.15,1.12,0.51,1.97,0.19,
2.299,0.36,1.15,1.12,0.52,1.99,0.24,
2.3,0.36,1.15,1.12,0.54,2.03,0.29,
2.3,0.36,1.15,1.12,0.56,2.06,0.34,
2.306,0.36,1.15,1.12,0.60,2.12,0.41,
2.307,0.15,2.47,1.04,0.60,2.12,0.41,
2.308,0.15,2.47,1.04,0.62,2.14,0.44,
2.309,0.15,2.47,1.04,0.66,2.19,0.47,
2.309,0.15,2.47,1.04,0.70,2.23,0.51,
2.31,0.15,2.47,1.04,0.74,2.27,0.53,
2.311,0.15,2.47,1.04,0.84,2.31,0.56,
2.313,0.22,1.65,1.45,0.84,2.31,0.56,
2.343,0.22,1.65,1.45,0.87,2.33,0.57,
2.343,0.22,1.65,1.45,0.94,2.35,0.57,
2.344,0.22,1.65,1.45,1.02,2.38,0.56,
2.344,0.22,1.65,1.45,1.10,2.41,0.54,
2.345,0.22,1.65,1.45,1.20,2.46,0.50,
2.345,0.37,-0.75,1.65,1.20,2.46,0.50,
2.346,0.37,-0.75,1.65,1.23,2.47,0.49,
2.346,0.37,-0.75,1.65,1.29,2.51,0.45,
2.347,0.37,-0.75,1.65,1.37,2.57,0.38,
2.347,0.37,-0.75,1.65,1.37,2.57,0.38,
2.348,0.37,-0.75,1.65,1.40,2.58,0.29,
2.349,0.48,-2.93,1.10,1.40,2.58,0.29,
2.35,0.48,-2.93,1.10,1.40,2.58,0.25,
2.35,0.48,-2.93,1.10,1.36,2.56,0.17,
2.35,0.48,-2.93,1.10,1.35,2.51,0.08,
2.351,0.48,-2.93,1.10,1.39,2.46,0.04,
2.351,0.48,-2.93,1.10,1.47,2.41,0.11,
2.352,-0.07,-2.63,1.20,1.47,2.41,0.11,
2.353,-0.07,-2.63,1.20,1.49,2.39,0.14,
2.354,-0.07,-2.63,1.20,1.53,2.37,0.21,
2.354,-0.07,-2.63,1.20,1.55,2.36,0.26,
2.355,-0.07,-2.63,1.20,1.55,2.38,0.29,
2.355,-0.07,-2.63,1.20,1.53,2.46,0.29,
2.356,0.19,-1.27,0.60,1.53,2.46,0.29,
2.356,0.19,-1.27,0.60,1.51,2.50,0.28,
2.357,0.19,-1.27,0.60,1.49,2.58,0.26,
2.357,0.19,-1.27,0.60,1.46,2.65,0.23,
2.358,0.19,-1.27,0.60,1.44,2.72,0.21,
2.363,0.19,-1.27,0.60,1.40,2.81,0.20,
2.364,0.79,-0.87,0.69,1.40,2.81,0.20,
2.364,0.79,-0.87,0.69,1.39,2.83,0.20,
2.365,0.79,-0.87,0.69,1.37,2.85,0.21,
2.366,0.79,-0.87,0.69,1.33,2.85,0.21,
2.368,0.79,-0.87,0.69,1.30,2.84,0.21,
2.371,0.79,-0.87,0.69,1.24,2.76,0.23,
2.372,0.43,-0.82,1.16,1.24,2.76,0.23,
2.373,0.43,-0.82,1.16,1.23,2.73,0.24,
2.374,0.43,-0.82,1.16,1.20,2.64,0.26,
2.376,0.43,-0.82,1.16,1.17,2.55,0.28,
2.378,0.43,-0.82,1.16,1.14,2.46,0.29,
2.396,0.43,-0.82,1.16,1.11,2.35,0.31,
2.398,0.23,-0.42,1.48,1.11,2.35,0.31,
2.399,0.23,-0.42,1.48,1.10,2.32,0.32,
2.401,0.23,-0.42,1.48,1.07,2.27,0.33,
2.401,0.23,-0.42,1.48,1.03,2.23,0.32,
2.402,0.23,-0.42,1.48,1.00,2.20,0.33,
2.403,0.23,-0.42,1.48,0.93,2.15,0.32,
2.403,0.29,-0.49,0.88,0.93,2.15,0.32,
2.404,0.29,-0.49,0.88,0.90,2.13,0.32,
2.404,0.29,-0.49,0.88,0.85,2.08,0.32,
2.405,0.29,-0.49,0.88,0.78,2.04,0.32,
2.405,0.29,-0.49,0.88,0.73,1.99,0.33,
2.405,0.29,-0.49,0.88,0.64,1.92,0.34,
2.406,0.15,-1.39,0.53,0.64,1.92,0.34,
2.406,0.15,-1.39,0.53,0.62,1.89,0.34,
2.407,0.15,-1.39,0.53,0.57,1.85,0.34,
2.407,0.15,-1.39,0.53,0.52,1.81,0.35,
2.409,0.15,-1.39,0.53,0.47,1.77,0.35,
2.411,0.15,-1.39,0.53,0.41,1.74,0.34,
2.425,0.64,-2.16,0.53,0.41,1.74,0.34,
2.427,0.64,-2.16,0.53,0.39,1.73,0.33,
2.427,0.64,-2.16,0.53,0.35,1.74,0.33,
2.428,0.64,-2.16,0.53,0.31,1.75,0.32,
2.428,0.64,-2.16,0.53,0.27,1.76,0.31,
2.429,0.64,-2.16,0.53,0.22,1.79,0.29,
2.429,1.13,-2.09,0.28,0.22,1.79,0.29,
2.429,1.13,-2.09,0.28,0.20,1.80,0.28,
2.43,1.13,-2.09,0.28,0.16,1.81,0.26,
2.43,1.13,-2.09,0.28,0.13,1.82,0.24,
2.43,1.13,-2.09,0.28,0.08,1.83,0.21,
2.431,1.13,-2.09,0.28,0.01,1.84,0.15,
2.44,1.45,-2.42,0.28,0.01,1.84,0.15,
2.442,1.45,-2.42,0.28,-0.01,1.84,0.14,
2.442,1.45,-2.42,0.28,-0.06,1.84,0.11,
2.443,1.45,-2.42,0.28,-0.11,1.83,0.09,
2.443,1.45,-2.42,0.28,-0.17,1.83,0.07,
2.444,1.45,-2.42,0.28,-0.26,1.81,0.04,
2.445,1.13,-2.25,0.25,-0.26,1.81,0.04,
2.445,1.13,-2.25,0.25,-0.29,1.81,0.03,
2.445,1.13,-2.25,0.25,-0.35,1.78,0.01,
2.446,1.13,-2.25,0.25,-0.41,1.76,-0.02,
2.458,1.13,-2.25,0.25,-0.47,1.73,-0.04,
2.462,1.13,-2.25,0.25,-0.55,1.69,-0.07,
2.463,1.07,-1.64,0.21,-0.55,1.69,-0.07,
2.465,1.07,-1.64,0.21,-0.58,1.68,-0.08,
2.466,1.07,-1.64,0.21,-0.65,1.65,-0.09,
2.467,1.07,-1.64,0.21,-0.71,1.63,-0.10,
2.467,1.07,-1.64,0.21,-0.78,1.60,-0.11,
2.468,1.07,-1.64,0.21,-0.87,1.53,-0.10,
2.468,1.06,-0.24,0.08,-0.87,1.53,-0.10,
2.469,1.06,-0.24,0.08,-0.89,1.50,-0.09,
2.469,1.06,-0.24,0.08,-0.92,1.42,-0.06,
2.47,1.06,-0.24,0.08,-0.93,1.33,-0.03,
2.47,1.06,-0.24,0.08,-0.94,1.23,0.01,
2.471,1.06,-0.24,0.08,-0.94,1.04,0.07,
2.474,1.12,0.80,0.70,-0.94,1.04,0.07,
2.477,1.12,0.80,0.70,-0.93,0.96,0.09,
2.479,1.12,0.80,0.70,-0.92,0.78,0.14,
2.479,1.12,0.80,0.70,-0.91,0.61,0.18,
2.48,1.12,0.80,0.70,-0.90,0.45,0.21,
2.514,1.12,0.80,0.70,-0.85,0.26,0.25,
2.514,1.61,0.48,0.88,-0.85,0.26,0.25,
2.515,1.61,0.48,0.88,-0.82,0.20,0.25,
2.515,1.61,0.48,0.88,-0.76,0.13,0.26,
2.516,1.61,0.48,0.88,-0.67,0.11,0.25,
2.516,1.61,0.48,0.88,-0.57,0.15,0.23,
2.516,1.61,0.48,0.88,-0.40,0.30,0.17,
2.517,3.15,-0.46,1.16,-0.40,0.30,0.17,
2.517,3.15,-0.46,1.16,-0.33,0.37,0.15,
2.518,3.15,-0.46,1.16,-0.21,0.54,0.11,
2.518,3.15,-0.46,1.16,-0.07,0.73,0.08,
2.519,3.15,-0.46,1.16,0.07,0.92,0.06,
2.519,3.15,-0.46,1.16,0.26,1.18,0.04,
2.519,3.16,-0.61,0.76,0.26,1.18,0.04,
2.52,3.16,-0.61,0.76,0.32,1.26,0.04,
2.52,3.16,-0.61,0.76,0.41,1.40,0.03,
2.521,3.16,-0.61,0.76,0.48,1.50,0.03,
2.522,3.16,-0.61,0.76,0.53,1.56,0.03,
2.523,3.16,-0.61,0.76,0.56,1.60,0.04,
2.523,2.55,-0.46,-0.27,0.56,1.60,0.04,
2.524,2.55,-0.46,-0.27,0.56,1.60,0.04,
2.524,2.55,-0.46,-0.27,0.56,1.57,0.05,
2.525,2.55,-0.46,-0.27,0.54,1.54,0.06,
2.525,2.55,-0.46,-0.27,0.53,1.49,0.06,
2.526,2.55,-0.46,-0.27,0.50,1.39,0.08,
2.526,1.68,-0.32,-0.55,0.50,1.39,0.08,
2.527,1.68,-0.32,-0.55,0.49,1.36,0.08,
2.527,1.68,-0.32,-0.55,0.47,1.29,0.09,
2.527,1.68,-0.32,-0.55,0.46,1.23,0.09,
2.528,1.68,-0.32,-0.55,0.45,1.18,0.10,
2.539,1.68,-0.32,-0.55,0.42,1.13,0.10,
2.542,1.05,-0.39,-0.15,0.42,1.13,0.10,
2.543,1.05,-0.39,-0.15,0.42,1.11,0.11,
2.543,1.05,-0.39,-0.15,0.41,1.09,0.11,
2.544,1.05,-0.39,-0.15,0.39,1.08,0.11,
2.546,1.05,-0.39,-0.15,0.38,1.08,0.11,
2.547,1.05,-0.39,-0.15,0.37,1.08,0.10,
2.548,1.00,-0.72,0.02,0.37,1.08,0.10,
2.549,1.00,-0.72,0.02,0.36,1.09,0.10,
2.55,1.00,-0.72,0.02,0.34,1.10,0.09,
2.55,1.00,-0.72,0.02,0.32,1.10,0.08,
2.551,1.00,-0.72,0.02,0.30,1.11,0.07,
2.555,1.00,-0.72,0.02,0.27,1.13,0.06,
2.556,1.29,-0.93,-0.15,0.27,1.13,0.06,
2.557,1.29,-0.93,-0.15,0.25,1.14,0.06,
2.558,1.29,-0.93,-0.15,0.22,1.16,0.06,
2.559,1.29,-0.93,-0.15,0.18,1.18,0.05,
2.568,1.29,-0.93,-0.15,0.17,1.19,0.06,
2.57,1.29,-0.93,-0.15,0.14,1.21,0.06,
2.57,1.40,-1.02,-0.22,0.14,1.21,0.06,
2.571,1.40,-1.02,-0.22,0.13,1.21,0.07,
2.571,1.40,-1.02,-0.22,0.12,1.23,0.08,
2.572,1.40,-1.02,-0.22,0.11,1.24,0.09,
2.572,1.40,-1.02,-0.22,0.10,1.25,0.09,
2.573,1.40,-1.02,-0.22,0.09,1.28,0.10,
2.575,1.50,-1.17,-0.15,0.09,1.28,0.10,
2.576,1.50,-1.17,-0.15,0.09,1.29,0.10,
2.577,1.50,-1.17,-0.15,0.09,1.31,0.11,
2.578,1.50,-1.17,-0.15,0.09,1.33,0.11,
2.58,1.50,-1.17,-0.15,0.09,1.35,0.11,
2.582,1.50,-1.17,-0.15,0.08,1.38,0.11,
2.596,1.36,-1.18,-0.20,0.08,1.38,0.11,
2.599,1.36,-1.18,-0.20,0.08,1.39,0.11,
2.6,1.36,-1.18,-0.20,0.08,1.40,0.11,
2.601,1.36,-1.18,-0.20,0.08,1.40,0.12,
2.602,1.36,-1.18,-0.20,0.07,1.40,0.12,
2.602,1.36,-1.18,-0.20,0.07,1.39,0.13,
2.603,0.97,-0.98,-0.19,0.07,1.39,0.13,
2.604,0.97,-0.98,-0.19,0.07,1.39,0.13,
2.604,0.97,-0.98,-0.19,0.06,1.39,0.13,
2.604,0.97,-0.98,-0.19,0.06,1.38,0.14,
2.605,0.97,-0.98,-0.19,0.05,1.37,0.14,
2.605,0.97,-0.98,-0.19,0.05,1.36,0.15,
2.606,0.59,-0.62,-0.09,0.05,1.36,0.15,
2.606,0.59,-0.62,-0.09,0.04,1.35,0.15,
2.606,0.59,-0.62,-0.09,0.04,1.35,0.16,
2.607,0.59,-0.62,-0.09,0.03,1.34,0.17,
2.608,0.59,-0.62,-0.09,0.03,1.33,0.18,
2.611,0.59,-0.62,-0.09,0.02,1.32,0.19,
2.612,0.31,-0.25,0.01,0.02,1.32,0.19,
2.613,0.31,-0.25,0.01,0.02,1.31,0.20,
2.614,0.31,-0.25,0.01,0.01,1.30,0.21,
2.617,0.31,-0.25,0.01,0.01,1.29,0.22,
2.619,0.31,-0.25,0.01,0.00,1.28,0.24,
2.621,0.31,-0.25,0.01,0.00,1.26,0.26,
2.622,0.22,0.01,0.21,0.00,1.26,0.26,
2.623,0.22,0.01,0.21,-0.00,1.26,0.27,
2.624,0.22,0.01,0.21,-0.00,1.25,0.28,
2.626,0.22,0.01,0.21,-0.00,1.24,0.30,
2.628,0.22,0.01,0.21,0.00,1.23,0.31,
2.642,0.22,0.01,0.21,-0.00,1.22,0.34,
2.646,0.32,0.06,0.34,-0.00,1.22,0.34,
2.647,0.32,0.06,0.34,-0.00,1.21,0.34,
2.649,0.32,0.06,0.34,0.00,1.21,0.36,
2.65,0.32,0.06,0.34,0.01,1.20,0.37,
2.651,0.32,0.06,0.34,0.01,1.19,0.38,
2.654,0.32,0.06,0.34,0.01,1.18,0.39,
2.656,0.59,-0.17,0.48,0.01,1.18,0.39,
2.662,0.59,-0.17,0.48,0.02,1.18,0.39,
2.662,0.59,-0.17,0.48,0.02,1.17,0.40,
2.687,0.59,-0.17,0.48,0.03,1.17,0.41,
2.688,0.59,-0.17,0.48,0.03,1.16,0.41,
2.688,0.59,-0.17,0.48,0.04,1.15,0.41,
2.689,0.89,-0.50,0.57,0.04,1.15,0.41,
2.689,0.89,-0.50,0.57,0.04,1.14,0.41,
2.69,0.89,-0.50,0.57,0.04,1.14,0.41,
2.69,0.89,-0.50,0.57,0.04,1.14,0.40,
2.69,0.89,-0.50,0.57,0.04,1.13,0.40,
2.691,0.89,-0.50,0.57,0.05,1.12,0.39,
2.691,1.03,-0.79,0.65,0.05,1.12,0.39,
2.692,1.03,-0.79,0.65,0.05,1.12,0.39,
2.692,1.03,-0.79,0.65,0.05,1.12,0.38,
2.693,1.03,-0.79,0.65,0.05,1.11,0.37,
2.693,1.03,-0.79,0.65,0.05,1.10,0.37,
2.693,1.03,-0.79,0.65,0.06,1.10,0.35,
2.694,0.95,-0.93,0.73,0.06,1.10,0.35,
2.694,0.95,-0.93,0.73,0.06,1.09,0.35,
2.695,0.95,-0.93,0.73,0.06,1.09,0.34,
2.695,0.95,-0.93,0.73,0.06,1.08,0.34,
2.696,0.95,-0.93,0.73,0.07,1.08,0.33,
2.696,0.95,-0.93,0.73,0.07,1.07,0.32,
2.696,0.64,-0.88,0.60,0.07,1.07,0.32,
2.697,0.64,-0.88,0.60,0.08,1.07,0.32,
2.697,0.64,-0.88,0.60,0.08,1.07,0.31,
2.698,0.64,-0.88,0.60,0.08,1.07,0.31,
2.698,0.64,-0.88,0.60,0.08,1.07,0.30,
2.699,0.64,-0.88,0.60,0.08,1.07,0.30,
2.699,0.27,-0.73,0.51,0.08,1.07,0.30,
2.699,0.27,-0.73,0.51,0.09,1.07,0.29,
2.7,0.27,-0.73,0.51,0.09,1.07,0.29,
2.7,0.27,-0.73,0.51,0.09,1.06,0.30,
2.701,0.27,-0.73,0.51,0.10,1.04,0.30,
2.701,0.27,-0.73,0.51,0.09,1.03,0.29,
2.702,0.08,-0.68,0.48,0.09,1.03,0.29,
2.702,0.08,-0.68,0.48,0.08,1.02,0.29,
2.705,0.08,-0.68,0.48,0.08,1.01,0.28,
2.708,0.08,-0.68,0.48,0.07,1.00,0.27,
2.71,0.08,-0.68,0.48,0.06,0.99,0.26,
2.711,0.08,-0.68,0.48,0.06,0.98,0.25,
2.713,0.07,-0.67,0.43,0.06,0.98,0.25,
2.715,0.07,-0.67,0.43,0.06,0.98,0.25,
2.715,0.07,-0.67,0.43,0.06,0.97,0.26,
2.716,0.07,-0.67,0.43,0.05,0.97,0.25,
2.721,0.07,-0.67,0.43,0.04,0.97,0.24,
2.724,0.07,-0.67,0.43,0.03,0.97,0.25,
2.725,0.37,-0.78,0.23,0.03,0.97,0.25,
2.726,0.37,-0.78,0.23,0.02,0.97,0.25,
2.727,0.37,-0.78,0.23,0.01,0.96,0.24,
2.728,0.37,-0.78,0.23,0.01,0.96,0.23,
2.729,0.37,-0.78,0.23,-0.00,0.96,0.22,
2.734,0.37,-0.78,0.23,-0.01,0.97,0.21,
2.736,0.86,-0.47,0.11,-0.01,0.97,0.21,
2.738,0.86,-0.47,0.11,-0.01,0.97,0.21,
2.742,0.86,-0.47,0.11,-0.01,0.97,0.22,
2.744,0.86,-0.47,0.11,-0.01,0.97,0.21,
2.746,0.86,-0.47,0.11,-0.01,0.97,0.20,
2.746,0.86,-0.47,0.11,-0.03,0.98,0.18,
2.747,0.91,-0.67,0.09,-0.03,0.98,0.18,
2.747,0.91,-0.67,0.09,-0.03,0.98,0.18,
2.748,0.91,-0.67,0.09,-0.04,0.99,0.17,
2.748,0.91,-0.67,0.09,-0.04,0.99,0.17,
2.749,0.91,-0.67,0.09,-0.05,0.99,0.17,
2.752,0.91,-0.67,0.09,-0.07,1.00,0.15,
2.754,0.65,-1.00,-0.10,-0.07,1.00,0.15,
2.755,0.65,-1.00,-0.10,-0.08,1.00,0.15,
2.756,0.65,-1.00,-0.10,-0.10,1.00,0.14,
2.757,0.65,-1.00,-0.10,-0.12,1.00,0.13,
2.758,0.65,-1.00,-0.10,-0.15,0.99,0.13,
2.761,0.65,-1.00,-0.10,-0.18,0.96,0.11,
2.763,0.52,-1.08,-0.25,-0.18,0.96,0.11,
2.763,0.52,-1.08,-0.25,-0.19,0.95,0.11,
2.777,0.52,-1.08,-0.25,-0.20,0.92,0.12,
2.779,0.52,-1.08,-0.25,-0.20,0.89,0.12,
2.78,0.52,-1.08,-0.25,-0.21,0.87,0.09,
2.78,0.52,-1.08,-0.25,-0.24,0.87,0.05,
2.782,0.72,-1.28,-0.17,-0.24,0.87,0.05,
2.782,0.72,-1.28,-0.17,-0.25,0.87,0.04,
2.783,0.72,-1.28,-0.17,-0.27,0.86,0.02,
2.784,0.72,-1.28,-0.17,-0.28,0.84,0.02,
2.784,0.72,-1.28,-0.17,-0.29,0.82,0.03,
2.806,0.72,-1.28,-0.17,-0.31,0.78,0.01,
2.809,0.30,-1.20,-0.14,-0.31,0.78,0.01,
2.81,0.30,-1.20,-0.14,-0.32,0.77,0.00,
2.811,0.30,-1.20,-0.14,-0.34,0.76,-0.03,
2.813,0.30,-1.20,-0.14,-0.36,0.75,-0.06,
2.814,0.30,-1.20,-0.14,-0.38,0.75,-0.09,
2.815,0.30,-1.20,-0.14,-0.41,0.74,-0.13,
2.816,0.77,-0.40,-0.41,-0.41,0.74,-0.13,
2.817,0.77,-0.40,-0.41,-0.43,0.74,-0.15,
2.817,0.77,-0.40,-0.41,-0.47,0.76,-0.24,
2.818,0.77,-0.40,-0.41,-0.50,0.76,-0.24,
2.818,0.77,-0.40,-0.41,-0.48,0.71,-0.19,
2.819,0.77,-0.40,-0.41,-0.49,0.72,-0.22,
2.819,0.68,0.52,-0.42,-0.49,0.72,-0.22,
2.82,0.68,0.52,-0.42,-0.51,0.74,-0.26,
2.82,0.68,0.52,-0.42,-0.53,0.76,-0.30,
2.821,0.68,0.52,-0.42,-0.54,0.78,-0.31,
2.821,0.68,0.52,-0.42,-0.54,0.80,-0.32,
2.821,0.68,0.52,-0.42,-0.54,0.83,-0.30,
2.822,0.34,1.44,-0.59,-0.54,0.83,-0.30,
2.852,0.34,1.44,-0.59,-0.54,0.84,-0.30,
2.852,0.34,1.44,-0.59,-0.53,0.85,-0.29,
2.853,0.34,1.44,-0.59,-0.51,0.87,-0.28,
2.854,0.34,1.44,-0.59,-0.50,0.88,-0.28,
2.854,0.34,1.44,-0.59,-0.48,0.89,-0.29,
2.855,-0.22,-0.35,-0.17,-0.48,0.89,-0.29,
2.855,-0.22,-0.35,-0.17,-0.48,0.90,-0.29,
2.855,-0.22,-0.35,-0.17,-0.48,0.90,-0.29,
2.856,-0.22,-0.35,-0.17,-0.48,0.90,-0.30,
2.856,-0.22,-0.35,-0.17,-0.48,0.90,-0.31,
2.857,-0.22,-0.35,-0.17,-0.50,0.89,-0.31,
2.857,-0.18,-1.35,-0.39,-0.50,0.89,-0.31,
2.858,-0.18,-1.35,-0.39,-0.50,0.88,-0.31,
2.858,-0.18,-1.35,-0.39,-0.52,0.87,-0.31,
2.859,-0.18,-1.35,-0.39,-0.53,0.85,-0.32,
2.859,-0.18,-1.35,-0.39,-0.55,0.83,-0.32,
2.86,-0.18,-1.35,-0.39,-0.58,0.79,-0.33,
2.86,-0.03,-1.91,-0.52,-0.58,0.79,-0.33,
2.861,-0.03,-1.91,-0.52,-0.58,0.78,-0.33,
2.862,-0.03,-1.91,-0.52,-0.60,0.77,-0.34,
2.863,-0.03,-1.91,-0.52,-0.62,0.75,-0.34,
2.863,-0.03,-1.91,-0.52,-0.63,0.74,-0.35,
2.864,-0.03,-1.91,-0.52,-0.65,0.72,-0.35,
2.865,0.13,-1.64,-0.42,-0.65,0.72,-0.35,
2.865,0.13,-1.64,-0.42,-0.65,0.72,-0.35,
2.866,0.13,-1.64,-0.42,-0.67,0.72,-0.36,
2.866,0.13,-1.64,-0.42,-0.68,0.71,-0.36,
2.866,0.13,-1.64,-0.42,-0.69,0.71,-0.36,
2.867,0.13,-1.64,-0.42,-0.71,0.70,-0.36,
2.867,-0.11,-0.97,-0.28,-0.71,0.70,-0.36,
2.867,-0.11,-0.97,-0.28,-0.71,0.70,-0.36,
2.868,-0.11,-0.97,-0.28,-0.72,0.69,-0.35,
2.868,-0.11,-0.97,-0.28,-0.73,0.69,-0.34,
2.869,-0.11,-0.97,-0.28,-0.75,0.69,-0.33,
2.872,-0.11,-0.97,-0.28,-0.77,0.68,-0.30,
2.875,-0.89,-0.11,-0.35,-0.77,0.68,-0.30,
2.875,-0.89,-0.11,-0.35,-0.77,0.67,-0.29,
2.876,-0.89,-0.11,-0.35,-0.79,0.67,-0.28,
2.877,-0.89,-0.11,-0.35,-0.80,0.66,-0.26,
2.878,-0.89,-0.11,-0.35,-0.82,0.66,-0.24,
2.887,-0.89,-0.11,-0.35,-0.83,0.65,-0.21,
2.888,-1.73,0.54,-0.59,-0.83,0.65,-0.21,
2.888,-1.73,0.54,-0.59,-0.83,0.65,-0.19,
2.888,-1.73,0.54,-0.59,-0.84,0.65,-0.17,
2.889,-1.73,0.54,-0.59,-0.84,0.65,-0.14,
2.889,-1.73,0.54,-0.59,-0.84,0.66,-0.11,
2.891,-1.73,0.54,-0.59,-0.84,0.67,-0.06,
2.892,-2.45,0.71,-0.69,-0.84,0.67,-0.06,
2.893,-2.45,0.71,-0.69,-0.84,0.67,-0.04,
2.894,-2.45,0.71,-0.69,-0.83,0.69,-0.01,
2.907,-2.45,0.71,-0.69,-0.83,0.71,0.02,
2.909,-2.45,0.71,-0.69,-0.83,0.74,0.05,
2.91,-2.45,0.71,-0.69,-0.82,0.78,0.09,
2.911,-2.43,0.81,-0.92,-0.82,0.78,0.09,
2.911,-2.43,0.81,-0.92,-0.82,0.80,0.11,
2.912,-2.43,0.81,-0.92,-0.81,0.83,0.13,
2.912,-2.43,0.81,-0.92,-0.81,0.88,0.18,
2.928,-2.43,0.81,-0.92,-0.81,0.89,0.19,
2.929,-2.43,0.81,-0.92,-0.80,0.95,0.23,
2.933,-2.24,0.78,-1.05,-0.80,0.95,0.23,
2.934,-2.24,0.78,-1.05,-0.80,0.96,0.25,
2.935,-2.24,0.78,-1.05,-0.80,1.00,0.28,
2.936,-2.24,0.78,-1.05,-0.80,1.04,0.31,
2.937,-2.24,0.78,-1.05,-0.80,1.08,0.34,
2.939,-2.24,0.78,-1.05,-0.80,1.14,0.38,
2.939,-2.02,0.73,-1.23,-0.80,1.14,0.38,
2.94,-2.02,0.73,-1.23,-0.80,1.16,0.40,
2.942,-2.02,0.73,-1.23,-0.80,1.21,0.42,
2.942,-2.02,0.73,-1.23,-0.80,1.24,0.45,
2.944,-2.02,0.73,-1.23,-0.80,1.29,0.47,
2.945,-2.02,0.73,-1.23,-0.80,1.34,0.50,
2.946,-1.70,0.81,-1.27,-0.80,1.34,0.50,
2.947,-1.70,0.81,-1.27,-0.80,1.35,0.51,
2.947,-1.70,0.81,-1.27,-0.80,1.39,0.53,
2.948,-1.70,0.81,-1.27,-0.79,1.42,0.55,
2.949,-1.70,0.81,-1.27,-0.79,1.45,0.56,
2.95,-1.70,0.81,-1.27,-0.78,1.50,0.59,
2.95,-1.37,0.79,-1.15,-0.78,1.50,0.59,
2.95,-1.37,0.79,-1.15,-0.78,1.52,0.60,
2.952,-1.37,0.79,-1.15,-0.78,1.56,0.61,
2.952,-1.37,0.79,-1.15,-0.77,1.61,0.63,
2.953,-1.37,0.79,-1.15,-0.76,1.65,0.65,
2.955,-1.37,0.79,-1.15,-0.75,1.71,0.67,
2.955,-1.33,0.63,-1.17,-0.75,1.71,0.67,
2.956,-1.33,0.63,-1.17,-0.75,1.73,0.68,
2.957,-1.33,0.63,-1.17,-0.73,1.75,0.69,
2.957,-1.33,0.63,-1.17,-0.72,1.77,0.70,
2.962,-1.33,0.63,-1.17,-0.71,1.78,0.70,
2.965,-1.33,0.63,-1.17,-0.68,1.80,0.70,
2.966,-1.05,0.07,-0.69,-0.68,1.80,0.70,
2.968,-1.05,0.07,-0.69,-0.67,1.80,0.70,
2.969,-1.05,0.07,-0.69,-0.66,1.79,0.70,
2.97,-1.05,0.07,-0.69,-0.64,1.79,0.71,
2.971,-1.05,0.07,-0.69,-0.64,1.80,0.72,
2.972,-1.05,0.07,-0.69,-0.65,1.85,0.75,
2.973,-1.30,-0.33,-0.87,-0.65,1.85,0.75,
2.974,-1.30,-0.33,-0.87,-0.65,1.86,0.76,
2.975,-1.30,-0.33,-0.87,-0.66,1.90,0.78,
2.98,-1.30,-0.33,-0.87,-0.67,1.92,0.80,
2.982,-1.30,-0.33,-0.87,-0.67,1.94,0.81,
3.016,-1.30,-0.33,-0.87,-0.68,1.95,0.82,
3.017,-1.35,-0.66,-1.17,-0.68,1.95,0.82,
3.017,-1.35,-0.66,-1.17,-0.68,1.95,0.82,
3.018,-1.35,-0.66,-1.17,-0.68,1.95,0.83,
3.018,-1.35,-0.66,-1.17,-0.68,1.93,0.83,
3.019,-1.35,-0.66,-1.17,-0.69,1.91,0.84,
3.019,-1.35,-0.66,-1.17,-0.69,1.87,0.85,
3.019,-1.06,-0.84,-0.92,-0.69,1.87,0.85,
3.02,-1.06,-0.84,-0.92,-0.69,1.86,0.86,
3.02,-1.06,-0.84,-0.92,-0.69,1.83,0.87,
3.021,-1.06,-0.84,-0.92,-0.69,1.82,0.88,
3.022,-1.06,-0.84,-0.92,-0.69,1.80,0.89,
3.022,-1.06,-0.84,-0.92,-0.69,1.78,0.90,
3.023,-0.78,-0.78,-0.70,-0.69,1.78,0.90,
3.023,-0.78,-0.78,-0.70,-0.69,1.78,0.90,
3.024,-0.78,-0.78,-0.70,-0.69,1.77,0.91,
3.025,-0.78,-0.78,-0.70,-0.69,1.76,0.91,
3.025,-0.78,-0.78,-0.70,-0.68,1.75,0.92,
3.026,-0.78,-0.78,-0.70,-0.67,1.74,0.91,
3.026,-0.20,-0.56,-0.12,-0.67,1.74,0.91,
3.027,-0.20,-0.56,-0.12,-0.66,1.74,0.91,
3.027,-0.20,-0.56,-0.12,-0.65,1.73,0.91,
3.028,-0.20,-0.56,-0.12,-0.64,1.72,0.91,
3.029,-0.20,-0.56,-0.12,-0.63,1.71,0.90,
3.029,-0.20,-0.56,-0.12,-0.59,1.69,0.90,
3.03,0.42,-0.30,0.59,-0.59,1.69,0.90,
3.031,0.42,-0.30,0.59,-0.58,1.68,0.90,
3.032,0.42,-0.30,0.59,-0.56,1.67,0.90,
3.033,0.42,-0.30,0.59,-0.53,1.66,0.90,
3.033,0.42,-0.30,0.59,-0.50,1.65,0.91,
3.034,0.42,-0.30,0.59,-0.45,1.64,0.91,
3.034,1.00,0.02,1.08,-0.45,1.64,0.91,
3.034,1.00,0.02,1.08,-0.44,1.64,0.91,
3.035,1.00,0.02,1.08,-0.41,1.63,0.91,
3.037,1.00,0.02,1.08,-0.38,1.62,0.90,
3.038,1.00,0.02,1.08,-0.37,1.60,0.90,
3.057,1.00,0.02,1.08,-0.35,1.56,0.90,
3.057,1.52,0.29,1.01,-0.35,1.56,0.90,
3.058,1.52,0.29,1.01,-0.35,1.54,0.90,
3.058,1.52,0.29,1.01,-0.36,1.49,0.90,
3.058,1.52,0.29,1.01,-0.36,1.45,0.91,
3.059,1.52,0.29,1.01,-0.37,1.41,0.90,
3.059,1.52,0.29,1.01,-0.38,1.37,0.90,
3.059,1.78,0.20,0.77,-0.38,1.37,0.90,
3.059,1.78,0.20,0.77,-0.38,1.36,0.90,
3.06,1.78,0.20,0.77,-0.40,1.34,0.89,
3.06,1.78,0.20,0.77,-0.41,1.31,0.88,
3.06,1.78,0.20,0.77,-0.43,1.28,0.87,
3.061,1.78,0.20,0.77,-0.44,1.25,0.85,
3.068,1.90,-0.04,0.55,-0.44,1.25,0.85,
3.07,1.90,-0.04,0.55,-0.44,1.24,0.84,
3.071,1.90,-0.04,0.55,-0.44,1.22,0.82,
3.072,1.90,-0.04,0.55,-0.44,1.21,0.80,
3.072,1.90,-0.04,0.55,-0.43,1.20,0.78,
3.076,1.90,-0.04,0.55,-0.42,1.18,0.74,
3.077,1.92,-0.22,0.44,-0.42,1.18,0.74,
3.078,1.92,-0.22,0.44,-0.42,1.18,0.73,
3.079,1.92,-0.22,0.44,-0.41,1.17,0.71,
3.1,1.92,-0.22,0.44,-0.40,1.16,0.69,
3.102,1.92,-0.22,0.44,-0.39,1.15,0.67,
3.103,1.92,-0.22,0.44,-0.38,1.13,0.65,
3.103,1.56,-0.52,0.01,-0.38,1.13,0.65,
3.103,1.56,-0.52,0.01,-0.37,1.12,0.63,
3.104,1.56,-0.52,0.01,-0.35,1.11,0.61,
3.104,1.56,-0.52,0.01,-0.33,1.10,0.59,
3.104,1.56,-0.52,0.01,-0.31,1.08,0.56,
3.105,1.56,-0.52,0.01,-0.26,1.07,0.52,
3.105,1.69,-0.72,-0.41,-0.26,1.07,0.52,
3.105,1.69,-0.72,-0.41,-0.24,1.07,0.51,
3.106,1.69,-0.72,-0.41,-0.21,1.06,0.48,
3.106,1.69,-0.72,-0.41,-0.17,1.07,0.45,
3.107,1.69,-0.72,-0.41,-0.13,1.08,0.42,
3.107,1.69,-0.72,-0.41,-0.06,1.09,0.37,
3.107,1.89,-0.96,-0.62,-0.06,1.09,0.37,
3.108,1.89,-0.96,-0.62,-0.04,1.10,0.36,
3.108,1.89,-0.96,-0.62,0.00,1.13,0.33,
3.109,1.89,-0.96,-0.62,0.05,1.15,0.30,
3.109,1.89,-0.96,-0.62,0.09,1.17,0.26,
3.113,1.89,-0.96,-0.62,0.16,1.19,0.21,
3.115,2.26,-1.23,-0.34,0.16,1.19,0.21,
3.118,2.26,-1.23,-0.34,0.18,1.20,0.19,
3.119,2.26,-1.23,-0.34,0.22,1.21,0.15,
3.119,2.26,-1.23,-0.34,0.27,1.21,0.11,
3.119,2.26,-1.23,-0.34,0.31,1.21,0.08,
3.121,2.26,-1.23,-0.34,0.37,1.22,0.03,
3.123,2.12,-1.22,0.59,0.37,1.22,0.03,
3.123,2.12,-1.22,0.59,0.39,1.22,0.01,
3.124,2.12,-1.22,0.59,0.42,1.23,-0.02,
3.126,2.12,-1.22,0.59,0.45,1.23,-0.04,
3.129,2.12,-1.22,0.59,0.48,1.22,-0.07,
3.134,2.12,-1.22,0.59,0.51,1.18,-0.10,
3.135,1.68,-1.00,1.25,0.51,1.18,-0.10,
3.135,1.68,-1.00,1.25,0.52,1.16,-0.11,
3.136,1.68,-1.00,1.25,0.54,1.11,-0.13,
3.137,1.68,-1.00,1.25,0.57,1.04,-0.15,
3.138,1.68,-1.00,1.25,0.59,0.97,-0.17,
3.141,1.68,-1.00,1.25,0.64,0.85,-0.18,
3.143,1.32,-0.64,1.63,0.64,0.85,-0.18,
3.144,1.32,-0.64,1.63,0.65,0.81,-0.19,
3.147,1.32,-0.64,1.63,0.68,0.74,-0.20,
3.184,1.32,-0.64,1.63,0.72,0.67,-0.22,
3.187,1.32,-0.64,1.63,0.75,0.60,-0.24,
3.188,1.32,-0.64,1.63,0.79,0.52,-0.26,
3.188,1.15,-0.38,1.21,0.79,0.52,-0.26,
3.189,1.15,-0.38,1.21,0.80,0.49,-0.27,
3.189,1.15,-0.38,1.21,0.82,0.45,-0.29,
3.19,1.15,-0.38,1.21,0.83,0.42,-0.31,
3.19,1.15,-0.38,1.21,0.84,0.40,-0.32,
3.191,1.15,-0.38,1.21,0.84,0.37,-0.35,
3.191,1.22,-0.39,-0.38,0.84,0.37,-0.35,
3.191,1.22,-0.39,-0.38,0.83,0.36,-0.36,
3.192,1.22,-0.39,-0.38,0.82,0.35,-0.38,
3.192,1.22,-0.39,-0.38,0.81,0.34,-0.39,
3.193,1.22,-0.39,-0.38,0.79,0.33,-0.40,
3.193,1.22,-0.39,-0.38,0.76,0.32,-0.42,
3.194,1.15,-0.75,-1.65,0.76,0.32,-0.42,
3.194,1.15,-0.75,-1.65,0.75,0.31,-0.42,
3.194,1.15,-0.75,-1.65,0.73,0.30,-0.42,
3.195,1.15,-0.75,-1.65,0.70,0.29,-0.42,
3.195,1.15,-0.75,-1.65,0.68,0.28,-0.43,
3.196,1.15,-0.75,-1.65,0.64,0.27,-0.43,
3.196,0.97,-1.01,-2.13,0.64,0.27,-0.43,
3.197,0.97,-1.01,-2.13,0.63,0.26,-0.43,
3.197,0.97,-1.01,-2.13,0.61,0.25,-0.43,
3.198,0.97,-1.01,-2.13,0.60,0.24,-0.43,
3.198,0.97,-1.01,-2.13,0.58,0.23,-0.44,
3.198,0.97,-1.01,-2.13,0.57,0.22,-0.44,
3.199,0.83,-0.85,-2.01,0.57,0.22,-0.44,
3.199,0.83,-0.85,-2.01,0.57,0.21,-0.44,
3.2,0.83,-0.85,-2.01,0.57,0.20,-0.44,
3.2,0.83,-0.85,-2.01,0.57,0.19,-0.45,
3.201,0.83,-0.85,-2.01,0.58,0.18,-0.45,
3.201,0.83,-0.85,-2.01,0.59,0.18,-0.45,
3.202,0.28,-0.46,-1.64,0.59,0.18,-0.45,
3.202,0.28,-0.46,-1.64,0.60,0.18,-0.45,
3.204,0.28,-0.46,-1.64,0.60,0.19,-0.45,
3.207,0.28,-0.46,-1.64,0.61,0.20,-0.45,
3.208,0.28,-0.46,-1.64,0.62,0.21,-0.45,
3.212,0.28,-0.46,-1.64,0.64,0.24,-0.45,
3.212,-0.21,-0.04,-1.52,0.64,0.24,-0.45,
3.213,-0.21,-0.04,-1.52,0.65,0.26,-0.45,
3.214,-0.21,-0.04,-1.52,0.66,0.28,-0.45,
3.216,-0.21,-0.04,-1.52,0.67,0.31,-0.46,
3.218,-0.21,-0.04,-1.52,0.68,0.34,-0.46,
3.221,-0.21,-0.04,-1.52,0.70,0.39,-0.46,
3.222,-0.27,0.19,-1.28,0.70,0.39,-0.46,
3.223,-0.27,0.19,-1.28,0.70,0.40,-0.46,
3.224,-0.27,0.19,-1.28,0.71,0.43,-0.46,
3.226,-0.27,0.19,-1.28,0.73,0.46,-0.46,
3.24,-0.27,0.19,-1.28,0.74,0.48,-0.46,
3.242,-0.27,0.19,-1.28,0.75,0.51,-0.46,
3.242,-0.16,0.24,-0.99,0.75,0.51,-0.46,
3.243,-0.16,0.24,-0.99,0.75,0.51,-0.46,
3.244,-0.16,0.24,-0.99,0.76,0.52,-0.45,
3.245,-0.16,0.24,-0.99,0.76,0.53,-0.45,
3.245,-0.16,0.24,-0.99,0.76,0.53,-0.44,
3.272,-0.16,0.24,-0.99,0.75,0.52,-0.44,
3.275,-0.06,0.13,-0.85,0.75,0.52,-0.44,
3.276,-0.06,0.13,-0.85,0.75,0.51,-0.44,
3.277,-0.06,0.13,-0.85,0.74,0.49,-0.43,
3.278,-0.06,0.13,-0.85,0.72,0.46,-0.43,
3.28,-0.06,0.13,-0.85,0.71,0.43,-0.42,
3.281,-0.06,0.13,-0.85,0.67,0.36,-0.41,
3.283,-0.18,-0.04,-1.01,0.67,0.36,-0.41,
3.284,-0.18,-0.04,-1.01,0.66,0.34,-0.40,
3.285,-0.18,-0.04,-1.01,0.63,0.29,-0.40,
3.285,-0.18,-0.04,-1.01,0.58,0.21,-0.38,
3.286,-0.18,-0.04,-1.01,0.56,0.18,-0.38,
3.287,-0.18,-0.04,-1.01,0.51,0.09,-0.36,
3.287,-0.57,-0.24,-1.21,0.51,0.09,-0.36,
3.288,-0.57,-0.24,-1.21,0.49,0.05,-0.36,
3.288,-0.57,-0.24,-1.21,0.45,-0.02,-0.35,
3.289,-0.57,-0.24,-1.21,0.40,-0.08,-0.34,
3.289,-0.57,-0.24,-1.21,0.36,-0.15,-0.32,
3.29,-0.57,-0.24,-1.21,0.29,-0.26,-0.31,
3.29,-1.08,-0.20,-1.52,0.29,-0.26,-0.31,
3.29,-1.08,-0.20,-1.52,0.27,-0.29,-0.31,
3.291,-1.08,-0.20,-1.52,0.22,-0.36,-0.29,
3.291,-1.08,-0.20,-1.52,0.18,-0.43,-0.28,
3.292,-1.08,-0.20,-1.52,0.13,-0.50,-0.27,
3.292,-1.08,-0.20,-1.52,0.07,-0.59,-0.25,
3.292,-1.55,-0.02,-1.75,0.07,-0.59,-0.25,
3.293,-1.55,-0.02,-1.75,0.05,-0.62,-0.24,
3.293,-1.55,-0.02,-1.75,0.01,-0.66,-0.22,
3.294,-1.55,-0.02,-1.75,-0.02,-0.71,-0.20,
3.294,-1.55,-0.02,-1.75,-0.06,-0.74,-0.18,
3.295,-1.55,-0.02,-1.75,-0.10,-0.78,-0.16,
3.295,-1.80,0.37,-2.01,-0.10,-0.78,-0.16,
3.296,-1.80,0.37,-2.01,-0.12,-0.79,-0.15,
3.296,-1.80,0.37,-2.01,-0.14,-0.81,-0.13,
3.3,-1.80,0.37,-2.01,-0.16,-0.82,-0.11,
3.302,-1.80,0.37,-2.01,-0.17,-0.83,-0.09,
3.303,-1.80,0.37,-2.01,-0.19,-0.82,-0.06,
3.303,-1.57,0.75,-1.98,-0.19,-0.82,-0.06,
3.304,-1.57,0.75,-1.98,-0.19,-0.82,-0.05,
3.305,-1.57,0.75,-1.98,-0.20,-0.80,-0.03,
3.306,-1.57,0.75,-1.98,-0.20,-0.79,-0.01,
3.308,-1.57,0.75,-1.98,-0.21,-0.77,0.00,
3.322,-1.57,0.75,-1.98,-0.21,-0.74,0.03,
3.324,-1.00,0.88,-1.90,-0.21,-0.74,0.03,
3.358,-1.00,0.88,-1.90,-0.21,-0.72,0.03,
3.359,-1.00,0.88,-1.90,-0.22,-0.70,0.04,
3.359,-1.00,0.88,-1.90,-0.22,-0.68,0.06,
3.36,-1.00,0.88,-1.90,-0.22,-0.65,0.07,
3.361,-1.00,0.88,-1.90,-0.23,-0.63,0.08,
3.362,-0.41,0.67,-1.58,-0.23,-0.63,0.08,
3.363,-0.41,0.67,-1.58,-0.23,-0.62,0.09,
3.364,-0.41,0.67,-1.58,-0.23,-0.60,0.10,
3.366,-0.41,0.67,-1.58,-0.23,-0.57,0.10,
3.367,-0.41,0.67,-1.58,-0.23,-0.57,0.10,
3.368,-0.41,0.67,-1.58,-0.23,-0.55,0.11,
3.369,0.07,0.26,-1.20,-0.23,-0.55,0.11,
3.37,0.07,0.26,-1.20,-0.22,-0.53,0.11,
3.37,0.07,0.26,-1.20,-0.22,-0.53,0.10,
3.371,0.07,0.26,-1.20,-0.21,-0.52,0.10,
3.371,0.07,0.26,-1.20,-0.20,-0.51,0.09,
3.372,0.07,0.26,-1.20,-0.19,-0.50,0.08,
3.372,0.27,-0.16,-0.72,-0.19,-0.50,0.08,
3.373,0.27,-0.16,-0.72,-0.18,-0.50,0.08,
3.374,0.27,-0.16,-0.72,-0.16,-0.50,0.07,
3.374,0.27,-0.16,-0.72,-0.15,-0.50,0.06,
3.375,0.27,-0.16,-0.72,-0.13,-0.50,0.05,
3.375,0.27,-0.16,-0.72,-0.11,-0.50,0.03,
3.376,0.32,-0.54,-0.46,-0.11,-0.50,0.03,
3.377,0.32,-0.54,-0.46,-0.11,-0.50,0.03,
3.378,0.32,-0.54,-0.46,-0.09,-0.50,0.02,
3.379,0.32,-0.54,-0.46,-0.07,-0.51,0.00,
3.38,0.32,-0.54,-0.46,-0.06,-0.52,-0.01,
3.381,0.32,-0.54,-0.46,-0.04,-0.54,-0.02,
3.381,0.18,-0.72,-0.37,-0.04,-0.54,-0.02,
3.382,0.18,-0.72,-0.37,-0.03,-0.55,-0.03,
3.383,0.18,-0.72,-0.37,-0.03,-0.56,-0.04,
3.384,0.18,-0.72,-0.37,-0.02,-0.58,-0.05,
3.384,0.18,-0.72,-0.37,-0.01,-0.59,-0.06,
3.385,0.18,-0.72,-0.37,0.01,-0.62,-0.07,
3.386,0.18,-0.71,-0.38,0.01,-0.62,-0.07,
3.386,0.18,-0.71,-0.38,0.01,-0.63,-0.08,
3.387,0.18,-0.71,-0.38,0.02,-0.65,-0.08,
3.388,0.18,-0.71,-0.38,0.03,-0.67,-0.09,
3.389,0.18,-0.71,-0.38,0.03,-0.69,-0.10,
3.39,0.18,-0.71,-0.38,0.04,-0.72,-0.11,
3.39,0.38,-0.65,-0.32,0.04,-0.72,-0.11,
3.391,0.38,-0.65,-0.32,0.04,-0.72,-0.11,
3.391,0.38,-0.65,-0.32,0.04,-0.73,-0.12,
3.392,0.38,-0.65,-0.32,0.05,-0.74,-0.13,
3.392,0.38,-0.65,-0.32,0.05,-0.75,-0.13,
3.393,0.38,-0.65,-0.32,0.04,-0.77,-0.14,
3.394,0.73,-0.58,-0.30,0.04,-0.77,-0.14,
3.394,0.73,-0.58,-0.30,0.04,-0.77,-0.15,
3.395,0.73,-0.58,-0.30,0.04,-0.78,-0.16,
3.396,0.73,-0.58,-0.30,0.04,-0.80,-0.17,
3.4,0.73,-0.58,-0.30,0.04,-0.81,-0.17,
3.402,0.73,-0.58,-0.30,0.04,-0.83,-0.18,
3.402,0.98,-0.45,-0.21,0.04,-0.83,-0.18,
3.402,0.98,-0.45,-0.21,0.04,-0.83,-0.19,
3.404,0.98,-0.45,-0.21,0.05,-0.84,-0.19,
3.406,0.98,-0.45,-0.21,0.06,-0.85,-0.20,
3.414,0.98,-0.45,-0.21,0.07,-0.86,-0.20,
3.415,0.98,-0.45,-0.21,0.09,-0.87,-0.21,
3.415,1.06,-0.22,-0.16,0.09,-0.87,-0.21,
3.415,1.06,-0.22,-0.16,0.10,-0.87,-0.22,
3.416,1.06,-0.22,-0.16,0.11,-0.87,-0.22,
3.416,1.06,-0.22,-0.16,0.13,-0.87,-0.23,
3.418,1.06,-0.22,-0.16,0.15,-0.88,-0.23,
3.421,1.06,-0.22,-0.16,0.18,-0.87,-0.24,
3.424,1.03,0.01,-0.28,0.18,-0.87,-0.24,
3.425,1.03,0.01,-0.28,0.19,-0.87,-0.24,
3.425,1.03,0.01,-0.28,0.21,-0.87,-0.25,
3.425,1.03,0.01,-0.28,0.22,-0.87,-0.25,
3.428,1.03,0.01,-0.28,0.24,-0.88,-0.26,
3.432,1.03,0.01,-0.28,0.27,-0.88,-0.26,
3.432,1.04,0.12,-0.31,0.27,-0.88,-0.26,
3.433,1.04,0.12,-0.31,0.28,-0.88,-0.26,
3.436,1.04,0.12,-0.31,0.30,-0.88,-0.27,
3.436,1.04,0.12,-0.31,0.32,-0.89,-0.27,
3.438,1.04,0.12,-0.31,0.34,-0.89,-0.27,
3.441,1.04,0.12,-0.31,0.37,-0.90,-0.28,
3.442,0.91,0.16,-0.11,0.37,-0.90,-0.28,
3.443,0.91,0.16,-0.11,0.38,-0.90,-0.28,
3.457,0.91,0.16,-0.11,0.40,-0.91,-0.29,
3.46,0.91,0.16,-0.11,0.42,-0.92,-0.29,
3.461,0.91,0.16,-0.11,0.44,-0.93,-0.29,
3.462,0.91,0.16,-0.11,0.47,-0.94,-0.29,
3.465,0.54,0.10,0.18,0.47,-0.94,-0.29,
3.466,0.54,0.10,0.18,0.48,-0.95,-0.30,
3.467,0.54,0.10,0.18,0.50,-0.97,-0.30,
3.468,0.54,0.10,0.18,0.52,-0.99,-0.29,
3.468,0.54,0.10,0.18,0.54,-1.01,-0.29,
3.469,0.54,0.10,0.18,0.58,-1.04,-0.29,
3.47,0.01,0.04,0.57,0.58,-1.04,-0.29,
3.471,0.01,0.04,0.57,0.59,-1.05,-0.28,
3.471,0.01,0.04,0.57,0.61,-1.07,-0.28,
3.472,0.01,0.04,0.57,0.63,-1.09,-0.28,
3.473,0.01,0.04,0.57,0.65,-1.12,-0.27,
3.473,0.01,0.04,0.57,0.67,-1.15,-0.26,
3.474,-0.43,-0.04,0.98,0.67,-1.15,-0.26,
3.474,-0.43,-0.04,0.98,0.67,-1.16,-0.26,
3.475,-0.43,-0.04,0.98,0.69,-1.19,-0.25,
3.493,-0.43,-0.04,0.98,0.70,-1.21,-0.23,
3.496,-0.43,-0.04,0.98,0.70,-1.24,-0.22,
3.529,-0.43,-0.04,0.98,0.71,-1.27,-0.20,
3.53,-0.93,-0.03,1.11,0.71,-1.27,-0.20,
3.531,-0.93,-0.03,1.11,0.71,-1.28,-0.19,
3.531,-0.93,-0.03,1.11,0.70,-1.31,-0.17,
3.532,-0.93,-0.03,1.11,0.70,-1.33,-0.16,
3.533,-0.93,-0.03,1.11,0.68,-1.36,-0.14,
3.533,-0.93,-0.03,1.11,0.66,-1.38,-0.11,
3.534,-1.40,0.08,0.83,0.66,-1.38,-0.11,
3.534,-1.40,0.08,0.83,0.66,-1.39,-0.09,
3.535,-1.40,0.08,0.83,0.64,-1.41,-0.07,
3.535,-1.40,0.08,0.83,0.62,-1.42,-0.05,
3.536,-1.40,0.08,0.83,0.60,-1.43,-0.03,
3.536,-1.40,0.08,0.83,0.57,-1.43,0.00,
3.537,-1.76,0.13,0.41,0.57,-1.43,0.00,
3.537,-1.76,0.13,0.41,0.56,-1.42,0.01,
3.538,-1.76,0.13,0.41,0.54,-1.42,0.03,
3.538,-1.76,0.13,0.41,0.52,-1.41,0.06,
3.539,-1.76,0.13,0.41,0.50,-1.40,0.08,
3.539,-1.76,0.13,0.41,0.47,-1.38,0.11,
3.54,-2.03,-0.25,0.07,0.47,-1.38,0.11,
3.54,-2.03,-0.25,0.07,0.46,-1.38,0.12,
3.541,-2.03,-0.25,0.07,0.45,-1.37,0.14,
3.542,-2.03,-0.25,0.07,0.43,-1.36,0.15,
3.543,-2.03,-0.25,0.07,0.42,-1.35,0.17,
3.544,-2.03,-0.25,0.07,0.39,-1.34,0.20,
3.545,-1.73,-0.90,-0.35,0.39,-1.34,0.20,
3.546,-1.73,-0.90,-0.35,0.38,-1.33,0.21,
3.547,-1.73,-0.90,-0.35,0.35,-1.31,0.22,
3.547,-1.73,-0.90,-0.35,0.32,-1.29,0.24,
3.548,-1.73,-0.90,-0.35,0.28,-1.27,0.26,
3.549,-1.73,-0.90,-0.35,0.23,-1.23,0.28,
3.549,-0.96,-1.32,-1.04,0.23,-1.23,0.28,
3.55,-0.96,-1.32,-1.04,0.22,-1.21,0.28,
3.55,-0.96,-1.32,-1.04,0.18,-1.19,0.29,
3.551,-0.96,-1.32,-1.04,0.15,-1.17,0.30,
3.551,-0.96,-1.32,-1.04,0.12,-1.16,0.31,
3.551,-0.96,-1.32,-1.04,0.09,-1.16,0.31,
3.552,0.11,-1.33,-0.95,0.09,-1.16,0.31,
3.553,0.11,-1.33,-0.95,0.08,-1.16,0.31,
3.553,0.11,-1.33,-0.95,0.07,-1.18,0.32,
3.554,0.11,-1.33,-0.95,0.07,-1.20,0.32,
3.554,0.11,-1.33,-0.95,0.08,-1.23,0.32,
3.555,0.11,-1.33,-0.95,0.10,-1.27,0.32,
3.555,0.70,-0.98,-0.10,0.10,-1.27,0.32,
3.555,0.70,-0.98,-0.10,0.11,-1.28,0.33,
3.556,0.70,-0.98,-0.10,0.14,-1.30,0.33,
3.556,0.70,-0.98,-0.10,0.17,-1.32,0.34,
3.561,0.70,-0.98,-0.10,0.21,-1.33,0.35,
3.563,0.70,-0.98,-0.10,0.27,-1.32,0.36,
3.568,0.85,-0.51,0.97,0.27,-1.32,0.36,
3.569,0.85,-0.51,0.97,0.28,-1.31,0.36,
3.572,0.85,-0.51,0.97,0.31,-1.28,0.37,
3.573,0.85,-0.51,0.97,0.34,-1.26,0.37,
3.573,0.85,-0.51,0.97,0.36,-1.22,0.37,
3.574,0.85,-0.51,0.97,0.39,-1.19,0.37,
3.574,1.18,0.07,1.76,0.39,-1.19,0.37,
3.578,1.18,0.07,1.76,0.40,-1.18,0.37,
3.579,1.18,0.07,1.76,0.40,-1.18,0.37,
3.58,1.18,0.07,1.76,0.41,-1.19,0.37,
3.58,1.18,0.07,1.76,0.41,-1.22,0.36,
3.583,1.18,0.07,1.76,0.40,-1.30,0.36,
3.584,1.50,0.42,2.34,0.40,-1.30,0.36,
3.585,1.50,0.42,2.34,0.40,-1.34,0.35,
3.585,1.50,0.42,2.34,0.39,-1.41,0.35,
3.588,1.50,0.42,2.34,0.38,-1.49,0.34,
3.59,1.50,0.42,2.34,0.36,-1.57,0.34,
3.591,1.50,0.42,2.34,0.32,-1.69,0.32,
3.605,1.74,0.11,2.41,0.32,-1.69,0.32,
3.607,1.74,0.11,2.41,0.31,-1.72,0.32,
3.608,1.74,0.11,2.41,0.28,-1.79,0.31,
3.609,1.74,0.11,2.41,0.25,-1.85,0.30,
3.61,1.74,0.11,2.41,0.22,-1.90,0.29,
3.611,1.74,0.11,2.41,0.16,-1.95,0.28,
3.616,1.87,-0.66,1.65,0.16,-1.95,0.28,
3.616,1.87,-0.66,1.65,0.14,-1.97,0.27,
3.618,1.87,-0.66,1.65,0.10,-1.98,0.27,
3.63,1.87,-0.66,1.65,0.04,-1.98,0.27,
3.632,1.87,-0.66,1.65,0.00,-1.98,0.27,
3.633,1.87,-0.66,1.65,-0.03,-1.96,0.27,
3.634,1.75,-1.34,0.93,-0.03,-1.96,0.27,
3.634,1.75,-1.34,0.93,-0.05,-1.95,0.27,
3.635,1.75,-1.34,0.93,-0.09,-1.92,0.27,
3.635,1.75,-1.34,0.93,-0.13,-1.89,0.27,
3.636,1.75,-1.34,0.93,-0.16,-1.85,0.27,
3.637,1.75,-1.34,0.93,-0.20,-1.79,0.27,
3.637,1.54,-1.74,0.45,-0.20,-1.79,0.27,
3.637,1.54,-1.74,0.45,-0.22,-1.77,0.26,
3.638,1.54,-1.74,0.45,-0.25,-1.73,0.26,
3.638,1.54,-1.74,0.45,-0.27,-1.69,0.25,
3.638,1.54,-1.74,0.45,-0.30,-1.64,0.24,
3.639,1.54,-1.74,0.45,-0.32,-1.58,0.22,
3.639,1.42,-1.65,0.11,-0.32,-1.58,0.22,
3.639,1.42,-1.65,0.11,-0.34,-1.54,0.21,
3.64,1.42,-1.65,0.11,-0.34,-1.52,0.20,
3.64,1.42,-1.65,0.11,-0.35,-1.48,0.19,
3.64,1.42,-1.65,0.11,-0.34,-1.44,0.18,
3.641,1.42,-1.65,0.11,-0.34,-1.39,0.16,
3.643,1.20,-1.39,0.28,-0.34,-1.39,0.16,
3.644,1.20,-1.39,0.28,-0.33,-1.37,0.15,
3.645,1.20,-1.39,0.28,-0.32,-1.34,0.14,
3.675,1.20,-1.39,0.28,-0.31,-1.32,0.14,
3.675,1.20,-1.39,0.28,-0.30,-1.29,0.13,
3.676,1.20,-1.39,0.28,-0.28,-1.26,0.11,
3.676,0.91,-1.36,0.42,-0.28,-1.26,0.11,
3.677,0.91,-1.36,0.42,-0.28,-1.25,0.11,
3.677,0.91,-1.36,0.42,-0.27,-1.23,0.09,
3.678,0.91,-1.36,0.42,-0.27,-1.21,0.08,
3.678,0.91,-1.36,0.42,-0.28,-1.19,0.07,
3.678,0.91,-1.36,0.42,-0.29,-1.16,0.04,
3.679,0.43,-1.76,-0.17,-0.29,-1.16,0.04,
3.679,0.43,-1.76,-0.17,-0.30,-1.15,0.04,
3.68,0.43,-1.76,-0.17,-0.32,-1.12,0.02,
3.68,0.43,-1.76,-0.17,-0.34,-1.09,0.00,
3.681,0.43,-1.76,-0.17,-0.35,-1.05,-0.01,
3.681,0.43,-1.76,-0.17,-0.38,-0.99,-0.04,
3.681,-0.12,-2.13,-0.90,-0.38,-0.99,-0.04,
3.682,-0.12,-2.13,-0.90,-0.39,-0.96,-0.04,
3.682,-0.12,-2.13,-0.90,-0.40,-0.91,-0.06,
3.683,-0.12,-2.13,-0.90,-0.42,-0.86,-0.07,
3.683,-0.12,-2.13,-0.90,-0.43,-0.80,-0.09,
3.684,-0.12,-2.13,-0.90,-0.44,-0.71,-0.11,
3.684,-0.41,-2.03,-1.20,-0.44,-0.71,-0.11,
3.685,-0.41,-2.03,-1.20,-0.44,-0.68,-0.12,
3.685,-0.41,-2.03,-1.20,-0.45,-0.62,-0.13,
3.685,-0.41,-2.03,-1.20,-0.45,-0.55,-0.14,
3.69,-0.41,-2.03,-1.20,-0.45,-0.48,-0.15,
3.694,-0.41,-2.03,-1.20,-0.45,-0.39,-0.17,
3.695,-0.67,-1.60,-1.57,-0.45,-0.39,-0.17,
3.696,-0.67,-1.60,-1.57,-0.45,-0.36,-0.17,
3.696,-0.67,-1.60,-1.57,-0.45,-0.30,-0.18,
3.697,-0.67,-1.60,-1.57,-0.44,-0.23,-0.18,
3.698,-0.67,-1.60,-1.57,-0.44,-0.17,-0.19,
3.701,-0.67,-1.60,-1.57,-0.44,-0.08,-0.19,
3.702,-1.06,-1.21,-2.06,-0.44,-0.08,-0.19,
3.703,-1.06,-1.21,-2.06,-0.44,-0.05,-0.19,
3.704,-1.06,-1.21,-2.06,-0.43,0.00,-0.18,
3.706,-1.06,-1.21,-2.06,-0.43,0.05,-0.18,
3.708,-1.06,-1.21,-2.06,-0.43,0.08,-0.17,
3.712,-1.06,-1.21,-2.06,-0.42,0.11,-0.17,
3.713,-1.37,-0.77,-2.25,-0.42,0.11,-0.17,
3.713,-1.37,-0.77,-2.25,-0.42,0.11,-0.17,
3.714,-1.37,-0.77,-2.25,-0.42,0.11,-0.16,
3.716,-1.37,-0.77,-2.25,-0.42,0.10,-0.15,
3.718,-1.37,-0.77,-2.25,-0.42,0.07,-0.15,
3.721,-1.37,-0.77,-2.25,-0.42,0.02,-0.14,
3.722,-1.17,-0.54,-1.67,-0.42,0.02,-0.14,
3.723,-1.17,-0.54,-1.67,-0.42,-0.00,-0.14,
3.724,-1.17,-0.54,-1.67,-0.42,-0.04,-0.13,
3.739,-1.17,-0.54,-1.67,-0.43,-0.09,-0.13,
3.742,-1.17,-0.54,-1.67,-0.44,-0.14,-0.12,
3.742,-1.17,-0.54,-1.67,-0.47,-0.21,-0.10,
3.743,-0.74,-0.38,-1.31,-0.47,-0.21,-0.10,
3.744,-0.74,-0.38,-1.31,-0.49,-0.26,-0.09,
3.745,-0.74,-0.38,-1.31,-0.50,-0.28,-0.08,
3.746,-0.74,-0.38,-1.31,-0.52,-0.33,-0.06,
3.747,-0.74,-0.38,-1.31,-0.55,-0.39,-0.04,
3.747,-0.74,-0.38,-1.31,-0.58,-0.46,-0.01,
3.747,-0.07,-0.12,-1.07,-0.58,-0.46,-0.01,
3.748,-0.07,-0.12,-1.07,-0.59,-0.49,0.00,
3.749,-0.07,-0.12,-1.07,-0.62,-0.54,0.02,
3.77,-0.07,-0.12,-1.07,-0.64,-0.59,0.05,
3.772,-0.07,-0.12,-1.07,-0.67,-0.63,0.07,
3.773,-0.07,-0.12,-1.07,-0.70,-0.69,0.10,
3.774,0.82,-0.11,-0.78,-0.70,-0.69,0.10,
3.775,0.82,-0.11,-0.78,-0.70,-0.71,0.11,
3.775,0.82,-0.11,-0.78,-0.72,-0.74,0.12,
3.776,0.82,-0.11,-0.78,-0.74,-0.77,0.14,
3.779,0.82,-0.11,-0.78,-0.75,-0.79,0.15,
3.779,0.82,-0.11,-0.78,-0.76,-0.80,0.17,
3.78,1.56,-0.43,-0.36,-0.76,-0.80,0.17,
3.78,1.56,-0.43,-0.36,-0.77,-0.80,0.18,
3.78,1.56,-0.43,-0.36,-0.77,-0.80,0.19,
3.781,1.56,-0.43,-0.36,-0.78,-0.80,0.20,
3.781,1.56,-0.43,-0.36,-0.78,-0.80,0.22,
3.781,1.56,-0.43,-0.36,-0.79,-0.80,0.23,
3.782,2.08,-0.85,0.14,-0.79,-0.80,0.23,
3.782,2.08,-0.85,0.14,-0.79,-0.80,0.24,
3.782,2.08,-0.85,0.14,-0.79,-0.81,0.25,
3.783,2.08,-0.85,0.14,-0.80,-0.82,0.26,
3.783,2.08,-0.85,0.14,-0.79,-0.84,0.27,
3.783,2.08,-0.85,0.14,-0.79,-0.88,0.27,
3.784,2.33,-1.08,0.76,-0.79,-0.88,0.27,
3.784,2.33,-1.08,0.76,-0.79,-0.92,0.28,
3.784,2.33,-1.08,0.76,-0.79,-0.95,0.28,
3.786,2.33,-1.08,0.76,-0.78,-1.00,0.29,
3.788,2.33,-1.08,0.76,-0.78,-1.05,0.29,
3.8,2.33,-1.08,0.76,-0.77,-1.14,0.30,
3.801,2.47,-0.98,1.51,-0.77,-1.14,0.30,
3.801,2.47,-0.98,1.51,-0.76,-1.20,0.30,
3.802,2.47,-0.98,1.51,-0.76,-1.23,0.31,
3.802,2.47,-0.98,1.51,-0.75,-1.29,0.31,
3.803,2.47,-0.98,1.51,-0.74,-1.34,0.31,
3.803,2.47,-0.98,1.51,-0.74,-1.41,0.31,
3.803,2.58,-0.71,1.96,-0.74,-1.41,0.31,
3.804,2.58,-0.71,1.96,-0.73,-1.45,0.30,
3.804,2.58,-0.71,1.96,-0.73,-1.47,0.30,
3.806,2.58,-0.71,1.96,-0.72,-1.51,0.29,
3.809,2.58,-0.71,1.96,-0.71,-1.53,0.28,
3.812,2.58,-0.71,1.96,-0.69,-1.54,0.26,
3.813,2.86,-0.49,2.71,-0.69,-1.54,0.26,
3.846,2.86,-0.49,2.71,-0.68,-1.54,0.25,
3.848,2.86,-0.49,2.71,-0.67,-1.54,0.24,
3.849,2.86,-0.49,2.71,-0.65,-1.52,0.22,
3.849,2.86,-0.49,2.71,-0.63,-1.50,0.19,
3.85,2.86,-0.49,2.71,-0.59,-1.48,0.16,
3.85,2.63,-0.61,3.29,-0.59,-1.48,0.16,
3.851,2.63,-0.61,3.29,-0.57,-1.47,0.13,
3.851,2.63,-0.61,3.29,-0.56,-1.47,0.12,
3.853,2.63,-0.61,3.29,-0.54,-1.46,0.09,
3.854,2.63,-0.61,3.29,-0.52,-1.46,0.07,
3.855,2.63,-0.61,3.29,-0.50,-1.46,0.04,
3.855,1.76,-1.13,3.23,-0.50,-1.46,0.04,
3.856,1.76,-1.13,3.23,-0.49,-1.47,0.01,
3.857,1.76,-1.13,3.23,-0.48,-1.48,0.00,
3.858,1.76,-1.13,3.23,-0.48,-1.48,-0.02,
3.859,1.76,-1.13,3.23,-0.48,-1.49,-0.04,
3.859,1.76,-1.13,3.23,-0.48,-1.50,-0.07,
3.86,0.62,-1.63,2.46,-0.48,-1.50,-0.07,
3.86,0.62,-1.63,2.46,-0.48,-1.50,-0.08,
3.861,0.62,-1.63,2.46,-0.49,-1.49,-0.09,
3.862,0.62,-1.63,2.46,-0.50,-1.49,-0.11,
3.862,0.62,-1.63,2.46,-0.51,-1.48,-0.12,
3.863,0.62,-1.63,2.46,-0.52,-1.46,-0.13,
3.863,-0.16,-1.73,1.70,-0.52,-1.46,-0.13,
3.863,-0.16,-1.73,1.70,-0.53,-1.45,-0.14,
3.864,-0.16,-1.73,1.70,-0.53,-1.44,-0.14,
3.864,-0.16,-1.73,1.70,-0.53,-1.42,-0.14,
3.865,-0.16,-1.73,1.70,-0.53,-1.41,-0.13,
3.865,-0.16,-1.73,1.70,-0.53,-1.37,-0.13,
3.866,-0.53,-1.43,1.32,-0.53,-1.37,-0.13,
3.866,-0.53,-1.43,1.32,-0.52,-1.34,-0.13,
3.867,-0.53,-1.43,1.32,-0.52,-1.33,-0.13,
3.867,-0.53,-1.43,1.32,-0.51,-1.29,-0.12,
3.869,-0.53,-1.43,1.32,-0.50,-1.25,-0.12,
3.872,-0.53,-1.43,1.32,-0.48,-1.18,-0.11,
3.872,-0.73,-0.94,1.14,-0.48,-1.18,-0.11,
3.873,-0.73,-0.94,1.14,-0.47,-1.13,-0.09,
3.876,-0.73,-0.94,1.14,-0.47,-1.10,-0.09,
3.877,-0.73,-0.94,1.14,-0.45,-1.04,-0.07,
3.878,-0.73,-0.94,1.14,-0.44,-0.98,-0.05,
3.881,-0.73,-0.94,1.14,-0.43,-0.88,-0.02,
3.882,-1.21,-0.32,0.88,-0.43,-0.88,-0.02,
3.882,-1.21,-0.32,0.88,-0.43,-0.81,0.00,
3.883,-1.21,-0.32,0.88,-0.43,-0.77,0.01,
3.885,-1.21,-0.32,0.88,-0.42,-0.71,0.04,
3.888,-1.21,-0.32,0.88,-0.43,-0.64,0.06,
3.905,-1.21,-0.32,0.88,-0.44,-0.55,0.10,
3.907,-1.93,0.27,0.97,-0.44,-0.55,0.10,
3.908,-1.93,0.27,0.97,-0.45,-0.50,0.13,
3.908,-1.93,0.27,0.97,-0.46,-0.48,0.14,
3.909,-1.93,0.27,0.97,-0.47,-0.45,0.17,
3.91,-1.93,0.27,0.97,-0.50,-0.42,0.20,
3.91,-1.93,0.27,0.97,-0.53,-0.40,0.24,
3.911,-2.69,0.81,1.02,-0.53,-0.40,0.24,
3.912,-2.69,0.81,1.02,-0.56,-0.39,0.27,
3.912,-2.69,0.81,1.02,-0.58,-0.39,0.29,
3.913,-2.69,0.81,1.02,-0.61,-0.40,0.32,
3.914,-2.69,0.81,1.02,-0.65,-0.41,0.35,
3.915,-2.69,0.81,1.02,-0.72,-0.44,0.40,
3.937,-3.30,1.22,0.74,-0.72,-0.44,0.40,
3.939,-3.30,1.22,0.74,-0.76,-0.46,0.43,
3.939,-3.30,1.22,0.74,-0.78,-0.47,0.44,
3.94,-3.30,1.22,0.74,-0.82,-0.49,0.47,
3.94,-3.30,1.22,0.74,-0.87,-0.50,0.49,
3.941,-3.30,1.22,0.74,-0.93,-0.50,0.52,
3.941,-2.84,1.45,0.17,-0.93,-0.50,0.52,
3.942,-2.84,1.45,0.17,-0.97,-0.50,0.54,
3.943,-2.84,1.45,0.17,-0.98,-0.49,0.54,
3.944,-2.84,1.45,0.17,-1.01,-0.47,0.56,
3.944,-2.84,1.45,0.17,-1.04,-0.44,0.57,
3.945,-2.84,1.45,0.17,-1.07,-0.39,0.58,
3.946,-1.75,1.18,-0.33,-1.07,-0.39,0.58,
3.947,-1.75,1.18,-0.33,-1.08,-0.36,0.59,
3.948,-1.75,1.18,-0.33,-1.09,-0.34,0.59,
3.948,-1.75,1.18,-0.33,-1.10,-0.30,0.60,
3.949,-1.75,1.18,-0.33,-1.11,-0.27,0.60,
3.95,-1.75,1.18,-0.33,-1.11,-0.23,0.60,
3.95,-0.43,0.52,-0.37,-1.11,-0.23,0.60,
3.951,-0.43,0.52,-0.37,-1.11,-0.21,0.60,
3.951,-0.43,0.52,-0.37,-1.11,-0.20,0.60,
3.952,-0.43,0.52,-0.37,-1.10,-0.18,0.59,
3.953,-0.43,0.52,-0.37,-1.10,-0.17,0.58,
3.953,-0.43,0.52,-0.37,-1.09,-0.16,0.57,
3.954,0.74,-0.22,-0.30,-1.09,-0.16,0.57,
3.954,0.74,-0.22,-0.30,-1.08,-0.17,0.56,
3.955,0.74,-0.22,-0.30,-1.07,-0.17,0.55,
3.965,0.74,-0.22,-0.30,-1.04,-0.19,0.52,
3.968,0.74,-0.22,-0.30,-1.03,-0.20,0.51,
3.969,0.74,-0.22,-0.30,-1.00,-0.22,0.49,
3.97,1.76,-0.74,0.28,-1.00,-0.22,0.49,
3.97,1.76,-0.74,0.28,-0.97,-0.24,0.47,
3.97,1.76,-0.74,0.28,-0.95,-0.25,0.46,
3.971,1.76,-0.74,0.28,-0.92,-0.27,0.44,
3.971,1.76,-0.74,0.28,-0.88,-0.29,0.42,
3.987,1.76,-0.74,0.28,-0.84,-0.31,0.38,
3.989,2.70,-0.93,1.26,-0.84,-0.31,0.38,
3.989,2.70,-0.93,1.26,-0.80,-0.32,0.36,
3.99,2.70,-0.93,1.26,-0.79,-0.32,0.34,
3.99,2.70,-0.93,1.26,-0.76,-0.32,0.32,
3.991,2.70,-0.93,1.26,-0.73,-0.32,0.29,
4.024,2.70,-0.93,1.26,-0.69,-0.31,0.26,
4.024,3.18,-0.88,1.92,-0.69,-0.31,0.26,
4.024,3.18,-0.88,1.92,-0.67,-0.29,0.23,
4.025,3.18,-0.88,1.92,-0.67,-0.29,0.22,
4.025,3.18,-0.88,1.92,-0.65,-0.28,0.20,
4.026,3.18,-0.88,1.92,-0.65,-0.28,0.18,
4.026,3.18,-0.88,1.92,-0.64,-0.29,0.17,
4.027,2.87,-0.89,2.20,-0.64,-0.29,0.17,
4.027,2.87,-0.89,2.20,-0.64,-0.31,0.17,
4.028,2.87,-0.89,2.20,-0.64,-0.32,0.16,
4.028,2.87,-0.89,2.20,-0.65,-0.33,0.16,
4.028,2.87,-0.89,2.20,-0.66,-0.34,0.17,
4.029,2.87,-0.89,2.20,-0.67,-0.34,0.18,
4.029,1.81,-0.92,2.09,-0.67,-0.34,0.18,
4.03,1.81,-0.92,2.09,-0.67,-0.33,0.18,
4.03,1.81,-0.92,2.09,-0.69,-0.32,0.19,
4.031,1.81,-0.92,2.09,-0.70,-0.29,0.20,
4.031,1.81,-0.92,2.09,-0.70,-0.27,0.21,
4.031,1.81,-0.92,2.09,-0.72,-0.23,0.22,
4.032,1.06,-0.82,2.04,-0.72,-0.23,0.22,
4.032,1.06,-0.82,2.04,-0.73,-0.19,0.23,
4.033,1.06,-0.82,2.04,-0.73,-0.15,0.24,
4.033,1.06,-0.82,2.04,-0.74,-0.11,0.26,
4.034,1.06,-0.82,2.04,-0.75,-0.06,0.27,
4.034,1.06,-0.82,2.04,-0.76,-0.02,0.28,
4.034,0.43,-0.52,2.02,-0.76,-0.02,0.28,
4.035,0.43,-0.52,2.02,-0.77,0.02,0.29,
4.035,0.43,-0.52,2.02,-0.78,0.06,0.30,
4.036,0.43,-0.52,2.02,-0.79,0.09,0.31,
4.036,0.43,-0.52,2.02,-0.80,0.12,0.32,
4.037,0.43,-0.52,2.02,-0.82,0.14,0.33,
4.037,-0.18,-0.23,1.92,-0.82,0.14,0.33,
4.037,-0.18,-0.23,1.92,-0.83,0.16,0.35,
4.038,-0.18,-0.23,1.92,-0.84,0.17,0.36,
4.038,-0.18,-0.23,1.92,-0.86,0.17,0.38,
4.039,-0.18,-0.23,1.92,-0.88,0.16,0.39,
4.041,-0.18,-0.23,1.92,-0.89,0.15,0.41,
4.042,-0.63,0.00,1.63,-0.89,0.15,0.41,
4.042,-0.63,0.00,1.63,-0.91,0.13,0.42,
4.044,-0.63,0.00,1.63,-0.93,0.11,0.44,
4.046,-0.63,0.00,1.63,-0.94,0.09,0.46,
4.048,-0.63,0.00,1.63,-0.96,0.06,0.47,
4.051,-0.63,0.00,1.63,-0.97,0.03,0.49,
4.052,-0.78,0.15,1.29,-0.97,0.03,0.49,
4.053,-0.78,0.15,1.29,-0.99,-0.01,0.51,
4.053,-0.78,0.15,1.29,-1.00,-0.04,0.52,
4.056,-0.78,0.15,1.29,-1.01,-0.07,0.54,
4.06,-0.78,0.15,1.29,-1.03,-0.10,0.56,
4.067,-0.78,0.15,1.29,-1.04,-0.13,0.57,
4.068,-0.43,0.17,0.91,-1.04,-0.13,0.57,
4.069,-0.43,0.17,0.91,-1.04,-0.16,0.59,
4.069,-0.43,0.17,0.91,-1.05,-0.18,0.60,
4.071,-0.43,0.17,0.91,-1.05,-0.20,0.61,
4.072,-0.43,0.17,0.91,-1.05,-0.22,0.62,
4.074,-0.43,0.17,0.91,-1.05,-0.23,0.63,
4.075,0.30,0.02,0.70,-1.05,-0.23,0.63,
4.077,0.30,0.02,0.70,-1.05,-0.24,0.64,
4.078,0.30,0.02,0.70,-1.05,-0.24,0.64,
4.08,0.30,0.02,0.70,-1.04,-0.23,0.65,
4.081,0.30,0.02,0.70,-1.03,-0.23,0.65,
4.081,0.30,0.02,0.70,-1.01,-0.22,0.65,
4.084,1.02,-0.21,0.67,-1.01,-0.22,0.65,
4.086,1.02,-0.21,0.67,-1.01,-0.21,0.65,
4.093,1.02,-0.21,0.67,-1.00,-0.20,0.64,
4.095,1.02,-0.21,0.67,-0.98,-0.18,0.64,
4.095,1.02,-0.21,0.67,-0.97,-0.16,0.63,
4.096,1.02,-0.21,0.67,-0.96,-0.14,0.63,
4.097,1.51,-0.41,0.79,-0.96,-0.14,0.63,
4.098,1.51,-0.41,0.79,-0.95,-0.12,0.63,
4.099,1.51,-0.41,0.79,-0.94,-0.10,0.62,
4.103,1.51,-0.41,0.79,-0.93,-0.07,0.62,
4.104,1.51,-0.41,0.79,-0.93,-0.04,0.61,
4.105,1.51,-0.41,0.79,-0.92,-0.02,0.60,
4.105,1.54,-0.45,0.95,-0.92,-0.02,0.60,
4.106,1.54,-0.45,0.95,-0.91,0.01,0.59,
4.106,1.54,-0.45,0.95,-0.91,0.04,0.58,
4.106,1.54,-0.45,0.95,-0.91,0.06,0.57,
4.11,1.54,-0.45,0.95,-0.91,0.09,0.56,
4.114,1.54,-0.45,0.95,-0.92,0.11,0.55,
4.115,1.37,-0.45,1.27,-0.92,0.11,0.55,
4.115,1.37,-0.45,1.27,-0.92,0.13,0.54,
4.116,1.37,-0.45,1.27,-0.92,0.16,0.54,
4.117,1.37,-0.45,1.27,-0.92,0.18,0.53,
4.118,1.37,-0.45,1.27,-0.93,0.19,0.52,
4.123,1.37,-0.45,1.27,-0.94,0.21,0.51,
4.128,0.95,-0.39,1.52,-0.94,0.21,0.51,
4.13,0.95,-0.39,1.52,-0.95,0.23,0.51,
4.131,0.95,-0.39,1.52,-0.96,0.25,0.50,
4.132,0.95,-0.39,1.52,-0.98,0.26,0.49,
4.133,0.95,-0.39,1.52,-0.99,0.28,0.48,
4.134,0.95,-0.39,1.52,-1.01,0.29,0.48,
4.135,0.59,-0.35,1.73,-1.01,0.29,0.48,
4.136,0.59,-0.35,1.73,-1.03,0.31,0.47,
4.136,0.59,-0.35,1.73,-1.05,0.32,0.46,
4.136,0.59,-0.35,1.73,-1.07,0.34,0.46,
4.138,0.59,-0.35,1.73,-1.08,0.35,0.45,
4.155,0.59,-0.35,1.73,-1.10,0.37,0.45,
4.156,0.32,-0.28,1.93,-1.10,0.37,0.45,
4.156,0.32,-0.28,1.93,-1.12,0.38,0.44,
4.156,0.32,-0.28,1.93,-1.14,0.40,0.43,
4.186,0.32,-0.28,1.93,-1.16,0.41,0.43,
4.187,0.32,-0.28,1.93,-1.18,0.43,0.42,
4.187,0.32,-0.28,1.93,-1.20,0.45,0.42,
4.188,0.21,-0.20,2.21,-1.20,0.45,0.42,
4.188,0.21,-0.20,2.21,-1.22,0.46,0.41,
4.189,0.21,-0.20,2.21,-1.24,0.47,0.41,
4.189,0.21,-0.20,2.21,-1.26,0.48,0.41,
4.19,0.21,-0.20,2.21,-1.27,0.49,0.40,
4.19,0.21,-0.20,2.21,-1.29,0.50,0.40,
4.19,0.19,-0.02,2.33,-1.29,0.50,0.40,
4.191,0.19,-0.02,2.33,-1.31,0.51,0.40,
4.191,0.19,-0.02,2.33,-1.33,0.52,0.40,
4.192,0.19,-0.02,2.33,-1.35,0.53,0.40,
4.192,0.19,-0.02,2.33,-1.37,0.54,0.40,
4.193,0.19,-0.02,2.33,-1.40,0.55,0.40,
4.193,0.13,0.19,2.40,-1.40,0.55,0.40,
4.193,0.13,0.19,2.40,-1.41,0.55,0.41,
4.194,0.13,0.19,2.40,-1.43,0.55,0.41,
4.194,0.13,0.19,2.40,-1.45,0.55,0.42,
4.195,0.13,0.19,2.40,-1.47,0.56,0.42,
4.195,0.13,0.19,2.40,-1.49,0.55,0.43,
4.196,0.09,0.44,2.28,-1.49,0.55,0.43,
4.196,0.09,0.44,2.28,-1.51,0.55,0.44,
4.196,0.09,0.44,2.28,-1.53,0.54,0.44,
4.197,0.09,0.44,2.28,-1.55,0.53,0.45,
4.197,0.09,0.44,2.28,-1.57,0.52,0.46,
4.198,0.09,0.44,2.28,-1.59,0.50,0.47,
4.198,0.08,0.67,2.39,-1.59,0.50,0.47,
4.199,0.08,0.67,2.39,-1.61,0.48,0.48,
4.199,0.08,0.67,2.39,-1.62,0.47,0.49,
4.199,0.08,0.67,2.39,-1.64,0.44,0.49,
4.2,0.08,0.67,2.39,-1.66,0.42,0.50,
4.2,0.08,0.67,2.39,-1.68,0.40,0.51,
4.203,0.03,0.91,2.40,-1.68,0.40,0.51,
4.204,0.03,0.91,2.40,-1.70,0.37,0.52,
4.204,0.03,0.91,2.40,-1.72,0.35,0.54,
4.211,0.03,0.91,2.40,-1.74,0.33,0.55,
4.211,0.03,0.91,2.40,-1.76,0.31,0.56,
4.212,0.03,0.91,2.40,-1.79,0.28,0.57,
4.212,0.08,1.05,2.53,-1.79,0.28,0.57,
4.213,0.08,1.05,2.53,-1.80,0.28,0.58,
4.214,0.08,1.05,2.53,-1.81,0.26,0.59,
4.216,0.08,1.05,2.53,-1.83,0.25,0.59,
4.218,0.08,1.05,2.53,-1.85,0.25,0.60,
4.221,0.08,1.05,2.53,-1.86,0.24,0.61,
4.225,0.48,1.10,2.65,-1.86,0.24,0.61,
4.227,0.48,1.10,2.65,-1.87,0.24,0.61,
4.227,0.48,1.10,2.65,-1.88,0.23,0.61,
4.228,0.48,1.10,2.65,-1.90,0.23,0.62,
4.229,0.48,1.10,2.65,-1.90,0.23,0.62,
4.231,0.48,1.10,2.65,-1.92,0.22,0.62,
4.233,1.07,1.03,3.06,-1.92,0.22,0.62,
4.233,1.07,1.03,3.06,-1.92,0.22,0.62,
4.234,1.07,1.03,3.06,-1.92,0.22,0.62,
4.236,1.07,1.03,3.06,-1.93,0.22,0.62,
4.238,1.07,1.03,3.06,-1.93,0.23,0.63,
4.242,1.07,1.03,3.06,-1.94,0.24,0.63,
4.244,1.53,1.08,3.37,-1.94,0.24,0.63,
4.245,1.53,1.08,3.37,-1.94,0.24,0.63,
4.246,1.53,1.08,3.37,-1.95,0.25,0.63,
4.246,1.53,1.08,3.37,-1.95,0.26,0.63,
4.248,1.53,1.08,3.37,-1.96,0.27,0.64,
4.252,1.53,1.08,3.37,-1.98,0.28,0.64,
4.253,1.89,1.06,3.73,-1.98,0.28,0.64,
4.254,1.89,1.06,3.73,-1.99,0.29,0.64,
4.254,1.89,1.06,3.73,-2.00,0.29,0.65,
4.258,1.89,1.06,3.73,-2.02,0.29,0.65,
4.26,1.89,1.06,3.73,-2.03,0.29,0.65,
4.262,1.89,1.06,3.73,-2.06,0.30,0.66,
4.263,1.87,1.16,4.13,-2.06,0.30,0.66,
4.264,1.87,1.16,4.13,-2.06,0.30,0.66,
4.264,1.87,1.16,4.13,-2.08,0.30,0.67,
4.266,1.87,1.16,4.13,-2.10,0.30,0.67,
4.268,1.87,1.16,4.13,-2.11,0.30,0.67,
4.271,1.87,1.16,4.13,-2.14,0.31,0.68,
4.273,1.64,1.29,5.03,-2.14,0.31,0.68,
4.274,1.64,1.29,5.03,-2.14,0.32,0.67,
4.274,1.64,1.29,5.03,-2.16,0.35,0.68,
4.288,1.64,1.29,5.03,-2.17,0.38,0.67,
4.29,1.64,1.29,5.03,-2.19,0.41,0.67,
4.291,1.64,1.29,5.03,-2.22,0.45,0.66,
4.293,1.32,1.83,5.60,-2.22,0.45,0.66,
4.294,1.32,1.83,5.60,-2.23,0.45,0.65,
4.297,1.32,1.83,5.60,-2.25,0.46,0.64,
4.298,1.32,1.83,5.60,-2.28,0.45,0.63,
4.298,1.32,1.83,5.60,-2.30,0.44,0.63,
4.299,1.32,1.83,5.60,-2.34,0.41,0.65,
4.3,0.90,2.16,5.88,-2.34,0.41,0.65,
4.302,0.90,2.16,5.88,-2.36,0.40,0.65,
4.303,0.90,2.16,5.88,-2.39,0.39,0.67,
4.304,0.90,2.16,5.88,-2.41,0.39,0.69,
4.305,0.90,2.16,5.88,-2.44,0.38,0.72,
4.306,0.90,2.16,5.88,-2.49,0.38,0.75,
4.323,0.16,2.66,5.56,-2.49,0.38,0.75,
4.325,0.16,2.66,5.56,-2.50,0.38,0.76,
4.326,0.16,2.66,5.56,-2.53,0.38,0.78,
4.327,0.16,2.66,5.56,-2.57,0.39,0.81,
4.327,0.16,2.66,5.56,-2.58,0.39,0.82,
4.327,0.16,2.66,5.56,-2.61,0.39,0.84,
4.328,-0.12,3.05,5.36,-2.61,0.39,0.84,
4.363,-0.12,3.05,5.36,-2.62,0.39,0.85,
4.364,-0.12,3.05,5.36,-2.64,0.40,0.87,
4.364,-0.12,3.05,5.36,-2.67,0.41,0.88,
4.365,-0.12,3.05,5.36,-2.68,0.42,0.90,
4.365,-0.12,3.05,5.36,-2.71,0.43,0.91,
4.366,0.08,3.17,5.08,-2.71,0.43,0.91,
4.366,0.08,3.17,5.08,-2.71,0.44,0.92,
4.367,0.08,3.17,5.08,-2.72,0.44,0.93,
4.367,0.08,3.17,5.08,-2.74,0.45,0.94,
4.368,0.08,3.17,5.08,-2.74,0.45,0.94,
4.368,0.08,3.17,5.08,-2.75,0.44,0.95,
4.369,0.27,3.16,5.27,-2.75,0.44,0.95,
4.369,0.27,3.16,5.27,-2.75,0.43,0.95,
4.37,0.27,3.16,5.27,-2.76,0.42,0.95,
4.37,0.27,3.16,5.27,-2.76,0.40,0.96,
4.37,0.27,3.16,5.27,-2.77,0.38,0.96,
4.371,0.27,3.16,5.27,-2.77,0.33,0.96,
4.372,0.50,3.30,5.34,-2.77,0.33,0.96,
4.373,0.50,3.30,5.34,-2.77,0.31,0.96,
4.374,0.50,3.30,5.34,-2.78,0.28,0.96,
4.374,0.50,3.30,5.34,-2.77,0.24,0.96,
4.375,0.50,3.30,5.34,-2.77,0.21,0.96,
4.376,0.50,3.30,5.34,-2.76,0.15,0.95,
4.376,0.60,3.69,6.19,-2.76,0.15,0.95,
4.377,0.60,3.69,6.19,-2.75,0.14,0.95,
4.377,0.60,3.69,6.19,-2.75,0.12,0.95,
4.378,0.60,3.69,6.19,-2.74,0.09,0.95,
4.378,0.60,3.69,6.19,-2.74,0.07,0.95,
4.379,0.60,3.69,6.19,-2.76,0.05,0.95,
4.379,1.13,4.58,5.70,-2.76,0.05,0.95,
4.379,1.13,4.58,5.70,-2.77,0.04,0.95,
4.38,1.13,4.58,5.70,-2.79,0.03,0.94,
4.38,1.13,4.58,5.70,-2.83,0.02,0.94,
4.381,1.13,4.58,5.70,-2.87,-0.00,0.94,
4.381,1.13,4.58,5.70,-2.93,-0.04,0.92,
4.382,2.20,5.58,3.18,-2.93,-0.04,0.92,
4.382,2.20,5.58,3.18,-2.96,-0.06,0.91,
4.383,2.20,5.58,3.18,-3.01,-0.09,0.90,
4.383,2.20,5.58,3.18,-3.06,-0.13,0.88,
4.384,2.20,5.58,3.18,-3.11,-0.15,0.85,
4.384,2.20,5.58,3.18,-3.18,-0.17,0.82,
4.385,3.70,6.54,0.36,-3.18,-0.17,0.82,
4.385,3.70,6.54,0.36,-3.21,-0.18,0.80,
4.386,3.70,6.54,0.36,-3.27,-0.19,0.77,
4.386,3.70,6.54,0.36,-3.33,-0.20,0.74,
4.389,3.70,6.54,0.36,-3.40,-0.19,0.71,
4.396,3.70,6.54,0.36,-3.52,-0.19,0.66,
4.397,5.35,7.60,-3.39,-3.52,-0.19,0.66,
4.398,5.35,7.60,-3.39,-3.55,-0.18,0.64,
4.398,5.35,7.60,-3.39,-3.63,-0.18,0.61,
4.399,5.35,7.60,-3.39,-3.72,-0.18,0.59,
4.4,5.35,7.60,-3.39,-3.79,-0.19,0.57,
4.401,5.35,7.60,-3.39,-3.89,-0.22,0.56,
4.403,6.14,8.81,-5.44,-3.89,-0.22,0.56,
4.403,6.14,8.81,-5.44,-3.92,-0.23,0.56,
4.404,6.14,8.81,-5.44,-3.96,-0.26,0.56,
4.407,6.14,8.81,-5.44,-3.96,-0.27,0.58,
4.412,6.14,8.81,-5.44,-3.94,-0.27,0.60,
4.413,6.14,8.81,-5.44,-3.84,-0.26,0.66,
4.414,5.95,10.01,-3.59,-3.84,-0.26,0.66,
4.414,5.95,10.01,-3.59,-3.79,-0.25,0.68,
4.415,5.95,10.01,-3.59,-3.67,-0.21,0.72,
4.416,5.95,10.01,-3.59,-3.53,-0.15,0.77,
4.418,5.95,10.01,-3.59,-3.37,-0.06,0.81,
4.421,5.95,10.01,-3.59,-3.14,0.11,0.87,
4.428,4.96,8.78,1.42,-3.14,0.11,0.87,
4.429,4.96,8.78,1.42,-3.07,0.17,0.88,
4.43,4.96,8.78,1.42,-2.93,0.27,0.91,
4.43,4.96,8.78,1.42,-2.83,0.33,0.94,
4.431,4.96,8.78,1.42,-2.74,0.36,0.97,
4.431,4.96,8.78,1.42,-2.64,0.33,1.03,
4.432,3.74,5.55,1.27,-2.64,0.33,1.03,
4.433,3.74,5.55,1.27,-2.62,0.30,1.04,
4.438,3.74,5.55,1.27,-2.57,0.25,1.08,
4.438,3.74,5.55,1.27,-2.54,0.18,1.11,
4.46,3.74,5.55,1.27,-2.50,0.11,1.13,
4.462,3.74,5.55,1.27,-2.43,0.01,1.16,
4.462,3.37,3.42,-0.89,-2.43,0.01,1.16,
4.463,3.37,3.42,-0.89,-2.40,-0.03,1.16,
4.463,3.37,3.42,-0.89,-2.34,-0.09,1.16,
4.464,3.37,3.42,-0.89,-2.30,-0.16,1.15,
4.464,3.37,3.42,-0.89,-2.26,-0.22,1.13,
4.464,3.37,3.42,-0.89,-2.22,-0.29,1.10,
4.465,5.44,3.11,-3.11,-2.22,-0.29,1.10,
4.465,5.44,3.11,-3.11,-2.22,-0.31,1.08,
4.465,5.44,3.11,-3.11,-2.21,-0.33,1.06,
4.466,5.44,3.11,-3.11,-2.20,-0.34,1.02,
4.466,5.44,3.11,-3.11,-2.20,-0.36,0.99,
4.467,5.44,3.11,-3.11,-2.20,-0.37,0.93,
4.467,6.55,2.57,-3.62,-2.20,-0.37,0.93,
4.468,6.55,2.57,-3.62,-2.21,-0.37,0.91,
4.468,6.55,2.57,-3.62,-2.20,-0.39,0.87,
4.468,6.55,2.57,-3.62,-2.20,-0.43,0.83,
4.469,6.55,2.57,-3.62,-2.19,-0.48,0.79,
4.471,6.55,2.57,-3.62,-2.15,-0.58,0.72,
4.475,6.84,2.51,-1.69,-2.15,-0.58,0.72,
4.478,6.84,2.51,-1.69,-2.14,-0.62,0.70,
4.478,6.84,2.51,-1.69,-2.12,-0.70,0.66,
4.478,6.84,2.51,-1.69,-2.10,-0.79,0.62,
4.479,6.84,2.51,-1.69,-2.09,-0.87,0.58,
4.515,6.84,2.51,-1.69,-2.10,-0.96,0.53,
4.516,6.46,2.65,-1.40,-2.10,-0.96,0.53,
4.516,6.46,2.65,-1.40,-2.11,-0.98,0.51,
4.517,6.46,2.65,-1.40,-2.13,-1.00,0.48,
4.517,6.46,2.65,-1.40,-2.16,-0.99,0.45,
4.518,6.46,2.65,-1.40,-2.19,-0.95,0.44,
4.518,6.46,2.65,-1.40,-2.22,-0.89,0.43,
4.519,4.77,2.96,-1.11,-2.22,-0.89,0.43,
4.519,4.77,2.96,-1.11,-2.23,-0.87,0.43,
4.52,4.77,2.96,-1.11,-2.25,-0.84,0.44,
4.521,4.77,2.96,-1.11,-2.26,-0.80,0.46,
4.521,4.77,2.96,-1.11,-2.26,-0.77,0.48,
4.523,4.77,2.96,-1.11,-2.27,-0.72,0.53,
4.524,1.84,3.11,1.82,-2.27,-0.72,0.53,
4.524,1.84,3.11,1.82,-2.27,-0.70,0.55,
4.525,1.84,3.11,1.82,-2.29,-0.67,0.59,
4.526,1.84,3.11,1.82,-2.32,-0.65,0.64,
4.526,1.84,3.11,1.82,-2.34,-0.63,0.70,
4.527,1.84,3.11,1.82,-2.39,-0.62,0.80,
4.527,-2.22,2.98,1.16,-2.39,-0.62,0.80,
4.527,-2.22,2.98,1.16,-2.41,-0.64,0.82,
4.528,-2.22,2.98,1.16,-2.45,-0.73,0.87,
4.528,-2.22,2.98,1.16,-2.48,-0.88,0.90,
4.529,-2.22,2.98,1.16,-2.52,-1.13,0.96,
4.529,-2.22,2.98,1.16,-2.64,-1.69,1.05,
4.529,-6.79,3.32,-6.58,-2.64,-1.69,1.05,
4.53,-6.79,3.32,-6.58,-2.69,-1.91,1.08,
4.53,-6.79,3.32,-6.58,-2.84,-2.38,1.15,
4.531,-6.79,3.32,-6.58,-3.01,-2.89,1.21,
4.531,-6.79,3.32,-6.58,-3.23,-3.41,1.28,
4.531,-6.79,3.32,-6.58,-3.58,-4.24,1.39,
4.532,-10.85,3.95,-19.49,-3.58,-4.24,1.39,
4.535,-10.85,3.95,-19.49,-3.71,-4.52,1.42,
4.537,-10.85,3.95,-19.49,-3.94,-5.08,1.50,
4.539,-10.85,3.95,-19.49,-4.15,-5.64,1.57,
4.54,-10.85,3.95,-19.49,-4.33,-6.18,1.65,
4.542,-10.85,3.95,-19.49,-4.49,-6.92,1.74,
4.543,-12.82,4.19,-22.52,-4.49,-6.92,1.74,
4.545,-12.82,4.19,-22.52,-4.52,-7.14,1.75,
4.546,-12.82,4.19,-22.52,-4.53,-7.51,1.69,
4.547,-12.82,4.19,-22.52,-4.46,-7.80,1.54,
4.55,-12.82,4.19,-22.52,-4.32,-7.96,1.28,
4.554,-12.82,4.19,-22.52,-3.97,-7.74,0.39,
4.556,-8.55,4.75,-11.84,-3.97,-7.74,0.39,
4.557,-8.55,4.75,-11.84,-3.83,-7.58,-0.08,
4.558,-8.55,4.75,-11.84,-3.50,-7.24,-1.24,
4.559,-8.55,4.75,-11.84,-3.12,-6.81,-2.66,
4.559,-8.55,4.75,-11.84,-2.75,-6.30,-4.29,
4.562,-8.55,4.75,-11.84,-2.11,-5.54,-6.74,
4.564,-3.86,4.21,-2.85,-2.11,-5.54,-6.74,
4.565,-3.86,4.21,-2.85,-1.88,-5.33,-7.44,
4.566,-3.86,4.21,-2.85,-1.35,-4.72,-8.30,
4.568,-3.86,4.21,-2.85,-0.75,-3.80,-8.27,
4.569,-3.86,4.21,-2.85,-0.09,-3.13,-7.65,
4.586,-3.86,4.21,-2.85,0.72,-2.96,-5.76,
4.588,-57.37,-2.16,0.31,0.72,-2.96,-5.76,
4.589,-57.37,-2.16,0.31,0.90,-3.08,-4.95,
4.589,-57.37,-2.16,0.31,1.14,-3.45,-3.17,
4.59,-57.37,-2.16,0.31,1.25,-3.82,-1.34,
4.59,-57.37,-2.16,0.31,1.20,-4.03,0.30,
4.59,-57.37,-2.16,0.31,0.83,-4.08,2.02,
4.591,-66.74,-4.64,-24.13,0.83,-4.08,2.02,
4.592,-66.74,-4.64,-24.13,0.65,-4.04,2.40,
4.592,-66.74,-4.64,-24.13,0.25,-3.89,2.93,
4.592,-66.74,-4.64,-24.13,-0.16,-3.66,3.24,
4.593,-66.74,-4.64,-24.13,-0.52,-3.41,3.38,
4.593,-66.74,-4.64,-24.13,-0.92,-3.02,3.37,
4.594,-22.66,-0.01,-33.16,-0.92,-3.02,3.37,
4.594,-22.66,-0.01,-33.16,-1.01,-2.91,3.32,
4.595,-22.66,-0.01,-33.16,-1.11,-2.75,3.17,
4.602,-22.66,-0.01,-33.16,-1.08,-2.69,2.97,
4.602,-22.66,-0.01,-33.16,-0.97,-2.74,2.75,
4.603,-22.66,-0.01,-33.16,-0.68,-2.99,2.40,
4.603,5.88,0.45,-13.12,-0.68,-2.99,2.40,
4.603,5.88,0.45,-13.12,-0.56,-3.11,2.28,
4.604,5.88,0.45,-13.12,-0.32,-3.38,2.06,
4.617,5.88,0.45,-13.12,-0.09,-3.68,1.85,
4.617,5.88,0.45,-13.12,0.12,-3.97,1.66,
4.618,5.88,0.45,-13.12,0.37,-4.33,1.40,
4.618,15.71,0.11,-0.59,0.37,-4.33,1.40,
4.618,15.71,0.11,-0.59,0.42,-4.41,1.32,
4.619,15.71,0.11,-0.59,0.49,-4.52,1.16,
4.619,15.71,0.11,-0.59,0.52,-4.54,1.03,
4.619,15.71,0.11,-0.59,0.51,-4.50,0.93,
4.622,15.71,0.11,-0.59,0.43,-4.34,0.87,
4.629,15.44,-2.14,-1.80,0.43,-4.34,0.87,
4.629,15.44,-2.14,-1.80,0.40,-4.25,0.89,
4.63,15.44,-2.14,-1.80,0.30,-4.06,0.96,
4.63,15.44,-2.14,-1.80,0.18,-3.83,1.09,
4.63,15.44,-2.14,-1.80,0.04,-3.58,1.25,
4.631,15.44,-2.14,-1.80,-0.20,-3.16,1.54,
4.632,6.77,-5.62,-5.65,-0.20,-3.16,1.54,
4.633,6.77,-5.62,-5.65,-0.28,-3.01,1.64,
4.634,6.77,-5.62,-5.65,-0.46,-2.72,1.83,
4.636,6.77,-5.62,-5.65,-0.64,-2.46,2.01,
4.639,6.77,-5.62,-5.65,-0.82,-2.25,2.17,
4.641,6.77,-5.62,-5.65,-1.08,-2.04,2.35,
4.643,2.07,-7.52,-7.92,-1.08,-2.04,2.35,
4.644,2.07,-7.52,-7.92,-1.16,-2.00,2.40,
4.645,2.07,-7.52,-7.92,-1.29,-1.96,2.46,
4.678,2.07,-7.52,-7.92,-1.40,-1.97,2.50,
4.679,2.07,-7.52,-7.92,-1.48,-2.03,2.50,
4.679,2.07,-7.52,-7.92,-1.55,-2.15,2.44,
4.68,1.63,-7.86,-7.10,-1.55,-2.15,2.44,
4.68,1.63,-7.86,-7.10,-1.56,-2.19,2.39,
4.681,1.63,-7.86,-7.10,-1.54,-2.28,2.28,
4.682,1.63,-7.86,-7.10,-1.43,-2.36,2.06,
4.682,1.63,-7.86,-7.10,-1.37,-2.37,1.98,
4.683,1.63,-7.86,-7.10,-1.14,-2.35,1.73,
4.683,1.93,-5.62,-5.59,-1.14,-2.35,1.73,
4.684,1.93,-5.62,-5.59,-1.05,-2.32,1.65,
4.684,1.93,-5.62,-5.59,-0.85,-2.25,1.50,
4.685,1.93,-5.62,-5.59,-0.66,-2.17,1.39,
4.685,1.93,-5.62,-5.59,-0.49,-2.07,1.32,
4.686,1.93,-5.62,-5.59,-0.31,-1.94,1.30,
4.687,-0.85,-2.08,-7.00,-0.31,-1.94,1.30,
4.688,-0.85,-2.08,-7.00,-0.27,-1.90,1.32,
4.689,-0.85,-2.08,-7.00,-0.24,-1.84,1.39,
4.69,-0.85,-2.08,-7.00,-0.25,-1.81,1.47,
4.691,-0.85,-2.08,-7.00,-0.29,-1.80,1.58,
4.694,-0.85,-2.08,-7.00,-0.39,-1.80,1.76,
4.695,-2.37,1.84,-11.36,-0.39,-1.80,1.76,
4.696,-2.37,1.84,-11.36,-0.43,-1.80,1.82,
4.697,-2.37,1.84,-11.36,-0.51,-1.80,1.93,
4.698,-2.37,1.84,-11.36,-0.58,-1.78,2.05,
4.699,-2.37,1.84,-11.36,-0.63,-1.73,2.15,
4.699,-2.37,1.84,-11.36,-0.66,-1.64,2.29,
4.699,1.22,4.81,-11.68,-0.66,-1.64,2.29,
4.7,1.22,4.81,-11.68,-0.66,-1.60,2.33,
4.701,1.22,4.81,-11.68,-0.64,-1.52,2.41,
4.702,1.22,4.81,-11.68,-0.59,-1.47,2.48,
4.702,1.22,4.81,-11.68,-0.53,-1.44,2.55,
4.703,1.22,4.81,-11.68,-0.41,-1.42,2.64,
4.704,6.57,6.75,-6.07,-0.41,-1.42,2.64,
4.705,6.57,6.75,-6.07,-0.37,-1.43,2.66,
4.706,6.57,6.75,-6.07,-0.27,-1.47,2.71,
4.706,6.57,6.75,-6.07,-0.18,-1.51,2.75,
4.71,6.57,6.75,-6.07,-0.10,-1.55,2.79,
4.713,6.57,6.75,-6.07,0.01,-1.62,2.84,
4.714,9.94,8.22,-0.46,0.01,-1.62,2.84,
4.714,9.94,8.22,-0.46,0.04,-1.64,2.85,
4.715,9.94,8.22,-0.46,0.08,-1.66,2.87,
4.716,9.94,8.22,-0.46,0.10,-1.68,2.89,
4.719,9.94,8.22,-0.46,0.10,-1.70,2.90,
4.724,9.94,8.22,-0.46,0.09,-1.72,2.90,
4.725,10.68,7.92,1.35,0.09,-1.72,2.90,
4.725,10.68,7.92,1.35,0.09,-1.73,2.90,
4.726,10.68,7.92,1.35,0.07,-1.75,2.89,
4.726,10.68,7.92,1.35,0.06,-1.77,2.87,
4.728,10.68,7.92,1.35,0.06,-1.79,2.84,
4.732,10.68,7.92,1.35,0.06,-1.83,2.80,
4.732,10.89,7.54,2.32,0.06,-1.83,2.80,
4.733,10.89,7.54,2.32,0.06,-1.84,2.78,
4.734,10.89,7.54,2.32,0.06,-1.87,2.74,
4.735,10.89,7.54,2.32,0.08,-1.91,2.71,
4.746,10.89,7.54,2.32,0.09,-1.95,2.66,
4.747,10.89,7.54,2.32,0.10,-2.01,2.59,
4.747,10.51,7.17,3.99,0.10,-2.01,2.59,
4.748,10.51,7.17,3.99,0.11,-2.03,2.57,
4.748,10.51,7.17,3.99,0.11,-2.05,2.51,
4.748,10.51,7.17,3.99,0.12,-2.08,2.45,
4.749,10.51,7.17,3.99,0.14,-2.09,2.39,
4.753,10.51,7.17,3.99,0.17,-2.10,2.28,
4.753,9.79,8.03,5.73,0.17,-2.10,2.28,
4.754,9.79,8.03,5.73,0.19,-2.11,2.24,
4.754,9.79,8.03,5.73,0.22,-2.12,2.16,
4.776,9.79,8.03,5.73,0.25,-2.15,2.08,
4.777,9.79,8.03,5.73,0.28,-2.20,1.99,
4.777,9.79,8.03,5.73,0.34,-2.31,1.85,
4.777,8.01,8.83,6.75,0.34,-2.31,1.85,
4.778,8.01,8.83,6.75,0.37,-2.36,1.80,
4.778,8.01,8.83,6.75,0.42,-2.47,1.70,
4.778,8.01,8.83,6.75,0.47,-2.62,1.59,
4.779,8.01,8.83,6.75,0.53,-2.79,1.49,
4.779,8.01,8.83,6.75,0.59,-3.09,1.35,
4.779,4.43,10.23,6.74,0.59,-3.09,1.35,
4.78,4.43,10.23,6.74,0.61,-3.20,1.31,
4.78,4.43,10.23,6.74,0.63,-3.41,1.24,
4.781,4.43,10.23,6.74,0.65,-3.63,1.18,
4.781,4.43,10.23,6.74,0.65,-3.83,1.13,
4.781,4.43,10.23,6.74,0.64,-4.11,1.06,
4.782,-2.32,11.81,5.06,0.64,-4.11,1.06,
4.783,-2.32,11.81,5.06,0.63,-4.20,1.03,
4.784,-2.32,11.81,5.06,0.61,-4.38,0.98,
4.786,-2.32,11.81,5.06,0.58,-4.56,0.93,
4.788,-2.32,11.81,5.06,0.56,-4.74,0.88,
4.791,-2.32,11.81,5.06,0.53,-5.01,0.78,
4.792,-4.57,13.20,3.26,0.53,-5.01,0.78,
4.793,-4.57,13.20,3.26,0.52,-5.11,0.74,
4.794,-4.57,13.20,3.26,0.50,-5.29,0.65,
4.796,-4.57,13.20,3.26,0.49,-5.47,0.55,
4.798,-4.57,13.20,3.26,0.47,-5.65,0.43,
4.801,-4.57,13.20,3.26,0.44,-5.92,0.24,
4.803,0.71,12.55,1.06,0.44,-5.92,0.24,
4.803,0.71,12.55,1.06,0.43,-6.01,0.18,
4.804,0.71,12.55,1.06,0.41,-6.18,0.06,
4.815,0.71,12.55,1.06,0.39,-6.32,-0.04,
4.816,0.71,12.55,1.06,0.36,-6.42,-0.11,
4.816,0.71,12.55,1.06,0.32,-6.51,-0.21,
4.817,6.17,7.31,-1.28,0.32,-6.51,-0.21,
4.855,6.17,7.31,-1.28,0.30,-6.52,-0.24,
4.855,6.17,7.31,-1.28,0.27,-6.53,-0.31,
4.856,6.17,7.31,-1.28,0.22,-6.51,-0.40,
4.856,6.17,7.31,-1.28,0.16,-6.46,-0.48,
4.857,6.17,7.31,-1.28,0.04,-6.34,-0.62,
4.857,10.56,1.50,-3.22,0.04,-6.34,-0.62,
4.858,10.56,1.50,-3.22,-0.00,-6.29,-0.67,
4.858,10.56,1.50,-3.22,-0.09,-6.18,-0.77,
4.859,10.56,1.50,-3.22,-0.19,-6.05,-0.88,
4.859,10.56,1.50,-3.22,-0.28,-5.91,-0.98,
4.859,10.56,1.50,-3.22,-0.41,-5.68,-1.14,
4.86,15.12,-2.21,-3.99,-0.41,-5.68,-1.14,
4.861,15.12,-2.21,-3.99,-0.45,-5.60,-1.19,
4.861,15.12,-2.21,-3.99,-0.51,-5.42,-1.29,
4.861,15.12,-2.21,-3.99,-0.55,-5.24,-1.39,
4.862,15.12,-2.21,-3.99,-0.58,-5.06,-1.49,
4.862,15.12,-2.21,-3.99,-0.58,-4.79,-1.63,
4.863,17.68,-4.50,-1.41,-0.58,-4.79,-1.63,
4.863,17.68,-4.50,-1.41,-0.56,-4.70,-1.68,
4.864,17.68,-4.50,-1.41,-0.52,-4.51,-1.78,
4.864,17.68,-4.50,-1.41,-0.45,-4.33,-1.87,
4.864,17.68,-4.50,-1.41,-0.37,-4.16,-1.96,
4.865,17.68,-4.50,-1.41,-0.19,-3.90,-2.08,
4.865,18.20,-6.19,3.09,-0.19,-3.90,-2.08,
4.866,18.20,-6.19,3.09,-0.12,-3.82,-2.12,
4.866,18.20,-6.19,3.09,0.03,-3.66,-2.20,
4.867,18.20,-6.19,3.09,0.19,-3.51,-2.27,
4.867,18.20,-6.19,3.09,0.36,-3.38,-2.33,
4.868,18.20,-6.19,3.09,0.64,-3.20,-2.40,
4.868,16.93,-7.05,7.15,0.64,-3.20,-2.40,
4.869,16.93,-7.05,7.15,0.73,-3.14,-2.42,
4.869,16.93,-7.05,7.15,0.92,-3.05,-2.46,
4.869,16.93,-7.05,7.15,1.10,-2.99,-2.49,
4.87,16.93,-7.05,7.15,1.28,-2.95,-2.51,
4.874,16.93,-7.05,7.15,1.52,-2.97,-2.53,
4.875,14.72,-7.21,9.23,1.52,-2.97,-2.53,
4.876,14.72,-7.21,9.23,1.59,-2.99,-2.53,
4.877,14.72,-7.21,9.23,1.72,-3.06,-2.52,
4.877,14.72,-7.21,9.23,1.82,-3.16,-2.51,
4.879,14.72,-7.21,9.23,1.90,-3.30,-2.49,
4.883,14.72,-7.21,9.23,1.96,-3.59,-2.45,
4.884,12.37,-6.71,7.18,1.96,-3.59,-2.45,
4.885,12.37,-6.71,7.18,1.97,-3.70,-2.42,
4.885,12.37,-6.71,7.18,1.96,-3.95,-2.37,
4.888,12.37,-6.71,7.18,1.92,-4.24,-2.31,
4.892,12.37,-6.71,7.18,1.87,-4.57,-2.24,
4.894,12.37,-6.71,7.18,1.74,-5.12,-2.12,
4.895,9.99,-6.14,3.94,1.74,-5.12,-2.12,
4.895,9.99,-6.14,3.94,1.69,-5.32,-2.07,
4.896,9.99,-6.14,3.94,1.58,-5.72,-1.98,
4.897,9.99,-6.14,3.94,1.47,-6.12,-1.88,
4.902,9.99,-6.14,3.94,1.36,-6.52,-1.77,
4.906,9.99,-6.14,3.94,1.16,-7.06,-1.62,
4.906,7.88,-4.81,2.57,1.16,-7.06,-1.62,
4.907,7.88,-4.81,2.57,1.09,-7.23,-1.57,
4.907,7.88,-4.81,2.57,0.95,-7.52,-1.48,
4.907,7.88,-4.81,2.57,0.81,-7.76,-1.39,
4.908,7.88,-4.81,2.57,0.65,-7.94,-1.31,
4.91,7.88,-4.81,2.57,0.41,-8.09,-1.19,
4.912,6.93,-3.03,1.82,0.41,-8.09,-1.19,
4.912,6.93,-3.03,1.82,0.33,-8.11,-1.16,
4.914,6.93,-3.03,1.82,0.15,-8.10,-1.09,
4.916,6.93,-3.03,1.82,-0.03,-8.04,-1.02,
4.917,6.93,-3.03,1.82,-0.21,-7.95,-0.96,
4.932,6.93,-3.03,1.82,-0.48,-7.74,-0.88,
4.933,6.86,-0.85,0.02,-0.48,-7.74,-0.88,
4.934,6.86,-0.85,0.02,-0.57,-7.67,-0.85,
4.934,6.86,-0.85,0.02,-0.75,-7.51,-0.81,
4.934,6.86,-0.85,0.02,-0.92,-7.35,-0.78,
4.935,6.86,-0.85,0.02,-1.07,-7.20,-0.75,
4.935,6.86,-0.85,0.02,-1.26,-6.99,-0.71,
4.936,8.18,0.80,-0.67,-1.26,-6.99,-0.71,
4.936,8.18,0.80,-0.67,-1.32,-6.92,-0.70,
4.937,8.18,0.80,-0.67,-1.43,-6.79,-0.69,
4.94,8.18,0.80,-0.67,-1.52,-6.66,-0.68,
4.962,8.18,0.80,-0.67,-1.61,-6.52,-0.66,
4.963,8.18,0.80,-0.67,-1.71,-6.33,-0.64,
4.964,8.23,0.66,-0.51,-1.71,-6.33,-0.64,
4.964,8.23,0.66,-0.51,-1.74,-6.26,-0.64,
4.964,8.23,0.66,-0.51,-1.80,-6.13,-0.63,
4.965,8.23,0.66,-0.51,-1.84,-6.00,-0.63,
4.965,8.23,0.66,-0.51,-1.88,-5.88,-0.64,
4.965,8.23,0.66,-0.51,-1.91,-5.70,-0.66,
4.966,7.58,0.06,-0.18,-1.91,-5.70,-0.66,
4.966,7.58,0.06,-0.18,-1.92,-5.64,-0.66,
4.966,7.58,0.06,-0.18,-1.93,-5.53,-0.68,
4.966,7.58,0.06,-0.18,-1.94,-5.43,-0.70,
4.967,7.58,0.06,-0.18,-1.93,-5.34,-0.72,
4.967,7.58,0.06,-0.18,-1.92,-5.22,-0.74,
4.967,6.09,-0.66,-0.06,-1.92,-5.22,-0.74,
4.968,6.09,-0.66,-0.06,-1.92,-5.18,-0.75,
4.968,6.09,-0.66,-0.06,-1.92,-5.12,-0.75,
4.968,6.09,-0.66,-0.06,-1.92,-5.05,-0.76,
4.969,6.09,-0.66,-0.06,-1.93,-5.00,-0.77,
4.975,6.09,-0.66,-0.06,-1.95,-4.92,-0.77,
4.976,4.03,-1.07,-1.31,-1.95,-4.92,-0.77,
4.977,4.03,-1.07,-1.31,-1.97,-4.89,-0.77,
4.977,4.03,-1.07,-1.31,-1.99,-4.84,-0.77,
4.977,4.03,-1.07,-1.31,-2.03,-4.78,-0.77,
4.978,4.03,-1.07,-1.31,-2.07,-4.72,-0.78,
5.01,4.03,-1.07,-1.31,-2.15,-4.60,-0.80,
5.011,2.41,-1.04,-3.41,-2.15,-4.60,-0.80,
5.011,2.41,-1.04,-3.41,-2.18,-4.55,-0.80,
5.012,2.41,-1.04,-3.41,-2.23,-4.44,-0.82,
5.012,2.41,-1.04,-3.41,-2.28,-4.30,-0.85,
5.013,2.41,-1.04,-3.41,-2.34,-4.14,-0.87,
5.013,2.41,-1.04,-3.41,-2.42,-3.86,-0.93,
5.013,1.46,-0.82,-4.78,-2.42,-3.86,-0.93,
5.014,1.46,-0.82,-4.78,-2.44,-3.75,-0.95,
5.014,1.46,-0.82,-4.78,-2.48,-3.52,-0.99,
5.015,1.46,-0.82,-4.78,-2.51,-3.26,-1.05,
5.015,1.46,-0.82,-4.78,-2.54,-2.98,-1.10,
5.016,1.46,-0.82,-4.78,-2.56,-2.56,-1.17,
5.016,1.03,-0.65,-4.30,-2.56,-2.56,-1.17,
5.016,1.03,-0.65,-4.30,-2.56,-2.43,-1.19,
5.017,1.03,-0.65,-4.30,-2.55,-2.17,-1.22,
5.017,1.03,-0.65,-4.30,-2.49,-1.85,-1.25,
5.018,1.03,-0.65,-4.30,-2.46,-1.76,-1.26,
5.018,1.03,-0.65,-4.30,-2.35,-1.51,-1.29,
5.019,0.60,-1.16,-1.76,-2.35,-1.51,-1.29,
5.019,0.60,-1.16,-1.76,-2.32,-1.44,-1.31,
