
time,ax,ay,az,wx,wy,wz,
0.009,0.26,0.44,-1.34,-0.66,-0.73,-0.41,
0.009,0.26,0.44,-1.34,-0.69,-0.73,-0.41,
0.01,0.26,0.44,-1.34,-0.74,-0.72,-0.41,
0.01,0.26,0.44,-1.34,-0.79,-0.72,-0.42,
0.01,0.26,0.44,-1.34,-0.84,-0.72,-0.43,
0.011,0.67,0.09,-0.74,-0.84,-0.72,-0.43,
0.011,0.67,0.09,-0.74,-0.90,-0.72,-0.45,
0.011,0.67,0.09,-0.74,-0.92,-0.72,-0.45,
0.012,0.67,0.09,-0.74,-0.96,-0.71,-0.46,
0.012,0.67,0.09,-0.74,-0.99,-0.69,-0.47,
0.012,0.67,0.09,-0.74,-1.02,-0.66,-0.48,
0.013,0.81,-0.08,0.24,-1.02,-0.66,-0.48,
0.013,0.81,-0.08,0.24,-1.06,-0.59,-0.49,
0.013,0.81,-0.08,0.24,-1.07,-0.57,-0.50,
0.014,0.81,-0.08,0.24,-1.08,-0.52,-0.51,
0.014,0.81,-0.08,0.24,-1.09,-0.46,-0.52,
0.014,0.81,-0.08,0.24,-1.10,-0.40,-0.52,
0.014,0.67,-0.10,1.24,-1.10,-0.40,-0.52,
0.015,0.67,-0.10,1.24,-1.11,-0.30,-0.54,
0.015,0.67,-0.10,1.24,-1.11,-0.27,-0.54,
0.015,0.67,-0.10,1.24,-1.11,-0.20,-0.54,
0.016,0.67,-0.10,1.24,-1.10,-0.13,-0.54,
0.016,0.67,-0.10,1.24,-1.10,-0.05,-0.54,
0.016,0.40,-0.03,1.82,-1.10,-0.05,-0.54,
0.017,0.40,-0.03,1.82,-1.09,0.06,-0.53,
0.017,0.40,-0.03,1.82,-1.08,0.09,-0.53,
0.022,0.40,-0.03,1.82,-1.07,0.16,-0.52,
0.023,0.40,-0.03,1.82,-1.07,0.23,-0.51,
0.023,0.40,-0.03,1.82,-1.06,0.30,-0.50,
0.024,0.11,0.09,2.03,-1.06,0.30,-0.50,
0.035,0.11,0.09,2.03,-1.04,0.40,-0.49,
0.036,0.11,0.09,2.03,-1.04,0.43,-0.49,
0.036,0.11,0.09,2.03,-1.03,0.49,-0.48,
0.036,0.11,0.09,2.03,-1.03,0.56,-0.47,
0.037,0.11,0.09,2.03,-1.02,0.62,-0.47,
0.037,-0.09,0.23,1.83,-1.02,0.62,-0.47,
0.037,-0.09,0.23,1.83,-1.02,0.72,-0.46,
0.038,-0.09,0.23,1.83,-1.02,0.75,-0.46,
0.038,-0.09,0.23,1.83,-1.02,0.81,-0.46,
0.04,-0.09,0.23,1.83,-1.02,0.87,-0.46,
0.047,-0.09,0.23,1.83,-1.03,0.93,-0.47,
0.047,-0.08,0.34,1.28,-1.03,0.93,-0.47,
0.048,-0.08,0.34,1.28,-1.04,1.00,-0.48,
0.048,-0.08,0.34,1.28,-1.05,1.02,-0.48,
0.048,-0.08,0.34,1.28,-1.06,1.06,-0.49,
0.051,-0.08,0.34,1.28,-1.08,1.09,-0.51,
0.052,-0.08,0.34,1.28,-1.11,1.11,-0.53,
0.072,0.16,0.42,0.55,-1.11,1.11,-0.53,
0.073,0.16,0.42,0.55,-1.15,1.13,-0.56,
0.073,0.16,0.42,0.55,-1.16,1.14,-0.57,
0.074,0.16,0.42,0.55,-1.19,1.14,-0.60,
0.074,0.16,0.42,0.55,-1.23,1.13,-0.63,
0.074,0.16,0.42,0.55,-1.26,1.12,-0.66,
0.075,0.62,0.44,0.06,-1.26,1.12,-0.66,
0.075,0.62,0.44,0.06,-1.30,1.09,-0.72,
0.075,0.62,0.44,0.06,-1.32,1.07,-0.74,
0.075,0.62,0.44,0.06,-1.34,1.04,-0.78,
0.076,0.62,0.44,0.06,-1.37,1.01,-0.82,
0.076,0.62,0.44,0.06,-1.39,0.98,-0.86,
0.076,1.26,0.33,0.20,-1.39,0.98,-0.86,
0.077,1.26,0.33,0.20,-1.42,0.94,-0.93,
0.077,1.26,0.33,0.20,-1.43,0.93,-0.95,
0.085,1.26,0.33,0.20,-1.45,0.90,-1.00,
0.086,1.26,0.33,0.20,-1.46,0.88,-1.04,
0.087,1.26,0.33,0.20,-1.47,0.85,-1.08,
0.087,1.44,0.16,0.39,-1.47,0.85,-1.08,
0.087,1.44,0.16,0.39,-1.49,0.79,-1.14,
0.088,1.44,0.16,0.39,-1.49,0.77,-1.16,
0.097,1.44,0.16,0.39,-1.51,0.71,-1.20,
0.098,1.44,0.16,0.39,-1.52,0.65,-1.23,
0.099,1.44,0.16,0.39,-1.53,0.58,-1.26,
0.099,1.44,-0.11,0.56,-1.53,0.58,-1.26,
0.099,1.44,-0.11,0.56,-1.55,0.50,-1.30,
0.1,1.44,-0.11,0.56,-1.56,0.48,-1.31,
0.1,1.44,-0.11,0.56,-1.58,0.44,-1.33,
0.1,1.44,-0.11,0.56,-1.59,0.42,-1.35,
0.108,1.44,-0.11,0.56,-1.61,0.41,-1.36,
0.11,1.20,-0.22,0.04,-1.61,0.41,-1.36,
0.111,1.20,-0.22,0.04,-1.64,0.40,-1.39,
0.112,1.20,-0.22,0.04,-1.66,0.40,-1.40,
0.112,1.20,-0.22,0.04,-1.69,0.41,-1.42,
0.113,1.20,-0.22,0.04,-1.73,0.41,-1.44,
0.114,1.20,-0.22,0.04,-1.77,0.41,-1.46,
0.114,1.08,-0.30,-0.87,-1.77,0.41,-1.46,
0.116,1.08,-0.30,-0.87,-1.84,0.41,-1.50,
0.116,1.08,-0.30,-0.87,-1.88,0.41,-1.51,
0.12,1.08,-0.30,-0.87,-1.94,0.41,-1.54,
0.121,1.08,-0.30,-0.87,-2.01,0.41,-1.57,
0.124,1.08,-0.30,-0.87,-2.09,0.42,-1.60,
0.126,0.82,-0.37,-1.62,-2.09,0.42,-1.60,
0.127,0.82,-0.37,-1.62,-2.21,0.44,-1.64,
0.128,0.82,-0.37,-1.62,-2.25,0.44,-1.65,
0.128,0.82,-0.37,-1.62,-2.33,0.46,-1.67,
0.13,0.82,-0.37,-1.62,-2.40,0.48,-1.69,
0.132,0.82,-0.37,-1.62,-2.48,0.51,-1.69,
0.134,-0.01,-0.37,-1.89,-2.48,0.51,-1.69,
0.136,-0.01,-0.37,-1.89,-2.59,0.56,-1.69,
0.142,-0.01,-0.37,-1.89,-2.63,0.58,-1.69,
0.143,-0.01,-0.37,-1.89,-2.68,0.62,-1.67,
0.144,-0.01,-0.37,-1.89,-2.74,0.67,-1.65,
0.176,-0.01,-0.37,-1.89,-2.79,0.71,-1.62,
0.176,-1.27,-0.35,-1.38,-2.79,0.71,-1.62,
0.177,-1.27,-0.35,-1.38,-2.87,0.77,-1.57,
0.177,-1.27,-0.35,-1.38,-2.90,0.78,-1.55,
0.178,-1.27,-0.35,-1.38,-2.93,0.81,-1.50,
0.178,-1.27,-0.35,-1.38,-2.97,0.83,-1.45,
0.179,-1.27,-0.35,-1.38,-3.00,0.82,-1.40,
0.179,-2.16,-0.24,-0.28,-3.00,0.82,-1.40,
0.18,-2.16,-0.24,-0.28,-3.02,0.80,-1.30,
0.18,-2.16,-0.24,-0.28,-3.02,0.80,-1.27,
0.18,-2.16,-0.24,-0.28,-3.00,0.79,-1.19,
0.181,-2.16,-0.24,-0.28,-2.96,0.78,-1.12,
0.181,-2.16,-0.24,-0.28,-2.91,0.75,-1.04,
0.182,-2.80,0.63,1.77,-2.91,0.75,-1.04,
0.182,-2.80,0.63,1.77,-2.83,0.69,-0.92,
0.183,-2.80,0.63,1.77,-2.80,0.67,-0.89,
0.183,-2.80,0.63,1.77,-2.74,0.60,-0.82,
0.184,-2.80,0.63,1.77,-2.67,0.53,-0.76,
0.184,-2.80,0.63,1.77,-2.61,0.44,-0.70,
0.184,-1.86,1.12,3.21,-2.61,0.44,-0.70,
0.185,-1.86,1.12,3.21,-2.50,0.28,-0.63,
0.185,-1.86,1.12,3.21,-2.46,0.22,-0.60,
0.186,-1.86,1.12,3.21,-2.39,0.09,-0.56,
0.186,-1.86,1.12,3.21,-2.31,-0.04,-0.52,
0.187,-1.86,1.12,3.21,-2.23,-0.17,-0.49,
0.187,-0.57,1.18,3.99,-2.23,-0.17,-0.49,
0.187,-0.57,1.18,3.99,-2.13,-0.33,-0.44,
0.188,-0.57,1.18,3.99,-2.11,-0.34,-0.43,
0.197,-0.57,1.18,3.99,-2.15,-0.29,-0.41,
0.198,-0.57,1.18,3.99,-2.23,-0.13,-0.44,
0.198,-0.57,1.18,3.99,-2.31,-0.01,-0.51,
0.199,0.78,0.11,1.80,-2.31,-0.01,-0.51,
0.199,0.78,0.11,1.80,-2.32,-0.00,-0.57,
0.199,0.78,0.11,1.80,-2.31,-0.03,-0.57,
0.2,0.78,0.11,1.80,-2.28,-0.09,-0.55,
0.203,0.78,0.11,1.80,-2.24,-0.15,-0.54,
0.203,0.78,0.11,1.80,-2.19,-0.20,-0.52,
0.204,1.38,-0.57,1.75,-2.19,-0.20,-0.52,
0.221,1.38,-0.57,1.75,-2.11,-0.26,-0.49,
0.222,1.38,-0.57,1.75,-2.08,-0.28,-0.48,
0.222,1.38,-0.57,1.75,-2.03,-0.31,-0.46,
0.223,1.38,-0.57,1.75,-1.98,-0.36,-0.45,
0.223,1.38,-0.57,1.75,-1.92,-0.42,-0.44,
0.224,1.07,-1.04,2.19,-1.92,-0.42,-0.44,
0.224,1.07,-1.04,2.19,-1.83,-0.53,-0.44,
0.224,1.07,-1.04,2.19,-1.79,-0.56,-0.44,
0.225,1.07,-1.04,2.19,-1.73,-0.63,-0.45,
0.225,1.07,-1.04,2.19,-1.67,-0.69,-0.46,
0.226,1.07,-1.04,2.19,-1.60,-0.75,-0.48,
0.228,1.55,-0.89,1.78,-1.60,-0.75,-0.48,
0.229,1.55,-0.89,1.78,-1.50,-0.83,-0.51,
0.233,1.55,-0.89,1.78,-1.46,-0.86,-0.52,
0.234,1.55,-0.89,1.78,-1.38,-0.93,-0.53,
0.234,1.55,-0.89,1.78,-1.30,-1.00,-0.54,
0.234,1.55,-0.89,1.78,-1.21,-1.06,-0.54,
0.235,1.38,-0.28,1.35,-1.21,-1.06,-0.54,
0.237,1.38,-0.28,1.35,-1.07,-1.15,-0.53,
0.237,1.38,-0.28,1.35,-1.02,-1.17,-0.52,
0.239,1.38,-0.28,1.35,-0.92,-1.21,-0.50,
0.243,1.38,-0.28,1.35,-0.83,-1.25,-0.48,
0.244,1.38,-0.28,1.35,-0.74,-1.26,-0.45,
0.244,0.68,0.42,0.84,-0.74,-1.26,-0.45,
0.245,0.68,0.42,0.84,-0.61,-1.26,-0.40,
0.248,0.68,0.42,0.84,-0.57,-1.26,-0.38,
0.249,0.68,0.42,0.84,-0.50,-1.24,-0.33,
0.252,0.68,0.42,0.84,-0.43,-1.21,-0.29,
0.259,0.68,0.42,0.84,-0.38,-1.16,-0.24,
0.26,0.34,0.86,-0.22,-0.38,-1.16,-0.24,
0.26,0.34,0.86,-0.22,-0.29,-1.09,-0.15,
0.26,0.34,0.86,-0.22,-0.27,-1.07,-0.13,
0.261,0.34,0.86,-0.22,-0.23,-1.03,-0.07,
0.261,0.34,0.86,-0.22,-0.18,-0.99,-0.02,
0.264,0.34,0.86,-0.22,-0.14,-0.96,0.04,
0.265,0.65,0.96,-0.02,-0.14,-0.96,0.04,
0.265,0.65,0.96,-0.02,-0.10,-0.91,0.12,
0.268,0.65,0.96,-0.02,-0.09,-0.89,0.14,
0.269,0.65,0.96,-0.02,-0.08,-0.85,0.19,
0.273,0.65,0.96,-0.02,-0.09,-0.80,0.23,
0.274,0.65,0.96,-0.02,-0.10,-0.74,0.27,
0.275,1.40,0.79,0.05,-0.10,-0.74,0.27,
0.275,1.40,0.79,0.05,-0.13,-0.67,0.33,
0.276,1.40,0.79,0.05,-0.14,-0.65,0.36,
0.278,1.40,0.79,0.05,-0.17,-0.62,0.41,
0.282,1.40,0.79,0.05,-0.21,-0.58,0.47,
0.282,1.40,0.79,0.05,-0.25,-0.55,0.52,
0.283,1.93,0.44,-0.38,-0.25,-0.55,0.52,
0.286,1.93,0.44,-0.38,-0.32,-0.49,0.60,
0.287,1.93,0.44,-0.38,-0.35,-0.47,0.62,
0.303,1.93,0.44,-0.38,-0.40,-0.43,0.67,
0.303,1.93,0.44,-0.38,-0.46,-0.40,0.72,
0.304,1.93,0.44,-0.38,-0.51,-0.36,0.78,
0.304,1.82,0.41,-1.13,-0.51,-0.36,0.78,
0.304,1.82,0.41,-1.13,-0.60,-0.32,0.86,
0.305,1.82,0.41,-1.13,-0.63,-0.31,0.89,
0.305,1.82,0.41,-1.13,-0.68,-0.30,0.95,
0.305,1.82,0.41,-1.13,-0.73,-0.29,1.01,
0.306,1.82,0.41,-1.13,-0.78,-0.29,1.07,
0.306,1.45,0.49,-2.00,-0.78,-0.29,1.07,
0.306,1.45,0.49,-2.00,-0.85,-0.31,1.17,
0.316,1.45,0.49,-2.00,-0.89,-0.33,1.24,
0.34,1.45,0.49,-2.00,-0.93,-0.36,1.31,
0.34,1.45,0.49,-2.00,-0.95,-0.37,1.34,
0.341,1.45,0.49,-2.00,-0.99,-0.41,1.41,
0.341,0.99,0.61,-2.84,-0.99,-0.41,1.41,
0.342,0.99,0.61,-2.84,-1.03,-0.48,1.50,
0.342,0.99,0.61,-2.84,-1.05,-0.51,1.53,
0.342,0.99,0.61,-2.84,-1.07,-0.57,1.59,
0.343,0.99,0.61,-2.84,-1.08,-0.64,1.64,
0.343,0.99,0.61,-2.84,-1.10,-0.72,1.68,
0.343,0.83,0.71,-3.38,-1.10,-0.72,1.68,
0.343,0.83,0.71,-3.38,-1.10,-0.86,1.72,
0.344,0.83,0.71,-3.38,-1.09,-0.92,1.72,
0.344,0.83,0.71,-3.38,-1.08,-1.03,1.73,
0.344,0.83,0.71,-3.38,-1.07,-1.15,1.72,
0.345,0.83,0.71,-3.38,-1.05,-1.29,1.70,
0.345,0.84,0.63,-3.24,-1.05,-1.29,1.70,
0.345,0.84,0.63,-3.24,-1.02,-1.54,1.68,
0.346,0.84,0.63,-3.24,-0.99,-1.64,1.67,
0.346,0.84,0.63,-3.24,-0.95,-1.87,1.66,
0.346,0.84,0.63,-3.24,-0.89,-2.13,1.64,
0.347,0.84,0.63,-3.24,-0.84,-2.40,1.62,
0.347,0.64,0.02,-2.38,-0.84,-2.40,1.62,
0.347,0.64,0.02,-2.38,-0.77,-2.80,1.58,
0.348,0.64,0.02,-2.38,-0.75,-2.93,1.56,
0.352,0.64,0.02,-2.38,-0.65,-3.46,1.47,
0.352,0.64,0.02,-2.38,-0.60,-3.74,1.41,
0.353,0.64,0.02,-2.38,-0.60,-3.74,1.41,
0.354,0.84,-0.48,-1.54,-0.60,-3.74,1.41,
0.355,0.84,-0.48,-1.54,-0.52,-4.17,1.32,
0.356,0.84,-0.48,-1.54,-0.49,-4.31,1.28,
0.359,0.84,-0.48,-1.54,-0.43,-4.60,1.21,
0.36,0.84,-0.48,-1.54,-0.36,-4.88,1.13,
0.362,0.84,-0.48,-1.54,-0.29,-5.13,1.05,
0.364,0.85,-0.93,-0.65,-0.29,-5.13,1.05,
0.365,0.85,-0.93,-0.65,-0.18,-5.46,0.92,
0.366,0.85,-0.93,-0.65,-0.15,-5.55,0.87,
0.371,0.85,-0.93,-0.65,-0.07,-5.73,0.78,
0.372,0.85,-0.93,-0.65,0.01,-5.89,0.69,
0.373,0.85,-0.93,-0.65,0.09,-6.01,0.60,
0.374,0.10,-1.16,-0.06,0.09,-6.01,0.60,
0.375,0.10,-1.16,-0.06,0.22,-5.89,0.48,
0.376,0.10,-1.16,-0.06,0.27,-5.59,0.44,
0.378,0.10,-1.16,-0.06,0.39,-4.44,0.37,
0.38,0.10,-1.16,-0.06,0.53,-2.98,0.27,
0.382,0.10,-1.16,-0.06,0.65,-2.00,0.16,
0.386,1.37,-1.99,6.59,0.65,-2.00,0.16,
0.386,1.37,-1.99,6.59,0.78,-1.55,-0.00,
0.387,1.37,-1.99,6.59,0.81,-1.55,-0.05,
0.388,1.37,-1.99,6.59,0.86,-1.68,-0.12,
0.391,1.37,-1.99,6.59,0.89,-1.85,-0.19,
0.392,1.37,-1.99,6.59,0.92,-1.95,-0.24,
0.394,1.12,-1.75,3.45,0.92,-1.95,-0.24,
0.395,1.12,-1.75,3.45,0.95,-1.92,-0.30,
0.396,1.12,-1.75,3.45,0.96,-1.86,-0.32,
0.398,1.12,-1.75,3.45,0.99,-1.75,-0.35,
0.4,1.12,-1.75,3.45,1.02,-1.67,-0.38,
0.402,1.12,-1.75,3.45,1.05,-1.65,-0.42,
0.404,2.86,-0.88,2.59,1.05,-1.65,-0.42,
0.406,2.86,-0.88,2.59,1.09,-1.72,-0.46,
0.407,2.86,-0.88,2.59,1.11,-1.76,-0.48,
0.409,2.86,-0.88,2.59,1.15,-1.87,-0.51,
0.41,2.86,-0.88,2.59,1.20,-1.99,-0.54,
0.412,2.86,-0.88,2.59,1.25,-2.13,-0.57,
0.414,2.59,-1.04,2.24,1.25,-2.13,-0.57,
0.415,2.59,-1.04,2.24,1.33,-2.34,-0.60,
0.416,2.59,-1.04,2.24,1.35,-2.40,-0.61,
0.421,2.59,-1.04,2.24,1.41,-2.53,-0.64,
0.423,2.59,-1.04,2.24,1.46,-2.65,-0.66,
0.426,2.59,-1.04,2.24,1.52,-2.75,-0.68,
0.427,0.95,-1.17,0.56,1.52,-2.75,-0.68,
0.428,0.95,-1.17,0.56,1.59,-2.91,-0.70,
0.428,0.95,-1.17,0.56,1.62,-2.96,-0.71,
0.429,0.95,-1.17,0.56,1.66,-3.07,-0.71,
0.43,0.95,-1.17,0.56,1.71,-3.19,-0.71,
0.432,0.95,-1.17,0.56,1.75,-3.30,-0.70,
0.434,-0.78,-0.76,-0.73,1.75,-3.30,-0.70,
0.446,-0.78,-0.76,-0.73,1.81,-3.49,-0.68,
0.448,-0.78,-0.76,-0.73,1.82,-3.55,-0.68,
0.449,-0.78,-0.76,-0.73,1.86,-3.69,-0.66,
0.45,-0.78,-0.76,-0.73,1.88,-3.82,-0.64,
0.451,-0.78,-0.76,-0.73,1.91,-3.95,-0.61,
0.452,-2.09,-0.93,-1.47,1.91,-3.95,-0.61,
0.453,-2.09,-0.93,-1.47,1.95,-4.15,-0.58,
0.454,-2.09,-0.93,-1.47,1.96,-4.21,-0.56,
0.455,-2.09,-0.93,-1.47,1.99,-4.35,-0.53,
0.456,-2.09,-0.93,-1.47,2.01,-4.48,-0.50,
0.457,-2.09,-0.93,-1.47,2.04,-4.62,-0.46,
0.458,-3.10,-1.29,-1.53,2.04,-4.62,-0.46,
0.459,-3.10,-1.29,-1.53,2.08,-4.81,-0.40,
0.459,-3.10,-1.29,-1.53,2.10,-4.87,-0.38,
0.46,-3.10,-1.29,-1.53,2.13,-5.00,-0.34,
0.461,-3.10,-1.29,-1.53,2.17,-5.14,-0.30,
0.476,-3.10,-1.29,-1.53,2.22,-5.28,-0.25,
0.479,-4.51,-1.86,-1.00,2.22,-5.28,-0.25,
0.48,-4.51,-1.86,-1.00,2.32,-5.52,-0.17,
0.481,-4.51,-1.86,-1.00,2.35,-5.60,-0.14,
0.483,-4.51,-1.86,-1.00,2.43,-5.77,-0.08,
0.483,-4.51,-1.86,-1.00,2.50,-5.94,-0.03,
0.484,-4.51,-1.86,-1.00,2.59,-6.12,0.03,
0.486,-6.15,-2.03,-0.78,2.59,-6.12,0.03,
0.526,-6.15,-2.03,-0.78,2.72,-6.38,0.12,
0.527,-6.15,-2.03,-0.78,2.75,-6.46,0.16,
0.529,-6.15,-2.03,-0.78,2.83,-6.60,0.23,
0.53,-6.15,-2.03,-0.78,2.89,-6.72,0.32,
0.53,-6.15,-2.03,-0.78,2.94,-6.82,0.41,
0.531,-7.95,-2.27,-1.47,2.94,-6.82,0.41,
0.533,-7.95,-2.27,-1.47,3.01,-6.94,0.58,
0.535,-7.95,-2.27,-1.47,3.03,-6.98,0.64,
0.536,-7.95,-2.27,-1.47,3.06,-7.04,0.76,
0.537,-7.95,-2.27,-1.47,3.10,-7.10,0.88,
0.538,-7.95,-2.27,-1.47,3.15,-7.17,1.00,
0.539,-9.10,-2.39,-2.07,3.15,-7.17,1.00,
0.54,-9.10,-2.39,-2.07,3.24,-7.29,1.16,
0.541,-9.10,-2.39,-2.07,3.27,-7.32,1.21,
0.542,-9.10,-2.39,-2.07,3.34,-7.39,1.31,
0.543,-9.10,-2.39,-2.07,3.40,-7.44,1.40,
0.544,-9.10,-2.39,-2.07,3.47,-7.47,1.49,
0.547,-8.91,-2.74,-1.59,3.47,-7.47,1.49,
0.548,-8.91,-2.74,-1.59,3.55,-7.48,1.62,
0.548,-8.91,-2.74,-1.59,3.58,-7.48,1.66,
0.548,-8.91,-2.74,-1.59,3.63,-7.46,1.74,
0.549,-8.91,-2.74,-1.59,3.68,-7.44,1.82,
0.549,-8.91,-2.74,-1.59,3.71,-7.39,1.89,
0.55,-7.69,-2.94,-2.14,3.71,-7.39,1.89,
0.55,-7.69,-2.94,-2.14,3.75,-7.32,1.98,
0.55,-7.69,-2.94,-2.14,3.76,-7.29,2.01,
0.551,-7.69,-2.94,-2.14,3.78,-7.24,2.06,
0.551,-7.69,-2.94,-2.14,3.78,-7.17,2.10,
0.552,-7.69,-2.94,-2.14,3.77,-7.11,2.13,
0.552,-6.06,-2.94,-3.00,3.77,-7.11,2.13,
0.552,-6.06,-2.94,-3.00,3.74,-7.05,2.17,
0.553,-6.06,-2.94,-3.00,3.73,-7.03,2.18,
0.556,-6.06,-2.94,-3.00,3.70,-7.01,2.19,
0.556,-6.06,-2.94,-3.00,3.67,-7.01,2.20,
0.557,-6.06,-2.94,-3.00,3.63,-7.01,2.21,
0.557,-4.58,-2.37,-3.47,3.63,-7.01,2.21,
0.557,-4.58,-2.37,-3.47,3.57,-7.04,2.23,
0.558,-4.58,-2.37,-3.47,3.55,-7.05,2.23,
0.558,-4.58,-2.37,-3.47,3.52,-7.08,2.25,
0.558,-4.58,-2.37,-3.47,3.48,-7.11,2.26,
0.559,-4.58,-2.37,-3.47,3.47,-7.14,2.28,
0.559,-4.57,-1.97,-2.70,3.47,-7.14,2.28,
0.559,-4.57,-1.97,-2.70,3.45,-7.19,2.31,
0.56,-4.57,-1.97,-2.70,3.45,-7.21,2.32,
0.56,-4.57,-1.97,-2.70,3.45,-7.24,2.35,
0.56,-4.57,-1.97,-2.70,3.46,-7.27,2.38,
0.561,-4.57,-1.97,-2.70,3.48,-7.29,2.41,
0.561,-5.04,-1.73,-1.51,3.48,-7.29,2.41,
0.561,-5.04,-1.73,-1.51,3.52,-7.30,2.48,
0.562,-5.04,-1.73,-1.51,3.53,-7.30,2.50,
0.562,-5.04,-1.73,-1.51,3.56,-7.28,2.55,
0.562,-5.04,-1.73,-1.51,3.59,-7.25,2.61,
0.563,-5.04,-1.73,-1.51,3.62,-7.22,2.67,
0.565,-5.47,-1.99,-0.51,3.62,-7.22,2.67,
0.566,-5.47,-1.99,-0.51,3.66,-7.14,2.77,
0.567,-5.47,-1.99,-0.51,3.67,-7.10,2.81,
0.58,-5.47,-1.99,-0.51,3.69,-7.03,2.87,
0.581,-5.47,-1.99,-0.51,3.70,-6.94,2.94,
0.581,-5.47,-1.99,-0.51,3.71,-6.86,3.01,
0.582,-5.05,-2.35,-0.30,3.71,-6.86,3.01,
0.582,-5.05,-2.35,-0.30,3.70,-6.71,3.12,
0.582,-5.05,-2.35,-0.30,3.69,-6.66,3.15,
0.583,-5.05,-2.35,-0.30,3.68,-6.56,3.22,
0.583,-5.05,-2.35,-0.30,3.66,-6.45,3.28,
0.583,-5.05,-2.35,-0.30,3.64,-6.34,3.34,
0.584,-3.88,-2.90,-0.18,3.64,-6.34,3.34,
0.589,-3.88,-2.90,-0.18,3.60,-6.15,3.43,
0.589,-3.88,-2.90,-0.18,3.58,-6.09,3.46,
0.59,-3.88,-2.90,-0.18,3.55,-5.95,3.51,
0.593,-3.88,-2.90,-0.18,3.51,-5.80,3.55,
0.594,-3.88,-2.90,-0.18,3.47,-5.65,3.59,
0.594,-2.42,-2.91,-0.17,3.47,-5.65,3.59,
0.595,-2.42,-2.91,-0.17,3.41,-5.40,3.65,
0.598,-2.42,-2.91,-0.17,3.39,-5.31,3.66,
0.598,-2.42,-2.91,-0.17,3.35,-5.13,3.68,
0.6,-2.42,-2.91,-0.17,3.32,-4.95,3.69,
0.611,-2.42,-2.91,-0.17,3.28,-4.77,3.70,
0.612,-0.17,-2.64,0.15,3.28,-4.77,3.70,
0.612,-0.17,-2.64,0.15,3.24,-4.52,3.68,
0.613,-0.17,-2.64,0.15,3.23,-4.43,3.68,
0.613,-0.17,-2.64,0.15,3.21,-4.26,3.66,
0.613,-0.17,-2.64,0.15,3.19,-4.09,3.63,
0.614,-0.17,-2.64,0.15,3.18,-3.91,3.59,
0.614,2.81,-1.72,0.93,3.18,-3.91,3.59,
0.615,2.81,-1.72,0.93,3.18,-3.64,3.51,
0.616,2.81,-1.72,0.93,3.19,-3.55,3.48,
0.627,2.81,-1.72,0.93,3.19,-3.37,3.41,
0.628,2.81,-1.72,0.93,3.21,-3.20,3.34,
0.628,2.81,-1.72,0.93,3.23,-3.03,3.26,
0.629,5.11,-0.46,1.82,3.23,-3.03,3.26,
0.629,5.11,-0.46,1.82,3.27,-2.78,3.14,
0.629,5.11,-0.46,1.82,3.29,-2.70,3.10,
0.63,5.11,-0.46,1.82,3.32,-2.56,3.02,
0.63,5.11,-0.46,1.82,3.35,-2.42,2.94,
0.632,5.11,-0.46,1.82,3.38,-2.29,2.87,
0.649,6.18,0.33,2.28,3.38,-2.29,2.87,
0.652,6.18,0.33,2.28,3.42,-2.11,2.75,
0.653,6.18,0.33,2.28,3.43,-2.05,2.72,
0.654,6.18,0.33,2.28,3.46,-1.95,2.65,
0.655,6.18,0.33,2.28,3.48,-1.84,2.59,
0.686,6.18,0.33,2.28,3.49,-1.75,2.53,
0.686,6.12,0.56,2.01,3.49,-1.75,2.53,
0.69,6.12,0.56,2.01,3.51,-1.61,2.45,
0.69,6.12,0.56,2.01,3.51,-1.57,2.42,
0.691,6.12,0.56,2.01,3.51,-1.48,2.37,
0.691,6.12,0.56,2.01,3.51,-1.39,2.33,
0.692,6.12,0.56,2.01,3.50,-1.31,2.29,
0.692,5.62,0.60,1.13,3.50,-1.31,2.29,
0.693,5.62,0.60,1.13,3.48,-1.17,2.23,
0.693,5.62,0.60,1.13,3.45,-1.04,2.17,
0.694,5.62,0.60,1.13,3.43,-0.99,2.15,
0.694,5.62,0.60,1.13,3.42,-0.95,2.14,
0.694,5.62,0.60,1.13,3.39,-0.85,2.10,
0.695,5.31,0.29,0.07,3.39,-0.85,2.10,
0.695,5.31,0.29,0.07,3.35,-0.71,2.06,
0.696,5.31,0.29,0.07,3.33,-0.66,2.05,
0.696,5.31,0.29,0.07,3.30,-0.56,2.02,
0.697,5.31,0.29,0.07,3.27,-0.46,1.99,
0.697,5.31,0.29,0.07,3.24,-0.37,1.96,
0.698,5.41,-0.01,-0.48,3.24,-0.37,1.96,
0.698,5.41,-0.01,-0.48,3.19,-0.23,1.91,
0.698,5.41,-0.01,-0.48,3.18,-0.18,1.90,
0.699,5.41,-0.01,-0.48,3.16,-0.09,1.87,
0.699,5.41,-0.01,-0.48,3.13,0.01,1.84,
0.7,5.41,-0.01,-0.48,3.10,0.09,1.80,
0.7,5.64,0.15,-0.66,3.10,0.09,1.80,
0.701,5.64,0.15,-0.66,3.07,0.22,1.75,
0.701,5.64,0.15,-0.66,3.05,0.26,1.73,
0.702,5.64,0.15,-0.66,3.03,0.34,1.70,
0.702,5.64,0.15,-0.66,3.00,0.41,1.66,
0.703,5.64,0.15,-0.66,2.98,0.47,1.62,
0.703,5.84,0.24,-0.71,2.98,0.47,1.62,
0.704,5.84,0.24,-0.71,2.95,0.56,1.55,
0.704,5.84,0.24,-0.71,2.94,0.58,1.53,
0.704,5.84,0.24,-0.71,2.92,0.62,1.49,
0.705,5.84,0.24,-0.71,2.90,0.65,1.44,
0.705,5.84,0.24,-0.71,2.89,0.67,1.40,
0.706,6.01,0.38,-0.86,2.89,0.67,1.40,
0.706,6.01,0.38,-0.86,2.87,0.68,1.33,
0.707,6.01,0.38,-0.86,2.87,0.68,1.30,
0.711,6.01,0.38,-0.86,2.86,0.67,1.25,
0.713,6.01,0.38,-0.86,2.85,0.65,1.21,
0.713,6.01,0.38,-0.86,2.84,0.63,1.16,
0.714,5.61,0.51,-1.31,2.84,0.63,1.16,
0.717,5.61,0.51,-1.31,2.81,0.57,1.10,
0.718,5.61,0.51,-1.31,2.80,0.55,1.08,
0.723,5.61,0.51,-1.31,2.79,0.51,1.05,
0.724,5.61,0.51,-1.31,2.78,0.46,1.02,
0.724,5.61,0.51,-1.31,2.76,0.41,1.00,
0.725,4.61,0.30,-1.82,2.76,0.41,1.00,
0.725,4.61,0.30,-1.82,2.74,0.34,0.98,
0.728,4.61,0.30,-1.82,2.73,0.32,0.97,
0.729,4.61,0.30,-1.82,2.71,0.28,0.97,
0.732,4.61,0.30,-1.82,2.70,0.25,0.97,
0.733,4.61,0.30,-1.82,2.69,0.22,0.97,
0.741,3.25,-0.11,-2.21,2.69,0.22,0.97,
0.742,3.25,-0.11,-2.21,2.66,0.19,0.98,
0.743,3.25,-0.11,-2.21,2.65,0.19,0.99,
0.743,3.25,-0.11,-2.21,2.63,0.19,1.00,
0.743,3.25,-0.11,-2.21,2.60,0.19,1.01,
0.744,3.25,-0.11,-2.21,2.58,0.19,1.02,
0.744,2.27,-0.49,-2.86,2.58,0.19,1.02,
0.747,2.27,-0.49,-2.86,2.53,0.20,1.04,
0.748,2.27,-0.49,-2.86,2.52,0.21,1.04,
0.751,2.27,-0.49,-2.86,2.49,0.22,1.05,
0.752,2.27,-0.49,-2.86,2.45,0.24,1.06,
0.753,2.27,-0.49,-2.86,2.41,0.25,1.07,
0.762,2.27,-0.82,-3.00,2.41,0.25,1.07,
0.77,2.27,-0.82,-3.00,2.36,0.27,1.07,
0.77,2.27,-0.82,-3.00,2.35,0.27,1.07,
0.771,2.27,-0.82,-3.00,2.32,0.28,1.07,
0.771,2.27,-0.82,-3.00,2.28,0.29,1.07,
0.771,2.27,-0.82,-3.00,2.26,0.30,1.07,
0.772,2.72,-1.21,-2.68,2.26,0.30,1.07,
0.772,2.72,-1.21,-2.68,2.23,0.30,1.06,
0.772,2.72,-1.21,-2.68,2.22,0.30,1.05,
0.773,2.72,-1.21,-2.68,2.20,0.30,1.04,
0.773,2.72,-1.21,-2.68,2.19,0.29,1.04,
0.773,2.72,-1.21,-2.68,2.18,0.29,1.03,
0.78,2.98,-1.22,-1.88,2.18,0.29,1.03,
0.781,2.98,-1.22,-1.88,2.18,0.27,1.01,
0.781,2.98,-1.22,-1.88,2.17,0.26,1.00,
0.782,2.98,-1.22,-1.88,2.17,0.24,0.99,
0.782,2.98,-1.22,-1.88,2.18,0.22,0.98,
0.782,2.98,-1.22,-1.88,2.18,0.19,0.96,
0.793,3.08,-1.13,-1.37,2.18,0.19,0.96,
0.794,3.08,-1.13,-1.37,2.20,0.15,0.94,
0.794,3.08,-1.13,-1.37,2.21,0.13,0.94,
0.795,3.08,-1.13,-1.37,2.23,0.09,0.93,
0.795,3.08,-1.13,-1.37,2.24,0.04,0.92,
0.795,3.08,-1.13,-1.37,2.26,-0.01,0.91,
0.796,2.74,-0.83,-1.16,2.26,-0.01,0.91,
0.796,2.74,-0.83,-1.16,2.29,-0.08,0.90,
0.796,2.74,-0.83,-1.16,2.31,-0.11,0.90,
0.8,2.74,-0.83,-1.16,2.33,-0.17,0.90,
0.801,2.74,-0.83,-1.16,2.35,-0.22,0.89,
0.805,2.74,-0.83,-1.16,2.36,-0.28,0.89,
0.806,2.38,-0.78,-1.42,2.36,-0.28,0.89,
0.806,2.38,-0.78,-1.42,2.38,-0.36,0.88,
0.807,2.38,-0.78,-1.42,2.39,-0.41,0.88,
0.847,2.38,-0.78,-1.42,2.39,-0.43,0.88,
0.847,2.38,-0.78,-1.42,2.39,-0.47,0.88,
0.848,2.38,-0.78,-1.42,2.39,-0.50,0.88,
0.849,2.20,-0.76,-2.00,2.39,-0.50,0.88,
0.85,2.20,-0.76,-2.00,2.38,-0.53,0.88,
0.851,2.20,-0.76,-2.00,2.37,-0.53,0.88,
0.851,2.20,-0.76,-2.00,2.36,-0.54,0.88,
0.852,2.20,-0.76,-2.00,2.33,-0.53,0.88,
0.853,2.20,-0.76,-2.00,2.30,-0.52,0.88,
0.854,1.96,-0.90,-2.93,2.30,-0.52,0.88,
0.855,1.96,-0.90,-2.93,2.25,-0.49,0.88,
0.856,1.96,-0.90,-2.93,2.23,-0.48,0.88,
0.856,1.96,-0.90,-2.93,2.19,-0.46,0.89,
0.857,1.96,-0.90,-2.93,2.14,-0.42,0.88,
0.858,1.96,-0.90,-2.93,2.08,-0.39,0.89,
0.859,1.73,-0.95,-3.65,2.08,-0.39,0.89,
0.859,1.73,-0.95,-3.65,2.00,-0.33,0.90,
0.86,1.73,-0.95,-3.65,1.97,-0.32,0.90,
0.861,1.73,-0.95,-3.65,1.90,-0.28,0.90,
0.862,1.73,-0.95,-3.65,1.84,-0.24,0.91,
0.862,1.73,-0.95,-3.65,1.78,-0.20,0.91,
0.863,1.80,-1.16,-4.15,1.78,-0.20,0.91,
0.864,1.80,-1.16,-4.15,1.68,-0.15,0.91,
0.865,1.80,-1.16,-4.15,1.65,-0.14,0.91,
0.866,1.80,-1.16,-4.15,1.59,-0.11,0.90,
0.867,1.80,-1.16,-4.15,1.52,-0.08,0.90,
0.868,1.80,-1.16,-4.15,1.46,-0.05,0.89,
0.869,2.19,-1.17,-4.04,1.46,-0.05,0.89,
0.87,2.19,-1.17,-4.04,1.37,-0.02,0.87,
0.87,2.19,-1.17,-4.04,1.32,-0.01,0.86,
0.871,2.19,-1.17,-4.04,1.29,-0.01,0.85,
0.872,2.19,-1.17,-4.04,1.24,0.00,0.83,
0.873,2.19,-1.17,-4.04,1.20,0.00,0.82,
0.874,2.48,-1.05,-3.61,1.20,0.00,0.82,
0.874,2.48,-1.05,-3.61,1.13,-0.01,0.79,
0.875,2.48,-1.05,-3.61,1.11,-0.01,0.78,
0.876,2.48,-1.05,-3.61,1.07,-0.03,0.77,
0.876,2.48,-1.05,-3.61,1.04,-0.05,0.76,
0.877,2.48,-1.05,-3.61,1.01,-0.07,0.74,
0.878,2.73,-1.03,-2.94,1.01,-0.07,0.74,
0.878,2.73,-1.03,-2.94,0.97,-0.10,0.71,
0.879,2.73,-1.03,-2.94,0.96,-0.11,0.70,
0.879,2.73,-1.03,-2.94,0.93,-0.14,0.68,
0.89,2.73,-1.03,-2.94,0.92,-0.16,0.66,
0.892,2.73,-1.03,-2.94,0.90,-0.19,0.63,
0.893,2.93,-1.16,-2.38,0.90,-0.19,0.63,
0.894,2.93,-1.16,-2.38,0.88,-0.22,0.59,
0.895,2.93,-1.16,-2.38,0.87,-0.24,0.58,
0.896,2.93,-1.16,-2.38,0.86,-0.26,0.56,
0.897,2.93,-1.16,-2.38,0.85,-0.28,0.53,
0.897,2.93,-1.16,-2.38,0.84,-0.31,0.50,
0.898,2.80,-1.30,-1.94,0.84,-0.31,0.50,
0.908,2.80,-1.30,-1.94,0.82,-0.33,0.47,
0.91,2.80,-1.30,-1.94,0.82,-0.34,0.46,
0.911,2.80,-1.30,-1.94,0.80,-0.36,0.44,
0.912,2.80,-1.30,-1.94,0.80,-0.37,0.43,
0.913,2.80,-1.30,-1.94,0.79,-0.37,0.41,
0.914,2.29,-1.55,-1.69,0.79,-0.37,0.41,
0.915,2.29,-1.55,-1.69,0.77,-0.37,0.39,
0.916,2.29,-1.55,-1.69,0.76,-0.37,0.38,
0.937,2.29,-1.55,-1.69,0.75,-0.36,0.37,
0.94,2.29,-1.55,-1.69,0.74,-0.36,0.36,
0.941,2.29,-1.55,-1.69,0.73,-0.34,0.35,
0.942,1.60,-1.68,-1.59,0.73,-0.34,0.35,
0.943,1.60,-1.68,-1.59,0.71,-0.32,0.34,
0.944,1.60,-1.68,-1.59,0.70,-0.32,0.33,
0.944,1.60,-1.68,-1.59,0.69,-0.30,0.32,
0.946,1.60,-1.68,-1.59,0.68,-0.28,0.32,
0.946,1.60,-1.68,-1.59,0.67,-0.26,0.31,
0.947,1.07,-1.83,-1.49,0.67,-0.26,0.31,
0.948,1.07,-1.83,-1.49,0.65,-0.23,0.29,
0.949,1.07,-1.83,-1.49,0.65,-0.22,0.29,
0.95,1.07,-1.83,-1.49,0.63,-0.21,0.28,
0.951,1.07,-1.83,-1.49,0.61,-0.20,0.27,
0.952,1.07,-1.83,-1.49,0.59,-0.19,0.27,
0.953,0.43,-1.74,-1.75,0.59,-0.19,0.27,
0.954,0.43,-1.74,-1.75,0.56,-0.18,0.26,
0.955,0.43,-1.74,-1.75,0.54,-0.18,0.26,
0.956,0.43,-1.74,-1.75,0.52,-0.17,0.25,
0.956,0.43,-1.74,-1.75,0.48,-0.17,0.25,
0.957,0.43,-1.74,-1.75,0.45,-0.16,0.25,
0.958,-0.20,-1.72,-2.08,0.45,-0.16,0.25,
0.959,-0.20,-1.72,-2.08,0.42,-0.14,0.26,
0.959,-0.20,-1.72,-2.08,0.40,-0.14,0.26,
0.96,-0.20,-1.72,-2.08,0.38,-0.12,0.27,
0.96,-0.20,-1.72,-2.08,0.35,-0.10,0.28,
0.961,-0.20,-1.72,-2.08,0.32,-0.08,0.29,
0.961,-0.84,-1.68,-2.10,0.32,-0.08,0.29,
0.962,-0.84,-1.68,-2.10,0.28,-0.03,0.31,
0.962,-0.84,-1.68,-2.10,0.26,-0.01,0.32,
0.963,-0.84,-1.68,-2.10,0.23,0.02,0.34,
0.963,-0.84,-1.68,-2.10,0.20,0.06,0.37,
0.964,-0.84,-1.68,-2.10,0.17,0.09,0.39,
0.965,-1.56,-1.81,-2.27,0.17,0.09,0.39,
0.966,-1.56,-1.81,-2.27,0.13,0.14,0.44,
0.967,-1.56,-1.81,-2.27,0.11,0.15,0.45,
0.97,-1.56,-1.81,-2.27,0.08,0.18,0.48,
0.972,-1.56,-1.81,-2.27,0.05,0.20,0.50,
0.975,-1.56,-1.81,-2.27,0.02,0.22,0.53,
0.976,-1.80,-1.56,-2.36,0.02,0.22,0.53,
1.015,-1.80,-1.56,-2.36,-0.03,0.23,0.56,
1.016,-1.80,-1.56,-2.36,-0.04,0.24,0.57,
1.016,-1.80,-1.56,-2.36,-0.07,0.24,0.59,
1.017,-1.80,-1.56,-2.36,-0.10,0.24,0.60,
1.017,-1.80,-1.56,-2.36,-0.12,0.23,0.61,
1.018,-1.38,-1.25,-2.20,-0.12,0.23,0.61,
1.018,-1.38,-1.25,-2.20,-0.14,0.22,0.63,
1.018,-1.38,-1.25,-2.20,-0.15,0.21,0.64,
1.019,-1.38,-1.25,-2.20,-0.17,0.18,0.64,
1.019,-1.38,-1.25,-2.20,-0.18,0.16,0.65,
1.02,-1.38,-1.25,-2.20,-0.19,0.12,0.66,
1.02,-1.07,-1.08,-1.71,-0.19,0.12,0.66,
1.021,-1.07,-1.08,-1.71,-0.19,0.06,0.66,
1.021,-1.07,-1.08,-1.71,-0.19,0.03,0.67,
1.021,-1.07,-1.08,-1.71,-0.18,-0.02,0.67,
1.022,-1.07,-1.08,-1.71,-0.17,-0.08,0.67,
1.022,-1.07,-1.08,-1.71,-0.15,-0.14,0.67,
1.023,-0.80,-1.11,-0.47,-0.15,-0.14,0.67,
1.023,-0.80,-1.11,-0.47,-0.11,-0.24,0.68,
1.024,-0.80,-1.11,-0.47,-0.06,-0.36,0.67,
1.024,-0.80,-1.11,-0.47,-0.05,-0.39,0.67,
1.024,-0.80,-1.11,-0.47,-0.03,-0.43,0.67,
1.025,-0.80,-1.11,-0.47,0.01,-0.51,0.66,
1.025,-0.40,-1.12,0.72,0.01,-0.51,0.66,
1.026,-0.40,-1.12,0.72,0.07,-0.63,0.65,
1.026,-0.40,-1.12,0.72,0.12,-0.71,0.65,
1.027,-0.40,-1.12,0.72,0.14,-0.74,0.64,
1.027,-0.40,-1.12,0.72,0.18,-0.82,0.64,
1.028,-0.40,-1.12,0.72,0.23,-0.89,0.63,
1.028,-0.14,-1.15,1.35,0.23,-0.89,0.63,
1.028,-0.14,-1.15,1.35,0.29,-0.99,0.62,
1.029,-0.14,-1.15,1.35,0.31,-1.02,0.61,
1.029,-0.14,-1.15,1.35,0.36,-1.07,0.61,
1.03,-0.14,-1.15,1.35,0.39,-1.12,0.61,
1.035,-0.14,-1.15,1.35,0.42,-1.16,0.60,
1.036,-0.13,-1.13,1.14,0.42,-1.16,0.60,
1.036,-0.13,-1.13,1.14,0.46,-1.22,0.60,
1.037,-0.13,-1.13,1.14,0.48,-1.24,0.60,
1.04,-0.13,-1.13,1.14,0.49,-1.25,0.60,
1.041,-0.13,-1.13,1.14,0.50,-1.26,0.60,
1.044,-0.13,-1.13,1.14,0.51,-1.27,0.61,
1.045,-0.29,-1.06,0.30,0.51,-1.27,0.61,
1.046,-0.29,-1.06,0.30,0.51,-1.26,0.62,
1.046,-0.29,-1.06,0.30,0.51,-1.25,0.63,
1.05,-0.29,-1.06,0.30,0.51,-1.24,0.63,
1.051,-0.29,-1.06,0.30,0.50,-1.22,0.65,
1.056,-0.29,-1.06,0.30,0.48,-1.20,0.66,
1.057,-0.56,-0.92,-0.77,0.48,-1.20,0.66,
1.057,-0.56,-0.92,-0.77,0.45,-1.14,0.68,
1.058,-0.56,-0.92,-0.77,0.42,-1.10,0.70,
1.058,-0.56,-0.92,-0.77,0.41,-1.08,0.71,
1.062,-0.56,-0.92,-0.77,0.38,-1.04,0.73,
1.066,-0.56,-0.92,-0.77,0.34,-0.99,0.75,
1.067,-0.76,-0.90,-1.68,0.34,-0.99,0.75,
1.067,-0.76,-0.90,-1.68,0.29,-0.92,0.79,
1.067,-0.76,-0.90,-1.68,0.25,-0.88,0.81,
1.082,-0.76,-0.90,-1.68,0.23,-0.85,0.82,
1.083,-0.76,-0.90,-1.68,0.19,-0.81,0.84,
1.084,-0.76,-0.90,-1.68,0.15,-0.76,0.87,
1.084,-0.97,-0.77,-1.99,0.15,-0.76,0.87,
1.084,-0.97,-0.77,-1.99,0.09,-0.69,0.90,
1.085,-0.97,-0.77,-1.99,0.07,-0.67,0.91,
1.085,-0.97,-0.77,-1.99,0.03,-0.62,0.94,
1.085,-0.97,-0.77,-1.99,-0.00,-0.58,0.96,
1.086,-0.97,-0.77,-1.99,-0.03,-0.54,0.99,
1.086,-1.10,-0.71,-1.64,-0.03,-0.54,0.99,
1.086,-1.10,-0.71,-1.64,-0.07,-0.48,1.02,
1.087,-1.10,-0.71,-1.64,-0.08,-0.44,1.04,
1.091,-1.10,-0.71,-1.64,-0.09,-0.43,1.05,
1.092,-1.10,-0.71,-1.64,-0.10,-0.41,1.07,
1.092,-1.10,-0.71,-1.64,-0.11,-0.39,1.09,
1.096,-0.87,-0.49,-0.58,-0.11,-0.39,1.09,
1.097,-0.87,-0.49,-0.58,-0.10,-0.38,1.12,
1.097,-0.87,-0.49,-0.58,-0.09,-0.39,1.13,
1.098,-0.87,-0.49,-0.58,-0.09,-0.39,1.14,
1.101,-0.87,-0.49,-0.58,-0.07,-0.41,1.15,
1.106,-0.87,-0.49,-0.58,-0.05,-0.43,1.16,
1.107,-0.55,-0.36,0.44,-0.05,-0.43,1.16,
1.107,-0.55,-0.36,0.44,-0.02,-0.48,1.16,
1.108,-0.55,-0.36,0.44,0.00,-0.52,1.17,
1.108,-0.55,-0.36,0.44,0.01,-0.54,1.17,
1.11,-0.55,-0.36,0.44,0.03,-0.59,1.17,
1.112,-0.55,-0.36,0.44,0.06,-0.64,1.17,
1.114,-0.25,-0.33,0.88,0.06,-0.64,1.17,
1.115,-0.25,-0.33,0.88,0.09,-0.71,1.16,
1.119,-0.25,-0.33,0.88,0.11,-0.76,1.16,
1.119,-0.25,-0.33,0.88,0.12,-0.78,1.16,
1.12,-0.25,-0.33,0.88,0.14,-0.83,1.16,
1.122,-0.25,-0.33,0.88,0.16,-0.87,1.16,
1.124,-0.22,-0.35,0.91,0.16,-0.87,1.16,
1.126,-0.22,-0.35,0.91,0.18,-0.93,1.16,
1.126,-0.22,-0.35,0.91,0.19,-0.96,1.17,
1.128,-0.22,-0.35,0.91,0.19,-0.97,1.17,
1.132,-0.22,-0.35,0.91,0.20,-0.99,1.17,
1.133,-0.22,-0.35,0.91,0.20,-1.01,1.18,
1.135,-0.59,-0.47,0.50,0.20,-1.01,1.18,
1.135,-0.59,-0.47,0.50,0.20,-1.03,1.20,
1.136,-0.59,-0.47,0.50,0.20,-1.03,1.21,
1.139,-0.59,-0.47,0.50,0.20,-1.03,1.22,
1.14,-0.59,-0.47,0.50,0.19,-1.03,1.24,
1.182,-0.59,-0.47,0.50,0.18,-1.01,1.26,
1.183,-1.10,-0.69,0.13,0.18,-1.01,1.26,
1.184,-1.10,-0.69,0.13,0.17,-0.99,1.29,
1.185,-1.10,-0.69,0.13,0.16,-0.97,1.31,
1.186,-1.10,-0.69,0.13,0.16,-0.96,1.33,
1.187,-1.10,-0.69,0.13,0.15,-0.94,1.35,
1.188,-1.10,-0.69,0.13,0.14,-0.91,1.38,
1.188,-1.39,-0.92,0.04,0.14,-0.91,1.38,
1.189,-1.39,-0.92,0.04,0.13,-0.86,1.41,
1.19,-1.39,-0.92,0.04,0.12,-0.82,1.42,
1.191,-1.39,-0.92,0.04,0.12,-0.80,1.43,
1.191,-1.39,-0.92,0.04,0.12,-0.77,1.45,
1.192,-1.39,-0.92,0.04,0.11,-0.72,1.46,
1.193,-1.11,-0.93,0.10,0.11,-0.72,1.46,
1.193,-1.11,-0.93,0.10,0.11,-0.66,1.49,
1.194,-1.11,-0.93,0.10,0.11,-0.62,1.51,
1.195,-1.11,-0.93,0.10,0.10,-0.60,1.52,
1.196,-1.11,-0.93,0.10,0.10,-0.56,1.54,
1.197,-1.11,-0.93,0.10,0.09,-0.52,1.55,
1.198,-0.92,-0.80,0.01,0.09,-0.52,1.55,
1.199,-0.92,-0.80,0.01,0.06,-0.46,1.57,
1.2,-0.92,-0.80,0.01,0.05,-0.42,1.58,
1.2,-0.92,-0.80,0.01,0.04,-0.40,1.58,
1.201,-0.92,-0.80,0.01,0.03,-0.36,1.59,
1.202,-0.92,-0.80,0.01,0.02,-0.31,1.60,
1.203,-0.68,-0.58,-0.18,0.02,-0.31,1.60,
1.203,-0.68,-0.58,-0.18,0.01,-0.26,1.62,
1.204,-0.68,-0.58,-0.18,0.00,-0.23,1.62,
1.205,-0.68,-0.58,-0.18,-0.01,-0.21,1.62,
1.206,-0.68,-0.58,-0.18,-0.02,-0.18,1.61,
1.207,-0.68,-0.58,-0.18,-0.02,-0.15,1.60,
1.208,0.08,-0.26,-0.28,-0.02,-0.15,1.60,
1.208,0.08,-0.26,-0.28,-0.03,-0.08,1.60,
1.209,0.08,-0.26,-0.28,-0.03,-0.03,1.60,
1.21,0.08,-0.26,-0.28,-0.03,-0.01,1.59,
1.21,0.08,-0.26,-0.28,-0.04,0.02,1.57,
1.211,0.08,-0.26,-0.28,-0.05,0.05,1.55,
1.212,1.07,-0.05,0.01,-0.05,0.05,1.55,
1.212,1.07,-0.05,0.01,-0.06,0.09,1.51,
1.213,1.07,-0.05,0.01,-0.07,0.12,1.47,
1.214,1.07,-0.05,0.01,-0.07,0.13,1.45,
1.214,1.07,-0.05,0.01,-0.07,0.16,1.41,
1.215,1.07,-0.05,0.01,-0.08,0.19,1.38,
1.216,2.23,0.34,0.41,-0.08,0.19,1.38,
1.217,2.23,0.34,0.41,-0.07,0.25,1.33,
1.218,2.23,0.34,0.41,-0.07,0.28,1.30,
1.219,2.23,0.34,0.41,-0.06,0.29,1.29,
1.223,2.23,0.34,0.41,-0.06,0.32,1.26,
1.226,2.23,0.34,0.41,-0.06,0.35,1.23,
1.227,2.23,0.27,1.07,-0.06,0.35,1.23,
1.228,2.23,0.27,1.07,-0.07,0.40,1.18,
1.229,2.23,0.27,1.07,-0.08,0.42,1.15,
1.23,2.23,0.27,1.07,-0.08,0.42,1.13,
1.231,2.23,0.27,1.07,-0.10,0.43,1.09,
1.232,2.23,0.27,1.07,-0.11,0.44,1.04,
1.239,2.47,0.12,1.01,-0.11,0.44,1.04,
1.24,2.47,0.12,1.01,-0.14,0.46,0.98,
1.24,2.47,0.12,1.01,-0.16,0.47,0.94,
1.24,2.47,0.12,1.01,-0.17,0.49,0.92,
1.241,2.47,0.12,1.01,-0.20,0.51,0.89,
1.245,2.47,0.12,1.01,-0.22,0.54,0.87,
1.245,1.76,0.09,0.58,-0.22,0.54,0.87,
1.246,1.76,0.09,0.58,-0.26,0.59,0.83,
1.246,1.76,0.09,0.58,-0.29,0.64,0.82,
1.25,1.76,0.09,0.58,-0.30,0.66,0.81,
1.25,1.76,0.09,0.58,-0.33,0.71,0.81,
1.257,1.76,0.09,0.58,-0.35,0.77,0.81,
1.258,0.41,-0.26,0.50,-0.35,0.77,0.81,
1.258,0.41,-0.26,0.50,-0.38,0.86,0.82,
1.259,0.41,-0.26,0.50,-0.39,0.92,0.84,
1.259,0.41,-0.26,0.50,-0.40,0.95,0.85,
1.262,0.41,-0.26,0.50,-0.42,1.01,0.88,
1.267,0.41,-0.26,0.50,-0.44,1.06,0.90,
1.267,-0.96,-1.13,0.27,-0.44,1.06,0.90,
1.268,-0.96,-1.13,0.27,-0.49,1.09,0.94,
1.268,-0.96,-1.13,0.27,-0.53,1.09,0.95,
1.268,-0.96,-1.13,0.27,-0.56,1.09,0.96,
1.278,-0.96,-1.13,0.27,-0.61,1.09,0.97,
1.279,-0.96,-1.13,0.27,-0.65,1.08,0.97,
1.279,-1.35,-1.54,-0.90,-0.65,1.08,0.97,
1.28,-1.35,-1.54,-0.90,-0.70,1.05,0.98,
1.28,-1.35,-1.54,-0.90,-0.72,1.02,0.98,
1.28,-1.35,-1.54,-0.90,-0.73,1.01,0.97,
1.281,-1.35,-1.54,-0.90,-0.74,0.97,0.97,
1.282,-1.35,-1.54,-0.90,-0.75,0.93,0.97,
1.292,-1.30,-1.43,-0.61,-0.75,0.93,0.97,
1.293,-1.30,-1.43,-0.61,-0.74,0.84,1.00,
1.294,-1.30,-1.43,-0.61,-0.72,0.78,1.02,
1.294,-1.30,-1.43,-0.61,-0.72,0.76,1.04,
1.294,-1.30,-1.43,-0.61,-0.70,0.71,1.06,
1.295,-1.30,-1.43,-0.61,-0.70,0.66,1.08,
1.295,-2.29,-1.56,-0.35,-0.70,0.66,1.08,
1.296,-2.29,-1.56,-0.35,-0.69,0.61,1.11,
1.298,-2.29,-1.56,-0.35,-0.69,0.60,1.14,
1.299,-2.29,-1.56,-0.35,-0.69,0.59,1.15,
1.303,-2.29,-1.56,-0.35,-0.70,0.58,1.19,
1.305,-2.29,-1.56,-0.35,-0.71,0.58,1.23,
1.306,-3.20,-2.46,-1.05,-0.71,0.58,1.23,
1.307,-3.20,-2.46,-1.05,-0.75,0.62,1.30,
1.308,-3.20,-2.46,-1.05,-0.77,0.63,1.31,
1.336,-3.20,-2.46,-1.05,-0.78,0.65,1.32,
1.336,-3.20,-2.46,-1.05,-0.81,0.68,1.35,
1.336,-3.20,-2.46,-1.05,-0.83,0.71,1.36,
1.341,-2.70,-3.73,-1.44,-0.83,0.71,1.36,
1.342,-2.70,-3.73,-1.44,-0.85,0.75,1.39,
1.342,-2.70,-3.73,-1.44,-0.86,0.75,1.41,
1.342,-2.70,-3.73,-1.44,-0.87,0.75,1.43,
1.343,-2.70,-3.73,-1.44,-0.89,0.75,1.47,
1.343,-2.70,-3.73,-1.44,-0.90,0.75,1.52,
1.344,-2.87,-2.99,-0.77,-0.90,0.75,1.52,
1.344,-2.87,-2.99,-0.77,-0.92,0.75,1.62,
1.345,-2.87,-2.99,-0.77,-0.94,0.76,1.69,
1.345,-2.87,-2.99,-0.77,-0.94,0.77,1.71,
1.346,-2.87,-2.99,-0.77,-0.95,0.81,1.77,
1.346,-2.87,-2.99,-0.77,-0.97,0.84,1.82,
1.346,-2.41,-2.31,-0.51,-0.97,0.84,1.82,
1.347,-2.41,-2.31,-0.51,-1.00,0.91,1.90,
1.347,-2.41,-2.31,-0.51,-1.02,0.96,1.98,
1.348,-2.41,-2.31,-0.51,-1.04,0.98,2.02,
1.348,-2.41,-2.31,-0.51,-1.06,1.03,2.12,
1.349,-2.41,-2.31,-0.51,-1.08,1.07,2.23,
1.349,-3.38,-0.64,-0.80,-1.08,1.07,2.23,
1.349,-3.38,-0.64,-0.80,-1.07,1.04,2.47,
1.35,-3.38,-0.64,-0.80,-1.03,0.97,2.52,
1.353,-3.38,-0.64,-0.80,-0.79,0.60,2.63,
1.353,-3.38,-0.64,-0.80,-0.79,0.60,2.63,
1.354,-3.38,-0.64,-0.80,-0.42,0.12,2.61,
1.355,-0.25,1.33,7.34,-0.42,0.12,2.61,
1.356,-0.25,1.33,7.34,-0.21,-0.12,2.51,
1.358,-0.25,1.33,7.34,-0.18,-0.14,2.47,
1.36,-0.25,1.33,7.34,-0.18,-0.14,2.46,
1.36,-0.25,1.33,7.34,-0.20,-0.13,2.45,
1.362,-0.25,1.33,7.34,-0.25,-0.11,2.44,
1.364,2.70,1.25,1.69,-0.25,-0.11,2.44,
1.365,2.70,1.25,1.69,-0.32,-0.08,2.42,
1.367,2.70,1.25,1.69,-0.39,-0.03,2.39,
1.368,2.70,1.25,1.69,-0.42,-0.00,2.37,
1.37,2.70,1.25,1.69,-0.47,0.07,2.33,
1.372,2.70,1.25,1.69,-0.57,0.20,2.27,
1.375,2.27,-0.83,-1.32,-0.57,0.20,2.27,
1.375,2.27,-0.83,-1.32,-0.67,0.36,2.19,
1.376,2.27,-0.83,-1.32,-0.70,0.41,2.17,
1.379,2.27,-0.83,-1.32,-0.78,0.53,2.13,
1.38,2.27,-0.83,-1.32,-0.86,0.65,2.10,
1.385,2.27,-0.83,-1.32,-0.94,0.77,2.08,
1.386,0.88,-2.14,-2.30,-0.94,0.77,2.08,
1.386,0.88,-2.14,-2.30,-1.06,0.93,2.07,
1.387,0.88,-2.14,-2.30,-1.10,0.97,2.08,
1.391,0.88,-2.14,-2.30,-1.17,1.05,2.08,
1.395,0.88,-2.14,-2.30,-1.24,1.12,2.10,
1.396,0.88,-2.14,-2.30,-1.31,1.19,2.12,
1.396,-0.37,-1.67,-1.47,-1.31,1.19,2.12,
1.397,-0.37,-1.67,-1.47,-1.37,1.24,2.15,
1.397,-0.37,-1.67,-1.47,-1.42,1.28,2.17,
1.4,-0.37,-1.67,-1.47,-1.47,1.29,2.20,
1.401,-0.37,-1.67,-1.47,-1.50,1.29,2.22,
1.405,-0.37,-1.67,-1.47,-1.52,1.27,2.24,
1.405,-1.02,-1.55,0.39,-1.52,1.27,2.24,
1.406,-1.02,-1.55,0.39,-1.48,1.15,2.28,
1.406,-1.02,-1.55,0.39,-1.45,1.08,2.29,
1.41,-1.02,-1.55,0.39,-1.37,0.93,2.32,
1.411,-1.02,-1.55,0.39,-1.31,0.81,2.35,
1.414,-1.02,-1.55,0.39,-1.29,0.74,2.37,
1.415,-1.57,-1.89,2.67,-1.29,0.74,2.37,
1.415,-1.57,-1.89,2.67,-1.33,0.73,2.37,
1.422,-1.57,-1.89,2.67,-1.39,0.73,2.37,
1.423,-1.57,-1.89,2.67,-1.46,0.73,2.36,
1.423,-1.57,-1.89,2.67,-1.52,0.72,2.35,
1.423,-1.57,-1.89,2.67,-1.56,0.70,2.34,
1.424,-0.58,-1.21,-1.12,-1.56,0.70,2.34,
1.426,-0.58,-1.21,-1.12,-1.60,0.66,2.35,
1.426,-0.58,-1.21,-1.12,-1.61,0.64,2.35,
1.429,-0.58,-1.21,-1.12,-1.61,0.59,2.35,
1.43,-0.58,-1.21,-1.12,-1.59,0.52,2.35,
1.437,-0.58,-1.21,-1.12,-1.57,0.44,2.34,
1.439,-1.02,-0.71,0.39,-1.57,0.44,2.34,
1.44,-1.02,-0.71,0.39,-1.51,0.31,2.34,
1.441,-1.02,-0.71,0.39,-1.49,0.26,2.33,
1.442,-1.02,-0.71,0.39,-1.42,0.16,2.32,
1.442,-1.02,-0.71,0.39,-1.34,0.03,2.30,
1.443,-1.02,-0.71,0.39,-1.26,-0.10,2.28,
1.446,-0.32,0.08,2.69,-1.26,-0.10,2.28,
1.447,-0.32,0.08,2.69,-1.13,-0.31,2.24,
1.447,-0.32,0.08,2.69,-1.09,-0.38,2.23,
1.448,-0.32,0.08,2.69,-1.01,-0.52,2.21,
1.452,-0.32,0.08,2.69,-0.93,-0.66,2.20,
1.453,-0.32,0.08,2.69,-0.86,-0.80,2.19,
1.454,-0.18,0.73,2.96,-0.86,-0.80,2.19,
1.455,-0.18,0.73,2.96,-0.75,-1.01,2.18,
1.456,-0.18,0.73,2.96,-0.72,-1.08,2.18,
1.458,-0.18,0.73,2.96,-0.64,-1.23,2.17,
1.46,-0.18,0.73,2.96,-0.57,-1.38,2.15,
1.462,-0.18,0.73,2.96,-0.49,-1.51,2.12,
1.466,0.79,0.72,2.84,-0.49,-1.51,2.12,
1.466,0.79,0.72,2.84,-0.40,-1.66,2.08,
1.466,0.79,0.72,2.84,-0.37,-1.69,2.07,
1.468,0.79,0.72,2.84,-0.33,-1.74,2.04,
1.47,0.79,0.72,2.84,-0.30,-1.77,2.02,
1.473,0.79,0.72,2.84,-0.30,-1.78,1.99,
1.474,0.66,0.33,1.51,-0.30,-1.78,1.99,
1.509,0.66,0.33,1.51,-0.31,-1.77,1.97,
1.51,0.66,0.33,1.51,-0.33,-1.76,1.95,
1.51,0.66,0.33,1.51,-0.36,-1.74,1.93,
1.511,0.66,0.33,1.51,-0.39,-1.72,1.92,
1.511,0.66,0.33,1.51,-0.42,-1.69,1.93,
1.512,-0.06,0.66,-0.94,-0.42,-1.69,1.93,
1.512,-0.06,0.66,-0.94,-0.45,-1.64,1.94,
1.513,-0.06,0.66,-0.94,-0.47,-1.58,1.96,
1.513,-0.06,0.66,-0.94,-0.49,-1.51,1.99,
1.513,-0.06,0.66,-0.94,-0.50,-1.43,2.01,
1.514,-0.06,0.66,-0.94,-0.51,-1.35,2.03,
1.514,-0.88,1.67,-1.72,-0.51,-1.35,2.03,
1.515,-0.88,1.67,-1.72,-0.52,-1.26,2.05,
1.515,-0.88,1.67,-1.72,-0.52,-1.17,2.06,
1.516,-0.88,1.67,-1.72,-0.53,-1.09,2.06,
1.516,-0.88,1.67,-1.72,-0.53,-1.02,2.06,
1.517,-0.88,1.67,-1.72,-0.54,-0.96,2.06,
1.517,-0.27,1.88,-1.92,-0.54,-0.96,2.06,
1.517,-0.27,1.88,-1.92,-0.54,-0.89,2.05,
1.518,-0.27,1.88,-1.92,-0.54,-0.87,2.04,
1.518,-0.27,1.88,-1.92,-0.54,-0.84,2.03,
1.519,-0.27,1.88,-1.92,-0.54,-0.81,2.01,
1.519,-0.27,1.88,-1.92,-0.53,-0.79,1.98,
1.52,0.39,1.86,-1.04,-0.53,-0.79,1.98,
1.52,0.39,1.86,-1.04,-0.53,-0.76,1.94,
1.52,0.39,1.86,-1.04,-0.53,-0.75,1.92,
1.521,0.39,1.86,-1.04,-0.52,-0.74,1.89,
1.521,0.39,1.86,-1.04,-0.52,-0.72,1.85,
1.522,0.39,1.86,-1.04,-0.51,-0.69,1.82,
1.527,0.70,1.72,-0.35,-0.51,-0.69,1.82,
1.528,0.70,1.72,-0.35,-0.50,-0.66,1.79,
1.528,0.70,1.72,-0.35,-0.49,-0.63,1.75,
1.529,0.70,1.72,-0.35,-0.48,-0.60,1.71,
1.532,0.70,1.72,-0.35,-0.47,-0.57,1.67,
1.533,0.70,1.72,-0.35,-0.45,-0.52,1.63,
1.537,0.86,1.70,-0.21,-0.45,-0.52,1.63,
1.539,0.86,1.70,-0.21,-0.44,-0.48,1.59,
1.539,0.86,1.70,-0.21,-0.42,-0.44,1.56,
1.539,0.86,1.70,-0.21,-0.39,-0.41,1.54,
1.542,0.86,1.70,-0.21,-0.36,-0.40,1.52,
1.543,0.86,1.70,-0.21,-0.32,-0.39,1.52,
1.546,0.53,1.10,-0.05,-0.32,-0.39,1.52,
1.547,0.53,1.10,-0.05,-0.27,-0.40,1.52,
1.547,0.53,1.10,-0.05,-0.23,-0.41,1.52,
1.548,0.53,1.10,-0.05,-0.18,-0.43,1.51,
1.561,0.53,1.10,-0.05,-0.14,-0.45,1.50,
1.562,0.53,1.10,-0.05,-0.09,-0.47,1.48,
1.563,0.36,0.03,0.39,-0.09,-0.47,1.48,
1.563,0.36,0.03,0.39,-0.05,-0.49,1.46,
1.563,0.36,0.03,0.39,-0.00,-0.52,1.43,
1.564,0.36,0.03,0.39,0.05,-0.55,1.40,
1.564,0.36,0.03,0.39,0.09,-0.58,1.38,
1.564,0.36,0.03,0.39,0.15,-0.62,1.36,
1.565,0.12,-0.96,1.03,0.15,-0.62,1.36,
1.583,0.12,-0.96,1.03,0.23,-0.67,1.35,
1.584,0.12,-0.96,1.03,0.26,-0.68,1.34,
1.585,0.12,-0.96,1.03,0.32,-0.70,1.34,
1.585,0.12,-0.96,1.03,0.37,-0.75,1.33,
1.585,0.12,-0.96,1.03,0.43,-0.79,1.32,
1.586,0.50,-1.76,0.68,0.43,-0.79,1.32,
1.586,0.50,-1.76,0.68,0.50,-0.82,1.30,
1.586,0.50,-1.76,0.68,0.52,-0.83,1.29,
1.586,0.50,-1.76,0.68,0.56,-0.82,1.26,
1.587,0.50,-1.76,0.68,0.59,-0.81,1.23,
1.587,0.50,-1.76,0.68,0.62,-0.79,1.20,
1.587,1.23,-2.58,-0.15,0.62,-0.79,1.20,
1.588,1.23,-2.58,-0.15,0.64,-0.77,1.15,
1.588,1.23,-2.58,-0.15,0.65,-0.74,1.10,
1.588,1.23,-2.58,-0.15,0.67,-0.72,1.04,
1.592,1.23,-2.58,-0.15,0.68,-0.68,0.98,
1.593,1.23,-2.58,-0.15,0.70,-0.66,0.92,
1.596,1.54,-2.70,-0.43,0.70,-0.66,0.92,
1.597,1.54,-2.70,-0.43,0.71,-0.64,0.86,
1.597,1.54,-2.70,-0.43,0.71,-0.60,0.80,
1.602,1.54,-2.70,-0.43,0.71,-0.58,0.74,
1.603,1.54,-2.70,-0.43,0.70,-0.56,0.67,
1.603,1.54,-2.70,-0.43,0.70,-0.55,0.60,
1.605,1.51,-2.42,-0.37,0.70,-0.55,0.60,
1.605,1.51,-2.42,-0.37,0.67,-0.54,0.47,
1.606,1.51,-2.42,-0.37,0.65,-0.54,0.43,
1.608,1.51,-2.42,-0.37,0.63,-0.52,0.34,
1.61,1.51,-2.42,-0.37,0.61,-0.49,0.26,
1.612,1.51,-2.42,-0.37,0.59,-0.46,0.17,
1.614,1.16,-2.72,-0.28,0.59,-0.46,0.17,
1.617,1.16,-2.72,-0.28,0.57,-0.44,0.10,
1.619,1.16,-2.72,-0.28,0.55,-0.42,0.04,
1.619,1.16,-2.72,-0.28,0.53,-0.41,-0.01,
1.62,1.16,-2.72,-0.28,0.50,-0.40,-0.05,
1.623,1.16,-2.72,-0.28,0.48,-0.36,-0.08,
1.626,-0.20,-4.80,-0.09,0.48,-0.36,-0.08,
1.627,-0.20,-4.80,-0.09,0.42,-0.31,-0.15,
1.628,-0.20,-4.80,-0.09,0.40,-0.29,-0.17,
1.629,-0.20,-4.80,-0.09,0.35,-0.23,-0.21,
1.63,-0.20,-4.80,-0.09,0.29,-0.16,-0.24,
1.633,-0.20,-4.80,-0.09,0.22,-0.08,-0.25,
1.639,-0.96,-6.11,-0.88,0.22,-0.08,-0.25,
1.64,-0.96,-6.11,-0.88,0.10,0.07,-0.29,
1.64,-0.96,-6.11,-0.88,0.06,0.11,-0.31,
1.64,-0.96,-6.11,-0.88,-0.01,0.19,-0.34,
1.641,-0.96,-6.11,-0.88,-0.07,0.24,-0.35,
1.665,-0.96,-6.11,-0.88,-0.13,0.28,-0.34,
1.665,-1.21,-5.57,-0.97,-0.13,0.28,-0.34,
1.666,-1.21,-5.57,-0.97,-0.22,0.33,-0.34,
1.669,-1.21,-5.57,-0.97,-0.25,0.33,-0.33,
1.67,-1.21,-5.57,-0.97,-0.31,0.30,-0.28,
1.67,-1.21,-5.57,-0.97,-0.37,0.24,-0.18,
1.671,-1.21,-5.57,-0.97,-0.44,0.20,-0.09,
1.671,-1.73,-3.03,-0.20,-0.44,0.20,-0.09,
1.672,-1.73,-3.03,-0.20,-0.54,0.15,0.03,
1.672,-1.73,-3.03,-0.20,-0.57,0.12,0.06,
1.673,-1.73,-3.03,-0.20,-0.62,0.06,0.11,
1.673,-1.73,-3.03,-0.20,-0.66,0.00,0.15,
1.674,-1.73,-3.03,-0.20,-0.69,-0.05,0.19,
1.674,0.27,-0.99,0.57,-0.69,-0.05,0.19,
1.674,0.27,-0.99,0.57,-0.72,-0.14,0.22,
1.675,0.27,-0.99,0.57,-0.73,-0.17,0.24,
1.675,0.27,-0.99,0.57,-0.73,-0.21,0.25,
1.676,0.27,-0.99,0.57,-0.73,-0.23,0.28,
1.676,0.27,-0.99,0.57,-0.73,-0.23,0.31,
1.677,0.34,-0.29,0.44,-0.73,-0.23,0.31,
1.677,0.34,-0.29,0.44,-0.75,-0.14,0.44,
1.677,0.34,-0.29,0.44,-0.75,-0.12,0.47,
1.678,0.34,-0.29,0.44,-0.75,-0.08,0.53,
1.685,0.34,-0.29,0.44,-0.72,-0.06,0.57,
1.686,0.34,-0.29,0.44,-0.69,-0.05,0.59,
1.686,0.30,-0.18,-0.32,-0.69,-0.05,0.59,
1.687,0.30,-0.18,-0.32,-0.61,-0.03,0.59,
1.687,0.30,-0.18,-0.32,-0.57,-0.03,0.59,
1.692,0.30,-0.18,-0.32,-0.50,-0.02,0.57,
1.692,0.30,-0.18,-0.32,-0.42,-0.00,0.56,
1.693,0.30,-0.18,-0.32,-0.33,0.02,0.54,
1.697,0.88,0.63,0.27,-0.33,0.02,0.54,
1.698,0.88,0.63,0.27,-0.20,0.07,0.51,
1.698,0.88,0.63,0.27,-0.16,0.08,0.50,
1.699,0.88,0.63,0.27,-0.07,0.11,0.48,
1.703,0.88,0.63,0.27,0.01,0.13,0.46,
1.703,0.88,0.63,0.27,0.08,0.15,0.44,
1.704,0.47,0.53,0.27,0.08,0.15,0.44,
1.705,0.47,0.53,0.27,0.17,0.18,0.41,
1.71,0.47,0.53,0.27,0.22,0.18,0.39,
1.71,0.47,0.53,0.27,0.25,0.18,0.39,
1.711,0.47,0.53,0.27,0.29,0.17,0.37,
1.712,0.47,0.53,0.27,0.32,0.16,0.34,
1.715,0.37,0.09,0.37,0.32,0.16,0.34,
1.716,0.37,0.09,0.37,0.35,0.13,0.31,
1.717,0.37,0.09,0.37,0.35,0.11,0.30,
1.72,0.37,0.09,0.37,0.35,0.08,0.28,
1.721,0.37,0.09,0.37,0.34,0.06,0.25,
1.724,0.37,0.09,0.37,0.32,0.04,0.23,
1.725,0.39,-0.33,0.23,0.32,0.04,0.23,
1.725,0.39,-0.33,0.23,0.28,0.01,0.20,
1.726,0.39,-0.33,0.23,0.27,0.00,0.19,
1.728,0.39,-0.33,0.23,0.23,-0.01,0.17,
1.73,0.39,-0.33,0.23,0.19,-0.02,0.15,
1.734,0.39,-0.33,0.23,0.15,-0.03,0.14,
1.736,0.38,-0.58,-0.10,0.15,-0.03,0.14,
1.736,0.38,-0.58,-0.10,0.09,-0.04,0.12,
1.737,0.38,-0.58,-0.10,0.07,-0.04,0.12,
1.738,0.38,-0.58,-0.10,0.04,-0.05,0.11,
1.741,0.38,-0.58,-0.10,0.01,-0.05,0.10,
1.742,0.38,-0.58,-0.10,-0.01,-0.05,0.08,
1.744,0.37,-0.68,-0.11,-0.01,-0.05,0.08,
1.747,0.37,-0.68,-0.11,-0.02,-0.05,0.06,
1.748,0.37,-0.68,-0.11,-0.02,-0.05,0.05,
1.752,0.37,-0.68,-0.11,-0.01,-0.06,0.03,
1.753,0.37,-0.68,-0.11,-0.00,-0.06,0.01,
1.753,0.37,-0.68,-0.11,0.01,-0.06,-0.00,
1.754,0.05,-0.73,0.06,0.01,-0.06,-0.00,
1.755,0.05,-0.73,0.06,0.03,-0.06,-0.03,
1.756,0.05,-0.73,0.06,0.04,-0.06,-0.04,
1.76,0.05,-0.73,0.06,0.05,-0.06,-0.05,
1.761,0.05,-0.73,0.06,0.06,-0.06,-0.06,
1.764,0.05,-0.73,0.06,0.08,-0.06,-0.07,
1.765,-0.18,-0.73,-0.06,0.08,-0.06,-0.07,
1.765,-0.18,-0.73,-0.06,0.09,-0.06,-0.08,
1.769,-0.18,-0.73,-0.06,0.09,-0.06,-0.08,
1.77,-0.18,-0.73,-0.06,0.09,-0.06,-0.08,
1.771,-0.18,-0.73,-0.06,0.09,-0.06,-0.08,
1.773,-0.18,-0.73,-0.06,0.09,-0.06,-0.08,
1.775,-0.09,-0.61,-0.22,0.09,-0.06,-0.08,
1.775,-0.09,-0.61,-0.22,0.07,-0.06,-0.08,
1.777,-0.09,-0.61,-0.22,0.07,-0.06,-0.08,
1.778,-0.09,-0.61,-0.22,0.06,-0.05,-0.07,
1.78,-0.09,-0.61,-0.22,0.04,-0.03,-0.06,
1.782,-0.09,-0.61,-0.22,0.03,-0.02,-0.04,
1.784,0.01,-0.56,-0.26,0.03,-0.02,-0.04,
1.785,0.01,-0.56,-0.26,0.01,0.01,-0.01,
1.787,0.01,-0.56,-0.26,-0.00,0.02,0.00,
1.788,0.01,-0.56,-0.26,-0.02,0.03,0.03,
1.79,0.01,-0.56,-0.26,-0.03,0.05,0.05,
1.792,0.01,-0.56,-0.26,-0.04,0.05,0.06,
1.795,-0.00,-0.47,-0.15,-0.04,0.05,0.06,
1.796,-0.00,-0.47,-0.15,-0.05,0.05,0.08,
1.796,-0.00,-0.47,-0.15,-0.06,0.05,0.08,
1.804,-0.00,-0.47,-0.15,-0.06,0.05,0.09,
1.805,-0.00,-0.47,-0.15,-0.06,0.07,0.09,
1.806,-0.00,-0.47,-0.15,-0.06,0.09,0.09,
1.807,-0.05,-0.44,-0.09,-0.06,0.09,0.09,
1.807,-0.05,-0.44,-0.09,-0.06,0.12,0.09,
1.808,-0.05,-0.44,-0.09,-0.06,0.13,0.09,
1.859,-0.05,-0.44,-0.09,-0.06,0.14,0.09,
1.861,-0.05,-0.44,-0.09,-0.06,0.15,0.09,
1.862,-0.05,-0.44,-0.09,-0.05,0.16,0.08,
1.863,-0.11,-0.54,-0.04,-0.05,0.16,0.08,
1.864,-0.11,-0.54,-0.04,-0.05,0.15,0.07,
1.865,-0.11,-0.54,-0.04,-0.05,0.15,0.07,
1.865,-0.11,-0.54,-0.04,-0.05,0.14,0.06,
1.865,-0.11,-0.54,-0.04,-0.04,0.12,0.05,
1.866,-0.11,-0.54,-0.04,-0.05,0.10,0.04,
1.866,-0.26,-0.77,0.13,-0.05,0.10,0.04,
1.867,-0.26,-0.77,0.13,-0.06,0.07,0.02,
1.867,-0.26,-0.77,0.13,-0.07,0.06,0.01,
1.867,-0.26,-0.77,0.13,-0.09,0.04,-0.00,
1.868,-0.26,-0.77,0.13,-0.10,0.02,-0.01,
1.868,-0.26,-0.77,0.13,-0.12,-0.00,-0.02,
1.869,-0.32,-0.94,0.08,-0.12,-0.00,-0.02,
1.869,-0.32,-0.94,0.08,-0.15,-0.02,-0.02,
1.869,-0.32,-0.94,0.08,-0.16,-0.03,-0.02,
1.87,-0.32,-0.94,0.08,-0.17,-0.03,-0.02,
1.87,-0.32,-0.94,0.08,-0.18,-0.03,-0.01,
1.87,-0.32,-0.94,0.08,-0.19,-0.02,-0.00,
1.871,-0.34,-0.87,0.06,-0.19,-0.02,-0.00,
1.871,-0.34,-0.87,0.06,-0.19,-0.02,0.01,
1.872,-0.34,-0.87,0.06,-0.19,-0.01,0.01,
1.872,-0.34,-0.87,0.06,-0.18,0.00,0.02,
1.872,-0.34,-0.87,0.06,-0.17,0.01,0.02,
1.873,-0.34,-0.87,0.06,-0.15,0.03,0.03,
1.873,-0.29,-0.80,0.16,-0.15,0.03,0.03,
1.874,-0.29,-0.80,0.16,-0.12,0.05,0.03,
1.874,-0.29,-0.80,0.16,-0.11,0.05,0.03,
1.874,-0.29,-0.80,0.16,-0.09,0.07,0.03,
1.875,-0.29,-0.80,0.16,-0.06,0.09,0.03,
1.875,-0.29,-0.80,0.16,-0.04,0.10,0.03,
1.875,-0.34,-0.71,0.04,-0.04,0.10,0.03,
1.876,-0.34,-0.71,0.04,-0.03,0.13,0.02,
1.876,-0.34,-0.71,0.04,-0.02,0.13,0.01,
1.877,-0.34,-0.71,0.04,-0.00,0.15,0.01,
1.877,-0.34,-0.71,0.04,0.00,0.17,0.01,
1.877,-0.34,-0.71,0.04,0.00,0.18,0.00,
1.878,-0.41,-0.69,-0.04,0.00,0.18,0.00,
1.878,-0.41,-0.69,-0.04,0.02,0.19,0.01,
1.879,-0.41,-0.69,-0.04,0.02,0.19,0.01,
1.879,-0.41,-0.69,-0.04,0.02,0.20,0.01,
1.888,-0.41,-0.69,-0.04,0.02,0.20,0.02,
1.889,-0.41,-0.69,-0.04,0.02,0.20,0.03,
1.889,-0.57,-0.56,0.08,0.02,0.20,0.03,
1.889,-0.57,-0.56,0.08,0.02,0.20,0.05,
1.89,-0.57,-0.56,0.08,0.02,0.20,0.05,
1.89,-0.57,-0.56,0.08,0.01,0.20,0.06,
1.89,-0.57,-0.56,0.08,0.01,0.20,0.07,
1.894,-0.57,-0.56,0.08,-0.00,0.21,0.08,
1.895,-0.54,-0.52,-0.03,-0.00,0.21,0.08,
1.895,-0.54,-0.52,-0.03,-0.01,0.21,0.10,
1.898,-0.54,-0.52,-0.03,-0.02,0.21,0.10,
1.899,-0.54,-0.52,-0.03,-0.02,0.22,0.11,
1.903,-0.54,-0.52,-0.03,-0.03,0.23,0.12,
1.904,-0.54,-0.52,-0.03,-0.04,0.23,0.13,
1.904,-0.50,-0.52,-0.09,-0.04,0.23,0.13,
1.905,-0.50,-0.52,-0.09,-0.05,0.23,0.14,
1.908,-0.50,-0.52,-0.09,-0.05,0.23,0.15,
1.909,-0.50,-0.52,-0.09,-0.06,0.23,0.16,
1.912,-0.50,-0.52,-0.09,-0.07,0.23,0.16,
1.913,-0.50,-0.52,-0.09,-0.07,0.23,0.17,
1.917,-0.48,-0.46,-0.08,-0.07,0.23,0.17,
1.918,-0.48,-0.46,-0.08,-0.09,0.23,0.18,
1.918,-0.48,-0.46,-0.08,-0.09,0.24,0.18,
1.918,-0.48,-0.46,-0.08,-0.09,0.23,0.19,
1.923,-0.48,-0.46,-0.08,-0.09,0.23,0.19,
1.929,-0.48,-0.46,-0.08,-0.10,0.23,0.20,
1.93,-0.43,-0.37,-0.05,-0.10,0.23,0.20,
1.93,-0.43,-0.37,-0.05,-0.10,0.23,0.21,
1.93,-0.43,-0.37,-0.05,-0.11,0.23,0.21,
1.931,-0.43,-0.37,-0.05,-0.12,0.22,0.21,
1.931,-0.43,-0.37,-0.05,-0.13,0.22,0.20,
1.949,-0.43,-0.37,-0.05,-0.14,0.22,0.20,
1.95,-0.26,-0.49,-0.06,-0.14,0.22,0.20,
1.951,-0.26,-0.49,-0.06,-0.16,0.21,0.19,
1.951,-0.26,-0.49,-0.06,-0.16,0.21,0.18,
1.951,-0.26,-0.49,-0.06,-0.17,0.21,0.17,
1.952,-0.26,-0.49,-0.06,-0.18,0.20,0.16,
1.952,-0.26,-0.49,-0.06,-0.19,0.20,0.15,
1.952,-0.19,-0.46,0.01,-0.19,0.20,0.15,
1.952,-0.19,-0.46,0.01,-0.20,0.19,0.12,
1.953,-0.19,-0.46,0.01,-0.20,0.19,0.11,
1.953,-0.19,-0.46,0.01,-0.21,0.18,0.10,
1.953,-0.19,-0.46,0.01,-0.22,0.17,0.07,
1.954,-0.19,-0.46,0.01,-0.23,0.16,0.05,
1.964,-0.28,-0.08,0.03,-0.23,0.16,0.05,
1.965,-0.28,-0.08,0.03,-0.26,0.15,0.04,
1.965,-0.28,-0.08,0.03,-0.27,0.14,0.03,
1.965,-0.28,-0.08,0.03,-0.29,0.14,0.04,
1.966,-0.28,-0.08,0.03,-0.30,0.13,0.05,
1.966,-0.28,-0.08,0.03,-0.32,0.13,0.07,
1.966,-0.73,1.02,0.03,-0.32,0.13,0.07,
1.967,-0.73,1.02,0.03,-0.35,0.12,0.13,
1.967,-0.73,1.02,0.03,-0.36,0.12,0.16,
1.98,-0.73,1.02,0.03,-0.38,0.11,0.22,
1.981,-0.73,1.02,0.03,-0.41,0.11,0.29,
1.981,-0.73,1.02,0.03,-0.44,0.12,0.36,
1.982,-1.61,3.10,0.09,-0.44,0.12,0.36,
2.011,-1.61,3.10,0.09,-0.48,0.10,0.44,
2.012,-1.61,3.10,0.09,-0.50,0.05,0.44,
2.013,-1.61,3.10,0.09,-0.51,-0.05,0.45,
2.013,-1.61,3.10,0.09,-0.50,-0.10,0.45,
2.014,-1.61,3.10,0.09,-0.49,-0.14,0.45,
2.014,-0.78,5.61,0.49,-0.49,-0.14,0.45,
2.015,-0.78,5.61,0.49,-0.47,-0.17,0.41,
2.015,-0.78,5.61,0.49,-0.45,-0.17,0.40,
2.016,-0.78,5.61,0.49,-0.41,-0.17,0.37,
2.016,-0.78,5.61,0.49,-0.36,-0.16,0.34,
2.016,-0.78,5.61,0.49,-0.31,-0.16,0.30,
2.017,-0.66,5.43,0.77,-0.31,-0.16,0.30,
2.017,-0.66,5.43,0.77,-0.23,-0.15,0.26,
2.018,-0.66,5.43,0.77,-0.20,-0.15,0.25,
2.018,-0.66,5.43,0.77,-0.14,-0.14,0.22,
2.019,-0.66,5.43,0.77,-0.08,-0.14,0.20,
2.019,-0.66,5.43,0.77,-0.03,-0.14,0.19,
2.02,-0.92,5.27,0.61,-0.03,-0.14,0.19,
2.02,-0.92,5.27,0.61,0.05,-0.16,0.18,
2.02,-0.92,5.27,0.61,0.07,-0.16,0.18,
2.021,-0.92,5.27,0.61,0.12,-0.18,0.18,
2.021,-0.92,5.27,0.61,0.17,-0.20,0.19,
2.022,-0.92,5.27,0.61,0.21,-0.22,0.20,
2.022,-1.25,4.72,0.70,0.21,-0.22,0.20,
2.023,-1.25,4.72,0.70,0.27,-0.25,0.22,
2.023,-1.25,4.72,0.70,0.29,-0.26,0.23,
2.023,-1.25,4.72,0.70,0.34,-0.28,0.25,
2.024,-1.25,4.72,0.70,0.37,-0.30,0.27,
2.024,-1.25,4.72,0.70,0.39,-0.32,0.29,
2.025,-1.22,3.20,0.68,0.39,-0.32,0.29,
2.025,-1.22,3.20,0.68,0.43,-0.37,0.33,
2.026,-1.22,3.20,0.68,0.44,-0.38,0.34,
2.031,-1.22,3.20,0.68,0.46,-0.40,0.37,
2.032,-1.22,3.20,0.68,0.47,-0.42,0.41,
2.032,-1.22,3.20,0.68,0.46,-0.43,0.44,
2.044,-1.22,1.93,0.27,0.46,-0.43,0.44,
2.045,-1.22,1.93,0.27,0.45,-0.45,0.48,
2.045,-1.22,1.93,0.27,0.44,-0.46,0.49,
2.046,-1.22,1.93,0.27,0.43,-0.47,0.51,
2.046,-1.22,1.93,0.27,0.41,-0.48,0.52,
2.047,-1.22,1.93,0.27,0.39,-0.48,0.54,
2.047,-0.87,1.04,-0.18,0.39,-0.48,0.54,
2.047,-0.87,1.04,-0.18,0.36,-0.47,0.56,
2.048,-0.87,1.04,-0.18,0.35,-0.47,0.57,
2.048,-0.87,1.04,-0.18,0.33,-0.46,0.59,
2.06,-0.87,1.04,-0.18,0.32,-0.45,0.61,
2.061,-0.87,1.04,-0.18,0.30,-0.44,0.63,
2.062,-0.73,0.37,-0.39,0.30,-0.44,0.63,
2.062,-0.73,0.37,-0.39,0.27,-0.42,0.67,
2.063,-0.73,0.37,-0.39,0.25,-0.40,0.70,
2.063,-0.73,0.37,-0.39,0.24,-0.39,0.72,
2.064,-0.73,0.37,-0.39,0.23,-0.37,0.76,
2.064,-0.73,0.37,-0.39,0.23,-0.35,0.81,
2.064,-1.01,-0.45,-0.45,0.23,-0.35,0.81,
2.087,-1.01,-0.45,-0.45,0.19,-0.34,0.88,
2.092,-1.01,-0.45,-0.45,0.18,-0.34,0.90,
2.092,-1.01,-0.45,-0.45,0.16,-0.36,0.95,
2.093,-1.01,-0.45,-0.45,0.14,-0.39,1.00,
2.093,-1.01,-0.45,-0.45,0.11,-0.43,1.06,
2.093,-1.29,-1.23,-0.93,0.11,-0.43,1.06,
2.094,-1.29,-1.23,-0.93,0.05,-0.51,1.13,
2.094,-1.29,-1.23,-0.93,0.03,-0.52,1.16,
2.094,-1.29,-1.23,-0.93,0.00,-0.56,1.22,
2.095,-1.29,-1.23,-0.93,-0.02,-0.60,1.28,
2.095,-1.29,-1.23,-0.93,-0.04,-0.62,1.35,
2.095,-1.60,-1.33,-0.72,-0.04,-0.62,1.35,
2.096,-1.60,-1.33,-0.72,-0.06,-0.64,1.44,
2.096,-1.60,-1.33,-0.72,-0.06,-0.65,1.47,
2.096,-1.60,-1.33,-0.72,-0.07,-0.69,1.54,
2.097,-1.60,-1.33,-0.72,-0.07,-0.71,1.61,
2.097,-1.60,-1.33,-0.72,-0.07,-0.72,1.68,
2.097,-1.88,-0.75,-0.09,-0.07,-0.72,1.68,
2.098,-1.88,-0.75,-0.09,-0.03,-0.69,1.77,
2.098,-1.88,-0.75,-0.09,-0.01,-0.68,1.80,
2.107,-1.88,-0.75,-0.09,0.03,-0.66,1.87,
2.108,-1.88,-0.75,-0.09,0.07,-0.66,1.92,
2.108,-1.88,-0.75,-0.09,0.11,-0.65,1.97,
2.108,-1.62,-0.34,0.42,0.11,-0.65,1.97,
2.109,-1.62,-0.34,0.42,0.21,-0.64,2.03,
2.109,-1.62,-0.34,0.42,0.23,-0.65,2.06,
2.109,-1.62,-0.34,0.42,0.28,-0.65,2.09,
2.11,-1.62,-0.34,0.42,0.33,-0.66,2.12,
2.112,-1.62,-0.34,0.42,0.38,-0.69,2.14,
2.12,-0.73,0.19,0.48,0.38,-0.69,2.14,
2.12,-0.73,0.19,0.48,0.45,-0.72,2.18,
2.121,-0.73,0.19,0.48,0.47,-0.75,2.19,
2.121,-0.73,0.19,0.48,0.50,-0.79,2.20,
2.121,-0.73,0.19,0.48,0.53,-0.84,2.20,
2.124,-0.73,0.19,0.48,0.55,-0.89,2.20,
2.125,-0.41,0.29,0.39,0.55,-0.89,2.20,
2.125,-0.41,0.29,0.39,0.60,-0.96,2.20,
2.126,-0.41,0.29,0.39,0.61,-0.99,2.20,
2.128,-0.41,0.29,0.39,0.63,-1.03,2.19,
2.136,-0.41,0.29,0.39,0.64,-1.05,2.16,
2.136,-0.41,0.29,0.39,0.67,-1.07,2.14,
2.136,-0.02,0.30,0.25,0.67,-1.07,2.14,
2.137,-0.02,0.30,0.25,0.69,-1.07,2.09,
2.137,-0.02,0.30,0.25,0.69,-1.06,2.07,
2.138,-0.02,0.30,0.25,0.70,-1.03,2.02,
2.14,-0.02,0.30,0.25,0.71,-0.98,1.97,
2.166,-0.02,0.30,0.25,0.69,-0.93,1.93,
2.166,0.21,1.16,0.14,0.69,-0.93,1.93,
2.167,0.21,1.16,0.14,0.66,-0.85,1.83,
2.167,0.21,1.16,0.14,0.64,-0.82,1.79,
2.168,0.21,1.16,0.14,0.58,-0.75,1.74,
2.168,0.21,1.16,0.14,0.54,-0.66,1.70,
2.169,0.21,1.16,0.14,0.47,-0.58,1.66,
2.169,0.35,1.02,-0.32,0.47,-0.58,1.66,
2.169,0.35,1.02,-0.32,0.39,-0.49,1.61,
2.17,0.35,1.02,-0.32,0.35,-0.47,1.60,
2.17,0.35,1.02,-0.32,0.28,-0.48,1.58,
2.171,0.35,1.02,-0.32,0.21,-0.52,1.56,
2.171,0.35,1.02,-0.32,0.16,-0.60,1.54,
2.172,0.11,-0.31,-0.34,0.16,-0.60,1.54,
2.172,0.11,-0.31,-0.34,0.15,-0.77,1.51,
2.173,0.11,-0.31,-0.34,0.15,-0.83,1.50,
2.173,0.11,-0.31,-0.34,0.16,-0.94,1.47,
2.173,0.11,-0.31,-0.34,0.19,-1.03,1.45,
2.174,0.11,-0.31,-0.34,0.19,-1.13,1.43,
2.174,-0.34,-0.71,0.68,0.19,-1.13,1.43,
2.175,-0.34,-0.71,0.68,0.22,-1.26,1.41,
2.179,-0.34,-0.71,0.68,0.23,-1.29,1.40,
2.18,-0.34,-0.71,0.68,0.24,-1.35,1.39,
2.18,-0.34,-0.71,0.68,0.25,-1.39,1.40,
2.182,-0.34,-0.71,0.68,0.24,-1.43,1.40,
2.184,-0.21,-1.62,0.13,0.24,-1.43,1.40,
2.185,-0.21,-1.62,0.13,0.22,-1.50,1.42,
2.186,-0.21,-1.62,0.13,0.19,-1.52,1.43,
2.188,-0.21,-1.62,0.13,0.15,-1.55,1.46,
2.19,-0.21,-1.62,0.13,0.12,-1.57,1.49,
2.192,-0.21,-1.62,0.13,0.08,-1.57,1.53,
2.194,-0.80,-2.30,-0.26,0.08,-1.57,1.53,
2.195,-0.80,-2.30,-0.26,0.06,-1.52,1.57,
2.197,-0.80,-2.30,-0.26,0.05,-1.49,1.58,
2.198,-0.80,-2.30,-0.26,0.04,-1.43,1.59,
2.201,-0.80,-2.30,-0.26,0.03,-1.37,1.60,
2.202,-0.80,-2.30,-0.26,0.04,-1.32,1.60,
2.204,-0.65,-2.40,-0.50,0.04,-1.32,1.60,
2.205,-0.65,-2.40,-0.50,0.08,-1.27,1.61,
2.206,-0.65,-2.40,-0.50,0.10,-1.28,1.61,
2.208,-0.65,-2.40,-0.50,0.20,-1.43,1.58,
2.212,-0.65,-2.40,-0.50,0.31,-1.64,1.53,
2.213,-0.65,-2.40,-0.50,0.37,-1.73,1.51,
2.22,0.18,-0.71,0.66,0.37,-1.73,1.51,
2.221,0.18,-0.71,0.66,0.44,-1.82,1.47,
2.221,0.18,-0.71,0.66,0.48,-1.87,1.46,
2.221,0.18,-0.71,0.66,0.55,-1.93,1.43,
2.222,0.18,-0.71,0.66,0.59,-1.93,1.42,
2.225,0.18,-0.71,0.66,0.62,-1.89,1.41,
2.225,0.11,0.38,0.02,0.62,-1.89,1.41,
2.225,0.11,0.38,0.02,0.64,-1.80,1.40,
2.228,0.11,0.38,0.02,0.63,-1.77,1.40,
2.228,0.11,0.38,0.02,0.63,-1.69,1.40,
2.238,0.11,0.38,0.02,0.62,-1.61,1.40,
2.238,0.11,0.38,0.02,0.59,-1.52,1.41,
2.239,-0.13,0.50,-0.92,0.59,-1.52,1.41,
2.239,-0.13,0.50,-0.92,0.53,-1.37,1.42,
2.239,-0.13,0.50,-0.92,0.51,-1.33,1.42,
2.24,-0.13,0.50,-0.92,0.45,-1.24,1.42,
2.24,-0.13,0.50,-0.92,0.41,-1.14,1.42,
2.242,-0.13,0.50,-0.92,0.36,-1.05,1.43,
2.244,-0.26,0.15,-1.06,0.36,-1.05,1.43,
2.248,-0.26,0.15,-1.06,0.28,-0.93,1.43,
2.248,-0.26,0.15,-1.06,0.26,-0.90,1.44,
2.25,-0.26,0.15,-1.06,0.22,-0.85,1.45,
2.251,-0.26,0.15,-1.06,0.17,-0.80,1.46,
2.253,-0.26,0.15,-1.06,0.15,-0.77,1.48,
2.254,-0.34,0.03,-0.38,0.15,-0.77,1.48,
2.27,-0.34,0.03,-0.38,0.14,-0.75,1.49,
2.271,-0.34,0.03,-0.38,0.14,-0.75,1.49,
2.272,-0.34,0.03,-0.38,0.14,-0.76,1.51,
2.272,-0.34,0.03,-0.38,0.12,-0.84,1.56,
2.273,-0.34,0.03,-0.38,0.10,-0.95,1.64,
2.273,-0.63,-4.43,-0.35,0.10,-0.95,1.64,
2.273,-0.63,-4.43,-0.35,0.12,-1.11,1.80,
2.274,-0.63,-4.43,-0.35,0.12,-1.16,1.86,
2.274,-0.63,-4.43,-0.35,0.14,-1.24,2.01,
2.274,-0.63,-4.43,-0.35,0.17,-1.31,2.18,
2.275,-0.63,-4.43,-0.35,0.19,-1.40,2.36,
2.275,-1.84,-10.02,-0.33,0.19,-1.40,2.36,
2.276,-1.84,-10.02,-0.33,0.25,-1.43,2.59,
2.276,-1.84,-10.02,-0.33,0.31,-1.40,2.65,
2.278,-1.84,-10.02,-0.33,0.43,-1.34,2.83,
2.28,-1.84,-10.02,-0.33,0.43,-1.35,2.99,
2.282,-1.84,-10.02,-0.33,0.39,-1.31,3.11,
2.286,-0.45,-13.89,-0.85,0.39,-1.31,3.11,
2.287,-0.45,-13.89,-0.85,0.35,-1.31,3.24,
2.287,-0.45,-13.89,-0.85,0.35,-1.34,3.29,
2.288,-0.45,-13.89,-0.85,0.35,-1.40,3.40,
2.29,-0.45,-13.89,-0.85,0.35,-1.44,3.49,
2.292,-0.45,-13.89,-0.85,0.35,-1.47,3.54,
2.297,4.87,-9.06,-1.30,0.35,-1.47,3.54,
2.298,4.87,-9.06,-1.30,0.33,-1.48,3.53,
2.299,4.87,-9.06,-1.30,0.32,-1.47,3.50,
2.299,4.87,-9.06,-1.30,0.31,-1.42,3.39,
2.301,4.87,-9.06,-1.30,0.29,-1.34,3.24,
2.302,4.87,-9.06,-1.30,0.28,-1.22,3.07,
2.304,9.12,-3.84,-0.63,0.28,-1.22,3.07,
2.305,9.12,-3.84,-0.63,0.26,-0.99,2.82,
2.306,9.12,-3.84,-0.63,0.25,-0.90,2.75,
2.334,9.12,-3.84,-0.63,0.23,-0.71,2.62,
2.335,9.12,-3.84,-0.63,0.21,-0.54,2.52,
2.335,9.12,-3.84,-0.63,0.19,-0.38,2.45,
2.336,5.01,-1.91,-0.56,0.19,-0.38,2.45,
2.336,5.01,-1.91,-0.56,0.18,-0.18,2.37,
2.337,5.01,-1.91,-0.56,0.17,-0.13,2.35,
2.337,5.01,-1.91,-0.56,0.16,-0.06,2.31,
2.338,5.01,-1.91,-0.56,0.16,-0.02,2.28,
2.338,5.01,-1.91,-0.56,0.15,-0.00,2.25,
2.338,-0.08,-1.35,0.04,0.15,-0.00,2.25,
2.339,-0.08,-1.35,0.04,0.15,-0.05,2.23,
2.339,-0.08,-1.35,0.04,0.16,-0.08,2.23,
2.34,-0.08,-1.35,0.04,0.16,-0.17,2.23,
2.34,-0.08,-1.35,0.04,0.17,-0.26,2.23,
2.341,-0.08,-1.35,0.04,0.17,-0.36,2.23,
2.341,-2.86,-0.48,0.45,0.17,-0.36,2.23,
2.341,-2.86,-0.48,0.45,0.19,-0.53,2.24,
2.342,-2.86,-0.48,0.45,0.19,-0.59,2.24,
2.342,-2.86,-0.48,0.45,0.22,-0.72,2.25,
2.343,-2.86,-0.48,0.45,0.27,-0.90,2.24,
2.343,-2.86,-0.48,0.45,0.32,-1.02,2.21,
2.349,-2.92,-0.03,0.57,0.32,-1.02,2.21,
2.35,-2.92,-0.03,0.57,0.37,-1.09,2.15,
2.35,-2.92,-0.03,0.57,0.39,-1.10,2.12,
2.359,-2.92,-0.03,0.57,0.41,-0.95,2.00,
2.36,-2.92,-0.03,0.57,0.39,-0.80,1.91,
2.36,-2.92,-0.03,0.57,0.39,-0.80,1.91,
2.361,-1.24,1.32,-0.59,0.39,-0.80,1.91,
2.361,-1.24,1.32,-0.59,0.35,-0.49,1.74,
2.362,-1.24,1.32,-0.59,0.33,-0.39,1.67,
2.362,-1.24,1.32,-0.59,0.28,-0.21,1.54,
2.363,-1.24,1.32,-0.59,0.22,-0.04,1.40,
2.363,-1.24,1.32,-0.59,0.16,0.09,1.26,
2.385,0.19,1.46,-1.21,0.16,0.09,1.26,
2.386,0.19,1.46,-1.21,0.09,0.24,1.07,
2.386,0.19,1.46,-1.21,0.07,0.28,1.01,
2.387,0.19,1.46,-1.21,0.02,0.33,0.89,
2.387,0.19,1.46,-1.21,-0.01,0.36,0.78,
2.388,0.19,1.46,-1.21,-0.05,0.35,0.68,
2.388,-0.22,0.00,-0.47,-0.05,0.35,0.68,
2.388,-0.22,0.00,-0.47,-0.08,0.31,0.54,
2.389,-0.22,0.00,-0.47,-0.09,0.29,0.50,
2.389,-0.22,0.00,-0.47,-0.10,0.24,0.41,
2.389,-0.22,0.00,-0.47,-0.10,0.18,0.33,
2.39,-0.22,0.00,-0.47,-0.09,0.12,0.25,
2.39,-0.84,-1.91,0.34,-0.09,0.12,0.25,
2.391,-0.84,-1.91,0.34,-0.09,0.02,0.14,
2.391,-0.84,-1.91,0.34,-0.09,-0.01,0.11,
2.391,-0.84,-1.91,0.34,-0.09,-0.06,0.04,
2.392,-0.84,-1.91,0.34,-0.09,-0.12,-0.03,
2.392,-0.84,-1.91,0.34,-0.08,-0.16,-0.09,
2.397,-0.30,-2.62,0.35,-0.08,-0.16,-0.09,
2.398,-0.30,-2.62,0.35,-0.06,-0.21,-0.19,
2.398,-0.30,-2.62,0.35,-0.05,-0.22,-0.22,
2.399,-0.30,-2.62,0.35,-0.03,-0.23,-0.27,
2.423,-0.30,-2.62,0.35,0.00,-0.24,-0.33,
2.424,-0.30,-2.62,0.35,0.03,-0.23,-0.39,
2.424,0.15,-3.05,0.38,0.03,-0.23,-0.39,
2.424,0.15,-3.05,0.38,0.04,-0.22,-0.48,
2.425,0.15,-3.05,0.38,0.06,-0.20,-0.55,
2.425,0.15,-3.05,0.38,0.06,-0.19,-0.58,
2.425,0.15,-3.05,0.38,0.05,-0.18,-0.65,
2.426,0.15,-3.05,0.38,0.03,-0.17,-0.73,
2.426,0.55,-2.17,-0.14,0.03,-0.17,-0.73,
2.426,0.55,-2.17,-0.14,0.00,-0.16,-0.84,
2.426,0.55,-2.17,-0.14,-0.01,-0.16,-0.87,
2.427,0.55,-2.17,-0.14,-0.05,-0.16,-0.95,
2.427,0.55,-2.17,-0.14,-0.09,-0.16,-1.02,
2.427,0.55,-2.17,-0.14,-0.13,-0.14,-1.11,
2.428,0.67,-0.18,-0.78,-0.13,-0.14,-1.11,
2.428,0.67,-0.18,-0.78,-0.20,-0.11,-1.23,
2.428,0.67,-0.18,-0.78,-0.22,-0.10,-1.26,
2.429,0.67,-0.18,-0.78,-0.28,-0.11,-1.31,
2.431,0.67,-0.18,-0.78,-0.35,-0.11,-1.36,
2.434,0.67,-0.18,-0.78,-0.39,-0.09,-1.40,
2.437,-0.15,0.32,-0.84,-0.39,-0.09,-1.40,
2.438,-0.15,0.32,-0.84,-0.43,-0.05,-1.41,
2.438,-0.15,0.32,-0.84,-0.44,-0.03,-1.39,
2.439,-0.15,0.32,-0.84,-0.46,-0.01,-1.22,
2.442,-0.15,0.32,-0.84,-0.46,-0.02,-0.98,
2.443,-0.15,0.32,-0.84,-0.45,-0.05,-0.75,
2.446,-2.60,0.95,0.09,-0.45,-0.05,-0.75,
2.447,-2.60,0.95,0.09,-0.41,-0.13,-0.41,
2.447,-2.60,0.95,0.09,-0.39,-0.16,-0.31,
2.452,-2.60,0.95,0.09,-0.35,-0.24,-0.10,
2.453,-2.60,0.95,0.09,-0.30,-0.33,0.08,
2.453,-2.60,0.95,0.09,-0.24,-0.39,0.22,
2.46,-0.74,0.79,0.62,-0.24,-0.39,0.22,
2.461,-0.74,0.79,0.62,-0.16,-0.40,0.32,
2.461,-0.74,0.79,0.62,-0.14,-0.38,0.32,
2.461,-0.74,0.79,0.62,-0.11,-0.31,0.30,
2.462,-0.74,0.79,0.62,-0.09,-0.21,0.26,
2.462,-0.74,0.79,0.62,-0.07,-0.09,0.21,
2.466,1.62,0.35,-0.70,-0.07,-0.09,0.21,
2.467,1.62,0.35,-0.70,-0.05,0.06,0.14,
2.468,1.62,0.35,-0.70,-0.04,0.10,0.11,
2.471,1.62,0.35,-0.70,-0.03,0.16,0.08,
2.472,1.62,0.35,-0.70,-0.02,0.18,0.06,
2.472,1.62,0.35,-0.70,0.00,0.17,0.05,
2.476,0.51,-0.32,-0.54,0.00,0.17,0.05,
2.502,0.51,-0.32,-0.54,0.02,0.12,0.05,
2.502,0.51,-0.32,-0.54,0.03,0.10,0.06,
2.503,0.51,-0.32,-0.54,0.03,0.04,0.07,
2.503,0.51,-0.32,-0.54,0.03,-0.00,0.08,
2.504,0.51,-0.32,-0.54,0.02,-0.04,0.10,
2.504,-0.30,-0.08,-0.27,0.02,-0.04,0.10,
2.505,-0.30,-0.08,-0.27,-0.02,-0.07,0.13,
2.505,-0.30,-0.08,-0.27,-0.04,-0.07,0.14,
2.505,-0.30,-0.08,-0.27,-0.08,-0.08,0.16,
2.506,-0.30,-0.08,-0.27,-0.12,-0.08,0.16,
2.506,-0.30,-0.08,-0.27,-0.16,-0.08,0.17,
2.507,-0.10,-0.37,-0.31,-0.16,-0.08,0.17,
2.507,-0.10,-0.37,-0.31,-0.21,-0.10,0.16,
2.508,-0.10,-0.37,-0.31,-0.21,-0.11,0.15,
2.508,-0.10,-0.37,-0.31,-0.22,-0.13,0.14,
2.508,-0.10,-0.37,-0.31,-0.21,-0.16,0.13,
2.509,-0.10,-0.37,-0.31,-0.19,-0.19,0.12,
2.509,0.06,-1.09,0.53,-0.19,-0.19,0.12,
2.51,0.06,-1.09,0.53,-0.16,-0.22,0.12,
2.51,0.06,-1.09,0.53,-0.15,-0.23,0.12,
2.511,0.06,-1.09,0.53,-0.12,-0.24,0.12,
2.511,0.06,-1.09,0.53,-0.09,-0.26,0.12,
2.517,0.06,-1.09,0.53,-0.06,-0.27,0.11,
2.518,0.06,-1.39,0.64,-0.06,-0.27,0.11,
2.519,0.06,-1.39,0.64,-0.02,-0.27,0.08,
2.519,0.06,-1.39,0.64,-0.00,-0.27,0.07,
2.52,0.06,-1.39,0.64,0.02,-0.27,0.04,
2.52,0.06,-1.39,0.64,0.03,-0.27,0.03,
2.53,0.06,-1.39,0.64,0.04,-0.27,0.02,
2.531,0.42,-0.90,0.17,0.04,-0.27,0.02,
2.531,0.42,-0.90,0.17,0.06,-0.28,0.01,
2.532,0.42,-0.90,0.17,0.07,-0.29,0.01,
2.532,0.42,-0.90,0.17,0.09,-0.30,0.00,
2.532,0.42,-0.90,0.17,0.11,-0.32,-0.00,
2.533,0.42,-0.90,0.17,0.12,-0.32,0.00,
2.546,0.23,-0.36,0.00,0.12,-0.32,0.00,
2.547,0.23,-0.36,0.00,0.12,-0.32,0.01,
2.548,0.23,-0.36,0.00,0.12,-0.31,0.01,
2.548,0.23,-0.36,0.00,0.11,-0.31,0.01,
2.548,0.23,-0.36,0.00,0.10,-0.30,0.01,
2.549,0.23,-0.36,0.00,0.09,-0.30,0.00,
2.549,0.17,-0.59,-0.36,0.09,-0.30,0.00,
2.55,0.17,-0.59,-0.36,0.08,-0.30,-0.01,
2.55,0.17,-0.59,-0.36,0.08,-0.31,-0.01,
2.55,0.17,-0.59,-0.36,0.08,-0.31,-0.02,
2.551,0.17,-0.59,-0.36,0.08,-0.31,-0.03,
2.552,0.17,-0.59,-0.36,0.08,-0.31,-0.04,
2.556,0.02,-0.63,-0.23,0.08,-0.31,-0.04,
2.556,0.02,-0.63,-0.23,0.07,-0.31,-0.04,
2.557,0.02,-0.63,-0.23,0.07,-0.31,-0.03,
2.558,0.02,-0.63,-0.23,0.07,-0.31,-0.03,
2.562,0.02,-0.63,-0.23,0.07,-0.31,-0.02,
2.563,0.02,-0.63,-0.23,0.06,-0.30,-0.01,
2.565,-0.32,-0.41,-0.28,0.06,-0.30,-0.01,
2.566,-0.32,-0.41,-0.28,0.05,-0.29,-0.00,
2.567,-0.32,-0.41,-0.28,0.04,-0.29,0.00,
2.57,-0.32,-0.41,-0.28,0.04,-0.27,0.00,
2.571,-0.32,-0.41,-0.28,0.03,-0.27,0.00,
2.575,-0.32,-0.41,-0.28,0.02,-0.26,0.00,
2.575,-0.35,-0.40,-0.26,0.02,-0.26,0.00,
2.576,-0.35,-0.40,-0.26,0.01,-0.27,0.00,
2.579,-0.35,-0.40,-0.26,0.01,-0.27,0.00,
2.579,-0.35,-0.40,-0.26,0.01,-0.27,-0.00,
2.583,-0.35,-0.40,-0.26,0.01,-0.28,-0.00,
2.584,-0.35,-0.40,-0.26,0.00,-0.28,-0.01,
2.585,-0.38,-0.57,-0.07,0.00,-0.28,-0.01,
2.588,-0.38,-0.57,-0.07,-0.00,-0.28,-0.00,
2.589,-0.38,-0.57,-0.07,-0.01,-0.28,-0.00,
2.589,-0.38,-0.57,-0.07,-0.01,-0.28,-0.00,
2.592,-0.38,-0.57,-0.07,-0.02,-0.28,0.00,
2.593,-0.38,-0.57,-0.07,-0.02,-0.28,0.00,
2.593,-0.41,-0.71,-0.03,-0.02,-0.28,0.00,
2.596,-0.41,-0.71,-0.03,-0.02,-0.27,0.00,
2.597,-0.41,-0.71,-0.03,-0.03,-0.27,0.00,
2.602,-0.41,-0.71,-0.03,-0.03,-0.27,0.00,
2.603,-0.41,-0.71,-0.03,-0.04,-0.26,-0.00,
2.603,-0.41,-0.71,-0.03,-0.05,-0.26,-0.01,
2.604,-0.32,-0.59,-0.05,-0.05,-0.26,-0.01,
2.605,-0.32,-0.59,-0.05,-0.06,-0.26,-0.01,
2.606,-0.32,-0.59,-0.05,-0.07,-0.25,-0.01,
2.608,-0.32,-0.59,-0.05,-0.08,-0.25,-0.00,
2.61,-0.32,-0.59,-0.05,-0.08,-0.25,-0.00,
2.614,-0.32,-0.59,-0.05,-0.08,-0.25,-0.01,
2.615,-0.35,-0.80,0.10,-0.08,-0.25,-0.01,
2.616,-0.35,-0.80,0.10,-0.06,-0.26,-0.01,
2.616,-0.35,-0.80,0.10,-0.06,-0.25,-0.01,
2.623,-0.35,-0.80,0.10,-0.06,-0.25,-0.01,
2.624,-0.35,-0.80,0.10,-0.06,-0.24,-0.01,
2.625,-0.35,-0.80,0.10,-0.07,-0.23,-0.01,
2.625,-0.34,-0.75,-0.02,-0.07,-0.23,-0.01,
2.625,-0.34,-0.75,-0.02,-0.08,-0.23,-0.01,
2.628,-0.34,-0.75,-0.02,-0.08,-0.24,-0.01,
2.629,-0.34,-0.75,-0.02,-0.08,-0.24,-0.01,
2.634,-0.34,-0.75,-0.02,-0.08,-0.25,-0.01,
2.635,-0.34,-0.75,-0.02,-0.08,-0.25,-0.01,
2.635,-0.26,-0.54,0.09,-0.08,-0.25,-0.01,
2.635,-0.26,-0.54,0.09,-0.08,-0.25,-0.01,
2.636,-0.26,-0.54,0.09,-0.08,-0.25,-0.01,
2.638,-0.26,-0.54,0.09,-0.08,-0.25,-0.01,
2.642,-0.26,-0.54,0.09,-0.08,-0.25,-0.02,
2.673,-0.26,-0.54,0.09,-0.08,-0.25,-0.02,
2.674,-0.10,-0.56,0.12,-0.08,-0.25,-0.02,
2.674,-0.10,-0.56,0.12,-0.07,-0.24,-0.02,
2.675,-0.10,-0.56,0.12,-0.08,-0.24,-0.02,
2.675,-0.10,-0.56,0.12,-0.08,-0.24,-0.02,
2.675,-0.10,-0.56,0.12,-0.08,-0.23,-0.02,
2.676,-0.10,-0.56,0.12,-0.08,-0.23,-0.02,
2.676,0.01,-0.54,0.17,-0.08,-0.23,-0.02,
2.677,0.01,-0.54,0.17,-0.08,-0.23,-0.02,
2.677,0.01,-0.54,0.17,-0.08,-0.23,-0.02,
2.678,0.01,-0.54,0.17,-0.08,-0.22,-0.03,
2.678,0.01,-0.54,0.17,-0.08,-0.22,-0.03,
2.678,0.01,-0.54,0.17,-0.08,-0.22,-0.02,
2.679,0.09,-0.53,0.30,-0.08,-0.22,-0.02,
2.679,0.09,-0.53,0.30,-0.07,-0.23,-0.02,
2.68,0.09,-0.53,0.30,-0.07,-0.23,-0.03,
2.68,0.09,-0.53,0.30,-0.07,-0.23,-0.03,
2.681,0.09,-0.53,0.30,-0.07,-0.23,-0.03,
2.681,0.09,-0.53,0.30,-0.07,-0.23,-0.03,
2.682,0.13,-0.45,0.44,-0.07,-0.23,-0.03,
2.682,0.13,-0.45,0.44,-0.06,-0.24,-0.03,
2.682,0.13,-0.45,0.44,-0.06,-0.24,-0.03,
2.683,0.13,-0.45,0.44,-0.06,-0.25,-0.03,
2.683,0.13,-0.45,0.44,-0.06,-0.26,-0.02,
2.684,0.13,-0.45,0.44,-0.05,-0.26,-0.02,
2.684,0.07,-0.34,0.54,-0.05,-0.26,-0.02,
2.689,0.07,-0.34,0.54,-0.05,-0.27,-0.02,
2.69,0.07,-0.34,0.54,-0.05,-0.27,-0.02,
2.69,0.07,-0.34,0.54,-0.03,-0.28,-0.02,
2.691,0.07,-0.34,0.54,-0.03,-0.29,-0.02,
2.694,0.07,-0.34,0.54,-0.02,-0.30,-0.01,
2.695,-0.05,-0.24,0.55,-0.02,-0.30,-0.01,
2.695,-0.05,-0.24,0.55,-0.01,-0.32,-0.01,
2.696,-0.05,-0.24,0.55,0.00,-0.33,-0.01,
2.7,-0.05,-0.24,0.55,0.01,-0.34,0.00,
2.7,-0.05,-0.24,0.55,-0.02,-0.29,0.02,
2.702,-0.05,-0.24,0.55,-0.11,-0.15,0.06,
2.704,-0.31,-0.04,-0.40,-0.11,-0.15,0.06,
2.705,-0.31,-0.04,-0.40,-0.18,-0.08,0.09,
2.708,-0.31,-0.04,-0.40,-0.16,-0.12,0.09,
2.709,-0.31,-0.04,-0.40,-0.12,-0.24,0.08,
2.712,-0.31,-0.04,-0.40,-0.06,-0.34,0.08,
2.713,-0.31,-0.04,-0.40,-0.02,-0.42,0.08,
2.72,-0.12,-0.42,0.89,-0.02,-0.42,0.08,
2.723,-0.12,-0.42,0.89,0.03,-0.47,0.08,
2.723,-0.12,-0.42,0.89,0.04,-0.47,0.08,
2.724,-0.12,-0.42,0.89,0.05,-0.47,0.07,
2.724,-0.12,-0.42,0.89,0.06,-0.45,0.05,
2.724,-0.12,-0.42,0.89,0.07,-0.43,0.03,
2.725,0.01,-0.17,0.19,0.07,-0.43,0.03,
2.725,0.01,-0.17,0.19,0.07,-0.38,0.03,
2.726,0.01,-0.17,0.19,0.07,-0.36,0.04,
2.729,0.01,-0.17,0.19,0.06,-0.33,0.06,
2.731,0.01,-0.17,0.19,0.04,-0.32,0.08,
2.734,0.01,-0.17,0.19,0.01,-0.33,0.09,
2.734,-0.04,-0.47,-0.42,0.01,-0.33,0.09,
2.736,-0.04,-0.47,-0.42,-0.02,-0.38,0.09,
2.74,-0.04,-0.47,-0.42,-0.03,-0.41,0.09,
2.741,-0.04,-0.47,-0.42,-0.04,-0.47,0.07,
2.742,-0.04,-0.47,-0.42,-0.05,-0.54,0.05,
2.742,-0.04,-0.47,-0.42,-0.06,-0.59,0.02,
2.746,0.76,-0.63,-0.38,-0.06,-0.59,0.02,
2.747,0.76,-0.63,-0.38,-0.07,-0.65,-0.02,
2.756,0.76,-0.63,-0.38,-0.06,-0.67,-0.03,
2.756,0.76,-0.63,-0.38,-0.06,-0.69,-0.05,
2.757,0.76,-0.63,-0.38,-0.03,-0.70,-0.08,
2.757,0.76,-0.63,-0.38,0.00,-0.70,-0.09,
2.757,0.44,0.25,-0.11,0.00,-0.70,-0.09,
2.758,0.44,0.25,-0.11,0.04,-0.66,-0.11,
2.758,0.44,0.25,-0.11,0.07,-0.61,-0.11,
2.764,0.44,0.25,-0.11,0.09,-0.55,-0.09,
2.772,0.44,0.25,-0.11,0.10,-0.52,-0.08,
2.772,0.44,0.25,-0.11,0.11,-0.45,-0.06,
2.773,-0.19,-0.26,-0.23,0.11,-0.45,-0.06,
2.773,-0.19,-0.26,-0.23,0.11,-0.36,-0.03,
2.773,-0.19,-0.26,-0.23,0.11,-0.34,-0.02,
2.774,-0.19,-0.26,-0.23,0.09,-0.29,-0.01,
2.774,-0.19,-0.26,-0.23,0.05,-0.24,-0.01,
2.774,-0.19,-0.26,-0.23,0.01,-0.20,-0.03,
2.775,0.60,-0.10,-0.67,0.01,-0.20,-0.03,
2.778,0.60,-0.10,-0.67,-0.04,-0.16,-0.05,
2.778,0.60,-0.10,-0.67,-0.06,-0.15,-0.06,
2.779,0.60,-0.10,-0.67,-0.08,-0.14,-0.06,
2.794,0.60,-0.10,-0.67,-0.09,-0.13,-0.07,
2.795,0.60,-0.10,-0.67,-0.09,-0.13,-0.06,
2.795,0.09,0.10,0.25,-0.09,-0.13,-0.06,
2.795,0.09,0.10,0.25,-0.08,-0.14,-0.04,
2.796,0.09,0.10,0.25,-0.08,-0.14,-0.04,
2.796,0.09,0.10,0.25,-0.07,-0.15,-0.03,
2.796,0.09,0.10,0.25,-0.05,-0.16,-0.02,
2.797,0.09,0.10,0.25,-0.04,-0.17,-0.02,
2.797,-0.50,0.15,0.68,-0.04,-0.17,-0.02,
2.797,-0.50,0.15,0.68,-0.01,-0.19,-0.01,
2.798,-0.50,0.15,0.68,-0.00,-0.19,-0.01,
2.8,-0.50,0.15,0.68,0.02,-0.19,-0.01,
2.801,-0.50,0.15,0.68,0.04,-0.19,-0.01,
2.805,-0.50,0.15,0.68,0.06,-0.18,-0.00,
2.806,-0.33,0.13,0.78,0.06,-0.18,-0.00,
2.806,-0.33,0.13,0.78,0.09,-0.17,0.00,
2.806,-0.33,0.13,0.78,0.10,-0.16,0.01,
2.835,-0.33,0.13,0.78,0.11,-0.15,0.01,
2.835,-0.33,0.13,0.78,0.12,-0.14,0.02,
2.836,-0.33,0.13,0.78,0.13,-0.13,0.02,
2.836,-0.20,-0.04,0.57,0.13,-0.13,0.02,
2.836,-0.20,-0.04,0.57,0.13,-0.12,0.03,
2.837,-0.20,-0.04,0.57,0.13,-0.12,0.03,
2.837,-0.20,-0.04,0.57,0.12,-0.12,0.03,
2.838,-0.20,-0.04,0.57,0.12,-0.13,0.03,
2.838,-0.20,-0.04,0.57,0.11,-0.14,0.03,
2.839,-0.12,-0.29,0.31,0.11,-0.14,0.03,
2.839,-0.12,-0.29,0.31,0.09,-0.16,0.03,
2.839,-0.12,-0.29,0.31,0.09,-0.16,0.03,
2.84,-0.12,-0.29,0.31,0.07,-0.18,0.04,
2.84,-0.12,-0.29,0.31,0.06,-0.20,0.04,
2.841,-0.12,-0.29,0.31,0.04,-0.22,0.04,
2.841,-0.22,-0.55,0.05,0.04,-0.22,0.04,
2.842,-0.22,-0.55,0.05,0.02,-0.24,0.04,
2.842,-0.22,-0.55,0.05,0.02,-0.24,0.04,
2.843,-0.22,-0.55,0.05,0.00,-0.25,0.04,
2.843,-0.22,-0.55,0.05,-0.00,-0.26,0.04,
2.843,-0.22,-0.55,0.05,-0.01,-0.27,0.04,
2.848,-0.18,-0.68,0.09,-0.01,-0.27,0.04,
2.849,-0.18,-0.68,0.09,-0.01,-0.27,0.04,
2.85,-0.18,-0.68,0.09,-0.01,-0.28,0.04,
2.85,-0.18,-0.68,0.09,-0.01,-0.28,0.04,
2.851,-0.18,-0.68,0.09,-0.01,-0.28,0.03,
2.854,-0.18,-0.68,0.09,0.00,-0.28,0.03,
2.855,-0.04,-0.67,0.23,0.00,-0.28,0.03,
2.855,-0.04,-0.67,0.23,0.02,-0.26,0.02,
2.856,-0.04,-0.67,0.23,0.02,-0.25,0.02,
2.86,-0.04,-0.67,0.23,0.03,-0.24,0.01,
2.861,-0.04,-0.67,0.23,0.05,-0.22,0.01,
2.863,-0.04,-0.67,0.23,0.06,-0.21,0.00,
2.864,0.01,-0.63,0.46,0.06,-0.21,0.00,
2.865,0.01,-0.63,0.46,0.09,-0.18,-0.00,
2.867,0.01,-0.63,0.46,0.10,-0.17,-0.01,
2.868,0.01,-0.63,0.46,0.11,-0.16,-0.01,
2.87,0.01,-0.63,0.46,0.12,-0.14,-0.01,
2.872,0.01,-0.63,0.46,0.13,-0.13,-0.01,
2.874,-0.09,-0.64,0.54,0.13,-0.13,-0.01,
2.875,-0.09,-0.64,0.54,0.14,-0.11,-0.02,
2.876,-0.09,-0.64,0.54,0.15,-0.10,-0.02,
2.882,-0.09,-0.64,0.54,0.15,-0.09,-0.02,
2.883,-0.09,-0.64,0.54,0.16,-0.07,-0.03,
2.883,-0.09,-0.64,0.54,0.16,-0.06,-0.03,
2.885,-0.13,-0.71,0.51,0.16,-0.06,-0.03,
2.885,-0.13,-0.71,0.51,0.16,-0.06,-0.03,
2.886,-0.13,-0.71,0.51,0.16,-0.06,-0.03,
2.888,-0.13,-0.71,0.51,0.15,-0.06,-0.03,
2.89,-0.13,-0.71,0.51,0.14,-0.07,-0.02,
2.893,-0.13,-0.71,0.51,0.13,-0.08,-0.02,
2.894,-0.24,-1.03,0.28,0.13,-0.08,-0.02,
2.901,-0.24,-1.03,0.28,0.11,-0.09,-0.01,
2.901,-0.24,-1.03,0.28,0.11,-0.10,-0.01,
2.902,-0.24,-1.03,0.28,0.10,-0.10,-0.02,
2.902,-0.24,-1.03,0.28,0.09,-0.10,-0.02,
2.902,-0.24,-1.03,0.28,0.08,-0.10,-0.02,
2.904,0.03,-1.07,0.10,0.08,-0.10,-0.02,
2.905,0.03,-1.07,0.10,0.07,-0.11,-0.02,
2.906,0.03,-1.07,0.10,0.06,-0.11,-0.02,
2.908,0.03,-1.07,0.10,0.05,-0.11,-0.02,
2.91,0.03,-1.07,0.10,0.05,-0.10,-0.02,
2.912,0.03,-1.07,0.10,0.04,-0.10,-0.01,
2.914,0.09,-0.96,0.01,0.04,-0.10,-0.01,
2.915,0.09,-0.96,0.01,0.04,-0.10,-0.02,
2.917,0.09,-0.96,0.01,0.03,-0.09,-0.02,
2.92,0.09,-0.96,0.01,0.04,-0.09,-0.02,
2.922,0.09,-0.96,0.01,0.03,-0.07,-0.02,
2.925,0.09,-0.96,0.01,0.04,-0.07,-0.02,
2.926,0.17,-0.94,0.18,0.04,-0.07,-0.02,
2.926,0.17,-0.94,0.18,0.04,-0.05,-0.02,
2.926,0.17,-0.94,0.18,0.04,-0.04,-0.02,
2.928,0.17,-0.94,0.18,0.04,-0.03,-0.02,
2.93,0.17,-0.94,0.18,0.05,-0.01,-0.02,
2.932,0.17,-0.94,0.18,0.05,-0.00,-0.03,
2.934,0.07,-0.86,0.29,0.05,-0.00,-0.03,
2.935,0.07,-0.86,0.29,0.06,0.01,-0.03,
2.936,0.07,-0.86,0.29,0.06,0.02,-0.03,
2.939,0.07,-0.86,0.29,0.06,0.03,-0.03,
2.94,0.07,-0.86,0.29,0.07,0.04,-0.03,
2.942,0.07,-0.86,0.29,0.07,0.05,-0.04,
2.945,-0.02,-0.86,0.51,0.07,0.05,-0.04,
2.946,-0.02,-0.86,0.51,0.07,0.08,-0.04,
2.946,-0.02,-0.86,0.51,0.08,0.08,-0.05,
2.948,-0.02,-0.86,0.51,0.07,0.10,-0.05,
2.951,-0.02,-0.86,0.51,0.07,0.10,-0.05,
2.952,-0.02,-0.86,0.51,0.05,0.10,-0.05,
2.954,-0.17,-0.73,0.48,0.05,0.10,-0.05,
2.955,-0.17,-0.73,0.48,0.02,0.11,-0.05,
2.956,-0.17,-0.73,0.48,0.01,0.11,-0.05,
2.958,-0.17,-0.73,0.48,0.00,0.11,-0.05,
2.961,-0.17,-0.73,0.48,-0.01,0.12,-0.05,
2.962,-0.17,-0.73,0.48,-0.02,0.14,-0.05,
2.964,-0.30,-0.90,0.65,-0.02,0.14,-0.05,
2.965,-0.30,-0.90,0.65,-0.04,0.15,-0.05,
2.967,-0.30,-0.90,0.65,-0.05,0.15,-0.05,
2.971,-0.30,-0.90,0.65,-0.06,0.15,-0.04,
2.974,-0.30,-0.90,0.65,-0.07,0.14,-0.04,
2.975,-0.30,-0.90,0.65,-0.09,0.13,-0.02,
2.976,-0.03,-0.82,0.52,-0.09,0.13,-0.02,
3.001,-0.03,-0.82,0.52,-0.09,0.10,0.00,
3.001,-0.03,-0.82,0.52,-0.09,0.10,0.01,
3.002,-0.03,-0.82,0.52,-0.09,0.08,0.03,
3.002,-0.03,-0.82,0.52,-0.09,0.06,0.05,
3.003,-0.03,-0.82,0.52,-0.09,0.03,0.06,
3.003,0.52,-0.82,0.44,-0.09,0.03,0.06,
3.004,0.52,-0.82,0.44,-0.10,0.00,0.06,
3.004,0.52,-0.82,0.44,-0.10,-0.00,0.06,
3.005,0.52,-0.82,0.44,-0.10,-0.01,0.05,
3.005,0.52,-0.82,0.44,-0.09,-0.01,0.05,
3.005,0.52,-0.82,0.44,-0.09,-0.01,0.04,
3.006,0.94,-0.80,0.18,-0.09,-0.01,0.04,
3.006,0.94,-0.80,0.18,-0.06,0.01,0.03,
3.007,0.94,-0.80,0.18,-0.06,0.02,0.03,
3.007,0.94,-0.80,0.18,-0.04,0.03,0.02,
3.008,0.94,-0.80,0.18,-0.03,0.05,0.01,
3.008,0.94,-0.80,0.18,-0.02,0.06,0.00,
3.008,0.76,-0.86,0.14,-0.02,0.06,0.00,
3.009,0.76,-0.86,0.14,-0.00,0.07,-0.01,
3.009,0.76,-0.86,0.14,0.00,0.08,-0.01,
3.01,0.76,-0.86,0.14,0.01,0.10,-0.02,
3.01,0.76,-0.86,0.14,0.01,0.10,-0.02,
3.017,0.76,-0.86,0.14,0.01,0.09,-0.02,
3.018,0.39,-0.79,0.18,0.01,0.09,-0.02,
3.018,0.39,-0.79,0.18,0.02,0.06,-0.00,
3.018,0.39,-0.79,0.18,0.02,0.04,0.00,
3.019,0.39,-0.79,0.18,0.02,0.01,0.01,
3.02,0.39,-0.79,0.18,0.02,-0.01,0.02,
3.022,0.39,-0.79,0.18,0.02,-0.03,0.03,
3.024,0.37,-0.70,0.38,0.02,-0.03,0.03,
3.025,0.37,-0.70,0.38,0.02,-0.03,0.03,
3.026,0.37,-0.70,0.38,0.02,-0.03,0.03,
3.031,0.37,-0.70,0.38,0.02,-0.01,0.02,
3.032,0.37,-0.70,0.38,0.02,0.00,0.01,
3.035,0.37,-0.70,0.38,0.02,0.02,0.01,
3.037,0.53,-0.58,0.32,0.02,0.02,0.01,
3.042,0.53,-0.58,0.32,0.03,0.04,0.01,
3.042,0.53,-0.58,0.32,0.03,0.05,0.02,
3.043,0.53,-0.58,0.32,0.04,0.06,0.02,
3.043,0.53,-0.58,0.32,0.04,0.07,0.02,
3.043,0.53,-0.58,0.32,0.04,0.08,0.02,
3.054,0.59,-0.53,0.35,0.04,0.08,0.02,
3.055,0.59,-0.53,0.35,0.04,0.10,0.01,
3.055,0.59,-0.53,0.35,0.04,0.10,0.01,
3.056,0.59,-0.53,0.35,0.04,0.10,0.00,
3.056,0.59,-0.53,0.35,0.04,0.10,-0.00,
3.056,0.59,-0.53,0.35,0.04,0.10,0.00,
3.057,0.61,-0.57,0.40,0.04,0.10,0.00,
3.057,0.61,-0.57,0.40,0.04,0.09,0.00,
3.057,0.61,-0.57,0.40,0.04,0.09,0.00,
3.059,0.61,-0.57,0.40,0.03,0.08,0.00,
3.062,0.61,-0.57,0.40,0.03,0.08,-0.00,
3.066,0.61,-0.57,0.40,0.02,0.08,-0.01,
3.067,0.76,-0.60,0.43,0.02,0.08,-0.01,
3.067,0.76,-0.60,0.43,0.02,0.07,-0.01,
3.068,0.76,-0.60,0.43,0.01,0.07,-0.01,
3.068,0.76,-0.60,0.43,0.01,0.08,-0.02,
3.07,0.76,-0.60,0.43,0.00,0.08,-0.03,
3.072,0.76,-0.60,0.43,0.00,0.09,-0.03,
3.074,0.70,-0.62,0.42,0.00,0.09,-0.03,
3.075,0.70,-0.62,0.42,0.01,0.10,-0.03,
3.076,0.70,-0.62,0.42,0.01,0.10,-0.03,
3.078,0.70,-0.62,0.42,0.01,0.10,-0.03,
3.081,0.70,-0.62,0.42,0.01,0.10,-0.03,
3.083,0.70,-0.62,0.42,0.01,0.10,-0.03,
3.084,0.77,-0.57,0.54,0.01,0.10,-0.03,
3.085,0.77,-0.57,0.54,0.02,0.09,-0.03,
3.086,0.77,-0.57,0.54,0.02,0.09,-0.03,
3.088,0.77,-0.57,0.54,0.02,0.09,-0.04,
3.09,0.77,-0.57,0.54,0.02,0.09,-0.04,
3.092,0.77,-0.57,0.54,0.02,0.09,-0.03,
3.095,0.67,-0.48,0.54,0.02,0.09,-0.03,
3.095,0.67,-0.48,0.54,0.01,0.09,-0.04,
3.097,0.67,-0.48,0.54,0.02,0.09,-0.03,
3.099,0.67,-0.48,0.54,0.02,0.09,-0.03,
3.1,0.67,-0.48,0.54,0.02,0.09,-0.03,
3.102,0.67,-0.48,0.54,0.02,0.09,-0.02,
3.104,0.63,-0.42,0.63,0.02,0.09,-0.02,
3.105,0.63,-0.42,0.63,0.03,0.08,-0.02,
3.108,0.63,-0.42,0.63,0.03,0.07,-0.02,
3.109,0.63,-0.42,0.63,0.03,0.07,-0.02,
3.111,0.63,-0.42,0.63,0.03,0.07,-0.01,
3.113,0.63,-0.42,0.63,0.03,0.06,-0.01,
3.114,0.66,-0.43,0.63,0.03,0.06,-0.01,
3.115,0.66,-0.43,0.63,0.03,0.06,-0.01,
3.116,0.66,-0.43,0.63,0.03,0.05,-0.00,
3.118,0.66,-0.43,0.63,0.03,0.04,0.01,
3.121,0.66,-0.43,0.63,0.03,0.03,0.01,
3.122,0.66,-0.43,0.63,0.03,0.03,0.01,
3.124,0.71,-0.40,0.65,0.03,0.03,0.01,
3.125,0.71,-0.40,0.65,0.03,0.02,0.01,
3.128,0.71,-0.40,0.65,0.03,0.02,0.01,
3.129,0.71,-0.40,0.65,0.03,0.03,0.01,
3.131,0.71,-0.40,0.65,0.03,0.03,0.01,
3.133,0.71,-0.40,0.65,0.03,0.02,0.02,
3.134,0.67,-0.40,0.63,0.03,0.02,0.02,
3.135,0.67,-0.40,0.63,0.04,0.02,0.02,
3.136,0.67,-0.40,0.63,0.04,0.02,0.02,
3.138,0.67,-0.40,0.63,0.04,0.02,0.02,
3.14,0.67,-0.40,0.63,0.04,0.02,0.02,
3.165,0.67,-0.40,0.63,0.04,0.02,0.02,
3.166,0.69,-0.40,0.59,0.04,0.02,0.02,
3.166,0.69,-0.40,0.59,0.04,0.01,0.02,
3.167,0.69,-0.40,0.59,0.04,0.01,0.02,
3.167,0.69,-0.40,0.59,0.04,0.01,0.02,
3.167,0.69,-0.40,0.59,0.04,0.02,0.01,
3.168,0.69,-0.40,0.59,0.05,0.03,0.01,
3.168,0.54,-0.42,0.50,0.05,0.03,0.01,
3.169,0.54,-0.42,0.50,0.05,0.04,0.01,
3.169,0.54,-0.42,0.50,0.05,0.04,0.00,
3.17,0.54,-0.42,0.50,0.05,0.05,0.01,
3.17,0.54,-0.42,0.50,0.05,0.05,0.01,
3.171,0.54,-0.42,0.50,0.05,0.04,0.00,
3.171,0.50,-0.44,0.48,0.05,0.04,0.00,
3.171,0.50,-0.44,0.48,0.04,0.04,0.00,
3.172,0.50,-0.44,0.48,0.04,0.04,0.00,
3.172,0.50,-0.44,0.48,0.04,0.04,0.00,
3.173,0.50,-0.44,0.48,0.04,0.03,0.00,
3.173,0.50,-0.44,0.48,0.03,0.03,0.00,
3.177,0.50,-0.42,0.54,0.03,0.03,0.00,
3.178,0.50,-0.42,0.54,0.03,0.01,0.01,
3.178,0.50,-0.42,0.54,0.03,0.01,0.01,
3.179,0.50,-0.42,0.54,0.03,-0.01,0.01,
3.18,0.50,-0.42,0.54,0.03,-0.01,0.02,
3.182,0.50,-0.42,0.54,0.03,-0.02,0.01,
3.184,0.63,-0.47,0.57,0.03,-0.02,0.01,
3.185,0.63,-0.47,0.57,0.03,-0.02,0.01,
3.188,0.63,-0.47,0.57,0.03,-0.02,0.02,
3.189,0.63,-0.47,0.57,0.04,-0.03,0.02,
3.192,0.63,-0.47,0.57,0.04,-0.03,0.02,
3.193,0.63,-0.47,0.57,0.04,-0.03,0.02,
3.202,0.65,-0.49,0.56,0.04,-0.03,0.02,
3.203,0.65,-0.49,0.56,0.05,-0.03,0.02,
3.204,0.65,-0.49,0.56,0.05,-0.04,0.02,
3.204,0.65,-0.49,0.56,0.05,-0.04,0.02,
3.205,0.65,-0.49,0.56,0.05,-0.04,0.02,
3.205,0.65,-0.49,0.56,0.06,-0.04,0.02,
3.205,0.67,-0.46,0.53,0.06,-0.04,0.02,
3.211,0.67,-0.46,0.53,0.06,-0.04,0.02,
3.22,0.67,-0.46,0.53,0.06,-0.04,0.02,
3.221,0.67,-0.46,0.53,0.05,-0.04,0.02,
3.221,0.67,-0.46,0.53,0.05,-0.03,0.02,
3.222,0.67,-0.46,0.53,0.05,-0.03,0.02,
3.222,0.63,-0.46,0.44,0.05,-0.03,0.02,
3.222,0.63,-0.46,0.44,0.04,-0.04,0.02,
3.223,0.63,-0.46,0.44,0.04,-0.04,0.02,
3.223,0.63,-0.46,0.44,0.04,-0.04,0.02,
3.223,0.63,-0.46,0.44,0.04,-0.04,0.02,
3.223,0.63,-0.46,0.44,0.04,-0.03,0.02,
3.226,0.56,-0.52,0.41,0.04,-0.03,0.02,
3.226,0.56,-0.52,0.41,0.04,-0.01,0.02,
3.228,0.56,-0.52,0.41,0.04,-0.01,0.02,
3.229,0.56,-0.52,0.41,0.04,0.01,0.02,
3.231,0.56,-0.52,0.41,0.04,0.02,0.02,
3.233,0.56,-0.52,0.41,0.04,0.02,0.02,
3.234,0.48,-0.61,0.43,0.04,0.02,0.02,
3.235,0.48,-0.61,0.43,0.05,0.01,0.03,
3.236,0.48,-0.61,0.43,0.05,0.00,0.03,
3.238,0.48,-0.61,0.43,0.05,-0.02,0.03,
3.24,0.48,-0.61,0.43,0.05,-0.03,0.03,
3.242,0.48,-0.61,0.43,0.05,-0.03,0.02,
3.246,0.86,-0.36,0.36,0.05,-0.03,0.02,
3.246,0.86,-0.36,0.36,0.05,-0.02,0.02,
3.247,0.86,-0.36,0.36,0.05,-0.02,0.02,
3.251,0.86,-0.36,0.36,0.05,-0.01,0.02,
3.251,0.86,-0.36,0.36,0.05,0.00,0.02,
3.252,0.86,-0.36,0.36,0.05,0.02,0.02,
3.254,0.84,-0.25,0.32,0.05,0.02,0.02,
3.255,0.84,-0.25,0.32,0.05,0.04,0.01,
3.256,0.84,-0.25,0.32,0.05,0.04,0.01,
3.258,0.84,-0.25,0.32,0.05,0.05,0.01,
3.26,0.84,-0.25,0.32,0.06,0.04,0.02,
3.262,0.84,-0.25,0.32,0.06,0.03,0.02,
3.264,0.59,-0.59,0.52,0.06,0.03,0.02,
3.265,0.59,-0.59,0.52,0.06,0.01,0.03,
3.267,0.59,-0.59,0.52,0.06,0.01,0.03,
3.268,0.59,-0.59,0.52,0.07,-0.01,0.03,
3.27,0.59,-0.59,0.52,0.07,-0.02,0.03,
3.272,0.59,-0.59,0.52,0.07,-0.03,0.03,
3.273,0.56,-0.63,0.51,0.07,-0.03,0.03,
3.277,0.56,-0.63,0.51,0.07,-0.05,0.03,
3.277,0.56,-0.63,0.51,0.07,-0.05,0.02,
3.279,0.56,-0.63,0.51,0.07,-0.06,0.02,
3.28,0.56,-0.63,0.51,0.07,-0.06,0.02,
3.282,0.56,-0.63,0.51,0.07,-0.06,0.02,
3.284,0.58,-0.51,0.34,0.07,-0.06,0.02,
3.286,0.58,-0.51,0.34,0.07,-0.06,0.02,
3.287,0.58,-0.51,0.34,0.07,-0.05,0.02,
3.288,0.58,-0.51,0.34,0.07,-0.05,0.02,
3.29,0.58,-0.51,0.34,0.07,-0.04,0.01,
3.292,0.58,-0.51,0.34,0.07,-0.03,0.01,
3.294,0.56,-0.61,0.23,0.07,-0.03,0.01,
3.295,0.56,-0.61,0.23,0.07,-0.03,0.01,
3.296,0.56,-0.61,0.23,0.07,-0.02,0.00,
3.298,0.56,-0.61,0.23,0.07,-0.01,-0.00,
3.3,0.56,-0.61,0.23,0.07,-0.01,-0.00,
3.302,0.56,-0.61,0.23,0.07,-0.01,-0.00,
3.304,0.48,-0.73,0.21,0.07,-0.01,-0.00,
3.305,0.48,-0.73,0.21,0.07,-0.01,0.00,
3.306,0.48,-0.73,0.21,0.06,-0.02,-0.00,
3.342,0.48,-0.73,0.21,0.06,-0.02,-0.00,
3.343,0.48,-0.73,0.21,0.06,-0.01,-0.00,
3.345,0.48,-0.73,0.21,0.05,-0.01,-0.00,
3.345,0.44,-0.77,0.11,0.05,-0.01,-0.00,
3.345,0.44,-0.77,0.11,0.05,0.00,-0.00,
3.346,0.44,-0.77,0.11,0.04,0.01,-0.01,
3.346,0.44,-0.77,0.11,0.03,0.01,-0.00,
3.347,0.44,-0.77,0.11,0.03,0.02,-0.00,
3.347,0.44,-0.77,0.11,0.03,0.02,-0.00,
3.348,0.42,-0.76,0.10,0.03,0.02,-0.00,
3.348,0.42,-0.76,0.10,0.02,0.02,0.00,
3.349,0.42,-0.76,0.10,0.02,0.02,0.00,
3.349,0.42,-0.76,0.10,0.02,0.02,0.00,
3.349,0.42,-0.76,0.10,0.02,0.02,0.01,
3.35,0.42,-0.76,0.10,0.01,0.01,0.01,
3.35,0.45,-0.72,0.15,0.01,0.01,0.01,
3.351,0.45,-0.72,0.15,0.01,0.01,0.00,
3.351,0.45,-0.72,0.15,0.01,0.01,0.00,
3.352,0.45,-0.72,0.15,0.01,0.01,0.00,
3.352,0.45,-0.72,0.15,0.01,0.02,-0.00,
3.352,0.45,-0.72,0.15,0.01,0.02,-0.00,
3.353,0.37,-0.67,0.21,0.01,0.02,-0.00,
3.353,0.37,-0.67,0.21,0.01,0.03,-0.00,
3.354,0.37,-0.67,0.21,0.01,0.03,0.00,
3.359,0.37,-0.67,0.21,0.02,0.03,0.01,
3.36,0.37,-0.67,0.21,0.02,0.03,0.01,
3.36,0.37,-0.67,0.21,0.02,0.03,0.01,
3.361,0.36,-0.59,0.29,0.02,0.03,0.01,
3.361,0.36,-0.59,0.29,0.02,0.03,0.00,
3.362,0.36,-0.59,0.29,0.02,0.04,0.00,
3.362,0.36,-0.59,0.29,0.02,0.04,0.00,
3.363,0.36,-0.59,0.29,0.02,0.04,0.00,
3.363,0.36,-0.59,0.29,0.02,0.04,0.01,
3.372,0.26,-0.53,0.36,0.02,0.04,0.01,
3.373,0.26,-0.53,0.36,0.02,0.04,0.01,
3.373,0.26,-0.53,0.36,0.02,0.03,0.01,
3.374,0.26,-0.53,0.36,0.02,0.02,0.01,
3.374,0.26,-0.53,0.36,0.02,0.01,0.02,
3.374,0.26,-0.53,0.36,0.02,-0.01,0.02,
3.376,0.22,-0.52,0.44,0.02,-0.01,0.02,
3.376,0.22,-0.52,0.44,0.01,-0.04,0.03,
3.385,0.22,-0.52,0.44,0.01,-0.05,0.03,
3.386,0.22,-0.52,0.44,0.01,-0.07,0.03,
3.386,0.22,-0.52,0.44,0.02,-0.08,0.03,
3.387,0.22,-0.52,0.44,0.02,-0.10,0.04,
3.387,0.31,-0.52,0.45,0.02,-0.10,0.04,
3.387,0.31,-0.52,0.45,0.02,-0.11,0.03,
3.388,0.31,-0.52,0.45,0.02,-0.11,0.03,
3.388,0.31,-0.52,0.45,0.03,-0.11,0.03,
3.391,0.31,-0.52,0.45,0.03,-0.11,0.03,
3.393,0.31,-0.52,0.45,0.03,-0.10,0.02,
3.395,0.41,-0.52,0.31,0.03,-0.10,0.02,
3.395,0.41,-0.52,0.31,0.03,-0.08,0.02,
3.396,0.41,-0.52,0.31,0.03,-0.07,0.01,
3.398,0.41,-0.52,0.31,0.03,-0.06,0.01,
3.4,0.41,-0.52,0.31,0.03,-0.04,0.00,
3.402,0.41,-0.52,0.31,0.03,-0.03,-0.00,
3.404,0.19,-0.47,0.32,0.03,-0.03,-0.00,
3.405,0.19,-0.47,0.32,0.03,-0.02,0.00,
3.408,0.19,-0.47,0.32,0.03,-0.02,0.00,
3.413,0.19,-0.47,0.32,0.03,-0.02,0.01,
3.413,0.19,-0.47,0.32,0.04,-0.02,0.01,
3.414,0.19,-0.47,0.32,0.04,-0.02,0.01,
3.416,-0.08,-0.42,0.55,0.04,-0.02,0.01,
3.416,-0.08,-0.42,0.55,0.05,-0.02,0.01,
3.417,-0.08,-0.42,0.55,0.05,-0.01,0.01,
3.418,-0.08,-0.42,0.55,0.05,-0.01,0.01,
3.42,-0.08,-0.42,0.55,0.05,-0.00,0.01,
3.423,-0.08,-0.42,0.55,0.06,0.00,0.01,
3.424,-0.17,-0.32,0.61,0.06,0.00,0.01,
3.425,-0.17,-0.32,0.61,0.06,0.00,0.01,
3.426,-0.17,-0.32,0.61,0.06,0.00,0.01,
3.429,-0.17,-0.32,0.61,0.06,0.00,0.01,
3.43,-0.17,-0.32,0.61,0.07,0.00,0.01,
3.432,-0.17,-0.32,0.61,0.07,0.00,0.01,
3.434,-0.01,-0.30,0.56,0.07,0.00,0.01,
3.435,-0.01,-0.30,0.56,0.07,0.00,0.01,
3.436,-0.01,-0.30,0.56,0.07,-0.00,0.01,
3.438,-0.01,-0.30,0.56,0.06,-0.01,0.01,
3.44,-0.01,-0.30,0.56,0.05,-0.02,0.01,
3.447,-0.01,-0.30,0.56,0.05,-0.03,0.02,
3.448,0.04,-0.40,0.40,0.05,-0.03,0.02,
3.448,0.04,-0.40,0.40,0.04,-0.05,0.02,
3.448,0.04,-0.40,0.40,0.04,-0.06,0.02,
3.449,0.04,-0.40,0.40,0.03,-0.07,0.02,
3.45,0.04,-0.40,0.40,0.03,-0.09,0.03,
3.458,0.04,-0.40,0.40,0.02,-0.12,0.03,
3.459,0.05,-0.42,0.19,0.02,-0.12,0.03,
3.459,0.05,-0.42,0.19,0.02,-0.14,0.04,
3.469,0.05,-0.42,0.19,0.02,-0.17,0.04,
3.47,0.05,-0.42,0.19,0.02,-0.18,0.04,
3.47,0.05,-0.42,0.19,0.02,-0.19,0.04,
3.47,0.05,-0.42,0.19,0.02,-0.20,0.04,
3.471,0.21,-0.43,0.09,0.02,-0.20,0.04,
3.471,0.21,-0.43,0.09,0.02,-0.22,0.03,
3.471,0.21,-0.43,0.09,0.02,-0.23,0.03,
3.471,0.21,-0.43,0.09,0.02,-0.23,0.03,
3.472,0.21,-0.43,0.09,0.03,-0.23,0.03,
3.472,0.21,-0.43,0.09,0.04,-0.23,0.03,
3.474,0.31,-0.39,0.04,0.04,-0.23,0.03,
3.499,0.31,-0.39,0.04,0.04,-0.22,0.03,
3.5,0.31,-0.39,0.04,0.05,-0.21,0.03,
3.5,0.31,-0.39,0.04,0.05,-0.20,0.03,
3.501,0.31,-0.39,0.04,0.05,-0.19,0.03,
3.501,0.31,-0.39,0.04,0.04,-0.18,0.03,
3.501,0.25,-0.39,-0.01,0.04,-0.18,0.03,
3.502,0.25,-0.39,-0.01,0.04,-0.17,0.03,
3.502,0.25,-0.39,-0.01,0.03,-0.16,0.03,
3.503,0.25,-0.39,-0.01,0.03,-0.16,0.03,
3.503,0.25,-0.39,-0.01,0.02,-0.16,0.03,
3.504,0.25,-0.39,-0.01,0.01,-0.17,0.04,
3.504,0.18,-0.40,-0.10,0.01,-0.17,0.04,
3.505,0.18,-0.40,-0.10,-0.00,-0.18,0.04,
3.505,0.18,-0.40,-0.10,-0.01,-0.19,0.04,
3.505,0.18,-0.40,-0.10,-0.01,-0.19,0.04,
3.506,0.18,-0.40,-0.10,-0.01,-0.21,0.04,
3.506,0.18,-0.40,-0.10,-0.01,-0.21,0.04,
3.507,0.11,-0.44,-0.03,-0.01,-0.21,0.04,
3.507,0.11,-0.44,-0.03,-0.00,-0.23,0.05,
3.508,0.11,-0.44,-0.03,0.00,-0.24,0.05,
3.508,0.11,-0.44,-0.03,0.00,-0.24,0.05,
3.51,0.11,-0.44,-0.03,0.01,-0.24,0.05,
3.512,0.11,-0.44,-0.03,0.01,-0.24,0.05,
3.514,0.17,-0.40,0.16,0.01,-0.24,0.05,
3.515,0.17,-0.40,0.16,0.02,-0.24,0.05,
3.516,0.17,-0.40,0.16,0.04,-0.23,0.05,
3.518,0.17,-0.40,0.16,0.04,-0.23,0.05,
3.52,0.17,-0.40,0.16,0.05,-0.23,0.05,
3.522,0.17,-0.40,0.16,0.06,-0.23,0.05,
3.524,0.41,-0.33,0.40,0.06,-0.23,0.05,
3.525,0.41,-0.33,0.40,0.07,-0.23,0.04,
3.527,0.41,-0.33,0.40,0.07,-0.23,0.04,
3.528,0.41,-0.33,0.40,0.07,-0.23,0.04,
3.53,0.41,-0.33,0.40,0.07,-0.23,0.03,
3.533,0.41,-0.33,0.40,0.08,-0.24,0.03,
3.534,0.45,-0.28,0.42,0.08,-0.24,0.03,
3.535,0.45,-0.28,0.42,0.08,-0.25,0.04,
3.536,0.45,-0.28,0.42,0.08,-0.25,0.04,
3.538,0.45,-0.28,0.42,0.08,-0.25,0.04,
3.54,0.45,-0.28,0.42,0.09,-0.26,0.04,
3.544,0.45,-0.28,0.42,0.09,-0.27,0.04,
3.545,0.33,-0.16,0.53,0.09,-0.27,0.04,
3.545,0.33,-0.16,0.53,0.09,-0.28,0.05,
3.549,0.33,-0.16,0.53,0.09,-0.30,0.05,
3.55,0.33,-0.16,0.53,0.09,-0.31,0.06,
3.551,0.33,-0.16,0.53,0.10,-0.33,0.06,
3.552,0.33,-0.16,0.53,0.10,-0.35,0.07,
3.557,0.15,-0.10,0.41,0.10,-0.35,0.07,
3.558,0.15,-0.10,0.41,0.10,-0.39,0.07,
3.558,0.15,-0.10,0.41,0.11,-0.41,0.07,
3.559,0.15,-0.10,0.41,0.11,-0.42,0.07,
3.56,0.15,-0.10,0.41,0.11,-0.42,0.08,
3.562,0.15,-0.10,0.41,0.12,-0.42,0.08,
3.564,0.18,0.06,0.23,0.12,-0.42,0.08,
3.565,0.18,0.06,0.23,0.11,-0.40,0.08,
3.566,0.18,0.06,0.23,0.11,-0.39,0.08,
3.568,0.18,0.06,0.23,0.11,-0.38,0.08,
3.57,0.18,0.06,0.23,0.10,-0.36,0.08,
3.574,0.18,0.06,0.23,0.09,-0.34,0.07,
3.575,0.35,0.26,0.04,0.09,-0.34,0.07,
3.575,0.35,0.26,0.04,0.07,-0.33,0.07,
3.581,0.35,0.26,0.04,0.05,-0.32,0.06,
3.583,0.35,0.26,0.04,0.04,-0.33,0.06,
3.583,0.35,0.26,0.04,0.02,-0.34,0.06,
3.586,0.35,0.26,0.04,-0.00,-0.35,0.05,
3.586,0.44,0.15,-0.33,-0.00,-0.35,0.05,
3.591,0.44,0.15,-0.33,-0.03,-0.37,0.05,
3.591,0.44,0.15,-0.33,-0.04,-0.38,0.04,
3.592,0.44,0.15,-0.33,-0.05,-0.38,0.04,
3.592,0.44,0.15,-0.33,-0.06,-0.38,0.03,
3.592,0.44,0.15,-0.33,-0.07,-0.38,0.03,
3.603,0.47,0.11,-0.38,-0.07,-0.38,0.03,
3.604,0.47,0.11,-0.38,-0.07,-0.37,0.02,
3.605,0.47,0.11,-0.38,-0.06,-0.36,0.02,
3.605,0.47,0.11,-0.38,-0.06,-0.35,0.02,
3.605,0.47,0.11,-0.38,-0.05,-0.33,0.01,
3.606,0.47,0.11,-0.38,-0.04,-0.31,0.01,
3.606,0.50,0.12,-0.29,-0.04,-0.31,0.01,
3.606,0.50,0.12,-0.29,-0.03,-0.27,0.01,
3.607,0.50,0.12,-0.29,-0.02,-0.25,-0.00,
3.61,0.50,0.12,-0.29,-0.01,-0.24,-0.00,
3.61,0.50,0.12,-0.29,-0.00,-0.22,-0.01,
3.617,0.50,0.12,-0.29,0.01,-0.21,-0.01,
3.618,0.48,0.10,-0.23,0.01,-0.21,-0.01,
3.618,0.48,0.10,-0.23,0.02,-0.19,-0.01,
3.619,0.48,0.10,-0.23,0.03,-0.18,-0.01,
3.619,0.48,0.10,-0.23,0.03,-0.17,-0.01,
3.622,0.48,0.10,-0.23,0.03,-0.16,-0.02,
3.623,0.48,0.10,-0.23,0.04,-0.15,-0.02,
3.626,0.31,0.08,-0.14,0.04,-0.15,-0.02,
3.627,0.31,0.08,-0.14,0.04,-0.14,-0.01,
3.627,0.31,0.08,-0.14,0.05,-0.14,-0.02,
3.632,0.31,0.08,-0.14,0.05,-0.13,-0.01,
3.632,0.31,0.08,-0.14,0.05,-0.13,-0.02,
3.633,0.31,0.08,-0.14,0.05,-0.12,-0.02,
3.634,0.14,-0.01,-0.03,0.05,-0.12,-0.02,
3.635,0.14,-0.01,-0.03,0.04,-0.13,-0.02,
3.636,0.14,-0.01,-0.03,0.04,-0.13,-0.02,
3.638,0.14,-0.01,-0.03,0.04,-0.13,-0.02,
3.642,0.14,-0.01,-0.03,0.03,-0.14,-0.02,
3.669,0.14,-0.01,-0.03,0.03,-0.14,-0.02,
3.669,-0.02,-0.12,0.07,0.03,-0.14,-0.02,
3.67,-0.02,-0.12,0.07,0.02,-0.16,-0.01,
3.67,-0.02,-0.12,0.07,0.02,-0.17,-0.01,
3.671,-0.02,-0.12,0.07,0.02,-0.17,-0.01,
3.671,-0.02,-0.12,0.07,0.02,-0.18,-0.01,
3.671,-0.02,-0.12,0.07,0.01,-0.19,-0.01,
3.672,-0.07,-0.21,0.12,0.01,-0.19,-0.01,
3.672,-0.07,-0.21,0.12,0.00,-0.19,-0.01,
3.673,-0.07,-0.21,0.12,0.00,-0.20,-0.01,
3.673,-0.07,-0.21,0.12,0.01,-0.20,-0.01,
3.674,-0.07,-0.21,0.12,0.01,-0.20,-0.01,
3.674,-0.07,-0.21,0.12,0.01,-0.20,-0.01,
3.674,-0.10,-0.32,0.12,0.01,-0.20,-0.01,
3.675,-0.10,-0.32,0.12,0.01,-0.20,-0.01,
3.675,-0.10,-0.32,0.12,0.02,-0.20,-0.01,
3.676,-0.10,-0.32,0.12,0.02,-0.19,-0.01,
3.676,-0.10,-0.32,0.12,0.03,-0.19,-0.01,
3.677,-0.10,-0.32,0.12,0.03,-0.18,-0.00,
3.677,-0.16,-0.46,0.09,0.03,-0.18,-0.00,
3.678,-0.16,-0.46,0.09,0.04,-0.17,-0.00,
3.678,-0.16,-0.46,0.09,0.05,-0.17,0.00,
3.678,-0.16,-0.46,0.09,0.05,-0.17,0.00,
3.683,-0.16,-0.46,0.09,0.05,-0.16,0.00,
3.684,-0.16,-0.46,0.09,0.05,-0.15,0.00,
3.685,-0.16,-0.64,-0.04,0.05,-0.15,0.00,
3.685,-0.16,-0.64,-0.04,0.06,-0.14,0.01,
3.688,-0.16,-0.64,-0.04,0.06,-0.14,0.01,
3.689,-0.16,-0.64,-0.04,0.06,-0.14,0.02,
3.692,-0.16,-0.64,-0.04,0.07,-0.13,0.02,
3.693,-0.16,-0.64,-0.04,0.06,-0.12,0.02,
3.698,-0.24,-0.81,-0.27,0.06,-0.12,0.02,
3.699,-0.24,-0.81,-0.27,0.06,-0.11,0.02,
3.7,-0.24,-0.81,-0.27,0.07,-0.10,0.01,
3.7,-0.24,-0.81,-0.27,0.06,-0.09,0.01,
3.701,-0.24,-0.81,-0.27,0.06,-0.07,0.01,
3.706,-0.24,-0.81,-0.27,0.06,-0.05,0.02,
3.707,-0.19,-0.92,-0.39,0.06,-0.05,0.02,
3.707,-0.19,-0.92,-0.39,0.06,-0.03,0.02,
3.707,-0.19,-0.92,-0.39,0.06,-0.00,0.02,
3.708,-0.19,-0.92,-0.39,0.07,0.01,0.02,
3.716,-0.19,-0.92,-0.39,0.07,0.02,0.02,
3.717,-0.19,-0.92,-0.39,0.07,0.04,0.03,
3.717,-0.18,-0.96,-0.23,0.07,0.04,0.03,
3.718,-0.18,-0.96,-0.23,0.08,0.07,0.03,
3.718,-0.18,-0.96,-0.23,0.08,0.08,0.03,
3.719,-0.18,-0.96,-0.23,0.08,0.09,0.03,
3.727,-0.18,-0.96,-0.23,0.09,0.10,0.03,
3.731,-0.18,-0.96,-0.23,0.09,0.10,0.03,
3.731,-0.06,-1.00,-0.03,0.09,0.10,0.03,
3.732,-0.06,-1.00,-0.03,0.09,0.11,0.03,
3.732,-0.06,-1.00,-0.03,0.09,0.10,0.03,
3.732,-0.06,-1.00,-0.03,0.09,0.10,0.03,
3.733,-0.06,-1.00,-0.03,0.09,0.09,0.04,
3.733,-0.06,-1.00,-0.03,0.08,0.09,0.04,
3.741,-0.05,-1.06,-0.01,0.08,0.09,0.04,
3.742,-0.05,-1.06,-0.01,0.09,0.08,0.04,
3.743,-0.05,-1.06,-0.01,0.09,0.07,0.04,
3.743,-0.05,-1.06,-0.01,0.09,0.07,0.05,
3.743,-0.05,-1.06,-0.01,0.09,0.07,0.05,
3.743,-0.05,-1.06,-0.01,0.09,0.07,0.05,
3.746,0.06,-1.21,0.00,0.09,0.07,0.05,
3.747,0.06,-1.21,0.00,0.09,0.06,0.05,
3.747,0.06,-1.21,0.00,0.09,0.07,0.05,
3.751,0.06,-1.21,0.00,0.09,0.07,0.05,
3.751,0.06,-1.21,0.00,0.09,0.07,0.05,
3.755,0.06,-1.21,0.00,0.09,0.08,0.05,
3.759,0.15,-1.30,-0.15,0.09,0.08,0.05,
3.76,0.15,-1.30,-0.15,0.09,0.09,0.05,
3.76,0.15,-1.30,-0.15,0.09,0.10,0.05,
3.76,0.15,-1.30,-0.15,0.09,0.10,0.06,
3.762,0.15,-1.30,-0.15,0.09,0.11,0.06,
3.763,0.15,-1.30,-0.15,0.09,0.12,0.06,
3.765,0.27,-1.46,-0.21,0.09,0.12,0.06,
3.766,0.27,-1.46,-0.21,0.09,0.14,0.06,
3.766,0.27,-1.46,-0.21,0.08,0.15,0.06,
3.768,0.27,-1.46,-0.21,0.08,0.15,0.06,
3.77,0.27,-1.46,-0.21,0.08,0.16,0.06,
3.772,0.27,-1.46,-0.21,0.08,0.16,0.06,
3.774,0.22,-1.53,-0.20,0.08,0.16,0.06,
3.775,0.22,-1.53,-0.20,0.09,0.17,0.06,
3.776,0.22,-1.53,-0.20,0.09,0.17,0.06,
3.78,0.22,-1.53,-0.20,0.09,0.17,0.06,
3.781,0.22,-1.53,-0.20,0.09,0.18,0.06,
3.784,0.22,-1.53,-0.20,0.09,0.18,0.06,
3.785,0.27,-1.51,-0.14,0.09,0.18,0.06,
3.785,0.27,-1.51,-0.14,0.10,0.18,0.06,
3.788,0.27,-1.51,-0.14,0.11,0.18,0.06,
3.789,0.27,-1.51,-0.14,0.12,0.18,0.06,
3.792,0.27,-1.51,-0.14,0.12,0.19,0.06,
3.793,0.27,-1.51,-0.14,0.13,0.19,0.06,
3.798,0.37,-1.44,-0.03,0.13,0.19,0.06,
3.799,0.37,-1.44,-0.03,0.14,0.20,0.06,
3.799,0.37,-1.44,-0.03,0.15,0.21,0.05,
3.799,0.37,-1.44,-0.03,0.16,0.21,0.05,
3.802,0.37,-1.44,-0.03,0.17,0.22,0.05,
3.803,0.37,-1.44,-0.03,0.18,0.23,0.05,
3.81,0.56,-1.31,0.17,0.18,0.23,0.05,
3.81,0.56,-1.31,0.17,0.20,0.25,0.05,
3.811,0.56,-1.31,0.17,0.21,0.25,0.04,
3.839,0.56,-1.31,0.17,0.21,0.26,0.05,
3.839,0.56,-1.31,0.17,0.22,0.26,0.05,
3.84,0.56,-1.31,0.17,0.23,0.27,0.05,
3.84,0.72,-1.09,0.34,0.23,0.27,0.05,
3.84,0.72,-1.09,0.34,0.24,0.27,0.05,
3.841,0.72,-1.09,0.34,0.25,0.28,0.05,
3.841,0.72,-1.09,0.34,0.26,0.28,0.05,
3.842,0.72,-1.09,0.34,0.27,0.29,0.05,
3.842,0.72,-1.09,0.34,0.28,0.30,0.06,
3.843,0.82,-1.11,0.53,0.28,0.30,0.06,
3.843,0.82,-1.11,0.53,0.29,0.30,0.06,
3.843,0.82,-1.11,0.53,0.29,0.31,0.06,
3.844,0.82,-1.11,0.53,0.30,0.31,0.06,
3.844,0.82,-1.11,0.53,0.31,0.32,0.07,
3.845,0.82,-1.11,0.53,0.32,0.32,0.07,
3.845,0.75,-1.24,1.01,0.32,0.32,0.07,
3.846,0.75,-1.24,1.01,0.34,0.31,0.08,
3.846,0.75,-1.24,1.01,0.35,0.30,0.09,
3.847,0.75,-1.24,1.01,0.37,0.29,0.10,
3.847,0.75,-1.24,1.01,0.38,0.27,0.11,
3.847,0.75,-1.24,1.01,0.39,0.26,0.11,
3.848,0.41,-1.52,1.54,0.39,0.26,0.11,
3.848,0.41,-1.52,1.54,0.41,0.22,0.13,
3.849,0.41,-1.52,1.54,0.41,0.21,0.13,
3.849,0.41,-1.52,1.54,0.42,0.19,0.15,
3.851,0.41,-1.52,1.54,0.42,0.16,0.16,
3.852,0.41,-1.52,1.54,0.42,0.13,0.17,
3.854,-0.04,-1.68,1.57,0.42,0.13,0.17,
3.855,-0.04,-1.68,1.57,0.43,0.11,0.18,
3.856,-0.04,-1.68,1.57,0.43,0.08,0.19,
3.859,-0.04,-1.68,1.57,0.43,0.05,0.20,
3.86,-0.04,-1.68,1.57,0.44,0.03,0.21,
3.862,-0.04,-1.68,1.57,0.44,0.00,0.22,
3.864,-0.26,-1.77,1.39,0.44,0.00,0.22,
3.865,-0.26,-1.77,1.39,0.44,-0.02,0.23,
3.866,-0.26,-1.77,1.39,0.44,-0.03,0.24,
3.868,-0.26,-1.77,1.39,0.44,-0.05,0.25,
3.87,-0.26,-1.77,1.39,0.45,-0.07,0.25,
3.872,-0.26,-1.77,1.39,0.45,-0.08,0.26,
3.874,-0.29,-1.96,1.12,0.45,-0.08,0.26,
3.875,-0.29,-1.96,1.12,0.45,-0.09,0.27,
3.876,-0.29,-1.96,1.12,0.45,-0.10,0.27,
3.881,-0.29,-1.96,1.12,0.45,-0.11,0.27,
3.881,-0.29,-1.96,1.12,0.45,-0.12,0.28,
3.882,-0.29,-1.96,1.12,0.45,-0.13,0.28,
3.884,-0.07,-2.11,0.84,0.45,-0.13,0.28,
3.885,-0.07,-2.11,0.84,0.45,-0.14,0.28,
3.887,-0.07,-2.11,0.84,0.45,-0.14,0.28,
3.888,-0.07,-2.11,0.84,0.45,-0.15,0.28,
3.891,-0.07,-2.11,0.84,0.45,-0.15,0.28,
3.898,-0.07,-2.11,0.84,0.46,-0.14,0.28,
3.898,0.14,-2.28,0.69,0.46,-0.14,0.28,
3.899,0.14,-2.28,0.69,0.46,-0.13,0.27,
3.899,0.14,-2.28,0.69,0.47,-0.12,0.26,
3.899,0.14,-2.28,0.69,0.47,-0.10,0.25,
3.9,0.14,-2.28,0.69,0.48,-0.09,0.25,
3.902,0.14,-2.28,0.69,0.49,-0.07,0.24,
3.904,0.40,-2.22,0.56,0.49,-0.07,0.24,
3.905,0.40,-2.22,0.56,0.49,-0.03,0.23,
3.906,0.40,-2.22,0.56,0.49,-0.02,0.22,
3.909,0.40,-2.22,0.56,0.50,0.00,0.22,
3.91,0.40,-2.22,0.56,0.51,0.02,0.21,
3.912,0.40,-2.22,0.56,0.51,0.05,0.20,
3.914,0.42,-2.09,0.73,0.51,0.05,0.20,
3.915,0.42,-2.09,0.73,0.52,0.07,0.20,
3.916,0.42,-2.09,0.73,0.53,0.08,0.19,
3.918,0.42,-2.09,0.73,0.54,0.09,0.18,
3.92,0.42,-2.09,0.73,0.55,0.10,0.18,
3.922,0.42,-2.09,0.73,0.55,0.11,0.17,
3.924,0.32,-2.11,1.21,0.55,0.11,0.17,
3.926,0.32,-2.11,1.21,0.55,0.11,0.17,
3.927,0.32,-2.11,1.21,0.55,0.11,0.17,
3.929,0.32,-2.11,1.21,0.54,0.10,0.17,
3.93,0.32,-2.11,1.21,0.53,0.09,0.16,
3.932,0.32,-2.11,1.21,0.52,0.08,0.16,
3.934,-0.09,-2.42,1.29,0.52,0.08,0.16,
3.935,-0.09,-2.42,1.29,0.49,0.06,0.16,
3.936,-0.09,-2.42,1.29,0.47,0.04,0.15,
3.938,-0.09,-2.42,1.29,0.45,0.01,0.15,
3.94,-0.09,-2.42,1.29,0.42,-0.01,0.15,
3.942,-0.09,-2.42,1.29,0.40,-0.04,0.14,
3.945,-0.59,-2.55,0.96,0.40,-0.04,0.14,
3.945,-0.59,-2.55,0.96,0.35,-0.09,0.15,
3.946,-0.59,-2.55,0.96,0.34,-0.10,0.15,
3.949,-0.59,-2.55,0.96,0.31,-0.13,0.15,
3.951,-0.59,-2.55,0.96,0.29,-0.16,0.15,
3.952,-0.59,-2.55,0.96,0.26,-0.19,0.16,
3.954,-0.98,-2.56,0.53,0.26,-0.19,0.16,
3.955,-0.98,-2.56,0.53,0.22,-0.22,0.16,
3.956,-0.98,-2.56,0.53,0.21,-0.22,0.16,
3.958,-0.98,-2.56,0.53,0.18,-0.23,0.17,
3.96,-0.98,-2.56,0.53,0.16,-0.24,0.17,
3.962,-0.98,-2.56,0.53,0.13,-0.24,0.17,
3.964,-0.91,-2.42,0.04,0.13,-0.24,0.17,
3.965,-0.91,-2.42,0.04,0.10,-0.24,0.17,
3.966,-0.91,-2.42,0.04,0.08,-0.25,0.18,
3.968,-0.91,-2.42,0.04,0.05,-0.25,0.18,
3.97,-0.91,-2.42,0.04,0.02,-0.26,0.18,
3.973,-0.91,-2.42,0.04,-0.01,-0.27,0.17,
3.976,-0.65,-2.18,-0.50,-0.01,-0.27,0.17,
4.022,-0.65,-2.18,-0.50,-0.07,-0.29,0.17,
4.023,-0.65,-2.18,-0.50,-0.08,-0.30,0.17,
4.023,-0.65,-2.18,-0.50,-0.11,-0.31,0.17,
4.024,-0.65,-2.18,-0.50,-0.15,-0.33,0.17,
4.024,-0.65,-2.18,-0.50,-0.18,-0.34,0.17,
4.025,-0.42,-1.92,-0.98,-0.18,-0.34,0.17,
4.025,-0.42,-1.92,-0.98,-0.22,-0.35,0.17,
4.025,-0.42,-1.92,-0.98,-0.23,-0.35,0.16,
4.026,-0.42,-1.92,-0.98,-0.25,-0.35,0.16,
4.026,-0.42,-1.92,-0.98,-0.27,-0.35,0.16,
4.027,-0.42,-1.92,-0.98,-0.28,-0.34,0.16,
4.027,-0.12,-1.58,-0.93,-0.28,-0.34,0.16,
4.028,-0.12,-1.58,-0.93,-0.28,-0.32,0.15,
4.028,-0.12,-1.58,-0.93,-0.28,-0.31,0.15,
4.028,-0.12,-1.58,-0.93,-0.27,-0.29,0.14,
4.029,-0.12,-1.58,-0.93,-0.26,-0.26,0.13,
4.029,-0.12,-1.58,-0.93,-0.24,-0.23,0.13,
4.03,0.35,-1.06,-0.11,-0.24,-0.23,0.13,
4.03,0.35,-1.06,-0.11,-0.20,-0.18,0.13,
4.031,0.35,-1.06,-0.11,-0.18,-0.16,0.13,
4.031,0.35,-1.06,-0.11,-0.15,-0.13,0.13,
4.031,0.35,-1.06,-0.11,-0.12,-0.09,0.13,
4.032,0.35,-1.06,-0.11,-0.09,-0.06,0.13,
4.032,0.45,-0.48,0.77,-0.09,-0.06,0.13,
4.033,0.45,-0.48,0.77,-0.03,-0.02,0.14,
4.033,0.45,-0.48,0.77,-0.02,-0.01,0.14,
4.034,0.45,-0.48,0.77,0.01,0.00,0.15,
4.034,0.45,-0.48,0.77,0.05,0.01,0.15,
4.035,0.45,-0.48,0.77,0.08,0.02,0.15,
4.035,0.76,-0.10,1.40,0.08,0.02,0.15,
4.035,0.76,-0.10,1.40,0.12,0.02,0.15,
4.036,0.76,-0.10,1.40,0.13,0.01,0.15,
4.036,0.76,-0.10,1.40,0.15,0.01,0.15,
4.037,0.76,-0.10,1.40,0.17,-0.00,0.14,
4.037,0.76,-0.10,1.40,0.18,-0.01,0.14,
4.038,1.09,0.15,1.49,0.18,-0.01,0.14,
4.038,1.09,0.15,1.49,0.20,-0.02,0.14,
4.038,1.09,0.15,1.49,0.20,-0.03,0.14,
4.039,1.09,0.15,1.49,0.20,-0.04,0.14,
4.044,1.09,0.15,1.49,0.20,-0.05,0.14,
4.045,1.09,0.15,1.49,0.20,-0.06,0.14,
4.045,1.20,0.21,1.08,0.20,-0.06,0.14,
4.046,1.20,0.21,1.08,0.19,-0.07,0.14,
4.046,1.20,0.21,1.08,0.19,-0.08,0.14,
4.05,1.20,0.21,1.08,0.19,-0.09,0.14,
4.051,1.20,0.21,1.08,0.19,-0.09,0.14,
4.052,1.20,0.21,1.08,0.18,-0.10,0.14,
4.056,1.21,0.05,0.66,0.18,-0.10,0.14,
4.057,1.21,0.05,0.66,0.18,-0.11,0.13,
4.057,1.21,0.05,0.66,0.17,-0.11,0.13,
4.065,1.21,0.05,0.66,0.17,-0.12,0.13,
4.066,1.21,0.05,0.66,0.16,-0.14,0.13,
4.067,1.21,0.05,0.66,0.15,-0.15,0.12,
4.067,1.16,-0.04,0.25,0.15,-0.15,0.12,
4.067,1.16,-0.04,0.25,0.14,-0.17,0.11,
4.068,1.16,-0.04,0.25,0.14,-0.18,0.11,
4.073,1.16,-0.04,0.25,0.13,-0.19,0.11,
4.074,1.16,-0.04,0.25,0.13,-0.21,0.10,
4.074,1.16,-0.04,0.25,0.13,-0.22,0.10,
4.075,0.85,-0.05,-0.10,0.13,-0.22,0.10,
4.084,0.85,-0.05,-0.10,0.12,-0.23,0.08,
4.085,0.85,-0.05,-0.10,0.12,-0.24,0.08,
4.085,0.85,-0.05,-0.10,0.11,-0.25,0.08,
4.086,0.85,-0.05,-0.10,0.11,-0.26,0.07,
4.086,0.85,-0.05,-0.10,0.11,-0.26,0.06,
4.086,0.55,-0.01,-0.50,0.11,-0.26,0.06,
4.087,0.55,-0.01,-0.50,0.10,-0.26,0.06,
4.087,0.55,-0.01,-0.50,0.10,-0.26,0.06,
4.088,0.55,-0.01,-0.50,0.10,-0.26,0.06,
4.09,0.55,-0.01,-0.50,0.10,-0.26,0.06,
4.092,0.55,-0.01,-0.50,0.10,-0.26,0.06,
4.094,0.11,0.15,-0.73,0.10,-0.26,0.06,
4.095,0.11,0.15,-0.73,0.10,-0.26,0.06,
4.096,0.11,0.15,-0.73,0.10,-0.26,0.06,
4.098,0.11,0.15,-0.73,0.10,-0.26,0.06,
4.1,0.11,0.15,-0.73,0.10,-0.26,0.06,
4.102,0.11,0.15,-0.73,0.10,-0.26,0.07,
4.104,-0.21,0.34,-0.99,0.10,-0.26,0.07,
4.105,-0.21,0.34,-0.99,0.10,-0.26,0.07,
4.107,-0.21,0.34,-0.99,0.10,-0.26,0.08,
4.109,-0.21,0.34,-0.99,0.09,-0.25,0.08,
4.11,-0.21,0.34,-0.99,0.09,-0.24,0.08,
4.112,-0.21,0.34,-0.99,0.09,-0.24,0.08,
4.115,-0.40,0.54,-1.13,0.09,-0.24,0.08,
4.115,-0.40,0.54,-1.13,0.10,-0.22,0.09,
4.116,-0.40,0.54,-1.13,0.10,-0.21,0.09,
4.118,-0.40,0.54,-1.13,0.10,-0.20,0.09,
4.12,-0.40,0.54,-1.13,0.11,-0.18,0.09,
4.122,-0.40,0.54,-1.13,0.11,-0.16,0.10,
4.131,-0.43,0.83,-1.15,0.11,-0.16,0.10,
4.132,-0.43,0.83,-1.15,0.11,-0.12,0.10,
4.132,-0.43,0.83,-1.15,0.12,-0.10,0.10,
4.133,-0.43,0.83,-1.15,0.12,-0.08,0.10,
4.134,-0.43,0.83,-1.15,0.11,-0.05,0.11,
4.135,-0.43,0.83,-1.15,0.11,-0.02,0.11,
4.136,-0.34,0.99,-1.32,0.11,-0.02,0.11,
4.137,-0.34,0.99,-1.32,0.11,0.02,0.12,
4.14,-0.34,0.99,-1.32,0.11,0.03,0.12,
4.142,-0.34,0.99,-1.32,0.10,0.06,0.12,
4.143,-0.34,0.99,-1.32,0.10,0.08,0.13,
4.185,-0.34,0.99,-1.32,0.10,0.10,0.13,
4.186,-0.03,0.93,-1.27,0.10,0.10,0.13,
4.187,-0.03,0.93,-1.27,0.09,0.13,0.13,
4.189,-0.03,0.93,-1.27,0.09,0.15,0.13,
4.19,-0.03,0.93,-1.27,0.09,0.16,0.13,
4.191,-0.03,0.93,-1.27,0.09,0.18,0.13,
4.193,-0.03,0.93,-1.27,0.08,0.20,0.13,
4.194,0.43,0.84,-0.94,0.08,0.20,0.13,
4.195,0.43,0.84,-0.94,0.09,0.21,0.12,
4.197,0.43,0.84,-0.94,0.09,0.22,0.12,
4.198,0.43,0.84,-0.94,0.09,0.22,0.11,
4.199,0.43,0.84,-0.94,0.09,0.22,0.11,
4.2,0.43,0.84,-0.94,0.09,0.22,0.11,
4.201,0.77,0.80,-0.51,0.09,0.22,0.11,
4.202,0.77,0.80,-0.51,0.11,0.21,0.11,
4.203,0.77,0.80,-0.51,0.11,0.21,0.11,
4.204,0.77,0.80,-0.51,0.11,0.20,0.10,
4.204,0.77,0.80,-0.51,0.12,0.19,0.10,
4.205,0.77,0.80,-0.51,0.12,0.18,0.10,
4.206,0.85,0.93,-0.32,0.12,0.18,0.10,
4.207,0.85,0.93,-0.32,0.13,0.16,0.10,
4.208,0.85,0.93,-0.32,0.13,0.15,0.10,
4.209,0.85,0.93,-0.32,0.13,0.13,0.10,
4.21,0.85,0.93,-0.32,0.13,0.11,0.11,
4.212,0.85,0.93,-0.32,0.13,0.09,0.11,
4.213,0.88,1.13,-0.42,0.13,0.09,0.11,
4.214,0.88,1.13,-0.42,0.12,0.06,0.11,
4.215,0.88,1.13,-0.42,0.12,0.05,0.11,
4.216,0.88,1.13,-0.42,0.12,0.03,0.11,
4.219,0.88,1.13,-0.42,0.11,0.02,0.12,
4.22,0.88,1.13,-0.42,0.11,0.00,0.12,
4.22,0.89,1.35,-0.51,0.11,0.00,0.12,
4.221,0.89,1.35,-0.51,0.11,-0.01,0.13,
4.221,0.89,1.35,-0.51,0.11,-0.01,0.13,
4.222,0.89,1.35,-0.51,0.11,-0.02,0.13,
4.222,0.89,1.35,-0.51,0.11,-0.02,0.14,
4.223,0.89,1.35,-0.51,0.11,-0.03,0.14,
4.223,0.91,1.45,-0.52,0.11,-0.03,0.14,
4.223,0.91,1.45,-0.52,0.11,-0.03,0.14,
4.224,0.91,1.45,-0.52,0.11,-0.03,0.15,
4.224,0.91,1.45,-0.52,0.11,-0.03,0.15,
4.225,0.91,1.45,-0.52,0.11,-0.04,0.15,
4.225,0.91,1.45,-0.52,0.12,-0.04,0.15,
4.226,0.96,1.31,-0.56,0.12,-0.04,0.15,
4.226,0.96,1.31,-0.56,0.13,-0.04,0.15,
4.227,0.96,1.31,-0.56,0.13,-0.04,0.15,
4.227,0.96,1.31,-0.56,0.14,-0.05,0.15,
4.227,0.96,1.31,-0.56,0.15,-0.05,0.15,
4.228,0.96,1.31,-0.56,0.16,-0.04,0.15,
4.228,0.92,1.01,-0.50,0.16,-0.04,0.15,
4.229,0.92,1.01,-0.50,0.17,-0.03,0.15,
4.229,0.92,1.01,-0.50,0.18,-0.03,0.15,
4.23,0.92,1.01,-0.50,0.19,-0.03,0.15,
4.23,0.92,1.01,-0.50,0.20,-0.02,0.15,
4.233,0.92,1.01,-0.50,0.20,-0.01,0.15,
4.234,0.80,0.78,-0.57,0.20,-0.01,0.15,
4.235,0.80,0.78,-0.57,0.22,-0.01,0.15,
4.236,0.80,0.78,-0.57,0.22,-0.01,0.14,
4.238,0.80,0.78,-0.57,0.23,-0.00,0.14,
4.24,0.80,0.78,-0.57,0.24,0.00,0.13,
4.245,0.80,0.78,-0.57,0.24,0.01,0.13,
4.246,0.88,0.80,-0.71,0.24,0.01,0.13,
4.246,0.88,0.80,-0.71,0.26,0.02,0.13,
4.247,0.88,0.80,-0.71,0.26,0.03,0.12,
4.249,0.88,0.80,-0.71,0.27,0.05,0.12,
4.25,0.88,0.80,-0.71,0.28,0.06,0.12,
4.252,0.88,0.80,-0.71,0.29,0.08,0.11,
4.254,0.86,0.96,-0.76,0.29,0.08,0.11,
4.255,0.86,0.96,-0.76,0.30,0.11,0.11,
4.256,0.86,0.96,-0.76,0.30,0.12,0.11,
4.26,0.86,0.96,-0.76,0.30,0.14,0.11,
4.261,0.86,0.96,-0.76,0.31,0.16,0.11,
4.263,0.86,0.96,-0.76,0.31,0.18,0.11,
4.265,0.78,1.06,-0.69,0.31,0.18,0.11,
4.265,0.78,1.06,-0.69,0.31,0.20,0.11,
4.266,0.78,1.06,-0.69,0.31,0.20,0.11,
4.274,0.78,1.06,-0.69,0.32,0.22,0.11,
4.274,0.78,1.06,-0.69,0.32,0.23,0.12,
4.275,0.78,1.06,-0.69,0.32,0.23,0.12,
4.275,0.61,1.06,-0.41,0.32,0.23,0.12,
4.289,0.61,1.06,-0.41,0.32,0.24,0.12,
4.29,0.61,1.06,-0.41,0.32,0.24,0.12,
4.29,0.61,1.06,-0.41,0.33,0.24,0.13,
4.29,0.61,1.06,-0.41,0.33,0.23,0.13,
4.291,0.61,1.06,-0.41,0.32,0.22,0.14,
4.291,0.34,0.94,-0.23,0.32,0.22,0.14,
4.291,0.34,0.94,-0.23,0.32,0.20,0.15,
4.292,0.34,0.94,-0.23,0.32,0.19,0.15,
4.292,0.34,0.94,-0.23,0.32,0.17,0.15,
4.292,0.34,0.94,-0.23,0.31,0.15,0.16,
4.293,0.34,0.94,-0.23,0.30,0.13,0.16,
4.3,0.11,0.69,-0.36,0.30,0.13,0.16,
4.301,0.11,0.69,-0.36,0.30,0.10,0.17,
4.302,0.11,0.69,-0.36,0.30,0.10,0.17,
4.302,0.11,0.69,-0.36,0.29,0.09,0.18,
4.302,0.11,0.69,-0.36,0.30,0.08,0.18,
4.302,0.11,0.69,-0.36,0.29,0.07,0.19,
4.306,0.05,0.41,-0.38,0.29,0.07,0.19,
4.306,0.05,0.41,-0.38,0.29,0.07,0.19,
4.307,0.05,0.41,-0.38,0.29,0.07,0.19,
4.33,0.05,0.41,-0.38,0.29,0.06,0.19,
4.331,0.05,0.41,-0.38,0.29,0.05,0.19,
4.332,0.05,0.41,-0.38,0.30,0.05,0.19,
4.332,0.17,0.20,-0.38,0.30,0.05,0.19,
4.333,0.17,0.20,-0.38,0.29,0.04,0.19,
4.333,0.17,0.20,-0.38,0.29,0.05,0.19,
4.334,0.17,0.20,-0.38,0.29,0.05,0.19,
4.334,0.17,0.20,-0.38,0.29,0.05,0.18,
4.335,0.17,0.20,-0.38,0.30,0.06,0.18,
4.335,0.27,-0.06,-0.33,0.30,0.06,0.18,
4.335,0.27,-0.06,-0.33,0.30,0.08,0.18,
4.336,0.27,-0.06,-0.33,0.31,0.09,0.18,
4.336,0.27,-0.06,-0.33,0.31,0.10,0.18,
4.337,0.27,-0.06,-0.33,0.32,0.11,0.18,
4.337,0.27,-0.06,-0.33,0.32,0.12,0.18,
4.338,0.31,-0.28,-0.09,0.32,0.12,0.18,
4.338,0.31,-0.28,-0.09,0.33,0.12,0.18,
4.339,0.31,-0.28,-0.09,0.34,0.12,0.18,
4.339,0.31,-0.28,-0.09,0.34,0.13,0.18,
4.341,0.31,-0.28,-0.09,0.35,0.13,0.17,
4.342,0.31,-0.28,-0.09,0.35,0.13,0.17,
4.344,0.47,-0.31,-0.04,0.35,0.13,0.17,
4.345,0.47,-0.31,-0.04,0.34,0.12,0.17,
4.346,0.47,-0.31,-0.04,0.34,0.12,0.17,
4.352,0.47,-0.31,-0.04,0.34,0.11,0.16,
4.353,0.47,-0.31,-0.04,0.33,0.10,0.16,
4.353,0.47,-0.31,-0.04,0.33,0.10,0.16,
4.354,0.62,-0.29,-0.14,0.33,0.10,0.16,
4.355,0.62,-0.29,-0.14,0.32,0.10,0.16,
4.356,0.62,-0.29,-0.14,0.31,0.10,0.16,
4.359,0.62,-0.29,-0.14,0.30,0.10,0.16,
4.362,0.62,-0.29,-0.14,0.29,0.10,0.16,
4.37,0.62,-0.29,-0.14,0.28,0.10,0.16,
4.371,0.80,-0.29,-0.33,0.28,0.10,0.16,
4.371,0.80,-0.29,-0.33,0.26,0.11,0.16,
4.372,0.80,-0.29,-0.33,0.25,0.12,0.16,
4.372,0.80,-0.29,-0.33,0.24,0.12,0.16,
4.372,0.80,-0.29,-0.33,0.22,0.12,0.17,
4.373,0.80,-0.29,-0.33,0.21,0.13,0.17,
4.374,0.89,-0.35,-0.50,0.21,0.13,0.17,
4.377,0.89,-0.35,-0.50,0.18,0.14,0.17,
4.377,0.89,-0.35,-0.50,0.17,0.14,0.17,
4.379,0.89,-0.35,-0.50,0.15,0.15,0.17,
4.38,0.89,-0.35,-0.50,0.13,0.15,0.17,
4.382,0.89,-0.35,-0.50,0.12,0.15,0.17,
4.384,1.07,-0.47,-0.46,0.12,0.15,0.17,
4.385,1.07,-0.47,-0.46,0.09,0.14,0.17,
4.387,1.07,-0.47,-0.46,0.08,0.14,0.17,
4.388,1.07,-0.47,-0.46,0.06,0.14,0.17,
4.391,1.07,-0.47,-0.46,0.05,0.13,0.16,
4.392,1.07,-0.47,-0.46,0.03,0.12,0.16,
4.397,1.13,-0.59,-0.24,0.03,0.12,0.16,
4.398,1.13,-0.59,-0.24,0.01,0.10,0.15,
4.399,1.13,-0.59,-0.24,0.00,0.09,0.15,
4.404,1.13,-0.59,-0.24,-0.01,0.08,0.14,
4.405,1.13,-0.59,-0.24,-0.02,0.06,0.14,
4.405,1.13,-0.59,-0.24,-0.03,0.05,0.13,
4.405,1.13,-0.73,-0.03,-0.03,0.05,0.13,
4.406,1.13,-0.73,-0.03,-0.04,0.02,0.12,
4.406,1.13,-0.73,-0.03,-0.04,0.01,0.12,
4.415,1.13,-0.73,-0.03,-0.03,-0.01,0.12,
4.416,1.13,-0.73,-0.03,-0.03,-0.03,0.11,
4.416,1.13,-0.73,-0.03,-0.02,-0.06,0.11,
4.416,0.78,-0.85,0.35,-0.02,-0.06,0.11,
4.417,0.78,-0.85,0.35,-0.00,-0.09,0.10,
4.417,0.78,-0.85,0.35,0.00,-0.10,0.10,
4.422,0.78,-0.85,0.35,0.01,-0.13,0.10,
4.423,0.78,-0.85,0.35,0.02,-0.14,0.10,
4.439,0.78,-0.85,0.35,0.04,-0.16,0.10,
4.44,0.48,-0.90,0.53,0.04,-0.16,0.10,
4.44,0.48,-0.90,0.53,0.05,-0.16,0.10,
4.441,0.48,-0.90,0.53,0.06,-0.16,0.10,
4.441,0.48,-0.90,0.53,0.08,-0.16,0.10,
4.441,0.48,-0.90,0.53,0.09,-0.16,0.10,
4.442,0.48,-0.90,0.53,0.10,-0.15,0.10,
4.442,0.36,-0.81,0.59,0.10,-0.15,0.10,
4.442,0.36,-0.81,0.59,0.12,-0.13,0.10,
4.443,0.36,-0.81,0.59,0.13,-0.12,0.10,
4.443,0.36,-0.81,0.59,0.14,-0.11,0.10,
4.443,0.36,-0.81,0.59,0.14,-0.10,0.10,
4.444,0.36,-0.81,0.59,0.15,-0.09,0.10,
4.444,0.42,-0.69,0.53,0.15,-0.09,0.10,
4.445,0.42,-0.69,0.53,0.16,-0.08,0.10,
4.446,0.42,-0.69,0.53,0.16,-0.08,0.09,
4.45,0.42,-0.69,0.53,0.16,-0.07,0.09,
4.45,0.42,-0.69,0.53,0.15,-0.07,0.09,
4.454,0.42,-0.69,0.53,0.14,-0.07,0.09,
4.455,0.50,-0.46,0.16,0.14,-0.07,0.09,
4.455,0.50,-0.46,0.16,0.13,-0.07,0.09,
4.458,0.50,-0.46,0.16,0.12,-0.07,0.09,
4.459,0.50,-0.46,0.16,0.10,-0.07,0.09,
4.46,0.50,-0.46,0.16,0.08,-0.08,0.09,
4.462,0.50,-0.46,0.16,0.06,-0.08,0.09,
4.464,0.52,-0.22,-0.46,0.06,-0.08,0.09,
4.465,0.52,-0.22,-0.46,0.01,-0.10,0.10,
4.467,0.52,-0.22,-0.46,-0.01,-0.11,0.10,
4.468,0.52,-0.22,-0.46,-0.04,-0.12,0.11,
4.47,0.52,-0.22,-0.46,-0.08,-0.14,0.11,
4.472,0.52,-0.22,-0.46,-0.12,-0.16,0.11,
4.475,0.51,-0.09,-1.15,-0.12,-0.16,0.11,
4.502,0.51,-0.09,-1.15,-0.19,-0.20,0.12,
4.502,0.51,-0.09,-1.15,-0.21,-0.21,0.13,
4.502,0.51,-0.09,-1.15,-0.25,-0.24,0.13,
4.503,0.51,-0.09,-1.15,-0.30,-0.27,0.14,
4.503,0.51,-0.09,-1.15,-0.36,-0.30,0.14,
4.504,0.74,-0.00,-1.69,-0.36,-0.30,0.14,
4.504,0.74,-0.00,-1.69,-0.43,-0.34,0.15,
4.505,0.74,-0.00,-1.69,-0.46,-0.36,0.16,
4.505,0.74,-0.00,-1.69,-0.51,-0.38,0.16,
4.506,0.74,-0.00,-1.69,-0.56,-0.41,0.17,
4.506,0.74,-0.00,-1.69,-0.61,-0.43,0.17,
4.506,0.97,0.20,-1.95,-0.61,-0.43,0.17,
4.507,0.97,0.20,-1.95,-0.68,-0.46,0.18,
4.507,0.97,0.20,-1.95,-0.71,-0.47,0.18,
4.508,0.97,0.20,-1.95,-0.75,-0.48,0.19,
4.508,0.97,0.20,-1.95,-0.78,-0.49,0.19,
4.509,0.97,0.20,-1.95,-0.81,-0.49,0.19,
4.509,1.22,0.71,-1.63,-0.81,-0.49,0.19,
4.509,1.22,0.71,-1.63,-0.85,-0.49,0.20,
4.51,1.22,0.71,-1.63,-0.87,-0.49,0.20,
4.51,1.22,0.71,-1.63,-0.88,-0.48,0.20,
4.511,1.22,0.71,-1.63,-0.90,-0.47,0.21,
4.515,1.22,0.71,-1.63,-0.90,-0.47,0.21,
4.517,1.25,1.49,-0.90,-0.90,-0.47,0.21,
4.517,1.25,1.49,-0.90,-0.92,-0.46,0.21,
4.518,1.25,1.49,-0.90,-0.92,-0.46,0.21,
4.518,1.25,1.49,-0.90,-0.93,-0.47,0.21,
4.52,1.25,1.49,-0.90,-0.94,-0.48,0.21,
4.522,1.25,1.49,-0.90,-0.94,-0.51,0.22,
4.525,1.10,2.07,-0.58,-0.94,-0.51,0.22,
4.525,1.10,2.07,-0.58,-0.95,-0.57,0.23,
4.526,1.10,2.07,-0.58,-0.95,-0.59,0.24,
4.529,1.10,2.07,-0.58,-0.96,-0.63,0.25,
4.53,1.10,2.07,-0.58,-0.97,-0.69,0.26,
4.533,1.10,2.07,-0.58,-0.98,-0.75,0.28,
4.534,0.75,2.11,-0.91,-0.98,-0.75,0.28,
4.535,0.75,2.11,-0.91,-0.99,-0.85,0.30,
4.536,0.75,2.11,-0.91,-0.99,-0.89,0.31,
4.538,0.75,2.11,-0.91,-1.01,-0.95,0.32,
4.541,0.75,2.11,-0.91,-1.02,-1.02,0.34,
4.548,0.75,2.11,-0.91,-1.04,-1.09,0.35,
4.549,0.75,1.90,-1.82,-1.04,-1.09,0.35,
4.549,0.75,1.90,-1.82,-1.07,-1.17,0.37,
4.55,0.75,1.90,-1.82,-1.08,-1.20,0.38,
4.55,0.75,1.90,-1.82,-1.11,-1.24,0.39,
4.55,0.75,1.90,-1.82,-1.13,-1.28,0.39,
4.554,0.75,1.90,-1.82,-1.16,-1.31,0.39,
4.555,1.43,1.83,-2.92,-1.16,-1.31,0.39,
4.555,1.43,1.83,-2.92,-1.20,-1.34,0.38,
4.571,1.43,1.83,-2.92,-1.21,-1.34,0.37,
4.572,1.43,1.83,-2.92,-1.24,-1.33,0.35,
4.572,1.43,1.83,-2.92,-1.26,-1.31,0.32,
4.573,1.43,1.83,-2.92,-1.28,-1.28,0.29,
4.573,3.02,2.17,-3.86,-1.28,-1.28,0.29,
4.573,3.02,2.17,-3.86,-1.31,-1.20,0.23,
4.574,3.02,2.17,-3.86,-1.31,-1.17,0.21,
4.574,3.02,2.17,-3.86,-1.32,-1.09,0.16,
4.574,3.02,2.17,-3.86,-1.33,-1.01,0.10,
4.575,3.02,2.17,-3.86,-1.32,-0.92,0.04,
4.575,4.24,3.04,-3.91,-1.32,-0.92,0.04,
4.578,4.24,3.04,-3.91,-1.30,-0.77,-0.04,
4.579,4.24,3.04,-3.91,-1.29,-0.72,-0.07,
4.579,4.24,3.04,-3.91,-1.26,-0.62,-0.13,
4.582,4.24,3.04,-3.91,-1.23,-0.51,-0.18,
4.583,4.24,3.04,-3.91,-1.19,-0.41,-0.24,
4.586,4.67,4.54,-3.28,-1.19,-0.41,-0.24,
4.587,4.67,4.54,-3.28,-1.13,-0.27,-0.31,
4.587,4.67,4.54,-3.28,-1.10,-0.22,-0.33,
4.59,4.67,4.54,-3.28,-1.05,-0.14,-0.37,
4.59,4.67,4.54,-3.28,-1.01,-0.06,-0.40,
4.594,4.67,4.54,-3.28,-0.96,0.01,-0.43,
4.595,3.98,6.47,-2.29,-0.96,0.01,-0.43,
4.596,3.98,6.47,-2.29,-0.89,0.09,-0.47,
4.597,3.98,6.47,-2.29,-0.87,0.11,-0.48,
4.607,3.98,6.47,-2.29,-0.84,0.16,-0.49,
4.608,3.98,6.47,-2.29,-0.81,0.20,-0.50,
4.608,3.98,6.47,-2.29,-0.78,0.24,-0.51,
4.608,3.39,8.49,-1.46,-0.78,0.24,-0.51,
4.609,3.39,8.49,-1.46,-0.73,0.29,-0.50,
4.609,3.39,8.49,-1.46,-0.71,0.30,-0.50,
4.61,3.39,8.49,-1.46,-0.66,0.33,-0.49,
4.614,3.39,8.49,-1.46,-0.61,0.34,-0.47,
4.615,3.39,8.49,-1.46,-0.56,0.35,-0.45,
4.616,3.18,10.38,0.29,-0.56,0.35,-0.45,
4.617,3.18,10.38,0.29,-0.48,0.36,-0.42,
4.618,3.18,10.38,0.29,-0.45,0.35,-0.41,
4.618,3.18,10.38,0.29,-0.40,0.35,-0.38,
4.623,3.18,10.38,0.29,-0.35,0.33,-0.35,
4.623,3.18,10.38,0.29,-0.29,0.32,-0.31,
4.628,3.56,11.75,1.50,-0.29,0.32,-0.31,
4.629,3.56,11.75,1.50,-0.21,0.29,-0.27,
4.629,3.56,11.75,1.50,-0.19,0.28,-0.25,
4.63,3.56,11.75,1.50,-0.14,0.26,-0.22,
4.63,3.56,11.75,1.50,-0.09,0.24,-0.20,
4.634,3.56,11.75,1.50,-0.04,0.22,-0.18,
4.635,4.07,12.31,1.53,-0.04,0.22,-0.18,
4.636,4.07,12.31,1.53,0.03,0.18,-0.16,
4.639,4.07,12.31,1.53,0.06,0.17,-0.15,
4.64,4.07,12.31,1.53,0.11,0.15,-0.15,
4.64,4.07,12.31,1.53,0.16,0.13,-0.16,
4.668,4.07,12.31,1.53,0.21,0.10,-0.17,
4.668,4.63,11.90,1.34,0.21,0.10,-0.17,
4.669,4.63,11.90,1.34,0.29,0.06,-0.19,
4.669,4.63,11.90,1.34,0.32,0.05,-0.20,
4.67,4.63,11.90,1.34,0.37,0.02,-0.22,
4.67,4.63,11.90,1.34,0.42,-0.01,-0.24,
4.671,4.63,11.90,1.34,0.47,-0.05,-0.25,
4.671,4.12,11.15,0.83,0.47,-0.05,-0.25,
4.672,4.12,11.15,0.83,0.54,-0.11,-0.28,
4.672,4.12,11.15,0.83,0.56,-0.13,-0.29,
4.673,4.12,11.15,0.83,0.59,-0.17,-0.30,
4.673,4.12,11.15,0.83,0.63,-0.21,-0.32,
4.673,4.12,11.15,0.83,0.66,-0.24,-0.33,
4.674,3.16,10.54,-0.04,0.66,-0.24,-0.33,
4.674,3.16,10.54,-0.04,0.70,-0.28,-0.34,
4.675,3.16,10.54,-0.04,0.71,-0.28,-0.35,
4.675,3.16,10.54,-0.04,0.73,-0.29,-0.35,
4.676,3.16,10.54,-0.04,0.75,-0.30,-0.36,
4.676,3.16,10.54,-0.04,0.77,-0.29,-0.36,
4.677,2.10,10.41,-0.81,0.77,-0.29,-0.36,
4.677,2.10,10.41,-0.81,0.79,-0.28,-0.36,
4.678,2.10,10.41,-0.81,0.80,-0.27,-0.36,
4.678,2.10,10.41,-0.81,0.82,-0.26,-0.35,
4.68,2.10,10.41,-0.81,0.84,-0.24,-0.35,
4.682,2.10,10.41,-0.81,0.85,-0.22,-0.34,
4.684,1.39,10.74,-1.27,0.85,-0.22,-0.34,
4.686,1.39,10.74,-1.27,0.87,-0.19,-0.33,
4.686,1.39,10.74,-1.27,0.87,-0.18,-0.32,
4.688,1.39,10.74,-1.27,0.88,-0.16,-0.31,
4.69,1.39,10.74,-1.27,0.89,-0.14,-0.30,
4.693,1.39,10.74,-1.27,0.89,-0.12,-0.28,
4.694,1.46,11.24,-1.27,0.89,-0.12,-0.28,
4.696,1.46,11.24,-1.27,0.89,-0.09,-0.26,
4.696,1.46,11.24,-1.27,0.89,-0.08,-0.26,
4.698,1.46,11.24,-1.27,0.88,-0.07,-0.25,
4.7,1.46,11.24,-1.27,0.87,-0.05,-0.23,
4.702,1.46,11.24,-1.27,0.86,-0.04,-0.22,
4.704,1.75,11.69,-1.21,0.86,-0.04,-0.22,
4.705,1.75,11.69,-1.21,0.83,-0.05,-0.21,
4.711,1.75,11.69,-1.21,0.82,-0.05,-0.20,
4.712,1.75,11.69,-1.21,0.81,-0.06,-0.20,
4.713,1.75,11.69,-1.21,0.80,-0.08,-0.19,
4.714,1.75,11.69,-1.21,0.81,-0.11,-0.18,
4.714,2.22,11.70,-0.46,0.81,-0.11,-0.18,
4.72,2.22,11.70,-0.46,0.82,-0.15,-0.16,
4.72,2.22,11.70,-0.46,0.83,-0.17,-0.16,
4.72,2.22,11.70,-0.46,0.86,-0.19,-0.15,
4.721,2.22,11.70,-0.46,0.90,-0.21,-0.14,
4.724,2.22,11.70,-0.46,0.93,-0.24,-0.13,
4.724,2.26,11.29,1.14,0.93,-0.24,-0.13,
4.725,2.26,11.29,1.14,0.99,-0.26,-0.12,
4.734,2.26,11.29,1.14,1.01,-0.26,-0.11,
4.735,2.26,11.29,1.14,1.05,-0.27,-0.10,
4.736,2.26,11.29,1.14,1.10,-0.27,-0.09,
4.736,2.26,11.29,1.14,1.15,-0.27,-0.08,
4.736,2.02,10.37,2.41,1.15,-0.27,-0.08,
4.737,2.02,10.37,2.41,1.25,-0.25,-0.06,
4.737,2.02,10.37,2.41,1.28,-0.25,-0.04,
4.738,2.02,10.37,2.41,1.37,-0.22,-0.02,
4.749,2.02,10.37,2.41,1.48,-0.19,0.00,
4.75,2.02,10.37,2.41,1.60,-0.16,0.03,
4.75,1.13,9.19,6.41,1.60,-0.16,0.03,
4.751,1.13,9.19,6.41,1.81,-0.13,0.07,
4.751,1.13,9.19,6.41,1.88,-0.12,0.08,
4.751,1.13,9.19,6.41,2.01,-0.12,0.10,
4.752,1.13,9.19,6.41,2.14,-0.13,0.11,
4.752,1.13,9.19,6.41,2.26,-0.15,0.12,
4.756,0.53,8.00,9.11,2.26,-0.15,0.12,
4.757,0.53,8.00,9.11,2.40,-0.19,0.12,
4.757,0.53,8.00,9.11,2.43,-0.20,0.12,
4.761,0.53,8.00,9.11,2.49,-0.24,0.11,
4.762,0.53,8.00,9.11,2.53,-0.29,0.09,
4.763,0.53,8.00,9.11,2.54,-0.34,0.08,
4.766,0.20,7.00,7.61,2.54,-0.34,0.08,
4.767,0.20,7.00,7.61,2.49,-0.43,0.06,
4.768,0.20,7.00,7.61,2.46,-0.47,0.06,
4.768,0.20,7.00,7.61,2.37,-0.55,0.06,
4.772,0.20,7.00,7.61,2.24,-0.64,0.06,
4.773,0.20,7.00,7.61,2.09,-0.74,0.08,
4.775,-1.22,6.16,1.60,2.09,-0.74,0.08,
4.776,-1.22,6.16,1.60,1.80,-0.90,0.11,
4.776,-1.22,6.16,1.60,1.70,-0.95,0.12,
4.778,-1.22,6.16,1.60,1.47,-1.05,0.15,
4.78,-1.22,6.16,1.60,1.23,-1.14,0.19,
4.782,-1.22,6.16,1.60,0.98,-1.22,0.23,
4.784,-3.02,5.51,-4.04,0.98,-1.22,0.23,
4.785,-3.02,5.51,-4.04,0.64,-1.30,0.27,
4.786,-3.02,5.51,-4.04,0.53,-1.32,0.28,
4.788,-3.02,5.51,-4.04,0.34,-1.35,0.31,
4.79,-3.02,5.51,-4.04,0.17,-1.38,0.32,
4.792,-3.02,5.51,-4.04,0.02,-1.38,0.33,
4.794,-1.74,4.31,-4.66,0.02,-1.38,0.33,
4.795,-1.74,4.31,-4.66,-0.16,-1.36,0.35,
4.796,-1.74,4.31,-4.66,-0.21,-1.34,0.36,
4.798,-1.74,4.31,-4.66,-0.29,-1.29,0.36,
4.8,-1.74,4.31,-4.66,-0.33,-1.21,0.36,
4.802,-1.74,4.31,-4.66,-0.34,-1.12,0.36,
4.804,0.02,1.07,-3.57,-0.34,-1.12,0.36,
4.805,0.02,1.07,-3.57,-0.27,-0.99,0.34,
4.809,0.02,1.07,-3.57,-0.22,-0.94,0.33,
4.841,0.02,1.07,-3.57,-0.10,-0.83,0.31,
4.841,0.02,1.07,-3.57,0.05,-0.71,0.29,
4.842,0.02,1.07,-3.57,0.23,-0.56,0.25,
4.842,0.54,-0.94,-0.20,0.23,-0.56,0.25,
4.843,0.54,-0.94,-0.20,0.54,-0.27,0.19,
4.843,0.54,-0.94,-0.20,0.65,-0.15,0.17,
4.843,0.54,-0.94,-0.20,0.87,0.10,0.12,
4.844,0.54,-0.94,-0.20,1.09,0.37,0.08,
4.844,0.54,-0.94,-0.20,1.31,0.66,0.04,
4.845,0.51,-0.61,4.02,1.31,0.66,0.04,
4.845,0.51,-0.61,4.02,1.62,1.07,-0.01,
4.846,0.51,-0.61,4.02,1.72,1.21,-0.02,
4.846,0.51,-0.61,4.02,1.91,1.45,-0.04,
4.846,0.51,-0.61,4.02,2.09,1.67,-0.03,
4.847,0.51,-0.61,4.02,2.27,1.86,-0.02,
4.847,-0.49,0.22,7.56,2.27,1.86,-0.02,
4.848,-0.49,0.22,7.56,2.51,2.11,0.03,
4.848,-0.49,0.22,7.56,2.59,2.18,0.06,
4.849,-0.49,0.22,7.56,2.74,2.32,0.11,
4.849,-0.49,0.22,7.56,2.87,2.42,0.16,
4.85,-0.49,0.22,7.56,2.99,2.51,0.22,
4.85,-1.97,-0.47,9.69,2.99,2.51,0.22,
4.851,-1.97,-0.47,9.69,3.16,2.60,0.30,
4.851,-1.97,-0.47,9.69,3.21,2.63,0.33,
4.851,-1.97,-0.47,9.69,3.31,2.68,0.39,
4.852,-1.97,-0.47,9.69,3.40,2.71,0.43,
4.852,-1.97,-0.47,9.69,3.49,2.72,0.48,
4.856,-2.72,-3.49,11.10,3.49,2.72,0.48,
4.857,-2.72,-3.49,11.10,3.63,2.71,0.53,
4.861,-2.72,-3.49,11.10,3.73,2.67,0.57,
4.863,-2.72,-3.49,11.10,3.84,2.62,0.61,
4.863,-2.72,-3.49,11.10,3.89,2.58,0.63,
4.864,-2.72,-3.49,11.10,4.01,2.49,0.67,
4.868,-4.10,-7.09,14.06,4.01,2.49,0.67,
4.869,-4.10,-7.09,14.06,4.20,2.30,0.74,
4.869,-4.10,-7.09,14.06,4.27,2.23,0.77,
4.87,-4.10,-7.09,14.06,4.41,2.06,0.82,
4.87,-4.10,-7.09,14.06,4.57,1.85,0.88,
4.874,-4.10,-7.09,14.06,4.75,1.61,0.94,
4.874,-6.18,-11.06,18.11,4.75,1.61,0.94,
4.875,-6.18,-11.06,18.11,5.05,1.18,1.03,
4.881,-6.18,-11.06,18.11,5.15,1.02,1.07,
4.882,-6.18,-11.06,18.11,5.37,0.69,1.14,
4.882,-6.18,-11.06,18.11,5.58,0.34,1.22,
4.883,-6.18,-11.06,18.11,5.79,-0.01,1.29,
4.885,-7.77,-14.80,22.42,5.79,-0.01,1.29,
4.886,-7.77,-14.80,22.42,6.10,-0.54,1.40,
4.886,-7.77,-14.80,22.42,6.20,-0.72,1.44,
4.888,-7.77,-14.80,22.42,6.43,-1.13,1.50,
4.901,-7.77,-14.80,22.42,6.82,-1.86,1.55,
4.902,-7.77,-14.80,22.42,7.49,-3.16,1.56,
4.902,-9.42,-25.23,36.69,7.49,-3.16,1.56,
4.903,-9.42,-25.23,36.69,8.98,-6.18,1.52,
4.903,-9.42,-25.23,36.69,9.55,-7.41,1.50,
4.904,-9.42,-25.23,36.69,10.65,-10.03,1.48,
4.905,-9.42,-25.23,36.69,11.52,-12.62,1.46,
4.905,-9.42,-25.23,36.69,12.04,-14.90,1.40,
4.906,-20.02,-42.40,47.96,12.04,-14.90,1.40,
4.907,-20.02,-42.40,47.96,12.04,-17.30,1.20,
4.907,-20.02,-42.40,47.96,11.82,-17.73,1.11,
4.912,-20.02,-42.40,47.96,11.12,-17.97,0.89,
4.913,-20.02,-42.40,47.96,10.18,-17.33,0.68,
4.913,-20.02,-42.40,47.96,9.27,-15.86,0.50,
4.914,-12.80,-35.37,-4.31,9.27,-15.86,0.50,
4.915,-12.80,-35.37,-4.31,8.46,-12.26,0.47,
4.918,-12.80,-35.37,-4.31,8.36,-10.72,0.51,
4.919,-12.80,-35.37,-4.31,8.36,-7.26,0.65,
4.92,-12.80,-35.37,-4.31,8.46,-3.75,0.79,
4.923,-12.80,-35.37,-4.31,8.55,-0.81,0.89,
4.925,-5.71,-43.26,9.35,8.55,-0.81,0.89,
4.929,-5.71,-43.26,9.35,8.50,1.84,0.99,
4.931,-5.71,-43.26,9.35,8.44,2.24,1.02,
4.931,-5.71,-43.26,9.35,8.32,2.43,1.13,
4.931,-5.71,-43.26,9.35,8.16,1.94,1.34,
4.934,-5.71,-43.26,9.35,7.94,1.03,1.56,
4.935,-7.11,-24.05,9.09,7.94,1.03,1.56,
4.936,-7.11,-24.05,9.09,7.50,-0.66,1.81,
4.936,-7.11,-24.05,9.09,7.30,-1.22,1.85,
4.94,-7.11,-24.05,9.09,6.81,-2.23,1.85,
4.941,-7.11,-24.05,9.09,6.19,-3.03,1.69,
4.945,-7.11,-24.05,9.09,5.44,-3.50,1.43,
4.946,-8.77,-7.97,3.87,5.44,-3.50,1.43,
4.947,-8.77,-7.97,3.87,4.07,-3.45,0.87,
4.947,-8.77,-7.97,3.87,3.58,-3.26,0.64,
4.95,-8.77,-7.97,3.87,2.63,-2.64,0.14,
4.961,-8.77,-7.97,3.87,1.81,-1.93,-0.39,
4.962,-8.77,-7.97,3.87,1.21,-1.36,-0.85,
4.962,-1.16,-6.02,4.38,1.21,-1.36,-0.85,
4.963,-1.16,-6.02,4.38,0.88,-1.03,-1.27,
4.963,-1.16,-6.02,4.38,0.94,-1.00,-1.33,
4.963,-1.16,-6.02,4.38,1.43,-0.92,-1.38,
4.964,-1.16,-6.02,4.38,2.57,-0.91,-1.30,
4.964,-1.16,-6.02,4.38,4.26,-1.06,-1.12,
4.964,0.57,-12.25,10.59,4.26,-1.06,-1.12,
4.968,0.57,-12.25,10.59,5.81,-0.62,-0.76,
4.968,0.57,-12.25,10.59,6.04,-0.39,-0.66,
4.969,0.57,-12.25,10.59,6.39,-0.05,-0.50,
4.97,0.57,-12.25,10.59,6.73,0.23,-0.34,
4.973,0.57,-12.25,10.59,7.05,0.48,-0.21,
4.974,1.18,-9.70,4.15,7.05,0.48,-0.21,
5.0,1.18,-9.70,4.15,7.40,0.77,-0.11,
5.0,1.18,-9.70,4.15,7.46,0.85,-0.10,
5.001,1.18,-9.70,4.15,7.53,0.94,-0.09,
5.001,1.18,-9.70,4.15,7.55,0.99,-0.07,
5.002,1.18,-9.70,4.15,7.54,0.98,-0.02,
5.002,-2.35,-4.68,2.32,7.54,0.98,-0.02,
5.003,-2.35,-4.68,2.32,7.50,0.91,0.06,
5.003,-2.35,-4.68,2.32,7.49,0.89,0.09,
5.004,-2.35,-4.68,2.32,7.44,0.85,0.17,
5.004,-2.35,-4.68,2.32,7.39,0.82,0.23,
5.005,-2.35,-4.68,2.32,7.33,0.73,0.28,
5.005,-2.98,-3.28,5.42,7.33,0.73,0.28,
5.006,-2.98,-3.28,5.42,7.21,0.44,0.34,
5.006,-2.98,-3.28,5.42,7.15,0.31,0.36,
