
time,ax,ay,az,wx,wy,wz,
0.004,-0.57,-0.06,-0.97,-0.60,0.16,-0.05,
0.004,-0.57,-0.06,-0.97,-0.64,0.15,-0.04,
0.005,-0.58,-0.16,-1.06,-0.64,0.15,-0.04,
0.005,-0.58,-0.16,-1.06,-0.69,0.14,-0.02,
0.005,-0.58,-0.16,-1.06,-0.76,0.10,0.00,
0.006,-0.58,-0.16,-1.06,-0.78,0.09,0.01,
0.006,-0.58,-0.16,-1.06,-0.81,0.07,0.02,
0.006,-0.58,-0.16,-1.06,-0.84,0.04,0.03,
0.007,-0.42,-0.19,-0.46,-0.84,0.04,0.03,
0.007,-0.42,-0.19,-0.46,-0.87,0.01,0.03,
0.017,-0.42,-0.19,-0.46,-0.90,-0.02,0.04,
0.017,-0.42,-0.19,-0.46,-0.90,-0.03,0.03,
0.018,-0.42,-0.19,-0.46,-0.92,-0.05,0.03,
0.018,-0.42,-0.19,-0.46,-0.92,-0.06,0.03,
0.018,-0.25,-0.09,0.47,-0.92,-0.06,0.03,
0.019,-0.25,-0.09,0.47,-0.93,-0.07,0.02,
0.035,-0.25,-0.09,0.47,-0.92,-0.08,0.01,
0.036,-0.25,-0.09,0.47,-0.92,-0.08,0.00,
0.036,-0.25,-0.09,0.47,-0.91,-0.08,-0.01,
0.036,-0.25,-0.09,0.47,-0.90,-0.08,-0.02,
0.037,-0.17,0.09,1.29,-0.90,-0.08,-0.02,
0.037,-0.17,0.09,1.29,-0.88,-0.07,-0.04,
0.037,-0.17,0.09,1.29,-0.85,-0.05,-0.06,
0.038,-0.17,0.09,1.29,-0.85,-0.05,-0.07,
0.038,-0.17,0.09,1.29,-0.83,-0.03,-0.08,
0.038,-0.17,0.09,1.29,-0.81,-0.01,-0.09,
0.039,-0.15,0.18,1.66,-0.81,-0.01,-0.09,
0.039,-0.15,0.18,1.66,-0.79,0.01,-0.11,
0.054,-0.15,0.18,1.66,-0.76,0.03,-0.12,
0.055,-0.15,0.18,1.66,-0.75,0.04,-0.13,
0.056,-0.15,0.18,1.66,-0.74,0.05,-0.14,
0.056,-0.15,0.18,1.66,-0.72,0.05,-0.15,
0.056,-0.26,0.24,1.73,-0.72,0.05,-0.15,
0.057,-0.26,0.24,1.73,-0.70,0.05,-0.16,
0.057,-0.26,0.24,1.73,-0.68,0.03,-0.17,
0.057,-0.26,0.24,1.73,-0.67,0.03,-0.18,
0.057,-0.26,0.24,1.73,-0.66,0.01,-0.18,
0.058,-0.26,0.24,1.73,-0.65,-0.01,-0.19,
0.058,-0.50,0.26,1.75,-0.65,-0.01,-0.19,
0.058,-0.50,0.26,1.75,-0.63,-0.02,-0.20,
0.078,-0.50,0.26,1.75,-0.61,-0.06,-0.20,
0.08,-0.50,0.26,1.75,-0.60,-0.06,-0.20,
0.081,-0.50,0.26,1.75,-0.59,-0.08,-0.20,
0.083,-0.50,0.26,1.75,-0.57,-0.10,-0.20,
0.084,-0.68,0.23,1.64,-0.57,-0.10,-0.20,
0.085,-0.68,0.23,1.64,-0.56,-0.12,-0.20,
0.088,-0.68,0.23,1.64,-0.54,-0.15,-0.20,
0.089,-0.68,0.23,1.64,-0.53,-0.16,-0.20,
0.089,-0.68,0.23,1.64,-0.51,-0.18,-0.20,
0.09,-0.68,0.23,1.64,-0.50,-0.20,-0.19,
0.092,-0.70,0.17,1.46,-0.50,-0.20,-0.19,
0.092,-0.70,0.17,1.46,-0.49,-0.22,-0.19,
0.093,-0.70,0.17,1.46,-0.48,-0.25,-0.19,
0.094,-0.70,0.17,1.46,-0.47,-0.26,-0.18,
0.115,-0.70,0.17,1.46,-0.47,-0.28,-0.18,
0.117,-0.70,0.17,1.46,-0.46,-0.30,-0.18,
0.119,-0.66,0.06,1.15,-0.46,-0.30,-0.18,
0.12,-0.66,0.06,1.15,-0.46,-0.32,-0.17,
0.12,-0.66,0.06,1.15,-0.46,-0.35,-0.17,
0.122,-0.66,0.06,1.15,-0.46,-0.37,-0.17,
0.124,-0.66,0.06,1.15,-0.45,-0.39,-0.16,
0.127,-0.66,0.06,1.15,-0.46,-0.41,-0.16,
0.13,-0.47,0.05,0.87,-0.46,-0.41,-0.16,
0.132,-0.47,0.05,0.87,-0.45,-0.43,-0.16,
0.133,-0.47,0.05,0.87,-0.45,-0.46,-0.15,
0.135,-0.47,0.05,0.87,-0.45,-0.46,-0.15,
0.136,-0.47,0.05,0.87,-0.44,-0.46,-0.15,
0.139,-0.47,0.05,0.87,-0.43,-0.46,-0.14,
0.139,-0.21,0.07,0.83,-0.43,-0.46,-0.14,
0.141,-0.21,0.07,0.83,-0.42,-0.46,-0.14,
0.143,-0.21,0.07,0.83,-0.40,-0.47,-0.14,
0.145,-0.21,0.07,0.83,-0.39,-0.48,-0.14,
0.147,-0.21,0.07,0.83,-0.38,-0.49,-0.14,
0.148,-0.21,0.07,0.83,-0.37,-0.51,-0.14,
0.149,0.18,0.04,0.92,-0.37,-0.51,-0.14,
0.15,0.18,0.04,0.92,-0.36,-0.51,-0.15,
0.151,0.18,0.04,0.92,-0.35,-0.52,-0.16,
0.154,0.18,0.04,0.92,-0.35,-0.52,-0.17,
0.156,0.18,0.04,0.92,-0.35,-0.51,-0.18,
0.158,0.18,0.04,0.92,-0.35,-0.51,-0.20,
0.159,0.62,0.06,0.58,-0.35,-0.51,-0.20,
0.161,0.62,0.06,0.58,-0.36,-0.51,-0.22,
0.164,0.62,0.06,0.58,-0.38,-0.52,-0.24,
0.165,0.62,0.06,0.58,-0.38,-0.52,-0.25,
0.166,0.62,0.06,0.58,-0.40,-0.53,-0.27,
0.167,0.62,0.06,0.58,-0.41,-0.54,-0.30,
0.169,0.85,0.15,0.61,-0.41,-0.54,-0.30,
0.169,0.85,0.15,0.61,-0.43,-0.56,-0.32,
0.17,0.85,0.15,0.61,-0.45,-0.58,-0.36,
0.17,0.85,0.15,0.61,-0.46,-0.58,-0.38,
0.17,0.85,0.15,0.61,-0.47,-0.59,-0.41,
0.171,0.85,0.15,0.61,-0.49,-0.60,-0.44,
0.171,0.75,0.41,1.10,-0.49,-0.60,-0.44,
0.172,0.75,0.41,1.10,-0.51,-0.60,-0.47,
0.172,0.75,0.41,1.10,-0.54,-0.59,-0.51,
0.172,0.75,0.41,1.10,-0.55,-0.58,-0.53,
0.173,0.75,0.41,1.10,-0.57,-0.56,-0.56,
0.173,0.75,0.41,1.10,-0.58,-0.54,-0.59,
0.174,0.47,0.49,1.36,-0.58,-0.54,-0.59,
0.174,0.47,0.49,1.36,-0.61,-0.49,-0.62,
0.174,0.47,0.49,1.36,-0.62,-0.44,-0.65,
0.175,0.47,0.49,1.36,-0.63,-0.42,-0.66,
0.175,0.47,0.49,1.36,-0.64,-0.36,-0.68,
0.176,0.47,0.49,1.36,-0.64,-0.29,-0.69,
0.176,0.18,0.33,1.54,-0.64,-0.29,-0.69,
0.176,0.18,0.33,1.54,-0.65,-0.22,-0.70,
0.177,0.18,0.33,1.54,-0.64,-0.12,-0.71,
0.177,0.18,0.33,1.54,-0.64,-0.09,-0.70,
0.177,0.18,0.33,1.54,-0.65,-0.01,-0.70,
0.178,0.18,0.33,1.54,-0.66,0.09,-0.70,
0.178,-0.05,-0.11,1.24,-0.66,0.09,-0.70,
0.179,-0.05,-0.11,1.24,-0.68,0.21,-0.69,
0.188,-0.05,-0.11,1.24,-0.74,0.41,-0.68,
0.189,-0.05,-0.11,1.24,-0.75,0.47,-0.68,
0.189,-0.05,-0.11,1.24,-0.78,0.57,-0.66,
0.189,-0.05,-0.11,1.24,-0.80,0.65,-0.64,
0.19,-0.06,-0.74,0.27,-0.80,0.65,-0.64,
0.19,-0.06,-0.74,0.27,-0.81,0.72,-0.62,
0.191,-0.06,-0.74,0.27,-0.83,0.82,-0.57,
0.193,-0.06,-0.74,0.27,-0.83,0.86,-0.56,
0.193,-0.06,-0.74,0.27,-0.84,0.93,-0.52,
0.196,-0.06,-0.74,0.27,-0.85,1.00,-0.49,
0.205,-0.43,-1.12,-0.39,-0.85,1.00,-0.49,
0.206,-0.43,-1.12,-0.39,-0.86,1.06,-0.46,
0.206,-0.43,-1.12,-0.39,-0.89,1.13,-0.41,
0.206,-0.43,-1.12,-0.39,-0.90,1.14,-0.39,
0.207,-0.43,-1.12,-0.39,-0.93,1.15,-0.36,
0.207,-0.43,-1.12,-0.39,-0.96,1.14,-0.33,
0.207,-0.83,-1.39,-1.06,-0.96,1.14,-0.33,
0.208,-0.83,-1.39,-1.06,-1.00,1.12,-0.30,
0.212,-0.83,-1.39,-1.06,-1.07,1.06,-0.27,
0.213,-0.83,-1.39,-1.06,-1.10,1.03,-0.25,
0.213,-0.83,-1.39,-1.06,-1.15,0.96,-0.23,
0.222,-0.83,-1.39,-1.06,-1.20,0.89,-0.21,
0.223,-1.18,-1.22,-1.28,-1.20,0.89,-0.21,
0.224,-1.18,-1.22,-1.28,-1.25,0.83,-0.19,
0.224,-1.18,-1.22,-1.28,-1.33,0.74,-0.16,
0.224,-1.18,-1.22,-1.28,-1.35,0.71,-0.15,
0.224,-1.18,-1.22,-1.28,-1.40,0.67,-0.14,
0.225,-1.18,-1.22,-1.28,-1.45,0.65,-0.12,
0.229,-1.28,-0.86,-1.14,-1.45,0.65,-0.12,
0.23,-1.28,-0.86,-1.14,-1.49,0.64,-0.11,
0.23,-1.28,-0.86,-1.14,-1.55,0.64,-0.10,
0.25,-1.28,-0.86,-1.14,-1.57,0.65,-0.10,
0.251,-1.28,-0.86,-1.14,-1.61,0.66,-0.10,
0.251,-1.28,-0.86,-1.14,-1.64,0.68,-0.10,
0.252,-0.91,-0.50,-1.04,-1.64,0.68,-0.10,
0.252,-0.91,-0.50,-1.04,-1.68,0.71,-0.10,
0.252,-0.91,-0.50,-1.04,-1.74,0.75,-0.11,
0.253,-0.91,-0.50,-1.04,-1.76,0.77,-0.12,
0.253,-0.91,-0.50,-1.04,-1.81,0.80,-0.13,
0.253,-0.91,-0.50,-1.04,-1.86,0.83,-0.14,
0.254,-0.35,-0.29,-1.18,-1.86,0.83,-0.14,
0.254,-0.35,-0.29,-1.18,-1.91,0.87,-0.16,
0.282,-0.35,-0.29,-1.18,-1.98,0.95,-0.18,
0.282,-0.35,-0.29,-1.18,-2.00,0.98,-0.18,
0.283,-0.35,-0.29,-1.18,-2.05,1.02,-0.20,
0.283,-0.35,-0.29,-1.18,-2.11,1.07,-0.22,
0.284,0.05,-0.07,-1.43,-2.11,1.07,-0.22,
0.284,0.05,-0.07,-1.43,-2.16,1.12,-0.23,
0.284,0.05,-0.07,-1.43,-2.24,1.18,-0.25,
0.285,0.05,-0.07,-1.43,-2.26,1.20,-0.26,
0.285,0.05,-0.07,-1.43,-2.31,1.24,-0.27,
0.286,0.05,-0.07,-1.43,-2.35,1.26,-0.27,
0.286,0.07,0.01,-1.32,-2.35,1.26,-0.27,
0.287,0.07,0.01,-1.32,-2.39,1.29,-0.27,
0.287,0.07,0.01,-1.32,-2.42,1.33,-0.27,
0.288,0.07,0.01,-1.32,-2.43,1.34,-0.27,
0.288,0.07,0.01,-1.32,-2.45,1.35,-0.26,
0.288,0.07,0.01,-1.32,-2.46,1.35,-0.25,
0.289,-0.33,0.15,-0.79,-2.46,1.35,-0.25,
0.289,-0.33,0.15,-0.79,-2.46,1.34,-0.24,
0.29,-0.33,0.15,-0.79,-2.46,1.30,-0.22,
0.29,-0.33,0.15,-0.79,-2.46,1.28,-0.21,
0.291,-0.33,0.15,-0.79,-2.46,1.22,-0.19,
0.291,-0.33,0.15,-0.79,-2.45,1.15,-0.18,
0.291,-0.56,0.19,-0.63,-2.45,1.15,-0.18,
0.292,-0.56,0.19,-0.63,-2.44,1.06,-0.17,
0.292,-0.56,0.19,-0.63,-2.43,0.92,-0.15,
0.293,-0.56,0.19,-0.63,-2.42,0.86,-0.14,
0.293,-0.56,0.19,-0.63,-2.41,0.74,-0.13,
0.298,-0.56,0.19,-0.63,-2.40,0.62,-0.12,
0.298,-0.40,0.23,-0.67,-2.40,0.62,-0.12,
0.299,-0.40,0.23,-0.67,-2.38,0.50,-0.10,
0.301,-0.40,0.23,-0.67,-2.36,0.30,-0.09,
0.301,-0.40,0.23,-0.67,-2.36,0.23,-0.08,
0.303,-0.40,0.23,-0.67,-2.34,0.09,-0.08,
0.305,-0.40,0.23,-0.67,-2.33,-0.05,-0.07,
0.307,0.03,0.24,-0.62,-2.33,-0.05,-0.07,
0.308,0.03,0.24,-0.62,-2.30,-0.19,-0.06,
0.31,0.03,0.24,-0.62,-2.27,-0.40,-0.05,
0.318,0.03,0.24,-0.62,-2.25,-0.47,-0.05,
0.319,0.03,0.24,-0.62,-2.22,-0.60,-0.05,
0.319,0.03,0.24,-0.62,-2.18,-0.72,-0.04,
0.32,0.26,0.28,-0.09,-2.18,-0.72,-0.04,
0.32,0.26,0.28,-0.09,-2.15,-0.84,-0.04,
0.321,0.26,0.28,-0.09,-2.08,-1.04,-0.02,
0.321,0.26,0.28,-0.09,-2.06,-1.11,-0.01,
0.323,0.26,0.28,-0.09,-2.00,-1.25,0.00,
0.327,0.26,0.28,-0.09,-1.95,-1.38,0.02,
0.328,0.58,0.42,0.49,-1.95,-1.38,0.02,
0.328,0.58,0.42,0.49,-1.90,-1.50,0.03,
0.332,0.58,0.42,0.49,-1.83,-1.67,0.04,
0.333,0.58,0.42,0.49,-1.81,-1.72,0.05,
0.333,0.58,0.42,0.49,-1.76,-1.81,0.06,
0.335,0.58,0.42,0.49,-1.72,-1.91,0.07,
0.337,0.44,0.40,0.99,-1.72,-1.91,0.07,
0.337,0.44,0.40,0.99,-1.67,-2.00,0.07,
0.342,0.44,0.40,0.99,-1.60,-2.13,0.09,
0.343,0.44,0.40,0.99,-1.58,-2.17,0.09,
0.343,0.44,0.40,0.99,-1.54,-2.24,0.10,
0.346,0.44,0.40,0.99,-1.50,-2.29,0.11,
0.347,0.17,0.45,1.15,-1.50,-2.29,0.11,
0.347,0.17,0.45,1.15,-1.46,-2.32,0.12,
0.356,0.17,0.45,1.15,-1.40,-2.28,0.16,
0.356,0.17,0.45,1.15,-1.40,-2.28,0.16,
0.357,0.17,0.45,1.15,-1.40,-2.28,0.16,
0.357,0.17,0.45,1.15,-1.38,-2.21,0.17,
0.357,-0.30,0.38,0.74,-1.38,-2.21,0.17,
0.358,-0.30,0.38,0.74,-1.37,-2.12,0.18,
0.373,-0.30,0.38,0.74,-1.35,-1.98,0.20,
0.374,-0.30,0.38,0.74,-1.34,-1.93,0.21,
0.374,-0.30,0.38,0.74,-1.33,-1.83,0.22,
0.375,-0.30,0.38,0.74,-1.31,-1.73,0.23,
0.375,-0.24,0.35,0.22,-1.31,-1.73,0.23,
0.375,-0.24,0.35,0.22,-1.30,-1.65,0.25,
0.375,-0.24,0.35,0.22,-1.29,-1.54,0.27,
0.376,-0.24,0.35,0.22,-1.29,-1.50,0.28,
0.376,-0.24,0.35,0.22,-1.30,-1.43,0.30,
0.376,-0.24,0.35,0.22,-1.31,-1.38,0.33,
0.407,0.33,0.03,-0.45,-1.31,-1.38,0.33,
0.408,0.33,0.03,-0.45,-1.32,-1.35,0.35,
0.408,0.33,0.03,-0.45,-1.35,-1.31,0.39,
0.408,0.33,0.03,-0.45,-1.37,-1.31,0.40,
0.409,0.33,0.03,-0.45,-1.40,-1.29,0.43,
0.409,0.33,0.03,-0.45,-1.44,-1.29,0.45,
0.409,1.00,-0.07,-0.88,-1.44,-1.29,0.45,
0.41,1.00,-0.07,-0.88,-1.49,-1.29,0.47,
0.41,1.00,-0.07,-0.88,-1.56,-1.28,0.51,
0.41,1.00,-0.07,-0.88,-1.59,-1.28,0.52,
0.411,1.00,-0.07,-0.88,-1.64,-1.27,0.55,
0.411,1.00,-0.07,-0.88,-1.70,-1.27,0.57,
0.411,1.12,0.20,-1.05,-1.70,-1.27,0.57,
0.412,1.12,0.20,-1.05,-1.76,-1.27,0.60,
0.412,1.12,0.20,-1.05,-1.84,-1.27,0.64,
0.412,1.12,0.20,-1.05,-1.87,-1.27,0.66,
0.412,1.12,0.20,-1.05,-1.92,-1.28,0.69,
0.413,1.12,0.20,-1.05,-1.98,-1.29,0.72,
0.413,1.08,0.67,-0.60,-1.98,-1.29,0.72,
0.413,1.08,0.67,-0.60,-2.02,-1.30,0.74,
0.414,1.08,0.67,-0.60,-2.09,-1.33,0.79,
0.414,1.08,0.67,-0.60,-2.11,-1.34,0.81,
0.414,1.08,0.67,-0.60,-2.15,-1.37,0.85,
0.417,1.08,0.67,-0.60,-2.19,-1.40,0.88,
0.466,1.00,1.04,-0.10,-2.19,-1.40,0.88,
0.467,1.00,1.04,-0.10,-2.22,-1.43,0.92,
0.468,1.00,1.04,-0.10,-2.27,-1.48,0.97,
0.468,1.00,1.04,-0.10,-2.28,-1.50,1.00,
0.468,1.00,1.04,-0.10,-2.30,-1.53,1.04,
0.469,1.00,1.04,-0.10,-2.31,-1.57,1.09,
0.469,0.85,1.15,0.05,-2.31,-1.57,1.09,
0.47,0.85,1.15,0.05,-2.33,-1.61,1.13,
0.47,0.85,1.15,0.05,-2.33,-1.67,1.21,
0.471,0.85,1.15,0.05,-2.33,-1.69,1.24,
0.471,0.85,1.15,0.05,-2.33,-1.74,1.29,
0.472,0.85,1.15,0.05,-2.32,-1.79,1.35,
0.472,0.60,0.97,0.01,-2.32,-1.79,1.35,
0.472,0.60,0.97,0.01,-2.31,-1.84,1.41,
0.473,0.60,0.97,0.01,-2.27,-1.94,1.50,
0.473,0.60,0.97,0.01,-2.25,-1.98,1.53,
0.474,0.60,0.97,0.01,-2.21,-2.07,1.59,
0.474,0.60,0.97,0.01,-2.16,-2.16,1.64,
0.475,0.50,0.75,0.17,-2.16,-2.16,1.64,
0.475,0.50,0.75,0.17,-2.11,-2.26,1.69,
0.476,0.50,0.75,0.17,-2.02,-2.42,1.75,
0.476,0.50,0.75,0.17,-1.98,-2.48,1.77,
0.476,0.50,0.75,0.17,-1.91,-2.58,1.81,
0.477,0.50,0.75,0.17,-1.83,-2.69,1.84,
0.477,0.65,0.57,0.34,-1.83,-2.69,1.84,
0.478,0.65,0.57,0.34,-1.75,-2.80,1.86,
0.478,0.65,0.57,0.34,-1.61,-2.96,1.89,
0.479,0.65,0.57,0.34,-1.57,-3.01,1.89,
0.479,0.65,0.57,0.34,-1.48,-3.11,1.90,
0.48,0.65,0.57,0.34,-1.38,-3.21,1.91,
0.48,0.71,0.34,0.57,-1.38,-3.21,1.91,
0.48,0.71,0.34,0.57,-1.28,-3.30,1.91,
0.481,0.71,0.34,0.57,-1.12,-3.44,1.89,
0.481,0.71,0.34,0.57,-1.07,-3.48,1.89,
0.482,0.71,0.34,0.57,-0.96,-3.56,1.88,
0.482,0.71,0.34,0.57,-0.85,-3.62,1.86,
0.483,0.67,0.14,1.03,-0.85,-3.62,1.86,
0.483,0.67,0.14,1.03,-0.74,-3.68,1.84,
0.483,0.67,0.14,1.03,-0.58,-3.74,1.80,
0.484,0.67,0.14,1.03,-0.52,-3.75,1.79,
0.484,0.67,0.14,1.03,-0.41,-3.77,1.76,
0.485,0.67,0.14,1.03,-0.30,-3.77,1.73,
0.488,0.53,-0.01,1.51,-0.30,-3.77,1.73,
0.489,0.53,-0.01,1.51,-0.20,-3.76,1.69,
0.49,0.53,-0.01,1.51,-0.05,-3.71,1.64,
0.491,0.53,-0.01,1.51,0.00,-3.68,1.62,
0.505,0.53,-0.01,1.51,0.10,-3.63,1.58,
0.506,0.53,-0.01,1.51,0.20,-3.48,1.55,
0.506,0.44,-0.23,2.16,0.20,-3.48,1.55,
0.507,0.44,-0.23,2.16,0.28,-3.00,1.53,
0.507,0.44,-0.23,2.16,0.39,-1.34,1.56,
0.508,0.44,-0.23,2.16,0.43,-0.69,1.57,
0.508,0.44,-0.23,2.16,0.54,0.30,1.59,
0.508,0.44,-0.23,2.16,0.67,0.80,1.59,
0.509,1.21,-0.91,5.93,0.67,0.80,1.59,
0.538,1.21,-0.91,5.93,0.88,0.99,1.60,
0.539,1.21,-0.91,5.93,1.00,0.96,1.61,
0.539,1.21,-0.91,5.93,1.06,0.94,1.61,
0.539,1.21,-0.91,5.93,1.15,0.94,1.62,
0.54,1.21,-0.91,5.93,1.23,1.00,1.63,
0.54,2.34,-1.11,3.32,1.23,1.00,1.63,
0.54,2.34,-1.11,3.32,1.31,1.08,1.65,
0.541,2.34,-1.11,3.32,1.44,1.13,1.66,
0.551,2.34,-1.11,3.32,1.48,1.12,1.67,
0.552,2.34,-1.11,3.32,1.57,1.07,1.68,
0.552,2.34,-1.11,3.32,1.67,0.96,1.68,
0.553,3.64,-1.43,1.95,1.67,0.96,1.68,
0.553,3.64,-1.43,1.95,1.76,0.79,1.69,
0.553,3.64,-1.43,1.95,1.90,0.47,1.70,
0.554,3.64,-1.43,1.95,1.95,0.35,1.69,
0.554,3.64,-1.43,1.95,2.03,0.11,1.68,
0.554,3.64,-1.43,1.95,2.10,-0.14,1.66,
0.555,4.11,-1.54,1.74,2.10,-0.14,1.66,
0.555,4.11,-1.54,1.74,2.17,-0.37,1.63,
0.555,4.11,-1.54,1.74,2.25,-0.72,1.56,
0.556,4.11,-1.54,1.74,2.28,-0.83,1.53,
0.556,4.11,-1.54,1.74,2.32,-1.05,1.46,
0.556,4.11,-1.54,1.74,2.35,-1.27,1.38,
0.557,4.98,-0.45,1.22,2.35,-1.27,1.38,
0.557,4.98,-0.45,1.22,2.38,-1.49,1.29,
0.557,4.98,-0.45,1.22,2.41,-1.82,1.13,
0.558,4.98,-0.45,1.22,2.41,-1.93,1.08,
0.558,4.98,-0.45,1.22,2.42,-2.16,0.96,
0.558,4.98,-0.45,1.22,2.43,-2.39,0.83,
0.559,5.30,0.74,-0.15,2.43,-2.39,0.83,
0.559,5.30,0.74,-0.15,2.43,-2.61,0.69,
0.563,5.30,0.74,-0.15,2.45,-2.92,0.47,
0.564,5.30,0.74,-0.15,2.46,-3.11,0.32,
0.565,5.30,0.74,-0.15,2.46,-3.20,0.24,
0.565,5.30,0.74,-0.15,2.48,-3.36,0.09,
0.567,5.02,1.33,-1.71,2.48,-3.36,0.09,
0.567,5.02,1.33,-1.71,2.50,-3.50,-0.06,
0.57,5.02,1.33,-1.71,2.54,-3.67,-0.28,
0.571,5.02,1.33,-1.71,2.56,-3.72,-0.34,
0.573,5.02,1.33,-1.71,2.59,-3.81,-0.47,
0.575,5.02,1.33,-1.71,2.62,-3.90,-0.58,
0.579,3.66,1.45,-2.73,2.62,-3.90,-0.58,
0.58,3.66,1.45,-2.73,2.66,-3.98,-0.67,
0.58,3.66,1.45,-2.73,2.71,-4.11,-0.78,
0.581,3.66,1.45,-2.73,2.72,-4.15,-0.80,
0.628,3.66,1.45,-2.73,2.76,-4.24,-0.84,
0.629,3.66,1.45,-2.73,2.80,-4.34,-0.85,
0.63,1.31,1.22,-3.22,2.80,-4.34,-0.85,
0.631,1.31,1.22,-3.22,2.84,-4.45,-0.85,
0.632,1.31,1.22,-3.22,2.91,-4.62,-0.82,
0.633,1.31,1.22,-3.22,2.96,-4.74,-0.77,
0.633,1.31,1.22,-3.22,2.98,-4.80,-0.74,
0.634,1.31,1.22,-3.22,3.03,-4.92,-0.68,
0.635,-1.55,0.32,-3.39,3.03,-4.92,-0.68,
0.636,-1.55,0.32,-3.39,3.09,-5.04,-0.61,
0.636,-1.55,0.32,-3.39,3.17,-5.22,-0.48,
0.637,-1.55,0.32,-3.39,3.21,-5.28,-0.43,
0.638,-1.55,0.32,-3.39,3.27,-5.40,-0.33,
0.639,-1.55,0.32,-3.39,3.34,-5.52,-0.24,
0.64,-4.18,-0.94,-3.33,3.34,-5.52,-0.24,
0.641,-4.18,-0.94,-3.33,3.41,-5.64,-0.14,
0.641,-4.18,-0.94,-3.33,3.52,-5.82,0.02,
0.642,-4.18,-0.94,-3.33,3.60,-5.95,0.12,
0.643,-4.18,-0.94,-3.33,3.64,-6.01,0.16,
0.644,-4.18,-0.94,-3.33,3.72,-6.14,0.26,
0.645,-5.60,-1.99,-3.18,3.72,-6.14,0.26,
0.646,-5.60,-1.99,-3.18,3.80,-6.28,0.36,
0.647,-5.60,-1.99,-3.18,3.93,-6.48,0.49,
0.648,-5.60,-1.99,-3.18,3.97,-6.54,0.53,
0.649,-5.60,-1.99,-3.18,4.06,-6.68,0.62,
0.649,-5.60,-1.99,-3.18,4.16,-6.81,0.70,
0.65,-6.07,-2.98,-2.74,4.16,-6.81,0.70,
0.651,-6.07,-2.98,-2.74,4.26,-6.95,0.77,
0.652,-6.07,-2.98,-2.74,4.42,-7.14,0.86,
0.653,-6.07,-2.98,-2.74,4.52,-7.26,0.92,
0.654,-6.07,-2.98,-2.74,4.58,-7.32,0.94,
0.654,-6.07,-2.98,-2.74,4.68,-7.44,0.98,
0.655,-5.91,-3.48,-2.71,4.68,-7.44,0.98,
0.656,-5.91,-3.48,-2.71,4.79,-7.56,1.02,
0.657,-5.91,-3.48,-2.71,4.94,-7.72,1.07,
0.659,-5.91,-3.48,-2.71,5.04,-7.83,1.10,
0.66,-5.91,-3.48,-2.71,5.09,-7.88,1.11,
0.661,-5.91,-3.48,-2.71,5.18,-7.98,1.14,
0.666,-5.97,-3.95,-3.03,5.18,-7.98,1.14,
0.667,-5.97,-3.95,-3.03,5.26,-8.07,1.17,
0.668,-5.97,-3.95,-3.03,5.35,-8.18,1.23,
0.67,-5.97,-3.95,-3.03,5.39,-8.22,1.29,
0.671,-5.97,-3.95,-3.03,5.40,-8.23,1.33,
0.673,-5.97,-3.95,-3.03,5.41,-8.22,1.42,
0.673,-6.70,-4.14,-4.30,5.41,-8.22,1.42,
0.674,-6.70,-4.14,-4.30,5.39,-8.19,1.53,
0.676,-6.70,-4.14,-4.30,5.37,-8.17,1.69,
0.677,-6.70,-4.14,-4.30,5.37,-8.18,1.73,
0.677,-6.70,-4.14,-4.30,5.38,-8.22,1.81,
0.679,-6.70,-4.14,-4.30,5.40,-8.27,1.87,
0.679,-7.28,-4.97,-4.11,5.40,-8.27,1.87,
0.68,-7.28,-4.97,-4.11,5.41,-8.32,1.93,
0.681,-7.28,-4.97,-4.11,5.44,-8.39,2.03,
0.681,-7.28,-4.97,-4.11,5.44,-8.41,2.06,
0.682,-7.28,-4.97,-4.11,5.45,-8.46,2.13,
0.683,-7.28,-4.97,-4.11,5.45,-8.52,2.21,
0.684,-7.58,-5.81,-3.02,5.45,-8.52,2.21,
0.685,-7.58,-5.81,-3.02,5.45,-8.57,2.28,
0.686,-7.58,-5.81,-3.02,5.45,-8.63,2.39,
0.687,-7.58,-5.81,-3.02,5.45,-8.64,2.43,
0.688,-7.58,-5.81,-3.02,5.46,-8.65,2.52,
0.689,-7.58,-5.81,-3.02,5.46,-8.64,2.60,
0.689,-7.91,-6.15,-1.66,5.46,-8.64,2.60,
0.69,-7.91,-6.15,-1.66,5.46,-8.60,2.71,
0.691,-7.91,-6.15,-1.66,5.48,-8.50,2.88,
0.692,-7.91,-6.15,-1.66,5.49,-8.40,3.00,
0.694,-7.91,-6.15,-1.66,5.50,-8.34,3.07,
0.696,-7.91,-6.15,-1.66,5.52,-8.20,3.21,
0.7,-8.18,-6.15,0.12,5.52,-8.20,3.21,
0.702,-8.18,-6.15,0.12,5.54,-8.03,3.36,
0.707,-8.18,-6.15,0.12,5.57,-7.74,3.60,
0.709,-8.18,-6.15,0.12,5.58,-7.63,3.68,
0.711,-8.18,-6.15,0.12,5.59,-7.39,3.84,
0.712,-8.18,-6.15,0.12,5.61,-7.11,4.01,
0.713,-7.62,-6.11,2.19,5.61,-7.11,4.01,
0.716,-7.62,-6.11,2.19,5.62,-6.80,4.17,
0.716,-7.62,-6.11,2.19,5.61,-6.29,4.41,
0.717,-7.62,-6.11,2.19,5.61,-6.11,4.48,
0.717,-7.62,-6.11,2.19,5.60,-5.73,4.62,
0.718,-7.62,-6.11,2.19,5.57,-5.35,4.75,
0.719,-4.38,-5.54,3.07,5.57,-5.35,4.75,
0.719,-4.38,-5.54,3.07,5.54,-4.95,4.86,
0.722,-4.38,-5.54,3.07,5.47,-4.36,5.00,
0.725,-4.38,-5.54,3.07,5.44,-4.17,5.04,
0.726,-4.38,-5.54,3.07,5.37,-3.80,5.09,
0.727,-4.38,-5.54,3.07,5.30,-3.45,5.12,
0.73,1.26,-5.09,3.07,5.30,-3.45,5.12,
0.731,1.26,-5.09,3.07,5.21,-3.12,5.12,
0.732,1.26,-5.09,3.07,5.08,-2.66,5.06,
0.732,1.26,-5.09,3.07,5.04,-2.51,5.03,
0.734,1.26,-5.09,3.07,4.95,-2.23,4.94,
0.735,1.26,-5.09,3.07,4.85,-1.97,4.83,
0.752,7.66,-3.48,3.09,4.85,-1.97,4.83,
0.754,7.66,-3.48,3.09,4.76,-1.72,4.70,
0.755,7.66,-3.48,3.09,4.62,-1.35,4.47,
0.756,7.66,-3.48,3.09,4.54,-1.12,4.31,
0.757,7.66,-3.48,3.09,4.50,-1.00,4.23,
0.759,7.66,-3.48,3.09,4.43,-0.79,4.08,
0.76,10.72,-1.32,2.68,4.43,-0.79,4.08,
0.761,10.72,-1.32,2.68,4.36,-0.58,3.93,
0.802,10.72,-1.32,2.68,4.26,-0.30,3.74,
0.802,10.72,-1.32,2.68,4.23,-0.21,3.68,
0.803,10.72,-1.32,2.68,4.18,-0.04,3.57,
0.803,10.72,-1.32,2.68,4.12,0.12,3.48,
0.804,9.45,-0.10,1.96,4.12,0.12,3.48,
0.804,9.45,-0.10,1.96,4.07,0.25,3.40,
0.805,9.45,-0.10,1.96,3.99,0.43,3.30,
0.805,9.45,-0.10,1.96,3.96,0.48,3.27,
0.806,9.45,-0.10,1.96,3.91,0.57,3.21,
0.806,9.45,-0.10,1.96,3.86,0.64,3.16,
0.807,7.07,0.75,0.76,3.86,0.64,3.16,
0.807,7.07,0.75,0.76,3.81,0.69,3.11,
0.808,7.07,0.75,0.76,3.74,0.74,3.05,
0.808,7.07,0.75,0.76,3.71,0.75,3.04,
0.808,7.07,0.75,0.76,3.66,0.75,3.01,
0.809,7.07,0.75,0.76,3.62,0.75,2.98,
0.809,5.10,1.29,-0.32,3.62,0.75,2.98,
0.81,5.10,1.29,-0.32,3.57,0.74,2.96,
0.81,5.10,1.29,-0.32,3.51,0.70,2.95,
0.811,5.10,1.29,-0.32,3.48,0.69,2.95,
0.811,5.10,1.29,-0.32,3.43,0.65,2.95,
0.811,5.10,1.29,-0.32,3.39,0.61,2.95,
0.812,4.14,1.87,-1.37,3.39,0.61,2.95,
0.812,4.14,1.87,-1.37,3.33,0.57,2.95,
0.813,4.14,1.87,-1.37,3.25,0.49,2.95,
0.813,4.14,1.87,-1.37,3.19,0.44,2.93,
0.814,4.14,1.87,-1.37,3.16,0.41,2.93,
0.814,4.14,1.87,-1.37,3.10,0.35,2.90,
0.814,4.90,2.85,-2.19,3.10,0.35,2.90,
0.815,4.90,2.85,-2.19,3.03,0.30,2.87,
0.815,4.90,2.85,-2.19,2.93,0.21,2.81,
0.816,4.90,2.85,-2.19,2.87,0.16,2.77,
0.816,4.90,2.85,-2.19,2.84,0.13,2.74,
0.817,4.90,2.85,-2.19,2.77,0.08,2.69,
0.817,6.13,3.69,-2.84,2.77,0.08,2.69,
0.817,6.13,3.69,-2.84,2.71,0.02,2.63,
0.818,6.13,3.69,-2.84,2.63,-0.06,2.54,
0.818,6.13,3.69,-2.84,2.58,-0.12,2.48,
0.819,6.13,3.69,-2.84,2.55,-0.15,2.45,
0.819,6.13,3.69,-2.84,2.50,-0.21,2.38,
0.82,6.93,4.12,-2.89,2.50,-0.21,2.38,
0.82,6.93,4.12,-2.89,2.46,-0.26,2.32,
0.821,6.93,4.12,-2.89,2.39,-0.33,2.22,
0.821,6.93,4.12,-2.89,2.36,-0.37,2.16,
0.824,6.93,4.12,-2.89,2.34,-0.39,2.14,
0.825,6.93,4.12,-2.89,2.30,-0.41,2.09,
0.827,6.56,4.06,-2.90,2.30,-0.41,2.09,
0.827,6.56,4.06,-2.90,2.26,-0.43,2.04,
0.832,6.56,4.06,-2.90,2.20,-0.46,1.99,
0.833,6.56,4.06,-2.90,2.16,-0.47,1.96,
0.834,6.56,4.06,-2.90,2.14,-0.47,1.95,
0.837,6.56,4.06,-2.90,2.10,-0.48,1.93,
0.838,5.23,3.52,-3.16,2.10,-0.48,1.93,
0.839,5.23,3.52,-3.16,2.05,-0.48,1.92,
0.842,5.23,3.52,-3.16,1.99,-0.49,1.91,
0.843,5.23,3.52,-3.16,1.94,-0.49,1.91,
0.843,5.23,3.52,-3.16,1.92,-0.49,1.92,
0.855,5.23,3.52,-3.16,1.88,-0.48,1.92,
0.856,4.14,3.06,-3.55,1.88,-0.48,1.92,
0.856,4.14,3.06,-3.55,1.84,-0.47,1.92,
0.857,4.14,3.06,-3.55,1.78,-0.46,1.93,
0.857,4.14,3.06,-3.55,1.75,-0.45,1.93,
0.857,4.14,3.06,-3.55,1.73,-0.45,1.94,
0.858,4.14,3.06,-3.55,1.70,-0.44,1.94,
0.858,3.52,2.34,-3.46,1.70,-0.44,1.94,
0.884,3.52,2.34,-3.46,1.67,-0.44,1.94,
0.885,3.52,2.34,-3.46,1.63,-0.44,1.95,
0.886,3.52,2.34,-3.46,1.62,-0.43,1.94,
0.886,3.52,2.34,-3.46,1.62,-0.44,1.94,
0.886,3.52,2.34,-3.46,1.60,-0.45,1.94,
0.887,3.18,1.85,-3.50,1.60,-0.45,1.94,
0.887,3.18,1.85,-3.50,1.58,-0.46,1.94,
0.887,3.18,1.85,-3.50,1.55,-0.48,1.95,
0.888,3.18,1.85,-3.50,1.53,-0.49,1.95,
0.888,3.18,1.85,-3.50,1.52,-0.49,1.95,
0.888,3.18,1.85,-3.50,1.49,-0.51,1.95,
0.889,2.71,1.42,-3.60,1.49,-0.51,1.95,
0.889,2.71,1.42,-3.60,1.47,-0.52,1.96,
0.889,2.71,1.42,-3.60,1.43,-0.54,1.97,
0.89,2.71,1.42,-3.60,1.40,-0.54,1.98,
0.89,2.71,1.42,-3.60,1.38,-0.55,1.99,
0.89,2.71,1.42,-3.60,1.34,-0.57,2.00,
0.89,1.94,0.81,-4.15,1.34,-0.57,2.00,
0.891,1.94,0.81,-4.15,1.30,-0.57,2.01,
0.891,1.94,0.81,-4.15,1.23,-0.57,2.03,
0.891,1.94,0.81,-4.15,1.18,-0.57,2.04,
0.896,1.94,0.81,-4.15,1.16,-0.57,2.05,
0.898,1.94,0.81,-4.15,1.12,-0.57,2.08,
0.899,0.87,0.56,-4.75,1.12,-0.57,2.08,
0.9,0.87,0.56,-4.75,1.07,-0.58,2.10,
0.9,0.87,0.56,-4.75,1.00,-0.61,2.15,
0.901,0.87,0.56,-4.75,0.96,-0.63,2.19,
0.903,0.87,0.56,-4.75,0.94,-0.65,2.21,
0.907,0.87,0.56,-4.75,0.90,-0.68,2.25,
0.908,-0.34,0.11,-5.08,0.90,-0.68,2.25,
0.908,-0.34,0.11,-5.08,0.85,-0.72,2.30,
0.918,-0.34,0.11,-5.08,0.79,-0.78,2.38,
0.919,-0.34,0.11,-5.08,0.76,-0.82,2.44,
0.92,-0.34,0.11,-5.08,0.74,-0.85,2.47,
0.92,-0.34,0.11,-5.08,0.70,-0.89,2.54,
0.945,-1.88,-0.87,-4.73,0.70,-0.89,2.54,
0.946,-1.88,-0.87,-4.73,0.67,-0.94,2.61,
0.946,-1.88,-0.87,-4.73,0.63,-1.01,2.72,
0.947,-1.88,-0.87,-4.73,0.61,-1.06,2.80,
0.947,-1.88,-0.87,-4.73,0.60,-1.08,2.84,
0.948,-1.88,-0.87,-4.73,0.58,-1.14,2.92,
0.948,-3.19,-1.83,-4.11,0.58,-1.14,2.92,
0.948,-3.19,-1.83,-4.11,0.56,-1.20,3.00,
0.949,-3.19,-1.83,-4.11,0.54,-1.31,3.13,
0.949,-3.19,-1.83,-4.11,0.52,-1.39,3.21,
0.95,-3.19,-1.83,-4.11,0.52,-1.43,3.25,
0.95,-3.19,-1.83,-4.11,0.51,-1.53,3.32,
0.951,-3.54,-2.30,-3.38,0.51,-1.53,3.32,
0.951,-3.54,-2.30,-3.38,0.51,-1.63,3.39,
0.952,-3.54,-2.30,-3.38,0.51,-1.80,3.48,
0.952,-3.54,-2.30,-3.38,0.51,-1.92,3.54,
0.952,-3.54,-2.30,-3.38,0.52,-1.99,3.56,
0.953,-3.54,-2.30,-3.38,0.54,-2.12,3.60,
0.953,-2.53,-2.51,-2.54,0.54,-2.12,3.60,
0.954,-2.53,-2.51,-2.54,0.56,-2.26,3.64,
0.954,-2.53,-2.51,-2.54,0.63,-2.42,3.65,
0.955,-2.53,-2.51,-2.54,0.72,-2.48,3.58,
0.955,-2.53,-2.51,-2.54,0.76,-2.51,3.53,
0.955,-2.53,-2.51,-2.54,0.88,-2.55,3.44,
0.958,3.03,-2.37,0.33,0.88,-2.55,3.44,
0.959,3.03,-2.37,0.33,1.00,-2.57,3.34,
0.96,3.03,-2.37,0.33,1.20,-2.59,3.20,
0.961,3.03,-2.37,0.33,1.32,-2.60,3.12,
0.963,3.03,-2.37,0.33,1.37,-2.60,3.07,
0.965,3.03,-2.37,0.33,1.47,-2.59,2.99,
0.967,6.40,-1.75,2.77,1.47,-2.59,2.99,
0.968,6.40,-1.75,2.77,1.54,-2.57,2.91,
0.97,6.40,-1.75,2.77,1.62,-2.54,2.80,
0.973,6.40,-1.75,2.77,1.64,-2.50,2.73,
0.974,6.40,-1.75,2.77,1.64,-2.47,2.70,
0.977,6.40,-1.75,2.77,1.64,-2.41,2.64,
0.979,7.35,-1.06,1.52,1.64,-2.41,2.64,
0.979,7.35,-1.06,1.52,1.61,-2.32,2.59,
0.98,7.35,-1.06,1.52,1.52,-2.15,2.50,
0.981,7.35,-1.06,1.52,1.43,-2.00,2.45,
0.983,7.35,-1.06,1.52,1.38,-1.91,2.42,
0.985,7.35,-1.06,1.52,1.26,-1.71,2.38,
0.987,7.24,-0.32,-2.16,1.26,-1.71,2.38,
0.988,7.24,-0.32,-2.16,1.11,-1.48,2.34,
0.99,7.24,-0.32,-2.16,0.86,-1.09,2.30,
0.991,7.24,-0.32,-2.16,0.66,-0.81,2.28,
0.993,7.24,-0.32,-2.16,0.56,-0.67,2.28,
0.995,7.24,-0.32,-2.16,0.33,-0.37,2.27,
0.998,6.38,0.33,-6.18,0.33,-0.37,2.27,
0.998,6.38,0.33,-6.18,0.11,-0.06,2.26,
1.001,6.38,0.33,-6.18,-0.22,0.39,2.25,
1.002,6.38,0.33,-6.18,-0.44,0.69,2.25,
1.003,6.38,0.33,-6.18,-0.54,0.83,2.26,
1.007,6.38,0.33,-6.18,-0.73,1.12,2.26,
1.008,5.19,0.95,-7.24,-0.73,1.12,2.26,
1.008,5.19,0.95,-7.24,-0.90,1.38,2.27,
1.01,5.19,0.95,-7.24,-1.12,1.73,2.31,
1.011,5.19,0.95,-7.24,-1.24,1.93,2.33,
1.015,5.19,0.95,-7.24,-1.29,2.03,2.35,
1.016,5.19,0.95,-7.24,-1.38,2.19,2.39,
1.019,2.62,0.92,-4.87,-1.38,2.19,2.39,
1.02,2.62,0.92,-4.87,-1.46,2.31,2.43,
1.023,2.62,0.92,-4.87,-1.55,2.45,2.51,
1.023,2.62,0.92,-4.87,-1.59,2.50,2.56,
1.023,2.62,0.92,-4.87,-1.60,2.52,2.58,
1.031,2.62,0.92,-4.87,-1.62,2.54,2.63,
1.031,-0.01,0.23,-2.67,-1.62,2.54,2.63,
1.032,-0.01,0.23,-2.67,-1.63,2.54,2.67,
1.032,-0.01,0.23,-2.67,-1.61,2.52,2.73,
1.032,-0.01,0.23,-2.67,-1.60,2.50,2.76,
1.035,-0.01,0.23,-2.67,-1.58,2.48,2.77,
1.035,-0.01,0.23,-2.67,-1.56,2.43,2.80,
1.042,-1.57,-0.73,-1.41,-1.56,2.43,2.80,
1.042,-1.57,-0.73,-1.41,-1.52,2.35,2.82,
1.043,-1.57,-0.73,-1.41,-1.42,2.13,2.84,
1.043,-1.57,-0.73,-1.41,-1.39,2.06,2.84,
1.043,-1.57,-0.73,-1.41,-1.37,1.98,2.84,
1.064,-1.57,-0.73,-1.41,-1.30,1.81,2.83,
1.066,-1.00,-1.07,0.16,-1.30,1.81,2.83,
1.066,-1.00,-1.07,0.16,-1.23,1.62,2.82,
1.066,-1.00,-1.07,0.16,-1.11,1.28,2.79,
1.067,-1.00,-1.07,0.16,-1.04,1.03,2.75,
1.067,-1.00,-1.07,0.16,-0.95,0.80,2.73,
1.067,-1.00,-1.07,0.16,-0.84,0.56,2.72,
1.068,-0.06,-1.08,2.52,-0.84,0.56,2.72,
1.068,-0.06,-1.08,2.52,-0.73,0.32,2.72,
1.068,-0.06,-1.08,2.52,-0.61,0.06,2.73,
1.068,-0.06,-1.08,2.52,-0.51,-0.19,2.76,
1.069,-0.06,-1.08,2.52,-0.40,-0.43,2.79,
1.069,-0.06,-1.08,2.52,-0.30,-0.65,2.83,
1.069,-2.38,-0.70,4.45,-0.30,-0.65,2.83,
1.07,-2.38,-0.70,4.45,-0.22,-0.86,2.87,
1.07,-2.38,-0.70,4.45,-0.15,-1.04,2.91,
1.071,-2.38,-0.70,4.45,-0.10,-1.18,2.95,
1.074,-2.38,-0.70,4.45,-0.06,-1.30,2.99,
1.083,-2.38,-0.70,4.45,-0.04,-1.40,3.04,
1.085,-2.98,-1.02,2.75,-0.04,-1.40,3.04,
1.087,-2.98,-1.02,2.75,-0.03,-1.45,3.09,
1.088,-2.98,-1.02,2.75,-0.05,-1.46,3.15,
1.089,-2.98,-1.02,2.75,-0.08,-1.43,3.21,
1.132,-2.98,-1.02,2.75,-0.13,-1.36,3.29,
1.133,-2.98,-1.02,2.75,-0.21,-1.25,3.38,
1.133,-3.86,-1.14,-0.75,-0.21,-1.25,3.38,
1.134,-3.86,-1.14,-0.75,-0.30,-1.09,3.49,
1.135,-3.86,-1.14,-0.75,-0.48,-0.79,3.67,
1.136,-3.86,-1.14,-0.75,-0.55,-0.67,3.73,
1.136,-3.86,-1.14,-0.75,-0.70,-0.43,3.87,
1.137,-3.86,-1.14,-0.75,-0.86,-0.16,4.00,
1.138,-5.88,-0.86,-4.17,-0.86,-0.16,4.00,
1.139,-5.88,-0.86,-4.17,-1.03,0.12,4.14,
1.139,-5.88,-0.86,-4.17,-1.20,0.41,4.27,
1.14,-5.88,-0.86,-4.17,-1.38,0.69,4.39,
1.14,-5.88,-0.86,-4.17,-1.55,0.95,4.52,
1.141,-5.88,-0.86,-4.17,-1.72,1.20,4.63,
1.142,-5.77,-1.20,-5.68,-1.72,1.20,4.63,
1.143,-5.77,-1.20,-5.68,-1.87,1.43,4.71,
1.143,-5.77,-1.20,-5.68,-2.02,1.63,4.78,
1.144,-5.77,-1.20,-5.68,-2.16,1.83,4.84,
1.145,-5.77,-1.20,-5.68,-2.27,2.00,4.87,
1.145,-5.77,-1.20,-5.68,-2.37,2.14,4.88,
1.146,-2.55,-1.22,-3.79,-2.37,2.14,4.88,
1.146,-2.55,-1.22,-3.79,-2.46,2.25,4.87,
1.147,-2.55,-1.22,-3.79,-2.52,2.33,4.85,
1.148,-2.55,-1.22,-3.79,-2.56,2.36,4.82,
1.148,-2.55,-1.22,-3.79,-2.57,2.36,4.78,
1.149,-2.55,-1.22,-3.79,-2.58,2.31,4.73,
1.149,0.72,-0.69,0.12,-2.58,2.31,4.73,
1.15,0.72,-0.69,0.12,-2.56,2.23,4.67,
1.151,0.72,-0.69,0.12,-2.52,2.11,4.59,
1.151,0.72,-0.69,0.12,-2.47,1.94,4.49,
1.152,0.72,-0.69,0.12,-2.40,1.72,4.37,
1.153,0.72,-0.69,0.12,-2.32,1.47,4.24,
1.154,3.87,0.29,4.13,-2.32,1.47,4.24,
1.154,3.87,0.29,4.13,-2.21,1.18,4.12,
1.155,3.87,0.29,4.13,-2.01,0.68,3.93,
1.155,3.87,0.29,4.13,-1.94,0.49,3.87,
1.156,3.87,0.29,4.13,-1.79,0.12,3.73,
1.156,3.87,0.29,4.13,-1.63,-0.25,3.58,
1.157,5.14,0.14,7.66,-1.63,-0.25,3.58,
1.157,5.14,0.14,7.66,-1.45,-0.62,3.45,
1.158,5.14,0.14,7.66,-1.27,-0.97,3.33,
1.159,5.14,0.14,7.66,-1.09,-1.30,3.22,
1.159,5.14,0.14,7.66,-0.92,-1.60,3.14,
1.16,5.14,0.14,7.66,-0.75,-1.88,3.06,
1.16,2.53,-0.03,8.87,-0.75,-1.88,3.06,
1.161,2.53,-0.03,8.87,-0.61,-2.15,2.98,
1.162,2.53,-0.03,8.87,-0.48,-2.41,2.92,
1.162,2.53,-0.03,8.87,-0.38,-2.66,2.85,
1.163,2.53,-0.03,8.87,-0.31,-2.89,2.78,
1.166,2.53,-0.03,8.87,-0.26,-3.08,2.71,
1.168,1.57,0.85,5.06,-0.26,-3.08,2.71,
1.169,1.57,0.85,5.06,-0.22,-3.25,2.64,
1.171,1.57,0.85,5.06,-0.22,-3.37,2.58,
1.172,1.57,0.85,5.06,-0.24,-3.44,2.54,
1.174,1.57,0.85,5.06,-0.27,-3.47,2.51,
1.178,1.57,0.85,5.06,-0.34,-3.45,2.50,
1.179,0.14,1.29,-1.04,-0.34,-3.45,2.50,
1.18,0.14,1.29,-1.04,-0.41,-3.40,2.50,
1.18,0.14,1.29,-1.04,-0.50,-3.31,2.51,
1.181,0.14,1.29,-1.04,-0.59,-3.20,2.54,
1.183,0.14,1.29,-1.04,-0.69,-3.08,2.57,
1.185,0.14,1.29,-1.04,-0.78,-2.95,2.61,
1.187,-1.38,1.41,-4.86,-0.78,-2.95,2.61,
1.188,-1.38,1.41,-4.86,-0.87,-2.81,2.65,
1.19,-1.38,1.41,-4.86,-0.98,-2.62,2.69,
1.191,-1.38,1.41,-4.86,-1.02,-2.56,2.70,
1.202,-1.38,1.41,-4.86,-1.08,-2.45,2.71,
1.204,-1.38,1.41,-4.86,-1.12,-2.37,2.70,
1.205,-0.44,1.91,-4.26,-1.12,-2.37,2.70,
1.206,-0.44,1.91,-4.26,-1.16,-2.30,2.68,
1.207,-0.44,1.91,-4.26,-1.20,-2.20,2.64,
1.209,-0.44,1.91,-4.26,-1.21,-2.17,2.62,
1.21,-0.44,1.91,-4.26,-1.23,-2.13,2.59,
1.211,-0.44,1.91,-4.26,-1.23,-2.11,2.55,
1.212,0.56,2.64,-2.72,-1.23,-2.11,2.55,
1.236,0.56,2.64,-2.72,-1.22,-2.10,2.50,
1.239,0.56,2.64,-2.72,-1.21,-2.10,2.46,
1.24,0.56,2.64,-2.72,-1.20,-2.10,2.44,
1.241,0.56,2.64,-2.72,-1.16,-2.09,2.40,
1.241,0.56,2.64,-2.72,-1.12,-2.08,2.34,
1.242,0.85,2.22,-0.77,-1.12,-2.08,2.34,
1.244,0.85,2.22,-0.77,-1.08,-2.07,2.27,
1.245,0.85,2.22,-0.77,-1.03,-2.04,2.20,
1.246,0.85,2.22,-0.77,-0.99,-2.00,2.12,
1.247,0.85,2.22,-0.77,-0.95,-1.94,2.05,
1.248,0.85,2.22,-0.77,-0.91,-1.85,1.99,
1.249,1.21,1.28,-1.39,-0.91,-1.85,1.99,
1.25,1.21,1.28,-1.39,-0.89,-1.71,1.92,
1.25,1.21,1.28,-1.39,-0.88,-1.52,1.85,
1.251,1.21,1.28,-1.39,-0.87,-1.29,1.78,
1.252,1.21,1.28,-1.39,-0.86,-1.05,1.73,
1.252,1.21,1.28,-1.39,-0.85,-0.80,1.69,
1.253,0.04,0.90,-3.34,-0.85,-0.80,1.69,
1.253,0.04,0.90,-3.34,-0.84,-0.57,1.67,
1.254,0.04,0.90,-3.34,-0.81,-0.27,1.64,
1.255,0.04,0.90,-3.34,-0.79,-0.19,1.63,
1.255,0.04,0.90,-3.34,-0.74,-0.05,1.60,
1.256,0.04,0.90,-3.34,-0.68,0.06,1.56,
1.256,0.21,-0.27,-1.24,-0.68,0.06,1.56,
1.256,0.21,-0.27,-1.24,-0.62,0.15,1.52,
1.3,0.21,-0.27,-1.24,-0.54,0.22,1.47,
1.3,0.21,-0.27,-1.24,-0.46,0.27,1.42,
1.301,0.21,-0.27,-1.24,-0.38,0.29,1.36,
1.302,0.21,-0.27,-1.24,-0.29,0.31,1.30,
1.303,1.29,-1.54,1.24,-0.29,0.31,1.30,
1.303,1.29,-1.54,1.24,-0.19,0.31,1.24,
1.304,1.29,-1.54,1.24,-0.11,0.28,1.17,
1.305,1.29,-1.54,1.24,-0.01,0.23,1.10,
1.306,1.29,-1.54,1.24,0.09,0.16,1.03,
1.306,1.29,-1.54,1.24,0.17,0.10,0.96,
1.307,1.75,-2.17,2.05,0.17,0.10,0.96,
1.308,1.75,-2.17,2.05,0.26,0.05,0.90,
1.309,1.75,-2.17,2.05,0.33,0.03,0.83,
1.31,1.75,-2.17,2.05,0.39,0.02,0.77,
1.311,1.75,-2.17,2.05,0.44,0.02,0.70,
1.312,1.75,-2.17,2.05,0.48,0.03,0.62,
1.312,1.06,-2.93,1.06,0.48,0.03,0.62,
1.313,1.06,-2.93,1.06,0.51,0.03,0.55,
1.314,1.06,-2.93,1.06,0.53,0.04,0.48,
1.314,1.06,-2.93,1.06,0.54,0.03,0.41,
1.315,1.06,-2.93,1.06,0.55,0.02,0.34,
1.315,1.06,-2.93,1.06,0.56,-0.01,0.28,
1.316,0.61,-3.68,0.14,0.56,-0.01,0.28,
1.317,0.61,-3.68,0.14,0.58,-0.04,0.21,
1.317,0.61,-3.68,0.14,0.59,-0.07,0.14,
1.318,0.61,-3.68,0.14,0.61,-0.11,0.07,
1.319,0.61,-3.68,0.14,0.63,-0.17,-0.00,
1.319,0.61,-3.68,0.14,0.63,-0.22,-0.08,
1.32,0.78,-4.01,0.70,0.63,-0.22,-0.08,
1.321,0.78,-4.01,0.70,0.63,-0.26,-0.16,
1.321,0.78,-4.01,0.70,0.62,-0.29,-0.24,
1.322,0.78,-4.01,0.70,0.60,-0.32,-0.32,
1.323,0.78,-4.01,0.70,0.58,-0.36,-0.40,
1.324,0.78,-4.01,0.70,0.54,-0.38,-0.48,
1.325,1.44,-4.74,0.43,0.54,-0.38,-0.48,
1.326,1.44,-4.74,0.43,0.50,-0.38,-0.54,
1.327,1.44,-4.74,0.43,0.45,-0.37,-0.60,
1.327,1.44,-4.74,0.43,0.38,-0.33,-0.66,
1.328,1.44,-4.74,0.43,0.30,-0.26,-0.72,
1.329,1.44,-4.74,0.43,0.21,-0.19,-0.78,
1.329,2.54,-5.49,-0.20,0.21,-0.19,-0.78,
1.33,2.54,-5.49,-0.20,0.11,-0.10,-0.83,
1.331,2.54,-5.49,-0.20,0.01,0.00,-0.87,
1.331,2.54,-5.49,-0.20,-0.09,0.10,-0.90,
1.332,2.54,-5.49,-0.20,-0.18,0.21,-0.92,
1.332,2.54,-5.49,-0.20,-0.26,0.31,-0.91,
1.333,2.26,-4.68,-0.72,-0.26,0.31,-0.91,
1.333,2.26,-4.68,-0.72,-0.34,0.41,-0.84,
1.334,2.26,-4.68,-0.72,-0.43,0.49,-0.75,
1.335,2.26,-4.68,-0.72,-0.52,0.55,-0.67,
1.335,2.26,-4.68,-0.72,-0.60,0.62,-0.60,
1.336,2.26,-4.68,-0.72,-0.67,0.67,-0.54,
1.343,-0.72,-2.18,-0.83,-0.67,0.67,-0.54,
1.346,-0.72,-2.18,-0.83,-0.73,0.71,-0.48,
1.347,-0.72,-2.18,-0.83,-0.80,0.75,-0.39,
1.35,-0.72,-2.18,-0.83,-0.82,0.76,-0.36,
1.351,-0.72,-2.18,-0.83,-0.86,0.76,-0.30,
1.352,-0.72,-2.18,-0.83,-0.89,0.74,-0.25,
1.353,-2.06,-1.37,-0.07,-0.89,0.74,-0.25,
1.355,-2.06,-1.37,-0.07,-0.92,0.72,-0.19,
1.356,-2.06,-1.37,-0.07,-0.98,0.55,-0.03,
1.364,-2.06,-1.37,-0.07,-0.98,0.55,-0.03,
1.364,-2.06,-1.37,-0.07,-0.98,0.55,-0.03,
1.365,-2.06,-1.37,-0.07,-1.05,0.60,0.03,
1.365,-1.96,-1.91,0.13,-1.05,0.60,0.03,
1.365,-1.96,-1.91,0.13,-1.14,0.66,0.11,
1.366,-1.96,-1.91,0.13,-1.23,0.56,0.23,
1.366,-1.96,-1.91,0.13,-1.24,0.48,0.26,
1.366,-1.96,-1.91,0.13,-1.23,0.30,0.32,
1.367,-1.96,-1.91,0.13,-1.18,0.09,0.36,
1.367,-0.37,-2.58,1.44,-1.18,0.09,0.36,
1.367,-0.37,-2.58,1.44,-1.11,-0.12,0.40,
1.372,-0.37,-2.58,1.44,-0.97,-0.44,0.45,
1.373,-0.37,-2.58,1.44,-0.92,-0.55,0.47,
1.373,-0.37,-2.58,1.44,-0.80,-0.75,0.50,
1.381,-0.37,-2.58,1.44,-0.67,-0.92,0.54,
1.382,0.42,-1.50,2.86,-0.67,-0.92,0.54,
1.383,0.42,-1.50,2.86,-0.54,-1.05,0.56,
1.383,0.42,-1.50,2.86,-0.34,-1.18,0.59,
1.383,0.42,-1.50,2.86,-0.28,-1.20,0.60,
1.384,0.42,-1.50,2.86,-0.16,-1.22,0.61,
1.387,0.42,-1.50,2.86,-0.05,-1.22,0.62,
1.392,0.37,0.09,1.59,-0.05,-1.22,0.62,
1.392,0.37,0.09,1.59,0.05,-1.19,0.62,
1.393,0.37,0.09,1.59,0.19,-1.11,0.62,
1.393,0.37,0.09,1.59,0.23,-1.07,0.62,
1.393,0.37,0.09,1.59,0.30,-0.98,0.62,
1.421,0.37,0.09,1.59,0.35,-0.87,0.61,
1.422,0.58,1.10,-0.01,0.35,-0.87,0.61,
1.423,0.58,1.10,-0.01,0.39,-0.76,0.60,
1.423,0.58,1.10,-0.01,0.43,-0.60,0.59,
1.423,0.58,1.10,-0.01,0.44,-0.55,0.59,
1.424,0.58,1.10,-0.01,0.45,-0.45,0.58,
1.424,0.58,1.10,-0.01,0.45,-0.35,0.58,
1.424,0.90,1.14,-0.65,0.45,-0.35,0.58,
1.425,0.90,1.14,-0.65,0.43,-0.27,0.57,
1.425,0.90,1.14,-0.65,0.40,-0.16,0.57,
1.425,0.90,1.14,-0.65,0.39,-0.14,0.57,
1.426,0.90,1.14,-0.65,0.35,-0.10,0.58,
1.426,0.90,1.14,-0.65,0.31,-0.07,0.59,
1.456,0.75,0.68,-0.19,0.31,-0.07,0.59,
1.457,0.75,0.68,-0.19,0.27,-0.05,0.60,
1.457,0.75,0.68,-0.19,0.18,-0.03,0.63,
1.458,0.75,0.68,-0.19,0.14,-0.00,0.63,
1.458,0.75,0.68,-0.19,0.05,0.07,0.65,
1.459,0.75,0.68,-0.19,-0.06,0.13,0.67,
1.459,0.26,0.25,-0.41,-0.06,0.13,0.67,
1.46,0.26,0.25,-0.41,-0.17,0.15,0.67,
1.46,0.26,0.25,-0.41,-0.31,0.09,0.66,
1.46,0.26,0.25,-0.41,-0.34,0.05,0.66,
1.461,0.26,0.25,-0.41,-0.38,-0.08,0.64,
1.461,0.26,0.25,-0.41,-0.39,-0.22,0.63,
1.462,0.27,0.19,0.50,-0.39,-0.22,0.63,
1.462,0.27,0.19,0.50,-0.38,-0.37,0.60,
1.463,0.27,0.19,0.50,-0.32,-0.58,0.58,
1.463,0.27,0.19,0.50,-0.29,-0.63,0.57,
1.464,0.27,0.19,0.50,-0.23,-0.72,0.55,
1.464,0.27,0.19,0.50,-0.17,-0.77,0.53,
1.464,-0.09,-0.00,1.38,-0.17,-0.77,0.53,
1.465,-0.09,-0.00,1.38,-0.11,-0.78,0.51,
1.465,-0.09,-0.00,1.38,-0.01,-0.76,0.48,
1.466,-0.09,-0.00,1.38,0.02,-0.74,0.47,
1.466,-0.09,-0.00,1.38,0.07,-0.70,0.45,
1.467,-0.09,-0.00,1.38,0.13,-0.64,0.42,
1.467,0.00,-0.16,0.40,0.13,-0.64,0.42,
1.467,0.00,-0.16,0.40,0.18,-0.58,0.40,
1.468,0.00,-0.16,0.40,0.25,-0.49,0.37,
1.468,0.00,-0.16,0.40,0.27,-0.46,0.36,
1.469,0.00,-0.16,0.40,0.32,-0.42,0.34,
1.469,0.00,-0.16,0.40,0.36,-0.38,0.32,
1.47,0.22,-0.46,-0.01,0.36,-0.38,0.32,
1.47,0.22,-0.46,-0.01,0.40,-0.36,0.31,
1.47,0.22,-0.46,-0.01,0.45,-0.35,0.29,
1.471,0.22,-0.46,-0.01,0.46,-0.35,0.28,
1.476,0.22,-0.46,-0.01,0.47,-0.35,0.27,
1.477,0.22,-0.46,-0.01,0.48,-0.35,0.26,
1.478,0.15,-0.57,0.03,0.48,-0.35,0.26,
1.478,0.15,-0.57,0.03,0.49,-0.36,0.25,
1.482,0.15,-0.57,0.03,0.49,-0.38,0.24,
1.483,0.15,-0.57,0.03,0.49,-0.38,0.23,
1.483,0.15,-0.57,0.03,0.47,-0.38,0.22,
1.487,0.15,-0.57,0.03,0.45,-0.39,0.22,
1.488,0.02,-0.56,-0.13,0.45,-0.39,0.22,
1.488,0.02,-0.56,-0.13,0.43,-0.39,0.22,
1.501,0.02,-0.56,-0.13,0.38,-0.37,0.21,
1.502,0.02,-0.56,-0.13,0.36,-0.36,0.22,
1.502,0.02,-0.56,-0.13,0.32,-0.34,0.22,
1.503,0.02,-0.56,-0.13,0.28,-0.34,0.22,
1.503,-0.08,-0.63,-0.39,0.28,-0.34,0.22,
1.504,-0.08,-0.63,-0.39,0.24,-0.33,0.23,
1.504,-0.08,-0.63,-0.39,0.18,-0.32,0.24,
1.504,-0.08,-0.63,-0.39,0.16,-0.32,0.24,
1.505,-0.08,-0.63,-0.39,0.12,-0.31,0.25,
1.505,-0.08,-0.63,-0.39,0.09,-0.31,0.26,
1.544,-0.31,-0.72,-0.24,0.09,-0.31,0.26,
1.546,-0.31,-0.72,-0.24,0.06,-0.31,0.27,
1.546,-0.31,-0.72,-0.24,0.03,-0.29,0.29,
1.546,-0.31,-0.72,-0.24,0.02,-0.29,0.29,
1.547,-0.31,-0.72,-0.24,0.00,-0.27,0.31,
1.547,-0.31,-0.72,-0.24,-0.01,-0.25,0.32,
1.547,-0.49,-0.90,-0.08,-0.01,-0.25,0.32,
1.548,-0.49,-0.90,-0.08,-0.02,-0.23,0.34,
1.548,-0.49,-0.90,-0.08,-0.02,-0.20,0.36,
1.548,-0.49,-0.90,-0.08,-0.03,-0.19,0.37,
1.549,-0.49,-0.90,-0.08,-0.03,-0.16,0.38,
1.549,-0.49,-0.90,-0.08,-0.03,-0.13,0.39,
1.549,-0.52,-1.13,0.01,-0.03,-0.13,0.39,
1.549,-0.52,-1.13,0.01,-0.03,-0.10,0.41,
1.55,-0.52,-1.13,0.01,-0.04,-0.04,0.41,
1.55,-0.52,-1.13,0.01,-0.04,-0.02,0.41,
1.55,-0.52,-1.13,0.01,-0.04,0.03,0.40,
1.551,-0.52,-1.13,0.01,-0.05,0.09,0.37,
1.551,-0.22,-0.45,0.02,-0.05,0.09,0.37,
1.551,-0.22,-0.45,0.02,-0.07,0.15,0.34,
1.552,-0.22,-0.45,0.02,-0.09,0.24,0.29,
1.552,-0.22,-0.45,0.02,-0.10,0.27,0.27,
1.552,-0.22,-0.45,0.02,-0.13,0.34,0.23,
1.553,-0.22,-0.45,0.02,-0.15,0.40,0.19,
1.553,-0.15,0.43,-0.10,-0.15,0.40,0.19,
1.553,-0.15,0.43,-0.10,-0.17,0.44,0.16,
1.554,-0.15,0.43,-0.10,-0.20,0.46,0.11,
1.554,-0.15,0.43,-0.10,-0.21,0.45,0.09,
1.554,-0.15,0.43,-0.10,-0.21,0.44,0.06,
1.555,-0.15,0.43,-0.10,-0.21,0.41,0.04,
1.559,-0.57,0.49,0.22,-0.21,0.41,0.04,
1.56,-0.57,0.49,0.22,-0.19,0.36,0.02,
1.563,-0.57,0.49,0.22,-0.17,0.32,0.01,
1.564,-0.57,0.49,0.22,-0.17,0.30,0.01,
1.564,-0.57,0.49,0.22,-0.15,0.26,0.01,
1.565,-0.57,0.49,0.22,-0.14,0.20,0.02,
1.569,-1.10,0.10,0.56,-0.14,0.20,0.02,
1.573,-1.10,0.10,0.56,-0.14,0.14,0.04,
1.574,-1.10,0.10,0.56,-0.18,-0.01,0.09,
1.574,-1.10,0.10,0.56,-0.20,-0.07,0.12,
1.574,-1.10,0.10,0.56,-0.25,-0.22,0.20,
1.583,-1.10,0.10,0.56,-0.32,-0.39,0.29,
1.584,-2.14,1.63,0.26,-0.32,-0.39,0.29,
1.584,-2.14,1.63,0.26,-0.41,-0.57,0.41,
1.584,-2.14,1.63,0.26,-0.58,-0.83,0.64,
1.585,-2.14,1.63,0.26,-0.65,-0.90,0.72,
1.612,-2.14,1.63,0.26,-0.78,-1.04,0.90,
1.612,-2.14,1.63,0.26,-0.91,-1.14,1.08,
1.613,-3.67,6.45,0.09,-0.91,-1.14,1.08,
1.613,-3.67,6.45,0.09,-1.03,-1.23,1.23,
1.614,-3.67,6.45,0.09,-1.16,-1.31,1.38,
1.614,-3.67,6.45,0.09,-1.19,-1.32,1.41,
1.615,-3.67,6.45,0.09,-1.22,-1.32,1.42,
1.615,-3.67,6.45,0.09,-1.22,-1.29,1.40,
1.615,-1.72,5.33,0.63,-1.22,-1.29,1.40,
1.616,-1.72,5.33,0.63,-1.19,-1.22,1.35,
1.616,-1.72,5.33,0.63,-1.09,-1.07,1.25,
1.617,-1.72,5.33,0.63,-1.04,-1.01,1.21,
1.617,-1.72,5.33,0.63,-0.94,-0.87,1.14,
1.618,-1.72,5.33,0.63,-0.83,-0.72,1.07,
1.618,-0.19,1.95,0.59,-0.83,-0.72,1.07,
1.619,-0.19,1.95,0.59,-0.71,-0.56,1.02,
1.619,-0.19,1.95,0.59,-0.53,-0.31,0.96,
1.619,-0.19,1.95,0.59,-0.47,-0.22,0.96,
1.62,-0.19,1.95,0.59,-0.37,-0.07,0.97,
1.62,-0.19,1.95,0.59,-0.27,0.06,1.01,
1.621,-0.92,2.45,0.23,-0.27,0.06,1.01,
1.621,-0.92,2.45,0.23,-0.19,0.17,1.06,
1.622,-0.92,2.45,0.23,-0.07,0.26,1.17,
1.622,-0.92,2.45,0.23,-0.04,0.27,1.20,
1.625,-0.92,2.45,0.23,0.03,0.27,1.26,
1.626,-0.92,2.45,0.23,0.09,0.24,1.31,
1.628,-1.76,3.20,0.78,0.09,0.24,1.31,
1.628,-1.76,3.20,0.78,0.16,0.18,1.35,
1.63,-1.76,3.20,0.78,0.23,0.07,1.36,
1.632,-1.76,3.20,0.78,0.25,0.03,1.36,
1.633,-1.76,3.20,0.78,0.29,-0.07,1.33,
1.635,-1.76,3.20,0.78,0.30,-0.17,1.29,
1.637,-1.13,1.97,0.94,0.30,-0.17,1.29,
1.638,-1.13,1.97,0.94,0.30,-0.26,1.23,
1.64,-1.13,1.97,0.94,0.27,-0.39,1.12,
1.643,-1.13,1.97,0.94,0.26,-0.43,1.08,
1.643,-1.13,1.97,0.94,0.23,-0.49,0.99,
1.646,-1.13,1.97,0.94,0.19,-0.55,0.90,
1.647,-0.35,1.14,-0.04,0.19,-0.55,0.90,
1.648,-0.35,1.14,-0.04,0.15,-0.59,0.81,
1.65,-0.35,1.14,-0.04,0.09,-0.62,0.69,
1.651,-0.35,1.14,-0.04,0.07,-0.63,0.65,
1.653,-0.35,1.14,-0.04,0.05,-0.66,0.59,
1.655,-0.35,1.14,-0.04,0.03,-0.71,0.54,
1.657,-0.46,0.93,-0.45,0.03,-0.71,0.54,
1.658,-0.46,0.93,-0.45,0.02,-0.78,0.50,
1.66,-0.46,0.93,-0.45,0.00,-0.89,0.45,
1.663,-0.46,0.93,-0.45,-0.00,-0.93,0.44,
1.664,-0.46,0.93,-0.45,-0.03,-1.01,0.41,
1.665,-0.46,0.93,-0.45,-0.06,-1.08,0.41,
1.672,-0.98,0.99,-0.77,-0.06,-1.08,0.41,
1.673,-0.98,0.99,-0.77,-0.06,-1.08,0.40,
1.673,-0.98,0.99,-0.77,-0.04,-1.00,0.40,
1.673,-0.98,0.99,-0.77,-0.04,-0.97,0.41,
1.674,-0.98,0.99,-0.77,-0.03,-0.86,0.43,
1.678,-0.98,0.99,-0.77,-0.02,-0.74,0.47,
1.679,-0.86,0.94,-0.07,-0.02,-0.74,0.47,
1.679,-0.86,0.94,-0.07,-0.00,-0.62,0.50,
1.682,-0.86,0.94,-0.07,-0.00,-0.51,0.56,
1.683,-0.86,0.94,-0.07,-0.00,-0.48,0.58,
1.683,-0.86,0.94,-0.07,0.01,-0.44,0.62,
1.687,-0.86,0.94,-0.07,0.03,-0.41,0.65,
1.691,-0.34,-0.19,0.07,0.03,-0.41,0.65,
1.691,-0.34,-0.19,0.07,0.06,-0.38,0.68,
1.692,-0.34,-0.19,0.07,0.12,-0.35,0.70,
1.692,-0.34,-0.19,0.07,0.13,-0.35,0.71,
1.696,-0.34,-0.19,0.07,0.16,-0.38,0.72,
1.697,-0.34,-0.19,0.07,0.17,-0.42,0.73,
1.698,0.25,-0.84,0.60,0.17,-0.42,0.73,
1.699,0.25,-0.84,0.60,0.17,-0.44,0.73,
1.704,0.25,-0.84,0.60,0.18,-0.46,0.74,
1.704,0.25,-0.84,0.60,0.18,-0.46,0.74,
1.705,0.25,-0.84,0.60,0.17,-0.46,0.75,
1.708,0.25,-0.84,0.60,0.17,-0.46,0.76,
1.708,0.16,-1.77,0.23,0.17,-0.46,0.76,
1.708,0.16,-1.77,0.23,0.16,-0.45,0.78,
1.717,0.16,-1.77,0.23,0.15,-0.45,0.80,
1.718,0.16,-1.77,0.23,0.15,-0.44,0.80,
1.719,0.16,-1.77,0.23,0.14,-0.45,0.81,
1.719,0.16,-1.77,0.23,0.14,-0.46,0.81,
1.719,-0.01,-1.76,0.28,0.14,-0.46,0.81,
1.72,-0.01,-1.76,0.28,0.14,-0.47,0.82,
1.72,-0.01,-1.76,0.28,0.12,-0.50,0.84,
1.746,-0.01,-1.76,0.28,0.11,-0.51,0.84,
1.747,-0.01,-1.76,0.28,0.10,-0.54,0.84,
1.747,-0.01,-1.76,0.28,0.09,-0.56,0.84,
1.748,-0.18,-1.76,0.04,0.09,-0.56,0.84,
1.748,-0.18,-1.76,0.04,0.07,-0.57,0.84,
1.748,-0.18,-1.76,0.04,0.06,-0.57,0.82,
1.749,-0.18,-1.76,0.04,0.05,-0.57,0.81,
1.749,-0.18,-1.76,0.04,0.05,-0.57,0.78,
1.749,-0.18,-1.76,0.04,0.05,-0.56,0.75,
1.75,1.09,-2.56,-0.24,0.05,-0.56,0.75,
1.75,1.09,-2.56,-0.24,0.05,-0.55,0.73,
1.75,1.09,-2.56,-0.24,0.05,-0.52,0.71,
1.751,1.09,-2.56,-0.24,0.04,-0.50,0.70,
1.751,1.09,-2.56,-0.24,0.03,-0.46,0.70,
1.751,1.09,-2.56,-0.24,0.01,-0.40,0.71,
1.752,1.07,-1.45,-0.31,0.01,-0.40,0.71,
1.752,1.07,-1.45,-0.31,-0.01,-0.33,0.72,
1.777,1.07,-1.45,-0.31,-0.04,-0.25,0.75,
1.778,1.07,-1.45,-0.31,-0.04,-0.23,0.76,
1.778,1.07,-1.45,-0.31,-0.05,-0.23,0.77,
1.779,1.07,-1.45,-0.31,-0.04,-0.25,0.78,
1.779,0.44,-0.42,-0.30,-0.04,-0.25,0.78,
1.78,0.44,-0.42,-0.30,-0.04,-0.31,0.79,
1.78,0.44,-0.42,-0.30,-0.03,-0.41,0.79,
1.781,0.44,-0.42,-0.30,-0.03,-0.45,0.79,
1.781,0.44,-0.42,-0.30,-0.04,-0.53,0.80,
1.781,0.44,-0.42,-0.30,-0.05,-0.59,0.81,
1.782,-0.56,0.05,0.02,-0.05,-0.59,0.81,
1.782,-0.56,0.05,0.02,-0.04,-0.64,0.82,
1.783,-0.56,0.05,0.02,-0.04,-0.72,0.86,
1.783,-0.56,0.05,0.02,-0.03,-0.75,0.88,
1.784,-0.56,0.05,0.02,-0.02,-0.81,0.91,
1.784,-0.56,0.05,0.02,-0.03,-0.87,0.94,
1.785,-1.21,0.16,0.13,-0.03,-0.87,0.94,
1.785,-1.21,0.16,0.13,-0.03,-0.95,0.98,
1.785,-1.21,0.16,0.13,-0.03,-1.09,1.01,
1.786,-1.21,0.16,0.13,-0.03,-1.14,1.02,
1.786,-1.21,0.16,0.13,-0.02,-1.25,1.03,
1.787,-1.21,0.16,0.13,0.01,-1.34,1.05,
1.787,-0.70,-0.22,0.52,0.01,-1.34,1.05,
1.788,-0.70,-0.22,0.52,0.03,-1.42,1.05,
1.793,-0.70,-0.22,0.52,0.06,-1.49,1.04,
1.794,-0.70,-0.22,0.52,0.07,-1.51,1.03,
1.794,-0.70,-0.22,0.52,0.07,-1.57,1.00,
1.795,-0.70,-0.22,0.52,0.08,-1.65,0.98,
1.797,0.33,-0.50,0.45,0.08,-1.65,0.98,
1.797,0.33,-0.50,0.45,0.13,-1.85,0.93,
1.8,0.33,-0.50,0.45,0.19,-2.11,0.81,
1.801,0.33,-0.50,0.45,0.18,-2.14,0.77,
1.803,0.33,-0.50,0.45,0.19,-2.22,0.68,
1.805,0.33,-0.50,0.45,0.22,-2.24,0.60,
1.808,1.63,-0.82,0.41,0.22,-2.24,0.60,
1.809,1.63,-0.82,0.41,0.23,-2.17,0.54,
1.81,1.63,-0.82,0.41,0.27,-1.94,0.44,
1.811,1.63,-0.82,0.41,0.28,-1.82,0.41,
1.813,1.63,-0.82,0.41,0.27,-1.58,0.36,
1.816,1.63,-0.82,0.41,0.27,-1.32,0.34,
1.817,1.30,-1.31,-1.18,0.27,-1.32,0.34,
1.82,1.30,-1.31,-1.18,0.25,-1.07,0.32,
1.821,1.30,-1.31,-1.18,0.22,-0.73,0.31,
1.821,1.30,-1.31,-1.18,0.22,-0.63,0.31,
1.824,1.30,-1.31,-1.18,0.22,-0.45,0.33,
1.828,1.30,-1.31,-1.18,0.20,-0.32,0.33,
1.83,0.47,-0.89,-1.17,0.20,-0.32,0.33,
1.83,0.47,-0.89,-1.17,0.20,-0.23,0.34,
1.83,0.47,-0.89,-1.17,0.19,-0.14,0.35,
1.831,0.47,-0.89,-1.17,0.19,-0.12,0.36,
1.835,0.47,-0.89,-1.17,0.19,-0.09,0.38,
1.836,0.47,-0.89,-1.17,0.20,-0.08,0.40,
1.839,-0.15,-0.24,-0.34,0.20,-0.08,0.40,
1.839,-0.15,-0.24,-0.34,0.21,-0.07,0.44,
1.844,-0.15,-0.24,-0.34,0.22,-0.10,0.46,
1.845,-0.15,-0.24,-0.34,0.22,-0.11,0.47,
1.845,-0.15,-0.24,-0.34,0.24,-0.13,0.47,
1.845,-0.15,-0.24,-0.34,0.24,-0.18,0.49,
1.849,-0.33,-0.65,0.20,0.24,-0.18,0.49,
1.85,-0.33,-0.65,0.20,0.24,-0.25,0.51,
1.85,-0.33,-0.65,0.20,0.23,-0.37,0.56,
1.853,-0.33,-0.65,0.20,0.22,-0.41,0.58,
1.854,-0.33,-0.65,0.20,0.22,-0.50,0.63,
1.857,-0.33,-0.65,0.20,0.21,-0.58,0.69,
1.858,-0.80,-2.22,-0.11,0.21,-0.58,0.69,
1.858,-0.80,-2.22,-0.11,0.20,-0.66,0.77,
1.864,-0.80,-2.22,-0.11,0.21,-0.75,0.90,
1.865,-0.80,-2.22,-0.11,0.22,-0.77,0.95,
1.865,-0.80,-2.22,-0.11,0.25,-0.80,1.06,
1.866,-0.80,-2.22,-0.11,0.30,-0.81,1.18,
1.869,-1.83,-2.27,0.83,0.30,-0.81,1.18,
1.87,-1.83,-2.27,0.83,0.33,-0.82,1.32,
1.87,-1.83,-2.27,0.83,0.35,-0.87,1.57,
1.873,-1.83,-2.27,0.83,0.35,-0.88,1.67,
1.9,-1.83,-2.27,0.83,0.35,-0.91,1.87,
1.901,-1.83,-2.27,0.83,0.34,-0.96,2.08,
1.901,-3.85,-5.71,-0.35,0.34,-0.96,2.08,
1.901,-3.85,-5.71,-0.35,0.33,-1.00,2.29,
1.902,-3.85,-5.71,-0.35,0.29,-1.04,2.61,
1.902,-3.85,-5.71,-0.35,0.28,-1.06,2.71,
1.902,-3.85,-5.71,-0.35,0.26,-1.09,2.91,
1.903,-3.85,-5.71,-0.35,0.24,-1.11,3.09,
1.903,-3.32,-7.10,-1.13,0.24,-1.11,3.09,
1.903,-3.32,-7.10,-1.13,0.22,-1.13,3.24,
1.904,-3.32,-7.10,-1.13,0.20,-1.15,3.41,
1.904,-3.32,-7.10,-1.13,0.20,-1.16,3.44,
1.904,-3.32,-7.10,-1.13,0.20,-1.18,3.48,
1.905,-3.32,-7.10,-1.13,0.20,-1.17,3.48,
1.905,2.04,-3.49,-0.66,0.20,-1.17,3.48,
1.905,2.04,-3.49,-0.66,0.22,-1.11,3.44,
1.905,2.04,-3.49,-0.66,0.24,-0.99,3.34,
1.906,2.04,-3.49,-0.66,0.26,-0.94,3.28,
1.906,2.04,-3.49,-0.66,0.29,-0.85,3.17,
1.906,2.04,-3.49,-0.66,0.32,-0.74,3.06,
1.915,6.28,-2.56,0.19,0.32,-0.74,3.06,
1.916,6.28,-2.56,0.19,0.38,-0.59,2.86,
1.916,6.28,-2.56,0.19,0.42,-0.48,2.72,
1.916,6.28,-2.56,0.19,0.43,-0.42,2.66,
1.917,6.28,-2.56,0.19,0.45,-0.28,2.54,
1.917,6.28,-2.56,0.19,0.47,-0.14,2.44,
1.949,5.84,-2.41,-0.23,0.47,-0.14,2.44,
1.949,5.84,-2.41,-0.23,0.49,-0.00,2.35,
1.95,5.84,-2.41,-0.23,0.52,0.16,2.22,
1.95,5.84,-2.41,-0.23,0.52,0.22,2.19,
1.951,5.84,-2.41,-0.23,0.54,0.32,2.12,
1.951,5.84,-2.41,-0.23,0.55,0.40,2.07,
1.952,2.46,-2.74,-0.42,0.55,0.40,2.07,
1.952,2.46,-2.74,-0.42,0.56,0.47,2.02,
1.952,2.46,-2.74,-0.42,0.56,0.55,1.95,
1.953,2.46,-2.74,-0.42,0.56,0.58,1.93,
1.953,2.46,-2.74,-0.42,0.55,0.63,1.88,
1.954,2.46,-2.74,-0.42,0.54,0.66,1.82,
1.954,-0.32,-2.15,-0.47,0.54,0.66,1.82,
1.955,-0.32,-2.15,-0.47,0.53,0.68,1.75,
1.955,-0.32,-2.15,-0.47,0.51,0.70,1.65,
1.956,-0.32,-2.15,-0.47,0.50,0.70,1.61,
1.956,-0.32,-2.15,-0.47,0.47,0.68,1.53,
1.956,-0.32,-2.15,-0.47,0.42,0.66,1.44,
1.957,-1.78,-0.98,-0.53,0.42,0.66,1.44,
1.957,-1.78,-0.98,-0.53,0.37,0.63,1.35,
1.958,-1.78,-0.98,-0.53,0.28,0.58,1.19,
1.958,-1.78,-0.98,-0.53,0.25,0.56,1.14,
1.959,-1.78,-0.98,-0.53,0.20,0.50,1.04,
1.959,-1.78,-0.98,-0.53,0.16,0.44,0.94,
1.959,-2.63,-1.87,-0.28,0.16,0.44,0.94,
1.96,-2.63,-1.87,-0.28,0.13,0.39,0.85,
1.96,-2.63,-1.87,-0.28,0.09,0.30,0.72,
1.961,-2.63,-1.87,-0.28,0.08,0.27,0.67,
1.966,-2.63,-1.87,-0.28,0.07,0.21,0.56,
1.967,-2.63,-1.87,-0.28,0.06,0.16,0.45,
1.967,-2.04,-2.90,0.64,0.06,0.16,0.45,
1.968,-2.04,-2.90,0.64,0.06,0.13,0.33,
1.973,-2.04,-2.90,0.64,0.05,0.10,0.15,
1.974,-2.04,-2.90,0.64,0.05,0.10,0.09,
1.974,-2.04,-2.90,0.64,0.04,0.09,-0.02,
1.979,-2.04,-2.90,0.64,0.04,0.07,-0.12,
1.98,-0.34,-3.72,0.36,0.04,0.07,-0.12,
1.98,-0.34,-3.72,0.36,0.04,0.05,-0.20,
1.981,-0.34,-3.72,0.36,0.06,0.00,-0.29,
1.981,-0.34,-3.72,0.36,0.08,-0.02,-0.32,
1.985,-0.34,-3.72,0.36,0.11,-0.06,-0.38,
1.986,-0.34,-3.72,0.36,0.14,-0.09,-0.45,
1.987,0.69,-4.35,0.32,0.14,-0.09,-0.45,
1.987,0.69,-4.35,0.32,0.16,-0.13,-0.52,
1.999,0.69,-4.35,0.32,0.17,-0.19,-0.63,
2.0,0.69,-4.35,0.32,0.17,-0.21,-0.67,
2.001,0.69,-4.35,0.32,0.16,-0.25,-0.74,
2.001,0.69,-4.35,0.32,0.14,-0.27,-0.82,
2.001,1.30,-4.24,-0.55,0.14,-0.27,-0.82,
2.002,1.30,-4.24,-0.55,0.12,-0.30,-0.90,
2.002,1.30,-4.24,-0.55,0.08,-0.34,-1.01,
2.003,1.30,-4.24,-0.55,0.07,-0.35,-1.04,
2.028,1.30,-4.24,-0.55,0.05,-0.36,-1.11,
2.031,1.30,-4.24,-0.55,0.03,-0.36,-1.17,
2.032,1.11,-3.02,-0.81,0.03,-0.36,-1.17,
2.034,1.11,-3.02,-0.81,0.01,-0.36,-1.21,
2.036,1.11,-3.02,-0.81,-0.03,-0.34,-1.24,
2.038,1.11,-3.02,-0.81,-0.04,-0.33,-1.24,
2.039,1.11,-3.02,-0.81,-0.05,-0.31,-1.23,
2.04,1.11,-3.02,-0.81,-0.04,-0.27,-1.14,
2.041,-0.35,-0.17,-0.33,-0.04,-0.27,-1.14,
2.042,-0.35,-0.17,-0.33,0.02,-0.22,-0.95,
2.044,-0.35,-0.17,-0.33,0.12,-0.14,-0.64,
2.045,-0.35,-0.17,-0.33,0.16,-0.11,-0.54,
2.046,-0.35,-0.17,-0.33,0.22,-0.04,-0.35,
2.047,-0.35,-0.17,-0.33,0.27,0.04,-0.19,
2.048,-0.57,3.92,0.03,0.27,0.04,-0.19,
2.048,-0.57,3.92,0.03,0.30,0.12,-0.06,
2.049,-0.57,3.92,0.03,0.30,0.25,0.05,
2.049,-0.57,3.92,0.03,0.29,0.29,0.07,
2.05,-0.57,3.92,0.03,0.24,0.35,0.08,
2.051,-0.57,3.92,0.03,0.17,0.39,0.08,
2.052,1.30,4.84,-1.35,0.17,0.39,0.08,
2.052,1.30,4.84,-1.35,0.10,0.42,0.06,
2.053,1.30,4.84,-1.35,0.01,0.41,0.02,
2.054,1.30,4.84,-1.35,-0.02,0.40,0.01,
2.054,1.30,4.84,-1.35,-0.06,0.36,0.00,
2.055,1.30,4.84,-1.35,-0.08,0.30,-0.00,
2.056,0.47,2.88,-0.64,-0.08,0.30,-0.00,
2.058,0.47,2.88,-0.64,-0.09,0.25,0.00,
2.059,0.47,2.88,-0.64,-0.08,0.13,0.02,
2.06,0.47,2.88,-0.64,-0.06,0.09,0.03,
2.06,0.47,2.88,-0.64,-0.05,0.01,0.04,
2.061,0.47,2.88,-0.64,-0.02,-0.06,0.06,
2.061,-0.46,0.07,0.50,-0.02,-0.06,0.06,
2.064,-0.46,0.07,0.50,0.00,-0.12,0.06,
2.064,-0.46,0.07,0.50,0.02,-0.19,0.07,
2.065,-0.46,0.07,0.50,0.03,-0.21,0.06,
2.065,-0.46,0.07,0.50,0.03,-0.24,0.05,
2.065,-0.46,0.07,0.50,0.02,-0.26,0.03,
2.068,0.58,-1.63,-0.03,0.02,-0.26,0.03,
2.07,0.58,-1.63,-0.03,-0.03,-0.24,0.03,
2.085,0.58,-1.63,-0.03,-0.19,-0.18,0.04,
2.089,0.58,-1.63,-0.03,-0.26,-0.17,0.05,
2.089,0.58,-1.63,-0.03,-0.36,-0.18,0.07,
2.092,0.58,-1.63,-0.03,-0.39,-0.24,0.08,
2.093,1.35,-0.67,-0.25,-0.39,-0.24,0.08,
2.093,1.35,-0.67,-0.25,-0.36,-0.32,0.08,
2.093,1.35,-0.67,-0.25,-0.28,-0.41,0.07,
2.094,1.35,-0.67,-0.25,-0.25,-0.42,0.07,
2.121,1.35,-0.67,-0.25,-0.20,-0.43,0.07,
2.122,1.35,-0.67,-0.25,-0.16,-0.43,0.05,
2.122,0.76,0.10,0.76,-0.16,-0.43,0.05,
2.123,0.76,0.10,0.76,-0.11,-0.41,0.04,
2.123,0.76,0.10,0.76,-0.05,-0.39,0.03,
2.124,0.76,0.10,0.76,-0.03,-0.38,0.03,
2.124,0.76,0.10,0.76,0.02,-0.37,0.04,
2.124,0.76,0.10,0.76,0.08,-0.37,0.04,
2.125,0.45,-0.83,0.59,0.08,-0.37,0.04,
2.125,0.45,-0.83,0.59,0.17,-0.38,0.03,
2.126,0.45,-0.83,0.59,0.26,-0.37,0.01,
2.126,0.45,-0.83,0.59,0.27,-0.36,0.01,
2.127,0.45,-0.83,0.59,0.27,-0.33,-0.00,
2.127,0.45,-0.83,0.59,0.25,-0.31,-0.00,
2.128,0.80,-0.39,-0.44,0.25,-0.31,-0.00,
2.128,0.80,-0.39,-0.44,0.24,-0.29,-0.01,
2.128,0.80,-0.39,-0.44,0.21,-0.29,-0.01,
2.129,0.80,-0.39,-0.44,0.20,-0.29,-0.02,
2.129,0.80,-0.39,-0.44,0.18,-0.31,-0.03,
2.13,0.80,-0.39,-0.44,0.17,-0.35,-0.04,
2.13,0.62,-0.61,-0.38,0.17,-0.35,-0.04,
2.131,0.62,-0.61,-0.38,0.15,-0.37,-0.04,
2.131,0.62,-0.61,-0.38,0.12,-0.39,-0.02,
2.131,0.62,-0.61,-0.38,0.12,-0.40,-0.02,
2.132,0.62,-0.61,-0.38,0.13,-0.43,-0.01,
2.132,0.62,-0.61,-0.38,0.14,-0.44,0.00,
2.133,0.05,-1.73,0.25,0.14,-0.44,0.00,
2.133,0.05,-1.73,0.25,0.14,-0.45,0.01,
2.134,0.05,-1.73,0.25,0.12,-0.45,0.00,
2.134,0.05,-1.73,0.25,0.11,-0.45,-0.00,
2.134,0.05,-1.73,0.25,0.09,-0.44,-0.02,
2.135,0.05,-1.73,0.25,0.06,-0.43,-0.03,
2.14,0.45,-1.25,-0.15,0.06,-0.43,-0.03,
2.141,0.45,-1.25,-0.15,0.03,-0.42,-0.04,
2.144,0.45,-1.25,-0.15,-0.02,-0.40,-0.05,
2.145,0.45,-1.25,-0.15,-0.03,-0.39,-0.05,
2.146,0.45,-1.25,-0.15,-0.06,-0.39,-0.05,
2.146,0.45,-1.25,-0.15,-0.07,-0.41,-0.05,
2.149,0.03,-0.50,0.14,-0.07,-0.41,-0.05,
2.15,0.03,-0.50,0.14,-0.08,-0.43,-0.04,
2.151,0.03,-0.50,0.14,-0.07,-0.46,-0.04,
2.151,0.03,-0.50,0.14,-0.06,-0.47,-0.04,
2.155,0.03,-0.50,0.14,-0.04,-0.48,-0.03,
2.156,0.03,-0.50,0.14,-0.02,-0.49,-0.03,
2.168,-0.31,-0.40,0.58,-0.02,-0.49,-0.03,
2.169,-0.31,-0.40,0.58,-0.00,-0.49,-0.02,
2.169,-0.31,-0.40,0.58,0.01,-0.47,-0.02,
2.17,-0.31,-0.40,0.58,0.02,-0.47,-0.03,
2.17,-0.31,-0.40,0.58,0.02,-0.45,-0.02,
2.171,-0.31,-0.40,0.58,0.02,-0.44,-0.02,
2.171,-0.38,-0.34,0.17,0.02,-0.44,-0.02,
2.171,-0.38,-0.34,0.17,0.01,-0.43,-0.02,
2.172,-0.38,-0.34,0.17,-0.00,-0.42,-0.02,
2.172,-0.38,-0.34,0.17,-0.01,-0.42,-0.01,
2.207,-0.38,-0.34,0.17,-0.02,-0.42,-0.01,
2.208,-0.38,-0.34,0.17,-0.03,-0.42,-0.01,
2.209,-0.44,-0.47,0.02,-0.03,-0.42,-0.01,
2.209,-0.44,-0.47,0.02,-0.04,-0.42,-0.01,
2.209,-0.44,-0.47,0.02,-0.05,-0.42,-0.01,
2.21,-0.44,-0.47,0.02,-0.06,-0.41,-0.01,
2.21,-0.44,-0.47,0.02,-0.07,-0.41,-0.01,
2.21,-0.44,-0.47,0.02,-0.08,-0.41,-0.01,
2.21,-0.40,-0.38,0.17,-0.08,-0.41,-0.01,
2.211,-0.40,-0.38,0.17,-0.09,-0.41,-0.01,
2.211,-0.40,-0.38,0.17,-0.09,-0.42,-0.01,
2.211,-0.40,-0.38,0.17,-0.09,-0.42,-0.01,
2.212,-0.40,-0.38,0.17,-0.08,-0.41,0.00,
2.212,-0.40,-0.38,0.17,-0.07,-0.41,0.01,
2.212,-0.62,-0.64,0.42,-0.07,-0.41,0.01,
2.213,-0.62,-0.64,0.42,-0.06,-0.40,0.02,
2.213,-0.62,-0.64,0.42,-0.07,-0.36,0.04,
2.213,-0.62,-0.64,0.42,-0.07,-0.35,0.05,
2.214,-0.62,-0.64,0.42,-0.08,-0.33,0.06,
2.214,-0.62,-0.64,0.42,-0.09,-0.31,0.06,
2.214,-0.46,-1.08,0.09,-0.09,-0.31,0.06,
2.215,-0.46,-1.08,0.09,-0.10,-0.30,0.06,
2.215,-0.46,-1.08,0.09,-0.11,-0.29,0.05,
2.215,-0.46,-1.08,0.09,-0.12,-0.29,0.05,
2.216,-0.46,-1.08,0.09,-0.12,-0.29,0.04,
2.216,-0.46,-1.08,0.09,-0.13,-0.29,0.03,
2.219,0.01,-0.95,0.23,-0.13,-0.29,0.03,
2.22,0.01,-0.95,0.23,-0.13,-0.28,0.02,
2.223,0.01,-0.95,0.23,-0.13,-0.28,0.00,
2.223,0.01,-0.95,0.23,-0.13,-0.28,-0.00,
2.223,0.01,-0.95,0.23,-0.13,-0.27,-0.01,
2.225,0.01,-0.95,0.23,-0.12,-0.27,-0.02,
2.227,-0.10,-0.66,0.46,-0.12,-0.27,-0.02,
2.228,-0.10,-0.66,0.46,-0.12,-0.26,-0.03,
2.23,-0.10,-0.66,0.46,-0.11,-0.26,-0.04,
2.231,-0.10,-0.66,0.46,-0.10,-0.25,-0.04,
2.233,-0.10,-0.66,0.46,-0.09,-0.25,-0.05,
2.235,-0.10,-0.66,0.46,-0.09,-0.25,-0.05,
2.237,-0.38,-0.34,0.45,-0.09,-0.25,-0.05,
2.238,-0.38,-0.34,0.45,-0.08,-0.24,-0.05,
2.259,-0.38,-0.34,0.45,-0.07,-0.24,-0.06,
2.259,-0.38,-0.34,0.45,-0.07,-0.24,-0.06,
2.26,-0.38,-0.34,0.45,-0.06,-0.23,-0.06,
2.26,-0.38,-0.34,0.45,-0.05,-0.23,-0.06,
2.26,-0.66,-0.22,0.52,-0.05,-0.23,-0.06,
2.261,-0.66,-0.22,0.52,-0.05,-0.23,-0.06,
2.297,-0.66,-0.22,0.52,-0.05,-0.22,-0.05,
2.298,-0.66,-0.22,0.52,-0.05,-0.21,-0.05,
2.298,-0.66,-0.22,0.52,-0.05,-0.20,-0.04,
2.299,-0.66,-0.22,0.52,-0.06,-0.19,-0.04,
2.299,-0.74,-0.39,0.44,-0.06,-0.19,-0.04,
2.3,-0.74,-0.39,0.44,-0.06,-0.17,-0.03,
2.3,-0.74,-0.39,0.44,-0.07,-0.16,-0.03,
2.3,-0.74,-0.39,0.44,-0.08,-0.16,-0.03,
2.301,-0.74,-0.39,0.44,-0.08,-0.16,-0.03,
2.301,-0.74,-0.39,0.44,-0.09,-0.15,-0.02,
2.302,-0.58,-0.54,0.48,-0.09,-0.15,-0.02,
2.302,-0.58,-0.54,0.48,-0.09,-0.15,-0.01,
2.303,-0.58,-0.54,0.48,-0.10,-0.15,-0.01,
2.303,-0.58,-0.54,0.48,-0.10,-0.15,-0.01,
2.304,-0.58,-0.54,0.48,-0.09,-0.16,-0.02,
2.304,-0.58,-0.54,0.48,-0.08,-0.19,-0.02,
2.304,-0.27,-0.11,0.74,-0.08,-0.19,-0.02,
2.305,-0.27,-0.11,0.74,-0.06,-0.22,-0.03,
2.305,-0.27,-0.11,0.74,-0.02,-0.27,-0.04,
2.306,-0.27,-0.11,0.74,-0.01,-0.29,-0.03,
2.306,-0.27,-0.11,0.74,0.02,-0.33,-0.02,
2.307,-0.27,-0.11,0.74,0.04,-0.35,-0.01,
2.307,-0.48,0.12,1.01,0.04,-0.35,-0.01,
2.307,-0.48,0.12,1.01,0.06,-0.37,-0.01,
2.308,-0.48,0.12,1.01,0.08,-0.39,-0.02,
2.308,-0.48,0.12,1.01,0.08,-0.39,-0.02,
2.309,-0.48,0.12,1.01,0.08,-0.39,-0.03,
2.309,-0.48,0.12,1.01,0.08,-0.38,-0.02,
2.31,-0.48,0.08,0.37,0.08,-0.38,-0.02,
2.31,-0.48,0.08,0.37,0.08,-0.36,-0.00,
2.31,-0.48,0.08,0.37,0.06,-0.35,0.01,
2.311,-0.48,0.08,0.37,0.05,-0.34,0.01,
2.311,-0.48,0.08,0.37,0.04,-0.34,-0.00,
2.312,-0.48,0.08,0.37,0.03,-0.34,-0.01,
2.312,-0.11,-0.14,0.21,0.03,-0.34,-0.01,
2.313,-0.11,-0.14,0.21,0.02,-0.34,-0.03,
2.313,-0.11,-0.14,0.21,0.01,-0.33,-0.05,
2.314,-0.11,-0.14,0.21,0.00,-0.33,-0.06,
2.314,-0.11,-0.14,0.21,-0.01,-0.32,-0.07,
2.32,-0.11,-0.14,0.21,-0.01,-0.30,-0.06,
2.321,-0.17,0.31,0.45,-0.01,-0.30,-0.06,
2.321,-0.17,0.31,0.45,-0.01,-0.30,-0.04,
2.322,-0.17,0.31,0.45,-0.00,-0.31,-0.01,
2.332,-0.17,0.31,0.45,0.00,-0.31,0.00,
2.332,-0.17,0.31,0.45,0.01,-0.32,0.02,
2.333,-0.17,0.31,0.45,0.01,-0.33,0.03,
2.333,-0.38,-0.29,0.71,0.01,-0.33,0.03,
2.334,-0.38,-0.29,0.71,0.02,-0.33,0.03,
2.334,-0.38,-0.29,0.71,0.02,-0.32,0.03,
2.334,-0.38,-0.29,0.71,0.02,-0.32,0.02,
2.335,-0.38,-0.29,0.71,0.02,-0.30,0.02,
2.335,-0.38,-0.29,0.71,0.02,-0.29,0.01,
2.337,0.05,-0.61,0.35,0.02,-0.29,0.01,
2.337,0.05,-0.61,0.35,0.01,-0.27,0.01,
2.349,0.05,-0.61,0.35,0.02,-0.25,-0.00,
2.35,0.05,-0.61,0.35,0.02,-0.24,-0.00,
2.35,0.05,-0.61,0.35,0.02,-0.23,-0.01,
2.351,0.05,-0.61,0.35,0.02,-0.22,-0.01,
2.351,0.14,-0.53,0.32,0.02,-0.22,-0.01,
2.351,0.14,-0.53,0.32,0.02,-0.21,-0.01,
2.355,0.14,-0.53,0.32,0.03,-0.21,-0.02,
2.356,0.14,-0.53,0.32,0.03,-0.21,-0.02,
2.356,0.14,-0.53,0.32,0.03,-0.21,-0.02,
2.357,0.14,-0.53,0.32,0.04,-0.20,-0.03,
2.367,-0.07,-0.26,0.27,0.04,-0.20,-0.03,
2.368,-0.07,-0.26,0.27,0.04,-0.20,-0.03,
2.368,-0.07,-0.26,0.27,0.04,-0.20,-0.03,
2.368,-0.07,-0.26,0.27,0.04,-0.20,-0.03,
2.369,-0.07,-0.26,0.27,0.03,-0.19,-0.03,
2.369,-0.07,-0.26,0.27,0.03,-0.18,-0.03,
2.369,-0.26,-0.04,0.19,0.03,-0.18,-0.03,
2.37,-0.26,-0.04,0.19,0.03,-0.17,-0.03,
2.37,-0.26,-0.04,0.19,0.03,-0.16,-0.03,
2.384,-0.26,-0.04,0.19,0.03,-0.16,-0.03,
2.385,-0.26,-0.04,0.19,0.03,-0.15,-0.02,
2.385,-0.26,-0.04,0.19,0.03,-0.14,-0.02,
2.385,-0.35,0.08,0.21,0.03,-0.14,-0.02,
2.386,-0.35,0.08,0.21,0.03,-0.13,-0.02,
2.386,-0.35,0.08,0.21,0.03,-0.13,-0.02,
2.386,-0.35,0.08,0.21,0.03,-0.12,-0.02,
2.387,-0.35,0.08,0.21,0.03,-0.12,-0.02,
2.387,-0.35,0.08,0.21,0.03,-0.11,-0.02,
2.387,-0.30,0.08,0.34,0.03,-0.11,-0.02,
2.387,-0.30,0.08,0.34,0.03,-0.11,-0.02,
2.412,-0.30,0.08,0.34,0.03,-0.10,-0.02,
2.413,-0.30,0.08,0.34,0.03,-0.10,-0.02,
2.413,-0.30,0.08,0.34,0.03,-0.10,-0.02,
2.413,-0.30,0.08,0.34,0.03,-0.09,-0.02,
2.414,-0.26,0.05,0.41,0.03,-0.09,-0.02,
2.414,-0.26,0.05,0.41,0.03,-0.09,-0.02,
2.414,-0.26,0.05,0.41,0.03,-0.09,-0.02,
2.415,-0.26,0.05,0.41,0.03,-0.09,-0.02,
2.415,-0.26,0.05,0.41,0.03,-0.09,-0.02,
2.415,-0.26,0.05,0.41,0.03,-0.09,-0.02,
2.415,-0.18,0.03,0.54,0.03,-0.09,-0.02,
2.416,-0.18,0.03,0.54,0.03,-0.09,-0.02,
2.416,-0.18,0.03,0.54,0.04,-0.09,-0.02,
2.416,-0.18,0.03,0.54,0.04,-0.09,-0.02,
2.417,-0.18,0.03,0.54,0.04,-0.08,-0.02,
2.417,-0.18,0.03,0.54,0.04,-0.08,-0.02,
2.445,-0.15,0.11,0.43,0.04,-0.08,-0.02,
2.445,-0.15,0.11,0.43,0.05,-0.07,-0.02,
2.446,-0.15,0.11,0.43,0.05,-0.06,-0.02,
2.446,-0.15,0.11,0.43,0.04,-0.06,-0.02,
2.447,-0.15,0.11,0.43,0.04,-0.07,-0.02,
2.447,-0.15,0.11,0.43,0.03,-0.06,-0.02,
2.448,-0.00,0.02,0.32,0.03,-0.06,-0.02,
2.448,-0.00,0.02,0.32,0.02,-0.05,-0.02,
2.449,-0.00,0.02,0.32,-0.01,0.07,-0.03,
2.449,-0.00,0.02,0.32,-0.02,0.11,-0.03,
2.449,-0.00,0.02,0.32,-0.04,0.17,-0.02,
2.45,-0.00,0.02,0.32,-0.04,0.16,-0.02,
2.45,-0.07,-0.32,0.48,-0.04,0.16,-0.02,
2.451,-0.07,-0.32,0.48,-0.05,0.11,-0.00,
2.451,-0.07,-0.32,0.48,-0.06,0.05,0.01,
2.452,-0.07,-0.32,0.48,-0.06,0.04,0.01,
2.452,-0.07,-0.32,0.48,-0.07,0.02,0.01,
2.452,-0.07,-0.32,0.48,-0.07,0.01,0.01,
2.453,0.02,-0.69,0.56,-0.07,0.01,0.01,
2.453,0.02,-0.69,0.56,-0.08,-0.01,0.01,
2.454,0.02,-0.69,0.56,-0.08,-0.03,-0.00,
2.454,0.02,-0.69,0.56,-0.08,-0.03,-0.00,
2.455,0.02,-0.69,0.56,-0.08,-0.04,-0.01,
2.455,0.02,-0.69,0.56,-0.09,-0.06,-0.01,
2.46,0.01,-0.85,0.27,-0.09,-0.06,-0.01,
2.461,0.01,-0.85,0.27,-0.09,-0.08,-0.01,
2.462,0.01,-0.85,0.27,-0.09,-0.11,-0.00,
2.462,0.01,-0.85,0.27,-0.09,-0.12,-0.00,
2.465,0.01,-0.85,0.27,-0.08,-0.13,0.00,
2.466,0.01,-0.85,0.27,-0.07,-0.14,0.01,
2.469,0.13,-0.70,0.24,-0.07,-0.14,0.01,
2.47,0.13,-0.70,0.24,-0.06,-0.14,0.01,
2.471,0.13,-0.70,0.24,-0.03,-0.13,0.02,
2.475,0.13,-0.70,0.24,-0.02,-0.12,0.02,
2.476,0.13,-0.70,0.24,0.00,-0.11,0.03,
2.477,0.13,-0.70,0.24,0.02,-0.09,0.03,
2.477,0.33,-0.79,0.21,0.02,-0.09,0.03,
2.477,0.33,-0.79,0.21,0.04,-0.08,0.03,
2.482,0.33,-0.79,0.21,0.07,-0.06,0.03,
2.483,0.33,-0.79,0.21,0.08,-0.05,0.03,
2.483,0.33,-0.79,0.21,0.09,-0.05,0.03,
2.487,0.33,-0.79,0.21,0.10,-0.05,0.03,
2.488,0.71,-0.85,0.04,0.10,-0.05,0.03,
2.488,0.71,-0.85,0.04,0.11,-0.05,0.03,
2.494,0.71,-0.85,0.04,0.12,-0.06,0.03,
2.495,0.71,-0.85,0.04,0.12,-0.06,0.02,
2.496,0.71,-0.85,0.04,0.12,-0.06,0.02,
2.496,0.71,-0.85,0.04,0.12,-0.03,0.01,
2.497,0.74,-0.87,-0.13,0.12,-0.03,0.01,
2.497,0.74,-0.87,-0.13,0.11,0.00,-0.00,
2.502,0.74,-0.87,-0.13,0.11,0.07,-0.01,
2.503,0.74,-0.87,-0.13,0.10,0.08,-0.01,
2.503,0.74,-0.87,-0.13,0.11,0.10,-0.01,
2.512,0.74,-0.87,-0.13,0.11,0.11,-0.01,
2.513,0.26,-0.95,0.27,0.11,0.11,-0.01,
2.513,0.26,-0.95,0.27,0.11,0.11,-0.00,
2.514,0.26,-0.95,0.27,0.11,0.07,0.00,
2.514,0.26,-0.95,0.27,0.11,0.06,0.01,
2.515,0.26,-0.95,0.27,0.11,0.02,0.01,
2.517,0.26,-0.95,0.27,0.11,-0.01,0.01,
2.518,0.44,-0.77,0.53,0.11,-0.01,0.01,
2.519,0.44,-0.77,0.53,0.12,-0.04,0.01,
2.546,0.44,-0.77,0.53,0.12,-0.06,0.00,
2.547,0.44,-0.77,0.53,0.12,-0.06,0.00,
2.547,0.44,-0.77,0.53,0.12,-0.07,-0.00,
2.548,0.44,-0.77,0.53,0.12,-0.07,-0.00,
2.548,0.70,-0.61,0.32,0.12,-0.07,-0.00,
2.548,0.70,-0.61,0.32,0.11,-0.09,-0.01,
2.549,0.70,-0.61,0.32,0.11,-0.12,-0.01,
2.549,0.70,-0.61,0.32,0.11,-0.13,-0.01,
2.549,0.70,-0.61,0.32,0.11,-0.16,-0.01,
2.55,0.70,-0.61,0.32,0.12,-0.19,-0.01,
2.55,0.95,-0.62,0.36,0.12,-0.19,-0.01,
2.55,0.95,-0.62,0.36,0.13,-0.22,-0.01,
2.551,0.95,-0.62,0.36,0.14,-0.24,-0.01,
2.551,0.95,-0.62,0.36,0.14,-0.25,-0.01,
2.551,0.95,-0.62,0.36,0.14,-0.25,-0.02,
2.552,0.95,-0.62,0.36,0.14,-0.25,-0.02,
2.552,0.83,-0.80,0.29,0.14,-0.25,-0.02,
2.552,0.83,-0.80,0.29,0.14,-0.24,-0.02,
2.552,0.83,-0.80,0.29,0.14,-0.22,-0.03,
2.553,0.83,-0.80,0.29,0.14,-0.21,-0.03,
2.553,0.83,-0.80,0.29,0.14,-0.20,-0.03,
2.568,0.83,-0.80,0.29,0.14,-0.19,-0.03,
2.569,0.43,-0.80,0.17,0.14,-0.19,-0.03,
2.57,0.43,-0.80,0.17,0.14,-0.19,-0.03,
2.57,0.43,-0.80,0.17,0.13,-0.18,-0.03,
2.57,0.43,-0.80,0.17,0.13,-0.18,-0.03,
2.571,0.43,-0.80,0.17,0.13,-0.19,-0.02,
2.571,0.43,-0.80,0.17,0.13,-0.21,-0.02,
2.571,0.21,-0.81,0.20,0.13,-0.21,-0.02,
2.572,0.21,-0.81,0.20,0.13,-0.21,-0.02,
2.572,0.21,-0.81,0.20,0.12,-0.21,-0.01,
2.572,0.21,-0.81,0.20,0.11,-0.21,-0.01,
2.575,0.21,-0.81,0.20,0.11,-0.20,-0.02,
2.576,0.21,-0.81,0.20,0.11,-0.19,-0.02,
2.578,0.27,-0.77,0.08,0.11,-0.19,-0.02,
2.579,0.27,-0.77,0.08,0.10,-0.17,-0.02,
2.581,0.27,-0.77,0.08,0.09,-0.17,-0.02,
2.582,0.27,-0.77,0.08,0.09,-0.17,-0.02,
2.627,0.27,-0.77,0.08,0.08,-0.16,-0.02,
2.628,0.27,-0.77,0.08,0.08,-0.16,-0.02,
2.629,0.30,-0.78,0.11,0.08,-0.16,-0.02,
2.63,0.30,-0.78,0.11,0.07,-0.14,-0.03,
2.632,0.30,-0.78,0.11,0.07,-0.12,-0.04,
2.633,0.30,-0.78,0.11,0.07,-0.11,-0.04,
2.634,0.30,-0.78,0.11,0.07,-0.10,-0.04,
2.635,0.30,-0.78,0.11,0.08,-0.09,-0.04,
2.636,0.08,-0.87,0.27,0.08,-0.09,-0.04,
2.637,0.08,-0.87,0.27,0.08,-0.09,-0.04,
2.639,0.08,-0.87,0.27,0.09,-0.10,-0.03,
2.64,0.08,-0.87,0.27,0.09,-0.10,-0.03,
2.641,0.08,-0.87,0.27,0.08,-0.11,-0.02,
2.642,0.08,-0.87,0.27,0.08,-0.11,-0.02,
2.644,0.13,-0.88,0.31,0.08,-0.11,-0.02,
2.645,0.13,-0.88,0.31,0.07,-0.11,-0.02,
2.647,0.13,-0.88,0.31,0.07,-0.10,-0.02,
2.649,0.13,-0.88,0.31,0.07,-0.10,-0.02,
2.652,0.13,-0.88,0.31,0.06,-0.10,-0.02,
2.653,0.13,-0.88,0.31,0.06,-0.10,-0.01,
2.653,0.20,-0.90,0.34,0.06,-0.10,-0.01,
2.654,0.20,-0.90,0.34,0.07,-0.10,-0.01,
2.654,0.20,-0.90,0.34,0.06,-0.10,-0.01,
2.655,0.20,-0.90,0.34,0.06,-0.10,-0.01,
2.655,0.20,-0.90,0.34,0.06,-0.10,-0.01,
2.655,0.20,-0.90,0.34,0.06,-0.10,-0.00,
2.656,0.22,-0.93,0.43,0.06,-0.10,-0.00,
2.656,0.22,-0.93,0.43,0.06,-0.11,-0.00,
2.657,0.22,-0.93,0.43,0.06,-0.10,0.00,
2.657,0.22,-0.93,0.43,0.06,-0.10,0.00,
2.657,0.22,-0.93,0.43,0.06,-0.11,0.00,
2.658,0.22,-0.93,0.43,0.06,-0.11,0.01,
2.658,0.30,-0.95,0.42,0.06,-0.11,0.01,
2.659,0.30,-0.95,0.42,0.06,-0.12,0.01,
2.659,0.30,-0.95,0.42,0.05,-0.13,0.01,
2.659,0.30,-0.95,0.42,0.05,-0.14,0.01,
2.66,0.30,-0.95,0.42,0.05,-0.15,0.02,
2.66,0.30,-0.95,0.42,0.05,-0.15,0.02,
2.66,0.52,-0.90,0.46,0.05,-0.15,0.02,
2.661,0.52,-0.90,0.46,0.04,-0.15,0.01,
2.661,0.52,-0.90,0.46,0.04,-0.14,0.01,
2.662,0.52,-0.90,0.46,0.04,-0.14,0.01,
2.662,0.52,-0.90,0.46,0.04,-0.13,0.01,
2.662,0.52,-0.90,0.46,0.04,-0.13,0.01,
2.663,0.59,-0.88,0.55,0.04,-0.13,0.01,
2.663,0.59,-0.88,0.55,0.04,-0.13,0.01,
2.663,0.59,-0.88,0.55,0.04,-0.13,0.01,
2.664,0.59,-0.88,0.55,0.04,-0.13,0.01,
2.664,0.59,-0.88,0.55,0.04,-0.13,0.01,
2.669,0.59,-0.88,0.55,0.04,-0.13,0.00,
2.67,0.68,-0.82,0.68,0.04,-0.13,0.00,
2.67,0.68,-0.82,0.68,0.04,-0.13,-0.00,
2.671,0.68,-0.82,0.68,0.04,-0.11,-0.01,
2.674,0.68,-0.82,0.68,0.04,-0.11,-0.01,
2.675,0.68,-0.82,0.68,0.05,-0.11,-0.01,
2.676,0.68,-0.82,0.68,0.05,-0.11,-0.01,
2.678,0.65,-0.75,0.75,0.05,-0.11,-0.01,
2.679,0.65,-0.75,0.75,0.04,-0.12,-0.01,
2.684,0.65,-0.75,0.75,0.04,-0.14,-0.00,
2.685,0.65,-0.75,0.75,0.04,-0.14,-0.00,
2.685,0.65,-0.75,0.75,0.03,-0.15,-0.01,
2.686,0.65,-0.75,0.75,0.03,-0.14,-0.01,
2.703,0.78,-0.63,0.73,0.03,-0.14,-0.01,
2.704,0.78,-0.63,0.73,0.03,-0.14,-0.01,
2.704,0.78,-0.63,0.73,0.03,-0.13,-0.02,
2.704,0.78,-0.63,0.73,0.04,-0.12,-0.02,
2.705,0.78,-0.63,0.73,0.04,-0.10,-0.02,
2.705,0.78,-0.63,0.73,0.05,-0.08,-0.03,
2.705,0.59,-0.56,0.81,0.05,-0.08,-0.03,
2.714,0.59,-0.56,0.81,0.06,-0.07,-0.03,
2.715,0.59,-0.56,0.81,0.07,-0.06,-0.03,
2.715,0.59,-0.56,0.81,0.07,-0.07,-0.03,
2.715,0.59,-0.56,0.81,0.07,-0.08,-0.02,
2.716,0.59,-0.56,0.81,0.07,-0.09,-0.02,
2.716,0.60,-0.51,0.81,0.07,-0.09,-0.02,
2.716,0.60,-0.51,0.81,0.06,-0.10,-0.02,
2.717,0.60,-0.51,0.81,0.05,-0.12,-0.02,
2.717,0.60,-0.51,0.81,0.05,-0.12,-0.02,
2.717,0.60,-0.51,0.81,0.04,-0.12,-0.01,
2.718,0.60,-0.51,0.81,0.04,-0.13,-0.01,
2.749,0.67,-0.46,0.78,0.04,-0.13,-0.01,
2.75,0.67,-0.46,0.78,0.04,-0.13,-0.01,
2.751,0.67,-0.46,0.78,0.04,-0.13,-0.01,
2.751,0.67,-0.46,0.78,0.04,-0.13,-0.01,
2.751,0.67,-0.46,0.78,0.04,-0.13,-0.01,
2.752,0.67,-0.46,0.78,0.04,-0.15,-0.01,
2.752,0.74,-0.44,0.83,0.04,-0.15,-0.01,
2.752,0.74,-0.44,0.83,0.04,-0.16,-0.00,
2.753,0.74,-0.44,0.83,0.04,-0.18,0.01,
2.753,0.74,-0.44,0.83,0.04,-0.18,0.01,
2.753,0.74,-0.44,0.83,0.03,-0.19,0.01,
2.754,0.74,-0.44,0.83,0.03,-0.19,0.01,
2.754,0.80,-0.49,0.74,0.03,-0.19,0.01,
2.754,0.80,-0.49,0.74,0.02,-0.18,0.01,
2.754,0.80,-0.49,0.74,0.02,-0.18,0.01,
2.755,0.80,-0.49,0.74,0.02,-0.18,0.01,
2.755,0.80,-0.49,0.74,0.02,-0.18,0.01,
2.755,0.80,-0.49,0.74,0.02,-0.17,0.00,
2.756,0.78,-0.48,0.84,0.02,-0.17,0.00,
2.756,0.78,-0.48,0.84,0.02,-0.16,-0.00,
2.784,0.78,-0.48,0.84,0.02,-0.14,-0.00,
2.784,0.78,-0.48,0.84,0.02,-0.13,-0.00,
2.785,0.78,-0.48,0.84,0.01,-0.13,-0.00,
2.785,0.78,-0.48,0.84,0.01,-0.13,0.00,
2.786,0.60,-0.48,0.89,0.01,-0.13,0.00,
2.786,0.60,-0.48,0.89,0.01,-0.13,0.00,
2.787,0.60,-0.48,0.89,0.00,-0.12,0.00,
2.787,0.60,-0.48,0.89,0.00,-0.12,0.00,
2.787,0.60,-0.48,0.89,0.00,-0.12,0.01,
2.788,0.60,-0.48,0.89,-0.01,-0.13,0.01,
2.788,0.58,-0.49,0.96,-0.01,-0.13,0.01,
2.789,0.58,-0.49,0.96,-0.01,-0.13,0.01,
2.789,0.58,-0.49,0.96,-0.01,-0.13,0.01,
2.79,0.58,-0.49,0.96,-0.01,-0.14,0.01,
2.79,0.58,-0.49,0.96,-0.01,-0.15,0.01,
2.791,0.58,-0.49,0.96,-0.01,-0.16,0.01,
2.791,0.67,-0.48,0.96,-0.01,-0.16,0.01,
2.791,0.67,-0.48,0.96,-0.01,-0.17,0.01,
2.792,0.67,-0.48,0.96,-0.01,-0.19,0.01,
2.792,0.67,-0.48,0.96,-0.01,-0.19,0.01,
2.793,0.67,-0.48,0.96,-0.01,-0.20,0.02,
2.793,0.67,-0.48,0.96,-0.01,-0.21,0.02,
2.794,0.82,-0.51,0.93,-0.01,-0.21,0.02,
2.794,0.82,-0.51,0.93,-0.01,-0.21,0.02,
2.794,0.82,-0.51,0.93,0.00,-0.23,0.02,
2.795,0.82,-0.51,0.93,0.01,-0.23,0.02,
2.795,0.82,-0.51,0.93,0.01,-0.23,0.02,
2.796,0.82,-0.51,0.93,0.01,-0.24,0.02,
2.801,0.86,-0.53,0.84,0.01,-0.24,0.02,
2.802,0.86,-0.53,0.84,0.02,-0.24,0.02,
2.802,0.86,-0.53,0.84,0.02,-0.24,0.02,
2.803,0.86,-0.53,0.84,0.02,-0.25,0.02,
2.803,0.86,-0.53,0.84,0.02,-0.25,0.03,
2.807,0.86,-0.53,0.84,0.02,-0.25,0.02,
2.808,0.82,-0.48,0.82,0.02,-0.25,0.02,
2.809,0.82,-0.48,0.82,0.02,-0.26,0.03,
2.812,0.82,-0.48,0.82,0.02,-0.27,0.03,
2.813,0.82,-0.48,0.82,0.02,-0.28,0.03,
2.814,0.82,-0.48,0.82,0.03,-0.28,0.03,
2.817,0.82,-0.48,0.82,0.02,-0.29,0.02,
2.818,0.65,-0.34,0.80,0.02,-0.29,0.02,
2.819,0.65,-0.34,0.80,0.02,-0.29,0.02,
2.823,0.65,-0.34,0.80,0.03,-0.29,0.02,
2.824,0.65,-0.34,0.80,0.03,-0.30,0.02,
2.824,0.65,-0.34,0.80,0.03,-0.29,0.02,
2.825,0.65,-0.34,0.80,0.04,-0.29,0.02,
2.827,0.28,-0.21,0.83,0.04,-0.29,0.02,
2.828,0.28,-0.21,0.83,0.04,-0.28,0.03,
2.833,0.28,-0.21,0.83,0.04,-0.27,0.03,
2.837,0.28,-0.21,0.83,0.04,-0.26,0.02,
2.838,0.28,-0.21,0.83,0.04,-0.25,0.02,
2.838,0.28,-0.21,0.83,0.05,-0.24,0.02,
2.839,0.11,-0.35,0.73,0.05,-0.24,0.02,
2.839,0.11,-0.35,0.73,0.05,-0.22,0.02,
2.849,0.11,-0.35,0.73,0.04,-0.20,0.01,
2.85,0.11,-0.35,0.73,0.04,-0.20,0.01,
2.851,0.11,-0.35,0.73,0.04,-0.19,0.01,
2.851,0.11,-0.35,0.73,0.04,-0.18,0.00,
2.852,0.25,-0.55,0.61,0.04,-0.18,0.00,
2.852,0.25,-0.55,0.61,0.04,-0.17,-0.00,
2.852,0.25,-0.55,0.61,0.04,-0.17,-0.01,
2.853,0.25,-0.55,0.61,0.04,-0.16,-0.01,
2.879,0.25,-0.55,0.61,0.03,-0.16,-0.00,
2.88,0.25,-0.55,0.61,0.03,-0.17,-0.01,
2.88,0.49,-0.61,0.63,0.03,-0.17,-0.01,
2.88,0.49,-0.61,0.63,0.03,-0.17,-0.01,
2.881,0.49,-0.61,0.63,0.02,-0.17,-0.02,
2.881,0.49,-0.61,0.63,0.02,-0.17,-0.02,
2.881,0.49,-0.61,0.63,0.02,-0.17,-0.02,
2.882,0.49,-0.61,0.63,0.02,-0.17,-0.02,
2.882,0.67,-0.47,0.67,0.02,-0.17,-0.02,
2.882,0.67,-0.47,0.67,0.02,-0.16,-0.03,
2.884,0.67,-0.47,0.67,0.02,-0.15,-0.03,
2.884,0.67,-0.47,0.67,0.02,-0.15,-0.03,
2.885,0.67,-0.47,0.67,0.02,-0.14,-0.03,
2.885,0.67,-0.47,0.67,0.03,-0.13,-0.04,
2.885,0.47,-0.12,0.63,0.03,-0.13,-0.04,
2.886,0.47,-0.12,0.63,0.03,-0.12,-0.04,
2.886,0.47,-0.12,0.63,0.04,-0.10,-0.04,
2.886,0.47,-0.12,0.63,0.04,-0.10,-0.04,
2.887,0.47,-0.12,0.63,0.04,-0.10,-0.04,
2.887,0.47,-0.12,0.63,0.04,-0.09,-0.04,
2.887,0.24,0.05,0.56,0.04,-0.09,-0.04,
2.888,0.24,0.05,0.56,0.05,-0.09,-0.03,
2.89,0.24,0.05,0.56,0.05,-0.09,-0.03,
2.891,0.24,0.05,0.56,0.06,-0.09,-0.03,
2.893,0.24,0.05,0.56,0.06,-0.08,-0.02,
2.897,0.24,0.05,0.56,0.06,-0.08,-0.02,
2.898,0.09,0.12,0.48,0.06,-0.08,-0.02,
2.898,0.09,0.12,0.48,0.06,-0.07,-0.02,
2.902,0.09,0.12,0.48,0.06,-0.07,-0.02,
2.903,0.09,0.12,0.48,0.06,-0.07,-0.02,
2.911,0.09,0.12,0.48,0.06,-0.07,-0.02,
2.912,0.09,0.12,0.48,0.06,-0.07,-0.02,
2.913,-0.05,0.06,0.45,0.06,-0.07,-0.02,
2.913,-0.05,0.06,0.45,0.06,-0.06,-0.02,
2.913,-0.05,0.06,0.45,0.06,-0.06,-0.02,
2.914,-0.05,0.06,0.45,0.06,-0.06,-0.02,
2.914,-0.05,0.06,0.45,0.06,-0.06,-0.02,
2.917,-0.05,0.06,0.45,0.06,-0.06,-0.02,
2.945,-0.26,-0.01,0.45,0.06,-0.06,-0.02,
2.945,-0.26,-0.01,0.45,0.07,-0.06,-0.02,
2.946,-0.26,-0.01,0.45,0.07,-0.06,-0.02,
2.946,-0.26,-0.01,0.45,0.07,-0.06,-0.02,
2.947,-0.26,-0.01,0.45,0.07,-0.06,-0.02,
2.947,-0.26,-0.01,0.45,0.07,-0.05,-0.02,
2.948,-0.31,-0.04,0.39,0.07,-0.05,-0.02,
2.948,-0.31,-0.04,0.39,0.07,-0.05,-0.02,
2.948,-0.31,-0.04,0.39,0.08,-0.05,-0.01,
2.949,-0.31,-0.04,0.39,0.08,-0.05,-0.01,
2.949,-0.31,-0.04,0.39,0.08,-0.04,-0.01,
2.95,-0.31,-0.04,0.39,0.09,-0.04,-0.00,
2.95,-0.24,-0.18,0.32,0.09,-0.04,-0.00,
2.951,-0.24,-0.18,0.32,0.09,-0.03,-0.00,
2.951,-0.24,-0.18,0.32,0.09,-0.03,0.01,
2.952,-0.24,-0.18,0.32,0.10,-0.03,0.01,
2.952,-0.24,-0.18,0.32,0.10,-0.03,0.02,
2.952,-0.24,-0.18,0.32,0.11,-0.03,0.02,
2.953,-0.06,-0.35,0.28,0.11,-0.03,0.02,
2.953,-0.06,-0.35,0.28,0.11,-0.03,0.02,
2.954,-0.06,-0.35,0.28,0.12,-0.03,0.03,
2.954,-0.06,-0.35,0.28,0.12,-0.03,0.03,
2.955,-0.06,-0.35,0.28,0.13,-0.03,0.04,
2.958,-0.06,-0.35,0.28,0.13,-0.02,0.04,
2.959,0.01,-0.54,0.28,0.13,-0.02,0.04,
2.959,0.01,-0.54,0.28,0.13,0.01,0.04,
2.96,0.01,-0.54,0.28,0.13,0.04,0.03,
2.961,0.01,-0.54,0.28,0.13,0.06,0.03,
2.963,0.01,-0.54,0.28,0.13,0.10,0.02,
2.965,0.01,-0.54,0.28,0.13,0.13,0.02,
2.967,-0.41,-0.82,0.38,0.13,0.13,0.02,
2.967,-0.41,-0.82,0.38,0.13,0.15,0.02,
2.97,-0.41,-0.82,0.38,0.14,0.14,0.03,
2.971,-0.41,-0.82,0.38,0.14,0.13,0.03,
2.973,-0.41,-0.82,0.38,0.13,0.10,0.04,
2.976,-0.41,-0.82,0.38,0.12,0.08,0.04,
2.977,-0.32,-0.85,0.44,0.12,0.08,0.04,
2.977,-0.32,-0.85,0.44,0.12,0.05,0.04,
2.98,-0.32,-0.85,0.44,0.11,0.02,0.05,
2.981,-0.32,-0.85,0.44,0.10,0.01,0.05,
2.983,-0.32,-0.85,0.44,0.10,-0.00,0.05,
2.985,-0.32,-0.85,0.44,0.09,-0.01,0.05,
2.988,-0.04,-1.12,0.24,0.09,-0.01,0.05,
2.99,-0.04,-1.12,0.24,0.09,-0.02,0.05,
2.991,-0.04,-1.12,0.24,0.09,-0.02,0.05,
2.991,-0.04,-1.12,0.24,0.09,-0.02,0.04,
2.995,-0.04,-1.12,0.24,0.09,-0.02,0.04,
2.995,-0.04,-1.12,0.24,0.09,-0.02,0.03,
2.999,0.23,-1.33,0.21,0.09,-0.02,0.03,
3.0,0.23,-1.33,0.21,0.10,-0.02,0.03,
3.0,0.23,-1.33,0.21,0.11,-0.02,0.02,
3.003,0.23,-1.33,0.21,0.11,-0.03,0.02,
3.003,0.23,-1.33,0.21,0.11,-0.02,0.01,
3.008,0.23,-1.33,0.21,0.12,-0.02,0.01,
3.009,0.22,-1.31,0.16,0.12,-0.02,0.01,
3.009,0.22,-1.31,0.16,0.12,-0.01,0.01,
3.012,0.22,-1.31,0.16,0.11,0.01,0.00,
3.013,0.22,-1.31,0.16,0.11,0.02,-0.00,
3.013,0.22,-1.31,0.16,0.11,0.03,-0.00,
3.017,0.22,-1.31,0.16,0.10,0.04,-0.01,
3.018,-0.02,-1.06,0.05,0.10,0.04,-0.01,
3.018,-0.02,-1.06,0.05,0.10,0.05,-0.01,
3.02,-0.02,-1.06,0.05,0.09,0.06,-0.02,
3.021,-0.02,-1.06,0.05,0.08,0.06,-0.02,
3.023,-0.02,-1.06,0.05,0.07,0.06,-0.02,
3.025,-0.02,-1.06,0.05,0.07,0.05,-0.02,
3.032,-0.28,-0.98,0.09,0.07,0.05,-0.02,
3.033,-0.28,-0.98,0.09,0.06,0.05,-0.02,
3.033,-0.28,-0.98,0.09,0.06,0.04,-0.01,
3.033,-0.28,-0.98,0.09,0.06,0.04,-0.01,
3.034,-0.28,-0.98,0.09,0.05,0.03,-0.01,
3.036,-0.28,-0.98,0.09,0.05,0.03,-0.01,
3.037,-0.25,-1.13,0.12,0.05,0.03,-0.01,
3.038,-0.25,-1.13,0.12,0.04,0.03,-0.01,
3.042,-0.25,-1.13,0.12,0.04,0.03,-0.01,
3.043,-0.25,-1.13,0.12,0.03,0.03,-0.02,
3.043,-0.25,-1.13,0.12,0.03,0.03,-0.01,
3.045,-0.25,-1.13,0.12,0.02,0.03,-0.01,
3.047,-0.03,-1.24,0.14,0.02,0.03,-0.01,
3.047,-0.03,-1.24,0.14,0.02,0.03,-0.01,
3.051,-0.03,-1.24,0.14,0.02,0.02,-0.01,
3.051,-0.03,-1.24,0.14,0.02,0.02,-0.01,
3.053,-0.03,-1.24,0.14,0.01,0.01,-0.00,
3.055,-0.03,-1.24,0.14,0.01,0.00,-0.01,
3.057,0.24,-1.20,0.18,0.01,0.00,-0.01,
3.057,0.24,-1.20,0.18,0.01,-0.00,-0.01,
3.06,0.24,-1.20,0.18,0.01,0.01,-0.01,
3.061,0.24,-1.20,0.18,0.01,0.02,-0.01,
3.063,0.24,-1.20,0.18,0.01,0.04,-0.02,
3.065,0.24,-1.20,0.18,0.01,0.05,-0.02,
3.067,0.46,-1.02,0.26,0.01,0.05,-0.02,
3.067,0.46,-1.02,0.26,0.02,0.06,-0.02,
3.075,0.46,-1.02,0.26,0.02,0.07,-0.01,
3.076,0.46,-1.02,0.26,0.02,0.07,-0.01,
3.077,0.46,-1.02,0.26,0.03,0.07,-0.01,
3.077,0.46,-1.02,0.26,0.03,0.07,-0.01,
3.078,0.45,-0.82,0.33,0.03,0.07,-0.01,
3.079,0.45,-0.82,0.33,0.03,0.07,-0.01,
3.081,0.45,-0.82,0.33,0.03,0.07,-0.00,
3.082,0.45,-0.82,0.33,0.03,0.06,-0.00,
3.122,0.45,-0.82,0.33,0.03,0.06,-0.00,
3.123,0.45,-0.82,0.33,0.03,0.05,0.00,
3.124,0.37,-0.63,0.42,0.03,0.05,0.00,
3.125,0.37,-0.63,0.42,0.03,0.05,0.00,
3.126,0.37,-0.63,0.42,0.03,0.04,0.01,
3.127,0.37,-0.63,0.42,0.03,0.04,0.01,
3.128,0.37,-0.63,0.42,0.03,0.03,0.01,
3.128,0.37,-0.63,0.42,0.03,0.02,0.01,
3.129,0.42,-0.55,0.46,0.03,0.02,0.01,
3.129,0.42,-0.55,0.46,0.03,0.02,0.01,
3.13,0.42,-0.55,0.46,0.03,0.01,0.01,
3.131,0.42,-0.55,0.46,0.03,0.01,0.01,
3.131,0.42,-0.55,0.46,0.03,0.00,0.01,
3.132,0.42,-0.55,0.46,0.03,-0.00,0.01,
3.132,0.55,-0.52,0.43,0.03,-0.00,0.01,
3.133,0.55,-0.52,0.43,0.03,-0.01,0.01,
3.134,0.55,-0.52,0.43,0.03,-0.02,0.00,
3.134,0.55,-0.52,0.43,0.03,-0.02,0.00,
3.135,0.55,-0.52,0.43,0.03,-0.03,0.00,
3.135,0.55,-0.52,0.43,0.03,-0.04,-0.00,
3.136,0.77,-0.53,0.29,0.03,-0.04,-0.00,
3.137,0.77,-0.53,0.29,0.03,-0.04,-0.01,
3.138,0.77,-0.53,0.29,0.03,-0.05,-0.01,
3.141,0.77,-0.53,0.29,0.04,-0.05,-0.01,
3.142,0.77,-0.53,0.29,0.04,-0.06,-0.01,
3.143,0.77,-0.53,0.29,0.04,-0.06,-0.02,
3.143,1.03,-0.56,0.28,0.04,-0.06,-0.02,
3.144,1.03,-0.56,0.28,0.04,-0.06,-0.02,
3.144,1.03,-0.56,0.28,0.04,-0.07,-0.02,
3.145,1.03,-0.56,0.28,0.04,-0.07,-0.02,
3.145,1.03,-0.56,0.28,0.04,-0.07,-0.03,
3.146,1.03,-0.56,0.28,0.04,-0.08,-0.03,
3.147,1.04,-0.55,0.21,0.04,-0.08,-0.03,
3.147,1.04,-0.55,0.21,0.04,-0.09,-0.03,
3.148,1.04,-0.55,0.21,0.04,-0.10,-0.03,
3.148,1.04,-0.55,0.21,0.03,-0.11,-0.03,
3.149,1.04,-0.55,0.21,0.03,-0.11,-0.03,
3.149,1.04,-0.55,0.21,0.03,-0.12,-0.02,
3.15,1.00,-0.57,0.32,0.03,-0.12,-0.02,
3.15,1.00,-0.57,0.32,0.03,-0.12,-0.02,
3.153,1.00,-0.57,0.32,0.02,-0.13,-0.02,
3.154,1.00,-0.57,0.32,0.02,-0.14,-0.02,
3.154,1.00,-0.57,0.32,0.02,-0.13,-0.02,
3.158,1.00,-0.57,0.32,0.01,-0.12,-0.02,
3.159,0.83,-0.49,0.48,0.01,-0.12,-0.02,
3.16,0.83,-0.49,0.48,0.01,-0.11,-0.02,
3.16,0.83,-0.49,0.48,0.01,-0.12,-0.02,
3.163,0.83,-0.49,0.48,0.01,-0.12,-0.02,
3.164,0.83,-0.49,0.48,0.02,-0.13,-0.01,
3.167,0.83,-0.49,0.48,0.02,-0.14,-0.01,
3.168,0.57,-0.61,0.70,0.02,-0.14,-0.01,
3.168,0.57,-0.61,0.70,0.01,-0.14,-0.01,
3.173,0.57,-0.61,0.70,0.01,-0.16,-0.01,
3.174,0.57,-0.61,0.70,0.01,-0.17,-0.01,
3.174,0.57,-0.61,0.70,0.01,-0.17,-0.01,
3.177,0.57,-0.61,0.70,0.00,-0.17,-0.01,
3.178,0.52,-0.49,0.53,0.00,-0.17,-0.01,
3.178,0.52,-0.49,0.53,-0.01,-0.15,-0.01,
3.182,0.52,-0.49,0.53,-0.02,-0.14,-0.01,
3.183,0.52,-0.49,0.53,-0.03,-0.13,-0.01,
3.183,0.52,-0.49,0.53,-0.04,-0.14,-0.01,
3.186,0.52,-0.49,0.53,-0.04,-0.15,-0.01,
3.195,0.51,-0.53,0.46,-0.04,-0.15,-0.01,
3.196,0.51,-0.53,0.46,-0.05,-0.16,-0.02,
3.196,0.51,-0.53,0.46,-0.05,-0.21,-0.02,
3.197,0.51,-0.53,0.46,-0.06,-0.22,-0.02,
3.197,0.51,-0.53,0.46,-0.06,-0.23,-0.01,
3.197,0.51,-0.53,0.46,-0.07,-0.24,-0.01,
3.198,0.58,-0.54,0.47,-0.07,-0.24,-0.01,
3.198,0.58,-0.54,0.47,-0.07,-0.25,-0.01,
3.219,0.58,-0.54,0.47,-0.07,-0.27,-0.01,
3.22,0.58,-0.54,0.47,-0.07,-0.27,-0.01,
3.22,0.58,-0.54,0.47,-0.07,-0.28,-0.01,
3.221,0.58,-0.54,0.47,-0.06,-0.29,-0.01,
3.221,0.73,-0.49,0.56,-0.06,-0.29,-0.01,
3.221,0.73,-0.49,0.56,-0.05,-0.30,-0.01,
3.222,0.73,-0.49,0.56,-0.05,-0.30,-0.01,
3.222,0.73,-0.49,0.56,-0.04,-0.30,-0.01,
3.222,0.73,-0.49,0.56,-0.03,-0.30,-0.00,
3.223,0.73,-0.49,0.56,-0.03,-0.30,0.00,
3.223,0.75,-0.33,0.54,-0.03,-0.30,0.00,
3.223,0.75,-0.33,0.54,-0.02,-0.30,0.00,
3.224,0.75,-0.33,0.54,-0.02,-0.31,0.00,
3.224,0.75,-0.33,0.54,-0.01,-0.31,0.00,
3.225,0.75,-0.33,0.54,-0.01,-0.31,0.00,
3.225,0.75,-0.33,0.54,-0.00,-0.31,0.00,
3.227,0.72,-0.23,0.61,-0.00,-0.31,0.00,
3.227,0.72,-0.23,0.61,-0.00,-0.31,0.00,
3.23,0.72,-0.23,0.61,0.00,-0.31,0.01,
3.231,0.72,-0.23,0.61,0.00,-0.32,0.01,
3.233,0.72,-0.23,0.61,0.00,-0.32,0.01,
3.236,0.72,-0.23,0.61,0.00,-0.33,0.01,
3.237,0.50,-0.08,0.67,0.00,-0.33,0.01,
3.238,0.50,-0.08,0.67,0.00,-0.33,0.01,
3.241,0.50,-0.08,0.67,0.00,-0.34,0.01,
3.242,0.50,-0.08,0.67,0.00,-0.34,0.01,
3.243,0.50,-0.08,0.67,-0.00,-0.34,0.01,
3.247,0.50,-0.08,0.67,-0.00,-0.34,0.01,
3.247,0.36,-0.03,0.71,-0.00,-0.34,0.01,
3.248,0.36,-0.03,0.71,-0.00,-0.34,0.02,
3.29,0.36,-0.03,0.71,-0.00,-0.34,0.02,
3.291,0.36,-0.03,0.71,-0.00,-0.34,0.02,
3.291,0.36,-0.03,0.71,0.00,-0.34,0.02,
3.292,0.36,-0.03,0.71,0.00,-0.33,0.02,
3.292,0.31,0.02,0.72,0.00,-0.33,0.02,
3.292,0.31,0.02,0.72,0.00,-0.33,0.02,
3.293,0.31,0.02,0.72,0.00,-0.32,0.01,
3.293,0.31,0.02,0.72,0.00,-0.32,0.01,
3.294,0.31,0.02,0.72,0.00,-0.31,0.01,
3.294,0.31,0.02,0.72,0.01,-0.31,0.02,
3.295,0.31,-0.01,0.73,0.01,-0.31,0.02,
3.295,0.31,-0.01,0.73,0.01,-0.30,0.01,
3.296,0.31,-0.01,0.73,0.01,-0.30,0.02,
3.296,0.31,-0.01,0.73,0.01,-0.30,0.02,
3.296,0.31,-0.01,0.73,0.01,-0.29,0.02,
3.297,0.31,-0.01,0.73,0.02,-0.29,0.02,
3.297,0.30,-0.07,0.64,0.02,-0.29,0.02,
3.298,0.30,-0.07,0.64,0.02,-0.29,0.02,
3.298,0.30,-0.07,0.64,0.02,-0.29,0.02,
3.299,0.30,-0.07,0.64,0.02,-0.29,0.01,
3.299,0.30,-0.07,0.64,0.03,-0.29,0.01,
3.299,0.30,-0.07,0.64,0.03,-0.28,0.01,
3.3,0.39,-0.03,0.55,0.03,-0.28,0.01,
3.3,0.39,-0.03,0.55,0.03,-0.28,0.01,
3.301,0.39,-0.03,0.55,0.03,-0.28,0.01,
3.301,0.39,-0.03,0.55,0.03,-0.28,0.01,
3.302,0.39,-0.03,0.55,0.03,-0.28,0.01,
3.302,0.39,-0.03,0.55,0.04,-0.27,0.01,
3.302,0.41,0.02,0.49,0.04,-0.27,0.01,
3.303,0.41,0.02,0.49,0.04,-0.27,0.01,
3.303,0.41,0.02,0.49,0.04,-0.28,0.01,
3.304,0.41,0.02,0.49,0.04,-0.28,0.01,
3.304,0.41,0.02,0.49,0.04,-0.29,0.01,
3.309,0.41,0.02,0.49,0.04,-0.30,0.00,
3.31,0.57,-0.02,0.36,0.04,-0.30,0.00,
3.311,0.57,-0.02,0.36,0.04,-0.31,-0.00,
3.314,0.57,-0.02,0.36,0.03,-0.32,-0.00,
3.315,0.57,-0.02,0.36,0.03,-0.32,-0.00,
3.315,0.57,-0.02,0.36,0.03,-0.32,-0.00,
3.316,0.57,-0.02,0.36,0.03,-0.31,0.00,
3.319,0.47,-0.15,0.35,0.03,-0.31,0.00,
3.32,0.47,-0.15,0.35,0.04,-0.29,0.01,
3.32,0.47,-0.15,0.35,0.05,-0.27,0.01,
3.325,0.47,-0.15,0.35,0.05,-0.26,0.01,
3.326,0.47,-0.15,0.35,0.06,-0.24,0.02,
3.326,0.47,-0.15,0.35,0.07,-0.23,0.02,
3.327,0.37,-0.11,0.56,0.07,-0.23,0.02,
3.328,0.37,-0.11,0.56,0.07,-0.21,0.02,
3.33,0.37,-0.11,0.56,0.08,-0.18,0.02,
3.331,0.37,-0.11,0.56,0.08,-0.17,0.02,
3.333,0.37,-0.11,0.56,0.08,-0.16,0.02,
3.341,0.37,-0.11,0.56,0.08,-0.14,0.02,
3.342,0.42,-0.12,0.55,0.08,-0.14,0.02,
3.342,0.42,-0.12,0.55,0.08,-0.14,0.02,
3.343,0.42,-0.12,0.55,0.08,-0.12,0.02,
3.343,0.42,-0.12,0.55,0.08,-0.12,0.02,
3.344,0.42,-0.12,0.55,0.08,-0.12,0.02,
3.345,0.42,-0.12,0.55,0.07,-0.13,0.03,
3.347,0.36,-0.24,0.61,0.07,-0.13,0.03,
3.348,0.36,-0.24,0.61,0.07,-0.13,0.03,
3.372,0.36,-0.24,0.61,0.07,-0.14,0.02,
3.373,0.36,-0.24,0.61,0.07,-0.14,0.02,
3.373,0.36,-0.24,0.61,0.07,-0.14,0.02,
3.373,0.36,-0.24,0.61,0.07,-0.14,0.02,
3.374,0.16,-0.33,0.53,0.07,-0.14,0.02,
3.374,0.16,-0.33,0.53,0.07,-0.13,0.02,
3.374,0.16,-0.33,0.53,0.07,-0.12,0.02,
3.375,0.16,-0.33,0.53,0.07,-0.12,0.02,
3.375,0.16,-0.33,0.53,0.07,-0.12,0.02,
3.375,0.16,-0.33,0.53,0.07,-0.12,0.02,
3.376,0.10,-0.42,0.40,0.07,-0.12,0.02,
3.376,0.10,-0.42,0.40,0.07,-0.11,0.02,
3.376,0.10,-0.42,0.40,0.07,-0.11,0.02,
3.376,0.10,-0.42,0.40,0.07,-0.10,0.02,
3.377,0.10,-0.42,0.40,0.07,-0.10,0.02,
3.377,0.10,-0.42,0.40,0.06,-0.09,0.02,
3.377,0.26,-0.51,0.24,0.06,-0.09,0.02,
3.378,0.26,-0.51,0.24,0.06,-0.08,0.01,
3.382,0.26,-0.51,0.24,0.06,-0.07,0.01,
3.383,0.26,-0.51,0.24,0.06,-0.06,0.01,
3.383,0.26,-0.51,0.24,0.06,-0.06,0.01,
3.388,0.26,-0.51,0.24,0.06,-0.05,0.01,
3.389,0.38,-0.55,0.17,0.06,-0.05,0.01,
3.389,0.38,-0.55,0.17,0.06,-0.04,0.01,
3.394,0.38,-0.55,0.17,0.06,-0.03,0.00,
3.395,0.38,-0.55,0.17,0.06,-0.03,0.00,
3.395,0.38,-0.55,0.17,0.06,-0.03,0.00,
3.395,0.38,-0.55,0.17,0.06,-0.02,0.00,
3.399,0.32,-0.54,0.11,0.06,-0.02,0.00,
3.4,0.32,-0.54,0.11,0.06,-0.02,0.00,
3.403,0.32,-0.54,0.11,0.06,-0.01,0.01,
3.403,0.32,-0.54,0.11,0.06,-0.00,0.01,
3.404,0.32,-0.54,0.11,0.06,0.00,0.01,
3.405,0.32,-0.54,0.11,0.06,0.01,0.01,
3.407,0.37,-0.57,0.13,0.06,0.01,0.01,
3.407,0.37,-0.57,0.13,0.06,0.02,0.01,
3.41,0.37,-0.57,0.13,0.06,0.03,0.01,
3.411,0.37,-0.57,0.13,0.05,0.03,0.01,
3.413,0.37,-0.57,0.13,0.05,0.04,0.01,
3.415,0.37,-0.57,0.13,0.05,0.04,0.01,
3.456,0.43,-0.53,0.19,0.05,0.04,0.01,
3.457,0.43,-0.53,0.19,0.04,0.04,0.01,
3.457,0.43,-0.53,0.19,0.04,0.04,0.01,
3.458,0.43,-0.53,0.19,0.04,0.03,0.02,
3.458,0.43,-0.53,0.19,0.04,0.03,0.02,
3.459,0.43,-0.53,0.19,0.03,0.03,0.02,
3.459,0.51,-0.54,0.20,0.03,0.03,0.02,
3.46,0.51,-0.54,0.20,0.03,0.02,0.02,
3.46,0.51,-0.54,0.20,0.02,0.01,0.02,
3.46,0.51,-0.54,0.20,0.02,0.01,0.03,
3.461,0.51,-0.54,0.20,0.02,0.01,0.03,
3.461,0.51,-0.54,0.20,0.02,0.00,0.03,
3.462,0.50,-0.53,0.20,0.02,0.00,0.03,
3.462,0.50,-0.53,0.20,0.02,-0.00,0.03,
3.463,0.50,-0.53,0.20,0.01,-0.01,0.03,
3.463,0.50,-0.53,0.20,0.01,-0.01,0.04,
3.464,0.50,-0.53,0.20,0.01,-0.01,0.04,
3.464,0.50,-0.53,0.20,0.01,-0.01,0.04,
3.464,0.56,-0.61,0.25,0.01,-0.01,0.04,
3.465,0.56,-0.61,0.25,0.01,-0.01,0.04,
3.465,0.56,-0.61,0.25,0.01,-0.01,0.04,
3.466,0.56,-0.61,0.25,0.01,-0.01,0.04,
3.466,0.56,-0.61,0.25,0.01,-0.01,0.04,
3.467,0.56,-0.61,0.25,0.01,-0.01,0.04,
3.467,0.63,-0.75,0.32,0.01,-0.01,0.04,
3.467,0.63,-0.75,0.32,0.01,-0.01,0.04,
3.468,0.63,-0.75,0.32,0.02,-0.01,0.04,
3.468,0.63,-0.75,0.32,0.02,-0.01,0.04,
3.469,0.63,-0.75,0.32,0.02,-0.01,0.04,
3.469,0.63,-0.75,0.32,0.02,-0.01,0.04,
3.47,0.65,-0.92,0.43,0.02,-0.01,0.04,
3.47,0.65,-0.92,0.43,0.02,-0.02,0.03,
3.47,0.65,-0.92,0.43,0.03,-0.02,0.04,
3.476,0.65,-0.92,0.43,0.03,-0.02,0.03,
3.477,0.65,-0.92,0.43,0.03,-0.02,0.03,
3.477,0.65,-0.92,0.43,0.03,-0.03,0.03,
3.482,0.57,-1.07,0.48,0.03,-0.03,0.03,
3.483,0.57,-1.07,0.48,0.04,-0.03,0.03,
3.484,0.57,-1.07,0.48,0.04,-0.03,0.03,
3.484,0.57,-1.07,0.48,0.04,-0.03,0.02,
3.485,0.57,-1.07,0.48,0.05,-0.03,0.02,
3.489,0.57,-1.07,0.48,0.05,-0.03,0.02,
3.49,0.49,-1.16,0.46,0.05,-0.03,0.02,
3.491,0.49,-1.16,0.46,0.05,-0.02,0.02,
3.491,0.49,-1.16,0.46,0.06,-0.02,0.01,
3.491,0.49,-1.16,0.46,0.06,-0.01,0.01,
3.496,0.49,-1.16,0.46,0.06,-0.01,0.01,
3.496,0.49,-1.16,0.46,0.06,-0.01,0.01,
3.497,0.37,-1.11,0.38,0.06,-0.01,0.01,
3.497,0.37,-1.11,0.38,0.07,-0.00,0.01,
3.502,0.37,-1.11,0.38,0.07,0.00,0.01,
3.503,0.37,-1.11,0.38,0.06,0.00,0.01,
3.513,0.37,-1.11,0.38,0.07,0.00,0.01,
3.514,0.37,-1.11,0.38,0.07,0.00,0.01,
3.515,0.28,-1.06,0.31,0.07,0.00,0.01,
3.515,0.28,-1.06,0.31,0.07,0.01,0.01,
3.516,0.28,-1.06,0.31,0.07,0.00,0.01,
3.516,0.28,-1.06,0.31,0.07,0.00,0.01,
3.516,0.28,-1.06,0.31,0.07,-0.00,0.01,
3.517,0.28,-1.06,0.31,0.07,-0.00,0.01,
3.543,0.21,-0.96,0.20,0.07,-0.00,0.01,
3.544,0.21,-0.96,0.20,0.06,-0.01,0.01,
3.545,0.21,-0.96,0.20,0.06,-0.01,0.01,
3.545,0.21,-0.96,0.20,0.06,-0.01,0.01,
3.545,0.21,-0.96,0.20,0.05,-0.01,0.01,
3.546,0.21,-0.96,0.20,0.05,-0.01,0.01,
3.546,0.23,-0.91,0.15,0.05,-0.01,0.01,
3.546,0.23,-0.91,0.15,0.05,-0.01,0.02,
3.547,0.23,-0.91,0.15,0.05,-0.01,0.02,
3.547,0.23,-0.91,0.15,0.04,-0.02,0.02,
3.547,0.23,-0.91,0.15,0.04,-0.02,0.02,
3.547,0.23,-0.91,0.15,0.04,-0.01,0.02,
3.548,0.29,-0.91,0.13,0.04,-0.01,0.02,
3.548,0.29,-0.91,0.13,0.03,-0.02,0.03,
3.548,0.29,-0.91,0.13,0.03,-0.01,0.03,
3.549,0.29,-0.91,0.13,0.03,-0.01,0.03,
3.549,0.29,-0.91,0.13,0.03,-0.01,0.03,
3.549,0.29,-0.91,0.13,0.03,-0.01,0.03,
3.55,0.40,-0.88,0.19,0.03,-0.01,0.03,
3.55,0.40,-0.88,0.19,0.03,-0.01,0.03,
3.55,0.40,-0.88,0.19,0.03,-0.01,0.04,
3.558,0.40,-0.88,0.19,0.03,-0.01,0.04,
3.559,0.40,-0.88,0.19,0.03,-0.01,0.04,
3.559,0.40,-0.88,0.19,0.03,-0.01,0.04,
3.56,0.43,-0.77,0.32,0.03,-0.01,0.04,
3.56,0.43,-0.77,0.32,0.03,-0.01,0.04,
3.56,0.43,-0.77,0.32,0.03,-0.01,0.05,
3.562,0.43,-0.77,0.32,0.03,-0.01,0.05,
3.563,0.43,-0.77,0.32,0.03,-0.01,0.05,
3.565,0.43,-0.77,0.32,0.03,-0.01,0.05,
3.568,0.45,-0.68,0.49,0.03,-0.01,0.05,
3.569,0.45,-0.68,0.49,0.03,-0.01,0.05,
3.57,0.45,-0.68,0.49,0.04,-0.01,0.06,
3.571,0.45,-0.68,0.49,0.04,-0.02,0.06,
3.573,0.45,-0.68,0.49,0.04,-0.02,0.06,
3.575,0.45,-0.68,0.49,0.04,-0.02,0.06,
3.577,0.40,-0.63,0.59,0.04,-0.02,0.06,
3.577,0.40,-0.63,0.59,0.04,-0.02,0.06,
3.58,0.40,-0.63,0.59,0.03,-0.03,0.06,
3.581,0.40,-0.63,0.59,0.04,-0.03,0.06,
3.609,0.40,-0.63,0.59,0.04,-0.03,0.06,
3.61,0.40,-0.63,0.59,0.04,-0.03,0.06,
3.61,0.39,-0.60,0.66,0.04,-0.03,0.06,
3.611,0.39,-0.60,0.66,0.04,-0.04,0.06,
3.611,0.39,-0.60,0.66,0.05,-0.05,0.06,
3.612,0.39,-0.60,0.66,0.05,-0.05,0.06,
3.612,0.39,-0.60,0.66,0.05,-0.06,0.05,
3.613,0.39,-0.60,0.66,0.05,-0.06,0.05,
3.613,0.38,-0.54,0.65,0.05,-0.06,0.05,
3.613,0.38,-0.54,0.65,0.05,-0.06,0.05,
3.614,0.38,-0.54,0.65,0.05,-0.07,0.05,
3.614,0.38,-0.54,0.65,0.06,-0.07,0.05,
3.615,0.38,-0.54,0.65,0.06,-0.07,0.05,
3.615,0.38,-0.54,0.65,0.06,-0.08,0.05,
3.616,0.39,-0.54,0.58,0.06,-0.08,0.05,
3.616,0.39,-0.54,0.58,0.06,-0.08,0.04,
3.616,0.39,-0.54,0.58,0.06,-0.08,0.04,
3.617,0.39,-0.54,0.58,0.07,-0.08,0.04,
3.617,0.39,-0.54,0.58,0.07,-0.08,0.04,
3.618,0.39,-0.54,0.58,0.07,-0.08,0.04,
3.618,0.35,-0.53,0.50,0.07,-0.08,0.04,
3.619,0.35,-0.53,0.50,0.07,-0.07,0.04,
3.631,0.35,-0.53,0.50,0.07,-0.07,0.04,
3.632,0.35,-0.53,0.50,0.08,-0.06,0.04,
3.632,0.35,-0.53,0.50,0.08,-0.05,0.04,
3.633,0.35,-0.53,0.50,0.08,-0.05,0.04,
3.633,0.35,-0.49,0.46,0.08,-0.05,0.04,
3.634,0.35,-0.49,0.46,0.08,-0.04,0.04,
3.634,0.35,-0.49,0.46,0.09,-0.03,0.04,
3.635,0.35,-0.49,0.46,0.09,-0.03,0.04,
3.662,0.35,-0.49,0.46,0.09,-0.02,0.04,
3.663,0.35,-0.49,0.46,0.09,-0.02,0.04,
3.664,0.30,-0.40,0.36,0.09,-0.02,0.04,
3.664,0.30,-0.40,0.36,0.09,-0.01,0.05,
3.665,0.30,-0.40,0.36,0.09,-0.01,0.05,
3.665,0.30,-0.40,0.36,0.09,-0.00,0.05,
3.665,0.30,-0.40,0.36,0.09,-0.00,0.05,
3.666,0.30,-0.40,0.36,0.09,0.00,0.05,
3.666,0.27,-0.33,0.31,0.09,0.00,0.05,
3.667,0.27,-0.33,0.31,0.09,0.00,0.05,
3.667,0.27,-0.33,0.31,0.09,0.01,0.06,
3.667,0.27,-0.33,0.31,0.09,0.01,0.06,
3.668,0.27,-0.33,0.31,0.09,0.01,0.06,
3.668,0.27,-0.33,0.31,0.09,0.01,0.06,
3.668,0.26,-0.26,0.28,0.09,0.01,0.06,
3.669,0.26,-0.26,0.28,0.09,0.02,0.07,
3.669,0.26,-0.26,0.28,0.09,0.02,0.07,
3.67,0.26,-0.26,0.28,0.09,0.02,0.07,
3.67,0.26,-0.26,0.28,0.09,0.02,0.07,
3.67,0.26,-0.26,0.28,0.09,0.02,0.07,
3.671,0.27,-0.22,0.26,0.09,0.02,0.07,
3.671,0.27,-0.22,0.26,0.08,0.02,0.08,
3.671,0.27,-0.22,0.26,0.08,0.03,0.08,
3.672,0.27,-0.22,0.26,0.08,0.03,0.08,
3.682,0.27,-0.22,0.26,0.08,0.03,0.08,
3.683,0.27,-0.22,0.26,0.08,0.02,0.08,
3.683,0.28,-0.25,0.21,0.08,0.02,0.08,
3.683,0.28,-0.25,0.21,0.07,0.02,0.08,
3.684,0.28,-0.25,0.21,0.07,0.02,0.08,
3.684,0.28,-0.25,0.21,0.07,0.02,0.09,
3.684,0.28,-0.25,0.21,0.07,0.02,0.09,
3.687,0.28,-0.25,0.21,0.07,0.02,0.09,
3.688,0.32,-0.33,0.13,0.07,0.02,0.09,
3.688,0.32,-0.33,0.13,0.07,0.02,0.09,
3.692,0.32,-0.33,0.13,0.06,0.02,0.09,
3.701,0.32,-0.33,0.13,0.07,0.02,0.09,
3.702,0.32,-0.33,0.13,0.06,0.02,0.09,
3.702,0.32,-0.33,0.13,0.07,0.02,0.09,
3.703,0.30,-0.35,0.04,0.07,0.02,0.09,
3.703,0.30,-0.35,0.04,0.07,0.02,0.09,
3.703,0.30,-0.35,0.04,0.07,0.02,0.10,
3.704,0.30,-0.35,0.04,0.07,0.03,0.10,
3.704,0.30,-0.35,0.04,0.07,0.03,0.10,
3.708,0.30,-0.35,0.04,0.07,0.03,0.10,
3.715,0.33,-0.32,-0.03,0.07,0.03,0.10,
3.716,0.33,-0.32,-0.03,0.07,0.03,0.09,
3.716,0.33,-0.32,-0.03,0.07,0.02,0.09,
3.716,0.33,-0.32,-0.03,0.07,0.01,0.09,
3.717,0.33,-0.32,-0.03,0.08,0.01,0.08,
3.717,0.33,-0.32,-0.03,0.08,0.01,0.08,
3.717,0.54,-0.38,0.04,0.08,0.01,0.08,
3.718,0.54,-0.38,0.04,0.08,0.00,0.07,
3.72,0.54,-0.38,0.04,0.08,0.01,0.07,
3.721,0.54,-0.38,0.04,0.09,0.01,0.07,
3.724,0.54,-0.38,0.04,0.09,0.02,0.07,
3.725,0.54,-0.38,0.04,0.08,0.02,0.06,
3.727,0.65,-0.34,-0.09,0.08,0.02,0.06,
3.728,0.65,-0.34,-0.09,0.08,0.03,0.06,
3.73,0.65,-0.34,-0.09,0.08,0.03,0.05,
3.731,0.65,-0.34,-0.09,0.08,0.03,0.05,
3.748,0.65,-0.34,-0.09,0.08,0.04,0.05,
3.75,0.65,-0.34,-0.09,0.08,0.05,0.05,
3.752,0.61,-0.22,-0.11,0.08,0.05,0.05,
3.753,0.61,-0.22,-0.11,0.08,0.06,0.05,
3.754,0.61,-0.22,-0.11,0.08,0.06,0.05,
3.755,0.61,-0.22,-0.11,0.08,0.07,0.05,
3.756,0.61,-0.22,-0.11,0.07,0.07,0.05,
3.757,0.61,-0.22,-0.11,0.07,0.07,0.05,
3.758,0.67,-0.14,-0.12,0.07,0.07,0.05,
3.759,0.67,-0.14,-0.12,0.07,0.07,0.05,
3.808,0.67,-0.14,-0.12,0.07,0.08,0.05,
3.809,0.67,-0.14,-0.12,0.07,0.08,0.05,
3.811,0.67,-0.14,-0.12,0.07,0.08,0.05,
3.812,0.67,-0.14,-0.12,0.07,0.08,0.05,
3.812,0.72,-0.13,-0.10,0.07,0.08,0.05,
3.813,0.72,-0.13,-0.10,0.07,0.09,0.05,
3.814,0.72,-0.13,-0.10,0.07,0.09,0.05,
3.815,0.72,-0.13,-0.10,0.07,0.09,0.05,
3.817,0.72,-0.13,-0.10,0.07,0.09,0.05,
3.818,0.72,-0.13,-0.10,0.07,0.09,0.06,
3.819,0.69,-0.13,-0.07,0.07,0.09,0.06,
3.821,0.69,-0.13,-0.07,0.07,0.09,0.06,
3.822,0.69,-0.13,-0.07,0.08,0.10,0.06,
3.823,0.69,-0.13,-0.07,0.08,0.10,0.06,
3.825,0.69,-0.13,-0.07,0.09,0.10,0.07,
3.825,0.69,-0.13,-0.07,0.09,0.10,0.07,
3.827,0.63,-0.20,0.01,0.09,0.10,0.07,
3.828,0.63,-0.20,0.01,0.09,0.11,0.07,
3.829,0.63,-0.20,0.01,0.10,0.11,0.07,
3.83,0.63,-0.20,0.01,0.10,0.11,0.08,
3.831,0.63,-0.20,0.01,0.11,0.12,0.08,
3.832,0.63,-0.20,0.01,0.11,0.12,0.09,
3.833,0.63,-0.25,0.10,0.11,0.12,0.09,
3.834,0.63,-0.25,0.10,0.12,0.11,0.09,
3.835,0.63,-0.25,0.10,0.12,0.10,0.09,
3.836,0.63,-0.25,0.10,0.12,0.10,0.09,
3.838,0.63,-0.25,0.10,0.12,0.10,0.10,
3.839,0.63,-0.25,0.10,0.13,0.10,0.11,
3.84,0.45,-0.25,0.11,0.13,0.10,0.11,
3.841,0.45,-0.25,0.11,0.13,0.10,0.11,
3.841,0.45,-0.25,0.11,0.14,0.10,0.12,
3.842,0.45,-0.25,0.11,0.14,0.09,0.12,
3.843,0.45,-0.25,0.11,0.14,0.09,0.12,
3.844,0.45,-0.25,0.11,0.14,0.09,0.13,
3.844,0.43,-0.23,0.02,0.14,0.09,0.13,
3.845,0.43,-0.23,0.02,0.14,0.08,0.13,
3.846,0.43,-0.23,0.02,0.14,0.08,0.13,
3.847,0.43,-0.23,0.02,0.15,0.07,0.14,
3.848,0.43,-0.23,0.02,0.15,0.07,0.14,
3.848,0.43,-0.23,0.02,0.14,0.06,0.14,
3.849,0.49,-0.31,-0.10,0.14,0.06,0.14,
3.85,0.49,-0.31,-0.10,0.14,0.05,0.14,
3.852,0.49,-0.31,-0.10,0.14,0.04,0.14,
3.853,0.49,-0.31,-0.10,0.14,0.04,0.14,
3.854,0.49,-0.31,-0.10,0.14,0.04,0.15,
3.855,0.49,-0.31,-0.10,0.14,0.04,0.15,
3.855,0.46,-0.40,-0.07,0.14,0.04,0.15,
3.856,0.46,-0.40,-0.07,0.15,0.04,0.15,
3.857,0.46,-0.40,-0.07,0.15,0.04,0.15,
3.858,0.46,-0.40,-0.07,0.15,0.04,0.16,
3.858,0.46,-0.40,-0.07,0.15,0.04,0.16,
3.859,0.46,-0.40,-0.07,0.16,0.04,0.15,
3.859,0.58,-0.49,-0.12,0.16,0.04,0.15,
3.86,0.58,-0.49,-0.12,0.16,0.03,0.15,
3.86,0.58,-0.49,-0.12,0.16,0.03,0.15,
3.861,0.58,-0.49,-0.12,0.16,0.03,0.15,
3.861,0.58,-0.49,-0.12,0.17,0.03,0.15,
3.862,0.58,-0.49,-0.12,0.18,0.03,0.15,
3.863,0.69,-0.56,-0.07,0.18,0.03,0.15,
3.864,0.69,-0.56,-0.07,0.18,0.03,0.15,
3.864,0.69,-0.56,-0.07,0.19,0.03,0.15,
3.865,0.69,-0.56,-0.07,0.19,0.04,0.15,
3.866,0.69,-0.56,-0.07,0.20,0.04,0.15,
3.867,0.69,-0.56,-0.07,0.21,0.04,0.14,
3.868,0.76,-0.60,-0.03,0.21,0.04,0.14,
3.869,0.76,-0.60,-0.03,0.21,0.04,0.14,
3.869,0.76,-0.60,-0.03,0.22,0.05,0.14,
3.87,0.76,-0.60,-0.03,0.23,0.05,0.14,
3.871,0.76,-0.60,-0.03,0.23,0.05,0.14,
3.871,0.76,-0.60,-0.03,0.24,0.05,0.14,
3.872,0.80,-0.63,-0.02,0.24,0.05,0.14,
3.872,0.80,-0.63,-0.02,0.24,0.05,0.13,
3.873,0.80,-0.63,-0.02,0.25,0.05,0.13,
3.873,0.80,-0.63,-0.02,0.25,0.05,0.13,
3.874,0.80,-0.63,-0.02,0.26,0.05,0.13,
3.878,0.80,-0.63,-0.02,0.26,0.05,0.13,
3.88,0.81,-0.64,-0.04,0.26,0.05,0.13,
3.881,0.81,-0.64,-0.04,0.26,0.05,0.12,
3.882,0.81,-0.64,-0.04,0.27,0.06,0.12,
3.882,0.81,-0.64,-0.04,0.27,0.06,0.12,
3.883,0.81,-0.64,-0.04,0.27,0.06,0.12,
3.897,0.81,-0.64,-0.04,0.27,0.06,0.12,
3.899,0.82,-0.64,-0.07,0.27,0.06,0.12,
3.9,0.82,-0.64,-0.07,0.27,0.06,0.11,
3.902,0.82,-0.64,-0.07,0.27,0.05,0.11,
3.904,0.82,-0.64,-0.07,0.28,0.05,0.11,
3.905,0.82,-0.64,-0.07,0.28,0.05,0.11,
3.906,0.82,-0.64,-0.07,0.27,0.05,0.11,
3.925,0.80,-0.59,-0.09,0.27,0.05,0.11,
3.928,0.80,-0.59,-0.09,0.27,0.04,0.11,
3.929,0.80,-0.59,-0.09,0.27,0.04,0.11,
3.931,0.80,-0.59,-0.09,0.28,0.03,0.11,
3.933,0.80,-0.59,-0.09,0.27,0.03,0.11,
3.934,0.80,-0.59,-0.09,0.27,0.03,0.11,
3.935,0.73,-0.58,-0.18,0.27,0.03,0.11,
3.936,0.73,-0.58,-0.18,0.27,0.02,0.11,
3.937,0.73,-0.58,-0.18,0.27,0.02,0.11,
3.937,0.73,-0.58,-0.18,0.27,0.01,0.11,
3.939,0.73,-0.58,-0.18,0.27,0.01,0.11,
3.94,0.73,-0.58,-0.18,0.27,0.00,0.11,
3.982,0.65,-0.63,-0.26,0.27,0.00,0.11,
3.982,0.65,-0.63,-0.26,0.27,-0.00,0.11,
3.983,0.65,-0.63,-0.26,0.28,-0.01,0.11,
3.983,0.65,-0.63,-0.26,0.27,-0.01,0.11,
3.984,0.65,-0.63,-0.26,0.28,-0.02,0.11,
3.984,0.65,-0.63,-0.26,0.28,-0.02,0.11,
3.984,0.61,-0.66,-0.29,0.28,-0.02,0.11,
3.985,0.61,-0.66,-0.29,0.28,-0.02,0.11,
3.985,0.61,-0.66,-0.29,0.28,-0.03,0.11,
3.986,0.61,-0.66,-0.29,0.28,-0.03,0.11,
3.986,0.61,-0.66,-0.29,0.28,-0.03,0.11,
3.987,0.61,-0.66,-0.29,0.28,-0.03,0.11,
3.987,0.61,-0.64,-0.34,0.28,-0.03,0.11,
3.987,0.61,-0.64,-0.34,0.28,-0.03,0.11,
3.988,0.61,-0.64,-0.34,0.28,-0.04,0.11,
3.988,0.61,-0.64,-0.34,0.29,-0.04,0.11,
3.989,0.61,-0.64,-0.34,0.29,-0.04,0.11,
3.989,0.61,-0.64,-0.34,0.29,-0.04,0.11,
3.99,0.63,-0.63,-0.37,0.29,-0.04,0.11,
3.99,0.63,-0.63,-0.37,0.28,-0.04,0.11,
3.991,0.63,-0.63,-0.37,0.28,-0.04,0.11,
3.991,0.63,-0.63,-0.37,0.28,-0.04,0.11,
3.991,0.63,-0.63,-0.37,0.28,-0.03,0.11,
3.992,0.63,-0.63,-0.37,0.28,-0.04,0.11,
3.992,0.62,-0.58,-0.36,0.28,-0.04,0.11,
3.993,0.62,-0.58,-0.36,0.29,-0.04,0.11,
3.993,0.62,-0.58,-0.36,0.28,-0.04,0.11,
3.993,0.62,-0.58,-0.36,0.28,-0.04,0.12,
3.994,0.62,-0.58,-0.36,0.28,-0.04,0.12,
3.994,0.62,-0.58,-0.36,0.28,-0.05,0.12,
3.995,0.61,-0.53,-0.36,0.28,-0.05,0.12,
3.995,0.61,-0.53,-0.36,0.27,-0.05,0.12,
3.996,0.61,-0.53,-0.36,0.28,-0.05,0.12,
3.996,0.61,-0.53,-0.36,0.28,-0.05,0.12,
3.996,0.61,-0.53,-0.36,0.27,-0.06,0.12,
3.997,0.61,-0.53,-0.36,0.27,-0.06,0.13,
3.997,0.61,-0.50,-0.33,0.27,-0.06,0.13,
3.998,0.61,-0.50,-0.33,0.27,-0.06,0.13,
3.998,0.61,-0.50,-0.33,0.27,-0.07,0.13,
3.999,0.61,-0.50,-0.33,0.27,-0.07,0.13,
3.999,0.61,-0.50,-0.33,0.27,-0.07,0.13,
3.999,0.61,-0.50,-0.33,0.27,-0.07,0.13,
4.0,0.62,-0.49,-0.29,0.27,-0.07,0.13,
4.0,0.62,-0.49,-0.29,0.26,-0.08,0.14,
4.001,0.62,-0.49,-0.29,0.26,-0.09,0.14,
4.001,0.62,-0.49,-0.29,0.26,-0.09,0.14,
4.002,0.62,-0.49,-0.29,0.26,-0.09,0.14,
4.002,0.62,-0.49,-0.29,0.26,-0.09,0.14,
4.002,0.63,-0.55,-0.26,0.26,-0.09,0.14,
4.003,0.63,-0.55,-0.26,0.26,-0.09,0.14,
4.003,0.63,-0.55,-0.26,0.26,-0.09,0.15,
4.004,0.63,-0.55,-0.26,0.26,-0.09,0.15,
4.004,0.63,-0.55,-0.26,0.26,-0.09,0.15,
4.009,0.63,-0.55,-0.26,0.26,-0.09,0.15,
4.01,0.62,-0.58,-0.32,0.26,-0.09,0.15,
4.011,0.62,-0.58,-0.32,0.25,-0.11,0.15,
4.011,0.62,-0.58,-0.32,0.25,-0.11,0.15,
4.012,0.62,-0.58,-0.32,0.26,-0.12,0.15,
4.015,0.62,-0.58,-0.32,0.26,-0.13,0.15,
4.016,0.62,-0.58,-0.32,0.26,-0.13,0.15,
4.024,0.61,-0.60,-0.26,0.26,-0.13,0.15,
4.025,0.61,-0.60,-0.26,0.26,-0.14,0.15,
4.025,0.61,-0.60,-0.26,0.25,-0.13,0.15,
4.026,0.61,-0.60,-0.26,0.25,-0.13,0.15,
4.026,0.61,-0.60,-0.26,0.25,-0.13,0.16,
4.027,0.61,-0.60,-0.26,0.26,-0.13,0.15,
4.031,0.61,-0.64,-0.39,0.26,-0.13,0.15,
4.032,0.61,-0.64,-0.39,0.25,-0.12,0.15,
4.032,0.61,-0.64,-0.39,0.25,-0.12,0.16,
4.033,0.61,-0.64,-0.39,0.25,-0.12,0.16,
4.033,0.61,-0.64,-0.39,0.25,-0.13,0.16,
4.044,0.61,-0.64,-0.39,0.25,-0.13,0.15,
4.046,0.64,-0.59,-0.49,0.25,-0.13,0.15,
4.046,0.64,-0.59,-0.49,0.25,-0.13,0.15,
4.046,0.64,-0.59,-0.49,0.25,-0.13,0.15,
4.047,0.64,-0.59,-0.49,0.25,-0.13,0.15,
4.047,0.64,-0.59,-0.49,0.25,-0.14,0.15,
4.047,0.64,-0.59,-0.49,0.25,-0.14,0.15,
4.048,0.66,-0.52,-0.54,0.25,-0.14,0.15,
4.048,0.66,-0.52,-0.54,0.25,-0.15,0.15,
4.081,0.66,-0.52,-0.54,0.25,-0.15,0.15,
4.082,0.66,-0.52,-0.54,0.25,-0.16,0.15,
4.083,0.66,-0.52,-0.54,0.25,-0.16,0.15,
4.083,0.66,-0.52,-0.54,0.26,-0.17,0.15,
4.083,0.63,-0.46,-0.56,0.26,-0.17,0.15,
4.084,0.63,-0.46,-0.56,0.25,-0.17,0.15,
4.084,0.63,-0.46,-0.56,0.26,-0.17,0.15,
4.084,0.63,-0.46,-0.56,0.26,-0.17,0.15,
4.085,0.63,-0.46,-0.56,0.26,-0.16,0.16,
4.085,0.63,-0.46,-0.56,0.26,-0.16,0.16,
4.085,0.55,-0.42,-0.57,0.26,-0.16,0.16,
4.086,0.55,-0.42,-0.57,0.26,-0.15,0.16,
4.086,0.55,-0.42,-0.57,0.26,-0.15,0.16,
4.086,0.55,-0.42,-0.57,0.26,-0.15,0.16,
4.086,0.55,-0.42,-0.57,0.26,-0.15,0.16,
4.087,0.55,-0.42,-0.57,0.26,-0.15,0.16,
4.087,0.54,-0.44,-0.55,0.26,-0.15,0.16,
4.087,0.54,-0.44,-0.55,0.26,-0.15,0.16,
4.088,0.54,-0.44,-0.55,0.26,-0.15,0.16,
4.088,0.54,-0.44,-0.55,0.26,-0.15,0.16,
4.118,0.54,-0.44,-0.55,0.26,-0.15,0.16,
4.118,0.54,-0.44,-0.55,0.27,-0.15,0.16,
4.119,0.58,-0.47,-0.51,0.27,-0.15,0.16,
4.119,0.58,-0.47,-0.51,0.26,-0.15,0.16,
4.119,0.58,-0.47,-0.51,0.26,-0.16,0.16,
4.12,0.58,-0.47,-0.51,0.26,-0.16,0.16,
4.12,0.58,-0.47,-0.51,0.26,-0.16,0.16,
4.121,0.58,-0.47,-0.51,0.26,-0.16,0.16,
4.121,0.61,-0.44,-0.50,0.26,-0.16,0.16,
4.122,0.61,-0.44,-0.50,0.27,-0.17,0.16,
4.122,0.61,-0.44,-0.50,0.27,-0.17,0.16,
4.122,0.61,-0.44,-0.50,0.27,-0.17,0.16,
4.123,0.61,-0.44,-0.50,0.26,-0.18,0.16,
4.123,0.61,-0.44,-0.50,0.26,-0.18,0.16,
4.124,0.64,-0.43,-0.52,0.26,-0.18,0.16,
4.124,0.64,-0.43,-0.52,0.26,-0.19,0.16,
4.125,0.64,-0.43,-0.52,0.26,-0.20,0.16,
4.125,0.64,-0.43,-0.52,0.26,-0.20,0.16,
4.125,0.64,-0.43,-0.52,0.26,-0.20,0.16,
4.126,0.64,-0.43,-0.52,0.26,-0.20,0.16,
4.126,0.64,-0.43,-0.57,0.26,-0.20,0.16,
4.127,0.64,-0.43,-0.57,0.26,-0.21,0.16,
4.127,0.64,-0.43,-0.57,0.26,-0.21,0.16,
4.128,0.64,-0.43,-0.57,0.26,-0.21,0.16,
4.128,0.64,-0.43,-0.57,0.26,-0.21,0.16,
4.128,0.64,-0.43,-0.57,0.26,-0.22,0.16,
4.129,0.70,-0.42,-0.61,0.26,-0.22,0.16,
4.129,0.70,-0.42,-0.61,0.26,-0.22,0.16,
4.134,0.70,-0.42,-0.61,0.26,-0.22,0.16,
4.135,0.70,-0.42,-0.61,0.26,-0.22,0.16,
4.136,0.70,-0.42,-0.61,0.26,-0.22,0.16,
4.136,0.70,-0.42,-0.61,0.26,-0.22,0.16,
4.138,0.76,-0.36,-0.62,0.26,-0.22,0.16,
4.138,0.76,-0.36,-0.62,0.26,-0.22,0.16,
4.141,0.76,-0.36,-0.62,0.27,-0.22,0.16,
4.142,0.76,-0.36,-0.62,0.26,-0.22,0.16,
4.143,0.76,-0.36,-0.62,0.26,-0.21,0.16,
4.147,0.76,-0.36,-0.62,0.27,-0.22,0.16,
4.148,0.85,-0.30,-0.64,0.27,-0.22,0.16,
4.148,0.85,-0.30,-0.64,0.27,-0.21,0.16,
4.151,0.85,-0.30,-0.64,0.27,-0.21,0.16,
4.152,0.85,-0.30,-0.64,0.27,-0.21,0.16,
4.155,0.85,-0.30,-0.64,0.27,-0.21,0.16,
4.155,0.85,-0.30,-0.64,0.27,-0.21,0.16,
4.158,0.87,-0.21,-0.64,0.27,-0.21,0.16,
4.159,0.87,-0.21,-0.64,0.28,-0.21,0.17,
4.16,0.87,-0.21,-0.64,0.28,-0.21,0.17,
4.161,0.87,-0.21,-0.64,0.28,-0.21,0.17,
4.165,0.87,-0.21,-0.64,0.29,-0.21,0.17,
4.166,0.87,-0.21,-0.64,0.29,-0.21,0.17,
4.174,0.90,-0.15,-0.66,0.29,-0.21,0.17,
4.175,0.90,-0.15,-0.66,0.29,-0.21,0.17,
4.176,0.90,-0.15,-0.66,0.30,-0.21,0.18,
4.176,0.90,-0.15,-0.66,0.30,-0.21,0.18,
4.176,0.90,-0.15,-0.66,0.30,-0.22,0.18,
4.177,0.90,-0.15,-0.66,0.31,-0.22,0.18,
4.177,0.88,-0.06,-0.67,0.31,-0.22,0.18,
4.177,0.88,-0.06,-0.67,0.31,-0.22,0.18,
4.182,0.88,-0.06,-0.67,0.32,-0.22,0.18,
4.183,0.88,-0.06,-0.67,0.32,-0.22,0.18,
4.201,0.88,-0.06,-0.67,0.33,-0.22,0.18,
4.202,0.88,-0.06,-0.67,0.33,-0.22,0.18,
4.202,0.89,0.04,-0.60,0.33,-0.22,0.18,
4.203,0.89,0.04,-0.60,0.33,-0.22,0.18,
4.203,0.89,0.04,-0.60,0.34,-0.23,0.18,
4.203,0.89,0.04,-0.60,0.34,-0.23,0.18,
4.203,0.89,0.04,-0.60,0.35,-0.23,0.18,
4.204,0.89,0.04,-0.60,0.35,-0.23,0.18,
4.204,0.84,0.11,-0.53,0.35,-0.23,0.18,
4.204,0.84,0.11,-0.53,0.35,-0.23,0.18,
4.205,0.84,0.11,-0.53,0.36,-0.23,0.18,
4.205,0.84,0.11,-0.53,0.36,-0.24,0.18,
4.205,0.84,0.11,-0.53,0.36,-0.24,0.18,
4.206,0.84,0.11,-0.53,0.37,-0.24,0.18,
4.208,0.93,0.09,-0.55,0.37,-0.24,0.18,
4.208,0.93,0.09,-0.55,0.37,-0.25,0.18,
4.211,0.93,0.09,-0.55,0.36,-0.25,0.18,
4.212,0.93,0.09,-0.55,0.37,-0.25,0.17,
4.213,0.93,0.09,-0.55,0.37,-0.26,0.17,
4.216,0.93,0.09,-0.55,0.37,-0.26,0.17,
4.218,0.97,0.06,-0.65,0.37,-0.26,0.17,
4.218,0.97,0.06,-0.65,0.37,-0.26,0.17,
4.222,0.97,0.06,-0.65,0.37,-0.27,0.16,
4.223,0.97,0.06,-0.65,0.37,-0.27,0.16,
4.223,0.97,0.06,-0.65,0.37,-0.27,0.16,
4.227,0.97,0.06,-0.65,0.37,-0.27,0.16,
4.228,1.04,0.05,-0.77,0.37,-0.27,0.16,
4.228,1.04,0.05,-0.77,0.36,-0.27,0.16,
4.232,1.04,0.05,-0.77,0.36,-0.27,0.16,
4.233,1.04,0.05,-0.77,0.36,-0.26,0.16,
4.237,1.04,0.05,-0.77,0.36,-0.26,0.15,
4.238,1.04,0.05,-0.77,0.36,-0.26,0.15,
4.239,1.06,0.14,-0.86,0.36,-0.26,0.15,
4.24,1.06,0.14,-0.86,0.35,-0.26,0.15,
4.24,1.06,0.14,-0.86,0.35,-0.25,0.14,
4.241,1.06,0.14,-0.86,0.35,-0.25,0.14,
4.243,1.06,0.14,-0.86,0.35,-0.25,0.14,
4.245,1.06,0.14,-0.86,0.34,-0.25,0.14,
4.247,1.07,0.26,-0.95,0.34,-0.25,0.14,
4.247,1.07,0.26,-0.95,0.34,-0.25,0.14,
4.275,1.07,0.26,-0.95,0.33,-0.24,0.14,
4.275,1.07,0.26,-0.95,0.32,-0.24,0.14,
4.276,1.07,0.26,-0.95,0.32,-0.24,0.14,
4.276,1.07,0.26,-0.95,0.32,-0.23,0.13,
4.277,0.98,0.36,-1.07,0.32,-0.23,0.13,
4.277,0.98,0.36,-1.07,0.31,-0.22,0.13,
4.277,0.98,0.36,-1.07,0.30,-0.22,0.14,
4.278,0.98,0.36,-1.07,0.30,-0.21,0.14,
4.278,0.98,0.36,-1.07,0.29,-0.21,0.13,
4.279,0.98,0.36,-1.07,0.28,-0.20,0.14,
4.279,0.98,0.37,-1.22,0.28,-0.20,0.14,
4.28,0.98,0.37,-1.22,0.28,-0.19,0.14,
4.28,0.98,0.37,-1.22,0.27,-0.19,0.13,
4.28,0.98,0.37,-1.22,0.26,-0.19,0.13,
4.281,0.98,0.37,-1.22,0.26,-0.18,0.13,
4.281,0.98,0.37,-1.22,0.25,-0.18,0.13,
4.282,0.98,0.41,-1.27,0.25,-0.18,0.13,
4.282,0.98,0.41,-1.27,0.24,-0.17,0.13,
4.283,0.98,0.41,-1.27,0.23,-0.17,0.13,
4.283,0.98,0.41,-1.27,0.23,-0.16,0.13,
4.284,0.98,0.41,-1.27,0.23,-0.16,0.13,
4.288,0.98,0.41,-1.27,0.22,-0.15,0.13,
4.29,1.06,0.48,-1.35,0.22,-0.15,0.13,
4.29,1.06,0.48,-1.35,0.22,-0.14,0.12,
4.291,1.06,0.48,-1.35,0.21,-0.12,0.12,
4.291,1.06,0.48,-1.35,0.20,-0.12,0.12,
4.295,1.06,0.48,-1.35,0.20,-0.11,0.12,
4.296,1.06,0.48,-1.35,0.19,-0.10,0.12,
4.297,1.10,0.61,-1.41,0.19,-0.10,0.12,
4.297,1.10,0.61,-1.41,0.18,-0.09,0.11,
4.301,1.10,0.61,-1.41,0.17,-0.07,0.11,
4.303,1.10,0.61,-1.41,0.17,-0.07,0.11,
4.303,1.10,0.61,-1.41,0.16,-0.06,0.10,
4.307,1.10,0.61,-1.41,0.16,-0.06,0.10,
4.308,1.14,0.70,-1.47,0.16,-0.06,0.10,
4.309,1.14,0.70,-1.47,0.15,-0.05,0.10,
4.312,1.14,0.70,-1.47,0.14,-0.05,0.09,
4.313,1.14,0.70,-1.47,0.13,-0.05,0.09,
4.313,1.14,0.70,-1.47,0.13,-0.04,0.09,
4.316,1.14,0.70,-1.47,0.12,-0.04,0.08,
4.326,1.07,0.87,-1.46,0.12,-0.04,0.08,
4.327,1.07,0.87,-1.46,0.11,-0.04,0.08,
4.327,1.07,0.87,-1.46,0.10,-0.05,0.07,
4.327,1.07,0.87,-1.46,0.09,-0.05,0.07,
4.328,1.07,0.87,-1.46,0.08,-0.05,0.07,
4.328,1.07,0.87,-1.46,0.07,-0.05,0.06,
4.328,1.06,1.10,-1.55,0.07,-0.05,0.06,
4.329,1.06,1.10,-1.55,0.07,-0.06,0.06,
4.332,1.06,1.10,-1.55,0.05,-0.06,0.05,
4.333,1.06,1.10,-1.55,0.05,-0.07,0.05,
4.333,1.06,1.10,-1.55,0.05,-0.07,0.05,
4.352,1.06,1.10,-1.55,0.04,-0.07,0.04,
4.353,1.03,1.31,-1.48,0.04,-0.07,0.04,
4.354,1.03,1.31,-1.48,0.04,-0.08,0.04,
4.354,1.03,1.31,-1.48,0.03,-0.08,0.03,
4.355,1.03,1.31,-1.48,0.03,-0.08,0.03,
4.355,1.03,1.31,-1.48,0.03,-0.08,0.03,
4.355,1.03,1.31,-1.48,0.03,-0.08,0.03,
4.358,1.11,1.50,-1.29,0.03,-0.08,0.03,
4.358,1.11,1.50,-1.29,0.03,-0.08,0.03,
4.359,1.11,1.50,-1.29,0.02,-0.07,0.04,
4.359,1.11,1.50,-1.29,0.02,-0.07,0.04,
4.359,1.11,1.50,-1.29,0.02,-0.07,0.04,
4.36,1.11,1.50,-1.29,0.02,-0.07,0.04,
4.36,1.16,1.79,-1.06,0.02,-0.07,0.04,
4.36,1.16,1.79,-1.06,0.02,-0.07,0.04,
4.361,1.16,1.79,-1.06,0.01,-0.07,0.05,
4.361,1.16,1.79,-1.06,0.00,-0.08,0.05,
4.364,1.16,1.79,-1.06,-0.01,-0.08,0.05,
4.366,1.16,1.79,-1.06,-0.02,-0.08,0.06,
4.368,1.28,2.09,-1.01,-0.02,-0.08,0.06,
4.368,1.28,2.09,-1.01,-0.04,-0.09,0.06,
4.37,1.28,2.09,-1.01,-0.07,-0.10,0.07,
4.373,1.28,2.09,-1.01,-0.07,-0.11,0.07,
4.373,1.28,2.09,-1.01,-0.09,-0.12,0.07,
4.375,1.28,2.09,-1.01,-0.10,-0.15,0.07,
4.377,1.44,2.31,-0.71,-0.10,-0.15,0.07,
4.377,1.44,2.31,-0.71,-0.12,-0.17,0.08,
4.38,1.44,2.31,-0.71,-0.15,-0.22,0.08,
4.386,1.44,2.31,-0.71,-0.15,-0.24,0.08,
4.387,1.44,2.31,-0.71,-0.17,-0.28,0.08,
4.387,1.44,2.31,-0.71,-0.18,-0.33,0.08,
4.392,1.65,2.52,-0.79,-0.18,-0.33,0.08,
4.392,1.65,2.52,-0.79,-0.19,-0.38,0.09,
4.392,1.65,2.52,-0.79,-0.21,-0.45,0.10,
4.393,1.65,2.52,-0.79,-0.21,-0.48,0.11,
4.394,1.65,2.52,-0.79,-0.23,-0.54,0.11,
4.396,1.65,2.52,-0.79,-0.25,-0.61,0.12,
4.399,1.59,2.76,-1.26,-0.25,-0.61,0.12,
4.401,1.59,2.76,-1.26,-0.27,-0.66,0.13,
4.401,1.59,2.76,-1.26,-0.31,-0.75,0.15,
4.401,1.59,2.76,-1.26,-0.32,-0.77,0.16,
4.403,1.59,2.76,-1.26,-0.36,-0.83,0.17,
4.405,1.59,2.76,-1.26,-0.40,-0.88,0.19,
4.408,1.37,3.00,-2.22,-0.40,-0.88,0.19,
4.408,1.37,3.00,-2.22,-0.45,-0.93,0.21,
4.41,1.37,3.00,-2.22,-0.51,-0.99,0.23,
4.411,1.37,3.00,-2.22,-0.54,-1.01,0.24,
4.413,1.37,3.00,-2.22,-0.59,-1.06,0.26,
4.419,1.37,3.00,-2.22,-0.63,-1.10,0.27,
4.448,1.10,3.30,-2.62,-0.63,-1.10,0.27,
4.449,1.10,3.30,-2.62,-0.68,-1.14,0.29,
4.449,1.10,3.30,-2.62,-0.75,-1.21,0.32,
4.45,1.10,3.30,-2.62,-0.77,-1.24,0.33,
4.45,1.10,3.30,-2.62,-0.81,-1.28,0.35,
4.451,1.10,3.30,-2.62,-0.85,-1.33,0.38,
4.451,0.78,3.57,-2.78,-0.85,-1.33,0.38,
4.452,0.78,3.57,-2.78,-0.88,-1.37,0.41,
4.452,0.78,3.57,-2.78,-0.93,-1.44,0.44,
4.453,0.78,3.57,-2.78,-0.95,-1.46,0.46,
4.453,0.78,3.57,-2.78,-0.97,-1.51,0.48,
4.453,0.78,3.57,-2.78,-1.00,-1.56,0.50,
4.454,0.76,3.82,-2.88,-1.00,-1.56,0.50,
4.454,0.76,3.82,-2.88,-1.02,-1.61,0.52,
4.455,0.76,3.82,-2.88,-1.03,-1.66,0.55,
4.455,0.76,3.82,-2.88,-1.04,-1.66,0.56,
4.456,0.76,3.82,-2.88,-1.05,-1.66,0.57,
4.456,0.76,3.82,-2.88,-1.05,-1.64,0.59,
4.457,1.02,4.14,-2.83,-1.05,-1.64,0.59,
4.457,1.02,4.14,-2.83,-1.05,-1.59,0.60,
4.457,1.02,4.14,-2.83,-1.03,-1.47,0.61,
4.458,1.02,4.14,-2.83,-1.03,-1.41,0.61,
4.458,1.02,4.14,-2.83,-1.00,-1.29,0.61,
4.459,1.02,4.14,-2.83,-0.97,-1.14,0.60,
4.459,1.59,4.49,-1.32,-0.97,-1.14,0.60,
4.46,1.59,4.49,-1.32,-0.94,-0.97,0.59,
4.46,1.59,4.49,-1.32,-0.89,-0.71,0.58,
4.463,1.59,4.49,-1.32,-0.87,-0.62,0.57,
4.464,1.59,4.49,-1.32,-0.83,-0.43,0.56,
4.469,1.59,4.49,-1.32,-0.80,-0.26,0.54,
4.47,2.14,4.77,0.76,-0.80,-0.26,0.54,
4.471,2.14,4.77,0.76,-0.78,-0.09,0.52,
4.471,2.14,4.77,0.76,-0.75,0.12,0.49,
4.472,2.14,4.77,0.76,-0.75,0.18,0.48,
4.475,2.14,4.77,0.76,-0.75,0.28,0.46,
4.476,2.14,4.77,0.76,-0.75,0.36,0.44,
4.479,2.10,4.69,1.70,-0.75,0.36,0.44,
4.48,2.10,4.69,1.70,-0.76,0.42,0.41,
4.481,2.10,4.69,1.70,-0.79,0.45,0.38,
4.486,2.10,4.69,1.70,-0.80,0.45,0.37,
4.487,2.10,4.69,1.70,-0.82,0.42,0.35,
4.488,2.10,4.69,1.70,-0.86,0.38,0.33,
4.488,1.58,4.71,1.84,-0.86,0.38,0.33,
4.489,1.58,4.71,1.84,-0.89,0.32,0.30,
4.492,1.58,4.71,1.84,-0.95,0.19,0.27,
4.493,1.58,4.71,1.84,-0.96,0.15,0.26,
4.494,1.58,4.71,1.84,-0.99,0.05,0.23,
4.497,1.58,4.71,1.84,-1.02,-0.05,0.21,
4.498,0.66,5.36,1.27,-1.02,-0.05,0.21,
4.498,0.66,5.36,1.27,-1.05,-0.14,0.20,
4.5,0.66,5.36,1.27,-1.08,-0.27,0.17,
4.501,0.66,5.36,1.27,-1.09,-0.31,0.16,
4.503,0.66,5.36,1.27,-1.10,-0.37,0.14,
4.505,0.66,5.36,1.27,-1.12,-0.42,0.12,
4.507,-0.26,6.32,0.81,-1.12,-0.42,0.12,
4.507,-0.26,6.32,0.81,-1.12,-0.45,0.11,
4.51,-0.26,6.32,0.81,-1.12,-0.44,0.09,
4.513,-0.26,6.32,0.81,-1.12,-0.43,0.08,
4.513,-0.26,6.32,0.81,-1.11,-0.40,0.07,
4.515,-0.26,6.32,0.81,-1.10,-0.35,0.05,
4.518,0.14,7.11,1.27,-1.10,-0.35,0.05,
4.518,0.14,7.11,1.27,-1.08,-0.29,0.04,
4.52,0.14,7.11,1.27,-1.05,-0.19,0.01,
4.523,0.14,7.11,1.27,-1.03,-0.16,-0.00,
4.524,0.14,7.11,1.27,-1.00,-0.09,-0.02,
4.527,0.14,7.11,1.27,-0.96,-0.03,-0.04,
4.528,1.58,7.65,3.25,-0.96,-0.03,-0.04,
4.528,1.58,7.65,3.25,-0.92,0.03,-0.07,
4.532,1.58,7.65,3.25,-0.85,0.10,-0.11,
4.533,1.58,7.65,3.25,-0.83,0.12,-0.13,
4.538,1.58,7.65,3.25,-0.79,0.15,-0.16,
4.539,1.58,7.65,3.25,-0.75,0.17,-0.19,
4.539,2.63,8.20,5.02,-0.75,0.17,-0.19,
4.539,2.63,8.20,5.02,-0.71,0.18,-0.21,
4.542,2.63,8.20,5.02,-0.65,0.18,-0.25,
4.543,2.63,8.20,5.02,-0.64,0.17,-0.26,
4.543,2.63,8.20,5.02,-0.61,0.15,-0.28,
4.547,2.63,8.20,5.02,-0.58,0.12,-0.30,
4.547,2.77,8.86,6.10,-0.58,0.12,-0.30,
4.548,2.77,8.86,6.10,-0.55,0.09,-0.32,
4.552,2.77,8.86,6.10,-0.52,0.02,-0.34,
4.553,2.77,8.86,6.10,-0.51,-0.01,-0.35,
4.554,2.77,8.86,6.10,-0.49,-0.06,-0.36,
4.555,2.77,8.86,6.10,-0.48,-0.12,-0.37,
4.559,2.37,9.28,5.71,-0.48,-0.12,-0.37,
4.56,2.37,9.28,5.71,-0.47,-0.19,-0.38,
4.56,2.37,9.28,5.71,-0.47,-0.30,-0.38,
4.561,2.37,9.28,5.71,-0.47,-0.33,-0.39,
4.565,2.37,9.28,5.71,-0.48,-0.39,-0.39,
4.566,2.37,9.28,5.71,-0.49,-0.45,-0.39,
4.574,1.75,9.18,4.17,-0.49,-0.45,-0.39,
4.575,1.75,9.18,4.17,-0.51,-0.51,-0.38,
4.576,1.75,9.18,4.17,-0.54,-0.58,-0.37,
4.576,1.75,9.18,4.17,-0.56,-0.59,-0.36,
4.576,1.75,9.18,4.17,-0.58,-0.62,-0.35,
4.577,1.75,9.18,4.17,-0.61,-0.64,-0.34,
4.577,1.28,8.50,1.93,-0.61,-0.64,-0.34,
4.577,1.28,8.50,1.93,-0.65,-0.64,-0.33,
4.606,1.28,8.50,1.93,-0.70,-0.64,-0.32,
4.607,1.28,8.50,1.93,-0.72,-0.63,-0.31,
4.636,1.28,8.50,1.93,-0.76,-0.61,-0.30,
4.636,1.28,8.50,1.93,-0.79,-0.59,-0.29,
4.637,0.93,7.58,0.15,-0.79,-0.59,-0.29,
4.637,0.93,7.58,0.15,-0.83,-0.56,-0.28,
4.638,0.93,7.58,0.15,-0.87,-0.52,-0.27,
4.638,0.93,7.58,0.15,-0.88,-0.51,-0.27,
4.639,0.93,7.58,0.15,-0.88,-0.48,-0.27,
4.639,0.93,7.58,0.15,-0.87,-0.46,-0.29,
4.639,1.63,8.69,0.29,-0.87,-0.46,-0.29,
4.64,1.63,8.69,0.29,-0.85,-0.47,-0.32,
4.64,1.63,8.69,0.29,-0.81,-0.53,-0.35,
4.641,1.63,8.69,0.29,-0.80,-0.58,-0.36,
4.641,1.63,8.69,0.29,-0.80,-0.69,-0.38,
4.642,1.63,8.69,0.29,-0.81,-0.79,-0.40,
4.642,3.72,11.15,1.01,-0.81,-0.79,-0.40,
4.643,3.72,11.15,1.01,-0.85,-0.87,-0.43,
4.643,3.72,11.15,1.01,-0.93,-0.96,-0.47,
4.643,3.72,11.15,1.01,-0.96,-0.98,-0.49,
4.644,3.72,11.15,1.01,-1.03,-1.00,-0.52,
4.644,3.72,11.15,1.01,-1.09,-0.99,-0.54,
4.645,4.04,11.72,-0.51,-1.09,-0.99,-0.54,
4.645,4.04,11.72,-0.51,-1.13,-0.94,-0.55,
4.646,4.04,11.72,-0.51,-1.14,-0.75,-0.52,
4.646,4.04,11.72,-0.51,-1.13,-0.65,-0.50,
4.647,4.04,11.72,-0.51,-1.10,-0.42,-0.45,
4.647,4.04,11.72,-0.51,-1.04,-0.12,-0.39,
4.648,-0.07,8.90,1.39,-1.04,-0.12,-0.39,
4.648,-0.07,8.90,1.39,-0.97,0.22,-0.30,
4.649,-0.07,8.90,1.39,-0.84,0.73,-0.14,
4.649,-0.07,8.90,1.39,-0.80,0.88,-0.08,
4.649,-0.07,8.90,1.39,-0.70,1.13,0.05,
4.65,-0.07,8.90,1.39,-0.59,1.30,0.20,
4.65,-4.09,0.93,4.94,-0.59,1.30,0.20,
4.651,-4.09,0.93,4.94,-0.48,1.42,0.34,
4.651,-4.09,0.93,4.94,-0.29,1.49,0.53,
4.652,-4.09,0.93,4.94,-0.22,1.49,0.59,
4.652,-4.09,0.93,4.94,-0.08,1.48,0.70,
4.652,-4.09,0.93,4.94,0.07,1.46,0.81,
4.653,-3.96,-4.43,11.61,0.07,1.46,0.81,
4.653,-3.96,-4.43,11.61,0.20,1.44,0.92,
4.654,-3.96,-4.43,11.61,0.39,1.42,1.07,
4.654,-3.96,-4.43,11.61,0.45,1.42,1.12,
4.655,-3.96,-4.43,11.61,0.55,1.39,1.22,
4.655,-3.96,-4.43,11.61,0.64,1.35,1.31,
4.66,-3.85,-4.97,15.94,0.64,1.35,1.31,
4.661,-3.85,-4.97,15.94,0.72,1.29,1.40,
4.662,-3.85,-4.97,15.94,0.82,1.19,1.50,
4.662,-3.85,-4.97,15.94,0.86,1.14,1.53,
4.676,-3.85,-4.97,15.94,0.91,1.05,1.60,
4.678,-3.85,-4.97,15.94,0.97,0.94,1.67,
4.678,-5.95,-8.23,17.95,0.97,0.94,1.67,
4.679,-5.95,-8.23,17.95,1.03,0.83,1.75,
4.679,-5.95,-8.23,17.95,1.12,0.65,1.84,
4.68,-5.95,-8.23,17.95,1.15,0.58,1.87,
4.68,-5.95,-8.23,17.95,1.21,0.43,1.92,
4.681,-5.95,-8.23,17.95,1.27,0.25,1.96,
4.681,-8.69,-10.67,19.37,1.27,0.25,1.96,
4.682,-8.69,-10.67,19.37,1.31,0.04,1.98,
4.682,-8.69,-10.67,19.37,1.37,-0.31,2.00,
4.683,-8.69,-10.67,19.37,1.38,-0.43,2.00,
4.694,-8.69,-10.67,19.37,1.40,-0.69,2.00,
4.695,-8.69,-10.67,19.37,1.40,-0.94,2.00,
4.696,-8.79,-10.86,18.65,1.40,-0.94,2.00,
4.696,-8.79,-10.86,18.65,1.40,-1.20,1.99,
4.697,-8.79,-10.86,18.65,1.39,-1.56,1.97,
4.697,-8.79,-10.86,18.65,1.39,-1.68,1.97,
4.698,-8.79,-10.86,18.65,1.38,-1.89,1.96,
4.698,-8.79,-10.86,18.65,1.37,-2.08,1.96,
4.698,-8.28,-10.97,16.26,1.37,-2.08,1.96,
4.722,-8.28,-10.97,16.26,1.35,-2.25,1.97,
4.723,-8.28,-10.97,16.26,1.33,-2.46,1.99,
4.723,-8.28,-10.97,16.26,1.32,-2.52,2.00,
4.724,-8.28,-10.97,16.26,1.30,-2.63,2.02,
4.724,-8.28,-10.97,16.26,1.28,-2.71,2.04,
4.724,-8.30,-12.40,13.52,1.28,-2.71,2.04,
4.725,-8.30,-12.40,13.52,1.24,-2.76,2.10,
4.725,-8.30,-12.40,13.52,1.21,-2.74,2.15,
4.726,-8.30,-12.40,13.52,1.19,-2.72,2.18,
4.726,-8.30,-12.40,13.52,1.17,-2.66,2.25,
4.726,-8.30,-12.40,13.52,1.15,-2.58,2.34,
4.727,-9.83,-16.07,10.39,1.15,-2.58,2.34,
4.727,-9.83,-16.07,10.39,1.12,-2.51,2.44,
4.728,-9.83,-16.07,10.39,1.07,-2.41,2.61,
4.728,-9.83,-16.07,10.39,1.05,-2.38,2.67,
4.728,-9.83,-16.07,10.39,1.02,-2.33,2.81,
4.729,-9.83,-16.07,10.39,0.98,-2.28,2.96,
4.729,-11.59,-21.45,6.42,0.98,-2.28,2.96,
4.73,-11.59,-21.45,6.42,0.95,-2.24,3.12,
4.73,-11.59,-21.45,6.42,0.91,-2.18,3.38,
4.733,-11.59,-21.45,6.42,0.90,-2.16,3.47,
4.734,-11.59,-21.45,6.42,0.91,-2.13,3.65,
4.736,-11.59,-21.45,6.42,0.93,-2.11,3.82,
4.737,-12.74,-26.92,4.10,0.93,-2.11,3.82,
4.738,-12.74,-26.92,4.10,0.98,-2.10,3.99,
4.74,-12.74,-26.92,4.10,1.07,-2.08,4.21,
4.741,-12.74,-26.92,4.10,1.11,-2.08,4.28,
4.743,-12.74,-26.92,4.10,1.21,-2.08,4.39,
4.745,-12.74,-26.92,4.10,1.33,-2.08,4.46,
4.75,-11.93,-30.65,3.09,1.33,-2.08,4.46,
4.752,-11.93,-30.65,3.09,1.45,-2.06,4.50,
4.782,-11.93,-30.65,3.09,1.64,-1.99,4.48,
4.783,-11.93,-30.65,3.09,1.71,-1.95,4.45,
4.783,-11.93,-30.65,3.09,1.84,-1.86,4.34,
4.784,-11.93,-30.65,3.09,1.97,-1.71,4.18,
4.784,-10.79,-30.92,1.54,1.97,-1.71,4.18,
4.785,-10.79,-30.92,1.54,2.10,-1.53,3.96,
4.786,-10.79,-30.92,1.54,2.27,-1.16,3.56,
4.787,-10.79,-30.92,1.54,2.33,-1.01,3.42,
4.787,-10.79,-30.92,1.54,2.42,-0.68,3.14,
4.788,-10.79,-30.92,1.54,2.50,-0.34,2.88,
4.788,-13.05,-28.19,-0.71,2.50,-0.34,2.88,
4.789,-13.05,-28.19,-0.71,2.56,-0.00,2.64,
4.79,-13.05,-28.19,-0.71,2.62,0.42,2.33,
4.79,-13.05,-28.19,-0.71,2.64,0.52,2.24,
4.791,-13.05,-28.19,-0.71,2.68,0.67,2.11,
4.791,-13.05,-28.19,-0.71,2.71,0.73,2.05,
4.792,-15.91,-24.88,-2.81,2.71,0.73,2.05,
4.793,-15.91,-24.88,-2.81,2.75,0.70,2.05,
4.793,-15.91,-24.88,-2.81,2.81,0.51,2.14,
4.794,-15.91,-24.88,-2.81,2.83,0.41,2.18,
4.794,-15.91,-24.88,-2.81,2.87,0.18,2.26,
4.795,-15.91,-24.88,-2.81,2.90,-0.09,2.35,
4.795,-12.52,-23.56,-4.21,2.90,-0.09,2.35,
4.796,-12.52,-23.56,-4.21,2.93,-0.39,2.43,
4.797,-12.52,-23.56,-4.21,2.98,-0.86,2.51,
4.797,-12.52,-23.56,-4.21,2.99,-1.03,2.53,
4.798,-12.52,-23.56,-4.21,3.04,-1.36,2.55,
4.798,-12.52,-23.56,-4.21,3.08,-1.70,2.55,
4.799,-6.31,-22.85,-6.03,3.08,-1.70,2.55,
4.8,-6.31,-22.85,-6.03,3.13,-2.02,2.53,
4.8,-6.31,-22.85,-6.03,3.21,-2.49,2.48,
4.805,-6.31,-22.85,-6.03,3.24,-2.63,2.45,
4.806,-6.31,-22.85,-6.03,3.30,-2.89,2.39,
4.806,-6.31,-22.85,-6.03,3.36,-3.11,2.32,
4.807,-1.72,-21.74,-8.62,3.36,-3.11,2.32,
4.808,-1.72,-21.74,-8.62,3.41,-3.32,2.24,
4.812,-1.72,-21.74,-8.62,3.50,-3.61,2.08,
4.813,-1.72,-21.74,-8.62,3.54,-3.70,2.03,
4.814,-1.72,-21.74,-8.62,3.61,-3.89,1.92,
4.816,-1.72,-21.74,-8.62,3.69,-4.08,1.80,
4.818,1.63,-19.77,-10.46,3.69,-4.08,1.80,
4.819,1.63,-19.77,-10.46,3.78,-4.26,1.69,
4.82,1.63,-19.77,-10.46,3.93,-4.55,1.50,
4.821,1.63,-19.77,-10.46,3.99,-4.64,1.44,
4.824,1.63,-19.77,-10.46,4.10,-4.82,1.32,
4.825,1.63,-19.77,-10.46,4.21,-5.02,1.19,
4.827,3.90,-16.61,-10.74,4.21,-5.02,1.19,
4.827,3.90,-16.61,-10.74,4.32,-5.21,1.07,
4.838,3.90,-16.61,-10.74,4.47,-5.49,0.89,
4.839,3.90,-16.61,-10.74,4.53,-5.58,0.84,
4.84,3.90,-16.61,-10.74,4.62,-5.77,0.73,
4.84,3.90,-16.61,-10.74,4.72,-5.95,0.62,
4.84,4.69,-12.03,-11.13,4.72,-5.95,0.62,
4.841,4.69,-12.03,-11.13,4.82,-6.14,0.52,
4.841,4.69,-12.03,-11.13,4.97,-6.41,0.37,
4.841,4.69,-12.03,-11.13,5.03,-6.50,0.32,
4.848,4.69,-12.03,-11.13,5.14,-6.67,0.22,
4.849,4.69,-12.03,-11.13,5.26,-6.83,0.11,
4.867,5.18,-5.96,-12.24,5.26,-6.83,0.11,
4.868,5.18,-5.96,-12.24,5.39,-6.98,-0.01,
4.868,5.18,-5.96,-12.24,5.61,-7.18,-0.22,
4.868,5.18,-5.96,-12.24,5.69,-7.24,-0.29,
4.869,5.18,-5.96,-12.24,5.86,-7.36,-0.44,
4.869,5.18,-5.96,-12.24,6.05,-7.48,-0.59,
4.869,6.01,1.82,-13.21,6.05,-7.48,-0.59,
4.87,6.01,1.82,-13.21,6.25,-7.57,-0.75,
4.87,6.01,1.82,-13.21,6.55,-7.66,-0.98,
4.871,6.01,1.82,-13.21,6.65,-7.67,-1.05,
4.871,6.01,1.82,-13.21,6.84,-7.64,-1.19,
4.872,6.01,1.82,-13.21,7.03,-7.57,-1.30,
4.872,5.03,8.25,-15.45,7.03,-7.57,-1.30,
4.873,5.03,8.25,-15.45,7.20,-7.41,-1.38,
4.878,5.03,8.25,-15.45,7.44,-6.97,-1.47,
4.879,5.03,8.25,-15.45,7.50,-6.78,-1.48,
4.879,5.03,8.25,-15.45,7.60,-6.31,-1.49,
4.879,5.03,8.25,-15.45,7.68,-5.76,-1.49,
4.881,1.92,11.83,-18.65,7.68,-5.76,-1.49,
4.882,1.92,11.83,-18.65,7.73,-5.14,-1.47,
4.883,1.92,11.83,-18.65,7.74,-4.13,-1.43,
4.883,1.92,11.83,-18.65,7.73,-3.79,-1.41,
4.887,1.92,11.83,-18.65,7.69,-3.10,-1.37,
4.888,1.92,11.83,-18.65,7.65,-2.44,-1.33,
4.888,1.35,12.54,-19.06,7.65,-2.44,-1.33,
4.889,1.35,12.54,-19.06,7.59,-1.83,-1.29,
4.89,1.35,12.54,-19.06,7.43,-0.96,-1.24,
4.891,1.35,12.54,-19.06,7.35,-0.68,-1.22,
4.893,1.35,12.54,-19.06,7.20,-0.14,-1.18,
4.895,1.35,12.54,-19.06,7.04,0.39,-1.15,
4.901,3.19,12.69,-18.04,7.04,0.39,-1.15,
4.902,3.19,12.69,-18.04,6.90,0.89,-1.12,
4.902,3.19,12.69,-18.04,6.70,1.59,-1.09,
4.903,3.19,12.69,-18.04,6.64,1.81,-1.07,
4.903,3.19,12.69,-18.04,6.53,2.22,-1.06,
4.905,3.19,12.69,-18.04,6.44,2.58,-1.05,
4.907,5.42,11.44,-12.08,6.44,2.58,-1.05,
4.908,5.42,11.44,-12.08,6.36,2.88,-1.05,
4.91,5.42,11.44,-12.08,6.26,3.22,-1.06,
4.911,5.42,11.44,-12.08,6.23,3.32,-1.07,
4.914,5.42,11.44,-12.08,6.18,3.48,-1.09,
4.916,5.42,11.44,-12.08,6.15,3.58,-1.10,
4.948,6.81,9.81,-5.02,6.15,3.58,-1.10,
4.948,6.81,9.81,-5.02,6.11,3.60,-1.11,
4.949,6.81,9.81,-5.02,6.05,3.48,-1.10,
4.949,6.81,9.81,-5.02,6.02,3.40,-1.10,
4.949,6.81,9.81,-5.02,5.96,3.17,-1.09,
4.95,6.81,9.81,-5.02,5.89,2.84,-1.06,
4.95,6.27,9.30,-1.09,5.89,2.84,-1.06,
4.951,6.27,9.30,-1.09,5.81,2.44,-1.01,
4.952,6.27,9.30,-1.09,5.68,1.72,-0.93,
4.952,6.27,9.30,-1.09,5.63,1.46,-0.89,
4.952,6.27,9.30,-1.09,5.52,0.90,-0.82,
4.953,6.27,9.30,-1.09,5.40,0.30,-0.73,
4.953,3.77,8.90,0.89,5.40,0.30,-0.73,
4.954,3.77,8.90,0.89,5.28,-0.29,-0.65,
4.954,3.77,8.90,0.89,5.09,-1.16,-0.52,
4.955,3.77,8.90,0.89,5.02,-1.44,-0.48,
4.955,3.77,8.90,0.89,4.88,-1.96,-0.40,
4.955,3.77,8.90,0.89,4.74,-2.43,-0.33,
4.956,2.44,8.56,0.17,4.74,-2.43,-0.33,
4.956,2.44,8.56,0.17,4.59,-2.84,-0.28,
4.957,2.44,8.56,0.17,4.39,-3.32,-0.22,
4.957,2.44,8.56,0.17,4.32,-3.44,-0.21,
4.958,2.44,8.56,0.17,4.21,-3.63,-0.20,
4.958,2.44,8.56,0.17,4.11,-3.75,-0.21,
4.959,3.75,7.30,-1.35,4.11,-3.75,-0.21,
4.959,3.75,7.30,-1.35,4.02,-3.81,-0.24,
4.962,3.75,7.30,-1.35,3.90,-3.80,-0.32,
4.962,3.75,7.30,-1.35,3.87,-3.77,-0.36,
4.966,3.75,7.30,-1.35,3.80,-3.69,-0.45,
4.966,3.75,7.30,-1.35,3.72,-3.59,-0.55,
4.967,6.91,5.98,-2.61,3.72,-3.59,-0.55,
4.967,6.91,5.98,-2.61,3.65,-3.46,-0.67,
4.97,6.91,5.98,-2.61,3.54,-3.24,-0.86,
4.971,6.91,5.98,-2.61,3.50,-3.17,-0.92,
4.973,6.91,5.98,-2.61,3.42,-3.03,-1.04,
4.975,6.91,5.98,-2.61,3.34,-2.90,-1.14,
4.977,8.06,3.61,-4.38,3.34,-2.90,-1.14,
4.977,8.06,3.61,-4.38,3.27,-2.77,-1.23,
4.981,8.06,3.61,-4.38,3.16,-2.60,-1.34,
4.981,8.06,3.61,-4.38,3.13,-2.55,-1.37,
4.984,8.06,3.61,-4.38,3.08,-2.46,-1.43,
4.986,8.06,3.61,-4.38,3.02,-2.37,-1.47,
4.987,6.81,0.81,-5.13,3.02,-2.37,-1.47,
4.987,6.81,0.81,-5.13,2.98,-2.30,-1.52,
4.99,6.81,0.81,-5.13,2.92,-2.23,-1.58,
4.991,6.81,0.81,-5.13,2.90,-2.22,-1.60,
4.993,6.81,0.81,-5.13,2.87,-2.21,-1.64,
4.996,6.81,0.81,-5.13,2.85,-2.21,-1.67,
5.003,5.23,-0.50,-5.62,2.85,-2.21,-1.67,
5.003,5.23,-0.50,-5.62,2.83,-2.22,-1.71,
5.004,5.23,-0.50,-5.62,2.80,-2.29,-1.76,
5.004,5.23,-0.50,-5.62,2.79,-2.31,-1.78,
5.004,5.23,-0.50,-5.62,2.78,-2.37,-1.81,
5.005,5.23,-0.50,-5.62,2.76,-2.43,-1.85,
5.028,4.44,-0.72,-6.72,2.76,-2.43,-1.85,
5.029,4.44,-0.72,-6.72,2.74,-2.49,-1.90,
5.029,4.44,-0.72,-6.72,2.70,-2.55,-1.99,
5.03,4.44,-0.72,-6.72,2.68,-2.56,-2.02,
5.03,4.44,-0.72,-6.72,2.65,-2.58,-2.09,
5.03,4.44,-0.72,-6.72,2.61,-2.56,-2.16,
5.031,4.25,-0.31,-7.81,2.61,-2.56,-2.16,
5.031,4.25,-0.31,-7.81,2.58,-2.53,-2.23,
5.031,4.25,-0.31,-7.81,2.52,-2.44,-2.35,
