
time,ax,ay,az,wx,wy,wz,
0.002,-0.55,0.01,0.71,0.72,-0.51,0.37,
0.003,-0.55,0.01,0.71,0.72,-0.50,0.43,
0.003,-0.62,-0.05,0.18,0.72,-0.50,0.43,
0.004,-0.62,-0.05,0.18,0.71,-0.50,0.49,
0.004,-0.62,-0.05,0.18,0.69,-0.50,0.57,
0.004,-0.62,-0.05,0.18,0.68,-0.49,0.60,
0.005,-0.62,-0.05,0.18,0.66,-0.49,0.66,
0.005,-0.62,-0.05,0.18,0.65,-0.48,0.72,
0.005,-0.56,-0.08,-0.39,0.65,-0.48,0.72,
0.005,-0.56,-0.08,-0.39,0.62,-0.47,0.78,
0.006,-0.56,-0.08,-0.39,0.59,-0.46,0.87,
0.006,-0.56,-0.08,-0.39,0.57,-0.46,0.90,
0.012,-0.56,-0.08,-0.39,0.55,-0.45,0.97,
0.013,-0.56,-0.08,-0.39,0.52,-0.44,1.03,
0.013,-0.39,-0.18,-0.79,0.52,-0.44,1.03,
0.013,-0.39,-0.18,-0.79,0.49,-0.41,1.10,
0.021,-0.39,-0.18,-0.79,0.44,-0.37,1.19,
0.021,-0.39,-0.18,-0.79,0.42,-0.35,1.22,
0.022,-0.39,-0.18,-0.79,0.39,-0.32,1.28,
0.022,-0.39,-0.18,-0.79,0.35,-0.28,1.34,
0.022,-0.50,-0.02,-1.08,0.35,-0.28,1.34,
0.023,-0.50,-0.02,-1.08,0.31,-0.24,1.39,
0.025,-0.50,-0.02,-1.08,0.26,-0.18,1.48,
0.026,-0.50,-0.02,-1.08,0.24,-0.15,1.51,
0.028,-0.50,-0.02,-1.08,0.21,-0.10,1.57,
0.05,-0.50,-0.02,-1.08,0.18,-0.05,1.62,
0.051,-0.92,-0.37,-0.74,0.18,-0.05,1.62,
0.052,-0.92,-0.37,-0.74,0.15,-0.01,1.66,
0.052,-0.92,-0.37,-0.74,0.09,0.05,1.71,
0.052,-0.92,-0.37,-0.74,0.08,0.07,1.73,
0.053,-0.92,-0.37,-0.74,0.05,0.10,1.75,
0.053,-0.92,-0.37,-0.74,0.02,0.13,1.77,
0.054,-0.57,-0.53,-0.51,0.02,0.13,1.77,
0.054,-0.57,-0.53,-0.51,-0.01,0.17,1.78,
0.054,-0.57,-0.53,-0.51,-0.05,0.22,1.78,
0.055,-0.57,-0.53,-0.51,-0.07,0.24,1.78,
0.055,-0.57,-0.53,-0.51,-0.09,0.26,1.77,
0.055,-0.57,-0.53,-0.51,-0.12,0.29,1.76,
0.056,-0.02,-0.56,-0.50,-0.12,0.29,1.76,
0.056,-0.02,-0.56,-0.50,-0.14,0.31,1.74,
0.056,-0.02,-0.56,-0.50,-0.18,0.33,1.71,
0.057,-0.02,-0.56,-0.50,-0.19,0.33,1.69,
0.077,-0.02,-0.56,-0.50,-0.21,0.33,1.66,
0.078,-0.02,-0.56,-0.50,-0.23,0.32,1.63,
0.078,0.65,-0.36,-0.74,-0.23,0.32,1.63,
0.079,0.65,-0.36,-0.74,-0.26,0.31,1.59,
0.079,0.65,-0.36,-0.74,-0.28,0.29,1.52,
0.08,0.65,-0.36,-0.74,-0.29,0.28,1.49,
0.08,0.65,-0.36,-0.74,-0.31,0.26,1.43,
0.08,0.65,-0.36,-0.74,-0.32,0.24,1.37,
0.08,1.53,-0.04,-0.94,-0.32,0.24,1.37,
0.081,1.53,-0.04,-0.94,-0.32,0.22,1.31,
0.081,1.53,-0.04,-0.94,-0.33,0.19,1.16,
0.082,1.53,-0.04,-0.94,-0.32,0.19,1.12,
0.082,1.53,-0.04,-0.94,-0.32,0.18,1.08,
0.082,1.53,-0.04,-0.94,-0.31,0.16,0.99,
0.094,2.20,0.35,-0.65,-0.31,0.16,0.99,
0.095,2.20,0.35,-0.65,-0.30,0.14,0.87,
0.095,2.20,0.35,-0.65,-0.28,0.12,0.79,
0.096,2.20,0.35,-0.65,-0.27,0.11,0.74,
0.096,2.20,0.35,-0.65,-0.25,0.08,0.66,
0.096,2.20,0.35,-0.65,-0.22,0.06,0.57,
0.097,2.58,0.55,-0.17,-0.22,0.06,0.57,
0.097,2.58,0.55,-0.17,-0.20,0.03,0.49,
0.097,2.58,0.55,-0.17,-0.15,-0.01,0.36,
0.098,2.58,0.55,-0.17,-0.13,-0.03,0.32,
0.103,2.58,0.55,-0.17,-0.10,-0.06,0.24,
0.104,2.58,0.55,-0.17,-0.06,-0.09,0.16,
0.104,2.61,0.47,0.26,-0.06,-0.09,0.16,
0.104,2.61,0.47,0.26,-0.03,-0.12,0.08,
0.107,2.61,0.47,0.26,0.02,-0.17,-0.01,
0.108,2.61,0.47,0.26,0.03,-0.18,-0.04,
0.108,2.61,0.47,0.26,0.06,-0.20,-0.10,
0.112,2.61,0.47,0.26,0.09,-0.22,-0.15,
0.113,2.23,0.20,0.29,0.09,-0.22,-0.15,
0.113,2.23,0.20,0.29,0.11,-0.23,-0.19,
0.118,2.23,0.20,0.29,0.14,-0.25,-0.23,
0.119,2.23,0.20,0.29,0.15,-0.26,-0.24,
0.119,2.23,0.20,0.29,0.16,-0.27,-0.26,
0.122,2.23,0.20,0.29,0.18,-0.28,-0.27,
0.123,1.36,-0.14,0.09,0.18,-0.28,-0.27,
0.123,1.36,-0.14,0.09,0.20,-0.29,-0.28,
0.127,1.36,-0.14,0.09,0.22,-0.30,-0.27,
0.128,1.36,-0.14,0.09,0.22,-0.30,-0.27,
0.128,1.36,-0.14,0.09,0.23,-0.31,-0.26,
0.135,1.36,-0.14,0.09,0.24,-0.32,-0.24,
0.136,0.64,-0.34,-0.17,0.24,-0.32,-0.24,
0.136,0.64,-0.34,-0.17,0.24,-0.33,-0.23,
0.137,0.64,-0.34,-0.17,0.24,-0.33,-0.20,
0.137,0.64,-0.34,-0.17,0.24,-0.32,-0.19,
0.142,0.64,-0.34,-0.17,0.22,-0.29,-0.16,
0.143,0.64,-0.34,-0.17,0.19,-0.23,-0.13,
0.145,0.22,-0.47,-0.64,0.19,-0.23,-0.13,
0.145,0.22,-0.47,-0.64,0.15,-0.14,-0.09,
0.147,0.22,-0.47,-0.64,0.03,0.08,-0.02,
0.148,0.22,-0.47,-0.64,-0.03,0.17,0.02,
0.153,0.22,-0.47,-0.64,-0.16,0.38,0.09,
0.154,0.22,-0.47,-0.64,-0.31,0.58,0.18,
0.154,-0.34,-0.59,-2.43,-0.31,0.58,0.18,
0.155,-0.34,-0.59,-2.43,-0.45,0.71,0.27,
0.18,-0.34,-0.59,-2.43,-0.59,0.78,0.39,
0.181,-0.34,-0.59,-2.43,-0.61,0.78,0.42,
0.181,-0.34,-0.59,-2.43,-0.64,0.75,0.47,
0.181,-0.34,-0.59,-2.43,-0.64,0.71,0.50,
0.182,-0.21,-0.63,-1.08,-0.64,0.71,0.50,
0.182,-0.21,-0.63,-1.08,-0.63,0.68,0.52,
0.183,-0.21,-0.63,-1.08,-0.59,0.63,0.55,
0.183,-0.21,-0.63,-1.08,-0.58,0.61,0.55,
0.184,-0.21,-0.63,-1.08,-0.55,0.58,0.55,
0.184,-0.21,-0.63,-1.08,-0.53,0.56,0.55,
0.185,0.74,-0.56,0.05,-0.53,0.56,0.55,
0.185,0.74,-0.56,0.05,-0.51,0.55,0.53,
0.185,0.74,-0.56,0.05,-0.50,0.56,0.50,
0.186,0.74,-0.56,0.05,-0.49,0.56,0.49,
0.186,0.74,-0.56,0.05,-0.48,0.55,0.45,
0.187,0.74,-0.56,0.05,-0.47,0.54,0.42,
0.187,1.54,-0.18,0.19,-0.47,0.54,0.42,
0.188,1.54,-0.18,0.19,-0.44,0.52,0.39,
0.188,1.54,-0.18,0.19,-0.41,0.48,0.35,
0.189,1.54,-0.18,0.19,-0.39,0.47,0.34,
0.189,1.54,-0.18,0.19,-0.37,0.45,0.32,
0.199,1.54,-0.18,0.19,-0.34,0.42,0.31,
0.2,1.69,0.10,0.55,-0.34,0.42,0.31,
0.201,1.69,0.10,0.55,-0.31,0.40,0.30,
0.201,1.69,0.10,0.55,-0.27,0.38,0.30,
0.201,1.69,0.10,0.55,-0.26,0.37,0.31,
0.202,1.69,0.10,0.55,-0.24,0.37,0.32,
0.202,1.69,0.10,0.55,-0.21,0.37,0.33,
0.203,1.51,-0.27,0.48,-0.21,0.37,0.33,
0.203,1.51,-0.27,0.48,-0.19,0.37,0.35,
0.209,1.51,-0.27,0.48,-0.15,0.38,0.36,
0.21,1.51,-0.27,0.48,-0.14,0.39,0.36,
0.21,1.51,-0.27,0.48,-0.11,0.39,0.36,
0.211,1.51,-0.27,0.48,-0.08,0.40,0.36,
0.224,1.53,-0.60,0.33,-0.08,0.40,0.36,
0.225,1.53,-0.60,0.33,-0.06,0.40,0.34,
0.225,1.53,-0.60,0.33,-0.03,0.39,0.32,
0.225,1.53,-0.60,0.33,-0.01,0.39,0.31,
0.225,1.53,-0.60,0.33,0.00,0.38,0.28,
0.226,1.53,-0.60,0.33,0.02,0.36,0.25,
0.226,1.85,-0.62,0.00,0.02,0.36,0.25,
0.227,1.85,-0.62,0.00,0.03,0.33,0.21,
0.227,1.85,-0.62,0.00,0.05,0.29,0.16,
0.227,1.85,-0.62,0.00,0.05,0.27,0.14,
0.228,1.85,-0.62,0.00,0.06,0.24,0.10,
0.23,1.85,-0.62,0.00,0.08,0.21,0.07,
0.232,1.60,-0.31,0.01,0.08,0.21,0.07,
0.232,1.60,-0.31,0.01,0.09,0.18,0.04,
0.238,1.60,-0.31,0.01,0.12,0.14,-0.00,
0.239,1.60,-0.31,0.01,0.13,0.13,-0.01,
0.239,1.60,-0.31,0.01,0.15,0.10,-0.04,
0.243,1.60,-0.31,0.01,0.17,0.08,-0.06,
0.243,1.12,-0.12,0.10,0.17,0.08,-0.06,
0.244,1.12,-0.12,0.10,0.19,0.05,-0.07,
0.25,1.12,-0.12,0.10,0.21,0.01,-0.10,
0.251,1.12,-0.12,0.10,0.22,-0.01,-0.10,
0.251,1.12,-0.12,0.10,0.24,-0.04,-0.12,
0.251,1.12,-0.12,0.10,0.25,-0.07,-0.13,
0.252,0.83,-0.23,-0.09,0.25,-0.07,-0.13,
0.253,0.83,-0.23,-0.09,0.27,-0.11,-0.14,
0.255,0.83,-0.23,-0.09,0.28,-0.17,-0.16,
0.256,0.83,-0.23,-0.09,0.29,-0.19,-0.16,
0.258,0.83,-0.23,-0.09,0.30,-0.23,-0.17,
0.26,0.83,-0.23,-0.09,0.30,-0.27,-0.18,
0.263,0.59,-0.35,-0.35,0.30,-0.27,-0.18,
0.264,0.59,-0.35,-0.35,0.31,-0.31,-0.19,
0.265,0.59,-0.35,-0.35,0.32,-0.37,-0.19,
0.266,0.59,-0.35,-0.35,0.32,-0.39,-0.18,
0.268,0.59,-0.35,-0.35,0.33,-0.43,-0.18,
0.27,0.59,-0.35,-0.35,0.33,-0.46,-0.17,
0.272,-0.21,-0.42,-0.65,0.33,-0.46,-0.17,
0.273,-0.21,-0.42,-0.65,0.33,-0.50,-0.17,
0.275,-0.21,-0.42,-0.65,0.33,-0.55,-0.15,
0.276,-0.21,-0.42,-0.65,0.33,-0.56,-0.15,
0.278,-0.21,-0.42,-0.65,0.32,-0.60,-0.14,
0.285,-0.21,-0.42,-0.65,0.31,-0.63,-0.13,
0.287,-0.61,-0.43,-1.13,0.31,-0.63,-0.13,
0.288,-0.61,-0.43,-1.13,0.30,-0.66,-0.12,
0.288,-0.61,-0.43,-1.13,0.28,-0.71,-0.11,
0.289,-0.61,-0.43,-1.13,0.27,-0.72,-0.10,
0.289,-0.61,-0.43,-1.13,0.25,-0.75,-0.10,
0.291,-0.61,-0.43,-1.13,0.23,-0.78,-0.09,
0.292,-0.54,-0.37,-1.69,0.23,-0.78,-0.09,
0.294,-0.54,-0.37,-1.69,0.21,-0.81,-0.09,
0.301,-0.54,-0.37,-1.69,0.17,-0.84,-0.09,
0.303,-0.54,-0.37,-1.69,0.16,-0.85,-0.09,
0.304,-0.54,-0.37,-1.69,0.13,-0.87,-0.09,
0.304,-0.54,-0.37,-1.69,0.11,-0.90,-0.09,
0.305,-0.30,-0.30,-1.96,0.11,-0.90,-0.09,
0.306,-0.30,-0.30,-1.96,0.09,-0.92,-0.10,
0.307,-0.30,-0.30,-1.96,0.05,-0.95,-0.10,
0.308,-0.30,-0.30,-1.96,0.04,-0.96,-0.10,
0.309,-0.30,-0.30,-1.96,0.02,-0.98,-0.11,
0.31,-0.30,-0.30,-1.96,-0.01,-0.99,-0.11,
0.326,-0.18,-0.36,-1.97,-0.01,-0.99,-0.11,
0.329,-0.18,-0.36,-1.97,-0.03,-1.01,-0.11,
0.331,-0.18,-0.36,-1.97,-0.07,-1.02,-0.12,
0.332,-0.18,-0.36,-1.97,-0.08,-1.03,-0.12,
0.332,-0.18,-0.36,-1.97,-0.11,-1.04,-0.12,
0.333,-0.18,-0.36,-1.97,-0.13,-1.05,-0.12,
0.36,-0.10,-0.57,-2.02,-0.13,-1.05,-0.12,
0.361,-0.10,-0.57,-2.02,-0.16,-1.05,-0.12,
0.361,-0.10,-0.57,-2.02,-0.20,-1.06,-0.13,
0.362,-0.10,-0.57,-2.02,-0.22,-1.06,-0.13,
0.362,-0.10,-0.57,-2.02,-0.24,-1.07,-0.13,
0.362,-0.10,-0.57,-2.02,-0.27,-1.07,-0.13,
0.362,-0.08,-0.77,-1.97,-0.27,-1.07,-0.13,
0.363,-0.08,-0.77,-1.97,-0.29,-1.08,-0.13,
0.363,-0.08,-0.77,-1.97,-0.32,-1.09,-0.14,
0.363,-0.08,-0.77,-1.97,-0.33,-1.09,-0.14,
0.364,-0.08,-0.77,-1.97,-0.35,-1.10,-0.14,
0.364,-0.08,-0.77,-1.97,-0.36,-1.11,-0.13,
0.364,-0.16,-0.93,-1.64,-0.36,-1.11,-0.13,
0.365,-0.16,-0.93,-1.64,-0.37,-1.12,-0.13,
0.365,-0.16,-0.93,-1.64,-0.37,-1.13,-0.12,
0.365,-0.16,-0.93,-1.64,-0.37,-1.14,-0.12,
0.366,-0.16,-0.93,-1.64,-0.37,-1.15,-0.11,
0.366,-0.16,-0.93,-1.64,-0.37,-1.15,-0.11,
0.366,-0.36,-1.05,-1.28,-0.37,-1.15,-0.11,
0.367,-0.36,-1.05,-1.28,-0.36,-1.16,-0.10,
0.367,-0.36,-1.05,-1.28,-0.35,-1.18,-0.08,
0.368,-0.36,-1.05,-1.28,-0.34,-1.19,-0.07,
0.368,-0.36,-1.05,-1.28,-0.33,-1.21,-0.06,
0.368,-0.36,-1.05,-1.28,-0.31,-1.23,-0.04,
0.369,-0.68,-1.23,-1.09,-0.31,-1.23,-0.04,
0.369,-0.68,-1.23,-1.09,-0.30,-1.25,-0.03,
0.369,-0.68,-1.23,-1.09,-0.27,-1.29,-0.00,
0.37,-0.68,-1.23,-1.09,-0.26,-1.30,0.01,
0.37,-0.68,-1.23,-1.09,-0.24,-1.33,0.03,
0.371,-0.68,-1.23,-1.09,-0.22,-1.37,0.05,
0.377,-1.05,-1.46,-0.94,-0.22,-1.37,0.05,
0.378,-1.05,-1.46,-0.94,-0.19,-1.40,0.08,
0.378,-1.05,-1.46,-0.94,-0.15,-1.46,0.11,
0.378,-1.05,-1.46,-0.94,-0.13,-1.48,0.13,
0.379,-1.05,-1.46,-0.94,-0.10,-1.52,0.15,
0.383,-1.05,-1.46,-0.94,-0.07,-1.56,0.17,
0.384,-1.34,-1.56,-0.87,-0.07,-1.56,0.17,
0.384,-1.34,-1.56,-0.87,-0.04,-1.60,0.19,
0.387,-1.34,-1.56,-0.87,0.01,-1.67,0.23,
0.388,-1.34,-1.56,-0.87,0.04,-1.71,0.25,
0.389,-1.34,-1.56,-0.87,0.06,-1.74,0.26,
0.392,-1.34,-1.56,-0.87,0.08,-1.79,0.28,
0.393,-1.60,-1.48,-0.97,0.08,-1.79,0.28,
0.393,-1.60,-1.48,-0.97,0.11,-1.84,0.30,
0.398,-1.60,-1.48,-0.97,0.15,-1.91,0.33,
0.399,-1.60,-1.48,-0.97,0.16,-1.93,0.34,
0.399,-1.60,-1.48,-0.97,0.18,-1.99,0.36,
0.402,-1.60,-1.48,-0.97,0.20,-2.03,0.37,
0.403,-1.64,-1.05,-1.17,0.20,-2.03,0.37,
0.404,-1.64,-1.05,-1.17,0.22,-2.08,0.40,
0.407,-1.64,-1.05,-1.17,0.25,-2.16,0.43,
0.408,-1.64,-1.05,-1.17,0.25,-2.18,0.44,
0.408,-1.64,-1.05,-1.17,0.25,-2.23,0.45,
0.412,-1.64,-1.05,-1.17,0.26,-2.28,0.47,
0.413,-1.66,-1.52,-1.59,0.26,-2.28,0.47,
0.413,-1.66,-1.52,-1.59,0.25,-2.32,0.48,
0.418,-1.66,-1.52,-1.59,0.25,-2.37,0.51,
0.419,-1.66,-1.52,-1.59,0.24,-2.38,0.52,
0.42,-1.66,-1.52,-1.59,0.22,-2.41,0.53,
0.42,-1.66,-1.52,-1.59,0.20,-2.44,0.55,
0.422,-1.60,-2.02,-2.14,0.20,-2.44,0.55,
0.422,-1.60,-2.02,-2.14,0.19,-2.45,0.57,
0.425,-1.60,-2.02,-2.14,0.15,-2.48,0.60,
0.426,-1.60,-2.02,-2.14,0.14,-2.48,0.61,
0.431,-1.60,-2.02,-2.14,0.12,-2.49,0.63,
0.432,-1.60,-2.02,-2.14,0.09,-2.50,0.66,
0.433,-1.55,-2.04,-2.33,0.09,-2.50,0.66,
0.434,-1.55,-2.04,-2.33,0.05,-2.51,0.69,
0.436,-1.55,-2.04,-2.33,0.01,-2.52,0.72,
0.436,-1.55,-2.04,-2.33,-0.01,-2.53,0.73,
0.438,-1.55,-2.04,-2.33,-0.02,-2.54,0.74,
0.44,-1.55,-2.04,-2.33,-0.04,-2.55,0.75,
0.444,-1.44,-2.00,-2.12,-0.04,-2.55,0.75,
0.445,-1.44,-2.00,-2.12,-0.06,-2.56,0.77,
0.445,-1.44,-2.00,-2.12,-0.09,-2.59,0.79,
0.447,-1.44,-2.00,-2.12,-0.10,-2.61,0.80,
0.448,-1.44,-2.00,-2.12,-0.11,-2.63,0.81,
0.45,-1.44,-2.00,-2.12,-0.12,-2.65,0.82,
0.452,-1.38,-2.04,-1.51,-0.12,-2.65,0.82,
0.453,-1.38,-2.04,-1.51,-0.13,-2.68,0.84,
0.455,-1.38,-2.04,-1.51,-0.14,-2.73,0.86,
0.456,-1.38,-2.04,-1.51,-0.14,-2.74,0.87,
0.458,-1.38,-2.04,-1.51,-0.13,-2.77,0.88,
0.46,-1.38,-2.04,-1.51,-0.12,-2.79,0.90,
0.467,-1.37,-2.16,-0.63,-0.12,-2.79,0.90,
0.468,-1.37,-2.16,-0.63,-0.10,-2.81,0.91,
0.469,-1.37,-2.16,-0.63,-0.07,-2.82,0.93,
0.469,-1.37,-2.16,-0.63,-0.06,-2.82,0.93,
0.469,-1.37,-2.16,-0.63,-0.03,-2.82,0.95,
0.472,-1.37,-2.16,-0.63,-0.00,-2.82,0.97,
0.473,-1.45,-2.41,-0.12,-0.00,-2.82,0.97,
0.474,-1.45,-2.41,-0.12,0.02,-2.83,1.00,
0.477,-1.45,-2.41,-0.12,0.06,-2.86,1.05,
0.478,-1.45,-2.41,-0.12,0.08,-2.89,1.09,
0.479,-1.45,-2.41,-0.12,0.09,-2.90,1.11,
0.493,-1.45,-2.41,-0.12,0.11,-2.94,1.15,
0.494,-2.11,-1.86,0.25,0.11,-2.94,1.15,
0.494,-2.11,-1.86,0.25,0.13,-2.99,1.20,
0.495,-2.11,-1.86,0.25,0.15,-3.06,1.26,
0.495,-2.11,-1.86,0.25,0.16,-3.10,1.30,
0.525,-2.11,-1.86,0.25,0.16,-3.13,1.32,
0.526,-2.11,-1.86,0.25,0.17,-3.17,1.35,
0.526,-2.28,-1.57,0.44,0.17,-3.17,1.35,
0.527,-2.28,-1.57,0.44,0.18,-3.21,1.38,
0.527,-2.28,-1.57,0.44,0.18,-3.26,1.42,
0.528,-2.28,-1.57,0.44,0.18,-3.27,1.43,
0.528,-2.28,-1.57,0.44,0.18,-3.29,1.45,
0.529,-2.28,-1.57,0.44,0.18,-3.30,1.48,
0.529,-1.81,-1.61,0.34,0.18,-3.30,1.48,
0.53,-1.81,-1.61,0.34,0.17,-3.31,1.50,
0.531,-1.81,-1.61,0.34,0.17,-3.30,1.53,
0.531,-1.81,-1.61,0.34,0.16,-3.28,1.55,
0.532,-1.81,-1.61,0.34,0.16,-3.27,1.56,
0.532,-1.81,-1.61,0.34,0.15,-3.24,1.58,
0.533,-1.42,-1.59,0.36,0.15,-3.24,1.58,
0.533,-1.42,-1.59,0.36,0.14,-3.21,1.61,
0.534,-1.42,-1.59,0.36,0.12,-3.16,1.64,
0.534,-1.42,-1.59,0.36,0.11,-3.12,1.66,
0.535,-1.42,-1.59,0.36,0.10,-3.10,1.67,
0.535,-1.42,-1.59,0.36,0.08,-3.07,1.69,
0.536,-0.96,-1.27,0.42,0.08,-3.07,1.69,
0.536,-0.96,-1.27,0.42,0.07,-3.03,1.70,
0.537,-0.96,-1.27,0.42,0.05,-2.98,1.71,
0.537,-0.96,-1.27,0.42,0.04,-2.96,1.71,
0.538,-0.96,-1.27,0.42,0.03,-2.93,1.71,
0.538,-0.96,-1.27,0.42,0.02,-2.89,1.71,
0.539,-0.40,-0.97,0.74,0.02,-2.89,1.71,
0.539,-0.40,-0.97,0.74,0.00,-2.85,1.71,
0.54,-0.40,-0.97,0.74,-0.01,-2.80,1.71,
0.54,-0.40,-0.97,0.74,-0.02,-2.77,1.71,
0.541,-0.40,-0.97,0.74,-0.02,-2.75,1.70,
0.541,-0.40,-0.97,0.74,-0.03,-2.72,1.70,
0.542,-0.11,-0.65,1.09,-0.03,-2.72,1.70,
0.542,-0.11,-0.65,1.09,-0.03,-2.69,1.69,
0.545,-0.11,-0.65,1.09,-0.02,-2.66,1.69,
0.549,-0.11,-0.65,1.09,-0.02,-2.64,1.68,
0.55,-0.11,-0.65,1.09,-0.01,-2.63,1.68,
0.55,-0.11,-0.65,1.09,-0.01,-2.61,1.67,
0.552,-0.06,-0.58,1.61,-0.01,-2.61,1.67,
0.553,-0.06,-0.58,1.61,0.01,-2.61,1.67,
0.556,-0.06,-0.58,1.61,0.03,-2.59,1.67,
0.557,-0.06,-0.58,1.61,0.06,-2.59,1.67,
0.558,-0.06,-0.58,1.61,0.07,-2.58,1.67,
0.56,-0.06,-0.58,1.61,0.09,-2.58,1.67,
0.563,0.07,-0.44,2.23,0.09,-2.58,1.67,
0.563,0.07,-0.44,2.23,0.12,-2.58,1.67,
0.565,0.07,-0.44,2.23,0.17,-2.57,1.67,
0.567,0.07,-0.44,2.23,0.20,-2.57,1.67,
0.568,0.07,-0.44,2.23,0.22,-2.56,1.67,
0.572,0.07,-0.44,2.23,0.25,-2.56,1.67,
0.573,0.34,-0.20,2.68,0.25,-2.56,1.67,
0.573,0.34,-0.20,2.68,0.27,-2.55,1.67,
0.577,0.34,-0.20,2.68,0.31,-2.55,1.67,
0.578,0.34,-0.20,2.68,0.33,-2.54,1.66,
0.578,0.34,-0.20,2.68,0.34,-2.53,1.66,
0.583,0.34,-0.20,2.68,0.36,-2.53,1.66,
0.584,0.70,0.07,2.75,0.36,-2.53,1.66,
0.584,0.70,0.07,2.75,0.37,-2.52,1.65,
0.585,0.70,0.07,2.75,0.39,-2.51,1.64,
0.588,0.70,0.07,2.75,0.40,-2.49,1.63,
0.589,0.70,0.07,2.75,0.41,-2.49,1.63,
0.592,0.70,0.07,2.75,0.42,-2.47,1.62,
0.593,1.06,0.35,2.89,0.42,-2.47,1.62,
0.594,1.06,0.35,2.89,0.42,-2.45,1.61,
0.598,1.06,0.35,2.89,0.43,-2.42,1.59,
0.599,1.06,0.35,2.89,0.44,-2.40,1.58,
0.599,1.06,0.35,2.89,0.45,-2.38,1.57,
0.602,1.06,0.35,2.89,0.46,-2.35,1.55,
0.603,1.48,0.70,3.17,0.46,-2.35,1.55,
0.604,1.48,0.70,3.17,0.47,-2.31,1.54,
0.605,1.48,0.70,3.17,0.49,-2.25,1.51,
0.608,1.48,0.70,3.17,0.50,-2.21,1.49,
0.609,1.48,0.70,3.17,0.51,-2.18,1.49,
0.612,1.48,0.70,3.17,0.52,-2.13,1.47,
0.613,1.70,0.99,3.43,0.52,-2.13,1.47,
0.613,1.70,0.99,3.43,0.54,-2.08,1.45,
0.618,1.70,0.99,3.43,0.56,-1.99,1.44,
0.619,1.70,0.99,3.43,0.58,-1.93,1.43,
0.62,1.70,0.99,3.43,0.58,-1.90,1.43,
0.62,1.70,0.99,3.43,0.60,-1.83,1.43,
0.624,1.47,1.27,3.37,0.60,-1.83,1.43,
0.625,1.47,1.27,3.37,0.61,-1.77,1.43,
0.626,1.47,1.27,3.37,0.62,-1.66,1.43,
0.626,1.47,1.27,3.37,0.63,-1.59,1.43,
0.629,1.47,1.27,3.37,0.63,-1.56,1.43,
0.64,1.47,1.27,3.37,0.63,-1.49,1.43,
0.642,1.35,1.34,2.92,0.63,-1.49,1.43,
0.642,1.35,1.34,2.92,0.63,-1.42,1.43,
0.643,1.35,1.34,2.92,0.64,-1.32,1.42,
0.643,1.35,1.34,2.92,0.64,-1.25,1.42,
0.643,1.35,1.34,2.92,0.64,-1.22,1.42,
0.644,1.35,1.34,2.92,0.64,-1.15,1.42,
0.644,1.07,1.82,2.48,0.64,-1.15,1.42,
0.645,1.07,1.82,2.48,0.65,-1.07,1.42,
0.652,1.07,1.82,2.48,0.68,-0.97,1.44,
0.653,1.07,1.82,2.48,0.68,-0.92,1.45,
0.653,1.07,1.82,2.48,0.68,-0.89,1.45,
0.654,1.07,1.82,2.48,0.69,-0.85,1.46,
0.654,0.70,2.08,2.18,0.69,-0.85,1.46,
0.655,0.70,2.08,2.18,0.69,-0.81,1.47,
0.679,0.70,2.08,2.18,0.70,-0.76,1.47,
0.68,0.70,2.08,2.18,0.69,-0.73,1.47,
0.68,0.70,2.08,2.18,0.69,-0.72,1.46,
0.68,0.70,2.08,2.18,0.68,-0.70,1.45,
0.681,1.19,1.48,1.42,0.68,-0.70,1.45,
0.681,1.19,1.48,1.42,0.67,-0.68,1.44,
0.681,1.19,1.48,1.42,0.64,-0.65,1.42,
0.686,1.19,1.48,1.42,0.63,-0.63,1.40,
0.687,1.19,1.48,1.42,0.62,-0.63,1.39,
0.687,1.19,1.48,1.42,0.60,-0.62,1.37,
0.688,1.77,1.11,0.87,0.60,-0.62,1.37,
0.688,1.77,1.11,0.87,0.59,-0.60,1.35,
0.688,1.77,1.11,0.87,0.54,-0.57,1.29,
0.689,1.77,1.11,0.87,0.54,-0.57,1.29,
0.69,1.77,1.11,0.87,0.54,-0.57,1.29,
0.69,1.77,1.11,0.87,0.53,-0.57,1.27,
0.69,2.25,1.11,0.63,0.53,-0.57,1.27,
0.691,2.25,1.11,0.63,0.51,-0.56,1.24,
0.691,2.25,1.11,0.63,0.49,-0.55,1.21,
0.692,2.25,1.11,0.63,0.48,-0.55,1.18,
0.692,2.25,1.11,0.63,0.47,-0.55,1.17,
0.693,2.25,1.11,0.63,0.45,-0.55,1.14,
0.693,2.58,1.44,0.47,0.45,-0.55,1.14,
0.694,2.58,1.44,0.47,0.43,-0.55,1.12,
0.698,2.58,1.44,0.47,0.41,-0.56,1.07,
0.699,2.58,1.44,0.47,0.39,-0.56,1.05,
0.7,2.58,1.44,0.47,0.39,-0.56,1.03,
0.703,2.58,1.44,0.47,0.37,-0.57,1.00,
0.704,2.71,1.65,0.42,0.37,-0.57,1.00,
0.705,2.71,1.65,0.42,0.35,-0.57,0.97,
0.705,2.71,1.65,0.42,0.33,-0.58,0.93,
0.709,2.71,1.65,0.42,0.32,-0.59,0.90,
0.709,2.71,1.65,0.42,0.31,-0.59,0.89,
0.712,2.71,1.65,0.42,0.30,-0.59,0.86,
0.712,2.60,1.69,0.51,0.30,-0.59,0.86,
0.713,2.60,1.69,0.51,0.30,-0.59,0.84,
0.716,2.60,1.69,0.51,0.29,-0.59,0.80,
0.717,2.60,1.69,0.51,0.29,-0.59,0.78,
0.719,2.60,1.69,0.51,0.29,-0.59,0.77,
0.72,2.60,1.69,0.51,0.29,-0.58,0.75,
0.722,2.33,1.43,0.95,0.29,-0.58,0.75,
0.723,2.33,1.43,0.95,0.31,-0.57,0.74,
0.725,2.33,1.43,0.95,0.33,-0.56,0.72,
0.726,2.33,1.43,0.95,0.35,-0.55,0.71,
0.729,2.33,1.43,0.95,0.36,-0.54,0.70,
0.733,2.33,1.43,0.95,0.39,-0.52,0.70,
0.733,2.04,1.10,1.60,0.39,-0.52,0.70,
0.734,2.04,1.10,1.60,0.41,-0.50,0.69,
0.738,2.04,1.10,1.60,0.46,-0.47,0.68,
0.739,2.04,1.10,1.60,0.49,-0.45,0.67,
0.739,2.04,1.10,1.60,0.51,-0.44,0.67,
0.74,2.04,1.10,1.60,0.54,-0.42,0.67,
0.744,1.92,0.93,1.91,0.54,-0.42,0.67,
0.745,1.92,0.93,1.91,0.58,-0.41,0.65,
0.745,1.92,0.93,1.91,0.63,-0.38,0.64,
0.752,1.92,0.93,1.91,0.65,-0.37,0.62,
0.753,1.92,0.93,1.91,0.67,-0.37,0.62,
0.754,1.92,0.93,1.91,0.70,-0.36,0.60,
0.754,2.10,0.91,1.97,0.70,-0.36,0.60,
0.755,2.10,0.91,1.97,0.73,-0.35,0.58,
0.755,2.10,0.91,1.97,0.78,-0.33,0.56,
0.758,2.10,0.91,1.97,0.80,-0.32,0.53,
0.759,2.10,0.91,1.97,0.82,-0.31,0.53,
0.776,2.10,0.91,1.97,0.84,-0.30,0.51,
0.777,2.32,0.92,1.80,0.84,-0.30,0.51,
0.778,2.32,0.92,1.80,0.87,-0.28,0.49,
0.779,2.32,0.92,1.80,0.90,-0.26,0.46,
0.779,2.32,0.92,1.80,0.93,-0.24,0.44,
0.779,2.32,0.92,1.80,0.94,-0.22,0.43,
0.78,2.32,0.92,1.80,0.96,-0.19,0.41,
0.78,2.17,0.92,1.29,0.96,-0.19,0.41,
0.781,2.17,0.92,1.29,0.97,-0.18,0.40,
0.781,2.17,0.92,1.29,0.98,-0.16,0.39,
0.781,2.17,0.92,1.29,0.99,-0.15,0.38,
0.781,2.17,0.92,1.29,1.00,-0.14,0.37,
0.782,2.17,0.92,1.29,1.01,-0.13,0.36,
0.785,1.75,0.91,0.62,1.01,-0.13,0.36,
0.785,1.75,0.91,0.62,1.01,-0.11,0.36,
0.786,1.75,0.91,0.62,1.02,-0.10,0.36,
0.786,1.75,0.91,0.62,1.02,-0.10,0.36,
0.79,1.75,0.91,0.62,1.03,-0.09,0.36,
0.791,1.75,0.91,0.62,1.03,-0.08,0.36,
0.794,0.99,1.28,0.35,1.03,-0.08,0.36,
0.795,0.99,1.28,0.35,1.05,-0.07,0.37,
0.795,0.99,1.28,0.35,1.06,-0.07,0.38,
0.797,0.99,1.28,0.35,1.07,-0.08,0.39,
0.799,0.99,1.28,0.35,1.07,-0.08,0.39,
0.8,0.99,1.28,0.35,1.08,-0.09,0.40,
0.803,0.64,0.99,0.26,1.08,-0.09,0.40,
0.803,0.64,0.99,0.26,1.10,-0.10,0.41,
0.805,0.64,0.99,0.26,1.10,-0.11,0.41,
0.806,0.64,0.99,0.26,1.11,-0.12,0.41,
0.808,0.64,0.99,0.26,1.12,-0.14,0.42,
0.811,0.64,0.99,0.26,1.13,-0.15,0.42,
0.812,0.68,0.48,0.26,1.13,-0.15,0.42,
0.813,0.68,0.48,0.26,1.14,-0.15,0.43,
0.816,0.68,0.48,0.26,1.17,-0.16,0.44,
0.817,0.68,0.48,0.26,1.17,-0.16,0.44,
0.818,0.68,0.48,0.26,1.18,-0.16,0.44,
0.82,0.68,0.48,0.26,1.20,-0.16,0.45,
0.845,0.69,0.04,0.34,1.20,-0.16,0.45,
0.846,0.69,0.04,0.34,1.22,-0.16,0.46,
0.846,0.69,0.04,0.34,1.23,-0.17,0.46,
0.847,0.69,0.04,0.34,1.24,-0.17,0.46,
0.847,0.69,0.04,0.34,1.25,-0.18,0.47,
0.848,0.69,0.04,0.34,1.26,-0.18,0.47,
0.848,0.61,0.15,0.33,1.26,-0.18,0.47,
0.849,0.61,0.15,0.33,1.28,-0.19,0.48,
0.849,0.61,0.15,0.33,1.30,-0.20,0.49,
0.849,0.61,0.15,0.33,1.30,-0.21,0.50,
0.85,0.61,0.15,0.33,1.31,-0.21,0.51,
0.85,0.61,0.15,0.33,1.32,-0.21,0.52,
0.851,0.76,0.40,0.26,1.32,-0.21,0.52,
0.851,0.76,0.40,0.26,1.33,-0.21,0.52,
0.852,0.76,0.40,0.26,1.34,-0.20,0.53,
0.852,0.76,0.40,0.26,1.36,-0.19,0.54,
0.853,0.76,0.40,0.26,1.38,-0.17,0.55,
0.853,0.76,0.40,0.26,1.39,-0.15,0.56,
0.853,0.81,0.80,0.44,1.39,-0.15,0.56,
0.854,0.81,0.80,0.44,1.41,-0.14,0.57,
0.859,0.81,0.80,0.44,1.42,-0.12,0.57,
0.86,0.81,0.80,0.44,1.43,-0.10,0.58,
0.861,0.81,0.80,0.44,1.44,-0.08,0.58,
0.861,0.81,0.80,0.44,1.45,-0.07,0.58,
0.865,1.07,0.84,0.35,1.45,-0.07,0.58,
0.866,1.07,0.84,0.35,1.46,-0.06,0.58,
0.866,1.07,0.84,0.35,1.47,-0.05,0.57,
0.867,1.07,0.84,0.35,1.48,-0.04,0.57,
0.87,1.07,0.84,0.35,1.48,-0.04,0.56,
0.871,1.07,0.84,0.35,1.49,-0.03,0.56,
0.872,1.25,0.75,0.22,1.49,-0.03,0.56,
0.872,1.25,0.75,0.22,1.50,-0.03,0.55,
0.875,1.25,0.75,0.22,1.51,-0.03,0.55,
0.876,1.25,0.75,0.22,1.52,-0.03,0.54,
0.879,1.25,0.75,0.22,1.53,-0.03,0.54,
0.882,1.25,0.75,0.22,1.54,-0.04,0.53,
0.883,1.28,0.62,-0.05,1.54,-0.04,0.53,
0.883,1.28,0.62,-0.05,1.55,-0.04,0.53,
0.887,1.28,0.62,-0.05,1.55,-0.05,0.52,
0.888,1.28,0.62,-0.05,1.56,-0.05,0.52,
0.888,1.28,0.62,-0.05,1.57,-0.06,0.51,
0.892,1.28,0.62,-0.05,1.57,-0.08,0.51,
0.893,1.15,0.69,-0.47,1.57,-0.08,0.51,
0.893,1.15,0.69,-0.47,1.58,-0.09,0.50,
0.901,1.15,0.69,-0.47,1.58,-0.11,0.50,
0.902,1.15,0.69,-0.47,1.58,-0.13,0.50,
0.902,1.15,0.69,-0.47,1.59,-0.16,0.49,
0.902,1.15,0.69,-0.47,1.59,-0.19,0.49,
0.903,0.97,0.77,-0.80,1.59,-0.19,0.49,
0.903,0.97,0.77,-0.80,1.59,-0.22,0.49,
0.91,0.97,0.77,-0.80,1.60,-0.26,0.49,
0.91,0.97,0.77,-0.80,1.60,-0.28,0.49,
0.911,0.97,0.77,-0.80,1.60,-0.31,0.50,
0.911,0.97,0.77,-0.80,1.60,-0.33,0.50,
0.923,0.80,0.75,-1.13,1.60,-0.33,0.50,
0.924,0.80,0.75,-1.13,1.60,-0.35,0.51,
0.924,0.80,0.75,-1.13,1.60,-0.37,0.51,
0.925,0.80,0.75,-1.13,1.60,-0.39,0.52,
0.925,0.80,0.75,-1.13,1.59,-0.41,0.53,
0.925,0.80,0.75,-1.13,1.58,-0.42,0.53,
0.926,0.56,0.51,-1.48,1.58,-0.42,0.53,
0.926,0.56,0.51,-1.48,1.57,-0.44,0.54,
0.926,0.56,0.51,-1.48,1.56,-0.46,0.54,
0.927,0.56,0.51,-1.48,1.55,-0.48,0.56,
0.936,0.56,0.51,-1.48,1.54,-0.51,0.57,
0.937,0.56,0.51,-1.48,1.53,-0.53,0.58,
0.937,0.10,0.16,-1.71,1.53,-0.53,0.58,
0.937,0.10,0.16,-1.71,1.52,-0.56,0.60,
0.938,0.10,0.16,-1.71,1.51,-0.60,0.62,
0.938,0.10,0.16,-1.71,1.50,-0.63,0.64,
0.941,0.10,0.16,-1.71,1.50,-0.67,0.66,
0.942,0.10,0.16,-1.71,1.49,-0.70,0.69,
0.942,-0.40,0.05,-1.44,1.49,-0.70,0.69,
0.943,-0.40,0.05,-1.44,1.49,-0.74,0.72,
0.947,-0.40,0.05,-1.44,1.49,-0.77,0.74,
0.948,-0.40,0.05,-1.44,1.49,-0.80,0.77,
0.951,-0.40,0.05,-1.44,1.50,-0.83,0.79,
0.952,-0.40,0.05,-1.44,1.50,-0.86,0.82,
0.954,-0.62,0.24,-0.99,1.50,-0.86,0.82,
0.955,-0.62,0.24,-0.99,1.52,-0.88,0.85,
0.955,-0.62,0.24,-0.99,1.52,-0.91,0.87,
0.956,-0.62,0.24,-0.99,1.53,-0.93,0.89,
0.96,-0.62,0.24,-0.99,1.54,-0.95,0.91,
0.961,-0.62,0.24,-0.99,1.55,-0.96,0.93,
0.962,-0.40,0.56,-0.57,1.55,-0.96,0.93,
0.963,-0.40,0.56,-0.57,1.57,-0.97,0.95,
0.965,-0.40,0.56,-0.57,1.58,-0.98,0.97,
0.966,-0.40,0.56,-0.57,1.59,-0.98,0.98,
0.968,-0.40,0.56,-0.57,1.59,-0.98,0.99,
0.971,-0.40,0.56,-0.57,1.60,-0.97,1.00,
0.972,0.13,0.72,-0.54,1.60,-0.97,1.00,
0.973,0.13,0.72,-0.54,1.61,-0.96,1.00,
0.975,0.13,0.72,-0.54,1.61,-0.94,1.00,
0.977,0.13,0.72,-0.54,1.61,-0.92,1.00,
0.978,0.13,0.72,-0.54,1.61,-0.89,0.99,
0.98,0.13,0.72,-0.54,1.61,-0.86,0.98,
0.982,0.99,0.62,-0.85,1.61,-0.86,0.98,
0.983,0.99,0.62,-0.85,1.60,-0.83,0.97,
0.985,0.99,0.62,-0.85,1.59,-0.79,0.95,
0.986,0.99,0.62,-0.85,1.57,-0.76,0.94,
1.03,0.99,0.62,-0.85,1.56,-0.72,0.92,
1.031,0.99,0.62,-0.85,1.54,-0.68,0.89,
1.031,1.75,0.42,-1.49,1.54,-0.68,0.89,
1.032,1.75,0.42,-1.49,1.51,-0.65,0.87,
1.032,1.75,0.42,-1.49,1.48,-0.61,0.84,
1.033,1.75,0.42,-1.49,1.45,-0.57,0.81,
1.033,1.75,0.42,-1.49,1.42,-0.54,0.78,
1.033,1.75,0.42,-1.49,1.39,-0.50,0.75,
1.034,2.28,0.27,-1.99,1.39,-0.50,0.75,
1.035,2.28,0.27,-1.99,1.35,-0.46,0.72,
1.035,2.28,0.27,-1.99,1.32,-0.42,0.69,
1.035,2.28,0.27,-1.99,1.28,-0.38,0.66,
1.036,2.28,0.27,-1.99,1.25,-0.34,0.63,
1.036,2.28,0.27,-1.99,1.22,-0.30,0.60,
1.037,2.52,0.25,-2.23,1.22,-0.30,0.60,
1.037,2.52,0.25,-2.23,1.19,-0.26,0.57,
1.038,2.52,0.25,-2.23,1.15,-0.23,0.54,
1.038,2.52,0.25,-2.23,1.12,-0.20,0.51,
1.039,2.52,0.25,-2.23,1.09,-0.18,0.48,
1.039,2.52,0.25,-2.23,1.07,-0.16,0.46,
1.039,2.50,0.34,-2.14,1.07,-0.16,0.46,
1.04,2.50,0.34,-2.14,1.04,-0.15,0.43,
1.04,2.50,0.34,-2.14,1.01,-0.14,0.40,
1.041,2.50,0.34,-2.14,0.99,-0.14,0.37,
1.041,2.50,0.34,-2.14,0.97,-0.14,0.35,
1.042,2.50,0.34,-2.14,0.95,-0.14,0.32,
1.042,2.46,0.36,-1.88,0.95,-0.14,0.32,
1.043,2.46,0.36,-1.88,0.93,-0.15,0.30,
1.043,2.46,0.36,-1.88,0.91,-0.15,0.26,
1.044,2.46,0.36,-1.88,0.91,-0.16,0.25,
1.044,2.46,0.36,-1.88,0.90,-0.16,0.23,
1.044,2.46,0.36,-1.88,0.89,-0.17,0.21,
1.045,2.21,0.26,-1.40,0.89,-0.17,0.21,
1.045,2.21,0.26,-1.40,0.89,-0.17,0.20,
1.046,2.21,0.26,-1.40,0.88,-0.19,0.17,
1.046,2.21,0.26,-1.40,0.88,-0.19,0.17,
1.055,2.21,0.26,-1.40,0.87,-0.19,0.15,
1.056,2.21,0.26,-1.40,0.87,-0.20,0.14,
1.057,1.85,0.01,-1.17,0.87,-0.20,0.14,
1.057,1.85,0.01,-1.17,0.87,-0.21,0.13,
1.058,1.85,0.01,-1.17,0.86,-0.22,0.11,
1.058,1.85,0.01,-1.17,0.86,-0.23,0.11,
1.079,1.85,0.01,-1.17,0.85,-0.24,0.09,
1.08,1.85,0.01,-1.17,0.85,-0.24,0.08,
1.08,1.37,-0.04,-1.06,0.85,-0.24,0.08,
1.08,1.37,-0.04,-1.06,0.84,-0.25,0.08,
1.081,1.37,-0.04,-1.06,0.83,-0.25,0.07,
1.081,1.37,-0.04,-1.06,0.83,-0.25,0.07,
1.082,1.37,-0.04,-1.06,0.83,-0.25,0.06,
1.082,1.37,-0.04,-1.06,0.82,-0.23,0.06,
1.082,0.93,0.03,-0.96,0.82,-0.23,0.06,
1.083,0.93,0.03,-0.96,0.81,-0.22,0.07,
1.083,0.93,0.03,-0.96,0.80,-0.20,0.07,
1.083,0.93,0.03,-0.96,0.79,-0.19,0.07,
1.084,0.93,0.03,-0.96,0.78,-0.17,0.08,
1.084,0.93,0.03,-0.96,0.75,-0.14,0.08,
1.085,0.69,-0.15,-1.05,0.75,-0.14,0.08,
1.085,0.69,-0.15,-1.05,0.73,-0.11,0.07,
1.085,0.69,-0.15,-1.05,0.70,-0.06,0.07,
1.088,0.69,-0.15,-1.05,0.68,-0.04,0.07,
1.089,0.69,-0.15,-1.05,0.67,-0.01,0.07,
1.092,0.69,-0.15,-1.05,0.64,0.04,0.07,
1.093,0.69,-0.08,-1.12,0.64,0.04,0.07,
1.096,0.69,-0.08,-1.12,0.62,0.08,0.06,
1.098,0.69,-0.08,-1.12,0.59,0.14,0.07,
1.099,0.69,-0.08,-1.12,0.58,0.16,0.07,
1.1,0.69,-0.08,-1.12,0.57,0.19,0.07,
1.1,0.69,-0.08,-1.12,0.55,0.22,0.08,
1.102,0.52,0.19,-0.99,0.55,0.22,0.08,
1.103,0.52,0.19,-0.99,0.53,0.25,0.08,
1.105,0.52,0.19,-0.99,0.51,0.28,0.09,
1.106,0.52,0.19,-0.99,0.50,0.29,0.09,
1.109,0.52,0.19,-0.99,0.49,0.30,0.10,
1.126,0.52,0.19,-0.99,0.47,0.31,0.10,
1.127,0.30,0.35,-0.92,0.47,0.31,0.10,
1.127,0.30,0.35,-0.92,0.46,0.31,0.10,
1.128,0.30,0.35,-0.92,0.45,0.30,0.11,
1.128,0.30,0.35,-0.92,0.44,0.29,0.11,
1.128,0.30,0.35,-0.92,0.44,0.28,0.12,
1.129,0.30,0.35,-0.92,0.43,0.27,0.13,
1.129,0.06,0.48,-0.78,0.43,0.27,0.13,
1.129,0.06,0.48,-0.78,0.42,0.25,0.13,
1.13,0.06,0.48,-0.78,0.42,0.22,0.15,
1.13,0.06,0.48,-0.78,0.42,0.21,0.15,
1.13,0.06,0.48,-0.78,0.41,0.18,0.16,
1.131,0.06,0.48,-0.78,0.42,0.15,0.16,
1.133,0.02,0.62,-0.60,0.42,0.15,0.16,
1.134,0.02,0.62,-0.60,0.42,0.12,0.17,
1.136,0.02,0.62,-0.60,0.42,0.09,0.18,
1.137,0.02,0.62,-0.60,0.42,0.07,0.18,
1.138,0.02,0.62,-0.60,0.42,0.04,0.18,
1.14,0.02,0.62,-0.60,0.42,0.01,0.18,
1.144,0.07,0.59,-0.48,0.42,0.01,0.18,
1.147,0.07,0.59,-0.48,0.42,-0.03,0.18,
1.148,0.07,0.59,-0.48,0.43,-0.08,0.18,
1.149,0.07,0.59,-0.48,0.43,-0.09,0.18,
1.151,0.07,0.59,-0.48,0.44,-0.12,0.18,
1.151,0.07,0.59,-0.48,0.45,-0.15,0.17,
1.153,0.07,0.53,-0.08,0.45,-0.15,0.17,
1.154,0.07,0.53,-0.08,0.46,-0.17,0.17,
1.192,0.07,0.53,-0.08,0.49,-0.20,0.17,
1.193,0.07,0.53,-0.08,0.50,-0.21,0.17,
1.193,0.07,0.53,-0.08,0.52,-0.22,0.17,
1.194,0.07,0.53,-0.08,0.54,-0.24,0.17,
1.194,-0.01,0.40,0.53,0.54,-0.24,0.17,
1.195,-0.01,0.40,0.53,0.56,-0.25,0.17,
1.195,-0.01,0.40,0.53,0.59,-0.26,0.17,
1.196,-0.01,0.40,0.53,0.60,-0.26,0.18,
1.196,-0.01,0.40,0.53,0.62,-0.26,0.18,
1.196,-0.01,0.40,0.53,0.64,-0.26,0.18,
1.197,-0.29,0.23,1.00,0.64,-0.26,0.18,
1.197,-0.29,0.23,1.00,0.66,-0.25,0.19,
1.198,-0.29,0.23,1.00,0.69,-0.24,0.20,
1.198,-0.29,0.23,1.00,0.71,-0.23,0.20,
1.199,-0.29,0.23,1.00,0.73,-0.21,0.22,
1.199,-0.29,0.23,1.00,0.76,-0.19,0.23,
1.2,-0.49,0.12,1.55,0.76,-0.19,0.23,
1.2,-0.49,0.12,1.55,0.79,-0.17,0.24,
1.2,-0.49,0.12,1.55,0.84,-0.14,0.26,
1.201,-0.49,0.12,1.55,0.86,-0.13,0.27,
1.201,-0.49,0.12,1.55,0.90,-0.12,0.28,
1.202,-0.49,0.12,1.55,0.94,-0.11,0.29,
1.202,-0.59,0.02,2.10,0.94,-0.11,0.29,
1.203,-0.59,0.02,2.10,0.98,-0.10,0.30,
1.203,-0.59,0.02,2.10,1.04,-0.10,0.32,
1.203,-0.59,0.02,2.10,1.06,-0.09,0.32,
1.204,-0.59,0.02,2.10,1.11,-0.10,0.33,
1.204,-0.59,0.02,2.10,1.15,-0.11,0.34,
1.205,-0.36,0.02,2.26,1.15,-0.11,0.34,
1.205,-0.36,0.02,2.26,1.19,-0.12,0.35,
1.206,-0.36,0.02,2.26,1.25,-0.13,0.37,
1.206,-0.36,0.02,2.26,1.27,-0.13,0.37,
1.217,-0.36,0.02,2.26,1.32,-0.14,0.38,
1.218,-0.36,0.02,2.26,1.36,-0.15,0.39,
1.218,-0.10,0.01,2.11,1.36,-0.15,0.39,
1.219,-0.10,0.01,2.11,1.40,-0.15,0.39,
1.219,-0.10,0.01,2.11,1.47,-0.16,0.40,
1.22,-0.10,0.01,2.11,1.49,-0.16,0.41,
1.22,-0.10,0.01,2.11,1.52,-0.17,0.41,
1.223,-0.10,0.01,2.11,1.56,-0.18,0.42,
1.224,0.09,-0.14,1.59,1.56,-0.18,0.42,
1.225,0.09,-0.14,1.59,1.60,-0.19,0.43,
1.237,0.09,-0.14,1.59,1.65,-0.23,0.44,
1.238,0.09,-0.14,1.59,1.66,-0.24,0.44,
1.238,0.09,-0.14,1.59,1.69,-0.27,0.45,
1.239,0.09,-0.14,1.59,1.72,-0.30,0.45,
1.239,0.09,-0.27,0.97,1.72,-0.30,0.45,
1.24,0.09,-0.27,0.97,1.75,-0.33,0.46,
1.24,0.09,-0.27,0.97,1.79,-0.39,0.47,
1.24,0.09,-0.27,0.97,1.80,-0.41,0.48,
1.241,0.09,-0.27,0.97,1.82,-0.46,0.49,
1.241,0.09,-0.27,0.97,1.84,-0.50,0.50,
1.256,-0.21,-0.33,0.32,1.84,-0.50,0.50,
1.258,-0.21,-0.33,0.32,1.86,-0.54,0.51,
1.258,-0.21,-0.33,0.32,1.88,-0.61,0.54,
1.259,-0.21,-0.33,0.32,1.89,-0.64,0.55,
1.259,-0.21,-0.33,0.32,1.90,-0.68,0.57,
1.259,-0.21,-0.33,0.32,1.91,-0.72,0.59,
1.26,-0.76,-0.39,-0.31,1.91,-0.72,0.59,
1.26,-0.76,-0.39,-0.31,1.91,-0.76,0.62,
1.26,-0.76,-0.39,-0.31,1.91,-0.81,0.66,
1.261,-0.76,-0.39,-0.31,1.91,-0.82,0.67,
1.261,-0.76,-0.39,-0.31,1.91,-0.85,0.70,
1.261,-0.76,-0.39,-0.31,1.90,-0.88,0.73,
1.279,-1.29,-0.44,-0.88,1.90,-0.88,0.73,
1.28,-1.29,-0.44,-0.88,1.88,-0.90,0.76,
1.281,-1.29,-0.44,-0.88,1.85,-0.91,0.80,
1.281,-1.29,-0.44,-0.88,1.84,-0.91,0.82,
1.281,-1.29,-0.44,-0.88,1.81,-0.91,0.85,
1.282,-1.29,-0.44,-0.88,1.78,-0.91,0.87,
1.282,-1.56,-0.54,-1.61,1.78,-0.91,0.87,
1.282,-1.56,-0.54,-1.61,1.75,-0.90,0.91,
1.283,-1.56,-0.54,-1.61,1.70,-0.87,0.95,
1.283,-1.56,-0.54,-1.61,1.68,-0.85,0.96,
1.284,-1.56,-0.54,-1.61,1.64,-0.83,0.99,
1.284,-1.56,-0.54,-1.61,1.60,-0.80,1.01,
1.284,-1.65,-0.54,-1.96,1.60,-0.80,1.01,
1.285,-1.65,-0.54,-1.96,1.56,-0.76,1.04,
1.285,-1.65,-0.54,-1.96,1.50,-0.71,1.08,
1.288,-1.65,-0.54,-1.96,1.48,-0.69,1.09,
1.289,-1.65,-0.54,-1.96,1.43,-0.64,1.11,
1.29,-1.65,-0.54,-1.96,1.39,-0.59,1.14,
1.294,-1.68,-0.68,-2.05,1.39,-0.59,1.14,
1.297,-1.68,-0.68,-2.05,1.35,-0.54,1.17,
1.298,-1.68,-0.68,-2.05,1.29,-0.47,1.21,
1.298,-1.68,-0.68,-2.05,1.27,-0.45,1.22,
1.299,-1.68,-0.68,-2.05,1.22,-0.40,1.25,
1.301,-1.68,-0.68,-2.05,1.18,-0.35,1.28,
1.302,-1.96,-0.84,-1.99,1.18,-0.35,1.28,
1.304,-1.96,-0.84,-1.99,1.14,-0.31,1.32,
1.306,-1.96,-0.84,-1.99,1.08,-0.25,1.37,
1.307,-1.96,-0.84,-1.99,1.06,-0.23,1.38,
1.321,-1.96,-0.84,-1.99,1.02,-0.19,1.42,
1.322,-1.96,-0.84,-1.99,0.98,-0.16,1.45,
1.322,-2.28,-1.09,-1.91,0.98,-0.16,1.45,
1.323,-2.28,-1.09,-1.91,0.94,-0.14,1.48,
1.323,-2.28,-1.09,-1.91,0.89,-0.11,1.53,
1.323,-2.28,-1.09,-1.91,0.88,-0.10,1.54,
1.324,-2.28,-1.09,-1.91,0.84,-0.09,1.57,
1.324,-2.28,-1.09,-1.91,0.82,-0.08,1.60,
1.347,-2.29,-1.07,-1.70,0.82,-0.08,1.60,
1.348,-2.29,-1.07,-1.70,0.79,-0.09,1.63,
1.348,-2.29,-1.07,-1.70,0.77,-0.09,1.68,
1.349,-2.29,-1.07,-1.70,0.76,-0.10,1.69,
1.352,-2.29,-1.07,-1.70,0.75,-0.11,1.72,
1.353,-2.29,-1.07,-1.70,0.74,-0.13,1.75,
1.354,-2.47,-1.27,-1.33,0.74,-0.13,1.75,
1.354,-2.47,-1.27,-1.33,0.74,-0.14,1.78,
1.354,-2.47,-1.27,-1.33,0.72,-0.17,1.83,
1.355,-2.47,-1.27,-1.33,0.71,-0.18,1.84,
1.356,-2.47,-1.27,-1.33,0.70,-0.21,1.88,
1.356,-2.47,-1.27,-1.33,0.69,-0.24,1.91,
1.357,-2.96,-1.33,-1.31,0.69,-0.24,1.91,
1.357,-2.96,-1.33,-1.31,0.68,-0.27,1.95,
1.358,-2.96,-1.33,-1.31,0.66,-0.32,2.01,
1.358,-2.96,-1.33,-1.31,0.65,-0.34,2.03,
1.359,-2.96,-1.33,-1.31,0.64,-0.37,2.08,
1.359,-2.96,-1.33,-1.31,0.63,-0.41,2.12,
1.36,-3.38,-1.28,-1.25,0.63,-0.41,2.12,
1.36,-3.38,-1.28,-1.25,0.63,-0.45,2.17,
1.361,-3.38,-1.28,-1.25,0.62,-0.49,2.24,
1.361,-3.38,-1.28,-1.25,0.61,-0.51,2.26,
1.361,-3.38,-1.28,-1.25,0.59,-0.55,2.31,
1.362,-3.38,-1.28,-1.25,0.58,-0.58,2.36,
1.362,-3.98,-1.28,-1.31,0.58,-0.58,2.36,
1.363,-3.98,-1.28,-1.31,0.57,-0.62,2.42,
1.368,-3.98,-1.28,-1.31,0.54,-0.66,2.51,
1.369,-3.98,-1.28,-1.31,0.53,-0.67,2.55,
1.37,-3.98,-1.28,-1.31,0.51,-0.70,2.61,
1.37,-3.98,-1.28,-1.31,0.49,-0.72,2.68,
1.375,-4.45,-1.48,-1.55,0.49,-0.72,2.68,
1.376,-4.45,-1.48,-1.55,0.47,-0.73,2.75,
1.376,-4.45,-1.48,-1.55,0.43,-0.75,2.85,
1.377,-4.45,-1.48,-1.55,0.42,-0.75,2.89,
1.381,-4.45,-1.48,-1.55,0.40,-0.77,2.95,
1.383,-4.45,-1.48,-1.55,0.35,-0.82,2.99,
1.383,-3.85,-1.58,-1.97,0.35,-0.82,2.99,
1.384,-3.85,-1.58,-1.97,0.29,-0.87,3.03,
1.387,-3.85,-1.58,-1.97,0.20,-0.93,3.08,
1.388,-3.85,-1.58,-1.97,0.18,-0.94,3.10,
1.389,-3.85,-1.58,-1.97,0.13,-0.97,3.14,
1.39,-3.85,-1.58,-1.97,0.09,-0.99,3.17,
1.393,-2.56,-1.67,-2.83,0.09,-0.99,3.17,
1.394,-2.56,-1.67,-2.83,0.05,-1.00,3.21,
1.402,-2.56,-1.67,-2.83,0.02,-0.97,3.26,
1.404,-2.56,-1.67,-2.83,0.01,-0.96,3.26,
1.404,-2.56,-1.67,-2.83,0.02,-0.91,3.26,
1.405,-2.56,-1.67,-2.83,0.04,-0.85,3.24,
1.405,0.15,-1.61,-0.92,0.04,-0.85,3.24,
1.405,0.15,-1.61,-0.92,0.07,-0.79,3.23,
1.41,0.15,-1.61,-0.92,0.15,-0.64,3.19,
1.411,0.15,-1.61,-0.92,0.18,-0.58,3.19,
1.411,0.15,-1.61,-0.92,0.25,-0.45,3.19,
1.412,0.15,-1.61,-0.92,0.32,-0.33,3.19,
1.413,1.53,-1.92,2.48,0.32,-0.33,3.19,
1.417,1.53,-1.92,2.48,0.37,-0.22,3.19,
1.418,1.53,-1.92,2.48,0.40,-0.08,3.17,
1.431,1.53,-1.92,2.48,0.41,-0.03,3.16,
1.431,1.53,-1.92,2.48,0.41,0.07,3.13,
1.432,1.53,-1.92,2.48,0.41,0.17,3.10,
1.432,3.61,-1.29,2.60,0.41,0.17,3.10,
1.432,3.61,-1.29,2.60,0.39,0.26,3.05,
1.433,3.61,-1.29,2.60,0.36,0.41,2.96,
1.433,3.61,-1.29,2.60,0.35,0.47,2.93,
1.433,3.61,-1.29,2.60,0.31,0.57,2.87,
1.434,3.61,-1.29,2.60,0.25,0.68,2.80,
1.434,6.32,-0.35,0.92,0.25,0.68,2.80,
1.435,6.32,-0.35,0.92,0.17,0.80,2.72,
1.435,6.32,-0.35,0.92,0.03,1.00,2.60,
1.439,6.32,-0.35,0.92,-0.02,1.07,2.56,
1.44,6.32,-0.35,0.92,-0.13,1.21,2.48,
1.441,6.32,-0.35,0.92,-0.24,1.35,2.40,
1.457,7.50,-0.40,-1.90,-0.24,1.35,2.40,
1.458,7.50,-0.40,-1.90,-0.36,1.50,2.34,
1.458,7.50,-0.40,-1.90,-0.53,1.73,2.28,
1.459,7.50,-0.40,-1.90,-0.58,1.80,2.27,
1.459,7.50,-0.40,-1.90,-0.68,1.93,2.25,
1.46,7.50,-0.40,-1.90,-0.77,2.05,2.25,
1.46,5.51,0.31,-2.13,-0.77,2.05,2.25,
1.46,5.51,0.31,-2.13,-0.85,2.16,2.26,
1.461,5.51,0.31,-2.13,-0.95,2.26,2.29,
1.461,5.51,0.31,-2.13,-0.97,2.28,2.31,
1.461,5.51,0.31,-2.13,-1.02,2.30,2.35,
1.462,5.51,0.31,-2.13,-1.04,2.30,2.40,
1.462,2.93,0.79,-0.76,-1.04,2.30,2.40,
1.463,2.93,0.79,-0.76,-1.05,2.27,2.45,
1.467,2.93,0.79,-0.76,-1.06,2.20,2.53,
1.468,2.93,0.79,-0.76,-1.05,2.16,2.56,
1.468,2.93,0.79,-0.76,-1.03,2.09,2.62,
1.472,2.93,0.79,-0.76,-1.00,2.00,2.68,
1.473,0.69,0.29,0.41,-1.00,2.00,2.68,
1.473,0.69,0.29,0.41,-0.96,1.90,2.74,
1.479,0.69,0.29,0.41,-0.90,1.75,2.83,
1.481,0.69,0.29,0.41,-0.88,1.69,2.86,
1.483,0.69,0.29,0.41,-0.84,1.59,2.91,
1.485,0.69,0.29,0.41,-0.81,1.50,2.96,
1.485,-0.53,-0.44,0.35,-0.81,1.50,2.96,
1.486,-0.53,-0.44,0.35,-0.77,1.36,3.04,
1.488,-0.53,-0.44,0.35,-0.75,1.29,3.10,
1.489,-0.53,-0.44,0.35,-0.75,1.26,3.12,
1.519,-0.53,-0.44,0.35,-0.74,1.22,3.18,
1.52,-0.53,-0.44,0.35,-0.73,1.19,3.23,
1.52,-1.41,-0.57,-0.83,-0.73,1.19,3.23,
1.521,-1.41,-0.57,-0.83,-0.73,1.15,3.29,
1.521,-1.41,-0.57,-0.83,-0.73,1.10,3.38,
1.522,-1.41,-0.57,-0.83,-0.72,1.07,3.41,
1.522,-1.41,-0.57,-0.83,-0.71,1.02,3.47,
1.523,-1.41,-0.57,-0.83,-0.68,0.97,3.52,
1.523,-1.30,-0.51,0.04,-0.68,0.97,3.52,
1.524,-1.30,-0.51,0.04,-0.66,0.91,3.56,
1.524,-1.30,-0.51,0.04,-0.62,0.82,3.62,
1.525,-1.30,-0.51,0.04,-0.61,0.79,3.64,
1.525,-1.30,-0.51,0.04,-0.59,0.73,3.66,
1.526,-1.30,-0.51,0.04,-0.58,0.68,3.68,
1.526,-0.08,-1.14,0.85,-0.58,0.68,3.68,
1.527,-0.08,-1.14,0.85,-0.57,0.63,3.69,
1.527,-0.08,-1.14,0.85,-0.57,0.55,3.70,
1.528,-0.08,-1.14,0.85,-0.57,0.53,3.70,
1.528,-0.08,-1.14,0.85,-0.58,0.50,3.69,
1.529,-0.08,-1.14,0.85,-0.59,0.48,3.69,
1.529,0.56,-1.81,0.70,-0.59,0.48,3.69,
1.53,0.56,-1.81,0.70,-0.61,0.47,3.69,
1.53,0.56,-1.81,0.70,-0.63,0.45,3.68,
1.53,0.56,-1.81,0.70,-0.64,0.45,3.68,
1.531,0.56,-1.81,0.70,-0.67,0.46,3.68,
1.531,0.56,-1.81,0.70,-0.70,0.47,3.68,
1.532,-0.23,-1.93,0.22,-0.70,0.47,3.68,
1.532,-0.23,-1.93,0.22,-0.74,0.49,3.68,
1.537,-0.23,-1.93,0.22,-0.82,0.52,3.69,
1.538,-0.23,-1.93,0.22,-0.85,0.54,3.69,
1.539,-0.23,-1.93,0.22,-0.93,0.58,3.70,
1.542,-0.23,-1.93,0.22,-1.02,0.62,3.71,
1.543,-1.41,-1.89,-1.25,-1.02,0.62,3.71,
1.544,-1.41,-1.89,-1.25,-1.12,0.67,3.71,
1.549,-1.41,-1.89,-1.25,-1.27,0.73,3.73,
1.551,-1.41,-1.89,-1.25,-1.32,0.75,3.74,
1.551,-1.41,-1.89,-1.25,-1.41,0.81,3.77,
1.552,-1.41,-1.89,-1.25,-1.48,0.87,3.81,
1.552,-3.05,-2.22,-1.25,-1.48,0.87,3.81,
1.553,-3.05,-2.22,-1.25,-1.53,0.92,3.85,
1.557,-3.05,-2.22,-1.25,-1.57,0.96,3.92,
1.57,-3.05,-2.22,-1.25,-1.57,0.96,3.94,
1.572,-3.05,-2.22,-1.25,-1.56,0.92,3.97,
1.572,-3.05,-2.22,-1.25,-1.53,0.86,3.99,
1.572,-3.72,-1.37,1.84,-1.53,0.86,3.99,
1.573,-3.72,-1.37,1.84,-1.47,0.75,4.01,
1.573,-3.72,-1.37,1.84,-1.33,0.51,4.01,
1.574,-3.72,-1.37,1.84,-1.27,0.41,4.00,
1.574,-3.72,-1.37,1.84,-1.13,0.19,3.98,
1.574,-3.72,-1.37,1.84,-0.97,-0.06,3.95,
1.575,-1.83,0.37,5.83,-0.97,-0.06,3.95,
1.575,-1.83,0.37,5.83,-0.78,-0.33,3.92,
1.587,-1.83,0.37,5.83,-0.48,-0.78,3.86,
1.588,-1.83,0.37,5.83,-0.37,-0.94,3.84,
1.588,-1.83,0.37,5.83,-0.13,-1.27,3.79,
1.589,-1.83,0.37,5.83,0.10,-1.59,3.73,
1.589,0.42,1.67,8.00,0.10,-1.59,3.73,
1.589,0.42,1.67,8.00,0.33,-1.91,3.68,
1.59,0.42,1.67,8.00,0.66,-2.39,3.59,
1.59,0.42,1.67,8.00,0.77,-2.53,3.55,
1.591,0.42,1.67,8.00,0.97,-2.80,3.48,
1.591,0.42,1.67,8.00,1.14,-3.00,3.42,
1.6,1.87,1.55,6.51,1.14,-3.00,3.42,
1.601,1.87,1.55,6.51,1.29,-3.15,3.37,
1.602,1.87,1.55,6.51,1.46,-3.27,3.32,
1.602,1.87,1.55,6.51,1.50,-3.29,3.30,
1.602,1.87,1.55,6.51,1.54,-3.30,3.27,
1.603,1.87,1.55,6.51,1.54,-3.27,3.25,
1.603,0.35,0.29,1.27,1.54,-3.27,3.25,
1.604,0.35,0.29,1.27,1.50,-3.20,3.22,
1.607,0.35,0.29,1.27,1.37,-3.05,3.19,
1.608,0.35,0.29,1.27,1.32,-2.98,3.19,
1.608,0.35,0.29,1.27,1.19,-2.83,3.17,
1.611,0.35,0.29,1.27,1.05,-2.66,3.16,
1.612,0.18,-0.30,-4.57,1.05,-2.66,3.16,
1.613,0.18,-0.30,-4.57,0.89,-2.45,3.14,
1.615,0.18,-0.30,-4.57,0.66,-2.12,3.12,
1.616,0.18,-0.30,-4.57,0.59,-2.00,3.10,
1.618,0.18,-0.30,-4.57,0.44,-1.77,3.08,
1.62,0.18,-0.30,-4.57,0.31,-1.53,3.05,
1.622,0.84,0.29,-5.78,0.31,-1.53,3.05,
1.623,0.84,0.29,-5.78,0.18,-1.31,3.01,
1.625,0.84,0.29,-5.78,0.01,-1.02,2.95,
1.626,0.84,0.29,-5.78,-0.04,-0.93,2.93,
1.628,0.84,0.29,-5.78,-0.12,-0.78,2.88,
1.63,0.84,0.29,-5.78,-0.19,-0.66,2.83,
1.632,1.23,1.80,-3.49,-0.19,-0.66,2.83,
1.633,1.23,1.80,-3.49,-0.24,-0.57,2.79,
1.636,1.23,1.80,-3.49,-0.29,-0.50,2.71,
1.637,1.23,1.80,-3.49,-0.30,-0.50,2.68,
1.638,1.23,1.80,-3.49,-0.31,-0.50,2.61,
1.64,1.23,1.80,-3.49,-0.31,-0.52,2.53,
1.65,1.44,2.58,-0.78,-0.31,-0.52,2.53,
1.651,1.44,2.58,-0.78,-0.29,-0.54,2.45,
1.652,1.44,2.58,-0.78,-0.26,-0.57,2.33,
1.652,1.44,2.58,-0.78,-0.25,-0.59,2.29,
1.653,1.44,2.58,-0.78,-0.23,-0.62,2.21,
1.653,1.44,2.58,-0.78,-0.20,-0.66,2.13,
1.654,0.89,1.87,0.56,-0.20,-0.66,2.13,
1.654,0.89,1.87,0.56,-0.18,-0.71,2.05,
1.698,0.89,1.87,0.56,-0.15,-0.77,1.94,
1.7,0.89,1.87,0.56,-0.14,-0.80,1.91,
1.701,0.89,1.87,0.56,-0.13,-0.84,1.83,
1.702,0.89,1.87,0.56,-0.12,-0.86,1.76,
1.702,-0.21,1.31,0.47,-0.12,-0.86,1.76,
1.704,-0.21,1.31,0.47,-0.11,-0.87,1.70,
1.704,-0.21,1.31,0.47,-0.10,-0.88,1.60,
1.705,-0.21,1.31,0.47,-0.10,-0.87,1.57,
1.706,-0.21,1.31,0.47,-0.10,-0.86,1.52,
1.707,-0.21,1.31,0.47,-0.10,-0.83,1.47,
1.708,-0.78,1.12,0.15,-0.10,-0.83,1.47,
1.709,-0.78,1.12,0.15,-0.09,-0.80,1.42,
1.71,-0.78,1.12,0.15,-0.07,-0.70,1.31,
1.71,-0.78,1.12,0.15,-0.07,-0.70,1.31,
1.711,-0.78,1.12,0.15,-0.07,-0.70,1.31,
1.712,-0.78,1.12,0.15,-0.06,-0.68,1.27,
1.713,-1.34,0.04,-0.22,-0.06,-0.68,1.27,
1.713,-1.34,0.04,-0.22,-0.05,-0.67,1.24,
1.714,-1.34,0.04,-0.22,-0.02,-0.67,1.20,
1.715,-1.34,0.04,-0.22,-0.02,-0.68,1.19,
1.716,-1.34,0.04,-0.22,-0.01,-0.71,1.17,
1.716,-1.34,0.04,-0.22,0.01,-0.75,1.16,
1.717,-2.04,-1.06,-0.77,0.01,-0.75,1.16,
1.718,-2.04,-1.06,-0.77,0.02,-0.79,1.16,
1.718,-2.04,-1.06,-0.77,0.04,-0.85,1.17,
1.719,-2.04,-1.06,-0.77,0.04,-0.86,1.18,
1.72,-2.04,-1.06,-0.77,0.05,-0.90,1.19,
1.721,-2.04,-1.06,-0.77,0.06,-0.93,1.20,
1.721,-2.47,-1.01,-0.78,0.06,-0.93,1.20,
1.722,-2.47,-1.01,-0.78,0.07,-0.93,1.22,
1.723,-2.47,-1.01,-0.78,0.09,-0.94,1.24,
1.724,-2.47,-1.01,-0.78,0.10,-0.93,1.24,
1.724,-2.47,-1.01,-0.78,0.13,-0.91,1.24,
1.725,-2.47,-1.01,-0.78,0.15,-0.89,1.24,
1.726,-1.21,-0.86,0.03,0.15,-0.89,1.24,
1.727,-1.21,-0.86,0.03,0.17,-0.84,1.24,
1.727,-1.21,-0.86,0.03,0.22,-0.76,1.22,
1.728,-1.21,-0.86,0.03,0.23,-0.73,1.21,
1.729,-1.21,-0.86,0.03,0.26,-0.68,1.18,
1.729,-1.21,-0.86,0.03,0.27,-0.65,1.15,
1.73,0.53,-1.62,0.98,0.27,-0.65,1.15,
1.731,0.53,-1.62,0.98,0.29,-0.61,1.12,
1.732,0.53,-1.62,0.98,0.32,-0.57,1.08,
1.732,0.53,-1.62,0.98,0.33,-0.56,1.06,
1.733,0.53,-1.62,0.98,0.34,-0.53,1.02,
1.734,0.53,-1.62,0.98,0.36,-0.50,0.99,
1.734,1.94,-2.61,1.44,0.36,-0.50,0.99,
1.735,1.94,-2.61,1.44,0.37,-0.45,0.94,
1.736,1.94,-2.61,1.44,0.38,-0.36,0.87,
1.736,1.94,-2.61,1.44,0.39,-0.34,0.85,
1.74,1.94,-2.61,1.44,0.38,-0.30,0.80,
1.747,1.94,-2.61,1.44,0.37,-0.26,0.74,
1.748,2.88,-2.86,0.70,0.37,-0.26,0.74,
1.748,2.88,-2.86,0.70,0.36,-0.21,0.69,
1.749,2.88,-2.86,0.70,0.34,-0.14,0.60,
1.749,2.88,-2.86,0.70,0.33,-0.12,0.57,
1.75,2.88,-2.86,0.70,0.32,-0.09,0.51,
1.75,2.88,-2.86,0.70,0.30,-0.06,0.44,
1.753,2.81,-2.58,0.12,0.30,-0.06,0.44,
1.754,2.81,-2.58,0.12,0.29,-0.07,0.37,
1.756,2.81,-2.58,0.12,0.26,-0.10,0.27,
1.757,2.81,-2.58,0.12,0.26,-0.12,0.24,
1.761,2.81,-2.58,0.12,0.24,-0.16,0.17,
1.765,2.81,-2.58,0.12,0.25,-0.22,0.10,
1.766,2.60,-1.80,0.09,0.25,-0.22,0.10,
1.767,2.60,-1.80,0.09,0.25,-0.28,0.03,
1.768,2.60,-1.80,0.09,0.28,-0.38,-0.07,
1.769,2.60,-1.80,0.09,0.29,-0.42,-0.09,
1.769,2.60,-1.80,0.09,0.32,-0.51,-0.13,
1.77,2.60,-1.80,0.09,0.35,-0.62,-0.15,
1.772,1.79,-1.67,0.97,0.35,-0.62,-0.15,
1.774,1.79,-1.67,0.97,0.38,-0.74,-0.16,
1.779,1.79,-1.67,0.97,0.43,-0.92,-0.16,
1.782,1.79,-1.67,0.97,0.44,-0.97,-0.16,
1.783,1.79,-1.67,0.97,0.47,-1.06,-0.16,
1.784,1.79,-1.67,0.97,0.49,-1.12,-0.16,
1.784,1.54,-2.49,1.10,0.49,-1.12,-0.16,
1.785,1.54,-2.49,1.10,0.50,-1.15,-0.16,
1.786,1.54,-2.49,1.10,0.50,-1.12,-0.00,
1.787,1.54,-2.49,1.10,0.51,-1.09,0.15,
1.788,1.54,-2.49,1.10,0.49,-1.02,0.45,
1.8,1.54,-2.49,1.10,0.45,-0.97,0.68,
1.802,-3.56,1.73,0.03,0.45,-0.97,0.68,
1.803,-3.56,1.73,0.03,0.39,-0.90,0.88,
1.804,-3.56,1.73,0.03,0.29,-0.76,1.12,
1.805,-3.56,1.73,0.03,0.24,-0.71,1.19,
1.805,-3.56,1.73,0.03,0.15,-0.61,1.32,
1.806,-3.56,1.73,0.03,0.06,-0.51,1.43,
1.806,-3.26,1.95,-1.70,0.06,-0.51,1.43,
1.808,-3.26,1.95,-1.70,-0.04,-0.44,1.51,
1.809,-3.26,1.95,-1.70,-0.17,-0.36,1.61,
1.81,-3.26,1.95,-1.70,-0.22,-0.34,1.64,
1.811,-3.26,1.95,-1.70,-0.30,-0.30,1.69,
1.812,-3.26,1.95,-1.70,-0.38,-0.27,1.72,
1.813,-1.72,1.55,-1.69,-0.38,-0.27,1.72,
1.814,-1.72,1.55,-1.69,-0.45,-0.25,1.75,
1.816,-1.72,1.55,-1.69,-0.54,-0.27,1.79,
1.816,-1.72,1.55,-1.69,-0.57,-0.32,1.80,
1.833,-1.72,1.55,-1.69,-0.62,-0.37,1.81,
1.836,-1.72,1.55,-1.69,-0.65,-0.33,1.83,
1.875,-1.62,1.32,-0.41,-0.65,-0.33,1.83,
1.875,-1.62,1.32,-0.41,-0.68,-0.32,1.84,
1.876,-1.62,1.32,-0.41,-0.69,-0.28,1.84,
1.876,-1.62,1.32,-0.41,-0.70,-0.26,1.84,
1.876,-1.62,1.32,-0.41,-0.71,-0.21,1.84,
1.877,-1.62,1.32,-0.41,-0.72,-0.14,1.84,
1.877,-1.60,0.67,0.63,-0.72,-0.14,1.84,
1.878,-1.60,0.67,0.63,-0.72,-0.03,1.83,
1.878,-1.60,0.67,0.63,-0.73,0.05,1.81,
1.879,-1.60,0.67,0.63,-0.73,0.09,1.81,
1.879,-1.60,0.67,0.63,-0.73,0.15,1.79,
1.88,-1.60,0.67,0.63,-0.74,0.21,1.77,
1.88,-1.32,0.25,-0.00,-0.74,0.21,1.77,
1.88,-1.32,0.25,-0.00,-0.74,0.26,1.74,
1.881,-1.32,0.25,-0.00,-0.73,0.35,1.69,
1.881,-1.32,0.25,-0.00,-0.73,0.39,1.67,
1.882,-1.32,0.25,-0.00,-0.72,0.45,1.62,
1.882,-1.32,0.25,-0.00,-0.72,0.49,1.57,
1.883,-0.41,0.55,-0.39,-0.72,0.49,1.57,
1.883,-0.41,0.55,-0.39,-0.72,0.50,1.51,
1.883,-0.41,0.55,-0.39,-0.70,0.46,1.42,
1.884,-0.41,0.55,-0.39,-0.69,0.44,1.38,
1.884,-0.41,0.55,-0.39,-0.66,0.39,1.32,
1.885,-0.41,0.55,-0.39,-0.62,0.31,1.24,
1.885,0.10,0.29,0.32,-0.62,0.31,1.24,
1.886,0.10,0.29,0.32,-0.58,0.23,1.17,
1.886,0.10,0.29,0.32,-0.51,0.09,1.05,
1.887,0.10,0.29,0.32,-0.48,0.04,1.01,
1.887,0.10,0.29,0.32,-0.42,-0.06,0.94,
1.887,0.10,0.29,0.32,-0.35,-0.17,0.86,
1.888,0.36,-0.05,1.59,-0.35,-0.17,0.86,
1.888,0.36,-0.05,1.59,-0.29,-0.27,0.79,
1.889,0.36,-0.05,1.59,-0.19,-0.41,0.69,
1.889,0.36,-0.05,1.59,-0.15,-0.46,0.66,
1.89,0.36,-0.05,1.59,-0.08,-0.53,0.60,
1.89,0.36,-0.05,1.59,-0.01,-0.59,0.54,
1.89,0.50,0.16,2.05,-0.01,-0.59,0.54,
1.891,0.50,0.16,2.05,0.05,-0.64,0.49,
1.891,0.50,0.16,2.05,0.13,-0.71,0.43,
1.892,0.50,0.16,2.05,0.15,-0.73,0.41,
1.892,0.50,0.16,2.05,0.19,-0.76,0.39,
1.893,0.50,0.16,2.05,0.22,-0.77,0.38,
1.893,0.35,0.04,1.13,0.22,-0.77,0.38,
1.893,0.35,0.04,1.13,0.23,-0.77,0.39,
1.896,0.35,0.04,1.13,0.23,-0.75,0.43,
1.897,0.35,0.04,1.13,0.22,-0.73,0.45,
1.899,0.35,0.04,1.13,0.21,-0.68,0.50,
1.9,0.35,0.04,1.13,0.19,-0.62,0.55,
1.902,-0.27,-0.93,-0.24,0.19,-0.62,0.55,
1.903,-0.27,-0.93,-0.24,0.16,-0.54,0.60,
1.905,-0.27,-0.93,-0.24,0.11,-0.42,0.67,
1.907,-0.27,-0.93,-0.24,0.10,-0.38,0.69,
1.915,-0.27,-0.93,-0.24,0.06,-0.31,0.73,
1.916,-0.27,-0.93,-0.24,0.03,-0.24,0.75,
1.916,0.03,-1.47,-0.88,0.03,-0.24,0.75,
1.917,0.03,-1.47,-0.88,0.01,-0.17,0.77,
1.917,0.03,-1.47,-0.88,-0.03,-0.09,0.78,
1.921,0.03,-1.47,-0.88,-0.05,-0.07,0.78,
1.922,0.03,-1.47,-0.88,-0.07,-0.03,0.78,
1.925,0.03,-1.47,-0.88,-0.09,-0.00,0.76,
1.925,0.66,-1.80,-0.72,-0.09,-0.00,0.76,
1.926,0.66,-1.80,-0.72,-0.11,0.02,0.75,
1.931,0.66,-1.80,-0.72,-0.14,0.05,0.72,
1.932,0.66,-1.80,-0.72,-0.15,0.06,0.71,
1.932,0.66,-1.80,-0.72,-0.16,0.07,0.68,
1.932,0.66,-1.80,-0.72,-0.17,0.08,0.66,
1.933,0.89,-2.29,-0.32,-0.17,0.08,0.66,
1.933,0.89,-2.29,-0.32,-0.19,0.09,0.63,
1.935,0.89,-2.29,-0.32,-0.20,0.10,0.59,
1.938,0.89,-2.29,-0.32,-0.20,0.10,0.58,
1.961,0.89,-2.29,-0.32,-0.20,0.10,0.55,
1.962,0.89,-2.29,-0.32,-0.20,0.10,0.52,
1.963,0.98,-2.59,0.19,-0.20,0.10,0.52,
1.963,0.98,-2.59,0.19,-0.19,0.09,0.49,
1.963,0.98,-2.59,0.19,-0.17,0.07,0.44,
1.964,0.98,-2.59,0.19,-0.16,0.07,0.43,
1.964,0.98,-2.59,0.19,-0.14,0.05,0.40,
1.964,0.98,-2.59,0.19,-0.12,0.03,0.36,
1.965,0.94,-2.61,0.76,-0.12,0.03,0.36,
1.965,0.94,-2.61,0.76,-0.09,0.01,0.34,
1.965,0.94,-2.61,0.76,-0.05,-0.02,0.30,
1.965,0.94,-2.61,0.76,-0.04,-0.03,0.29,
1.966,0.94,-2.61,0.76,-0.02,-0.05,0.27,
1.966,0.94,-2.61,0.76,0.01,-0.07,0.25,
1.966,0.80,-2.64,0.87,0.01,-0.07,0.25,
1.967,0.80,-2.64,0.87,0.03,-0.09,0.24,
1.967,0.80,-2.64,0.87,0.06,-0.11,0.22,
1.967,0.80,-2.64,0.87,0.06,-0.11,0.21,
1.975,0.80,-2.64,0.87,0.08,-0.12,0.20,
1.976,0.80,-2.64,0.87,0.09,-0.13,0.19,
1.976,0.56,-2.68,0.58,0.09,-0.13,0.19,
1.977,0.56,-2.68,0.58,0.10,-0.13,0.18,
1.977,0.56,-2.68,0.58,0.12,-0.14,0.18,
1.977,0.56,-2.68,0.58,0.13,-0.14,0.18,
1.989,0.56,-2.68,0.58,0.14,-0.13,0.17,
1.99,0.56,-2.68,0.58,0.14,-0.12,0.17,
1.991,0.28,-2.57,0.26,0.14,-0.12,0.17,
1.991,0.28,-2.57,0.26,0.14,-0.11,0.17,
1.991,0.28,-2.57,0.26,0.14,-0.09,0.17,
1.992,0.28,-2.57,0.26,0.14,-0.09,0.17,
2.021,0.28,-2.57,0.26,0.14,-0.07,0.16,
2.021,0.28,-2.57,0.26,0.13,-0.05,0.16,
2.022,0.19,-2.49,0.05,0.13,-0.05,0.16,
2.022,0.19,-2.49,0.05,0.12,-0.03,0.16,
2.023,0.19,-2.49,0.05,0.10,0.00,0.15,
2.023,0.19,-2.49,0.05,0.09,0.01,0.15,
2.024,0.19,-2.49,0.05,0.07,0.03,0.14,
2.024,0.19,-2.49,0.05,0.06,0.05,0.14,
2.024,0.25,-2.61,-0.11,0.06,0.05,0.14,
2.025,0.25,-2.61,-0.11,0.04,0.07,0.13,
2.025,0.25,-2.61,-0.11,0.02,0.10,0.12,
2.026,0.25,-2.61,-0.11,0.01,0.11,0.11,
2.026,0.25,-2.61,-0.11,-0.00,0.13,0.11,
2.027,0.25,-2.61,-0.11,-0.02,0.14,0.10,
2.027,0.15,-2.72,-0.14,-0.02,0.14,0.10,
2.028,0.15,-2.72,-0.14,-0.03,0.15,0.10,
2.028,0.15,-2.72,-0.14,-0.04,0.17,0.09,
2.028,0.15,-2.72,-0.14,-0.04,0.17,0.09,
2.029,0.15,-2.72,-0.14,-0.05,0.17,0.08,
2.029,0.15,-2.72,-0.14,-0.06,0.17,0.07,
2.03,0.16,-2.56,-0.08,-0.06,0.17,0.07,
2.03,0.16,-2.56,-0.08,-0.07,0.16,0.06,
2.03,0.16,-2.56,-0.08,-0.07,0.15,0.06,
2.031,0.16,-2.56,-0.08,-0.07,0.15,0.06,
2.031,0.16,-2.56,-0.08,-0.06,0.15,0.06,
2.032,0.16,-2.56,-0.08,-0.06,0.15,0.06,
2.032,-0.00,-1.45,0.09,-0.06,0.15,0.06,
2.033,-0.00,-1.45,0.09,-0.05,0.15,0.06,
2.036,-0.00,-1.45,0.09,-0.05,0.16,0.06,
2.036,-0.00,-1.45,0.09,-0.05,0.16,0.06,
2.038,-0.00,-1.45,0.09,-0.05,0.16,0.05,
2.051,-0.00,-1.45,0.09,-0.05,0.16,0.04,
2.052,-0.03,-0.38,-0.01,-0.05,0.16,0.04,
2.052,-0.03,-0.38,-0.01,-0.06,0.17,0.04,
2.052,-0.03,-0.38,-0.01,-0.07,0.17,0.04,
2.053,-0.03,-0.38,-0.01,-0.07,0.17,0.04,
2.053,-0.03,-0.38,-0.01,-0.07,0.18,0.03,
2.053,-0.03,-0.38,-0.01,-0.07,0.18,0.03,
2.054,-0.03,-0.25,0.02,-0.07,0.18,0.03,
2.054,-0.03,-0.25,0.02,-0.07,0.18,0.03,
2.055,-0.03,-0.25,0.02,-0.07,0.19,0.03,
2.075,-0.03,-0.25,0.02,-0.07,0.19,0.03,
2.076,-0.03,-0.25,0.02,-0.07,0.19,0.03,
2.077,-0.03,-0.25,0.02,-0.07,0.19,0.04,
2.077,-0.00,-0.23,0.11,-0.07,0.19,0.04,
2.077,-0.00,-0.23,0.11,-0.07,0.19,0.04,
2.078,-0.00,-0.23,0.11,-0.07,0.20,0.04,
2.078,-0.00,-0.23,0.11,-0.06,0.20,0.04,
2.078,-0.00,-0.23,0.11,-0.06,0.19,0.04,
2.079,-0.00,-0.23,0.11,-0.06,0.19,0.04,
2.079,0.04,-0.37,0.14,-0.06,0.19,0.04,
2.079,0.04,-0.37,0.14,-0.05,0.19,0.04,
2.08,0.04,-0.37,0.14,-0.06,0.19,0.04,
2.08,0.04,-0.37,0.14,-0.06,0.19,0.04,
2.08,0.04,-0.37,0.14,-0.06,0.19,0.03,
2.101,0.04,-0.37,0.14,-0.07,0.19,0.03,
2.102,0.18,-0.42,0.03,-0.07,0.19,0.03,
2.102,0.18,-0.42,0.03,-0.07,0.19,0.03,
2.102,0.18,-0.42,0.03,-0.08,0.19,0.02,
2.103,0.18,-0.42,0.03,-0.08,0.18,0.02,
2.103,0.18,-0.42,0.03,-0.09,0.17,0.01,
2.103,0.18,-0.42,0.03,-0.11,0.14,0.01,
2.104,-0.14,0.94,-0.01,-0.11,0.14,0.01,
2.104,-0.14,0.94,-0.01,-0.11,0.12,0.08,
2.104,-0.14,0.94,-0.01,-0.16,0.04,0.33,
2.104,-0.14,0.94,-0.01,-0.18,0.00,0.42,
2.105,-0.14,0.94,-0.01,-0.24,-0.08,0.62,
2.105,-0.14,0.94,-0.01,-0.29,-0.12,0.78,
2.105,-2.47,7.12,-0.13,-0.29,-0.12,0.78,
2.106,-2.47,7.12,-0.13,-0.34,-0.13,0.89,
2.106,-2.47,7.12,-0.13,-0.41,-0.12,0.95,
2.107,-2.47,7.12,-0.13,-0.43,-0.12,0.95,
2.112,-2.47,7.12,-0.13,-0.47,-0.09,0.93,
2.113,-2.47,7.12,-0.13,-0.49,-0.06,0.89,
2.113,-0.47,5.86,-0.41,-0.49,-0.06,0.89,
2.114,-0.47,5.86,-0.41,-0.49,-0.03,0.85,
2.116,-0.47,5.86,-0.41,-0.48,0.02,0.75,
2.117,-0.47,5.86,-0.41,-0.47,0.04,0.71,
2.118,-0.47,5.86,-0.41,-0.43,0.07,0.64,
2.12,-0.47,5.86,-0.41,-0.39,0.11,0.57,
2.126,0.33,3.41,-0.33,-0.39,0.11,0.57,
2.128,0.33,3.41,-0.33,-0.35,0.14,0.50,
2.129,0.33,3.41,-0.33,-0.27,0.19,0.42,
2.13,0.33,3.41,-0.33,-0.25,0.20,0.40,
2.131,0.33,3.41,-0.33,-0.22,0.22,0.37,
2.133,0.33,3.41,-0.33,-0.19,0.23,0.35,
2.134,0.57,2.24,-0.10,-0.19,0.23,0.35,
2.135,0.57,2.24,-0.10,-0.17,0.23,0.33,
2.136,0.57,2.24,-0.10,-0.14,0.24,0.31,
2.137,0.57,2.24,-0.10,-0.13,0.24,0.31,
2.138,0.57,2.24,-0.10,-0.11,0.23,0.30,
2.143,0.57,2.24,-0.10,-0.11,0.19,0.31,
2.145,0.77,0.97,0.00,-0.11,0.19,0.31,
2.146,0.77,0.97,0.00,-0.11,0.14,0.31,
2.148,0.77,0.97,0.00,-0.10,0.06,0.31,
2.149,0.77,0.97,0.00,-0.10,0.03,0.31,
2.15,0.77,0.97,0.00,-0.10,-0.02,0.31,
2.152,0.77,0.97,0.00,-0.09,-0.05,0.32,
2.153,0.72,-0.97,-0.45,-0.09,-0.05,0.32,
2.154,0.72,-0.97,-0.45,-0.09,-0.06,0.32,
2.193,0.72,-0.97,-0.45,-0.07,-0.05,0.31,
2.193,0.72,-0.97,-0.45,-0.07,-0.04,0.30,
2.193,0.72,-0.97,-0.45,-0.06,-0.04,0.29,
2.194,0.72,-0.97,-0.45,-0.06,-0.05,0.26,
2.194,1.01,-0.26,0.05,-0.06,-0.05,0.26,
2.195,1.01,-0.26,0.05,-0.06,-0.07,0.24,
2.195,1.01,-0.26,0.05,-0.07,-0.14,0.22,
2.196,1.01,-0.26,0.05,-0.08,-0.16,0.21,
2.196,1.01,-0.26,0.05,-0.09,-0.21,0.19,
2.196,1.01,-0.26,0.05,-0.09,-0.25,0.17,
2.197,0.92,-0.32,0.24,-0.09,-0.25,0.17,
2.197,0.92,-0.32,0.24,-0.09,-0.28,0.15,
2.198,0.92,-0.32,0.24,-0.07,-0.34,0.13,
2.198,0.92,-0.32,0.24,-0.07,-0.37,0.12,
2.199,0.92,-0.32,0.24,-0.06,-0.42,0.09,
2.199,0.92,-0.32,0.24,-0.05,-0.48,0.07,
2.199,0.64,0.14,0.42,-0.05,-0.48,0.07,
2.2,0.64,0.14,0.42,-0.01,-0.57,0.05,
2.2,0.64,0.14,0.42,0.02,-0.62,0.04,
2.201,0.64,0.14,0.42,0.03,-0.65,0.04,
2.201,0.64,0.14,0.42,0.05,-0.69,0.03,
2.202,0.64,0.14,0.42,0.08,-0.73,0.03,
2.202,0.18,0.30,0.44,0.08,-0.73,0.03,
2.202,0.18,0.30,0.44,0.10,-0.77,0.03,
2.203,0.18,0.30,0.44,0.14,-0.80,0.04,
2.203,0.18,0.30,0.44,0.15,-0.81,0.05,
2.204,0.18,0.30,0.44,0.16,-0.82,0.07,
2.204,0.18,0.30,0.44,0.17,-0.83,0.09,
2.204,-0.33,0.33,0.17,0.17,-0.83,0.09,
2.205,-0.33,0.33,0.17,0.18,-0.82,0.11,
2.205,-0.33,0.33,0.17,0.18,-0.81,0.16,
2.214,-0.33,0.33,0.17,0.18,-0.81,0.17,
2.215,-0.33,0.33,0.17,0.19,-0.80,0.21,
2.215,-0.33,0.33,0.17,0.19,-0.80,0.23,
2.215,-0.40,0.46,0.04,0.19,-0.80,0.23,
2.216,-0.40,0.46,0.04,0.21,-0.80,0.26,
2.216,-0.40,0.46,0.04,0.23,-0.82,0.30,
2.216,-0.40,0.46,0.04,0.24,-0.83,0.32,
2.218,-0.40,0.46,0.04,0.26,-0.85,0.35,
2.22,-0.40,0.46,0.04,0.29,-0.88,0.38,
2.222,-0.34,1.14,0.60,0.29,-0.88,0.38,
2.222,-0.34,1.14,0.60,0.30,-0.91,0.41,
2.226,-0.34,1.14,0.60,0.31,-0.98,0.46,
2.227,-0.34,1.14,0.60,0.32,-1.01,0.48,
2.23,-0.34,1.14,0.60,0.30,-1.10,0.52,
2.231,-0.34,1.14,0.60,0.29,-1.20,0.57,
2.232,-0.64,1.36,0.52,0.29,-1.20,0.57,
2.232,-0.64,1.36,0.52,0.27,-1.31,0.62,
2.236,-0.64,1.36,0.52,0.19,-1.53,0.72,
2.237,-0.64,1.36,0.52,0.17,-1.62,0.76,
2.238,-0.64,1.36,0.52,0.10,-1.84,0.84,
2.245,-0.64,1.36,0.52,0.01,-2.10,0.91,
2.246,-1.15,0.79,0.36,0.01,-2.10,0.91,
2.246,-1.15,0.79,0.36,-0.11,-2.40,0.99,
2.247,-1.15,0.79,0.36,-0.25,-2.80,1.11,
2.247,-1.15,0.79,0.36,-0.29,-2.90,1.14,
2.248,-1.15,0.79,0.36,-0.32,-3.06,1.19,
2.254,-1.15,0.79,0.36,-0.34,-3.15,1.22,
2.255,-0.77,-0.23,1.30,-0.34,-3.15,1.22,
2.255,-0.77,-0.23,1.30,-0.32,-3.19,1.26,
2.264,-0.77,-0.23,1.30,-0.28,-3.16,1.29,
2.265,-0.77,-0.23,1.30,-0.26,-3.12,1.29,
2.265,-0.77,-0.23,1.30,-0.21,-3.00,1.28,
2.266,-0.77,-0.23,1.30,-0.14,-2.84,1.27,
2.266,-0.23,-0.70,-0.03,-0.14,-2.84,1.27,
2.267,-0.23,-0.70,-0.03,-0.07,-2.66,1.25,
2.267,-0.23,-0.70,-0.03,0.05,-2.35,1.21,
2.267,-0.23,-0.70,-0.03,0.09,-2.23,1.20,
2.268,-0.23,-0.70,-0.03,0.17,-2.00,1.17,
2.272,-0.23,-0.70,-0.03,0.24,-1.78,1.15,
2.273,-0.29,-0.74,-1.69,0.24,-1.78,1.15,
2.274,-0.29,-0.74,-1.69,0.30,-1.57,1.13,
2.278,-0.29,-0.74,-1.69,0.38,-1.28,1.10,
2.279,-0.29,-0.74,-1.69,0.40,-1.20,1.09,
2.279,-0.29,-0.74,-1.69,0.42,-1.04,1.07,
2.282,-0.29,-0.74,-1.69,0.43,-0.92,1.05,
2.283,-0.41,-0.64,-1.98,0.43,-0.92,1.05,
2.284,-0.41,-0.64,-1.98,0.42,-0.83,1.03,
2.287,-0.41,-0.64,-1.98,0.39,-0.75,1.01,
2.288,-0.41,-0.64,-1.98,0.37,-0.74,1.00,
2.288,-0.41,-0.64,-1.98,0.33,-0.72,0.98,
2.292,-0.41,-0.64,-1.98,0.28,-0.73,0.96,
2.293,-0.40,-0.27,-1.30,0.28,-0.73,0.96,
2.293,-0.40,-0.27,-1.30,0.24,-0.75,0.94,
2.297,-0.40,-0.27,-1.30,0.19,-0.79,0.92,
2.297,-0.40,-0.27,-1.30,0.16,-0.81,0.91,
2.3,-0.40,-0.27,-1.30,0.14,-0.84,0.89,
2.301,-0.40,-0.27,-1.30,0.11,-0.88,0.87,
2.304,-0.46,0.32,-0.25,0.11,-0.88,0.87,
2.305,-0.46,0.32,-0.25,0.09,-0.92,0.85,
2.305,-0.46,0.32,-0.25,0.07,-0.96,0.81,
2.307,-0.46,0.32,-0.25,0.06,-0.98,0.80,
2.309,-0.46,0.32,-0.25,0.07,-1.00,0.78,
2.312,-0.46,0.32,-0.25,0.07,-1.02,0.76,
2.312,-0.42,0.96,0.41,0.07,-1.02,0.76,
2.312,-0.42,0.96,0.41,0.08,-1.04,0.74,
2.315,-0.42,0.96,0.41,0.09,-1.07,0.71,
2.316,-0.42,0.96,0.41,0.10,-1.08,0.70,
2.318,-0.42,0.96,0.41,0.12,-1.10,0.68,
2.32,-0.42,0.96,0.41,0.13,-1.12,0.67,
2.353,-0.45,1.17,0.61,0.13,-1.12,0.67,
2.356,-0.45,1.17,0.61,0.15,-1.12,0.66,
2.356,-0.45,1.17,0.61,0.15,-1.14,0.65,
2.356,-0.45,1.17,0.61,0.16,-1.14,0.65,
2.357,-0.45,1.17,0.61,0.17,-1.14,0.65,
2.357,-0.45,1.17,0.61,0.17,-1.14,0.65,
2.358,-0.49,0.88,0.47,0.17,-1.14,0.65,
2.358,-0.49,0.88,0.47,0.16,-1.13,0.66,
2.359,-0.49,0.88,0.47,0.18,-1.09,0.66,
2.359,-0.49,0.88,0.47,0.18,-1.08,0.67,
2.36,-0.49,0.88,0.47,0.18,-1.05,0.67,
2.36,-0.49,0.88,0.47,0.19,-1.03,0.68,
2.36,-0.51,0.34,0.32,0.19,-1.03,0.68,
2.361,-0.51,0.34,0.32,0.22,-1.00,0.69,
2.361,-0.51,0.34,0.32,0.26,-0.97,0.71,
2.362,-0.51,0.34,0.32,0.27,-0.96,0.72,
2.362,-0.51,0.34,0.32,0.30,-0.95,0.74,
2.363,-0.51,0.34,0.32,0.33,-0.92,0.75,
2.363,-0.46,-0.75,0.31,0.33,-0.92,0.75,
2.363,-0.46,-0.75,0.31,0.36,-0.89,0.78,
2.364,-0.46,-0.75,0.31,0.41,-0.85,0.81,
2.364,-0.46,-0.75,0.31,0.43,-0.84,0.82,
2.365,-0.46,-0.75,0.31,0.45,-0.81,0.85,
2.369,-0.46,-0.75,0.31,0.47,-0.79,0.88,
2.369,-0.28,-1.93,0.05,0.47,-0.79,0.88,
2.37,-0.28,-1.93,0.05,0.50,-0.76,0.91,
2.37,-0.28,-1.93,0.05,0.53,-0.71,0.96,
2.371,-0.28,-1.93,0.05,0.54,-0.70,0.99,
2.371,-0.28,-1.93,0.05,0.52,-0.72,1.12,
2.372,-0.28,-1.93,0.05,0.48,-0.78,1.33,
2.372,-1.63,-10.81,-1.46,0.48,-0.78,1.33,
2.373,-1.63,-10.81,-1.46,0.43,-0.84,1.58,
2.379,-1.63,-10.81,-1.46,0.37,-0.86,1.99,
2.38,-1.63,-10.81,-1.46,0.36,-0.85,2.12,
2.38,-1.63,-10.81,-1.46,0.35,-0.78,2.36,
2.381,-1.63,-10.81,-1.46,0.35,-0.69,2.58,
2.382,-0.19,-15.83,-1.66,0.35,-0.69,2.58,
2.383,-0.19,-15.83,-1.66,0.38,-0.60,2.78,
2.388,-0.19,-15.83,-1.66,0.42,-0.50,3.03,
2.405,-0.19,-15.83,-1.66,0.43,-0.48,3.09,
2.406,-0.19,-15.83,-1.66,0.43,-0.46,3.15,
2.407,-0.19,-15.83,-1.66,0.42,-0.45,3.13,
2.407,5.44,-2.37,-0.08,0.42,-0.45,3.13,
2.408,5.44,-2.37,-0.08,0.40,-0.46,3.05,
2.408,5.44,-2.37,-0.08,0.33,-0.48,2.83,
2.408,5.44,-2.37,-0.08,0.31,-0.48,2.75,
2.409,5.44,-2.37,-0.08,0.26,-0.50,2.58,
2.409,5.44,-2.37,-0.08,0.22,-0.49,2.42,
2.409,6.28,-2.07,-0.33,0.22,-0.49,2.42,
2.41,6.28,-2.07,-0.33,0.19,-0.49,2.28,
2.41,6.28,-2.07,-0.33,0.18,-0.48,2.15,
2.415,6.28,-2.07,-0.33,0.18,-0.48,2.13,
2.416,6.28,-2.07,-0.33,0.19,-0.48,2.09,
2.416,6.28,-2.07,-0.33,0.22,-0.48,2.08,
2.416,1.31,-0.90,0.58,0.22,-0.48,2.08,
2.417,1.31,-0.90,0.58,0.25,-0.48,2.07,
2.417,1.31,-0.90,0.58,0.30,-0.50,2.07,
2.417,1.31,-0.90,0.58,0.32,-0.51,2.07,
2.421,1.31,-0.90,0.58,0.35,-0.51,2.06,
2.421,1.31,-0.90,0.58,0.38,-0.50,2.04,
2.424,-1.04,-0.62,0.59,0.38,-0.50,2.04,
2.424,-1.04,-0.62,0.59,0.41,-0.50,2.03,
2.425,-1.04,-0.62,0.59,0.45,-0.46,2.00,
2.426,-1.04,-0.62,0.59,0.46,-0.44,1.99,
2.428,-1.04,-0.62,0.59,0.47,-0.38,1.97,
2.43,-1.04,-0.62,0.59,0.48,-0.31,1.94,
2.432,-1.13,-0.09,-0.20,0.48,-0.31,1.94,
2.432,-1.13,-0.09,-0.20,0.49,-0.22,1.91,
2.435,-1.13,-0.09,-0.20,0.49,-0.07,1.86,
2.436,-1.13,-0.09,-0.20,0.49,-0.01,1.85,
2.438,-1.13,-0.09,-0.20,0.49,0.11,1.82,
2.44,-1.13,-0.09,-0.20,0.49,0.22,1.78,
2.442,-0.51,0.14,-0.60,0.49,0.22,1.78,
2.443,-0.51,0.14,-0.60,0.49,0.33,1.75,
2.445,-0.51,0.14,-0.60,0.49,0.47,1.70,
2.446,-0.51,0.14,-0.60,0.50,0.52,1.69,
2.448,-0.51,0.14,-0.60,0.50,0.60,1.66,
2.45,-0.51,0.14,-0.60,0.50,0.67,1.62,
2.452,-0.25,0.02,-0.52,0.50,0.67,1.62,
2.452,-0.25,0.02,-0.52,0.50,0.73,1.58,
2.459,-0.25,0.02,-0.52,0.49,0.81,1.52,
2.459,-0.25,0.02,-0.52,0.48,0.83,1.50,
2.461,-0.25,0.02,-0.52,0.46,0.88,1.44,
2.461,-0.25,0.02,-0.52,0.43,0.92,1.37,
2.463,0.17,-0.24,-0.65,0.43,0.92,1.37,
2.464,0.17,-0.24,-0.65,0.40,0.94,1.26,
2.465,0.17,-0.24,-0.65,0.35,0.92,1.08,
2.467,0.17,-0.24,-0.65,0.33,0.91,1.03,
2.469,0.17,-0.24,-0.65,0.29,0.86,0.93,
2.47,0.17,-0.24,-0.65,0.25,0.81,0.85,
2.473,-0.46,0.23,-0.30,0.25,0.81,0.85,
2.474,-0.46,0.23,-0.30,0.23,0.75,0.79,
2.475,-0.46,0.23,-0.30,0.19,0.64,0.70,
2.476,-0.46,0.23,-0.30,0.17,0.61,0.67,
2.479,-0.46,0.23,-0.30,0.15,0.54,0.63,
2.48,-0.46,0.23,-0.30,0.13,0.47,0.59,
2.482,-1.37,-0.03,0.37,0.13,0.47,0.59,
2.483,-1.37,-0.03,0.37,0.11,0.41,0.54,
2.485,-1.37,-0.03,0.37,0.09,0.32,0.49,
2.486,-1.37,-0.03,0.37,0.08,0.30,0.47,
2.512,-1.37,-0.03,0.37,0.07,0.26,0.43,
2.512,-1.37,-0.03,0.37,0.07,0.22,0.40,
2.513,-1.01,-1.58,0.61,0.07,0.22,0.40,
2.513,-1.01,-1.58,0.61,0.06,0.19,0.36,
2.514,-1.01,-1.58,0.61,0.04,0.15,0.29,
2.514,-1.01,-1.58,0.61,0.03,0.13,0.27,
2.514,-1.01,-1.58,0.61,0.01,0.11,0.22,
2.515,-1.01,-1.58,0.61,-0.01,0.08,0.16,
2.515,0.16,-2.88,0.29,-0.01,0.08,0.16,
2.516,0.16,-2.88,0.29,-0.04,0.05,0.12,
2.517,0.16,-2.88,0.29,-0.09,0.01,0.05,
2.517,0.16,-2.88,0.29,-0.11,-0.01,0.03,
2.517,0.16,-2.88,0.29,-0.14,-0.06,-0.02,
2.518,0.16,-2.88,0.29,-0.18,-0.10,-0.06,
2.518,0.64,-2.44,0.15,-0.18,-0.10,-0.06,
2.519,0.64,-2.44,0.15,-0.21,-0.15,-0.09,
2.519,0.64,-2.44,0.15,-0.24,-0.21,-0.12,
2.52,0.64,-2.44,0.15,-0.24,-0.22,-0.12,
2.52,0.64,-2.44,0.15,-0.26,-0.23,-0.13,
2.52,0.64,-2.44,0.15,-0.28,-0.24,-0.16,
2.524,0.44,-1.37,0.21,-0.28,-0.24,-0.16,
2.524,0.44,-1.37,0.21,-0.29,-0.24,-0.20,
2.525,0.44,-1.37,0.21,-0.28,-0.24,-0.27,
2.526,0.44,-1.37,0.21,-0.27,-0.24,-0.28,
2.528,0.44,-1.37,0.21,-0.24,-0.24,-0.30,
2.53,0.44,-1.37,0.21,-0.21,-0.24,-0.32,
2.532,-0.40,-2.91,0.45,-0.21,-0.24,-0.32,
2.533,-0.40,-2.91,0.45,-0.16,-0.25,-0.34,
2.536,-0.40,-2.91,0.45,-0.14,-0.26,-0.35,
2.536,-0.40,-2.91,0.45,-0.14,-0.26,-0.36,
2.549,-0.40,-2.91,0.45,-0.12,-0.25,-0.37,
2.549,-0.40,-2.91,0.45,-0.12,-0.25,-0.38,
2.55,-0.23,-1.56,-0.03,-0.12,-0.25,-0.38,
2.55,-0.23,-1.56,-0.03,-0.13,-0.25,-0.39,
2.551,-0.23,-1.56,-0.03,-0.15,-0.24,-0.39,
2.551,-0.23,-1.56,-0.03,-0.16,-0.23,-0.38,
2.551,-0.23,-1.56,-0.03,-0.17,-0.23,-0.37,
2.552,-0.23,-1.56,-0.03,-0.17,-0.22,-0.35,
2.553,-0.44,-0.10,-0.28,-0.17,-0.22,-0.35,
2.554,-0.44,-0.10,-0.28,-0.18,-0.22,-0.33,
2.557,-0.44,-0.10,-0.28,-0.17,-0.22,-0.29,
2.557,-0.44,-0.10,-0.28,-0.17,-0.21,-0.27,
2.559,-0.44,-0.10,-0.28,-0.16,-0.21,-0.24,
2.562,-0.44,-0.10,-0.28,-0.16,-0.19,-0.20,
2.565,-0.65,1.02,-0.25,-0.16,-0.19,-0.20,
2.566,-0.65,1.02,-0.25,-0.17,-0.17,-0.16,
2.566,-0.65,1.02,-0.25,-0.26,-0.14,-0.07,
2.566,-0.65,1.02,-0.25,-0.28,-0.13,-0.05,
2.568,-0.65,1.02,-0.25,-0.30,-0.10,-0.00,
2.57,-0.65,1.02,-0.25,-0.32,-0.07,0.03,
2.572,-0.58,1.18,-0.51,-0.32,-0.07,0.03,
2.573,-0.58,1.18,-0.51,-0.31,-0.05,0.06,
2.575,-0.58,1.18,-0.51,-0.29,-0.03,0.07,
2.579,-0.58,1.18,-0.51,-0.28,-0.02,0.07,
2.58,-0.58,1.18,-0.51,-0.26,0.00,0.06,
2.58,-0.58,1.18,-0.51,-0.22,0.02,0.05,
2.582,0.15,-0.14,-0.04,-0.22,0.02,0.05,
2.583,0.15,-0.14,-0.04,-0.19,0.04,0.03,
2.586,0.15,-0.14,-0.04,-0.13,0.06,0.02,
2.586,0.15,-0.14,-0.04,-0.11,0.07,0.01,
2.589,0.15,-0.14,-0.04,-0.07,0.09,0.01,
2.59,0.15,-0.14,-0.04,-0.04,0.10,0.00,
2.593,0.13,-0.73,-0.14,-0.04,0.10,0.00,
2.594,0.13,-0.73,-0.14,-0.01,0.12,0.01,
2.595,0.13,-0.73,-0.14,0.03,0.13,0.01,
2.596,0.13,-0.73,-0.14,0.05,0.13,0.01,
2.598,0.13,-0.73,-0.14,0.07,0.14,0.01,
2.6,0.13,-0.73,-0.14,0.08,0.14,0.01,
2.602,0.06,-0.81,-0.18,0.08,0.14,0.01,
2.603,0.06,-0.81,-0.18,0.09,0.15,0.01,
2.608,0.06,-0.81,-0.18,0.10,0.14,0.01,
2.609,0.06,-0.81,-0.18,0.10,0.14,0.01,
2.609,0.06,-0.81,-0.18,0.10,0.13,-0.00,
2.611,0.06,-0.81,-0.18,0.10,0.12,-0.00,
2.613,0.21,-0.79,-0.15,0.10,0.12,-0.00,
2.613,0.21,-0.79,-0.15,0.10,0.11,-0.01,
2.618,0.21,-0.79,-0.15,0.09,0.09,-0.01,
2.618,0.21,-0.79,-0.15,0.09,0.08,-0.00,
2.619,0.21,-0.79,-0.15,0.08,0.08,0.00,
2.622,0.21,-0.79,-0.15,0.07,0.07,0.01,
2.623,0.05,-0.30,-0.19,0.07,0.07,0.01,
2.623,0.05,-0.30,-0.19,0.07,0.07,0.01,
2.635,0.05,-0.30,-0.19,0.05,0.07,0.01,
2.636,0.05,-0.30,-0.19,0.05,0.07,0.01,
2.637,0.05,-0.30,-0.19,0.04,0.08,0.01,
2.637,0.05,-0.30,-0.19,0.04,0.07,0.01,
2.637,0.13,-0.79,-0.16,0.04,0.07,0.01,
2.638,0.13,-0.79,-0.16,0.04,0.06,0.00,
2.638,0.13,-0.79,-0.16,0.06,0.05,-0.01,
2.638,0.13,-0.79,-0.16,0.07,0.04,-0.02,
2.639,0.13,-0.79,-0.16,0.08,0.03,-0.03,
2.647,0.13,-0.79,-0.16,0.09,0.02,-0.03,
2.648,0.21,-1.04,0.13,0.09,0.02,-0.03,
2.649,0.21,-1.04,0.13,0.10,0.02,-0.03,
2.649,0.21,-1.04,0.13,0.11,0.02,-0.02,
2.649,0.21,-1.04,0.13,0.11,0.02,-0.02,
2.65,0.21,-1.04,0.13,0.10,0.04,-0.02,
2.651,0.21,-1.04,0.13,0.09,0.05,-0.01,
2.652,0.26,-0.32,-0.36,0.09,0.05,-0.01,
2.653,0.26,-0.32,-0.36,0.07,0.06,-0.01,
2.678,0.26,-0.32,-0.36,0.05,0.08,0.00,
2.678,0.26,-0.32,-0.36,0.04,0.08,0.00,
2.679,0.26,-0.32,-0.36,0.03,0.08,0.01,
2.679,0.26,-0.32,-0.36,0.01,0.07,0.01,
2.68,0.30,-0.38,-0.39,0.01,0.07,0.01,
2.68,0.30,-0.38,-0.39,0.01,0.06,0.02,
2.68,0.30,-0.38,-0.39,0.01,0.01,0.03,
2.681,0.30,-0.38,-0.39,0.02,-0.00,0.03,
2.681,0.30,-0.38,-0.39,0.03,-0.03,0.03,
2.682,0.30,-0.38,-0.39,0.05,-0.05,0.03,
2.682,0.38,-0.85,0.02,0.05,-0.05,0.03,
2.683,0.38,-0.85,0.02,0.05,-0.05,0.02,
2.683,0.38,-0.85,0.02,0.06,-0.01,-0.01,
2.684,0.38,-0.85,0.02,0.06,-0.01,-0.01,
2.684,0.38,-0.85,0.02,0.06,-0.01,-0.01,
2.684,0.38,-0.85,0.02,0.06,0.01,-0.01,
2.685,0.40,-0.80,-0.26,0.06,0.01,-0.01,
2.685,0.40,-0.80,-0.26,0.06,0.01,-0.01,
2.686,0.40,-0.80,-0.26,0.06,0.01,-0.02,
2.686,0.40,-0.80,-0.26,0.06,0.01,-0.02,
2.691,0.40,-0.80,-0.26,0.05,0.01,-0.01,
2.692,0.40,-0.80,-0.26,0.05,0.00,-0.02,
2.693,0.31,-0.58,-0.21,0.05,0.00,-0.02,
2.693,0.31,-0.58,-0.21,0.05,-0.00,-0.02,
2.695,0.31,-0.58,-0.21,0.04,-0.01,-0.02,
2.696,0.31,-0.58,-0.21,0.04,-0.01,-0.02,
2.698,0.31,-0.58,-0.21,0.03,-0.02,-0.01,
2.7,0.31,-0.58,-0.21,0.03,-0.02,-0.01,
2.702,0.12,-0.41,-0.15,0.03,-0.02,-0.01,
2.702,0.12,-0.41,-0.15,0.02,-0.02,-0.00,
2.705,0.12,-0.41,-0.15,0.01,-0.03,-0.01,
2.709,0.12,-0.41,-0.15,0.01,-0.03,-0.01,
2.71,0.12,-0.41,-0.15,0.01,-0.03,-0.01,
2.71,0.12,-0.41,-0.15,0.01,-0.04,-0.01,
2.713,0.13,-0.46,-0.09,0.01,-0.04,-0.01,
2.713,0.13,-0.46,-0.09,0.00,-0.04,-0.01,
2.715,0.13,-0.46,-0.09,0.01,-0.05,-0.01,
2.716,0.13,-0.46,-0.09,0.01,-0.05,-0.01,
2.718,0.13,-0.46,-0.09,0.01,-0.06,-0.01,
2.72,0.13,-0.46,-0.09,0.02,-0.06,-0.01,
2.724,0.10,-0.56,0.05,0.02,-0.06,-0.01,
2.725,0.10,-0.56,0.05,0.02,-0.06,-0.01,
2.725,0.10,-0.56,0.05,0.03,-0.04,-0.01,
2.726,0.10,-0.56,0.05,0.03,-0.04,-0.01,
2.73,0.10,-0.56,0.05,0.03,-0.03,-0.02,
2.733,0.10,-0.56,0.05,0.02,-0.03,-0.02,
2.735,0.10,-0.44,0.09,0.02,-0.03,-0.02,
2.735,0.10,-0.44,0.09,0.02,-0.03,-0.02,
2.736,0.10,-0.44,0.09,0.02,-0.03,-0.03,
2.736,0.10,-0.44,0.09,0.02,-0.03,-0.03,
2.74,0.10,-0.44,0.09,0.02,-0.03,-0.03,
2.741,0.10,-0.44,0.09,0.01,-0.02,-0.02,
2.742,-0.14,-0.47,0.23,0.01,-0.02,-0.02,
2.743,-0.14,-0.47,0.23,0.02,-0.02,-0.02,
2.745,-0.14,-0.47,0.23,0.04,-0.04,-0.02,
2.746,-0.14,-0.47,0.23,0.04,-0.05,-0.03,
2.748,-0.14,-0.47,0.23,0.05,-0.05,-0.03,
2.75,-0.14,-0.47,0.23,0.05,-0.04,-0.03,
2.752,-0.22,-0.53,0.37,0.05,-0.04,-0.03,
2.758,-0.22,-0.53,0.37,0.05,-0.02,-0.02,
2.759,-0.22,-0.53,0.37,0.03,0.00,-0.01,
2.759,-0.22,-0.53,0.37,0.03,0.01,-0.01,
2.759,-0.22,-0.53,0.37,0.01,0.01,-0.02,
2.762,-0.22,-0.53,0.37,0.00,0.01,-0.02,
2.77,-0.11,-0.27,0.25,0.00,0.01,-0.02,
2.771,-0.11,-0.27,0.25,-0.00,-0.00,-0.02,
2.771,-0.11,-0.27,0.25,0.00,-0.02,-0.02,
2.772,-0.11,-0.27,0.25,0.01,-0.02,-0.02,
2.772,-0.11,-0.27,0.25,0.01,-0.03,-0.02,
2.772,-0.11,-0.27,0.25,0.02,-0.04,-0.02,
2.782,-0.24,-0.24,0.44,0.02,-0.04,-0.02,
2.783,-0.24,-0.24,0.44,0.01,-0.04,-0.02,
2.783,-0.24,-0.24,0.44,0.02,-0.03,-0.03,
2.784,-0.24,-0.24,0.44,0.01,-0.03,-0.03,
2.784,-0.24,-0.24,0.44,0.02,-0.03,-0.02,
2.784,-0.24,-0.24,0.44,0.02,-0.03,-0.02,
2.784,-0.36,-0.22,0.32,0.02,-0.03,-0.02,
2.785,-0.36,-0.22,0.32,0.02,-0.03,-0.02,
2.785,-0.36,-0.22,0.32,0.03,-0.03,-0.01,
2.788,-0.36,-0.22,0.32,0.03,-0.03,-0.01,
2.789,-0.36,-0.22,0.32,0.04,-0.02,-0.03,
2.791,-0.36,-0.22,0.32,0.05,-0.01,-0.03,
2.792,-0.21,-0.49,0.28,0.05,-0.01,-0.03,
2.793,-0.21,-0.49,0.28,0.05,0.00,-0.03,
2.795,-0.21,-0.49,0.28,0.06,0.02,-0.02,
2.8,-0.21,-0.49,0.28,0.07,0.02,-0.02,
2.801,-0.21,-0.49,0.28,0.07,0.04,-0.03,
2.801,-0.21,-0.49,0.28,0.06,0.05,-0.04,
2.803,-0.19,-0.56,0.15,0.06,0.05,-0.04,
2.803,-0.19,-0.56,0.15,0.06,0.05,-0.04,
2.805,-0.19,-0.56,0.15,0.06,0.06,-0.04,
2.807,-0.19,-0.56,0.15,0.05,0.06,-0.04,
2.808,-0.19,-0.56,0.15,0.05,0.06,-0.03,
2.81,-0.19,-0.56,0.15,0.05,0.06,-0.03,
2.812,-0.28,-0.40,0.25,0.05,0.06,-0.03,
2.813,-0.28,-0.40,0.25,0.04,0.06,-0.03,
2.815,-0.28,-0.40,0.25,0.04,0.06,-0.03,
2.816,-0.28,-0.40,0.25,0.04,0.06,-0.03,
2.818,-0.28,-0.40,0.25,0.03,0.07,-0.03,
2.82,-0.28,-0.40,0.25,0.04,0.07,-0.03,
2.845,-0.26,-0.37,0.30,0.04,0.07,-0.03,
2.846,-0.26,-0.37,0.30,0.03,0.07,-0.03,
2.846,-0.26,-0.37,0.30,0.03,0.08,-0.03,
2.847,-0.26,-0.37,0.30,0.03,0.08,-0.03,
2.847,-0.26,-0.37,0.30,0.04,0.08,-0.03,
2.848,-0.26,-0.37,0.30,0.04,0.08,-0.03,
2.848,-0.26,-0.38,0.38,0.04,0.08,-0.03,
2.848,-0.26,-0.38,0.38,0.04,0.09,-0.03,
2.849,-0.26,-0.38,0.38,0.04,0.09,-0.03,
2.849,-0.26,-0.38,0.38,0.04,0.09,-0.03,
2.85,-0.26,-0.38,0.38,0.04,0.10,-0.03,
2.85,-0.26,-0.38,0.38,0.04,0.10,-0.02,
2.851,-0.26,-0.33,0.40,0.04,0.10,-0.02,
2.851,-0.26,-0.33,0.40,0.04,0.10,-0.02,
2.852,-0.26,-0.33,0.40,0.04,0.10,-0.02,
2.852,-0.26,-0.33,0.40,0.04,0.10,-0.02,
2.852,-0.26,-0.33,0.40,0.04,0.10,-0.02,
2.853,-0.26,-0.33,0.40,0.04,0.11,-0.02,
2.853,-0.19,-0.25,0.42,0.04,0.11,-0.02,
2.854,-0.19,-0.25,0.42,0.04,0.10,-0.02,
2.856,-0.19,-0.25,0.42,0.04,0.10,-0.02,
2.857,-0.19,-0.25,0.42,0.04,0.10,-0.02,
2.858,-0.19,-0.25,0.42,0.04,0.10,-0.02,
2.86,-0.19,-0.25,0.42,0.04,0.10,-0.02,
2.862,-0.19,-0.21,0.47,0.04,0.10,-0.02,
2.863,-0.19,-0.21,0.47,0.04,0.10,-0.01,
2.865,-0.19,-0.21,0.47,0.04,0.09,-0.01,
2.866,-0.19,-0.21,0.47,0.04,0.09,-0.01,
2.868,-0.19,-0.21,0.47,0.04,0.09,-0.01,
2.87,-0.19,-0.21,0.47,0.04,0.09,-0.01,
2.872,-0.10,-0.32,0.51,0.04,0.09,-0.01,
2.873,-0.10,-0.32,0.51,0.04,0.08,-0.00,
2.875,-0.10,-0.32,0.51,0.04,0.08,-0.00,
2.877,-0.10,-0.32,0.51,0.04,0.08,-0.00,
2.878,-0.10,-0.32,0.51,0.04,0.08,0.00,
2.88,-0.10,-0.32,0.51,0.04,0.07,0.00,
2.884,0.03,-0.36,0.45,0.04,0.07,0.00,
2.885,0.03,-0.36,0.45,0.05,0.07,0.00,
2.885,0.03,-0.36,0.45,0.05,0.07,0.01,
2.886,0.03,-0.36,0.45,0.05,0.07,0.01,
2.896,0.03,-0.36,0.45,0.05,0.07,0.01,
2.897,0.03,-0.36,0.45,0.05,0.06,0.01,
2.897,0.18,-0.36,0.40,0.05,0.06,0.01,
2.898,0.18,-0.36,0.40,0.05,0.06,0.01,
2.898,0.18,-0.36,0.40,0.05,0.06,0.01,
2.898,0.18,-0.36,0.40,0.05,0.06,0.01,
2.899,0.18,-0.36,0.40,0.05,0.06,0.01,
2.901,0.18,-0.36,0.40,0.05,0.06,0.01,
2.902,0.27,-0.38,0.33,0.05,0.06,0.01,
2.902,0.27,-0.38,0.33,0.04,0.05,0.01,
2.912,0.27,-0.38,0.33,0.05,0.05,0.01,
2.913,0.27,-0.38,0.33,0.05,0.05,0.01,
2.913,0.27,-0.38,0.33,0.05,0.05,0.01,
2.913,0.27,-0.38,0.33,0.05,0.05,0.01,
2.914,0.44,-0.46,0.26,0.05,0.05,0.01,
2.914,0.44,-0.46,0.26,0.04,0.05,0.01,
2.915,0.44,-0.46,0.26,0.05,0.06,0.01,
2.917,0.44,-0.46,0.26,0.05,0.06,0.02,
2.92,0.44,-0.46,0.26,0.06,0.07,0.03,
2.921,0.44,-0.46,0.26,0.07,0.07,0.03,
2.925,0.29,-0.76,0.28,0.07,0.07,0.03,
2.926,0.29,-0.76,0.28,0.07,0.07,0.03,
2.931,0.29,-0.76,0.28,0.07,0.07,0.02,
2.931,0.29,-0.76,0.28,0.07,0.07,0.01,
2.932,0.29,-0.76,0.28,0.06,0.07,-0.00,
2.932,0.29,-0.76,0.28,0.06,0.06,-0.01,
2.932,0.76,-0.81,0.20,0.06,0.06,-0.01,
2.942,0.76,-0.81,0.20,0.05,0.07,-0.02,
2.943,0.76,-0.81,0.20,0.04,0.07,-0.03,
2.943,0.76,-0.81,0.20,0.04,0.06,-0.03,
2.944,0.76,-0.81,0.20,0.04,0.05,-0.03,
2.944,0.76,-0.81,0.20,0.04,0.04,-0.02,
2.944,0.30,-0.76,0.28,0.04,0.04,-0.02,
2.945,0.30,-0.76,0.28,0.03,0.03,-0.03,
2.945,0.30,-0.76,0.28,0.02,0.01,-0.04,
2.948,0.30,-0.76,0.28,0.00,-0.00,-0.05,
2.949,0.30,-0.76,0.28,-0.00,-0.01,-0.06,
2.952,0.30,-0.76,0.28,-0.01,-0.02,-0.05,
2.953,0.52,0.64,0.17,-0.01,-0.02,-0.05,
2.953,0.52,0.64,0.17,-0.01,-0.04,-0.03,
2.957,0.52,0.64,0.17,-0.01,-0.04,-0.01,
2.958,0.52,0.64,0.17,-0.01,-0.05,0.00,
2.959,0.52,0.64,0.17,-0.00,-0.06,0.01,
2.961,0.52,0.64,0.17,0.01,-0.06,0.01,
2.964,0.09,-0.45,0.22,0.01,-0.06,0.01,
2.965,0.09,-0.45,0.22,0.02,-0.06,0.01,
2.965,0.09,-0.45,0.22,0.03,-0.06,0.01,
2.968,0.09,-0.45,0.22,0.03,-0.05,-0.00,
2.969,0.09,-0.45,0.22,0.04,-0.05,-0.01,
2.973,0.09,-0.45,0.22,0.04,-0.05,-0.01,
2.974,0.61,-1.16,0.30,0.04,-0.05,-0.01,
2.974,0.61,-1.16,0.30,0.04,-0.05,-0.02,
2.977,0.61,-1.16,0.30,0.04,-0.06,-0.02,
2.978,0.61,-1.16,0.30,0.04,-0.07,-0.03,
2.978,0.61,-1.16,0.30,0.04,-0.07,-0.03,
2.982,0.61,-1.16,0.30,0.03,-0.08,-0.03,
2.983,0.67,-0.54,0.27,0.03,-0.08,-0.03,
2.983,0.67,-0.54,0.27,0.03,-0.09,-0.03,
2.987,0.67,-0.54,0.27,0.01,-0.10,-0.03,
2.988,0.67,-0.54,0.27,-0.00,-0.11,-0.03,
3.014,0.67,-0.54,0.27,-0.01,-0.12,-0.03,
3.015,0.67,-0.54,0.27,-0.02,-0.13,-0.03,
3.016,0.49,-0.33,0.23,-0.02,-0.13,-0.03,
3.016,0.49,-0.33,0.23,-0.03,-0.14,-0.02,
3.016,0.49,-0.33,0.23,-0.03,-0.15,-0.02,
3.017,0.49,-0.33,0.23,-0.03,-0.16,-0.02,
3.017,0.49,-0.33,0.23,-0.03,-0.16,-0.02,
3.018,0.49,-0.33,0.23,-0.03,-0.16,-0.02,
3.018,0.44,-0.51,0.23,-0.03,-0.16,-0.02,
3.019,0.44,-0.51,0.23,-0.03,-0.17,-0.02,
3.019,0.44,-0.51,0.23,-0.02,-0.18,-0.02,
3.019,0.44,-0.51,0.23,-0.02,-0.18,-0.03,
3.02,0.44,-0.51,0.23,-0.02,-0.18,-0.03,
3.02,0.44,-0.51,0.23,-0.02,-0.18,-0.03,
3.021,0.54,-0.72,0.19,-0.02,-0.18,-0.03,
3.021,0.54,-0.72,0.19,-0.03,-0.18,-0.03,
3.022,0.54,-0.72,0.19,-0.02,-0.18,-0.03,
3.022,0.54,-0.72,0.19,-0.02,-0.18,-0.03,
3.022,0.54,-0.72,0.19,-0.02,-0.18,-0.03,
3.023,0.54,-0.72,0.19,-0.03,-0.18,-0.03,
3.023,0.38,-0.70,0.21,-0.03,-0.18,-0.03,
3.024,0.38,-0.70,0.21,-0.03,-0.19,-0.03,
3.026,0.38,-0.70,0.21,-0.03,-0.19,-0.03,
3.027,0.38,-0.70,0.21,-0.03,-0.20,-0.03,
3.028,0.38,-0.70,0.21,-0.03,-0.20,-0.03,
3.031,0.38,-0.70,0.21,-0.03,-0.20,-0.03,
3.032,0.26,-0.62,0.13,-0.03,-0.20,-0.03,
3.033,0.26,-0.62,0.13,-0.04,-0.20,-0.03,
3.035,0.26,-0.62,0.13,-0.04,-0.20,-0.02,
3.038,0.26,-0.62,0.13,-0.03,-0.20,-0.02,
3.038,0.26,-0.62,0.13,-0.03,-0.20,-0.01,
3.04,0.26,-0.62,0.13,-0.04,-0.20,-0.01,
3.043,0.14,-0.53,0.07,-0.04,-0.20,-0.01,
3.044,0.14,-0.53,0.07,-0.04,-0.19,-0.01,
3.045,0.14,-0.53,0.07,-0.04,-0.19,0.00,
3.046,0.14,-0.53,0.07,-0.04,-0.18,0.00,
3.048,0.14,-0.53,0.07,-0.04,-0.18,0.00,
3.05,0.14,-0.53,0.07,-0.04,-0.17,0.00,
3.052,0.19,-0.56,0.08,-0.04,-0.17,0.00,
3.052,0.19,-0.56,0.08,-0.04,-0.17,0.00,
3.058,0.19,-0.56,0.08,-0.04,-0.16,0.00,
3.059,0.19,-0.56,0.08,-0.04,-0.15,0.00,
3.06,0.19,-0.56,0.08,-0.04,-0.15,0.00,
3.06,0.19,-0.56,0.08,-0.04,-0.14,0.00,
3.064,0.12,-0.57,0.14,-0.04,-0.14,0.00,
3.065,0.12,-0.57,0.14,-0.04,-0.14,0.00,
3.065,0.12,-0.57,0.14,-0.04,-0.14,-0.00,
3.066,0.12,-0.57,0.14,-0.03,-0.14,-0.00,
3.07,0.12,-0.57,0.14,-0.04,-0.14,-0.00,
3.071,0.12,-0.57,0.14,-0.04,-0.14,-0.01,
3.093,0.03,-0.51,0.19,-0.04,-0.14,-0.01,
3.094,0.03,-0.51,0.19,-0.04,-0.14,-0.01,
3.095,0.03,-0.51,0.19,-0.04,-0.14,-0.01,
3.095,0.03,-0.51,0.19,-0.04,-0.14,-0.01,
3.095,0.03,-0.51,0.19,-0.04,-0.14,-0.01,
3.096,0.03,-0.51,0.19,-0.04,-0.15,-0.01,
3.096,-0.09,-0.43,0.22,-0.04,-0.15,-0.01,
3.096,-0.09,-0.43,0.22,-0.04,-0.15,-0.01,
3.097,-0.09,-0.43,0.22,-0.03,-0.16,-0.01,
3.097,-0.09,-0.43,0.22,-0.03,-0.16,-0.01,
3.097,-0.09,-0.43,0.22,-0.04,-0.17,-0.01,
3.097,-0.09,-0.43,0.22,-0.03,-0.17,-0.01,
3.098,-0.06,-0.41,0.21,-0.03,-0.17,-0.01,
3.098,-0.06,-0.41,0.21,-0.03,-0.17,-0.01,
3.098,-0.06,-0.41,0.21,-0.03,-0.18,-0.01,
3.099,-0.06,-0.41,0.21,-0.03,-0.18,-0.01,
3.099,-0.06,-0.41,0.21,-0.03,-0.18,-0.01,
3.104,-0.06,-0.41,0.21,-0.03,-0.18,-0.01,
3.104,-0.05,-0.43,0.20,-0.03,-0.18,-0.01,
3.105,-0.05,-0.43,0.20,-0.03,-0.18,-0.01,
3.109,-0.05,-0.43,0.20,-0.02,-0.18,-0.01,
3.11,-0.05,-0.43,0.20,-0.02,-0.18,-0.01,
3.115,-0.05,-0.43,0.20,-0.02,-0.18,-0.01,
3.116,-0.05,-0.43,0.20,-0.02,-0.18,-0.01,
3.116,0.01,-0.47,0.19,-0.02,-0.18,-0.01,
3.117,0.01,-0.47,0.19,-0.02,-0.18,-0.02,
3.117,0.01,-0.47,0.19,-0.02,-0.18,-0.02,
3.117,0.01,-0.47,0.19,-0.02,-0.18,-0.02,
3.121,0.01,-0.47,0.19,-0.02,-0.18,-0.02,
3.122,0.01,-0.47,0.19,-0.02,-0.18,-0.02,
3.126,0.02,-0.48,0.16,-0.02,-0.18,-0.02,
3.127,0.02,-0.48,0.16,-0.02,-0.18,-0.02,
3.127,0.02,-0.48,0.16,-0.03,-0.18,-0.02,
3.127,0.02,-0.48,0.16,-0.03,-0.18,-0.01,
3.13,0.02,-0.48,0.16,-0.03,-0.18,-0.01,
3.131,0.02,-0.48,0.16,-0.03,-0.19,-0.01,
3.134,0.06,-0.47,0.10,-0.03,-0.19,-0.01,
3.135,0.06,-0.47,0.10,-0.03,-0.19,-0.01,
3.135,0.06,-0.47,0.10,-0.03,-0.19,-0.00,
3.14,0.06,-0.47,0.10,-0.04,-0.18,0.01,
3.141,0.06,-0.47,0.10,-0.04,-0.18,0.01,
3.141,0.06,-0.47,0.10,-0.05,-0.18,0.01,
3.144,0.15,-0.32,0.03,-0.05,-0.18,0.01,
3.145,0.15,-0.32,0.03,-0.05,-0.18,0.01,
3.147,0.15,-0.32,0.03,-0.06,-0.18,0.02,
3.147,0.15,-0.32,0.03,-0.06,-0.18,0.02,
3.148,0.15,-0.32,0.03,-0.07,-0.18,0.02,
3.151,0.15,-0.32,0.03,-0.07,-0.17,0.02,
3.17,0.23,-0.34,0.03,-0.07,-0.17,0.02,
3.17,0.23,-0.34,0.03,-0.07,-0.17,0.01,
3.2,0.23,-0.34,0.03,-0.08,-0.17,0.01,
3.201,0.23,-0.34,0.03,-0.08,-0.17,-0.00,
3.201,0.23,-0.34,0.03,-0.08,-0.16,-0.00,
3.201,0.23,-0.34,0.03,-0.08,-0.16,-0.01,
3.202,0.15,-0.51,0.09,-0.08,-0.16,-0.01,
3.202,0.15,-0.51,0.09,-0.08,-0.16,-0.02,
3.203,0.15,-0.51,0.09,-0.08,-0.14,-0.03,
3.203,0.15,-0.51,0.09,-0.08,-0.14,-0.04,
3.204,0.15,-0.51,0.09,-0.07,-0.13,-0.04,
3.204,0.15,-0.51,0.09,-0.07,-0.13,-0.04,
3.205,-0.07,-0.41,0.19,-0.07,-0.13,-0.04,
3.205,-0.07,-0.41,0.19,-0.07,-0.12,-0.05,
3.205,-0.07,-0.41,0.19,-0.06,-0.12,-0.06,
3.206,-0.07,-0.41,0.19,-0.06,-0.11,-0.06,
3.206,-0.07,-0.41,0.19,-0.06,-0.11,-0.06,
3.207,-0.07,-0.41,0.19,-0.05,-0.11,-0.06,
3.207,-0.34,-0.31,0.31,-0.05,-0.11,-0.06,
3.208,-0.34,-0.31,0.31,-0.05,-0.10,-0.07,
3.208,-0.34,-0.31,0.31,-0.05,-0.09,-0.07,
3.208,-0.34,-0.31,0.31,-0.04,-0.09,-0.07,
3.209,-0.34,-0.31,0.31,-0.04,-0.09,-0.07,
3.209,-0.34,-0.31,0.31,-0.03,-0.09,-0.07,
3.21,-0.44,-0.10,0.37,-0.03,-0.09,-0.07,
3.21,-0.44,-0.10,0.37,-0.03,-0.09,-0.07,
3.211,-0.44,-0.10,0.37,-0.02,-0.09,-0.07,
3.211,-0.44,-0.10,0.37,-0.02,-0.09,-0.07,
3.211,-0.44,-0.10,0.37,-0.01,-0.10,-0.07,
3.212,-0.44,-0.10,0.37,-0.00,-0.11,-0.07,
3.212,-0.41,0.11,0.33,-0.00,-0.11,-0.07,
3.213,-0.41,0.11,0.33,-0.00,-0.11,-0.07,
3.213,-0.41,0.11,0.33,-0.00,-0.11,-0.06,
3.214,-0.41,0.11,0.33,-0.01,-0.11,-0.05,
3.214,-0.41,0.11,0.33,-0.01,-0.11,-0.05,
3.214,-0.41,0.11,0.33,-0.01,-0.10,-0.04,
3.215,-0.32,0.22,-0.03,-0.01,-0.10,-0.04,
3.215,-0.32,0.22,-0.03,-0.01,-0.08,-0.05,
3.216,-0.32,0.22,-0.03,-0.00,-0.07,-0.04,
3.216,-0.32,0.22,-0.03,0.01,-0.07,-0.04,
3.221,-0.32,0.22,-0.03,0.02,-0.07,-0.03,
3.222,-0.32,0.22,-0.03,0.03,-0.08,-0.03,
3.222,-0.27,-0.23,0.06,0.03,-0.08,-0.03,
3.223,-0.27,-0.23,0.06,0.04,-0.09,-0.02,
3.227,-0.27,-0.23,0.06,0.04,-0.09,-0.02,
3.228,-0.27,-0.23,0.06,0.04,-0.09,-0.01,
3.228,-0.27,-0.23,0.06,0.03,-0.09,-0.01,
3.233,-0.27,-0.23,0.06,0.03,-0.09,-0.00,
3.233,-0.01,-0.16,-0.13,0.03,-0.09,-0.00,
3.234,-0.01,-0.16,-0.13,0.02,-0.09,0.00,
3.237,-0.01,-0.16,-0.13,0.02,-0.09,-0.00,
3.238,-0.01,-0.16,-0.13,0.01,-0.09,-0.00,
3.243,-0.01,-0.16,-0.13,0.01,-0.09,-0.00,
3.244,-0.01,-0.16,-0.13,0.01,-0.09,-0.01,
3.244,0.08,-0.10,-0.09,0.01,-0.09,-0.01,
3.245,0.08,-0.10,-0.09,0.01,-0.09,-0.01,
3.245,0.08,-0.10,-0.09,0.01,-0.09,-0.00,
3.248,0.08,-0.10,-0.09,0.02,-0.09,-0.00,
3.251,0.08,-0.10,-0.09,0.02,-0.09,-0.00,
3.252,0.08,-0.10,-0.09,0.02,-0.09,0.00,
3.252,-0.01,-0.28,-0.08,0.02,-0.09,0.00,
3.252,-0.01,-0.28,-0.08,0.02,-0.09,0.01,
3.256,-0.01,-0.28,-0.08,0.02,-0.09,0.01,
3.257,-0.01,-0.28,-0.08,0.02,-0.08,0.01,
3.258,-0.01,-0.28,-0.08,0.02,-0.08,0.01,
3.26,-0.01,-0.28,-0.08,0.02,-0.07,0.01,
3.264,0.09,-0.47,-0.12,0.02,-0.07,0.01,
3.265,0.09,-0.47,-0.12,0.02,-0.06,0.01,
3.265,0.09,-0.47,-0.12,0.02,-0.06,0.01,
3.266,0.09,-0.47,-0.12,0.02,-0.06,0.01,
3.27,0.09,-0.47,-0.12,0.02,-0.06,0.01,
3.27,0.09,-0.47,-0.12,0.02,-0.06,0.02,
3.275,0.25,-0.66,-0.07,0.02,-0.06,0.02,
3.276,0.25,-0.66,-0.07,0.02,-0.06,0.02,
3.276,0.25,-0.66,-0.07,0.03,-0.07,0.02,
3.277,0.25,-0.66,-0.07,0.02,-0.07,0.01,
3.279,0.25,-0.66,-0.07,0.02,-0.07,0.01,
3.282,0.25,-0.66,-0.07,0.02,-0.08,0.01,
3.283,0.39,-0.80,-0.03,0.02,-0.08,0.01,
3.283,0.39,-0.80,-0.03,0.02,-0.07,0.01,
3.29,0.39,-0.80,-0.03,0.02,-0.07,0.01,
3.29,0.39,-0.80,-0.03,0.02,-0.07,0.01,
3.291,0.39,-0.80,-0.03,0.02,-0.07,0.01,
3.294,0.39,-0.80,-0.03,0.02,-0.07,0.00,
3.296,0.50,-0.90,-0.04,0.02,-0.07,0.00,
3.297,0.50,-0.90,-0.04,0.02,-0.07,0.00,
3.298,0.50,-0.90,-0.04,0.02,-0.07,0.01,
3.298,0.50,-0.90,-0.04,0.02,-0.08,0.01,
3.299,0.50,-0.90,-0.04,0.02,-0.08,0.00,
3.3,0.50,-0.90,-0.04,0.02,-0.09,0.00,
3.303,0.49,-0.96,0.00,0.02,-0.09,0.00,
3.304,0.49,-0.96,0.00,0.03,-0.09,0.00,
3.306,0.49,-0.96,0.00,0.03,-0.10,0.00,
3.306,0.49,-0.96,0.00,0.03,-0.11,0.00,
3.308,0.49,-0.96,0.00,0.04,-0.11,0.00,
3.31,0.49,-0.96,0.00,0.04,-0.11,-0.00,
3.313,0.46,-1.08,-0.00,0.04,-0.11,-0.00,
3.313,0.46,-1.08,-0.00,0.03,-0.11,-0.00,
3.317,0.46,-1.08,-0.00,0.03,-0.11,-0.00,
3.317,0.46,-1.08,-0.00,0.03,-0.12,-0.00,
3.321,0.46,-1.08,-0.00,0.02,-0.13,-0.00,
3.321,0.46,-1.08,-0.00,0.02,-0.14,-0.00,
3.349,0.41,-1.00,-0.06,0.02,-0.14,-0.00,
3.35,0.41,-1.00,-0.06,0.00,-0.15,-0.00,
3.35,0.41,-1.00,-0.06,-0.01,-0.17,-0.00,
3.351,0.41,-1.00,-0.06,-0.02,-0.19,0.00,
3.351,0.41,-1.00,-0.06,-0.03,-0.21,0.00,
3.352,0.41,-1.00,-0.06,-0.04,-0.22,0.01,
3.352,0.31,-1.00,-0.01,-0.04,-0.22,0.01,
3.353,0.31,-1.00,-0.01,-0.05,-0.22,0.01,
3.353,0.31,-1.00,-0.01,-0.05,-0.22,0.01,
3.354,0.31,-1.00,-0.01,-0.06,-0.22,0.01,
3.354,0.31,-1.00,-0.01,-0.06,-0.22,0.02,
3.354,0.31,-1.00,-0.01,-0.06,-0.22,0.02,
3.355,0.33,-0.97,-0.05,-0.06,-0.22,0.02,
3.355,0.33,-0.97,-0.05,-0.06,-0.22,0.02,
3.356,0.33,-0.97,-0.05,-0.06,-0.22,0.02,
3.356,0.33,-0.97,-0.05,-0.06,-0.22,0.02,
3.357,0.33,-0.97,-0.05,-0.07,-0.22,0.02,
3.357,0.33,-0.97,-0.05,-0.07,-0.21,0.02,
3.357,0.44,-0.87,-0.08,-0.07,-0.21,0.02,
3.358,0.44,-0.87,-0.08,-0.07,-0.21,0.03,
3.358,0.44,-0.87,-0.08,-0.07,-0.21,0.03,
3.359,0.44,-0.87,-0.08,-0.07,-0.21,0.03,
3.359,0.44,-0.87,-0.08,-0.07,-0.20,0.03,
3.364,0.44,-0.87,-0.08,-0.07,-0.20,0.03,
3.365,0.50,-0.72,-0.13,-0.07,-0.20,0.03,
3.365,0.50,-0.72,-0.13,-0.07,-0.18,0.03,
3.366,0.50,-0.72,-0.13,-0.07,-0.17,0.02,
3.366,0.50,-0.72,-0.13,-0.07,-0.17,0.02,
3.37,0.50,-0.72,-0.13,-0.07,-0.16,0.02,
3.371,0.50,-0.72,-0.13,-0.06,-0.17,0.01,
3.376,0.34,-0.57,-0.06,-0.06,-0.17,0.01,
3.377,0.34,-0.57,-0.06,-0.06,-0.16,0.01,
3.377,0.34,-0.57,-0.06,-0.05,-0.16,0.01,
3.378,0.34,-0.57,-0.06,-0.05,-0.17,0.01,
3.378,0.34,-0.57,-0.06,-0.05,-0.17,0.01,
3.383,0.34,-0.57,-0.06,-0.05,-0.17,0.01,
3.384,0.13,-0.59,0.03,-0.05,-0.17,0.01,
3.384,0.13,-0.59,0.03,-0.05,-0.17,0.01,
3.387,0.13,-0.59,0.03,-0.05,-0.17,0.00,
3.388,0.13,-0.59,0.03,-0.05,-0.17,-0.00,
3.388,0.13,-0.59,0.03,-0.04,-0.17,-0.00,
3.393,0.13,-0.59,0.03,-0.03,-0.18,-0.00,
3.394,-0.05,-0.41,0.16,-0.03,-0.18,-0.00,
3.394,-0.05,-0.41,0.16,-0.03,-0.18,-0.00,
3.395,-0.05,-0.41,0.16,-0.03,-0.18,-0.00,
3.396,-0.05,-0.41,0.16,-0.03,-0.18,-0.00,
3.399,-0.05,-0.41,0.16,-0.03,-0.17,-0.01,
3.4,-0.05,-0.41,0.16,-0.03,-0.17,-0.01,
3.404,-0.24,-0.43,0.15,-0.03,-0.17,-0.01,
3.404,-0.24,-0.43,0.15,-0.03,-0.17,-0.01,
3.426,-0.24,-0.43,0.15,-0.04,-0.17,-0.01,
3.428,-0.24,-0.43,0.15,-0.03,-0.17,-0.01,
3.429,-0.24,-0.43,0.15,-0.03,-0.17,-0.00,
3.43,-0.24,-0.43,0.15,-0.03,-0.18,-0.00,
3.431,-0.27,-0.47,0.23,-0.03,-0.18,-0.00,
3.432,-0.27,-0.47,0.23,-0.03,-0.18,0.00,
3.433,-0.27,-0.47,0.23,-0.03,-0.19,0.00,
3.433,-0.27,-0.47,0.23,-0.03,-0.19,-0.00,
3.434,-0.27,-0.47,0.23,-0.03,-0.19,-0.00,
3.435,-0.27,-0.47,0.23,-0.03,-0.19,-0.00,
3.436,-0.25,-0.38,0.20,-0.03,-0.19,-0.00,
3.437,-0.25,-0.38,0.20,-0.03,-0.19,-0.00,
3.438,-0.25,-0.38,0.20,-0.04,-0.19,-0.00,
3.439,-0.25,-0.38,0.20,-0.04,-0.19,-0.00,
3.44,-0.25,-0.38,0.20,-0.04,-0.19,0.00,
3.441,-0.25,-0.38,0.20,-0.05,-0.20,0.01,
3.442,-0.20,-0.35,0.19,-0.05,-0.20,0.01,
3.443,-0.20,-0.35,0.19,-0.05,-0.20,0.01,
3.444,-0.20,-0.35,0.19,-0.05,-0.21,0.01,
3.444,-0.20,-0.35,0.19,-0.05,-0.21,0.02,
3.445,-0.20,-0.35,0.19,-0.05,-0.21,0.02,
3.446,-0.20,-0.35,0.19,-0.06,-0.20,0.02,
3.446,0.05,-0.41,0.10,-0.06,-0.20,0.02,
3.447,0.05,-0.41,0.10,-0.06,-0.19,0.02,
3.448,0.05,-0.41,0.10,-0.08,-0.18,0.02,
3.449,0.05,-0.41,0.10,-0.08,-0.17,0.02,
3.45,0.05,-0.41,0.10,-0.08,-0.16,0.01,
3.451,0.05,-0.41,0.10,-0.08,-0.15,0.02,
3.464,0.18,-0.55,0.13,-0.08,-0.15,0.02,
3.465,0.18,-0.55,0.13,-0.08,-0.15,0.02,
3.465,0.18,-0.55,0.13,-0.08,-0.14,0.02,
3.465,0.18,-0.55,0.13,-0.08,-0.14,0.02,
3.465,0.18,-0.55,0.13,-0.08,-0.13,0.02,
3.466,0.18,-0.55,0.13,-0.07,-0.13,0.01,
3.466,0.18,-0.64,0.30,-0.07,-0.13,0.01,
3.466,0.18,-0.64,0.30,-0.07,-0.13,0.01,
3.467,0.18,-0.64,0.30,-0.06,-0.13,0.01,
3.467,0.18,-0.64,0.30,-0.06,-0.13,0.01,
3.47,0.18,-0.64,0.30,-0.06,-0.12,0.01,
3.471,0.18,-0.64,0.30,-0.06,-0.13,0.00,
3.475,0.17,-0.63,0.29,-0.06,-0.13,0.00,
3.476,0.17,-0.63,0.29,-0.05,-0.13,-0.00,
3.477,0.17,-0.63,0.29,-0.04,-0.12,-0.01,
3.477,0.17,-0.63,0.29,-0.04,-0.12,-0.01,
3.48,0.17,-0.63,0.29,-0.04,-0.12,-0.01,
3.481,0.17,-0.63,0.29,-0.04,-0.12,-0.01,
3.485,0.11,-0.61,0.15,-0.04,-0.12,-0.01,
3.486,0.11,-0.61,0.15,-0.03,-0.12,-0.01,
3.486,0.11,-0.61,0.15,-0.03,-0.12,-0.01,
3.486,0.11,-0.61,0.15,-0.03,-0.12,-0.01,
3.514,0.11,-0.61,0.15,-0.03,-0.11,-0.01,
3.514,0.11,-0.61,0.15,-0.03,-0.11,-0.01,
3.515,0.12,-0.51,-0.02,-0.03,-0.11,-0.01,
3.515,0.12,-0.51,-0.02,-0.03,-0.11,-0.01,
3.516,0.12,-0.51,-0.02,-0.03,-0.10,-0.01,
3.516,0.12,-0.51,-0.02,-0.02,-0.09,-0.01,
3.517,0.12,-0.51,-0.02,-0.02,-0.08,-0.01,
3.517,0.12,-0.51,-0.02,-0.02,-0.07,-0.01,
3.518,0.07,-0.48,-0.06,-0.02,-0.07,-0.01,
3.518,0.07,-0.48,-0.06,-0.01,-0.06,-0.01,
3.518,0.07,-0.48,-0.06,-0.01,-0.05,-0.01,
3.519,0.07,-0.48,-0.06,-0.00,-0.04,-0.01,
3.519,0.07,-0.48,-0.06,0.00,-0.03,-0.01,
3.52,0.07,-0.48,-0.06,0.01,-0.02,-0.01,
3.52,0.01,-0.49,0.03,0.01,-0.02,-0.01,
3.521,0.01,-0.49,0.03,0.01,-0.01,-0.01,
3.521,0.01,-0.49,0.03,0.02,-0.01,-0.01,
3.521,0.01,-0.49,0.03,0.03,-0.01,-0.02,
3.522,0.01,-0.49,0.03,0.04,-0.02,-0.01,
3.522,0.01,-0.49,0.03,0.05,-0.03,-0.01,
3.523,-0.07,-0.46,0.24,0.05,-0.03,-0.01,
3.523,-0.07,-0.46,0.24,0.05,-0.03,-0.01,
3.526,-0.07,-0.46,0.24,0.06,-0.02,-0.01,
3.526,-0.07,-0.46,0.24,0.06,-0.02,-0.01,
3.528,-0.07,-0.46,0.24,0.06,-0.02,-0.01,
3.53,-0.07,-0.46,0.24,0.06,-0.02,-0.01,
3.532,-0.18,-0.49,0.15,0.06,-0.02,-0.01,
3.533,-0.18,-0.49,0.15,0.06,-0.02,-0.01,
3.537,-0.18,-0.49,0.15,0.05,-0.04,-0.00,
3.537,-0.18,-0.49,0.15,0.05,-0.04,-0.00,
3.539,-0.18,-0.49,0.15,0.04,-0.05,-0.00,
3.54,-0.18,-0.49,0.15,0.04,-0.06,0.00,
3.544,-0.08,-0.62,0.13,0.04,-0.06,0.00,
3.545,-0.08,-0.62,0.13,0.03,-0.08,0.00,
3.547,-0.08,-0.62,0.13,0.03,-0.10,0.01,
3.548,-0.08,-0.62,0.13,0.03,-0.10,0.01,
3.548,-0.08,-0.62,0.13,0.02,-0.11,0.01,
3.552,-0.08,-0.62,0.13,0.02,-0.12,0.01,
3.56,0.10,-0.66,0.05,0.02,-0.12,0.01,
3.561,0.10,-0.66,0.05,0.01,-0.12,0.01,
3.561,0.10,-0.66,0.05,0.01,-0.12,0.01,
3.561,0.10,-0.66,0.05,0.01,-0.12,0.01,
3.562,0.10,-0.66,0.05,0.01,-0.12,0.01,
3.562,0.10,-0.66,0.05,0.01,-0.11,0.01,
3.562,0.19,-0.61,0.02,0.01,-0.11,0.01,
3.563,0.19,-0.61,0.02,0.01,-0.11,0.01,
3.57,0.19,-0.61,0.02,0.01,-0.10,0.02,
3.571,0.19,-0.61,0.02,0.01,-0.10,0.02,
3.571,0.19,-0.61,0.02,0.00,-0.09,0.02,
3.571,0.19,-0.61,0.02,0.00,-0.09,0.02,
3.582,0.20,-0.52,0.03,0.00,-0.09,0.02,
3.583,0.20,-0.52,0.03,0.00,-0.08,0.02,
3.583,0.20,-0.52,0.03,0.00,-0.07,0.02,
3.583,0.20,-0.52,0.03,-0.00,-0.07,0.02,
3.584,0.20,-0.52,0.03,-0.01,-0.07,0.02,
3.584,0.20,-0.52,0.03,-0.01,-0.07,0.02,
3.584,0.12,-0.43,0.08,-0.01,-0.07,0.02,
3.585,0.12,-0.43,0.08,-0.01,-0.07,0.02,
3.592,0.12,-0.43,0.08,-0.02,-0.07,0.02,
3.593,0.12,-0.43,0.08,-0.02,-0.07,0.02,
3.593,0.12,-0.43,0.08,-0.03,-0.07,0.02,
3.594,0.12,-0.43,0.08,-0.03,-0.07,0.02,
3.594,0.07,-0.41,0.11,-0.03,-0.07,0.02,
3.594,0.07,-0.41,0.11,-0.04,-0.07,0.02,
3.597,0.07,-0.41,0.11,-0.05,-0.07,0.03,
3.598,0.07,-0.41,0.11,-0.05,-0.08,0.03,
3.598,0.07,-0.41,0.11,-0.06,-0.08,0.03,
3.6,0.07,-0.41,0.11,-0.06,-0.08,0.03,
3.603,0.06,-0.45,0.12,-0.06,-0.08,0.03,
3.603,0.06,-0.45,0.12,-0.06,-0.08,0.03,
3.607,0.06,-0.45,0.12,-0.08,-0.06,0.03,
3.608,0.06,-0.45,0.12,-0.08,-0.06,0.04,
3.608,0.06,-0.45,0.12,-0.09,-0.06,0.04,
3.612,0.06,-0.45,0.12,-0.10,-0.06,0.04,
3.613,0.10,-0.39,0.11,-0.10,-0.06,0.04,
3.613,0.10,-0.39,0.11,-0.10,-0.06,0.05,
3.616,0.10,-0.39,0.11,-0.11,-0.06,0.05,
3.617,0.10,-0.39,0.11,-0.11,-0.06,0.05,
3.621,0.10,-0.39,0.11,-0.11,-0.07,0.05,
3.622,0.10,-0.39,0.11,-0.11,-0.07,0.05,
3.622,0.13,-0.42,0.18,-0.11,-0.07,0.05,
3.623,0.13,-0.42,0.18,-0.11,-0.07,0.05,
3.628,0.13,-0.42,0.18,-0.10,-0.07,0.04,
3.628,0.13,-0.42,0.18,-0.10,-0.08,0.04,
3.629,0.13,-0.42,0.18,-0.09,-0.08,0.03,
3.632,0.13,-0.42,0.18,-0.09,-0.08,0.03,
3.633,0.11,-0.38,0.19,-0.09,-0.08,0.03,
3.633,0.11,-0.38,0.19,-0.09,-0.07,0.03,
3.636,0.11,-0.38,0.19,-0.08,-0.07,0.03,
3.637,0.11,-0.38,0.19,-0.08,-0.07,0.03,
3.641,0.11,-0.38,0.19,-0.07,-0.07,0.03,
3.642,0.11,-0.38,0.19,-0.06,-0.07,0.03,
3.643,0.07,-0.23,0.20,-0.06,-0.07,0.03,
3.643,0.07,-0.23,0.20,-0.05,-0.06,0.03,
3.647,0.07,-0.23,0.20,-0.04,-0.05,0.02,
3.648,0.07,-0.23,0.20,-0.04,-0.05,0.02,
3.648,0.07,-0.23,0.20,-0.03,-0.05,0.02,
3.652,0.07,-0.23,0.20,-0.02,-0.05,0.02,
3.653,0.00,-0.27,0.16,-0.02,-0.05,0.02,
3.653,0.00,-0.27,0.16,-0.01,-0.05,0.02,
3.68,0.00,-0.27,0.16,0.00,-0.04,0.02,
3.681,0.00,-0.27,0.16,0.01,-0.03,0.02,
3.681,0.00,-0.27,0.16,0.02,-0.03,0.01,
3.681,0.00,-0.27,0.16,0.03,-0.02,-0.00,
3.682,0.07,-0.18,0.11,0.03,-0.02,-0.00,
3.682,0.07,-0.18,0.11,0.04,-0.02,-0.01,
3.683,0.07,-0.18,0.11,0.06,-0.02,-0.01,
3.683,0.07,-0.18,0.11,0.07,-0.02,-0.02,
3.684,0.07,-0.18,0.11,0.07,-0.01,-0.02,
3.684,0.07,-0.18,0.11,0.08,-0.00,-0.02,
3.684,-0.13,-0.09,-0.01,0.08,-0.00,-0.02,
3.685,-0.13,-0.09,-0.01,0.09,0.00,-0.01,
3.685,-0.13,-0.09,-0.01,0.08,0.03,-0.02,
3.686,-0.13,-0.09,-0.01,0.08,0.03,-0.02,
3.686,-0.13,-0.09,-0.01,0.08,0.03,-0.02,
3.687,-0.13,-0.09,-0.01,0.08,0.04,-0.03,
3.687,-0.00,-0.10,-0.17,0.08,0.04,-0.03,
3.687,-0.00,-0.10,-0.17,0.08,0.04,-0.03,
3.688,-0.00,-0.10,-0.17,0.07,0.04,-0.02,
3.688,-0.00,-0.10,-0.17,0.07,0.04,-0.02,
3.689,-0.00,-0.10,-0.17,0.07,0.03,-0.01,
3.691,-0.00,-0.10,-0.17,0.07,0.03,-0.01,
3.692,0.12,0.00,-0.15,0.07,0.03,-0.01,
3.692,0.12,0.00,-0.15,0.06,0.03,-0.01,
3.698,0.12,0.00,-0.15,0.05,0.03,-0.01,
3.698,0.12,0.00,-0.15,0.05,0.03,-0.01,
3.699,0.12,0.00,-0.15,0.05,0.04,-0.01,
3.702,0.12,0.00,-0.15,0.05,0.03,-0.01,
3.703,0.08,-0.04,-0.08,0.05,0.03,-0.01,
3.704,0.08,-0.04,-0.08,0.05,0.03,-0.01,
3.712,0.08,-0.04,-0.08,0.06,0.03,-0.00,
3.713,0.08,-0.04,-0.08,0.06,0.03,-0.00,
3.713,0.08,-0.04,-0.08,0.06,0.03,-0.00,
3.714,0.08,-0.04,-0.08,0.07,0.03,0.00,
3.714,-0.03,-0.11,-0.03,0.07,0.03,0.00,
3.715,-0.03,-0.11,-0.03,0.07,0.04,0.00,
3.731,-0.03,-0.11,-0.03,0.08,0.03,0.01,
3.731,-0.03,-0.11,-0.03,0.08,0.03,0.01,
3.732,-0.03,-0.11,-0.03,0.09,0.03,0.01,
3.732,-0.03,-0.11,-0.03,0.09,0.02,0.01,
3.733,-0.05,-0.20,0.02,0.09,0.02,0.01,
3.733,-0.05,-0.20,0.02,0.10,0.02,0.01,
3.733,-0.05,-0.20,0.02,0.11,0.01,0.01,
3.734,-0.05,-0.20,0.02,0.12,0.01,0.01,
3.734,-0.05,-0.20,0.02,0.13,-0.00,0.01,
3.734,-0.05,-0.20,0.02,0.14,-0.01,0.01,
3.735,-0.10,-0.25,0.06,0.14,-0.01,0.01,
3.735,-0.10,-0.25,0.06,0.16,-0.02,0.01,
3.736,-0.10,-0.25,0.06,0.17,-0.03,0.01,
3.75,-0.10,-0.25,0.06,0.18,-0.03,0.01,
3.751,-0.10,-0.25,0.06,0.19,-0.03,0.01,
3.752,-0.10,-0.25,0.06,0.19,-0.04,0.01,
3.752,-0.12,-0.26,-0.05,0.19,-0.04,0.01,
3.753,-0.12,-0.26,-0.05,0.20,-0.04,0.01,
3.753,-0.12,-0.26,-0.05,0.21,-0.04,0.01,
3.754,-0.12,-0.26,-0.05,0.21,-0.04,0.01,
3.754,-0.12,-0.26,-0.05,0.21,-0.03,0.01,
3.754,-0.12,-0.26,-0.05,0.21,-0.03,0.01,
3.755,-0.14,-0.44,-0.25,0.21,-0.03,0.01,
3.755,-0.14,-0.44,-0.25,0.21,-0.03,0.01,
3.755,-0.14,-0.44,-0.25,0.20,-0.03,0.02,
3.759,-0.14,-0.44,-0.25,0.20,-0.02,0.02,
3.759,-0.14,-0.44,-0.25,0.20,-0.02,0.02,
3.762,-0.14,-0.44,-0.25,0.19,-0.02,0.02,
3.763,-0.09,-0.71,-0.40,0.19,-0.02,0.02,
3.763,-0.09,-0.71,-0.40,0.18,-0.02,0.02,
3.766,-0.09,-0.71,-0.40,0.17,-0.02,0.02,
3.767,-0.09,-0.71,-0.40,0.17,-0.02,0.02,
3.769,-0.09,-0.71,-0.40,0.16,-0.02,0.01,
3.77,-0.09,-0.71,-0.40,0.15,-0.02,0.01,
3.772,-0.01,-0.89,-0.46,0.15,-0.02,0.01,
3.772,-0.01,-0.89,-0.46,0.15,-0.03,0.01,
3.775,-0.01,-0.89,-0.46,0.14,-0.04,0.02,
3.776,-0.01,-0.89,-0.46,0.14,-0.05,0.02,
3.778,-0.01,-0.89,-0.46,0.15,-0.05,0.02,
3.78,-0.01,-0.89,-0.46,0.14,-0.05,0.02,
3.782,0.03,-0.92,-0.31,0.14,-0.05,0.02,
3.782,0.03,-0.92,-0.31,0.14,-0.06,0.02,
3.785,0.03,-0.92,-0.31,0.15,-0.06,0.02,
3.786,0.03,-0.92,-0.31,0.15,-0.06,0.02,
3.788,0.03,-0.92,-0.31,0.16,-0.06,0.02,
3.79,0.03,-0.92,-0.31,0.16,-0.06,0.03,
3.792,-0.06,-0.96,-0.13,0.16,-0.06,0.03,
3.792,-0.06,-0.96,-0.13,0.17,-0.06,0.04,
3.795,-0.06,-0.96,-0.13,0.18,-0.06,0.04,
3.798,-0.06,-0.96,-0.13,0.18,-0.06,0.04,
3.799,-0.06,-0.96,-0.13,0.18,-0.06,0.04,
3.802,-0.06,-0.96,-0.13,0.18,-0.06,0.03,
3.809,0.24,-0.81,-0.19,0.18,-0.06,0.03,
3.81,0.24,-0.81,-0.19,0.18,-0.06,0.03,
3.811,0.24,-0.81,-0.19,0.18,-0.06,0.03,
3.811,0.24,-0.81,-0.19,0.18,-0.06,0.02,
3.811,0.24,-0.81,-0.19,0.17,-0.07,0.02,
3.812,0.24,-0.81,-0.19,0.17,-0.08,0.02,
3.814,0.30,-0.70,-0.30,0.17,-0.08,0.02,
3.836,0.30,-0.70,-0.30,0.16,-0.09,0.02,
3.837,0.30,-0.70,-0.30,0.15,-0.12,0.02,
3.837,0.30,-0.70,-0.30,0.15,-0.13,0.02,
3.838,0.30,-0.70,-0.30,0.15,-0.15,0.02,
3.838,0.30,-0.70,-0.30,0.14,-0.18,0.02,
3.866,0.34,-0.77,-0.34,0.14,-0.18,0.02,
3.866,0.34,-0.77,-0.34,0.14,-0.20,0.01,
3.867,0.34,-0.77,-0.34,0.14,-0.22,0.01,
3.867,0.34,-0.77,-0.34,0.14,-0.22,0.01,
3.868,0.34,-0.77,-0.34,0.15,-0.22,0.00,
3.868,0.34,-0.77,-0.34,0.16,-0.21,0.00,
3.869,0.49,-0.76,-0.15,0.16,-0.21,0.00,
3.869,0.49,-0.76,-0.15,0.16,-0.19,-0.00,
3.87,0.49,-0.76,-0.15,0.18,-0.14,-0.01,
3.87,0.49,-0.76,-0.15,0.18,-0.12,-0.01,
3.87,0.49,-0.76,-0.15,0.19,-0.09,-0.02,
3.871,0.49,-0.76,-0.15,0.19,-0.05,-0.02,
3.871,0.61,-0.63,0.06,0.19,-0.05,-0.02,
3.872,0.61,-0.63,0.06,0.20,-0.02,-0.03,
3.872,0.61,-0.63,0.06,0.21,0.00,-0.03,
3.873,0.61,-0.63,0.06,0.21,0.01,-0.03,
3.873,0.61,-0.63,0.06,0.21,0.01,-0.03,
3.873,0.61,-0.63,0.06,0.21,0.01,-0.03,
3.874,0.51,-0.40,-0.05,0.21,0.01,-0.03,
3.874,0.51,-0.40,-0.05,0.21,0.00,-0.03,
3.875,0.51,-0.40,-0.05,0.20,-0.01,-0.02,
3.875,0.51,-0.40,-0.05,0.20,-0.02,-0.02,
3.876,0.51,-0.40,-0.05,0.19,-0.02,-0.02,
3.876,0.51,-0.40,-0.05,0.18,-0.03,-0.01,
3.876,0.28,-0.20,-0.38,0.18,-0.03,-0.01,
3.877,0.28,-0.20,-0.38,0.17,-0.04,-0.01,
3.877,0.28,-0.20,-0.38,0.16,-0.04,0.00,
3.878,0.28,-0.20,-0.38,0.15,-0.04,0.00,
3.878,0.28,-0.20,-0.38,0.14,-0.05,0.01,
3.879,0.28,-0.20,-0.38,0.13,-0.05,0.01,
3.879,0.29,-0.25,-0.54,0.13,-0.05,0.01,
3.88,0.29,-0.25,-0.54,0.13,-0.06,0.01,
3.88,0.29,-0.25,-0.54,0.12,-0.06,0.02,
3.88,0.29,-0.25,-0.54,0.12,-0.07,0.02,
3.881,0.29,-0.25,-0.54,0.11,-0.08,0.02,
3.881,0.29,-0.25,-0.54,0.11,-0.09,0.02,
3.882,0.34,-0.47,-0.50,0.11,-0.09,0.02,
3.882,0.34,-0.47,-0.50,0.10,-0.09,0.02,
3.887,0.34,-0.47,-0.50,0.10,-0.11,0.02,
3.888,0.34,-0.47,-0.50,0.10,-0.11,0.02,
3.888,0.34,-0.47,-0.50,0.10,-0.12,0.02,
3.893,0.34,-0.47,-0.50,0.09,-0.12,0.02,
3.893,0.39,-0.72,-0.56,0.09,-0.12,0.02,
3.894,0.39,-0.72,-0.56,0.09,-0.13,0.02,
3.897,0.39,-0.72,-0.56,0.09,-0.13,0.02,
3.898,0.39,-0.72,-0.56,0.09,-0.13,0.02,
3.899,0.39,-0.72,-0.56,0.09,-0.12,0.02,
3.902,0.39,-0.72,-0.56,0.08,-0.11,0.01,
3.902,0.38,-0.77,-0.64,0.08,-0.11,0.01,
3.903,0.38,-0.77,-0.64,0.08,-0.11,0.02,
3.905,0.38,-0.77,-0.64,0.08,-0.09,0.01,
3.907,0.38,-0.77,-0.64,0.08,-0.09,0.01,
3.909,0.38,-0.77,-0.64,0.08,-0.08,0.01,
3.91,0.38,-0.77,-0.64,0.08,-0.07,0.01,
3.914,0.32,-0.77,-0.60,0.08,-0.07,0.01,
3.914,0.32,-0.77,-0.60,0.08,-0.07,0.01,
3.915,0.32,-0.77,-0.60,0.08,-0.06,0.01,
3.916,0.32,-0.77,-0.60,0.08,-0.06,0.01,
3.918,0.32,-0.77,-0.60,0.08,-0.06,0.01,
3.92,0.32,-0.77,-0.60,0.08,-0.06,0.01,
3.924,0.20,-0.76,-0.40,0.08,-0.06,0.01,
3.924,0.20,-0.76,-0.40,0.08,-0.06,0.01,
3.925,0.20,-0.76,-0.40,0.08,-0.06,0.01,
3.926,0.20,-0.76,-0.40,0.08,-0.06,0.01,
3.928,0.20,-0.76,-0.40,0.08,-0.06,0.01,
3.93,0.20,-0.76,-0.40,0.08,-0.06,0.01,
3.932,0.11,-0.69,-0.13,0.08,-0.06,0.01,
3.934,0.11,-0.69,-0.13,0.08,-0.05,0.01,
3.936,0.11,-0.69,-0.13,0.08,-0.05,0.01,
3.936,0.11,-0.69,-0.13,0.08,-0.05,0.01,
3.939,0.11,-0.69,-0.13,0.08,-0.05,0.01,
3.943,0.11,-0.69,-0.13,0.08,-0.05,0.01,
3.943,0.11,-0.52,0.05,0.08,-0.05,0.01,
3.944,0.11,-0.52,0.05,0.08,-0.05,0.01,
3.947,0.11,-0.52,0.05,0.08,-0.05,0.01,
3.948,0.11,-0.52,0.05,0.08,-0.05,0.01,
3.948,0.11,-0.52,0.05,0.09,-0.05,0.01,
3.951,0.11,-0.52,0.05,0.09,-0.06,0.02,
3.959,0.06,-0.39,0.18,0.09,-0.06,0.02,
3.96,0.06,-0.39,0.18,0.09,-0.06,0.02,
3.96,0.06,-0.39,0.18,0.10,-0.07,0.02,
3.961,0.06,-0.39,0.18,0.10,-0.07,0.02,
3.961,0.06,-0.39,0.18,0.10,-0.08,0.02,
3.961,0.06,-0.39,0.18,0.10,-0.09,0.03,
3.984,0.08,-0.35,0.06,0.10,-0.09,0.03,
3.985,0.08,-0.35,0.06,0.10,-0.09,0.03,
3.985,0.08,-0.35,0.06,0.10,-0.11,0.03,
3.985,0.08,-0.35,0.06,0.10,-0.11,0.03,
3.986,0.08,-0.35,0.06,0.09,-0.12,0.03,
3.986,0.08,-0.35,0.06,0.09,-0.12,0.03,
3.986,0.19,-0.38,-0.26,0.09,-0.12,0.03,
3.987,0.19,-0.38,-0.26,0.09,-0.12,0.03,
3.987,0.19,-0.38,-0.26,0.08,-0.12,0.03,
3.987,0.19,-0.38,-0.26,0.08,-0.12,0.03,
3.988,0.19,-0.38,-0.26,0.08,-0.12,0.03,
3.988,0.19,-0.38,-0.26,0.07,-0.11,0.03,
3.988,0.32,-0.42,-0.40,0.07,-0.11,0.03,
3.989,0.32,-0.42,-0.40,0.07,-0.11,0.03,
3.989,0.32,-0.42,-0.40,0.07,-0.12,0.03,
3.989,0.32,-0.42,-0.40,0.07,-0.12,0.03,
4.017,0.32,-0.42,-0.40,0.07,-0.12,0.03,
4.017,0.32,-0.42,-0.40,0.08,-0.12,0.03,
4.018,0.37,-0.47,-0.30,0.08,-0.12,0.03,
4.018,0.37,-0.47,-0.30,0.08,-0.12,0.03,
4.018,0.37,-0.47,-0.30,0.09,-0.13,0.02,
4.019,0.37,-0.47,-0.30,0.09,-0.13,0.02,
4.019,0.37,-0.47,-0.30,0.09,-0.14,0.02,
4.02,0.37,-0.47,-0.30,0.09,-0.14,0.02,
4.02,0.26,-0.42,-0.21,0.09,-0.14,0.02,
4.021,0.26,-0.42,-0.21,0.10,-0.14,0.02,
4.021,0.26,-0.42,-0.21,0.10,-0.14,0.02,
4.021,0.26,-0.42,-0.21,0.11,-0.14,0.02,
4.022,0.26,-0.42,-0.21,0.11,-0.13,0.02,
4.022,0.26,-0.42,-0.21,0.12,-0.13,0.02,
4.023,0.23,-0.38,-0.20,0.12,-0.13,0.02,
4.023,0.23,-0.38,-0.20,0.12,-0.12,0.02,
4.024,0.23,-0.38,-0.20,0.13,-0.10,0.02,
4.024,0.23,-0.38,-0.20,0.13,-0.10,0.02,
4.025,0.23,-0.38,-0.20,0.14,-0.09,0.02,
4.025,0.23,-0.38,-0.20,0.14,-0.08,0.02,
4.025,0.22,-0.33,-0.16,0.14,-0.08,0.02,
4.026,0.22,-0.33,-0.16,0.14,-0.07,0.02,
4.026,0.22,-0.33,-0.16,0.15,-0.07,0.02,
4.027,0.22,-0.33,-0.16,0.15,-0.07,0.02,
4.029,0.22,-0.33,-0.16,0.15,-0.07,0.02,
4.03,0.22,-0.33,-0.16,0.16,-0.08,0.02,
4.032,0.18,-0.29,-0.18,0.16,-0.08,0.02,
4.033,0.18,-0.29,-0.18,0.16,-0.08,0.02,
4.043,0.18,-0.29,-0.18,0.16,-0.08,0.03,
4.043,0.18,-0.29,-0.18,0.16,-0.08,0.03,
4.044,0.18,-0.29,-0.18,0.16,-0.08,0.03,
4.044,0.18,-0.29,-0.18,0.16,-0.08,0.03,
4.045,0.16,-0.21,-0.28,0.16,-0.08,0.03,
4.045,0.16,-0.21,-0.28,0.16,-0.08,0.03,
4.045,0.16,-0.21,-0.28,0.16,-0.07,0.03,
4.046,0.16,-0.21,-0.28,0.16,-0.07,0.03,
4.048,0.16,-0.21,-0.28,0.16,-0.06,0.03,
4.05,0.16,-0.21,-0.28,0.17,-0.05,0.03,
4.052,0.24,-0.23,-0.35,0.17,-0.05,0.03,
4.053,0.24,-0.23,-0.35,0.16,-0.05,0.04,
4.055,0.24,-0.23,-0.35,0.16,-0.05,0.04,
4.057,0.24,-0.23,-0.35,0.16,-0.04,0.04,
4.058,0.24,-0.23,-0.35,0.17,-0.04,0.04,
4.06,0.24,-0.23,-0.35,0.16,-0.04,0.04,
4.062,0.23,-0.24,-0.28,0.16,-0.04,0.04,
4.063,0.23,-0.24,-0.28,0.16,-0.04,0.04,
4.065,0.23,-0.24,-0.28,0.17,-0.04,0.05,
4.066,0.23,-0.24,-0.28,0.16,-0.04,0.05,
4.068,0.23,-0.24,-0.28,0.16,-0.05,0.05,
4.071,0.23,-0.24,-0.28,0.16,-0.05,0.05,
4.074,0.19,-0.25,-0.34,0.16,-0.05,0.05,
4.075,0.19,-0.25,-0.34,0.16,-0.05,0.05,
4.079,0.19,-0.25,-0.34,0.16,-0.06,0.06,
4.08,0.19,-0.25,-0.34,0.16,-0.06,0.06,
4.08,0.19,-0.25,-0.34,0.16,-0.07,0.06,
4.08,0.19,-0.25,-0.34,0.16,-0.07,0.06,
4.082,0.19,-0.28,-0.30,0.16,-0.07,0.06,
4.082,0.19,-0.28,-0.30,0.17,-0.07,0.06,
4.09,0.19,-0.28,-0.30,0.17,-0.08,0.06,
4.091,0.19,-0.28,-0.30,0.18,-0.08,0.06,
4.091,0.19,-0.28,-0.30,0.19,-0.08,0.06,
4.091,0.19,-0.28,-0.30,0.19,-0.08,0.06,
4.094,0.23,-0.31,-0.24,0.19,-0.08,0.06,
4.095,0.23,-0.31,-0.24,0.19,-0.08,0.06,
4.115,0.23,-0.31,-0.24,0.20,-0.07,0.06,
4.115,0.23,-0.31,-0.24,0.20,-0.07,0.06,
4.115,0.23,-0.31,-0.24,0.20,-0.07,0.06,
4.116,0.23,-0.31,-0.24,0.21,-0.06,0.06,
4.116,0.18,-0.30,-0.20,0.21,-0.06,0.06,
4.116,0.18,-0.30,-0.20,0.21,-0.06,0.06,
4.117,0.18,-0.30,-0.20,0.21,-0.05,0.06,
4.117,0.18,-0.30,-0.20,0.21,-0.05,0.06,
4.117,0.18,-0.30,-0.20,0.22,-0.05,0.06,
4.125,0.18,-0.30,-0.20,0.22,-0.06,0.06,
4.126,0.20,-0.31,-0.14,0.22,-0.06,0.06,
4.126,0.20,-0.31,-0.14,0.22,-0.06,0.06,
4.126,0.20,-0.31,-0.14,0.22,-0.07,0.06,
4.126,0.20,-0.31,-0.14,0.22,-0.07,0.05,
4.127,0.20,-0.31,-0.14,0.23,-0.08,0.05,
4.127,0.20,-0.31,-0.14,0.23,-0.08,0.05,
4.127,0.18,-0.29,-0.18,0.23,-0.08,0.05,
4.128,0.18,-0.29,-0.18,0.23,-0.08,0.05,
4.128,0.18,-0.29,-0.18,0.24,-0.08,0.05,
4.128,0.18,-0.29,-0.18,0.24,-0.07,0.05,
4.129,0.18,-0.29,-0.18,0.25,-0.07,0.05,
4.13,0.18,-0.29,-0.18,0.25,-0.07,0.05,
4.132,0.25,-0.28,-0.20,0.25,-0.07,0.05,
4.132,0.25,-0.28,-0.20,0.26,-0.06,0.05,
4.136,0.25,-0.28,-0.20,0.26,-0.06,0.04,
4.137,0.25,-0.28,-0.20,0.26,-0.06,0.04,
4.142,0.25,-0.28,-0.20,0.26,-0.06,0.04,
4.143,0.25,-0.28,-0.20,0.26,-0.05,0.04,
4.143,0.33,-0.28,-0.29,0.26,-0.05,0.04,
4.143,0.33,-0.28,-0.29,0.27,-0.06,0.04,
4.145,0.33,-0.28,-0.29,0.26,-0.06,0.04,
4.146,0.33,-0.28,-0.29,0.26,-0.06,0.04,
4.149,0.33,-0.28,-0.29,0.26,-0.06,0.04,
4.151,0.33,-0.28,-0.29,0.26,-0.06,0.04,
4.153,0.28,-0.33,-0.42,0.26,-0.06,0.04,
4.153,0.28,-0.33,-0.42,0.26,-0.06,0.04,
4.184,0.28,-0.33,-0.42,0.26,-0.07,0.05,
4.184,0.28,-0.33,-0.42,0.26,-0.07,0.05,
4.185,0.28,-0.33,-0.42,0.25,-0.07,0.05,
4.185,0.28,-0.33,-0.42,0.25,-0.07,0.05,
4.186,0.24,-0.36,-0.56,0.25,-0.07,0.05,
4.186,0.24,-0.36,-0.56,0.24,-0.07,0.05,
4.186,0.24,-0.36,-0.56,0.24,-0.07,0.05,
4.187,0.24,-0.36,-0.56,0.24,-0.07,0.05,
4.187,0.24,-0.36,-0.56,0.23,-0.07,0.05,
4.188,0.24,-0.36,-0.56,0.23,-0.07,0.05,
4.188,0.25,-0.42,-0.67,0.23,-0.07,0.05,
4.189,0.25,-0.42,-0.67,0.23,-0.07,0.05,
4.189,0.25,-0.42,-0.67,0.22,-0.06,0.05,
4.189,0.25,-0.42,-0.67,0.22,-0.06,0.05,
4.19,0.25,-0.42,-0.67,0.21,-0.06,0.05,
4.19,0.25,-0.42,-0.67,0.21,-0.06,0.05,
4.191,0.21,-0.45,-0.71,0.21,-0.06,0.05,
4.191,0.21,-0.45,-0.71,0.21,-0.05,0.05,
4.192,0.21,-0.45,-0.71,0.20,-0.04,0.05,
4.192,0.21,-0.45,-0.71,0.20,-0.04,0.06,
4.192,0.21,-0.45,-0.71,0.20,-0.04,0.06,
4.193,0.21,-0.45,-0.71,0.19,-0.04,0.06,
4.193,0.21,-0.45,-0.63,0.19,-0.04,0.06,
4.194,0.21,-0.45,-0.63,0.19,-0.03,0.06,
4.197,0.21,-0.45,-0.63,0.19,-0.02,0.06,
4.197,0.21,-0.45,-0.63,0.19,-0.02,0.06,
4.198,0.21,-0.45,-0.63,0.19,-0.01,0.06,
4.203,0.21,-0.45,-0.63,0.20,-0.00,0.06,
4.203,0.14,-0.36,-0.37,0.20,-0.00,0.06,
4.204,0.14,-0.36,-0.37,0.20,0.01,0.06,
4.205,0.14,-0.36,-0.37,0.21,0.02,0.06,
4.207,0.14,-0.36,-0.37,0.21,0.02,0.07,
4.208,0.14,-0.36,-0.37,0.22,0.03,0.07,
4.21,0.14,-0.36,-0.37,0.22,0.03,0.07,
4.212,0.05,-0.26,-0.26,0.22,0.03,0.07,
4.212,0.05,-0.26,-0.26,0.22,0.03,0.08,
4.215,0.05,-0.26,-0.26,0.22,0.02,0.08,
4.22,0.05,-0.26,-0.26,0.23,0.02,0.08,
4.221,0.05,-0.26,-0.26,0.23,0.01,0.08,
4.221,0.05,-0.26,-0.26,0.22,0.01,0.09,
4.223,-0.02,-0.25,-0.39,0.22,0.01,0.09,
4.223,-0.02,-0.25,-0.39,0.22,0.00,0.09,
4.228,-0.02,-0.25,-0.39,0.21,-0.01,0.09,
4.229,-0.02,-0.25,-0.39,0.21,-0.01,0.10,
4.229,-0.02,-0.25,-0.39,0.21,-0.01,0.10,
4.23,-0.02,-0.25,-0.39,0.20,-0.02,0.10,
4.247,0.08,-0.30,-0.66,0.20,-0.02,0.10,
4.248,0.08,-0.30,-0.66,0.20,-0.02,0.10,
4.248,0.08,-0.30,-0.66,0.19,-0.03,0.10,
4.249,0.08,-0.30,-0.66,0.19,-0.03,0.10,
4.249,0.08,-0.30,-0.66,0.18,-0.04,0.10,
4.249,0.08,-0.30,-0.66,0.18,-0.05,0.10,
4.25,0.20,-0.31,-0.85,0.18,-0.05,0.10,
4.25,0.20,-0.31,-0.85,0.17,-0.05,0.10,
4.25,0.20,-0.31,-0.85,0.17,-0.06,0.10,
4.251,0.20,-0.31,-0.85,0.16,-0.06,0.10,
4.251,0.20,-0.31,-0.85,0.15,-0.06,0.10,
4.251,0.20,-0.31,-0.85,0.15,-0.05,0.10,
4.252,0.31,-0.35,-1.06,0.15,-0.05,0.10,
4.253,0.31,-0.35,-1.06,0.14,-0.05,0.10,
4.256,0.31,-0.35,-1.06,0.13,-0.05,0.09,
4.256,0.31,-0.35,-1.06,0.12,-0.05,0.09,
4.258,0.31,-0.35,-1.06,0.11,-0.05,0.09,
4.26,0.31,-0.35,-1.06,0.10,-0.04,0.08,
4.262,0.42,-0.33,-1.14,0.10,-0.04,0.08,
4.262,0.42,-0.33,-1.14,0.10,-0.04,0.08,
4.265,0.42,-0.33,-1.14,0.09,-0.05,0.08,
4.268,0.42,-0.33,-1.14,0.08,-0.05,0.08,
4.27,0.42,-0.33,-1.14,0.08,-0.05,0.08,
4.271,0.42,-0.33,-1.14,0.07,-0.05,0.07,
4.272,0.53,-0.31,-1.00,0.07,-0.05,0.07,
4.273,0.53,-0.31,-1.00,0.07,-0.06,0.07,
4.275,0.53,-0.31,-1.00,0.07,-0.07,0.06,
4.276,0.53,-0.31,-1.00,0.07,-0.07,0.06,
4.278,0.53,-0.31,-1.00,0.07,-0.07,0.06,
4.28,0.53,-0.31,-1.00,0.08,-0.08,0.05,
4.284,0.56,-0.29,-0.64,0.08,-0.08,0.05,
4.287,0.56,-0.29,-0.64,0.09,-0.08,0.04,
4.288,0.56,-0.29,-0.64,0.11,-0.08,0.04,
4.288,0.56,-0.29,-0.64,0.11,-0.08,0.04,
4.29,0.56,-0.29,-0.64,0.13,-0.07,0.04,
4.291,0.56,-0.29,-0.64,0.14,-0.06,0.04,
4.292,0.49,-0.22,-0.30,0.14,-0.06,0.04,
4.293,0.49,-0.22,-0.30,0.16,-0.05,0.03,
4.295,0.49,-0.22,-0.30,0.19,-0.03,0.04,
4.296,0.49,-0.22,-0.30,0.20,-0.02,0.03,
4.3,0.49,-0.22,-0.30,0.22,-0.01,0.04,
4.301,0.49,-0.22,-0.30,0.23,0.00,0.04,
4.302,0.32,-0.09,-0.12,0.23,0.00,0.04,
4.303,0.32,-0.09,-0.12,0.24,0.01,0.04,
4.306,0.32,-0.09,-0.12,0.25,0.02,0.05,
4.306,0.32,-0.09,-0.12,0.26,0.02,0.05,
4.308,0.32,-0.09,-0.12,0.26,0.02,0.05,
4.31,0.32,-0.09,-0.12,0.27,0.03,0.06,
4.312,0.14,0.02,-0.30,0.27,0.03,0.06,
4.313,0.14,0.02,-0.30,0.27,0.03,0.06,
4.316,0.14,0.02,-0.30,0.27,0.03,0.07,
4.317,0.14,0.02,-0.30,0.27,0.03,0.07,
4.319,0.14,0.02,-0.30,0.27,0.02,0.08,
4.321,0.14,0.02,-0.30,0.27,0.01,0.08,
4.351,0.05,0.06,-0.52,0.27,0.01,0.08,
4.352,0.05,0.06,-0.52,0.27,-0.00,0.09,
4.352,0.05,0.06,-0.52,0.27,-0.02,0.09,
4.352,0.05,0.06,-0.52,0.26,-0.03,0.09,
4.353,0.05,0.06,-0.52,0.25,-0.05,0.10,
4.353,0.05,0.06,-0.52,0.25,-0.06,0.10,
4.354,0.04,0.03,-0.96,0.25,-0.06,0.10,
4.354,0.04,0.03,-0.96,0.24,-0.09,0.10,
4.355,0.04,0.03,-0.96,0.23,-0.12,0.11,
4.355,0.04,0.03,-0.96,0.22,-0.13,0.11,
4.356,0.04,0.03,-0.96,0.21,-0.15,0.11,
4.356,0.04,0.03,-0.96,0.20,-0.17,0.11,
4.356,0.10,0.05,-1.44,0.20,-0.17,0.11,
4.357,0.10,0.05,-1.44,0.18,-0.18,0.12,
4.357,0.10,0.05,-1.44,0.16,-0.20,0.12,
4.358,0.10,0.05,-1.44,0.15,-0.21,0.12,
4.358,0.10,0.05,-1.44,0.13,-0.21,0.12,
4.359,0.10,0.05,-1.44,0.11,-0.21,0.12,
4.359,0.19,0.07,-1.92,0.11,-0.21,0.12,
4.359,0.19,0.07,-1.92,0.09,-0.21,0.12,
4.36,0.19,0.07,-1.92,0.06,-0.20,0.12,
4.36,0.19,0.07,-1.92,0.05,-0.20,0.12,
4.361,0.19,0.07,-1.92,0.04,-0.19,0.12,
4.364,0.19,0.07,-1.92,0.03,-0.18,0.11,
4.365,0.41,0.09,-1.93,0.03,-0.18,0.11,
4.365,0.41,0.09,-1.93,0.02,-0.17,0.11,
4.372,0.41,0.09,-1.93,-0.00,-0.16,0.10,
4.372,0.41,0.09,-1.93,-0.01,-0.15,0.10,
4.373,0.41,0.09,-1.93,-0.01,-0.15,0.10,
4.373,0.41,0.09,-1.93,-0.02,-0.14,0.09,
4.374,0.58,0.11,-1.65,-0.02,-0.14,0.09,
4.374,0.58,0.11,-1.65,-0.03,-0.14,0.08,
4.375,0.58,0.11,-1.65,-0.03,-0.15,0.08,
4.379,0.58,0.11,-1.65,-0.03,-0.14,0.08,
4.38,0.58,0.11,-1.65,-0.03,-0.14,0.07,
4.381,0.58,0.11,-1.65,-0.03,-0.13,0.07,
4.391,0.67,0.11,-1.18,-0.03,-0.13,0.07,
4.392,0.67,0.11,-1.18,-0.02,-0.12,0.06,
4.392,0.67,0.11,-1.18,-0.01,-0.11,0.06,
4.393,0.67,0.11,-1.18,-0.00,-0.11,0.05,
4.393,0.67,0.11,-1.18,0.01,-0.10,0.05,
4.393,0.67,0.11,-1.18,0.02,-0.09,0.04,
4.394,0.79,0.07,-0.76,0.02,-0.09,0.04,
4.394,0.79,0.07,-0.76,0.03,-0.07,0.04,
4.395,0.79,0.07,-0.76,0.05,-0.05,0.03,
4.396,0.79,0.07,-0.76,0.05,-0.04,0.03,
4.407,0.79,0.07,-0.76,0.06,-0.03,0.03,
4.408,0.79,0.07,-0.76,0.07,-0.01,0.03,
4.408,0.74,0.07,-0.59,0.07,-0.01,0.03,
4.408,0.74,0.07,-0.59,0.07,0.00,0.02,
4.409,0.74,0.07,-0.59,0.07,0.02,0.02,
4.409,0.74,0.07,-0.59,0.06,0.02,0.02,
4.409,0.74,0.07,-0.59,0.06,0.02,0.02,
4.411,0.74,0.07,-0.59,0.05,0.03,0.02,
4.413,0.63,0.14,-0.77,0.05,0.03,0.02,
4.413,0.63,0.14,-0.77,0.03,0.02,0.02,
4.419,0.63,0.14,-0.77,0.00,0.01,0.03,
4.42,0.63,0.14,-0.77,-0.01,-0.00,0.03,
4.42,0.63,0.14,-0.77,-0.03,-0.02,0.03,
4.42,0.63,0.14,-0.77,-0.06,-0.04,0.03,
4.423,0.48,0.16,-1.18,-0.06,-0.04,0.03,
4.423,0.48,0.16,-1.18,-0.09,-0.06,0.03,
4.425,0.48,0.16,-1.18,-0.13,-0.10,0.04,
4.426,0.48,0.16,-1.18,-0.14,-0.11,0.04,
4.428,0.48,0.16,-1.18,-0.17,-0.14,0.05,
4.43,0.48,0.16,-1.18,-0.19,-0.17,0.05,
4.432,0.21,0.06,-1.55,-0.19,-0.17,0.05,
4.433,0.21,0.06,-1.55,-0.22,-0.20,0.05,
4.436,0.21,0.06,-1.55,-0.26,-0.23,0.06,
4.438,0.21,0.06,-1.55,-0.26,-0.25,0.06,
4.438,0.21,0.06,-1.55,-0.28,-0.28,0.06,
4.44,0.21,0.06,-1.55,-0.30,-0.31,0.07,
4.442,0.07,0.08,-1.57,-0.30,-0.31,0.07,
4.442,0.07,0.08,-1.57,-0.31,-0.34,0.07,
4.445,0.07,0.08,-1.57,-0.32,-0.38,0.07,
4.446,0.07,0.08,-1.57,-0.33,-0.39,0.07,
4.449,0.07,0.08,-1.57,-0.33,-0.42,0.07,
4.451,0.07,0.08,-1.57,-0.34,-0.45,0.07,
4.454,-0.03,0.33,-1.40,-0.34,-0.45,0.07,
4.454,-0.03,0.33,-1.40,-0.34,-0.48,0.07,
4.455,-0.03,0.33,-1.40,-0.33,-0.52,0.07,
4.456,-0.03,0.33,-1.40,-0.33,-0.54,0.07,
4.459,-0.03,0.33,-1.40,-0.33,-0.56,0.07,
4.46,-0.03,0.33,-1.40,-0.33,-0.59,0.07,
4.462,-0.01,0.76,-1.15,-0.33,-0.59,0.07,
4.463,-0.01,0.76,-1.15,-0.32,-0.61,0.07,
4.466,-0.01,0.76,-1.15,-0.32,-0.63,0.07,
4.466,-0.01,0.76,-1.15,-0.32,-0.64,0.08,
4.469,-0.01,0.76,-1.15,-0.33,-0.65,0.08,
4.471,-0.01,0.76,-1.15,-0.34,-0.67,0.09,
4.472,-0.19,1.23,-1.22,-0.34,-0.67,0.09,
4.472,-0.19,1.23,-1.22,-0.35,-0.68,0.10,
4.476,-0.19,1.23,-1.22,-0.38,-0.69,0.11,
4.477,-0.19,1.23,-1.22,-0.39,-0.70,0.11,
4.479,-0.19,1.23,-1.22,-0.42,-0.71,0.12,
4.48,-0.19,1.23,-1.22,-0.46,-0.73,0.13,
4.492,-0.25,1.61,-1.68,-0.46,-0.73,0.13,
4.493,-0.25,1.61,-1.68,-0.49,-0.75,0.14,
4.494,-0.25,1.61,-1.68,-0.56,-0.78,0.16,
4.494,-0.25,1.61,-1.68,-0.59,-0.79,0.16,
4.541,-0.25,1.61,-1.68,-0.64,-0.82,0.17,
4.543,-0.25,1.61,-1.68,-0.70,-0.85,0.19,
4.543,-0.10,1.88,-2.29,-0.70,-0.85,0.19,
4.544,-0.10,1.88,-2.29,-0.75,-0.87,0.20,
4.545,-0.10,1.88,-2.29,-0.84,-0.91,0.21,
4.547,-0.10,1.88,-2.29,-0.87,-0.93,0.22,
4.548,-0.10,1.88,-2.29,-0.92,-0.95,0.23,
4.549,-0.10,1.88,-2.29,-0.98,-0.96,0.24,
4.551,0.31,2.11,-2.44,-0.98,-0.96,0.24,
4.552,0.31,2.11,-2.44,-1.04,-0.96,0.25,
4.553,0.31,2.11,-2.44,-1.11,-0.96,0.26,
4.553,0.31,2.11,-2.44,-1.13,-0.95,0.27,
4.554,0.31,2.11,-2.44,-1.17,-0.93,0.28,
4.555,0.31,2.11,-2.44,-1.21,-0.90,0.29,
4.556,0.64,2.37,-1.93,-1.21,-0.90,0.29,
4.557,0.64,2.37,-1.93,-1.23,-0.86,0.30,
4.559,0.64,2.37,-1.93,-1.25,-0.79,0.31,
4.561,0.64,2.37,-1.93,-1.26,-0.76,0.32,
4.563,0.64,2.37,-1.93,-1.26,-0.71,0.33,
4.564,0.64,2.37,-1.93,-1.26,-0.66,0.34,
4.566,0.67,2.79,-0.88,-1.26,-0.66,0.34,
4.568,0.67,2.79,-0.88,-1.25,-0.62,0.35,
4.57,0.67,2.79,-0.88,-1.22,-0.57,0.37,
4.573,0.67,2.79,-0.88,-1.21,-0.56,0.37,
4.574,0.67,2.79,-0.88,-1.20,-0.56,0.38,
4.576,0.67,2.79,-0.88,-1.18,-0.58,0.39,
4.576,0.23,3.21,-0.65,-1.18,-0.58,0.39,
4.576,0.23,3.21,-0.65,-1.16,-0.60,0.40,
4.577,0.23,3.21,-0.65,-1.15,-0.67,0.41,
4.577,0.23,3.21,-0.65,-1.14,-0.70,0.41,
4.577,0.23,3.21,-0.65,-1.14,-0.75,0.43,
4.578,0.23,3.21,-0.65,-1.14,-0.81,0.44,
4.578,-0.60,3.44,-1.65,-1.14,-0.81,0.44,
4.579,-0.60,3.44,-1.65,-1.15,-0.86,0.46,
4.579,-0.60,3.44,-1.65,-1.17,-0.92,0.49,
4.579,-0.60,3.44,-1.65,-1.19,-0.94,0.50,
4.58,-0.60,3.44,-1.65,-1.22,-0.96,0.52,
4.58,-0.60,3.44,-1.65,-1.26,-0.98,0.55,
4.58,-1.25,3.41,-3.39,-1.26,-0.98,0.55,
4.581,-1.25,3.41,-3.39,-1.31,-0.98,0.58,
4.581,-1.25,3.41,-3.39,-1.40,-0.98,0.63,
4.581,-1.25,3.41,-3.39,-1.43,-0.97,0.64,
4.582,-1.25,3.41,-3.39,-1.50,-0.95,0.67,
4.582,-1.25,3.41,-3.39,-1.57,-0.94,0.69,
4.582,-0.95,3.14,-4.74,-1.57,-0.94,0.69,
4.583,-0.95,3.14,-4.74,-1.64,-0.92,0.71,
4.583,-0.95,3.14,-4.74,-1.74,-0.87,0.73,
4.583,-0.95,3.14,-4.74,-1.76,-0.85,0.73,
4.584,-0.95,3.14,-4.74,-1.81,-0.81,0.74,
4.584,-0.95,3.14,-4.74,-1.84,-0.76,0.75,
4.584,-0.26,3.16,-4.25,-1.84,-0.76,0.75,
4.585,-0.26,3.16,-4.25,-1.86,-0.70,0.76,
4.585,-0.26,3.16,-4.25,-1.85,-0.59,0.76,
4.585,-0.26,3.16,-4.25,-1.84,-0.55,0.76,
4.586,-0.26,3.16,-4.25,-1.79,-0.46,0.77,
4.586,-0.26,3.16,-4.25,-1.74,-0.36,0.77,
4.586,0.19,3.96,-1.11,-1.74,-0.36,0.77,
4.587,0.19,3.96,-1.11,-1.67,-0.26,0.78,
4.587,0.19,3.96,-1.11,-1.55,-0.11,0.78,
4.587,0.19,3.96,-1.11,-1.51,-0.06,0.78,
4.592,0.19,3.96,-1.11,-1.43,0.05,0.79,
4.593,0.19,3.96,-1.11,-1.35,0.15,0.79,
4.593,0.85,5.47,1.31,-1.35,0.15,0.79,
4.594,0.85,5.47,1.31,-1.28,0.26,0.79,
4.597,0.85,5.47,1.31,-1.19,0.42,0.78,
4.598,0.85,5.47,1.31,-1.17,0.48,0.78,
4.606,0.85,5.47,1.31,-1.13,0.58,0.77,
4.607,0.85,5.47,1.31,-1.10,0.69,0.76,
4.608,1.95,6.56,1.50,-1.10,0.69,0.76,
4.608,1.95,6.56,1.50,-1.09,0.79,0.74,
4.609,1.95,6.56,1.50,-1.09,0.93,0.71,
4.609,1.95,6.56,1.50,-1.10,0.97,0.69,
4.609,1.95,6.56,1.50,-1.11,1.05,0.66,
4.612,1.95,6.56,1.50,-1.12,1.12,0.62,
4.613,3.09,6.65,1.59,-1.12,1.12,0.62,
4.613,3.09,6.65,1.59,-1.13,1.16,0.59,
4.624,3.09,6.65,1.59,-1.15,1.21,0.52,
4.625,3.09,6.65,1.59,-1.16,1.21,0.50,
4.625,3.09,6.65,1.59,-1.16,1.20,0.45,
4.626,3.09,6.65,1.59,-1.17,1.16,0.41,
4.626,3.14,6.48,2.34,-1.17,1.16,0.41,
4.626,3.14,6.48,2.34,-1.17,1.11,0.38,
4.627,3.14,6.48,2.34,-1.16,0.98,0.32,
4.627,3.14,6.48,2.34,-1.16,0.93,0.31,
4.653,3.14,6.48,2.34,-1.15,0.81,0.29,
4.654,3.14,6.48,2.34,-1.14,0.68,0.27,
4.654,2.37,6.79,2.98,-1.14,0.68,0.27,
4.655,2.37,6.79,2.98,-1.12,0.45,0.26,
4.655,2.37,6.79,2.98,-1.10,0.29,0.26,
4.655,2.37,6.79,2.98,-1.10,0.22,0.27,
4.656,2.37,6.79,2.98,-1.08,0.07,0.28,
4.656,2.37,6.79,2.98,-1.07,-0.07,0.30,
4.656,1.75,7.63,2.82,-1.07,-0.07,0.30,
4.657,1.75,7.63,2.82,-1.05,-0.19,0.32,
4.657,1.75,7.63,2.82,-1.02,-0.33,0.35,
4.658,1.75,7.63,2.82,-1.01,-0.36,0.36,
4.658,1.75,7.63,2.82,-0.98,-0.40,0.38,
4.658,1.75,7.63,2.82,-0.96,-0.41,0.39,
4.658,2.23,8.31,3.31,-0.96,-0.41,0.39,
4.659,2.23,8.31,3.31,-0.92,-0.39,0.39,
4.686,2.23,8.31,3.31,-0.86,-0.32,0.39,
4.687,2.23,8.31,3.31,-0.84,-0.29,0.39,
4.687,2.23,8.31,3.31,-0.80,-0.21,0.38,
4.688,2.23,8.31,3.31,-0.75,-0.12,0.36,
4.688,3.10,8.44,3.96,-0.75,-0.12,0.36,
4.689,3.10,8.44,3.96,-0.71,-0.03,0.34,
4.689,3.10,8.44,3.96,-0.62,0.10,0.30,
4.69,3.10,8.44,3.96,-0.60,0.15,0.29,
4.69,3.10,8.44,3.96,-0.55,0.24,0.27,
4.691,3.10,8.44,3.96,-0.50,0.31,0.24,
4.691,3.50,8.10,4.74,-0.50,0.31,0.24,
4.692,3.50,8.10,4.74,-0.45,0.38,0.21,
4.692,3.50,8.10,4.74,-0.29,0.50,0.15,
4.693,3.50,8.10,4.74,-0.29,0.50,0.15,
4.693,3.50,8.10,4.74,-0.29,0.50,0.15,
4.693,3.50,8.10,4.74,-0.26,0.52,0.13,
4.694,2.95,7.77,4.33,-0.26,0.52,0.13,
4.694,2.95,7.77,4.33,-0.23,0.51,0.11,
4.695,2.95,7.77,4.33,-0.20,0.45,0.09,
4.695,2.95,7.77,4.33,-0.20,0.42,0.08,
4.696,2.95,7.77,4.33,-0.21,0.35,0.06,
4.696,2.95,7.77,4.33,-0.22,0.26,0.05,
4.697,2.09,7.29,2.50,-0.22,0.26,0.05,
4.697,2.09,7.29,2.50,-0.25,0.16,0.04,
4.698,2.09,7.29,2.50,-0.31,0.01,0.03,
4.698,2.09,7.29,2.50,-0.33,-0.04,0.02,
4.698,2.09,7.29,2.50,-0.37,-0.13,0.02,
4.703,2.09,7.29,2.50,-0.41,-0.19,0.01,
4.704,0.95,6.68,0.83,-0.41,-0.19,0.01,
4.705,0.95,6.68,0.83,-0.45,-0.24,0.01,
4.705,0.95,6.68,0.83,-0.50,-0.28,0.01,
4.706,0.95,6.68,0.83,-0.52,-0.29,0.01,
4.71,0.95,6.68,0.83,-0.54,-0.29,0.01,
4.711,0.95,6.68,0.83,-0.56,-0.29,0.00,
4.714,0.33,6.36,0.89,-0.56,-0.29,0.00,
4.715,0.33,6.36,0.89,-0.56,-0.28,-0.01,
4.716,0.33,6.36,0.89,-0.56,-0.26,-0.02,
4.72,0.33,6.36,0.89,-0.56,-0.26,-0.02,
4.721,0.33,6.36,0.89,-0.55,-0.25,-0.04,
4.722,0.33,6.36,0.89,-0.54,-0.24,-0.05,
4.722,0.80,6.39,1.44,-0.54,-0.24,-0.05,
4.723,0.80,6.39,1.44,-0.52,-0.24,-0.07,
4.726,0.80,6.39,1.44,-0.50,-0.24,-0.09,
4.726,0.80,6.39,1.44,-0.49,-0.24,-0.09,
4.73,0.80,6.39,1.44,-0.48,-0.25,-0.10,
4.731,0.80,6.39,1.44,-0.46,-0.26,-0.11,
4.735,1.19,6.58,1.60,-0.46,-0.26,-0.11,
4.737,1.19,6.58,1.60,-0.45,-0.26,-0.12,
4.737,1.19,6.58,1.60,-0.41,-0.26,-0.14,
4.738,1.19,6.58,1.60,-0.40,-0.25,-0.15,
4.738,1.19,6.58,1.60,-0.37,-0.22,-0.17,
4.742,1.19,6.58,1.60,-0.33,-0.20,-0.19,
4.743,1.80,7.66,2.14,-0.33,-0.20,-0.19,
4.744,1.80,7.66,2.14,-0.29,-0.18,-0.21,
4.747,1.80,7.66,2.14,-0.23,-0.18,-0.24,
4.748,1.80,7.66,2.14,-0.21,-0.19,-0.25,
4.748,1.80,7.66,2.14,-0.18,-0.20,-0.28,
4.753,1.80,7.66,2.14,-0.14,-0.23,-0.30,
4.754,2.97,9.47,3.04,-0.14,-0.23,-0.30,
4.755,2.97,9.47,3.04,-0.11,-0.25,-0.32,
4.755,2.97,9.47,3.04,-0.08,-0.27,-0.36,
4.756,2.97,9.47,3.04,-0.07,-0.28,-0.37,
4.758,2.97,9.47,3.04,-0.05,-0.29,-0.39,
4.76,2.97,9.47,3.04,-0.03,-0.28,-0.40,
4.762,2.92,10.28,3.03,-0.03,-0.28,-0.40,
4.762,2.92,10.28,3.03,0.01,-0.27,-0.40,
4.768,2.92,10.28,3.03,0.07,-0.23,-0.36,
4.768,2.92,10.28,3.03,0.10,-0.22,-0.34,
4.769,2.92,10.28,3.03,0.15,-0.19,-0.25,
4.78,2.92,10.28,3.03,0.20,-0.16,-0.15,
4.797,-0.50,7.87,4.77,0.20,-0.16,-0.15,
4.798,-0.50,7.87,4.77,0.24,-0.12,-0.04,
4.799,-0.50,7.87,4.77,0.29,-0.03,0.09,
4.799,-0.50,7.87,4.77,0.32,0.00,0.12,
4.8,-0.50,7.87,4.77,0.38,0.10,0.18,
4.8,-0.50,7.87,4.77,0.45,0.21,0.22,
4.8,-1.90,0.75,6.54,0.45,0.21,0.22,
4.801,-1.90,0.75,6.54,0.53,0.34,0.25,
4.801,-1.90,0.75,6.54,0.68,0.53,0.28,
4.801,-1.90,0.75,6.54,0.74,0.59,0.28,
4.801,-1.90,0.75,6.54,0.86,0.71,0.28,
4.802,-1.90,0.75,6.54,0.98,0.80,0.28,
4.802,-1.92,-4.94,10.11,0.98,0.80,0.28,
4.803,-1.92,-4.94,10.11,1.10,0.87,0.28,
4.803,-1.92,-4.94,10.11,1.28,0.91,0.30,
4.803,-1.92,-4.94,10.11,1.34,0.91,0.30,
4.804,-1.92,-4.94,10.11,1.46,0.89,0.33,
4.804,-1.92,-4.94,10.11,1.58,0.86,0.37,
4.804,-2.91,-10.34,12.60,1.58,0.86,0.37,
4.805,-2.91,-10.34,12.60,1.70,0.80,0.43,
4.805,-2.91,-10.34,12.60,1.87,0.67,0.53,
4.808,-2.91,-10.34,12.60,1.93,0.61,0.57,
4.809,-2.91,-10.34,12.60,2.04,0.50,0.64,
4.813,-2.91,-10.34,12.60,2.15,0.37,0.69,
4.813,-4.15,-14.65,14.68,2.15,0.37,0.69,
4.814,-4.15,-14.65,14.68,2.24,0.24,0.75,
4.817,-4.15,-14.65,14.68,2.37,0.03,0.82,
4.818,-4.15,-14.65,14.68,2.40,-0.05,0.84,
4.818,-4.15,-14.65,14.68,2.47,-0.19,0.87,
4.821,-4.15,-14.65,14.68,2.51,-0.32,0.90,
4.849,-4.79,-16.85,15.00,2.51,-0.32,0.90,
4.85,-4.79,-16.85,15.00,2.54,-0.44,0.92,
4.85,-4.79,-16.85,15.00,2.56,-0.63,0.93,
4.851,-4.79,-16.85,15.00,2.55,-0.70,0.93,
4.851,-4.79,-16.85,15.00,2.52,-0.84,0.93,
4.851,-4.79,-16.85,15.00,2.47,-0.97,0.92,
4.852,-5.47,-16.79,13.22,2.47,-0.97,0.92,
4.853,-5.47,-16.79,13.22,2.40,-1.09,0.92,
4.853,-5.47,-16.79,13.22,2.24,-1.25,0.92,
4.853,-5.47,-16.79,13.22,2.17,-1.30,0.93,
4.854,-5.47,-16.79,13.22,2.03,-1.38,0.95,
4.854,-5.47,-16.79,13.22,1.87,-1.45,0.98,
4.855,-7.09,-17.41,9.03,1.87,-1.45,0.98,
4.855,-7.09,-17.41,9.03,1.69,-1.50,1.03,
4.856,-7.09,-17.41,9.03,1.42,-1.53,1.14,
4.856,-7.09,-17.41,9.03,1.32,-1.53,1.18,
4.857,-7.09,-17.41,9.03,1.13,-1.53,1.28,
4.857,-7.09,-17.41,9.03,0.94,-1.51,1.39,
4.858,-9.90,-19.96,5.92,0.94,-1.51,1.39,
4.858,-9.90,-19.96,5.92,0.77,-1.47,1.50,
4.859,-9.90,-19.96,5.92,0.51,-1.42,1.67,
4.859,-9.90,-19.96,5.92,0.43,-1.40,1.72,
4.86,-9.90,-19.96,5.92,0.27,-1.38,1.84,
4.86,-9.90,-19.96,5.92,0.12,-1.36,1.95,
4.865,-11.29,-24.45,4.39,0.12,-1.36,1.95,
4.868,-11.29,-24.45,4.39,-0.03,-1.34,2.06,
4.868,-11.29,-24.45,4.39,-0.24,-1.35,2.19,
4.869,-11.29,-24.45,4.39,-0.31,-1.35,2.23,
4.869,-11.29,-24.45,4.39,-0.44,-1.38,2.29,
4.872,-11.29,-24.45,4.39,-0.55,-1.42,2.33,
4.874,-11.31,-30.17,2.31,-0.55,-1.42,2.33,
4.875,-11.31,-30.17,2.31,-0.65,-1.50,2.34,
4.875,-11.31,-30.17,2.31,-0.75,-1.66,2.29,
4.876,-11.31,-30.17,2.31,-0.78,-1.73,2.25,
4.88,-11.31,-30.17,2.31,-0.81,-1.88,2.16,
4.881,-11.31,-30.17,2.31,-0.82,-2.03,2.03,
4.886,-10.68,-34.85,0.81,-0.82,-2.03,2.03,
4.887,-10.68,-34.85,0.81,-0.80,-2.18,1.88,
4.888,-10.68,-34.85,0.81,-0.72,-2.36,1.61,
4.889,-10.68,-34.85,0.81,-0.68,-2.40,1.52,
4.889,-10.68,-34.85,0.81,-0.58,-2.49,1.35,
4.89,-10.68,-34.85,0.81,-0.45,-2.54,1.20,
4.892,-9.72,-36.04,-0.81,-0.45,-2.54,1.20,
4.893,-9.72,-36.04,-0.81,-0.30,-2.56,1.08,
4.895,-9.72,-36.04,-0.81,-0.05,-2.53,0.95,
4.896,-9.72,-36.04,-0.81,0.05,-2.52,0.93,
4.9,-9.72,-36.04,-0.81,0.26,-2.48,0.89,
4.9,-9.72,-36.04,-0.81,0.49,-2.42,0.87,
4.903,-8.49,-34.09,-2.63,0.49,-2.42,0.87,
4.903,-8.49,-34.09,-2.63,0.73,-2.32,0.86,
4.905,-8.49,-34.09,-2.63,1.07,-2.12,0.85,
4.906,-8.49,-34.09,-2.63,1.18,-2.06,0.85,
4.908,-8.49,-34.09,-2.63,1.39,-1.94,0.84,
4.912,-8.49,-34.09,-2.63,1.58,-1.85,0.83,
4.912,-6.27,-30.33,-5.20,1.58,-1.85,0.83,
4.913,-6.27,-30.33,-5.20,1.75,-1.79,0.81,
4.922,-6.27,-30.33,-5.20,1.95,-1.76,0.77,
4.923,-6.27,-30.33,-5.20,2.01,-1.76,0.74,
4.923,-6.27,-30.33,-5.20,2.13,-1.77,0.69,
4.924,-6.27,-30.33,-5.20,2.24,-1.81,0.62,
4.924,-3.55,-25.68,-7.63,2.24,-1.81,0.62,
4.925,-3.55,-25.68,-7.63,2.35,-1.88,0.55,
4.931,-3.55,-25.68,-7.63,2.54,-2.05,0.44,
4.932,-3.55,-25.68,-7.63,2.60,-2.12,0.40,
4.932,-3.55,-25.68,-7.63,2.75,-2.29,0.33,
4.933,-3.55,-25.68,-7.63,2.91,-2.48,0.26,
4.933,-3.12,-20.32,-7.82,2.91,-2.48,0.26,
4.934,-3.12,-20.32,-7.82,3.08,-2.68,0.18,
4.945,-3.12,-20.32,-7.82,3.36,-2.94,0.05,
4.95,-3.12,-20.32,-7.82,3.47,-2.99,0.02,
4.95,-3.12,-20.32,-7.82,3.68,-3.08,-0.04,
4.951,-3.12,-20.32,-7.82,3.89,-3.13,-0.08,
4.951,-2.94,-10.23,-9.35,3.89,-3.13,-0.08,
4.952,-2.94,-10.23,-9.35,4.09,-3.17,-0.11,
4.952,-2.94,-10.23,-9.35,4.37,-3.23,-0.15,
4.953,-2.94,-10.23,-9.35,4.47,-3.26,-0.17,
4.953,-2.94,-10.23,-9.35,4.65,-3.32,-0.19,
4.954,-2.94,-10.23,-9.35,4.82,-3.39,-0.22,
4.954,-1.90,1.15,-11.22,4.82,-3.39,-0.22,
4.954,-1.90,1.15,-11.22,4.99,-3.46,-0.27,
4.956,-1.90,1.15,-11.22,5.23,-3.51,-0.36,
4.957,-1.90,1.15,-11.22,5.30,-3.52,-0.40,
4.96,-1.90,1.15,-11.22,5.44,-3.51,-0.49,
4.961,-1.90,1.15,-11.22,5.59,-3.48,-0.60,
4.962,-0.18,9.54,-10.85,5.59,-3.48,-0.60,
4.962,-0.18,9.54,-10.85,5.73,-3.45,-0.72,
4.965,-0.18,9.54,-10.85,5.97,-3.42,-0.91,
4.966,-0.18,9.54,-10.85,6.05,-3.41,-0.98,
4.968,-0.18,9.54,-10.85,6.25,-3.40,-1.10,
4.971,-0.18,9.54,-10.85,6.45,-3.40,-1.22,
4.975,-0.43,11.99,-8.82,6.45,-3.40,-1.22,
4.976,-0.43,11.99,-8.82,6.66,-3.41,-1.34,
4.976,-0.43,11.99,-8.82,6.98,-3.44,-1.50,
4.977,-0.43,11.99,-8.82,7.09,-3.45,-1.55,
4.98,-0.43,11.99,-8.82,7.28,-3.47,-1.64,
4.981,-0.43,11.99,-8.82,7.46,-3.47,-1.73,
4.985,-1.43,8.89,-8.00,7.46,-3.47,-1.73,
4.986,-1.43,8.89,-8.00,7.69,-3.43,-1.85,
4.987,-1.43,8.89,-8.00,7.86,-3.36,-1.96,
4.987,-1.43,8.89,-8.00,7.91,-3.33,-1.99,
5.015,-1.43,8.89,-8.00,7.94,-3.30,-2.02,
5.016,-1.43,8.89,-8.00,7.99,-3.23,-2.07,
5.016,-1.10,5.25,-9.88,7.99,-3.23,-2.07,
5.017,-1.10,5.25,-9.88,8.01,-3.17,-2.12,
5.018,-1.10,5.25,-9.88,8.00,-3.07,-2.18,
5.018,-1.10,5.25,-9.88,7.99,-3.04,-2.20,
5.019,-1.10,5.25,-9.88,7.95,-3.00,-2.23,
5.019,-1.10,5.25,-9.88,7.90,-2.96,-2.28,
5.02,0.78,2.98,-10.86,7.90,-2.96,-2.28,
