
time,ax,ay,az,wx,wy,wz,
0.002,-0.32,0.03,-1.35,-0.53,-0.69,-0.13,
0.002,-0.32,0.03,-1.35,-0.57,-0.70,-0.12,
0.003,-0.32,0.03,-1.35,-0.60,-0.71,-0.12,
0.003,-0.32,0.03,-1.35,-0.64,-0.72,-0.12,
0.003,-0.32,0.03,-1.35,-0.68,-0.73,-0.11,
0.003,-0.32,0.03,-1.35,-0.72,-0.73,-0.11,
0.007,-0.17,-0.18,-1.68,-0.72,-0.73,-0.11,
0.007,-0.17,-0.18,-1.68,-0.75,-0.74,-0.10,
0.007,-0.17,-0.18,-1.68,-0.80,-0.74,-0.10,
0.008,-0.17,-0.18,-1.68,-0.84,-0.75,-0.09,
0.01,-0.17,-0.18,-1.68,-0.88,-0.75,-0.09,
0.012,-0.17,-0.18,-1.68,-0.92,-0.76,-0.09,
0.014,-0.03,-0.46,-1.90,-0.92,-0.76,-0.09,
0.015,-0.03,-0.46,-1.90,-0.96,-0.77,-0.08,
0.016,-0.03,-0.46,-1.90,-0.99,-0.78,-0.08,
0.018,-0.03,-0.46,-1.90,-1.03,-0.80,-0.09,
0.029,-0.03,-0.46,-1.90,-1.07,-0.82,-0.09,
0.03,-0.03,-0.46,-1.90,-1.10,-0.83,-0.09,
0.03,0.26,-0.58,-1.81,-1.10,-0.83,-0.09,
0.032,0.26,-0.58,-1.81,-1.13,-0.84,-0.10,
0.032,0.26,-0.58,-1.81,-1.16,-0.86,-0.10,
0.032,0.26,-0.58,-1.81,-1.19,-0.87,-0.11,
0.032,0.26,-0.58,-1.81,-1.21,-0.88,-0.12,
0.032,0.26,-0.58,-1.81,-1.24,-0.89,-0.13,
0.034,0.56,-0.57,-1.55,-1.24,-0.89,-0.13,
0.035,0.56,-0.57,-1.55,-1.25,-0.90,-0.14,
0.037,0.56,-0.57,-1.55,-1.27,-0.91,-0.15,
0.038,0.56,-0.57,-1.55,-1.29,-0.91,-0.16,
0.04,0.56,-0.57,-1.55,-1.30,-0.89,-0.19,
0.043,0.56,-0.57,-1.55,-1.32,-0.88,-0.20,
0.044,0.63,-0.52,-1.25,-1.32,-0.88,-0.20,
0.045,0.63,-0.52,-1.25,-1.34,-0.88,-0.22,
0.051,0.63,-0.52,-1.25,-1.35,-0.88,-0.24,
0.051,0.63,-0.52,-1.25,-1.35,-0.87,-0.25,
0.051,0.63,-0.52,-1.25,-1.35,-0.88,-0.27,
0.052,0.63,-0.52,-1.25,-1.36,-0.88,-0.29,
0.078,0.62,-0.49,-1.04,-1.36,-0.88,-0.29,
0.078,0.62,-0.49,-1.04,-1.35,-0.89,-0.31,
0.078,0.62,-0.49,-1.04,-1.35,-0.90,-0.32,
0.079,0.62,-0.49,-1.04,-1.35,-0.91,-0.33,
0.079,0.62,-0.49,-1.04,-1.34,-0.92,-0.35,
0.079,0.62,-0.49,-1.04,-1.33,-0.93,-0.37,
0.079,0.50,-0.44,-1.05,-1.33,-0.93,-0.37,
0.079,0.50,-0.44,-1.05,-1.33,-0.94,-0.38,
0.079,0.50,-0.44,-1.05,-1.32,-0.95,-0.40,
0.08,0.50,-0.44,-1.05,-1.31,-0.95,-0.42,
0.08,0.50,-0.44,-1.05,-1.30,-0.95,-0.43,
0.08,0.50,-0.44,-1.05,-1.29,-0.96,-0.46,
0.08,0.35,-0.25,-1.21,-1.29,-0.96,-0.46,
0.08,0.35,-0.25,-1.21,-1.27,-0.95,-0.48,
0.08,0.35,-0.25,-1.21,-1.26,-0.95,-0.50,
0.08,0.35,-0.25,-1.21,-1.25,-0.95,-0.52,
0.081,0.35,-0.25,-1.21,-1.23,-0.95,-0.54,
0.085,0.35,-0.25,-1.21,-1.22,-0.94,-0.57,
0.085,0.06,-0.07,-1.38,-1.22,-0.94,-0.57,
0.085,0.06,-0.07,-1.38,-1.19,-0.93,-0.59,
0.088,0.06,-0.07,-1.38,-1.17,-0.92,-0.61,
0.089,0.06,-0.07,-1.38,-1.14,-0.91,-0.63,
0.091,0.06,-0.07,-1.38,-1.11,-0.91,-0.66,
0.092,0.06,-0.07,-1.38,-1.08,-0.90,-0.68,
0.095,-0.14,0.05,-1.35,-1.08,-0.90,-0.68,
0.095,-0.14,0.05,-1.35,-1.04,-0.89,-0.70,
0.096,-0.14,0.05,-1.35,-1.00,-0.89,-0.72,
0.098,-0.14,0.05,-1.35,-0.96,-0.87,-0.73,
0.101,-0.14,0.05,-1.35,-0.91,-0.87,-0.74,
0.102,-0.14,0.05,-1.35,-0.86,-0.86,-0.74,
0.105,-0.66,0.18,-1.19,-0.86,-0.86,-0.74,
0.105,-0.66,0.18,-1.19,-0.81,-0.85,-0.73,
0.106,-0.66,0.18,-1.19,-0.76,-0.84,-0.72,
0.117,-0.66,0.18,-1.19,-0.72,-0.82,-0.70,
0.117,-0.66,0.18,-1.19,-0.68,-0.82,-0.68,
0.117,-0.66,0.18,-1.19,-0.65,-0.81,-0.66,
0.118,-1.23,0.46,-1.64,-0.65,-0.81,-0.66,
0.118,-1.23,0.46,-1.64,-0.62,-0.81,-0.63,
0.118,-1.23,0.46,-1.64,-0.60,-0.82,-0.60,
0.144,-1.23,0.46,-1.64,-0.59,-0.84,-0.57,
0.144,-1.23,0.46,-1.64,-0.58,-0.86,-0.54,
0.144,-1.23,0.46,-1.64,-0.58,-0.88,-0.51,
0.145,-1.16,0.59,-2.28,-0.58,-0.88,-0.51,
0.145,-1.16,0.59,-2.28,-0.58,-0.90,-0.47,
0.145,-1.16,0.59,-2.28,-0.60,-0.92,-0.44,
0.145,-1.16,0.59,-2.28,-0.61,-0.94,-0.40,
0.146,-1.16,0.59,-2.28,-0.64,-0.96,-0.37,
0.146,-1.16,0.59,-2.28,-0.67,-0.98,-0.34,
0.146,-0.98,0.44,-3.04,-0.67,-0.98,-0.34,
0.146,-0.98,0.44,-3.04,-0.70,-0.99,-0.30,
0.147,-0.98,0.44,-3.04,-0.74,-1.00,-0.27,
0.147,-0.98,0.44,-3.04,-0.78,-1.01,-0.24,
0.147,-0.98,0.44,-3.04,-0.83,-1.00,-0.22,
0.147,-0.98,0.44,-3.04,-0.88,-1.00,-0.19,
0.148,-0.52,0.07,-3.66,-0.88,-1.00,-0.19,
0.148,-0.52,0.07,-3.66,-0.93,-0.99,-0.17,
0.148,-0.52,0.07,-3.66,-0.99,-0.98,-0.15,
0.149,-0.52,0.07,-3.66,-1.04,-0.97,-0.14,
0.156,-0.52,0.07,-3.66,-1.10,-0.95,-0.13,
0.156,-0.52,0.07,-3.66,-1.15,-0.94,-0.13,
0.156,0.17,-0.39,-4.09,-1.15,-0.94,-0.13,
0.157,0.17,-0.39,-4.09,-1.21,-0.92,-0.13,
0.157,0.17,-0.39,-4.09,-1.27,-0.90,-0.13,
0.198,0.17,-0.39,-4.09,-1.32,-0.88,-0.14,
0.199,0.17,-0.39,-4.09,-1.37,-0.86,-0.16,
0.199,0.17,-0.39,-4.09,-1.42,-0.83,-0.17,
0.199,0.79,-0.98,-4.36,-1.42,-0.83,-0.17,
0.2,0.79,-0.98,-4.36,-1.47,-0.82,-0.19,
0.2,0.79,-0.98,-4.36,-1.52,-0.80,-0.22,
0.2,0.79,-0.98,-4.36,-1.56,-0.79,-0.25,
0.2,0.79,-0.98,-4.36,-1.60,-0.78,-0.28,
0.2,0.79,-0.98,-4.36,-1.64,-0.77,-0.32,
0.201,1.39,-1.39,-4.26,-1.64,-0.77,-0.32,
0.201,1.39,-1.39,-4.26,-1.67,-0.76,-0.36,
0.201,1.39,-1.39,-4.26,-1.70,-0.76,-0.40,
0.201,1.39,-1.39,-4.26,-1.73,-0.76,-0.45,
0.201,1.39,-1.39,-4.26,-1.75,-0.77,-0.50,
0.201,1.39,-1.39,-4.26,-1.77,-0.78,-0.56,
0.202,1.90,-1.81,-3.79,-1.77,-0.78,-0.56,
0.202,1.90,-1.81,-3.79,-1.80,-0.82,-0.62,
0.202,1.90,-1.81,-3.79,-1.83,-0.91,-0.68,
0.202,1.90,-1.81,-3.79,-1.86,-1.06,-0.75,
0.202,1.90,-1.81,-3.79,-1.91,-1.22,-0.83,
0.203,1.90,-1.81,-3.79,-1.95,-1.31,-0.90,
0.203,1.97,-2.40,-3.06,-1.95,-1.31,-0.90,
0.203,1.97,-2.40,-3.06,-1.99,-1.34,-0.97,
0.203,1.97,-2.40,-3.06,-2.02,-1.34,-1.04,
0.203,1.97,-2.40,-3.06,-2.05,-1.35,-1.10,
0.204,1.97,-2.40,-3.06,-2.08,-1.37,-1.16,
0.204,1.97,-2.40,-3.06,-2.10,-1.40,-1.21,
0.212,1.56,-2.56,-3.25,-2.10,-1.40,-1.21,
0.212,1.56,-2.56,-3.25,-2.13,-1.42,-1.27,
0.212,1.56,-2.56,-3.25,-2.15,-1.44,-1.32,
0.213,1.56,-2.56,-3.25,-2.18,-1.44,-1.37,
0.213,1.56,-2.56,-3.25,-2.21,-1.42,-1.43,
0.213,1.56,-2.56,-3.25,-2.23,-1.40,-1.47,
0.215,0.90,-2.62,-3.40,-2.23,-1.40,-1.47,
0.215,0.90,-2.62,-3.40,-2.24,-1.37,-1.52,
0.216,0.90,-2.62,-3.40,-2.25,-1.35,-1.57,
0.219,0.90,-2.62,-3.40,-2.26,-1.35,-1.62,
0.221,0.90,-2.62,-3.40,-2.26,-1.34,-1.67,
0.223,0.90,-2.62,-3.40,-2.26,-1.33,-1.72,
0.225,0.93,-2.18,-3.17,-2.26,-1.33,-1.72,
0.226,0.93,-2.18,-3.17,-2.26,-1.32,-1.76,
0.226,0.93,-2.18,-3.17,-2.25,-1.31,-1.80,
0.228,0.93,-2.18,-3.17,-2.25,-1.31,-1.85,
0.23,0.93,-2.18,-3.17,-2.25,-1.30,-1.88,
0.232,0.93,-2.18,-3.17,-2.24,-1.31,-1.92,
0.235,0.91,-1.79,-3.08,-2.24,-1.31,-1.92,
0.235,0.91,-1.79,-3.08,-2.23,-1.31,-1.95,
0.245,0.91,-1.79,-3.08,-2.23,-1.32,-1.98,
0.246,0.91,-1.79,-3.08,-2.22,-1.33,-2.00,
0.246,0.91,-1.79,-3.08,-2.22,-1.34,-2.02,
0.246,0.91,-1.79,-3.08,-2.21,-1.35,-2.04,
0.246,0.50,-1.76,-3.00,-2.21,-1.35,-2.04,
0.246,0.50,-1.76,-3.00,-2.21,-1.35,-2.06,
0.247,0.50,-1.76,-3.00,-2.20,-1.36,-2.07,
0.248,0.50,-1.76,-3.00,-2.20,-1.36,-2.09,
0.251,0.50,-1.76,-3.00,-2.19,-1.36,-2.11,
0.253,0.50,-1.76,-3.00,-2.19,-1.35,-2.12,
0.256,0.11,-2.00,-2.78,-2.19,-1.35,-2.12,
0.256,0.11,-2.00,-2.78,-2.18,-1.35,-2.13,
0.257,0.11,-2.00,-2.78,-2.18,-1.33,-2.15,
0.259,0.11,-2.00,-2.78,-2.18,-1.31,-2.17,
0.261,0.11,-2.00,-2.78,-2.18,-1.29,-2.19,
0.264,0.11,-2.00,-2.78,-2.18,-1.26,-2.20,
0.269,-0.05,-2.19,-2.56,-2.18,-1.26,-2.20,
0.269,-0.05,-2.19,-2.56,-2.18,-1.22,-2.22,
0.269,-0.05,-2.19,-2.56,-2.18,-1.18,-2.24,
0.269,-0.05,-2.19,-2.56,-2.18,-1.14,-2.25,
0.29,-0.05,-2.19,-2.56,-2.17,-1.09,-2.27,
0.29,-0.05,-2.19,-2.56,-2.17,-1.04,-2.28,
0.29,-0.23,-2.20,-2.02,-2.17,-1.04,-2.28,
0.308,-0.23,-2.20,-2.02,-2.16,-0.98,-2.29,
0.309,-0.23,-2.20,-2.02,-2.15,-0.93,-2.30,
0.309,-0.23,-2.20,-2.02,-2.14,-0.88,-2.30,
0.309,-0.23,-2.20,-2.02,-2.14,-0.84,-2.31,
0.309,-0.23,-2.20,-2.02,-2.13,-0.80,-2.32,
0.309,-0.34,-1.93,-1.58,-2.13,-0.80,-2.32,
0.309,-0.34,-1.93,-1.58,-2.12,-0.76,-2.32,
0.31,-0.34,-1.93,-1.58,-2.11,-0.73,-2.33,
0.31,-0.34,-1.93,-1.58,-2.10,-0.70,-2.33,
0.31,-0.34,-1.93,-1.58,-2.09,-0.67,-2.34,
0.31,-0.34,-1.93,-1.58,-2.08,-0.65,-2.35,
0.31,-0.10,-1.92,-1.46,-2.08,-0.65,-2.35,
0.311,-0.10,-1.92,-1.46,-2.07,-0.63,-2.36,
0.311,-0.10,-1.92,-1.46,-2.06,-0.61,-2.37,
0.311,-0.10,-1.92,-1.46,-2.05,-0.59,-2.38,
0.311,-0.10,-1.92,-1.46,-2.03,-0.57,-2.38,
0.311,-0.10,-1.92,-1.46,-2.02,-0.56,-2.38,
0.312,-0.15,-1.82,-1.50,-2.02,-0.56,-2.38,
0.312,-0.15,-1.82,-1.50,-2.01,-0.54,-2.38,
0.312,-0.15,-1.82,-1.50,-2.00,-0.52,-2.38,
0.312,-0.15,-1.82,-1.50,-1.99,-0.50,-2.37,
0.312,-0.15,-1.82,-1.50,-1.98,-0.48,-2.36,
0.35,-0.15,-1.82,-1.50,-1.97,-0.46,-2.35,
0.351,-0.46,-1.68,-1.49,-1.97,-0.46,-2.35,
0.351,-0.46,-1.68,-1.49,-1.96,-0.44,-2.34,
0.351,-0.46,-1.68,-1.49,-1.96,-0.41,-2.33,
0.352,-0.46,-1.68,-1.49,-1.95,-0.39,-2.32,
0.352,-0.46,-1.68,-1.49,-1.95,-0.36,-2.31,
0.352,-0.46,-1.68,-1.49,-1.94,-0.33,-2.31,
0.352,-0.11,-1.66,-1.50,-1.94,-0.33,-2.31,
0.352,-0.11,-1.66,-1.50,-1.93,-0.29,-2.30,
0.352,-0.11,-1.66,-1.50,-1.92,-0.24,-2.29,
0.353,-0.11,-1.66,-1.50,-1.92,-0.20,-2.28,
0.353,-0.11,-1.66,-1.50,-1.90,-0.15,-2.28,
0.353,-0.11,-1.66,-1.50,-1.89,-0.10,-2.28,
0.353,0.07,-1.83,-1.20,-1.89,-0.10,-2.28,
0.353,0.07,-1.83,-1.20,-1.88,-0.07,-2.28,
0.354,0.07,-1.83,-1.20,-1.87,-0.03,-2.28,
0.354,0.07,-1.83,-1.20,-1.87,-0.01,-2.28,
0.354,0.07,-1.83,-1.20,-1.87,0.01,-2.29,
0.389,0.07,-1.83,-1.20,-1.88,0.02,-2.30,
0.39,0.38,-1.94,-1.28,-1.88,0.02,-2.30,
0.39,0.38,-1.94,-1.28,-1.90,0.03,-2.31,
0.39,0.38,-1.94,-1.28,-1.92,0.04,-2.33,
0.39,0.38,-1.94,-1.28,-1.95,0.04,-2.34,
0.39,0.38,-1.94,-1.28,-1.98,0.05,-2.36,
0.39,0.38,-1.94,-1.28,-2.01,0.06,-2.38,
0.391,0.81,-2.15,-1.77,-2.01,0.06,-2.38,
0.391,0.81,-2.15,-1.77,-2.05,0.07,-2.40,
0.391,0.81,-2.15,-1.77,-2.10,0.09,-2.42,
0.391,0.81,-2.15,-1.77,-2.14,0.11,-2.44,
0.391,0.81,-2.15,-1.77,-2.18,0.14,-2.46,
0.391,0.81,-2.15,-1.77,-2.23,0.17,-2.47,
0.391,0.81,-2.01,-1.83,-2.23,0.17,-2.47,
0.392,0.81,-2.01,-1.83,-2.27,0.20,-2.48,
0.392,0.81,-2.01,-1.83,-2.32,0.24,-2.49,
0.392,0.81,-2.01,-1.83,-2.36,0.28,-2.50,
0.392,0.81,-2.01,-1.83,-2.40,0.32,-2.51,
0.392,0.81,-2.01,-1.83,-2.44,0.36,-2.51,
0.392,0.82,-1.96,-1.48,-2.44,0.36,-2.51,
0.392,0.82,-1.96,-1.48,-2.48,0.40,-2.52,
0.392,0.82,-1.96,-1.48,-2.52,0.45,-2.52,
0.393,0.82,-1.96,-1.48,-2.56,0.49,-2.53,
0.393,0.82,-1.96,-1.48,-2.60,0.53,-2.54,
0.393,0.82,-1.96,-1.48,-2.63,0.57,-2.54,
0.393,1.04,-1.92,-1.12,-2.63,0.57,-2.54,
0.393,1.04,-1.92,-1.12,-2.66,0.61,-2.55,
0.393,1.04,-1.92,-1.12,-2.69,0.65,-2.55,
0.393,1.04,-1.92,-1.12,-2.71,0.68,-2.56,
0.394,1.04,-1.92,-1.12,-2.74,0.71,-2.57,
0.398,1.04,-1.92,-1.12,-2.76,0.74,-2.58,
0.403,1.46,-2.03,-0.57,-2.76,0.74,-2.58,
0.403,1.46,-2.03,-0.57,-2.77,0.75,-2.58,
0.403,1.46,-2.03,-0.57,-2.79,0.76,-2.59,
0.403,1.46,-2.03,-0.57,-2.81,0.77,-2.60,
0.403,1.46,-2.03,-0.57,-2.82,0.77,-2.62,
0.404,1.46,-2.03,-0.57,-2.83,0.78,-2.63,
0.405,2.00,-2.16,-0.13,-2.83,0.78,-2.63,
0.406,2.00,-2.16,-0.13,-2.84,0.79,-2.64,
0.407,2.00,-2.16,-0.13,-2.85,0.81,-2.66,
0.408,2.00,-2.16,-0.13,-2.85,0.82,-2.67,
0.411,2.00,-2.16,-0.13,-2.85,0.84,-2.69,
0.413,2.00,-2.16,-0.13,-2.84,0.85,-2.71,
0.418,2.20,-2.34,0.54,-2.84,0.85,-2.71,
0.419,2.20,-2.34,0.54,-2.84,0.86,-2.73,
0.419,2.20,-2.34,0.54,-2.83,0.86,-2.75,
0.419,2.20,-2.34,0.54,-2.81,0.86,-2.77,
0.43,2.20,-2.34,0.54,-2.81,0.85,-2.78,
0.43,2.20,-2.34,0.54,-2.80,0.84,-2.80,
0.431,1.69,-2.28,1.22,-2.80,0.84,-2.80,
0.431,1.69,-2.28,1.22,-2.77,0.84,-2.82,
0.431,1.69,-2.28,1.22,-2.77,0.84,-2.82,
0.431,1.69,-2.28,1.22,-2.76,0.85,-2.83,
0.431,1.69,-2.28,1.22,-2.74,0.86,-2.83,
0.435,1.69,-2.28,1.22,-2.73,0.89,-2.84,
0.436,1.27,-2.19,1.73,-2.73,0.89,-2.84,
0.436,1.27,-2.19,1.73,-2.70,0.92,-2.84,
0.444,1.27,-2.19,1.73,-2.68,0.95,-2.83,
0.444,1.27,-2.19,1.73,-2.66,0.99,-2.83,
0.445,1.27,-2.19,1.73,-2.64,1.02,-2.83,
0.462,1.27,-2.19,1.73,-2.62,1.05,-2.82,
0.463,1.04,-1.95,2.59,-2.62,1.05,-2.82,
0.463,1.04,-1.95,2.59,-2.60,1.08,-2.82,
0.463,1.04,-1.95,2.59,-2.59,1.11,-2.81,
0.463,1.04,-1.95,2.59,-2.58,1.14,-2.80,
0.463,1.04,-1.95,2.59,-2.58,1.17,-2.79,
0.464,1.04,-1.95,2.59,-2.58,1.17,-2.78,
0.464,0.83,-1.76,2.84,-2.58,1.17,-2.78,
0.464,0.83,-1.76,2.84,-2.59,1.18,-2.77,
0.464,0.83,-1.76,2.84,-2.60,1.19,-2.76,
0.465,0.83,-1.76,2.84,-2.63,1.19,-2.76,
0.465,0.83,-1.76,2.84,-2.65,1.20,-2.75,
0.465,0.83,-1.76,2.84,-2.68,1.21,-2.74,
0.486,0.69,-1.82,3.01,-2.68,1.21,-2.74,
0.486,0.69,-1.82,3.01,-2.72,1.22,-2.74,
0.487,0.69,-1.82,3.01,-2.76,1.23,-2.74,
0.487,0.69,-1.82,3.01,-2.79,1.25,-2.74,
0.487,0.69,-1.82,3.01,-2.82,1.26,-2.74,
0.487,0.69,-1.82,3.01,-2.86,1.27,-2.75,
0.487,0.73,-2.37,4.03,-2.86,1.27,-2.75,
0.487,0.73,-2.37,4.03,-2.89,1.28,-2.76,
0.487,0.73,-2.37,4.03,-2.91,1.28,-2.78,
0.488,0.73,-2.37,4.03,-2.93,1.27,-2.80,
0.488,0.73,-2.37,4.03,-2.94,1.25,-2.83,
0.488,0.73,-2.37,4.03,-2.94,1.22,-2.86,
0.488,0.52,-2.84,5.81,-2.94,1.22,-2.86,
0.488,0.52,-2.84,5.81,-2.93,1.19,-2.89,
0.493,0.52,-2.84,5.81,-2.90,1.15,-2.92,
0.494,0.52,-2.84,5.81,-2.88,1.11,-2.95,
0.494,0.52,-2.84,5.81,-2.84,1.06,-2.99,
0.496,0.52,-2.84,5.81,-2.80,1.00,-3.03,
0.496,0.36,-2.75,8.08,-2.80,1.00,-3.03,
0.496,0.36,-2.75,8.08,-2.75,0.94,-3.07,
0.497,0.36,-2.75,8.08,-2.71,0.88,-3.10,
0.498,0.36,-2.75,8.08,-2.66,0.81,-3.14,
0.501,0.36,-2.75,8.08,-2.61,0.74,-3.18,
0.502,0.36,-2.75,8.08,-2.56,0.67,-3.21,
0.505,0.32,-2.54,9.35,-2.56,0.67,-3.21,
0.505,0.32,-2.54,9.35,-2.52,0.60,-3.24,
0.514,0.32,-2.54,9.35,-2.47,0.53,-3.26,
0.514,0.32,-2.54,9.35,-2.43,0.46,-3.27,
0.515,0.32,-2.54,9.35,-2.38,0.39,-3.29,
0.515,0.32,-2.54,9.35,-2.34,0.32,-3.29,
0.516,-0.17,-1.98,10.33,-2.34,0.32,-3.29,
0.516,-0.17,-1.98,10.33,-2.30,0.24,-3.29,
0.519,-0.17,-1.98,10.33,-2.26,0.16,-3.28,
0.519,-0.17,-1.98,10.33,-2.22,0.08,-3.27,
0.521,-0.17,-1.98,10.33,-2.18,-0.01,-3.25,
0.522,-0.17,-1.98,10.33,-2.15,-0.10,-3.23,
0.525,-0.91,-1.21,10.73,-2.15,-0.10,-3.23,
0.525,-0.91,-1.21,10.73,-2.12,-0.19,-3.20,
0.527,-0.91,-1.21,10.73,-2.09,-0.28,-3.17,
0.529,-0.91,-1.21,10.73,-2.07,-0.39,-3.15,
0.53,-0.91,-1.21,10.73,-2.06,-0.50,-3.12,
0.532,-0.91,-1.21,10.73,-2.05,-0.61,-3.10,
0.537,-0.72,-0.61,10.65,-2.05,-0.61,-3.10,
0.537,-0.72,-0.61,10.65,-2.04,-0.72,-3.08,
0.537,-0.72,-0.61,10.65,-2.04,-0.82,-3.06,
0.54,-0.72,-0.61,10.65,-2.05,-0.92,-3.05,
0.54,-0.72,-0.61,10.65,-2.06,-1.00,-3.04,
0.542,-0.72,-0.61,10.65,-2.06,-1.08,-3.03,
0.545,-0.26,-0.23,10.28,-2.06,-1.08,-3.03,
0.545,-0.26,-0.23,10.28,-2.07,-1.15,-3.01,
0.547,-0.26,-0.23,10.28,-2.08,-1.20,-3.00,
0.548,-0.26,-0.23,10.28,-2.10,-1.25,-2.99,
0.555,-0.26,-0.23,10.28,-2.10,-1.28,-2.97,
0.555,-0.26,-0.23,10.28,-2.11,-1.31,-2.95,
0.556,-0.37,0.36,10.46,-2.11,-1.31,-2.95,
0.556,-0.37,0.36,10.46,-2.11,-1.32,-2.93,
0.557,-0.37,0.36,10.46,-2.10,-1.33,-2.90,
0.559,-0.37,0.36,10.46,-2.09,-1.33,-2.88,
0.56,-0.37,0.36,10.46,-2.08,-1.32,-2.86,
0.562,-0.37,0.36,10.46,-2.05,-1.32,-2.84,
0.564,-0.22,0.73,11.24,-2.05,-1.32,-2.84,
0.565,-0.22,0.73,11.24,-2.02,-1.31,-2.82,
0.566,-0.22,0.73,11.24,-1.99,-1.30,-2.80,
0.568,-0.22,0.73,11.24,-1.92,-1.29,-2.77,
0.57,-0.22,0.73,11.24,-1.90,-1.29,-2.76,
0.572,-0.22,0.73,11.24,-1.85,-1.29,-2.74,
0.575,-0.11,1.32,12.16,-1.85,-1.29,-2.74,
0.575,-0.11,1.32,12.16,-1.79,-1.29,-2.72,
0.576,-0.11,1.32,12.16,-1.72,-1.30,-2.69,
0.578,-0.11,1.32,12.16,-1.65,-1.31,-2.67,
0.58,-0.11,1.32,12.16,-1.58,-1.33,-2.64,
0.582,-0.11,1.32,12.16,-1.51,-1.37,-2.61,
0.584,-0.02,1.70,12.85,-1.51,-1.37,-2.61,
0.585,-0.02,1.70,12.85,-1.43,-1.41,-2.59,
0.586,-0.02,1.70,12.85,-1.35,-1.45,-2.56,
0.588,-0.02,1.70,12.85,-1.27,-1.50,-2.53,
0.59,-0.02,1.70,12.85,-1.19,-1.55,-2.50,
0.592,-0.02,1.70,12.85,-1.11,-1.61,-2.47,
0.595,-0.15,2.03,12.91,-1.11,-1.61,-2.47,
0.595,-0.15,2.03,12.91,-1.03,-1.67,-2.45,
0.598,-0.15,2.03,12.91,-0.96,-1.73,-2.42,
0.598,-0.15,2.03,12.91,-0.85,-1.83,-2.38,
0.6,-0.15,2.03,12.91,-0.78,-1.89,-2.35,
0.602,-0.15,2.03,12.91,-0.74,-1.93,-2.33,
0.604,-0.59,2.07,12.12,-0.74,-1.93,-2.33,
0.605,-0.59,2.07,12.12,-0.68,-2.00,-2.30,
0.606,-0.59,2.07,12.12,-0.61,-2.06,-2.27,
0.616,-0.59,2.07,12.12,-0.55,-2.13,-2.24,
0.616,-0.59,2.07,12.12,-0.49,-2.19,-2.22,
0.616,-0.59,2.07,12.12,-0.44,-2.25,-2.20,
0.63,-0.89,2.03,10.99,-0.44,-2.25,-2.20,
0.631,-0.89,2.03,10.99,-0.39,-2.31,-2.18,
0.631,-0.89,2.03,10.99,-0.34,-2.36,-2.16,
0.631,-0.89,2.03,10.99,-0.28,-2.43,-2.13,
0.631,-0.89,2.03,10.99,-0.25,-2.45,-2.12,
0.631,-0.89,2.03,10.99,-0.21,-2.49,-2.10,
0.631,-1.11,1.95,9.64,-0.21,-2.49,-2.10,
0.632,-1.11,1.95,9.64,-0.17,-2.53,-2.07,
0.632,-1.11,1.95,9.64,-0.13,-2.56,-2.05,
0.632,-1.11,1.95,9.64,-0.10,-2.59,-2.02,
0.632,-1.11,1.95,9.64,-0.06,-2.61,-1.99,
0.632,-1.11,1.95,9.64,-0.02,-2.64,-1.96,
0.635,-1.80,2.16,8.38,-0.02,-2.64,-1.96,
0.635,-1.80,2.16,8.38,0.01,-2.66,-1.93,
0.636,-1.80,2.16,8.38,0.05,-2.69,-1.90,
0.638,-1.80,2.16,8.38,0.10,-2.73,-1.87,
0.641,-1.80,2.16,8.38,0.12,-2.75,-1.86,
0.642,-1.80,2.16,8.38,0.15,-2.78,-1.83,
0.644,-1.99,2.24,7.00,0.15,-2.78,-1.83,
0.644,-1.99,2.24,7.00,0.18,-2.81,-1.80,
0.646,-1.99,2.24,7.00,0.21,-2.84,-1.78,
0.648,-1.99,2.24,7.00,0.24,-2.87,-1.73,
0.65,-1.99,2.24,7.00,0.26,-2.88,-1.71,
0.652,-1.99,2.24,7.00,0.28,-2.90,-1.68,
0.654,-2.62,2.56,5.45,0.28,-2.90,-1.68,
0.654,-2.62,2.56,5.45,0.31,-2.92,-1.62,
0.657,-2.62,2.56,5.45,0.31,-2.93,-1.60,
0.658,-2.62,2.56,5.45,0.33,-2.93,-1.53,
0.66,-2.62,2.56,5.45,0.34,-2.93,-1.51,
0.662,-2.62,2.56,5.45,0.36,-2.91,-1.44,
0.664,-3.30,2.89,3.81,0.36,-2.91,-1.44,
0.664,-3.30,2.89,3.81,0.37,-2.90,-1.40,
0.666,-3.30,2.89,3.81,0.37,-2.89,-1.37,
0.668,-3.30,2.89,3.81,0.38,-2.85,-1.30,
0.67,-3.30,2.89,3.81,0.39,-2.85,-1.27,
0.672,-3.30,2.89,3.81,0.40,-2.82,-1.20,
0.674,-3.81,3.34,2.45,0.40,-2.82,-1.20,
0.674,-3.81,3.34,2.45,0.41,-2.80,-1.14,
0.676,-3.81,3.34,2.45,0.41,-2.79,-1.12,
0.678,-3.81,3.34,2.45,0.42,-2.75,-1.04,
0.68,-3.81,3.34,2.45,0.42,-2.74,-1.01,
0.682,-3.81,3.34,2.45,0.44,-2.69,-0.92,
0.685,-4.36,3.36,1.29,0.44,-2.69,-0.92,
0.685,-4.36,3.36,1.29,0.45,-2.65,-0.86,
0.686,-4.36,3.36,1.29,0.45,-2.63,-0.83,
0.688,-4.36,3.36,1.29,0.47,-2.57,-0.75,
0.69,-4.36,3.36,1.29,0.47,-2.55,-0.73,
0.692,-4.36,3.36,1.29,0.49,-2.48,-0.66,
0.695,-4.50,3.31,0.80,0.49,-2.48,-0.66,
0.695,-4.50,3.31,0.80,0.50,-2.43,-0.61,
0.696,-4.50,3.31,0.80,0.52,-2.39,-0.57,
0.698,-4.50,3.31,0.80,0.54,-2.35,-0.53,
0.705,-4.50,3.31,0.80,0.55,-2.31,-0.49,
0.705,-4.50,3.31,0.80,0.57,-2.27,-0.45,
0.705,-4.13,3.03,0.49,0.57,-2.27,-0.45,
0.705,-4.13,3.03,0.49,0.59,-2.23,-0.40,
0.706,-4.13,3.03,0.49,0.61,-2.19,-0.36,
0.708,-4.13,3.03,0.49,0.63,-2.14,-0.31,
0.71,-4.13,3.03,0.49,0.66,-2.09,-0.26,
0.712,-4.13,3.03,0.49,0.68,-2.04,-0.20,
0.714,-4.37,2.66,0.38,0.68,-2.04,-0.20,
0.714,-4.37,2.66,0.38,0.70,-2.00,-0.15,
0.716,-4.37,2.66,0.38,0.73,-1.95,-0.10,
0.718,-4.37,2.66,0.38,0.76,-1.90,-0.06,
0.72,-4.37,2.66,0.38,0.77,-1.83,-0.00,
0.724,-4.37,2.66,0.38,0.78,-1.76,0.05,
0.724,-4.23,2.37,-0.16,0.78,-1.76,0.05,
0.725,-4.23,2.37,-0.16,0.80,-1.71,0.10,
0.726,-4.23,2.37,-0.16,0.81,-1.66,0.14,
0.728,-4.23,2.37,-0.16,0.83,-1.62,0.18,
0.73,-4.23,2.37,-0.16,0.84,-1.58,0.21,
0.732,-4.23,2.37,-0.16,0.85,-1.55,0.24,
0.735,-3.46,2.07,-0.45,0.85,-1.55,0.24,
0.735,-3.46,2.07,-0.45,0.86,-1.51,0.27,
0.736,-3.46,2.07,-0.45,0.87,-1.48,0.29,
0.738,-3.46,2.07,-0.45,0.88,-1.44,0.32,
0.74,-3.46,2.07,-0.45,0.89,-1.40,0.34,
0.742,-3.46,2.07,-0.45,0.88,-1.36,0.36,
0.744,-3.11,1.67,-0.99,0.88,-1.36,0.36,
0.744,-3.11,1.67,-0.99,0.88,-1.31,0.38,
0.746,-3.11,1.67,-0.99,0.87,-1.27,0.40,
0.748,-3.11,1.67,-0.99,0.85,-1.25,0.41,
0.75,-3.11,1.67,-0.99,0.84,-1.23,0.43,
0.752,-3.11,1.67,-0.99,0.82,-1.21,0.44,
0.754,-2.97,1.54,-1.89,0.82,-1.21,0.44,
0.755,-2.97,1.54,-1.89,0.80,-1.19,0.45,
0.757,-2.97,1.54,-1.89,0.77,-1.17,0.47,
0.758,-2.97,1.54,-1.89,0.73,-1.16,0.49,
0.76,-2.97,1.54,-1.89,0.70,-1.15,0.51,
0.762,-2.97,1.54,-1.89,0.66,-1.14,0.54,
0.764,-3.29,1.47,-3.11,0.66,-1.14,0.54,
0.765,-3.29,1.47,-3.11,0.62,-1.15,0.56,
0.767,-3.29,1.47,-3.11,0.58,-1.15,0.59,
0.768,-3.29,1.47,-3.11,0.53,-1.15,0.61,
0.77,-3.29,1.47,-3.11,0.49,-1.16,0.62,
0.773,-3.29,1.47,-3.11,0.44,-1.16,0.64,
0.774,-3.47,1.11,-3.86,0.44,-1.16,0.64,
0.788,-3.47,1.11,-3.86,0.39,-1.15,0.64,
0.788,-3.47,1.11,-3.86,0.34,-1.15,0.65,
0.788,-3.47,1.11,-3.86,0.28,-1.15,0.65,
0.789,-3.47,1.11,-3.86,0.23,-1.15,0.66,
0.789,-3.47,1.11,-3.86,0.17,-1.15,0.66,
0.789,-3.36,0.43,-4.36,0.17,-1.15,0.66,
0.789,-3.36,0.43,-4.36,0.11,-1.16,0.67,
0.789,-3.36,0.43,-4.36,0.06,-1.16,0.67,
0.789,-3.36,0.43,-4.36,-0.00,-1.15,0.69,
0.803,-3.36,0.43,-4.36,-0.06,-1.15,0.70,
0.803,-3.36,0.43,-4.36,-0.13,-1.15,0.72,
0.803,-3.52,-0.38,-4.81,-0.13,-1.15,0.72,
0.803,-3.52,-0.38,-4.81,-0.19,-1.14,0.74,
0.803,-3.52,-0.38,-4.81,-0.25,-1.13,0.76,
0.804,-3.52,-0.38,-4.81,-0.30,-1.12,0.79,
0.804,-3.52,-0.38,-4.81,-0.35,-1.11,0.81,
0.804,-3.52,-0.38,-4.81,-0.40,-1.10,0.84,
0.805,-3.49,-0.59,-4.40,-0.40,-1.10,0.84,
0.805,-3.49,-0.59,-4.40,-0.45,-1.09,0.87,
0.806,-3.49,-0.59,-4.40,-0.50,-1.09,0.90,
0.808,-3.49,-0.59,-4.40,-0.53,-1.09,0.93,
0.81,-3.49,-0.59,-4.40,-0.57,-1.10,0.95,
0.812,-3.49,-0.59,-4.40,-0.60,-1.10,0.97,
0.814,-3.21,-0.71,-3.68,-0.60,-1.10,0.97,
0.815,-3.21,-0.71,-3.68,-0.63,-1.11,1.00,
0.816,-3.21,-0.71,-3.68,-0.66,-1.11,1.02,
0.819,-3.21,-0.71,-3.68,-0.69,-1.12,1.03,
0.82,-3.21,-0.71,-3.68,-0.71,-1.13,1.05,
0.822,-3.21,-0.71,-3.68,-0.72,-1.14,1.05,
0.824,-2.59,-1.12,-2.65,-0.72,-1.14,1.05,
0.824,-2.59,-1.12,-2.65,-0.73,-1.16,1.06,
0.826,-2.59,-1.12,-2.65,-0.74,-1.17,1.06,
0.828,-2.59,-1.12,-2.65,-0.74,-1.17,1.06,
0.83,-2.59,-1.12,-2.65,-0.74,-1.18,1.05,
0.834,-2.59,-1.12,-2.65,-0.73,-1.18,1.04,
0.835,-1.77,-1.91,-1.28,-0.73,-1.18,1.04,
0.835,-1.77,-1.91,-1.28,-0.73,-1.19,1.03,
0.836,-1.77,-1.91,-1.28,-0.72,-1.19,1.01,
0.838,-1.77,-1.91,-1.28,-0.70,-1.19,0.99,
0.84,-1.77,-1.91,-1.28,-0.67,-1.19,0.97,
0.842,-1.77,-1.91,-1.28,-0.65,-1.18,0.94,
0.845,-0.64,-2.41,0.08,-0.65,-1.18,0.94,
0.845,-0.64,-2.41,0.08,-0.62,-1.17,0.91,
0.846,-0.64,-2.41,0.08,-0.58,-1.15,0.88,
0.848,-0.64,-2.41,0.08,-0.55,-1.13,0.85,
0.855,-0.64,-2.41,0.08,-0.51,-1.09,0.81,
0.856,-0.64,-2.41,0.08,-0.47,-1.05,0.77,
0.856,0.42,-2.69,0.90,-0.47,-1.05,0.77,
0.856,0.42,-2.69,0.90,-0.43,-1.01,0.73,
0.856,0.42,-2.69,0.90,-0.39,-0.95,0.68,
0.858,0.42,-2.69,0.90,-0.34,-0.88,0.64,
0.86,0.42,-2.69,0.90,-0.30,-0.81,0.59,
0.862,0.42,-2.69,0.90,-0.26,-0.73,0.54,
0.864,1.16,-2.62,1.08,-0.26,-0.73,0.54,
0.864,1.16,-2.62,1.08,-0.22,-0.65,0.49,
0.866,1.16,-2.62,1.08,-0.17,-0.58,0.45,
0.868,1.16,-2.62,1.08,-0.14,-0.50,0.40,
0.87,1.16,-2.62,1.08,-0.09,-0.43,0.35,
0.872,1.16,-2.62,1.08,-0.06,-0.37,0.31,
0.875,1.32,-2.02,0.89,-0.06,-0.37,0.31,
0.875,1.32,-2.02,0.89,-0.02,-0.30,0.26,
0.876,1.32,-2.02,0.89,0.02,-0.24,0.22,
0.878,1.32,-2.02,0.89,0.06,-0.18,0.18,
0.88,1.32,-2.02,0.89,0.09,-0.13,0.14,
0.882,1.32,-2.02,0.89,0.13,-0.08,0.11,
0.884,1.05,-1.12,0.61,0.13,-0.08,0.11,
0.885,1.05,-1.12,0.61,0.17,-0.02,0.07,
0.886,1.05,-1.12,0.61,0.20,0.03,0.04,
0.888,1.05,-1.12,0.61,0.24,0.09,0.02,
0.89,1.05,-1.12,0.61,0.27,0.14,-0.00,
0.892,1.05,-1.12,0.61,0.30,0.19,-0.02,
0.896,0.76,0.15,0.45,0.30,0.19,-0.02,
0.896,0.76,0.15,0.45,0.32,0.23,-0.03,
0.897,0.76,0.15,0.45,0.35,0.28,-0.05,
0.898,0.76,0.15,0.45,0.37,0.31,-0.05,
0.9,0.76,0.15,0.45,0.39,0.34,-0.05,
0.903,0.76,0.15,0.45,0.40,0.36,-0.05,
0.905,0.75,1.33,0.39,0.40,0.36,-0.05,
0.905,0.75,1.33,0.39,0.41,0.36,-0.04,
0.907,0.75,1.33,0.39,0.42,0.36,-0.04,
0.908,0.75,1.33,0.39,0.42,0.36,-0.02,
0.91,0.75,1.33,0.39,0.41,0.35,-0.01,
0.912,0.75,1.33,0.39,0.41,0.34,0.01,
0.915,0.81,2.16,0.45,0.41,0.34,0.01,
0.915,0.81,2.16,0.45,0.39,0.32,0.03,
0.93,0.81,2.16,0.45,0.37,0.29,0.05,
0.931,0.81,2.16,0.45,0.34,0.26,0.08,
0.932,0.81,2.16,0.45,0.32,0.21,0.11,
0.932,0.46,2.56,0.18,0.32,0.21,0.11,
0.933,0.46,2.56,0.18,0.25,0.10,0.16,
0.933,0.46,2.56,0.18,0.25,0.10,0.16,
0.934,0.46,2.56,0.18,0.21,0.03,0.19,
0.936,0.46,2.56,0.18,0.17,-0.05,0.21,
0.936,0.46,2.56,0.18,0.13,-0.14,0.22,
0.937,0.46,2.56,0.18,0.08,-0.23,0.23,
0.937,0.58,2.37,-0.09,0.08,-0.23,0.23,
0.938,0.58,2.37,-0.09,0.04,-0.32,0.23,
0.938,0.58,2.37,-0.09,-0.01,-0.41,0.22,
0.939,0.58,2.37,-0.09,-0.06,-0.51,0.20,
0.987,0.58,2.37,-0.09,-0.11,-0.59,0.18,
1.013,0.58,2.37,-0.09,-0.17,-0.66,0.14,
1.014,0.93,1.54,-0.53,-0.17,-0.66,0.14,
1.014,0.93,1.54,-0.53,-0.22,-0.72,0.10,
1.015,0.93,1.54,-0.53,-0.28,-0.77,0.06,
1.015,0.93,1.54,-0.53,-0.33,-0.82,0.01,
1.015,0.93,1.54,-0.53,-0.39,-0.86,-0.03,
1.015,0.93,1.54,-0.53,-0.45,-0.90,-0.08,
1.016,0.82,0.79,-1.34,-0.45,-0.90,-0.08,
1.016,0.82,0.79,-1.34,-0.50,-0.94,-0.13,
1.016,0.82,0.79,-1.34,-0.55,-0.97,-0.17,
1.016,0.82,0.79,-1.34,-0.60,-0.99,-0.23,
1.017,0.82,0.79,-1.34,-0.65,-1.02,-0.28,
1.017,0.82,0.79,-1.34,-0.69,-1.04,-0.33,
1.017,0.81,0.56,-1.60,-0.69,-1.04,-0.33,
1.017,0.81,0.56,-1.60,-0.73,-1.06,-0.38,
1.018,0.81,0.56,-1.60,-0.78,-1.08,-0.43,
1.018,0.81,0.56,-1.60,-0.83,-1.10,-0.49,
1.018,0.81,0.56,-1.60,-0.87,-1.11,-0.55,
1.019,0.81,0.56,-1.60,-0.92,-1.10,-0.60,
1.019,0.98,0.74,-2.23,-0.92,-1.10,-0.60,
1.019,0.98,0.74,-2.23,-0.96,-1.09,-0.65,
1.019,0.98,0.74,-2.23,-1.00,-1.07,-0.68,
1.02,0.98,0.74,-2.23,-1.03,-1.05,-0.71,
1.022,0.98,0.74,-2.23,-1.06,-1.03,-0.73,
1.023,0.98,0.74,-2.23,-1.09,-1.02,-0.74,
1.023,-0.06,0.65,-2.37,-1.09,-1.02,-0.74,
1.023,-0.06,0.65,-2.37,-1.12,-1.00,-0.75,
1.023,-0.06,0.65,-2.37,-1.14,-0.97,-0.75,
1.024,-0.06,0.65,-2.37,-1.16,-0.95,-0.74,
1.024,-0.06,0.65,-2.37,-1.17,-0.92,-0.74,
1.024,-0.06,0.65,-2.37,-1.18,-0.89,-0.73,
1.024,-0.94,0.64,-2.34,-1.18,-0.89,-0.73,
1.025,-0.94,0.64,-2.34,-1.19,-0.86,-0.72,
1.025,-0.94,0.64,-2.34,-1.19,-0.83,-0.71,
1.025,-0.94,0.64,-2.34,-1.18,-0.80,-0.69,
1.025,-0.94,0.64,-2.34,-1.18,-0.76,-0.68,
1.026,-0.94,0.64,-2.34,-1.17,-0.71,-0.67,
1.026,-1.33,0.58,-2.14,-1.17,-0.71,-0.67,
1.026,-1.33,0.58,-2.14,-1.15,-0.64,-0.66,
1.026,-1.33,0.58,-2.14,-1.14,-0.57,-0.66,
1.026,-1.33,0.58,-2.14,-1.12,-0.47,-0.66,
1.027,-1.33,0.58,-2.14,-1.10,-0.37,-0.66,
1.027,-1.33,0.58,-2.14,-1.08,-0.26,-0.66,
1.027,-1.52,0.15,-2.30,-1.08,-0.26,-0.66,
1.027,-1.52,0.15,-2.30,-1.06,-0.13,-0.67,
1.028,-1.52,0.15,-2.30,-1.04,-0.01,-0.68,
1.028,-1.52,0.15,-2.30,-1.01,0.11,-0.69,
1.028,-1.52,0.15,-2.30,-0.98,0.24,-0.70,
1.028,-1.52,0.15,-2.30,-0.94,0.36,-0.72,
1.028,-1.62,-0.41,-1.84,-0.94,0.36,-0.72,
1.029,-1.62,-0.41,-1.84,-0.89,0.47,-0.74,
1.029,-1.62,-0.41,-1.84,-0.84,0.56,-0.77,
1.029,-1.62,-0.41,-1.84,-0.79,0.65,-0.79,
1.04,-1.62,-0.41,-1.84,-0.73,0.71,-0.82,
1.04,-1.62,-0.41,-1.84,-0.66,0.76,-0.84,
1.04,-1.69,-0.90,-0.64,-0.66,0.76,-0.84,
1.041,-1.69,-0.90,-0.64,-0.59,0.80,-0.87,
1.041,-1.69,-0.90,-0.64,-0.53,0.83,-0.89,
1.041,-1.69,-0.90,-0.64,-0.46,0.85,-0.90,
1.041,-1.69,-0.90,-0.64,-0.39,0.86,-0.91,
1.044,-1.69,-0.90,-0.64,-0.34,0.86,-0.92,
1.045,-2.57,-1.15,0.33,-0.34,0.86,-0.92,
1.045,-2.57,-1.15,0.33,-0.28,0.86,-0.91,
1.048,-2.57,-1.15,0.33,-0.24,0.85,-0.91,
1.054,-2.57,-1.15,0.33,-0.20,0.83,-0.91,
1.058,-2.57,-1.15,0.33,-0.17,0.80,-0.90,
1.058,-2.57,-1.15,0.33,-0.15,0.75,-0.90,
1.058,-3.28,-0.96,0.59,-0.15,0.75,-0.90,
1.058,-3.28,-0.96,0.59,-0.14,0.70,-0.89,
1.059,-3.28,-0.96,0.59,-0.14,0.64,-0.89,
1.059,-3.28,-0.96,0.59,-0.14,0.57,-0.89,
1.06,-3.28,-0.96,0.59,-0.16,0.51,-0.89,
1.064,-3.28,-0.96,0.59,-0.19,0.44,-0.89,
1.065,-3.04,-0.64,0.07,-0.19,0.44,-0.89,
1.065,-3.04,-0.64,0.07,-0.22,0.39,-0.89,
1.072,-3.04,-0.64,0.07,-0.26,0.35,-0.89,
1.073,-3.04,-0.64,0.07,-0.30,0.31,-0.90,
1.073,-3.04,-0.64,0.07,-0.35,0.29,-0.90,
1.073,-3.04,-0.64,0.07,-0.40,0.28,-0.90,
1.077,-3.22,-0.26,-0.32,-0.40,0.28,-0.90,
1.077,-3.22,-0.26,-0.32,-0.45,0.28,-0.90,
1.083,-3.22,-0.26,-0.32,-0.51,0.28,-0.90,
1.083,-3.22,-0.26,-0.32,-0.56,0.28,-0.90,
1.083,-3.22,-0.26,-0.32,-0.62,0.28,-0.89,
1.084,-3.22,-0.26,-0.32,-0.67,0.28,-0.88,
1.107,-2.77,0.43,-0.21,-0.67,0.28,-0.88,
1.108,-2.77,0.43,-0.21,-0.71,0.28,-0.87,
1.108,-2.77,0.43,-0.21,-0.75,0.28,-0.85,
1.109,-2.77,0.43,-0.21,-0.78,0.28,-0.83,
1.109,-2.77,0.43,-0.21,-0.81,0.28,-0.81,
1.109,-2.77,0.43,-0.21,-0.84,0.28,-0.79,
1.109,-1.86,0.69,0.33,-0.84,0.28,-0.79,
1.109,-1.86,0.69,0.33,-0.87,0.29,-0.76,
1.11,-1.86,0.69,0.33,-0.89,0.31,-0.74,
1.11,-1.86,0.69,0.33,-0.90,0.34,-0.73,
1.11,-1.86,0.69,0.33,-0.91,0.37,-0.71,
1.11,-1.86,0.69,0.33,-0.90,0.41,-0.70,
1.11,-0.95,0.55,1.08,-0.90,0.41,-0.70,
1.111,-0.95,0.55,1.08,-0.89,0.45,-0.68,
1.111,-0.95,0.55,1.08,-0.88,0.49,-0.67,
1.129,-0.95,0.55,1.08,-0.86,0.53,-0.66,
1.129,-0.95,0.55,1.08,-0.83,0.57,-0.65,
1.13,-0.95,0.55,1.08,-0.79,0.60,-0.65,
1.13,-0.37,0.31,2.32,-0.79,0.60,-0.65,
1.13,-0.37,0.31,2.32,-0.75,0.62,-0.65,
1.13,-0.37,0.31,2.32,-0.70,0.64,-0.65,
1.131,-0.37,0.31,2.32,-0.65,0.65,-0.66,
1.131,-0.37,0.31,2.32,-0.60,0.65,-0.68,
1.131,-0.37,0.31,2.32,-0.54,0.66,-0.71,
1.131,0.70,-0.08,3.19,-0.54,0.66,-0.71,
1.131,0.70,-0.08,3.19,-0.49,0.66,-0.74,
1.131,0.70,-0.08,3.19,-0.44,0.66,-0.77,
1.131,0.70,-0.08,3.19,-0.39,0.67,-0.81,
1.132,0.70,-0.08,3.19,-0.34,0.68,-0.85,
1.164,0.70,-0.08,3.19,-0.29,0.69,-0.89,
1.164,1.39,-0.23,3.23,-0.29,0.69,-0.89,
1.164,1.39,-0.23,3.23,-0.25,0.70,-0.94,
1.165,1.39,-0.23,3.23,-0.21,0.72,-0.99,
1.165,1.39,-0.23,3.23,-0.17,0.74,-1.03,
1.165,1.39,-0.23,3.23,-0.13,0.75,-1.08,
1.165,1.39,-0.23,3.23,-0.10,0.77,-1.13,
1.165,1.62,-0.18,2.88,-0.10,0.77,-1.13,
1.166,1.62,-0.18,2.88,-0.08,0.79,-1.18,
1.166,1.62,-0.18,2.88,-0.05,0.79,-1.24,
1.166,1.62,-0.18,2.88,-0.03,0.80,-1.29,
1.166,1.62,-0.18,2.88,-0.00,0.81,-1.34,
1.166,1.62,-0.18,2.88,0.02,0.81,-1.39,
1.167,1.74,0.19,2.67,0.02,0.81,-1.39,
1.167,1.74,0.19,2.67,0.04,0.82,-1.44,
1.167,1.74,0.19,2.67,0.06,0.83,-1.48,
1.167,1.74,0.19,2.67,0.07,0.84,-1.53,
1.167,1.74,0.19,2.67,0.09,0.84,-1.56,
1.168,1.74,0.19,2.67,0.09,0.85,-1.59,
1.168,1.51,0.85,2.45,0.09,0.85,-1.59,
1.168,1.51,0.85,2.45,0.10,0.86,-1.62,
1.168,1.51,0.85,2.45,0.10,0.88,-1.63,
1.168,1.51,0.85,2.45,0.11,0.89,-1.64,
1.176,1.51,0.85,2.45,0.11,0.91,-1.64,
1.176,1.51,0.85,2.45,0.11,0.94,-1.63,
1.176,1.02,1.65,2.69,0.11,0.94,-1.63,
1.177,1.02,1.65,2.69,0.10,0.97,-1.61,
1.177,1.02,1.65,2.69,0.09,0.99,-1.59,
1.179,1.02,1.65,2.69,0.09,1.00,-1.57,
1.19,1.02,1.65,2.69,0.09,1.01,-1.54,
1.191,1.02,1.65,2.69,0.09,1.02,-1.51,
1.191,0.88,1.80,3.27,0.09,1.02,-1.51,
1.191,0.88,1.80,3.27,0.09,1.03,-1.48,
1.191,0.88,1.80,3.27,0.10,1.03,-1.45,
1.191,0.88,1.80,3.27,0.11,1.03,-1.41,
1.192,0.88,1.80,3.27,0.12,1.03,-1.38,
1.193,0.88,1.80,3.27,0.14,1.02,-1.34,
1.198,0.25,1.74,4.37,0.14,1.02,-1.34,
1.198,0.25,1.74,4.37,0.16,1.01,-1.30,
1.198,0.25,1.74,4.37,0.18,1.00,-1.27,
1.199,0.25,1.74,4.37,0.20,0.99,-1.24,
1.204,0.25,1.74,4.37,0.23,0.97,-1.22,
1.205,0.25,1.74,4.37,0.26,0.94,-1.21,
1.205,-0.05,0.95,4.93,0.26,0.94,-1.21,
1.206,-0.05,0.95,4.93,0.28,0.91,-1.21,
1.207,-0.05,0.95,4.93,0.31,0.88,-1.22,
1.21,-0.05,0.95,4.93,0.33,0.84,-1.23,
1.211,-0.05,0.95,4.93,0.36,0.81,-1.26,
1.214,-0.05,0.95,4.93,0.37,0.77,-1.29,
1.22,1.08,-0.07,4.63,0.37,0.77,-1.29,
1.221,1.08,-0.07,4.63,0.39,0.74,-1.32,
1.221,1.08,-0.07,4.63,0.40,0.71,-1.34,
1.221,1.08,-0.07,4.63,0.41,0.67,-1.37,
1.221,1.08,-0.07,4.63,0.42,0.65,-1.38,
1.225,1.08,-0.07,4.63,0.42,0.62,-1.39,
1.226,1.51,-0.36,3.85,0.42,0.62,-1.39,
1.226,1.51,-0.36,3.85,0.42,0.61,-1.40,
1.227,1.51,-0.36,3.85,0.42,0.59,-1.40,
1.229,1.51,-0.36,3.85,0.42,0.59,-1.39,
1.262,1.51,-0.36,3.85,0.41,0.59,-1.37,
1.263,1.51,-0.36,3.85,0.40,0.60,-1.36,
1.263,1.39,-0.13,2.85,0.40,0.60,-1.36,
1.263,1.39,-0.13,2.85,0.39,0.61,-1.34,
1.263,1.39,-0.13,2.85,0.38,0.63,-1.31,
1.263,1.39,-0.13,2.85,0.37,0.64,-1.29,
1.263,1.39,-0.13,2.85,0.36,0.66,-1.26,
1.264,1.39,-0.13,2.85,0.35,0.68,-1.23,
1.264,0.98,0.17,1.47,0.35,0.68,-1.23,
1.264,0.98,0.17,1.47,0.34,0.70,-1.19,
1.264,0.98,0.17,1.47,0.34,0.74,-1.16,
1.264,0.98,0.17,1.47,0.33,0.77,-1.12,
1.264,0.98,0.17,1.47,0.33,0.81,-1.08,
1.264,0.98,0.17,1.47,0.33,0.84,-1.03,
1.265,0.35,0.51,0.85,0.33,0.84,-1.03,
1.265,0.35,0.51,0.85,0.33,0.88,-0.99,
1.265,0.35,0.51,0.85,0.34,0.91,-0.94,
1.265,0.35,0.51,0.85,0.34,0.94,-0.89,
1.265,0.35,0.51,0.85,0.35,0.96,-0.83,
1.265,0.35,0.51,0.85,0.35,0.98,-0.77,
1.265,0.03,0.77,0.75,0.35,0.98,-0.77,
1.266,0.03,0.77,0.75,0.36,0.99,-0.71,
1.269,0.03,0.77,0.75,0.37,1.01,-0.65,
1.27,0.03,0.77,0.75,0.37,1.02,-0.58,
1.271,0.03,0.77,0.75,0.37,1.02,-0.52,
1.272,0.03,0.77,0.75,0.38,1.03,-0.45,
1.275,-0.32,0.91,0.54,0.38,1.03,-0.45,
1.291,-0.32,0.91,0.54,0.37,1.03,-0.38,
1.291,-0.32,0.91,0.54,0.37,1.03,-0.30,
1.291,-0.32,0.91,0.54,0.37,1.01,-0.23,
1.291,-0.32,0.91,0.54,0.35,0.98,-0.17,
1.291,-0.32,0.91,0.54,0.33,0.95,-0.10,
1.291,0.01,0.68,0.00,0.33,0.95,-0.10,
1.292,0.01,0.68,0.00,0.29,0.91,-0.05,
1.292,0.01,0.68,0.00,0.25,0.85,0.00,
1.292,0.01,0.68,0.00,0.20,0.78,0.04,
1.292,0.01,0.68,0.00,0.15,0.70,0.07,
1.292,0.01,0.68,0.00,0.10,0.61,0.09,
1.313,1.62,-0.30,-1.05,0.10,0.61,0.09,
1.313,1.62,-0.30,-1.05,0.04,0.52,0.11,
1.313,1.62,-0.30,-1.05,-0.03,0.43,0.11,
1.313,1.62,-0.30,-1.05,-0.10,0.32,0.11,
1.313,1.62,-0.30,-1.05,-0.17,0.22,0.08,
1.314,1.62,-0.30,-1.05,-0.25,0.13,0.05,
1.314,3.27,-1.84,-1.76,-0.25,0.13,0.05,
1.314,3.27,-1.84,-1.76,-0.33,0.05,0.00,
1.314,3.27,-1.84,-1.76,-0.41,-0.05,-0.05,
1.314,3.27,-1.84,-1.76,-0.49,-0.15,-0.12,
1.315,3.27,-1.84,-1.76,-0.58,-0.26,-0.18,
1.315,3.27,-1.84,-1.76,-0.66,-0.36,-0.25,
1.315,4.94,-2.28,-3.14,-0.66,-0.36,-0.25,
1.315,4.94,-2.28,-3.14,-0.75,-0.44,-0.32,
1.318,4.94,-2.28,-3.14,-0.84,-0.53,-0.39,
1.319,4.94,-2.28,-3.14,-0.93,-0.61,-0.45,
1.322,4.94,-2.28,-3.14,-1.01,-0.67,-0.51,
1.323,4.94,-2.28,-3.14,-1.09,-0.71,-0.56,
1.327,5.83,-2.37,-4.40,-1.09,-0.71,-0.56,
1.327,5.83,-2.37,-4.40,-1.16,-0.73,-0.59,
1.328,5.83,-2.37,-4.40,-1.22,-0.72,-0.61,
1.333,5.83,-2.37,-4.40,-1.27,-0.69,-0.62,
1.334,5.83,-2.37,-4.40,-1.31,-0.65,-0.61,
1.334,5.83,-2.37,-4.40,-1.34,-0.60,-0.60,
1.337,5.15,-1.99,-4.87,-1.34,-0.60,-0.60,
1.338,5.15,-1.99,-4.87,-1.36,-0.52,-0.58,
1.338,5.15,-1.99,-4.87,-1.36,-0.44,-0.56,
1.339,5.15,-1.99,-4.87,-1.34,-0.34,-0.53,
1.34,5.15,-1.99,-4.87,-1.32,-0.24,-0.49,
1.342,5.15,-1.99,-4.87,-1.27,-0.14,-0.46,
1.345,3.60,-0.91,-4.19,-1.27,-0.14,-0.46,
1.345,3.60,-0.91,-4.19,-1.22,-0.03,-0.43,
1.349,3.60,-0.91,-4.19,-1.16,0.07,-0.39,
1.349,3.60,-0.91,-4.19,-1.09,0.18,-0.34,
1.351,3.60,-0.91,-4.19,-1.01,0.28,-0.29,
1.352,3.60,-0.91,-4.19,-0.94,0.38,-0.23,
1.355,1.70,-0.35,-3.20,-0.94,0.38,-0.23,
1.355,1.70,-0.35,-3.20,-0.85,0.49,-0.18,
1.356,1.70,-0.35,-3.20,-0.76,0.60,-0.12,
1.358,1.70,-0.35,-3.20,-0.67,0.71,-0.06,
1.36,1.70,-0.35,-3.20,-0.59,0.82,-0.00,
1.362,1.70,-0.35,-3.20,-0.50,0.92,0.05,
1.365,-0.01,-0.18,-1.88,-0.50,0.92,0.05,
1.365,-0.01,-0.18,-1.88,-0.42,1.02,0.10,
1.367,-0.01,-0.18,-1.88,-0.33,1.09,0.14,
1.375,-0.01,-0.18,-1.88,-0.25,1.16,0.18,
1.375,-0.01,-0.18,-1.88,-0.18,1.22,0.22,
1.375,-0.01,-0.18,-1.88,-0.11,1.28,0.24,
1.375,-0.66,-0.44,-0.83,-0.11,1.28,0.24,
1.376,-0.66,-0.44,-0.83,-0.05,1.32,0.26,
1.376,-0.66,-0.44,-0.83,0.00,1.35,0.26,
1.379,-0.66,-0.44,-0.83,0.05,1.37,0.26,
1.391,-0.66,-0.44,-0.83,0.08,1.39,0.24,
1.391,-0.66,-0.44,-0.83,0.12,1.40,0.22,
1.392,-0.41,-0.68,-0.18,0.12,1.40,0.22,
1.392,-0.41,-0.68,-0.18,0.14,1.40,0.19,
1.392,-0.41,-0.68,-0.18,0.14,1.39,0.16,
1.392,-0.41,-0.68,-0.18,0.14,1.37,0.12,
1.392,-0.41,-0.68,-0.18,0.13,1.34,0.08,
1.392,-0.41,-0.68,-0.18,0.12,1.31,0.05,
1.396,-0.21,-0.69,-0.31,0.12,1.31,0.05,
1.397,-0.21,-0.69,-0.31,0.10,1.26,0.02,
1.397,-0.21,-0.69,-0.31,0.06,1.21,-0.01,
1.401,-0.21,-0.69,-0.31,0.03,1.16,-0.04,
1.402,-0.21,-0.69,-0.31,-0.01,1.11,-0.07,
1.403,-0.21,-0.69,-0.31,-0.05,1.04,-0.10,
1.405,-0.39,0.13,-0.58,-0.05,1.04,-0.10,
1.405,-0.39,0.13,-0.58,-0.10,0.97,-0.12,
1.406,-0.39,0.13,-0.58,-0.15,0.89,-0.13,
1.408,-0.39,0.13,-0.58,-0.21,0.78,-0.14,
1.41,-0.39,0.13,-0.58,-0.26,0.66,-0.15,
1.412,-0.39,0.13,-0.58,-0.32,0.53,-0.15,
1.415,0.28,1.12,-1.05,-0.32,0.53,-0.15,
1.416,0.28,1.12,-1.05,-0.39,0.37,-0.14,
1.416,0.28,1.12,-1.05,-0.45,0.19,-0.13,
1.42,0.28,1.12,-1.05,-0.52,0.00,-0.11,
1.42,0.28,1.12,-1.05,-0.59,-0.18,-0.08,
1.425,0.28,1.12,-1.05,-0.65,-0.34,-0.04,
1.429,1.62,1.62,-1.56,-0.65,-0.34,-0.04,
1.43,1.62,1.62,-1.56,-0.79,-0.61,0.04,
1.43,1.62,1.62,-1.56,-0.79,-0.61,0.04,
1.43,1.62,1.62,-1.56,-0.86,-0.71,0.08,
1.43,1.62,1.62,-1.56,-0.93,-0.78,0.11,
1.433,1.62,1.62,-1.56,-0.99,-0.82,0.13,
1.438,2.29,1.55,-2.18,-0.99,-0.82,0.13,
1.439,2.29,1.55,-2.18,-1.04,-0.83,0.15,
1.439,2.29,1.55,-2.18,-1.08,-0.82,0.18,
1.44,2.29,1.55,-2.18,-1.10,-0.82,0.20,
1.441,2.29,1.55,-2.18,-1.11,-0.81,0.22,
1.461,2.29,1.55,-2.18,-1.11,-0.79,0.25,
1.461,2.51,0.53,-2.12,-1.11,-0.79,0.25,
1.461,2.51,0.53,-2.12,-1.10,-0.78,0.26,
1.462,2.51,0.53,-2.12,-1.07,-0.75,0.28,
1.462,2.51,0.53,-2.12,-1.04,-0.72,0.30,
1.462,2.51,0.53,-2.12,-0.99,-0.69,0.31,
1.462,2.51,0.53,-2.12,-0.95,-0.64,0.33,
1.462,2.56,-0.00,-1.55,-0.95,-0.64,0.33,
1.462,2.56,-0.00,-1.55,-0.90,-0.59,0.35,
1.463,2.56,-0.00,-1.55,-0.86,-0.52,0.38,
1.463,2.56,-0.00,-1.55,-0.81,-0.44,0.41,
1.463,2.56,-0.00,-1.55,-0.77,-0.36,0.44,
1.495,2.56,-0.00,-1.55,-0.73,-0.27,0.47,
1.496,1.26,0.01,-1.84,-0.73,-0.27,0.47,
1.496,1.26,0.01,-1.84,-0.69,-0.18,0.50,
1.496,1.26,0.01,-1.84,-0.65,-0.10,0.53,
1.497,1.26,0.01,-1.84,-0.61,-0.02,0.56,
1.497,1.26,0.01,-1.84,-0.57,0.04,0.58,
1.497,1.26,0.01,-1.84,-0.52,0.07,0.60,
1.497,0.11,-0.22,-1.71,-0.52,0.07,0.60,
1.497,0.11,-0.22,-1.71,-0.47,0.08,0.61,
1.498,0.11,-0.22,-1.71,-0.43,0.06,0.63,
1.498,0.11,-0.22,-1.71,-0.39,0.02,0.63,
1.498,0.11,-0.22,-1.71,-0.35,-0.05,0.62,
1.498,0.11,-0.22,-1.71,-0.31,-0.13,0.61,
1.498,0.08,-1.27,-1.43,-0.31,-0.13,0.61,
1.499,0.08,-1.27,-1.43,-0.27,-0.21,0.60,
1.499,0.08,-1.27,-1.43,-0.24,-0.29,0.58,
1.499,0.08,-1.27,-1.43,-0.21,-0.37,0.55,
1.499,0.08,-1.27,-1.43,-0.18,-0.44,0.52,
1.499,0.08,-1.27,-1.43,-0.16,-0.50,0.49,
1.5,0.22,-2.03,-1.73,-0.16,-0.50,0.49,
1.5,0.22,-2.03,-1.73,-0.15,-0.55,0.46,
1.5,0.22,-2.03,-1.73,-0.13,-0.59,0.44,
1.5,0.22,-2.03,-1.73,-0.12,-0.64,0.42,
1.503,0.22,-2.03,-1.73,-0.10,-0.68,0.40,
1.504,0.22,-2.03,-1.73,-0.08,-0.72,0.39,
1.505,-0.18,-2.12,-1.92,-0.08,-0.72,0.39,
1.506,-0.18,-2.12,-1.92,-0.06,-0.77,0.38,
1.507,-0.18,-2.12,-1.92,-0.04,-0.81,0.37,
1.511,-0.18,-2.12,-1.92,-0.02,-0.85,0.37,
1.511,-0.18,-2.12,-1.92,0.00,-0.88,0.38,
1.515,-0.18,-2.12,-1.92,0.02,-0.91,0.38,
1.518,-0.39,-1.84,-1.77,0.02,-0.91,0.38,
1.518,-0.39,-1.84,-1.77,0.04,-0.94,0.39,
1.519,-0.39,-1.84,-1.77,0.06,-0.97,0.39,
1.519,-0.39,-1.84,-1.77,0.08,-1.00,0.40,
1.525,-0.39,-1.84,-1.77,0.10,-1.02,0.40,
1.525,-0.39,-1.84,-1.77,0.11,-1.03,0.41,
1.526,-0.35,-0.94,-1.64,0.11,-1.03,0.41,
1.526,-0.35,-0.94,-1.64,0.13,-1.03,0.42,
1.527,-0.35,-0.94,-1.64,0.14,-1.02,0.43,
1.535,-0.35,-0.94,-1.64,0.15,-1.00,0.45,
1.535,-0.35,-0.94,-1.64,0.16,-0.98,0.47,
1.537,-0.35,-0.94,-1.64,0.17,-0.95,0.49,
1.537,-0.47,-0.31,-1.31,0.17,-0.95,0.49,
1.538,-0.47,-0.31,-1.31,0.18,-0.91,0.51,
1.538,-0.47,-0.31,-1.31,0.18,-0.87,0.54,
1.539,-0.47,-0.31,-1.31,0.18,-0.83,0.57,
1.544,-0.47,-0.31,-1.31,0.19,-0.78,0.60,
1.545,-0.47,-0.31,-1.31,0.19,-0.73,0.63,
1.546,-0.56,0.14,-0.86,0.19,-0.73,0.63,
1.546,-0.56,0.14,-0.86,0.19,-0.68,0.65,
1.547,-0.56,0.14,-0.86,0.19,-0.64,0.67,
1.558,-0.56,0.14,-0.86,0.19,-0.59,0.70,
1.559,-0.56,0.14,-0.86,0.19,-0.55,0.72,
1.559,-0.56,0.14,-0.86,0.18,-0.50,0.74,
1.559,-0.28,0.33,-0.43,0.18,-0.50,0.74,
1.559,-0.28,0.33,-0.43,0.17,-0.46,0.75,
1.559,-0.28,0.33,-0.43,0.16,-0.43,0.76,
1.559,-0.28,0.33,-0.43,0.14,-0.40,0.77,
1.561,-0.28,0.33,-0.43,0.12,-0.37,0.78,
1.564,-0.28,0.33,-0.43,0.10,-0.36,0.78,
1.565,0.25,0.50,-0.31,0.10,-0.36,0.78,
1.566,0.25,0.50,-0.31,0.07,-0.35,0.77,
1.567,0.25,0.50,-0.31,0.05,-0.34,0.77,
1.569,0.25,0.50,-0.31,0.02,-0.34,0.77,
1.571,0.25,0.50,-0.31,-0.00,-0.35,0.76,
1.572,0.25,0.50,-0.31,-0.03,-0.35,0.76,
1.575,0.68,0.77,-0.27,-0.03,-0.35,0.76,
1.575,0.68,0.77,-0.27,-0.06,-0.36,0.75,
1.576,0.68,0.77,-0.27,-0.09,-0.36,0.74,
1.579,0.68,0.77,-0.27,-0.12,-0.35,0.73,
1.582,0.68,0.77,-0.27,-0.16,-0.32,0.72,
1.587,0.68,0.77,-0.27,-0.19,-0.29,0.71,
1.587,0.87,0.79,-0.49,-0.19,-0.29,0.71,
1.587,0.87,0.79,-0.49,-0.22,-0.25,0.69,
1.588,0.87,0.79,-0.49,-0.25,-0.22,0.68,
1.591,0.87,0.79,-0.49,-0.28,-0.18,0.67,
1.591,0.87,0.79,-0.49,-0.31,-0.16,0.67,
1.592,0.87,0.79,-0.49,-0.34,-0.13,0.66,
1.596,1.11,1.16,-0.16,-0.34,-0.13,0.66,
1.597,1.11,1.16,-0.16,-0.37,-0.12,0.66,
1.597,1.11,1.16,-0.16,-0.39,-0.10,0.65,
1.599,1.11,1.16,-0.16,-0.41,-0.07,0.65,
1.6,1.11,1.16,-0.16,-0.42,-0.05,0.65,
1.604,1.11,1.16,-0.16,-0.44,-0.03,0.65,
1.605,1.34,1.43,0.70,-0.44,-0.03,0.65,
1.605,1.34,1.43,0.70,-0.46,-0.01,0.64,
1.607,1.34,1.43,0.70,-0.48,0.00,0.64,
1.622,1.34,1.43,0.70,-0.50,0.01,0.64,
1.622,1.34,1.43,0.70,-0.52,0.00,0.63,
1.622,1.34,1.43,0.70,-0.55,-0.00,0.62,
1.622,1.93,1.39,1.10,-0.55,-0.00,0.62,
1.622,1.93,1.39,1.10,-0.57,-0.01,0.60,
1.622,1.93,1.39,1.10,-0.60,-0.01,0.58,
1.623,1.93,1.39,1.10,-0.63,-0.02,0.56,
1.623,1.93,1.39,1.10,-0.66,-0.03,0.54,
1.623,1.93,1.39,1.10,-0.69,-0.03,0.52,
1.645,2.27,1.18,1.31,-0.69,-0.03,0.52,
1.645,2.27,1.18,1.31,-0.72,-0.03,0.50,
1.645,2.27,1.18,1.31,-0.74,-0.04,0.47,
1.645,2.27,1.18,1.31,-0.77,-0.05,0.44,
1.646,2.27,1.18,1.31,-0.79,-0.06,0.40,
1.646,2.27,1.18,1.31,-0.81,-0.08,0.36,
1.646,2.36,1.28,1.26,-0.81,-0.08,0.36,
1.646,2.36,1.28,1.26,-0.83,-0.11,0.33,
1.646,2.36,1.28,1.26,-0.85,-0.13,0.29,
1.647,2.36,1.28,1.26,-0.87,-0.15,0.25,
1.647,2.36,1.28,1.26,-0.88,-0.18,0.21,
1.647,2.36,1.28,1.26,-0.89,-0.20,0.17,
1.647,2.03,1.59,1.00,-0.89,-0.20,0.17,
1.647,2.03,1.59,1.00,-0.90,-0.21,0.14,
1.647,2.03,1.59,1.00,-0.91,-0.22,0.10,
1.649,2.03,1.59,1.00,-0.91,-0.22,0.08,
1.651,2.03,1.59,1.00,-0.91,-0.22,0.06,
1.653,2.03,1.59,1.00,-0.90,-0.21,0.04,
1.656,1.00,1.86,0.83,-0.90,-0.21,0.04,
1.657,1.00,1.86,0.83,-0.89,-0.20,0.02,
1.657,1.00,1.86,0.83,-0.88,-0.18,0.01,
1.658,1.00,1.86,0.83,-0.86,-0.16,-0.00,
1.661,1.00,1.86,0.83,-0.83,-0.14,-0.01,
1.665,1.00,1.86,0.83,-0.81,-0.13,-0.02,
1.665,-0.23,2.18,1.00,-0.81,-0.13,-0.02,
1.665,-0.23,2.18,1.00,-0.78,-0.13,-0.03,
1.666,-0.23,2.18,1.00,-0.75,-0.12,-0.03,
1.669,-0.23,2.18,1.00,-0.71,-0.12,-0.03,
1.67,-0.23,2.18,1.00,-0.68,-0.13,-0.02,
1.673,-0.23,2.18,1.00,-0.64,-0.13,-0.01,
1.675,-1.41,2.94,1.38,-0.64,-0.13,-0.01,
1.675,-1.41,2.94,1.38,-0.61,-0.14,0.01,
1.677,-1.41,2.94,1.38,-0.58,-0.15,0.03,
1.681,-1.41,2.94,1.38,-0.55,-0.16,0.05,
1.682,-1.41,2.94,1.38,-0.53,-0.16,0.08,
1.682,-1.41,2.94,1.38,-0.52,-0.17,0.10,
1.685,-2.40,3.41,1.27,-0.52,-0.17,0.10,
1.685,-2.40,3.41,1.27,-0.50,-0.17,0.12,
1.686,-2.40,3.41,1.27,-0.49,-0.18,0.14,
1.688,-2.40,3.41,1.27,-0.49,-0.19,0.16,
1.69,-2.40,3.41,1.27,-0.49,-0.21,0.18,
1.693,-2.40,3.41,1.27,-0.49,-0.23,0.19,
1.695,-2.47,3.27,1.32,-0.49,-0.23,0.19,
1.695,-2.47,3.27,1.32,-0.50,-0.26,0.19,
1.696,-2.47,3.27,1.32,-0.50,-0.29,0.19,
1.699,-2.47,3.27,1.32,-0.51,-0.33,0.19,
1.701,-2.47,3.27,1.32,-0.52,-0.36,0.18,
1.702,-2.47,3.27,1.32,-0.52,-0.39,0.16,
1.705,-1.78,2.66,1.53,-0.52,-0.39,0.16,
1.705,-1.78,2.66,1.53,-0.52,-0.43,0.14,
1.706,-1.78,2.66,1.53,-0.52,-0.46,0.12,
1.708,-1.78,2.66,1.53,-0.52,-0.49,0.09,
1.71,-1.78,2.66,1.53,-0.52,-0.52,0.07,
1.713,-1.78,2.66,1.53,-0.52,-0.53,0.05,
1.715,-1.28,2.35,1.98,-0.52,-0.53,0.05,
1.715,-1.28,2.35,1.98,-0.52,-0.55,0.04,
1.716,-1.28,2.35,1.98,-0.51,-0.56,0.02,
1.718,-1.28,2.35,1.98,-0.51,-0.58,0.00,
1.72,-1.28,2.35,1.98,-0.51,-0.58,-0.01,
1.722,-1.28,2.35,1.98,-0.50,-0.58,-0.01,
1.726,-1.20,2.32,1.92,-0.50,-0.58,-0.01,
1.726,-1.20,2.32,1.92,-0.50,-0.57,-0.01,
1.726,-1.20,2.32,1.92,-0.49,-0.56,-0.01,
1.73,-1.20,2.32,1.92,-0.47,-0.54,0.00,
1.731,-1.20,2.32,1.92,-0.46,-0.52,0.02,
1.732,-1.20,2.32,1.92,-0.45,-0.51,0.04,
1.735,-1.47,2.40,2.09,-0.45,-0.51,0.04,
1.735,-1.47,2.40,2.09,-0.43,-0.50,0.05,
1.738,-1.47,2.40,2.09,-0.41,-0.48,0.07,
1.738,-1.47,2.40,2.09,-0.39,-0.45,0.09,
1.74,-1.47,2.40,2.09,-0.37,-0.42,0.11,
1.743,-1.47,2.40,2.09,-0.35,-0.39,0.13,
1.748,-1.07,2.32,1.79,-0.35,-0.39,0.13,
1.749,-1.07,2.32,1.79,-0.34,-0.36,0.15,
1.749,-1.07,2.32,1.79,-0.32,-0.33,0.17,
1.749,-1.07,2.32,1.79,-0.30,-0.29,0.20,
1.75,-1.07,2.32,1.79,-0.29,-0.25,0.22,
1.752,-1.07,2.32,1.79,-0.27,-0.20,0.26,
1.755,-0.71,2.17,1.53,-0.27,-0.20,0.26,
1.755,-0.71,2.17,1.53,-0.25,-0.16,0.29,
1.756,-0.71,2.17,1.53,-0.24,-0.12,0.32,
1.759,-0.71,2.17,1.53,-0.22,-0.09,0.36,
1.767,-0.71,2.17,1.53,-0.21,-0.07,0.39,
1.768,-0.71,2.17,1.53,-0.19,-0.04,0.43,
1.768,-0.43,1.72,1.19,-0.19,-0.04,0.43,
1.768,-0.43,1.72,1.19,-0.18,-0.02,0.47,
1.768,-0.43,1.72,1.19,-0.17,0.01,0.51,
1.768,-0.43,1.72,1.19,-0.16,0.03,0.54,
1.771,-0.43,1.72,1.19,-0.14,0.03,0.58,
1.773,-0.43,1.72,1.19,-0.12,0.02,0.61,
1.775,0.23,1.05,1.24,-0.12,0.02,0.61,
1.79,0.23,1.05,1.24,-0.10,0.01,0.64,
1.79,0.23,1.05,1.24,-0.08,-0.00,0.67,
1.791,0.23,1.05,1.24,-0.06,-0.02,0.69,
1.791,0.23,1.05,1.24,-0.03,-0.03,0.71,
1.791,0.23,1.05,1.24,-0.01,-0.04,0.73,
1.791,0.95,0.03,1.17,-0.01,-0.04,0.73,
1.791,0.95,0.03,1.17,0.02,-0.06,0.74,
1.791,0.95,0.03,1.17,0.05,-0.08,0.75,
1.792,0.95,0.03,1.17,0.08,-0.11,0.74,
1.792,0.95,0.03,1.17,0.10,-0.14,0.74,
1.817,0.95,0.03,1.17,0.13,-0.16,0.73,
1.817,1.76,-1.11,0.95,0.13,-0.16,0.73,
1.817,1.76,-1.11,0.95,0.16,-0.19,0.72,
1.817,1.76,-1.11,0.95,0.18,-0.22,0.70,
1.818,1.76,-1.11,0.95,0.21,-0.25,0.68,
1.818,1.76,-1.11,0.95,0.23,-0.28,0.65,
1.818,1.76,-1.11,0.95,0.26,-0.31,0.63,
1.818,2.42,-1.95,0.55,0.26,-0.31,0.63,
1.818,2.42,-1.95,0.55,0.28,-0.33,0.60,
1.819,2.42,-1.95,0.55,0.30,-0.34,0.57,
1.819,2.42,-1.95,0.55,0.33,-0.35,0.55,
1.819,2.42,-1.95,0.55,0.34,-0.35,0.52,
1.819,2.42,-1.95,0.55,0.36,-0.35,0.49,
1.819,2.58,-2.31,-0.21,0.36,-0.35,0.49,
1.82,2.58,-2.31,-0.21,0.38,-0.34,0.46,
1.82,2.58,-2.31,-0.21,0.40,-0.33,0.44,
1.82,2.58,-2.31,-0.21,0.41,-0.32,0.41,
1.821,2.58,-2.31,-0.21,0.43,-0.29,0.40,
1.824,2.58,-2.31,-0.21,0.45,-0.26,0.39,
1.825,2.35,-2.30,-0.36,0.45,-0.26,0.39,
1.825,2.35,-2.30,-0.36,0.46,-0.23,0.38,
1.827,2.35,-2.30,-0.36,0.48,-0.20,0.37,
1.829,2.35,-2.30,-0.36,0.49,-0.17,0.38,
1.833,2.35,-2.30,-0.36,0.51,-0.13,0.38,
1.836,2.35,-2.30,-0.36,0.52,-0.10,0.39,
1.837,1.84,-2.34,-0.00,0.52,-0.10,0.39,
1.837,1.84,-2.34,-0.00,0.54,-0.07,0.40,
1.837,1.84,-2.34,-0.00,0.55,-0.03,0.41,
1.839,1.84,-2.34,-0.00,0.56,0.01,0.44,
1.841,1.84,-2.34,-0.00,0.56,0.06,0.46,
1.843,1.84,-2.34,-0.00,0.57,0.10,0.48,
1.845,1.03,-2.33,0.32,0.57,0.10,0.48,
1.846,1.03,-2.33,0.32,0.58,0.15,0.51,
1.847,1.03,-2.33,0.32,0.58,0.20,0.54,
1.849,1.03,-2.33,0.32,0.59,0.25,0.57,
1.85,1.03,-2.33,0.32,0.60,0.29,0.60,
1.852,1.03,-2.33,0.32,0.60,0.33,0.62,
1.855,0.56,-2.39,0.71,0.60,0.33,0.62,
1.855,0.56,-2.39,0.71,0.60,0.36,0.65,
1.856,0.56,-2.39,0.71,0.60,0.38,0.67,
1.862,0.56,-2.39,0.71,0.59,0.40,0.70,
1.863,0.56,-2.39,0.71,0.58,0.42,0.73,
1.863,0.56,-2.39,0.71,0.58,0.42,0.76,
1.866,0.59,-2.45,0.97,0.58,0.42,0.76,
1.866,0.59,-2.45,0.97,0.56,0.43,0.79,
1.867,0.59,-2.45,0.97,0.55,0.43,0.83,
1.869,0.59,-2.45,0.97,0.53,0.42,0.86,
1.871,0.59,-2.45,0.97,0.52,0.41,0.89,
1.875,0.59,-2.45,0.97,0.50,0.39,0.92,
1.876,0.71,-2.61,0.94,0.50,0.39,0.92,
1.876,0.71,-2.61,0.94,0.49,0.36,0.94,
1.876,0.71,-2.61,0.94,0.47,0.32,0.97,
1.879,0.71,-2.61,0.94,0.45,0.29,1.00,
1.881,0.71,-2.61,0.94,0.44,0.24,1.02,
1.883,0.71,-2.61,0.94,0.43,0.19,1.05,
1.885,0.98,-2.64,1.09,0.43,0.19,1.05,
1.885,0.98,-2.64,1.09,0.42,0.14,1.07,
1.887,0.98,-2.64,1.09,0.41,0.08,1.09,
1.888,0.98,-2.64,1.09,0.40,0.01,1.11,
1.89,0.98,-2.64,1.09,0.40,-0.06,1.13,
1.892,0.98,-2.64,1.09,0.40,-0.13,1.15,
1.898,1.36,-2.69,1.28,0.40,-0.13,1.15,
1.898,1.36,-2.69,1.28,0.39,-0.21,1.16,
1.898,1.36,-2.69,1.28,0.39,-0.28,1.17,
1.9,1.36,-2.69,1.28,0.38,-0.36,1.17,
1.9,1.36,-2.69,1.28,0.37,-0.42,1.17,
1.907,1.36,-2.69,1.28,0.36,-0.48,1.17,
1.908,2.13,-3.01,0.96,0.36,-0.48,1.17,
1.908,2.13,-3.01,0.96,0.34,-0.53,1.15,
1.908,2.13,-3.01,0.96,0.33,-0.58,1.14,
1.909,2.13,-3.01,0.96,0.31,-0.62,1.11,
1.911,2.13,-3.01,0.96,0.28,-0.64,1.08,
1.921,2.13,-3.01,0.96,0.26,-0.65,1.05,
1.921,2.73,-3.35,-0.13,0.26,-0.65,1.05,
1.922,2.73,-3.35,-0.13,0.23,-0.64,1.01,
1.922,2.73,-3.35,-0.13,0.20,-0.63,0.96,
1.922,2.73,-3.35,-0.13,0.17,-0.61,0.91,
1.922,2.73,-3.35,-0.13,0.14,-0.59,0.86,
1.926,2.86,-3.10,-1.34,0.14,-0.59,0.86,
1.926,2.86,-3.10,-1.34,0.09,-0.56,0.76,
1.926,2.86,-3.10,-1.34,0.09,-0.56,0.76,
1.927,2.86,-3.10,-1.34,0.06,-0.54,0.72,
1.928,2.86,-3.10,-1.34,0.04,-0.53,0.68,
1.93,2.86,-3.10,-1.34,0.01,-0.52,0.65,
1.933,2.86,-3.10,-1.34,-0.01,-0.54,0.62,
1.935,2.43,-2.58,-2.00,-0.01,-0.54,0.62,
1.935,2.43,-2.58,-2.00,-0.03,-0.56,0.59,
1.936,2.43,-2.58,-2.00,-0.04,-0.60,0.56,
1.939,2.43,-2.58,-2.00,-0.05,-0.65,0.53,
1.941,2.43,-2.58,-2.00,-0.06,-0.70,0.50,
1.955,2.43,-2.58,-2.00,-0.06,-0.75,0.47,
1.955,2.06,-1.88,-1.84,-0.06,-0.75,0.47,
1.956,2.06,-1.88,-1.84,-0.07,-0.79,0.44,
1.956,2.06,-1.88,-1.84,-0.08,-0.82,0.42,
1.956,2.06,-1.88,-1.84,-0.08,-0.84,0.40,
1.956,2.06,-1.88,-1.84,-0.08,-0.84,0.38,
1.956,2.06,-1.88,-1.84,-0.08,-0.84,0.36,
1.956,1.20,-1.20,-2.11,-0.08,-0.84,0.36,
1.957,1.20,-1.20,-2.11,-0.08,-0.82,0.36,
1.98,1.20,-1.20,-2.11,-0.08,-0.78,0.35,
1.981,1.20,-1.20,-2.11,-0.08,-0.74,0.34,
1.981,1.20,-1.20,-2.11,-0.08,-0.69,0.34,
1.981,1.20,-1.20,-2.11,-0.07,-0.63,0.35,
1.981,0.55,-0.43,-2.32,-0.07,-0.63,0.35,
1.981,0.55,-0.43,-2.32,-0.07,-0.57,0.35,
1.982,0.55,-0.43,-2.32,-0.06,-0.50,0.36,
1.982,0.55,-0.43,-2.32,-0.05,-0.44,0.37,
1.982,0.55,-0.43,-2.32,-0.04,-0.37,0.39,
1.982,0.55,-0.43,-2.32,-0.02,-0.32,0.40,
1.982,0.22,0.02,-1.95,-0.02,-0.32,0.40,
1.983,0.22,0.02,-1.95,0.01,-0.26,0.41,
1.983,0.22,0.02,-1.95,0.03,-0.21,0.43,
1.983,0.22,0.02,-1.95,0.07,-0.15,0.44,
1.983,0.22,0.02,-1.95,0.11,-0.09,0.44,
1.983,0.22,0.02,-1.95,0.15,-0.05,0.45,
1.985,-0.00,0.04,-0.85,0.15,-0.05,0.45,
1.985,-0.00,0.04,-0.85,0.21,-0.01,0.45,
1.987,-0.00,0.04,-0.85,0.27,0.01,0.44,
1.988,-0.00,0.04,-0.85,0.34,0.03,0.42,
1.991,-0.00,0.04,-0.85,0.40,0.03,0.40,
1.992,-0.00,0.04,-0.85,0.47,0.01,0.38,
1.995,0.66,0.03,0.64,0.47,0.01,0.38,
1.995,0.66,0.03,0.64,0.53,-0.01,0.35,
1.998,0.66,0.03,0.64,0.59,-0.04,0.31,
2.0,0.66,0.03,0.64,0.64,-0.06,0.27,
2.001,0.66,0.03,0.64,0.70,-0.08,0.20,
2.003,0.66,0.03,0.64,0.72,-0.08,0.18,
2.005,1.45,-0.21,0.91,0.72,-0.08,0.18,
2.005,1.45,-0.21,0.91,0.74,-0.08,0.13,
2.007,1.45,-0.21,0.91,0.75,-0.07,0.09,
2.008,1.45,-0.21,0.91,0.76,-0.07,0.05,
2.013,1.45,-0.21,0.91,0.76,-0.07,0.01,
2.013,1.45,-0.21,0.91,0.76,-0.06,-0.02,
2.015,1.62,-0.19,0.18,0.76,-0.06,-0.02,
2.016,1.62,-0.19,0.18,0.75,-0.07,-0.04,
2.018,1.62,-0.19,0.18,0.75,-0.08,-0.07,
2.019,1.62,-0.19,0.18,0.74,-0.09,-0.09,
2.02,1.62,-0.19,0.18,0.73,-0.10,-0.10,
2.022,1.62,-0.19,0.18,0.73,-0.12,-0.11,
2.024,0.92,0.48,-0.04,0.73,-0.12,-0.11,
2.024,0.92,0.48,-0.04,0.73,-0.13,-0.12,
2.026,0.92,0.48,-0.04,0.72,-0.14,-0.12,
2.031,0.92,0.48,-0.04,0.73,-0.15,-0.12,
2.031,0.92,0.48,-0.04,0.73,-0.18,-0.12,
2.032,0.92,0.48,-0.04,0.74,-0.21,-0.12,
2.038,-0.14,0.90,-0.09,0.74,-0.21,-0.12,
2.039,-0.14,0.90,-0.09,0.74,-0.24,-0.11,
2.039,-0.14,0.90,-0.09,0.75,-0.28,-0.10,
2.039,-0.14,0.90,-0.09,0.75,-0.32,-0.09,
2.041,-0.14,0.90,-0.09,0.74,-0.37,-0.08,
2.042,-0.14,0.90,-0.09,0.73,-0.43,-0.07,
2.05,-0.67,1.25,-0.37,0.73,-0.43,-0.07,
2.051,-0.67,1.25,-0.37,0.71,-0.49,-0.05,
2.051,-0.67,1.25,-0.37,0.68,-0.56,-0.04,
2.051,-0.67,1.25,-0.37,0.65,-0.63,-0.03,
2.051,-0.67,1.25,-0.37,0.61,-0.71,-0.01,
2.052,-0.67,1.25,-0.37,0.56,-0.79,-0.00,
2.054,-0.65,1.38,-0.94,0.56,-0.79,-0.00,
2.055,-0.65,1.38,-0.94,0.51,-0.87,0.01,
2.056,-0.65,1.38,-0.94,0.47,-0.95,0.03,
2.058,-0.65,1.38,-0.94,0.41,-1.02,0.05,
2.061,-0.65,1.38,-0.94,0.36,-1.08,0.08,
2.063,-0.65,1.38,-0.94,0.31,-1.14,0.10,
2.065,-0.69,1.19,-1.19,0.31,-1.14,0.10,
2.065,-0.69,1.19,-1.19,0.25,-1.18,0.12,
2.066,-0.69,1.19,-1.19,0.20,-1.21,0.14,
2.068,-0.69,1.19,-1.19,0.15,-1.23,0.16,
2.07,-0.69,1.19,-1.19,0.11,-1.25,0.17,
2.072,-0.69,1.19,-1.19,0.07,-1.26,0.17,
2.075,-0.25,0.71,-1.49,0.07,-1.26,0.17,
2.075,-0.25,0.71,-1.49,0.05,-1.26,0.16,
2.077,-0.25,0.71,-1.49,0.02,-1.25,0.16,
2.078,-0.25,0.71,-1.49,0.00,-1.24,0.15,
2.08,-0.25,0.71,-1.49,-0.01,-1.22,0.13,
2.082,-0.25,0.71,-1.49,-0.01,-1.19,0.11,
2.085,0.05,-0.05,-1.36,-0.01,-1.19,0.11,
2.085,0.05,-0.05,-1.36,-0.00,-1.16,0.09,
2.086,0.05,-0.05,-1.36,0.01,-1.12,0.07,
2.088,0.05,-0.05,-1.36,0.04,-1.09,0.05,
2.09,0.05,-0.05,-1.36,0.07,-1.06,0.03,
2.092,0.05,-0.05,-1.36,0.10,-1.02,0.00,
2.095,-0.15,-0.32,-1.09,0.10,-1.02,0.00,
2.095,-0.15,-0.32,-1.09,0.14,-0.99,-0.02,
2.096,-0.15,-0.32,-1.09,0.18,-0.96,-0.05,
2.098,-0.15,-0.32,-1.09,0.22,-0.94,-0.07,
2.101,-0.15,-0.32,-1.09,0.26,-0.91,-0.10,
2.102,-0.15,-0.32,-1.09,0.30,-0.89,-0.12,
2.105,-0.61,-0.24,-1.41,0.30,-0.89,-0.12,
2.105,-0.61,-0.24,-1.41,0.34,-0.88,-0.15,
2.106,-0.61,-0.24,-1.41,0.37,-0.86,-0.17,
2.121,-0.61,-0.24,-1.41,0.39,-0.84,-0.18,
2.122,-0.61,-0.24,-1.41,0.41,-0.81,-0.20,
2.122,-0.61,-0.24,-1.41,0.43,-0.77,-0.21,
2.122,-1.18,0.32,-2.39,0.43,-0.77,-0.21,
2.122,-1.18,0.32,-2.39,0.43,-0.73,-0.22,
2.122,-1.18,0.32,-2.39,0.43,-0.69,-0.23,
2.123,-1.18,0.32,-2.39,0.42,-0.64,-0.23,
2.123,-1.18,0.32,-2.39,0.41,-0.59,-0.22,
2.123,-1.18,0.32,-2.39,0.39,-0.54,-0.21,
2.149,-1.74,1.02,-3.18,0.39,-0.54,-0.21,
2.149,-1.74,1.02,-3.18,0.36,-0.49,-0.19,
2.149,-1.74,1.02,-3.18,0.33,-0.44,-0.17,
2.15,-1.74,1.02,-3.18,0.30,-0.40,-0.15,
2.15,-1.74,1.02,-3.18,0.27,-0.36,-0.13,
2.15,-1.74,1.02,-3.18,0.23,-0.33,-0.11,
2.15,-2.27,1.34,-3.33,0.23,-0.33,-0.11,
2.151,-2.27,1.34,-3.33,0.20,-0.29,-0.09,
2.151,-2.27,1.34,-3.33,0.16,-0.26,-0.07,
2.152,-2.27,1.34,-3.33,0.12,-0.24,-0.05,
2.152,-2.27,1.34,-3.33,0.08,-0.23,-0.04,
2.152,-2.27,1.34,-3.33,0.04,-0.22,-0.03,
2.153,-1.90,1.27,-2.81,0.04,-0.22,-0.03,
2.153,-1.90,1.27,-2.81,-0.01,-0.23,-0.02,
2.153,-1.90,1.27,-2.81,-0.06,-0.24,-0.01,
2.153,-1.90,1.27,-2.81,-0.11,-0.26,-0.01,
2.153,-1.90,1.27,-2.81,-0.15,-0.28,-0.00,
2.154,-1.90,1.27,-2.81,-0.20,-0.31,0.00,
2.157,-1.55,0.91,-1.86,-0.20,-0.31,0.00,
2.157,-1.55,0.91,-1.86,-0.24,-0.34,0.01,
2.157,-1.55,0.91,-1.86,-0.28,-0.37,0.01,
2.159,-1.55,0.91,-1.86,-0.32,-0.40,0.02,
2.161,-1.55,0.91,-1.86,-0.35,-0.44,0.02,
2.169,-1.55,0.91,-1.86,-0.38,-0.48,0.03,
2.171,-1.73,0.82,-0.98,-0.38,-0.48,0.03,
2.171,-1.73,0.82,-0.98,-0.40,-0.53,0.02,
2.172,-1.73,0.82,-0.98,-0.42,-0.58,0.02,
2.172,-1.73,0.82,-0.98,-0.44,-0.63,0.02,
2.172,-1.73,0.82,-0.98,-0.45,-0.68,0.01,
2.172,-1.73,0.82,-0.98,-0.46,-0.73,-0.00,
2.175,-1.61,0.67,-0.61,-0.46,-0.73,-0.00,
2.175,-1.61,0.67,-0.61,-0.47,-0.77,-0.02,
2.184,-1.61,0.67,-0.61,-0.48,-0.79,-0.03,
2.184,-1.61,0.67,-0.61,-0.49,-0.80,-0.05,
2.184,-1.61,0.67,-0.61,-0.50,-0.80,-0.06,
2.185,-1.61,0.67,-0.61,-0.50,-0.78,-0.08,
2.218,-1.64,0.83,-1.09,-0.50,-0.78,-0.08,
2.219,-1.64,0.83,-1.09,-0.51,-0.76,-0.10,
2.219,-1.64,0.83,-1.09,-0.51,-0.73,-0.12,
2.219,-1.64,0.83,-1.09,-0.52,-0.69,-0.13,
2.219,-1.64,0.83,-1.09,-0.52,-0.65,-0.13,
2.219,-1.64,0.83,-1.09,-0.52,-0.62,-0.13,
2.219,-1.98,1.36,-1.54,-0.52,-0.62,-0.13,
2.22,-1.98,1.36,-1.54,-0.52,-0.59,-0.13,
2.22,-1.98,1.36,-1.54,-0.52,-0.56,-0.12,
2.22,-1.98,1.36,-1.54,-0.52,-0.53,-0.10,
2.22,-1.98,1.36,-1.54,-0.51,-0.49,-0.08,
2.22,-1.98,1.36,-1.54,-0.51,-0.45,-0.05,
2.221,-2.67,2.23,-1.67,-0.51,-0.45,-0.05,
2.221,-2.67,2.23,-1.67,-0.50,-0.40,-0.02,
2.221,-2.67,2.23,-1.67,-0.50,-0.36,0.01,
2.221,-2.67,2.23,-1.67,-0.49,-0.32,0.05,
2.221,-2.67,2.23,-1.67,-0.48,-0.28,0.09,
2.222,-2.67,2.23,-1.67,-0.47,-0.24,0.13,
2.222,-3.57,2.77,-1.46,-0.47,-0.24,0.13,
2.222,-3.57,2.77,-1.46,-0.46,-0.20,0.18,
2.222,-3.57,2.77,-1.46,-0.45,-0.17,0.21,
2.222,-3.57,2.77,-1.46,-0.44,-0.13,0.23,
2.222,-3.57,2.77,-1.46,-0.43,-0.09,0.25,
2.223,-3.57,2.77,-1.46,-0.43,-0.06,0.26,
2.229,-3.22,2.72,-0.81,-0.43,-0.06,0.26,
2.23,-3.22,2.72,-0.81,-0.42,-0.04,0.27,
2.23,-3.22,2.72,-0.81,-0.42,-0.02,0.27,
2.23,-3.22,2.72,-0.81,-0.43,-0.02,0.27,
2.23,-3.22,2.72,-0.81,-0.44,-0.02,0.26,
2.233,-3.22,2.72,-0.81,-0.45,-0.02,0.26,
2.239,-2.60,2.20,-0.02,-0.45,-0.02,0.26,
2.239,-2.60,2.20,-0.02,-0.47,-0.03,0.25,
2.239,-2.60,2.20,-0.02,-0.49,-0.04,0.24,
2.239,-2.60,2.20,-0.02,-0.51,-0.05,0.23,
2.241,-2.60,2.20,-0.02,-0.53,-0.06,0.21,
2.244,-2.60,2.20,-0.02,-0.55,-0.07,0.20,
2.245,-1.95,1.72,1.26,-0.55,-0.07,0.20,
2.246,-1.95,1.72,1.26,-0.56,-0.09,0.18,
2.247,-1.95,1.72,1.26,-0.58,-0.10,0.16,
2.249,-1.95,1.72,1.26,-0.58,-0.12,0.14,
2.251,-1.95,1.72,1.26,-0.59,-0.13,0.12,
2.253,-1.95,1.72,1.26,-0.59,-0.15,0.09,
2.257,-1.78,1.29,2.65,-0.59,-0.15,0.09,
2.257,-1.78,1.29,2.65,-0.58,-0.16,0.06,
2.258,-1.78,1.29,2.65,-0.57,-0.16,0.03,
2.258,-1.78,1.29,2.65,-0.56,-0.16,-0.00,
2.261,-1.78,1.29,2.65,-0.54,-0.15,-0.04,
2.265,-1.78,1.29,2.65,-0.52,-0.14,-0.09,
2.265,-1.58,1.19,3.04,-0.52,-0.14,-0.09,
2.265,-1.58,1.19,3.04,-0.50,-0.12,-0.12,
2.267,-1.58,1.19,3.04,-0.47,-0.10,-0.16,
2.269,-1.58,1.19,3.04,-0.44,-0.07,-0.19,
2.271,-1.58,1.19,3.04,-0.41,-0.04,-0.21,
2.272,-1.58,1.19,3.04,-0.38,0.00,-0.22,
2.278,-2.38,1.89,2.55,-0.38,0.00,-0.22,
2.296,-2.38,1.89,2.55,-0.35,0.04,-0.23,
2.296,-2.38,1.89,2.55,-0.33,0.08,-0.22,
2.296,-2.38,1.89,2.55,-0.30,0.13,-0.21,
2.296,-2.38,1.89,2.55,-0.28,0.18,-0.20,
2.297,-2.38,1.89,2.55,-0.27,0.23,-0.17,
2.297,-2.52,2.67,1.85,-0.27,0.23,-0.17,
2.297,-2.52,2.67,1.85,-0.26,0.29,-0.15,
2.297,-2.52,2.67,1.85,-0.26,0.35,-0.12,
2.297,-2.52,2.67,1.85,-0.26,0.42,-0.09,
2.298,-2.52,2.67,1.85,-0.27,0.49,-0.06,
2.298,-2.52,2.67,1.85,-0.29,0.56,-0.02,
2.298,-2.10,3.11,1.19,-0.29,0.56,-0.02,
2.298,-2.10,3.11,1.19,-0.31,0.64,0.01,
2.324,-2.10,3.11,1.19,-0.33,0.72,0.04,
2.325,-2.10,3.11,1.19,-0.35,0.79,0.07,
2.326,-2.10,3.11,1.19,-0.38,0.85,0.10,
2.326,-2.10,3.11,1.19,-0.40,0.91,0.13,
2.326,-1.20,2.63,1.22,-0.40,0.91,0.13,
2.326,-1.20,2.63,1.22,-0.43,0.96,0.16,
2.326,-1.20,2.63,1.22,-0.45,1.00,0.18,
2.326,-1.20,2.63,1.22,-0.47,1.03,0.21,
2.327,-1.20,2.63,1.22,-0.48,1.06,0.22,
2.327,-1.20,2.63,1.22,-0.50,1.07,0.24,
2.327,-0.31,1.64,2.04,-0.50,1.07,0.24,
2.327,-0.31,1.64,2.04,-0.52,1.08,0.26,
2.327,-0.31,1.64,2.04,-0.54,1.09,0.27,
2.327,-0.31,1.64,2.04,-0.57,1.09,0.28,
2.327,-0.31,1.64,2.04,-0.59,1.08,0.28,
2.328,-0.31,1.64,2.04,-0.61,1.07,0.28,
2.328,0.28,0.91,2.27,-0.61,1.07,0.28,
2.328,0.28,0.91,2.27,-0.64,1.05,0.28,
2.328,0.28,0.91,2.27,-0.66,1.03,0.29,
2.33,0.28,0.91,2.27,-0.69,1.00,0.29,
2.331,0.28,0.91,2.27,-0.72,0.95,0.30,
2.332,0.28,0.91,2.27,-0.75,0.91,0.31,
2.335,0.07,0.15,2.11,-0.75,0.91,0.31,
2.335,0.07,0.15,2.11,-0.78,0.86,0.32,
2.336,0.07,0.15,2.11,-0.81,0.81,0.33,
2.338,0.07,0.15,2.11,-0.84,0.77,0.34,
2.34,0.07,0.15,2.11,-0.87,0.73,0.34,
2.345,0.07,0.15,2.11,-0.90,0.71,0.34,
2.346,-0.03,-0.76,1.32,-0.90,0.71,0.34,
2.346,-0.03,-0.76,1.32,-0.94,0.69,0.33,
2.347,-0.03,-0.76,1.32,-0.97,0.68,0.32,
2.349,-0.03,-0.76,1.32,-1.01,0.68,0.31,
2.357,-0.03,-0.76,1.32,-1.06,0.71,0.28,
2.357,-0.03,-0.76,1.32,-1.08,0.72,0.26,
2.357,-0.21,-2.14,0.38,-1.08,0.72,0.26,
2.357,-0.21,-2.14,0.38,-1.10,0.76,0.23,
2.357,-0.21,-2.14,0.38,-1.11,0.80,0.19,
2.388,-0.21,-2.14,0.38,-1.11,0.84,0.15,
2.388,-0.21,-2.14,0.38,-1.10,0.87,0.10,
2.389,-0.21,-2.14,0.38,-1.08,0.89,0.06,
2.389,0.09,-3.10,0.87,-1.08,0.89,0.06,
2.389,0.09,-3.10,0.87,-1.05,0.91,0.01,
2.389,0.09,-3.10,0.87,-1.01,0.92,-0.04,
2.389,0.09,-3.10,0.87,-0.97,0.92,-0.08,
2.389,0.09,-3.10,0.87,-0.92,0.92,-0.12,
2.39,0.09,-3.10,0.87,-0.86,0.91,-0.16,
2.39,0.17,-2.75,1.33,-0.86,0.91,-0.16,
2.39,0.17,-2.75,1.33,-0.81,0.89,-0.19,
2.39,0.17,-2.75,1.33,-0.75,0.86,-0.22,
2.39,0.17,-2.75,1.33,-0.70,0.83,-0.23,
2.39,0.17,-2.75,1.33,-0.65,0.81,-0.25,
2.39,0.17,-2.75,1.33,-0.61,0.80,-0.25,
2.391,-0.32,-1.71,0.64,-0.61,0.80,-0.25,
2.391,-0.32,-1.71,0.64,-0.57,0.78,-0.26,
2.391,-0.32,-1.71,0.64,-0.53,0.77,-0.26,
2.391,-0.32,-1.71,0.64,-0.50,0.75,-0.25,
2.391,-0.32,-1.71,0.64,-0.46,0.73,-0.24,
2.396,-0.32,-1.71,0.64,-0.43,0.71,-0.22,
2.396,-0.83,-0.50,0.04,-0.43,0.71,-0.22,
2.396,-0.83,-0.50,0.04,-0.40,0.70,-0.20,
2.396,-0.83,-0.50,0.04,-0.37,0.69,-0.17,
2.401,-0.83,-0.50,0.04,-0.35,0.69,-0.15,
2.401,-0.83,-0.50,0.04,-0.34,0.69,-0.13,
2.403,-0.83,-0.50,0.04,-0.33,0.71,-0.11,
2.404,-0.51,0.11,-0.62,-0.33,0.71,-0.11,
2.405,-0.51,0.11,-0.62,-0.32,0.73,-0.10,
2.406,-0.51,0.11,-0.62,-0.32,0.76,-0.09,
2.411,-0.51,0.11,-0.62,-0.32,0.79,-0.09,
2.411,-0.51,0.11,-0.62,-0.32,0.83,-0.08,
2.413,-0.51,0.11,-0.62,-0.32,0.87,-0.08,
2.415,-0.13,0.01,-0.47,-0.32,0.87,-0.08,
2.415,-0.13,0.01,-0.47,-0.32,0.90,-0.08,
2.416,-0.13,0.01,-0.47,-0.31,0.93,-0.08,
2.419,-0.13,0.01,-0.47,-0.30,0.94,-0.09,
2.42,-0.13,0.01,-0.47,-0.28,0.96,-0.10,
2.423,-0.13,0.01,-0.47,-0.26,0.97,-0.11,
2.428,-0.02,-0.56,1.30,-0.26,0.97,-0.11,
2.428,-0.02,-0.56,1.30,-0.21,0.95,-0.13,
2.429,-0.02,-0.56,1.30,-0.21,0.95,-0.13,
2.429,-0.02,-0.56,1.30,-0.18,0.93,-0.15,
2.432,-0.02,-0.56,1.30,-0.15,0.90,-0.16,
2.433,-0.02,-0.56,1.30,-0.11,0.85,-0.17,
2.435,-0.15,-0.74,2.43,-0.11,0.85,-0.17,
2.435,-0.15,-0.74,2.43,-0.08,0.80,-0.18,
2.437,-0.15,-0.74,2.43,-0.06,0.73,-0.20,
2.438,-0.15,-0.74,2.43,-0.03,0.66,-0.20,
2.44,-0.15,-0.74,2.43,-0.01,0.59,-0.20,
2.467,-0.15,-0.74,2.43,0.01,0.52,-0.18,
2.467,-0.65,-0.99,3.16,0.01,0.52,-0.18,
2.467,-0.65,-0.99,3.16,0.03,0.47,-0.16,
2.468,-0.65,-0.99,3.16,0.05,0.42,-0.14,
2.468,-0.65,-0.99,3.16,0.07,0.38,-0.11,
2.468,-0.65,-0.99,3.16,0.08,0.35,-0.08,
2.468,-0.65,-0.99,3.16,0.10,0.32,-0.06,
2.468,-0.84,-1.40,3.49,0.10,0.32,-0.06,
2.469,-0.84,-1.40,3.49,0.10,0.29,-0.03,
2.469,-0.84,-1.40,3.49,0.11,0.25,-0.00,
2.469,-0.84,-1.40,3.49,0.11,0.22,0.03,
2.469,-0.84,-1.40,3.49,0.11,0.20,0.05,
2.469,-0.84,-1.40,3.49,0.11,0.17,0.07,
2.469,-0.23,-1.85,2.82,0.11,0.17,0.07,
2.47,-0.23,-1.85,2.82,0.11,0.13,0.09,
2.47,-0.23,-1.85,2.82,0.11,0.10,0.10,
2.47,-0.23,-1.85,2.82,0.11,0.07,0.11,
2.47,-0.23,-1.85,2.82,0.11,0.04,0.10,
2.513,-0.23,-1.85,2.82,0.11,-0.00,0.09,
2.513,1.26,-2.03,2.27,0.11,-0.00,0.09,
2.513,1.26,-2.03,2.27,0.11,-0.05,0.08,
2.514,1.26,-2.03,2.27,0.10,-0.12,0.06,
2.514,1.26,-2.03,2.27,0.10,-0.18,0.03,
2.514,1.26,-2.03,2.27,0.09,-0.24,0.01,
2.514,1.26,-2.03,2.27,0.08,-0.31,-0.01,
2.515,2.27,-2.44,1.67,0.08,-0.31,-0.01,
2.515,2.27,-2.44,1.67,0.07,-0.38,-0.03,
2.515,2.27,-2.44,1.67,0.06,-0.45,-0.05,
2.515,2.27,-2.44,1.67,0.05,-0.52,-0.07,
2.515,2.27,-2.44,1.67,0.04,-0.59,-0.09,
2.515,2.27,-2.44,1.67,0.03,-0.66,-0.10,
2.516,2.44,-2.44,1.17,0.03,-0.66,-0.10,
2.516,2.44,-2.44,1.17,0.01,-0.73,-0.12,
2.516,2.44,-2.44,1.17,-0.01,-0.79,-0.14,
2.516,2.44,-2.44,1.17,-0.03,-0.84,-0.16,
2.516,2.44,-2.44,1.17,-0.05,-0.88,-0.18,
2.517,2.44,-2.44,1.17,-0.08,-0.91,-0.21,
2.517,2.65,-2.96,0.04,-0.08,-0.91,-0.21,
2.517,2.65,-2.96,0.04,-0.10,-0.94,-0.24,
2.517,2.65,-2.96,0.04,-0.13,-0.96,-0.28,
2.517,2.65,-2.96,0.04,-0.14,-0.97,-0.33,
2.517,2.65,-2.96,0.04,-0.15,-0.96,-0.38,
2.518,2.65,-2.96,0.04,-0.15,-0.94,-0.44,
2.518,3.10,-4.14,-0.34,-0.15,-0.94,-0.44,
2.518,3.10,-4.14,-0.34,-0.14,-0.90,-0.50,
2.518,3.10,-4.14,-0.34,-0.12,-0.84,-0.56,
2.518,3.10,-4.14,-0.34,-0.10,-0.78,-0.62,
2.521,3.10,-4.14,-0.34,-0.06,-0.72,-0.68,
2.526,3.10,-4.14,-0.34,-0.02,-0.66,-0.73,
2.527,2.31,-4.26,0.42,-0.02,-0.66,-0.73,
2.527,2.31,-4.26,0.42,0.03,-0.60,-0.79,
2.527,2.31,-4.26,0.42,0.08,-0.55,-0.85,
2.549,2.31,-4.26,0.42,0.14,-0.50,-0.91,
2.55,2.31,-4.26,0.42,0.20,-0.46,-0.96,
2.55,2.31,-4.26,0.42,0.27,-0.40,-1.01,
2.551,1.03,-3.35,0.64,0.27,-0.40,-1.01,
2.551,1.03,-3.35,0.64,0.33,-0.35,-1.05,
2.551,1.03,-3.35,0.64,0.39,-0.29,-1.08,
2.551,1.03,-3.35,0.64,0.44,-0.23,-1.10,
2.551,1.03,-3.35,0.64,0.48,-0.16,-1.10,
2.551,1.03,-3.35,0.64,0.51,-0.08,-1.09,
2.551,-1.46,-1.74,-0.66,0.51,-0.08,-1.09,
2.552,-1.46,-1.74,-0.66,0.54,0.01,-1.07,
2.552,-1.46,-1.74,-0.66,0.55,0.10,-1.04,
2.552,-1.46,-1.74,-0.66,0.56,0.21,-1.00,
2.552,-1.46,-1.74,-0.66,0.56,0.30,-0.95,
2.554,-1.46,-1.74,-0.66,0.56,0.39,-0.89,
2.555,-3.36,0.18,-1.57,0.56,0.39,-0.89,
2.555,-3.36,0.18,-1.57,0.55,0.46,-0.83,
2.556,-3.36,0.18,-1.57,0.54,0.52,-0.75,
2.559,-3.36,0.18,-1.57,0.52,0.56,-0.67,
2.56,-3.36,0.18,-1.57,0.50,0.59,-0.59,
2.565,-3.36,0.18,-1.57,0.47,0.61,-0.52,
2.566,-3.24,1.52,-1.39,0.47,0.61,-0.52,
2.566,-3.24,1.52,-1.39,0.44,0.61,-0.44,
2.567,-3.24,1.52,-1.39,0.41,0.62,-0.36,
2.568,-3.24,1.52,-1.39,0.37,0.61,-0.30,
2.57,-3.24,1.52,-1.39,0.33,0.59,-0.23,
2.574,-3.24,1.52,-1.39,0.28,0.58,-0.18,
2.58,-1.74,1.63,-0.99,0.28,0.58,-0.18,
2.58,-1.74,1.63,-0.99,0.23,0.56,-0.13,
2.581,-1.74,1.63,-0.99,0.17,0.55,-0.08,
2.581,-1.74,1.63,-0.99,0.10,0.53,-0.04,
2.581,-1.74,1.63,-0.99,0.04,0.51,0.00,
2.583,-1.74,1.63,-0.99,-0.03,0.50,0.04,
2.585,-0.45,1.22,-1.09,-0.03,0.50,0.04,
2.585,-0.45,1.22,-1.09,-0.11,0.50,0.08,
2.587,-0.45,1.22,-1.09,-0.19,0.50,0.12,
2.589,-0.45,1.22,-1.09,-0.27,0.51,0.15,
2.623,-0.45,1.22,-1.09,-0.36,0.53,0.18,
2.623,-0.45,1.22,-1.09,-0.44,0.55,0.20,
2.624,0.79,1.06,-1.85,-0.44,0.55,0.20,
2.624,0.79,1.06,-1.85,-0.53,0.57,0.23,
2.624,0.79,1.06,-1.85,-0.61,0.60,0.25,
2.624,0.79,1.06,-1.85,-0.68,0.63,0.27,
2.624,0.79,1.06,-1.85,-0.75,0.67,0.29,
2.625,0.79,1.06,-1.85,-0.81,0.71,0.31,
2.625,1.47,0.52,-1.85,-0.81,0.71,0.31,
2.625,1.47,0.52,-1.85,-0.86,0.73,0.33,
2.625,1.47,0.52,-1.85,-0.91,0.74,0.34,
2.649,1.47,0.52,-1.85,-0.95,0.72,0.36,
2.65,1.47,0.52,-1.85,-0.98,0.68,0.36,
2.65,1.47,0.52,-1.85,-1.01,0.63,0.36,
2.652,2.70,-0.50,-1.36,-1.01,0.63,0.36,
2.652,2.70,-0.50,-1.36,-1.03,0.56,0.34,
2.652,2.70,-0.50,-1.36,-1.06,0.48,0.32,
2.652,2.70,-0.50,-1.36,-1.08,0.39,0.28,
2.653,2.70,-0.50,-1.36,-1.09,0.30,0.24,
2.653,2.70,-0.50,-1.36,-1.11,0.20,0.19,
2.653,3.55,-0.92,-0.91,-1.11,0.20,0.19,
2.653,3.55,-0.92,-0.91,-1.12,0.11,0.14,
2.653,3.55,-0.92,-0.91,-1.13,0.01,0.08,
2.653,3.55,-0.92,-0.91,-1.13,-0.10,0.02,
2.654,3.55,-0.92,-0.91,-1.14,-0.22,-0.04,
2.654,3.55,-0.92,-0.91,-1.14,-0.33,-0.10,
2.654,4.31,-1.62,-0.76,-1.14,-0.33,-0.10,
2.654,4.31,-1.62,-0.76,-1.14,-0.45,-0.18,
2.655,4.31,-1.62,-0.76,-1.15,-0.57,-0.25,
2.655,4.31,-1.62,-0.76,-1.15,-0.69,-0.33,
2.655,4.31,-1.62,-0.76,-1.14,-0.82,-0.40,
2.655,4.31,-1.62,-0.76,-1.13,-0.96,-0.48,
2.655,5.03,-2.57,-0.89,-1.13,-0.96,-0.48,
2.656,5.03,-2.57,-0.89,-1.12,-1.08,-0.56,
2.656,5.03,-2.57,-0.89,-1.10,-1.18,-0.63,
2.656,5.03,-2.57,-0.89,-1.07,-1.27,-0.69,
2.656,5.03,-2.57,-0.89,-1.05,-1.34,-0.75,
2.656,5.03,-2.57,-0.89,-1.02,-1.40,-0.81,
2.657,4.28,-3.15,-1.19,-1.02,-1.40,-0.81,
2.66,4.28,-3.15,-1.19,-1.00,-1.44,-0.86,
2.661,4.28,-3.15,-1.19,-0.97,-1.46,-0.90,
2.661,4.28,-3.15,-1.19,-0.95,-1.47,-0.94,
2.661,4.28,-3.15,-1.19,-0.92,-1.47,-0.97,
2.696,4.28,-3.15,-1.19,-0.90,-1.45,-1.00,
2.696,2.85,-2.98,-1.85,-0.90,-1.45,-1.00,
2.697,2.85,-2.98,-1.85,-0.87,-1.40,-1.01,
2.697,2.85,-2.98,-1.85,-0.85,-1.34,-1.02,
2.697,2.85,-2.98,-1.85,-0.83,-1.25,-1.03,
2.697,2.85,-2.98,-1.85,-0.82,-1.14,-1.03,
2.697,2.85,-2.98,-1.85,-0.81,-1.00,-1.02,
2.698,1.10,-2.27,-3.20,-0.81,-1.00,-1.02,
2.698,1.10,-2.27,-3.20,-0.80,-0.85,-1.01,
2.698,1.10,-2.27,-3.20,-0.78,-0.69,-0.98,
2.698,1.10,-2.27,-3.20,-0.77,-0.53,-0.95,
2.699,1.10,-2.27,-3.20,-0.75,-0.35,-0.91,
2.699,1.10,-2.27,-3.20,-0.72,-0.19,-0.86,
2.699,-0.52,-1.25,-2.86,-0.72,-0.19,-0.86,
2.699,-0.52,-1.25,-2.86,-0.69,-0.04,-0.80,
2.699,-0.52,-1.25,-2.86,-0.65,0.10,-0.73,
2.699,-0.52,-1.25,-2.86,-0.61,0.20,-0.65,
2.7,-0.52,-1.25,-2.86,-0.57,0.29,-0.56,
2.7,-0.52,-1.25,-2.86,-0.53,0.37,-0.47,
2.7,-2.03,-0.16,-1.42,-0.53,0.37,-0.47,
2.7,-2.03,-0.16,-1.42,-0.50,0.43,-0.38,
2.7,-2.03,-0.16,-1.42,-0.47,0.48,-0.28,
2.7,-2.03,-0.16,-1.42,-0.45,0.52,-0.19,
2.704,-2.03,-0.16,-1.42,-0.42,0.57,-0.06,
2.705,-2.03,-0.16,-1.42,-0.42,0.58,-0.02,
2.705,-2.70,0.46,-0.74,-0.42,0.58,-0.02,
2.706,-2.70,0.46,-0.74,-0.42,0.61,0.04,
2.707,-2.70,0.46,-0.74,-0.43,0.64,0.10,
2.718,-2.70,0.46,-0.74,-0.45,0.67,0.15,
2.72,-2.70,0.46,-0.74,-0.47,0.69,0.18,
2.721,-2.70,0.46,-0.74,-0.50,0.71,0.21,
2.721,-1.91,0.06,-0.80,-0.50,0.71,0.21,
2.721,-1.91,0.06,-0.80,-0.54,0.73,0.24,
2.721,-1.91,0.06,-0.80,-0.58,0.74,0.26,
2.721,-1.91,0.06,-0.80,-0.62,0.75,0.28,
2.721,-1.91,0.06,-0.80,-0.66,0.75,0.30,
2.723,-1.91,0.06,-0.80,-0.70,0.74,0.31,
2.731,-0.35,-0.48,-0.31,-0.70,0.74,0.31,
2.732,-0.35,-0.48,-0.31,-0.73,0.72,0.31,
2.732,-0.35,-0.48,-0.31,-0.76,0.68,0.30,
2.732,-0.35,-0.48,-0.31,-0.79,0.63,0.28,
2.732,-0.35,-0.48,-0.31,-0.81,0.56,0.25,
2.733,-0.35,-0.48,-0.31,-0.83,0.49,0.22,
2.736,1.98,-0.55,0.38,-0.83,0.49,0.22,
2.737,1.98,-0.55,0.38,-0.84,0.40,0.19,
2.738,1.98,-0.55,0.38,-0.85,0.31,0.16,
2.739,1.98,-0.55,0.38,-0.86,0.22,0.11,
2.788,1.98,-0.55,0.38,-0.86,0.13,0.07,
2.789,1.98,-0.55,0.38,-0.85,0.05,0.03,
2.789,3.81,-0.20,0.45,-0.85,0.05,0.03,
2.789,3.81,-0.20,0.45,-0.85,-0.04,-0.02,
2.79,3.81,-0.20,0.45,-0.85,-0.11,-0.06,
2.79,3.81,-0.20,0.45,-0.85,-0.17,-0.10,
2.79,3.81,-0.20,0.45,-0.85,-0.21,-0.14,
2.79,3.81,-0.20,0.45,-0.85,-0.23,-0.18,
2.79,5.19,0.24,-0.71,-0.85,-0.23,-0.18,
2.79,5.19,0.24,-0.71,-0.84,-0.23,-0.21,
2.791,5.19,0.24,-0.71,-0.84,-0.23,-0.24,
2.791,5.19,0.24,-0.71,-0.84,-0.21,-0.27,
2.791,5.19,0.24,-0.71,-0.84,-0.18,-0.29,
2.791,5.19,0.24,-0.71,-0.84,-0.13,-0.30,
2.791,5.30,1.23,-1.61,-0.84,-0.13,-0.30,
2.791,5.30,1.23,-1.61,-0.83,-0.09,-0.31,
2.792,5.30,1.23,-1.61,-0.81,-0.06,-0.32,
2.792,5.30,1.23,-1.61,-0.80,-0.02,-0.33,
2.792,5.30,1.23,-1.61,-0.79,0.03,-0.32,
2.792,5.30,1.23,-1.61,-0.78,0.08,-0.30,
2.792,4.66,2.90,-1.94,-0.78,0.08,-0.30,
2.807,4.66,2.90,-1.94,-0.77,0.15,-0.28,
2.808,4.66,2.90,-1.94,-0.77,0.23,-0.25,
2.808,4.66,2.90,-1.94,-0.78,0.32,-0.21,
2.808,4.66,2.90,-1.94,-0.78,0.42,-0.17,
2.808,4.66,2.90,-1.94,-0.79,0.51,-0.13,
2.808,3.82,3.70,-1.35,-0.79,0.51,-0.13,
2.808,3.82,3.70,-1.35,-0.80,0.61,-0.08,
2.809,3.82,3.70,-1.35,-0.81,0.70,-0.03,
2.809,3.82,3.70,-1.35,-0.81,0.79,0.02,
2.809,3.82,3.70,-1.35,-0.81,0.85,0.06,
2.809,3.82,3.70,-1.35,-0.80,0.90,0.11,
2.809,2.50,3.58,1.16,-0.80,0.90,0.11,
2.809,2.50,3.58,1.16,-0.78,0.93,0.14,
2.809,2.50,3.58,1.16,-0.74,0.95,0.17,
2.81,2.50,3.58,1.16,-0.67,0.94,0.19,
2.81,2.50,3.58,1.16,-0.65,0.93,0.20,
2.81,2.50,3.58,1.16,-0.59,0.91,0.19,
2.81,0.87,3.05,4.14,-0.59,0.91,0.19,
2.81,0.87,3.05,4.14,-0.54,0.87,0.18,
2.81,0.87,3.05,4.14,-0.48,0.83,0.16,
2.811,0.87,3.05,4.14,-0.42,0.77,0.13,
2.811,0.87,3.05,4.14,-0.36,0.70,0.09,
2.837,0.87,3.05,4.14,-0.30,0.64,0.05,
2.838,-0.43,2.64,5.25,-0.30,0.64,0.05,
2.838,-0.43,2.64,5.25,-0.25,0.58,-0.01,
2.838,-0.43,2.64,5.25,-0.21,0.51,-0.07,
2.838,-0.43,2.64,5.25,-0.17,0.45,-0.13,
2.838,-0.43,2.64,5.25,-0.14,0.39,-0.21,
2.838,-0.43,2.64,5.25,-0.12,0.34,-0.29,
2.839,-1.74,2.69,3.73,-0.12,0.34,-0.29,
2.839,-1.74,2.69,3.73,-0.10,0.30,-0.37,
2.839,-1.74,2.69,3.73,-0.09,0.26,-0.45,
2.839,-1.74,2.69,3.73,-0.09,0.23,-0.53,
2.839,-1.74,2.69,3.73,-0.10,0.20,-0.60,
2.839,-1.74,2.69,3.73,-0.12,0.15,-0.66,
2.84,-3.16,4.17,1.66,-0.12,0.15,-0.66,
2.84,-3.16,4.17,1.66,-0.14,0.11,-0.70,
2.84,-3.16,4.17,1.66,-0.17,0.05,-0.73,
2.84,-3.16,4.17,1.66,-0.21,0.00,-0.73,
2.84,-3.16,4.17,1.66,-0.24,-0.04,-0.72,
2.844,-3.16,4.17,1.66,-0.28,-0.06,-0.69,
2.845,-4.67,5.81,0.04,-0.28,-0.06,-0.69,
2.845,-4.67,5.81,0.04,-0.31,-0.08,-0.63,
2.848,-4.67,5.81,0.04,-0.35,-0.09,-0.57,
2.849,-4.67,5.81,0.04,-0.39,-0.09,-0.49,
2.852,-4.67,5.81,0.04,-0.42,-0.09,-0.40,
2.852,-4.67,5.81,0.04,-0.46,-0.10,-0.30,
2.856,-5.71,6.32,-0.86,-0.46,-0.10,-0.30,
2.857,-5.71,6.32,-0.86,-0.49,-0.10,-0.20,
2.857,-5.71,6.32,-0.86,-0.52,-0.11,-0.10,
2.861,-5.71,6.32,-0.86,-0.54,-0.11,-0.02,
2.861,-5.71,6.32,-0.86,-0.57,-0.10,0.07,
2.862,-5.71,6.32,-0.86,-0.59,-0.09,0.15,
2.865,-4.73,5.48,-1.36,-0.59,-0.09,0.15,
2.866,-4.73,5.48,-1.36,-0.61,-0.09,0.22,
2.866,-4.73,5.48,-1.36,-0.63,-0.09,0.28,
2.868,-4.73,5.48,-1.36,-0.66,-0.10,0.36,
2.87,-4.73,5.48,-1.36,-0.66,-0.11,0.38,
2.872,-4.73,5.48,-1.36,-0.68,-0.12,0.41,
2.875,-2.66,4.02,-1.36,-0.68,-0.12,0.41,
2.876,-2.66,4.02,-1.36,-0.69,-0.13,0.43,
2.876,-2.66,4.02,-1.36,-0.71,-0.14,0.45,
2.879,-2.66,4.02,-1.36,-0.73,-0.16,0.45,
2.88,-2.66,4.02,-1.36,-0.74,-0.17,0.44,
2.882,-2.66,4.02,-1.36,-0.75,-0.20,0.43,
2.885,-0.90,2.49,-1.79,-0.75,-0.20,0.43,
2.885,-0.90,2.49,-1.79,-0.77,-0.24,0.40,
2.886,-0.90,2.49,-1.79,-0.79,-0.29,0.38,
2.889,-0.90,2.49,-1.79,-0.80,-0.33,0.34,
2.894,-0.90,2.49,-1.79,-0.81,-0.37,0.31,
2.894,-0.90,2.49,-1.79,-0.82,-0.42,0.27,
2.895,0.60,1.63,-1.66,-0.82,-0.42,0.27,
2.895,0.60,1.63,-1.66,-0.82,-0.46,0.23,
2.896,0.60,1.63,-1.66,-0.83,-0.49,0.19,
2.898,0.60,1.63,-1.66,-0.83,-0.52,0.15,
2.9,0.60,1.63,-1.66,-0.83,-0.53,0.11,
2.902,0.60,1.63,-1.66,-0.83,-0.54,0.07,
2.904,1.45,0.79,-1.60,-0.83,-0.54,0.07,
2.904,1.45,0.79,-1.60,-0.81,-0.54,0.03,
2.906,1.45,0.79,-1.60,-0.79,-0.54,-0.01,
2.908,1.45,0.79,-1.60,-0.76,-0.53,-0.05,
2.91,1.45,0.79,-1.60,-0.72,-0.52,-0.10,
2.912,1.45,0.79,-1.60,-0.69,-0.50,-0.15,
2.915,2.48,-0.26,-1.74,-0.69,-0.50,-0.15,
2.915,2.48,-0.26,-1.74,-0.65,-0.46,-0.19,
2.919,2.48,-0.26,-1.74,-0.62,-0.41,-0.22,
2.923,2.48,-0.26,-1.74,-0.56,-0.29,-0.26,
2.923,2.48,-0.26,-1.74,-0.54,-0.24,-0.27,
2.925,1.89,-0.71,-1.25,-0.54,-0.24,-0.27,
2.925,1.89,-0.71,-1.25,-0.47,-0.05,-0.27,
2.926,1.89,-0.71,-1.25,-0.47,-0.05,-0.27,
2.927,1.89,-0.71,-1.25,-0.44,0.04,-0.26,
2.93,1.89,-0.71,-1.25,-0.38,0.16,-0.22,
2.931,1.89,-0.71,-1.25,-0.36,0.20,-0.20,
2.932,1.89,-0.71,-1.25,-0.30,0.28,-0.14,
2.935,0.49,-0.61,0.02,-0.30,0.28,-0.14,
2.935,0.49,-0.61,0.02,-0.26,0.32,-0.10,
2.937,0.49,-0.61,0.02,-0.24,0.34,-0.08,
2.938,0.49,-0.61,0.02,-0.18,0.36,-0.02,
2.94,0.49,-0.61,0.02,-0.16,0.37,0.00,
2.964,0.49,-0.61,0.02,-0.11,0.36,0.06,
2.965,-0.51,-0.32,1.33,-0.11,0.36,0.06,
2.965,-0.51,-0.32,1.33,-0.07,0.36,0.10,
2.965,-0.51,-0.32,1.33,-0.06,0.35,0.12,
2.966,-0.51,-0.32,1.33,-0.01,0.34,0.18,
2.966,-0.51,-0.32,1.33,-0.00,0.34,0.20,
2.967,-0.51,-0.32,1.33,0.03,0.35,0.25,
2.967,-1.62,-0.69,2.17,0.03,0.35,0.25,
2.968,-1.62,-0.69,2.17,0.04,0.36,0.28,
2.968,-1.62,-0.69,2.17,0.04,0.35,0.30,
2.968,-1.62,-0.69,2.17,0.08,0.29,0.33,
2.969,-1.62,-0.69,2.17,0.11,0.24,0.34,
2.969,-1.62,-0.69,2.17,0.13,0.17,0.34,
2.97,-1.76,-0.88,2.97,0.13,0.17,0.34,
2.97,-1.76,-0.88,2.97,0.16,0.09,0.33,
2.97,-1.76,-0.88,2.97,0.19,0.01,0.33,
2.971,-1.76,-0.88,2.97,0.21,-0.05,0.32,
2.971,-1.76,-0.88,2.97,0.23,-0.12,0.31,
3.0,-1.76,-0.88,2.97,0.26,-0.20,0.30,
3.0,-1.90,-0.78,2.92,0.26,-0.20,0.30,
3.001,-1.90,-0.78,2.92,0.29,-0.28,0.29,
3.001,-1.90,-0.78,2.92,0.32,-0.33,0.28,
3.001,-1.90,-0.78,2.92,0.35,-0.38,0.27,
3.001,-1.90,-0.78,2.92,0.37,-0.41,0.26,
3.001,-1.90,-0.78,2.92,0.39,-0.42,0.23,
3.002,-1.97,-0.50,2.06,0.39,-0.42,0.23,
3.002,-1.97,-0.50,2.06,0.41,-0.41,0.22,
3.002,-1.97,-0.50,2.06,0.42,-0.40,0.20,
3.002,-1.97,-0.50,2.06,0.44,-0.40,0.19,
3.003,-1.97,-0.50,2.06,0.46,-0.40,0.18,
3.003,-1.97,-0.50,2.06,0.49,-0.40,0.17,
3.003,-2.08,0.02,1.33,0.49,-0.40,0.17,
3.003,-2.08,0.02,1.33,0.52,-0.40,0.18,
3.003,-2.08,0.02,1.33,0.56,-0.40,0.20,
3.004,-2.08,0.02,1.33,0.60,-0.39,0.22,
3.004,-2.08,0.02,1.33,0.64,-0.37,0.25,
3.004,-2.08,0.02,1.33,0.67,-0.34,0.28,
3.005,-2.85,0.75,0.96,0.67,-0.34,0.28,
3.006,-2.85,0.75,0.96,0.71,-0.33,0.32,
3.013,-2.85,0.75,0.96,0.76,-0.34,0.36,
3.014,-2.85,0.75,0.96,0.81,-0.36,0.39,
3.015,-2.85,0.75,0.96,0.85,-0.38,0.42,
3.015,-2.85,0.75,0.96,0.87,-0.38,0.46,
3.021,-2.25,1.06,0.38,0.87,-0.38,0.46,
3.022,-2.25,1.06,0.38,0.88,-0.36,0.49,
3.036,-2.25,1.06,0.38,0.89,-0.33,0.54,
3.036,-2.25,1.06,0.38,0.89,-0.31,0.58,
3.036,-2.25,1.06,0.38,0.90,-0.29,0.62,
3.036,-2.25,1.06,0.38,0.90,-0.26,0.67,
3.036,-1.52,1.00,-0.45,0.90,-0.26,0.67,
3.037,-1.52,1.00,-0.45,0.90,-0.23,0.72,
3.037,-1.52,1.00,-0.45,0.89,-0.20,0.77,
3.037,-1.52,1.00,-0.45,0.88,-0.17,0.83,
3.037,-1.52,1.00,-0.45,0.87,-0.15,0.89,
3.037,-1.52,1.00,-0.45,0.86,-0.15,0.94,
3.038,-0.80,0.30,-0.28,0.86,-0.15,0.94,
3.038,-0.80,0.30,-0.28,0.86,-0.16,0.98,
3.038,-0.80,0.30,-0.28,0.86,-0.18,1.02,
3.062,-0.80,0.30,-0.28,0.86,-0.20,1.06,
3.063,-0.80,0.30,-0.28,0.86,-0.22,1.09,
3.063,-0.80,0.30,-0.28,0.85,-0.24,1.12,
3.063,0.48,-0.73,0.27,0.85,-0.24,1.12,
3.063,0.48,-0.73,0.27,0.85,-0.24,1.14,
3.063,0.48,-0.73,0.27,0.84,-0.23,1.16,
3.064,0.48,-0.73,0.27,0.83,-0.21,1.18,
3.064,0.48,-0.73,0.27,0.81,-0.17,1.19,
3.064,0.48,-0.73,0.27,0.79,-0.13,1.20,
3.064,0.99,-1.80,0.24,0.79,-0.13,1.20,
3.064,0.99,-1.80,0.24,0.77,-0.08,1.21,
3.065,0.99,-1.80,0.24,0.75,-0.04,1.21,
3.065,0.99,-1.80,0.24,0.74,0.00,1.21,
3.065,0.99,-1.80,0.24,0.73,0.02,1.21,
3.065,0.99,-1.80,0.24,0.71,0.03,1.21,
3.065,1.16,-2.75,0.54,0.71,0.03,1.21,
3.066,1.16,-2.75,0.54,0.68,0.02,1.20,
3.07,1.16,-2.75,0.54,0.65,0.01,1.19,
3.07,1.16,-2.75,0.54,0.61,-0.02,1.18,
3.071,1.16,-2.75,0.54,0.56,-0.04,1.17,
3.075,1.16,-2.75,0.54,0.50,-0.06,1.15,
3.076,1.70,-2.76,-0.47,0.50,-0.06,1.15,
3.076,1.70,-2.76,-0.47,0.44,-0.09,1.14,
3.076,1.70,-2.76,-0.47,0.37,-0.11,1.12,
3.08,1.70,-2.76,-0.47,0.30,-0.13,1.11,
3.081,1.70,-2.76,-0.47,0.22,-0.15,1.10,
3.084,1.70,-2.76,-0.47,0.15,-0.17,1.09,
3.085,2.02,-2.22,-1.60,0.15,-0.17,1.09,
3.085,2.02,-2.22,-1.60,0.08,-0.20,1.10,
3.088,2.02,-2.22,-1.60,0.01,-0.24,1.10,
3.089,2.02,-2.22,-1.60,-0.04,-0.30,1.12,
3.091,2.02,-2.22,-1.60,-0.09,-0.37,1.14,
3.092,2.02,-2.22,-1.60,-0.12,-0.46,1.15,
3.095,1.80,-2.18,-1.62,-0.12,-0.46,1.15,
3.095,1.80,-2.18,-1.62,-0.15,-0.57,1.16,
3.096,1.80,-2.18,-1.62,-0.17,-0.69,1.17,
3.099,1.80,-2.18,-1.62,-0.18,-0.82,1.16,
3.1,1.80,-2.18,-1.62,-0.18,-0.95,1.16,
3.103,1.80,-2.18,-1.62,-0.18,-1.08,1.14,
3.105,3.02,-2.61,-0.98,-0.18,-1.08,1.14,
3.105,3.02,-2.61,-0.98,-0.18,-1.23,1.12,
3.107,3.02,-2.61,-0.98,-0.18,-1.39,1.10,
3.126,3.02,-2.61,-0.98,-0.18,-1.56,1.07,
3.126,3.02,-2.61,-0.98,-0.18,-1.72,1.05,
3.127,3.02,-2.61,-0.98,-0.19,-1.89,1.02,
3.127,4.06,-3.41,-1.11,-0.19,-1.89,1.02,
3.127,4.06,-3.41,-1.11,-0.21,-2.04,0.98,
3.127,4.06,-3.41,-1.11,-0.22,-2.18,0.94,
3.127,4.06,-3.41,-1.11,-0.24,-2.31,0.90,
3.127,4.06,-3.41,-1.11,-0.26,-2.42,0.85,
3.128,4.06,-3.41,-1.11,-0.28,-2.51,0.80,
3.128,4.75,-4.47,-2.09,-0.28,-2.51,0.80,
3.128,4.75,-4.47,-2.09,-0.29,-2.57,0.74,
3.128,4.75,-4.47,-2.09,-0.31,-2.61,0.67,
3.128,4.75,-4.47,-2.09,-0.32,-2.63,0.61,
3.159,4.75,-4.47,-2.09,-0.33,-2.62,0.54,
3.159,4.75,-4.47,-2.09,-0.34,-2.58,0.48,
3.159,5.27,-5.04,-3.40,-0.34,-2.58,0.48,
3.159,5.27,-5.04,-3.40,-0.34,-2.52,0.43,
3.16,5.27,-5.04,-3.40,-0.33,-2.43,0.38,
3.16,5.27,-5.04,-3.40,-0.31,-2.31,0.34,
3.16,5.27,-5.04,-3.40,-0.29,-2.17,0.30,
3.16,5.27,-5.04,-3.40,-0.24,-2.02,0.28,
3.161,4.01,-4.70,-3.07,-0.24,-2.02,0.28,
3.161,4.01,-4.70,-3.07,-0.19,-1.85,0.27,
3.161,4.01,-4.70,-3.07,-0.13,-1.68,0.27,
3.161,4.01,-4.70,-3.07,-0.06,-1.50,0.29,
3.162,4.01,-4.70,-3.07,0.03,-1.33,0.31,
3.162,4.01,-4.70,-3.07,0.12,-1.16,0.34,
3.162,2.41,-4.36,-1.38,0.12,-1.16,0.34,
3.163,2.41,-4.36,-1.38,0.21,-0.99,0.37,
3.163,2.41,-4.36,-1.38,0.32,-0.82,0.41,
3.163,2.41,-4.36,-1.38,0.43,-0.66,0.44,
3.163,2.41,-4.36,-1.38,0.54,-0.50,0.48,
3.164,2.41,-4.36,-1.38,0.65,-0.36,0.52,
3.168,0.32,-3.86,1.01,0.65,-0.36,0.52,
3.169,0.32,-3.86,1.01,0.76,-0.24,0.57,
3.169,0.32,-3.86,1.01,0.86,-0.12,0.61,
3.169,0.32,-3.86,1.01,0.94,-0.01,0.65,
3.175,0.32,-3.86,1.01,1.01,0.09,0.69,
3.175,0.32,-3.86,1.01,1.07,0.18,0.72,
3.175,-1.69,-3.45,1.83,1.07,0.18,0.72,
3.175,-1.69,-3.45,1.83,1.11,0.25,0.75,
3.176,-1.69,-3.45,1.83,1.14,0.31,0.77,
3.184,-1.69,-3.45,1.83,1.15,0.35,0.79,
3.185,-1.69,-3.45,1.83,1.15,0.38,0.79,
3.185,-1.69,-3.45,1.83,1.15,0.40,0.79,
3.185,-2.00,-3.29,0.60,1.15,0.40,0.79,
3.185,-2.00,-3.29,0.60,1.13,0.40,0.78,
3.187,-2.00,-3.29,0.60,1.11,0.40,0.75,
3.189,-2.00,-3.29,0.60,1.08,0.38,0.72,
3.224,-2.00,-3.29,0.60,1.05,0.35,0.68,
3.224,-2.00,-3.29,0.60,1.02,0.32,0.63,
3.226,-1.97,-3.07,-1.14,1.02,0.32,0.63,
3.227,-1.97,-3.07,-1.14,0.99,0.29,0.58,
3.227,-1.97,-3.07,-1.14,0.96,0.25,0.53,
3.227,-1.97,-3.07,-1.14,0.93,0.22,0.48,
3.227,-1.97,-3.07,-1.14,0.90,0.18,0.43,
3.227,-1.97,-3.07,-1.14,0.88,0.13,0.40,
3.227,-1.48,-2.29,-1.67,0.88,0.13,0.40,
3.228,-1.48,-2.29,-1.67,0.86,0.08,0.37,
3.228,-1.48,-2.29,-1.67,0.84,0.03,0.36,
3.228,-1.48,-2.29,-1.67,0.82,-0.02,0.35,
3.228,-1.48,-2.29,-1.67,0.81,-0.08,0.34,
3.228,-1.48,-2.29,-1.67,0.79,-0.15,0.33,
3.228,-0.53,-1.75,-2.02,0.79,-0.15,0.33,
3.228,-0.53,-1.75,-2.02,0.77,-0.22,0.32,
3.229,-0.53,-1.75,-2.02,0.75,-0.29,0.31,
3.229,-0.53,-1.75,-2.02,0.72,-0.36,0.29,
3.229,-0.53,-1.75,-2.02,0.70,-0.40,0.28,
3.229,-0.53,-1.75,-2.02,0.67,-0.43,0.27,
3.229,0.34,-1.09,-2.93,0.67,-0.43,0.27,
3.229,0.34,-1.09,-2.93,0.64,-0.45,0.26,
3.23,0.34,-1.09,-2.93,0.62,-0.44,0.25,
3.23,0.34,-1.09,-2.93,0.59,-0.43,0.25,
3.234,0.34,-1.09,-2.93,0.57,-0.41,0.24,
3.234,0.34,-1.09,-2.93,0.54,-0.40,0.24,
3.237,0.88,-0.44,-2.87,0.54,-0.40,0.24,
3.237,0.88,-0.44,-2.87,0.52,-0.40,0.25,
3.237,0.88,-0.44,-2.87,0.50,-0.41,0.25,
3.241,0.88,-0.44,-2.87,0.47,-0.44,0.24,
3.242,0.88,-0.44,-2.87,0.45,-0.48,0.24,
3.243,0.88,-0.44,-2.87,0.43,-0.52,0.22,
3.247,2.55,-0.66,-2.03,0.43,-0.52,0.22,
3.247,2.55,-0.66,-2.03,0.40,-0.55,0.20,
3.248,2.55,-0.66,-2.03,0.38,-0.57,0.17,
3.248,2.55,-0.66,-2.03,0.36,-0.58,0.12,
3.253,2.55,-0.66,-2.03,0.34,-0.58,0.08,
3.253,2.55,-0.66,-2.03,0.32,-0.58,0.02,
3.257,4.35,-1.04,-1.33,0.32,-0.58,0.02,
3.258,4.35,-1.04,-1.33,0.31,-0.58,-0.04,
3.258,4.35,-1.04,-1.33,0.30,-0.57,-0.10,
3.258,4.35,-1.04,-1.33,0.30,-0.56,-0.17,
3.263,4.35,-1.04,-1.33,0.32,-0.55,-0.23,
3.263,4.35,-1.04,-1.33,0.33,-0.53,-0.30,
3.267,4.58,-0.94,-0.03,0.33,-0.53,-0.30,
3.268,4.58,-0.94,-0.03,0.36,-0.51,-0.36,
3.268,4.58,-0.94,-0.03,0.39,-0.49,-0.42,
3.269,4.58,-0.94,-0.03,0.44,-0.49,-0.48,
3.272,4.58,-0.94,-0.03,0.49,-0.49,-0.54,
3.273,4.58,-0.94,-0.03,0.54,-0.49,-0.60,
3.279,3.59,0.26,1.05,0.54,-0.49,-0.60,
3.298,3.59,0.26,1.05,0.59,-0.48,-0.65,
3.298,3.59,0.26,1.05,0.64,-0.48,-0.70,
3.298,3.59,0.26,1.05,0.69,-0.50,-0.75,
3.299,3.59,0.26,1.05,0.73,-0.51,-0.79,
3.299,3.59,0.26,1.05,0.75,-0.51,-0.83,
3.299,1.54,1.94,0.48,0.75,-0.51,-0.83,
3.302,1.54,1.94,0.48,0.77,-0.51,-0.85,
3.302,1.54,1.94,0.48,0.77,-0.52,-0.88,
3.302,1.54,1.94,0.48,0.77,-0.51,-0.90,
3.302,1.54,1.94,0.48,0.73,-0.50,-0.90,
3.303,1.54,1.94,0.48,0.71,-0.49,-0.89,
3.303,-0.65,3.41,-1.34,0.71,-0.49,-0.89,
3.303,-0.65,3.41,-1.34,0.67,-0.48,-0.87,
3.304,-0.65,3.41,-1.34,0.63,-0.47,-0.85,
3.304,-0.65,3.41,-1.34,0.58,-0.47,-0.80,
3.304,-0.65,3.41,-1.34,0.53,-0.48,-0.75,
3.304,-0.65,3.41,-1.34,0.48,-0.49,-0.68,
3.341,-1.93,4.47,-1.54,0.48,-0.49,-0.68,
3.342,-1.93,4.47,-1.54,0.43,-0.50,-0.61,
3.342,-1.93,4.47,-1.54,0.37,-0.51,-0.53,
3.342,-1.93,4.47,-1.54,0.31,-0.51,-0.46,
3.342,-1.93,4.47,-1.54,0.25,-0.50,-0.38,
3.343,-1.93,4.47,-1.54,0.20,-0.46,-0.32,
3.343,-1.50,4.27,-1.43,0.20,-0.46,-0.32,
3.343,-1.50,4.27,-1.43,0.15,-0.43,-0.27,
3.343,-1.50,4.27,-1.43,0.11,-0.39,-0.22,
3.343,-1.50,4.27,-1.43,0.08,-0.36,-0.18,
3.344,-1.50,4.27,-1.43,0.05,-0.34,-0.14,
3.344,-1.50,4.27,-1.43,0.04,-0.33,-0.11,
3.344,-0.85,3.14,-0.56,0.04,-0.33,-0.11,
3.344,-0.85,3.14,-0.56,0.03,-0.32,-0.09,
3.345,-0.85,3.14,-0.56,0.03,-0.30,-0.08,
3.345,-0.85,3.14,-0.56,0.04,-0.28,-0.06,
3.345,-0.85,3.14,-0.56,0.05,-0.25,-0.06,
3.345,-0.85,3.14,-0.56,0.06,-0.21,-0.05,
3.345,-1.38,2.22,0.14,0.06,-0.21,-0.05,
3.346,-1.38,2.22,0.14,0.07,-0.16,-0.06,
3.346,-1.38,2.22,0.14,0.09,-0.10,-0.09,
3.346,-1.38,2.22,0.14,0.10,-0.05,-0.12,
3.346,-1.38,2.22,0.14,0.12,-0.01,-0.16,
3.347,-1.38,2.22,0.14,0.13,0.03,-0.20,
3.347,-1.90,1.36,0.31,0.13,0.03,-0.20,
3.347,-1.90,1.36,0.31,0.15,0.05,-0.23,
3.347,-1.90,1.36,0.31,0.16,0.07,-0.26,
3.351,-1.90,1.36,0.31,0.16,0.08,-0.29,
3.352,-1.90,1.36,0.31,0.16,0.09,-0.31,
3.352,-1.90,1.36,0.31,0.16,0.10,-0.34,
3.366,-3.71,1.65,0.07,0.16,0.10,-0.34,
3.367,-3.71,1.65,0.07,0.16,0.10,-0.35,
3.367,-3.71,1.65,0.07,0.15,0.11,-0.37,
3.367,-3.71,1.65,0.07,0.14,0.11,-0.38,
3.367,-3.71,1.65,0.07,0.13,0.11,-0.39,
3.368,-3.71,1.65,0.07,0.12,0.10,-0.39,
3.368,-5.19,2.41,-0.74,0.12,0.10,-0.39,
3.368,-5.19,2.41,-0.74,0.11,0.09,-0.40,
3.378,-5.19,2.41,-0.74,0.10,0.07,-0.40,
3.378,-5.19,2.41,-0.74,0.08,0.04,-0.40,
3.378,-5.19,2.41,-0.74,0.07,0.01,-0.39,
3.378,-5.19,2.41,-0.74,0.06,-0.02,-0.39,
3.379,-5.50,2.85,-1.65,0.06,-0.02,-0.39,
3.379,-5.50,2.85,-1.65,0.05,-0.06,-0.39,
3.379,-5.50,2.85,-1.65,0.03,-0.10,-0.39,
3.379,-5.50,2.85,-1.65,0.02,-0.14,-0.38,
3.381,-5.50,2.85,-1.65,0.01,-0.18,-0.38,
3.383,-5.50,2.85,-1.65,-0.00,-0.21,-0.38,
3.387,-4.34,2.88,-2.26,-0.00,-0.21,-0.38,
3.388,-4.34,2.88,-2.26,-0.02,-0.23,-0.37,
3.388,-4.34,2.88,-2.26,-0.04,-0.25,-0.37,
3.39,-4.34,2.88,-2.26,-0.06,-0.25,-0.36,
3.39,-4.34,2.88,-2.26,-0.08,-0.25,-0.35,
3.393,-4.34,2.88,-2.26,-0.09,-0.24,-0.35,
3.395,-3.13,2.55,-2.40,-0.09,-0.24,-0.35,
3.395,-3.13,2.55,-2.40,-0.11,-0.23,-0.34,
3.397,-3.13,2.55,-2.40,-0.13,-0.21,-0.32,
3.399,-3.13,2.55,-2.40,-0.15,-0.17,-0.31,
3.402,-3.13,2.55,-2.40,-0.16,-0.13,-0.29,
3.403,-3.13,2.55,-2.40,-0.17,-0.08,-0.27,
3.407,-2.26,2.17,-2.11,-0.17,-0.08,-0.27,
3.408,-2.26,2.17,-2.11,-0.18,-0.02,-0.24,
3.408,-2.26,2.17,-2.11,-0.19,0.06,-0.22,
3.408,-2.26,2.17,-2.11,-0.20,0.15,-0.20,
3.411,-2.26,2.17,-2.11,-0.20,0.25,-0.19,
3.412,-2.26,2.17,-2.11,-0.19,0.35,-0.17,
3.419,-1.75,1.63,-1.39,-0.19,0.35,-0.17,
3.42,-1.75,1.63,-1.39,-0.18,0.45,-0.15,
3.42,-1.75,1.63,-1.39,-0.16,0.53,-0.14,
3.42,-1.75,1.63,-1.39,-0.14,0.61,-0.13,
3.42,-1.75,1.63,-1.39,-0.12,0.68,-0.13,
3.451,-1.75,1.63,-1.39,-0.10,0.74,-0.12,
3.452,-0.75,0.83,0.07,-0.10,0.74,-0.12,
3.453,-0.75,0.83,0.07,-0.08,0.85,-0.12,
3.453,-0.75,0.83,0.07,-0.08,0.85,-0.12,
3.453,-0.75,0.83,0.07,-0.08,0.91,-0.12,
3.453,-0.75,0.83,0.07,-0.08,0.98,-0.12,
3.453,-0.75,0.83,0.07,-0.08,1.06,-0.12,
3.453,-0.28,0.23,-0.03,-0.08,1.06,-0.12,
3.454,-0.28,0.23,-0.03,-0.10,1.13,-0.13,
3.454,-0.28,0.23,-0.03,-0.11,1.19,-0.15,
3.454,-0.28,0.23,-0.03,-0.12,1.26,-0.17,
3.454,-0.28,0.23,-0.03,-0.13,1.32,-0.19,
3.472,-0.28,0.23,-0.03,-0.14,1.38,-0.21,
3.472,0.18,-0.01,-0.01,-0.14,1.38,-0.21,
3.472,0.18,-0.01,-0.01,-0.16,1.44,-0.22,
3.473,0.18,-0.01,-0.01,-0.17,1.48,-0.23,
3.473,0.18,-0.01,-0.01,-0.18,1.52,-0.23,
3.473,0.18,-0.01,-0.01,-0.19,1.54,-0.22,
3.473,0.18,-0.01,-0.01,-0.19,1.54,-0.20,
3.473,-0.61,0.21,0.47,-0.19,1.54,-0.20,
3.474,-0.61,0.21,0.47,-0.19,1.54,-0.18,
3.474,-0.61,0.21,0.47,-0.19,1.52,-0.15,
3.474,-0.61,0.21,0.47,-0.20,1.49,-0.12,
3.474,-0.61,0.21,0.47,-0.20,1.45,-0.09,
3.474,-0.61,0.21,0.47,-0.20,1.42,-0.06,
3.475,-1.18,0.40,0.89,-0.20,1.42,-0.06,
3.475,-1.18,0.40,0.89,-0.20,1.38,-0.03,
3.475,-1.18,0.40,0.89,-0.21,1.34,-0.01,
3.475,-1.18,0.40,0.89,-0.21,1.31,0.02,
3.475,-1.18,0.40,0.89,-0.22,1.27,0.04,
3.475,-1.18,0.40,0.89,-0.23,1.23,0.06,
3.476,-1.06,0.26,0.41,-0.23,1.23,0.06,
3.476,-1.06,0.26,0.41,-0.23,1.19,0.08,
3.503,-1.06,0.26,0.41,-0.24,1.14,0.10,
3.503,-1.06,0.26,0.41,-0.24,1.09,0.11,
3.503,-1.06,0.26,0.41,-0.24,1.03,0.13,
3.503,-1.06,0.26,0.41,-0.25,0.97,0.14,
3.503,-0.62,0.37,-0.29,-0.25,0.97,0.14,
3.504,-0.62,0.37,-0.29,-0.26,0.90,0.16,
3.504,-0.62,0.37,-0.29,-0.26,0.84,0.18,
3.504,-0.62,0.37,-0.29,-0.27,0.77,0.20,
3.504,-0.62,0.37,-0.29,-0.29,0.71,0.22,
3.504,-0.62,0.37,-0.29,-0.30,0.66,0.24,
3.504,-0.38,0.49,-1.01,-0.30,0.66,0.24,
3.505,-0.38,0.49,-1.01,-0.32,0.63,0.27,
3.505,-0.38,0.49,-1.01,-0.34,0.61,0.29,
3.505,-0.38,0.49,-1.01,-0.35,0.61,0.31,
3.505,-0.38,0.49,-1.01,-0.37,0.63,0.33,
3.505,-0.38,0.49,-1.01,-0.38,0.66,0.33,
3.505,-0.55,0.17,-1.55,-0.38,0.66,0.33,
3.506,-0.55,0.17,-1.55,-0.37,0.69,0.34,
3.507,-0.55,0.17,-1.55,-0.36,0.72,0.35,
3.508,-0.55,0.17,-1.55,-0.34,0.73,0.35,
3.51,-0.55,0.17,-1.55,-0.31,0.72,0.34,
3.512,-0.55,0.17,-1.55,-0.27,0.70,0.34,
3.515,-0.88,-0.03,-0.82,-0.27,0.70,0.34,
3.515,-0.88,-0.03,-0.82,-0.23,0.68,0.33,
3.516,-0.88,-0.03,-0.82,-0.19,0.66,0.31,
3.518,-0.88,-0.03,-0.82,-0.15,0.65,0.30,
3.52,-0.88,-0.03,-0.82,-0.12,0.64,0.28,
3.522,-0.88,-0.03,-0.82,-0.09,0.64,0.26,
3.527,-0.77,-0.09,-0.40,-0.09,0.64,0.26,
3.527,-0.77,-0.09,-0.40,-0.07,0.65,0.24,
3.528,-0.77,-0.09,-0.40,-0.05,0.66,0.22,
3.531,-0.77,-0.09,-0.40,-0.04,0.68,0.21,
3.531,-0.77,-0.09,-0.40,-0.04,0.68,0.19,
3.534,-0.77,-0.09,-0.40,-0.03,0.68,0.17,
3.535,-0.95,-0.18,0.01,-0.03,0.68,0.17,
3.546,-0.95,-0.18,0.01,-0.03,0.67,0.16,
3.546,-0.95,-0.18,0.01,-0.02,0.65,0.15,
3.546,-0.95,-0.18,0.01,-0.02,0.62,0.14,
3.546,-0.95,-0.18,0.01,-0.02,0.60,0.13,
3.547,-0.95,-0.18,0.01,-0.02,0.57,0.12,
3.547,-0.91,-0.48,0.90,-0.02,0.57,0.12,
3.547,-0.91,-0.48,0.90,-0.02,0.55,0.12,
3.547,-0.91,-0.48,0.90,-0.03,0.52,0.11,
3.557,-0.91,-0.48,0.90,-0.03,0.50,0.10,
3.557,-0.91,-0.48,0.90,-0.03,0.49,0.09,
3.557,-0.91,-0.48,0.90,-0.04,0.48,0.07,
3.557,-0.32,-0.98,0.98,-0.04,0.48,0.07,
3.558,-0.32,-0.98,0.98,-0.05,0.48,0.05,
3.558,-0.32,-0.98,0.98,-0.05,0.47,0.03,
3.559,-0.32,-0.98,0.98,-0.06,0.48,0.01,
3.56,-0.32,-0.98,0.98,-0.06,0.48,-0.01,
3.565,-0.32,-0.98,0.98,-0.06,0.48,-0.03,
3.566,0.20,-1.16,0.58,-0.06,0.48,-0.03,
3.566,0.20,-1.16,0.58,-0.06,0.49,-0.04,
3.566,0.20,-1.16,0.58,-0.06,0.49,-0.05,
3.568,0.20,-1.16,0.58,-0.06,0.49,-0.05,
3.579,0.20,-1.16,0.58,-0.05,0.49,-0.05,
3.579,0.20,-1.16,0.58,-0.05,0.48,-0.05,
3.579,-0.22,-0.76,0.20,-0.05,0.48,-0.05,
3.579,-0.22,-0.76,0.20,-0.04,0.48,-0.04,
3.579,-0.22,-0.76,0.20,-0.05,0.48,-0.02,
3.58,-0.22,-0.76,0.20,-0.05,0.48,-0.01,
3.581,-0.22,-0.76,0.20,-0.06,0.50,0.00,
3.583,-0.22,-0.76,0.20,-0.08,0.52,0.02,
3.585,-0.23,-0.21,-0.58,-0.08,0.52,0.02,
3.585,-0.23,-0.21,-0.58,-0.09,0.56,0.03,
3.586,-0.23,-0.21,-0.58,-0.11,0.60,0.05,
3.588,-0.23,-0.21,-0.58,-0.13,0.65,0.06,
3.59,-0.23,-0.21,-0.58,-0.14,0.70,0.08,
3.592,-0.23,-0.21,-0.58,-0.15,0.76,0.11,
3.595,-0.09,-0.40,-0.76,-0.15,0.76,0.11,
3.595,-0.09,-0.40,-0.76,-0.15,0.81,0.14,
3.596,-0.09,-0.40,-0.76,-0.15,0.86,0.17,
3.598,-0.09,-0.40,-0.76,-0.14,0.90,0.19,
3.6,-0.09,-0.40,-0.76,-0.13,0.93,0.21,
3.603,-0.09,-0.40,-0.76,-0.11,0.96,0.23,
3.605,0.15,-0.88,0.41,-0.11,0.96,0.23,
3.605,0.15,-0.88,0.41,-0.09,0.97,0.25,
3.606,0.15,-0.88,0.41,-0.08,0.98,0.26,
3.627,0.15,-0.88,0.41,-0.06,0.98,0.27,
3.63,0.15,-0.88,0.41,-0.05,0.97,0.28,
3.631,0.15,-0.88,0.41,-0.04,0.96,0.29,
3.631,0.22,-0.92,1.23,-0.04,0.96,0.29,
3.631,0.22,-0.92,1.23,-0.04,0.96,0.31,
3.631,0.22,-0.92,1.23,-0.05,0.97,0.33,
3.632,0.22,-0.92,1.23,-0.07,0.98,0.35,
3.632,0.22,-0.92,1.23,-0.09,1.00,0.37,
3.632,0.22,-0.92,1.23,-0.12,1.03,0.39,
3.632,-0.45,-0.51,0.14,-0.12,1.03,0.39,
3.633,-0.45,-0.51,0.14,-0.15,1.07,0.42,
3.633,-0.45,-0.51,0.14,-0.17,1.10,0.44,
3.633,-0.45,-0.51,0.14,-0.19,1.11,0.46,
3.634,-0.45,-0.51,0.14,-0.20,1.08,0.51,
3.634,-0.45,-0.51,0.14,-0.20,1.02,0.58,
3.661,-2.37,1.01,0.84,-0.20,1.02,0.58,
3.662,-2.37,1.01,0.84,-0.21,0.93,0.65,
3.662,-2.37,1.01,0.84,-0.24,0.80,0.71,
3.662,-2.37,1.01,0.84,-0.27,0.69,0.74,
3.662,-2.37,1.01,0.84,-0.29,0.61,0.74,
3.663,-2.37,1.01,0.84,-0.32,0.52,0.73,
3.663,-0.84,0.48,0.70,-0.32,0.52,0.73,
3.663,-0.84,0.48,0.70,-0.35,0.44,0.70,
3.663,-0.84,0.48,0.70,-0.38,0.39,0.66,
3.664,-0.84,0.48,0.70,-0.40,0.36,0.63,
3.664,-0.84,0.48,0.70,-0.42,0.33,0.59,
3.664,-0.84,0.48,0.70,-0.44,0.32,0.55,
3.664,0.71,-0.97,0.20,-0.44,0.32,0.55,
3.664,0.71,-0.97,0.20,-0.44,0.32,0.52,
3.665,0.71,-0.97,0.20,-0.43,0.32,0.48,
3.665,0.71,-0.97,0.20,-0.42,0.32,0.43,
3.665,0.71,-0.97,0.20,-0.41,0.30,0.39,
3.665,0.71,-0.97,0.20,-0.39,0.28,0.35,
3.666,0.94,-0.67,0.55,-0.39,0.28,0.35,
3.666,0.94,-0.67,0.55,-0.36,0.24,0.31,
3.67,0.94,-0.67,0.55,-0.33,0.19,0.28,
3.671,0.94,-0.67,0.55,-0.30,0.14,0.26,
3.671,0.94,-0.67,0.55,-0.27,0.09,0.25,
3.673,0.94,-0.67,0.55,-0.24,0.04,0.24,
3.677,0.90,-0.01,0.85,-0.24,0.04,0.24,
3.678,0.90,-0.01,0.85,-0.21,0.02,0.23,
3.678,0.90,-0.01,0.85,-0.19,0.01,0.23,
3.679,0.90,-0.01,0.85,-0.17,0.01,0.24,
3.682,0.90,-0.01,0.85,-0.15,0.04,0.24,
3.683,0.90,-0.01,0.85,-0.14,0.07,0.24,
3.687,0.77,0.43,-0.18,-0.14,0.07,0.24,
3.687,0.77,0.43,-0.18,-0.13,0.13,0.25,
3.687,0.77,0.43,-0.18,-0.12,0.19,0.26,
3.697,0.77,0.43,-0.18,-0.10,0.25,0.26,
3.698,0.77,0.43,-0.18,-0.08,0.30,0.27,
3.699,0.77,0.43,-0.18,-0.06,0.35,0.29,
3.699,0.47,0.67,-0.10,-0.06,0.35,0.29,
3.699,0.47,0.67,-0.10,-0.03,0.39,0.30,
3.699,0.47,0.67,-0.10,-0.01,0.42,0.32,
3.699,0.47,0.67,-0.10,0.01,0.46,0.34,
3.701,0.47,0.67,-0.10,0.03,0.50,0.37,
3.704,0.47,0.67,-0.10,0.04,0.55,0.40,
3.715,-0.20,0.84,-0.15,0.04,0.55,0.40,
3.716,-0.20,0.84,-0.15,0.05,0.60,0.43,
3.716,-0.20,0.84,-0.15,0.06,0.66,0.47,
3.717,-0.20,0.84,-0.15,0.06,0.71,0.51,
3.717,-0.20,0.84,-0.15,0.06,0.76,0.55,
3.717,-0.20,0.84,-0.15,0.07,0.81,0.58,
3.717,-1.75,1.28,-0.47,0.07,0.81,0.58,
3.717,-1.75,1.28,-0.47,0.07,0.83,0.62,
3.717,-1.75,1.28,-0.47,0.08,0.84,0.64,
3.752,-1.75,1.28,-0.47,0.08,0.83,0.67,
3.753,-1.75,1.28,-0.47,0.07,0.80,0.69,
3.753,-1.75,1.28,-0.47,0.07,0.75,0.70,
3.754,-2.85,1.40,0.87,0.07,0.75,0.70,
3.754,-2.85,1.40,0.87,0.06,0.69,0.71,
3.754,-2.85,1.40,0.87,0.04,0.63,0.72,
3.754,-2.85,1.40,0.87,0.01,0.58,0.72,
3.754,-2.85,1.40,0.87,-0.02,0.54,0.71,
3.755,-2.85,1.40,0.87,-0.06,0.51,0.70,
3.755,-3.13,1.03,1.93,-0.06,0.51,0.70,
3.755,-3.13,1.03,1.93,-0.10,0.49,0.68,
3.755,-3.13,1.03,1.93,-0.15,0.47,0.65,
3.755,-3.13,1.03,1.93,-0.21,0.46,0.61,
3.756,-3.13,1.03,1.93,-0.26,0.44,0.57,
3.756,-3.13,1.03,1.93,-0.32,0.41,0.52,
3.756,-1.79,0.21,2.16,-0.32,0.41,0.52,
3.756,-1.79,0.21,2.16,-0.37,0.38,0.46,
3.756,-1.79,0.21,2.16,-0.42,0.35,0.41,
3.756,-1.79,0.21,2.16,-0.47,0.30,0.34,
3.757,-1.79,0.21,2.16,-0.50,0.25,0.28,
3.757,-1.79,0.21,2.16,-0.52,0.20,0.21,
3.762,-0.00,-0.14,2.37,-0.52,0.20,0.21,
3.762,-0.00,-0.14,2.37,-0.54,0.14,0.15,
3.762,-0.00,-0.14,2.37,-0.55,0.08,0.10,
3.762,-0.00,-0.14,2.37,-0.57,0.02,0.06,
3.762,-0.00,-0.14,2.37,-0.57,-0.04,0.03,
3.763,-0.00,-0.14,2.37,-0.57,-0.10,0.01,
3.768,0.53,0.29,1.84,-0.57,-0.10,0.01,
3.768,0.53,0.29,1.84,-0.57,-0.15,0.00,
3.769,0.53,0.29,1.84,-0.55,-0.20,0.01,
3.769,0.53,0.29,1.84,-0.54,-0.25,0.02,
3.772,0.53,0.29,1.84,-0.52,-0.30,0.03,
3.773,0.53,0.29,1.84,-0.49,-0.35,0.04,
3.775,0.29,1.30,0.97,-0.49,-0.35,0.04,
3.793,0.29,1.30,0.97,-0.46,-0.39,0.06,
3.793,0.29,1.30,0.97,-0.43,-0.42,0.07,
3.793,0.29,1.30,0.97,-0.39,-0.45,0.08,
3.793,0.29,1.30,0.97,-0.35,-0.45,0.09,
3.794,0.29,1.30,0.97,-0.31,-0.44,0.10,
3.794,0.67,1.81,-0.23,-0.31,-0.44,0.10,
3.794,0.67,1.81,-0.23,-0.28,-0.42,0.12,
3.794,0.67,1.81,-0.23,-0.24,-0.39,0.13,
3.794,0.67,1.81,-0.23,-0.20,-0.36,0.14,
3.795,0.67,1.81,-0.23,-0.17,-0.32,0.15,
3.795,0.67,1.81,-0.23,-0.15,-0.28,0.16,
3.795,0.65,1.73,-1.22,-0.15,-0.28,0.16,
3.795,0.65,1.73,-1.22,-0.12,-0.24,0.17,
3.819,0.65,1.73,-1.22,-0.10,-0.20,0.18,
3.819,0.65,1.73,-1.22,-0.09,-0.17,0.20,
3.82,0.65,1.73,-1.22,-0.09,-0.15,0.21,
3.82,0.65,1.73,-1.22,-0.08,-0.13,0.23,
3.82,0.20,1.97,-1.03,-0.08,-0.13,0.23,
3.82,0.20,1.97,-1.03,-0.09,-0.10,0.26,
3.82,0.20,1.97,-1.03,-0.11,-0.06,0.29,
3.821,0.20,1.97,-1.03,-0.13,-0.02,0.32,
3.821,0.20,1.97,-1.03,-0.16,0.04,0.36,
3.821,0.20,1.97,-1.03,-0.19,0.11,0.40,
3.821,-0.36,1.92,-0.68,-0.19,0.11,0.40,
3.821,-0.36,1.92,-0.68,-0.23,0.18,0.44,
3.822,-0.36,1.92,-0.68,-0.26,0.25,0.47,
3.822,-0.36,1.92,-0.68,-0.29,0.31,0.50,
3.822,-0.36,1.92,-0.68,-0.33,0.37,0.54,
3.822,-0.36,1.92,-0.68,-0.36,0.42,0.57,
3.826,-0.61,1.35,0.46,-0.36,0.42,0.57,
3.827,-0.61,1.35,0.46,-0.39,0.46,0.60,
3.827,-0.61,1.35,0.46,-0.41,0.50,0.64,
3.83,-0.61,1.35,0.46,-0.43,0.54,0.69,
3.831,-0.61,1.35,0.46,-0.44,0.59,0.74,
3.834,-0.61,1.35,0.46,-0.44,0.64,0.79,
3.834,-1.71,0.85,2.54,-0.44,0.64,0.79,
3.835,-1.71,0.85,2.54,-0.44,0.69,0.85,
3.837,-1.71,0.85,2.54,-0.43,0.74,0.91,
3.838,-1.71,0.85,2.54,-0.41,0.79,0.95,
3.84,-1.71,0.85,2.54,-0.40,0.82,0.99,
3.842,-1.71,0.85,2.54,-0.38,0.84,1.02,
3.845,-1.54,0.16,3.53,-0.38,0.84,1.02,
3.845,-1.54,0.16,3.53,-0.36,0.84,1.04,
3.846,-1.54,0.16,3.53,-0.34,0.83,1.05,
3.848,-1.54,0.16,3.53,-0.31,0.82,1.06,
3.85,-1.54,0.16,3.53,-0.28,0.82,1.07,
3.854,-1.54,0.16,3.53,-0.25,0.87,1.09,
3.855,-1.02,0.03,2.95,-0.25,0.87,1.09,
3.855,-1.02,0.03,2.95,-0.24,0.92,1.10,
3.856,-1.02,0.03,2.95,-0.24,0.93,1.10,
3.862,-1.02,0.03,2.95,-0.24,0.94,1.09,
3.862,-1.02,0.03,2.95,-0.24,0.96,1.07,
3.862,-1.02,0.03,2.95,-0.24,0.98,1.03,
3.865,0.33,-0.84,1.14,-0.24,0.98,1.03,
3.865,0.33,-0.84,1.14,-0.24,1.00,0.98,
3.87,0.33,-0.84,1.14,-0.24,1.02,0.92,
3.87,0.33,-0.84,1.14,-0.26,1.05,0.85,
3.87,0.33,-0.84,1.14,-0.27,1.06,0.77,
3.877,0.33,-0.84,1.14,-0.28,1.08,0.70,
3.878,1.31,-0.48,-0.14,-0.28,1.08,0.70,
3.878,1.31,-0.48,-0.14,-0.28,1.10,0.65,
3.878,1.31,-0.48,-0.14,-0.28,1.11,0.62,
3.879,1.31,-0.48,-0.14,-0.28,1.12,0.59,
3.88,1.31,-0.48,-0.14,-0.27,1.12,0.59,
3.882,1.31,-0.48,-0.14,-0.25,1.10,0.58,
3.885,-0.34,-0.66,0.11,-0.25,1.10,0.58,
3.885,-0.34,-0.66,0.11,-0.22,1.06,0.58,
3.886,-0.34,-0.66,0.11,-0.20,1.02,0.58,
3.889,-0.34,-0.66,0.11,-0.18,0.96,0.58,
3.89,-0.34,-0.66,0.11,-0.15,0.90,0.58,
3.892,-0.34,-0.66,0.11,-0.13,0.82,0.57,
3.895,-0.81,-0.60,0.98,-0.13,0.82,0.57,
3.895,-0.81,-0.60,0.98,-0.09,0.73,0.55,
3.896,-0.81,-0.60,0.98,-0.06,0.63,0.51,
3.898,-0.81,-0.60,0.98,-0.03,0.53,0.47,
3.9,-0.81,-0.60,0.98,0.01,0.44,0.42,
3.902,-0.81,-0.60,0.98,0.04,0.35,0.36,
3.904,0.63,-1.38,2.01,0.04,0.35,0.36,
3.905,0.63,-1.38,2.01,0.06,0.26,0.29,
3.906,0.63,-1.38,2.01,0.09,0.20,0.22,
3.908,0.63,-1.38,2.01,0.10,0.14,0.15,
3.91,0.63,-1.38,2.01,0.10,0.12,0.07,
3.912,0.63,-1.38,2.01,0.10,0.12,-0.01,
3.914,2.28,-2.77,1.33,0.10,0.12,-0.01,
3.915,2.28,-2.77,1.33,0.09,0.15,-0.10,
3.916,2.28,-2.77,1.33,0.08,0.21,-0.20,
3.918,2.28,-2.77,1.33,0.07,0.29,-0.30,
3.92,2.28,-2.77,1.33,0.05,0.38,-0.40,
3.925,3.99,-4.41,0.27,0.05,0.38,-0.40,
3.925,3.99,-4.41,0.27,0.04,0.59,-0.60,
3.926,3.99,-4.41,0.27,0.04,0.59,-0.60,
3.927,3.99,-4.41,0.27,0.04,0.69,-0.68,
3.929,3.99,-4.41,0.27,0.04,0.78,-0.77,
3.93,3.99,-4.41,0.27,0.06,0.84,-0.84,
3.932,3.99,-4.41,0.27,0.07,0.89,-0.91,
3.935,4.40,-4.92,1.44,0.07,0.89,-0.91,
3.936,4.40,-4.92,1.44,0.10,0.91,-0.96,
3.937,4.40,-4.92,1.44,0.13,0.91,-1.01,
3.939,4.40,-4.92,1.44,0.16,0.90,-1.04,
3.94,4.40,-4.92,1.44,0.19,0.87,-1.06,
3.966,4.40,-4.92,1.44,0.22,0.83,-1.07,
3.967,2.88,-3.91,3.33,0.22,0.83,-1.07,
3.967,2.88,-3.91,3.33,0.26,0.79,-1.06,
3.967,2.88,-3.91,3.33,0.29,0.74,-1.04,
3.968,2.88,-3.91,3.33,0.33,0.71,-1.01,
3.968,2.88,-3.91,3.33,0.36,0.67,-0.97,
3.969,2.88,-3.91,3.33,0.38,0.66,-0.91,
3.969,-0.16,-2.05,3.78,0.38,0.66,-0.91,
3.969,-0.16,-2.05,3.78,0.39,0.66,-0.84,
3.97,-0.16,-2.05,3.78,0.40,0.67,-0.76,
3.97,-0.16,-2.05,3.78,0.40,0.69,-0.68,
3.971,-0.16,-2.05,3.78,0.40,0.71,-0.58,
3.971,-0.16,-2.05,3.78,0.39,0.74,-0.48,
3.971,-2.50,-0.87,2.83,0.39,0.74,-0.48,
3.972,-2.50,-0.87,2.83,0.38,0.77,-0.38,
3.972,-2.50,-0.87,2.83,0.37,0.81,-0.28,
3.973,-2.50,-0.87,2.83,0.36,0.84,-0.19,
3.973,-2.50,-0.87,2.83,0.35,0.85,-0.10,
3.974,-2.50,-0.87,2.83,0.34,0.84,-0.04,
4.011,-1.97,-0.82,1.82,0.34,0.84,-0.04,
4.012,-1.97,-0.82,1.82,0.32,0.82,0.02,
4.012,-1.97,-0.82,1.82,0.29,0.80,0.05,
4.012,-1.97,-0.82,1.82,0.27,0.77,0.08,
4.013,-1.97,-0.82,1.82,0.26,0.76,0.10,
4.013,-1.97,-0.82,1.82,0.24,0.78,0.10,
4.013,0.55,-1.28,-0.01,0.24,0.78,0.10,
4.013,0.55,-1.28,-0.01,0.23,0.80,0.10,
4.013,0.55,-1.28,-0.01,0.21,0.82,0.09,
4.014,0.55,-1.28,-0.01,0.20,0.85,0.08,
4.014,0.55,-1.28,-0.01,0.19,0.88,0.06,
4.014,0.55,-1.28,-0.01,0.17,0.91,0.03,
4.014,1.64,-1.02,-1.85,0.17,0.91,0.03,
4.015,1.64,-1.02,-1.85,0.16,0.93,0.00,
4.015,1.64,-1.02,-1.85,0.14,0.95,-0.03,
4.015,1.64,-1.02,-1.85,0.11,0.95,-0.06,
4.015,1.64,-1.02,-1.85,0.08,0.95,-0.10,
4.016,1.64,-1.02,-1.85,0.04,0.94,-0.14,
4.016,1.74,-0.25,-3.65,0.04,0.94,-0.14,
4.016,1.74,-0.25,-3.65,-0.00,0.93,-0.18,
4.016,1.74,-0.25,-3.65,-0.06,0.94,-0.22,
4.016,1.74,-0.25,-3.65,-0.12,0.95,-0.25,
4.017,1.74,-0.25,-3.65,-0.19,0.97,-0.29,
4.017,1.74,-0.25,-3.65,-0.26,0.99,-0.32,
4.052,1.47,0.56,-5.10,-0.26,0.99,-0.32,
4.052,1.47,0.56,-5.10,-0.34,1.02,-0.34,
4.053,1.47,0.56,-5.10,-0.42,1.05,-0.36,
4.053,1.47,0.56,-5.10,-0.51,1.08,-0.37,
4.053,1.47,0.56,-5.10,-0.60,1.11,-0.37,
4.053,1.47,0.56,-5.10,-0.69,1.14,-0.36,
4.053,0.18,1.53,-5.58,-0.69,1.14,-0.36,
4.054,0.18,1.53,-5.58,-0.78,1.17,-0.35,
4.054,0.18,1.53,-5.58,-0.86,1.19,-0.33,
4.054,0.18,1.53,-5.58,-0.94,1.20,-0.30,
4.054,0.18,1.53,-5.58,-1.01,1.19,-0.27,
4.054,0.18,1.53,-5.58,-1.08,1.15,-0.23,
4.054,-1.33,1.57,-4.38,-1.08,1.15,-0.23,
4.055,-1.33,1.57,-4.38,-1.13,1.09,-0.18,
4.055,-1.33,1.57,-4.38,-1.18,1.01,-0.14,
4.055,-1.33,1.57,-4.38,-1.22,0.92,-0.09,
4.055,-1.33,1.57,-4.38,-1.26,0.80,-0.04,
4.055,-1.33,1.57,-4.38,-1.28,0.67,0.01,
4.056,-1.44,0.85,-1.94,-1.28,0.67,0.01,
4.056,-1.44,0.85,-1.94,-1.30,0.55,0.05,
4.056,-1.44,0.85,-1.94,-1.30,0.43,0.09,
4.056,-1.44,0.85,-1.94,-1.30,0.32,0.13,
4.056,-1.44,0.85,-1.94,-1.30,0.21,0.16,
4.057,-1.44,0.85,-1.94,-1.29,0.11,0.18,
4.057,-0.82,-0.49,0.12,-1.29,0.11,0.18,
4.057,-0.82,-0.49,0.12,-1.27,0.01,0.19,
4.057,-0.82,-0.49,0.12,-1.26,-0.08,0.21,
4.059,-0.82,-0.49,0.12,-1.24,-0.17,0.22,
4.063,-0.82,-0.49,0.12,-1.22,-0.26,0.22,
4.063,-0.82,-0.49,0.12,-1.19,-0.34,0.22,
4.065,0.44,-1.74,0.40,-1.19,-0.34,0.22,
4.065,0.44,-1.74,0.40,-1.16,-0.41,0.22,
4.067,0.44,-1.74,0.40,-1.12,-0.47,0.22,
4.068,0.44,-1.74,0.40,-1.09,-0.51,0.21,
4.071,0.44,-1.74,0.40,-1.05,-0.56,0.20,
4.073,0.44,-1.74,0.40,-1.01,-0.59,0.18,
4.075,2.00,-1.65,0.10,-1.01,-0.59,0.18,
4.075,2.00,-1.65,0.10,-0.98,-0.63,0.16,
4.077,2.00,-1.65,0.10,-0.94,-0.66,0.14,
4.079,2.00,-1.65,0.10,-0.91,-0.68,0.11,
4.082,2.00,-1.65,0.10,-0.87,-0.69,0.09,
4.088,2.00,-1.65,0.10,-0.84,-0.70,0.08,
4.089,2.80,-0.27,-0.40,-0.84,-0.70,0.08,
4.089,2.80,-0.27,-0.40,-0.80,-0.71,0.07,
4.089,2.80,-0.27,-0.40,-0.77,-0.71,0.07,
4.089,2.80,-0.27,-0.40,-0.73,-0.72,0.08,
4.091,2.80,-0.27,-0.40,-0.69,-0.72,0.09,
4.095,2.80,-0.27,-0.40,-0.64,-0.71,0.11,
4.095,2.55,0.50,-0.10,-0.64,-0.71,0.11,
4.096,2.55,0.50,-0.10,-0.60,-0.70,0.13,
4.097,2.55,0.50,-0.10,-0.56,-0.70,0.16,
4.099,2.55,0.50,-0.10,-0.53,-0.71,0.19,
4.119,2.55,0.50,-0.10,-0.51,-0.74,0.22,
4.12,2.55,0.50,-0.10,-0.49,-0.77,0.25,
4.12,1.62,1.20,-0.14,-0.49,-0.77,0.25,
4.12,1.62,1.20,-0.14,-0.47,-0.79,0.28,
4.121,1.62,1.20,-0.14,-0.44,-0.79,0.31,
4.138,1.62,1.20,-0.14,-0.42,-0.80,0.34,
4.138,1.62,1.20,-0.14,-0.41,-0.80,0.38,
4.139,1.62,1.20,-0.14,-0.38,-0.80,0.41,
4.139,-0.28,1.75,-0.04,-0.38,-0.80,0.41,
4.139,-0.28,1.75,-0.04,-0.36,-0.81,0.43,
4.139,-0.28,1.75,-0.04,-0.33,-0.83,0.45,
4.139,-0.28,1.75,-0.04,-0.29,-0.85,0.46,
4.14,-0.28,1.75,-0.04,-0.26,-0.91,0.47,
4.14,-0.28,1.75,-0.04,-0.24,-0.97,0.48,
4.14,-1.54,1.95,0.69,-0.24,-0.97,0.48,
4.14,-1.54,1.95,0.69,-0.22,-1.04,0.47,
4.14,-1.54,1.95,0.69,-0.21,-1.13,0.46,
4.14,-1.54,1.95,0.69,-0.21,-1.23,0.45,
4.141,-1.54,1.95,0.69,-0.20,-1.33,0.45,
4.141,-1.54,1.95,0.69,-0.20,-1.44,0.46,
4.141,-1.91,2.71,0.63,-0.20,-1.44,0.46,
4.141,-1.91,2.71,0.63,-0.18,-1.57,0.51,
4.141,-1.91,2.71,0.63,-0.14,-1.81,0.59,
4.142,-1.91,2.71,0.63,-0.07,-2.18,0.70,
4.142,-1.91,2.71,0.63,0.01,-2.58,0.81,
4.168,-1.91,2.71,0.63,0.09,-2.92,0.93,
4.168,-2.66,5.56,4.04,0.09,-2.92,0.93,
4.168,-2.66,5.56,4.04,0.12,-3.22,1.02,
4.168,-2.66,5.56,4.04,0.13,-3.50,1.06,
4.169,-2.66,5.56,4.04,0.09,-3.85,1.09,
4.169,-2.66,5.56,4.04,0.06,-4.18,1.15,
4.169,-2.66,5.56,4.04,0.09,-4.42,1.18,
4.169,-2.38,6.05,-0.03,0.09,-4.42,1.18,
4.169,-2.38,6.05,-0.03,0.11,-4.58,1.18,
4.17,-2.38,6.05,-0.03,0.11,-4.69,1.15,
4.17,-2.38,6.05,-0.03,0.12,-4.76,1.09,
4.17,-2.38,6.05,-0.03,0.13,-4.75,1.01,
4.17,-2.38,6.05,-0.03,0.15,-4.64,0.92,
4.17,0.89,5.38,-2.82,0.15,-4.64,0.92,
4.171,0.89,5.38,-2.82,0.19,-4.44,0.83,
4.171,0.89,5.38,-2.82,0.25,-4.16,0.73,
4.171,0.89,5.38,-2.82,0.33,-3.82,0.62,
4.171,0.89,5.38,-2.82,0.42,-3.44,0.50,
4.173,0.89,5.38,-2.82,0.51,-3.06,0.38,
4.175,3.41,3.75,-2.04,0.51,-3.06,0.38,
4.175,3.41,3.75,-2.04,0.60,-2.65,0.25,
4.176,3.41,3.75,-2.04,0.70,-2.26,0.12,
4.179,3.41,3.75,-2.04,0.79,-1.89,-0.02,
4.18,3.41,3.75,-2.04,0.87,-1.54,-0.14,
4.182,3.41,3.75,-2.04,0.93,-1.22,-0.27,
4.185,4.26,2.79,-1.83,0.93,-1.22,-0.27,
4.185,4.26,2.79,-1.83,1.00,-0.93,-0.39,
4.187,4.26,2.79,-1.83,1.05,-0.67,-0.51,
4.188,4.26,2.79,-1.83,1.09,-0.45,-0.62,
4.19,4.26,2.79,-1.83,1.13,-0.27,-0.73,
4.192,4.26,2.79,-1.83,1.17,-0.13,-0.82,
4.195,3.63,2.49,-2.13,1.17,-0.13,-0.82,
4.195,3.63,2.49,-2.13,1.20,-0.03,-0.91,
4.196,3.63,2.49,-2.13,1.23,0.01,-1.00,
4.198,3.63,2.49,-2.13,1.27,0.02,-1.08,
4.201,3.63,2.49,-2.13,1.32,-0.02,-1.16,
4.203,3.63,2.49,-2.13,1.38,-0.09,-1.23,
4.205,2.58,2.07,-0.19,1.38,-0.09,-1.23,
4.205,2.58,2.07,-0.19,1.43,-0.18,-1.30,
4.207,2.58,2.07,-0.19,1.49,-0.27,-1.36,
4.208,2.58,2.07,-0.19,1.55,-0.34,-1.41,
4.211,2.58,2.07,-0.19,1.60,-0.40,-1.45,
4.212,2.58,2.07,-0.19,1.64,-0.44,-1.48,
4.215,1.93,1.45,2.92,1.64,-0.44,-1.48,
4.215,1.93,1.45,2.92,1.68,-0.46,-1.49,
4.218,1.93,1.45,2.92,1.72,-0.46,-1.49,
4.219,1.93,1.45,2.92,1.72,-0.43,-1.47,
4.22,1.93,1.45,2.92,1.69,-0.34,-1.43,
4.222,1.93,1.45,2.92,1.65,-0.24,-1.37,
4.225,1.33,0.94,3.72,1.65,-0.24,-1.37,
4.225,1.33,0.94,3.72,1.57,-0.13,-1.30,
4.226,1.33,0.94,3.72,1.46,-0.03,-1.22,
4.228,1.33,0.94,3.72,1.36,0.05,-1.14,
4.231,1.33,0.94,3.72,1.22,0.08,-1.07,
4.253,1.33,0.94,3.72,1.09,0.07,-1.00,
4.255,1.44,0.99,2.99,1.09,0.07,-1.00,
4.255,1.44,0.99,2.99,0.96,0.02,-0.95,
4.255,1.44,0.99,2.99,0.82,-0.07,-0.89,
4.255,1.44,0.99,2.99,0.67,-0.17,-0.84,
4.255,1.44,0.99,2.99,0.52,-0.28,-0.79,
4.255,1.44,0.99,2.99,0.36,-0.39,-0.73,
4.256,1.26,0.95,1.67,0.36,-0.39,-0.73,
4.256,1.26,0.95,1.67,0.20,-0.50,-0.67,
4.256,1.26,0.95,1.67,0.02,-0.62,-0.61,
4.256,1.26,0.95,1.67,-0.17,-0.75,-0.56,
4.256,1.26,0.95,1.67,-0.36,-0.89,-0.50,
4.256,1.26,0.95,1.67,-0.56,-1.04,-0.45,
4.256,0.57,1.39,-1.05,-0.56,-1.04,-0.45,
4.257,0.57,1.39,-1.05,-0.76,-1.20,-0.42,
4.257,0.57,1.39,-1.05,-0.96,-1.37,-0.38,
4.282,0.57,1.39,-1.05,-1.14,-1.53,-0.36,
4.282,0.57,1.39,-1.05,-1.32,-1.69,-0.34,
4.283,0.57,1.39,-1.05,-1.50,-1.85,-0.32,
4.283,-0.03,2.36,-2.96,-1.50,-1.85,-0.32,
4.283,-0.03,2.36,-2.96,-1.67,-2.00,-0.31,
4.283,-0.03,2.36,-2.96,-1.83,-2.13,-0.30,
4.283,-0.03,2.36,-2.96,-1.98,-2.24,-0.30,
4.283,-0.03,2.36,-2.96,-2.12,-2.34,-0.30,
4.284,-0.03,2.36,-2.96,-2.25,-2.42,-0.31,
4.284,-0.42,3.26,-3.98,-2.25,-2.42,-0.31,
4.3,-0.42,3.26,-3.98,-2.38,-2.47,-0.32,
4.3,-0.42,3.26,-3.98,-2.48,-2.49,-0.33,
4.301,-0.42,3.26,-3.98,-2.59,-2.51,-0.35,
4.301,-0.42,3.26,-3.98,-2.68,-2.50,-0.37,
4.301,-0.42,3.26,-3.98,-2.76,-2.48,-0.38,
4.301,-1.03,3.87,-4.24,-2.76,-2.48,-0.38,
4.302,-1.03,3.87,-4.24,-2.84,-2.44,-0.40,
4.302,-1.03,3.87,-4.24,-2.90,-2.38,-0.42,
4.302,-1.03,3.87,-4.24,-2.96,-2.30,-0.44,
4.302,-1.03,3.87,-4.24,-3.00,-2.21,-0.46,
4.302,-1.03,3.87,-4.24,-3.04,-2.09,-0.48,
4.303,-1.59,4.11,-4.21,-3.04,-2.09,-0.48,
4.303,-1.59,4.11,-4.21,-3.07,-1.97,-0.49,
4.303,-1.59,4.11,-4.21,-3.08,-1.84,-0.50,
4.303,-1.59,4.11,-4.21,-3.09,-1.69,-0.51,
4.304,-1.59,4.11,-4.21,-3.09,-1.55,-0.51,
4.304,-1.59,4.11,-4.21,-3.08,-1.39,-0.51,
4.33,-2.16,4.04,-3.18,-3.08,-1.39,-0.51,
4.33,-2.16,4.04,-3.18,-3.06,-1.23,-0.51,
4.33,-2.16,4.04,-3.18,-3.03,-1.07,-0.50,
4.33,-2.16,4.04,-3.18,-2.99,-0.92,-0.49,
4.331,-2.16,4.04,-3.18,-2.93,-0.76,-0.47,
4.331,-2.16,4.04,-3.18,-2.87,-0.62,-0.45,
4.331,-2.48,3.67,-1.53,-2.87,-0.62,-0.45,
4.331,-2.48,3.67,-1.53,-2.80,-0.48,-0.42,
4.331,-2.48,3.67,-1.53,-2.71,-0.35,-0.39,
4.332,-2.48,3.67,-1.53,-2.62,-0.24,-0.35,
4.332,-2.48,3.67,-1.53,-2.52,-0.15,-0.30,
4.332,-2.48,3.67,-1.53,-2.40,-0.07,-0.25,
4.332,-2.57,3.18,0.96,-2.40,-0.07,-0.25,
4.332,-2.57,3.18,0.96,-2.28,-0.03,-0.19,
4.333,-2.57,3.18,0.96,-2.15,-0.01,-0.12,
4.333,-2.57,3.18,0.96,-2.02,-0.03,-0.04,
4.333,-2.57,3.18,0.96,-1.89,-0.07,0.05,
4.333,-2.57,3.18,0.96,-1.76,-0.14,0.15,
4.335,-2.97,2.83,3.33,-1.76,-0.14,0.15,
4.336,-2.97,2.83,3.33,-1.65,-0.26,0.25,
4.337,-2.97,2.83,3.33,-1.53,-0.41,0.36,
4.345,-2.97,2.83,3.33,-1.43,-0.60,0.47,
4.345,-2.97,2.83,3.33,-1.34,-0.83,0.59,
4.345,-2.97,2.83,3.33,-1.25,-1.10,0.70,
4.345,-3.46,2.88,3.81,-1.25,-1.10,0.70,
4.345,-3.46,2.88,3.81,-1.19,-1.40,0.80,
4.347,-3.46,2.88,3.81,-1.14,-1.72,0.91,
4.348,-3.46,2.88,3.81,-1.10,-2.05,1.01,
4.351,-3.46,2.88,3.81,-1.06,-2.39,1.11,
4.353,-3.46,2.88,3.81,-1.04,-2.72,1.19,
4.355,-3.82,3.40,3.09,-1.04,-2.72,1.19,
4.355,-3.82,3.40,3.09,-1.03,-3.05,1.26,
4.357,-3.82,3.40,3.09,-1.03,-3.39,1.33,
4.358,-3.82,3.40,3.09,-1.04,-3.70,1.38,
4.36,-3.82,3.40,3.09,-1.05,-4.01,1.43,
4.363,-3.82,3.40,3.09,-1.09,-4.30,1.47,
4.365,-3.76,4.23,0.96,-1.09,-4.30,1.47,
4.365,-3.76,4.23,0.96,-1.13,-4.57,1.51,
4.371,-3.76,4.23,0.96,-1.18,-4.82,1.53,
4.371,-3.76,4.23,0.96,-1.24,-5.04,1.56,
4.371,-3.76,4.23,0.96,-1.30,-5.23,1.57,
4.372,-3.76,4.23,0.96,-1.36,-5.39,1.58,
4.379,-3.94,4.94,-0.98,-1.36,-5.39,1.58,
4.38,-3.94,4.94,-0.98,-1.42,-5.52,1.58,
4.38,-3.94,4.94,-0.98,-1.49,-5.62,1.59,
4.38,-3.94,4.94,-0.98,-1.54,-5.70,1.59,
4.381,-3.94,4.94,-0.98,-1.59,-5.74,1.59,
4.405,-3.94,4.94,-0.98,-1.61,-5.74,1.59,
4.406,-3.97,5.21,-0.33,-1.61,-5.74,1.59,
4.406,-3.97,5.21,-0.33,-1.62,-5.69,1.59,
4.406,-3.97,5.21,-0.33,-1.62,-5.59,1.59,
4.406,-3.97,5.21,-0.33,-1.58,-5.41,1.60,
4.407,-3.97,5.21,-0.33,-1.52,-5.13,1.61,
4.407,-3.97,5.21,-0.33,-1.46,-4.69,1.63,
4.407,-4.40,3.50,5.18,-1.46,-4.69,1.63,
4.407,-4.40,3.50,5.18,-1.42,-4.07,1.66,
4.407,-4.40,3.50,5.18,-1.36,-3.34,1.72,
4.407,-4.40,3.50,5.18,-1.30,-2.60,1.78,
4.408,-4.40,3.50,5.18,-1.26,-1.90,1.83,
4.408,-4.40,3.50,5.18,-1.16,-1.24,1.89,
4.408,-5.16,2.14,7.38,-1.16,-1.24,1.89,
4.408,-5.16,2.14,7.38,-1.10,-0.65,1.94,
4.408,-5.16,2.14,7.38,-1.01,-0.09,2.00,
4.411,-5.16,2.14,7.38,-0.94,0.39,2.07,
4.411,-5.16,2.14,7.38,-0.88,0.80,2.15,
4.412,-5.16,2.14,7.38,-0.79,1.16,2.24,
4.415,-5.47,2.39,5.70,-0.79,1.16,2.24,
4.415,-5.47,2.39,5.70,-0.72,1.49,2.33,
4.417,-5.47,2.39,5.70,-0.67,1.81,2.42,
4.419,-5.47,2.39,5.70,-0.63,2.12,2.51,
4.42,-5.47,2.39,5.70,-0.60,2.43,2.59,
4.423,-5.47,2.39,5.70,-0.56,2.72,2.68,
4.428,-5.28,3.08,3.06,-0.56,2.72,2.68,
4.428,-5.28,3.08,3.06,-0.56,3.28,2.83,
4.428,-5.28,3.08,3.06,-0.56,3.28,2.83,
4.429,-5.28,3.08,3.06,-0.56,3.56,2.88,
4.43,-5.28,3.08,3.06,-0.58,3.82,2.93,
4.432,-5.28,3.08,3.06,-0.61,4.08,2.95,
4.436,-4.75,3.37,2.08,-0.61,4.08,2.95,
4.437,-4.75,3.37,2.08,-0.65,4.33,2.96,
4.437,-4.75,3.37,2.08,-0.70,4.56,2.96,
4.439,-4.75,3.37,2.08,-0.75,4.78,2.96,
4.44,-4.75,3.37,2.08,-0.79,4.98,2.96,
4.463,-4.75,3.37,2.08,-0.84,5.16,2.96,
4.463,-3.90,3.41,1.56,-0.84,5.16,2.96,
4.463,-3.90,3.41,1.56,-0.89,5.32,2.96,
4.463,-3.90,3.41,1.56,-0.94,5.48,2.96,
4.463,-3.90,3.41,1.56,-0.98,5.62,2.97,
4.464,-3.90,3.41,1.56,-1.06,5.75,3.00,
4.464,-3.90,3.41,1.56,-1.09,5.78,3.02,
4.464,-3.70,1.36,1.33,-1.09,5.78,3.02,
4.464,-3.70,1.36,1.33,-1.16,5.84,3.09,
4.464,-3.70,1.36,1.33,-1.21,5.94,3.20,
4.464,-3.70,1.36,1.33,-1.21,6.03,3.34,
4.464,-3.70,1.36,1.33,-1.19,6.02,3.44,
4.465,-3.70,1.36,1.33,-1.17,5.95,3.52,
4.465,-1.97,-15.60,2.61,-1.17,5.95,3.52,
4.465,-1.97,-15.60,2.61,-1.11,5.81,3.61,
4.491,-1.97,-15.60,2.61,-1.02,5.61,3.73,
4.492,-1.97,-15.60,2.61,-0.93,5.38,3.92,
4.492,-1.97,-15.60,2.61,-0.83,5.12,4.13,
4.492,-1.97,-15.60,2.61,-0.72,4.81,4.34,
4.493,-3.28,-30.24,3.43,-0.72,4.81,4.34,
4.493,-3.28,-30.24,3.43,-0.62,4.47,4.53,
4.493,-3.28,-30.24,3.43,-0.51,4.11,4.70,
4.493,-3.28,-30.24,3.43,-0.39,3.74,4.84,
4.493,-3.28,-30.24,3.43,-0.26,3.37,4.96,
4.494,-3.28,-30.24,3.43,-0.12,3.02,5.05,
4.494,-0.57,-44.58,2.29,-0.12,3.02,5.05,
4.494,-0.57,-44.58,2.29,0.03,2.69,5.10,
4.494,-0.57,-44.58,2.29,0.20,2.38,5.13,
4.495,-0.57,-44.58,2.29,0.39,2.13,5.12,
4.495,-0.57,-44.58,2.29,0.59,1.92,5.07,
4.495,-0.57,-44.58,2.29,0.79,1.75,5.01,
4.497,1.24,-41.44,2.85,0.79,1.75,5.01,
4.497,1.24,-41.44,2.85,0.99,1.62,4.94,
4.497,1.24,-41.44,2.85,1.19,1.52,4.88,
4.499,1.24,-41.44,2.85,1.40,1.46,4.82,
4.501,1.24,-41.44,2.85,1.60,1.42,4.75,
4.503,1.24,-41.44,2.85,1.79,1.41,4.67,
4.505,0.32,-26.93,3.33,1.79,1.41,4.67,
4.505,0.32,-26.93,3.33,1.97,1.42,4.60,
4.506,0.32,-26.93,3.33,2.14,1.42,4.51,
4.508,0.32,-26.93,3.33,2.28,1.41,4.41,
4.51,0.32,-26.93,3.33,2.41,1.38,4.31,
4.512,0.32,-26.93,3.33,2.52,1.34,4.19,
4.519,1.85,-15.05,1.83,2.52,1.34,4.19,
4.519,1.85,-15.05,1.83,2.61,1.28,4.07,
4.519,1.85,-15.05,1.83,2.67,1.21,3.94,
4.52,1.85,-15.05,1.83,2.72,1.12,3.80,
4.521,1.85,-15.05,1.83,2.75,1.02,3.67,
4.523,1.85,-15.05,1.83,2.77,0.90,3.54,
4.525,3.46,-7.40,-0.82,2.77,0.90,3.54,
4.525,3.46,-7.40,-0.82,2.78,0.77,3.40,
4.527,3.46,-7.40,-0.82,2.77,0.62,3.26,
4.529,3.46,-7.40,-0.82,2.76,0.47,3.13,
4.531,3.46,-7.40,-0.82,2.74,0.31,3.00,
4.542,3.46,-7.40,-0.82,2.72,0.14,2.88,
4.542,3.92,-2.34,-2.42,2.72,0.14,2.88,
4.542,3.92,-2.34,-2.42,2.69,-0.02,2.75,
4.543,3.92,-2.34,-2.42,2.66,-0.19,2.64,
4.543,3.92,-2.34,-2.42,2.62,-0.36,2.52,
4.543,3.92,-2.34,-2.42,2.58,-0.53,2.41,
4.543,3.92,-2.34,-2.42,2.54,-0.70,2.31,
4.545,3.36,0.90,-3.16,2.54,-0.70,2.31,
4.545,3.36,0.90,-3.16,2.50,-0.86,2.21,
4.546,3.36,0.90,-3.16,2.46,-1.01,2.11,
4.554,3.36,0.90,-3.16,2.42,-1.16,2.02,
4.554,3.36,0.90,-3.16,2.38,-1.31,1.93,
4.555,3.36,0.90,-3.16,2.35,-1.45,1.84,
4.555,2.78,2.64,-3.34,2.35,-1.45,1.84,
4.556,2.78,2.64,-3.34,2.32,-1.59,1.76,
4.557,2.78,2.64,-3.34,2.29,-1.72,1.68,
4.558,2.78,2.64,-3.34,2.27,-1.84,1.60,
4.56,2.78,2.64,-3.34,2.25,-1.96,1.53,
4.562,2.78,2.64,-3.34,2.23,-2.08,1.45,
4.566,2.13,3.10,-3.02,2.23,-2.08,1.45,
4.566,2.13,3.10,-3.02,2.21,-2.19,1.38,
4.567,2.13,3.10,-3.02,2.20,-2.30,1.32,
4.568,2.13,3.10,-3.02,2.18,-2.40,1.25,
4.57,2.13,3.10,-3.02,2.17,-2.50,1.19,
4.573,2.13,3.10,-3.02,2.16,-2.59,1.13,
4.576,1.56,2.19,-3.07,2.16,-2.59,1.13,
4.576,1.56,2.19,-3.07,2.15,-2.68,1.08,
4.576,1.56,2.19,-3.07,2.13,-2.75,1.03,
4.579,1.56,2.19,-3.07,2.09,-2.77,1.00,
4.581,1.56,2.19,-3.07,2.03,-2.77,0.97,
4.582,1.56,2.19,-3.07,1.98,-2.76,0.94,
4.586,0.86,0.78,-3.79,1.98,-2.76,0.94,
4.586,0.86,0.78,-3.79,1.93,-2.77,0.91,
4.587,0.86,0.78,-3.79,1.89,-2.78,0.88,
4.589,0.86,0.78,-3.79,1.87,-2.80,0.86,
4.591,0.86,0.78,-3.79,1.85,-2.83,0.84,
4.593,0.86,0.78,-3.79,1.84,-2.86,0.82,
4.595,0.29,-0.80,-3.32,1.84,-2.86,0.82,
4.595,0.29,-0.80,-3.32,1.85,-2.90,0.82,
4.597,0.29,-0.80,-3.32,1.87,-2.93,0.81,
4.599,0.29,-0.80,-3.32,1.89,-2.95,0.81,
4.6,0.29,-0.80,-3.32,1.91,-2.95,0.81,
4.603,0.29,-0.80,-3.32,1.93,-2.95,0.82,
4.605,-0.47,-1.87,-2.57,1.93,-2.95,0.82,
4.605,-0.47,-1.87,-2.57,1.96,-2.94,0.83,
4.607,-0.47,-1.87,-2.57,1.99,-2.91,0.84,
4.63,-0.47,-1.87,-2.57,2.03,-2.87,0.86,
4.63,-0.47,-1.87,-2.57,2.06,-2.82,0.89,
4.63,-0.47,-1.87,-2.57,2.10,-2.75,0.91,
4.631,-1.15,-2.44,-2.26,2.10,-2.75,0.91,
4.631,-1.15,-2.44,-2.26,2.14,-2.68,0.94,
4.631,-1.15,-2.44,-2.26,2.18,-2.60,0.97,
4.631,-1.15,-2.44,-2.26,2.21,-2.50,1.00,
4.632,-1.15,-2.44,-2.26,2.25,-2.40,1.04,
4.632,-1.15,-2.44,-2.26,2.29,-2.30,1.07,
4.632,-1.43,-2.47,-2.11,2.29,-2.30,1.07,
4.632,-1.43,-2.47,-2.11,2.32,-2.19,1.11,
4.632,-1.43,-2.47,-2.11,2.36,-2.09,1.14,
4.633,-1.43,-2.47,-2.11,2.39,-1.97,1.18,
4.633,-1.43,-2.47,-2.11,2.41,-1.87,1.21,
4.633,-1.43,-2.47,-2.11,2.43,-1.76,1.24,
4.656,-1.58,-2.10,-2.62,2.43,-1.76,1.24,
4.656,-1.58,-2.10,-2.62,2.45,-1.65,1.28,
4.656,-1.58,-2.10,-2.62,2.46,-1.54,1.31,
4.656,-1.58,-2.10,-2.62,2.47,-1.44,1.34,
4.656,-1.58,-2.10,-2.62,2.47,-1.35,1.37,
4.656,-1.58,-2.10,-2.62,2.47,-1.25,1.39,
4.657,-1.44,-1.30,-3.34,2.47,-1.25,1.39,
4.657,-1.44,-1.30,-3.34,2.46,-1.16,1.42,
4.657,-1.44,-1.30,-3.34,2.45,-1.07,1.44,
4.657,-1.44,-1.30,-3.34,2.44,-0.99,1.47,
4.657,-1.44,-1.30,-3.34,2.42,-0.90,1.48,
4.657,-1.44,-1.30,-3.34,2.39,-0.81,1.50,
4.658,-1.17,-0.36,-4.27,2.39,-0.81,1.50,
4.658,-1.17,-0.36,-4.27,2.35,-0.72,1.52,
4.658,-1.17,-0.36,-4.27,2.32,-0.63,1.53,
4.658,-1.17,-0.36,-4.27,2.27,-0.54,1.54,
4.66,-1.17,-0.36,-4.27,2.22,-0.44,1.55,
4.662,-1.17,-0.36,-4.27,2.17,-0.33,1.55,
4.664,-0.61,0.69,-5.10,2.17,-0.33,1.55,
4.665,-0.61,0.69,-5.10,2.11,-0.22,1.56,
4.666,-0.61,0.69,-5.10,2.04,-0.10,1.55,
4.669,-0.61,0.69,-5.10,1.97,0.02,1.55,
4.67,-0.61,0.69,-5.10,1.90,0.16,1.53,
4.672,-0.61,0.69,-5.10,1.81,0.29,1.51,
4.675,0.48,1.66,-6.13,1.81,0.29,1.51,
4.675,0.48,1.66,-6.13,1.73,0.43,1.49,
4.676,0.48,1.66,-6.13,1.64,0.56,1.46,
4.678,0.48,1.66,-6.13,1.56,0.70,1.43,
4.683,0.48,1.66,-6.13,1.47,0.84,1.40,
4.683,0.48,1.66,-6.13,1.37,0.97,1.36,
4.685,1.59,2.79,-6.52,1.37,0.97,1.36,
4.685,1.59,2.79,-6.52,1.28,1.10,1.32,
4.686,1.59,2.79,-6.52,1.18,1.22,1.28,
4.688,1.59,2.79,-6.52,1.09,1.35,1.23,
4.69,1.59,2.79,-6.52,0.99,1.48,1.19,
4.694,1.59,2.79,-6.52,0.89,1.61,1.14,
4.695,2.32,3.67,-6.86,0.89,1.61,1.14,
4.695,2.32,3.67,-6.86,0.79,1.73,1.09,
4.696,2.32,3.67,-6.86,0.68,1.86,1.05,
4.704,2.32,3.67,-6.86,0.58,1.98,1.00,
4.704,2.32,3.67,-6.86,0.49,2.10,0.94,
4.704,2.32,3.67,-6.86,0.39,2.21,0.89,
4.705,2.95,4.59,-6.37,0.39,2.21,0.89,
4.705,2.95,4.59,-6.37,0.29,2.33,0.83,
4.706,2.95,4.59,-6.37,0.20,2.45,0.77,
4.708,2.95,4.59,-6.37,0.12,2.56,0.71,
4.71,2.95,4.59,-6.37,0.05,2.68,0.64,
4.712,2.95,4.59,-6.37,0.00,2.79,0.57,
4.715,4.14,5.09,-4.31,0.00,2.79,0.57,
4.715,4.14,5.09,-4.31,-0.03,2.89,0.49,
4.716,4.14,5.09,-4.31,-0.05,2.98,0.41,
4.718,4.14,5.09,-4.31,-0.05,3.05,0.33,
4.72,4.14,5.09,-4.31,-0.04,3.09,0.24,
4.722,4.14,5.09,-4.31,-0.03,3.10,0.17,
4.724,4.86,5.34,-1.16,-0.03,3.10,0.17,
4.725,4.86,5.34,-1.16,-0.00,3.08,0.09,
4.726,4.86,5.34,-1.16,0.03,3.03,0.02,
4.728,4.86,5.34,-1.16,0.07,2.95,-0.05,
4.731,4.86,5.34,-1.16,0.11,2.85,-0.12,
4.732,4.86,5.34,-1.16,0.14,2.71,-0.19,
4.735,5.12,5.17,0.40,0.14,2.71,-0.19,
4.735,5.12,5.17,0.40,0.18,2.56,-0.25,
4.736,5.12,5.17,0.40,0.21,2.37,-0.31,
4.738,5.12,5.17,0.40,0.23,2.17,-0.37,
4.74,5.12,5.17,0.40,0.25,1.96,-0.42,
4.742,5.12,5.17,0.40,0.25,1.74,-0.46,
4.745,4.69,4.82,-0.27,0.25,1.74,-0.46,
4.745,4.69,4.82,-0.27,0.25,1.51,-0.51,
4.747,4.69,4.82,-0.27,0.25,1.28,-0.54,
4.749,4.69,4.82,-0.27,0.23,1.05,-0.57,
4.75,4.69,4.82,-0.27,0.21,0.82,-0.60,
4.752,4.69,4.82,-0.27,0.18,0.60,-0.62,
4.755,4.29,4.49,-1.76,0.18,0.60,-0.62,
4.756,4.29,4.49,-1.76,0.15,0.38,-0.64,
4.757,4.29,4.49,-1.76,0.10,0.18,-0.65,
4.758,4.29,4.49,-1.76,0.06,-0.01,-0.66,
4.76,4.29,4.49,-1.76,0.01,-0.19,-0.66,
4.762,4.29,4.49,-1.76,-0.04,-0.35,-0.66,
4.765,3.52,4.44,-2.98,-0.04,-0.35,-0.66,
4.767,3.52,4.44,-2.98,-0.09,-0.50,-0.66,
4.767,3.52,4.44,-2.98,-0.14,-0.64,-0.65,
4.769,3.52,4.44,-2.98,-0.20,-0.75,-0.65,
4.77,3.52,4.44,-2.98,-0.26,-0.85,-0.64,
4.772,3.52,4.44,-2.98,-0.31,-0.93,-0.64,
4.775,3.22,4.30,-3.66,-0.31,-0.93,-0.64,
4.8,3.22,4.30,-3.66,-0.37,-1.00,-0.64,
4.801,3.22,4.30,-3.66,-0.42,-1.05,-0.64,
4.801,3.22,4.30,-3.66,-0.47,-1.10,-0.64,
4.801,3.22,4.30,-3.66,-0.51,-1.13,-0.65,
4.801,3.22,4.30,-3.66,-0.56,-1.15,-0.66,
4.802,2.82,4.14,-3.61,-0.56,-1.15,-0.66,
4.802,2.82,4.14,-3.61,-0.60,-1.16,-0.67,
4.802,2.82,4.14,-3.61,-0.64,-1.16,-0.68,
4.803,2.82,4.14,-3.61,-0.68,-1.16,-0.70,
4.803,2.82,4.14,-3.61,-0.72,-1.15,-0.71,
4.803,2.82,4.14,-3.61,-0.76,-1.14,-0.73,
4.804,2.40,3.91,-3.54,-0.76,-1.14,-0.73,
4.804,2.40,3.91,-3.54,-0.80,-1.13,-0.75,
4.804,2.40,3.91,-3.54,-0.84,-1.11,-0.77,
4.804,2.40,3.91,-3.54,-0.88,-1.10,-0.79,
4.805,2.40,3.91,-3.54,-0.93,-1.07,-0.83,
4.805,2.40,3.91,-3.54,-0.95,-1.06,-0.85,
4.805,1.91,3.85,-3.40,-0.95,-1.06,-0.85,
4.806,1.91,3.85,-3.40,-1.00,-1.05,-0.88,
4.853,1.91,3.85,-3.40,-1.04,-1.03,-0.91,
4.854,1.91,3.85,-3.40,-1.08,-1.02,-0.94,
4.855,1.91,3.85,-3.40,-1.13,-1.01,-0.97,
4.855,1.91,3.85,-3.40,-1.17,-1.00,-1.00,
4.855,1.52,3.72,-3.52,-1.17,-1.00,-1.00,
4.856,1.52,3.72,-3.52,-1.22,-0.99,-1.04,
4.856,1.52,3.72,-3.52,-1.26,-0.99,-1.07,
4.856,1.52,3.72,-3.52,-1.31,-0.99,-1.10,
4.857,1.52,3.72,-3.52,-1.36,-1.00,-1.14,
4.857,1.52,3.72,-3.52,-1.41,-1.00,-1.17,
4.857,1.01,3.62,-3.36,-1.41,-1.00,-1.17,
4.858,1.01,3.62,-3.36,-1.46,-1.01,-1.21,
4.858,1.01,3.62,-3.36,-1.51,-1.01,-1.25,
4.858,1.01,3.62,-3.36,-1.57,-1.03,-1.29,
4.859,1.01,3.62,-3.36,-1.63,-1.04,-1.33,
4.859,1.01,3.62,-3.36,-1.69,-1.05,-1.38,
4.859,0.73,3.40,-3.03,-1.69,-1.05,-1.38,
4.859,0.73,3.40,-3.03,-1.75,-1.06,-1.42,
4.86,0.73,3.40,-3.03,-1.81,-1.07,-1.47,
4.86,0.73,3.40,-3.03,-1.88,-1.08,-1.52,
4.86,0.73,3.40,-3.03,-1.95,-1.11,-1.58,
4.86,0.73,3.40,-3.03,-2.04,-1.14,-1.64,
4.86,0.62,2.94,-2.14,-2.04,-1.14,-1.64,
4.861,0.62,2.94,-2.14,-2.12,-1.17,-1.70,
4.861,0.62,2.94,-2.14,-2.21,-1.20,-1.76,
4.861,0.62,2.94,-2.14,-2.32,-1.23,-1.83,
4.861,0.62,2.94,-2.14,-2.42,-1.26,-1.89,
4.862,0.62,2.94,-2.14,-2.54,-1.28,-1.96,
4.862,0.56,2.01,-0.79,-2.54,-1.28,-1.96,
4.862,0.56,2.01,-0.79,-2.66,-1.31,-2.03,
4.862,0.56,2.01,-0.79,-2.80,-1.35,-2.10,
4.863,0.56,2.01,-0.79,-2.95,-1.39,-2.17,
4.863,0.56,2.01,-0.79,-3.10,-1.45,-2.24,
4.863,0.56,2.01,-0.79,-3.24,-1.51,-2.31,
4.867,0.37,0.39,2.27,-3.24,-1.51,-2.31,
4.867,0.37,0.39,2.27,-3.36,-1.57,-2.36,
4.867,0.37,0.39,2.27,-3.45,-1.63,-2.41,
4.869,0.37,0.39,2.27,-3.51,-1.69,-2.44,
4.87,0.37,0.39,2.27,-3.52,-1.74,-2.45,
4.872,0.37,0.39,2.27,-3.49,-1.81,-2.45,
4.875,-1.45,-1.76,10.98,-3.49,-1.81,-2.45,
4.875,-1.45,-1.76,10.98,-3.41,-1.88,-2.43,
4.876,-1.45,-1.76,10.98,-3.26,-1.98,-2.41,
4.878,-1.45,-1.76,10.98,-3.05,-2.12,-2.37,
4.887,-1.45,-1.76,10.98,-2.77,-2.30,-2.32,
4.888,-1.45,-1.76,10.98,-2.44,-2.49,-2.27,
4.888,-3.53,-4.85,24.48,-2.44,-2.49,-2.27,
4.888,-3.53,-4.85,24.48,-2.08,-2.69,-2.22,
4.889,-3.53,-4.85,24.48,-1.69,-2.88,-2.15,
4.889,-3.53,-4.85,24.48,-1.28,-3.04,-2.07,
4.893,-3.53,-4.85,24.48,-0.87,-3.17,-1.97,
4.893,-3.53,-4.85,24.48,-0.47,-3.26,-1.86,
4.897,-6.68,-9.05,30.55,-0.47,-3.26,-1.86,
4.898,-6.68,-9.05,30.55,-0.08,-3.31,-1.72,
4.898,-6.68,-9.05,30.55,0.27,-3.28,-1.56,
4.898,-6.68,-9.05,30.55,0.58,-3.19,-1.38,
4.927,-6.68,-9.05,30.55,0.83,-3.04,-1.17,
4.928,-6.68,-9.05,30.55,1.03,-2.82,-0.95,
4.928,-11.02,-11.42,23.66,1.03,-2.82,-0.95,
4.929,-11.02,-11.42,23.66,1.16,-2.53,-0.72,
4.929,-11.02,-11.42,23.66,1.24,-2.19,-0.48,
4.929,-11.02,-11.42,23.66,1.28,-1.81,-0.25,
4.93,-11.02,-11.42,23.66,1.29,-1.41,-0.01,
4.93,-11.02,-11.42,23.66,1.27,-0.98,0.21,
4.93,-12.71,-10.55,12.09,1.27,-0.98,0.21,
4.931,-12.71,-10.55,12.09,1.22,-0.55,0.41,
4.931,-12.71,-10.55,12.09,1.16,-0.11,0.60,
4.931,-12.71,-10.55,12.09,1.08,0.34,0.77,
4.931,-12.71,-10.55,12.09,0.99,0.78,0.91,
4.932,-10.48,-8.57,4.41,0.99,0.78,0.91,
4.932,-10.48,-8.57,4.41,0.83,1.61,1.12,
4.932,-10.48,-8.57,4.41,0.83,1.61,1.12,
4.932,-10.48,-8.57,4.41,0.75,1.98,1.18,
4.933,-10.48,-8.57,4.41,0.69,2.33,1.22,
4.933,-10.48,-8.57,4.41,0.64,2.64,1.25,
4.933,-10.48,-8.57,4.41,0.59,2.93,1.25,
4.939,-7.16,-6.22,2.12,0.59,2.93,1.25,
4.939,-7.16,-6.22,2.12,0.56,3.18,1.25,
4.94,-7.16,-6.22,2.12,0.54,3.41,1.23,
4.94,-7.16,-6.22,2.12,0.52,3.62,1.21,
4.943,-7.16,-6.22,2.12,0.51,3.81,1.18,
4.969,-7.16,-6.22,2.12,0.50,3.98,1.15,
4.969,-5.27,-3.39,0.48,0.50,3.98,1.15,
4.969,-5.27,-3.39,0.48,0.49,4.13,1.12,
4.969,-5.27,-3.39,0.48,0.49,4.26,1.08,
4.97,-5.27,-3.39,0.48,0.49,4.37,1.05,
4.97,-5.27,-3.39,0.48,0.51,4.46,1.02,
4.97,-5.27,-3.39,0.48,0.52,4.53,0.99,
4.97,-4.97,-1.27,-0.96,0.52,4.53,0.99,
4.971,-4.97,-1.27,-0.96,0.53,4.58,0.98,
4.971,-4.97,-1.27,-0.96,0.54,4.61,0.96,
4.971,-4.97,-1.27,-0.96,0.55,4.61,0.96,
4.971,-4.97,-1.27,-0.96,0.57,4.60,0.96,
4.972,-4.97,-1.27,-0.96,0.57,4.58,0.97,
4.972,-5.75,-0.51,-1.98,0.57,4.58,0.97,
4.972,-5.75,-0.51,-1.98,0.58,4.55,0.99,
4.973,-5.75,-0.51,-1.98,0.58,4.50,1.01,
