
time,ax,ay,az,wx,wy,wz,
0.043,-0.28,0.36,0.55,-0.47,-0.56,0.01,
0.044,-0.28,0.36,0.55,-0.47,-0.56,0.02,
0.044,-0.28,0.36,0.55,-0.47,-0.57,0.03,
0.044,-0.28,0.36,0.55,-0.49,-0.57,0.04,
0.044,-0.28,0.36,0.55,-0.49,-0.57,0.05,
0.045,-0.44,0.30,0.67,-0.49,-0.57,0.05,
0.045,-0.44,0.30,0.67,-0.49,-0.56,0.07,
0.045,-0.44,0.30,0.67,-0.49,-0.55,0.08,
0.046,-0.44,0.30,0.67,-0.49,-0.55,0.09,
0.046,-0.44,0.30,0.67,-0.50,-0.54,0.10,
0.046,-0.44,0.30,0.67,-0.50,-0.52,0.10,
0.046,-0.13,0.19,0.48,-0.50,-0.52,0.10,
0.047,-0.13,0.19,0.48,-0.50,-0.51,0.10,
0.047,-0.13,0.19,0.48,-0.50,-0.49,0.10,
0.047,-0.13,0.19,0.48,-0.50,-0.47,0.09,
0.047,-0.13,0.19,0.48,-0.51,-0.46,0.08,
0.048,-0.13,0.19,0.48,-0.50,-0.44,0.06,
0.048,0.50,-0.01,0.31,-0.50,-0.44,0.06,
0.048,0.50,-0.01,0.31,-0.50,-0.42,0.05,
0.048,0.50,-0.01,0.31,-0.50,-0.39,0.04,
0.049,0.50,-0.01,0.31,-0.50,-0.37,0.02,
0.049,0.50,-0.01,0.31,-0.50,-0.35,0.01,
0.049,0.50,-0.01,0.31,-0.50,-0.33,-0.00,
0.049,0.73,0.02,0.11,-0.50,-0.33,-0.00,
0.05,0.73,0.02,0.11,-0.49,-0.31,-0.01,
0.05,0.73,0.02,0.11,-0.49,-0.29,-0.02,
0.05,0.73,0.02,0.11,-0.49,-0.27,-0.03,
0.05,0.73,0.02,0.11,-0.48,-0.26,-0.04,
0.051,0.73,0.02,0.11,-0.48,-0.25,-0.06,
0.051,0.64,0.11,0.03,-0.48,-0.25,-0.06,
0.051,0.64,0.11,0.03,-0.47,-0.23,-0.07,
0.051,0.64,0.11,0.03,-0.47,-0.23,-0.07,
0.052,0.64,0.11,0.03,-0.46,-0.22,-0.08,
0.052,0.64,0.11,0.03,-0.46,-0.22,-0.09,
0.052,0.64,0.11,0.03,-0.45,-0.21,-0.10,
0.053,0.46,0.01,0.05,-0.45,-0.21,-0.10,
0.053,0.46,0.01,0.05,-0.44,-0.21,-0.11,
0.053,0.46,0.01,0.05,-0.43,-0.22,-0.12,
0.053,0.46,0.01,0.05,-0.42,-0.22,-0.13,
0.054,0.46,0.01,0.05,-0.41,-0.22,-0.14,
0.054,0.46,0.01,0.05,-0.41,-0.22,-0.16,
0.054,0.48,-0.09,0.04,-0.41,-0.22,-0.16,
0.054,0.48,-0.09,0.04,-0.40,-0.23,-0.17,
0.055,0.48,-0.09,0.04,-0.40,-0.23,-0.18,
0.055,0.48,-0.09,0.04,-0.40,-0.23,-0.19,
0.055,0.48,-0.09,0.04,-0.39,-0.24,-0.21,
0.056,0.48,-0.09,0.04,-0.39,-0.24,-0.22,
0.063,0.50,-0.08,-0.24,-0.39,-0.24,-0.22,
0.063,0.50,-0.08,-0.24,-0.39,-0.24,-0.23,
0.063,0.50,-0.08,-0.24,-0.39,-0.24,-0.23,
0.063,0.50,-0.08,-0.24,-0.40,-0.24,-0.24,
0.064,0.50,-0.08,-0.24,-0.41,-0.23,-0.24,
0.065,0.50,-0.08,-0.24,-0.42,-0.22,-0.25,
0.071,0.18,0.12,-0.72,-0.42,-0.22,-0.25,
0.071,0.18,0.12,-0.72,-0.42,-0.20,-0.25,
0.071,0.18,0.12,-0.72,-0.43,-0.17,-0.25,
0.072,0.18,0.12,-0.72,-0.44,-0.15,-0.25,
0.073,0.18,0.12,-0.72,-0.45,-0.12,-0.25,
0.075,0.18,0.12,-0.72,-0.45,-0.09,-0.25,
0.077,-0.21,0.37,-0.64,-0.45,-0.09,-0.25,
0.078,-0.21,0.37,-0.64,-0.45,-0.05,-0.24,
0.079,-0.21,0.37,-0.64,-0.45,-0.01,-0.23,
0.083,-0.21,0.37,-0.64,-0.43,0.02,-0.22,
0.084,-0.21,0.37,-0.64,-0.42,0.05,-0.20,
0.085,-0.21,0.37,-0.64,-0.41,0.08,-0.19,
0.088,-0.62,0.39,-0.21,-0.41,0.08,-0.19,
0.088,-0.62,0.39,-0.21,-0.40,0.10,-0.17,
0.088,-0.62,0.39,-0.21,-0.38,0.13,-0.15,
0.091,-0.62,0.39,-0.21,-0.37,0.17,-0.13,
0.093,-0.62,0.39,-0.21,-0.35,0.20,-0.10,
0.095,-0.62,0.39,-0.21,-0.33,0.23,-0.08,
0.097,-0.71,0.29,-0.16,-0.33,0.23,-0.08,
0.098,-0.71,0.29,-0.16,-0.32,0.26,-0.06,
0.099,-0.71,0.29,-0.16,-0.31,0.28,-0.04,
0.101,-0.71,0.29,-0.16,-0.30,0.30,-0.02,
0.104,-0.71,0.29,-0.16,-0.29,0.32,-0.01,
0.105,-0.71,0.29,-0.16,-0.28,0.34,0.01,
0.107,-0.32,0.25,-0.39,-0.28,0.34,0.01,
0.107,-0.32,0.25,-0.39,-0.28,0.35,0.01,
0.109,-0.32,0.25,-0.39,-0.28,0.37,0.02,
0.111,-0.32,0.25,-0.39,-0.28,0.38,0.02,
0.115,-0.32,0.25,-0.39,-0.28,0.39,0.01,
0.116,-0.32,0.25,-0.39,-0.29,0.40,0.01,
0.117,0.32,0.18,-0.76,-0.29,0.40,0.01,
0.117,0.32,0.18,-0.76,-0.29,0.41,0.00,
0.118,0.32,0.18,-0.76,-0.30,0.41,-0.01,
0.12,0.32,0.18,-0.76,-0.30,0.41,-0.02,
0.123,0.32,0.18,-0.76,-0.31,0.40,-0.03,
0.124,0.32,0.18,-0.76,-0.33,0.38,-0.05,
0.128,0.85,0.07,-0.91,-0.33,0.38,-0.05,
0.128,0.85,0.07,-0.91,-0.34,0.35,-0.07,
0.128,0.85,0.07,-0.91,-0.35,0.32,-0.09,
0.131,0.85,0.07,-0.91,-0.37,0.28,-0.10,
0.133,0.85,0.07,-0.91,-0.37,0.24,-0.12,
0.135,0.85,0.07,-0.91,-0.39,0.21,-0.14,
0.139,1.01,0.25,-0.70,-0.39,0.21,-0.14,
0.14,1.01,0.25,-0.70,-0.41,0.17,-0.16,
0.14,1.01,0.25,-0.70,-0.42,0.13,-0.18,
0.147,1.01,0.25,-0.70,-0.44,0.09,-0.20,
0.147,1.01,0.25,-0.70,-0.45,0.04,-0.22,
0.172,1.01,0.25,-0.70,-0.47,-0.00,-0.24,
0.172,0.90,0.10,-0.79,-0.47,-0.00,-0.24,
0.173,0.90,0.10,-0.79,-0.50,-0.10,-0.27,
0.173,0.90,0.10,-0.79,-0.50,-0.10,-0.27,
0.173,0.90,0.10,-0.79,-0.52,-0.15,-0.29,
0.173,0.90,0.10,-0.79,-0.53,-0.19,-0.30,
0.174,0.90,0.10,-0.79,-0.55,-0.23,-0.32,
0.174,0.85,-0.02,-0.97,-0.55,-0.23,-0.32,
0.174,0.85,-0.02,-0.97,-0.57,-0.27,-0.33,
0.174,0.85,-0.02,-0.97,-0.59,-0.31,-0.35,
0.175,0.85,-0.02,-0.97,-0.61,-0.35,-0.36,
0.175,0.85,-0.02,-0.97,-0.64,-0.38,-0.37,
0.175,0.85,-0.02,-0.97,-0.66,-0.41,-0.37,
0.175,0.52,-0.13,-1.25,-0.66,-0.41,-0.37,
0.176,0.52,-0.13,-1.25,-0.68,-0.44,-0.37,
0.176,0.52,-0.13,-1.25,-0.71,-0.47,-0.36,
0.176,0.52,-0.13,-1.25,-0.74,-0.50,-0.35,
0.177,0.52,-0.13,-1.25,-0.75,-0.52,-0.33,
0.177,0.52,-0.13,-1.25,-0.78,-0.54,-0.31,
0.177,-0.25,-0.27,-1.42,-0.78,-0.54,-0.31,
0.177,-0.25,-0.27,-1.42,-0.80,-0.55,-0.30,
0.182,-0.25,-0.27,-1.42,-0.82,-0.55,-0.28,
0.182,-0.25,-0.27,-1.42,-0.85,-0.56,-0.27,
0.21,-0.25,-0.27,-1.42,-0.86,-0.57,-0.24,
0.21,-0.25,-0.27,-1.42,-0.88,-0.58,-0.21,
0.211,-0.74,-0.27,-1.24,-0.88,-0.58,-0.21,
0.211,-0.74,-0.27,-1.24,-0.89,-0.59,-0.18,
0.211,-0.74,-0.27,-1.24,-0.89,-0.60,-0.14,
0.211,-0.74,-0.27,-1.24,-0.89,-0.61,-0.10,
0.211,-0.74,-0.27,-1.24,-0.88,-0.62,-0.04,
0.211,-0.74,-0.27,-1.24,-0.89,-0.64,0.00,
0.212,-1.24,-0.57,-0.78,-0.89,-0.64,0.00,
0.212,-1.24,-0.57,-0.78,-0.88,-0.66,0.05,
0.212,-1.24,-0.57,-0.78,-0.88,-0.67,0.08,
0.212,-1.24,-0.57,-0.78,-0.87,-0.68,0.10,
0.212,-1.24,-0.57,-0.78,-0.87,-0.67,0.11,
0.213,-1.24,-0.57,-0.78,-0.85,-0.66,0.11,
0.213,-0.18,0.19,-0.72,-0.85,-0.66,0.11,
0.213,-0.18,0.19,-0.72,-0.85,-0.65,0.11,
0.213,-0.18,0.19,-0.72,-0.84,-0.63,0.10,
0.213,-0.18,0.19,-0.72,-0.83,-0.60,0.08,
0.213,-0.18,0.19,-0.72,-0.83,-0.58,0.05,
0.215,-0.18,0.19,-0.72,-0.83,-0.55,0.03,
0.219,0.80,0.83,-0.69,-0.83,-0.55,0.03,
0.219,0.80,0.83,-0.69,-0.82,-0.51,0.00,
0.22,0.80,0.83,-0.69,-0.81,-0.48,-0.02,
0.221,0.80,0.83,-0.69,-0.80,-0.45,-0.05,
0.223,0.80,0.83,-0.69,-0.80,-0.42,-0.10,
0.225,0.80,0.83,-0.69,-0.79,-0.41,-0.12,
0.228,1.12,0.79,-0.69,-0.79,-0.41,-0.12,
0.228,1.12,0.79,-0.69,-0.78,-0.40,-0.14,
0.23,1.12,0.79,-0.69,-0.77,-0.39,-0.17,
0.231,1.12,0.79,-0.69,-0.77,-0.38,-0.20,
0.233,1.12,0.79,-0.69,-0.76,-0.38,-0.22,
0.235,1.12,0.79,-0.69,-0.75,-0.39,-0.24,
0.237,1.03,0.27,-0.84,-0.75,-0.39,-0.24,
0.237,1.03,0.27,-0.84,-0.75,-0.40,-0.26,
0.238,1.03,0.27,-0.84,-0.74,-0.41,-0.28,
0.24,1.03,0.27,-0.84,-0.74,-0.42,-0.29,
0.242,1.03,0.27,-0.84,-0.74,-0.44,-0.31,
0.245,1.03,0.27,-0.84,-0.73,-0.46,-0.32,
0.248,0.74,-0.22,-1.04,-0.73,-0.46,-0.32,
0.248,0.74,-0.22,-1.04,-0.73,-0.47,-0.33,
0.248,0.74,-0.22,-1.04,-0.73,-0.49,-0.34,
0.251,0.74,-0.22,-1.04,-0.73,-0.50,-0.34,
0.253,0.74,-0.22,-1.04,-0.74,-0.51,-0.35,
0.256,0.74,-0.22,-1.04,-0.74,-0.51,-0.35,
0.257,0.04,-0.35,-1.20,-0.74,-0.51,-0.35,
0.257,0.04,-0.35,-1.20,-0.75,-0.52,-0.34,
0.259,0.04,-0.35,-1.20,-0.75,-0.53,-0.34,
0.261,0.04,-0.35,-1.20,-0.76,-0.54,-0.32,
0.265,0.04,-0.35,-1.20,-0.77,-0.55,-0.31,
0.265,0.04,-0.35,-1.20,-0.78,-0.56,-0.29,
0.267,-0.77,-0.29,-1.06,-0.78,-0.56,-0.29,
0.268,-0.77,-0.29,-1.06,-0.79,-0.57,-0.28,
0.269,-0.77,-0.29,-1.06,-0.80,-0.60,-0.26,
0.27,-0.77,-0.29,-1.06,-0.81,-0.62,-0.24,
0.273,-0.77,-0.29,-1.06,-0.81,-0.65,-0.22,
0.274,-0.77,-0.29,-1.06,-0.83,-0.69,-0.20,
0.277,-0.89,-0.15,-0.95,-0.83,-0.69,-0.20,
0.277,-0.89,-0.15,-0.95,-0.83,-0.74,-0.19,
0.28,-0.89,-0.15,-0.95,-0.84,-0.81,-0.18,
0.281,-0.89,-0.15,-0.95,-0.85,-0.87,-0.18,
0.283,-0.89,-0.15,-0.95,-0.86,-0.93,-0.19,
0.285,-0.89,-0.15,-0.95,-0.87,-0.99,-0.20,
0.287,-0.08,-0.11,-1.20,-0.87,-0.99,-0.20,
0.287,-0.08,-0.11,-1.20,-0.88,-1.05,-0.23,
0.289,-0.08,-0.11,-1.20,-0.89,-1.11,-0.26,
0.291,-0.08,-0.11,-1.20,-0.90,-1.16,-0.29,
0.292,-0.08,-0.11,-1.20,-0.92,-1.20,-0.33,
0.295,-0.08,-0.11,-1.20,-0.94,-1.23,-0.38,
0.299,0.57,-0.45,-1.52,-0.94,-1.23,-0.38,
0.3,0.57,-0.45,-1.52,-0.96,-1.26,-0.43,
0.3,0.57,-0.45,-1.52,-0.98,-1.27,-0.47,
0.3,0.57,-0.45,-1.52,-1.00,-1.28,-0.51,
0.303,0.57,-0.45,-1.52,-1.02,-1.29,-0.56,
0.305,0.57,-0.45,-1.52,-1.04,-1.29,-0.60,
0.309,0.66,-0.67,-1.67,-1.04,-1.29,-0.60,
0.31,0.66,-0.67,-1.67,-1.06,-1.28,-0.63,
0.31,0.66,-0.67,-1.67,-1.08,-1.27,-0.66,
0.338,0.66,-0.67,-1.67,-1.10,-1.25,-0.69,
0.338,0.66,-0.67,-1.67,-1.11,-1.24,-0.71,
0.338,0.66,-0.67,-1.67,-1.13,-1.22,-0.72,
0.339,0.00,-0.66,-1.68,-1.13,-1.22,-0.72,
0.339,0.00,-0.66,-1.68,-1.14,-1.20,-0.73,
0.339,0.00,-0.66,-1.68,-1.14,-1.18,-0.73,
0.34,0.00,-0.66,-1.68,-1.15,-1.17,-0.73,
0.34,0.00,-0.66,-1.68,-1.15,-1.15,-0.73,
0.34,0.00,-0.66,-1.68,-1.16,-1.14,-0.72,
0.341,-0.71,-0.48,-1.67,-1.16,-1.14,-0.72,
0.341,-0.71,-0.48,-1.67,-1.16,-1.12,-0.71,
0.341,-0.71,-0.48,-1.67,-1.16,-1.10,-0.70,
0.341,-0.71,-0.48,-1.67,-1.15,-1.08,-0.69,
0.342,-0.71,-0.48,-1.67,-1.15,-1.06,-0.68,
0.342,-0.71,-0.48,-1.67,-1.15,-1.05,-0.67,
0.342,-1.06,-0.40,-1.74,-1.15,-1.05,-0.67,
0.343,-1.06,-0.40,-1.74,-1.15,-1.04,-0.67,
0.343,-1.06,-0.40,-1.74,-1.16,-1.03,-0.67,
0.343,-1.06,-0.40,-1.74,-1.16,-1.03,-0.66,
0.343,-1.06,-0.40,-1.74,-1.18,-1.04,-0.65,
0.385,-1.06,-0.40,-1.74,-1.19,-1.05,-0.65,
0.386,-0.97,-0.32,-2.17,-1.19,-1.05,-0.65,
0.386,-0.97,-0.32,-2.17,-1.20,-1.06,-0.65,
0.386,-0.97,-0.32,-2.17,-1.22,-1.07,-0.65,
0.386,-0.97,-0.32,-2.17,-1.24,-1.08,-0.65,
0.387,-0.97,-0.32,-2.17,-1.26,-1.09,-0.65,
0.387,-0.97,-0.32,-2.17,-1.28,-1.10,-0.64,
0.387,-0.90,-0.35,-2.84,-1.28,-1.10,-0.64,
0.387,-0.90,-0.35,-2.84,-1.30,-1.10,-0.64,
0.388,-0.90,-0.35,-2.84,-1.33,-1.10,-0.65,
0.388,-0.90,-0.35,-2.84,-1.36,-1.10,-0.65,
0.388,-0.90,-0.35,-2.84,-1.39,-1.08,-0.66,
0.388,-0.90,-0.35,-2.84,-1.44,-1.05,-0.70,
0.389,-0.06,-1.26,-3.99,-1.44,-1.05,-0.70,
0.389,-0.06,-1.26,-3.99,-1.49,-1.05,-0.73,
0.389,-0.06,-1.26,-3.99,-1.53,-1.06,-0.76,
0.389,-0.06,-1.26,-3.99,-1.56,-1.08,-0.78,
0.39,-0.06,-1.26,-3.99,-1.58,-1.10,-0.79,
0.39,-0.06,-1.26,-3.99,-1.61,-1.11,-0.79,
0.39,-0.10,-1.08,-3.53,-1.61,-1.11,-0.79,
0.39,-0.10,-1.08,-3.53,-1.64,-1.10,-0.80,
0.391,-0.10,-1.08,-3.53,-1.68,-1.08,-0.80,
0.391,-0.10,-1.08,-3.53,-1.71,-1.05,-0.81,
0.391,-0.10,-1.08,-3.53,-1.74,-1.01,-0.81,
0.391,-0.10,-1.08,-3.53,-1.76,-0.96,-0.81,
0.392,-0.55,-0.52,-3.44,-1.76,-0.96,-0.81,
0.392,-0.55,-0.52,-3.44,-1.78,-0.91,-0.82,
0.392,-0.55,-0.52,-3.44,-1.80,-0.86,-0.82,
0.393,-0.55,-0.52,-3.44,-1.82,-0.82,-0.82,
0.393,-0.55,-0.52,-3.44,-1.83,-0.78,-0.82,
0.395,-0.55,-0.52,-3.44,-1.84,-0.75,-0.81,
0.398,-1.03,-0.41,-3.30,-1.84,-0.75,-0.81,
0.398,-1.03,-0.41,-3.30,-1.85,-0.72,-0.80,
0.399,-1.03,-0.41,-3.30,-1.86,-0.70,-0.79,
0.401,-1.03,-0.41,-3.30,-1.87,-0.70,-0.78,
0.403,-1.03,-0.41,-3.30,-1.88,-0.70,-0.76,
0.405,-1.03,-0.41,-3.30,-1.90,-0.71,-0.74,
0.407,-1.29,-0.50,-3.02,-1.90,-0.71,-0.74,
0.408,-1.29,-0.50,-3.02,-1.90,-0.72,-0.73,
0.41,-1.29,-0.50,-3.02,-1.92,-0.74,-0.71,
0.411,-1.29,-0.50,-3.02,-1.93,-0.76,-0.69,
0.414,-1.29,-0.50,-3.02,-1.94,-0.78,-0.67,
0.416,-1.29,-0.50,-3.02,-1.95,-0.79,-0.66,
0.417,-1.35,-0.76,-2.81,-1.95,-0.79,-0.66,
0.417,-1.35,-0.76,-2.81,-1.97,-0.79,-0.64,
0.419,-1.35,-0.76,-2.81,-1.97,-0.78,-0.63,
0.421,-1.35,-0.76,-2.81,-1.97,-0.77,-0.61,
0.423,-1.35,-0.76,-2.81,-1.98,-0.76,-0.59,
0.425,-1.35,-0.76,-2.81,-1.99,-0.74,-0.58,
0.427,-1.29,-0.84,-2.46,-1.99,-0.74,-0.58,
0.427,-1.29,-0.84,-2.46,-1.99,-0.71,-0.56,
0.429,-1.29,-0.84,-2.46,-1.99,-0.68,-0.54,
0.431,-1.29,-0.84,-2.46,-1.98,-0.64,-0.52,
0.432,-1.29,-0.84,-2.46,-1.98,-0.60,-0.49,
0.434,-1.29,-0.84,-2.46,-1.97,-0.56,-0.47,
0.437,-1.32,-0.66,-1.90,-1.97,-0.56,-0.47,
0.437,-1.32,-0.66,-1.90,-1.95,-0.53,-0.45,
0.439,-1.32,-0.66,-1.90,-1.94,-0.49,-0.42,
0.44,-1.32,-0.66,-1.90,-1.92,-0.45,-0.39,
0.442,-1.32,-0.66,-1.90,-1.90,-0.41,-0.37,
0.445,-1.32,-0.66,-1.90,-1.88,-0.37,-0.34,
0.447,-1.29,-0.70,-1.39,-1.88,-0.37,-0.34,
0.447,-1.29,-0.70,-1.39,-1.86,-0.34,-0.32,
0.449,-1.29,-0.70,-1.39,-1.83,-0.30,-0.30,
0.451,-1.29,-0.70,-1.39,-1.80,-0.27,-0.27,
0.453,-1.29,-0.70,-1.39,-1.78,-0.24,-0.25,
0.455,-1.29,-0.70,-1.39,-1.75,-0.22,-0.23,
0.457,-1.05,-1.09,-1.11,-1.75,-0.22,-0.23,
0.457,-1.05,-1.09,-1.11,-1.73,-0.19,-0.22,
0.459,-1.05,-1.09,-1.11,-1.70,-0.17,-0.20,
0.462,-1.05,-1.09,-1.11,-1.68,-0.15,-0.20,
0.463,-1.05,-1.09,-1.11,-1.66,-0.13,-0.19,
0.465,-1.05,-1.09,-1.11,-1.65,-0.11,-0.19,
0.468,-0.34,-1.25,-1.19,-1.65,-0.11,-0.19,
0.469,-0.34,-1.25,-1.19,-1.63,-0.09,-0.19,
0.469,-0.34,-1.25,-1.19,-1.63,-0.07,-0.20,
0.471,-0.34,-1.25,-1.19,-1.63,-0.06,-0.21,
0.473,-0.34,-1.25,-1.19,-1.62,-0.04,-0.22,
0.475,-0.34,-1.25,-1.19,-1.62,-0.02,-0.23,
0.477,0.16,-1.41,-1.49,-1.62,-0.02,-0.23,
0.501,0.16,-1.41,-1.49,-1.62,-0.01,-0.24,
0.501,0.16,-1.41,-1.49,-1.62,0.01,-0.25,
0.502,0.16,-1.41,-1.49,-1.63,0.02,-0.26,
0.502,0.16,-1.41,-1.49,-1.64,0.03,-0.27,
0.502,0.16,-1.41,-1.49,-1.65,0.05,-0.28,
0.503,0.31,-1.54,-1.85,-1.65,0.05,-0.28,
0.503,0.31,-1.54,-1.85,-1.66,0.06,-0.28,
0.503,0.31,-1.54,-1.85,-1.67,0.08,-0.29,
0.503,0.31,-1.54,-1.85,-1.69,0.09,-0.30,
0.504,0.31,-1.54,-1.85,-1.70,0.10,-0.30,
0.504,0.31,-1.54,-1.85,-1.72,0.11,-0.31,
0.504,0.37,-1.72,-2.15,-1.72,0.11,-0.31,
0.504,0.37,-1.72,-2.15,-1.74,0.12,-0.32,
0.505,0.37,-1.72,-2.15,-1.76,0.13,-0.33,
0.505,0.37,-1.72,-2.15,-1.77,0.13,-0.34,
0.505,0.37,-1.72,-2.15,-1.80,0.14,-0.35,
0.506,0.37,-1.72,-2.15,-1.82,0.15,-0.37,
0.507,0.32,-1.88,-2.39,-1.82,0.15,-0.37,
0.508,0.32,-1.88,-2.39,-1.84,0.16,-0.38,
0.533,0.32,-1.88,-2.39,-1.87,0.17,-0.39,
0.534,0.32,-1.88,-2.39,-1.89,0.18,-0.40,
0.534,0.32,-1.88,-2.39,-1.91,0.19,-0.41,
0.534,0.32,-1.88,-2.39,-1.94,0.20,-0.41,
0.534,0.32,-2.14,-2.61,-1.94,0.20,-0.41,
0.534,0.32,-2.14,-2.61,-1.97,0.22,-0.42,
0.535,0.32,-2.14,-2.61,-2.00,0.23,-0.43,
0.535,0.32,-2.14,-2.61,-2.02,0.25,-0.43,
0.535,0.32,-2.14,-2.61,-2.07,0.26,-0.43,
0.535,0.32,-2.14,-2.61,-2.10,0.27,-0.43,
0.535,-0.22,-2.05,-2.68,-2.10,0.27,-0.43,
0.535,-0.22,-2.05,-2.68,-2.14,0.29,-0.42,
0.536,-0.22,-2.05,-2.68,-2.18,0.31,-0.42,
0.536,-0.22,-2.05,-2.68,-2.21,0.33,-0.40,
0.536,-0.22,-2.05,-2.68,-2.25,0.34,-0.39,
0.536,-0.22,-2.05,-2.68,-2.29,0.36,-0.37,
0.538,-1.33,-2.17,-2.84,-2.29,0.36,-0.37,
0.538,-1.33,-2.17,-2.84,-2.34,0.38,-0.34,
0.538,-1.33,-2.17,-2.84,-2.38,0.40,-0.31,
0.541,-1.33,-2.17,-2.84,-2.43,0.42,-0.28,
0.543,-1.33,-2.17,-2.84,-2.48,0.45,-0.24,
0.547,-1.33,-2.17,-2.84,-2.53,0.47,-0.20,
0.547,-1.95,-2.38,-2.91,-2.53,0.47,-0.20,
0.547,-1.95,-2.38,-2.91,-2.58,0.49,-0.16,
0.549,-1.95,-2.38,-2.91,-2.64,0.51,-0.11,
0.553,-1.95,-2.38,-2.91,-2.69,0.53,-0.07,
0.553,-1.95,-2.38,-2.91,-2.75,0.56,-0.03,
0.554,-1.95,-2.38,-2.91,-2.81,0.59,0.01,
0.558,-2.07,-2.67,-2.45,-2.81,0.59,0.01,
0.559,-2.07,-2.67,-2.45,-2.86,0.61,0.05,
0.559,-2.07,-2.67,-2.45,-2.91,0.64,0.09,
0.569,-2.07,-2.67,-2.45,-2.96,0.66,0.13,
0.57,-2.07,-2.67,-2.45,-2.98,0.68,0.18,
0.57,-2.07,-2.67,-2.45,-3.02,0.69,0.21,
0.57,-2.01,-2.93,-1.03,-3.02,0.69,0.21,
0.57,-2.01,-2.93,-1.03,-3.04,0.70,0.25,
0.57,-2.01,-2.93,-1.03,-3.06,0.70,0.28,
0.57,-2.01,-2.93,-1.03,-3.07,0.70,0.31,
0.573,-2.01,-2.93,-1.03,-3.08,0.68,0.35,
0.574,-2.01,-2.93,-1.03,-3.08,0.67,0.36,
0.58,-1.35,-3.24,0.57,-3.08,0.67,0.36,
0.58,-1.35,-3.24,0.57,-3.08,0.66,0.38,
0.58,-1.35,-3.24,0.57,-3.07,0.64,0.39,
0.581,-1.35,-3.24,0.57,-3.06,0.62,0.40,
0.582,-1.35,-3.24,0.57,-3.05,0.60,0.40,
0.584,-1.35,-3.24,0.57,-3.03,0.59,0.40,
0.587,-0.27,-3.46,1.85,-3.03,0.59,0.40,
0.587,-0.27,-3.46,1.85,-3.02,0.57,0.39,
0.589,-0.27,-3.46,1.85,-3.00,0.55,0.38,
0.59,-0.27,-3.46,1.85,-2.97,0.53,0.36,
0.592,-0.27,-3.46,1.85,-2.95,0.51,0.34,
0.594,-0.27,-3.46,1.85,-2.93,0.49,0.32,
0.597,0.64,-3.59,2.57,-2.93,0.49,0.32,
0.598,0.64,-3.59,2.57,-2.90,0.47,0.29,
0.598,0.64,-3.59,2.57,-2.87,0.45,0.27,
0.6,0.64,-3.59,2.57,-2.85,0.44,0.24,
0.603,0.64,-3.59,2.57,-2.83,0.43,0.22,
0.605,0.64,-3.59,2.57,-2.80,0.42,0.19,
0.607,1.09,-3.51,2.78,-2.80,0.42,0.19,
0.608,1.09,-3.51,2.78,-2.77,0.42,0.17,
0.609,1.09,-3.51,2.78,-2.75,0.42,0.15,
0.611,1.09,-3.51,2.78,-2.73,0.41,0.12,
0.613,1.09,-3.51,2.78,-2.73,0.40,0.08,
0.615,1.09,-3.51,2.78,-2.71,0.39,0.04,
0.617,1.63,-3.56,2.59,-2.71,0.39,0.04,
0.618,1.63,-3.56,2.59,-2.69,0.40,0.00,
0.619,1.63,-3.56,2.59,-2.67,0.41,-0.04,
0.621,1.63,-3.56,2.59,-2.66,0.43,-0.08,
0.623,1.63,-3.56,2.59,-2.63,0.45,-0.12,
0.626,1.63,-3.56,2.59,-2.61,0.46,-0.16,
0.629,1.50,-3.19,2.68,-2.61,0.46,-0.16,
0.629,1.50,-3.19,2.68,-2.59,0.48,-0.20,
0.63,1.50,-3.19,2.68,-2.56,0.49,-0.23,
0.631,1.50,-3.19,2.68,-2.53,0.50,-0.26,
0.633,1.50,-3.19,2.68,-2.51,0.52,-0.30,
0.636,1.50,-3.19,2.68,-2.47,0.53,-0.32,
0.639,0.93,-2.53,2.87,-2.47,0.53,-0.32,
0.64,0.93,-2.53,2.87,-2.44,0.53,-0.35,
0.64,0.93,-2.53,2.87,-2.41,0.54,-0.37,
0.641,0.93,-2.53,2.87,-2.39,0.55,-0.39,
0.643,0.93,-2.53,2.87,-2.37,0.56,-0.40,
0.675,0.93,-2.53,2.87,-2.34,0.57,-0.42,
0.676,0.35,-1.84,2.89,-2.34,0.57,-0.42,
0.676,0.35,-1.84,2.89,-2.31,0.58,-0.42,
0.676,0.35,-1.84,2.89,-2.29,0.58,-0.43,
0.677,0.35,-1.84,2.89,-2.28,0.57,-0.44,
0.677,0.35,-1.84,2.89,-2.26,0.56,-0.44,
0.677,0.35,-1.84,2.89,-2.25,0.54,-0.45,
0.677,0.17,-1.56,2.93,-2.25,0.54,-0.45,
0.678,0.17,-1.56,2.93,-2.24,0.52,-0.46,
0.678,0.17,-1.56,2.93,-2.24,0.49,-0.48,
0.678,0.17,-1.56,2.93,-2.23,0.47,-0.49,
0.679,0.17,-1.56,2.93,-2.22,0.44,-0.51,
0.679,0.17,-1.56,2.93,-2.21,0.41,-0.52,
0.679,0.51,-1.27,3.16,-2.21,0.41,-0.52,
0.679,0.51,-1.27,3.16,-2.20,0.37,-0.54,
0.68,0.51,-1.27,3.16,-2.19,0.34,-0.56,
0.68,0.51,-1.27,3.16,-2.18,0.29,-0.58,
0.68,0.51,-1.27,3.16,-2.18,0.27,-0.59,
0.681,0.51,-1.27,3.16,-2.17,0.24,-0.60,
0.681,0.43,-0.87,3.43,-2.17,0.24,-0.60,
0.681,0.43,-0.87,3.43,-2.16,0.21,-0.60,
0.72,0.43,-0.87,3.43,-2.15,0.18,-0.61,
0.721,0.43,-0.87,3.43,-2.15,0.16,-0.61,
0.721,0.43,-0.87,3.43,-2.14,0.13,-0.61,
0.721,0.43,-0.87,3.43,-2.13,0.10,-0.61,
0.722,0.20,-0.55,3.67,-2.13,0.10,-0.61,
0.722,0.20,-0.55,3.67,-2.13,0.07,-0.60,
0.722,0.20,-0.55,3.67,-2.12,0.05,-0.59,
0.722,0.20,-0.55,3.67,-2.11,0.01,-0.58,
0.723,0.20,-0.55,3.67,-2.10,-0.00,-0.58,
0.723,0.20,-0.55,3.67,-2.08,-0.03,-0.56,
0.723,0.36,-0.03,4.12,-2.08,-0.03,-0.56,
0.723,0.36,-0.03,4.12,-2.07,-0.05,-0.56,
0.724,0.36,-0.03,4.12,-2.05,-0.09,-0.55,
0.724,0.36,-0.03,4.12,-2.03,-0.12,-0.54,
0.724,0.36,-0.03,4.12,-2.02,-0.13,-0.54,
0.724,0.36,-0.03,4.12,-2.00,-0.16,-0.54,
0.725,0.95,0.12,4.39,-2.00,-0.16,-0.54,
0.725,0.95,0.12,4.39,-1.99,-0.20,-0.54,
0.725,0.95,0.12,4.39,-1.98,-0.24,-0.55,
0.725,0.95,0.12,4.39,-1.96,-0.28,-0.56,
0.726,0.95,0.12,4.39,-1.95,-0.32,-0.57,
0.726,0.95,0.12,4.39,-1.95,-0.36,-0.58,
0.726,1.93,0.33,4.51,-1.95,-0.36,-0.58,
0.726,1.93,0.33,4.51,-1.94,-0.41,-0.60,
0.73,1.93,0.33,4.51,-1.93,-0.44,-0.62,
0.73,1.93,0.33,4.51,-1.93,-0.49,-0.64,
0.73,1.93,0.33,4.51,-1.92,-0.51,-0.64,
0.73,1.93,0.33,4.51,-1.91,-0.55,-0.66,
0.731,2.29,0.48,4.66,-1.91,-0.55,-0.66,
0.731,2.29,0.48,4.66,-1.91,-0.58,-0.67,
0.731,2.29,0.48,4.66,-1.90,-0.61,-0.68,
0.746,2.29,0.48,4.66,-1.89,-0.64,-0.69,
0.746,2.29,0.48,4.66,-1.89,-0.67,-0.70,
0.746,2.29,0.48,4.66,-1.88,-0.71,-0.70,
0.746,2.44,0.58,5.04,-1.88,-0.71,-0.70,
0.746,2.44,0.58,5.04,-1.87,-0.74,-0.71,
0.747,2.44,0.58,5.04,-1.86,-0.77,-0.71,
0.747,2.44,0.58,5.04,-1.83,-0.82,-0.71,
0.747,2.44,0.58,5.04,-1.83,-0.83,-0.70,
0.747,2.44,0.58,5.04,-1.79,-0.88,-0.69,
0.748,2.39,0.64,5.50,-1.79,-0.88,-0.69,
0.748,2.39,0.64,5.50,-1.77,-0.91,-0.68,
0.751,2.39,0.64,5.50,-1.75,-0.93,-0.67,
0.752,2.39,0.64,5.50,-1.70,-0.96,-0.66,
0.754,2.39,0.64,5.50,-1.68,-0.97,-0.66,
0.755,2.39,0.64,5.50,-1.62,-0.99,-0.65,
0.758,2.66,0.59,6.09,-1.62,-0.99,-0.65,
0.759,2.66,0.59,6.09,-1.57,-0.99,-0.65,
0.759,2.66,0.59,6.09,-1.54,-0.99,-0.65,
0.761,2.66,0.59,6.09,-1.47,-1.00,-0.65,
0.763,2.66,0.59,6.09,-1.42,-1.00,-0.66,
0.766,2.66,0.59,6.09,-1.37,-1.00,-0.66,
0.771,2.96,0.45,6.19,-1.37,-1.00,-0.66,
0.772,2.96,0.45,6.19,-1.32,-0.99,-0.67,
0.772,2.96,0.45,6.19,-1.29,-0.99,-0.67,
0.772,2.96,0.45,6.19,-1.21,-0.99,-0.67,
0.775,2.96,0.45,6.19,-1.19,-0.99,-0.67,
0.776,2.96,0.45,6.19,-1.12,-1.00,-0.67,
0.783,3.26,0.50,5.87,-1.12,-1.00,-0.67,
0.783,3.26,0.50,5.87,-1.08,-1.02,-0.68,
0.783,3.26,0.50,5.87,-1.05,-1.04,-0.68,
0.784,3.26,0.50,5.87,-1.02,-1.07,-0.69,
0.784,3.26,0.50,5.87,-1.00,-1.09,-0.70,
0.788,3.26,0.50,5.87,-0.98,-1.13,-0.72,
0.788,3.74,0.16,4.95,-0.98,-1.13,-0.72,
0.788,3.74,0.16,4.95,-0.97,-1.16,-0.74,
0.789,3.74,0.16,4.95,-0.96,-1.19,-0.76,
0.793,3.74,0.16,4.95,-0.95,-1.22,-0.78,
0.793,3.74,0.16,4.95,-0.95,-1.25,-0.81,
0.806,3.74,0.16,4.95,-0.96,-1.27,-0.83,
0.807,4.33,0.05,4.06,-0.96,-1.27,-0.83,
0.807,4.33,0.05,4.06,-0.96,-1.28,-0.86,
0.807,4.33,0.05,4.06,-0.97,-1.29,-0.89,
0.808,4.33,0.05,4.06,-0.97,-1.30,-0.91,
0.808,4.33,0.05,4.06,-0.98,-1.30,-0.93,
0.808,4.33,0.05,4.06,-0.99,-1.30,-0.95,
0.808,4.09,-0.01,3.38,-0.99,-1.30,-0.95,
0.808,4.09,-0.01,3.38,-0.99,-1.29,-0.97,
0.808,4.09,-0.01,3.38,-1.00,-1.28,-0.98,
0.831,4.09,-0.01,3.38,-1.00,-1.27,-1.00,
0.832,4.09,-0.01,3.38,-1.00,-1.25,-1.01,
0.832,4.09,-0.01,3.38,-1.00,-1.22,-1.02,
0.832,3.76,0.02,3.29,-1.00,-1.22,-1.02,
0.832,3.76,0.02,3.29,-1.00,-1.19,-1.02,
0.833,3.76,0.02,3.29,-0.99,-1.15,-1.03,
0.833,3.76,0.02,3.29,-0.99,-1.11,-1.03,
0.833,3.76,0.02,3.29,-0.98,-1.05,-1.03,
0.834,3.76,0.02,3.29,-0.97,-1.00,-1.03,
0.834,3.27,0.08,3.66,-0.97,-1.00,-1.03,
0.834,3.27,0.08,3.66,-0.96,-0.95,-1.02,
0.834,3.27,0.08,3.66,-0.94,-0.90,-1.01,
0.835,3.27,0.08,3.66,-0.91,-0.86,-1.00,
0.835,3.27,0.08,3.66,-0.90,-0.82,-0.99,
0.835,3.27,0.08,3.66,-0.88,-0.78,-0.99,
0.864,3.05,-0.08,4.28,-0.88,-0.78,-0.99,
0.864,3.05,-0.08,4.28,-0.85,-0.74,-0.98,
0.865,3.05,-0.08,4.28,-0.83,-0.71,-0.98,
0.865,3.05,-0.08,4.28,-0.81,-0.67,-0.98,
0.865,3.05,-0.08,4.28,-0.79,-0.63,-0.99,
0.866,3.05,-0.08,4.28,-0.76,-0.59,-0.99,
0.866,3.47,-0.36,4.54,-0.76,-0.59,-0.99,
0.866,3.47,-0.36,4.54,-0.74,-0.55,-1.01,
0.868,3.47,-0.36,4.54,-0.71,-0.51,-1.02,
0.868,3.47,-0.36,4.54,-0.68,-0.46,-1.04,
0.868,3.47,-0.36,4.54,-0.65,-0.43,-1.07,
0.868,3.47,-0.36,4.54,-0.62,-0.39,-1.09,
0.868,3.87,-0.55,4.86,-0.62,-0.39,-1.09,
0.868,3.87,-0.55,4.86,-0.59,-0.35,-1.12,
0.869,3.87,-0.55,4.86,-0.56,-0.32,-1.14,
0.871,3.87,-0.55,4.86,-0.52,-0.29,-1.17,
0.871,3.87,-0.55,4.86,-0.48,-0.26,-1.19,
0.871,3.87,-0.55,4.86,-0.43,-0.24,-1.22,
0.871,3.71,-0.74,5.01,-0.43,-0.24,-1.22,
0.871,3.71,-0.74,5.01,-0.39,-0.21,-1.25,
0.872,3.71,-0.74,5.01,-0.34,-0.19,-1.27,
0.872,3.71,-0.74,5.01,-0.30,-0.17,-1.30,
0.873,3.71,-0.74,5.01,-0.25,-0.15,-1.32,
0.874,3.71,-0.74,5.01,-0.20,-0.13,-1.35,
0.877,3.27,-0.78,5.12,-0.20,-0.13,-1.35,
0.877,3.27,-0.78,5.12,-0.15,-0.12,-1.37,
0.879,3.27,-0.78,5.12,-0.09,-0.12,-1.40,
0.881,3.27,-0.78,5.12,-0.04,-0.12,-1.42,
0.883,3.27,-0.78,5.12,0.01,-0.12,-1.44,
0.885,3.27,-0.78,5.12,0.06,-0.14,-1.45,
0.887,2.50,-0.79,4.80,0.06,-0.14,-1.45,
0.887,2.50,-0.79,4.80,0.11,-0.15,-1.47,
0.889,2.50,-0.79,4.80,0.15,-0.18,-1.48,
0.891,2.50,-0.79,4.80,0.18,-0.21,-1.49,
0.894,2.50,-0.79,4.80,0.22,-0.24,-1.50,
0.896,2.50,-0.79,4.80,0.24,-0.28,-1.51,
0.897,1.83,-0.67,3.63,0.24,-0.28,-1.51,
0.898,1.83,-0.67,3.63,0.26,-0.31,-1.52,
0.898,1.83,-0.67,3.63,0.27,-0.35,-1.52,
0.904,1.83,-0.67,3.63,0.28,-0.38,-1.53,
0.904,1.83,-0.67,3.63,0.28,-0.41,-1.54,
0.908,1.83,-0.67,3.63,0.28,-0.44,-1.54,
0.908,1.21,-0.40,2.10,0.28,-0.44,-1.54,
0.908,1.21,-0.40,2.10,0.27,-0.47,-1.55,
0.913,1.21,-0.40,2.10,0.26,-0.49,-1.55,
0.913,1.21,-0.40,2.10,0.24,-0.52,-1.55,
0.913,1.21,-0.40,2.10,0.22,-0.54,-1.55,
0.917,1.21,-0.40,2.10,0.20,-0.56,-1.54,
0.917,0.53,0.12,0.60,0.20,-0.56,-1.54,
0.918,0.53,0.12,0.60,0.17,-0.57,-1.53,
0.921,0.53,0.12,0.60,0.14,-0.58,-1.52,
0.921,0.53,0.12,0.60,0.11,-0.58,-1.50,
0.925,0.53,0.12,0.60,0.08,-0.58,-1.48,
0.925,0.53,0.12,0.60,0.04,-0.59,-1.45,
0.93,-0.67,0.78,-0.69,0.04,-0.59,-1.45,
0.93,-0.67,0.78,-0.69,-0.00,-0.59,-1.42,
0.931,-0.67,0.78,-0.69,-0.04,-0.59,-1.38,
0.931,-0.67,0.78,-0.69,-0.08,-0.59,-1.34,
0.935,-0.67,0.78,-0.69,-0.12,-0.59,-1.30,
0.935,-0.67,0.78,-0.69,-0.16,-0.60,-1.25,
0.941,-1.77,1.32,-1.59,-0.16,-0.60,-1.25,
0.941,-1.77,1.32,-1.59,-0.20,-0.60,-1.21,
0.941,-1.77,1.32,-1.59,-0.24,-0.59,-1.17,
0.941,-1.77,1.32,-1.59,-0.28,-0.59,-1.12,
0.943,-1.77,1.32,-1.59,-0.32,-0.59,-1.08,
0.945,-1.77,1.32,-1.59,-0.36,-0.58,-1.04,
0.948,-1.90,1.36,-1.89,-0.36,-0.58,-1.04,
0.949,-1.90,1.36,-1.89,-0.39,-0.57,-1.01,
0.949,-1.90,1.36,-1.89,-0.43,-0.56,-0.97,
0.95,-1.90,1.36,-1.89,-0.46,-0.54,-0.94,
0.952,-1.90,1.36,-1.89,-0.48,-0.52,-0.92,
0.958,-1.90,1.36,-1.89,-0.50,-0.50,-0.89,
0.958,-1.71,1.05,-1.62,-0.50,-0.50,-0.89,
0.958,-1.71,1.05,-1.62,-0.52,-0.48,-0.87,
0.958,-1.71,1.05,-1.62,-0.53,-0.46,-0.84,
0.964,-1.71,1.05,-1.62,-0.54,-0.46,-0.82,
0.965,-1.71,1.05,-1.62,-0.53,-0.47,-0.80,
0.965,-1.71,1.05,-1.62,-0.53,-0.48,-0.78,
0.971,-1.38,0.70,-0.85,-0.53,-0.48,-0.78,
0.972,-1.38,0.70,-0.85,-0.53,-0.50,-0.76,
0.972,-1.38,0.70,-0.85,-0.52,-0.53,-0.74,
0.972,-1.38,0.70,-0.85,-0.53,-0.56,-0.73,
0.972,-1.38,0.70,-0.85,-0.52,-0.58,-0.72,
0.977,-1.38,0.70,-0.85,-0.52,-0.60,-0.72,
0.978,-0.84,0.32,-0.72,-0.52,-0.60,-0.72,
1.001,-0.84,0.32,-0.72,-0.52,-0.62,-0.72,
1.001,-0.84,0.32,-0.72,-0.53,-0.64,-0.72,
1.001,-0.84,0.32,-0.72,-0.54,-0.65,-0.72,
1.002,-0.84,0.32,-0.72,-0.54,-0.67,-0.73,
1.002,-0.84,0.32,-0.72,-0.56,-0.68,-0.74,
1.002,-0.57,0.16,-0.95,-0.56,-0.68,-0.74,
1.002,-0.57,0.16,-0.95,-0.57,-0.70,-0.74,
1.002,-0.57,0.16,-0.95,-0.59,-0.73,-0.75,
1.003,-0.57,0.16,-0.95,-0.60,-0.76,-0.76,
1.003,-0.57,0.16,-0.95,-0.63,-0.80,-0.76,
1.003,-0.57,0.16,-0.95,-0.65,-0.84,-0.77,
1.003,-0.51,-0.03,-1.21,-0.65,-0.84,-0.77,
1.003,-0.51,-0.03,-1.21,-0.68,-0.89,-0.78,
1.004,-0.51,-0.03,-1.21,-0.70,-0.94,-0.79,
1.004,-0.51,-0.03,-1.21,-0.74,-0.99,-0.80,
1.004,-0.51,-0.03,-1.21,-0.77,-1.05,-0.81,
1.004,-0.51,-0.03,-1.21,-0.80,-1.10,-0.82,
1.044,-0.27,-0.10,-1.42,-0.80,-1.10,-0.82,
1.044,-0.27,-0.10,-1.42,-0.83,-1.15,-0.84,
1.045,-0.27,-0.10,-1.42,-0.87,-1.20,-0.84,
1.045,-0.27,-0.10,-1.42,-0.90,-1.23,-0.85,
1.045,-0.27,-0.10,-1.42,-0.93,-1.27,-0.86,
1.045,-0.27,-0.10,-1.42,-0.96,-1.29,-0.88,
1.046,-0.23,-0.27,-1.25,-0.96,-1.29,-0.88,
1.046,-0.23,-0.27,-1.25,-0.99,-1.31,-0.90,
1.046,-0.23,-0.27,-1.25,-1.01,-1.33,-0.92,
1.046,-0.23,-0.27,-1.25,-1.02,-1.33,-0.94,
1.047,-0.23,-0.27,-1.25,-1.03,-1.33,-0.96,
1.047,-0.23,-0.27,-1.25,-1.03,-1.32,-0.97,
1.047,-0.27,-0.31,-0.37,-1.03,-1.32,-0.97,
1.047,-0.27,-0.31,-0.37,-1.02,-1.31,-0.99,
1.048,-0.27,-0.31,-0.37,-1.01,-1.28,-1.01,
1.048,-0.27,-0.31,-0.37,-0.98,-1.25,-1.03,
1.048,-0.27,-0.31,-0.37,-0.95,-1.22,-1.04,
1.048,-0.27,-0.31,-0.37,-0.92,-1.18,-1.06,
1.049,-0.51,-0.20,0.92,-0.92,-1.18,-1.06,
1.049,-0.51,-0.20,0.92,-0.88,-1.14,-1.08,
1.049,-0.51,-0.20,0.92,-0.83,-1.10,-1.10,
1.049,-0.51,-0.20,0.92,-0.78,-1.05,-1.11,
1.05,-0.51,-0.20,0.92,-0.73,-1.01,-1.13,
1.05,-0.51,-0.20,0.92,-0.67,-0.96,-1.14,
1.05,-0.71,-0.05,1.94,-0.67,-0.96,-1.14,
1.051,-0.71,-0.05,1.94,-0.62,-0.92,-1.16,
1.051,-0.71,-0.05,1.94,-0.56,-0.87,-1.17,
1.051,-0.71,-0.05,1.94,-0.50,-0.82,-1.18,
1.053,-0.71,-0.05,1.94,-0.44,-0.77,-1.19,
1.058,-0.71,-0.05,1.94,-0.38,-0.73,-1.20,
1.058,-0.82,0.26,2.45,-0.38,-0.73,-1.20,
1.059,-0.82,0.26,2.45,-0.33,-0.69,-1.21,
1.059,-0.82,0.26,2.45,-0.28,-0.65,-1.23,
1.064,-0.82,0.26,2.45,-0.23,-0.61,-1.24,
1.065,-0.82,0.26,2.45,-0.19,-0.58,-1.27,
1.065,-0.82,0.26,2.45,-0.14,-0.56,-1.29,
1.071,-0.54,0.40,2.40,-0.14,-0.56,-1.29,
1.071,-0.54,0.40,2.40,-0.10,-0.53,-1.32,
1.071,-0.54,0.40,2.40,-0.06,-0.51,-1.35,
1.071,-0.54,0.40,2.40,-0.02,-0.50,-1.37,
1.075,-0.54,0.40,2.40,0.02,-0.48,-1.40,
1.076,-0.54,0.40,2.40,0.05,-0.47,-1.43,
1.087,-0.32,0.75,2.33,0.05,-0.47,-1.43,
1.088,-0.32,0.75,2.33,0.08,-0.47,-1.46,
1.088,-0.32,0.75,2.33,0.12,-0.47,-1.49,
1.1,-0.32,0.75,2.33,0.14,-0.48,-1.53,
1.101,-0.32,0.75,2.33,0.17,-0.49,-1.56,
1.101,-0.32,0.75,2.33,0.20,-0.49,-1.59,
1.101,-0.43,0.84,2.00,0.20,-0.49,-1.59,
1.101,-0.43,0.84,2.00,0.23,-0.50,-1.61,
1.102,-0.43,0.84,2.00,0.25,-0.50,-1.64,
1.102,-0.43,0.84,2.00,0.27,-0.50,-1.67,
1.102,-0.43,0.84,2.00,0.28,-0.49,-1.69,
1.102,-0.43,0.84,2.00,0.30,-0.50,-1.70,
1.102,-0.82,1.09,1.56,0.30,-0.50,-1.70,
1.102,-0.82,1.09,1.56,0.31,-0.50,-1.72,
1.103,-0.82,1.09,1.56,0.32,-0.51,-1.72,
1.103,-0.82,1.09,1.56,0.34,-0.52,-1.73,
1.103,-0.82,1.09,1.56,0.33,-0.52,-1.73,
1.11,-0.82,1.09,1.56,0.33,-0.52,-1.73,
1.111,-1.63,1.43,0.75,0.33,-0.52,-1.73,
1.111,-1.63,1.43,0.75,0.33,-0.52,-1.72,
1.111,-1.63,1.43,0.75,0.33,-0.51,-1.71,
1.111,-1.63,1.43,0.75,0.33,-0.52,-1.69,
1.117,-1.63,1.43,0.75,0.31,-0.52,-1.67,
1.117,-1.63,1.43,0.75,0.30,-0.52,-1.64,
1.118,-2.56,1.63,-0.01,0.30,-0.52,-1.64,
1.118,-2.56,1.63,-0.01,0.29,-0.51,-1.61,
1.118,-2.56,1.63,-0.01,0.27,-0.51,-1.59,
1.123,-2.56,1.63,-0.01,0.25,-0.50,-1.56,
1.124,-2.56,1.63,-0.01,0.22,-0.50,-1.53,
1.129,-2.56,1.63,-0.01,0.20,-0.49,-1.51,
1.13,-2.91,1.75,-0.76,0.20,-0.49,-1.51,
1.13,-2.91,1.75,-0.76,0.18,-0.48,-1.49,
1.131,-2.91,1.75,-0.76,0.16,-0.47,-1.47,
1.131,-2.91,1.75,-0.76,0.14,-0.46,-1.46,
1.136,-2.91,1.75,-0.76,0.12,-0.45,-1.45,
1.136,-2.91,1.75,-0.76,0.09,-0.44,-1.44,
1.14,-2.74,1.63,-1.04,0.09,-0.44,-1.44,
1.141,-2.74,1.63,-1.04,0.07,-0.43,-1.43,
1.141,-2.74,1.63,-1.04,0.05,-0.43,-1.42,
1.141,-2.74,1.63,-1.04,0.04,-0.43,-1.41,
1.146,-2.74,1.63,-1.04,0.02,-0.43,-1.40,
1.175,-2.74,1.63,-1.04,0.01,-0.44,-1.40,
1.176,-2.62,1.42,-0.77,0.01,-0.44,-1.40,
1.176,-2.62,1.42,-0.77,-0.01,-0.46,-1.39,
1.176,-2.62,1.42,-0.77,-0.01,-0.46,-1.39,
1.177,-2.62,1.42,-0.77,0.00,-0.48,-1.37,
1.177,-2.62,1.42,-0.77,-0.01,-0.50,-1.36,
1.178,-2.62,1.42,-0.77,-0.02,-0.52,-1.36,
1.178,-2.66,1.21,-0.57,-0.02,-0.52,-1.36,
1.178,-2.66,1.21,-0.57,-0.03,-0.55,-1.35,
1.179,-2.66,1.21,-0.57,-0.04,-0.57,-1.34,
1.179,-2.66,1.21,-0.57,-0.05,-0.59,-1.33,
1.18,-2.66,1.21,-0.57,-0.05,-0.61,-1.33,
1.18,-2.66,1.21,-0.57,-0.06,-0.63,-1.33,
1.181,-2.47,0.77,-0.63,-0.06,-0.63,-1.33,
1.181,-2.47,0.77,-0.63,-0.07,-0.64,-1.33,
1.181,-2.47,0.77,-0.63,-0.08,-0.66,-1.33,
1.182,-2.47,0.77,-0.63,-0.08,-0.67,-1.33,
1.182,-2.47,0.77,-0.63,-0.09,-0.69,-1.34,
1.183,-2.47,0.77,-0.63,-0.10,-0.69,-1.34,
1.183,-2.17,0.16,-0.59,-0.10,-0.69,-1.34,
1.183,-2.17,0.16,-0.59,-0.11,-0.68,-1.35,
1.184,-2.17,0.16,-0.59,-0.11,-0.67,-1.35,
1.184,-2.17,0.16,-0.59,-0.12,-0.64,-1.36,
1.184,-2.17,0.16,-0.59,-0.12,-0.60,-1.36,
1.185,-2.17,0.16,-0.59,-0.12,-0.56,-1.35,
1.213,-2.35,0.04,-0.23,-0.12,-0.56,-1.35,
1.214,-2.35,0.04,-0.23,-0.11,-0.51,-1.35,
1.214,-2.35,0.04,-0.23,-0.11,-0.46,-1.33,
1.214,-2.35,0.04,-0.23,-0.10,-0.40,-1.31,
1.214,-2.35,0.04,-0.23,-0.09,-0.35,-1.28,
1.214,-2.35,0.04,-0.23,-0.07,-0.30,-1.25,
1.215,-3.11,0.26,0.65,-0.07,-0.30,-1.25,
1.215,-3.11,0.26,0.65,-0.05,-0.25,-1.22,
1.215,-3.11,0.26,0.65,-0.03,-0.20,-1.19,
1.215,-3.11,0.26,0.65,-0.01,-0.15,-1.16,
1.216,-3.11,0.26,0.65,0.02,-0.11,-1.13,
1.216,-3.11,0.26,0.65,0.05,-0.06,-1.09,
1.216,-3.34,0.25,1.50,0.05,-0.06,-1.09,
1.216,-3.34,0.25,1.50,0.08,-0.03,-1.05,
1.216,-3.34,0.25,1.50,0.11,0.01,-1.02,
1.217,-3.34,0.25,1.50,0.14,0.04,-0.98,
1.217,-3.34,0.25,1.50,0.17,0.07,-0.94,
1.217,-3.34,0.25,1.50,0.20,0.08,-0.89,
1.217,-3.86,0.25,2.55,0.20,0.08,-0.89,
1.218,-3.86,0.25,2.55,0.23,0.09,-0.86,
1.224,-3.86,0.25,2.55,0.26,0.09,-0.82,
1.225,-3.86,0.25,2.55,0.28,0.08,-0.78,
1.225,-3.86,0.25,2.55,0.30,0.07,-0.75,
1.225,-3.86,0.25,2.55,0.33,0.05,-0.72,
1.236,-3.80,0.30,2.96,0.33,0.05,-0.72,
1.236,-3.80,0.30,2.96,0.34,0.03,-0.69,
1.243,-3.80,0.30,2.96,0.36,0.00,-0.68,
1.244,-3.80,0.30,2.96,0.38,-0.03,-0.66,
1.244,-3.80,0.30,2.96,0.40,-0.08,-0.65,
1.244,-3.80,0.30,2.96,0.42,-0.12,-0.63,
1.244,-3.18,0.11,3.42,0.42,-0.12,-0.63,
1.245,-3.18,0.11,3.42,0.43,-0.15,-0.61,
1.245,-3.18,0.11,3.42,0.44,-0.19,-0.59,
1.245,-3.18,0.11,3.42,0.44,-0.23,-0.57,
1.248,-3.18,0.11,3.42,0.44,-0.26,-0.54,
1.248,-3.18,0.11,3.42,0.44,-0.30,-0.51,
1.249,-3.07,0.10,3.16,0.44,-0.30,-0.51,
1.249,-3.07,0.10,3.16,0.43,-0.34,-0.48,
1.249,-3.07,0.10,3.16,0.42,-0.37,-0.45,
1.256,-3.07,0.10,3.16,0.41,-0.41,-0.41,
1.256,-3.07,0.10,3.16,0.39,-0.45,-0.38,
1.257,-3.07,0.10,3.16,0.36,-0.49,-0.35,
1.257,-2.63,0.14,2.45,0.36,-0.49,-0.35,
1.257,-2.63,0.14,2.45,0.34,-0.53,-0.32,
1.265,-2.63,0.14,2.45,0.31,-0.58,-0.30,
1.265,-2.63,0.14,2.45,0.29,-0.63,-0.28,
1.265,-2.63,0.14,2.45,0.25,-0.69,-0.26,
1.265,-2.63,0.14,2.45,0.22,-0.75,-0.26,
1.267,-1.15,-0.46,1.76,0.22,-0.75,-0.26,
1.267,-1.15,-0.46,1.76,0.19,-0.82,-0.26,
1.268,-1.15,-0.46,1.76,0.15,-0.89,-0.27,
1.273,-1.15,-0.46,1.76,0.10,-0.97,-0.29,
1.273,-1.15,-0.46,1.76,0.06,-1.05,-0.31,
1.275,-1.15,-0.46,1.76,0.01,-1.12,-0.34,
1.278,0.91,-1.42,1.11,0.01,-1.12,-0.34,
1.278,0.91,-1.42,1.11,-0.03,-1.20,-0.37,
1.279,0.91,-1.42,1.11,-0.07,-1.28,-0.40,
1.281,0.91,-1.42,1.11,-0.11,-1.37,-0.43,
1.282,0.91,-1.42,1.11,-0.14,-1.45,-0.46,
1.284,0.91,-1.42,1.11,-0.17,-1.52,-0.50,
1.287,2.39,-1.99,1.39,-0.17,-1.52,-0.50,
1.287,2.39,-1.99,1.39,-0.19,-1.58,-0.53,
1.288,2.39,-1.99,1.39,-0.19,-1.64,-0.57,
1.293,2.39,-1.99,1.39,-0.19,-1.68,-0.60,
1.293,2.39,-1.99,1.39,-0.19,-1.72,-0.62,
1.294,2.39,-1.99,1.39,-0.18,-1.73,-0.65,
1.298,2.74,-2.14,2.00,-0.18,-1.73,-0.65,
1.298,2.74,-2.14,2.00,-0.16,-1.72,-0.67,
1.298,2.74,-2.14,2.00,-0.14,-1.70,-0.69,
1.3,2.74,-2.14,2.00,-0.10,-1.66,-0.71,
1.302,2.74,-2.14,2.00,-0.07,-1.62,-0.73,
1.305,2.74,-2.14,2.00,-0.03,-1.57,-0.74,
1.307,2.71,-2.01,2.12,-0.03,-1.57,-0.74,
1.307,2.71,-2.01,2.12,0.01,-1.52,-0.75,
1.31,2.71,-2.01,2.12,0.05,-1.47,-0.77,
1.331,2.71,-2.01,2.12,0.09,-1.41,-0.78,
1.332,2.71,-2.01,2.12,0.13,-1.34,-0.79,
1.332,2.71,-2.01,2.12,0.18,-1.27,-0.80,
1.332,2.78,-1.83,1.85,0.18,-1.27,-0.80,
1.332,2.78,-1.83,1.85,0.22,-1.19,-0.81,
1.333,2.78,-1.83,1.85,0.26,-1.11,-0.82,
1.333,2.78,-1.83,1.85,0.30,-1.02,-0.83,
1.333,2.78,-1.83,1.85,0.34,-0.93,-0.84,
1.333,2.78,-1.83,1.85,0.37,-0.84,-0.86,
1.333,2.87,-1.52,1.04,0.37,-0.84,-0.86,
1.333,2.87,-1.52,1.04,0.40,-0.75,-0.87,
1.334,2.87,-1.52,1.04,0.42,-0.66,-0.88,
1.334,2.87,-1.52,1.04,0.44,-0.58,-0.89,
1.334,2.87,-1.52,1.04,0.45,-0.49,-0.90,
1.373,2.87,-1.52,1.04,0.46,-0.41,-0.90,
1.373,2.50,-1.05,-0.12,0.46,-0.41,-0.90,
1.373,2.50,-1.05,-0.12,0.47,-0.33,-0.90,
1.374,2.50,-1.05,-0.12,0.47,-0.26,-0.90,
1.374,2.50,-1.05,-0.12,0.47,-0.18,-0.89,
1.374,2.50,-1.05,-0.12,0.47,-0.11,-0.89,
1.374,2.50,-1.05,-0.12,0.46,-0.05,-0.88,
1.375,1.54,-0.42,-1.00,0.46,-0.05,-0.88,
1.375,1.54,-0.42,-1.00,0.45,0.02,-0.87,
1.375,1.54,-0.42,-1.00,0.44,0.07,-0.85,
1.375,1.54,-0.42,-1.00,0.42,0.11,-0.83,
1.376,1.54,-0.42,-1.00,0.40,0.16,-0.80,
1.376,1.54,-0.42,-1.00,0.38,0.19,-0.77,
1.376,0.03,0.27,-1.74,0.38,0.19,-0.77,
1.377,0.03,0.27,-1.74,0.37,0.22,-0.74,
1.377,0.03,0.27,-1.74,0.36,0.24,-0.72,
1.377,0.03,0.27,-1.74,0.35,0.25,-0.70,
1.377,0.03,0.27,-1.74,0.34,0.27,-0.67,
1.378,0.03,0.27,-1.74,0.33,0.28,-0.63,
1.378,-0.92,1.07,-1.57,0.33,0.28,-0.63,
1.378,-0.92,1.07,-1.57,0.32,0.28,-0.60,
1.378,-0.92,1.07,-1.57,0.31,0.27,-0.56,
1.379,-0.92,1.07,-1.57,0.29,0.27,-0.52,
1.379,-0.92,1.07,-1.57,0.28,0.26,-0.48,
1.379,-0.92,1.07,-1.57,0.25,0.26,-0.44,
1.379,-1.84,1.35,-2.01,0.25,0.26,-0.44,
1.38,-1.84,1.35,-2.01,0.23,0.25,-0.40,
1.38,-1.84,1.35,-2.01,0.20,0.26,-0.36,
1.38,-1.84,1.35,-2.01,0.17,0.26,-0.33,
1.384,-1.84,1.35,-2.01,0.14,0.26,-0.29,
1.385,-1.84,1.35,-2.01,0.12,0.26,-0.25,
1.388,-2.21,1.56,-2.59,0.12,0.26,-0.25,
1.388,-2.21,1.56,-2.59,0.09,0.25,-0.20,
1.388,-2.21,1.56,-2.59,0.07,0.24,-0.16,
1.392,-2.21,1.56,-2.59,0.04,0.22,-0.11,
1.399,-2.21,1.56,-2.59,0.01,0.20,-0.07,
1.399,-2.21,1.56,-2.59,-0.02,0.17,-0.02,
1.4,-2.31,1.42,-3.09,-0.02,0.17,-0.02,
1.4,-2.31,1.42,-3.09,-0.05,0.13,0.02,
1.4,-2.31,1.42,-3.09,-0.09,0.10,0.06,
1.4,-2.31,1.42,-3.09,-0.13,0.07,0.10,
1.405,-2.31,1.42,-3.09,-0.17,0.04,0.13,
1.405,-2.31,1.42,-3.09,-0.22,0.01,0.17,
1.42,-1.87,1.29,-4.02,-0.22,0.01,0.17,
1.421,-1.87,1.29,-4.02,-0.26,-0.03,0.19,
1.421,-1.87,1.29,-4.02,-0.31,-0.06,0.22,
1.422,-1.87,1.29,-4.02,-0.35,-0.08,0.23,
1.422,-1.87,1.29,-4.02,-0.39,-0.11,0.25,
1.422,-1.87,1.29,-4.02,-0.43,-0.12,0.26,
1.422,-1.30,1.00,-4.58,-0.43,-0.12,0.26,
1.423,-1.30,1.00,-4.58,-0.48,-0.14,0.28,
1.423,-1.30,1.00,-4.58,-0.52,-0.15,0.29,
1.423,-1.30,1.00,-4.58,-0.57,-0.16,0.31,
1.424,-1.30,1.00,-4.58,-0.61,-0.16,0.32,
1.429,-1.30,1.00,-4.58,-0.64,-0.16,0.33,
1.43,-0.74,1.39,-4.75,-0.64,-0.16,0.33,
1.43,-0.74,1.39,-4.75,-0.67,-0.15,0.35,
1.43,-0.74,1.39,-4.75,-0.69,-0.13,0.37,
1.43,-0.74,1.39,-4.75,-0.71,-0.10,0.38,
1.435,-0.74,1.39,-4.75,-0.73,-0.04,0.41,
1.436,-0.74,1.39,-4.75,-0.74,0.02,0.43,
1.44,-1.02,1.76,-4.44,-0.74,0.02,0.43,
1.44,-1.02,1.76,-4.44,-0.76,0.11,0.46,
1.44,-1.02,1.76,-4.44,-0.76,0.20,0.49,
1.446,-1.02,1.76,-4.44,-0.77,0.30,0.52,
1.447,-1.02,1.76,-4.44,-0.77,0.40,0.56,
1.447,-1.02,1.76,-4.44,-0.76,0.52,0.59,
1.447,-1.77,1.41,-3.27,-0.76,0.52,0.59,
1.448,-1.77,1.41,-3.27,-0.75,0.64,0.63,
1.448,-1.77,1.41,-3.27,-0.74,0.76,0.66,
1.453,-1.77,1.41,-3.27,-0.73,0.88,0.68,
1.454,-1.77,1.41,-3.27,-0.72,1.00,0.70,
1.457,-1.77,1.41,-3.27,-0.69,1.09,0.72,
1.458,-1.62,1.12,-1.74,-0.69,1.09,0.72,
1.458,-1.62,1.12,-1.74,-0.67,1.17,0.73,
1.471,-1.62,1.12,-1.74,-0.65,1.22,0.74,
1.472,-1.62,1.12,-1.74,-0.62,1.25,0.75,
1.472,-1.62,1.12,-1.74,-0.61,1.25,0.76,
1.472,-1.62,1.12,-1.74,-0.59,1.22,0.77,
1.472,-1.24,-0.03,0.04,-0.59,1.22,0.77,
1.472,-1.24,-0.03,0.04,-0.58,1.18,0.77,
1.473,-1.24,-0.03,0.04,-0.58,1.11,0.77,
1.473,-1.24,-0.03,0.04,-0.58,1.04,0.77,
1.473,-1.24,-0.03,0.04,-0.60,0.96,0.77,
1.479,-1.24,-0.03,0.04,-0.63,0.87,0.78,
1.48,-1.04,-0.98,0.26,-0.63,0.87,0.78,
1.503,-1.04,-0.98,0.26,-0.67,0.79,0.78,
1.503,-1.04,-0.98,0.26,-0.71,0.71,0.79,
1.503,-1.04,-0.98,0.26,-0.76,0.64,0.80,
1.504,-1.04,-0.98,0.26,-0.82,0.56,0.81,
1.504,-1.04,-0.98,0.26,-0.87,0.46,0.83,
1.504,-1.22,-0.62,-0.95,-0.87,0.46,0.83,
1.504,-1.22,-0.62,-0.95,-0.92,0.36,0.86,
1.505,-1.22,-0.62,-0.95,-0.96,0.25,0.89,
1.505,-1.22,-0.62,-0.95,-0.98,0.15,0.90,
1.505,-1.22,-0.62,-0.95,-1.01,0.03,0.92,
1.506,-1.22,-0.62,-0.95,-1.03,-0.09,0.92,
1.506,-0.69,0.15,-1.18,-1.03,-0.09,0.92,
1.506,-0.69,0.15,-1.18,-1.05,-0.22,0.92,
1.506,-0.69,0.15,-1.18,-1.07,-0.33,0.93,
1.507,-0.69,0.15,-1.18,-1.09,-0.44,0.93,
1.507,-0.69,0.15,-1.18,-1.12,-0.53,0.93,
1.507,-0.69,0.15,-1.18,-1.15,-0.60,0.93,
1.507,0.31,0.43,-2.20,-1.15,-0.60,0.93,
1.508,0.31,0.43,-2.20,-1.19,-0.64,0.94,
1.536,0.31,0.43,-2.20,-1.23,-0.67,0.96,
1.537,0.31,0.43,-2.20,-1.27,-0.67,0.97,
1.537,0.31,0.43,-2.20,-1.30,-0.66,0.99,
1.537,0.31,0.43,-2.20,-1.34,-0.64,1.02,
1.537,0.68,0.67,-3.83,-1.34,-0.64,1.02,
1.538,0.68,0.67,-3.83,-1.37,-0.62,1.04,
1.538,0.68,0.67,-3.83,-1.41,-0.59,1.06,
1.538,0.68,0.67,-3.83,-1.45,-0.56,1.08,
1.538,0.68,0.67,-3.83,-1.48,-0.52,1.10,
1.539,0.68,0.67,-3.83,-1.51,-0.47,1.12,
1.539,1.37,0.51,-4.70,-1.51,-0.47,1.12,
1.539,1.37,0.51,-4.70,-1.55,-0.41,1.14,
1.539,1.37,0.51,-4.70,-1.58,-0.36,1.16,
1.539,1.37,0.51,-4.70,-1.60,-0.32,1.18,
1.54,1.37,0.51,-4.70,-1.62,-0.28,1.20,
1.54,1.37,0.51,-4.70,-1.64,-0.24,1.21,
1.54,1.74,0.38,-4.27,-1.64,-0.24,1.21,
1.54,1.74,0.38,-4.27,-1.65,-0.19,1.21,
1.541,1.74,0.38,-4.27,-1.66,-0.14,1.21,
1.541,1.74,0.38,-4.27,-1.66,-0.09,1.19,
1.545,1.74,0.38,-4.27,-1.66,-0.01,1.18,
1.545,1.74,0.38,-4.27,-1.66,0.06,1.17,
1.547,2.47,-0.56,-3.14,-1.66,0.06,1.17,
1.547,2.47,-0.56,-3.14,-1.65,0.11,1.15,
1.549,2.47,-0.56,-3.14,-1.63,0.16,1.13,
1.55,2.47,-0.56,-3.14,-1.60,0.22,1.10,
1.552,2.47,-0.56,-3.14,-1.56,0.25,1.07,
1.554,2.47,-0.56,-3.14,-1.52,0.29,1.04,
1.557,3.08,-1.40,-0.92,-1.52,0.29,1.04,
1.557,3.08,-1.40,-0.92,-1.47,0.31,0.99,
1.559,3.08,-1.40,-0.92,-1.42,0.33,0.94,
1.563,3.08,-1.40,-0.92,-1.36,0.35,0.89,
1.563,3.08,-1.40,-0.92,-1.30,0.35,0.82,
1.567,3.08,-1.40,-0.92,-1.24,0.36,0.76,
1.568,3.52,-2.01,1.05,-1.24,0.36,0.76,
1.568,3.52,-2.01,1.05,-1.18,0.38,0.70,
1.571,3.52,-2.01,1.05,-1.13,0.38,0.63,
1.571,3.52,-2.01,1.05,-1.08,0.38,0.57,
1.574,3.52,-2.01,1.05,-1.03,0.38,0.52,
1.574,3.52,-2.01,1.05,-1.00,0.37,0.46,
1.58,2.99,-2.18,1.84,-1.00,0.37,0.46,
1.58,2.99,-2.18,1.84,-0.96,0.36,0.41,
1.58,2.99,-2.18,1.84,-0.93,0.34,0.36,
1.58,2.99,-2.18,1.84,-0.90,0.32,0.32,
1.585,2.99,-2.18,1.84,-0.87,0.30,0.27,
1.585,2.99,-2.18,1.84,-0.85,0.27,0.23,
1.589,2.18,-1.69,2.15,-0.85,0.27,0.23,
1.589,2.18,-1.69,2.15,-0.83,0.23,0.19,
1.59,2.18,-1.69,2.15,-0.81,0.19,0.15,
1.594,2.18,-1.69,2.15,-0.78,0.16,0.11,
1.594,2.18,-1.69,2.15,-0.76,0.12,0.08,
1.595,2.18,-1.69,2.15,-0.74,0.09,0.05,
1.6,1.21,-1.26,2.16,-0.74,0.09,0.05,
1.601,1.21,-1.26,2.16,-0.72,0.07,0.03,
1.601,1.21,-1.26,2.16,-0.70,0.05,0.02,
1.601,1.21,-1.26,2.16,-0.69,0.03,0.02,
1.605,1.21,-1.26,2.16,-0.67,0.01,0.02,
1.606,1.21,-1.26,2.16,-0.67,-0.01,0.03,
1.614,-0.00,-1.11,1.39,-0.67,-0.01,0.03,
1.615,-0.00,-1.11,1.39,-0.66,-0.04,0.03,
1.615,-0.00,-1.11,1.39,-0.66,-0.08,0.04,
1.615,-0.00,-1.11,1.39,-0.67,-0.11,0.05,
1.615,-0.00,-1.11,1.39,-0.67,-0.15,0.05,
1.616,-0.00,-1.11,1.39,-0.68,-0.18,0.06,
1.622,-0.37,-0.98,0.49,-0.68,-0.18,0.06,
1.622,-0.37,-0.98,0.49,-0.69,-0.21,0.07,
1.622,-0.37,-0.98,0.49,-0.70,-0.23,0.08,
1.623,-0.37,-0.98,0.49,-0.72,-0.26,0.09,
1.623,-0.37,-0.98,0.49,-0.74,-0.29,0.10,
1.63,-0.37,-0.98,0.49,-0.77,-0.32,0.10,
1.63,-0.29,-1.14,-0.15,-0.77,-0.32,0.10,
1.631,-0.29,-1.14,-0.15,-0.79,-0.35,0.10,
1.631,-0.29,-1.14,-0.15,-0.81,-0.37,0.11,
1.631,-0.29,-1.14,-0.15,-0.84,-0.39,0.11,
1.636,-0.29,-1.14,-0.15,-0.87,-0.41,0.12,
1.636,-0.29,-1.14,-0.15,-0.88,-0.43,0.13,
1.641,-0.23,-0.77,-0.49,-0.88,-0.43,0.13,
1.641,-0.23,-0.77,-0.49,-0.91,-0.46,0.14,
1.641,-0.23,-0.77,-0.49,-0.93,-0.48,0.15,
1.642,-0.23,-0.77,-0.49,-0.96,-0.51,0.16,
1.644,-0.23,-0.77,-0.49,-0.99,-0.53,0.18,
1.669,-0.57,-0.56,-0.82,-0.99,-0.53,0.18,
1.669,-0.57,-0.56,-0.82,-1.05,-0.59,0.21,
1.67,-0.57,-0.56,-0.82,-1.05,-0.59,0.21,
1.67,-0.57,-0.56,-0.82,-1.08,-0.62,0.23,
1.67,-0.57,-0.56,-0.82,-1.12,-0.65,0.25,
1.67,-0.57,-0.56,-0.82,-1.16,-0.66,0.27,
1.671,-0.57,-0.56,-0.82,-1.20,-0.67,0.29,
1.671,-0.83,-0.43,-1.38,-1.20,-0.67,0.29,
1.671,-0.83,-0.43,-1.38,-1.24,-0.67,0.31,
1.672,-0.83,-0.43,-1.38,-1.29,-0.68,0.32,
1.672,-0.83,-0.43,-1.38,-1.35,-0.69,0.33,
1.672,-0.83,-0.43,-1.38,-1.40,-0.69,0.35,
1.673,-0.83,-0.43,-1.38,-1.46,-0.69,0.36,
1.673,-0.73,-0.20,-1.96,-1.46,-0.69,0.36,
1.673,-0.73,-0.20,-1.96,-1.52,-0.68,0.37,
1.673,-0.73,-0.20,-1.96,-1.59,-0.67,0.38,
1.674,-0.73,-0.20,-1.96,-1.65,-0.67,0.40,
1.674,-0.73,-0.20,-1.96,-1.71,-0.66,0.41,
1.709,-0.73,-0.20,-1.96,-1.78,-0.67,0.43,
1.71,-1.05,-0.10,-2.08,-1.78,-0.67,0.43,
1.71,-1.05,-0.10,-2.08,-1.84,-0.68,0.45,
1.71,-1.05,-0.10,-2.08,-1.90,-0.70,0.48,
1.71,-1.05,-0.10,-2.08,-1.96,-0.72,0.51,
1.711,-1.05,-0.10,-2.08,-2.01,-0.74,0.54,
1.711,-1.05,-0.10,-2.08,-2.06,-0.77,0.57,
1.711,-1.84,-0.14,-1.68,-2.06,-0.77,0.57,
1.712,-1.84,-0.14,-1.68,-2.11,-0.81,0.61,
1.712,-1.84,-0.14,-1.68,-2.16,-0.86,0.65,
1.712,-1.84,-0.14,-1.68,-2.20,-0.89,0.69,
1.712,-1.84,-0.14,-1.68,-2.24,-0.93,0.74,
1.713,-1.84,-0.14,-1.68,-2.29,-0.97,0.78,
1.713,-1.96,-0.08,-1.65,-2.29,-0.97,0.78,
1.713,-1.96,-0.08,-1.65,-2.33,-1.01,0.82,
1.713,-1.96,-0.08,-1.65,-2.38,-1.04,0.87,
1.714,-1.96,-0.08,-1.65,-2.42,-1.09,0.91,
1.714,-1.96,-0.08,-1.65,-2.47,-1.14,0.95,
1.714,-1.96,-0.08,-1.65,-2.51,-1.18,0.99,
1.715,-1.56,0.14,-1.65,-2.51,-1.18,0.99,
1.715,-1.56,0.14,-1.65,-2.56,-1.22,1.04,
1.715,-1.56,0.14,-1.65,-2.59,-1.25,1.08,
1.716,-1.56,0.14,-1.65,-2.63,-1.26,1.12,
1.716,-1.56,0.14,-1.65,-2.66,-1.27,1.16,
1.716,-1.56,0.14,-1.65,-2.69,-1.25,1.19,
1.718,-1.16,-0.06,-2.00,-2.69,-1.25,1.19,
1.718,-1.16,-0.06,-2.00,-2.72,-1.21,1.22,
1.718,-1.16,-0.06,-2.00,-2.74,-1.13,1.24,
1.721,-1.16,-0.06,-2.00,-2.75,-1.03,1.26,
1.725,-1.16,-0.06,-2.00,-2.75,-0.91,1.28,
1.725,-1.16,-0.06,-2.00,-2.74,-0.78,1.28,
1.728,-0.36,-0.46,-1.97,-2.74,-0.78,1.28,
1.728,-0.36,-0.46,-1.97,-2.72,-0.64,1.29,
1.731,-0.36,-0.46,-1.97,-2.69,-0.48,1.29,
1.732,-0.36,-0.46,-1.97,-2.66,-0.33,1.28,
1.733,-0.36,-0.46,-1.97,-2.60,-0.19,1.27,
1.735,-0.36,-0.46,-1.97,-2.54,-0.07,1.26,
1.737,0.71,-1.12,-0.32,-2.54,-0.07,1.26,
1.738,0.71,-1.12,-0.32,-2.47,0.03,1.25,
1.739,0.71,-1.12,-0.32,-2.38,0.09,1.24,
1.742,0.71,-1.12,-0.32,-2.29,0.15,1.23,
1.743,0.71,-1.12,-0.32,-2.20,0.19,1.21,
1.745,0.71,-1.12,-0.32,-2.10,0.22,1.19,
1.748,1.55,-2.01,2.00,-2.10,0.22,1.19,
1.751,1.55,-2.01,2.00,-2.00,0.26,1.17,
1.752,1.55,-2.01,2.00,-1.90,0.29,1.15,
1.752,1.55,-2.01,2.00,-1.80,0.34,1.12,
1.753,1.55,-2.01,2.00,-1.70,0.38,1.10,
1.761,1.55,-2.01,2.00,-1.61,0.42,1.06,
1.761,2.30,-2.38,2.88,-1.61,0.42,1.06,
1.762,2.30,-2.38,2.88,-1.51,0.46,1.03,
1.762,2.30,-2.38,2.88,-1.42,0.50,1.00,
1.762,2.30,-2.38,2.88,-1.33,0.53,0.96,
1.762,2.30,-2.38,2.88,-1.25,0.57,0.92,
1.768,2.30,-2.38,2.88,-1.17,0.60,0.88,
1.769,2.44,-1.90,2.48,-1.17,0.60,0.88,
1.769,2.44,-1.90,2.48,-1.09,0.63,0.83,
1.769,2.44,-1.90,2.48,-1.02,0.65,0.78,
1.77,2.44,-1.90,2.48,-0.96,0.67,0.72,
1.773,2.44,-1.90,2.48,-0.90,0.70,0.67,
1.775,2.44,-1.90,2.48,-0.85,0.72,0.61,
1.778,2.14,-1.18,1.72,-0.85,0.72,0.61,
1.779,2.14,-1.18,1.72,-0.81,0.75,0.57,
1.779,2.14,-1.18,1.72,-0.78,0.78,0.52,
1.78,2.14,-1.18,1.72,-0.75,0.80,0.48,
1.782,2.14,-1.18,1.72,-0.73,0.82,0.44,
1.785,2.14,-1.18,1.72,-0.71,0.83,0.39,
1.791,1.40,0.01,1.16,-0.71,0.83,0.39,
1.791,1.40,0.01,1.16,-0.69,0.84,0.34,
1.791,1.40,0.01,1.16,-0.67,0.85,0.29,
1.792,1.40,0.01,1.16,-0.66,0.85,0.25,
1.793,1.40,0.01,1.16,-0.65,0.84,0.22,
1.795,1.40,0.01,1.16,-0.65,0.82,0.20,
1.797,0.57,1.06,0.97,-0.65,0.82,0.20,
1.798,0.57,1.06,0.97,-0.66,0.79,0.18,
1.799,0.57,1.06,0.97,-0.66,0.76,0.17,
1.801,0.57,1.06,0.97,-0.67,0.71,0.17,
1.803,0.57,1.06,0.97,-0.68,0.65,0.16,
1.811,0.57,1.06,0.97,-0.69,0.59,0.16,
1.812,-0.48,0.55,0.35,-0.69,0.59,0.16,
1.812,-0.48,0.55,0.35,-0.71,0.53,0.16,
1.812,-0.48,0.55,0.35,-0.73,0.47,0.16,
1.842,-0.48,0.55,0.35,-0.74,0.41,0.15,
1.842,-0.48,0.55,0.35,-0.76,0.36,0.15,
1.842,-0.48,0.55,0.35,-0.78,0.31,0.15,
1.843,-0.72,0.15,-0.45,-0.78,0.31,0.15,
1.843,-0.72,0.15,-0.45,-0.79,0.28,0.14,
1.843,-0.72,0.15,-0.45,-0.81,0.25,0.14,
1.844,-0.72,0.15,-0.45,-0.82,0.23,0.13,
1.844,-0.72,0.15,-0.45,-0.83,0.22,0.13,
1.844,-0.72,0.15,-0.45,-0.84,0.21,0.12,
1.844,-0.56,0.28,-0.64,-0.84,0.21,0.12,
1.845,-0.56,0.28,-0.64,-0.84,0.21,0.11,
1.845,-0.56,0.28,-0.64,-0.83,0.21,0.10,
1.845,-0.56,0.28,-0.64,-0.82,0.21,0.08,
1.845,-0.56,0.28,-0.64,-0.82,0.21,0.07,
1.846,-0.56,0.28,-0.64,-0.80,0.21,0.05,
1.846,-0.13,0.25,0.09,-0.80,0.21,0.05,
1.846,-0.13,0.25,0.09,-0.79,0.20,0.02,
1.846,-0.13,0.25,0.09,-0.77,0.20,-0.00,
1.847,-0.13,0.25,0.09,-0.76,0.18,-0.03,
1.847,-0.13,0.25,0.09,-0.75,0.16,-0.07,
1.847,-0.13,0.25,0.09,-0.73,0.14,-0.10,
1.848,0.55,0.10,0.39,-0.73,0.14,-0.10,
1.848,0.55,0.10,0.39,-0.71,0.11,-0.15,
1.848,0.55,0.10,0.39,-0.68,0.08,-0.19,
1.885,0.55,0.10,0.39,-0.65,0.05,-0.24,
1.886,0.55,0.10,0.39,-0.60,0.02,-0.29,
1.886,0.55,0.10,0.39,-0.55,-0.00,-0.33,
1.886,0.43,0.36,1.42,-0.55,-0.00,-0.33,
1.886,0.43,0.36,1.42,-0.49,-0.02,-0.37,
1.886,0.43,0.36,1.42,-0.44,-0.03,-0.41,
1.887,0.43,0.36,1.42,-0.38,-0.04,-0.44,
1.887,0.43,0.36,1.42,-0.32,-0.04,-0.46,
1.887,0.43,0.36,1.42,-0.27,-0.05,-0.48,
1.887,-0.85,0.81,2.03,-0.27,-0.05,-0.48,
1.888,-0.85,0.81,2.03,-0.22,-0.05,-0.49,
1.888,-0.85,0.81,2.03,-0.17,-0.06,-0.50,
1.888,-0.85,0.81,2.03,-0.13,-0.08,-0.51,
1.888,-0.85,0.81,2.03,-0.10,-0.11,-0.52,
1.889,-0.85,0.81,2.03,-0.07,-0.15,-0.52,
1.889,-1.59,0.99,2.29,-0.07,-0.15,-0.52,
1.889,-1.59,0.99,2.29,-0.05,-0.19,-0.53,
1.889,-1.59,0.99,2.29,-0.04,-0.23,-0.54,
1.889,-1.59,0.99,2.29,-0.03,-0.29,-0.54,
1.89,-1.59,0.99,2.29,-0.03,-0.36,-0.54,
1.89,-1.59,0.99,2.29,-0.04,-0.44,-0.54,
1.89,-1.60,0.87,2.43,-0.04,-0.44,-0.54,
1.893,-1.60,0.87,2.43,-0.06,-0.54,-0.54,
1.894,-1.60,0.87,2.43,-0.08,-0.65,-0.52,
1.894,-1.60,0.87,2.43,-0.11,-0.76,-0.49,
1.894,-1.60,0.87,2.43,-0.14,-0.88,-0.45,
1.914,-1.60,0.87,2.43,-0.18,-1.01,-0.41,
1.914,-1.51,0.94,2.56,-0.18,-1.01,-0.41,
1.915,-1.51,0.94,2.56,-0.22,-1.15,-0.36,
1.915,-1.51,0.94,2.56,-0.27,-1.28,-0.31,
1.915,-1.51,0.94,2.56,-0.32,-1.41,-0.25,
1.915,-1.51,0.94,2.56,-0.37,-1.56,-0.18,
1.915,-1.51,0.94,2.56,-0.42,-1.72,-0.12,
1.915,-0.43,1.18,2.18,-0.42,-1.72,-0.12,
1.916,-0.43,1.18,2.18,-0.47,-1.88,-0.05,
1.916,-0.43,1.18,2.18,-0.52,-2.05,0.03,
1.916,-0.43,1.18,2.18,-0.57,-2.27,0.14,
1.916,-0.43,1.18,2.18,-0.63,-2.65,0.29,
1.916,-0.43,1.18,2.18,-0.67,-3.10,0.45,
1.918,-0.11,3.30,4.69,-0.67,-3.10,0.45,
1.918,-0.11,3.30,4.69,-0.70,-3.38,0.59,
1.918,-0.11,3.30,4.69,-0.71,-3.54,0.68,
1.923,-0.11,3.30,4.69,-0.69,-3.67,0.75,
1.923,-0.11,3.30,4.69,-0.67,-3.82,0.79,
1.925,-0.11,3.30,4.69,-0.64,-3.98,0.82,
1.927,-2.76,3.29,4.66,-0.64,-3.98,0.82,
1.927,-2.76,3.29,4.66,-0.59,-4.11,0.86,
1.929,-2.76,3.29,4.66,-0.50,-4.29,0.90,
1.933,-2.76,3.29,4.66,-0.37,-4.58,0.92,
1.933,-2.76,3.29,4.66,-0.23,-4.78,0.93,
1.937,-2.76,3.29,4.66,-0.09,-4.85,0.92,
1.941,-2.47,4.19,2.79,-0.09,-4.85,0.92,
1.941,-2.47,4.19,2.79,0.05,-4.88,0.90,
1.942,-2.47,4.19,2.79,0.18,-4.85,0.87,
1.942,-2.47,4.19,2.79,0.29,-4.73,0.82,
1.943,-2.47,4.19,2.79,0.42,-4.46,0.78,
1.944,-2.47,4.19,2.79,0.54,-4.09,0.74,
1.947,-1.81,3.66,0.00,0.54,-4.09,0.74,
1.947,-1.81,3.66,0.00,0.64,-3.59,0.71,
1.948,-1.81,3.66,0.00,0.73,-2.99,0.68,
1.953,-1.81,3.66,0.00,0.82,-2.33,0.65,
1.953,-1.81,3.66,0.00,0.89,-1.64,0.61,
1.968,-1.81,3.66,0.00,0.95,-0.94,0.59,
1.968,0.24,2.53,-1.47,0.95,-0.94,0.59,
1.968,0.24,2.53,-1.47,0.99,-0.28,0.57,
1.969,0.24,2.53,-1.47,1.02,0.33,0.55,
1.969,0.24,2.53,-1.47,1.05,0.87,0.54,
1.969,0.24,2.53,-1.47,1.06,1.34,0.52,
1.97,0.24,2.53,-1.47,1.07,1.74,0.51,
1.97,1.09,1.69,-2.29,1.07,1.74,0.51,
1.97,1.09,1.69,-2.29,1.07,2.04,0.51,
1.97,1.09,1.69,-2.29,1.02,2.17,0.50,
1.971,1.09,1.69,-2.29,0.93,2.15,0.52,
1.981,1.09,1.69,-2.29,0.81,2.09,0.56,
1.982,1.09,1.69,-2.29,0.78,2.07,0.58,
1.982,1.48,0.82,-0.80,0.78,2.07,0.58,
1.999,1.48,0.82,-0.80,0.74,2.02,0.61,
2.0,1.48,0.82,-0.80,0.70,1.92,0.64,
2.0,1.48,0.82,-0.80,0.67,1.77,0.66,
2.0,1.48,0.82,-0.80,0.65,1.58,0.69,
2.0,1.48,0.82,-0.80,0.62,1.36,0.72,
2.0,1.21,0.60,1.78,0.62,1.36,0.72,
2.001,1.21,0.60,1.78,0.58,1.12,0.75,
2.001,1.21,0.60,1.78,0.55,0.87,0.79,
2.001,1.21,0.60,1.78,0.52,0.62,0.82,
2.001,1.21,0.60,1.78,0.48,0.39,0.84,
2.001,1.21,0.60,1.78,0.44,0.20,0.87,
2.001,0.65,0.53,3.29,0.44,0.20,0.87,
2.002,0.65,0.53,3.29,0.41,0.04,0.89,
2.002,0.65,0.53,3.29,0.39,-0.08,0.90,
2.002,0.65,0.53,3.29,0.37,-0.15,0.92,
2.03,0.65,0.53,3.29,0.35,-0.18,0.93,
2.03,0.65,0.53,3.29,0.32,-0.17,0.95,
2.03,-0.15,0.75,2.52,0.32,-0.17,0.95,
2.03,-0.15,0.75,2.52,0.29,-0.12,0.98,
2.031,-0.15,0.75,2.52,0.27,-0.04,1.01,
2.031,-0.15,0.75,2.52,0.24,0.06,1.04,
2.031,-0.15,0.75,2.52,0.21,0.17,1.08,
2.031,-0.15,0.75,2.52,0.18,0.31,1.12,
2.031,-0.90,1.04,1.12,0.18,0.31,1.12,
2.032,-0.90,1.04,1.12,0.14,0.47,1.16,
2.032,-0.90,1.04,1.12,0.12,0.65,1.20,
2.032,-0.90,1.04,1.12,0.09,0.83,1.25,
2.032,-0.90,1.04,1.12,0.06,1.01,1.29,
2.032,-0.90,1.04,1.12,0.04,1.19,1.34,
2.033,-1.23,1.31,0.04,0.04,1.19,1.34,
2.033,-1.23,1.31,0.04,0.02,1.35,1.39,
2.033,-1.23,1.31,0.04,0.01,1.50,1.44,
2.033,-1.23,1.31,0.04,-0.00,1.63,1.50,
2.034,-1.23,1.31,0.04,-0.01,1.74,1.55,
2.038,-1.23,1.31,0.04,-0.02,1.83,1.61,
2.038,-1.63,1.79,-0.57,-0.02,1.83,1.61,
2.038,-1.63,1.79,-0.57,-0.02,1.90,1.67,
2.038,-1.63,1.79,-0.57,-0.02,1.94,1.74,
2.041,-1.63,1.79,-0.57,-0.02,1.97,1.82,
2.042,-1.63,1.79,-0.57,-0.03,1.99,1.90,
2.045,-1.63,1.79,-0.57,-0.03,1.98,1.98,
2.047,-2.14,2.38,-0.85,-0.03,1.98,1.98,
2.047,-2.14,2.38,-0.85,-0.04,1.95,2.07,
2.048,-2.14,2.38,-0.85,-0.05,1.91,2.15,
2.05,-2.14,2.38,-0.85,-0.07,1.84,2.23,
2.052,-2.14,2.38,-0.85,-0.09,1.73,2.32,
2.054,-2.14,2.38,-0.85,-0.12,1.59,2.39,
2.057,-2.37,2.94,-1.06,-0.12,1.59,2.39,
2.057,-2.37,2.94,-1.06,-0.17,1.41,2.46,
2.058,-2.37,2.94,-1.06,-0.22,1.21,2.52,
2.061,-2.37,2.94,-1.06,-0.27,0.98,2.58,
2.063,-2.37,2.94,-1.06,-0.34,0.76,2.63,
2.064,-2.37,2.94,-1.06,-0.40,0.52,2.68,
2.067,-2.29,3.77,-1.14,-0.40,0.52,2.68,
2.067,-2.29,3.77,-1.14,-0.46,0.29,2.73,
2.069,-2.29,3.77,-1.14,-0.52,0.07,2.77,
2.071,-2.29,3.77,-1.14,-0.58,-0.15,2.81,
2.073,-2.29,3.77,-1.14,-0.62,-0.37,2.85,
2.074,-2.29,3.77,-1.14,-0.68,-0.59,2.88,
2.077,-2.48,4.80,-1.19,-0.68,-0.59,2.88,
2.077,-2.48,4.80,-1.19,-0.72,-0.81,2.91,
2.078,-2.48,4.80,-1.19,-0.75,-1.02,2.94,
2.08,-2.48,4.80,-1.19,-0.78,-1.21,2.97,
2.082,-2.48,4.80,-1.19,-0.80,-1.38,2.99,
2.084,-2.48,4.80,-1.19,-0.81,-1.54,3.02,
2.087,-2.62,5.76,-0.94,-0.81,-1.54,3.02,
2.087,-2.62,5.76,-0.94,-0.81,-1.68,3.05,
2.088,-2.62,5.76,-0.94,-0.80,-1.82,3.08,
2.091,-2.62,5.76,-0.94,-0.80,-1.95,3.10,
2.092,-2.62,5.76,-0.94,-0.78,-2.07,3.13,
2.094,-2.62,5.76,-0.94,-0.75,-2.19,3.16,
2.097,-2.71,6.59,-0.42,-0.75,-2.19,3.16,
2.097,-2.71,6.59,-0.42,-0.71,-2.30,3.19,
2.098,-2.71,6.59,-0.42,-0.67,-2.41,3.21,
2.101,-2.71,6.59,-0.42,-0.63,-2.53,3.24,
2.102,-2.71,6.59,-0.42,-0.58,-2.65,3.25,
2.104,-2.71,6.59,-0.42,-0.52,-2.74,3.27,
2.107,-2.67,7.14,0.25,-0.52,-2.74,3.27,
2.107,-2.67,7.14,0.25,-0.44,-2.81,3.29,
2.108,-2.67,7.14,0.25,-0.34,-2.83,3.30,
2.11,-2.67,7.14,0.25,-0.22,-2.78,3.32,
2.113,-2.67,7.14,0.25,-0.08,-2.69,3.34,
2.115,-2.67,7.14,0.25,0.08,-2.56,3.36,
2.117,-2.91,6.96,3.92,0.08,-2.56,3.36,
2.117,-2.91,6.96,3.92,0.27,-2.40,3.38,
2.119,-2.91,6.96,3.92,0.46,-2.21,3.40,
2.124,-2.91,6.96,3.92,0.67,-2.01,3.42,
2.125,-2.91,6.96,3.92,0.90,-1.80,3.45,
2.125,-2.91,6.96,3.92,1.12,-1.57,3.47,
2.13,-2.95,6.39,6.61,1.12,-1.57,3.47,
2.13,-2.95,6.39,6.61,1.34,-1.33,3.49,
2.131,-2.95,6.39,6.61,1.55,-1.07,3.51,
2.131,-2.95,6.39,6.61,1.75,-0.81,3.53,
2.133,-2.95,6.39,6.61,1.93,-0.56,3.55,
2.135,-2.95,6.39,6.61,2.10,-0.32,3.57,
2.139,-2.68,6.13,5.99,2.10,-0.32,3.57,
2.139,-2.68,6.13,5.99,2.24,-0.11,3.59,
2.14,-2.68,6.13,5.99,2.33,0.08,3.60,
2.142,-2.68,6.13,5.99,2.41,0.24,3.62,
2.143,-2.68,6.13,5.99,2.41,0.37,3.63,
2.177,-2.68,6.13,5.99,2.37,0.50,3.64,
2.178,-1.86,5.40,-0.22,2.37,0.50,3.64,
2.179,-1.86,5.40,-0.22,2.10,0.79,3.65,
2.179,-1.86,5.40,-0.22,2.10,0.79,3.65,
2.18,-1.86,5.40,-0.22,1.95,0.96,3.66,
2.181,-1.86,5.40,-0.22,1.78,1.16,3.67,
2.181,-1.86,5.40,-0.22,1.59,1.36,3.68,
2.182,-1.80,4.97,-3.48,1.59,1.36,3.68,
2.182,-1.80,4.97,-3.48,1.38,1.58,3.70,
2.183,-1.80,4.97,-3.48,1.20,1.80,3.71,
2.184,-1.80,4.97,-3.48,1.09,1.97,3.72,
2.185,-1.80,4.97,-3.48,1.00,2.11,3.75,
2.186,-1.80,4.97,-3.48,0.88,2.27,3.82,
2.186,-1.44,2.22,-4.25,0.88,2.27,3.82,
2.188,-1.44,2.22,-4.25,0.76,2.42,3.90,
2.189,-1.44,2.22,-4.25,0.65,2.52,3.91,
2.19,-1.44,2.22,-4.25,0.55,2.62,3.88,
2.191,-1.44,2.22,-4.25,0.44,2.69,3.86,
2.192,-1.44,2.22,-4.25,0.30,2.71,3.88,
2.193,0.00,-16.50,-3.30,0.30,2.71,3.88,
2.193,0.00,-16.50,-3.30,0.15,2.65,3.97,
2.194,0.00,-16.50,-3.30,-0.00,2.55,4.08,
2.194,0.00,-16.50,-3.30,-0.16,2.42,4.20,
2.195,0.00,-16.50,-3.30,-0.29,2.27,4.32,
2.195,0.00,-16.50,-3.30,-0.40,2.10,4.43,
2.196,-2.68,-36.91,-2.71,-0.40,2.10,4.43,
2.197,-2.68,-36.91,-2.71,-0.49,1.91,4.53,
2.197,-2.68,-36.91,-2.71,-0.54,1.69,4.64,
2.198,-2.68,-36.91,-2.71,-0.56,1.44,4.75,
2.199,-2.68,-36.91,-2.71,-0.54,1.19,4.84,
2.199,-2.68,-36.91,-2.71,-0.45,0.99,4.92,
2.2,-5.06,-52.25,1.62,-0.45,0.99,4.92,
2.201,-5.06,-52.25,1.62,-0.32,0.83,4.97,
2.201,-5.06,-52.25,1.62,-0.19,0.69,4.92,
2.202,-5.06,-52.25,1.62,-0.07,0.60,4.79,
2.202,-5.06,-52.25,1.62,0.07,0.58,4.60,
2.285,-5.06,-52.25,1.62,0.21,0.60,4.37,
2.287,-0.16,-45.43,3.28,0.21,0.60,4.37,
2.288,-0.16,-45.43,3.28,0.34,0.64,4.14,
2.288,-0.16,-45.43,3.28,0.47,0.68,3.89,
2.289,-0.16,-45.43,3.28,0.59,0.71,3.64,
2.289,-0.16,-45.43,3.28,0.69,0.72,3.39,
2.289,-0.16,-45.43,3.28,0.78,0.73,3.14,
2.289,2.71,-27.26,1.71,0.78,0.73,3.14,
2.29,2.71,-27.26,1.71,0.85,0.74,2.89,
2.29,2.71,-27.26,1.71,0.92,0.75,2.65,
2.29,2.71,-27.26,1.71,0.98,0.77,2.41,
2.29,2.71,-27.26,1.71,1.03,0.80,2.18,
2.29,2.71,-27.26,1.71,1.08,0.83,1.96,
2.291,3.83,-12.69,0.09,1.08,0.83,1.96,
2.291,3.83,-12.69,0.09,1.11,0.86,1.76,
2.291,3.83,-12.69,0.09,1.14,0.87,1.56,
2.291,3.83,-12.69,0.09,1.15,0.88,1.38,
2.291,3.83,-12.69,0.09,1.16,0.87,1.20,
2.291,3.83,-12.69,0.09,1.16,0.86,1.04,
2.292,4.16,-2.91,-1.41,1.16,0.86,1.04,
2.292,4.16,-2.91,-1.41,1.15,0.83,0.89,
2.292,4.16,-2.91,-1.41,1.14,0.81,0.75,
2.292,4.16,-2.91,-1.41,1.13,0.77,0.62,
2.292,4.16,-2.91,-1.41,1.11,0.74,0.52,
2.293,4.16,-2.91,-1.41,1.09,0.71,0.42,
2.293,3.41,3.36,-2.29,1.09,0.71,0.42,
2.293,3.41,3.36,-2.29,1.07,0.69,0.34,
2.293,3.41,3.36,-2.29,1.05,0.66,0.27,
2.293,3.41,3.36,-2.29,1.02,0.62,0.22,
2.294,3.41,3.36,-2.29,0.99,0.59,0.17,
2.294,3.41,3.36,-2.29,0.96,0.56,0.14,
2.294,2.39,7.23,-2.90,0.96,0.56,0.14,
2.294,2.39,7.23,-2.90,0.93,0.53,0.12,
2.294,2.39,7.23,-2.90,0.90,0.50,0.10,
2.294,2.39,7.23,-2.90,0.88,0.48,0.08,
2.295,2.39,7.23,-2.90,0.85,0.45,0.07,
2.295,2.39,7.23,-2.90,0.83,0.43,0.06,
2.295,1.89,9.16,-2.56,0.83,0.43,0.06,
2.295,1.89,9.16,-2.56,0.81,0.41,0.06,
2.295,1.89,9.16,-2.56,0.80,0.40,0.05,
2.296,1.89,9.16,-2.56,0.78,0.39,0.04,
2.296,1.89,9.16,-2.56,0.77,0.39,0.03,
2.296,1.89,9.16,-2.56,0.75,0.38,0.02,
2.296,1.86,9.56,-2.42,0.75,0.38,0.02,
2.296,1.86,9.56,-2.42,0.74,0.39,0.01,
2.297,1.86,9.56,-2.42,0.73,0.39,0.00,
2.297,1.86,9.56,-2.42,0.72,0.41,-0.00,
2.297,1.86,9.56,-2.42,0.71,0.42,-0.01,
2.297,1.86,9.56,-2.42,0.71,0.45,-0.02,
2.297,1.99,9.57,-2.08,0.71,0.45,-0.02,
2.298,1.99,9.57,-2.08,0.71,0.49,-0.03,
2.298,1.99,9.57,-2.08,0.71,0.53,-0.03,
2.298,1.99,9.57,-2.08,0.72,0.59,-0.04,
2.298,1.99,9.57,-2.08,0.73,0.66,-0.04,
2.298,1.99,9.57,-2.08,0.75,0.74,-0.04,
2.298,1.53,9.50,-1.64,0.75,0.74,-0.04,
2.299,1.53,9.50,-1.64,0.77,0.83,-0.04,
2.299,1.53,9.50,-1.64,0.79,0.93,-0.03,
2.301,1.53,9.50,-1.64,0.82,1.04,-0.03,
2.303,1.53,9.50,-1.64,0.85,1.16,-0.02,
2.305,1.53,9.50,-1.64,0.88,1.28,-0.02,
2.311,1.37,9.07,-1.48,0.88,1.28,-0.02,
2.311,1.37,9.07,-1.48,0.91,1.41,-0.02,
2.311,1.37,9.07,-1.48,0.94,1.54,-0.02,
2.33,1.37,9.07,-1.48,0.96,1.66,-0.01,
2.331,1.37,9.07,-1.48,0.99,1.78,-0.01,
2.331,1.37,9.07,-1.48,1.01,1.90,-0.01,
2.331,1.26,8.45,-1.76,1.01,1.90,-0.01,
2.331,1.26,8.45,-1.76,1.03,2.01,-0.01,
2.332,1.26,8.45,-1.76,1.05,2.11,-0.01,
2.332,1.26,8.45,-1.76,1.07,2.20,0.01,
2.332,1.26,8.45,-1.76,1.10,2.33,0.02,
2.333,1.26,8.45,-1.76,1.11,2.36,0.03,
2.333,0.85,7.46,-1.96,1.11,2.36,0.03,
2.333,0.85,7.46,-1.96,1.13,2.43,0.05,
2.333,0.85,7.46,-1.96,1.14,2.49,0.07,
2.334,0.85,7.46,-1.96,1.16,2.54,0.09,
2.334,0.85,7.46,-1.96,1.17,2.58,0.10,
2.359,0.85,7.46,-1.96,1.18,2.61,0.12,
2.36,0.12,5.76,-2.21,1.18,2.61,0.12,
2.36,0.12,5.76,-2.21,1.20,2.64,0.14,
2.36,0.12,5.76,-2.21,1.21,2.66,0.16,
2.36,0.12,5.76,-2.21,1.22,2.68,0.18,
2.36,0.12,5.76,-2.21,1.23,2.68,0.19,
2.361,0.12,5.76,-2.21,1.24,2.68,0.21,
2.361,-0.63,3.54,-2.40,1.24,2.68,0.21,
2.361,-0.63,3.54,-2.40,1.25,2.68,0.23,
2.361,-0.63,3.54,-2.40,1.27,2.67,0.26,
2.361,-0.63,3.54,-2.40,1.29,2.67,0.29,
2.361,-0.63,3.54,-2.40,1.31,2.66,0.31,
2.361,-0.63,3.54,-2.40,1.34,2.66,0.34,
2.362,-1.63,0.94,-1.99,1.34,2.66,0.34,
2.362,-1.63,0.94,-1.99,1.39,2.67,0.36,
2.362,-1.63,0.94,-1.99,1.44,2.70,0.38,
2.362,-1.63,0.94,-1.99,1.51,2.77,0.39,
2.363,-1.63,0.94,-1.99,1.58,2.86,0.41,
2.365,-1.63,0.94,-1.99,1.65,2.96,0.44,
2.367,-2.56,-2.00,-0.86,1.65,2.96,0.44,
2.367,-2.56,-2.00,-0.86,1.71,3.05,0.49,
2.371,-2.56,-2.00,-0.86,1.76,3.13,0.54,
2.371,-2.56,-2.00,-0.86,1.82,3.20,0.59,
2.373,-2.56,-2.00,-0.86,1.87,3.26,0.65,
2.374,-2.56,-2.00,-0.86,1.93,3.32,0.72,
2.377,-3.39,-4.96,-0.44,1.93,3.32,0.72,
2.377,-3.39,-4.96,-0.44,1.99,3.36,0.78,
2.378,-3.39,-4.96,-0.44,2.04,3.40,0.84,
2.38,-3.39,-4.96,-0.44,2.09,3.42,0.90,
2.382,-3.39,-4.96,-0.44,2.15,3.42,0.95,
2.384,-3.39,-4.96,-0.44,2.19,3.40,0.99,
2.387,-1.99,-5.89,0.39,2.19,3.40,0.99,
2.387,-1.99,-5.89,0.39,2.24,3.38,1.01,
2.388,-1.99,-5.89,0.39,2.28,3.33,1.02,
2.39,-1.99,-5.89,0.39,2.31,3.26,1.01,
2.392,-1.99,-5.89,0.39,2.35,3.17,0.98,
2.394,-1.99,-5.89,0.39,2.38,3.06,0.94,
2.397,1.45,-4.68,1.70,2.38,3.06,0.94,
2.397,1.45,-4.68,1.70,2.41,2.95,0.89,
2.398,1.45,-4.68,1.70,2.43,2.82,0.82,
2.4,1.45,-4.68,1.70,2.44,2.69,0.75,
2.403,1.45,-4.68,1.70,2.42,2.55,0.67,
2.405,1.45,-4.68,1.70,2.38,2.39,0.59,
2.407,3.73,-2.62,2.34,2.38,2.39,0.59,
2.407,3.73,-2.62,2.34,2.32,2.21,0.51,
2.411,3.73,-2.62,2.34,2.23,2.02,0.42,
2.411,3.73,-2.62,2.34,2.11,1.80,0.33,
2.412,3.73,-2.62,2.34,1.98,1.54,0.24,
2.414,3.73,-2.62,2.34,1.82,1.26,0.16,
2.417,3.93,-0.69,1.25,1.82,1.26,0.16,
2.417,3.93,-0.69,1.25,1.65,0.95,0.08,
2.418,3.93,-0.69,1.25,1.48,0.62,0.01,
2.421,3.93,-0.69,1.25,1.30,0.27,-0.06,
2.422,3.93,-0.69,1.25,1.12,-0.08,-0.12,
2.424,3.93,-0.69,1.25,0.95,-0.43,-0.16,
2.427,2.79,0.74,0.31,0.95,-0.43,-0.16,
2.427,2.79,0.74,0.31,0.79,-0.77,-0.20,
2.429,2.79,0.74,0.31,0.64,-1.10,-0.23,
2.431,2.79,0.74,0.31,0.50,-1.40,-0.25,
2.433,2.79,0.74,0.31,0.38,-1.69,-0.27,
2.435,2.79,0.74,0.31,0.27,-1.94,-0.28,
2.437,1.71,1.64,0.06,0.27,-1.94,-0.28,
2.438,1.71,1.64,0.06,0.16,-2.17,-0.29,
2.44,1.71,1.64,0.06,0.07,-2.37,-0.29,
2.441,1.71,1.64,0.06,-0.02,-2.54,-0.30,
2.445,1.71,1.64,0.06,-0.09,-2.67,-0.30,
2.446,1.71,1.64,0.06,-0.16,-2.78,-0.30,
2.45,1.05,2.38,-0.67,-0.16,-2.78,-0.30,
2.45,1.05,2.38,-0.67,-0.21,-2.85,-0.30,
2.451,1.05,2.38,-0.67,-0.26,-2.90,-0.30,
2.451,1.05,2.38,-0.67,-0.31,-2.92,-0.30,
2.455,1.05,2.38,-0.67,-0.34,-2.93,-0.30,
2.455,1.05,2.38,-0.67,-0.38,-2.93,-0.30,
2.458,0.79,2.90,-1.60,-0.38,-2.93,-0.30,
2.458,0.79,2.90,-1.60,-0.42,-2.91,-0.30,
2.459,0.79,2.90,-1.60,-0.45,-2.88,-0.30,
2.461,0.79,2.90,-1.60,-0.47,-2.84,-0.30,
2.462,0.79,2.90,-1.60,-0.50,-2.78,-0.30,
2.465,0.79,2.90,-1.60,-0.52,-2.72,-0.30,
2.467,0.75,3.41,-2.28,-0.52,-2.72,-0.30,
2.468,0.75,3.41,-2.28,-0.54,-2.65,-0.30,
2.469,0.75,3.41,-2.28,-0.56,-2.56,-0.30,
2.471,0.75,3.41,-2.28,-0.58,-2.47,-0.30,
2.473,0.75,3.41,-2.28,-0.59,-2.38,-0.30,
2.475,0.75,3.41,-2.28,-0.60,-2.28,-0.29,
2.477,0.63,3.94,-2.72,-0.60,-2.28,-0.29,
2.503,0.63,3.94,-2.72,-0.61,-2.18,-0.29,
2.504,0.63,3.94,-2.72,-0.61,-2.08,-0.28,
2.504,0.63,3.94,-2.72,-0.62,-1.97,-0.28,
2.504,0.63,3.94,-2.72,-0.62,-1.87,-0.27,
2.505,0.63,3.94,-2.72,-0.62,-1.77,-0.26,
2.505,0.54,4.43,-2.68,-0.62,-1.77,-0.26,
2.505,0.54,4.43,-2.68,-0.62,-1.68,-0.26,
2.506,0.54,4.43,-2.68,-0.62,-1.60,-0.25,
2.506,0.54,4.43,-2.68,-0.62,-1.51,-0.24,
2.506,0.54,4.43,-2.68,-0.61,-1.43,-0.24,
2.507,0.54,4.43,-2.68,-0.61,-1.35,-0.23,
2.507,0.53,4.74,-2.53,-0.61,-1.35,-0.23,
2.507,0.53,4.74,-2.53,-0.61,-1.28,-0.23,
2.508,0.53,4.74,-2.53,-0.61,-1.22,-0.22,
2.508,0.53,4.74,-2.53,-0.62,-1.16,-0.22,
2.508,0.53,4.74,-2.53,-0.63,-1.10,-0.23,
2.509,0.53,4.74,-2.53,-0.63,-1.05,-0.23,
2.509,0.97,4.64,-2.25,-0.63,-1.05,-0.23,
2.509,0.97,4.64,-2.25,-0.64,-1.01,-0.24,
2.51,0.97,4.64,-2.25,-0.65,-0.97,-0.25,
2.563,0.97,4.64,-2.25,-0.66,-0.94,-0.27,
2.564,0.97,4.64,-2.25,-0.67,-0.91,-0.29,
2.565,0.97,4.64,-2.25,-0.68,-0.88,-0.31,
2.565,1.51,4.10,-1.70,-0.68,-0.88,-0.31,
2.565,1.51,4.10,-1.70,-0.70,-0.86,-0.34,
2.566,1.51,4.10,-1.70,-0.72,-0.84,-0.36,
2.566,1.51,4.10,-1.70,-0.74,-0.83,-0.38,
2.567,1.51,4.10,-1.70,-0.76,-0.81,-0.41,
2.567,1.51,4.10,-1.70,-0.78,-0.80,-0.43,
2.57,1.76,2.99,-1.18,-0.78,-0.80,-0.43,
2.571,1.76,2.99,-1.18,-0.81,-0.79,-0.44,
2.571,1.76,2.99,-1.18,-0.84,-0.78,-0.45,
2.572,1.76,2.99,-1.18,-0.87,-0.77,-0.46,
2.572,1.76,2.99,-1.18,-0.89,-0.76,-0.47,
2.572,1.76,2.99,-1.18,-0.92,-0.75,-0.48,
2.573,2.00,1.75,-0.52,-0.92,-0.75,-0.48,
2.573,2.00,1.75,-0.52,-0.95,-0.74,-0.49,
2.573,2.00,1.75,-0.52,-0.98,-0.72,-0.50,
2.574,2.00,1.75,-0.52,-1.00,-0.71,-0.52,
2.574,2.00,1.75,-0.52,-1.02,-0.68,-0.53,
2.574,2.00,1.75,-0.52,-1.04,-0.66,-0.55,
2.575,2.50,0.52,0.60,-1.04,-0.66,-0.55,
2.575,2.50,0.52,0.60,-1.06,-0.63,-0.56,
2.576,2.50,0.52,0.60,-1.07,-0.60,-0.58,
2.576,2.50,0.52,0.60,-1.08,-0.56,-0.61,
2.576,2.50,0.52,0.60,-1.08,-0.53,-0.63,
2.577,2.50,0.52,0.60,-1.07,-0.49,-0.66,
2.577,3.08,-0.91,2.70,-1.07,-0.49,-0.66,
2.577,3.08,-0.91,2.70,-1.06,-0.44,-0.68,
2.578,3.08,-0.91,2.70,-1.03,-0.39,-0.70,
2.578,3.08,-0.91,2.70,-0.99,-0.35,-0.72,
2.578,3.08,-0.91,2.70,-0.95,-0.29,-0.73,
2.579,3.08,-0.91,2.70,-0.90,-0.24,-0.74,
2.579,2.69,-2.33,5.58,-0.90,-0.24,-0.74,
2.579,2.69,-2.33,5.58,-0.84,-0.18,-0.75,
2.58,2.69,-2.33,5.58,-0.77,-0.14,-0.75,
2.58,2.69,-2.33,5.58,-0.70,-0.09,-0.74,
2.581,2.69,-2.33,5.58,-0.63,-0.06,-0.73,
2.581,2.69,-2.33,5.58,-0.55,-0.03,-0.71,
2.581,1.73,-3.66,9.01,-0.55,-0.03,-0.71,
2.582,1.73,-3.66,9.01,-0.46,-0.01,-0.69,
2.582,1.73,-3.66,9.01,-0.36,-0.01,-0.67,
2.582,1.73,-3.66,9.01,-0.26,-0.04,-0.63,
2.583,1.73,-3.66,9.01,-0.16,-0.09,-0.59,
2.595,1.73,-3.66,9.01,-0.06,-0.16,-0.55,
2.596,0.37,-4.96,12.75,-0.06,-0.16,-0.55,
2.596,0.37,-4.96,12.75,0.06,-0.23,-0.50,
2.597,0.37,-4.96,12.75,0.18,-0.29,-0.45,
2.597,0.37,-4.96,12.75,0.31,-0.34,-0.40,
2.597,0.37,-4.96,12.75,0.44,-0.37,-0.34,
2.598,0.37,-4.96,12.75,0.55,-0.37,-0.29,
2.601,-0.90,-5.65,14.83,0.55,-0.37,-0.29,
2.606,-0.90,-5.65,14.83,0.66,-0.34,-0.25,
2.606,-0.90,-5.65,14.83,0.76,-0.27,-0.20,
2.607,-0.90,-5.65,14.83,0.85,-0.18,-0.15,
2.607,-0.90,-5.65,14.83,0.91,-0.06,-0.11,
2.607,-0.90,-5.65,14.83,0.96,0.08,-0.07,
2.608,-1.75,-5.26,12.50,0.96,0.08,-0.07,
2.608,-1.75,-5.26,12.50,0.99,0.23,-0.03,
2.609,-1.75,-5.26,12.50,1.01,0.38,-0.00,
2.612,-1.75,-5.26,12.50,1.01,0.53,0.02,
2.612,-1.75,-5.26,12.50,0.99,0.67,0.04,
2.619,-1.75,-5.26,12.50,0.96,0.81,0.05,
2.62,-1.62,-3.95,8.71,0.96,0.81,0.05,
2.629,-1.62,-3.95,8.71,0.92,0.95,0.06,
2.629,-1.62,-3.95,8.71,0.88,1.07,0.06,
2.63,-1.62,-3.95,8.71,0.83,1.18,0.06,
2.63,-1.62,-3.95,8.71,0.77,1.28,0.05,
2.63,-1.62,-3.95,8.71,0.70,1.37,0.04,
2.631,-1.11,-2.41,5.60,0.70,1.37,0.04,
2.631,-1.11,-2.41,5.60,0.64,1.45,0.03,
2.631,-1.11,-2.41,5.60,0.57,1.51,0.01,
2.631,-1.11,-2.41,5.60,0.50,1.56,-0.01,
2.636,-1.11,-2.41,5.60,0.42,1.60,-0.03,
2.637,-1.11,-2.41,5.60,0.34,1.63,-0.06,
2.65,-0.59,-0.98,2.98,0.34,1.63,-0.06,
2.653,-0.59,-0.98,2.98,0.26,1.65,-0.09,
2.653,-0.59,-0.98,2.98,0.17,1.66,-0.12,
2.654,-0.59,-0.98,2.98,0.08,1.67,-0.15,
2.654,-0.59,-0.98,2.98,-0.00,1.67,-0.18,
2.694,-0.25,0.20,0.27,-0.00,1.67,-0.18,
2.695,-0.25,0.20,0.27,-0.18,1.66,-0.26,
2.696,-0.25,0.20,0.27,-0.18,1.66,-0.26,
2.697,-0.25,0.20,0.27,-0.27,1.65,-0.29,
2.698,-0.25,0.20,0.27,-0.35,1.63,-0.33,
2.699,-0.25,0.20,0.27,-0.43,1.61,-0.37,
2.7,-0.25,0.20,0.27,-0.50,1.58,-0.41,
2.701,-0.27,1.23,-1.98,-0.50,1.58,-0.41,
2.702,-0.27,1.23,-1.98,-0.57,1.55,-0.45,
2.703,-0.27,1.23,-1.98,-0.64,1.51,-0.48,
2.704,-0.27,1.23,-1.98,-0.70,1.47,-0.52,
2.707,-0.27,1.23,-1.98,-0.75,1.43,-0.55,
2.707,-0.27,1.23,-1.98,-0.80,1.39,-0.58,
2.708,-0.50,2.00,-3.69,-0.80,1.39,-0.58,
2.708,-0.50,2.00,-3.69,-0.84,1.36,-0.61,
2.708,-0.50,2.00,-3.69,-0.87,1.32,-0.63,
2.709,-0.50,2.00,-3.69,-0.90,1.29,-0.65,
2.709,-0.50,2.00,-3.69,-0.93,1.25,-0.67,
2.709,-0.50,2.00,-3.69,-0.93,1.24,-0.67,
2.71,-1.10,2.11,-4.54,-0.93,1.24,-0.67,
2.71,-1.10,2.11,-4.54,-0.94,1.22,-0.67,
2.71,-1.10,2.11,-4.54,-0.94,1.20,-0.67,
2.711,-1.10,2.11,-4.54,-0.93,1.19,-0.66,
2.711,-1.10,2.11,-4.54,-0.92,1.17,-0.65,
2.712,-1.10,2.11,-4.54,-0.91,1.16,-0.62,
2.712,-1.76,1.39,-4.16,-0.91,1.16,-0.62,
2.712,-1.76,1.39,-4.16,-0.90,1.14,-0.59,
2.713,-1.76,1.39,-4.16,-0.88,1.13,-0.56,
2.713,-1.76,1.39,-4.16,-0.87,1.12,-0.51,
2.713,-1.76,1.39,-4.16,-0.86,1.11,-0.47,
2.714,-1.76,1.39,-4.16,-0.85,1.09,-0.41,
2.714,-2.39,-0.05,-3.56,-0.85,1.09,-0.41,
2.714,-2.39,-0.05,-3.56,-0.83,1.07,-0.36,
2.715,-2.39,-0.05,-3.56,-0.83,1.04,-0.31,
2.715,-2.39,-0.05,-3.56,-0.83,1.01,-0.25,
2.716,-2.39,-0.05,-3.56,-0.84,0.95,-0.19,
2.716,-2.39,-0.05,-3.56,-0.86,0.89,-0.12,
2.716,-2.42,-1.61,-3.77,-0.86,0.89,-0.12,
2.717,-2.42,-1.61,-3.77,-0.88,0.80,-0.06,
2.717,-2.42,-1.61,-3.77,-0.91,0.70,0.00,
2.717,-2.42,-1.61,-3.77,-0.95,0.58,0.07,
2.718,-2.42,-1.61,-3.77,-0.99,0.43,0.13,
2.718,-2.42,-1.61,-3.77,-1.03,0.26,0.19,
2.718,-2.25,-2.76,-4.83,-1.03,0.26,0.19,
2.719,-2.25,-2.76,-4.83,-1.08,0.07,0.25,
2.719,-2.25,-2.76,-4.83,-1.12,-0.16,0.30,
2.76,-2.25,-2.76,-4.83,-1.16,-0.42,0.35,
2.76,-2.25,-2.76,-4.83,-1.20,-0.70,0.40,
2.76,-2.25,-2.76,-4.83,-1.24,-1.01,0.44,
2.76,-1.73,-3.13,-5.41,-1.24,-1.01,0.44,
2.76,-1.73,-3.13,-5.41,-1.26,-1.34,0.47,
2.761,-1.73,-3.13,-5.41,-1.28,-1.70,0.50,
2.761,-1.73,-3.13,-5.41,-1.29,-2.06,0.51,
2.761,-1.73,-3.13,-5.41,-1.29,-2.44,0.53,
2.761,-1.73,-3.13,-5.41,-1.29,-2.82,0.53,
2.761,-0.92,-2.83,-5.48,-1.29,-2.82,0.53,
2.761,-0.92,-2.83,-5.48,-1.28,-3.21,0.53,
2.762,-0.92,-2.83,-5.48,-1.27,-3.60,0.52,
2.762,-0.92,-2.83,-5.48,-1.25,-3.99,0.51,
2.762,-0.92,-2.83,-5.48,-1.23,-4.37,0.49,
2.762,-0.92,-2.83,-5.48,-1.20,-4.75,0.47,
2.762,-0.13,-2.13,-4.99,-1.20,-4.75,0.47,
2.763,-0.13,-2.13,-4.99,-1.18,-5.11,0.44,
2.763,-0.13,-2.13,-4.99,-1.15,-5.46,0.42,
2.763,-0.13,-2.13,-4.99,-1.12,-5.78,0.39,
2.763,-0.13,-2.13,-4.99,-1.08,-6.07,0.35,
2.763,-0.13,-2.13,-4.99,-1.06,-6.32,0.32,
2.763,0.05,-1.61,-4.74,-1.06,-6.32,0.32,
2.764,0.05,-1.61,-4.74,-1.03,-6.55,0.30,
2.764,0.05,-1.61,-4.74,-1.00,-6.73,0.28,
2.764,0.05,-1.61,-4.74,-0.98,-6.89,0.26,
2.764,0.05,-1.61,-4.74,-0.96,-7.03,0.26,
2.764,0.05,-1.61,-4.74,-0.95,-7.13,0.25,
2.768,-0.90,-1.32,-4.64,-0.95,-7.13,0.25,
2.769,-0.90,-1.32,-4.64,-0.94,-7.21,0.25,
2.769,-0.90,-1.32,-4.64,-0.94,-7.27,0.26,
2.771,-0.90,-1.32,-4.64,-0.94,-7.29,0.27,
2.775,-0.90,-1.32,-4.64,-0.94,-7.29,0.29,
2.776,-0.90,-1.32,-4.64,-0.95,-7.25,0.31,
2.78,-2.05,-1.23,-4.91,-0.95,-7.25,0.31,
2.78,-2.05,-1.23,-4.91,-0.97,-7.19,0.33,
2.78,-2.05,-1.23,-4.91,-0.99,-7.10,0.35,
2.78,-2.05,-1.23,-4.91,-1.01,-6.98,0.37,
2.785,-2.05,-1.23,-4.91,-1.05,-6.84,0.39,
2.785,-2.05,-1.23,-4.91,-1.08,-6.68,0.41,
2.792,-2.28,-1.00,-4.80,-1.08,-6.68,0.41,
2.792,-2.28,-1.00,-4.80,-1.11,-6.50,0.43,
2.792,-2.28,-1.00,-4.80,-1.13,-6.30,0.45,
2.799,-2.28,-1.00,-4.80,-1.12,-5.93,0.48,
2.799,-2.28,-1.00,-4.80,-1.10,-5.78,0.49,
2.799,-2.28,-1.00,-4.80,-1.04,-5.45,0.51,
2.799,-2.24,-0.24,-1.31,-1.04,-5.45,0.51,
2.8,-2.24,-0.24,-1.31,-0.95,-5.05,0.53,
2.8,-2.24,-0.24,-1.31,-0.80,-4.50,0.52,
2.814,-2.24,-0.24,-1.31,-0.66,-3.87,0.49,
2.815,-2.24,-0.24,-1.31,-0.58,-3.27,0.44,
2.815,-2.24,-0.24,-1.31,-0.53,-2.70,0.38,
2.815,0.27,0.61,1.36,-0.53,-2.70,0.38,
2.816,0.27,0.61,1.36,-0.50,-2.14,0.31,
2.816,0.27,0.61,1.36,-0.51,-1.61,0.24,
2.841,0.27,0.61,1.36,-0.54,-1.11,0.17,
2.841,0.27,0.61,1.36,-0.59,-0.67,0.10,
2.841,0.27,0.61,1.36,-0.66,-0.29,0.04,
2.842,1.92,0.36,-2.01,-0.66,-0.29,0.04,
2.842,1.92,0.36,-2.01,-0.74,0.03,-0.01,
2.842,1.92,0.36,-2.01,-0.83,0.29,-0.06,
2.842,1.92,0.36,-2.01,-0.92,0.50,-0.10,
2.843,1.92,0.36,-2.01,-1.01,0.65,-0.15,
2.843,1.92,0.36,-2.01,-1.11,0.75,-0.19,
2.843,2.37,-0.30,-4.02,-1.11,0.75,-0.19,
2.843,2.37,-0.30,-4.02,-1.21,0.79,-0.25,
2.844,2.37,-0.30,-4.02,-1.32,0.79,-0.30,
2.844,2.37,-0.30,-4.02,-1.42,0.74,-0.37,
2.844,2.37,-0.30,-4.02,-1.53,0.67,-0.44,
2.845,2.37,-0.30,-4.02,-1.63,0.58,-0.52,
2.845,3.68,-0.91,-5.38,-1.63,0.58,-0.52,
2.845,3.68,-0.91,-5.38,-1.73,0.48,-0.61,
2.845,3.68,-0.91,-5.38,-1.83,0.37,-0.70,
2.846,3.68,-0.91,-5.38,-1.95,0.19,-0.84,
2.846,3.68,-0.91,-5.38,-1.99,0.14,-0.89,
2.846,3.68,-0.91,-5.38,-2.10,-0.04,-1.03,
2.846,4.75,-1.55,-5.00,-2.10,-0.04,-1.03,
2.847,4.75,-1.55,-5.00,-2.17,-0.17,-1.13,
2.878,4.75,-1.55,-5.00,-2.20,-0.23,-1.18,
2.878,4.75,-1.55,-5.00,-2.28,-0.40,-1.33,
2.878,4.75,-1.55,-5.00,-2.30,-0.45,-1.38,
2.878,4.75,-1.55,-5.00,-2.37,-0.63,-1.53,
2.879,5.74,-2.13,-4.22,-2.37,-0.63,-1.53,
2.879,5.74,-2.13,-4.22,-2.41,-0.74,-1.63,
2.879,5.74,-2.13,-4.22,-2.43,-0.80,-1.68,
2.879,5.74,-2.13,-4.22,-2.48,-0.99,-1.84,
2.879,5.74,-2.13,-4.22,-2.51,-1.13,-1.93,
2.879,5.74,-2.13,-4.22,-2.53,-1.27,-2.02,
2.88,6.45,-2.45,-3.66,-2.53,-1.27,-2.02,
2.88,6.45,-2.45,-3.66,-2.56,-1.40,-2.11,
2.88,6.45,-2.45,-3.66,-2.56,-1.47,-2.15,
2.88,6.45,-2.45,-3.66,-2.56,-1.67,-2.25,
2.88,6.45,-2.45,-3.66,-2.56,-1.73,-2.28,
2.881,6.45,-2.45,-3.66,-2.54,-1.88,-2.36,
2.881,6.34,-2.50,-2.80,-2.54,-1.88,-2.36,
2.881,6.34,-2.50,-2.80,-2.52,-1.95,-2.42,
2.881,6.34,-2.50,-2.80,-2.48,-2.05,-2.47,
2.881,6.34,-2.50,-2.80,-2.40,-2.17,-2.49,
2.896,6.34,-2.50,-2.80,-2.32,-2.29,-2.50,
2.896,6.34,-2.50,-2.80,-2.24,-2.40,-2.50,
2.896,5.19,-1.97,-1.05,-2.24,-2.40,-2.50,
2.896,5.19,-1.97,-1.05,-2.14,-2.49,-2.49,
2.897,5.19,-1.97,-1.05,-2.04,-2.56,-2.47,
2.897,5.19,-1.97,-1.05,-1.94,-2.63,-2.45,
2.897,5.19,-1.97,-1.05,-1.84,-2.69,-2.41,
2.897,5.19,-1.97,-1.05,-1.74,-2.73,-2.37,
2.897,4.10,-1.11,-0.21,-1.74,-2.73,-2.37,
2.897,4.10,-1.11,-0.21,-1.64,-2.75,-2.32,
2.92,4.10,-1.11,-0.21,-1.54,-2.76,-2.27,
2.921,4.10,-1.11,-0.21,-1.44,-2.75,-2.20,
2.921,4.10,-1.11,-0.21,-1.35,-2.73,-2.14,
2.921,4.10,-1.11,-0.21,-1.26,-2.70,-2.07,
2.922,3.15,-0.11,-0.22,-1.26,-2.70,-2.07,
2.922,3.15,-0.11,-0.22,-1.17,-2.66,-2.01,
2.922,3.15,-0.11,-0.22,-1.09,-2.60,-1.94,
2.922,3.15,-0.11,-0.22,-1.01,-2.54,-1.87,
2.923,3.15,-0.11,-0.22,-0.93,-2.47,-1.80,
2.923,3.15,-0.11,-0.22,-0.86,-2.39,-1.73,
2.923,2.96,0.81,-0.49,-0.86,-2.39,-1.73,
2.924,2.96,0.81,-0.49,-0.80,-2.31,-1.67,
2.924,2.96,0.81,-0.49,-0.74,-2.22,-1.60,
2.924,2.96,0.81,-0.49,-0.69,-2.12,-1.55,
2.924,2.96,0.81,-0.49,-0.64,-2.01,-1.49,
2.925,2.96,0.81,-0.49,-0.59,-1.91,-1.43,
2.93,2.96,1.53,-0.83,-0.59,-1.91,-1.43,
2.93,2.96,1.53,-0.83,-0.55,-1.79,-1.38,
2.93,2.96,1.53,-0.83,-0.51,-1.67,-1.33,
2.93,2.96,1.53,-0.83,-0.47,-1.55,-1.28,
2.934,2.96,1.53,-0.83,-0.44,-1.43,-1.24,
2.934,2.96,1.53,-0.83,-0.42,-1.32,-1.19,
2.939,3.03,2.11,-0.90,-0.42,-1.32,-1.19,
2.939,3.03,2.11,-0.90,-0.39,-1.20,-1.15,
2.939,3.03,2.11,-0.90,-0.37,-1.10,-1.10,
2.943,3.03,2.11,-0.90,-0.36,-1.00,-1.06,
2.944,3.03,2.11,-0.90,-0.35,-0.89,-1.01,
2.947,3.03,2.11,-0.90,-0.34,-0.79,-0.97,
2.947,2.83,2.41,-0.84,-0.34,-0.79,-0.97,
2.948,2.83,2.41,-0.84,-0.34,-0.68,-0.94,
2.955,2.83,2.41,-0.84,-0.35,-0.59,-0.90,
2.956,2.83,2.41,-0.84,-0.36,-0.49,-0.86,
2.956,2.83,2.41,-0.84,-0.37,-0.40,-0.83,
2.957,2.83,2.41,-0.84,-0.39,-0.32,-0.80,
2.961,2.76,2.42,-0.82,-0.39,-0.32,-0.80,
2.961,2.76,2.42,-0.82,-0.43,-0.25,-0.77,
2.962,2.76,2.42,-0.82,-0.52,-0.31,-0.74,
2.962,2.76,2.42,-0.82,-0.67,-0.49,-0.72,
2.963,2.76,2.42,-0.82,-0.85,-0.71,-0.72,
2.968,2.76,2.42,-0.82,-1.03,-0.96,-0.71,
2.968,2.56,2.31,0.28,-1.03,-0.96,-0.71,
2.969,2.56,2.31,0.28,-1.24,-1.22,-0.72,
2.969,2.56,2.31,0.28,-1.44,-1.47,-0.73,
2.976,2.56,2.31,0.28,-1.64,-1.72,-0.74,
2.977,2.56,2.31,0.28,-1.82,-1.94,-0.76,
2.977,2.56,2.31,0.28,-1.99,-2.14,-0.78,
2.978,2.21,1.67,0.93,-1.99,-2.14,-0.78,
3.0,2.21,1.67,0.93,-2.14,-2.32,-0.79,
3.0,2.21,1.67,0.93,-2.28,-2.49,-0.79,
3.0,2.21,1.67,0.93,-2.38,-2.66,-0.78,
3.001,2.21,1.67,0.93,-2.46,-2.82,-0.75,
3.001,2.21,1.67,0.93,-2.51,-2.97,-0.72,
3.001,0.60,0.91,2.69,-2.51,-2.97,-0.72,
3.001,0.60,0.91,2.69,-2.54,-3.11,-0.68,
3.001,0.60,0.91,2.69,-2.56,-3.24,-0.63,
3.002,0.60,0.91,2.69,-2.55,-3.35,-0.58,
3.002,0.60,0.91,2.69,-2.52,-3.44,-0.52,
3.002,0.60,0.91,2.69,-2.48,-3.51,-0.47,
3.002,-0.44,0.15,4.69,-2.48,-3.51,-0.47,
3.002,-0.44,0.15,4.69,-2.42,-3.57,-0.42,
3.002,-0.44,0.15,4.69,-2.35,-3.61,-0.37,
3.003,-0.44,0.15,4.69,-2.26,-3.64,-0.33,
3.003,-0.44,0.15,4.69,-2.17,-3.64,-0.30,
3.035,-0.44,0.15,4.69,-2.06,-3.63,-0.26,
3.036,-0.32,-0.20,5.61,-2.06,-3.63,-0.26,
3.036,-0.32,-0.20,5.61,-1.94,-3.60,-0.24,
3.036,-0.32,-0.20,5.61,-1.82,-3.56,-0.22,
3.037,-0.32,-0.20,5.61,-1.69,-3.50,-0.21,
3.037,-0.32,-0.20,5.61,-1.56,-3.43,-0.21,
3.037,-0.32,-0.20,5.61,-1.43,-3.35,-0.21,
3.037,0.14,-0.07,5.66,-1.43,-3.35,-0.21,
3.038,0.14,-0.07,5.66,-1.30,-3.25,-0.22,
3.038,0.14,-0.07,5.66,-1.18,-3.14,-0.23,
3.038,0.14,-0.07,5.66,-1.06,-3.03,-0.25,
3.039,0.14,-0.07,5.66,-0.94,-2.90,-0.27,
3.039,0.14,-0.07,5.66,-0.83,-2.77,-0.29,
3.039,0.46,0.28,4.48,-0.83,-2.77,-0.29,
3.039,0.46,0.28,4.48,-0.72,-2.63,-0.31,
3.04,0.46,0.28,4.48,-0.63,-2.49,-0.33,
3.04,0.46,0.28,4.48,-0.54,-2.34,-0.35,
3.04,0.46,0.28,4.48,-0.45,-2.20,-0.37,
3.04,0.46,0.28,4.48,-0.38,-2.05,-0.38,
3.041,0.34,0.64,3.07,-0.38,-2.05,-0.38,
3.041,0.34,0.64,3.07,-0.32,-1.90,-0.38,
3.041,0.34,0.64,3.07,-0.26,-1.75,-0.38,
3.041,0.34,0.64,3.07,-0.22,-1.61,-0.37,
3.043,0.34,0.64,3.07,-0.18,-1.46,-0.35,
3.048,0.34,0.64,3.07,-0.16,-1.33,-0.33,
3.048,-0.22,1.15,1.44,-0.16,-1.33,-0.33,
3.049,-0.22,1.15,1.44,-0.14,-1.19,-0.31,
3.049,-0.22,1.15,1.44,-0.13,-1.06,-0.28,
3.052,-0.22,1.15,1.44,-0.14,-0.94,-0.26,
3.054,-0.22,1.15,1.44,-0.16,-0.82,-0.23,
3.055,-0.22,1.15,1.44,-0.19,-0.70,-0.20,
3.058,-0.52,1.43,-0.09,-0.19,-0.70,-0.20,
3.058,-0.52,1.43,-0.09,-0.22,-0.60,-0.17,
3.058,-0.52,1.43,-0.09,-0.27,-0.51,-0.14,
3.061,-0.52,1.43,-0.09,-0.32,-0.43,-0.11,
3.063,-0.52,1.43,-0.09,-0.38,-0.36,-0.08,
3.065,-0.52,1.43,-0.09,-0.45,-0.30,-0.06,
3.068,-0.37,1.53,-1.15,-0.45,-0.30,-0.06,
3.069,-0.37,1.53,-1.15,-0.52,-0.26,-0.03,
3.071,-0.37,1.53,-1.15,-0.61,-0.22,-0.00,
3.071,-0.37,1.53,-1.15,-0.69,-0.21,0.02,
3.074,-0.37,1.53,-1.15,-0.78,-0.20,0.05,
3.082,-0.37,1.53,-1.15,-0.87,-0.21,0.07,
3.082,-0.15,1.40,-1.64,-0.87,-0.21,0.07,
3.083,-0.15,1.40,-1.64,-0.96,-0.24,0.09,
3.083,-0.15,1.40,-1.64,-1.04,-0.28,0.11,
3.083,-0.15,1.40,-1.64,-1.13,-0.33,0.12,
3.112,-0.15,1.40,-1.64,-1.21,-0.38,0.14,
3.113,-0.15,1.40,-1.64,-1.29,-0.42,0.15,
3.113,0.10,1.15,-1.30,-1.29,-0.42,0.15,
3.113,0.10,1.15,-1.30,-1.37,-0.47,0.16,
3.113,0.10,1.15,-1.30,-1.44,-0.51,0.17,
3.113,0.10,1.15,-1.30,-1.51,-0.55,0.18,
3.114,0.10,1.15,-1.30,-1.57,-0.58,0.18,
3.114,0.10,1.15,-1.30,-1.63,-0.61,0.19,
3.114,0.46,0.74,-0.69,-1.63,-0.61,0.19,
3.114,0.46,0.74,-0.69,-1.69,-0.64,0.19,
3.114,0.46,0.74,-0.69,-1.74,-0.66,0.20,
3.114,0.46,0.74,-0.69,-1.79,-0.67,0.20,
3.115,0.46,0.74,-0.69,-1.83,-0.69,0.20,
3.115,0.46,0.74,-0.69,-1.87,-0.69,0.20,
3.115,0.65,0.07,0.15,-1.87,-0.69,0.20,
3.115,0.65,0.07,0.15,-1.91,-0.71,0.21,
3.115,0.65,0.07,0.15,-1.95,-0.71,0.21,
3.115,0.65,0.07,0.15,-2.00,-0.72,0.21,
3.116,0.65,0.07,0.15,-2.04,-0.74,0.20,
3.116,0.65,0.07,0.15,-2.08,-0.75,0.20,
3.119,0.80,-0.72,1.15,-2.08,-0.75,0.20,
3.12,0.80,-0.72,1.15,-2.13,-0.77,0.19,
3.12,0.80,-0.72,1.15,-2.19,-0.79,0.19,
3.122,0.80,-0.72,1.15,-2.24,-0.82,0.18,
3.123,0.80,-0.72,1.15,-2.30,-0.85,0.18,
3.125,0.80,-0.72,1.15,-2.37,-0.88,0.17,
3.127,0.80,-1.67,2.38,-2.37,-0.88,0.17,
3.128,0.80,-1.67,2.38,-2.43,-0.93,0.17,
3.129,0.80,-1.67,2.38,-2.50,-0.97,0.16,
3.131,0.80,-1.67,2.38,-2.56,-1.02,0.16,
3.135,0.80,-1.67,2.38,-2.63,-1.07,0.17,
3.135,0.80,-1.67,2.38,-2.68,-1.12,0.18,
3.138,0.70,-2.97,4.56,-2.68,-1.12,0.18,
3.138,0.70,-2.97,4.56,-2.73,-1.17,0.19,
3.139,0.70,-2.97,4.56,-2.76,-1.21,0.21,
3.141,0.70,-2.97,4.56,-2.78,-1.24,0.23,
3.143,0.70,-2.97,4.56,-2.79,-1.27,0.24,
3.164,0.70,-2.97,4.56,-2.76,-1.28,0.27,
3.164,1.07,-4.09,9.73,-2.76,-1.28,0.27,
3.164,1.07,-4.09,9.73,-2.64,-1.26,0.31,
3.164,1.07,-4.09,9.73,-2.64,-1.26,0.31,
3.165,1.07,-4.09,9.73,-2.52,-1.22,0.32,
3.165,1.07,-4.09,9.73,-2.36,-1.14,0.33,
3.165,1.07,-4.09,9.73,-2.14,-1.03,0.32,
3.166,2.24,-3.89,15.77,-2.14,-1.03,0.32,
3.166,2.24,-3.89,15.77,-1.88,-0.89,0.31,
3.166,2.24,-3.89,15.77,-1.61,-0.76,0.29,
3.166,2.24,-3.89,15.77,-1.34,-0.67,0.26,
3.167,2.24,-3.89,15.77,-1.07,-0.59,0.24,
3.167,2.24,-3.89,15.77,-0.81,-0.55,0.22,
3.167,3.70,-3.07,17.82,-0.81,-0.55,0.22,
3.168,3.70,-3.07,17.82,-0.57,-0.53,0.21,
3.193,3.70,-3.07,17.82,-0.34,-0.53,0.20,
3.193,3.70,-3.07,17.82,-0.13,-0.54,0.20,
3.193,3.70,-3.07,17.82,0.07,-0.56,0.21,
3.194,3.70,-3.07,17.82,0.26,-0.58,0.22,
3.194,3.23,-2.66,13.56,0.26,-0.58,0.22,
3.194,3.23,-2.66,13.56,0.43,-0.61,0.23,
3.194,3.23,-2.66,13.56,0.60,-0.62,0.25,
3.194,3.23,-2.66,13.56,0.75,-0.62,0.26,
3.194,3.23,-2.66,13.56,0.89,-0.61,0.27,
3.194,3.23,-2.66,13.56,1.02,-0.59,0.28,
3.194,2.50,-2.46,8.30,1.02,-0.59,0.28,
3.195,2.50,-2.46,8.30,1.14,-0.56,0.28,
3.195,2.50,-2.46,8.30,1.23,-0.51,0.29,
3.195,2.50,-2.46,8.30,1.32,-0.44,0.29,
3.195,2.50,-2.46,8.30,1.40,-0.37,0.29,
3.195,2.50,-2.46,8.30,1.46,-0.29,0.29,
3.199,1.88,-2.50,3.93,1.46,-0.29,0.29,
3.199,1.88,-2.50,3.93,1.52,-0.20,0.28,
3.199,1.88,-2.50,3.93,1.57,-0.10,0.28,
3.203,1.88,-2.50,3.93,1.61,-0.00,0.28,
3.204,1.88,-2.50,3.93,1.64,0.09,0.29,
3.207,1.88,-2.50,3.93,1.68,0.19,0.29,
3.207,1.01,-3.06,1.25,1.68,0.19,0.29,
3.207,1.01,-3.06,1.25,1.70,0.28,0.30,
3.21,1.01,-3.06,1.25,1.72,0.37,0.31,
3.21,1.01,-3.06,1.25,1.74,0.44,0.32,
3.214,1.01,-3.06,1.25,1.75,0.51,0.33,
3.214,1.01,-3.06,1.25,1.76,0.58,0.34,
3.223,0.55,-3.77,0.16,1.76,0.58,0.34,
3.223,0.55,-3.77,0.16,1.76,0.63,0.35,
3.223,0.55,-3.77,0.16,1.75,0.68,0.36,
3.223,0.55,-3.77,0.16,1.74,0.72,0.36,
3.231,0.55,-3.77,0.16,1.72,0.76,0.36,
3.231,0.55,-3.77,0.16,1.69,0.79,0.36,
3.231,0.97,-4.66,-0.21,1.69,0.79,0.36,
3.231,0.97,-4.66,-0.21,1.66,0.83,0.36,
3.231,0.97,-4.66,-0.21,1.62,0.86,0.35,
3.231,0.97,-4.66,-0.21,1.58,0.89,0.34,
3.235,0.97,-4.66,-0.21,1.53,0.92,0.32,
3.235,0.97,-4.66,-0.21,1.49,0.95,0.31,
3.243,1.32,-5.08,0.43,1.49,0.95,0.31,
3.243,1.32,-5.08,0.43,1.45,0.97,0.29,
3.243,1.32,-5.08,0.43,1.41,1.00,0.28,
3.243,1.32,-5.08,0.43,1.38,1.02,0.27,
3.244,1.32,-5.08,0.43,1.36,1.06,0.27,
3.244,1.32,-5.08,0.43,1.34,1.09,0.28,
3.249,0.50,-4.30,2.63,1.34,1.09,0.28,
3.249,0.50,-4.30,2.63,1.35,1.14,0.29,
3.249,0.50,-4.30,2.63,1.37,1.20,0.32,
3.25,0.50,-4.30,2.63,1.41,1.27,0.35,
3.252,0.50,-4.30,2.63,1.47,1.37,0.38,
3.254,0.50,-4.30,2.63,1.54,1.49,0.43,
3.257,-0.71,-2.89,5.68,1.54,1.49,0.43,
3.257,-0.71,-2.89,5.68,1.64,1.64,0.49,
3.258,-0.71,-2.89,5.68,1.77,1.81,0.55,
3.26,-0.71,-2.89,5.68,1.94,2.02,0.60,
3.264,-0.71,-2.89,5.68,2.16,2.27,0.66,
3.264,-0.71,-2.89,5.68,2.44,2.61,0.73,
3.267,-1.57,-1.91,11.43,2.44,2.61,0.73,
3.267,-1.57,-1.91,11.43,2.79,2.99,0.79,
3.268,-1.57,-1.91,11.43,3.14,3.36,0.86,
3.271,-1.57,-1.91,11.43,3.47,3.69,0.91,
3.272,-1.57,-1.91,11.43,3.77,3.98,0.95,
3.274,-1.57,-1.91,11.43,4.04,4.22,0.98,
3.277,-1.07,-2.21,13.09,4.04,4.22,0.98,
3.277,-1.07,-2.21,13.09,4.26,4.41,0.99,
3.279,-1.07,-2.21,13.09,4.44,4.54,0.99,
3.281,-1.07,-2.21,13.09,4.57,4.63,0.98,
3.283,-1.07,-2.21,13.09,4.65,4.66,0.95,
3.285,-1.07,-2.21,13.09,4.69,4.65,0.92,
3.287,1.59,-4.03,4.91,4.69,4.65,0.92,
3.288,1.59,-4.03,4.91,4.69,4.59,0.87,
3.289,1.59,-4.03,4.91,4.65,4.48,0.81,
3.291,1.59,-4.03,4.91,4.59,4.34,0.74,
3.293,1.59,-4.03,4.91,4.50,4.16,0.65,
3.295,1.59,-4.03,4.91,4.39,3.95,0.57,
3.298,5.15,-4.91,-3.79,4.39,3.95,0.57,
3.3,5.15,-4.91,-3.79,4.26,3.73,0.48,
3.3,5.15,-4.91,-3.79,4.13,3.48,0.39,
3.301,5.15,-4.91,-3.79,3.98,3.23,0.30,
3.308,5.15,-4.91,-3.79,3.84,2.96,0.21,
3.308,5.15,-4.91,-3.79,3.70,2.69,0.13,
3.308,6.53,-4.25,-7.68,3.70,2.69,0.13,
3.309,6.53,-4.25,-7.68,3.55,2.41,0.04,
3.309,6.53,-4.25,-7.68,3.42,2.13,-0.03,
3.331,6.53,-4.25,-7.68,3.28,1.85,-0.09,
3.331,6.53,-4.25,-7.68,3.15,1.57,-0.14,
3.331,6.53,-4.25,-7.68,3.02,1.31,-0.18,
3.331,5.69,-3.94,-7.89,3.02,1.31,-0.18,
3.332,5.69,-3.94,-7.89,2.90,1.06,-0.20,
3.332,5.69,-3.94,-7.89,2.78,0.82,-0.21,
3.332,5.69,-3.94,-7.89,2.67,0.60,-0.22,
3.333,5.69,-3.94,-7.89,2.56,0.40,-0.22,
3.333,5.69,-3.94,-7.89,2.46,0.22,-0.21,
3.333,3.55,-4.10,-6.97,2.46,0.22,-0.21,
3.334,3.55,-4.10,-6.97,2.37,0.05,-0.20,
3.334,3.55,-4.10,-6.97,2.28,-0.11,-0.19,
3.334,3.55,-4.10,-6.97,2.20,-0.25,-0.17,
3.334,3.55,-4.10,-6.97,2.12,-0.37,-0.15,
3.335,3.55,-4.10,-6.97,2.06,-0.49,-0.14,
3.371,2.18,-4.61,-6.12,2.06,-0.49,-0.14,
3.372,2.18,-4.61,-6.12,1.99,-0.59,-0.12,
3.372,2.18,-4.61,-6.12,1.94,-0.67,-0.10,
3.372,2.18,-4.61,-6.12,1.89,-0.74,-0.09,
3.373,2.18,-4.61,-6.12,1.84,-0.80,-0.07,
3.373,2.18,-4.61,-6.12,1.79,-0.84,-0.06,
3.373,1.27,-5.15,-5.44,1.79,-0.84,-0.06,
3.373,1.27,-5.15,-5.44,1.76,-0.89,-0.04,
3.374,1.27,-5.15,-5.44,1.72,-0.91,-0.02,
3.374,1.27,-5.15,-5.44,1.70,-0.93,-0.01,
3.374,1.27,-5.15,-5.44,1.67,-0.95,0.01,
3.374,1.27,-5.15,-5.44,1.65,-0.95,0.02,
3.375,0.51,-5.57,-5.22,1.65,-0.95,0.02,
3.375,0.51,-5.57,-5.22,1.64,-0.95,0.04,
3.375,0.51,-5.57,-5.22,1.63,-0.94,0.05,
3.376,0.51,-5.57,-5.22,1.62,-0.93,0.07,
3.376,0.51,-5.57,-5.22,1.61,-0.92,0.08,
3.376,0.51,-5.57,-5.22,1.61,-0.90,0.09,
3.376,-0.22,-5.45,-4.83,1.61,-0.90,0.09,
3.377,-0.22,-5.45,-4.83,1.61,-0.88,0.11,
3.377,-0.22,-5.45,-4.83,1.61,-0.86,0.13,
3.377,-0.22,-5.45,-4.83,1.61,-0.83,0.15,
3.377,-0.22,-5.45,-4.83,1.61,-0.80,0.17,
3.378,-0.22,-5.45,-4.83,1.62,-0.77,0.20,
3.378,-1.16,-4.93,-4.58,1.62,-0.77,0.20,
3.378,-1.16,-4.93,-4.58,1.62,-0.73,0.23,
3.378,-1.16,-4.93,-4.58,1.63,-0.70,0.26,
3.384,-1.16,-4.93,-4.58,1.63,-0.66,0.30,
3.385,-1.16,-4.93,-4.58,1.63,-0.63,0.33,
3.39,-1.16,-4.93,-4.58,1.64,-0.59,0.38,
3.39,-2.05,-4.15,-4.28,1.64,-0.59,0.38,
3.39,-2.05,-4.15,-4.28,1.64,-0.56,0.42,
3.391,-2.05,-4.15,-4.28,1.65,-0.53,0.47,
3.391,-2.05,-4.15,-4.28,1.66,-0.51,0.52,
3.395,-2.05,-4.15,-4.28,1.67,-0.48,0.56,
3.396,-2.05,-4.15,-4.28,1.67,-0.45,0.62,
3.4,-2.88,-3.37,-4.13,1.67,-0.45,0.62,
3.401,-2.88,-3.37,-4.13,1.68,-0.43,0.67,
3.401,-2.88,-3.37,-4.13,1.69,-0.39,0.72,
3.404,-2.88,-3.37,-4.13,1.70,-0.36,0.77,
3.405,-2.88,-3.37,-4.13,1.71,-0.33,0.82,
3.413,-2.88,-3.37,-4.13,1.72,-0.29,0.86,
3.414,-3.12,-2.62,-3.87,1.72,-0.29,0.86,
3.414,-3.12,-2.62,-3.87,1.73,-0.25,0.91,
3.414,-3.12,-2.62,-3.87,1.74,-0.21,0.96,
3.414,-3.12,-2.62,-3.87,1.74,-0.14,1.00,
3.414,-3.12,-2.62,-3.87,1.75,-0.07,1.04,
3.415,-3.12,-2.62,-3.87,1.76,0.03,1.08,
3.422,-3.05,-2.05,-3.90,1.76,0.03,1.08,
3.422,-3.05,-2.05,-3.90,1.77,0.14,1.11,
3.422,-3.05,-2.05,-3.90,1.79,0.28,1.15,
3.429,-3.05,-2.05,-3.90,1.82,0.43,1.19,
3.429,-3.05,-2.05,-3.90,1.86,0.61,1.22,
3.43,-3.05,-2.05,-3.90,1.90,0.82,1.26,
3.43,-2.80,-1.49,-2.62,1.90,0.82,1.26,
3.446,-2.80,-1.49,-2.62,1.96,1.07,1.29,
3.447,-2.80,-1.49,-2.62,2.03,1.35,1.31,
3.447,-2.80,-1.49,-2.62,2.10,1.67,1.33,
3.447,-2.80,-1.49,-2.62,2.18,2.01,1.35,
3.447,-2.80,-1.49,-2.62,2.24,2.33,1.37,
3.447,-2.13,-0.91,-1.35,2.24,2.33,1.37,
3.448,-2.13,-0.91,-1.35,2.30,2.65,1.38,
3.448,-2.13,-0.91,-1.35,2.35,2.94,1.39,
3.448,-2.13,-0.91,-1.35,2.38,3.21,1.40,
3.448,-2.13,-0.91,-1.35,2.41,3.47,1.40,
3.448,-2.13,-0.91,-1.35,2.42,3.69,1.41,
3.449,-1.26,-0.03,-2.53,2.42,3.69,1.41,
3.449,-1.26,-0.03,-2.53,2.41,3.90,1.42,
3.449,-1.26,-0.03,-2.53,2.40,4.09,1.42,
3.456,-1.26,-0.03,-2.53,2.38,4.27,1.43,
3.456,-1.26,-0.03,-2.53,2.34,4.42,1.43,
3.457,-1.26,-0.03,-2.53,2.30,4.56,1.43,
3.459,-0.84,0.79,-4.56,2.30,4.56,1.43,
3.459,-0.84,0.79,-4.56,2.25,4.67,1.44,
3.459,-0.84,0.79,-4.56,2.20,4.77,1.44,
3.463,-0.84,0.79,-4.56,2.15,4.85,1.45,
3.463,-0.84,0.79,-4.56,2.09,4.91,1.45,
3.468,-0.84,0.79,-4.56,2.04,4.95,1.44,
3.468,-0.36,1.55,-5.22,2.04,4.95,1.44,
3.469,-0.36,1.55,-5.22,2.00,4.98,1.44,
3.469,-0.36,1.55,-5.22,1.95,5.00,1.43,
3.473,-0.36,1.55,-5.22,1.91,5.01,1.42,
3.473,-0.36,1.55,-5.22,1.88,5.01,1.40,
3.478,-0.36,1.55,-5.22,1.84,5.00,1.38,
3.478,0.53,2.04,-4.96,1.84,5.00,1.38,
3.505,0.53,2.04,-4.96,1.81,4.99,1.35,
3.505,0.53,2.04,-4.96,1.78,4.98,1.32,
3.505,0.53,2.04,-4.96,1.75,4.97,1.28,
3.506,0.53,2.04,-4.96,1.73,4.97,1.24,
3.506,0.53,2.04,-4.96,1.72,4.97,1.19,
3.506,1.69,2.41,-4.31,1.72,4.97,1.19,
3.506,1.69,2.41,-4.31,1.72,4.96,1.14,
3.507,1.69,2.41,-4.31,1.72,4.94,1.09,
3.507,1.69,2.41,-4.31,1.73,4.91,1.03,
3.507,1.69,2.41,-4.31,1.74,4.87,0.98,
3.507,1.69,2.41,-4.31,1.76,4.82,0.93,
3.508,2.67,2.67,-3.39,1.76,4.82,0.93,
3.508,2.67,2.67,-3.39,1.78,4.76,0.88,
3.508,2.67,2.67,-3.39,1.81,4.67,0.82,
3.509,2.67,2.67,-3.39,1.85,4.56,0.77,
3.509,2.67,2.67,-3.39,1.89,4.43,0.72,
3.509,2.67,2.67,-3.39,1.93,4.28,0.68,
3.509,2.91,2.89,-2.41,1.93,4.28,0.68,
3.51,2.91,2.89,-2.41,1.97,4.11,0.63,
3.51,2.91,2.89,-2.41,2.01,3.93,0.59,
3.544,2.91,2.89,-2.41,2.05,3.74,0.55,
3.544,2.91,2.89,-2.41,2.09,3.54,0.51,
3.545,2.91,2.89,-2.41,2.12,3.33,0.48,
3.545,2.87,3.02,-2.40,2.12,3.33,0.48,
3.545,2.87,3.02,-2.40,2.14,3.12,0.45,
3.545,2.87,3.02,-2.40,2.16,2.91,0.41,
3.545,2.87,3.02,-2.40,2.17,2.69,0.39,
3.546,2.87,3.02,-2.40,2.17,2.47,0.35,
3.546,2.87,3.02,-2.40,2.17,2.26,0.32,
3.546,2.76,3.36,-2.94,2.17,2.26,0.32,
3.546,2.76,3.36,-2.94,2.15,2.05,0.29,
3.546,2.76,3.36,-2.94,2.13,1.84,0.25,
3.547,2.76,3.36,-2.94,2.09,1.65,0.22,
3.547,2.76,3.36,-2.94,2.05,1.47,0.18,
3.547,2.76,3.36,-2.94,1.99,1.30,0.14,
3.547,3.15,3.81,-4.21,1.99,1.30,0.14,
3.547,3.15,3.81,-4.21,1.92,1.15,0.10,
3.547,3.15,3.81,-4.21,1.84,1.00,0.06,
3.548,3.15,3.81,-4.21,1.75,0.87,0.02,
3.548,3.15,3.81,-4.21,1.66,0.76,-0.02,
3.548,3.15,3.81,-4.21,1.57,0.66,-0.05,
3.548,3.12,4.35,-5.62,1.57,0.66,-0.05,
3.548,3.12,4.35,-5.62,1.46,0.58,-0.08,
3.549,3.12,4.35,-5.62,1.36,0.51,-0.11,
3.553,3.12,4.35,-5.62,1.25,0.47,-0.14,
3.554,3.12,4.35,-5.62,1.15,0.43,-0.17,
3.557,3.12,4.35,-5.62,1.04,0.41,-0.19,
3.558,3.02,4.74,-6.77,1.04,0.41,-0.19,
3.558,3.02,4.74,-6.77,0.93,0.40,-0.22,
3.561,3.02,4.74,-6.77,0.82,0.40,-0.24,
3.561,3.02,4.74,-6.77,0.71,0.40,-0.27,
3.564,3.02,4.74,-6.77,0.61,0.41,-0.29,
3.565,3.02,4.74,-6.77,0.51,0.42,-0.32,
3.571,2.91,5.26,-7.08,0.51,0.42,-0.32,
3.572,2.91,5.26,-7.08,0.40,0.43,-0.34,
3.572,2.91,5.26,-7.08,0.31,0.44,-0.37,
3.572,2.91,5.26,-7.08,0.21,0.45,-0.40,
3.58,2.91,5.26,-7.08,0.12,0.46,-0.43,
3.58,2.91,5.26,-7.08,0.03,0.46,-0.46,
3.58,2.96,5.64,-7.10,0.03,0.46,-0.46,
3.58,2.96,5.64,-7.10,-0.05,0.46,-0.49,
3.58,2.96,5.64,-7.10,-0.13,0.45,-0.52,
3.58,2.96,5.64,-7.10,-0.21,0.44,-0.55,
3.593,2.96,5.64,-7.10,-0.28,0.41,-0.59,
3.593,2.96,5.64,-7.10,-0.35,0.38,-0.62,
3.593,2.96,5.98,-6.55,-0.35,0.38,-0.62,
3.594,2.96,5.98,-6.55,-0.42,0.35,-0.66,
3.594,2.96,5.98,-6.55,-0.48,0.31,-0.69,
3.594,2.96,5.98,-6.55,-0.54,0.26,-0.73,
3.594,2.96,5.98,-6.55,-0.60,0.21,-0.77,
3.594,2.96,5.98,-6.55,-0.66,0.15,-0.81,
3.6,2.93,6.00,-6.15,-0.66,0.15,-0.81,
3.6,2.93,6.00,-6.15,-0.71,0.10,-0.85,
3.6,2.93,6.00,-6.15,-0.77,0.05,-0.89,
3.601,2.93,6.00,-6.15,-0.82,-0.00,-0.93,
3.603,2.93,6.00,-6.15,-0.88,-0.05,-0.96,
3.605,2.93,6.00,-6.15,-0.93,-0.09,-1.00,
3.607,2.69,5.92,-5.48,-0.93,-0.09,-1.00,
3.607,2.69,5.92,-5.48,-0.99,-0.13,-1.04,
3.609,2.69,5.92,-5.48,-1.05,-0.17,-1.07,
3.611,2.69,5.92,-5.48,-1.11,-0.21,-1.11,
3.618,2.69,5.92,-5.48,-1.16,-0.24,-1.14,
3.619,2.69,5.92,-5.48,-1.22,-0.27,-1.18,
3.619,2.46,5.72,-5.18,-1.22,-0.27,-1.18,
3.619,2.46,5.72,-5.18,-1.28,-0.30,-1.22,
3.619,2.46,5.72,-5.18,-1.34,-0.32,-1.25,
3.627,2.46,5.72,-5.18,-1.40,-0.35,-1.28,
3.628,2.46,5.72,-5.18,-1.47,-0.38,-1.32,
3.628,2.46,5.72,-5.18,-1.53,-0.40,-1.35,
3.634,2.05,5.57,-4.50,-1.53,-0.40,-1.35,
3.634,2.05,5.57,-4.50,-1.60,-0.42,-1.38,
3.635,2.05,5.57,-4.50,-1.66,-0.45,-1.40,
3.635,2.05,5.57,-4.50,-1.73,-0.48,-1.43,
3.635,2.05,5.57,-4.50,-1.80,-0.52,-1.46,
3.635,2.05,5.57,-4.50,-1.87,-0.56,-1.48,
3.637,1.63,5.10,-3.88,-1.87,-0.56,-1.48,
3.638,1.63,5.10,-3.88,-1.95,-0.61,-1.51,
3.641,1.63,5.10,-3.88,-2.03,-0.67,-1.53,
3.641,1.63,5.10,-3.88,-2.10,-0.73,-1.56,
3.645,1.63,5.10,-3.88,-2.18,-0.80,-1.59,
3.662,1.37,4.28,-2.24,-2.18,-0.80,-1.59,
3.662,1.37,4.28,-2.24,-2.33,-0.96,-1.65,
3.662,1.37,4.28,-2.24,-2.33,-0.96,-1.65,
3.662,1.37,4.28,-2.24,-2.40,-1.05,-1.68,
3.662,1.37,4.28,-2.24,-2.48,-1.15,-1.72,
3.663,1.37,4.28,-2.24,-2.54,-1.25,-1.75,
3.663,1.37,4.28,-2.24,-2.61,-1.37,-1.80,
3.663,1.90,3.01,0.77,-2.61,-1.37,-1.80,
3.663,1.90,3.01,0.77,-2.66,-1.50,-1.84,
3.663,1.90,3.01,0.77,-2.72,-1.63,-1.89,
3.664,1.90,3.01,0.77,-2.77,-1.79,-1.94,
3.664,1.90,3.01,0.77,-2.82,-1.95,-1.99,
3.69,1.90,3.01,0.77,-2.85,-2.13,-2.03,
3.69,2.48,0.56,6.15,-2.85,-2.13,-2.03,
3.69,2.48,0.56,6.15,-2.83,-2.29,-2.07,
3.691,2.48,0.56,6.15,-2.75,-2.43,-2.09,
3.691,2.48,0.56,6.15,-2.63,-2.56,-2.10,
3.691,2.48,0.56,6.15,-2.44,-2.65,-2.10,
3.691,2.48,0.56,6.15,-2.21,-2.70,-2.07,
3.691,0.94,-3.70,17.71,-2.21,-2.70,-2.07,
3.692,0.94,-3.70,17.71,-1.92,-2.72,-2.03,
3.692,0.94,-3.70,17.71,-1.60,-2.69,-1.96,
3.692,0.94,-3.70,17.71,-1.26,-2.64,-1.89,
3.692,0.94,-3.70,17.71,-0.93,-2.57,-1.79,
3.693,0.94,-3.70,17.71,-0.59,-2.47,-1.68,
3.693,-2.79,-9.19,26.80,-0.59,-2.47,-1.68,
3.693,-2.79,-9.19,26.80,-0.27,-2.34,-1.56,
3.693,-2.79,-9.19,26.80,0.04,-2.19,-1.41,
3.693,-2.79,-9.19,26.80,0.33,-1.98,-1.25,
3.694,-2.79,-9.19,26.80,0.60,-1.72,-1.07,
3.694,-2.79,-9.19,26.80,0.83,-1.40,-0.88,
3.698,-7.95,-13.16,27.16,0.83,-1.40,-0.88,
3.698,-7.95,-13.16,27.16,1.00,-1.05,-0.68,
3.699,-7.95,-13.16,27.16,1.13,-0.69,-0.47,
3.701,-7.95,-13.16,27.16,1.23,-0.31,-0.28,
3.703,-7.95,-13.16,27.16,1.29,0.08,-0.09,
3.705,-7.95,-13.16,27.16,1.32,0.45,0.09,
3.707,-10.51,-13.29,18.67,1.32,0.45,0.09,
3.708,-10.51,-13.29,18.67,1.33,0.81,0.26,
3.708,-10.51,-13.29,18.67,1.31,1.15,0.41,
3.71,-10.51,-13.29,18.67,1.28,1.47,0.55,
3.713,-10.51,-13.29,18.67,1.23,1.76,0.66,
3.716,-10.51,-13.29,18.67,1.17,2.02,0.74,
3.721,-9.37,-10.82,10.96,1.17,2.02,0.74,
3.721,-9.37,-10.82,10.96,1.11,2.24,0.81,
3.721,-9.37,-10.82,10.96,1.04,2.44,0.87,
3.725,-9.37,-10.82,10.96,0.98,2.59,0.90,
3.725,-9.37,-10.82,10.96,0.93,2.72,0.92,
3.729,-9.37,-10.82,10.96,0.88,2.82,0.94,
3.73,-6.98,-7.83,7.28,0.88,2.82,0.94,
3.73,-6.98,-7.83,7.28,0.84,2.89,0.94,
3.73,-6.98,-7.83,7.28,0.81,2.94,0.93,
3.734,-6.98,-7.83,7.28,0.78,2.97,0.92,
3.735,-6.98,-7.83,7.28,0.76,2.98,0.90,
3.735,-6.98,-7.83,7.28,0.75,2.97,0.87,
3.741,-5.39,-4.68,6.18,0.75,2.97,0.87,
3.741,-5.39,-4.68,6.18,0.74,2.95,0.84,
3.741,-5.39,-4.68,6.18,0.73,2.92,0.80,
3.741,-5.39,-4.68,6.18,0.73,2.88,0.77,
3.749,-5.39,-4.68,6.18,0.73,2.84,0.73,
3.749,-5.39,-4.68,6.18,0.73,2.78,0.69,
3.749,-4.45,-1.14,5.04,0.73,2.78,0.69,
3.75,-4.45,-1.14,5.04,0.73,2.72,0.64,
3.75,-4.45,-1.14,5.04,0.73,2.64,0.59,
3.752,-4.45,-1.14,5.04,0.72,2.56,0.54,
3.752,-4.45,-1.14,5.04,0.71,2.46,0.50,
3.758,-4.45,-1.14,5.04,0.69,2.36,0.45,
3.758,-4.14,1.60,3.24,0.69,2.36,0.45,
3.758,-4.14,1.60,3.24,0.67,2.24,0.41,
3.759,-4.14,1.60,3.24,0.62,2.13,0.36,
3.763,-4.14,1.60,3.24,0.56,2.01,0.32,
3.764,-4.14,1.60,3.24,0.49,1.89,0.29,
3.77,-4.14,1.60,3.24,0.41,1.76,0.26,
3.77,-4.30,3.24,-0.14,0.41,1.76,0.26,
3.77,-4.30,3.24,-0.14,0.33,1.63,0.23,
3.77,-4.30,3.24,-0.14,0.24,1.50,0.21,
3.771,-4.30,3.24,-0.14,0.14,1.36,0.20,
3.775,-4.30,3.24,-0.14,0.05,1.20,0.18,
3.776,-4.30,3.24,-0.14,-0.04,1.03,0.18,
3.78,-5.51,3.76,-2.21,-0.04,1.03,0.18,
3.78,-5.51,3.76,-2.21,-0.12,0.86,0.19,
3.781,-5.51,3.76,-2.21,-0.20,0.70,0.20,
3.781,-5.51,3.76,-2.21,-0.29,0.54,0.22,
3.796,-5.51,3.76,-2.21,-0.37,0.41,0.25,
3.796,-5.51,3.76,-2.21,-0.45,0.29,0.28,
3.797,-6.41,2.32,-3.10,-0.45,0.29,0.28,
3.797,-6.41,2.32,-3.10,-0.53,0.18,0.31,
3.797,-6.41,2.32,-3.10,-0.62,0.09,0.35,
3.797,-6.41,2.32,-3.10,-0.70,-0.00,0.38,
3.798,-6.41,2.32,-3.10,-0.79,-0.08,0.42,
3.798,-6.41,2.32,-3.10,-0.88,-0.16,0.46,
3.798,-5.72,-0.19,-3.91,-0.88,-0.16,0.46,
3.799,-5.72,-0.19,-3.91,-0.96,-0.24,0.50,
3.801,-5.72,-0.19,-3.91,-1.04,-0.33,0.53,
3.802,-5.72,-0.19,-3.91,-1.11,-0.43,0.57,
3.802,-5.72,-0.19,-3.91,-1.18,-0.56,0.61,
3.805,-5.72,-0.19,-3.91,-1.24,-0.70,0.66,
3.807,-3.73,-2.29,-4.28,-1.24,-0.70,0.66,
3.807,-3.73,-2.29,-4.28,-1.30,-0.88,0.70,
3.809,-3.73,-2.29,-4.28,-1.35,-1.09,0.74,
3.835,-3.73,-2.29,-4.28,-1.40,-1.32,0.79,
3.835,-3.73,-2.29,-4.28,-1.45,-1.58,0.83,
3.836,-3.73,-2.29,-4.28,-1.47,-1.87,0.88,
3.836,-1.90,-3.76,-5.69,-1.47,-1.87,0.88,
3.837,-1.90,-3.76,-5.69,-1.49,-2.17,0.93,
3.837,-1.90,-3.76,-5.69,-1.49,-2.49,0.97,
3.838,-1.90,-3.76,-5.69,-1.47,-2.81,1.01,
3.838,-1.90,-3.76,-5.69,-1.44,-3.13,1.04,
3.838,-1.90,-3.76,-5.69,-1.39,-3.44,1.06,
3.839,-0.48,-3.75,-6.20,-1.39,-3.44,1.06,
3.839,-0.48,-3.75,-6.20,-1.32,-3.73,1.07,
3.84,-0.48,-3.75,-6.20,-1.24,-3.99,1.07,
3.84,-0.48,-3.75,-6.20,-1.14,-4.23,1.07,
3.841,-0.48,-3.75,-6.20,-1.05,-4.43,1.05,
3.841,-0.48,-3.75,-6.20,-0.94,-4.60,1.03,
3.841,0.59,-2.45,-5.69,-0.94,-4.60,1.03,
3.842,0.59,-2.45,-5.69,-0.84,-4.73,1.00,
3.842,0.59,-2.45,-5.69,-0.74,-4.83,0.97,
3.843,0.59,-2.45,-5.69,-0.65,-4.91,0.94,
3.843,0.59,-2.45,-5.69,-0.56,-4.97,0.89,
3.88,0.59,-2.45,-5.69,-0.47,-5.01,0.85,
3.88,1.38,-0.61,-4.75,-0.47,-5.01,0.85,
3.88,1.38,-0.61,-4.75,-0.40,-5.04,0.80,
3.881,1.38,-0.61,-4.75,-0.33,-5.06,0.75,
3.881,1.38,-0.61,-4.75,-0.27,-5.07,0.69,
3.881,1.38,-0.61,-4.75,-0.21,-5.07,0.65,
3.881,1.38,-0.61,-4.75,-0.17,-5.07,0.60,
3.882,1.65,0.76,-4.24,-0.17,-5.07,0.60,
3.882,1.65,0.76,-4.24,-0.12,-5.05,0.56,
3.883,1.65,0.76,-4.24,-0.09,-5.03,0.52,
3.883,1.65,0.76,-4.24,-0.07,-4.99,0.49,
3.884,1.65,0.76,-4.24,-0.05,-4.94,0.46,
3.884,1.65,0.76,-4.24,-0.04,-4.88,0.44,
3.887,1.11,1.50,-3.98,-0.04,-4.88,0.44,
3.887,1.11,1.50,-3.98,-0.04,-4.81,0.42,
3.888,1.11,1.50,-3.98,-0.05,-4.73,0.40,
3.889,1.11,1.50,-3.98,-0.06,-4.64,0.38,
3.889,1.11,1.50,-3.98,-0.08,-4.55,0.37,
3.889,1.11,1.50,-3.98,-0.10,-4.44,0.35,
3.889,0.90,1.71,-4.26,-0.10,-4.44,0.35,
3.889,0.90,1.71,-4.26,-0.13,-4.34,0.32,
3.89,0.90,1.71,-4.26,-0.16,-4.22,0.30,
3.89,0.90,1.71,-4.26,-0.19,-4.11,0.27,
3.89,0.90,1.71,-4.26,-0.24,-3.99,0.23,
3.89,0.90,1.71,-4.26,-0.28,-3.87,0.19,
3.89,1.58,1.49,-4.23,-0.28,-3.87,0.19,
3.89,1.58,1.49,-4.23,-0.33,-3.75,0.15,
3.891,1.58,1.49,-4.23,-0.38,-3.62,0.10,
3.891,1.58,1.49,-4.23,-0.44,-3.49,0.05,
3.894,1.58,1.49,-4.23,-0.51,-3.35,-0.02,
3.894,1.58,1.49,-4.23,-0.59,-3.21,-0.08,
3.898,2.95,0.97,-4.86,-0.59,-3.21,-0.08,
3.898,2.95,0.97,-4.86,-0.67,-3.07,-0.16,
3.899,2.95,0.97,-4.86,-0.75,-2.92,-0.23,
3.902,2.95,0.97,-4.86,-0.85,-2.76,-0.31,
3.903,2.95,0.97,-4.86,-0.96,-2.59,-0.40,
3.904,2.95,0.97,-4.86,-1.07,-2.42,-0.48,
3.907,4.14,0.33,-6.03,-1.07,-2.42,-0.48,
3.907,4.14,0.33,-6.03,-1.19,-2.25,-0.57,
3.908,4.14,0.33,-6.03,-1.31,-2.08,-0.65,
3.913,4.14,0.33,-6.03,-1.44,-1.91,-0.74,
3.919,4.14,0.33,-6.03,-1.58,-1.75,-0.83,
3.92,4.14,0.33,-6.03,-1.71,-1.59,-0.92,
3.921,5.10,-0.91,-7.24,-1.71,-1.59,-0.92,
3.927,5.10,-0.91,-7.24,-1.84,-1.43,-1.01,
3.931,5.10,-0.91,-7.24,-1.98,-1.29,-1.10,
3.931,5.10,-0.91,-7.24,-2.10,-1.15,-1.19,
3.931,5.10,-0.91,-7.24,-2.23,-1.02,-1.27,
3.932,5.10,-0.91,-7.24,-2.33,-0.91,-1.36,
3.932,5.69,-2.59,-6.94,-2.33,-0.91,-1.36,
3.932,5.69,-2.59,-6.94,-2.43,-0.82,-1.44,
3.932,5.69,-2.59,-6.94,-2.51,-0.74,-1.51,
3.932,5.69,-2.59,-6.94,-2.57,-0.68,-1.58,
3.933,5.69,-2.59,-6.94,-2.62,-0.64,-1.64,
3.939,5.69,-2.59,-6.94,-2.64,-0.60,-1.69,
3.939,5.76,-3.74,-4.77,-2.64,-0.60,-1.69,
3.94,5.76,-3.74,-4.77,-2.65,-0.58,-1.73,
3.94,5.76,-3.74,-4.77,-2.64,-0.58,-1.76,
3.941,5.76,-3.74,-4.77,-2.62,-0.58,-1.78,
3.943,5.76,-3.74,-4.77,-2.58,-0.60,-1.78,
3.946,5.76,-3.74,-4.77,-2.52,-0.64,-1.78,
3.947,5.20,-3.87,-2.26,-2.52,-0.64,-1.78,
3.947,5.20,-3.87,-2.26,-2.45,-0.68,-1.77,
3.949,5.20,-3.87,-2.26,-2.36,-0.72,-1.75,
3.951,5.20,-3.87,-2.26,-2.27,-0.75,-1.72,
3.953,5.20,-3.87,-2.26,-2.17,-0.77,-1.68,
3.955,5.20,-3.87,-2.26,-2.07,-0.79,-1.64,
3.957,4.85,-3.31,-0.61,-2.07,-0.79,-1.64,
3.958,4.85,-3.31,-0.61,-1.96,-0.79,-1.60,
3.959,4.85,-3.31,-0.61,-1.85,-0.79,-1.54,
3.961,4.85,-3.31,-0.61,-1.75,-0.79,-1.49,
3.963,4.85,-3.31,-0.61,-1.64,-0.77,-1.43,
3.965,4.85,-3.31,-0.61,-1.54,-0.74,-1.38,
3.967,4.46,-2.48,-0.09,-1.54,-0.74,-1.38,
3.968,4.46,-2.48,-0.09,-1.45,-0.70,-1.33,
3.969,4.46,-2.48,-0.09,-1.36,-0.65,-1.28,
3.971,4.46,-2.48,-0.09,-1.27,-0.60,-1.23,
3.974,4.46,-2.48,-0.09,-1.20,-0.54,-1.19,
3.975,4.46,-2.48,-0.09,-1.13,-0.47,-1.15,
3.979,4.60,-1.54,-0.09,-1.13,-0.47,-1.15,
4.003,4.60,-1.54,-0.09,-1.06,-0.40,-1.12,
4.004,4.60,-1.54,-0.09,-1.00,-0.32,-1.08,
4.004,4.60,-1.54,-0.09,-0.94,-0.25,-1.05,
4.005,4.60,-1.54,-0.09,-0.89,-0.17,-1.03,
4.005,4.60,-1.54,-0.09,-0.84,-0.10,-1.00,
4.005,4.37,-0.50,0.25,-0.84,-0.10,-1.00,
4.005,4.37,-0.50,0.25,-0.79,-0.03,-0.98,
4.006,4.37,-0.50,0.25,-0.74,0.03,-0.95,
4.006,4.37,-0.50,0.25,-0.70,0.09,-0.94,
4.006,4.37,-0.50,0.25,-0.66,0.15,-0.92,
4.007,4.37,-0.50,0.25,-0.59,0.16,-0.90,
4.007,4.11,0.58,2.50,-0.59,0.16,-0.90,
4.007,4.11,0.58,2.50,-0.47,0.02,-0.87,
4.008,4.11,0.58,2.50,-0.36,-0.29,-0.82,
4.008,4.11,0.58,2.50,-0.31,-0.56,-0.76,
4.008,4.11,0.58,2.50,-0.29,-0.80,-0.69,
4.008,4.11,0.58,2.50,-0.29,-1.01,-0.63,
4.009,2.63,3.06,7.84,-0.29,-1.01,-0.63,
4.009,2.63,3.06,7.84,-0.31,-1.19,-0.57,
4.009,2.63,3.06,7.84,-0.34,-1.35,-0.52,
4.041,2.63,3.06,7.84,-0.39,-1.47,-0.48,
4.041,2.63,3.06,7.84,-0.45,-1.57,-0.45,
4.042,2.63,3.06,7.84,-0.53,-1.64,-0.43,
4.042,2.40,2.82,5.30,-0.53,-1.64,-0.43,
4.042,2.40,2.82,5.30,-0.61,-1.69,-0.43,
4.042,2.40,2.82,5.30,-0.70,-1.73,-0.44,
4.043,2.40,2.82,5.30,-0.80,-1.75,-0.47,
4.043,2.40,2.82,5.30,-0.89,-1.75,-0.51,
4.043,2.40,2.82,5.30,-1.00,-1.75,-0.55,
4.043,2.80,1.87,2.74,-1.00,-1.75,-0.55,
4.044,2.80,1.87,2.74,-1.10,-1.73,-0.61,
4.044,2.80,1.87,2.74,-1.20,-1.70,-0.66,
4.044,2.80,1.87,2.74,-1.30,-1.66,-0.72,
4.044,2.80,1.87,2.74,-1.39,-1.63,-0.77,
4.045,2.80,1.87,2.74,-1.47,-1.60,-0.81,
4.045,2.24,1.21,1.70,-1.47,-1.60,-0.81,
4.045,2.24,1.21,1.70,-1.54,-1.58,-0.84,
4.046,2.24,1.21,1.70,-1.61,-1.56,-0.86,
4.046,2.24,1.21,1.70,-1.67,-1.55,-0.87,
4.046,2.24,1.21,1.70,-1.71,-1.53,-0.88,
4.046,2.24,1.21,1.70,-1.76,-1.51,-0.88,
4.05,0.81,1.04,1.94,-1.76,-1.51,-0.88,
4.05,0.81,1.04,1.94,-1.79,-1.50,-0.88,
4.05,0.81,1.04,1.94,-1.82,-1.48,-0.87,
4.05,0.81,1.04,1.94,-1.84,-1.47,-0.87,
4.053,0.81,1.04,1.94,-1.85,-1.45,-0.86,
4.055,0.81,1.04,1.94,-1.85,-1.43,-0.84,
4.058,-0.03,0.94,2.39,-1.85,-1.43,-0.84,
4.058,-0.03,0.94,2.39,-1.86,-1.41,-0.82,
4.059,-0.03,0.94,2.39,-1.85,-1.39,-0.81,
4.062,-0.03,0.94,2.39,-1.85,-1.36,-0.78,
4.065,-0.03,0.94,2.39,-1.84,-1.32,-0.76,
4.067,-0.03,0.94,2.39,-1.82,-1.29,-0.74,
4.068,-0.65,0.96,2.68,-1.82,-1.29,-0.74,
4.068,-0.65,0.96,2.68,-1.81,-1.25,-0.71,
4.069,-0.65,0.96,2.68,-1.80,-1.22,-0.69,
4.075,-0.65,0.96,2.68,-1.77,-1.18,-0.67,
4.076,-0.65,0.96,2.68,-1.75,-1.12,-0.64,
4.076,-0.65,0.96,2.68,-1.74,-1.10,-0.63,
4.095,-1.08,1.10,3.01,-1.74,-1.10,-0.63,
4.096,-1.08,1.10,3.01,-1.72,-1.06,-0.61,
4.096,-1.08,1.10,3.01,-1.70,-1.02,-0.59,
4.096,-1.08,1.10,3.01,-1.67,-0.97,-0.57,
4.096,-1.08,1.10,3.01,-1.65,-0.92,-0.56,
4.096,-1.08,1.10,3.01,-1.62,-0.87,-0.54,
4.097,-1.38,1.20,3.13,-1.62,-0.87,-0.54,
4.097,-1.38,1.20,3.13,-1.60,-0.82,-0.52,
4.097,-1.38,1.20,3.13,-1.56,-0.77,-0.51,
4.097,-1.38,1.20,3.13,-1.53,-0.72,-0.49,
4.097,-1.38,1.20,3.13,-1.50,-0.67,-0.48,
4.097,-1.38,1.20,3.13,-1.46,-0.63,-0.46,
4.098,-1.66,1.17,3.42,-1.46,-0.63,-0.46,
4.098,-1.66,1.17,3.42,-1.41,-0.59,-0.45,
4.099,-1.66,1.17,3.42,-1.37,-0.54,-0.43,
4.101,-1.66,1.17,3.42,-1.33,-0.51,-0.42,
4.103,-1.66,1.17,3.42,-1.28,-0.47,-0.40,
4.105,-1.66,1.17,3.42,-1.23,-0.44,-0.39,
4.107,-1.89,1.23,3.33,-1.23,-0.44,-0.39,
4.107,-1.89,1.23,3.33,-1.19,-0.41,-0.37,
4.108,-1.89,1.23,3.33,-1.14,-0.38,-0.36,
4.11,-1.89,1.23,3.33,-1.09,-0.36,-0.34,
4.113,-1.89,1.23,3.33,-1.05,-0.34,-0.33,
4.115,-1.89,1.23,3.33,-1.01,-0.32,-0.31,
4.117,-2.05,1.08,3.06,-1.01,-0.32,-0.31,
4.117,-2.05,1.08,3.06,-0.97,-0.32,-0.30,
4.119,-2.05,1.08,3.06,-0.93,-0.32,-0.29,
4.121,-2.05,1.08,3.06,-0.90,-0.33,-0.28,
4.125,-2.05,1.08,3.06,-0.87,-0.35,-0.26,
4.126,-2.05,1.08,3.06,-0.85,-0.38,-0.25,
4.129,-2.15,0.89,2.45,-0.85,-0.38,-0.25,
4.13,-2.15,0.89,2.45,-0.83,-0.41,-0.23,
4.134,-2.15,0.89,2.45,-0.82,-0.45,-0.21,
4.134,-2.15,0.89,2.45,-0.81,-0.50,-0.18,
4.134,-2.15,0.89,2.45,-0.81,-0.55,-0.16,
4.135,-2.15,0.89,2.45,-0.81,-0.60,-0.13,
4.138,-2.53,0.66,2.08,-0.81,-0.60,-0.13,
4.138,-2.53,0.66,2.08,-0.81,-0.65,-0.11,
4.14,-2.53,0.66,2.08,-0.82,-0.70,-0.08,
4.141,-2.53,0.66,2.08,-0.82,-0.75,-0.06,
4.144,-2.53,0.66,2.08,-0.84,-0.80,-0.03,
4.17,-2.53,0.66,2.08,-0.85,-0.85,-0.01,
4.17,-2.44,0.68,1.77,-0.85,-0.85,-0.01,
4.17,-2.44,0.68,1.77,-0.90,-0.94,0.05,
4.171,-2.44,0.68,1.77,-0.90,-0.94,0.05,
4.171,-2.44,0.68,1.77,-0.92,-0.98,0.08,
4.171,-2.44,0.68,1.77,-0.96,-1.02,0.10,
4.171,-2.44,0.68,1.77,-0.99,-1.05,0.14,
4.172,-2.26,0.74,1.39,-0.99,-1.05,0.14,
4.172,-2.26,0.74,1.39,-1.02,-1.07,0.17,
4.172,-2.26,0.74,1.39,-1.06,-1.09,0.20,
4.173,-2.26,0.74,1.39,-1.09,-1.10,0.23,
4.173,-2.26,0.74,1.39,-1.12,-1.10,0.26,
4.173,-2.26,0.74,1.39,-1.16,-1.10,0.29,
4.173,-1.73,0.85,1.20,-1.16,-1.10,0.29,
4.174,-1.73,0.85,1.20,-1.19,-1.09,0.32,
4.174,-1.73,0.85,1.20,-1.22,-1.08,0.35,
4.174,-1.73,0.85,1.20,-1.26,-1.07,0.38,
4.174,-1.73,0.85,1.20,-1.29,-1.04,0.41,
4.175,-1.73,0.85,1.20,-1.32,-1.02,0.44,
4.2,-1.22,0.88,1.31,-1.32,-1.02,0.44,
4.2,-1.22,0.88,1.31,-1.35,-0.99,0.46,
4.2,-1.22,0.88,1.31,-1.39,-0.96,0.49,
4.201,-1.22,0.88,1.31,-1.42,-0.92,0.51,
4.201,-1.22,0.88,1.31,-1.45,-0.88,0.52,
4.201,-1.22,0.88,1.31,-1.48,-0.84,0.54,
4.201,-0.54,0.70,1.51,-1.48,-0.84,0.54,
4.202,-0.54,0.70,1.51,-1.52,-0.79,0.55,
4.202,-0.54,0.70,1.51,-1.55,-0.75,0.56,
4.202,-0.54,0.70,1.51,-1.58,-0.71,0.56,
4.202,-0.54,0.70,1.51,-1.62,-0.67,0.57,
4.202,-0.54,0.70,1.51,-1.65,-0.62,0.57,
4.203,0.05,0.27,1.97,-1.65,-0.62,0.57,
4.203,0.05,0.27,1.97,-1.68,-0.58,0.57,
4.203,0.05,0.27,1.97,-1.71,-0.54,0.57,
4.203,0.05,0.27,1.97,-1.74,-0.50,0.56,
4.204,0.05,0.27,1.97,-1.77,-0.47,0.56,
4.205,0.05,0.27,1.97,-1.80,-0.44,0.56,
4.207,0.39,-0.26,2.58,-1.80,-0.44,0.56,
4.207,0.39,-0.26,2.58,-1.82,-0.41,0.56,
4.209,0.39,-0.26,2.58,-1.85,-0.39,0.56,
4.213,0.39,-0.26,2.58,-1.87,-0.38,0.55,
4.214,0.39,-0.26,2.58,-1.88,-0.36,0.55,
4.215,0.39,-0.26,2.58,-1.90,-0.36,0.55,
4.223,0.63,-1.04,3.69,-1.90,-0.36,0.55,
4.223,0.63,-1.04,3.69,-1.91,-0.37,0.54,
4.224,0.63,-1.04,3.69,-1.91,-0.38,0.54,
4.224,0.63,-1.04,3.69,-1.91,-0.40,0.54,
4.224,0.63,-1.04,3.69,-1.91,-0.42,0.55,
4.225,0.63,-1.04,3.69,-1.90,-0.45,0.55,
4.235,0.96,-1.91,4.85,-1.90,-0.45,0.55,
4.235,0.96,-1.91,4.85,-1.89,-0.49,0.55,
4.236,0.96,-1.91,4.85,-1.86,-0.53,0.56,
4.236,0.96,-1.91,4.85,-1.83,-0.57,0.56,
4.236,0.96,-1.91,4.85,-1.80,-0.62,0.56,
4.236,0.96,-1.91,4.85,-1.75,-0.67,0.57,
4.237,1.62,-2.72,6.24,-1.75,-0.67,0.57,
4.237,1.62,-2.72,6.24,-1.70,-0.72,0.57,
4.239,1.62,-2.72,6.24,-1.65,-0.77,0.57,
4.248,1.62,-2.72,6.24,-1.58,-0.82,0.57,
4.249,1.62,-2.72,6.24,-1.51,-0.86,0.57,
4.249,1.62,-2.72,6.24,-1.44,-0.90,0.57,
4.25,2.38,-2.78,7.10,-1.44,-0.90,0.57,
4.25,2.38,-2.78,7.10,-1.36,-0.93,0.57,
4.25,2.38,-2.78,7.10,-1.28,-0.96,0.57,
4.251,2.38,-2.78,7.10,-1.20,-0.98,0.57,
4.255,2.38,-2.78,7.10,-1.12,-0.99,0.57,
4.255,2.38,-2.78,7.10,-1.03,-1.00,0.57,
4.258,3.06,-2.42,7.74,-1.03,-1.00,0.57,
4.258,3.06,-2.42,7.74,-0.94,-1.00,0.57,
4.258,3.06,-2.42,7.74,-0.85,-1.00,0.57,
4.261,3.06,-2.42,7.74,-0.76,-0.99,0.57,
4.263,3.06,-2.42,7.74,-0.66,-0.97,0.58,
4.265,3.06,-2.42,7.74,-0.56,-0.95,0.58,
4.267,3.41,-2.21,7.48,-0.56,-0.95,0.58,
4.267,3.41,-2.21,7.48,-0.46,-0.92,0.58,
4.269,3.41,-2.21,7.48,-0.36,-0.88,0.59,
4.271,3.41,-2.21,7.48,-0.25,-0.84,0.60,
4.272,3.41,-2.21,7.48,-0.15,-0.78,0.60,
4.274,3.41,-2.21,7.48,-0.05,-0.72,0.60,
4.277,3.77,-2.43,6.40,-0.05,-0.72,0.60,
4.277,3.77,-2.43,6.40,0.05,-0.65,0.60,
4.279,3.77,-2.43,6.40,0.15,-0.57,0.60,
4.281,3.77,-2.43,6.40,0.24,-0.48,0.60,
4.283,3.77,-2.43,6.40,0.33,-0.39,0.60,
4.285,3.77,-2.43,6.40,0.41,-0.30,0.60,
4.287,3.81,-2.52,4.22,0.41,-0.30,0.60,
4.287,3.81,-2.52,4.22,0.48,-0.21,0.59,
4.288,3.81,-2.52,4.22,0.54,-0.12,0.58,
4.29,3.81,-2.52,4.22,0.60,-0.03,0.57,
4.3,3.81,-2.52,4.22,0.64,0.06,0.56,
4.3,3.81,-2.52,4.22,0.68,0.14,0.55,
4.301,3.79,-2.43,2.73,0.68,0.14,0.55,
4.301,3.79,-2.43,2.73,0.71,0.21,0.53,
4.302,3.79,-2.43,2.73,0.73,0.28,0.51,
4.302,3.79,-2.43,2.73,0.74,0.35,0.49,
4.309,3.79,-2.43,2.73,0.74,0.41,0.47,
4.309,3.79,-2.43,2.73,0.73,0.47,0.44,
4.31,3.59,-2.70,1.81,0.73,0.47,0.44,
4.31,3.59,-2.70,1.81,0.72,0.52,0.41,
4.311,3.59,-2.70,1.81,0.69,0.57,0.38,
4.336,3.59,-2.70,1.81,0.65,0.62,0.34,
4.337,3.59,-2.70,1.81,0.60,0.66,0.31,
4.337,3.59,-2.70,1.81,0.55,0.68,0.27,
4.337,3.50,-3.77,1.62,0.55,0.68,0.27,
4.338,3.50,-3.77,1.62,0.49,0.71,0.23,
4.338,3.50,-3.77,1.62,0.43,0.73,0.19,
4.338,3.50,-3.77,1.62,0.37,0.74,0.15,
4.339,3.50,-3.77,1.62,0.31,0.74,0.11,
4.339,3.50,-3.77,1.62,0.26,0.74,0.08,
4.339,3.02,-4.71,2.55,0.26,0.74,0.08,
4.339,3.02,-4.71,2.55,0.21,0.73,0.05,
4.34,3.02,-4.71,2.55,0.18,0.72,0.02,
4.34,3.02,-4.71,2.55,0.16,0.71,-0.01,
4.34,3.02,-4.71,2.55,0.15,0.70,-0.03,
4.341,3.02,-4.71,2.55,0.17,0.69,-0.04,
4.341,2.22,-5.10,5.15,0.17,0.69,-0.04,
4.341,2.22,-5.10,5.15,0.20,0.69,-0.05,
4.341,2.22,-5.10,5.15,0.25,0.69,-0.06,
4.342,2.22,-5.10,5.15,0.32,0.71,-0.06,
4.376,2.22,-5.10,5.15,0.41,0.73,-0.05,
4.376,2.22,-5.10,5.15,0.51,0.77,-0.05,
4.377,1.18,-5.02,8.30,0.51,0.77,-0.05,
4.377,1.18,-5.02,8.30,0.62,0.82,-0.04,
4.377,1.18,-5.02,8.30,0.75,0.89,-0.02,
4.377,1.18,-5.02,8.30,0.89,0.98,-0.00,
4.378,1.18,-5.02,8.30,1.04,1.09,0.02,
4.378,1.18,-5.02,8.30,1.21,1.21,0.04,
4.378,0.28,-4.18,10.36,1.21,1.21,0.04,
4.378,0.28,-4.18,10.36,1.38,1.36,0.06,
4.379,0.28,-4.18,10.36,1.57,1.52,0.09,
4.379,0.28,-4.18,10.36,1.78,1.71,0.12,
4.379,0.28,-4.18,10.36,2.00,1.93,0.15,
4.379,0.28,-4.18,10.36,2.24,2.15,0.19,
4.38,-0.83,-2.63,12.38,2.24,2.15,0.19,
4.38,-0.83,-2.63,12.38,2.49,2.38,0.22,
4.38,-0.83,-2.63,12.38,2.74,2.61,0.26,
4.38,-0.83,-2.63,12.38,2.99,2.82,0.30,
4.381,-0.83,-2.63,12.38,3.22,3.01,0.34,
4.381,-0.83,-2.63,12.38,3.44,3.17,0.39,
4.381,-1.59,-1.63,11.68,3.44,3.17,0.39,
4.382,-1.59,-1.63,11.68,3.62,3.29,0.43,
4.382,-1.59,-1.63,11.68,3.78,3.38,0.47,
4.382,-1.59,-1.63,11.68,3.90,3.43,0.51,
4.382,-1.59,-1.63,11.68,4.00,3.45,0.56,
4.386,-1.59,-1.63,11.68,4.07,3.45,0.61,
4.387,-1.62,-2.05,5.68,4.07,3.45,0.61,
4.388,-1.62,-2.05,5.68,4.11,3.42,0.65,
4.389,-1.62,-2.05,5.68,4.13,3.36,0.69,
4.391,-1.62,-2.05,5.68,4.13,3.29,0.73,
4.393,-1.62,-2.05,5.68,4.12,3.19,0.77,
4.398,-1.62,-2.05,5.68,4.10,3.07,0.80,
4.399,-0.91,-3.38,-0.18,4.10,3.07,0.80,
4.399,-0.91,-3.38,-0.18,4.06,2.93,0.82,
4.399,-0.91,-3.38,-0.18,4.02,2.77,0.83,
4.402,-0.91,-3.38,-0.18,3.96,2.58,0.83,
4.403,-0.91,-3.38,-0.18,3.90,2.39,0.83,
4.405,-0.91,-3.38,-0.18,3.83,2.18,0.82,
4.407,0.95,-3.81,-3.91,3.83,2.18,0.82,
4.407,0.95,-3.81,-3.91,3.76,1.96,0.80,
4.41,0.95,-3.81,-3.91,3.68,1.74,0.78,
4.413,0.95,-3.81,-3.91,3.60,1.50,0.75,
4.413,0.95,-3.81,-3.91,3.51,1.27,0.71,
4.415,0.95,-3.81,-3.91,3.43,1.03,0.68,
4.418,2.67,-2.92,-5.70,3.43,1.03,0.68,
4.418,2.67,-2.92,-5.70,3.34,0.81,0.64,
4.419,2.67,-2.92,-5.70,3.26,0.60,0.59,
4.421,2.67,-2.92,-5.70,3.18,0.41,0.54,
4.423,2.67,-2.92,-5.70,3.07,0.15,0.47,
4.424,2.67,-2.92,-5.70,3.03,0.07,0.44,
4.427,3.75,-2.36,-5.72,3.03,0.07,0.44,
4.428,3.75,-2.36,-5.72,2.96,-0.07,0.39,
4.429,3.75,-2.36,-5.72,2.89,-0.19,0.34,
4.431,3.75,-2.36,-5.72,2.82,-0.28,0.29,
4.433,3.75,-2.36,-5.72,2.76,-0.37,0.24,
4.435,3.75,-2.36,-5.72,2.70,-0.43,0.19,
4.437,4.25,-2.44,-5.36,2.70,-0.43,0.19,
4.437,4.25,-2.44,-5.36,2.64,-0.48,0.14,
4.438,4.25,-2.44,-5.36,2.59,-0.52,0.09,
4.441,4.25,-2.44,-5.36,2.54,-0.54,0.04,
4.444,4.25,-2.44,-5.36,2.49,-0.56,-0.01,
4.445,4.25,-2.44,-5.36,2.45,-0.57,-0.06,
4.449,4.21,-3.03,-4.64,2.45,-0.57,-0.06,
4.449,4.21,-3.03,-4.64,2.41,-0.58,-0.11,
4.449,4.21,-3.03,-4.64,2.38,-0.57,-0.16,
4.453,4.21,-3.03,-4.64,2.35,-0.56,-0.20,
4.453,4.21,-3.03,-4.64,2.33,-0.55,-0.25,
4.456,4.21,-3.03,-4.64,2.31,-0.52,-0.30,
4.459,3.91,-3.89,-4.09,2.31,-0.52,-0.30,
4.459,3.91,-3.89,-4.09,2.29,-0.49,-0.34,
4.464,3.91,-3.89,-4.09,2.28,-0.44,-0.39,
4.465,3.91,-3.89,-4.09,2.26,-0.39,-0.43,
4.466,3.91,-3.89,-4.09,2.25,-0.34,-0.48,
4.469,3.91,-3.89,-4.09,2.25,-0.28,-0.52,
4.47,3.43,-4.64,-3.71,2.25,-0.28,-0.52,
4.47,3.43,-4.64,-3.71,2.24,-0.21,-0.56,
4.473,3.43,-4.64,-3.71,2.24,-0.14,-0.60,
4.474,3.43,-4.64,-3.71,2.24,-0.06,-0.63,
4.483,3.43,-4.64,-3.71,2.23,0.01,-0.66,
4.484,3.43,-4.64,-3.71,2.22,0.10,-0.69,
4.484,2.55,-5.15,-3.85,2.22,0.10,-0.69,
4.515,2.55,-5.15,-3.85,2.21,0.18,-0.71,
4.515,2.55,-5.15,-3.85,2.21,0.27,-0.71,
4.516,2.55,-5.15,-3.85,2.20,0.35,-0.72,
4.516,2.55,-5.15,-3.85,2.19,0.42,-0.71,
4.517,2.55,-5.15,-3.85,2.18,0.50,-0.70,
4.517,1.02,-5.40,-4.06,2.18,0.50,-0.70,
4.518,1.02,-5.40,-4.06,2.17,0.57,-0.68,
4.518,1.02,-5.40,-4.06,2.16,0.65,-0.66,
4.518,1.02,-5.40,-4.06,2.14,0.72,-0.64,
4.519,1.02,-5.40,-4.06,2.13,0.79,-0.60,
4.519,1.02,-5.40,-4.06,2.11,0.86,-0.57,
4.52,-0.24,-5.29,-4.24,2.11,0.86,-0.57,
4.52,-0.24,-5.29,-4.24,2.10,0.92,-0.53,
4.52,-0.24,-5.29,-4.24,2.08,0.97,-0.49,
4.521,-0.24,-5.29,-4.24,2.06,1.02,-0.44,
4.521,-0.24,-5.29,-4.24,2.04,1.06,-0.39,
4.522,-0.24,-5.29,-4.24,2.02,1.09,-0.33,
4.522,-1.25,-5.04,-4.08,2.02,1.09,-0.33,
4.523,-1.25,-5.04,-4.08,2.00,1.11,-0.28,
4.523,-1.25,-5.04,-4.08,1.99,1.13,-0.22,
4.523,-1.25,-5.04,-4.08,1.97,1.15,-0.16,
4.524,-1.25,-5.04,-4.08,1.95,1.17,-0.10,
4.524,-1.25,-5.04,-4.08,1.93,1.18,-0.04,
4.525,-1.83,-4.55,-3.97,1.93,1.18,-0.04,
4.525,-1.83,-4.55,-3.97,1.91,1.20,0.02,
4.526,-1.83,-4.55,-3.97,1.89,1.21,0.08,
4.526,-1.83,-4.55,-3.97,1.88,1.24,0.14,
4.526,-1.83,-4.55,-3.97,1.87,1.29,0.20,
4.527,-1.83,-4.55,-3.97,1.87,1.35,0.26,
4.527,-1.97,-3.88,-3.16,1.87,1.35,0.26,
4.528,-1.97,-3.88,-3.16,1.88,1.45,0.31,
4.563,-1.97,-3.88,-3.16,1.92,1.62,0.37,
4.564,-1.97,-3.88,-3.16,1.98,1.85,0.41,
4.564,-1.97,-3.88,-3.16,2.06,2.14,0.45,
4.564,-1.97,-3.88,-3.16,2.15,2.43,0.49,
4.564,-1.13,-3.16,0.01,2.15,2.43,0.49,
4.565,-1.13,-3.16,0.01,2.23,2.73,0.51,
4.565,-1.13,-3.16,0.01,2.30,3.01,0.53,
4.565,-1.13,-3.16,0.01,2.36,3.27,0.55,
4.565,-1.13,-3.16,0.01,2.41,3.51,0.56,
4.565,-1.13,-3.16,0.01,2.44,3.74,0.58,
4.566,-0.23,-1.91,-0.73,2.44,3.74,0.58,
4.566,-0.23,-1.91,-0.73,2.46,3.96,0.59,
4.566,-0.23,-1.91,-0.73,2.46,4.16,0.60,
4.566,-0.23,-1.91,-0.73,2.45,4.35,0.61,
4.566,-0.23,-1.91,-0.73,2.43,4.53,0.62,
4.566,-0.23,-1.91,-0.73,2.40,4.70,0.63,
4.567,0.02,-0.61,-3.23,2.40,4.70,0.63,
4.567,0.02,-0.61,-3.23,2.35,4.85,0.64,
4.567,0.02,-0.61,-3.23,2.30,4.99,0.65,
4.567,0.02,-0.61,-3.23,2.25,5.12,0.65,
4.567,0.02,-0.61,-3.23,2.19,5.24,0.65,
4.568,0.02,-0.61,-3.23,2.13,5.34,0.64,
4.568,0.38,0.60,-4.60,2.13,5.34,0.64,
4.568,0.38,0.60,-4.60,2.06,5.43,0.64,
4.569,0.38,0.60,-4.60,1.99,5.52,0.62,
4.571,0.38,0.60,-4.60,1.92,5.59,0.61,
4.573,0.38,0.60,-4.60,1.86,5.66,0.58,
4.575,0.38,0.60,-4.60,1.79,5.72,0.56,
4.579,1.24,1.68,-4.98,1.79,5.72,0.56,
4.579,1.24,1.68,-4.98,1.73,5.77,0.52,
4.58,1.24,1.68,-4.98,1.68,5.81,0.49,
4.581,1.24,1.68,-4.98,1.63,5.84,0.45,
4.583,1.24,1.68,-4.98,1.59,5.85,0.40,
4.585,1.24,1.68,-4.98,1.55,5.84,0.36,
4.587,1.81,2.65,-4.06,1.55,5.84,0.36,
4.587,1.81,2.65,-4.06,1.52,5.82,0.32,
4.588,1.81,2.65,-4.06,1.50,5.78,0.29,
4.59,1.81,2.65,-4.06,1.48,5.72,0.26,
4.593,1.81,2.65,-4.06,1.47,5.64,0.24,
4.595,1.81,2.65,-4.06,1.47,5.53,0.22,
4.597,1.34,3.35,-2.85,1.47,5.53,0.22,
4.597,1.34,3.35,-2.85,1.47,5.41,0.20,
4.599,1.34,3.35,-2.85,1.48,5.28,0.19,
4.601,1.34,3.35,-2.85,1.48,5.13,0.18,
4.603,1.34,3.35,-2.85,1.48,4.98,0.17,
4.605,1.34,3.35,-2.85,1.48,4.82,0.16,
4.608,0.80,3.71,-2.63,1.48,4.82,0.16,
4.608,0.80,3.71,-2.63,1.47,4.65,0.15,
4.615,0.80,3.71,-2.63,1.47,4.47,0.14,
4.615,0.80,3.71,-2.63,1.46,4.28,0.13,
4.615,0.80,3.71,-2.63,1.46,4.07,0.12,
4.615,0.80,3.71,-2.63,1.46,3.86,0.11,
4.617,0.89,3.91,-2.90,1.46,3.86,0.11,
4.618,0.89,3.91,-2.90,1.46,3.63,0.10,
4.619,0.89,3.91,-2.90,1.46,3.38,0.09,
4.621,0.89,3.91,-2.90,1.45,3.13,0.07,
4.623,0.89,3.91,-2.90,1.45,2.88,0.06,
4.625,0.89,3.91,-2.90,1.44,2.63,0.05,
4.627,0.93,4.03,-3.41,1.44,2.63,0.05,
4.627,0.93,4.03,-3.41,1.42,2.39,0.03,
4.629,0.93,4.03,-3.41,1.40,2.16,0.01,
4.631,0.93,4.03,-3.41,1.37,1.95,-0.01,
4.633,0.93,4.03,-3.41,1.33,1.75,-0.02,
4.635,0.93,4.03,-3.41,1.29,1.57,-0.04,
4.638,1.06,4.18,-4.82,1.29,1.57,-0.04,
4.638,1.06,4.18,-4.82,1.26,1.40,-0.06,
4.639,1.06,4.18,-4.82,1.21,1.24,-0.09,
4.642,1.06,4.18,-4.82,1.17,1.10,-0.11,
4.643,1.06,4.18,-4.82,1.12,0.97,-0.14,
4.66,1.14,4.37,-5.54,1.12,0.97,-0.14,
4.661,1.14,4.37,-5.54,1.02,0.76,-0.19,
4.661,1.14,4.37,-5.54,1.02,0.76,-0.19,
4.661,1.14,4.37,-5.54,0.97,0.68,-0.22,
4.661,1.14,4.37,-5.54,0.92,0.62,-0.24,
4.661,1.14,4.37,-5.54,0.87,0.57,-0.26,
4.662,1.14,4.37,-5.54,0.81,0.53,-0.29,
4.662,1.10,4.61,-6.39,0.81,0.53,-0.29,
4.662,1.10,4.61,-6.39,0.75,0.51,-0.31,
4.662,1.10,4.61,-6.39,0.70,0.50,-0.33,
4.662,1.10,4.61,-6.39,0.63,0.51,-0.35,
4.662,1.10,4.61,-6.39,0.57,0.53,-0.37,
4.687,1.10,4.61,-6.39,0.52,0.56,-0.39,
4.688,0.94,4.96,-6.59,0.52,0.56,-0.39,
4.688,0.94,4.96,-6.59,0.46,0.60,-0.40,
4.688,0.94,4.96,-6.59,0.40,0.65,-0.42,
4.688,0.94,4.96,-6.59,0.35,0.70,-0.43,
4.689,0.94,4.96,-6.59,0.29,0.76,-0.43,
4.689,0.94,4.96,-6.59,0.24,0.82,-0.44,
4.689,0.76,5.10,-6.70,0.24,0.82,-0.44,
4.689,0.76,5.10,-6.70,0.19,0.88,-0.44,
4.689,0.76,5.10,-6.70,0.14,0.93,-0.44,
4.69,0.76,5.10,-6.70,0.09,0.98,-0.44,
4.69,0.76,5.10,-6.70,0.05,1.01,-0.44,
4.69,0.76,5.10,-6.70,0.01,1.04,-0.44,
4.69,0.70,5.10,-6.10,0.01,1.04,-0.44,
4.69,0.70,5.10,-6.10,-0.03,1.05,-0.43,
4.691,0.70,5.10,-6.10,-0.07,1.06,-0.43,
4.691,0.70,5.10,-6.10,-0.11,1.05,-0.43,
4.693,0.70,5.10,-6.10,-0.15,1.04,-0.43,
4.695,0.70,5.10,-6.10,-0.19,1.02,-0.44,
4.697,0.78,4.92,-5.85,-0.19,1.02,-0.44,
4.697,0.78,4.92,-5.85,-0.23,0.99,-0.44,
4.699,0.78,4.92,-5.85,-0.27,0.95,-0.45,
4.701,0.78,4.92,-5.85,-0.31,0.91,-0.45,
4.703,0.78,4.92,-5.85,-0.35,0.86,-0.46,
4.705,0.78,4.92,-5.85,-0.39,0.80,-0.47,
4.707,0.88,4.86,-5.64,-0.39,0.80,-0.47,
4.707,0.88,4.86,-5.64,-0.44,0.73,-0.49,
4.709,0.88,4.86,-5.64,-0.49,0.67,-0.50,
4.711,0.88,4.86,-5.64,-0.54,0.60,-0.51,
4.713,0.88,4.86,-5.64,-0.59,0.52,-0.53,
4.715,0.88,4.86,-5.64,-0.65,0.44,-0.55,
4.717,0.88,4.83,-5.81,-0.65,0.44,-0.55,
4.717,0.88,4.83,-5.81,-0.71,0.36,-0.57,
4.719,0.88,4.83,-5.81,-0.77,0.28,-0.59,
4.721,0.88,4.83,-5.81,-0.83,0.20,-0.61,
4.723,0.88,4.83,-5.81,-0.89,0.12,-0.63,
4.726,0.88,4.83,-5.81,-0.96,0.03,-0.65,
4.727,0.66,4.84,-5.62,-0.96,0.03,-0.65,
4.727,0.66,4.84,-5.62,-1.03,-0.06,-0.67,
4.729,0.66,4.84,-5.62,-1.10,-0.14,-0.69,
4.731,0.66,4.84,-5.62,-1.16,-0.23,-0.71,
4.733,0.66,4.84,-5.62,-1.24,-0.31,-0.73,
4.737,0.66,4.84,-5.62,-1.31,-0.39,-0.75,
4.739,0.31,4.82,-5.50,-1.31,-0.39,-0.75,
4.756,0.31,4.82,-5.50,-1.38,-0.47,-0.77,
4.757,0.31,4.82,-5.50,-1.45,-0.55,-0.78,
4.757,0.31,4.82,-5.50,-1.52,-0.62,-0.80,
4.757,0.31,4.82,-5.50,-1.59,-0.69,-0.81,
4.757,0.31,4.82,-5.50,-1.67,-0.76,-0.82,
4.757,-0.01,4.80,-4.85,-1.67,-0.76,-0.82,
4.757,-0.01,4.80,-4.85,-1.74,-0.82,-0.84,
4.757,-0.01,4.80,-4.85,-1.81,-0.89,-0.85,
4.758,-0.01,4.80,-4.85,-1.91,-0.98,-0.86,
4.758,-0.01,4.80,-4.85,-1.95,-1.01,-0.87,
4.758,-0.01,4.80,-4.85,-2.01,-1.06,-0.88,
4.758,-0.44,4.60,-4.07,-2.01,-1.06,-0.88,
4.758,-0.44,4.60,-4.07,-2.08,-1.12,-0.89,
4.759,-0.44,4.60,-4.07,-2.15,-1.17,-0.90,
4.761,-0.44,4.60,-4.07,-2.21,-1.23,-0.90,
4.763,-0.44,4.60,-4.07,-2.28,-1.28,-0.91,
4.764,-0.44,4.60,-4.07,-2.34,-1.33,-0.91,
4.767,-0.97,4.18,-2.80,-2.34,-1.33,-0.91,
4.767,-0.97,4.18,-2.80,-2.41,-1.38,-0.91,
4.768,-0.97,4.18,-2.80,-2.48,-1.44,-0.92,
4.77,-0.97,4.18,-2.80,-2.55,-1.50,-0.92,
4.773,-0.97,4.18,-2.80,-2.66,-1.60,-0.93,
4.774,-0.97,4.18,-2.80,-2.70,-1.63,-0.94,
4.778,-1.66,3.23,-1.05,-2.70,-1.63,-0.94,
4.778,-1.66,3.23,-1.05,-2.77,-1.70,-0.95,
4.779,-1.66,3.23,-1.05,-2.84,-1.77,-0.96,
4.781,-1.66,3.23,-1.05,-2.90,-1.83,-0.97,
4.783,-1.66,3.23,-1.05,-2.94,-1.88,-0.99,
4.785,-1.66,3.23,-1.05,-2.97,-1.91,-1.01,
4.788,-2.16,1.30,3.36,-2.97,-1.91,-1.01,
4.788,-2.16,1.30,3.36,-2.98,-1.92,-1.03,
4.789,-2.16,1.30,3.36,-2.96,-1.91,-1.05,
4.791,-2.16,1.30,3.36,-2.86,-1.83,-1.09,
4.793,-2.16,1.30,3.36,-2.81,-1.79,-1.10,
4.795,-2.16,1.30,3.36,-2.68,-1.67,-1.12,
4.798,-2.58,-2.26,12.98,-2.68,-1.67,-1.12,
4.798,-2.58,-2.26,12.98,-2.50,-1.52,-1.13,
4.799,-2.58,-2.26,12.98,-2.28,-1.35,-1.14,
4.801,-2.58,-2.26,12.98,-2.03,-1.16,-1.16,
4.803,-2.58,-2.26,12.98,-1.74,-0.98,-1.17,
4.806,-2.58,-2.26,12.98,-1.43,-0.83,-1.19,
4.809,-1.90,-7.29,23.85,-1.43,-0.83,-1.19,
4.81,-1.90,-7.29,23.85,-1.11,-0.71,-1.21,
4.811,-1.90,-7.29,23.85,-0.80,-0.63,-1.22,
4.839,-1.90,-7.29,23.85,-0.48,-0.57,-1.22,
4.84,-1.90,-7.29,23.85,-0.19,-0.53,-1.21,
4.84,-1.90,-7.29,23.85,0.08,-0.51,-1.17,
4.841,-2.71,-11.36,27.84,0.08,-0.51,-1.17,
4.841,-2.71,-11.36,27.84,0.31,-0.50,-1.10,
4.842,-2.71,-11.36,27.84,0.49,-0.51,-1.00,
4.842,-2.71,-11.36,27.84,0.63,-0.52,-0.87,
4.843,-2.71,-11.36,27.84,0.75,-0.54,-0.73,
4.843,-2.71,-11.36,27.84,0.87,-0.53,-0.57,
4.844,-6.89,-12.37,23.51,0.87,-0.53,-0.57,
4.844,-6.89,-12.37,23.51,0.97,-0.51,-0.40,
4.845,-6.89,-12.37,23.51,1.08,-0.46,-0.24,
4.845,-6.89,-12.37,23.51,1.17,-0.38,-0.08,
4.845,-6.89,-12.37,23.51,1.24,-0.30,0.07,
4.846,-6.89,-12.37,23.51,1.29,-0.21,0.21,
4.846,-8.45,-11.23,18.68,1.29,-0.21,0.21,
4.847,-8.45,-11.23,18.68,1.31,-0.12,0.33,
4.847,-8.45,-11.23,18.68,1.31,-0.03,0.44,
4.847,-8.45,-11.23,18.68,1.27,0.09,0.57,
4.848,-8.45,-11.23,18.68,1.25,0.14,0.60,
4.848,-8.45,-11.23,18.68,1.19,0.22,0.66,
4.849,-6.99,-8.22,11.30,1.19,0.22,0.66,
4.849,-6.99,-8.22,11.30,1.12,0.31,0.70,
4.85,-6.99,-8.22,11.30,1.05,0.40,0.74,
4.884,-6.99,-8.22,11.30,0.97,0.50,0.76,
4.884,-6.99,-8.22,11.30,0.89,0.60,0.77,
4.884,-6.99,-8.22,11.30,0.81,0.71,0.78,
4.884,-5.60,-4.88,6.53,0.81,0.71,0.78,
4.884,-5.60,-4.88,6.53,0.73,0.82,0.78,
4.885,-5.60,-4.88,6.53,0.67,0.92,0.78,
4.885,-5.60,-4.88,6.53,0.61,1.03,0.78,
4.885,-5.60,-4.88,6.53,0.55,1.14,0.77,
4.885,-5.60,-4.88,6.53,0.51,1.24,0.76,
4.885,-4.66,-1.58,4.35,0.51,1.24,0.76,
4.886,-4.66,-1.58,4.35,0.48,1.34,0.74,
4.886,-4.66,-1.58,4.35,0.46,1.44,0.73,
4.886,-4.66,-1.58,4.35,0.44,1.54,0.70,
4.886,-4.66,-1.58,4.35,0.44,1.63,0.68,
4.886,-4.66,-1.58,4.35,0.42,1.72,0.65,
4.886,-4.08,1.43,3.11,0.42,1.72,0.65,
4.887,-4.08,1.43,3.11,0.41,1.80,0.63,
4.887,-4.08,1.43,3.11,0.39,1.88,0.60,
4.887,-4.08,1.43,3.11,0.37,1.95,0.57,
4.887,-4.08,1.43,3.11,0.33,2.03,0.54,
4.887,-4.08,1.43,3.11,0.29,2.11,0.51,
4.888,-4.01,3.14,0.53,0.29,2.11,0.51,
4.888,-4.01,3.14,0.53,0.23,2.19,0.48,
4.89,-4.01,3.14,0.53,0.17,2.27,0.46,
4.891,-4.01,3.14,0.53,0.11,2.33,0.45,
4.893,-4.01,3.14,0.53,0.03,2.37,0.44,
4.895,-4.01,3.14,0.53,-0.04,2.39,0.44,
4.897,-5.54,2.91,-0.99,-0.04,2.39,0.44,
4.898,-5.54,2.91,-0.99,-0.11,2.38,0.45,
4.898,-5.54,2.91,-0.99,-0.19,2.33,0.47,
4.9,-5.54,2.91,-0.99,-0.30,2.22,0.51,
4.902,-5.54,2.91,-0.99,-0.34,2.17,0.52,
4.904,-5.54,2.91,-0.99,-0.42,2.06,0.56,
4.909,-6.31,0.85,-1.69,-0.42,2.06,0.56,
4.91,-6.31,0.85,-1.69,-0.51,1.91,0.60,
4.91,-6.31,0.85,-1.69,-0.60,1.75,0.64,
4.911,-6.31,0.85,-1.69,-0.69,1.57,0.67,
4.913,-6.31,0.85,-1.69,-0.79,1.37,0.71,
4.915,-6.31,0.85,-1.69,-0.89,1.17,0.74,
4.921,-4.79,-1.75,-3.44,-0.89,1.17,0.74,
4.921,-4.79,-1.75,-3.44,-0.99,0.95,0.78,
4.921,-4.79,-1.75,-3.44,-1.09,0.72,0.81,
4.921,-4.79,-1.75,-3.44,-1.18,0.48,0.85,
4.933,-4.79,-1.75,-3.44,-1.28,0.24,0.88,
4.934,-4.79,-1.75,-3.44,-1.37,-0.03,0.92,
4.934,-2.36,-4.02,-5.02,-1.37,-0.03,0.92,
4.934,-2.36,-4.02,-5.02,-1.45,-0.31,0.95,
4.934,-2.36,-4.02,-5.02,-1.52,-0.62,0.99,
4.935,-2.36,-4.02,-5.02,-1.59,-0.94,1.03,
4.935,-2.36,-4.02,-5.02,-1.64,-1.29,1.07,
4.938,-2.36,-4.02,-5.02,-1.71,-1.84,1.14,
4.938,-0.60,-5.97,-6.05,-1.71,-1.84,1.14,
4.938,-0.60,-5.97,-6.05,-1.73,-2.02,1.16,
