
time,ax,ay,az,wx,wy,wz,
0.003,0.17,0.12,-2.30,-0.47,-0.06,0.52,
0.004,0.17,0.12,-2.30,-0.49,-0.05,0.52,
0.004,0.33,0.13,-2.49,-0.49,-0.05,0.52,
0.004,0.33,0.13,-2.49,-0.52,-0.04,0.51,
0.005,0.33,0.13,-2.49,-0.54,-0.04,0.51,
0.005,0.33,0.13,-2.49,-0.56,-0.03,0.51,
0.005,0.33,0.13,-2.49,-0.58,-0.03,0.51,
0.022,0.33,0.13,-2.49,-0.61,-0.02,0.51,
0.023,0.21,0.30,-2.64,-0.61,-0.02,0.51,
0.023,0.21,0.30,-2.64,-0.63,-0.02,0.51,
0.024,0.21,0.30,-2.64,-0.65,-0.01,0.51,
0.024,0.21,0.30,-2.64,-0.67,-0.01,0.51,
0.024,0.21,0.30,-2.64,-0.69,-0.00,0.52,
0.024,0.21,0.30,-2.64,-0.70,0.01,0.52,
0.025,0.06,0.39,-2.55,-0.70,0.01,0.52,
0.025,0.06,0.39,-2.55,-0.72,0.02,0.53,
0.025,0.06,0.39,-2.55,-0.73,0.02,0.54,
0.026,0.06,0.39,-2.55,-0.74,0.03,0.54,
0.026,0.06,0.39,-2.55,-0.75,0.04,0.55,
0.026,0.06,0.39,-2.55,-0.75,0.05,0.55,
0.036,-0.07,0.37,-2.14,-0.75,0.05,0.55,
0.037,-0.07,0.37,-2.14,-0.75,0.05,0.56,
0.038,-0.07,0.37,-2.14,-0.75,0.05,0.57,
0.038,-0.07,0.37,-2.14,-0.75,0.05,0.57,
0.039,-0.07,0.37,-2.14,-0.75,0.04,0.58,
0.039,-0.07,0.37,-2.14,-0.75,0.04,0.59,
0.039,-0.26,0.25,-1.61,-0.75,0.04,0.59,
0.04,-0.26,0.25,-1.61,-0.74,0.03,0.60,
0.04,-0.26,0.25,-1.61,-0.73,0.02,0.61,
0.051,-0.26,0.25,-1.61,-0.71,0.01,0.63,
0.052,-0.26,0.25,-1.61,-0.70,0.00,0.65,
0.052,-0.26,0.25,-1.61,-0.68,-0.01,0.67,
0.053,-0.58,0.20,-1.14,-0.68,-0.01,0.67,
0.054,-0.58,0.20,-1.14,-0.67,-0.01,0.68,
0.054,-0.58,0.20,-1.14,-0.65,-0.02,0.70,
0.055,-0.58,0.20,-1.14,-0.63,-0.03,0.72,
0.061,-0.58,0.20,-1.14,-0.61,-0.03,0.74,
0.062,-0.58,0.20,-1.14,-0.59,-0.04,0.76,
0.063,-0.73,0.15,-0.90,-0.59,-0.04,0.76,
0.064,-0.73,0.15,-0.90,-0.57,-0.05,0.78,
0.065,-0.73,0.15,-0.90,-0.56,-0.05,0.80,
0.066,-0.73,0.15,-0.90,-0.54,-0.06,0.82,
0.075,-0.73,0.15,-0.90,-0.52,-0.07,0.83,
0.076,-0.73,0.15,-0.90,-0.50,-0.08,0.85,
0.076,-0.72,0.19,-0.77,-0.50,-0.08,0.85,
0.077,-0.72,0.19,-0.77,-0.49,-0.09,0.86,
0.077,-0.72,0.19,-0.77,-0.47,-0.09,0.88,
0.077,-0.72,0.19,-0.77,-0.46,-0.09,0.89,
0.078,-0.72,0.19,-0.77,-0.45,-0.08,0.91,
0.078,-0.72,0.19,-0.77,-0.45,-0.07,0.92,
0.096,-0.76,0.29,-0.88,-0.45,-0.07,0.92,
0.097,-0.76,0.29,-0.88,-0.45,-0.06,0.93,
0.097,-0.76,0.29,-0.88,-0.44,-0.05,0.95,
0.098,-0.76,0.29,-0.88,-0.45,-0.04,0.96,
0.098,-0.76,0.29,-0.88,-0.45,-0.04,0.97,
0.099,-0.76,0.29,-0.88,-0.46,-0.03,0.98,
0.099,-0.51,0.44,-1.27,-0.46,-0.03,0.98,
0.099,-0.51,0.44,-1.27,-0.47,-0.04,0.99,
0.1,-0.51,0.44,-1.27,-0.48,-0.04,1.00,
0.1,-0.51,0.44,-1.27,-0.49,-0.04,1.01,
0.101,-0.51,0.44,-1.27,-0.51,-0.03,1.01,
0.101,-0.51,0.44,-1.27,-0.52,-0.00,1.01,
0.101,-0.39,0.91,-1.35,-0.52,-0.00,1.01,
0.102,-0.39,0.91,-1.35,-0.52,0.02,1.01,
0.102,-0.39,0.91,-1.35,-0.54,0.05,1.00,
0.108,-0.39,0.91,-1.35,-0.55,0.07,0.99,
0.108,-0.39,0.91,-1.35,-0.57,0.07,0.98,
0.109,-0.39,0.91,-1.35,-0.59,0.06,0.96,
0.109,0.27,1.22,-1.58,-0.59,0.06,0.96,
0.109,0.27,1.22,-1.58,-0.61,0.06,0.94,
0.111,0.27,1.22,-1.58,-0.62,0.04,0.92,
0.112,0.27,1.22,-1.58,-0.64,0.03,0.90,
0.115,0.27,1.22,-1.58,-0.65,0.02,0.88,
0.117,0.27,1.22,-1.58,-0.66,0.02,0.86,
0.121,0.60,1.05,-1.22,-0.66,0.02,0.86,
0.122,0.60,1.05,-1.22,-0.67,0.03,0.83,
0.124,0.60,1.05,-1.22,-0.68,0.04,0.81,
0.124,0.60,1.05,-1.22,-0.68,0.06,0.80,
0.127,0.60,1.05,-1.22,-0.68,0.10,0.77,
0.128,0.60,1.05,-1.22,-0.68,0.10,0.77,
0.129,0.38,1.13,-0.72,-0.68,0.10,0.77,
0.13,0.38,1.13,-0.72,-0.67,0.13,0.77,
0.131,0.38,1.13,-0.72,-0.67,0.15,0.76,
0.133,0.38,1.13,-0.72,-0.66,0.18,0.76,
0.135,0.38,1.13,-0.72,-0.65,0.21,0.75,
0.137,0.38,1.13,-0.72,-0.65,0.24,0.75,
0.139,0.22,1.25,-0.25,-0.65,0.24,0.75,
0.14,0.22,1.25,-0.25,-0.64,0.28,0.74,
0.141,0.22,1.25,-0.25,-0.63,0.30,0.73,
0.143,0.22,1.25,-0.25,-0.62,0.33,0.73,
0.145,0.22,1.25,-0.25,-0.62,0.36,0.72,
0.147,0.22,1.25,-0.25,-0.61,0.38,0.71,
0.15,0.27,1.35,-0.05,-0.61,0.38,0.71,
0.151,0.27,1.35,-0.05,-0.60,0.40,0.70,
0.152,0.27,1.35,-0.05,-0.60,0.42,0.69,
0.158,0.27,1.35,-0.05,-0.59,0.44,0.68,
0.16,0.27,1.35,-0.05,-0.59,0.45,0.67,
0.161,0.27,1.35,-0.05,-0.59,0.47,0.66,
0.161,0.25,1.38,-0.02,-0.59,0.47,0.66,
0.162,0.25,1.38,-0.02,-0.58,0.49,0.65,
0.162,0.25,1.38,-0.02,-0.58,0.50,0.65,
0.163,0.25,1.38,-0.02,-0.58,0.51,0.64,
0.165,0.25,1.38,-0.02,-0.58,0.52,0.64,
0.167,0.25,1.38,-0.02,-0.58,0.53,0.64,
0.169,-0.04,1.18,0.16,-0.58,0.53,0.64,
0.171,-0.04,1.18,0.16,-0.58,0.55,0.64,
0.173,-0.04,1.18,0.16,-0.58,0.56,0.64,
0.174,-0.04,1.18,0.16,-0.59,0.58,0.65,
0.175,-0.04,1.18,0.16,-0.59,0.60,0.67,
0.189,-0.04,1.18,0.16,-0.60,0.62,0.69,
0.189,-0.80,0.82,0.33,-0.60,0.62,0.69,
0.19,-0.80,0.82,0.33,-0.61,0.63,0.70,
0.19,-0.80,0.82,0.33,-0.62,0.65,0.73,
0.19,-0.80,0.82,0.33,-0.63,0.66,0.75,
0.19,-0.80,0.82,0.33,-0.63,0.67,0.78,
0.191,-0.80,0.82,0.33,-0.64,0.69,0.82,
0.191,-1.78,0.53,0.55,-0.64,0.69,0.82,
0.191,-1.78,0.53,0.55,-0.65,0.70,0.86,
0.191,-1.78,0.53,0.55,-0.65,0.71,0.90,
0.211,-1.78,0.53,0.55,-0.65,0.72,0.94,
0.212,-1.78,0.53,0.55,-0.64,0.74,0.98,
0.212,-1.78,0.53,0.55,-0.64,0.75,1.02,
0.213,-2.12,0.21,1.47,-0.64,0.75,1.02,
0.213,-2.12,0.21,1.47,-0.63,0.77,1.07,
0.213,-2.12,0.21,1.47,-0.62,0.78,1.11,
0.213,-2.12,0.21,1.47,-0.62,0.79,1.15,
0.213,-2.12,0.21,1.47,-0.62,0.80,1.18,
0.213,-2.12,0.21,1.47,-0.62,0.81,1.22,
0.214,-1.98,0.06,1.78,-0.62,0.81,1.22,
0.214,-1.98,0.06,1.78,-0.62,0.82,1.25,
0.214,-1.98,0.06,1.78,-0.63,0.82,1.28,
0.214,-1.98,0.06,1.78,-0.64,0.82,1.31,
0.214,-1.98,0.06,1.78,-0.66,0.83,1.33,
0.216,-1.98,0.06,1.78,-0.67,0.83,1.35,
0.229,-1.48,-0.05,1.39,-0.67,0.83,1.35,
0.231,-1.48,-0.05,1.39,-0.69,0.83,1.37,
0.231,-1.48,-0.05,1.39,-0.71,0.83,1.39,
0.232,-1.48,-0.05,1.39,-0.73,0.82,1.41,
0.233,-1.48,-0.05,1.39,-0.75,0.81,1.42,
0.233,-1.48,-0.05,1.39,-0.77,0.80,1.44,
0.234,-1.03,-0.14,1.06,-0.77,0.80,1.44,
0.235,-1.03,-0.14,1.06,-0.78,0.79,1.45,
0.264,-1.03,-0.14,1.06,-0.80,0.79,1.47,
0.264,-1.03,-0.14,1.06,-0.81,0.78,1.48,
0.265,-1.03,-0.14,1.06,-0.83,0.78,1.49,
0.265,-1.03,-0.14,1.06,-0.84,0.78,1.50,
0.266,-0.66,-0.12,0.89,-0.84,0.78,1.50,
0.266,-0.66,-0.12,0.89,-0.84,0.79,1.51,
0.266,-0.66,-0.12,0.89,-0.85,0.80,1.51,
0.267,-0.66,-0.12,0.89,-0.85,0.81,1.52,
0.267,-0.66,-0.12,0.89,-0.85,0.82,1.53,
0.268,-0.66,-0.12,0.89,-0.85,0.83,1.54,
0.268,-0.33,-0.06,1.11,-0.85,0.83,1.54,
0.268,-0.33,-0.06,1.11,-0.85,0.85,1.55,
0.269,-0.33,-0.06,1.11,-0.85,0.86,1.57,
0.269,-0.33,-0.06,1.11,-0.85,0.87,1.59,
0.27,-0.33,-0.06,1.11,-0.85,0.89,1.61,
0.27,-0.33,-0.06,1.11,-0.85,0.90,1.64,
0.27,-0.44,0.22,1.05,-0.85,0.90,1.64,
0.271,-0.44,0.22,1.05,-0.85,0.91,1.66,
0.271,-0.44,0.22,1.05,-0.85,0.92,1.68,
0.272,-0.44,0.22,1.05,-0.85,0.93,1.70,
0.272,-0.44,0.22,1.05,-0.85,0.95,1.72,
0.272,-0.44,0.22,1.05,-0.86,0.96,1.74,
0.273,-0.66,0.19,0.55,-0.86,0.96,1.74,
0.273,-0.66,0.19,0.55,-0.88,0.98,1.76,
0.273,-0.66,0.19,0.55,-0.89,0.99,1.78,
0.274,-0.66,0.19,0.55,-0.90,1.00,1.79,
0.286,-0.66,0.19,0.55,-0.92,1.01,1.81,
0.287,-0.66,0.19,0.55,-0.93,1.01,1.82,
0.287,-0.76,0.02,0.00,-0.93,1.01,1.82,
0.288,-0.76,0.02,0.00,-0.93,1.00,1.83,
0.288,-0.76,0.02,0.00,-0.94,1.00,1.84,
0.288,-0.76,0.02,0.00,-0.94,0.98,1.85,
0.29,-0.76,0.02,0.00,-0.94,0.96,1.86,
0.29,-0.76,0.02,0.00,-0.92,0.94,1.88,
0.291,-0.91,0.05,0.15,-0.92,0.94,1.88,
0.291,-0.91,0.05,0.15,-0.91,0.91,1.89,
0.291,-0.91,0.05,0.15,-0.89,0.89,1.91,
0.297,-0.91,0.05,0.15,-0.87,0.85,1.93,
0.297,-0.91,0.05,0.15,-0.84,0.82,1.95,
0.298,-0.91,0.05,0.15,-0.82,0.78,1.98,
0.301,-1.10,0.36,0.64,-0.82,0.78,1.98,
0.302,-1.10,0.36,0.64,-0.78,0.75,2.00,
0.302,-1.10,0.36,0.64,-0.75,0.72,2.03,
0.302,-1.10,0.36,0.64,-0.71,0.68,2.06,
0.323,-1.10,0.36,0.64,-0.67,0.65,2.09,
0.324,-1.10,0.36,0.64,-0.63,0.61,2.12,
0.324,-1.23,0.75,1.06,-0.63,0.61,2.12,
0.324,-1.23,0.75,1.06,-0.59,0.57,2.14,
0.324,-1.23,0.75,1.06,-0.55,0.54,2.16,
0.324,-1.23,0.75,1.06,-0.51,0.50,2.18,
0.324,-1.23,0.75,1.06,-0.47,0.46,2.19,
0.325,-1.23,0.75,1.06,-0.44,0.42,2.19,
0.325,-1.13,0.86,1.26,-0.44,0.42,2.19,
0.325,-1.13,0.86,1.26,-0.40,0.38,2.19,
0.325,-1.13,0.86,1.26,-0.35,0.35,2.19,
0.325,-1.13,0.86,1.26,-0.30,0.32,2.18,
0.341,-1.13,0.86,1.26,-0.25,0.30,2.17,
0.341,-1.13,0.86,1.26,-0.19,0.29,2.15,
0.341,-0.90,0.96,1.47,-0.19,0.29,2.15,
0.342,-0.90,0.96,1.47,-0.13,0.29,2.13,
0.342,-0.90,0.96,1.47,-0.06,0.30,2.11,
0.342,-0.90,0.96,1.47,0.02,0.31,2.07,
0.342,-0.90,0.96,1.47,0.10,0.33,2.03,
0.343,-0.90,0.96,1.47,0.19,0.35,1.99,
0.343,-0.00,1.03,1.62,0.19,0.35,1.99,
0.343,-0.00,1.03,1.62,0.29,0.37,1.94,
0.343,-0.00,1.03,1.62,0.39,0.41,1.88,
0.343,-0.00,1.03,1.62,0.50,0.45,1.82,
0.346,-0.00,1.03,1.62,0.61,0.50,1.75,
0.347,-0.00,1.03,1.62,0.73,0.54,1.69,
0.349,1.00,0.79,1.91,0.73,0.54,1.69,
0.349,1.00,0.79,1.91,0.85,0.59,1.62,
0.35,1.00,0.79,1.91,0.97,0.64,1.56,
0.353,1.00,0.79,1.91,1.09,0.69,1.49,
0.356,1.00,0.79,1.91,1.22,0.76,1.42,
0.357,1.00,0.79,1.91,1.34,0.81,1.35,
0.359,1.39,0.10,1.95,1.34,0.81,1.35,
0.359,1.39,0.10,1.95,1.47,0.86,1.28,
0.36,1.39,0.10,1.95,1.60,0.92,1.20,
0.363,1.39,0.10,1.95,1.73,0.97,1.13,
0.364,1.39,0.10,1.95,1.86,1.02,1.05,
0.367,1.39,0.10,1.95,2.00,1.08,0.97,
0.369,2.05,-0.79,1.80,2.00,1.08,0.97,
0.373,2.05,-0.79,1.80,2.13,1.14,0.89,
0.373,2.05,-0.79,1.80,2.27,1.21,0.82,
0.374,2.05,-0.79,1.80,2.39,1.27,0.76,
0.375,2.05,-0.79,1.80,2.51,1.34,0.71,
0.377,2.05,-0.79,1.80,2.63,1.39,0.67,
0.379,1.54,-1.51,1.03,2.63,1.39,0.67,
0.38,1.54,-1.51,1.03,2.74,1.45,0.64,
0.381,1.54,-1.51,1.03,2.85,1.51,0.61,
0.383,1.54,-1.51,1.03,2.96,1.56,0.60,
0.385,1.54,-1.51,1.03,3.06,1.62,0.59,
0.387,1.54,-1.51,1.03,3.17,1.67,0.58,
0.389,0.63,-1.77,0.84,3.17,1.67,0.58,
0.389,0.63,-1.77,0.84,3.28,1.72,0.58,
0.391,0.63,-1.77,0.84,3.38,1.77,0.59,
0.393,0.63,-1.77,0.84,3.48,1.80,0.60,
0.395,0.63,-1.77,0.84,3.56,1.82,0.61,
0.397,0.63,-1.77,0.84,3.62,1.81,0.63,
0.423,0.49,-1.78,0.74,3.62,1.81,0.63,
0.423,0.49,-1.78,0.74,3.64,1.78,0.65,
0.424,0.49,-1.78,0.74,3.59,1.67,0.68,
0.424,0.49,-1.78,0.74,3.45,1.51,0.71,
0.424,0.49,-1.78,0.74,3.28,1.35,0.75,
0.425,0.49,-1.78,0.74,3.13,1.23,0.80,
0.425,0.43,-2.04,-1.98,3.13,1.23,0.80,
0.425,0.43,-2.04,-1.98,2.99,1.15,0.85,
0.425,0.43,-2.04,-1.98,2.86,1.10,0.90,
0.426,0.43,-2.04,-1.98,2.74,1.08,0.95,
0.426,0.43,-2.04,-1.98,2.65,1.10,0.98,
0.426,0.43,-2.04,-1.98,2.59,1.14,1.02,
0.426,0.07,-1.44,-1.51,2.59,1.14,1.02,
0.427,0.07,-1.44,-1.51,2.56,1.22,1.05,
0.427,0.07,-1.44,-1.51,2.57,1.33,1.08,
0.427,0.07,-1.44,-1.51,2.62,1.44,1.09,
0.428,0.07,-1.44,-1.51,2.69,1.57,1.09,
0.428,0.07,-1.44,-1.51,2.77,1.68,1.09,
0.43,0.79,-1.35,-0.03,2.77,1.68,1.09,
0.431,0.79,-1.35,-0.03,2.84,1.74,1.08,
0.431,0.79,-1.35,-0.03,2.91,1.77,1.06,
0.433,0.79,-1.35,-0.03,2.97,1.78,1.03,
0.444,0.79,-1.35,-0.03,3.03,1.77,1.00,
0.445,0.79,-1.35,-0.03,3.08,1.75,0.97,
0.445,2.10,-2.02,-0.88,3.08,1.75,0.97,
0.445,2.10,-2.02,-0.88,3.12,1.73,0.93,
0.445,2.10,-2.02,-0.88,3.17,1.70,0.88,
0.446,2.10,-2.02,-0.88,3.22,1.68,0.84,
0.446,2.10,-2.02,-0.88,3.26,1.66,0.80,
0.449,2.10,-2.02,-0.88,3.30,1.65,0.76,
0.45,2.09,-2.67,-1.20,3.30,1.65,0.76,
0.45,2.09,-2.67,-1.20,3.35,1.63,0.71,
0.46,2.09,-2.67,-1.20,3.39,1.63,0.67,
0.461,2.09,-2.67,-1.20,3.43,1.65,0.63,
0.461,2.09,-2.67,-1.20,3.46,1.70,0.58,
0.461,2.09,-2.67,-1.20,3.47,1.79,0.53,
0.461,1.53,-2.99,-1.15,3.47,1.79,0.53,
0.461,1.53,-2.99,-1.15,3.46,1.93,0.48,
0.462,1.53,-2.99,-1.15,3.42,2.13,0.43,
0.463,1.53,-2.99,-1.15,3.36,2.37,0.37,
0.465,1.53,-2.99,-1.15,3.27,2.65,0.31,
0.467,1.53,-2.99,-1.15,3.13,2.95,0.24,
0.483,1.59,-3.43,-2.08,3.13,2.95,0.24,
0.484,1.59,-3.43,-2.08,2.96,3.26,0.16,
0.484,1.59,-3.43,-2.08,2.74,3.55,0.08,
0.484,1.59,-3.43,-2.08,2.51,3.82,-0.01,
0.484,1.59,-3.43,-2.08,2.26,4.03,-0.11,
0.484,1.59,-3.43,-2.08,2.00,4.18,-0.21,
0.484,2.43,-3.42,-4.14,2.00,4.18,-0.21,
0.484,2.43,-3.42,-4.14,1.68,4.02,-0.32,
0.484,2.43,-3.42,-4.14,1.24,3.30,-0.46,
0.485,2.43,-3.42,-4.14,0.82,2.92,-0.60,
0.485,2.43,-3.42,-4.14,0.51,2.93,-0.72,
0.49,2.43,-3.42,-4.14,0.28,2.91,-0.80,
0.491,1.15,-2.88,-2.81,0.28,2.91,-0.80,
0.491,1.15,-2.88,-2.81,0.10,2.82,-0.85,
0.492,1.15,-2.88,-2.81,-0.01,2.62,-0.89,
0.492,1.15,-2.88,-2.81,-0.09,2.34,-0.93,
0.494,1.15,-2.88,-2.81,-0.16,2.05,-0.97,
0.496,1.15,-2.88,-2.81,-0.21,1.76,-1.03,
0.499,0.36,-3.48,-1.04,-0.21,1.76,-1.03,
0.499,0.36,-3.48,-1.04,-0.26,1.50,-1.10,
0.501,0.36,-3.48,-1.04,-0.30,1.27,-1.16,
0.503,0.36,-3.48,-1.04,-0.34,1.09,-1.23,
0.504,0.36,-3.48,-1.04,-0.36,0.94,-1.29,
0.506,0.36,-3.48,-1.04,-0.37,0.83,-1.34,
0.509,1.17,-3.22,-0.64,-0.37,0.83,-1.34,
0.509,1.17,-3.22,-0.64,-0.37,0.73,-1.39,
0.511,1.17,-3.22,-0.64,-0.36,0.65,-1.43,
0.512,1.17,-3.22,-0.64,-0.34,0.58,-1.47,
0.514,1.17,-3.22,-0.64,-0.32,0.53,-1.51,
0.517,1.17,-3.22,-0.64,-0.31,0.49,-1.56,
0.519,2.05,-2.77,-0.34,-0.31,0.49,-1.56,
0.519,2.05,-2.77,-0.34,-0.29,0.47,-1.61,
0.52,2.05,-2.77,-0.34,-0.27,0.46,-1.66,
0.522,2.05,-2.77,-0.34,-0.26,0.46,-1.71,
0.524,2.05,-2.77,-0.34,-0.25,0.46,-1.77,
0.526,2.05,-2.77,-0.34,-0.24,0.47,-1.82,
0.529,2.72,-3.13,-1.21,-0.24,0.47,-1.82,
0.529,2.72,-3.13,-1.21,-0.24,0.47,-1.88,
0.53,2.72,-3.13,-1.21,-0.23,0.48,-1.93,
0.532,2.72,-3.13,-1.21,-0.22,0.50,-1.98,
0.535,2.72,-3.13,-1.21,-0.21,0.52,-2.03,
0.536,2.72,-3.13,-1.21,-0.21,0.55,-2.08,
0.539,3.14,-3.43,-2.13,-0.21,0.55,-2.08,
0.54,3.14,-3.43,-2.13,-0.20,0.59,-2.12,
0.54,3.14,-3.43,-2.13,-0.19,0.63,-2.16,
0.543,3.14,-3.43,-2.13,-0.19,0.68,-2.21,
0.544,3.14,-3.43,-2.13,-0.18,0.74,-2.25,
0.546,3.14,-3.43,-2.13,-0.17,0.80,-2.29,
0.549,3.64,-3.89,-2.76,-0.17,0.80,-2.29,
0.55,3.64,-3.89,-2.76,-0.16,0.87,-2.33,
0.552,3.64,-3.89,-2.76,-0.15,0.95,-2.37,
0.553,3.64,-3.89,-2.76,-0.14,1.03,-2.41,
0.555,3.64,-3.89,-2.76,-0.13,1.12,-2.44,
0.556,3.64,-3.89,-2.76,-0.12,1.22,-2.47,
0.559,4.01,-4.05,-3.57,-0.12,1.22,-2.47,
0.559,4.01,-4.05,-3.57,-0.11,1.32,-2.51,
0.56,4.01,-4.05,-3.57,-0.09,1.43,-2.54,
0.562,4.01,-4.05,-3.57,-0.07,1.54,-2.57,
0.588,4.01,-4.05,-3.57,-0.05,1.66,-2.59,
0.589,4.01,-4.05,-3.57,-0.03,1.79,-2.62,
0.589,4.12,-4.29,-3.84,-0.03,1.79,-2.62,
0.59,4.12,-4.29,-3.84,-0.01,1.92,-2.64,
0.59,4.12,-4.29,-3.84,0.03,2.05,-2.67,
0.59,4.12,-4.29,-3.84,0.06,2.19,-2.68,
0.591,4.12,-4.29,-3.84,0.10,2.33,-2.70,
0.591,4.12,-4.29,-3.84,0.15,2.47,-2.72,
0.592,3.88,-4.22,-3.59,0.15,2.47,-2.72,
0.592,3.88,-4.22,-3.59,0.20,2.62,-2.74,
0.592,3.88,-4.22,-3.59,0.25,2.76,-2.75,
0.593,3.88,-4.22,-3.59,0.31,2.90,-2.76,
0.593,3.88,-4.22,-3.59,0.38,3.04,-2.76,
0.594,3.88,-4.22,-3.59,0.45,3.17,-2.77,
0.594,2.98,-4.10,-2.78,0.45,3.17,-2.77,
0.594,2.98,-4.10,-2.78,0.52,3.29,-2.77,
0.595,2.98,-4.10,-2.78,0.60,3.40,-2.77,
0.595,2.98,-4.10,-2.78,0.69,3.50,-2.77,
0.595,2.98,-4.10,-2.78,0.78,3.59,-2.78,
0.599,2.98,-4.10,-2.78,0.87,3.66,-2.79,
0.6,2.24,-3.69,-1.45,0.87,3.66,-2.79,
0.601,2.24,-3.69,-1.45,0.98,3.71,-2.80,
0.601,2.24,-3.69,-1.45,1.08,3.75,-2.82,
0.604,2.24,-3.69,-1.45,1.18,3.78,-2.84,
0.604,2.24,-3.69,-1.45,1.29,3.79,-2.86,
0.607,2.24,-3.69,-1.45,1.40,3.79,-2.90,
0.609,2.20,-3.58,0.11,1.40,3.79,-2.90,
0.609,2.20,-3.58,0.11,1.52,3.78,-2.93,
0.611,2.20,-3.58,0.11,1.64,3.77,-2.97,
0.613,2.20,-3.58,0.11,1.76,3.74,-3.01,
0.615,2.20,-3.58,0.11,1.88,3.72,-3.06,
0.621,2.20,-3.58,0.11,2.00,3.69,-3.11,
0.623,2.66,-3.25,1.25,2.00,3.69,-3.11,
0.624,2.66,-3.25,1.25,2.12,3.66,-3.15,
0.625,2.66,-3.25,1.25,2.25,3.63,-3.21,
0.625,2.66,-3.25,1.25,2.49,3.57,-3.31,
0.626,2.66,-3.25,1.25,2.49,3.57,-3.31,
0.627,2.66,-3.25,1.25,2.62,3.54,-3.35,
0.629,3.18,-3.14,2.15,2.62,3.54,-3.35,
0.631,3.18,-3.14,2.15,2.74,3.51,-3.40,
0.632,3.18,-3.14,2.15,2.86,3.49,-3.45,
0.654,3.18,-3.14,2.15,2.98,3.47,-3.49,
0.654,3.18,-3.14,2.15,3.09,3.45,-3.52,
0.655,3.18,-3.14,2.15,3.20,3.43,-3.56,
0.655,3.32,-3.10,2.57,3.20,3.43,-3.56,
0.655,3.32,-3.10,2.57,3.31,3.42,-3.58,
0.655,3.32,-3.10,2.57,3.41,3.41,-3.61,
0.655,3.32,-3.10,2.57,3.50,3.40,-3.63,
0.656,3.32,-3.10,2.57,3.59,3.40,-3.65,
0.656,3.32,-3.10,2.57,3.66,3.40,-3.66,
0.656,3.02,-3.46,2.68,3.66,3.40,-3.66,
0.656,3.02,-3.46,2.68,3.73,3.41,-3.67,
0.656,3.02,-3.46,2.68,3.79,3.43,-3.68,
0.657,3.02,-3.46,2.68,3.84,3.45,-3.70,
0.657,3.02,-3.46,2.68,3.87,3.48,-3.71,
0.657,3.02,-3.46,2.68,3.89,3.50,-3.72,
0.666,2.21,-3.67,2.15,3.89,3.50,-3.72,
0.666,2.21,-3.67,2.15,3.90,3.52,-3.73,
0.666,2.21,-3.67,2.15,3.90,3.55,-3.74,
0.667,2.21,-3.67,2.15,3.89,3.56,-3.76,
0.667,2.21,-3.67,2.15,3.86,3.57,-3.77,
0.667,2.21,-3.67,2.15,3.83,3.58,-3.80,
0.681,1.24,-3.47,1.29,3.83,3.58,-3.80,
0.682,1.24,-3.47,1.29,3.79,3.57,-3.82,
0.682,1.24,-3.47,1.29,3.74,3.56,-3.85,
0.682,1.24,-3.47,1.29,3.69,3.53,-3.88,
0.682,1.24,-3.47,1.29,3.63,3.49,-3.91,
0.682,1.24,-3.47,1.29,3.56,3.44,-3.95,
0.683,0.51,-2.59,0.57,3.56,3.44,-3.95,
0.683,0.51,-2.59,0.57,3.49,3.38,-3.98,
0.683,0.51,-2.59,0.57,3.41,3.31,-4.02,
0.683,0.51,-2.59,0.57,3.34,3.22,-4.06,
0.684,0.51,-2.59,0.57,3.26,3.12,-4.10,
0.687,0.51,-2.59,0.57,3.18,3.02,-4.13,
0.69,-0.21,-1.86,0.35,3.18,3.02,-4.13,
0.691,-0.21,-1.86,0.35,3.10,2.92,-4.17,
0.691,-0.21,-1.86,0.35,3.02,2.81,-4.20,
0.692,-0.21,-1.86,0.35,2.94,2.70,-4.23,
0.694,-0.21,-1.86,0.35,2.86,2.60,-4.25,
0.696,-0.21,-1.86,0.35,2.79,2.49,-4.27,
0.701,-1.21,-1.49,0.45,2.79,2.49,-4.27,
0.703,-1.21,-1.49,0.45,2.71,2.39,-4.28,
0.705,-1.21,-1.49,0.45,2.64,2.30,-4.29,
0.706,-1.21,-1.49,0.45,2.57,2.20,-4.29,
0.707,-1.21,-1.49,0.45,2.49,2.11,-4.28,
0.708,-1.21,-1.49,0.45,2.42,2.01,-4.27,
0.709,-2.34,-1.23,0.65,2.42,2.01,-4.27,
0.711,-2.34,-1.23,0.65,2.36,1.92,-4.25,
0.711,-2.34,-1.23,0.65,2.30,1.83,-4.23,
0.713,-2.34,-1.23,0.65,2.24,1.75,-4.20,
0.717,-2.34,-1.23,0.65,2.19,1.67,-4.17,
0.717,-2.34,-1.23,0.65,2.15,1.59,-4.13,
0.719,-3.14,-0.79,0.98,2.15,1.59,-4.13,
0.72,-3.14,-0.79,0.98,2.11,1.53,-4.10,
0.721,-3.14,-0.79,0.98,2.07,1.47,-4.05,
0.723,-3.14,-0.79,0.98,2.04,1.43,-4.01,
0.724,-3.14,-0.79,0.98,2.02,1.39,-3.97,
0.727,-3.14,-0.79,0.98,2.00,1.36,-3.92,
0.73,-3.42,-0.27,1.17,2.00,1.36,-3.92,
0.731,-3.42,-0.27,1.17,1.98,1.32,-3.88,
0.757,-3.42,-0.27,1.17,1.97,1.29,-3.84,
0.757,-3.42,-0.27,1.17,1.97,1.26,-3.80,
0.757,-3.42,-0.27,1.17,1.98,1.22,-3.76,
0.758,-3.42,-0.27,1.17,1.98,1.20,-3.73,
0.758,-3.50,0.02,1.08,1.98,1.20,-3.73,
0.759,-3.50,0.02,1.08,1.99,1.17,-3.70,
0.759,-3.50,0.02,1.08,2.01,1.14,-3.66,
0.759,-3.50,0.02,1.08,2.03,1.12,-3.64,
0.76,-3.50,0.02,1.08,2.04,1.09,-3.61,
0.76,-3.50,0.02,1.08,2.06,1.07,-3.59,
0.76,-3.54,0.22,0.77,2.06,1.07,-3.59,
0.76,-3.54,0.22,0.77,2.08,1.05,-3.57,
0.761,-3.54,0.22,0.77,2.10,1.03,-3.54,
0.761,-3.54,0.22,0.77,2.11,1.01,-3.52,
0.761,-3.54,0.22,0.77,2.13,1.00,-3.50,
0.761,-3.54,0.22,0.77,2.14,0.99,-3.47,
0.762,-3.97,0.50,0.30,2.14,0.99,-3.47,
0.762,-3.97,0.50,0.30,2.14,0.99,-3.45,
0.762,-3.97,0.50,0.30,2.14,0.99,-3.43,
0.763,-3.97,0.50,0.30,2.14,0.99,-3.41,
0.772,-3.97,0.50,0.30,2.13,1.00,-3.38,
0.773,-3.97,0.50,0.30,2.11,1.01,-3.36,
0.773,-4.55,0.81,-0.36,2.11,1.01,-3.36,
0.774,-4.55,0.81,-0.36,2.10,1.02,-3.33,
0.774,-4.55,0.81,-0.36,2.07,1.02,-3.31,
0.774,-4.55,0.81,-0.36,2.05,1.03,-3.29,
0.775,-4.55,0.81,-0.36,2.01,1.04,-3.27,
0.779,-4.55,0.81,-0.36,1.98,1.05,-3.25,
0.782,-5.08,0.64,-0.89,1.98,1.05,-3.25,
0.783,-5.08,0.64,-0.89,1.94,1.06,-3.23,
0.783,-5.08,0.64,-0.89,1.90,1.07,-3.21,
0.783,-5.08,0.64,-0.89,1.86,1.07,-3.19,
0.799,-5.08,0.64,-0.89,1.82,1.07,-3.17,
0.8,-5.08,0.64,-0.89,1.78,1.07,-3.15,
0.8,-5.70,0.16,-1.21,1.78,1.07,-3.15,
0.801,-5.70,0.16,-1.21,1.73,1.07,-3.13,
0.801,-5.70,0.16,-1.21,1.69,1.07,-3.11,
0.801,-5.70,0.16,-1.21,1.65,1.06,-3.09,
0.802,-5.70,0.16,-1.21,1.62,1.05,-3.08,
0.802,-5.70,0.16,-1.21,1.58,1.03,-3.07,
0.803,-5.96,-0.44,-1.15,1.58,1.03,-3.07,
0.803,-5.96,-0.44,-1.15,1.55,1.01,-3.06,
0.803,-5.96,-0.44,-1.15,1.52,0.99,-3.06,
0.804,-5.96,-0.44,-1.15,1.50,0.96,-3.06,
0.805,-5.96,-0.44,-1.15,1.48,0.92,-3.06,
0.806,-5.96,-0.44,-1.15,1.46,0.88,-3.06,
0.811,-5.93,-0.79,-0.91,1.46,0.88,-3.06,
0.812,-5.93,-0.79,-0.91,1.45,0.84,-3.06,
0.812,-5.93,-0.79,-0.91,1.44,0.79,-3.06,
0.812,-5.93,-0.79,-0.91,1.44,0.74,-3.07,
0.816,-5.93,-0.79,-0.91,1.44,0.68,-3.07,
0.817,-5.93,-0.79,-0.91,1.45,0.62,-3.07,
0.822,-6.06,-1.01,-0.29,1.45,0.62,-3.07,
0.823,-6.06,-1.01,-0.29,1.46,0.56,-3.07,
0.823,-6.06,-1.01,-0.29,1.47,0.51,-3.08,
0.823,-6.06,-1.01,-0.29,1.48,0.46,-3.09,
0.828,-6.06,-1.01,-0.29,1.49,0.42,-3.10,
0.829,-6.06,-1.01,-0.29,1.50,0.37,-3.11,
0.836,-5.68,-1.00,-0.22,1.50,0.37,-3.11,
0.837,-5.68,-1.00,-0.22,1.52,0.34,-3.11,
0.838,-5.68,-1.00,-0.22,1.52,0.32,-3.11,
0.838,-5.68,-1.00,-0.22,1.54,0.30,-3.11,
0.838,-5.68,-1.00,-0.22,1.54,0.29,-3.10,
0.839,-5.68,-1.00,-0.22,1.55,0.29,-3.09,
0.84,-5.25,-0.48,-0.70,1.55,0.29,-3.09,
0.84,-5.25,-0.48,-0.70,1.56,0.31,-3.07,
0.84,-5.25,-0.48,-0.70,1.56,0.33,-3.05,
0.843,-5.25,-0.48,-0.70,1.57,0.35,-3.02,
0.846,-5.25,-0.48,-0.70,1.57,0.38,-2.99,
0.847,-5.25,-0.48,-0.70,1.57,0.41,-2.96,
0.853,-5.34,0.39,-1.37,1.57,0.41,-2.96,
0.854,-5.34,0.39,-1.37,1.56,0.44,-2.92,
0.854,-5.34,0.39,-1.37,1.55,0.48,-2.87,
0.855,-5.34,0.39,-1.37,1.54,0.51,-2.83,
0.855,-5.34,0.39,-1.37,1.52,0.54,-2.78,
0.857,-5.34,0.39,-1.37,1.50,0.57,-2.73,
0.86,-5.60,1.08,-1.87,1.50,0.57,-2.73,
0.861,-5.60,1.08,-1.87,1.48,0.59,-2.68,
0.863,-5.60,1.08,-1.87,1.45,0.61,-2.62,
0.864,-5.60,1.08,-1.87,1.42,0.63,-2.56,
0.864,-5.60,1.08,-1.87,1.39,0.65,-2.50,
0.873,-5.60,1.08,-1.87,1.35,0.66,-2.44,
0.874,-6.21,1.24,-2.40,1.35,0.66,-2.44,
0.875,-6.21,1.24,-2.40,1.31,0.66,-2.38,
0.875,-6.21,1.24,-2.40,1.26,0.67,-2.32,
0.875,-6.21,1.24,-2.40,1.21,0.67,-2.26,
0.876,-6.21,1.24,-2.40,1.16,0.67,-2.21,
0.901,-6.21,1.24,-2.40,1.11,0.66,-2.16,
0.901,-6.72,0.69,-2.85,1.11,0.66,-2.16,
0.901,-6.72,0.69,-2.85,1.05,0.65,-2.12,
0.902,-6.72,0.69,-2.85,0.99,0.64,-2.08,
0.902,-6.72,0.69,-2.85,0.94,0.63,-2.04,
0.902,-6.72,0.69,-2.85,0.88,0.62,-2.00,
0.903,-6.72,0.69,-2.85,0.83,0.61,-1.97,
0.903,-6.96,0.06,-3.15,0.83,0.61,-1.97,
0.903,-6.96,0.06,-3.15,0.77,0.60,-1.95,
0.904,-6.96,0.06,-3.15,0.72,0.60,-1.93,
0.904,-6.96,0.06,-3.15,0.66,0.59,-1.92,
0.904,-6.96,0.06,-3.15,0.61,0.59,-1.92,
0.905,-6.96,0.06,-3.15,0.55,0.59,-1.92,
0.933,-6.60,-0.45,-3.30,0.55,0.59,-1.92,
0.934,-6.60,-0.45,-3.30,0.50,0.58,-1.93,
0.934,-6.60,-0.45,-3.30,0.41,0.58,-1.96,
0.934,-6.60,-0.45,-3.30,0.36,0.57,-1.98,
0.935,-6.60,-0.45,-3.30,0.34,0.56,-2.00,
0.935,-6.60,-0.45,-3.30,0.29,0.55,-2.02,
0.936,-5.78,-0.58,-3.33,0.29,0.55,-2.02,
0.936,-5.78,-0.58,-3.33,0.24,0.54,-2.05,
0.937,-5.78,-0.58,-3.33,0.20,0.52,-2.07,
0.937,-5.78,-0.58,-3.33,0.15,0.49,-2.10,
0.937,-5.78,-0.58,-3.33,0.11,0.45,-2.12,
0.938,-5.78,-0.58,-3.33,0.06,0.41,-2.14,
0.938,-5.24,-0.12,-3.09,0.06,0.41,-2.14,
0.939,-5.24,-0.12,-3.09,0.01,0.35,-2.16,
0.939,-5.24,-0.12,-3.09,-0.03,0.28,-2.18,
0.939,-5.24,-0.12,-3.09,-0.08,0.21,-2.19,
0.94,-5.24,-0.12,-3.09,-0.12,0.12,-2.20,
0.94,-5.24,-0.12,-3.09,-0.17,0.04,-2.19,
0.941,-5.71,0.60,-2.70,-0.17,0.04,-2.19,
0.941,-5.71,0.60,-2.70,-0.22,-0.06,-2.19,
0.942,-5.71,0.60,-2.70,-0.28,-0.17,-2.16,
0.942,-5.71,0.60,-2.70,-0.35,-0.31,-2.13,
0.942,-5.71,0.60,-2.70,-0.42,-0.46,-2.09,
0.943,-5.71,0.60,-2.70,-0.51,-0.62,-2.05,
0.943,-7.17,1.53,-3.05,-0.51,-0.62,-2.05,
0.944,-7.17,1.53,-3.05,-0.60,-0.79,-1.99,
0.944,-7.17,1.53,-3.05,-0.70,-0.97,-1.92,
0.944,-7.17,1.53,-3.05,-0.80,-1.14,-1.85,
0.95,-7.17,1.53,-3.05,-0.90,-1.32,-1.76,
0.951,-7.17,1.53,-3.05,-1.01,-1.50,-1.66,
0.951,-8.88,2.85,-3.19,-1.01,-1.50,-1.66,
0.952,-8.88,2.85,-3.19,-1.12,-1.66,-1.56,
0.952,-8.88,2.85,-3.19,-1.24,-1.83,-1.44,
0.955,-8.88,2.85,-3.19,-1.35,-1.97,-1.32,
0.956,-8.88,2.85,-3.19,-1.46,-2.09,-1.19,
0.959,-8.88,2.85,-3.19,-1.57,-2.20,-1.06,
0.959,-10.06,3.32,-2.57,-1.57,-2.20,-1.06,
0.96,-10.06,3.32,-2.57,-1.67,-2.29,-0.92,
0.963,-10.06,3.32,-2.57,-1.77,-2.37,-0.77,
0.964,-10.06,3.32,-2.57,-1.85,-2.44,-0.62,
0.969,-10.06,3.32,-2.57,-1.92,-2.49,-0.47,
0.97,-10.06,3.32,-2.57,-1.98,-2.54,-0.33,
0.97,-10.29,2.93,-1.48,-1.98,-2.54,-0.33,
0.97,-10.29,2.93,-1.48,-2.03,-2.58,-0.18,
0.974,-10.29,2.93,-1.48,-2.06,-2.61,-0.04,
0.975,-10.29,2.93,-1.48,-2.08,-2.62,0.10,
0.975,-10.29,2.93,-1.48,-2.10,-2.63,0.23,
0.978,-10.29,2.93,-1.48,-2.10,-2.62,0.34,
0.979,-8.99,1.99,-0.29,-2.10,-2.62,0.34,
0.98,-8.99,1.99,-0.29,-2.10,-2.60,0.45,
0.98,-8.99,1.99,-0.29,-2.09,-2.57,0.55,
0.983,-8.99,1.99,-0.29,-2.06,-2.55,0.64,
0.984,-8.99,1.99,-0.29,-2.03,-2.53,0.73,
0.987,-8.99,1.99,-0.29,-1.99,-2.50,0.82,
0.99,-7.75,1.33,0.83,-1.99,-2.50,0.82,
0.99,-7.75,1.33,0.83,-1.93,-2.48,0.91,
0.99,-7.75,1.33,0.83,-1.86,-2.44,0.99,
0.995,-7.75,1.33,0.83,-1.79,-2.40,1.06,
0.995,-7.75,1.33,0.83,-1.71,-2.35,1.12,
0.998,-7.75,1.33,0.83,-1.62,-2.29,1.18,
1.004,-6.82,0.48,2.18,-1.62,-2.29,1.18,
1.009,-6.82,0.48,2.18,-1.52,-2.25,1.23,
1.009,-6.82,0.48,2.18,-1.42,-2.21,1.26,
1.012,-6.82,0.48,2.18,-1.31,-2.18,1.29,
1.012,-6.82,0.48,2.18,-1.20,-2.17,1.31,
1.012,-6.82,0.48,2.18,-1.10,-2.16,1.32,
1.012,-5.00,-0.36,2.70,-1.10,-2.16,1.32,
1.013,-5.00,-0.36,2.70,-0.99,-2.16,1.32,
1.013,-5.00,-0.36,2.70,-0.90,-2.16,1.30,
1.016,-5.00,-0.36,2.70,-0.81,-2.17,1.28,
1.021,-5.00,-0.36,2.70,-0.73,-2.17,1.23,
1.022,-5.00,-0.36,2.70,-0.65,-2.15,1.18,
1.022,-2.56,-1.50,1.61,-0.65,-2.15,1.18,
1.022,-2.56,-1.50,1.61,-0.57,-2.11,1.11,
1.023,-2.56,-1.50,1.61,-0.51,-2.03,1.03,
1.023,-2.56,-1.50,1.61,-0.46,-1.91,0.94,
1.027,-2.56,-1.50,1.61,-0.41,-1.74,0.84,
1.027,-2.56,-1.50,1.61,-0.35,-1.53,0.74,
1.03,-0.33,-2.33,0.19,-0.35,-1.53,0.74,
1.03,-0.33,-2.33,0.19,-0.29,-1.26,0.62,
1.03,-0.33,-2.33,0.19,-0.23,-0.95,0.51,
1.053,-0.33,-2.33,0.19,-0.16,-0.58,0.38,
1.054,-0.33,-2.33,0.19,-0.07,-0.16,0.26,
1.054,-0.33,-2.33,0.19,0.01,0.30,0.13,
1.055,1.55,-1.98,1.08,0.01,0.30,0.13,
1.055,1.55,-1.98,1.08,0.11,0.78,0.00,
1.055,1.55,-1.98,1.08,0.22,1.27,-0.11,
1.056,1.55,-1.98,1.08,0.32,1.69,-0.20,
1.056,1.55,-1.98,1.08,0.42,2.01,-0.26,
1.056,1.55,-1.98,1.08,0.50,2.18,-0.31,
1.056,0.59,-1.01,1.21,0.50,2.18,-0.31,
1.057,0.59,-1.01,1.21,0.56,2.19,-0.33,
1.057,0.59,-1.01,1.21,0.61,2.06,-0.35,
1.057,0.59,-1.01,1.21,0.64,1.85,-0.35,
1.058,0.59,-1.01,1.21,0.67,1.60,-0.35,
1.058,0.59,-1.01,1.21,0.72,1.38,-0.33,
1.059,-1.04,0.20,-1.21,0.72,1.38,-0.33,
1.059,-1.04,0.20,-1.21,0.78,1.22,-0.31,
1.061,-1.04,0.20,-1.21,0.85,1.15,-0.26,
1.063,-1.04,0.20,-1.21,0.95,1.17,-0.21,
1.089,-1.04,0.20,-1.21,1.06,1.27,-0.14,
1.09,-1.04,0.20,-1.21,1.18,1.41,-0.07,
1.09,-3.17,1.45,2.29,1.18,1.41,-0.07,
1.091,-3.17,1.45,2.29,1.31,1.58,0.01,
1.091,-3.17,1.45,2.29,1.44,1.74,0.09,
1.092,-3.17,1.45,2.29,1.57,1.89,0.18,
1.092,-3.17,1.45,2.29,1.68,2.00,0.27,
1.092,-3.17,1.45,2.29,1.80,2.09,0.35,
1.093,-2.51,1.55,3.82,1.80,2.09,0.35,
1.093,-2.51,1.55,3.82,1.91,2.15,0.43,
1.094,-2.51,1.55,3.82,2.01,2.20,0.50,
1.094,-2.51,1.55,3.82,2.11,2.26,0.58,
1.095,-2.51,1.55,3.82,2.21,2.34,0.65,
1.095,-2.51,1.55,3.82,2.31,2.42,0.72,
1.095,-1.87,1.08,3.35,2.31,2.42,0.72,
1.095,-1.87,1.08,3.35,2.41,2.48,0.79,
1.096,-1.87,1.08,3.35,2.50,2.51,0.86,
1.096,-1.87,1.08,3.35,2.58,2.49,0.92,
1.096,-1.87,1.08,3.35,2.64,2.43,0.98,
1.097,-1.87,1.08,3.35,2.69,2.32,1.02,
1.099,-0.61,0.49,1.70,2.69,2.32,1.02,
1.1,-0.61,0.49,1.70,2.74,2.19,1.06,
1.101,-0.61,0.49,1.70,2.77,2.03,1.09,
1.103,-0.61,0.49,1.70,2.80,1.87,1.11,
1.105,-0.61,0.49,1.70,2.82,1.72,1.13,
1.106,-0.61,0.49,1.70,2.84,1.59,1.13,
1.109,0.93,0.25,-0.35,2.84,1.59,1.13,
1.109,0.93,0.25,-0.35,2.86,1.49,1.13,
1.111,0.93,0.25,-0.35,2.88,1.43,1.13,
1.112,0.93,0.25,-0.35,2.90,1.41,1.12,
1.115,0.93,0.25,-0.35,2.92,1.43,1.11,
1.117,0.93,0.25,-0.35,2.95,1.48,1.11,
1.119,1.20,0.50,-0.22,2.95,1.48,1.11,
1.12,1.20,0.50,-0.22,2.97,1.56,1.10,
1.121,1.20,0.50,-0.22,2.99,1.65,1.10,
1.123,1.20,0.50,-0.22,3.01,1.75,1.10,
1.127,1.20,0.50,-0.22,3.05,1.97,1.12,
1.127,1.20,0.50,-0.22,3.05,1.97,1.12,
1.129,0.62,0.62,0.53,3.05,1.97,1.12,
1.129,0.62,0.62,0.53,3.06,2.06,1.14,
1.132,0.62,0.62,0.53,3.07,2.13,1.17,
1.133,0.62,0.62,0.53,3.06,2.19,1.20,
1.135,0.62,0.62,0.53,3.06,2.23,1.22,
1.137,0.62,0.62,0.53,3.04,2.26,1.25,
1.139,0.49,0.48,0.40,3.04,2.26,1.25,
1.139,0.49,0.48,0.40,3.02,2.27,1.28,
1.14,0.49,0.48,0.40,2.98,2.27,1.30,
1.142,0.49,0.48,0.40,2.94,2.28,1.32,
1.144,0.49,0.48,0.40,2.90,2.29,1.33,
1.146,0.49,0.48,0.40,2.85,2.29,1.34,
1.149,2.08,0.49,-0.59,2.85,2.29,1.34,
1.151,2.08,0.49,-0.59,2.78,2.29,1.33,
1.152,2.08,0.49,-0.59,2.71,2.29,1.33,
1.153,2.08,0.49,-0.59,2.63,2.28,1.32,
1.155,2.08,0.49,-0.59,2.55,2.26,1.31,
1.157,2.08,0.49,-0.59,2.47,2.24,1.30,
1.159,3.75,0.67,-2.09,2.47,2.24,1.30,
1.16,3.75,0.67,-2.09,2.38,2.22,1.28,
1.16,3.75,0.67,-2.09,2.30,2.19,1.27,
1.163,3.75,0.67,-2.09,2.22,2.18,1.25,
1.177,3.75,0.67,-2.09,2.13,2.15,1.22,
1.178,3.75,0.67,-2.09,2.06,2.14,1.20,
1.179,4.74,0.85,-2.82,2.06,2.14,1.20,
1.179,4.74,0.85,-2.82,1.99,2.11,1.18,
1.18,4.74,0.85,-2.82,1.92,2.10,1.16,
1.18,4.74,0.85,-2.82,1.86,2.08,1.13,
1.181,4.74,0.85,-2.82,1.80,2.06,1.11,
1.181,4.74,0.85,-2.82,1.74,2.06,1.08,
1.182,5.53,0.97,-2.64,1.74,2.06,1.08,
1.183,5.53,0.97,-2.64,1.68,2.05,1.06,
1.183,5.53,0.97,-2.64,1.63,2.04,1.03,
1.2,5.53,0.97,-2.64,1.59,2.04,1.01,
1.2,5.53,0.97,-2.64,1.54,2.04,1.00,
1.201,5.53,0.97,-2.64,1.50,2.03,0.98,
1.201,5.86,0.83,-2.46,1.50,2.03,0.98,
1.201,5.86,0.83,-2.46,1.46,2.02,0.97,
1.201,5.86,0.83,-2.46,1.42,2.01,0.95,
1.201,5.86,0.83,-2.46,1.39,2.00,0.94,
1.201,5.86,0.83,-2.46,1.36,2.00,0.93,
1.202,5.86,0.83,-2.46,1.33,1.99,0.92,
1.202,6.68,0.46,-1.90,1.33,1.99,0.92,
1.202,6.68,0.46,-1.90,1.30,1.98,0.90,
1.202,6.68,0.46,-1.90,1.27,1.97,0.89,
1.202,6.68,0.46,-1.90,1.24,1.96,0.87,
1.204,6.68,0.46,-1.90,1.21,1.96,0.85,
1.207,6.68,0.46,-1.90,1.19,1.96,0.84,
1.209,7.60,-0.21,-1.39,1.19,1.96,0.84,
1.209,7.60,-0.21,-1.39,1.16,1.96,0.83,
1.211,7.60,-0.21,-1.39,1.14,1.97,0.82,
1.213,7.60,-0.21,-1.39,1.11,1.97,0.81,
1.214,7.60,-0.21,-1.39,1.08,1.97,0.80,
1.216,7.60,-0.21,-1.39,1.06,1.97,0.79,
1.219,7.66,0.00,-0.97,1.06,1.97,0.79,
1.219,7.66,0.00,-0.97,1.03,1.96,0.78,
1.22,7.66,0.00,-0.97,1.00,1.94,0.77,
1.222,7.66,0.00,-0.97,0.96,1.92,0.75,
1.224,7.66,0.00,-0.97,0.93,1.90,0.72,
1.227,7.66,0.00,-0.97,0.90,1.86,0.70,
1.229,8.49,0.21,-0.68,0.90,1.86,0.70,
1.229,8.49,0.21,-0.68,0.87,1.83,0.66,
1.263,8.49,0.21,-0.68,0.84,1.79,0.62,
1.264,8.49,0.21,-0.68,0.81,1.75,0.58,
1.265,8.49,0.21,-0.68,0.77,1.70,0.53,
1.265,8.49,0.21,-0.68,0.74,1.66,0.47,
1.266,9.52,0.59,-0.80,0.74,1.66,0.47,
1.266,9.52,0.59,-0.80,0.70,1.60,0.41,
1.267,9.52,0.59,-0.80,0.67,1.55,0.35,
1.267,9.52,0.59,-0.80,0.63,1.49,0.28,
1.268,9.52,0.59,-0.80,0.59,1.43,0.22,
1.268,9.52,0.59,-0.80,0.55,1.37,0.16,
1.269,9.83,0.63,-1.04,0.55,1.37,0.16,
1.27,9.83,0.63,-1.04,0.51,1.31,0.09,
1.271,9.83,0.63,-1.04,0.45,1.23,-0.01,
1.271,9.83,0.63,-1.04,0.41,1.17,-0.07,
1.272,9.83,0.63,-1.04,0.39,1.14,-0.10,
1.272,9.83,0.63,-1.04,0.35,1.08,-0.16,
1.272,9.31,1.09,-1.48,0.35,1.08,-0.16,
1.273,9.31,1.09,-1.48,0.32,1.03,-0.22,
1.274,9.31,1.09,-1.48,0.28,0.98,-0.28,
1.274,9.31,1.09,-1.48,0.24,0.93,-0.33,
1.275,9.31,1.09,-1.48,0.20,0.87,-0.38,
1.275,9.31,1.09,-1.48,0.15,0.81,-0.43,
1.275,8.63,1.09,-2.18,0.15,0.81,-0.43,
1.276,8.63,1.09,-2.18,0.10,0.76,-0.49,
1.276,8.63,1.09,-2.18,0.05,0.73,-0.54,
1.277,8.63,1.09,-2.18,0.02,0.73,-0.60,
1.277,8.63,1.09,-2.18,-0.01,0.76,-0.65,
1.277,8.63,1.09,-2.18,-0.04,0.80,-0.69,
1.28,7.97,1.27,-2.11,-0.04,0.80,-0.69,
1.282,7.97,1.27,-2.11,-0.07,0.83,-0.74,
1.282,7.97,1.27,-2.11,-0.11,0.84,-0.79,
1.282,7.97,1.27,-2.11,-0.15,0.84,-0.85,
1.285,7.97,1.27,-2.11,-0.19,0.85,-0.90,
1.287,7.97,1.27,-2.11,-0.22,0.88,-0.94,
1.289,7.02,1.69,-2.20,-0.22,0.88,-0.94,
1.289,7.02,1.69,-2.20,-0.24,0.92,-0.97,
1.29,7.02,1.69,-2.20,-0.27,0.96,-1.00,
1.292,7.02,1.69,-2.20,-0.31,0.96,-1.02,
1.294,7.02,1.69,-2.20,-0.36,0.93,-1.03,
1.297,7.02,1.69,-2.20,-0.41,0.87,-1.05,
1.301,5.72,2.03,-2.36,-0.41,0.87,-1.05,
1.302,5.72,2.03,-2.36,-0.46,0.81,-1.07,
1.303,5.72,2.03,-2.36,-0.51,0.77,-1.09,
1.303,5.72,2.03,-2.36,-0.56,0.76,-1.10,
1.304,5.72,2.03,-2.36,-0.61,0.77,-1.10,
1.307,5.72,2.03,-2.36,-0.65,0.79,-1.09,
1.309,3.87,2.47,-2.34,-0.65,0.79,-1.09,
1.309,3.87,2.47,-2.34,-0.70,0.84,-1.08,
1.311,3.87,2.47,-2.34,-0.75,0.89,-1.06,
1.312,3.87,2.47,-2.34,-0.80,0.95,-1.03,
1.318,3.87,2.47,-2.34,-0.86,1.02,-1.01,
1.319,3.87,2.47,-2.34,-0.91,1.09,-0.99,
1.32,2.25,2.62,-2.62,-0.91,1.09,-0.99,
1.32,2.25,2.62,-2.62,-0.97,1.16,-0.97,
1.321,2.25,2.62,-2.62,-1.03,1.22,-0.95,
1.323,2.25,2.62,-2.62,-1.08,1.27,-0.94,
1.324,2.25,2.62,-2.62,-1.12,1.32,-0.92,
1.348,2.25,2.62,-2.62,-1.15,1.37,-0.91,
1.351,1.30,2.95,-2.29,-1.15,1.37,-0.91,
1.351,1.30,2.95,-2.29,-1.18,1.42,-0.90,
1.352,1.30,2.95,-2.29,-1.19,1.47,-0.90,
1.352,1.30,2.95,-2.29,-1.20,1.51,-0.89,
1.353,1.30,2.95,-2.29,-1.20,1.54,-0.89,
1.353,1.30,2.95,-2.29,-1.21,1.57,-0.89,
1.354,0.56,3.06,-1.29,-1.21,1.57,-0.89,
1.354,0.56,3.06,-1.29,-1.21,1.60,-0.90,
1.355,0.56,3.06,-1.29,-1.21,1.63,-0.90,
1.355,0.56,3.06,-1.29,-1.20,1.68,-0.90,
1.356,0.56,3.06,-1.29,-1.19,1.72,-0.90,
1.357,0.56,3.06,-1.29,-1.16,1.74,-0.91,
1.357,-0.17,2.81,-0.31,-1.16,1.74,-0.91,
1.358,-0.17,2.81,-0.31,-1.14,1.75,-0.91,
1.358,-0.17,2.81,-0.31,-1.11,1.75,-0.91,
1.358,-0.17,2.81,-0.31,-1.08,1.73,-0.90,
1.359,-0.17,2.81,-0.31,-1.06,1.69,-0.89,
1.362,-0.17,2.81,-0.31,-1.02,1.65,-0.87,
1.365,-1.45,2.00,0.24,-1.02,1.65,-0.87,
1.366,-1.45,2.00,0.24,-0.98,1.61,-0.84,
1.366,-1.45,2.00,0.24,-0.94,1.57,-0.80,
1.366,-1.45,2.00,0.24,-0.89,1.52,-0.76,
1.367,-1.45,2.00,0.24,-0.84,1.46,-0.72,
1.367,-1.45,2.00,0.24,-0.80,1.40,-0.68,
1.37,-3.48,1.25,0.41,-0.80,1.40,-0.68,
1.371,-3.48,1.25,0.41,-0.75,1.34,-0.63,
1.371,-3.48,1.25,0.41,-0.71,1.27,-0.60,
1.373,-3.48,1.25,0.41,-0.68,1.22,-0.56,
1.375,-3.48,1.25,0.41,-0.65,1.17,-0.54,
1.377,-3.48,1.25,0.41,-0.62,1.13,-0.54,
1.381,-3.64,0.53,-0.49,-0.62,1.13,-0.54,
1.381,-3.64,0.53,-0.49,-0.60,1.09,-0.54,
1.382,-3.64,0.53,-0.49,-0.59,1.06,-0.55,
1.383,-3.64,0.53,-0.49,-0.58,1.03,-0.57,
1.386,-3.64,0.53,-0.49,-0.57,1.02,-0.60,
1.387,-3.64,0.53,-0.49,-0.57,1.03,-0.63,
1.389,-2.90,0.13,-1.64,-0.57,1.03,-0.63,
1.39,-2.90,0.13,-1.64,-0.56,1.06,-0.67,
1.391,-2.90,0.13,-1.64,-0.56,1.11,-0.72,
1.393,-2.90,0.13,-1.64,-0.57,1.17,-0.77,
1.394,-2.90,0.13,-1.64,-0.57,1.24,-0.83,
1.397,-2.90,0.13,-1.64,-0.58,1.35,-0.90,
1.429,-2.74,0.43,-2.95,-0.58,1.35,-0.90,
1.429,-2.74,0.43,-2.95,-0.60,1.49,-0.99,
1.43,-2.74,0.43,-2.95,-0.64,1.66,-1.09,
1.431,-2.74,0.43,-2.95,-0.70,1.85,-1.20,
1.432,-2.74,0.43,-2.95,-0.79,2.05,-1.31,
1.433,-2.74,0.43,-2.95,-0.92,2.22,-1.42,
1.434,-3.12,1.86,-6.98,-0.92,2.22,-1.42,
1.435,-3.12,1.86,-6.98,-1.06,2.37,-1.53,
1.435,-3.12,1.86,-6.98,-1.20,2.48,-1.65,
1.436,-3.12,1.86,-6.98,-1.32,2.57,-1.75,
1.436,-3.12,1.86,-6.98,-1.38,2.67,-1.84,
1.436,-3.12,1.86,-6.98,-1.40,2.78,-1.91,
1.437,-3.74,1.32,-4.49,-1.40,2.78,-1.91,
1.437,-3.74,1.32,-4.49,-1.39,2.84,-1.95,
1.438,-3.74,1.32,-4.49,-1.37,2.84,-1.98,
1.438,-3.74,1.32,-4.49,-1.33,2.79,-1.97,
1.439,-3.74,1.32,-4.49,-1.27,2.72,-1.94,
1.439,-3.74,1.32,-4.49,-1.18,2.62,-1.88,
1.439,-7.03,1.90,-0.72,-1.18,2.62,-1.88,
1.44,-7.03,1.90,-0.72,-1.10,2.47,-1.81,
1.44,-7.03,1.90,-0.72,-1.00,2.30,-1.72,
1.441,-7.03,1.90,-0.72,-0.90,2.13,-1.62,
1.441,-7.03,1.90,-0.72,-0.81,1.98,-1.52,
1.441,-7.03,1.90,-0.72,-0.71,1.86,-1.42,
1.442,-8.76,1.58,0.30,-0.71,1.86,-1.42,
1.442,-8.76,1.58,0.30,-0.62,1.76,-1.32,
1.443,-8.76,1.58,0.30,-0.54,1.70,-1.22,
1.443,-8.76,1.58,0.30,-0.46,1.67,-1.12,
1.447,-8.76,1.58,0.30,-0.41,1.68,-1.02,
1.448,-8.76,1.58,0.30,-0.37,1.68,-0.93,
1.449,-8.88,1.04,-1.22,-0.37,1.68,-0.93,
1.449,-8.88,1.04,-1.22,-0.35,1.68,-0.84,
1.451,-8.88,1.04,-1.22,-0.36,1.67,-0.76,
1.453,-8.88,1.04,-1.22,-0.37,1.68,-0.67,
1.455,-8.88,1.04,-1.22,-0.40,1.70,-0.59,
1.457,-8.88,1.04,-1.22,-0.44,1.73,-0.51,
1.46,-8.64,0.93,-3.35,-0.44,1.73,-0.51,
1.46,-8.64,0.93,-3.35,-0.48,1.75,-0.44,
1.46,-8.64,0.93,-3.35,-0.52,1.76,-0.37,
1.471,-8.64,0.93,-3.35,-0.56,1.75,-0.31,
1.472,-8.64,0.93,-3.35,-0.59,1.73,-0.25,
1.472,-8.64,0.93,-3.35,-0.61,1.71,-0.20,
1.472,-8.50,0.51,-2.79,-0.61,1.71,-0.20,
1.473,-8.50,0.51,-2.79,-0.63,1.67,-0.15,
1.473,-8.50,0.51,-2.79,-0.63,1.62,-0.12,
1.474,-8.50,0.51,-2.79,-0.63,1.56,-0.09,
1.495,-8.50,0.51,-2.79,-0.62,1.48,-0.07,
1.498,-8.50,0.51,-2.79,-0.60,1.40,-0.07,
1.5,-7.70,-0.73,-0.81,-0.60,1.40,-0.07,
1.502,-7.70,-0.73,-0.81,-0.57,1.32,-0.08,
1.504,-7.70,-0.73,-0.81,-0.53,1.23,-0.10,
1.504,-7.70,-0.73,-0.81,-0.48,1.15,-0.14,
1.505,-7.70,-0.73,-0.81,-0.42,1.07,-0.18,
1.505,-7.70,-0.73,-0.81,-0.35,1.00,-0.24,
1.505,-5.72,-2.20,1.31,-0.35,1.00,-0.24,
1.505,-5.72,-2.20,1.31,-0.27,0.94,-0.30,
1.508,-5.72,-2.20,1.31,-0.19,0.88,-0.38,
1.509,-5.72,-2.20,1.31,-0.10,0.83,-0.46,
1.509,-5.72,-2.20,1.31,-0.01,0.79,-0.55,
1.51,-5.72,-2.20,1.31,0.08,0.77,-0.64,
1.51,-3.18,-3.00,2.63,0.08,0.77,-0.64,
1.511,-3.18,-3.00,2.63,0.18,0.76,-0.75,
1.511,-3.18,-3.00,2.63,0.27,0.77,-0.87,
1.512,-3.18,-3.00,2.63,0.35,0.79,-0.99,
1.512,-3.18,-3.00,2.63,0.42,0.82,-1.11,
1.512,-3.18,-3.00,2.63,0.49,0.86,-1.22,
1.513,-0.53,-3.48,2.53,0.49,0.86,-1.22,
1.513,-0.53,-3.48,2.53,0.55,0.91,-1.34,
1.514,-0.53,-3.48,2.53,0.62,0.96,-1.45,
1.515,-0.53,-3.48,2.53,0.67,1.01,-1.55,
1.515,-0.53,-3.48,2.53,0.72,1.06,-1.64,
1.518,-0.53,-3.48,2.53,0.77,1.12,-1.73,
1.52,0.34,-3.45,2.26,0.77,1.12,-1.73,
1.521,0.34,-3.45,2.26,0.82,1.18,-1.81,
1.521,0.34,-3.45,2.26,0.87,1.24,-1.88,
1.523,0.34,-3.45,2.26,0.92,1.30,-1.94,
1.525,0.34,-3.45,2.26,0.97,1.35,-1.99,
1.528,0.34,-3.45,2.26,1.03,1.40,-2.04,
1.532,0.17,-2.96,2.73,1.03,1.40,-2.04,
1.534,0.17,-2.96,2.73,1.08,1.46,-2.08,
1.536,0.17,-2.96,2.73,1.13,1.51,-2.11,
1.537,0.17,-2.96,2.73,1.19,1.57,-2.15,
1.538,0.17,-2.96,2.73,1.25,1.61,-2.18,
1.538,0.17,-2.96,2.73,1.31,1.65,-2.21,
1.539,0.41,-2.04,3.16,1.31,1.65,-2.21,
1.54,0.41,-2.04,3.16,1.37,1.67,-2.23,
1.54,0.41,-2.04,3.16,1.43,1.68,-2.25,
1.543,0.41,-2.04,3.16,1.49,1.67,-2.25,
1.545,0.41,-2.04,3.16,1.55,1.63,-2.25,
1.56,0.41,-2.04,3.16,1.61,1.57,-2.25,
1.561,0.32,-0.74,4.00,1.61,1.57,-2.25,
1.561,0.32,-0.74,4.00,1.68,1.49,-2.26,
1.562,0.32,-0.74,4.00,1.75,1.39,-2.26,
1.562,0.32,-0.74,4.00,1.83,1.28,-2.27,
1.562,0.32,-0.74,4.00,1.90,1.17,-2.28,
1.563,0.32,-0.74,4.00,1.97,1.06,-2.29,
1.563,1.67,-0.25,4.12,1.97,1.06,-2.29,
1.563,1.67,-0.25,4.12,2.05,0.95,-2.29,
1.563,1.67,-0.25,4.12,2.13,0.86,-2.29,
1.564,1.67,-0.25,4.12,2.21,0.78,-2.29,
1.588,1.67,-0.25,4.12,2.28,0.72,-2.29,
1.588,1.67,-0.25,4.12,2.35,0.66,-2.29,
1.589,2.65,-0.11,3.59,2.35,0.66,-2.29,
1.589,2.65,-0.11,3.59,2.41,0.65,-2.29,
1.589,2.65,-0.11,3.59,2.46,0.67,-2.29,
1.589,2.65,-0.11,3.59,2.48,0.72,-2.29,
1.59,2.65,-0.11,3.59,2.49,0.79,-2.30,
1.59,2.65,-0.11,3.59,2.49,0.89,-2.32,
1.59,3.90,-0.74,0.58,2.49,0.89,-2.32,
1.59,3.90,-0.74,0.58,2.45,1.03,-2.34,
1.591,3.90,-0.74,0.58,2.39,1.19,-2.38,
1.591,3.90,-0.74,0.58,2.31,1.37,-2.41,
1.591,3.90,-0.74,0.58,2.23,1.55,-2.45,
1.592,3.90,-0.74,0.58,2.13,1.73,-2.49,
1.592,5.26,-2.60,-2.81,2.13,1.73,-2.49,
1.592,5.26,-2.60,-2.81,2.04,1.89,-2.52,
1.592,5.26,-2.60,-2.81,1.95,2.04,-2.56,
1.593,5.26,-2.60,-2.81,1.85,2.15,-2.58,
1.595,5.26,-2.60,-2.81,1.77,2.24,-2.60,
1.597,5.26,-2.60,-2.81,1.69,2.30,-2.60,
1.6,4.65,-4.11,-2.25,1.69,2.30,-2.60,
1.601,4.65,-4.11,-2.25,1.62,2.34,-2.60,
1.601,4.65,-4.11,-2.25,1.53,2.31,-2.58,
1.607,4.65,-4.11,-2.25,1.48,2.26,-2.55,
1.607,4.65,-4.11,-2.25,1.46,2.22,-2.54,
1.607,4.65,-4.11,-2.25,1.43,2.12,-2.49,
1.609,3.36,-4.86,-0.50,1.43,2.12,-2.49,
1.609,3.36,-4.86,-0.50,1.40,2.00,-2.43,
1.611,3.36,-4.86,-0.50,1.39,1.84,-2.37,
1.614,3.36,-4.86,-0.50,1.38,1.68,-2.29,
1.615,3.36,-4.86,-0.50,1.38,1.51,-2.19,
1.617,3.36,-4.86,-0.50,1.39,1.34,-2.09,
1.619,1.64,-4.83,1.35,1.39,1.34,-2.09,
1.619,1.64,-4.83,1.35,1.39,1.19,-1.97,
1.621,1.64,-4.83,1.35,1.40,1.04,-1.85,
1.625,1.64,-4.83,1.35,1.40,0.77,-1.61,
1.625,1.64,-4.83,1.35,1.40,0.77,-1.61,
1.627,1.64,-4.83,1.35,1.40,0.67,-1.47,
1.631,0.24,-4.13,2.33,1.40,0.67,-1.47,
1.632,0.24,-4.13,2.33,1.40,0.58,-1.34,
1.635,0.24,-4.13,2.33,1.40,0.49,-1.20,
1.635,0.24,-4.13,2.33,1.40,0.41,-1.08,
1.636,0.24,-4.13,2.33,1.40,0.33,-0.96,
1.636,0.24,-4.13,2.33,1.41,0.26,-0.84,
1.641,-0.19,-3.09,3.01,1.41,0.26,-0.84,
1.641,-0.19,-3.09,3.01,1.41,0.18,-0.74,
1.643,-0.19,-3.09,3.01,1.42,0.12,-0.64,
1.643,-0.19,-3.09,3.01,1.44,0.06,-0.55,
1.645,-0.19,-3.09,3.01,1.46,0.01,-0.46,
1.647,-0.19,-3.09,3.01,1.49,-0.03,-0.39,
1.649,0.04,-2.26,4.09,1.49,-0.03,-0.39,
1.65,0.04,-2.26,4.09,1.52,-0.06,-0.33,
1.652,0.04,-2.26,4.09,1.56,-0.09,-0.27,
1.652,0.04,-2.26,4.09,1.60,-0.11,-0.22,
1.654,0.04,-2.26,4.09,1.65,-0.15,-0.17,
1.656,0.04,-2.26,4.09,1.70,-0.18,-0.12,
1.659,-0.10,-1.59,4.57,1.70,-0.18,-0.12,
1.659,-0.10,-1.59,4.57,1.75,-0.23,-0.08,
1.663,-0.10,-1.59,4.57,1.80,-0.27,-0.04,
1.663,-0.10,-1.59,4.57,1.85,-0.33,-0.00,
1.667,-0.10,-1.59,4.57,1.89,-0.38,0.03,
1.667,-0.10,-1.59,4.57,1.92,-0.43,0.07,
1.669,-0.30,-1.07,3.92,1.92,-0.43,0.07,
1.669,-0.30,-1.07,3.92,1.95,-0.49,0.09,
1.67,-0.30,-1.07,3.92,1.97,-0.53,0.11,
1.672,-0.30,-1.07,3.92,1.98,-0.57,0.13,
1.674,-0.30,-1.07,3.92,1.98,-0.61,0.14,
1.676,-0.30,-1.07,3.92,1.98,-0.65,0.14,
1.688,0.24,-0.22,1.97,1.98,-0.65,0.14,
1.689,0.24,-0.22,1.97,1.97,-0.67,0.14,
1.69,0.24,-0.22,1.97,1.95,-0.69,0.13,
1.69,0.24,-0.22,1.97,1.92,-0.71,0.13,
1.691,0.24,-0.22,1.97,1.89,-0.73,0.12,
1.691,0.24,-0.22,1.97,1.84,-0.74,0.11,
1.692,0.40,0.17,-0.01,1.84,-0.74,0.11,
1.692,0.40,0.17,-0.01,1.79,-0.77,0.10,
1.693,0.40,0.17,-0.01,1.74,-0.79,0.09,
1.694,0.40,0.17,-0.01,1.68,-0.83,0.08,
1.709,0.40,0.17,-0.01,1.61,-0.87,0.06,
1.711,0.40,0.17,-0.01,1.54,-0.92,0.05,
1.712,0.37,0.39,-1.63,1.54,-0.92,0.05,
1.713,0.37,0.39,-1.63,1.47,-0.98,0.03,
1.713,0.37,0.39,-1.63,1.39,-1.03,0.01,
1.714,0.37,0.39,-1.63,1.32,-1.09,-0.01,
1.715,0.37,0.39,-1.63,1.23,-1.15,-0.03,
1.717,0.37,0.39,-1.63,1.15,-1.20,-0.05,
1.719,0.04,0.56,-2.99,1.15,-1.20,-0.05,
1.72,0.04,0.56,-2.99,1.06,-1.24,-0.07,
1.721,0.04,0.56,-2.99,0.98,-1.27,-0.10,
1.721,0.04,0.56,-2.99,0.90,-1.30,-0.12,
1.721,0.04,0.56,-2.99,0.81,-1.32,-0.14,
1.722,0.04,0.56,-2.99,0.73,-1.34,-0.16,
1.722,-0.16,0.65,-3.57,0.73,-1.34,-0.16,
1.723,-0.16,0.65,-3.57,0.65,-1.36,-0.18,
1.723,-0.16,0.65,-3.57,0.58,-1.37,-0.20,
1.724,-0.16,0.65,-3.57,0.51,-1.38,-0.23,
1.725,-0.16,0.65,-3.57,0.44,-1.40,-0.25,
1.727,-0.16,0.65,-3.57,0.38,-1.41,-0.28,
1.732,0.12,0.92,-3.24,0.38,-1.41,-0.28,
1.733,0.12,0.92,-3.24,0.33,-1.42,-0.30,
1.758,0.12,0.92,-3.24,0.27,-1.42,-0.33,
1.758,0.12,0.92,-3.24,0.22,-1.43,-0.35,
1.758,0.12,0.92,-3.24,0.18,-1.43,-0.37,
1.759,0.12,0.92,-3.24,0.14,-1.43,-0.39,
1.759,0.43,1.09,-2.38,0.14,-1.43,-0.39,
1.759,0.43,1.09,-2.38,0.10,-1.42,-0.41,
1.76,0.43,1.09,-2.38,0.06,-1.42,-0.43,
1.76,0.43,1.09,-2.38,0.04,-1.42,-0.45,
1.76,0.43,1.09,-2.38,0.01,-1.41,-0.46,
1.76,0.43,1.09,-2.38,-0.02,-1.41,-0.47,
1.761,0.61,1.32,-1.55,-0.02,-1.41,-0.47,
1.761,0.61,1.32,-1.55,-0.03,-1.41,-0.48,
1.761,0.61,1.32,-1.55,-0.05,-1.40,-0.49,
1.761,0.61,1.32,-1.55,-0.06,-1.40,-0.50,
1.762,0.61,1.32,-1.55,-0.07,-1.39,-0.51,
1.762,0.61,1.32,-1.55,-0.08,-1.39,-0.52,
1.762,0.80,1.38,-0.75,-0.08,-1.39,-0.52,
1.763,0.80,1.38,-0.75,-0.08,-1.38,-0.53,
1.763,0.80,1.38,-0.75,-0.08,-1.37,-0.54,
1.763,0.80,1.38,-0.75,-0.08,-1.37,-0.55,
1.765,0.80,1.38,-0.75,-0.08,-1.37,-0.56,
1.767,0.80,1.38,-0.75,-0.07,-1.36,-0.57,
1.769,1.17,1.31,-0.06,-0.07,-1.36,-0.57,
1.769,1.17,1.31,-0.06,-0.06,-1.36,-0.58,
1.771,1.17,1.31,-0.06,-0.05,-1.35,-0.60,
1.772,1.17,1.31,-0.06,-0.03,-1.36,-0.62,
1.776,1.17,1.31,-0.06,-0.01,-1.36,-0.63,
1.776,1.17,1.31,-0.06,0.01,-1.36,-0.65,
1.779,1.50,1.05,0.49,0.01,-1.36,-0.65,
1.779,1.50,1.05,0.49,0.03,-1.37,-0.68,
1.781,1.50,1.05,0.49,0.04,-1.38,-0.70,
1.783,1.50,1.05,0.49,0.06,-1.39,-0.72,
1.785,1.50,1.05,0.49,0.09,-1.40,-0.75,
1.787,1.50,1.05,0.49,0.12,-1.42,-0.77,
1.789,1.57,0.97,1.18,0.12,-1.42,-0.77,
1.789,1.57,0.97,1.18,0.17,-1.45,-0.80,
1.79,1.57,0.97,1.18,0.21,-1.48,-0.82,
1.792,1.57,0.97,1.18,0.29,-1.53,-0.85,
1.795,1.57,0.97,1.18,0.32,-1.55,-0.86,
1.797,1.57,0.97,1.18,0.36,-1.59,-0.88,
1.799,0.91,1.30,1.90,0.36,-1.59,-0.88,
1.8,0.91,1.30,1.90,0.41,-1.63,-0.90,
1.8,0.91,1.30,1.90,0.47,-1.72,-0.92,
1.802,0.91,1.30,1.90,0.50,-1.79,-0.94,
1.804,0.91,1.30,1.90,0.51,-1.82,-0.94,
1.806,0.91,1.30,1.90,0.53,-1.89,-0.96,
1.809,-0.03,1.84,1.10,0.53,-1.89,-0.96,
1.81,-0.03,1.84,1.10,0.54,-1.97,-0.97,
1.82,-0.03,1.84,1.10,0.53,-2.05,-0.98,
1.82,-0.03,1.84,1.10,0.50,-2.17,-1.00,
1.821,-0.03,1.84,1.10,0.49,-2.21,-1.01,
1.821,-0.03,1.84,1.10,0.45,-2.28,-1.02,
1.822,-0.79,2.28,-0.68,0.45,-2.28,-1.02,
1.823,-0.79,2.28,-0.68,0.40,-2.35,-1.03,
1.823,-0.79,2.28,-0.68,0.35,-2.40,-1.04,
1.823,-0.79,2.28,-0.68,0.25,-2.42,-1.06,
1.848,-0.79,2.28,-0.68,0.21,-2.43,-1.07,
1.848,-0.79,2.28,-0.68,0.14,-2.42,-1.09,
1.849,-1.88,2.03,-2.52,0.14,-2.42,-1.09,
1.849,-1.88,2.03,-2.52,0.03,-2.40,-1.12,
1.849,-1.88,2.03,-2.52,-0.01,-2.40,-1.13,
1.849,-1.88,2.03,-2.52,-0.13,-2.37,-1.17,
1.849,-1.88,2.03,-2.52,-0.17,-2.36,-1.18,
1.85,-1.88,2.03,-2.52,-0.23,-2.34,-1.21,
1.85,-1.85,1.74,-2.84,-0.23,-2.34,-1.21,
1.85,-1.85,1.74,-2.84,-0.33,-2.31,-1.27,
1.85,-1.85,1.74,-2.84,-0.36,-2.30,-1.29,
1.85,-1.85,1.74,-2.84,-0.45,-2.26,-1.35,
1.851,-1.85,1.74,-2.84,-0.47,-2.24,-1.37,
1.851,-1.85,1.74,-2.84,-0.51,-2.20,-1.41,
1.859,-1.24,1.80,-2.29,-0.51,-2.20,-1.41,
1.859,-1.24,1.80,-2.29,-0.56,-2.13,-1.48,
1.86,-1.24,1.80,-2.29,-0.57,-2.10,-1.51,
1.86,-1.24,1.80,-2.29,-0.60,-2.01,-1.58,
1.861,-1.24,1.80,-2.29,-0.60,-1.98,-1.60,
1.861,-1.24,1.80,-2.29,-0.61,-1.86,-1.67,
1.861,-0.64,2.10,-1.41,-0.61,-1.86,-1.67,
1.863,-0.64,2.10,-1.41,-0.60,-1.78,-1.72,
1.864,-0.64,2.10,-1.41,-0.58,-1.69,-1.76,
1.864,-0.64,2.10,-1.41,-0.56,-1.60,-1.81,
1.866,-0.64,2.10,-1.41,-0.53,-1.51,-1.86,
1.866,-0.64,2.10,-1.41,-0.50,-1.41,-1.91,
1.869,-0.06,2.38,-0.85,-0.50,-1.41,-1.91,
1.869,-0.06,2.38,-0.85,-0.46,-1.32,-1.96,
1.875,-0.06,2.38,-0.85,-0.41,-1.23,-2.01,
1.875,-0.06,2.38,-0.85,-0.36,-1.15,-2.06,
1.876,-0.06,2.38,-0.85,-0.30,-1.08,-2.11,
1.877,-0.06,2.38,-0.85,-0.24,-1.01,-2.16,
1.88,0.46,2.40,-0.64,-0.24,-1.01,-2.16,
1.881,0.46,2.40,-0.64,-0.17,-0.95,-2.20,
1.881,0.46,2.40,-0.64,-0.11,-0.90,-2.25,
1.883,0.46,2.40,-0.64,-0.04,-0.85,-2.29,
1.884,0.46,2.40,-0.64,0.04,-0.82,-2.32,
1.887,0.46,2.40,-0.64,0.12,-0.79,-2.34,
1.889,0.58,2.31,-0.76,0.12,-0.79,-2.34,
1.889,0.58,2.31,-0.76,0.20,-0.77,-2.37,
1.891,0.58,2.31,-0.76,0.28,-0.76,-2.39,
1.893,0.58,2.31,-0.76,0.37,-0.76,-2.40,
1.895,0.58,2.31,-0.76,0.45,-0.77,-2.41,
1.896,0.58,2.31,-0.76,0.53,-0.78,-2.40,
1.921,0.41,2.50,-0.75,0.53,-0.78,-2.40,
1.921,0.41,2.50,-0.75,0.62,-0.80,-2.39,
1.921,0.41,2.50,-0.75,0.69,-0.81,-2.37,
1.922,0.41,2.50,-0.75,0.77,-0.81,-2.34,
1.922,0.41,2.50,-0.75,0.83,-0.80,-2.31,
1.922,0.41,2.50,-0.75,0.89,-0.76,-2.29,
1.923,0.16,2.53,-1.14,0.89,-0.76,-2.29,
1.923,0.16,2.53,-1.14,0.94,-0.70,-2.26,
1.923,0.16,2.53,-1.14,0.98,-0.63,-2.22,
1.924,0.16,2.53,-1.14,1.02,-0.56,-2.18,
1.924,0.16,2.53,-1.14,1.05,-0.49,-2.13,
1.924,0.16,2.53,-1.14,1.07,-0.44,-2.08,
1.924,-0.42,2.42,-1.57,1.07,-0.44,-2.08,
1.925,-0.42,2.42,-1.57,1.08,-0.40,-2.02,
1.925,-0.42,2.42,-1.57,1.08,-0.36,-1.96,
1.925,-0.42,2.42,-1.57,1.07,-0.32,-1.89,
1.926,-0.42,2.42,-1.57,1.06,-0.27,-1.83,
1.927,-0.42,2.42,-1.57,1.04,-0.23,-1.76,
1.93,-1.00,2.63,-2.26,1.04,-0.23,-1.76,
1.93,-1.00,2.63,-2.26,1.02,-0.19,-1.70,
1.93,-1.00,2.63,-2.26,1.00,-0.14,-1.63,
1.933,-1.00,2.63,-2.26,0.97,-0.10,-1.56,
1.935,-1.00,2.63,-2.26,0.93,-0.06,-1.50,
1.936,-1.00,2.63,-2.26,0.90,-0.02,-1.43,
1.938,-1.67,2.59,-2.75,0.90,-0.02,-1.43,
1.939,-1.67,2.59,-2.75,0.87,0.02,-1.37,
1.941,-1.67,2.59,-2.75,0.83,0.05,-1.31,
1.942,-1.67,2.59,-2.75,0.79,0.08,-1.26,
1.944,-1.67,2.59,-2.75,0.77,0.10,-1.20,
1.947,-1.67,2.59,-2.75,0.73,0.12,-1.15,
1.949,-2.33,2.33,-2.98,0.73,0.12,-1.15,
1.949,-2.33,2.33,-2.98,0.70,0.14,-1.09,
1.951,-2.33,2.33,-2.98,0.66,0.15,-1.04,
1.953,-2.33,2.33,-2.98,0.64,0.16,-0.98,
1.955,-2.33,2.33,-2.98,0.91,0.25,-0.89,
1.956,-2.33,2.33,-2.98,1.25,0.40,-0.73,
1.959,-4.50,-5.60,3.78,1.25,0.40,-0.73,
1.96,-4.50,-5.60,3.78,1.22,0.38,-0.64,
1.966,-4.50,-5.60,3.78,1.05,0.28,-0.58,
1.966,-4.50,-5.60,3.78,0.93,0.18,-0.52,
1.967,-4.50,-5.60,3.78,0.80,0.08,-0.47,
1.967,-4.50,-5.60,3.78,0.67,0.01,-0.42,
1.969,-4.14,0.59,-5.27,0.67,0.01,-0.42,
1.969,-4.14,0.59,-5.27,0.53,-0.01,-0.36,
1.976,-4.14,0.59,-5.27,0.51,0.05,-0.26,
1.992,-4.14,0.59,-5.27,0.50,0.13,-0.14,
1.993,-4.14,0.59,-5.27,0.37,0.12,-0.09,
1.993,-4.14,0.59,-5.27,0.23,0.10,-0.07,
1.993,-4.47,-0.55,-4.90,0.23,0.10,-0.07,
1.993,-4.47,-0.55,-4.90,0.16,0.12,-0.01,
1.994,-4.47,-0.55,-4.90,0.12,0.16,0.06,
1.994,-4.47,-0.55,-4.90,0.05,0.18,0.09,
1.994,-4.47,-0.55,-4.90,0.00,0.22,0.13,
1.994,-4.47,-0.55,-4.90,-0.02,0.27,0.18,
1.995,-4.45,-1.86,-2.75,-0.02,0.27,0.18,
1.995,-4.45,-1.86,-2.75,-0.03,0.31,0.21,
1.995,-4.45,-1.86,-2.75,-0.03,0.38,0.25,
1.995,-4.45,-1.86,-2.75,-0.01,0.43,0.28,
1.997,-4.45,-1.86,-2.75,-0.00,0.46,0.30,
1.997,-4.45,-1.86,-2.75,0.03,0.54,0.34,
1.999,-3.86,-2.73,-0.69,0.03,0.54,0.34,
1.999,-3.86,-2.73,-0.69,0.07,0.58,0.36,
2.001,-3.86,-2.73,-0.69,0.11,0.62,0.38,
2.003,-3.86,-2.73,-0.69,0.15,0.65,0.40,
2.005,-3.86,-2.73,-0.69,0.19,0.67,0.41,
2.006,-3.86,-2.73,-0.69,0.24,0.67,0.41,
2.009,-2.77,-2.58,0.09,0.24,0.67,0.41,
2.009,-2.77,-2.58,0.09,0.28,0.67,0.41,
2.012,-2.77,-2.58,0.09,0.32,0.65,0.41,
2.014,-2.77,-2.58,0.09,0.35,0.63,0.40,
2.015,-2.77,-2.58,0.09,0.38,0.59,0.39,
2.016,-2.77,-2.58,0.09,0.40,0.56,0.38,
2.019,-1.69,-2.19,-0.24,0.40,0.56,0.38,
2.019,-1.69,-2.19,-0.24,0.42,0.51,0.36,
2.02,-1.69,-2.19,-0.24,0.42,0.46,0.35,
2.023,-1.69,-2.19,-0.24,0.42,0.41,0.33,
2.025,-1.69,-2.19,-0.24,0.40,0.36,0.32,
2.027,-1.69,-2.19,-0.24,0.37,0.31,0.31,
2.03,-1.14,-2.10,-1.39,0.37,0.31,0.31,
2.031,-1.14,-2.10,-1.39,0.32,0.27,0.30,
2.031,-1.14,-2.10,-1.39,0.27,0.23,0.29,
2.032,-1.14,-2.10,-1.39,0.20,0.20,0.28,
2.034,-1.14,-2.10,-1.39,0.13,0.18,0.27,
2.036,-1.14,-2.10,-1.39,0.05,0.17,0.27,
2.039,-1.09,-2.26,-2.62,0.05,0.17,0.27,
2.039,-1.09,-2.26,-2.62,-0.05,0.17,0.26,
2.041,-1.09,-2.26,-2.62,-0.16,0.16,0.25,
2.043,-1.09,-2.26,-2.62,-0.27,0.17,0.25,
2.045,-1.09,-2.26,-2.62,-0.36,0.20,0.24,
2.047,-1.09,-2.26,-2.62,-0.42,0.27,0.26,
2.049,-1.50,-2.47,-2.31,-0.42,0.27,0.26,
2.049,-1.50,-2.47,-2.31,-0.45,0.35,0.28,
2.05,-1.50,-2.47,-2.31,-0.53,0.38,0.28,
2.052,-1.50,-2.47,-2.31,-0.61,0.39,0.27,
2.054,-1.50,-2.47,-2.31,-0.67,0.42,0.28,
2.058,-1.50,-2.47,-2.31,-0.72,0.44,0.29,
2.059,-1.40,-2.37,-1.74,-0.72,0.44,0.29,
2.06,-1.40,-2.37,-1.74,-0.78,0.45,0.29,
2.061,-1.40,-2.37,-1.74,-0.81,0.46,0.30,
2.063,-1.40,-2.37,-1.74,-0.85,0.47,0.31,
2.089,-1.40,-2.37,-1.74,-0.88,0.48,0.32,
2.089,-1.40,-2.37,-1.74,-0.89,0.50,0.33,
2.09,-1.35,-2.26,-0.63,-0.89,0.50,0.33,
2.09,-1.35,-2.26,-0.63,-0.91,0.53,0.35,
2.09,-1.35,-2.26,-0.63,-0.92,0.56,0.37,
2.091,-1.35,-2.26,-0.63,-0.94,0.58,0.39,
2.091,-1.35,-2.26,-0.63,-0.96,0.61,0.42,
2.092,-1.35,-2.26,-0.63,-0.98,0.64,0.44,
2.092,-1.62,-2.56,-0.38,-0.98,0.64,0.44,
2.092,-1.62,-2.56,-0.38,-1.00,0.68,0.46,
2.093,-1.62,-2.56,-0.38,-1.02,0.72,0.49,
2.093,-1.62,-2.56,-0.38,-1.03,0.76,0.51,
2.094,-1.62,-2.56,-0.38,-1.05,0.81,0.54,
2.094,-1.62,-2.56,-0.38,-1.05,0.85,0.56,
2.095,-1.86,-2.54,-0.23,-1.05,0.85,0.56,
2.095,-1.86,-2.54,-0.23,-1.06,0.91,0.59,
2.095,-1.86,-2.54,-0.23,-1.05,0.98,0.62,
2.096,-1.86,-2.54,-0.23,-1.04,1.04,0.65,
2.099,-1.86,-2.54,-0.23,-1.04,1.10,0.68,
2.099,-1.86,-2.54,-0.23,-1.04,1.17,0.70,
2.116,-2.11,-3.06,0.05,-1.04,1.17,0.70,
2.116,-2.11,-3.06,0.05,-1.04,1.23,0.72,
2.116,-2.11,-3.06,0.05,-1.06,1.29,0.73,
2.116,-2.11,-3.06,0.05,-1.07,1.36,0.73,
2.117,-2.11,-3.06,0.05,-1.10,1.42,0.72,
2.117,-2.11,-3.06,0.05,-1.14,1.49,0.70,
2.117,-1.33,-2.85,-1.01,-1.14,1.49,0.70,
2.117,-1.33,-2.85,-1.01,-1.18,1.55,0.68,
2.118,-1.33,-2.85,-1.01,-1.24,1.61,0.65,
2.118,-1.33,-2.85,-1.01,-1.30,1.68,0.62,
2.118,-1.33,-2.85,-1.01,-1.37,1.74,0.58,
2.118,-1.33,-2.85,-1.01,-1.45,1.80,0.55,
2.122,-0.43,-2.34,-2.78,-1.45,1.80,0.55,
2.122,-0.43,-2.34,-2.78,-1.53,1.86,0.51,
2.123,-0.43,-2.34,-2.78,-1.62,1.92,0.48,
2.123,-0.43,-2.34,-2.78,-1.71,1.98,0.45,
2.143,-0.43,-2.34,-2.78,-1.88,2.12,0.40,
2.144,-0.43,-2.34,-2.78,-1.88,2.12,0.40,
2.144,-0.74,-1.91,-3.95,-1.88,2.12,0.40,
2.145,-0.74,-1.91,-3.95,-1.97,2.19,0.38,
2.145,-0.74,-1.91,-3.95,-2.05,2.26,0.36,
2.145,-0.74,-1.91,-3.95,-2.12,2.32,0.35,
2.145,-0.74,-1.91,-3.95,-2.18,2.38,0.32,
2.146,-0.74,-1.91,-3.95,-2.22,2.44,0.29,
2.146,-0.76,-1.39,-2.83,-2.22,2.44,0.29,
2.146,-0.76,-1.39,-2.83,-2.24,2.50,0.27,
2.146,-0.76,-1.39,-2.83,-2.24,2.56,0.23,
2.147,-0.76,-1.39,-2.83,-2.22,2.60,0.20,
2.147,-0.76,-1.39,-2.83,-2.17,2.65,0.16,
2.147,-0.76,-1.39,-2.83,-2.11,2.70,0.13,
2.149,-0.58,-0.38,0.92,-2.11,2.70,0.13,
2.149,-0.58,-0.38,0.92,-2.04,2.74,0.09,
2.15,-0.58,-0.38,0.92,-1.95,2.78,0.04,
2.152,-0.58,-0.38,0.92,-1.86,2.82,0.01,
2.154,-0.58,-0.38,0.92,-1.75,2.88,-0.02,
2.156,-0.58,-0.38,0.92,-1.65,2.94,-0.05,
2.182,-0.39,0.75,3.63,-1.65,2.94,-0.05,
2.182,-0.39,0.75,3.63,-1.56,2.98,-0.10,
2.183,-0.39,0.75,3.63,-1.47,3.02,-0.13,
2.183,-0.39,0.75,3.63,-1.38,3.07,-0.17,
2.183,-0.39,0.75,3.63,-1.30,3.11,-0.21,
2.183,-0.39,0.75,3.63,-1.24,3.12,-0.26,
2.183,0.60,2.58,3.79,-1.24,3.12,-0.26,
2.183,0.60,2.58,3.79,-1.22,3.09,-0.32,
2.184,0.60,2.58,3.79,-1.21,3.07,-0.37,
2.184,0.60,2.58,3.79,-1.20,3.03,-0.42,
2.184,0.60,2.58,3.79,-1.20,3.00,-0.46,
2.184,0.60,2.58,3.79,-1.21,2.97,-0.51,
2.184,1.55,4.16,2.38,-1.21,2.97,-0.51,
2.185,1.55,4.16,2.38,-1.21,2.94,-0.54,
2.185,1.55,4.16,2.38,-1.21,2.89,-0.57,
2.185,1.55,4.16,2.38,-1.22,2.85,-0.60,
2.185,1.55,4.16,2.38,-1.23,2.80,-0.62,
2.193,1.55,4.16,2.38,-1.22,2.79,-0.64,
2.193,1.66,4.39,3.40,-1.22,2.79,-0.64,
2.193,1.66,4.39,3.40,-1.13,2.91,-0.66,
2.193,1.66,4.39,3.40,-1.10,2.89,-0.67,
2.194,1.66,4.39,3.40,-1.13,2.80,-0.70,
2.209,1.66,4.39,3.40,-1.15,2.72,-0.73,
2.209,1.66,4.39,3.40,-1.16,2.63,-0.76,
2.209,1.87,4.67,2.28,-1.16,2.63,-0.76,
2.209,1.87,4.67,2.28,-1.17,2.54,-0.79,
2.21,1.87,4.67,2.28,-1.19,2.45,-0.83,
2.21,1.87,4.67,2.28,-1.23,2.36,-0.87,
2.21,1.87,4.67,2.28,-1.26,2.28,-0.92,
2.21,1.87,4.67,2.28,-1.24,2.29,-0.98,
2.21,2.32,4.09,2.99,-1.24,2.29,-0.98,
2.211,2.32,4.09,2.99,-1.05,2.59,-1.03,
2.211,2.32,4.09,2.99,-1.02,2.60,-1.09,
2.225,2.32,4.09,2.99,-1.10,2.43,-1.15,
2.226,2.32,4.09,2.99,-1.16,2.30,-1.21,
2.226,2.32,4.09,2.99,-1.08,2.41,-1.26,
2.226,2.39,2.78,1.28,-1.08,2.41,-1.26,
2.226,2.39,2.78,1.28,-1.00,2.51,-1.29,
2.226,2.39,2.78,1.28,-1.07,2.37,-1.33,
2.226,2.39,2.78,1.28,-1.01,2.45,-1.35,
2.227,2.39,2.78,1.28,-1.01,2.44,-1.38,
2.227,2.39,2.78,1.28,-0.97,2.46,-1.39,
2.238,1.91,1.17,-2.44,-0.97,2.46,-1.39,
2.24,1.91,1.17,-2.44,-0.96,2.47,-1.41,
2.272,1.91,1.17,-2.44,-0.92,2.51,-1.41,
2.273,1.91,1.17,-2.44,-0.89,2.53,-1.42,
2.273,1.91,1.17,-2.44,-0.87,2.58,-1.43,
2.273,1.91,1.17,-2.44,-0.84,2.63,-1.43,
2.274,1.62,0.03,-3.85,-0.84,2.63,-1.43,
2.275,1.62,0.03,-3.85,-0.83,2.69,-1.44,
2.275,1.62,0.03,-3.85,-0.80,2.75,-1.45,
2.275,1.62,0.03,-3.85,-0.79,2.82,-1.47,
2.275,1.62,0.03,-3.85,-0.77,2.89,-1.48,
2.276,1.62,0.03,-3.85,-0.75,2.96,-1.50,
2.276,1.77,-0.08,-3.23,-0.75,2.96,-1.50,
2.276,1.77,-0.08,-3.23,-0.74,3.02,-1.52,
2.276,1.77,-0.08,-3.23,-0.71,3.09,-1.53,
2.277,1.77,-0.08,-3.23,-0.69,3.14,-1.55,
2.277,1.77,-0.08,-3.23,-0.67,3.19,-1.58,
2.277,1.77,-0.08,-3.23,-0.67,3.22,-1.61,
2.277,1.92,0.44,-1.19,-0.67,3.22,-1.61,
2.278,1.92,0.44,-1.19,-0.65,3.26,-1.64,
2.278,1.92,0.44,-1.19,-0.60,3.29,-1.66,
2.278,1.92,0.44,-1.19,-0.57,3.32,-1.70,
2.279,1.92,0.44,-1.19,-0.49,3.33,-1.74,
2.279,1.92,0.44,-1.19,0.27,2.74,-1.82,
2.279,3.00,-0.86,16.67,0.27,2.74,-1.82,
2.28,3.00,-0.86,16.67,0.76,2.23,-1.91,
2.28,3.00,-0.86,16.67,0.59,2.27,-1.95,
2.28,3.00,-0.86,16.67,0.34,2.37,-2.00,
2.28,3.00,-0.86,16.67,0.12,2.35,-2.07,
2.281,3.00,-0.86,16.67,-0.10,2.34,-2.14,
2.281,2.96,1.64,-2.88,-0.10,2.34,-2.14,
2.281,2.96,1.64,-2.88,-0.31,2.32,-2.22,
2.283,2.96,1.64,-2.88,-0.49,2.32,-2.30,
2.284,2.96,1.64,-2.88,-0.42,2.64,-2.35,
2.285,2.96,1.64,-2.88,-0.04,3.50,-2.36,
2.287,2.96,1.64,-2.88,-0.00,3.49,-2.44,
2.289,2.85,1.85,4.72,-0.00,3.49,-2.44,
2.289,2.85,1.85,4.72,0.09,3.00,-2.56,
2.29,2.85,1.85,4.72,0.03,2.88,-2.65,
2.293,2.85,1.85,4.72,-0.11,2.82,-2.74,
2.294,2.85,1.85,4.72,-0.21,2.75,-2.82,
2.297,2.85,1.85,4.72,-0.16,2.48,-2.92,
2.299,3.41,3.27,2.03,-0.16,2.48,-2.92,
2.299,3.41,3.27,2.03,-0.09,2.34,-3.00,
2.302,3.41,3.27,2.03,0.06,2.40,-3.05,
2.303,3.41,3.27,2.03,0.11,2.59,-3.09,
2.305,3.41,3.27,2.03,-0.00,2.46,-3.13,
2.306,3.41,3.27,2.03,-0.07,2.55,-3.15,
2.309,2.28,3.53,1.63,-0.07,2.55,-3.15,
2.309,2.28,3.53,1.63,-0.14,2.59,-3.16,
2.311,2.28,3.53,1.63,-0.20,2.65,-3.16,
2.313,2.28,3.53,1.63,-0.13,2.60,-3.17,
2.315,2.28,3.53,1.63,-0.17,2.46,-3.17,
2.316,2.28,3.53,1.63,-0.24,2.30,-3.18,
2.319,1.76,3.56,2.22,-0.24,2.30,-3.18,
2.319,1.76,3.56,2.22,-0.28,2.17,-3.18,
2.321,1.76,3.56,2.22,-0.32,2.08,-3.18,
2.322,1.76,3.56,2.22,-0.35,1.97,-3.18,
2.325,1.76,3.56,2.22,-0.36,1.92,-3.19,
2.327,1.76,3.56,2.22,-0.37,1.86,-3.19,
2.332,1.48,3.75,1.86,-0.37,1.86,-3.19,
2.333,1.48,3.75,1.86,-0.38,1.87,-3.18,
2.333,1.48,3.75,1.86,-0.43,1.89,-3.18,
2.333,1.48,3.75,1.86,-0.47,1.93,-3.18,
2.335,1.48,3.75,1.86,-0.49,1.87,-3.19,
2.337,1.48,3.75,1.86,-0.53,1.84,-3.20,
2.339,1.41,3.29,1.84,-0.53,1.84,-3.20,
2.339,1.41,3.29,1.84,-0.54,1.77,-3.22,
2.342,1.41,3.29,1.84,-0.56,1.71,-3.24,
2.345,1.41,3.29,1.84,-0.56,1.61,-3.27,
2.346,1.41,3.29,1.84,-0.57,1.54,-3.30,
2.346,1.41,3.29,1.84,-0.57,1.50,-3.33,
2.349,1.82,2.41,1.89,-0.57,1.50,-3.33,
2.349,1.82,2.41,1.89,-0.55,1.50,-3.36,
2.35,1.82,2.41,1.89,-0.52,1.54,-3.39,
2.352,1.82,2.41,1.89,-0.48,1.59,-3.43,
2.354,1.82,2.41,1.89,-0.45,1.62,-3.48,
2.356,1.82,2.41,1.89,-0.41,1.58,-3.53,
2.359,1.65,-0.35,2.26,-0.41,1.58,-3.53,
2.36,1.65,-0.35,2.26,-0.38,1.60,-3.59,
2.361,1.65,-0.35,2.26,-0.34,1.66,-3.66,
2.363,1.65,-0.35,2.26,-0.38,1.82,-3.71,
2.365,1.65,-0.35,2.26,-0.59,2.13,-3.76,
2.366,1.65,-0.35,2.26,-0.74,2.39,-3.80,
2.369,0.13,-7.45,-1.69,-0.74,2.39,-3.80,
2.369,0.13,-7.45,-1.69,-0.58,2.45,-3.84,
2.371,0.13,-7.45,-1.69,-0.52,2.34,-3.90,
2.373,0.13,-7.45,-1.69,-0.49,1.96,-3.96,
2.378,0.13,-7.45,-1.69,-0.43,1.66,-4.02,
2.38,0.13,-7.45,-1.69,-0.27,1.72,-4.07,
2.381,0.70,-16.74,4.07,-0.27,1.72,-4.07,
2.381,0.70,-16.74,4.07,-0.14,2.29,-4.07,
2.382,0.70,-16.74,4.07,-0.09,2.81,-4.05,
2.382,0.70,-16.74,4.07,0.04,2.93,-4.04,
2.384,0.70,-16.74,4.07,0.16,2.57,-4.02,
2.387,0.70,-16.74,4.07,0.25,2.20,-3.99,
2.389,1.06,-20.22,5.69,0.25,2.20,-3.99,
2.39,1.06,-20.22,5.69,0.37,2.30,-3.93,
2.39,1.06,-20.22,5.69,0.44,2.46,-3.86,
2.397,1.06,-20.22,5.69,0.54,2.17,-3.76,
2.398,1.06,-20.22,5.69,0.65,1.88,-3.65,
2.399,1.06,-20.22,5.69,0.76,1.98,-3.54,
2.43,0.02,-15.21,6.25,0.76,1.98,-3.54,
2.43,0.02,-15.21,6.25,0.87,1.82,-3.43,
2.431,0.02,-15.21,6.25,0.99,1.56,-3.33,
2.431,0.02,-15.21,6.25,1.12,1.49,-3.22,
2.431,0.02,-15.21,6.25,1.21,1.60,-3.10,
2.432,0.02,-15.21,6.25,1.29,1.70,-2.97,
2.432,-1.51,-6.58,6.58,1.29,1.70,-2.97,
2.433,-1.51,-6.58,6.58,1.40,1.70,-2.83,
2.433,-1.51,-6.58,6.58,1.53,1.52,-2.69,
2.433,-1.51,-6.58,6.58,1.68,1.25,-2.53,
2.434,-1.51,-6.58,6.58,1.79,1.07,-2.36,
2.434,-1.51,-6.58,6.58,1.87,1.35,-2.22,
2.435,-3.36,-0.70,5.97,1.87,1.35,-2.22,
2.435,-3.36,-0.70,5.97,1.90,1.55,-2.08,
2.436,-3.36,-0.70,5.97,2.03,1.52,-1.94,
2.436,-3.36,-0.70,5.97,2.16,1.12,-1.80,
2.436,-3.36,-0.70,5.97,2.26,1.03,-1.66,
2.437,-3.36,-0.70,5.97,2.29,1.26,-1.54,
2.437,-4.07,2.57,5.60,2.29,1.26,-1.54,
2.438,-4.07,2.57,5.60,2.29,1.50,-1.42,
2.438,-4.07,2.57,5.60,2.26,1.37,-1.30,
2.439,-4.07,2.57,5.60,1.64,1.19,-1.14,
2.439,-4.07,2.57,5.60,1.33,0.28,-0.94,
2.439,-4.07,2.57,5.60,1.43,-0.23,-0.78,
2.44,-5.31,5.78,6.75,1.43,-0.23,-0.78,
2.44,-5.31,5.78,6.75,1.41,-0.09,-0.61,
2.442,-5.31,5.78,6.75,1.37,0.22,-0.44,
2.443,-5.31,5.78,6.75,1.39,0.29,-0.29,
2.445,-5.31,5.78,6.75,1.36,0.28,-0.12,
2.447,-5.31,5.78,6.75,1.35,0.19,0.05,
2.449,-6.59,6.80,1.90,1.35,0.19,0.05,
2.449,-6.59,6.80,1.90,1.31,0.27,0.22,
2.45,-6.59,6.80,1.90,1.29,0.21,0.40,
2.452,-6.59,6.80,1.90,1.24,0.18,0.57,
2.454,-6.59,6.80,1.90,1.21,0.13,0.72,
2.456,-6.59,6.80,1.90,1.18,0.13,0.87,
2.459,-5.69,6.04,1.18,1.18,0.13,0.87,
2.46,-5.69,6.04,1.18,1.16,0.11,1.01,
2.461,-5.69,6.04,1.18,1.14,0.07,1.15,
2.463,-5.69,6.04,1.18,1.12,0.04,1.28,
2.465,-5.69,6.04,1.18,1.11,-0.00,1.41,
2.467,-5.69,6.04,1.18,1.09,-0.02,1.52,
2.469,-4.63,4.95,1.27,1.09,-0.02,1.52,
2.47,-4.63,4.95,1.27,1.08,-0.07,1.63,
2.471,-4.63,4.95,1.27,1.06,-0.09,1.73,
2.472,-4.63,4.95,1.27,1.05,-0.13,1.82,
2.476,-4.63,4.95,1.27,1.03,-0.16,1.90,
2.478,-4.63,4.95,1.27,1.03,-0.20,1.98,
2.48,-3.05,3.91,1.24,1.03,-0.20,1.98,
2.481,-3.05,3.91,1.24,1.02,-0.23,2.05,
2.481,-3.05,3.91,1.24,1.02,-0.27,2.11,
2.483,-3.05,3.91,1.24,1.01,-0.30,2.17,
2.487,-3.05,3.91,1.24,1.01,-0.35,2.23,
2.488,-3.05,3.91,1.24,1.01,-0.38,2.29,
2.489,-2.09,3.03,1.25,1.01,-0.38,2.29,
2.49,-2.09,3.03,1.25,1.01,-0.43,2.34,
2.504,-2.09,3.03,1.25,1.02,-0.47,2.39,
2.505,-2.09,3.03,1.25,1.02,-0.51,2.43,
2.506,-2.09,3.03,1.25,1.03,-0.56,2.47,
2.506,-2.09,3.03,1.25,1.02,-0.60,2.50,
2.506,-1.51,2.69,0.97,1.02,-0.60,2.50,
2.507,-1.51,2.69,0.97,1.03,-0.66,2.53,
2.507,-1.51,2.69,0.97,1.02,-0.70,2.56,
2.507,-1.51,2.69,0.97,1.02,-0.77,2.59,
2.508,-1.51,2.69,0.97,0.99,-0.82,2.62,
2.508,-1.51,2.69,0.97,0.97,-0.89,2.65,
2.532,-1.32,2.06,-0.24,0.97,-0.89,2.65,
2.533,-1.32,2.06,-0.24,0.93,-0.94,2.68,
2.533,-1.32,2.06,-0.24,0.89,-1.01,2.70,
2.533,-1.32,2.06,-0.24,0.82,-1.07,2.73,
2.534,-1.32,2.06,-0.24,0.74,-1.15,2.75,
2.534,-1.32,2.06,-0.24,0.64,-1.22,2.77,
2.534,-1.07,0.81,-3.27,0.64,-1.22,2.77,
2.535,-1.07,0.81,-3.27,0.53,-1.28,2.79,
2.535,-1.07,0.81,-3.27,0.39,-1.33,2.80,
2.535,-1.07,0.81,-3.27,0.23,-1.34,2.80,
2.536,-1.07,0.81,-3.27,0.06,-1.29,2.79,
2.536,-1.07,0.81,-3.27,-0.05,-1.02,2.77,
2.536,-0.64,-0.41,-10.17,-0.05,-1.02,2.77,
2.536,-0.64,-0.41,-10.17,-0.08,-0.67,2.71,
2.537,-0.64,-0.41,-10.17,-0.05,-0.62,2.61,
2.537,-0.64,-0.41,-10.17,0.05,-0.36,2.47,
2.537,-0.64,-0.41,-10.17,0.21,-0.10,2.31,
2.538,-0.64,-0.41,-10.17,0.41,-0.06,2.17,
2.54,1.16,-2.55,-14.52,0.41,-0.06,2.17,
2.541,1.16,-2.55,-14.52,0.53,-0.05,2.03,
2.544,1.16,-2.55,-14.52,0.62,-0.09,1.87,
2.545,1.16,-2.55,-14.52,0.67,-0.14,1.70,
2.547,1.16,-2.55,-14.52,0.66,-0.20,1.53,
2.548,1.16,-2.55,-14.52,0.60,-0.26,1.36,
2.551,3.77,-4.87,-22.01,0.60,-0.26,1.36,
2.554,3.77,-4.87,-22.01,0.49,-0.31,1.18,
2.555,3.77,-4.87,-22.01,0.35,-0.35,1.02,
2.555,3.77,-4.87,-22.01,0.19,-0.37,0.87,
2.556,3.77,-4.87,-22.01,0.03,-0.36,0.73,
2.557,3.77,-4.87,-22.01,-0.14,-0.32,0.60,
2.567,5.32,-6.33,-24.98,-0.14,-0.32,0.60,
2.57,5.32,-6.33,-24.98,-0.30,-0.27,0.48,
2.57,5.32,-6.33,-24.98,-0.44,-0.20,0.38,
2.571,5.32,-6.33,-24.98,-0.56,-0.10,0.29,
2.595,5.32,-6.33,-24.98,-0.67,0.00,0.20,
2.596,5.32,-6.33,-24.98,-0.75,0.12,0.12,
2.596,6.19,-6.14,-20.52,-0.75,0.12,0.12,
2.597,6.19,-6.14,-20.52,-0.81,0.25,0.05,
2.597,6.19,-6.14,-20.52,-0.86,0.39,-0.02,
2.597,6.19,-6.14,-20.52,-0.88,0.53,-0.09,
2.597,6.19,-6.14,-20.52,-0.90,0.67,-0.14,
2.598,6.19,-6.14,-20.52,-0.89,0.81,-0.20,
2.598,6.67,-5.33,-13.27,-0.89,0.81,-0.20,
2.598,6.67,-5.33,-13.27,-0.88,0.96,-0.25,
2.598,6.67,-5.33,-13.27,-0.85,1.10,-0.30,
2.599,6.67,-5.33,-13.27,-0.82,1.25,-0.34,
2.599,6.67,-5.33,-13.27,-0.77,1.38,-0.38,
2.599,6.67,-5.33,-13.27,-0.73,1.53,-0.42,
2.599,6.64,-4.36,-7.76,-0.73,1.53,-0.42,
2.6,6.64,-4.36,-7.76,-0.68,1.66,-0.46,
2.6,6.64,-4.36,-7.76,-0.62,1.80,-0.49,
2.6,6.64,-4.36,-7.76,-0.57,1.93,-0.53,
2.601,6.64,-4.36,-7.76,-0.51,2.05,-0.56,
2.601,6.64,-4.36,-7.76,-0.46,2.16,-0.59,
2.601,6.14,-3.64,-4.07,-0.46,2.16,-0.59,
2.601,6.14,-3.64,-4.07,-0.41,2.27,-0.62,
2.602,6.14,-3.64,-4.07,-0.37,2.37,-0.65,
2.604,6.14,-3.64,-4.07,-0.33,2.45,-0.68,
2.605,6.14,-3.64,-4.07,-0.30,2.52,-0.71,
2.609,6.14,-3.64,-4.07,-0.27,2.58,-0.74,
2.611,5.56,-2.44,-1.76,-0.27,2.58,-0.74,
2.611,5.56,-2.44,-1.76,-0.24,2.62,-0.76,
2.612,5.56,-2.44,-1.76,-0.22,2.66,-0.79,
2.612,5.56,-2.44,-1.76,-0.21,2.69,-0.81,
2.614,5.56,-2.44,-1.76,-0.19,2.70,-0.84,
2.616,5.56,-2.44,-1.76,-0.17,2.70,-0.86,
2.619,4.73,-1.08,0.62,-0.17,2.70,-0.86,
2.619,4.73,-1.08,0.62,-0.16,2.69,-0.89,
2.62,4.73,-1.08,0.62,-0.15,2.67,-0.93,
2.628,4.73,-1.08,0.62,-0.12,2.61,-1.00,
2.629,4.73,-1.08,0.62,-0.12,2.61,-1.00,
2.629,4.73,-1.08,0.62,-0.11,2.55,-1.05,
2.63,4.86,-0.39,2.90,-0.11,2.55,-1.05,
2.63,4.86,-0.39,2.90,-0.09,2.49,-1.10,
2.631,4.86,-0.39,2.90,-0.08,2.44,-1.15,
2.633,4.86,-0.39,2.90,-0.05,2.39,-1.21,
2.635,4.86,-0.39,2.90,-0.04,2.31,-1.26,
2.636,4.86,-0.39,2.90,-0.02,2.21,-1.33,
2.639,5.28,-0.85,4.41,-0.02,2.21,-1.33,
2.639,5.28,-0.85,4.41,-0.02,2.11,-1.39,
2.651,5.28,-0.85,4.41,-0.00,2.02,-1.45,
2.652,5.28,-0.85,4.41,0.00,1.94,-1.50,
2.652,5.28,-0.85,4.41,0.01,1.85,-1.55,
2.652,5.28,-0.85,4.41,0.02,1.76,-1.60,
2.653,5.17,-1.72,5.26,0.02,1.76,-1.60,
2.653,5.17,-1.72,5.26,0.03,1.68,-1.64,
2.653,5.17,-1.72,5.26,0.03,1.59,-1.67,
2.653,5.17,-1.72,5.26,0.03,1.51,-1.69,
2.654,5.17,-1.72,5.26,0.04,1.42,-1.71,
2.666,5.17,-1.72,5.26,0.04,1.33,-1.72,
2.667,3.98,-2.11,5.34,0.04,1.33,-1.72,
2.667,3.98,-2.11,5.34,0.04,1.22,-1.73,
2.667,3.98,-2.11,5.34,0.05,1.11,-1.73,
2.667,3.98,-2.11,5.34,0.05,0.98,-1.73,
2.667,3.98,-2.11,5.34,0.06,0.84,-1.72,
2.668,3.98,-2.11,5.34,0.06,0.67,-1.71,
2.669,2.61,-1.63,5.90,0.06,0.67,-1.71,
2.669,2.61,-1.63,5.90,0.07,0.49,-1.69,
2.671,2.61,-1.63,5.90,0.07,0.30,-1.67,
2.677,2.61,-1.63,5.90,0.08,0.09,-1.64,
2.677,2.61,-1.63,5.90,0.08,-0.13,-1.60,
2.678,2.61,-1.63,5.90,0.08,-0.35,-1.56,
2.681,1.49,-1.11,6.07,0.08,-0.35,-1.56,
2.681,1.49,-1.11,6.07,0.08,-0.56,-1.51,
2.682,1.49,-1.11,6.07,0.07,-0.78,-1.46,
2.683,1.49,-1.11,6.07,0.06,-0.99,-1.41,
2.685,1.49,-1.11,6.07,0.05,-1.19,-1.35,
2.687,1.49,-1.11,6.07,0.04,-1.38,-1.29,
2.69,0.19,-0.77,5.89,0.04,-1.38,-1.29,
2.69,0.19,-0.77,5.89,0.04,-1.58,-1.24,
2.692,0.19,-0.77,5.89,0.04,-1.76,-1.18,
2.696,0.19,-0.77,5.89,0.06,-1.95,-1.12,
2.696,0.19,-0.77,5.89,0.08,-2.13,-1.06,
2.697,0.19,-0.77,5.89,0.11,-2.30,-1.01,
2.7,-0.63,0.04,6.26,0.11,-2.30,-1.01,
2.701,-0.63,0.04,6.26,0.15,-2.46,-0.96,
2.702,-0.63,0.04,6.26,0.20,-2.61,-0.92,
2.705,-0.63,0.04,6.26,0.26,-2.76,-0.88,
2.705,-0.63,0.04,6.26,0.32,-2.89,-0.84,
2.706,-0.63,0.04,6.26,0.39,-3.03,-0.81,
2.71,-0.85,0.71,6.90,0.39,-3.03,-0.81,
2.71,-0.85,0.71,6.90,0.47,-3.16,-0.78,
2.711,-0.85,0.71,6.90,0.55,-3.28,-0.74,
2.713,-0.85,0.71,6.90,0.63,-3.38,-0.70,
2.715,-0.85,0.71,6.90,0.71,-3.47,-0.67,
2.717,-0.85,0.71,6.90,0.80,-3.54,-0.63,
2.72,-1.48,1.53,6.74,0.80,-3.54,-0.63,
2.72,-1.48,1.53,6.74,0.89,-3.60,-0.59,
2.721,-1.48,1.53,6.74,0.98,-3.64,-0.55,
2.725,-1.48,1.53,6.74,1.07,-3.66,-0.51,
2.725,-1.48,1.53,6.74,1.17,-3.66,-0.47,
2.726,-1.48,1.53,6.74,1.27,-3.64,-0.43,
2.73,-2.21,2.23,6.76,1.27,-3.64,-0.43,
2.731,-2.21,2.23,6.76,1.37,-3.61,-0.38,
2.757,-2.21,2.23,6.76,1.47,-3.56,-0.33,
2.757,-2.21,2.23,6.76,1.58,-3.49,-0.28,
2.758,-2.21,2.23,6.76,1.69,-3.40,-0.21,
2.758,-2.21,2.23,6.76,1.79,-3.31,-0.15,
2.759,-2.86,2.26,6.53,1.79,-3.31,-0.15,
2.759,-2.86,2.26,6.53,1.90,-3.19,-0.08,
2.759,-2.86,2.26,6.53,2.02,-3.07,-0.00,
2.76,-2.86,2.26,6.53,2.14,-2.93,0.07,
2.76,-2.86,2.26,6.53,2.25,-2.78,0.16,
2.761,-2.86,2.26,6.53,2.37,-2.63,0.24,
2.761,-3.50,1.66,6.85,2.37,-2.63,0.24,
2.761,-3.50,1.66,6.85,2.49,-2.46,0.33,
2.762,-3.50,1.66,6.85,2.61,-2.30,0.42,
2.762,-3.50,1.66,6.85,2.73,-2.14,0.51,
2.763,-3.50,1.66,6.85,2.85,-1.98,0.60,
2.763,-3.50,1.66,6.85,2.97,-1.82,0.69,
2.764,-3.58,0.59,6.96,2.97,-1.82,0.69,
2.764,-3.58,0.59,6.96,3.08,-1.67,0.78,
2.764,-3.58,0.59,6.96,3.18,-1.52,0.87,
2.765,-3.58,0.59,6.96,3.27,-1.38,0.96,
2.765,-3.58,0.59,6.96,3.35,-1.25,1.05,
2.768,-3.58,0.59,6.96,3.42,-1.14,1.13,
2.77,-3.48,-0.54,6.44,3.42,-1.14,1.13,
2.771,-3.48,-0.54,6.44,3.48,-1.05,1.22,
2.771,-3.48,-0.54,6.44,3.52,-0.98,1.32,
2.775,-3.48,-0.54,6.44,3.56,-0.93,1.41,
2.776,-3.48,-0.54,6.44,3.58,-0.90,1.50,
2.777,-3.48,-0.54,6.44,3.59,-0.89,1.58,
2.779,-3.20,-1.49,5.35,3.59,-0.89,1.58,
2.779,-3.20,-1.49,5.35,3.58,-0.91,1.66,
2.78,-3.20,-1.49,5.35,3.58,-0.94,1.73,
2.783,-3.20,-1.49,5.35,3.56,-0.97,1.79,
2.784,-3.20,-1.49,5.35,3.53,-1.02,1.86,
2.786,-3.20,-1.49,5.35,3.48,-1.07,1.92,
2.796,-2.94,-2.11,4.23,3.48,-1.07,1.92,
2.796,-2.94,-2.11,4.23,3.42,-1.12,1.98,
2.797,-2.94,-2.11,4.23,3.35,-1.18,2.03,
2.797,-2.94,-2.11,4.23,3.26,-1.26,2.08,
2.797,-2.94,-2.11,4.23,3.15,-1.33,2.12,
2.797,-2.94,-2.11,4.23,3.03,-1.41,2.15,
2.799,-2.30,-2.70,2.54,3.03,-1.41,2.15,
2.799,-2.30,-2.70,2.54,2.90,-1.50,2.18,
2.8,-2.30,-2.70,2.54,2.77,-1.57,2.20,
2.803,-2.30,-2.70,2.54,2.63,-1.64,2.22,
2.805,-2.30,-2.70,2.54,2.48,-1.71,2.23,
2.817,-2.30,-2.70,2.54,2.34,-1.77,2.24,
2.818,-1.79,-3.27,1.41,2.34,-1.77,2.24,
2.818,-1.79,-3.27,1.41,2.19,-1.83,2.25,
2.818,-1.79,-3.27,1.41,2.03,-1.89,2.26,
2.819,-1.79,-3.27,1.41,1.88,-1.94,2.26,
2.819,-1.79,-3.27,1.41,1.74,-1.97,2.27,
2.819,-1.79,-3.27,1.41,1.61,-1.99,2.27,
2.819,-1.86,-3.12,1.01,1.61,-1.99,2.27,
2.82,-1.86,-3.12,1.01,1.48,-1.98,2.28,
2.821,-1.86,-3.12,1.01,1.37,-1.96,2.29,
2.829,-1.86,-3.12,1.01,1.25,-1.92,2.30,
2.83,-1.86,-3.12,1.01,1.14,-1.88,2.30,
2.83,-1.86,-3.12,1.01,1.03,-1.82,2.30,
2.83,-2.34,-2.20,0.82,1.03,-1.82,2.30,
2.831,-2.34,-2.20,0.82,0.93,-1.76,2.30,
2.831,-2.34,-2.20,0.82,0.83,-1.69,2.28,
2.832,-2.34,-2.20,0.82,0.73,-1.61,2.26,
2.835,-2.34,-2.20,0.82,0.64,-1.52,2.24,
2.837,-2.34,-2.20,0.82,0.55,-1.43,2.21,
2.839,-2.25,-1.33,0.70,0.55,-1.43,2.21,
2.84,-2.25,-1.33,0.70,0.47,-1.33,2.19,
2.842,-2.25,-1.33,0.70,0.40,-1.23,2.16,
2.843,-2.25,-1.33,0.70,0.33,-1.12,2.14,
2.844,-2.25,-1.33,0.70,0.27,-1.02,2.11,
2.846,-2.25,-1.33,0.70,0.21,-0.91,2.08,
2.854,-2.77,-0.63,0.69,0.21,-0.91,2.08,
2.854,-2.77,-0.63,0.69,0.17,-0.79,2.06,
2.854,-2.77,-0.63,0.69,0.13,-0.69,2.03,
2.854,-2.77,-0.63,0.69,0.10,-0.58,2.00,
2.854,-2.77,-0.63,0.69,0.08,-0.48,1.98,
2.857,-2.77,-0.63,0.69,0.06,-0.38,1.95,
2.859,-3.09,-0.20,0.88,0.06,-0.38,1.95,
2.859,-3.09,-0.20,0.88,0.05,-0.29,1.92,
2.861,-3.09,-0.20,0.88,0.04,-0.20,1.89,
2.862,-3.09,-0.20,0.88,0.04,-0.11,1.86,
2.864,-3.09,-0.20,0.88,0.04,-0.03,1.84,
2.866,-3.09,-0.20,0.88,0.04,0.06,1.81,
2.869,-3.21,0.23,0.92,0.04,0.06,1.81,
2.87,-3.21,0.23,0.92,0.05,0.14,1.79,
2.87,-3.21,0.23,0.92,0.05,0.22,1.77,
2.883,-3.21,0.23,0.92,0.07,0.30,1.74,
2.885,-3.21,0.23,0.92,0.08,0.37,1.72,
2.885,-3.21,0.23,0.92,0.09,0.44,1.70,
2.886,-3.08,0.67,0.58,0.09,0.44,1.70,
2.887,-3.08,0.67,0.58,0.11,0.51,1.68,
2.888,-3.08,0.67,0.58,0.12,0.58,1.66,
2.889,-3.08,0.67,0.58,0.14,0.64,1.64,
2.889,-3.08,0.67,0.58,0.15,0.70,1.63,
2.889,-3.08,0.67,0.58,0.16,0.75,1.62,
2.903,-3.14,1.16,-0.03,0.16,0.75,1.62,
2.905,-3.14,1.16,-0.03,0.19,0.80,1.60,
2.906,-3.14,1.16,-0.03,0.29,0.63,1.58,
2.907,-3.14,1.16,-0.03,0.44,0.15,1.54,
2.908,-3.14,1.16,-0.03,0.58,-0.44,1.52,
2.91,-3.14,1.16,-0.03,0.71,-1.05,1.51,
2.94,-2.61,3.05,-4.36,0.71,-1.05,1.51,
2.94,-2.61,3.05,-4.36,0.85,-1.59,1.48,
2.941,-2.61,3.05,-4.36,1.00,-2.06,1.43,
2.941,-2.61,3.05,-4.36,1.16,-2.48,1.37,
2.942,-2.61,3.05,-4.36,1.31,-2.87,1.30,
2.942,-2.61,3.05,-4.36,1.44,-3.21,1.23,
2.942,-0.89,2.22,-5.34,1.44,-3.21,1.23,
2.943,-0.89,2.22,-5.34,1.56,-3.52,1.15,
2.943,-0.89,2.22,-5.34,1.66,-3.80,1.07,
2.943,-0.89,2.22,-5.34,1.76,-4.04,1.00,
2.944,-0.89,2.22,-5.34,1.84,-4.25,0.92,
2.944,-0.89,2.22,-5.34,1.92,-4.43,0.84,
2.944,-0.02,1.29,-6.06,1.92,-4.43,0.84,
2.944,-0.02,1.29,-6.06,1.98,-4.59,0.77,
2.945,-0.02,1.29,-6.06,2.04,-4.72,0.70,
2.945,-0.02,1.29,-6.06,2.08,-4.82,0.63,
2.945,-0.02,1.29,-6.06,2.11,-4.91,0.57,
2.945,-0.02,1.29,-6.06,2.13,-4.98,0.51,
2.946,0.11,0.71,-6.91,2.13,-4.98,0.51,
2.946,0.11,0.71,-6.91,2.13,-5.03,0.46,
2.946,0.11,0.71,-6.91,2.13,-5.06,0.41,
2.947,0.11,0.71,-6.91,2.11,-5.06,0.37,
2.947,0.11,0.71,-6.91,2.08,-5.05,0.33,
2.947,0.11,0.71,-6.91,2.05,-5.02,0.30,
2.947,-0.24,0.56,-7.42,2.05,-5.02,0.30,
2.948,-0.24,0.56,-7.42,2.00,-4.98,0.28,
2.948,-0.24,0.56,-7.42,1.95,-4.92,0.26,
2.948,-0.24,0.56,-7.42,1.89,-4.84,0.24,
2.948,-0.24,0.56,-7.42,1.82,-4.74,0.22,
2.949,-0.24,0.56,-7.42,1.75,-4.63,0.21,
2.949,-0.67,0.35,-7.75,1.75,-4.63,0.21,
2.949,-0.67,0.35,-7.75,1.68,-4.51,0.20,
2.951,-0.67,0.35,-7.75,1.60,-4.37,0.20,
2.953,-0.67,0.35,-7.75,1.52,-4.23,0.19,
2.96,-0.67,0.35,-7.75,1.43,-4.07,0.19,
2.96,-0.67,0.35,-7.75,1.34,-3.91,0.19,
2.96,-0.96,-0.04,-7.31,1.34,-3.91,0.19,
2.961,-0.96,-0.04,-7.31,1.26,-3.74,0.19,
2.961,-0.96,-0.04,-7.31,1.17,-3.56,0.19,
2.963,-0.96,-0.04,-7.31,1.08,-3.38,0.19,
2.964,-0.96,-0.04,-7.31,0.99,-3.19,0.19,
2.966,-0.96,-0.04,-7.31,0.91,-3.00,0.19,
2.969,-1.04,-0.47,-6.50,0.91,-3.00,0.19,
2.969,-1.04,-0.47,-6.50,0.83,-2.80,0.20,
2.971,-1.04,-0.47,-6.50,0.76,-2.60,0.20,
2.972,-1.04,-0.47,-6.50,0.69,-2.41,0.21,
2.975,-1.04,-0.47,-6.50,0.63,-2.20,0.22,
2.976,-1.04,-0.47,-6.50,0.58,-2.00,0.22,
2.979,-0.99,-0.46,-4.94,0.58,-2.00,0.22,
2.979,-0.99,-0.46,-4.94,0.53,-1.79,0.22,
2.983,-0.99,-0.46,-4.94,0.49,-1.59,0.22,
2.983,-0.99,-0.46,-4.94,0.45,-1.39,0.22,
2.984,-0.99,-0.46,-4.94,0.42,-1.20,0.21,
2.986,-0.99,-0.46,-4.94,0.40,-1.01,0.20,
3.001,-0.69,-0.44,-3.43,0.40,-1.01,0.20,
3.002,-0.69,-0.44,-3.43,0.38,-0.82,0.18,
3.003,-0.69,-0.44,-3.43,0.38,-0.64,0.16,
3.003,-0.69,-0.44,-3.43,0.37,-0.46,0.14,
3.003,-0.69,-0.44,-3.43,0.38,-0.30,0.12,
3.004,-0.69,-0.44,-3.43,0.39,-0.13,0.10,
3.004,-0.44,-0.28,-1.96,0.39,-0.13,0.10,
3.005,-0.44,-0.28,-1.96,0.41,0.03,0.07,
3.005,-0.44,-0.28,-1.96,0.45,0.26,0.04,
3.006,-0.44,-0.28,-1.96,0.48,0.40,0.01,
3.006,-0.44,-0.28,-1.96,0.50,0.48,0.00,
3.034,-0.44,-0.28,-1.96,0.54,0.61,-0.02,
3.036,-0.42,-0.05,-0.91,0.54,0.61,-0.02,
3.037,-0.42,-0.05,-0.91,0.59,0.74,-0.05,
3.038,-0.42,-0.05,-0.91,0.64,0.86,-0.07,
3.039,-0.42,-0.05,-0.91,0.69,0.97,-0.10,
3.04,-0.42,-0.05,-0.91,0.75,1.07,-0.12,
3.043,-0.42,-0.05,-0.91,0.81,1.16,-0.14,
3.044,-0.41,0.25,-0.24,0.81,1.16,-0.14,
3.045,-0.41,0.25,-0.24,0.87,1.24,-0.16,
3.046,-0.41,0.25,-0.24,0.94,1.31,-0.18,
3.047,-0.41,0.25,-0.24,1.00,1.37,-0.19,
3.048,-0.41,0.25,-0.24,1.07,1.42,-0.20,
3.048,-0.41,0.25,-0.24,1.13,1.45,-0.20,
3.049,-0.62,0.66,0.05,1.13,1.45,-0.20,
3.049,-0.62,0.66,0.05,1.20,1.47,-0.20,
3.05,-0.62,0.66,0.05,1.26,1.48,-0.20,
3.05,-0.62,0.66,0.05,1.33,1.48,-0.20,
3.051,-0.62,0.66,0.05,1.38,1.47,-0.20,
3.051,-0.62,0.66,0.05,1.44,1.45,-0.19,
3.051,-0.93,0.81,0.08,1.44,1.45,-0.19,
3.052,-0.93,0.81,0.08,1.50,1.43,-0.18,
3.052,-0.93,0.81,0.08,1.55,1.39,-0.17,
3.053,-0.93,0.81,0.08,1.60,1.35,-0.16,
3.053,-0.93,0.81,0.08,1.65,1.30,-0.14,
3.054,-0.93,0.81,0.08,1.70,1.25,-0.13,
3.054,-1.17,0.70,-0.10,1.70,1.25,-0.13,
3.055,-1.17,0.70,-0.10,1.74,1.18,-0.12,
3.055,-1.17,0.70,-0.10,1.79,1.11,-0.10,
3.056,-1.17,0.70,-0.10,1.84,1.03,-0.08,
3.061,-1.17,0.70,-0.10,1.89,0.94,-0.06,
3.062,-1.17,0.70,-0.10,1.94,0.84,-0.05,
3.063,-1.23,0.42,-0.34,1.94,0.84,-0.05,
3.063,-1.23,0.42,-0.34,2.00,0.73,-0.03,
3.064,-1.23,0.42,-0.34,2.06,0.61,-0.01,
3.064,-1.23,0.42,-0.34,2.12,0.48,0.01,
3.096,-1.23,0.42,-0.34,2.18,0.34,0.03,
3.097,-1.23,0.42,-0.34,2.25,0.19,0.05,
3.097,-1.24,0.02,-0.86,2.25,0.19,0.05,
3.097,-1.24,0.02,-0.86,2.31,0.02,0.07,
3.098,-1.24,0.02,-0.86,2.38,-0.14,0.08,
3.098,-1.24,0.02,-0.86,2.44,-0.32,0.10,
3.099,-1.24,0.02,-0.86,2.49,-0.50,0.12,
3.099,-1.24,0.02,-0.86,2.54,-0.69,0.13,
3.1,-1.17,-0.55,-2.15,2.54,-0.69,0.13,
3.1,-1.17,-0.55,-2.15,2.58,-0.88,0.14,
3.1,-1.17,-0.55,-2.15,2.60,-1.07,0.15,
3.101,-1.17,-0.55,-2.15,2.62,-1.26,0.16,
3.101,-1.17,-0.55,-2.15,2.63,-1.45,0.16,
3.102,-1.17,-0.55,-2.15,2.62,-1.63,0.16,
3.102,-1.21,-1.63,-4.51,2.62,-1.63,0.16,
3.102,-1.21,-1.63,-4.51,2.61,-1.81,0.16,
3.103,-1.21,-1.63,-4.51,2.58,-1.97,0.16,
3.103,-1.21,-1.63,-4.51,2.53,-2.13,0.16,
3.104,-1.21,-1.63,-4.51,2.47,-2.27,0.15,
3.104,-1.21,-1.63,-4.51,2.41,-2.40,0.15,
3.104,-1.36,-2.83,-7.34,2.41,-2.40,0.15,
3.105,-1.36,-2.83,-7.34,2.32,-2.52,0.14,
3.105,-1.36,-2.83,-7.34,2.23,-2.62,0.13,
3.106,-1.36,-2.83,-7.34,2.12,-2.70,0.13,
3.106,-1.36,-2.83,-7.34,1.99,-2.75,0.12,
3.107,-1.36,-2.83,-7.34,1.85,-2.79,0.11,
3.114,-1.61,-4.03,-10.50,1.85,-2.79,0.11,
3.117,-1.61,-4.03,-10.50,1.68,-2.80,0.10,
3.117,-1.61,-4.03,-10.50,1.51,-2.78,0.09,
3.117,-1.61,-4.03,-10.50,1.31,-2.73,0.08,
3.118,-1.61,-4.03,-10.50,1.11,-2.66,0.06,
3.118,-1.61,-4.03,-10.50,0.90,-2.56,0.05,
3.119,-1.50,-4.70,-12.45,0.90,-2.56,0.05,
3.119,-1.50,-4.70,-12.45,0.69,-2.45,0.04,
3.126,-1.50,-4.70,-12.45,0.49,-2.32,0.03,
3.126,-1.50,-4.70,-12.45,0.29,-2.17,0.03,
3.127,-1.50,-4.70,-12.45,-0.08,-1.83,0.01,
3.127,-1.50,-4.70,-12.45,-0.08,-1.83,0.01,
3.131,-1.19,-4.85,-11.37,-0.08,-1.83,0.01,
3.132,-1.19,-4.85,-11.37,-0.26,-1.64,0.00,
3.132,-1.19,-4.85,-11.37,-0.41,-1.44,-0.00,
3.133,-1.19,-4.85,-11.37,-0.56,-1.22,-0.01,
3.135,-1.19,-4.85,-11.37,-0.69,-1.00,-0.02,
3.136,-1.19,-4.85,-11.37,-0.81,-0.78,-0.03,
3.144,-0.56,-4.24,-8.50,-0.81,-0.78,-0.03,
3.145,-0.56,-4.24,-8.50,-0.91,-0.56,-0.04,
3.145,-0.56,-4.24,-8.50,-1.00,-0.34,-0.05,
3.145,-0.56,-4.24,-8.50,-1.08,-0.13,-0.06,
3.146,-0.56,-4.24,-8.50,-1.14,0.07,-0.07,
3.146,-0.56,-4.24,-8.50,-1.19,0.25,-0.08,
3.149,0.09,-3.27,-5.79,-1.19,0.25,-0.08,
3.149,0.09,-3.27,-5.79,-1.23,0.42,-0.10,
3.15,0.09,-3.27,-5.79,-1.26,0.57,-0.10,
3.152,0.09,-3.27,-5.79,-1.28,0.71,-0.11,
3.155,0.09,-3.27,-5.79,-1.29,0.84,-0.12,
3.157,0.09,-3.27,-5.79,-1.28,0.95,-0.13,
3.159,0.24,-2.64,-3.59,-1.28,0.95,-0.13,
3.165,0.24,-2.64,-3.59,-1.27,1.05,-0.13,
3.165,0.24,-2.64,-3.59,-1.26,1.13,-0.13,
3.166,0.24,-2.64,-3.59,-1.24,1.19,-0.13,
3.166,0.24,-2.64,-3.59,-1.20,1.24,-0.13,
3.167,0.24,-2.64,-3.59,-1.17,1.28,-0.12,
3.169,-0.01,-2.73,-2.55,-1.17,1.28,-0.12,
3.17,-0.01,-2.73,-2.55,-1.13,1.31,-0.12,
3.171,-0.01,-2.73,-2.55,-1.09,1.32,-0.11,
3.173,-0.01,-2.73,-2.55,-1.04,1.32,-0.10,
3.175,-0.01,-2.73,-2.55,-1.00,1.31,-0.10,
3.176,-0.01,-2.73,-2.55,-0.96,1.29,-0.09,
3.179,-0.04,-3.36,-2.37,-0.96,1.29,-0.09,
3.18,-0.04,-3.36,-2.37,-0.92,1.26,-0.09,
3.181,-0.04,-3.36,-2.37,-0.89,1.23,-0.09,
3.182,-0.04,-3.36,-2.37,-0.86,1.19,-0.09,
3.185,-0.04,-3.36,-2.37,-0.85,1.16,-0.10,
3.187,-0.04,-3.36,-2.37,-0.83,1.12,-0.12,
3.189,0.53,-4.07,-3.53,-0.83,1.12,-0.12,
3.189,0.53,-4.07,-3.53,-0.83,1.08,-0.14,
3.191,0.53,-4.07,-3.53,-0.84,1.05,-0.16,
3.192,0.53,-4.07,-3.53,-0.85,1.02,-0.18,
3.194,0.53,-4.07,-3.53,-0.88,1.00,-0.21,
3.196,0.53,-4.07,-3.53,-0.92,0.99,-0.24,
3.199,1.21,-4.54,-5.58,-0.92,0.99,-0.24,
3.199,1.21,-4.54,-5.58,-0.97,0.99,-0.28,
3.2,1.21,-4.54,-5.58,-1.03,1.01,-0.31,
3.202,1.21,-4.54,-5.58,-1.12,1.05,-0.35,
3.204,1.21,-4.54,-5.58,-1.23,1.11,-0.38,
3.208,1.21,-4.54,-5.58,-1.37,1.21,-0.43,
3.209,2.19,-4.30,-10.58,-1.37,1.21,-0.43,
3.209,2.19,-4.30,-10.58,-1.57,1.35,-0.48,
3.21,2.19,-4.30,-10.58,-1.79,1.53,-0.54,
3.213,2.19,-4.30,-10.58,-2.05,1.73,-0.60,
3.214,2.19,-4.30,-10.58,-2.32,1.94,-0.67,
3.218,2.19,-4.30,-10.58,-2.61,2.15,-0.74,
3.219,3.20,-3.10,-16.18,-2.61,2.15,-0.74,
3.22,3.20,-3.10,-16.18,-2.89,2.35,-0.81,
3.222,3.20,-3.10,-16.18,-3.17,2.53,-0.87,
3.223,3.20,-3.10,-16.18,-3.42,2.67,-0.92,
3.225,3.20,-3.10,-16.18,-3.64,2.78,-0.97,
3.226,3.20,-3.10,-16.18,-3.83,2.84,-1.02,
3.229,2.23,-2.39,-13.35,-3.83,2.84,-1.02,
3.229,2.23,-2.39,-13.35,-3.98,2.86,-1.06,
3.257,2.23,-2.39,-13.35,-4.10,2.85,-1.10,
3.258,2.23,-2.39,-13.35,-4.19,2.82,-1.13,
3.258,2.23,-2.39,-13.35,-4.24,2.76,-1.16,
3.259,2.23,-2.39,-13.35,-4.26,2.68,-1.19,
3.259,0.75,-2.46,-5.20,-4.26,2.68,-1.19,
3.26,0.75,-2.46,-5.20,-4.26,2.59,-1.22,
3.26,0.75,-2.46,-5.20,-4.22,2.49,-1.25,
3.261,0.75,-2.46,-5.20,-4.17,2.39,-1.28,
3.261,0.75,-2.46,-5.20,-4.10,2.28,-1.30,
3.261,0.75,-2.46,-5.20,-4.01,2.17,-1.32,
3.262,-0.70,-3.22,1.90,-4.01,2.17,-1.32,
3.262,-0.70,-3.22,1.90,-3.91,2.06,-1.33,
3.263,-0.70,-3.22,1.90,-3.81,1.94,-1.33,
3.263,-0.70,-3.22,1.90,-3.71,1.80,-1.33,
3.263,-0.70,-3.22,1.90,-3.60,1.67,-1.31,
3.264,-0.70,-3.22,1.90,-3.50,1.54,-1.29,
3.264,-2.75,-3.62,5.40,-3.50,1.54,-1.29,
3.265,-2.75,-3.62,5.40,-3.40,1.41,-1.26,
3.265,-2.75,-3.62,5.40,-3.30,1.30,-1.23,
3.265,-2.75,-3.62,5.40,-3.20,1.19,-1.18,
3.266,-2.75,-3.62,5.40,-3.11,1.09,-1.13,
3.266,-2.75,-3.62,5.40,-3.03,0.99,-1.07,
3.269,-4.72,-3.61,6.18,-3.03,0.99,-1.07,
3.27,-4.72,-3.61,6.18,-2.95,0.91,-1.00,
3.271,-4.72,-3.61,6.18,-2.87,0.83,-0.94,
3.273,-4.72,-3.61,6.18,-2.80,0.75,-0.88,
3.275,-4.72,-3.61,6.18,-2.73,0.69,-0.82,
3.276,-4.72,-3.61,6.18,-2.67,0.63,-0.75,
3.279,-5.62,-4.00,5.62,-2.67,0.63,-0.75,
3.279,-5.62,-4.00,5.62,-2.62,0.58,-0.69,
3.281,-5.62,-4.00,5.62,-2.57,0.53,-0.64,
3.283,-5.62,-4.00,5.62,-2.53,0.48,-0.58,
3.284,-5.62,-4.00,5.62,-2.49,0.44,-0.53,
3.305,-5.62,-4.00,5.62,-2.46,0.41,-0.48,
3.306,-5.67,-4.82,4.82,-2.46,0.41,-0.48,
3.307,-5.67,-4.82,4.82,-2.44,0.37,-0.44,
3.308,-5.67,-4.82,4.82,-2.42,0.34,-0.40,
3.308,-5.67,-4.82,4.82,-2.40,0.30,-0.35,
3.309,-5.67,-4.82,4.82,-2.39,0.28,-0.31,
3.309,-5.67,-4.82,4.82,-2.38,0.26,-0.27,
3.31,-5.45,-5.59,4.13,-2.38,0.26,-0.27,
3.311,-5.45,-5.59,4.13,-2.38,0.26,-0.23,
3.311,-5.45,-5.59,4.13,-2.37,0.25,-0.20,
3.312,-5.45,-5.59,4.13,-2.37,0.26,-0.16,
3.312,-5.45,-5.59,4.13,-2.36,0.27,-0.12,
3.312,-5.45,-5.59,4.13,-2.36,0.28,-0.08,
3.312,-5.27,-6.30,3.95,-2.36,0.28,-0.08,
3.315,-5.27,-6.30,3.95,-2.36,0.30,-0.05,
3.316,-5.27,-6.30,3.95,-2.35,0.32,-0.01,
3.316,-5.27,-6.30,3.95,-2.36,0.35,0.02,
3.316,-5.27,-6.30,3.95,-2.36,0.38,0.04,
3.317,-5.27,-6.30,3.95,-2.36,0.41,0.07,
3.32,-4.69,-6.61,3.82,-2.36,0.41,0.07,
3.333,-4.69,-6.61,3.82,-2.36,0.45,0.09,
3.336,-4.69,-6.61,3.82,-2.36,0.49,0.11,
3.336,-4.69,-6.61,3.82,-2.36,0.53,0.13,
3.339,-4.69,-6.61,3.82,-2.35,0.57,0.14,
3.34,-4.69,-6.61,3.82,-2.35,0.61,0.15,
3.342,-3.92,-6.46,4.08,-2.35,0.61,0.15,
3.343,-3.92,-6.46,4.08,-2.34,0.64,0.15,
3.344,-3.92,-6.46,4.08,-2.33,0.67,0.15,
3.345,-3.92,-6.46,4.08,-2.31,0.71,0.14,
3.345,-3.92,-6.46,4.08,-2.29,0.74,0.13,
3.346,-3.92,-6.46,4.08,-2.27,0.76,0.12,
3.346,-2.95,-6.06,4.50,-2.27,0.76,0.12,
3.347,-2.95,-6.06,4.50,-2.24,0.79,0.10,
3.348,-2.95,-6.06,4.50,-2.22,0.81,0.08,
3.348,-2.95,-6.06,4.50,-2.19,0.82,0.07,
3.349,-2.95,-6.06,4.50,-2.16,0.84,0.04,
3.349,-2.95,-6.06,4.50,-2.12,0.85,0.02,
3.35,-2.37,-5.56,5.21,-2.12,0.85,0.02,
3.351,-2.37,-5.56,5.21,-2.08,0.87,0.00,
3.352,-2.37,-5.56,5.21,-2.02,0.88,-0.03,
3.355,-2.37,-5.56,5.21,-1.98,0.89,-0.06,
3.359,-2.37,-5.56,5.21,-1.96,0.89,-0.07,
3.36,-2.37,-5.56,5.21,-1.92,0.89,-0.10,
3.364,-1.97,-4.72,5.55,-1.92,0.89,-0.10,
3.37,-1.97,-4.72,5.55,-1.88,0.88,-0.13,
3.374,-1.97,-4.72,5.55,-1.84,0.87,-0.16,
3.375,-1.97,-4.72,5.55,-1.80,0.86,-0.18,
3.375,-1.97,-4.72,5.55,-1.76,0.85,-0.21,
3.376,-1.97,-4.72,5.55,-1.72,0.83,-0.24,
3.376,-1.61,-3.77,5.53,-1.72,0.83,-0.24,
3.376,-1.61,-3.77,5.53,-1.68,0.82,-0.27,
3.377,-1.61,-3.77,5.53,-1.64,0.80,-0.30,
3.377,-1.61,-3.77,5.53,-1.60,0.79,-0.32,
3.377,-1.61,-3.77,5.53,-1.57,0.79,-0.35,
3.377,-1.61,-3.77,5.53,-1.53,0.78,-0.37,
3.38,-1.37,-2.76,4.70,-1.53,0.78,-0.37,
3.38,-1.37,-2.76,4.70,-1.53,0.75,-0.39,
3.38,-1.37,-2.76,4.70,-1.59,0.72,-0.40,
3.384,-1.37,-2.76,4.70,-1.69,0.70,-0.40,
3.387,-1.37,-2.76,4.70,-1.80,0.67,-0.40,
3.387,-1.37,-2.76,4.70,-1.93,0.65,-0.39,
3.39,-2.00,-2.16,-1.25,-1.93,0.65,-0.39,
3.39,-2.00,-2.16,-1.25,-2.07,0.64,-0.38,
3.392,-2.00,-2.16,-1.25,-2.21,0.63,-0.38,
3.393,-2.00,-2.16,-1.25,-2.36,0.63,-0.37,
3.394,-2.00,-2.16,-1.25,-2.50,0.65,-0.36,
3.396,-2.00,-2.16,-1.25,-2.64,0.66,-0.35,
3.428,-1.70,-1.19,-3.21,-2.64,0.66,-0.35,
3.428,-1.70,-1.19,-3.21,-2.76,0.68,-0.34,
3.428,-1.70,-1.19,-3.21,-2.87,0.71,-0.34,
3.43,-1.70,-1.19,-3.21,-2.97,0.74,-0.34,
3.431,-1.70,-1.19,-3.21,-3.05,0.77,-0.33,
3.432,-1.70,-1.19,-3.21,-3.12,0.81,-0.33,
3.433,-1.09,-0.25,-1.70,-3.12,0.81,-0.33,
3.433,-1.09,-0.25,-1.70,-3.17,0.86,-0.33,
3.435,-1.09,-0.25,-1.70,-3.20,0.93,-0.33,
3.435,-1.09,-0.25,-1.70,-3.22,0.99,-0.34,
3.436,-1.09,-0.25,-1.70,-3.23,1.07,-0.34,
3.437,-1.09,-0.25,-1.70,-3.22,1.16,-0.34,
3.438,-0.51,0.47,0.61,-3.22,1.16,-0.34,
3.441,-0.51,0.47,0.61,-3.19,1.24,-0.34,
3.441,-0.51,0.47,0.61,-3.16,1.34,-0.34,
3.442,-0.51,0.47,0.61,-3.11,1.44,-0.35,
3.442,-0.51,0.47,0.61,-3.05,1.55,-0.36,
3.443,-0.51,0.47,0.61,-2.99,1.65,-0.37,
3.443,-0.00,1.06,2.79,-2.99,1.65,-0.37,
3.444,-0.00,1.06,2.79,-2.91,1.76,-0.37,
3.444,-0.00,1.06,2.79,-2.83,1.87,-0.38,
3.444,-0.00,1.06,2.79,-2.74,1.98,-0.39,
3.445,-0.00,1.06,2.79,-2.64,2.09,-0.40,
3.445,-0.00,1.06,2.79,-2.54,2.20,-0.42,
3.446,0.30,1.71,4.31,-2.54,2.20,-0.42,
3.446,0.30,1.71,4.31,-2.44,2.30,-0.43,
3.446,0.30,1.71,4.31,-2.34,2.39,-0.44,
3.447,0.30,1.71,4.31,-2.24,2.47,-0.46,
3.447,0.30,1.71,4.31,-2.13,2.54,-0.47,
3.448,0.30,1.71,4.31,-2.03,2.60,-0.49,
3.45,0.49,2.38,5.48,-2.03,2.60,-0.49,
3.451,0.49,2.38,5.48,-1.92,2.66,-0.50,
3.451,0.49,2.38,5.48,-1.83,2.70,-0.52,
3.456,0.49,2.38,5.48,-1.73,2.74,-0.53,
3.457,0.49,2.38,5.48,-1.64,2.77,-0.55,
3.458,0.49,2.38,5.48,-1.55,2.79,-0.56,
3.459,0.45,3.09,5.83,-1.55,2.79,-0.56,
3.459,0.45,3.09,5.83,-1.46,2.81,-0.58,
3.461,0.45,3.09,5.83,-1.38,2.82,-0.60,
3.462,0.45,3.09,5.83,-1.29,2.84,-0.61,
3.464,0.45,3.09,5.83,-1.20,2.85,-0.63,
3.466,0.45,3.09,5.83,-1.12,2.86,-0.65,
3.478,0.37,3.60,6.57,-1.12,2.86,-0.65,
3.479,0.37,3.60,6.57,-1.04,2.87,-0.66,
3.479,0.37,3.60,6.57,-0.96,2.88,-0.68,
3.479,0.37,3.60,6.57,-0.88,2.88,-0.70,
3.48,0.37,3.60,6.57,-0.80,2.88,-0.71,
3.48,0.37,3.60,6.57,-0.73,2.88,-0.73,
3.481,0.26,4.14,6.81,-0.73,2.88,-0.73,
3.481,0.26,4.14,6.81,-0.65,2.87,-0.75,
3.484,0.26,4.14,6.81,-0.59,2.87,-0.76,
3.485,0.26,4.14,6.81,-0.53,2.86,-0.78,
3.485,0.26,4.14,6.81,-0.47,2.84,-0.79,
3.499,0.26,4.14,6.81,-0.42,2.82,-0.80,
3.5,0.13,4.62,6.99,-0.42,2.82,-0.80,
3.5,0.13,4.62,6.99,-0.38,2.79,-0.81,
3.501,0.13,4.62,6.99,-0.34,2.77,-0.81,
3.501,0.13,4.62,6.99,-0.31,2.73,-0.82,
3.501,0.13,4.62,6.99,-0.29,2.70,-0.82,
3.502,0.13,4.62,6.99,-0.27,2.67,-0.82,
3.502,-0.18,5.06,6.46,-0.27,2.67,-0.82,
3.503,-0.18,5.06,6.46,-0.26,2.63,-0.81,
3.503,-0.18,5.06,6.46,-0.25,2.60,-0.81,
3.503,-0.18,5.06,6.46,-0.25,2.56,-0.80,
3.511,-0.18,5.06,6.46,-0.25,2.52,-0.79,
3.512,-0.18,5.06,6.46,-0.26,2.48,-0.78,
3.512,-0.53,5.22,6.30,-0.26,2.48,-0.78,
3.512,-0.53,5.22,6.30,-0.27,2.44,-0.76,
3.512,-0.53,5.22,6.30,-0.28,2.40,-0.75,
3.513,-0.53,5.22,6.30,-0.30,2.36,-0.73,
3.514,-0.53,5.22,6.30,-0.31,2.31,-0.71,
3.517,-0.53,5.22,6.30,-0.33,2.27,-0.69,
3.521,-0.84,5.32,5.94,-0.33,2.27,-0.69,
3.522,-0.84,5.32,5.94,-0.35,2.23,-0.67,
3.522,-0.84,5.32,5.94,-0.37,2.19,-0.65,
3.522,-0.84,5.32,5.94,-0.38,2.14,-0.62,
3.525,-0.84,5.32,5.94,-0.40,2.08,-0.60,
3.526,-0.84,5.32,5.94,-0.42,2.02,-0.57,
3.529,-1.05,5.30,6.25,-0.42,2.02,-0.57,
3.529,-1.05,5.30,6.25,-0.44,1.96,-0.55,
3.531,-1.05,5.30,6.25,-0.45,1.89,-0.52,
3.533,-1.05,5.30,6.25,-0.47,1.82,-0.49,
3.534,-1.05,5.30,6.25,-0.48,1.74,-0.46,
3.536,-1.05,5.30,6.25,-0.49,1.67,-0.42,
3.54,-1.25,5.29,6.34,-0.49,1.67,-0.42,
3.543,-1.25,5.29,6.34,-0.50,1.60,-0.39,
3.544,-1.25,5.29,6.34,-0.50,1.53,-0.36,
3.544,-1.25,5.29,6.34,-0.51,1.46,-0.32,
3.548,-1.25,5.29,6.34,-0.50,1.39,-0.29,
3.549,-1.25,5.29,6.34,-0.50,1.33,-0.25,
3.549,-1.36,5.21,6.80,-0.50,1.33,-0.25,
3.55,-1.36,5.21,6.80,-0.49,1.27,-0.22,
3.551,-1.36,5.21,6.80,-0.47,1.21,-0.18,
3.567,-1.36,5.21,6.80,-0.45,1.16,-0.15,
3.568,-1.36,5.21,6.80,-0.43,1.11,-0.12,
3.569,-1.36,5.21,6.80,-0.39,1.06,-0.09,
3.569,-1.35,5.08,6.90,-0.39,1.06,-0.09,
3.569,-1.35,5.08,6.90,-0.36,1.01,-0.05,
3.57,-1.35,5.08,6.90,-0.32,0.97,-0.02,
3.57,-1.35,5.08,6.90,-0.28,0.93,0.01,
3.597,-1.35,5.08,6.90,-0.23,0.89,0.04,
3.597,-1.35,5.08,6.90,-0.17,0.85,0.07,
3.597,-1.21,4.86,7.18,-0.17,0.85,0.07,
3.598,-1.21,4.86,7.18,-0.12,0.81,0.10,
3.598,-1.21,4.86,7.18,-0.06,0.77,0.13,
3.598,-1.21,4.86,7.18,0.00,0.74,0.16,
3.599,-1.21,4.86,7.18,0.07,0.70,0.18,
3.599,-1.21,4.86,7.18,0.14,0.66,0.21,
3.599,-1.04,4.78,6.83,0.14,0.66,0.21,
3.599,-1.04,4.78,6.83,0.21,0.62,0.24,
3.599,-1.04,4.78,6.83,0.27,0.59,0.27,
3.6,-1.04,4.78,6.83,0.35,0.55,0.30,
3.6,-1.04,4.78,6.83,0.42,0.52,0.33,
3.6,-1.04,4.78,6.83,0.50,0.48,0.35,
3.6,-0.82,4.73,6.57,0.50,0.48,0.35,
3.601,-0.82,4.73,6.57,0.57,0.44,0.38,
3.601,-0.82,4.73,6.57,0.65,0.41,0.41,
3.601,-0.82,4.73,6.57,0.72,0.37,0.44,
3.601,-0.82,4.73,6.57,0.80,0.34,0.46,
3.602,-0.82,4.73,6.57,0.87,0.30,0.49,
3.602,-0.68,4.76,5.68,0.87,0.30,0.49,
3.602,-0.68,4.76,5.68,0.95,0.28,0.52,
3.602,-0.68,4.76,5.68,1.02,0.28,0.55,
3.602,-0.68,4.76,5.68,1.10,0.29,0.58,
3.607,-0.68,4.76,5.68,1.18,0.28,0.61,
3.608,-0.68,4.76,5.68,1.24,0.26,0.63,
3.609,-0.58,4.77,4.88,1.24,0.26,0.63,
3.612,-0.58,4.77,4.88,1.31,0.24,0.67,
3.612,-0.58,4.77,4.88,1.38,0.23,0.70,
3.613,-0.58,4.77,4.88,1.44,0.22,0.73,
3.614,-0.58,4.77,4.88,1.50,0.21,0.76,
3.616,-0.58,4.77,4.88,1.57,0.20,0.80,
3.619,-0.50,4.57,3.50,1.57,0.20,0.80,
3.619,-0.50,4.57,3.50,1.63,0.18,0.83,
3.621,-0.50,4.57,3.50,1.69,0.17,0.87,
3.625,-0.50,4.57,3.50,1.82,0.13,0.95,
3.625,-0.50,4.57,3.50,1.82,0.13,0.95,
3.626,-0.50,4.57,3.50,1.89,0.10,1.00,
3.628,-0.30,4.34,1.82,1.89,0.10,1.00,
3.629,-0.30,4.34,1.82,1.97,0.07,1.04,
3.63,-0.30,4.34,1.82,2.06,0.04,1.08,
3.632,-0.30,4.34,1.82,2.15,0.01,1.12,
3.635,-0.30,4.34,1.82,2.25,-0.03,1.17,
3.637,-0.30,4.34,1.82,2.35,-0.08,1.21,
3.64,-0.33,3.32,-0.23,2.35,-0.08,1.21,
3.64,-0.33,3.32,-0.23,2.45,-0.14,1.26,
3.64,-0.33,3.32,-0.23,2.56,-0.21,1.30,
3.642,-0.33,3.32,-0.23,2.66,-0.30,1.34,
3.644,-0.33,3.32,-0.23,2.75,-0.41,1.38,
3.646,-0.33,3.32,-0.23,2.84,-0.53,1.42,
3.649,-0.24,1.37,-3.65,2.84,-0.53,1.42,
3.65,-0.24,1.37,-3.65,2.93,-0.67,1.45,
3.652,-0.24,1.37,-3.65,3.00,-0.83,1.48,
3.653,-0.24,1.37,-3.65,3.05,-1.00,1.51,
3.655,-0.24,1.37,-3.65,3.07,-1.17,1.52,
3.657,-0.24,1.37,-3.65,3.06,-1.33,1.52,
3.659,0.97,-1.50,-10.20,3.06,-1.33,1.52,
3.66,0.97,-1.50,-10.20,3.01,-1.46,1.51,
3.66,0.97,-1.50,-10.20,2.91,-1.56,1.48,
3.663,0.97,-1.50,-10.20,2.76,-1.63,1.44,
3.665,0.97,-1.50,-10.20,2.58,-1.65,1.39,
3.667,0.97,-1.50,-10.20,2.35,-1.63,1.32,
3.67,3.81,-5.13,-21.90,2.35,-1.63,1.32,
3.672,3.81,-5.13,-21.90,2.08,-1.58,1.25,
3.672,3.81,-5.13,-21.90,1.77,-1.48,1.17,
3.673,3.81,-5.13,-21.90,1.44,-1.35,1.08,
3.675,3.81,-5.13,-21.90,1.07,-1.16,0.98,
3.676,3.81,-5.13,-21.90,0.68,-0.92,0.89,
3.679,6.44,-9.09,-31.80,0.68,-0.92,0.89,
3.68,6.44,-9.09,-31.80,0.29,-0.64,0.78,
3.681,6.44,-9.09,-31.80,-0.11,-0.32,0.67,
3.682,6.44,-9.09,-31.80,-0.51,0.03,0.55,
3.685,6.44,-9.09,-31.80,-0.89,0.38,0.43,
3.688,6.44,-9.09,-31.80,-1.24,0.70,0.31,
3.689,8.52,-12.99,-33.51,-1.24,0.70,0.31,
3.69,8.52,-12.99,-33.51,-1.54,0.97,0.19,
3.691,8.52,-12.99,-33.51,-1.76,1.18,0.10,
3.692,8.52,-12.99,-33.51,-1.90,1.35,0.01,
3.694,8.52,-12.99,-33.51,-1.99,1.47,-0.06,
3.696,8.52,-12.99,-33.51,-2.01,1.56,-0.13,
3.699,7.59,-9.61,-21.16,-2.01,1.56,-0.13,
3.7,7.59,-9.61,-21.16,-2.00,1.62,-0.20,
3.711,7.59,-9.61,-21.16,-1.91,1.68,-0.29,
3.713,7.59,-9.61,-21.16,-1.85,1.71,-0.35,
3.713,7.59,-9.61,-21.16,-1.81,1.72,-0.37,
3.714,7.59,-9.61,-21.16,-1.71,1.73,-0.42,
3.714,6.48,-9.22,-11.78,-1.71,1.73,-0.42,
3.715,6.48,-9.22,-11.78,-1.62,1.73,-0.45,
3.716,6.48,-9.22,-11.78,-1.51,1.73,-0.48,
3.717,6.48,-9.22,-11.78,-1.40,1.71,-0.50,
3.717,6.48,-9.22,-11.78,-1.29,1.69,-0.51,
3.718,6.48,-9.22,-11.78,-1.19,1.66,-0.52,
3.737,5.40,-6.39,-7.23,-1.19,1.66,-0.52,
3.739,5.40,-6.39,-7.23,-1.08,1.63,-0.51,
3.74,5.40,-6.39,-7.23,-0.98,1.59,-0.50,
3.74,5.40,-6.39,-7.23,-0.82,1.51,-0.47,
3.74,5.40,-6.39,-7.23,-0.77,1.48,-0.46,
3.741,5.40,-6.39,-7.23,-0.67,1.42,-0.43,
3.741,4.43,-2.08,-4.77,-0.67,1.42,-0.43,
3.742,4.43,-2.08,-4.77,-0.57,1.35,-0.40,
3.777,4.43,-2.08,-4.77,-0.48,1.28,-0.37,
3.777,4.43,-2.08,-4.77,-0.39,1.21,-0.34,
3.778,4.43,-2.08,-4.77,-0.31,1.12,-0.31,
3.778,4.43,-2.08,-4.77,-0.24,1.03,-0.28,
3.778,3.73,1.22,-2.80,-0.24,1.03,-0.28,
3.779,3.73,1.22,-2.80,-0.18,0.93,-0.25,
3.779,3.73,1.22,-2.80,-0.13,0.81,-0.23,
3.779,3.73,1.22,-2.80,-0.08,0.69,-0.22,
3.779,3.73,1.22,-2.80,-0.03,0.58,-0.22,
3.78,3.73,1.22,-2.80,0.01,0.47,-0.22,
3.78,4.37,2.25,-1.97,0.01,0.47,-0.22,
3.78,4.37,2.25,-1.97,0.05,0.37,-0.23,
3.78,4.37,2.25,-1.97,0.09,0.30,-0.24,
3.781,4.37,2.25,-1.97,0.15,0.25,-0.26,
3.781,4.37,2.25,-1.97,0.21,0.23,-0.28,
3.781,4.37,2.25,-1.97,0.27,0.23,-0.31,
3.781,4.27,1.37,-1.02,0.27,0.23,-0.31,
3.782,4.27,1.37,-1.02,0.35,0.24,-0.34,
3.782,4.27,1.37,-1.02,0.43,0.26,-0.37,
3.782,4.27,1.37,-1.02,0.51,0.27,-0.41,
3.783,4.27,1.37,-1.02,0.60,0.27,-0.45,
3.783,4.27,1.37,-1.02,0.70,0.24,-0.49,
3.783,3.35,0.01,1.53,0.70,0.24,-0.49,
3.783,3.35,0.01,1.53,0.80,0.17,-0.53,
3.784,3.35,0.01,1.53,0.91,0.06,-0.56,
3.784,3.35,0.01,1.53,1.09,-0.17,-0.61,
3.784,3.35,0.01,1.53,1.16,-0.27,-0.62,
3.784,3.35,0.01,1.53,1.29,-0.50,-0.66,
3.785,2.22,-1.54,6.09,1.29,-0.50,-0.66,
3.785,2.22,-1.54,6.09,1.42,-0.74,-0.69,
3.785,2.22,-1.54,6.09,1.54,-1.00,-0.73,
3.785,2.22,-1.54,6.09,1.72,-1.41,-0.80,
3.786,2.22,-1.54,6.09,1.76,-1.55,-0.82,
3.788,2.22,-1.54,6.09,1.85,-1.82,-0.87,
3.79,2.55,-3.32,8.68,1.85,-1.82,-0.87,
3.791,2.55,-3.32,8.68,1.92,-2.10,-0.92,
3.791,2.55,-3.32,8.68,1.98,-2.38,-0.97,
3.792,2.55,-3.32,8.68,2.01,-2.79,-1.03,
3.795,2.55,-3.32,8.68,2.01,-2.92,-1.05,
3.796,2.55,-3.32,8.68,1.99,-3.19,-1.08,
3.799,1.90,-4.26,7.90,1.99,-3.19,-1.08,
3.799,1.90,-4.26,7.90,1.95,-3.46,-1.10,
3.801,1.90,-4.26,7.90,1.89,-3.72,-1.12,
3.803,1.90,-4.26,7.90,1.78,-4.11,-1.15,
3.805,1.90,-4.26,7.90,1.73,-4.23,-1.15,
3.806,1.90,-4.26,7.90,1.64,-4.47,-1.15,
3.809,0.85,-3.58,6.02,1.64,-4.47,-1.15,
3.809,0.85,-3.58,6.02,1.49,-4.81,-1.14,
3.81,0.85,-3.58,6.02,1.43,-4.91,-1.13,
3.812,0.85,-3.58,6.02,1.27,-5.17,-1.11,
3.815,0.85,-3.58,6.02,1.22,-5.25,-1.10,
3.818,0.85,-3.58,6.02,1.13,-5.38,-1.07,
3.82,-0.31,-2.18,4.57,1.13,-5.38,-1.07,
3.82,-0.31,-2.18,4.57,1.00,-5.52,-1.01,
3.82,-0.31,-2.18,4.57,0.92,-5.58,-0.96,
3.823,-0.31,-2.18,4.57,0.85,-5.60,-0.91,
3.824,-0.31,-2.18,4.57,0.82,-5.61,-0.89,
3.826,-0.31,-2.18,4.57,0.76,-5.60,-0.82,
3.829,-1.56,-0.23,4.28,0.76,-5.60,-0.82,
3.83,-1.56,-0.23,4.28,0.70,-5.54,-0.73,
3.831,-1.56,-0.23,4.28,0.68,-5.51,-0.70,
3.833,-1.56,-0.23,4.28,0.66,-5.38,-0.60,
3.836,-1.56,-0.23,4.28,0.66,-5.26,-0.53,
3.838,-1.56,-0.23,4.28,0.68,-5.07,-0.46,
3.843,-2.12,0.84,4.42,0.68,-5.07,-0.46,
3.845,-2.12,0.84,4.42,0.72,-4.87,-0.39,
3.845,-2.12,0.84,4.42,0.76,-4.69,-0.31,
3.846,-2.12,0.84,4.42,0.80,-4.51,-0.24,
3.846,-2.12,0.84,4.42,0.85,-4.31,-0.18,
3.847,-2.12,0.84,4.42,0.92,-4.06,-0.11,
3.849,-2.09,1.51,5.24,0.92,-4.06,-0.11,
3.85,-2.09,1.51,5.24,0.99,-3.80,-0.06,
3.867,-2.09,1.51,5.24,1.07,-3.53,-0.00,
3.868,-2.09,1.51,5.24,1.16,-3.25,0.05,
3.868,-2.09,1.51,5.24,1.25,-2.96,0.10,
3.868,-2.09,1.51,5.24,1.34,-2.66,0.15,
3.869,-1.85,2.72,5.65,1.34,-2.66,0.15,
3.869,-1.85,2.72,5.65,1.44,-2.37,0.20,
3.869,-1.85,2.72,5.65,1.53,-2.08,0.24,
3.869,-1.85,2.72,5.65,1.62,-1.80,0.28,
3.869,-1.85,2.72,5.65,1.72,-1.54,0.32,
3.87,-1.85,2.72,5.65,1.81,-1.28,0.36,
3.87,-1.63,3.32,5.77,1.81,-1.28,0.36,
3.87,-1.63,3.32,5.77,1.90,-1.04,0.40,
3.873,-1.63,3.32,5.77,1.99,-0.82,0.44,
3.878,-1.63,3.32,5.77,2.08,-0.62,0.49,
3.879,-1.63,3.32,5.77,2.15,-0.44,0.53,
3.879,-1.63,3.32,5.77,2.22,-0.29,0.58,
3.879,-1.64,2.74,5.30,2.22,-0.29,0.58,
3.879,-1.64,2.74,5.30,2.28,-0.17,0.63,
3.881,-1.64,2.74,5.30,2.34,-0.07,0.68,
3.883,-1.64,2.74,5.30,2.39,0.02,0.72,
3.891,-1.64,2.74,5.30,2.43,0.10,0.76,
3.891,-1.64,2.74,5.30,2.46,0.16,0.80,
3.891,-2.12,1.30,4.53,2.46,0.16,0.80,
3.892,-2.12,1.30,4.53,2.48,0.21,0.85,
3.892,-2.12,1.30,4.53,2.50,0.25,0.89,
3.893,-2.12,1.30,4.53,2.51,0.27,0.93,
3.894,-2.12,1.30,4.53,2.51,0.29,0.97,
3.896,-2.12,1.30,4.53,2.50,0.30,1.01,
3.934,-2.18,-0.03,3.52,2.50,0.30,1.01,
3.935,-2.18,-0.03,3.52,2.49,0.30,1.05,
3.935,-2.18,-0.03,3.52,2.46,0.31,1.08,
3.935,-2.18,-0.03,3.52,2.43,0.31,1.12,
3.935,-2.18,-0.03,3.52,2.39,0.30,1.16,
3.936,-2.18,-0.03,3.52,2.34,0.30,1.19,
3.936,-2.28,-1.62,2.59,2.34,0.30,1.19,
3.936,-2.28,-1.62,2.59,2.29,0.28,1.23,
3.936,-2.28,-1.62,2.59,2.23,0.27,1.26,
3.937,-2.28,-1.62,2.59,2.16,0.25,1.29,
3.937,-2.28,-1.62,2.59,2.08,0.24,1.32,
3.937,-2.28,-1.62,2.59,2.00,0.23,1.34,
3.938,-2.30,-3.35,1.68,2.00,0.23,1.34,
3.938,-2.30,-3.35,1.68,1.92,0.21,1.37,
3.938,-2.30,-3.35,1.68,1.83,0.21,1.39,
3.938,-2.30,-3.35,1.68,1.74,0.21,1.41,
3.939,-2.30,-3.35,1.68,1.66,0.21,1.42,
3.939,-2.30,-3.35,1.68,1.57,0.23,1.44,
3.939,-2.77,-4.47,1.08,1.57,0.23,1.44,
3.939,-2.77,-4.47,1.08,1.47,0.24,1.45,
3.94,-2.77,-4.47,1.08,1.39,0.27,1.46,
3.94,-2.77,-4.47,1.08,1.31,0.30,1.48,
3.94,-2.77,-4.47,1.08,1.22,0.33,1.49,
3.94,-2.77,-4.47,1.08,1.15,0.37,1.50,
3.941,-3.65,-4.74,0.72,1.15,0.37,1.50,
3.941,-3.65,-4.74,0.72,1.08,0.41,1.51,
3.941,-3.65,-4.74,0.72,1.01,0.45,1.51,
3.946,-3.65,-4.74,0.72,0.95,0.49,1.52,
3.947,-3.65,-4.74,0.72,0.89,0.53,1.53,
3.947,-3.65,-4.74,0.72,0.84,0.58,1.52,
3.949,-4.28,-4.00,0.61,0.84,0.58,1.52,
3.949,-4.28,-4.00,0.61,0.79,0.63,1.51,
3.953,-4.28,-4.00,0.61,0.75,0.67,1.50,
3.954,-4.28,-4.00,0.61,0.72,0.72,1.49,
3.957,-4.28,-4.00,0.61,0.68,0.76,1.48,
3.957,-4.28,-4.00,0.61,0.65,0.80,1.47,
3.959,-4.26,-3.10,0.35,0.65,0.80,1.47,
3.96,-4.26,-3.10,0.35,0.63,0.84,1.46,
3.961,-4.26,-3.10,0.35,0.60,0.88,1.46,
3.965,-4.26,-3.10,0.35,0.58,0.92,1.45,
3.965,-4.26,-3.10,0.35,0.55,0.96,1.44,
3.967,-4.26,-3.10,0.35,0.53,0.99,1.43,
3.969,-4.33,-2.09,-0.14,0.53,0.99,1.43,
3.969,-4.33,-2.09,-0.14,0.52,1.01,1.42,
3.971,-4.33,-2.09,-0.14,0.50,1.04,1.41,
3.973,-4.33,-2.09,-0.14,0.48,1.05,1.40,
3.975,-4.33,-2.09,-0.14,0.47,1.06,1.39,
3.977,-4.33,-2.09,-0.14,0.45,1.07,1.37,
3.981,-3.85,-0.96,-0.63,0.45,1.07,1.37,
3.981,-3.85,-0.96,-0.63,0.43,1.06,1.36,
3.982,-3.85,-0.96,-0.63,0.42,1.04,1.35,
3.982,-3.85,-0.96,-0.63,0.41,0.95,1.34,
3.987,-3.85,-0.96,-0.63,0.37,0.50,1.31,
3.988,-3.85,-0.96,-0.63,0.30,-0.18,1.26,
3.989,-3.50,1.27,-4.50,0.30,-0.18,1.26,
3.99,-3.50,1.27,-4.50,0.29,-0.79,1.23,
3.99,-3.50,1.27,-4.50,0.31,-1.34,1.20,
3.993,-3.50,1.27,-4.50,0.34,-1.85,1.15,
3.995,-3.50,1.27,-4.50,0.39,-2.33,1.09,
3.998,-3.50,1.27,-4.50,0.45,-2.77,1.04,
4.01,-2.59,1.77,-5.36,0.45,-2.77,1.04,
4.012,-2.59,1.77,-5.36,0.52,-3.15,0.99,
4.013,-2.59,1.77,-5.36,0.61,-3.49,0.95,
4.013,-2.59,1.77,-5.36,0.70,-3.78,0.91,
4.014,-2.59,1.77,-5.36,0.80,-4.03,0.88,
4.015,-2.59,1.77,-5.36,0.91,-4.23,0.85,
4.015,-2.19,1.79,-4.38,0.91,-4.23,0.85,
4.016,-2.19,1.79,-4.38,1.02,-4.39,0.83,
4.016,-2.19,1.79,-4.38,1.14,-4.52,0.82,
4.016,-2.19,1.79,-4.38,1.25,-4.62,0.81,
4.017,-2.19,1.79,-4.38,1.36,-4.69,0.80,
4.02,-2.19,1.79,-4.38,1.47,-4.74,0.79,
4.02,-1.97,1.51,-4.00,1.47,-4.74,0.79,
4.021,-1.97,1.51,-4.00,1.57,-4.77,0.78,
4.021,-1.97,1.51,-4.00,1.66,-4.78,0.77,
4.023,-1.97,1.51,-4.00,1.75,-4.78,0.76,
4.024,-1.97,1.51,-4.00,1.82,-4.76,0.75,
4.027,-1.97,1.51,-4.00,1.89,-4.74,0.74,
4.028,-1.44,1.13,-4.78,1.89,-4.74,0.74,
4.029,-1.44,1.13,-4.78,1.96,-4.69,0.73,
4.03,-1.44,1.13,-4.78,2.02,-4.64,0.72,
4.034,-1.44,1.13,-4.78,2.06,-4.57,0.72,
4.036,-1.44,1.13,-4.78,2.10,-4.50,0.71,
4.036,-1.44,1.13,-4.78,2.13,-4.41,0.70,
4.041,-0.82,0.86,-5.61,2.13,-4.41,0.70,
4.042,-0.82,0.86,-5.61,2.15,-4.31,0.69,
4.043,-0.82,0.86,-5.61,2.16,-4.21,0.68,
4.043,-0.82,0.86,-5.61,2.17,-4.10,0.67,
4.044,-0.82,0.86,-5.61,2.16,-3.97,0.66,
4.046,-0.82,0.86,-5.61,2.14,-3.84,0.64,
4.051,-0.29,0.39,-6.82,2.14,-3.84,0.64,
4.053,-0.29,0.39,-6.82,2.12,-3.71,0.62,
4.054,-0.29,0.39,-6.82,2.08,-3.57,0.60,
4.055,-0.29,0.39,-6.82,2.04,-3.42,0.57,
4.056,-0.29,0.39,-6.82,1.99,-3.27,0.55,
4.057,-0.29,0.39,-6.82,1.93,-3.11,0.52,
4.059,0.14,-0.03,-7.55,1.93,-3.11,0.52,
4.06,0.14,-0.03,-7.55,1.87,-2.95,0.49,
4.061,0.14,-0.03,-7.55,1.80,-2.79,0.45,
4.065,0.14,-0.03,-7.55,1.73,-2.62,0.41,
4.088,0.14,-0.03,-7.55,1.65,-2.46,0.38,
4.088,0.14,-0.03,-7.55,1.57,-2.29,0.34,
4.089,0.55,-0.49,-7.83,1.57,-2.29,0.34,
4.089,0.55,-0.49,-7.83,1.48,-2.12,0.29,
4.089,0.55,-0.49,-7.83,1.40,-1.94,0.25,
4.089,0.55,-0.49,-7.83,1.32,-1.77,0.20,
4.09,0.55,-0.49,-7.83,1.23,-1.60,0.15,
4.09,0.55,-0.49,-7.83,1.15,-1.43,0.10,
4.09,0.73,-0.69,-7.04,1.15,-1.43,0.10,
4.091,0.73,-0.69,-7.04,1.07,-1.27,0.05,
4.091,0.73,-0.69,-7.04,0.99,-1.12,0.01,
4.091,0.73,-0.69,-7.04,0.91,-0.97,-0.03,
4.091,0.73,-0.69,-7.04,0.83,-0.83,-0.07,
4.092,0.73,-0.69,-7.04,0.75,-0.70,-0.11,
4.092,0.70,-0.82,-6.00,0.75,-0.70,-0.11,
4.092,0.70,-0.82,-6.00,0.69,-0.57,-0.14,
4.092,0.70,-0.82,-6.00,0.62,-0.45,-0.16,
4.093,0.70,-0.82,-6.00,0.57,-0.34,-0.19,
4.097,0.70,-0.82,-6.00,0.51,-0.23,-0.21,
4.098,0.70,-0.82,-6.00,0.46,-0.13,-0.22,
4.107,0.18,-0.71,-4.62,0.46,-0.13,-0.22,
4.108,0.18,-0.71,-4.62,0.42,-0.04,-0.24,
4.109,0.18,-0.71,-4.62,0.39,0.05,-0.26,
4.109,0.18,-0.71,-4.62,0.36,0.13,-0.27,
4.109,0.18,-0.71,-4.62,0.34,0.21,-0.29,
4.109,0.18,-0.71,-4.62,0.32,0.28,-0.31,
4.11,-0.18,-0.53,-3.37,0.32,0.28,-0.31,
4.11,-0.18,-0.53,-3.37,0.30,0.34,-0.33,
4.113,-0.18,-0.53,-3.37,0.30,0.40,-0.35,
4.113,-0.18,-0.53,-3.37,0.30,0.45,-0.36,
4.117,-0.18,-0.53,-3.37,0.30,0.50,-0.38,
4.117,-0.18,-0.53,-3.37,0.31,0.55,-0.40,
4.126,-0.48,-0.22,-2.23,0.31,0.55,-0.40,
4.127,-0.48,-0.22,-2.23,0.33,0.59,-0.42,
4.127,-0.48,-0.22,-2.23,0.35,0.63,-0.44,
4.149,-0.48,-0.22,-2.23,0.37,0.66,-0.45,
4.15,-0.48,-0.22,-2.23,0.44,0.71,-0.48,
4.15,-0.48,-0.22,-2.23,0.44,0.71,-0.48,
4.15,-0.85,0.24,-1.30,0.44,0.71,-0.48,
4.151,-0.85,0.24,-1.30,0.47,0.72,-0.49,
4.151,-0.85,0.24,-1.30,0.51,0.73,-0.50,
4.152,-0.85,0.24,-1.30,0.56,0.74,-0.51,
4.153,-0.85,0.24,-1.30,0.60,0.74,-0.52,
4.154,-0.85,0.24,-1.30,0.65,0.74,-0.52,
4.154,-1.19,0.66,-0.48,0.65,0.74,-0.52,
4.154,-1.19,0.66,-0.48,0.70,0.74,-0.53,
4.155,-1.19,0.66,-0.48,0.75,0.73,-0.54,
4.155,-1.19,0.66,-0.48,0.81,0.73,-0.54,
4.155,-1.19,0.66,-0.48,0.86,0.72,-0.55,
4.156,-1.19,0.66,-0.48,0.91,0.71,-0.55,
4.156,-1.56,1.02,-0.03,0.91,0.71,-0.55,
4.156,-1.56,1.02,-0.03,0.96,0.70,-0.55,
4.156,-1.56,1.02,-0.03,1.02,0.69,-0.55,
4.156,-1.56,1.02,-0.03,1.07,0.68,-0.54,
4.162,-1.56,1.02,-0.03,1.12,0.66,-0.53,
4.162,-1.56,1.02,-0.03,1.17,0.65,-0.53,
4.163,-1.81,1.27,0.04,1.17,0.65,-0.53,
4.163,-1.81,1.27,0.04,1.23,0.63,-0.52,
4.163,-1.81,1.27,0.04,1.28,0.61,-0.51,
4.163,-1.81,1.27,0.04,1.34,0.59,-0.49,
4.165,-1.81,1.27,0.04,1.39,0.57,-0.48,
4.167,-1.81,1.27,0.04,1.44,0.54,-0.46,
4.169,-2.01,1.33,-0.12,1.44,0.54,-0.46,
4.17,-2.01,1.33,-0.12,1.50,0.51,-0.44,
4.171,-2.01,1.33,-0.12,1.56,0.47,-0.42,
4.172,-2.01,1.33,-0.12,1.62,0.43,-0.40,
4.175,-2.01,1.33,-0.12,1.68,0.38,-0.37,
4.177,-2.01,1.33,-0.12,1.74,0.34,-0.35,
4.179,-2.03,1.08,-0.45,1.74,0.34,-0.35,
4.179,-2.03,1.08,-0.45,1.81,0.30,-0.33,
4.181,-2.03,1.08,-0.45,1.87,0.25,-0.30,
4.185,-2.03,1.08,-0.45,1.94,0.20,-0.28,
4.185,-2.03,1.08,-0.45,2.01,0.15,-0.25,
4.187,-2.03,1.08,-0.45,2.08,0.09,-0.22,
4.189,-2.14,0.59,-1.20,2.08,0.09,-0.22,
4.189,-2.14,0.59,-1.20,2.16,0.03,-0.20,
4.191,-2.14,0.59,-1.20,2.23,-0.03,-0.17,
4.193,-2.14,0.59,-1.20,2.31,-0.10,-0.14,
4.194,-2.14,0.59,-1.20,2.38,-0.18,-0.12,
4.197,-2.14,0.59,-1.20,2.46,-0.27,-0.10,
4.2,-2.05,-0.02,-2.24,2.46,-0.27,-0.10,
4.202,-2.05,-0.02,-2.24,2.53,-0.36,-0.07,
4.203,-2.05,-0.02,-2.24,2.60,-0.46,-0.06,
4.204,-2.05,-0.02,-2.24,2.67,-0.57,-0.04,
4.205,-2.05,-0.02,-2.24,2.73,-0.68,-0.03,
4.207,-2.05,-0.02,-2.24,2.78,-0.79,-0.02,
4.209,-2.03,-1.01,-4.08,2.78,-0.79,-0.02,
4.209,-2.03,-1.01,-4.08,2.82,-0.91,-0.02,
4.212,-2.03,-1.01,-4.08,2.85,-1.03,-0.02,
4.213,-2.03,-1.01,-4.08,2.87,-1.15,-0.01,
4.219,-2.03,-1.01,-4.08,2.88,-1.27,-0.02,
4.22,-2.03,-1.01,-4.08,2.86,-1.38,-0.02,
4.22,-2.06,-2.21,-6.79,2.86,-1.38,-0.02,
4.22,-2.06,-2.21,-6.79,2.84,-1.49,-0.02,
4.22,-2.06,-2.21,-6.79,2.79,-1.59,-0.03,
4.223,-2.06,-2.21,-6.79,2.71,-1.69,-0.03,
4.225,-2.06,-2.21,-6.79,2.59,-1.75,-0.04,
4.233,-2.06,-2.21,-6.79,2.42,-1.77,-0.05,
4.234,-2.12,-3.25,-12.61,2.42,-1.77,-0.05,
4.234,-2.12,-3.25,-12.61,2.22,-1.78,-0.06,
4.254,-2.12,-3.25,-12.61,2.00,-1.76,-0.07,
4.255,-2.12,-3.25,-12.61,1.76,-1.71,-0.09,
4.255,-2.12,-3.25,-12.61,1.51,-1.65,-0.11,
4.255,-2.12,-3.25,-12.61,1.25,-1.56,-0.12,
4.255,-1.93,-3.67,-17.29,1.25,-1.56,-0.12,
4.256,-1.93,-3.67,-17.29,0.99,-1.46,-0.14,
4.256,-1.93,-3.67,-17.29,0.73,-1.35,-0.15,
4.256,-1.93,-3.67,-17.29,0.50,-1.23,-0.16,
4.256,-1.93,-3.67,-17.29,0.27,-1.12,-0.17,
4.256,-1.93,-3.67,-17.29,0.06,-1.00,-0.18,
4.257,-1.90,-3.87,-16.02,0.06,-1.00,-0.18,
4.257,-1.90,-3.87,-16.02,-0.13,-0.89,-0.19,
4.257,-1.90,-3.87,-16.02,-0.30,-0.78,-0.20,
4.257,-1.90,-3.87,-16.02,-0.46,-0.67,-0.20,
4.257,-1.90,-3.87,-16.02,-0.60,-0.56,-0.20,
4.258,-1.90,-3.87,-16.02,-0.71,-0.46,-0.20,
4.26,-1.75,-3.81,-11.36,-0.71,-0.46,-0.20,
4.261,-1.75,-3.81,-11.36,-0.81,-0.36,-0.20,
4.261,-1.75,-3.81,-11.36,-0.90,-0.26,-0.20,
4.263,-1.75,-3.81,-11.36,-0.98,-0.16,-0.20,
4.274,-1.75,-3.81,-11.36,-1.04,-0.06,-0.20,
4.274,-1.75,-3.81,-11.36,-1.10,0.05,-0.20,
4.275,-1.55,-3.77,-7.40,-1.10,0.05,-0.20,
4.275,-1.55,-3.77,-7.40,-1.15,0.15,-0.20,
4.275,-1.55,-3.77,-7.40,-1.19,0.25,-0.21,
4.275,-1.55,-3.77,-7.40,-1.23,0.34,-0.21,
4.275,-1.55,-3.77,-7.40,-1.27,0.44,-0.22,
4.276,-1.55,-3.77,-7.40,-1.30,0.54,-0.23,
4.279,-1.11,-3.68,-4.51,-1.30,0.54,-0.23,
4.28,-1.11,-3.68,-4.51,-1.32,0.63,-0.24,
4.281,-1.11,-3.68,-4.51,-1.35,0.73,-0.25,
4.286,-1.11,-3.68,-4.51,-1.37,0.82,-0.26,
4.287,-1.11,-3.68,-4.51,-1.40,0.90,-0.27,
4.287,-1.11,-3.68,-4.51,-1.42,0.99,-0.28,
4.289,-0.98,-3.84,-2.76,-1.42,0.99,-0.28,
4.289,-0.98,-3.84,-2.76,-1.44,1.06,-0.29,
4.29,-0.98,-3.84,-2.76,-1.46,1.13,-0.29,
4.293,-0.98,-3.84,-2.76,-1.48,1.19,-0.30,
4.295,-0.98,-3.84,-2.76,-1.50,1.24,-0.30,
4.296,-0.98,-3.84,-2.76,-1.52,1.29,-0.30,
4.299,-1.37,-4.28,-1.76,-1.52,1.29,-0.30,
4.299,-1.37,-4.28,-1.76,-1.53,1.33,-0.30,
4.301,-1.37,-4.28,-1.76,-1.54,1.36,-0.30,
4.302,-1.37,-4.28,-1.76,-1.55,1.39,-0.29,
4.304,-1.37,-4.28,-1.76,-1.55,1.41,-0.29,
4.306,-1.37,-4.28,-1.76,-1.54,1.42,-0.27,
4.309,-1.89,-4.88,-1.34,-1.54,1.42,-0.27,
4.309,-1.89,-4.88,-1.34,-1.53,1.43,-0.26,
4.31,-1.89,-4.88,-1.34,-1.51,1.43,-0.25,
4.312,-1.89,-4.88,-1.34,-1.48,1.43,-0.23,
4.315,-1.89,-4.88,-1.34,-1.45,1.42,-0.21,
4.316,-1.89,-4.88,-1.34,-1.41,1.41,-0.19,
4.319,-1.95,-4.97,-1.31,-1.41,1.41,-0.19,
4.319,-1.95,-4.97,-1.31,-1.37,1.40,-0.17,
4.32,-1.95,-4.97,-1.31,-1.32,1.38,-0.15,
4.322,-1.95,-4.97,-1.31,-1.29,1.37,-0.13,
4.324,-1.95,-4.97,-1.31,-1.25,1.35,-0.12,
4.327,-1.95,-4.97,-1.31,-1.22,1.34,-0.12,
4.329,-1.43,-4.57,-2.53,-1.22,1.34,-0.12,
4.329,-1.43,-4.57,-2.53,-1.21,1.32,-0.13,
4.33,-1.43,-4.57,-2.53,-1.20,1.31,-0.13,
4.333,-1.43,-4.57,-2.53,-1.22,1.30,-0.15,
4.335,-1.43,-4.57,-2.53,-1.25,1.31,-0.17,
4.337,-1.43,-4.57,-2.53,-1.30,1.33,-0.20,
4.341,-0.45,-3.49,-5.32,-1.30,1.33,-0.20,
4.342,-0.45,-3.49,-5.32,-1.38,1.36,-0.23,
4.342,-0.45,-3.49,-5.32,-1.50,1.40,-0.27,
4.343,-0.45,-3.49,-5.32,-1.68,1.49,-0.32,
4.345,-0.45,-3.49,-5.32,-1.92,1.61,-0.37,
4.346,-0.45,-3.49,-5.32,-2.20,1.76,-0.43,
4.349,0.97,-2.24,-12.94,-2.20,1.76,-0.43,
4.35,0.97,-2.24,-12.94,-2.50,1.93,-0.50,
4.35,0.97,-2.24,-12.94,-2.81,2.10,-0.57,
4.358,0.97,-2.24,-12.94,-3.14,2.28,-0.63,
4.359,0.97,-2.24,-12.94,-3.45,2.45,-0.70,
4.359,0.97,-2.24,-12.94,-3.75,2.61,-0.76,
4.363,1.72,-1.63,-15.71,-3.75,2.61,-0.76,
4.363,1.72,-1.63,-15.71,-4.02,2.75,-0.81,
4.363,1.72,-1.63,-15.71,-4.26,2.86,-0.86,
4.363,1.72,-1.63,-15.71,-4.44,2.95,-0.90,
4.37,1.72,-1.63,-15.71,-4.59,3.01,-0.93,
4.371,1.72,-1.63,-15.71,-4.68,3.05,-0.96,
4.372,0.79,-2.63,-9.34,-4.68,3.05,-0.96,
4.373,0.79,-2.63,-9.34,-4.73,3.07,-0.97,
4.373,0.79,-2.63,-9.34,-4.74,3.07,-0.97,
4.374,0.79,-2.63,-9.34,-4.71,3.05,-0.96,
4.406,0.79,-2.63,-9.34,-4.65,3.01,-0.93,
4.408,0.79,-2.63,-9.34,-4.56,2.96,-0.90,
4.408,-1.50,-3.80,-0.61,-4.56,2.96,-0.90,
4.409,-1.50,-3.80,-0.61,-4.45,2.89,-0.86,
4.409,-1.50,-3.80,-0.61,-4.33,2.80,-0.81,
4.409,-1.50,-3.80,-0.61,-4.20,2.70,-0.76,
4.41,-1.50,-3.80,-0.61,-4.06,2.59,-0.70,
4.41,-1.50,-3.80,-0.61,-3.92,2.46,-0.63,
4.411,-4.28,-4.12,5.11,-3.92,2.46,-0.63,
4.411,-4.28,-4.12,5.11,-3.77,2.34,-0.57,
4.412,-4.28,-4.12,5.11,-3.62,2.21,-0.50,
4.412,-4.28,-4.12,5.11,-3.47,2.09,-0.42,
4.412,-4.28,-4.12,5.11,-3.33,1.97,-0.34,
4.413,-4.28,-4.12,5.11,-3.19,1.84,-0.26,
4.454,-5.44,-4.01,7.13,-3.19,1.84,-0.26,
4.455,-5.44,-4.01,7.13,-3.06,1.71,-0.17,
4.455,-5.44,-4.01,7.13,-2.94,1.58,-0.09,
4.456,-5.44,-4.01,7.13,-2.82,1.44,-0.01,
4.456,-5.44,-4.01,7.13,-2.71,1.31,0.07,
4.457,-5.44,-4.01,7.13,-2.61,1.18,0.14,
4.457,-5.43,-4.82,7.03,-2.61,1.18,0.14,
4.458,-5.43,-4.82,7.03,-2.51,1.05,0.21,
4.458,-5.43,-4.82,7.03,-2.41,0.92,0.26,
4.459,-5.43,-4.82,7.03,-2.31,0.80,0.31,
4.46,-5.43,-4.82,7.03,-2.23,0.69,0.35,
4.46,-5.43,-4.82,7.03,-2.15,0.58,0.37,
4.461,-3.67,-5.90,6.26,-2.15,0.58,0.37,
4.461,-3.67,-5.90,6.26,-2.07,0.48,0.39,
4.462,-3.67,-5.90,6.26,-2.00,0.38,0.40,
4.463,-3.67,-5.90,6.26,-1.93,0.28,0.40,
4.464,-3.67,-5.90,6.26,-1.88,0.20,0.39,
4.464,-3.67,-5.90,6.26,-1.83,0.12,0.39,
4.464,-1.94,-6.53,5.59,-1.83,0.12,0.39,
4.465,-1.94,-6.53,5.59,-1.78,0.05,0.37,
4.465,-1.94,-6.53,5.59,-1.74,-0.01,0.35,
4.466,-1.94,-6.53,5.59,-1.70,-0.06,0.33,
4.466,-1.94,-6.53,5.59,-1.67,-0.09,0.31,
4.466,-1.94,-6.53,5.59,-1.65,-0.12,0.28,
4.467,-0.98,-6.86,4.84,-1.65,-0.12,0.28,
4.467,-0.98,-6.86,4.84,-1.63,-0.15,0.25,
4.468,-0.98,-6.86,4.84,-1.61,-0.16,0.23,
4.468,-0.98,-6.86,4.84,-1.60,-0.18,0.20,
4.468,-0.98,-6.86,4.84,-1.60,-0.19,0.17,
4.469,-0.98,-6.86,4.84,-1.60,-0.21,0.14,
4.469,-0.42,-6.75,4.23,-1.60,-0.21,0.14,
4.47,-0.42,-6.75,4.23,-1.60,-0.22,0.11,
4.47,-0.42,-6.75,4.23,-1.61,-0.24,0.08,
4.471,-0.42,-6.75,4.23,-1.62,-0.26,0.05,
4.471,-0.42,-6.75,4.23,-1.63,-0.28,0.01,
4.471,-0.42,-6.75,4.23,-1.65,-0.30,-0.02,
4.472,0.05,-6.15,3.83,-1.65,-0.30,-0.02,
4.472,0.05,-6.15,3.83,-1.67,-0.33,-0.06,
4.473,0.05,-6.15,3.83,-1.69,-0.36,-0.10,
4.473,0.05,-6.15,3.83,-1.71,-0.39,-0.14,
4.473,0.05,-6.15,3.83,-1.73,-0.43,-0.18,
4.474,0.05,-6.15,3.83,-1.74,-0.47,-0.22,
4.474,0.51,-5.31,3.93,-1.74,-0.47,-0.22,
4.475,0.51,-5.31,3.93,-1.76,-0.50,-0.26,
4.475,0.51,-5.31,3.93,-1.77,-0.54,-0.30,
4.475,0.51,-5.31,3.93,-1.78,-0.57,-0.35,
4.476,0.51,-5.31,3.93,-1.79,-0.60,-0.39,
4.476,0.51,-5.31,3.93,-1.80,-0.62,-0.43,
4.479,1.10,-4.42,4.20,-1.80,-0.62,-0.43,
4.48,1.10,-4.42,4.20,-1.80,-0.63,-0.48,
4.481,1.10,-4.42,4.20,-1.80,-0.64,-0.52,
4.483,1.10,-4.42,4.20,-1.79,-0.63,-0.57,
4.485,1.10,-4.42,4.20,-1.78,-0.62,-0.61,
4.486,1.10,-4.42,4.20,-1.77,-0.60,-0.65,
4.489,1.60,-3.52,4.65,-1.77,-0.60,-0.65,
4.489,1.60,-3.52,4.65,-1.76,-0.57,-0.69,
4.491,1.60,-3.52,4.65,-1.74,-0.54,-0.73,
4.492,1.60,-3.52,4.65,-1.72,-0.51,-0.77,
4.495,1.60,-3.52,4.65,-1.69,-0.46,-0.82,
4.511,1.60,-3.52,4.65,-1.67,-0.41,-0.86,
4.513,2.08,-2.49,4.79,-1.67,-0.41,-0.86,
4.514,2.08,-2.49,4.79,-1.64,-0.35,-0.90,
4.515,2.08,-2.49,4.79,-1.61,-0.28,-0.94,
4.516,2.08,-2.49,4.79,-1.58,-0.21,-0.99,
4.517,2.08,-2.49,4.79,-1.54,-0.12,-1.03,
4.519,2.08,-2.49,4.79,-1.52,-0.03,-1.07,
4.52,2.30,-1.30,4.83,-1.52,-0.03,-1.07,
4.521,2.30,-1.30,4.83,-1.49,0.07,-1.10,
4.521,2.30,-1.30,4.83,-1.46,0.16,-1.13,
4.522,2.30,-1.30,4.83,-1.44,0.26,-1.17,
4.523,2.30,-1.30,4.83,-1.42,0.36,-1.20,
4.524,2.30,-1.30,4.83,-1.41,0.46,-1.23,
4.524,2.16,-0.14,4.08,-1.41,0.46,-1.23,
4.525,2.16,-0.14,4.08,-1.39,0.55,-1.26,
4.53,2.16,-0.14,4.08,-1.38,0.64,-1.28,
4.53,2.16,-0.14,4.08,-1.38,0.73,-1.31,
4.531,2.16,-0.14,4.08,-1.37,0.84,-1.33,
4.531,2.16,-0.14,4.08,-1.37,0.95,-1.36,
4.531,2.00,1.02,3.22,-1.37,0.95,-1.36,
4.531,2.00,1.02,3.22,-1.38,1.08,-1.37,
4.548,2.00,1.02,3.22,-1.42,1.25,-1.39,
4.548,2.00,1.02,3.22,-1.51,1.47,-1.40,
4.549,2.00,1.02,3.22,-1.62,1.71,-1.41,
4.549,2.00,1.02,3.22,-1.75,1.96,-1.42,
4.549,1.31,2.32,-0.94,-1.75,1.96,-1.42,
4.549,1.31,2.32,-0.94,-1.89,2.23,-1.41,
4.549,1.31,2.32,-0.94,-2.03,2.49,-1.41,
4.55,1.31,2.32,-0.94,-2.18,2.73,-1.40,
4.55,1.31,2.32,-0.94,-2.32,2.96,-1.39,
4.55,1.31,2.32,-0.94,-2.45,3.17,-1.38,
4.55,0.48,3.11,-2.65,-2.45,3.17,-1.38,
4.55,0.48,3.11,-2.65,-2.57,3.36,-1.37,
4.551,0.48,3.11,-2.65,-2.69,3.54,-1.36,
4.553,0.48,3.11,-2.65,-2.79,3.69,-1.34,
4.562,0.48,3.11,-2.65,-2.88,3.82,-1.32,
4.562,0.48,3.11,-2.65,-2.96,3.94,-1.31,
4.564,-0.18,3.42,-1.02,-2.96,3.94,-1.31,
4.564,-0.18,3.42,-1.02,-3.03,4.04,-1.30,
4.564,-0.18,3.42,-1.02,-3.09,4.12,-1.28,
4.566,-0.18,3.42,-1.02,-3.15,4.20,-1.27,
4.586,-0.18,3.42,-1.02,-3.19,4.26,-1.26,
4.587,-0.18,3.42,-1.02,-3.22,4.31,-1.25,
4.587,-0.53,3.70,0.94,-3.22,4.31,-1.25,
4.587,-0.53,3.70,0.94,-3.25,4.34,-1.24,
4.588,-0.53,3.70,0.94,-3.27,4.36,-1.23,
4.588,-0.53,3.70,0.94,-3.29,4.38,-1.22,
4.588,-0.53,3.70,0.94,-3.30,4.38,-1.21,
4.588,-0.53,3.70,0.94,-3.30,4.36,-1.20,
4.589,-0.81,3.95,2.42,-3.30,4.36,-1.20,
4.589,-0.81,3.95,2.42,-3.29,4.34,-1.19,
4.589,-0.81,3.95,2.42,-3.28,4.31,-1.18,
4.589,-0.81,3.95,2.42,-3.27,4.27,-1.17,
4.59,-0.81,3.95,2.42,-3.24,4.22,-1.16,
4.59,-0.81,3.95,2.42,-3.22,4.16,-1.14,
4.59,-1.14,4.17,3.77,-3.22,4.16,-1.14,
4.591,-1.14,4.17,3.77,-3.19,4.09,-1.13,
4.591,-1.14,4.17,3.77,-3.15,4.01,-1.12,
4.593,-1.14,4.17,3.77,-3.11,3.92,-1.10,
4.595,-1.14,4.17,3.77,-3.07,3.82,-1.08,
4.598,-1.14,4.17,3.77,-3.02,3.72,-1.06,
4.599,-1.51,4.46,4.45,-3.02,3.72,-1.06,
4.599,-1.51,4.46,4.45,-2.97,3.61,-1.04,
4.601,-1.51,4.46,4.45,-2.92,3.49,-1.01,
4.603,-1.51,4.46,4.45,-2.86,3.37,-0.98,
4.604,-1.51,4.46,4.45,-2.80,3.25,-0.95,
4.606,-1.51,4.46,4.45,-2.74,3.12,-0.92,
4.608,-1.99,4.64,5.17,-2.74,3.12,-0.92,
4.609,-1.99,4.64,5.17,-2.67,2.98,-0.90,
4.611,-1.99,4.64,5.17,-2.60,2.85,-0.86,
4.612,-1.99,4.64,5.17,-2.52,2.71,-0.83,
4.614,-1.99,4.64,5.17,-2.44,2.57,-0.80,
4.617,-1.99,4.64,5.17,-2.35,2.43,-0.76,
4.619,-2.39,4.70,5.61,-2.35,2.43,-0.76,
4.619,-2.39,4.70,5.61,-2.27,2.29,-0.72,
4.62,-2.39,4.70,5.61,-2.18,2.15,-0.68,
4.624,-2.39,4.70,5.61,-1.98,1.88,-0.59,
4.624,-2.39,4.70,5.61,-1.98,1.88,-0.59,
4.626,-2.39,4.70,5.61,-1.88,1.75,-0.54,
4.629,-2.93,4.71,6.28,-1.88,1.75,-0.54,
4.629,-2.93,4.71,6.28,-1.78,1.63,-0.49,
4.633,-2.93,4.71,6.28,-1.68,1.50,-0.44,
4.633,-2.93,4.71,6.28,-1.57,1.38,-0.39,
4.634,-2.93,4.71,6.28,-1.46,1.27,-0.34,
4.636,-2.93,4.71,6.28,-1.36,1.17,-0.29,
4.646,-3.16,4.83,6.49,-1.36,1.17,-0.29,
4.647,-3.16,4.83,6.49,-1.25,1.07,-0.25,
4.647,-3.16,4.83,6.49,-1.15,0.99,-0.20,
4.647,-3.16,4.83,6.49,-1.04,0.91,-0.15,
4.647,-3.16,4.83,6.49,-0.94,0.84,-0.10,
4.659,-3.16,4.83,6.49,-0.83,0.77,-0.05,
4.66,-3.35,4.84,6.73,-0.83,0.77,-0.05,
4.66,-3.35,4.84,6.73,-0.73,0.72,-0.00,
4.66,-3.35,4.84,6.73,-0.62,0.67,0.05,
4.66,-3.35,4.84,6.73,-0.52,0.63,0.10,
4.66,-3.35,4.84,6.73,-0.42,0.59,0.15,
4.66,-3.35,4.84,6.73,-0.32,0.56,0.20,
4.661,-3.34,4.87,6.47,-0.32,0.56,0.20,
4.661,-3.34,4.87,6.47,-0.22,0.53,0.26,
4.661,-3.34,4.87,6.47,-0.12,0.51,0.31,
4.664,-3.34,4.87,6.47,-0.02,0.49,0.37,
4.675,-3.34,4.87,6.47,0.08,0.48,0.42,
4.677,-3.34,4.87,6.47,0.17,0.47,0.47,
4.677,-3.36,4.72,6.49,0.17,0.47,0.47,
4.678,-3.36,4.72,6.49,0.27,0.45,0.53,
4.678,-3.36,4.72,6.49,0.36,0.44,0.58,
4.679,-3.36,4.72,6.49,0.46,0.43,0.64,
4.68,-3.36,4.72,6.49,0.55,0.41,0.69,
4.68,-3.36,4.72,6.49,0.64,0.39,0.74,
4.681,-3.01,4.65,6.00,0.64,0.39,0.74,
4.683,-3.01,4.65,6.00,0.73,0.38,0.79,
4.686,-3.01,4.65,6.00,0.81,0.35,0.84,
4.686,-3.01,4.65,6.00,0.90,0.33,0.89,
4.687,-3.01,4.65,6.00,0.98,0.30,0.94,
4.687,-3.01,4.65,6.00,1.07,0.27,0.98,
4.69,-2.68,4.42,5.82,1.07,0.27,0.98,
4.691,-2.68,4.42,5.82,1.15,0.24,1.03,
4.692,-2.68,4.42,5.82,1.23,0.20,1.08,
4.693,-2.68,4.42,5.82,1.31,0.16,1.12,
4.695,-2.68,4.42,5.82,1.39,0.12,1.16,
4.698,-2.68,4.42,5.82,1.47,0.07,1.21,
4.702,-2.24,4.25,5.31,1.47,0.07,1.21,
4.703,-2.24,4.25,5.31,1.55,0.02,1.25,
4.704,-2.24,4.25,5.31,1.62,-0.04,1.29,
4.704,-2.24,4.25,5.31,1.70,-0.10,1.33,
4.705,-2.24,4.25,5.31,1.77,-0.16,1.37,
4.707,-2.24,4.25,5.31,1.84,-0.22,1.41,
4.71,-1.96,4.01,4.90,1.84,-0.22,1.41,
4.711,-1.96,4.01,4.90,1.91,-0.29,1.46,
4.711,-1.96,4.01,4.90,1.98,-0.35,1.50,
4.715,-1.96,4.01,4.90,2.05,-0.41,1.54,
4.717,-1.96,4.01,4.90,2.11,-0.47,1.58,
4.717,-1.96,4.01,4.90,2.17,-0.52,1.62,
4.719,-1.63,3.87,4.01,2.17,-0.52,1.62,
4.72,-1.63,3.87,4.01,2.23,-0.58,1.66,
4.721,-1.63,3.87,4.01,2.29,-0.63,1.70,
4.722,-1.63,3.87,4.01,2.35,-0.69,1.74,
4.724,-1.63,3.87,4.01,2.41,-0.74,1.77,
4.727,-1.63,3.87,4.01,2.46,-0.79,1.81,
4.729,-1.34,3.73,3.22,2.46,-0.79,1.81,
4.729,-1.34,3.73,3.22,2.51,-0.84,1.85,
4.746,-1.34,3.73,3.22,2.56,-0.89,1.88,
4.746,-1.34,3.73,3.22,2.61,-0.94,1.91,
4.746,-1.34,3.73,3.22,2.66,-0.98,1.94,
4.747,-1.34,3.73,3.22,2.70,-1.02,1.97,
4.747,-0.95,3.44,2.00,2.70,-1.02,1.97,
4.747,-0.95,3.44,2.00,2.75,-1.06,2.00,
4.747,-0.95,3.44,2.00,2.79,-1.10,2.03,
4.747,-0.95,3.44,2.00,2.83,-1.15,2.06,
4.748,-0.95,3.44,2.00,2.87,-1.20,2.08,
4.748,-0.95,3.44,2.00,2.91,-1.25,2.10,
4.752,-0.70,2.87,0.33,2.91,-1.25,2.10,
4.753,-0.70,2.87,0.33,2.94,-1.31,2.13,
4.753,-0.70,2.87,0.33,2.97,-1.38,2.15,
4.753,-0.70,2.87,0.33,2.99,-1.45,2.16,
4.755,-0.70,2.87,0.33,3.01,-1.52,2.18,
4.756,-0.70,2.87,0.33,3.02,-1.60,2.20,
4.76,-0.65,1.86,-2.34,3.02,-1.60,2.20,
4.76,-0.65,1.86,-2.34,3.02,-1.68,2.21,
4.76,-0.65,1.86,-2.34,3.01,-1.75,2.22,
4.763,-0.65,1.86,-2.34,2.98,-1.82,2.23,
4.764,-0.65,1.86,-2.34,2.93,-1.88,2.23,
4.767,-0.65,1.86,-2.34,2.84,-1.92,2.23,
4.769,-0.46,-0.13,-8.23,2.84,-1.92,2.23,
4.769,-0.46,-0.13,-8.23,2.73,-1.94,2.23,
4.774,-0.46,-0.13,-8.23,2.57,-1.94,2.22,
4.774,-0.46,-0.13,-8.23,2.38,-1.90,2.20,
4.775,-0.46,-0.13,-8.23,2.15,-1.85,2.15,
4.777,-0.46,-0.13,-8.23,1.89,-1.77,2.09,
4.782,1.51,-3.95,-18.20,1.89,-1.77,2.09,
4.783,1.51,-3.95,-18.20,1.61,-1.63,1.99,
4.783,1.51,-3.95,-18.20,1.32,-1.46,1.88,
4.783,1.51,-3.95,-18.20,1.00,-1.27,1.74,
4.785,1.51,-3.95,-18.20,0.66,-1.05,1.59,
4.789,1.51,-3.95,-18.20,0.29,-0.80,1.43,
4.789,5.45,-8.65,-28.28,0.29,-0.80,1.43,
4.79,5.45,-8.65,-28.28,-0.08,-0.49,1.24,
4.793,5.45,-8.65,-28.28,-0.42,-0.14,1.04,
4.794,5.45,-8.65,-28.28,-0.72,0.24,0.83,
4.795,5.45,-8.65,-28.28,-0.99,0.65,0.60,
4.81,5.45,-8.65,-28.28,-1.26,1.06,0.37,
4.811,9.01,-13.30,-30.45,-1.26,1.06,0.37,
4.812,9.01,-13.30,-30.45,-1.53,1.47,0.14,
4.812,9.01,-13.30,-30.45,-1.77,1.85,-0.08,
4.812,9.01,-13.30,-30.45,-1.96,2.18,-0.28,
4.812,9.01,-13.30,-30.45,-2.10,2.44,-0.45,
4.812,9.01,-13.30,-30.45,-2.18,2.63,-0.58,
4.812,9.07,-13.36,-24.54,-2.18,2.63,-0.58,
4.813,9.07,-13.36,-24.54,-2.20,2.74,-0.69,
4.813,9.07,-13.36,-24.54,-2.18,2.80,-0.78,
4.813,9.07,-13.36,-24.54,-2.14,2.83,-0.85,
4.815,9.07,-13.36,-24.54,-2.07,2.82,-0.90,
4.817,9.07,-13.36,-24.54,-2.00,2.80,-0.94,
4.819,6.52,-10.27,-13.85,-2.00,2.80,-0.94,
4.819,6.52,-10.27,-13.85,-1.92,2.75,-0.97,
4.82,6.52,-10.27,-13.85,-1.83,2.68,-0.98,
4.822,6.52,-10.27,-13.85,-1.74,2.60,-0.97,
4.824,6.52,-10.27,-13.85,-1.65,2.52,-0.96,
4.826,6.52,-10.27,-13.85,-1.56,2.41,-0.94,
4.83,5.42,-8.73,-8.27,-1.56,2.41,-0.94,
4.833,5.42,-8.73,-8.27,-1.46,2.31,-0.91,
4.834,5.42,-8.73,-8.27,-1.38,2.21,-0.88,
4.834,5.42,-8.73,-8.27,-1.30,2.11,-0.84,
4.835,5.42,-8.73,-8.27,-1.23,2.01,-0.80,
4.836,5.42,-8.73,-8.27,-1.17,1.92,-0.76,
4.839,4.97,-5.15,-5.90,-1.17,1.92,-0.76,
4.84,4.97,-5.15,-5.90,-1.11,1.83,-0.71,
4.84,4.97,-5.15,-5.90,-1.06,1.74,-0.67,
4.843,4.97,-5.15,-5.90,-1.02,1.66,-0.63,
4.844,4.97,-5.15,-5.90,-0.98,1.58,-0.59,
4.846,4.97,-5.15,-5.90,-0.94,1.51,-0.55,
4.849,4.50,-0.92,-5.01,-0.94,1.51,-0.55,
4.85,4.50,-0.92,-5.01,-0.91,1.45,-0.51,
4.851,4.50,-0.92,-5.01,-0.88,1.40,-0.47,
4.852,4.50,-0.92,-5.01,-0.84,1.36,-0.43,
4.854,4.50,-0.92,-5.01,-0.80,1.34,-0.38,
4.857,4.50,-0.92,-5.01,-0.75,1.33,-0.34,
4.859,3.53,2.49,-3.55,-0.75,1.33,-0.34,
4.859,3.53,2.49,-3.55,-0.71,1.33,-0.29,
4.86,3.53,2.49,-3.55,-0.65,1.34,-0.24,
4.863,3.53,2.49,-3.55,-0.59,1.35,-0.19,
4.865,3.53,2.49,-3.55,-0.52,1.36,-0.14,
4.867,3.53,2.49,-3.55,-0.45,1.38,-0.09,
4.869,2.78,4.73,-1.19,-0.45,1.38,-0.09,
4.869,2.78,4.73,-1.19,-0.37,1.39,-0.05,
4.871,2.78,4.73,-1.19,-0.29,1.40,-0.00,
4.872,2.78,4.73,-1.19,-0.20,1.41,0.04,
4.874,2.78,4.73,-1.19,-0.11,1.41,0.07,
4.876,2.78,4.73,-1.19,-0.02,1.42,0.10,
4.88,2.48,5.71,1.10,-0.02,1.42,0.10,
4.883,2.48,5.71,1.10,0.07,1.43,0.13,
4.884,2.48,5.71,1.10,0.17,1.45,0.15,
4.884,2.48,5.71,1.10,0.26,1.46,0.17,
4.885,2.48,5.71,1.10,0.36,1.46,0.19,
4.887,2.48,5.71,1.10,0.45,1.46,0.21,
4.889,2.55,5.28,2.50,0.45,1.46,0.21,
4.889,2.55,5.28,2.50,0.53,1.45,0.23,
4.89,2.55,5.28,2.50,0.61,1.43,0.24,
4.892,2.55,5.28,2.50,0.69,1.40,0.25,
4.896,2.55,5.28,2.50,0.77,1.35,0.25,
4.898,2.55,5.28,2.50,0.84,1.30,0.25,
4.93,1.78,3.08,3.08,0.84,1.30,0.25,
4.931,1.78,3.08,3.08,0.91,1.25,0.23,
4.931,1.78,3.08,3.08,0.98,1.19,0.20,
4.932,1.78,3.08,3.08,1.04,1.12,0.17,
4.932,1.78,3.08,3.08,1.11,1.06,0.12,
4.932,1.78,3.08,3.08,1.17,0.98,0.06,
4.933,1.52,0.46,3.99,1.17,0.98,0.06,
4.933,1.52,0.46,3.99,1.23,0.89,-0.01,
4.934,1.52,0.46,3.99,1.29,0.79,-0.09,
4.934,1.52,0.46,3.99,1.34,0.67,-0.17,
4.935,1.52,0.46,3.99,1.40,0.54,-0.26,
4.935,1.52,0.46,3.99,1.44,0.39,-0.34,
4.935,1.84,-1.49,4.81,1.44,0.39,-0.34,
4.936,1.84,-1.49,4.81,1.47,0.22,-0.41,
4.936,1.84,-1.49,4.81,1.51,0.03,-0.47,
4.937,1.84,-1.49,4.81,1.53,-0.16,-0.53,
4.937,1.84,-1.49,4.81,1.55,-0.38,-0.59,
4.937,1.84,-1.49,4.81,1.57,-0.60,-0.66,
4.938,2.22,-2.80,5.65,1.57,-0.60,-0.66,
4.938,2.22,-2.80,5.65,1.57,-0.84,-0.72,
4.939,2.22,-2.80,5.65,1.56,-1.08,-0.78,
4.939,2.22,-2.80,5.65,1.54,-1.33,-0.83,
4.939,2.22,-2.80,5.65,1.52,-1.58,-0.88,
4.94,2.22,-2.80,5.65,1.49,-1.83,-0.93,
4.94,2.06,-3.91,5.61,1.49,-1.83,-0.93,
4.941,2.06,-3.91,5.61,1.46,-2.07,-0.97,
4.941,2.06,-3.91,5.61,1.42,-2.31,-1.00,
4.943,2.06,-3.91,5.61,1.38,-2.52,-1.01,
4.945,2.06,-3.91,5.61,1.34,-2.73,-1.01,
4.947,2.06,-3.91,5.61,1.30,-2.92,-1.00,
4.949,0.47,-3.61,5.09,1.30,-2.92,-1.00,
4.949,0.47,-3.61,5.09,1.26,-3.10,-0.97,
4.951,0.47,-3.61,5.09,1.22,-3.26,-0.94,
4.953,0.47,-3.61,5.09,1.17,-3.40,-0.90,
4.954,0.47,-3.61,5.09,1.13,-3.53,-0.85,
4.956,0.47,-3.61,5.09,1.09,-3.64,-0.79,
4.959,-1.18,-2.41,4.20,1.09,-3.64,-0.79,
4.96,-1.18,-2.41,4.20,1.04,-3.74,-0.73,
4.96,-1.18,-2.41,4.20,1.00,-3.82,-0.67,
4.97,-1.18,-2.41,4.20,0.97,-3.88,-0.60,
4.97,-1.18,-2.41,4.20,0.94,-3.93,-0.52,
4.971,-1.18,-2.41,4.20,0.91,-3.96,-0.44,
4.997,-2.18,-1.11,3.71,0.91,-3.96,-0.44,
4.998,-2.18,-1.11,3.71,0.89,-3.98,-0.36,
4.998,-2.18,-1.11,3.71,0.88,-3.98,-0.28,
4.998,-2.18,-1.11,3.71,0.87,-3.94,-0.20,
4.999,-2.18,-1.11,3.71,0.88,-3.89,-0.12,
4.999,-2.18,-1.11,3.71,0.88,-3.85,-0.04,
4.999,-2.34,0.07,3.49,0.88,-3.85,-0.04,
5.0,-2.34,0.07,3.49,0.90,-3.79,0.04,
5.0,-2.34,0.07,3.49,0.92,-3.73,0.12,
5.0,-2.34,0.07,3.49,0.95,-3.66,0.20,
5.0,-2.34,0.07,3.49,0.98,-3.59,0.28,
5.001,-2.34,0.07,3.49,1.02,-3.52,0.35,
5.001,-2.25,0.82,3.86,1.02,-3.52,0.35,
5.001,-2.25,0.82,3.86,1.06,-3.44,0.42,
5.002,-2.25,0.82,3.86,1.10,-3.36,0.48,
5.002,-2.25,0.82,3.86,1.15,-3.28,0.53,
5.002,-2.25,0.82,3.86,1.20,-3.19,0.59,
5.003,-2.25,0.82,3.86,1.26,-3.09,0.63,
5.003,-1.95,1.25,3.84,1.26,-3.09,0.63,
5.003,-1.95,1.25,3.84,1.31,-2.98,0.67,
5.003,-1.95,1.25,3.84,1.37,-2.88,0.71,
5.004,-1.95,1.25,3.84,1.43,-2.76,0.74,
