
time,ax,ay,az,wx,wy,wz,
0.003,-1.49,0.06,-1.86,-0.29,0.22,0.19,
0.003,-1.54,0.06,-2.18,-0.29,0.22,0.19,
0.004,-1.54,0.06,-2.18,-0.32,0.24,0.20,
0.004,-1.54,0.06,-2.18,-0.36,0.28,0.21,
0.004,-1.54,0.06,-2.18,-0.37,0.29,0.21,
0.004,-1.54,0.06,-2.18,-0.40,0.32,0.22,
0.006,-1.54,0.06,-2.18,-0.42,0.35,0.22,
0.007,-1.66,0.34,-2.25,-0.42,0.35,0.22,
0.007,-1.66,0.34,-2.25,-0.44,0.38,0.23,
0.012,-1.66,0.34,-2.25,-0.46,0.41,0.24,
0.012,-1.66,0.34,-2.25,-0.47,0.43,0.24,
0.014,-1.66,0.34,-2.25,-0.48,0.45,0.25,
0.016,-1.66,0.34,-2.25,-0.49,0.47,0.25,
0.018,-1.61,0.37,-1.90,-0.49,0.47,0.25,
0.018,-1.61,0.37,-1.90,-0.50,0.49,0.26,
0.02,-1.61,0.37,-1.90,-0.52,0.51,0.25,
0.022,-1.61,0.37,-1.90,-0.54,0.51,0.25,
0.023,-1.61,0.37,-1.90,-0.56,0.52,0.23,
0.026,-1.61,0.37,-1.90,-0.58,0.51,0.21,
0.028,-1.26,0.36,-1.95,-0.58,0.51,0.21,
0.028,-1.26,0.36,-1.95,-0.61,0.50,0.19,
0.03,-1.26,0.36,-1.95,-0.67,0.47,0.15,
0.033,-1.26,0.36,-1.95,-0.69,0.46,0.14,
0.034,-1.26,0.36,-1.95,-0.74,0.43,0.11,
0.036,-1.26,0.36,-1.95,-0.79,0.40,0.08,
0.038,-0.73,0.34,-2.70,-0.79,0.40,0.08,
0.039,-0.73,0.34,-2.70,-0.85,0.36,0.05,
0.04,-0.73,0.34,-2.70,-0.96,0.29,0.01,
0.041,-0.73,0.34,-2.70,-0.99,0.26,-0.01,
0.046,-0.73,0.34,-2.70,-1.07,0.22,-0.03,
0.054,-0.73,0.34,-2.70,-1.14,0.19,-0.05,
0.055,-0.58,0.13,-3.72,-1.14,0.19,-0.05,
0.055,-0.58,0.13,-3.72,-1.21,0.18,-0.07,
0.056,-0.58,0.13,-3.72,-1.31,0.17,-0.10,
0.056,-0.58,0.13,-3.72,-1.35,0.18,-0.10,
0.056,-0.58,0.13,-3.72,-1.41,0.19,-0.12,
0.056,-0.58,0.13,-3.72,-1.47,0.20,-0.13,
0.06,-0.66,-0.51,-3.18,-1.47,0.20,-0.13,
0.06,-0.66,-0.51,-3.18,-1.52,0.22,-0.14,
0.061,-0.66,-0.51,-3.18,-1.59,0.25,-0.14,
0.062,-0.66,-0.51,-3.18,-1.62,0.26,-0.14,
0.074,-0.66,-0.51,-3.18,-1.66,0.27,-0.14,
0.074,-0.66,-0.51,-3.18,-1.70,0.28,-0.14,
0.074,-1.33,-1.02,-2.11,-1.70,0.28,-0.14,
0.075,-1.33,-1.02,-2.11,-1.74,0.29,-0.12,
0.075,-1.33,-1.02,-2.11,-1.79,0.30,-0.10,
0.075,-1.33,-1.02,-2.11,-1.80,0.30,-0.09,
0.075,-1.33,-1.02,-2.11,-1.83,0.31,-0.07,
0.076,-1.33,-1.02,-2.11,-1.85,0.32,-0.04,
0.081,-2.01,-1.21,-1.23,-1.85,0.32,-0.04,
0.081,-2.01,-1.21,-1.23,-1.86,0.32,-0.01,
0.082,-2.01,-1.21,-1.23,-1.88,0.32,0.04,
0.083,-2.01,-1.21,-1.23,-1.88,0.32,0.05,
0.084,-2.01,-1.21,-1.23,-1.88,0.32,0.08,
0.086,-2.01,-1.21,-1.23,-1.88,0.32,0.11,
0.088,-2.47,-1.33,-0.55,-1.88,0.32,0.11,
0.089,-2.47,-1.33,-0.55,-1.88,0.31,0.15,
0.091,-2.47,-1.33,-0.55,-1.86,0.30,0.20,
0.092,-2.47,-1.33,-0.55,-1.85,0.30,0.22,
0.102,-2.47,-1.33,-0.55,-1.82,0.29,0.26,
0.103,-2.47,-1.33,-0.55,-1.79,0.28,0.30,
0.103,-2.36,-1.27,0.14,-1.79,0.28,0.30,
0.104,-2.36,-1.27,0.14,-1.76,0.26,0.33,
0.104,-2.36,-1.27,0.14,-1.70,0.23,0.39,
0.105,-2.36,-1.27,0.14,-1.68,0.22,0.40,
0.105,-2.36,-1.27,0.14,-1.63,0.20,0.43,
0.106,-2.36,-1.27,0.14,-1.59,0.17,0.46,
0.108,-1.87,-0.95,0.64,-1.59,0.17,0.46,
0.108,-1.87,-0.95,0.64,-1.53,0.15,0.48,
0.111,-1.87,-0.95,0.64,-1.46,0.11,0.51,
0.114,-1.87,-0.95,0.64,-1.43,0.10,0.52,
0.114,-1.87,-0.95,0.64,-1.37,0.08,0.54,
0.116,-1.87,-0.95,0.64,-1.31,0.06,0.55,
0.118,-1.11,-0.49,0.96,-1.31,0.06,0.55,
0.12,-1.11,-0.49,0.96,-1.24,0.05,0.56,
0.121,-1.11,-0.49,0.96,-1.15,0.03,0.57,
0.122,-1.11,-0.49,0.96,-1.12,0.02,0.57,
0.124,-1.11,-0.49,0.96,-1.05,0.01,0.58,
0.126,-1.11,-0.49,0.96,-0.98,0.00,0.58,
0.161,-0.66,-0.37,1.00,-0.98,0.00,0.58,
0.162,-0.66,-0.37,1.00,-0.91,-0.01,0.59,
0.162,-0.66,-0.37,1.00,-0.81,-0.03,0.59,
0.162,-0.66,-0.37,1.00,-0.78,-0.04,0.59,
0.162,-0.66,-0.37,1.00,-0.71,-0.06,0.59,
0.162,-0.66,-0.37,1.00,-0.65,-0.08,0.60,
0.162,-0.35,-0.44,0.64,-0.65,-0.08,0.60,
0.163,-0.35,-0.44,0.64,-0.60,-0.09,0.60,
0.163,-0.35,-0.44,0.64,-0.51,-0.11,0.60,
0.163,-0.35,-0.44,0.64,-0.48,-0.12,0.61,
0.163,-0.35,-0.44,0.64,-0.44,-0.13,0.61,
0.163,-0.35,-0.44,0.64,-0.39,-0.14,0.62,
0.163,-0.27,-0.53,-0.12,-0.39,-0.14,0.62,
0.164,-0.27,-0.53,-0.12,-0.35,-0.16,0.63,
0.164,-0.27,-0.53,-0.12,-0.29,-0.17,0.64,
0.164,-0.27,-0.53,-0.12,-0.27,-0.17,0.65,
0.164,-0.27,-0.53,-0.12,-0.24,-0.16,0.66,
0.164,-0.27,-0.53,-0.12,-0.21,-0.16,0.68,
0.164,-0.11,-0.46,-0.96,-0.21,-0.16,0.68,
0.164,-0.11,-0.46,-0.96,-0.18,-0.15,0.69,
0.165,-0.11,-0.46,-0.96,-0.16,-0.15,0.71,
0.165,-0.11,-0.46,-0.96,-0.15,-0.14,0.71,
0.165,-0.11,-0.46,-0.96,-0.14,-0.14,0.72,
0.166,-0.11,-0.46,-0.96,-0.14,-0.14,0.72,
0.168,0.60,-0.18,-2.11,-0.14,-0.14,0.72,
0.17,0.60,-0.18,-2.11,-0.15,-0.14,0.71,
0.171,0.60,-0.18,-2.11,-0.18,-0.14,0.68,
0.172,0.60,-0.18,-2.11,-0.18,-0.14,0.67,
0.174,0.60,-0.18,-2.11,-0.21,-0.14,0.63,
0.195,0.60,-0.18,-2.11,-0.24,-0.13,0.60,
0.195,1.61,0.23,-3.21,-0.24,-0.13,0.60,
0.196,1.61,0.23,-3.21,-0.27,-0.12,0.56,
0.196,1.61,0.23,-3.21,-0.32,-0.09,0.49,
0.196,1.61,0.23,-3.21,-0.33,-0.07,0.46,
0.196,1.61,0.23,-3.21,-0.37,-0.04,0.41,
0.196,1.61,0.23,-3.21,-0.40,-0.00,0.35,
0.196,1.82,0.55,-3.87,-0.40,-0.00,0.35,
0.196,1.82,0.55,-3.87,-0.44,0.04,0.29,
0.197,1.82,0.55,-3.87,-0.49,0.12,0.20,
0.197,1.82,0.55,-3.87,-0.51,0.15,0.17,
0.197,1.82,0.55,-3.87,-0.54,0.21,0.10,
0.197,1.82,0.55,-3.87,-0.57,0.28,0.03,
0.22,1.80,0.44,-4.11,-0.57,0.28,0.03,
0.221,1.80,0.44,-4.11,-0.60,0.35,-0.03,
0.221,1.80,0.44,-4.11,-0.62,0.47,-0.14,
0.222,1.80,0.44,-4.11,-0.63,0.51,-0.17,
0.222,1.80,0.44,-4.11,-0.64,0.58,-0.22,
0.222,1.80,0.44,-4.11,-0.65,0.64,-0.26,
0.223,1.31,0.23,-3.71,-0.65,0.64,-0.26,
0.223,1.31,0.23,-3.71,-0.65,0.70,-0.29,
0.252,1.31,0.23,-3.71,-0.66,0.77,-0.32,
0.253,1.31,0.23,-3.71,-0.66,0.79,-0.33,
0.253,1.31,0.23,-3.71,-0.66,0.82,-0.33,
0.254,1.31,0.23,-3.71,-0.66,0.84,-0.33,
0.254,0.53,0.00,-3.17,-0.66,0.84,-0.33,
0.255,0.53,0.00,-3.17,-0.67,0.85,-0.32,
0.255,0.53,0.00,-3.17,-0.67,0.85,-0.29,
0.255,0.53,0.00,-3.17,-0.68,0.85,-0.28,
0.256,0.53,0.00,-3.17,-0.68,0.85,-0.25,
0.256,0.53,0.00,-3.17,-0.69,0.85,-0.22,
0.257,0.16,0.32,-2.77,-0.69,0.85,-0.22,
0.257,0.16,0.32,-2.77,-0.71,0.84,-0.19,
0.257,0.16,0.32,-2.77,-0.73,0.83,-0.12,
0.258,0.16,0.32,-2.77,-0.74,0.82,-0.10,
0.258,0.16,0.32,-2.77,-0.76,0.82,-0.06,
0.259,0.16,0.32,-2.77,-0.78,0.83,-0.01,
0.259,-0.20,0.57,-2.31,-0.78,0.83,-0.01,
0.259,-0.20,0.57,-2.31,-0.81,0.84,0.04,
0.26,-0.20,0.57,-2.31,-0.84,0.87,0.12,
0.26,-0.20,0.57,-2.31,-0.85,0.89,0.15,
0.261,-0.20,0.57,-2.31,-0.88,0.92,0.20,
0.261,-0.20,0.57,-2.31,-0.91,0.96,0.24,
0.261,-0.69,0.51,-1.86,-0.91,0.96,0.24,
0.262,-0.69,0.51,-1.86,-0.93,0.99,0.29,
0.262,-0.69,0.51,-1.86,-0.96,1.05,0.35,
0.263,-0.69,0.51,-1.86,-0.97,1.08,0.37,
0.263,-0.69,0.51,-1.86,-0.99,1.12,0.40,
0.263,-0.69,0.51,-1.86,-1.01,1.16,0.42,
0.264,-0.64,0.25,-1.51,-1.01,1.16,0.42,
0.264,-0.64,0.25,-1.51,-1.02,1.20,0.44,
0.265,-0.64,0.25,-1.51,-1.03,1.27,0.45,
0.266,-0.64,0.25,-1.51,-1.03,1.29,0.45,
0.266,-0.64,0.25,-1.51,-1.04,1.32,0.45,
0.266,-0.64,0.25,-1.51,-1.03,1.36,0.44,
0.269,-0.28,0.06,-1.19,-1.03,1.36,0.44,
0.27,-0.28,0.06,-1.19,-1.02,1.40,0.43,
0.272,-0.28,0.06,-1.19,-1.01,1.46,0.40,
0.272,-0.28,0.06,-1.19,-1.00,1.48,0.39,
0.275,-0.28,0.06,-1.19,-0.98,1.52,0.37,
0.278,-0.28,0.06,-1.19,-0.96,1.56,0.34,
0.279,0.19,-0.25,-0.81,-0.96,1.56,0.34,
0.279,0.19,-0.25,-0.81,-0.93,1.60,0.31,
0.281,0.19,-0.25,-0.81,-0.89,1.65,0.26,
0.282,0.19,-0.25,-0.81,-0.87,1.67,0.24,
0.284,0.19,-0.25,-0.81,-0.84,1.70,0.20,
0.286,0.19,-0.25,-0.81,-0.80,1.74,0.16,
0.288,0.55,-0.62,-0.57,-0.80,1.74,0.16,
0.289,0.55,-0.62,-0.57,-0.76,1.77,0.12,
0.291,0.55,-0.62,-0.57,-0.70,1.81,0.05,
0.292,0.55,-0.62,-0.57,-0.68,1.83,0.03,
0.304,0.55,-0.62,-0.57,-0.63,1.85,-0.02,
0.304,0.55,-0.62,-0.57,-0.58,1.88,-0.08,
0.305,0.73,-0.91,-0.41,-0.58,1.88,-0.08,
0.305,0.73,-0.91,-0.41,-0.53,1.90,-0.13,
0.306,0.73,-0.91,-0.41,-0.46,1.92,-0.22,
0.306,0.73,-0.91,-0.41,-0.43,1.93,-0.25,
0.307,0.73,-0.91,-0.41,-0.37,1.95,-0.32,
0.307,0.73,-0.91,-0.41,-0.32,1.96,-0.38,
0.309,1.04,-1.13,-0.30,-0.32,1.96,-0.38,
0.309,1.04,-1.13,-0.30,-0.26,1.98,-0.44,
0.311,1.04,-1.13,-0.30,-0.18,2.00,-0.54,
0.313,1.04,-1.13,-0.30,-0.15,2.01,-0.57,
0.314,1.04,-1.13,-0.30,-0.10,2.03,-0.62,
0.316,1.04,-1.13,-0.30,-0.05,2.05,-0.67,
0.337,0.94,-1.24,-0.35,-0.05,2.05,-0.67,
0.338,0.94,-1.24,-0.35,0.01,2.07,-0.71,
0.338,0.94,-1.24,-0.35,0.08,2.09,-0.77,
0.338,0.94,-1.24,-0.35,0.10,2.09,-0.78,
0.339,0.94,-1.24,-0.35,0.14,2.09,-0.80,
0.339,0.94,-1.24,-0.35,0.18,2.10,-0.82,
0.339,0.37,-1.26,-0.66,0.18,2.10,-0.82,
0.339,0.37,-1.26,-0.66,0.22,2.09,-0.83,
0.34,0.37,-1.26,-0.66,0.26,2.09,-0.83,
0.34,0.37,-1.26,-0.66,0.27,2.08,-0.83,
0.34,0.37,-1.26,-0.66,0.29,2.08,-0.82,
0.341,0.37,-1.26,-0.66,0.32,2.07,-0.81,
0.341,0.06,-0.97,-1.04,0.32,2.07,-0.81,
0.341,0.06,-0.97,-1.04,0.34,2.07,-0.80,
0.341,0.06,-0.97,-1.04,0.36,2.06,-0.78,
0.344,0.06,-0.97,-1.04,0.37,2.06,-0.77,
0.344,0.06,-0.97,-1.04,0.38,2.05,-0.76,
0.346,0.06,-0.97,-1.04,0.39,2.04,-0.74,
0.348,0.04,-0.71,-1.40,0.39,2.04,-0.74,
0.348,0.04,-0.71,-1.40,0.39,2.03,-0.72,
0.351,0.04,-0.71,-1.40,0.40,2.01,-0.70,
0.355,0.04,-0.71,-1.40,0.40,2.00,-0.69,
0.355,0.04,-0.71,-1.40,0.40,1.98,-0.67,
0.356,0.04,-0.71,-1.40,0.39,1.97,-0.66,
0.358,0.30,-0.60,-1.99,0.39,1.97,-0.66,
0.358,0.30,-0.60,-1.99,0.39,1.95,-0.65,
0.361,0.30,-0.60,-1.99,0.38,1.93,-0.63,
0.362,0.30,-0.60,-1.99,0.37,1.92,-0.63,
0.364,0.30,-0.60,-1.99,0.36,1.91,-0.63,
0.366,0.30,-0.60,-1.99,0.35,1.90,-0.63,
0.368,0.86,-0.75,-2.54,0.35,1.90,-0.63,
0.368,0.86,-0.75,-2.54,0.34,1.89,-0.64,
0.372,0.86,-0.75,-2.54,0.33,1.90,-0.66,
0.372,0.86,-0.75,-2.54,0.33,1.90,-0.66,
0.374,0.86,-0.75,-2.54,0.32,1.91,-0.68,
0.384,0.86,-0.75,-2.54,0.31,1.93,-0.71,
0.41,1.45,-1.17,-2.84,0.31,1.93,-0.71,
0.411,1.45,-1.17,-2.84,0.31,1.95,-0.74,
0.411,1.45,-1.17,-2.84,0.31,1.98,-0.79,
0.411,1.45,-1.17,-2.84,0.31,2.00,-0.81,
0.411,1.45,-1.17,-2.84,0.30,2.03,-0.84,
0.412,1.45,-1.17,-2.84,0.31,2.05,-0.88,
0.412,2.00,-1.74,-2.76,0.31,2.05,-0.88,
0.412,2.00,-1.74,-2.76,0.32,2.09,-0.93,
0.413,2.00,-1.74,-2.76,0.33,2.14,-0.99,
0.413,2.00,-1.74,-2.76,0.34,2.15,-1.01,
0.413,2.00,-1.74,-2.76,0.36,2.17,-1.06,
0.414,2.00,-1.74,-2.76,0.37,2.16,-1.12,
0.414,2.21,-2.48,-2.19,0.37,2.16,-1.12,
0.414,2.21,-2.48,-2.19,0.38,2.11,-1.18,
0.414,2.21,-2.48,-2.19,0.40,2.05,-1.29,
0.414,2.21,-2.48,-2.19,0.40,2.04,-1.32,
0.415,2.21,-2.48,-2.19,0.42,2.05,-1.39,
0.415,2.21,-2.48,-2.19,0.45,2.07,-1.46,
0.415,2.27,-3.08,-1.66,0.45,2.07,-1.46,
0.415,2.27,-3.08,-1.66,0.48,2.10,-1.52,
0.415,2.27,-3.08,-1.66,0.53,2.12,-1.61,
0.415,2.27,-3.08,-1.66,0.54,2.12,-1.64,
0.416,2.27,-3.08,-1.66,0.57,2.12,-1.70,
0.416,2.27,-3.08,-1.66,0.60,2.10,-1.76,
0.419,2.09,-3.12,-1.55,0.60,2.10,-1.76,
0.419,2.09,-3.12,-1.55,0.62,2.07,-1.82,
0.421,2.09,-3.12,-1.55,0.66,2.04,-1.91,
0.422,2.09,-3.12,-1.55,0.66,2.02,-1.93,
0.424,2.09,-3.12,-1.55,0.68,2.00,-1.99,
0.426,2.09,-3.12,-1.55,0.69,1.97,-2.04,
0.429,2.03,-3.18,-2.01,0.69,1.97,-2.04,
0.429,2.03,-3.18,-2.01,0.70,1.94,-2.09,
0.431,2.03,-3.18,-2.01,0.72,1.89,-2.16,
0.432,2.03,-3.18,-2.01,0.72,1.88,-2.18,
0.434,2.03,-3.18,-2.01,0.73,1.85,-2.22,
0.436,2.03,-3.18,-2.01,0.73,1.83,-2.26,
0.438,1.75,-2.82,-2.51,0.73,1.83,-2.26,
0.438,1.75,-2.82,-2.51,0.74,1.82,-2.29,
0.443,1.75,-2.82,-2.51,0.75,1.82,-2.34,
0.443,1.75,-2.82,-2.51,0.76,1.82,-2.35,
0.444,1.75,-2.82,-2.51,0.77,1.83,-2.38,
0.446,1.75,-2.82,-2.51,0.78,1.84,-2.41,
0.448,1.16,-2.47,-2.50,0.78,1.84,-2.41,
0.449,1.16,-2.47,-2.50,0.79,1.86,-2.44,
0.451,1.16,-2.47,-2.50,0.81,1.89,-2.48,
0.452,1.16,-2.47,-2.50,0.82,1.91,-2.49,
0.454,1.16,-2.47,-2.50,0.84,1.94,-2.52,
0.457,1.16,-2.47,-2.50,0.85,1.97,-2.54,
0.458,1.05,-2.16,-2.12,0.85,1.97,-2.54,
0.458,1.05,-2.16,-2.12,0.87,2.01,-2.57,
0.462,1.05,-2.16,-2.12,0.90,2.07,-2.60,
0.462,1.05,-2.16,-2.12,0.91,2.09,-2.61,
0.464,1.05,-2.16,-2.12,0.93,2.14,-2.63,
0.466,1.05,-2.16,-2.12,0.96,2.17,-2.65,
0.468,1.27,-2.10,-1.71,0.96,2.17,-2.65,
0.468,1.27,-2.10,-1.71,0.98,2.21,-2.67,
0.471,1.27,-2.10,-1.71,1.01,2.27,-2.69,
0.472,1.27,-2.10,-1.71,1.03,2.29,-2.70,
0.474,1.27,-2.10,-1.71,1.05,2.33,-2.72,
0.476,1.27,-2.10,-1.71,1.08,2.38,-2.73,
0.478,1.56,-2.03,-1.20,1.08,2.38,-2.73,
0.481,1.56,-2.03,-1.20,1.11,2.42,-2.73,
0.482,1.56,-2.03,-1.20,1.16,2.47,-2.74,
0.483,1.56,-2.03,-1.20,1.18,2.49,-2.74,
0.484,1.56,-2.03,-1.20,1.21,2.53,-2.75,
0.486,1.56,-2.03,-1.20,1.25,2.57,-2.76,
0.488,1.95,-2.27,-0.32,1.25,2.57,-2.76,
0.488,1.95,-2.27,-0.32,1.29,2.60,-2.77,
0.491,1.95,-2.27,-0.32,1.35,2.65,-2.80,
0.493,1.95,-2.27,-0.32,1.37,2.66,-2.81,
0.495,1.95,-2.27,-0.32,1.41,2.69,-2.84,
0.496,1.95,-2.27,-0.32,1.44,2.71,-2.86,
0.499,2.18,-2.73,0.00,1.44,2.71,-2.86,
0.499,2.18,-2.73,0.00,1.48,2.72,-2.89,
0.507,2.18,-2.73,0.00,1.52,2.71,-2.94,
0.509,2.18,-2.73,0.00,1.53,2.70,-2.96,
0.509,2.18,-2.73,0.00,1.56,2.69,-3.00,
0.51,2.18,-2.73,0.00,1.58,2.67,-3.04,
0.51,2.17,-3.48,-0.08,1.58,2.67,-3.04,
0.51,2.17,-3.48,-0.08,1.61,2.66,-3.09,
0.511,2.17,-3.48,-0.08,1.64,2.61,-3.16,
0.514,2.17,-3.48,-0.08,1.64,2.59,-3.19,
0.516,2.17,-3.48,-0.08,1.65,2.54,-3.24,
0.516,2.17,-3.48,-0.08,1.66,2.49,-3.29,
0.519,2.21,-3.72,-0.42,1.66,2.49,-3.29,
0.519,2.21,-3.72,-0.42,1.66,2.44,-3.34,
0.524,2.21,-3.72,-0.42,1.65,2.38,-3.41,
0.524,2.21,-3.72,-0.42,1.65,2.36,-3.43,
0.524,2.21,-3.72,-0.42,1.64,2.33,-3.47,
0.534,2.21,-3.72,-0.42,1.62,2.31,-3.51,
0.535,1.45,-3.47,-0.82,1.62,2.31,-3.51,
0.535,1.45,-3.47,-0.82,1.61,2.29,-3.54,
0.536,1.45,-3.47,-0.82,1.59,2.28,-3.58,
0.536,1.45,-3.47,-0.82,1.58,2.29,-3.59,
0.537,1.45,-3.47,-0.82,1.56,2.30,-3.60,
0.537,1.45,-3.47,-0.82,1.54,2.33,-3.61,
0.538,0.29,-2.67,-0.47,1.54,2.33,-3.61,
0.538,0.29,-2.67,-0.47,1.53,2.37,-3.61,
0.559,0.29,-2.67,-0.47,1.52,2.46,-3.60,
0.559,0.29,-2.67,-0.47,1.52,2.49,-3.60,
0.586,0.29,-2.67,-0.47,1.52,2.57,-3.58,
0.586,0.29,-2.67,-0.47,1.52,2.64,-3.56,
0.587,-0.71,-1.95,0.92,1.52,2.64,-3.56,
0.587,-0.71,-1.95,0.92,1.52,2.72,-3.53,
0.587,-0.71,-1.95,0.92,1.52,2.82,-3.48,
0.587,-0.71,-1.95,0.92,1.53,2.85,-3.46,
0.587,-0.71,-1.95,0.92,1.54,2.91,-3.42,
0.588,-0.71,-1.95,0.92,1.55,2.97,-3.38,
0.588,-1.27,-1.38,2.10,1.55,2.97,-3.38,
0.588,-1.27,-1.38,2.10,1.56,3.03,-3.33,
0.588,-1.27,-1.38,2.10,1.58,3.10,-3.25,
0.588,-1.27,-1.38,2.10,1.58,3.13,-3.22,
0.588,-1.27,-1.38,2.10,1.60,3.17,-3.17,
0.589,-1.27,-1.38,2.10,1.62,3.19,-3.11,
0.589,-2.14,-0.85,2.75,1.62,3.19,-3.11,
0.589,-2.14,-0.85,2.75,1.63,3.21,-3.05,
0.589,-2.14,-0.85,2.75,1.65,3.21,-2.95,
0.589,-2.14,-0.85,2.75,1.65,3.20,-2.92,
0.59,-2.14,-0.85,2.75,1.66,3.19,-2.86,
0.59,-2.14,-0.85,2.75,1.67,3.17,-2.80,
0.59,-2.59,-0.51,2.69,1.67,3.17,-2.80,
0.59,-2.59,-0.51,2.69,1.67,3.15,-2.74,
0.59,-2.59,-0.51,2.69,1.67,3.11,-2.65,
0.591,-2.59,-0.51,2.69,1.67,3.09,-2.63,
0.591,-2.59,-0.51,2.69,1.66,3.06,-2.57,
0.591,-2.59,-0.51,2.69,1.66,3.02,-2.52,
0.591,-2.59,-0.76,2.51,1.66,3.02,-2.52,
0.591,-2.59,-0.76,2.51,1.65,2.98,-2.48,
0.591,-2.59,-0.76,2.51,1.64,2.91,-2.41,
0.593,-2.59,-0.76,2.51,1.64,2.88,-2.39,
0.594,-2.59,-0.76,2.51,1.63,2.81,-2.36,
0.596,-2.59,-0.76,2.51,1.62,2.74,-2.33,
0.598,-2.66,-1.26,2.94,1.62,2.74,-2.33,
0.598,-2.66,-1.26,2.94,1.62,2.65,-2.31,
0.601,-2.66,-1.26,2.94,1.61,2.51,-2.28,
0.602,-2.66,-1.26,2.94,1.60,2.46,-2.28,
0.605,-2.66,-1.26,2.94,1.59,2.35,-2.29,
0.606,-2.66,-1.26,2.94,1.58,2.23,-2.29,
0.609,-2.62,-2.13,3.51,1.58,2.23,-2.29,
0.609,-2.62,-2.13,3.51,1.56,2.11,-2.31,
0.611,-2.62,-2.13,3.51,1.54,1.90,-2.35,
0.613,-2.62,-2.13,3.51,1.52,1.82,-2.36,
0.614,-2.62,-2.13,3.51,1.50,1.66,-2.40,
0.616,-2.62,-2.13,3.51,1.47,1.49,-2.44,
0.618,-2.97,-2.53,3.59,1.47,1.49,-2.44,
0.618,-2.97,-2.53,3.59,1.44,1.31,-2.48,
0.623,-2.97,-2.53,3.59,1.37,0.92,-2.58,
0.623,-2.97,-2.53,3.59,1.37,0.92,-2.58,
0.624,-2.97,-2.53,3.59,1.34,0.73,-2.64,
0.626,-2.97,-2.53,3.59,1.30,0.54,-2.70,
0.628,-3.16,-2.52,3.45,1.30,0.54,-2.70,
0.629,-3.16,-2.52,3.45,1.25,0.35,-2.77,
0.631,-3.16,-2.52,3.45,1.19,0.10,-2.87,
0.632,-3.16,-2.52,3.45,1.16,0.02,-2.90,
0.634,-3.16,-2.52,3.45,1.11,-0.12,-2.97,
0.636,-3.16,-2.52,3.45,1.06,-0.25,-3.04,
0.638,-3.24,-2.28,2.68,1.06,-0.25,-3.04,
0.638,-3.24,-2.28,2.68,1.00,-0.36,-3.11,
0.646,-3.24,-2.28,2.68,0.92,-0.49,-3.21,
0.646,-3.24,-2.28,2.68,0.89,-0.53,-3.24,
0.646,-3.24,-2.28,2.68,0.84,-0.58,-3.31,
0.647,-3.24,-2.28,2.68,0.78,-0.62,-3.36,
0.649,-3.48,-1.77,1.69,0.78,-0.62,-3.36,
0.649,-3.48,-1.77,1.69,0.73,-0.63,-3.42,
0.651,-3.48,-1.77,1.69,0.65,-0.64,-3.49,
0.653,-3.48,-1.77,1.69,0.63,-0.63,-3.52,
0.654,-3.48,-1.77,1.69,0.59,-0.61,-3.56,
0.656,-3.48,-1.77,1.69,0.55,-0.58,-3.60,
0.664,-3.90,-0.94,1.12,0.55,-0.58,-3.60,
0.664,-3.90,-0.94,1.12,0.52,-0.54,-3.63,
0.664,-3.90,-0.94,1.12,0.48,-0.46,-3.68,
0.665,-3.90,-0.94,1.12,0.47,-0.43,-3.69,
0.665,-3.90,-0.94,1.12,0.45,-0.36,-3.72,
0.666,-3.90,-0.94,1.12,0.44,-0.29,-3.74,
0.67,-4.33,-0.14,0.96,0.44,-0.29,-3.74,
0.671,-4.33,-0.14,0.96,0.43,-0.21,-3.75,
0.672,-4.33,-0.14,0.96,0.44,-0.07,-3.78,
0.675,-4.33,-0.14,0.96,0.44,-0.03,-3.78,
0.675,-4.33,-0.14,0.96,0.45,0.06,-3.79,
0.676,-4.33,-0.14,0.96,0.47,0.15,-3.80,
0.679,-4.62,0.40,1.22,0.47,0.15,-3.80,
0.679,-4.62,0.40,1.22,0.49,0.24,-3.81,
0.681,-4.62,0.40,1.22,0.52,0.38,-3.81,
0.682,-4.62,0.40,1.22,0.53,0.42,-3.81,
0.684,-4.62,0.40,1.22,0.56,0.51,-3.80,
0.686,-4.62,0.40,1.22,0.58,0.59,-3.80,
0.688,-5.16,0.88,1.42,0.58,0.59,-3.80,
0.688,-5.16,0.88,1.42,0.61,0.66,-3.79,
0.691,-5.16,0.88,1.42,0.64,0.76,-3.77,
0.692,-5.16,0.88,1.42,0.65,0.78,-3.76,
0.694,-5.16,0.88,1.42,0.67,0.83,-3.74,
0.696,-5.16,0.88,1.42,0.69,0.87,-3.72,
0.698,-5.99,1.25,1.79,0.69,0.87,-3.72,
0.698,-5.99,1.25,1.79,0.71,0.91,-3.70,
0.701,-5.99,1.25,1.79,0.72,0.96,-3.65,
0.702,-5.99,1.25,1.79,0.73,0.97,-3.64,
0.704,-5.99,1.25,1.79,0.74,1.00,-3.61,
0.706,-5.99,1.25,1.79,0.75,1.02,-3.57,
0.708,-7.33,1.76,2.66,0.75,1.02,-3.57,
0.708,-7.33,1.76,2.66,0.76,1.03,-3.54,
0.728,-7.33,1.76,2.66,0.78,1.04,-3.48,
0.729,-7.33,1.76,2.66,0.79,1.04,-3.45,
0.729,-7.33,1.76,2.66,0.80,1.04,-3.41,
0.729,-7.33,1.76,2.66,0.82,1.03,-3.37,
0.73,-8.42,2.11,4.11,0.82,1.03,-3.37,
0.73,-8.42,2.11,4.11,0.84,1.01,-3.32,
0.73,-8.42,2.11,4.11,0.88,0.97,-3.25,
0.73,-8.42,2.11,4.11,0.90,0.96,-3.23,
0.731,-8.42,2.11,4.11,0.93,0.92,-3.18,
0.731,-8.42,2.11,4.11,0.97,0.89,-3.13,
0.731,-8.92,2.68,5.62,0.97,0.89,-3.13,
0.731,-8.92,2.68,5.62,1.00,0.84,-3.09,
0.732,-8.92,2.68,5.62,1.07,0.76,-3.02,
0.732,-8.92,2.68,5.62,1.09,0.73,-3.00,
0.735,-8.92,2.68,5.62,1.13,0.67,-2.95,
0.736,-8.92,2.68,5.62,1.18,0.60,-2.92,
0.74,-8.73,3.21,6.34,1.18,0.60,-2.92,
0.74,-8.73,3.21,6.34,1.23,0.52,-2.88,
0.742,-8.73,3.21,6.34,1.29,0.41,-2.83,
0.743,-8.73,3.21,6.34,1.32,0.36,-2.82,
0.746,-8.73,3.21,6.34,1.36,0.28,-2.79,
0.747,-8.73,3.21,6.34,1.42,0.16,-2.75,
0.754,-8.00,4.02,6.10,1.42,0.16,-2.75,
0.754,-8.00,4.02,6.10,1.44,0.12,-2.73,
0.754,-8.00,4.02,6.10,1.49,-0.00,-2.69,
0.755,-8.00,4.02,6.10,1.50,-0.04,-2.68,
0.756,-8.00,4.02,6.10,1.53,-0.11,-2.66,
0.756,-8.00,4.02,6.10,1.55,-0.18,-2.63,
0.759,-7.42,4.25,5.15,1.55,-0.18,-2.63,
0.759,-7.42,4.25,5.15,1.56,-0.24,-2.60,
0.761,-7.42,4.25,5.15,1.58,-0.33,-2.56,
0.766,-7.42,4.25,5.15,1.58,-0.35,-2.55,
0.767,-7.42,4.25,5.15,1.59,-0.40,-2.52,
0.767,-7.42,4.25,5.15,1.59,-0.44,-2.49,
0.768,-7.10,4.23,3.85,1.59,-0.44,-2.49,
0.768,-7.10,4.23,3.85,1.58,-0.48,-2.45,
0.772,-7.10,4.23,3.85,1.57,-0.53,-2.40,
0.772,-7.10,4.23,3.85,1.56,-0.54,-2.39,
0.776,-7.10,4.23,3.85,1.55,-0.56,-2.35,
0.777,-7.10,4.23,3.85,1.53,-0.58,-2.31,
0.779,-7.05,3.58,2.66,1.53,-0.58,-2.31,
0.779,-7.05,3.58,2.66,1.51,-0.60,-2.27,
0.781,-7.05,3.58,2.66,1.49,-0.62,-2.20,
0.781,-7.05,3.58,2.66,1.48,-0.62,-2.18,
0.788,-7.05,3.58,2.66,1.47,-0.62,-2.12,
0.789,-7.05,3.58,2.66,1.45,-0.63,-2.07,
0.789,-7.25,3.06,2.24,1.45,-0.63,-2.07,
0.79,-7.25,3.06,2.24,1.44,-0.63,-2.01,
0.803,-7.25,3.06,2.24,1.43,-0.62,-1.92,
0.803,-7.25,3.06,2.24,1.43,-0.62,-1.88,
0.803,-7.25,3.06,2.24,1.42,-0.62,-1.81,
0.804,-7.25,3.06,2.24,1.42,-0.62,-1.73,
0.804,-7.75,2.52,2.19,1.42,-0.62,-1.73,
0.804,-7.75,2.52,2.19,1.41,-0.63,-1.65,
0.804,-7.75,2.52,2.19,1.40,-0.65,-1.53,
0.804,-7.75,2.52,2.19,1.40,-0.66,-1.49,
0.804,-7.75,2.52,2.19,1.40,-0.68,-1.40,
0.807,-7.75,2.52,2.19,1.40,-0.71,-1.32,
0.808,-7.77,2.23,1.92,1.40,-0.71,-1.32,
0.808,-7.77,2.23,1.92,1.40,-0.76,-1.23,
0.811,-7.77,2.23,1.92,1.40,-0.83,-1.10,
0.814,-7.77,2.23,1.92,1.40,-0.85,-1.06,
0.814,-7.77,2.23,1.92,1.41,-0.90,-0.98,
0.816,-7.77,2.23,1.92,1.41,-0.94,-0.91,
0.818,-6.68,1.70,2.10,1.41,-0.94,-0.91,
0.818,-6.68,1.70,2.10,1.43,-0.99,-0.85,
0.822,-6.68,1.70,2.10,1.45,-1.04,-0.78,
0.822,-6.68,1.70,2.10,1.46,-1.06,-0.77,
0.825,-6.68,1.70,2.10,1.48,-1.10,-0.74,
0.827,-6.68,1.70,2.10,1.50,-1.15,-0.72,
0.828,-4.81,1.33,2.47,1.50,-1.15,-0.72,
0.828,-4.81,1.33,2.47,1.51,-1.22,-0.70,
0.831,-4.81,1.33,2.47,1.53,-1.36,-0.70,
0.832,-4.81,1.33,2.47,1.54,-1.41,-0.70,
0.834,-4.81,1.33,2.47,1.54,-1.53,-0.70,
0.836,-4.81,1.33,2.47,1.54,-1.66,-0.71,
0.838,-3.70,0.87,1.37,1.54,-1.66,-0.71,
0.838,-3.70,0.87,1.37,1.54,-1.78,-0.73,
0.841,-3.70,0.87,1.37,1.53,-1.94,-0.76,
0.842,-3.70,0.87,1.37,1.53,-1.99,-0.77,
0.845,-3.70,0.87,1.37,1.52,-2.05,-0.79,
0.851,-3.70,0.87,1.37,1.52,-2.08,-0.82,
0.852,-3.31,0.75,0.02,1.52,-2.08,-0.82,
0.852,-3.31,0.75,0.02,1.52,-2.07,-0.85,
0.852,-3.31,0.75,0.02,1.53,-2.02,-0.88,
0.853,-3.31,0.75,0.02,1.53,-2.00,-0.88,
0.854,-3.31,0.75,0.02,1.53,-1.96,-0.89,
0.856,-3.31,0.75,0.02,1.53,-1.93,-0.90,
0.858,-3.48,0.79,-1.00,1.53,-1.93,-0.90,
0.858,-3.48,0.79,-1.00,1.53,-1.91,-0.89,
0.861,-3.48,0.79,-1.00,1.52,-1.90,-0.87,
0.862,-3.48,0.79,-1.00,1.52,-1.90,-0.86,
0.864,-3.48,0.79,-1.00,1.51,-1.89,-0.83,
0.866,-3.48,0.79,-1.00,1.50,-1.88,-0.79,
0.868,-4.00,1.28,-2.90,1.50,-1.88,-0.79,
0.868,-4.00,1.28,-2.90,1.49,-1.85,-0.75,
0.871,-4.00,1.28,-2.90,1.49,-1.77,-0.68,
0.872,-4.00,1.28,-2.90,1.49,-1.74,-0.65,
0.874,-4.00,1.28,-2.90,1.49,-1.68,-0.59,
0.876,-4.00,1.28,-2.90,1.49,-1.61,-0.52,
0.892,-3.65,1.71,-3.78,1.49,-1.61,-0.52,
0.892,-3.65,1.71,-3.78,1.48,-1.56,-0.45,
0.893,-3.65,1.71,-3.78,1.48,-1.50,-0.34,
0.893,-3.65,1.71,-3.78,1.47,-1.49,-0.31,
0.893,-3.65,1.71,-3.78,1.46,-1.47,-0.23,
0.893,-3.65,1.71,-3.78,1.44,-1.46,-0.16,
0.894,-2.61,1.55,-5.06,1.44,-1.46,-0.16,
0.894,-2.61,1.55,-5.06,1.42,-1.44,-0.10,
0.894,-2.61,1.55,-5.06,1.39,-1.38,-0.02,
0.894,-2.61,1.55,-5.06,1.37,-1.34,-0.01,
0.894,-2.61,1.55,-5.06,1.34,-1.25,0.02,
0.896,-2.61,1.55,-5.06,1.32,-1.13,0.04,
0.898,-0.97,1.90,-5.40,1.32,-1.13,0.04,
0.898,-0.97,1.90,-5.40,1.29,-1.00,0.05,
0.901,-0.97,1.90,-5.40,1.25,-0.81,0.06,
0.901,-0.97,1.90,-5.40,1.23,-0.75,0.07,
0.903,-0.97,1.90,-5.40,1.20,-0.65,0.08,
0.905,-0.97,1.90,-5.40,1.17,-0.58,0.09,
0.908,-0.41,1.56,-5.06,1.17,-0.58,0.09,
0.908,-0.41,1.56,-5.06,1.14,-0.51,0.09,
0.912,-0.41,1.56,-5.06,1.10,-0.43,0.10,
0.912,-0.41,1.56,-5.06,1.09,-0.40,0.11,
0.914,-0.41,1.56,-5.06,1.06,-0.33,0.11,
0.916,-0.41,1.56,-5.06,1.05,-0.25,0.11,
0.918,-0.41,0.89,-4.51,1.05,-0.25,0.11,
0.918,-0.41,0.89,-4.51,1.03,-0.16,0.11,
0.921,-0.41,0.89,-4.51,1.03,-0.00,0.10,
0.922,-0.41,0.89,-4.51,1.03,0.05,0.10,
0.927,-0.41,0.89,-4.51,1.04,0.15,0.10,
0.928,-0.41,0.89,-4.51,1.04,0.22,0.10,
0.93,-0.70,0.44,-3.02,1.04,0.22,0.10,
0.93,-0.70,0.44,-3.02,1.05,0.27,0.11,
0.931,-0.70,0.44,-3.02,1.08,0.32,0.11,
0.932,-0.70,0.44,-3.02,1.08,0.33,0.11,
0.938,-0.70,0.44,-3.02,1.09,0.35,0.11,
0.938,-0.70,0.44,-3.02,1.11,0.39,0.11,
0.938,-0.41,0.24,-2.10,1.11,0.39,0.11,
0.938,-0.41,0.24,-2.10,1.12,0.44,0.10,
0.95,-0.41,0.24,-2.10,1.15,0.53,0.08,
0.951,-0.41,0.24,-2.10,1.16,0.56,0.07,
0.951,-0.41,0.24,-2.10,1.19,0.62,0.05,
0.951,-0.41,0.24,-2.10,1.23,0.69,0.03,
0.951,-0.01,1.31,-0.58,1.23,0.69,0.03,
0.951,-0.01,1.31,-0.58,1.26,0.77,-0.01,
0.952,-0.01,1.31,-0.58,1.34,0.89,-0.05,
0.953,-0.01,1.31,-0.58,1.36,0.93,-0.06,
0.954,-0.01,1.31,-0.58,1.42,1.01,-0.08,
0.956,-0.01,1.31,-0.58,1.47,1.05,-0.10,
0.958,-0.28,1.79,1.23,1.47,1.05,-0.10,
0.96,-0.28,1.79,1.23,1.52,1.05,-0.10,
0.963,-0.28,1.79,1.23,1.58,0.97,-0.09,
0.963,-0.28,1.79,1.23,1.60,0.93,-0.08,
0.964,-0.28,1.79,1.23,1.63,0.80,-0.06,
0.966,-0.28,1.79,1.23,1.65,0.66,-0.04,
0.968,-0.85,1.41,0.68,1.65,0.66,-0.04,
0.968,-0.85,1.41,0.68,1.67,0.52,-0.03,
0.971,-0.85,1.41,0.68,1.67,0.33,-0.01,
0.972,-0.85,1.41,0.68,1.66,0.29,-0.01,
0.976,-0.85,1.41,0.68,1.64,0.23,-0.01,
0.977,-0.85,1.41,0.68,1.60,0.20,-0.01,
0.978,-0.79,1.87,-1.14,1.60,0.20,-0.01,
0.978,-0.79,1.87,-1.14,1.55,0.18,-0.02,
0.981,-0.79,1.87,-1.14,1.46,0.19,-0.02,
0.983,-0.79,1.87,-1.14,1.42,0.20,-0.02,
0.984,-0.79,1.87,-1.14,1.34,0.21,-0.01,
0.986,-0.79,1.87,-1.14,1.26,0.23,-0.00,
0.988,-0.50,2.17,-2.78,1.26,0.23,-0.00,
0.988,-0.50,2.17,-2.78,1.18,0.24,0.02,
0.995,-0.50,2.17,-2.78,1.06,0.28,0.05,
0.995,-0.50,2.17,-2.78,1.02,0.29,0.07,
0.995,-0.50,2.17,-2.78,0.95,0.33,0.11,
0.995,-0.50,2.17,-2.78,0.89,0.37,0.15,
1.0,-1.18,2.43,-3.59,0.89,0.37,0.15,
1.001,-1.18,2.43,-3.59,0.81,0.41,0.20,
1.001,-1.18,2.43,-3.59,0.72,0.47,0.29,
1.002,-1.18,2.43,-3.59,0.65,0.50,0.35,
1.004,-1.18,2.43,-3.59,0.62,0.52,0.37,
1.007,-1.18,2.43,-3.59,0.54,0.56,0.43,
1.009,-1.69,2.51,-4.18,0.54,0.56,0.43,
1.009,-1.69,2.51,-4.18,0.46,0.61,0.47,
1.011,-1.69,2.51,-4.18,0.34,0.68,0.54,
1.012,-1.69,2.51,-4.18,0.29,0.70,0.55,
1.015,-1.69,2.51,-4.18,0.20,0.76,0.59,
1.015,-1.69,2.51,-4.18,0.10,0.83,0.62,
1.019,-0.90,2.16,-5.00,0.10,0.83,0.62,
1.02,-0.90,2.16,-5.00,-0.01,0.89,0.64,
1.021,-0.90,2.16,-5.00,-0.19,0.98,0.68,
1.023,-0.90,2.16,-5.00,-0.25,1.00,0.69,
1.024,-0.90,2.16,-5.00,-0.38,1.05,0.71,
1.026,-0.90,2.16,-5.00,-0.50,1.08,0.74,
1.028,-0.09,2.04,-5.98,-0.50,1.08,0.74,
1.028,-0.09,2.04,-5.98,-0.63,1.09,0.76,
1.031,-0.09,2.04,-5.98,-0.81,1.10,0.80,
1.032,-0.09,2.04,-5.98,-0.86,1.09,0.82,
1.034,-0.09,2.04,-5.98,-0.96,1.08,0.85,
1.036,-0.09,2.04,-5.98,-1.05,1.06,0.88,
1.038,0.53,1.75,-5.21,-1.05,1.06,0.88,
1.038,0.53,1.75,-5.21,-1.12,1.04,0.91,
1.041,0.53,1.75,-5.21,-1.20,1.02,0.96,
1.042,0.53,1.75,-5.21,-1.22,1.01,0.98,
1.068,0.53,1.75,-5.21,-1.26,0.99,1.00,
1.068,0.53,1.75,-5.21,-1.29,0.97,1.03,
1.069,0.85,1.42,-3.58,-1.29,0.97,1.03,
1.069,0.85,1.42,-3.58,-1.31,0.96,1.05,
1.069,0.85,1.42,-3.58,-1.32,0.94,1.08,
1.07,0.85,1.42,-3.58,-1.32,0.94,1.09,
1.07,0.85,1.42,-3.58,-1.32,0.94,1.10,
1.071,0.85,1.42,-3.58,-1.31,0.94,1.11,
1.071,1.75,1.00,-2.41,-1.31,0.94,1.11,
1.071,1.75,1.00,-2.41,-1.30,0.94,1.11,
1.072,1.75,1.00,-2.41,-1.28,0.95,1.11,
1.072,1.75,1.00,-2.41,-1.27,0.95,1.11,
1.073,1.75,1.00,-2.41,-1.24,0.95,1.10,
1.073,1.75,1.00,-2.41,-1.21,0.94,1.09,
1.074,3.00,0.55,-1.76,-1.21,0.94,1.09,
1.074,3.00,0.55,-1.76,-1.18,0.93,1.08,
1.074,3.00,0.55,-1.76,-1.13,0.91,1.06,
1.075,3.00,0.55,-1.76,-1.11,0.89,1.05,
1.075,3.00,0.55,-1.76,-1.07,0.87,1.03,
1.083,3.00,0.55,-1.76,-1.04,0.83,1.02,
1.084,3.26,0.49,-1.17,-1.04,0.83,1.02,
1.084,3.26,0.49,-1.17,-1.00,0.79,1.01,
1.084,3.26,0.49,-1.17,-0.95,0.73,1.00,
1.084,3.26,0.49,-1.17,-0.93,0.71,0.99,
1.085,3.26,0.49,-1.17,-0.90,0.67,0.99,
1.086,3.26,0.49,-1.17,-0.86,0.63,1.00,
1.088,1.83,1.21,-0.41,-0.86,0.63,1.00,
1.088,1.83,1.21,-0.41,-0.83,0.62,1.00,
1.103,1.83,1.21,-0.41,-0.77,0.64,1.00,
1.104,1.83,1.21,-0.41,-0.75,0.66,0.99,
1.104,1.83,1.21,-0.41,-0.73,0.68,0.98,
1.104,1.83,1.21,-0.41,-0.69,0.72,0.94,
1.105,2.39,1.74,-0.09,-0.69,0.72,0.94,
1.105,2.39,1.74,-0.09,-0.68,0.73,0.94,
1.105,2.39,1.74,-0.09,-0.66,0.75,0.91,
1.106,2.39,1.74,-0.09,-0.66,0.76,0.90,
1.106,2.39,1.74,-0.09,-0.66,0.77,0.89,
1.106,2.39,1.74,-0.09,-0.66,0.78,0.88,
1.109,2.22,1.84,-0.61,-0.66,0.78,0.88,
1.109,2.22,1.84,-0.61,-0.65,0.80,0.88,
1.112,2.22,1.84,-0.61,-0.64,0.83,0.86,
1.112,2.22,1.84,-0.61,-0.63,0.84,0.86,
1.114,2.22,1.84,-0.61,-0.62,0.88,0.84,
1.115,2.22,1.84,-0.61,-0.59,0.91,0.82,
1.118,2.69,1.34,-0.22,-0.59,0.91,0.82,
1.12,2.69,1.34,-0.22,-0.56,0.94,0.79,
1.121,2.69,1.34,-0.22,-0.51,0.99,0.74,
1.123,2.69,1.34,-0.22,-0.49,1.00,0.72,
1.124,2.69,1.34,-0.22,-0.44,1.02,0.67,
1.126,2.69,1.34,-0.22,-0.39,1.04,0.62,
1.128,3.60,0.02,1.35,-0.39,1.04,0.62,
1.129,3.60,0.02,1.35,-0.33,1.06,0.57,
1.131,3.60,0.02,1.35,-0.23,1.09,0.49,
1.132,3.60,0.02,1.35,-0.20,1.10,0.46,
1.134,3.60,0.02,1.35,-0.12,1.12,0.41,
1.136,3.60,0.02,1.35,-0.04,1.14,0.35,
1.14,3.41,-0.77,2.85,-0.04,1.14,0.35,
1.141,3.41,-0.77,2.85,0.04,1.16,0.28,
1.142,3.41,-0.77,2.85,0.16,1.20,0.18,
1.142,3.41,-0.77,2.85,0.20,1.21,0.15,
1.144,3.41,-0.77,2.85,0.28,1.23,0.07,
1.146,3.41,-0.77,2.85,0.36,1.24,-0.01,
1.148,3.81,-1.06,2.95,0.36,1.24,-0.01,
1.148,3.81,-1.06,2.95,0.44,1.25,-0.10,
1.151,3.81,-1.06,2.95,0.54,1.24,-0.23,
1.152,3.81,-1.06,2.95,0.57,1.24,-0.27,
1.154,3.81,-1.06,2.95,0.63,1.22,-0.36,
1.159,3.81,-1.06,2.95,0.69,1.20,-0.45,
1.161,4.40,-0.93,1.62,0.69,1.20,-0.45,
1.161,4.40,-0.93,1.62,0.74,1.18,-0.54,
1.162,4.40,-0.93,1.62,0.80,1.14,-0.68,
1.162,4.40,-0.93,1.62,0.82,1.13,-0.72,
1.164,4.40,-0.93,1.62,0.85,1.11,-0.81,
1.166,4.40,-0.93,1.62,0.87,1.10,-0.89,
1.168,4.59,-0.85,0.10,0.87,1.10,-0.89,
1.168,4.59,-0.85,0.10,0.89,1.09,-0.97,
1.171,4.59,-0.85,0.10,0.90,1.10,-1.09,
1.173,4.59,-0.85,0.10,0.90,1.10,-1.12,
1.174,4.59,-0.85,0.10,0.89,1.12,-1.19,
1.176,4.59,-0.85,0.10,0.88,1.14,-1.25,
1.179,4.08,-0.61,-1.57,0.88,1.14,-1.25,
1.18,4.08,-0.61,-1.57,0.85,1.16,-1.30,
1.182,4.08,-0.61,-1.57,0.80,1.21,-1.37,
1.185,4.08,-0.61,-1.57,0.78,1.23,-1.39,
1.186,4.08,-0.61,-1.57,0.73,1.26,-1.42,
1.197,4.08,-0.61,-1.57,0.67,1.30,-1.44,
1.198,2.94,-0.78,-3.23,0.67,1.30,-1.44,
1.198,2.94,-0.78,-3.23,0.61,1.34,-1.46,
1.198,2.94,-0.78,-3.23,0.52,1.39,-1.49,
1.198,2.94,-0.78,-3.23,0.45,1.42,-1.50,
1.199,2.94,-0.78,-3.23,0.41,1.44,-1.51,
1.199,2.94,-0.78,-3.23,0.35,1.48,-1.52,
1.199,1.77,-0.83,-3.66,0.35,1.48,-1.52,
1.199,1.77,-0.83,-3.66,0.28,1.53,-1.52,
1.208,1.77,-0.83,-3.66,0.17,1.58,-1.53,
1.209,1.77,-0.83,-3.66,0.14,1.60,-1.53,
1.209,1.77,-0.83,-3.66,0.07,1.64,-1.53,
1.209,1.77,-0.83,-3.66,0.00,1.68,-1.54,
1.209,0.03,-0.57,-2.93,0.00,1.68,-1.54,
1.209,0.03,-0.57,-2.93,-0.06,1.73,-1.54,
1.229,0.03,-0.57,-2.93,-0.13,1.82,-1.54,
1.229,0.03,-0.57,-2.93,-0.16,1.85,-1.54,
1.23,0.03,-0.57,-2.93,-0.19,1.93,-1.53,
1.23,0.03,-0.57,-2.93,-0.23,2.00,-1.52,
1.23,-1.82,-0.75,-1.01,-0.23,2.00,-1.52,
1.231,-1.82,-0.75,-1.01,-0.25,2.08,-1.51,
1.231,-1.82,-0.75,-1.01,-0.28,2.20,-1.49,
1.231,-1.82,-0.75,-1.01,-0.28,2.24,-1.48,
1.232,-1.82,-0.75,-1.01,-0.29,2.32,-1.46,
1.239,-1.82,-0.75,-1.01,-0.29,2.39,-1.43,
1.24,-3.76,-0.95,0.73,-0.29,2.39,-1.43,
1.24,-3.76,-0.95,0.73,-0.29,2.45,-1.39,
1.24,-3.76,-0.95,0.73,-0.28,2.54,-1.33,
1.24,-3.76,-0.95,0.73,-0.28,2.57,-1.31,
1.24,-3.76,-0.95,0.73,-0.28,2.62,-1.26,
1.241,-3.76,-0.95,0.73,-0.27,2.68,-1.22,
1.241,-5.54,-0.11,1.70,-0.27,2.68,-1.22,
1.246,-5.54,-0.11,1.70,-0.27,2.73,-1.17,
1.247,-5.54,-0.11,1.70,-0.28,2.79,-1.09,
1.247,-5.54,-0.11,1.70,-0.29,2.81,-1.07,
1.247,-5.54,-0.11,1.70,-0.31,2.82,-1.02,
1.247,-5.54,-0.11,1.70,-0.35,2.81,-0.96,
1.256,-6.15,1.28,1.60,-0.35,2.81,-0.96,
1.256,-6.15,1.28,1.60,-0.40,2.79,-0.90,
1.256,-6.15,1.28,1.60,-0.47,2.79,-0.82,
1.256,-6.15,1.28,1.60,-0.50,2.78,-0.79,
1.257,-6.15,1.28,1.60,-0.55,2.77,-0.74,
1.257,-6.15,1.28,1.60,-0.61,2.75,-0.68,
1.263,-6.00,1.57,1.14,-0.61,2.75,-0.68,
1.263,-6.00,1.57,1.14,-0.68,2.74,-0.62,
1.263,-6.00,1.57,1.14,-0.82,2.68,-0.53,
1.263,-6.00,1.57,1.14,-0.87,2.65,-0.50,
1.264,-6.00,1.57,1.14,-0.98,2.61,-0.43,
1.266,-6.00,1.57,1.14,-1.10,2.56,-0.36,
1.268,-6.58,1.32,-0.38,-1.10,2.56,-0.36,
1.268,-6.58,1.32,-0.38,-1.22,2.51,-0.29,
1.271,-6.58,1.32,-0.38,-1.40,2.42,-0.17,
1.272,-6.58,1.32,-0.38,-1.53,2.36,-0.09,
1.274,-6.58,1.32,-0.38,-1.60,2.33,-0.06,
1.276,-6.58,1.32,-0.38,-1.74,2.27,0.01,
1.278,-7.04,0.68,-1.01,-1.74,2.27,0.01,
1.278,-7.04,0.68,-1.01,-1.87,2.22,0.07,
1.281,-7.04,0.68,-1.01,-2.07,2.17,0.15,
1.282,-7.04,0.68,-1.01,-2.13,2.15,0.17,
1.283,-7.04,0.68,-1.01,-2.26,2.13,0.21,
1.285,-7.04,0.68,-1.01,-2.38,2.12,0.23,
1.288,-6.09,0.08,-1.28,-2.38,2.12,0.23,
1.288,-6.09,0.08,-1.28,-2.49,2.13,0.26,
1.292,-6.09,0.08,-1.28,-2.64,2.17,0.28,
1.292,-6.09,0.08,-1.28,-2.69,2.19,0.29,
1.294,-6.09,0.08,-1.28,-2.77,2.25,0.29,
1.295,-6.09,0.08,-1.28,-2.85,2.31,0.29,
1.297,-5.13,-0.94,-0.87,-2.85,2.31,0.29,
1.298,-5.13,-0.94,-0.87,-2.91,2.37,0.28,
1.3,-5.13,-0.94,-0.87,-2.99,2.46,0.24,
1.302,-5.13,-0.94,-0.87,-3.01,2.49,0.23,
1.304,-5.13,-0.94,-0.87,-3.04,2.54,0.19,
1.307,-5.13,-0.94,-0.87,-3.06,2.59,0.16,
1.308,-3.94,-1.89,-0.19,-3.06,2.59,0.16,
1.309,-3.94,-1.89,-0.19,-3.07,2.65,0.12,
1.312,-3.94,-1.89,-0.19,-3.07,2.72,0.06,
1.312,-3.94,-1.89,-0.19,-3.05,2.76,0.02,
1.314,-3.94,-1.89,-0.19,-3.04,2.78,0.00,
1.315,-3.94,-1.89,-0.19,-3.00,2.83,-0.03,
1.318,-2.85,-1.89,1.34,-3.00,2.83,-0.03,
1.318,-2.85,-1.89,1.34,-2.94,2.87,-0.07,
1.322,-2.85,-1.89,1.34,-2.84,2.94,-0.11,
1.322,-2.85,-1.89,1.34,-2.80,2.96,-0.12,
1.324,-2.85,-1.89,1.34,-2.71,3.01,-0.14,
1.326,-2.85,-1.89,1.34,-2.59,3.05,-0.15,
1.328,-2.71,-1.68,3.81,-2.59,3.05,-0.15,
1.328,-2.71,-1.68,3.81,-2.45,3.07,-0.17,
1.331,-2.71,-1.68,3.81,-2.18,3.04,-0.20,
1.332,-2.71,-1.68,3.81,-2.08,3.01,-0.21,
1.334,-2.71,-1.68,3.81,-1.88,2.99,-0.23,
1.336,-2.71,-1.68,3.81,-1.71,3.01,-0.23,
1.339,-2.27,-1.72,6.40,-1.71,3.01,-0.23,
1.34,-2.27,-1.72,6.40,-1.55,3.05,-0.22,
1.341,-2.27,-1.72,6.40,-1.32,3.05,-0.21,
1.342,-2.27,-1.72,6.40,-1.18,3.03,-0.20,
1.345,-2.27,-1.72,6.40,-1.11,3.02,-0.19,
1.346,-2.27,-1.72,6.40,-0.96,3.00,-0.17,
1.348,-2.14,-1.49,5.44,-0.96,3.00,-0.17,
1.348,-2.14,-1.49,5.44,-0.83,2.98,-0.15,
1.351,-2.14,-1.49,5.44,-0.63,2.96,-0.13,
1.352,-2.14,-1.49,5.44,-0.56,2.95,-0.12,
1.368,-2.14,-1.49,5.44,-0.43,2.92,-0.12,
1.368,-2.14,-1.49,5.44,-0.31,2.91,-0.11,
1.368,-0.98,-1.58,4.71,-0.31,2.91,-0.11,
1.369,-0.98,-1.58,4.71,-0.20,2.91,-0.10,
1.369,-0.98,-1.58,4.71,-0.03,2.91,-0.09,
1.369,-0.98,-1.58,4.71,0.02,2.92,-0.08,
1.37,-0.98,-1.58,4.71,0.12,2.92,-0.06,
1.37,-0.98,-1.58,4.71,0.23,2.93,-0.04,
1.37,-1.17,-2.10,4.30,0.23,2.93,-0.04,
1.37,-1.17,-2.10,4.30,0.34,2.93,-0.02,
1.375,-1.17,-2.10,4.30,0.50,2.97,-0.00,
1.377,-1.17,-2.10,4.30,0.61,3.01,0.00,
1.378,-1.17,-2.10,4.30,0.66,3.03,0.00,
1.379,-1.17,-2.10,4.30,0.76,3.08,-0.00,
1.415,-0.33,-2.79,4.48,0.76,3.08,-0.00,
1.415,-0.33,-2.79,4.48,0.87,3.14,-0.02,
1.416,-0.33,-2.79,4.48,1.01,3.22,-0.04,
1.416,-0.33,-2.79,4.48,1.06,3.24,-0.05,
1.416,-0.33,-2.79,4.48,1.16,3.28,-0.07,
1.417,-0.33,-2.79,4.48,1.23,3.31,-0.10,
1.417,0.95,-3.21,4.31,1.23,3.31,-0.10,
1.418,0.95,-3.21,4.31,1.31,3.33,-0.13,
1.418,0.95,-3.21,4.31,1.42,3.36,-0.17,
1.418,0.95,-3.21,4.31,1.45,3.37,-0.19,
1.419,0.95,-3.21,4.31,1.52,3.37,-0.23,
1.419,0.95,-3.21,4.31,1.58,3.37,-0.27,
1.42,1.81,-2.92,3.37,1.58,3.37,-0.27,
1.42,1.81,-2.92,3.37,1.62,3.36,-0.31,
1.42,1.81,-2.92,3.37,1.67,3.36,-0.37,
1.421,1.81,-2.92,3.37,1.70,3.36,-0.41,
1.421,1.81,-2.92,3.37,1.72,3.36,-0.43,
1.422,1.81,-2.92,3.37,1.74,3.36,-0.47,
1.422,1.54,-2.53,2.31,1.74,3.36,-0.47,
1.422,1.54,-2.53,2.31,1.75,3.35,-0.51,
1.423,1.54,-2.53,2.31,1.77,3.35,-0.56,
1.423,1.54,-2.53,2.31,1.77,3.34,-0.58,
1.424,1.54,-2.53,2.31,1.72,3.33,-0.61,
1.424,1.54,-2.53,2.31,1.75,3.32,-0.64,
1.424,1.15,-2.15,1.64,1.75,3.32,-0.64,
1.425,1.15,-2.15,1.64,1.75,3.29,-0.69,
1.425,1.15,-2.15,1.64,1.73,3.25,-0.76,
1.426,1.15,-2.15,1.64,1.71,3.23,-0.81,
1.426,1.15,-2.15,1.64,1.69,3.22,-0.83,
1.427,1.15,-2.15,1.64,1.66,3.19,-0.88,
1.431,1.36,-2.55,1.09,1.66,3.19,-0.88,
1.432,1.36,-2.55,1.09,1.62,3.16,-0.92,
1.432,1.36,-2.55,1.09,1.55,3.09,-0.99,
1.436,1.36,-2.55,1.09,1.51,3.02,-1.04,
1.436,1.36,-2.55,1.09,1.48,2.98,-1.06,
1.437,1.36,-2.55,1.09,1.42,2.90,-1.11,
1.444,1.69,-2.55,0.54,1.42,2.90,-1.11,
1.445,1.69,-2.55,0.54,1.36,2.83,-1.15,
1.445,1.69,-2.55,0.54,1.27,2.74,-1.20,
1.446,1.69,-2.55,0.54,1.23,2.72,-1.21,
1.446,1.69,-2.55,0.54,1.16,2.70,-1.22,
1.446,1.69,-2.55,0.54,1.05,2.66,-1.23,
1.447,1.69,-1.64,0.12,1.05,2.66,-1.23,
1.448,1.69,-1.64,0.12,1.02,2.64,-1.24,
1.45,1.69,-1.64,0.12,0.91,2.57,-1.25,
1.451,1.69,-1.64,0.12,0.87,2.54,-1.26,
1.454,1.69,-1.64,0.12,0.79,2.48,-1.27,
1.456,1.69,-1.64,0.12,0.72,2.43,-1.28,
1.459,1.90,-1.38,0.53,0.72,2.43,-1.28,
1.46,1.90,-1.38,0.53,0.64,2.39,-1.28,
1.461,1.90,-1.38,0.53,0.53,2.34,-1.28,
1.462,1.90,-1.38,0.53,0.47,2.33,-1.28,
1.466,1.90,-1.38,0.53,0.44,2.34,-1.28,
1.467,1.90,-1.38,0.53,0.38,2.35,-1.27,
1.47,2.06,-0.92,1.51,0.38,2.35,-1.27,
1.47,2.06,-0.92,1.51,0.33,2.35,-1.27,
1.473,2.06,-0.92,1.51,0.26,2.24,-1.30,
1.474,2.06,-0.92,1.51,0.20,2.15,-1.33,
1.474,2.06,-0.92,1.51,0.17,2.11,-1.35,
1.476,2.06,-0.92,1.51,0.10,2.06,-1.38,
1.48,2.60,-1.00,2.44,0.10,2.06,-1.38,
1.481,2.60,-1.00,2.44,0.03,2.01,-1.40,
1.483,2.60,-1.00,2.44,-0.10,1.96,-1.43,
1.484,2.60,-1.00,2.44,-0.18,1.92,-1.45,
1.484,2.60,-1.00,2.44,-0.22,1.91,-1.46,
1.488,2.60,-1.00,2.44,-0.31,1.88,-1.47,
1.488,2.81,0.16,1.82,-0.31,1.88,-1.47,
1.488,2.81,0.16,1.82,-0.41,1.87,-1.49,
1.496,2.81,0.16,1.82,-0.55,1.87,-1.52,
1.497,2.81,0.16,1.82,-0.64,1.89,-1.53,
1.497,2.81,0.16,1.82,-0.68,1.89,-1.54,
1.497,2.81,0.16,1.82,-0.77,1.91,-1.55,
1.498,3.48,1.08,1.36,-0.77,1.91,-1.55,
1.498,3.48,1.08,1.36,-0.85,1.93,-1.57,
1.501,3.48,1.08,1.36,-0.97,1.93,-1.61,
1.502,3.48,1.08,1.36,-1.04,1.93,-1.64,
1.526,3.48,1.08,1.36,-1.08,1.93,-1.66,
1.526,3.48,1.08,1.36,-1.14,1.93,-1.70,
1.526,4.48,1.41,1.70,-1.14,1.93,-1.70,
1.527,4.48,1.41,1.70,-1.20,1.93,-1.74,
1.527,4.48,1.41,1.70,-1.29,1.92,-1.82,
1.527,4.48,1.41,1.70,-1.33,1.92,-1.87,
1.527,4.48,1.41,1.70,-1.35,1.91,-1.90,
1.527,4.48,1.41,1.70,-1.39,1.91,-1.96,
1.528,5.44,1.58,2.24,-1.39,1.91,-1.96,
1.528,5.44,1.58,2.24,-1.42,1.91,-2.03,
1.528,5.44,1.58,2.24,-1.45,1.90,-2.14,
1.528,5.44,1.58,2.24,-1.45,1.88,-2.21,
1.528,5.44,1.58,2.24,-1.45,1.86,-2.24,
1.529,5.44,1.58,2.24,-1.43,1.82,-2.29,
1.529,6.22,1.47,3.10,-1.43,1.82,-2.29,
1.529,6.22,1.47,3.10,-1.38,1.75,-2.32,
1.531,6.22,1.47,3.10,-1.29,1.62,-2.34,
1.532,6.22,1.47,3.10,-1.21,1.51,-2.32,
1.534,6.22,1.47,3.10,-1.16,1.45,-2.30,
1.536,6.22,1.47,3.10,-1.05,1.34,-2.25,
1.54,5.15,1.73,3.81,-1.05,1.34,-2.25,
1.541,5.15,1.73,3.81,-0.93,1.22,-2.18,
1.541,5.15,1.73,3.81,-0.72,1.02,-2.04,
1.542,5.15,1.73,3.81,-0.57,0.90,-1.92,
1.561,5.15,1.73,3.81,-0.48,0.84,-1.86,
1.562,5.15,1.73,3.81,-0.31,0.71,-1.74,
1.562,3.54,1.70,3.90,-0.31,0.71,-1.74,
1.562,3.54,1.70,3.90,-0.13,0.60,-1.60,
1.563,3.54,1.70,3.90,0.13,0.47,-1.40,
1.563,3.54,1.70,3.90,0.30,0.42,-1.28,
1.563,3.54,1.70,3.90,0.38,0.41,-1.22,
1.563,3.54,1.70,3.90,0.54,0.40,-1.11,
1.564,2.47,1.42,3.05,0.54,0.40,-1.11,
1.564,2.47,1.42,3.05,0.68,0.42,-1.01,
1.564,2.47,1.42,3.05,0.88,0.47,-0.90,
1.564,2.47,1.42,3.05,1.00,0.52,-0.84,
1.565,2.47,1.42,3.05,1.06,0.55,-0.82,
1.567,2.47,1.42,3.05,1.18,0.60,-0.79,
1.567,2.28,1.09,2.70,1.18,0.60,-0.79,
1.568,2.28,1.09,2.70,1.29,0.66,-0.77,
1.571,2.28,1.09,2.70,1.44,0.74,-0.77,
1.572,2.28,1.09,2.70,1.53,0.80,-0.78,
1.574,2.28,1.09,2.70,1.58,0.82,-0.80,
1.576,2.28,1.09,2.70,1.67,0.87,-0.83,
1.578,2.47,0.91,2.94,1.67,0.87,-0.83,
1.578,2.47,0.91,2.94,1.76,0.91,-0.88,
1.581,2.47,0.91,2.94,1.87,0.96,-0.97,
1.582,2.47,0.91,2.94,1.95,0.99,-1.04,
1.584,2.47,0.91,2.94,1.98,1.00,-1.08,
1.586,2.47,0.91,2.94,2.05,1.02,-1.16,
1.589,3.06,0.76,3.31,2.05,1.02,-1.16,
1.59,3.06,0.76,3.31,2.10,1.04,-1.24,
1.593,3.06,0.76,3.31,2.18,1.05,-1.38,
1.593,3.06,0.76,3.31,2.22,1.05,-1.47,
1.594,3.06,0.76,3.31,2.24,1.04,-1.52,
1.598,3.06,0.76,3.31,2.27,1.03,-1.62,
1.599,3.66,1.21,3.08,2.27,1.03,-1.62,
1.599,3.66,1.21,3.08,2.30,1.02,-1.71,
1.603,3.66,1.21,3.08,2.32,1.00,-1.85,
1.603,3.66,1.21,3.08,2.33,0.97,-1.94,
1.606,3.66,1.21,3.08,2.33,0.96,-1.98,
1.607,3.66,1.21,3.08,2.33,0.93,-2.07,
1.608,4.22,1.87,2.49,2.33,0.93,-2.07,
1.608,4.22,1.87,2.49,2.32,0.89,-2.14,
1.611,4.22,1.87,2.49,2.30,0.82,-2.25,
1.613,4.22,1.87,2.49,2.28,0.77,-2.31,
1.614,4.22,1.87,2.49,2.27,0.75,-2.34,
1.618,4.22,1.87,2.49,2.40,0.69,-2.39,
1.619,3.92,1.58,5.82,2.40,0.69,-2.39,
1.619,3.92,1.58,5.82,2.70,0.70,-2.41,
1.624,3.92,1.58,5.82,2.61,0.80,-2.47,
1.624,3.92,1.58,5.82,2.61,0.80,-2.47,
1.624,3.92,1.58,5.82,2.56,0.81,-2.47,
1.626,3.92,1.58,5.82,2.47,0.82,-2.47,
1.627,3.40,3.59,0.32,2.47,0.82,-2.47,
1.628,3.40,3.59,0.32,2.37,0.83,-2.47,
1.631,3.40,3.59,0.32,2.22,0.82,-2.46,
1.632,3.40,3.59,0.32,2.12,0.82,-2.45,
1.634,3.40,3.59,0.32,2.13,0.83,-2.45,
1.645,3.40,3.59,0.32,2.31,0.98,-2.39,
1.647,2.36,2.94,3.86,2.31,0.98,-2.39,
1.648,2.36,2.94,3.86,2.39,1.14,-2.35,
1.649,2.36,2.94,3.86,2.19,1.26,-2.33,
1.652,2.36,2.94,3.86,2.08,1.34,-2.31,
1.652,2.36,2.94,3.86,2.06,1.41,-2.30,
1.652,2.36,2.94,3.86,2.10,1.63,-2.25,
1.653,2.21,3.64,0.65,2.10,1.63,-2.25,
1.653,2.21,3.64,0.65,2.08,1.84,-2.22,
1.653,2.21,3.64,0.65,1.92,2.09,-2.19,
1.654,2.21,3.64,0.65,1.85,2.29,-2.16,
1.686,2.21,3.64,0.65,1.75,2.48,-2.13,
1.687,2.21,3.64,0.65,1.65,2.65,-2.10,
1.687,1.81,3.74,-2.74,1.65,2.65,-2.10,
1.687,1.81,3.74,-2.74,1.60,2.89,-2.06,
1.687,1.81,3.74,-2.74,1.54,3.26,-1.97,
1.688,1.81,3.74,-2.74,1.50,3.34,-1.95,
1.688,1.81,3.74,-2.74,1.40,3.42,-1.91,
1.688,1.81,3.74,-2.74,1.33,3.44,-1.85,
1.689,0.11,2.20,-4.79,1.33,3.44,-1.85,
1.689,0.11,2.20,-4.79,1.32,3.30,-1.77,
1.689,0.11,2.20,-4.79,1.41,2.53,-1.59,
1.689,0.11,2.20,-4.79,1.47,2.16,-1.52,
1.69,0.11,2.20,-4.79,1.59,1.44,-1.37,
1.69,0.11,2.20,-4.79,1.73,0.85,-1.20,
1.69,-3.12,-1.11,-6.51,1.73,0.85,-1.20,
1.691,-3.12,-1.11,-6.51,1.91,0.50,-1.00,
1.691,-3.12,-1.11,-6.51,2.06,0.26,-0.81,
1.691,-3.12,-1.11,-6.51,2.09,-0.01,-0.66,
1.692,-3.12,-1.11,-6.51,2.09,-0.22,-0.52,
1.692,-3.12,-1.11,-6.51,2.10,-0.33,-0.39,
1.692,-4.46,-1.90,-8.90,2.10,-0.33,-0.39,
1.692,-4.46,-1.90,-8.90,2.09,-0.38,-0.27,
1.693,-4.46,-1.90,-8.90,2.10,-0.38,-0.13,
1.695,-4.46,-1.90,-8.90,2.11,-0.32,0.02,
1.695,-4.46,-1.90,-8.90,2.12,-0.28,0.15,
1.696,-4.46,-1.90,-8.90,2.22,-0.07,0.31,
1.701,-5.86,-3.18,-6.43,2.22,-0.07,0.31,
1.701,-5.86,-3.18,-6.43,2.22,-0.04,0.45,
1.703,-5.86,-3.18,-6.43,2.18,-0.04,0.61,
1.703,-5.86,-3.18,-6.43,2.18,0.00,0.66,
1.704,-5.86,-3.18,-6.43,2.17,0.09,0.76,
1.706,-5.86,-3.18,-6.43,2.14,0.18,0.85,
1.708,-5.73,-2.25,-8.26,2.14,0.18,0.85,
1.708,-5.73,-2.25,-8.26,2.11,0.32,0.94,
1.732,-5.73,-2.25,-8.26,2.01,0.53,1.04,
1.732,-5.73,-2.25,-8.26,1.97,0.61,1.07,
1.733,-5.73,-2.25,-8.26,1.87,0.76,1.13,
1.733,-5.73,-2.25,-8.26,1.75,0.90,1.16,
1.733,-5.32,-1.82,-9.39,1.75,0.90,1.16,
1.734,-5.32,-1.82,-9.39,1.59,1.01,1.17,
1.734,-5.32,-1.82,-9.39,1.28,1.13,1.13,
1.734,-5.32,-1.82,-9.39,1.15,1.15,1.10,
1.734,-5.32,-1.82,-9.39,0.88,1.19,1.03,
1.735,-5.32,-1.82,-9.39,0.56,1.21,0.92,
1.735,-3.26,-2.09,-11.31,0.56,1.21,0.92,
1.735,-3.26,-2.09,-11.31,0.20,1.21,0.79,
1.735,-3.26,-2.09,-11.31,-0.19,1.23,0.65,
1.736,-3.26,-2.09,-11.31,-0.58,1.29,0.53,
1.736,-3.26,-2.09,-11.31,-0.96,1.38,0.42,
1.736,-3.26,-2.09,-11.31,-1.31,1.50,0.34,
1.738,-3.00,-2.95,-13.25,-1.31,1.50,0.34,
1.739,-3.00,-2.95,-13.25,-1.65,1.63,0.28,
1.741,-3.00,-2.95,-13.25,-1.95,1.75,0.22,
1.742,-3.00,-2.95,-13.25,-2.23,1.86,0.17,
1.744,-3.00,-2.95,-13.25,-2.48,1.94,0.11,
1.746,-3.00,-2.95,-13.25,-2.70,1.98,0.06,
1.747,-2.75,-3.31,-11.90,-2.70,1.98,0.06,
1.748,-2.75,-3.31,-11.90,-2.88,1.98,0.00,
1.75,-2.75,-3.31,-11.90,-3.03,1.93,-0.06,
1.753,-2.75,-3.31,-11.90,-3.14,1.83,-0.12,
1.755,-2.75,-3.31,-11.90,-3.22,1.68,-0.18,
1.756,-2.75,-3.31,-11.90,-3.28,1.49,-0.24,
1.76,-1.69,-3.65,-6.98,-3.28,1.49,-0.24,
1.76,-1.69,-3.65,-6.98,-3.24,1.21,-0.31,
1.761,-1.69,-3.65,-6.98,-3.17,0.62,-0.38,
1.762,-1.69,-3.65,-6.98,-3.10,0.28,-0.45,
1.766,-1.69,-3.65,-6.98,-3.04,0.12,-0.51,
1.766,-1.69,-3.65,-6.98,-2.97,-0.10,-0.56,
1.769,-0.89,-3.88,-2.03,-2.97,-0.10,-0.56,
1.77,-0.89,-3.88,-2.03,-2.87,-0.35,-0.61,
1.777,-0.89,-3.88,-2.03,-2.66,-0.71,-0.67,
1.778,-0.89,-3.88,-2.03,-2.58,-0.82,-0.69,
1.778,-0.89,-3.88,-2.03,-2.40,-1.04,-0.72,
1.778,-0.89,-3.88,-2.03,-2.20,-1.25,-0.75,
1.779,-1.00,-3.72,1.64,-2.20,-1.25,-0.75,
1.779,-1.00,-3.72,1.64,-2.00,-1.43,-0.77,
1.783,-1.00,-3.72,1.64,-1.80,-1.59,-0.80,
1.784,-1.00,-3.72,1.64,-1.60,-1.73,-0.83,
1.784,-1.00,-3.72,1.64,-1.40,-1.84,-0.86,
1.787,-1.00,-3.72,1.64,-1.22,-1.93,-0.89,
1.816,-1.19,-3.34,4.07,-1.22,-1.93,-0.89,
1.817,-1.19,-3.34,4.07,-1.04,-1.99,-0.93,
1.817,-1.19,-3.34,4.07,-0.88,-2.04,-0.96,
1.817,-1.19,-3.34,4.07,-0.73,-2.07,-1.00,
1.817,-1.19,-3.34,4.07,-0.59,-2.10,-1.04,
1.818,-1.19,-3.34,4.07,-0.46,-2.12,-1.08,
1.818,-0.78,-2.70,5.21,-0.46,-2.12,-1.08,
1.818,-0.78,-2.70,5.21,-0.33,-2.13,-1.13,
1.818,-0.78,-2.70,5.21,-0.22,-2.15,-1.17,
1.818,-0.78,-2.70,5.21,-0.11,-2.16,-1.22,
1.819,-0.78,-2.70,5.21,-0.01,-2.17,-1.27,
1.819,-0.78,-2.70,5.21,0.09,-2.19,-1.33,
1.819,0.45,-1.94,6.84,0.09,-2.19,-1.33,
1.819,0.45,-1.94,6.84,0.18,-2.19,-1.39,
1.819,0.45,-1.94,6.84,0.27,-2.20,-1.44,
1.82,0.45,-1.94,6.84,0.35,-2.21,-1.50,
1.82,0.45,-1.94,6.84,0.43,-2.20,-1.56,
1.82,0.45,-1.94,6.84,0.49,-2.19,-1.62,
1.82,1.63,-0.57,7.90,0.49,-2.19,-1.62,
1.82,1.63,-0.57,7.90,0.55,-2.18,-1.68,
1.824,1.63,-0.57,7.90,0.63,-2.13,-1.77,
1.824,1.63,-0.57,7.90,0.65,-2.11,-1.80,
1.825,1.63,-0.57,7.90,0.68,-2.06,-1.85,
1.827,1.63,-0.57,7.90,0.71,-2.00,-1.90,
1.828,2.08,1.13,8.11,0.71,-2.00,-1.90,
1.829,2.08,1.13,8.11,0.72,-1.92,-1.96,
1.831,2.08,1.13,8.11,0.72,-1.84,-2.00,
1.832,2.08,1.13,8.11,0.72,-1.74,-2.05,
1.834,2.08,1.13,8.11,0.70,-1.62,-2.08,
1.836,2.08,1.13,8.11,0.66,-1.49,-2.11,
1.838,1.84,2.63,6.50,0.66,-1.49,-2.11,
1.838,1.84,2.63,6.50,0.61,-1.34,-2.13,
1.842,1.84,2.63,6.50,0.56,-1.19,-2.14,
1.842,1.84,2.63,6.50,0.49,-1.03,-2.15,
1.844,1.84,2.63,6.50,0.43,-0.87,-2.15,
1.846,1.84,2.63,6.50,0.36,-0.72,-2.15,
1.848,1.49,3.55,4.60,0.36,-0.72,-2.15,
1.848,1.49,3.55,4.60,0.30,-0.58,-2.14,
1.851,1.49,3.55,4.60,0.23,-0.43,-2.13,
1.853,1.49,3.55,4.60,0.18,-0.30,-2.11,
1.854,1.49,3.55,4.60,0.12,-0.17,-2.08,
1.856,1.49,3.55,4.60,0.06,-0.05,-2.05,
1.858,1.32,4.20,3.33,0.06,-0.05,-2.05,
1.859,1.32,4.20,3.33,0.02,0.07,-2.01,
1.861,1.32,4.20,3.33,-0.03,0.19,-1.96,
1.862,1.32,4.20,3.33,-0.07,0.32,-1.91,
1.864,1.32,4.20,3.33,-0.10,0.45,-1.85,
1.866,1.32,4.20,3.33,-0.13,0.58,-1.78,
1.868,1.10,4.90,2.75,-0.13,0.58,-1.78,
1.869,1.10,4.90,2.75,-0.15,0.72,-1.71,
1.872,1.10,4.90,2.75,-0.16,0.92,-1.61,
1.874,1.10,4.90,2.75,-0.16,0.99,-1.58,
1.874,1.10,4.90,2.75,-0.16,1.12,-1.52,
1.876,1.10,4.90,2.75,-0.14,1.25,-1.47,
1.903,1.42,5.91,2.31,-0.14,1.25,-1.47,
1.904,1.42,5.91,2.31,-0.11,1.37,-1.42,
1.904,1.42,5.91,2.31,-0.08,1.50,-1.39,
1.904,1.42,5.91,2.31,-0.02,1.65,-1.38,
1.905,1.42,5.91,2.31,0.08,1.83,-1.37,
1.905,1.42,5.91,2.31,0.22,2.04,-1.38,
1.906,2.43,6.37,2.31,0.22,2.04,-1.38,
1.906,2.43,6.37,2.31,0.40,2.26,-1.39,
1.907,2.43,6.37,2.31,0.74,2.60,-1.42,
1.907,2.43,6.37,2.31,0.87,2.70,-1.44,
1.907,2.43,6.37,2.31,1.13,2.90,-1.47,
1.908,2.43,6.37,2.31,1.37,3.05,-1.50,
1.908,3.44,5.96,2.90,1.37,3.05,-1.50,
1.909,3.44,5.96,2.90,1.59,3.15,-1.54,
1.909,3.44,5.96,2.90,1.88,3.23,-1.60,
1.91,3.44,5.96,2.90,1.96,3.24,-1.63,
1.91,3.44,5.96,2.90,2.12,3.23,-1.68,
1.91,3.44,5.96,2.90,2.25,3.19,-1.74,
1.911,4.46,5.59,2.04,2.25,3.19,-1.74,
1.911,4.46,5.59,2.04,2.37,3.12,-1.80,
1.911,4.46,5.59,2.04,2.52,2.98,-1.91,
1.911,4.46,5.59,2.04,2.56,2.92,-1.95,
1.916,4.46,5.59,2.04,2.64,2.78,-2.03,
1.917,4.46,5.59,2.04,2.70,2.62,-2.11,
1.92,4.86,5.44,1.07,2.70,2.62,-2.11,
1.921,4.86,5.44,1.07,2.74,2.44,-2.20,
1.924,4.86,5.44,1.07,2.77,2.13,-2.33,
1.924,4.86,5.44,1.07,2.77,2.02,-2.38,
1.925,4.86,5.44,1.07,2.75,1.77,-2.48,
1.928,4.86,5.44,1.07,2.72,1.48,-2.58,
1.928,4.90,5.48,0.21,2.72,1.48,-2.58,
1.929,4.90,5.48,0.21,2.67,1.18,-2.67,
1.936,4.90,5.48,0.21,2.99,1.10,-2.80,
1.937,4.90,5.48,0.21,3.34,1.42,-2.81,
1.937,4.90,5.48,0.21,3.65,1.47,-2.89,
1.937,4.90,5.48,0.21,3.41,0.91,-3.01,
1.945,4.08,5.14,5.03,3.41,0.91,-3.01,
1.946,4.08,5.14,5.03,3.19,0.42,-3.12,
1.946,4.08,5.14,5.03,3.00,-0.28,-3.27,
1.946,4.08,5.14,5.03,3.22,-0.63,-3.31,
1.947,4.08,5.14,5.03,3.72,-1.33,-3.39,
1.948,4.08,5.14,5.03,3.65,-1.75,-3.47,
1.948,3.17,5.13,6.18,3.65,-1.75,-3.47,
1.948,3.17,5.13,6.18,3.39,-1.96,-3.55,
1.956,3.17,5.13,6.18,3.60,-1.56,-3.60,
1.957,3.17,5.13,6.18,3.55,-1.56,-3.62,
1.957,3.17,5.13,6.18,3.48,-1.46,-3.65,
1.957,3.17,5.13,6.18,3.53,-1.16,-3.66,
1.958,0.75,5.35,1.74,3.53,-1.16,-3.66,
1.959,0.75,5.35,1.74,3.51,-0.82,-3.65,
1.961,0.75,5.35,1.74,3.52,-0.19,-3.61,
1.962,0.75,5.35,1.74,3.65,0.00,-3.59,
1.964,0.75,5.35,1.74,4.00,-0.15,-3.55,
1.966,0.75,5.35,1.74,4.06,-0.55,-3.53,
1.977,-1.26,1.72,3.57,4.06,-0.55,-3.53,
1.978,-1.26,1.72,3.57,3.94,-0.98,-3.50,
1.978,-1.26,1.72,3.57,4.01,-1.17,-3.41,
1.978,-1.26,1.72,3.57,4.06,-1.05,-3.36,
1.979,-1.26,1.72,3.57,4.02,-0.66,-3.24,
1.979,-1.26,1.72,3.57,3.97,-0.46,-3.10,
1.979,-5.39,-17.14,0.72,3.97,-0.46,-3.10,
1.979,-5.39,-17.14,0.72,4.08,-0.74,-2.95,
1.981,-5.39,-17.14,0.72,4.11,-1.58,-2.72,
1.982,-5.39,-17.14,0.72,4.11,-1.54,-2.64,
1.984,-5.39,-17.14,0.72,3.98,-0.97,-2.46,
1.986,-5.39,-17.14,0.72,3.16,0.64,-2.21,
1.988,-7.63,-36.98,2.27,3.16,0.64,-2.21,
1.989,-7.63,-36.98,2.27,2.34,0.12,-1.99,
1.992,-7.63,-36.98,2.27,2.33,-0.14,-1.69,
1.993,-7.63,-36.98,2.27,2.33,0.12,-1.59,
1.994,-7.63,-36.98,2.27,2.32,0.32,-1.42,
1.996,-7.63,-36.98,2.27,2.33,0.32,-1.24,
1.998,-6.00,-36.63,1.16,2.33,0.32,-1.24,
1.999,-6.00,-36.63,1.16,2.30,0.47,-1.07,
2.004,-6.00,-36.63,1.16,2.29,0.63,-0.83,
2.004,-6.00,-36.63,1.16,2.26,0.71,-0.75,
2.004,-6.00,-36.63,1.16,2.24,0.81,-0.59,
2.006,-6.00,-36.63,1.16,2.21,0.91,-0.44,
2.011,-5.39,-22.26,-0.73,2.21,0.91,-0.44,
2.011,-5.39,-22.26,-0.73,2.17,1.04,-0.30,
2.011,-5.39,-22.26,-0.73,2.10,1.16,-0.11,
2.012,-5.39,-22.26,-0.73,2.08,1.19,-0.05,
2.014,-5.39,-22.26,-0.73,2.05,1.28,0.05,
2.016,-5.39,-22.26,-0.73,2.04,1.42,0.14,
2.018,-3.77,-10.52,-1.02,2.04,1.42,0.14,
2.018,-3.77,-10.52,-1.02,2.01,1.47,0.20,
2.021,-3.77,-10.52,-1.02,1.93,1.52,0.26,
2.023,-3.77,-10.52,-1.02,1.93,1.51,0.27,
2.024,-3.77,-10.52,-1.02,1.88,1.56,0.29,
2.026,-3.77,-10.52,-1.02,1.86,1.57,0.30,
2.028,-1.09,0.01,-1.14,1.86,1.57,0.30,
2.028,-1.09,0.01,-1.14,1.82,1.63,0.32,
2.031,-1.09,0.01,-1.14,1.79,1.66,0.35,
2.032,-1.09,0.01,-1.14,1.77,1.69,0.36,
2.035,-1.09,0.01,-1.14,1.75,1.71,0.39,
2.036,-1.09,0.01,-1.14,1.73,1.73,0.41,
2.038,-0.90,6.21,-1.04,1.73,1.73,0.41,
2.038,-0.90,6.21,-1.04,1.71,1.75,0.45,
2.041,-0.90,6.21,-1.04,1.67,1.79,0.50,
2.042,-0.90,6.21,-1.04,1.67,1.80,0.53,
2.062,-0.90,6.21,-1.04,1.66,1.81,0.58,
2.063,-0.90,6.21,-1.04,1.63,1.84,0.62,
2.063,-1.66,7.03,-1.21,1.63,1.84,0.62,
2.063,-1.66,7.03,-1.21,1.62,1.83,0.66,
2.063,-1.66,7.03,-1.21,1.59,1.84,0.71,
2.064,-1.66,7.03,-1.21,1.58,1.83,0.73,
2.064,-1.66,7.03,-1.21,1.55,1.85,0.75,
2.064,-1.66,7.03,-1.21,1.54,1.83,0.77,
2.064,-1.38,4.90,-1.65,1.54,1.83,0.77,
2.065,-1.38,4.90,-1.65,1.51,1.86,0.79,
2.065,-1.38,4.90,-1.65,1.49,1.85,0.81,
2.065,-1.38,4.90,-1.65,1.48,1.86,0.82,
2.066,-1.38,4.90,-1.65,1.46,1.85,0.83,
2.066,-1.38,4.90,-1.65,1.44,1.86,0.85,
2.074,-1.12,3.37,-2.08,1.44,1.86,0.85,
2.074,-1.12,3.37,-2.08,1.43,1.86,0.87,
2.074,-1.12,3.37,-2.08,1.40,1.87,0.89,
2.075,-1.12,3.37,-2.08,1.39,1.87,0.90,
2.075,-1.12,3.37,-2.08,1.38,1.88,0.92,
2.076,-1.12,3.37,-2.08,1.36,1.90,0.94,
2.078,-1.22,2.34,-2.49,1.36,1.90,0.94,
2.078,-1.22,2.34,-2.49,1.36,1.91,0.96,
2.082,-1.22,2.34,-2.49,1.36,1.96,0.99,
2.083,-1.22,2.34,-2.49,1.37,2.01,1.00,
2.104,-1.22,2.34,-2.49,1.34,2.11,1.02,
2.104,-1.22,2.34,-2.49,1.29,2.16,1.03,
2.104,-0.33,2.42,-7.51,1.29,2.16,1.03,
2.104,-0.33,2.42,-7.51,1.23,2.24,1.03,
2.105,-0.33,2.42,-7.51,1.18,2.27,1.02,
2.105,-0.33,2.42,-7.51,1.17,2.26,1.02,
2.105,-0.33,2.42,-7.51,1.14,2.22,1.02,
2.105,-0.33,2.42,-7.51,1.12,2.16,1.02,
2.105,1.31,3.34,-9.64,1.12,2.16,1.02,
2.105,1.31,3.34,-9.64,1.11,2.07,1.02,
2.105,1.31,3.34,-9.64,1.10,1.88,1.00,
2.105,1.31,3.34,-9.64,1.10,1.81,0.99,
2.106,1.31,3.34,-9.64,1.10,1.65,0.97,
2.106,1.31,3.34,-9.64,1.09,1.49,0.95,
2.107,2.45,3.89,-8.28,1.09,1.49,0.95,
2.108,2.45,3.89,-8.28,1.08,1.32,0.94,
2.111,2.45,3.89,-8.28,1.07,1.07,0.92,
2.111,2.45,3.89,-8.28,1.07,0.98,0.92,
2.113,2.45,3.89,-8.28,1.06,0.81,0.91,
2.116,2.45,3.89,-8.28,1.05,0.63,0.89,
2.121,2.25,3.26,-6.46,1.05,0.63,0.89,
2.122,2.25,3.26,-6.46,1.03,0.46,0.88,
2.122,2.25,3.26,-6.46,1.02,0.20,0.85,
2.122,2.25,3.26,-6.46,1.01,0.12,0.84,
2.126,2.25,3.26,-6.46,1.00,-0.05,0.83,
2.126,2.25,3.26,-6.46,0.99,-0.22,0.81,
2.128,1.97,2.43,-5.22,0.99,-0.22,0.81,
2.128,1.97,2.43,-5.22,0.97,-0.38,0.79,
2.131,1.97,2.43,-5.22,0.95,-0.62,0.77,
2.132,1.97,2.43,-5.22,0.94,-0.70,0.76,
2.135,1.97,2.43,-5.22,0.93,-0.86,0.75,
2.136,1.97,2.43,-5.22,0.91,-1.02,0.73,
2.138,1.37,1.91,-3.87,0.91,-1.02,0.73,
2.138,1.37,1.91,-3.87,0.90,-1.17,0.72,
2.14,1.37,1.91,-3.87,0.86,-1.40,0.71,
2.141,1.37,1.91,-3.87,0.85,-1.48,0.70,
2.144,1.37,1.91,-3.87,0.82,-1.63,0.69,
2.148,1.37,1.91,-3.87,0.79,-1.79,0.67,
2.148,1.03,1.22,-2.88,0.79,-1.79,0.67,
2.148,1.03,1.22,-2.88,0.76,-1.93,0.65,
2.152,1.03,1.22,-2.88,0.72,-2.15,0.61,
2.154,1.03,1.22,-2.88,0.70,-2.22,0.60,
2.154,1.03,1.22,-2.88,0.67,-2.36,0.57,
2.156,1.03,1.22,-2.88,0.64,-2.49,0.54,
2.159,0.87,0.09,-1.91,0.64,-2.49,0.54,
2.159,0.87,0.09,-1.91,0.61,-2.62,0.51,
2.161,0.87,0.09,-1.91,0.57,-2.80,0.48,
2.162,0.87,0.09,-1.91,0.56,-2.86,0.47,
2.164,0.87,0.09,-1.91,0.54,-2.98,0.44,
2.165,0.87,0.09,-1.91,0.51,-3.09,0.43,
2.168,0.49,-0.63,-0.96,0.51,-3.09,0.43,
2.168,0.49,-0.63,-0.96,0.50,-3.19,0.42,
2.171,0.49,-0.63,-0.96,0.47,-3.34,0.41,
2.171,0.49,-0.63,-0.96,0.47,-3.38,0.41,
2.173,0.49,-0.63,-0.96,0.45,-3.47,0.42,
2.175,0.49,-0.63,-0.96,0.44,-3.55,0.42,
2.178,0.33,-0.85,-0.22,0.44,-3.55,0.42,
2.179,0.33,-0.85,-0.22,0.43,-3.63,0.43,
2.181,0.33,-0.85,-0.22,0.43,-3.73,0.43,
2.181,0.33,-0.85,-0.22,0.43,-3.76,0.44,
2.184,0.33,-0.85,-0.22,0.43,-3.82,0.44,
2.186,0.33,-0.85,-0.22,0.44,-3.86,0.45,
2.188,0.63,-1.21,0.39,0.44,-3.86,0.45,
2.188,0.63,-1.21,0.39,0.44,-3.89,0.45,
2.19,0.63,-1.21,0.39,0.46,-3.92,0.46,
2.191,0.63,-1.21,0.39,0.47,-3.93,0.46,
2.194,0.63,-1.21,0.39,0.50,-3.93,0.46,
2.196,0.63,-1.21,0.39,0.52,-3.92,0.46,
2.197,0.84,-1.36,0.90,0.52,-3.92,0.46,
2.198,0.84,-1.36,0.90,0.54,-3.90,0.46,
2.21,0.84,-1.36,0.90,0.59,-3.84,0.46,
2.211,0.84,-1.36,0.90,0.61,-3.82,0.46,
2.211,0.84,-1.36,0.90,0.65,-3.75,0.46,
2.212,0.84,-1.36,0.90,0.70,-3.68,0.47,
2.212,1.03,-1.34,1.32,0.70,-3.68,0.47,
2.212,1.03,-1.34,1.32,0.74,-3.60,0.47,
2.238,1.03,-1.34,1.32,0.82,-3.44,0.47,
2.239,1.03,-1.34,1.32,0.84,-3.38,0.48,
2.239,1.03,-1.34,1.32,0.90,-3.25,0.48,
2.24,1.03,-1.34,1.32,0.95,-3.11,0.49,
2.24,1.02,-1.31,1.40,0.95,-3.11,0.49,
2.24,1.02,-1.31,1.40,1.01,-2.95,0.49,
2.241,1.02,-1.31,1.40,1.11,-2.69,0.50,
2.241,1.02,-1.31,1.40,1.15,-2.60,0.50,
2.242,1.02,-1.31,1.40,1.22,-2.40,0.50,
2.242,1.02,-1.31,1.40,1.28,-2.20,0.50,
2.242,0.89,-1.52,0.80,1.28,-2.20,0.50,
2.243,0.89,-1.52,0.80,1.36,-2.00,0.49,
2.243,0.89,-1.52,0.80,1.46,-1.68,0.47,
2.244,0.89,-1.52,0.80,1.50,-1.58,0.46,
2.244,0.89,-1.52,0.80,1.57,-1.36,0.45,
2.244,0.89,-1.52,0.80,1.63,-1.15,0.43,
2.245,0.56,-2.22,-0.56,1.63,-1.15,0.43,
2.245,0.56,-2.22,-0.56,1.70,-0.93,0.41,
2.246,0.56,-2.22,-0.56,1.79,-0.60,0.40,
2.246,0.56,-2.22,-0.56,1.82,-0.49,0.39,
2.246,0.56,-2.22,-0.56,1.88,-0.27,0.38,
2.247,0.56,-2.22,-0.56,1.94,-0.05,0.38,
2.247,-0.31,-3.02,-2.37,1.94,-0.05,0.38,
2.248,-0.31,-3.02,-2.37,1.99,0.17,0.37,
2.25,-0.31,-3.02,-2.37,2.05,0.47,0.36,
2.252,-0.31,-3.02,-2.37,2.07,0.57,0.36,
2.254,-0.31,-3.02,-2.37,2.10,0.76,0.35,
2.256,-0.31,-3.02,-2.37,2.13,0.95,0.34,
2.257,-0.95,-3.88,-4.26,2.13,0.95,0.34,
2.258,-0.95,-3.88,-4.26,2.16,1.14,0.33,
2.26,-0.95,-3.88,-4.26,2.19,1.41,0.31,
2.262,-0.95,-3.88,-4.26,2.19,1.50,0.30,
2.264,-0.95,-3.88,-4.26,2.20,1.67,0.30,
2.267,-0.95,-3.88,-4.26,2.21,1.83,0.30,
2.27,-1.43,-4.41,-6.41,2.21,1.83,0.30,
2.27,-1.43,-4.41,-6.41,2.19,1.99,0.29,
2.271,-1.43,-4.41,-6.41,2.14,2.18,0.30,
2.272,-1.43,-4.41,-6.41,2.11,2.24,0.30,
2.274,-1.43,-4.41,-6.41,2.05,2.34,0.30,
2.275,-1.43,-4.41,-6.41,1.97,2.42,0.31,
2.278,-1.71,-4.58,-8.87,1.97,2.42,0.31,
2.278,-1.71,-4.58,-8.87,1.86,2.48,0.31,
2.281,-1.71,-4.58,-8.87,1.66,2.52,0.30,
2.282,-1.71,-4.58,-8.87,1.57,2.52,0.30,
2.286,-1.71,-4.58,-8.87,1.40,2.50,0.29,
2.286,-1.71,-4.58,-8.87,1.20,2.47,0.27,
2.289,-1.20,-4.62,-12.11,1.20,2.47,0.27,
2.29,-1.20,-4.62,-12.11,0.99,2.42,0.25,
2.291,-1.20,-4.62,-12.11,0.65,2.30,0.20,
2.292,-1.20,-4.62,-12.11,0.53,2.26,0.19,
2.294,-1.20,-4.62,-12.11,0.29,2.16,0.15,
2.296,-1.20,-4.62,-12.11,0.06,2.04,0.10,
2.298,-0.42,-4.06,-13.61,0.06,2.04,0.10,
2.299,-0.42,-4.06,-13.61,-0.17,1.90,0.06,
2.303,-0.42,-4.06,-13.61,-0.50,1.67,-0.01,
2.304,-0.42,-4.06,-13.61,-0.61,1.58,-0.03,
2.306,-0.42,-4.06,-13.61,-0.80,1.40,-0.07,
2.306,-0.42,-4.06,-13.61,-0.98,1.22,-0.11,
2.308,0.18,-3.86,-12.67,-0.98,1.22,-0.11,
2.308,0.18,-3.86,-12.67,-1.15,1.03,-0.15,
2.311,0.18,-3.86,-12.67,-1.35,0.75,-0.20,
2.312,0.18,-3.86,-12.67,-1.41,0.65,-0.22,
2.314,0.18,-3.86,-12.67,-1.51,0.46,-0.25,
2.318,0.18,-3.86,-12.67,-1.59,0.29,-0.26,
2.319,0.69,-3.81,-9.85,-1.59,0.29,-0.26,
2.319,0.69,-3.81,-9.85,-1.67,0.12,-0.27,
2.322,0.69,-3.81,-9.85,-1.76,-0.13,-0.29,
2.322,0.69,-3.81,-9.85,-1.78,-0.21,-0.30,
2.324,0.69,-3.81,-9.85,-1.84,-0.37,-0.33,
2.33,0.69,-3.81,-9.85,-1.88,-0.52,-0.36,
2.331,1.45,-3.65,-7.57,-1.88,-0.52,-0.36,
2.331,1.45,-3.65,-7.57,-1.93,-0.64,-0.40,
2.331,1.45,-3.65,-7.57,-1.99,-0.80,-0.47,
2.332,1.45,-3.65,-7.57,-2.01,-0.84,-0.49,
2.337,1.45,-3.65,-7.57,-2.05,-0.90,-0.54,
2.337,1.45,-3.65,-7.57,-2.09,-0.95,-0.58,
2.34,2.16,-3.89,-5.95,-2.09,-0.95,-0.58,
2.34,2.16,-3.89,-5.95,-2.13,-0.97,-0.63,
2.342,2.16,-3.89,-5.95,-2.19,-0.96,-0.70,
2.342,2.16,-3.89,-5.95,-2.22,-0.94,-0.73,
2.344,2.16,-3.89,-5.95,-2.26,-0.88,-0.78,
2.346,2.16,-3.89,-5.95,-2.31,-0.80,-0.84,
2.348,2.89,-4.34,-5.56,-2.31,-0.80,-0.84,
2.35,2.89,-4.34,-5.56,-2.37,-0.68,-0.89,
2.351,2.89,-4.34,-5.56,-2.46,-0.45,-0.97,
2.371,2.89,-4.34,-5.56,-2.50,-0.36,-1.00,
2.372,2.89,-4.34,-5.56,-2.58,-0.16,-1.05,
2.372,2.89,-4.34,-5.56,-2.66,0.05,-1.10,
2.372,2.70,-4.56,-6.08,-2.66,0.05,-1.10,
2.372,2.70,-4.56,-6.08,-2.74,0.27,-1.14,
2.373,2.70,-4.56,-6.08,-2.86,0.58,-1.18,
2.373,2.70,-4.56,-6.08,-2.90,0.68,-1.20,
2.373,2.70,-4.56,-6.08,-2.97,0.86,-1.21,
2.374,2.70,-4.56,-6.08,-3.04,1.01,-1.22,
2.374,1.12,-4.42,-4.97,-3.04,1.01,-1.22,
2.374,1.12,-4.42,-4.97,-3.08,1.13,-1.22,
2.375,1.12,-4.42,-4.97,-3.14,1.26,-1.21,
2.375,1.12,-4.42,-4.97,-3.15,1.28,-1.21,
2.375,1.12,-4.42,-4.97,-3.16,1.32,-1.19,
2.378,1.12,-4.42,-4.97,-3.17,1.32,-1.18,
2.41,-0.23,-4.14,-1.34,-3.17,1.32,-1.18,
2.41,-0.23,-4.14,-1.34,-3.17,1.29,-1.16,
2.41,-0.23,-4.14,-1.34,-3.15,1.22,-1.14,
2.411,-0.23,-4.14,-1.34,-3.14,1.19,-1.13,
2.411,-0.23,-4.14,-1.34,-3.12,1.11,-1.10,
2.412,-0.23,-4.14,-1.34,-3.10,1.02,-1.07,
2.412,-0.80,-4.47,1.93,-3.10,1.02,-1.07,
2.412,-0.80,-4.47,1.93,-3.07,0.93,-1.04,
2.413,-0.80,-4.47,1.93,-3.04,0.77,-1.00,
2.413,-0.80,-4.47,1.93,-3.02,0.72,-0.99,
2.414,-0.80,-4.47,1.93,-2.99,0.61,-0.96,
2.414,-0.80,-4.47,1.93,-2.97,0.50,-0.93,
2.415,-1.45,-4.87,3.49,-2.97,0.50,-0.93,
2.415,-1.45,-4.87,3.49,-2.95,0.39,-0.90,
2.415,-1.45,-4.87,3.49,-2.91,0.22,-0.84,
2.416,-1.45,-4.87,3.49,-2.90,0.17,-0.82,
2.416,-1.45,-4.87,3.49,-2.88,0.05,-0.78,
2.417,-1.45,-4.87,3.49,-2.86,-0.06,-0.74,
2.417,-2.19,-4.97,4.06,-2.86,-0.06,-0.74,
2.417,-2.19,-4.97,4.06,-2.84,-0.18,-0.70,
2.418,-2.19,-4.97,4.06,-2.81,-0.34,-0.63,
2.418,-2.19,-4.97,4.06,-2.80,-0.40,-0.61,
2.419,-2.19,-4.97,4.06,-2.78,-0.50,-0.57,
2.419,-2.19,-4.97,4.06,-2.77,-0.60,-0.53,
2.419,-2.60,-4.96,4.11,-2.77,-0.60,-0.53,
2.42,-2.60,-4.96,4.11,-2.76,-0.69,-0.49,
2.424,-2.60,-4.96,4.11,-2.74,-0.83,-0.44,
2.425,-2.60,-4.96,4.11,-2.73,-0.88,-0.42,
2.425,-2.60,-4.96,4.11,-2.72,-0.96,-0.39,
2.426,-2.60,-4.96,4.11,-2.72,-1.04,-0.36,
2.427,-2.66,-4.91,4.08,-2.72,-1.04,-0.36,
2.428,-2.66,-4.91,4.08,-2.71,-1.12,-0.34,
2.431,-2.66,-4.91,4.08,-2.71,-1.24,-0.30,
2.432,-2.66,-4.91,4.08,-2.71,-1.27,-0.29,
2.434,-2.66,-4.91,4.08,-2.71,-1.34,-0.28,
2.436,-2.66,-4.91,4.08,-2.71,-1.40,-0.26,
2.438,-2.40,-5.06,4.00,-2.71,-1.40,-0.26,
2.438,-2.40,-5.06,4.00,-2.71,-1.46,-0.25,
2.441,-2.40,-5.06,4.00,-2.73,-1.55,-0.24,
2.442,-2.40,-5.06,4.00,-2.73,-1.58,-0.24,
2.444,-2.40,-5.06,4.00,-2.74,-1.62,-0.24,
2.446,-2.40,-5.06,4.00,-2.75,-1.67,-0.24,
2.447,-2.10,-5.21,4.02,-2.75,-1.67,-0.24,
2.448,-2.10,-5.21,4.02,-2.76,-1.72,-0.24,
2.454,-2.10,-5.21,4.02,-2.78,-1.77,-0.24,
2.455,-2.10,-5.21,4.02,-2.79,-1.79,-0.24,
2.455,-2.10,-5.21,4.02,-2.80,-1.82,-0.24,
2.456,-2.10,-5.21,4.02,-2.81,-1.84,-0.24,
2.458,-1.78,-5.17,4.05,-2.81,-1.84,-0.24,
2.461,-1.78,-5.17,4.05,-2.82,-1.87,-0.24,
2.461,-1.78,-5.17,4.05,-2.84,-1.91,-0.25,
2.462,-1.78,-5.17,4.05,-2.85,-1.92,-0.25,
2.464,-1.78,-5.17,4.05,-2.87,-1.96,-0.26,
2.487,-1.78,-5.17,4.05,-2.88,-1.99,-0.26,
2.488,-1.10,-4.92,4.22,-2.88,-1.99,-0.26,
2.488,-1.10,-4.92,4.22,-2.90,-2.04,-0.27,
2.488,-1.10,-4.92,4.22,-2.93,-2.10,-0.29,
2.488,-1.10,-4.92,4.22,-2.94,-2.13,-0.30,
2.489,-1.10,-4.92,4.22,-2.96,-2.18,-0.31,
2.489,-1.10,-4.92,4.22,-2.97,-2.24,-0.33,
2.489,-0.26,-4.73,4.21,-2.97,-2.24,-0.33,
2.489,-0.26,-4.73,4.21,-2.99,-2.30,-0.35,
2.489,-0.26,-4.73,4.21,-3.02,-2.40,-0.38,
2.49,-0.26,-4.73,4.21,-3.03,-2.44,-0.39,
2.49,-0.26,-4.73,4.21,-3.05,-2.51,-0.40,
2.49,-0.26,-4.73,4.21,-3.07,-2.57,-0.43,
2.49,0.50,-4.56,4.39,-3.07,-2.57,-0.43,
2.49,0.50,-4.56,4.39,-3.08,-2.64,-0.45,
2.491,0.50,-4.56,4.39,-3.09,-2.72,-0.49,
2.492,0.50,-4.56,4.39,-3.10,-2.74,-0.50,
2.494,0.50,-4.56,4.39,-3.11,-2.76,-0.52,
2.496,0.50,-4.56,4.39,-3.14,-2.75,-0.55,
2.497,0.88,-4.53,3.34,-3.14,-2.75,-0.55,
2.499,0.88,-4.53,3.34,-3.19,-2.70,-0.57,
2.501,0.88,-4.53,3.34,-3.28,-2.55,-0.60,
2.502,0.88,-4.53,3.34,-3.31,-2.48,-0.62,
2.504,0.88,-4.53,3.34,-3.40,-2.32,-0.64,
2.506,0.88,-4.53,3.34,-3.48,-2.12,-0.66,
2.508,0.75,-4.49,0.68,-3.48,-2.12,-0.66,
2.509,0.75,-4.49,0.68,-3.57,-1.88,-0.69,
2.511,0.75,-4.49,0.68,-3.70,-1.49,-0.73,
2.512,0.75,-4.49,0.68,-3.74,-1.36,-0.74,
2.514,0.75,-4.49,0.68,-3.82,-1.08,-0.76,
2.517,0.75,-4.49,0.68,-3.89,-0.79,-0.79,
2.518,0.61,-3.56,-0.47,-3.89,-0.79,-0.79,
2.518,0.61,-3.56,-0.47,-3.94,-0.51,-0.81,
2.521,0.61,-3.56,-0.47,-3.99,-0.08,-0.84,
2.522,0.61,-3.56,-0.47,-4.00,0.06,-0.85,
2.523,0.61,-3.56,-0.47,-4.01,0.32,-0.88,
2.526,0.61,-3.56,-0.47,-4.00,0.57,-0.90,
2.528,0.63,-2.20,1.33,-4.00,0.57,-0.90,
2.528,0.63,-2.20,1.33,-3.98,0.82,-0.92,
2.533,0.63,-2.20,1.33,-3.91,1.17,-0.96,
2.534,0.63,-2.20,1.33,-3.88,1.27,-0.97,
2.535,0.63,-2.20,1.33,-3.82,1.49,-0.99,
2.536,0.63,-2.20,1.33,-3.75,1.69,-1.01,
2.538,0.64,-0.90,3.68,-3.75,1.69,-1.01,
2.539,0.64,-0.90,3.68,-3.66,1.87,-1.02,
2.541,0.64,-0.90,3.68,-3.52,2.13,-1.05,
2.542,0.64,-0.90,3.68,-3.47,2.21,-1.06,
2.582,0.64,-0.90,3.68,-3.37,2.36,-1.07,
2.584,0.64,-0.90,3.68,-3.26,2.51,-1.08,
2.585,0.32,0.21,5.40,-3.26,2.51,-1.08,
2.586,0.32,0.21,5.40,-3.14,2.64,-1.09,
2.587,0.32,0.21,5.40,-2.97,2.84,-1.10,
2.588,0.32,0.21,5.40,-2.91,2.90,-1.10,
2.589,0.32,0.21,5.40,-2.79,3.01,-1.11,
2.589,0.32,0.21,5.40,-2.67,3.12,-1.11,
2.59,-0.20,1.58,5.90,-2.67,3.12,-1.11,
2.59,-0.20,1.58,5.90,-2.56,3.21,-1.10,
2.591,-0.20,1.58,5.90,-2.38,3.33,-1.10,
2.592,-0.20,1.58,5.90,-2.33,3.36,-1.09,
2.593,-0.20,1.58,5.90,-2.22,3.41,-1.09,
2.593,-0.20,1.58,5.90,-2.10,3.45,-1.08,
2.594,-0.76,2.83,5.86,-2.10,3.45,-1.08,
2.595,-0.76,2.83,5.86,-2.00,3.47,-1.07,
2.595,-0.76,2.83,5.86,-1.84,3.48,-1.05,
2.596,-0.76,2.83,5.86,-1.79,3.48,-1.05,
2.597,-0.76,2.83,5.86,-1.70,3.47,-1.03,
2.598,-0.76,2.83,5.86,-1.62,3.44,-1.01,
2.598,-1.24,4.06,5.06,-1.62,3.44,-1.01,
2.6,-1.24,4.06,5.06,-1.54,3.40,-1.00,
2.602,-1.24,4.06,5.06,-1.43,3.32,-0.97,
2.603,-1.24,4.06,5.06,-1.40,3.28,-0.96,
2.603,-1.24,4.06,5.06,-1.34,3.20,-0.93,
2.604,-1.24,4.06,5.06,-1.28,3.11,-0.91,
2.605,-1.81,4.82,4.36,-1.28,3.11,-0.91,
2.605,-1.81,4.82,4.36,-1.24,3.01,-0.88,
2.606,-1.81,4.82,4.36,-1.17,2.85,-0.83,
2.607,-1.81,4.82,4.36,-1.15,2.79,-0.82,
2.607,-1.81,4.82,4.36,-1.11,2.67,-0.78,
2.608,-1.81,4.82,4.36,-1.07,2.54,-0.74,
2.609,-2.14,5.37,3.86,-1.07,2.54,-0.74,
2.609,-2.14,5.37,3.86,-1.03,2.40,-0.70,
2.61,-2.14,5.37,3.86,-0.98,2.20,-0.63,
2.61,-2.14,5.37,3.86,-0.97,2.12,-0.61,
2.611,-2.14,5.37,3.86,-0.94,1.98,-0.56,
2.612,-2.14,5.37,3.86,-0.91,1.84,-0.51,
2.612,-2.87,5.63,3.98,-0.91,1.84,-0.51,
2.613,-2.87,5.63,3.98,-0.88,1.69,-0.46,
2.613,-2.87,5.63,3.98,-0.85,1.48,-0.38,
2.615,-2.87,5.63,3.98,-0.84,1.41,-0.36,
2.615,-2.87,5.63,3.98,-0.81,1.26,-0.31,
2.617,-2.87,5.63,3.98,-0.79,1.12,-0.26,
2.618,-2.70,5.83,4.17,-0.79,1.12,-0.26,
2.618,-2.70,5.83,4.17,-0.76,0.98,-0.21,
2.624,-2.70,5.83,4.17,-0.72,0.69,-0.14,
2.625,-2.70,5.83,4.17,-0.72,0.69,-0.14,
2.625,-2.70,5.83,4.17,-0.70,0.55,-0.10,
2.626,-2.70,5.83,4.17,-0.68,0.42,-0.06,
2.628,-2.24,5.75,4.62,-0.68,0.42,-0.06,
2.628,-2.24,5.75,4.62,-0.65,0.28,-0.04,
2.64,-2.24,5.75,4.62,-0.60,0.09,0.00,
2.641,-2.24,5.75,4.62,-0.59,0.03,0.02,
2.641,-2.24,5.75,4.62,-0.56,-0.08,0.04,
2.642,-2.24,5.75,4.62,-0.52,-0.18,0.06,
2.642,-1.62,5.72,4.93,-0.52,-0.18,0.06,
2.642,-1.62,5.72,4.93,-0.49,-0.28,0.08,
2.643,-1.62,5.72,4.93,-0.43,-0.41,0.11,
2.643,-1.62,5.72,4.93,-0.41,-0.46,0.11,
2.671,-1.62,5.72,4.93,-0.37,-0.53,0.13,
2.672,-1.62,5.72,4.93,-0.33,-0.59,0.14,
2.673,-1.37,5.55,5.41,-0.33,-0.59,0.14,
2.673,-1.37,5.55,5.41,-0.29,-0.66,0.15,
2.673,-1.37,5.55,5.41,-0.23,-0.73,0.17,
2.674,-1.37,5.55,5.41,-0.20,-0.76,0.17,
2.674,-1.37,5.55,5.41,-0.16,-0.80,0.18,
2.674,-1.37,5.55,5.41,-0.11,-0.83,0.18,
2.674,-1.07,5.62,5.50,-0.11,-0.83,0.18,
2.675,-1.07,5.62,5.50,-0.06,-0.86,0.19,
2.675,-1.07,5.62,5.50,0.01,-0.89,0.19,
2.675,-1.07,5.62,5.50,0.04,-0.90,0.19,
2.675,-1.07,5.62,5.50,0.09,-0.90,0.19,
2.676,-1.07,5.62,5.50,0.14,-0.90,0.19,
2.676,-0.89,5.59,5.84,0.14,-0.90,0.19,
2.676,-0.89,5.59,5.84,0.20,-0.90,0.19,
2.677,-0.89,5.59,5.84,0.28,-0.88,0.20,
2.677,-0.89,5.59,5.84,0.31,-0.87,0.20,
2.677,-0.89,5.59,5.84,0.36,-0.85,0.20,
2.677,-0.89,5.59,5.84,0.42,-0.82,0.20,
2.678,-0.77,5.63,5.75,0.42,-0.82,0.20,
2.678,-0.77,5.63,5.75,0.48,-0.80,0.21,
2.682,-0.77,5.63,5.75,0.57,-0.75,0.21,
2.683,-0.77,5.63,5.75,0.60,-0.74,0.22,
2.686,-0.77,5.63,5.75,0.66,-0.71,0.22,
2.687,-0.77,5.63,5.75,0.72,-0.68,0.23,
2.688,-0.81,5.55,5.99,0.72,-0.68,0.23,
2.688,-0.81,5.55,5.99,0.79,-0.65,0.24,
2.691,-0.81,5.55,5.99,0.88,-0.62,0.26,
2.692,-0.81,5.55,5.99,0.91,-0.60,0.27,
2.694,-0.81,5.55,5.99,0.97,-0.58,0.28,
2.696,-0.81,5.55,5.99,1.03,-0.56,0.30,
2.702,-0.72,5.52,5.73,1.03,-0.56,0.30,
2.706,-0.72,5.52,5.73,1.09,-0.54,0.32,
2.708,-0.72,5.52,5.73,1.18,-0.53,0.35,
2.709,-0.72,5.52,5.73,1.22,-0.52,0.36,
2.709,-0.72,5.52,5.73,1.28,-0.52,0.38,
2.71,-0.72,5.52,5.73,1.34,-0.52,0.40,
2.71,-0.63,5.36,5.78,1.34,-0.52,0.40,
2.71,-0.63,5.36,5.78,1.41,-0.52,0.42,
2.737,-0.63,5.36,5.78,1.50,-0.53,0.45,
2.737,-0.63,5.36,5.78,1.53,-0.54,0.46,
2.738,-0.63,5.36,5.78,1.60,-0.55,0.48,
2.738,-0.63,5.36,5.78,1.67,-0.56,0.50,
2.739,-0.46,5.23,5.42,1.67,-0.56,0.50,
2.739,-0.46,5.23,5.42,1.73,-0.57,0.52,
2.74,-0.46,5.23,5.42,1.84,-0.59,0.56,
2.74,-0.46,5.23,5.42,1.88,-0.59,0.57,
2.74,-0.46,5.23,5.42,1.95,-0.60,0.59,
2.741,-0.46,5.23,5.42,2.02,-0.60,0.62,
2.741,-0.35,4.97,5.25,2.02,-0.60,0.62,
2.742,-0.35,4.97,5.25,2.09,-0.60,0.64,
2.742,-0.35,4.97,5.25,2.19,-0.58,0.68,
2.743,-0.35,4.97,5.25,2.23,-0.57,0.69,
2.743,-0.35,4.97,5.25,2.30,-0.54,0.72,
2.743,-0.35,4.97,5.25,2.37,-0.50,0.75,
2.744,-0.37,4.59,4.62,2.37,-0.50,0.75,
2.744,-0.37,4.59,4.62,2.45,-0.45,0.78,
2.745,-0.37,4.59,4.62,2.55,-0.37,0.82,
2.745,-0.37,4.59,4.62,2.59,-0.35,0.84,
2.746,-0.37,4.59,4.62,2.66,-0.29,0.87,
2.746,-0.37,4.59,4.62,2.72,-0.23,0.91,
2.748,-0.45,3.93,4.08,2.72,-0.23,0.91,
2.749,-0.45,3.93,4.08,2.79,-0.17,0.94,
2.751,-0.45,3.93,4.08,2.89,-0.09,0.99,
2.752,-0.45,3.93,4.08,2.91,-0.06,1.00,
2.754,-0.45,3.93,4.08,2.97,-0.01,1.03,
2.756,-0.45,3.93,4.08,3.02,0.04,1.07,
2.758,-0.31,3.02,2.77,3.02,0.04,1.07,
2.758,-0.31,3.02,2.77,3.06,0.08,1.09,
2.761,-0.31,3.02,2.77,3.09,0.14,1.14,
2.762,-0.31,3.02,2.77,3.10,0.17,1.16,
2.771,-0.31,3.02,2.77,3.09,0.20,1.19,
2.771,-0.31,3.02,2.77,3.05,0.25,1.23,
2.772,-0.63,1.83,-0.60,3.05,0.25,1.23,
2.772,-0.63,1.83,-0.60,2.98,0.31,1.28,
2.772,-0.63,1.83,-0.60,2.80,0.42,1.35,
2.772,-0.63,1.83,-0.60,2.71,0.48,1.38,
2.774,-0.63,1.83,-0.60,2.50,0.60,1.44,
2.776,-0.63,1.83,-0.60,2.23,0.72,1.50,
2.778,-2.37,-0.32,-10.98,2.23,0.72,1.50,
2.779,-2.37,-0.32,-10.98,1.91,0.86,1.55,
2.798,-2.37,-0.32,-10.98,1.36,1.11,1.60,
2.799,-2.37,-0.32,-10.98,1.15,1.17,1.62,
2.799,-2.37,-0.32,-10.98,0.72,1.24,1.63,
2.799,-2.37,-0.32,-10.98,0.31,1.21,1.61,
2.799,-4.08,-5.46,-29.27,0.31,1.21,1.61,
2.8,-4.08,-5.46,-29.27,-0.07,1.03,1.57,
2.8,-4.08,-5.46,-29.27,-0.71,0.49,1.45,
2.8,-4.08,-5.46,-29.27,-0.94,0.26,1.40,
2.8,-4.08,-5.46,-29.27,-1.42,-0.16,1.28,
2.8,-4.08,-5.46,-29.27,-1.87,-0.52,1.13,
2.801,-1.92,-15.34,-43.90,-1.87,-0.52,1.13,
2.801,-1.92,-15.34,-43.90,-2.24,-0.80,0.96,
2.801,-1.92,-15.34,-43.90,-2.65,-1.09,0.65,
2.803,-1.92,-15.34,-43.90,-2.74,-1.16,0.54,
2.804,-1.92,-15.34,-43.90,-2.85,-1.27,0.33,
2.806,-1.92,-15.34,-43.90,-2.88,-1.33,0.15,
2.808,3.62,-17.19,-34.26,-2.88,-1.33,0.15,
2.808,3.62,-17.19,-34.26,-2.84,-1.32,-0.01,
2.811,3.62,-17.19,-34.26,-2.66,-1.20,-0.19,
2.812,3.62,-17.19,-34.26,-2.59,-1.13,-0.25,
2.815,3.62,-17.19,-34.26,-2.42,-0.95,-0.33,
2.816,3.62,-17.19,-34.26,-2.24,-0.73,-0.40,
2.822,5.57,-9.41,-17.49,-2.24,-0.73,-0.40,
2.822,5.57,-9.41,-17.49,-2.06,-0.47,-0.47,
2.823,5.57,-9.41,-17.49,-1.78,-0.05,-0.57,
2.823,5.57,-9.41,-17.49,-1.68,0.09,-0.59,
2.824,5.57,-9.41,-17.49,-1.49,0.37,-0.62,
2.826,5.57,-9.41,-17.49,-1.29,0.64,-0.64,
2.828,5.01,-8.81,-8.16,-1.29,0.64,-0.64,
2.83,5.01,-8.81,-8.16,-1.09,0.89,-0.64,
2.836,5.01,-8.81,-8.16,-0.79,1.25,-0.64,
2.837,5.01,-8.81,-8.16,-0.69,1.35,-0.63,
2.837,5.01,-8.81,-8.16,-0.50,1.55,-0.62,
2.838,5.01,-8.81,-8.16,-0.32,1.73,-0.59,
2.838,4.38,-5.69,-3.01,-0.32,1.73,-0.59,
2.838,4.38,-5.69,-3.01,-0.13,1.88,-0.57,
2.841,4.38,-5.69,-3.01,0.14,2.07,-0.52,
2.842,4.38,-5.69,-3.01,0.23,2.12,-0.50,
2.844,4.38,-5.69,-3.01,0.40,2.21,-0.46,
2.848,4.38,-5.69,-3.01,0.63,2.32,-0.40,
2.849,4.04,-2.36,-0.46,0.63,2.32,-0.40,
2.849,4.04,-2.36,-0.46,0.70,2.34,-0.39,
2.851,4.04,-2.36,-0.46,0.90,2.40,-0.33,
2.852,4.04,-2.36,-0.46,0.96,2.41,-0.32,
2.854,4.04,-2.36,-0.46,1.07,2.43,-0.28,
2.856,4.04,-2.36,-0.46,1.16,2.43,-0.25,
2.859,4.07,0.43,0.41,1.16,2.43,-0.25,
2.859,4.07,0.43,0.41,1.23,2.42,-0.23,
2.861,4.07,0.43,0.41,1.30,2.38,-0.21,
2.862,4.07,0.43,0.41,1.31,2.36,-0.20,
2.867,4.07,0.43,0.41,1.30,2.32,-0.20,
2.868,4.07,0.43,0.41,1.27,2.27,-0.20,
2.868,4.58,2.52,-0.24,1.27,2.27,-0.20,
2.868,4.58,2.52,-0.24,1.22,2.22,-0.20,
2.871,4.58,2.52,-0.24,1.10,2.11,-0.22,
2.876,4.58,2.52,-0.24,1.05,2.06,-0.23,
2.876,4.58,2.52,-0.24,0.94,1.97,-0.25,
2.877,4.58,2.52,-0.24,0.83,1.86,-0.29,
2.902,5.06,2.77,-1.11,0.83,1.86,-0.29,
2.902,5.06,2.77,-1.11,0.71,1.74,-0.32,
2.903,5.06,2.77,-1.11,0.54,1.55,-0.40,
2.903,5.06,2.77,-1.11,0.48,1.48,-0.43,
2.903,5.06,2.77,-1.11,0.37,1.34,-0.49,
2.903,5.06,2.77,-1.11,0.26,1.18,-0.55,
2.904,5.82,0.89,0.29,0.26,1.18,-0.55,
2.904,5.82,0.89,0.29,0.17,1.00,-0.63,
2.904,5.82,0.89,0.29,0.04,0.70,-0.75,
2.904,5.82,0.89,0.29,-0.00,0.58,-0.79,
2.905,5.82,0.89,0.29,-0.06,0.32,-0.88,
2.905,5.82,0.89,0.29,-0.11,0.02,-0.97,
2.905,5.88,-1.59,3.92,-0.11,0.02,-0.97,
2.906,5.88,-1.59,3.92,-0.15,-0.30,-1.06,
2.906,5.88,-1.59,3.92,-0.21,-0.84,-1.20,
2.906,5.88,-1.59,3.92,-0.22,-1.03,-1.25,
2.906,5.88,-1.59,3.92,-0.25,-1.42,-1.34,
2.907,5.88,-1.59,3.92,-0.29,-1.83,-1.43,
2.909,5.69,-3.62,7.32,-0.29,-1.83,-1.43,
2.909,5.69,-3.62,7.32,-0.33,-2.23,-1.50,
2.911,5.69,-3.62,7.32,-0.40,-2.83,-1.60,
2.912,5.69,-3.62,7.32,-0.42,-3.03,-1.62,
2.916,5.69,-3.62,7.32,-0.48,-3.41,-1.67,
2.917,5.69,-3.62,7.32,-0.52,-3.78,-1.70,
2.917,4.63,-4.41,8.05,-0.52,-3.78,-1.70,
2.918,4.63,-4.41,8.05,-0.57,-4.13,-1.73,
2.921,4.63,-4.41,8.05,-0.63,-4.63,-1.76,
2.922,4.63,-4.41,8.05,-0.65,-4.78,-1.76,
2.924,4.63,-4.41,8.05,-0.68,-5.07,-1.76,
2.926,4.63,-4.41,8.05,-0.70,-5.34,-1.75,
2.928,3.59,-3.98,8.01,-0.70,-5.34,-1.75,
2.928,3.59,-3.98,8.01,-0.73,-5.58,-1.73,
2.931,3.59,-3.98,8.01,-0.75,-5.90,-1.70,
2.933,3.59,-3.98,8.01,-0.75,-5.99,-1.69,
2.934,3.59,-3.98,8.01,-0.74,-6.15,-1.67,
2.936,3.59,-3.98,8.01,-0.72,-6.29,-1.64,
2.937,2.93,-2.88,7.74,-0.72,-6.29,-1.64,
2.938,2.93,-2.88,7.74,-0.70,-6.41,-1.61,
2.941,2.93,-2.88,7.74,-0.64,-6.53,-1.56,
2.942,2.93,-2.88,7.74,-0.61,-6.55,-1.55,
2.943,2.93,-2.88,7.74,-0.56,-6.59,-1.52,
2.946,2.93,-2.88,7.74,-0.49,-6.59,-1.50,
2.948,2.93,-2.04,7.72,-0.49,-6.59,-1.50,
2.948,2.93,-2.04,7.72,-0.42,-6.57,-1.47,
2.951,2.93,-2.04,7.72,-0.31,-6.50,-1.45,
2.952,2.93,-2.04,7.72,-0.27,-6.47,-1.44,
2.954,2.93,-2.04,7.72,-0.19,-6.39,-1.42,
2.956,2.93,-2.04,7.72,-0.11,-6.29,-1.40,
2.959,2.69,-0.95,6.88,-0.11,-6.29,-1.40,
2.959,2.69,-0.95,6.88,-0.03,-6.10,-1.37,
2.961,2.69,-0.95,6.88,0.13,-5.79,-1.34,
2.962,2.69,-0.95,6.88,0.18,-5.68,-1.33,
2.964,2.69,-0.95,6.88,0.27,-5.48,-1.31,
2.966,2.69,-0.95,6.88,0.36,-5.31,-1.28,
2.969,1.61,0.35,5.35,0.36,-5.31,-1.28,
2.969,1.61,0.35,5.35,0.45,-5.13,-1.24,
2.971,1.61,0.35,5.35,0.60,-4.86,-1.19,
2.973,1.61,0.35,5.35,0.65,-4.77,-1.17,
2.974,1.61,0.35,5.35,0.74,-4.57,-1.13,
2.976,1.61,0.35,5.35,0.84,-4.38,-1.10,
2.978,0.55,1.42,4.41,0.84,-4.38,-1.10,
2.978,0.55,1.42,4.41,0.94,-4.19,-1.07,
2.981,0.55,1.42,4.41,1.09,-3.91,-1.03,
2.982,0.55,1.42,4.41,1.14,-3.81,-1.02,
2.984,0.55,1.42,4.41,1.24,-3.51,-0.99,
2.986,0.55,1.42,4.41,1.39,-2.85,-0.96,
2.988,-0.14,1.71,1.96,1.39,-2.85,-0.96,
2.988,-0.14,1.71,1.96,1.59,-2.10,-0.94,
2.99,-0.14,1.71,1.96,1.84,-1.01,-0.96,
2.992,-0.14,1.71,1.96,1.92,-0.73,-0.97,
2.994,-0.14,1.71,1.96,2.09,-0.25,-0.99,
2.999,-0.14,1.71,1.96,2.25,0.20,-1.01,
3.001,0.54,1.61,1.90,2.25,0.20,-1.01,
3.001,0.54,1.61,1.90,2.40,0.58,-1.02,
3.002,0.54,1.61,1.90,2.61,1.04,-1.01,
3.002,0.54,1.61,1.90,2.67,1.15,-1.01,
3.004,0.54,1.61,1.90,2.79,1.34,-0.98,
3.006,0.54,1.61,1.90,2.90,1.46,-0.95,
3.033,0.09,0.29,3.02,2.90,1.46,-0.95,
3.036,0.09,0.29,3.02,3.00,1.53,-0.90,
3.037,0.09,0.29,3.02,3.13,1.56,-0.80,
3.038,0.09,0.29,3.02,3.17,1.56,-0.76,
3.038,0.09,0.29,3.02,3.23,1.56,-0.68,
3.039,0.09,0.29,3.02,3.30,1.54,-0.58,
3.039,-1.51,-0.77,3.33,3.30,1.54,-0.58,
3.04,-1.51,-0.77,3.33,3.36,1.50,-0.48,
3.041,-1.51,-0.77,3.33,3.43,1.39,-0.32,
3.042,-1.51,-0.77,3.33,3.44,1.35,-0.27,
3.043,-1.51,-0.77,3.33,3.47,1.26,-0.16,
3.044,-1.51,-0.77,3.33,3.49,1.18,-0.05,
3.047,-2.99,-1.17,3.33,3.49,1.18,-0.05,
3.048,-2.99,-1.17,3.33,3.50,1.10,0.06,
3.048,-2.99,-1.17,3.33,3.50,0.98,0.22,
3.048,-2.99,-1.17,3.33,3.50,0.95,0.28,
3.048,-2.99,-1.17,3.33,3.48,0.88,0.39,
3.048,-2.99,-1.17,3.33,3.46,0.82,0.51,
3.048,-4.16,-1.50,2.49,3.46,0.82,0.51,
3.048,-4.16,-1.50,2.49,3.42,0.75,0.62,
3.049,-4.16,-1.50,2.49,3.35,0.65,0.80,
3.049,-4.16,-1.50,2.49,3.32,0.62,0.85,
3.068,-4.16,-1.50,2.49,3.25,0.55,0.96,
3.068,-4.16,-1.50,2.49,3.17,0.48,1.06,
3.068,-5.17,-1.80,1.64,3.17,0.48,1.06,
3.069,-5.17,-1.80,1.64,3.09,0.41,1.16,
3.069,-5.17,-1.80,1.64,2.95,0.31,1.31,
3.07,-5.17,-1.80,1.64,2.90,0.28,1.36,
3.07,-5.17,-1.80,1.64,2.79,0.23,1.44,
3.071,-5.17,-1.80,1.64,2.68,0.16,1.52,
3.071,-5.79,-1.94,0.49,2.68,0.16,1.52,
3.071,-5.79,-1.94,0.49,2.56,0.10,1.60,
3.072,-5.79,-1.94,0.49,2.38,0.01,1.70,
3.072,-5.79,-1.94,0.49,2.32,-0.02,1.73,
3.073,-5.79,-1.94,0.49,2.19,-0.08,1.78,
3.073,-5.79,-1.94,0.49,2.05,-0.14,1.82,
3.073,-6.13,-2.16,-0.63,2.05,-0.14,1.82,
3.074,-6.13,-2.16,-0.63,1.92,-0.20,1.85,
3.074,-6.13,-2.16,-0.63,1.72,-0.28,1.89,
3.074,-6.13,-2.16,-0.63,1.65,-0.31,1.89,
3.074,-6.13,-2.16,-0.63,1.52,-0.36,1.90,
3.077,-6.13,-2.16,-0.63,1.38,-0.42,1.91,
3.092,-5.96,-2.11,-1.50,1.38,-0.42,1.91,
3.093,-5.96,-2.11,-1.50,1.24,-0.48,1.91,
3.093,-5.96,-2.11,-1.50,1.01,-0.59,1.91,
3.093,-5.96,-2.11,-1.50,0.94,-0.63,1.91,
3.094,-5.96,-2.11,-1.50,0.78,-0.72,1.91,
3.094,-5.96,-2.11,-1.50,0.62,-0.82,1.90,
3.094,-6.17,-1.46,-3.13,0.62,-0.82,1.90,
3.094,-6.17,-1.46,-3.13,0.46,-0.93,1.89,
3.095,-6.17,-1.46,-3.13,0.21,-1.11,1.86,
3.095,-6.17,-1.46,-3.13,0.12,-1.18,1.85,
3.095,-6.17,-1.46,-3.13,-0.04,-1.32,1.83,
3.099,-6.17,-1.46,-3.13,-0.19,-1.48,1.81,
3.1,-5.73,0.04,-4.45,-0.19,-1.48,1.81,
3.1,-5.73,0.04,-4.45,-0.33,-1.63,1.79,
3.101,-5.73,0.04,-4.45,-0.52,-1.89,1.75,
3.102,-5.73,0.04,-4.45,-0.58,-1.98,1.74,
3.104,-5.73,0.04,-4.45,-0.67,-2.18,1.71,
3.105,-5.73,0.04,-4.45,-0.73,-2.41,1.67,
3.108,-5.69,1.15,-4.37,-0.73,-2.41,1.67,
3.108,-5.69,1.15,-4.37,-0.77,-2.65,1.63,
3.111,-5.69,1.15,-4.37,-0.75,-3.06,1.57,
3.112,-5.69,1.15,-4.37,-0.73,-3.21,1.55,
3.114,-5.69,1.15,-4.37,-0.67,-3.50,1.52,
3.116,-5.69,1.15,-4.37,-0.58,-3.81,1.47,
3.118,-4.88,1.89,-2.47,-0.58,-3.81,1.47,
3.12,-4.88,1.89,-2.47,-0.47,-4.11,1.41,
3.122,-4.88,1.89,-2.47,-0.27,-4.54,1.31,
3.122,-4.88,1.89,-2.47,-0.19,-4.67,1.28,
3.124,-4.88,1.89,-2.47,-0.04,-4.92,1.20,
3.126,-4.88,1.89,-2.47,0.13,-5.15,1.13,
3.128,-3.69,2.30,-1.13,0.13,-5.15,1.13,
3.128,-3.69,2.30,-1.13,0.30,-5.35,1.05,
3.133,-3.69,2.30,-1.13,0.55,-5.61,0.93,
3.133,-3.69,2.30,-1.13,0.64,-5.68,0.90,
3.135,-3.69,2.30,-1.13,0.81,-5.81,0.82,
3.136,-3.69,2.30,-1.13,0.97,-5.91,0.74,
3.138,-2.66,2.42,-1.10,0.97,-5.91,0.74,
3.138,-2.66,2.42,-1.10,1.13,-5.98,0.67,
3.141,-2.66,2.42,-1.10,1.36,-6.04,0.56,
3.142,-2.66,2.42,-1.10,1.43,-6.05,0.53,
3.156,-2.66,2.42,-1.10,1.56,-6.06,0.46,
3.158,-2.66,2.42,-1.10,1.68,-6.04,0.41,
3.159,-2.18,2.03,-2.31,1.68,-6.04,0.41,
3.159,-2.18,2.03,-2.31,1.79,-6.01,0.35,
3.16,-2.18,2.03,-2.31,1.92,-5.92,0.27,
3.16,-2.18,2.03,-2.31,1.96,-5.88,0.25,
3.161,-2.18,2.03,-2.31,2.02,-5.79,0.20,
3.162,-2.18,2.03,-2.31,2.06,-5.68,0.16,
3.163,-1.80,1.38,-4.17,2.06,-5.68,0.16,
3.164,-1.80,1.38,-4.17,2.09,-5.54,0.11,
3.167,-1.80,1.38,-4.17,2.10,-5.31,0.04,
3.168,-1.80,1.38,-4.17,2.10,-5.22,0.02,
3.169,-1.80,1.38,-4.17,2.09,-5.03,-0.02,
3.169,-1.80,1.38,-4.17,2.05,-4.83,-0.06,
3.17,-1.65,0.77,-6.40,2.05,-4.83,-0.06,
3.17,-1.65,0.77,-6.40,2.00,-4.61,-0.10,
3.172,-1.65,0.77,-6.40,1.91,-4.26,-0.15,
3.173,-1.65,0.77,-6.40,1.84,-4.01,-0.17,
3.177,-1.65,0.77,-6.40,1.79,-3.88,-0.19,
3.178,-1.65,0.77,-6.40,1.71,-3.62,-0.21,
3.179,-1.60,0.30,-7.69,1.71,-3.62,-0.21,
3.18,-1.60,0.30,-7.69,1.61,-3.34,-0.23,
3.183,-1.60,0.30,-7.69,1.45,-2.92,-0.26,
3.183,-1.60,0.30,-7.69,1.39,-2.77,-0.27,
3.184,-1.60,0.30,-7.69,1.28,-2.48,-0.29,
3.186,-1.60,0.30,-7.69,1.17,-2.19,-0.30,
3.189,-1.76,-0.35,-8.23,1.17,-2.19,-0.30,
3.191,-1.76,-0.35,-8.23,1.06,-1.90,-0.31,
3.192,-1.76,-0.35,-8.23,0.89,-1.46,-0.33,
3.192,-1.76,-0.35,-8.23,0.83,-1.32,-0.33,
3.194,-1.76,-0.35,-8.23,0.73,-1.04,-0.34,
3.196,-1.76,-0.35,-8.23,0.57,-0.64,-0.36,
3.198,-1.81,-0.84,-7.32,0.57,-0.64,-0.36,
3.199,-1.81,-0.84,-7.32,0.53,-0.52,-0.36,
3.201,-1.81,-0.84,-7.32,0.39,-0.17,-0.38,
3.202,-1.81,-0.84,-7.32,0.35,-0.06,-0.38,
3.204,-1.81,-0.84,-7.32,0.28,0.14,-0.39,
3.206,-1.81,-0.84,-7.32,0.22,0.33,-0.40,
3.207,-1.97,-0.98,-6.05,0.22,0.33,-0.40,
3.208,-1.97,-0.98,-6.05,0.17,0.50,-0.41,
3.237,-1.97,-0.98,-6.05,0.11,0.72,-0.41,
3.237,-1.97,-0.98,-6.05,0.10,0.78,-0.42,
3.237,-1.97,-0.98,-6.05,0.08,0.90,-0.42,
3.238,-1.97,-0.98,-6.05,0.07,1.00,-0.43,
3.238,-2.29,-0.72,-4.15,0.07,1.00,-0.43,
3.238,-2.29,-0.72,-4.15,0.07,1.08,-0.43,
3.239,-2.29,-0.72,-4.15,0.09,1.16,-0.43,
3.239,-2.29,-0.72,-4.15,0.11,1.20,-0.43,
3.239,-2.29,-0.72,-4.15,0.13,1.21,-0.43,
3.239,-2.29,-0.72,-4.15,0.16,1.22,-0.43,
3.24,-2.69,-0.45,-2.46,0.16,1.22,-0.43,
3.24,-2.69,-0.45,-2.46,0.21,1.22,-0.43,
3.24,-2.69,-0.45,-2.46,0.29,1.19,-0.43,
3.24,-2.69,-0.45,-2.46,0.32,1.18,-0.43,
3.241,-2.69,-0.45,-2.46,0.39,1.14,-0.43,
3.241,-2.69,-0.45,-2.46,0.46,1.09,-0.43,
3.241,-2.91,-0.09,-1.01,0.46,1.09,-0.43,
3.242,-2.91,-0.09,-1.01,0.53,1.03,-0.43,
3.242,-2.91,-0.09,-1.01,0.65,0.92,-0.43,
3.242,-2.91,-0.09,-1.01,0.69,0.88,-0.43,
3.244,-2.91,-0.09,-1.01,0.77,0.80,-0.43,
3.246,-2.91,-0.09,-1.01,0.85,0.71,-0.44,
3.248,-3.06,0.25,-0.23,0.85,0.71,-0.44,
3.248,-3.06,0.25,-0.23,0.93,0.63,-0.44,
3.252,-3.06,0.25,-0.23,1.05,0.50,-0.46,
3.252,-3.06,0.25,-0.23,1.08,0.46,-0.46,
3.254,-3.06,0.25,-0.23,1.15,0.37,-0.48,
3.256,-3.06,0.25,-0.23,1.21,0.29,-0.49,
3.258,-2.78,0.53,-0.17,1.21,0.29,-0.49,
3.258,-2.78,0.53,-0.17,1.28,0.22,-0.51,
3.261,-2.78,0.53,-0.17,1.36,0.12,-0.54,
3.263,-2.78,0.53,-0.17,1.39,0.09,-0.55,
3.264,-2.78,0.53,-0.17,1.43,0.03,-0.56,
3.268,-2.78,0.53,-0.17,1.48,-0.03,-0.58,
3.268,-2.74,0.71,-0.58,1.48,-0.03,-0.58,
3.269,-2.74,0.71,-0.58,1.52,-0.08,-0.59,
3.271,-2.74,0.71,-0.58,1.57,-0.14,-0.60,
3.272,-2.74,0.71,-0.58,1.60,-0.18,-0.61,
3.274,-2.74,0.71,-0.58,1.62,-0.20,-0.61,
3.276,-2.74,0.71,-0.58,1.64,-0.23,-0.62,
3.278,-2.80,0.72,-1.13,1.64,-0.23,-0.62,
3.284,-2.80,0.72,-1.13,1.67,-0.27,-0.62,
3.284,-2.80,0.72,-1.13,1.70,-0.32,-0.61,
3.284,-2.80,0.72,-1.13,1.72,-0.36,-0.60,
3.285,-2.80,0.72,-1.13,1.73,-0.38,-0.60,
3.289,-2.80,0.72,-1.13,1.75,-0.42,-0.58,
3.289,-3.02,0.50,-1.77,1.75,-0.42,-0.58,
3.29,-3.02,0.50,-1.77,1.78,-0.46,-0.57,
3.292,-3.02,0.50,-1.77,1.81,-0.53,-0.54,
3.293,-3.02,0.50,-1.77,1.83,-0.55,-0.53,
3.3,-3.02,0.50,-1.77,1.85,-0.61,-0.50,
3.301,-3.02,0.50,-1.77,1.89,-0.66,-0.48,
3.301,-2.88,0.46,-2.46,1.89,-0.66,-0.48,
3.302,-2.88,0.46,-2.46,1.92,-0.72,-0.45,
3.302,-2.88,0.46,-2.46,1.98,-0.80,-0.41,
3.302,-2.88,0.46,-2.46,2.00,-0.83,-0.40,
3.304,-2.88,0.46,-2.46,2.04,-0.88,-0.38,
3.306,-2.88,0.46,-2.46,2.07,-0.93,-0.36,
3.31,-2.48,0.42,-3.70,2.07,-0.93,-0.36,
3.31,-2.48,0.42,-3.70,2.11,-0.98,-0.34,
3.311,-2.48,0.42,-3.70,2.14,-1.04,-0.32,
3.312,-2.48,0.42,-3.70,2.15,-1.05,-0.31,
3.314,-2.48,0.42,-3.70,2.15,-1.07,-0.31,
3.316,-2.48,0.42,-3.70,2.15,-1.08,-0.30,
3.318,-1.87,0.05,-5.87,2.15,-1.08,-0.30,
3.318,-1.87,0.05,-5.87,2.13,-1.08,-0.30,
3.321,-1.87,0.05,-5.87,2.07,-1.04,-0.31,
3.322,-1.87,0.05,-5.87,2.02,-1.00,-0.32,
3.324,-1.87,0.05,-5.87,1.99,-0.97,-0.33,
3.326,-1.87,0.05,-5.87,1.90,-0.90,-0.35,
3.329,-1.99,-1.25,-9.41,1.90,-0.90,-0.35,
3.329,-1.99,-1.25,-9.41,1.81,-0.81,-0.37,
3.331,-1.99,-1.25,-9.41,1.63,-0.65,-0.40,
3.332,-1.99,-1.25,-9.41,1.50,-0.54,-0.42,
3.334,-1.99,-1.25,-9.41,1.43,-0.48,-0.42,
3.336,-1.99,-1.25,-9.41,1.29,-0.36,-0.44,
3.338,-2.64,-2.54,-12.04,1.29,-0.36,-0.44,
3.339,-2.64,-2.54,-12.04,1.14,-0.24,-0.45,
3.341,-2.64,-2.54,-12.04,0.91,-0.06,-0.46,
3.342,-2.64,-2.54,-12.04,0.84,0.00,-0.46,
3.344,-2.64,-2.54,-12.04,0.69,0.11,-0.47,
3.346,-2.64,-2.54,-12.04,0.54,0.22,-0.47,
3.348,-3.79,-3.96,-12.26,0.54,0.22,-0.47,
3.349,-3.79,-3.96,-12.26,0.40,0.32,-0.47,
3.351,-3.79,-3.96,-12.26,0.19,0.44,-0.47,
3.352,-3.79,-3.96,-12.26,0.13,0.47,-0.47,
3.354,-3.79,-3.96,-12.26,0.01,0.53,-0.46,
3.356,-3.79,-3.96,-12.26,-0.10,0.57,-0.45,
3.358,-4.50,-4.82,-10.13,-0.10,0.57,-0.45,
3.358,-4.50,-4.82,-10.13,-0.20,0.60,-0.45,
3.361,-4.50,-4.82,-10.13,-0.34,0.62,-0.43,
3.364,-4.50,-4.82,-10.13,-0.38,0.62,-0.42,
3.364,-4.50,-4.82,-10.13,-0.45,0.61,-0.41,
3.366,-4.50,-4.82,-10.13,-0.52,0.60,-0.40,
3.368,-4.82,-5.11,-7.84,-0.52,0.60,-0.40,
3.368,-4.82,-5.11,-7.84,-0.59,0.58,-0.38,
3.371,-4.82,-5.11,-7.84,-0.68,0.54,-0.35,
3.372,-4.82,-5.11,-7.84,-0.73,0.52,-0.33,
3.374,-4.82,-5.11,-7.84,-0.76,0.52,-0.32,
3.376,-4.82,-5.11,-7.84,-0.81,0.50,-0.30,
3.41,-4.43,-4.35,-6.07,-0.81,0.50,-0.30,
3.411,-4.43,-4.35,-6.07,-0.86,0.49,-0.29,
3.411,-4.43,-4.35,-6.07,-0.94,0.50,-0.27,
3.411,-4.43,-4.35,-6.07,-0.96,0.50,-0.26,
3.412,-4.43,-4.35,-6.07,-1.01,0.52,-0.26,
3.412,-4.43,-4.35,-6.07,-1.06,0.55,-0.25,
3.413,-3.65,-3.21,-5.18,-1.06,0.55,-0.25,
3.413,-3.65,-3.21,-5.18,-1.11,0.59,-0.25,
3.413,-3.65,-3.21,-5.18,-1.19,0.67,-0.24,
3.414,-3.65,-3.21,-5.18,-1.22,0.70,-0.24,
3.414,-3.65,-3.21,-5.18,-1.27,0.76,-0.24,
3.415,-3.65,-3.21,-5.18,-1.32,0.84,-0.24,
3.415,-3.14,-2.76,-4.59,-1.32,0.84,-0.24,
3.416,-3.14,-2.76,-4.59,-1.38,0.92,-0.23,
3.416,-3.14,-2.76,-4.59,-1.45,1.04,-0.23,
3.416,-3.14,-2.76,-4.59,-1.48,1.09,-0.22,
3.417,-3.14,-2.76,-4.59,-1.53,1.18,-0.21,
3.417,-3.14,-2.76,-4.59,-1.58,1.26,-0.20,
3.418,-3.13,-3.21,-4.70,-1.58,1.26,-0.20,
3.418,-3.13,-3.21,-4.70,-1.63,1.35,-0.20,
3.419,-3.13,-3.21,-4.70,-1.69,1.47,-0.18,
3.419,-3.13,-3.21,-4.70,-1.71,1.51,-0.17,
3.419,-3.13,-3.21,-4.70,-1.75,1.59,-0.16,
3.42,-3.13,-3.21,-4.70,-1.78,1.67,-0.15,
3.42,-3.00,-3.84,-5.20,-1.78,1.67,-0.15,
3.421,-3.00,-3.84,-5.20,-1.81,1.74,-0.13,
3.421,-3.00,-3.84,-5.20,-1.86,1.86,-0.11,
3.421,-3.00,-3.84,-5.20,-1.88,1.90,-0.10,
3.424,-3.00,-3.84,-5.20,-1.92,1.99,-0.10,
3.426,-3.00,-3.84,-5.20,-1.99,2.10,-0.09,
3.436,-2.08,-3.79,-7.84,-1.99,2.10,-0.09,
3.437,-2.08,-3.79,-7.84,-2.08,2.24,-0.10,
3.437,-2.08,-3.79,-7.84,-2.26,2.48,-0.12,
3.437,-2.08,-3.79,-7.84,-2.34,2.57,-0.13,
3.438,-2.08,-3.79,-7.84,-2.51,2.77,-0.16,
3.438,-2.08,-3.79,-7.84,-2.70,2.97,-0.19,
3.438,-0.02,-2.52,-13.38,-2.70,2.97,-0.19,
3.439,-0.02,-2.52,-13.38,-2.91,3.17,-0.23,
3.475,-0.02,-2.52,-13.38,-3.23,3.45,-0.28,
3.476,-0.02,-2.52,-13.38,-3.44,3.61,-0.32,
3.476,-0.02,-2.52,-13.38,-3.53,3.68,-0.34,
3.476,-0.02,-2.52,-13.38,-3.71,3.79,-0.36,
3.476,0.56,-1.63,-14.23,-3.71,3.79,-0.36,
3.477,0.56,-1.63,-14.23,-3.85,3.88,-0.38,
3.477,0.56,-1.63,-14.23,-4.02,3.95,-0.40,
3.477,0.56,-1.63,-14.23,-4.06,3.97,-0.40,
3.478,0.56,-1.63,-14.23,-4.12,3.98,-0.40,
3.478,0.56,-1.63,-14.23,-4.15,3.98,-0.38,
3.478,-0.89,-1.82,-7.83,-4.15,3.98,-0.38,
3.479,-0.89,-1.82,-7.83,-4.16,3.97,-0.36,
3.479,-0.89,-1.82,-7.83,-4.14,3.94,-0.32,
3.479,-0.89,-1.82,-7.83,-4.12,3.93,-0.30,
3.479,-0.89,-1.82,-7.83,-4.07,3.90,-0.26,
3.48,-0.89,-1.82,-7.83,-4.02,3.87,-0.21,
3.48,-3.07,-2.81,-0.92,-4.02,3.87,-0.21,
3.48,-3.07,-2.81,-0.92,-3.95,3.84,-0.17,
3.481,-3.07,-2.81,-0.92,-3.85,3.77,-0.10,
3.481,-3.07,-2.81,-0.92,-3.77,3.71,-0.04,
3.481,-3.07,-2.81,-0.92,-3.73,3.68,-0.02,
3.482,-3.07,-2.81,-0.92,-3.66,3.62,0.03,
3.482,-5.17,-3.11,3.86,-3.66,3.62,0.03,
3.482,-5.17,-3.11,3.86,-3.58,3.55,0.08,
3.484,-5.17,-3.11,3.86,-3.47,3.43,0.15,
3.484,-5.17,-3.11,3.86,-3.43,3.39,0.18,
3.485,-5.17,-3.11,3.86,-3.35,3.31,0.23,
3.487,-5.17,-3.11,3.86,-3.27,3.23,0.29,
3.488,-6.16,-2.47,6.56,-3.27,3.23,0.29,
3.488,-6.16,-2.47,6.56,-3.20,3.15,0.35,
3.491,-6.16,-2.47,6.56,-3.09,3.02,0.44,
3.492,-6.16,-2.47,6.56,-3.03,2.94,0.49,
3.502,-6.16,-2.47,6.56,-3.00,2.89,0.52,
3.506,-6.16,-2.47,6.56,-2.94,2.79,0.57,
3.507,-6.83,-2.86,6.77,-2.94,2.79,0.57,
3.507,-6.83,-2.86,6.77,-2.88,2.69,0.62,
3.507,-6.83,-2.86,6.77,-2.80,2.52,0.69,
3.508,-6.83,-2.86,6.77,-2.76,2.41,0.73,
3.508,-6.83,-2.86,6.77,-2.73,2.36,0.74,
3.508,-6.83,-2.86,6.77,-2.69,2.25,0.78,
3.508,-6.38,-4.02,6.36,-2.69,2.25,0.78,
3.509,-6.38,-4.02,6.36,-2.64,2.14,0.80,
3.523,-6.38,-4.02,6.36,-2.58,1.98,0.83,
3.525,-6.38,-4.02,6.36,-2.55,1.87,0.85,
3.526,-6.38,-4.02,6.36,-2.53,1.82,0.85,
3.527,-6.38,-4.02,6.36,-2.50,1.71,0.86,
3.528,-5.31,-5.08,5.78,-2.50,1.71,0.86,
3.529,-5.31,-5.08,5.78,-2.47,1.61,0.87,
3.53,-5.31,-5.08,5.78,-2.42,1.47,0.87,
3.533,-5.31,-5.08,5.78,-2.39,1.38,0.88,
3.534,-5.31,-5.08,5.78,-2.38,1.34,0.88,
3.534,-5.31,-5.08,5.78,-2.36,1.25,0.88,
3.535,-4.49,-5.96,5.53,-2.36,1.25,0.88,
3.536,-4.49,-5.96,5.53,-2.34,1.18,0.89,
3.536,-4.49,-5.96,5.53,-2.31,1.07,0.89,
3.537,-4.49,-5.96,5.53,-2.30,1.00,0.90,
3.538,-4.49,-5.96,5.53,-2.29,0.96,0.90,
3.539,-4.49,-5.96,5.53,-2.29,0.89,0.90,
3.551,-3.66,-6.41,5.12,-2.29,0.89,0.90,
3.553,-3.66,-6.41,5.12,-2.28,0.82,0.90,
3.553,-3.66,-6.41,5.12,-2.28,0.71,0.89,
3.554,-3.66,-6.41,5.12,-2.28,0.64,0.89,
3.582,-3.66,-6.41,5.12,-2.28,0.60,0.89,
3.583,-3.66,-6.41,5.12,-2.28,0.49,0.88,
3.583,-2.70,-6.37,5.06,-2.28,0.49,0.88,
3.584,-2.70,-6.37,5.06,-2.27,0.45,0.87,
3.584,-2.70,-6.37,5.06,-2.27,0.34,0.85,
3.584,-2.70,-6.37,5.06,-2.26,0.27,0.84,
3.585,-2.70,-6.37,5.06,-2.26,0.23,0.83,
3.585,-2.70,-6.37,5.06,-2.25,0.16,0.81,
3.586,-1.63,-6.12,5.12,-2.25,0.16,0.81,
3.586,-1.63,-6.12,5.12,-2.24,0.08,0.79,
3.587,-1.63,-6.12,5.12,-2.22,-0.02,0.76,
3.587,-1.63,-6.12,5.12,-2.20,-0.09,0.73,
3.587,-1.63,-6.12,5.12,-2.20,-0.12,0.71,
3.588,-1.63,-6.12,5.12,-2.18,-0.18,0.68,
3.588,-0.42,-5.79,5.41,-2.18,-0.18,0.68,
3.589,-0.42,-5.79,5.41,-2.15,-0.25,0.64,
3.589,-0.42,-5.79,5.41,-2.12,-0.33,0.59,
3.589,-0.42,-5.79,5.41,-2.10,-0.39,0.54,
3.59,-0.42,-5.79,5.41,-2.08,-0.42,0.52,
3.59,-0.42,-5.79,5.41,-2.05,-0.46,0.47,
3.591,0.83,-5.31,5.56,-2.05,-0.46,0.47,
3.591,0.83,-5.31,5.56,-2.01,-0.51,0.42,
3.591,0.83,-5.31,5.56,-1.95,-0.56,0.34,
3.592,0.83,-5.31,5.56,-1.91,-0.59,0.28,
3.592,0.83,-5.31,5.56,-1.88,-0.60,0.25,
3.593,0.83,-5.31,5.56,-1.83,-0.62,0.20,
3.593,1.99,-4.81,5.95,-1.83,-0.62,0.20,
3.593,1.99,-4.81,5.95,-1.78,-0.63,0.14,
3.594,1.99,-4.81,5.95,-1.70,-0.64,0.04,
3.594,1.99,-4.81,5.95,-1.65,-0.63,-0.02,
3.594,1.99,-4.81,5.95,-1.62,-0.62,-0.06,
3.596,1.99,-4.81,5.95,-1.57,-0.60,-0.13,
3.598,3.08,-4.01,5.70,-1.57,-0.60,-0.13,
3.598,3.08,-4.01,5.70,-1.52,-0.56,-0.21,
3.601,3.08,-4.01,5.70,-1.45,-0.48,-0.33,
3.602,3.08,-4.01,5.70,-1.40,-0.40,-0.41,
3.604,3.08,-4.01,5.70,-1.38,-0.33,-0.45,
3.606,3.08,-4.01,5.70,-1.35,-0.04,-0.54,
3.608,4.38,-3.00,3.40,-1.35,-0.04,-0.54,
3.608,4.38,-3.00,3.40,-1.39,0.45,-0.63,
3.611,4.38,-3.00,3.40,-1.45,1.28,-0.78,
3.613,4.38,-3.00,3.40,-1.50,1.86,-0.88,
3.614,4.38,-3.00,3.40,-1.53,2.16,-0.92,
3.616,4.38,-3.00,3.40,-1.57,2.74,-1.00,
3.618,5.82,-1.57,-1.90,-1.57,2.74,-1.00,
3.618,5.82,-1.57,-1.90,-1.61,3.30,-1.08,
3.623,5.82,-1.57,-1.90,-1.69,4.50,-1.23,
3.623,5.82,-1.57,-1.90,-1.69,4.50,-1.23,
3.624,5.82,-1.57,-1.90,-1.70,4.70,-1.26,
3.626,5.82,-1.57,-1.90,-1.71,5.06,-1.31,
3.632,4.98,-0.35,-1.06,-1.71,5.06,-1.31,
3.632,4.98,-0.35,-1.06,-1.71,5.38,-1.35,
3.632,4.98,-0.35,-1.06,-1.70,5.77,-1.41,
3.633,4.98,-0.35,-1.06,-1.69,5.98,-1.45,
3.654,4.98,-0.35,-1.06,-1.68,6.07,-1.46,
3.655,4.98,-0.35,-1.06,-1.65,6.21,-1.50,
3.656,3.79,0.62,1.51,-1.65,6.21,-1.50,
3.656,3.79,0.62,1.51,-1.62,6.32,-1.53,
3.656,3.79,0.62,1.51,-1.57,6.45,-1.57,
3.656,3.79,0.62,1.51,-1.54,6.50,-1.60,
3.656,3.79,0.62,1.51,-1.52,6.51,-1.61,
3.657,3.79,0.62,1.51,-1.48,6.53,-1.63,
3.657,2.95,1.60,3.44,-1.48,6.53,-1.63,
3.658,2.95,1.60,3.44,-1.44,6.52,-1.65,
3.658,2.95,1.60,3.44,-1.38,6.48,-1.67,
3.659,2.95,1.60,3.44,-1.34,6.43,-1.68,
3.659,2.95,1.60,3.44,-1.32,6.40,-1.68,
3.66,2.95,1.60,3.44,-1.29,6.33,-1.69,
3.66,1.98,2.54,4.13,-1.29,6.33,-1.69,
3.66,1.98,2.54,4.13,-1.25,6.26,-1.69,
3.662,1.98,2.54,4.13,-1.21,6.13,-1.68,
3.662,1.98,2.54,4.13,-1.19,6.03,-1.67,
3.664,1.98,2.54,4.13,-1.18,5.98,-1.67,
3.666,1.98,2.54,4.13,-1.16,5.86,-1.65,
3.668,1.07,3.24,4.24,-1.16,5.86,-1.65,
3.668,1.07,3.24,4.24,-1.15,5.75,-1.64,
3.671,1.07,3.24,4.24,-1.14,5.47,-1.60,
3.672,1.07,3.24,4.24,-1.14,5.40,-1.59,
3.674,1.07,3.24,4.24,-1.14,5.32,-1.58,
3.676,1.07,3.24,4.24,-1.15,5.16,-1.56,
3.677,0.25,4.29,3.85,-1.15,5.16,-1.56,
3.678,0.25,4.29,3.85,-1.16,4.90,-1.52,
3.681,0.25,4.29,3.85,-1.18,4.73,-1.49,
3.682,0.25,4.29,3.85,-1.19,4.54,-1.46,
3.684,0.25,4.29,3.85,-1.21,4.34,-1.43,
3.686,0.25,4.29,3.85,-1.22,4.14,-1.40,
3.688,-0.49,5.13,3.99,-1.22,4.14,-1.40,
3.688,-0.49,5.13,3.99,-1.24,3.94,-1.36,
3.691,-0.49,5.13,3.99,-1.25,3.73,-1.32,
3.692,-0.49,5.13,3.99,-1.27,3.51,-1.28,
3.694,-0.49,5.13,3.99,-1.29,3.30,-1.23,
3.696,-0.49,5.13,3.99,-1.31,3.08,-1.18,
3.698,-1.24,5.88,4.13,-1.31,3.08,-1.18,
3.698,-1.24,5.88,4.13,-1.33,2.86,-1.14,
3.701,-1.24,5.88,4.13,-1.34,2.65,-1.09,
3.702,-1.24,5.88,4.13,-1.35,2.42,-1.03,
3.704,-1.24,5.88,4.13,-1.36,2.20,-0.98,
3.706,-1.24,5.88,4.13,-1.36,1.98,-0.92,
3.708,-1.82,6.35,4.97,-1.36,1.98,-0.92,
3.708,-1.82,6.35,4.97,-1.35,1.77,-0.87,
3.738,-1.82,6.35,4.97,-1.35,1.56,-0.81,
3.738,-1.82,6.35,4.97,-1.33,1.35,-0.74,
3.739,-1.82,6.35,4.97,-1.31,1.15,-0.67,
3.739,-1.82,6.35,4.97,-1.29,0.95,-0.59,
3.741,-2.18,6.78,5.69,-1.29,0.95,-0.59,
3.741,-2.18,6.78,5.69,-1.26,0.76,-0.52,
3.742,-2.18,6.78,5.69,-1.21,0.49,-0.40,
3.742,-2.18,6.78,5.69,-1.20,0.40,-0.36,
3.742,-2.18,6.78,5.69,-1.16,0.24,-0.29,
3.742,-2.18,6.78,5.69,-1.12,0.09,-0.21,
3.743,-2.55,6.98,6.41,-1.12,0.09,-0.21,
3.743,-2.55,6.98,6.41,-1.07,-0.05,-0.12,
3.743,-2.55,6.98,6.41,-1.02,-0.17,-0.04,
3.743,-2.55,6.98,6.41,-0.97,-0.27,0.04,
3.744,-2.55,6.98,6.41,-0.91,-0.35,0.13,
3.744,-2.55,6.98,6.41,-0.85,-0.42,0.21,
3.744,-2.77,7.25,6.44,-0.85,-0.42,0.21,
3.744,-2.77,7.25,6.44,-0.79,-0.47,0.29,
3.745,-2.77,7.25,6.44,-0.72,-0.51,0.38,
3.745,-2.77,7.25,6.44,-0.65,-0.53,0.45,
3.747,-2.77,7.25,6.44,-0.57,-0.54,0.52,
3.749,-2.77,7.25,6.44,-0.49,-0.54,0.59,
3.749,-2.69,7.08,6.92,-0.49,-0.54,0.59,
3.749,-2.69,7.08,6.92,-0.41,-0.53,0.65,
3.751,-2.69,7.08,6.92,-0.33,-0.52,0.70,
3.753,-2.69,7.08,6.92,-0.24,-0.50,0.75,
3.754,-2.69,7.08,6.92,-0.16,-0.47,0.80,
3.756,-2.69,7.08,6.92,-0.07,-0.44,0.84,
3.758,-2.01,6.79,6.92,-0.07,-0.44,0.84,
3.758,-2.01,6.79,6.92,0.02,-0.40,0.88,
3.764,-2.01,6.79,6.92,0.11,-0.36,0.91,
3.765,-2.01,6.79,6.92,0.21,-0.32,0.94,
3.767,-2.01,6.79,6.92,0.30,-0.28,0.97,
3.768,-2.01,6.79,6.92,0.39,-0.24,1.00,
3.768,-1.53,6.40,7.36,0.39,-0.24,1.00,
3.768,-1.53,6.40,7.36,0.49,-0.19,1.03,
3.771,-1.53,6.40,7.36,0.64,-0.11,1.06,
3.773,-1.53,6.40,7.36,0.68,-0.08,1.07,
3.774,-1.53,6.40,7.36,0.78,-0.03,1.10,
3.79,-1.53,6.40,7.36,0.88,0.02,1.12,
3.791,-1.18,6.08,7.28,0.88,0.02,1.12,
3.791,-1.18,6.08,7.28,0.98,0.07,1.14,
3.791,-1.18,6.08,7.28,1.08,0.12,1.17,
3.792,-1.18,6.08,7.28,1.18,0.16,1.19,
3.792,-1.18,6.08,7.28,1.28,0.20,1.21,
3.792,-1.18,6.08,7.28,1.38,0.23,1.23,
3.792,-0.91,5.77,7.31,1.38,0.23,1.23,
3.792,-0.91,5.77,7.31,1.47,0.25,1.25,
3.792,-0.91,5.77,7.31,1.57,0.27,1.28,
3.793,-0.91,5.77,7.31,1.67,0.27,1.30,
3.794,-0.91,5.77,7.31,1.76,0.27,1.32,
3.796,-0.91,5.77,7.31,1.85,0.27,1.34,
3.799,-0.66,5.47,6.66,1.85,0.27,1.34,
3.799,-0.66,5.47,6.66,1.94,0.25,1.36,
3.801,-0.66,5.47,6.66,2.02,0.23,1.39,
3.801,-0.66,5.47,6.66,2.11,0.21,1.41,
3.804,-0.66,5.47,6.66,2.19,0.18,1.43,
3.806,-0.66,5.47,6.66,2.28,0.14,1.46,
3.807,-0.36,4.93,6.07,2.28,0.14,1.46,
3.808,-0.36,4.93,6.07,2.36,0.10,1.48,
3.811,-0.36,4.93,6.07,2.44,0.06,1.50,
3.812,-0.36,4.93,6.07,2.52,0.02,1.53,
3.82,-0.36,4.93,6.07,2.59,-0.03,1.55,
3.82,-0.36,4.93,6.07,2.66,-0.08,1.58,
3.82,-0.12,4.19,4.87,2.66,-0.08,1.58,
3.821,-0.12,4.19,4.87,2.73,-0.13,1.60,
3.821,-0.12,4.19,4.87,2.83,-0.22,1.63,
3.822,-0.12,4.19,4.87,2.86,-0.25,1.65,
3.824,-0.12,4.19,4.87,2.91,-0.31,1.67,
3.826,-0.12,4.19,4.87,2.96,-0.37,1.69,
3.829,0.06,3.25,3.18,2.96,-0.37,1.69,
3.829,0.06,3.25,3.18,3.00,-0.43,1.72,
3.831,0.06,3.25,3.18,3.03,-0.49,1.75,
3.832,0.06,3.25,3.18,3.05,-0.54,1.78,
3.833,0.06,3.25,3.18,3.06,-0.55,1.81,
3.835,0.06,3.25,3.18,3.05,-0.53,1.85,
3.837,-0.33,1.80,-0.87,3.05,-0.53,1.85,
3.838,-0.33,1.80,-0.87,3.04,-0.45,1.89,
3.84,-0.33,1.80,-0.87,3.02,-0.30,1.92,
3.842,-0.33,1.80,-0.87,2.97,-0.11,1.95,
3.844,-0.33,1.80,-0.87,2.88,0.10,1.97,
3.846,-0.33,1.80,-0.87,2.76,0.33,1.97,
3.847,-0.81,-1.34,-10.90,2.76,0.33,1.97,
3.847,-0.81,-1.34,-10.90,2.62,0.73,1.95,
3.85,-0.81,-1.34,-10.90,2.42,1.10,1.93,
3.851,-0.81,-1.34,-10.90,2.12,1.39,1.89,
3.853,-0.81,-1.34,-10.90,1.71,1.57,1.84,
3.855,-0.81,-1.34,-10.90,1.24,1.65,1.78,
3.857,0.04,-7.23,-31.38,1.24,1.65,1.78,
3.858,0.04,-7.23,-31.38,0.74,1.61,1.71,
3.861,0.04,-7.23,-31.38,0.01,1.33,1.56,
3.862,0.04,-7.23,-31.38,-0.19,1.18,1.50,
3.864,0.04,-7.23,-31.38,-0.53,0.84,1.34,
3.866,0.04,-7.23,-31.38,-0.83,0.49,1.14,
3.867,4.39,-15.82,-43.82,-0.83,0.49,1.14,
3.868,4.39,-15.82,-43.82,-1.12,0.23,0.91,
3.874,4.39,-15.82,-43.82,-1.45,-0.03,0.51,
3.874,4.39,-15.82,-43.82,-1.52,-0.09,0.38,
3.875,4.39,-15.82,-43.82,-1.60,-0.16,0.13,
3.876,4.39,-15.82,-43.82,-1.62,-0.23,-0.10,
3.889,10.02,-17.04,-32.84,-1.62,-0.23,-0.10,
3.889,10.02,-17.04,-32.84,-1.57,-0.27,-0.27,
3.889,10.02,-17.04,-32.84,-1.48,-0.28,-0.42,
3.89,10.02,-17.04,-32.84,-1.36,-0.25,-0.56,
3.89,10.02,-17.04,-32.84,-1.23,-0.18,-0.70,
3.89,10.02,-17.04,-32.84,-1.11,-0.08,-0.84,
3.89,10.13,-10.46,-16.57,-1.11,-0.08,-0.84,
3.89,10.13,-10.46,-16.57,-1.00,0.02,-0.94,
3.891,10.13,-10.46,-16.57,-0.89,0.14,-1.03,
3.892,10.13,-10.46,-16.57,-0.78,0.25,-1.09,
3.894,10.13,-10.46,-16.57,-0.68,0.35,-1.13,
3.896,10.13,-10.46,-16.57,-0.59,0.47,-1.15,
3.897,8.72,-9.22,-8.77,-0.59,0.47,-1.15,
3.898,8.72,-9.22,-8.77,-0.50,0.58,-1.18,
3.9,8.72,-9.22,-8.77,-0.41,0.70,-1.19,
3.901,8.72,-9.22,-8.77,-0.33,0.81,-1.20,
3.903,8.72,-9.22,-8.77,-0.26,0.92,-1.21,
3.906,8.72,-9.22,-8.77,-0.20,1.04,-1.21,
3.907,8.13,-6.66,-5.77,-0.20,1.04,-1.21,
3.907,8.13,-6.66,-5.77,-0.14,1.15,-1.22,
3.914,8.13,-6.66,-5.77,-0.07,1.33,-1.22,
3.915,8.13,-6.66,-5.77,-0.05,1.40,-1.21,
3.915,8.13,-6.66,-5.77,-0.01,1.53,-1.21,
3.92,8.13,-6.66,-5.77,0.02,1.68,-1.20,
3.92,7.65,-3.33,-4.72,0.02,1.68,-1.20,
3.92,7.65,-3.33,-4.72,0.05,1.84,-1.19,
3.922,7.65,-3.33,-4.72,0.09,2.09,-1.17,
3.922,7.65,-3.33,-4.72,0.11,2.17,-1.16,
3.923,7.65,-3.33,-4.72,0.15,2.33,-1.14,
3.93,7.65,-3.33,-4.72,0.16,2.46,-1.12,
3.93,6.79,-0.03,-3.14,0.16,2.46,-1.12,
3.931,6.79,-0.03,-3.14,0.18,2.58,-1.10,
3.931,6.79,-0.03,-3.14,0.20,2.72,-1.07,
3.931,6.79,-0.03,-3.14,0.20,2.75,-1.06,
3.933,6.79,-0.03,-3.14,0.19,2.81,-1.06,
3.935,6.79,-0.03,-3.14,0.18,2.84,-1.05,
3.937,5.53,2.26,-0.96,0.18,2.84,-1.05,
3.937,5.53,2.26,-0.96,0.15,2.85,-1.04,
3.94,5.53,2.26,-0.96,0.10,2.83,-1.04,
3.941,5.53,2.26,-0.96,0.08,2.82,-1.04,
3.943,5.53,2.26,-0.96,0.04,2.78,-1.05,
3.946,5.53,2.26,-0.96,-0.00,2.72,-1.05,
3.947,4.63,2.94,0.76,-0.00,2.72,-1.05,
3.948,4.63,2.94,0.76,-0.04,2.63,-1.06,
3.95,4.63,2.94,0.76,-0.09,2.47,-1.08,
3.951,4.63,2.94,0.76,-0.11,2.40,-1.09,
3.953,4.63,2.94,0.76,-0.13,2.25,-1.10,
3.956,4.63,2.94,0.76,-0.14,2.08,-1.11,
3.958,3.89,2.57,2.80,-0.14,2.08,-1.11,
3.958,3.89,2.57,2.80,-0.15,1.88,-1.12,
3.961,3.89,2.57,2.80,-0.15,1.55,-1.12,
3.962,3.89,2.57,2.80,-0.15,1.44,-1.13,
3.964,3.89,2.57,2.80,-0.13,1.19,-1.12,
3.966,3.89,2.57,2.80,-0.12,0.94,-1.11,
3.967,3.10,1.67,4.82,-0.12,0.94,-1.11,
3.968,3.10,1.67,4.82,-0.09,0.67,-1.09,
3.971,3.10,1.67,4.82,-0.06,0.26,-1.06,
3.972,3.10,1.67,4.82,-0.04,0.13,-1.04,
3.974,3.10,1.67,4.82,-0.01,-0.14,-1.01,
3.976,3.10,1.67,4.82,0.03,-0.40,-0.97,
3.978,1.66,0.73,5.62,0.03,-0.40,-0.97,
3.979,1.66,0.73,5.62,0.07,-0.65,-0.93,
3.98,1.66,0.73,5.62,0.13,-1.03,-0.88,
3.982,1.66,0.73,5.62,0.15,-1.15,-0.87,
3.984,1.66,0.73,5.62,0.20,-1.40,-0.85,
3.986,1.66,0.73,5.62,0.24,-1.64,-0.83,
3.987,1.23,-0.10,6.05,0.24,-1.64,-0.83,
3.988,1.23,-0.10,6.05,0.28,-1.89,-0.81,
3.99,1.23,-0.10,6.05,0.34,-2.26,-0.79,
3.992,1.23,-0.10,6.05,0.36,-2.38,-0.77,
3.994,1.23,-0.10,6.05,0.39,-2.62,-0.75,
3.996,1.23,-0.10,6.05,0.42,-2.85,-0.72,
3.998,0.65,-0.24,5.84,0.42,-2.85,-0.72,
4.0,0.65,-0.24,5.84,0.46,-3.04,-0.70,
4.001,0.65,-0.24,5.84,0.51,-3.32,-0.64,
4.002,0.65,-0.24,5.84,0.52,-3.42,-0.63,
4.004,0.65,-0.24,5.84,0.55,-3.62,-0.59,
4.006,0.65,-0.24,5.84,0.57,-3.80,-0.56,
4.007,0.02,-0.21,5.46,0.57,-3.80,-0.56,
4.009,0.02,-0.21,5.46,0.60,-3.97,-0.52,
4.01,0.02,-0.21,5.46,0.64,-4.18,-0.45,
4.012,0.02,-0.21,5.46,0.65,-4.24,-0.43,
4.014,0.02,-0.21,5.46,0.68,-4.34,-0.38,
4.016,0.02,-0.21,5.46,0.71,-4.43,-0.34,
4.017,-0.64,-0.07,4.77,0.71,-4.43,-0.34,
4.018,-0.64,-0.07,4.77,0.74,-4.50,-0.30,
4.02,-0.64,-0.07,4.77,0.79,-4.57,-0.23,
4.021,-0.64,-0.07,4.77,0.81,-4.59,-0.21,
4.024,-0.64,-0.07,4.77,0.85,-4.60,-0.16,
4.026,-0.64,-0.07,4.77,0.90,-4.60,-0.12,
4.028,-1.15,0.34,4.58,0.90,-4.60,-0.12,
4.028,-1.15,0.34,4.58,0.96,-4.58,-0.07,
4.031,-1.15,0.34,4.58,1.05,-4.53,0.00,
4.032,-1.15,0.34,4.58,1.08,-4.51,0.03,
4.034,-1.15,0.34,4.58,1.15,-4.46,0.08,
4.035,-1.15,0.34,4.58,1.22,-4.40,0.13,
4.037,-1.59,0.02,4.60,1.22,-4.40,0.13,
4.038,-1.59,0.02,4.60,1.30,-4.33,0.19,
4.051,-1.59,0.02,4.60,1.43,-4.19,0.27,
4.052,-1.59,0.02,4.60,1.47,-4.14,0.30,
4.086,-1.59,0.02,4.60,1.57,-4.03,0.36,
4.087,-1.59,0.02,4.60,1.67,-3.92,0.41,
4.088,-1.95,-0.76,5.07,1.67,-3.92,0.41,
4.088,-1.95,-0.76,5.07,1.78,-3.79,0.47,
4.089,-1.95,-0.76,5.07,1.95,-3.57,0.56,
4.089,-1.95,-0.76,5.07,2.01,-3.48,0.59,
4.09,-1.95,-0.76,5.07,2.12,-3.31,0.65,
4.09,-1.95,-0.76,5.07,2.25,-3.13,0.72,
4.091,-2.26,-1.70,5.55,2.25,-3.13,0.72,
4.097,-2.26,-1.70,5.55,2.37,-2.94,0.78,
4.098,-2.26,-1.70,5.55,2.55,-2.63,0.88,
4.099,-2.26,-1.70,5.55,2.62,-2.53,0.92,
4.099,-2.26,-1.70,5.55,2.73,-2.32,0.99,
4.1,-2.26,-1.70,5.55,2.85,-2.11,1.07,
4.101,-2.99,-2.77,5.79,2.85,-2.11,1.07,
4.102,-2.99,-2.77,5.79,2.96,-1.91,1.14,
4.102,-2.99,-2.77,5.79,3.11,-1.61,1.24,
4.103,-2.99,-2.77,5.79,3.16,-1.52,1.28,
4.104,-2.99,-2.77,5.79,3.25,-1.33,1.34,
4.104,-2.99,-2.77,5.79,3.33,-1.15,1.41,
4.105,-3.40,-3.52,5.13,3.33,-1.15,1.41,
4.105,-3.40,-3.52,5.13,3.40,-0.98,1.47,
4.106,-3.40,-3.52,5.13,3.48,-0.74,1.56,
4.106,-3.40,-3.52,5.13,3.51,-0.67,1.58,
4.106,-3.40,-3.52,5.13,3.55,-0.54,1.63,
4.107,-3.40,-3.52,5.13,3.57,-0.41,1.68,
4.107,-3.61,-3.65,4.17,3.57,-0.41,1.68,
4.108,-3.61,-3.65,4.17,3.58,-0.31,1.72,
4.109,-3.61,-3.65,4.17,3.57,-0.17,1.77,
4.11,-3.61,-3.65,4.17,3.56,-0.13,1.78,
4.11,-3.61,-3.65,4.17,3.53,-0.06,1.79,
4.111,-3.61,-3.65,4.17,3.48,-0.00,1.80,
4.111,-3.44,-3.41,2.63,3.48,-0.00,1.80,
4.112,-3.44,-3.41,2.63,3.41,0.04,1.81,
4.112,-3.44,-3.41,2.63,3.29,0.09,1.79,
4.112,-3.44,-3.41,2.63,3.24,0.10,1.78,
4.113,-3.44,-3.41,2.63,3.13,0.11,1.76,
4.113,-3.44,-3.41,2.63,3.01,0.12,1.73,
4.113,-3.27,-2.94,0.81,3.01,0.12,1.73,
4.114,-3.27,-2.94,0.81,2.88,0.12,1.69,
4.114,-3.27,-2.94,0.81,2.67,0.12,1.61,
4.114,-3.27,-2.94,0.81,2.59,0.11,1.58,
4.115,-3.27,-2.94,0.81,2.44,0.09,1.52,
4.117,-3.27,-2.94,0.81,2.29,0.06,1.46,
4.118,-2.96,-2.41,-0.65,2.29,0.06,1.46,
4.12,-2.96,-2.41,-0.65,2.13,0.03,1.39,
4.121,-2.96,-2.41,-0.65,1.90,-0.04,1.28,
4.122,-2.96,-2.41,-0.65,1.82,-0.05,1.25,
4.125,-2.96,-2.41,-0.65,1.67,-0.10,1.19,
4.126,-2.96,-2.41,-0.65,1.53,-0.14,1.13,
4.128,-3.11,-1.75,-1.32,1.53,-0.14,1.13,
4.129,-3.11,-1.75,-1.32,1.39,-0.19,1.07,
4.131,-3.11,-1.75,-1.32,1.20,-0.24,1.00,
4.132,-3.11,-1.75,-1.32,1.14,-0.26,0.97,
4.134,-3.11,-1.75,-1.32,1.03,-0.29,0.93,
4.136,-3.11,-1.75,-1.32,0.93,-0.31,0.89,
4.138,-3.34,-0.61,-1.31,0.93,-0.31,0.89,
4.139,-3.34,-0.61,-1.31,0.83,-0.32,0.85,
4.142,-3.34,-0.61,-1.31,0.70,-0.34,0.81,
4.145,-3.34,-0.61,-1.31,0.66,-0.35,0.80,
4.145,-3.34,-0.61,-1.31,0.58,-0.36,0.78,
4.147,-3.34,-0.61,-1.31,0.51,-0.36,0.76,
4.148,-3.81,0.00,-1.22,0.51,-0.36,0.76,
4.148,-3.81,0.00,-1.22,0.45,-0.36,0.75,
4.152,-3.81,0.00,-1.22,0.37,-0.36,0.73,
4.152,-3.81,0.00,-1.22,0.34,-0.36,0.73,
4.154,-3.81,0.00,-1.22,0.29,-0.35,0.72,
4.156,-3.81,0.00,-1.22,0.25,-0.34,0.73,
4.158,-3.94,0.44,-1.24,0.25,-0.34,0.73,
4.16,-3.94,0.44,-1.24,0.21,-0.33,0.73,
4.161,-3.94,0.44,-1.24,0.17,-0.32,0.75,
4.162,-3.94,0.44,-1.24,0.16,-0.31,0.76,
4.164,-3.94,0.44,-1.24,0.14,-0.31,0.77,
4.166,-3.94,0.44,-1.24,0.12,-0.31,0.80,
4.168,-4.18,0.86,-1.32,0.12,-0.31,0.80,
4.169,-4.18,0.86,-1.32,0.14,-0.38,0.82,
4.171,-4.18,0.86,-1.32,0.29,-0.86,0.85,
4.172,-4.18,0.86,-1.32,0.36,-1.05,0.86,
4.176,-4.18,0.86,-1.32,0.50,-1.46,0.88,
4.18,-4.18,0.86,-1.32,0.64,-1.87,0.90,
4.181,-3.62,2.58,-2.22,0.64,-1.87,0.90,
4.182,-3.62,2.58,-2.22,0.78,-2.26,0.92,
4.182,-3.62,2.58,-2.22,0.98,-2.83,0.93,
4.184,-3.62,2.58,-2.22,1.05,-3.00,0.94,
4.185,-3.62,2.58,-2.22,1.18,-3.34,0.95,
4.186,-3.62,2.58,-2.22,1.30,-3.64,0.95,
4.188,-2.80,2.92,-3.44,1.30,-3.64,0.95,
4.189,-2.80,2.92,-3.44,1.41,-3.90,0.96,
4.194,-2.80,2.92,-3.44,1.57,-4.23,0.97,
4.196,-2.80,2.92,-3.44,1.62,-4.32,0.97,
4.197,-2.80,2.92,-3.44,1.72,-4.48,0.96,
4.205,-2.80,2.92,-3.44,1.80,-4.61,0.95,
4.206,-2.20,2.53,-4.61,1.80,-4.61,0.95,
4.206,-2.20,2.53,-4.61,1.88,-4.71,0.95,
4.206,-2.20,2.53,-4.61,1.97,-4.82,0.94,
4.206,-2.20,2.53,-4.61,2.00,-4.84,0.93,
4.207,-2.20,2.53,-4.61,2.05,-4.89,0.93,
4.207,-2.20,2.53,-4.61,2.08,-4.91,0.91,
4.216,-1.81,1.83,-6.15,2.08,-4.91,0.91,
4.217,-1.81,1.83,-6.15,2.10,-4.92,0.90,
4.257,-1.81,1.83,-6.15,2.11,-4.92,0.88,
4.258,-1.81,1.83,-6.15,2.11,-4.91,0.87,
4.258,-1.81,1.83,-6.15,2.10,-4.88,0.86,
4.259,-1.81,1.83,-6.15,2.09,-4.83,0.84,
4.259,-1.21,1.20,-7.35,2.09,-4.83,0.84,
4.259,-1.21,1.20,-7.35,2.07,-4.76,0.83,
4.26,-1.21,1.20,-7.35,2.02,-4.62,0.81,
4.26,-1.21,1.20,-7.35,2.00,-4.57,0.80,
4.261,-1.21,1.20,-7.35,1.95,-4.45,0.79,
4.261,-1.21,1.20,-7.35,1.90,-4.31,0.77,
4.262,-0.92,0.58,-8.55,1.90,-4.31,0.77,
4.262,-0.92,0.58,-8.55,1.84,-4.17,0.75,
4.262,-0.92,0.58,-8.55,1.73,-3.93,0.72,
4.263,-0.92,0.58,-8.55,1.69,-3.85,0.71,
4.263,-0.92,0.58,-8.55,1.62,-3.68,0.69,
4.264,-0.92,0.58,-8.55,1.54,-3.50,0.67,
4.264,-0.65,0.28,-8.76,1.54,-3.50,0.67,
4.264,-0.65,0.28,-8.76,1.46,-3.33,0.64,
4.265,-0.65,0.28,-8.76,1.35,-3.06,0.60,
4.265,-0.65,0.28,-8.76,1.31,-2.97,0.59,
4.266,-0.65,0.28,-8.76,1.23,-2.79,0.56,
4.266,-0.65,0.28,-8.76,1.15,-2.61,0.53,
4.267,-0.43,-0.02,-8.41,1.15,-2.61,0.53,
4.267,-0.43,-0.02,-8.41,1.08,-2.44,0.51,
4.267,-0.43,-0.02,-8.41,0.98,-2.19,0.46,
4.268,-0.43,-0.02,-8.41,0.94,-2.12,0.44,
4.268,-0.43,-0.02,-8.41,0.88,-1.96,0.41,
4.269,-0.43,-0.02,-8.41,0.82,-1.82,0.38,
4.269,-0.20,-0.09,-7.18,0.82,-1.82,0.38,
4.269,-0.20,-0.09,-7.18,0.76,-1.68,0.34,
4.27,-0.20,-0.09,-7.18,0.68,-1.48,0.28,
4.27,-0.20,-0.09,-7.18,0.65,-1.42,0.26,
4.271,-0.20,-0.09,-7.18,0.61,-1.31,0.23,
4.271,-0.20,-0.09,-7.18,0.57,-1.20,0.19,
4.271,-0.07,-0.23,-5.92,0.57,-1.20,0.19,
4.272,-0.07,-0.23,-5.92,0.53,-1.10,0.15,
4.272,-0.07,-0.23,-5.92,0.49,-0.97,0.08,
4.273,-0.07,-0.23,-5.92,0.48,-0.93,0.06,
4.275,-0.07,-0.23,-5.92,0.46,-0.85,0.02,
4.277,-0.07,-0.23,-5.92,0.45,-0.78,-0.02,
4.279,-0.07,-0.13,-4.31,0.45,-0.78,-0.02,
4.279,-0.07,-0.13,-4.31,0.44,-0.71,-0.06,
4.281,-0.07,-0.13,-4.31,0.45,-0.63,-0.12,
4.282,-0.07,-0.13,-4.31,0.45,-0.60,-0.14,
4.284,-0.07,-0.13,-4.31,0.47,-0.55,-0.18,
4.286,-0.07,-0.13,-4.31,0.48,-0.51,-0.22,
4.289,-0.30,0.06,-3.02,0.48,-0.51,-0.22,
4.289,-0.30,0.06,-3.02,0.51,-0.47,-0.26,
4.291,-0.30,0.06,-3.02,0.55,-0.42,-0.31,
4.292,-0.30,0.06,-3.02,0.56,-0.41,-0.33,
4.294,-0.30,0.06,-3.02,0.60,-0.38,-0.36,
4.3,-0.30,0.06,-3.02,0.63,-0.35,-0.40,
4.3,-0.62,0.27,-2.03,0.63,-0.35,-0.40,
4.3,-0.62,0.27,-2.03,0.66,-0.33,-0.43,
4.308,-0.62,0.27,-2.03,0.72,-0.29,-0.47,
4.309,-0.62,0.27,-2.03,0.74,-0.28,-0.49,
4.309,-0.62,0.27,-2.03,0.77,-0.26,-0.51,
4.309,-0.62,0.27,-2.03,0.81,-0.24,-0.53,
4.309,-1.01,0.43,-1.46,0.81,-0.24,-0.53,
4.309,-1.01,0.43,-1.46,0.85,-0.22,-0.55,
4.313,-1.01,0.43,-1.46,0.91,-0.19,-0.57,
4.314,-1.01,0.43,-1.46,0.93,-0.18,-0.58,
4.314,-1.01,0.43,-1.46,0.97,-0.17,-0.59,
4.318,-1.01,0.43,-1.46,1.01,-0.15,-0.60,
4.32,-1.39,0.57,-1.07,1.01,-0.15,-0.60,
4.321,-1.39,0.57,-1.07,1.05,-0.13,-0.61,
4.322,-1.39,0.57,-1.07,1.11,-0.10,-0.61,
4.322,-1.39,0.57,-1.07,1.14,-0.09,-0.61,
4.328,-1.39,0.57,-1.07,1.18,-0.07,-0.61,
4.329,-1.39,0.57,-1.07,1.23,-0.06,-0.61,
4.329,-1.78,0.61,-0.84,1.23,-0.06,-0.61,
4.33,-1.78,0.61,-0.84,1.28,-0.05,-0.61,
4.331,-1.78,0.61,-0.84,1.36,-0.02,-0.60,
4.332,-1.78,0.61,-0.84,1.39,-0.02,-0.60,
4.334,-1.78,0.61,-0.84,1.46,-0.00,-0.58,
4.337,-1.78,0.61,-0.84,1.52,0.00,-0.57,
4.338,-2.08,0.53,-0.77,1.52,0.00,-0.57,
4.339,-2.08,0.53,-0.77,1.58,0.01,-0.55,
4.35,-2.08,0.53,-0.77,1.69,0.02,-0.52,
4.351,-2.08,0.53,-0.77,1.72,0.03,-0.51,
4.352,-2.08,0.53,-0.77,1.79,0.03,-0.49,
4.352,-2.08,0.53,-0.77,1.87,0.02,-0.47,
4.353,-2.32,0.23,-1.13,1.87,0.02,-0.47,
4.353,-2.32,0.23,-1.13,1.95,0.02,-0.45,
4.353,-2.32,0.23,-1.13,2.07,0.01,-0.41,
4.354,-2.32,0.23,-1.13,2.11,-0.00,-0.40,
4.382,-2.32,0.23,-1.13,2.20,-0.02,-0.38,
4.383,-2.32,0.23,-1.13,2.29,-0.04,-0.36,
4.384,-2.22,-0.24,-1.81,2.29,-0.04,-0.36,
4.384,-2.22,-0.24,-1.81,2.37,-0.06,-0.33,
4.384,-2.22,-0.24,-1.81,2.50,-0.10,-0.30,
4.384,-2.22,-0.24,-1.81,2.54,-0.12,-0.29,
4.385,-2.22,-0.24,-1.81,2.62,-0.15,-0.27,
4.385,-2.22,-0.24,-1.81,2.69,-0.19,-0.26,
4.385,-2.03,-0.70,-3.19,2.69,-0.19,-0.26,
4.386,-2.03,-0.70,-3.19,2.76,-0.23,-0.24,
4.386,-2.03,-0.70,-3.19,2.84,-0.30,-0.23,
4.386,-2.03,-0.70,-3.19,2.87,-0.33,-0.22,
4.387,-2.03,-0.70,-3.19,2.91,-0.38,-0.22,
4.387,-2.03,-0.70,-3.19,2.93,-0.44,-0.22,
4.414,-1.90,-0.98,-5.21,2.93,-0.44,-0.22,
4.415,-1.90,-0.98,-5.21,2.94,-0.50,-0.22,
4.415,-1.90,-0.98,-5.21,2.92,-0.59,-0.23,
4.415,-1.90,-0.98,-5.21,2.90,-0.62,-0.23,
4.416,-1.90,-0.98,-5.21,2.86,-0.69,-0.24,
4.416,-1.90,-0.98,-5.21,2.80,-0.76,-0.25,
4.417,-2.20,-1.36,-8.49,2.80,-0.76,-0.25,
4.417,-2.20,-1.36,-8.49,2.71,-0.82,-0.25,
4.418,-2.20,-1.36,-8.49,2.55,-0.92,-0.27,
4.418,-2.20,-1.36,-8.49,2.49,-0.95,-0.27,
4.418,-2.20,-1.36,-8.49,2.34,-1.01,-0.29,
4.419,-2.20,-1.36,-8.49,2.17,-1.07,-0.30,
4.419,-2.61,-1.67,-11.95,2.17,-1.07,-0.30,
4.42,-2.61,-1.67,-11.95,1.97,-1.11,-0.31,
4.42,-2.61,-1.67,-11.95,1.66,-1.17,-0.32,
4.42,-2.61,-1.67,-11.95,1.54,-1.18,-0.33,
4.421,-2.61,-1.67,-11.95,1.31,-1.20,-0.34,
4.421,-2.61,-1.67,-11.95,1.07,-1.22,-0.35,
4.422,-3.15,-2.15,-13.80,1.07,-1.22,-0.35,
4.422,-3.15,-2.15,-13.80,0.83,-1.22,-0.35,
4.422,-3.15,-2.15,-13.80,0.48,-1.21,-0.36,
4.423,-3.15,-2.15,-13.80,0.36,-1.20,-0.36,
4.423,-3.15,-2.15,-13.80,0.14,-1.17,-0.36,
4.424,-3.15,-2.15,-13.80,-0.08,-1.13,-0.36,
4.424,-3.28,-2.99,-11.68,-0.08,-1.13,-0.36,
4.424,-3.28,-2.99,-11.68,-0.27,-1.07,-0.36,
4.425,-3.28,-2.99,-11.68,-0.55,-0.97,-0.35,
4.425,-3.28,-2.99,-11.68,-0.63,-0.94,-0.35,
4.426,-3.28,-2.99,-11.68,-0.79,-0.86,-0.35,
4.426,-3.28,-2.99,-11.68,-0.92,-0.77,-0.35,
4.428,-3.16,-3.94,-8.32,-0.92,-0.77,-0.35,
4.429,-3.16,-3.94,-8.32,-1.04,-0.67,-0.35,
4.432,-3.16,-3.94,-8.32,-1.17,-0.52,-0.35,
4.432,-3.16,-3.94,-8.32,-1.20,-0.48,-0.36,
4.434,-3.16,-3.94,-8.32,-1.26,-0.38,-0.36,
4.436,-3.16,-3.94,-8.32,-1.29,-0.28,-0.37,
4.438,-2.77,-4.39,-4.78,-1.29,-0.28,-0.37,
4.438,-2.77,-4.39,-4.78,-1.31,-0.18,-0.39,
4.441,-2.77,-4.39,-4.78,-1.30,-0.04,-0.40,
4.443,-2.77,-4.39,-4.78,-1.29,0.00,-0.41,
4.444,-2.77,-4.39,-4.78,-1.27,0.09,-0.43,
4.446,-2.77,-4.39,-4.78,-1.23,0.18,-0.44,
4.45,-2.65,-4.67,-2.24,-1.23,0.18,-0.44,
4.45,-2.65,-4.67,-2.24,-1.19,0.26,-0.45,
4.451,-2.65,-4.67,-2.24,-1.11,0.37,-0.46,
4.453,-2.65,-4.67,-2.24,-1.08,0.41,-0.46,
4.453,-2.65,-4.67,-2.24,-1.02,0.48,-0.47,
4.455,-2.65,-4.67,-2.24,-0.95,0.55,-0.47,
4.459,-2.86,-4.96,-0.75,-0.95,0.55,-0.47,
4.46,-2.86,-4.96,-0.75,-0.88,0.61,-0.47,
4.461,-2.86,-4.96,-0.75,-0.78,0.69,-0.46,
4.462,-2.86,-4.96,-0.75,-0.74,0.71,-0.45,
4.464,-2.86,-4.96,-0.75,-0.67,0.76,-0.44,
4.466,-2.86,-4.96,-0.75,-0.60,0.80,-0.42,
4.468,-3.44,-5.48,-0.31,-0.60,0.80,-0.42,
4.469,-3.44,-5.48,-0.31,-0.53,0.84,-0.40,
4.471,-3.44,-5.48,-0.31,-0.43,0.91,-0.36,
4.487,-3.44,-5.48,-0.31,-0.40,0.93,-0.35,
4.488,-3.44,-5.48,-0.31,-0.33,0.97,-0.32,
4.488,-3.44,-5.48,-0.31,-0.27,1.01,-0.28,
4.488,-3.93,-6.18,-0.82,-0.27,1.01,-0.28,
4.489,-3.93,-6.18,-0.82,-0.21,1.04,-0.25,
4.489,-3.93,-6.18,-0.82,-0.12,1.08,-0.19,
4.489,-3.93,-6.18,-0.82,-0.10,1.09,-0.17,
4.489,-3.93,-6.18,-0.82,-0.05,1.11,-0.13,
4.489,-3.93,-6.18,-0.82,-0.01,1.12,-0.09,
4.49,-4.19,-6.75,-2.25,-0.01,1.12,-0.09,
4.493,-4.19,-6.75,-2.25,0.01,1.12,-0.05,
4.493,-4.19,-6.75,-2.25,0.03,1.12,-0.00,
4.494,-4.19,-6.75,-2.25,0.03,1.12,0.02,
4.494,-4.19,-6.75,-2.25,0.01,1.11,0.05,
4.498,-4.19,-6.75,-2.25,-0.02,1.10,0.07,
4.498,-3.70,-6.51,-5.12,-0.02,1.10,0.07,
4.499,-3.70,-6.51,-5.12,-0.08,1.09,0.09,
4.501,-3.70,-6.51,-5.12,-0.20,1.08,0.11,
4.504,-3.70,-6.51,-5.12,-0.25,1.08,0.11,
4.504,-3.70,-6.51,-5.12,-0.37,1.10,0.12,
4.521,-3.70,-6.51,-5.12,-0.51,1.12,0.11,
4.522,-2.51,-5.33,-9.79,-0.51,1.12,0.11,
4.522,-2.51,-5.33,-9.79,-0.68,1.17,0.10,
4.522,-2.51,-5.33,-9.79,-1.04,1.32,0.07,
4.523,-2.51,-5.33,-9.79,-1.18,1.38,0.05,
4.523,-2.51,-5.33,-9.79,-1.50,1.53,0.02,
4.523,-2.51,-5.33,-9.79,-1.83,1.68,-0.02,
4.523,-0.70,-3.83,-17.05,-1.83,1.68,-0.02,
4.523,-0.70,-3.83,-17.05,-2.18,1.83,-0.06,
4.524,-0.70,-3.83,-17.05,-2.72,2.07,-0.13,
4.524,-0.70,-3.83,-17.05,-2.90,2.14,-0.15,
4.524,-0.70,-3.83,-17.05,-3.25,2.29,-0.19,
4.526,-0.70,-3.83,-17.05,-3.58,2.44,-0.23,
4.529,0.11,-2.99,-18.79,-3.58,2.44,-0.23,
4.53,0.11,-2.99,-18.79,-3.88,2.56,-0.26,
4.531,0.11,-2.99,-18.79,-4.28,2.70,-0.31,
4.532,0.11,-2.99,-18.79,-4.39,2.75,-0.32,
4.534,0.11,-2.99,-18.79,-4.58,2.82,-0.34,
4.536,0.11,-2.99,-18.79,-4.73,2.88,-0.35,
4.538,-0.17,-3.27,-12.57,-4.73,2.88,-0.35,
4.539,-0.17,-3.27,-12.57,-4.83,2.92,-0.36,
4.546,-0.17,-3.27,-12.57,-4.92,2.98,-0.36,
4.547,-0.17,-3.27,-12.57,-4.93,2.99,-0.35,
4.57,-0.17,-3.27,-12.57,-4.93,3.02,-0.34,
4.57,-0.17,-3.27,-12.57,-4.89,3.04,-0.32,
4.571,-1.00,-4.22,-3.94,-4.89,3.04,-0.32,
4.571,-1.00,-4.22,-3.94,-4.84,3.06,-0.30,
4.571,-1.00,-4.22,-3.94,-4.71,3.07,-0.26,
4.571,-1.00,-4.22,-3.94,-4.66,3.06,-0.25,
4.572,-1.00,-4.22,-3.94,-4.56,3.04,-0.22,
4.572,-1.00,-4.22,-3.94,-4.44,3.00,-0.18,
4.572,-2.59,-4.90,3.00,-4.44,3.00,-0.18,
4.572,-2.59,-4.90,3.00,-4.33,2.93,-0.15,
4.573,-2.59,-4.90,3.00,-4.14,2.79,-0.10,
4.573,-2.59,-4.90,3.00,-4.08,2.74,-0.09,
4.573,-2.59,-4.90,3.00,-3.96,2.62,-0.05,
4.574,-2.59,-4.90,3.00,-3.84,2.50,-0.01,
4.574,-3.59,-3.94,6.78,-3.84,2.50,-0.01,
4.574,-3.59,-3.94,6.78,-3.71,2.37,0.04,
4.574,-3.59,-3.94,6.78,-3.53,2.18,0.12,
4.575,-3.59,-3.94,6.78,-3.47,2.11,0.14,
4.577,-3.59,-3.94,6.78,-3.36,1.98,0.19,
4.577,-3.59,-3.94,6.78,-3.24,1.83,0.23,
4.586,-3.64,-3.27,7.38,-3.24,1.83,0.23,
4.587,-3.64,-3.27,7.38,-3.13,1.69,0.27,
4.587,-3.64,-3.27,7.38,-2.96,1.46,0.31,
4.587,-3.64,-3.27,7.38,-2.91,1.39,0.32,
4.587,-3.64,-3.27,7.38,-2.81,1.25,0.35,
4.588,-3.64,-3.27,7.38,-2.71,1.12,0.37,
4.588,-2.74,-3.63,6.95,-2.71,1.12,0.37,
4.588,-2.74,-3.63,6.95,-2.61,0.99,0.38,
4.592,-2.74,-3.63,6.95,-2.48,0.80,0.40,
4.6,-2.74,-3.63,6.95,-2.44,0.74,0.40,
4.601,-2.74,-3.63,6.95,-2.36,0.62,0.40,
4.601,-2.74,-3.63,6.95,-2.29,0.50,0.40,
4.601,-1.71,-4.17,5.99,-2.29,0.50,0.40,
4.601,-1.71,-4.17,5.99,-2.22,0.39,0.41,
4.602,-1.71,-4.17,5.99,-2.13,0.24,0.40,
4.602,-1.71,-4.17,5.99,-2.10,0.19,0.40,
4.607,-1.71,-4.17,5.99,-2.04,0.10,0.40,
4.607,-1.71,-4.17,5.99,-2.00,0.02,0.39,
4.609,-1.10,-4.64,5.43,-2.00,0.02,0.39,
4.61,-1.10,-4.64,5.43,-1.95,-0.05,0.39,
4.611,-1.10,-4.64,5.43,-1.90,-0.15,0.39,
4.612,-1.10,-4.64,5.43,-1.88,-0.17,0.38,
4.614,-1.10,-4.64,5.43,-1.85,-0.21,0.38,
4.615,-1.10,-4.64,5.43,-1.83,-0.25,0.37,
4.617,-0.52,-5.09,4.63,-1.83,-0.25,0.37,
4.618,-0.52,-5.09,4.63,-1.81,-0.28,0.37,
4.626,-0.52,-5.09,4.63,-1.78,-0.30,0.35,
4.626,-0.52,-5.09,4.63,-1.78,-0.30,0.35,
4.626,-0.52,-5.09,4.63,-1.77,-0.31,0.33,
4.627,-0.52,-5.09,4.63,-1.77,-0.30,0.31,
4.628,0.32,-5.49,4.04,-1.77,-0.30,0.31,
4.628,0.32,-5.49,4.04,-1.77,-0.29,0.29,
4.631,0.32,-5.49,4.04,-1.77,-0.28,0.25,
4.632,0.32,-5.49,4.04,-1.77,-0.27,0.24,
4.634,0.32,-5.49,4.04,-1.78,-0.26,0.21,
4.636,0.32,-5.49,4.04,-1.79,-0.25,0.17,
4.638,1.36,-5.69,3.60,-1.79,-0.25,0.17,
4.638,1.36,-5.69,3.60,-1.80,-0.24,0.13,
4.654,1.36,-5.69,3.60,-1.83,-0.24,0.06,
4.655,1.36,-5.69,3.60,-1.84,-0.23,0.03,
4.655,1.36,-5.69,3.60,-1.85,-0.23,-0.02,
4.655,1.36,-5.69,3.60,-1.87,-0.24,-0.07,
4.656,2.58,-5.64,3.52,-1.87,-0.24,-0.07,
4.656,2.58,-5.64,3.52,-1.89,-0.24,-0.13,
4.656,2.58,-5.64,3.52,-1.91,-0.25,-0.22,
4.656,2.58,-5.64,3.52,-1.92,-0.26,-0.25,
4.656,2.58,-5.64,3.52,-1.94,-0.27,-0.32,
4.657,2.58,-5.64,3.52,-1.95,-0.28,-0.39,
4.659,3.61,-5.28,3.54,-1.95,-0.28,-0.39,
4.659,3.61,-5.28,3.54,-1.97,-0.28,-0.46,
4.661,3.61,-5.28,3.54,-1.99,-0.29,-0.58,
4.662,3.61,-5.28,3.54,-2.00,-0.28,-0.61,
4.664,3.61,-5.28,3.54,-2.01,-0.27,-0.69,
4.666,3.61,-5.28,3.54,-2.02,-0.25,-0.77,
4.668,4.45,-4.44,3.61,-2.02,-0.25,-0.77,
4.669,4.45,-4.44,3.61,-2.03,-0.23,-0.84,
4.671,4.45,-4.44,3.61,-2.04,-0.18,-0.95,
4.672,4.45,-4.44,3.61,-2.04,-0.15,-0.99,
4.677,4.45,-4.44,3.61,-2.05,-0.10,-1.06,
4.679,4.45,-4.44,3.61,-2.06,-0.04,-1.12,
4.68,4.50,-3.23,3.44,-2.06,-0.04,-1.12,
4.681,4.50,-3.23,3.44,-2.06,0.04,-1.19,
4.681,4.50,-3.23,3.44,-2.07,0.17,-1.28,
4.682,4.50,-3.23,3.44,-2.07,0.22,-1.30,
4.684,4.50,-3.23,3.44,-2.07,0.34,-1.36,
4.686,4.50,-3.23,3.44,-2.08,0.48,-1.41,
4.69,4.10,-1.80,2.87,-2.08,0.48,-1.41,
4.69,4.10,-1.80,2.87,-2.09,0.67,-1.45,
4.692,4.10,-1.80,2.87,-2.14,0.99,-1.51,
4.694,4.10,-1.80,2.87,-2.17,1.11,-1.52,
4.701,4.10,-1.80,2.87,-2.24,1.38,-1.54,
4.702,4.10,-1.80,2.87,-2.32,1.68,-1.56,
4.703,2.87,0.00,0.01,-2.32,1.68,-1.56,
4.703,2.87,0.00,0.01,-2.40,1.98,-1.57,
4.703,2.87,0.00,0.01,-2.51,2.46,-1.57,
4.704,2.87,0.00,0.01,-2.55,2.62,-1.57,
4.704,2.87,0.00,0.01,-2.63,2.92,-1.56,
4.709,2.87,0.00,0.01,-2.70,3.20,-1.55,
4.712,1.64,1.42,-1.02,-2.70,3.20,-1.55,
4.713,1.64,1.42,-1.02,-2.76,3.46,-1.53,
4.749,1.64,1.42,-1.02,-2.84,3.81,-1.50,
4.749,1.64,1.42,-1.02,-2.86,3.91,-1.49,
4.75,1.64,1.42,-1.02,-2.90,4.10,-1.47,
4.75,1.64,1.42,-1.02,-2.93,4.26,-1.45,
4.751,0.77,2.24,0.40,-2.93,4.26,-1.45,
4.751,0.77,2.24,0.40,-2.95,4.40,-1.43,
4.751,0.77,2.24,0.40,-2.97,4.56,-1.40,
4.752,0.77,2.24,0.40,-2.97,4.60,-1.39,
4.752,0.77,2.24,0.40,-2.98,4.67,-1.37,
4.753,0.77,2.24,0.40,-2.97,4.72,-1.35,
4.753,0.24,2.84,2.11,-2.97,4.72,-1.35,
4.753,0.24,2.84,2.11,-2.97,4.76,-1.33,
4.754,0.24,2.84,2.11,-2.96,4.79,-1.29,
4.754,0.24,2.84,2.11,-2.96,4.79,-1.28,
4.755,0.24,2.84,2.11,-2.95,4.78,-1.26,
4.755,0.24,2.84,2.11,-2.94,4.77,-1.23,
4.756,-0.30,3.38,2.70,-2.94,4.77,-1.23,
4.756,-0.30,3.38,2.70,-2.93,4.74,-1.20,
4.756,-0.30,3.38,2.70,-2.92,4.69,-1.16,
4.757,-0.30,3.38,2.70,-2.92,4.66,-1.14,
4.757,-0.30,3.38,2.70,-2.90,4.61,-1.11,
4.758,-0.30,3.38,2.70,-2.89,4.55,-1.08,
4.758,-0.82,3.79,2.95,-2.89,4.55,-1.08,
4.758,-0.82,3.79,2.95,-2.88,4.48,-1.04,
4.759,-0.82,3.79,2.95,-2.85,4.38,-0.99,
4.759,-0.82,3.79,2.95,-2.84,4.34,-0.97,
4.76,-0.82,3.79,2.95,-2.82,4.26,-0.92,
4.76,-0.82,3.79,2.95,-2.80,4.18,-0.88,
4.761,-1.40,4.22,3.13,-2.80,4.18,-0.88,
4.761,-1.40,4.22,3.13,-2.77,4.09,-0.83,
4.761,-1.40,4.22,3.13,-2.72,3.94,-0.76,
4.767,-1.40,4.22,3.13,-2.70,3.89,-0.73,
4.768,-1.40,4.22,3.13,-2.65,3.78,-0.68,
4.768,-1.40,4.22,3.13,-2.61,3.67,-0.62,
4.769,-2.20,4.32,3.70,-2.61,3.67,-0.62,
4.773,-2.20,4.32,3.70,-2.56,3.54,-0.56,
4.774,-2.20,4.32,3.70,-2.46,3.35,-0.48,
4.774,-2.20,4.32,3.70,-2.43,3.28,-0.46,
4.775,-2.20,4.32,3.70,-2.37,3.14,-0.41,
4.78,-2.20,4.32,3.70,-2.30,2.98,-0.36,
4.781,-2.85,4.40,4.23,-2.30,2.98,-0.36,
4.781,-2.85,4.40,4.23,-2.22,2.82,-0.31,
4.783,-2.85,4.40,4.23,-2.11,2.56,-0.23,
4.784,-2.85,4.40,4.23,-2.07,2.47,-0.20,
4.784,-2.85,4.40,4.23,-1.98,2.28,-0.15,
4.795,-2.85,4.40,4.23,-1.89,2.09,-0.10,
4.796,-3.25,4.36,5.15,-1.89,2.09,-0.10,
4.796,-3.25,4.36,5.15,-1.80,1.89,-0.05,
4.796,-3.25,4.36,5.15,-1.66,1.61,0.02,
4.797,-3.25,4.36,5.15,-1.61,1.51,0.04,
4.797,-3.25,4.36,5.15,-1.51,1.33,0.09,
4.798,-3.25,4.36,5.15,-1.41,1.15,0.13,
4.798,-3.06,4.37,5.94,-1.41,1.15,0.13,
4.798,-3.06,4.37,5.94,-1.31,0.98,0.18,
4.802,-3.06,4.37,5.94,-1.15,0.74,0.25,
4.802,-3.06,4.37,5.94,-1.09,0.66,0.27,
4.807,-3.06,4.37,5.94,-0.98,0.51,0.32,
4.808,-3.06,4.37,5.94,-0.88,0.37,0.37,
4.817,-3.02,4.48,6.93,-0.88,0.37,0.37,
4.819,-3.02,4.48,6.93,-0.77,0.23,0.42,
4.82,-3.02,4.48,6.93,-0.60,0.05,0.49,
4.82,-3.02,4.48,6.93,-0.55,-0.01,0.51,
4.82,-3.02,4.48,6.93,-0.44,-0.11,0.56,
4.821,-3.02,4.48,6.93,-0.33,-0.20,0.60,
4.821,-2.79,4.77,7.23,-0.33,-0.20,0.60,
4.821,-2.79,4.77,7.23,-0.23,-0.28,0.65,
4.838,-2.79,4.77,7.23,-0.09,-0.38,0.71,
4.839,-2.79,4.77,7.23,-0.04,-0.40,0.73,
4.84,-2.79,4.77,7.23,0.05,-0.44,0.78,
4.84,-2.79,4.77,7.23,0.14,-0.48,0.81,
4.84,-2.57,4.90,7.22,0.14,-0.48,0.81,
4.84,-2.57,4.90,7.22,0.22,-0.50,0.85,
4.841,-2.57,4.90,7.22,0.33,-0.51,0.90,
4.841,-2.57,4.90,7.22,0.36,-0.51,0.92,
4.841,-2.57,4.90,7.22,0.43,-0.50,0.95,
4.842,-2.57,4.90,7.22,0.49,-0.49,0.99,
4.842,-2.17,5.13,6.49,0.49,-0.49,0.99,
4.842,-2.17,5.13,6.49,0.55,-0.46,1.02,
4.842,-2.17,5.13,6.49,0.63,-0.41,1.06,
4.843,-2.17,5.13,6.49,0.65,-0.39,1.08,
4.844,-2.17,5.13,6.49,0.70,-0.36,1.11,
4.846,-2.17,5.13,6.49,0.74,-0.31,1.14,
4.847,-1.91,5.29,6.31,0.74,-0.31,1.14,
4.848,-1.91,5.29,6.31,0.79,-0.27,1.16,
4.851,-1.91,5.29,6.31,0.85,-0.21,1.20,
4.853,-1.91,5.29,6.31,0.87,-0.19,1.21,
4.858,-1.91,5.29,6.31,0.90,-0.15,1.24,
4.859,-1.91,5.29,6.31,0.93,-0.11,1.26,
4.859,-1.48,5.54,5.98,0.93,-0.11,1.26,
4.859,-1.48,5.54,5.98,0.97,-0.07,1.28,
4.861,-1.48,5.54,5.98,1.01,-0.01,1.31,
4.862,-1.48,5.54,5.98,1.03,0.01,1.32,
4.864,-1.48,5.54,5.98,1.06,0.04,1.34,
4.866,-1.48,5.54,5.98,1.08,0.08,1.35,
4.868,-1.08,5.74,6.05,1.08,0.08,1.35,
4.868,-1.08,5.74,6.05,1.11,0.11,1.37,
4.872,-1.08,5.74,6.05,1.16,0.16,1.39,
4.872,-1.08,5.74,6.05,1.17,0.17,1.40,
4.875,-1.08,5.74,6.05,1.20,0.20,1.41,
4.877,-1.08,5.74,6.05,1.23,0.23,1.42,
4.908,-0.68,5.99,5.69,1.23,0.23,1.42,
4.909,-0.68,5.99,5.69,1.27,0.26,1.43,
4.909,-0.68,5.99,5.69,1.32,0.30,1.45,
4.91,-0.68,5.99,5.69,1.34,0.32,1.45,
4.91,-0.68,5.99,5.69,1.38,0.35,1.46,
4.911,-0.68,5.99,5.69,1.42,0.37,1.47,
4.911,-0.33,6.16,5.74,1.42,0.37,1.47,
4.911,-0.33,6.16,5.74,1.47,0.40,1.48,
4.912,-0.33,6.16,5.74,1.54,0.45,1.49,
4.912,-0.33,6.16,5.74,1.57,0.46,1.50,
4.913,-0.33,6.16,5.74,1.62,0.49,1.51,
4.913,-0.33,6.16,5.74,1.69,0.52,1.51,
4.913,-0.02,6.15,5.49,1.69,0.52,1.51,
4.914,-0.02,6.15,5.49,1.75,0.55,1.52,
4.914,-0.02,6.15,5.49,1.85,0.59,1.54,
4.915,-0.02,6.15,5.49,1.88,0.61,1.54,
4.915,-0.02,6.15,5.49,1.95,0.64,1.55,
4.916,-0.02,6.15,5.49,2.03,0.67,1.55,
4.916,0.41,5.84,5.40,2.03,0.67,1.55,
4.916,0.41,5.84,5.40,2.10,0.70,1.56,
4.917,0.41,5.84,5.40,2.22,0.76,1.57,
4.917,0.41,5.84,5.40,2.26,0.78,1.57,
4.918,0.41,5.84,5.40,2.34,0.81,1.58,
4.918,0.41,5.84,5.40,2.41,0.85,1.59,
4.918,0.69,5.18,4.45,2.41,0.85,1.59,
4.919,0.69,5.18,4.45,2.48,0.87,1.59,
4.921,0.69,5.18,4.45,2.59,0.91,1.61,
4.922,0.69,5.18,4.45,2.62,0.91,1.61,
4.924,0.69,5.18,4.45,2.67,0.92,1.62,
4.926,0.69,5.18,4.45,2.72,0.91,1.63,
4.928,0.89,4.15,2.54,2.72,0.91,1.63,
4.928,0.89,4.15,2.54,2.75,0.90,1.65,
4.931,0.89,4.15,2.54,2.76,0.88,1.68,
4.932,0.89,4.15,2.54,2.75,0.87,1.70,
4.934,0.89,4.15,2.54,2.72,0.87,1.73,
4.936,0.89,4.15,2.54,2.67,0.89,1.78,
4.946,-0.91,2.77,-4.26,2.67,0.89,1.78,
4.946,-0.91,2.77,-4.26,2.59,0.92,1.83,
4.947,-0.91,2.77,-4.26,2.39,0.92,1.87,
4.947,-0.91,2.77,-4.26,2.33,0.91,1.87,
4.947,-0.91,2.77,-4.26,2.20,1.04,1.86,
4.948,-0.91,2.77,-4.26,1.88,1.14,1.82,
4.974,-1.53,-2.52,-22.19,1.88,1.14,1.82,
4.979,-1.53,-2.52,-22.19,1.70,1.13,1.80,
4.98,-1.53,-2.52,-22.19,1.03,0.99,1.73,
4.983,-1.53,-2.52,-22.19,0.75,0.89,1.70,
4.984,-1.53,-2.52,-22.19,0.06,0.67,1.61,
4.985,-1.53,-2.52,-22.19,-0.68,0.52,1.50,
4.986,1.31,-12.56,-48.49,-0.68,0.52,1.50,
4.987,1.31,-12.56,-48.49,-1.37,0.46,1.32,
4.988,1.31,-12.56,-48.49,-2.32,0.49,0.92,
4.989,1.31,-12.56,-48.49,-2.58,0.51,0.76,
4.99,1.31,-12.56,-48.49,-2.97,0.51,0.42,
4.99,1.31,-12.56,-48.49,-3.16,0.45,0.11,
4.991,9.17,-22.62,-49.56,-3.16,0.45,0.11,
4.994,9.17,-22.62,-49.56,-3.16,0.34,-0.16,
4.995,9.17,-22.62,-49.56,-2.94,0.11,-0.48,
4.995,9.17,-22.62,-49.56,-2.82,0.05,-0.57,
4.995,9.17,-22.62,-49.56,-2.56,-0.08,-0.73,
4.996,9.17,-22.62,-49.56,-2.29,-0.20,-0.88,
4.996,9.59,-11.58,-21.69,-2.29,-0.20,-0.88,
4.997,9.59,-11.58,-21.69,-2.02,-0.27,-1.01,
4.998,9.59,-11.58,-21.69,-1.65,-0.26,-1.19,
4.999,9.59,-11.58,-21.69,-1.54,-0.23,-1.24,
