
time,ax,ay,az,wx,wy,wz,
0.003,0.00,0.02,0.14,-0.17,-0.14,0.09,
0.004,0.38,-0.22,0.47,-0.17,-0.14,0.09,
0.005,0.38,-0.22,0.47,-0.17,-0.17,0.08,
0.005,0.38,-0.22,0.47,-0.17,-0.21,0.08,
0.005,0.38,-0.22,0.47,-0.19,-0.26,0.06,
0.006,0.38,-0.22,0.47,-0.19,-0.27,0.06,
0.009,0.38,-0.22,0.47,-0.19,-0.30,0.05,
0.01,0.86,-0.49,0.54,-0.19,-0.30,0.05,
0.01,0.86,-0.49,0.54,-0.20,-0.32,0.04,
0.011,0.86,-0.49,0.54,-0.21,-0.34,0.02,
0.014,0.86,-0.49,0.54,-0.22,-0.37,0.01,
0.015,0.86,-0.49,0.54,-0.23,-0.37,0.00,
0.015,0.86,-0.49,0.54,-0.24,-0.39,-0.01,
0.029,1.07,-0.57,0.42,-0.24,-0.39,-0.01,
0.03,1.07,-0.57,0.42,-0.25,-0.40,-0.02,
0.031,1.07,-0.57,0.42,-0.26,-0.41,-0.02,
0.031,1.07,-0.57,0.42,-0.27,-0.42,-0.03,
0.032,1.07,-0.57,0.42,-0.29,-0.43,-0.04,
0.032,1.07,-0.57,0.42,-0.29,-0.43,-0.04,
0.032,1.03,-0.49,0.34,-0.29,-0.43,-0.04,
0.033,1.03,-0.49,0.34,-0.29,-0.43,-0.04,
0.033,1.03,-0.49,0.34,-0.29,-0.44,-0.05,
0.033,1.03,-0.49,0.34,-0.30,-0.44,-0.04,
0.034,1.03,-0.49,0.34,-0.30,-0.44,-0.04,
0.06,1.03,-0.49,0.34,-0.31,-0.44,-0.04,
0.06,0.73,-0.30,0.30,-0.31,-0.44,-0.04,
0.061,0.73,-0.30,0.30,-0.31,-0.44,-0.04,
0.061,0.73,-0.30,0.30,-0.31,-0.45,-0.03,
0.061,0.73,-0.30,0.30,-0.30,-0.45,-0.02,
0.061,0.73,-0.30,0.30,-0.30,-0.45,-0.02,
0.061,0.73,-0.30,0.30,-0.31,-0.46,-0.02,
0.062,0.41,-0.13,0.36,-0.31,-0.46,-0.02,
0.062,0.41,-0.13,0.36,-0.30,-0.46,-0.01,
0.062,0.41,-0.13,0.36,-0.30,-0.46,-0.00,
0.062,0.41,-0.13,0.36,-0.30,-0.45,0.01,
0.062,0.41,-0.13,0.36,-0.29,-0.45,0.01,
0.063,0.41,-0.13,0.36,-0.29,-0.44,0.02,
0.063,0.17,0.05,0.36,-0.29,-0.44,0.02,
0.063,0.17,0.05,0.36,-0.29,-0.44,0.03,
0.063,0.17,0.05,0.36,-0.28,-0.43,0.03,
0.063,0.17,0.05,0.36,-0.27,-0.41,0.05,
0.064,0.17,0.05,0.36,-0.27,-0.41,0.05,
0.076,0.17,0.05,0.36,-0.26,-0.40,0.05,
0.078,0.10,0.18,0.26,-0.26,-0.40,0.05,
0.079,0.10,0.18,0.26,-0.26,-0.39,0.06,
0.08,0.10,0.18,0.26,-0.25,-0.38,0.07,
0.08,0.10,0.18,0.26,-0.25,-0.37,0.08,
0.081,0.10,0.18,0.26,-0.24,-0.36,0.08,
0.082,0.10,0.18,0.26,-0.24,-0.35,0.09,
0.094,0.08,0.22,0.16,-0.24,-0.35,0.09,
0.096,0.08,0.22,0.16,-0.23,-0.34,0.09,
0.097,0.08,0.22,0.16,-0.23,-0.33,0.10,
0.097,0.08,0.22,0.16,-0.22,-0.31,0.11,
0.098,0.08,0.22,0.16,-0.22,-0.30,0.11,
0.099,0.08,0.22,0.16,-0.21,-0.29,0.12,
0.099,0.15,0.18,0.16,-0.21,-0.29,0.12,
0.1,0.15,0.18,0.16,-0.20,-0.28,0.13,
0.101,0.15,0.18,0.16,-0.20,-0.27,0.13,
0.101,0.15,0.18,0.16,-0.19,-0.26,0.14,
0.102,0.15,0.18,0.16,-0.19,-0.25,0.14,
0.104,0.15,0.18,0.16,-0.18,-0.24,0.14,
0.105,0.29,0.10,0.16,-0.18,-0.24,0.14,
0.107,0.29,0.10,0.16,-0.18,-0.23,0.15,
0.107,0.29,0.10,0.16,-0.17,-0.22,0.15,
0.108,0.29,0.10,0.16,-0.16,-0.21,0.15,
0.109,0.29,0.10,0.16,-0.16,-0.21,0.15,
0.109,0.29,0.10,0.16,-0.17,-0.20,0.15,
0.11,0.43,0.05,0.15,-0.17,-0.20,0.15,
0.11,0.43,0.05,0.15,-0.17,-0.20,0.16,
0.111,0.43,0.05,0.15,-0.17,-0.19,0.16,
0.119,0.43,0.05,0.15,-0.17,-0.19,0.15,
0.121,0.43,0.05,0.15,-0.17,-0.19,0.15,
0.121,0.43,0.05,0.15,-0.17,-0.19,0.15,
0.122,0.44,-0.01,0.17,-0.17,-0.19,0.15,
0.123,0.44,-0.01,0.17,-0.18,-0.19,0.16,
0.123,0.44,-0.01,0.17,-0.19,-0.19,0.15,
0.124,0.44,-0.01,0.17,-0.19,-0.20,0.15,
0.124,0.44,-0.01,0.17,-0.20,-0.20,0.15,
0.129,0.44,-0.01,0.17,-0.20,-0.21,0.15,
0.13,0.38,-0.02,0.20,-0.20,-0.21,0.15,
0.13,0.38,-0.02,0.20,-0.21,-0.21,0.15,
0.13,0.38,-0.02,0.20,-0.22,-0.23,0.15,
0.133,0.38,-0.02,0.20,-0.24,-0.24,0.14,
0.134,0.38,-0.02,0.20,-0.24,-0.25,0.14,
0.135,0.38,-0.02,0.20,-0.25,-0.27,0.14,
0.137,0.32,-0.02,0.19,-0.25,-0.27,0.14,
0.137,0.32,-0.02,0.19,-0.27,-0.29,0.13,
0.139,0.32,-0.02,0.19,-0.28,-0.31,0.13,
0.142,0.32,-0.02,0.19,-0.30,-0.35,0.13,
0.143,0.32,-0.02,0.19,-0.31,-0.36,0.13,
0.145,0.32,-0.02,0.19,-0.33,-0.40,0.12,
0.147,0.21,0.04,0.18,-0.33,-0.40,0.12,
0.148,0.21,0.04,0.18,-0.34,-0.43,0.12,
0.149,0.21,0.04,0.18,-0.36,-0.47,0.12,
0.158,0.21,0.04,0.18,-0.38,-0.53,0.12,
0.159,0.21,0.04,0.18,-0.38,-0.55,0.12,
0.16,0.21,0.04,0.18,-0.40,-0.59,0.13,
0.161,0.02,0.07,0.31,-0.40,-0.59,0.13,
0.161,0.02,0.07,0.31,-0.41,-0.64,0.12,
0.161,0.02,0.07,0.31,-0.42,-0.69,0.13,
0.163,0.02,0.07,0.31,-0.44,-0.77,0.13,
0.164,0.02,0.07,0.31,-0.45,-0.80,0.13,
0.167,0.02,0.07,0.31,-0.45,-0.85,0.14,
0.173,-0.05,0.13,0.57,-0.45,-0.85,0.14,
0.173,-0.05,0.13,0.57,-0.46,-0.89,0.14,
0.174,-0.05,0.13,0.57,-0.46,-0.93,0.14,
0.174,-0.05,0.13,0.57,-0.47,-0.97,0.15,
0.174,-0.05,0.13,0.57,-0.47,-0.99,0.15,
0.175,-0.05,0.13,0.57,-0.47,-1.01,0.16,
0.177,-0.16,0.18,0.86,-0.47,-1.01,0.16,
0.178,-0.16,0.18,0.86,-0.47,-1.03,0.16,
0.179,-0.16,0.18,0.86,-0.46,-1.05,0.16,
0.204,-0.16,0.18,0.86,-0.45,-1.08,0.17,
0.204,-0.16,0.18,0.86,-0.45,-1.08,0.17,
0.205,-0.16,0.18,0.86,-0.44,-1.10,0.18,
0.205,-0.10,0.21,1.20,-0.44,-1.10,0.18,
0.205,-0.10,0.21,1.20,-0.43,-1.11,0.18,
0.205,-0.10,0.21,1.20,-0.42,-1.12,0.18,
0.205,-0.10,0.21,1.20,-0.39,-1.15,0.18,
0.206,-0.10,0.21,1.20,-0.39,-1.16,0.18,
0.206,-0.10,0.21,1.20,-0.37,-1.17,0.18,
0.206,0.04,0.20,1.57,-0.37,-1.17,0.18,
0.206,0.04,0.20,1.57,-0.35,-1.19,0.18,
0.206,0.04,0.20,1.57,-0.34,-1.21,0.18,
0.207,0.04,0.20,1.57,-0.30,-1.25,0.18,
0.207,0.04,0.20,1.57,-0.29,-1.26,0.17,
0.207,0.04,0.20,1.57,-0.28,-1.28,0.17,
0.207,0.20,0.14,1.65,-0.28,-1.28,0.17,
0.207,0.20,0.14,1.65,-0.26,-1.30,0.17,
0.213,0.20,0.14,1.65,-0.24,-1.32,0.17,
0.214,0.20,0.14,1.65,-0.22,-1.35,0.16,
0.214,0.20,0.14,1.65,-0.21,-1.35,0.16,
0.23,0.20,0.14,1.65,-0.20,-1.36,0.16,
0.231,0.29,0.08,1.40,-0.20,-1.36,0.16,
0.231,0.29,0.08,1.40,-0.19,-1.37,0.16,
0.232,0.29,0.08,1.40,-0.18,-1.37,0.16,
0.232,0.29,0.08,1.40,-0.16,-1.38,0.15,
0.232,0.29,0.08,1.40,-0.16,-1.37,0.15,
0.232,0.29,0.08,1.40,-0.15,-1.37,0.15,
0.232,0.31,0.08,0.90,-0.15,-1.37,0.15,
0.232,0.31,0.08,0.90,-0.15,-1.37,0.15,
0.233,0.31,0.08,0.90,-0.15,-1.37,0.16,
0.233,0.31,0.08,0.90,-0.15,-1.37,0.16,
0.233,0.31,0.08,0.90,-0.15,-1.37,0.16,
0.249,0.31,0.08,0.90,-0.16,-1.36,0.16,
0.25,0.25,0.10,0.23,-0.16,-1.36,0.16,
0.25,0.25,0.10,0.23,-0.17,-1.36,0.16,
0.251,0.25,0.10,0.23,-0.18,-1.36,0.17,
0.251,0.25,0.10,0.23,-0.20,-1.35,0.17,
0.285,0.25,0.10,0.23,-0.20,-1.35,0.17,
0.287,0.25,0.10,0.23,-0.22,-1.35,0.16,
0.288,0.52,-0.01,-0.57,-0.22,-1.35,0.16,
0.289,0.52,-0.01,-0.57,-0.24,-1.35,0.16,
0.29,0.52,-0.01,-0.57,-0.26,-1.33,0.16,
0.29,0.52,-0.01,-0.57,-0.29,-1.30,0.15,
0.291,0.52,-0.01,-0.57,-0.30,-1.29,0.15,
0.292,0.52,-0.01,-0.57,-0.32,-1.26,0.15,
0.292,0.52,-0.21,-1.15,-0.32,-1.26,0.15,
0.293,0.52,-0.21,-1.15,-0.34,-1.24,0.15,
0.296,0.52,-0.21,-1.15,-0.36,-1.21,0.14,
0.297,0.52,-0.21,-1.15,-0.38,-1.17,0.14,
0.297,0.52,-0.21,-1.15,-0.39,-1.16,0.14,
0.298,0.52,-0.21,-1.15,-0.40,-1.14,0.14,
0.298,0.55,-0.17,-1.25,-0.40,-1.14,0.14,
0.299,0.55,-0.17,-1.25,-0.41,-1.12,0.14,
0.299,0.55,-0.17,-1.25,-0.42,-1.10,0.14,
0.299,0.55,-0.17,-1.25,-0.43,-1.07,0.14,
0.3,0.55,-0.17,-1.25,-0.44,-1.06,0.14,
0.3,0.55,-0.17,-1.25,-0.44,-1.04,0.14,
0.301,0.39,-0.10,-0.99,-0.44,-1.04,0.14,
0.302,0.39,-0.10,-0.99,-0.44,-1.03,0.15,
0.302,0.39,-0.10,-0.99,-0.44,-1.01,0.15,
0.302,0.39,-0.10,-0.99,-0.44,-0.99,0.16,
0.303,0.39,-0.10,-0.99,-0.43,-0.98,0.16,
0.303,0.39,-0.10,-0.99,-0.42,-0.97,0.17,
0.303,0.26,-0.08,-0.61,-0.42,-0.97,0.17,
0.304,0.26,-0.08,-0.61,-0.41,-0.95,0.17,
0.304,0.26,-0.08,-0.61,-0.40,-0.94,0.18,
0.305,0.26,-0.08,-0.61,-0.37,-0.90,0.19,
0.305,0.26,-0.08,-0.61,-0.37,-0.89,0.19,
0.305,0.26,-0.08,-0.61,-0.35,-0.87,0.19,
0.306,0.22,-0.09,-0.37,-0.35,-0.87,0.19,
0.306,0.22,-0.09,-0.37,-0.33,-0.85,0.20,
0.306,0.22,-0.09,-0.37,-0.31,-0.82,0.20,
0.307,0.22,-0.09,-0.37,-0.28,-0.78,0.20,
0.307,0.22,-0.09,-0.37,-0.27,-0.76,0.20,
0.307,0.22,-0.09,-0.37,-0.25,-0.73,0.21,
0.308,0.37,-0.09,-0.38,-0.25,-0.73,0.21,
0.308,0.37,-0.09,-0.38,-0.23,-0.70,0.21,
0.311,0.37,-0.09,-0.38,-0.21,-0.67,0.21,
0.312,0.37,-0.09,-0.38,-0.18,-0.63,0.21,
0.313,0.37,-0.09,-0.38,-0.17,-0.62,0.21,
0.315,0.37,-0.09,-0.38,-0.15,-0.60,0.21,
0.317,0.62,-0.13,-0.40,-0.15,-0.60,0.21,
0.317,0.62,-0.13,-0.40,-0.12,-0.59,0.21,
0.319,0.62,-0.13,-0.40,-0.09,-0.57,0.21,
0.322,0.62,-0.13,-0.40,-0.06,-0.53,0.20,
0.323,0.62,-0.13,-0.40,-0.05,-0.51,0.20,
0.325,0.62,-0.13,-0.40,-0.03,-0.46,0.19,
0.327,0.51,-0.38,-0.63,-0.03,-0.46,0.19,
0.328,0.51,-0.38,-0.63,-0.02,-0.41,0.18,
0.329,0.51,-0.38,-0.63,-0.00,-0.36,0.17,
0.351,0.51,-0.38,-0.63,0.01,-0.28,0.16,
0.352,0.51,-0.38,-0.63,0.02,-0.26,0.16,
0.353,0.51,-0.38,-0.63,0.03,-0.21,0.15,
0.353,0.56,-0.58,-1.03,0.03,-0.21,0.15,
0.353,0.56,-0.58,-1.03,0.04,-0.17,0.14,
0.354,0.56,-0.58,-1.03,0.05,-0.14,0.13,
0.354,0.56,-0.58,-1.03,0.07,-0.08,0.11,
0.355,0.56,-0.58,-1.03,0.08,-0.06,0.11,
0.356,0.56,-0.58,-1.03,0.10,-0.02,0.10,
0.357,0.74,-0.58,-0.88,0.10,-0.02,0.10,
0.357,0.74,-0.58,-0.88,0.12,0.01,0.09,
0.358,0.74,-0.58,-0.88,0.15,0.04,0.09,
0.359,0.74,-0.58,-0.88,0.18,0.07,0.08,
0.36,0.74,-0.58,-0.88,0.19,0.08,0.08,
0.361,0.74,-0.58,-0.88,0.21,0.11,0.07,
0.389,0.78,-0.33,-0.68,0.21,0.11,0.07,
0.391,0.78,-0.33,-0.68,0.24,0.13,0.07,
0.393,0.78,-0.33,-0.68,0.26,0.16,0.06,
0.393,0.78,-0.33,-0.68,0.28,0.21,0.05,
0.393,0.78,-0.33,-0.68,0.29,0.22,0.05,
0.394,0.78,-0.33,-0.68,0.31,0.26,0.05,
0.394,0.65,-0.33,-0.86,0.31,0.26,0.05,
0.395,0.65,-0.33,-0.86,0.33,0.30,0.05,
0.395,0.65,-0.33,-0.86,0.34,0.34,0.04,
0.396,0.65,-0.33,-0.86,0.36,0.41,0.04,
0.396,0.65,-0.33,-0.86,0.36,0.43,0.05,
0.397,0.65,-0.33,-0.86,0.37,0.48,0.05,
0.398,0.31,-0.39,-1.03,0.37,0.48,0.05,
0.399,0.31,-0.39,-1.03,0.37,0.52,0.05,
0.4,0.31,-0.39,-1.03,0.37,0.56,0.06,
0.4,0.31,-0.39,-1.03,0.38,0.63,0.06,
0.4,0.31,-0.39,-1.03,0.38,0.65,0.06,
0.401,0.31,-0.39,-1.03,0.38,0.69,0.06,
0.402,0.32,-0.39,-1.28,0.38,0.69,0.06,
0.403,0.32,-0.39,-1.28,0.38,0.73,0.05,
0.404,0.32,-0.39,-1.28,0.37,0.77,0.05,
0.404,0.32,-0.39,-1.28,0.37,0.82,0.04,
0.405,0.32,-0.39,-1.28,0.37,0.84,0.04,
0.405,0.32,-0.39,-1.28,0.36,0.87,0.04,
0.406,0.38,-0.35,-1.46,0.36,0.87,0.04,
0.406,0.38,-0.35,-1.46,0.35,0.90,0.04,
0.407,0.38,-0.35,-1.46,0.34,0.93,0.03,
0.408,0.38,-0.35,-1.46,0.33,0.96,0.02,
0.408,0.38,-0.35,-1.46,0.32,0.97,0.02,
0.409,0.38,-0.35,-1.46,0.31,0.98,0.02,
0.409,0.44,-0.37,-1.72,0.31,0.98,0.02,
0.409,0.44,-0.37,-1.72,0.29,1.00,0.02,
0.446,0.44,-0.37,-1.72,0.27,1.01,0.01,
0.447,0.44,-0.37,-1.72,0.24,1.00,0.00,
0.448,0.44,-0.37,-1.72,0.22,1.00,-0.00,
0.449,0.44,-0.37,-1.72,0.19,0.99,-0.02,
0.45,0.45,-0.66,-1.98,0.19,0.99,-0.02,
0.452,0.45,-0.66,-1.98,0.16,0.98,-0.03,
0.453,0.45,-0.66,-1.98,0.12,0.96,-0.05,
0.453,0.45,-0.66,-1.98,0.05,0.91,-0.07,
0.454,0.45,-0.66,-1.98,0.03,0.88,-0.07,
0.454,0.45,-0.66,-1.98,-0.01,0.82,-0.09,
0.455,0.66,-1.01,-1.85,-0.01,0.82,-0.09,
0.455,0.66,-1.01,-1.85,-0.06,0.74,-0.11,
0.456,0.66,-1.01,-1.85,-0.12,0.65,-0.13,
0.456,0.66,-1.01,-1.85,-0.21,0.50,-0.19,
0.456,0.66,-1.01,-1.85,-0.24,0.45,-0.21,
0.457,0.66,-1.01,-1.85,-0.29,0.34,-0.26,
0.457,0.76,-1.32,-1.39,-0.29,0.34,-0.26,
0.458,0.76,-1.32,-1.39,-0.35,0.23,-0.31,
0.458,0.76,-1.32,-1.39,-0.40,0.11,-0.36,
0.458,0.76,-1.32,-1.39,-0.48,-0.04,-0.44,
0.459,0.76,-1.32,-1.39,-0.51,-0.08,-0.46,
0.459,0.76,-1.32,-1.39,-0.56,-0.16,-0.51,
0.46,0.56,-1.41,-1.26,-0.56,-0.16,-0.51,
0.46,0.56,-1.41,-1.26,-0.61,-0.21,-0.55,
0.461,0.56,-1.41,-1.26,-0.65,-0.25,-0.59,
0.461,0.56,-1.41,-1.26,-0.71,-0.28,-0.63,
0.461,0.56,-1.41,-1.26,-0.73,-0.28,-0.63,
0.462,0.56,-1.41,-1.26,-0.77,-0.27,-0.65,
0.462,-0.10,-0.79,-1.55,-0.77,-0.27,-0.65,
0.463,-0.10,-0.79,-1.55,-0.81,-0.26,-0.66,
0.463,-0.10,-0.79,-1.55,-0.85,-0.23,-0.67,
0.463,-0.10,-0.79,-1.55,-0.90,-0.17,-0.68,
0.464,-0.10,-0.79,-1.55,-0.91,-0.14,-0.67,
0.465,-0.10,-0.79,-1.55,-0.94,-0.08,-0.66,
0.469,-0.45,0.34,-1.45,-0.94,-0.08,-0.66,
0.47,-0.45,0.34,-1.45,-0.96,-0.01,-0.64,
0.471,-0.45,0.34,-1.45,-0.98,0.06,-0.61,
0.474,-0.45,0.34,-1.45,-1.00,0.15,-0.56,
0.478,-0.45,0.34,-1.45,-1.00,0.18,-0.54,
0.478,-0.45,0.34,-1.45,-1.01,0.23,-0.49,
0.478,-0.98,0.82,-0.71,-1.01,0.23,-0.49,
0.479,-0.98,0.82,-0.71,-1.01,0.28,-0.45,
0.479,-0.98,0.82,-0.71,-1.01,0.32,-0.40,
0.491,-0.98,0.82,-0.71,-1.00,0.38,-0.33,
0.492,-0.98,0.82,-0.71,-1.00,0.40,-0.31,
0.492,-0.98,0.82,-0.71,-1.00,0.43,-0.27,
0.492,-1.20,0.76,0.01,-1.00,0.43,-0.27,
0.493,-1.20,0.76,0.01,-0.98,0.47,-0.22,
0.493,-1.20,0.76,0.01,-0.98,0.49,-0.19,
0.494,-1.20,0.76,0.01,-0.96,0.52,-0.13,
0.494,-1.20,0.76,0.01,-0.96,0.53,-0.12,
0.532,-1.20,0.76,0.01,-0.95,0.54,-0.09,
0.533,-0.90,0.31,0.43,-0.95,0.54,-0.09,
0.533,-0.90,0.31,0.43,-0.94,0.54,-0.07,
0.534,-0.90,0.31,0.43,-0.93,0.55,-0.05,
0.534,-0.90,0.31,0.43,-0.91,0.54,-0.03,
0.534,-0.90,0.31,0.43,-0.90,0.53,-0.02,
0.535,-0.90,0.31,0.43,-0.89,0.51,-0.01,
0.535,-0.31,-0.18,0.55,-0.89,0.51,-0.01,
0.535,-0.31,-0.18,0.55,-0.88,0.48,-0.01,
0.535,-0.31,-0.18,0.55,-0.87,0.46,-0.01,
0.536,-0.31,-0.18,0.55,-0.85,0.42,-0.01,
0.536,-0.31,-0.18,0.55,-0.85,0.41,-0.02,
0.536,-0.31,-0.18,0.55,-0.84,0.40,-0.02,
0.536,-0.05,-0.39,0.56,-0.84,0.40,-0.02,
0.537,-0.05,-0.39,0.56,-0.82,0.39,-0.03,
0.537,-0.05,-0.39,0.56,-0.81,0.38,-0.05,
0.537,-0.05,-0.39,0.56,-0.79,0.37,-0.06,
0.538,-0.05,-0.39,0.56,-0.78,0.37,-0.07,
0.538,-0.05,-0.39,0.56,-0.76,0.34,-0.09,
0.538,-0.05,-0.39,0.56,-0.76,0.34,-0.09,
0.539,-0.05,-0.52,0.60,-0.76,0.34,-0.09,
0.539,-0.05,-0.52,0.60,-0.75,0.32,-0.10,
0.539,-0.05,-0.52,0.60,-0.72,0.28,-0.12,
0.539,-0.05,-0.52,0.60,-0.72,0.27,-0.13,
0.54,-0.05,-0.52,0.60,-0.70,0.23,-0.14,
0.54,-0.08,-0.58,0.80,-0.70,0.23,-0.14,
0.54,-0.08,-0.58,0.80,-0.68,0.20,-0.15,
0.541,-0.08,-0.58,0.80,-0.66,0.15,-0.16,
0.543,-0.08,-0.58,0.80,-0.62,0.10,-0.18,
0.544,-0.08,-0.58,0.80,-0.61,0.08,-0.18,
0.545,-0.08,-0.58,0.80,-0.58,0.05,-0.19,
0.55,-0.09,-0.56,1.15,-0.58,0.05,-0.19,
0.552,-0.09,-0.56,1.15,-0.55,0.02,-0.21,
0.553,-0.09,-0.56,1.15,-0.53,-0.00,-0.22,
0.554,-0.09,-0.56,1.15,-0.48,-0.03,-0.24,
0.554,-0.09,-0.56,1.15,-0.47,-0.03,-0.24,
0.555,-0.09,-0.56,1.15,-0.44,-0.03,-0.25,
0.557,-0.12,-0.36,1.16,-0.44,-0.03,-0.25,
0.559,-0.12,-0.36,1.16,-0.41,-0.03,-0.27,
0.56,-0.12,-0.36,1.16,-0.38,-0.02,-0.28,
0.564,-0.12,-0.36,1.16,-0.34,0.01,-0.30,
0.565,-0.12,-0.36,1.16,-0.32,0.03,-0.30,
0.565,-0.12,-0.36,1.16,-0.30,0.08,-0.31,
0.571,-0.11,-0.05,1.17,-0.30,0.08,-0.31,
0.572,-0.11,-0.05,1.17,-0.27,0.13,-0.32,
0.573,-0.11,-0.05,1.17,-0.24,0.18,-0.32,
0.573,-0.11,-0.05,1.17,-0.21,0.24,-0.31,
0.573,-0.11,-0.05,1.17,-0.20,0.26,-0.31,
0.575,-0.11,-0.05,1.17,-0.18,0.30,-0.30,
0.601,-0.24,-0.01,1.13,-0.18,0.30,-0.30,
0.601,-0.24,-0.01,1.13,-0.17,0.33,-0.28,
0.602,-0.24,-0.01,1.13,-0.16,0.36,-0.26,
0.602,-0.24,-0.01,1.13,-0.14,0.39,-0.24,
0.602,-0.24,-0.01,1.13,-0.14,0.41,-0.23,
0.603,-0.24,-0.01,1.13,-0.14,0.42,-0.20,
0.603,-0.38,-0.24,0.71,-0.14,0.42,-0.20,
0.603,-0.38,-0.24,0.71,-0.14,0.44,-0.18,
0.603,-0.38,-0.24,0.71,-0.14,0.45,-0.16,
0.604,-0.38,-0.24,0.71,-0.14,0.46,-0.13,
0.604,-0.38,-0.24,0.71,-0.15,0.47,-0.12,
0.604,-0.38,-0.24,0.71,-0.17,0.47,-0.10,
0.604,-0.41,-0.45,-0.09,-0.17,0.47,-0.10,
0.605,-0.41,-0.45,-0.09,-0.19,0.47,-0.08,
0.605,-0.41,-0.45,-0.09,-0.21,0.46,-0.07,
0.605,-0.41,-0.45,-0.09,-0.25,0.45,-0.05,
0.605,-0.41,-0.45,-0.09,-0.26,0.45,-0.04,
0.606,-0.41,-0.45,-0.09,-0.30,0.44,-0.03,
0.61,-0.37,-0.49,-1.06,-0.30,0.44,-0.03,
0.612,-0.37,-0.49,-1.06,-0.33,0.42,-0.01,
0.612,-0.37,-0.49,-1.06,-0.37,0.41,-0.00,
0.613,-0.37,-0.49,-1.06,-0.44,0.38,0.01,
0.613,-0.37,-0.49,-1.06,-0.46,0.37,0.01,
0.623,-0.37,-0.49,-1.06,-0.50,0.35,0.02,
0.623,-0.20,-0.24,-1.76,-0.50,0.35,0.02,
0.624,-0.20,-0.24,-1.76,-0.54,0.32,0.02,
0.624,-0.20,-0.24,-1.76,-0.58,0.29,0.02,
0.625,-0.20,-0.24,-1.76,-0.64,0.23,0.02,
0.625,-0.20,-0.24,-1.76,-0.66,0.21,0.01,
0.625,-0.20,-0.24,-1.76,-0.69,0.17,0.01,
0.627,-0.02,0.05,-1.81,-0.69,0.17,0.01,
0.627,-0.02,0.05,-1.81,-0.71,0.12,0.00,
0.629,-0.02,0.05,-1.81,-0.73,0.06,0.00,
0.633,-0.02,0.05,-1.81,-0.76,-0.03,-0.00,
0.634,-0.02,0.05,-1.81,-0.77,-0.05,-0.01,
0.635,-0.02,0.05,-1.81,-0.78,-0.09,-0.01,
0.637,-0.04,0.26,-1.43,-0.78,-0.09,-0.01,
0.637,-0.04,0.26,-1.43,-0.79,-0.13,-0.02,
0.639,-0.04,0.26,-1.43,-0.80,-0.15,-0.02,
0.642,-0.04,0.26,-1.43,-0.82,-0.16,-0.03,
0.643,-0.04,0.26,-1.43,-0.82,-0.16,-0.03,
0.645,-0.04,0.26,-1.43,-0.83,-0.17,-0.03,
0.647,-0.18,0.48,-1.06,-0.83,-0.17,-0.03,
0.648,-0.18,0.48,-1.06,-0.83,-0.16,-0.03,
0.651,-0.18,0.48,-1.06,-0.83,-0.16,-0.03,
0.652,-0.18,0.48,-1.06,-0.84,-0.16,-0.03,
0.653,-0.18,0.48,-1.06,-0.84,-0.16,-0.03,
0.655,-0.18,0.48,-1.06,-0.84,-0.15,-0.02,
0.657,-0.26,0.47,-0.75,-0.84,-0.15,-0.02,
0.657,-0.26,0.47,-0.75,-0.84,-0.15,-0.01,
0.659,-0.26,0.47,-0.75,-0.84,-0.15,-0.00,
0.662,-0.26,0.47,-0.75,-0.84,-0.16,0.01,
0.665,-0.26,0.47,-0.75,-0.84,-0.17,0.01,
0.667,-0.26,0.47,-0.75,-0.84,-0.18,0.02,
0.669,-0.16,0.24,-0.56,-0.84,-0.18,0.02,
0.669,-0.16,0.24,-0.56,-0.84,-0.19,0.03,
0.67,-0.16,0.24,-0.56,-0.84,-0.20,0.03,
0.672,-0.16,0.24,-0.56,-0.85,-0.21,0.04,
0.673,-0.16,0.24,-0.56,-0.85,-0.22,0.04,
0.675,-0.16,0.24,-0.56,-0.86,-0.24,0.04,
0.677,0.09,-0.12,-0.64,-0.86,-0.24,0.04,
0.679,0.09,-0.12,-0.64,-0.87,-0.26,0.04,
0.68,0.09,-0.12,-0.64,-0.88,-0.29,0.04,
0.695,0.09,-0.12,-0.64,-0.89,-0.33,0.04,
0.697,0.09,-0.12,-0.64,-0.89,-0.35,0.04,
0.698,0.09,-0.12,-0.64,-0.88,-0.39,0.04,
0.699,0.16,-0.30,-0.62,-0.88,-0.39,0.04,
0.699,0.16,-0.30,-0.62,-0.88,-0.42,0.04,
0.7,0.16,-0.30,-0.62,-0.87,-0.47,0.04,
0.701,0.16,-0.30,-0.62,-0.84,-0.54,0.04,
0.701,0.16,-0.30,-0.62,-0.83,-0.57,0.05,
0.702,0.16,-0.30,-0.62,-0.79,-0.62,0.05,
0.703,0.03,-0.20,-0.29,-0.79,-0.62,0.05,
0.704,0.03,-0.20,-0.29,-0.76,-0.68,0.05,
0.706,0.03,-0.20,-0.29,-0.72,-0.75,0.06,
0.707,0.03,-0.20,-0.29,-0.66,-0.85,0.06,
0.707,0.03,-0.20,-0.29,-0.61,-0.93,0.07,
0.707,0.03,-0.20,-0.29,-0.58,-0.97,0.07,
0.707,-0.05,-0.02,-0.06,-0.58,-0.97,0.07,
0.707,-0.05,-0.02,-0.06,-0.53,-1.04,0.07,
0.709,-0.05,-0.02,-0.06,-0.47,-1.08,0.08,
0.714,-0.05,-0.02,-0.06,-0.38,-1.06,0.08,
0.715,-0.05,-0.02,-0.06,-0.35,-1.02,0.08,
0.728,-0.05,-0.02,-0.06,-0.29,-0.93,0.09,
0.731,-0.12,-0.08,0.93,-0.29,-0.93,0.09,
0.731,-0.12,-0.08,0.93,-0.22,-0.81,0.09,
0.733,-0.12,-0.08,0.93,-0.16,-0.69,0.09,
0.736,-0.12,-0.08,0.93,-0.07,-0.58,0.08,
0.736,-0.12,-0.08,0.93,-0.05,-0.56,0.07,
0.737,-0.12,-0.08,0.93,-0.00,-0.59,0.06,
0.738,0.28,-0.34,1.46,-0.00,-0.59,0.06,
0.738,0.28,-0.34,1.46,0.03,-0.66,0.05,
0.739,0.28,-0.34,1.46,0.06,-0.77,0.04,
0.739,0.28,-0.34,1.46,0.10,-0.95,0.02,
0.739,0.28,-0.34,1.46,0.10,-1.01,0.02,
0.74,0.28,-0.34,1.46,0.11,-1.13,0.01,
0.74,0.41,-0.66,0.68,0.11,-1.13,0.01,
0.74,0.41,-0.66,0.68,0.12,-1.25,0.01,
0.741,0.41,-0.66,0.68,0.13,-1.35,0.01,
0.743,0.41,-0.66,0.68,0.14,-1.49,0.02,
0.779,0.41,-0.66,0.68,0.14,-1.53,0.02,
0.779,0.41,-0.66,0.68,0.14,-1.62,0.02,
0.78,0.01,-0.81,-0.19,0.14,-1.62,0.02,
0.78,0.01,-0.81,-0.19,0.14,-1.70,0.03,
0.78,0.01,-0.81,-0.19,0.14,-1.77,0.04,
0.781,0.01,-0.81,-0.19,0.11,-1.85,0.06,
0.781,0.01,-0.81,-0.19,0.10,-1.88,0.07,
0.782,0.01,-0.81,-0.19,0.08,-1.92,0.09,
0.782,-0.56,-0.84,-1.10,0.08,-1.92,0.09,
0.783,-0.56,-0.84,-1.10,0.05,-1.94,0.12,
0.783,-0.56,-0.84,-1.10,0.01,-1.96,0.15,
0.783,-0.56,-0.84,-1.10,-0.05,-1.95,0.19,
0.784,-0.56,-0.84,-1.10,-0.07,-1.94,0.21,
0.784,-0.56,-0.84,-1.10,-0.12,-1.91,0.24,
0.785,-0.96,-0.28,-1.84,-0.12,-1.91,0.24,
0.785,-0.96,-0.28,-1.84,-0.17,-1.87,0.28,
0.786,-0.96,-0.28,-1.84,-0.22,-1.83,0.31,
0.786,-0.96,-0.28,-1.84,-0.30,-1.73,0.35,
0.786,-0.96,-0.28,-1.84,-0.32,-1.70,0.36,
0.787,-0.96,-0.28,-1.84,-0.38,-1.65,0.38,
0.787,-1.03,0.18,-2.13,-0.38,-1.65,0.38,
0.788,-1.03,0.18,-2.13,-0.42,-1.60,0.41,
0.788,-1.03,0.18,-2.13,-0.47,-1.54,0.43,
0.789,-1.03,0.18,-2.13,-0.54,-1.45,0.45,
0.789,-1.03,0.18,-2.13,-0.56,-1.42,0.46,
0.789,-1.03,0.18,-2.13,-0.60,-1.35,0.48,
0.79,-1.23,0.57,-1.99,-0.60,-1.35,0.48,
0.79,-1.23,0.57,-1.99,-0.64,-1.27,0.49,
0.791,-1.23,0.57,-1.99,-0.67,-1.19,0.50,
0.793,-1.23,0.57,-1.99,-0.73,-1.08,0.52,
0.794,-1.23,0.57,-1.99,-0.74,-1.04,0.52,
0.81,-1.23,0.57,-1.99,-0.77,-0.97,0.53,
0.811,-1.12,0.73,-1.86,-0.77,-0.97,0.53,
0.811,-1.12,0.73,-1.86,-0.81,-0.89,0.54,
0.811,-1.12,0.73,-1.86,-0.84,-0.82,0.54,
0.811,-1.12,0.73,-1.86,-0.89,-0.71,0.55,
0.812,-1.12,0.73,-1.86,-0.90,-0.67,0.55,
0.812,-1.12,0.73,-1.86,-0.94,-0.61,0.55,
0.812,-0.93,0.82,-1.93,-0.94,-0.61,0.55,
0.812,-0.93,0.82,-1.93,-0.97,-0.55,0.55,
0.813,-0.93,0.82,-1.93,-1.00,-0.50,0.55,
0.813,-0.93,0.82,-1.93,-1.05,-0.43,0.55,
0.813,-0.93,0.82,-1.93,-1.06,-0.41,0.55,
0.822,-0.93,0.82,-1.93,-1.09,-0.37,0.55,
0.823,-0.87,0.82,-1.65,-1.09,-0.37,0.55,
0.823,-0.87,0.82,-1.65,-1.11,-0.34,0.55,
0.823,-0.87,0.82,-1.65,-1.13,-0.32,0.55,
0.823,-0.87,0.82,-1.65,-1.15,-0.29,0.55,
0.823,-0.87,0.82,-1.65,-1.15,-0.29,0.55,
0.859,-0.87,0.82,-1.65,-1.15,-0.28,0.54,
0.86,-0.76,0.90,-0.69,-1.15,-0.28,0.54,
0.86,-0.76,0.90,-0.69,-1.15,-0.27,0.54,
0.86,-0.76,0.90,-0.69,-1.14,-0.27,0.53,
0.861,-0.76,0.90,-0.69,-1.12,-0.27,0.52,
0.861,-0.76,0.90,-0.69,-1.11,-0.27,0.52,
0.861,-0.76,0.90,-0.69,-1.09,-0.27,0.51,
0.861,-0.60,1.07,0.52,-1.09,-0.27,0.51,
0.862,-0.60,1.07,0.52,-1.06,-0.27,0.51,
0.862,-0.60,1.07,0.52,-1.02,-0.27,0.50,
0.862,-0.60,1.07,0.52,-0.96,-0.26,0.49,
0.863,-0.60,1.07,0.52,-0.94,-0.26,0.49,
0.863,-0.60,1.07,0.52,-0.90,-0.26,0.48,
0.863,-0.73,1.35,1.34,-0.90,-0.26,0.48,
0.863,-0.73,1.35,1.34,-0.85,-0.25,0.47,
0.864,-0.73,1.35,1.34,-0.82,-0.25,0.45,
0.864,-0.73,1.35,1.34,-0.76,-0.25,0.42,
0.864,-0.73,1.35,1.34,-0.75,-0.25,0.41,
0.865,-0.73,1.35,1.34,-0.71,-0.25,0.39,
0.865,-0.76,1.39,1.34,-0.71,-0.25,0.39,
0.865,-0.76,1.39,1.34,-0.68,-0.24,0.36,
0.865,-0.76,1.39,1.34,-0.65,-0.23,0.34,
0.866,-0.76,1.39,1.34,-0.63,-0.20,0.31,
0.866,-0.76,1.39,1.34,-0.62,-0.19,0.30,
0.866,-0.76,1.39,1.34,-0.60,-0.17,0.29,
0.871,-1.59,1.69,0.78,-0.60,-0.17,0.29,
0.873,-1.59,1.69,0.78,-0.60,-0.14,0.28,
0.874,-1.59,1.69,0.78,-0.59,-0.12,0.27,
0.874,-1.59,1.69,0.78,-0.59,-0.08,0.26,
0.875,-1.59,1.69,0.78,-0.59,-0.06,0.26,
0.875,-1.59,1.69,0.78,-0.59,-0.03,0.26,
0.877,-2.72,2.01,0.02,-0.59,-0.03,0.26,
0.878,-2.72,2.01,0.02,-0.59,0.00,0.27,
0.885,-2.72,2.01,0.02,-0.59,0.03,0.28,
0.887,-2.72,2.01,0.02,-0.60,0.07,0.30,
0.888,-2.72,2.01,0.02,-0.60,0.09,0.30,
0.888,-2.72,2.01,0.02,-0.61,0.11,0.32,
0.889,-3.84,2.32,-0.44,-0.61,0.11,0.32,
0.889,-3.84,2.32,-0.44,-0.61,0.12,0.35,
0.89,-3.84,2.32,-0.44,-0.62,0.13,0.37,
0.892,-3.84,2.32,-0.44,-0.64,0.13,0.42,
0.893,-3.84,2.32,-0.44,-0.64,0.13,0.43,
0.897,-3.84,2.32,-0.44,-0.65,0.11,0.46,
0.9,-4.16,2.20,-0.63,-0.65,0.11,0.46,
0.901,-4.16,2.20,-0.63,-0.66,0.09,0.50,
0.901,-4.16,2.20,-0.63,-0.68,0.05,0.53,
0.902,-4.16,2.20,-0.63,-0.70,-0.01,0.57,
0.903,-4.16,2.20,-0.63,-0.70,-0.03,0.59,
0.905,-4.16,2.20,-0.63,-0.72,-0.09,0.61,
0.907,-3.87,1.71,-0.53,-0.72,-0.09,0.61,
0.908,-3.87,1.71,-0.53,-0.72,-0.14,0.63,
0.938,-3.87,1.71,-0.53,-0.73,-0.20,0.65,
0.938,-3.87,1.71,-0.53,-0.73,-0.29,0.68,
0.939,-3.87,1.71,-0.53,-0.73,-0.33,0.68,
0.939,-3.87,1.71,-0.53,-0.72,-0.39,0.70,
0.94,-3.06,0.88,0.19,-0.72,-0.39,0.70,
0.94,-3.06,0.88,0.19,-0.71,-0.45,0.72,
0.94,-3.06,0.88,0.19,-0.70,-0.51,0.73,
0.941,-3.06,0.88,0.19,-0.66,-0.60,0.76,
0.941,-3.06,0.88,0.19,-0.65,-0.63,0.77,
0.942,-3.06,0.88,0.19,-0.62,-0.68,0.79,
0.942,-2.70,0.40,1.30,-0.62,-0.68,0.79,
0.942,-2.70,0.40,1.30,-0.59,-0.71,0.81,
0.943,-2.70,0.40,1.30,-0.56,-0.70,0.84,
0.943,-2.70,0.40,1.30,-0.53,-0.58,0.89,
0.944,-2.70,0.40,1.30,-0.53,-0.52,0.91,
0.944,-2.70,0.40,1.30,-0.54,-0.39,0.94,
0.945,-2.18,0.03,2.02,-0.54,-0.39,0.94,
0.945,-2.18,0.03,2.02,-0.54,-0.28,0.97,
0.945,-2.18,0.03,2.02,-0.54,-0.20,1.00,
0.946,-2.18,0.03,2.02,-0.52,-0.18,1.04,
0.946,-2.18,0.03,2.02,-0.51,-0.19,1.05,
0.947,-2.18,0.03,2.02,-0.47,-0.22,1.07,
0.947,-1.45,-0.21,2.52,-0.47,-0.22,1.07,
0.947,-1.45,-0.21,2.52,-0.43,-0.26,1.07,
0.95,-1.45,-0.21,2.52,-0.38,-0.28,1.08,
0.952,-1.45,-0.21,2.52,-0.31,-0.29,1.09,
0.955,-1.45,-0.21,2.52,-0.29,-0.28,1.09,
0.955,-1.45,-0.21,2.52,-0.24,-0.26,1.10,
0.957,-0.95,-0.15,2.50,-0.24,-0.26,1.10,
0.957,-0.95,-0.15,2.50,-0.21,-0.22,1.09,
0.959,-0.95,-0.15,2.50,-0.19,-0.17,1.09,
0.962,-0.95,-0.15,2.50,-0.16,-0.09,1.06,
0.963,-0.95,-0.15,2.50,-0.16,-0.06,1.05,
0.966,-0.95,-0.15,2.50,-0.15,-0.02,1.03,
0.967,-0.15,-0.35,1.77,-0.15,-0.02,1.03,
0.968,-0.15,-0.35,1.77,-0.14,0.01,1.00,
0.969,-0.15,-0.35,1.77,-0.13,0.02,0.97,
0.972,-0.15,-0.35,1.77,-0.12,0.02,0.93,
0.973,-0.15,-0.35,1.77,-0.11,0.01,0.92,
0.975,-0.15,-0.35,1.77,-0.09,-0.01,0.89,
0.977,0.48,-0.52,1.52,-0.09,-0.01,0.89,
0.977,0.48,-0.52,1.52,-0.08,-0.03,0.87,
0.989,0.48,-0.52,1.52,-0.06,-0.05,0.85,
0.99,0.48,-0.52,1.52,-0.03,-0.08,0.83,
0.991,0.48,-0.52,1.52,-0.02,-0.08,0.82,
0.991,0.48,-0.52,1.52,0.00,-0.10,0.81,
0.991,0.70,-0.60,1.33,0.00,-0.10,0.81,
0.992,0.70,-0.60,1.33,0.02,-0.11,0.80,
0.992,0.70,-0.60,1.33,0.04,-0.12,0.79,
1.015,0.70,-0.60,1.33,0.07,-0.14,0.77,
1.018,0.70,-0.60,1.33,0.08,-0.15,0.76,
1.019,0.70,-0.60,1.33,0.10,-0.17,0.75,
1.019,0.92,-0.72,1.23,0.10,-0.17,0.75,
1.02,0.92,-0.72,1.23,0.12,-0.19,0.73,
1.02,0.92,-0.72,1.23,0.14,-0.21,0.71,
1.02,0.92,-0.72,1.23,0.17,-0.25,0.69,
1.021,0.92,-0.72,1.23,0.18,-0.26,0.68,
1.021,0.92,-0.72,1.23,0.20,-0.27,0.66,
1.021,1.20,-1.04,1.24,0.20,-0.27,0.66,
1.022,1.20,-1.04,1.24,0.22,-0.29,0.65,
1.023,1.20,-1.04,1.24,0.24,-0.30,0.63,
1.023,1.20,-1.04,1.24,0.27,-0.31,0.62,
1.023,1.20,-1.04,1.24,0.28,-0.32,0.61,
1.024,1.20,-1.04,1.24,0.30,-0.33,0.60,
1.024,1.08,-1.38,1.12,0.30,-0.33,0.60,
1.024,1.08,-1.38,1.12,0.32,-0.34,0.60,
1.025,1.08,-1.38,1.12,0.34,-0.35,0.60,
1.025,1.08,-1.38,1.12,0.36,-0.38,0.60,
1.027,1.08,-1.38,1.12,0.39,-0.42,0.60,
1.028,1.08,-1.38,1.12,0.39,-0.42,0.60,
1.029,0.84,-1.65,1.00,0.39,-0.42,0.60,
1.029,0.84,-1.65,1.00,0.40,-0.45,0.61,
1.036,0.84,-1.65,1.00,0.41,-0.48,0.61,
1.037,0.84,-1.65,1.00,0.44,-0.54,0.63,
1.037,0.84,-1.65,1.00,0.44,-0.55,0.63,
1.037,0.84,-1.65,1.00,0.45,-0.59,0.64,
1.038,0.82,-1.80,0.93,0.45,-0.59,0.64,
1.038,0.82,-1.80,0.93,0.47,-0.63,0.66,
1.039,0.82,-1.80,0.93,0.48,-0.66,0.67,
1.042,0.82,-1.80,0.93,0.50,-0.72,0.68,
1.043,0.82,-1.80,0.93,0.51,-0.73,0.69,
1.056,0.82,-1.80,0.93,0.52,-0.76,0.70,
1.058,1.40,-2.04,1.00,0.52,-0.76,0.70,
1.058,1.40,-2.04,1.00,0.52,-0.79,0.70,
1.059,1.40,-2.04,1.00,0.53,-0.81,0.71,
1.06,1.40,-2.04,1.00,0.54,-0.83,0.71,
1.061,1.40,-2.04,1.00,0.54,-0.84,0.71,
1.061,1.40,-2.04,1.00,0.55,-0.84,0.71,
1.063,2.04,-2.08,1.11,0.55,-0.84,0.71,
1.065,2.04,-2.08,1.11,0.55,-0.84,0.71,
1.066,2.04,-2.08,1.11,0.55,-0.83,0.70,
1.067,2.04,-2.08,1.11,0.55,-0.82,0.68,
1.068,2.04,-2.08,1.11,0.55,-0.81,0.68,
1.068,2.04,-2.08,1.11,0.55,-0.79,0.67,
1.068,2.73,-2.25,1.20,0.55,-0.79,0.67,
1.069,2.73,-2.25,1.20,0.55,-0.77,0.65,
1.069,2.73,-2.25,1.20,0.56,-0.74,0.64,
1.073,2.73,-2.25,1.20,0.56,-0.71,0.61,
1.075,2.73,-2.25,1.20,0.56,-0.69,0.60,
1.076,2.73,-2.25,1.20,0.56,-0.66,0.58,
1.109,3.22,-2.31,1.32,0.56,-0.66,0.58,
1.109,3.22,-2.31,1.32,0.56,-0.63,0.56,
1.112,3.22,-2.31,1.32,0.57,-0.59,0.54,
1.113,3.22,-2.31,1.32,0.57,-0.53,0.52,
1.113,3.22,-2.31,1.32,0.57,-0.51,0.51,
1.114,3.22,-2.31,1.32,0.57,-0.47,0.49,
1.114,3.36,-2.31,1.31,0.57,-0.47,0.49,
1.115,3.36,-2.31,1.31,0.57,-0.43,0.48,
1.115,3.36,-2.31,1.31,0.57,-0.39,0.46,
1.116,3.36,-2.31,1.31,0.56,-0.32,0.44,
1.116,3.36,-2.31,1.31,0.56,-0.30,0.44,
1.116,3.36,-2.31,1.31,0.55,-0.26,0.43,
1.117,2.98,-2.04,1.08,0.55,-0.26,0.43,
1.117,2.98,-2.04,1.08,0.54,-0.22,0.42,
1.118,2.98,-2.04,1.08,0.53,-0.19,0.41,
1.118,2.98,-2.04,1.08,0.52,-0.14,0.39,
1.119,2.98,-2.04,1.08,0.51,-0.12,0.39,
1.119,2.98,-2.04,1.08,0.49,-0.09,0.38,
1.119,2.68,-1.86,0.62,0.49,-0.09,0.38,
1.12,2.68,-1.86,0.62,0.47,-0.07,0.38,
1.12,2.68,-1.86,0.62,0.45,-0.04,0.37,
1.12,2.68,-1.86,0.62,0.42,-0.01,0.36,
1.121,2.68,-1.86,0.62,0.41,0.00,0.36,
1.121,2.68,-1.86,0.62,0.38,0.02,0.35,
1.122,2.43,-1.67,0.08,0.38,0.02,0.35,
1.122,2.43,-1.67,0.08,0.35,0.04,0.34,
1.123,2.43,-1.67,0.08,0.32,0.06,0.34,
1.123,2.43,-1.67,0.08,0.28,0.09,0.33,
1.123,2.43,-1.67,0.08,0.26,0.10,0.33,
1.132,2.43,-1.67,0.08,0.23,0.13,0.33,
1.133,2.35,-1.58,-0.27,0.23,0.13,0.33,
1.134,2.35,-1.58,-0.27,0.20,0.15,0.32,
1.134,2.35,-1.58,-0.27,0.17,0.17,0.32,
1.135,2.35,-1.58,-0.27,0.13,0.21,0.32,
1.135,2.35,-1.58,-0.27,0.12,0.22,0.32,
1.135,2.35,-1.58,-0.27,0.10,0.24,0.32,
1.145,2.13,-1.42,-0.29,0.10,0.24,0.32,
1.145,2.13,-1.42,-0.29,0.08,0.25,0.32,
1.145,2.13,-1.42,-0.29,0.06,0.27,0.32,
1.146,2.13,-1.42,-0.29,0.03,0.28,0.32,
1.146,2.13,-1.42,-0.29,0.03,0.29,0.32,
1.146,2.13,-1.42,-0.29,0.01,0.29,0.32,
1.156,2.06,-1.34,-0.04,0.01,0.29,0.32,
1.159,2.06,-1.34,-0.04,-0.00,0.30,0.32,
1.16,2.06,-1.34,-0.04,-0.01,0.30,0.31,
1.164,2.06,-1.34,-0.04,-0.02,0.30,0.31,
1.167,2.06,-1.34,-0.04,-0.02,0.30,0.30,
1.168,2.06,-1.34,-0.04,-0.02,0.30,0.30,
1.168,1.98,-1.28,0.53,-0.02,0.30,0.30,
1.169,1.98,-1.28,0.53,-0.01,0.30,0.29,
1.169,1.98,-1.28,0.53,-0.01,0.31,0.29,
1.17,1.98,-1.28,0.53,0.01,0.33,0.28,
1.17,1.98,-1.28,0.53,0.01,0.33,0.28,
1.171,1.98,-1.28,0.53,0.03,0.35,0.28,
1.172,1.81,-1.30,1.04,0.03,0.35,0.28,
1.172,1.81,-1.30,1.04,0.05,0.36,0.28,
1.173,1.81,-1.30,1.04,0.06,0.38,0.27,
1.173,1.81,-1.30,1.04,0.09,0.41,0.27,
1.174,1.81,-1.30,1.04,0.10,0.41,0.27,
1.193,1.81,-1.30,1.04,0.12,0.42,0.27,
1.196,1.42,-1.21,1.34,0.12,0.42,0.27,
1.197,1.42,-1.21,1.34,0.14,0.43,0.28,
1.2,1.42,-1.21,1.34,0.16,0.44,0.28,
1.201,1.42,-1.21,1.34,0.19,0.45,0.28,
1.201,1.42,-1.21,1.34,0.20,0.45,0.28,
1.203,1.42,-1.21,1.34,0.22,0.46,0.28,
1.204,1.21,-1.16,1.38,0.22,0.46,0.28,
1.204,1.21,-1.16,1.38,0.24,0.46,0.28,
1.205,1.21,-1.16,1.38,0.26,0.47,0.29,
1.206,1.21,-1.16,1.38,0.28,0.48,0.29,
1.208,1.21,-1.16,1.38,0.29,0.49,0.29,
1.209,1.21,-1.16,1.38,0.31,0.50,0.30,
1.21,1.05,-1.09,1.22,0.31,0.50,0.30,
1.21,1.05,-1.09,1.22,0.32,0.51,0.30,
1.21,1.05,-1.09,1.22,0.34,0.51,0.31,
1.215,1.05,-1.09,1.22,0.35,0.53,0.32,
1.215,1.05,-1.09,1.22,0.36,0.53,0.32,
1.215,1.05,-1.09,1.22,0.37,0.54,0.32,
1.215,0.79,-1.05,0.88,0.37,0.54,0.32,
1.216,0.79,-1.05,0.88,0.38,0.54,0.33,
1.216,0.79,-1.05,0.88,0.38,0.55,0.34,
1.216,0.79,-1.05,0.88,0.39,0.56,0.35,
1.216,0.79,-1.05,0.88,0.39,0.56,0.36,
1.216,0.79,-1.05,0.88,0.39,0.57,0.37,
1.217,0.51,-0.92,0.49,0.39,0.57,0.37,
1.217,0.51,-0.92,0.49,0.39,0.57,0.38,
1.219,0.51,-0.92,0.49,0.39,0.58,0.39,
1.222,0.51,-0.92,0.49,0.39,0.59,0.40,
1.223,0.51,-0.92,0.49,0.39,0.59,0.41,
1.225,0.51,-0.92,0.49,0.39,0.60,0.42,
1.231,0.25,-0.77,0.09,0.39,0.60,0.42,
1.232,0.25,-0.77,0.09,0.38,0.61,0.43,
1.233,0.25,-0.77,0.09,0.38,0.61,0.44,
1.233,0.25,-0.77,0.09,0.37,0.62,0.46,
1.234,0.25,-0.77,0.09,0.37,0.62,0.46,
1.235,0.25,-0.77,0.09,0.36,0.63,0.47,
1.237,0.14,-0.62,-0.30,0.36,0.63,0.47,
1.237,0.14,-0.62,-0.30,0.36,0.63,0.48,
1.239,0.14,-0.62,-0.30,0.35,0.63,0.49,
1.242,0.14,-0.62,-0.30,0.34,0.62,0.50,
1.264,0.14,-0.62,-0.30,0.33,0.61,0.51,
1.264,0.14,-0.62,-0.30,0.33,0.61,0.51,
1.264,0.18,-0.46,-0.63,0.33,0.61,0.51,
1.265,0.18,-0.46,-0.63,0.32,0.60,0.52,
1.265,0.18,-0.46,-0.63,0.31,0.59,0.53,
1.265,0.18,-0.46,-0.63,0.30,0.58,0.53,
1.265,0.18,-0.46,-0.63,0.30,0.58,0.53,
1.266,0.18,-0.46,-0.63,0.29,0.57,0.53,
1.266,0.32,-0.20,-0.84,0.29,0.57,0.53,
1.266,0.32,-0.20,-0.84,0.28,0.56,0.54,
1.267,0.32,-0.20,-0.84,0.27,0.55,0.53,
1.267,0.32,-0.20,-0.84,0.25,0.53,0.53,
1.267,0.32,-0.20,-0.84,0.25,0.52,0.53,
1.267,0.32,-0.20,-0.84,0.24,0.51,0.53,
1.268,0.48,-0.00,-1.01,0.24,0.51,0.53,
1.268,0.48,-0.00,-1.01,0.23,0.50,0.52,
1.27,0.48,-0.00,-1.01,0.22,0.49,0.52,
1.272,0.48,-0.00,-1.01,0.20,0.47,0.51,
1.273,0.48,-0.00,-1.01,0.20,0.47,0.51,
1.275,0.48,-0.00,-1.01,0.19,0.46,0.51,
1.282,0.50,0.14,-1.07,0.19,0.46,0.51,
1.282,0.50,0.14,-1.07,0.18,0.45,0.50,
1.283,0.50,0.14,-1.07,0.17,0.44,0.50,
1.283,0.50,0.14,-1.07,0.15,0.42,0.49,
1.283,0.50,0.14,-1.07,0.15,0.42,0.49,
1.285,0.50,0.14,-1.07,0.14,0.41,0.48,
1.287,0.53,0.21,-1.17,0.14,0.41,0.48,
1.287,0.53,0.21,-1.17,0.13,0.40,0.48,
1.293,0.53,0.21,-1.17,0.12,0.39,0.47,
1.293,0.53,0.21,-1.17,0.10,0.38,0.47,
1.294,0.53,0.21,-1.17,0.10,0.38,0.46,
1.296,0.53,0.21,-1.17,0.09,0.37,0.46,
1.297,0.44,0.24,-1.26,0.09,0.37,0.46,
1.297,0.44,0.24,-1.26,0.07,0.36,0.45,
1.299,0.44,0.24,-1.26,0.06,0.36,0.45,
1.302,0.44,0.24,-1.26,0.05,0.35,0.44,
1.303,0.44,0.24,-1.26,0.04,0.34,0.44,
1.305,0.44,0.24,-1.26,0.02,0.34,0.44,
1.307,0.37,0.29,-1.31,0.02,0.34,0.44,
1.307,0.37,0.29,-1.31,0.01,0.33,0.43,
1.309,0.37,0.29,-1.31,-0.00,0.32,0.43,
1.312,0.37,0.29,-1.31,-0.02,0.31,0.41,
1.314,0.37,0.29,-1.31,-0.03,0.30,0.41,
1.315,0.37,0.29,-1.31,-0.04,0.30,0.40,
1.317,0.40,0.34,-1.28,-0.04,0.30,0.40,
1.317,0.40,0.34,-1.28,-0.06,0.29,0.40,
1.319,0.40,0.34,-1.28,-0.07,0.28,0.39,
1.322,0.40,0.34,-1.28,-0.09,0.27,0.37,
1.323,0.40,0.34,-1.28,-0.09,0.26,0.37,
1.325,0.40,0.34,-1.28,-0.10,0.26,0.36,
1.327,0.51,0.47,-1.07,-0.10,0.26,0.36,
1.327,0.51,0.47,-1.07,-0.11,0.26,0.35,
1.33,0.51,0.47,-1.07,-0.11,0.26,0.33,
1.332,0.51,0.47,-1.07,-0.12,0.26,0.32,
1.333,0.51,0.47,-1.07,-0.12,0.26,0.31,
1.335,0.51,0.47,-1.07,-0.13,0.26,0.30,
1.337,0.54,0.48,-0.82,-0.13,0.26,0.30,
1.338,0.54,0.48,-0.82,-0.14,0.26,0.29,
1.339,0.54,0.48,-0.82,-0.14,0.26,0.28,
1.342,0.54,0.48,-0.82,-0.15,0.27,0.26,
1.346,0.54,0.48,-0.82,-0.15,0.27,0.26,
1.347,0.54,0.48,-0.82,-0.15,0.27,0.25,
1.348,0.54,0.45,-0.73,-0.15,0.27,0.25,
1.349,0.54,0.45,-0.73,-0.16,0.27,0.24,
1.349,0.54,0.45,-0.73,-0.17,0.27,0.23,
1.352,0.54,0.45,-0.73,-0.17,0.28,0.22,
1.357,0.54,0.45,-0.73,-0.18,0.28,0.21,
1.357,0.54,0.45,-0.73,-0.18,0.28,0.21,
1.358,0.46,0.44,-0.71,-0.18,0.28,0.21,
1.359,0.46,0.44,-0.71,-0.19,0.28,0.20,
1.387,0.46,0.44,-0.71,-0.20,0.28,0.19,
1.389,0.46,0.44,-0.71,-0.21,0.28,0.18,
1.39,0.46,0.44,-0.71,-0.21,0.28,0.17,
1.391,0.46,0.44,-0.71,-0.22,0.28,0.16,
1.392,0.41,0.42,-0.73,-0.22,0.28,0.16,
1.394,0.41,0.42,-0.73,-0.22,0.28,0.16,
1.395,0.41,0.42,-0.73,-0.23,0.28,0.15,
1.395,0.41,0.42,-0.73,-0.24,0.28,0.14,
1.396,0.41,0.42,-0.73,-0.24,0.28,0.14,
1.397,0.41,0.42,-0.73,-0.25,0.28,0.13,
1.398,0.33,0.36,-0.78,-0.25,0.28,0.13,
1.4,0.33,0.36,-0.78,-0.26,0.28,0.12,
1.401,0.33,0.36,-0.78,-0.27,0.28,0.11,
1.401,0.33,0.36,-0.78,-0.28,0.28,0.11,
1.402,0.33,0.36,-0.78,-0.29,0.27,0.10,
1.402,0.33,0.36,-0.78,-0.29,0.27,0.10,
1.402,0.30,0.34,-0.71,-0.29,0.27,0.10,
1.403,0.30,0.34,-0.71,-0.30,0.26,0.09,
1.403,0.30,0.34,-0.71,-0.31,0.26,0.08,
1.404,0.30,0.34,-0.71,-0.32,0.25,0.08,
1.404,0.30,0.34,-0.71,-0.32,0.25,0.07,
1.405,0.30,0.34,-0.71,-0.32,0.25,0.07,
1.405,0.20,0.30,-0.51,-0.32,0.25,0.07,
1.405,0.20,0.30,-0.51,-0.33,0.25,0.07,
1.405,0.20,0.30,-0.51,-0.33,0.25,0.07,
1.406,0.20,0.30,-0.51,-0.33,0.24,0.06,
1.407,0.20,0.30,-0.51,-0.33,0.24,0.06,
1.408,0.20,0.30,-0.51,-0.33,0.24,0.06,
1.408,0.14,0.31,-0.25,-0.33,0.24,0.06,
1.409,0.14,0.31,-0.25,-0.33,0.23,0.06,
1.445,0.14,0.31,-0.25,-0.33,0.23,0.06,
1.446,0.14,0.31,-0.25,-0.33,0.23,0.05,
1.446,0.14,0.31,-0.25,-0.32,0.22,0.05,
1.447,0.14,0.31,-0.25,-0.32,0.22,0.06,
1.447,0.06,0.24,0.04,-0.32,0.22,0.06,
1.447,0.06,0.24,0.04,-0.32,0.21,0.05,
1.448,0.06,0.24,0.04,-0.31,0.21,0.05,
1.448,0.06,0.24,0.04,-0.30,0.20,0.05,
1.449,0.06,0.24,0.04,-0.29,0.19,0.05,
1.449,0.06,0.24,0.04,-0.29,0.19,0.05,
1.449,0.06,0.20,0.32,-0.29,0.19,0.05,
1.45,0.06,0.20,0.32,-0.28,0.18,0.05,
1.45,0.06,0.20,0.32,-0.26,0.18,0.05,
1.451,0.06,0.20,0.32,-0.24,0.17,0.03,
1.451,0.06,0.20,0.32,-0.22,0.16,0.02,
1.451,0.06,0.20,0.32,-0.21,0.16,0.02,
1.452,0.48,0.08,0.71,-0.21,0.16,0.02,
1.452,0.48,0.08,0.71,-0.19,0.16,0.00,
1.453,0.48,0.08,0.71,-0.16,0.17,-0.01,
1.453,0.48,0.08,0.71,-0.12,0.20,-0.03,
1.453,0.48,0.08,0.71,-0.09,0.22,-0.05,
1.454,0.48,0.08,0.71,-0.07,0.23,-0.06,
1.454,1.06,-0.01,1.11,-0.07,0.23,-0.06,
1.455,1.06,-0.01,1.11,-0.05,0.24,-0.09,
1.455,1.06,-0.01,1.11,-0.02,0.26,-0.11,
1.456,1.06,-0.01,1.11,0.02,0.28,-0.15,
1.456,1.06,-0.01,1.11,0.05,0.30,-0.17,
1.456,1.06,-0.01,1.11,0.06,0.31,-0.19,
1.457,1.65,-0.00,1.35,0.06,0.31,-0.19,
1.457,1.65,-0.00,1.35,0.09,0.33,-0.22,
1.46,1.65,-0.00,1.35,0.12,0.36,-0.25,
1.463,1.65,-0.00,1.35,0.16,0.40,-0.30,
1.463,1.65,-0.00,1.35,0.19,0.43,-0.33,
1.467,1.65,-0.00,1.35,0.20,0.44,-0.35,
1.468,2.29,0.06,1.68,0.20,0.44,-0.35,
1.468,2.29,0.06,1.68,0.23,0.48,-0.39,
1.471,2.29,0.06,1.68,0.26,0.52,-0.43,
1.472,2.29,0.06,1.68,0.30,0.58,-0.49,
1.475,2.29,0.06,1.68,0.33,0.61,-0.54,
1.475,2.29,0.06,1.68,0.34,0.63,-0.56,
1.48,3.10,0.02,1.97,0.34,0.63,-0.56,
1.481,3.10,0.02,1.97,0.36,0.67,-0.62,
1.481,3.10,0.02,1.97,0.38,0.70,-0.67,
1.482,3.10,0.02,1.97,0.40,0.75,-0.74,
1.485,3.10,0.02,1.97,0.42,0.78,-0.80,
1.486,3.10,0.02,1.97,0.42,0.79,-0.84,
1.489,4.17,0.14,1.64,0.42,0.79,-0.84,
1.489,4.17,0.14,1.64,0.42,0.81,-0.92,
1.489,4.17,0.14,1.64,0.42,0.83,-1.00,
1.493,4.17,0.14,1.64,0.41,0.88,-1.10,
1.494,4.17,0.14,1.64,0.41,0.89,-1.15,
1.498,4.17,0.14,1.64,0.41,0.90,-1.18,
1.499,3.86,0.30,1.02,0.41,0.90,-1.18,
1.499,3.86,0.30,1.02,0.41,0.91,-1.22,
1.499,3.86,0.30,1.02,0.39,0.90,-1.24,
1.503,3.86,0.30,1.02,0.38,0.88,-1.26,
1.504,3.86,0.30,1.02,0.38,0.83,-1.25,
1.507,3.86,0.30,1.02,0.39,0.81,-1.24,
1.514,0.74,0.54,0.69,0.39,0.81,-1.24,
1.515,0.74,0.54,0.69,0.40,0.74,-1.22,
1.515,0.74,0.54,0.69,0.41,0.68,-1.18,
1.516,0.74,0.54,0.69,0.44,0.58,-1.13,
1.516,0.74,0.54,0.69,0.46,0.54,-1.09,
1.516,0.74,0.54,0.69,0.47,0.52,-1.07,
1.516,-1.48,0.24,0.99,0.47,0.52,-1.07,
1.516,-1.48,0.24,0.99,0.49,0.48,-1.03,
1.52,-1.48,0.24,0.99,0.50,0.45,-0.99,
1.521,-1.48,0.24,0.99,0.50,0.34,-0.95,
1.526,-1.48,0.24,0.99,0.50,0.23,-0.92,
1.551,-1.48,0.24,0.99,0.50,0.08,-0.90,
1.552,-1.48,0.24,0.99,0.50,0.08,-0.90,
1.552,-0.90,0.19,-0.30,0.50,0.08,-0.90,
1.552,-0.90,0.19,-0.30,0.51,-0.03,-0.87,
1.553,-0.90,0.19,-0.30,0.51,-0.08,-0.85,
1.553,-0.90,0.19,-0.30,0.52,-0.12,-0.83,
1.553,-0.90,0.19,-0.30,0.53,-0.12,-0.83,
1.553,-1.30,0.51,0.04,0.53,-0.12,-0.83,
1.553,-1.30,0.51,0.04,0.54,-0.13,-0.80,
1.554,-1.30,0.51,0.04,0.54,-0.14,-0.78,
1.554,-1.30,0.51,0.04,0.54,-0.14,-0.75,
1.554,-1.30,0.51,0.04,0.54,-0.14,-0.72,
1.554,-1.30,0.51,0.04,0.54,-0.14,-0.71,
1.554,-1.86,0.77,0.09,0.54,-0.14,-0.71,
1.555,-1.86,0.77,0.09,0.53,-0.15,-0.67,
1.555,-1.86,0.77,0.09,0.52,-0.16,-0.64,
1.555,-1.86,0.77,0.09,0.52,-0.17,-0.59,
1.555,-1.86,0.77,0.09,0.52,-0.18,-0.56,
1.555,-1.86,0.77,0.09,0.52,-0.18,-0.54,
1.557,-1.50,0.61,0.36,0.52,-0.18,-0.54,
1.558,-1.50,0.61,0.36,0.52,-0.18,-0.51,
1.563,-1.50,0.61,0.36,0.54,-0.19,-0.48,
1.565,-1.50,0.61,0.36,0.56,-0.20,-0.44,
1.565,-1.50,0.61,0.36,0.58,-0.20,-0.42,
1.566,-1.50,0.61,0.36,0.60,-0.20,-0.41,
1.567,-0.62,0.51,1.35,0.60,-0.20,-0.41,
1.568,-0.62,0.51,1.35,0.63,-0.20,-0.39,
1.569,-0.62,0.51,1.35,0.66,-0.20,-0.38,
1.572,-0.62,0.51,1.35,0.70,-0.20,-0.37,
1.573,-0.62,0.51,1.35,0.72,-0.19,-0.37,
1.578,-0.62,0.51,1.35,0.74,-0.18,-0.37,
1.6,0.34,0.36,1.83,0.74,-0.18,-0.37,
1.6,0.34,0.36,1.83,0.76,-0.18,-0.38,
1.601,0.34,0.36,1.83,0.78,-0.17,-0.38,
1.601,0.34,0.36,1.83,0.80,-0.17,-0.39,
1.601,0.34,0.36,1.83,0.82,-0.16,-0.39,
1.601,0.34,0.36,1.83,0.82,-0.16,-0.40,
1.602,0.50,0.29,1.49,0.82,-0.16,-0.40,
1.602,0.50,0.29,1.49,0.82,-0.16,-0.40,
1.602,0.50,0.29,1.49,0.82,-0.16,-0.40,
1.602,0.50,0.29,1.49,0.82,-0.15,-0.41,
1.603,0.50,0.29,1.49,0.80,-0.14,-0.41,
1.603,0.50,0.29,1.49,0.80,-0.13,-0.40,
1.603,0.40,0.32,0.46,0.80,-0.13,-0.40,
1.604,0.40,0.32,0.46,0.78,-0.12,-0.41,
1.604,0.40,0.32,0.46,0.76,-0.10,-0.41,
1.604,0.40,0.32,0.46,0.74,-0.09,-0.41,
1.604,0.40,0.32,0.46,0.73,-0.07,-0.41,
1.605,0.40,0.32,0.46,0.70,-0.06,-0.41,
1.609,0.49,0.39,-0.44,0.70,-0.06,-0.41,
1.61,0.49,0.39,-0.44,0.68,-0.04,-0.42,
1.61,0.49,0.39,-0.44,0.65,-0.03,-0.43,
1.614,0.49,0.39,-0.44,0.62,-0.02,-0.44,
1.615,0.49,0.39,-0.44,0.59,-0.00,-0.46,
1.615,0.49,0.39,-0.44,0.55,0.01,-0.47,
1.619,0.85,0.42,-1.22,0.55,0.01,-0.47,
1.62,0.85,0.42,-1.22,0.52,0.03,-0.49,
1.62,0.85,0.42,-1.22,0.48,0.04,-0.51,
1.622,0.85,0.42,-1.22,0.44,0.06,-0.53,
1.625,0.85,0.42,-1.22,0.40,0.08,-0.55,
1.636,0.85,0.42,-1.22,0.36,0.10,-0.58,
1.637,1.16,0.65,-1.72,0.36,0.10,-0.58,
1.637,1.16,0.65,-1.72,0.32,0.12,-0.59,
1.638,1.16,0.65,-1.72,0.28,0.15,-0.61,
1.638,1.16,0.65,-1.72,0.24,0.17,-0.62,
1.638,1.16,0.65,-1.72,0.20,0.20,-0.63,
1.638,1.16,0.65,-1.72,0.16,0.22,-0.64,
1.639,0.91,0.67,-2.03,0.16,0.22,-0.64,
1.639,0.91,0.67,-2.03,0.11,0.24,-0.65,
1.639,0.91,0.67,-2.03,0.07,0.25,-0.66,
1.642,0.91,0.67,-2.03,0.03,0.25,-0.68,
1.643,0.91,0.67,-2.03,-0.01,0.25,-0.69,
1.675,0.91,0.67,-2.03,-0.04,0.25,-0.71,
1.676,1.21,0.50,-1.74,-0.04,0.25,-0.71,
1.676,1.21,0.50,-1.74,-0.07,0.25,-0.74,
1.676,1.21,0.50,-1.74,-0.10,0.25,-0.76,
1.676,1.21,0.50,-1.74,-0.12,0.26,-0.78,
1.676,1.21,0.50,-1.74,-0.14,0.27,-0.80,
1.676,1.21,0.50,-1.74,-0.16,0.28,-0.82,
1.677,1.11,0.58,-0.81,-0.16,0.28,-0.82,
1.677,1.11,0.58,-0.81,-0.17,0.30,-0.83,
1.677,1.11,0.58,-0.81,-0.18,0.32,-0.84,
1.677,1.11,0.58,-0.81,-0.19,0.33,-0.85,
1.677,1.11,0.58,-0.81,-0.21,0.33,-0.86,
1.678,1.11,0.58,-0.81,-0.22,0.33,-0.87,
1.678,0.73,0.64,-0.25,-0.22,0.33,-0.87,
1.678,0.73,0.64,-0.25,-0.23,0.33,-0.87,
1.678,0.73,0.64,-0.25,-0.25,0.32,-0.88,
1.678,0.73,0.64,-0.25,-0.28,0.32,-0.88,
1.682,0.73,0.64,-0.25,-0.30,0.32,-0.88,
1.683,0.73,0.64,-0.25,-0.32,0.32,-0.88,
1.685,0.29,0.53,-0.69,-0.32,0.32,-0.88,
1.686,0.29,0.53,-0.69,-0.35,0.33,-0.88,
1.687,0.29,0.53,-0.69,-0.37,0.34,-0.88,
1.693,0.29,0.53,-0.69,-0.40,0.34,-0.87,
1.694,0.29,0.53,-0.69,-0.43,0.35,-0.87,
1.695,0.29,0.53,-0.69,-0.46,0.35,-0.86,
1.695,-0.32,0.55,-1.12,-0.46,0.35,-0.86,
1.695,-0.32,0.55,-1.12,-0.49,0.36,-0.85,
1.695,-0.32,0.55,-1.12,-0.51,0.36,-0.83,
1.696,-0.32,0.55,-1.12,-0.55,0.37,-0.80,
1.696,-0.32,0.55,-1.12,-0.56,0.37,-0.79,
1.696,-0.32,0.55,-1.12,-0.57,0.36,-0.76,
1.697,-1.70,0.77,-0.60,-0.57,0.36,-0.76,
1.697,-1.70,0.77,-0.60,-0.58,0.35,-0.73,
1.699,-1.70,0.77,-0.60,-0.59,0.33,-0.70,
1.702,-1.70,0.77,-0.60,-0.59,0.30,-0.67,
1.703,-1.70,0.77,-0.60,-0.59,0.29,-0.65,
1.705,-1.70,0.77,-0.60,-0.58,0.27,-0.64,
1.708,-1.74,0.61,0.48,-0.58,0.27,-0.64,
1.709,-1.74,0.61,0.48,-0.57,0.26,-0.63,
1.709,-1.74,0.61,0.48,-0.56,0.26,-0.63,
1.712,-1.74,0.61,0.48,-0.54,0.25,-0.63,
1.713,-1.74,0.61,0.48,-0.52,0.26,-0.63,
1.715,-1.74,0.61,0.48,-0.50,0.26,-0.64,
1.717,0.29,0.24,0.90,-0.50,0.26,-0.64,
1.717,0.29,0.24,0.90,-0.48,0.27,-0.64,
1.719,0.29,0.24,0.90,-0.47,0.29,-0.64,
1.721,0.29,0.24,0.90,-0.46,0.30,-0.64,
1.723,0.29,0.24,0.90,-0.45,0.32,-0.63,
1.725,0.29,0.24,0.90,-0.45,0.33,-0.63,
1.727,0.62,0.27,0.45,-0.45,0.33,-0.63,
1.727,0.62,0.27,0.45,-0.44,0.34,-0.61,
1.729,0.62,0.27,0.45,-0.45,0.34,-0.60,
1.732,0.62,0.27,0.45,-0.45,0.33,-0.59,
1.733,0.62,0.27,0.45,-0.45,0.33,-0.58,
1.735,0.62,0.27,0.45,-0.45,0.32,-0.57,
1.737,-0.09,0.69,0.25,-0.45,0.32,-0.57,
1.737,-0.09,0.69,0.25,-0.46,0.30,-0.57,
1.739,-0.09,0.69,0.25,-0.47,0.28,-0.56,
1.742,-0.09,0.69,0.25,-0.48,0.25,-0.55,
1.781,-0.09,0.69,0.25,-0.49,0.22,-0.54,
1.781,-0.09,0.69,0.25,-0.50,0.19,-0.53,
1.782,-0.29,0.98,-0.03,-0.50,0.19,-0.53,
1.783,-0.29,0.98,-0.03,-0.51,0.17,-0.53,
1.783,-0.29,0.98,-0.03,-0.52,0.15,-0.52,
1.784,-0.29,0.98,-0.03,-0.53,0.14,-0.52,
1.784,-0.29,0.98,-0.03,-0.54,0.14,-0.51,
1.785,-0.29,0.98,-0.03,-0.54,0.15,-0.51,
1.785,-0.06,1.07,-0.11,-0.54,0.15,-0.51,
1.786,-0.06,1.07,-0.11,-0.54,0.16,-0.51,
1.789,-0.06,1.07,-0.11,-0.54,0.18,-0.50,
1.789,-0.06,1.07,-0.11,-0.54,0.20,-0.49,
1.789,-0.06,1.07,-0.11,-0.54,0.22,-0.48,
1.79,-0.06,1.07,-0.11,-0.55,0.25,-0.47,
1.79,-0.10,1.27,-0.28,-0.55,0.25,-0.47,
1.791,-0.10,1.27,-0.28,-0.55,0.27,-0.46,
1.791,-0.10,1.27,-0.28,-0.57,0.28,-0.44,
1.792,-0.10,1.27,-0.28,-0.58,0.30,-0.43,
1.792,-0.10,1.27,-0.28,-0.61,0.31,-0.42,
1.792,-0.10,1.27,-0.28,-0.63,0.33,-0.40,
1.793,-0.17,1.19,-0.75,-0.63,0.33,-0.40,
1.793,-0.17,1.19,-0.75,-0.66,0.34,-0.38,
1.794,-0.17,1.19,-0.75,-0.70,0.34,-0.37,
1.794,-0.17,1.19,-0.75,-0.73,0.35,-0.35,
1.795,-0.17,1.19,-0.75,-0.76,0.37,-0.33,
1.795,-0.17,1.19,-0.75,-0.79,0.38,-0.32,
1.795,-0.44,1.25,-0.98,-0.79,0.38,-0.32,
1.796,-0.44,1.25,-0.98,-0.82,0.40,-0.30,
1.796,-0.44,1.25,-0.98,-0.84,0.42,-0.29,
1.797,-0.44,1.25,-0.98,-0.86,0.45,-0.27,
1.797,-0.44,1.25,-0.98,-0.88,0.47,-0.26,
1.797,-0.44,1.25,-0.98,-0.88,0.50,-0.25,
1.798,-0.52,1.53,-0.53,-0.88,0.50,-0.25,
1.798,-0.52,1.53,-0.53,-0.89,0.52,-0.25,
1.799,-0.52,1.53,-0.53,-0.88,0.53,-0.24,
1.809,-0.52,1.53,-0.53,-0.87,0.56,-0.23,
1.809,-0.52,1.53,-0.53,-0.86,0.56,-0.23,
1.81,-0.52,1.53,-0.53,-0.85,0.57,-0.22,
1.81,-0.60,1.88,0.34,-0.85,0.57,-0.22,
1.81,-0.60,1.88,0.34,-0.82,0.58,-0.22,
1.811,-0.60,1.88,0.34,-0.81,0.58,-0.21,
1.814,-0.60,1.88,0.34,-0.76,0.57,-0.20,
1.815,-0.60,1.88,0.34,-0.75,0.57,-0.20,
1.815,-0.60,1.88,0.34,-0.72,0.56,-0.20,
1.823,-0.94,2.19,0.89,-0.72,0.56,-0.20,
1.824,-0.94,2.19,0.89,-0.68,0.55,-0.19,
1.824,-0.94,2.19,0.89,-0.64,0.54,-0.19,
1.824,-0.94,2.19,0.89,-0.59,0.52,-0.20,
1.825,-0.94,2.19,0.89,-0.56,0.52,-0.20,
1.825,-0.94,2.19,0.89,-0.52,0.51,-0.20,
1.843,-0.91,2.38,1.03,-0.52,0.51,-0.20,
1.844,-0.91,2.38,1.03,-0.47,0.50,-0.21,
1.845,-0.91,2.38,1.03,-0.43,0.49,-0.21,
1.845,-0.91,2.38,1.03,-0.37,0.47,-0.22,
1.845,-0.91,2.38,1.03,-0.35,0.46,-0.23,
1.845,-0.91,2.38,1.03,-0.31,0.42,-0.23,
1.846,-0.73,2.09,1.10,-0.31,0.42,-0.23,
1.846,-0.73,2.09,1.10,-0.26,0.37,-0.24,
1.846,-0.73,2.09,1.10,-0.22,0.32,-0.24,
1.847,-0.73,2.09,1.10,-0.15,0.25,-0.25,
1.847,-0.73,2.09,1.10,-0.13,0.23,-0.25,
1.847,-0.73,2.09,1.10,-0.09,0.20,-0.25,
1.848,-0.75,1.75,1.38,-0.09,0.20,-0.25,
1.848,-0.75,1.75,1.38,-0.04,0.19,-0.25,
1.849,-0.75,1.75,1.38,0.00,0.18,-0.24,
1.852,-0.75,1.75,1.38,0.07,0.17,-0.24,
1.853,-0.75,1.75,1.38,0.09,0.16,-0.23,
1.86,-0.75,1.75,1.38,0.14,0.15,-0.22,
1.864,-0.54,1.48,0.84,0.14,0.15,-0.22,
1.864,-0.54,1.48,0.84,0.16,0.14,-0.20,
1.865,-0.54,1.48,0.84,0.20,0.13,-0.19,
1.866,-0.54,1.48,0.84,0.24,0.12,-0.16,
1.866,-0.54,1.48,0.84,0.25,0.11,-0.15,
1.867,-0.54,1.48,0.84,0.28,0.10,-0.13,
1.868,-0.63,1.35,0.35,0.28,0.10,-0.13,
1.868,-0.63,1.35,0.35,0.30,0.10,-0.11,
1.869,-0.63,1.35,0.35,0.32,0.09,-0.08,
1.872,-0.63,1.35,0.35,0.34,0.07,-0.05,
1.873,-0.63,1.35,0.35,0.34,0.07,-0.04,
1.876,-0.63,1.35,0.35,0.35,0.05,-0.02,
1.878,-0.96,1.41,-0.20,0.35,0.05,-0.02,
1.878,-0.96,1.41,-0.20,0.35,0.04,0.01,
1.879,-0.96,1.41,-0.20,0.35,0.02,0.03,
1.882,-0.96,1.41,-0.20,0.35,0.00,0.07,
1.883,-0.96,1.41,-0.20,0.35,-0.00,0.08,
1.885,-0.96,1.41,-0.20,0.34,-0.01,0.10,
1.888,-1.41,1.77,-0.78,0.34,-0.01,0.10,
1.889,-1.41,1.77,-0.78,0.33,-0.01,0.13,
1.89,-1.41,1.77,-0.78,0.32,-0.01,0.14,
1.906,-1.41,1.77,-0.78,0.30,-0.02,0.17,
1.908,-1.41,1.77,-0.78,0.29,-0.02,0.18,
1.909,-1.41,1.77,-0.78,0.27,-0.01,0.19,
1.91,-1.07,1.69,-1.13,0.27,-0.01,0.19,
1.911,-1.07,1.69,-1.13,0.25,-0.01,0.19,
1.911,-1.07,1.69,-1.13,0.23,-0.01,0.19,
1.912,-1.07,1.69,-1.13,0.20,0.00,0.18,
1.912,-1.07,1.69,-1.13,0.19,0.01,0.18,
1.912,-1.07,1.69,-1.13,0.17,0.02,0.16,
1.912,-0.17,1.38,-1.18,0.17,0.02,0.16,
1.913,-0.17,1.38,-1.18,0.15,0.05,0.14,
1.941,-0.17,1.38,-1.18,0.13,0.08,0.12,
1.941,-0.17,1.38,-1.18,0.11,0.13,0.09,
1.941,-0.17,1.38,-1.18,0.10,0.15,0.08,
1.942,-0.17,1.38,-1.18,0.08,0.19,0.05,
1.942,0.41,0.67,-1.35,0.08,0.19,0.05,
1.943,0.41,0.67,-1.35,0.05,0.23,0.02,
1.943,0.41,0.67,-1.35,0.04,0.28,0.00,
1.944,0.41,0.67,-1.35,0.01,0.35,-0.04,
1.944,0.41,0.67,-1.35,0.00,0.38,-0.05,
1.944,0.41,0.67,-1.35,-0.01,0.43,-0.07,
1.945,0.68,-0.02,-1.50,-0.01,0.43,-0.07,
1.945,0.68,-0.02,-1.50,-0.03,0.49,-0.09,
1.946,0.68,-0.02,-1.50,-0.03,0.55,-0.11,
1.946,0.68,-0.02,-1.50,-0.06,0.64,-0.14,
1.947,0.68,-0.02,-1.50,-0.07,0.67,-0.15,
1.947,0.68,-0.02,-1.50,-0.08,0.73,-0.17,
1.947,0.56,-0.48,-1.70,-0.08,0.73,-0.17,
1.948,0.56,-0.48,-1.70,-0.08,0.79,-0.18,
1.948,0.56,-0.48,-1.70,-0.09,0.85,-0.20,
1.949,0.56,-0.48,-1.70,-0.09,0.93,-0.22,
1.949,0.56,-0.48,-1.70,-0.09,0.95,-0.23,
1.949,0.56,-0.48,-1.70,-0.10,1.00,-0.25,
1.95,0.58,-0.62,-1.86,-0.10,1.00,-0.25,
1.95,0.58,-0.62,-1.86,-0.10,1.04,-0.27,
1.951,0.58,-0.62,-1.86,-0.09,1.07,-0.30,
1.956,0.58,-0.62,-1.86,-0.08,1.11,-0.36,
1.956,0.58,-0.62,-1.86,-0.08,1.12,-0.38,
1.956,0.58,-0.62,-1.86,-0.05,1.13,-0.43,
1.957,0.90,-0.46,-1.59,-0.05,1.13,-0.43,
1.957,0.90,-0.46,-1.59,-0.04,1.11,-0.48,
1.97,0.90,-0.46,-1.59,-0.02,1.06,-0.54,
1.97,0.90,-0.46,-1.59,-0.01,0.97,-0.64,
1.971,0.90,-0.46,-1.59,-0.01,0.94,-0.67,
1.971,0.90,-0.46,-1.59,0.01,0.89,-0.73,
1.971,0.78,-0.05,-1.13,0.01,0.89,-0.73,
1.971,0.78,-0.05,-1.13,0.01,0.85,-0.80,
1.972,0.78,-0.05,-1.13,0.01,0.81,-0.86,
1.972,0.78,-0.05,-1.13,0.04,0.75,-0.94,
1.997,0.78,-0.05,-1.13,0.04,0.74,-0.96,
1.998,0.78,-0.05,-1.13,0.04,0.70,-1.01,
1.998,-0.05,0.30,-1.74,0.04,0.70,-1.01,
1.998,-0.05,0.30,-1.74,0.03,0.67,-1.05,
1.999,-0.05,0.30,-1.74,0.02,0.63,-1.08,
1.999,-0.05,0.30,-1.74,-0.02,0.58,-1.12,
1.999,-0.05,0.30,-1.74,-0.03,0.57,-1.13,
1.999,-0.05,0.30,-1.74,-0.06,0.55,-1.14,
1.999,-0.69,0.39,-2.56,-0.06,0.55,-1.14,
2.0,-0.69,0.39,-2.56,-0.08,0.54,-1.16,
2.0,-0.69,0.39,-2.56,-0.10,0.54,-1.16,
2.0,-0.69,0.39,-2.56,-0.14,0.54,-1.18,
2.0,-0.69,0.39,-2.56,-0.15,0.55,-1.18,
2.0,-0.69,0.39,-2.56,-0.16,0.55,-1.19,
2.001,-0.51,0.04,-2.69,-0.16,0.55,-1.19,
2.001,-0.51,0.04,-2.69,-0.17,0.55,-1.20,
2.001,-0.51,0.04,-2.69,-0.17,0.54,-1.20,
2.007,-0.51,0.04,-2.69,-0.17,0.53,-1.21,
2.008,-0.51,0.04,-2.69,-0.17,0.52,-1.21,
2.008,-0.51,0.04,-2.69,-0.17,0.50,-1.21,
2.01,-0.46,-0.37,-2.68,-0.17,0.50,-1.21,
2.011,-0.46,-0.37,-2.68,-0.17,0.47,-1.21,
2.012,-0.46,-0.37,-2.68,-0.15,0.48,-1.20,
2.013,-0.46,-0.37,-2.68,-0.09,0.53,-1.18,
2.014,-0.46,-0.37,-2.68,-0.08,0.55,-1.17,
2.026,-0.46,-0.37,-2.68,-0.06,0.57,-1.15,
2.028,-1.22,-0.50,-2.42,-0.06,0.57,-1.15,
2.028,-1.22,-0.50,-2.42,-0.03,0.60,-1.12,
2.029,-1.22,-0.50,-2.42,-0.00,0.62,-1.10,
2.03,-1.22,-0.50,-2.42,0.04,0.63,-1.06,
2.031,-1.22,-0.50,-2.42,0.11,0.65,-1.02,
2.031,-1.22,-0.50,-2.42,0.11,0.65,-1.02,
2.032,-1.39,-0.44,-2.22,0.11,0.65,-1.02,
2.033,-1.39,-0.44,-2.22,0.17,0.66,-0.99,
2.033,-1.39,-0.44,-2.22,0.23,0.66,-0.97,
2.033,-1.39,-0.44,-2.22,0.36,0.67,-0.94,
2.034,-1.39,-0.44,-2.22,0.40,0.67,-0.93,
2.035,-1.39,-0.44,-2.22,0.49,0.66,-0.91,
2.041,-1.14,-0.05,-1.58,0.49,0.66,-0.91,
2.044,-1.14,-0.05,-1.58,0.57,0.66,-0.89,
2.045,-1.14,-0.05,-1.58,0.68,0.66,-0.87,
2.045,-1.14,-0.05,-1.58,0.89,0.68,-0.85,
2.046,-1.14,-0.05,-1.58,0.97,0.68,-0.84,
2.047,-1.14,-0.05,-1.58,1.12,0.68,-0.82,
2.047,-0.65,0.14,-0.69,1.12,0.68,-0.82,
2.048,-0.65,0.14,-0.69,1.26,0.67,-0.81,
2.064,-0.65,0.14,-0.69,1.40,0.67,-0.79,
2.064,-0.65,0.14,-0.69,1.60,0.69,-0.76,
2.065,-0.65,0.14,-0.69,1.67,0.70,-0.75,
2.065,-0.65,0.14,-0.69,1.81,0.72,-0.73,
2.065,-0.01,-0.56,-0.70,1.81,0.72,-0.73,
2.066,-0.01,-0.56,-0.70,1.93,0.75,-0.71,
2.066,-0.01,-0.56,-0.70,2.06,0.78,-0.68,
2.066,-0.01,-0.56,-0.70,2.23,0.84,-0.65,
2.067,-0.01,-0.56,-0.70,2.29,0.87,-0.64,
2.067,-0.01,-0.56,-0.70,2.40,0.91,-0.61,
2.067,0.12,-1.53,-1.10,2.40,0.91,-0.61,
2.067,0.12,-1.53,-1.10,2.50,0.97,-0.60,
2.095,0.12,-1.53,-1.10,2.61,1.02,-0.58,
2.096,0.12,-1.53,-1.10,2.75,1.11,-0.56,
2.096,0.12,-1.53,-1.10,2.79,1.14,-0.56,
2.096,0.12,-1.53,-1.10,2.89,1.20,-0.56,
2.127,0.11,-2.33,-1.59,2.89,1.20,-0.56,
2.127,0.11,-2.33,-1.59,2.98,1.25,-0.57,
2.127,0.11,-2.33,-1.59,3.06,1.29,-0.58,
2.128,0.11,-2.33,-1.59,3.19,1.35,-0.61,
2.128,0.11,-2.33,-1.59,3.23,1.37,-0.62,
2.129,0.11,-2.33,-1.59,3.30,1.40,-0.65,
2.129,0.08,-2.97,-1.93,3.30,1.40,-0.65,
2.13,0.08,-2.97,-1.93,3.38,1.42,-0.68,
2.13,0.08,-2.97,-1.93,3.45,1.44,-0.72,
2.13,0.08,-2.97,-1.93,3.55,1.46,-0.79,
2.131,0.08,-2.97,-1.93,3.58,1.47,-0.82,
2.131,0.08,-2.97,-1.93,3.65,1.48,-0.88,
2.132,0.15,-3.01,-2.36,3.65,1.48,-0.88,
2.132,0.15,-3.01,-2.36,3.71,1.48,-0.94,
2.133,0.15,-3.01,-2.36,3.77,1.48,-1.02,
2.133,0.15,-3.01,-2.36,3.86,1.48,-1.13,
2.133,0.15,-3.01,-2.36,3.89,1.48,-1.18,
2.134,0.15,-3.01,-2.36,3.94,1.48,-1.26,
2.134,0.40,-3.16,-2.49,3.94,1.48,-1.26,
2.135,0.40,-3.16,-2.49,4.00,1.48,-1.34,
2.135,0.40,-3.16,-2.49,4.05,1.49,-1.42,
2.135,0.40,-3.16,-2.49,4.12,1.51,-1.52,
2.136,0.40,-3.16,-2.49,4.15,1.52,-1.55,
2.136,0.40,-3.16,-2.49,4.19,1.54,-1.61,
2.137,-0.43,-2.87,-2.75,4.19,1.54,-1.61,
2.137,-0.43,-2.87,-2.75,4.23,1.56,-1.66,
2.137,-0.43,-2.87,-2.75,4.26,1.57,-1.70,
2.138,-0.43,-2.87,-2.75,4.31,1.59,-1.75,
2.138,-0.43,-2.87,-2.75,4.32,1.60,-1.76,
2.139,-0.43,-2.87,-2.75,4.34,1.61,-1.79,
2.139,-0.84,-2.39,-3.17,4.34,1.61,-1.79,
2.139,-0.84,-2.39,-3.17,4.36,1.62,-1.81,
2.14,-0.84,-2.39,-3.17,4.38,1.64,-1.84,
2.14,-0.84,-2.39,-3.17,4.40,1.68,-1.86,
2.141,-0.84,-2.39,-3.17,4.40,1.69,-1.87,
2.141,-0.84,-2.39,-3.17,4.40,1.72,-1.89,
2.141,0.04,-2.64,-3.44,4.40,1.72,-1.89,
2.142,0.04,-2.64,-3.44,4.40,1.75,-1.91,
2.142,0.04,-2.64,-3.44,4.39,1.80,-1.93,
2.143,0.04,-2.64,-3.44,4.38,1.88,-1.95,
2.143,0.04,-2.64,-3.44,4.37,1.91,-1.96,
2.15,0.04,-2.64,-3.44,4.36,1.98,-1.97,
2.151,0.77,-3.72,-3.41,4.36,1.98,-1.97,
2.151,0.77,-3.72,-3.41,4.35,2.06,-1.99,
2.151,0.77,-3.72,-3.41,4.33,2.13,-2.01,
2.151,0.77,-3.72,-3.41,4.30,2.26,-2.03,
2.155,0.77,-3.72,-3.41,4.30,2.30,-2.04,
2.155,0.77,-3.72,-3.41,4.28,2.39,-2.07,
2.165,1.30,-4.59,-2.94,4.28,2.39,-2.07,
2.165,1.30,-4.59,-2.94,4.26,2.46,-2.10,
2.166,1.30,-4.59,-2.94,4.24,2.53,-2.13,
2.166,1.30,-4.59,-2.94,4.21,2.63,-2.20,
2.166,1.30,-4.59,-2.94,4.20,2.66,-2.22,
2.166,1.30,-4.59,-2.94,4.18,2.71,-2.28,
2.167,1.94,-5.75,-2.66,4.18,2.71,-2.28,
2.167,1.94,-5.75,-2.66,4.16,2.77,-2.34,
2.169,1.94,-5.75,-2.66,4.14,2.81,-2.40,
2.176,1.94,-5.75,-2.66,4.11,2.87,-2.51,
2.18,1.94,-5.75,-2.66,4.11,2.89,-2.55,
2.181,1.94,-5.75,-2.66,4.10,2.93,-2.62,
2.181,2.26,-6.59,-3.07,4.10,2.93,-2.62,
2.183,2.26,-6.59,-3.07,4.09,2.96,-2.70,
2.188,2.26,-6.59,-3.07,4.09,2.99,-2.78,
2.189,2.26,-6.59,-3.07,4.11,3.02,-2.91,
2.19,2.26,-6.59,-3.07,4.11,3.03,-2.95,
2.191,2.26,-6.59,-3.07,4.13,3.04,-3.04,
2.191,2.07,-6.93,-3.34,4.13,3.04,-3.04,
2.191,2.07,-6.93,-3.34,4.16,3.05,-3.12,
2.191,2.07,-6.93,-3.34,4.19,3.05,-3.21,
2.192,2.07,-6.93,-3.34,4.23,3.05,-3.34,
2.201,2.07,-6.93,-3.34,4.25,3.05,-3.38,
2.202,2.07,-6.93,-3.34,4.29,3.05,-3.45,
2.202,1.48,-5.97,-3.42,4.29,3.05,-3.45,
2.202,1.48,-5.97,-3.42,4.33,3.05,-3.50,
2.202,1.48,-5.97,-3.42,4.37,3.06,-3.55,
2.203,1.48,-5.97,-3.42,4.43,3.07,-3.58,
2.203,1.48,-5.97,-3.42,4.46,3.07,-3.59,
2.238,1.48,-5.97,-3.42,4.50,3.07,-3.59,
2.239,-1.07,-4.45,-3.25,4.50,3.07,-3.59,
2.239,-1.07,-4.45,-3.25,4.54,3.06,-3.59,
2.24,-1.07,-4.45,-3.25,4.57,3.05,-3.58,
2.24,-1.07,-4.45,-3.25,4.62,3.03,-3.56,
2.24,-1.07,-4.45,-3.25,4.64,3.03,-3.55,
2.24,-1.07,-4.45,-3.25,4.67,3.01,-3.52,
2.24,-1.98,-3.20,-2.64,4.67,3.01,-3.52,
2.241,-1.98,-3.20,-2.64,4.70,3.01,-3.50,
2.241,-1.98,-3.20,-2.64,4.73,3.00,-3.48,
2.241,-1.98,-3.20,-2.64,4.77,3.00,-3.44,
2.241,-1.98,-3.20,-2.64,4.78,3.00,-3.43,
2.241,-1.98,-3.20,-2.64,4.80,3.01,-3.41,
2.241,-1.64,-2.95,-2.02,4.80,3.01,-3.41,
2.242,-1.64,-2.95,-2.02,4.82,3.02,-3.41,
2.242,-1.64,-2.95,-2.02,4.84,3.03,-3.40,
2.242,-1.64,-2.95,-2.02,4.86,3.04,-3.41,
2.242,-1.64,-2.95,-2.02,4.87,3.04,-3.42,
2.242,-1.64,-2.95,-2.02,4.89,3.06,-3.44,
2.243,-0.14,-3.41,-1.46,4.89,3.06,-3.44,
2.243,-0.14,-3.41,-1.46,4.90,3.07,-3.47,
2.243,-0.14,-3.41,-1.46,4.91,3.09,-3.50,
2.243,-0.14,-3.41,-1.46,4.93,3.12,-3.56,
2.275,-0.14,-3.41,-1.46,4.94,3.13,-3.59,
2.276,-0.14,-3.41,-1.46,4.95,3.16,-3.64,
2.276,1.28,-4.40,-1.43,4.95,3.16,-3.64,
2.277,1.28,-4.40,-1.43,4.96,3.18,-3.70,
2.277,1.28,-4.40,-1.43,4.98,3.20,-3.76,
2.277,1.28,-4.40,-1.43,5.01,3.23,-3.87,
2.278,1.28,-4.40,-1.43,5.02,3.24,-3.91,
2.278,1.28,-4.40,-1.43,5.05,3.26,-3.98,
2.279,2.47,-5.20,-1.70,5.05,3.26,-3.98,
2.279,2.47,-5.20,-1.70,5.07,3.26,-4.06,
2.279,2.47,-5.20,-1.70,5.10,3.27,-4.15,
2.279,2.47,-5.20,-1.70,5.15,3.27,-4.27,
2.28,2.47,-5.20,-1.70,5.17,3.27,-4.31,
2.28,2.47,-5.20,-1.70,5.21,3.26,-4.38,
2.28,2.85,-5.95,-1.98,5.21,3.26,-4.38,
2.28,2.85,-5.95,-1.98,5.25,3.24,-4.45,
2.281,2.85,-5.95,-1.98,5.29,3.21,-4.52,
2.281,2.85,-5.95,-1.98,5.34,3.16,-4.58,
2.281,2.85,-5.95,-1.98,5.36,3.14,-4.60,
2.281,2.85,-5.95,-1.98,5.38,3.09,-4.62,
2.282,1.44,-5.25,-2.38,5.38,3.09,-4.62,
2.282,1.44,-5.25,-2.38,5.41,3.03,-4.63,
2.282,1.44,-5.25,-2.38,5.43,2.95,-4.63,
2.282,1.44,-5.25,-2.38,5.45,2.83,-4.62,
2.283,1.44,-5.25,-2.38,5.45,2.79,-4.62,
2.287,1.44,-5.25,-2.38,5.45,2.69,-4.61,
2.288,-0.36,-3.63,-2.65,5.45,2.69,-4.61,
2.289,-0.36,-3.63,-2.65,5.45,2.59,-4.59,
2.289,-0.36,-3.63,-2.65,5.44,2.48,-4.59,
2.298,-0.36,-3.63,-2.65,5.40,2.30,-4.58,
2.299,-0.36,-3.63,-2.65,5.38,2.24,-4.58,
2.299,-0.36,-3.63,-2.65,5.35,2.12,-4.57,
2.3,-1.04,-2.22,-2.54,5.35,2.12,-4.57,
2.3,-1.04,-2.22,-2.54,5.29,2.00,-4.56,
2.301,-1.04,-2.22,-2.54,5.22,1.87,-4.55,
2.302,-1.04,-2.22,-2.54,5.10,1.67,-4.53,
2.303,-1.04,-2.22,-2.54,5.06,1.60,-4.53,
2.305,-1.04,-2.22,-2.54,4.96,1.45,-4.51,
2.312,-2.19,-1.02,-2.69,4.96,1.45,-4.51,
2.313,-2.19,-1.02,-2.69,4.85,1.31,-4.51,
2.314,-2.19,-1.02,-2.69,4.73,1.17,-4.51,
2.315,-2.19,-1.02,-2.69,4.53,0.98,-4.52,
2.315,-2.19,-1.02,-2.69,4.46,0.92,-4.52,
2.317,-2.19,-1.02,-2.69,4.31,0.81,-4.54,
2.318,-1.98,-0.39,-2.74,4.31,0.81,-4.54,
2.318,-1.98,-0.39,-2.74,4.16,0.71,-4.56,
2.319,-1.98,-0.39,-2.74,4.01,0.62,-4.59,
2.323,-1.98,-0.39,-2.74,3.76,0.50,-4.63,
2.324,-1.98,-0.39,-2.74,3.67,0.47,-4.65,
2.325,-1.98,-0.39,-2.74,3.50,0.41,-4.69,
2.329,-1.04,-0.38,-2.90,3.50,0.41,-4.69,
2.329,-1.04,-0.38,-2.90,3.33,0.37,-4.72,
2.33,-1.04,-0.38,-2.90,3.15,0.34,-4.76,
2.333,-1.04,-0.38,-2.90,2.88,0.33,-4.82,
2.333,-1.04,-0.38,-2.90,2.79,0.33,-4.83,
2.335,-1.04,-0.38,-2.90,2.62,0.35,-4.87,
2.347,-0.21,-0.71,-2.61,2.62,0.35,-4.87,
2.348,-0.21,-0.71,-2.61,2.45,0.38,-4.89,
2.349,-0.21,-0.71,-2.61,2.28,0.43,-4.91,
2.349,-0.21,-0.71,-2.61,2.03,0.53,-4.93,
2.349,-0.21,-0.71,-2.61,1.95,0.57,-4.93,
2.35,-0.21,-0.71,-2.61,1.79,0.66,-4.93,
2.35,-0.02,-1.19,-2.24,1.79,0.66,-4.93,
2.351,-0.02,-1.19,-2.24,1.63,0.75,-4.92,
2.352,-0.02,-1.19,-2.24,1.48,0.84,-4.91,
2.371,-0.02,-1.19,-2.24,1.26,0.98,-4.87,
2.374,-0.02,-1.19,-2.24,1.19,1.02,-4.85,
2.375,-0.02,-1.19,-2.24,1.06,1.11,-4.81,
2.376,-0.68,-1.23,-2.04,1.06,1.11,-4.81,
2.377,-0.68,-1.23,-2.04,0.93,1.20,-4.76,
2.379,-0.68,-1.23,-2.04,0.81,1.29,-4.69,
2.38,-0.68,-1.23,-2.04,0.65,1.42,-4.59,
2.381,-0.68,-1.23,-2.04,0.61,1.46,-4.55,
2.381,-0.68,-1.23,-2.04,0.52,1.55,-4.47,
2.382,-2.54,-0.30,-1.45,0.52,1.55,-4.47,
2.383,-2.54,-0.30,-1.45,0.44,1.62,-4.38,
2.384,-2.54,-0.30,-1.45,0.37,1.69,-4.29,
2.384,-2.54,-0.30,-1.45,0.29,1.78,-4.16,
2.385,-2.54,-0.30,-1.45,0.27,1.81,-4.11,
2.385,-2.54,-0.30,-1.45,0.24,1.86,-4.02,
2.386,-4.17,1.05,-0.21,0.24,1.86,-4.02,
2.387,-4.17,1.05,-0.21,0.21,1.91,-3.94,
2.388,-4.17,1.05,-0.21,0.19,1.96,-3.85,
2.389,-4.17,1.05,-0.21,0.18,2.01,-3.72,
2.393,-4.17,1.05,-0.21,0.18,2.02,-3.68,
2.393,-4.17,1.05,-0.21,0.18,2.04,-3.60,
2.393,-5.20,2.14,0.93,0.18,2.04,-3.60,
2.394,-5.20,2.14,0.93,0.19,2.05,-3.52,
2.394,-5.20,2.14,0.93,0.21,2.06,-3.45,
2.394,-5.20,2.14,0.93,0.25,2.05,-3.35,
2.395,-5.20,2.14,0.93,0.26,2.05,-3.31,
2.395,-5.20,2.14,0.93,0.29,2.04,-3.25,
2.398,-5.24,2.71,1.54,0.29,2.04,-3.25,
2.4,-5.24,2.71,1.54,0.32,2.02,-3.19,
2.401,-5.24,2.71,1.54,0.36,2.01,-3.14,
2.402,-5.24,2.71,1.54,0.42,1.97,-3.08,
2.404,-5.24,2.71,1.54,0.44,1.96,-3.06,
2.413,-5.24,2.71,1.54,0.49,1.93,-3.03,
2.415,-4.54,2.47,1.43,0.49,1.93,-3.03,
2.416,-4.54,2.47,1.43,0.53,1.90,-3.00,
2.453,-4.54,2.47,1.43,0.58,1.87,-2.98,
2.453,-4.54,2.47,1.43,0.64,1.81,-2.96,
2.454,-4.54,2.47,1.43,0.67,1.78,-2.96,
2.454,-4.54,2.47,1.43,0.71,1.74,-2.95,
2.454,-3.76,1.59,0.97,0.71,1.74,-2.95,
2.455,-3.76,1.59,0.97,0.75,1.69,-2.95,
2.455,-3.76,1.59,0.97,0.78,1.65,-2.95,
2.456,-3.76,1.59,0.97,0.84,1.56,-2.97,
2.456,-3.76,1.59,0.97,0.86,1.53,-2.97,
2.456,-3.76,1.59,0.97,0.89,1.47,-2.98,
2.457,-2.93,0.79,0.27,0.89,1.47,-2.98,
2.457,-2.93,0.79,0.27,0.92,1.41,-3.00,
2.458,-2.93,0.79,0.27,0.95,1.35,-3.02,
2.458,-2.93,0.79,0.27,0.99,1.26,-3.05,
2.459,-2.93,0.79,0.27,1.00,1.24,-3.06,
2.459,-2.93,0.79,0.27,1.02,1.17,-3.07,
2.46,-3.08,0.58,-0.40,1.02,1.17,-3.07,
2.46,-3.08,0.58,-0.40,1.05,1.11,-3.07,
2.46,-3.08,0.58,-0.40,1.07,1.04,-3.07,
2.461,-3.08,0.58,-0.40,1.09,0.93,-3.06,
2.461,-3.08,0.58,-0.40,1.10,0.89,-3.05,
2.462,-3.08,0.58,-0.40,1.11,0.80,-3.04,
2.462,-4.00,1.42,-1.12,1.11,0.80,-3.04,
2.462,-4.00,1.42,-1.12,1.11,0.71,-3.02,
2.463,-4.00,1.42,-1.12,1.10,0.62,-3.00,
2.463,-4.00,1.42,-1.12,1.09,0.47,-2.97,
2.464,-4.00,1.42,-1.12,1.07,0.38,-2.95,
2.464,-4.00,1.42,-1.12,1.05,0.34,-2.94,
2.464,-4.37,2.35,-1.84,1.05,0.34,-2.94,
2.465,-4.37,2.35,-1.84,1.02,0.25,-2.92,
2.465,-4.37,2.35,-1.84,0.99,0.17,-2.89,
2.466,-4.37,2.35,-1.84,0.92,0.05,-2.86,
2.466,-4.37,2.35,-1.84,0.89,0.01,-2.85,
2.467,-4.37,2.35,-1.84,0.84,-0.06,-2.83,
2.467,-4.44,3.15,-2.35,0.84,-0.06,-2.83,
2.467,-4.44,3.15,-2.35,0.78,-0.12,-2.81,
2.472,-4.44,3.15,-2.35,0.71,-0.19,-2.78,
2.473,-4.44,3.15,-2.35,0.60,-0.28,-2.74,
2.474,-4.44,3.15,-2.35,0.56,-0.31,-2.73,
2.477,-4.44,3.15,-2.35,0.47,-0.37,-2.71,
2.478,-4.58,3.44,-2.48,0.47,-0.37,-2.71,
2.478,-4.58,3.44,-2.48,0.37,-0.43,-2.68,
2.479,-4.58,3.44,-2.48,0.28,-0.49,-2.65,
2.484,-4.58,3.44,-2.48,0.12,-0.57,-2.61,
2.484,-4.58,3.44,-2.48,0.07,-0.60,-2.60,
2.485,-4.58,3.44,-2.48,-0.04,-0.64,-2.57,
2.489,-4.68,3.36,-2.32,-0.04,-0.64,-2.57,
2.491,-4.68,3.36,-2.32,-0.16,-0.68,-2.54,
2.492,-4.68,3.36,-2.32,-0.28,-0.72,-2.51,
2.494,-4.68,3.36,-2.32,-0.47,-0.76,-2.47,
2.495,-4.68,3.36,-2.32,-0.54,-0.78,-2.45,
2.497,-4.68,3.36,-2.32,-0.67,-0.80,-2.42,
2.498,-4.83,2.67,-2.00,-0.67,-0.80,-2.42,
2.499,-4.83,2.67,-2.00,-0.81,-0.83,-2.39,
2.5,-4.83,2.67,-2.00,-0.94,-0.85,-2.36,
2.503,-4.83,2.67,-2.00,-1.15,-0.88,-2.33,
2.504,-4.83,2.67,-2.00,-1.21,-0.89,-2.32,
2.505,-4.83,2.67,-2.00,-1.35,-0.90,-2.30,
2.52,-4.93,1.59,-1.39,-1.35,-0.90,-2.30,
2.52,-4.93,1.59,-1.39,-1.48,-0.90,-2.28,
2.521,-4.93,1.59,-1.39,-1.61,-0.90,-2.26,
2.521,-4.93,1.59,-1.39,-1.78,-0.91,-2.23,
2.521,-4.93,1.59,-1.39,-1.84,-0.91,-2.23,
2.522,-4.93,1.59,-1.39,-1.95,-0.92,-2.21,
2.522,-5.41,0.55,-0.12,-1.95,-0.92,-2.21,
2.522,-5.41,0.55,-0.12,-2.04,-0.94,-2.20,
2.523,-5.41,0.55,-0.12,-2.12,-0.96,-2.20,
2.523,-5.41,0.55,-0.12,-2.23,-1.00,-2.19,
2.525,-5.41,0.55,-0.12,-2.26,-1.02,-2.19,
2.527,-5.41,0.55,-0.12,-2.34,-1.10,-2.19,
2.528,-5.41,0.55,-0.12,-2.34,-1.10,-2.19,
2.529,-5.68,0.22,1.82,-2.34,-1.10,-2.19,
2.53,-5.68,0.22,1.82,-2.37,-1.15,-2.20,
2.532,-5.68,0.22,1.82,-2.39,-1.24,-2.21,
2.533,-5.68,0.22,1.82,-2.39,-1.27,-2.21,
2.535,-5.68,0.22,1.82,-2.39,-1.33,-2.22,
2.549,-5.68,0.19,3.85,-2.39,-1.33,-2.22,
2.552,-5.68,0.19,3.85,-2.37,-1.40,-2.23,
2.553,-5.68,0.19,3.85,-2.35,-1.46,-2.23,
2.554,-5.68,0.19,3.85,-2.30,-1.56,-2.24,
2.555,-5.68,0.19,3.85,-2.29,-1.60,-2.24,
2.556,-5.68,0.19,3.85,-2.24,-1.67,-2.24,
2.556,-6.05,0.66,5.35,-2.24,-1.67,-2.24,
2.557,-6.05,0.66,5.35,-2.19,-1.75,-2.23,
2.558,-6.05,0.66,5.35,-2.14,-1.84,-2.22,
2.559,-6.05,0.66,5.35,-2.05,-1.99,-2.20,
2.559,-6.05,0.66,5.35,-2.02,-2.05,-2.19,
2.56,-6.05,0.66,5.35,-1.96,-2.17,-2.16,
2.561,-6.78,1.33,5.63,-1.96,-2.17,-2.16,
2.561,-6.78,1.33,5.63,-1.91,-2.31,-2.14,
2.561,-6.78,1.33,5.63,-1.85,-2.46,-2.12,
2.562,-6.78,1.33,5.63,-1.78,-2.72,-2.08,
2.563,-6.78,1.33,5.63,-1.76,-2.81,-2.06,
2.565,-6.78,1.33,5.63,-1.72,-3.01,-2.03,
2.581,-7.31,2.13,4.64,-1.72,-3.01,-2.03,
2.584,-7.31,2.13,4.64,-1.69,-3.19,-2.00,
2.584,-7.31,2.13,4.64,-1.65,-3.37,-1.97,
2.585,-7.31,2.13,4.64,-1.59,-3.62,-1.92,
2.586,-7.31,2.13,4.64,-1.57,-3.69,-1.90,
2.587,-7.31,2.13,4.64,-1.53,-3.82,-1.86,
2.616,-7.82,2.29,4.14,-1.53,-3.82,-1.86,
2.617,-7.82,2.29,4.14,-1.49,-3.93,-1.83,
2.617,-7.82,2.29,4.14,-1.45,-4.03,-1.79,
2.617,-7.82,2.29,4.14,-1.37,-4.13,-1.73,
2.618,-7.82,2.29,4.14,-1.35,-4.16,-1.71,
2.618,-7.82,2.29,4.14,-1.30,-4.21,-1.67,
2.619,-7.95,1.75,4.45,-1.30,-4.21,-1.67,
2.619,-7.95,1.75,4.45,-1.25,-4.24,-1.63,
2.62,-7.95,1.75,4.45,-1.20,-4.26,-1.59,
2.62,-7.95,1.75,4.45,-1.11,-4.28,-1.53,
2.621,-7.95,1.75,4.45,-1.08,-4.28,-1.50,
2.621,-7.95,1.75,4.45,-1.02,-4.29,-1.45,
2.621,-7.58,1.16,4.60,-1.02,-4.29,-1.45,
2.622,-7.58,1.16,4.60,-0.95,-4.28,-1.40,
2.622,-7.58,1.16,4.60,-0.88,-4.27,-1.35,
2.623,-7.58,1.16,4.60,-0.77,-4.24,-1.27,
2.623,-7.58,1.16,4.60,-0.73,-4.22,-1.25,
2.623,-7.58,1.16,4.60,-0.66,-4.19,-1.20,
2.624,-7.11,1.04,4.62,-0.66,-4.19,-1.20,
2.624,-7.11,1.04,4.62,-0.59,-4.14,-1.15,
2.625,-7.11,1.04,4.62,-0.51,-4.09,-1.10,
2.625,-7.11,1.04,4.62,-0.40,-4.01,-1.04,
2.625,-7.11,1.04,4.62,-0.36,-3.98,-1.02,
2.626,-7.11,1.04,4.62,-0.29,-3.93,-0.99,
2.626,-6.35,0.86,3.97,-0.29,-3.93,-0.99,
2.627,-6.35,0.86,3.97,-0.23,-3.88,-0.97,
2.627,-6.35,0.86,3.97,-0.17,-3.84,-0.95,
2.628,-6.35,0.86,3.97,-0.09,-3.78,-0.95,
2.628,-6.35,0.86,3.97,-0.06,-3.76,-0.95,
2.628,-6.35,0.86,3.97,-0.01,-3.71,-0.96,
2.629,-5.22,0.90,2.81,-0.01,-3.71,-0.96,
2.629,-5.22,0.90,2.81,0.04,-3.64,-0.97,
2.63,-5.22,0.90,2.81,0.10,-3.57,-1.00,
2.635,-5.22,0.90,2.81,0.19,-3.44,-1.04,
2.636,-5.22,0.90,2.81,0.22,-3.40,-1.05,
2.639,-5.22,0.90,2.81,0.29,-3.31,-1.08,
2.64,-4.24,0.99,2.83,0.29,-3.31,-1.08,
2.64,-4.24,0.99,2.83,0.35,-3.23,-1.11,
2.64,-4.24,0.99,2.83,0.41,-3.15,-1.14,
2.644,-4.24,0.99,2.83,0.50,-3.07,-1.17,
2.645,-4.24,0.99,2.83,0.52,-3.05,-1.18,
2.645,-4.24,0.99,2.83,0.57,-3.02,-1.20,
2.648,-3.75,0.78,2.31,0.57,-3.02,-1.20,
2.649,-3.75,0.78,2.31,0.62,-2.99,-1.21,
2.649,-3.75,0.78,2.31,0.67,-2.97,-1.22,
2.657,-3.75,0.78,2.31,0.74,-2.92,-1.23,
2.66,-3.75,0.78,2.31,0.77,-2.90,-1.23,
2.661,-3.75,0.78,2.31,0.82,-2.86,-1.23,
2.661,-3.73,0.53,1.98,0.82,-2.86,-1.23,
2.661,-3.73,0.53,1.98,0.88,-2.82,-1.22,
2.661,-3.73,0.53,1.98,0.94,-2.76,-1.21,
2.662,-3.73,0.53,1.98,1.03,-2.70,-1.19,
2.667,-3.73,0.53,1.98,1.07,-2.69,-1.17,
2.668,-3.73,0.53,1.98,1.12,-2.67,-1.15,
2.694,-4.34,0.65,2.35,1.12,-2.67,-1.15,
2.695,-4.34,0.65,2.35,1.18,-2.66,-1.12,
2.696,-4.34,0.65,2.35,1.22,-2.67,-1.08,
2.696,-4.34,0.65,2.35,1.28,-2.69,-1.03,
2.696,-4.34,0.65,2.35,1.31,-2.69,-1.02,
2.697,-4.34,0.65,2.35,1.35,-2.67,-0.99,
2.697,-4.76,1.21,1.57,1.35,-2.67,-0.99,
2.697,-4.76,1.21,1.57,1.39,-2.64,-0.95,
2.697,-4.76,1.21,1.57,1.44,-2.61,-0.92,
2.698,-4.76,1.21,1.57,1.48,-2.60,-0.88,
2.698,-4.76,1.21,1.57,1.49,-2.60,-0.86,
2.698,-4.76,1.21,1.57,1.49,-2.57,-0.85,
2.699,-4.37,2.17,0.31,1.49,-2.57,-0.85,
2.699,-4.37,2.17,0.31,1.47,-2.51,-0.83,
2.699,-4.37,2.17,0.31,1.46,-2.44,-0.82,
2.699,-4.37,2.17,0.31,1.45,-2.33,-0.78,
2.7,-4.37,2.17,0.31,1.44,-2.30,-0.76,
2.7,-4.37,2.17,0.31,1.41,-2.25,-0.72,
2.7,-4.37,2.69,-0.67,1.41,-2.25,-0.72,
2.7,-4.37,2.69,-0.67,1.38,-2.22,-0.68,
2.701,-4.37,2.69,-0.67,1.33,-2.22,-0.63,
2.708,-4.37,2.69,-0.67,1.26,-2.22,-0.55,
2.709,-4.37,2.69,-0.67,1.25,-2.21,-0.53,
2.709,-4.37,2.69,-0.67,1.23,-2.15,-0.48,
2.709,-4.12,2.49,-1.37,1.23,-2.15,-0.48,
2.709,-4.12,2.49,-1.37,1.23,-2.06,-0.43,
2.709,-4.12,2.49,-1.37,1.25,-1.96,-0.38,
2.712,-4.12,2.49,-1.37,1.28,-1.89,-0.30,
2.713,-4.12,2.49,-1.37,1.28,-1.89,-0.28,
2.715,-4.12,2.49,-1.37,1.27,-1.92,-0.23,
2.717,-3.38,2.27,-1.11,1.27,-1.92,-0.23,
2.717,-3.38,2.27,-1.11,1.24,-1.96,-0.20,
2.723,-3.38,2.27,-1.11,1.21,-1.97,-0.16,
2.725,-3.38,2.27,-1.11,1.18,-1.82,-0.12,
2.726,-3.38,2.27,-1.11,1.19,-1.71,-0.11,
2.727,-3.38,2.27,-1.11,1.24,-1.41,-0.09,
2.727,-2.69,3.39,-0.87,1.24,-1.41,-0.09,
2.728,-2.69,3.39,-0.87,1.32,-1.03,-0.06,
2.729,-2.69,3.39,-0.87,1.41,-0.64,-0.01,
2.732,-2.69,3.39,-0.87,1.54,-0.21,0.09,
2.733,-2.69,3.39,-0.87,1.57,-0.15,0.13,
2.735,-2.69,3.39,-0.87,1.60,-0.15,0.21,
2.738,-4.11,3.55,0.64,1.60,-0.15,0.21,
2.741,-4.11,3.55,0.64,1.59,-0.31,0.28,
2.741,-4.11,3.55,0.64,1.54,-0.55,0.34,
2.742,-4.11,3.55,0.64,1.44,-0.96,0.41,
2.772,-4.11,3.55,0.64,1.40,-1.08,0.42,
2.772,-4.11,3.55,0.64,1.34,-1.23,0.44,
2.774,-3.23,3.56,-4.24,1.34,-1.23,0.44,
2.775,-3.23,3.56,-4.24,1.31,-1.25,0.46,
2.775,-3.23,3.56,-4.24,1.31,-1.14,0.49,
2.776,-3.23,3.56,-4.24,1.34,-0.91,0.55,
2.776,-3.23,3.56,-4.24,1.35,-0.84,0.57,
2.777,-3.23,3.56,-4.24,1.36,-0.75,0.61,
2.777,-3.14,3.45,-2.00,1.36,-0.75,0.61,
2.777,-3.14,3.45,-2.00,1.34,-0.71,0.65,
2.778,-3.14,3.45,-2.00,1.31,-0.72,0.69,
2.778,-3.14,3.45,-2.00,1.23,-0.77,0.75,
2.779,-3.14,3.45,-2.00,1.20,-0.79,0.77,
2.779,-3.14,3.45,-2.00,1.12,-0.81,0.81,
2.78,-2.32,3.01,-4.72,1.12,-0.81,0.81,
2.78,-2.32,3.01,-4.72,1.05,-0.82,0.85,
2.78,-2.32,3.01,-4.72,0.98,-0.81,0.91,
2.781,-2.32,3.01,-4.72,0.87,-0.78,1.00,
2.781,-2.32,3.01,-4.72,0.83,-0.76,1.03,
2.782,-2.32,3.01,-4.72,0.77,-0.71,1.10,
2.782,-2.32,3.38,-4.61,0.77,-0.71,1.10,
2.782,-2.32,3.38,-4.61,0.71,-0.65,1.17,
2.783,-2.32,3.38,-4.61,0.67,-0.56,1.24,
2.783,-2.32,3.38,-4.61,0.62,-0.38,1.34,
2.784,-2.32,3.38,-4.61,0.61,-0.32,1.37,
2.793,-2.32,3.38,-4.61,0.59,-0.20,1.42,
2.794,-0.75,4.08,-2.44,0.59,-0.20,1.42,
2.795,-0.75,4.08,-2.44,0.56,-0.10,1.45,
2.795,-0.75,4.08,-2.44,0.51,-0.03,1.46,
2.795,-0.75,4.08,-2.44,0.40,0.01,1.46,
2.796,-0.75,4.08,-2.44,0.35,0.01,1.46,
2.822,-0.75,4.08,-2.44,0.24,-0.00,1.45,
2.823,2.00,2.87,-5.28,0.24,-0.00,1.45,
2.823,2.00,2.87,-5.28,0.14,0.00,1.44,
2.823,2.00,2.87,-5.28,0.04,0.04,1.44,
2.824,2.00,2.87,-5.28,-0.11,0.21,1.46,
2.824,2.00,2.87,-5.28,-0.13,0.25,1.47,
2.824,2.00,2.87,-5.28,-0.16,0.30,1.48,
2.824,1.64,1.84,-5.31,-0.16,0.30,1.48,
2.825,1.64,1.84,-5.31,-0.21,0.37,1.49,
2.825,1.64,1.84,-5.31,-0.25,0.46,1.49,
2.825,1.64,1.84,-5.31,-0.31,0.59,1.48,
2.826,1.64,1.84,-5.31,-0.33,0.63,1.47,
2.826,1.64,1.84,-5.31,-0.37,0.72,1.45,
2.826,3.13,1.44,-4.09,-0.37,0.72,1.45,
2.827,3.13,1.44,-4.09,-0.40,0.79,1.43,
2.827,3.13,1.44,-4.09,-0.45,0.84,1.40,
2.827,3.13,1.44,-4.09,-0.52,0.89,1.35,
2.827,3.13,1.44,-4.09,-0.54,0.90,1.34,
2.828,3.13,1.44,-4.09,-0.59,0.90,1.31,
2.828,4.26,1.33,-4.39,-0.59,0.90,1.31,
2.828,4.26,1.33,-4.39,-0.64,0.90,1.28,
2.829,4.26,1.33,-4.39,-0.70,0.88,1.25,
2.832,4.26,1.33,-4.39,-0.79,0.82,1.19,
2.832,4.26,1.33,-4.39,-0.82,0.79,1.17,
2.836,4.26,1.33,-4.39,-0.88,0.74,1.12,
2.837,5.43,0.98,-4.91,-0.88,0.74,1.12,
2.838,5.43,0.98,-4.91,-0.93,0.71,1.07,
2.839,5.43,0.98,-4.91,-0.98,0.69,1.02,
2.842,5.43,0.98,-4.91,-1.02,0.72,0.94,
2.843,5.43,0.98,-4.91,-1.04,0.74,0.92,
2.847,5.43,0.98,-4.91,-1.05,0.78,0.88,
2.848,6.02,0.49,-3.57,-1.05,0.78,0.88,
2.848,6.02,0.49,-3.57,-1.07,0.80,0.84,
2.849,6.02,0.49,-3.57,-1.08,0.81,0.79,
2.853,6.02,0.49,-3.57,-1.09,0.82,0.73,
2.853,6.02,0.49,-3.57,-1.09,0.83,0.71,
2.855,6.02,0.49,-3.57,-1.10,0.85,0.66,
2.857,6.32,0.19,-2.65,-1.10,0.85,0.66,
2.857,6.32,0.19,-2.65,-1.10,0.88,0.61,
2.861,6.32,0.19,-2.65,-1.11,0.89,0.57,
2.862,6.32,0.19,-2.65,-1.11,0.91,0.50,
2.863,6.32,0.19,-2.65,-1.12,0.91,0.48,
2.865,6.32,0.19,-2.65,-1.13,0.90,0.44,
2.867,6.28,-0.05,-2.65,-1.13,0.90,0.44,
2.867,6.28,-0.05,-2.65,-1.13,0.89,0.40,
2.869,6.28,-0.05,-2.65,-1.14,0.88,0.36,
2.872,6.28,-0.05,-2.65,-1.16,0.86,0.30,
2.873,6.28,-0.05,-2.65,-1.16,0.86,0.27,
2.875,6.28,-0.05,-2.65,-1.17,0.85,0.23,
2.878,6.33,0.49,-3.12,-1.17,0.85,0.23,
2.878,6.33,0.49,-3.12,-1.18,0.85,0.18,
2.879,6.33,0.49,-3.12,-1.18,0.85,0.14,
2.882,6.33,0.49,-3.12,-1.18,0.85,0.09,
2.883,6.33,0.49,-3.12,-1.18,0.85,0.07,
2.898,6.33,0.49,-3.12,-1.17,0.85,0.04,
2.9,6.19,1.55,-2.67,-1.17,0.85,0.04,
2.901,6.19,1.55,-2.67,-1.16,0.84,0.01,
2.901,6.19,1.55,-2.67,-1.15,0.84,-0.02,
2.902,6.19,1.55,-2.67,-1.13,0.82,-0.05,
2.905,6.19,1.55,-2.67,-1.13,0.82,-0.06,
2.908,6.19,1.55,-2.67,-1.11,0.81,-0.07,
2.91,5.45,2.61,-2.12,-1.11,0.81,-0.07,
2.912,5.45,2.61,-2.12,-1.11,0.80,-0.08,
2.917,5.45,2.61,-2.12,-1.10,0.79,-0.08,
2.918,5.45,2.61,-2.12,-1.09,0.77,-0.07,
2.919,5.45,2.61,-2.12,-1.09,0.77,-0.06,
2.92,5.45,2.61,-2.12,-1.09,0.76,-0.04,
2.921,3.79,3.44,-2.35,-1.09,0.76,-0.04,
2.921,3.79,3.44,-2.35,-1.09,0.75,-0.02,
2.954,3.79,3.44,-2.35,-1.10,0.74,0.01,
2.954,3.79,3.44,-2.35,-1.11,0.73,0.06,
2.955,3.79,3.44,-2.35,-1.11,0.73,0.08,
2.955,3.79,3.44,-2.35,-1.12,0.73,0.13,
2.955,1.63,3.43,-2.81,-1.12,0.73,0.13,
2.956,1.63,3.43,-2.81,-1.13,0.72,0.17,
2.956,1.63,3.43,-2.81,-1.14,0.72,0.22,
2.957,1.63,3.43,-2.81,-1.16,0.71,0.28,
2.957,1.63,3.43,-2.81,-1.17,0.71,0.30,
2.957,1.63,3.43,-2.81,-1.19,0.72,0.33,
2.958,0.31,3.33,-3.32,-1.19,0.72,0.33,
2.958,0.31,3.33,-3.32,-1.21,0.73,0.35,
2.959,0.31,3.33,-3.32,-1.23,0.75,0.38,
2.959,0.31,3.33,-3.32,-1.26,0.78,0.40,
2.959,0.31,3.33,-3.32,-1.27,0.79,0.41,
2.96,0.31,3.33,-3.32,-1.29,0.81,0.42,
2.96,-0.49,2.97,-3.41,-1.29,0.81,0.42,
2.961,-0.49,2.97,-3.41,-1.31,0.83,0.44,
2.961,-0.49,2.97,-3.41,-1.33,0.86,0.46,
2.961,-0.49,2.97,-3.41,-1.37,0.89,0.48,
2.962,-0.49,2.97,-3.41,-1.39,0.90,0.49,
2.962,-0.49,2.97,-3.41,-1.41,0.92,0.51,
2.963,-2.11,2.36,-3.24,-1.41,0.92,0.51,
2.963,-2.11,2.36,-3.24,-1.44,0.93,0.53,
2.964,-2.11,2.36,-3.24,-1.48,0.93,0.55,
2.964,-2.11,2.36,-3.24,-1.53,0.93,0.57,
2.964,-2.11,2.36,-3.24,-1.55,0.92,0.58,
2.965,-2.11,2.36,-3.24,-1.58,0.91,0.59,
2.965,-2.87,1.42,-3.12,-1.58,0.91,0.59,
2.966,-2.87,1.42,-3.12,-1.63,0.88,0.59,
2.966,-2.87,1.42,-3.12,-1.68,0.85,0.60,
2.966,-2.87,1.42,-3.12,-1.75,0.80,0.59,
2.967,-2.87,1.42,-3.12,-1.78,0.78,0.59,
2.967,-2.87,1.42,-3.12,-1.84,0.72,0.58,
2.968,-2.68,0.60,-3.52,-1.84,0.72,0.58,
2.968,-2.68,0.60,-3.52,-1.91,0.67,0.57,
2.971,-2.68,0.60,-3.52,-1.98,0.64,0.56,
2.972,-2.68,0.60,-3.52,-2.08,0.63,0.53,
2.973,-2.68,0.60,-3.52,-2.12,0.64,0.52,
2.975,-2.68,0.60,-3.52,-2.19,0.67,0.49,
2.977,-1.79,-0.30,-3.45,-2.19,0.67,0.49,
2.977,-1.79,-0.30,-3.45,-2.27,0.73,0.47,
2.979,-1.79,-0.30,-3.45,-2.35,0.80,0.44,
2.982,-1.79,-0.30,-3.45,-2.46,0.96,0.39,
2.983,-1.79,-0.30,-3.45,-2.49,1.03,0.37,
2.987,-1.79,-0.30,-3.45,-2.55,1.18,0.34,
2.988,-0.28,-1.61,-2.61,-2.55,1.18,0.34,
2.989,-0.28,-1.61,-2.61,-2.61,1.36,0.29,
2.989,-0.28,-1.61,-2.61,-2.66,1.55,0.25,
2.992,-0.28,-1.61,-2.61,-2.74,1.84,0.17,
2.993,-0.28,-1.61,-2.61,-2.77,1.94,0.15,
2.995,-0.28,-1.61,-2.61,-2.84,2.13,0.10,
2.997,1.11,-2.38,-1.92,-2.84,2.13,0.10,
2.998,1.11,-2.38,-1.92,-2.91,2.30,0.05,
3.0,1.11,-2.38,-1.92,-2.98,2.47,0.00,
3.008,1.11,-2.38,-1.92,-3.09,2.71,-0.08,
3.01,1.11,-2.38,-1.92,-3.13,2.79,-0.10,
3.011,1.11,-2.38,-1.92,-3.19,2.94,-0.16,
3.011,1.67,-2.55,-2.29,-3.19,2.94,-0.16,
3.012,1.67,-2.55,-2.29,-3.26,3.07,-0.22,
3.013,1.67,-2.55,-2.29,-3.32,3.19,-0.28,
3.013,1.67,-2.55,-2.29,-3.43,3.35,-0.38,
3.013,1.67,-2.55,-2.29,-3.45,3.39,-0.42,
3.015,1.67,-2.55,-2.29,-3.41,3.42,-0.49,
3.021,1.71,-2.04,-0.24,-3.41,3.42,-0.49,
3.021,1.71,-2.04,-0.24,-3.27,3.36,-0.58,
3.021,1.71,-2.04,-0.24,-3.10,3.22,-0.68,
3.022,1.71,-2.04,-0.24,-2.97,3.02,-0.85,
3.025,1.71,-2.04,-0.24,-2.94,2.86,-1.03,
3.028,1.71,-2.04,-0.24,-2.94,2.86,-1.03,
3.029,1.97,-1.45,-0.31,-2.94,2.86,-1.03,
3.029,1.97,-1.45,-0.31,-2.94,2.74,-1.17,
3.029,1.97,-1.45,-0.31,-2.94,2.62,-1.30,
3.032,1.97,-1.45,-0.31,-2.94,2.44,-1.53,
3.057,1.97,-1.45,-0.31,-2.95,2.40,-1.61,
3.06,1.97,-1.45,-0.31,-2.95,2.35,-1.77,
3.06,0.64,-0.79,-3.05,-2.95,2.35,-1.77,
3.06,0.64,-0.79,-3.05,-2.95,2.32,-1.93,
3.061,0.64,-0.79,-3.05,-2.95,2.30,-2.09,
3.061,0.64,-0.79,-3.05,-2.91,2.26,-2.31,
3.062,0.64,-0.79,-3.05,-2.89,2.25,-2.38,
3.063,0.64,-0.79,-3.05,-2.84,2.20,-2.52,
3.063,-0.70,-1.24,-1.28,-2.84,2.20,-2.52,
3.064,-0.70,-1.24,-1.28,-2.76,2.15,-2.64,
3.064,-0.70,-1.24,-1.28,-2.67,2.08,-2.75,
3.065,-0.70,-1.24,-1.28,-2.52,1.98,-2.89,
3.065,-0.70,-1.24,-1.28,-2.46,1.95,-2.93,
3.066,-0.70,-1.24,-1.28,-2.36,1.89,-3.00,
3.067,-1.88,-1.68,1.34,-2.36,1.89,-3.00,
3.068,-1.88,-1.68,1.34,-2.26,1.85,-3.06,
3.069,-1.88,-1.68,1.34,-2.16,1.81,-3.10,
3.069,-1.88,-1.68,1.34,-2.02,1.75,-3.16,
3.07,-1.88,-1.68,1.34,-1.93,1.74,-3.18,
3.07,-1.88,-1.68,1.34,-1.88,1.74,-3.19,
3.073,-2.99,-1.32,1.66,-1.88,1.74,-3.19,
3.074,-2.99,-1.32,1.66,-1.79,1.75,-3.20,
3.075,-2.99,-1.32,1.66,-1.70,1.77,-3.21,
3.075,-2.99,-1.32,1.66,-1.61,1.78,-3.23,
3.076,-2.99,-1.32,1.66,-1.59,1.76,-3.23,
3.076,-2.99,-1.32,1.66,-1.57,1.73,-3.24,
3.115,-3.35,-0.83,-0.02,-1.57,1.73,-3.24,
3.116,-3.35,-0.83,-0.02,-1.55,1.70,-3.24,
3.116,-3.35,-0.83,-0.02,-1.55,1.69,-3.24,
3.117,-3.35,-0.83,-0.02,-1.58,1.63,-3.24,
3.121,-3.35,-0.83,-0.02,-1.59,1.60,-3.24,
3.123,-3.35,-0.83,-0.02,-1.63,1.55,-3.25,
3.124,-3.34,-0.80,-1.95,-1.63,1.55,-3.25,
3.125,-3.34,-0.80,-1.95,-1.67,1.49,-3.26,
3.127,-3.34,-0.80,-1.95,-1.70,1.44,-3.26,
3.128,-3.34,-0.80,-1.95,-1.77,1.38,-3.25,
3.13,-3.34,-0.80,-1.95,-1.82,1.37,-3.23,
3.131,-3.34,-0.80,-1.95,-1.84,1.36,-3.22,
3.131,-4.09,-0.57,-1.92,-1.84,1.36,-3.22,
3.132,-4.09,-0.57,-1.92,-1.88,1.35,-3.17,
3.132,-4.09,-0.57,-1.92,-1.91,1.36,-3.11,
3.133,-4.09,-0.57,-1.92,-1.94,1.38,-3.00,
3.133,-4.09,-0.57,-1.92,-1.95,1.39,-2.95,
3.133,-4.09,-0.57,-1.92,-1.96,1.42,-2.86,
3.134,-6.49,-0.22,-0.44,-1.96,1.42,-2.86,
3.134,-6.49,-0.22,-0.44,-1.96,1.45,-2.76,
3.135,-6.49,-0.22,-0.44,-1.95,1.48,-2.65,
3.135,-6.49,-0.22,-0.44,-1.92,1.54,-2.49,
3.135,-6.49,-0.22,-0.44,-1.90,1.56,-2.44,
3.136,-6.49,-0.22,-0.44,-1.87,1.61,-2.33,
3.136,-6.98,-0.68,0.90,-1.87,1.61,-2.33,
3.137,-6.98,-0.68,0.90,-1.82,1.66,-2.22,
3.137,-6.98,-0.68,0.90,-1.77,1.71,-2.11,
3.138,-6.98,-0.68,0.90,-1.68,1.79,-1.95,
3.138,-6.98,-0.68,0.90,-1.65,1.82,-1.90,
3.139,-6.98,-0.68,0.90,-1.58,1.88,-1.79,
3.139,-6.67,-0.83,1.89,-1.58,1.88,-1.79,
3.139,-6.67,-0.83,1.89,-1.50,1.93,-1.68,
3.14,-6.67,-0.83,1.89,-1.42,1.98,-1.58,
3.14,-6.67,-0.83,1.89,-1.29,2.06,-1.43,
3.14,-6.67,-0.83,1.89,-1.21,2.10,-1.34,
3.141,-6.67,-0.83,1.89,-1.16,2.12,-1.29,
3.141,-5.96,-0.93,2.41,-1.16,2.12,-1.29,
3.141,-5.96,-0.93,2.41,-1.07,2.16,-1.20,
3.142,-5.96,-0.93,2.41,-0.97,2.21,-1.12,
3.142,-5.96,-0.93,2.41,-0.82,2.28,-0.99,
3.147,-5.96,-0.93,2.41,-0.77,2.30,-0.96,
3.148,-5.96,-0.93,2.41,-0.67,2.36,-0.88,
3.148,-4.77,-0.88,2.67,-0.67,2.36,-0.88,
3.149,-4.77,-0.88,2.67,-0.56,2.42,-0.81,
3.149,-4.77,-0.88,2.67,-0.45,2.49,-0.75,
3.159,-4.77,-0.88,2.67,-0.21,2.64,-0.65,
3.16,-4.77,-0.88,2.67,-0.14,2.68,-0.63,
3.16,-4.77,-0.88,2.67,-0.08,2.72,-0.61,
3.16,-2.83,-1.09,2.92,-0.08,2.72,-0.61,
3.161,-2.83,-1.09,2.92,0.05,2.81,-0.58,
3.161,-2.83,-1.09,2.92,0.19,2.89,-0.54,
3.162,-2.83,-1.09,2.92,0.40,3.01,-0.48,
3.163,-2.83,-1.09,2.92,0.47,3.05,-0.46,
3.165,-2.83,-1.09,2.92,0.61,3.14,-0.43,
3.175,-1.40,-1.12,3.21,0.61,3.14,-0.43,
3.176,-1.40,-1.12,3.21,0.74,3.22,-0.40,
3.176,-1.40,-1.12,3.21,0.86,3.30,-0.39,
3.176,-1.40,-1.12,3.21,1.03,3.43,-0.37,
3.176,-1.40,-1.12,3.21,1.15,3.52,-0.37,
3.176,-1.40,-1.12,3.21,1.21,3.56,-0.38,
3.176,-0.13,-1.04,2.72,1.21,3.56,-0.38,
3.177,-0.13,-1.04,2.72,1.31,3.65,-0.40,
3.181,-0.13,-1.04,2.72,1.42,3.73,-0.42,
3.184,-0.13,-1.04,2.72,1.56,3.81,-0.48,
3.185,-0.13,-1.04,2.72,1.61,3.82,-0.50,
3.216,-0.13,-1.04,2.72,1.68,3.82,-0.55,
3.216,1.19,-1.12,2.20,1.68,3.82,-0.55,
3.216,1.19,-1.12,2.20,1.74,3.77,-0.61,
3.217,1.19,-1.12,2.20,1.78,3.69,-0.68,
3.217,1.19,-1.12,2.20,1.83,3.53,-0.80,
3.217,1.19,-1.12,2.20,1.84,3.48,-0.85,
3.217,1.19,-1.12,2.20,1.87,3.38,-0.94,
3.217,3.24,-1.48,0.97,1.87,3.38,-0.94,
3.217,3.24,-1.48,0.97,1.90,3.31,-1.03,
3.218,3.24,-1.48,0.97,1.95,3.25,-1.12,
3.218,3.24,-1.48,0.97,2.00,3.18,-1.25,
3.218,3.24,-1.48,0.97,2.04,3.14,-1.32,
3.218,3.24,-1.48,0.97,2.05,3.12,-1.35,
3.218,3.73,-2.05,1.26,2.05,3.12,-1.35,
3.219,3.73,-2.05,1.26,2.09,3.08,-1.42,
3.219,3.73,-2.05,1.26,2.12,3.04,-1.48,
3.219,3.73,-2.05,1.26,2.18,3.00,-1.55,
3.219,3.73,-2.05,1.26,2.20,3.00,-1.57,
3.219,3.73,-2.05,1.26,2.24,2.99,-1.60,
3.22,2.48,-2.39,1.97,2.24,2.99,-1.60,
3.22,2.48,-2.39,1.97,2.28,3.00,-1.63,
3.22,2.48,-2.39,1.97,2.33,3.02,-1.65,
3.228,2.48,-2.39,1.97,2.38,3.05,-1.66,
3.232,2.48,-2.39,1.97,2.41,3.07,-1.67,
3.233,2.48,-2.39,1.97,2.42,3.08,-1.67,
3.233,1.35,-2.54,2.33,2.42,3.08,-1.67,
3.234,1.35,-2.54,2.33,2.44,3.09,-1.67,
3.235,1.35,-2.54,2.33,2.46,3.07,-1.65,
3.236,1.35,-2.54,2.33,2.47,3.02,-1.61,
3.239,1.35,-2.54,2.33,2.47,3.01,-1.59,
3.239,1.35,-2.54,2.33,2.47,3.01,-1.58,
3.239,1.00,-2.14,2.53,2.47,3.01,-1.58,
3.24,1.00,-2.14,2.53,2.46,3.00,-1.56,
3.24,1.00,-2.14,2.53,2.45,3.00,-1.54,
3.246,1.00,-2.14,2.53,2.42,2.98,-1.52,
3.282,1.00,-2.14,2.53,2.41,2.98,-1.52,
3.283,1.00,-2.14,2.53,2.38,2.96,-1.51,
3.284,2.16,-2.52,2.40,2.38,2.96,-1.51,
3.284,2.16,-2.52,2.40,2.34,2.92,-1.51,
3.284,2.16,-2.52,2.40,2.30,2.85,-1.53,
3.285,2.16,-2.52,2.40,2.23,2.73,-1.57,
3.285,2.16,-2.52,2.40,2.20,2.69,-1.58,
3.286,2.16,-2.52,2.40,2.14,2.62,-1.61,
3.286,3.00,-3.32,2.21,2.14,2.62,-1.61,
3.286,3.00,-3.32,2.21,2.08,2.55,-1.65,
3.287,3.00,-3.32,2.21,2.01,2.50,-1.69,
3.287,3.00,-3.32,2.21,1.90,2.44,-1.75,
3.288,3.00,-3.32,2.21,1.82,2.39,-1.78,
3.288,3.00,-3.32,2.21,1.79,2.36,-1.81,
3.288,2.76,-3.00,1.59,1.79,2.36,-1.81,
3.289,2.76,-3.00,1.59,1.72,2.30,-1.85,
3.289,2.76,-3.00,1.59,1.65,2.26,-1.88,
3.29,2.76,-3.00,1.59,1.54,2.19,-1.94,
3.29,2.76,-3.00,1.59,1.48,2.16,-1.96,
3.29,2.76,-3.00,1.59,1.45,2.14,-1.97,
3.291,1.96,-1.49,1.66,1.45,2.14,-1.97,
3.291,1.96,-1.49,1.66,1.39,2.11,-1.99,
3.292,1.96,-1.49,1.66,1.34,2.06,-2.00,
3.292,1.96,-1.49,1.66,1.25,2.01,-2.00,
3.292,1.96,-1.49,1.66,1.20,1.99,-2.00,
3.293,1.96,-1.49,1.66,1.17,1.98,-1.99,
3.293,0.92,0.78,1.59,1.17,1.98,-1.99,
3.294,0.92,0.78,1.59,1.10,1.97,-1.99,
3.294,0.92,0.78,1.59,1.02,1.96,-1.97,
3.295,0.92,0.78,1.59,0.87,1.96,-1.94,
3.295,0.92,0.78,1.59,0.75,1.97,-1.91,
3.295,0.92,0.78,1.59,0.68,1.98,-1.89,
3.299,-0.31,2.66,-1.00,0.68,1.98,-1.89,
3.3,-0.31,2.66,-1.00,0.54,2.00,-1.86,
3.3,-0.31,2.66,-1.00,0.38,1.99,-1.82,
3.321,-0.31,2.66,-1.00,0.12,1.96,-1.78,
3.321,-0.31,2.66,-1.00,-0.07,1.92,-1.74,
3.322,-0.31,2.66,-1.00,-0.16,1.90,-1.73,
3.322,-0.76,4.08,-4.02,-0.16,1.90,-1.73,
3.322,-0.76,4.08,-4.02,-0.36,1.86,-1.70,
3.322,-0.76,4.08,-4.02,-0.55,1.83,-1.67,
3.322,-0.76,4.08,-4.02,-0.83,1.76,-1.63,
3.323,-0.76,4.08,-4.02,-1.01,1.69,-1.62,
3.323,-0.76,4.08,-4.02,-1.10,1.65,-1.61,
3.323,-0.28,4.57,-4.45,-1.10,1.65,-1.61,
3.323,-0.28,4.57,-4.45,-1.26,1.56,-1.58,
3.323,-0.28,4.57,-4.45,-1.42,1.46,-1.57,
3.324,-0.28,4.57,-4.45,-1.63,1.27,-1.54,
3.324,-0.28,4.57,-4.45,-1.75,1.10,-1.53,
3.345,-0.28,4.57,-4.45,-1.80,1.01,-1.52,
3.345,0.28,4.49,-2.71,-1.80,1.01,-1.52,
3.346,0.28,4.49,-2.71,-1.90,0.81,-1.49,
3.346,0.28,4.49,-2.71,-1.99,0.59,-1.47,
3.346,0.28,4.49,-2.71,-2.09,0.24,-1.42,
3.346,0.28,4.49,-2.71,-2.12,-0.02,-1.37,
3.346,0.28,4.49,-2.71,-2.14,-0.16,-1.35,
3.347,0.41,4.08,-0.84,-2.14,-0.16,-1.35,
3.347,0.41,4.08,-0.84,-2.14,-0.45,-1.29,
3.347,0.41,4.08,-0.84,-2.13,-0.74,-1.23,
3.347,0.41,4.08,-0.84,-2.09,-1.18,-1.12,
3.347,0.41,4.08,-0.84,-2.05,-1.47,-1.06,
3.348,0.41,4.08,-0.84,-2.03,-1.59,-1.03,
3.348,0.29,3.66,-0.01,-2.03,-1.59,-1.03,
3.348,0.29,3.66,-0.01,-1.97,-1.82,-0.97,
3.35,0.29,3.66,-0.01,-1.91,-2.00,-0.92,
3.352,0.29,3.66,-0.01,-1.82,-2.18,-0.88,
3.353,0.29,3.66,-0.01,-1.75,-2.22,-0.88,
3.355,0.29,3.66,-0.01,-1.72,-2.21,-0.89,
3.357,1.77,2.95,0.01,-1.72,-2.21,-0.89,
3.358,1.77,2.95,0.01,-1.65,-2.15,-0.94,
3.359,1.77,2.95,0.01,-1.39,-1.91,-0.99,
3.362,1.77,2.95,0.01,0.92,1.07,-0.24,
3.363,1.77,2.95,0.01,1.14,1.85,-0.23,
3.374,1.77,2.95,0.01,0.99,1.89,-0.32,
3.376,-0.99,-4.90,8.83,0.99,1.89,-0.32,
3.376,-0.99,-4.90,8.83,0.79,1.99,-0.42,
3.377,-0.99,-4.90,8.83,0.64,2.04,-0.51,
3.377,-0.99,-4.90,8.83,0.37,1.98,-0.67,
3.378,-0.99,-4.90,8.83,0.21,1.88,-0.77,
3.379,-0.99,-4.90,8.83,0.13,1.83,-0.82,
3.38,3.54,0.70,-2.28,0.13,1.83,-0.82,
3.38,3.54,0.70,-2.28,-0.02,1.71,-0.92,
3.381,3.54,0.70,-2.28,-0.18,1.58,-1.02,
3.405,3.54,0.70,-2.28,-0.37,1.37,-1.17,
3.407,3.54,0.70,-2.28,-0.48,1.22,-1.27,
3.407,3.54,0.70,-2.28,-0.53,1.13,-1.31,
3.407,3.76,1.50,-1.38,-0.53,1.13,-1.31,
3.407,3.76,1.50,-1.38,-0.62,0.97,-1.41,
3.408,3.76,1.50,-1.38,-0.69,0.80,-1.51,
3.408,3.76,1.50,-1.38,0.19,2.24,-1.49,
3.408,3.76,1.50,-1.38,0.51,2.79,-1.52,
3.409,3.76,1.50,-1.38,0.43,2.61,-1.57,
3.409,2.43,-0.65,7.38,0.43,2.61,-1.57,
3.409,2.43,-0.65,7.38,0.29,2.24,-1.67,
3.41,2.43,-0.65,7.38,0.22,1.96,-1.76,
3.41,2.43,-0.65,7.38,0.08,1.57,-1.90,
3.41,2.43,-0.65,7.38,-0.01,1.34,-1.99,
3.41,2.43,-0.65,7.38,-0.05,1.23,-2.04,
3.411,3.11,1.12,0.35,-0.05,1.23,-2.04,
3.411,3.11,1.12,0.35,-0.10,1.04,-2.12,
3.43,3.11,1.12,0.35,0.27,1.64,-2.19,
3.43,3.11,1.12,0.35,0.66,2.14,-2.27,
3.43,3.11,1.12,0.35,0.54,1.79,-2.34,
3.431,3.11,1.12,0.35,0.51,1.64,-2.37,
3.431,3.03,0.81,2.59,0.51,1.64,-2.37,
3.431,3.03,0.81,2.59,0.44,1.40,-2.42,
3.431,3.03,0.81,2.59,0.51,1.35,-2.47,
3.431,3.03,0.81,2.59,0.81,1.74,-2.51,
3.432,3.03,0.81,2.59,0.72,1.45,-2.55,
3.432,3.03,0.81,2.59,0.68,1.33,-2.56,
3.432,2.48,0.92,2.74,0.68,1.33,-2.56,
3.432,2.48,0.92,2.74,0.77,1.43,-2.56,
3.433,2.48,0.92,2.74,0.85,1.54,-2.56,
3.441,2.48,0.92,2.74,0.79,1.39,-2.55,
3.442,2.48,0.92,2.74,0.84,1.49,-2.52,
3.442,2.48,0.92,2.74,0.82,1.44,-2.51,
3.442,1.27,0.93,2.81,0.82,1.44,-2.51,
3.442,1.27,0.93,2.81,0.82,1.43,-2.48,
3.443,1.27,0.93,2.81,0.82,1.44,-2.45,
3.444,1.27,0.93,2.81,0.82,1.45,-2.39,
3.444,1.27,0.93,2.81,0.81,1.43,-2.35,
3.444,1.27,0.93,2.81,0.82,1.44,-2.33,
3.455,0.42,1.06,3.08,0.82,1.44,-2.33,
3.456,0.42,1.06,3.08,0.82,1.43,-2.29,
3.456,0.42,1.06,3.08,0.83,1.44,-2.25,
3.456,0.42,1.06,3.08,0.83,1.44,-2.19,
3.457,0.42,1.06,3.08,0.85,1.43,-2.16,
3.457,0.42,1.06,3.08,0.86,1.43,-2.12,
3.457,0.29,1.46,2.88,0.86,1.43,-2.12,
3.458,0.29,1.46,2.88,0.88,1.42,-2.09,
3.459,0.29,1.46,2.88,0.90,1.42,-2.06,
3.462,0.29,1.46,2.88,0.92,1.40,-2.03,
3.47,0.29,1.46,2.88,0.94,1.40,-2.00,
3.471,0.29,1.46,2.88,0.97,1.38,-1.98,
3.471,0.58,1.91,2.97,0.97,1.38,-1.98,
3.471,0.58,1.91,2.97,1.00,1.36,-1.96,
3.471,0.58,1.91,2.97,1.03,1.35,-1.94,
3.472,0.58,1.91,2.97,1.06,1.33,-1.91,
3.473,0.58,1.91,2.97,1.09,1.32,-1.89,
3.475,0.58,1.91,2.97,1.12,1.30,-1.87,
3.477,0.75,2.27,2.77,1.12,1.30,-1.87,
3.478,0.75,2.27,2.77,1.14,1.30,-1.83,
3.479,0.75,2.27,2.77,1.16,1.31,-1.80,
3.485,0.75,2.27,2.77,1.17,1.33,-1.76,
3.485,0.75,2.27,2.77,1.18,1.36,-1.72,
3.485,0.75,2.27,2.77,1.18,1.39,-1.67,
3.487,0.48,2.55,2.40,1.18,1.39,-1.67,
3.487,0.48,2.55,2.40,1.19,1.42,-1.62,
3.489,0.48,2.55,2.40,1.19,1.46,-1.57,
3.492,0.48,2.55,2.40,1.19,1.52,-1.49,
3.493,0.48,2.55,2.40,1.19,1.54,-1.46,
3.497,0.48,2.55,2.40,1.19,1.57,-1.41,
3.501,0.25,2.76,2.18,1.19,1.57,-1.41,
3.501,0.25,2.76,2.18,1.19,1.61,-1.36,
3.502,0.25,2.76,2.18,1.19,1.64,-1.31,
3.504,0.25,2.76,2.18,1.19,1.68,-1.24,
3.504,0.25,2.76,2.18,1.20,1.68,-1.22,
3.505,0.25,2.76,2.18,1.20,1.70,-1.18,
3.509,0.21,2.70,2.26,1.20,1.70,-1.18,
3.509,0.21,2.70,2.26,1.21,1.73,-1.15,
3.509,0.21,2.70,2.26,1.22,1.75,-1.11,
3.512,0.21,2.70,2.26,1.23,1.78,-1.06,
3.513,0.21,2.70,2.26,1.24,1.79,-1.04,
3.518,0.21,2.70,2.26,1.25,1.82,-1.00,
3.52,0.06,2.42,2.03,1.25,1.82,-1.00,
3.521,0.06,2.42,2.03,1.25,1.84,-0.97,
3.521,0.06,2.42,2.03,1.26,1.87,-0.94,
3.522,0.06,2.42,2.03,1.27,1.90,-0.91,
3.524,0.06,2.42,2.03,1.28,1.93,-0.88,
3.528,0.06,2.42,2.03,1.30,2.00,-0.82,
3.529,0.06,2.42,2.03,1.30,2.00,-0.82,
3.536,-0.25,1.78,1.49,1.30,2.00,-0.82,
3.537,-0.25,1.78,1.49,1.31,2.04,-0.80,
3.537,-0.25,1.78,1.49,1.32,2.08,-0.77,
3.537,-0.25,1.78,1.49,1.33,2.12,-0.74,
3.537,-0.25,1.78,1.49,1.35,2.17,-0.71,
3.537,-0.53,1.46,1.01,1.35,2.17,-0.71,
3.537,-0.53,1.46,1.01,1.37,2.23,-0.67,
3.539,-0.53,1.46,1.01,1.39,2.29,-0.62,
3.542,-0.53,1.46,1.01,1.43,2.40,-0.53,
3.543,-0.53,1.46,1.01,1.45,2.44,-0.50,
3.545,-0.53,1.46,1.01,1.48,2.51,-0.43,
3.554,-1.45,1.61,0.45,1.48,2.51,-0.43,
3.555,-1.45,1.61,0.45,1.50,2.58,-0.35,
3.555,-1.45,1.61,0.45,1.52,2.64,-0.27,
3.555,-1.45,1.61,0.45,1.54,2.70,-0.20,
3.555,-1.45,1.61,0.45,1.55,2.77,-0.14,
3.556,-1.45,1.61,0.45,1.56,2.84,-0.10,
3.556,-1.25,1.88,0.03,1.56,2.84,-0.10,
3.557,-1.25,1.88,0.03,1.57,2.91,-0.08,
3.559,-1.25,1.88,0.03,1.58,2.98,-0.08,
3.562,-1.25,1.88,0.03,1.60,3.09,-0.11,
3.563,-1.25,1.88,0.03,1.60,3.12,-0.13,
3.568,-1.25,1.88,0.03,1.62,3.18,-0.18,
3.569,0.11,2.20,-0.30,1.62,3.18,-0.18,
3.569,0.11,2.20,-0.30,1.64,3.24,-0.24,
3.569,0.11,2.20,-0.30,1.66,3.29,-0.31,
3.572,0.11,2.20,-0.30,2.05,3.22,-0.45,
3.573,0.11,2.20,-0.30,2.23,3.10,-0.50,
3.575,0.11,2.20,-0.30,2.20,2.95,-0.63,
3.595,1.32,1.11,0.10,2.20,2.95,-0.63,
3.595,1.32,1.11,0.10,1.91,2.76,-0.75,
3.596,1.32,1.11,0.10,1.83,2.43,-0.87,
3.596,1.32,1.11,0.10,1.71,2.19,-0.97,
3.596,1.32,1.11,0.10,1.55,1.97,-1.07,
3.596,1.32,1.11,0.10,1.47,1.81,-1.15,
3.597,-0.28,-1.55,-3.88,1.47,1.81,-1.15,
3.597,-0.28,-1.55,-3.88,1.58,2.16,-1.19,
3.597,-0.28,-1.55,-3.88,1.51,2.70,-1.23,
3.597,-0.28,-1.55,-3.88,1.31,3.03,-1.28,
3.598,-0.28,-1.55,-3.88,1.21,3.30,-1.31,
3.598,-0.28,-1.55,-3.88,1.28,3.40,-1.33,
3.598,-3.40,-6.62,-2.31,1.28,3.40,-1.33,
3.599,-3.40,-6.62,-2.31,1.21,3.17,-1.38,
3.607,-3.40,-6.62,-2.31,1.06,2.81,-1.42,
3.608,-3.40,-6.62,-2.31,0.91,2.52,-1.46,
3.608,-3.40,-6.62,-2.31,0.90,2.41,-1.49,
3.608,-3.40,-6.62,-2.31,0.90,2.76,-1.49,
3.608,-4.38,-10.98,-4.36,0.90,2.76,-1.49,
3.609,-4.38,-10.98,-4.36,0.82,3.07,-1.51,
3.609,-4.38,-10.98,-4.36,0.82,3.13,-1.53,
3.612,-4.38,-10.98,-4.36,0.74,2.63,-1.60,
3.613,-4.38,-10.98,-4.36,0.70,2.48,-1.62,
3.621,-4.38,-10.98,-4.36,0.70,2.34,-1.65,
3.622,-2.78,-13.36,-2.41,0.70,2.34,-1.65,
3.622,-2.78,-13.36,-2.41,0.71,2.56,-1.68,
3.622,-2.78,-13.36,-2.41,0.71,2.71,-1.71,
3.622,-2.78,-13.36,-2.41,0.71,2.54,-1.77,
3.623,-2.78,-13.36,-2.41,0.70,2.29,-1.83,
3.625,-2.78,-13.36,-2.41,0.73,2.21,-1.90,
3.627,0.11,-12.55,-0.98,0.73,2.21,-1.90,
3.634,0.11,-12.55,-0.98,0.77,2.33,-1.96,
3.636,0.11,-12.55,-0.98,0.81,2.36,-2.02,
3.636,0.11,-12.55,-0.98,0.84,2.21,-2.09,
3.636,0.11,-12.55,-0.98,0.89,2.11,-2.14,
3.636,0.11,-12.55,-0.98,0.94,2.21,-2.17,
3.637,1.07,-8.76,0.02,0.94,2.21,-2.17,
3.638,1.07,-8.76,0.02,1.00,2.26,-2.18,
3.639,1.07,-8.76,0.02,1.04,2.22,-2.19,
3.642,1.07,-8.76,0.02,1.11,2.21,-2.19,
3.643,1.07,-8.76,0.02,1.17,2.33,-2.19,
3.645,1.07,-8.76,0.02,1.24,2.37,-2.19,
3.651,0.39,-4.84,0.68,1.24,2.37,-2.19,
3.651,0.39,-4.84,0.68,1.30,2.39,-2.20,
3.652,0.39,-4.84,0.68,1.36,2.52,-2.20,
3.653,0.39,-4.84,0.68,1.26,4.08,-2.13,
3.653,0.39,-4.84,0.68,1.05,5.21,-2.08,
3.655,0.39,-4.84,0.68,0.68,4.89,-2.06,
3.657,0.45,-2.75,0.59,0.68,4.89,-2.06,
3.657,0.45,-2.75,0.59,0.87,4.40,-2.04,
3.658,0.45,-2.75,0.59,1.02,4.77,-2.02,
3.662,0.45,-2.75,0.59,1.17,5.27,-1.98,
3.663,0.45,-2.75,0.59,1.23,5.21,-1.97,
3.665,0.45,-2.75,0.59,1.28,5.24,-1.95,
3.668,0.33,-1.43,0.59,1.28,5.24,-1.95,
3.668,0.33,-1.43,0.59,1.36,5.39,-1.92,
3.669,0.33,-1.43,0.59,1.37,5.46,-1.90,
3.672,0.33,-1.43,0.59,1.43,5.54,-1.87,
3.673,0.33,-1.43,0.59,1.44,5.59,-1.87,
3.675,0.33,-1.43,0.59,1.48,5.66,-1.85,
3.676,0.27,-0.41,-0.28,1.48,5.66,-1.85,
3.677,0.27,-0.41,-0.28,1.47,5.74,-1.84,
3.679,0.27,-0.41,-0.28,1.47,5.79,-1.83,
3.683,0.27,-0.41,-0.28,1.44,5.90,-1.82,
3.683,0.27,-0.41,-0.28,1.44,5.93,-1.81,
3.685,0.27,-0.41,-0.28,1.41,5.98,-1.81,
3.687,0.69,0.19,-1.73,1.41,5.98,-1.81,
3.688,0.69,0.19,-1.73,1.35,6.04,-1.80,
3.689,0.69,0.19,-1.73,1.31,6.08,-1.80,
3.692,0.69,0.19,-1.73,1.21,6.14,-1.80,
3.693,0.69,0.19,-1.73,1.18,6.16,-1.80,
3.695,0.69,0.19,-1.73,1.08,6.20,-1.80,
3.707,1.38,0.26,-2.98,1.08,6.20,-1.80,
3.708,1.38,0.26,-2.98,1.01,6.21,-1.81,
3.709,1.38,0.26,-2.98,0.92,6.24,-1.81,
3.709,1.38,0.26,-2.98,0.79,6.22,-1.82,
3.71,1.38,0.26,-2.98,0.74,6.22,-1.82,
3.711,1.38,0.26,-2.98,0.65,6.19,-1.83,
3.711,2.18,-0.04,-3.88,0.65,6.19,-1.83,
3.711,2.18,-0.04,-3.88,0.54,6.16,-1.83,
3.711,2.18,-0.04,-3.88,0.45,6.10,-1.83,
3.712,2.18,-0.04,-3.88,0.30,6.00,-1.83,
3.729,2.18,-0.04,-3.88,0.25,5.95,-1.83,
3.73,2.18,-0.04,-3.88,0.16,5.85,-1.83,
3.73,2.75,-0.45,-3.98,0.16,5.85,-1.83,
3.731,2.75,-0.45,-3.98,0.07,5.75,-1.83,
3.731,2.75,-0.45,-3.98,-0.01,5.62,-1.83,
3.731,2.75,-0.45,-3.98,-0.14,5.41,-1.82,
3.732,2.75,-0.45,-3.98,-0.18,5.34,-1.81,
3.732,2.75,-0.45,-3.98,-0.26,5.19,-1.80,
3.733,3.10,-0.81,-3.29,-0.26,5.19,-1.80,
3.733,3.10,-0.81,-3.29,-0.31,5.01,-1.78,
3.734,3.10,-0.81,-3.29,-0.38,4.84,-1.76,
3.734,3.10,-0.81,-3.29,-0.45,4.55,-1.72,
3.735,3.10,-0.81,-3.29,-0.48,4.45,-1.71,
3.735,3.10,-0.81,-3.29,-0.51,4.24,-1.68,
3.737,3.12,-0.91,-2.08,-0.51,4.24,-1.68,
3.737,3.12,-0.91,-2.08,-0.55,4.02,-1.65,
3.739,3.12,-0.91,-2.08,-0.57,3.79,-1.61,
3.742,3.12,-0.91,-2.08,-0.60,3.45,-1.55,
3.773,3.12,-0.91,-2.08,-0.61,3.33,-1.53,
3.774,3.12,-0.91,-2.08,-0.61,3.08,-1.48,
3.774,3.02,-0.81,-0.91,-0.61,3.08,-1.48,
3.775,3.02,-0.81,-0.91,-0.62,2.83,-1.44,
3.775,3.02,-0.81,-0.91,-0.62,2.57,-1.38,
3.776,3.02,-0.81,-0.91,-0.62,2.20,-1.30,
3.776,3.02,-0.81,-0.91,-0.62,2.07,-1.27,
3.776,3.02,-0.81,-0.91,-0.62,1.82,-1.22,
3.777,2.60,-0.58,0.16,-0.62,1.82,-1.22,
3.777,2.60,-0.58,0.16,-0.61,1.57,-1.16,
3.778,2.60,-0.58,0.16,-0.61,1.33,-1.10,
3.778,2.60,-0.58,0.16,-0.58,0.97,-1.01,
3.779,2.60,-0.58,0.16,-0.58,0.86,-0.98,
3.779,2.60,-0.58,0.16,-0.56,0.63,-0.91,
3.779,2.03,0.02,1.03,-0.56,0.63,-0.91,
3.78,2.03,0.02,1.03,-0.54,0.41,-0.85,
3.78,2.03,0.02,1.03,-0.52,0.20,-0.79,
3.781,2.03,0.02,1.03,-0.48,-0.09,-0.69,
3.781,2.03,0.02,1.03,-0.47,-0.19,-0.66,
3.781,2.03,0.02,1.03,-0.44,-0.38,-0.61,
3.782,1.81,0.27,1.62,-0.44,-0.38,-0.61,
3.782,1.81,0.27,1.62,-0.41,-0.55,-0.55,
3.783,1.81,0.27,1.62,-0.37,-0.72,-0.50,
3.783,1.81,0.27,1.62,-0.32,-0.96,-0.42,
3.783,1.81,0.27,1.62,-0.29,-1.04,-0.40,
3.786,1.81,0.27,1.62,-0.26,-1.17,-0.35,
3.786,2.04,0.23,2.26,-0.26,-1.17,-0.35,
3.787,2.04,0.23,2.26,-0.21,-1.32,-0.30,
3.792,2.04,0.23,2.26,-0.17,-1.44,-0.25,
3.793,2.04,0.23,2.26,-0.09,-1.63,-0.18,
3.793,2.04,0.23,2.26,-0.07,-1.68,-0.16,
3.795,2.04,0.23,2.26,-0.02,-1.79,-0.11,
3.806,2.00,-0.10,2.57,-0.02,-1.79,-0.11,
3.806,2.00,-0.10,2.57,0.03,-1.89,-0.07,
3.807,2.00,-0.10,2.57,0.08,-1.98,-0.04,
3.807,2.00,-0.10,2.57,0.15,-2.11,0.02,
3.807,2.00,-0.10,2.57,0.18,-2.15,0.03,
3.807,2.00,-0.10,2.57,0.23,-2.22,0.06,
3.807,2.17,-0.52,2.63,0.23,-2.22,0.06,
3.808,2.17,-0.52,2.63,0.27,-2.28,0.09,
3.809,2.17,-0.52,2.63,0.32,-2.34,0.12,
3.824,2.17,-0.52,2.63,0.38,-2.40,0.15,
3.825,2.17,-0.52,2.63,0.40,-2.42,0.16,
3.825,2.17,-0.52,2.63,0.44,-2.44,0.18,
3.825,2.00,-0.84,2.26,0.44,-2.44,0.18,
3.826,2.00,-0.84,2.26,0.48,-2.46,0.21,
3.826,2.00,-0.84,2.26,0.51,-2.47,0.23,
3.826,2.00,-0.84,2.26,0.55,-2.47,0.25,
3.827,2.00,-0.84,2.26,0.56,-2.46,0.26,
3.827,2.00,-0.84,2.26,0.58,-2.45,0.28,
3.828,1.68,-0.98,1.64,0.58,-2.45,0.28,
3.848,1.68,-0.98,1.64,0.60,-2.42,0.29,
3.848,1.68,-0.98,1.64,0.61,-2.39,0.31,
3.848,1.68,-0.98,1.64,0.62,-2.33,0.33,
3.849,1.68,-0.98,1.64,0.63,-2.31,0.34,
3.849,1.68,-0.98,1.64,0.62,-2.26,0.35,
3.849,1.00,-0.83,0.69,0.62,-2.26,0.35,
3.849,1.00,-0.83,0.69,0.62,-2.20,0.37,
3.849,1.00,-0.83,0.69,0.61,-2.13,0.38,
3.85,1.00,-0.83,0.69,0.58,-2.03,0.41,
3.85,1.00,-0.83,0.69,0.57,-1.99,0.42,
3.85,1.00,-0.83,0.69,0.54,-1.89,0.45,
3.85,-0.03,-0.40,-0.52,0.54,-1.89,0.45,
3.85,-0.03,-0.40,-0.52,0.51,-1.79,0.47,
3.851,-0.03,-0.40,-0.52,0.47,-1.69,0.50,
3.855,-0.03,-0.40,-0.52,0.42,-1.54,0.53,
3.856,-0.03,-0.40,-0.52,0.40,-1.48,0.54,
3.856,-0.03,-0.40,-0.52,0.36,-1.38,0.56,
3.857,-0.87,0.31,-1.31,0.36,-1.38,0.56,
3.857,-0.87,0.31,-1.31,0.33,-1.28,0.58,
3.859,-0.87,0.31,-1.31,0.29,-1.19,0.59,
3.869,-0.87,0.31,-1.31,0.24,-1.07,0.61,
3.869,-0.87,0.31,-1.31,0.23,-1.03,0.61,
3.869,-0.87,0.31,-1.31,0.21,-0.96,0.62,
3.869,-1.07,1.15,-1.03,0.21,-0.96,0.62,
3.87,-1.07,1.15,-1.03,0.19,-0.91,0.62,
3.87,-1.07,1.15,-1.03,0.18,-0.86,0.62,
3.872,-1.07,1.15,-1.03,0.16,-0.80,0.61,
3.873,-1.07,1.15,-1.03,0.15,-0.79,0.61,
3.875,-1.07,1.15,-1.03,0.14,-0.75,0.61,
3.877,-0.98,1.81,-0.26,0.14,-0.75,0.61,
3.878,-0.98,1.81,-0.26,0.14,-0.73,0.61,
3.888,-0.98,1.81,-0.26,0.14,-0.71,0.60,
3.889,-0.98,1.81,-0.26,0.13,-0.69,0.59,
3.89,-0.98,1.81,-0.26,0.13,-0.69,0.59,
3.89,-0.98,1.81,-0.26,0.13,-0.68,0.59,
3.891,-1.01,2.39,0.17,0.13,-0.68,0.59,
3.891,-1.01,2.39,0.17,0.13,-0.67,0.58,
3.891,-1.01,2.39,0.17,0.13,-0.67,0.57,
3.892,-1.01,2.39,0.17,0.14,-0.67,0.56,
3.893,-1.01,2.39,0.17,0.14,-0.68,0.55,
3.895,-1.01,2.39,0.17,0.14,-0.68,0.54,
3.897,-1.01,2.72,0.30,0.14,-0.68,0.54,
3.898,-1.01,2.72,0.30,0.14,-0.69,0.53,
3.9,-1.01,2.72,0.30,0.14,-0.70,0.52,
3.902,-1.01,2.72,0.30,0.15,-0.72,0.50,
3.903,-1.01,2.72,0.30,0.15,-0.73,0.49,
3.906,-1.01,2.72,0.30,0.16,-0.74,0.48,
3.907,-1.03,2.78,0.47,0.16,-0.74,0.48,
3.907,-1.03,2.78,0.47,0.16,-0.77,0.46,
3.94,-1.03,2.78,0.47,0.17,-0.79,0.45,
3.94,-1.03,2.78,0.47,0.18,-0.84,0.43,
3.941,-1.03,2.78,0.47,0.19,-0.86,0.43,
3.941,-1.03,2.78,0.47,0.20,-0.90,0.42,
3.942,-1.23,2.51,0.76,0.20,-0.90,0.42,
3.942,-1.23,2.51,0.76,0.21,-0.94,0.41,
3.943,-1.23,2.51,0.76,0.23,-0.99,0.40,
3.943,-1.23,2.51,0.76,0.26,-1.07,0.38,
3.944,-1.23,2.51,0.76,0.27,-1.10,0.38,
3.944,-1.23,2.51,0.76,0.30,-1.15,0.37,
3.945,-1.45,1.87,1.29,0.30,-1.15,0.37,
3.945,-1.45,1.87,1.29,0.32,-1.22,0.36,
3.946,-1.45,1.87,1.29,0.34,-1.27,0.35,
3.946,-1.45,1.87,1.29,0.38,-1.37,0.34,
3.947,-1.45,1.87,1.29,0.40,-1.40,0.33,
3.948,-1.45,1.87,1.29,0.42,-1.46,0.32,
3.948,-1.44,1.03,1.57,0.42,-1.46,0.32,
3.949,-1.44,1.03,1.57,0.45,-1.53,0.31,
3.949,-1.44,1.03,1.57,0.47,-1.58,0.31,
3.949,-1.44,1.03,1.57,0.51,-1.67,0.29,
3.95,-1.44,1.03,1.57,0.52,-1.70,0.29,
3.951,-1.44,1.03,1.57,0.55,-1.75,0.28,
3.951,-1.54,0.16,1.65,0.55,-1.75,0.28,
3.951,-1.54,0.16,1.65,0.57,-1.81,0.28,
3.953,-1.54,0.16,1.65,0.59,-1.86,0.28,
3.953,-1.54,0.16,1.65,0.62,-1.92,0.27,
3.954,-1.54,0.16,1.65,0.63,-1.95,0.27,
3.958,-1.54,0.16,1.65,0.65,-1.99,0.27,
3.959,-1.66,-0.78,1.50,0.65,-1.99,0.27,
3.96,-1.66,-0.78,1.50,0.66,-2.04,0.26,
3.96,-1.66,-0.78,1.50,0.68,-2.07,0.26,
3.963,-1.66,-0.78,1.50,0.70,-2.13,0.26,
3.964,-1.66,-0.78,1.50,0.70,-2.15,0.26,
3.966,-1.66,-0.78,1.50,0.71,-2.17,0.26,
3.972,-1.75,-1.93,1.39,0.71,-2.17,0.26,
3.972,-1.75,-1.93,1.39,0.72,-2.20,0.26,
3.973,-1.75,-1.93,1.39,0.73,-2.23,0.25,
3.973,-1.75,-1.93,1.39,0.75,-2.26,0.26,
3.973,-1.75,-1.93,1.39,0.75,-2.27,0.26,
3.975,-1.75,-1.93,1.39,0.75,-2.28,0.26,
3.977,-1.83,-2.92,1.23,0.75,-2.28,0.26,
3.978,-1.83,-2.92,1.23,0.76,-2.30,0.26,
3.999,-1.83,-2.92,1.23,0.77,-2.31,0.27,
4.0,-1.83,-2.92,1.23,0.77,-2.31,0.29,
4.0,-1.83,-2.92,1.23,0.77,-2.32,0.29,
4.001,-1.83,-2.92,1.23,0.76,-2.32,0.31,
4.001,-2.21,-3.59,1.14,0.76,-2.32,0.31,
4.001,-2.21,-3.59,1.14,0.76,-2.32,0.32,
4.001,-2.21,-3.59,1.14,0.75,-2.32,0.34,
4.002,-2.21,-3.59,1.14,0.74,-2.30,0.38,
4.002,-2.21,-3.59,1.14,0.73,-2.29,0.39,
4.002,-2.21,-3.59,1.14,0.71,-2.26,0.43,
4.003,-2.72,-3.83,1.01,0.71,-2.26,0.43,
4.003,-2.72,-3.83,1.01,0.70,-2.23,0.46,
4.003,-2.72,-3.83,1.01,0.68,-2.19,0.49,
4.004,-2.72,-3.83,1.01,0.65,-2.09,0.56,
4.004,-2.72,-3.83,1.01,0.64,-2.04,0.58,
4.007,-2.72,-3.83,1.01,0.63,-1.95,0.63,
4.008,-3.51,-3.64,1.30,0.63,-1.95,0.63,
4.008,-3.51,-3.64,1.30,0.61,-1.85,0.68,
4.012,-3.51,-3.64,1.30,0.60,-1.74,0.73,
4.013,-3.51,-3.64,1.30,0.58,-1.58,0.80,
4.013,-3.51,-3.64,1.30,0.57,-1.52,0.82,
4.025,-3.51,-3.64,1.30,0.56,-1.41,0.87,
4.028,-3.63,-3.25,1.79,0.56,-1.41,0.87,
4.031,-3.63,-3.25,1.79,0.55,-1.29,0.91,
4.034,-3.63,-3.25,1.79,0.55,-1.18,0.96,
4.036,-3.63,-3.25,1.79,0.56,-0.99,1.02,
4.037,-3.63,-3.25,1.79,0.56,-0.82,1.08,
4.038,-3.63,-3.25,1.79,0.56,-0.82,1.08,
4.039,-3.63,-2.58,2.58,0.56,-0.82,1.08,
4.039,-3.63,-2.58,2.58,0.57,-0.70,1.12,
4.04,-3.63,-2.58,2.58,0.58,-0.58,1.15,
4.041,-3.63,-2.58,2.58,0.58,-0.41,1.19,
4.043,-3.63,-2.58,2.58,0.59,-0.36,1.20,
4.044,-3.63,-2.58,2.58,0.59,-0.27,1.22,
4.053,-3.04,-2.23,3.27,0.59,-0.27,1.22,
4.056,-3.04,-2.23,3.27,0.60,-0.20,1.23,
4.057,-3.04,-2.23,3.27,0.60,-0.15,1.22,
4.058,-3.04,-2.23,3.27,0.61,-0.13,1.20,
4.059,-3.04,-2.23,3.27,0.61,-0.13,1.19,
4.06,-3.04,-2.23,3.27,0.61,-0.16,1.16,
4.061,-2.07,-1.95,4.15,0.61,-0.16,1.16,
4.061,-2.07,-1.95,4.15,0.60,-0.20,1.12,
4.064,-2.07,-1.95,4.15,0.60,-0.24,1.07,
4.068,-2.07,-1.95,4.15,0.62,-0.30,1.00,
4.069,-2.07,-1.95,4.15,0.62,-0.32,0.98,
4.07,-2.07,-1.95,4.15,0.62,-0.35,0.93,
4.07,-1.89,-1.36,4.44,0.62,-0.35,0.93,
4.071,-1.89,-1.36,4.44,0.63,-0.37,0.88,
4.071,-1.89,-1.36,4.44,0.64,-0.38,0.84,
4.072,-1.89,-1.36,4.44,0.67,-0.39,0.77,
4.072,-1.89,-1.36,4.44,0.68,-0.38,0.76,
4.073,-1.89,-1.36,4.44,0.70,-0.36,0.72,
4.074,-2.02,-0.66,4.52,0.70,-0.36,0.72,
4.074,-2.02,-0.66,4.52,0.73,-0.32,0.68,
4.074,-2.02,-0.66,4.52,0.76,-0.28,0.65,
4.075,-2.02,-0.66,4.52,0.81,-0.19,0.61,
4.075,-2.02,-0.66,4.52,0.83,-0.15,0.60,
4.076,-2.02,-0.66,4.52,0.87,-0.07,0.57,
4.107,-2.09,-0.06,4.41,0.87,-0.07,0.57,
4.108,-2.09,-0.06,4.41,0.91,0.01,0.55,
4.108,-2.09,-0.06,4.41,0.95,0.10,0.53,
4.109,-2.09,-0.06,4.41,1.02,0.23,0.52,
4.109,-2.09,-0.06,4.41,1.04,0.27,0.51,
4.11,-2.09,-0.06,4.41,1.08,0.36,0.51,
4.11,-2.38,0.43,4.24,1.08,0.36,0.51,
4.11,-2.38,0.43,4.24,1.11,0.44,0.51,
4.111,-2.38,0.43,4.24,1.13,0.53,0.51,
4.111,-2.38,0.43,4.24,1.16,0.66,0.51,
4.112,-2.38,0.43,4.24,1.17,0.70,0.51,
4.112,-2.38,0.43,4.24,1.18,0.77,0.52,
4.113,-2.29,0.78,3.11,1.18,0.77,0.52,
4.113,-2.29,0.78,3.11,1.18,0.84,0.52,
4.113,-2.29,0.78,3.11,1.18,0.90,0.53,
4.114,-2.29,0.78,3.11,1.17,0.97,0.55,
4.114,-2.29,0.78,3.11,1.16,0.99,0.56,
4.115,-2.29,0.78,3.11,1.14,1.02,0.57,
4.115,-2.25,0.99,2.03,1.14,1.02,0.57,
4.115,-2.25,0.99,2.03,1.12,1.04,0.58,
4.116,-2.25,0.99,2.03,1.10,1.06,0.60,
4.116,-2.25,0.99,2.03,1.05,1.07,0.62,
4.117,-2.25,0.99,2.03,1.03,1.07,0.63,
4.117,-2.25,0.99,2.03,1.00,1.06,0.65,
4.117,-1.99,1.14,1.27,1.00,1.06,0.65,
4.118,-1.99,1.14,1.27,0.97,1.04,0.66,
4.12,-1.99,1.14,1.27,0.94,1.02,0.68,
4.122,-1.99,1.14,1.27,0.89,0.98,0.70,
4.123,-1.99,1.14,1.27,0.87,0.97,0.71,
4.125,-1.99,1.14,1.27,0.84,0.93,0.72,
4.127,-1.65,1.22,0.87,0.84,0.93,0.72,
4.128,-1.65,1.22,0.87,0.81,0.90,0.73,
4.129,-1.65,1.22,0.87,0.79,0.86,0.74,
4.132,-1.65,1.22,0.87,0.75,0.80,0.76,
4.133,-1.65,1.22,0.87,0.74,0.78,0.76,
4.135,-1.65,1.22,0.87,0.72,0.74,0.77,
4.137,-1.21,1.14,0.55,0.72,0.74,0.77,
4.137,-1.21,1.14,0.55,0.70,0.70,0.78,
4.139,-1.21,1.14,0.55,0.68,0.65,0.79,
4.142,-1.21,1.14,0.55,0.66,0.58,0.80,
4.143,-1.21,1.14,0.55,0.66,0.56,0.81,
4.153,-1.21,1.14,0.55,0.64,0.51,0.81,
4.156,-0.81,1.04,0.28,0.64,0.51,0.81,
4.157,-0.81,1.04,0.28,0.63,0.47,0.82,
4.157,-0.81,1.04,0.28,0.63,0.42,0.82,
4.157,-0.81,1.04,0.28,0.62,0.35,0.83,
4.158,-0.81,1.04,0.28,0.62,0.32,0.84,
4.158,-0.81,1.04,0.28,0.62,0.28,0.84,
4.158,-0.44,0.93,0.03,0.62,0.28,0.84,
4.158,-0.44,0.93,0.03,0.62,0.23,0.84,
4.159,-0.44,0.93,0.03,0.62,0.18,0.84,
4.181,-0.44,0.93,0.03,0.63,0.11,0.85,
4.182,-0.44,0.93,0.03,0.63,0.09,0.85,
4.182,-0.44,0.93,0.03,0.64,0.04,0.85,
4.182,-0.13,0.86,-0.17,0.64,0.04,0.85,
4.182,-0.13,0.86,-0.17,0.65,0.00,0.85,
4.182,-0.13,0.86,-0.17,0.66,-0.03,0.85,
4.183,-0.13,0.86,-0.17,0.67,-0.09,0.85,
4.183,-0.13,0.86,-0.17,0.68,-0.11,0.85,
4.183,-0.13,0.86,-0.17,0.70,-0.14,0.85,
4.183,0.22,0.79,-0.33,0.70,-0.14,0.85,
4.183,0.22,0.79,-0.33,0.71,-0.17,0.85,
4.184,0.22,0.79,-0.33,0.73,-0.20,0.85,
4.184,0.22,0.79,-0.33,0.75,-0.24,0.84,
4.184,0.22,0.79,-0.33,0.76,-0.26,0.84,
4.185,0.22,0.79,-0.33,0.78,-0.28,0.84,
4.187,0.60,0.75,-0.67,0.78,-0.28,0.84,
4.187,0.60,0.75,-0.67,0.80,-0.30,0.83,
4.189,0.60,0.75,-0.67,0.82,-0.31,0.83,
4.192,0.60,0.75,-0.67,0.85,-0.31,0.82,
4.193,0.60,0.75,-0.67,0.88,-0.29,0.82,
4.205,0.60,0.75,-0.67,0.94,-0.08,0.82,
4.206,1.32,0.75,-2.73,0.94,-0.08,0.82,
4.206,1.32,0.75,-2.73,0.98,0.25,0.82,
4.207,1.32,0.75,-2.73,0.99,0.64,0.83,
4.208,1.32,0.75,-2.73,0.97,1.24,0.81,
4.21,1.32,0.75,-2.73,0.95,1.44,0.79,
4.21,1.32,0.75,-2.73,0.92,1.83,0.77,
4.211,4.11,0.94,-8.51,0.92,1.83,0.77,
4.211,4.11,0.94,-8.51,0.91,2.18,0.74,
4.212,4.11,0.94,-8.51,0.89,2.51,0.71,
4.214,4.11,0.94,-8.51,0.86,2.93,0.67,
4.216,4.11,0.94,-8.51,0.85,3.05,0.65,
4.217,4.11,0.94,-8.51,0.84,3.26,0.62,
4.217,4.79,1.19,-7.92,0.84,3.26,0.62,
4.218,4.79,1.19,-7.92,0.84,3.44,0.59,
4.23,4.79,1.19,-7.92,0.84,3.58,0.55,
4.232,4.79,1.19,-7.92,0.84,3.74,0.51,
4.233,4.79,1.19,-7.92,0.84,3.77,0.49,
4.234,4.79,1.19,-7.92,0.85,3.82,0.47,
4.235,4.58,1.31,-6.21,0.85,3.82,0.47,
4.235,4.58,1.31,-6.21,0.85,3.85,0.44,
4.236,4.58,1.31,-6.21,0.85,3.84,0.42,
4.236,4.58,1.31,-6.21,0.84,3.79,0.39,
4.237,4.58,1.31,-6.21,0.84,3.75,0.38,
4.237,4.58,1.31,-6.21,0.85,3.66,0.36,
4.238,3.86,1.37,-5.02,0.85,3.66,0.36,
4.238,3.86,1.37,-5.02,0.85,3.54,0.34,
4.239,3.86,1.37,-5.02,0.85,3.40,0.33,
4.242,3.86,1.37,-5.02,0.86,3.13,0.32,
4.278,3.86,1.37,-5.02,0.87,3.04,0.32,
4.28,3.86,1.37,-5.02,0.88,2.82,0.31,
4.281,2.99,1.26,-3.96,0.88,2.82,0.31,
4.282,2.99,1.26,-3.96,0.89,2.57,0.32,
4.284,2.99,1.26,-3.96,0.91,2.31,0.33,
4.284,2.99,1.26,-3.96,0.94,1.88,0.35,
4.285,2.99,1.26,-3.96,0.95,1.73,0.35,
4.286,2.99,1.26,-3.96,0.97,1.41,0.37,
4.286,1.95,1.12,-2.70,0.97,1.41,0.37,
4.287,1.95,1.12,-2.70,1.00,1.08,0.39,
4.288,1.95,1.12,-2.70,1.03,0.74,0.41,
4.288,1.95,1.12,-2.70,1.06,0.21,0.45,
4.288,1.95,1.12,-2.70,1.08,0.03,0.46,
4.289,1.95,1.12,-2.70,1.10,-0.34,0.49,
4.289,1.34,0.83,-1.70,1.10,-0.34,0.49,
4.29,1.34,0.83,-1.70,1.12,-0.71,0.52,
4.29,1.34,0.83,-1.70,1.13,-1.07,0.55,
4.291,1.34,0.83,-1.70,1.16,-1.62,0.59,
4.291,1.34,0.83,-1.70,1.17,-1.79,0.61,
4.292,1.34,0.83,-1.70,1.18,-2.14,0.63,
4.293,1.01,0.47,-1.20,1.18,-2.14,0.63,
4.293,1.01,0.47,-1.20,1.18,-2.46,0.65,
4.294,1.01,0.47,-1.20,1.19,-2.78,0.67,
4.294,1.01,0.47,-1.20,1.19,-3.21,0.68,
4.295,1.01,0.47,-1.20,1.19,-3.35,0.69,
4.295,1.01,0.47,-1.20,1.20,-3.60,0.69,
4.296,1.10,-0.08,-1.43,1.20,-3.60,0.69,
4.296,1.10,-0.08,-1.43,1.20,-3.83,0.69,
4.296,1.10,-0.08,-1.43,1.19,-4.05,0.69,
4.297,1.10,-0.08,-1.43,1.19,-4.32,0.68,
4.297,1.10,-0.08,-1.43,1.19,-4.40,0.68,
4.298,1.10,-0.08,-1.43,1.18,-4.54,0.67,
4.298,1.33,-0.55,-1.93,1.18,-4.54,0.67,
4.298,1.33,-0.55,-1.93,1.17,-4.67,0.66,
4.299,1.33,-0.55,-1.93,1.16,-4.78,0.64,
4.311,1.33,-0.55,-1.93,1.15,-4.90,0.61,
4.312,1.33,-0.55,-1.93,1.14,-4.93,0.60,
4.313,1.33,-0.55,-1.93,1.13,-4.98,0.57,
4.313,1.52,-0.96,-2.54,1.13,-4.98,0.57,
4.313,1.52,-0.96,-2.54,1.11,-5.00,0.55,
4.314,1.52,-0.96,-2.54,1.09,-5.01,0.52,
4.314,1.52,-0.96,-2.54,1.07,-4.98,0.48,
4.314,1.52,-0.96,-2.54,1.06,-4.96,0.47,
4.315,1.52,-0.96,-2.54,1.04,-4.90,0.44,
4.317,1.48,-1.47,-2.87,1.04,-4.90,0.44,
4.318,1.48,-1.47,-2.87,1.02,-4.82,0.41,
4.322,1.48,-1.47,-2.87,1.00,-4.72,0.37,
4.322,1.48,-1.47,-2.87,0.96,-4.54,0.32,
4.325,1.48,-1.47,-2.87,0.95,-4.47,0.31,
4.326,1.48,-1.47,-2.87,0.93,-4.32,0.27,
4.33,1.31,-2.10,-3.24,0.93,-4.32,0.27,
4.331,1.31,-2.10,-3.24,0.90,-4.15,0.24,
4.332,1.31,-2.10,-3.24,0.87,-3.97,0.20,
4.333,1.31,-2.10,-3.24,0.83,-3.67,0.15,
4.333,1.31,-2.10,-3.24,0.81,-3.57,0.13,
4.335,1.31,-2.10,-3.24,0.77,-3.36,0.09,
4.337,0.98,-2.68,-3.61,0.77,-3.36,0.09,
4.337,0.98,-2.68,-3.61,0.73,-3.14,0.06,
4.341,0.98,-2.68,-3.61,0.68,-2.92,0.03,
4.342,0.98,-2.68,-3.61,0.60,-2.59,-0.01,
4.356,0.98,-2.68,-3.61,0.57,-2.47,-0.02,
4.357,0.98,-2.68,-3.61,0.51,-2.25,-0.04,
4.357,0.58,-3.26,-4.35,0.51,-2.25,-0.04,
4.357,0.58,-3.26,-4.35,0.44,-2.03,-0.06,
4.358,0.58,-3.26,-4.35,0.37,-1.82,-0.07,
4.358,0.58,-3.26,-4.35,0.26,-1.50,-0.09,
4.358,0.58,-3.26,-4.35,0.22,-1.39,-0.09,
4.359,0.58,-3.26,-4.35,0.14,-1.18,-0.10,
4.359,0.37,-3.76,-4.83,0.14,-1.18,-0.10,
4.359,0.37,-3.76,-4.83,0.05,-0.98,-0.10,
4.36,0.37,-3.76,-4.83,-0.04,-0.78,-0.10,
4.387,0.37,-3.76,-4.83,-0.17,-0.48,-0.10,
4.388,0.37,-3.76,-4.83,-0.22,-0.39,-0.10,
4.388,0.37,-3.76,-4.83,-0.31,-0.20,-0.10,
4.388,0.58,-4.43,-5.17,-0.31,-0.20,-0.10,
4.389,0.58,-4.43,-5.17,-0.41,-0.01,-0.10,
4.389,0.58,-4.43,-5.17,-0.50,0.18,-0.10,
4.389,0.58,-4.43,-5.17,-0.65,0.44,-0.11,
4.39,0.58,-4.43,-5.17,-0.70,0.53,-0.11,
4.39,0.58,-4.43,-5.17,-0.79,0.70,-0.11,
4.39,1.13,-4.99,-5.13,-0.79,0.70,-0.11,
4.39,1.13,-4.99,-5.13,-0.89,0.87,-0.11,
4.391,1.13,-4.99,-5.13,-0.99,1.03,-0.12,
4.391,1.13,-4.99,-5.13,-1.15,1.28,-0.14,
4.391,1.13,-4.99,-5.13,-1.20,1.36,-0.15,
4.392,1.13,-4.99,-5.13,-1.32,1.53,-0.17,
4.392,2.12,-5.36,-5.97,-1.32,1.53,-0.17,
4.392,2.12,-5.36,-5.97,-1.45,1.71,-0.21,
4.393,2.12,-5.36,-5.97,-1.60,1.89,-0.25,
4.393,2.12,-5.36,-5.97,-1.84,2.17,-0.32,
4.393,2.12,-5.36,-5.97,-1.92,2.26,-0.35,
4.4,2.12,-5.36,-5.97,-2.09,2.44,-0.41,
4.402,3.59,-5.13,-8.00,-2.09,2.44,-0.41,
4.403,3.59,-5.13,-8.00,-2.27,2.62,-0.48,
4.404,3.59,-5.13,-8.00,-2.45,2.79,-0.55,
4.405,3.59,-5.13,-8.00,-2.69,3.02,-0.67,
4.407,3.59,-5.13,-8.00,-2.77,3.09,-0.71,
4.408,3.59,-5.13,-8.00,-2.92,3.21,-0.79,
4.412,4.51,-4.30,-8.02,-2.92,3.21,-0.79,
4.413,4.51,-4.30,-8.02,-3.05,3.31,-0.87,
4.44,4.51,-4.30,-8.02,-3.16,3.39,-0.95,
4.441,4.51,-4.30,-8.02,-3.32,3.47,-1.08,
4.441,4.51,-4.30,-8.02,-3.36,3.49,-1.12,
4.441,4.51,-4.30,-8.02,-3.44,3.51,-1.20,
4.442,4.55,-3.46,-5.60,-3.44,3.51,-1.20,
4.442,4.55,-3.46,-5.60,-3.51,3.51,-1.28,
4.443,4.55,-3.46,-5.60,-3.56,3.48,-1.36,
4.443,4.55,-3.46,-5.60,-3.63,3.39,-1.47,
4.444,4.55,-3.46,-5.60,-3.64,3.35,-1.50,
4.444,4.55,-3.46,-5.60,-3.66,3.26,-1.57,
4.444,4.24,-2.86,-2.76,-3.66,3.26,-1.57,
4.445,4.24,-2.86,-2.76,-3.66,3.14,-1.63,
4.445,4.24,-2.86,-2.76,-3.65,3.01,-1.69,
4.446,4.24,-2.86,-2.76,-3.59,2.77,-1.77,
4.446,4.24,-2.86,-2.76,-3.57,2.68,-1.79,
4.447,4.24,-2.86,-2.76,-3.51,2.49,-1.84,
4.447,3.46,-2.63,0.90,-3.51,2.49,-1.84,
4.447,3.46,-2.63,0.90,-3.43,2.28,-1.88,
4.448,3.46,-2.63,0.90,-3.34,2.05,-1.92,
4.448,3.46,-2.63,0.90,-3.17,1.68,-1.96,
4.449,3.46,-2.63,0.90,-3.11,1.55,-1.97,
4.449,3.46,-2.63,0.90,-2.99,1.29,-1.98,
4.449,2.37,-2.68,4.68,-2.99,1.29,-1.98,
4.45,2.37,-2.68,4.68,-2.86,1.02,-2.00,
4.45,2.37,-2.68,4.68,-2.72,0.75,-2.00,
4.455,2.37,-2.68,4.68,-2.51,0.35,-1.99,
4.457,2.37,-2.68,4.68,-2.45,0.22,-1.98,
4.457,2.37,-2.68,4.68,-2.31,-0.04,-1.97,
4.457,0.75,-2.48,6.56,-2.31,-0.04,-1.97,
4.457,0.75,-2.48,6.56,-2.18,-0.28,-1.94,
4.468,0.75,-2.48,6.56,-2.05,-0.51,-1.91,
4.469,0.75,-2.48,6.56,-1.88,-0.84,-1.84,
4.469,0.75,-2.48,6.56,-1.83,-0.94,-1.82,
4.469,0.75,-2.48,6.56,-1.72,-1.15,-1.77,
4.47,-0.85,-2.16,6.55,-1.72,-1.15,-1.77,
4.47,-0.85,-2.16,6.55,-1.62,-1.35,-1.73,
4.47,-0.85,-2.16,6.55,-1.52,-1.55,-1.68,
4.472,-0.85,-2.16,6.55,-1.39,-1.83,-1.61,
4.473,-0.85,-2.16,6.55,-1.35,-1.91,-1.59,
4.489,-0.85,-2.16,6.55,-1.28,-2.06,-1.54,
4.49,-1.25,-2.11,5.63,-1.28,-2.06,-1.54,
4.49,-1.25,-2.11,5.63,-1.21,-2.19,-1.50,
4.49,-1.25,-2.11,5.63,-1.15,-2.30,-1.46,
4.491,-1.25,-2.11,5.63,-1.07,-2.45,-1.39,
4.491,-1.25,-2.11,5.63,-1.05,-2.49,-1.37,
4.491,-1.25,-2.11,5.63,-1.01,-2.57,-1.33,
4.491,-1.66,-2.55,4.48,-1.01,-2.57,-1.33,
4.491,-1.66,-2.55,4.48,-0.98,-2.64,-1.29,
4.492,-1.66,-2.55,4.48,-0.96,-2.70,-1.24,
4.493,-1.66,-2.55,4.48,-0.93,-2.80,-1.17,
4.493,-1.66,-2.55,4.48,-0.92,-2.82,-1.15,
4.497,-1.66,-2.55,4.48,-0.90,-2.88,-1.10,
4.498,-2.42,-2.92,3.65,-0.90,-2.88,-1.10,
4.498,-2.42,-2.92,3.65,-0.90,-2.93,-1.05,
4.498,-2.42,-2.92,3.65,-0.89,-2.97,-1.01,
4.502,-2.42,-2.92,3.65,-0.89,-3.03,-0.94,
4.503,-2.42,-2.92,3.65,-0.89,-3.05,-0.92,
4.504,-2.42,-2.92,3.65,-0.90,-3.08,-0.88,
4.507,-2.82,-3.09,3.38,-0.90,-3.08,-0.88,
4.507,-2.82,-3.09,3.38,-0.90,-3.10,-0.85,
4.512,-2.82,-3.09,3.38,-0.91,-3.13,-0.82,
4.513,-2.82,-3.09,3.38,-0.92,-3.15,-0.79,
4.513,-2.82,-3.09,3.38,-0.93,-3.15,-0.78,
4.515,-2.82,-3.09,3.38,-0.94,-3.16,-0.77,
4.517,-2.35,-3.31,3.14,-0.94,-3.16,-0.77,
4.517,-2.35,-3.31,3.14,-0.96,-3.16,-0.75,
4.519,-2.35,-3.31,3.14,-0.98,-3.16,-0.74,
4.522,-2.35,-3.31,3.14,-1.01,-3.14,-0.73,
4.524,-2.35,-3.31,3.14,-1.02,-3.14,-0.72,
4.537,-2.35,-3.31,3.14,-1.07,-3.10,-0.71,
4.538,-2.35,-3.31,3.14,-1.07,-3.10,-0.71,
4.538,-1.93,-3.65,2.89,-1.07,-3.10,-0.71,
4.539,-1.93,-3.65,2.89,-1.10,-3.08,-0.70,
4.54,-1.93,-3.65,2.89,-1.14,-3.03,-0.69,
4.54,-1.93,-3.65,2.89,-1.15,-3.01,-0.69,
4.54,-1.93,-3.65,2.89,-1.18,-2.97,-0.69,
4.541,-1.69,-3.76,2.73,-1.18,-2.97,-0.69,
4.541,-1.69,-3.76,2.73,-1.20,-2.93,-0.68,
4.541,-1.69,-3.76,2.73,-1.22,-2.88,-0.67,
4.559,-1.69,-3.76,2.73,-1.25,-2.78,-0.66,
4.559,-1.69,-3.76,2.73,-1.25,-2.74,-0.66,
4.56,-1.69,-3.76,2.73,-1.26,-2.66,-0.65,
4.56,-1.66,-3.41,2.97,-1.26,-2.66,-0.65,
4.56,-1.66,-3.41,2.97,-1.27,-2.57,-0.64,
4.56,-1.66,-3.41,2.97,-1.28,-2.49,-0.64,
4.56,-1.66,-3.41,2.97,-1.28,-2.34,-0.63,
4.561,-1.66,-3.41,2.97,-1.29,-2.23,-0.63,
4.561,-1.66,-3.41,2.97,-1.29,-2.17,-0.63,
4.561,-1.46,-2.80,3.09,-1.29,-2.17,-0.63,
4.561,-1.46,-2.80,3.09,-1.29,-2.04,-0.62,
4.561,-1.46,-2.80,3.09,-1.30,-1.91,-0.62,
4.563,-1.46,-2.80,3.09,-1.31,-1.68,-0.63,
4.563,-1.46,-2.80,3.09,-1.31,-1.61,-0.63,
4.567,-1.46,-2.80,3.09,-1.32,-1.45,-0.63,
4.567,-1.42,-2.16,2.94,-1.32,-1.45,-0.63,
4.568,-1.42,-2.16,2.94,-1.33,-1.28,-0.64,
4.569,-1.42,-2.16,2.94,-1.34,-1.11,-0.64,
4.572,-1.42,-2.16,2.94,-1.36,-0.84,-0.65,
4.573,-1.42,-2.16,2.94,-1.36,-0.75,-0.65,
4.575,-1.42,-2.16,2.94,-1.37,-0.56,-0.66,
4.601,-1.40,-1.51,2.61,-1.37,-0.56,-0.66,
4.602,-1.40,-1.51,2.61,-1.37,-0.38,-0.66,
4.602,-1.40,-1.51,2.61,-1.38,-0.19,-0.67,
4.603,-1.40,-1.51,2.61,-1.38,0.08,-0.68,
4.603,-1.40,-1.51,2.61,-1.37,0.17,-0.68,
4.604,-1.40,-1.51,2.61,-1.37,0.33,-0.69,
4.604,-1.41,-1.01,2.76,-1.37,0.33,-0.69,
4.604,-1.41,-1.01,2.76,-1.37,0.48,-0.69,
4.604,-1.41,-1.01,2.76,-1.36,0.62,-0.70,
4.605,-1.41,-1.01,2.76,-1.36,0.80,-0.72,
4.605,-1.41,-1.01,2.76,-1.36,0.85,-0.73,
4.605,-1.41,-1.01,2.76,-1.35,0.94,-0.75,
4.605,-1.08,-0.38,2.86,-1.35,0.94,-0.75,
4.606,-1.08,-0.38,2.86,-1.35,1.03,-0.76,
4.606,-1.08,-0.38,2.86,-1.34,1.10,-0.78,
4.606,-1.08,-0.38,2.86,-1.34,1.19,-0.80,
4.607,-1.08,-0.38,2.86,-1.34,1.22,-0.81,
4.607,-1.08,-0.38,2.86,-1.33,1.27,-0.82,
4.607,-1.00,0.18,3.06,-1.33,1.27,-0.82,
4.607,-1.00,0.18,3.06,-1.33,1.31,-0.84,
4.609,-1.00,0.18,3.06,-1.33,1.34,-0.85,
4.612,-1.00,0.18,3.06,-1.32,1.38,-0.87,
4.613,-1.00,0.18,3.06,-1.31,1.39,-0.87,
4.615,-1.00,0.18,3.06,-1.31,1.41,-0.89,
4.62,-1.08,0.70,3.06,-1.31,1.41,-0.89,
4.62,-1.08,0.70,3.06,-1.30,1.42,-0.90,
4.62,-1.08,0.70,3.06,-1.30,1.42,-0.91,
4.621,-1.08,0.70,3.06,-1.28,1.41,-0.92,
4.623,-1.08,0.70,3.06,-1.28,1.41,-0.92,
4.625,-1.08,0.70,3.06,-1.28,1.40,-0.93,
4.627,-1.14,1.13,3.14,-1.28,1.40,-0.93,
4.627,-1.14,1.13,3.14,-1.27,1.38,-0.94,
4.629,-1.14,1.13,3.14,-1.27,1.36,-0.95,
4.632,-1.14,1.13,3.14,-1.26,1.33,-0.97,
4.633,-1.14,1.13,3.14,-1.26,1.31,-0.97,
4.635,-1.14,1.13,3.14,-1.25,1.28,-0.98,
4.637,-1.11,1.62,2.98,-1.25,1.28,-0.98,
4.637,-1.11,1.62,2.98,-1.25,1.26,-0.99,
4.639,-1.11,1.62,2.98,-1.25,1.23,-1.00,
4.643,-1.11,1.62,2.98,-1.25,1.18,-1.01,
4.643,-1.11,1.62,2.98,-1.24,1.17,-1.02,
4.645,-1.11,1.62,2.98,-1.24,1.13,-1.03,
4.647,-1.09,2.06,2.97,-1.24,1.13,-1.03,
4.648,-1.09,2.06,2.97,-1.24,1.10,-1.04,
4.649,-1.09,2.06,2.97,-1.24,1.06,-1.04,
4.652,-1.09,2.06,2.97,-1.24,1.01,-1.06,
4.653,-1.09,2.06,2.97,-1.24,0.99,-1.07,
4.655,-1.09,2.06,2.97,-1.24,0.96,-1.07,
4.657,-1.00,2.52,2.80,-1.24,0.96,-1.07,
4.657,-1.00,2.52,2.80,-1.24,0.92,-1.08,
4.668,-1.00,2.52,2.80,-1.24,0.88,-1.09,
4.669,-1.00,2.52,2.80,-1.24,0.82,-1.11,
4.669,-1.00,2.52,2.80,-1.24,0.80,-1.12,
4.67,-1.00,2.52,2.80,-1.24,0.76,-1.13,
4.67,-0.92,2.86,2.88,-1.24,0.76,-1.13,
4.671,-0.92,2.86,2.88,-1.24,0.72,-1.14,
4.671,-0.92,2.86,2.88,-1.24,0.68,-1.15,
4.673,-0.92,2.86,2.88,-1.23,0.61,-1.16,
4.674,-0.92,2.86,2.88,-1.23,0.59,-1.17,
4.684,-0.92,2.86,2.88,-1.23,0.55,-1.17,
4.684,-0.99,3.01,2.89,-1.23,0.55,-1.17,
4.685,-0.99,3.01,2.89,-1.22,0.49,-1.18,
4.685,-0.99,3.01,2.89,-1.21,0.43,-1.18,
4.685,-0.99,3.01,2.89,-1.21,0.33,-1.18,
4.685,-0.99,3.01,2.89,-1.20,0.29,-1.18,
4.685,-0.99,3.01,2.89,-1.19,0.20,-1.17,
4.688,-1.41,3.00,3.51,-1.19,0.20,-1.17,
4.69,-1.41,3.00,3.51,-1.18,0.11,-1.16,
4.69,-1.41,3.00,3.51,-1.16,0.00,-1.14,
4.718,-1.41,3.00,3.51,-1.11,-0.19,-1.09,
4.719,-1.41,3.00,3.51,-1.09,-0.27,-1.07,
4.719,-1.41,3.00,3.51,-1.05,-0.43,-1.01,
4.719,-2.69,3.18,4.86,-1.05,-0.43,-1.01,
4.72,-2.69,3.18,4.86,-1.01,-0.59,-0.96,
4.72,-2.69,3.18,4.86,-0.97,-0.72,-0.90,
4.72,-2.69,3.18,4.86,-0.93,-0.86,-0.82,
4.721,-2.69,3.18,4.86,-0.93,-0.90,-0.80,
4.721,-2.69,3.18,4.86,-0.91,-0.95,-0.76,
4.721,-2.83,3.10,4.11,-0.91,-0.95,-0.76,
4.722,-2.83,3.10,4.11,-0.90,-0.98,-0.71,
4.722,-2.83,3.10,4.11,-0.90,-0.99,-0.68,
4.722,-2.83,3.10,4.11,-0.90,-0.98,-0.63,
4.722,-2.83,3.10,4.11,-0.90,-0.97,-0.61,
4.723,-2.83,3.10,4.11,-0.91,-0.95,-0.58,
4.723,-2.12,2.75,2.57,-0.91,-0.95,-0.58,
4.723,-2.12,2.75,2.57,-0.91,-0.92,-0.55,
4.724,-2.12,2.75,2.57,-0.91,-0.88,-0.51,
4.724,-2.12,2.75,2.57,-0.91,-0.82,-0.46,
4.724,-2.12,2.75,2.57,-0.91,-0.80,-0.44,
4.736,-2.12,2.75,2.57,-0.91,-0.75,-0.41,
4.737,-2.00,2.72,2.21,-0.91,-0.75,-0.41,
4.737,-2.00,2.72,2.21,-0.91,-0.70,-0.38,
4.737,-2.00,2.72,2.21,-0.90,-0.64,-0.34,
4.737,-2.00,2.72,2.21,-0.89,-0.53,-0.29,
4.738,-2.00,2.72,2.21,-0.88,-0.50,-0.28,
4.738,-2.00,2.72,2.21,-0.88,-0.42,-0.25,
4.738,-1.80,2.81,2.10,-0.88,-0.42,-0.25,
4.739,-1.80,2.81,2.10,-0.86,-0.33,-0.22,
4.74,-1.80,2.81,2.10,-0.85,-0.24,-0.20,
4.744,-1.80,2.81,2.10,-0.83,-0.10,-0.16,
4.77,-1.80,2.81,2.10,-0.82,-0.05,-0.15,
4.77,-1.80,2.81,2.10,-0.80,0.05,-0.13,
4.77,-1.52,2.64,2.29,-0.80,0.05,-0.13,
4.771,-1.52,2.64,2.29,-0.78,0.14,-0.11,
4.771,-1.52,2.64,2.29,-0.75,0.23,-0.09,
4.771,-1.52,2.64,2.29,-0.70,0.37,-0.06,
4.772,-1.52,2.64,2.29,-0.68,0.41,-0.05,
4.772,-1.52,2.64,2.29,-0.65,0.49,-0.03,
4.772,-1.52,2.63,2.58,-0.65,0.49,-0.03,
4.772,-1.52,2.63,2.58,-0.60,0.57,-0.01,
4.773,-1.52,2.63,2.58,-0.56,0.64,0.01,
4.773,-1.52,2.63,2.58,-0.50,0.72,0.05,
4.773,-1.52,2.63,2.58,-0.47,0.74,0.06,
4.773,-1.52,2.63,2.58,-0.42,0.78,0.08,
4.774,-1.73,2.69,2.98,-0.42,0.78,0.08,
4.774,-1.73,2.69,2.98,-0.37,0.81,0.10,
4.774,-1.73,2.69,2.98,-0.32,0.83,0.13,
4.774,-1.73,2.69,2.98,-0.24,0.85,0.16,
4.775,-1.73,2.69,2.98,-0.21,0.85,0.18,
4.775,-1.73,2.69,2.98,-0.16,0.85,0.20,
4.779,-1.86,2.89,3.01,-0.16,0.85,0.20,
4.78,-1.86,2.89,3.01,-0.10,0.84,0.23,
4.78,-1.86,2.89,3.01,-0.05,0.83,0.25,
4.782,-1.86,2.89,3.01,0.04,0.81,0.29,
4.783,-1.86,2.89,3.01,0.06,0.80,0.31,
4.786,-1.86,2.89,3.01,0.12,0.77,0.34,
4.787,-2.07,3.10,2.90,0.12,0.77,0.34,
4.787,-2.07,3.10,2.90,0.17,0.74,0.36,
4.789,-2.07,3.10,2.90,0.22,0.70,0.39,
4.792,-2.07,3.10,2.90,0.31,0.63,0.44,
4.793,-2.07,3.10,2.90,0.33,0.61,0.45,
4.795,-2.07,3.10,2.90,0.39,0.56,0.48,
4.797,-2.17,3.38,2.58,0.39,0.56,0.48,
4.797,-2.17,3.38,2.58,0.44,0.50,0.51,
4.8,-2.17,3.38,2.58,0.49,0.44,0.54,
4.802,-2.17,3.38,2.58,0.57,0.35,0.59,
4.803,-2.17,3.38,2.58,0.60,0.32,0.61,
4.805,-2.17,3.38,2.58,0.65,0.26,0.65,
4.807,-2.41,3.56,2.34,0.65,0.26,0.65,
4.807,-2.41,3.56,2.34,0.70,0.19,0.69,
4.812,-2.41,3.56,2.34,0.75,0.13,0.72,
4.813,-2.41,3.56,2.34,0.82,0.03,0.78,
4.813,-2.41,3.56,2.34,0.84,-0.00,0.80,
4.815,-2.41,3.56,2.34,0.89,-0.06,0.84,
4.817,-2.38,3.62,1.82,0.89,-0.06,0.84,
4.817,-2.38,3.62,1.82,0.93,-0.13,0.88,
4.819,-2.38,3.62,1.82,0.97,-0.18,0.92,
4.822,-2.38,3.62,1.82,1.03,-0.27,0.98,
4.823,-2.38,3.62,1.82,1.05,-0.30,1.00,
4.828,-2.38,3.62,1.82,1.08,-0.36,1.04,
4.829,-2.33,3.43,1.25,1.08,-0.36,1.04,
4.829,-2.33,3.43,1.25,1.12,-0.41,1.08,
4.829,-2.33,3.43,1.25,1.15,-0.47,1.12,
4.832,-2.33,3.43,1.25,1.20,-0.55,1.17,
4.833,-2.33,3.43,1.25,1.21,-0.57,1.19,
4.835,-2.33,3.43,1.25,1.23,-0.62,1.22,
4.837,-2.11,3.00,0.47,1.23,-0.62,1.22,
4.837,-2.11,3.00,0.47,1.25,-0.66,1.26,
4.839,-2.11,3.00,0.47,1.27,-0.71,1.29,
4.842,-2.11,3.00,0.47,1.29,-0.77,1.35,
4.844,-2.11,3.00,0.47,1.29,-0.78,1.36,
4.845,-2.11,3.00,0.47,1.29,-0.82,1.39,
4.847,-1.94,2.28,-0.86,1.29,-0.82,1.39,
4.847,-1.94,2.28,-0.86,1.29,-0.85,1.42,
4.849,-1.94,2.28,-0.86,1.28,-0.88,1.45,
4.852,-1.94,2.28,-0.86,1.26,-0.91,1.49,
4.853,-1.94,2.28,-0.86,1.25,-0.92,1.50,
4.855,-1.94,2.28,-0.86,1.22,-0.94,1.53,
4.866,-1.67,1.31,-2.72,1.22,-0.94,1.53,
4.869,-1.67,1.31,-2.72,1.19,-0.95,1.55,
4.87,-1.67,1.31,-2.72,1.15,-0.96,1.57,
4.871,-1.67,1.31,-2.72,1.07,-0.95,1.59,
4.874,-1.67,1.31,-2.72,1.03,-0.94,1.60,
4.875,-1.67,1.31,-2.72,0.96,-0.92,1.62,
4.875,-1.55,0.01,-5.80,0.96,-0.92,1.62,
4.875,-1.55,0.01,-5.80,0.89,-0.89,1.63,
4.875,-1.55,0.01,-5.80,0.81,-0.84,1.63,
4.875,-1.55,0.01,-5.80,0.69,-0.75,1.63,
4.876,-1.55,0.01,-5.80,0.66,-0.71,1.63,
4.876,-1.55,0.01,-5.80,0.61,-0.63,1.62,
4.885,-1.33,-1.56,-8.84,0.61,-0.63,1.62,
4.886,-1.33,-1.56,-8.84,0.57,-0.54,1.61,
4.887,-1.33,-1.56,-8.84,0.53,-0.44,1.58,
4.887,-1.33,-1.56,-8.84,0.47,-0.31,1.54,
4.888,-1.33,-1.56,-8.84,0.44,-0.27,1.52,
4.889,-1.33,-1.56,-8.84,0.40,-0.19,1.48,
4.889,-0.90,-3.30,-11.63,0.40,-0.19,1.48,
4.89,-0.90,-3.30,-11.63,0.36,-0.11,1.44,
4.89,-0.90,-3.30,-11.63,0.31,-0.04,1.39,
4.902,-0.90,-3.30,-11.63,0.24,0.05,1.30,
4.903,-0.90,-3.30,-11.63,0.22,0.07,1.27,
4.904,-0.90,-3.30,-11.63,0.16,0.12,1.20,
4.905,0.37,-5.04,-13.76,0.16,0.12,1.20,
4.906,0.37,-5.04,-13.76,0.11,0.17,1.13,
4.906,0.37,-5.04,-13.76,0.04,0.22,1.05,
4.907,0.37,-5.04,-13.76,-0.12,0.35,0.89,
4.907,0.37,-5.04,-13.76,-0.16,0.38,0.85,
4.907,0.37,-5.04,-13.76,-0.21,0.42,0.81,
4.908,2.59,-6.22,-15.81,-0.21,0.42,0.81,
4.908,2.59,-6.22,-15.81,-0.30,0.51,0.72,
4.934,2.59,-6.22,-15.81,-0.40,0.61,0.63,
4.934,2.59,-6.22,-15.81,-0.55,0.79,0.49,
4.935,2.59,-6.22,-15.81,-0.65,0.92,0.39,
4.935,2.59,-6.22,-15.81,-0.70,0.99,0.34,
4.935,5.15,-6.49,-16.09,-0.70,0.99,0.34,
4.936,5.15,-6.49,-16.09,-0.79,1.14,0.25,
4.936,5.15,-6.49,-16.09,-0.87,1.31,0.16,
4.936,5.15,-6.49,-16.09,-0.98,1.56,0.03,
4.937,5.15,-6.49,-16.09,-1.01,1.65,-0.01,
4.937,5.15,-6.49,-16.09,-1.06,1.82,-0.08,
4.937,6.99,-5.36,-13.72,-1.06,1.82,-0.08,
4.938,6.99,-5.36,-13.72,-1.09,2.00,-0.14,
4.938,6.99,-5.36,-13.72,-1.12,2.18,-0.19,
4.938,6.99,-5.36,-13.72,-1.14,2.44,-0.24,
4.938,6.99,-5.36,-13.72,-1.14,2.53,-0.26,
4.939,6.99,-5.36,-13.72,-1.14,2.69,-0.28,
4.939,7.54,-3.53,-9.61,-1.14,2.69,-0.28,
4.939,7.54,-3.53,-9.61,-1.13,2.85,-0.29,
4.94,7.54,-3.53,-9.61,-1.12,2.99,-0.29,
4.942,7.54,-3.53,-9.61,-1.08,3.18,-0.27,
4.943,7.54,-3.53,-9.61,-1.07,3.23,-0.27,
4.946,7.54,-3.53,-9.61,-1.06,3.34,-0.24,
4.948,7.26,-1.71,-6.20,-1.06,3.34,-0.24,
4.948,7.26,-1.71,-6.20,-1.03,3.44,-0.23,
4.949,7.26,-1.71,-6.20,-1.01,3.52,-0.21,
4.952,7.26,-1.71,-6.20,-0.93,3.59,-0.19,
4.953,7.26,-1.71,-6.20,-0.82,3.57,-0.18,
4.955,7.26,-1.71,-6.20,-0.76,3.55,-0.18,
4.96,6.43,-0.09,-0.90,-0.76,3.55,-0.18,
4.961,6.43,-0.09,-0.90,-0.66,3.47,-0.16,
4.961,6.43,-0.09,-0.90,-0.61,3.34,-0.16,
4.962,6.43,-0.09,-0.90,-0.57,2.98,-0.15,
4.963,6.43,-0.09,-0.90,-0.51,2.61,-0.10,
4.965,6.43,-0.09,-0.90,-0.48,2.41,-0.06,
4.967,4.30,1.48,1.18,-0.48,2.41,-0.06,
4.967,4.30,1.48,1.18,-0.42,2.06,-0.01,
4.969,4.30,1.48,1.18,-0.40,1.76,-0.02,
4.972,4.30,1.48,1.18,-0.46,1.35,-0.07,
4.98,4.30,1.48,1.18,-0.50,1.17,-0.09,
4.98,4.30,1.48,1.18,-0.64,0.69,-0.12,
4.98,5.62,2.00,0.28,-0.64,0.69,-0.12,
4.981,5.62,2.00,0.28,-0.89,-0.08,-0.15,
4.981,5.62,2.00,0.28,-1.10,-0.74,-0.15,
4.982,5.62,2.00,0.28,-1.30,-1.24,-0.10,
4.983,5.62,2.00,0.28,-1.34,-1.33,-0.08,
4.985,5.62,2.00,0.28,-1.38,-1.41,-0.04,
4.987,4.46,2.57,1.47,-1.38,-1.41,-0.04,
4.987,4.46,2.57,1.47,-1.38,-1.38,0.01,
4.989,4.46,2.57,1.47,-1.35,-1.28,0.05,
4.999,4.46,2.57,1.47,-1.26,-1.03,0.11,
5.0,4.46,2.57,1.47,-1.21,-0.94,0.13,
5.0,4.46,2.57,1.47,-1.13,-0.77,0.17,
5.0,3.73,2.31,3.32,-1.13,-0.77,0.17,
5.0,3.73,2.31,3.32,-1.02,-0.60,0.19,
5.0,3.73,2.31,3.32,-0.91,-0.45,0.22,
5.002,3.73,2.31,3.32,-0.73,-0.26,0.23,
5.003,3.73,2.31,3.32,-0.67,-0.21,0.23,
5.005,3.73,2.31,3.32,-0.55,-0.13,0.23,
5.015,3.43,0.68,5.30,-0.55,-0.13,0.23,
5.016,3.43,0.68,5.30,-0.43,-0.08,0.22,
5.018,3.43,0.68,5.30,-0.32,-0.04,0.20,
