
time,ax,ay,az,wx,wy,wz,
0.002,0.04,0.03,-0.23,0.03,-0.19,-0.09,
0.003,0.04,0.03,-0.23,0.02,-0.20,-0.09,
0.003,-0.04,-0.10,-0.21,0.02,-0.20,-0.09,
0.003,-0.04,-0.10,-0.21,0.01,-0.21,-0.09,
0.004,-0.04,-0.10,-0.21,0.01,-0.22,-0.08,
0.004,-0.04,-0.10,-0.21,-0.00,-0.23,-0.08,
0.004,-0.04,-0.10,-0.21,-0.02,-0.23,-0.09,
0.008,-0.04,-0.10,-0.21,-0.03,-0.24,-0.09,
0.008,-0.08,-0.29,-0.42,-0.03,-0.24,-0.09,
0.009,-0.08,-0.29,-0.42,-0.05,-0.25,-0.10,
0.01,-0.08,-0.29,-0.42,-0.07,-0.26,-0.10,
0.014,-0.08,-0.29,-0.42,-0.09,-0.28,-0.11,
0.015,-0.08,-0.29,-0.42,-0.12,-0.29,-0.12,
0.016,-0.08,-0.29,-0.42,-0.14,-0.30,-0.12,
0.022,-0.08,-0.46,-0.68,-0.14,-0.30,-0.12,
0.029,-0.08,-0.46,-0.68,-0.17,-0.32,-0.14,
0.029,-0.08,-0.46,-0.68,-0.20,-0.33,-0.15,
0.03,-0.08,-0.46,-0.68,-0.23,-0.34,-0.16,
0.03,-0.08,-0.46,-0.68,-0.27,-0.35,-0.17,
0.03,-0.08,-0.46,-0.68,-0.30,-0.36,-0.19,
0.03,-0.19,-0.53,-0.86,-0.30,-0.36,-0.19,
0.03,-0.19,-0.53,-0.86,-0.33,-0.37,-0.20,
0.031,-0.19,-0.53,-0.86,-0.36,-0.38,-0.21,
0.033,-0.19,-0.53,-0.86,-0.39,-0.38,-0.23,
0.034,-0.19,-0.53,-0.86,-0.42,-0.39,-0.25,
0.035,-0.19,-0.53,-0.86,-0.45,-0.40,-0.26,
0.038,-0.23,-0.57,-0.88,-0.45,-0.40,-0.26,
0.038,-0.23,-0.57,-0.88,-0.47,-0.41,-0.27,
0.039,-0.23,-0.57,-0.88,-0.49,-0.42,-0.29,
0.042,-0.23,-0.57,-0.88,-0.51,-0.44,-0.30,
0.044,-0.23,-0.57,-0.88,-0.53,-0.45,-0.32,
0.046,-0.23,-0.57,-0.88,-0.54,-0.47,-0.33,
0.048,-0.17,-0.59,-0.86,-0.54,-0.47,-0.33,
0.048,-0.17,-0.59,-0.86,-0.56,-0.48,-0.34,
0.049,-0.17,-0.59,-0.86,-0.57,-0.49,-0.36,
0.051,-0.17,-0.59,-0.86,-0.58,-0.50,-0.37,
0.053,-0.17,-0.59,-0.86,-0.58,-0.51,-0.38,
0.055,-0.17,-0.59,-0.86,-0.58,-0.52,-0.39,
0.059,-0.33,-0.46,-0.80,-0.58,-0.52,-0.39,
0.059,-0.33,-0.46,-0.80,-0.58,-0.53,-0.39,
0.06,-0.33,-0.46,-0.80,-0.58,-0.54,-0.40,
0.061,-0.33,-0.46,-0.80,-0.57,-0.55,-0.41,
0.063,-0.33,-0.46,-0.80,-0.57,-0.55,-0.43,
0.065,-0.33,-0.46,-0.80,-0.56,-0.54,-0.45,
0.068,-0.50,-0.16,-0.78,-0.56,-0.54,-0.45,
0.068,-0.50,-0.16,-0.78,-0.56,-0.53,-0.48,
0.069,-0.50,-0.16,-0.78,-0.55,-0.53,-0.50,
0.071,-0.50,-0.16,-0.78,-0.54,-0.53,-0.51,
0.075,-0.50,-0.16,-0.78,-0.52,-0.54,-0.53,
0.076,-0.50,-0.16,-0.78,-0.51,-0.54,-0.54,
0.078,-0.83,0.03,-0.82,-0.51,-0.54,-0.54,
0.079,-0.83,0.03,-0.82,-0.49,-0.54,-0.54,
0.079,-0.83,0.03,-0.82,-0.46,-0.54,-0.55,
0.081,-0.83,0.03,-0.82,-0.44,-0.54,-0.55,
0.083,-0.83,0.03,-0.82,-0.41,-0.54,-0.55,
0.085,-0.83,0.03,-0.82,-0.38,-0.53,-0.54,
0.087,-1.38,0.28,-0.78,-0.38,-0.53,-0.54,
0.088,-1.38,0.28,-0.78,-0.35,-0.53,-0.53,
0.089,-1.38,0.28,-0.78,-0.32,-0.52,-0.52,
0.093,-1.38,0.28,-0.78,-0.29,-0.51,-0.51,
0.093,-1.38,0.28,-0.78,-0.26,-0.49,-0.49,
0.096,-1.38,0.28,-0.78,-0.23,-0.47,-0.47,
0.098,-1.75,0.49,-0.75,-0.23,-0.47,-0.47,
0.098,-1.75,0.49,-0.75,-0.19,-0.46,-0.45,
0.099,-1.75,0.49,-0.75,-0.16,-0.44,-0.43,
0.101,-1.75,0.49,-0.75,-0.12,-0.41,-0.40,
0.103,-1.75,0.49,-0.75,-0.09,-0.39,-0.38,
0.105,-1.75,0.49,-0.75,-0.06,-0.36,-0.35,
0.108,-1.82,0.70,-0.83,-0.06,-0.36,-0.35,
0.108,-1.82,0.70,-0.83,-0.03,-0.31,-0.32,
0.11,-1.82,0.70,-0.83,0.00,-0.27,-0.29,
0.112,-1.82,0.70,-0.83,0.03,-0.21,-0.26,
0.114,-1.82,0.70,-0.83,0.05,-0.16,-0.23,
0.143,-1.82,0.70,-0.83,0.08,-0.10,-0.20,
0.143,-1.75,0.70,-0.96,0.08,-0.10,-0.20,
0.143,-1.75,0.70,-0.96,0.10,-0.04,-0.17,
0.144,-1.75,0.70,-0.96,0.11,0.02,-0.13,
0.144,-1.75,0.70,-0.96,0.13,0.08,-0.10,
0.144,-1.75,0.70,-0.96,0.14,0.13,-0.07,
0.144,-1.75,0.70,-0.96,0.16,0.19,-0.04,
0.145,-1.84,0.58,-1.03,0.16,0.19,-0.04,
0.145,-1.84,0.58,-1.03,0.17,0.24,-0.01,
0.145,-1.84,0.58,-1.03,0.18,0.30,0.02,
0.146,-1.84,0.58,-1.03,0.18,0.35,0.04,
0.146,-1.84,0.58,-1.03,0.19,0.40,0.06,
0.146,-1.84,0.58,-1.03,0.19,0.44,0.08,
0.146,-1.68,0.34,-1.10,0.19,0.44,0.08,
0.147,-1.68,0.34,-1.10,0.19,0.48,0.10,
0.147,-1.68,0.34,-1.10,0.19,0.51,0.12,
0.147,-1.68,0.34,-1.10,0.19,0.54,0.13,
0.147,-1.68,0.34,-1.10,0.19,0.57,0.14,
0.148,-1.68,0.34,-1.10,0.18,0.59,0.15,
0.15,-1.50,0.24,-1.10,0.18,0.59,0.15,
0.15,-1.50,0.24,-1.10,0.17,0.61,0.16,
0.151,-1.50,0.24,-1.10,0.17,0.63,0.16,
0.152,-1.50,0.24,-1.10,0.16,0.64,0.17,
0.153,-1.50,0.24,-1.10,0.16,0.66,0.17,
0.155,-1.50,0.24,-1.10,0.15,0.67,0.18,
0.158,-1.32,0.31,-0.79,0.15,0.67,0.18,
0.158,-1.32,0.31,-0.79,0.14,0.68,0.18,
0.175,-1.32,0.31,-0.79,0.13,0.69,0.18,
0.175,-1.32,0.31,-0.79,0.12,0.70,0.19,
0.175,-1.32,0.31,-0.79,0.11,0.71,0.19,
0.176,-1.32,0.31,-0.79,0.10,0.71,0.19,
0.176,-1.17,0.28,-0.76,0.10,0.71,0.19,
0.176,-1.17,0.28,-0.76,0.08,0.71,0.19,
0.176,-1.17,0.28,-0.76,0.07,0.70,0.19,
0.176,-1.17,0.28,-0.76,0.04,0.69,0.19,
0.176,-1.17,0.28,-0.76,0.02,0.65,0.18,
0.179,-1.17,0.28,-0.76,0.01,0.64,0.18,
0.179,-0.73,0.09,-0.94,0.01,0.64,0.18,
0.18,-0.73,0.09,-0.94,-0.02,0.61,0.18,
0.189,-0.73,0.09,-0.94,-0.04,0.58,0.17,
0.19,-0.73,0.09,-0.94,-0.06,0.56,0.17,
0.19,-0.73,0.09,-0.94,-0.09,0.53,0.16,
0.19,-0.73,0.09,-0.94,-0.12,0.52,0.16,
0.19,-0.68,-0.20,-1.04,-0.12,0.52,0.16,
0.19,-0.68,-0.20,-1.04,-0.14,0.50,0.15,
0.191,-0.68,-0.20,-1.04,-0.16,0.48,0.14,
0.195,-0.68,-0.20,-1.04,-0.17,0.48,0.13,
0.195,-0.68,-0.20,-1.04,-0.20,0.46,0.12,
0.195,-0.68,-0.20,-1.04,-0.22,0.46,0.11,
0.199,-0.48,-0.24,-0.90,-0.22,0.46,0.11,
0.199,-0.48,-0.24,-0.90,-0.23,0.46,0.10,
0.2,-0.48,-0.24,-0.90,-0.24,0.46,0.08,
0.202,-0.48,-0.24,-0.90,-0.26,0.46,0.07,
0.204,-0.48,-0.24,-0.90,-0.26,0.47,0.05,
0.206,-0.48,-0.24,-0.90,-0.27,0.47,0.03,
0.21,-0.21,-0.23,-0.84,-0.27,0.47,0.03,
0.21,-0.21,-0.23,-0.84,-0.28,0.47,0.02,
0.212,-0.21,-0.23,-0.84,-0.29,0.47,0.00,
0.213,-0.21,-0.23,-0.84,-0.29,0.48,-0.01,
0.214,-0.21,-0.23,-0.84,-0.29,0.49,-0.03,
0.216,-0.21,-0.23,-0.84,-0.30,0.49,-0.04,
0.218,-0.22,-0.22,-0.70,-0.30,0.49,-0.04,
0.218,-0.22,-0.22,-0.70,-0.30,0.50,-0.05,
0.219,-0.22,-0.22,-0.70,-0.30,0.50,-0.06,
0.223,-0.22,-0.22,-0.70,-0.30,0.50,-0.07,
0.224,-0.22,-0.22,-0.70,-0.30,0.50,-0.08,
0.228,-0.22,-0.22,-0.70,-0.30,0.51,-0.08,
0.231,-0.54,-0.11,-0.42,-0.30,0.51,-0.08,
0.231,-0.54,-0.11,-0.42,-0.30,0.51,-0.08,
0.232,-0.54,-0.11,-0.42,-0.30,0.52,-0.08,
0.232,-0.54,-0.11,-0.42,-0.29,0.52,-0.08,
0.236,-0.54,-0.11,-0.42,-0.30,0.53,-0.08,
0.236,-0.54,-0.11,-0.42,-0.29,0.54,-0.07,
0.24,-0.89,0.17,-0.34,-0.29,0.54,-0.07,
0.24,-0.89,0.17,-0.34,-0.29,0.56,-0.06,
0.24,-0.89,0.17,-0.34,-0.28,0.57,-0.05,
0.247,-0.89,0.17,-0.34,-0.27,0.59,-0.04,
0.248,-0.89,0.17,-0.34,-0.27,0.61,-0.03,
0.248,-0.89,0.17,-0.34,-0.26,0.63,-0.02,
0.248,-1.04,0.42,-0.41,-0.26,0.63,-0.02,
0.248,-1.04,0.42,-0.41,-0.25,0.66,-0.01,
0.25,-1.04,0.42,-0.41,-0.23,0.68,0.00,
0.252,-1.04,0.42,-0.41,-0.22,0.71,0.02,
0.255,-1.04,0.42,-0.41,-0.21,0.73,0.03,
0.256,-1.04,0.42,-0.41,-0.19,0.75,0.04,
0.258,-0.98,0.54,-0.30,-0.19,0.75,0.04,
0.259,-0.98,0.54,-0.30,-0.18,0.77,0.06,
0.259,-0.98,0.54,-0.30,-0.17,0.78,0.07,
0.262,-0.98,0.54,-0.30,-0.16,0.79,0.08,
0.264,-0.98,0.54,-0.30,-0.15,0.80,0.09,
0.265,-0.98,0.54,-0.30,-0.14,0.81,0.10,
0.267,-0.73,0.35,-0.33,-0.14,0.81,0.10,
0.268,-0.73,0.35,-0.33,-0.13,0.81,0.10,
0.269,-0.73,0.35,-0.33,-0.13,0.82,0.10,
0.273,-0.73,0.35,-0.33,-0.13,0.83,0.10,
0.274,-0.73,0.35,-0.33,-0.12,0.84,0.09,
0.284,-0.73,0.35,-0.33,-0.12,0.85,0.09,
0.285,-0.38,-0.03,-0.43,-0.12,0.85,0.09,
0.285,-0.38,-0.03,-0.43,-0.11,0.86,0.08,
0.285,-0.38,-0.03,-0.43,-0.10,0.89,0.07,
0.285,-0.38,-0.03,-0.43,-0.09,0.92,0.05,
0.285,-0.38,-0.03,-0.43,-0.08,0.95,0.04,
0.285,-0.38,-0.03,-0.43,-0.07,0.98,0.02,
0.304,-0.30,-0.32,-0.26,-0.07,0.98,0.02,
0.304,-0.30,-0.32,-0.26,-0.05,1.01,0.00,
0.304,-0.30,-0.32,-0.26,-0.03,1.03,-0.02,
0.304,-0.30,-0.32,-0.26,-0.01,1.06,-0.04,
0.304,-0.30,-0.32,-0.26,0.01,1.08,-0.07,
0.304,-0.30,-0.32,-0.26,0.03,1.10,-0.09,
0.305,-0.16,-0.46,-0.18,0.03,1.10,-0.09,
0.305,-0.16,-0.46,-0.18,0.05,1.10,-0.12,
0.305,-0.16,-0.46,-0.18,0.06,1.07,-0.15,
0.305,-0.16,-0.46,-0.18,0.08,1.02,-0.18,
0.305,-0.16,-0.46,-0.18,0.09,0.98,-0.21,
0.309,-0.16,-0.46,-0.18,0.10,0.95,-0.24,
0.309,-0.29,-0.60,0.16,0.10,0.95,-0.24,
0.309,-0.29,-0.60,0.16,0.11,0.94,-0.27,
0.31,-0.29,-0.60,0.16,0.13,0.94,-0.29,
0.313,-0.29,-0.60,0.16,0.15,0.94,-0.32,
0.316,-0.29,-0.60,0.16,0.17,0.93,-0.34,
0.316,-0.29,-0.60,0.16,0.19,0.92,-0.35,
0.318,-0.31,-0.62,0.15,0.19,0.92,-0.35,
0.318,-0.31,-0.62,0.15,0.22,0.90,-0.37,
0.319,-0.31,-0.62,0.15,0.24,0.88,-0.39,
0.321,-0.31,-0.62,0.15,0.25,0.86,-0.40,
0.323,-0.31,-0.62,0.15,0.27,0.84,-0.42,
0.325,-0.31,-0.62,0.15,0.28,0.82,-0.43,
0.338,-0.53,-0.64,-0.34,0.28,0.82,-0.43,
0.338,-0.53,-0.64,-0.34,0.29,0.80,-0.44,
0.338,-0.53,-0.64,-0.34,0.31,0.77,-0.45,
0.339,-0.53,-0.64,-0.34,0.31,0.74,-0.46,
0.339,-0.53,-0.64,-0.34,0.31,0.71,-0.47,
0.339,-0.53,-0.64,-0.34,0.31,0.67,-0.48,
0.339,-0.32,-0.65,-1.28,0.31,0.67,-0.48,
0.339,-0.32,-0.65,-1.28,0.31,0.65,-0.49,
0.34,-0.32,-0.65,-1.28,0.30,0.63,-0.51,
0.342,-0.32,-0.65,-1.28,0.29,0.61,-0.53,
0.35,-0.32,-0.65,-1.28,0.29,0.60,-0.56,
0.35,-0.32,-0.65,-1.28,0.27,0.60,-0.58,
0.351,0.39,-0.65,-2.56,0.27,0.60,-0.58,
0.351,0.39,-0.65,-2.56,0.24,0.63,-0.65,
0.351,0.39,-0.65,-2.56,0.24,0.63,-0.65,
0.351,0.39,-0.65,-2.56,0.23,0.65,-0.70,
0.353,0.39,-0.65,-2.56,0.21,0.68,-0.74,
0.355,0.39,-0.65,-2.56,0.20,0.72,-0.79,
0.358,0.82,-0.80,-3.24,0.20,0.72,-0.79,
0.358,0.82,-0.80,-3.24,0.18,0.75,-0.84,
0.359,0.82,-0.80,-3.24,0.17,0.79,-0.90,
0.361,0.82,-0.80,-3.24,0.15,0.82,-0.96,
0.364,0.82,-0.80,-3.24,0.14,0.86,-1.02,
0.365,0.82,-0.80,-3.24,0.12,0.90,-1.08,
0.367,1.10,-1.01,-3.78,0.12,0.90,-1.08,
0.368,1.10,-1.01,-3.78,0.11,0.94,-1.13,
0.369,1.10,-1.01,-3.78,0.10,0.99,-1.19,
0.371,1.10,-1.01,-3.78,0.09,1.02,-1.25,
0.373,1.10,-1.01,-3.78,0.08,1.05,-1.29,
0.375,1.10,-1.01,-3.78,0.07,1.09,-1.34,
0.378,0.79,-1.19,-4.22,0.07,1.09,-1.34,
0.378,0.79,-1.19,-4.22,0.06,1.13,-1.38,
0.379,0.79,-1.19,-4.22,0.06,1.17,-1.41,
0.381,0.79,-1.19,-4.22,0.05,1.21,-1.44,
0.383,0.79,-1.19,-4.22,0.05,1.25,-1.46,
0.385,0.79,-1.19,-4.22,0.05,1.30,-1.48,
0.387,0.09,-1.26,-4.33,0.05,1.30,-1.48,
0.388,0.09,-1.26,-4.33,0.06,1.35,-1.50,
0.389,0.09,-1.26,-4.33,0.06,1.41,-1.51,
0.393,0.09,-1.26,-4.33,0.07,1.47,-1.51,
0.393,0.09,-1.26,-4.33,0.09,1.52,-1.52,
0.395,0.09,-1.26,-4.33,0.10,1.58,-1.51,
0.397,-0.06,-1.23,-4.20,0.10,1.58,-1.51,
0.397,-0.06,-1.23,-4.20,0.12,1.65,-1.51,
0.399,-0.06,-1.23,-4.20,0.14,1.71,-1.50,
0.401,-0.06,-1.23,-4.20,0.17,1.76,-1.49,
0.405,-0.06,-1.23,-4.20,0.20,1.82,-1.49,
0.405,-0.06,-1.23,-4.20,0.22,1.86,-1.48,
0.411,0.28,-0.99,-4.01,0.22,1.86,-1.48,
0.411,0.28,-0.99,-4.01,0.25,1.91,-1.47,
0.411,0.28,-0.99,-4.01,0.28,1.95,-1.45,
0.412,0.28,-0.99,-4.01,0.31,1.98,-1.44,
0.415,0.28,-0.99,-4.01,0.33,2.01,-1.43,
0.415,0.28,-0.99,-4.01,0.36,2.03,-1.42,
0.419,0.75,-0.75,-3.94,0.36,2.03,-1.42,
0.42,0.75,-0.75,-3.94,0.38,2.05,-1.42,
0.42,0.75,-0.75,-3.94,0.40,2.06,-1.41,
0.425,0.75,-0.75,-3.94,0.42,2.07,-1.41,
0.425,0.75,-0.75,-3.94,0.43,2.08,-1.41,
0.426,0.75,-0.75,-3.94,0.44,2.08,-1.42,
0.429,1.03,-0.78,-3.95,0.44,2.08,-1.42,
0.429,1.03,-0.78,-3.95,0.44,2.09,-1.42,
0.429,1.03,-0.78,-3.95,0.44,2.09,-1.44,
0.434,1.03,-0.78,-3.95,0.42,2.10,-1.45,
0.434,1.03,-0.78,-3.95,0.41,2.10,-1.47,
0.437,1.03,-0.78,-3.95,0.39,2.11,-1.50,
0.438,1.26,-1.30,-3.94,0.39,2.11,-1.50,
0.438,1.26,-1.30,-3.94,0.37,2.12,-1.52,
0.439,1.26,-1.30,-3.94,0.34,2.13,-1.56,
0.444,1.26,-1.30,-3.94,0.30,2.14,-1.59,
0.444,1.26,-1.30,-3.94,0.27,2.15,-1.62,
0.447,1.26,-1.30,-3.94,0.23,2.16,-1.66,
0.448,1.45,-2.06,-3.94,0.23,2.16,-1.66,
0.448,1.45,-2.06,-3.94,0.19,2.17,-1.69,
0.468,1.45,-2.06,-3.94,0.14,2.19,-1.73,
0.468,1.45,-2.06,-3.94,0.10,2.21,-1.76,
0.469,1.45,-2.06,-3.94,0.05,2.22,-1.80,
0.469,1.45,-2.06,-3.94,0.01,2.24,-1.84,
0.469,1.65,-2.53,-3.79,0.01,2.24,-1.84,
0.469,1.65,-2.53,-3.79,-0.03,2.25,-1.87,
0.469,1.65,-2.53,-3.79,-0.07,2.27,-1.91,
0.47,1.65,-2.53,-3.79,-0.10,2.29,-1.94,
0.47,1.65,-2.53,-3.79,-0.13,2.30,-1.97,
0.47,1.65,-2.53,-3.79,-0.16,2.32,-2.01,
0.47,1.56,-2.88,-3.50,-0.16,2.32,-2.01,
0.47,1.56,-2.88,-3.50,-0.17,2.34,-2.04,
0.471,1.56,-2.88,-3.50,-0.19,2.37,-2.07,
0.472,1.56,-2.88,-3.50,-0.20,2.40,-2.10,
0.474,1.56,-2.88,-3.50,-0.20,2.44,-2.13,
0.475,1.56,-2.88,-3.50,-0.20,2.49,-2.16,
0.478,1.31,-2.94,-3.14,-0.20,2.49,-2.16,
0.478,1.31,-2.94,-3.14,-0.19,2.54,-2.18,
0.479,1.31,-2.94,-3.14,-0.18,2.60,-2.21,
0.481,1.31,-2.94,-3.14,-0.16,2.67,-2.23,
0.483,1.31,-2.94,-3.14,-0.14,2.75,-2.25,
0.485,1.31,-2.94,-3.14,-0.11,2.83,-2.27,
0.487,1.10,-3.07,-2.77,-0.11,2.83,-2.27,
0.488,1.10,-3.07,-2.77,-0.07,2.92,-2.30,
0.491,1.10,-3.07,-2.77,-0.03,3.01,-2.31,
0.492,1.10,-3.07,-2.77,0.01,3.12,-2.34,
0.508,1.10,-3.07,-2.77,0.06,3.23,-2.36,
0.508,1.10,-3.07,-2.77,0.11,3.34,-2.39,
0.508,1.53,-2.94,-2.43,0.11,3.34,-2.39,
0.508,1.53,-2.94,-2.43,0.17,3.46,-2.42,
0.508,1.53,-2.94,-2.43,0.22,3.58,-2.44,
0.509,1.53,-2.94,-2.43,0.28,3.70,-2.48,
0.509,1.53,-2.94,-2.43,0.34,3.83,-2.51,
0.509,1.53,-2.94,-2.43,0.41,3.97,-2.55,
0.509,2.27,-2.97,-2.07,0.41,3.97,-2.55,
0.509,2.27,-2.97,-2.07,0.47,4.10,-2.59,
0.51,2.27,-2.97,-2.07,0.54,4.24,-2.63,
0.512,2.27,-2.97,-2.07,0.61,4.37,-2.67,
0.514,2.27,-2.97,-2.07,0.68,4.50,-2.72,
0.515,2.27,-2.97,-2.07,0.75,4.63,-2.76,
0.518,2.44,-2.90,-1.43,0.75,4.63,-2.76,
0.518,2.44,-2.90,-1.43,0.82,4.75,-2.81,
0.52,2.44,-2.90,-1.43,0.89,4.86,-2.86,
0.522,2.44,-2.90,-1.43,0.96,4.97,-2.91,
0.525,2.44,-2.90,-1.43,1.07,5.12,-2.98,
0.526,2.44,-2.90,-1.43,1.11,5.17,-3.01,
0.53,2.28,-3.18,-0.42,1.11,5.17,-3.01,
0.531,2.28,-3.18,-0.42,1.18,5.26,-3.06,
0.532,2.28,-3.18,-0.42,1.25,5.35,-3.11,
0.533,2.28,-3.18,-0.42,1.37,5.47,-3.19,
0.535,2.28,-3.18,-0.42,1.41,5.51,-3.22,
0.535,2.28,-3.18,-0.42,1.48,5.57,-3.27,
0.538,1.94,-3.47,0.48,1.48,5.57,-3.27,
0.539,1.94,-3.47,0.48,1.55,5.64,-3.33,
0.54,1.94,-3.47,0.48,1.63,5.69,-3.38,
0.544,1.94,-3.47,0.48,1.70,5.73,-3.44,
0.544,1.94,-3.47,0.48,1.77,5.75,-3.50,
0.545,1.94,-3.47,0.48,1.85,5.77,-3.56,
0.547,1.67,-3.89,1.18,1.85,5.77,-3.56,
0.548,1.67,-3.89,1.18,1.92,5.79,-3.61,
0.55,1.67,-3.89,1.18,1.99,5.80,-3.67,
0.551,1.67,-3.89,1.18,2.06,5.81,-3.74,
0.553,1.67,-3.89,1.18,2.13,5.81,-3.80,
0.56,1.67,-3.89,1.18,2.19,5.81,-3.86,
0.561,1.63,-4.04,1.38,2.19,5.81,-3.86,
0.562,1.63,-4.04,1.38,2.25,5.81,-3.93,
0.562,1.63,-4.04,1.38,2.32,5.80,-3.99,
0.563,1.63,-4.04,1.38,2.38,5.79,-4.05,
0.563,1.63,-4.04,1.38,2.43,5.79,-4.12,
0.565,1.63,-4.04,1.38,2.47,5.79,-4.17,
0.568,1.16,-3.97,1.29,2.47,5.79,-4.17,
0.568,1.16,-3.97,1.29,2.51,5.78,-4.23,
0.569,1.16,-3.97,1.29,2.55,5.77,-4.28,
0.573,1.16,-3.97,1.29,2.58,5.74,-4.32,
0.575,1.16,-3.97,1.29,2.60,5.69,-4.36,
0.575,1.16,-3.97,1.29,2.62,5.64,-4.40,
0.579,0.01,-3.08,1.27,2.62,5.64,-4.40,
0.579,0.01,-3.08,1.27,2.63,5.57,-4.43,
0.579,0.01,-3.08,1.27,2.64,5.49,-4.46,
0.582,0.01,-3.08,1.27,2.64,5.39,-4.48,
0.584,0.01,-3.08,1.27,2.65,5.29,-4.50,
0.586,0.01,-3.08,1.27,2.64,5.17,-4.51,
0.589,-1.12,-2.19,1.36,2.64,5.17,-4.51,
0.59,-1.12,-2.19,1.36,2.63,5.04,-4.53,
0.59,-1.12,-2.19,1.36,2.62,4.90,-4.53,
0.592,-1.12,-2.19,1.36,2.59,4.76,-4.53,
0.594,-1.12,-2.19,1.36,2.56,4.60,-4.53,
0.595,-1.12,-2.19,1.36,2.53,4.44,-4.53,
0.598,-2.33,-1.30,1.51,2.53,4.44,-4.53,
0.598,-2.33,-1.30,1.51,2.49,4.28,-4.52,
0.599,-2.33,-1.30,1.51,2.44,4.12,-4.50,
0.601,-2.33,-1.30,1.51,2.38,3.95,-4.49,
0.603,-2.33,-1.30,1.51,2.33,3.78,-4.47,
0.606,-2.33,-1.30,1.51,2.26,3.61,-4.45,
0.608,-3.33,-0.65,1.66,2.26,3.61,-4.45,
0.608,-3.33,-0.65,1.66,2.19,3.45,-4.44,
0.612,-3.33,-0.65,1.66,2.12,3.28,-4.42,
0.612,-3.33,-0.65,1.66,2.05,3.12,-4.40,
0.614,-3.33,-0.65,1.66,1.98,2.95,-4.38,
0.643,-3.33,-0.65,1.66,1.90,2.79,-4.36,
0.644,-4.33,-0.30,1.87,1.90,2.79,-4.36,
0.644,-4.33,-0.30,1.87,1.83,2.62,-4.34,
0.644,-4.33,-0.30,1.87,1.77,2.46,-4.33,
0.644,-4.33,-0.30,1.87,1.70,2.29,-4.31,
0.645,-4.33,-0.30,1.87,1.65,2.13,-4.30,
0.645,-4.33,-0.30,1.87,1.60,1.98,-4.29,
0.645,-5.07,-0.40,2.66,1.60,1.98,-4.29,
0.646,-5.07,-0.40,2.66,1.56,1.82,-4.27,
0.646,-5.07,-0.40,2.66,1.53,1.68,-4.26,
0.646,-5.07,-0.40,2.66,1.50,1.54,-4.26,
0.646,-5.07,-0.40,2.66,1.49,1.42,-4.25,
0.647,-5.07,-0.40,2.66,1.48,1.30,-4.24,
0.647,-5.30,-0.60,3.56,1.48,1.30,-4.24,
0.647,-5.30,-0.60,3.56,1.48,1.20,-4.23,
0.648,-5.30,-0.60,3.56,1.48,1.11,-4.23,
0.648,-5.30,-0.60,3.56,1.49,1.03,-4.22,
0.648,-5.30,-0.60,3.56,1.51,0.96,-4.21,
0.648,-5.30,-0.60,3.56,1.53,0.89,-4.20,
0.649,-5.48,-0.35,4.00,1.53,0.89,-4.20,
0.649,-5.48,-0.35,4.00,1.55,0.84,-4.19,
0.649,-5.48,-0.35,4.00,1.58,0.79,-4.17,
0.652,-5.48,-0.35,4.00,1.62,0.75,-4.16,
0.656,-5.48,-0.35,4.00,1.65,0.72,-4.14,
0.657,-5.48,-0.35,4.00,1.69,0.70,-4.12,
0.662,-5.51,0.37,3.68,1.69,0.70,-4.12,
0.663,-5.51,0.37,3.68,1.73,0.68,-4.10,
0.683,-5.51,0.37,3.68,1.78,0.67,-4.07,
0.683,-5.51,0.37,3.68,1.82,0.66,-4.05,
0.684,-5.51,0.37,3.68,1.87,0.67,-4.02,
0.684,-5.51,0.37,3.68,1.92,0.68,-4.00,
0.684,-5.38,1.05,2.98,1.92,0.68,-4.00,
0.685,-5.38,1.05,2.98,1.97,0.69,-3.97,
0.685,-5.38,1.05,2.98,2.01,0.71,-3.95,
0.685,-5.38,1.05,2.98,2.06,0.73,-3.92,
0.685,-5.38,1.05,2.98,2.11,0.76,-3.90,
0.686,-5.38,1.05,2.98,2.16,0.79,-3.87,
0.686,-5.20,1.40,2.23,2.16,0.79,-3.87,
0.686,-5.20,1.40,2.23,2.21,0.83,-3.85,
0.687,-5.20,1.40,2.23,2.26,0.86,-3.83,
0.687,-5.20,1.40,2.23,2.31,0.91,-3.80,
0.687,-5.20,1.40,2.23,2.36,0.97,-3.78,
0.687,-5.20,1.40,2.23,2.41,1.03,-3.76,
0.694,-5.26,1.52,1.45,2.41,1.03,-3.76,
0.694,-5.26,1.52,1.45,2.45,1.09,-3.74,
0.694,-5.26,1.52,1.45,2.50,1.17,-3.72,
0.695,-5.26,1.52,1.45,2.55,1.24,-3.70,
0.695,-5.26,1.52,1.45,2.59,1.30,-3.69,
0.699,-5.26,1.52,1.45,2.64,1.37,-3.68,
0.7,-5.43,1.08,0.82,2.64,1.37,-3.68,
0.7,-5.43,1.08,0.82,2.68,1.43,-3.68,
0.7,-5.43,1.08,0.82,2.72,1.49,-3.67,
0.702,-5.43,1.08,0.82,2.77,1.53,-3.67,
0.705,-5.43,1.08,0.82,2.81,1.57,-3.66,
0.706,-5.43,1.08,0.82,2.85,1.60,-3.66,
0.708,-5.56,0.80,0.44,2.85,1.60,-3.66,
0.708,-5.56,0.80,0.44,2.89,1.62,-3.65,
0.71,-5.56,0.80,0.44,2.92,1.63,-3.64,
0.712,-5.56,0.80,0.44,2.95,1.64,-3.62,
0.714,-5.56,0.80,0.44,2.98,1.64,-3.61,
0.715,-5.56,0.80,0.44,3.00,1.63,-3.59,
0.718,-5.78,0.81,0.08,3.00,1.63,-3.59,
0.718,-5.78,0.81,0.08,3.02,1.62,-3.57,
0.719,-5.78,0.81,0.08,3.04,1.60,-3.55,
0.724,-5.78,0.81,0.08,3.05,1.58,-3.52,
0.724,-5.78,0.81,0.08,3.05,1.55,-3.49,
0.726,-5.78,0.81,0.08,3.06,1.52,-3.46,
0.728,-6.20,1.13,-0.32,3.06,1.52,-3.46,
0.728,-6.20,1.13,-0.32,3.06,1.48,-3.42,
0.73,-6.20,1.13,-0.32,3.05,1.43,-3.38,
0.732,-6.20,1.13,-0.32,3.05,1.38,-3.33,
0.734,-6.20,1.13,-0.32,3.03,1.32,-3.28,
0.736,-6.20,1.13,-0.32,3.02,1.26,-3.22,
0.74,-6.86,1.32,-0.50,3.02,1.26,-3.22,
0.74,-6.86,1.32,-0.50,3.00,1.19,-3.16,
0.741,-6.86,1.32,-0.50,2.98,1.12,-3.10,
0.742,-6.86,1.32,-0.50,2.95,1.06,-3.05,
0.743,-6.86,1.32,-0.50,2.92,0.99,-2.98,
0.746,-6.86,1.32,-0.50,2.89,0.93,-2.92,
0.748,-7.16,1.45,-0.79,2.89,0.93,-2.92,
0.749,-7.16,1.45,-0.79,2.85,0.87,-2.85,
0.75,-7.16,1.45,-0.79,2.81,0.81,-2.79,
0.751,-7.16,1.45,-0.79,2.78,0.76,-2.73,
0.755,-7.16,1.45,-0.79,2.73,0.70,-2.67,
0.756,-7.16,1.45,-0.79,2.69,0.65,-2.61,
0.758,-7.08,1.39,-1.07,2.69,0.65,-2.61,
0.758,-7.08,1.39,-1.07,2.64,0.59,-2.55,
0.759,-7.08,1.39,-1.07,2.59,0.54,-2.49,
0.761,-7.08,1.39,-1.07,2.55,0.48,-2.44,
0.763,-7.08,1.39,-1.07,2.50,0.43,-2.38,
0.765,-7.08,1.39,-1.07,2.45,0.38,-2.33,
0.768,-7.01,1.59,-1.32,2.45,0.38,-2.33,
0.768,-7.01,1.59,-1.32,2.40,0.34,-2.28,
0.774,-7.01,1.59,-1.32,2.36,0.30,-2.23,
0.775,-7.01,1.59,-1.32,2.32,0.26,-2.17,
0.775,-7.01,1.59,-1.32,2.29,0.24,-2.12,
0.776,-7.01,1.59,-1.32,2.25,0.22,-2.07,
0.778,-6.77,1.55,-1.19,2.25,0.22,-2.07,
0.778,-6.77,1.55,-1.19,2.22,0.21,-2.02,
0.779,-6.77,1.55,-1.19,2.20,0.21,-1.97,
0.798,-6.77,1.55,-1.19,2.18,0.22,-1.91,
0.798,-6.77,1.55,-1.19,2.16,0.23,-1.86,
0.798,-6.77,1.55,-1.19,2.15,0.25,-1.81,
0.799,-6.46,1.42,-1.02,2.15,0.25,-1.81,
0.799,-6.46,1.42,-1.02,2.14,0.26,-1.76,
0.799,-6.46,1.42,-1.02,2.14,0.28,-1.71,
0.799,-6.46,1.42,-1.02,2.13,0.29,-1.66,
0.799,-6.46,1.42,-1.02,2.13,0.30,-1.60,
0.8,-6.46,1.42,-1.02,2.13,0.30,-1.55,
0.8,-6.39,1.23,-0.84,2.13,0.30,-1.55,
0.8,-6.39,1.23,-0.84,2.13,0.28,-1.50,
0.8,-6.39,1.23,-0.84,2.13,0.25,-1.44,
0.802,-6.39,1.23,-0.84,2.13,0.22,-1.39,
0.804,-6.39,1.23,-0.84,2.12,0.19,-1.33,
0.81,-6.39,1.23,-0.84,2.11,0.14,-1.26,
0.81,-6.59,1.38,-0.69,2.11,0.14,-1.26,
0.81,-6.59,1.38,-0.69,2.10,0.10,-1.20,
0.81,-6.59,1.38,-0.69,2.08,0.05,-1.13,
0.812,-6.59,1.38,-0.69,2.06,-0.00,-1.06,
0.813,-6.59,1.38,-0.69,2.04,-0.05,-0.98,
0.815,-6.59,1.38,-0.69,2.01,-0.10,-0.90,
0.818,-6.60,1.49,-0.87,2.01,-0.10,-0.90,
0.818,-6.60,1.49,-0.87,1.98,-0.15,-0.82,
0.82,-6.60,1.49,-0.87,1.94,-0.19,-0.75,
0.821,-6.60,1.49,-0.87,1.90,-0.25,-0.67,
0.824,-6.60,1.49,-0.87,1.85,-0.30,-0.59,
0.825,-6.60,1.49,-0.87,1.80,-0.35,-0.51,
0.837,-6.36,1.60,-1.74,1.80,-0.35,-0.51,
0.837,-6.36,1.60,-1.74,1.74,-0.41,-0.44,
0.838,-6.36,1.60,-1.74,1.67,-0.46,-0.37,
0.838,-6.36,1.60,-1.74,1.60,-0.51,-0.30,
0.838,-6.36,1.60,-1.74,1.52,-0.56,-0.24,
0.838,-6.36,1.60,-1.74,1.44,-0.62,-0.18,
0.838,-5.57,1.68,-2.94,1.44,-0.62,-0.18,
0.838,-5.57,1.68,-2.94,1.35,-0.67,-0.12,
0.84,-5.57,1.68,-2.94,1.25,-0.71,-0.07,
0.842,-5.57,1.68,-2.94,1.15,-0.76,-0.01,
0.843,-5.57,1.68,-2.94,1.05,-0.79,0.04,
0.85,-5.57,1.68,-2.94,0.95,-0.83,0.09,
0.85,-4.74,1.77,-3.89,0.95,-0.83,0.09,
0.851,-4.74,1.77,-3.89,0.85,-0.86,0.14,
0.851,-4.74,1.77,-3.89,0.75,-0.88,0.18,
0.852,-4.74,1.77,-3.89,0.65,-0.89,0.23,
0.855,-4.74,1.77,-3.89,0.56,-0.90,0.27,
0.856,-4.74,1.77,-3.89,0.47,-0.91,0.31,
0.859,-3.67,1.55,-3.72,0.47,-0.91,0.31,
0.859,-3.67,1.55,-3.72,0.37,-0.90,0.35,
0.859,-3.67,1.55,-3.72,0.29,-0.90,0.39,
0.862,-3.67,1.55,-3.72,0.22,-0.89,0.43,
0.863,-3.67,1.55,-3.72,0.15,-0.88,0.47,
0.866,-3.67,1.55,-3.72,0.09,-0.86,0.50,
0.868,-2.91,1.25,-2.92,0.09,-0.86,0.50,
0.868,-2.91,1.25,-2.92,0.03,-0.83,0.54,
0.87,-2.91,1.25,-2.92,-0.01,-0.79,0.57,
0.871,-2.91,1.25,-2.92,-0.06,-0.74,0.60,
0.876,-2.91,1.25,-2.92,-0.10,-0.67,0.64,
0.876,-2.91,1.25,-2.92,-0.12,-0.64,0.66,
0.877,-2.26,0.88,-1.85,-0.12,-0.64,0.66,
0.878,-2.26,0.88,-1.85,-0.13,-0.60,0.69,
0.879,-2.26,0.88,-1.85,-0.15,-0.55,0.72,
0.881,-2.26,0.88,-1.85,-0.15,-0.51,0.75,
0.883,-2.26,0.88,-1.85,-0.15,-0.47,0.79,
0.885,-2.26,0.88,-1.85,-0.15,-0.42,0.82,
0.888,-1.68,0.77,-1.15,-0.15,-0.42,0.82,
0.888,-1.68,0.77,-1.15,-0.14,-0.37,0.85,
0.889,-1.68,0.77,-1.15,-0.13,-0.32,0.88,
0.892,-1.68,0.77,-1.15,-0.12,-0.26,0.92,
0.893,-1.68,0.77,-1.15,-0.10,-0.19,0.95,
0.895,-1.68,0.77,-1.15,-0.09,-0.13,0.98,
0.897,-1.07,0.52,-0.57,-0.09,-0.13,0.98,
0.897,-1.07,0.52,-0.57,-0.07,-0.07,1.00,
0.899,-1.07,0.52,-0.57,-0.05,-0.01,1.03,
0.901,-1.07,0.52,-0.57,-0.04,0.04,1.05,
0.903,-1.07,0.52,-0.57,-0.02,0.09,1.07,
0.905,-1.07,0.52,-0.57,-0.00,0.14,1.09,
0.907,-0.33,-0.10,-0.47,-0.00,0.14,1.09,
0.908,-0.33,-0.10,-0.47,0.01,0.20,1.10,
0.909,-0.33,-0.10,-0.47,0.01,0.26,1.10,
0.911,-0.33,-0.10,-0.47,0.02,0.33,1.10,
0.913,-0.33,-0.10,-0.47,0.02,0.39,1.10,
0.915,-0.33,-0.10,-0.47,0.03,0.46,1.09,
0.917,0.52,-0.73,-0.37,0.03,0.46,1.09,
0.917,0.52,-0.73,-0.37,0.03,0.53,1.07,
0.919,0.52,-0.73,-0.37,0.04,0.60,1.06,
0.921,0.52,-0.73,-0.37,0.04,0.71,1.02,
0.923,0.52,-0.73,-0.37,0.04,0.75,1.01,
0.925,0.52,-0.73,-0.37,0.05,0.81,0.98,
0.927,1.19,-1.20,0.29,0.05,0.81,0.98,
0.928,1.19,-1.20,0.29,0.06,0.87,0.95,
0.929,1.19,-1.20,0.29,0.07,0.93,0.91,
0.931,1.19,-1.20,0.29,0.09,0.98,0.88,
0.933,1.19,-1.20,0.29,0.10,1.02,0.85,
0.935,1.19,-1.20,0.29,0.12,1.06,0.81,
0.938,1.23,-1.26,1.22,0.12,1.06,0.81,
0.938,1.23,-1.26,1.22,0.14,1.08,0.78,
0.939,1.23,-1.26,1.22,0.17,1.10,0.75,
0.941,1.23,-1.26,1.22,0.19,1.11,0.73,
0.945,1.23,-1.26,1.22,0.22,1.12,0.71,
0.946,1.23,-1.26,1.22,0.26,1.12,0.69,
0.947,0.96,-1.10,2.12,0.26,1.12,0.69,
0.948,0.96,-1.10,2.12,0.29,1.11,0.67,
0.99,0.96,-1.10,2.12,0.32,1.10,0.66,
0.991,0.96,-1.10,2.12,0.35,1.07,0.65,
0.991,0.96,-1.10,2.12,0.37,1.04,0.65,
0.992,0.96,-1.10,2.12,0.40,0.99,0.64,
0.992,0.70,-0.71,2.28,0.40,0.99,0.64,
0.992,0.70,-0.71,2.28,0.42,0.94,0.65,
0.993,0.70,-0.71,2.28,0.43,0.88,0.65,
0.993,0.70,-0.71,2.28,0.44,0.82,0.66,
0.993,0.70,-0.71,2.28,0.44,0.76,0.67,
0.994,0.70,-0.71,2.28,0.44,0.70,0.67,
0.994,0.66,-0.29,1.71,0.44,0.70,0.67,
0.994,0.66,-0.29,1.71,0.43,0.65,0.69,
0.995,0.66,-0.29,1.71,0.42,0.61,0.70,
0.995,0.66,-0.29,1.71,0.39,0.56,0.72,
0.996,0.66,-0.29,1.71,0.38,0.54,0.72,
0.996,0.66,-0.29,1.71,0.35,0.51,0.74,
0.996,0.31,0.00,0.94,0.35,0.51,0.74,
0.997,0.31,0.00,0.94,0.32,0.49,0.75,
0.997,0.31,0.00,0.94,0.30,0.48,0.76,
0.998,0.31,0.00,0.94,0.25,0.45,0.78,
0.998,0.31,0.00,0.94,0.24,0.44,0.79,
0.998,0.31,0.00,0.94,0.18,0.42,0.81,
0.999,-0.01,0.18,0.30,0.18,0.42,0.81,
0.999,-0.01,0.18,0.30,0.14,0.41,0.82,
0.999,-0.01,0.18,0.30,0.12,0.39,0.82,
1.0,-0.01,0.18,0.30,0.06,0.36,0.83,
1.021,-0.01,0.18,0.30,0.02,0.34,0.84,
1.021,-0.01,0.18,0.30,-0.01,0.32,0.85,
1.022,0.33,0.18,-0.04,-0.01,0.32,0.85,
1.022,0.33,0.18,-0.04,-0.05,0.30,0.85,
1.022,0.33,0.18,-0.04,-0.07,0.30,0.85,
1.023,0.33,0.18,-0.04,-0.11,0.31,0.85,
1.023,0.33,0.18,-0.04,-0.13,0.33,0.85,
1.023,0.33,0.18,-0.04,-0.15,0.35,0.85,
1.024,0.82,0.26,0.38,-0.15,0.35,0.85,
1.024,0.82,0.26,0.38,-0.17,0.37,0.85,
1.024,0.82,0.26,0.38,-0.19,0.37,0.84,
1.025,0.82,0.26,0.38,-0.21,0.36,0.84,
1.025,0.82,0.26,0.38,-0.23,0.36,0.83,
1.025,0.82,0.26,0.38,-0.25,0.35,0.82,
1.026,1.83,0.17,0.23,-0.25,0.35,0.82,
1.026,1.83,0.17,0.23,-0.27,0.35,0.81,
1.027,1.83,0.17,0.23,-0.30,0.35,0.79,
1.027,1.83,0.17,0.23,-0.32,0.36,0.78,
1.027,1.83,0.17,0.23,-0.33,0.38,0.77,
1.028,1.83,0.17,0.23,-0.35,0.41,0.75,
1.028,2.23,0.09,0.04,-0.35,0.41,0.75,
1.028,2.23,0.09,0.04,-0.37,0.45,0.74,
1.03,2.23,0.09,0.04,-0.38,0.49,0.72,
1.042,2.23,0.09,0.04,-0.40,0.52,0.71,
1.042,2.23,0.09,0.04,-0.41,0.55,0.70,
1.042,2.23,0.09,0.04,-0.43,0.58,0.69,
1.042,2.02,0.22,-0.07,-0.43,0.58,0.69,
1.042,2.02,0.22,-0.07,-0.44,0.60,0.68,
1.043,2.02,0.22,-0.07,-0.45,0.62,0.68,
1.043,2.02,0.22,-0.07,-0.47,0.63,0.68,
1.043,2.02,0.22,-0.07,-0.48,0.63,0.68,
1.045,2.02,0.22,-0.07,-0.49,0.63,0.68,
1.047,1.69,0.21,-0.19,-0.49,0.63,0.68,
1.048,1.69,0.21,-0.19,-0.50,0.64,0.68,
1.049,1.69,0.21,-0.19,-0.50,0.64,0.68,
1.054,1.69,0.21,-0.19,-0.51,0.64,0.69,
1.054,1.69,0.21,-0.19,-0.52,0.64,0.70,
1.055,1.69,0.21,-0.19,-0.52,0.64,0.71,
1.058,1.32,0.24,-0.22,-0.52,0.64,0.71,
1.058,1.32,0.24,-0.22,-0.53,0.64,0.72,
1.059,1.32,0.24,-0.22,-0.54,0.64,0.73,
1.061,1.32,0.24,-0.22,-0.55,0.64,0.73,
1.063,1.32,0.24,-0.22,-0.56,0.64,0.74,
1.065,1.32,0.24,-0.22,-0.57,0.63,0.74,
1.068,1.15,0.10,-0.43,-0.57,0.63,0.74,
1.068,1.15,0.10,-0.43,-0.58,0.62,0.75,
1.069,1.15,0.10,-0.43,-0.59,0.61,0.75,
1.072,1.15,0.10,-0.43,-0.59,0.60,0.74,
1.074,1.15,0.10,-0.43,-0.60,0.59,0.73,
1.075,1.15,0.10,-0.43,-0.60,0.58,0.72,
1.077,1.24,-0.13,-0.42,-0.60,0.58,0.72,
1.078,1.24,-0.13,-0.42,-0.60,0.58,0.71,
1.079,1.24,-0.13,-0.42,-0.60,0.57,0.70,
1.081,1.24,-0.13,-0.42,-0.60,0.56,0.69,
1.083,1.24,-0.13,-0.42,-0.60,0.55,0.68,
1.085,1.24,-0.13,-0.42,-0.59,0.53,0.68,
1.088,0.91,-0.12,-0.40,-0.59,0.53,0.68,
1.089,0.91,-0.12,-0.40,-0.59,0.52,0.67,
1.09,0.91,-0.12,-0.40,-0.59,0.51,0.67,
1.091,0.91,-0.12,-0.40,-0.59,0.49,0.67,
1.093,0.91,-0.12,-0.40,-0.59,0.48,0.68,
1.096,0.91,-0.12,-0.40,-0.60,0.47,0.69,
1.098,0.08,0.10,-0.85,-0.60,0.47,0.69,
1.098,0.08,0.10,-0.85,-0.61,0.46,0.71,
1.1,0.08,0.10,-0.85,-0.64,0.45,0.72,
1.101,0.08,0.10,-0.85,-0.68,0.44,0.74,
1.103,0.08,0.10,-0.85,-0.73,0.42,0.76,
1.105,0.08,0.10,-0.85,-0.78,0.40,0.78,
1.108,-0.45,0.30,-2.23,-0.78,0.40,0.78,
1.108,-0.45,0.30,-2.23,-0.83,0.37,0.80,
1.109,-0.45,0.30,-2.23,-0.89,0.34,0.82,
1.111,-0.45,0.30,-2.23,-0.95,0.31,0.84,
1.113,-0.45,0.30,-2.23,-1.00,0.27,0.86,
1.15,-0.45,0.30,-2.23,-1.05,0.23,0.88,
1.15,-1.00,0.60,-2.10,-1.05,0.23,0.88,
1.151,-1.00,0.60,-2.10,-1.10,0.19,0.90,
1.151,-1.00,0.60,-2.10,-1.16,0.15,0.93,
1.151,-1.00,0.60,-2.10,-1.21,0.09,0.95,
1.152,-1.00,0.60,-2.10,-1.27,0.03,0.97,
1.152,-1.00,0.60,-2.10,-1.33,-0.04,1.00,
1.152,-1.36,0.87,-1.74,-1.33,-0.04,1.00,
1.153,-1.36,0.87,-1.74,-1.39,-0.11,1.02,
1.153,-1.36,0.87,-1.74,-1.45,-0.16,1.05,
1.154,-1.36,0.87,-1.74,-1.51,-0.21,1.08,
1.154,-1.36,0.87,-1.74,-1.56,-0.24,1.11,
1.154,-1.36,0.87,-1.74,-1.61,-0.25,1.13,
1.155,-1.18,0.88,-1.53,-1.61,-0.25,1.13,
1.155,-1.18,0.88,-1.53,-1.65,-0.25,1.16,
1.155,-1.18,0.88,-1.53,-1.69,-0.23,1.18,
1.155,-1.18,0.88,-1.53,-1.73,-0.21,1.19,
1.156,-1.18,0.88,-1.53,-1.76,-0.19,1.21,
1.156,-1.18,0.88,-1.53,-1.78,-0.18,1.23,
1.156,0.05,0.34,-1.04,-1.78,-0.18,1.23,
1.157,0.05,0.34,-1.04,-1.80,-0.17,1.23,
1.157,0.05,0.34,-1.04,-1.80,-0.18,1.24,
1.157,0.05,0.34,-1.04,-1.77,-0.19,1.25,
1.158,0.05,0.34,-1.04,-1.72,-0.19,1.24,
1.158,0.05,0.34,-1.04,-1.63,-0.18,1.23,
1.158,-0.11,0.89,2.54,-1.63,-0.18,1.23,
1.158,-0.11,0.89,2.54,-1.52,-0.16,1.22,
1.183,-0.11,0.89,2.54,-1.40,-0.14,1.21,
1.184,-0.11,0.89,2.54,-1.28,-0.13,1.20,
1.184,-0.11,0.89,2.54,-1.16,-0.14,1.19,
1.185,-0.11,0.89,2.54,-1.04,-0.16,1.18,
1.185,0.71,0.82,4.60,-1.04,-0.16,1.18,
1.186,0.71,0.82,4.60,-0.94,-0.20,1.17,
1.186,0.71,0.82,4.60,-0.83,-0.26,1.17,
1.186,0.71,0.82,4.60,-0.73,-0.33,1.15,
1.187,0.71,0.82,4.60,-0.63,-0.38,1.13,
1.187,0.71,0.82,4.60,-0.53,-0.43,1.10,
1.188,3.25,-0.36,3.29,-0.53,-0.43,1.10,
1.188,3.25,-0.36,3.29,-0.43,-0.43,1.07,
1.188,3.25,-0.36,3.29,-0.33,-0.40,1.04,
1.189,3.25,-0.36,3.29,-0.24,-0.33,1.00,
1.189,3.25,-0.36,3.29,-0.15,-0.24,0.94,
1.19,3.25,-0.36,3.29,-0.08,-0.14,0.88,
1.19,4.30,-0.33,2.97,-0.08,-0.14,0.88,
1.191,4.30,-0.33,2.97,-0.01,-0.05,0.82,
1.191,4.30,-0.33,2.97,0.05,0.04,0.75,
1.191,4.30,-0.33,2.97,0.11,0.13,0.67,
1.194,4.30,-0.33,2.97,0.16,0.20,0.59,
1.205,4.30,-0.33,2.97,0.21,0.25,0.50,
1.205,4.91,0.21,2.06,0.21,0.25,0.50,
1.205,4.91,0.21,2.06,0.25,0.30,0.42,
1.205,4.91,0.21,2.06,0.28,0.34,0.34,
1.206,4.91,0.21,2.06,0.30,0.36,0.26,
1.206,4.91,0.21,2.06,0.33,0.38,0.18,
1.206,4.91,0.21,2.06,0.34,0.40,0.11,
1.218,4.81,0.48,0.68,0.34,0.40,0.11,
1.22,4.81,0.48,0.68,0.35,0.42,0.03,
1.221,4.81,0.48,0.68,0.35,0.44,-0.03,
1.221,4.81,0.48,0.68,0.35,0.47,-0.10,
1.226,4.81,0.48,0.68,0.34,0.50,-0.16,
1.227,4.81,0.48,0.68,0.32,0.53,-0.21,
1.229,4.37,0.23,-0.77,0.32,0.53,-0.21,
1.23,4.37,0.23,-0.77,0.30,0.57,-0.26,
1.23,4.37,0.23,-0.77,0.27,0.61,-0.31,
1.23,4.37,0.23,-0.77,0.24,0.65,-0.35,
1.23,4.37,0.23,-0.77,0.21,0.70,-0.39,
1.23,4.37,0.23,-0.77,0.17,0.76,-0.42,
1.231,3.74,0.21,-1.76,0.17,0.76,-0.42,
1.231,3.74,0.21,-1.76,0.12,0.81,-0.45,
1.231,3.74,0.21,-1.76,0.07,0.87,-0.48,
1.231,3.74,0.21,-1.76,0.02,0.92,-0.50,
1.233,3.74,0.21,-1.76,-0.04,0.96,-0.52,
1.235,3.74,0.21,-1.76,-0.10,1.00,-0.54,
1.238,2.73,0.17,-2.70,-0.10,1.00,-0.54,
1.238,2.73,0.17,-2.70,-0.17,1.04,-0.56,
1.239,2.73,0.17,-2.70,-0.24,1.07,-0.57,
1.242,2.73,0.17,-2.70,-0.31,1.10,-0.58,
1.243,2.73,0.17,-2.70,-0.38,1.13,-0.58,
1.245,2.73,0.17,-2.70,-0.46,1.16,-0.59,
1.248,1.30,0.19,-3.42,-0.46,1.16,-0.59,
1.248,1.30,0.19,-3.42,-0.54,1.18,-0.59,
1.257,1.30,0.19,-3.42,-0.61,1.19,-0.59,
1.258,1.30,0.19,-3.42,-0.68,1.20,-0.59,
1.258,1.30,0.19,-3.42,-0.74,1.20,-0.59,
1.259,1.30,0.19,-3.42,-0.78,1.20,-0.58,
1.259,0.12,0.28,-2.42,-0.78,1.20,-0.58,
1.259,0.12,0.28,-2.42,-0.79,1.19,-0.57,
1.26,0.12,0.28,-2.42,-0.77,1.18,-0.56,
1.263,0.12,0.28,-2.42,-0.74,1.15,-0.56,
1.263,0.12,0.28,-2.42,-0.71,1.12,-0.55,
1.272,0.12,0.28,-2.42,-0.68,1.08,-0.54,
1.272,-0.72,0.40,-0.50,-0.68,1.08,-0.54,
1.272,-0.72,0.40,-0.50,-0.67,1.02,-0.53,
1.273,-0.72,0.40,-0.50,-0.67,0.96,-0.52,
1.273,-0.72,0.40,-0.50,-0.67,0.88,-0.51,
1.274,-0.72,0.40,-0.50,-0.67,0.81,-0.51,
1.277,-0.72,0.40,-0.50,-0.65,0.75,-0.50,
1.278,-1.20,0.13,-1.47,-0.65,0.75,-0.50,
1.279,-1.20,0.13,-1.47,-0.64,0.70,-0.50,
1.279,-1.20,0.13,-1.47,-0.62,0.66,-0.49,
1.303,-1.20,0.13,-1.47,-0.61,0.63,-0.49,
1.303,-1.20,0.13,-1.47,-0.60,0.60,-0.49,
1.304,-1.20,0.13,-1.47,-0.59,0.58,-0.49,
1.304,-1.11,-0.03,-1.56,-0.59,0.58,-0.49,
1.304,-1.11,-0.03,-1.56,-0.60,0.57,-0.49,
1.304,-1.11,-0.03,-1.56,-0.60,0.56,-0.49,
1.305,-1.11,-0.03,-1.56,-0.60,0.56,-0.50,
1.305,-1.11,-0.03,-1.56,-0.60,0.58,-0.51,
1.305,-1.11,-0.03,-1.56,-0.61,0.59,-0.52,
1.306,-0.62,0.21,-1.54,-0.61,0.59,-0.52,
1.306,-0.62,0.21,-1.54,-0.62,0.63,-0.53,
1.306,-0.62,0.21,-1.54,-0.63,0.66,-0.54,
1.306,-0.62,0.21,-1.54,-0.64,0.70,-0.56,
1.307,-0.62,0.21,-1.54,-0.65,0.74,-0.58,
1.307,-0.62,0.21,-1.54,-0.66,0.78,-0.59,
1.309,-0.01,0.70,-1.36,-0.66,0.78,-0.59,
1.309,-0.01,0.70,-1.36,-0.67,0.81,-0.61,
1.31,-0.01,0.70,-1.36,-0.68,0.85,-0.63,
1.312,-0.01,0.70,-1.36,-0.68,0.88,-0.66,
1.314,-0.01,0.70,-1.36,-0.69,0.91,-0.68,
1.315,-0.01,0.70,-1.36,-0.69,0.93,-0.70,
1.318,0.32,0.77,-0.92,-0.69,0.93,-0.70,
1.319,0.32,0.77,-0.92,-0.70,0.96,-0.72,
1.321,0.32,0.77,-0.92,-0.70,0.98,-0.75,
1.322,0.32,0.77,-0.92,-0.70,0.99,-0.78,
1.323,0.32,0.77,-0.92,-0.69,1.00,-0.81,
1.326,0.32,0.77,-0.92,-0.69,1.01,-0.84,
1.343,0.46,0.69,-0.17,-0.69,1.01,-0.84,
1.344,0.46,0.69,-0.17,-0.68,1.02,-0.87,
1.344,0.46,0.69,-0.17,-0.66,1.03,-0.90,
1.344,0.46,0.69,-0.17,-0.65,1.04,-0.93,
1.344,0.46,0.69,-0.17,-0.63,1.05,-0.97,
1.345,0.46,0.69,-0.17,-0.61,1.05,-1.00,
1.345,-0.08,0.62,0.56,-0.61,1.05,-1.00,
1.345,-0.08,0.62,0.56,-0.59,1.06,-1.04,
1.345,-0.08,0.62,0.56,-0.56,1.06,-1.08,
1.346,-0.08,0.62,0.56,-0.54,1.05,-1.12,
1.346,-0.08,0.62,0.56,-0.50,1.05,-1.15,
1.346,-0.08,0.62,0.56,-0.46,1.06,-1.19,
1.351,-0.44,0.84,1.40,-0.46,1.06,-1.19,
1.351,-0.44,0.84,1.40,-0.39,1.06,-1.27,
1.352,-0.44,0.84,1.40,-0.39,1.06,-1.27,
1.352,-0.44,0.84,1.40,-0.35,1.06,-1.32,
1.354,-0.44,0.84,1.40,-0.32,1.04,-1.36,
1.355,-0.44,0.84,1.40,-0.31,1.02,-1.40,
1.358,-0.33,1.08,1.23,-0.31,1.02,-1.40,
1.359,-0.33,1.08,1.23,-0.30,0.98,-1.44,
1.359,-0.33,1.08,1.23,-0.29,0.95,-1.48,
1.361,-0.33,1.08,1.23,-0.30,0.90,-1.51,
1.363,-0.33,1.08,1.23,-0.32,0.86,-1.54,
1.365,-0.33,1.08,1.23,-0.34,0.83,-1.56,
1.368,-0.72,1.08,0.43,-0.34,0.83,-1.56,
1.368,-0.72,1.08,0.43,-0.37,0.80,-1.58,
1.37,-0.72,1.08,0.43,-0.41,0.79,-1.60,
1.372,-0.72,1.08,0.43,-0.46,0.78,-1.60,
1.374,-0.72,1.08,0.43,-0.51,0.77,-1.61,
1.376,-0.72,1.08,0.43,-0.58,0.75,-1.61,
1.378,-1.34,1.38,-0.71,-0.58,0.75,-1.61,
1.378,-1.34,1.38,-0.71,-0.67,0.71,-1.60,
1.379,-1.34,1.38,-0.71,-0.76,0.67,-1.59,
1.381,-1.34,1.38,-0.71,-0.85,0.66,-1.59,
1.384,-1.34,1.38,-0.71,-0.93,0.65,-1.60,
1.392,-1.34,1.38,-0.71,-1.00,0.64,-1.60,
1.392,-1.79,1.69,-1.15,-1.00,0.64,-1.60,
1.393,-1.79,1.69,-1.15,-1.06,0.63,-1.59,
1.393,-1.79,1.69,-1.15,-1.12,0.62,-1.58,
1.393,-1.79,1.69,-1.15,-1.17,0.61,-1.56,
1.395,-1.79,1.69,-1.15,-1.22,0.59,-1.54,
1.395,-1.79,1.69,-1.15,-1.25,0.57,-1.51,
1.398,-3.15,1.59,-0.07,-1.25,0.57,-1.51,
1.398,-3.15,1.59,-0.07,-1.28,0.56,-1.48,
1.4,-3.15,1.59,-0.07,-1.30,0.55,-1.45,
1.404,-3.15,1.59,-0.07,-1.31,0.53,-1.42,
1.404,-3.15,1.59,-0.07,-1.30,0.50,-1.41,
1.405,-3.15,1.59,-0.07,-1.29,0.46,-1.40,
1.408,-2.99,1.93,1.13,-1.29,0.46,-1.40,
1.408,-2.99,1.93,1.13,-1.27,0.44,-1.38,
1.41,-2.99,1.93,1.13,-1.25,0.41,-1.37,
1.412,-2.99,1.93,1.13,-1.19,0.36,-1.37,
1.414,-2.99,1.93,1.13,-1.09,0.30,-1.37,
1.416,-2.99,1.93,1.13,-0.96,0.23,-1.39,
1.423,-1.43,2.10,3.84,-0.96,0.23,-1.39,
1.424,-1.43,2.10,3.84,-0.83,0.14,-1.42,
1.424,-1.43,2.10,3.84,-0.71,0.05,-1.44,
1.424,-1.43,2.10,3.84,-0.61,-0.05,-1.47,
1.425,-1.43,2.10,3.84,-0.52,-0.15,-1.49,
1.427,-1.43,2.10,3.84,-0.45,-0.25,-1.50,
1.431,-1.05,2.07,3.05,-0.45,-0.25,-1.50,
1.431,-1.05,2.07,3.05,-0.38,-0.34,-1.52,
1.432,-1.05,2.07,3.05,-0.31,-0.42,-1.53,
1.432,-1.05,2.07,3.05,-0.24,-0.48,-1.54,
1.442,-1.05,2.07,3.05,-0.17,-0.51,-1.54,
1.443,-1.05,2.07,3.05,-0.10,-0.53,-1.53,
1.443,-1.67,1.83,1.88,-0.10,-0.53,-1.53,
1.443,-1.67,1.83,1.88,-0.03,-0.54,-1.52,
1.443,-1.67,1.83,1.88,0.03,-0.53,-1.50,
1.443,-1.67,1.83,1.88,0.09,-0.51,-1.47,
1.444,-1.67,1.83,1.88,0.15,-0.48,-1.43,
1.446,-1.67,1.83,1.88,0.20,-0.44,-1.39,
1.448,-2.61,2.27,0.86,0.20,-0.44,-1.39,
1.448,-2.61,2.27,0.86,0.25,-0.39,-1.34,
1.485,-2.61,2.27,0.86,0.29,-0.33,-1.29,
1.485,-2.61,2.27,0.86,0.32,-0.26,-1.23,
1.485,-2.61,2.27,0.86,0.34,-0.18,-1.17,
1.486,-2.61,2.27,0.86,0.36,-0.10,-1.11,
1.486,-2.96,2.89,-1.00,0.36,-0.10,-1.11,
1.486,-2.96,2.89,-1.00,0.38,-0.01,-1.05,
1.486,-2.96,2.89,-1.00,0.40,0.08,-0.99,
1.487,-2.96,2.89,-1.00,0.41,0.17,-0.93,
1.487,-2.96,2.89,-1.00,0.43,0.26,-0.87,
1.487,-2.96,2.89,-1.00,0.46,0.36,-0.81,
1.488,-2.38,3.44,-1.60,0.46,0.36,-0.81,
1.488,-2.38,3.44,-1.60,0.47,0.47,-0.76,
1.488,-2.38,3.44,-1.60,0.49,0.59,-0.72,
1.488,-2.38,3.44,-1.60,0.52,0.71,-0.68,
1.489,-2.38,3.44,-1.60,0.56,0.84,-0.64,
1.489,-2.38,3.44,-1.60,0.61,0.96,-0.62,
1.489,-1.48,3.34,-1.12,0.61,0.96,-0.62,
1.49,-1.48,3.34,-1.12,0.65,1.09,-0.60,
1.49,-1.48,3.34,-1.12,0.69,1.21,-0.59,
1.49,-1.48,3.34,-1.12,0.74,1.33,-0.59,
1.49,-1.48,3.34,-1.12,0.79,1.43,-0.59,
1.491,-1.48,3.34,-1.12,0.84,1.53,-0.61,
1.491,-0.19,2.54,-0.57,0.84,1.53,-0.61,
1.491,-0.19,2.54,-0.57,0.88,1.62,-0.63,
1.492,-0.19,2.54,-0.57,0.93,1.71,-0.65,
1.492,-0.19,2.54,-0.57,0.99,1.79,-0.69,
1.515,-0.19,2.54,-0.57,1.03,1.86,-0.73,
1.516,-0.19,2.54,-0.57,1.07,1.92,-0.78,
1.516,1.25,1.56,-0.25,1.07,1.92,-0.78,
1.516,1.25,1.56,-0.25,1.12,1.96,-0.83,
1.517,1.25,1.56,-0.25,1.17,1.99,-0.89,
1.517,1.25,1.56,-0.25,1.22,2.00,-0.95,
1.517,1.25,1.56,-0.25,1.25,1.99,-1.03,
1.517,1.25,1.56,-0.25,1.29,1.97,-1.11,
1.518,2.76,0.70,0.11,1.29,1.97,-1.11,
1.518,2.76,0.70,0.11,1.32,1.94,-1.20,
1.518,2.76,0.70,0.11,1.36,1.92,-1.29,
1.519,2.76,0.70,0.11,1.40,1.90,-1.40,
1.519,2.76,0.70,0.11,1.44,1.88,-1.52,
1.519,2.76,0.70,0.11,1.50,1.87,-1.64,
1.519,4.02,0.29,0.96,1.50,1.87,-1.64,
1.52,4.02,0.29,0.96,1.57,1.87,-1.76,
1.52,4.02,0.29,0.96,1.61,1.85,-1.88,
1.524,4.02,0.29,0.96,1.66,1.83,-2.02,
1.525,4.02,0.29,0.96,1.72,1.78,-2.15,
1.526,4.02,0.29,0.96,1.77,1.73,-2.29,
1.534,4.34,-0.25,1.91,1.77,1.73,-2.29,
1.534,4.34,-0.25,1.91,1.82,1.67,-2.42,
1.535,4.34,-0.25,1.91,1.86,1.62,-2.55,
1.535,4.34,-0.25,1.91,1.92,1.58,-2.68,
1.535,4.34,-0.25,1.91,1.97,1.55,-2.81,
1.539,4.34,-0.25,1.91,2.02,1.52,-2.93,
1.544,3.73,-0.36,2.35,2.02,1.52,-2.93,
1.545,3.73,-0.36,2.35,2.06,1.49,-3.05,
1.545,3.73,-0.36,2.35,2.10,1.47,-3.18,
1.545,3.73,-0.36,2.35,2.15,1.46,-3.30,
1.545,3.73,-0.36,2.35,2.18,1.46,-3.41,
1.555,3.73,-0.36,2.35,2.21,1.46,-3.53,
1.555,3.21,-0.66,2.27,2.21,1.46,-3.53,
1.556,3.21,-0.66,2.27,2.24,1.47,-3.63,
1.556,3.21,-0.66,2.27,2.26,1.49,-3.74,
1.556,3.21,-0.66,2.27,2.28,1.51,-3.84,
1.559,3.21,-0.66,2.27,2.30,1.53,-3.94,
1.56,3.21,-0.66,2.27,2.31,1.55,-4.04,
1.56,3.03,-0.75,1.67,2.31,1.55,-4.04,
1.56,3.03,-0.75,1.67,2.32,1.58,-4.14,
1.56,3.03,-0.75,1.67,2.32,1.58,-4.23,
1.561,3.03,-0.75,1.67,2.33,1.54,-4.31,
1.564,3.03,-0.75,1.67,2.32,1.51,-4.40,
1.577,3.03,-0.75,1.67,2.31,1.50,-4.47,
1.577,3.01,-0.76,1.22,2.31,1.50,-4.47,
1.578,3.01,-0.76,1.22,2.29,1.51,-4.55,
1.578,3.01,-0.76,1.22,2.27,1.54,-4.62,
1.578,3.01,-0.76,1.22,2.24,1.59,-4.68,
1.578,3.01,-0.76,1.22,2.20,1.67,-4.74,
1.578,3.01,-0.76,1.22,2.14,1.76,-4.79,
1.579,2.65,-0.80,-0.82,2.14,1.76,-4.79,
1.579,2.65,-0.80,-0.82,2.06,1.87,-4.82,
1.579,2.65,-0.80,-0.82,1.97,1.99,-4.85,
1.591,2.65,-0.80,-0.82,1.85,2.12,-4.86,
1.592,2.65,-0.80,-0.82,1.72,2.25,-4.86,
1.592,2.65,-0.80,-0.82,1.57,2.37,-4.85,
1.592,1.34,-0.63,-4.92,1.57,2.37,-4.85,
1.593,1.34,-0.63,-4.92,1.40,2.47,-4.83,
1.593,1.34,-0.63,-4.92,1.23,2.54,-4.79,
1.593,1.34,-0.63,-4.92,1.04,2.59,-4.75,
1.593,1.34,-0.63,-4.92,0.85,2.60,-4.69,
1.596,1.34,-0.63,-4.92,0.66,2.59,-4.63,
1.598,-0.53,-0.14,-7.24,0.66,2.59,-4.63,
1.598,-0.53,-0.14,-7.24,0.47,2.54,-4.57,
1.612,-0.53,-0.14,-7.24,0.27,2.46,-4.50,
1.613,-0.53,-0.14,-7.24,0.09,2.37,-4.44,
1.613,-0.53,-0.14,-7.24,-0.09,2.25,-4.39,
1.613,-0.53,-0.14,-7.24,-0.26,2.13,-4.33,
1.613,-1.78,0.09,-6.97,-0.26,2.13,-4.33,
1.613,-1.78,0.09,-6.97,-0.42,1.99,-4.27,
1.613,-1.78,0.09,-6.97,-0.56,1.85,-4.23,
1.614,-1.78,0.09,-6.97,-0.69,1.72,-4.20,
1.614,-1.78,0.09,-6.97,-0.81,1.60,-4.17,
1.64,-1.78,0.09,-6.97,-0.91,1.49,-4.14,
1.641,-2.05,-0.17,-4.75,-0.91,1.49,-4.14,
1.641,-2.05,-0.17,-4.75,-0.99,1.39,-4.12,
1.641,-2.05,-0.17,-4.75,-1.06,1.30,-4.10,
1.642,-2.05,-0.17,-4.75,-1.12,1.23,-4.08,
1.642,-2.05,-0.17,-4.75,-1.16,1.18,-4.07,
1.642,-2.05,-0.17,-4.75,-1.18,1.13,-4.05,
1.642,-2.04,-0.29,-2.39,-1.18,1.13,-4.05,
1.643,-2.04,-0.29,-2.39,-1.20,1.11,-4.04,
1.643,-2.04,-0.29,-2.39,-1.19,1.09,-4.03,
1.643,-2.04,-0.29,-2.39,-1.18,1.10,-4.01,
1.644,-2.04,-0.29,-2.39,-1.15,1.12,-4.00,
1.644,-2.04,-0.29,-2.39,-1.11,1.15,-3.99,
1.644,-1.93,-0.26,-0.07,-1.11,1.15,-3.99,
1.644,-1.93,-0.26,-0.07,-1.05,1.19,-3.99,
1.645,-1.93,-0.26,-0.07,-0.98,1.22,-3.97,
1.645,-1.93,-0.26,-0.07,-0.89,1.25,-3.96,
1.645,-1.93,-0.26,-0.07,-0.80,1.26,-3.94,
1.645,-1.93,-0.26,-0.07,-0.69,1.27,-3.91,
1.648,-1.99,0.08,2.05,-0.69,1.27,-3.91,
1.649,-1.99,0.08,2.05,-0.57,1.28,-3.89,
1.651,-1.99,0.08,2.05,-0.46,1.29,-3.86,
1.652,-1.99,0.08,2.05,-0.34,1.31,-3.82,
1.654,-1.99,0.08,2.05,-0.23,1.32,-3.79,
1.656,-1.99,0.08,2.05,-0.12,1.34,-3.74,
1.658,-2.40,0.51,2.93,-0.12,1.34,-3.74,
1.658,-2.40,0.51,2.93,-0.01,1.37,-3.69,
1.68,-2.40,0.51,2.93,0.08,1.41,-3.63,
1.68,-2.40,0.51,2.93,0.17,1.46,-3.56,
1.68,-2.40,0.51,2.93,0.18,1.46,-3.48,
1.68,-2.40,0.51,2.93,-1.26,-0.72,-2.39,
1.68,-19.45,-16.74,-22.90,-1.26,-0.72,-2.39,
1.681,-19.45,-16.74,-22.90,-2.41,-2.11,-1.47,
1.681,-19.45,-16.74,-22.90,-2.13,-1.45,-1.52,
1.682,-19.45,-16.74,-22.90,-1.83,-0.90,-1.52,
1.682,-19.45,-16.74,-22.90,-1.57,-0.43,-1.51,
1.682,-19.45,-16.74,-22.90,-1.27,0.04,-1.53,
1.682,-4.96,-0.59,5.57,-1.27,0.04,-1.53,
1.682,-4.96,-0.59,5.57,-0.96,0.50,-1.55,
1.683,-4.96,-0.59,5.57,-0.67,0.93,-1.57,
1.683,-4.96,-0.59,5.57,-0.38,1.32,-1.59,
1.686,-4.96,-0.59,5.57,-0.11,1.68,-1.60,
1.686,-4.96,-0.59,5.57,0.14,2.02,-1.62,
1.69,-1.88,2.06,10.02,0.14,2.02,-1.62,
1.691,-1.88,2.06,10.02,0.38,2.30,-1.63,
1.691,-1.88,2.06,10.02,0.58,2.55,-1.64,
1.692,-1.88,2.06,10.02,0.48,2.36,-1.63,
1.696,-1.88,2.06,10.02,-0.36,1.00,-1.48,
1.696,-1.88,2.06,10.02,-0.55,0.86,-1.45,
1.7,-0.87,0.89,-2.95,-0.55,0.86,-1.45,
1.7,-0.87,0.89,-2.95,-0.28,1.36,-1.47,
1.7,-0.87,0.89,-2.95,-0.09,1.70,-1.47,
1.704,-0.87,0.89,-2.95,0.09,1.99,-1.46,
1.705,-0.87,0.89,-2.95,0.26,2.24,-1.45,
1.705,-0.87,0.89,-2.95,0.40,2.44,-1.42,
1.71,0.38,1.83,4.73,0.40,2.44,-1.42,
1.711,0.38,1.83,4.73,0.10,2.15,-1.33,
1.711,0.38,1.83,4.73,-0.44,1.59,-1.19,
1.711,0.38,1.83,4.73,-0.41,1.75,-1.13,
1.715,0.38,1.83,4.73,-0.23,2.04,-1.08,
1.715,0.38,1.83,4.73,-0.22,2.17,-1.01,
1.721,0.05,0.70,-0.61,-0.22,2.17,-1.01,
1.722,0.05,0.70,-0.61,-0.46,2.05,-0.90,
1.722,0.05,0.70,-0.61,-0.65,2.02,-0.81,
1.722,0.05,0.70,-0.61,-0.67,2.13,-0.72,
1.725,0.05,0.70,-0.61,-0.73,2.20,-0.64,
1.726,0.05,0.70,-0.61,-0.87,2.21,-0.55,
1.73,-0.08,-0.28,-3.40,-0.87,2.21,-0.55,
1.73,-0.08,-0.28,-3.40,-1.01,2.23,-0.46,
1.73,-0.08,-0.28,-3.40,-1.12,2.27,-0.39,
1.744,-0.08,-0.28,-3.40,-1.20,2.31,-0.31,
1.745,-0.08,-0.28,-3.40,-1.30,2.34,-0.25,
1.745,-0.08,-0.28,-3.40,-1.41,2.37,-0.19,
1.745,0.17,-1.26,-3.74,-1.41,2.37,-0.19,
1.745,0.17,-1.26,-3.74,-1.51,2.39,-0.13,
1.745,0.17,-1.26,-3.74,-1.59,2.42,-0.08,
1.746,0.17,-1.26,-3.74,-1.67,2.44,-0.03,
1.746,0.17,-1.26,-3.74,-1.74,2.46,0.01,
1.746,0.17,-1.26,-3.74,-1.81,2.47,0.05,
1.748,0.58,-2.87,-3.86,-1.81,2.47,0.05,
1.748,0.58,-2.87,-3.86,-1.86,2.48,0.08,
1.75,0.58,-2.87,-3.86,-1.90,2.47,0.11,
1.752,0.58,-2.87,-3.86,-1.93,2.44,0.13,
1.754,0.58,-2.87,-3.86,-1.94,2.41,0.15,
1.759,0.58,-2.87,-3.86,-1.93,2.37,0.16,
1.759,0.89,-3.82,-2.54,-1.93,2.37,0.16,
1.759,0.89,-3.82,-2.54,-1.91,2.32,0.16,
1.759,0.89,-3.82,-2.54,-1.89,2.27,0.16,
1.762,0.89,-3.82,-2.54,-1.84,2.21,0.16,
1.763,0.89,-3.82,-2.54,-1.76,2.16,0.15,
1.766,0.89,-3.82,-2.54,-1.70,2.12,0.13,
1.769,1.02,-4.45,-0.66,-1.70,2.12,0.13,
1.769,1.02,-4.45,-0.66,-1.65,2.10,0.11,
1.769,1.02,-4.45,-0.66,-1.60,2.09,0.09,
1.772,1.02,-4.45,-0.66,-1.54,2.09,0.06,
1.774,1.02,-4.45,-0.66,-1.46,2.09,0.03,
1.776,1.02,-4.45,-0.66,-1.39,2.10,0.00,
1.777,0.89,-4.38,1.10,-1.39,2.10,0.00,
1.778,0.89,-4.38,1.10,-1.33,2.11,-0.02,
1.779,0.89,-4.38,1.10,-1.27,2.13,-0.04,
1.812,0.89,-4.38,1.10,-1.21,2.14,-0.07,
1.813,0.89,-4.38,1.10,-1.15,2.15,-0.09,
1.813,0.89,-4.38,1.10,-1.09,2.15,-0.11,
1.813,0.76,-3.47,2.93,-1.09,2.15,-0.11,
1.813,0.76,-3.47,2.93,-1.04,2.15,-0.13,
1.814,0.76,-3.47,2.93,-0.99,2.16,-0.16,
1.814,0.76,-3.47,2.93,-0.94,2.16,-0.18,
1.814,0.76,-3.47,2.93,-0.89,2.15,-0.20,
1.814,0.76,-3.47,2.93,-0.84,2.14,-0.21,
1.815,0.64,-2.49,3.69,-0.84,2.14,-0.21,
1.815,0.64,-2.49,3.69,-0.82,2.13,-0.22,
1.815,0.64,-2.49,3.69,-0.81,2.07,-0.23,
1.815,0.64,-2.49,3.69,-0.77,1.90,-0.23,
1.816,0.64,-2.49,3.69,-0.71,1.66,-0.23,
1.816,0.64,-2.49,3.69,-0.61,1.48,-0.22,
1.816,0.43,-1.00,5.05,-0.61,1.48,-0.22,
1.816,0.43,-1.00,5.05,-0.49,1.38,-0.22,
1.817,0.43,-1.00,5.05,-0.39,1.30,-0.23,
1.817,0.43,-1.00,5.05,-0.34,1.24,-0.24,
1.817,0.43,-1.00,5.05,-0.32,1.27,-0.26,
1.817,0.43,-1.00,5.05,-0.32,1.37,-0.29,
1.818,0.62,0.04,3.61,-0.32,1.37,-0.29,
1.818,0.62,0.04,3.61,-0.30,1.48,-0.33,
1.82,0.62,0.04,3.61,-0.27,1.59,-0.36,
1.821,0.62,0.04,3.61,-0.26,1.71,-0.40,
1.824,0.62,0.04,3.61,-0.24,1.81,-0.44,
1.826,0.62,0.04,3.61,-0.22,1.90,-0.49,
1.842,1.05,1.28,3.06,-0.22,1.90,-0.49,
1.842,1.05,1.28,3.06,-0.19,1.96,-0.54,
1.842,1.05,1.28,3.06,-0.18,2.00,-0.60,
1.842,1.05,1.28,3.06,-0.15,2.00,-0.65,
1.842,1.05,1.28,3.06,-0.12,1.97,-0.71,
1.843,1.05,1.28,3.06,-0.10,1.92,-0.76,
1.843,1.33,2.09,2.37,-0.10,1.92,-0.76,
1.843,1.33,2.09,2.37,-0.08,1.86,-0.82,
1.843,1.33,2.09,2.37,-0.06,1.80,-0.87,
1.843,1.33,2.09,2.37,-0.05,1.76,-0.93,
1.843,1.33,2.09,2.37,-0.04,1.74,-0.98,
1.848,1.52,2.99,1.34,-0.04,1.74,-0.98,
1.849,1.52,2.99,1.34,-0.05,1.75,-1.08,
1.849,1.52,2.99,1.34,-0.05,1.75,-1.08,
1.851,1.52,2.99,1.34,-0.07,1.77,-1.13,
1.853,1.52,2.99,1.34,-0.09,1.80,-1.17,
1.854,1.52,2.99,1.34,-0.11,1.81,-1.22,
1.859,1.52,2.99,1.34,-0.13,1.82,-1.26,
1.86,1.32,3.51,0.29,-0.13,1.82,-1.26,
1.86,1.32,3.51,0.29,-0.15,1.80,-1.29,
1.86,1.32,3.51,0.29,-0.17,1.78,-1.31,
1.862,1.32,3.51,0.29,-0.20,1.74,-1.34,
1.863,1.32,3.51,0.29,-0.21,1.69,-1.35,
1.867,1.32,3.51,0.29,-0.23,1.65,-1.37,
1.868,0.57,3.09,-0.05,-0.23,1.65,-1.37,
1.869,0.57,3.09,-0.05,-0.26,1.61,-1.38,
1.87,0.57,3.09,-0.05,-0.28,1.59,-1.38,
1.873,0.57,3.09,-0.05,-0.29,1.58,-1.39,
1.873,0.57,3.09,-0.05,-0.30,1.59,-1.40,
1.875,0.57,3.09,-0.05,-0.31,1.60,-1.40,
1.878,0.21,3.09,0.34,-0.31,1.60,-1.40,
1.879,0.21,3.09,0.34,-0.32,1.61,-1.41,
1.88,0.21,3.09,0.34,-0.32,1.62,-1.41,
1.886,0.21,3.09,0.34,-0.32,1.62,-1.41,
1.886,0.21,3.09,0.34,-0.31,1.63,-1.40,
1.886,0.21,3.09,0.34,-0.29,1.64,-1.39,
1.888,0.03,3.15,1.29,-0.29,1.64,-1.39,
1.888,0.03,3.15,1.29,-0.28,1.66,-1.37,
1.89,0.03,3.15,1.29,-0.27,1.68,-1.36,
1.891,0.03,3.15,1.29,-0.26,1.72,-1.34,
1.894,0.03,3.15,1.29,-0.25,1.75,-1.32,
1.896,0.03,3.15,1.29,-0.24,1.79,-1.30,
1.9,0.03,3.14,2.01,-0.24,1.79,-1.30,
1.9,0.03,3.14,2.01,-0.23,1.81,-1.28,
1.901,0.03,3.14,2.01,-0.23,1.83,-1.26,
1.902,0.03,3.14,2.01,-0.23,1.84,-1.24,
1.904,0.03,3.14,2.01,-0.23,1.84,-1.22,
1.912,0.03,3.14,2.01,-0.24,1.85,-1.21,
1.913,0.12,2.63,2.38,-0.24,1.85,-1.21,
1.913,0.12,2.63,2.38,-0.26,1.86,-1.19,
1.914,0.12,2.63,2.38,-0.27,1.86,-1.18,
1.914,0.12,2.63,2.38,-0.28,1.85,-1.17,
1.914,0.12,2.63,2.38,-0.29,1.84,-1.16,
1.916,0.12,2.63,2.38,-0.31,1.82,-1.16,
1.918,0.21,1.77,2.23,-0.31,1.82,-1.16,
1.918,0.21,1.77,2.23,-0.33,1.82,-1.15,
1.92,0.21,1.77,2.23,-0.34,1.81,-1.14,
1.923,0.21,1.77,2.23,-0.34,1.79,-1.14,
1.925,0.21,1.77,2.23,-0.34,1.77,-1.13,
1.927,0.21,1.77,2.23,-0.34,1.76,-1.13,
1.928,0.11,0.56,2.11,-0.34,1.76,-1.13,
1.929,0.11,0.56,2.11,-0.34,1.75,-1.12,
1.929,0.11,0.56,2.11,-0.33,1.74,-1.11,
1.932,0.11,0.56,2.11,-0.32,1.72,-1.10,
1.934,0.11,0.56,2.11,-0.32,1.72,-1.10,
1.938,0.11,0.56,2.11,-0.40,1.86,-1.09,
1.938,-0.39,-0.71,-0.90,-0.40,1.86,-1.09,
1.938,-0.39,-0.71,-0.90,-0.57,2.23,-1.05,
1.94,-0.39,-0.71,-0.90,-0.46,1.92,-0.99,
1.943,-0.39,-0.71,-0.90,-0.38,1.70,-0.91,
1.944,-0.39,-0.71,-0.90,-0.44,1.91,-0.78,
1.946,-0.39,-0.71,-0.90,-0.32,1.63,-0.71,
1.953,-2.09,0.12,3.00,-0.32,1.63,-0.71,
1.953,-2.09,0.12,3.00,-0.28,1.64,-0.65,
1.954,-2.09,0.12,3.00,-0.26,1.62,-0.59,
1.954,-2.09,0.12,3.00,-0.21,1.59,-0.55,
1.954,-2.09,0.12,3.00,-0.19,1.59,-0.51,
1.982,-2.09,0.12,3.00,-0.16,1.58,-0.48,
1.982,-0.94,-0.45,2.07,-0.16,1.58,-0.48,
1.982,-0.94,-0.45,2.07,-0.14,1.58,-0.46,
1.982,-0.94,-0.45,2.07,-0.12,1.58,-0.45,
1.982,-0.94,-0.45,2.07,-0.09,1.60,-0.44,
1.983,-0.94,-0.45,2.07,-0.07,1.61,-0.45,
1.983,-0.94,-0.45,2.07,-0.05,1.64,-0.46,
1.983,0.10,-1.94,2.19,-0.05,1.64,-0.46,
1.983,0.10,-1.94,2.19,-0.02,1.67,-0.48,
1.983,0.10,-1.94,2.19,0.01,1.70,-0.50,
1.984,0.10,-1.94,2.19,0.02,1.74,-0.53,
1.984,0.10,-1.94,2.19,0.06,1.79,-0.57,
1.984,0.10,-1.94,2.19,0.11,1.86,-0.61,
1.984,0.55,-3.88,2.55,0.11,1.86,-0.61,
1.984,0.55,-3.88,2.55,0.14,1.92,-0.66,
1.984,0.55,-3.88,2.55,0.18,2.00,-0.71,
1.985,0.55,-3.88,2.55,0.22,2.08,-0.76,
1.985,0.55,-3.88,2.55,0.27,2.16,-0.82,
1.988,0.55,-3.88,2.55,0.31,2.24,-0.88,
1.989,0.39,-6.07,2.78,0.31,2.24,-0.88,
1.989,0.39,-6.07,2.78,0.35,2.33,-0.94,
1.99,0.39,-6.07,2.78,0.40,2.42,-1.00,
1.992,0.39,-6.07,2.78,0.45,2.53,-1.06,
2.012,0.39,-6.07,2.78,0.51,2.66,-1.12,
2.012,0.39,-6.07,2.78,0.59,2.80,-1.20,
2.012,-0.07,-7.21,2.84,0.59,2.80,-1.20,
2.013,-0.07,-7.21,2.84,0.67,2.97,-1.27,
2.013,-0.07,-7.21,2.84,0.76,3.14,-1.35,
2.013,-0.07,-7.21,2.84,0.87,3.34,-1.42,
2.013,-0.07,-7.21,2.84,0.99,3.55,-1.48,
2.014,-0.07,-7.21,2.84,1.06,3.77,-1.55,
2.014,-0.06,-6.07,1.08,1.06,3.77,-1.55,
2.014,-0.06,-6.07,1.08,1.07,3.52,-1.58,
2.015,-0.06,-6.07,1.08,0.77,2.26,-1.57,
2.015,-0.06,-6.07,1.08,0.85,2.28,-1.63,
2.015,-0.06,-6.07,1.08,1.12,2.70,-1.69,
2.015,-0.06,-6.07,1.08,1.32,3.08,-1.73,
2.02,0.95,-5.15,3.27,1.32,3.08,-1.73,
2.021,0.95,-5.15,3.27,1.53,3.45,-1.78,
2.021,0.95,-5.15,3.27,1.73,3.80,-1.82,
2.023,0.95,-5.15,3.27,1.93,4.08,-1.86,
2.024,0.95,-5.15,3.27,2.07,4.21,-1.89,
2.026,0.95,-5.15,3.27,2.08,3.99,-1.90,
2.028,0.83,-3.83,3.76,2.08,3.99,-1.90,
2.028,0.83,-3.83,3.76,2.14,4.03,-1.91,
2.032,0.83,-3.83,3.76,2.29,4.22,-1.92,
2.032,0.83,-3.83,3.76,2.38,4.28,-1.91,
2.034,0.83,-3.83,3.76,2.43,4.29,-1.90,
2.037,0.83,-3.83,3.76,2.48,4.35,-1.89,
2.04,0.24,-2.38,4.66,2.48,4.35,-1.89,
2.04,0.24,-2.38,4.66,2.52,4.37,-1.87,
2.04,0.24,-2.38,4.66,2.54,4.38,-1.84,
2.041,0.24,-2.38,4.66,2.54,4.36,-1.81,
2.044,0.24,-2.38,4.66,2.54,4.35,-1.78,
2.046,0.24,-2.38,4.66,2.50,4.31,-1.74,
2.049,-0.05,-1.03,3.45,2.50,4.31,-1.74,
2.05,-0.05,-1.03,3.45,2.46,4.26,-1.70,
2.05,-0.05,-1.03,3.45,2.39,4.19,-1.65,
2.052,-0.05,-1.03,3.45,2.31,4.10,-1.60,
2.054,-0.05,-1.03,3.45,2.19,3.99,-1.53,
2.056,-0.05,-1.03,3.45,2.07,3.84,-1.46,
2.058,-0.84,-0.20,0.54,2.07,3.84,-1.46,
2.058,-0.84,-0.20,0.54,1.92,3.68,-1.38,
2.059,-0.84,-0.20,0.54,1.77,3.49,-1.28,
2.063,-0.84,-0.20,0.54,1.62,3.31,-1.18,
2.066,-0.84,-0.20,0.54,1.47,3.12,-1.08,
2.069,-0.84,-0.20,0.54,1.33,2.93,-0.98,
2.07,-2.04,0.30,-1.17,1.33,2.93,-0.98,
2.074,-2.04,0.30,-1.17,1.17,2.73,-0.87,
2.074,-2.04,0.30,-1.17,1.02,2.55,-0.79,
2.074,-2.04,0.30,-1.17,0.85,2.36,-0.70,
2.075,-2.04,0.30,-1.17,0.69,2.21,-0.62,
2.078,-2.04,0.30,-1.17,0.53,2.09,-0.55,
2.081,-2.21,0.96,-0.74,0.53,2.09,-0.55,
2.082,-2.21,0.96,-0.74,0.39,1.98,-0.49,
2.082,-2.21,0.96,-0.74,0.25,1.89,-0.43,
2.086,-2.21,0.96,-0.74,0.12,1.80,-0.39,
2.086,-2.21,0.96,-0.74,-0.01,1.73,-0.35,
2.087,-2.21,0.96,-0.74,-0.11,1.66,-0.33,
2.088,-0.99,1.53,0.05,-0.11,1.66,-0.33,
2.089,-0.99,1.53,0.05,-0.20,1.60,-0.31,
2.089,-0.99,1.53,0.05,-0.29,1.52,-0.29,
2.092,-0.99,1.53,0.05,-0.36,1.43,-0.29,
2.094,-0.99,1.53,0.05,-0.42,1.32,-0.29,
2.099,-0.99,1.53,0.05,-0.47,1.24,-0.30,
2.099,0.70,2.28,0.25,-0.47,1.24,-0.30,
2.099,0.70,2.28,0.25,-0.51,1.16,-0.31,
2.1,0.70,2.28,0.25,-0.54,1.11,-0.32,
2.102,0.70,2.28,0.25,-0.57,1.06,-0.32,
2.104,0.70,2.28,0.25,-0.59,1.03,-0.33,
2.109,0.70,2.28,0.25,-0.62,1.01,-0.34,
2.11,1.48,2.47,0.37,-0.62,1.01,-0.34,
2.11,1.48,2.47,0.37,-0.64,1.00,-0.34,
2.11,1.48,2.47,0.37,-0.66,0.99,-0.35,
2.112,1.48,2.47,0.37,-0.68,0.99,-0.35,
2.114,1.48,2.47,0.37,-0.69,1.00,-0.35,
2.133,1.48,2.47,0.37,-0.70,1.02,-0.35,
2.133,1.74,2.44,0.14,-0.70,1.02,-0.35,
2.133,1.74,2.44,0.14,-0.72,1.04,-0.34,
2.134,1.74,2.44,0.14,-0.72,1.07,-0.33,
2.134,1.74,2.44,0.14,-0.70,1.09,-0.31,
2.134,1.74,2.44,0.14,-0.66,1.12,-0.28,
2.134,1.74,2.44,0.14,-0.61,1.16,-0.24,
2.134,2.22,2.34,-0.21,-0.61,1.16,-0.24,
2.135,2.22,2.34,-0.21,-0.60,1.22,-0.20,
2.135,2.22,2.34,-0.21,-0.58,1.27,-0.17,
2.135,2.22,2.34,-0.21,-0.56,1.32,-0.14,
2.135,2.22,2.34,-0.21,-0.53,1.36,-0.10,
2.135,2.22,2.34,-0.21,-0.50,1.40,-0.07,
2.139,2.09,2.32,-0.44,-0.50,1.40,-0.07,
2.139,2.09,2.32,-0.44,-0.46,1.43,-0.04,
2.139,2.09,2.32,-0.44,-0.42,1.47,-0.01,
2.141,2.09,2.32,-0.44,-0.39,1.49,0.02,
2.144,2.09,2.32,-0.44,-0.36,1.51,0.05,
2.145,2.09,2.32,-0.44,-0.32,1.53,0.08,
2.149,2.35,2.07,-0.97,-0.32,1.53,0.08,
2.15,2.35,2.07,-0.97,-0.28,1.55,0.10,
2.15,2.35,2.07,-0.97,-0.25,1.56,0.13,
2.152,2.35,2.07,-0.97,-0.22,1.57,0.15,
2.153,2.35,2.07,-0.97,-0.19,1.58,0.17,
2.155,2.35,2.07,-0.97,-0.17,1.58,0.20,
2.157,2.82,1.64,-1.82,-0.17,1.58,0.20,
2.157,2.82,1.64,-1.82,-0.15,1.58,0.22,
2.173,2.82,1.64,-1.82,-0.13,1.57,0.24,
2.173,2.82,1.64,-1.82,-0.12,1.56,0.25,
2.173,2.82,1.64,-1.82,-0.11,1.55,0.27,
2.173,2.82,1.64,-1.82,-0.11,1.53,0.28,
2.174,3.49,1.33,-3.28,-0.11,1.53,0.28,
2.174,3.49,1.33,-3.28,-0.12,1.51,0.29,
2.174,3.49,1.33,-3.28,-0.14,1.49,0.30,
2.174,3.49,1.33,-3.28,-0.16,1.47,0.31,
2.174,3.49,1.33,-3.28,-0.19,1.44,0.31,
2.177,3.49,1.33,-3.28,-0.23,1.41,0.31,
2.179,3.94,1.11,-4.91,-0.23,1.41,0.31,
2.179,3.94,1.11,-4.91,-0.27,1.38,0.30,
2.179,3.94,1.11,-4.91,-0.32,1.35,0.29,
2.181,3.94,1.11,-4.91,-0.37,1.32,0.28,
2.184,3.94,1.11,-4.91,-0.43,1.28,0.27,
2.185,3.94,1.11,-4.91,-0.49,1.24,0.25,
2.188,4.14,1.14,-6.47,-0.49,1.24,0.25,
2.188,4.14,1.14,-6.47,-0.55,1.21,0.23,
2.189,4.14,1.14,-6.47,-0.60,1.17,0.20,
2.191,4.14,1.14,-6.47,-0.66,1.14,0.18,
2.193,4.14,1.14,-6.47,-0.71,1.10,0.15,
2.195,4.14,1.14,-6.47,-0.75,1.07,0.12,
2.198,3.79,1.17,-6.87,-0.75,1.07,0.12,
2.198,3.79,1.17,-6.87,-0.79,1.04,0.10,
2.199,3.79,1.17,-6.87,-0.82,1.00,0.07,
2.201,3.79,1.17,-6.87,-0.83,0.97,0.04,
2.203,3.79,1.17,-6.87,-0.85,0.94,0.01,
2.205,3.79,1.17,-6.87,-0.85,0.91,-0.01,
2.208,3.02,1.08,-6.64,-0.85,0.91,-0.01,
2.208,3.02,1.08,-6.64,-0.85,0.87,-0.04,
2.209,3.02,1.08,-6.64,-0.84,0.83,-0.06,
2.211,3.02,1.08,-6.64,-0.82,0.77,-0.07,
2.213,3.02,1.08,-6.64,-0.79,0.71,-0.09,
2.215,3.02,1.08,-6.64,-0.76,0.64,-0.10,
2.217,1.81,0.52,-6.13,-0.76,0.64,-0.10,
2.218,1.81,0.52,-6.13,-0.72,0.56,-0.11,
2.219,1.81,0.52,-6.13,-0.67,0.46,-0.11,
2.221,1.81,0.52,-6.13,-0.63,0.35,-0.12,
2.223,1.81,0.52,-6.13,-0.58,0.23,-0.12,
2.225,1.81,0.52,-6.13,-0.52,0.10,-0.12,
2.228,0.53,-0.32,-5.92,-0.52,0.10,-0.12,
2.228,0.53,-0.32,-5.92,-0.45,-0.03,-0.12,
2.23,0.53,-0.32,-5.92,-0.39,-0.18,-0.12,
2.231,0.53,-0.32,-5.92,-0.33,-0.34,-0.11,
2.233,0.53,-0.32,-5.92,-0.26,-0.50,-0.11,
2.235,0.53,-0.32,-5.92,-0.20,-0.67,-0.10,
2.237,-0.59,-1.29,-5.25,-0.20,-0.67,-0.10,
2.238,-0.59,-1.29,-5.25,-0.14,-0.84,-0.10,
2.239,-0.59,-1.29,-5.25,-0.07,-1.01,-0.09,
2.241,-0.59,-1.29,-5.25,-0.01,-1.17,-0.07,
2.243,-0.59,-1.29,-5.25,0.05,-1.33,-0.05,
2.245,-0.59,-1.29,-5.25,0.10,-1.48,-0.02,
2.247,-2.12,-1.92,-4.28,0.10,-1.48,-0.02,
2.247,-2.12,-1.92,-4.28,0.16,-1.61,0.01,
2.249,-2.12,-1.92,-4.28,0.21,-1.72,0.05,
2.251,-2.12,-1.92,-4.28,0.26,-1.81,0.09,
2.253,-2.12,-1.92,-4.28,0.30,-1.88,0.14,
2.255,-2.12,-1.92,-4.28,0.34,-1.92,0.19,
2.257,-3.84,-2.13,-2.98,0.34,-1.92,0.19,
2.258,-3.84,-2.13,-2.98,0.38,-1.93,0.24,
2.259,-3.84,-2.13,-2.98,0.41,-1.91,0.30,
2.261,-3.84,-2.13,-2.98,0.44,-1.87,0.36,
2.263,-3.84,-2.13,-2.98,0.47,-1.80,0.42,
2.265,-3.84,-2.13,-2.98,0.49,-1.70,0.49,
2.267,-5.59,-2.05,-1.88,0.49,-1.70,0.49,
2.268,-5.59,-2.05,-1.88,0.50,-1.57,0.56,
2.269,-5.59,-2.05,-1.88,0.51,-1.43,0.64,
2.271,-5.59,-2.05,-1.88,0.52,-1.26,0.73,
2.274,-5.59,-2.05,-1.88,0.53,-0.96,0.85,
2.275,-5.59,-2.05,-1.88,0.53,-0.86,0.89,
2.279,-6.79,-1.51,-0.74,0.53,-0.86,0.89,
2.28,-6.79,-1.51,-0.74,0.53,-0.63,0.98,
2.28,-6.79,-1.51,-0.74,0.53,-0.39,1.07,
2.301,-6.79,-1.51,-0.74,0.52,-0.14,1.16,
2.301,-6.79,-1.51,-0.74,0.51,0.11,1.24,
2.301,-6.79,-1.51,-0.74,0.50,0.35,1.31,
2.302,-7.18,-0.86,0.27,0.50,0.35,1.31,
2.302,-7.18,-0.86,0.27,0.48,0.60,1.38,
2.302,-7.18,-0.86,0.27,0.47,0.83,1.43,
2.302,-7.18,-0.86,0.27,0.45,1.05,1.48,
2.302,-7.18,-0.86,0.27,0.44,1.25,1.51,
2.302,-7.18,-0.86,0.27,0.43,1.43,1.52,
2.302,-5.55,-0.30,1.79,0.43,1.43,1.52,
2.302,-5.55,-0.30,1.79,0.42,1.59,1.52,
2.303,-5.55,-0.30,1.79,0.42,1.74,1.51,
2.303,-5.55,-0.30,1.79,0.42,1.85,1.48,
2.304,-5.55,-0.30,1.79,0.42,1.94,1.43,
2.305,-5.55,-0.30,1.79,0.44,2.01,1.38,
2.307,-2.75,-0.42,3.87,0.44,2.01,1.38,
2.308,-2.75,-0.42,3.87,0.45,2.05,1.30,
2.309,-2.75,-0.42,3.87,0.47,2.06,1.21,
2.312,-2.75,-0.42,3.87,0.48,2.04,1.11,
2.313,-2.75,-0.42,3.87,0.50,2.01,1.00,
2.315,-2.75,-0.42,3.87,0.52,1.94,0.89,
2.318,0.19,-1.53,5.23,0.52,1.94,0.89,
2.318,0.19,-1.53,5.23,0.54,1.86,0.76,
2.319,0.19,-1.53,5.23,0.56,1.75,0.64,
2.321,0.19,-1.53,5.23,0.58,1.63,0.51,
2.323,0.19,-1.53,5.23,0.60,1.49,0.38,
2.325,0.19,-1.53,5.23,0.62,1.34,0.25,
2.339,2.38,-3.24,6.33,0.62,1.34,0.25,
2.339,2.38,-3.24,6.33,0.63,1.18,0.13,
2.339,2.38,-3.24,6.33,0.64,1.00,0.00,
2.339,2.38,-3.24,6.33,0.65,0.82,-0.12,
2.34,2.38,-3.24,6.33,0.64,0.64,-0.23,
2.34,2.38,-3.24,6.33,0.64,0.44,-0.33,
2.34,3.43,-4.70,6.64,0.64,0.44,-0.33,
2.34,3.43,-4.70,6.64,0.62,0.25,-0.42,
2.34,3.43,-4.70,6.64,0.60,0.04,-0.51,
2.343,3.43,-4.70,6.64,0.58,-0.17,-0.59,
2.346,3.43,-4.70,6.64,0.54,-0.37,-0.66,
2.346,3.43,-4.70,6.64,0.51,-0.57,-0.73,
2.352,3.66,-5.20,6.49,0.51,-0.57,-0.73,
2.353,3.66,-5.20,6.49,0.41,-0.96,-0.84,
2.353,3.66,-5.20,6.49,0.41,-0.96,-0.84,
2.353,3.66,-5.20,6.49,0.35,-1.15,-0.87,
2.363,3.66,-5.20,6.49,0.28,-1.34,-0.91,
2.364,3.66,-5.20,6.49,0.19,-1.52,-0.94,
2.364,3.05,-4.51,6.01,0.19,-1.52,-0.94,
2.364,3.05,-4.51,6.01,0.12,-1.69,-0.99,
2.364,3.05,-4.51,6.01,0.04,-1.85,-1.02,
2.364,3.05,-4.51,6.01,-0.07,-2.05,-1.05,
2.364,3.05,-4.51,6.01,-0.10,-2.11,-1.06,
2.369,3.05,-4.51,6.01,-0.15,-2.23,-1.08,
2.369,2.18,-3.26,6.20,-0.15,-2.23,-1.08,
2.369,2.18,-3.26,6.20,-0.20,-2.34,-1.08,
2.37,2.18,-3.26,6.20,-0.23,-2.44,-1.08,
2.373,2.18,-3.26,6.20,-0.25,-2.54,-1.08,
2.374,2.18,-3.26,6.20,-0.26,-2.62,-1.07,
2.377,2.18,-3.26,6.20,-0.26,-2.69,-1.05,
2.378,1.94,-2.05,5.64,-0.26,-2.69,-1.05,
2.378,1.94,-2.05,5.64,-0.25,-2.75,-1.03,
2.38,1.94,-2.05,5.64,-0.24,-2.79,-1.00,
2.382,1.94,-2.05,5.64,-0.24,-2.81,-0.96,
2.385,1.94,-2.05,5.64,-0.23,-2.83,-0.93,
2.386,1.94,-2.05,5.64,-0.22,-2.83,-0.89,
2.388,1.68,-1.34,5.21,-0.22,-2.83,-0.89,
2.388,1.68,-1.34,5.21,-0.21,-2.83,-0.86,
2.389,1.68,-1.34,5.21,-0.20,-2.81,-0.83,
2.391,1.68,-1.34,5.21,-0.19,-2.79,-0.80,
2.393,1.68,-1.34,5.21,-0.17,-2.76,-0.77,
2.397,1.68,-1.34,5.21,-0.16,-2.72,-0.74,
2.397,2.16,-0.74,4.41,-0.16,-2.72,-0.74,
2.397,2.16,-0.74,4.41,-0.14,-2.67,-0.73,
2.399,2.16,-0.74,4.41,-0.11,-2.62,-0.71,
2.401,2.16,-0.74,4.41,-0.09,-2.56,-0.69,
2.403,2.16,-0.74,4.41,-0.06,-2.50,-0.68,
2.405,2.16,-0.74,4.41,-0.04,-2.41,-0.67,
2.407,3.20,-0.28,3.61,-0.04,-2.41,-0.67,
2.408,3.20,-0.28,3.61,-0.01,-2.31,-0.67,
2.409,3.20,-0.28,3.61,0.01,-2.11,-0.67,
2.412,3.20,-0.28,3.61,0.01,-1.73,-0.66,
2.413,3.20,-0.28,3.61,-0.00,-1.28,-0.66,
2.415,3.20,-0.28,3.61,0.01,-0.78,-0.66,
2.418,4.00,1.28,-0.62,0.01,-0.78,-0.66,
2.418,4.00,1.28,-0.62,0.11,-0.26,-0.63,
2.419,4.00,1.28,-0.62,0.34,0.50,-0.57,
2.421,4.00,1.28,-0.62,0.47,1.27,-0.53,
2.423,4.00,1.28,-0.62,0.45,1.85,-0.53,
2.425,4.00,1.28,-0.62,0.50,2.43,-0.51,
2.428,4.61,2.14,-2.52,0.50,2.43,-0.51,
2.428,4.61,2.14,-2.52,0.61,3.02,-0.47,
2.429,4.61,2.14,-2.52,0.69,3.55,-0.43,
2.431,4.61,2.14,-2.52,0.74,4.00,-0.40,
2.433,4.61,2.14,-2.52,0.80,4.40,-0.36,
2.436,4.61,2.14,-2.52,0.86,4.76,-0.32,
2.439,4.17,2.38,-1.02,0.86,4.76,-0.32,
2.44,4.17,2.38,-1.02,0.91,5.05,-0.28,
2.44,4.17,2.38,-1.02,0.95,5.28,-0.23,
2.441,4.17,2.38,-1.02,0.99,5.44,-0.19,
2.443,4.17,2.38,-1.02,1.03,5.55,-0.14,
2.446,4.17,2.38,-1.02,1.06,5.61,-0.10,
2.448,3.75,2.37,0.92,1.06,5.61,-0.10,
2.448,3.75,2.37,0.92,1.08,5.61,-0.05,
2.477,3.75,2.37,0.92,1.09,5.56,-0.01,
2.478,3.75,2.37,0.92,1.11,5.46,0.03,
2.478,3.75,2.37,0.92,1.11,5.32,0.07,
2.478,3.75,2.37,0.92,1.11,5.14,0.10,
2.479,3.25,1.91,2.15,1.11,5.14,0.10,
2.479,3.25,1.91,2.15,1.11,4.94,0.13,
2.479,3.25,1.91,2.15,1.11,4.71,0.16,
2.479,3.25,1.91,2.15,1.10,4.46,0.19,
2.48,3.25,1.91,2.15,1.10,4.18,0.21,
2.48,3.25,1.91,2.15,1.10,3.90,0.23,
2.48,2.80,1.50,2.98,1.10,3.90,0.23,
2.48,2.80,1.50,2.98,1.10,3.60,0.25,
2.481,2.80,1.50,2.98,1.10,3.29,0.27,
2.481,2.80,1.50,2.98,1.10,2.97,0.28,
2.481,2.80,1.50,2.98,1.11,2.66,0.29,
2.481,2.80,1.50,2.98,1.12,2.34,0.30,
2.482,1.93,1.13,3.41,1.12,2.34,0.30,
2.482,1.93,1.13,3.41,1.14,2.03,0.30,
2.482,1.93,1.13,3.41,1.15,1.73,0.30,
2.482,1.93,1.13,3.41,1.17,1.43,0.31,
2.484,1.93,1.13,3.41,1.19,1.14,0.31,
2.487,1.93,1.13,3.41,1.22,0.86,0.31,
2.488,0.84,0.80,3.58,1.22,0.86,0.31,
2.488,0.84,0.80,3.58,1.24,0.60,0.31,
2.49,0.84,0.80,3.58,1.26,0.35,0.32,
2.492,0.84,0.80,3.58,1.29,0.10,0.33,
2.508,0.84,0.80,3.58,1.32,-0.14,0.34,
2.508,0.84,0.80,3.58,1.35,-0.37,0.35,
2.508,-0.42,0.56,3.42,1.35,-0.37,0.35,
2.509,-0.42,0.56,3.42,1.38,-0.60,0.36,
2.509,-0.42,0.56,3.42,1.42,-0.81,0.38,
2.509,-0.42,0.56,3.42,1.45,-1.02,0.39,
2.509,-0.42,0.56,3.42,1.48,-1.22,0.40,
2.51,-0.42,0.56,3.42,1.51,-1.40,0.41,
2.51,-1.24,0.49,3.19,1.51,-1.40,0.41,
2.51,-1.24,0.49,3.19,1.53,-1.58,0.41,
2.51,-1.24,0.49,3.19,1.54,-1.76,0.41,
2.513,-1.24,0.49,3.19,1.56,-1.92,0.42,
2.514,-1.24,0.49,3.19,1.57,-2.08,0.41,
2.516,-1.24,0.49,3.19,1.57,-2.23,0.41,
2.523,-1.51,0.40,2.42,1.57,-2.23,0.41,
2.523,-1.51,0.40,2.42,1.57,-2.37,0.40,
2.523,-1.51,0.40,2.42,1.57,-2.49,0.40,
2.523,-1.51,0.40,2.42,1.57,-2.60,0.39,
2.523,-1.51,0.40,2.42,1.56,-2.70,0.38,
2.525,-1.51,0.40,2.42,1.55,-2.78,0.38,
2.53,-1.81,0.42,1.97,1.55,-2.78,0.38,
2.531,-1.81,0.42,1.97,1.54,-2.85,0.37,
2.531,-1.81,0.42,1.97,1.53,-2.90,0.37,
2.533,-1.81,0.42,1.97,1.51,-2.95,0.36,
2.543,-1.81,0.42,1.97,1.51,-2.97,0.36,
2.547,-1.81,0.42,1.97,1.49,-2.99,0.36,
2.548,-2.14,0.60,1.57,1.49,-2.99,0.36,
2.548,-2.14,0.60,1.57,1.48,-2.99,0.36,
2.548,-2.14,0.60,1.57,1.48,-2.97,0.37,
2.548,-2.14,0.60,1.57,1.47,-2.95,0.37,
2.548,-2.14,0.60,1.57,1.47,-2.91,0.38,
2.548,-2.14,0.60,1.57,1.47,-2.85,0.38,
2.548,-2.64,0.80,1.38,1.47,-2.85,0.38,
2.548,-2.64,0.80,1.38,1.47,-2.79,0.39,
2.55,-2.64,0.80,1.38,1.47,-2.72,0.39,
2.551,-2.64,0.80,1.38,1.48,-2.64,0.39,
2.554,-2.64,0.80,1.38,1.48,-2.55,0.40,
2.556,-2.64,0.80,1.38,1.50,-2.45,0.40,
2.558,-2.68,0.96,1.02,1.50,-2.45,0.40,
2.558,-2.68,0.96,1.02,1.52,-2.35,0.40,
2.559,-2.68,0.96,1.02,1.53,-2.24,0.39,
2.562,-2.68,0.96,1.02,1.56,-2.12,0.39,
2.564,-2.68,0.96,1.02,1.59,-1.99,0.39,
2.566,-2.68,0.96,1.02,1.62,-1.86,0.38,
2.568,-2.80,0.96,0.46,1.62,-1.86,0.38,
2.568,-2.80,0.96,0.46,1.65,-1.71,0.37,
2.57,-2.80,0.96,0.46,1.70,-1.56,0.36,
2.572,-2.80,0.96,0.46,1.75,-1.39,0.35,
2.576,-2.80,0.96,0.46,1.80,-1.22,0.34,
2.577,-2.80,0.96,0.46,1.85,-1.04,0.32,
2.58,-2.77,0.79,-0.34,1.85,-1.04,0.32,
2.581,-2.77,0.79,-0.34,1.91,-0.84,0.31,
2.581,-2.77,0.79,-0.34,1.98,-0.64,0.29,
2.582,-2.77,0.79,-0.34,2.06,-0.42,0.27,
2.584,-2.77,0.79,-0.34,2.15,-0.20,0.24,
2.586,-2.77,0.79,-0.34,2.23,0.03,0.22,
2.588,-2.77,0.50,-1.46,2.23,0.03,0.22,
2.589,-2.77,0.50,-1.46,2.30,0.26,0.19,
2.59,-2.77,0.50,-1.46,2.37,0.50,0.17,
2.592,-2.77,0.50,-1.46,2.44,0.74,0.16,
2.594,-2.77,0.50,-1.46,2.51,0.98,0.15,
2.596,-2.77,0.50,-1.46,2.56,1.21,0.14,
2.598,-2.39,0.21,-2.85,2.56,1.21,0.14,
2.598,-2.39,0.21,-2.85,2.61,1.43,0.15,
2.6,-2.39,0.21,-2.85,2.65,1.64,0.15,
2.602,-2.39,0.21,-2.85,2.68,1.84,0.15,
2.604,-2.39,0.21,-2.85,2.69,2.01,0.16,
2.606,-2.39,0.21,-2.85,2.70,2.17,0.17,
2.608,-1.89,0.06,-5.13,2.70,2.17,0.17,
2.61,-1.89,0.06,-5.13,2.67,2.29,0.18,
2.611,-1.89,0.06,-5.13,2.63,2.38,0.19,
2.613,-1.89,0.06,-5.13,2.57,2.45,0.20,
2.613,-1.89,0.06,-5.13,2.49,2.48,0.20,
2.637,-1.89,0.06,-5.13,2.40,2.49,0.20,
2.637,-0.81,-0.17,-7.41,2.40,2.49,0.20,
2.637,-0.81,-0.17,-7.41,2.31,2.48,0.20,
2.638,-0.81,-0.17,-7.41,2.21,2.44,0.19,
2.638,-0.81,-0.17,-7.41,2.10,2.38,0.18,
2.638,-0.81,-0.17,-7.41,1.94,2.25,0.17,
2.639,-0.81,-0.17,-7.41,1.88,2.20,0.16,
2.639,0.19,-0.44,-8.02,1.88,2.20,0.16,
2.639,0.19,-0.44,-8.02,1.77,2.09,0.14,
2.639,0.19,-0.44,-8.02,1.66,1.96,0.12,
2.64,0.19,-0.44,-8.02,1.56,1.82,0.10,
2.64,0.19,-0.44,-8.02,1.46,1.66,0.08,
2.64,0.19,-0.44,-8.02,1.37,1.50,0.06,
2.641,0.59,-0.71,-6.73,1.37,1.50,0.06,
2.641,0.59,-0.71,-6.73,1.28,1.31,0.04,
2.641,0.59,-0.71,-6.73,1.19,1.12,0.02,
2.641,0.59,-0.71,-6.73,1.12,0.92,0.00,
2.644,0.59,-0.71,-6.73,1.04,0.71,-0.01,
2.647,0.59,-0.71,-6.73,0.97,0.49,-0.03,
2.649,0.53,-0.92,-4.98,0.97,0.49,-0.03,
2.65,0.53,-0.92,-4.98,0.91,0.28,-0.05,
2.65,0.53,-0.92,-4.98,0.85,0.06,-0.07,
2.651,0.53,-0.92,-4.98,0.79,-0.15,-0.08,
2.653,0.53,-0.92,-4.98,0.74,-0.37,-0.10,
2.655,0.53,-0.92,-4.98,0.70,-0.58,-0.11,
2.658,0.08,-0.90,-3.33,0.70,-0.58,-0.11,
2.658,0.08,-0.90,-3.33,0.66,-0.78,-0.12,
2.676,0.08,-0.90,-3.33,0.63,-0.98,-0.12,
2.676,0.08,-0.90,-3.33,0.61,-1.17,-0.13,
2.676,0.08,-0.90,-3.33,0.59,-1.35,-0.13,
2.677,0.08,-0.90,-3.33,0.59,-1.51,-0.13,
2.677,-0.63,-0.62,-1.68,0.59,-1.51,-0.13,
2.677,-0.63,-0.62,-1.68,0.59,-1.67,-0.12,
2.677,-0.63,-0.62,-1.68,0.60,-1.81,-0.12,
2.678,-0.63,-0.62,-1.68,0.62,-1.94,-0.11,
2.678,-0.63,-0.62,-1.68,0.65,-2.05,-0.10,
2.678,-0.63,-0.62,-1.68,0.69,-2.16,-0.09,
2.678,-1.37,-0.27,-0.07,0.69,-2.16,-0.09,
2.679,-1.37,-0.27,-0.07,0.74,-2.26,-0.07,
2.684,-1.37,-0.27,-0.07,0.79,-2.34,-0.06,
2.684,-1.37,-0.27,-0.07,0.85,-2.41,-0.04,
2.684,-1.37,-0.27,-0.07,0.91,-2.47,-0.02,
2.689,-1.37,-0.27,-0.07,0.97,-2.51,-0.01,
2.689,-2.05,0.16,1.17,0.97,-2.51,-0.01,
2.689,-2.05,0.16,1.17,1.04,-2.55,0.00,
2.69,-2.05,0.16,1.17,1.11,-2.56,0.02,
2.692,-2.05,0.16,1.17,1.18,-2.56,0.03,
2.715,-2.05,0.16,1.17,1.25,-2.55,0.05,
2.715,-2.05,0.16,1.17,1.31,-2.52,0.06,
2.716,-2.37,0.53,1.52,1.31,-2.52,0.06,
2.716,-2.37,0.53,1.52,1.37,-2.47,0.07,
2.716,-2.37,0.53,1.52,1.43,-2.40,0.08,
2.716,-2.37,0.53,1.52,1.49,-2.32,0.09,
2.717,-2.37,0.53,1.52,1.53,-2.23,0.10,
2.717,-2.37,0.53,1.52,1.58,-2.13,0.10,
2.717,-2.49,0.68,1.14,1.58,-2.13,0.10,
2.717,-2.49,0.68,1.14,1.62,-2.01,0.10,
2.718,-2.49,0.68,1.14,1.64,-1.88,0.10,
2.718,-2.49,0.68,1.14,1.67,-1.74,0.10,
2.718,-2.49,0.68,1.14,1.68,-1.59,0.09,
2.718,-2.49,0.68,1.14,1.69,-1.43,0.08,
2.719,-2.18,0.60,0.21,1.69,-1.43,0.08,
2.719,-2.18,0.60,0.21,1.70,-1.26,0.08,
2.723,-2.18,0.60,0.21,1.70,-1.09,0.06,
2.724,-2.18,0.60,0.21,1.69,-0.90,0.05,
2.724,-2.18,0.60,0.21,1.68,-0.71,0.04,
2.725,-2.18,0.60,0.21,1.67,-0.51,0.02,
2.728,-1.87,0.30,-0.94,1.67,-0.51,0.02,
2.728,-1.87,0.30,-0.94,1.65,-0.30,0.01,
2.73,-1.87,0.30,-0.94,1.63,-0.09,-0.01,
2.731,-1.87,0.30,-0.94,1.62,0.13,-0.02,
2.734,-1.87,0.30,-0.94,1.59,0.35,-0.04,
2.735,-1.87,0.30,-0.94,1.58,0.57,-0.05,
2.738,-1.46,-0.34,-2.06,1.58,0.57,-0.05,
2.738,-1.46,-0.34,-2.06,1.56,0.78,-0.07,
2.74,-1.46,-0.34,-2.06,1.54,1.00,-0.08,
2.742,-1.46,-0.34,-2.06,1.53,1.21,-0.08,
2.743,-1.46,-0.34,-2.06,1.52,1.41,-0.09,
2.746,-1.46,-0.34,-2.06,1.51,1.62,-0.09,
2.748,-1.18,-1.47,-3.12,1.51,1.62,-0.09,
2.748,-1.18,-1.47,-3.12,1.50,1.81,-0.08,
2.749,-1.18,-1.47,-3.12,1.49,2.01,-0.08,
2.751,-1.18,-1.47,-3.12,1.49,2.19,-0.07,
2.754,-1.18,-1.47,-3.12,1.49,2.37,-0.05,
2.758,-1.18,-1.47,-3.12,1.50,2.54,-0.04,
2.758,-0.96,-2.41,-4.03,1.50,2.54,-0.04,
2.758,-0.96,-2.41,-4.03,1.50,2.70,-0.03,
2.765,-0.96,-2.41,-4.03,1.51,2.84,-0.01,
2.765,-0.96,-2.41,-4.03,1.52,2.96,0.00,
2.765,-0.96,-2.41,-4.03,1.53,3.07,0.02,
2.766,-0.96,-2.41,-4.03,1.53,3.16,0.03,
2.768,-0.49,-3.15,-5.38,1.53,3.16,0.03,
2.768,-0.49,-3.15,-5.38,1.54,3.22,0.04,
2.769,-0.49,-3.15,-5.38,1.53,3.25,0.05,
2.771,-0.49,-3.15,-5.38,1.52,3.25,0.06,
2.774,-0.49,-3.15,-5.38,1.49,3.22,0.06,
2.782,-0.49,-3.15,-5.38,1.45,3.15,0.06,
2.782,0.27,-3.80,-6.97,1.45,3.15,0.06,
2.782,0.27,-3.80,-6.97,1.40,3.05,0.06,
2.782,0.27,-3.80,-6.97,1.34,2.90,0.05,
2.783,0.27,-3.80,-6.97,1.25,2.71,0.04,
2.807,0.27,-3.80,-6.97,1.15,2.49,0.03,
2.808,0.27,-3.80,-6.97,1.02,2.22,0.01,
2.808,1.15,-4.60,-8.99,1.02,2.22,0.01,
2.808,1.15,-4.60,-8.99,0.88,1.93,-0.01,
2.809,1.15,-4.60,-8.99,0.73,1.61,-0.03,
2.809,1.15,-4.60,-8.99,0.56,1.27,-0.06,
2.809,1.15,-4.60,-8.99,0.39,0.93,-0.08,
2.809,1.15,-4.60,-8.99,0.21,0.58,-0.11,
2.81,1.74,-5.17,-9.71,0.21,0.58,-0.11,
2.81,1.74,-5.17,-9.71,0.03,0.24,-0.15,
2.81,1.74,-5.17,-9.71,-0.13,-0.09,-0.18,
2.81,1.74,-5.17,-9.71,-0.29,-0.40,-0.21,
2.811,1.74,-5.17,-9.71,-0.43,-0.68,-0.25,
2.811,1.74,-5.17,-9.71,-0.55,-0.93,-0.28,
2.811,1.72,-5.16,-8.15,-0.55,-0.93,-0.28,
2.811,1.72,-5.16,-8.15,-0.66,-1.14,-0.30,
2.812,1.72,-5.16,-8.15,-0.75,-1.33,-0.33,
2.812,1.72,-5.16,-8.15,-0.83,-1.48,-0.35,
2.815,1.72,-5.16,-8.15,-0.89,-1.60,-0.37,
2.816,1.72,-5.16,-8.15,-0.94,-1.69,-0.38,
2.82,1.13,-4.58,-5.72,-0.94,-1.69,-0.38,
2.82,1.13,-4.58,-5.72,-0.99,-1.75,-0.39,
2.82,1.13,-4.58,-5.72,-1.02,-1.78,-0.40,
2.822,1.13,-4.58,-5.72,-1.04,-1.79,-0.40,
2.824,1.13,-4.58,-5.72,-1.06,-1.78,-0.41,
2.828,1.13,-4.58,-5.72,-1.07,-1.75,-0.40,
2.847,0.60,-4.29,-4.14,-1.07,-1.75,-0.40,
2.847,0.60,-4.29,-4.14,-1.09,-1.71,-0.40,
2.848,0.60,-4.29,-4.14,-1.10,-1.65,-0.40,
2.848,0.60,-4.29,-4.14,-1.12,-1.58,-0.39,
2.848,0.60,-4.29,-4.14,-1.13,-1.50,-0.38,
2.848,0.60,-4.29,-4.14,-1.15,-1.41,-0.37,
2.848,0.34,-4.31,-3.30,-1.15,-1.41,-0.37,
2.849,0.34,-4.31,-3.30,-1.17,-1.32,-0.36,
2.849,0.34,-4.31,-3.30,-1.20,-1.22,-0.35,
2.849,0.34,-4.31,-3.30,-1.23,-1.12,-0.34,
2.849,0.34,-4.31,-3.30,-1.26,-1.03,-0.33,
2.85,0.34,-4.58,-3.05,-1.26,-1.03,-0.33,
2.85,0.34,-4.58,-3.05,-1.34,-0.82,-0.31,
2.85,0.34,-4.58,-3.05,-1.34,-0.82,-0.31,
2.85,0.34,-4.58,-3.05,-1.38,-0.72,-0.30,
2.854,0.34,-4.58,-3.05,-1.42,-0.61,-0.29,
2.854,0.34,-4.58,-3.05,-1.47,-0.50,-0.29,
2.855,0.34,-4.58,-3.05,-1.52,-0.39,-0.28,
2.858,0.44,-4.73,-3.22,-1.52,-0.39,-0.28,
2.858,0.44,-4.73,-3.22,-1.57,-0.28,-0.27,
2.86,0.44,-4.73,-3.22,-1.62,-0.16,-0.27,
2.862,0.44,-4.73,-3.22,-1.67,-0.04,-0.27,
2.863,0.44,-4.73,-3.22,-1.73,0.07,-0.27,
2.865,0.44,-4.73,-3.22,-1.80,0.19,-0.27,
2.868,0.48,-4.49,-4.07,-1.80,0.19,-0.27,
2.868,0.48,-4.49,-4.07,-1.86,0.31,-0.28,
2.869,0.48,-4.49,-4.07,-1.94,0.41,-0.29,
2.871,0.48,-4.49,-4.07,-2.02,0.52,-0.30,
2.873,0.48,-4.49,-4.07,-2.11,0.62,-0.31,
2.876,0.48,-4.49,-4.07,-2.21,0.72,-0.33,
2.878,0.49,-3.77,-5.64,-2.21,0.72,-0.33,
2.878,0.49,-3.77,-5.64,-2.33,0.81,-0.35,
2.879,0.49,-3.77,-5.64,-2.46,0.89,-0.38,
2.881,0.49,-3.77,-5.64,-2.64,0.96,-0.41,
2.883,0.49,-3.77,-5.64,-2.85,0.99,-0.44,
2.885,0.49,-3.77,-5.64,-3.09,1.01,-0.48,
2.887,0.78,-2.98,-9.82,-3.09,1.01,-0.48,
2.887,0.78,-2.98,-9.82,-3.32,1.01,-0.51,
2.889,0.78,-2.98,-9.82,-3.54,0.99,-0.54,
2.891,0.78,-2.98,-9.82,-3.75,0.97,-0.57,
2.894,0.78,-2.98,-9.82,-3.94,0.93,-0.59,
2.895,0.78,-2.98,-9.82,-4.10,0.89,-0.61,
2.898,0.54,-2.39,-7.95,-4.10,0.89,-0.61,
2.898,0.54,-2.39,-7.95,-4.23,0.84,-0.63,
2.899,0.54,-2.39,-7.95,-4.32,0.79,-0.64,
2.901,0.54,-2.39,-7.95,-4.37,0.74,-0.65,
2.903,0.54,-2.39,-7.95,-4.40,0.69,-0.65,
2.905,0.54,-2.39,-7.95,-4.40,0.63,-0.65,
2.907,0.21,-2.42,-1.64,-4.40,0.63,-0.65,
2.907,0.21,-2.42,-1.64,-4.37,0.58,-0.65,
2.909,0.21,-2.42,-1.64,-4.32,0.52,-0.64,
2.911,0.21,-2.42,-1.64,-4.26,0.47,-0.62,
2.914,0.21,-2.42,-1.64,-4.19,0.41,-0.61,
2.915,0.21,-2.42,-1.64,-4.10,0.35,-0.58,
2.918,-0.20,-2.80,3.38,-4.10,0.35,-0.58,
2.918,-0.20,-2.80,3.38,-4.02,0.29,-0.55,
2.919,-0.20,-2.80,3.38,-3.93,0.23,-0.52,
2.921,-0.20,-2.80,3.38,-3.85,0.16,-0.48,
2.924,-0.20,-2.80,3.38,-3.77,0.10,-0.43,
2.925,-0.20,-2.80,3.38,-3.69,0.03,-0.38,
2.927,-1.50,-3.02,5.69,-3.69,0.03,-0.38,
2.928,-1.50,-3.02,5.69,-3.62,-0.04,-0.32,
2.929,-1.50,-3.02,5.69,-3.55,-0.10,-0.26,
2.931,-1.50,-3.02,5.69,-3.49,-0.17,-0.19,
2.933,-1.50,-3.02,5.69,-3.42,-0.25,-0.13,
2.935,-1.50,-3.02,5.69,-3.36,-0.32,-0.06,
2.937,-2.03,-2.87,6.25,-3.36,-0.32,-0.06,
2.938,-2.03,-2.87,6.25,-3.30,-0.41,0.00,
2.939,-2.03,-2.87,6.25,-3.24,-0.49,0.07,
2.942,-2.03,-2.87,6.25,-3.18,-0.58,0.13,
2.943,-2.03,-2.87,6.25,-3.13,-0.66,0.18,
2.945,-2.03,-2.87,6.25,-3.08,-0.75,0.24,
2.948,-1.83,-3.04,6.39,-3.08,-0.75,0.24,
2.948,-1.83,-3.04,6.39,-3.03,-0.83,0.29,
2.972,-1.83,-3.04,6.39,-2.98,-0.90,0.33,
2.973,-1.83,-3.04,6.39,-2.93,-0.98,0.37,
2.973,-1.83,-3.04,6.39,-2.89,-1.06,0.41,
2.973,-1.83,-3.04,6.39,-2.85,-1.13,0.43,
2.973,-0.75,-3.53,5.93,-2.85,-1.13,0.43,
2.974,-0.75,-3.53,5.93,-2.81,-1.20,0.46,
2.974,-0.75,-3.53,5.93,-2.77,-1.27,0.48,
2.974,-0.75,-3.53,5.93,-2.73,-1.33,0.50,
2.974,-0.75,-3.53,5.93,-2.70,-1.38,0.51,
2.974,-0.75,-3.53,5.93,-2.67,-1.43,0.53,
2.974,0.45,-4.30,5.67,-2.67,-1.43,0.53,
2.974,0.45,-4.30,5.67,-2.64,-1.47,0.54,
2.975,0.45,-4.30,5.67,-2.61,-1.50,0.54,
2.975,0.45,-4.30,5.67,-2.59,-1.53,0.54,
2.975,0.45,-4.30,5.67,-2.55,-1.56,0.53,
2.976,0.45,-4.30,5.67,-2.54,-1.57,0.53,
2.978,1.61,-4.99,5.30,-2.54,-1.57,0.53,
2.978,1.61,-4.99,5.30,-2.53,-1.58,0.51,
2.979,1.61,-4.99,5.30,-2.51,-1.59,0.50,
2.981,1.61,-4.99,5.30,-2.49,-1.60,0.48,
2.983,1.61,-4.99,5.30,-2.48,-1.60,0.46,
2.985,1.61,-4.99,5.30,-2.47,-1.60,0.43,
2.987,2.85,-5.58,5.14,-2.47,-1.60,0.43,
2.988,2.85,-5.58,5.14,-2.46,-1.60,0.40,
2.989,2.85,-5.58,5.14,-2.45,-1.60,0.36,
2.993,2.85,-5.58,5.14,-2.44,-1.59,0.32,
3.018,2.85,-5.58,5.14,-2.43,-1.59,0.28,
3.018,2.85,-5.58,5.14,-2.41,-1.58,0.23,
3.018,4.08,-5.87,5.01,-2.41,-1.58,0.23,
3.019,4.08,-5.87,5.01,-2.41,-1.57,0.18,
3.019,4.08,-5.87,5.01,-2.40,-1.56,0.13,
3.019,4.08,-5.87,5.01,-2.39,-1.56,0.08,
3.019,4.08,-5.87,5.01,-2.38,-1.55,0.02,
3.02,4.08,-5.87,5.01,-2.37,-1.54,-0.04,
3.02,5.21,-5.85,5.06,-2.37,-1.54,-0.04,
3.02,5.21,-5.85,5.06,-2.36,-1.52,-0.10,
3.02,5.21,-5.85,5.06,-2.35,-1.50,-0.16,
3.021,5.21,-5.85,5.06,-2.34,-1.45,-0.25,
3.021,5.21,-5.85,5.06,-2.33,-1.42,-0.27,
3.021,5.21,-5.85,5.06,-2.32,-1.36,-0.33,
3.021,5.56,-5.42,4.76,-2.32,-1.36,-0.33,
3.022,5.56,-5.42,4.76,-2.31,-1.27,-0.38,
3.022,5.56,-5.42,4.76,-2.31,-1.15,-0.43,
3.022,5.56,-5.42,4.76,-2.30,-0.88,-0.49,
3.028,5.56,-5.42,4.76,-2.30,-0.77,-0.51,
3.029,5.56,-5.42,4.76,-2.31,-0.53,-0.55,
3.029,5.32,-4.49,3.12,-2.31,-0.53,-0.55,
3.029,5.32,-4.49,3.12,-2.32,-0.26,-0.59,
3.03,5.32,-4.49,3.12,-2.34,0.06,-0.62,
3.032,5.32,-4.49,3.12,-2.36,0.41,-0.65,
3.036,5.32,-4.49,3.12,-2.39,0.77,-0.67,
3.036,5.32,-4.49,3.12,-2.42,1.14,-0.69,
3.038,4.32,-3.23,0.97,-2.42,1.14,-0.69,
3.038,4.32,-3.23,0.97,-2.45,1.50,-0.70,
3.039,4.32,-3.23,0.97,-2.49,1.85,-0.71,
3.044,4.32,-3.23,0.97,-2.52,2.17,-0.71,
3.05,4.32,-3.23,0.97,-2.55,2.47,-0.71,
3.05,4.32,-3.23,0.97,-2.58,2.73,-0.71,
3.05,3.42,-1.76,1.35,-2.58,2.73,-0.71,
3.05,3.42,-1.76,1.35,-2.61,2.96,-0.71,
3.056,3.42,-1.76,1.35,-2.63,3.15,-0.71,
3.057,3.42,-1.76,1.35,-2.64,3.31,-0.71,
3.057,3.42,-1.76,1.35,-2.66,3.44,-0.71,
3.057,3.42,-1.76,1.35,-2.67,3.53,-0.71,
3.061,2.68,-0.34,2.78,-2.67,3.53,-0.71,
3.061,2.68,-0.34,2.78,-2.68,3.60,-0.72,
3.062,2.68,-0.34,2.78,-2.68,3.63,-0.72,
3.062,2.68,-0.34,2.78,-2.68,3.64,-0.73,
3.064,2.68,-0.34,2.78,-2.68,3.63,-0.73,
3.065,2.68,-0.34,2.78,-2.68,3.58,-0.74,
3.067,2.21,0.78,4.08,-2.68,3.58,-0.74,
3.068,2.21,0.78,4.08,-2.67,3.52,-0.75,
3.069,2.21,0.78,4.08,-2.67,3.49,-0.75,
3.071,2.21,0.78,4.08,-2.66,3.38,-0.75,
3.073,2.21,0.78,4.08,-2.66,3.34,-0.75,
3.076,2.21,0.78,4.08,-2.66,3.21,-0.75,
3.078,1.46,1.75,4.57,-2.66,3.21,-0.75,
3.078,1.46,1.75,4.57,-2.66,3.13,-0.75,
3.079,1.46,1.75,4.57,-2.65,3.08,-0.75,
3.081,1.46,1.75,4.57,-2.65,2.94,-0.74,
3.083,1.46,1.75,4.57,-2.65,2.90,-0.74,
3.087,1.46,1.75,4.57,-2.66,2.75,-0.73,
3.089,0.71,2.51,4.60,-2.66,2.75,-0.73,
3.09,0.71,2.51,4.60,-2.67,2.65,-0.72,
3.094,0.71,2.51,4.60,-2.67,2.60,-0.72,
3.094,0.71,2.51,4.60,-2.68,2.45,-0.70,
3.094,0.71,2.51,4.60,-2.69,2.35,-0.69,
3.095,0.71,2.51,4.60,-2.70,2.24,-0.68,
3.098,-0.19,3.19,4.12,-2.70,2.24,-0.68,
3.098,-0.19,3.19,4.12,-2.71,2.14,-0.67,
3.099,-0.19,3.19,4.12,-2.72,2.03,-0.65,
3.102,-0.19,3.19,4.12,-2.73,1.91,-0.64,
3.104,-0.19,3.19,4.12,-2.74,1.80,-0.63,
3.106,-0.19,3.19,4.12,-2.75,1.68,-0.62,
3.108,-0.71,3.76,4.03,-2.75,1.68,-0.62,
3.109,-0.71,3.76,4.03,-2.76,1.57,-0.61,
3.11,-0.71,3.76,4.03,-2.76,1.46,-0.60,
3.112,-0.71,3.76,4.03,-2.76,1.35,-0.59,
3.113,-0.71,3.76,4.03,-2.76,1.24,-0.58,
3.14,-0.71,3.76,4.03,-2.75,1.13,-0.57,
3.14,-1.09,4.32,4.14,-2.75,1.13,-0.57,
3.14,-1.09,4.32,4.14,-2.74,1.03,-0.56,
3.14,-1.09,4.32,4.14,-2.72,0.93,-0.56,
3.141,-1.09,4.32,4.14,-2.69,0.84,-0.56,
3.141,-1.09,4.32,4.14,-2.66,0.75,-0.55,
3.142,-1.09,4.32,4.14,-2.62,0.67,-0.54,
3.142,-1.27,4.78,4.84,-2.62,0.67,-0.54,
3.142,-1.27,4.78,4.84,-2.57,0.59,-0.54,
3.143,-1.27,4.78,4.84,-2.52,0.52,-0.54,
3.143,-1.27,4.78,4.84,-2.46,0.46,-0.53,
3.143,-1.27,4.78,4.84,-2.39,0.40,-0.52,
3.143,-1.27,4.78,4.84,-2.32,0.34,-0.52,
3.144,-1.65,5.29,5.37,-2.32,0.34,-0.52,
3.144,-1.65,5.29,5.37,-2.24,0.29,-0.51,
3.144,-1.65,5.29,5.37,-2.15,0.25,-0.51,
3.144,-1.65,5.29,5.37,-2.06,0.21,-0.50,
3.145,-1.65,5.29,5.37,-1.96,0.18,-0.49,
3.147,-1.65,5.29,5.37,-1.86,0.15,-0.48,
3.149,-2.03,5.62,6.15,-1.86,0.15,-0.48,
3.149,-2.03,5.62,6.15,-1.75,0.12,-0.47,
3.15,-2.03,5.62,6.15,-1.64,0.08,-0.45,
3.152,-2.03,5.62,6.15,-1.52,0.06,-0.44,
3.153,-2.03,5.62,6.15,-1.41,0.03,-0.42,
3.155,-2.03,5.62,6.15,-1.29,-0.01,-0.40,
3.158,-2.63,5.96,6.35,-1.29,-0.01,-0.40,
3.159,-2.63,5.96,6.35,-1.17,-0.04,-0.37,
3.179,-2.63,5.96,6.35,-1.06,-0.08,-0.35,
3.179,-2.63,5.96,6.35,-0.94,-0.10,-0.33,
3.179,-2.63,5.96,6.35,-0.82,-0.14,-0.30,
3.179,-2.63,5.96,6.35,-0.71,-0.17,-0.28,
3.18,-3.18,5.95,6.71,-0.71,-0.17,-0.28,
3.18,-3.18,5.95,6.71,-0.59,-0.20,-0.25,
3.18,-3.18,5.95,6.71,-0.48,-0.23,-0.22,
3.18,-3.18,5.95,6.71,-0.37,-0.26,-0.19,
3.18,-3.18,5.95,6.71,-0.26,-0.28,-0.17,
3.18,-3.18,5.95,6.71,-0.16,-0.31,-0.14,
3.18,-3.59,6.04,6.39,-0.16,-0.31,-0.14,
3.181,-3.59,6.04,6.39,-0.05,-0.33,-0.11,
3.181,-3.59,6.04,6.39,0.05,-0.36,-0.08,
3.184,-3.59,6.04,6.39,0.14,-0.38,-0.06,
3.184,-3.59,6.04,6.39,0.24,-0.40,-0.03,
3.185,-3.59,6.04,6.39,0.32,-0.42,-0.01,
3.188,-3.78,5.87,6.30,0.32,-0.42,-0.01,
3.188,-3.78,5.87,6.30,0.41,-0.43,0.01,
3.189,-3.78,5.87,6.30,0.49,-0.44,0.04,
3.193,-3.78,5.87,6.30,0.57,-0.45,0.06,
3.194,-3.78,5.87,6.30,0.64,-0.46,0.08,
3.195,-3.78,5.87,6.30,0.71,-0.47,0.10,
3.198,-3.65,5.79,5.71,0.71,-0.47,0.10,
3.198,-3.65,5.79,5.71,0.77,-0.48,0.12,
3.199,-3.65,5.79,5.71,0.84,-0.48,0.13,
3.201,-3.65,5.79,5.71,0.89,-0.49,0.15,
3.203,-3.65,5.79,5.71,0.95,-0.49,0.17,
3.205,-3.65,5.79,5.71,1.00,-0.49,0.19,
3.21,-3.56,5.51,5.54,1.00,-0.49,0.19,
3.21,-3.56,5.51,5.54,1.05,-0.49,0.21,
3.21,-3.56,5.51,5.54,1.10,-0.49,0.23,
3.211,-3.56,5.51,5.54,1.15,-0.49,0.25,
3.214,-3.56,5.51,5.54,1.19,-0.48,0.27,
3.215,-3.56,5.51,5.54,1.22,-0.48,0.28,
3.222,-3.35,5.41,5.25,1.22,-0.48,0.28,
3.222,-3.35,5.41,5.25,1.28,-0.47,0.31,
3.223,-3.35,5.41,5.25,1.33,-0.45,0.34,
3.223,-3.35,5.41,5.25,1.38,-0.44,0.36,
3.223,-3.35,5.41,5.25,1.42,-0.42,0.39,
3.233,-3.35,5.41,5.25,1.46,-0.39,0.41,
3.234,-3.26,5.19,5.39,1.46,-0.39,0.41,
3.234,-3.26,5.19,5.39,1.50,-0.37,0.43,
3.234,-3.26,5.19,5.39,1.54,-0.34,0.46,
3.234,-3.26,5.19,5.39,1.59,-0.31,0.48,
3.234,-3.26,5.19,5.39,1.63,-0.28,0.50,
3.235,-3.26,5.19,5.39,1.67,-0.25,0.52,
3.238,-2.98,5.07,5.11,1.67,-0.25,0.52,
3.238,-2.98,5.07,5.11,1.70,-0.21,0.55,
3.239,-2.98,5.07,5.11,1.74,-0.18,0.58,
3.246,-2.98,5.07,5.11,1.78,-0.15,0.60,
3.246,-2.98,5.07,5.11,1.82,-0.11,0.63,
3.246,-2.98,5.07,5.11,1.85,-0.08,0.66,
3.248,-2.81,4.93,4.95,1.85,-0.08,0.66,
3.248,-2.81,4.93,4.95,1.89,-0.04,0.70,
3.25,-2.81,4.93,4.95,1.93,-0.01,0.73,
3.252,-2.81,4.93,4.95,1.97,0.02,0.77,
3.254,-2.81,4.93,4.95,2.01,0.06,0.81,
3.256,-2.81,4.93,4.95,2.05,0.10,0.85,
3.258,-2.64,4.84,4.30,2.05,0.10,0.85,
3.258,-2.64,4.84,4.30,2.09,0.15,0.90,
3.259,-2.64,4.84,4.30,2.13,0.20,0.95,
3.262,-2.64,4.84,4.30,2.18,0.26,1.00,
3.263,-2.64,4.84,4.30,2.22,0.33,1.05,
3.266,-2.64,4.84,4.30,2.27,0.39,1.11,
3.268,-2.76,4.43,3.83,2.27,0.39,1.11,
3.269,-2.76,4.43,3.83,2.32,0.47,1.17,
3.27,-2.76,4.43,3.83,2.37,0.56,1.23,
3.272,-2.76,4.43,3.83,2.42,0.65,1.29,
3.273,-2.76,4.43,3.83,2.46,0.74,1.35,
3.276,-2.76,4.43,3.83,2.51,0.83,1.42,
3.278,-2.60,3.72,2.77,2.51,0.83,1.42,
3.306,-2.60,3.72,2.77,2.56,0.92,1.48,
3.306,-2.60,3.72,2.77,2.59,1.01,1.54,
3.307,-2.60,3.72,2.77,2.62,1.09,1.60,
3.307,-2.60,3.72,2.77,2.64,1.17,1.66,
3.307,-2.60,3.72,2.77,2.65,1.23,1.71,
3.307,-2.26,2.37,0.53,2.65,1.23,1.71,
3.307,-2.26,2.37,0.53,2.65,1.28,1.76,
3.307,-2.26,2.37,0.53,2.63,1.31,1.81,
3.308,-2.26,2.37,0.53,2.58,1.33,1.86,
3.308,-2.26,2.37,0.53,2.52,1.34,1.90,
3.308,-2.26,2.37,0.53,2.44,1.33,1.94,
3.308,-2.09,0.34,-4.56,2.44,1.33,1.94,
3.308,-2.09,0.34,-4.56,2.33,1.31,1.98,
3.308,-2.09,0.34,-4.56,2.18,1.27,2.02,
3.309,-2.09,0.34,-4.56,2.01,1.22,2.05,
3.309,-2.09,0.34,-4.56,1.81,1.14,2.07,
3.309,-2.09,0.34,-4.56,1.57,1.04,2.09,
3.309,-2.14,-3.31,-15.72,1.57,1.04,2.09,
3.309,-2.14,-3.31,-15.72,1.27,0.89,2.10,
3.31,-2.14,-3.31,-15.72,0.92,0.67,2.09,
3.314,-2.14,-3.31,-15.72,0.53,0.40,2.06,
3.314,-2.14,-3.31,-15.72,0.11,0.06,2.00,
3.315,-2.14,-3.31,-15.72,-0.36,-0.35,1.90,
3.318,0.80,-9.81,-32.95,-0.36,-0.35,1.90,
3.318,0.80,-9.81,-32.95,-0.86,-0.82,1.76,
3.319,0.80,-9.81,-32.95,-1.38,-1.35,1.58,
3.321,0.80,-9.81,-32.95,-1.91,-1.87,1.34,
3.324,0.80,-9.81,-32.95,-2.37,-2.33,1.07,
3.326,0.80,-9.81,-32.95,-2.70,-2.67,0.77,
3.344,9.27,-17.23,-44.21,-2.70,-2.67,0.77,
3.345,9.27,-17.23,-44.21,-2.89,-2.85,0.46,
3.345,9.27,-17.23,-44.21,-2.94,-2.85,0.17,
3.346,9.27,-17.23,-44.21,-2.88,-2.71,-0.10,
3.346,9.27,-17.23,-44.21,-2.74,-2.47,-0.33,
3.346,9.27,-17.23,-44.21,-2.55,-2.17,-0.53,
3.346,9.63,-16.47,-28.80,-2.55,-2.17,-0.53,
3.347,9.63,-16.47,-28.80,-2.34,-1.82,-0.69,
3.347,9.63,-16.47,-28.80,-2.11,-1.46,-0.81,
3.347,9.63,-16.47,-28.80,-1.87,-1.07,-0.91,
3.347,9.63,-16.47,-28.80,-1.63,-0.69,-0.98,
3.348,9.63,-16.47,-28.80,-1.38,-0.32,-1.02,
3.353,5.70,-8.43,-13.18,-1.38,-0.32,-1.02,
3.353,5.70,-8.43,-13.18,-0.88,0.40,-1.03,
3.353,5.70,-8.43,-13.18,-0.88,0.40,-1.03,
3.353,5.70,-8.43,-13.18,-0.64,0.72,-1.00,
3.354,5.70,-8.43,-13.18,-0.41,1.02,-0.97,
3.358,5.70,-8.43,-13.18,-0.19,1.27,-0.92,
3.359,4.23,-4.69,-7.25,-0.19,1.27,-0.92,
3.359,4.23,-4.69,-7.25,0.02,1.49,-0.87,
3.36,4.23,-4.69,-7.25,0.20,1.68,-0.81,
3.362,4.23,-4.69,-7.25,0.38,1.82,-0.75,
3.364,4.23,-4.69,-7.25,0.53,1.93,-0.69,
3.366,4.23,-4.69,-7.25,0.66,1.99,-0.62,
3.368,4.01,-1.49,-3.84,0.66,1.99,-0.62,
3.369,4.01,-1.49,-3.84,0.76,2.03,-0.54,
3.37,4.01,-1.49,-3.84,0.85,2.06,-0.46,
3.372,4.01,-1.49,-3.84,0.91,2.06,-0.38,
3.377,4.01,-1.49,-3.84,0.95,2.05,-0.29,
3.377,4.01,-1.49,-3.84,0.98,2.03,-0.20,
3.378,3.65,1.13,-2.96,0.98,2.03,-0.20,
3.379,3.65,1.13,-2.96,0.99,2.01,-0.10,
3.379,3.65,1.13,-2.96,0.98,1.98,-0.01,
3.381,3.65,1.13,-2.96,0.96,1.93,0.09,
3.384,3.65,1.13,-2.96,0.91,1.88,0.17,
3.385,3.65,1.13,-2.96,0.85,1.81,0.26,
3.388,3.58,3.24,-2.35,0.85,1.81,0.26,
3.388,3.58,3.24,-2.35,0.78,1.74,0.33,
3.39,3.58,3.24,-2.35,0.70,1.65,0.40,
3.391,3.58,3.24,-2.35,0.60,1.56,0.46,
3.394,3.58,3.24,-2.35,0.49,1.47,0.51,
3.395,3.58,3.24,-2.35,0.39,1.37,0.56,
3.399,3.79,4.28,-1.47,0.39,1.37,0.56,
3.399,3.79,4.28,-1.47,0.28,1.28,0.60,
3.399,3.79,4.28,-1.47,0.18,1.20,0.63,
3.401,3.79,4.28,-1.47,0.08,1.14,0.64,
3.403,3.79,4.28,-1.47,0.00,1.09,0.63,
3.405,3.79,4.28,-1.47,-0.07,1.05,0.61,
3.408,5.43,4.21,0.01,-0.07,1.05,0.61,
3.409,5.43,4.21,0.01,-0.13,1.02,0.57,
3.41,5.43,4.21,0.01,-0.16,1.00,0.53,
3.412,5.43,4.21,0.01,-0.17,0.97,0.47,
3.413,5.43,4.21,0.01,-0.16,0.94,0.40,
3.415,5.43,4.21,0.01,-0.13,0.90,0.33,
3.418,6.88,2.86,2.79,-0.13,0.90,0.33,
3.418,6.88,2.86,2.79,-0.08,0.84,0.25,
3.419,6.88,2.86,2.79,-0.02,0.77,0.17,
3.422,6.88,2.86,2.79,0.06,0.66,0.08,
3.424,6.88,2.86,2.79,0.15,0.53,-0.02,
3.426,6.88,2.86,2.79,0.24,0.36,-0.12,
3.428,7.80,1.42,6.12,0.24,0.36,-0.12,
3.429,7.80,1.42,6.12,0.34,0.17,-0.23,
3.429,7.80,1.42,6.12,0.45,-0.06,-0.34,
3.431,7.80,1.42,6.12,0.55,-0.32,-0.46,
3.434,7.80,1.42,6.12,0.65,-0.61,-0.57,
3.435,7.80,1.42,6.12,0.75,-0.92,-0.69,
3.438,7.52,-0.13,8.08,0.75,-0.92,-0.69,
3.438,7.52,-0.13,8.08,0.83,-1.26,-0.80,
3.44,7.52,-0.13,8.08,0.90,-1.61,-0.91,
3.442,7.52,-0.13,8.08,0.96,-1.97,-1.01,
3.443,7.52,-0.13,8.08,1.01,-2.34,-1.10,
3.445,7.52,-0.13,8.08,1.04,-2.71,-1.18,
3.448,6.35,-0.94,8.57,1.04,-2.71,-1.18,
3.449,6.35,-0.94,8.57,1.06,-3.08,-1.23,
3.477,6.35,-0.94,8.57,1.06,-3.44,-1.28,
3.477,6.35,-0.94,8.57,1.04,-3.79,-1.30,
3.477,6.35,-0.94,8.57,1.02,-4.12,-1.31,
3.477,6.35,-0.94,8.57,0.98,-4.44,-1.31,
3.477,3.40,-0.63,7.56,0.98,-4.44,-1.31,
3.478,3.40,-0.63,7.56,0.94,-4.73,-1.31,
3.478,3.40,-0.63,7.56,0.90,-4.99,-1.29,
3.478,3.40,-0.63,7.56,0.86,-5.21,-1.27,
3.478,3.40,-0.63,7.56,0.83,-5.41,-1.25,
3.478,3.40,-0.63,7.56,0.80,-5.57,-1.23,
3.479,1.31,0.44,6.81,0.80,-5.57,-1.23,
3.479,1.31,0.44,6.81,0.77,-5.71,-1.20,
3.479,1.31,0.44,6.81,0.76,-5.82,-1.17,
3.479,1.31,0.44,6.81,0.75,-5.88,-1.14,
3.479,1.31,0.44,6.81,0.75,-5.92,-1.10,
3.48,1.31,0.44,6.81,0.76,-5.92,-1.06,
3.48,0.44,1.14,6.30,0.76,-5.92,-1.06,
3.48,0.44,1.14,6.30,0.78,-5.89,-1.02,
3.48,0.44,1.14,6.30,0.81,-5.84,-0.98,
3.482,0.44,1.14,6.30,0.85,-5.76,-0.94,
3.484,0.44,1.14,6.30,0.89,-5.66,-0.90,
3.486,0.44,1.14,6.30,0.94,-5.55,-0.87,
3.488,-0.01,1.46,6.17,0.94,-5.55,-0.87,
3.488,-0.01,1.46,6.17,1.00,-5.43,-0.83,
3.491,-0.01,1.46,6.17,1.06,-5.30,-0.80,
3.492,-0.01,1.46,6.17,1.12,-5.16,-0.77,
3.509,-0.01,1.46,6.17,1.19,-5.01,-0.75,
3.509,-0.01,1.46,6.17,1.26,-4.85,-0.72,
3.509,-0.26,1.61,5.67,1.26,-4.85,-0.72,
3.509,-0.26,1.61,5.67,1.34,-4.69,-0.70,
3.51,-0.26,1.61,5.67,1.42,-4.52,-0.68,
3.51,-0.26,1.61,5.67,1.51,-4.34,-0.66,
3.51,-0.26,1.61,5.67,1.59,-4.15,-0.64,
3.51,-0.26,1.61,5.67,1.68,-3.95,-0.62,
3.51,-0.56,1.33,5.34,1.68,-3.95,-0.62,
3.51,-0.56,1.33,5.34,1.77,-3.75,-0.60,
3.511,-0.56,1.33,5.34,1.86,-3.54,-0.59,
3.514,-0.56,1.33,5.34,1.95,-3.32,-0.57,
3.514,-0.56,1.33,5.34,2.04,-3.09,-0.56,
3.517,-0.56,1.33,5.34,2.14,-2.86,-0.54,
3.519,-1.01,0.80,4.73,2.14,-2.86,-0.54,
3.519,-1.01,0.80,4.73,2.23,-2.62,-0.53,
3.521,-1.01,0.80,4.73,2.33,-2.38,-0.51,
3.521,-1.01,0.80,4.73,2.43,-2.13,-0.50,
3.534,-1.01,0.80,4.73,2.53,-1.89,-0.49,
3.534,-1.01,0.80,4.73,2.64,-1.64,-0.48,
3.535,-1.64,0.06,4.51,2.64,-1.64,-0.48,
3.535,-1.64,0.06,4.51,2.74,-1.40,-0.47,
3.535,-1.64,0.06,4.51,2.84,-1.16,-0.46,
3.535,-1.64,0.06,4.51,2.94,-0.90,-0.44,
3.535,-1.64,0.06,4.51,3.04,-0.57,-0.42,
3.535,-1.64,0.06,4.51,3.15,-0.24,-0.40,
3.538,-2.40,-0.54,3.62,3.15,-0.24,-0.40,
3.538,-2.40,-0.54,3.62,3.28,0.08,-0.39,
3.542,-2.40,-0.54,3.62,3.41,0.39,-0.37,
3.543,-2.40,-0.54,3.62,3.54,0.68,-0.35,
3.543,-2.40,-0.54,3.62,3.66,0.95,-0.33,
3.545,-2.40,-0.54,3.62,3.75,1.17,-0.31,
3.548,-2.92,-1.78,2.95,3.75,1.17,-0.31,
3.548,-2.92,-1.78,2.95,3.82,1.36,-0.29,
3.549,-2.92,-1.78,2.95,3.88,1.53,-0.26,
3.552,-2.92,-1.78,2.95,3.92,1.67,-0.23,
3.553,-2.92,-1.78,2.95,3.95,1.78,-0.20,
3.556,-2.92,-1.78,2.95,3.96,1.88,-0.17,
3.558,-2.89,-3.46,2.36,3.96,1.88,-0.17,
3.558,-2.89,-3.46,2.36,3.95,1.95,-0.13,
3.559,-2.89,-3.46,2.36,3.92,2.01,-0.09,
3.561,-2.89,-3.46,2.36,3.87,2.04,-0.05,
3.563,-2.89,-3.46,2.36,3.80,2.06,-0.01,
3.565,-2.89,-3.46,2.36,3.71,2.06,0.03,
3.567,-3.34,-4.97,1.24,3.71,2.06,0.03,
3.567,-3.34,-4.97,1.24,3.61,2.05,0.06,
3.569,-3.34,-4.97,1.24,3.50,2.02,0.10,
3.571,-3.34,-4.97,1.24,3.38,1.98,0.13,
3.573,-3.34,-4.97,1.24,3.25,1.93,0.17,
3.576,-3.34,-4.97,1.24,3.10,1.87,0.20,
3.578,-3.63,-5.66,-0.05,3.10,1.87,0.20,
3.578,-3.63,-5.66,-0.05,2.94,1.80,0.22,
3.579,-3.63,-5.66,-0.05,2.78,1.73,0.25,
3.581,-3.63,-5.66,-0.05,2.61,1.65,0.27,
3.583,-3.63,-5.66,-0.05,2.44,1.58,0.28,
3.585,-3.63,-5.66,-0.05,2.27,1.51,0.29,
3.587,-4.05,-5.67,-1.14,2.27,1.51,0.29,
3.588,-4.05,-5.67,-1.14,2.10,1.45,0.31,
3.59,-4.05,-5.67,-1.14,1.94,1.38,0.32,
3.591,-4.05,-5.67,-1.14,1.78,1.33,0.34,
3.593,-4.05,-5.67,-1.14,1.62,1.27,0.35,
3.595,-4.05,-5.67,-1.14,1.48,1.22,0.38,
3.599,-4.76,-5.01,-1.40,1.48,1.22,0.38,
3.599,-4.76,-5.01,-1.40,1.34,1.17,0.40,
3.599,-4.76,-5.01,-1.40,1.21,1.12,0.43,
3.601,-4.76,-5.01,-1.40,1.10,1.07,0.45,
3.603,-4.76,-5.01,-1.40,0.98,1.02,0.48,
3.605,-4.76,-5.01,-1.40,0.88,0.98,0.51,
3.608,-5.52,-4.06,-1.37,0.88,0.98,0.51,
3.608,-5.52,-4.06,-1.37,0.78,0.94,0.54,
3.61,-5.52,-4.06,-1.37,0.69,0.90,0.56,
3.611,-5.52,-4.06,-1.37,0.61,0.88,0.59,
3.613,-5.52,-4.06,-1.37,0.54,0.86,0.62,
3.644,-5.52,-4.06,-1.37,0.48,0.84,0.66,
3.645,-5.71,-2.70,-1.36,0.48,0.84,0.66,
3.645,-5.71,-2.70,-1.36,0.43,0.81,0.69,
3.645,-5.71,-2.70,-1.36,0.40,0.73,0.72,
3.645,-5.71,-2.70,-1.36,0.40,0.59,0.75,
3.646,-5.71,-2.70,-1.36,0.44,0.47,0.77,
3.646,-5.71,-2.70,-1.36,0.49,0.34,0.79,
3.646,-5.96,-0.83,-3.49,0.49,0.34,0.79,
3.647,-5.96,-0.83,-3.49,0.52,0.20,0.80,
3.647,-5.96,-0.83,-3.49,0.56,0.06,0.81,
3.647,-5.96,-0.83,-3.49,0.60,-0.08,0.82,
3.647,-5.96,-0.83,-3.49,0.65,-0.21,0.82,
3.648,-5.96,-0.83,-3.49,0.71,-0.32,0.82,
3.648,-5.40,0.78,-3.91,0.71,-0.32,0.82,
3.648,-5.40,0.78,-3.91,0.78,-0.42,0.82,
3.648,-5.40,0.78,-3.91,0.85,-0.49,0.81,
3.649,-5.40,0.78,-3.91,0.92,-0.55,0.80,
3.649,-5.40,0.78,-3.91,1.00,-0.59,0.79,
3.649,-5.40,0.78,-3.91,1.08,-0.62,0.79,
3.65,-4.95,1.50,-3.76,1.08,-0.62,0.79,
3.65,-4.95,1.50,-3.76,1.16,-0.62,0.77,
3.65,-4.95,1.50,-3.76,1.23,-0.61,0.77,
3.654,-4.95,1.50,-3.76,1.31,-0.59,0.76,
3.654,-4.95,1.50,-3.76,1.39,-0.55,0.74,
3.656,-4.95,1.50,-3.76,1.46,-0.50,0.73,
3.66,-4.40,1.86,-3.72,1.46,-0.50,0.73,
3.661,-4.40,1.86,-3.72,1.53,-0.43,0.72,
3.678,-4.40,1.86,-3.72,1.61,-0.36,0.70,
3.678,-4.40,1.86,-3.72,1.68,-0.28,0.69,
3.679,-4.40,1.86,-3.72,1.75,-0.19,0.68,
3.679,-4.40,1.86,-3.72,1.82,-0.10,0.66,
3.679,-3.58,1.90,-4.14,1.82,-0.10,0.66,
3.679,-3.58,1.90,-4.14,1.87,-0.02,0.64,
3.68,-3.58,1.90,-4.14,1.92,0.06,0.63,
3.68,-3.58,1.90,-4.14,1.97,0.13,0.61,
3.68,-3.58,1.90,-4.14,2.01,0.19,0.60,
3.68,-3.58,1.90,-4.14,2.04,0.25,0.59,
3.681,-2.39,1.59,-4.70,2.04,0.25,0.59,
3.681,-2.39,1.59,-4.70,2.06,0.31,0.58,
3.681,-2.39,1.59,-4.70,2.08,0.36,0.57,
3.682,-2.39,1.59,-4.70,2.09,0.41,0.57,
3.687,-2.39,1.59,-4.70,2.10,0.45,0.56,
3.687,-2.39,1.59,-4.70,2.10,0.48,0.56,
3.689,-1.61,1.05,-5.54,2.10,0.48,0.56,
3.689,-1.61,1.05,-5.54,2.10,0.51,0.56,
3.692,-1.61,1.05,-5.54,2.09,0.54,0.55,
3.692,-1.61,1.05,-5.54,2.08,0.56,0.55,
3.694,-1.61,1.05,-5.54,2.07,0.57,0.55,
3.696,-1.61,1.05,-5.54,2.04,0.58,0.55,
3.698,-0.89,0.60,-5.92,2.04,0.58,0.55,
3.698,-0.89,0.60,-5.92,2.02,0.58,0.54,
3.699,-0.89,0.60,-5.92,2.00,0.58,0.54,
3.702,-0.89,0.60,-5.92,1.96,0.57,0.53,
3.703,-0.89,0.60,-5.92,1.93,0.55,0.52,
3.706,-0.89,0.60,-5.92,1.90,0.53,0.51,
3.71,-0.16,0.11,-6.13,1.90,0.53,0.51,
3.71,-0.16,0.11,-6.13,1.86,0.50,0.50,
3.71,-0.16,0.11,-6.13,1.82,0.46,0.49,
3.712,-0.16,0.11,-6.13,1.78,0.41,0.47,
3.714,-0.16,0.11,-6.13,1.74,0.35,0.46,
3.716,-0.16,0.11,-6.13,1.69,0.28,0.44,
3.718,0.53,-0.27,-5.79,1.69,0.28,0.44,
3.718,0.53,-0.27,-5.79,1.64,0.20,0.42,
3.719,0.53,-0.27,-5.79,1.58,0.11,0.40,
3.722,0.53,-0.27,-5.79,1.53,0.02,0.38,
3.726,0.53,-0.27,-5.79,1.47,-0.09,0.36,
3.726,0.53,-0.27,-5.79,1.42,-0.20,0.34,
3.728,1.08,-0.66,-5.49,1.42,-0.20,0.34,
3.728,1.08,-0.66,-5.49,1.36,-0.32,0.33,
3.729,1.08,-0.66,-5.49,1.30,-0.44,0.31,
3.731,1.08,-0.66,-5.49,1.24,-0.57,0.29,
3.733,1.08,-0.66,-5.49,1.19,-0.70,0.27,
3.735,1.08,-0.66,-5.49,1.14,-0.84,0.26,
3.738,1.27,-0.73,-4.75,1.14,-0.84,0.26,
3.739,1.27,-0.73,-4.75,1.09,-0.97,0.24,
3.74,1.27,-0.73,-4.75,1.04,-1.10,0.23,
3.742,1.27,-0.73,-4.75,1.00,-1.21,0.21,
3.744,1.27,-0.73,-4.75,0.97,-1.30,0.20,
3.745,1.27,-0.73,-4.75,0.94,-1.38,0.19,
3.748,1.08,-0.53,-3.99,0.94,-1.38,0.19,
3.748,1.08,-0.53,-3.99,0.91,-1.45,0.17,
3.749,1.08,-0.53,-3.99,0.89,-1.50,0.16,
3.752,1.08,-0.53,-3.99,0.88,-1.55,0.15,
3.753,1.08,-0.53,-3.99,0.87,-1.58,0.14,
3.756,1.08,-0.53,-3.99,0.86,-1.61,0.13,
3.758,0.71,-0.06,-3.05,0.86,-1.61,0.13,
3.758,0.71,-0.06,-3.05,0.86,-1.62,0.11,
3.76,0.71,-0.06,-3.05,0.87,-1.62,0.10,
3.762,0.71,-0.06,-3.05,0.88,-1.62,0.09,
3.764,0.71,-0.06,-3.05,0.90,-1.61,0.08,
3.765,0.71,-0.06,-3.05,0.93,-1.60,0.07,
3.767,0.30,0.50,-2.05,0.93,-1.60,0.07,
3.768,0.30,0.50,-2.05,0.96,-1.59,0.05,
3.769,0.30,0.50,-2.05,1.00,-1.58,0.04,
3.777,0.30,0.50,-2.05,1.04,-1.56,0.02,
3.778,0.30,0.50,-2.05,1.08,-1.54,0.01,
3.778,0.30,0.50,-2.05,1.14,-1.52,-0.01,
3.779,-0.08,0.94,-0.96,1.14,-1.52,-0.01,
3.781,-0.08,0.94,-0.96,1.19,-1.49,-0.03,
3.782,-0.08,0.94,-0.96,1.25,-1.46,-0.05,
3.802,-0.08,0.94,-0.96,1.31,-1.42,-0.07,
3.803,-0.08,0.94,-0.96,1.38,-1.38,-0.10,
3.803,-0.08,0.94,-0.96,1.44,-1.33,-0.12,
3.803,-0.37,1.22,-0.23,1.44,-1.33,-0.12,
3.803,-0.37,1.22,-0.23,1.50,-1.28,-0.14,
3.803,-0.37,1.22,-0.23,1.57,-1.21,-0.17,
3.804,-0.37,1.22,-0.23,1.63,-1.13,-0.19,
3.804,-0.37,1.22,-0.23,1.70,-1.05,-0.21,
3.804,-0.37,1.22,-0.23,1.76,-0.95,-0.23,
3.804,-0.56,1.28,-0.15,1.76,-0.95,-0.23,
3.804,-0.56,1.28,-0.15,1.82,-0.84,-0.25,
3.805,-0.56,1.28,-0.15,1.88,-0.72,-0.27,
3.805,-0.56,1.28,-0.15,1.94,-0.60,-0.28,
3.805,-0.56,1.28,-0.15,2.00,-0.46,-0.29,
3.807,-0.56,1.28,-0.15,2.05,-0.31,-0.30,
3.808,-0.70,1.03,-0.68,2.05,-0.31,-0.30,
3.808,-0.70,1.03,-0.68,2.11,-0.15,-0.31,
3.813,-0.70,1.03,-0.68,2.16,0.02,-0.31,
3.814,-0.70,1.03,-0.68,2.22,0.21,-0.31,
3.814,-0.70,1.03,-0.68,2.27,0.40,-0.31,
3.815,-0.70,1.03,-0.68,2.32,0.60,-0.30,
3.817,-0.67,0.47,-1.78,2.32,0.60,-0.30,
3.818,-0.67,0.47,-1.78,2.36,0.80,-0.29,
3.819,-0.67,0.47,-1.78,2.40,1.01,-0.28,
3.822,-0.67,0.47,-1.78,2.43,1.22,-0.27,
3.823,-0.67,0.47,-1.78,2.45,1.43,-0.25,
3.825,-0.67,0.47,-1.78,2.47,1.64,-0.24,
3.839,-0.37,-0.59,-3.56,2.47,1.64,-0.24,
3.839,-0.37,-0.59,-3.56,2.48,1.84,-0.22,
3.839,-0.37,-0.59,-3.56,2.49,2.03,-0.21,
3.839,-0.37,-0.59,-3.56,2.48,2.22,-0.20,
3.84,-0.37,-0.59,-3.56,2.47,2.40,-0.18,
3.84,-0.37,-0.59,-3.56,2.46,2.56,-0.17,
3.84,0.27,-1.92,-5.43,2.46,2.56,-0.17,
3.84,0.27,-1.92,-5.43,2.43,2.71,-0.17,
3.84,0.27,-1.92,-5.43,2.40,2.85,-0.17,
3.842,0.27,-1.92,-5.43,2.36,2.97,-0.17,
3.843,0.27,-1.92,-5.43,2.31,3.07,-0.18,
3.848,1.06,-3.45,-7.92,2.31,3.07,-0.18,
3.848,1.06,-3.45,-7.92,2.18,3.19,-0.21,
3.848,1.06,-3.45,-7.92,2.18,3.19,-0.21,
3.849,1.06,-3.45,-7.92,2.10,3.21,-0.23,
3.851,1.06,-3.45,-7.92,2.01,3.18,-0.26,
3.853,1.06,-3.45,-7.92,1.90,3.11,-0.29,
3.855,1.06,-3.45,-7.92,1.78,2.99,-0.32,
3.858,1.40,-4.60,-10.56,1.78,2.99,-0.32,
3.858,1.40,-4.60,-10.56,1.64,2.82,-0.36,
3.859,1.40,-4.60,-10.56,1.47,2.61,-0.39,
3.861,1.40,-4.60,-10.56,1.29,2.35,-0.43,
3.863,1.40,-4.60,-10.56,1.09,2.03,-0.47,
3.865,1.40,-4.60,-10.56,0.87,1.67,-0.49,
3.867,0.96,-5.51,-13.38,0.87,1.67,-0.49,
3.867,0.96,-5.51,-13.38,0.64,1.26,-0.52,
3.869,0.96,-5.51,-13.38,0.40,0.82,-0.55,
3.871,0.96,-5.51,-13.38,0.17,0.38,-0.57,
3.874,0.96,-5.51,-13.38,-0.05,-0.06,-0.59,
3.875,0.96,-5.51,-13.38,-0.24,-0.48,-0.61,
3.877,0.14,-5.82,-12.42,-0.24,-0.48,-0.61,
3.878,0.14,-5.82,-12.42,-0.41,-0.87,-0.63,
3.879,0.14,-5.82,-12.42,-0.56,-1.22,-0.64,
3.881,0.14,-5.82,-12.42,-0.69,-1.54,-0.65,
3.883,0.14,-5.82,-12.42,-0.79,-1.82,-0.65,
3.885,0.14,-5.82,-12.42,-0.87,-2.05,-0.65,
3.888,-0.83,-5.46,-9.05,-0.87,-2.05,-0.65,
3.888,-0.83,-5.46,-9.05,-0.93,-2.24,-0.65,
3.889,-0.83,-5.46,-9.05,-0.98,-2.39,-0.65,
3.893,-0.83,-5.46,-9.05,-1.01,-2.50,-0.64,
3.894,-0.83,-5.46,-9.05,-1.03,-2.57,-0.63,
3.895,-0.83,-5.46,-9.05,-1.03,-2.60,-0.63,
3.897,-1.51,-5.08,-5.98,-1.03,-2.60,-0.63,
3.898,-1.51,-5.08,-5.98,-1.02,-2.60,-0.62,
3.899,-1.51,-5.08,-5.98,-1.01,-2.56,-0.61,
3.901,-1.51,-5.08,-5.98,-0.99,-2.50,-0.61,
3.904,-1.51,-5.08,-5.98,-0.96,-2.41,-0.60,
3.906,-1.51,-5.08,-5.98,-0.94,-2.31,-0.59,
3.907,-1.86,-5.34,-4.17,-0.94,-2.31,-0.59,
3.908,-1.86,-5.34,-4.17,-0.92,-2.18,-0.58,
3.909,-1.86,-5.34,-4.17,-0.90,-2.04,-0.57,
3.911,-1.86,-5.34,-4.17,-0.90,-1.90,-0.56,
3.913,-1.86,-5.34,-4.17,-0.90,-1.74,-0.54,
3.915,-1.86,-5.34,-4.17,-0.91,-1.58,-0.53,
3.917,-1.81,-6.05,-3.44,-0.91,-1.58,-0.53,
3.918,-1.81,-6.05,-3.44,-0.93,-1.43,-0.51,
3.919,-1.81,-6.05,-3.44,-0.95,-1.26,-0.48,
3.921,-1.81,-6.05,-3.44,-0.99,-1.10,-0.46,
3.923,-1.81,-6.05,-3.44,-1.03,-0.93,-0.44,
3.925,-1.81,-6.05,-3.44,-1.07,-0.76,-0.41,
3.928,-1.76,-6.96,-3.45,-1.07,-0.76,-0.41,
3.928,-1.76,-6.96,-3.45,-1.13,-0.59,-0.38,
3.929,-1.76,-6.96,-3.45,-1.18,-0.42,-0.35,
3.931,-1.76,-6.96,-3.45,-1.23,-0.25,-0.32,
3.933,-1.76,-6.96,-3.45,-1.28,-0.08,-0.29,
3.935,-1.76,-6.96,-3.45,-1.33,0.10,-0.26,
3.937,-1.64,-7.50,-3.50,-1.33,0.10,-0.26,
3.938,-1.64,-7.50,-3.50,-1.38,0.27,-0.23,
3.939,-1.64,-7.50,-3.50,-1.42,0.43,-0.20,
3.941,-1.64,-7.50,-3.50,-1.46,0.60,-0.17,
3.943,-1.64,-7.50,-3.50,-1.50,0.75,-0.15,
3.945,-1.64,-7.50,-3.50,-1.53,0.89,-0.12,
3.947,-1.41,-7.40,-3.88,-1.53,0.89,-0.12,
3.948,-1.41,-7.40,-3.88,-1.57,1.03,-0.11,
3.983,-1.41,-7.40,-3.88,-1.60,1.16,-0.09,
3.984,-1.41,-7.40,-3.88,-1.63,1.27,-0.09,
3.984,-1.41,-7.40,-3.88,-1.67,1.37,-0.09,
3.984,-1.41,-7.40,-3.88,-1.71,1.45,-0.10,
3.984,-0.83,-6.32,-4.75,-1.71,1.45,-0.10,
3.985,-0.83,-6.32,-4.75,-1.77,1.51,-0.11,
3.985,-0.83,-6.32,-4.75,-1.83,1.56,-0.12,
3.985,-0.83,-6.32,-4.75,-1.90,1.59,-0.14,
3.985,-0.83,-6.32,-4.75,-1.99,1.61,-0.17,
3.986,-0.83,-6.32,-4.75,-2.09,1.62,-0.19,
3.986,-0.27,-4.90,-6.90,-2.09,1.62,-0.19,
3.986,-0.27,-4.90,-6.90,-2.21,1.61,-0.22,
3.986,-0.27,-4.90,-6.90,-2.36,1.57,-0.25,
3.987,-0.27,-4.90,-6.90,-2.57,1.50,-0.28,
3.987,-0.27,-4.90,-6.90,-2.85,1.38,-0.33,
3.987,-0.27,-4.90,-6.90,-3.14,1.25,-0.38,
3.987,0.80,-3.74,-12.71,-3.14,1.25,-0.38,
3.988,0.80,-3.74,-12.71,-3.43,1.10,-0.43,
3.988,0.80,-3.74,-12.71,-3.71,0.96,-0.49,
3.988,0.80,-3.74,-12.71,-3.98,0.81,-0.54,
3.989,0.80,-3.74,-12.71,-4.22,0.67,-0.59,
3.989,0.80,-3.74,-12.71,-4.43,0.55,-0.64,
3.989,1.55,-3.07,-12.23,-4.43,0.55,-0.64,
3.989,1.55,-3.07,-12.23,-4.60,0.45,-0.68,
3.99,1.55,-3.07,-12.23,-4.72,0.36,-0.71,
3.993,1.55,-3.07,-12.23,-4.81,0.29,-0.73,
4.012,1.55,-3.07,-12.23,-4.85,0.24,-0.75,
4.013,1.55,-3.07,-12.23,-4.86,0.20,-0.76,
4.013,1.18,-2.93,-4.63,-4.86,0.20,-0.76,
4.013,1.18,-2.93,-4.63,-4.83,0.17,-0.76,
4.013,1.18,-2.93,-4.63,-4.78,0.16,-0.76,
4.014,1.18,-2.93,-4.63,-4.71,0.15,-0.76,
4.014,1.18,-2.93,-4.63,-4.61,0.14,-0.75,
4.014,1.18,-2.93,-4.63,-4.51,0.11,-0.74,
4.014,0.69,-3.11,2.41,-4.51,0.11,-0.74,
4.015,0.69,-3.11,2.41,-4.39,0.07,-0.72,
4.015,0.69,-3.11,2.41,-4.28,0.01,-0.70,
4.015,0.69,-3.11,2.41,-4.17,-0.07,-0.67,
4.015,0.69,-3.11,2.41,-4.06,-0.16,-0.63,
4.015,0.69,-3.11,2.41,-3.95,-0.26,-0.58,
4.021,-0.71,-3.24,5.95,-3.95,-0.26,-0.58,
4.021,-0.71,-3.24,5.95,-3.84,-0.37,-0.52,
4.021,-0.71,-3.24,5.95,-3.74,-0.48,-0.46,
4.022,-0.71,-3.24,5.95,-3.63,-0.59,-0.39,
4.025,-0.71,-3.24,5.95,-3.54,-0.71,-0.32,
4.026,-0.71,-3.24,5.95,-3.45,-0.81,-0.25,
4.031,-1.70,-3.18,7.05,-3.45,-0.81,-0.25,
4.031,-1.70,-3.18,7.05,-3.35,-0.91,-0.17,
4.032,-1.70,-3.18,7.05,-3.27,-0.99,-0.10,
4.032,-1.70,-3.18,7.05,-3.19,-1.08,-0.03,
4.033,-1.70,-3.18,7.05,-3.12,-1.15,0.04,
4.037,-1.70,-3.18,7.05,-3.05,-1.22,0.10,
4.045,-1.58,-3.55,6.34,-3.05,-1.22,0.10,
4.046,-1.58,-3.55,6.34,-2.99,-1.29,0.16,
4.046,-1.58,-3.55,6.34,-2.93,-1.36,0.21,
4.046,-1.58,-3.55,6.34,-2.88,-1.42,0.26,
4.046,-1.58,-3.55,6.34,-2.83,-1.49,0.31,
4.05,-1.58,-3.55,6.34,-2.79,-1.55,0.35,
4.05,-0.65,-4.46,5.41,-2.79,-1.55,0.35,
4.051,-0.65,-4.46,5.41,-2.75,-1.61,0.39,
4.051,-0.65,-4.46,5.41,-2.71,-1.66,0.42,
4.064,-0.65,-4.46,5.41,-2.68,-1.71,0.45,
4.065,-0.65,-4.46,5.41,-2.66,-1.75,0.48,
4.065,-0.65,-4.46,5.41,-2.63,-1.78,0.50,
4.065,0.50,-5.15,4.66,-2.63,-1.78,0.50,
4.065,0.50,-5.15,4.66,-2.61,-1.80,0.52,
4.065,0.50,-5.15,4.66,-2.60,-1.82,0.53,
4.066,0.50,-5.15,4.66,-2.58,-1.83,0.54,
4.066,0.50,-5.15,4.66,-2.57,-1.84,0.54,
4.066,0.50,-5.15,4.66,-2.56,-1.84,0.54,
4.073,1.73,-5.71,4.43,-2.56,-1.84,0.54,
4.074,1.73,-5.71,4.43,-2.55,-1.84,0.52,
4.074,1.73,-5.71,4.43,-2.55,-1.84,0.51,
4.074,1.73,-5.71,4.43,-2.54,-1.84,0.49,
4.074,1.73,-5.71,4.43,-2.53,-1.83,0.46,
4.078,1.73,-5.71,4.43,-2.53,-1.82,0.43,
4.081,3.03,-6.06,4.19,-2.53,-1.82,0.43,
4.081,3.03,-6.06,4.19,-2.53,-1.81,0.39,
4.081,3.03,-6.06,4.19,-2.53,-1.80,0.35,
4.085,3.03,-6.06,4.19,-2.53,-1.79,0.30,
4.085,3.03,-6.06,4.19,-2.53,-1.78,0.25,
4.086,3.03,-6.06,4.19,-2.53,-1.78,0.19,
4.096,4.38,-6.11,4.19,-2.53,-1.78,0.19,
4.097,4.38,-6.11,4.19,-2.53,-1.77,0.13,
4.097,4.38,-6.11,4.19,-2.53,-1.77,0.06,
4.098,4.38,-6.11,4.19,-2.53,-1.77,-0.01,
4.098,4.38,-6.11,4.19,-2.53,-1.77,-0.08,
4.098,4.38,-6.11,4.19,-2.52,-1.76,-0.14,
4.098,5.40,-5.82,4.19,-2.52,-1.76,-0.14,
4.099,5.40,-5.82,4.19,-2.52,-1.75,-0.21,
4.102,5.40,-5.82,4.19,-2.51,-1.73,-0.27,
4.102,5.40,-5.82,4.19,-2.51,-1.70,-0.33,
4.108,5.40,-5.82,4.19,-2.50,-1.66,-0.38,
4.109,5.40,-5.82,4.19,-2.50,-1.61,-0.43,
4.109,5.45,-5.03,4.26,-2.50,-1.61,-0.43,
4.109,5.45,-5.03,4.26,-2.49,-1.54,-0.46,
4.112,5.45,-5.03,4.26,-2.48,-1.45,-0.49,
4.113,5.45,-5.03,4.26,-2.47,-1.34,-0.52,
4.114,5.45,-5.03,4.26,-2.47,-1.21,-0.53,
4.136,5.45,-5.03,4.26,-2.46,-1.05,-0.54,
4.137,4.51,-3.58,3.97,-2.46,-1.05,-0.54,
4.137,4.51,-3.58,3.97,-2.46,-0.85,-0.54,
4.137,4.51,-3.58,3.97,-2.46,-0.61,-0.54,
4.137,4.51,-3.58,3.97,-2.47,-0.34,-0.54,
4.137,4.51,-3.58,3.97,-2.48,-0.03,-0.53,
4.138,4.51,-3.58,3.97,-2.48,0.29,-0.52,
4.138,3.25,-1.71,2.39,-2.48,0.29,-0.52,
4.138,3.25,-1.71,2.39,-2.49,0.64,-0.51,
4.138,3.25,-1.71,2.39,-2.51,1.01,-0.49,
4.138,3.25,-1.71,2.39,-2.53,1.39,-0.46,
4.138,3.25,-1.71,2.39,-2.55,1.76,-0.44,
4.138,3.25,-1.71,2.39,-2.57,2.11,-0.42,
4.14,1.72,0.09,1.14,-2.57,2.11,-0.42,
4.141,1.72,0.09,1.14,-2.59,2.44,-0.40,
4.141,1.72,0.09,1.14,-2.61,2.74,-0.39,
4.142,1.72,0.09,1.14,-2.63,3.01,-0.37,
4.145,1.72,0.09,1.14,-2.64,3.25,-0.36,
4.145,1.72,0.09,1.14,-2.66,3.46,-0.35,
4.148,0.77,1.47,1.46,-2.66,3.46,-0.35,
4.148,0.77,1.47,1.46,-2.67,3.64,-0.34,
4.149,0.77,1.47,1.46,-2.68,3.79,-0.33,
4.151,0.77,1.47,1.46,-2.69,3.92,-0.33,
4.154,0.77,1.47,1.46,-2.70,4.03,-0.33,
4.155,0.77,1.47,1.46,-2.71,4.11,-0.33,
4.158,0.27,2.45,2.22,-2.71,4.11,-0.33,
4.158,0.27,2.45,2.22,-2.72,4.17,-0.34,
4.175,0.27,2.45,2.22,-2.72,4.21,-0.34,
4.175,0.27,2.45,2.22,-2.72,4.23,-0.35,
4.176,0.27,2.45,2.22,-2.72,4.23,-0.36,
4.176,0.27,2.45,2.22,-2.72,4.21,-0.37,
4.176,-0.11,3.24,2.94,-2.72,4.21,-0.37,
4.176,-0.11,3.24,2.94,-2.73,4.18,-0.38,
4.177,-0.11,3.24,2.94,-2.73,4.13,-0.38,
4.177,-0.11,3.24,2.94,-2.73,4.07,-0.39,
4.177,-0.11,3.24,2.94,-2.74,4.00,-0.39,
4.177,-0.11,3.24,2.94,-2.76,3.91,-0.40,
4.181,-0.85,3.92,2.88,-2.76,3.91,-0.40,
4.181,-0.85,3.92,2.88,-2.78,3.81,-0.40,
4.181,-0.85,3.92,2.88,-2.81,3.71,-0.39,
4.181,-0.85,3.92,2.88,-2.83,3.58,-0.38,
4.187,-0.85,3.92,2.88,-2.87,3.45,-0.37,
4.188,-0.85,3.92,2.88,-2.91,3.31,-0.36,
4.191,-1.78,4.45,2.41,-2.91,3.31,-0.36,
4.191,-1.78,4.45,2.41,-2.94,3.16,-0.35,
4.192,-1.78,4.45,2.41,-2.98,3.00,-0.35,
4.195,-1.78,4.45,2.41,-3.02,2.84,-0.34,
4.196,-1.78,4.45,2.41,-3.05,2.67,-0.33,
4.196,-1.78,4.45,2.41,-3.08,2.50,-0.32,
4.2,-2.18,4.87,2.43,-3.08,2.50,-0.32,
4.2,-2.18,4.87,2.43,-3.10,2.33,-0.31,
4.2,-2.18,4.87,2.43,-3.12,2.16,-0.31,
4.203,-2.18,4.87,2.43,-3.14,1.99,-0.30,
4.204,-2.18,4.87,2.43,-3.14,1.83,-0.30,
4.211,-2.18,4.87,2.43,-3.14,1.67,-0.30,
4.211,-2.30,5.16,3.13,-3.14,1.67,-0.30,
4.212,-2.30,5.16,3.13,-3.13,1.52,-0.30,
4.212,-2.30,5.16,3.13,-3.12,1.37,-0.29,
4.212,-2.30,5.16,3.13,-3.09,1.23,-0.29,
4.214,-2.30,5.16,3.13,-3.06,1.09,-0.29,
4.215,-2.30,5.16,3.13,-3.02,0.97,-0.29,
4.218,-2.35,5.41,3.94,-3.02,0.97,-0.29,
4.218,-2.35,5.41,3.94,-2.97,0.85,-0.29,
4.219,-2.35,5.41,3.94,-2.92,0.73,-0.29,
4.222,-2.35,5.41,3.94,-2.85,0.63,-0.29,
4.223,-2.35,5.41,3.94,-2.78,0.53,-0.29,
4.225,-2.35,5.41,3.94,-2.70,0.45,-0.29,
4.23,-2.42,5.41,5.16,-2.70,0.45,-0.29,
4.23,-2.42,5.41,5.16,-2.61,0.37,-0.29,
4.23,-2.42,5.41,5.16,-2.51,0.30,-0.28,
4.233,-2.42,5.41,5.16,-2.40,0.25,-0.28,
4.233,-2.42,5.41,5.16,-2.28,0.20,-0.28,
4.236,-2.42,5.41,5.16,-2.16,0.17,-0.27,
4.238,-2.78,5.59,6.10,-2.16,0.17,-0.27,
4.239,-2.78,5.59,6.10,-2.02,0.14,-0.26,
4.239,-2.78,5.59,6.10,-1.88,0.12,-0.25,
4.241,-2.78,5.59,6.10,-1.74,0.11,-0.22,
4.243,-2.78,5.59,6.10,-1.60,0.10,-0.20,
4.245,-2.78,5.59,6.10,-1.45,0.10,-0.18,
4.247,-3.42,5.48,7.08,-1.45,0.10,-0.18,
4.248,-3.42,5.48,7.08,-1.31,0.10,-0.15,
4.25,-3.42,5.48,7.08,-1.17,0.10,-0.12,
4.251,-3.42,5.48,7.08,-1.03,0.10,-0.08,
4.253,-3.42,5.48,7.08,-0.88,0.10,-0.04,
4.255,-3.42,5.48,7.08,-0.75,0.10,-0.01,
4.258,-3.79,5.44,7.10,-0.75,0.10,-0.01,
4.258,-3.79,5.44,7.10,-0.62,0.10,0.03,
4.261,-3.79,5.44,7.10,-0.49,0.10,0.07,
4.262,-3.79,5.44,7.10,-0.36,0.10,0.11,
4.265,-3.79,5.44,7.10,-0.25,0.10,0.14,
4.265,-3.79,5.44,7.10,-0.14,0.09,0.18,
4.269,-3.81,5.28,7.06,-0.14,0.09,0.18,
4.27,-3.81,5.28,7.06,-0.03,0.08,0.21,
4.27,-3.81,5.28,7.06,0.07,0.07,0.24,
4.274,-3.81,5.28,7.06,0.17,0.07,0.28,
4.274,-3.81,5.28,7.06,0.25,0.07,0.31,
4.277,-3.81,5.28,7.06,0.34,0.07,0.34,
4.278,-3.69,5.39,6.31,0.34,0.07,0.34,
4.278,-3.69,5.39,6.31,0.42,0.07,0.38,
4.281,-3.69,5.39,6.31,0.49,0.08,0.41,
4.281,-3.69,5.39,6.31,0.56,0.09,0.44,
4.301,-3.69,5.39,6.31,0.62,0.10,0.47,
4.301,-3.69,5.39,6.31,0.68,0.11,0.50,
4.302,-3.64,5.37,5.92,0.68,0.11,0.50,
4.302,-3.64,5.37,5.92,0.73,0.13,0.53,
4.302,-3.64,5.37,5.92,0.79,0.14,0.56,
4.302,-3.64,5.37,5.92,0.84,0.16,0.59,
4.303,-3.64,5.37,5.92,0.89,0.17,0.62,
4.303,-3.64,5.37,5.92,0.93,0.19,0.65,
4.303,-3.43,5.44,5.46,0.93,0.19,0.65,
4.303,-3.43,5.44,5.46,0.98,0.20,0.68,
4.304,-3.43,5.44,5.46,1.02,0.22,0.71,
4.304,-3.43,5.44,5.46,1.06,0.24,0.73,
4.304,-3.43,5.44,5.46,1.11,0.25,0.76,
4.308,-3.43,5.44,5.46,1.14,0.27,0.78,
4.309,-3.18,5.39,5.60,1.14,0.27,0.78,
4.31,-3.18,5.39,5.60,1.19,0.28,0.80,
4.31,-3.18,5.39,5.60,1.23,0.29,0.82,
4.314,-3.18,5.39,5.60,1.27,0.30,0.85,
4.315,-3.18,5.39,5.60,1.31,0.31,0.87,
4.316,-3.18,5.39,5.60,1.36,0.31,0.89,
4.32,-2.82,5.47,5.39,1.36,0.31,0.89,
4.32,-2.82,5.47,5.39,1.40,0.31,0.90,
4.321,-2.82,5.47,5.39,1.44,0.31,0.92,
4.326,-2.82,5.47,5.39,1.49,0.30,0.94,
4.327,-2.82,5.47,5.39,1.54,0.30,0.96,
4.327,-2.82,5.47,5.39,1.59,0.29,0.98,
4.345,-2.51,5.60,5.45,1.59,0.29,0.98,
4.345,-2.51,5.60,5.45,1.64,0.28,1.00,
4.345,-2.51,5.60,5.45,1.69,0.27,1.02,
4.346,-2.51,5.60,5.45,1.73,0.26,1.03,
4.346,-2.51,5.60,5.45,1.79,0.25,1.05,
4.346,-2.51,5.60,5.45,1.84,0.25,1.07,
4.346,-2.32,5.67,4.82,1.84,0.25,1.07,
4.347,-2.32,5.67,4.82,1.89,0.24,1.10,
4.347,-2.32,5.67,4.82,1.94,0.25,1.12,
4.347,-2.32,5.67,4.82,2.00,0.25,1.15,
4.347,-2.32,5.67,4.82,2.06,0.27,1.17,
4.348,-2.32,5.67,4.82,2.11,0.28,1.20,
4.356,-2.16,5.44,4.26,2.11,0.28,1.20,
4.356,-2.16,5.44,4.26,2.23,0.35,1.26,
4.356,-2.16,5.44,4.26,2.23,0.35,1.26,
4.356,-2.16,5.44,4.26,2.29,0.39,1.29,
4.356,-2.16,5.44,4.26,2.36,0.44,1.32,
4.356,-2.16,5.44,4.26,2.42,0.49,1.35,
4.36,-2.00,4.98,3.42,2.42,0.49,1.35,
4.361,-2.00,4.98,3.42,2.48,0.55,1.38,
4.361,-2.00,4.98,3.42,2.54,0.62,1.41,
4.361,-2.00,4.98,3.42,2.60,0.69,1.44,
4.364,-2.00,4.98,3.42,2.66,0.76,1.47,
4.368,-2.00,4.98,3.42,2.71,0.83,1.49,
4.368,-1.41,4.02,2.03,2.71,0.83,1.49,
4.368,-1.41,4.02,2.03,2.77,0.90,1.50,
4.377,-1.41,4.02,2.03,2.81,0.97,1.51,
4.378,-1.41,4.02,2.03,2.85,1.04,1.52,
4.378,-1.41,4.02,2.03,2.89,1.15,1.53,
4.378,-1.41,4.02,2.03,2.90,1.18,1.53,
4.379,-0.62,2.28,-1.44,2.90,1.18,1.53,
4.379,-0.62,2.28,-1.44,2.91,1.26,1.52,
4.38,-0.62,2.28,-1.44,2.89,1.33,1.52,
4.384,-0.62,2.28,-1.44,2.86,1.40,1.50,
4.384,-0.62,2.28,-1.44,2.80,1.48,1.48,
4.389,-0.62,2.28,-1.44,2.70,1.55,1.46,
4.39,0.16,-0.75,-10.17,2.70,1.55,1.46,
4.39,0.16,-0.75,-10.17,2.57,1.60,1.44,
4.39,0.16,-0.75,-10.17,2.39,1.62,1.41,
4.394,0.16,-0.75,-10.17,2.15,1.59,1.38,
4.394,0.16,-0.75,-10.17,1.83,1.47,1.34,
4.397,0.16,-0.75,-10.17,1.44,1.27,1.30,
4.398,1.47,-6.16,-26.69,1.44,1.27,1.30,
4.399,1.47,-6.16,-26.69,0.99,0.97,1.25,
4.4,1.47,-6.16,-26.69,0.47,0.58,1.18,
4.404,1.47,-6.16,-26.69,-0.13,0.13,1.11,
4.405,1.47,-6.16,-26.69,-0.77,-0.33,1.00,
4.411,1.47,-6.16,-26.69,-1.36,-0.71,0.88,
4.411,6.17,-14.08,-45.28,-1.36,-0.71,0.88,
4.411,6.17,-14.08,-45.28,-1.85,-0.97,0.73,
4.411,6.17,-14.08,-45.28,-2.23,-1.11,0.56,
4.415,6.17,-14.08,-45.28,-2.48,-1.14,0.37,
4.416,6.17,-14.08,-45.28,-2.62,-1.07,0.18,
4.416,6.17,-14.08,-45.28,-2.66,-0.92,-0.01,
4.42,11.00,-17.94,-35.76,-2.66,-0.92,-0.01,
4.42,11.00,-17.94,-35.76,-2.62,-0.70,-0.19,
4.421,11.00,-17.94,-35.76,-2.52,-0.43,-0.34,
4.423,11.00,-17.94,-35.76,-2.38,-0.14,-0.46,
4.424,11.00,-17.94,-35.76,-2.21,0.18,-0.57,
4.425,11.00,-17.94,-35.76,-2.03,0.50,-0.65,
4.433,10.22,-13.49,-19.65,-2.03,0.50,-0.65,
4.434,10.22,-13.49,-19.65,-1.83,0.82,-0.71,
4.435,10.22,-13.49,-19.65,-1.63,1.14,-0.75,
4.435,10.22,-13.49,-19.65,-1.43,1.45,-0.78,
4.435,10.22,-13.49,-19.65,-1.24,1.75,-0.79,
4.435,10.22,-13.49,-19.65,-1.05,2.01,-0.80,
4.441,8.15,-8.60,-10.56,-1.05,2.01,-0.80,
4.442,8.15,-8.60,-10.56,-0.89,2.26,-0.79,
4.442,8.15,-8.60,-10.56,-0.74,2.47,-0.77,
4.442,8.15,-8.60,-10.56,-0.60,2.64,-0.74,
4.444,8.15,-8.60,-10.56,-0.48,2.77,-0.70,
4.446,8.15,-8.60,-10.56,-0.39,2.85,-0.66,
4.448,7.09,-4.68,-6.84,-0.39,2.85,-0.66,
4.449,7.09,-4.68,-6.84,-0.30,2.89,-0.60,
4.468,7.09,-4.68,-6.84,-0.23,2.89,-0.53,
4.468,7.09,-4.68,-6.84,-0.17,2.86,-0.46,
4.468,7.09,-4.68,-6.84,-0.12,2.80,-0.39,
4.469,7.09,-4.68,-6.84,-0.09,2.71,-0.31,
4.469,5.72,-0.70,-4.33,-0.09,2.71,-0.31,
4.469,5.72,-0.70,-4.33,-0.06,2.61,-0.22,
4.469,5.72,-0.70,-4.33,-0.05,2.49,-0.14,
4.469,5.72,-0.70,-4.33,-0.05,2.35,-0.05,
4.47,5.72,-0.70,-4.33,-0.06,2.20,0.03,
4.47,5.72,-0.70,-4.33,-0.09,2.03,0.12,
4.47,4.95,2.60,-2.23,-0.09,2.03,0.12,
4.47,4.95,2.60,-2.23,-0.12,1.86,0.20,
4.47,4.95,2.60,-2.23,-0.17,1.66,0.26,
4.474,4.95,2.60,-2.23,-0.22,1.45,0.32,
4.474,4.95,2.60,-2.23,-0.27,1.24,0.36,
4.476,4.95,2.60,-2.23,-0.34,1.03,0.39,
4.48,5.76,3.94,-0.92,-0.34,1.03,0.39,
4.48,5.76,3.94,-0.92,-0.40,0.84,0.41,
4.48,5.76,3.94,-0.92,-0.46,0.67,0.40,
4.482,5.76,3.94,-0.92,-0.51,0.53,0.38,
4.484,5.76,3.94,-0.92,-0.55,0.42,0.34,
4.489,5.76,3.94,-0.92,-0.57,0.35,0.29,
4.489,8.12,3.39,-0.04,-0.57,0.35,0.29,
4.49,8.12,3.39,-0.04,-0.58,0.32,0.22,
4.49,8.12,3.39,-0.04,-0.57,0.31,0.13,
4.491,8.12,3.39,-0.04,-0.54,0.31,0.03,
4.513,8.12,3.39,-0.04,-0.48,0.33,-0.07,
4.513,8.12,3.39,-0.04,-0.41,0.35,-0.18,
4.513,9.12,1.85,2.12,-0.41,0.35,-0.18,
4.514,9.12,1.85,2.12,-0.32,0.35,-0.29,
4.514,9.12,1.85,2.12,-0.21,0.34,-0.39,
4.514,9.12,1.85,2.12,-0.09,0.30,-0.50,
4.514,9.12,1.85,2.12,0.05,0.22,-0.59,
4.515,9.12,1.85,2.12,0.19,0.12,-0.69,
4.515,8.63,0.31,5.58,0.19,0.12,-0.69,
4.515,8.63,0.31,5.58,0.33,-0.02,-0.77,
4.515,8.63,0.31,5.58,0.47,-0.19,-0.85,
4.516,8.63,0.31,5.58,0.61,-0.40,-0.93,
4.516,8.63,0.31,5.58,0.74,-0.65,-1.01,
4.516,8.63,0.31,5.58,0.85,-0.94,-1.09,
4.521,7.63,-0.82,7.75,0.85,-0.94,-1.09,
4.522,7.63,-0.82,7.75,0.96,-1.25,-1.16,
4.522,7.63,-0.82,7.75,1.05,-1.58,-1.22,
4.522,7.63,-0.82,7.75,1.11,-1.93,-1.29,
4.527,7.63,-0.82,7.75,1.16,-2.30,-1.34,
4.528,7.63,-0.82,7.75,1.18,-2.68,-1.39,
4.528,5.83,-0.91,8.07,1.18,-2.68,-1.39,
4.528,5.83,-0.91,8.07,1.18,-3.06,-1.42,
4.53,5.83,-0.91,8.07,1.17,-3.44,-1.44,
4.534,5.83,-0.91,8.07,1.14,-3.81,-1.44,
4.534,5.83,-0.91,8.07,1.09,-4.16,-1.42,
4.539,5.83,-0.91,8.07,1.03,-4.50,-1.40,
4.539,2.43,0.37,6.97,1.03,-4.50,-1.40,
4.539,2.43,0.37,6.97,0.98,-4.80,-1.38,
4.54,2.43,0.37,6.97,0.93,-5.07,-1.34,
4.542,2.43,0.37,6.97,0.88,-5.31,-1.30,
4.543,2.43,0.37,6.97,0.85,-5.52,-1.26,
4.546,2.43,0.37,6.97,0.83,-5.69,-1.21,
4.548,-0.36,2.30,6.86,0.83,-5.69,-1.21,
4.548,-0.36,2.30,6.86,0.81,-5.83,-1.16,
4.549,-0.36,2.30,6.86,0.80,-5.95,-1.11,
4.551,-0.36,2.30,6.86,0.80,-6.04,-1.05,
4.554,-0.36,2.30,6.86,0.81,-6.11,-0.99,
4.555,-0.36,2.30,6.86,0.83,-6.16,-0.93,
4.558,-1.97,3.46,6.73,0.83,-6.16,-0.93,
4.558,-1.97,3.46,6.73,0.86,-6.18,-0.86,
4.559,-1.97,3.46,6.73,0.90,-6.17,-0.81,
4.562,-1.97,3.46,6.73,0.94,-6.15,-0.75,
4.563,-1.97,3.46,6.73,0.99,-6.10,-0.69,
4.565,-1.97,3.46,6.73,1.05,-6.03,-0.64,
4.575,-2.47,3.69,6.79,1.05,-6.03,-0.64,
4.576,-2.47,3.69,6.79,1.11,-5.94,-0.59,
4.576,-2.47,3.69,6.79,1.18,-5.83,-0.54,
4.576,-2.47,3.69,6.79,1.26,-5.71,-0.50,
4.576,-2.47,3.69,6.79,1.35,-5.56,-0.47,
4.576,-2.47,3.69,6.79,1.44,-5.40,-0.43,
4.585,-2.30,3.44,6.70,1.44,-5.40,-0.43,
4.586,-2.30,3.44,6.70,1.54,-5.22,-0.40,
4.586,-2.30,3.44,6.70,1.65,-5.04,-0.37,
4.586,-2.30,3.44,6.70,1.77,-4.85,-0.35,
4.586,-2.30,3.44,6.70,1.89,-4.64,-0.33,
4.586,-2.30,3.44,6.70,2.02,-4.43,-0.32,
4.596,-1.79,2.52,7.13,2.02,-4.43,-0.32,
4.597,-1.79,2.52,7.13,2.15,-4.20,-0.31,
4.597,-1.79,2.52,7.13,2.28,-3.96,-0.31,
4.597,-1.79,2.52,7.13,2.42,-3.72,-0.32,
4.597,-1.79,2.52,7.13,2.57,-3.46,-0.33,
4.598,-1.79,2.52,7.13,2.72,-3.20,-0.34,
4.599,-1.26,1.04,7.10,2.72,-3.20,-0.34,
4.599,-1.26,1.04,7.10,2.86,-2.95,-0.35,
4.602,-1.26,1.04,7.10,3.01,-2.69,-0.37,
4.602,-1.26,1.04,7.10,3.16,-2.44,-0.39,
4.606,-1.26,1.04,7.10,3.30,-2.19,-0.40,
4.606,-1.26,1.04,7.10,3.45,-1.94,-0.40,
4.608,-1.66,-0.81,6.89,3.45,-1.94,-0.40,
4.608,-1.66,-0.81,6.89,3.58,-1.70,-0.40,
4.611,-1.66,-0.81,6.89,3.71,-1.46,-0.40,
4.613,-1.66,-0.81,6.89,3.83,-1.24,-0.39,
4.614,-1.66,-0.81,6.89,3.96,-1.02,-0.38,
4.635,-1.66,-0.81,6.89,4.07,-0.81,-0.35,
4.635,-2.03,-2.66,6.02,4.07,-0.81,-0.35,
4.635,-2.03,-2.66,6.02,4.17,-0.61,-0.33,
4.635,-2.03,-2.66,6.02,4.27,-0.43,-0.30,
4.636,-2.03,-2.66,6.02,4.37,-0.25,-0.27,
4.636,-2.03,-2.66,6.02,4.45,-0.08,-0.24,
4.636,-2.03,-2.66,6.02,4.51,0.07,-0.21,
4.636,-2.68,-4.52,4.92,4.51,0.07,-0.21,
4.636,-2.68,-4.52,4.92,4.56,0.21,-0.17,
4.637,-2.68,-4.52,4.92,4.60,0.35,-0.13,
4.637,-2.68,-4.52,4.92,4.61,0.47,-0.09,
4.637,-2.68,-4.52,4.92,4.62,0.58,-0.05,
4.637,-2.68,-4.52,4.92,4.61,0.66,-0.01,
4.64,-3.10,-6.19,3.34,4.61,0.66,-0.01,
4.641,-3.10,-6.19,3.34,4.57,0.73,0.03,
4.641,-3.10,-6.19,3.34,4.52,0.78,0.07,
4.643,-3.10,-6.19,3.34,4.44,0.81,0.10,
4.644,-3.10,-6.19,3.34,4.34,0.81,0.14,
4.646,-3.10,-6.19,3.34,4.23,0.81,0.17,
4.648,-3.61,-7.30,1.54,4.23,0.81,0.17,
4.648,-3.61,-7.30,1.54,4.11,0.78,0.20,
4.65,-3.61,-7.30,1.54,3.97,0.74,0.23,
4.653,-3.61,-7.30,1.54,3.81,0.69,0.25,
4.654,-3.61,-7.30,1.54,3.65,0.63,0.27,
4.655,-3.61,-7.30,1.54,3.47,0.56,0.28,
4.658,-3.84,-7.50,-0.03,3.47,0.56,0.28,
4.658,-3.84,-7.50,-0.03,3.29,0.49,0.30,
4.674,-3.84,-7.50,-0.03,3.10,0.42,0.30,
4.674,-3.84,-7.50,-0.03,2.91,0.34,0.30,
4.674,-3.84,-7.50,-0.03,2.73,0.26,0.31,
4.674,-3.84,-7.50,-0.03,2.54,0.19,0.31,
4.675,-4.51,-7.11,-1.17,2.54,0.19,0.31,
4.675,-4.51,-7.11,-1.17,2.35,0.13,0.31,
4.675,-4.51,-7.11,-1.17,2.17,0.07,0.32,
4.675,-4.51,-7.11,-1.17,2.00,0.02,0.33,
4.675,-4.51,-7.11,-1.17,1.83,-0.03,0.34,
4.676,-4.51,-7.11,-1.17,1.67,-0.06,0.36,
4.678,-5.29,-6.09,-1.56,1.67,-0.06,0.36,
4.679,-5.29,-6.09,-1.56,1.52,-0.08,0.38,
4.68,-5.29,-6.09,-1.56,1.38,-0.10,0.39,
4.682,-5.29,-6.09,-1.56,1.25,-0.11,0.41,
4.685,-5.29,-6.09,-1.56,1.13,-0.12,0.43,
4.685,-5.29,-6.09,-1.56,1.02,-0.12,0.46,
4.688,-6.03,-4.91,-1.54,1.02,-0.12,0.46,
4.688,-6.03,-4.91,-1.54,0.93,-0.12,0.49,
4.69,-6.03,-4.91,-1.54,0.84,-0.11,0.51,
4.691,-6.03,-4.91,-1.54,0.77,-0.09,0.54,
4.693,-6.03,-4.91,-1.54,0.70,-0.06,0.58,
4.695,-6.03,-4.91,-1.54,0.65,-0.03,0.61,
4.697,-6.26,-3.50,-1.44,0.65,-0.03,0.61,
4.698,-6.26,-3.50,-1.44,0.60,0.01,0.65,
4.699,-6.26,-3.50,-1.44,0.57,0.05,0.69,
4.701,-6.26,-3.50,-1.44,0.51,0.04,0.73,
4.703,-6.26,-3.50,-1.44,0.39,-0.18,0.77,
4.705,-6.26,-3.50,-1.44,0.30,-0.43,0.81,
4.707,-6.32,-1.54,-6.29,0.30,-0.43,0.81,
4.707,-6.32,-1.54,-6.29,0.30,-0.67,0.82,
4.709,-6.32,-1.54,-6.29,0.41,-0.82,0.84,
4.711,-6.32,-1.54,-6.29,0.53,-0.93,0.85,
4.713,-6.32,-1.54,-6.29,0.62,-1.05,0.85,
4.715,-6.32,-1.54,-6.29,0.69,-1.16,0.85,
4.718,-6.22,0.95,-7.58,0.69,-1.16,0.85,
4.718,-6.22,0.95,-7.58,0.78,-1.23,0.84,
4.719,-6.22,0.95,-7.58,0.90,-1.27,0.83,
4.723,-6.22,0.95,-7.58,1.03,-1.26,0.82,
4.724,-6.22,0.95,-7.58,1.22,-1.22,0.79,
4.726,-6.22,0.95,-7.58,1.28,-1.20,0.78,
4.728,-5.84,2.03,-7.02,1.28,-1.20,0.78,
4.728,-5.84,2.03,-7.02,1.41,-1.13,0.75,
4.73,-5.84,2.03,-7.02,1.53,-1.04,0.73,
4.731,-5.84,2.03,-7.02,1.64,-0.93,0.70,
4.733,-5.84,2.03,-7.02,1.75,-0.81,0.68,
4.735,-5.84,2.03,-7.02,1.85,-0.67,0.66,
4.738,-5.25,2.36,-6.68,1.85,-0.67,0.66,
4.738,-5.25,2.36,-6.68,1.94,-0.52,0.64,
4.739,-5.25,2.36,-6.68,2.02,-0.37,0.62,
4.741,-5.25,2.36,-6.68,2.09,-0.21,0.60,
4.743,-5.25,2.36,-6.68,2.14,-0.06,0.59,
4.745,-5.25,2.36,-6.68,2.19,0.09,0.58,
4.747,-4.33,2.03,-7.17,2.19,0.09,0.58,
4.747,-4.33,2.03,-7.17,2.22,0.23,0.57,
4.75,-4.33,2.03,-7.17,2.24,0.36,0.56,
4.753,-4.33,2.03,-7.17,2.24,0.47,0.56,
4.756,-4.33,2.03,-7.17,2.24,0.58,0.56,
4.756,-4.33,2.03,-7.17,2.23,0.68,0.56,
4.759,-3.11,1.52,-7.56,2.23,0.68,0.56,
4.76,-3.11,1.52,-7.56,2.21,0.76,0.56,
4.76,-3.11,1.52,-7.56,2.18,0.83,0.57,
4.763,-3.11,1.52,-7.56,2.15,0.88,0.58,
4.763,-3.11,1.52,-7.56,2.11,0.92,0.59,
4.767,-3.11,1.52,-7.56,2.07,0.95,0.60,
4.77,-2.12,0.85,-7.89,2.07,0.95,0.60,
4.771,-2.12,0.85,-7.89,2.02,0.97,0.61,
4.771,-2.12,0.85,-7.89,1.98,0.97,0.62,
4.771,-2.12,0.85,-7.89,1.92,0.97,0.64,
4.774,-2.12,0.85,-7.89,1.87,0.96,0.64,
4.775,-2.12,0.85,-7.89,1.82,0.94,0.65,
4.777,-1.23,0.23,-7.41,1.82,0.94,0.65,
4.778,-1.23,0.23,-7.41,1.77,0.91,0.65,
4.779,-1.23,0.23,-7.41,1.71,0.88,0.65,
4.806,-1.23,0.23,-7.41,1.66,0.83,0.65,
4.807,-1.23,0.23,-7.41,1.61,0.79,0.64,
4.807,-1.23,0.23,-7.41,1.57,0.72,0.64,
4.807,-0.35,-0.29,-6.66,1.57,0.72,0.64,
4.808,-0.35,-0.29,-6.66,1.52,0.66,0.63,
4.808,-0.35,-0.29,-6.66,1.48,0.58,0.61,
4.808,-0.35,-0.29,-6.66,1.44,0.49,0.60,
4.808,-0.35,-0.29,-6.66,1.39,0.40,0.58,
4.809,-0.35,-0.29,-6.66,1.35,0.30,0.56,
4.809,0.38,-0.62,-5.50,1.35,0.30,0.56,
4.809,0.38,-0.62,-5.50,1.30,0.20,0.55,
4.81,0.38,-0.62,-5.50,1.26,0.09,0.52,
4.81,0.38,-0.62,-5.50,1.21,-0.03,0.50,
4.81,0.38,-0.62,-5.50,1.17,-0.16,0.48,
4.81,0.38,-0.62,-5.50,1.12,-0.29,0.46,
4.811,0.87,-0.76,-4.74,1.12,-0.29,0.46,
4.811,0.87,-0.76,-4.74,1.08,-0.42,0.44,
4.811,0.87,-0.76,-4.74,1.03,-0.56,0.42,
4.812,0.87,-0.76,-4.74,0.99,-0.70,0.41,
4.815,0.87,-0.76,-4.74,0.95,-0.84,0.39,
4.818,0.87,-0.76,-4.74,0.91,-0.98,0.38,
4.818,0.90,-0.61,-3.74,0.91,-0.98,0.38,
4.818,0.90,-0.61,-3.74,0.88,-1.11,0.37,
4.821,0.90,-0.61,-3.74,0.85,-1.24,0.36,
4.822,0.90,-0.61,-3.74,0.83,-1.35,0.36,
4.825,0.90,-0.61,-3.74,0.80,-1.46,0.36,
4.825,0.90,-0.61,-3.74,0.79,-1.57,0.35,
4.846,0.69,-0.29,-2.93,0.79,-1.57,0.35,
4.846,0.69,-0.29,-2.93,0.79,-1.66,0.35,
4.846,0.69,-0.29,-2.93,0.79,-1.74,0.35,
4.846,0.69,-0.29,-2.93,0.79,-1.81,0.34,
4.847,0.69,-0.29,-2.93,0.81,-1.87,0.34,
4.847,0.69,-0.29,-2.93,0.83,-1.92,0.33,
4.847,0.49,0.18,-2.10,0.83,-1.92,0.33,
4.847,0.49,0.18,-2.10,0.85,-1.96,0.32,
4.848,0.49,0.18,-2.10,0.88,-1.98,0.32,
4.848,0.49,0.18,-2.10,0.92,-1.99,0.31,
4.848,0.49,0.18,-2.10,0.96,-1.99,0.30,
4.849,0.33,0.65,-1.55,0.96,-1.99,0.30,
4.849,0.33,0.65,-1.55,1.05,-1.97,0.27,
4.849,0.33,0.65,-1.55,1.05,-1.97,0.27,
4.854,0.33,0.65,-1.55,1.10,-1.94,0.26,
4.855,0.33,0.65,-1.55,1.16,-1.90,0.24,
4.855,0.33,0.65,-1.55,1.22,-1.86,0.22,
4.855,0.33,0.65,-1.55,1.28,-1.79,0.20,
4.86,0.18,1.08,-1.22,1.28,-1.79,0.20,
4.861,0.18,1.08,-1.22,1.35,-1.73,0.18,
4.861,0.18,1.08,-1.22,1.41,-1.66,0.16,
4.862,0.18,1.08,-1.22,1.51,-1.55,0.12,
4.863,0.18,1.08,-1.22,1.54,-1.50,0.11,
4.868,0.18,1.08,-1.22,1.61,-1.41,0.08,
4.868,0.03,1.38,-1.31,1.61,-1.41,0.08,
4.868,0.03,1.38,-1.31,1.68,-1.30,0.06,
4.871,0.03,1.38,-1.31,1.74,-1.18,0.03,
4.872,0.03,1.38,-1.31,1.80,-1.05,0.01,
4.874,0.03,1.38,-1.31,1.85,-0.91,-0.01,
4.876,0.03,1.38,-1.31,1.90,-0.76,-0.03,
4.878,-0.26,1.55,-2.04,1.90,-0.76,-0.03,
4.878,-0.26,1.55,-2.04,1.95,-0.61,-0.05,
4.879,-0.26,1.55,-2.04,1.99,-0.45,-0.07,
4.887,-0.26,1.55,-2.04,2.03,-0.29,-0.08,
4.888,-0.26,1.55,-2.04,2.06,-0.13,-0.10,
4.889,-0.26,1.55,-2.04,2.08,0.05,-0.12,
4.89,-0.18,1.34,-3.19,2.08,0.05,-0.12,
4.89,-0.18,1.34,-3.19,2.10,0.22,-0.14,
4.894,-0.18,1.34,-3.19,2.12,0.41,-0.16,
4.894,-0.18,1.34,-3.19,2.13,0.59,-0.17,
4.894,-0.18,1.34,-3.19,2.13,0.78,-0.19,
4.897,-0.18,1.34,-3.19,2.13,0.97,-0.21,
4.899,0.12,0.87,-4.31,2.13,0.97,-0.21,
4.905,0.12,0.87,-4.31,2.13,1.16,-0.22,
4.906,0.12,0.87,-4.31,2.11,1.35,-0.24,
4.906,0.12,0.87,-4.31,2.09,1.52,-0.26,
4.907,0.12,0.87,-4.31,2.06,1.70,-0.27,
4.907,0.12,0.87,-4.31,2.03,1.86,-0.29,
4.909,0.63,-0.08,-5.60,2.03,1.86,-0.29,
4.909,0.63,-0.08,-5.60,1.98,2.00,-0.31,
4.909,0.63,-0.08,-5.60,1.94,2.13,-0.33,
4.911,0.63,-0.08,-5.60,1.86,2.28,-0.36,
4.913,0.63,-0.08,-5.60,1.83,2.32,-0.37,
4.915,0.63,-0.08,-5.60,1.77,2.39,-0.39,
4.918,1.11,-1.22,-6.22,1.77,2.39,-0.39,
4.918,1.11,-1.22,-6.22,1.71,2.43,-0.40,
4.919,1.11,-1.22,-6.22,1.65,2.44,-0.42,
4.923,1.11,-1.22,-6.22,1.59,2.44,-0.43,
4.93,1.11,-1.22,-6.22,1.53,2.41,-0.45,
4.931,1.11,-1.22,-6.22,1.47,2.35,-0.47,
4.932,1.43,-2.53,-6.32,1.47,2.35,-0.47,
4.932,1.43,-2.53,-6.32,1.41,2.28,-0.48,
4.932,1.43,-2.53,-6.32,1.35,2.18,-0.49,
4.933,1.43,-2.53,-6.32,1.30,2.06,-0.50,
4.934,1.43,-2.53,-6.32,1.26,1.92,-0.51,
4.936,1.43,-2.53,-6.32,1.22,1.77,-0.52,
4.938,1.56,-3.53,-5.72,1.22,1.77,-0.52,
4.938,1.56,-3.53,-5.72,1.18,1.60,-0.52,
4.939,1.56,-3.53,-5.72,1.16,1.42,-0.52,
4.941,1.56,-3.53,-5.72,1.13,1.23,-0.52,
4.943,1.56,-3.53,-5.72,1.11,1.03,-0.52,
4.945,1.56,-3.53,-5.72,1.09,0.82,-0.51,
4.948,1.45,-4.32,-5.48,1.09,0.82,-0.51,
4.948,1.45,-4.32,-5.48,1.08,0.62,-0.50,
4.972,1.45,-4.32,-5.48,1.07,0.41,-0.49,
4.972,1.45,-4.32,-5.48,1.05,0.20,-0.48,
4.972,1.45,-4.32,-5.48,1.03,-0.01,-0.47,
4.973,1.45,-4.32,-5.48,1.00,-0.20,-0.46,
4.973,1.08,-4.58,-5.90,1.00,-0.20,-0.46,
4.973,1.08,-4.58,-5.90,0.97,-0.39,-0.45,
4.973,1.08,-4.58,-5.90,0.94,-0.57,-0.44,
4.974,1.08,-4.58,-5.90,0.86,-0.81,-0.43,
4.974,1.08,-4.58,-5.90,0.83,-0.88,-0.43,
4.974,1.08,-4.58,-5.90,0.76,-1.01,-0.43,
4.974,0.42,-4.46,-7.24,0.76,-1.01,-0.43,
4.975,0.42,-4.46,-7.24,0.70,-1.13,-0.44,
4.975,0.42,-4.46,-7.24,0.62,-1.24,-0.45,
4.975,0.42,-4.46,-7.24,0.54,-1.33,-0.47,
4.975,0.42,-4.46,-7.24,0.45,-1.40,-0.48,
4.976,0.42,-4.46,-7.24,0.37,-1.47,-0.50,
4.978,-0.19,-4.05,-7.82,0.37,-1.47,-0.50,
4.978,-0.19,-4.05,-7.82,0.28,-1.52,-0.52,
4.98,-0.19,-4.05,-7.82,0.19,-1.55,-0.55,
4.985,-0.19,-4.05,-7.82,0.11,-1.57,-0.57,
4.985,-0.19,-4.05,-7.82,0.03,-1.57,-0.59,
4.986,-0.19,-4.05,-7.82,-0.05,-1.56,-0.62,
4.988,-0.77,-3.99,-7.64,-0.05,-1.56,-0.62,
4.988,-0.77,-3.99,-7.64,-0.13,-1.54,-0.64,
4.99,-0.77,-3.99,-7.64,-0.20,-1.51,-0.66,
4.991,-0.77,-3.99,-7.64,-0.27,-1.47,-0.68,
5.011,-0.77,-3.99,-7.64,-0.32,-1.42,-0.70,
5.012,-0.77,-3.99,-7.64,-0.37,-1.36,-0.71,
5.012,-1.40,-4.11,-6.58,-0.37,-1.36,-0.71,
5.012,-1.40,-4.11,-6.58,-0.41,-1.29,-0.71,
