
time,ax,ay,az,wx,wy,wz,
0.001,-0.23,-0.00,-0.46,-0.32,-0.22,0.00,
0.002,-0.23,-0.00,-0.46,-0.32,-0.22,0.01,
0.002,-0.23,-0.00,-0.46,-0.33,-0.23,0.01,
0.002,-0.29,0.04,-0.09,-0.33,-0.23,0.01,
0.002,-0.29,0.04,-0.09,-0.33,-0.24,0.01,
0.004,-0.29,0.04,-0.09,-0.34,-0.25,0.01,
0.006,-0.29,0.04,-0.09,-0.34,-0.27,0.02,
0.008,-0.29,0.04,-0.09,-0.34,-0.28,0.02,
0.01,-0.29,0.04,-0.09,-0.35,-0.31,0.02,
0.012,-0.00,0.11,0.27,-0.35,-0.31,0.02,
0.012,-0.00,0.11,0.27,-0.35,-0.33,0.02,
0.014,-0.00,0.11,0.27,-0.36,-0.35,0.02,
0.016,-0.00,0.11,0.27,-0.36,-0.37,0.02,
0.018,-0.00,0.11,0.27,-0.37,-0.40,0.02,
0.02,-0.00,0.11,0.27,-0.38,-0.42,0.02,
0.022,0.18,0.05,0.31,-0.38,-0.42,0.02,
0.022,0.18,0.05,0.31,-0.38,-0.44,0.02,
0.024,0.18,0.05,0.31,-0.38,-0.47,0.02,
0.026,0.18,0.05,0.31,-0.39,-0.49,0.01,
0.042,0.18,0.05,0.31,-0.40,-0.51,0.01,
0.043,0.18,0.05,0.31,-0.41,-0.53,0.00,
0.044,0.47,-0.17,0.15,-0.41,-0.53,0.00,
0.044,0.47,-0.17,0.15,-0.42,-0.55,0.01,
0.045,0.47,-0.17,0.15,-0.43,-0.55,0.01,
0.045,0.47,-0.17,0.15,-0.43,-0.55,0.01,
0.046,0.47,-0.17,0.15,-0.43,-0.54,0.02,
0.046,0.47,-0.17,0.15,-0.43,-0.55,0.02,
0.047,0.04,-0.03,0.31,-0.43,-0.55,0.02,
0.047,0.04,-0.03,0.31,-0.43,-0.55,0.02,
0.048,0.04,-0.03,0.31,-0.43,-0.55,0.01,
0.049,0.04,-0.03,0.31,-0.43,-0.56,0.01,
0.049,0.04,-0.03,0.31,-0.42,-0.56,0.01,
0.053,0.04,-0.03,0.31,-0.42,-0.56,0.00,
0.054,0.13,0.11,0.18,-0.42,-0.56,0.00,
0.054,0.13,0.11,0.18,-0.42,-0.56,-0.00,
0.055,0.13,0.11,0.18,-0.42,-0.55,-0.00,
0.058,0.13,0.11,0.18,-0.41,-0.55,-0.00,
0.059,0.13,0.11,0.18,-0.40,-0.54,-0.01,
0.06,0.13,0.11,0.18,-0.39,-0.53,-0.01,
0.063,0.05,0.19,0.27,-0.39,-0.53,-0.01,
0.064,0.05,0.19,0.27,-0.39,-0.52,-0.01,
0.065,0.05,0.19,0.27,-0.38,-0.51,-0.00,
0.066,0.05,0.19,0.27,-0.37,-0.51,-0.00,
0.069,0.05,0.19,0.27,-0.36,-0.51,0.00,
0.07,0.05,0.19,0.27,-0.36,-0.50,0.00,
0.073,-0.09,0.29,0.23,-0.36,-0.50,0.00,
0.073,-0.09,0.29,0.23,-0.35,-0.50,0.00,
0.074,-0.09,0.29,0.23,-0.35,-0.49,0.01,
0.076,-0.09,0.29,0.23,-0.34,-0.49,0.01,
0.079,-0.09,0.29,0.23,-0.34,-0.48,0.02,
0.086,-0.09,0.29,0.23,-0.33,-0.47,0.02,
0.087,-0.12,0.28,0.23,-0.33,-0.47,0.02,
0.088,-0.12,0.28,0.23,-0.33,-0.46,0.02,
0.089,-0.12,0.28,0.23,-0.32,-0.46,0.03,
0.089,-0.12,0.28,0.23,-0.31,-0.45,0.03,
0.09,-0.12,0.28,0.23,-0.30,-0.43,0.03,
0.091,-0.12,0.28,0.23,-0.29,-0.42,0.04,
0.093,0.02,0.21,0.28,-0.29,-0.42,0.04,
0.094,0.02,0.21,0.28,-0.28,-0.41,0.04,
0.095,0.02,0.21,0.28,-0.28,-0.39,0.05,
0.103,0.02,0.21,0.28,-0.27,-0.38,0.05,
0.104,0.02,0.21,0.28,-0.25,-0.37,0.04,
0.105,0.02,0.21,0.28,-0.24,-0.36,0.05,
0.107,0.18,0.10,0.34,-0.24,-0.36,0.05,
0.108,0.18,0.10,0.34,-0.22,-0.33,0.05,
0.109,0.18,0.10,0.34,-0.22,-0.33,0.05,
0.11,0.18,0.10,0.34,-0.21,-0.32,0.05,
0.122,0.18,0.10,0.34,-0.20,-0.31,0.05,
0.122,0.18,0.10,0.34,-0.19,-0.29,0.04,
0.123,0.27,0.04,0.32,-0.19,-0.29,0.04,
0.123,0.27,0.04,0.32,-0.18,-0.28,0.04,
0.123,0.27,0.04,0.32,-0.17,-0.27,0.03,
0.124,0.27,0.04,0.32,-0.16,-0.26,0.03,
0.124,0.27,0.04,0.32,-0.15,-0.25,0.03,
0.124,0.27,0.04,0.32,-0.14,-0.24,0.02,
0.125,0.30,-0.04,0.22,-0.14,-0.24,0.02,
0.125,0.30,-0.04,0.22,-0.14,-0.23,0.02,
0.125,0.30,-0.04,0.22,-0.13,-0.23,0.01,
0.126,0.30,-0.04,0.22,-0.12,-0.22,0.01,
0.13,0.30,-0.04,0.22,-0.11,-0.21,0.01,
0.132,0.30,-0.04,0.22,-0.11,-0.21,0.01,
0.133,0.28,-0.11,0.19,-0.11,-0.21,0.01,
0.133,0.28,-0.11,0.19,-0.10,-0.20,0.00,
0.134,0.28,-0.11,0.19,-0.10,-0.20,0.00,
0.136,0.28,-0.11,0.19,-0.09,-0.19,0.00,
0.138,0.28,-0.11,0.19,-0.09,-0.19,0.00,
0.14,0.28,-0.11,0.19,-0.08,-0.19,-0.00,
0.143,0.23,-0.05,0.20,-0.08,-0.19,-0.00,
0.144,0.23,-0.05,0.20,-0.08,-0.18,-0.00,
0.155,0.23,-0.05,0.20,-0.08,-0.18,-0.00,
0.156,0.23,-0.05,0.20,-0.07,-0.18,-0.00,
0.156,0.23,-0.05,0.20,-0.07,-0.18,-0.00,
0.157,0.23,-0.05,0.20,-0.06,-0.17,-0.00,
0.157,0.06,0.02,0.18,-0.06,-0.17,-0.00,
0.158,0.06,0.02,0.18,-0.06,-0.17,0.00,
0.158,0.06,0.02,0.18,-0.05,-0.17,0.00,
0.159,0.06,0.02,0.18,-0.05,-0.18,0.00,
0.159,0.06,0.02,0.18,-0.05,-0.18,0.00,
0.164,0.06,0.02,0.18,-0.05,-0.18,0.01,
0.167,-0.07,0.00,0.08,-0.05,-0.18,0.01,
0.2,-0.07,0.00,0.08,-0.04,-0.18,0.01,
0.201,-0.07,0.00,0.08,-0.04,-0.18,0.01,
0.201,-0.07,0.00,0.08,-0.04,-0.18,0.02,
0.202,-0.07,0.00,0.08,-0.04,-0.18,0.02,
0.202,-0.07,0.00,0.08,-0.05,-0.18,0.02,
0.202,-0.12,0.03,-0.01,-0.05,-0.18,0.02,
0.203,-0.12,0.03,-0.01,-0.05,-0.18,0.03,
0.203,-0.12,0.03,-0.01,-0.05,-0.18,0.03,
0.204,-0.12,0.03,-0.01,-0.05,-0.18,0.03,
0.204,-0.12,0.03,-0.01,-0.05,-0.18,0.03,
0.205,-0.12,0.03,-0.01,-0.05,-0.18,0.03,
0.205,-0.08,0.04,-0.11,-0.05,-0.18,0.03,
0.205,-0.08,0.04,-0.11,-0.06,-0.18,0.03,
0.206,-0.08,0.04,-0.11,-0.06,-0.19,0.03,
0.206,-0.08,0.04,-0.11,-0.06,-0.18,0.03,
0.207,-0.08,0.04,-0.11,-0.06,-0.19,0.04,
0.207,-0.08,0.04,-0.11,-0.06,-0.19,0.04,
0.207,-0.02,0.05,-0.21,-0.06,-0.19,0.04,
0.208,-0.02,0.05,-0.21,-0.06,-0.19,0.04,
0.208,-0.02,0.05,-0.21,-0.07,-0.19,0.05,
0.209,-0.02,0.05,-0.21,-0.07,-0.18,0.05,
0.209,-0.02,0.05,-0.21,-0.07,-0.18,0.05,
0.21,-0.02,0.05,-0.21,-0.08,-0.17,0.05,
0.21,-0.05,0.02,-0.27,-0.08,-0.17,0.05,
0.21,-0.05,0.02,-0.27,-0.09,-0.16,0.04,
0.211,-0.05,0.02,-0.27,-0.09,-0.16,0.03,
0.211,-0.05,0.02,-0.27,-0.10,-0.16,0.03,
0.212,-0.05,0.02,-0.27,-0.10,-0.15,0.02,
0.212,-0.05,0.02,-0.27,-0.11,-0.15,0.01,
0.226,-0.12,0.04,-0.23,-0.11,-0.15,0.01,
0.227,-0.12,0.04,-0.23,-0.11,-0.15,0.01,
0.227,-0.12,0.04,-0.23,-0.11,-0.15,0.00,
0.227,-0.12,0.04,-0.23,-0.11,-0.15,0.00,
0.228,-0.12,0.04,-0.23,-0.11,-0.15,0.00,
0.228,-0.12,0.04,-0.23,-0.11,-0.15,0.00,
0.228,-0.15,-0.07,-0.09,-0.11,-0.15,0.00,
0.228,-0.15,-0.07,-0.09,-0.11,-0.15,0.00,
0.228,-0.15,-0.07,-0.09,-0.11,-0.15,0.00,
0.229,-0.15,-0.07,-0.09,-0.10,-0.15,0.00,
0.231,-0.15,-0.07,-0.09,-0.10,-0.15,0.00,
0.231,-0.15,-0.07,-0.09,-0.10,-0.15,0.00,
0.233,-0.11,0.04,0.03,-0.10,-0.15,0.00,
0.234,-0.11,0.04,0.03,-0.09,-0.15,0.00,
0.235,-0.11,0.04,0.03,-0.09,-0.15,0.00,
0.237,-0.11,0.04,0.03,-0.08,-0.15,0.00,
0.238,-0.11,0.04,0.03,-0.08,-0.15,0.00,
0.241,-0.11,0.04,0.03,-0.08,-0.15,0.00,
0.243,-0.13,0.09,0.11,-0.08,-0.15,0.00,
0.243,-0.13,0.09,0.11,-0.07,-0.15,0.00,
0.259,-0.13,0.09,0.11,-0.07,-0.15,0.01,
0.26,-0.13,0.09,0.11,-0.07,-0.15,0.01,
0.26,-0.13,0.09,0.11,-0.07,-0.15,0.01,
0.26,-0.13,0.09,0.11,-0.06,-0.15,0.01,
0.261,-0.08,-0.04,0.02,-0.06,-0.15,0.01,
0.261,-0.08,-0.04,0.02,-0.06,-0.15,0.01,
0.262,-0.08,-0.04,0.02,-0.06,-0.15,0.01,
0.262,-0.08,-0.04,0.02,-0.06,-0.15,0.02,
0.263,-0.08,-0.04,0.02,-0.05,-0.15,0.02,
0.264,-0.08,-0.04,0.02,-0.05,-0.14,0.02,
0.264,0.05,-0.05,-0.08,-0.05,-0.14,0.02,
0.265,0.05,-0.05,-0.08,-0.05,-0.14,0.02,
0.266,0.05,-0.05,-0.08,-0.05,-0.14,0.01,
0.267,0.05,-0.05,-0.08,-0.05,-0.14,0.01,
0.268,0.05,-0.05,-0.08,-0.05,-0.13,0.02,
0.27,0.05,-0.05,-0.08,-0.05,-0.13,0.02,
0.274,0.08,0.01,-0.19,-0.05,-0.13,0.02,
0.298,0.08,0.01,-0.19,-0.05,-0.13,0.02,
0.3,0.08,0.01,-0.19,-0.06,-0.13,0.02,
0.301,0.08,0.01,-0.19,-0.06,-0.14,0.02,
0.302,0.08,0.01,-0.19,-0.06,-0.14,0.02,
0.303,0.08,0.01,-0.19,-0.06,-0.14,0.02,
0.304,-0.03,0.09,-0.27,-0.06,-0.14,0.02,
0.304,-0.03,0.09,-0.27,-0.06,-0.14,0.02,
0.305,-0.03,0.09,-0.27,-0.07,-0.14,0.03,
0.305,-0.03,0.09,-0.27,-0.07,-0.14,0.03,
0.306,-0.03,0.09,-0.27,-0.07,-0.15,0.03,
0.307,-0.03,0.09,-0.27,-0.08,-0.15,0.03,
0.308,-0.10,0.12,-0.32,-0.08,-0.15,0.03,
0.309,-0.10,0.12,-0.32,-0.09,-0.15,0.04,
0.309,-0.10,0.12,-0.32,-0.09,-0.15,0.04,
0.309,-0.10,0.12,-0.32,-0.09,-0.15,0.05,
0.31,-0.10,0.12,-0.32,-0.10,-0.16,0.05,
0.31,-0.10,0.12,-0.32,-0.10,-0.16,0.05,
0.311,-0.17,0.18,-0.29,-0.10,-0.16,0.05,
0.312,-0.17,0.18,-0.29,-0.11,-0.17,0.06,
0.313,-0.17,0.18,-0.29,-0.12,-0.17,0.06,
0.314,-0.17,0.18,-0.29,-0.12,-0.18,0.07,
0.314,-0.17,0.18,-0.29,-0.12,-0.19,0.07,
0.315,-0.17,0.18,-0.29,-0.13,-0.20,0.07,
0.315,-0.27,0.24,-0.15,-0.13,-0.20,0.07,
0.316,-0.27,0.24,-0.15,-0.14,-0.21,0.08,
0.316,-0.27,0.24,-0.15,-0.14,-0.23,0.08,
0.319,-0.27,0.24,-0.15,-0.14,-0.24,0.09,
0.321,-0.27,0.24,-0.15,-0.15,-0.26,0.09,
0.322,-0.27,0.24,-0.15,-0.15,-0.28,0.10,
0.323,-0.40,0.29,0.05,-0.15,-0.28,0.10,
0.324,-0.40,0.29,0.05,-0.16,-0.29,0.10,
0.325,-0.40,0.29,0.05,-0.16,-0.31,0.11,
0.336,-0.40,0.29,0.05,-0.17,-0.34,0.12,
0.337,-0.40,0.29,0.05,-0.17,-0.37,0.13,
0.371,-0.40,0.29,0.05,-0.17,-0.40,0.15,
0.373,-0.38,0.41,0.44,-0.17,-0.40,0.15,
0.374,-0.38,0.41,0.44,-0.17,-0.42,0.15,
0.375,-0.38,0.41,0.44,-0.17,-0.43,0.16,
0.375,-0.38,0.41,0.44,-0.17,-0.44,0.16,
0.376,-0.38,0.41,0.44,-0.17,-0.45,0.17,
0.377,-0.38,0.41,0.44,-0.18,-0.46,0.17,
0.378,-0.33,0.59,0.33,-0.18,-0.46,0.17,
0.379,-0.33,0.59,0.33,-0.18,-0.47,0.18,
0.38,-0.33,0.59,0.33,-0.19,-0.48,0.19,
0.381,-0.33,0.59,0.33,-0.19,-0.48,0.20,
0.381,-0.33,0.59,0.33,-0.19,-0.49,0.21,
0.382,-0.33,0.59,0.33,-0.18,-0.52,0.24,
0.383,-0.49,0.25,0.21,-0.18,-0.52,0.24,
0.384,-0.49,0.25,0.21,-0.17,-0.54,0.26,
0.385,-0.49,0.25,0.21,-0.16,-0.54,0.28,
0.386,-0.49,0.25,0.21,-0.16,-0.51,0.28,
0.387,-0.49,0.25,0.21,-0.17,-0.46,0.27,
0.387,-0.49,0.25,0.21,-0.17,-0.41,0.26,
0.388,-0.24,0.31,0.03,-0.17,-0.41,0.26,
0.389,-0.24,0.31,0.03,-0.17,-0.38,0.24,
0.39,-0.24,0.31,0.03,-0.18,-0.38,0.22,
0.391,-0.24,0.31,0.03,-0.18,-0.38,0.21,
0.392,-0.24,0.31,0.03,-0.17,-0.39,0.20,
0.395,-0.24,0.31,0.03,-0.17,-0.37,0.19,
0.395,-0.23,0.17,-0.15,-0.17,-0.37,0.19,
0.396,-0.23,0.17,-0.15,-0.17,-0.35,0.18,
0.396,-0.23,0.17,-0.15,-0.17,-0.32,0.17,
0.397,-0.23,0.17,-0.15,-0.17,-0.29,0.17,
0.397,-0.23,0.17,-0.15,-0.16,-0.28,0.16,
0.397,-0.23,0.17,-0.15,-0.16,-0.27,0.16,
0.398,-0.16,0.11,-0.22,-0.16,-0.27,0.16,
0.398,-0.16,0.11,-0.22,-0.15,-0.27,0.17,
0.399,-0.16,0.11,-0.22,-0.15,-0.27,0.18,
0.399,-0.16,0.11,-0.22,-0.15,-0.27,0.18,
0.399,-0.16,0.11,-0.22,-0.15,-0.26,0.19,
0.4,-0.16,0.11,-0.22,-0.15,-0.26,0.20,
0.4,-0.02,0.15,-0.19,-0.15,-0.26,0.20,
0.401,-0.02,0.15,-0.19,-0.15,-0.26,0.21,
0.401,-0.02,0.15,-0.19,-0.15,-0.26,0.21,
0.401,-0.02,0.15,-0.19,-0.16,-0.26,0.22,
0.408,-0.02,0.15,-0.19,-0.16,-0.27,0.23,
0.409,-0.02,0.15,-0.19,-0.17,-0.28,0.23,
0.409,0.13,0.23,-0.18,-0.17,-0.28,0.23,
0.41,0.13,0.23,-0.18,-0.17,-0.29,0.24,
0.41,0.13,0.23,-0.18,-0.18,-0.29,0.24,
0.41,0.13,0.23,-0.18,-0.18,-0.30,0.25,
0.411,0.13,0.23,-0.18,-0.19,-0.30,0.25,
0.414,0.13,0.23,-0.18,-0.19,-0.30,0.24,
0.415,0.00,0.28,-0.05,-0.19,-0.30,0.24,
0.418,0.00,0.28,-0.05,-0.20,-0.32,0.25,
0.418,0.00,0.28,-0.05,-0.20,-0.34,0.25,
0.419,0.00,0.28,-0.05,-0.20,-0.36,0.26,
0.419,0.00,0.28,-0.05,-0.20,-0.36,0.27,
0.423,0.00,0.28,-0.05,-0.20,-0.36,0.28,
0.423,-0.04,0.19,-0.01,-0.20,-0.36,0.28,
0.424,-0.04,0.19,-0.01,-0.20,-0.35,0.28,
0.425,-0.04,0.19,-0.01,-0.20,-0.34,0.29,
0.427,-0.04,0.19,-0.01,-0.20,-0.33,0.28,
0.435,-0.04,0.19,-0.01,-0.20,-0.32,0.29,
0.435,-0.04,0.19,-0.01,-0.21,-0.33,0.29,
0.436,-0.23,0.27,-0.12,-0.21,-0.33,0.29,
0.436,-0.23,0.27,-0.12,-0.21,-0.34,0.30,
0.436,-0.23,0.27,-0.12,-0.22,-0.35,0.30,
0.437,-0.23,0.27,-0.12,-0.22,-0.35,0.31,
0.44,-0.23,0.27,-0.12,-0.22,-0.35,0.31,
0.441,-0.23,0.27,-0.12,-0.23,-0.34,0.32,
0.448,-0.18,0.28,-0.37,-0.23,-0.34,0.32,
0.449,-0.18,0.28,-0.37,-0.24,-0.34,0.33,
0.449,-0.18,0.28,-0.37,-0.24,-0.34,0.34,
0.45,-0.18,0.28,-0.37,-0.25,-0.34,0.35,
0.45,-0.18,0.28,-0.37,-0.26,-0.34,0.35,
0.451,-0.18,0.28,-0.37,-0.27,-0.34,0.36,
0.453,0.06,0.13,-0.71,-0.27,-0.34,0.36,
0.454,0.06,0.13,-0.71,-0.28,-0.34,0.37,
0.457,0.06,0.13,-0.71,-0.29,-0.34,0.37,
0.457,0.06,0.13,-0.71,-0.30,-0.34,0.37,
0.459,0.06,0.13,-0.71,-0.32,-0.34,0.38,
0.49,0.06,0.13,-0.71,-0.33,-0.35,0.38,
0.49,0.26,0.02,-0.84,-0.33,-0.35,0.38,
0.491,0.26,0.02,-0.84,-0.34,-0.35,0.37,
0.491,0.26,0.02,-0.84,-0.36,-0.35,0.37,
0.491,0.26,0.02,-0.84,-0.37,-0.35,0.36,
0.492,0.26,0.02,-0.84,-0.39,-0.34,0.35,
0.492,0.26,0.02,-0.84,-0.41,-0.32,0.34,
0.492,0.31,-0.06,-0.97,-0.41,-0.32,0.34,
0.493,0.31,-0.06,-0.97,-0.43,-0.31,0.33,
0.493,0.31,-0.06,-0.97,-0.44,-0.31,0.32,
0.493,0.31,-0.06,-0.97,-0.46,-0.30,0.31,
0.494,0.31,-0.06,-0.97,-0.47,-0.29,0.28,
0.494,0.31,-0.06,-0.97,-0.48,-0.29,0.28,
0.494,0.40,-0.12,-0.59,-0.48,-0.29,0.28,
0.494,0.40,-0.12,-0.59,-0.49,-0.29,0.26,
0.495,0.40,-0.12,-0.59,-0.49,-0.29,0.25,
0.495,0.40,-0.12,-0.59,-0.50,-0.29,0.23,
0.495,0.40,-0.12,-0.59,-0.50,-0.30,0.22,
0.496,0.40,-0.12,-0.59,-0.49,-0.32,0.21,
0.496,0.59,-0.26,-0.15,-0.49,-0.32,0.21,
0.496,0.59,-0.26,-0.15,-0.49,-0.33,0.20,
0.496,0.59,-0.26,-0.15,-0.48,-0.35,0.18,
0.525,0.59,-0.26,-0.15,-0.48,-0.35,0.17,
0.525,0.59,-0.26,-0.15,-0.48,-0.34,0.16,
0.526,0.59,-0.26,-0.15,-0.48,-0.33,0.15,
0.526,0.84,-0.40,0.07,-0.48,-0.33,0.15,
0.527,0.84,-0.40,0.07,-0.48,-0.33,0.13,
0.527,0.84,-0.40,0.07,-0.48,-0.33,0.12,
0.527,0.84,-0.40,0.07,-0.48,-0.33,0.10,
0.528,0.84,-0.40,0.07,-0.47,-0.35,0.08,
0.528,0.84,-0.40,0.07,-0.46,-0.37,0.05,
0.529,1.04,-0.40,0.36,-0.46,-0.37,0.05,
0.529,1.04,-0.40,0.36,-0.45,-0.39,0.03,
0.53,1.04,-0.40,0.36,-0.43,-0.41,0.01,
0.53,1.04,-0.40,0.36,-0.42,-0.44,-0.01,
0.53,1.04,-0.40,0.36,-0.40,-0.46,-0.02,
0.531,1.04,-0.40,0.36,-0.39,-0.49,-0.04,
0.531,0.90,-0.34,0.55,-0.39,-0.49,-0.04,
0.532,0.90,-0.34,0.55,-0.38,-0.52,-0.06,
0.532,0.90,-0.34,0.55,-0.37,-0.55,-0.07,
0.533,0.90,-0.34,0.55,-0.36,-0.58,-0.08,
0.533,0.90,-0.34,0.55,-0.35,-0.61,-0.09,
0.533,0.90,-0.34,0.55,-0.34,-0.65,-0.10,
0.534,0.82,-0.16,0.39,-0.34,-0.65,-0.10,
0.534,0.82,-0.16,0.39,-0.33,-0.67,-0.11,
0.535,0.82,-0.16,0.39,-0.33,-0.70,-0.11,
0.54,0.82,-0.16,0.39,-0.32,-0.72,-0.12,
0.541,0.82,-0.16,0.39,-0.32,-0.74,-0.12,
0.541,0.82,-0.16,0.39,-0.32,-0.75,-0.11,
0.545,0.77,0.17,-0.02,-0.32,-0.75,-0.11,
0.545,0.77,0.17,-0.02,-0.32,-0.75,-0.11,
0.546,0.77,0.17,-0.02,-0.33,-0.75,-0.11,
0.547,0.77,0.17,-0.02,-0.33,-0.75,-0.11,
0.549,0.77,0.17,-0.02,-0.33,-0.75,-0.11,
0.551,0.77,0.17,-0.02,-0.33,-0.75,-0.11,
0.554,0.85,0.24,-0.51,-0.33,-0.75,-0.11,
0.558,0.85,0.24,-0.51,-0.34,-0.74,-0.12,
0.559,0.85,0.24,-0.51,-0.33,-0.74,-0.13,
0.559,0.85,0.24,-0.51,-0.33,-0.73,-0.15,
0.559,0.85,0.24,-0.51,-0.32,-0.71,-0.18,
0.572,0.85,0.24,-0.51,-0.32,-0.71,-0.22,
0.575,1.81,0.15,-0.76,-0.32,-0.71,-0.22,
0.575,1.81,0.15,-0.76,-0.31,-0.71,-0.26,
0.577,1.81,0.15,-0.76,-0.31,-0.72,-0.31,
0.578,1.81,0.15,-0.76,-0.32,-0.73,-0.36,
0.579,1.81,0.15,-0.76,-0.34,-0.73,-0.41,
0.58,1.81,0.15,-0.76,-0.36,-0.74,-0.47,
0.58,2.40,-0.26,-1.82,-0.36,-0.74,-0.47,
0.581,2.40,-0.26,-1.82,-0.40,-0.74,-0.53,
0.582,2.40,-0.26,-1.82,-0.44,-0.76,-0.58,
0.583,2.40,-0.26,-1.82,-0.49,-0.77,-0.65,
0.584,2.40,-0.26,-1.82,-0.55,-0.79,-0.71,
0.587,2.40,-0.26,-1.82,-0.61,-0.80,-0.77,
0.588,2.67,-0.58,-2.81,-0.61,-0.80,-0.77,
0.588,2.67,-0.58,-2.81,-0.68,-0.81,-0.82,
0.589,2.67,-0.58,-2.81,-0.74,-0.82,-0.87,
0.589,2.67,-0.58,-2.81,-0.81,-0.82,-0.92,
0.589,2.67,-0.58,-2.81,-0.88,-0.81,-0.95,
0.607,2.67,-0.58,-2.81,-0.94,-0.80,-0.98,
0.608,1.83,-0.78,-2.83,-0.94,-0.80,-0.98,
0.608,1.83,-0.78,-2.83,-1.00,-0.79,-1.00,
0.609,1.83,-0.78,-2.83,-1.06,-0.78,-1.00,
0.609,1.83,-0.78,-2.83,-1.11,-0.76,-1.00,
0.609,1.83,-0.78,-2.83,-1.15,-0.73,-0.99,
0.609,0.08,-0.78,-2.00,-1.15,-0.73,-0.99,
0.61,0.08,-0.78,-2.00,-1.23,-0.65,-0.94,
0.61,0.08,-0.78,-2.00,-1.23,-0.65,-0.94,
0.61,0.08,-0.78,-2.00,-1.26,-0.59,-0.90,
0.611,0.08,-0.78,-2.00,-1.27,-0.53,-0.86,
0.611,0.08,-0.78,-2.00,-1.28,-0.45,-0.81,
0.611,0.08,-0.78,-2.00,-1.27,-0.37,-0.75,
0.613,-1.71,-0.86,-0.24,-1.27,-0.37,-0.75,
0.614,-1.71,-0.86,-0.24,-1.25,-0.29,-0.68,
0.614,-1.71,-0.86,-0.24,-1.23,-0.22,-0.62,
0.617,-1.71,-0.86,-0.24,-1.20,-0.15,-0.55,
0.618,-1.71,-0.86,-0.24,-1.18,-0.08,-0.48,
0.621,-1.71,-0.86,-0.24,-1.16,0.01,-0.41,
0.622,-2.61,-1.25,1.13,-1.16,0.01,-0.41,
0.623,-2.61,-1.25,1.13,-1.16,0.11,-0.35,
0.626,-2.61,-1.25,1.13,-1.17,0.20,-0.30,
0.628,-2.61,-1.25,1.13,-1.19,0.28,-0.27,
0.629,-2.61,-1.25,1.13,-1.22,0.34,-0.24,
0.631,-2.61,-1.25,1.13,-1.25,0.39,-0.22,
0.633,-1.31,-1.28,0.78,-1.25,0.39,-0.22,
0.633,-1.31,-1.28,0.78,-1.29,0.42,-0.21,
0.635,-1.31,-1.28,0.78,-1.31,0.45,-0.20,
0.637,-1.31,-1.28,0.78,-1.32,0.48,-0.20,
0.639,-1.31,-1.28,0.78,-1.33,0.51,-0.19,
0.645,-1.31,-1.28,0.78,-1.33,0.56,-0.19,
0.646,-0.38,-1.14,0.64,-1.33,0.56,-0.19,
0.646,-0.38,-1.14,0.64,-1.34,0.62,-0.18,
0.646,-0.38,-1.14,0.64,-1.35,0.70,-0.17,
0.647,-0.38,-1.14,0.64,-1.36,0.78,-0.16,
0.649,-0.38,-1.14,0.64,-1.38,0.88,-0.14,
0.65,-0.38,-1.14,0.64,-1.40,0.97,-0.12,
0.653,-0.38,-0.74,-0.07,-1.40,0.97,-0.12,
0.654,-0.38,-0.74,-0.07,-1.42,1.06,-0.10,
0.655,-0.38,-0.74,-0.07,-1.44,1.16,-0.07,
0.657,-0.38,-0.74,-0.07,-1.47,1.26,-0.04,
0.663,-0.38,-0.74,-0.07,-1.50,1.35,-0.00,
0.665,-0.38,-0.74,-0.07,-1.53,1.44,0.04,
0.666,-1.14,-0.80,-0.49,-1.53,1.44,0.04,
0.702,-1.14,-0.80,-0.49,-1.56,1.54,0.10,
0.703,-1.14,-0.80,-0.49,-1.59,1.62,0.16,
0.703,-1.14,-0.80,-0.49,-1.62,1.70,0.21,
0.704,-1.14,-0.80,-0.49,-1.65,1.76,0.27,
0.707,-1.14,-0.80,-0.49,-1.67,1.82,0.34,
0.707,-1.77,-1.06,-0.64,-1.67,1.82,0.34,
0.708,-1.77,-1.06,-0.64,-1.70,1.86,0.40,
0.708,-1.77,-1.06,-0.64,-1.72,1.88,0.46,
0.709,-1.77,-1.06,-0.64,-1.74,1.88,0.52,
0.709,-1.77,-1.06,-0.64,-1.76,1.87,0.58,
0.709,-1.77,-1.06,-0.64,-1.77,1.84,0.64,
0.71,-1.77,-1.30,-0.45,-1.77,1.84,0.64,
0.71,-1.77,-1.30,-0.45,-1.78,1.80,0.70,
0.711,-1.77,-1.30,-0.45,-1.77,1.73,0.75,
0.711,-1.77,-1.30,-0.45,-1.76,1.66,0.81,
0.711,-1.77,-1.30,-0.45,-1.75,1.57,0.86,
0.712,-1.77,-1.30,-0.45,-1.73,1.47,0.91,
0.712,-1.23,-1.14,0.11,-1.73,1.47,0.91,
0.713,-1.23,-1.14,0.11,-1.69,1.37,0.96,
0.713,-1.23,-1.14,0.11,-1.66,1.25,1.02,
0.713,-1.23,-1.14,0.11,-1.62,1.13,1.07,
0.714,-1.23,-1.14,0.11,-1.58,0.99,1.12,
0.714,-1.23,-1.14,0.11,-1.53,0.84,1.18,
0.715,-0.86,-0.85,0.45,-1.53,0.84,1.18,
0.715,-0.86,-0.85,0.45,-1.48,0.69,1.24,
0.715,-0.86,-0.85,0.45,-1.43,0.53,1.29,
0.716,-0.86,-0.85,0.45,-1.37,0.37,1.35,
0.716,-0.86,-0.85,0.45,-1.31,0.20,1.40,
0.717,-0.86,-0.85,0.45,-1.24,0.03,1.45,
0.717,-0.46,-0.53,0.65,-1.24,0.03,1.45,
0.718,-0.46,-0.53,0.65,-1.17,-0.14,1.50,
0.718,-0.46,-0.53,0.65,-1.09,-0.31,1.55,
0.718,-0.46,-0.53,0.65,-1.02,-0.49,1.60,
0.719,-0.46,-0.53,0.65,-0.94,-0.67,1.65,
0.727,-0.46,-0.53,0.65,-0.86,-0.84,1.71,
0.728,-0.57,-0.23,0.70,-0.86,-0.84,1.71,
0.728,-0.57,-0.23,0.70,-0.79,-1.01,1.75,
0.729,-0.57,-0.23,0.70,-0.72,-1.19,1.80,
0.729,-0.57,-0.23,0.70,-0.65,-1.36,1.85,
0.729,-0.57,-0.23,0.70,-0.58,-1.52,1.89,
0.734,-0.57,-0.23,0.70,-0.52,-1.68,1.93,
0.735,-0.58,0.01,0.24,-0.52,-1.68,1.93,
0.735,-0.58,0.01,0.24,-0.45,-1.85,1.97,
0.735,-0.58,0.01,0.24,-0.39,-2.02,2.00,
0.739,-0.58,0.01,0.24,-0.33,-2.19,2.03,
0.744,-0.58,0.01,0.24,-0.28,-2.35,2.05,
0.744,-0.58,0.01,0.24,-0.22,-2.48,2.06,
0.745,-0.06,0.24,0.18,-0.22,-2.48,2.06,
0.745,-0.06,0.24,0.18,-0.18,-2.55,2.06,
0.745,-0.06,0.24,0.18,-0.13,-2.55,2.05,
0.754,-0.06,0.24,0.18,-0.07,-2.40,2.01,
0.758,-0.06,0.24,0.18,-0.04,-2.29,1.99,
0.759,-0.06,0.24,0.18,0.01,-2.02,1.94,
0.759,0.79,0.74,1.98,0.01,-2.02,1.94,
0.759,0.79,0.74,1.98,0.06,-1.72,1.87,
0.76,0.79,0.74,1.98,0.09,-1.44,1.80,
0.76,0.79,0.74,1.98,0.11,-1.22,1.72,
0.76,0.79,0.74,1.98,0.11,-1.03,1.62,
0.783,0.79,0.74,1.98,0.09,-0.85,1.52,
0.785,1.87,1.00,1.02,0.09,-0.85,1.52,
0.786,1.87,1.00,1.02,0.07,-0.67,1.42,
0.786,1.87,1.00,1.02,0.04,-0.48,1.30,
0.787,1.87,1.00,1.02,0.01,-0.30,1.19,
0.788,1.87,1.00,1.02,-0.01,-0.12,1.08,
0.788,1.87,1.00,1.02,-0.02,0.05,0.97,
0.789,2.20,1.25,-0.03,-0.02,0.05,0.97,
0.789,2.20,1.25,-0.03,-0.02,0.18,0.87,
0.79,2.20,1.25,-0.03,-0.02,0.28,0.78,
0.79,2.20,1.25,-0.03,-0.01,0.35,0.69,
0.791,2.20,1.25,-0.03,-0.00,0.40,0.60,
0.795,2.20,1.25,-0.03,-0.00,0.44,0.52,
0.796,2.04,1.20,-0.50,-0.00,0.44,0.52,
0.797,2.04,1.20,-0.50,-0.01,0.47,0.44,
0.797,2.04,1.20,-0.50,-0.03,0.48,0.37,
0.798,2.04,1.20,-0.50,-0.05,0.48,0.31,
0.798,2.04,1.20,-0.50,-0.09,0.46,0.27,
0.798,2.04,1.20,-0.50,-0.15,0.41,0.23,
0.799,1.25,0.65,-1.78,-0.15,0.41,0.23,
0.799,1.25,0.65,-1.78,-0.20,0.36,0.22,
0.799,1.25,0.65,-1.78,-0.22,0.34,0.22,
0.8,1.25,0.65,-1.78,-0.29,0.28,0.24,
0.8,1.25,0.65,-1.78,-0.31,0.27,0.25,
0.801,1.25,0.65,-1.78,-0.36,0.24,0.28,
0.804,0.73,0.16,-2.10,-0.36,0.24,0.28,
0.807,0.73,0.16,-2.10,-0.39,0.24,0.30,
0.807,0.73,0.16,-2.10,-0.40,0.24,0.31,
0.808,0.73,0.16,-2.10,-0.43,0.24,0.34,
0.809,0.73,0.16,-2.10,-0.45,0.25,0.35,
0.813,0.73,0.16,-2.10,-0.46,0.24,0.37,
0.814,1.06,-0.06,-2.03,-0.46,0.24,0.37,
0.814,1.06,-0.06,-2.03,-0.47,0.22,0.37,
0.815,1.06,-0.06,-2.03,-0.48,0.19,0.37,
0.828,1.06,-0.06,-2.03,-0.48,0.15,0.36,
0.829,1.06,-0.06,-2.03,-0.49,0.10,0.35,
0.83,1.06,-0.06,-2.03,-0.48,0.04,0.34,
0.83,2.20,-0.37,-2.08,-0.48,0.04,0.34,
0.83,2.20,-0.37,-2.08,-0.48,-0.03,0.33,
0.831,2.20,-0.37,-2.08,-0.47,-0.10,0.33,
0.831,2.20,-0.37,-2.08,-0.46,-0.18,0.32,
0.831,2.20,-0.37,-2.08,-0.45,-0.26,0.31,
0.863,2.20,-0.37,-2.08,-0.43,-0.35,0.31,
0.864,3.04,-0.72,-1.62,-0.43,-0.35,0.31,
0.864,3.04,-0.72,-1.62,-0.40,-0.44,0.30,
0.865,3.04,-0.72,-1.62,-0.38,-0.53,0.30,
0.865,3.04,-0.72,-1.62,-0.35,-0.61,0.29,
0.866,3.04,-0.72,-1.62,-0.32,-0.70,0.28,
0.866,3.04,-0.72,-1.62,-0.30,-0.79,0.27,
0.867,3.48,-0.78,-1.01,-0.30,-0.79,0.27,
0.867,3.48,-0.78,-1.01,-0.26,-0.88,0.27,
0.867,3.48,-0.78,-1.01,-0.23,-0.97,0.25,
0.868,3.48,-0.78,-1.01,-0.19,-1.05,0.24,
0.868,3.48,-0.78,-1.01,-0.16,-1.14,0.22,
0.869,3.48,-0.78,-1.01,-0.14,-1.21,0.20,
0.869,3.28,-0.52,-0.61,-0.14,-1.21,0.20,
0.87,3.28,-0.52,-0.61,-0.12,-1.27,0.18,
0.87,3.28,-0.52,-0.61,-0.10,-1.33,0.16,
0.871,3.28,-0.52,-0.61,-0.09,-1.37,0.14,
0.871,3.28,-0.52,-0.61,-0.07,-1.40,0.11,
0.872,3.28,-0.52,-0.61,-0.06,-1.42,0.08,
0.872,2.54,-0.04,-0.77,-0.06,-1.42,0.08,
0.872,2.54,-0.04,-0.77,-0.05,-1.42,0.06,
0.873,2.54,-0.04,-0.77,-0.04,-1.41,0.03,
0.873,2.54,-0.04,-0.77,-0.03,-1.41,0.00,
0.874,2.54,-0.04,-0.77,-0.01,-1.39,-0.03,
0.874,2.54,-0.04,-0.77,0.01,-1.38,-0.05,
0.874,1.33,0.45,-0.51,0.01,-1.38,-0.05,
0.875,1.33,0.45,-0.51,0.03,-1.35,-0.07,
0.878,1.33,0.45,-0.51,0.06,-1.33,-0.10,
0.879,1.33,0.45,-0.51,0.08,-1.30,-0.12,
0.879,1.33,0.45,-0.51,0.11,-1.27,-0.14,
0.881,1.33,0.45,-0.51,0.14,-1.24,-0.16,
0.883,0.52,0.77,-0.68,0.14,-1.24,-0.16,
0.883,0.52,0.77,-0.68,0.16,-1.22,-0.17,
0.885,0.52,0.77,-0.68,0.19,-1.19,-0.19,
0.886,0.52,0.77,-0.68,0.21,-1.17,-0.21,
0.889,0.52,0.77,-0.68,0.23,-1.16,-0.22,
0.891,0.52,0.77,-0.68,0.25,-1.15,-0.24,
0.895,0.12,0.82,-1.44,0.25,-1.15,-0.24,
0.895,0.12,0.82,-1.44,0.28,-1.14,-0.25,
0.896,0.12,0.82,-1.44,0.29,-1.15,-0.26,
0.897,0.12,0.82,-1.44,0.31,-1.16,-0.27,
0.898,0.12,0.82,-1.44,0.33,-1.17,-0.28,
0.902,0.12,0.82,-1.44,0.34,-1.20,-0.28,
0.904,-0.07,0.91,-2.34,0.34,-1.20,-0.28,
0.905,-0.07,0.91,-2.34,0.36,-1.24,-0.29,
0.905,-0.07,0.91,-2.34,0.37,-1.29,-0.29,
0.907,-0.07,0.91,-2.34,0.38,-1.34,-0.30,
0.909,-0.07,0.91,-2.34,0.39,-1.39,-0.30,
0.91,-0.07,0.91,-2.34,0.40,-1.46,-0.31,
0.914,-0.26,0.88,-3.08,0.40,-1.46,-0.31,
0.915,-0.26,0.88,-3.08,0.41,-1.53,-0.31,
0.915,-0.26,0.88,-3.08,0.43,-1.61,-0.31,
0.917,-0.26,0.88,-3.08,0.44,-1.69,-0.31,
0.92,-0.26,0.88,-3.08,0.46,-1.77,-0.31,
0.921,-0.26,0.88,-3.08,0.47,-1.87,-0.31,
0.924,-0.51,0.99,-3.51,0.47,-1.87,-0.31,
0.924,-0.51,0.99,-3.51,0.49,-1.96,-0.31,
0.929,-0.51,0.99,-3.51,0.51,-2.04,-0.31,
0.932,-0.51,0.99,-3.51,0.53,-2.13,-0.31,
0.933,-0.51,0.99,-3.51,0.55,-2.21,-0.30,
0.933,-0.51,0.99,-3.51,0.57,-2.29,-0.30,
0.938,-0.62,0.92,-3.50,0.57,-2.29,-0.30,
0.938,-0.62,0.92,-3.50,0.60,-2.35,-0.29,
0.939,-0.62,0.92,-3.50,0.63,-2.42,-0.28,
0.939,-0.62,0.92,-3.50,0.66,-2.48,-0.27,
0.939,-0.62,0.92,-3.50,0.69,-2.53,-0.26,
0.941,-0.62,0.92,-3.50,0.71,-2.59,-0.24,
0.945,-0.58,0.83,-3.42,0.71,-2.59,-0.24,
0.946,-0.58,0.83,-3.42,0.74,-2.65,-0.22,
0.947,-0.58,0.83,-3.42,0.76,-2.71,-0.20,
0.948,-0.58,0.83,-3.42,0.78,-2.78,-0.18,
0.949,-0.58,0.83,-3.42,0.80,-2.86,-0.16,
0.953,-0.58,0.83,-3.42,0.82,-2.95,-0.13,
0.953,-0.78,0.71,-3.66,0.82,-2.95,-0.13,
0.954,-0.78,0.71,-3.66,0.84,-3.04,-0.11,
0.957,-0.78,0.71,-3.66,0.87,-3.15,-0.08,
0.958,-0.78,0.71,-3.66,0.90,-3.25,-0.05,
0.963,-0.78,0.71,-3.66,0.93,-3.36,-0.03,
0.965,-0.78,0.71,-3.66,0.97,-3.48,-0.00,
0.966,-1.47,0.56,-3.36,0.97,-3.48,-0.00,
0.966,-1.47,0.56,-3.36,1.02,-3.59,0.03,
0.966,-1.47,0.56,-3.36,1.07,-3.70,0.05,
0.967,-1.47,0.56,-3.36,1.13,-3.81,0.09,
0.97,-1.47,0.56,-3.36,1.19,-3.92,0.12,
0.971,-1.47,0.56,-3.36,1.25,-4.02,0.15,
0.986,-2.20,0.23,-2.40,1.25,-4.02,0.15,
0.987,-2.20,0.23,-2.40,1.32,-4.11,0.18,
0.988,-2.20,0.23,-2.40,1.39,-4.20,0.21,
0.989,-2.20,0.23,-2.40,1.46,-4.28,0.24,
0.992,-2.20,0.23,-2.40,1.53,-4.35,0.28,
0.993,-2.20,0.23,-2.40,1.61,-4.42,0.32,
0.994,-2.66,-0.39,-1.60,1.61,-4.42,0.32,
0.995,-2.66,-0.39,-1.60,1.68,-4.48,0.36,
0.995,-2.66,-0.39,-1.60,1.76,-4.53,0.40,
0.995,-2.66,-0.39,-1.60,1.83,-4.58,0.45,
0.996,-2.66,-0.39,-1.60,1.90,-4.63,0.50,
0.996,-2.66,-0.39,-1.60,1.97,-4.67,0.55,
0.997,-2.79,-1.32,-1.50,1.97,-4.67,0.55,
0.997,-2.79,-1.32,-1.50,2.04,-4.71,0.61,
0.997,-2.79,-1.32,-1.50,2.10,-4.75,0.67,
1.024,-2.79,-1.32,-1.50,2.16,-4.79,0.72,
1.024,-2.79,-1.32,-1.50,2.21,-4.82,0.78,
1.025,-2.79,-1.32,-1.50,2.26,-4.86,0.82,
1.025,-3.23,-2.29,-2.04,2.26,-4.86,0.82,
1.025,-3.23,-2.29,-2.04,2.31,-4.90,0.87,
1.026,-3.23,-2.29,-2.04,2.36,-4.94,0.90,
1.026,-3.23,-2.29,-2.04,2.39,-4.98,0.91,
1.026,-3.23,-2.29,-2.04,2.43,-5.02,0.91,
1.026,-3.23,-2.29,-2.04,2.46,-5.06,0.89,
1.027,-2.71,-2.56,-2.94,2.46,-5.06,0.89,
1.027,-2.71,-2.56,-2.94,2.48,-5.11,0.86,
1.027,-2.71,-2.56,-2.94,2.50,-5.16,0.82,
1.028,-2.71,-2.56,-2.94,2.51,-5.22,0.77,
1.028,-2.71,-2.56,-2.94,2.52,-5.29,0.72,
1.028,-2.71,-2.56,-2.94,2.53,-5.35,0.67,
1.029,-2.75,-2.59,-3.63,2.53,-5.35,0.67,
1.029,-2.75,-2.59,-3.63,2.55,-5.43,0.62,
1.029,-2.75,-2.59,-3.63,2.56,-5.51,0.58,
1.03,-2.75,-2.59,-3.63,2.57,-5.60,0.55,
1.03,-2.75,-2.59,-3.63,2.59,-5.69,0.53,
1.03,-2.75,-2.59,-3.63,2.60,-5.77,0.52,
1.035,-4.17,-2.80,-4.11,2.60,-5.77,0.52,
1.036,-4.17,-2.80,-4.11,2.62,-5.86,0.53,
1.036,-4.17,-2.80,-4.11,2.63,-5.95,0.55,
1.037,-4.17,-2.80,-4.11,2.64,-6.03,0.59,
1.04,-4.17,-2.80,-4.11,2.66,-6.11,0.63,
1.041,-4.17,-2.80,-4.11,2.67,-6.19,0.69,
1.047,-6.15,-3.23,-4.44,2.67,-6.19,0.69,
1.048,-6.15,-3.23,-4.44,2.67,-6.26,0.76,
1.049,-6.15,-3.23,-4.44,2.68,-6.32,0.83,
1.049,-6.15,-3.23,-4.44,2.68,-6.37,0.92,
1.049,-6.15,-3.23,-4.44,2.68,-6.42,1.00,
1.053,-6.15,-3.23,-4.44,2.68,-6.46,1.10,
1.053,-7.73,-3.53,-4.98,2.68,-6.46,1.10,
1.054,-7.73,-3.53,-4.98,2.67,-6.51,1.19,
1.054,-7.73,-3.53,-4.98,2.67,-6.55,1.29,
1.058,-7.73,-3.53,-4.98,2.65,-6.59,1.40,
1.059,-7.73,-3.53,-4.98,2.63,-6.63,1.50,
1.063,-7.73,-3.53,-4.98,2.61,-6.67,1.61,
1.063,-8.85,-4.07,-5.36,2.61,-6.67,1.61,
1.064,-8.85,-4.07,-5.36,2.58,-6.71,1.72,
1.064,-8.85,-4.07,-5.36,2.55,-6.74,1.84,
1.071,-8.85,-4.07,-5.36,2.51,-6.77,1.95,
1.072,-8.85,-4.07,-5.36,2.47,-6.80,2.07,
1.072,-8.85,-4.07,-5.36,2.42,-6.80,2.19,
1.076,-8.77,-4.56,-5.97,2.42,-6.80,2.19,
1.077,-8.77,-4.56,-5.97,2.37,-6.80,2.31,
1.077,-8.77,-4.56,-5.97,2.31,-6.79,2.42,
1.078,-8.77,-4.56,-5.97,2.24,-6.76,2.54,
1.08,-8.77,-4.56,-5.97,2.17,-6.72,2.65,
1.081,-8.77,-4.56,-5.97,2.10,-6.66,2.77,
1.085,-8.40,-5.19,-6.17,2.10,-6.66,2.77,
1.086,-8.40,-5.19,-6.17,2.02,-6.60,2.88,
1.086,-8.40,-5.19,-6.17,1.94,-6.52,2.98,
1.087,-8.40,-5.19,-6.17,1.86,-6.43,3.09,
1.094,-8.40,-5.19,-6.17,1.77,-6.34,3.19,
1.094,-8.40,-5.19,-6.17,1.69,-6.23,3.29,
1.095,-7.92,-5.37,-6.07,1.69,-6.23,3.29,
1.095,-7.92,-5.37,-6.07,1.61,-6.12,3.38,
1.095,-7.92,-5.37,-6.07,1.53,-6.01,3.47,
1.099,-7.92,-5.37,-6.07,1.45,-5.90,3.55,
1.103,-7.92,-5.37,-6.07,1.38,-5.79,3.63,
1.104,-7.92,-5.37,-6.07,1.31,-5.69,3.70,
1.118,-6.46,-6.25,-5.10,1.31,-5.69,3.70,
1.119,-6.46,-6.25,-5.10,1.19,-5.49,3.83,
1.119,-6.46,-6.25,-5.10,1.19,-5.49,3.83,
1.119,-6.46,-6.25,-5.10,1.14,-5.40,3.89,
1.12,-6.46,-6.25,-5.10,1.10,-5.31,3.94,
1.12,-6.46,-6.25,-5.10,1.05,-5.23,3.98,
1.12,-5.47,-6.26,-4.05,1.05,-5.23,3.98,
1.12,-5.47,-6.26,-4.05,1.01,-5.16,4.02,
1.121,-5.47,-6.26,-4.05,0.98,-5.10,4.06,
1.121,-5.47,-6.26,-4.05,0.95,-5.04,4.09,
1.121,-5.47,-6.26,-4.05,0.93,-4.99,4.11,
1.121,-5.47,-6.26,-4.05,0.92,-4.95,4.13,
1.133,-4.36,-6.34,-2.73,0.92,-4.95,4.13,
1.134,-4.36,-6.34,-2.73,0.90,-4.91,4.15,
1.134,-4.36,-6.34,-2.73,0.90,-4.87,4.17,
1.134,-4.36,-6.34,-2.73,0.89,-4.84,4.18,
1.135,-4.36,-6.34,-2.73,0.89,-4.81,4.20,
1.135,-4.36,-6.34,-2.73,0.89,-4.78,4.21,
1.135,-3.63,-5.81,-1.55,0.89,-4.78,4.21,
1.135,-3.63,-5.81,-1.55,0.89,-4.74,4.23,
1.136,-3.63,-5.81,-1.55,0.90,-4.71,4.24,
1.138,-3.63,-5.81,-1.55,0.90,-4.68,4.26,
1.139,-3.63,-5.81,-1.55,0.89,-4.64,4.27,
1.145,-3.63,-5.81,-1.55,0.89,-4.61,4.29,
1.148,-3.03,-5.46,-0.81,0.89,-4.61,4.29,
1.149,-3.03,-5.46,-0.81,0.88,-4.58,4.31,
1.15,-3.03,-5.46,-0.81,0.88,-4.54,4.33,
1.151,-3.03,-5.46,-0.81,0.86,-4.51,4.35,
1.152,-3.03,-5.46,-0.81,0.85,-4.47,4.38,
1.154,-3.03,-5.46,-0.81,0.82,-4.43,4.41,
1.155,-2.18,-5.04,-0.53,0.82,-4.43,4.41,
1.158,-2.18,-5.04,-0.53,0.79,-4.39,4.44,
1.162,-2.18,-5.04,-0.53,0.75,-4.33,4.48,
1.163,-2.18,-5.04,-0.53,0.70,-4.27,4.51,
1.163,-2.18,-5.04,-0.53,0.65,-4.20,4.54,
1.164,-2.18,-5.04,-0.53,0.58,-4.11,4.58,
1.164,-1.31,-4.83,-0.74,0.58,-4.11,4.58,
1.187,-1.31,-4.83,-0.74,0.51,-4.01,4.61,
1.188,-1.31,-4.83,-0.74,0.44,-3.90,4.65,
1.188,-1.31,-4.83,-0.74,0.35,-3.79,4.69,
1.189,-1.31,-4.83,-0.74,0.26,-3.67,4.72,
1.189,-1.31,-4.83,-0.74,0.17,-3.54,4.75,
1.189,-0.31,-4.37,-0.85,0.17,-3.54,4.75,
1.19,-0.31,-4.37,-0.85,0.08,-3.42,4.78,
1.19,-0.31,-4.37,-0.85,-0.01,-3.29,4.80,
1.19,-0.31,-4.37,-0.85,-0.11,-3.17,4.82,
1.19,-0.31,-4.37,-0.85,-0.20,-3.06,4.83,
1.191,-0.31,-4.37,-0.85,-0.28,-2.95,4.83,
1.191,1.03,-4.31,-0.45,-0.28,-2.95,4.83,
1.191,1.03,-4.31,-0.45,-0.36,-2.84,4.83,
1.192,1.03,-4.31,-0.45,-0.44,-2.74,4.83,
1.192,1.03,-4.31,-0.45,-0.50,-2.64,4.81,
1.192,1.03,-4.31,-0.45,-0.56,-2.55,4.79,
1.193,1.03,-4.31,-0.45,-0.61,-2.45,4.76,
1.195,2.61,-4.53,0.87,-0.61,-2.45,4.76,
1.195,2.61,-4.53,0.87,-0.65,-2.36,4.73,
1.196,2.61,-4.53,0.87,-0.67,-2.27,4.70,
1.199,2.61,-4.53,0.87,-0.69,-2.19,4.67,
1.2,2.61,-4.53,0.87,-0.68,-2.11,4.64,
1.201,2.61,-4.53,0.87,-0.67,-2.05,4.60,
1.205,3.70,-5.20,3.26,-0.67,-2.05,4.60,
1.205,3.70,-5.20,3.26,-0.65,-1.99,4.57,
1.206,3.70,-5.20,3.26,-0.61,-1.95,4.54,
1.208,3.70,-5.20,3.26,-0.57,-1.92,4.51,
1.209,3.70,-5.20,3.26,-0.51,-1.90,4.48,
1.211,3.70,-5.20,3.26,-0.45,-1.89,4.46,
1.213,4.22,-5.48,5.39,-0.45,-1.89,4.46,
1.213,4.22,-5.48,5.39,-0.38,-1.88,4.44,
1.214,4.22,-5.48,5.39,-0.30,-1.88,4.42,
1.216,4.22,-5.48,5.39,-0.22,-1.89,4.41,
1.219,4.22,-5.48,5.39,-0.12,-1.90,4.41,
1.22,4.22,-5.48,5.39,-0.03,-1.90,4.40,
1.225,4.32,-5.38,6.59,-0.03,-1.90,4.40,
1.226,4.32,-5.38,6.59,0.07,-1.92,4.40,
1.227,4.32,-5.38,6.59,0.18,-1.93,4.40,
1.227,4.32,-5.38,6.59,0.28,-1.95,4.40,
1.229,4.32,-5.38,6.59,0.39,-1.96,4.41,
1.238,4.32,-5.38,6.59,0.49,-1.99,4.41,
1.239,4.78,-4.78,6.76,0.49,-1.99,4.41,
1.239,4.78,-4.78,6.76,0.60,-2.01,4.42,
1.239,4.78,-4.78,6.76,0.69,-2.03,4.42,
1.24,4.78,-4.78,6.76,0.79,-2.06,4.42,
1.24,4.78,-4.78,6.76,0.88,-2.08,4.41,
1.254,4.78,-4.78,6.76,0.96,-2.10,4.40,
1.255,6.02,-4.16,6.27,0.96,-2.10,4.40,
1.255,6.02,-4.16,6.27,1.03,-2.11,4.38,
1.255,6.02,-4.16,6.27,1.10,-2.12,4.36,
1.256,6.02,-4.16,6.27,1.16,-2.12,4.33,
1.256,6.02,-4.16,6.27,1.22,-2.11,4.31,
1.257,6.02,-4.16,6.27,1.27,-2.10,4.28,
1.257,7.51,-3.68,5.07,1.27,-2.10,4.28,
1.257,7.51,-3.68,5.07,1.31,-2.08,4.25,
1.258,7.51,-3.68,5.07,1.36,-2.06,4.22,
1.258,7.51,-3.68,5.07,1.40,-2.04,4.19,
1.262,7.51,-3.68,5.07,1.43,-2.02,4.16,
1.262,7.51,-3.68,5.07,1.47,-1.99,4.12,
1.263,8.62,-3.43,3.82,1.47,-1.99,4.12,
1.263,8.62,-3.43,3.82,1.50,-1.97,4.09,
1.266,8.62,-3.43,3.82,1.53,-1.94,4.06,
1.267,8.62,-3.43,3.82,1.57,-1.92,4.03,
1.27,8.62,-3.43,3.82,1.60,-1.90,4.00,
1.271,8.62,-3.43,3.82,1.63,-1.89,3.97,
1.275,9.55,-3.42,2.62,1.63,-1.89,3.97,
1.276,9.55,-3.42,2.62,1.67,-1.87,3.94,
1.276,9.55,-3.42,2.62,1.70,-1.86,3.91,
1.276,9.55,-3.42,2.62,1.74,-1.85,3.89,
1.28,9.55,-3.42,2.62,1.79,-1.84,3.86,
1.281,9.55,-3.42,2.62,1.83,-1.83,3.84,
1.283,10.58,-3.09,1.74,1.83,-1.83,3.84,
1.285,10.58,-3.09,1.74,1.87,-1.81,3.81,
1.286,10.58,-3.09,1.74,1.92,-1.80,3.78,
1.287,10.58,-3.09,1.74,1.96,-1.79,3.76,
1.293,10.58,-3.09,1.74,2.01,-1.78,3.73,
1.295,10.58,-3.09,1.74,2.05,-1.77,3.70,
1.296,11.75,-2.32,0.84,2.05,-1.77,3.70,
1.297,11.75,-2.32,0.84,2.08,-1.75,3.66,
1.298,11.75,-2.32,0.84,2.12,-1.73,3.62,
1.298,11.75,-2.32,0.84,2.15,-1.71,3.58,
1.299,11.75,-2.32,0.84,2.17,-1.68,3.53,
1.301,11.75,-2.32,0.84,2.19,-1.64,3.47,
1.303,13.21,-1.23,-0.26,2.19,-1.64,3.47,
1.304,13.21,-1.23,-0.26,2.20,-1.60,3.41,
1.305,13.21,-1.23,-0.26,2.20,-1.55,3.34,
1.311,13.21,-1.23,-0.26,2.20,-1.50,3.26,
1.314,13.21,-1.23,-0.26,2.18,-1.43,3.19,
1.315,13.21,-1.23,-0.26,2.15,-1.37,3.12,
1.315,14.44,-0.34,-1.72,2.15,-1.37,3.12,
1.316,14.44,-0.34,-1.72,2.11,-1.29,3.05,
1.317,14.44,-0.34,-1.72,2.06,-1.20,2.99,
1.317,14.44,-0.34,-1.72,2.00,-1.10,2.92,
1.319,14.44,-0.34,-1.72,1.94,-0.98,2.85,
1.324,14.44,-0.34,-1.72,1.86,-0.86,2.79,
1.326,15.24,0.62,-3.39,1.86,-0.86,2.79,
1.327,15.24,0.62,-3.39,1.77,-0.72,2.72,
1.327,15.24,0.62,-3.39,1.68,-0.56,2.66,
1.328,15.24,0.62,-3.39,1.57,-0.39,2.59,
1.329,15.24,0.62,-3.39,1.46,-0.22,2.52,
1.353,15.24,0.62,-3.39,1.33,-0.04,2.46,
1.353,15.08,1.12,-4.76,1.33,-0.04,2.46,
1.353,15.08,1.12,-4.76,1.20,0.14,2.39,
1.354,15.08,1.12,-4.76,1.06,0.33,2.32,
1.354,15.08,1.12,-4.76,0.92,0.51,2.25,
1.354,15.08,1.12,-4.76,0.77,0.69,2.18,
1.355,15.08,1.12,-4.76,0.62,0.87,2.10,
1.355,15.04,1.73,-5.66,0.62,0.87,2.10,
1.355,15.04,1.73,-5.66,0.47,1.05,2.03,
1.355,15.04,1.73,-5.66,0.33,1.23,1.96,
1.356,15.04,1.73,-5.66,0.19,1.41,1.89,
1.356,15.04,1.73,-5.66,0.05,1.59,1.81,
1.356,15.04,1.73,-5.66,-0.08,1.77,1.74,
1.357,14.74,2.01,-5.45,-0.08,1.77,1.74,
1.357,14.74,2.01,-5.45,-0.20,1.95,1.68,
1.357,14.74,2.01,-5.45,-0.32,2.13,1.61,
1.358,14.74,2.01,-5.45,-0.42,2.31,1.54,
1.359,14.74,2.01,-5.45,-0.52,2.48,1.47,
1.363,14.74,2.01,-5.45,-0.61,2.66,1.40,
1.363,14.61,2.08,-4.45,-0.61,2.66,1.40,
1.364,14.61,2.08,-4.45,-0.69,2.82,1.32,
1.367,14.61,2.08,-4.45,-0.77,2.98,1.25,
1.367,14.61,2.08,-4.45,-0.83,3.12,1.16,
1.371,14.61,2.08,-4.45,-0.87,3.26,1.08,
1.371,14.61,2.08,-4.45,-0.91,3.39,0.99,
1.375,14.43,1.82,-3.00,-0.91,3.39,0.99,
1.377,14.43,1.82,-3.00,-0.95,3.51,0.91,
1.377,14.43,1.82,-3.00,-0.97,3.61,0.82,
1.377,14.43,1.82,-3.00,-0.98,3.70,0.74,
1.38,14.43,1.82,-3.00,-0.99,3.79,0.65,
1.381,14.43,1.82,-3.00,-0.98,3.86,0.56,
1.385,14.26,1.69,-1.64,-0.98,3.86,0.56,
1.386,14.26,1.69,-1.64,-0.98,3.91,0.47,
1.386,14.26,1.69,-1.64,-0.96,3.96,0.37,
1.386,14.26,1.69,-1.64,-0.94,3.99,0.28,
1.394,14.26,1.69,-1.64,-0.91,4.02,0.18,
1.395,14.26,1.69,-1.64,-0.88,4.04,0.08,
1.399,13.77,1.28,-0.66,-0.88,4.04,0.08,
1.4,13.77,1.28,-0.66,-0.83,4.07,-0.02,
1.401,13.77,1.28,-0.66,-0.78,4.10,-0.12,
1.401,13.77,1.28,-0.66,-0.72,4.13,-0.22,
1.402,13.77,1.28,-0.66,-0.65,4.18,-0.32,
1.402,13.77,1.28,-0.66,-0.58,4.25,-0.40,
1.403,13.11,1.40,-0.90,-0.58,4.25,-0.40,
1.403,13.11,1.40,-0.90,-0.51,4.32,-0.50,
1.432,13.11,1.40,-0.90,-0.43,4.40,-0.60,
1.433,13.11,1.40,-0.90,-0.36,4.47,-0.70,
1.433,13.11,1.40,-0.90,-0.30,4.53,-0.81,
1.433,13.11,1.40,-0.90,-0.24,4.58,-0.91,
1.434,12.39,1.28,-2.46,-0.24,4.58,-0.91,
1.434,12.39,1.28,-2.46,-0.18,4.60,-1.00,
1.434,12.39,1.28,-2.46,-0.12,4.61,-1.09,
1.434,12.39,1.28,-2.46,-0.07,4.60,-1.17,
1.434,12.39,1.28,-2.46,-0.03,4.56,-1.25,
1.435,12.39,1.28,-2.46,0.02,4.51,-1.33,
1.435,11.40,1.01,-4.37,0.02,4.51,-1.33,
1.435,11.40,1.01,-4.37,0.06,4.44,-1.40,
1.435,11.40,1.01,-4.37,0.09,4.35,-1.48,
1.435,11.40,1.01,-4.37,0.12,4.25,-1.55,
1.436,11.40,1.01,-4.37,0.15,4.13,-1.62,
1.436,11.40,1.01,-4.37,0.18,4.02,-1.68,
1.436,9.81,0.51,-5.80,0.18,4.02,-1.68,
1.436,9.81,0.51,-5.80,0.20,3.89,-1.75,
1.437,9.81,0.51,-5.80,0.23,3.76,-1.81,
1.437,9.81,0.51,-5.80,0.24,3.63,-1.86,
1.446,9.81,0.51,-5.80,0.26,3.49,-1.92,
1.448,9.81,0.51,-5.80,0.27,3.34,-1.97,
1.449,8.57,0.33,-7.05,0.27,3.34,-1.97,
1.45,8.57,0.33,-7.05,0.27,3.18,-2.02,
1.451,8.57,0.33,-7.05,0.26,3.02,-2.07,
1.452,8.57,0.33,-7.05,0.25,2.86,-2.12,
1.452,8.57,0.33,-7.05,0.23,2.70,-2.16,
1.452,8.57,0.33,-7.05,0.21,2.56,-2.21,
1.454,7.34,-0.08,-7.41,0.21,2.56,-2.21,
1.455,7.34,-0.08,-7.41,0.19,2.43,-2.24,
1.455,7.34,-0.08,-7.41,0.16,2.32,-2.28,
1.457,7.34,-0.08,-7.41,0.13,2.24,-2.31,
1.46,7.34,-0.08,-7.41,0.10,2.18,-2.35,
1.461,7.34,-0.08,-7.41,0.07,2.13,-2.38,
1.463,5.67,-0.50,-7.39,0.07,2.13,-2.38,
1.465,5.67,-0.50,-7.39,0.04,2.10,-2.41,
1.466,5.67,-0.50,-7.39,0.01,2.08,-2.43,
1.466,5.67,-0.50,-7.39,-0.03,2.05,-2.45,
1.469,5.67,-0.50,-7.39,-0.07,2.02,-2.46,
1.472,5.67,-0.50,-7.39,-0.11,1.98,-2.45,
1.475,3.68,-0.90,-7.07,-0.11,1.98,-2.45,
1.478,3.68,-0.90,-7.07,-0.15,1.93,-2.44,
1.478,3.68,-0.90,-7.07,-0.20,1.89,-2.42,
1.479,3.68,-0.90,-7.07,-0.25,1.89,-2.40,
1.479,3.68,-0.90,-7.07,-0.29,1.92,-2.39,
1.481,3.68,-0.90,-7.07,-0.34,2.01,-2.40,
1.483,0.73,-1.32,-7.23,-0.34,2.01,-2.40,
1.487,0.73,-1.32,-7.23,-0.38,2.11,-2.43,
1.489,0.73,-1.32,-7.23,-0.42,2.19,-2.46,
1.49,0.73,-1.32,-7.23,-0.48,2.21,-2.47,
1.491,0.73,-1.32,-7.23,-0.54,2.12,-2.45,
1.495,0.73,-1.32,-7.23,-0.61,1.92,-2.41,
1.497,-1.43,-1.29,-6.87,-0.61,1.92,-2.41,
1.498,-1.43,-1.29,-6.87,-0.68,1.65,-2.33,
1.499,-1.43,-1.29,-6.87,-0.75,1.36,-2.23,
1.533,-1.43,-1.29,-6.87,-0.80,1.08,-2.11,
1.534,-1.43,-1.29,-6.87,-0.84,0.84,-1.97,
1.534,-1.43,-1.29,-6.87,-0.85,0.67,-1.82,
1.534,-1.70,-1.22,-3.07,-0.85,0.67,-1.82,
1.535,-1.70,-1.22,-3.07,-0.84,0.57,-1.65,
1.535,-1.70,-1.22,-3.07,-0.81,0.53,-1.47,
1.536,-1.70,-1.22,-3.07,-0.76,0.56,-1.29,
1.536,-1.70,-1.22,-3.07,-0.70,0.62,-1.12,
1.537,-1.70,-1.22,-3.07,-0.62,0.70,-0.96,
1.537,-1.74,-0.65,1.05,-0.62,0.70,-0.96,
1.537,-1.74,-0.65,1.05,-0.55,0.77,-0.81,
1.538,-1.74,-0.65,1.05,-0.47,0.81,-0.68,
1.538,-1.74,-0.65,1.05,-0.39,0.81,-0.57,
1.539,-1.74,-0.65,1.05,-0.31,0.79,-0.49,
1.539,-1.74,-0.65,1.05,-0.22,0.76,-0.43,
1.539,0.19,-0.63,4.38,-0.22,0.76,-0.43,
1.54,0.19,-0.63,4.38,-0.13,0.73,-0.40,
1.54,0.19,-0.63,4.38,-0.03,0.71,-0.38,
1.541,0.19,-0.63,4.38,0.08,0.69,-0.38,
1.541,0.19,-0.63,4.38,0.19,0.68,-0.40,
1.542,0.19,-0.63,4.38,0.32,0.67,-0.43,
1.542,2.67,-0.29,6.43,0.32,0.67,-0.43,
1.543,2.67,-0.29,6.43,0.45,0.68,-0.48,
1.543,2.67,-0.29,6.43,0.59,0.67,-0.53,
1.543,2.67,-0.29,6.43,0.73,0.63,-0.58,
1.544,2.67,-0.29,6.43,0.87,0.55,-0.64,
1.544,2.67,-0.29,6.43,1.01,0.42,-0.70,
1.545,4.85,0.94,7.39,1.01,0.42,-0.70,
1.545,4.85,0.94,7.39,1.14,0.25,-0.75,
1.546,4.85,0.94,7.39,1.26,0.05,-0.80,
1.546,4.85,0.94,7.39,1.40,-0.16,-0.85,
1.552,4.85,0.94,7.39,1.53,-0.31,-0.91,
1.552,4.85,0.94,7.39,1.67,-0.36,-0.98,
1.553,5.18,0.84,7.60,1.67,-0.36,-0.98,
1.553,5.18,0.84,7.60,1.83,-0.31,-1.06,
1.557,5.18,0.84,7.60,1.99,-0.19,-1.14,
1.557,5.18,0.84,7.60,2.14,-0.05,-1.22,
1.563,5.18,0.84,7.60,2.28,0.06,-1.30,
1.564,5.18,0.84,7.60,2.40,0.10,-1.36,
1.564,4.30,1.24,5.07,2.40,0.10,-1.36,
1.564,4.30,1.24,5.07,2.49,0.05,-1.41,
1.565,4.30,1.24,5.07,2.56,-0.07,-1.45,
1.568,4.30,1.24,5.07,2.60,-0.26,-1.49,
1.57,4.30,1.24,5.07,2.64,-0.48,-1.52,
1.571,4.30,1.24,5.07,2.66,-0.71,-1.55,
1.58,3.26,0.95,4.13,2.66,-0.71,-1.55,
1.581,3.26,0.95,4.13,2.69,-0.89,-1.58,
1.581,3.26,0.95,4.13,2.73,-1.02,-1.60,
1.581,3.26,0.95,4.13,2.76,-1.09,-1.63,
1.582,3.26,0.95,4.13,2.81,-1.10,-1.66,
1.588,3.26,0.95,4.13,2.86,-1.07,-1.69,
1.588,1.55,-0.35,3.60,2.86,-1.07,-1.69,
1.589,1.55,-0.35,3.60,2.91,-0.97,-1.72,
1.593,1.55,-0.35,3.60,2.96,-0.83,-1.75,
1.595,1.55,-0.35,3.60,3.01,-0.69,-1.77,
1.596,1.55,-0.35,3.60,3.04,-0.56,-1.79,
1.597,1.55,-0.35,3.60,3.06,-0.46,-1.80,
1.598,0.89,-0.19,1.12,3.06,-0.46,-1.80,
1.598,0.89,-0.19,1.12,3.05,-0.41,-1.81,
1.599,0.89,-0.19,1.12,3.03,-0.39,-1.81,
1.6,0.89,-0.19,1.12,3.00,-0.42,-1.80,
1.6,0.89,-0.19,1.12,2.95,-0.47,-1.80,
1.605,0.16,0.46,-0.17,2.95,-0.47,-1.80,
1.607,0.16,0.46,-0.17,2.85,-0.61,-1.79,
1.607,0.16,0.46,-0.17,2.85,-0.61,-1.79,
1.608,0.16,0.46,-0.17,2.79,-0.67,-1.79,
1.608,0.16,0.46,-0.17,2.74,-0.72,-1.78,
1.609,0.16,0.46,-0.17,2.70,-0.75,-1.78,
1.611,0.16,0.46,-0.17,2.66,-0.77,-1.78,
1.616,-0.58,0.44,-0.76,2.66,-0.77,-1.78,
1.616,-0.58,0.44,-0.76,2.62,-0.78,-1.77,
1.617,-0.58,0.44,-0.76,2.59,-0.80,-1.77,
1.617,-0.58,0.44,-0.76,2.56,-0.84,-1.76,
1.62,-0.58,0.44,-0.76,2.53,-0.90,-1.75,
1.621,-0.58,0.44,-0.76,2.50,-0.99,-1.73,
1.623,-0.93,0.32,0.02,2.50,-0.99,-1.73,
1.624,-0.93,0.32,0.02,2.47,-1.12,-1.72,
1.626,-0.93,0.32,0.02,2.45,-1.25,-1.69,
1.627,-0.93,0.32,0.02,2.44,-1.38,-1.68,
1.629,-0.93,0.32,0.02,2.45,-1.48,-1.66,
1.631,-0.93,0.32,0.02,2.46,-1.54,-1.64,
1.633,-1.10,-0.06,2.73,2.46,-1.54,-1.64,
1.635,-1.10,-0.06,2.73,2.49,-1.54,-1.63,
1.635,-1.10,-0.06,2.73,2.53,-1.48,-1.62,
1.641,-1.10,-0.06,2.73,2.58,-1.37,-1.61,
1.643,-1.10,-0.06,2.73,2.64,-1.24,-1.60,
1.644,-1.10,-0.06,2.73,2.69,-1.12,-1.59,
1.645,-1.08,0.37,2.93,2.69,-1.12,-1.59,
1.645,-1.08,0.37,2.93,2.73,-1.01,-1.58,
1.646,-1.08,0.37,2.93,2.76,-0.94,-1.56,
1.647,-1.08,0.37,2.93,2.76,-0.93,-1.54,
1.649,-1.08,0.37,2.93,2.73,-0.95,-1.52,
1.651,-1.08,0.37,2.93,2.66,-0.98,-1.50,
1.664,-1.36,1.27,-0.31,2.66,-0.98,-1.50,
1.666,-1.36,1.27,-0.31,2.56,-1.05,-1.46,
1.666,-1.36,1.27,-0.31,2.38,-1.14,-1.39,
1.667,-1.36,1.27,-0.31,2.13,-1.30,-1.29,
1.668,-1.36,1.27,-0.31,1.84,-1.41,-1.17,
1.668,-1.36,1.27,-0.31,1.56,-1.38,-1.08,
1.669,-5.55,1.27,-9.69,1.56,-1.38,-1.08,
1.703,-5.55,1.27,-9.69,1.32,-1.14,-1.03,
1.703,-5.55,1.27,-9.69,1.12,-0.80,-0.99,
1.704,-5.55,1.27,-9.69,0.86,-0.58,-0.93,
1.704,-5.55,1.27,-9.69,0.53,-0.50,-0.86,
1.705,-5.55,1.27,-9.69,0.19,-0.45,-0.79,
1.705,-7.71,1.02,-15.22,0.19,-0.45,-0.79,
1.706,-7.71,1.02,-15.22,-0.12,-0.39,-0.69,
1.706,-7.71,1.02,-15.22,-0.43,-0.37,-0.56,
1.707,-7.71,1.02,-15.22,-0.69,-0.40,-0.39,
1.707,-7.71,1.02,-15.22,-0.90,-0.43,-0.22,
1.708,-7.71,1.02,-15.22,-1.04,-0.47,-0.05,
1.708,-16.08,1.15,-15.06,-1.04,-0.47,-0.05,
1.709,-16.08,1.15,-15.06,-1.13,-0.55,0.08,
1.71,-16.08,1.15,-15.06,-1.13,-0.53,0.15,
1.71,-16.08,1.15,-15.06,-1.01,-0.28,0.27,
1.711,-16.08,1.15,-15.06,-0.86,-0.17,0.40,
1.711,-16.08,1.15,-15.06,-0.66,-0.15,0.49,
1.712,-12.80,-0.47,-4.22,-0.66,-0.15,0.49,
1.713,-12.80,-0.47,-4.22,-0.43,-0.21,0.50,
1.713,-12.80,-0.47,-4.22,-0.18,-0.46,0.35,
1.714,-12.80,-0.47,-4.22,0.18,-0.25,0.14,
1.714,-12.80,-0.47,-4.22,0.60,0.21,-0.00,
1.715,-12.80,-0.47,-4.22,1.01,0.56,-0.18,
1.715,4.38,-3.85,5.98,1.01,0.56,-0.18,
1.716,4.38,-3.85,5.98,1.41,0.87,-0.38,
1.716,4.38,-3.85,5.98,1.79,1.15,-0.56,
1.717,4.38,-3.85,5.98,2.15,1.28,-0.72,
1.717,4.38,-3.85,5.98,2.47,1.26,-0.89,
1.717,4.38,-3.85,5.98,2.83,1.23,-1.05,
1.718,2.81,-3.43,10.63,2.83,1.23,-1.05,
1.718,2.81,-3.43,10.63,3.20,1.20,-1.21,
1.719,2.81,-3.43,10.63,3.57,1.10,-1.34,
1.719,2.81,-3.43,10.63,3.91,0.93,-1.45,
1.72,2.81,-3.43,10.63,4.20,0.67,-1.52,
1.72,2.81,-3.43,10.63,4.41,0.26,-1.57,
1.725,0.76,-2.34,11.25,4.41,0.26,-1.57,
1.726,0.76,-2.34,11.25,4.54,-0.18,-1.59,
1.727,0.76,-2.34,11.25,4.66,-0.56,-1.57,
1.727,0.76,-2.34,11.25,4.79,-0.84,-1.51,
1.731,0.76,-2.34,11.25,4.94,-1.04,-1.41,
1.732,0.76,-2.34,11.25,5.07,-1.28,-1.27,
1.734,-4.86,-0.04,8.63,5.07,-1.28,-1.27,
1.735,-4.86,-0.04,8.63,5.14,-1.56,-1.14,
1.735,-4.86,-0.04,8.63,5.14,-1.78,-1.01,
1.737,-4.86,-0.04,8.63,5.08,-1.94,-0.90,
1.739,-4.86,-0.04,8.63,4.95,-2.02,-0.78,
1.741,-4.86,-0.04,8.63,4.73,-2.11,-0.63,
1.743,-4.47,1.14,-0.93,4.73,-2.11,-0.63,
1.743,-4.47,1.14,-0.93,4.43,-2.21,-0.48,
1.745,-4.47,1.14,-0.93,4.08,-2.28,-0.35,
1.747,-4.47,1.14,-0.93,3.68,-2.33,-0.21,
1.748,-4.47,1.14,-0.93,3.20,-2.39,-0.08,
1.75,-4.47,1.14,-0.93,2.69,-2.40,0.03,
1.753,-7.70,1.81,-14.69,2.69,-2.40,0.03,
1.754,-7.70,1.81,-14.69,2.17,-2.31,0.13,
1.755,-7.70,1.81,-14.69,1.70,-2.13,0.26,
1.757,-7.70,1.81,-14.69,1.25,-1.90,0.39,
1.758,-7.70,1.81,-14.69,0.85,-1.67,0.53,
1.761,-7.70,1.81,-14.69,0.52,-1.36,0.64,
1.763,-9.31,1.03,-16.26,0.52,-1.36,0.64,
1.764,-9.31,1.03,-16.26,0.29,-0.97,0.74,
1.765,-9.31,1.03,-16.26,0.14,-0.56,0.80,
1.767,-9.31,1.03,-16.26,0.07,-0.15,0.85,
1.779,-9.31,1.03,-16.26,0.04,0.20,0.89,
1.78,-9.31,1.03,-16.26,0.04,0.48,0.92,
1.781,-6.06,0.37,-5.40,0.04,0.48,0.92,
1.781,-6.06,0.37,-5.40,0.07,0.69,0.94,
1.781,-6.06,0.37,-5.40,0.13,0.84,0.94,
1.782,-6.06,0.37,-5.40,0.19,0.91,0.95,
1.782,-6.06,0.37,-5.40,0.26,0.92,0.94,
1.783,-6.06,0.37,-5.40,0.33,0.87,0.94,
1.783,-3.55,-0.04,2.07,0.33,0.87,0.94,
1.784,-3.55,-0.04,2.07,0.40,0.77,0.94,
1.802,-3.55,-0.04,2.07,0.46,0.63,0.95,
1.805,-3.55,-0.04,2.07,0.52,0.47,0.96,
1.805,-3.55,-0.04,2.07,0.58,0.32,0.97,
1.806,-3.55,-0.04,2.07,0.64,0.18,0.99,
1.807,-3.23,-0.33,3.74,0.64,0.18,0.99,
1.809,-3.23,-0.33,3.74,0.70,0.07,1.00,
1.809,-3.23,-0.33,3.74,0.75,-0.02,1.03,
1.809,-3.23,-0.33,3.74,0.80,-0.08,1.05,
1.81,-3.23,-0.33,3.74,0.84,-0.12,1.08,
1.81,-3.23,-0.33,3.74,0.87,-0.16,1.10,
1.811,-3.73,-0.15,1.46,0.87,-0.16,1.10,
1.812,-3.73,-0.15,1.46,0.88,-0.17,1.13,
1.813,-3.73,-0.15,1.46,0.88,-0.17,1.15,
1.814,-3.73,-0.15,1.46,0.87,-0.16,1.17,
1.814,-3.73,-0.15,1.46,0.85,-0.14,1.19,
1.815,-3.73,-0.15,1.46,0.82,-0.11,1.20,
1.815,-3.58,0.12,-1.56,0.82,-0.11,1.20,
1.816,-3.58,0.12,-1.56,0.79,-0.07,1.21,
1.817,-3.58,0.12,-1.56,0.75,-0.04,1.22,
1.817,-3.58,0.12,-1.56,0.72,-0.01,1.22,
1.82,-3.58,0.12,-1.56,0.68,0.03,1.22,
1.823,-3.58,0.12,-1.56,0.65,0.07,1.22,
1.824,-3.03,0.16,-2.42,0.65,0.07,1.22,
1.825,-3.03,0.16,-2.42,0.62,0.11,1.20,
1.825,-3.03,0.16,-2.42,0.60,0.15,1.19,
1.827,-3.03,0.16,-2.42,0.58,0.19,1.17,
1.829,-3.03,0.16,-2.42,0.57,0.22,1.14,
1.861,-3.03,0.16,-2.42,0.56,0.25,1.11,
1.861,-1.59,0.63,-1.59,0.56,0.25,1.11,
1.862,-1.59,0.63,-1.59,0.55,0.28,1.08,
1.862,-1.59,0.63,-1.59,0.54,0.31,1.04,
1.863,-1.59,0.63,-1.59,0.54,0.34,1.00,
1.863,-1.59,0.63,-1.59,0.54,0.36,0.97,
1.864,-1.59,0.63,-1.59,0.53,0.38,0.93,
1.864,-0.14,1.55,-0.81,0.53,0.38,0.93,
1.864,-0.14,1.55,-0.81,0.52,0.40,0.90,
1.865,-0.14,1.55,-0.81,0.50,0.43,0.87,
1.865,-0.14,1.55,-0.81,0.47,0.46,0.84,
1.866,-0.14,1.55,-0.81,0.44,0.49,0.81,
1.866,-0.14,1.55,-0.81,0.41,0.54,0.79,
1.866,0.38,2.00,-0.97,0.41,0.54,0.79,
1.867,0.38,2.00,-0.97,0.38,0.58,0.78,
1.867,0.38,2.00,-0.97,0.35,0.63,0.77,
1.868,0.38,2.00,-0.97,0.32,0.68,0.77,
1.868,0.38,2.00,-0.97,0.28,0.74,0.77,
1.869,0.38,2.00,-0.97,0.24,0.78,0.77,
1.869,0.15,2.08,-1.10,0.24,0.78,0.77,
1.869,0.15,2.08,-1.10,0.21,0.82,0.78,
1.87,0.15,2.08,-1.10,0.17,0.86,0.78,
1.87,0.15,2.08,-1.10,0.13,0.90,0.78,
1.871,0.15,2.08,-1.10,0.09,0.92,0.78,
1.871,0.15,2.08,-1.10,0.04,0.95,0.77,
1.873,-0.58,2.14,-1.40,0.04,0.95,0.77,
1.874,-0.58,2.14,-1.40,0.00,0.98,0.76,
1.874,-0.58,2.14,-1.40,-0.03,1.03,0.76,
1.877,-0.58,2.14,-1.40,-0.05,1.08,0.74,
1.879,-0.58,2.14,-1.40,-0.07,1.14,0.74,
1.881,-0.58,2.14,-1.40,-0.07,1.16,0.74,
1.883,-1.88,2.22,-0.66,-0.07,1.16,0.74,
1.883,-1.88,2.22,-0.66,-0.08,1.19,0.73,
1.885,-1.88,2.22,-0.66,-0.08,1.19,0.73,
1.892,-1.88,2.22,-0.66,-0.08,1.19,0.72,
1.894,-1.88,2.22,-0.66,-0.06,1.17,0.71,
1.895,-1.88,2.22,-0.66,-0.04,1.14,0.69,
1.895,-1.69,1.76,-0.07,-0.04,1.14,0.69,
1.896,-1.69,1.76,-0.07,-0.01,1.12,0.66,
1.896,-1.69,1.76,-0.07,0.03,1.08,0.63,
1.897,-1.69,1.76,-0.07,0.07,1.02,0.60,
1.898,-1.69,1.76,-0.07,0.12,0.97,0.60,
1.902,-1.69,1.76,-0.07,0.17,0.94,0.65,
1.904,-2.94,0.40,0.75,0.17,0.94,0.65,
1.904,-2.94,0.40,0.75,0.24,0.95,0.71,
1.905,-2.94,0.40,0.75,0.30,0.95,0.78,
1.907,-2.94,0.40,0.75,0.35,0.95,0.84,
1.909,-2.94,0.40,0.75,0.39,0.94,0.90,
1.911,-2.94,0.40,0.75,0.43,0.91,0.95,
1.913,-2.92,-1.22,0.52,0.43,0.91,0.95,
1.914,-2.92,-1.22,0.52,0.45,0.88,0.98,
1.915,-2.92,-1.22,0.52,0.48,0.86,0.98,
1.916,-2.92,-1.22,0.52,0.49,0.83,0.96,
1.919,-2.92,-1.22,0.52,0.50,0.78,0.94,
1.921,-2.92,-1.22,0.52,0.50,0.74,0.91,
1.923,-0.79,-1.24,-0.37,0.50,0.74,0.91,
1.924,-0.79,-1.24,-0.37,0.49,0.68,0.90,
1.925,-0.79,-1.24,-0.37,0.48,0.62,0.90,
1.926,-0.79,-1.24,-0.37,0.48,0.56,0.90,
1.928,-0.79,-1.24,-0.37,0.49,0.51,0.90,
1.931,-0.79,-1.24,-0.37,0.50,0.48,0.91,
1.933,-1.05,-0.43,-0.09,0.50,0.48,0.91,
1.933,-1.05,-0.43,-0.09,0.52,0.46,0.91,
1.939,-1.05,-0.43,-0.09,0.54,0.42,0.91,
1.94,-1.05,-0.43,-0.09,0.54,0.34,0.91,
1.942,-1.05,-0.43,-0.09,0.54,0.27,0.87,
1.945,-1.05,-0.43,-0.09,0.55,0.25,0.82,
1.946,-0.54,1.80,0.24,0.55,0.25,0.82,
1.97,-0.54,1.80,0.24,0.62,0.32,0.81,
1.972,-0.54,1.80,0.24,0.68,0.36,0.81,
1.973,-0.54,1.80,0.24,0.78,0.39,0.84,
1.974,-0.54,1.80,0.24,0.82,0.41,0.85,
1.976,-0.54,1.80,0.24,0.88,0.43,0.88,
1.976,-0.22,-0.16,1.03,0.88,0.43,0.88,
1.977,-0.22,-0.16,1.03,0.92,0.43,0.89,
1.978,-0.22,-0.16,1.03,0.97,0.35,0.91,
1.978,-0.22,-0.16,1.03,0.99,0.28,0.91,
1.979,-0.22,-0.16,1.03,1.00,0.25,0.91,
1.98,-0.22,-0.16,1.03,1.02,0.19,0.91,
1.98,0.33,-1.12,-0.11,1.02,0.19,0.91,
1.981,0.33,-1.12,-0.11,1.05,0.14,0.90,
1.982,0.33,-1.12,-0.11,1.07,0.09,0.90,
1.982,0.33,-1.12,-0.11,1.11,0.05,0.89,
1.983,0.33,-1.12,-0.11,1.15,0.01,0.90,
1.983,0.33,-1.12,-0.11,1.19,-0.03,0.90,
1.984,0.47,-0.97,0.05,1.19,-0.03,0.90,
1.985,0.47,-0.97,0.05,1.24,-0.06,0.89,
1.985,0.47,-0.97,0.05,1.29,-0.10,0.90,
1.985,0.47,-0.97,0.05,1.34,-0.13,0.89,
1.986,0.47,-0.97,0.05,1.40,-0.17,0.89,
1.987,0.47,-0.97,0.05,1.46,-0.20,0.89,
1.987,1.00,-0.71,0.60,1.46,-0.20,0.89,
1.988,1.00,-0.71,0.60,1.51,-0.23,0.89,
1.989,1.00,-0.71,0.60,1.56,-0.26,0.88,
1.99,1.00,-0.71,0.60,1.60,-0.28,0.86,
1.991,1.00,-0.71,0.60,1.64,-0.30,0.86,
1.992,1.00,-0.71,0.60,1.66,-0.33,0.85,
1.993,1.31,-0.36,0.48,1.66,-0.33,0.85,
1.994,1.31,-0.36,0.48,1.68,-0.36,0.85,
1.995,1.31,-0.36,0.48,1.67,-0.36,0.86,
2.027,1.31,-0.36,0.48,1.65,-0.33,0.88,
2.028,1.31,-0.36,0.48,1.60,-0.29,0.92,
2.029,1.31,-0.36,0.48,1.54,-0.24,0.97,
2.029,-0.51,0.89,-2.09,1.54,-0.24,0.97,
2.03,-0.51,0.89,-2.09,1.47,-0.17,1.02,
2.03,-0.51,0.89,-2.09,1.40,-0.13,1.07,
2.031,-0.51,0.89,-2.09,1.34,-0.13,1.11,
2.031,-0.51,0.89,-2.09,1.27,-0.18,1.15,
2.032,-0.51,0.89,-2.09,1.20,-0.30,1.23,
2.032,-3.65,2.65,-2.04,1.20,-0.30,1.23,
2.033,-3.65,2.65,-2.04,1.08,-0.51,1.36,
2.034,-3.65,2.65,-2.04,0.95,-0.67,1.49,
2.035,-3.65,2.65,-2.04,0.90,-0.63,1.52,
2.035,-3.65,2.65,-2.04,0.91,-0.52,1.45,
2.036,-3.65,2.65,-2.04,0.92,-0.47,1.37,
2.037,1.31,1.49,0.73,0.92,-0.47,1.37,
2.037,1.31,1.49,0.73,0.89,-0.51,1.34,
2.038,1.31,1.49,0.73,0.81,-0.62,1.37,
2.038,1.31,1.49,0.73,0.67,-0.83,1.44,
2.038,1.31,1.49,0.73,0.55,-0.94,1.47,
2.039,1.31,1.49,0.73,0.50,-0.93,1.44,
2.039,-0.98,2.39,-0.77,0.50,-0.93,1.44,
2.04,-0.98,2.39,-0.77,0.46,-1.01,1.41,
2.04,-0.98,2.39,-0.77,0.36,-1.23,1.45,
2.041,-0.98,2.39,-0.77,0.26,-1.43,1.55,
2.041,-0.98,2.39,-0.77,0.20,-1.49,1.62,
2.041,-0.98,2.39,-0.77,0.22,-1.40,1.64,
2.044,-2.32,3.21,1.81,0.22,-1.40,1.64,
2.045,-2.32,3.21,1.81,0.29,-1.29,1.64,
2.046,-2.32,3.21,1.81,0.33,-1.26,1.64,
2.047,-2.32,3.21,1.81,0.32,-1.42,1.69,
2.049,-2.32,3.21,1.81,0.15,-1.91,1.89,
2.057,-2.32,3.21,1.81,-0.07,-2.34,2.09,
2.058,-5.55,-0.27,-2.37,-0.07,-2.34,2.09,
2.058,-5.55,-0.27,-2.37,-0.25,-2.59,2.24,
2.058,-5.55,-0.27,-2.37,-0.42,-2.71,2.35,
2.059,-5.55,-0.27,-2.37,-0.54,-2.68,2.40,
2.06,-5.55,-0.27,-2.37,-0.62,-2.46,2.39,
2.061,-5.55,-0.27,-2.37,-0.64,-2.06,2.36,
2.063,-1.29,0.89,2.58,-0.64,-2.06,2.36,
2.064,-1.29,0.89,2.58,-0.66,-1.60,2.32,
2.065,-1.29,0.89,2.58,-0.67,-1.13,2.28,
2.074,-1.29,0.89,2.58,-0.67,-0.70,2.24,
2.075,-1.29,0.89,2.58,-0.64,-0.31,2.18,
2.075,-1.29,0.89,2.58,-0.60,0.00,2.11,
2.075,2.56,1.56,6.04,-0.60,0.00,2.11,
2.076,2.56,1.56,6.04,-0.56,0.21,2.03,
2.076,2.56,1.56,6.04,-0.54,0.29,1.94,
2.077,2.56,1.56,6.04,-0.53,0.28,1.86,
2.112,2.56,1.56,6.04,-0.53,0.19,1.75,
2.114,2.56,1.56,6.04,-0.54,0.06,1.64,
2.115,5.46,-1.76,5.23,-0.54,0.06,1.64,
2.116,5.46,-1.76,5.23,-0.56,-0.10,1.52,
2.118,5.46,-1.76,5.23,-0.59,-0.27,1.40,
2.121,5.46,-1.76,5.23,-0.63,-0.44,1.28,
2.123,5.46,-1.76,5.23,-0.69,-0.58,1.17,
2.125,5.46,-1.76,5.23,-0.76,-0.72,1.07,
2.125,3.73,-4.66,1.58,-0.76,-0.72,1.07,
2.125,3.73,-4.66,1.58,-0.83,-0.82,0.97,
2.126,3.73,-4.66,1.58,-0.90,-0.91,0.88,
2.127,3.73,-4.66,1.58,-0.97,-0.98,0.80,
2.127,3.73,-4.66,1.58,-1.03,-1.06,0.73,
2.128,3.73,-4.66,1.58,-1.10,-1.18,0.67,
2.128,1.66,-4.10,-3.04,-1.10,-1.18,0.67,
2.129,1.66,-4.10,-3.04,-1.24,-1.49,0.58,
2.13,1.66,-4.10,-3.04,-1.24,-1.49,0.58,
2.13,1.66,-4.10,-3.04,-1.25,-1.55,0.55,
2.13,1.66,-4.10,-3.04,-1.24,-1.60,0.52,
2.131,1.66,-4.10,-3.04,-1.21,-1.64,0.49,
2.131,0.51,-2.68,-2.23,-1.21,-1.64,0.49,
2.131,0.51,-2.68,-2.23,-1.16,-1.66,0.46,
2.132,0.51,-2.68,-2.23,-1.07,-1.68,0.44,
2.133,0.51,-2.68,-2.23,-0.95,-1.73,0.42,
2.133,0.51,-2.68,-2.23,-0.80,-1.79,0.40,
2.135,0.51,-2.68,-2.23,-0.64,-1.86,0.38,
2.138,-0.59,-0.96,0.71,-0.64,-1.86,0.38,
2.139,-0.59,-0.96,0.71,-0.47,-1.94,0.38,
2.141,-0.59,-0.96,0.71,-0.28,-1.99,0.37,
2.141,-0.59,-0.96,0.71,-0.08,-2.03,0.37,
2.142,-0.59,-0.96,0.71,0.10,-2.06,0.37,
2.142,-0.59,-0.96,0.71,0.27,-2.09,0.38,
2.143,-0.34,-0.29,1.47,0.27,-2.09,0.38,
2.144,-0.34,-0.29,1.47,0.41,-2.11,0.40,
2.144,-0.34,-0.29,1.47,0.53,-2.11,0.42,
2.145,-0.34,-0.29,1.47,0.63,-2.07,0.44,
2.145,-0.34,-0.29,1.47,0.70,-2.00,0.45,
2.146,-0.34,-0.29,1.47,0.75,-1.90,0.47,
2.146,0.62,-1.15,-1.69,0.75,-1.90,0.47,
2.147,0.62,-1.15,-1.69,0.78,-1.78,0.49,
2.147,0.62,-1.15,-1.69,0.78,-1.64,0.50,
2.147,0.62,-1.15,-1.69,0.76,-1.50,0.52,
2.151,0.62,-1.15,-1.69,0.73,-1.35,0.52,
2.153,0.62,-1.15,-1.69,0.68,-1.20,0.51,
2.154,1.51,-2.01,-4.22,0.68,-1.20,0.51,
2.155,1.51,-2.01,-4.22,0.63,-1.03,0.49,
2.155,1.51,-2.01,-4.22,0.58,-0.86,0.46,
2.157,1.51,-2.01,-4.22,0.54,-0.69,0.43,
2.159,1.51,-2.01,-4.22,0.51,-0.53,0.40,
2.161,1.51,-2.01,-4.22,0.48,-0.38,0.37,
2.163,2.36,-2.08,-3.65,0.48,-0.38,0.37,
2.194,2.36,-2.08,-3.65,0.47,-0.25,0.34,
2.194,2.36,-2.08,-3.65,0.45,-0.13,0.32,
2.195,2.36,-2.08,-3.65,0.44,-0.04,0.30,
2.195,2.36,-2.08,-3.65,0.43,0.03,0.29,
2.195,2.36,-2.08,-3.65,0.43,0.08,0.29,
2.196,1.36,-1.21,-1.71,0.43,0.08,0.29,
2.196,1.36,-1.21,-1.71,0.43,0.12,0.28,
2.197,1.36,-1.21,-1.71,0.43,0.15,0.27,
2.197,1.36,-1.21,-1.71,0.44,0.17,0.26,
2.198,1.36,-1.21,-1.71,0.44,0.18,0.25,
2.198,1.36,-1.21,-1.71,0.44,0.17,0.25,
2.198,0.65,-0.90,-0.31,0.44,0.17,0.25,
2.199,0.65,-0.90,-0.31,0.45,0.17,0.25,
2.199,0.65,-0.90,-0.31,0.45,0.17,0.25,
2.2,0.65,-0.90,-0.31,0.45,0.17,0.25,
2.2,0.65,-0.90,-0.31,0.45,0.16,0.26,
2.2,0.65,-0.90,-0.31,0.45,0.15,0.28,
2.201,0.23,-0.78,0.10,0.45,0.15,0.28,
2.201,0.23,-0.78,0.10,0.45,0.13,0.31,
2.202,0.23,-0.78,0.10,0.44,0.11,0.33,
2.202,0.23,-0.78,0.10,0.44,0.09,0.36,
2.202,0.23,-0.78,0.10,0.43,0.06,0.39,
2.203,0.23,-0.78,0.10,0.42,0.02,0.42,
2.203,0.05,-0.66,0.15,0.42,0.02,0.42,
2.204,0.05,-0.66,0.15,0.41,-0.03,0.45,
2.204,0.05,-0.66,0.15,0.40,-0.09,0.48,
2.211,0.05,-0.66,0.15,0.39,-0.14,0.50,
2.212,0.05,-0.66,0.15,0.39,-0.17,0.52,
2.212,0.05,-0.66,0.15,0.40,-0.21,0.54,
2.215,-0.08,-0.63,1.36,0.40,-0.21,0.54,
2.216,-0.08,-0.63,1.36,0.42,-0.26,0.55,
2.216,-0.08,-0.63,1.36,0.44,-0.31,0.56,
2.223,-0.08,-0.63,1.36,0.46,-0.36,0.57,
2.224,-0.08,-0.63,1.36,0.48,-0.42,0.59,
2.225,-0.08,-0.63,1.36,0.50,-0.47,0.60,
2.226,0.68,-1.00,2.26,0.50,-0.47,0.60,
2.232,0.68,-1.00,2.26,0.51,-0.52,0.61,
2.233,0.68,-1.00,2.26,0.52,-0.56,0.62,
2.233,0.68,-1.00,2.26,0.53,-0.59,0.63,
2.233,0.68,-1.00,2.26,0.53,-0.60,0.64,
2.233,0.68,-1.00,2.26,0.53,-0.59,0.64,
2.233,1.55,-1.54,1.22,0.53,-0.59,0.64,
2.234,1.55,-1.54,1.22,0.52,-0.56,0.65,
2.246,1.55,-1.54,1.22,0.51,-0.51,0.64,
2.247,1.55,-1.54,1.22,0.50,-0.44,0.63,
2.247,1.55,-1.54,1.22,0.47,-0.38,0.60,
2.247,1.55,-1.54,1.22,0.43,-0.32,0.58,
2.247,2.26,-1.32,-0.29,0.43,-0.32,0.58,
2.247,2.26,-1.32,-0.29,0.40,-0.26,0.54,
2.248,2.26,-1.32,-0.29,0.36,-0.21,0.51,
2.248,2.26,-1.32,-0.29,0.32,-0.16,0.47,
2.276,2.26,-1.32,-0.29,0.29,-0.12,0.43,
2.277,2.26,-1.32,-0.29,0.26,-0.08,0.39,
2.277,2.29,-0.63,-0.57,0.26,-0.08,0.39,
2.277,2.29,-0.63,-0.57,0.24,-0.04,0.35,
2.278,2.29,-0.63,-0.57,0.22,0.00,0.31,
2.278,2.29,-0.63,-0.57,0.21,0.06,0.26,
2.278,2.29,-0.63,-0.57,0.22,0.10,0.23,
2.279,2.29,-0.63,-0.57,0.22,0.15,0.19,
2.279,2.39,-0.03,0.02,0.22,0.15,0.19,
2.279,2.39,-0.03,0.02,0.23,0.19,0.15,
2.279,2.39,-0.03,0.02,0.25,0.23,0.12,
2.28,2.39,-0.03,0.02,0.25,0.26,0.09,
2.28,2.39,-0.03,0.02,0.27,0.30,0.05,
2.28,2.39,-0.03,0.02,0.28,0.33,0.02,
2.281,1.93,0.37,0.10,0.28,0.33,0.02,
2.281,1.93,0.37,0.10,0.29,0.34,-0.03,
2.281,1.93,0.37,0.10,0.30,0.34,-0.07,
2.281,1.93,0.37,0.10,0.29,0.30,-0.10,
2.289,1.93,0.37,0.10,0.27,0.27,-0.11,
2.292,1.93,0.37,0.10,0.28,0.30,-0.14,
2.293,1.26,0.47,-0.19,0.28,0.30,-0.14,
2.294,1.26,0.47,-0.19,0.30,0.34,-0.18,
2.294,1.26,0.47,-0.19,0.30,0.32,-0.20,
2.295,1.26,0.47,-0.19,0.29,0.32,-0.21,
2.295,1.26,0.47,-0.19,0.29,0.33,-0.20,
2.296,1.26,0.47,-0.19,0.28,0.33,-0.20,
2.296,-0.35,0.47,-0.54,0.28,0.33,-0.20,
2.297,-0.35,0.47,-0.54,0.27,0.32,-0.18,
2.298,-0.35,0.47,-0.54,0.26,0.31,-0.17,
2.298,-0.35,0.47,-0.54,0.24,0.31,-0.15,
2.299,-0.35,0.47,-0.54,0.22,0.29,-0.12,
2.302,-0.35,0.47,-0.54,0.19,0.27,-0.09,
2.303,-1.77,0.93,-0.95,0.19,0.27,-0.09,
2.303,-1.77,0.93,-0.95,0.18,0.27,-0.07,
2.305,-1.77,0.93,-0.95,0.17,0.28,-0.05,
2.306,-1.77,0.93,-0.95,0.17,0.30,-0.02,
2.309,-1.77,0.93,-0.95,0.18,0.32,-0.00,
2.31,-1.77,0.93,-0.95,0.19,0.34,0.02,
2.313,-1.67,0.95,0.03,0.19,0.34,0.02,
2.313,-1.67,0.95,0.03,0.20,0.34,0.04,
2.315,-1.67,0.95,0.03,0.21,0.33,0.07,
2.318,-1.67,0.95,0.03,0.22,0.32,0.09,
2.319,-1.67,0.95,0.03,0.23,0.30,0.11,
2.321,-1.67,0.95,0.03,0.25,0.29,0.12,
2.323,-1.05,1.00,0.27,0.25,0.29,0.12,
2.324,-1.05,1.00,0.27,0.26,0.28,0.13,
2.325,-1.05,1.00,0.27,0.27,0.28,0.13,
2.326,-1.05,1.00,0.27,0.28,0.28,0.13,
2.328,-1.05,1.00,0.27,0.28,0.28,0.13,
2.357,-1.05,1.00,0.27,0.29,0.28,0.13,
2.358,-0.46,1.07,0.12,0.29,0.28,0.13,
2.358,-0.46,1.07,0.12,0.29,0.28,0.13,
2.359,-0.46,1.07,0.12,0.29,0.27,0.13,
2.359,-0.46,1.07,0.12,0.29,0.24,0.13,
2.359,-0.46,1.07,0.12,0.28,0.23,0.14,
2.36,-0.46,1.07,0.12,0.28,0.23,0.14,
2.36,-0.72,1.34,-0.48,0.28,0.23,0.14,
2.361,-0.72,1.34,-0.48,0.28,0.23,0.15,
2.361,-0.72,1.34,-0.48,0.28,0.23,0.16,
2.362,-0.72,1.34,-0.48,0.28,0.24,0.18,
2.362,-0.72,1.34,-0.48,0.28,0.25,0.19,
2.362,-0.72,1.34,-0.48,0.28,0.26,0.20,
2.363,-1.38,1.67,-0.57,0.28,0.26,0.20,
2.363,-1.38,1.67,-0.57,0.28,0.27,0.21,
2.364,-1.38,1.67,-0.57,0.29,0.28,0.22,
2.364,-1.38,1.67,-0.57,0.29,0.28,0.24,
2.365,-1.38,1.67,-0.57,0.29,0.28,0.24,
2.365,-1.38,1.67,-0.57,0.29,0.28,0.25,
2.365,-1.59,2.02,-0.54,0.29,0.28,0.25,
2.366,-1.59,2.02,-0.54,0.29,0.28,0.25,
2.366,-1.59,2.02,-0.54,0.29,0.27,0.25,
2.377,-1.59,2.02,-0.54,0.28,0.27,0.25,
2.378,-1.59,2.02,-0.54,0.28,0.26,0.24,
2.378,-1.59,2.02,-0.54,0.28,0.26,0.24,
2.378,-1.63,2.06,-0.49,0.28,0.26,0.24,
2.378,-1.63,2.06,-0.49,0.27,0.25,0.24,
2.379,-1.63,2.06,-0.49,0.26,0.24,0.23,
2.379,-1.63,2.06,-0.49,0.25,0.24,0.22,
2.383,-1.63,2.06,-0.49,0.25,0.23,0.21,
2.383,-1.63,2.06,-0.49,0.25,0.23,0.20,
2.384,-1.48,2.12,-0.21,0.25,0.23,0.20,
2.384,-1.48,2.12,-0.21,0.25,0.23,0.20,
2.411,-1.48,2.12,-0.21,0.26,0.23,0.19,
2.414,-1.48,2.12,-0.21,0.27,0.24,0.19,
2.415,-1.48,2.12,-0.21,0.28,0.24,0.19,
2.415,-1.48,2.12,-0.21,0.30,0.25,0.20,
2.417,-1.36,1.66,0.37,0.30,0.25,0.20,
2.418,-1.36,1.66,0.37,0.31,0.25,0.21,
2.42,-1.36,1.66,0.37,0.31,0.25,0.22,
2.422,-1.36,1.66,0.37,0.32,0.24,0.25,
2.422,-1.36,1.66,0.37,0.32,0.24,0.26,
2.423,-1.36,1.66,0.37,0.32,0.21,0.29,
2.423,-1.51,1.30,0.37,0.32,0.21,0.29,
2.424,-1.51,1.30,0.37,0.32,0.19,0.32,
2.427,-1.51,1.30,0.37,0.32,0.18,0.33,
2.428,-1.51,1.30,0.37,0.32,0.15,0.36,
2.429,-1.51,1.30,0.37,0.32,0.14,0.37,
2.43,-1.51,1.30,0.37,0.32,0.11,0.40,
2.43,-1.35,1.29,0.31,0.32,0.11,0.40,
2.431,-1.35,1.29,0.31,0.33,0.09,0.41,
2.431,-1.35,1.29,0.31,0.33,0.06,0.42,
2.432,-1.35,1.29,0.31,0.32,0.02,0.44,
2.433,-1.35,1.29,0.31,0.33,-0.00,0.45,
2.437,-1.35,1.29,0.31,0.33,-0.02,0.46,
2.438,-1.34,1.44,0.32,0.33,-0.02,0.46,
2.438,-1.34,1.44,0.32,0.34,-0.04,0.46,
2.439,-1.34,1.44,0.32,0.35,-0.05,0.47,
2.439,-1.34,1.44,0.32,0.35,-0.07,0.47,
2.439,-1.34,1.44,0.32,0.36,-0.08,0.48,
2.44,-1.34,1.44,0.32,0.36,-0.10,0.49,
2.441,-1.37,1.68,0.07,0.36,-0.10,0.49,
2.441,-1.37,1.68,0.07,0.35,-0.13,0.51,
2.442,-1.37,1.68,0.07,0.33,-0.19,0.55,
2.442,-1.37,1.68,0.07,0.30,-0.25,0.59,
2.443,-1.37,1.68,0.07,0.28,-0.28,0.62,
2.444,-1.37,1.68,0.07,0.26,-0.30,0.64,
2.444,-2.56,2.14,-1.13,0.26,-0.30,0.64,
2.445,-2.56,2.14,-1.13,0.24,-0.32,0.66,
2.445,-2.56,2.14,-1.13,0.22,-0.34,0.68,
2.451,-2.56,2.14,-1.13,0.21,-0.34,0.70,
2.452,-2.56,2.14,-1.13,0.19,-0.34,0.72,
2.453,-2.56,2.14,-1.13,0.18,-0.32,0.72,
2.454,-1.84,1.81,-1.08,0.18,-0.32,0.72,
2.455,-1.84,1.81,-1.08,0.17,-0.30,0.71,
2.457,-1.84,1.81,-1.08,0.16,-0.28,0.71,
2.458,-1.84,1.81,-1.08,0.16,-0.27,0.71,
2.462,-1.84,1.81,-1.08,0.16,-0.28,0.72,
2.463,-1.84,1.81,-1.08,0.16,-0.30,0.74,
2.465,-1.43,1.51,-0.75,0.16,-0.30,0.74,
2.466,-1.43,1.51,-0.75,0.17,-0.31,0.74,
2.466,-1.43,1.51,-0.75,0.19,-0.28,0.72,
2.469,-1.43,1.51,-0.75,0.22,-0.24,0.67,
2.47,-1.43,1.51,-0.75,0.23,-0.28,0.68,
2.473,-1.43,1.51,-0.75,0.23,-0.34,0.72,
2.475,-0.94,1.16,-0.57,0.23,-0.34,0.72,
2.475,-0.94,1.16,-0.57,0.23,-0.40,0.76,
2.476,-0.94,1.16,-0.57,0.24,-0.45,0.79,
2.477,-0.94,1.16,-0.57,0.24,-0.51,0.84,
2.479,-0.94,1.16,-0.57,0.24,-0.58,0.91,
2.494,-0.94,1.16,-0.57,0.23,-0.62,0.96,
2.495,-2.81,1.45,-0.87,0.23,-0.62,0.96,
2.498,-2.81,1.45,-0.87,0.23,-0.63,0.99,
2.499,-2.81,1.45,-0.87,0.24,-0.63,0.98,
2.499,-2.81,1.45,-0.87,0.25,-0.64,0.96,
2.499,-2.81,1.45,-0.87,0.26,-0.66,0.94,
2.5,-2.81,1.45,-0.87,0.28,-0.68,0.92,
2.5,0.25,0.24,-0.55,0.28,-0.68,0.92,
2.5,0.25,0.24,-0.55,0.30,-0.69,0.91,
2.501,0.25,0.24,-0.55,0.32,-0.70,0.89,
2.529,0.25,0.24,-0.55,0.34,-0.71,0.86,
2.529,0.25,0.24,-0.55,0.36,-0.73,0.84,
2.53,0.25,0.24,-0.55,0.39,-0.75,0.82,
2.53,1.14,-0.84,0.17,0.39,-0.75,0.82,
2.531,1.14,-0.84,0.17,0.40,-0.80,0.79,
2.531,1.14,-0.84,0.17,0.41,-0.86,0.77,
2.532,1.14,-0.84,0.17,0.42,-0.90,0.76,
2.532,1.14,-0.84,0.17,0.44,-0.92,0.75,
2.533,1.14,-0.84,0.17,0.45,-0.92,0.74,
2.533,0.85,-1.11,0.68,0.45,-0.92,0.74,
2.533,0.85,-1.11,0.68,0.46,-0.91,0.73,
2.534,0.85,-1.11,0.68,0.47,-0.90,0.71,
2.534,0.85,-1.11,0.68,0.47,-0.89,0.70,
2.535,0.85,-1.11,0.68,0.48,-0.89,0.70,
2.535,0.85,-1.11,0.68,0.48,-0.88,0.69,
2.535,0.54,-0.58,0.53,0.48,-0.88,0.69,
2.536,0.54,-0.58,0.53,0.47,-0.86,0.68,
2.536,0.54,-0.58,0.53,0.46,-0.82,0.69,
2.537,0.54,-0.58,0.53,0.46,-0.78,0.69,
2.537,0.54,-0.58,0.53,0.46,-0.74,0.69,
2.537,0.54,-0.58,0.53,0.45,-0.70,0.69,
2.538,0.92,-1.01,0.24,0.45,-0.70,0.69,
2.538,0.92,-1.01,0.24,0.44,-0.66,0.69,
2.539,0.92,-1.01,0.24,0.43,-0.61,0.68,
2.539,0.92,-1.01,0.24,0.41,-0.55,0.67,
2.54,0.92,-1.01,0.24,0.39,-0.49,0.66,
2.542,0.92,-1.01,0.24,0.36,-0.42,0.64,
2.543,2.29,-2.47,-0.60,0.36,-0.42,0.64,
2.543,2.29,-2.47,-0.60,0.34,-0.36,0.62,
2.545,2.29,-2.47,-0.60,0.31,-0.32,0.60,
2.546,2.29,-2.47,-0.60,0.28,-0.27,0.58,
2.557,2.29,-2.47,-0.60,0.25,-0.22,0.56,
2.558,2.29,-2.47,-0.60,0.23,-0.17,0.55,
2.558,2.17,-3.00,-0.93,0.23,-0.17,0.55,
2.558,2.17,-3.00,-0.93,0.21,-0.13,0.53,
2.558,2.17,-3.00,-0.93,0.20,-0.09,0.52,
2.559,2.17,-3.00,-0.93,0.20,-0.07,0.50,
2.559,2.17,-3.00,-0.93,0.20,-0.07,0.49,
2.562,2.17,-3.00,-0.93,0.20,-0.08,0.47,
2.563,1.08,-2.08,-0.04,0.20,-0.08,0.47,
2.563,1.08,-2.08,-0.04,0.21,-0.11,0.45,
2.57,1.08,-2.08,-0.04,0.23,-0.15,0.43,
2.571,1.08,-2.08,-0.04,0.25,-0.20,0.41,
2.572,1.08,-2.08,-0.04,0.27,-0.24,0.39,
2.572,1.08,-2.08,-0.04,0.29,-0.27,0.36,
2.573,0.98,-1.83,0.40,0.29,-0.27,0.36,
2.573,0.98,-1.83,0.40,0.30,-0.30,0.34,
2.574,0.98,-1.83,0.40,0.32,-0.33,0.32,
2.576,0.98,-1.83,0.40,0.34,-0.34,0.29,
2.579,0.98,-1.83,0.40,0.35,-0.35,0.27,
2.581,0.98,-1.83,0.40,0.35,-0.33,0.26,
2.583,0.23,-1.45,-0.12,0.35,-0.33,0.26,
2.583,0.23,-1.45,-0.12,0.35,-0.31,0.26,
2.585,0.23,-1.45,-0.12,0.33,-0.28,0.27,
2.587,0.23,-1.45,-0.12,0.31,-0.23,0.28,
2.589,0.23,-1.45,-0.12,0.28,-0.19,0.31,
2.591,0.23,-1.45,-0.12,0.25,-0.16,0.33,
2.593,-1.60,-0.27,-0.93,0.25,-0.16,0.33,
2.595,-1.60,-0.27,-0.93,0.22,-0.14,0.37,
2.596,-1.60,-0.27,-0.93,0.20,-0.13,0.41,
2.598,-1.60,-0.27,-0.93,0.18,-0.14,0.45,
2.603,-1.60,-0.27,-0.93,0.16,-0.16,0.48,
2.605,-1.96,-0.09,0.10,0.16,-0.16,0.48,
2.606,-1.96,-0.09,0.10,0.16,-0.17,0.54,
2.606,-1.96,-0.09,0.10,0.16,-0.17,0.54,
2.607,-1.96,-0.09,0.10,0.16,-0.17,0.56,
2.607,-1.96,-0.09,0.10,0.16,-0.17,0.58,
2.609,-1.96,-0.09,0.10,0.16,-0.17,0.61,
2.611,-1.96,-0.09,0.10,0.16,-0.16,0.63,
2.615,-1.00,-0.69,0.19,0.16,-0.16,0.63,
2.615,-1.00,-0.69,0.19,0.14,-0.16,0.65,
2.615,-1.00,-0.69,0.19,0.13,-0.15,0.67,
2.623,-1.00,-0.69,0.19,0.13,-0.15,0.68,
2.625,-1.00,-0.69,0.19,0.12,-0.14,0.68,
2.625,-1.00,-0.69,0.19,0.11,-0.13,0.68,
2.625,0.09,-0.79,-0.04,0.11,-0.13,0.68,
2.625,0.09,-0.79,-0.04,0.10,-0.13,0.67,
2.626,0.09,-0.79,-0.04,0.09,-0.12,0.67,
2.629,0.09,-0.79,-0.04,0.09,-0.11,0.67,
2.629,0.09,-0.79,-0.04,0.09,-0.11,0.66,
2.655,0.09,-0.79,-0.04,0.09,-0.11,0.64,
2.656,1.04,-0.68,-0.07,0.09,-0.11,0.64,
2.657,1.04,-0.68,-0.07,0.09,-0.12,0.64,
2.657,1.04,-0.68,-0.07,0.09,-0.13,0.63,
2.657,1.04,-0.68,-0.07,0.08,-0.15,0.64,
2.658,1.04,-0.68,-0.07,0.07,-0.16,0.66,
2.658,1.04,-0.68,-0.07,0.06,-0.16,0.68,
2.658,0.40,-0.37,-0.23,0.06,-0.16,0.68,
2.658,0.40,-0.37,-0.23,0.04,-0.16,0.70,
2.659,0.40,-0.37,-0.23,0.02,-0.15,0.72,
2.659,0.40,-0.37,-0.23,0.00,-0.15,0.74,
2.659,0.40,-0.37,-0.23,-0.02,-0.15,0.77,
2.66,0.40,-0.37,-0.23,-0.04,-0.15,0.81,
2.66,-0.43,-0.21,-0.55,-0.04,-0.15,0.81,
2.66,-0.43,-0.21,-0.55,-0.06,-0.17,0.84,
2.66,-0.43,-0.21,-0.55,-0.08,-0.17,0.87,
2.661,-0.43,-0.21,-0.55,-0.09,-0.18,0.90,
2.661,-0.43,-0.21,-0.55,-0.10,-0.20,0.94,
2.662,-0.43,-0.21,-0.55,-0.11,-0.22,0.98,
2.667,-1.12,-0.39,-0.28,-0.11,-0.22,0.98,
2.706,-1.12,-0.39,-0.28,-0.12,-0.24,1.03,
2.706,-1.12,-0.39,-0.28,-0.12,-0.26,1.07,
2.707,-1.12,-0.39,-0.28,-0.11,-0.28,1.10,
2.707,-1.12,-0.39,-0.28,-0.10,-0.29,1.13,
2.708,-1.12,-0.39,-0.28,-0.08,-0.30,1.15,
2.708,-1.20,-0.33,0.66,-0.08,-0.30,1.15,
2.709,-1.20,-0.33,0.66,-0.06,-0.33,1.15,
2.709,-1.20,-0.33,0.66,-0.04,-0.36,1.15,
2.71,-1.20,-0.33,0.66,0.00,-0.41,1.15,
2.71,-1.20,-0.33,0.66,0.04,-0.46,1.14,
2.711,-1.20,-0.33,0.66,0.08,-0.52,1.13,
2.711,0.27,-0.68,1.61,0.08,-0.52,1.13,
2.712,0.27,-0.68,1.61,0.12,-0.59,1.11,
2.712,0.27,-0.68,1.61,0.15,-0.65,1.09,
2.715,0.27,-0.68,1.61,0.19,-0.70,1.08,
2.716,0.27,-0.68,1.61,0.22,-0.75,1.05,
2.716,0.27,-0.68,1.61,0.24,-0.78,1.03,
2.717,1.25,-0.39,0.84,0.24,-0.78,1.03,
2.717,1.25,-0.39,0.84,0.26,-0.81,1.00,
2.718,1.25,-0.39,0.84,0.28,-0.82,0.96,
2.718,1.25,-0.39,0.84,0.28,-0.83,0.93,
2.718,1.25,-0.39,0.84,0.28,-0.82,0.90,
2.719,1.25,-0.39,0.84,0.27,-0.80,0.89,
2.719,1.41,0.16,-0.54,0.27,-0.80,0.89,
2.72,1.41,0.16,-0.54,0.24,-0.78,0.89,
2.72,1.41,0.16,-0.54,0.21,-0.74,0.90,
2.721,1.41,0.16,-0.54,0.16,-0.68,0.91,
2.721,1.41,0.16,-0.54,0.11,-0.61,0.93,
2.721,1.41,0.16,-0.54,0.05,-0.52,0.97,
2.722,-0.72,0.06,-1.68,0.05,-0.52,0.97,
2.722,-0.72,0.06,-1.68,-0.01,-0.43,1.01,
2.723,-0.72,0.06,-1.68,-0.08,-0.35,1.05,
2.723,-0.72,0.06,-1.68,-0.14,-0.28,1.10,
2.723,-0.72,0.06,-1.68,-0.20,-0.21,1.15,
2.724,-0.72,0.06,-1.68,-0.26,-0.13,1.20,
2.724,-1.68,-0.46,-1.85,-0.26,-0.13,1.20,
2.725,-1.68,-0.46,-1.85,-0.32,-0.00,1.24,
2.725,-1.68,-0.46,-1.85,-0.39,0.18,1.26,
2.73,-1.68,-0.46,-1.85,-0.46,0.29,1.31,
2.731,-1.68,-0.46,-1.85,-0.52,0.36,1.37,
2.731,-1.68,-0.46,-1.85,-0.56,0.42,1.45,
2.735,-3.66,-0.49,-2.34,-0.56,0.42,1.45,
2.736,-3.66,-0.49,-2.34,-0.59,0.41,1.54,
2.736,-3.66,-0.49,-2.34,-0.60,0.35,1.63,
2.737,-3.66,-0.49,-2.34,-0.59,0.26,1.72,
2.74,-3.66,-0.49,-2.34,-0.57,0.16,1.78,
2.741,-3.66,-0.49,-2.34,-0.53,0.08,1.82,
2.743,-4.38,0.45,0.54,-0.53,0.08,1.82,
2.744,-4.38,0.45,0.54,-0.48,0.02,1.85,
2.745,-4.38,0.45,0.54,-0.43,-0.03,1.87,
2.752,-4.38,0.45,0.54,-0.37,-0.06,1.90,
2.754,-4.38,0.45,0.54,-0.32,-0.10,1.92,
2.755,-4.38,0.45,0.54,-0.27,-0.15,1.97,
2.76,-3.38,0.13,0.91,-0.27,-0.15,1.97,
2.761,-3.38,0.13,0.91,-0.23,-0.18,2.03,
2.762,-3.38,0.13,0.91,-0.18,-0.21,2.10,
2.763,-3.38,0.13,0.91,-0.14,-0.23,2.15,
2.773,-3.38,0.13,0.91,-0.11,-0.26,2.19,
2.774,-3.38,0.13,0.91,-0.08,-0.31,2.20,
2.774,-2.54,-0.06,0.68,-0.08,-0.31,2.20,
2.775,-2.54,-0.06,0.68,-0.06,-0.36,2.19,
2.775,-2.54,-0.06,0.68,-0.04,-0.39,2.17,
2.776,-2.54,-0.06,0.68,-0.01,-0.39,2.11,
2.776,-2.54,-0.06,0.68,0.01,-0.41,2.03,
2.777,-2.54,-0.06,0.68,0.03,-0.43,1.95,
2.777,1.19,0.41,0.06,0.03,-0.43,1.95,
2.777,1.19,0.41,0.06,0.05,-0.44,1.88,
2.778,1.19,0.41,0.06,0.06,-0.46,1.82,
2.779,1.19,0.41,0.06,0.08,-0.47,1.77,
2.779,1.19,0.41,0.06,0.10,-0.48,1.73,
2.793,1.19,0.41,0.06,0.13,-0.48,1.69,
2.795,2.06,1.55,0.49,0.13,-0.48,1.69,
2.796,2.06,1.55,0.49,0.15,-0.50,1.64,
2.796,2.06,1.55,0.49,0.17,-0.51,1.60,
2.797,2.06,1.55,0.49,0.18,-0.53,1.55,
2.797,2.06,1.55,0.49,0.19,-0.54,1.48,
2.798,2.06,1.55,0.49,0.20,-0.54,1.39,
2.799,4.55,1.55,0.69,0.20,-0.54,1.39,
2.799,4.55,1.55,0.69,0.21,-0.51,1.28,
2.802,4.55,1.55,0.69,0.21,-0.50,1.19,
2.803,4.55,1.55,0.69,0.21,-0.48,1.10,
2.809,4.55,1.55,0.69,0.21,-0.45,1.03,
2.81,4.55,1.55,0.69,0.21,-0.40,0.94,
2.81,6.17,1.72,0.07,0.21,-0.40,0.94,
2.811,6.17,1.72,0.07,0.21,-0.38,0.88,
2.811,6.17,1.72,0.07,0.19,-0.36,0.83,
2.811,6.17,1.72,0.07,0.17,-0.32,0.79,
2.812,6.17,1.72,0.07,0.15,-0.29,0.75,
2.812,6.17,1.72,0.07,0.12,-0.26,0.71,
2.825,4.80,1.02,-0.54,0.12,-0.26,0.71,
2.828,4.80,1.02,-0.54,0.08,-0.21,0.67,
2.83,4.80,1.02,-0.54,0.03,-0.16,0.63,
2.83,4.80,1.02,-0.54,-0.01,-0.12,0.60,
2.831,4.80,1.02,-0.54,-0.06,-0.07,0.58,
2.831,4.80,1.02,-0.54,-0.10,-0.04,0.57,
2.833,3.41,0.49,-0.70,-0.10,-0.04,0.57,
2.834,3.41,0.49,-0.70,-0.14,-0.04,0.56,
2.835,3.41,0.49,-0.70,-0.17,-0.06,0.56,
2.836,3.41,0.49,-0.70,-0.19,-0.10,0.56,
2.837,3.41,0.49,-0.70,-0.22,-0.17,0.57,
2.878,3.41,0.49,-0.70,-0.23,-0.22,0.58,
2.879,1.46,-0.14,-0.26,-0.23,-0.22,0.58,
2.879,1.46,-0.14,-0.26,-0.25,-0.26,0.59,
2.88,1.46,-0.14,-0.26,-0.26,-0.29,0.60,
2.88,1.46,-0.14,-0.26,-0.28,-0.31,0.61,
2.881,1.46,-0.14,-0.26,-0.30,-0.32,0.63,
2.881,1.46,-0.14,-0.26,-0.32,-0.33,0.64,
2.882,-0.57,-0.04,-0.04,-0.32,-0.33,0.64,
2.882,-0.57,-0.04,-0.04,-0.35,-0.33,0.66,
2.883,-0.57,-0.04,-0.04,-0.38,-0.34,0.69,
2.884,-0.57,-0.04,-0.04,-0.42,-0.34,0.73,
2.887,-0.57,-0.04,-0.04,-0.45,-0.35,0.77,
2.887,-0.57,-0.04,-0.04,-0.48,-0.34,0.81,
2.888,-1.51,-0.30,-0.37,-0.48,-0.34,0.81,
2.888,-1.51,-0.30,-0.37,-0.51,-0.33,0.85,
2.889,-1.51,-0.30,-0.37,-0.55,-0.32,0.89,
2.889,-1.51,-0.30,-0.37,-0.60,-0.32,0.94,
2.889,-1.51,-0.30,-0.37,-0.64,-0.33,0.99,
2.89,-1.51,-0.30,-0.37,-0.68,-0.34,1.04,
2.89,-2.15,-0.56,-0.42,-0.68,-0.34,1.04,
2.891,-2.15,-0.56,-0.42,-0.71,-0.36,1.08,
2.891,-2.15,-0.56,-0.42,-0.73,-0.39,1.13,
2.891,-2.15,-0.56,-0.42,-0.75,-0.43,1.18,
2.892,-2.15,-0.56,-0.42,-0.76,-0.47,1.22,
2.892,-2.15,-0.56,-0.42,-0.75,-0.53,1.26,
2.892,-1.96,-0.41,0.36,-0.75,-0.53,1.26,
2.893,-1.96,-0.41,0.36,-0.75,-0.60,1.30,
2.893,-1.96,-0.41,0.36,-0.73,-0.64,1.33,
2.894,-1.96,-0.41,0.36,-0.71,-0.69,1.35,
2.894,-1.96,-0.41,0.36,-0.69,-0.74,1.35,
2.895,-1.96,-0.41,0.36,-0.68,-0.77,1.35,
2.895,-0.52,-0.21,0.54,-0.68,-0.77,1.35,
2.895,-0.52,-0.21,0.54,-0.68,-0.81,1.33,
2.896,-0.52,-0.21,0.54,-0.68,-0.84,1.31,
2.896,-0.52,-0.21,0.54,-0.69,-0.89,1.27,
2.896,-0.52,-0.21,0.54,-0.70,-0.93,1.23,
2.897,-0.52,-0.21,0.54,-0.70,-0.96,1.19,
2.897,0.71,-0.28,0.40,-0.70,-0.96,1.19,
2.903,0.71,-0.28,0.40,-0.71,-0.96,1.14,
2.905,0.71,-0.28,0.40,-0.72,-0.95,1.10,
2.906,0.71,-0.28,0.40,-0.72,-0.94,1.06,
2.906,0.71,-0.28,0.40,-0.73,-0.94,1.04,
2.907,0.71,-0.28,0.40,-0.73,-0.94,1.01,
2.907,0.89,-0.21,0.19,-0.73,-0.94,1.01,
2.907,0.89,-0.21,0.19,-0.72,-0.94,1.01,
2.908,0.89,-0.21,0.19,-0.72,-0.96,1.01,
2.911,0.89,-0.21,0.19,-0.73,-0.97,1.01,
2.911,0.89,-0.21,0.19,-0.73,-1.00,1.03,
2.911,0.89,-0.21,0.19,-0.73,-1.02,1.05,
2.916,-0.38,-0.46,-0.08,-0.73,-1.02,1.05,
2.917,-0.38,-0.46,-0.08,-0.73,-1.03,1.07,
2.917,-0.38,-0.46,-0.08,-0.74,-1.05,1.09,
2.917,-0.38,-0.46,-0.08,-0.75,-1.07,1.10,
2.921,-0.38,-0.46,-0.08,-0.74,-1.07,1.10,
2.921,-0.38,-0.46,-0.08,-0.74,-1.07,1.09,
2.923,-0.30,-0.62,-0.19,-0.74,-1.07,1.09,
2.924,-0.30,-0.62,-0.19,-0.74,-1.08,1.09,
2.925,-0.30,-0.62,-0.19,-0.75,-1.11,1.08,
2.927,-0.30,-0.62,-0.19,-0.77,-1.15,1.07,
2.932,-0.30,-0.62,-0.19,-0.77,-1.18,1.07,
2.933,-0.30,-0.62,-0.19,-0.78,-1.20,1.05,
2.939,-0.18,-0.32,0.04,-0.78,-1.20,1.05,
2.939,-0.18,-0.32,0.04,-0.79,-1.24,1.03,
2.94,-0.18,-0.32,0.04,-0.80,-1.28,1.01,
2.94,-0.18,-0.32,0.04,-0.80,-1.31,0.98,
2.94,-0.18,-0.32,0.04,-0.80,-1.33,0.97,
2.94,-0.18,-0.32,0.04,-0.80,-1.35,0.96,
2.943,-0.17,-0.16,0.16,-0.80,-1.35,0.96,
2.945,-0.17,-0.16,0.16,-0.81,-1.36,0.96,
2.946,-0.17,-0.16,0.16,-0.81,-1.38,0.95,
2.947,-0.17,-0.16,0.16,-0.81,-1.40,0.95,
2.961,-0.17,-0.16,0.16,-0.82,-1.42,0.93,
2.963,-0.17,-0.16,0.16,-0.83,-1.43,0.91,
2.964,0.24,0.06,-0.08,-0.83,-1.43,0.91,
2.964,0.24,0.06,-0.08,-0.84,-1.43,0.90,
2.966,0.24,0.06,-0.08,-0.86,-1.43,0.88,
2.966,0.24,0.06,-0.08,-0.89,-1.41,0.87,
2.967,0.24,0.06,-0.08,-0.92,-1.37,0.84,
2.968,0.24,0.06,-0.08,-0.95,-1.29,0.82,
2.971,1.06,0.25,-0.98,-0.95,-1.29,0.82,
2.971,1.06,0.25,-0.98,-0.97,-1.20,0.79,
2.971,1.06,0.25,-0.98,-0.99,-1.11,0.76,
2.971,1.06,0.25,-0.98,-1.00,-1.02,0.73,
2.972,1.06,0.25,-0.98,-1.01,-0.92,0.70,
2.976,1.06,0.25,-0.98,-1.01,-0.82,0.68,
2.981,1.02,0.10,-1.10,-1.01,-0.82,0.68,
2.981,1.02,0.10,-1.10,-1.01,-0.74,0.66,
2.982,1.02,0.10,-1.10,-1.00,-0.67,0.65,
2.982,1.02,0.10,-1.10,-0.99,-0.63,0.65,
2.982,1.02,0.10,-1.10,-0.99,-0.60,0.66,
2.983,1.02,0.10,-1.10,-0.97,-0.58,0.67,
2.999,-0.51,0.22,-0.53,-0.97,-0.58,0.67,
3.003,-0.51,0.22,-0.53,-0.95,-0.57,0.67,
3.004,-0.51,0.22,-0.53,-0.92,-0.55,0.67,
3.005,-0.51,0.22,-0.53,-0.89,-0.53,0.67,
3.006,-0.51,0.22,-0.53,-0.85,-0.51,0.65,
3.007,-0.51,0.22,-0.53,-0.82,-0.50,0.62,
3.008,1.08,-0.05,-0.02,-0.82,-0.50,0.62,
3.009,1.08,-0.05,-0.02,-0.78,-0.48,0.59,
3.01,1.08,-0.05,-0.02,-0.75,-0.46,0.55,
3.05,1.08,-0.05,-0.02,-0.71,-0.46,0.52,
3.051,1.08,-0.05,-0.02,-0.68,-0.45,0.50,
3.051,1.08,-0.05,-0.02,-0.65,-0.44,0.47,
3.052,1.26,-0.16,0.10,-0.65,-0.44,0.47,
3.052,1.26,-0.16,0.10,-0.62,-0.43,0.45,
3.053,1.26,-0.16,0.10,-0.59,-0.41,0.43,
3.053,1.26,-0.16,0.10,-0.56,-0.38,0.42,
3.053,1.26,-0.16,0.10,-0.53,-0.39,0.43,
3.054,1.26,-0.16,0.10,-0.50,-0.42,0.45,
3.054,-1.02,-0.62,-0.06,-0.50,-0.42,0.45,
3.055,-1.02,-0.62,-0.06,-0.46,-0.47,0.48,
3.055,-1.02,-0.62,-0.06,-0.42,-0.50,0.52,
3.056,-1.02,-0.62,-0.06,-0.37,-0.51,0.55,
3.056,-1.02,-0.62,-0.06,-0.33,-0.54,0.57,
3.056,-1.02,-0.62,-0.06,-0.30,-0.55,0.59,
3.057,-1.85,0.33,0.40,-0.30,-0.55,0.59,
3.057,-1.85,0.33,0.40,-0.27,-0.57,0.59,
3.058,-1.85,0.33,0.40,-0.24,-0.58,0.59,
3.058,-1.85,0.33,0.40,-0.21,-0.59,0.58,
3.058,-1.85,0.33,0.40,-0.19,-0.60,0.57,
3.059,-1.85,0.33,0.40,-0.18,-0.59,0.57,
3.059,-0.12,0.19,-0.06,-0.18,-0.59,0.57,
3.06,-0.12,0.19,-0.06,-0.16,-0.59,0.57,
3.06,-0.12,0.19,-0.06,-0.14,-0.59,0.58,
3.06,-0.12,0.19,-0.06,-0.12,-0.58,0.59,
3.061,-0.12,0.19,-0.06,-0.11,-0.57,0.61,
3.061,-0.12,0.19,-0.06,-0.10,-0.58,0.64,
3.062,-0.75,0.47,-0.23,-0.10,-0.58,0.64,
3.062,-0.75,0.47,-0.23,-0.09,-0.59,0.66,
3.062,-0.75,0.47,-0.23,-0.08,-0.59,0.69,
3.063,-0.75,0.47,-0.23,-0.08,-0.58,0.72,
3.063,-0.75,0.47,-0.23,-0.08,-0.55,0.77,
3.064,-0.75,0.47,-0.23,-0.09,-0.51,0.84,
3.064,-2.11,0.32,-0.60,-0.09,-0.51,0.84,
3.064,-2.11,0.32,-0.60,-0.10,-0.47,0.90,
3.065,-2.11,0.32,-0.60,-0.10,-0.43,0.95,
3.065,-2.11,0.32,-0.60,-0.11,-0.39,1.00,
3.066,-2.11,0.32,-0.60,-0.11,-0.36,1.03,
3.066,-2.11,0.32,-0.60,-0.13,-0.33,1.07,
3.066,-1.74,0.30,-0.30,-0.13,-0.33,1.07,
3.067,-1.74,0.30,-0.30,-0.13,-0.30,1.10,
3.067,-1.74,0.30,-0.30,-0.14,-0.29,1.14,
3.068,-1.74,0.30,-0.30,-0.15,-0.27,1.18,
3.074,-1.74,0.30,-0.30,-0.16,-0.25,1.22,
3.075,-1.74,0.30,-0.30,-0.16,-0.23,1.25,
3.075,-1.92,-0.04,0.03,-0.16,-0.23,1.25,
3.076,-1.92,-0.04,0.03,-0.16,-0.21,1.29,
3.076,-1.92,-0.04,0.03,-0.16,-0.20,1.32,
3.077,-1.92,-0.04,0.03,-0.16,-0.20,1.36,
3.089,-1.92,-0.04,0.03,-0.16,-0.20,1.38,
3.09,-1.92,-0.04,0.03,-0.16,-0.20,1.41,
3.091,-1.55,-0.13,0.58,-0.16,-0.20,1.41,
3.091,-1.55,-0.13,0.58,-0.15,-0.21,1.43,
3.093,-1.55,-0.13,0.58,-0.14,-0.22,1.45,
3.095,-1.55,-0.13,0.58,-0.13,-0.24,1.48,
3.096,-1.55,-0.13,0.58,-0.11,-0.26,1.50,
3.097,-1.55,-0.13,0.58,-0.09,-0.26,1.51,
3.097,-0.68,0.02,0.64,-0.09,-0.26,1.51,
3.098,-0.68,0.02,0.64,-0.07,-0.26,1.51,
3.099,-0.68,0.02,0.64,-0.05,-0.26,1.50,
3.099,-0.68,0.02,0.64,-0.02,-0.27,1.49,
3.1,-0.68,0.02,0.64,0.00,-0.30,1.47,
3.114,-0.68,0.02,0.64,0.02,-0.32,1.47,
3.117,0.71,0.45,0.34,0.02,-0.32,1.47,
3.118,0.71,0.45,0.34,0.05,-0.35,1.44,
3.118,0.71,0.45,0.34,0.06,-0.37,1.42,
3.119,0.71,0.45,0.34,0.06,-0.37,1.42,
3.12,0.71,0.45,0.34,0.06,-0.38,1.39,
3.123,0.71,0.45,0.34,0.05,-0.38,1.35,
3.123,1.65,0.64,-0.31,0.05,-0.38,1.35,
3.123,1.65,0.64,-0.31,0.04,-0.39,1.32,
3.124,1.65,0.64,-0.31,0.03,-0.41,1.28,
3.124,1.65,0.64,-0.31,0.01,-0.41,1.25,
3.124,1.65,0.64,-0.31,-0.01,-0.41,1.23,
3.125,1.65,0.64,-0.31,-0.01,-0.41,1.20,
3.125,1.81,0.59,-0.61,-0.01,-0.41,1.20,
3.125,1.81,0.59,-0.61,-0.02,-0.40,1.18,
3.126,1.81,0.59,-0.61,-0.02,-0.40,1.16,
3.13,1.81,0.59,-0.61,-0.02,-0.39,1.14,
3.131,1.81,0.59,-0.61,-0.01,-0.39,1.12,
3.131,1.81,0.59,-0.61,0.01,-0.38,1.11,
3.149,1.73,0.14,0.01,0.01,-0.38,1.11,
3.151,1.73,0.14,0.01,0.02,-0.39,1.09,
3.152,1.73,0.14,0.01,0.04,-0.39,1.07,
3.153,1.73,0.14,0.01,0.06,-0.39,1.05,
3.154,1.73,0.14,0.01,0.09,-0.38,1.03,
3.154,1.73,0.14,0.01,0.12,-0.38,1.01,
3.154,1.96,-0.17,0.59,0.12,-0.38,1.01,
3.155,1.96,-0.17,0.59,0.14,-0.37,0.99,
3.155,1.96,-0.17,0.59,0.16,-0.35,0.97,
3.155,1.96,-0.17,0.59,0.17,-0.33,0.95,
3.156,1.96,-0.17,0.59,0.17,-0.31,0.93,
3.157,1.96,-0.17,0.59,0.18,-0.30,0.91,
3.158,1.64,-0.03,0.29,0.18,-0.30,0.91,
3.16,1.64,-0.03,0.29,0.18,-0.28,0.90,
3.161,1.64,-0.03,0.29,0.17,-0.25,0.89,
3.162,1.64,-0.03,0.29,0.16,-0.22,0.89,
3.162,1.64,-0.03,0.29,0.15,-0.20,0.89,
3.163,1.64,-0.03,0.29,0.13,-0.17,0.89,
3.165,0.55,-0.04,-0.41,0.13,-0.17,0.89,
3.202,0.55,-0.04,-0.41,0.11,-0.14,0.89,
3.203,0.55,-0.04,-0.41,0.09,-0.11,0.90,
3.203,0.55,-0.04,-0.41,0.06,-0.09,0.91,
3.204,0.55,-0.04,-0.41,0.04,-0.07,0.92,
3.204,0.55,-0.04,-0.41,0.01,-0.05,0.92,
3.205,-0.20,-0.20,-0.77,0.01,-0.05,0.92,
3.205,-0.20,-0.20,-0.77,-0.02,-0.03,0.93,
3.205,-0.20,-0.20,-0.77,-0.04,-0.02,0.93,
3.206,-0.20,-0.20,-0.77,-0.07,0.01,0.93,
3.206,-0.20,-0.20,-0.77,-0.10,0.03,0.93,
3.207,-0.20,-0.20,-0.77,-0.12,0.05,0.92,
3.207,-0.30,-0.40,-0.37,-0.12,0.05,0.92,
3.208,-0.30,-0.40,-0.37,-0.14,0.07,0.92,
3.208,-0.30,-0.40,-0.37,-0.15,0.09,0.92,
3.208,-0.30,-0.40,-0.37,-0.16,0.11,0.93,
3.209,-0.30,-0.40,-0.37,-0.17,0.11,0.93,
3.209,-0.30,-0.40,-0.37,-0.17,0.12,0.92,
3.209,-0.30,-0.98,0.33,-0.17,0.12,0.92,
3.21,-0.30,-0.98,0.33,-0.17,0.13,0.90,
3.21,-0.30,-0.98,0.33,-0.17,0.13,0.87,
3.21,-0.30,-0.98,0.33,-0.18,0.12,0.84,
3.211,-0.30,-0.98,0.33,-0.18,0.11,0.80,
3.211,-0.30,-0.98,0.33,-0.18,0.11,0.76,
3.211,0.40,-1.07,0.41,-0.18,0.11,0.76,
3.212,0.40,-1.07,0.41,-0.19,0.11,0.73,
3.212,0.40,-1.07,0.41,-0.19,0.11,0.69,
3.213,0.40,-1.07,0.41,-0.19,0.10,0.65,
3.213,0.40,-1.07,0.41,-0.18,0.07,0.62,
3.213,0.40,-1.07,0.41,-0.16,0.03,0.60,
3.214,0.37,-0.64,0.00,-0.16,0.03,0.60,
3.214,0.37,-0.64,0.00,-0.13,-0.02,0.58,
3.214,0.37,-0.64,0.00,-0.09,-0.08,0.57,
3.219,0.37,-0.64,0.00,-0.04,-0.16,0.58,
3.22,0.37,-0.64,0.00,0.02,-0.24,0.58,
3.22,0.37,-0.64,0.00,0.07,-0.29,0.58,
3.225,0.70,-0.70,0.26,0.07,-0.29,0.58,
3.231,0.70,-0.70,0.26,0.12,-0.32,0.59,
3.231,0.70,-0.70,0.26,0.16,-0.32,0.60,
3.232,0.70,-0.70,0.26,0.18,-0.31,0.60,
3.232,0.70,-0.70,0.26,0.20,-0.30,0.61,
3.232,0.70,-0.70,0.26,0.20,-0.28,0.60,
3.239,0.71,-0.66,0.26,0.20,-0.28,0.60,
3.24,0.71,-0.66,0.26,0.20,-0.26,0.59,
3.24,0.71,-0.66,0.26,0.19,-0.23,0.58,
3.24,0.71,-0.66,0.26,0.17,-0.21,0.56,
3.241,0.71,-0.66,0.26,0.15,-0.19,0.53,
3.241,0.71,-0.66,0.26,0.12,-0.19,0.50,
3.244,1.05,-0.72,-0.38,0.12,-0.19,0.50,
3.272,1.05,-0.72,-0.38,0.09,-0.18,0.46,
3.273,1.05,-0.72,-0.38,0.06,-0.17,0.42,
3.273,1.05,-0.72,-0.38,0.03,-0.16,0.38,
3.273,1.05,-0.72,-0.38,-0.01,-0.15,0.34,
3.273,1.05,-0.72,-0.38,-0.03,-0.14,0.31,
3.273,1.00,-0.50,-0.62,-0.03,-0.14,0.31,
3.274,1.00,-0.50,-0.62,-0.05,-0.14,0.28,
3.274,1.00,-0.50,-0.62,-0.07,-0.14,0.26,
3.274,1.00,-0.50,-0.62,-0.08,-0.15,0.24,
3.274,1.00,-0.50,-0.62,-0.09,-0.16,0.23,
3.274,1.00,-0.50,-0.62,-0.10,-0.18,0.22,
3.274,0.75,-0.65,-0.41,-0.10,-0.18,0.22,
3.275,0.75,-0.65,-0.41,-0.10,-0.22,0.20,
3.275,0.75,-0.65,-0.41,-0.11,-0.25,0.19,
3.275,0.75,-0.65,-0.41,-0.11,-0.29,0.18,
3.275,0.75,-0.65,-0.41,-0.12,-0.32,0.16,
3.275,0.75,-0.65,-0.41,-0.12,-0.35,0.15,
3.276,0.69,-0.66,-0.44,-0.12,-0.35,0.15,
3.276,0.69,-0.66,-0.44,-0.13,-0.38,0.13,
3.276,0.69,-0.66,-0.44,-0.14,-0.40,0.11,
3.283,0.69,-0.66,-0.44,-0.14,-0.42,0.10,
3.285,0.69,-0.66,-0.44,-0.15,-0.45,0.09,
3.285,0.69,-0.66,-0.44,-0.15,-0.45,0.09,
3.285,0.31,-0.63,-0.23,-0.15,-0.45,0.09,
3.285,0.31,-0.63,-0.23,-0.16,-0.47,0.08,
3.286,0.31,-0.63,-0.23,-0.16,-0.49,0.09,
3.286,0.31,-0.63,-0.23,-0.16,-0.50,0.09,
3.289,0.31,-0.63,-0.23,-0.17,-0.51,0.10,
3.291,0.31,-0.63,-0.23,-0.17,-0.52,0.10,
3.294,-0.15,-0.78,-0.15,-0.17,-0.52,0.10,
3.295,-0.15,-0.78,-0.15,-0.18,-0.52,0.11,
3.296,-0.15,-0.78,-0.15,-0.20,-0.51,0.11,
3.297,-0.15,-0.78,-0.15,-0.21,-0.50,0.11,
3.299,-0.15,-0.78,-0.15,-0.23,-0.48,0.12,
3.301,-0.15,-0.78,-0.15,-0.25,-0.47,0.12,
3.305,-0.38,-1.15,-0.09,-0.25,-0.47,0.12,
3.305,-0.38,-1.15,-0.09,-0.27,-0.46,0.13,
3.306,-0.38,-1.15,-0.09,-0.28,-0.43,0.14,
3.306,-0.38,-1.15,-0.09,-0.30,-0.41,0.14,
3.32,-0.38,-1.15,-0.09,-0.31,-0.38,0.15,
3.321,-0.38,-1.15,-0.09,-0.31,-0.35,0.15,
3.322,-0.15,-1.04,0.19,-0.31,-0.35,0.15,
3.322,-0.15,-1.04,0.19,-0.32,-0.32,0.15,
3.323,-0.15,-1.04,0.19,-0.33,-0.29,0.15,
3.323,-0.15,-1.04,0.19,-0.34,-0.26,0.15,
3.323,-0.15,-1.04,0.19,-0.36,-0.24,0.14,
3.324,-0.15,-1.04,0.19,-0.38,-0.21,0.13,
3.347,0.23,-0.58,-0.10,-0.38,-0.21,0.13,
3.348,0.23,-0.58,-0.10,-0.41,-0.20,0.12,
3.348,0.23,-0.58,-0.10,-0.43,-0.19,0.10,
3.349,0.23,-0.58,-0.10,-0.46,-0.18,0.08,
3.349,0.23,-0.58,-0.10,-0.49,-0.17,0.06,
3.376,0.23,-0.58,-0.10,-0.51,-0.15,0.04,
3.377,0.38,-0.04,-0.43,-0.51,-0.15,0.04,
3.378,0.38,-0.04,-0.43,-0.53,-0.14,0.02,
3.379,0.38,-0.04,-0.43,-0.55,-0.14,-0.00,
3.379,0.38,-0.04,-0.43,-0.57,-0.13,-0.03,
3.38,0.38,-0.04,-0.43,-0.60,-0.10,-0.05,
3.381,0.38,-0.04,-0.43,-0.62,-0.09,-0.07,
3.381,0.43,-0.37,-0.44,-0.62,-0.09,-0.07,
3.382,0.43,-0.37,-0.44,-0.63,-0.15,-0.07,
3.382,0.43,-0.37,-0.44,-0.64,-0.21,-0.06,
3.382,0.43,-0.37,-0.44,-0.66,-0.20,-0.05,
3.382,0.43,-0.37,-0.44,-0.68,-0.17,-0.04,
3.383,0.43,-0.37,-0.44,-0.68,-0.17,-0.03,
3.383,-0.28,-0.17,0.16,-0.68,-0.17,-0.03,
3.383,-0.28,-0.17,0.16,-0.68,-0.17,-0.03,
3.383,-0.28,-0.17,0.16,-0.69,-0.13,-0.03,
3.384,-0.28,-0.17,0.16,-0.71,-0.07,-0.05,
3.384,-0.28,-0.17,0.16,-0.72,-0.03,-0.06,
3.384,-0.28,-0.17,0.16,-0.73,-0.02,-0.08,
3.384,0.03,-0.15,0.26,-0.73,-0.02,-0.08,
3.385,0.03,-0.15,0.26,-0.74,-0.01,-0.09,
3.385,0.03,-0.15,0.26,-0.75,0.02,-0.10,
3.385,0.03,-0.15,0.26,-0.75,0.04,-0.12,
3.386,0.03,-0.15,0.26,-0.74,0.05,-0.13,
3.386,0.03,-0.15,0.26,-0.72,0.06,-0.13,
3.386,-0.55,0.29,0.60,-0.72,0.06,-0.13,
3.386,-0.55,0.29,0.60,-0.69,0.07,-0.13,
3.386,-0.55,0.29,0.60,-0.65,0.06,-0.12,
3.387,-0.55,0.29,0.60,-0.61,0.05,-0.11,
3.387,-0.55,0.29,0.60,-0.57,0.02,-0.09,
3.387,-0.55,0.29,0.60,-0.54,0.02,-0.07,
3.387,-1.25,0.39,0.65,-0.54,0.02,-0.07,
3.388,-1.25,0.39,0.65,-0.51,0.02,-0.06,
3.388,-1.25,0.39,0.65,-0.47,-0.00,-0.04,
3.388,-1.25,0.39,0.65,-0.44,-0.03,-0.02,
3.388,-1.25,0.39,0.65,-0.41,-0.04,-0.01,
3.39,-1.25,0.39,0.65,-0.39,-0.05,0.01,
3.393,-1.50,0.24,0.56,-0.39,-0.05,0.01,
3.393,-1.50,0.24,0.56,-0.36,-0.07,0.02,
3.394,-1.50,0.24,0.56,-0.33,-0.10,0.03,
3.396,-1.50,0.24,0.56,-0.29,-0.13,0.03,
3.399,-1.50,0.24,0.56,-0.26,-0.15,0.03,
3.403,-1.50,0.24,0.56,-0.23,-0.16,0.02,
3.403,-0.78,0.24,0.75,-0.23,-0.16,0.02,
3.403,-0.78,0.24,0.75,-0.20,-0.19,0.02,
3.406,-0.78,0.24,0.75,-0.17,-0.23,0.02,
3.407,-0.78,0.24,0.75,-0.15,-0.24,0.02,
3.41,-0.78,0.24,0.75,-0.13,-0.24,0.03,
3.41,-0.78,0.24,0.75,-0.12,-0.25,0.04,
3.417,-0.19,0.33,0.54,-0.12,-0.25,0.04,
3.417,-0.19,0.33,0.54,-0.11,-0.27,0.05,
3.418,-0.19,0.33,0.54,-0.10,-0.28,0.06,
3.418,-0.19,0.33,0.54,-0.11,-0.27,0.07,
3.421,-0.19,0.33,0.54,-0.12,-0.25,0.08,
3.421,-0.19,0.33,0.54,-0.13,-0.23,0.08,
3.425,0.75,0.93,-0.05,-0.13,-0.23,0.08,
3.425,0.75,0.93,-0.05,-0.14,-0.21,0.08,
3.425,0.75,0.93,-0.05,-0.15,-0.18,0.08,
3.429,0.75,0.93,-0.05,-0.15,-0.16,0.08,
3.43,0.75,0.93,-0.05,-0.14,-0.14,0.08,
3.432,0.75,0.93,-0.05,-0.14,-0.12,0.06,
3.433,1.20,1.37,0.53,-0.14,-0.12,0.06,
3.433,1.20,1.37,0.53,-0.13,-0.10,0.05,
3.436,1.20,1.37,0.53,-0.11,-0.08,0.04,
3.437,1.20,1.37,0.53,-0.10,-0.06,0.02,
3.44,1.20,1.37,0.53,-0.09,-0.04,0.00,
3.441,1.20,1.37,0.53,-0.08,-0.02,-0.00,
3.446,1.31,1.17,0.59,-0.08,-0.02,-0.00,
3.447,1.31,1.17,0.59,-0.06,0.00,-0.01,
3.447,1.31,1.17,0.59,-0.05,0.03,-0.00,
3.447,1.31,1.17,0.59,-0.04,0.05,0.00,
3.451,1.31,1.17,0.59,-0.02,0.05,0.02,
3.451,1.31,1.17,0.59,0.00,0.06,0.03,
3.455,0.24,0.70,0.39,0.00,0.06,0.03,
3.455,0.24,0.70,0.39,0.02,0.05,0.04,
3.456,0.24,0.70,0.39,0.04,0.05,0.06,
3.456,0.24,0.70,0.39,0.06,0.04,0.07,
3.463,0.24,0.70,0.39,0.08,0.03,0.08,
3.463,0.24,0.70,0.39,0.10,0.03,0.10,
3.464,-0.34,0.28,0.29,0.10,0.03,0.10,
3.464,-0.34,0.28,0.29,0.12,0.02,0.12,
3.466,-0.34,0.28,0.29,0.14,0.01,0.13,
3.467,-0.34,0.28,0.29,0.16,-0.01,0.14,
3.474,-0.34,0.28,0.29,0.18,-0.02,0.15,
3.474,-0.34,0.28,0.29,0.20,-0.03,0.16,
3.497,-0.21,0.21,0.16,0.20,-0.03,0.16,
3.498,-0.21,0.21,0.16,0.21,-0.05,0.17,
3.499,-0.21,0.21,0.16,0.22,-0.06,0.18,
3.499,-0.21,0.21,0.16,0.22,-0.08,0.19,
3.499,-0.21,0.21,0.16,0.22,-0.09,0.19,
3.499,-0.21,0.21,0.16,0.21,-0.10,0.20,
3.5,-0.40,0.58,-0.47,0.21,-0.10,0.20,
3.5,-0.40,0.58,-0.47,0.20,-0.10,0.25,
3.5,-0.40,0.58,-0.47,0.19,-0.10,0.28,
3.501,-0.40,0.58,-0.47,0.18,-0.10,0.29,
3.501,-0.40,0.58,-0.47,0.18,-0.10,0.29,
3.501,-0.40,0.58,-0.47,0.19,-0.11,0.28,
3.501,0.24,0.22,0.01,0.19,-0.11,0.28,
3.502,0.24,0.22,0.01,0.19,-0.13,0.28,
3.502,0.24,0.22,0.01,0.20,-0.15,0.28,
3.537,0.24,0.22,0.01,0.21,-0.17,0.28,
3.537,0.24,0.22,0.01,0.23,-0.19,0.28,
3.538,0.24,0.22,0.01,0.25,-0.21,0.28,
3.538,0.25,-0.24,0.39,0.25,-0.21,0.28,
3.539,0.25,-0.24,0.39,0.27,-0.22,0.29,
3.539,0.25,-0.24,0.39,0.29,-0.23,0.30,
3.539,0.25,-0.24,0.39,0.31,-0.24,0.31,
3.54,0.25,-0.24,0.39,0.33,-0.25,0.31,
3.54,0.25,-0.24,0.39,0.35,-0.25,0.32,
3.541,0.11,-0.79,0.23,0.35,-0.25,0.32,
3.541,0.11,-0.79,0.23,0.37,-0.25,0.33,
3.542,0.11,-0.79,0.23,0.39,-0.24,0.34,
3.542,0.11,-0.79,0.23,0.42,-0.24,0.35,
3.542,0.11,-0.79,0.23,0.45,-0.23,0.36,
3.543,0.11,-0.79,0.23,0.48,-0.22,0.38,
3.544,-0.03,-0.98,0.46,0.48,-0.22,0.38,
3.544,-0.03,-0.98,0.46,0.52,-0.21,0.40,
3.544,-0.03,-0.98,0.46,0.56,-0.20,0.42,
3.545,-0.03,-0.98,0.46,0.60,-0.18,0.45,
3.545,-0.03,-0.98,0.46,0.65,-0.17,0.48,
3.545,-0.03,-0.98,0.46,0.70,-0.15,0.50,
3.546,-0.54,-1.31,0.65,0.70,-0.15,0.50,
3.546,-0.54,-1.31,0.65,0.74,-0.14,0.54,
3.546,-0.54,-1.31,0.65,0.78,-0.13,0.58,
3.547,-0.54,-1.31,0.65,0.82,-0.12,0.61,
3.547,-0.54,-1.31,0.65,0.85,-0.10,0.65,
3.548,-0.54,-1.31,0.65,0.88,-0.09,0.67,
3.548,-0.87,-1.40,0.46,0.88,-0.09,0.67,
3.548,-0.87,-1.40,0.46,0.90,-0.09,0.69,
3.549,-0.87,-1.40,0.46,0.92,-0.08,0.70,
3.549,-0.87,-1.40,0.46,0.92,-0.07,0.69,
3.549,-0.87,-1.40,0.46,0.90,-0.07,0.68,
3.551,-0.87,-1.40,0.46,0.88,-0.06,0.66,
3.553,0.18,-0.40,-0.45,0.88,-0.06,0.66,
3.553,0.18,-0.40,-0.45,0.86,-0.05,0.64,
3.554,0.18,-0.40,-0.45,0.82,-0.04,0.61,
3.556,0.18,-0.40,-0.45,0.79,-0.03,0.59,
3.566,0.18,-0.40,-0.45,0.75,-0.02,0.55,
3.567,0.18,-0.40,-0.45,0.71,-0.00,0.52,
3.567,0.54,0.51,-0.81,0.71,-0.00,0.52,
3.568,0.54,0.51,-0.81,0.68,0.02,0.50,
3.568,0.54,0.51,-0.81,0.65,0.03,0.48,
3.568,0.54,0.51,-0.81,0.62,0.06,0.45,
3.569,0.54,0.51,-0.81,0.60,0.08,0.42,
3.571,0.54,0.51,-0.81,0.59,0.10,0.39,
3.573,0.61,0.54,0.08,0.59,0.10,0.39,
3.574,0.61,0.54,0.08,0.58,0.12,0.36,
3.575,0.61,0.54,0.08,0.57,0.14,0.33,
3.578,0.61,0.54,0.08,0.58,0.16,0.31,
3.581,0.61,0.54,0.08,0.58,0.17,0.30,
3.583,0.61,0.54,0.08,0.59,0.18,0.29,
3.584,0.14,-0.09,0.97,0.59,0.18,0.29,
3.585,0.14,-0.09,0.97,0.60,0.18,0.30,
3.585,0.14,-0.09,0.97,0.62,0.18,0.32,
3.587,0.14,-0.09,0.97,0.64,0.17,0.35,
3.589,0.14,-0.09,0.97,0.66,0.17,0.39,
3.606,0.14,-0.09,0.97,0.70,0.16,0.44,
3.607,-1.63,-0.76,1.19,0.70,0.16,0.44,
3.607,-1.63,-0.76,1.19,0.74,0.16,0.54,
3.608,-1.63,-0.76,1.19,0.80,0.15,0.65,
3.608,-1.63,-0.76,1.19,0.86,0.15,0.77,
3.608,-1.63,-0.76,1.19,0.91,0.16,0.87,
3.609,-1.63,-0.76,1.19,0.96,0.17,0.93,
3.609,-3.31,-1.37,1.68,0.96,0.17,0.93,
3.609,-3.31,-1.37,1.68,1.00,0.14,0.97,
3.61,-3.31,-1.37,1.68,1.06,0.03,1.03,
3.61,-3.31,-1.37,1.68,1.17,-0.15,1.11,
3.61,-3.31,-1.37,1.68,1.34,-0.45,1.21,
3.621,-3.31,-1.37,1.68,1.44,-0.81,1.34,
3.621,-5.91,3.10,1.97,1.44,-0.81,1.34,
3.622,-5.91,3.10,1.97,1.37,-0.92,1.44,
3.622,-5.91,3.10,1.97,1.27,-0.77,1.48,
3.622,-5.91,3.10,1.97,1.27,-0.49,1.46,
3.623,-5.91,3.10,1.97,1.32,-0.24,1.37,
3.623,-5.91,3.10,1.97,1.32,-0.12,1.22,
3.623,0.52,0.49,-3.16,1.32,-0.12,1.22,
3.623,0.52,0.49,-3.16,1.24,-0.14,1.04,
3.638,0.52,0.49,-3.16,1.12,-0.26,0.87,
3.639,0.52,0.49,-3.16,1.01,-0.40,0.70,
3.64,0.52,0.49,-3.16,0.88,-0.55,0.51,
3.64,0.52,0.49,-3.16,0.84,-0.60,0.46,
3.64,4.33,-0.63,-2.50,0.84,-0.60,0.46,
3.641,4.33,-0.63,-2.50,0.77,-0.67,0.37,
3.641,4.33,-0.63,-2.50,0.73,-0.66,0.31,
3.652,4.33,-0.63,-2.50,0.73,-0.58,0.28,
3.654,4.33,-0.63,-2.50,0.74,-0.48,0.25,
3.655,4.33,-0.63,-2.50,0.76,-0.37,0.24,
3.655,3.92,0.80,0.25,0.76,-0.37,0.24,
3.656,3.92,0.80,0.25,0.77,-0.25,0.22,
3.657,3.92,0.80,0.25,0.77,-0.12,0.21,
3.658,3.92,0.80,0.25,0.76,0.00,0.20,
3.658,3.92,0.80,0.25,0.72,0.10,0.19,
3.661,3.92,0.80,0.25,0.68,0.20,0.19,
3.663,3.34,0.05,-0.48,0.68,0.20,0.19,
3.664,3.34,0.05,-0.48,0.64,0.31,0.20,
3.665,3.34,0.05,-0.48,0.61,0.44,0.23,
3.666,3.34,0.05,-0.48,0.57,0.57,0.28,
3.667,3.34,0.05,-0.48,0.54,0.70,0.33,
3.668,3.34,0.05,-0.48,0.52,0.79,0.36,
3.669,1.54,-0.23,-0.51,0.52,0.79,0.36,
3.7,1.54,-0.23,-0.51,0.47,0.84,0.38,
3.701,1.54,-0.23,-0.51,0.44,0.89,0.37,
3.701,1.54,-0.23,-0.51,0.42,0.99,0.34,
3.701,1.54,-0.23,-0.51,0.39,1.07,0.31,
3.702,1.54,-0.23,-0.51,0.35,1.09,0.27,
3.702,2.78,0.49,-0.17,0.35,1.09,0.27,
3.703,2.78,0.49,-0.17,0.33,1.12,0.23,
3.703,2.78,0.49,-0.17,0.31,1.16,0.20,
3.703,2.78,0.49,-0.17,0.31,1.20,0.18,
3.704,2.78,0.49,-0.17,0.31,1.22,0.17,
3.704,2.78,0.49,-0.17,0.30,1.20,0.19,
3.705,1.72,0.40,-0.31,0.30,1.20,0.19,
3.705,1.72,0.40,-0.31,0.29,1.18,0.20,
3.706,1.72,0.40,-0.31,0.28,1.16,0.21,
3.706,1.72,0.40,-0.31,0.28,1.15,0.21,
3.706,1.72,0.40,-0.31,0.28,1.13,0.21,
3.707,1.72,0.40,-0.31,0.28,1.11,0.20,
3.707,1.46,0.44,-1.07,0.28,1.11,0.20,
3.708,1.46,0.44,-1.07,0.27,1.08,0.18,
3.708,1.46,0.44,-1.07,0.26,1.04,0.15,
3.708,1.46,0.44,-1.07,0.25,0.99,0.12,
3.709,1.46,0.44,-1.07,0.23,0.96,0.08,
3.709,1.46,0.44,-1.07,0.21,0.94,0.05,
3.71,1.68,0.65,-1.80,0.21,0.94,0.05,
3.71,1.68,0.65,-1.80,0.20,0.92,0.03,
3.711,1.68,0.65,-1.80,0.18,0.92,0.01,
3.711,1.68,0.65,-1.80,0.17,0.92,-0.01,
3.711,1.68,0.65,-1.80,0.15,0.92,-0.02,
3.712,1.68,0.65,-1.80,0.14,0.92,-0.03,
3.716,1.10,1.04,-1.52,0.14,0.92,-0.03,
3.718,1.10,1.04,-1.52,0.12,0.94,-0.03,
3.718,1.10,1.04,-1.52,0.11,0.96,-0.03,
3.718,1.10,1.04,-1.52,0.09,1.00,-0.01,
3.719,1.10,1.04,-1.52,0.07,1.01,0.00,
3.723,1.10,1.04,-1.52,0.04,1.01,0.02,
3.723,0.90,2.00,-1.91,0.04,1.01,0.02,
3.724,0.90,2.00,-1.91,0.00,1.02,0.04,
3.728,0.90,2.00,-1.91,-0.03,1.02,0.05,
3.729,0.90,2.00,-1.91,-0.06,1.04,0.06,
3.73,0.90,2.00,-1.91,-0.09,1.05,0.06,
3.733,0.90,2.00,-1.91,-0.11,1.07,0.06,
3.734,1.61,2.68,-1.93,-0.11,1.07,0.06,
3.734,1.61,2.68,-1.93,-0.13,1.09,0.04,
3.734,1.61,2.68,-1.93,-0.14,1.09,0.02,
3.737,1.61,2.68,-1.93,-0.16,1.09,-0.02,
3.739,1.61,2.68,-1.93,-0.18,1.08,-0.06,
3.75,1.61,2.68,-1.93,-0.19,1.07,-0.09,
3.752,1.48,3.00,-0.84,-0.19,1.07,-0.09,
3.756,1.48,3.00,-0.84,-0.19,1.06,-0.12,
3.757,1.48,3.00,-0.84,-0.19,1.07,-0.14,
3.758,1.48,3.00,-0.84,-0.17,1.08,-0.14,
3.758,1.48,3.00,-0.84,-0.15,1.10,-0.15,
3.758,1.48,3.00,-0.84,-0.14,1.09,-0.15,
3.758,-0.25,2.63,0.20,-0.14,1.09,-0.15,
3.759,-0.25,2.63,0.20,-0.14,1.06,-0.15,
3.772,-0.25,2.63,0.20,-0.13,1.01,-0.15,
3.774,-0.25,2.63,0.20,-0.13,0.94,-0.15,
3.774,-0.25,2.63,0.20,-0.14,0.86,-0.13,
3.775,-0.25,2.63,0.20,-0.14,0.77,-0.11,
3.775,-0.42,1.76,0.47,-0.14,0.77,-0.11,
3.776,-0.42,1.76,0.47,-0.14,0.67,-0.08,
3.776,-0.42,1.76,0.47,-0.15,0.57,-0.05,
3.777,-0.42,1.76,0.47,-0.16,0.48,-0.03,
3.777,-0.42,1.76,0.47,-0.17,0.41,-0.02,
3.778,-0.42,1.76,0.47,-0.18,0.34,-0.01,
3.778,0.07,0.81,0.91,-0.18,0.34,-0.01,
3.778,0.07,0.81,0.91,-0.18,0.29,-0.01,
3.779,0.07,0.81,0.91,-0.19,0.25,-0.01,
3.779,0.07,0.81,0.91,-0.20,0.22,-0.01,
3.779,0.07,0.81,0.91,-0.21,0.20,-0.01,
3.781,0.07,0.81,0.91,-0.22,0.20,-0.00,
3.784,0.56,0.32,0.79,-0.22,0.20,-0.00,
3.785,0.56,0.32,0.79,-0.22,0.20,0.00,
3.785,0.56,0.32,0.79,-0.23,0.21,0.01,
3.787,0.56,0.32,0.79,-0.23,0.22,0.01,
3.789,0.56,0.32,0.79,-0.23,0.24,0.01,
3.795,0.56,0.32,0.79,-0.23,0.25,0.01,
3.795,1.34,0.44,0.45,-0.23,0.25,0.01,
3.796,1.34,0.44,0.45,-0.24,0.26,0.01,
3.796,1.34,0.44,0.45,-0.25,0.28,0.00,
3.797,1.34,0.44,0.45,-0.26,0.31,0.00,
3.798,1.34,0.44,0.45,-0.27,0.33,0.00,
3.801,1.34,0.44,0.45,-0.27,0.36,0.00,
3.803,1.80,0.64,-0.09,-0.27,0.36,0.00,
3.804,1.80,0.64,-0.09,-0.28,0.40,0.00,
3.805,1.80,0.64,-0.09,-0.29,0.43,-0.00,
3.809,1.80,0.64,-0.09,-0.31,0.47,-0.01,
3.813,1.80,0.64,-0.09,-0.33,0.51,-0.01,
3.813,1.80,0.64,-0.09,-0.35,0.54,-0.02,
3.814,1.91,1.00,-0.81,-0.35,0.54,-0.02,
3.814,1.91,1.00,-0.81,-0.38,0.56,-0.04,
3.814,1.91,1.00,-0.81,-0.41,0.58,-0.05,
3.817,1.91,1.00,-0.81,-0.45,0.60,-0.06,
3.818,1.91,1.00,-0.81,-0.48,0.61,-0.08,
3.821,1.91,1.00,-0.81,-0.52,0.61,-0.11,
3.824,1.45,1.01,-1.33,-0.52,0.61,-0.11,
3.826,1.45,1.01,-1.33,-0.56,0.60,-0.13,
3.826,1.45,1.01,-1.33,-0.60,0.60,-0.15,
3.827,1.45,1.01,-1.33,-0.64,0.58,-0.16,
3.828,1.45,1.01,-1.33,-0.68,0.56,-0.18,
3.864,1.45,1.01,-1.33,-0.71,0.54,-0.19,
3.865,0.22,0.71,-1.23,-0.71,0.54,-0.19,
3.865,0.22,0.71,-1.23,-0.75,0.51,-0.20,
3.866,0.22,0.71,-1.23,-0.79,0.47,-0.21,
3.867,0.22,0.71,-1.23,-0.82,0.42,-0.22,
3.867,0.22,0.71,-1.23,-0.86,0.37,-0.23,
3.868,0.22,0.71,-1.23,-0.89,0.29,-0.24,
3.869,-0.31,0.55,-1.42,-0.89,0.29,-0.24,
3.875,-0.31,0.55,-1.42,-0.94,0.20,-0.26,
3.879,-0.31,0.55,-1.42,-0.98,0.14,-0.29,
3.879,-0.31,0.55,-1.42,-1.00,0.11,-0.33,
3.879,-0.31,0.55,-1.42,-1.01,0.08,-0.38,
3.88,-0.31,0.55,-1.42,-0.62,0.01,-0.44,
3.88,0.69,-6.62,11.92,-0.62,0.01,-0.44,
3.88,0.69,-6.62,11.92,0.06,-0.51,-0.53,
3.88,0.69,-6.62,11.92,-0.12,-0.71,-0.39,
3.881,0.69,-6.62,11.92,-0.32,-0.72,-0.24,
3.881,0.69,-6.62,11.92,-0.27,-0.74,-0.16,
3.881,0.69,-6.62,11.92,-0.29,-0.77,-0.10,
3.881,-2.78,-0.19,-0.95,-0.29,-0.77,-0.10,
3.881,-2.78,-0.19,-0.95,-0.33,-0.77,-0.08,
3.882,-2.78,-0.19,-0.95,-0.33,-0.84,-0.08,
3.882,-2.78,-0.19,-0.95,-0.34,-0.86,-0.10,
3.882,-2.78,-0.19,-0.95,-0.30,-0.93,-0.12,
3.882,-2.78,-0.19,-0.95,-0.31,-0.94,-0.13,
3.882,-1.38,0.25,-0.57,-0.31,-0.94,-0.13,
3.883,-1.38,0.25,-0.57,-0.29,-0.98,-0.14,
3.886,-1.38,0.25,-0.57,-0.27,-1.00,-0.13,
3.886,-1.38,0.25,-0.57,-0.24,-1.03,-0.12,
3.886,-1.38,0.25,-0.57,-0.20,-1.05,-0.10,
3.886,-1.38,0.25,-0.57,-0.16,-1.07,-0.08,
3.886,-0.66,0.10,-0.15,-0.16,-1.07,-0.08,
3.887,-0.66,0.10,-0.15,-0.12,-1.11,-0.05,
3.887,-0.66,0.10,-0.15,-0.08,-1.15,-0.04,
3.887,-0.66,0.10,-0.15,-0.04,-1.24,-0.03,
3.889,-0.66,0.10,-0.15,-0.01,-1.30,-0.03,
3.891,-0.66,0.10,-0.15,0.02,-1.39,-0.03,
3.894,-0.05,-0.72,-0.34,0.02,-1.39,-0.03,
3.895,-0.05,-0.72,-0.34,0.05,-1.44,-0.03,
3.895,-0.05,-0.72,-0.34,0.10,-1.53,-0.04,
3.896,-0.05,-0.72,-0.34,0.13,-1.58,-0.05,
3.898,-0.05,-0.72,-0.34,0.16,-1.66,-0.05,
3.901,-0.05,-0.72,-0.34,0.18,-1.74,-0.04,
3.904,-0.96,-2.88,-0.36,0.18,-1.74,-0.04,
3.904,-0.96,-2.88,-0.36,0.21,-1.83,-0.03,
3.904,-0.96,-2.88,-0.36,0.22,-1.92,-0.01,
3.907,-0.96,-2.88,-0.36,0.26,-2.01,0.01,
3.909,-0.96,-2.88,-0.36,0.31,-2.10,0.02,
3.911,-0.96,-2.88,-0.36,0.37,-2.19,0.01,
3.914,-1.35,-2.12,0.62,0.37,-2.19,0.01,
3.914,-1.35,-2.12,0.62,0.40,-2.30,0.01,
3.914,-1.35,-2.12,0.62,0.46,-2.41,-0.01,
3.916,-1.35,-2.12,0.62,0.52,-2.53,-0.06,
3.918,-1.35,-2.12,0.62,0.57,-2.63,-0.10,
3.92,-1.35,-2.12,0.62,0.64,-2.72,-0.13,
3.935,-0.92,0.21,1.44,0.64,-2.72,-0.13,
3.939,-0.92,0.21,1.44,0.68,-2.78,-0.18,
3.94,-0.92,0.21,1.44,0.72,-2.86,-0.25,
3.942,-0.92,0.21,1.44,0.74,-2.90,-0.35,
3.942,-0.92,0.21,1.44,0.76,-2.95,-0.45,
3.944,-0.92,0.21,1.44,0.76,-2.96,-0.56,
3.946,0.26,0.35,0.40,0.76,-2.96,-0.56,
3.947,0.26,0.35,0.40,0.76,-2.93,-0.65,
3.949,0.26,0.35,0.40,0.75,-2.84,-0.73,
3.949,0.26,0.35,0.40,0.74,-2.72,-0.82,
3.949,0.26,0.35,0.40,0.72,-2.58,-0.89,
3.95,0.26,0.35,0.40,0.71,-2.43,-0.93,
3.95,-0.67,-0.67,0.26,0.71,-2.43,-0.93,
3.95,-0.67,-0.67,0.26,0.68,-2.29,-0.96,
3.95,-0.67,-0.67,0.26,0.64,-2.17,-0.96,
3.95,-0.67,-0.67,0.26,0.60,-2.08,-0.95,
3.95,-0.67,-0.67,0.26,0.55,-1.98,-0.94,
3.967,-0.67,-0.67,0.26,0.52,-1.88,-0.93,
3.967,-1.49,-2.36,-0.35,0.52,-1.88,-0.93,
3.968,-1.49,-2.36,-0.35,0.49,-1.75,-0.93,
3.968,-1.49,-2.36,-0.35,0.46,-1.62,-0.92,
3.968,-1.49,-2.36,-0.35,0.43,-1.42,-0.91,
3.968,-1.49,-2.36,-0.35,0.42,-1.36,-0.91,
3.969,-1.49,-2.36,-0.35,0.40,-1.25,-0.89,
3.969,-0.43,-2.21,-0.34,0.40,-1.25,-0.89,
3.969,-0.43,-2.21,-0.34,0.39,-1.16,-0.88,
3.969,-0.43,-2.21,-0.34,0.38,-1.08,-0.86,
3.97,-0.43,-2.21,-0.34,0.37,-1.03,-0.84,
3.97,-0.43,-2.21,-0.34,0.37,-0.93,-0.82,
3.97,-0.43,-2.21,-0.34,0.37,-0.89,-0.81,
3.977,-0.51,-1.92,-0.17,0.37,-0.89,-0.81,
3.977,-0.51,-1.92,-0.17,0.37,-0.81,-0.79,
3.977,-0.51,-1.92,-0.17,0.37,-0.73,-0.77,
3.978,-0.51,-1.92,-0.17,0.38,-0.65,-0.75,
3.98,-0.51,-1.92,-0.17,0.37,-0.51,-0.74,
3.981,-0.51,-1.92,-0.17,0.37,-0.47,-0.73,
3.983,-1.01,-1.53,0.29,0.37,-0.47,-0.73,
3.983,-1.01,-1.53,0.29,0.35,-0.37,-0.73,
3.985,-1.01,-1.53,0.29,0.33,-0.29,-0.72,
3.986,-1.01,-1.53,0.29,0.29,-0.17,-0.73,
3.998,-1.01,-1.53,0.29,0.27,-0.13,-0.73,
3.998,-1.01,-1.53,0.29,0.23,-0.06,-0.74,
3.999,-0.62,-1.37,0.38,0.23,-0.06,-0.74,
4.0,-0.62,-1.37,0.38,0.19,-0.01,-0.76,
4.001,-0.62,-1.37,0.38,0.15,0.03,-0.78,
4.034,-0.62,-1.37,0.38,0.11,0.08,-0.80,
4.035,-0.62,-1.37,0.38,0.08,0.12,-0.83,
4.035,-0.62,-1.37,0.38,0.03,0.17,-0.86,
4.036,-0.01,-0.65,0.18,0.03,0.17,-0.86,
4.036,-0.01,-0.65,0.18,0.01,0.20,-0.88,
4.037,-0.01,-0.65,0.18,0.01,0.22,-0.89,
4.037,-0.01,-0.65,0.18,-0.01,0.26,-0.88,
4.037,-0.01,-0.65,0.18,-0.01,0.27,-0.88,
4.038,-0.01,-0.65,0.18,-0.01,0.29,-0.86,
4.038,-0.49,0.21,-0.25,-0.01,0.29,-0.86,
4.039,-0.49,0.21,-0.25,-0.01,0.31,-0.84,
4.039,-0.49,0.21,-0.25,-0.00,0.32,-0.84,
4.039,-0.49,0.21,-0.25,-0.00,0.34,-0.82,
4.04,-0.49,0.21,-0.25,-0.00,0.35,-0.80,
4.04,-0.49,0.21,-0.25,-0.01,0.36,-0.79,
4.041,-0.48,1.35,-0.64,-0.01,0.36,-0.79,
4.041,-0.48,1.35,-0.64,-0.02,0.36,-0.77,
4.042,-0.48,1.35,-0.64,-0.03,0.36,-0.75,
4.042,-0.48,1.35,-0.64,-0.04,0.37,-0.73,
4.042,-0.48,1.35,-0.64,-0.05,0.37,-0.70,
4.043,-0.48,1.35,-0.64,-0.06,0.37,-0.68,
4.043,-0.72,1.58,-0.64,-0.06,0.37,-0.68,
4.044,-0.72,1.58,-0.64,-0.06,0.36,-0.65,
4.044,-0.72,1.58,-0.64,-0.07,0.33,-0.62,
4.044,-0.72,1.58,-0.64,-0.08,0.30,-0.59,
4.045,-0.72,1.58,-0.64,-0.10,0.27,-0.57,
4.045,-0.72,1.58,-0.64,-0.11,0.23,-0.55,
4.046,-0.65,1.18,-0.59,-0.11,0.23,-0.55,
4.046,-0.65,1.18,-0.59,-0.11,0.20,-0.53,
4.046,-0.65,1.18,-0.59,-0.12,0.16,-0.50,
4.047,-0.65,1.18,-0.59,-0.13,0.13,-0.47,
4.052,-0.65,1.18,-0.59,-0.14,0.09,-0.44,
4.053,-0.65,1.18,-0.59,-0.15,0.06,-0.41,
4.053,0.03,0.48,-0.39,-0.15,0.06,-0.41,
4.053,0.03,0.48,-0.39,-0.15,0.01,-0.38,
4.056,0.03,0.48,-0.39,-0.15,-0.02,-0.35,
4.057,0.03,0.48,-0.39,-0.15,-0.05,-0.32,
4.065,0.03,0.48,-0.39,-0.15,-0.05,-0.28,
4.066,0.03,0.48,-0.39,-0.14,-0.05,-0.25,
4.066,0.30,-0.02,-0.15,-0.14,-0.05,-0.25,
4.067,0.30,-0.02,-0.15,-0.13,-0.04,-0.21,
4.067,0.30,-0.02,-0.15,-0.12,-0.04,-0.18,
4.067,0.30,-0.02,-0.15,-0.11,-0.04,-0.15,
4.115,0.30,-0.02,-0.15,-0.10,-0.05,-0.12,
4.116,0.30,-0.02,-0.15,-0.09,-0.07,-0.10,
4.116,0.31,-0.10,-0.07,-0.09,-0.07,-0.10,
4.116,0.31,-0.10,-0.07,-0.09,-0.10,-0.07,
4.116,0.31,-0.10,-0.07,-0.07,-0.14,-0.05,
4.117,0.31,-0.10,-0.07,-0.06,-0.18,-0.02,
4.117,0.31,-0.10,-0.07,-0.05,-0.23,-0.00,
4.117,0.31,-0.10,-0.07,-0.04,-0.29,0.02,
4.117,-0.15,-0.04,-0.16,-0.04,-0.29,0.02,
4.117,-0.15,-0.04,-0.16,-0.02,-0.34,0.04,
4.118,-0.15,-0.04,-0.16,-0.00,-0.39,0.06,
4.118,-0.15,-0.04,-0.16,0.02,-0.44,0.08,
4.118,-0.15,-0.04,-0.16,0.04,-0.49,0.09,
4.118,-0.15,-0.04,-0.16,0.05,-0.54,0.11,
4.118,-0.23,0.57,-0.08,0.05,-0.54,0.11,
4.118,-0.23,0.57,-0.08,0.06,-0.58,0.12,
4.119,-0.23,0.57,-0.08,0.08,-0.62,0.14,
4.119,-0.23,0.57,-0.08,0.09,-0.65,0.15,
4.119,-0.23,0.57,-0.08,0.11,-0.69,0.16,
4.119,-0.23,0.57,-0.08,0.12,-0.73,0.17,
4.119,-0.12,1.40,0.41,0.12,-0.73,0.17,
4.12,-0.12,1.40,0.41,0.17,-0.68,0.20,
4.12,-0.12,1.40,0.41,0.17,-0.68,0.20,
4.12,-0.12,1.40,0.41,0.17,-0.54,0.22,
4.12,-0.12,1.40,0.41,0.16,-0.46,0.24,
4.12,-0.12,1.40,0.41,0.15,-0.45,0.25,
4.12,-0.41,1.58,-0.11,0.15,-0.45,0.25,
4.121,-0.41,1.58,-0.11,0.12,-0.52,0.27,
4.121,-0.41,1.58,-0.11,0.09,-0.61,0.28,
4.121,-0.41,1.58,-0.11,0.08,-0.65,0.29,
4.121,-0.41,1.58,-0.11,0.06,-0.69,0.31,
4.121,-0.41,1.58,-0.11,0.04,-0.73,0.32,
4.127,-0.32,1.87,-0.21,0.04,-0.73,0.32,
4.128,-0.32,1.87,-0.21,0.03,-0.78,0.33,
4.128,-0.32,1.87,-0.21,0.02,-0.82,0.35,
4.129,-0.32,1.87,-0.21,0.02,-0.86,0.36,
4.129,-0.32,1.87,-0.21,0.02,-0.86,0.38,
4.131,-0.32,1.87,-0.21,0.02,-0.66,0.40,
4.135,-0.73,1.86,0.41,0.02,-0.66,0.40,
4.135,-0.73,1.86,0.41,-0.02,-0.43,0.43,
4.136,-0.73,1.86,0.41,0.00,-0.42,0.45,
4.137,-0.73,1.86,0.41,-0.03,-0.58,0.46,
4.152,-0.73,1.86,0.41,-0.10,-0.63,0.46,
4.155,-0.73,1.86,0.41,-0.13,-0.52,0.47,
4.156,-0.71,1.84,-0.26,-0.13,-0.52,0.47,
4.157,-0.71,1.84,-0.26,-0.16,-0.40,0.49,
4.158,-0.71,1.84,-0.26,-0.19,-0.42,0.50,
4.159,-0.71,1.84,-0.26,-0.28,-0.51,0.50,
4.161,-0.71,1.84,-0.26,-0.34,-0.49,0.49,
4.162,-0.71,1.84,-0.26,-0.35,-0.38,0.49,
4.163,-0.01,1.74,-0.41,-0.35,-0.38,0.49,
4.163,-0.01,1.74,-0.41,-0.36,-0.32,0.48,
4.164,-0.01,1.74,-0.41,-0.36,-0.29,0.46,
4.164,-0.01,1.74,-0.41,-0.34,-0.24,0.43,
4.165,-0.01,1.74,-0.41,-0.29,-0.15,0.40,
4.165,-0.01,1.74,-0.41,-0.25,-0.09,0.36,
4.166,0.39,1.23,0.01,-0.25,-0.09,0.36,
4.199,0.39,1.23,0.01,-0.20,-0.05,0.33,
4.2,0.39,1.23,0.01,-0.15,-0.01,0.31,
4.2,0.39,1.23,0.01,-0.09,0.01,0.29,
4.201,0.39,1.23,0.01,-0.05,0.01,0.28,
4.201,0.39,1.23,0.01,-0.03,-0.03,0.29,
4.202,0.29,0.79,-0.13,-0.03,-0.03,0.29,
4.202,0.29,0.79,-0.13,-0.02,-0.08,0.31,
4.202,0.29,0.79,-0.13,-0.02,-0.13,0.34,
4.203,0.29,0.79,-0.13,-0.04,-0.19,0.37,
4.203,0.29,0.79,-0.13,-0.07,-0.25,0.41,
4.204,0.29,0.79,-0.13,-0.09,-0.29,0.46,
4.204,-0.30,0.78,-0.27,-0.09,-0.29,0.46,
4.205,-0.30,0.78,-0.27,-0.13,-0.33,0.50,
4.205,-0.30,0.78,-0.27,-0.17,-0.35,0.55,
4.205,-0.30,0.78,-0.27,-0.22,-0.37,0.60,
4.206,-0.30,0.78,-0.27,-0.28,-0.39,0.65,
4.206,-0.30,0.78,-0.27,-0.35,-0.39,0.70,
4.207,-0.57,1.01,-0.51,-0.35,-0.39,0.70,
4.207,-0.57,1.01,-0.51,-0.43,-0.41,0.75,
4.207,-0.57,1.01,-0.51,-0.51,-0.41,0.80,
4.208,-0.57,1.01,-0.51,-0.57,-0.38,0.85,
4.208,-0.57,1.01,-0.51,-0.61,-0.33,0.89,
4.209,-0.57,1.01,-0.51,-0.54,-0.12,0.86,
4.209,0.07,0.45,0.42,-0.54,-0.12,0.86,
4.209,0.07,0.45,0.42,-0.32,0.23,0.70,
4.21,0.07,0.45,0.42,-0.15,0.46,0.53,
4.21,0.07,0.45,0.42,-0.08,0.57,0.42,
4.211,0.07,0.45,0.42,-0.09,0.53,0.36,
4.211,0.07,0.45,0.42,-0.12,0.47,0.31,
4.215,0.77,-0.93,-0.56,-0.12,0.47,0.31,
4.216,0.77,-0.93,-0.56,-0.15,0.41,0.27,
4.216,0.77,-0.93,-0.56,-0.16,0.35,0.21,
4.217,0.77,-0.93,-0.56,-0.17,0.32,0.15,
4.22,0.77,-0.93,-0.56,-0.19,0.29,0.08,
4.226,0.77,-0.93,-0.56,-0.19,0.27,0.02,
4.227,0.65,-1.46,-0.09,-0.19,0.27,0.02,
4.227,0.65,-1.46,-0.09,-0.19,0.26,-0.04,
4.228,0.65,-1.46,-0.09,-0.19,0.25,-0.09,
4.228,0.65,-1.46,-0.09,-0.18,0.24,-0.13,
4.229,0.65,-1.46,-0.09,-0.18,0.23,-0.16,
4.231,0.65,-1.46,-0.09,-0.17,0.20,-0.17,
4.235,-0.02,-2.11,0.30,-0.17,0.20,-0.17,
4.236,-0.02,-2.11,0.30,-0.13,0.19,-0.17,
4.236,-0.02,-2.11,0.30,-0.09,0.19,-0.15,
4.237,-0.02,-2.11,0.30,-0.07,0.16,-0.13,
4.239,-0.02,-2.11,0.30,-0.07,0.11,-0.10,
4.241,-0.02,-2.11,0.30,-0.07,0.07,-0.07,
4.243,-1.39,-2.46,0.48,-0.07,0.07,-0.07,
4.243,-1.39,-2.46,0.48,-0.06,0.04,-0.04,
4.245,-1.39,-2.46,0.48,-0.04,0.01,-0.00,
4.247,-1.39,-2.46,0.48,-0.04,-0.01,0.04,
4.249,-1.39,-2.46,0.48,-0.03,-0.04,0.08,
4.251,-1.39,-2.46,0.48,-0.02,-0.05,0.13,
4.253,-2.52,-3.32,0.08,-0.02,-0.05,0.13,
4.253,-2.52,-3.32,0.08,-0.01,-0.07,0.17,
4.255,-2.52,-3.32,0.08,-0.00,-0.07,0.22,
4.257,-2.52,-3.32,0.08,-0.00,-0.08,0.27,
4.259,-2.52,-3.32,0.08,-0.00,-0.08,0.31,
4.26,-2.52,-3.32,0.08,0.00,-0.08,0.34,
4.263,-2.60,-3.57,-0.00,0.00,-0.08,0.34,
4.264,-2.60,-3.57,-0.00,0.00,-0.08,0.36,
4.265,-2.60,-3.57,-0.00,-0.00,-0.07,0.39,
4.266,-2.60,-3.57,-0.00,-0.00,-0.07,0.40,
4.269,-2.60,-3.57,-0.00,-0.00,-0.06,0.40,
4.272,-2.60,-3.57,-0.00,-0.00,-0.06,0.39,
4.273,-0.90,-3.45,-0.03,-0.00,-0.06,0.39,
4.274,-0.90,-3.45,-0.03,-0.01,-0.05,0.38,
4.278,-0.90,-3.45,-0.03,-0.01,-0.05,0.36,
4.279,-0.90,-3.45,-0.03,-0.01,-0.04,0.33,
4.279,-0.90,-3.45,-0.03,-0.00,-0.04,0.31,
4.281,-0.90,-3.45,-0.03,-0.01,-0.02,0.29,
4.283,0.63,-3.04,-0.04,-0.01,-0.02,0.29,
4.284,0.63,-3.04,-0.04,-0.02,-0.01,0.27,
4.285,0.63,-3.04,-0.04,-0.02,-0.01,0.24,
4.287,0.63,-3.04,-0.04,-0.01,0.00,0.21,
4.302,0.63,-3.04,-0.04,-0.02,0.01,0.18,
4.307,0.63,-3.04,-0.04,-0.03,0.02,0.15,
4.307,1.12,-2.79,-0.06,-0.03,0.02,0.15,
4.307,1.12,-2.79,-0.06,-0.03,0.04,0.12,
4.307,1.12,-2.79,-0.06,-0.03,0.05,0.09,
4.308,1.12,-2.79,-0.06,-0.04,0.06,0.06,
4.308,1.12,-2.79,-0.06,-0.04,0.07,0.03,
4.308,1.12,-2.79,-0.06,-0.04,0.09,0.01,
4.309,0.94,-2.04,-0.02,-0.04,0.09,0.01,
4.309,0.94,-2.04,-0.02,-0.04,0.10,-0.01,
4.309,0.94,-2.04,-0.02,-0.04,0.11,-0.03,
4.31,0.94,-2.04,-0.02,-0.05,0.11,-0.04,
4.31,0.94,-2.04,-0.02,-0.05,0.11,-0.04,
4.311,0.94,-2.04,-0.02,-0.04,0.11,-0.04,
4.313,0.18,-0.66,0.03,-0.04,0.11,-0.04,
4.313,0.18,-0.66,0.03,-0.04,0.11,-0.04,
4.314,0.18,-0.66,0.03,-0.04,0.11,-0.04,
4.317,0.18,-0.66,0.03,-0.04,0.11,-0.04,
4.335,0.18,-0.66,0.03,-0.04,0.11,-0.04,
4.338,0.18,-0.66,0.03,-0.04,0.11,-0.03,
4.34,-0.13,-0.02,0.02,-0.04,0.11,-0.03,
4.343,-0.13,-0.02,0.02,-0.04,0.11,-0.03,
4.344,-0.13,-0.02,0.02,-0.04,0.11,-0.03,
4.345,-0.13,-0.02,0.02,-0.04,0.11,-0.03,
4.345,-0.13,-0.02,0.02,-0.04,0.11,-0.02,
4.38,-0.13,-0.02,0.02,-0.04,0.11,-0.02,
4.381,-0.26,0.09,0.02,-0.04,0.11,-0.02,
4.381,-0.26,0.09,0.02,-0.04,0.11,-0.02,
4.382,-0.26,0.09,0.02,-0.04,0.12,-0.01,
4.382,-0.26,0.09,0.02,-0.04,0.12,-0.01,
4.382,-0.26,0.09,0.02,-0.04,0.13,-0.00,
4.383,-0.26,0.09,0.02,-0.05,0.15,-0.01,
4.383,-0.24,0.06,-0.02,-0.05,0.15,-0.01,
4.384,-0.24,0.06,-0.02,-0.05,0.17,-0.01,
4.384,-0.24,0.06,-0.02,-0.07,0.20,-0.02,
4.384,-0.24,0.06,-0.02,-0.10,0.26,-0.05,
4.385,-0.24,0.06,-0.02,-0.12,0.31,-0.08,
4.385,-0.24,0.06,-0.02,-0.15,0.36,-0.07,
4.386,-0.13,2.82,-0.23,-0.15,0.36,-0.07,
4.386,-0.13,2.82,-0.23,-0.21,0.44,-0.02,
4.387,-0.13,2.82,-0.23,-0.27,0.54,0.04,
4.387,-0.13,2.82,-0.23,-0.33,0.66,0.10,
4.387,-0.13,2.82,-0.23,-0.39,0.78,0.16,
4.388,-0.13,2.82,-0.23,-0.44,0.89,0.21,
4.388,-0.45,7.45,-0.71,-0.44,0.89,0.21,
4.389,-0.45,7.45,-0.71,-0.48,0.99,0.24,
4.389,-0.45,7.45,-0.71,-0.52,1.09,0.26,
4.39,-0.45,7.45,-0.71,-0.53,1.18,0.27,
4.39,-0.45,7.45,-0.71,-0.54,1.24,0.28,
4.391,-0.45,7.45,-0.71,-0.54,1.27,0.29,
4.391,-0.01,6.90,-0.66,-0.54,1.27,0.29,
4.392,-0.01,6.90,-0.66,-0.52,1.26,0.31,
4.392,-0.01,6.90,-0.66,-0.49,1.22,0.33,
4.392,-0.01,6.90,-0.66,-0.46,1.15,0.37,
4.393,-0.01,6.90,-0.66,-0.43,1.06,0.41,
4.393,-0.01,6.90,-0.66,-0.39,0.96,0.45,
4.394,-1.32,3.44,0.32,-0.39,0.96,0.45,
4.394,-1.32,3.44,0.32,-0.36,0.86,0.49,
4.394,-1.32,3.44,0.32,-0.34,0.76,0.53,
4.395,-1.32,3.44,0.32,-0.31,0.66,0.59,
4.395,-1.32,3.44,0.32,-0.30,0.58,0.66,
4.396,-1.32,3.44,0.32,-0.28,0.51,0.72,
4.396,-2.46,0.65,0.62,-0.28,0.51,0.72,
4.397,-2.46,0.65,0.62,-0.27,0.47,0.77,
4.397,-2.46,0.65,0.62,-0.27,0.43,0.81,
4.397,-2.46,0.65,0.62,-0.26,0.41,0.85,
4.402,-2.46,0.65,0.62,-0.26,0.40,0.89,
4.403,-2.46,0.65,0.62,-0.27,0.39,0.93,
4.406,-1.96,0.20,0.23,-0.27,0.39,0.93,
4.407,-1.96,0.20,0.23,-0.27,0.39,0.96,
4.408,-1.96,0.20,0.23,-0.27,0.39,0.98,
4.408,-1.96,0.20,0.23,-0.26,0.38,0.98,
4.409,-1.96,0.20,0.23,-0.26,0.38,0.97,
4.412,-1.96,0.20,0.23,-0.26,0.37,0.97,
4.413,-0.65,0.64,0.03,-0.26,0.37,0.97,
4.413,-0.65,0.64,0.03,-0.27,0.35,0.97,
4.417,-0.65,0.64,0.03,-0.26,0.34,0.97,
4.417,-0.65,0.64,0.03,-0.25,0.31,0.98,
4.421,-0.65,0.64,0.03,-0.25,0.27,1.00,
4.425,-0.65,0.64,0.03,-0.24,0.22,1.04,
4.426,-0.91,1.57,0.14,-0.24,0.22,1.04,
4.427,-0.91,1.57,0.14,-0.24,0.15,1.10,
4.427,-0.91,1.57,0.14,-0.24,0.04,1.22,
4.427,-0.91,1.57,0.14,-0.26,-0.10,1.34,
4.428,-0.91,1.57,0.14,-0.26,-0.23,1.44,
4.433,-0.91,1.57,0.14,-0.20,-0.28,1.50,
4.433,-2.56,2.39,0.70,-0.20,-0.28,1.50,
4.434,-2.56,2.39,0.70,-0.12,-0.31,1.51,
4.434,-2.56,2.39,0.70,-0.05,-0.37,1.51,
4.437,-2.56,2.39,0.70,0.02,-0.40,1.49,
4.452,-2.56,2.39,0.70,0.07,-0.42,1.45,
4.455,-2.56,2.39,0.70,0.10,-0.42,1.42,
4.456,-1.07,0.58,-0.19,0.10,-0.42,1.42,
4.457,-1.07,0.58,-0.19,0.13,-0.41,1.40,
4.458,-1.07,0.58,-0.19,0.13,-0.42,1.40,
4.459,-1.07,0.58,-0.19,0.13,-0.43,1.41,
4.46,-1.07,0.58,-0.19,0.11,-0.45,1.44,
4.461,-1.07,0.58,-0.19,0.12,-0.46,1.49,
4.462,-1.24,2.31,-0.36,0.12,-0.46,1.49,
4.462,-1.24,2.31,-0.36,0.12,-0.48,1.53,
4.463,-1.24,2.31,-0.36,0.14,-0.50,1.59,
4.463,-1.24,2.31,-0.36,0.17,-0.53,1.65,
4.464,-1.24,2.31,-0.36,0.20,-0.56,1.71,
4.465,-1.24,2.31,-0.36,0.23,-0.58,1.75,
4.466,-1.38,2.18,-0.13,0.23,-0.58,1.75,
4.467,-1.38,2.18,-0.13,0.25,-0.59,1.76,
4.469,-1.38,2.18,-0.13,0.27,-0.61,1.77,
4.47,-1.38,2.18,-0.13,0.31,-0.61,1.79,
4.47,-1.38,2.18,-0.13,0.34,-0.60,1.81,
4.471,-1.38,2.18,-0.13,0.36,-0.60,1.85,
4.487,-1.53,1.44,-0.38,0.36,-0.60,1.85,
4.49,-1.53,1.44,-0.38,0.38,-0.60,1.90,
4.49,-1.53,1.44,-0.38,0.39,-0.62,1.96,
4.491,-1.53,1.44,-0.38,0.39,-0.64,2.03,
4.491,-1.53,1.44,-0.38,0.39,-0.68,2.12,
4.491,-1.53,1.44,-0.38,0.37,-0.73,2.22,
4.492,-2.17,2.12,-0.62,0.37,-0.73,2.22,
4.492,-2.17,2.12,-0.62,0.34,-0.78,2.33,
4.493,-2.17,2.12,-0.62,0.31,-0.84,2.43,
4.493,-2.17,2.12,-0.62,0.27,-0.91,2.51,
4.493,-2.17,2.12,-0.62,0.24,-0.96,2.58,
4.494,-2.17,2.12,-0.62,0.22,-1.00,2.62,
4.494,-1.36,2.18,-0.61,0.22,-1.00,2.62,
4.494,-1.36,2.18,-0.61,0.19,-1.01,2.63,
4.495,-1.36,2.18,-0.61,0.17,-1.00,2.60,
4.529,-1.36,2.18,-0.61,0.15,-0.97,2.56,
4.53,-1.36,2.18,-0.61,0.13,-0.93,2.51,
4.53,-1.36,2.18,-0.61,0.10,-0.88,2.47,
4.531,-0.44,2.02,-0.57,0.10,-0.88,2.47,
4.531,-0.44,2.02,-0.57,0.06,-0.83,2.45,
4.532,-0.44,2.02,-0.57,-0.01,-0.77,2.42,
4.532,-0.44,2.02,-0.57,-0.08,-0.71,2.42,
4.533,-0.44,2.02,-0.57,-0.16,-0.65,2.41,
4.533,-0.44,2.02,-0.57,-0.23,-0.60,2.41,
4.533,-0.42,0.42,-1.22,-0.23,-0.60,2.41,
4.533,-0.42,0.42,-1.22,-0.30,-0.56,2.41,
4.534,-0.42,0.42,-1.22,-0.36,-0.54,2.43,
4.534,-0.42,0.42,-1.22,-0.41,-0.53,2.46,
4.534,-0.42,0.42,-1.22,-0.45,-0.53,2.49,
4.534,-0.42,0.42,-1.22,-0.49,-0.52,2.54,
4.535,0.06,0.15,-1.07,-0.49,-0.52,2.54,
4.535,0.06,0.15,-1.07,-0.51,-0.52,2.60,
4.535,0.06,0.15,-1.07,-0.52,-0.50,2.68,
4.535,0.06,0.15,-1.07,-0.52,-0.46,2.74,
4.536,0.06,0.15,-1.07,-0.53,-0.41,2.77,
4.536,0.06,0.15,-1.07,-0.51,-0.35,2.78,
4.536,0.79,-1.55,-0.50,-0.51,-0.35,2.78,
4.537,0.79,-1.55,-0.50,-0.49,-0.30,2.76,
4.537,0.79,-1.55,-0.50,-0.46,-0.25,2.73,
4.537,0.79,-1.55,-0.50,-0.43,-0.19,2.68,
4.541,0.79,-1.55,-0.50,-0.39,-0.13,2.62,
4.542,0.79,-1.55,-0.50,-0.36,-0.07,2.55,
4.543,1.78,-3.04,0.15,-0.36,-0.07,2.55,
4.543,1.78,-3.04,0.15,-0.33,0.01,2.48,
4.545,1.78,-3.04,0.15,-0.32,0.09,2.41,
4.546,1.78,-3.04,0.15,-0.30,0.17,2.35,
4.549,1.78,-3.04,0.15,-0.29,0.24,2.30,
4.551,1.78,-3.04,0.15,-0.27,0.30,2.25,
4.553,1.55,-1.92,0.30,-0.27,0.30,2.25,
4.553,1.55,-1.92,0.30,-0.25,0.35,2.22,
4.555,1.55,-1.92,0.30,-0.23,0.38,2.19,
4.557,1.55,-1.92,0.30,-0.20,0.40,2.16,
4.56,1.55,-1.92,0.30,-0.18,0.41,2.14,
4.561,1.55,-1.92,0.30,-0.15,0.40,2.13,
4.563,1.35,0.12,0.48,-0.15,0.40,2.13,
4.563,1.35,0.12,0.48,-0.12,0.39,2.11,
4.564,1.35,0.12,0.48,-0.11,0.37,2.08,
4.566,1.35,0.12,0.48,-0.10,0.36,2.05,
4.579,1.35,0.12,0.48,-0.09,0.34,2.00,
4.583,1.35,0.12,0.48,-0.08,0.32,1.96,
4.583,1.34,0.21,0.32,-0.08,0.32,1.96,
4.583,1.34,0.21,0.32,-0.08,0.30,1.91,
4.583,1.34,0.21,0.32,-0.06,0.27,1.87,
4.584,1.34,0.21,0.32,-0.07,0.25,1.82,
4.584,1.34,0.21,0.32,-0.06,0.21,1.78,
4.584,1.34,0.21,0.32,-0.06,0.18,1.75,
4.584,0.81,-0.91,0.18,-0.06,0.18,1.75,
4.584,0.81,-0.91,0.18,-0.06,0.14,1.75,
4.604,0.81,-0.91,0.18,-0.06,0.10,1.76,
4.604,0.81,-0.91,0.18,-0.06,0.06,1.77,
4.604,0.81,-0.91,0.18,-0.06,0.01,1.79,
4.605,0.81,-0.91,0.18,-0.04,-0.04,1.81,
4.605,-0.09,-3.82,0.14,-0.04,-0.04,1.81,
4.605,-0.09,-3.82,0.14,-0.02,-0.08,1.83,
4.605,-0.09,-3.82,0.14,-0.00,-0.13,1.84,
4.605,-0.09,-3.82,0.14,0.02,-0.18,1.84,
4.606,-0.09,-3.82,0.14,0.04,-0.22,1.80,
4.606,0.54,-6.02,0.33,0.04,-0.22,1.80,
4.606,0.54,-6.02,0.33,0.08,-0.28,1.65,
4.606,0.54,-6.02,0.33,0.08,-0.28,1.65,
4.607,0.54,-6.02,0.33,0.09,-0.31,1.54,
4.607,0.54,-6.02,0.33,0.10,-0.34,1.40,
4.608,0.54,-6.02,0.33,0.12,-0.36,1.25,
4.61,0.54,-6.02,0.33,0.17,-0.39,1.11,
4.613,1.25,-7.32,0.40,0.17,-0.39,1.11,
4.613,1.25,-7.32,0.40,0.21,-0.41,0.99,
4.614,1.25,-7.32,0.40,0.26,-0.42,0.89,
4.616,1.25,-7.32,0.40,0.31,-0.41,0.81,
4.621,1.25,-7.32,0.40,0.35,-0.38,0.76,
4.621,1.25,-7.32,0.40,0.39,-0.35,0.73,
4.625,0.26,-6.62,0.33,0.39,-0.35,0.73,
4.625,0.26,-6.62,0.33,0.42,-0.30,0.71,
4.625,0.26,-6.62,0.33,0.46,-0.24,0.70,
4.629,0.26,-6.62,0.33,0.48,-0.18,0.68,
4.63,0.26,-6.62,0.33,0.50,-0.11,0.65,
4.63,0.26,-6.62,0.33,0.51,-0.04,0.62,
4.64,0.00,-6.48,-0.22,0.51,-0.04,0.62,
4.642,0.00,-6.48,-0.22,0.52,0.04,0.61,
4.642,0.00,-6.48,-0.22,0.49,0.13,0.57,
4.643,0.00,-6.48,-0.22,0.45,0.21,0.51,
4.643,0.00,-6.48,-0.22,0.41,0.29,0.44,
4.644,0.00,-6.48,-0.22,0.37,0.35,0.36,
4.646,0.64,-6.68,-1.01,0.37,0.35,0.36,
4.646,0.64,-6.68,-1.01,0.33,0.40,0.28,
4.647,0.64,-6.68,-1.01,0.29,0.43,0.22,
4.648,0.64,-6.68,-1.01,0.26,0.45,0.18,
4.648,0.64,-6.68,-1.01,0.24,0.46,0.13,
4.66,0.64,-6.68,-1.01,0.22,0.46,0.10,
4.661,0.68,-3.11,-0.67,0.22,0.46,0.10,
4.661,0.68,-3.11,-0.67,0.21,0.46,0.09,
4.662,0.68,-3.11,-0.67,0.20,0.46,0.07,
4.662,0.68,-3.11,-0.67,0.19,0.45,0.05,
4.662,0.68,-3.11,-0.67,0.19,0.44,0.05,
4.664,0.68,-3.11,-0.67,0.18,0.42,0.04,
4.665,0.05,-0.70,-0.43,0.18,0.42,0.04,
4.69,0.05,-0.70,-0.43,0.18,0.41,0.06,
4.69,0.05,-0.70,-0.43,0.17,0.40,0.09,
4.691,0.05,-0.70,-0.43,0.17,0.38,0.12,
4.691,0.05,-0.70,-0.43,0.16,0.36,0.12,
4.692,0.05,-0.70,-0.43,0.15,0.34,0.13,
4.692,-0.24,0.32,-0.44,0.15,0.34,0.13,
4.692,-0.24,0.32,-0.44,0.15,0.31,0.13,
4.693,-0.24,0.32,-0.44,0.14,0.28,0.11,
4.693,-0.24,0.32,-0.44,0.13,0.25,0.11,
4.694,-0.24,0.32,-0.44,0.12,0.23,0.11,
4.694,-0.24,0.32,-0.44,0.10,0.20,0.08,
4.694,0.21,-0.42,-0.59,0.10,0.20,0.08,
4.695,0.21,-0.42,-0.59,0.09,0.17,0.05,
4.695,0.21,-0.42,-0.59,0.07,0.14,0.03,
4.696,0.21,-0.42,-0.59,0.06,0.11,-0.01,
4.696,0.21,-0.42,-0.59,0.04,0.08,-0.02,
4.697,0.21,-0.42,-0.59,0.03,0.06,-0.03,
4.697,0.34,-0.92,-0.63,0.03,0.06,-0.03,
4.697,0.34,-0.92,-0.63,0.02,0.04,-0.05,
4.697,0.34,-0.92,-0.63,0.01,0.02,-0.04,
4.698,0.34,-0.92,-0.63,-0.01,0.00,-0.04,
4.698,0.34,-0.92,-0.63,-0.02,-0.02,-0.05,
4.7,0.34,-0.92,-0.63,-0.03,-0.04,-0.05,
4.706,0.35,-1.34,-0.76,-0.03,-0.04,-0.05,
4.706,0.35,-1.34,-0.76,-0.05,-0.05,-0.05,
4.707,0.35,-1.34,-0.76,-0.06,-0.07,-0.06,
4.707,0.35,-1.34,-0.76,-0.08,-0.08,-0.07,
4.709,0.35,-1.34,-0.76,-0.10,-0.10,-0.09,
4.71,0.35,-1.34,-0.76,-0.12,-0.12,-0.12,
4.713,0.72,-1.65,-0.93,-0.12,-0.12,-0.12,
4.713,0.72,-1.65,-0.93,-0.14,-0.13,-0.15,
4.715,0.72,-1.65,-0.93,-0.17,-0.14,-0.18,
4.717,0.72,-1.65,-0.93,-0.19,-0.14,-0.22,
4.722,0.72,-1.65,-0.93,-0.21,-0.15,-0.25,
4.722,0.72,-1.65,-0.93,-0.23,-0.15,-0.29,
4.723,0.95,-2.10,-1.01,-0.23,-0.15,-0.29,
4.723,0.95,-2.10,-1.01,-0.25,-0.15,-0.33,
4.725,0.95,-2.10,-1.01,-0.27,-0.15,-0.36,
4.728,0.95,-2.10,-1.01,-0.29,-0.14,-0.40,
4.728,0.95,-2.10,-1.01,-0.31,-0.13,-0.44,
4.731,0.95,-2.10,-1.01,-0.32,-0.12,-0.47,
4.735,0.80,-2.62,-1.05,-0.32,-0.12,-0.47,
4.735,0.80,-2.62,-1.05,-0.34,-0.10,-0.50,
4.735,0.80,-2.62,-1.05,-0.36,-0.08,-0.52,
4.748,0.80,-2.62,-1.05,-0.38,-0.06,-0.54,
4.749,0.80,-2.62,-1.05,-0.40,-0.04,-0.55,
4.749,0.80,-2.62,-1.05,-0.41,-0.01,-0.55,
4.749,0.54,-2.17,-1.26,-0.41,-0.01,-0.55,
4.75,0.54,-2.17,-1.26,-0.42,0.00,-0.55,
4.75,0.54,-2.17,-1.26,-0.44,0.02,-0.54,
4.75,0.54,-2.17,-1.26,-0.44,0.03,-0.53,
4.75,0.54,-2.17,-1.26,-0.45,0.04,-0.53,
4.75,0.54,-2.17,-1.26,-0.45,0.04,-0.52,
4.757,0.58,-0.17,-1.32,-0.45,0.04,-0.52,
4.758,0.58,-0.17,-1.32,-0.46,0.05,-0.50,
4.759,0.58,-0.17,-1.32,-0.46,0.04,-0.47,
4.759,0.58,-0.17,-1.32,-0.46,0.04,-0.44,
4.759,0.58,-0.17,-1.32,-0.45,0.03,-0.39,
4.76,0.58,-0.17,-1.32,-0.45,0.02,-0.33,
4.763,0.37,1.56,-1.49,-0.45,0.02,-0.33,
4.763,0.37,1.56,-1.49,-0.45,0.02,-0.27,
4.764,0.37,1.56,-1.49,-0.46,0.01,-0.21,
4.767,0.37,1.56,-1.49,-0.47,0.00,-0.15,
4.769,0.37,1.56,-1.49,-0.48,0.00,-0.11,
4.77,0.37,1.56,-1.49,-0.50,0.00,-0.08,
4.773,0.48,1.84,-1.85,-0.50,0.00,-0.08,
4.773,0.48,1.84,-1.85,-0.52,-0.00,-0.06,
4.774,0.48,1.84,-1.85,-0.54,-0.01,-0.04,
4.777,0.48,1.84,-1.85,-0.56,-0.01,-0.03,
4.778,0.48,1.84,-1.85,-0.59,-0.02,-0.03,
4.78,0.48,1.84,-1.85,-0.61,-0.02,-0.03,
4.783,1.05,1.39,-2.12,-0.61,-0.02,-0.03,
4.784,1.05,1.39,-2.12,-0.63,-0.03,-0.03,
4.784,1.05,1.39,-2.12,-0.66,-0.04,-0.03,
4.788,1.05,1.39,-2.12,-0.68,-0.05,-0.04,
4.789,1.05,1.39,-2.12,-0.70,-0.07,-0.04,
4.79,1.05,1.39,-2.12,-0.73,-0.08,-0.04,
4.793,1.16,0.77,-2.08,-0.73,-0.08,-0.04,
4.793,1.16,0.77,-2.08,-0.75,-0.10,-0.04,
4.794,1.16,0.77,-2.08,-0.78,-0.11,-0.04,
4.796,1.16,0.77,-2.08,-0.81,-0.12,-0.04,
4.799,1.16,0.77,-2.08,-0.83,-0.14,-0.05,
4.801,1.16,0.77,-2.08,-0.86,-0.15,-0.05,
4.803,1.27,0.11,-2.05,-0.86,-0.15,-0.05,
4.804,1.27,0.11,-2.05,-0.90,-0.17,-0.06,
4.805,1.27,0.11,-2.05,-0.93,-0.18,-0.07,
4.806,1.27,0.11,-2.05,-0.96,-0.19,-0.08,
4.808,1.27,0.11,-2.05,-0.99,-0.20,-0.09,
4.81,1.27,0.11,-2.05,-1.01,-0.21,-0.11,
4.813,1.39,-0.49,-1.74,-1.01,-0.21,-0.11,
4.813,1.39,-0.49,-1.74,-1.04,-0.23,-0.13,
4.814,1.39,-0.49,-1.74,-1.07,-0.24,-0.14,
4.816,1.39,-0.49,-1.74,-1.10,-0.26,-0.16,
4.819,1.39,-0.49,-1.74,-1.13,-0.27,-0.18,
4.821,1.39,-0.49,-1.74,-1.15,-0.28,-0.20,
4.823,1.36,-1.03,-1.38,-1.15,-0.28,-0.20,
4.824,1.36,-1.03,-1.38,-1.17,-0.28,-0.22,
4.825,1.36,-1.03,-1.38,-1.19,-0.29,-0.23,
4.827,1.36,-1.03,-1.38,-1.21,-0.30,-0.25,
4.828,1.36,-1.03,-1.38,-1.24,-0.30,-0.27,
4.864,1.36,-1.03,-1.38,-1.26,-0.31,-0.29,
4.864,1.12,-1.29,-1.05,-1.26,-0.31,-0.29,
4.865,1.12,-1.29,-1.05,-1.28,-0.31,-0.31,
4.865,1.12,-1.29,-1.05,-1.30,-0.32,-0.33,
4.866,1.12,-1.29,-1.05,-1.31,-0.32,-0.35,
4.866,1.12,-1.29,-1.05,-1.33,-0.33,-0.37,
4.866,1.12,-1.29,-1.05,-1.35,-0.33,-0.39,
4.867,0.93,-1.26,-0.80,-1.35,-0.33,-0.39,
4.867,0.93,-1.26,-0.80,-1.37,-0.33,-0.41,
4.868,0.93,-1.26,-0.80,-1.39,-0.33,-0.43,
4.868,0.93,-1.26,-0.80,-1.41,-0.33,-0.45,
4.869,0.93,-1.26,-0.80,-1.43,-0.33,-0.48,
4.869,0.93,-1.26,-0.80,-1.45,-0.33,-0.50,
4.869,0.67,-0.99,-0.65,-1.45,-0.33,-0.50,
4.87,0.67,-0.99,-0.65,-1.46,-0.33,-0.52,
4.87,0.67,-0.99,-0.65,-1.48,-0.33,-0.54,
4.871,0.67,-0.99,-0.65,-1.49,-0.33,-0.56,
4.871,0.67,-0.99,-0.65,-1.51,-0.34,-0.57,
4.871,0.67,-0.99,-0.65,-1.52,-0.33,-0.59,
4.872,0.24,-0.94,-0.56,-1.52,-0.33,-0.59,
4.872,0.24,-0.94,-0.56,-1.53,-0.34,-0.59,
4.873,0.24,-0.94,-0.56,-1.54,-0.34,-0.60,
4.873,0.24,-0.94,-0.56,-1.54,-0.34,-0.61,
4.874,0.24,-0.94,-0.56,-1.54,-0.34,-0.61,
4.874,0.24,-0.94,-0.56,-1.55,-0.34,-0.61,
4.874,-0.17,-0.92,-0.44,-1.55,-0.34,-0.61,
4.875,-0.17,-0.92,-0.44,-1.55,-0.34,-0.62,
4.875,-0.17,-0.92,-0.44,-1.54,-0.34,-0.62,
4.884,-0.17,-0.92,-0.44,-1.54,-0.34,-0.63,
4.885,-0.17,-0.92,-0.44,-1.54,-0.33,-0.63,
4.885,-0.17,-0.92,-0.44,-1.54,-0.33,-0.64,
4.885,-0.34,-0.91,-0.37,-1.54,-0.33,-0.64,
4.886,-0.34,-0.91,-0.37,-1.53,-0.32,-0.64,
4.886,-0.34,-0.91,-0.37,-1.53,-0.32,-0.65,
4.886,-0.34,-0.91,-0.37,-1.53,-0.32,-0.65,
4.893,-0.34,-0.91,-0.37,-1.52,-0.33,-0.66,
4.894,-0.34,-0.91,-0.37,-1.52,-0.33,-0.66,
4.894,-0.38,-0.87,-0.36,-1.52,-0.33,-0.66,
4.895,-0.38,-0.87,-0.36,-1.51,-0.33,-0.67,
4.895,-0.38,-0.87,-0.36,-1.51,-0.34,-0.67,
4.897,-0.38,-0.87,-0.36,-1.51,-0.35,-0.67,
4.899,-0.38,-0.87,-0.36,-1.51,-0.36,-0.67,
4.91,-0.38,-0.87,-0.36,-1.51,-0.38,-0.67,
4.91,-0.69,-0.86,-0.42,-1.51,-0.38,-0.67,
4.911,-0.69,-0.86,-0.42,-1.51,-0.41,-0.67,
4.911,-0.69,-0.86,-0.42,-1.52,-0.44,-0.66,
4.911,-0.69,-0.86,-0.42,-1.52,-0.47,-0.66,
4.911,-0.69,-0.86,-0.42,-1.53,-0.51,-0.65,
4.911,-0.69,-0.86,-0.42,-1.53,-0.55,-0.64,
4.914,-1.14,-0.85,-0.27,-1.53,-0.55,-0.64,
4.914,-1.14,-0.85,-0.27,-1.54,-0.59,-0.63,
4.915,-1.14,-0.85,-0.27,-1.54,-0.63,-0.61,
4.919,-1.14,-0.85,-0.27,-1.55,-0.67,-0.60,
4.92,-1.14,-0.85,-0.27,-1.56,-0.72,-0.58,
4.921,-1.14,-0.85,-0.27,-1.56,-0.76,-0.57,
4.925,-1.54,-0.80,0.14,-1.56,-0.76,-0.57,
4.925,-1.54,-0.80,0.14,-1.57,-0.81,-0.55,
4.925,-1.54,-0.80,0.14,-1.57,-0.85,-0.53,
4.926,-1.54,-0.80,0.14,-1.57,-0.90,-0.51,
4.929,-1.54,-0.80,0.14,-1.57,-0.94,-0.49,
4.931,-1.54,-0.80,0.14,-1.57,-0.97,-0.47,
4.933,-1.62,-0.69,0.78,-1.57,-0.97,-0.47,
4.935,-1.62,-0.69,0.78,-1.57,-1.01,-0.45,
4.936,-1.62,-0.69,0.78,-1.56,-1.04,-0.42,
4.936,-1.62,-0.69,0.78,-1.55,-1.07,-0.40,
4.939,-1.62,-0.69,0.78,-1.53,-1.09,-0.38,
4.941,-1.62,-0.69,0.78,-1.52,-1.11,-0.36,
4.943,-1.40,-0.56,1.48,-1.52,-1.11,-0.36,
4.944,-1.40,-0.56,1.48,-1.50,-1.12,-0.34,
4.945,-1.40,-0.56,1.48,-1.48,-1.12,-0.32,
4.946,-1.40,-0.56,1.48,-1.46,-1.12,-0.30,
4.949,-1.40,-0.56,1.48,-1.45,-1.11,-0.29,
4.95,-1.40,-0.56,1.48,-1.42,-1.10,-0.28,
4.953,-0.78,-0.44,1.56,-1.42,-1.10,-0.28,
4.954,-0.78,-0.44,1.56,-1.41,-1.08,-0.27,
4.955,-0.78,-0.44,1.56,-1.39,-1.06,-0.26,
4.956,-0.78,-0.44,1.56,-1.37,-1.04,-0.25,
4.959,-0.78,-0.44,1.56,-1.35,-1.02,-0.24,
4.961,-0.78,-0.44,1.56,-1.33,-1.00,-0.23,
4.963,-0.24,-0.48,1.16,-1.33,-1.00,-0.23,
4.963,-0.24,-0.48,1.16,-1.32,-0.98,-0.22,
4.965,-0.24,-0.48,1.16,-1.30,-0.96,-0.21,
4.967,-0.24,-0.48,1.16,-1.29,-0.93,-0.21,
4.97,-0.24,-0.48,1.16,-1.28,-0.91,-0.21,
4.971,-0.24,-0.48,1.16,-1.27,-0.89,-0.21,
4.973,0.27,-0.49,0.45,-1.27,-0.89,-0.21,
4.974,0.27,-0.49,0.45,-1.26,-0.87,-0.22,
4.974,0.27,-0.49,0.45,-1.26,-0.85,-0.23,
4.977,0.27,-0.49,0.45,-1.25,-0.83,-0.24,
4.978,0.27,-0.49,0.45,-1.25,-0.82,-0.25,
4.98,0.27,-0.49,0.45,-1.24,-0.80,-0.26,
4.983,0.53,-0.79,-0.13,-1.24,-0.80,-0.26,
4.985,0.53,-0.79,-0.13,-1.24,-0.79,-0.27,
