
time,ax,ay,az,wx,wy,wz,
0.003,0.60,-0.07,0.53,-0.04,-0.59,-0.28,
0.003,0.65,0.07,0.47,-0.04,-0.59,-0.28,
0.004,0.65,0.07,0.47,-0.03,-0.61,-0.29,
0.004,0.65,0.07,0.47,-0.02,-0.63,-0.30,
0.004,0.65,0.07,0.47,-0.00,-0.65,-0.31,
0.004,0.65,0.07,0.47,0.00,-0.67,-0.32,
0.007,0.65,0.07,0.47,0.01,-0.69,-0.33,
0.008,0.80,0.02,0.24,0.01,-0.69,-0.33,
0.008,0.80,0.02,0.24,0.01,-0.71,-0.35,
0.009,0.80,0.02,0.24,0.02,-0.74,-0.36,
0.012,0.80,0.02,0.24,0.02,-0.77,-0.38,
0.013,0.80,0.02,0.24,0.02,-0.80,-0.39,
0.016,0.80,0.02,0.24,0.02,-0.82,-0.40,
0.018,0.76,-0.22,-0.22,0.02,-0.82,-0.40,
0.018,0.76,-0.22,-0.22,0.02,-0.85,-0.42,
0.02,0.76,-0.22,-0.22,0.01,-0.87,-0.43,
0.023,0.76,-0.22,-0.22,0.01,-0.88,-0.45,
0.024,0.76,-0.22,-0.22,0.01,-0.87,-0.46,
0.026,0.76,-0.22,-0.22,0.01,-0.86,-0.48,
0.029,0.57,-0.19,-0.29,0.01,-0.86,-0.48,
0.029,0.57,-0.19,-0.29,0.01,-0.85,-0.50,
0.029,0.57,-0.19,-0.29,0.00,-0.85,-0.52,
0.032,0.57,-0.19,-0.29,-0.00,-0.86,-0.55,
0.033,0.57,-0.19,-0.29,-0.00,-0.87,-0.56,
0.036,0.57,-0.19,-0.29,-0.00,-0.89,-0.57,
0.043,0.47,-0.14,-0.35,-0.00,-0.89,-0.57,
0.046,0.47,-0.14,-0.35,0.00,-0.91,-0.59,
0.046,0.47,-0.14,-0.35,0.01,-0.93,-0.60,
0.047,0.47,-0.14,-0.35,0.02,-0.96,-0.61,
0.047,0.47,-0.14,-0.35,0.04,-0.98,-0.62,
0.049,0.47,-0.14,-0.35,0.05,-1.00,-0.63,
0.05,0.26,-0.08,-0.16,0.05,-1.00,-0.63,
0.05,0.26,-0.08,-0.16,0.07,-1.02,-0.63,
0.051,0.26,-0.08,-0.16,0.09,-1.04,-0.64,
0.051,0.26,-0.08,-0.16,0.12,-1.06,-0.65,
0.06,0.26,-0.08,-0.16,0.14,-1.08,-0.66,
0.06,0.26,-0.08,-0.16,0.16,-1.09,-0.67,
0.06,-0.03,0.09,-0.01,0.16,-1.09,-0.67,
0.06,-0.03,0.09,-0.01,0.19,-1.09,-0.68,
0.061,-0.03,0.09,-0.01,0.21,-1.07,-0.70,
0.061,-0.03,0.09,-0.01,0.24,-1.05,-0.71,
0.064,-0.03,0.09,-0.01,0.26,-1.04,-0.72,
0.065,-0.03,0.09,-0.01,0.29,-1.03,-0.73,
0.068,-0.41,0.17,-0.01,0.29,-1.03,-0.73,
0.069,-0.41,0.17,-0.01,0.31,-1.02,-0.74,
0.069,-0.41,0.17,-0.01,0.33,-1.02,-0.74,
0.073,-0.41,0.17,-0.01,0.34,-1.01,-0.75,
0.074,-0.41,0.17,-0.01,0.36,-1.01,-0.74,
0.076,-0.41,0.17,-0.01,0.37,-1.02,-0.74,
0.078,-0.53,0.13,0.15,0.37,-1.02,-0.74,
0.079,-0.53,0.13,0.15,0.38,-1.02,-0.73,
0.08,-0.53,0.13,0.15,0.39,-1.02,-0.72,
0.082,-0.53,0.13,0.15,0.38,-1.00,-0.70,
0.084,-0.53,0.13,0.15,0.38,-1.00,-0.70,
0.085,-0.53,0.13,0.15,0.37,-0.99,-0.68,
0.089,-0.43,0.19,-0.09,0.37,-0.99,-0.68,
0.09,-0.43,0.19,-0.09,0.35,-0.96,-0.66,
0.091,-0.43,0.19,-0.09,0.33,-0.94,-0.65,
0.092,-0.43,0.19,-0.09,0.30,-0.92,-0.63,
0.093,-0.43,0.19,-0.09,0.27,-0.89,-0.62,
0.095,-0.43,0.19,-0.09,0.23,-0.86,-0.61,
0.098,-0.17,0.18,-0.72,0.23,-0.86,-0.61,
0.098,-0.17,0.18,-0.72,0.20,-0.83,-0.59,
0.1,-0.17,0.18,-0.72,0.17,-0.79,-0.58,
0.102,-0.17,0.18,-0.72,0.15,-0.74,-0.57,
0.118,-0.17,0.18,-0.72,0.13,-0.69,-0.55,
0.118,-0.17,0.18,-0.72,0.10,-0.65,-0.53,
0.118,-0.28,0.29,-1.17,0.10,-0.65,-0.53,
0.119,-0.28,0.29,-1.17,0.08,-0.61,-0.51,
0.119,-0.28,0.29,-1.17,0.05,-0.57,-0.49,
0.119,-0.28,0.29,-1.17,0.02,-0.50,-0.45,
0.119,-0.28,0.29,-1.17,0.02,-0.48,-0.44,
0.119,-0.28,0.29,-1.17,0.01,-0.43,-0.41,
0.12,-0.44,0.29,-1.37,0.01,-0.43,-0.41,
0.12,-0.44,0.29,-1.37,0.01,-0.34,-0.38,
0.12,-0.44,0.29,-1.37,0.01,-0.29,-0.36,
0.123,-0.44,0.29,-1.37,0.01,-0.24,-0.34,
0.124,-0.44,0.29,-1.37,0.02,-0.22,-0.33,
0.126,-0.44,0.29,-1.37,0.03,-0.16,-0.31,
0.128,-0.28,0.40,-1.44,0.03,-0.16,-0.31,
0.128,-0.28,0.40,-1.44,0.05,-0.11,-0.30,
0.13,-0.28,0.40,-1.44,0.08,-0.05,-0.28,
0.132,-0.28,0.40,-1.44,0.12,0.03,-0.26,
0.134,-0.28,0.40,-1.44,0.14,0.06,-0.25,
0.136,-0.28,0.40,-1.44,0.18,0.11,-0.23,
0.157,-0.17,0.58,-1.38,0.18,0.11,-0.23,
0.157,-0.17,0.58,-1.38,0.24,0.18,-0.21,
0.157,-0.17,0.58,-1.38,0.27,0.22,-0.20,
0.157,-0.17,0.58,-1.38,0.32,0.28,-0.18,
0.158,-0.17,0.58,-1.38,0.32,0.28,-0.18,
0.158,-0.17,0.58,-1.38,0.37,0.32,-0.15,
0.158,-0.30,0.70,-1.55,0.37,0.32,-0.15,
0.158,-0.30,0.70,-1.55,0.40,0.34,-0.14,
0.158,-0.30,0.70,-1.55,0.43,0.36,-0.12,
0.158,-0.30,0.70,-1.55,0.45,0.37,-0.11,
0.159,-0.30,0.70,-1.55,0.46,0.37,-0.10,
0.159,-0.30,0.70,-1.55,0.48,0.37,-0.09,
0.159,-0.26,0.67,-1.71,0.48,0.37,-0.09,
0.159,-0.26,0.67,-1.71,0.50,0.35,-0.08,
0.159,-0.26,0.67,-1.71,0.51,0.33,-0.07,
0.17,-0.26,0.67,-1.71,0.52,0.31,-0.07,
0.171,-0.26,0.67,-1.71,0.52,0.31,-0.07,
0.171,-0.26,0.67,-1.71,0.51,0.28,-0.07,
0.171,0.10,0.50,-1.97,0.51,0.28,-0.07,
0.171,0.10,0.50,-1.97,0.50,0.27,-0.08,
0.203,0.10,0.50,-1.97,0.49,0.26,-0.09,
0.205,0.10,0.50,-1.97,0.47,0.26,-0.10,
0.206,0.10,0.50,-1.97,0.45,0.26,-0.11,
0.207,0.10,0.50,-1.97,0.43,0.26,-0.12,
0.208,0.26,0.01,-2.39,0.43,0.26,-0.12,
0.209,0.26,0.01,-2.39,0.40,0.27,-0.14,
0.21,0.26,0.01,-2.39,0.37,0.29,-0.16,
0.211,0.26,0.01,-2.39,0.34,0.30,-0.17,
0.212,0.26,0.01,-2.39,0.30,0.33,-0.19,
0.212,0.26,0.01,-2.39,0.27,0.36,-0.21,
0.213,0.32,-0.41,-2.36,0.27,0.36,-0.21,
0.213,0.32,-0.41,-2.36,0.24,0.39,-0.23,
0.214,0.32,-0.41,-2.36,0.21,0.43,-0.25,
0.214,0.32,-0.41,-2.36,0.18,0.47,-0.26,
0.214,0.32,-0.41,-2.36,0.15,0.51,-0.28,
0.214,0.32,-0.41,-2.36,0.12,0.56,-0.29,
0.215,0.14,-0.51,-1.75,0.12,0.56,-0.29,
0.215,0.14,-0.51,-1.75,0.10,0.61,-0.30,
0.215,0.14,-0.51,-1.75,0.08,0.66,-0.31,
0.216,0.14,-0.51,-1.75,0.06,0.70,-0.31,
0.216,0.14,-0.51,-1.75,0.04,0.74,-0.31,
0.216,0.14,-0.51,-1.75,0.03,0.78,-0.31,
0.216,-0.07,-0.37,-1.03,0.03,0.78,-0.31,
0.217,-0.07,-0.37,-1.03,0.02,0.80,-0.31,
0.217,-0.07,-0.37,-1.03,0.00,0.82,-0.30,
0.217,-0.07,-0.37,-1.03,-0.01,0.83,-0.30,
0.217,-0.07,-0.37,-1.03,-0.02,0.83,-0.30,
0.218,-0.07,-0.37,-1.03,-0.03,0.83,-0.30,
0.22,0.21,-0.16,-0.88,-0.03,0.83,-0.30,
0.221,0.21,-0.16,-0.88,-0.05,0.82,-0.30,
0.221,0.21,-0.16,-0.88,-0.06,0.81,-0.29,
0.221,0.21,-0.16,-0.88,-0.08,0.80,-0.29,
0.224,0.21,-0.16,-0.88,-0.09,0.78,-0.29,
0.226,0.21,-0.16,-0.88,-0.11,0.77,-0.28,
0.228,0.49,-0.19,-1.13,-0.11,0.77,-0.28,
0.229,0.49,-0.19,-1.13,-0.12,0.75,-0.28,
0.229,0.49,-0.19,-1.13,-0.14,0.73,-0.28,
0.232,0.49,-0.19,-1.13,-0.15,0.71,-0.28,
0.233,0.49,-0.19,-1.13,-0.16,0.69,-0.28,
0.235,0.49,-0.19,-1.13,-0.17,0.67,-0.29,
0.238,0.72,-0.29,-1.25,-0.17,0.67,-0.29,
0.238,0.72,-0.29,-1.25,-0.18,0.65,-0.29,
0.24,0.72,-0.29,-1.25,-0.20,0.62,-0.30,
0.242,0.72,-0.29,-1.25,-0.21,0.59,-0.30,
0.244,0.72,-0.29,-1.25,-0.22,0.56,-0.32,
0.246,0.72,-0.29,-1.25,-0.24,0.52,-0.33,
0.248,0.98,-0.31,-1.60,-0.24,0.52,-0.33,
0.249,0.98,-0.31,-1.60,-0.26,0.49,-0.34,
0.25,0.98,-0.31,-1.60,-0.28,0.46,-0.35,
0.252,0.98,-0.31,-1.60,-0.29,0.43,-0.37,
0.267,0.98,-0.31,-1.60,-0.32,0.40,-0.38,
0.268,0.98,-0.31,-1.60,-0.34,0.38,-0.39,
0.268,1.04,-0.34,-2.09,-0.34,0.38,-0.39,
0.269,1.04,-0.34,-2.09,-0.36,0.35,-0.41,
0.269,1.04,-0.34,-2.09,-0.38,0.33,-0.42,
0.269,1.04,-0.34,-2.09,-0.41,0.32,-0.43,
0.27,1.04,-0.34,-2.09,-0.43,0.31,-0.43,
0.27,1.04,-0.34,-2.09,-0.46,0.31,-0.44,
0.27,0.88,-0.25,-2.50,-0.46,0.31,-0.44,
0.271,0.88,-0.25,-2.50,-0.48,0.31,-0.45,
0.31,0.88,-0.25,-2.50,-0.51,0.32,-0.45,
0.311,0.88,-0.25,-2.50,-0.53,0.32,-0.45,
0.312,0.88,-0.25,-2.50,-0.56,0.32,-0.46,
0.312,0.88,-0.25,-2.50,-0.58,0.33,-0.46,
0.312,0.86,-0.19,-2.61,-0.58,0.33,-0.46,
0.312,0.86,-0.19,-2.61,-0.60,0.33,-0.46,
0.313,0.86,-0.19,-2.61,-0.63,0.34,-0.45,
0.313,0.86,-0.19,-2.61,-0.65,0.34,-0.45,
0.313,0.86,-0.19,-2.61,-0.67,0.34,-0.44,
0.313,0.86,-0.19,-2.61,-0.69,0.35,-0.43,
0.314,0.70,-0.10,-2.42,-0.69,0.35,-0.43,
0.314,0.70,-0.10,-2.42,-0.70,0.37,-0.42,
0.314,0.70,-0.10,-2.42,-0.72,0.38,-0.40,
0.315,0.70,-0.10,-2.42,-0.73,0.40,-0.39,
0.315,0.70,-0.10,-2.42,-0.73,0.41,-0.37,
0.315,0.70,-0.10,-2.42,-0.74,0.43,-0.35,
0.315,0.52,-0.05,-2.09,-0.74,0.43,-0.35,
0.316,0.52,-0.05,-2.09,-0.74,0.46,-0.33,
0.316,0.52,-0.05,-2.09,-0.74,0.49,-0.31,
0.316,0.52,-0.05,-2.09,-0.73,0.52,-0.29,
0.317,0.52,-0.05,-2.09,-0.72,0.55,-0.27,
0.317,0.52,-0.05,-2.09,-0.71,0.56,-0.25,
0.317,0.24,-0.08,-1.58,-0.71,0.56,-0.25,
0.317,0.24,-0.08,-1.58,-0.69,0.57,-0.23,
0.318,0.24,-0.08,-1.58,-0.66,0.56,-0.21,
0.318,0.24,-0.08,-1.58,-0.64,0.55,-0.20,
0.318,0.24,-0.08,-1.58,-0.62,0.53,-0.18,
0.319,0.24,-0.08,-1.58,-0.61,0.42,-0.19,
0.319,0.10,-0.30,-0.57,-0.61,0.42,-0.19,
0.319,0.10,-0.30,-0.57,-0.61,0.22,-0.20,
0.323,0.10,-0.30,-0.57,-0.61,0.09,-0.21,
0.324,0.10,-0.30,-0.57,-0.61,0.10,-0.22,
0.324,0.10,-0.30,-0.57,-0.60,0.20,-0.22,
0.326,0.10,-0.30,-0.57,-0.57,0.32,-0.23,
0.33,0.77,-0.63,-1.10,-0.57,0.32,-0.23,
0.331,0.77,-0.63,-1.10,-0.53,0.42,-0.24,
0.331,0.77,-0.63,-1.10,-0.49,0.50,-0.26,
0.332,0.77,-0.63,-1.10,-0.46,0.55,-0.28,
0.333,0.77,-0.63,-1.10,-0.43,0.59,-0.31,
0.336,0.77,-0.63,-1.10,-0.40,0.62,-0.33,
0.362,0.99,-0.94,-1.25,-0.40,0.62,-0.33,
0.363,0.99,-0.94,-1.25,-0.37,0.67,-0.35,
0.364,0.99,-0.94,-1.25,-0.34,0.74,-0.38,
0.364,0.99,-0.94,-1.25,-0.31,0.81,-0.40,
0.364,0.99,-0.94,-1.25,-0.26,0.88,-0.42,
0.365,0.99,-0.94,-1.25,-0.22,0.94,-0.44,
0.366,0.78,-1.17,-1.27,-0.22,0.94,-0.44,
0.366,0.78,-1.17,-1.27,-0.18,0.99,-0.46,
0.367,0.78,-1.17,-1.27,-0.13,1.02,-0.48,
0.367,0.78,-1.17,-1.27,-0.09,1.06,-0.50,
0.368,0.78,-1.17,-1.27,-0.04,1.09,-0.52,
0.369,0.78,-1.17,-1.27,0.02,1.11,-0.54,
0.369,0.64,-1.52,-0.80,0.02,1.11,-0.54,
0.369,0.64,-1.52,-0.80,0.07,1.13,-0.55,
0.37,0.64,-1.52,-0.80,0.11,1.12,-0.55,
0.37,0.64,-1.52,-0.80,0.14,1.08,-0.54,
0.371,0.64,-1.52,-0.80,0.17,1.02,-0.53,
0.371,0.64,-1.52,-0.80,0.19,0.96,-0.53,
0.371,0.29,-2.29,-1.20,0.19,0.96,-0.53,
0.372,0.29,-2.29,-1.20,0.21,0.92,-0.54,
0.372,0.29,-2.29,-1.20,0.24,0.88,-0.56,
0.373,0.29,-2.29,-1.20,0.26,0.86,-0.59,
0.379,0.29,-2.29,-1.20,0.28,0.85,-0.62,
0.379,0.29,-2.29,-1.20,0.31,0.85,-0.65,
0.38,1.15,-1.96,-1.04,0.31,0.85,-0.65,
0.38,1.15,-1.96,-1.04,0.34,0.87,-0.69,
0.381,1.15,-1.96,-1.04,0.36,0.89,-0.73,
0.381,1.15,-1.96,-1.04,0.39,0.93,-0.77,
0.383,1.15,-1.96,-1.04,0.42,0.96,-0.81,
0.39,1.15,-1.96,-1.04,0.45,1.01,-0.85,
0.39,1.48,-1.63,-0.59,0.45,1.01,-0.85,
0.391,1.48,-1.63,-0.59,0.48,1.06,-0.89,
0.392,1.48,-1.63,-0.59,0.51,1.11,-0.93,
0.392,1.48,-1.63,-0.59,0.54,1.17,-0.96,
0.394,1.48,-1.63,-0.59,0.57,1.23,-0.99,
0.396,1.48,-1.63,-0.59,0.60,1.28,-1.02,
0.398,1.09,-1.57,-0.73,0.60,1.28,-1.02,
0.399,1.09,-1.57,-0.73,0.63,1.33,-1.05,
0.402,1.09,-1.57,-0.73,0.65,1.37,-1.08,
0.402,1.09,-1.57,-0.73,0.68,1.42,-1.11,
0.41,1.09,-1.57,-0.73,0.70,1.46,-1.13,
0.41,1.09,-1.57,-0.73,0.72,1.49,-1.15,
0.41,0.68,-1.71,-1.35,0.72,1.49,-1.15,
0.411,0.68,-1.71,-1.35,0.74,1.52,-1.17,
0.411,0.68,-1.71,-1.35,0.75,1.54,-1.18,
0.412,0.68,-1.71,-1.35,0.77,1.57,-1.19,
0.413,0.68,-1.71,-1.35,0.79,1.59,-1.20,
0.416,0.68,-1.71,-1.35,0.80,1.60,-1.21,
0.448,0.24,-1.73,-1.89,0.80,1.60,-1.21,
0.448,0.24,-1.73,-1.89,0.81,1.62,-1.21,
0.449,0.24,-1.73,-1.89,0.82,1.64,-1.21,
0.449,0.24,-1.73,-1.89,0.83,1.65,-1.21,
0.449,0.24,-1.73,-1.89,0.84,1.67,-1.21,
0.45,0.24,-1.73,-1.89,0.85,1.69,-1.20,
0.45,-0.21,-1.69,-2.19,0.85,1.69,-1.20,
0.45,-0.21,-1.69,-2.19,0.86,1.71,-1.20,
0.451,-0.21,-1.69,-2.19,0.87,1.73,-1.19,
0.451,-0.21,-1.69,-2.19,0.87,1.76,-1.18,
0.451,-0.21,-1.69,-2.19,0.88,1.79,-1.17,
0.451,-0.21,-1.69,-2.19,0.88,1.83,-1.16,
0.451,-0.48,-1.62,-2.24,0.88,1.83,-1.16,
0.452,-0.48,-1.62,-2.24,0.88,1.86,-1.15,
0.452,-0.48,-1.62,-2.24,0.88,1.91,-1.14,
0.452,-0.48,-1.62,-2.24,0.88,1.95,-1.13,
0.452,-0.48,-1.62,-2.24,0.88,1.99,-1.13,
0.452,-0.48,-1.62,-2.24,0.87,2.03,-1.13,
0.453,-0.37,-1.68,-2.09,0.87,2.03,-1.13,
0.453,-0.37,-1.68,-2.09,0.86,2.07,-1.13,
0.453,-0.37,-1.68,-2.09,0.86,2.11,-1.14,
0.453,-0.37,-1.68,-2.09,0.85,2.14,-1.15,
0.455,-0.37,-1.68,-2.09,0.83,2.18,-1.16,
0.456,-0.37,-1.68,-2.09,0.82,2.21,-1.17,
0.458,0.16,-1.83,-1.93,0.82,2.21,-1.17,
0.458,0.16,-1.83,-1.93,0.80,2.24,-1.18,
0.46,0.16,-1.83,-1.93,0.79,2.28,-1.20,
0.462,0.16,-1.83,-1.93,0.77,2.31,-1.21,
0.464,0.16,-1.83,-1.93,0.75,2.35,-1.23,
0.466,0.16,-1.83,-1.93,0.73,2.38,-1.25,
0.47,0.61,-2.01,-1.95,0.73,2.38,-1.25,
0.47,0.61,-2.01,-1.95,0.70,2.42,-1.27,
0.471,0.61,-2.01,-1.95,0.68,2.47,-1.29,
0.472,0.61,-2.01,-1.95,0.66,2.51,-1.31,
0.474,0.61,-2.01,-1.95,0.63,2.56,-1.33,
0.476,0.61,-2.01,-1.95,0.61,2.60,-1.35,
0.478,0.88,-2.10,-2.04,0.61,2.60,-1.35,
0.479,0.88,-2.10,-2.04,0.59,2.65,-1.38,
0.48,0.88,-2.10,-2.04,0.56,2.69,-1.41,
0.482,0.88,-2.10,-2.04,0.54,2.73,-1.43,
0.484,0.88,-2.10,-2.04,0.51,2.77,-1.47,
0.486,0.88,-2.10,-2.04,0.49,2.81,-1.50,
0.488,1.15,-2.48,-2.06,0.49,2.81,-1.50,
0.489,1.15,-2.48,-2.06,0.46,2.85,-1.54,
0.49,1.15,-2.48,-2.06,0.44,2.88,-1.57,
0.492,1.15,-2.48,-2.06,0.43,2.92,-1.61,
0.494,1.15,-2.48,-2.06,0.41,2.95,-1.65,
0.496,1.15,-2.48,-2.06,0.39,3.00,-1.69,
0.498,1.48,-2.84,-1.92,0.39,3.00,-1.69,
0.498,1.48,-2.84,-1.92,0.39,3.04,-1.74,
0.5,1.48,-2.84,-1.92,0.38,3.08,-1.78,
0.502,1.48,-2.84,-1.92,0.38,3.13,-1.81,
0.531,1.48,-2.84,-1.92,0.38,3.18,-1.85,
0.531,1.48,-2.84,-1.92,0.39,3.23,-1.88,
0.532,1.37,-3.20,-1.63,0.39,3.23,-1.88,
0.532,1.37,-3.20,-1.63,0.39,3.28,-1.91,
0.533,1.37,-3.20,-1.63,0.40,3.34,-1.94,
0.533,1.37,-3.20,-1.63,0.42,3.40,-1.97,
0.533,1.37,-3.20,-1.63,0.44,3.47,-1.99,
0.534,1.37,-3.20,-1.63,0.45,3.54,-2.02,
0.534,1.04,-3.23,-1.30,0.45,3.54,-2.02,
0.535,1.04,-3.23,-1.30,0.48,3.60,-2.04,
0.535,1.04,-3.23,-1.30,0.50,3.68,-2.07,
0.535,1.04,-3.23,-1.30,0.53,3.75,-2.09,
0.536,1.04,-3.23,-1.30,0.57,3.83,-2.11,
0.536,1.04,-3.23,-1.30,0.60,3.91,-2.13,
0.537,0.89,-3.36,-0.85,0.60,3.91,-2.13,
0.537,0.89,-3.36,-0.85,0.64,4.00,-2.16,
0.538,0.89,-3.36,-0.85,0.68,4.08,-2.18,
0.538,0.89,-3.36,-0.85,0.73,4.16,-2.20,
0.538,0.89,-3.36,-0.85,0.78,4.24,-2.23,
0.539,0.89,-3.36,-0.85,0.83,4.31,-2.26,
0.539,0.74,-3.32,-0.31,0.83,4.31,-2.26,
0.54,0.74,-3.32,-0.31,0.88,4.37,-2.28,
0.542,0.74,-3.32,-0.31,0.94,4.42,-2.31,
0.543,0.74,-3.32,-0.31,1.00,4.45,-2.34,
0.544,0.74,-3.32,-0.31,1.06,4.48,-2.37,
0.546,0.74,-3.32,-0.31,1.11,4.49,-2.40,
0.548,0.45,-3.26,0.41,1.11,4.49,-2.40,
0.549,0.45,-3.26,0.41,1.17,4.49,-2.44,
0.551,0.45,-3.26,0.41,1.23,4.48,-2.47,
0.557,0.45,-3.26,0.41,1.28,4.47,-2.51,
0.558,0.45,-3.26,0.41,1.33,4.44,-2.55,
0.558,0.45,-3.26,0.41,1.37,4.40,-2.60,
0.559,0.48,-2.91,0.77,1.37,4.40,-2.60,
0.559,0.48,-2.91,0.77,1.42,4.35,-2.64,
0.56,0.48,-2.91,0.77,1.45,4.30,-2.69,
0.562,0.48,-2.91,0.77,1.48,4.25,-2.74,
0.564,0.48,-2.91,0.77,1.49,4.19,-2.79,
0.566,0.48,-2.91,0.77,1.51,4.14,-2.84,
0.591,0.67,-2.62,0.69,1.51,4.14,-2.84,
0.591,0.67,-2.62,0.69,1.51,4.08,-2.89,
0.591,0.67,-2.62,0.69,1.51,4.02,-2.94,
0.592,0.67,-2.62,0.69,1.49,3.97,-2.99,
0.592,0.67,-2.62,0.69,1.47,3.92,-3.03,
0.592,0.67,-2.62,0.69,1.44,3.87,-3.08,
0.592,0.74,-2.46,0.13,1.44,3.87,-3.08,
0.592,0.74,-2.46,0.13,1.42,3.83,-3.12,
0.593,0.74,-2.46,0.13,1.38,3.79,-3.17,
0.593,0.74,-2.46,0.13,1.33,3.75,-3.21,
0.593,0.74,-2.46,0.13,1.28,3.72,-3.24,
0.593,0.74,-2.46,0.13,1.23,3.68,-3.28,
0.593,0.78,-2.60,-0.60,1.23,3.68,-3.28,
0.594,0.78,-2.60,-0.60,1.18,3.65,-3.31,
0.594,0.78,-2.60,-0.60,1.12,3.61,-3.34,
0.594,0.78,-2.60,-0.60,1.06,3.57,-3.36,
0.594,0.78,-2.60,-0.60,1.00,3.54,-3.39,
0.597,0.78,-2.60,-0.60,0.94,3.50,-3.41,
0.598,0.66,-2.61,-1.27,0.94,3.50,-3.41,
0.598,0.66,-2.61,-1.27,0.87,3.47,-3.43,
0.601,0.66,-2.61,-1.27,0.81,3.43,-3.45,
0.616,0.66,-2.61,-1.27,0.75,3.41,-3.47,
0.617,0.66,-2.61,-1.27,0.68,3.39,-3.48,
0.617,0.66,-2.61,-1.27,0.62,3.36,-3.50,
0.617,0.14,-2.46,-1.71,0.62,3.36,-3.50,
0.617,0.14,-2.46,-1.71,0.56,3.35,-3.51,
0.618,0.14,-2.46,-1.71,0.49,3.33,-3.52,
0.618,0.14,-2.46,-1.71,0.44,3.33,-3.53,
0.618,0.14,-2.46,-1.71,0.38,3.32,-3.54,
0.618,0.14,-2.46,-1.71,0.32,3.32,-3.55,
0.622,-0.60,-2.12,-1.72,0.32,3.32,-3.55,
0.622,-0.60,-2.12,-1.72,0.27,3.33,-3.56,
0.622,-0.60,-2.12,-1.72,0.22,3.33,-3.56,
0.623,-0.60,-2.12,-1.72,0.17,3.33,-3.56,
0.639,-0.60,-2.12,-1.72,0.13,3.33,-3.56,
0.639,-0.60,-2.12,-1.72,0.08,3.34,-3.55,
0.639,-1.98,-1.57,-1.15,0.08,3.34,-3.55,
0.639,-1.98,-1.57,-1.15,0.03,3.34,-3.55,
0.64,-1.98,-1.57,-1.15,-0.01,3.34,-3.55,
0.64,-1.98,-1.57,-1.15,-0.06,3.35,-3.54,
0.64,-1.98,-1.57,-1.15,-0.12,3.36,-3.53,
0.64,-1.98,-1.57,-1.15,-0.17,3.37,-3.53,
0.64,-3.25,-0.93,-0.29,-0.17,3.37,-3.53,
0.641,-3.25,-0.93,-0.29,-0.22,3.36,-3.52,
0.651,-3.25,-0.93,-0.29,-0.33,3.34,-3.51,
0.652,-3.25,-0.93,-0.29,-0.33,3.34,-3.51,
0.652,-3.25,-0.93,-0.29,-0.38,3.32,-3.49,
0.652,-3.25,-0.93,-0.29,-0.43,3.29,-3.48,
0.652,-4.43,-0.48,0.44,-0.43,3.29,-3.48,
0.652,-4.43,-0.48,0.44,-0.47,3.25,-3.46,
0.653,-4.43,-0.48,0.44,-0.52,3.21,-3.44,
0.653,-4.43,-0.48,0.44,-0.57,3.15,-3.42,
0.663,-4.43,-0.48,0.44,-0.62,3.09,-3.40,
0.664,-4.43,-0.48,0.44,-0.67,3.02,-3.37,
0.664,-5.50,-0.47,0.97,-0.67,3.02,-3.37,
0.664,-5.50,-0.47,0.97,-0.71,2.95,-3.35,
0.664,-5.50,-0.47,0.97,-0.76,2.86,-3.32,
0.665,-5.50,-0.47,0.97,-0.80,2.77,-3.29,
0.665,-5.50,-0.47,0.97,-0.85,2.68,-3.26,
0.666,-5.50,-0.47,0.97,-0.89,2.58,-3.23,
0.695,-5.97,-0.81,1.37,-0.89,2.58,-3.23,
0.696,-5.97,-0.81,1.37,-0.93,2.48,-3.20,
0.715,-5.97,-0.81,1.37,-0.96,2.39,-3.17,
0.716,-5.97,-0.81,1.37,-1.00,2.29,-3.13,
0.716,-5.97,-0.81,1.37,-1.03,2.20,-3.11,
0.716,-5.97,-0.81,1.37,-1.07,2.11,-3.08,
0.716,-5.86,-1.14,1.67,-1.07,2.11,-3.08,
0.717,-5.86,-1.14,1.67,-1.10,2.02,-3.06,
0.717,-5.86,-1.14,1.67,-1.12,1.94,-3.03,
0.717,-5.86,-1.14,1.67,-1.15,1.87,-3.01,
0.717,-5.86,-1.14,1.67,-1.16,1.79,-2.99,
0.718,-5.86,-1.14,1.67,-1.18,1.72,-2.97,
0.718,-5.43,-1.19,1.95,-1.18,1.72,-2.97,
0.718,-5.43,-1.19,1.95,-1.19,1.65,-2.96,
0.718,-5.43,-1.19,1.95,-1.20,1.59,-2.95,
0.719,-5.43,-1.19,1.95,-1.20,1.53,-2.94,
0.719,-5.43,-1.19,1.95,-1.20,1.48,-2.94,
0.719,-5.43,-1.19,1.95,-1.20,1.43,-2.94,
0.719,-4.76,-1.03,2.05,-1.20,1.43,-2.94,
0.72,-4.76,-1.03,2.05,-1.20,1.39,-2.94,
0.72,-4.76,-1.03,2.05,-1.19,1.35,-2.94,
0.72,-4.76,-1.03,2.05,-1.18,1.32,-2.94,
0.721,-4.76,-1.03,2.05,-1.17,1.30,-2.95,
0.721,-4.76,-1.03,2.05,-1.15,1.27,-2.95,
0.721,-4.33,-0.66,1.91,-1.15,1.27,-2.95,
0.721,-4.33,-0.66,1.91,-1.13,1.26,-2.96,
0.722,-4.33,-0.66,1.91,-1.11,1.26,-2.96,
0.722,-4.33,-0.66,1.91,-1.09,1.26,-2.96,
0.722,-4.33,-0.66,1.91,-1.06,1.27,-2.96,
0.722,-4.33,-0.66,1.91,-1.04,1.28,-2.97,
0.723,-4.35,-0.28,1.59,-1.04,1.28,-2.97,
0.723,-4.35,-0.28,1.59,-1.01,1.30,-2.97,
0.723,-4.35,-0.28,1.59,-0.98,1.33,-2.97,
0.724,-4.35,-0.28,1.59,-0.95,1.35,-2.97,
0.724,-4.35,-0.28,1.59,-0.92,1.38,-2.96,
0.725,-4.35,-0.28,1.59,-0.88,1.41,-2.96,
0.728,-4.63,0.15,1.36,-0.88,1.41,-2.96,
0.728,-4.63,0.15,1.36,-0.85,1.45,-2.96,
0.729,-4.63,0.15,1.36,-0.82,1.48,-2.95,
0.731,-4.63,0.15,1.36,-0.78,1.50,-2.94,
0.734,-4.63,0.15,1.36,-0.75,1.53,-2.93,
0.736,-4.63,0.15,1.36,-0.72,1.55,-2.92,
0.739,-5.01,0.59,1.23,-0.72,1.55,-2.92,
0.739,-5.01,0.59,1.23,-0.68,1.57,-2.91,
0.739,-5.01,0.59,1.23,-0.65,1.58,-2.90,
0.741,-5.01,0.59,1.23,-0.62,1.58,-2.89,
0.744,-5.01,0.59,1.23,-0.59,1.58,-2.87,
0.746,-5.01,0.59,1.23,-0.56,1.58,-2.86,
0.748,-5.34,1.03,1.25,-0.56,1.58,-2.86,
0.749,-5.34,1.03,1.25,-0.53,1.57,-2.84,
0.749,-5.34,1.03,1.25,-0.51,1.56,-2.83,
0.752,-5.34,1.03,1.25,-0.49,1.54,-2.82,
0.754,-5.34,1.03,1.25,-0.47,1.53,-2.80,
0.756,-5.34,1.03,1.25,-0.45,1.50,-2.79,
0.759,-5.66,1.09,1.18,-0.45,1.50,-2.79,
0.759,-5.66,1.09,1.18,-0.44,1.48,-2.78,
0.76,-5.66,1.09,1.18,-0.43,1.46,-2.77,
0.762,-5.66,1.09,1.18,-0.43,1.43,-2.76,
0.764,-5.66,1.09,1.18,-0.43,1.40,-2.75,
0.77,-5.66,1.09,1.18,-0.42,1.37,-2.74,
0.771,-5.93,0.85,1.09,-0.42,1.37,-2.74,
0.772,-5.93,0.85,1.09,-0.43,1.33,-2.73,
0.772,-5.93,0.85,1.09,-0.43,1.29,-2.72,
0.772,-5.93,0.85,1.09,-0.44,1.26,-2.72,
0.773,-5.93,0.85,1.09,-0.45,1.22,-2.72,
0.775,-5.93,0.85,1.09,-0.47,1.18,-2.72,
0.778,-6.22,0.29,1.04,-0.47,1.18,-2.72,
0.778,-6.22,0.29,1.04,-0.48,1.14,-2.72,
0.779,-6.22,0.29,1.04,-0.50,1.10,-2.73,
0.781,-6.22,0.29,1.04,-0.52,1.06,-2.74,
0.784,-6.22,0.29,1.04,-0.53,1.02,-2.74,
0.785,-6.22,0.29,1.04,-0.55,0.98,-2.75,
0.788,-6.63,-0.09,1.20,-0.55,0.98,-2.75,
0.788,-6.63,-0.09,1.20,-0.57,0.94,-2.76,
0.79,-6.63,-0.09,1.20,-0.58,0.90,-2.77,
0.791,-6.63,-0.09,1.20,-0.60,0.86,-2.78,
0.793,-6.63,-0.09,1.20,-0.61,0.83,-2.79,
0.796,-6.63,-0.09,1.20,-0.62,0.80,-2.79,
0.8,-7.15,-0.07,1.90,-0.62,0.80,-2.79,
0.801,-7.15,-0.07,1.90,-0.63,0.76,-2.79,
0.801,-7.15,-0.07,1.90,-0.63,0.73,-2.79,
0.802,-7.15,-0.07,1.90,-0.63,0.71,-2.79,
0.804,-7.15,-0.07,1.90,-0.63,0.68,-2.79,
0.805,-7.15,-0.07,1.90,-0.62,0.66,-2.78,
0.808,-7.91,0.21,3.09,-0.62,0.66,-2.78,
0.809,-7.91,0.21,3.09,-0.61,0.65,-2.77,
0.809,-7.91,0.21,3.09,-0.60,0.63,-2.76,
0.812,-7.91,0.21,3.09,-0.58,0.62,-2.75,
0.813,-7.91,0.21,3.09,-0.57,0.60,-2.73,
0.82,-7.91,0.21,3.09,-0.55,0.58,-2.71,
0.821,-8.63,0.46,3.92,-0.55,0.58,-2.71,
0.821,-8.63,0.46,3.92,-0.52,0.56,-2.69,
0.821,-8.63,0.46,3.92,-0.49,0.53,-2.67,
0.822,-8.63,0.46,3.92,-0.47,0.51,-2.64,
0.824,-8.63,0.46,3.92,-0.43,0.48,-2.60,
0.826,-8.63,0.46,3.92,-0.40,0.44,-2.56,
0.829,-9.41,0.86,4.36,-0.40,0.44,-2.56,
0.829,-9.41,0.86,4.36,-0.37,0.41,-2.52,
0.83,-9.41,0.86,4.36,-0.33,0.37,-2.47,
0.832,-9.41,0.86,4.36,-0.30,0.32,-2.41,
0.835,-9.41,0.86,4.36,-0.26,0.27,-2.34,
0.842,-9.41,0.86,4.36,-0.22,0.22,-2.27,
0.863,-10.05,1.27,4.25,-0.22,0.22,-2.27,
0.863,-10.05,1.27,4.25,-0.18,0.16,-2.20,
0.864,-10.05,1.27,4.25,-0.14,0.10,-2.12,
0.864,-10.05,1.27,4.25,-0.11,0.04,-2.03,
0.864,-10.05,1.27,4.25,-0.07,-0.03,-1.94,
0.865,-10.05,1.27,4.25,-0.03,-0.10,-1.85,
0.865,-10.59,1.76,4.14,-0.03,-0.10,-1.85,
0.865,-10.59,1.76,4.14,0.01,-0.17,-1.75,
0.866,-10.59,1.76,4.14,0.05,-0.25,-1.65,
0.866,-10.59,1.76,4.14,0.09,-0.34,-1.55,
0.866,-10.59,1.76,4.14,0.13,-0.44,-1.45,
0.867,-10.59,1.76,4.14,0.17,-0.54,-1.35,
0.867,-10.55,1.92,3.97,0.17,-0.54,-1.35,
0.868,-10.55,1.92,3.97,0.21,-0.65,-1.25,
0.868,-10.55,1.92,3.97,0.24,-0.78,-1.15,
0.868,-10.55,1.92,3.97,0.27,-0.90,-1.05,
0.869,-10.55,1.92,3.97,0.31,-1.03,-0.96,
0.869,-10.55,1.92,3.97,0.34,-1.16,-0.86,
0.871,-10.00,2.29,3.78,0.34,-1.16,-0.86,
0.872,-10.00,2.29,3.78,0.37,-1.29,-0.77,
0.872,-10.00,2.29,3.78,0.40,-1.42,-0.69,
0.872,-10.00,2.29,3.78,0.43,-1.54,-0.60,
0.874,-10.00,2.29,3.78,0.46,-1.65,-0.53,
0.876,-10.00,2.29,3.78,0.49,-1.76,-0.46,
0.878,-8.83,2.24,3.43,0.49,-1.76,-0.46,
0.878,-8.83,2.24,3.43,0.52,-1.85,-0.39,
0.881,-8.83,2.24,3.43,0.56,-1.94,-0.34,
0.881,-8.83,2.24,3.43,0.59,-2.03,-0.28,
0.884,-8.83,2.24,3.43,0.63,-2.10,-0.24,
0.886,-8.83,2.24,3.43,0.66,-2.17,-0.20,
0.892,-7.25,1.84,3.02,0.66,-2.17,-0.20,
0.892,-7.25,1.84,3.02,0.69,-2.22,-0.17,
0.892,-7.25,1.84,3.02,0.73,-2.27,-0.14,
0.892,-7.25,1.84,3.02,0.76,-2.31,-0.12,
0.893,-7.25,1.84,3.02,0.79,-2.34,-0.10,
0.896,-7.25,1.84,3.02,0.83,-2.38,-0.09,
0.898,-5.67,1.19,1.93,0.83,-2.38,-0.09,
0.898,-5.67,1.19,1.93,0.86,-2.40,-0.09,
0.901,-5.67,1.19,1.93,0.89,-2.42,-0.09,
0.902,-5.67,1.19,1.93,0.92,-2.44,-0.08,
0.904,-5.67,1.19,1.93,0.95,-2.45,-0.09,
0.906,-5.67,1.19,1.93,0.98,-2.46,-0.09,
0.908,-4.35,0.96,0.90,0.98,-2.46,-0.09,
0.908,-4.35,0.96,0.90,1.00,-2.47,-0.10,
0.909,-4.35,0.96,0.90,1.03,-2.46,-0.10,
0.912,-4.35,0.96,0.90,1.06,-2.44,-0.11,
0.914,-4.35,0.96,0.90,1.08,-2.42,-0.12,
0.917,-4.35,0.96,0.90,1.11,-2.40,-0.12,
0.923,-3.25,0.99,0.27,1.11,-2.40,-0.12,
0.924,-3.25,0.99,0.27,1.13,-2.37,-0.12,
0.924,-3.25,0.99,0.27,1.15,-2.34,-0.12,
0.924,-3.25,0.99,0.27,1.17,-2.31,-0.12,
0.925,-3.25,0.99,0.27,1.18,-2.29,-0.11,
0.926,-3.25,0.99,0.27,1.19,-2.27,-0.11,
0.928,-2.84,1.05,-0.32,1.19,-2.27,-0.11,
0.929,-2.84,1.05,-0.32,1.20,-2.25,-0.10,
0.931,-2.84,1.05,-0.32,1.21,-2.22,-0.09,
0.932,-2.84,1.05,-0.32,1.22,-2.19,-0.07,
0.933,-2.84,1.05,-0.32,1.23,-2.15,-0.06,
0.936,-2.84,1.05,-0.32,1.24,-2.09,-0.04,
0.941,-2.81,0.74,-0.62,1.24,-2.09,-0.04,
0.941,-2.81,0.74,-0.62,1.26,-2.02,-0.02,
0.941,-2.81,0.74,-0.62,1.28,-1.92,0.00,
0.942,-2.81,0.74,-0.62,1.32,-1.79,0.02,
0.945,-2.81,0.74,-0.62,1.37,-1.62,0.04,
0.945,-2.81,0.74,-0.62,1.42,-1.42,0.06,
0.948,-2.43,-0.12,0.46,1.42,-1.42,0.06,
0.952,-2.43,-0.12,0.46,1.49,-1.18,0.07,
0.953,-2.43,-0.12,0.46,1.56,-0.95,0.09,
0.953,-2.43,-0.12,0.46,1.62,-0.77,0.11,
0.955,-2.43,-0.12,0.46,1.69,-0.66,0.13,
0.96,-2.43,-0.12,0.46,1.75,-0.61,0.14,
0.961,-1.31,0.02,0.81,1.75,-0.61,0.14,
0.961,-1.31,0.02,0.81,1.80,-0.63,0.16,
0.961,-1.31,0.02,0.81,1.86,-0.69,0.17,
0.962,-1.31,0.02,0.81,1.90,-0.77,0.18,
0.964,-1.31,0.02,0.81,1.94,-0.86,0.18,
0.97,-1.31,0.02,0.81,1.98,-0.93,0.19,
0.97,-1.23,1.05,-0.52,1.98,-0.93,0.19,
0.97,-1.23,1.05,-0.52,2.00,-1.01,0.20,
0.971,-1.23,1.05,-0.52,2.02,-1.08,0.20,
0.972,-1.23,1.05,-0.52,2.04,-1.11,0.21,
0.976,-1.23,1.05,-0.52,2.07,-1.11,0.21,
0.976,-1.23,1.05,-0.52,2.10,-1.09,0.22,
0.979,-0.98,1.23,-0.78,2.10,-1.09,0.22,
0.979,-0.98,1.23,-0.78,2.14,-1.05,0.23,
0.981,-0.98,1.23,-0.78,2.17,-0.99,0.23,
0.982,-0.98,1.23,-0.78,2.19,-0.92,0.24,
0.984,-0.98,1.23,-0.78,2.21,-0.85,0.26,
0.986,-0.98,1.23,-0.78,2.23,-0.78,0.27,
0.988,-0.68,1.12,-1.08,2.23,-0.78,0.27,
0.988,-0.68,1.12,-1.08,2.24,-0.72,0.29,
0.991,-0.68,1.12,-1.08,2.24,-0.68,0.31,
0.992,-0.68,1.12,-1.08,2.24,-0.65,0.33,
0.993,-0.68,1.12,-1.08,2.22,-0.61,0.35,
0.997,-0.68,1.12,-1.08,2.19,-0.55,0.37,
0.998,-0.30,1.21,-2.80,2.19,-0.55,0.37,
0.998,-0.30,1.21,-2.80,2.14,-0.48,0.39,
1.0,-0.30,1.21,-2.80,2.07,-0.41,0.41,
1.002,-0.30,1.21,-2.80,1.99,-0.35,0.44,
1.021,-0.30,1.21,-2.80,1.88,-0.29,0.45,
1.021,-0.30,1.21,-2.80,1.75,-0.22,0.46,
1.021,0.61,1.42,-5.88,1.75,-0.22,0.46,
1.022,0.61,1.42,-5.88,1.61,-0.13,0.46,
1.022,0.61,1.42,-5.88,1.45,-0.00,0.46,
1.022,0.61,1.42,-5.88,1.28,0.15,0.46,
1.023,0.61,1.42,-5.88,1.12,0.32,0.46,
1.023,0.61,1.42,-5.88,0.96,0.49,0.46,
1.023,1.18,1.39,-7.16,0.96,0.49,0.46,
1.023,1.18,1.39,-7.16,0.82,0.66,0.46,
1.024,1.18,1.39,-7.16,0.68,0.82,0.47,
1.024,1.18,1.39,-7.16,0.55,0.99,0.47,
1.028,1.18,1.39,-7.16,0.44,1.15,0.48,
1.03,1.18,1.39,-7.16,0.35,1.33,0.50,
1.03,1.15,1.72,-5.33,0.35,1.33,0.50,
1.03,1.15,1.72,-5.33,0.26,1.53,0.51,
1.03,1.15,1.72,-5.33,0.19,1.74,0.54,
1.032,1.15,1.72,-5.33,0.13,1.96,0.57,
1.034,1.15,1.72,-5.33,0.09,2.15,0.61,
1.036,1.15,1.72,-5.33,0.05,2.29,0.66,
1.038,0.46,2.03,-2.59,0.05,2.29,0.66,
1.038,0.46,2.03,-2.59,0.01,2.36,0.72,
1.04,0.46,2.03,-2.59,-0.01,2.36,0.79,
1.042,0.46,2.03,-2.59,-0.03,2.30,0.86,
1.044,0.46,2.03,-2.59,-0.04,2.21,0.92,
1.047,0.46,2.03,-2.59,-0.03,2.10,0.99,
1.049,0.38,1.96,-1.52,-0.03,2.10,0.99,
1.049,0.38,1.96,-1.52,-0.00,1.99,1.04,
1.05,0.38,1.96,-1.52,0.04,1.91,1.10,
1.055,0.38,1.96,-1.52,0.09,1.85,1.14,
1.056,0.38,1.96,-1.52,0.16,1.82,1.18,
1.056,0.38,1.96,-1.52,0.23,1.81,1.22,
1.058,1.02,2.28,-0.02,0.23,1.81,1.22,
1.059,1.02,2.28,-0.02,0.32,1.83,1.26,
1.06,1.02,2.28,-0.02,0.41,1.88,1.30,
1.062,1.02,2.28,-0.02,0.50,1.94,1.33,
1.064,1.02,2.28,-0.02,0.60,2.01,1.37,
1.065,1.02,2.28,-0.02,0.70,2.09,1.41,
1.069,1.39,2.54,1.07,0.70,2.09,1.41,
1.069,1.39,2.54,1.07,0.81,2.15,1.45,
1.07,1.39,2.54,1.07,0.93,2.20,1.48,
1.072,1.39,2.54,1.07,1.07,2.23,1.50,
1.073,1.39,2.54,1.07,1.22,2.26,1.51,
1.076,1.39,2.54,1.07,1.37,2.27,1.51,
1.078,2.86,2.25,2.36,1.37,2.27,1.51,
1.078,2.86,2.25,2.36,1.53,2.29,1.52,
1.081,2.86,2.25,2.36,1.68,2.29,1.52,
1.086,2.86,2.25,2.36,1.82,2.28,1.52,
1.086,2.86,2.25,2.36,1.96,2.25,1.53,
1.087,2.86,2.25,2.36,2.08,2.21,1.54,
1.089,3.60,2.14,1.83,2.08,2.21,1.54,
1.091,3.60,2.14,1.83,2.19,2.16,1.56,
1.091,3.60,2.14,1.83,2.29,2.13,1.57,
1.094,3.60,2.14,1.83,2.38,2.10,1.59,
1.094,3.60,2.14,1.83,2.46,2.09,1.63,
1.096,3.60,2.14,1.83,2.53,2.08,1.67,
1.113,3.03,2.26,0.51,2.53,2.08,1.67,
1.114,3.03,2.26,0.51,2.60,2.07,1.72,
1.114,3.03,2.26,0.51,2.64,2.06,1.78,
1.115,3.03,2.26,0.51,2.67,2.05,1.82,
1.115,3.03,2.26,0.51,2.68,2.05,1.86,
1.115,3.03,2.26,0.51,2.67,2.04,1.91,
1.115,1.74,3.05,-0.51,2.67,2.04,1.91,
1.115,1.74,3.05,-0.51,2.67,2.02,1.96,
1.116,1.74,3.05,-0.51,2.66,1.99,2.03,
1.116,1.74,3.05,-0.51,2.66,1.96,2.10,
1.116,1.74,3.05,-0.51,2.64,1.95,2.17,
1.117,1.74,3.05,-0.51,2.63,1.93,2.23,
1.118,0.68,4.72,0.73,2.63,1.93,2.23,
1.118,0.68,4.72,0.73,2.61,1.92,2.28,
1.123,0.68,4.72,0.73,2.58,1.90,2.31,
1.124,0.68,4.72,0.73,2.55,1.88,2.31,
1.124,0.68,4.72,0.73,2.50,1.85,2.28,
1.125,0.68,4.72,0.73,2.45,1.79,2.24,
1.128,4.68,3.53,-0.09,2.45,1.79,2.24,
1.128,4.68,3.53,-0.09,2.38,1.71,2.18,
1.131,4.68,3.53,-0.09,2.31,1.61,2.10,
1.132,4.68,3.53,-0.09,2.23,1.50,2.02,
1.134,4.68,3.53,-0.09,2.14,1.38,1.94,
1.139,4.68,3.53,-0.09,2.04,1.27,1.85,
1.139,6.54,1.19,-2.51,2.04,1.27,1.85,
1.14,6.54,1.19,-2.51,1.94,1.18,1.77,
1.144,6.54,1.19,-2.51,1.83,1.10,1.68,
1.145,6.54,1.19,-2.51,1.61,1.00,1.52,
1.145,6.54,1.19,-2.51,1.61,1.00,1.52,
1.145,6.54,1.19,-2.51,1.49,0.97,1.45,
1.153,6.89,0.05,-4.05,1.49,0.97,1.45,
1.155,6.89,0.05,-4.05,1.37,0.97,1.37,
1.156,6.89,0.05,-4.05,1.25,0.97,1.30,
1.156,6.89,0.05,-4.05,1.12,0.99,1.23,
1.156,6.89,0.05,-4.05,1.00,1.01,1.16,
1.156,6.89,0.05,-4.05,0.87,1.03,1.09,
1.16,7.79,-0.48,-3.95,0.87,1.03,1.09,
1.16,7.79,-0.48,-3.95,0.75,1.06,1.02,
1.16,7.79,-0.48,-3.95,0.62,1.09,0.95,
1.162,7.79,-0.48,-3.95,0.50,1.13,0.88,
1.164,7.79,-0.48,-3.95,0.39,1.17,0.82,
1.166,7.79,-0.48,-3.95,0.27,1.20,0.76,
1.169,8.25,-1.58,-3.48,0.27,1.20,0.76,
1.169,8.25,-1.58,-3.48,0.10,1.24,0.68,
1.187,8.25,-1.58,-3.48,0.04,1.25,0.65,
1.188,8.25,-1.58,-3.48,-0.07,1.28,0.60,
1.188,8.25,-1.58,-3.48,-0.19,1.30,0.55,
1.188,8.25,-1.58,-3.48,-0.30,1.32,0.50,
1.188,7.87,-1.93,-3.28,-0.30,1.32,0.50,
1.189,7.87,-1.93,-3.28,-0.40,1.34,0.45,
1.189,7.87,-1.93,-3.28,-0.51,1.35,0.41,
1.189,7.87,-1.93,-3.28,-0.61,1.35,0.36,
1.189,7.87,-1.93,-3.28,-0.70,1.35,0.31,
1.19,7.87,-1.93,-3.28,-0.80,1.35,0.27,
1.19,7.02,-1.72,-3.61,-0.80,1.35,0.27,
1.19,7.02,-1.72,-3.61,-0.89,1.34,0.23,
1.191,7.02,-1.72,-3.61,-0.97,1.34,0.19,
1.193,7.02,-1.72,-3.61,-1.06,1.33,0.15,
1.194,7.02,-1.72,-3.61,-1.13,1.33,0.12,
1.195,7.02,-1.72,-3.61,-1.21,1.32,0.08,
1.198,5.36,-0.65,-3.34,-1.21,1.32,0.08,
1.199,5.36,-0.65,-3.34,-1.28,1.30,0.04,
1.2,5.36,-0.65,-3.34,-1.35,1.29,0.00,
1.201,5.36,-0.65,-3.34,-1.41,1.27,-0.03,
1.203,5.36,-0.65,-3.34,-1.47,1.27,-0.07,
1.205,5.36,-0.65,-3.34,-1.53,1.26,-0.12,
1.208,4.44,0.32,-2.99,-1.53,1.26,-0.12,
1.208,4.44,0.32,-2.99,-1.59,1.27,-0.17,
1.209,4.44,0.32,-2.99,-1.65,1.28,-0.21,
1.212,4.44,0.32,-2.99,-1.70,1.30,-0.26,
1.213,4.44,0.32,-2.99,-1.76,1.32,-0.31,
1.218,4.44,0.32,-2.99,-1.81,1.35,-0.36,
1.218,3.90,0.61,-3.03,-1.81,1.35,-0.36,
1.219,3.90,0.61,-3.03,-1.87,1.37,-0.42,
1.219,3.90,0.61,-3.03,-1.93,1.40,-0.48,
1.222,3.90,0.61,-3.03,-1.99,1.42,-0.53,
1.224,3.90,0.61,-3.03,-2.05,1.44,-0.59,
1.226,3.90,0.61,-3.03,-2.10,1.46,-0.65,
1.228,3.28,0.82,-3.48,-2.10,1.46,-0.65,
1.228,3.28,0.82,-3.48,-2.15,1.48,-0.72,
1.23,3.28,0.82,-3.48,-2.20,1.49,-0.78,
1.241,3.28,0.82,-3.48,-2.24,1.49,-0.84,
1.242,3.28,0.82,-3.48,-2.28,1.49,-0.89,
1.242,3.28,0.82,-3.48,-2.32,1.48,-0.94,
1.243,1.37,1.25,-2.91,-2.32,1.48,-0.94,
1.243,1.37,1.25,-2.91,-2.35,1.47,-0.98,
1.243,1.37,1.25,-2.91,-2.38,1.46,-1.02,
1.243,1.37,1.25,-2.91,-2.41,1.44,-1.05,
1.245,1.37,1.25,-2.91,-2.44,1.42,-1.07,
1.246,1.37,1.25,-2.91,-2.46,1.40,-1.09,
1.248,-1.43,1.47,-2.41,-2.46,1.40,-1.09,
1.248,-1.43,1.47,-2.41,-2.48,1.38,-1.11,
1.25,-1.43,1.47,-2.41,-2.50,1.34,-1.13,
1.252,-1.43,1.47,-2.41,-2.52,1.30,-1.14,
1.254,-1.43,1.47,-2.41,-2.53,1.26,-1.15,
1.256,-1.43,1.47,-2.41,-2.54,1.22,-1.16,
1.258,-2.44,1.57,-1.69,-2.54,1.22,-1.16,
1.258,-2.44,1.57,-1.69,-2.55,1.19,-1.16,
1.26,-2.44,1.57,-1.69,-2.56,1.15,-1.15,
1.261,-2.44,1.57,-1.69,-2.57,1.12,-1.15,
1.263,-2.44,1.57,-1.69,-2.57,1.11,-1.15,
1.265,-2.44,1.57,-1.69,-2.58,1.11,-1.14,
1.268,-2.44,1.62,-0.99,-2.58,1.11,-1.14,
1.268,-2.44,1.62,-0.99,-2.58,1.12,-1.14,
1.269,-2.44,1.62,-0.99,-2.60,1.13,-1.13,
1.272,-2.44,1.62,-0.99,-2.64,1.13,-1.13,
1.273,-2.44,1.62,-0.99,-2.68,1.14,-1.13,
1.276,-2.44,1.62,-0.99,-2.74,1.15,-1.13,
1.278,-2.19,1.16,-1.99,-2.74,1.15,-1.13,
1.278,-2.19,1.16,-1.99,-2.82,1.18,-1.13,
1.279,-2.19,1.16,-1.99,-2.90,1.22,-1.13,
1.282,-2.19,1.16,-1.99,-3.00,1.29,-1.13,
1.284,-2.19,1.16,-1.99,-3.09,1.37,-1.12,
1.285,-2.19,1.16,-1.99,-3.20,1.46,-1.10,
1.288,-3.76,0.30,-2.99,-3.20,1.46,-1.10,
1.288,-3.76,0.30,-2.99,-3.32,1.55,-1.06,
1.29,-3.76,0.30,-2.99,-3.44,1.64,-1.02,
1.292,-3.76,0.30,-2.99,-3.56,1.75,-0.98,
1.294,-3.76,0.30,-2.99,-3.68,1.85,-0.95,
1.296,-3.76,0.30,-2.99,-3.78,1.93,-0.94,
1.299,-4.78,-1.24,-2.18,-3.78,1.93,-0.94,
1.3,-4.78,-1.24,-2.18,-3.85,2.00,-0.93,
1.302,-4.78,-1.24,-2.18,-3.91,2.05,-0.93,
1.302,-4.78,-1.24,-2.18,-3.95,2.07,-0.93,
1.304,-4.78,-1.24,-2.18,-3.99,2.09,-0.94,
1.306,-4.78,-1.24,-2.18,-4.01,2.10,-0.95,
1.308,-3.80,-2.03,0.86,-4.01,2.10,-0.95,
1.309,-3.80,-2.03,0.86,-4.02,2.10,-0.97,
1.31,-3.80,-2.03,0.86,-4.01,2.10,-0.99,
1.312,-3.80,-2.03,0.86,-3.96,2.08,-1.02,
1.313,-3.80,-2.03,0.86,-3.84,2.05,-1.07,
1.319,-3.80,-2.03,0.86,-3.66,2.01,-1.13,
1.32,-2.42,-2.99,6.38,-3.66,2.01,-1.13,
1.32,-2.42,-2.99,6.38,-3.45,1.96,-1.21,
1.32,-2.42,-2.99,6.38,-3.25,1.91,-1.29,
1.322,-2.42,-2.99,6.38,-3.08,1.85,-1.37,
1.323,-2.42,-2.99,6.38,-2.92,1.78,-1.45,
1.326,-2.42,-2.99,6.38,-2.76,1.70,-1.52,
1.328,-2.23,-3.47,7.32,-2.76,1.70,-1.52,
1.329,-2.23,-3.47,7.32,-2.59,1.60,-1.60,
1.332,-2.23,-3.47,7.32,-2.41,1.50,-1.67,
1.335,-2.23,-3.47,7.32,-2.23,1.42,-1.73,
1.336,-2.23,-3.47,7.32,-2.05,1.36,-1.78,
1.34,-2.23,-3.47,7.32,-1.87,1.31,-1.83,
1.374,-3.66,-3.57,7.36,-1.87,1.31,-1.83,
1.375,-3.66,-3.57,7.36,-1.69,1.27,-1.86,
1.375,-3.66,-3.57,7.36,-1.51,1.25,-1.89,
1.376,-3.66,-3.57,7.36,-1.33,1.23,-1.91,
1.376,-3.66,-3.57,7.36,-1.16,1.23,-1.91,
1.377,-3.66,-3.57,7.36,-0.99,1.23,-1.92,
1.377,-4.88,-3.23,7.64,-0.99,1.23,-1.92,
1.378,-4.88,-3.23,7.64,-0.83,1.23,-1.91,
1.379,-4.88,-3.23,7.64,-0.67,1.23,-1.89,
1.379,-4.88,-3.23,7.64,-0.52,1.23,-1.87,
1.38,-4.88,-3.23,7.64,-0.40,1.22,-1.85,
1.381,-4.88,-3.23,7.64,-0.29,1.23,-1.83,
1.381,-4.46,-2.70,5.91,-0.29,1.23,-1.83,
1.382,-4.46,-2.70,5.91,-0.20,1.25,-1.81,
1.383,-4.46,-2.70,5.91,-0.13,1.29,-1.79,
1.383,-4.46,-2.70,5.91,-0.09,1.34,-1.78,
1.384,-4.46,-2.70,5.91,-0.05,1.41,-1.76,
1.385,-4.46,-2.70,5.91,-0.04,1.49,-1.76,
1.385,-2.48,-2.65,2.35,-0.04,1.49,-1.76,
1.386,-2.48,-2.65,2.35,-0.04,1.58,-1.76,
1.387,-2.48,-2.65,2.35,-0.04,1.68,-1.78,
1.388,-2.48,-2.65,2.35,-0.05,1.78,-1.80,
1.388,-2.48,-2.65,2.35,-0.07,1.88,-1.83,
1.388,-2.48,-2.65,2.35,-0.08,1.98,-1.87,
1.388,0.17,-2.44,0.43,-0.08,1.98,-1.87,
1.389,0.17,-2.44,0.43,-0.09,2.08,-1.93,
1.389,0.17,-2.44,0.43,-0.10,2.20,-1.99,
1.389,0.17,-2.44,0.43,-0.10,2.32,-2.06,
1.39,0.17,-2.44,0.43,-0.10,2.45,-2.14,
1.39,0.17,-2.44,0.43,-0.09,2.59,-2.22,
1.39,2.09,-1.31,0.72,-0.09,2.59,-2.22,
1.39,2.09,-1.31,0.72,-0.08,2.74,-2.31,
1.391,2.09,-1.31,0.72,-0.05,2.87,-2.40,
1.398,2.09,-1.31,0.72,-0.03,3.00,-2.49,
1.399,2.09,-1.31,0.72,0.00,3.13,-2.58,
1.399,2.09,-1.31,0.72,0.04,3.24,-2.67,
1.399,3.12,-0.14,1.79,0.04,3.24,-2.67,
1.4,3.12,-0.14,1.79,0.09,3.33,-2.76,
1.4,3.12,-0.14,1.79,0.14,3.42,-2.85,
1.402,3.12,-0.14,1.79,0.20,3.47,-2.92,
1.406,3.12,-0.14,1.79,0.28,3.50,-2.98,
1.406,3.12,-0.14,1.79,0.37,3.49,-3.01,
1.408,3.45,0.34,3.20,0.37,3.49,-3.01,
1.409,3.45,0.34,3.20,0.47,3.47,-3.02,
1.41,3.45,0.34,3.20,0.58,3.42,-3.01,
1.412,3.45,0.34,3.20,0.69,3.34,-2.97,
1.431,3.45,0.34,3.20,0.82,3.23,-2.90,
1.432,3.45,0.34,3.20,0.95,3.09,-2.81,
1.432,2.50,0.51,3.66,0.95,3.09,-2.81,
1.432,2.50,0.51,3.66,1.10,2.91,-2.70,
1.433,2.50,0.51,3.66,1.25,2.71,-2.56,
1.433,2.50,0.51,3.66,1.40,2.49,-2.40,
1.433,2.50,0.51,3.66,1.56,2.26,-2.22,
1.433,2.50,0.51,3.66,1.71,2.02,-2.04,
1.433,1.13,-0.08,3.13,1.71,2.02,-2.04,
1.434,1.13,-0.08,3.13,1.86,1.80,-1.84,
1.434,1.13,-0.08,3.13,2.00,1.60,-1.66,
1.434,1.13,-0.08,3.13,2.13,1.44,-1.49,
1.434,1.13,-0.08,3.13,2.25,1.32,-1.33,
1.435,1.13,-0.08,3.13,2.35,1.24,-1.21,
1.438,1.20,-0.95,2.32,2.35,1.24,-1.21,
1.438,1.20,-0.95,2.32,2.45,1.19,-1.13,
1.439,1.20,-0.95,2.32,2.53,1.16,-1.10,
1.441,1.20,-0.95,2.32,2.60,1.14,-1.09,
1.443,1.20,-0.95,2.32,2.66,1.11,-1.12,
1.445,1.20,-0.95,2.32,2.71,1.08,-1.18,
1.448,2.61,-2.73,2.46,2.71,1.08,-1.18,
1.448,2.61,-2.73,2.46,2.75,1.04,-1.26,
1.449,2.61,-2.73,2.46,2.78,0.99,-1.36,
1.451,2.61,-2.73,2.46,2.80,0.94,-1.46,
1.453,2.61,-2.73,2.46,2.82,0.86,-1.57,
1.456,2.61,-2.73,2.46,2.83,0.78,-1.67,
1.458,2.78,-2.84,2.85,2.83,0.78,-1.67,
1.459,2.78,-2.84,2.85,2.83,0.69,-1.78,
1.46,2.78,-2.84,2.85,2.82,0.62,-1.90,
1.462,2.78,-2.84,2.85,2.81,0.54,-2.02,
1.464,2.78,-2.84,2.85,2.80,0.47,-2.14,
1.466,2.78,-2.84,2.85,2.78,0.41,-2.26,
1.469,2.85,-3.59,3.27,2.78,0.41,-2.26,
1.469,2.85,-3.59,3.27,2.75,0.38,-2.37,
1.47,2.85,-3.59,3.27,2.72,0.37,-2.48,
1.472,2.85,-3.59,3.27,2.68,0.39,-2.57,
1.474,2.85,-3.59,3.27,2.64,0.42,-2.65,
1.475,2.85,-3.59,3.27,2.59,0.45,-2.71,
1.478,1.53,-4.36,3.19,2.59,0.45,-2.71,
1.478,1.53,-4.36,3.19,2.54,0.50,-2.75,
1.491,1.53,-4.36,3.19,2.48,0.55,-2.78,
1.492,1.53,-4.36,3.19,2.41,0.60,-2.78,
1.492,1.53,-4.36,3.19,2.34,0.64,-2.76,
1.492,1.53,-4.36,3.19,2.27,0.69,-2.73,
1.493,-1.28,-4.20,2.97,2.27,0.69,-2.73,
1.493,-1.28,-4.20,2.97,2.19,0.73,-2.67,
1.494,-1.28,-4.20,2.97,2.11,0.76,-2.59,
1.494,-1.28,-4.20,2.97,2.03,0.77,-2.49,
1.495,-1.28,-4.20,2.97,1.95,0.77,-2.38,
1.525,-1.28,-4.20,2.97,1.87,0.76,-2.26,
1.527,-4.36,-2.54,2.46,1.87,0.76,-2.26,
1.529,-4.36,-2.54,2.46,1.79,0.72,-2.13,
1.529,-4.36,-2.54,2.46,1.72,0.67,-1.98,
1.537,-4.36,-2.54,2.46,1.65,0.60,-1.83,
1.567,-4.36,-2.54,2.46,1.59,0.51,-1.67,
1.567,-4.36,-2.54,2.46,1.53,0.40,-1.52,
1.568,-5.95,-0.18,2.31,1.53,0.40,-1.52,
1.568,-5.95,-0.18,2.31,1.47,0.28,-1.37,
1.569,-5.95,-0.18,2.31,1.41,0.15,-1.22,
1.569,-5.95,-0.18,2.31,1.36,0.00,-1.08,
1.569,-5.95,-0.18,2.31,1.31,-0.15,-0.94,
1.57,-5.95,-0.18,2.31,1.26,-0.30,-0.81,
1.57,-6.12,0.57,1.71,1.26,-0.30,-0.81,
1.571,-6.12,0.57,1.71,1.19,-0.53,-0.64,
1.571,-6.12,0.57,1.71,1.17,-0.60,-0.59,
1.572,-6.12,0.57,1.71,1.12,-0.73,-0.49,
1.572,-6.12,0.57,1.71,1.07,-0.85,-0.40,
1.572,-6.12,0.57,1.71,1.02,-0.95,-0.33,
1.573,-5.50,0.30,0.69,1.02,-0.95,-0.33,
1.573,-5.50,0.30,0.69,0.97,-1.04,-0.26,
1.574,-5.50,0.30,0.69,0.93,-1.12,-0.21,
1.574,-5.50,0.30,0.69,0.89,-1.18,-0.16,
1.574,-5.50,0.30,0.69,0.85,-1.24,-0.13,
1.575,-5.50,0.30,0.69,0.81,-1.29,-0.11,
1.575,-3.89,-0.17,-0.19,0.81,-1.29,-0.11,
1.576,-3.89,-0.17,-0.19,0.78,-1.33,-0.10,
1.576,-3.89,-0.17,-0.19,0.74,-1.36,-0.09,
1.576,-3.89,-0.17,-0.19,0.71,-1.38,-0.09,
1.577,-3.89,-0.17,-0.19,0.69,-1.39,-0.10,
1.577,-3.89,-0.17,-0.19,0.66,-1.40,-0.12,
1.578,-1.67,-0.36,-1.03,0.66,-1.40,-0.12,
1.578,-1.67,-0.36,-1.03,0.64,-1.40,-0.15,
1.578,-1.67,-0.36,-1.03,0.61,-1.40,-0.18,
1.579,-1.67,-0.36,-1.03,0.60,-1.39,-0.22,
1.579,-1.67,-0.36,-1.03,0.59,-1.36,-0.27,
1.58,-1.67,-0.36,-1.03,0.58,-1.31,-0.31,
1.58,0.16,-0.30,-1.50,0.58,-1.31,-0.31,
1.581,0.16,-0.30,-1.50,0.57,-1.24,-0.36,
1.581,0.16,-0.30,-1.50,0.56,-1.15,-0.40,
1.581,0.16,-0.30,-1.50,0.55,-1.05,-0.44,
1.581,0.16,-0.30,-1.50,0.55,-0.94,-0.48,
1.582,0.16,-0.30,-1.50,0.56,-0.83,-0.52,
1.582,0.68,0.02,-1.66,0.56,-0.83,-0.52,
1.582,0.68,0.02,-1.66,0.57,-0.72,-0.55,
1.582,0.68,0.02,-1.66,0.58,-0.60,-0.58,
1.583,0.68,0.02,-1.66,0.60,-0.50,-0.60,
1.583,0.68,0.02,-1.66,0.62,-0.39,-0.63,
1.583,0.68,0.02,-1.66,0.65,-0.29,-0.65,
1.583,0.98,0.46,-0.82,0.65,-0.29,-0.65,
1.584,0.98,0.46,-0.82,0.67,-0.19,-0.67,
1.584,0.98,0.46,-0.82,0.70,-0.09,-0.69,
1.584,0.98,0.46,-0.82,0.74,0.00,-0.72,
1.584,0.98,0.46,-0.82,0.77,0.09,-0.74,
1.586,0.98,0.46,-0.82,0.81,0.18,-0.76,
1.59,1.19,0.77,-0.03,0.81,0.18,-0.76,
1.59,1.19,0.77,-0.03,0.84,0.26,-0.78,
1.591,1.19,0.77,-0.03,0.87,0.34,-0.80,
1.591,1.19,0.77,-0.03,0.91,0.41,-0.81,
1.593,1.19,0.77,-0.03,0.94,0.48,-0.82,
1.596,1.19,0.77,-0.03,0.97,0.54,-0.83,
1.598,0.92,0.82,0.55,0.97,0.54,-0.83,
1.599,0.92,0.82,0.55,1.00,0.58,-0.84,
1.601,0.92,0.82,0.55,1.03,0.61,-0.84,
1.602,0.92,0.82,0.55,1.06,0.64,-0.84,
1.604,0.92,0.82,0.55,1.09,0.65,-0.84,
1.605,0.92,0.82,0.55,1.11,0.65,-0.83,
1.608,0.41,0.75,1.07,1.11,0.65,-0.83,
1.608,0.41,0.75,1.07,1.14,0.64,-0.82,
1.609,0.41,0.75,1.07,1.16,0.63,-0.81,
1.612,0.41,0.75,1.07,1.17,0.61,-0.79,
1.613,0.41,0.75,1.07,1.19,0.59,-0.77,
1.617,0.41,0.75,1.07,1.20,0.56,-0.75,
1.618,0.02,0.43,1.23,1.20,0.56,-0.75,
1.619,0.02,0.43,1.23,1.20,0.54,-0.73,
1.62,0.02,0.43,1.23,1.21,0.52,-0.71,
1.621,0.02,0.43,1.23,1.21,0.50,-0.68,
1.623,0.02,0.43,1.23,1.22,0.47,-0.65,
1.625,0.02,0.43,1.23,1.21,0.44,-0.62,
1.645,-0.06,0.03,1.17,1.21,0.44,-0.62,
1.65,-0.06,0.03,1.17,1.21,0.40,-0.60,
1.65,-0.06,0.03,1.17,1.21,0.36,-0.58,
1.651,-0.06,0.03,1.17,1.20,0.30,-0.56,
1.651,-0.06,0.03,1.17,1.19,0.25,-0.53,
1.651,-0.06,0.03,1.17,1.18,0.19,-0.50,
1.652,-0.33,-0.36,1.08,1.18,0.19,-0.50,
1.652,-0.33,-0.36,1.08,1.17,0.13,-0.48,
1.652,-0.33,-0.36,1.08,1.14,0.01,-0.43,
1.652,-0.33,-0.36,1.08,1.14,0.01,-0.43,
1.653,-0.33,-0.36,1.08,1.12,-0.04,-0.40,
1.653,-0.33,-0.36,1.08,1.10,-0.09,-0.37,
1.653,-0.74,-0.42,0.79,1.10,-0.09,-0.37,
1.654,-0.74,-0.42,0.79,1.08,-0.13,-0.35,
1.654,-0.74,-0.42,0.79,1.06,-0.17,-0.32,
1.657,-0.74,-0.42,0.79,1.01,-0.21,-0.29,
1.658,-0.74,-0.42,0.79,1.00,-0.22,-0.27,
1.658,-0.74,-0.42,0.79,0.97,-0.24,-0.26,
1.659,-0.80,-0.24,0.36,0.97,-0.24,-0.26,
1.659,-0.80,-0.24,0.36,0.95,-0.26,-0.24,
1.662,-0.80,-0.24,0.36,0.93,-0.28,-0.22,
1.662,-0.80,-0.24,0.36,0.92,-0.30,-0.20,
1.679,-0.80,-0.24,0.36,0.90,-0.33,-0.18,
1.68,-0.80,-0.24,0.36,0.90,-0.35,-0.17,
1.68,-1.02,0.23,0.43,0.90,-0.35,-0.17,
1.681,-1.02,0.23,0.43,0.89,-0.39,-0.16,
1.704,-1.02,0.23,0.43,0.89,-0.42,-0.15,
1.704,-1.02,0.23,0.43,0.88,-0.46,-0.15,
1.705,-1.02,0.23,0.43,0.88,-0.50,-0.14,
1.705,-1.02,0.23,0.43,0.88,-0.54,-0.14,
1.705,-0.91,0.62,0.04,0.88,-0.54,-0.14,
1.706,-0.91,0.62,0.04,0.87,-0.57,-0.15,
1.706,-0.91,0.62,0.04,0.86,-0.61,-0.15,
1.706,-0.91,0.62,0.04,0.86,-0.65,-0.16,
1.706,-0.91,0.62,0.04,0.85,-0.69,-0.16,
1.707,-0.91,0.62,0.04,0.85,-0.73,-0.17,
1.707,-0.80,0.93,-0.51,0.85,-0.73,-0.17,
1.707,-0.80,0.93,-0.51,0.84,-0.78,-0.18,
1.707,-0.80,0.93,-0.51,0.83,-0.83,-0.19,
1.708,-0.80,0.93,-0.51,0.82,-0.88,-0.20,
1.708,-0.80,0.93,-0.51,0.80,-0.92,-0.21,
1.708,-0.80,0.93,-0.51,0.79,-0.97,-0.22,
1.708,-0.54,1.31,-1.05,0.79,-0.97,-0.22,
1.709,-0.54,1.31,-1.05,0.77,-1.02,-0.24,
1.709,-0.54,1.31,-1.05,0.75,-1.07,-0.25,
1.709,-0.54,1.31,-1.05,0.73,-1.12,-0.27,
1.709,-0.54,1.31,-1.05,0.71,-1.16,-0.29,
1.71,-0.54,1.31,-1.05,0.69,-1.20,-0.31,
1.71,-0.05,1.55,-1.41,0.69,-1.20,-0.31,
1.71,-0.05,1.55,-1.41,0.67,-1.24,-0.33,
1.711,-0.05,1.55,-1.41,0.65,-1.27,-0.35,
1.718,-0.05,1.55,-1.41,0.63,-1.30,-0.37,
1.719,-0.05,1.55,-1.41,0.61,-1.33,-0.38,
1.719,-0.05,1.55,-1.41,0.59,-1.37,-0.40,
1.719,0.37,1.64,-1.30,0.59,-1.37,-0.40,
1.72,0.37,1.64,-1.30,0.57,-1.42,-0.41,
1.72,0.37,1.64,-1.30,0.55,-1.46,-0.42,
1.724,0.37,1.64,-1.30,0.54,-1.51,-0.42,
1.724,0.37,1.64,-1.30,0.52,-1.57,-0.42,
1.728,0.37,1.64,-1.30,0.51,-1.61,-0.41,
1.728,0.37,2.12,-0.94,0.51,-1.61,-0.41,
1.729,0.37,2.12,-0.94,0.50,-1.62,-0.40,
1.73,0.37,2.12,-0.94,0.49,-1.62,-0.38,
1.732,0.37,2.12,-0.94,0.49,-1.62,-0.37,
1.734,0.37,2.12,-0.94,0.49,-1.61,-0.36,
1.735,0.37,2.12,-0.94,0.48,-1.58,-0.35,
1.738,0.18,2.14,-0.66,0.48,-1.58,-0.35,
1.738,0.18,2.14,-0.66,0.49,-1.53,-0.34,
1.739,0.18,2.14,-0.66,0.50,-1.48,-0.33,
1.741,0.18,2.14,-0.66,0.50,-1.44,-0.33,
1.743,0.18,2.14,-0.66,0.51,-1.39,-0.32,
1.746,0.18,2.14,-0.66,0.52,-1.34,-0.31,
1.751,0.00,2.11,-0.41,0.52,-1.34,-0.31,
1.752,0.00,2.11,-0.41,0.53,-1.29,-0.30,
1.752,0.00,2.11,-0.41,0.54,-1.25,-0.29,
1.752,0.00,2.11,-0.41,0.55,-1.20,-0.29,
1.756,0.00,2.11,-0.41,0.56,-1.15,-0.28,
1.756,0.00,2.11,-0.41,0.57,-1.11,-0.27,
1.76,-0.30,2.02,-0.41,0.57,-1.11,-0.27,
1.76,-0.30,2.02,-0.41,0.59,-1.08,-0.26,
1.76,-0.30,2.02,-0.41,0.60,-1.04,-0.25,
1.767,-0.30,2.02,-0.41,0.60,-1.02,-0.25,
1.768,-0.30,2.02,-0.41,0.61,-0.99,-0.24,
1.768,-0.30,2.02,-0.41,0.62,-0.98,-0.23,
1.768,-0.74,2.07,-0.54,0.62,-0.98,-0.23,
1.769,-0.74,2.07,-0.54,0.63,-0.98,-0.22,
1.769,-0.74,2.07,-0.54,0.64,-0.99,-0.21,
1.772,-0.74,2.07,-0.54,0.65,-0.99,-0.20,
1.774,-0.74,2.07,-0.54,0.66,-1.01,-0.20,
1.776,-0.74,2.07,-0.54,0.66,-1.01,-0.20,
1.794,-0.94,2.08,-0.77,0.66,-1.01,-0.20,
1.794,-0.94,2.08,-0.77,0.67,-1.02,-0.19,
1.795,-0.94,2.08,-0.77,0.68,-1.01,-0.19,
1.795,-0.94,2.08,-0.77,0.91,-0.94,-0.17,
1.795,-0.94,2.08,-0.77,1.03,-0.89,-0.15,
1.795,-0.94,2.08,-0.77,1.08,-0.87,-0.15,
1.795,-1.33,0.16,-0.23,1.08,-0.87,-0.15,
1.796,-1.33,0.16,-0.23,1.01,-0.90,-0.16,
1.796,-1.33,0.16,-0.23,0.96,-0.95,-0.17,
1.796,-1.33,0.16,-0.23,0.92,-1.02,-0.18,
1.796,-1.33,0.16,-0.23,0.87,-1.08,-0.19,
1.796,-1.33,0.16,-0.23,0.82,-1.12,-0.20,
1.799,-1.17,1.92,-3.05,0.82,-1.12,-0.20,
1.799,-1.17,1.92,-3.05,0.76,-1.13,-0.20,
1.8,-1.17,1.92,-3.05,0.83,-1.07,-0.20,
1.802,-1.17,1.92,-3.05,0.94,-0.94,-0.17,
1.804,-1.17,1.92,-3.05,0.87,-0.92,-0.18,
1.805,-1.17,1.92,-3.05,0.75,-0.91,-0.19,
1.811,-1.62,0.56,-2.32,0.75,-0.91,-0.19,
1.812,-1.62,0.56,-2.32,0.76,-0.83,-0.19,
1.812,-1.62,0.56,-2.32,0.76,-0.73,-0.17,
1.813,-1.62,0.56,-2.32,0.67,-0.67,-0.18,
1.816,-1.62,0.56,-2.32,0.62,-0.58,-0.17,
1.816,-1.62,0.56,-2.32,0.57,-0.49,-0.16,
1.818,-1.71,-0.02,-3.19,0.57,-0.49,-0.16,
1.818,-1.71,-0.02,-3.19,0.49,-0.42,-0.15,
1.82,-1.71,-0.02,-3.19,0.45,-0.32,-0.14,
1.821,-1.71,-0.02,-3.19,0.41,-0.23,-0.12,
1.823,-1.71,-0.02,-3.19,0.33,-0.18,-0.11,
1.825,-1.71,-0.02,-3.19,0.27,-0.12,-0.09,
1.83,-1.77,-1.21,-2.91,0.27,-0.12,-0.09,
1.831,-1.77,-1.21,-2.91,0.22,-0.07,-0.08,
1.832,-1.77,-1.21,-2.91,0.16,-0.05,-0.06,
1.833,-1.77,-1.21,-2.91,0.09,-0.01,-0.05,
1.836,-1.77,-1.21,-2.91,0.06,-0.01,-0.04,
1.837,-1.77,-1.21,-2.91,0.02,0.01,-0.03,
1.856,-1.65,-1.95,-2.25,0.02,0.01,-0.03,
1.856,-1.65,-1.95,-2.25,-0.01,0.02,-0.02,
1.856,-1.65,-1.95,-2.25,-0.04,0.04,-0.01,
1.857,-1.65,-1.95,-2.25,-0.06,0.04,0.00,
1.857,-1.65,-1.95,-2.25,-0.09,0.04,0.01,
1.857,-1.65,-1.95,-2.25,-0.11,0.03,0.02,
1.858,-1.51,-2.37,-1.72,-0.11,0.03,0.02,
1.858,-1.51,-2.37,-1.72,-0.13,0.03,0.02,
1.858,-1.51,-2.37,-1.72,-0.15,0.03,0.02,
1.858,-1.51,-2.37,-1.72,-0.15,0.04,0.02,
1.859,-1.51,-2.37,-1.72,-0.14,0.07,0.03,
1.859,-1.51,-2.37,-1.72,-0.12,0.10,0.03,
1.859,-1.44,-3.01,-0.34,-0.12,0.10,0.03,
1.859,-1.44,-3.01,-0.34,-0.10,0.13,0.04,
1.86,-1.44,-3.01,-0.34,-0.08,0.15,0.04,
1.862,-1.44,-3.01,-0.34,-0.06,0.17,0.05,
1.864,-1.44,-3.01,-0.34,-0.06,0.16,0.05,
1.865,-1.44,-3.01,-0.34,-0.06,0.17,0.05,
1.868,-1.32,-3.54,-0.42,-0.06,0.17,0.05,
1.869,-1.32,-3.54,-0.42,-0.06,0.16,0.05,
1.869,-1.32,-3.54,-0.42,-0.07,0.17,0.04,
1.871,-1.32,-3.54,-0.42,-0.09,0.16,0.04,
1.874,-1.32,-3.54,-0.42,-0.10,0.16,0.04,
1.876,-1.32,-3.54,-0.42,-0.12,0.16,0.03,
1.878,-1.36,-3.47,-1.11,-0.12,0.16,0.03,
1.878,-1.36,-3.47,-1.11,-0.15,0.15,0.02,
1.88,-1.36,-3.47,-1.11,-0.18,0.15,0.02,
1.882,-1.36,-3.47,-1.11,-0.23,0.15,0.00,
1.884,-1.36,-3.47,-1.11,-0.24,0.15,-0.01,
1.885,-1.36,-3.47,-1.11,-0.28,0.14,-0.02,
1.888,-1.24,-3.02,-1.43,-0.28,0.14,-0.02,
1.888,-1.24,-3.02,-1.43,-0.31,0.15,-0.03,
1.889,-1.24,-3.02,-1.43,-0.34,0.15,-0.04,
1.891,-1.24,-3.02,-1.43,-0.37,0.17,-0.05,
1.893,-1.24,-3.02,-1.43,-0.40,0.17,-0.06,
1.898,-1.24,-3.02,-1.43,-0.42,0.19,-0.07,
1.899,-1.37,-2.62,-1.43,-0.42,0.19,-0.07,
1.899,-1.37,-2.62,-1.43,-0.44,0.19,-0.07,
1.9,-1.37,-2.62,-1.43,-0.47,0.21,-0.07,
1.905,-1.37,-2.62,-1.43,-0.49,0.22,-0.06,
1.906,-1.37,-2.62,-1.43,-0.49,0.23,-0.06,
1.906,-1.37,-2.62,-1.43,-0.50,0.24,-0.05,
1.908,-1.62,-2.48,-1.39,-0.50,0.24,-0.05,
1.908,-1.62,-2.48,-1.39,-0.51,0.27,-0.03,
1.91,-1.62,-2.48,-1.39,-0.51,0.30,-0.01,
1.93,-1.62,-2.48,-1.39,-0.51,0.33,0.00,
1.931,-1.62,-2.48,-1.39,-0.51,0.35,0.01,
1.932,-1.62,-2.48,-1.39,-0.50,0.39,0.03,
1.932,-1.84,-2.28,-1.05,-0.50,0.39,0.03,
1.932,-1.84,-2.28,-1.05,-0.49,0.45,0.06,
1.932,-1.84,-2.28,-1.05,-0.48,0.50,0.07,
1.933,-1.84,-2.28,-1.05,-0.46,0.55,0.09,
1.933,-1.84,-2.28,-1.05,-0.45,0.58,0.09,
1.933,-1.84,-2.28,-1.05,-0.44,0.63,0.11,
1.934,-1.72,-1.97,-0.72,-0.44,0.63,0.11,
1.934,-1.72,-1.97,-0.72,-0.42,0.72,0.12,
1.934,-1.72,-1.97,-0.72,-0.40,0.78,0.12,
1.934,-1.72,-1.97,-0.72,-0.38,0.84,0.12,
1.935,-1.72,-1.97,-0.72,-0.36,0.90,0.12,
1.935,-1.72,-1.97,-0.72,-0.35,0.97,0.12,
1.939,-1.23,-1.69,-0.55,-0.35,0.97,0.12,
1.94,-1.23,-1.69,-0.55,-0.34,1.05,0.11,
1.94,-1.23,-1.69,-0.55,-0.34,1.13,0.10,
1.944,-1.23,-1.69,-0.55,-0.34,1.21,0.09,
1.945,-1.23,-1.69,-0.55,-0.35,1.30,0.07,
1.945,-1.23,-1.69,-0.55,-0.37,1.39,0.06,
1.949,-0.70,-1.56,-0.88,-0.37,1.39,0.06,
1.95,-0.70,-1.56,-0.88,-0.39,1.48,0.04,
1.95,-0.70,-1.56,-0.88,-0.42,1.57,0.02,
1.954,-0.70,-1.56,-0.88,-0.47,1.64,0.00,
1.954,-0.70,-1.56,-0.88,-0.53,1.70,-0.02,
1.957,-0.70,-1.56,-0.88,-0.60,1.76,-0.05,
1.958,-0.21,-1.75,-1.73,-0.60,1.76,-0.05,
1.958,-0.21,-1.75,-1.73,-0.68,1.80,-0.08,
1.962,-0.21,-1.75,-1.73,-0.75,1.84,-0.11,
1.962,-0.21,-1.75,-1.73,-0.84,1.86,-0.15,
1.964,-0.21,-1.75,-1.73,-0.94,1.88,-0.19,
1.967,-0.21,-1.75,-1.73,-1.03,1.89,-0.23,
1.971,0.27,-1.54,-2.12,-1.03,1.89,-0.23,
1.971,0.27,-1.54,-2.12,-1.11,1.90,-0.28,
1.972,0.27,-1.54,-2.12,-1.20,1.90,-0.32,
1.972,0.27,-1.54,-2.12,-1.28,1.91,-0.37,
1.973,0.27,-1.54,-2.12,-1.36,1.92,-0.42,
1.975,0.27,-1.54,-2.12,-1.42,1.94,-0.46,
1.978,0.30,-1.04,-0.95,-1.42,1.94,-0.46,
1.979,0.30,-1.04,-0.95,-1.48,1.95,-0.51,
1.98,0.30,-1.04,-0.95,-1.53,1.96,-0.55,
1.981,0.30,-1.04,-0.95,-1.57,1.97,-0.60,
1.984,0.30,-1.04,-0.95,-1.60,1.97,-0.64,
1.985,0.30,-1.04,-0.95,-1.62,1.97,-0.69,
1.988,-0.09,-0.43,1.17,-1.62,1.97,-0.69,
1.989,-0.09,-0.43,1.17,-1.63,1.96,-0.73,
1.99,-0.09,-0.43,1.17,-1.64,1.94,-0.77,
1.992,-0.09,-0.43,1.17,-1.63,1.92,-0.81,
2.005,-0.09,-0.43,1.17,-1.62,1.90,-0.85,
2.006,-0.09,-0.43,1.17,-1.59,1.88,-0.88,
2.006,-0.65,0.29,3.20,-1.59,1.88,-0.88,
2.006,-0.65,0.29,3.20,-1.55,1.87,-0.91,
2.007,-0.65,0.29,3.20,-1.51,1.84,-0.94,
2.007,-0.65,0.29,3.20,-1.47,1.79,-0.98,
2.036,-0.65,0.29,3.20,-1.43,1.72,-1.02,
2.036,-0.65,0.29,3.20,-1.38,1.66,-1.05,
2.036,-0.64,1.43,4.72,-1.38,1.66,-1.05,
2.036,-0.64,1.43,4.72,-1.33,1.58,-1.09,
2.037,-0.64,1.43,4.72,-1.27,1.50,-1.13,
2.037,-0.64,1.43,4.72,-1.22,1.42,-1.17,
2.037,-0.64,1.43,4.72,-1.16,1.33,-1.21,
2.037,-0.64,1.43,4.72,-1.10,1.23,-1.24,
2.038,-0.13,2.65,5.24,-1.10,1.23,-1.24,
2.038,-0.13,2.65,5.24,-1.04,1.14,-1.28,
2.038,-0.13,2.65,5.24,-0.98,1.05,-1.32,
2.039,-0.13,2.65,5.24,-0.94,0.94,-1.35,
2.039,-0.13,2.65,5.24,-0.90,0.81,-1.39,
2.039,-0.13,2.65,5.24,-0.88,0.69,-1.43,
2.04,0.41,3.59,4.62,-0.88,0.69,-1.43,
2.04,0.41,3.59,4.62,-0.85,0.58,-1.46,
2.04,0.41,3.59,4.62,-0.80,0.51,-1.49,
2.041,0.41,3.59,4.62,-0.57,0.77,-1.50,
2.041,0.41,3.59,4.62,-0.45,0.85,-1.51,
2.042,0.41,3.59,4.62,-0.48,0.72,-1.54,
2.042,0.80,3.39,4.75,-0.48,0.72,-1.54,
2.042,0.80,3.39,4.75,-0.50,0.62,-1.56,
2.043,0.80,3.39,4.75,-0.54,0.54,-1.57,
2.043,0.80,3.39,4.75,-0.59,0.47,-1.59,
2.044,0.80,3.39,4.75,-0.66,0.42,-1.59,
2.048,0.80,3.39,4.75,-0.76,0.39,-1.59,
2.053,0.90,3.24,0.35,-0.76,0.39,-1.59,
2.053,0.90,3.24,0.35,-0.88,0.38,-1.59,
2.054,0.90,3.24,0.35,-1.02,0.40,-1.58,
2.054,0.90,3.24,0.35,-1.19,0.44,-1.56,
2.055,0.90,3.24,0.35,-1.38,0.49,-1.54,
2.056,0.90,3.24,0.35,-1.58,0.56,-1.51,
2.058,0.46,2.17,-3.98,-1.58,0.56,-1.51,
2.058,0.46,2.17,-3.98,-1.80,0.63,-1.48,
2.061,0.46,2.17,-3.98,-1.92,0.88,-1.46,
2.062,0.46,2.17,-3.98,-1.75,1.75,-1.47,
2.068,0.46,2.17,-3.98,-1.89,2.01,-1.45,
2.068,0.46,2.17,-3.98,-2.20,1.97,-1.42,
2.069,0.60,0.62,-4.35,-2.20,1.97,-1.42,
2.069,0.60,0.62,-4.35,-2.45,1.96,-1.39,
2.069,0.60,0.62,-4.35,-2.64,2.06,-1.37,
2.072,0.60,0.62,-4.35,-2.63,2.54,-1.37,
2.073,0.60,0.62,-4.35,-2.79,2.65,-1.35,
2.075,0.60,0.62,-4.35,-3.01,2.59,-1.33,
2.078,0.70,-0.23,-3.25,-3.01,2.59,-1.33,
2.079,0.70,-0.23,-3.25,-3.04,2.83,-1.33,
2.08,0.70,-0.23,-3.25,-3.15,2.90,-1.32,
2.082,0.70,-0.23,-3.25,-3.25,2.94,-1.31,
2.084,0.70,-0.23,-3.25,-3.30,3.02,-1.31,
2.085,0.70,-0.23,-3.25,-3.36,3.05,-1.31,
2.088,0.82,-0.75,-0.67,-3.36,3.05,-1.31,
2.089,0.82,-0.75,-0.67,-3.39,3.07,-1.31,
2.09,0.82,-0.75,-0.67,-3.40,3.08,-1.31,
2.092,0.82,-0.75,-0.67,-3.40,3.05,-1.31,
2.093,0.82,-0.75,-0.67,-3.38,3.02,-1.32,
2.096,0.82,-0.75,-0.67,-3.34,2.96,-1.32,
2.099,0.73,-1.22,0.90,-3.34,2.96,-1.32,
2.099,0.73,-1.22,0.90,-3.28,2.87,-1.32,
2.1,0.73,-1.22,0.90,-3.19,2.75,-1.32,
2.101,0.73,-1.22,0.90,-3.07,2.59,-1.32,
2.104,0.73,-1.22,0.90,-2.91,2.40,-1.31,
2.105,0.73,-1.22,0.90,-2.71,2.15,-1.30,
2.108,0.52,-2.13,2.69,-2.71,2.15,-1.30,
2.108,0.52,-2.13,2.69,-2.49,1.87,-1.27,
2.11,0.52,-2.13,2.69,-2.23,1.55,-1.24,
2.112,0.52,-2.13,2.69,-1.96,1.24,-1.20,
2.113,0.52,-2.13,2.69,-1.68,0.93,-1.16,
2.116,0.52,-2.13,2.69,-1.42,0.67,-1.11,
2.118,0.00,-2.63,4.17,-1.42,0.67,-1.11,
2.118,0.00,-2.63,4.17,-1.17,0.46,-1.07,
2.12,0.00,-2.63,4.17,-0.96,0.30,-1.03,
2.121,0.00,-2.63,4.17,-0.77,0.18,-0.99,
2.124,0.00,-2.63,4.17,-0.60,0.10,-0.96,
2.126,0.00,-2.63,4.17,-0.45,0.07,-0.93,
2.129,-0.24,-2.58,3.26,-0.45,0.07,-0.93,
2.13,-0.24,-2.58,3.26,-0.34,0.07,-0.91,
2.13,-0.24,-2.58,3.26,-0.24,0.11,-0.90,
2.132,-0.24,-2.58,3.26,-0.17,0.18,-0.89,
2.133,-0.24,-2.58,3.26,-0.12,0.27,-0.89,
2.136,-0.24,-2.58,3.26,-0.09,0.38,-0.89,
2.138,-0.32,-2.53,1.34,-0.09,0.38,-0.89,
2.139,-0.32,-2.53,1.34,-0.07,0.51,-0.90,
2.141,-0.32,-2.53,1.34,-0.06,0.65,-0.91,
2.158,-0.32,-2.53,1.34,-0.10,0.94,-0.95,
2.161,-0.32,-2.53,1.34,-0.10,0.94,-0.95,
2.162,-0.32,-2.53,1.34,-0.13,1.09,-0.97,
2.163,-0.25,-2.76,-0.05,-0.13,1.09,-0.97,
2.163,-0.25,-2.76,-0.05,-0.17,1.23,-0.99,
2.164,-0.25,-2.76,-0.05,-0.22,1.36,-1.01,
2.165,-0.25,-2.76,-0.05,-0.26,1.47,-1.04,
2.165,-0.25,-2.76,-0.05,-0.31,1.57,-1.06,
2.165,-0.25,-2.76,-0.05,-0.37,1.65,-1.08,
2.166,0.10,-3.09,0.03,-0.37,1.65,-1.08,
2.166,0.10,-3.09,0.03,-0.43,1.71,-1.10,
2.167,0.10,-3.09,0.03,-0.49,1.77,-1.13,
2.167,0.10,-3.09,0.03,-0.54,1.80,-1.15,
2.171,0.10,-3.09,0.03,-0.60,1.83,-1.17,
2.172,0.10,-3.09,0.03,-0.66,1.83,-1.20,
2.172,0.53,-3.29,1.10,-0.66,1.83,-1.20,
2.172,0.53,-3.29,1.10,-0.71,1.83,-1.23,
2.203,0.53,-3.29,1.10,-0.77,1.81,-1.26,
2.204,0.53,-3.29,1.10,-0.83,1.79,-1.29,
2.204,0.53,-3.29,1.10,-0.88,1.75,-1.32,
2.204,0.53,-3.29,1.10,-0.94,1.72,-1.36,
2.205,0.81,-3.28,2.21,-0.94,1.72,-1.36,
2.205,0.81,-3.28,2.21,-0.99,1.67,-1.39,
2.206,0.81,-3.28,2.21,-1.04,1.62,-1.43,
2.206,0.81,-3.28,2.21,-1.08,1.56,-1.47,
2.206,0.81,-3.28,2.21,-1.12,1.49,-1.50,
2.207,0.81,-3.28,2.21,-1.16,1.41,-1.52,
2.207,0.85,-2.63,3.52,-1.16,1.41,-1.52,
2.208,0.85,-2.63,3.52,-1.19,1.31,-1.54,
2.208,0.85,-2.63,3.52,-1.22,1.21,-1.55,
2.209,0.85,-2.63,3.52,-1.23,1.11,-1.56,
2.209,0.85,-2.63,3.52,-1.24,1.01,-1.57,
2.209,0.85,-2.63,3.52,-1.24,0.90,-1.57,
2.21,0.70,-0.83,4.57,-1.24,0.90,-1.57,
2.21,0.70,-0.83,4.57,-1.24,0.81,-1.58,
2.211,0.70,-0.83,4.57,-1.23,0.72,-1.58,
2.211,0.70,-0.83,4.57,-1.22,0.64,-1.58,
2.212,0.70,-0.83,4.57,-1.20,0.57,-1.57,
2.212,0.70,-0.83,4.57,-1.18,0.50,-1.57,
2.212,0.19,0.51,4.99,-1.18,0.50,-1.57,
2.213,0.19,0.51,4.99,-1.15,0.43,-1.56,
2.213,0.19,0.51,4.99,-1.11,0.37,-1.55,
2.214,0.19,0.51,4.99,-1.07,0.30,-1.54,
2.217,0.19,0.51,4.99,-1.03,0.23,-1.52,
2.217,0.19,0.51,4.99,-0.98,0.17,-1.51,
2.219,-0.42,1.33,4.99,-0.98,0.17,-1.51,
2.219,-0.42,1.33,4.99,-0.93,0.11,-1.49,
2.22,-0.42,1.33,4.99,-0.87,0.05,-1.47,
2.222,-0.42,1.33,4.99,-0.82,-0.01,-1.45,
2.224,-0.42,1.33,4.99,-0.77,-0.05,-1.42,
2.227,-0.42,1.33,4.99,-0.72,-0.08,-1.40,
2.232,-0.61,1.61,4.66,-0.72,-0.08,-1.40,
2.233,-0.61,1.61,4.66,-0.67,-0.09,-1.38,
2.233,-0.61,1.61,4.66,-0.63,-0.08,-1.37,
2.233,-0.61,1.61,4.66,-0.59,-0.09,-1.35,
2.233,-0.61,1.61,4.66,-0.55,-0.09,-1.33,
2.236,-0.61,1.61,4.66,-0.51,-0.09,-1.31,
2.238,-0.25,1.56,3.77,-0.51,-0.09,-1.31,
2.238,-0.25,1.56,3.77,-0.46,-0.08,-1.30,
2.24,-0.25,1.56,3.77,-0.42,-0.06,-1.29,
2.243,-0.25,1.56,3.77,-0.38,-0.04,-1.28,
2.246,-0.25,1.56,3.77,-0.34,-0.01,-1.27,
2.247,-0.25,1.56,3.77,-0.29,0.02,-1.27,
2.249,0.34,2.08,3.44,-0.29,0.02,-1.27,
2.249,0.34,2.08,3.44,-0.25,0.05,-1.27,
2.249,0.34,2.08,3.44,-0.21,0.09,-1.26,
2.252,0.34,2.08,3.44,-0.17,0.13,-1.26,
2.253,0.34,2.08,3.44,-0.13,0.17,-1.27,
2.255,0.34,2.08,3.44,-0.09,0.22,-1.27,
2.258,1.03,2.89,3.13,-0.09,0.22,-1.27,
2.258,1.03,2.89,3.13,-0.05,0.27,-1.28,
2.26,1.03,2.89,3.13,-0.01,0.33,-1.29,
2.263,1.03,2.89,3.13,0.03,0.38,-1.31,
2.264,1.03,2.89,3.13,0.07,0.45,-1.33,
2.267,1.03,2.89,3.13,0.11,0.51,-1.36,
2.268,1.69,3.67,3.04,0.11,0.51,-1.36,
2.268,1.69,3.67,3.04,0.15,0.57,-1.38,
2.271,1.69,3.67,3.04,0.19,0.65,-1.41,
2.272,1.69,3.67,3.04,0.23,0.72,-1.44,
2.273,1.69,3.67,3.04,0.27,0.79,-1.48,
2.287,1.69,3.67,3.04,0.31,0.86,-1.52,
2.288,1.92,4.12,2.91,0.31,0.86,-1.52,
2.289,1.92,4.12,2.91,0.35,0.93,-1.55,
2.289,1.92,4.12,2.91,0.40,1.01,-1.59,
2.289,1.92,4.12,2.91,0.44,1.08,-1.63,
2.29,1.92,4.12,2.91,0.48,1.15,-1.67,
2.29,1.92,4.12,2.91,0.53,1.21,-1.71,
2.29,2.04,3.99,2.89,0.53,1.21,-1.71,
2.29,2.04,3.99,2.89,0.57,1.28,-1.75,
2.291,2.04,3.99,2.89,0.62,1.34,-1.79,
2.32,2.04,3.99,2.89,0.66,1.40,-1.82,
2.32,2.04,3.99,2.89,0.72,1.46,-1.84,
2.321,2.04,3.99,2.89,0.77,1.51,-1.86,
2.321,1.47,4.27,2.96,0.77,1.51,-1.86,
2.321,1.47,4.27,2.96,0.83,1.56,-1.86,
2.321,1.47,4.27,2.96,0.90,1.60,-1.87,
2.321,1.47,4.27,2.96,0.96,1.63,-1.87,
2.322,1.47,4.27,2.96,1.03,1.67,-1.86,
2.322,1.47,4.27,2.96,1.11,1.70,-1.86,
2.322,0.77,4.77,3.23,1.11,1.70,-1.86,
2.322,0.77,4.77,3.23,1.18,1.72,-1.84,
2.322,0.77,4.77,3.23,1.26,1.75,-1.82,
2.322,0.77,4.77,3.23,1.33,1.77,-1.80,
2.323,0.77,4.77,3.23,1.41,1.79,-1.78,
2.323,0.77,4.77,3.23,1.48,1.81,-1.74,
2.323,0.13,5.07,3.06,1.48,1.81,-1.74,
2.323,0.13,5.07,3.06,1.56,1.83,-1.71,
2.323,0.13,5.07,3.06,1.63,1.85,-1.67,
2.324,0.13,5.07,3.06,1.70,1.87,-1.63,
2.324,0.13,5.07,3.06,1.77,1.88,-1.58,
2.336,0.13,5.07,3.06,1.84,1.89,-1.54,
2.337,-0.32,5.10,2.81,1.84,1.89,-1.54,
2.338,-0.32,5.10,2.81,1.91,1.89,-1.49,
2.339,-0.32,5.10,2.81,1.98,1.89,-1.44,
2.34,-0.32,5.10,2.81,2.05,1.89,-1.39,
2.34,-0.32,5.10,2.81,2.11,1.88,-1.34,
2.341,-0.32,5.10,2.81,2.17,1.86,-1.29,
2.361,-0.57,4.98,2.32,2.17,1.86,-1.29,
2.361,-0.57,4.98,2.32,2.23,1.85,-1.24,
2.362,-0.57,4.98,2.32,2.28,1.83,-1.18,
2.362,-0.57,4.98,2.32,2.32,1.81,-1.13,
2.362,-0.57,4.98,2.32,2.36,1.79,-1.07,
2.362,-0.57,4.98,2.32,2.39,1.77,-1.02,
2.363,-0.78,4.58,1.35,2.39,1.77,-1.02,
2.363,-0.78,4.58,1.35,2.43,1.74,-0.96,
2.363,-0.78,4.58,1.35,2.45,1.70,-0.90,
2.364,-0.78,4.58,1.35,2.45,1.65,-0.84,
2.364,-0.78,4.58,1.35,2.45,1.60,-0.78,
2.364,-0.78,4.58,1.35,2.42,1.52,-0.72,
2.364,-0.90,3.55,-0.01,2.42,1.52,-0.72,
2.364,-0.90,3.55,-0.01,2.38,1.43,-0.65,
2.365,-0.90,3.55,-0.01,2.33,1.34,-0.59,
2.365,-0.90,3.55,-0.01,2.28,1.23,-0.52,
2.365,-0.90,3.55,-0.01,2.22,1.12,-0.45,
2.365,-0.90,3.55,-0.01,2.16,0.99,-0.38,
2.368,-1.32,2.09,-1.93,2.16,0.99,-0.38,
2.368,-1.32,2.09,-1.93,2.11,0.87,-0.30,
2.369,-1.32,2.09,-1.93,2.07,0.74,-0.22,
2.371,-1.32,2.09,-1.93,2.02,0.61,-0.14,
2.374,-1.32,2.09,-1.93,1.99,0.48,-0.05,
2.375,-1.32,2.09,-1.93,1.96,0.35,0.03,
2.378,-2.08,0.72,-3.61,1.96,0.35,0.03,
2.378,-2.08,0.72,-3.61,1.93,0.23,0.13,
2.38,-2.08,0.72,-3.61,1.90,0.11,0.22,
2.382,-2.08,0.72,-3.61,1.87,0.01,0.31,
2.384,-2.08,0.72,-3.61,1.83,-0.08,0.41,
2.388,-2.08,0.72,-3.61,1.79,-0.16,0.51,
2.388,-2.78,-0.72,-5.55,1.79,-0.16,0.51,
2.389,-2.78,-0.72,-5.55,1.75,-0.22,0.61,
2.389,-2.78,-0.72,-5.55,1.70,-0.27,0.72,
2.392,-2.78,-0.72,-5.55,1.64,-0.30,0.82,
2.397,-2.78,-0.72,-5.55,1.58,-0.31,0.92,
2.399,-2.78,-0.72,-5.55,1.52,-0.31,1.02,
2.399,-2.85,-2.20,-7.51,1.52,-0.31,1.02,
2.4,-2.85,-2.20,-7.51,1.46,-0.31,1.11,
2.4,-2.85,-2.20,-7.51,1.38,-0.30,1.20,
2.402,-2.85,-2.20,-7.51,1.29,-0.30,1.28,
2.406,-2.85,-2.20,-7.51,1.20,-0.29,1.35,
2.406,-2.85,-2.20,-7.51,1.11,-0.28,1.42,
2.411,-2.21,-3.99,-9.22,1.11,-0.28,1.42,
2.412,-2.21,-3.99,-9.22,1.00,-0.26,1.47,
2.412,-2.21,-3.99,-9.22,0.89,-0.22,1.52,
2.412,-2.21,-3.99,-9.22,0.79,-0.17,1.56,
2.417,-2.21,-3.99,-9.22,0.68,-0.11,1.59,
2.417,-2.21,-3.99,-9.22,0.62,0.11,1.62,
2.418,-1.10,-5.63,-9.10,0.62,0.11,1.62,
2.418,-1.10,-5.63,-9.10,0.37,1.58,1.75,
2.42,-1.10,-5.63,-9.10,-0.61,3.45,1.84,
2.422,-1.10,-5.63,-9.10,-0.92,1.46,1.85,
2.423,-1.10,-5.63,-9.10,-0.46,1.42,1.82,
2.429,-1.10,-5.63,-9.10,-0.02,1.66,1.75,
2.429,-0.10,-6.13,-7.68,-0.02,1.66,1.75,
2.429,-0.10,-6.13,-7.68,-0.10,1.06,1.72,
2.43,-0.10,-6.13,-7.68,-0.15,1.10,1.69,
2.432,-0.10,-6.13,-7.68,-0.11,0.85,1.66,
2.434,-0.10,-6.13,-7.68,-0.03,0.64,1.61,
2.436,-0.10,-6.13,-7.68,-0.07,0.46,1.56,
2.438,0.60,-5.86,-5.88,-0.07,0.46,1.56,
2.438,0.60,-5.86,-5.88,-0.03,0.26,1.51,
2.44,0.60,-5.86,-5.88,-0.05,0.11,1.45,
2.471,0.60,-5.86,-5.88,-0.05,-0.03,1.39,
2.472,0.60,-5.86,-5.88,-0.08,-0.15,1.33,
2.472,0.60,-5.86,-5.88,-0.06,-0.28,1.26,
2.472,1.18,-5.38,-5.79,-0.06,-0.28,1.26,
2.473,1.18,-5.38,-5.79,-0.10,-0.38,1.20,
2.473,1.18,-5.38,-5.79,-0.10,-0.48,1.13,
2.473,1.18,-5.38,-5.79,-0.14,-0.55,1.06,
2.473,1.18,-5.38,-5.79,-0.14,-0.63,0.99,
2.473,1.18,-5.38,-5.79,-0.18,-0.65,0.92,
2.473,1.40,-4.68,-5.38,-0.18,-0.65,0.92,
2.473,1.40,-4.68,-5.38,-0.21,-0.69,0.86,
2.474,1.40,-4.68,-5.38,-0.23,-0.70,0.79,
2.474,1.40,-4.68,-5.38,-0.27,-0.69,0.72,
2.474,1.40,-4.68,-5.38,-0.28,-0.67,0.66,
2.474,1.40,-4.68,-5.38,-0.33,-0.63,0.60,
2.474,1.36,-3.80,-4.69,-0.33,-0.63,0.60,
2.474,1.36,-3.80,-4.69,-0.34,-0.59,0.54,
2.475,1.36,-3.80,-4.69,-0.39,-0.52,0.48,
2.475,1.36,-3.80,-4.69,-0.40,-0.47,0.42,
2.475,1.36,-3.80,-4.69,-0.43,-0.38,0.36,
2.481,1.36,-3.80,-4.69,-0.44,-0.31,0.31,
2.481,1.17,-2.99,-3.90,-0.44,-0.31,0.31,
2.482,1.17,-2.99,-3.90,-0.47,-0.21,0.26,
2.482,1.17,-2.99,-3.90,-0.48,-0.12,0.22,
2.482,1.17,-2.99,-3.90,-0.49,-0.00,0.19,
2.484,1.17,-2.99,-3.90,-0.48,0.08,0.16,
2.485,1.17,-2.99,-3.90,-0.49,0.16,0.14,
2.488,0.86,-1.74,-3.18,-0.49,0.16,0.14,
2.489,0.86,-1.74,-3.18,-0.50,0.25,0.12,
2.49,0.86,-1.74,-3.18,-0.51,0.35,0.10,
2.495,0.86,-1.74,-3.18,-0.53,0.47,0.09,
2.496,0.86,-1.74,-3.18,-0.53,0.58,0.09,
2.497,0.86,-1.74,-3.18,-0.56,0.72,0.09,
2.498,0.71,-0.99,-2.59,-0.56,0.72,0.09,
2.498,0.71,-0.99,-2.59,-0.56,0.84,0.08,
2.499,0.71,-0.99,-2.59,-0.58,0.98,0.08,
2.501,0.71,-0.99,-2.59,-0.58,1.09,0.08,
2.534,0.71,-0.99,-2.59,-0.59,1.22,0.09,
2.535,0.71,-0.99,-2.59,-0.57,1.31,0.09,
2.535,0.95,-0.85,-1.59,-0.57,1.31,0.09,
2.536,0.95,-0.85,-1.59,-0.57,1.41,0.10,
2.536,0.95,-0.85,-1.59,-0.54,1.48,0.10,
2.536,0.95,-0.85,-1.59,-0.52,1.56,0.11,
2.537,0.95,-0.85,-1.59,-0.48,1.61,0.11,
2.537,0.95,-0.85,-1.59,-0.44,1.66,0.12,
2.538,1.11,-1.38,-0.41,-0.44,1.66,0.12,
2.538,1.11,-1.38,-0.41,-0.39,1.68,0.12,
2.539,1.11,-1.38,-0.41,-0.33,1.70,0.12,
2.539,1.11,-1.38,-0.41,-0.28,1.70,0.12,
2.539,1.11,-1.38,-0.41,-0.21,1.68,0.11,
2.54,1.11,-1.38,-0.41,-0.16,1.64,0.10,
2.54,1.02,-2.01,0.84,-0.16,1.64,0.10,
2.541,1.02,-2.01,0.84,-0.09,1.57,0.10,
2.541,1.02,-2.01,0.84,-0.04,1.50,0.09,
2.541,1.02,-2.01,0.84,0.03,1.38,0.08,
2.542,1.02,-2.01,0.84,0.07,1.25,0.08,
2.542,1.02,-2.01,0.84,0.13,1.09,0.08,
2.543,0.48,-1.52,2.68,0.13,1.09,0.08,
2.543,0.48,-1.52,2.68,0.17,0.92,0.08,
2.544,0.48,-1.52,2.68,0.22,0.73,0.08,
2.544,0.48,-1.52,2.68,0.25,0.55,0.08,
2.545,0.48,-1.52,2.68,0.29,0.35,0.07,
2.547,0.48,-1.52,2.68,0.31,0.16,0.06,
2.548,0.16,-0.89,4.42,0.31,0.16,0.06,
2.548,0.16,-0.89,4.42,0.32,-0.02,0.04,
2.55,0.16,-0.89,4.42,0.32,-0.20,0.03,
2.551,0.16,-0.89,4.42,0.32,-0.36,0.03,
2.554,0.16,-0.89,4.42,0.32,-0.51,0.02,
2.556,0.16,-0.89,4.42,0.30,-0.64,0.02,
2.57,-0.28,-0.65,5.05,0.30,-0.64,0.02,
2.572,-0.28,-0.65,5.05,0.28,-0.77,0.02,
2.573,-0.28,-0.65,5.05,0.25,-0.86,0.03,
2.573,-0.28,-0.65,5.05,0.22,-0.94,0.03,
2.574,-0.28,-0.65,5.05,0.18,-0.99,0.04,
2.574,-0.28,-0.65,5.05,0.14,-1.03,0.04,
2.581,-0.59,-0.13,4.75,0.14,-1.03,0.04,
2.581,-0.59,-0.13,4.75,0.09,-1.05,0.04,
2.581,-0.59,-0.13,4.75,0.05,-1.05,0.04,
2.581,-0.59,-0.13,4.75,-0.00,-1.04,0.04,
2.582,-0.59,-0.13,4.75,-0.04,-1.01,0.03,
2.582,-0.59,-0.13,4.75,-0.09,-0.97,0.01,
2.582,-0.47,0.87,4.15,-0.09,-0.97,0.01,
2.582,-0.47,0.87,4.15,-0.13,-0.93,-0.00,
2.582,-0.47,0.87,4.15,-0.18,-0.87,-0.02,
2.584,-0.47,0.87,4.15,-0.22,-0.79,-0.04,
2.585,-0.47,0.87,4.15,-0.25,-0.71,-0.06,
2.589,-0.47,0.87,4.15,-0.29,-0.62,-0.08,
2.59,-0.39,1.85,4.03,-0.29,-0.62,-0.08,
2.59,-0.39,1.85,4.03,-0.31,-0.53,-0.10,
2.59,-0.39,1.85,4.03,-0.34,-0.42,-0.12,
2.606,-0.39,1.85,4.03,-0.36,-0.32,-0.15,
2.607,-0.39,1.85,4.03,-0.39,-0.22,-0.17,
2.607,-0.39,1.85,4.03,-0.40,-0.11,-0.19,
2.608,-0.39,2.66,3.57,-0.40,-0.11,-0.19,
2.608,-0.39,2.66,3.57,-0.42,-0.00,-0.22,
2.608,-0.39,2.66,3.57,-0.43,0.10,-0.24,
2.608,-0.39,2.66,3.57,-0.44,0.20,-0.26,
2.608,-0.39,2.66,3.57,-0.44,0.30,-0.28,
2.609,-0.39,2.66,3.57,-0.43,0.40,-0.30,
2.609,-0.52,2.84,3.30,-0.43,0.40,-0.30,
2.611,-0.52,2.84,3.30,-0.42,0.50,-0.32,
2.611,-0.52,2.84,3.30,-0.40,0.59,-0.33,
2.612,-0.52,2.84,3.30,-0.38,0.69,-0.34,
2.614,-0.52,2.84,3.30,-0.34,0.77,-0.35,
2.616,-0.52,2.84,3.30,-0.30,0.86,-0.35,
2.618,-0.92,2.53,3.09,-0.30,0.86,-0.35,
2.618,-0.92,2.53,3.09,-0.23,0.93,-0.36,
2.619,-0.92,2.53,3.09,-0.15,1.00,-0.36,
2.621,-0.92,2.53,3.09,0.16,0.99,-0.37,
2.625,-0.92,2.53,3.09,0.43,0.83,-0.40,
2.626,-0.92,2.53,3.09,0.41,0.68,-0.40,
2.628,-0.73,1.42,3.39,0.41,0.68,-0.40,
2.629,-0.73,1.42,3.39,0.39,0.56,-0.41,
2.63,-0.73,1.42,3.39,0.52,0.36,-0.43,
2.632,-0.73,1.42,3.39,0.58,0.23,-0.44,
2.633,-0.73,1.42,3.39,0.64,0.11,-0.45,
2.636,-0.73,1.42,3.39,0.72,0.00,-0.47,
2.638,-0.33,0.19,1.44,0.72,0.00,-0.47,
2.639,-0.33,0.19,1.44,0.83,-0.08,-0.48,
2.655,-0.33,0.19,1.44,1.19,0.49,-0.50,
2.658,-0.33,0.19,1.44,1.19,0.49,-0.50,
2.658,-0.33,0.19,1.44,1.21,0.74,-0.51,
2.658,-0.33,0.19,1.44,1.23,1.02,-0.51,
2.658,-0.47,-1.19,0.96,1.23,1.02,-0.51,
2.659,-0.47,-1.19,0.96,1.26,1.28,-0.52,
2.659,-0.47,-1.19,0.96,1.41,1.47,-0.53,
2.659,-0.47,-1.19,0.96,1.51,1.40,-0.57,
2.659,-0.47,-1.19,0.96,1.50,1.17,-0.60,
2.66,-0.47,-1.19,0.96,1.48,0.93,-0.64,
2.66,0.49,-2.22,1.05,1.48,0.93,-0.64,
2.66,0.49,-2.22,1.05,1.52,0.80,-0.68,
2.66,0.49,-2.22,1.05,1.63,1.00,-0.71,
2.664,0.49,-2.22,1.05,1.61,1.34,-0.73,
2.664,0.49,-2.22,1.05,1.62,1.61,-0.74,
2.667,0.49,-2.22,1.05,1.66,1.58,-0.78,
2.668,0.43,-3.32,2.30,1.66,1.58,-0.78,
2.668,0.43,-3.32,2.30,1.63,1.27,-0.82,
2.691,0.43,-3.32,2.30,1.62,1.07,-0.85,
2.691,0.43,-3.32,2.30,1.65,1.22,-0.86,
2.691,0.43,-3.32,2.30,1.63,1.48,-0.85,
2.691,0.43,-3.32,2.30,1.62,1.48,-0.85,
2.692,-0.42,-3.83,2.09,1.62,1.48,-0.85,
2.692,-0.42,-3.83,2.09,1.58,1.21,-0.84,
2.692,-0.42,-3.83,2.09,1.56,1.11,-0.82,
2.692,-0.42,-3.83,2.09,1.55,1.29,-0.76,
2.693,-0.42,-3.83,2.09,1.53,1.30,-0.72,
2.693,-0.42,-3.83,2.09,1.51,1.09,-0.68,
2.693,-2.10,-3.22,2.46,1.51,1.09,-0.68,
2.694,-2.10,-3.22,2.46,1.49,1.06,-0.61,
2.694,-2.10,-3.22,2.46,1.48,1.15,-0.54,
2.694,-2.10,-3.22,2.46,1.45,1.08,-0.48,
2.694,-2.10,-3.22,2.46,1.43,0.95,-0.42,
2.698,-2.10,-3.22,2.46,1.41,0.99,-0.35,
2.7,-2.85,-2.40,2.49,1.41,0.99,-0.35,
2.7,-2.85,-2.40,2.49,1.38,1.01,-0.28,
2.7,-2.85,-2.40,2.49,1.33,0.93,-0.21,
2.703,-2.85,-2.40,2.49,1.29,0.87,-0.13,
2.704,-2.85,-2.40,2.49,1.25,0.86,-0.06,
2.707,-2.85,-2.40,2.49,1.22,0.80,0.01,
2.708,-2.47,-2.20,2.85,1.22,0.80,0.01,
2.71,-2.47,-2.20,2.85,1.21,0.72,0.07,
2.711,-2.47,-2.20,2.85,1.21,0.69,0.15,
2.712,-2.47,-2.20,2.85,1.21,0.64,0.22,
2.714,-2.47,-2.20,2.85,1.22,0.58,0.28,
2.716,-2.47,-2.20,2.85,1.23,0.52,0.35,
2.718,-3.25,-2.38,2.36,1.23,0.52,0.35,
2.718,-3.25,-2.38,2.36,1.25,0.48,0.41,
2.72,-3.25,-2.38,2.36,1.27,0.42,0.47,
2.721,-3.25,-2.38,2.36,1.30,0.36,0.52,
2.724,-3.25,-2.38,2.36,1.33,0.31,0.57,
2.726,-3.25,-2.38,2.36,1.37,0.25,0.61,
2.728,-3.90,-1.68,1.88,1.37,0.25,0.61,
2.728,-3.90,-1.68,1.88,1.41,0.20,0.65,
2.73,-3.90,-1.68,1.88,1.45,0.14,0.69,
2.732,-3.90,-1.68,1.88,1.50,0.09,0.73,
2.733,-3.90,-1.68,1.88,1.54,0.03,0.77,
2.735,-3.90,-1.68,1.88,1.59,-0.02,0.81,
2.738,-3.89,-0.79,1.23,1.59,-0.02,0.81,
2.738,-3.89,-0.79,1.23,1.63,-0.06,0.84,
2.74,-3.89,-0.79,1.23,1.67,-0.10,0.88,
2.742,-3.89,-0.79,1.23,1.71,-0.14,0.91,
2.746,-3.89,-0.79,1.23,1.75,-0.17,0.95,
2.746,-3.89,-0.79,1.23,1.79,-0.20,0.98,
2.749,-3.28,-0.02,0.51,1.79,-0.20,0.98,
2.75,-3.28,-0.02,0.51,1.83,-0.23,1.01,
2.751,-3.28,-0.02,0.51,1.87,-0.24,1.04,
2.753,-3.28,-0.02,0.51,1.90,-0.26,1.07,
2.754,-3.28,-0.02,0.51,1.94,-0.27,1.10,
2.757,-3.28,-0.02,0.51,1.97,-0.28,1.13,
2.759,-2.22,0.59,-0.50,1.97,-0.28,1.13,
2.76,-2.22,0.59,-0.50,2.00,-0.28,1.15,
2.761,-2.22,0.59,-0.50,2.03,-0.28,1.18,
2.763,-2.22,0.59,-0.50,2.05,-0.27,1.20,
2.764,-2.22,0.59,-0.50,2.07,-0.26,1.22,
2.766,-2.22,0.59,-0.50,2.09,-0.24,1.24,
2.768,-1.30,0.83,-1.93,2.09,-0.24,1.24,
2.769,-1.30,0.83,-1.93,2.10,-0.22,1.26,
2.77,-1.30,0.83,-1.93,2.10,-0.20,1.27,
2.772,-1.30,0.83,-1.93,2.11,-0.16,1.28,
2.775,-1.30,0.83,-1.93,2.11,-0.13,1.29,
2.776,-1.30,0.83,-1.93,2.10,-0.09,1.29,
2.778,-0.51,0.61,-2.95,2.10,-0.09,1.29,
2.778,-0.51,0.61,-2.95,2.09,-0.05,1.29,
2.783,-0.51,0.61,-2.95,2.07,-0.01,1.29,
2.784,-0.51,0.61,-2.95,2.05,0.04,1.29,
2.786,-0.51,0.61,-2.95,2.03,0.09,1.28,
2.786,-0.51,0.61,-2.95,2.01,0.13,1.26,
2.788,0.20,0.38,-3.40,2.01,0.13,1.26,
2.789,0.20,0.38,-3.40,1.98,0.18,1.25,
2.791,0.20,0.38,-3.40,1.94,0.22,1.23,
2.794,0.20,0.38,-3.40,1.91,0.25,1.21,
2.794,0.20,0.38,-3.40,1.89,0.28,1.19,
2.795,0.20,0.38,-3.40,1.86,0.30,1.16,
2.798,0.70,0.19,-3.09,1.86,0.30,1.16,
2.798,0.70,0.19,-3.09,1.82,0.33,1.14,
2.8,0.70,0.19,-3.09,1.79,0.38,1.11,
2.802,0.70,0.19,-3.09,1.75,0.43,1.08,
2.805,0.70,0.19,-3.09,1.70,0.46,1.04,
2.818,0.70,0.19,-3.09,1.64,0.53,1.01,
2.818,1.09,0.03,-2.70,1.64,0.53,1.01,
2.819,1.09,0.03,-2.70,1.56,0.80,0.97,
2.819,1.09,0.03,-2.70,1.37,1.91,0.95,
2.819,1.09,0.03,-2.70,1.18,1.93,0.91,
2.82,1.09,0.03,-2.70,1.08,1.39,0.86,
2.82,1.09,0.03,-2.70,1.05,1.33,0.84,
2.82,1.88,-0.22,-2.54,1.05,1.33,0.84,
2.82,1.88,-0.22,-2.54,1.05,1.44,0.81,
2.821,1.88,-0.22,-2.54,1.05,1.46,0.78,
2.862,1.88,-0.22,-2.54,1.03,1.53,0.74,
2.863,1.88,-0.22,-2.54,1.03,1.59,0.71,
2.863,1.88,-0.22,-2.54,1.01,1.54,0.68,
2.864,2.22,-0.20,-2.47,1.01,1.54,0.68,
2.864,2.22,-0.20,-2.47,0.98,1.49,0.65,
2.864,2.22,-0.20,-2.47,0.95,1.44,0.62,
2.865,2.22,-0.20,-2.47,0.94,1.39,0.59,
2.865,2.22,-0.20,-2.47,0.94,1.35,0.56,
2.865,2.22,-0.20,-2.47,0.93,1.30,0.53,
2.898,2.20,-0.07,-1.88,0.93,1.30,0.53,
2.899,2.20,-0.07,-1.88,0.91,1.24,0.50,
2.9,2.20,-0.07,-1.88,0.89,1.16,0.48,
2.901,2.20,-0.07,-1.88,0.88,1.09,0.45,
2.901,2.20,-0.07,-1.88,0.87,1.02,0.43,
2.901,2.20,-0.07,-1.88,0.86,0.94,0.41,
2.902,2.19,0.03,-1.49,0.86,0.94,0.41,
2.903,2.19,0.03,-1.49,0.85,0.85,0.38,
2.905,2.19,0.03,-1.49,0.84,0.77,0.36,
2.906,2.19,0.03,-1.49,0.83,0.69,0.34,
2.906,2.19,0.03,-1.49,0.82,0.60,0.31,
2.907,2.19,0.03,-1.49,0.81,0.51,0.29,
2.907,2.07,0.18,-1.13,0.81,0.51,0.29,
2.908,2.07,0.18,-1.13,0.80,0.43,0.28,
2.908,2.07,0.18,-1.13,0.79,0.34,0.26,
2.909,2.07,0.18,-1.13,0.79,0.26,0.24,
2.909,2.07,0.18,-1.13,0.79,0.17,0.22,
2.909,2.07,0.18,-1.13,0.78,0.09,0.20,
2.91,2.00,0.32,-0.84,0.78,0.09,0.20,
2.91,2.00,0.32,-0.84,0.78,0.01,0.19,
2.911,2.00,0.32,-0.84,0.78,-0.07,0.17,
2.911,2.00,0.32,-0.84,0.78,-0.15,0.16,
2.911,2.00,0.32,-0.84,0.78,-0.22,0.14,
2.912,2.00,0.32,-0.84,0.78,-0.30,0.13,
2.912,1.76,0.44,-0.64,0.78,-0.30,0.13,
2.913,1.76,0.44,-0.64,0.78,-0.37,0.12,
2.913,1.76,0.44,-0.64,0.78,-0.44,0.11,
2.913,1.76,0.44,-0.64,0.78,-0.51,0.10,
2.914,1.76,0.44,-0.64,0.78,-0.58,0.09,
2.914,1.76,0.44,-0.64,0.78,-0.64,0.08,
2.915,1.62,0.51,-0.58,0.78,-0.64,0.08,
2.915,1.62,0.51,-0.58,0.79,-0.70,0.07,
2.915,1.62,0.51,-0.58,0.79,-0.75,0.06,
2.916,1.62,0.51,-0.58,0.80,-0.80,0.04,
2.916,1.62,0.51,-0.58,0.81,-0.85,0.03,
2.916,1.62,0.51,-0.58,0.82,-0.90,0.02,
2.917,1.52,0.53,-0.44,0.82,-0.90,0.02,
2.917,1.52,0.53,-0.44,0.83,-0.94,0.01,
2.917,1.52,0.53,-0.44,0.85,-0.97,-0.01,
2.918,1.52,0.53,-0.44,0.87,-1.01,-0.02,
2.918,1.52,0.53,-0.44,0.89,-1.03,-0.03,
2.918,1.52,0.53,-0.44,0.92,-1.06,-0.05,
2.919,1.41,0.50,-0.25,0.92,-1.06,-0.05,
2.919,1.41,0.50,-0.25,0.95,-1.09,-0.06,
2.92,1.41,0.50,-0.25,0.98,-1.11,-0.07,
2.92,1.41,0.50,-0.25,1.02,-1.13,-0.09,
2.92,1.41,0.50,-0.25,1.06,-1.15,-0.10,
2.921,1.41,0.50,-0.25,1.10,-1.17,-0.12,
2.921,1.18,0.43,-0.05,1.10,-1.17,-0.12,
2.921,1.18,0.43,-0.05,1.16,-1.19,-0.13,
2.922,1.18,0.43,-0.05,1.18,-1.19,-0.14,
2.922,1.18,0.43,-0.05,1.22,-1.20,-0.15,
2.924,1.18,0.43,-0.05,1.26,-1.20,-0.16,
2.929,1.18,0.43,-0.05,1.30,-1.21,-0.17,
2.93,0.86,0.34,-0.04,1.30,-1.21,-0.17,
2.93,0.86,0.34,-0.04,1.34,-1.21,-0.18,
2.93,0.86,0.34,-0.04,1.38,-1.21,-0.19,
2.934,0.86,0.34,-0.04,1.42,-1.21,-0.19,
2.934,0.86,0.34,-0.04,1.46,-1.20,-0.20,
2.938,0.86,0.34,-0.04,1.49,-1.21,-0.21,
2.943,0.41,0.24,-0.30,1.49,-1.21,-0.21,
2.943,0.41,0.24,-0.30,1.52,-1.20,-0.22,
2.943,0.41,0.24,-0.30,1.56,-1.19,-0.23,
2.943,0.41,0.24,-0.30,1.59,-1.18,-0.24,
2.944,0.41,0.24,-0.30,1.63,-1.15,-0.25,
2.945,0.41,0.24,-0.30,1.67,-1.12,-0.26,
2.949,0.12,0.18,-0.67,1.67,-1.12,-0.26,
2.95,0.12,0.18,-0.67,1.70,-1.09,-0.27,
2.95,0.12,0.18,-0.67,1.74,-1.06,-0.28,
2.951,0.12,0.18,-0.67,1.77,-1.02,-0.30,
2.953,0.12,0.18,-0.67,1.81,-0.97,-0.31,
2.965,0.12,0.18,-0.67,1.84,-0.92,-0.33,
2.966,-0.03,0.11,-1.14,1.84,-0.92,-0.33,
2.966,-0.03,0.11,-1.14,1.86,-0.87,-0.34,
2.967,-0.03,0.11,-1.14,1.89,-0.82,-0.36,
2.967,-0.03,0.11,-1.14,1.91,-0.77,-0.37,
2.967,-0.03,0.11,-1.14,1.93,-0.72,-0.39,
2.968,-0.03,0.11,-1.14,1.95,-0.67,-0.41,
2.97,-0.07,-0.16,-1.90,1.95,-0.67,-0.41,
2.971,-0.07,-0.16,-1.90,1.96,-0.62,-0.43,
3.003,-0.07,-0.16,-1.90,1.97,-0.56,-0.44,
3.004,-0.07,-0.16,-1.90,1.98,-0.51,-0.46,
3.004,-0.07,-0.16,-1.90,1.99,-0.45,-0.46,
3.004,-0.07,-0.16,-1.90,2.00,-0.38,-0.47,
3.004,-0.38,-0.11,-2.57,2.00,-0.38,-0.47,
3.004,-0.38,-0.11,-2.57,2.01,-0.32,-0.47,
3.005,-0.38,-0.11,-2.57,2.02,-0.26,-0.47,
3.005,-0.38,-0.11,-2.57,2.03,-0.18,-0.47,
3.005,-0.38,-0.11,-2.57,2.05,-0.10,-0.46,
3.005,-0.38,-0.11,-2.57,2.06,-0.01,-0.45,
3.005,-0.91,-0.25,-3.31,2.06,-0.01,-0.45,
3.006,-0.91,-0.25,-3.31,2.09,0.09,-0.44,
3.006,-0.91,-0.25,-3.31,2.12,0.21,-0.42,
3.006,-0.91,-0.25,-3.31,2.15,0.34,-0.40,
3.006,-0.91,-0.25,-3.31,2.19,0.47,-0.38,
3.006,-0.91,-0.25,-3.31,2.24,0.58,-0.36,
3.006,-1.18,-0.54,-3.66,2.24,0.58,-0.36,
3.007,-1.18,-0.54,-3.66,2.26,0.65,-0.34,
3.007,-1.18,-0.54,-3.66,2.28,0.69,-0.32,
3.007,-1.18,-0.54,-3.66,2.29,0.77,-0.31,
3.031,-1.18,-0.54,-3.66,2.31,0.86,-0.28,
3.031,-1.18,-0.54,-3.66,2.32,0.96,-0.26,
3.031,-1.23,-1.54,-4.86,2.32,0.96,-0.26,
3.032,-1.23,-1.54,-4.86,2.31,1.06,-0.24,
3.032,-1.23,-1.54,-4.86,2.29,1.13,-0.22,
3.032,-1.23,-1.54,-4.86,2.26,1.19,-0.20,
3.033,-1.23,-1.54,-4.86,2.21,1.23,-0.18,
3.033,-1.23,-1.54,-4.86,2.15,1.26,-0.15,
3.033,-1.15,-2.51,-6.41,2.15,1.26,-0.15,
3.033,-1.15,-2.51,-6.41,2.07,1.29,-0.13,
3.034,-1.15,-2.51,-6.41,1.98,1.30,-0.12,
3.034,-1.15,-2.51,-6.41,1.89,1.30,-0.10,
3.034,-1.15,-2.51,-6.41,1.77,1.30,-0.08,
3.034,-1.15,-2.51,-6.41,1.64,1.28,-0.06,
3.035,-0.98,-2.83,-8.49,1.64,1.28,-0.06,
3.035,-0.98,-2.83,-8.49,1.51,1.26,-0.04,
3.035,-0.98,-2.83,-8.49,1.36,1.24,-0.02,
3.036,-0.98,-2.83,-8.49,1.20,1.20,-0.00,
3.036,-0.98,-2.83,-8.49,1.03,1.16,0.02,
3.036,-0.98,-2.83,-8.49,0.85,1.12,0.03,
3.039,-0.52,-2.55,-9.89,0.85,1.12,0.03,
3.039,-0.52,-2.55,-9.89,0.67,1.06,0.05,
3.04,-0.52,-2.55,-9.89,0.48,0.99,0.07,
3.042,-0.52,-2.55,-9.89,0.29,0.92,0.08,
3.044,-0.52,-2.55,-9.89,0.10,0.85,0.10,
3.046,-0.52,-2.55,-9.89,-0.09,0.77,0.10,
3.049,-0.04,-2.48,-9.97,-0.09,0.77,0.10,
3.049,-0.04,-2.48,-9.97,-0.28,0.70,0.11,
3.049,-0.04,-2.48,-9.97,-0.46,0.64,0.10,
3.052,-0.04,-2.48,-9.97,-0.63,0.59,0.09,
3.053,-0.04,-2.48,-9.97,-0.79,0.54,0.07,
3.055,-0.04,-2.48,-9.97,-0.95,0.50,0.05,
3.059,0.43,-2.54,-8.24,-0.95,0.50,0.05,
3.059,0.43,-2.54,-8.24,-1.08,0.46,0.03,
3.06,0.43,-2.54,-8.24,-1.21,0.43,0.01,
3.062,0.43,-2.54,-8.24,-1.32,0.41,-0.02,
3.067,0.43,-2.54,-8.24,-1.42,0.40,-0.04,
3.067,0.43,-2.54,-8.24,-1.51,0.39,-0.07,
3.067,1.09,-2.75,-5.97,-1.51,0.39,-0.07,
3.068,1.09,-2.75,-5.97,-1.58,0.38,-0.10,
3.069,1.09,-2.75,-5.97,-1.64,0.39,-0.13,
3.075,1.09,-2.75,-5.97,-1.70,0.39,-0.16,
3.075,1.09,-2.75,-5.97,-1.74,0.40,-0.20,
3.077,1.09,-2.75,-5.97,-1.78,0.41,-0.23,
3.078,1.66,-3.07,-3.61,-1.78,0.41,-0.23,
3.078,1.66,-3.07,-3.61,-1.81,0.43,-0.28,
3.106,1.66,-3.07,-3.61,-1.84,0.45,-0.32,
3.107,1.66,-3.07,-3.61,-1.86,0.48,-0.36,
3.107,1.66,-3.07,-3.61,-1.88,0.52,-0.41,
3.107,1.66,-3.07,-3.61,-1.90,0.57,-0.47,
3.107,2.47,-3.67,-2.52,-1.90,0.57,-0.47,
3.107,2.47,-3.67,-2.52,-1.92,0.62,-0.52,
3.108,2.47,-3.67,-2.52,-1.95,0.68,-0.58,
3.108,2.47,-3.67,-2.52,-1.97,0.75,-0.64,
3.108,2.47,-3.67,-2.52,-1.99,0.83,-0.70,
3.108,2.47,-3.67,-2.52,-2.01,0.91,-0.76,
3.108,3.12,-4.16,-2.34,-2.01,0.91,-0.76,
3.108,3.12,-4.16,-2.34,-2.03,1.01,-0.83,
3.108,3.12,-4.16,-2.34,-2.06,1.11,-0.89,
3.109,3.12,-4.16,-2.34,-2.09,1.21,-0.96,
3.109,3.12,-4.16,-2.34,-2.13,1.32,-1.02,
3.109,3.12,-4.16,-2.34,-2.17,1.43,-1.08,
3.109,3.59,-4.22,-2.95,-2.17,1.43,-1.08,
3.109,3.59,-4.22,-2.95,-2.22,1.54,-1.15,
3.109,3.59,-4.22,-2.95,-2.27,1.66,-1.23,
3.112,3.59,-4.22,-2.95,-2.33,1.78,-1.29,
3.113,3.59,-4.22,-2.95,-2.40,1.90,-1.36,
3.116,3.59,-4.22,-2.95,-2.47,2.01,-1.43,
3.118,3.77,-3.98,-3.78,-2.47,2.01,-1.43,
3.118,3.77,-3.98,-3.78,-2.55,2.12,-1.50,
3.119,3.77,-3.98,-3.78,-2.62,2.22,-1.56,
3.122,3.77,-3.98,-3.78,-2.69,2.31,-1.63,
3.123,3.77,-3.98,-3.78,-2.75,2.38,-1.68,
3.126,3.77,-3.98,-3.78,-2.80,2.43,-1.74,
3.132,3.11,-3.84,-2.73,-2.80,2.43,-1.74,
3.133,3.11,-3.84,-2.73,-2.84,2.45,-1.78,
3.133,3.11,-3.84,-2.73,-2.86,2.45,-1.82,
3.133,3.11,-3.84,-2.73,-2.86,2.43,-1.84,
3.134,3.11,-3.84,-2.73,-2.85,2.38,-1.86,
3.136,3.11,-3.84,-2.73,-2.81,2.29,-1.88,
3.14,1.10,-3.51,1.31,-2.81,2.29,-1.88,
3.141,1.10,-3.51,1.31,-2.77,2.18,-1.88,
3.142,1.10,-3.51,1.31,-2.71,2.03,-1.87,
3.144,1.10,-3.51,1.31,-2.55,1.67,-1.86,
3.145,1.10,-3.51,1.31,-2.55,1.67,-1.86,
3.146,1.10,-3.51,1.31,-2.46,1.47,-1.85,
3.148,-0.37,-3.41,5.28,-2.46,1.47,-1.85,
3.148,-0.37,-3.41,5.28,-2.36,1.26,-1.83,
3.149,-0.37,-3.41,5.28,-2.26,1.05,-1.82,
3.151,-0.37,-3.41,5.28,-2.15,0.83,-1.81,
3.155,-0.37,-3.41,5.28,-2.05,0.62,-1.79,
3.156,-0.37,-3.41,5.28,-1.95,0.42,-1.78,
3.158,-0.79,-3.58,6.31,-1.95,0.42,-1.78,
3.158,-0.79,-3.58,6.31,-1.85,0.24,-1.76,
3.16,-0.79,-3.58,6.31,-1.77,0.06,-1.74,
3.161,-0.79,-3.58,6.31,-1.69,-0.09,-1.72,
3.164,-0.79,-3.58,6.31,-1.63,-0.24,-1.69,
3.165,-0.79,-3.58,6.31,-1.57,-0.38,-1.66,
3.168,-1.26,-3.66,5.03,-1.57,-0.38,-1.66,
3.168,-1.26,-3.66,5.03,-1.53,-0.50,-1.62,
3.2,-1.26,-3.66,5.03,-1.50,-0.62,-1.58,
3.2,-1.26,-3.66,5.03,-1.49,-0.72,-1.54,
3.201,-1.26,-3.66,5.03,-1.49,-0.82,-1.49,
3.201,-1.26,-3.66,5.03,-1.51,-0.91,-1.43,
3.202,-2.09,-3.85,2.79,-1.51,-0.91,-1.43,
3.202,-2.09,-3.85,2.79,-1.53,-0.99,-1.37,
3.203,-2.09,-3.85,2.79,-1.56,-1.06,-1.30,
3.203,-2.09,-3.85,2.79,-1.60,-1.13,-1.23,
3.204,-2.09,-3.85,2.79,-1.65,-1.18,-1.16,
3.204,-2.09,-3.85,2.79,-1.70,-1.23,-1.08,
3.205,-2.94,-3.66,1.45,-1.70,-1.23,-1.08,
3.206,-2.94,-3.66,1.45,-1.74,-1.26,-1.01,
3.206,-2.94,-3.66,1.45,-1.79,-1.30,-0.94,
3.207,-2.94,-3.66,1.45,-1.84,-1.33,-0.87,
3.207,-2.94,-3.66,1.45,-1.88,-1.35,-0.81,
3.208,-2.94,-3.66,1.45,-1.92,-1.37,-0.75,
3.209,-2.61,-3.29,1.42,-1.92,-1.37,-0.75,
3.21,-2.61,-3.29,1.42,-1.96,-1.39,-0.70,
3.21,-2.61,-3.29,1.42,-2.00,-1.41,-0.65,
3.211,-2.61,-3.29,1.42,-2.03,-1.42,-0.61,
3.211,-2.61,-3.29,1.42,-2.05,-1.43,-0.56,
3.212,-2.61,-3.29,1.42,-2.07,-1.43,-0.53,
3.212,-1.98,-2.99,1.98,-2.07,-1.43,-0.53,
3.213,-1.98,-2.99,1.98,-2.09,-1.43,-0.50,
3.213,-1.98,-2.99,1.98,-2.10,-1.42,-0.47,
3.213,-1.98,-2.99,1.98,-2.13,-1.42,-0.45,
3.214,-1.98,-2.99,1.98,-2.14,-1.42,-0.43,
3.219,-1.98,-2.99,1.98,-2.15,-1.41,-0.41,
3.221,-1.29,-2.89,2.34,-2.15,-1.41,-0.41,
3.222,-1.29,-2.89,2.34,-2.16,-1.39,-0.40,
3.223,-1.29,-2.89,2.34,-2.17,-1.38,-0.40,
3.226,-1.29,-2.89,2.34,-2.17,-1.37,-0.40,
3.226,-1.29,-2.89,2.34,-2.18,-1.35,-0.41,
3.226,-1.29,-2.89,2.34,-2.19,-1.34,-0.43,
3.23,-0.74,-2.98,2.77,-2.19,-1.34,-0.43,
3.231,-0.74,-2.98,2.77,-2.19,-1.33,-0.45,
3.232,-0.74,-2.98,2.77,-2.20,-1.33,-0.46,
3.232,-0.74,-2.98,2.77,-2.20,-1.32,-0.48,
3.235,-0.74,-2.98,2.77,-2.21,-1.32,-0.50,
3.239,-0.74,-2.98,2.77,-2.21,-1.31,-0.52,
3.239,-0.57,-2.82,2.88,-2.21,-1.31,-0.52,
3.24,-0.57,-2.82,2.88,-2.22,-1.31,-0.55,
3.24,-0.57,-2.82,2.88,-2.22,-1.29,-0.57,
3.242,-0.57,-2.82,2.88,-2.23,-1.28,-0.59,
3.244,-0.57,-2.82,2.88,-2.23,-1.26,-0.61,
3.245,-0.57,-2.82,2.88,-2.23,-1.24,-0.62,
3.248,-0.57,-2.49,2.95,-2.23,-1.24,-0.62,
3.249,-0.57,-2.49,2.95,-2.24,-1.22,-0.64,
3.25,-0.57,-2.49,2.95,-2.24,-1.19,-0.66,
3.251,-0.57,-2.49,2.95,-2.25,-1.15,-0.68,
3.265,-0.57,-2.49,2.95,-2.25,-1.11,-0.69,
3.266,-0.57,-2.49,2.95,-2.25,-1.07,-0.71,
3.266,-0.57,-2.14,2.70,-2.25,-1.07,-0.71,
3.266,-0.57,-2.14,2.70,-2.26,-1.03,-0.73,
3.267,-0.57,-2.14,2.70,-2.26,-0.98,-0.75,
3.267,-0.57,-2.14,2.70,-2.26,-0.93,-0.76,
3.267,-0.57,-2.14,2.70,-2.26,-0.87,-0.78,
3.268,-0.57,-2.14,2.70,-2.26,-0.82,-0.80,
3.268,-0.62,-1.89,2.77,-2.26,-0.82,-0.80,
3.269,-0.62,-1.89,2.77,-2.25,-0.73,-0.82,
3.294,-0.62,-1.89,2.77,-2.24,-0.70,-0.83,
3.297,-0.62,-1.89,2.77,-2.23,-0.63,-0.85,
3.298,-0.62,-1.89,2.77,-2.22,-0.57,-0.86,
3.299,-0.62,-1.89,2.77,-2.21,-0.51,-0.87,
3.3,-0.64,-1.67,2.90,-2.21,-0.51,-0.87,
3.301,-0.64,-1.67,2.90,-2.19,-0.44,-0.89,
3.301,-0.64,-1.67,2.90,-2.18,-0.38,-0.90,
3.303,-0.64,-1.67,2.90,-2.16,-0.31,-0.91,
3.306,-0.64,-1.67,2.90,-2.14,-0.25,-0.92,
3.308,-0.64,-1.67,2.90,-2.12,-0.18,-0.93,
3.309,-0.68,-1.37,3.26,-2.12,-0.18,-0.93,
3.309,-0.68,-1.37,3.26,-2.09,-0.12,-0.94,
3.31,-0.68,-1.37,3.26,-2.06,-0.07,-0.95,
3.311,-0.68,-1.37,3.26,-2.04,-0.01,-0.97,
3.311,-0.68,-1.37,3.26,-2.01,0.05,-0.97,
3.312,-0.68,-1.37,3.26,-1.98,0.11,-0.98,
3.313,-0.65,-1.03,3.47,-1.98,0.11,-0.98,
3.313,-0.65,-1.03,3.47,-1.95,0.16,-0.99,
3.313,-0.65,-1.03,3.47,-1.92,0.21,-1.00,
3.314,-0.65,-1.03,3.47,-1.89,0.26,-1.01,
3.314,-0.65,-1.03,3.47,-1.85,0.31,-1.02,
3.315,-0.65,-1.03,3.47,-1.82,0.35,-1.02,
3.315,-0.68,-0.70,3.72,-1.82,0.35,-1.02,
3.316,-0.68,-0.70,3.72,-1.79,0.39,-1.03,
3.316,-0.68,-0.70,3.72,-1.76,0.44,-1.04,
3.317,-0.68,-0.70,3.72,-1.73,0.48,-1.04,
3.317,-0.68,-0.70,3.72,-1.70,0.52,-1.05,
3.318,-0.68,-0.70,3.72,-1.67,0.56,-1.06,
3.318,-0.67,-0.21,3.68,-1.67,0.56,-1.06,
3.319,-0.67,-0.21,3.68,-1.64,0.60,-1.06,
3.321,-0.67,-0.21,3.68,-1.61,0.64,-1.07,
3.326,-0.67,-0.21,3.68,-1.59,0.67,-1.07,
3.327,-0.67,-0.21,3.68,-1.56,0.69,-1.08,
3.328,-0.67,-0.21,3.68,-1.53,0.72,-1.08,
3.334,-0.67,0.38,3.73,-1.53,0.72,-1.08,
3.335,-0.67,0.38,3.73,-1.51,0.74,-1.09,
3.335,-0.67,0.38,3.73,-1.48,0.76,-1.09,
3.336,-0.67,0.38,3.73,-1.46,0.77,-1.10,
3.336,-0.67,0.38,3.73,-1.43,0.78,-1.11,
3.342,-0.67,0.38,3.73,-1.41,0.79,-1.11,
3.368,-0.62,1.15,3.65,-1.41,0.79,-1.11,
3.368,-0.62,1.15,3.65,-1.39,0.80,-1.12,
3.368,-0.62,1.15,3.65,-1.36,0.81,-1.12,
3.368,-0.62,1.15,3.65,-1.34,0.81,-1.12,
3.369,-0.62,1.15,3.65,-1.32,0.81,-1.13,
3.369,-0.62,1.15,3.65,-1.30,0.80,-1.14,
3.369,-0.58,1.94,3.86,-1.30,0.80,-1.14,
3.369,-0.58,1.94,3.86,-1.27,0.80,-1.14,
3.37,-0.58,1.94,3.86,-1.25,0.80,-1.15,
3.37,-0.58,1.94,3.86,-1.22,0.80,-1.16,
3.37,-0.58,1.94,3.86,-1.20,0.80,-1.16,
3.37,-0.58,1.94,3.86,-1.17,0.81,-1.17,
3.371,-0.54,2.73,4.01,-1.17,0.81,-1.17,
3.371,-0.54,2.73,4.01,-1.15,0.80,-1.17,
3.371,-0.54,2.73,4.01,-1.12,0.80,-1.18,
3.372,-0.54,2.73,4.01,-1.10,0.80,-1.18,
3.372,-0.54,2.73,4.01,-1.07,0.80,-1.18,
3.372,-0.54,2.73,4.01,-1.04,0.80,-1.18,
3.372,-0.58,3.33,4.31,-1.04,0.80,-1.18,
3.373,-0.58,3.33,4.31,-1.02,0.80,-1.18,
3.373,-0.58,3.33,4.31,-0.99,0.80,-1.18,
3.373,-0.58,3.33,4.31,-0.97,0.80,-1.18,
3.373,-0.58,3.33,4.31,-0.94,0.79,-1.18,
3.38,-0.58,3.33,4.31,-0.92,0.79,-1.18,
3.381,-0.66,3.82,4.19,-0.92,0.79,-1.18,
3.381,-0.66,3.82,4.19,-0.90,0.78,-1.17,
3.381,-0.66,3.82,4.19,-0.88,0.76,-1.17,
3.381,-0.66,3.82,4.19,-0.86,0.75,-1.17,
3.399,-0.66,3.82,4.19,-0.85,0.74,-1.17,
3.399,-0.66,3.82,4.19,-0.83,0.72,-1.16,
3.4,-0.70,4.13,4.32,-0.83,0.72,-1.16,
3.4,-0.70,4.13,4.32,-0.81,0.70,-1.16,
3.4,-0.70,4.13,4.32,-0.80,0.69,-1.15,
3.4,-0.70,4.13,4.32,-0.78,0.66,-1.14,
3.401,-0.70,4.13,4.32,-0.76,0.64,-1.13,
3.401,-0.70,4.13,4.32,-0.75,0.63,-1.12,
3.401,-0.82,4.38,4.10,-0.75,0.63,-1.12,
3.401,-0.82,4.38,4.10,-0.74,0.61,-1.12,
3.401,-0.82,4.38,4.10,-0.73,0.59,-1.10,
3.402,-0.82,4.38,4.10,-0.71,0.57,-1.09,
3.404,-0.82,4.38,4.10,-0.70,0.55,-1.07,
3.406,-0.82,4.38,4.10,-0.69,0.54,-1.06,
3.408,-0.97,4.41,4.22,-0.69,0.54,-1.06,
3.408,-0.97,4.41,4.22,-0.68,0.52,-1.04,
3.41,-0.97,4.41,4.22,-0.66,0.50,-1.02,
3.411,-0.97,4.41,4.22,-0.65,0.48,-1.00,
3.413,-0.97,4.41,4.22,-0.64,0.47,-0.98,
3.416,-0.97,4.41,4.22,-0.62,0.45,-0.96,
3.418,-1.22,4.38,4.07,-0.62,0.45,-0.96,
3.418,-1.22,4.38,4.07,-0.61,0.43,-0.93,
3.42,-1.22,4.38,4.07,-0.60,0.41,-0.90,
3.422,-1.22,4.38,4.07,-0.58,0.40,-0.87,
3.424,-1.22,4.38,4.07,-0.56,0.38,-0.85,
3.426,-1.22,4.38,4.07,-0.54,0.36,-0.82,
3.428,-1.44,4.15,4.27,-0.54,0.36,-0.82,
3.429,-1.44,4.15,4.27,-0.52,0.35,-0.79,
3.429,-1.44,4.15,4.27,-0.49,0.33,-0.75,
3.432,-1.44,4.15,4.27,-0.47,0.31,-0.71,
3.434,-1.44,4.15,4.27,-0.44,0.30,-0.68,
3.437,-1.44,4.15,4.27,-0.41,0.28,-0.64,
3.439,-1.63,3.94,4.27,-0.41,0.28,-0.64,
3.439,-1.63,3.94,4.27,-0.37,0.25,-0.60,
3.44,-1.63,3.94,4.27,-0.34,0.23,-0.56,
3.442,-1.63,3.94,4.27,-0.31,0.20,-0.52,
3.447,-1.63,3.94,4.27,-0.27,0.17,-0.48,
3.448,-1.63,3.94,4.27,-0.23,0.14,-0.43,
3.448,-1.83,3.75,4.40,-0.23,0.14,-0.43,
3.449,-1.83,3.75,4.40,-0.19,0.11,-0.38,
3.45,-1.83,3.75,4.40,-0.15,0.07,-0.33,
3.452,-1.83,3.75,4.40,-0.10,0.04,-0.28,
3.453,-1.83,3.75,4.40,-0.05,0.00,-0.23,
3.456,-1.83,3.75,4.40,-0.01,-0.03,-0.18,
3.459,-2.05,3.75,4.18,-0.01,-0.03,-0.18,
3.459,-2.05,3.75,4.18,0.04,-0.07,-0.13,
3.459,-2.05,3.75,4.18,0.09,-0.10,-0.07,
3.461,-2.05,3.75,4.18,0.14,-0.14,-0.01,
3.464,-2.05,3.75,4.18,0.19,-0.17,0.05,
3.466,-2.05,3.75,4.18,0.24,-0.21,0.10,
3.468,-2.37,3.84,3.91,0.24,-0.21,0.10,
3.468,-2.37,3.84,3.91,0.29,-0.24,0.16,
3.473,-2.37,3.84,3.91,0.34,-0.27,0.22,
3.473,-2.37,3.84,3.91,0.38,-0.30,0.28,
3.473,-2.37,3.84,3.91,0.43,-0.33,0.33,
3.477,-2.37,3.84,3.91,0.48,-0.36,0.39,
3.481,-2.35,4.01,3.41,0.48,-0.36,0.39,
3.482,-2.35,4.01,3.41,0.53,-0.38,0.44,
3.482,-2.35,4.01,3.41,0.59,-0.41,0.49,
3.482,-2.35,4.01,3.41,0.66,-0.44,0.55,
3.484,-2.35,4.01,3.41,0.69,-0.46,0.58,
3.496,-2.35,4.01,3.41,0.74,-0.47,0.61,
3.497,-2.20,3.99,3.15,0.74,-0.47,0.61,
3.497,-2.20,3.99,3.15,0.79,-0.49,0.65,
3.497,-2.20,3.99,3.15,0.85,-0.51,0.68,
3.497,-2.20,3.99,3.15,0.90,-0.53,0.71,
3.498,-2.20,3.99,3.15,0.95,-0.54,0.74,
3.498,-2.20,3.99,3.15,1.00,-0.56,0.77,
3.498,-1.98,3.83,2.54,1.00,-0.56,0.77,
3.498,-1.98,3.83,2.54,1.04,-0.57,0.79,
3.499,-1.98,3.83,2.54,1.09,-0.59,0.82,
3.502,-1.98,3.83,2.54,1.13,-0.61,0.84,
3.523,-1.98,3.83,2.54,1.18,-0.62,0.86,
3.523,-1.98,3.83,2.54,1.21,-0.64,0.88,
3.523,-1.87,3.46,1.81,1.21,-0.64,0.88,
3.523,-1.87,3.46,1.81,1.25,-0.66,0.91,
3.524,-1.87,3.46,1.81,1.28,-0.68,0.93,
3.524,-1.87,3.46,1.81,1.30,-0.70,0.95,
3.524,-1.87,3.46,1.81,1.32,-0.71,0.97,
3.525,-1.87,3.46,1.81,1.33,-0.73,1.00,
3.525,-1.77,2.92,0.53,1.33,-0.73,1.00,
3.525,-1.77,2.92,0.53,1.34,-0.74,1.02,
3.525,-1.77,2.92,0.53,1.34,-0.76,1.04,
3.526,-1.77,2.92,0.53,1.32,-0.77,1.07,
3.526,-1.77,2.92,0.53,1.30,-0.78,1.09,
3.526,-1.77,2.92,0.53,1.27,-0.78,1.11,
3.528,-1.71,2.03,-1.69,1.27,-0.78,1.11,
3.528,-1.71,2.03,-1.69,1.22,-0.79,1.13,
3.529,-1.71,2.03,-1.69,1.16,-0.79,1.16,
3.531,-1.71,2.03,-1.69,1.09,-0.78,1.18,
3.533,-1.71,2.03,-1.69,1.00,-0.77,1.19,
3.536,-1.71,2.03,-1.69,0.90,-0.75,1.21,
3.541,-1.41,0.90,-4.90,0.90,-0.75,1.21,
3.541,-1.41,0.90,-4.90,0.79,-0.72,1.23,
3.542,-1.41,0.90,-4.90,0.67,-0.66,1.24,
3.55,-1.41,0.90,-4.90,0.55,-0.58,1.25,
3.55,-1.41,0.90,-4.90,0.42,-0.45,1.25,
3.55,-1.41,0.90,-4.90,0.32,-0.29,1.24,
3.55,-0.98,-0.37,-9.06,0.32,-0.29,1.24,
3.551,-0.98,-0.37,-9.06,0.24,-0.07,1.23,
3.551,-0.98,-0.37,-9.06,0.19,0.21,1.21,
3.552,-0.98,-0.37,-9.06,0.19,0.51,1.18,
3.555,-0.98,-0.37,-9.06,0.23,0.83,1.13,
3.556,-0.98,-0.37,-9.06,0.32,1.10,1.08,
3.558,-0.13,-1.69,-11.09,0.32,1.10,1.08,
3.558,-0.13,-1.69,-11.09,0.41,1.27,1.00,
3.56,-0.13,-1.69,-11.09,0.52,1.40,0.92,
3.561,-0.13,-1.69,-11.09,0.64,1.51,0.84,
3.564,-0.13,-1.69,-11.09,0.76,1.59,0.75,
3.565,-0.13,-1.69,-11.09,0.88,1.60,0.66,
3.569,0.75,-2.71,-13.68,0.88,1.60,0.66,
3.569,0.75,-2.71,-13.68,0.99,1.56,0.58,
3.57,0.75,-2.71,-13.68,1.09,1.47,0.51,
3.572,0.75,-2.71,-13.68,1.16,1.35,0.44,
3.574,0.75,-2.71,-13.68,1.23,1.22,0.39,
3.575,0.75,-2.71,-13.68,1.27,1.08,0.34,
3.577,1.25,-3.40,-16.41,1.27,1.08,0.34,
3.578,1.25,-3.40,-16.41,1.29,0.97,0.30,
3.579,1.25,-3.40,-16.41,1.30,0.88,0.27,
3.582,1.25,-3.40,-16.41,1.29,0.80,0.24,
3.583,1.25,-3.40,-16.41,1.26,0.76,0.23,
3.586,1.25,-3.40,-16.41,1.23,0.73,0.22,
3.588,1.65,-3.87,-17.20,1.23,0.73,0.22,
3.589,1.65,-3.87,-17.20,1.18,0.73,0.22,
3.59,1.65,-3.87,-17.20,1.13,0.75,0.22,
3.592,1.65,-3.87,-17.20,1.07,0.79,0.23,
3.593,1.65,-3.87,-17.20,1.01,0.85,0.25,
3.595,1.65,-3.87,-17.20,0.95,0.93,0.26,
3.598,2.84,-3.71,-15.56,0.95,0.93,0.26,
3.598,2.84,-3.71,-15.56,0.88,1.01,0.28,
3.6,2.84,-3.71,-15.56,0.82,1.10,0.31,
3.602,2.84,-3.71,-15.56,0.75,1.20,0.33,
3.605,2.84,-3.71,-15.56,0.69,1.30,0.34,
3.606,2.84,-3.71,-15.56,0.63,1.41,0.36,
3.608,3.98,-3.10,-12.73,0.63,1.41,0.36,
3.608,3.98,-3.10,-12.73,0.57,1.51,0.37,
3.61,3.98,-3.10,-12.73,0.51,1.61,0.39,
3.612,3.98,-3.10,-12.73,0.46,1.70,0.40,
3.615,3.98,-3.10,-12.73,0.40,1.78,0.41,
3.616,3.98,-3.10,-12.73,0.34,1.85,0.41,
3.619,4.15,-2.15,-9.53,0.34,1.85,0.41,
3.619,4.15,-2.15,-9.53,0.25,1.93,0.42,
3.621,4.15,-2.15,-9.53,0.20,1.97,0.42,
3.622,4.15,-2.15,-9.53,0.14,1.99,0.42,
3.624,4.15,-2.15,-9.53,0.11,2.00,0.41,
3.626,4.15,-2.15,-9.53,0.05,1.99,0.40,
3.628,4.09,-1.08,-6.94,0.05,1.99,0.40,
3.628,4.09,-1.08,-6.94,-0.01,1.98,0.39,
3.632,4.09,-1.08,-6.94,-0.07,1.96,0.37,
3.632,4.09,-1.08,-6.94,-0.12,1.93,0.34,
3.634,4.09,-1.08,-6.94,-0.18,1.88,0.32,
3.638,4.09,-1.08,-6.94,-0.23,1.83,0.29,
3.639,3.70,-0.03,-4.19,-0.23,1.83,0.29,
3.639,3.70,-0.03,-4.19,-0.28,1.76,0.26,
3.643,3.70,-0.03,-4.19,-0.37,1.62,0.20,
3.644,3.70,-0.03,-4.19,-0.37,1.62,0.20,
3.646,3.70,-0.03,-4.19,-0.40,1.54,0.17,
3.646,3.70,-0.03,-4.19,-0.44,1.46,0.14,
3.657,3.03,0.76,-1.24,-0.44,1.46,0.14,
3.658,3.03,0.76,-1.24,-0.46,1.37,0.11,
3.658,3.03,0.76,-1.24,-0.48,1.29,0.09,
3.658,3.03,0.76,-1.24,-0.50,1.20,0.05,
3.658,3.03,0.76,-1.24,-0.51,1.12,0.02,
3.659,3.03,0.76,-1.24,-0.52,1.03,-0.02,
3.66,2.57,0.73,1.46,-0.52,1.03,-0.02,
3.66,2.57,0.73,1.46,-0.52,0.95,-0.05,
3.66,2.57,0.73,1.46,-0.52,0.87,-0.10,
3.662,2.57,0.73,1.46,-0.52,0.80,-0.14,
3.664,2.57,0.73,1.46,-0.51,0.73,-0.18,
3.666,2.57,0.73,1.46,-0.50,0.67,-0.23,
3.669,2.78,-0.25,3.27,-0.50,0.67,-0.23,
3.669,2.78,-0.25,3.27,-0.47,0.58,-0.30,
3.686,2.78,-0.25,3.27,-0.45,0.53,-0.34,
3.686,2.78,-0.25,3.27,-0.42,0.49,-0.38,
3.687,2.78,-0.25,3.27,-0.40,0.47,-0.40,
3.687,2.78,-0.25,3.27,-0.37,0.42,-0.45,
3.687,3.07,-1.60,4.46,-0.37,0.42,-0.45,
3.687,3.07,-1.60,4.46,-0.33,0.38,-0.49,
3.688,3.07,-1.60,4.46,-0.29,0.34,-0.53,
3.688,3.07,-1.60,4.46,-0.23,0.28,-0.59,
3.688,3.07,-1.60,4.46,-0.21,0.26,-0.62,
3.688,3.07,-1.60,4.46,-0.18,0.23,-0.66,
3.688,3.53,-3.27,4.53,-0.18,0.23,-0.66,
3.689,3.53,-3.27,4.53,-0.15,0.20,-0.70,
3.69,3.53,-3.27,4.53,-0.09,0.14,-0.77,
3.692,3.53,-3.27,4.53,-0.05,0.09,-0.80,
3.694,3.53,-3.27,4.53,-0.03,0.06,-0.82,
3.696,3.53,-3.27,4.53,0.03,-0.02,-0.85,
3.698,3.59,-4.67,5.31,0.03,-0.02,-0.85,
3.698,3.59,-4.67,5.31,0.13,-0.18,-0.90,
3.699,3.59,-4.67,5.31,0.20,-0.31,-0.92,
3.701,3.59,-4.67,5.31,0.28,-0.45,-0.95,
3.704,3.59,-4.67,5.31,0.32,-0.53,-0.96,
3.706,3.59,-4.67,5.31,0.39,-0.69,-0.97,
3.71,3.27,-5.05,6.89,0.39,-0.69,-0.97,
3.711,3.27,-5.05,6.89,0.50,-0.95,-0.99,
3.711,3.27,-5.05,6.89,0.56,-1.13,-0.99,
3.712,3.27,-5.05,6.89,0.61,-1.32,-0.98,
3.713,3.27,-5.05,6.89,0.63,-1.41,-0.97,
3.715,3.27,-5.05,6.89,0.66,-1.59,-0.95,
3.718,2.27,-4.53,6.32,0.66,-1.59,-0.95,
3.719,2.27,-4.53,6.32,0.70,-1.86,-0.91,
3.72,2.27,-4.53,6.32,0.71,-2.03,-0.87,
3.722,2.27,-4.53,6.32,0.72,-2.21,-0.83,
3.724,2.27,-4.53,6.32,0.72,-2.38,-0.79,
3.726,2.27,-4.53,6.32,0.71,-2.54,-0.74,
3.728,1.26,-2.97,5.10,0.71,-2.54,-0.74,
3.728,1.26,-2.97,5.10,0.70,-2.68,-0.69,
3.729,1.26,-2.97,5.10,0.69,-2.82,-0.64,
3.731,1.26,-2.97,5.10,0.67,-2.95,-0.59,
3.735,1.26,-2.97,5.10,0.66,-3.06,-0.54,
3.736,1.26,-2.97,5.10,0.65,-3.15,-0.49,
3.742,0.52,-1.16,3.94,0.65,-3.15,-0.49,
3.742,0.52,-1.16,3.94,0.64,-3.22,-0.44,
3.743,0.52,-1.16,3.94,0.63,-3.28,-0.39,
3.743,0.52,-1.16,3.94,0.62,-3.32,-0.34,
3.744,0.52,-1.16,3.94,0.62,-3.34,-0.29,
3.746,0.52,-1.16,3.94,0.61,-3.36,-0.25,
3.748,0.07,0.66,3.31,0.61,-3.36,-0.25,
3.748,0.07,0.66,3.31,0.61,-3.36,-0.20,
3.749,0.07,0.66,3.31,0.61,-3.35,-0.16,
3.756,0.07,0.66,3.31,0.61,-3.33,-0.12,
3.756,0.07,0.66,3.31,0.61,-3.30,-0.09,
3.756,0.07,0.66,3.31,0.62,-3.26,-0.05,
3.758,-0.01,2.01,2.72,0.62,-3.26,-0.05,
3.758,-0.01,2.01,2.72,0.61,-3.22,-0.02,
3.76,-0.01,2.01,2.72,0.62,-3.16,0.01,
3.762,-0.01,2.01,2.72,0.62,-3.10,0.04,
3.764,-0.01,2.01,2.72,0.62,-3.03,0.07,
3.766,-0.01,2.01,2.72,0.63,-2.96,0.10,
3.787,-0.34,3.06,2.35,0.63,-2.96,0.10,
3.788,-0.34,3.06,2.35,0.63,-2.88,0.13,
3.788,-0.34,3.06,2.35,0.64,-2.79,0.15,
3.788,-0.34,3.06,2.35,0.64,-2.70,0.17,
3.788,-0.34,3.06,2.35,0.65,-2.60,0.19,
3.788,-0.34,3.06,2.35,0.66,-2.50,0.21,
3.789,-0.87,3.48,1.98,0.66,-2.50,0.21,
3.789,-0.87,3.48,1.98,0.66,-2.40,0.24,
3.789,-0.87,3.48,1.98,0.67,-2.29,0.26,
3.789,-0.87,3.48,1.98,0.68,-2.19,0.29,
3.789,-0.87,3.48,1.98,0.69,-2.07,0.31,
3.789,-0.87,3.48,1.98,0.70,-1.96,0.34,
3.789,-1.46,3.68,1.86,0.70,-1.96,0.34,
3.79,-1.46,3.68,1.86,0.71,-1.84,0.37,
3.79,-1.46,3.68,1.86,0.72,-1.72,0.39,
3.793,-1.46,3.68,1.86,0.74,-1.60,0.41,
3.796,-1.46,3.68,1.86,0.75,-1.48,0.43,
3.796,-1.46,3.68,1.86,0.78,-1.35,0.44,
3.797,-1.32,3.35,2.00,0.78,-1.35,0.44,
3.798,-1.32,3.35,2.00,0.80,-1.21,0.45,
3.799,-1.32,3.35,2.00,0.83,-1.06,0.45,
3.802,-1.32,3.35,2.00,0.86,-0.91,0.45,
3.804,-1.32,3.35,2.00,0.89,-0.74,0.45,
3.807,-1.32,3.35,2.00,0.93,-0.58,0.44,
3.81,-0.82,2.35,2.62,0.93,-0.58,0.44,
3.81,-0.82,2.35,2.62,0.97,-0.41,0.44,
3.81,-0.82,2.35,2.62,1.01,-0.25,0.44,
3.812,-0.82,2.35,2.62,1.06,-0.09,0.44,
3.814,-0.82,2.35,2.62,1.10,0.05,0.43,
3.816,-0.82,2.35,2.62,1.15,0.19,0.44,
3.819,-0.81,1.19,3.18,1.15,0.19,0.44,
3.821,-0.81,1.19,3.18,1.19,0.32,0.44,
3.822,-0.81,1.19,3.18,1.23,0.43,0.45,
3.823,-0.81,1.19,3.18,1.26,0.54,0.46,
3.824,-0.81,1.19,3.18,1.29,0.64,0.48,
3.828,-0.81,1.19,3.18,1.32,0.72,0.50,
3.829,-1.47,0.10,3.28,1.32,0.72,0.50,
3.829,-1.47,0.10,3.28,1.34,0.80,0.52,
3.829,-1.47,0.10,3.28,1.36,0.87,0.54,
3.831,-1.47,0.10,3.28,1.37,0.94,0.57,
3.834,-1.47,0.10,3.28,1.38,1.00,0.60,
3.836,-1.47,0.10,3.28,1.39,1.06,0.62,
3.875,-2.07,-0.78,2.74,1.39,1.06,0.62,
3.875,-2.07,-0.78,2.74,1.39,1.11,0.65,
3.876,-2.07,-0.78,2.74,1.39,1.17,0.69,
3.876,-2.07,-0.78,2.74,1.38,1.22,0.72,
3.876,-2.07,-0.78,2.74,1.38,1.27,0.75,
3.877,-2.07,-0.78,2.74,1.37,1.31,0.77,
3.877,-2.45,-1.54,2.38,1.37,1.31,0.77,
3.878,-2.45,-1.54,2.38,1.36,1.36,0.80,
3.878,-2.45,-1.54,2.38,1.34,1.41,0.83,
3.879,-2.45,-1.54,2.38,1.32,1.45,0.85,
3.879,-2.45,-1.54,2.38,1.31,1.49,0.87,
3.879,-2.45,-1.54,2.38,1.29,1.53,0.89,
3.88,-2.35,-2.21,1.90,1.29,1.53,0.89,
3.88,-2.35,-2.21,1.90,1.27,1.57,0.91,
3.881,-2.35,-2.21,1.90,1.24,1.61,0.92,
3.881,-2.35,-2.21,1.90,1.22,1.64,0.93,
3.881,-2.35,-2.21,1.90,1.19,1.67,0.95,
3.882,-2.35,-2.21,1.90,1.16,1.70,0.96,
3.882,-2.38,-2.66,1.53,1.16,1.70,0.96,
3.882,-2.38,-2.66,1.53,1.14,1.73,0.97,
3.883,-2.38,-2.66,1.53,1.11,1.75,0.98,
3.883,-2.38,-2.66,1.53,1.08,1.77,1.00,
3.883,-2.38,-2.66,1.53,1.06,1.79,1.01,
3.884,-2.38,-2.66,1.53,1.04,1.80,1.02,
3.884,-2.45,-2.79,1.21,1.04,1.80,1.02,
3.885,-2.45,-2.79,1.21,1.01,1.81,1.03,
3.885,-2.45,-2.79,1.21,0.99,1.81,1.04,
3.885,-2.45,-2.79,1.21,0.97,1.80,1.05,
3.886,-2.45,-2.79,1.21,0.95,1.80,1.05,
3.886,-2.45,-2.79,1.21,0.93,1.79,1.06,
3.889,-2.56,-2.53,1.00,0.93,1.79,1.06,
3.89,-2.56,-2.53,1.00,0.92,1.77,1.06,
3.89,-2.56,-2.53,1.00,0.90,1.76,1.07,
3.892,-2.56,-2.53,1.00,0.89,1.74,1.07,
3.894,-2.56,-2.53,1.00,0.88,1.72,1.07,
3.898,-2.56,-2.53,1.00,0.88,1.70,1.07,
3.898,-2.47,-2.02,0.83,0.88,1.70,1.07,
3.899,-2.47,-2.02,0.83,0.88,1.68,1.07,
3.901,-2.47,-2.02,0.83,0.87,1.66,1.07,
3.903,-2.47,-2.02,0.83,0.83,1.62,1.08,
3.904,-2.47,-2.02,0.83,0.77,1.55,1.09,
3.907,-2.47,-2.02,0.83,0.67,1.45,1.11,
3.908,-3.17,-1.10,-2.01,0.67,1.45,1.11,
3.908,-3.17,-1.10,-2.01,0.56,1.33,1.12,
3.91,-3.17,-1.10,-2.01,0.44,1.21,1.13,
3.912,-3.17,-1.10,-2.01,0.31,1.07,1.14,
3.914,-3.17,-1.10,-2.01,0.19,0.93,1.14,
3.916,-3.17,-1.10,-2.01,0.10,0.79,1.14,
3.922,-3.59,0.08,-5.23,0.10,0.79,1.14,
3.923,-3.59,0.08,-5.23,0.02,0.64,1.13,
3.923,-3.59,0.08,-5.23,-0.02,0.50,1.11,
3.924,-3.59,0.08,-5.23,-0.03,0.36,1.09,
3.926,-3.59,0.08,-5.23,-0.02,0.24,1.07,
3.926,-3.59,0.08,-5.23,0.02,0.13,1.06,
3.952,-3.11,0.69,-4.79,0.02,0.13,1.06,
3.953,-3.11,0.69,-4.79,0.07,0.03,1.05,
3.954,-3.11,0.69,-4.79,0.14,-0.06,1.05,
3.954,-3.11,0.69,-4.79,0.23,-0.14,1.05,
3.954,-3.11,0.69,-4.79,0.34,-0.21,1.04,
3.954,-3.11,0.69,-4.79,0.45,-0.27,1.04,
3.955,-1.86,0.94,-3.28,0.45,-0.27,1.04,
3.955,-1.86,0.94,-3.28,0.57,-0.31,1.03,
3.955,-1.86,0.94,-3.28,0.70,-0.35,1.02,
3.956,-1.86,0.94,-3.28,0.83,-0.38,1.01,
3.956,-1.86,0.94,-3.28,0.95,-0.40,0.99,
3.956,-1.86,0.94,-3.28,1.07,-0.42,0.98,
3.957,-0.96,1.02,-2.63,1.07,-0.42,0.98,
3.957,-0.96,1.02,-2.63,1.19,-0.43,0.96,
3.957,-0.96,1.02,-2.63,1.30,-0.44,0.94,
3.957,-0.96,1.02,-2.63,1.41,-0.45,0.92,
3.958,-0.96,1.02,-2.63,1.51,-0.46,0.90,
3.958,-0.96,1.02,-2.63,1.60,-0.48,0.88,
3.958,-0.27,0.89,-2.47,1.60,-0.48,0.88,
3.959,-0.27,0.89,-2.47,1.68,-0.49,0.85,
3.959,-0.27,0.89,-2.47,1.75,-0.50,0.83,
3.961,-0.27,0.89,-2.47,1.82,-0.52,0.81,
3.963,-0.27,0.89,-2.47,1.87,-0.54,0.78,
3.965,-0.27,0.89,-2.47,1.92,-0.56,0.76,
3.97,-0.03,0.61,-2.78,1.92,-0.56,0.76,
3.97,-0.03,0.61,-2.78,1.95,-0.59,0.74,
3.97,-0.03,0.61,-2.78,1.97,-0.62,0.72,
3.972,-0.03,0.61,-2.78,1.99,-0.65,0.70,
3.974,-0.03,0.61,-2.78,2.00,-0.68,0.68,
3.976,-0.03,0.61,-2.78,1.99,-0.72,0.67,
3.978,-0.22,0.36,-2.94,1.99,-0.72,0.67,
3.978,-0.22,0.36,-2.94,1.98,-0.75,0.65,
3.98,-0.22,0.36,-2.94,1.97,-0.78,0.64,
3.982,-0.22,0.36,-2.94,1.94,-0.81,0.64,
3.985,-0.22,0.36,-2.94,1.91,-0.83,0.63,
3.986,-0.22,0.36,-2.94,1.88,-0.85,0.62,
3.99,-0.54,0.23,-3.08,1.88,-0.85,0.62,
3.993,-0.54,0.23,-3.08,1.84,-0.87,0.62,
3.994,-0.54,0.23,-3.08,1.79,-0.88,0.62,
3.995,-0.54,0.23,-3.08,1.74,-0.89,0.61,
3.996,-0.54,0.23,-3.08,1.68,-0.90,0.61,
3.996,-0.54,0.23,-3.08,1.62,-0.91,0.61,
3.998,-0.62,0.15,-2.88,1.62,-0.91,0.61,
3.998,-0.62,0.15,-2.88,1.56,-0.91,0.61,
4.002,-0.62,0.15,-2.88,1.49,-0.92,0.61,
4.005,-0.62,0.15,-2.88,1.43,-0.92,0.61,
4.032,-0.62,0.15,-2.88,1.36,-0.92,0.62,
4.032,-0.62,0.15,-2.88,1.29,-0.91,0.62,
4.035,-0.52,0.33,-2.51,1.29,-0.91,0.62,
4.036,-0.52,0.33,-2.51,1.22,-0.90,0.62,
4.036,-0.52,0.33,-2.51,1.15,-0.89,0.62,
4.036,-0.52,0.33,-2.51,1.09,-0.87,0.63,
4.037,-0.52,0.33,-2.51,1.02,-0.85,0.63,
4.037,-0.52,0.33,-2.51,0.96,-0.83,0.63,
4.037,-0.43,0.64,-1.89,0.96,-0.83,0.63,
4.037,-0.43,0.64,-1.89,0.90,-0.81,0.63,
4.038,-0.43,0.64,-1.89,0.85,-0.79,0.63,
4.038,-0.43,0.64,-1.89,0.80,-0.77,0.62,
4.038,-0.43,0.64,-1.89,0.76,-0.75,0.62,
4.038,-0.43,0.64,-1.89,0.72,-0.74,0.61,
4.039,-0.23,0.88,-1.16,0.72,-0.74,0.61,
4.039,-0.23,0.88,-1.16,0.68,-0.72,0.61,
4.039,-0.23,0.88,-1.16,0.65,-0.71,0.60,
4.04,-0.23,0.88,-1.16,0.62,-0.71,0.59,
4.04,-0.23,0.88,-1.16,0.60,-0.70,0.59,
4.04,-0.23,0.88,-1.16,0.58,-0.69,0.57,
4.04,0.12,0.99,-0.48,0.58,-0.69,0.57,
4.041,0.12,0.99,-0.48,0.56,-0.69,0.56,
4.041,0.12,0.99,-0.48,0.56,-0.68,0.55,
4.041,0.12,0.99,-0.48,0.55,-0.68,0.53,
4.045,0.12,0.99,-0.48,0.56,-0.67,0.52,
4.046,0.12,0.99,-0.48,0.57,-0.66,0.50,
4.05,0.42,1.11,0.07,0.57,-0.66,0.50,
4.051,0.42,1.11,0.07,0.58,-0.66,0.49,
4.051,0.42,1.11,0.07,0.60,-0.65,0.47,
4.058,0.42,1.11,0.07,0.62,-0.64,0.46,
4.059,0.42,1.11,0.07,0.65,-0.63,0.44,
4.059,0.42,1.11,0.07,0.67,-0.61,0.42,
4.059,0.62,1.29,0.39,0.67,-0.61,0.42,
4.06,0.62,1.29,0.39,0.71,-0.59,0.41,
4.099,0.62,1.29,0.39,0.74,-0.57,0.39,
4.1,0.62,1.29,0.39,0.78,-0.55,0.38,
4.1,0.62,1.29,0.39,0.82,-0.52,0.37,
4.101,0.62,1.29,0.39,0.86,-0.49,0.36,
4.101,0.76,1.41,0.34,0.86,-0.49,0.36,
4.101,0.76,1.41,0.34,0.91,-0.46,0.35,
4.101,0.76,1.41,0.34,0.96,-0.42,0.34,
4.101,0.76,1.41,0.34,1.01,-0.38,0.34,
4.102,0.76,1.41,0.34,1.06,-0.34,0.34,
4.102,0.76,1.41,0.34,1.11,-0.30,0.33,
4.102,0.89,1.48,-0.03,1.11,-0.30,0.33,
4.102,0.89,1.48,-0.03,1.16,-0.25,0.33,
4.103,0.89,1.48,-0.03,1.21,-0.21,0.33,
4.103,0.89,1.48,-0.03,1.27,-0.16,0.33,
4.103,0.89,1.48,-0.03,1.33,-0.10,0.33,
4.103,0.89,1.48,-0.03,1.38,-0.05,0.34,
4.104,1.11,1.41,-0.66,1.38,-0.05,0.34,
4.104,1.11,1.41,-0.66,1.43,0.00,0.34,
4.104,1.11,1.41,-0.66,1.49,0.05,0.35,
4.104,1.11,1.41,-0.66,1.53,0.11,0.35,
4.104,1.11,1.41,-0.66,1.58,0.17,0.35,
4.105,1.11,1.41,-0.66,1.63,0.22,0.36,
4.105,1.28,0.95,-1.53,1.63,0.22,0.36,
4.105,1.28,0.95,-1.53,1.67,0.28,0.36,
4.105,1.28,0.95,-1.53,1.71,0.33,0.36,
4.106,1.28,0.95,-1.53,1.75,0.38,0.36,
4.106,1.28,0.95,-1.53,1.78,0.44,0.36,
4.106,1.28,0.95,-1.53,1.81,0.49,0.36,
4.11,1.45,0.18,-2.54,1.81,0.49,0.36,
4.111,1.45,0.18,-2.54,1.84,0.53,0.36,
4.111,1.45,0.18,-2.54,1.86,0.58,0.35,
4.112,1.45,0.18,-2.54,1.88,0.62,0.35,
4.115,1.45,0.18,-2.54,1.90,0.65,0.34,
4.116,1.45,0.18,-2.54,1.91,0.67,0.33,
4.12,1.53,-0.68,-3.30,1.91,0.67,0.33,
4.12,1.53,-0.68,-3.30,1.92,0.70,0.33,
4.121,1.53,-0.68,-3.30,1.93,0.71,0.32,
4.121,1.53,-0.68,-3.30,1.94,0.73,0.31,
4.124,1.53,-0.68,-3.30,1.94,0.73,0.30,
4.126,1.53,-0.68,-3.30,1.94,0.73,0.29,
4.13,1.64,-1.61,-4.04,1.94,0.73,0.29,
4.131,1.64,-1.61,-4.04,1.94,0.73,0.28,
4.131,1.64,-1.61,-4.04,1.93,0.72,0.27,
4.131,1.64,-1.61,-4.04,1.93,0.71,0.26,
4.134,1.64,-1.61,-4.04,1.92,0.68,0.25,
4.137,1.64,-1.61,-4.04,1.92,0.66,0.25,
4.138,1.58,-2.39,-4.49,1.92,0.66,0.25,
4.138,1.58,-2.39,-4.49,1.91,0.62,0.24,
4.141,1.58,-2.39,-4.49,1.90,0.58,0.23,
4.144,1.58,-2.39,-4.49,1.89,0.49,0.23,
4.145,1.58,-2.39,-4.49,1.89,0.49,0.23,
4.145,1.58,-2.39,-4.49,1.88,0.44,0.22,
4.149,1.43,-3.02,-5.03,1.88,0.44,0.22,
4.15,1.43,-3.02,-5.03,1.88,0.38,0.22,
4.15,1.43,-3.02,-5.03,1.88,0.31,0.22,
4.153,1.43,-3.02,-5.03,1.87,0.25,0.22,
4.154,1.43,-3.02,-5.03,1.87,0.18,0.22,
4.156,1.43,-3.02,-5.03,1.86,0.10,0.22,
4.158,1.19,-3.38,-5.55,1.86,0.10,0.22,
4.158,1.19,-3.38,-5.55,1.86,0.03,0.22,
4.16,1.19,-3.38,-5.55,1.85,-0.05,0.22,
4.162,1.19,-3.38,-5.55,1.83,-0.13,0.22,
4.164,1.19,-3.38,-5.55,1.81,-0.22,0.22,
4.166,1.19,-3.38,-5.55,1.79,-0.30,0.22,
4.169,0.99,-3.57,-6.75,1.79,-0.30,0.22,
4.169,0.99,-3.57,-6.75,1.76,-0.38,0.21,
4.197,0.99,-3.57,-6.75,1.72,-0.46,0.21,
4.197,0.99,-3.57,-6.75,1.68,-0.55,0.20,
4.198,0.99,-3.57,-6.75,1.63,-0.63,0.20,
4.198,0.99,-3.57,-6.75,1.57,-0.71,0.19,
4.198,0.74,-3.53,-8.09,1.57,-0.71,0.19,
4.199,0.74,-3.53,-8.09,1.50,-0.78,0.18,
4.199,0.74,-3.53,-8.09,1.43,-0.85,0.17,
4.2,0.74,-3.53,-8.09,1.34,-0.92,0.15,
4.2,0.74,-3.53,-8.09,1.25,-0.98,0.14,
4.2,0.74,-3.53,-8.09,1.16,-1.04,0.13,
4.201,0.55,-3.47,-9.55,1.16,-1.04,0.13,
4.201,0.55,-3.47,-9.55,1.05,-1.09,0.11,
4.201,0.55,-3.47,-9.55,0.94,-1.14,0.10,
4.201,0.55,-3.47,-9.55,0.82,-1.17,0.08,
4.202,0.55,-3.47,-9.55,0.70,-1.20,0.06,
4.202,0.55,-3.47,-9.55,0.57,-1.23,0.05,
4.202,0.47,-3.23,-10.06,0.57,-1.23,0.05,
4.202,0.47,-3.23,-10.06,0.44,-1.24,0.04,
4.203,0.47,-3.23,-10.06,0.31,-1.24,0.02,
4.203,0.47,-3.23,-10.06,0.18,-1.24,0.00,
4.203,0.47,-3.23,-10.06,0.04,-1.23,-0.01,
4.211,0.47,-3.23,-10.06,-0.09,-1.20,-0.02,
4.212,0.64,-3.07,-9.81,-0.09,-1.20,-0.02,
4.212,0.64,-3.07,-9.81,-0.23,-1.17,-0.04,
4.212,0.64,-3.07,-9.81,-0.35,-1.12,-0.05,
4.212,0.64,-3.07,-9.81,-0.48,-1.07,-0.06,
4.216,0.64,-3.07,-9.81,-0.60,-1.01,-0.07,
4.234,0.64,-3.07,-9.81,-0.72,-0.94,-0.09,
4.239,1.08,-2.94,-8.40,-0.72,-0.94,-0.09,
4.24,1.08,-2.94,-8.40,-0.83,-0.86,-0.10,
4.24,1.08,-2.94,-8.40,-0.93,-0.78,-0.12,
4.241,1.08,-2.94,-8.40,-1.04,-0.69,-0.14,
4.241,1.08,-2.94,-8.40,-1.13,-0.60,-0.16,
4.242,1.08,-2.94,-8.40,-1.22,-0.50,-0.18,
4.243,1.95,-3.16,-6.84,-1.22,-0.50,-0.18,
4.244,1.95,-3.16,-6.84,-1.31,-0.41,-0.20,
4.244,1.95,-3.16,-6.84,-1.39,-0.31,-0.23,
4.245,1.95,-3.16,-6.84,-1.47,-0.21,-0.26,
4.245,1.95,-3.16,-6.84,-1.55,-0.10,-0.30,
4.246,1.95,-3.16,-6.84,-1.62,0.00,-0.33,
4.246,2.94,-3.48,-5.40,-1.62,0.00,-0.33,
4.246,2.94,-3.48,-5.40,-1.69,0.12,-0.38,
4.247,2.94,-3.48,-5.40,-1.77,0.24,-0.43,
4.248,2.94,-3.48,-5.40,-1.85,0.37,-0.48,
4.248,2.94,-3.48,-5.40,-1.94,0.51,-0.54,
4.249,2.94,-3.48,-5.40,-2.04,0.67,-0.61,
4.25,4.45,-4.10,-5.81,-2.04,0.67,-0.61,
4.251,4.45,-4.10,-5.81,-2.15,0.84,-0.69,
4.254,4.45,-4.10,-5.81,-2.27,1.04,-0.77,
4.254,4.45,-4.10,-5.81,-2.41,1.25,-0.86,
4.271,4.45,-4.10,-5.81,-2.56,1.48,-0.96,
4.272,4.45,-4.10,-5.81,-2.71,1.71,-1.06,
4.272,6.27,-4.86,-8.23,-2.71,1.71,-1.06,
4.272,6.27,-4.86,-8.23,-2.88,1.95,-1.16,
4.273,6.27,-4.86,-8.23,-3.03,2.19,-1.27,
4.273,6.27,-4.86,-8.23,-3.19,2.42,-1.37,
4.273,6.27,-4.86,-8.23,-3.34,2.65,-1.47,
4.274,6.27,-4.86,-8.23,-3.48,2.87,-1.57,
4.274,7.03,-5.05,-9.18,-3.48,2.87,-1.57,
4.274,7.03,-5.05,-9.18,-3.61,3.07,-1.67,
4.275,7.03,-5.05,-9.18,-3.73,3.26,-1.75,
4.275,7.03,-5.05,-9.18,-3.83,3.42,-1.84,
4.275,7.03,-5.05,-9.18,-3.93,3.56,-1.91,
4.275,7.03,-5.05,-9.18,-4.00,3.66,-1.98,
4.279,5.85,-4.78,-7.45,-4.00,3.66,-1.98,
4.28,5.85,-4.78,-7.45,-4.05,3.74,-2.03,
4.281,5.85,-4.78,-7.45,-4.08,3.78,-2.08,
4.285,5.85,-4.78,-7.45,-4.09,3.78,-2.11,
4.286,5.85,-4.78,-7.45,-4.07,3.74,-2.13,
4.286,5.85,-4.78,-7.45,-4.02,3.65,-2.14,
4.288,3.45,-4.51,-2.67,-4.02,3.65,-2.14,
4.289,3.45,-4.51,-2.67,-3.95,3.52,-2.14,
4.29,3.45,-4.51,-2.67,-3.85,3.35,-2.12,
4.292,3.45,-4.51,-2.67,-3.73,3.15,-2.10,
4.296,3.45,-4.51,-2.67,-3.58,2.92,-2.07,
4.304,3.45,-4.51,-2.67,-3.42,2.65,-2.03,
4.305,0.42,-4.36,3.80,-3.42,2.65,-2.03,
4.305,0.42,-4.36,3.80,-3.25,2.38,-1.98,
4.306,0.42,-4.36,3.80,-3.08,2.09,-1.93,
4.306,0.42,-4.36,3.80,-2.90,1.80,-1.87,
4.306,0.42,-4.36,3.80,-2.73,1.52,-1.80,
4.306,0.42,-4.36,3.80,-2.57,1.25,-1.73,
4.313,-2.17,-4.03,7.18,-2.57,1.25,-1.73,
4.314,-2.17,-4.03,7.18,-2.41,0.99,-1.66,
4.314,-2.17,-4.03,7.18,-2.27,0.74,-1.59,
4.314,-2.17,-4.03,7.18,-2.13,0.51,-1.51,
4.315,-2.17,-4.03,7.18,-2.01,0.28,-1.44,
4.333,-2.17,-4.03,7.18,-1.90,0.07,-1.36,
4.334,-3.06,-3.60,6.52,-1.90,0.07,-1.36,
4.334,-3.06,-3.60,6.52,-1.80,-0.13,-1.29,
4.334,-3.06,-3.60,6.52,-1.72,-0.31,-1.22,
4.335,-3.06,-3.60,6.52,-1.65,-0.49,-1.14,
4.335,-3.06,-3.60,6.52,-1.59,-0.66,-1.07,
4.335,-3.06,-3.60,6.52,-1.54,-0.82,-1.00,
4.336,-3.45,-3.53,4.52,-1.54,-0.82,-1.00,
4.336,-3.45,-3.53,4.52,-1.51,-0.98,-0.92,
4.336,-3.45,-3.53,4.52,-1.48,-1.12,-0.85,
4.337,-3.45,-3.53,4.52,-1.46,-1.26,-0.78,
4.337,-3.45,-3.53,4.52,-1.44,-1.40,-0.70,
4.337,-3.45,-3.53,4.52,-1.43,-1.52,-0.63,
4.361,-4.14,-3.66,2.91,-1.43,-1.52,-0.63,
4.361,-4.14,-3.66,2.91,-1.43,-1.63,-0.55,
4.362,-4.14,-3.66,2.91,-1.43,-1.73,-0.48,
4.362,-4.14,-3.66,2.91,-1.44,-1.82,-0.41,
4.362,-4.14,-3.66,2.91,-1.44,-1.90,-0.34,
4.362,-4.14,-3.66,2.91,-1.45,-1.97,-0.27,
4.363,-4.99,-3.75,2.25,-1.45,-1.97,-0.27,
4.363,-4.99,-3.75,2.25,-1.47,-2.03,-0.21,
4.363,-4.99,-3.75,2.25,-1.48,-2.09,-0.15,
4.363,-4.99,-3.75,2.25,-1.49,-2.12,-0.10,
4.364,-4.99,-3.75,2.25,-1.51,-2.15,-0.05,
4.364,-4.99,-3.75,2.25,-1.53,-2.17,-0.02,
4.364,-4.51,-3.89,2.26,-1.53,-2.17,-0.02,
4.365,-4.51,-3.89,2.26,-1.54,-2.17,0.02,
4.365,-4.51,-3.89,2.26,-1.55,-2.18,0.04,
4.365,-4.51,-3.89,2.26,-1.57,-2.17,0.05,
4.365,-4.51,-3.89,2.26,-1.58,-2.16,0.07,
4.366,-4.51,-3.89,2.26,-1.60,-2.14,0.07,
4.368,-3.69,-4.24,2.45,-1.60,-2.14,0.07,
4.369,-3.69,-4.24,2.45,-1.62,-2.12,0.08,
4.369,-3.69,-4.24,2.45,-1.64,-2.09,0.07,
4.371,-3.69,-4.24,2.45,-1.67,-2.06,0.07,
4.374,-3.69,-4.24,2.45,-1.70,-2.04,0.06,
4.375,-3.69,-4.24,2.45,-1.72,-2.00,0.05,
4.378,-2.98,-4.54,2.31,-1.72,-2.00,0.05,
4.378,-2.98,-4.54,2.31,-1.75,-1.97,0.04,
4.379,-2.98,-4.54,2.31,-1.79,-1.93,0.02,
4.382,-2.98,-4.54,2.31,-1.82,-1.90,0.00,
4.384,-2.98,-4.54,2.31,-1.85,-1.86,-0.02,
4.387,-2.98,-4.54,2.31,-1.89,-1.82,-0.04,
4.388,-2.54,-4.62,2.09,-1.89,-1.82,-0.04,
4.388,-2.54,-4.62,2.09,-1.93,-1.79,-0.06,
4.389,-2.54,-4.62,2.09,-1.97,-1.76,-0.08,
4.392,-2.54,-4.62,2.09,-2.01,-1.73,-0.10,
4.393,-2.54,-4.62,2.09,-2.06,-1.70,-0.12,
4.395,-2.54,-4.62,2.09,-2.10,-1.67,-0.14,
4.399,-2.16,-4.42,1.62,-2.10,-1.67,-0.14,
4.399,-2.16,-4.42,1.62,-2.15,-1.65,-0.16,
4.4,-2.16,-4.42,1.62,-2.20,-1.62,-0.17,
4.402,-2.16,-4.42,1.62,-2.26,-1.60,-0.19,
4.404,-2.16,-4.42,1.62,-2.30,-1.58,-0.20,
4.406,-2.16,-4.42,1.62,-2.35,-1.57,-0.21,
4.408,-2.05,-4.08,1.32,-2.35,-1.57,-0.21,
4.408,-2.05,-4.08,1.32,-2.40,-1.55,-0.22,
4.409,-2.05,-4.08,1.32,-2.44,-1.53,-0.24,
4.411,-2.05,-4.08,1.32,-2.48,-1.50,-0.25,
4.414,-2.05,-4.08,1.32,-2.52,-1.47,-0.26,
4.416,-2.05,-4.08,1.32,-2.55,-1.43,-0.28,
4.42,-1.70,-3.71,1.60,-2.55,-1.43,-0.28,
4.42,-1.70,-3.71,1.60,-2.57,-1.39,-0.30,
4.421,-1.70,-3.71,1.60,-2.60,-1.34,-0.31,
4.422,-1.70,-3.71,1.60,-2.61,-1.30,-0.34,
4.423,-1.70,-3.71,1.60,-2.62,-1.25,-0.36,
4.426,-1.70,-3.71,1.60,-2.63,-1.19,-0.38,
4.428,-1.25,-3.26,2.30,-2.63,-1.19,-0.38,
4.429,-1.25,-3.26,2.30,-2.63,-1.13,-0.41,
4.43,-1.25,-3.26,2.30,-2.62,-1.06,-0.44,
4.434,-1.25,-3.26,2.30,-2.61,-0.99,-0.47,
4.435,-1.25,-3.26,2.30,-2.60,-0.92,-0.50,
4.436,-1.25,-3.26,2.30,-2.59,-0.84,-0.54,
4.438,-0.61,-2.79,2.82,-2.59,-0.84,-0.54,
4.439,-0.61,-2.79,2.82,-2.57,-0.76,-0.58,
4.441,-0.61,-2.79,2.82,-2.56,-0.68,-0.61,
4.441,-0.61,-2.79,2.82,-2.54,-0.59,-0.65,
4.444,-0.61,-2.79,2.82,-2.53,-0.50,-0.69,
4.445,-0.61,-2.79,2.82,-2.51,-0.41,-0.73,
4.46,-0.07,-2.28,2.94,-2.51,-0.41,-0.73,
4.462,-0.07,-2.28,2.94,-2.50,-0.32,-0.77,
4.462,-0.07,-2.28,2.94,-2.48,-0.21,-0.81,
4.463,-0.07,-2.28,2.94,-2.46,-0.11,-0.86,
4.464,-0.07,-2.28,2.94,-2.45,-0.01,-0.90,
4.465,-0.07,-2.28,2.94,-2.43,0.10,-0.95,
4.466,0.42,-1.47,2.72,-2.43,0.10,-0.95,
4.467,0.42,-1.47,2.72,-2.42,0.20,-0.99,
4.496,0.42,-1.47,2.72,-2.41,0.31,-1.03,
4.497,0.42,-1.47,2.72,-2.40,0.41,-1.07,
4.498,0.42,-1.47,2.72,-2.39,0.52,-1.11,
4.498,0.42,-1.47,2.72,-2.39,0.61,-1.15,
4.498,0.55,-0.48,2.42,-2.39,0.61,-1.15,
4.499,0.55,-0.48,2.42,-2.38,0.70,-1.18,
4.499,0.55,-0.48,2.42,-2.38,0.79,-1.21,
4.499,0.55,-0.48,2.42,-2.38,0.87,-1.24,
4.499,0.55,-0.48,2.42,-2.37,0.95,-1.27,
4.5,0.55,-0.48,2.42,-2.36,1.03,-1.29,
4.5,0.43,0.68,2.29,-2.36,1.03,-1.29,
4.5,0.43,0.68,2.29,-2.36,1.09,-1.31,
4.501,0.43,0.68,2.29,-2.35,1.16,-1.33,
4.501,0.43,0.68,2.29,-2.33,1.22,-1.34,
4.501,0.43,0.68,2.29,-2.32,1.28,-1.35,
4.502,0.43,0.68,2.29,-2.30,1.33,-1.36,
4.502,0.20,1.69,2.81,-2.30,1.33,-1.36,
4.502,0.20,1.69,2.81,-2.28,1.37,-1.37,
4.502,0.20,1.69,2.81,-2.26,1.42,-1.38,
4.503,0.20,1.69,2.81,-2.24,1.45,-1.38,
4.503,0.20,1.69,2.81,-2.21,1.49,-1.39,
4.503,0.20,1.69,2.81,-2.18,1.52,-1.39,
4.504,-0.02,2.58,3.40,-2.18,1.52,-1.39,
4.504,-0.02,2.58,3.40,-2.14,1.54,-1.39,
4.504,-0.02,2.58,3.40,-2.11,1.57,-1.39,
4.504,-0.02,2.58,3.40,-2.07,1.59,-1.39,
4.537,-0.02,2.58,3.40,-2.03,1.60,-1.39,
4.537,-0.02,2.58,3.40,-2.00,1.61,-1.38,
4.538,-0.26,3.36,4.17,-2.00,1.61,-1.38,
4.538,-0.26,3.36,4.17,-1.95,1.62,-1.38,
4.539,-0.26,3.36,4.17,-1.91,1.62,-1.38,
4.539,-0.26,3.36,4.17,-1.87,1.61,-1.37,
4.54,-0.26,3.36,4.17,-1.83,1.60,-1.37,
4.54,-0.26,3.36,4.17,-1.79,1.59,-1.36,
4.54,-0.60,4.12,4.57,-1.79,1.59,-1.36,
4.541,-0.60,4.12,4.57,-1.75,1.57,-1.35,
4.541,-0.60,4.12,4.57,-1.71,1.56,-1.34,
4.542,-0.60,4.12,4.57,-1.67,1.54,-1.33,
4.542,-0.60,4.12,4.57,-1.63,1.52,-1.32,
4.542,-0.60,4.12,4.57,-1.59,1.50,-1.31,
4.543,-0.98,4.65,5.27,-1.59,1.50,-1.31,
4.543,-0.98,4.65,5.27,-1.55,1.47,-1.29,
4.545,-0.98,4.65,5.27,-1.51,1.45,-1.28,
4.545,-0.98,4.65,5.27,-1.47,1.42,-1.26,
4.546,-0.98,4.65,5.27,-1.44,1.39,-1.25,
4.546,-0.98,4.65,5.27,-1.41,1.35,-1.23,
4.546,-1.34,5.16,5.43,-1.41,1.35,-1.23,
4.547,-1.34,5.16,5.43,-1.37,1.31,-1.21,
4.547,-1.34,5.16,5.43,-1.34,1.28,-1.18,
4.548,-1.34,5.16,5.43,-1.32,1.25,-1.16,
4.548,-1.34,5.16,5.43,-1.30,1.22,-1.13,
4.549,-1.34,5.16,5.43,-1.28,1.20,-1.10,
4.549,-1.80,5.43,5.74,-1.28,1.20,-1.10,
4.55,-1.80,5.43,5.74,-1.26,1.18,-1.07,
4.55,-1.80,5.43,5.74,-1.24,1.16,-1.04,
4.552,-1.80,5.43,5.74,-1.22,1.14,-1.01,
4.556,-1.80,5.43,5.74,-1.20,1.12,-0.98,
4.557,-1.80,5.43,5.74,-1.18,1.10,-0.95,
4.558,-2.07,5.72,5.63,-1.18,1.10,-0.95,
4.558,-2.07,5.72,5.63,-1.15,1.07,-0.91,
4.56,-2.07,5.72,5.63,-1.13,1.05,-0.89,
4.562,-2.07,5.72,5.63,-1.10,1.03,-0.85,
4.564,-2.07,5.72,5.63,-1.08,1.00,-0.82,
4.566,-2.07,5.72,5.63,-1.05,0.96,-0.79,
4.568,-2.14,5.75,6.05,-1.05,0.96,-0.79,
4.568,-2.14,5.75,6.05,-1.02,0.93,-0.76,
4.57,-2.14,5.75,6.05,-0.99,0.89,-0.73,
4.571,-2.14,5.75,6.05,-0.96,0.85,-0.70,
4.574,-2.14,5.75,6.05,-0.92,0.81,-0.68,
4.575,-2.14,5.75,6.05,-0.89,0.78,-0.64,
4.578,-2.12,5.73,6.01,-0.89,0.78,-0.64,
4.578,-2.12,5.73,6.01,-0.85,0.74,-0.61,
4.593,-2.12,5.73,6.01,-0.81,0.70,-0.58,
4.595,-2.12,5.73,6.01,-0.77,0.67,-0.55,
4.596,-2.12,5.73,6.01,-0.73,0.64,-0.52,
4.596,-2.12,5.73,6.01,-0.69,0.61,-0.49,
4.597,-2.16,5.49,6.05,-0.69,0.61,-0.49,
4.598,-2.16,5.49,6.05,-0.64,0.59,-0.46,
4.598,-2.16,5.49,6.05,-0.60,0.57,-0.43,
4.599,-2.16,5.49,6.05,-0.55,0.54,-0.40,
4.6,-2.16,5.49,6.05,-0.50,0.52,-0.37,
4.601,-2.16,5.49,6.05,-0.44,0.50,-0.33,
4.627,-2.13,5.26,5.64,-0.44,0.50,-0.33,
4.628,-2.13,5.26,5.64,-0.38,0.48,-0.31,
4.628,-2.13,5.26,5.64,-0.32,0.46,-0.28,
4.629,-2.13,5.26,5.64,-0.26,0.45,-0.25,
4.629,-2.13,5.26,5.64,-0.20,0.42,-0.22,
4.629,-2.13,5.26,5.64,-0.14,0.40,-0.19,
4.63,-2.07,4.96,5.59,-0.14,0.40,-0.19,
4.63,-2.07,4.96,5.59,-0.07,0.38,-0.16,
4.63,-2.07,4.96,5.59,-0.00,0.36,-0.13,
4.631,-2.07,4.96,5.59,0.06,0.34,-0.10,
4.631,-2.07,4.96,5.59,0.13,0.32,-0.07,
4.631,-2.07,4.96,5.59,0.20,0.30,-0.04,
4.631,-2.03,4.91,4.99,0.20,0.30,-0.04,
4.632,-2.03,4.91,4.99,0.27,0.28,-0.01,
4.632,-2.03,4.91,4.99,0.34,0.25,0.02,
4.632,-2.03,4.91,4.99,0.41,0.23,0.05,
4.633,-2.03,4.91,4.99,0.48,0.20,0.09,
4.633,-2.03,4.91,4.99,0.55,0.18,0.12,
4.633,-2.01,4.91,4.67,0.55,0.18,0.12,
4.634,-2.01,4.91,4.67,0.63,0.15,0.15,
4.634,-2.01,4.91,4.67,0.70,0.13,0.18,
4.634,-2.01,4.91,4.67,0.77,0.10,0.22,
4.634,-2.01,4.91,4.67,0.85,0.08,0.26,
4.636,-2.01,4.91,4.67,0.93,0.06,0.29,
4.638,-2.03,4.95,4.02,0.93,0.06,0.29,
4.639,-2.03,4.95,4.02,1.00,0.04,0.33,
4.642,-2.03,4.95,4.02,1.16,-0.00,0.41,
4.644,-2.03,4.95,4.02,1.16,-0.00,0.41,
4.645,-2.03,4.95,4.02,1.24,-0.02,0.45,
4.645,-2.03,4.95,4.02,1.32,-0.03,0.49,
4.648,-2.12,4.78,3.52,1.32,-0.03,0.49,
4.649,-2.12,4.78,3.52,1.40,-0.05,0.53,
4.65,-2.12,4.78,3.52,1.47,-0.07,0.58,
4.652,-2.12,4.78,3.52,1.55,-0.09,0.62,
4.653,-2.12,4.78,3.52,1.63,-0.11,0.67,
4.656,-2.12,4.78,3.52,1.70,-0.13,0.72,
4.658,-2.13,4.54,2.50,1.70,-0.13,0.72,
4.658,-2.13,4.54,2.50,1.77,-0.15,0.77,
4.66,-2.13,4.54,2.50,1.84,-0.17,0.83,
4.662,-2.13,4.54,2.50,1.91,-0.19,0.88,
4.664,-2.13,4.54,2.50,1.98,-0.20,0.94,
4.666,-2.13,4.54,2.50,2.05,-0.21,0.99,
4.671,-2.16,4.09,1.15,2.05,-0.21,0.99,
4.671,-2.16,4.09,1.15,2.14,-0.22,1.08,
4.706,-2.16,4.09,1.15,2.17,-0.21,1.11,
4.706,-2.16,4.09,1.15,2.23,-0.21,1.17,
4.707,-2.16,4.09,1.15,2.28,-0.18,1.23,
4.707,-2.16,4.09,1.15,2.34,-0.16,1.29,
4.708,-2.10,3.31,-1.06,2.34,-0.16,1.29,
4.708,-2.10,3.31,-1.06,2.40,-0.12,1.35,
4.709,-2.10,3.31,-1.06,2.46,-0.07,1.41,
4.709,-2.10,3.31,-1.06,2.54,0.02,1.46,
4.709,-2.10,3.31,-1.06,2.64,0.13,1.52,
4.71,-2.10,3.31,-1.06,2.75,0.24,1.56,
4.71,-1.59,1.91,-4.78,2.75,0.24,1.56,
4.711,-1.59,1.91,-4.78,2.83,0.33,1.59,
4.711,-1.59,1.91,-4.78,2.89,0.40,1.62,
4.711,-1.59,1.91,-4.78,2.95,0.47,1.64,
4.712,-1.59,1.91,-4.78,2.98,0.52,1.66,
4.712,-1.59,1.91,-4.78,2.98,0.52,1.66,
4.713,-0.83,-0.08,-11.71,2.98,0.52,1.66,
4.713,-0.83,-0.08,-11.71,2.95,0.48,1.65,
4.713,-0.83,-0.08,-11.71,2.90,0.40,1.63,
4.714,-0.83,-0.08,-11.71,2.82,0.29,1.60,
4.714,-0.83,-0.08,-11.71,2.71,0.14,1.56,
4.715,-0.83,-0.08,-11.71,2.57,-0.04,1.50,
4.715,0.58,-2.62,-20.81,2.57,-0.04,1.50,
4.716,0.58,-2.62,-20.81,2.42,-0.24,1.43,
4.716,0.58,-2.62,-20.81,2.23,-0.45,1.36,
4.716,0.58,-2.62,-20.81,2.04,-0.65,1.28,
4.717,0.58,-2.62,-20.81,1.82,-0.83,1.18,
4.717,0.58,-2.62,-20.81,1.59,-0.98,1.08,
4.722,2.67,-5.79,-27.34,1.59,-0.98,1.08,
4.723,2.67,-5.79,-27.34,1.36,-1.10,0.98,
4.724,2.67,-5.79,-27.34,1.13,-1.17,0.87,
4.724,2.67,-5.79,-27.34,0.90,-1.20,0.75,
4.725,2.67,-5.79,-27.34,0.67,-1.19,0.63,
4.725,2.67,-5.79,-27.34,0.44,-1.15,0.51,
4.73,5.54,-8.23,-27.85,0.44,-1.15,0.51,
4.731,5.54,-8.23,-27.85,0.22,-1.07,0.40,
4.732,5.54,-8.23,-27.85,0.01,-0.95,0.28,
4.732,5.54,-8.23,-27.85,-0.17,-0.82,0.18,
4.736,5.54,-8.23,-27.85,-0.33,-0.66,0.09,
4.738,5.54,-8.23,-27.85,-0.46,-0.49,0.01,
4.739,6.91,-8.24,-21.98,-0.46,-0.49,0.01,
4.741,6.91,-8.24,-21.98,-0.57,-0.30,-0.06,
4.742,6.91,-8.24,-21.98,-0.65,-0.11,-0.11,
4.742,6.91,-8.24,-21.98,-0.72,0.10,-0.15,
4.745,6.91,-8.24,-21.98,-0.76,0.31,-0.18,
4.746,6.91,-8.24,-21.98,-0.79,0.51,-0.20,
4.754,6.04,-7.78,-14.19,-0.79,0.51,-0.20,
4.755,6.04,-7.78,-14.19,-0.81,0.70,-0.20,
4.755,6.04,-7.78,-14.19,-0.82,0.87,-0.20,
4.756,6.04,-7.78,-14.19,-0.82,1.03,-0.19,
4.756,6.04,-7.78,-14.19,-0.81,1.17,-0.17,
4.756,6.04,-7.78,-14.19,-0.80,1.30,-0.14,
4.758,5.22,-6.12,-8.10,-0.80,1.30,-0.14,
4.761,5.22,-6.12,-8.10,-0.78,1.39,-0.12,
4.761,5.22,-6.12,-8.10,-0.76,1.46,-0.10,
4.788,5.22,-6.12,-8.10,-0.74,1.50,-0.08,
4.789,5.22,-6.12,-8.10,-0.71,1.52,-0.06,
4.79,5.22,-6.12,-8.10,-0.69,1.52,-0.05,
4.79,5.09,-3.94,-4.25,-0.69,1.52,-0.05,
4.79,5.09,-3.94,-4.25,-0.66,1.50,-0.04,
4.791,5.09,-3.94,-4.25,-0.64,1.45,-0.03,
4.791,5.09,-3.94,-4.25,-0.61,1.39,-0.03,
4.791,5.09,-3.94,-4.25,-0.59,1.31,-0.04,
4.792,5.09,-3.94,-4.25,-0.57,1.22,-0.05,
4.792,5.08,-1.94,-1.25,-0.57,1.22,-0.05,
4.792,5.08,-1.94,-1.25,-0.54,1.12,-0.07,
4.792,5.08,-1.94,-1.25,-0.53,1.01,-0.10,
4.793,5.08,-1.94,-1.25,-0.52,0.90,-0.14,
4.793,5.08,-1.94,-1.25,-0.51,0.80,-0.18,
4.793,5.08,-1.94,-1.25,-0.51,0.70,-0.23,
4.794,5.72,-0.77,0.38,-0.51,0.70,-0.23,
4.794,5.72,-0.77,0.38,-0.52,0.62,-0.29,
4.794,5.72,-0.77,0.38,-0.52,0.55,-0.35,
4.794,5.72,-0.77,0.38,-0.52,0.51,-0.41,
4.795,5.72,-0.77,0.38,-0.52,0.49,-0.47,
4.802,5.72,-0.77,0.38,-0.51,0.49,-0.53,
4.804,5.94,-0.54,1.11,-0.51,0.49,-0.53,
4.805,5.94,-0.54,1.11,-0.50,0.51,-0.58,
4.806,5.94,-0.54,1.11,-0.48,0.57,-0.63,
4.806,5.94,-0.54,1.11,-0.46,0.65,-0.67,
4.806,5.94,-0.54,1.11,-0.43,0.76,-0.71,
4.807,5.94,-0.54,1.11,-0.39,0.91,-0.74,
4.808,5.55,-1.22,1.62,-0.39,0.91,-0.74,
4.809,5.55,-1.22,1.62,-0.34,1.06,-0.77,
4.81,5.55,-1.22,1.62,-0.28,1.21,-0.79,
4.819,5.55,-1.22,1.62,-0.21,1.33,-0.81,
4.821,5.55,-1.22,1.62,-0.13,1.41,-0.82,
4.822,5.55,-1.22,1.62,-0.03,1.44,-0.83,
4.823,4.93,-2.00,3.74,-0.03,1.44,-0.83,
4.824,4.93,-2.00,3.74,0.07,1.41,-0.83,
4.825,4.93,-2.00,3.74,0.18,1.33,-0.83,
4.825,4.93,-2.00,3.74,0.29,1.19,-0.82,
4.826,4.93,-2.00,3.74,0.41,1.01,-0.81,
4.826,4.93,-2.00,3.74,0.52,0.78,-0.81,
4.83,3.99,-2.18,7.21,0.52,0.78,-0.81,
4.83,3.99,-2.18,7.21,0.63,0.51,-0.80,
4.831,3.99,-2.18,7.21,0.74,0.22,-0.80,
4.833,3.99,-2.18,7.21,0.83,-0.10,-0.80,
4.835,3.99,-2.18,7.21,0.91,-0.42,-0.80,
4.836,3.99,-2.18,7.21,0.98,-0.74,-0.80,
4.867,3.30,-2.50,8.04,0.98,-0.74,-0.80,
4.867,3.30,-2.50,8.04,1.04,-1.06,-0.80,
4.868,3.30,-2.50,8.04,1.08,-1.36,-0.80,
4.868,3.30,-2.50,8.04,1.10,-1.65,-0.79,
4.869,3.30,-2.50,8.04,1.12,-1.92,-0.77,
4.869,3.30,-2.50,8.04,1.13,-2.18,-0.75,
4.869,2.06,-2.10,6.52,1.13,-2.18,-0.75,
4.87,2.06,-2.10,6.52,1.13,-2.42,-0.72,
4.87,2.06,-2.10,6.52,1.12,-2.65,-0.68,
4.871,2.06,-2.10,6.52,1.11,-2.86,-0.64,
4.871,2.06,-2.10,6.52,1.10,-3.06,-0.59,
4.871,2.06,-2.10,6.52,1.08,-3.23,-0.54,
4.872,0.56,-0.85,4.92,1.08,-3.23,-0.54,
4.872,0.56,-0.85,4.92,1.07,-3.39,-0.49,
4.873,0.56,-0.85,4.92,1.05,-3.53,-0.44,
4.873,0.56,-0.85,4.92,1.04,-3.66,-0.39,
4.873,0.56,-0.85,4.92,1.03,-3.76,-0.35,
4.874,0.56,-0.85,4.92,1.02,-3.84,-0.30,
4.874,-0.04,0.70,4.04,1.02,-3.84,-0.30,
4.875,-0.04,0.70,4.04,1.01,-3.90,-0.26,
4.875,-0.04,0.70,4.04,1.01,-3.95,-0.23,
4.876,-0.04,0.70,4.04,1.01,-3.98,-0.19,
4.876,-0.04,0.70,4.04,1.01,-3.99,-0.15,
4.876,-0.04,0.70,4.04,1.01,-3.99,-0.13,
4.879,-0.24,2.20,3.44,1.01,-3.99,-0.13,
4.88,-0.24,2.20,3.44,1.02,-3.97,-0.10,
4.88,-0.24,2.20,3.44,1.03,-3.94,-0.07,
4.882,-0.24,2.20,3.44,1.04,-3.89,-0.05,
4.884,-0.24,2.20,3.44,1.05,-3.83,-0.03,
4.886,-0.24,2.20,3.44,1.07,-3.76,-0.01,
4.888,-0.53,2.98,3.10,1.07,-3.76,-0.01,
4.888,-0.53,2.98,3.10,1.08,-3.67,0.00,
4.889,-0.53,2.98,3.10,1.11,-3.58,0.02,
4.891,-0.53,2.98,3.10,1.13,-3.48,0.04,
4.893,-0.53,2.98,3.10,1.15,-3.37,0.05,
4.907,-0.53,2.98,3.10,1.18,-3.24,0.07,
4.908,-1.00,3.25,2.67,1.18,-3.24,0.07,
4.908,-1.00,3.25,2.67,1.21,-3.11,0.08,
4.909,-1.00,3.25,2.67,1.25,-2.96,0.09,
4.909,-1.00,3.25,2.67,1.29,-2.79,0.11,
4.909,-1.00,3.25,2.67,1.34,-2.61,0.12,
4.91,-1.00,3.25,2.67,1.39,-2.42,0.13,
4.91,-1.28,2.94,2.98,1.39,-2.42,0.13,
4.91,-1.28,2.94,2.98,1.44,-2.21,0.14,
4.911,-1.28,2.94,2.98,1.50,-2.00,0.15,
4.913,-1.28,2.94,2.98,1.57,-1.78,0.16,
4.94,-1.28,2.94,2.98,1.64,-1.57,0.17,
4.94,-1.28,2.94,2.98,1.71,-1.35,0.18,
4.94,-1.18,1.96,3.71,1.71,-1.35,0.18,
4.941,-1.18,1.96,3.71,1.80,-1.15,0.18,
4.941,-1.18,1.96,3.71,1.88,-0.94,0.19,
4.941,-1.18,1.96,3.71,1.96,-0.74,0.19,
4.941,-1.18,1.96,3.71,2.05,-0.55,0.20,
4.941,-1.18,1.96,3.71,2.13,-0.38,0.20,
4.942,-1.11,0.63,4.68,2.13,-0.38,0.20,
4.942,-1.11,0.63,4.68,2.22,-0.23,0.21,
4.942,-1.11,0.63,4.68,2.30,-0.10,0.22,
4.942,-1.11,0.63,4.68,2.38,0.01,0.23,
4.942,-1.11,0.63,4.68,2.45,0.10,0.24,
4.942,-1.11,0.63,4.68,2.51,0.18,0.26,
4.943,-1.40,-0.71,4.75,2.51,0.18,0.26,
4.943,-1.40,-0.71,4.75,2.56,0.24,0.28,
4.943,-1.40,-0.71,4.75,2.61,0.29,0.30,
4.943,-1.40,-0.71,4.75,2.64,0.34,0.32,
4.943,-1.40,-0.71,4.75,2.66,0.38,0.35,
4.953,-1.40,-0.71,4.75,2.67,0.42,0.39,
4.957,-2.18,-1.83,3.95,2.67,0.42,0.39,
4.959,-2.18,-1.83,3.95,2.66,0.45,0.42,
4.96,-2.18,-1.83,3.95,2.65,0.47,0.46,
4.961,-2.18,-1.83,3.95,2.62,0.49,0.49,
4.962,-2.18,-1.83,3.95,2.58,0.51,0.53,
4.963,-2.18,-1.83,3.95,2.53,0.52,0.56,
4.964,-2.71,-2.55,2.74,2.53,0.52,0.56,
4.965,-2.71,-2.55,2.74,2.48,0.54,0.60,
4.966,-2.71,-2.55,2.74,2.42,0.55,0.63,
4.967,-2.71,-2.55,2.74,2.35,0.57,0.66,
4.968,-2.71,-2.55,2.74,2.28,0.58,0.69,
4.969,-2.71,-2.55,2.74,2.20,0.60,0.72,
4.97,-2.95,-2.97,1.86,2.20,0.60,0.72,
4.971,-2.95,-2.97,1.86,2.12,0.62,0.75,
4.971,-2.95,-2.97,1.86,2.03,0.64,0.78,
4.972,-2.95,-2.97,1.86,1.95,0.67,0.81,
4.976,-2.95,-2.97,1.86,1.86,0.70,0.84,
4.978,-2.95,-2.97,1.86,1.77,0.74,0.87,
4.98,-3.23,-2.95,1.11,1.77,0.74,0.87,
4.982,-3.23,-2.95,1.11,1.68,0.78,0.90,
4.985,-3.23,-2.95,1.11,1.59,0.82,0.93,
4.986,-3.23,-2.95,1.11,1.50,0.87,0.96,
4.986,-3.23,-2.95,1.11,1.41,0.91,1.00,
4.986,-3.23,-2.95,1.11,1.32,0.96,1.04,
4.988,-4.03,-2.76,0.45,1.32,0.96,1.04,
4.988,-4.03,-2.76,0.45,1.23,1.01,1.08,
4.989,-4.03,-2.76,0.45,1.15,1.06,1.13,
4.991,-4.03,-2.76,0.45,1.06,1.12,1.17,
4.993,-4.03,-2.76,0.45,0.98,1.17,1.22,
5.006,-4.03,-2.76,0.45,0.90,1.23,1.27,
5.006,-4.47,-2.46,-0.01,0.90,1.23,1.27,
