
time,ax,ay,az,wx,wy,wz,
0.002,-1.11,-0.85,-0.99,0.10,-0.00,-0.07,
0.002,-1.11,-0.85,-0.99,0.10,-0.00,-0.07,
0.002,-1.11,-0.85,-0.99,0.08,-0.01,-0.07,
0.002,-1.19,-0.80,-1.12,0.08,-0.01,-0.07,
0.002,-1.19,-0.80,-1.12,0.05,-0.02,-0.06,
0.012,-1.19,-0.80,-1.12,0.03,-0.03,-0.05,
0.012,-1.19,-0.80,-1.12,0.01,-0.04,-0.05,
0.012,-1.19,-0.80,-1.12,-0.02,-0.05,-0.04,
0.012,-1.19,-0.80,-1.12,-0.04,-0.07,-0.03,
0.012,-1.32,-0.72,-1.31,-0.04,-0.07,-0.03,
0.013,-1.32,-0.72,-1.31,-0.07,-0.09,-0.02,
0.014,-1.32,-0.72,-1.31,-0.10,-0.11,-0.00,
0.02,-1.32,-0.72,-1.31,-0.13,-0.12,0.01,
0.02,-1.32,-0.72,-1.31,-0.16,-0.13,0.02,
0.021,-1.32,-0.72,-1.31,-0.19,-0.14,0.03,
0.021,-1.39,-0.85,-1.57,-0.19,-0.14,0.03,
0.021,-1.39,-0.85,-1.57,-0.23,-0.15,0.04,
0.024,-1.39,-0.85,-1.57,-0.27,-0.16,0.05,
0.026,-1.39,-0.85,-1.57,-0.32,-0.17,0.07,
0.027,-1.39,-0.85,-1.57,-0.33,-0.17,0.07,
0.029,-1.39,-0.85,-1.57,-0.37,-0.18,0.08,
0.031,-1.38,-0.86,-1.89,-0.37,-0.18,0.08,
0.031,-1.38,-0.86,-1.89,-0.41,-0.18,0.09,
0.034,-1.38,-0.86,-1.89,-0.44,-0.19,0.10,
0.037,-1.38,-0.86,-1.89,-0.48,-0.21,0.11,
0.037,-1.38,-0.86,-1.89,-0.49,-0.22,0.11,
0.04,-1.38,-0.86,-1.89,-0.51,-0.24,0.12,
0.041,-1.11,-0.87,-1.92,-0.51,-0.24,0.12,
0.042,-1.11,-0.87,-1.92,-0.53,-0.26,0.12,
0.043,-1.11,-0.87,-1.92,-0.55,-0.28,0.12,
0.046,-1.11,-0.87,-1.92,-0.57,-0.31,0.12,
0.047,-1.11,-0.87,-1.92,-0.57,-0.31,0.12,
0.05,-1.11,-0.87,-1.92,-0.58,-0.33,0.12,
0.052,-0.87,-1.01,-1.82,-0.58,-0.33,0.12,
0.053,-0.87,-1.01,-1.82,-0.59,-0.35,0.11,
0.054,-0.87,-1.01,-1.82,-0.60,-0.37,0.10,
0.056,-0.87,-1.01,-1.82,-0.60,-0.39,0.09,
0.058,-0.87,-1.01,-1.82,-0.59,-0.40,0.08,
0.06,-0.87,-1.01,-1.82,-0.58,-0.42,0.07,
0.061,-0.64,-1.22,-1.53,-0.58,-0.42,0.07,
0.062,-0.64,-1.22,-1.53,-0.57,-0.43,0.05,
0.063,-0.64,-1.22,-1.53,-0.56,-0.44,0.03,
0.066,-0.64,-1.22,-1.53,-0.54,-0.45,0.00,
0.068,-0.64,-1.22,-1.53,-0.53,-0.45,-0.01,
0.07,-0.64,-1.22,-1.53,-0.52,-0.45,-0.04,
0.072,-0.41,-1.37,-1.29,-0.52,-0.45,-0.04,
0.072,-0.41,-1.37,-1.29,-0.51,-0.45,-0.07,
0.074,-0.41,-1.37,-1.29,-0.49,-0.45,-0.11,
0.077,-0.41,-1.37,-1.29,-0.48,-0.44,-0.16,
0.078,-0.41,-1.37,-1.29,-0.48,-0.44,-0.18,
0.08,-0.41,-1.37,-1.29,-0.47,-0.44,-0.22,
0.083,-0.38,-1.39,-1.23,-0.47,-0.44,-0.22,
0.084,-0.38,-1.39,-1.23,-0.48,-0.43,-0.26,
0.085,-0.38,-1.39,-1.23,-0.48,-0.41,-0.30,
0.087,-0.38,-1.39,-1.23,-0.49,-0.38,-0.37,
0.088,-0.38,-1.39,-1.23,-0.49,-0.38,-0.40,
0.09,-0.38,-1.39,-1.23,-0.50,-0.36,-0.45,
0.092,-0.38,-1.49,-1.49,-0.50,-0.36,-0.45,
0.092,-0.38,-1.49,-1.49,-0.52,-0.33,-0.50,
0.094,-0.38,-1.49,-1.49,-0.54,-0.31,-0.55,
0.097,-0.38,-1.49,-1.49,-0.57,-0.26,-0.63,
0.098,-0.38,-1.49,-1.49,-0.58,-0.25,-0.65,
0.102,-0.38,-1.49,-1.49,-0.60,-0.21,-0.69,
0.103,-0.32,-1.40,-1.51,-0.60,-0.21,-0.69,
0.103,-0.32,-1.40,-1.51,-0.62,-0.18,-0.73,
0.104,-0.32,-1.40,-1.51,-0.64,-0.15,-0.76,
0.107,-0.32,-1.40,-1.51,-0.65,-0.11,-0.78,
0.108,-0.32,-1.40,-1.51,-0.65,-0.10,-0.78,
0.11,-0.32,-1.40,-1.51,-0.66,-0.08,-0.79,
0.112,-0.56,-1.18,-1.08,-0.66,-0.08,-0.79,
0.112,-0.56,-1.18,-1.08,-0.66,-0.06,-0.78,
0.114,-0.56,-1.18,-1.08,-0.66,-0.04,-0.78,
0.118,-0.56,-1.18,-1.08,-0.66,-0.02,-0.75,
0.118,-0.56,-1.18,-1.08,-0.65,-0.01,-0.74,
0.119,-0.56,-1.18,-1.08,-0.65,0.00,-0.72,
0.122,-0.93,-0.91,-0.78,-0.65,0.00,-0.72,
0.122,-0.93,-0.91,-0.78,-0.64,0.02,-0.70,
0.124,-0.93,-0.91,-0.78,-0.63,0.06,-0.69,
0.127,-0.93,-0.91,-0.78,-0.62,0.11,-0.70,
0.128,-0.93,-0.91,-0.78,-0.61,0.13,-0.70,
0.13,-0.93,-0.91,-0.78,-0.59,0.16,-0.73,
0.144,-1.13,-0.54,-0.42,-0.59,0.16,-0.73,
0.147,-1.13,-0.54,-0.42,-0.57,0.19,-0.76,
0.148,-1.13,-0.54,-0.42,-0.54,0.21,-0.80,
0.148,-1.13,-0.54,-0.42,-0.50,0.24,-0.86,
0.148,-1.13,-0.54,-0.42,-0.48,0.24,-0.88,
0.149,-1.13,-0.54,-0.42,-0.44,0.24,-0.91,
0.149,-1.35,-0.42,0.06,-0.44,0.24,-0.91,
0.149,-1.35,-0.42,0.06,-0.40,0.23,-0.94,
0.149,-1.35,-0.42,0.06,-0.36,0.21,-0.96,
0.15,-1.35,-0.42,0.06,-0.31,0.15,-0.97,
0.15,-1.35,-0.42,0.06,-0.29,0.13,-0.97,
0.15,-1.35,-0.42,0.06,-0.26,0.10,-0.96,
0.175,-1.94,-0.68,-0.03,-0.26,0.10,-0.96,
0.175,-1.94,-0.68,-0.03,-0.23,0.06,-0.94,
0.176,-1.94,-0.68,-0.03,-0.21,0.02,-0.91,
0.176,-1.94,-0.68,-0.03,-0.19,-0.02,-0.87,
0.177,-1.94,-0.68,-0.03,-0.19,-0.03,-0.85,
0.177,-1.94,-0.68,-0.03,-0.19,-0.05,-0.82,
0.178,-2.03,-0.59,-0.59,-0.19,-0.05,-0.82,
0.178,-2.03,-0.59,-0.59,-0.19,-0.06,-0.78,
0.207,-2.03,-0.59,-0.59,-0.19,-0.07,-0.73,
0.207,-2.03,-0.59,-0.59,-0.22,-0.06,-0.67,
0.208,-2.03,-0.59,-0.59,-0.22,-0.06,-0.65,
0.208,-2.03,-0.59,-0.59,-0.25,-0.04,-0.61,
0.208,-1.72,-0.23,-1.34,-0.25,-0.04,-0.61,
0.209,-1.72,-0.23,-1.34,-0.28,-0.03,-0.56,
0.209,-1.72,-0.23,-1.34,-0.31,-0.01,-0.52,
0.21,-1.72,-0.23,-1.34,-0.37,0.02,-0.46,
0.21,-1.72,-0.23,-1.34,-0.39,0.03,-0.44,
0.211,-1.72,-0.23,-1.34,-0.43,0.05,-0.40,
0.211,-1.20,-0.03,-2.07,-0.43,0.05,-0.40,
0.211,-1.20,-0.03,-2.07,-0.48,0.07,-0.36,
0.212,-1.20,-0.03,-2.07,-0.52,0.10,-0.33,
0.212,-1.20,-0.03,-2.07,-0.60,0.13,-0.28,
0.213,-1.20,-0.03,-2.07,-0.62,0.14,-0.27,
0.213,-1.20,-0.03,-2.07,-0.67,0.17,-0.24,
0.214,-0.80,-0.07,-2.49,-0.67,0.17,-0.24,
0.214,-0.80,-0.07,-2.49,-0.71,0.19,-0.21,
0.214,-0.80,-0.07,-2.49,-0.76,0.22,-0.19,
0.215,-0.80,-0.07,-2.49,-0.82,0.26,-0.17,
0.215,-0.80,-0.07,-2.49,-0.84,0.28,-0.16,
0.215,-0.80,-0.07,-2.49,-0.88,0.30,-0.14,
0.216,-0.20,-0.43,-2.52,-0.88,0.30,-0.14,
0.216,-0.20,-0.43,-2.52,-0.91,0.33,-0.14,
0.216,-0.20,-0.43,-2.52,-0.94,0.37,-0.13,
0.217,-0.20,-0.43,-2.52,-0.98,0.41,-0.13,
0.217,-0.20,-0.43,-2.52,-0.99,0.42,-0.13,
0.218,-0.20,-0.43,-2.52,-1.01,0.46,-0.13,
0.218,0.17,-0.65,-2.46,-1.01,0.46,-0.13,
0.218,0.17,-0.65,-2.46,-1.03,0.48,-0.13,
0.219,0.17,-0.65,-2.46,-1.04,0.51,-0.13,
0.219,0.17,-0.65,-2.46,-1.05,0.54,-0.14,
0.219,0.17,-0.65,-2.46,-1.05,0.55,-0.14,
0.22,0.17,-0.65,-2.46,-1.04,0.57,-0.15,
0.233,0.43,-0.57,-1.95,-1.04,0.57,-0.15,
0.234,0.43,-0.57,-1.95,-1.04,0.59,-0.15,
0.234,0.43,-0.57,-1.95,-1.03,0.60,-0.16,
0.234,0.43,-0.57,-1.95,-1.01,0.62,-0.16,
0.234,0.43,-0.57,-1.95,-1.00,0.62,-0.16,
0.235,0.43,-0.57,-1.95,-0.99,0.63,-0.16,
0.235,0.57,-0.50,-1.46,-0.99,0.63,-0.16,
0.235,0.57,-0.50,-1.46,-0.98,0.63,-0.16,
0.235,0.57,-0.50,-1.46,-0.96,0.64,-0.16,
0.238,0.57,-0.50,-1.46,-0.94,0.65,-0.15,
0.239,0.57,-0.50,-1.46,-0.93,0.65,-0.14,
0.24,0.57,-0.50,-1.46,-0.91,0.65,-0.13,
0.242,0.30,-0.61,-1.13,-0.91,0.65,-0.13,
0.243,0.30,-0.61,-1.13,-0.89,0.65,-0.12,
0.244,0.30,-0.61,-1.13,-0.87,0.65,-0.11,
0.247,0.30,-0.61,-1.13,-0.85,0.65,-0.09,
0.248,0.30,-0.61,-1.13,-0.83,0.65,-0.08,
0.25,0.30,-0.61,-1.13,-0.81,0.64,-0.07,
0.252,0.13,-0.71,-0.85,-0.81,0.64,-0.07,
0.252,0.13,-0.71,-0.85,-0.80,0.64,-0.06,
0.254,0.13,-0.71,-0.85,-0.78,0.63,-0.05,
0.257,0.13,-0.71,-0.85,-0.74,0.62,-0.03,
0.259,0.13,-0.71,-0.85,-0.73,0.62,-0.03,
0.26,0.13,-0.71,-0.85,-0.71,0.61,-0.02,
0.262,0.14,-0.64,-0.74,-0.71,0.61,-0.02,
0.264,0.14,-0.64,-0.74,-0.69,0.61,-0.02,
0.268,0.14,-0.64,-0.74,-0.68,0.60,-0.02,
0.268,0.14,-0.64,-0.74,-0.65,0.59,-0.01,
0.268,0.14,-0.64,-0.74,-0.64,0.59,-0.01,
0.283,0.14,-0.64,-0.74,-0.63,0.58,-0.01,
0.285,0.17,-0.54,-0.71,-0.63,0.58,-0.01,
0.285,0.17,-0.54,-0.71,-0.62,0.58,-0.01,
0.286,0.17,-0.54,-0.71,-0.60,0.58,-0.01,
0.286,0.17,-0.54,-0.71,-0.58,0.58,-0.01,
0.286,0.17,-0.54,-0.71,-0.57,0.59,-0.01,
0.287,0.17,-0.54,-0.71,-0.56,0.59,-0.01,
0.287,0.16,-0.54,-0.56,-0.56,0.59,-0.01,
0.287,0.16,-0.54,-0.56,-0.55,0.60,-0.02,
0.288,0.16,-0.54,-0.56,-0.53,0.62,-0.02,
0.288,0.16,-0.54,-0.56,-0.51,0.64,-0.02,
0.288,0.16,-0.54,-0.56,-0.50,0.65,-0.02,
0.319,0.16,-0.54,-0.56,-0.48,0.67,-0.02,
0.32,0.09,-0.58,-0.30,-0.48,0.67,-0.02,
0.32,0.09,-0.58,-0.30,-0.45,0.69,-0.02,
0.321,0.09,-0.58,-0.30,-0.43,0.71,-0.03,
0.321,0.09,-0.58,-0.30,-0.40,0.73,-0.03,
0.321,0.09,-0.58,-0.30,-0.39,0.73,-0.03,
0.321,0.09,-0.58,-0.30,-0.36,0.74,-0.03,
0.322,0.01,-0.55,-0.13,-0.36,0.74,-0.03,
0.322,0.01,-0.55,-0.13,-0.34,0.74,-0.03,
0.322,0.01,-0.55,-0.13,-0.31,0.74,-0.02,
0.322,0.01,-0.55,-0.13,-0.27,0.72,-0.02,
0.323,0.01,-0.55,-0.13,-0.26,0.71,-0.02,
0.323,0.01,-0.55,-0.13,-0.24,0.68,-0.01,
0.323,-0.13,-0.55,0.12,-0.24,0.68,-0.01,
0.324,-0.13,-0.55,0.12,-0.21,0.66,-0.00,
0.324,-0.13,-0.55,0.12,-0.19,0.63,0.00,
0.324,-0.13,-0.55,0.12,-0.15,0.59,0.02,
0.325,-0.13,-0.55,0.12,-0.14,0.57,0.02,
0.325,-0.13,-0.55,0.12,-0.12,0.54,0.02,
0.325,-0.05,-0.58,0.19,-0.12,0.54,0.02,
0.325,-0.05,-0.58,0.19,-0.09,0.51,0.02,
0.326,-0.05,-0.58,0.19,-0.08,0.47,0.03,
0.345,-0.05,-0.58,0.19,-0.06,0.41,0.02,
0.347,-0.05,-0.58,0.19,-0.06,0.39,0.02,
0.348,-0.05,-0.58,0.19,-0.06,0.35,0.01,
0.382,0.28,-0.71,-0.20,-0.06,0.35,0.01,
0.383,0.28,-0.71,-0.20,-0.05,0.31,-0.00,
0.383,0.28,-0.71,-0.20,-0.06,0.27,-0.02,
0.383,0.28,-0.71,-0.20,-0.07,0.21,-0.04,
0.384,0.28,-0.71,-0.20,-0.08,0.19,-0.05,
0.384,0.28,-0.71,-0.20,-0.09,0.17,-0.06,
0.384,0.65,-0.79,-0.84,-0.09,0.17,-0.06,
0.384,0.65,-0.79,-0.84,-0.11,0.14,-0.08,
0.385,0.65,-0.79,-0.84,-0.14,0.12,-0.09,
0.385,0.65,-0.79,-0.84,-0.17,0.10,-0.11,
0.385,0.65,-0.79,-0.84,-0.18,0.10,-0.12,
0.386,0.65,-0.79,-0.84,-0.21,0.10,-0.13,
0.386,0.85,-0.93,-1.25,-0.21,0.10,-0.13,
0.386,0.85,-0.93,-1.25,-0.23,0.11,-0.15,
0.386,0.85,-0.93,-1.25,-0.26,0.12,-0.16,
0.386,0.85,-0.93,-1.25,-0.30,0.12,-0.18,
0.386,0.85,-0.93,-1.25,-0.32,0.10,-0.18,
0.387,0.85,-0.93,-1.25,-0.36,0.03,-0.20,
0.387,0.70,-1.08,-1.06,-0.36,0.03,-0.20,
0.387,0.70,-1.08,-1.06,-0.40,-0.05,-0.21,
0.387,0.70,-1.08,-1.06,-0.45,-0.10,-0.22,
0.387,0.70,-1.08,-1.06,-0.50,-0.08,-0.22,
0.387,0.70,-1.08,-1.06,-0.52,-0.05,-0.22,
0.388,0.70,-1.08,-1.06,-0.54,0.01,-0.21,
0.388,0.12,-1.40,-0.99,-0.54,0.01,-0.21,
0.388,0.12,-1.40,-0.99,-0.55,0.07,-0.18,
0.388,0.12,-1.40,-0.99,-0.56,0.11,-0.16,
0.388,0.12,-1.40,-0.99,-0.58,0.13,-0.12,
0.389,0.12,-1.40,-0.99,-0.59,0.13,-0.11,
0.389,0.12,-1.40,-0.99,-0.61,0.13,-0.09,
0.389,-0.35,-1.74,-1.19,-0.61,0.13,-0.09,
0.389,-0.35,-1.74,-1.19,-0.63,0.14,-0.08,
0.389,-0.35,-1.74,-1.19,-0.64,0.14,-0.08,
0.39,-0.35,-1.74,-1.19,-0.66,0.16,-0.08,
0.39,-0.35,-1.74,-1.19,-0.67,0.17,-0.09,
0.39,-0.35,-1.74,-1.19,-0.68,0.19,-0.10,
0.398,0.39,-1.54,-1.80,-0.68,0.19,-0.10,
0.399,0.39,-1.54,-1.80,-0.68,0.21,-0.12,
0.399,0.39,-1.54,-1.80,-0.68,0.22,-0.14,
0.399,0.39,-1.54,-1.80,-0.69,0.24,-0.17,
0.399,0.39,-1.54,-1.80,-0.69,0.25,-0.18,
0.4,0.39,-1.54,-1.80,-0.70,0.25,-0.20,
0.404,0.95,-1.30,-2.25,-0.70,0.25,-0.20,
0.405,0.95,-1.30,-2.25,-0.70,0.26,-0.23,
0.405,0.95,-1.30,-2.25,-0.71,0.27,-0.25,
0.408,0.95,-1.30,-2.25,-0.73,0.29,-0.30,
0.409,0.95,-1.30,-2.25,-0.73,0.30,-0.31,
0.409,0.95,-1.30,-2.25,-0.74,0.32,-0.35,
0.413,1.18,-1.13,-2.85,-0.74,0.32,-0.35,
0.414,1.18,-1.13,-2.85,-0.76,0.34,-0.38,
0.414,1.18,-1.13,-2.85,-0.77,0.38,-0.42,
0.427,1.18,-1.13,-2.85,-0.79,0.43,-0.48,
0.427,1.18,-1.13,-2.85,-0.80,0.45,-0.50,
0.427,1.18,-1.13,-2.85,-0.81,0.48,-0.54,
0.428,1.39,-1.18,-3.26,-0.81,0.48,-0.54,
0.428,1.39,-1.18,-3.26,-0.83,0.52,-0.59,
0.428,1.39,-1.18,-3.26,-0.85,0.57,-0.63,
0.428,1.39,-1.18,-3.26,-0.86,0.63,-0.71,
0.428,1.39,-1.18,-3.26,-0.87,0.66,-0.73,
0.442,1.39,-1.18,-3.26,-0.89,0.72,-0.78,
0.443,1.79,-1.42,-3.60,-0.89,0.72,-0.78,
0.444,1.79,-1.42,-3.60,-0.90,0.77,-0.83,
0.444,1.79,-1.42,-3.60,-0.91,0.84,-0.87,
0.444,1.79,-1.42,-3.60,-0.92,0.94,-0.94,
0.444,1.79,-1.42,-3.60,-0.92,0.98,-0.96,
0.445,1.79,-1.42,-3.60,-0.93,1.06,-1.00,
0.445,2.09,-1.57,-3.89,-0.93,1.06,-1.00,
0.446,2.09,-1.57,-3.89,-0.93,1.13,-1.03,
0.446,2.09,-1.57,-3.89,-0.93,1.21,-1.07,
0.447,2.09,-1.57,-3.89,-0.93,1.33,-1.12,
0.448,2.09,-1.57,-3.89,-0.93,1.37,-1.13,
0.453,2.09,-1.57,-3.89,-0.92,1.45,-1.17,
0.454,2.13,-1.67,-3.99,-0.92,1.45,-1.17,
0.454,2.13,-1.67,-3.99,-0.90,1.53,-1.19,
0.454,2.13,-1.67,-3.99,-0.89,1.62,-1.21,
0.457,2.13,-1.67,-3.99,-0.86,1.74,-1.25,
0.458,2.13,-1.67,-3.99,-0.85,1.78,-1.26,
0.46,2.13,-1.67,-3.99,-0.83,1.86,-1.28,
0.464,2.06,-1.70,-3.95,-0.83,1.86,-1.28,
0.465,2.06,-1.70,-3.95,-0.80,1.93,-1.30,
0.465,2.06,-1.70,-3.95,-0.77,2.01,-1.32,
0.478,2.06,-1.70,-3.95,-0.73,2.11,-1.34,
0.48,2.06,-1.70,-3.95,-0.71,2.14,-1.35,
0.482,2.06,-1.70,-3.95,-0.68,2.21,-1.37,
0.484,1.78,-1.69,-3.89,-0.68,2.21,-1.37,
0.484,1.78,-1.69,-3.89,-0.64,2.27,-1.38,
0.485,1.78,-1.69,-3.89,-0.60,2.32,-1.40,
0.486,1.78,-1.69,-3.89,-0.53,2.40,-1.42,
0.486,1.78,-1.69,-3.89,-0.51,2.42,-1.43,
0.487,1.78,-1.69,-3.89,-0.48,2.47,-1.44,
0.487,1.73,-1.57,-3.61,-0.48,2.47,-1.44,
0.487,1.73,-1.57,-3.61,-0.44,2.51,-1.45,
0.495,1.73,-1.57,-3.61,-0.40,2.56,-1.47,
0.5,1.73,-1.57,-3.61,-0.33,2.62,-1.49,
0.501,1.73,-1.57,-3.61,-0.32,2.65,-1.50,
0.503,1.73,-1.57,-3.61,-0.27,2.70,-1.51,
0.504,1.68,-1.77,-3.24,-0.27,2.70,-1.51,
0.504,1.68,-1.77,-3.24,-0.23,2.75,-1.53,
0.505,1.68,-1.77,-3.24,-0.19,2.80,-1.54,
0.505,1.68,-1.77,-3.24,-0.12,2.89,-1.57,
0.541,1.68,-1.77,-3.24,-0.11,2.92,-1.58,
0.541,1.68,-1.77,-3.24,-0.07,2.98,-1.60,
0.542,1.83,-2.21,-2.89,-0.07,2.98,-1.60,
0.543,1.83,-2.21,-2.89,-0.02,3.05,-1.61,
0.543,1.83,-2.21,-2.89,0.02,3.13,-1.64,
0.544,1.83,-2.21,-2.89,0.08,3.24,-1.67,
0.544,1.83,-2.21,-2.89,0.10,3.29,-1.68,
0.545,1.83,-2.21,-2.89,0.14,3.37,-1.71,
0.545,2.23,-2.81,-2.74,0.14,3.37,-1.71,
0.546,2.23,-2.81,-2.74,0.18,3.46,-1.75,
0.547,2.23,-2.81,-2.74,0.22,3.56,-1.78,
0.547,2.23,-2.81,-2.74,0.30,3.71,-1.84,
0.548,2.23,-2.81,-2.74,0.32,3.75,-1.86,
0.548,2.23,-2.81,-2.74,0.36,3.86,-1.91,
0.549,2.87,-3.20,-2.63,0.36,3.86,-1.91,
0.549,2.87,-3.20,-2.63,0.41,3.96,-1.96,
0.55,2.87,-3.20,-2.63,0.47,4.06,-2.02,
0.55,2.87,-3.20,-2.63,0.55,4.21,-2.11,
0.551,2.87,-3.20,-2.63,0.57,4.26,-2.14,
0.551,2.87,-3.20,-2.63,0.63,4.36,-2.20,
0.551,3.42,-3.69,-2.45,0.63,4.36,-2.20,
0.552,3.42,-3.69,-2.45,0.69,4.45,-2.27,
0.552,3.42,-3.69,-2.45,0.75,4.54,-2.34,
0.552,3.42,-3.69,-2.45,0.83,4.67,-2.45,
0.553,3.42,-3.69,-2.45,0.86,4.71,-2.49,
0.553,3.42,-3.69,-2.45,0.92,4.79,-2.56,
0.554,3.53,-3.53,-2.18,0.92,4.79,-2.56,
0.554,3.53,-3.53,-2.18,0.98,4.87,-2.63,
0.554,3.53,-3.53,-2.18,1.05,4.94,-2.70,
0.555,3.53,-3.53,-2.18,1.14,5.05,-2.80,
0.555,3.53,-3.53,-2.18,1.17,5.08,-2.83,
0.555,3.53,-3.53,-2.18,1.23,5.14,-2.89,
0.556,3.23,-3.15,-1.30,1.23,5.14,-2.89,
0.556,3.23,-3.15,-1.30,1.30,5.20,-2.95,
0.556,3.23,-3.15,-1.30,1.36,5.25,-3.00,
0.557,3.23,-3.15,-1.30,1.45,5.32,-3.07,
0.56,3.23,-3.15,-1.30,1.48,5.34,-3.09,
0.56,3.23,-3.15,-1.30,1.54,5.37,-3.13,
0.562,2.59,-2.55,0.01,1.54,5.37,-3.13,
0.562,2.59,-2.55,0.01,1.59,5.41,-3.17,
0.576,2.59,-2.55,0.01,1.64,5.44,-3.20,
0.579,2.59,-2.55,0.01,1.71,5.49,-3.24,
0.579,2.59,-2.55,0.01,1.73,5.50,-3.26,
0.58,2.59,-2.55,0.01,1.77,5.51,-3.28,
0.58,1.87,-2.38,1.01,1.77,5.51,-3.28,
0.581,1.87,-2.38,1.01,1.81,5.52,-3.31,
0.582,1.87,-2.38,1.01,1.84,5.53,-3.34,
0.586,1.87,-2.38,1.01,1.88,5.53,-3.38,
0.586,1.87,-2.38,1.01,1.89,5.53,-3.40,
0.586,1.87,-2.38,1.01,1.91,5.53,-3.43,
0.587,1.25,-2.54,1.36,1.91,5.53,-3.43,
0.587,1.25,-2.54,1.36,1.92,5.53,-3.46,
0.587,1.25,-2.54,1.36,1.92,5.52,-3.50,
0.587,1.25,-2.54,1.36,1.92,5.50,-3.56,
0.588,1.25,-2.54,1.36,1.92,5.50,-3.58,
0.603,1.25,-2.54,1.36,1.91,5.48,-3.62,
0.604,1.20,-2.97,1.26,1.91,5.48,-3.62,
0.604,1.20,-2.97,1.26,1.90,5.46,-3.67,
0.604,1.20,-2.97,1.26,1.87,5.44,-3.72,
0.604,1.20,-2.97,1.26,1.84,5.41,-3.80,
0.604,1.20,-2.97,1.26,1.82,5.40,-3.83,
0.605,1.20,-2.97,1.26,1.79,5.37,-3.89,
0.644,1.52,-3.26,0.65,1.79,5.37,-3.89,
0.644,1.52,-3.26,0.65,1.76,5.33,-3.95,
0.644,1.52,-3.26,0.65,1.73,5.29,-4.01,
0.644,1.52,-3.26,0.65,1.70,5.23,-4.11,
0.645,1.52,-3.26,0.65,1.69,5.21,-4.14,
0.645,1.52,-3.26,0.65,1.67,5.17,-4.21,
0.645,1.96,-3.46,0.32,1.67,5.17,-4.21,
0.645,1.96,-3.46,0.32,1.65,5.13,-4.27,
0.645,1.96,-3.46,0.32,1.64,5.09,-4.33,
0.646,1.96,-3.46,0.32,1.63,5.03,-4.42,
0.646,1.96,-3.46,0.32,1.63,5.02,-4.45,
0.646,1.96,-3.46,0.32,1.63,4.98,-4.49,
0.646,1.61,-2.96,0.48,1.63,4.98,-4.49,
0.646,1.61,-2.96,0.48,1.62,4.93,-4.54,
0.647,1.61,-2.96,0.48,1.62,4.88,-4.57,
0.647,1.61,-2.96,0.48,1.62,4.80,-4.62,
0.647,1.61,-2.96,0.48,1.62,4.77,-4.64,
0.647,1.61,-2.96,0.48,1.61,4.71,-4.66,
0.647,0.50,-2.13,1.13,1.61,4.71,-4.66,
0.647,0.50,-2.13,1.13,1.61,4.64,-4.68,
0.648,0.50,-2.13,1.13,1.60,4.56,-4.70,
0.648,0.50,-2.13,1.13,1.59,4.45,-4.73,
0.648,0.50,-2.13,1.13,1.59,4.41,-4.74,
0.648,0.50,-2.13,1.13,1.57,4.32,-4.75,
0.648,-0.51,-1.34,1.53,1.57,4.32,-4.75,
0.649,-0.51,-1.34,1.53,1.55,4.23,-4.77,
0.649,-0.51,-1.34,1.53,1.53,4.14,-4.78,
0.649,-0.51,-1.34,1.53,1.50,4.00,-4.80,
0.649,-0.51,-1.34,1.53,1.49,3.95,-4.80,
0.651,-0.51,-1.34,1.53,1.46,3.86,-4.81,
0.652,-1.52,-0.98,1.67,1.46,3.86,-4.81,
0.652,-1.52,-0.98,1.67,1.44,3.76,-4.82,
0.654,-1.52,-0.98,1.67,1.42,3.66,-4.82,
0.657,-1.52,-0.98,1.67,1.38,3.51,-4.82,
0.658,-1.52,-0.98,1.67,1.37,3.46,-4.82,
0.66,-1.52,-0.98,1.67,1.35,3.36,-4.81,
0.665,-2.97,-0.85,1.92,1.35,3.36,-4.81,
0.666,-2.97,-0.85,1.92,1.33,3.26,-4.80,
0.703,-2.97,-0.85,1.92,1.32,3.17,-4.79,
0.704,-2.97,-0.85,1.92,1.30,3.04,-4.76,
0.704,-2.97,-0.85,1.92,1.30,2.99,-4.75,
0.704,-2.97,-0.85,1.92,1.29,2.92,-4.73,
0.705,-3.87,-0.73,2.35,1.29,2.92,-4.73,
0.705,-3.87,-0.73,2.35,1.29,2.84,-4.70,
0.705,-3.87,-0.73,2.35,1.29,2.77,-4.68,
0.706,-3.87,-0.73,2.35,1.31,2.68,-4.63,
0.706,-3.87,-0.73,2.35,1.32,2.65,-4.62,
0.706,-3.87,-0.73,2.35,1.34,2.59,-4.58,
0.706,-4.34,-0.69,2.61,1.34,2.59,-4.58,
0.707,-4.34,-0.69,2.61,1.36,2.55,-4.55,
0.707,-4.34,-0.69,2.61,1.39,2.50,-4.50,
0.707,-4.34,-0.69,2.61,1.44,2.42,-4.43,
0.708,-4.34,-0.69,2.61,1.46,2.40,-4.41,
0.708,-4.34,-0.69,2.61,1.50,2.34,-4.35,
0.708,-5.53,-0.27,2.86,1.50,2.34,-4.35,
0.708,-5.53,-0.27,2.86,1.54,2.28,-4.29,
0.709,-5.53,-0.27,2.86,1.59,2.21,-4.22,
0.709,-5.53,-0.27,2.86,1.65,2.08,-4.11,
0.709,-5.53,-0.27,2.86,1.67,2.03,-4.08,
0.71,-5.53,-0.27,2.86,1.72,1.94,-4.01,
0.71,-6.86,0.50,2.91,1.72,1.94,-4.01,
0.71,-6.86,0.50,2.91,1.75,1.83,-3.94,
0.71,-6.86,0.50,2.91,1.79,1.71,-3.87,
0.711,-6.86,0.50,2.91,1.83,1.52,-3.77,
0.711,-6.86,0.50,2.91,1.84,1.45,-3.74,
0.711,-6.86,0.50,2.91,1.86,1.31,-3.68,
0.712,-7.59,1.25,2.45,1.86,1.31,-3.68,
0.712,-7.59,1.25,2.45,1.88,1.16,-3.62,
0.717,-7.59,1.25,2.45,1.89,1.00,-3.56,
0.718,-7.59,1.25,2.45,1.89,0.74,-3.48,
0.718,-7.59,1.25,2.45,1.89,0.65,-3.46,
0.722,-7.59,1.25,2.45,1.89,0.48,-3.41,
0.722,-8.02,1.75,1.42,1.89,0.48,-3.41,
0.722,-8.02,1.75,1.42,1.87,0.30,-3.36,
0.726,-8.02,1.75,1.42,1.86,0.12,-3.31,
0.729,-8.02,1.75,1.42,1.83,-0.16,-3.24,
0.73,-8.02,1.75,1.42,1.81,-0.25,-3.22,
0.73,-8.02,1.75,1.42,1.79,-0.44,-3.18,
0.736,-8.54,2.13,0.34,1.79,-0.44,-3.18,
0.736,-8.54,2.13,0.34,1.75,-0.63,-3.15,
0.737,-8.54,2.13,0.34,1.72,-0.81,-3.12,
0.737,-8.54,2.13,0.34,1.65,-1.09,-3.08,
0.74,-8.54,2.13,0.34,1.63,-1.19,-3.06,
0.74,-8.54,2.13,0.34,1.59,-1.37,-3.04,
0.743,-8.59,1.89,-0.56,1.59,-1.37,-3.04,
0.771,-8.59,1.89,-0.56,1.54,-1.54,-3.02,
0.772,-8.59,1.89,-0.56,1.49,-1.71,-3.00,
0.772,-8.59,1.89,-0.56,1.42,-1.94,-2.98,
0.773,-8.59,1.89,-0.56,1.40,-2.02,-2.97,
0.773,-8.59,1.89,-0.56,1.35,-2.17,-2.95,
0.773,-8.72,1.63,-1.14,1.35,-2.17,-2.95,
0.774,-8.72,1.63,-1.14,1.31,-2.32,-2.93,
0.774,-8.72,1.63,-1.14,1.28,-2.47,-2.91,
0.774,-8.72,1.63,-1.14,1.22,-2.68,-2.88,
0.775,-8.72,1.63,-1.14,1.21,-2.76,-2.87,
0.775,-8.72,1.63,-1.14,1.18,-2.90,-2.85,
0.775,-8.84,1.03,-1.39,1.18,-2.90,-2.85,
0.776,-8.84,1.03,-1.39,1.15,-3.04,-2.83,
0.776,-8.84,1.03,-1.39,1.13,-3.17,-2.82,
0.776,-8.84,1.03,-1.39,1.09,-3.33,-2.80,
0.776,-8.84,1.03,-1.39,1.08,-3.38,-2.79,
0.777,-8.84,1.03,-1.39,1.06,-3.45,-2.79,
0.777,-8.66,0.82,-2.05,1.06,-3.45,-2.79,
0.777,-8.66,0.82,-2.05,1.04,-3.51,-2.78,
0.778,-8.66,0.82,-2.05,1.02,-3.56,-2.78,
0.778,-8.66,0.82,-2.05,0.99,-3.59,-2.79,
0.778,-8.66,0.82,-2.05,0.98,-3.59,-2.80,
0.786,-8.66,0.82,-2.05,0.96,-3.59,-2.81,
0.787,-8.39,1.14,-2.67,0.96,-3.59,-2.81,
0.787,-8.39,1.14,-2.67,0.94,-3.58,-2.82,
0.787,-8.39,1.14,-2.67,0.92,-3.56,-2.83,
0.787,-8.39,1.14,-2.67,0.90,-3.52,-2.85,
0.788,-8.39,1.14,-2.67,0.90,-3.50,-2.86,
0.79,-8.39,1.14,-2.67,0.89,-3.46,-2.86,
0.792,-9.04,2.05,-2.60,0.89,-3.46,-2.86,
0.792,-9.04,2.05,-2.60,0.88,-3.40,-2.87,
0.794,-9.04,2.05,-2.60,0.87,-3.34,-2.86,
0.798,-9.04,2.05,-2.60,0.88,-3.23,-2.85,
0.8,-9.04,2.05,-2.60,0.88,-3.19,-2.84,
0.801,-9.04,2.05,-2.60,0.90,-3.11,-2.81,
0.802,-10.32,2.92,-2.03,0.90,-3.11,-2.81,
0.804,-10.32,2.92,-2.03,0.91,-3.04,-2.78,
0.805,-10.32,2.92,-2.03,0.93,-2.97,-2.75,
0.807,-10.32,2.92,-2.03,0.95,-2.89,-2.69,
0.808,-10.32,2.92,-2.03,0.95,-2.87,-2.66,
0.81,-10.32,2.92,-2.03,0.97,-2.83,-2.61,
0.833,-11.91,3.89,-2.08,0.97,-2.83,-2.61,
0.836,-11.91,3.89,-2.08,0.98,-2.80,-2.56,
0.839,-11.91,3.89,-2.08,0.98,-2.77,-2.50,
0.841,-11.91,3.89,-2.08,0.99,-2.73,-2.40,
0.843,-11.91,3.89,-2.08,0.99,-2.72,-2.36,
0.845,-11.91,3.89,-2.08,0.99,-2.70,-2.28,
0.848,-13.57,4.22,-1.98,0.99,-2.70,-2.28,
0.851,-13.57,4.22,-1.98,0.98,-2.69,-2.20,
0.852,-13.57,4.22,-1.98,0.97,-2.69,-2.12,
0.852,-13.57,4.22,-1.98,0.96,-2.69,-1.99,
0.853,-13.57,4.22,-1.98,0.95,-2.69,-1.95,
0.853,-13.57,4.22,-1.98,0.94,-2.68,-1.86,
0.873,-15.08,3.44,-1.66,0.94,-2.68,-1.86,
0.873,-15.08,3.44,-1.66,0.92,-2.67,-1.77,
0.874,-15.08,3.44,-1.66,0.91,-2.65,-1.68,
0.874,-15.08,3.44,-1.66,0.90,-2.59,-1.54,
0.874,-15.08,3.44,-1.66,0.90,-2.57,-1.50,
0.875,-15.08,3.44,-1.66,0.91,-2.50,-1.41,
0.875,-14.89,1.64,-0.34,0.91,-2.50,-1.41,
0.875,-14.89,1.64,-0.34,0.92,-2.43,-1.32,
0.876,-14.89,1.64,-0.34,0.93,-2.34,-1.24,
0.876,-14.89,1.64,-0.34,0.97,-2.19,-1.12,
0.876,-14.89,1.64,-0.34,0.98,-2.14,-1.08,
0.877,-14.89,1.64,-0.34,1.02,-2.03,-1.01,
0.877,-13.60,0.67,1.04,1.02,-2.03,-1.01,
0.877,-13.60,0.67,1.04,1.06,-1.94,-0.95,
0.878,-13.60,0.67,1.04,1.10,-1.85,-0.90,
0.878,-13.60,0.67,1.04,1.17,-1.74,-0.83,
0.878,-13.60,0.67,1.04,1.20,-1.71,-0.81,
0.878,-13.60,0.67,1.04,1.24,-1.68,-0.77,
0.879,-11.87,0.88,1.63,1.24,-1.68,-0.77,
0.879,-11.87,0.88,1.63,1.29,-1.67,-0.74,
0.879,-11.87,0.88,1.63,1.33,-1.67,-0.71,
0.88,-11.87,0.88,1.63,1.39,-1.69,-0.67,
0.88,-11.87,0.88,1.63,1.41,-1.69,-0.66,
0.88,-11.87,0.88,1.63,1.45,-1.67,-0.63,
0.88,-11.05,1.59,1.53,1.45,-1.67,-0.63,
0.881,-11.05,1.59,1.53,1.50,-1.62,-0.60,
0.881,-11.05,1.59,1.53,1.55,-1.53,-0.57,
0.881,-11.05,1.59,1.53,1.65,-1.34,-0.51,
0.881,-11.05,1.59,1.53,1.68,-1.26,-0.49,
0.882,-11.05,1.59,1.53,1.76,-1.07,-0.45,
0.882,-10.23,0.98,3.18,1.76,-1.07,-0.45,
0.882,-10.23,0.98,3.18,1.85,-0.85,-0.41,
0.887,-10.23,0.98,3.18,1.95,-0.60,-0.37,
0.888,-10.23,0.98,3.18,2.10,-0.25,-0.31,
0.888,-10.23,0.98,3.18,2.15,-0.14,-0.29,
0.892,-10.23,0.98,3.18,2.26,0.02,-0.25,
0.893,-8.73,0.46,4.79,2.26,0.02,-0.25,
0.893,-8.73,0.46,4.79,2.36,0.13,-0.20,
0.896,-8.73,0.46,4.79,2.46,0.19,-0.16,
0.9,-8.73,0.46,4.79,2.58,0.19,-0.09,
0.901,-8.73,0.46,4.79,2.62,0.17,-0.07,
0.901,-8.73,0.46,4.79,2.69,0.10,-0.03,
0.902,-7.35,0.39,3.46,2.69,0.10,-0.03,
0.902,-7.35,0.39,3.46,2.76,0.01,0.02,
0.904,-7.35,0.39,3.46,2.81,-0.08,0.06,
0.907,-7.35,0.39,3.46,2.88,-0.21,0.12,
0.908,-7.35,0.39,3.46,2.90,-0.25,0.14,
0.91,-7.35,0.39,3.46,2.94,-0.31,0.19,
0.911,-6.50,0.57,1.99,2.94,-0.31,0.19,
0.912,-6.50,0.57,1.99,2.95,-0.35,0.22,
0.914,-6.50,0.57,1.99,2.94,-0.38,0.26,
0.917,-6.50,0.57,1.99,2.91,-0.35,0.31,
0.918,-6.50,0.57,1.99,2.90,-0.33,0.32,
0.92,-6.50,0.57,1.99,2.88,-0.26,0.36,
0.922,-5.50,0.60,0.68,2.88,-0.26,0.36,
0.922,-5.50,0.60,0.68,2.85,-0.17,0.39,
0.923,-5.50,0.60,0.68,2.82,-0.08,0.43,
0.927,-5.50,0.60,0.68,2.76,0.05,0.49,
0.928,-5.50,0.60,0.68,2.74,0.09,0.51,
0.93,-5.50,0.60,0.68,2.69,0.16,0.55,
0.932,-4.90,0.74,-0.35,2.69,0.16,0.55,
0.932,-4.90,0.74,-0.35,2.64,0.22,0.60,
0.934,-4.90,0.74,-0.35,2.58,0.28,0.65,
0.937,-4.90,0.74,-0.35,2.49,0.36,0.73,
0.938,-4.90,0.74,-0.35,2.46,0.38,0.75,
0.94,-4.90,0.74,-0.35,2.38,0.43,0.81,
0.942,-4.57,0.81,-2.01,2.38,0.43,0.81,
0.942,-4.57,0.81,-2.01,2.29,0.47,0.87,
0.944,-4.57,0.81,-2.01,2.19,0.48,0.92,
0.947,-4.57,0.81,-2.01,2.02,0.50,1.00,
0.948,-4.57,0.81,-2.01,1.96,0.51,1.03,
0.951,-4.57,0.81,-2.01,1.82,0.53,1.07,
0.952,-4.09,0.92,-4.85,1.82,0.53,1.07,
0.955,-4.09,0.92,-4.85,1.67,0.57,1.11,
0.955,-4.09,0.92,-4.85,1.50,0.61,1.14,
0.957,-4.09,0.92,-4.85,1.25,0.71,1.16,
0.958,-4.09,0.92,-4.85,1.16,0.75,1.16,
0.961,-4.09,0.92,-4.85,0.98,0.83,1.16,
0.963,-2.05,0.44,-7.44,0.98,0.83,1.16,
0.965,-2.05,0.44,-7.44,0.80,0.91,1.15,
0.968,-2.05,0.44,-7.44,0.61,0.99,1.14,
0.968,-2.05,0.44,-7.44,0.31,1.10,1.10,
0.969,-2.05,0.44,-7.44,0.20,1.13,1.09,
0.972,-2.05,0.44,-7.44,-0.01,1.19,1.05,
0.975,-0.23,-0.77,-10.25,-0.01,1.19,1.05,
0.975,-0.23,-0.77,-10.25,-0.36,1.30,1.00,
0.976,-0.23,-0.77,-10.25,-0.48,1.33,0.97,
0.987,-0.23,-0.77,-10.25,-0.83,1.46,0.92,
0.989,-0.23,-0.77,-10.25,-0.94,1.50,0.89,
0.99,-0.23,-0.77,-10.25,-1.15,1.60,0.86,
0.99,1.04,-0.89,-11.04,-1.15,1.60,0.86,
0.99,1.04,-0.89,-11.04,-1.35,1.70,0.82,
0.991,1.04,-0.89,-11.04,-1.54,1.81,0.79,
0.991,1.04,-0.89,-11.04,-1.77,1.98,0.75,
0.991,1.04,-0.89,-11.04,-1.84,2.04,0.74,
0.992,1.04,-0.89,-11.04,-1.97,2.17,0.72,
0.993,1.31,-0.87,-8.62,-1.97,2.17,0.72,
0.993,1.31,-0.87,-8.62,-2.07,2.30,0.71,
1.018,1.31,-0.87,-8.62,-2.15,2.43,0.71,
1.018,1.31,-0.87,-8.62,-2.24,2.67,0.73,
1.054,1.31,-0.87,-8.62,-2.24,2.67,0.73,
1.054,1.31,-0.87,-8.62,-2.24,2.78,0.75,
1.055,0.83,-0.94,-4.42,-2.24,2.78,0.75,
1.055,0.83,-0.94,-4.42,-2.23,2.88,0.79,
1.056,0.83,-0.94,-4.42,-2.19,2.97,0.84,
1.056,0.83,-0.94,-4.42,-2.08,3.10,0.93,
1.056,0.83,-0.94,-4.42,-2.04,3.14,0.96,
1.057,0.83,-0.94,-4.42,-1.94,3.20,1.04,
1.057,-0.06,-0.41,-0.09,-1.94,3.20,1.04,
1.057,-0.06,-0.41,-0.09,-1.80,3.25,1.12,
1.058,-0.06,-0.41,-0.09,-1.58,3.26,1.20,
1.058,-0.06,-0.41,-0.09,-1.07,3.23,1.29,
1.058,-0.06,-0.41,-0.09,-0.90,3.22,1.32,
1.058,-0.06,-0.41,-0.09,-0.59,3.21,1.37,
1.059,0.97,0.53,7.32,-0.59,3.21,1.37,
1.059,0.97,0.53,7.32,-0.34,3.19,1.43,
1.059,0.97,0.53,7.32,-0.12,3.13,1.49,
1.06,0.97,0.53,7.32,0.18,3.02,1.59,
1.06,0.97,0.53,7.32,0.29,2.99,1.62,
1.06,0.97,0.53,7.32,0.49,2.93,1.67,
1.06,1.15,0.72,4.23,0.49,2.93,1.67,
1.061,1.15,0.72,4.23,0.70,2.90,1.72,
1.061,1.15,0.72,4.23,0.91,2.90,1.76,
1.061,1.15,0.72,4.23,1.20,2.95,1.81,
1.062,1.15,0.72,4.23,1.29,2.98,1.82,
1.062,1.15,0.72,4.23,1.47,3.04,1.85,
1.062,2.55,0.68,3.93,1.47,3.04,1.85,
1.062,2.55,0.68,3.93,1.63,3.10,1.87,
1.063,2.55,0.68,3.93,1.77,3.17,1.89,
1.063,2.55,0.68,3.93,1.92,3.29,1.93,
1.063,2.55,0.68,3.93,1.96,3.33,1.94,
1.064,2.55,0.68,3.93,2.02,3.42,1.97,
1.064,3.32,0.83,2.00,2.02,3.42,1.97,
1.064,3.32,0.83,2.00,2.06,3.51,2.01,
1.064,3.32,0.83,2.00,2.07,3.59,2.06,
1.065,3.32,0.83,2.00,2.05,3.71,2.13,
1.065,3.32,0.83,2.00,2.02,3.75,2.15,
1.065,3.32,0.83,2.00,1.95,3.81,2.18,
1.066,3.15,0.89,-0.80,1.95,3.81,2.18,
1.066,3.15,0.89,-0.80,1.89,3.84,2.20,
1.066,3.15,0.89,-0.80,1.81,3.84,2.23,
1.068,3.15,0.89,-0.80,1.66,3.81,2.26,
1.071,3.15,0.89,-0.80,1.59,3.79,2.27,
1.071,3.15,0.89,-0.80,1.45,3.75,2.30,
1.072,1.07,1.36,-1.36,1.45,3.75,2.30,
1.073,1.07,1.36,-1.36,1.32,3.66,2.34,
1.074,1.07,1.36,-1.36,1.19,3.52,2.39,
1.087,1.07,1.36,-1.36,1.04,3.23,2.50,
1.089,1.07,1.36,-1.36,0.99,3.12,2.54,
1.09,1.07,1.36,-1.36,0.91,2.87,2.61,
1.09,-1.90,3.87,1.67,0.91,2.87,2.61,
1.091,-1.90,3.87,1.67,0.84,2.61,2.67,
1.091,-1.90,3.87,1.67,0.78,2.37,2.72,
1.092,-1.90,3.87,1.67,0.68,2.05,2.75,
1.093,-1.90,3.87,1.67,0.64,1.96,2.75,
1.093,-1.90,3.87,1.67,0.58,1.79,2.74,
1.094,0.52,3.75,2.29,0.58,1.79,2.74,
1.095,0.52,3.75,2.29,0.50,1.65,2.70,
1.096,0.52,3.75,2.29,0.43,1.52,2.66,
1.097,0.52,3.75,2.29,0.33,1.33,2.58,
1.098,0.52,3.75,2.29,0.30,1.27,2.55,
1.104,0.52,3.75,2.29,0.24,1.17,2.49,
1.106,3.28,1.40,1.46,0.24,1.17,2.49,
1.106,3.28,1.40,1.46,0.18,1.07,2.42,
1.106,3.28,1.40,1.46,0.11,0.99,2.37,
1.107,3.28,1.40,1.46,0.02,0.87,2.30,
1.108,3.28,1.40,1.46,-0.01,0.83,2.28,
1.123,3.28,1.40,1.46,-0.07,0.76,2.26,
1.124,2.60,0.35,1.50,-0.07,0.76,2.26,
1.124,2.60,0.35,1.50,-0.13,0.68,2.23,
1.124,2.60,0.35,1.50,-0.20,0.62,2.22,
1.125,2.60,0.35,1.50,-0.30,0.53,2.20,
1.125,2.60,0.35,1.50,-0.34,0.51,2.19,
1.126,2.60,0.35,1.50,-0.40,0.46,2.18,
1.126,2.03,0.21,1.15,-0.40,0.46,2.18,
1.126,2.03,0.21,1.15,-0.46,0.42,2.16,
1.127,2.03,0.21,1.15,-0.51,0.39,2.14,
1.127,2.03,0.21,1.15,-0.59,0.35,2.08,
1.157,2.03,0.21,1.15,-0.61,0.35,2.06,
1.158,2.03,0.21,1.15,-0.64,0.34,2.01,
1.158,3.20,-0.36,1.14,-0.64,0.34,2.01,
1.159,3.20,-0.36,1.14,-0.67,0.34,1.94,
1.159,3.20,-0.36,1.14,-0.70,0.33,1.87,
1.159,3.20,-0.36,1.14,-0.72,0.32,1.73,
1.16,3.20,-0.36,1.14,-0.73,0.31,1.68,
1.16,3.20,-0.36,1.14,-0.73,0.30,1.58,
1.16,4.86,-0.98,1.42,-0.73,0.30,1.58,
1.16,4.86,-0.98,1.42,-0.73,0.29,1.46,
1.161,4.86,-0.98,1.42,-0.73,0.29,1.34,
1.161,4.86,-0.98,1.42,-0.71,0.28,1.14,
1.161,4.86,-0.98,1.42,-0.70,0.28,1.07,
1.162,4.86,-0.98,1.42,-0.68,0.28,0.93,
1.162,6.64,-1.10,1.92,-0.68,0.28,0.93,
1.162,6.64,-1.10,1.92,-0.66,0.28,0.79,
1.163,6.64,-1.10,1.92,-0.64,0.29,0.65,
1.163,6.64,-1.10,1.92,-0.60,0.31,0.44,
1.163,6.64,-1.10,1.92,-0.59,0.33,0.37,
1.163,6.64,-1.10,1.92,-0.56,0.36,0.23,
1.164,7.52,-0.38,1.33,-0.56,0.36,0.23,
1.164,7.52,-0.38,1.33,-0.53,0.40,0.09,
1.194,7.52,-0.38,1.33,-0.51,0.45,-0.03,
1.195,7.52,-0.38,1.33,-0.46,0.55,-0.21,
1.195,7.52,-0.38,1.33,-0.45,0.58,-0.27,
1.195,7.52,-0.38,1.33,-0.43,0.64,-0.38,
1.196,7.65,0.09,0.44,-0.43,0.64,-0.38,
1.196,7.65,0.09,0.44,-0.40,0.69,-0.49,
1.197,7.65,0.09,0.44,-0.38,0.74,-0.58,
1.198,7.65,0.09,0.44,-0.35,0.82,-0.71,
1.198,7.65,0.09,0.44,-0.34,0.84,-0.76,
1.198,7.65,0.09,0.44,-0.31,0.89,-0.83,
1.199,7.25,0.62,-0.61,-0.31,0.89,-0.83,
1.199,7.25,0.62,-0.61,-0.29,0.94,-0.90,
1.2,7.25,0.62,-0.61,-0.26,0.98,-0.95,
1.2,7.25,0.62,-0.61,-0.22,1.04,-1.01,
1.201,7.25,0.62,-0.61,-0.21,1.06,-1.03,
1.202,7.25,0.62,-0.61,-0.19,1.09,-1.06,
1.202,6.17,0.96,-0.99,-0.19,1.09,-1.06,
1.203,6.17,0.96,-0.99,-0.16,1.12,-1.08,
1.203,6.17,0.96,-0.99,-0.14,1.14,-1.09,
1.204,6.17,0.96,-0.99,-0.12,1.15,-1.10,
1.204,6.17,0.96,-0.99,-0.11,1.16,-1.10,
1.204,6.17,0.96,-0.99,-0.11,1.16,-1.10,
1.205,5.02,0.91,-1.53,-0.11,1.16,-1.10,
1.205,5.02,0.91,-1.53,-0.11,1.16,-1.09,
1.206,5.02,0.91,-1.53,-0.11,1.17,-1.08,
1.208,5.02,0.91,-1.53,-0.14,1.17,-1.06,
1.209,5.02,0.91,-1.53,-0.15,1.17,-1.05,
1.21,5.02,0.91,-1.53,-0.18,1.18,-1.03,
1.212,3.64,0.54,-2.44,-0.18,1.18,-1.03,
1.212,3.64,0.54,-2.44,-0.22,1.19,-1.02,
1.214,3.64,0.54,-2.44,-0.26,1.21,-1.00,
1.217,3.64,0.54,-2.44,-0.32,1.24,-0.98,
1.218,3.64,0.54,-2.44,-0.34,1.26,-0.97,
1.22,3.64,0.54,-2.44,-0.40,1.28,-0.96,
1.222,2.11,0.22,-2.40,-0.40,1.28,-0.96,
1.223,2.11,0.22,-2.40,-0.45,1.31,-0.96,
1.224,2.11,0.22,-2.40,-0.50,1.34,-0.95,
1.227,2.11,0.22,-2.40,-0.59,1.37,-0.94,
1.229,2.11,0.22,-2.40,-0.61,1.38,-0.94,
1.23,2.11,0.22,-2.40,-0.67,1.39,-0.94,
1.232,1.10,-0.31,-1.86,-0.67,1.39,-0.94,
1.233,1.10,-0.31,-1.86,-0.73,1.40,-0.94,
1.234,1.10,-0.31,-1.86,-0.78,1.41,-0.94,
1.237,1.10,-0.31,-1.86,-0.86,1.44,-0.95,
1.238,1.10,-0.31,-1.86,-0.88,1.45,-0.95,
1.24,1.10,-0.31,-1.86,-0.92,1.47,-0.96,
1.244,0.59,-0.81,-0.71,-0.92,1.47,-0.96,
1.246,0.59,-0.81,-0.71,-0.94,1.50,-0.97,
1.247,0.59,-0.81,-0.71,-0.94,1.52,-0.99,
1.248,0.59,-0.81,-0.71,-0.91,1.57,-1.03,
1.248,0.59,-0.81,-0.71,-0.89,1.58,-1.04,
1.251,0.59,-0.81,-0.71,-0.84,1.60,-1.08,
1.253,1.20,-1.17,2.44,-0.84,1.60,-1.08,
1.254,1.20,-1.17,2.44,-0.78,1.62,-1.13,
1.255,1.20,-1.17,2.44,-0.71,1.61,-1.17,
1.257,1.20,-1.17,2.44,-0.59,1.60,-1.25,
1.258,1.20,-1.17,2.44,-0.55,1.59,-1.28,
1.276,1.20,-1.17,2.44,-0.45,1.58,-1.34,
1.277,1.87,-0.93,4.09,-0.45,1.58,-1.34,
1.278,1.87,-0.93,4.09,-0.35,1.57,-1.41,
1.278,1.87,-0.93,4.09,-0.22,1.57,-1.48,
1.278,1.87,-0.93,4.09,-0.02,1.58,-1.60,
1.278,1.87,-0.93,4.09,0.05,1.59,-1.65,
1.279,1.87,-0.93,4.09,0.21,1.60,-1.76,
1.279,2.68,0.08,5.70,0.21,1.60,-1.76,
1.279,2.68,0.08,5.70,0.36,1.56,-1.89,
1.28,2.68,0.08,5.70,0.46,1.43,-2.04,
1.28,2.68,0.08,5.70,0.47,0.94,-2.31,
1.28,2.68,0.08,5.70,0.42,0.71,-2.40,
1.281,2.68,0.08,5.70,0.31,0.34,-2.56,
1.288,3.36,2.39,-0.91,0.31,0.34,-2.56,
1.289,3.36,2.39,-0.91,0.24,0.16,-2.69,
1.289,3.36,2.39,-0.91,0.22,0.10,-2.80,
1.289,3.36,2.39,-0.91,0.17,0.07,-2.89,
1.29,3.36,2.39,-0.91,0.14,0.06,-2.91,
1.29,3.36,2.39,-0.91,0.12,0.04,-2.91,
1.294,-2.17,0.84,-0.71,0.12,0.04,-2.91,
1.294,-2.17,0.84,-0.71,0.05,-0.01,-2.91,
1.305,-2.17,0.84,-0.71,-0.04,-0.08,-2.89,
1.308,-2.17,0.84,-0.71,-0.23,-0.18,-2.81,
1.309,-2.17,0.84,-0.71,-0.29,-0.20,-2.78,
1.31,-2.17,0.84,-0.71,-0.42,-0.25,-2.70,
1.311,-5.58,-1.63,-3.07,-0.42,-0.25,-2.70,
1.311,-5.58,-1.63,-3.07,-0.53,-0.29,-2.60,
1.312,-5.58,-1.63,-3.07,-0.62,-0.34,-2.50,
1.313,-5.58,-1.63,-3.07,-0.71,-0.41,-2.34,
1.313,-5.58,-1.63,-3.07,-0.74,-0.43,-2.29,
1.314,-5.58,-1.63,-3.07,-0.80,-0.46,-2.17,
1.314,-6.44,-1.50,-0.91,-0.80,-0.46,-2.17,
1.315,-6.44,-1.50,-0.91,-0.85,-0.47,-2.05,
1.315,-6.44,-1.50,-0.91,-0.90,-0.49,-1.93,
1.325,-6.44,-1.50,-0.91,-0.98,-0.56,-1.76,
1.327,-6.44,-1.50,-0.91,-1.00,-0.59,-1.71,
1.328,-6.44,-1.50,-0.91,-1.05,-0.65,-1.60,
1.328,-5.91,0.14,-0.60,-1.05,-0.65,-1.60,
1.329,-5.91,0.14,-0.60,-1.12,-0.71,-1.46,
1.329,-5.91,0.14,-0.60,-1.14,-0.72,-1.42,
1.33,-5.91,0.14,-0.60,-1.19,-0.74,-1.30,
1.331,-5.91,0.14,-0.60,-1.21,-0.76,-1.24,
1.331,-5.91,0.14,-0.60,-1.21,-0.77,-1.21,
1.362,-4.80,0.82,-0.21,-1.21,-0.77,-1.21,
1.362,-4.80,0.82,-0.21,-1.21,-0.80,-1.16,
1.362,-4.80,0.82,-0.21,-1.20,-0.81,-1.11,
1.363,-4.80,0.82,-0.21,-1.21,-0.80,-1.03,
1.363,-4.80,0.82,-0.21,-1.22,-0.78,-1.01,
1.363,-4.80,0.82,-0.21,-1.24,-0.72,-0.98,
1.363,-3.64,1.36,-0.70,-1.24,-0.72,-0.98,
1.364,-3.64,1.36,-0.70,-1.25,-0.67,-0.95,
1.364,-3.64,1.36,-0.70,-1.25,-0.63,-0.93,
1.364,-3.64,1.36,-0.70,-1.26,-0.57,-0.90,
1.365,-3.64,1.36,-0.70,-1.25,-0.55,-0.89,
1.365,-3.64,1.36,-0.70,-1.25,-0.53,-0.88,
1.365,-3.22,0.64,-0.91,-1.25,-0.53,-0.88,
1.366,-3.22,0.64,-0.91,-1.24,-0.51,-0.86,
1.366,-3.22,0.64,-0.91,-1.23,-0.50,-0.86,
1.366,-3.22,0.64,-0.91,-1.19,-0.49,-0.87,
1.366,-3.22,0.64,-0.91,-1.18,-0.49,-0.87,
1.367,-3.22,0.64,-0.91,-1.15,-0.49,-0.89,
1.367,-2.21,-0.27,-0.32,-1.15,-0.49,-0.89,
1.367,-2.21,-0.27,-0.32,-1.12,-0.49,-0.91,
1.368,-2.21,-0.27,-0.32,-1.09,-0.49,-0.94,
1.368,-2.21,-0.27,-0.32,-1.03,-0.50,-0.98,
1.368,-2.21,-0.27,-0.32,-1.01,-0.51,-0.99,
1.37,-2.21,-0.27,-0.32,-0.98,-0.52,-1.02,
1.371,-1.17,-0.66,0.10,-0.98,-0.52,-1.02,
1.372,-1.17,-0.66,0.10,-0.94,-0.53,-1.04,
1.374,-1.17,-0.66,0.10,-0.90,-0.53,-1.06,
1.379,-1.17,-0.66,0.10,-0.84,-0.53,-1.08,
1.38,-1.17,-0.66,0.10,-0.80,-0.51,-1.08,
1.381,-1.17,-0.66,0.10,-0.78,-0.50,-1.08,
1.384,-1.23,-0.52,0.40,-0.78,-0.50,-1.08,
1.385,-1.23,-0.52,0.40,-0.75,-0.47,-1.07,
1.385,-1.23,-0.52,0.40,-0.71,-0.43,-1.06,
1.389,-1.23,-0.52,0.40,-0.65,-0.36,-1.02,
1.389,-1.23,-0.52,0.40,-0.64,-0.33,-1.01,
1.39,-1.23,-0.52,0.40,-0.61,-0.27,-0.97,
1.406,-2.12,-0.06,0.09,-0.61,-0.27,-0.97,
1.407,-2.12,-0.06,0.09,-0.59,-0.19,-0.93,
1.407,-2.12,-0.06,0.09,-0.57,-0.12,-0.89,
1.407,-2.12,-0.06,0.09,-0.54,-0.01,-0.83,
1.407,-2.12,-0.06,0.09,-0.53,0.03,-0.81,
1.408,-2.12,-0.06,0.09,-0.51,0.11,-0.77,
1.408,-2.28,0.40,-0.77,-0.51,0.11,-0.77,
1.408,-2.28,0.40,-0.77,-0.50,0.19,-0.73,
1.408,-2.28,0.40,-0.77,-0.49,0.27,-0.70,
1.408,-2.28,0.40,-0.77,-0.47,0.39,-0.66,
1.409,-2.28,0.40,-0.77,-0.47,0.42,-0.65,
1.438,-2.28,0.40,-0.77,-0.46,0.49,-0.64,
1.439,-2.06,0.65,-1.27,-0.46,0.49,-0.64,
1.44,-2.06,0.65,-1.27,-0.45,0.56,-0.63,
1.44,-2.06,0.65,-1.27,-0.44,0.62,-0.62,
1.44,-2.06,0.65,-1.27,-0.41,0.71,-0.63,
1.441,-2.06,0.65,-1.27,-0.41,0.74,-0.63,
1.441,-2.06,0.65,-1.27,-0.40,0.79,-0.65,
1.441,-1.61,0.90,-1.37,-0.40,0.79,-0.65,
1.442,-1.61,0.90,-1.37,-0.38,0.83,-0.67,
1.442,-1.61,0.90,-1.37,-0.37,0.86,-0.70,
1.442,-1.61,0.90,-1.37,-0.33,0.89,-0.75,
1.442,-1.61,0.90,-1.37,-0.32,0.90,-0.79,
1.443,-1.61,0.90,-1.37,-0.30,0.90,-0.81,
1.443,-0.98,1.31,-1.26,-0.30,0.90,-0.81,
1.443,-0.98,1.31,-1.26,-0.27,0.89,-0.86,
1.444,-0.98,1.31,-1.26,-0.25,0.86,-0.91,
1.444,-0.98,1.31,-1.26,-0.20,0.81,-1.00,
1.444,-0.98,1.31,-1.26,-0.19,0.79,-1.03,
1.444,-0.98,1.31,-1.26,-0.16,0.74,-1.10,
1.445,-0.24,1.78,-0.99,-0.16,0.74,-1.10,
1.445,-0.24,1.78,-0.99,-0.12,0.69,-1.17,
1.445,-0.24,1.78,-0.99,-0.08,0.64,-1.24,
1.453,-0.24,1.78,-0.99,-0.02,0.56,-1.35,
1.455,-0.24,1.78,-0.99,0.00,0.53,-1.39,
1.456,-0.24,1.78,-0.99,0.05,0.46,-1.47,
1.456,0.21,2.47,-0.51,0.05,0.46,-1.47,
1.458,0.21,2.47,-0.51,0.11,0.39,-1.55,
1.459,0.21,2.47,-0.51,0.16,0.31,-1.62,
1.46,0.21,2.47,-0.51,0.26,0.18,-1.74,
1.46,0.21,2.47,-0.51,0.29,0.14,-1.78,
1.463,0.21,2.47,-0.51,0.35,0.09,-1.85,
1.464,0.47,2.99,0.12,0.35,0.09,-1.85,
1.465,0.47,2.99,0.12,0.42,0.05,-1.93,
1.466,0.47,2.99,0.12,0.49,0.05,-1.99,
1.472,0.47,2.99,0.12,0.60,0.06,-2.09,
1.474,0.47,2.99,0.12,0.64,0.08,-2.12,
1.475,0.47,2.99,0.12,0.72,0.11,-2.18,
1.476,-0.51,3.20,0.33,0.72,0.11,-2.18,
1.477,-0.51,3.20,0.33,0.80,0.15,-2.23,
1.478,-0.51,3.20,0.33,0.88,0.21,-2.28,
1.479,-0.51,3.20,0.33,1.00,0.31,-2.35,
1.479,-0.51,3.20,0.33,1.05,0.35,-2.37,
1.48,-0.51,3.20,0.33,1.13,0.43,-2.41,
1.482,-1.27,3.09,0.70,1.13,0.43,-2.41,
1.486,-1.27,3.09,0.70,1.23,0.52,-2.45,
1.487,-1.27,3.09,0.70,1.31,0.61,-2.49,
1.488,-1.27,3.09,0.70,1.45,0.74,-2.54,
1.488,-1.27,3.09,0.70,1.54,0.81,-2.57,
1.49,-1.27,3.09,0.70,1.58,0.84,-2.58,
1.493,-1.16,3.04,0.87,1.58,0.84,-2.58,
1.495,-1.16,3.04,0.87,1.67,0.91,-2.61,
1.496,-1.16,3.04,0.87,1.75,0.95,-2.64,
1.497,-1.16,3.04,0.87,1.85,0.97,-2.70,
1.526,-1.16,3.04,0.87,1.88,0.96,-2.72,
1.526,-1.16,3.04,0.87,1.91,0.95,-2.75,
1.527,-0.49,2.35,-0.49,1.91,0.95,-2.75,
1.527,-0.49,2.35,-0.49,1.92,0.92,-2.79,
1.528,-0.49,2.35,-0.49,1.91,0.87,-2.83,
1.528,-0.49,2.35,-0.49,1.86,0.75,-2.89,
1.528,-0.49,2.35,-0.49,1.83,0.70,-2.91,
1.529,-0.49,2.35,-0.49,1.77,0.59,-2.95,
1.529,0.25,1.42,-4.06,1.77,0.59,-2.95,
1.53,0.25,1.42,-4.06,1.70,0.47,-3.00,
1.53,0.25,1.42,-4.06,1.62,0.35,-3.04,
1.53,0.25,1.42,-4.06,1.50,0.19,-3.11,
1.531,0.25,1.42,-4.06,1.47,0.14,-3.14,
1.531,0.25,1.42,-4.06,1.40,0.06,-3.18,
1.532,0.95,0.89,-5.19,1.40,0.06,-3.18,
1.532,0.95,0.89,-5.19,1.34,-0.02,-3.22,
1.532,0.95,0.89,-5.19,1.29,-0.11,-3.26,
1.533,0.95,0.89,-5.19,1.23,-0.23,-3.31,
1.533,0.95,0.89,-5.19,1.20,-0.28,-3.33,
1.534,0.95,0.89,-5.19,1.19,-0.29,-3.35,
1.534,1.42,1.40,-3.25,1.19,-0.29,-3.35,
1.534,1.42,1.40,-3.25,1.17,-0.27,-3.36,
1.535,1.42,1.40,-3.25,1.15,-0.19,-3.36,
1.537,1.42,1.40,-3.25,1.12,0.06,-3.32,
1.538,1.42,1.40,-3.25,1.11,0.17,-3.30,
1.542,1.42,1.40,-3.25,1.08,0.44,-3.24,
1.543,1.19,1.89,-0.67,1.08,0.44,-3.24,
1.543,1.19,1.89,-0.67,1.06,0.73,-3.17,
1.548,1.19,1.89,-0.67,1.02,1.06,-3.08,
1.549,1.19,1.89,-0.67,0.97,1.56,-2.92,
1.55,1.19,1.89,-0.67,0.96,1.72,-2.86,
1.55,1.19,1.89,-0.67,0.92,2.04,-2.73,
1.554,0.02,2.35,1.27,0.92,2.04,-2.73,
1.554,0.02,2.35,1.27,0.89,2.32,-2.61,
1.555,0.02,2.35,1.27,0.85,2.58,-2.49,
1.559,0.02,2.35,1.27,0.80,2.88,-2.33,
1.559,0.02,2.35,1.27,0.78,3.04,-2.23,
1.569,0.02,2.35,1.27,0.77,3.10,-2.19,
1.57,-0.69,2.87,1.61,0.77,3.10,-2.19,
1.57,-0.69,2.87,1.61,0.75,3.19,-2.11,
1.571,-0.69,2.87,1.61,0.72,3.23,-2.03,
1.571,-0.69,2.87,1.61,0.68,3.22,-1.94,
1.571,-0.69,2.87,1.61,0.66,3.19,-1.91,
1.571,-0.69,2.87,1.61,0.62,3.13,-1.86,
1.572,-0.06,3.36,0.88,0.62,3.13,-1.86,
1.573,-0.06,3.36,0.88,0.58,3.03,-1.82,
1.611,-0.06,3.36,0.88,0.62,2.88,-1.79,
1.612,-0.06,3.36,0.88,1.42,2.26,-1.80,
1.612,-0.06,3.36,0.88,1.51,2.15,-1.77,
1.613,-0.06,3.36,0.88,1.39,2.14,-1.74,
1.613,0.96,0.62,3.18,1.39,2.14,-1.74,
1.613,0.96,0.62,3.18,1.11,2.10,-1.68,
1.614,0.96,0.62,3.18,0.90,1.98,-1.62,
1.614,0.96,0.62,3.18,0.75,1.79,-1.51,
1.614,0.96,0.62,3.18,0.74,1.76,-1.47,
1.614,0.96,0.62,3.18,0.71,1.77,-1.38,
1.615,0.02,-0.62,-1.34,0.71,1.77,-1.38,
1.615,0.02,-0.62,-1.34,0.65,1.80,-1.28,
1.615,0.02,-0.62,-1.34,0.56,1.85,-1.15,
1.616,0.02,-0.62,-1.34,0.31,1.84,-0.98,
1.616,0.02,-0.62,-1.34,0.17,1.89,-0.86,
1.616,0.02,-0.62,-1.34,0.14,1.96,-0.78,
1.616,-2.06,-3.67,-3.36,0.14,1.96,-0.78,
1.617,-2.06,-3.67,-3.36,0.07,2.07,-0.64,
1.617,-2.06,-3.67,-3.36,-0.10,2.11,-0.56,
1.617,-2.06,-3.67,-3.36,-0.28,2.21,-0.44,
1.617,-2.06,-3.67,-3.36,-0.31,2.29,-0.40,
1.618,-2.06,-3.67,-3.36,-0.34,2.46,-0.29,
1.618,-2.44,-4.62,-3.63,-0.34,2.46,-0.29,
1.618,-2.44,-4.62,-3.63,-0.37,2.66,-0.19,
1.619,-2.44,-4.62,-3.63,-0.41,2.82,-0.12,
1.619,-2.44,-4.62,-3.63,-0.55,2.93,-0.11,
1.619,-2.44,-4.62,-3.63,-0.61,2.92,-0.13,
1.62,-2.44,-4.62,-3.63,-0.73,2.93,-0.19,
1.622,0.25,-3.99,-4.00,-0.73,2.93,-0.19,
1.622,0.25,-3.99,-4.00,-0.82,2.97,-0.27,
1.627,0.25,-3.99,-4.00,-0.84,3.10,-0.35,
1.628,0.25,-3.99,-4.00,-0.75,3.52,-0.38,
1.629,0.25,-3.99,-4.00,-0.82,3.45,-0.43,
1.63,0.25,-3.99,-4.00,-0.93,3.41,-0.53,
1.632,2.32,-3.83,-2.41,-0.93,3.41,-0.53,
1.633,2.32,-3.83,-2.41,-1.03,3.37,-0.64,
1.634,2.32,-3.83,-2.41,-1.18,3.27,-0.77,
1.637,2.32,-3.83,-2.41,-1.29,3.28,-0.96,
1.638,2.32,-3.83,-2.41,-1.36,3.31,-1.08,
1.64,2.32,-3.83,-2.41,-1.39,3.31,-1.13,
1.648,4.25,-2.79,-1.98,-1.39,3.31,-1.13,
1.65,4.25,-2.79,-1.98,-1.46,3.31,-1.24,
1.651,4.25,-2.79,-1.98,-1.53,3.30,-1.35,
1.651,4.25,-2.79,-1.98,-1.64,3.26,-1.51,
1.652,4.25,-2.79,-1.98,-1.70,3.22,-1.60,
1.652,4.25,-2.79,-1.98,-1.74,3.19,-1.65,
1.653,4.54,-2.12,-1.23,-1.74,3.19,-1.65,
1.654,4.54,-2.12,-1.23,-1.80,3.13,-1.75,
1.654,4.54,-2.12,-1.23,-1.86,3.07,-1.83,
1.66,4.54,-2.12,-1.23,-1.93,2.96,-1.96,
1.662,4.54,-2.12,-1.23,-1.97,2.89,-2.03,
1.662,4.54,-2.12,-1.23,-1.99,2.85,-2.07,
1.664,3.82,-1.26,0.16,-1.99,2.85,-2.07,
1.665,3.82,-1.26,0.16,-2.02,2.76,-2.14,
1.699,3.82,-1.26,0.16,-2.04,2.69,-2.22,
1.699,3.82,-1.26,0.16,-2.07,2.58,-2.31,
1.7,3.82,-1.26,0.16,-2.08,2.51,-2.38,
1.7,3.82,-1.26,0.16,-2.08,2.47,-2.41,
1.7,3.11,-0.43,1.57,-2.08,2.47,-2.41,
1.701,3.11,-0.43,1.57,-2.10,2.39,-2.49,
1.701,3.11,-0.43,1.57,-2.10,2.36,-2.52,
1.702,3.11,-0.43,1.57,-2.12,2.29,-2.60,
1.702,3.11,-0.43,1.57,-2.13,2.25,-2.66,
1.703,3.11,-0.43,1.57,-2.14,2.24,-2.68,
1.703,2.57,0.22,1.73,-2.14,2.24,-2.68,
1.703,2.57,0.22,1.73,-2.15,2.22,-2.73,
1.703,2.57,0.22,1.73,-2.17,2.20,-2.79,
1.704,2.57,0.22,1.73,-2.18,2.18,-2.86,
1.704,2.57,0.22,1.73,-2.19,2.19,-2.91,
1.704,2.57,0.22,1.73,-2.20,2.18,-2.94,
1.705,2.28,0.56,1.44,-2.20,2.18,-2.94,
1.706,2.28,0.56,1.44,-2.21,2.18,-2.99,
1.706,2.28,0.56,1.44,-2.22,2.17,-3.04,
1.706,2.28,0.56,1.44,-2.23,2.14,-3.11,
1.707,2.28,0.56,1.44,-2.23,2.11,-3.16,
1.707,2.28,0.56,1.44,-2.23,2.09,-3.18,
1.707,1.89,0.67,1.12,-2.23,2.09,-3.18,
1.707,1.89,0.67,1.12,-2.22,2.03,-3.22,
1.708,1.89,0.67,1.12,-2.21,1.95,-3.25,
1.708,1.89,0.67,1.12,-2.18,1.79,-3.28,
1.708,1.89,0.67,1.12,-2.15,1.65,-3.29,
1.718,1.89,0.67,1.12,-2.13,1.57,-3.29,
1.719,1.04,0.45,1.04,-2.13,1.57,-3.29,
1.719,1.04,0.45,1.04,-2.08,1.39,-3.29,
1.719,1.04,0.45,1.04,-2.01,1.21,-3.28,
1.72,1.04,0.45,1.04,-1.88,0.91,-3.25,
1.72,1.04,0.45,1.04,-1.78,0.71,-3.22,
1.72,1.04,0.45,1.04,-1.73,0.61,-3.20,
1.749,0.01,-0.07,1.04,-1.73,0.61,-3.20,
1.751,0.01,-0.07,1.04,-1.61,0.42,-3.16,
1.752,0.01,-0.07,1.04,-1.50,0.24,-3.10,
1.752,0.01,-0.07,1.04,-1.32,0.02,-3.00,
1.752,0.01,-0.07,1.04,-1.21,-0.10,-2.93,
1.753,0.01,-0.07,1.04,-1.16,-0.14,-2.88,
1.753,-1.06,-0.43,0.40,-1.16,-0.14,-2.88,
1.753,-1.06,-0.43,0.40,-1.07,-0.20,-2.80,
1.754,-1.06,-0.43,0.40,-0.98,-0.24,-2.70,
1.754,-1.06,-0.43,0.40,-0.88,-0.23,-2.56,
1.755,-1.06,-0.43,0.40,-0.73,-0.22,-2.46,
1.756,-1.06,-0.43,0.40,-0.55,-0.30,-2.41,
1.757,-1.74,-1.20,4.57,-0.55,-0.30,-2.41,
1.757,-1.74,-1.20,4.57,-0.32,-0.45,-2.32,
1.758,-1.74,-1.20,4.57,-0.42,-0.45,-2.23,
1.759,-1.74,-1.20,4.57,-0.43,-0.65,-2.13,
1.759,-1.74,-1.20,4.57,-0.40,-0.64,-2.07,
1.759,-1.74,-1.20,4.57,-0.35,-0.50,-2.03,
1.765,-1.75,-1.19,0.74,-0.35,-0.50,-2.03,
1.768,-1.75,-1.19,0.74,-0.27,-0.11,-1.96,
1.769,-1.75,-1.19,0.74,-0.32,0.09,-1.92,
1.77,-1.75,-1.19,0.74,-0.24,0.31,-1.89,
1.771,-1.75,-1.19,0.74,-0.22,0.31,-1.91,
1.773,-1.75,-1.19,0.74,-0.22,0.30,-1.92,
1.774,-0.56,-0.97,-0.97,-0.22,0.30,-1.92,
1.776,-0.56,-0.97,-0.97,-0.20,0.30,-1.97,
1.778,-0.56,-0.97,-0.97,-0.15,0.39,-2.02,
1.779,-0.56,-0.97,-0.97,-0.10,0.62,-2.12,
1.78,-0.56,-0.97,-0.97,-0.05,0.62,-2.20,
1.781,-0.56,-0.97,-0.97,-0.01,0.57,-2.25,
1.781,0.92,-0.21,0.02,-0.01,0.57,-2.25,
1.781,0.92,-0.21,0.02,0.07,0.51,-2.35,
1.782,0.92,-0.21,0.02,0.12,0.54,-2.45,
1.782,0.92,-0.21,0.02,0.18,0.53,-2.60,
1.783,0.92,-0.21,0.02,0.21,0.49,-2.70,
1.783,0.92,-0.21,0.02,0.22,0.51,-2.75,
1.784,1.32,0.43,0.69,0.22,0.51,-2.75,
1.784,1.32,0.43,0.69,0.21,0.58,-2.84,
1.785,1.32,0.43,0.69,0.20,0.61,-2.93,
1.789,1.32,0.43,0.69,0.16,0.67,-3.06,
1.791,1.32,0.43,0.69,0.12,0.75,-3.15,
1.792,1.32,0.43,0.69,0.09,0.79,-3.19,
1.793,1.19,1.04,0.81,0.09,0.79,-3.19,
1.793,1.19,1.04,0.81,0.04,0.85,-3.27,
1.794,1.19,1.04,0.81,-0.03,0.93,-3.35,
1.798,1.19,1.04,0.81,-0.14,1.10,-3.45,
1.798,1.19,1.04,0.81,-0.21,1.22,-3.52,
1.8,1.19,1.04,0.81,-0.24,1.29,-3.55,
1.802,0.77,1.66,0.46,-0.24,1.29,-3.55,
1.802,0.77,1.66,0.46,-0.27,1.47,-3.62,
1.804,0.77,1.66,0.46,-0.29,1.69,-3.69,
1.808,0.77,1.66,0.46,-0.26,2.04,-3.78,
1.811,0.77,1.66,0.46,-0.22,2.32,-3.83,
1.812,0.77,1.66,0.46,-0.18,2.47,-3.85,
1.813,0.31,3.33,0.52,-0.18,2.47,-3.85,
1.814,0.31,3.33,0.52,-0.09,2.79,-3.88,
1.815,0.31,3.33,0.52,0.01,3.10,-3.90,
1.819,0.31,3.33,0.52,0.17,3.44,-3.92,
1.821,0.31,3.33,0.52,0.26,3.59,-3.93,
1.822,0.31,3.33,0.52,0.29,3.64,-3.93,
1.823,-0.27,4.55,1.27,0.29,3.64,-3.93,
1.826,-0.27,4.55,1.27,0.36,3.74,-3.94,
1.827,-0.27,4.55,1.27,0.42,3.81,-3.95,
1.828,-0.27,4.55,1.27,0.49,3.87,-3.95,
1.828,-0.27,4.55,1.27,0.52,3.88,-3.95,
1.844,-0.27,4.55,1.27,0.54,3.87,-3.95,
1.871,-1.81,2.48,0.92,0.54,3.87,-3.95,
1.872,-1.81,2.48,0.92,0.56,3.84,-3.94,
1.872,-1.81,2.48,0.92,0.57,3.78,-3.94,
1.873,-1.81,2.48,0.92,0.62,3.70,-3.96,
1.873,-1.81,2.48,0.92,0.72,4.02,-3.96,
1.873,-1.81,2.48,0.92,0.73,4.25,-3.97,
1.874,-3.64,-4.84,0.56,0.73,4.25,-3.97,
1.874,-3.64,-4.84,0.56,0.75,4.60,-4.03,
1.875,-3.64,-4.84,0.56,0.68,4.40,-4.11,
1.875,-3.64,-4.84,0.56,0.52,3.84,-4.28,
1.876,-3.64,-4.84,0.56,0.55,3.65,-4.35,
1.876,-3.64,-4.84,0.56,0.58,3.36,-4.50,
1.876,-0.12,-14.87,0.72,0.58,3.36,-4.50,
1.877,-0.12,-14.87,0.72,0.62,3.26,-4.66,
1.877,-0.12,-14.87,0.72,0.80,3.91,-4.81,
1.878,-0.12,-14.87,0.72,0.75,4.48,-4.94,
1.878,-0.12,-14.87,0.72,0.64,4.75,-5.07,
1.879,-0.12,-14.87,0.72,0.85,4.67,-5.20,
1.879,2.40,-21.55,4.25,0.85,4.67,-5.20,
1.88,2.40,-21.55,4.25,0.90,4.02,-5.32,
1.88,2.40,-21.55,4.25,0.88,3.36,-5.41,
1.88,2.40,-21.55,4.25,0.97,3.60,-5.45,
1.881,2.40,-21.55,4.25,0.93,3.75,-5.44,
1.881,2.40,-21.55,4.25,0.87,3.96,-5.40,
1.882,0.28,-19.31,1.28,0.87,3.96,-5.40,
1.882,0.28,-19.31,1.28,0.95,3.77,-5.34,
1.883,0.28,-19.31,1.28,0.96,3.23,-5.25,
1.883,0.28,-19.31,1.28,1.27,2.95,-5.28,
1.883,0.28,-19.31,1.28,1.49,2.75,-5.13,
1.884,0.28,-19.31,1.28,1.03,3.31,-4.86,
1.884,-4.38,1.32,4.56,1.03,3.31,-4.86,
1.884,-4.38,1.32,4.56,-0.02,3.01,-4.58,
1.885,-4.38,1.32,4.56,-0.38,1.46,-4.39,
1.887,-4.38,1.32,4.56,-0.40,1.76,-4.17,
1.888,-4.38,1.32,4.56,-0.44,1.85,-4.10,
1.893,-4.38,1.32,4.56,-0.44,1.55,-3.95,
1.894,-2.86,-8.63,1.59,-0.44,1.55,-3.95,
1.894,-2.86,-8.63,1.59,-0.51,1.34,-3.81,
1.894,-2.86,-8.63,1.59,-0.64,1.34,-3.66,
1.897,-2.86,-8.63,1.59,-0.74,1.16,-3.51,
1.898,-2.86,-8.63,1.59,-0.83,1.00,-3.35,
1.9,-2.86,-8.63,1.59,-0.88,0.90,-3.20,
1.902,-3.47,-4.00,1.17,-0.88,0.90,-3.20,
1.902,-3.47,-4.00,1.17,-0.94,0.80,-3.05,
1.905,-3.47,-4.00,1.17,-0.99,0.66,-2.90,
1.917,-3.47,-4.00,1.17,-1.04,0.52,-2.74,
1.918,-3.47,-4.00,1.17,-1.08,0.40,-2.59,
1.918,-3.47,-4.00,1.17,-1.10,0.30,-2.45,
1.918,-3.99,0.57,2.67,-1.10,0.30,-2.45,
1.919,-3.99,0.57,2.67,-1.11,0.16,-2.30,
1.919,-3.99,0.57,2.67,-1.14,0.06,-2.17,
1.919,-3.99,0.57,2.67,-1.15,-0.07,-2.03,
1.919,-3.99,0.57,2.67,-1.16,-0.15,-1.90,
1.919,-3.99,0.57,2.67,-1.16,-0.26,-1.77,
1.922,-3.71,3.83,3.48,-1.16,-0.26,-1.77,
1.922,-3.71,3.83,3.48,-1.16,-0.33,-1.64,
1.926,-3.71,3.83,3.48,-1.15,-0.40,-1.52,
1.927,-3.71,3.83,3.48,-1.15,-0.47,-1.35,
1.928,-3.71,3.83,3.48,-1.15,-0.50,-1.29,
1.93,-3.71,3.83,3.48,-1.14,-0.54,-1.18,
1.932,-3.26,5.38,3.43,-1.14,-0.54,-1.18,
1.932,-3.26,5.38,3.43,-1.14,-0.55,-1.06,
1.934,-3.26,5.38,3.43,-1.13,-0.58,-0.93,
1.938,-3.26,5.38,3.43,-1.13,-0.58,-0.79,
1.938,-3.26,5.38,3.43,-1.11,-0.61,-0.66,
1.947,-3.26,5.38,3.43,-1.11,-0.61,-0.53,
1.948,-2.29,4.78,2.89,-1.11,-0.61,-0.53,
1.949,-2.29,4.78,2.89,-1.09,-0.64,-0.42,
1.949,-2.29,4.78,2.89,-1.08,-0.64,-0.30,
1.949,-2.29,4.78,2.89,-1.07,-0.67,-0.18,
1.95,-2.29,4.78,2.89,-1.07,-0.67,-0.08,
1.95,-2.29,4.78,2.89,-1.06,-0.68,0.03,
1.951,-0.55,3.75,2.38,-1.06,-0.68,0.03,
1.952,-0.55,3.75,2.38,-1.05,-0.67,0.13,
1.954,-0.55,3.75,2.38,-1.05,-0.66,0.23,
1.988,-0.55,3.75,2.38,-1.04,-0.63,0.33,
1.989,-0.55,3.75,2.38,-1.04,-0.60,0.41,
1.989,-0.55,3.75,2.38,-1.03,-0.56,0.48,
1.99,-0.01,3.65,1.76,-1.03,-0.56,0.48,
1.99,-0.01,3.65,1.76,-1.03,-0.51,0.54,
1.99,-0.01,3.65,1.76,-1.02,-0.46,0.60,
1.99,-0.01,3.65,1.76,-1.02,-0.39,0.65,
1.99,-0.01,3.65,1.76,-1.01,-0.34,0.70,
1.99,-0.01,3.65,1.76,-1.01,-0.26,0.73,
1.991,0.60,3.60,1.36,-1.01,-0.26,0.73,
1.991,0.60,3.60,1.36,-1.00,-0.19,0.76,
1.991,0.60,3.60,1.36,-0.99,-0.10,0.79,
1.991,0.60,3.60,1.36,-0.97,-0.02,0.81,
1.991,0.60,3.60,1.36,-0.94,0.07,0.82,
1.992,0.60,3.60,1.36,-0.91,0.15,0.83,
1.992,0.89,3.36,1.23,-0.91,0.15,0.83,
1.992,0.89,3.36,1.23,-0.88,0.25,0.83,
1.992,0.89,3.36,1.23,-0.84,0.33,0.82,
1.992,0.89,3.36,1.23,-0.80,0.42,0.82,
1.993,0.89,3.36,1.23,-0.75,0.51,0.81,
1.993,0.89,3.36,1.23,-0.70,0.59,0.79,
1.993,0.98,3.05,1.23,-0.70,0.59,0.79,
1.993,0.98,3.05,1.23,-0.65,0.67,0.78,
1.996,0.98,3.05,1.23,-0.59,0.74,0.76,
1.999,0.98,3.05,1.23,-0.46,0.87,0.73,
2.034,0.98,3.05,1.23,-0.46,0.87,0.73,
2.035,0.98,3.05,1.23,-0.39,0.94,0.72,
2.035,0.72,2.77,1.15,-0.39,0.94,0.72,
2.036,0.72,2.77,1.15,-0.32,0.99,0.70,
2.036,0.72,2.77,1.15,-0.25,1.04,0.69,
2.038,0.72,2.77,1.15,-0.17,1.08,0.68,
2.039,0.72,2.77,1.15,-0.10,1.12,0.68,
2.04,0.72,2.77,1.15,-0.02,1.14,0.67,
2.04,0.22,2.65,0.83,-0.02,1.14,0.67,
2.041,0.22,2.65,0.83,0.06,1.16,0.67,
2.042,0.22,2.65,0.83,0.14,1.18,0.68,
2.043,0.22,2.65,0.83,0.22,1.18,0.69,
2.043,0.22,2.65,0.83,0.30,1.18,0.70,
2.044,0.22,2.65,0.83,0.39,1.16,0.71,
2.045,-0.48,2.57,0.16,0.39,1.16,0.71,
2.047,-0.48,2.57,0.16,0.47,1.13,0.72,
2.048,-0.48,2.57,0.16,0.55,1.10,0.74,
2.048,-0.48,2.57,0.16,0.62,1.06,0.75,
2.048,-0.48,2.57,0.16,0.70,1.00,0.76,
2.049,-0.48,2.57,0.16,0.77,0.94,0.77,
2.049,-1.04,2.49,-0.82,0.77,0.94,0.77,
2.049,-1.04,2.49,-0.82,0.85,0.86,0.79,
2.05,-1.04,2.49,-0.82,0.92,0.78,0.80,
2.05,-1.04,2.49,-0.82,0.99,0.68,0.82,
2.05,-1.04,2.49,-0.82,1.06,0.58,0.84,
2.051,-1.04,2.49,-0.82,1.13,0.46,0.85,
2.051,-1.41,2.39,-1.71,1.13,0.46,0.85,
2.051,-1.41,2.39,-1.71,1.19,0.34,0.87,
2.051,-1.41,2.39,-1.71,1.26,0.21,0.89,
2.052,-1.41,2.39,-1.71,1.32,0.07,0.90,
2.052,-1.41,2.39,-1.71,1.39,-0.07,0.92,
2.052,-1.41,2.39,-1.71,1.45,-0.22,0.95,
2.057,-1.58,2.39,-2.69,1.45,-0.22,0.95,
2.058,-1.58,2.39,-2.69,1.51,-0.36,0.97,
2.058,-1.58,2.39,-2.69,1.57,-0.51,1.00,
2.058,-1.58,2.39,-2.69,1.63,-0.65,1.02,
2.059,-1.58,2.39,-2.69,1.69,-0.78,1.04,
2.065,-1.58,2.39,-2.69,1.74,-0.90,1.06,
2.065,-1.36,2.21,-3.75,1.74,-0.90,1.06,
2.066,-1.36,2.21,-3.75,1.78,-1.02,1.07,
2.066,-1.36,2.21,-3.75,1.82,-1.11,1.07,
2.07,-1.36,2.21,-3.75,1.86,-1.21,1.08,
2.07,-1.36,2.21,-3.75,1.88,-1.29,1.07,
2.07,-1.36,2.21,-3.75,1.90,-1.35,1.07,
2.074,-0.77,1.72,-5.51,1.90,-1.35,1.07,
2.074,-0.77,1.72,-5.51,1.92,-1.41,1.06,
2.075,-0.77,1.72,-5.51,1.92,-1.45,1.04,
2.08,-0.77,1.72,-5.51,1.91,-1.49,1.02,
2.081,-0.77,1.72,-5.51,1.91,-1.50,1.01,
2.082,-0.77,1.72,-5.51,1.90,-1.50,0.99,
2.084,0.02,1.07,-7.10,1.90,-1.50,0.99,
2.085,0.02,1.07,-7.10,1.87,-1.50,0.96,
2.086,0.02,1.07,-7.10,1.84,-1.49,0.94,
2.087,0.02,1.07,-7.10,1.78,-1.45,0.90,
2.088,0.02,1.07,-7.10,1.76,-1.43,0.89,
2.1,0.02,1.07,-7.10,1.71,-1.39,0.86,
2.101,0.77,0.42,-8.90,1.71,-1.39,0.86,
2.102,0.77,0.42,-8.90,1.65,-1.35,0.84,
2.103,0.77,0.42,-8.90,1.58,-1.31,0.81,
2.103,0.77,0.42,-8.90,1.47,-1.23,0.77,
2.104,0.77,0.42,-8.90,1.43,-1.20,0.76,
2.105,0.77,0.42,-8.90,1.34,-1.14,0.74,
2.106,1.60,-0.46,-10.22,1.34,-1.14,0.74,
2.107,1.60,-0.46,-10.22,1.25,-1.09,0.71,
2.108,1.60,-0.46,-10.22,1.16,-1.02,0.68,
2.134,1.60,-0.46,-10.22,1.02,-0.93,0.64,
2.134,1.60,-0.46,-10.22,0.97,-0.90,0.63,
2.135,1.60,-0.46,-10.22,0.88,-0.84,0.60,
2.135,2.63,-1.37,-10.83,0.88,-0.84,0.60,
2.135,2.63,-1.37,-10.83,0.78,-0.77,0.56,
2.135,2.63,-1.37,-10.83,0.68,-0.71,0.53,
2.136,2.63,-1.37,-10.83,0.53,-0.61,0.48,
2.136,2.63,-1.37,-10.83,0.48,-0.58,0.46,
2.136,2.63,-1.37,-10.83,0.38,-0.52,0.42,
2.136,3.69,-2.31,-10.33,0.38,-0.52,0.42,
2.137,3.69,-2.31,-10.33,0.28,-0.46,0.38,
2.137,3.69,-2.31,-10.33,0.18,-0.41,0.34,
2.137,3.69,-2.31,-10.33,0.03,-0.33,0.28,
2.137,3.69,-2.31,-10.33,-0.02,-0.31,0.25,
2.138,3.69,-2.31,-10.33,-0.12,-0.26,0.21,
2.138,4.64,-2.97,-9.43,-0.12,-0.26,0.21,
2.138,4.64,-2.97,-9.43,-0.21,-0.21,0.16,
2.138,4.64,-2.97,-9.43,-0.30,-0.17,0.11,
2.138,4.64,-2.97,-9.43,-0.42,-0.10,0.05,
2.139,4.64,-2.97,-9.43,-0.46,-0.08,0.03,
2.151,4.64,-2.97,-9.43,-0.53,-0.03,-0.01,
2.152,4.92,-3.34,-7.65,-0.53,-0.03,-0.01,
2.152,4.92,-3.34,-7.65,-0.60,0.02,-0.05,
2.153,4.92,-3.34,-7.65,-0.66,0.07,-0.09,
2.153,4.92,-3.34,-7.65,-0.73,0.15,-0.14,
2.153,4.92,-3.34,-7.65,-0.76,0.18,-0.15,
2.153,4.92,-3.34,-7.65,-0.80,0.24,-0.18,
2.153,4.74,-3.24,-5.61,-0.80,0.24,-0.18,
2.154,4.74,-3.24,-5.61,-0.83,0.31,-0.21,
2.154,4.74,-3.24,-5.61,-0.86,0.39,-0.23,
2.162,4.74,-3.24,-5.61,-0.89,0.51,-0.27,
2.164,4.74,-3.24,-5.61,-0.90,0.56,-0.28,
2.166,4.74,-3.24,-5.61,-0.92,0.65,-0.29,
2.166,3.89,-2.67,-3.63,-0.92,0.65,-0.29,
2.167,3.89,-2.67,-3.63,-0.93,0.75,-0.30,
2.206,3.89,-2.67,-3.63,-0.94,0.84,-0.31,
2.206,3.89,-2.67,-3.63,-0.96,0.99,-0.32,
2.207,3.89,-2.67,-3.63,-0.96,1.04,-0.32,
2.207,3.89,-2.67,-3.63,-0.96,1.13,-0.32,
2.207,2.64,-1.66,-2.12,-0.96,1.13,-0.32,
2.208,2.64,-1.66,-2.12,-0.97,1.22,-0.32,
2.208,2.64,-1.66,-2.12,-0.97,1.31,-0.32,
2.209,2.64,-1.66,-2.12,-0.96,1.43,-0.30,
2.209,2.64,-1.66,-2.12,-0.95,1.47,-0.30,
2.21,2.64,-1.66,-2.12,-0.94,1.54,-0.29,
2.21,1.44,-0.60,-0.43,-0.94,1.54,-0.29,
2.21,1.44,-0.60,-0.43,-0.93,1.61,-0.29,
2.211,1.44,-0.60,-0.43,-0.91,1.68,-0.28,
2.211,1.44,-0.60,-0.43,-0.87,1.76,-0.26,
2.211,1.44,-0.60,-0.43,-0.86,1.79,-0.26,
2.211,1.44,-0.60,-0.43,-0.83,1.83,-0.26,
2.212,0.78,0.06,1.33,-0.83,1.83,-0.26,
2.212,0.78,0.06,1.33,-0.80,1.87,-0.25,
2.212,0.78,0.06,1.33,-0.77,1.90,-0.26,
2.212,0.78,0.06,1.33,-0.73,1.92,-0.27,
2.213,0.78,0.06,1.33,-0.71,1.93,-0.28,
2.213,0.78,0.06,1.33,-0.67,1.93,-0.29,
2.213,1.20,-0.09,2.44,-0.67,1.93,-0.29,
2.213,1.20,-0.09,2.44,-0.63,1.93,-0.31,
2.214,1.20,-0.09,2.44,-0.59,1.91,-0.33,
2.214,1.20,-0.09,2.44,-0.52,1.89,-0.35,
2.214,1.20,-0.09,2.44,-0.50,1.88,-0.36,
2.214,1.20,-0.09,2.44,-0.45,1.87,-0.37,
2.215,1.62,-1.08,3.07,-0.45,1.87,-0.37,
2.215,1.62,-1.08,3.07,-0.39,1.85,-0.39,
2.215,1.62,-1.08,3.07,-0.33,1.84,-0.39,
2.22,1.62,-1.08,3.07,-0.23,1.83,-0.40,
2.221,1.62,-1.08,3.07,-0.19,1.82,-0.40,
2.221,1.62,-1.08,3.07,-0.12,1.81,-0.40,
2.222,1.45,-1.98,3.27,-0.12,1.81,-0.40,
2.222,1.45,-1.98,3.27,-0.04,1.80,-0.39,
2.224,1.45,-1.98,3.27,0.04,1.78,-0.39,
2.227,1.45,-1.98,3.27,0.17,1.75,-0.38,
2.228,1.45,-1.98,3.27,0.21,1.73,-0.37,
2.229,1.45,-1.98,3.27,0.30,1.68,-0.36,
2.231,0.94,-2.26,3.74,0.30,1.68,-0.36,
2.232,0.94,-2.26,3.74,0.39,1.63,-0.35,
2.234,0.94,-2.26,3.74,0.48,1.56,-0.34,
2.236,0.94,-2.26,3.74,0.62,1.41,-0.31,
2.239,0.94,-2.26,3.74,0.67,1.36,-0.30,
2.24,0.94,-2.26,3.74,0.76,1.23,-0.29,
2.244,0.37,-1.93,4.54,0.76,1.23,-0.29,
2.244,0.37,-1.93,4.54,0.86,1.09,-0.27,
2.245,0.37,-1.93,4.54,0.95,0.93,-0.26,
2.249,0.37,-1.93,4.54,1.09,0.65,-0.24,
2.249,0.37,-1.93,4.54,1.13,0.55,-0.23,
2.25,0.37,-1.93,4.54,1.22,0.33,-0.22,
2.251,0.30,-1.48,5.61,1.22,0.33,-0.22,
2.252,0.30,-1.48,5.61,1.30,0.11,-0.21,
2.262,0.30,-1.48,5.61,1.37,-0.13,-0.20,
2.263,0.30,-1.48,5.61,1.47,-0.50,-0.18,
2.263,0.30,-1.48,5.61,1.50,-0.63,-0.18,
2.263,0.30,-1.48,5.61,1.55,-0.88,-0.17,
2.263,0.13,-0.94,5.72,1.55,-0.88,-0.17,
2.263,0.13,-0.94,5.72,1.59,-1.14,-0.16,
2.264,0.13,-0.94,5.72,1.62,-1.40,-0.14,
2.272,0.13,-0.94,5.72,1.65,-1.78,-0.11,
2.272,0.13,-0.94,5.72,1.66,-1.91,-0.09,
2.273,0.13,-0.94,5.72,1.67,-2.14,-0.06,
2.273,-0.40,-0.09,5.30,1.67,-2.14,-0.06,
2.273,-0.40,-0.09,5.30,1.68,-2.36,-0.04,
2.291,-0.40,-0.09,5.30,1.68,-2.56,-0.00,
2.292,-0.40,-0.09,5.30,1.68,-2.83,0.05,
2.292,-0.40,-0.09,5.30,1.68,-2.92,0.06,
2.292,-0.40,-0.09,5.30,1.68,-3.07,0.10,
2.292,-1.01,1.06,4.58,1.68,-3.07,0.10,
2.293,-1.01,1.06,4.58,1.68,-3.20,0.13,
2.293,-1.01,1.06,4.58,1.68,-3.33,0.17,
2.293,-1.01,1.06,4.58,1.68,-3.49,0.22,
2.293,-1.01,1.06,4.58,1.68,-3.53,0.23,
2.294,-1.01,1.06,4.58,1.68,-3.62,0.27,
2.294,-1.36,2.03,4.37,1.68,-3.62,0.27,
2.294,-1.36,2.03,4.37,1.68,-3.69,0.30,
2.294,-1.36,2.03,4.37,1.69,-3.75,0.33,
2.303,-1.36,2.03,4.37,1.69,-3.81,0.38,
2.306,-1.36,2.03,4.37,1.69,-3.82,0.40,
2.306,-1.36,2.03,4.37,1.69,-3.85,0.43,
2.312,-1.58,2.61,3.79,1.69,-3.85,0.43,
2.312,-1.58,2.61,3.79,1.68,-3.85,0.46,
2.312,-1.58,2.61,3.79,1.68,-3.85,0.48,
2.312,-1.58,2.61,3.79,1.66,-3.82,0.51,
2.312,-1.58,2.61,3.79,1.66,-3.81,0.52,
2.313,-1.58,2.61,3.79,1.65,-3.76,0.53,
2.313,-1.18,2.78,3.15,1.65,-3.76,0.53,
2.313,-1.18,2.78,3.15,1.65,-3.71,0.54,
2.324,-1.18,2.78,3.15,1.65,-3.64,0.55,
2.325,-1.18,2.78,3.15,1.65,-3.53,0.56,
2.325,-1.18,2.78,3.15,1.66,-3.49,0.57,
2.326,-1.18,2.78,3.15,1.67,-3.41,0.57,
2.326,-0.58,2.44,3.28,1.67,-3.41,0.57,
2.326,-0.58,2.44,3.28,1.69,-3.32,0.57,
2.326,-0.58,2.44,3.28,1.71,-3.23,0.57,
2.342,-0.58,2.44,3.28,1.74,-3.06,0.57,
2.342,-0.58,2.44,3.28,1.75,-3.01,0.56,
2.343,-0.58,2.44,3.28,1.78,-2.89,0.56,
2.372,-0.15,1.85,3.57,1.78,-2.89,0.56,
2.372,-0.15,1.85,3.57,1.81,-2.78,0.56,
2.372,-0.15,1.85,3.57,1.84,-2.66,0.55,
2.372,-0.15,1.85,3.57,1.88,-2.49,0.53,
2.373,-0.15,1.85,3.57,1.89,-2.43,0.53,
2.373,-0.15,1.85,3.57,1.92,-2.32,0.52,
2.373,0.08,1.23,3.25,1.92,-2.32,0.52,
2.373,0.08,1.23,3.25,1.94,-2.21,0.51,
2.374,0.08,1.23,3.25,1.96,-2.11,0.50,
2.374,0.08,1.23,3.25,1.99,-1.97,0.49,
2.374,0.08,1.23,3.25,2.00,-1.93,0.49,
2.374,0.08,1.23,3.25,2.01,-1.84,0.48,
2.375,0.03,0.72,2.60,2.01,-1.84,0.48,
2.375,0.03,0.72,2.60,2.02,-1.74,0.47,
2.375,0.03,0.72,2.60,2.01,-1.63,0.46,
2.376,0.03,0.72,2.60,1.99,-1.47,0.46,
2.376,0.03,0.72,2.60,1.98,-1.42,0.46,
2.376,0.03,0.72,2.60,1.97,-1.31,0.46,
2.376,-0.61,-0.09,1.02,1.97,-1.31,0.46,
2.377,-0.61,-0.09,1.02,1.95,-1.22,0.46,
2.377,-0.61,-0.09,1.02,1.94,-1.13,0.47,
2.377,-0.61,-0.09,1.02,1.92,-1.02,0.49,
2.377,-0.61,-0.09,1.02,1.91,-0.99,0.50,
2.378,-0.61,-0.09,1.02,1.90,-0.94,0.52,
2.378,-1.25,-1.02,0.79,1.90,-0.94,0.52,
2.378,-1.25,-1.02,0.79,1.89,-0.90,0.55,
2.378,-1.25,-1.02,0.79,1.89,-0.86,0.58,
2.379,-1.25,-1.02,0.79,1.87,-0.82,0.62,
2.379,-1.25,-1.02,0.79,1.87,-0.81,0.64,
2.381,-1.25,-1.02,0.79,1.87,-0.80,0.67,
2.382,-1.73,-1.75,1.21,1.87,-0.80,0.67,
2.382,-1.73,-1.75,1.21,1.87,-0.79,0.71,
2.384,-1.73,-1.75,1.21,1.86,-0.79,0.74,
2.395,-1.73,-1.75,1.21,1.88,-0.80,0.80,
2.395,-1.73,-1.75,1.21,1.88,-0.80,0.82,
2.396,-1.73,-1.75,1.21,1.89,-0.81,0.86,
2.396,-2.19,-2.38,1.74,1.89,-0.81,0.86,
2.396,-2.19,-2.38,1.74,1.88,-0.82,0.91,
2.396,-2.19,-2.38,1.74,1.89,-0.83,0.95,
2.398,-2.19,-2.38,1.74,1.89,-0.86,1.03,
2.398,-2.19,-2.38,1.74,1.88,-0.87,1.05,
2.4,-2.19,-2.38,1.74,1.87,-0.89,1.11,
2.402,-2.75,-2.77,1.87,1.87,-0.89,1.11,
2.403,-2.75,-2.77,1.87,1.87,-0.92,1.17,
2.42,-2.75,-2.77,1.87,1.85,-0.94,1.22,
2.42,-2.75,-2.77,1.87,1.83,-0.97,1.31,
2.421,-2.75,-2.77,1.87,1.82,-0.98,1.34,
2.421,-2.75,-2.77,1.87,1.81,-1.01,1.40,
2.421,-3.35,-2.77,1.79,1.81,-1.01,1.40,
2.422,-3.35,-2.77,1.79,1.79,-1.03,1.46,
2.422,-3.35,-2.77,1.79,1.77,-1.05,1.51,
2.422,-3.35,-2.77,1.79,1.74,-1.08,1.59,
2.423,-3.35,-2.77,1.79,1.72,-1.09,1.62,
2.423,-3.35,-2.77,1.79,1.70,-1.10,1.67,
2.423,-3.46,-2.45,1.59,1.70,-1.10,1.67,
2.424,-3.46,-2.45,1.59,1.68,-1.12,1.72,
2.424,-3.46,-2.45,1.59,1.65,-1.13,1.76,
2.452,-3.46,-2.45,1.59,1.61,-1.13,1.81,
2.452,-3.46,-2.45,1.59,1.59,-1.13,1.83,
2.453,-3.46,-2.45,1.59,1.56,-1.12,1.87,
2.453,-3.40,-1.96,1.35,1.56,-1.12,1.87,
2.453,-3.40,-1.96,1.35,1.54,-1.10,1.90,
2.454,-3.40,-1.96,1.35,1.51,-1.07,1.93,
2.454,-3.40,-1.96,1.35,1.46,-1.00,1.98,
2.454,-3.40,-1.96,1.35,1.45,-0.97,1.99,
2.455,-3.40,-1.96,1.35,1.42,-0.91,2.01,
2.455,-3.19,-1.42,1.03,1.42,-0.91,2.01,
2.455,-3.19,-1.42,1.03,1.39,-0.84,2.04,
2.455,-3.19,-1.42,1.03,1.35,-0.77,2.06,
2.456,-3.19,-1.42,1.03,1.30,-0.64,2.08,
2.456,-3.19,-1.42,1.03,1.29,-0.60,2.09,
2.456,-3.19,-1.42,1.03,1.26,-0.51,2.10,
2.457,-3.01,-0.90,0.68,1.26,-0.51,2.10,
2.457,-3.01,-0.90,0.68,1.22,-0.43,2.11,
2.457,-3.01,-0.90,0.68,1.19,-0.34,2.12,
2.458,-3.01,-0.90,0.68,1.14,-0.22,2.13,
2.463,-3.01,-0.90,0.68,1.13,-0.17,2.13,
2.463,-3.01,-0.90,0.68,1.09,-0.09,2.13,
2.463,-2.60,-0.25,0.25,1.09,-0.09,2.13,
2.464,-2.60,-0.25,0.25,1.06,-0.01,2.12,
2.465,-2.60,-0.25,0.25,1.03,0.07,2.12,
2.469,-2.60,-0.25,0.25,0.97,0.18,2.10,
2.47,-2.60,-0.25,0.25,0.95,0.22,2.09,
2.471,-2.60,-0.25,0.25,0.91,0.28,2.08,
2.472,-2.51,0.52,-0.67,0.91,0.28,2.08,
2.472,-2.51,0.52,-0.67,0.87,0.34,2.06,
2.474,-2.51,0.52,-0.67,0.84,0.38,2.04,
2.477,-2.51,0.52,-0.67,0.79,0.42,1.99,
2.479,-2.51,0.52,-0.67,0.78,0.42,1.97,
2.48,-2.51,0.52,-0.67,0.78,0.41,1.92,
2.483,-2.39,1.38,-1.69,0.78,0.41,1.92,
2.484,-2.39,1.38,-1.69,0.78,0.38,1.87,
2.485,-2.39,1.38,-1.69,0.80,0.35,1.80,
2.488,-2.39,1.38,-1.69,0.86,0.26,1.69,
2.488,-2.39,1.38,-1.69,0.88,0.22,1.65,
2.49,-2.39,1.38,-1.69,0.93,0.14,1.57,
2.492,-2.06,1.89,-1.86,0.93,0.14,1.57,
2.492,-2.06,1.89,-1.86,1.00,0.06,1.48,
2.496,-2.06,1.89,-1.86,1.08,-0.03,1.38,
2.498,-2.06,1.89,-1.86,1.20,-0.16,1.23,
2.524,-2.06,1.89,-1.86,1.25,-0.21,1.18,
2.525,-2.06,1.89,-1.86,1.34,-0.30,1.09,
2.525,-1.32,1.86,-1.64,1.34,-0.30,1.09,
2.526,-1.32,1.86,-1.64,1.43,-0.39,1.00,
2.526,-1.32,1.86,-1.64,1.52,-0.48,0.92,
2.527,-1.32,1.86,-1.64,1.65,-0.62,0.81,
2.527,-1.32,1.86,-1.64,1.69,-0.67,0.78,
2.527,-1.32,1.86,-1.64,1.76,-0.76,0.74,
2.528,-1.27,1.26,-1.94,1.76,-0.76,0.74,
2.528,-1.27,1.26,-1.94,1.82,-0.85,0.69,
2.529,-1.27,1.26,-1.94,1.88,-0.94,0.66,
2.529,-1.27,1.26,-1.94,1.95,-1.08,0.62,
2.53,-1.27,1.26,-1.94,1.96,-1.12,0.61,
2.53,-1.27,1.26,-1.94,1.99,-1.20,0.60,
2.53,-1.24,0.53,-2.48,1.99,-1.20,0.60,
2.53,-1.24,0.53,-2.48,2.02,-1.28,0.58,
2.531,-1.24,0.53,-2.48,2.03,-1.35,0.57,
2.531,-1.24,0.53,-2.48,2.03,-1.45,0.56,
2.531,-1.24,0.53,-2.48,2.03,-1.48,0.56,
2.532,-1.24,0.53,-2.48,2.02,-1.54,0.55,
2.532,-1.11,-0.12,-3.07,2.02,-1.54,0.55,
2.532,-1.11,-0.12,-3.07,1.99,-1.60,0.55,
2.541,-1.11,-0.12,-3.07,1.97,-1.65,0.54,
2.542,-1.11,-0.12,-3.07,1.91,-1.73,0.54,
2.542,-1.11,-0.12,-3.07,1.89,-1.75,0.53,
2.543,-1.11,-0.12,-3.07,1.84,-1.79,0.53,
2.543,-0.88,-0.65,-3.37,1.84,-1.79,0.53,
2.543,-0.88,-0.65,-3.37,1.78,-1.84,0.52,
2.544,-0.88,-0.65,-3.37,1.72,-1.88,0.51,
2.547,-0.88,-0.65,-3.37,1.63,-1.92,0.49,
2.548,-0.88,-0.65,-3.37,1.59,-1.94,0.49,
2.55,-0.88,-0.65,-3.37,1.52,-1.97,0.47,
2.553,-0.61,-1.01,-3.55,1.52,-1.97,0.47,
2.553,-0.61,-1.01,-3.55,1.45,-2.00,0.46,
2.573,-0.61,-1.01,-3.55,1.38,-2.03,0.45,
2.573,-0.61,-1.01,-3.55,1.27,-2.08,0.44,
2.573,-0.61,-1.01,-3.55,1.23,-2.09,0.43,
2.574,-0.61,-1.01,-3.55,1.16,-2.12,0.42,
2.574,-0.23,-0.71,-3.19,1.16,-2.12,0.42,
2.574,-0.23,-0.71,-3.19,1.08,-2.14,0.41,
2.574,-0.23,-0.71,-3.19,1.02,-2.15,0.41,
2.574,-0.23,-0.71,-3.19,0.93,-2.14,0.39,
2.575,-0.23,-0.71,-3.19,0.90,-2.13,0.39,
2.575,-0.23,-0.71,-3.19,0.85,-2.11,0.37,
2.575,-0.07,-0.02,-2.83,0.85,-2.11,0.37,
2.575,-0.07,-0.02,-2.83,0.80,-2.08,0.36,
2.575,-0.07,-0.02,-2.83,0.76,-2.04,0.35,
2.578,-0.07,-0.02,-2.83,0.71,-1.99,0.33,
2.578,-0.07,-0.02,-2.83,0.69,-1.97,0.32,
2.58,-0.07,-0.02,-2.83,0.67,-1.93,0.30,
2.582,0.10,0.61,-2.10,0.67,-1.93,0.30,
2.583,0.10,0.61,-2.10,0.65,-1.89,0.28,
2.585,0.10,0.61,-2.10,0.64,-1.85,0.26,
2.591,0.10,0.61,-2.10,0.63,-1.76,0.23,
2.592,0.10,0.61,-2.10,0.63,-1.72,0.22,
2.592,0.10,0.61,-2.10,0.64,-1.66,0.19,
2.592,0.29,1.04,-1.44,0.64,-1.66,0.19,
2.592,0.29,1.04,-1.44,0.65,-1.61,0.17,
2.594,0.29,1.04,-1.44,0.66,-1.55,0.14,
2.597,0.29,1.04,-1.44,0.68,-1.45,0.11,
2.598,0.29,1.04,-1.44,0.70,-1.41,0.10,
2.6,0.29,1.04,-1.44,0.72,-1.34,0.07,
2.602,0.30,1.27,-0.83,0.72,-1.34,0.07,
2.603,0.30,1.27,-0.83,0.75,-1.26,0.05,
2.605,0.30,1.27,-0.83,0.79,-1.18,0.03,
2.609,0.30,1.27,-0.83,0.84,-1.05,0.01,
2.61,0.30,1.27,-0.83,0.86,-1.01,-0.00,
2.61,0.30,1.27,-0.83,0.91,-0.92,-0.02,
2.613,0.16,1.30,-0.44,0.91,-0.92,-0.02,
2.614,0.16,1.30,-0.44,0.95,-0.83,-0.02,
2.614,0.16,1.30,-0.44,1.00,-0.73,-0.03,
2.618,0.16,1.30,-0.44,1.08,-0.58,-0.04,
2.618,0.16,1.30,-0.44,1.11,-0.53,-0.04,
2.621,0.16,1.30,-0.44,1.17,-0.44,-0.05,
2.622,-0.06,1.05,-0.21,1.17,-0.44,-0.05,
2.622,-0.06,1.05,-0.21,1.22,-0.34,-0.05,
2.624,-0.06,1.05,-0.21,1.29,-0.25,-0.05,
2.627,-0.06,1.05,-0.21,1.39,-0.11,-0.04,
2.628,-0.06,1.05,-0.21,1.43,-0.06,-0.04,
2.63,-0.06,1.05,-0.21,1.50,0.02,-0.03,
2.632,-0.11,0.51,-0.08,1.50,0.02,-0.03,
2.633,-0.11,0.51,-0.08,1.58,0.10,-0.03,
2.634,-0.11,0.51,-0.08,1.66,0.18,-0.03,
2.651,-0.11,0.51,-0.08,1.79,0.31,-0.02,
2.654,-0.11,0.51,-0.08,1.84,0.35,-0.01,
2.654,-0.11,0.51,-0.08,1.94,0.43,-0.00,
2.654,-0.05,-0.32,-0.19,1.94,0.43,-0.00,
2.654,-0.05,-0.32,-0.19,2.04,0.52,0.01,
2.655,-0.05,-0.32,-0.19,2.15,0.60,0.02,
2.655,-0.05,-0.32,-0.19,2.31,0.72,0.05,
2.655,-0.05,-0.32,-0.19,2.36,0.76,0.05,
2.655,-0.05,-0.32,-0.19,2.47,0.83,0.07,
2.655,0.05,-1.38,-0.95,2.47,0.83,0.07,
2.656,0.05,-1.38,-0.95,2.58,0.88,0.08,
2.656,0.05,-1.38,-0.95,2.68,0.92,0.10,
2.657,0.05,-1.38,-0.95,2.82,0.96,0.12,
2.659,0.05,-1.38,-0.95,2.86,0.96,0.12,
2.66,0.05,-1.38,-0.95,2.94,0.97,0.13,
2.662,0.22,-2.60,-2.35,2.94,0.97,0.13,
2.662,0.22,-2.60,-2.35,3.02,0.95,0.13,
2.681,0.22,-2.60,-2.35,3.07,0.93,0.13,
2.682,0.22,-2.60,-2.35,3.14,0.89,0.12,
2.682,0.22,-2.60,-2.35,3.16,0.87,0.11,
2.682,0.22,-2.60,-2.35,3.18,0.83,0.10,
2.682,0.24,-3.57,-4.78,3.18,0.83,0.10,
2.683,0.24,-3.57,-4.78,3.19,0.77,0.08,
2.683,0.24,-3.57,-4.78,3.17,0.71,0.06,
2.683,0.24,-3.57,-4.78,3.12,0.59,0.02,
2.683,0.24,-3.57,-4.78,3.09,0.54,0.00,
2.684,0.24,-3.57,-4.78,3.03,0.45,-0.03,
2.684,-0.20,-4.04,-8.19,3.03,0.45,-0.03,
2.684,-0.20,-4.04,-8.19,2.93,0.35,-0.05,
2.684,-0.20,-4.04,-8.19,2.80,0.25,-0.09,
2.687,-0.20,-4.04,-8.19,2.53,0.10,-0.12,
2.688,-0.20,-4.04,-8.19,2.42,0.05,-0.13,
2.69,-0.20,-4.04,-8.19,2.18,-0.05,-0.15,
2.692,-1.54,-4.27,-14.16,2.18,-0.05,-0.15,
2.692,-1.54,-4.27,-14.16,1.92,-0.17,-0.16,
2.694,-1.54,-4.27,-14.16,1.64,-0.29,-0.18,
2.697,-1.54,-4.27,-14.16,1.22,-0.48,-0.19,
2.697,-1.54,-4.27,-14.16,1.08,-0.54,-0.20,
2.7,-1.54,-4.27,-14.16,0.79,-0.68,-0.20,
2.701,-2.67,-4.39,-15.79,0.79,-0.68,-0.20,
2.702,-2.67,-4.39,-15.79,0.52,-0.81,-0.22,
2.704,-2.67,-4.39,-15.79,0.25,-0.94,-0.23,
2.708,-2.67,-4.39,-15.79,-0.12,-1.12,-0.26,
2.708,-2.67,-4.39,-15.79,-0.23,-1.17,-0.27,
2.71,-2.67,-4.39,-15.79,-0.45,-1.27,-0.29,
2.712,-2.53,-4.74,-12.84,-0.45,-1.27,-0.29,
2.712,-2.53,-4.74,-12.84,-0.65,-1.36,-0.32,
2.713,-2.53,-4.74,-12.84,-0.84,-1.43,-0.34,
2.717,-2.53,-4.74,-12.84,-1.07,-1.50,-0.38,
2.718,-2.53,-4.74,-12.84,-1.14,-1.52,-0.39,
2.72,-2.53,-4.74,-12.84,-1.27,-1.54,-0.41,
2.726,-2.07,-4.55,-8.50,-1.27,-1.54,-0.41,
2.727,-2.07,-4.55,-8.50,-1.38,-1.54,-0.42,
2.727,-2.07,-4.55,-8.50,-1.47,-1.52,-0.43,
2.73,-2.07,-4.55,-8.50,-1.58,-1.45,-0.44,
2.73,-2.07,-4.55,-8.50,-1.61,-1.42,-0.44,
2.73,-2.07,-4.55,-8.50,-1.65,-1.36,-0.44,
2.732,-1.86,-4.16,-5.39,-1.65,-1.36,-0.44,
2.733,-1.86,-4.16,-5.39,-1.69,-1.28,-0.43,
2.734,-1.86,-4.16,-5.39,-1.71,-1.19,-0.41,
2.737,-1.86,-4.16,-5.39,-1.71,-1.05,-0.39,
2.739,-1.86,-4.16,-5.39,-1.71,-1.00,-0.38,
2.741,-1.86,-4.16,-5.39,-1.69,-0.90,-0.36,
2.742,-1.37,-3.97,-3.13,-1.69,-0.90,-0.36,
2.742,-1.37,-3.97,-3.13,-1.66,-0.81,-0.34,
2.746,-1.37,-3.97,-3.13,-1.63,-0.71,-0.31,
2.747,-1.37,-3.97,-3.13,-1.56,-0.56,-0.27,
2.748,-1.37,-3.97,-3.13,-1.53,-0.51,-0.26,
2.75,-1.37,-3.97,-3.13,-1.48,-0.41,-0.23,
2.753,-0.84,-3.97,-2.07,-1.48,-0.41,-0.23,
2.754,-0.84,-3.97,-2.07,-1.42,-0.31,-0.20,
2.754,-0.84,-3.97,-2.07,-1.34,-0.21,-0.16,
2.757,-0.84,-3.97,-2.07,-1.27,-0.06,-0.12,
2.758,-0.84,-3.97,-2.07,-1.24,-0.02,-0.11,
2.76,-0.84,-3.97,-2.07,-1.19,0.08,-0.09,
2.762,-0.14,-4.01,-2.07,-1.19,0.08,-0.09,
2.763,-0.14,-4.01,-2.07,-1.14,0.17,-0.07,
2.766,-0.14,-4.01,-2.07,-1.11,0.25,-0.06,
2.767,-0.14,-4.01,-2.07,-1.07,0.37,-0.05,
2.768,-0.14,-4.01,-2.07,-1.06,0.41,-0.05,
2.771,-0.14,-4.01,-2.07,-1.06,0.49,-0.05,
2.772,1.03,-4.04,-3.24,-1.06,0.49,-0.05,
2.777,1.03,-4.04,-3.24,-1.07,0.56,-0.06,
2.777,1.03,-4.04,-3.24,-1.09,0.64,-0.08,
2.777,1.03,-4.04,-3.24,-1.15,0.74,-0.11,
2.777,1.03,-4.04,-3.24,-1.17,0.78,-0.13,
2.78,1.03,-4.04,-3.24,-1.23,0.85,-0.16,
2.782,2.29,-4.00,-4.71,-1.23,0.85,-0.16,
2.782,2.29,-4.00,-4.71,-1.29,0.93,-0.20,
2.784,2.29,-4.00,-4.71,-1.38,1.01,-0.25,
2.79,2.29,-4.00,-4.71,-1.53,1.15,-0.32,
2.791,2.29,-4.00,-4.71,-1.59,1.21,-0.35,
2.792,2.29,-4.00,-4.71,-1.74,1.33,-0.42,
2.792,3.81,-3.55,-7.83,-1.74,1.33,-0.42,
2.793,3.81,-3.55,-7.83,-1.93,1.49,-0.49,
2.794,3.81,-3.55,-7.83,-2.16,1.66,-0.58,
2.798,3.81,-3.55,-7.83,-2.55,1.93,-0.72,
2.799,3.81,-3.55,-7.83,-2.70,2.03,-0.77,
2.8,3.81,-3.55,-7.83,-3.00,2.23,-0.88,
2.813,5.58,-2.24,-13.22,-3.00,2.23,-0.88,
2.815,5.58,-2.24,-13.22,-3.31,2.43,-0.99,
2.815,5.58,-2.24,-13.22,-3.62,2.62,-1.11,
2.815,5.58,-2.24,-13.22,-4.08,2.86,-1.27,
2.816,5.58,-2.24,-13.22,-4.22,2.93,-1.33,
2.816,5.58,-2.24,-13.22,-4.49,3.04,-1.44,
2.817,5.73,-1.91,-13.52,-4.49,3.04,-1.44,
2.817,5.73,-1.91,-13.52,-4.72,3.11,-1.55,
2.818,5.73,-1.91,-13.52,-4.91,3.15,-1.65,
2.819,5.73,-1.91,-13.52,-5.13,3.13,-1.79,
2.819,5.73,-1.91,-13.52,-5.18,3.11,-1.83,
2.83,5.73,-1.91,-13.52,-5.26,3.03,-1.91,
2.83,3.98,-2.94,-6.31,-5.26,3.03,-1.91,
2.83,3.98,-2.94,-6.31,-5.29,2.95,-1.97,
2.831,3.98,-2.94,-6.31,-5.28,2.90,-2.03,
2.831,3.98,-2.94,-6.31,-5.19,2.65,-2.09,
2.831,3.98,-2.94,-6.31,-5.16,2.54,-2.10,
2.831,3.98,-2.94,-6.31,-5.06,2.31,-2.12,
2.852,0.66,-4.12,2.46,-5.06,2.31,-2.12,
2.852,0.66,-4.12,2.46,-4.94,2.06,-2.11,
2.853,0.66,-4.12,2.46,-4.79,1.81,-2.09,
2.853,0.66,-4.12,2.46,-4.55,1.41,-2.03,
2.853,0.66,-4.12,2.46,-4.46,1.27,-2.01,
2.853,0.66,-4.12,2.46,-4.29,1.00,-1.95,
2.854,-3.23,-4.21,8.08,-4.29,1.00,-1.95,
2.854,-3.23,-4.21,8.08,-4.11,0.74,-1.87,
2.854,-3.23,-4.21,8.08,-3.93,0.49,-1.79,
2.854,-3.23,-4.21,8.08,-3.67,0.15,-1.64,
2.855,-3.23,-4.21,8.08,-3.59,0.04,-1.59,
2.855,-3.23,-4.21,8.08,-3.43,-0.17,-1.48,
2.855,-5.64,-3.82,9.64,-3.43,-0.17,-1.48,
2.855,-5.64,-3.82,9.64,-3.28,-0.36,-1.37,
2.855,-5.64,-3.82,9.64,-3.13,-0.54,-1.25,
2.857,-5.64,-3.82,9.64,-2.94,-0.79,-1.08,
2.858,-5.64,-3.82,9.64,-2.87,-0.87,-1.02,
2.86,-5.64,-3.82,9.64,-2.76,-1.01,-0.91,
2.862,-6.12,-4.63,8.41,-2.76,-1.01,-0.91,
2.862,-6.12,-4.63,8.41,-2.65,-1.14,-0.81,
2.864,-6.12,-4.63,8.41,-2.55,-1.26,-0.70,
2.866,-6.12,-4.63,8.41,-2.41,-1.42,-0.56,
2.868,-6.12,-4.63,8.41,-2.37,-1.46,-0.51,
2.871,-6.12,-4.63,8.41,-2.30,-1.55,-0.42,
2.872,-5.75,-5.76,6.93,-2.30,-1.55,-0.42,
2.874,-5.75,-5.76,6.93,-2.24,-1.61,-0.33,
2.875,-5.75,-5.76,6.93,-2.20,-1.67,-0.25,
2.877,-5.75,-5.76,6.93,-2.15,-1.74,-0.13,
2.878,-5.75,-5.76,6.93,-2.13,-1.76,-0.10,
2.88,-5.75,-5.76,6.93,-2.11,-1.78,-0.03,
2.883,-4.84,-6.74,5.29,-2.11,-1.78,-0.03,
2.883,-4.84,-6.74,5.29,-2.09,-1.79,0.04,
2.884,-4.84,-6.74,5.29,-2.08,-1.79,0.10,
2.887,-4.84,-6.74,5.29,-2.07,-1.76,0.18,
2.888,-4.84,-6.74,5.29,-2.07,-1.75,0.21,
2.891,-4.84,-6.74,5.29,-2.07,-1.72,0.26,
2.893,-4.21,-7.59,4.45,-2.07,-1.72,0.26,
2.893,-4.21,-7.59,4.45,-2.08,-1.67,0.32,
2.894,-4.21,-7.59,4.45,-2.08,-1.62,0.36,
2.897,-4.21,-7.59,4.45,-2.09,-1.53,0.42,
2.9,-4.21,-7.59,4.45,-2.09,-1.50,0.44,
2.9,-4.21,-7.59,4.45,-2.10,-1.42,0.47,
2.905,-3.26,-7.86,4.16,-2.10,-1.42,0.47,
2.905,-3.26,-7.86,4.16,-2.10,-1.34,0.49,
2.906,-3.26,-7.86,4.16,-2.10,-1.26,0.50,
2.909,-3.26,-7.86,4.16,-2.09,-1.15,0.50,
2.91,-3.26,-7.86,4.16,-2.09,-1.11,0.49,
2.91,-3.26,-7.86,4.16,-2.08,-1.05,0.48,
2.912,-1.86,-7.62,4.65,-2.08,-1.05,0.48,
2.912,-1.86,-7.62,4.65,-2.08,-1.00,0.46,
2.927,-1.86,-7.62,4.65,-2.06,-0.95,0.44,
2.927,-1.86,-7.62,4.65,-2.04,-0.91,0.39,
2.928,-1.86,-7.62,4.65,-2.03,-0.90,0.37,
2.928,-1.86,-7.62,4.65,-2.02,-0.89,0.33,
2.93,-0.59,-7.07,5.36,-2.02,-0.89,0.33,
2.93,-0.59,-7.07,5.36,-1.99,-0.88,0.29,
2.931,-0.59,-7.07,5.36,-1.96,-0.88,0.24,
2.931,-0.59,-7.07,5.36,-1.92,-0.91,0.16,
2.932,-0.59,-7.07,5.36,-1.91,-0.92,0.13,
2.932,-0.59,-7.07,5.36,-1.87,-0.94,0.08,
2.932,0.27,-6.27,6.21,-1.87,-0.94,0.08,
2.932,0.27,-6.27,6.21,-1.84,-0.96,0.02,
2.937,0.27,-6.27,6.21,-1.81,-0.98,-0.03,
2.938,0.27,-6.27,6.21,-1.75,-1.01,-0.10,
2.938,0.27,-6.27,6.21,-1.74,-1.01,-0.12,
2.94,0.27,-6.27,6.21,-1.70,-1.01,-0.17,
2.942,0.52,-4.78,6.40,-1.70,-1.01,-0.17,
2.944,0.52,-4.78,6.40,-1.67,-1.01,-0.22,
2.945,0.52,-4.78,6.40,-1.64,-1.00,-0.26,
2.951,0.52,-4.78,6.40,-1.59,-0.96,-0.33,
2.952,0.52,-4.78,6.40,-1.58,-0.95,-0.35,
2.952,0.52,-4.78,6.40,-1.55,-0.91,-0.39,
2.952,0.81,-2.91,6.15,-1.55,-0.91,-0.39,
2.952,0.81,-2.91,6.15,-1.52,-0.87,-0.43,
2.954,0.81,-2.91,6.15,-1.50,-0.81,-0.47,
2.957,0.81,-2.91,6.15,-1.46,-0.73,-0.53,
2.958,0.81,-2.91,6.15,-1.45,-0.69,-0.54,
2.96,0.81,-2.91,6.15,-1.44,-0.63,-0.57,
2.962,1.00,-1.13,5.26,-1.44,-0.63,-0.57,
2.963,1.00,-1.13,5.26,-1.42,-0.56,-0.61,
2.964,1.00,-1.13,5.26,-1.41,-0.49,-0.63,
2.969,1.00,-1.13,5.26,-1.44,-0.34,-0.68,
2.971,1.00,-1.13,5.26,-1.48,-0.27,-0.69,
2.972,1.00,-1.13,5.26,-1.60,-0.10,-0.72,
2.972,1.11,0.66,1.35,-1.60,-0.10,-0.72,
2.973,1.11,0.66,1.35,-1.76,0.08,-0.74,
2.98,1.11,0.66,1.35,-1.94,0.29,-0.77,
2.98,1.11,0.66,1.35,-2.23,0.63,-0.80,
2.981,1.11,0.66,1.35,-2.33,0.75,-0.81,
2.981,1.11,0.66,1.35,-2.53,0.98,-0.82,
2.982,0.89,2.03,-3.47,-2.53,0.98,-0.82,
2.982,0.89,2.03,-3.47,-2.72,1.19,-0.84,
2.985,0.89,2.03,-3.47,-2.90,1.40,-0.85,
2.986,0.89,2.03,-3.47,-3.12,1.69,-0.87,
2.99,0.89,2.03,-3.47,-3.19,1.78,-0.87,
2.99,0.89,2.03,-3.47,-3.31,1.95,-0.88,
2.992,0.48,2.54,-2.29,-3.31,1.95,-0.88,
2.992,0.48,2.54,-2.29,-3.42,2.11,-0.89,
2.995,0.48,2.54,-2.29,-3.50,2.25,-0.90,
3.0,0.48,2.54,-2.29,-3.63,2.51,-0.92,
3.02,0.48,2.54,-2.29,-3.63,2.51,-0.92,
3.02,0.48,2.54,-2.29,-3.68,2.63,-0.93,
3.02,0.04,2.84,0.67,-3.68,2.63,-0.93,
3.02,0.04,2.84,0.67,-3.71,2.74,-0.94,
3.021,0.04,2.84,0.67,-3.73,2.84,-0.95,
3.021,0.04,2.84,0.67,-3.73,2.99,-0.95,
3.021,0.04,2.84,0.67,-3.73,3.03,-0.96,
3.021,0.04,2.84,0.67,-3.72,3.12,-0.96,
3.022,-0.30,3.07,3.05,-3.72,3.12,-0.96,
3.022,-0.30,3.07,3.05,-3.71,3.21,-0.97,
3.022,-0.30,3.07,3.05,-3.68,3.28,-0.97,
3.023,-0.30,3.07,3.05,-3.62,3.37,-0.97,
3.023,-0.30,3.07,3.05,-3.60,3.40,-0.97,
3.023,-0.30,3.07,3.05,-3.56,3.44,-0.97,
3.023,-0.56,3.31,4.50,-3.56,3.44,-0.97,
3.024,-0.56,3.31,4.50,-3.51,3.48,-0.97,
3.024,-0.56,3.31,4.50,-3.45,3.50,-0.97,
3.028,-0.56,3.31,4.50,-3.37,3.51,-0.96,
3.029,-0.56,3.31,4.50,-3.34,3.51,-0.96,
3.03,-0.56,3.31,4.50,-3.28,3.50,-0.95,
3.032,-0.84,3.54,5.55,-3.28,3.50,-0.95,
3.032,-0.84,3.54,5.55,-3.22,3.48,-0.94,
3.041,-0.84,3.54,5.55,-3.15,3.44,-0.93,
3.041,-0.84,3.54,5.55,-3.06,3.36,-0.91,
3.042,-0.84,3.54,5.55,-3.02,3.33,-0.90,
3.042,-0.84,3.54,5.55,-2.96,3.25,-0.89,
3.044,-1.14,3.73,5.81,-2.96,3.25,-0.89,
3.044,-1.14,3.73,5.81,-2.89,3.17,-0.87,
3.044,-1.14,3.73,5.81,-2.82,3.08,-0.85,
3.049,-1.14,3.73,5.81,-2.72,2.94,-0.82,
3.049,-1.14,3.73,5.81,-2.68,2.89,-0.81,
3.057,-1.14,3.73,5.81,-2.61,2.79,-0.80,
3.058,-1.50,3.64,6.25,-2.61,2.79,-0.80,
3.058,-1.50,3.64,6.25,-2.53,2.68,-0.78,
3.058,-1.50,3.64,6.25,-2.46,2.56,-0.75,
3.059,-1.50,3.64,6.25,-2.34,2.38,-0.72,
3.059,-1.50,3.64,6.25,-2.30,2.32,-0.70,
3.06,-1.50,3.64,6.25,-2.22,2.18,-0.67,
3.064,-1.96,3.86,6.44,-2.22,2.18,-0.67,
3.064,-1.96,3.86,6.44,-2.13,2.05,-0.64,
3.065,-1.96,3.86,6.44,-2.05,1.91,-0.61,
3.068,-1.96,3.86,6.44,-1.91,1.70,-0.55,
3.068,-1.96,3.86,6.44,-1.86,1.63,-0.53,
3.071,-1.96,3.86,6.44,-1.76,1.50,-0.49,
3.074,-2.38,4.00,7.29,-1.76,1.50,-0.49,
3.074,-2.38,4.00,7.29,-1.62,1.30,-0.42,
3.075,-2.38,4.00,7.29,-1.57,1.24,-0.40,
3.077,-2.38,4.00,7.29,-1.41,1.05,-0.32,
3.078,-2.38,4.00,7.29,-1.36,0.99,-0.30,
3.08,-2.38,4.00,7.29,-1.26,0.88,-0.24,
3.081,-2.82,4.38,7.60,-1.26,0.88,-0.24,
3.082,-2.82,4.38,7.60,-1.15,0.78,-0.19,
3.084,-2.82,4.38,7.60,-1.05,0.69,-0.13,
3.087,-2.82,4.38,7.60,-0.90,0.57,-0.05,
3.088,-2.82,4.38,7.60,-0.85,0.54,-0.02,
3.09,-2.82,4.38,7.60,-0.75,0.48,0.04,
3.092,-3.19,4.68,7.83,-0.75,0.48,0.04,
3.092,-3.19,4.68,7.83,-0.66,0.43,0.10,
3.094,-3.19,4.68,7.83,-0.57,0.39,0.16,
3.097,-3.19,4.68,7.83,-0.43,0.35,0.26,
3.098,-3.19,4.68,7.83,-0.39,0.33,0.29,
3.1,-3.19,4.68,7.83,-0.30,0.31,0.35,
3.102,-3.36,5.15,7.44,-0.30,0.31,0.35,
3.102,-3.36,5.15,7.44,-0.22,0.30,0.41,
3.104,-3.36,5.15,7.44,-0.13,0.29,0.47,
3.107,-3.36,5.15,7.44,-0.01,0.29,0.56,
3.108,-3.36,5.15,7.44,0.03,0.29,0.59,
3.11,-3.36,5.15,7.44,0.11,0.29,0.65,
3.112,-3.54,5.48,7.37,0.11,0.29,0.65,
3.112,-3.54,5.48,7.37,0.19,0.30,0.70,
3.114,-3.54,5.48,7.37,0.27,0.31,0.76,
3.117,-3.54,5.48,7.37,0.38,0.33,0.83,
3.118,-3.54,5.48,7.37,0.42,0.33,0.85,
3.12,-3.54,5.48,7.37,0.50,0.33,0.90,
3.122,-3.46,5.78,7.04,0.50,0.33,0.90,
3.122,-3.46,5.78,7.04,0.58,0.33,0.94,
3.124,-3.46,5.78,7.04,0.65,0.33,0.99,
3.127,-3.46,5.78,7.04,0.78,0.32,1.04,
3.128,-3.46,5.78,7.04,0.81,0.32,1.06,
3.13,-3.46,5.78,7.04,0.89,0.30,1.10,
3.132,-3.26,5.89,7.22,0.89,0.30,1.10,
3.133,-3.26,5.89,7.22,0.97,0.28,1.13,
3.134,-3.26,5.89,7.22,1.06,0.26,1.16,
3.138,-3.26,5.89,7.22,1.17,0.23,1.21,
3.138,-3.26,5.89,7.22,1.21,0.21,1.22,
3.14,-3.26,5.89,7.22,1.29,0.19,1.24,
3.143,-2.90,6.06,6.70,1.29,0.19,1.24,
3.143,-2.90,6.06,6.70,1.36,0.16,1.27,
3.144,-2.90,6.06,6.70,1.44,0.14,1.29,
3.148,-2.90,6.06,6.70,1.55,0.10,1.32,
3.149,-2.90,6.06,6.70,1.59,0.09,1.33,
3.15,-2.90,6.06,6.70,1.66,0.06,1.34,
3.152,-2.54,6.05,6.39,1.66,0.06,1.34,
3.153,-2.54,6.05,6.39,1.73,0.04,1.36,
3.154,-2.54,6.05,6.39,1.80,0.02,1.37,
3.156,-2.54,6.05,6.39,1.90,-0.00,1.39,
3.159,-2.54,6.05,6.39,1.94,-0.01,1.40,
3.16,-2.54,6.05,6.39,2.01,-0.01,1.41,
3.162,-2.17,5.97,5.60,2.01,-0.01,1.41,
3.162,-2.17,5.97,5.60,2.07,-0.02,1.43,
3.197,-2.17,5.97,5.60,2.14,-0.02,1.44,
3.198,-2.17,5.97,5.60,2.24,-0.01,1.46,
3.199,-2.17,5.97,5.60,2.28,-0.01,1.46,
3.2,-2.17,5.97,5.60,2.35,0.00,1.47,
3.202,-1.72,5.59,5.17,2.35,0.00,1.47,
3.203,-1.72,5.59,5.17,2.41,0.01,1.48,
3.203,-1.72,5.59,5.17,2.48,0.02,1.49,
3.203,-1.72,5.59,5.17,2.58,0.05,1.50,
3.204,-1.72,5.59,5.17,2.61,0.05,1.51,
3.204,-1.72,5.59,5.17,2.68,0.07,1.51,
3.205,-1.25,4.89,4.40,2.68,0.07,1.51,
3.205,-1.25,4.89,4.40,2.75,0.09,1.52,
3.205,-1.25,4.89,4.40,2.82,0.11,1.53,
3.206,-1.25,4.89,4.40,2.93,0.14,1.53,
3.206,-1.25,4.89,4.40,2.97,0.15,1.54,
3.206,-1.25,4.89,4.40,3.05,0.17,1.54,
3.207,-0.75,3.80,3.92,3.05,0.17,1.54,
3.207,-0.75,3.80,3.92,3.12,0.18,1.54,
3.207,-0.75,3.80,3.92,3.20,0.19,1.55,
3.208,-0.75,3.80,3.92,3.31,0.19,1.55,
3.208,-0.75,3.80,3.92,3.34,0.19,1.56,
3.209,-0.75,3.80,3.92,3.39,0.17,1.56,
3.209,-0.49,2.33,2.36,3.39,0.17,1.56,
3.209,-0.49,2.33,2.36,3.42,0.14,1.58,
3.21,-0.49,2.33,2.36,3.43,0.10,1.59,
3.21,-0.49,2.33,2.36,3.35,0.00,1.62,
3.21,-0.49,2.33,2.36,3.30,-0.03,1.63,
3.211,-0.49,2.33,2.36,3.13,-0.11,1.66,
3.213,-0.83,0.03,-5.45,3.13,-0.11,1.66,
3.214,-0.83,0.03,-5.45,2.89,-0.20,1.68,
3.215,-0.83,0.03,-5.45,2.57,-0.30,1.71,
3.224,-0.83,0.03,-5.45,1.88,-0.46,1.73,
3.224,-0.83,0.03,-5.45,1.62,-0.51,1.74,
3.225,-0.83,0.03,-5.45,1.03,-0.61,1.75,
3.225,-0.30,-5.09,-23.99,1.03,-0.61,1.75,
3.226,-0.30,-5.09,-23.99,0.38,-0.72,1.75,
3.226,-0.30,-5.09,-23.99,-0.29,-0.79,1.74,
3.227,-0.30,-5.09,-23.99,-1.23,-0.68,1.66,
3.228,-0.30,-5.09,-23.99,-1.51,-0.59,1.63,
3.231,-0.30,-5.09,-23.99,-2.06,-0.41,1.52,
3.232,2.03,-13.95,-42.57,-2.06,-0.41,1.52,
3.232,2.03,-13.95,-42.57,-2.55,-0.09,1.37,
3.239,2.03,-13.95,-42.57,-2.94,0.33,1.16,
3.239,2.03,-13.95,-42.57,-3.30,0.93,0.79,
3.239,2.03,-13.95,-42.57,-3.34,1.10,0.65,
3.24,2.03,-13.95,-42.57,-3.30,1.39,0.40,
3.242,7.87,-17.56,-38.23,-3.30,1.39,0.40,
3.243,7.87,-17.56,-38.23,-3.14,1.58,0.17,
3.247,7.87,-17.56,-38.23,-2.89,1.71,-0.03,
3.247,7.87,-17.56,-38.23,-2.46,1.80,-0.29,
3.249,7.87,-17.56,-38.23,-2.30,1.82,-0.36,
3.274,7.87,-17.56,-38.23,-2.01,1.84,-0.49,
3.275,8.84,-10.26,-18.94,-2.01,1.84,-0.49,
3.275,8.84,-10.26,-18.94,-1.74,1.81,-0.61,
3.275,8.84,-10.26,-18.94,-1.51,1.78,-0.70,
3.275,8.84,-10.26,-18.94,-1.21,1.77,-0.80,
3.276,8.84,-10.26,-18.94,-1.13,1.77,-0.83,
3.276,8.84,-10.26,-18.94,-0.98,1.78,-0.89,
3.276,7.62,-8.76,-10.52,-0.98,1.78,-0.89,
3.276,7.62,-8.76,-10.52,-0.84,1.78,-0.93,
3.276,7.62,-8.76,-10.52,-0.73,1.77,-0.95,
3.277,7.62,-8.76,-10.52,-0.58,1.73,-0.96,
3.277,7.62,-8.76,-10.52,-0.53,1.71,-0.96,
3.277,7.62,-8.76,-10.52,-0.45,1.66,-0.95,
3.277,6.21,-5.61,-7.25,-0.45,1.66,-0.95,
3.277,6.21,-5.61,-7.25,-0.38,1.60,-0.93,
3.277,6.21,-5.61,-7.25,-0.31,1.55,-0.91,
3.278,6.21,-5.61,-7.25,-0.22,1.45,-0.86,
3.279,6.21,-5.61,-7.25,-0.19,1.42,-0.84,
3.283,6.21,-5.61,-7.25,-0.14,1.36,-0.81,
3.288,4.89,-2.34,-4.95,-0.14,1.36,-0.81,
3.289,4.89,-2.34,-4.95,-0.09,1.29,-0.76,
3.289,4.89,-2.34,-4.95,-0.04,1.22,-0.72,
3.289,4.89,-2.34,-4.95,0.02,1.11,-0.65,
3.289,4.89,-2.34,-4.95,0.04,1.07,-0.62,
3.29,4.89,-2.34,-4.95,0.08,0.99,-0.58,
3.292,3.74,0.67,-3.23,0.08,0.99,-0.58,
3.292,3.74,0.67,-3.23,0.12,0.92,-0.53,
3.294,3.74,0.67,-3.23,0.16,0.86,-0.49,
3.303,3.74,0.67,-3.23,0.21,0.78,-0.44,
3.303,3.74,0.67,-3.23,0.23,0.76,-0.42,
3.303,3.74,0.67,-3.23,0.27,0.72,-0.39,
3.303,3.50,2.99,-1.52,0.27,0.72,-0.39,
3.304,3.50,2.99,-1.52,0.30,0.70,-0.37,
3.304,3.50,2.99,-1.52,0.33,0.68,-0.35,
3.307,3.50,2.99,-1.52,0.35,0.66,-0.34,
3.308,3.50,2.99,-1.52,0.36,0.65,-0.34,
3.31,3.50,2.99,-1.52,0.36,0.64,-0.34,
3.311,4.53,4.09,-0.69,0.36,0.64,-0.34,
3.312,4.53,4.09,-0.69,0.36,0.63,-0.35,
3.314,4.53,4.09,-0.69,0.36,0.63,-0.37,
3.317,4.53,4.09,-0.69,0.35,0.66,-0.40,
3.318,4.53,4.09,-0.69,0.34,0.68,-0.40,
3.32,4.53,4.09,-0.69,0.34,0.72,-0.42,
3.322,5.33,3.50,-0.10,0.34,0.72,-0.42,
3.322,5.33,3.50,-0.10,0.34,0.79,-0.45,
3.326,5.33,3.50,-0.10,0.34,0.88,-0.47,
3.327,5.33,3.50,-0.10,0.35,1.03,-0.51,
3.328,5.33,3.50,-0.10,0.36,1.09,-0.52,
3.33,5.33,3.50,-0.10,0.38,1.20,-0.54,
3.36,5.78,2.10,1.04,0.38,1.20,-0.54,
3.361,5.78,2.10,1.04,0.39,1.31,-0.57,
3.361,5.78,2.10,1.04,0.42,1.40,-0.59,
3.362,5.78,2.10,1.04,0.47,1.48,-0.63,
3.363,5.78,2.10,1.04,0.49,1.49,-0.65,
3.363,5.78,2.10,1.04,0.53,1.47,-0.68,
3.364,5.35,0.54,3.20,0.53,1.47,-0.68,
3.364,5.35,0.54,3.20,0.58,1.41,-0.70,
3.365,5.35,0.54,3.20,0.64,1.29,-0.73,
3.366,5.35,0.54,3.20,0.73,1.04,-0.77,
3.366,5.35,0.54,3.20,0.76,0.93,-0.79,
3.367,5.35,0.54,3.20,0.82,0.67,-0.83,
3.368,4.80,-0.80,6.90,0.82,0.67,-0.83,
3.369,4.80,-0.80,6.90,0.87,0.39,-0.86,
3.369,4.80,-0.80,6.90,0.92,0.07,-0.90,
3.37,4.80,-0.80,6.90,0.98,-0.46,-0.96,
3.371,4.80,-0.80,6.90,1.00,-0.64,-0.98,
3.372,4.80,-0.80,6.90,1.02,-1.02,-1.02,
3.373,4.05,-1.96,8.83,1.02,-1.02,-1.02,
3.374,4.05,-1.96,8.83,1.05,-1.41,-1.06,
3.375,4.05,-1.96,8.83,1.07,-1.81,-1.10,
3.375,4.05,-1.96,8.83,1.09,-2.41,-1.17,
3.375,4.05,-1.96,8.83,1.10,-2.61,-1.19,
3.376,4.05,-1.96,8.83,1.11,-3.00,-1.23,
3.376,3.38,-2.39,9.26,1.11,-3.00,-1.23,
3.377,3.38,-2.39,9.26,1.12,-3.38,-1.26,
3.377,3.38,-2.39,9.26,1.12,-3.74,-1.29,
3.377,3.38,-2.39,9.26,1.13,-4.26,-1.31,
3.39,3.38,-2.39,9.26,1.13,-4.42,-1.32,
3.391,3.38,-2.39,9.26,1.13,-4.71,-1.31,
3.391,2.04,-2.14,8.39,1.13,-4.71,-1.31,
3.392,2.04,-2.14,8.39,1.14,-4.98,-1.30,
3.392,2.04,-2.14,8.39,1.15,-5.21,-1.27,
3.392,2.04,-2.14,8.39,1.17,-5.48,-1.22,
3.393,2.04,-2.14,8.39,1.18,-5.55,-1.20,
3.393,2.04,-2.14,8.39,1.21,-5.66,-1.16,
3.394,0.45,-1.33,7.73,1.21,-5.66,-1.16,
3.394,0.45,-1.33,7.73,1.24,-5.73,-1.11,
3.395,0.45,-1.33,7.73,1.28,-5.77,-1.06,
3.397,0.45,-1.33,7.73,1.34,-5.75,-0.99,
3.398,0.45,-1.33,7.73,1.37,-5.73,-0.97,
3.414,0.45,-1.33,7.73,1.42,-5.66,-0.92,
3.415,-0.12,-0.59,6.89,1.42,-5.66,-0.92,
3.416,-0.12,-0.59,6.89,1.49,-5.55,-0.87,
3.416,-0.12,-0.59,6.89,1.55,-5.42,-0.82,
3.416,-0.12,-0.59,6.89,1.67,-5.16,-0.73,
3.417,-0.12,-0.59,6.89,1.71,-5.06,-0.71,
3.417,-0.12,-0.59,6.89,1.80,-4.84,-0.65,
3.418,-0.60,-0.11,6.79,1.80,-4.84,-0.65,
3.418,-0.60,-0.11,6.79,1.90,-4.60,-0.59,
3.418,-0.60,-0.11,6.79,2.01,-4.34,-0.53,
3.419,-0.60,-0.11,6.79,2.17,-3.93,-0.43,
3.419,-0.60,-0.11,6.79,2.22,-3.80,-0.39,
3.423,-0.60,-0.11,6.79,2.34,-3.51,-0.32,
3.424,-1.55,0.52,6.53,2.34,-3.51,-0.32,
3.424,-1.55,0.52,6.53,2.51,-3.07,-0.21,
3.424,-1.55,0.52,6.53,2.57,-2.92,-0.17,
3.427,-1.55,0.52,6.53,2.75,-2.49,-0.05,
3.428,-1.55,0.52,6.53,2.81,-2.34,-0.01,
3.43,-1.55,0.52,6.53,2.94,-2.06,0.07,
3.433,-2.20,0.47,6.77,2.94,-2.06,0.07,
3.434,-2.20,0.47,6.77,3.07,-1.79,0.14,
3.434,-2.20,0.47,6.77,3.20,-1.52,0.21,
3.439,-2.20,0.47,6.77,3.40,-1.11,0.30,
3.44,-2.20,0.47,6.77,3.46,-0.98,0.33,
3.44,-2.20,0.47,6.77,3.59,-0.72,0.39,
3.443,-2.07,-0.16,6.92,3.59,-0.72,0.39,
3.443,-2.07,-0.16,6.92,3.71,-0.47,0.45,
3.443,-2.07,-0.16,6.92,3.82,-0.23,0.50,
3.449,-2.07,-0.16,6.92,3.98,0.13,0.58,
3.45,-2.07,-0.16,6.92,4.07,0.34,0.62,
3.45,-2.07,-0.16,6.92,4.11,0.44,0.64,
3.454,-2.35,-1.20,6.44,4.11,0.44,0.64,
3.454,-2.35,-1.20,6.44,4.19,0.63,0.68,
3.455,-2.35,-1.20,6.44,4.25,0.80,0.73,
3.459,-2.35,-1.20,6.44,4.31,1.00,0.80,
3.459,-2.35,-1.20,6.44,4.32,1.05,0.83,
3.46,-2.35,-1.20,6.44,4.33,1.14,0.88,
3.462,-2.81,-1.80,4.84,4.33,1.14,0.88,
3.463,-2.81,-1.80,4.84,4.32,1.21,0.93,
3.464,-2.81,-1.80,4.84,4.29,1.26,0.98,
3.471,-2.81,-1.80,4.84,4.22,1.30,1.04,
3.473,-2.81,-1.80,4.84,4.16,1.30,1.08,
3.474,-2.81,-1.80,4.84,4.11,1.30,1.10,
3.475,-3.01,-2.19,3.00,4.11,1.30,1.10,
3.475,-3.01,-2.19,3.00,4.02,1.28,1.15,
3.476,-3.01,-2.19,3.00,3.91,1.26,1.18,
3.477,-3.01,-2.19,3.00,3.72,1.19,1.24,
3.478,-3.01,-2.19,3.00,3.65,1.16,1.26,
3.48,-3.01,-2.19,3.00,3.50,1.09,1.29,
3.496,-3.09,-2.65,1.10,3.50,1.09,1.29,
3.498,-3.09,-2.65,1.10,3.34,1.02,1.32,
3.499,-3.09,-2.65,1.10,3.17,0.94,1.35,
3.5,-3.09,-2.65,1.10,2.90,0.81,1.39,
3.501,-3.09,-2.65,1.10,2.81,0.77,1.40,
3.502,-3.09,-2.65,1.10,2.62,0.69,1.43,
3.502,-3.40,-3.05,-0.47,2.62,0.69,1.43,
3.502,-3.40,-3.05,-0.47,2.43,0.62,1.45,
3.502,-3.40,-3.05,-0.47,2.24,0.55,1.47,
3.503,-3.40,-3.05,-0.47,1.95,0.46,1.50,
3.526,-3.40,-3.05,-0.47,1.77,0.41,1.53,
3.526,-3.40,-3.05,-0.47,1.68,0.39,1.54,
3.527,-3.92,-3.18,-1.39,1.68,0.39,1.54,
3.527,-3.92,-3.18,-1.39,1.51,0.36,1.57,
3.528,-3.92,-3.18,-1.39,1.34,0.34,1.61,
3.528,-3.92,-3.18,-1.39,1.09,0.31,1.67,
3.529,-3.92,-3.18,-1.39,1.02,0.31,1.69,
3.529,-3.92,-3.18,-1.39,0.88,0.31,1.74,
3.529,-5.12,-3.02,-1.74,0.88,0.31,1.74,
3.53,-5.12,-3.02,-1.74,0.75,0.31,1.79,
3.53,-5.12,-3.02,-1.74,0.63,0.32,1.83,
3.531,-5.12,-3.02,-1.74,0.47,0.35,1.89,
3.531,-5.12,-3.02,-1.74,0.42,0.36,1.91,
3.532,-5.12,-3.02,-1.74,0.32,0.38,1.94,
3.532,-5.29,-2.18,-1.60,0.32,0.38,1.94,
3.532,-5.29,-2.18,-1.60,0.24,0.41,1.97,
3.533,-5.29,-2.18,-1.60,0.15,0.44,1.99,
3.533,-5.29,-2.18,-1.60,0.04,0.49,2.02,
3.534,-5.29,-2.18,-1.60,0.00,0.50,2.03,
3.534,-5.29,-2.18,-1.60,-0.06,0.54,2.05,
3.534,-5.66,-1.86,-1.74,-0.06,0.54,2.05,
3.534,-5.66,-1.86,-1.74,-0.11,0.58,2.07,
3.534,-5.66,-1.86,-1.74,-0.16,0.61,2.09,
3.537,-5.66,-1.86,-1.74,-0.22,0.65,2.12,
3.538,-5.66,-1.86,-1.74,-0.24,0.67,2.12,
3.54,-5.66,-1.86,-1.74,-0.27,0.68,2.14,
3.543,-5.85,-1.26,-1.91,-0.27,0.68,2.14,
3.543,-5.85,-1.26,-1.91,-0.32,0.65,2.15,
3.544,-5.85,-1.26,-1.91,-0.41,0.46,2.15,
3.548,-5.85,-1.26,-1.91,-0.62,-0.27,2.11,
3.549,-5.85,-1.26,-1.91,-0.68,-0.89,2.06,
3.55,-5.85,-1.26,-1.91,-0.70,-1.22,2.02,
3.552,-5.55,1.36,-6.05,-0.70,-1.22,2.02,
3.552,-5.55,1.36,-6.05,-0.68,-1.87,1.96,
3.555,-5.55,1.36,-6.05,-0.61,-2.49,1.89,
3.559,-5.55,1.36,-6.05,-0.42,-3.33,1.77,
3.561,-5.55,1.36,-6.05,-0.35,-3.59,1.73,
3.562,-5.55,1.36,-6.05,-0.17,-4.05,1.65,
3.562,-5.59,2.37,-4.02,-0.17,-4.05,1.65,
3.563,-5.59,2.37,-4.02,0.03,-4.44,1.58,
3.564,-5.59,2.37,-4.02,0.25,-4.80,1.53,
3.568,-5.59,2.37,-4.02,0.60,-5.22,1.44,
3.568,-5.59,2.37,-4.02,0.72,-5.33,1.41,
3.57,-5.59,2.37,-4.02,0.96,-5.52,1.35,
3.572,-4.15,1.62,-2.44,0.96,-5.52,1.35,
3.572,-4.15,1.62,-2.44,1.20,-5.67,1.29,
3.574,-4.15,1.62,-2.44,1.43,-5.78,1.23,
3.577,-4.15,1.62,-2.44,1.75,-5.91,1.14,
3.578,-4.15,1.62,-2.44,1.94,-5.95,1.08,
3.58,-4.15,1.62,-2.44,2.04,-5.97,1.05,
3.582,-3.01,1.22,-3.17,2.04,-5.97,1.05,
3.582,-3.01,1.22,-3.17,2.22,-5.98,1.00,
3.584,-3.01,1.22,-3.17,2.38,-5.98,0.95,
3.587,-3.01,1.22,-3.17,2.59,-5.94,0.88,
3.588,-3.01,1.22,-3.17,2.66,-5.92,0.86,
3.59,-3.01,1.22,-3.17,2.77,-5.88,0.83,
3.592,-2.22,0.72,-5.09,2.77,-5.88,0.83,
3.592,-2.22,0.72,-5.09,2.87,-5.82,0.80,
3.594,-2.22,0.72,-5.09,2.95,-5.76,0.77,
3.597,-2.22,0.72,-5.09,3.03,-5.64,0.74,
3.602,-2.22,0.72,-5.09,3.06,-5.55,0.72,
3.603,-2.22,0.72,-5.09,3.07,-5.50,0.72,
3.603,-1.64,0.06,-7.02,3.07,-5.50,0.72,
3.603,-1.64,0.06,-7.02,3.08,-5.38,0.70,
3.604,-1.64,0.06,-7.02,3.07,-5.25,0.67,
3.607,-1.64,0.06,-7.02,3.02,-5.03,0.63,
3.608,-1.64,0.06,-7.02,2.99,-4.95,0.62,
3.612,-1.64,0.06,-7.02,2.93,-4.79,0.59,
3.613,-1.50,-0.64,-9.23,2.93,-4.79,0.59,
3.613,-1.50,-0.64,-9.23,2.86,-4.62,0.57,
3.614,-1.50,-0.64,-9.23,2.77,-4.43,0.55,
3.631,-1.50,-0.64,-9.23,2.61,-4.15,0.51,
3.632,-1.50,-0.64,-9.23,2.50,-3.95,0.49,
3.632,-1.50,-0.64,-9.23,2.44,-3.85,0.48,
3.633,-1.26,-0.99,-10.33,2.44,-3.85,0.48,
3.633,-1.26,-0.99,-10.33,2.31,-3.64,0.46,
3.633,-1.26,-0.99,-10.33,2.17,-3.43,0.44,
3.634,-1.26,-0.99,-10.33,1.96,-3.11,0.41,
3.634,-1.26,-0.99,-10.33,1.88,-3.00,0.40,
3.634,-1.26,-0.99,-10.33,1.74,-2.78,0.37,
3.635,-0.94,-1.29,-10.67,1.74,-2.78,0.37,
3.635,-0.94,-1.29,-10.67,1.59,-2.57,0.35,
3.635,-0.94,-1.29,-10.67,1.44,-2.35,0.33,
3.637,-0.94,-1.29,-10.67,1.21,-2.02,0.29,
3.638,-0.94,-1.29,-10.67,1.14,-1.91,0.27,
3.64,-0.94,-1.29,-10.67,1.00,-1.69,0.24,
3.642,-0.60,-1.20,-9.60,1.00,-1.69,0.24,
3.642,-0.60,-1.20,-9.60,0.86,-1.48,0.21,
3.644,-0.60,-1.20,-9.60,0.72,-1.27,0.17,
3.647,-0.60,-1.20,-9.60,0.54,-0.97,0.10,
3.649,-0.60,-1.20,-9.60,0.43,-0.78,0.05,
3.65,-0.60,-1.20,-9.60,0.38,-0.69,0.03,
3.654,-0.29,-1.12,-7.96,0.38,-0.69,0.03,
3.654,-0.29,-1.12,-7.96,0.28,-0.51,-0.02,
3.655,-0.29,-1.12,-7.96,0.20,-0.34,-0.06,
3.657,-0.29,-1.12,-7.96,0.09,-0.11,-0.13,
3.658,-0.29,-1.12,-7.96,0.06,-0.03,-0.15,
3.66,-0.29,-1.12,-7.96,0.01,0.11,-0.19,
3.662,-0.52,-0.81,-5.56,0.01,0.11,-0.19,
3.662,-0.52,-0.81,-5.56,-0.03,0.24,-0.23,
3.693,-0.52,-0.81,-5.56,-0.06,0.38,-0.26,
3.693,-0.52,-0.81,-5.56,-0.08,0.56,-0.31,
3.694,-0.52,-0.81,-5.56,-0.09,0.61,-0.32,
3.695,-0.52,-0.81,-5.56,-0.08,0.72,-0.35,
3.695,-1.19,-0.59,-3.40,-0.08,0.72,-0.35,
3.696,-1.19,-0.59,-3.40,-0.06,0.83,-0.38,
3.696,-1.19,-0.59,-3.40,-0.03,0.94,-0.40,
3.697,-1.19,-0.59,-3.40,0.04,1.07,-0.44,
3.698,-1.19,-0.59,-3.40,0.09,1.14,-0.47,
3.699,-1.19,-0.59,-3.40,0.12,1.17,-0.48,
3.7,-1.48,-0.12,-1.48,0.12,1.17,-0.48,
3.701,-1.48,-0.12,-1.48,0.18,1.24,-0.50,
3.702,-1.48,-0.12,-1.48,0.26,1.30,-0.52,
3.702,-1.48,-0.12,-1.48,0.39,1.38,-0.55,
3.703,-1.48,-0.12,-1.48,0.47,1.43,-0.56,
3.703,-1.48,-0.12,-1.48,0.52,1.45,-0.57,
3.704,-1.89,0.25,-0.25,0.52,1.45,-0.57,
3.704,-1.89,0.25,-0.25,0.62,1.48,-0.58,
3.704,-1.89,0.25,-0.25,0.72,1.51,-0.59,
3.705,-1.89,0.25,-0.25,0.88,1.53,-0.60,
3.705,-1.89,0.25,-0.25,0.98,1.53,-0.61,
3.706,-1.89,0.25,-0.25,1.03,1.53,-0.61,
3.706,-2.27,0.38,0.51,1.03,1.53,-0.61,
3.706,-2.27,0.38,0.51,1.14,1.52,-0.61,
3.707,-2.27,0.38,0.51,1.24,1.49,-0.61,
3.707,-2.27,0.38,0.51,1.39,1.43,-0.61,
3.708,-2.27,0.38,0.51,1.49,1.38,-0.61,
3.71,-2.27,0.38,0.51,1.54,1.35,-0.60,
3.712,-2.65,0.49,0.92,1.54,1.35,-0.60,
3.713,-2.65,0.49,0.92,1.63,1.29,-0.60,
3.721,-2.65,0.49,0.92,1.72,1.22,-0.59,
3.722,-2.65,0.49,0.92,1.85,1.11,-0.57,
3.722,-2.65,0.49,0.92,1.93,1.03,-0.55,
3.723,-2.65,0.49,0.92,1.97,1.00,-0.54,
3.723,-2.77,0.48,0.60,1.97,1.00,-0.54,
3.724,-2.77,0.48,0.60,2.04,0.92,-0.52,
3.724,-2.77,0.48,0.60,2.10,0.86,-0.50,
3.727,-2.77,0.48,0.60,2.19,0.77,-0.47,
3.728,-2.77,0.48,0.60,2.25,0.71,-0.44,
3.731,-2.77,0.48,0.60,2.27,0.68,-0.43,
3.733,-3.01,0.40,-0.58,2.27,0.68,-0.43,
3.733,-3.01,0.40,-0.58,2.32,0.62,-0.40,
3.734,-3.01,0.40,-0.58,2.36,0.57,-0.37,
3.737,-3.01,0.40,-0.58,2.42,0.48,-0.33,
3.738,-3.01,0.40,-0.58,2.46,0.42,-0.30,
3.74,-3.01,0.40,-0.58,2.47,0.39,-0.28,
3.742,-2.92,0.11,-2.18,2.47,0.39,-0.28,
3.743,-2.92,0.11,-2.18,2.49,0.33,-0.25,
3.744,-2.92,0.11,-2.18,2.52,0.25,-0.23,
3.762,-2.92,0.11,-2.18,2.54,0.14,-0.19,
3.763,-2.92,0.11,-2.18,2.54,0.06,-0.17,
3.764,-2.92,0.11,-2.18,2.54,0.01,-0.16,
3.765,-2.93,-0.67,-4.18,2.54,0.01,-0.16,
3.766,-2.93,-0.67,-4.18,2.54,-0.08,-0.14,
3.767,-2.93,-0.67,-4.18,2.52,-0.18,-0.12,
3.768,-2.93,-0.67,-4.18,2.48,-0.33,-0.10,
3.768,-2.93,-0.67,-4.18,2.44,-0.43,-0.09,
3.769,-2.93,-0.67,-4.18,2.41,-0.48,-0.08,
3.77,-2.98,-1.81,-6.23,2.41,-0.48,-0.08,
3.77,-2.98,-1.81,-6.23,2.35,-0.58,-0.06,
3.774,-2.98,-1.81,-6.23,2.28,-0.66,-0.05,
3.775,-2.98,-1.81,-6.23,2.16,-0.77,-0.03,
3.775,-2.98,-1.81,-6.23,2.06,-0.83,-0.02,
3.775,-2.98,-1.81,-6.23,2.01,-0.85,-0.01,
3.775,-3.02,-3.38,-8.48,2.01,-0.85,-0.01,
3.776,-3.02,-3.38,-8.48,1.84,-0.91,0.00,
3.776,-3.02,-3.38,-8.48,1.77,-0.92,0.01,
3.779,-3.02,-3.38,-8.48,1.57,-0.95,0.02,
3.78,-3.02,-3.38,-8.48,1.43,-0.95,0.03,
3.78,-3.02,-3.38,-8.48,1.36,-0.94,0.04,
3.801,-2.62,-4.65,-9.79,1.36,-0.94,0.04,
3.802,-2.62,-4.65,-9.79,1.21,-0.92,0.04,
3.802,-2.62,-4.65,-9.79,1.06,-0.90,0.05,
3.803,-2.62,-4.65,-9.79,0.83,-0.84,0.06,
3.803,-2.62,-4.65,-9.79,0.68,-0.80,0.07,
3.803,-2.62,-4.65,-9.79,0.61,-0.77,0.07,
3.804,-1.81,-5.52,-10.35,0.61,-0.77,0.07,
3.804,-1.81,-5.52,-10.35,0.47,-0.72,0.08,
3.804,-1.81,-5.52,-10.35,0.27,-0.62,0.08,
3.804,-1.81,-5.52,-10.35,0.15,-0.56,0.08,
3.805,-1.81,-5.52,-10.35,0.02,-0.48,0.08,
3.805,-1.81,-5.52,-10.35,-0.04,-0.44,0.08,
3.805,-0.82,-5.51,-9.51,-0.04,-0.44,0.08,
3.806,-0.82,-5.51,-9.51,-0.15,-0.36,0.07,
3.806,-0.82,-5.51,-9.51,-0.26,-0.28,0.06,
3.81,-0.82,-5.51,-9.51,-0.42,-0.15,0.04,
3.811,-0.82,-5.51,-9.51,-0.52,-0.07,0.02,
3.811,-0.82,-5.51,-9.51,-0.56,-0.03,0.01,
3.812,0.15,-4.80,-8.03,-0.56,-0.03,0.01,
3.812,0.15,-4.80,-8.03,-0.65,0.06,-0.01,
3.815,0.15,-4.80,-8.03,-0.73,0.14,-0.05,
3.82,0.15,-4.80,-8.03,-0.83,0.25,-0.10,
3.82,0.15,-4.80,-8.03,-0.89,0.33,-0.13,
3.82,0.15,-4.80,-8.03,-0.91,0.37,-0.15,
3.822,0.66,-3.67,-5.58,-0.91,0.37,-0.15,
3.824,0.66,-3.67,-5.58,-0.96,0.44,-0.19,
3.826,0.66,-3.67,-5.58,-0.99,0.51,-0.22,
3.829,0.66,-3.67,-5.58,-1.03,0.61,-0.26,
3.83,0.66,-3.67,-5.58,-1.04,0.68,-0.28,
3.838,0.66,-3.67,-5.58,-1.04,0.71,-0.29,
3.864,0.29,-2.90,-3.43,-1.04,0.71,-0.29,
3.865,0.29,-2.90,-3.43,-1.04,0.76,-0.31,
3.865,0.29,-2.90,-3.43,-1.03,0.80,-0.32,
3.866,0.29,-2.90,-3.43,-1.00,0.85,-0.32,
3.866,0.29,-2.90,-3.43,-0.97,0.87,-0.32,
3.867,0.29,-2.90,-3.43,-0.95,0.88,-0.31,
3.867,-0.53,-2.78,-1.92,-0.95,0.88,-0.31,
3.867,-0.53,-2.78,-1.92,-0.91,0.89,-0.30,
3.868,-0.53,-2.78,-1.92,-0.86,0.90,-0.29,
3.868,-0.53,-2.78,-1.92,-0.76,0.88,-0.25,
3.869,-0.53,-2.78,-1.92,-0.73,0.87,-0.24,
3.869,-0.53,-2.78,-1.92,-0.70,0.86,-0.23,
3.869,-1.09,-3.38,-1.46,-0.70,0.86,-0.23,
3.87,-1.09,-3.38,-1.46,-0.66,0.84,-0.20,
3.87,-1.09,-3.38,-1.46,-0.61,0.81,-0.18,
3.871,-1.09,-3.38,-1.46,-0.56,0.76,-0.14,
3.871,-1.09,-3.38,-1.46,-0.54,0.73,-0.12,
3.872,-1.09,-3.38,-1.46,-0.52,0.69,-0.10,
3.872,-1.07,-4.21,-2.33,-0.52,0.69,-0.10,
3.872,-1.07,-4.21,-2.33,-0.52,0.65,-0.08,
3.873,-1.07,-4.21,-2.33,-0.53,0.61,-0.06,
3.873,-1.07,-4.21,-2.33,-0.55,0.57,-0.04,
3.874,-1.07,-4.21,-2.33,-0.58,0.53,-0.03,
3.874,-1.07,-4.21,-2.33,-0.62,0.49,-0.02,
3.874,-0.75,-4.95,-4.67,-0.62,0.49,-0.02,
3.875,-0.75,-4.95,-4.67,-0.68,0.46,-0.01,
3.875,-0.75,-4.95,-4.67,-0.75,0.43,0.00,
3.878,-0.75,-4.95,-4.67,-0.83,0.42,0.01,
3.878,-0.75,-4.95,-4.67,-0.92,0.41,0.01,
3.881,-0.75,-4.95,-4.67,-1.03,0.42,0.02,
3.883,-0.56,-4.62,-7.82,-1.03,0.42,0.02,
3.883,-0.56,-4.62,-7.82,-1.16,0.43,0.02,
3.884,-0.56,-4.62,-7.82,-1.31,0.46,0.01,
3.887,-0.56,-4.62,-7.82,-1.49,0.52,0.01,
3.888,-0.56,-4.62,-7.82,-1.70,0.59,-0.01,
3.89,-0.56,-4.62,-7.82,-1.93,0.66,-0.02,
3.892,-0.37,-3.21,-13.12,-1.93,0.66,-0.02,
3.892,-0.37,-3.21,-13.12,-2.18,0.75,-0.04,
3.894,-0.37,-3.21,-13.12,-2.44,0.83,-0.06,
3.903,-0.37,-3.21,-13.12,-2.70,0.91,-0.08,
3.904,-0.37,-3.21,-13.12,-2.97,0.97,-0.10,
3.904,-0.37,-3.21,-13.12,-3.23,1.02,-0.13,
3.904,-0.36,-1.75,-14.81,-3.23,1.02,-0.13,
3.904,-0.36,-1.75,-14.81,-3.47,1.05,-0.15,
3.904,-0.36,-1.75,-14.81,-3.70,1.08,-0.18,
3.907,-0.36,-1.75,-14.81,-4.00,1.10,-0.23,
3.908,-0.36,-1.75,-14.81,-4.09,1.10,-0.25,
3.91,-0.36,-1.75,-14.81,-4.26,1.11,-0.28,
3.911,-0.35,-1.28,-11.09,-4.26,1.11,-0.28,
3.912,-0.35,-1.28,-11.09,-4.40,1.11,-0.32,
3.927,-0.35,-1.28,-11.09,-4.51,1.12,-0.36,
3.927,-0.35,-1.28,-11.09,-4.59,1.19,-0.39,
3.928,-0.35,-1.28,-11.09,-4.62,1.25,-0.42,
3.928,-0.35,-1.28,-11.09,-4.65,1.28,-0.45,
3.928,-0.70,-2.04,-4.63,-4.65,1.28,-0.45,
3.928,-0.70,-2.04,-4.63,-4.66,1.30,-0.47,
3.928,-0.70,-2.04,-4.63,-4.65,1.32,-0.47,
3.929,-0.70,-2.04,-4.63,-4.58,1.37,-0.46,
3.929,-0.70,-2.04,-4.63,-4.55,1.39,-0.46,
3.935,-0.70,-2.04,-4.63,-4.49,1.43,-0.45,
3.935,-2.01,-3.44,1.49,-4.49,1.43,-0.45,
3.935,-2.01,-3.44,1.49,-4.41,1.45,-0.43,
3.936,-2.01,-3.44,1.49,-4.32,1.48,-0.41,
3.937,-2.01,-3.44,1.49,-4.23,1.51,-0.39,
3.938,-2.01,-3.44,1.49,-4.13,1.53,-0.36,
3.94,-2.01,-3.44,1.49,-4.03,1.54,-0.32,
3.942,-3.39,-3.68,5.18,-4.03,1.54,-0.32,
3.942,-3.39,-3.68,5.18,-3.93,1.55,-0.28,
3.944,-3.39,-3.68,5.18,-3.83,1.54,-0.23,
3.947,-3.39,-3.68,5.18,-3.73,1.53,-0.18,
3.949,-3.39,-3.68,5.18,-3.63,1.51,-0.13,
3.95,-3.39,-3.68,5.18,-3.54,1.48,-0.07,
3.952,-4.23,-3.66,6.54,-3.54,1.48,-0.07,
3.953,-4.23,-3.66,6.54,-3.46,1.45,-0.02,
3.954,-4.23,-3.66,6.54,-3.37,1.42,0.03,
3.957,-4.23,-3.66,6.54,-3.23,1.38,0.10,
3.958,-4.23,-3.66,6.54,-3.19,1.37,0.13,
3.961,-4.23,-3.66,6.54,-3.11,1.34,0.17,
3.962,-3.90,-4.51,6.28,-3.11,1.34,0.17,
3.962,-3.90,-4.51,6.28,-3.02,1.31,0.22,
3.964,-3.90,-4.51,6.28,-2.94,1.28,0.26,
3.967,-3.90,-4.51,6.28,-2.86,1.25,0.29,
3.968,-3.90,-4.51,6.28,-2.79,1.21,0.32,
3.97,-3.90,-4.51,6.28,-2.72,1.18,0.34,
3.972,-2.96,-5.45,5.97,-2.72,1.18,0.34,
3.972,-2.96,-5.45,5.97,-2.66,1.14,0.36,
3.974,-2.96,-5.45,5.97,-2.60,1.11,0.37,
3.977,-2.96,-5.45,5.97,-2.55,1.07,0.38,
3.978,-2.96,-5.45,5.97,-2.50,1.04,0.39,
3.98,-2.96,-5.45,5.97,-2.45,1.01,0.39,
3.982,-1.84,-6.24,5.33,-2.45,1.01,0.39,
3.983,-1.84,-6.24,5.33,-2.41,0.97,0.39,
3.984,-1.84,-6.24,5.33,-2.37,0.94,0.38,
3.987,-1.84,-6.24,5.33,-2.34,0.91,0.37,
3.988,-1.84,-6.24,5.33,-2.31,0.88,0.35,
3.99,-1.84,-6.24,5.33,-2.28,0.85,0.33,
3.991,-0.83,-7.04,4.90,-2.28,0.85,0.33,
3.992,-0.83,-7.04,4.90,-2.26,0.83,0.31,
3.994,-0.83,-7.04,4.90,-2.24,0.82,0.29,
3.998,-0.83,-7.04,4.90,-2.22,0.80,0.23,
4.031,-0.83,-7.04,4.90,-2.22,0.80,0.23,
4.031,-0.83,-7.04,4.90,-2.21,0.79,0.20,
4.031,-0.01,-7.48,4.23,-2.21,0.79,0.20,
4.031,-0.01,-7.48,4.23,-2.21,0.78,0.17,
4.032,-0.01,-7.48,4.23,-2.21,0.77,0.13,
4.032,-0.01,-7.48,4.23,-2.21,0.76,0.09,
4.032,-0.01,-7.48,4.23,-2.21,0.75,0.04,
4.032,-0.01,-7.48,4.23,-2.21,0.74,-0.00,
4.033,0.80,-7.47,4.13,-2.21,0.74,-0.00,
4.033,0.80,-7.47,4.13,-2.21,0.71,-0.05,
4.033,0.80,-7.47,4.13,-2.20,0.69,-0.10,
4.034,0.80,-7.47,4.13,-2.20,0.67,-0.15,
4.034,0.80,-7.47,4.13,-2.19,0.64,-0.21,
4.034,0.80,-7.47,4.13,-2.18,0.61,-0.27,
4.034,1.47,-7.14,4.53,-2.18,0.61,-0.27,
4.035,1.47,-7.14,4.53,-2.17,0.58,-0.33,
4.035,1.47,-7.14,4.53,-2.15,0.54,-0.39,
4.035,1.47,-7.14,4.53,-2.13,0.51,-0.45,
4.035,1.47,-7.14,4.53,-2.11,0.48,-0.51,
4.036,1.47,-7.14,4.53,-2.08,0.44,-0.57,
4.036,2.10,-6.51,5.24,-2.08,0.44,-0.57,
4.036,2.10,-6.51,5.24,-2.06,0.41,-0.64,
4.037,2.10,-6.51,5.24,-2.02,0.37,-0.70,
4.037,2.10,-6.51,5.24,-2.00,0.34,-0.76,
4.045,2.10,-6.51,5.24,-1.97,0.31,-0.82,
4.046,2.10,-6.51,5.24,-1.93,0.29,-0.88,
4.046,2.51,-5.40,5.40,-1.93,0.29,-0.88,
4.046,2.51,-5.40,5.40,-1.90,0.28,-0.94,
4.046,2.51,-5.40,5.40,-1.87,0.27,-0.99,
4.047,2.51,-5.40,5.40,-1.82,0.26,-1.07,
4.048,2.51,-5.40,5.40,-1.80,0.26,-1.09,
4.05,2.51,-5.40,5.40,-1.78,0.28,-1.14,
4.054,2.56,-3.92,5.25,-1.78,0.28,-1.14,
4.054,2.56,-3.92,5.25,-1.76,0.29,-1.18,
4.055,2.56,-3.92,5.25,-1.74,0.31,-1.22,
4.057,2.56,-3.92,5.25,-1.72,0.33,-1.25,
4.058,2.56,-3.92,5.25,-1.70,0.36,-1.28,
4.06,2.56,-3.92,5.25,-1.70,0.41,-1.31,
4.072,2.32,-2.47,4.41,-1.70,0.41,-1.31,
4.073,2.32,-2.47,4.41,-1.70,0.46,-1.33,
4.073,2.32,-2.47,4.41,-1.72,0.54,-1.35,
4.073,2.32,-2.47,4.41,-1.81,0.71,-1.39,
4.073,2.32,-2.47,4.41,-1.97,0.95,-1.42,
4.074,2.32,-2.47,4.41,-2.16,1.18,-1.45,
4.074,2.81,-0.78,-1.87,-2.16,1.18,-1.45,
4.074,2.81,-0.78,-1.87,-2.35,1.44,-1.48,
4.074,2.81,-0.78,-1.87,-2.54,1.71,-1.50,
4.077,2.81,-0.78,-1.87,-2.82,2.09,-1.53,
4.078,2.81,-0.78,-1.87,-2.91,2.21,-1.54,
4.084,2.81,-0.78,-1.87,-3.08,2.42,-1.55,
4.085,2.32,0.34,-4.27,-3.08,2.42,-1.55,
4.086,2.32,0.34,-4.27,-3.23,2.62,-1.56,
4.086,2.32,0.34,-4.27,-3.36,2.80,-1.57,
4.087,2.32,0.34,-4.27,-3.53,3.05,-1.59,
4.088,2.32,0.34,-4.27,-3.57,3.12,-1.59,
4.09,2.32,0.34,-4.27,-3.65,3.25,-1.60,
4.092,1.56,1.10,-1.98,-3.65,3.25,-1.60,
4.092,1.56,1.10,-1.98,-3.72,3.38,-1.60,
4.094,1.56,1.10,-1.98,-3.76,3.48,-1.60,
4.102,1.56,1.10,-1.98,-3.81,3.62,-1.61,
4.102,1.56,1.10,-1.98,-3.82,3.66,-1.61,
4.103,1.56,1.10,-1.98,-3.83,3.73,-1.60,
4.103,0.72,1.73,0.91,-3.83,3.73,-1.60,
4.104,0.72,1.73,0.91,-3.82,3.79,-1.60,
4.106,0.72,1.73,0.91,-3.81,3.84,-1.59,
4.108,0.72,1.73,0.91,-3.77,3.88,-1.58,
4.109,0.72,1.73,0.91,-3.75,3.89,-1.57,
4.11,0.72,1.73,0.91,-3.71,3.88,-1.56,
4.112,0.05,2.29,3.20,-3.71,3.88,-1.56,
4.113,0.05,2.29,3.20,-3.66,3.87,-1.54,
4.114,0.05,2.29,3.20,-3.60,3.84,-1.52,
4.117,0.05,2.29,3.20,-3.51,3.76,-1.49,
4.118,0.05,2.29,3.20,-3.47,3.73,-1.48,
4.12,0.05,2.29,3.20,-3.40,3.66,-1.46,
4.122,-0.57,2.83,4.62,-3.40,3.66,-1.46,
4.123,-0.57,2.83,4.62,-3.33,3.59,-1.43,
4.124,-0.57,2.83,4.62,-3.25,3.50,-1.40,
4.127,-0.57,2.83,4.62,-3.13,3.36,-1.35,
4.128,-0.57,2.83,4.62,-3.09,3.31,-1.34,
4.13,-0.57,2.83,4.62,-3.00,3.20,-1.30,
4.132,-1.16,3.21,5.70,-3.00,3.20,-1.30,
4.133,-1.16,3.21,5.70,-2.92,3.10,-1.27,
4.134,-1.16,3.21,5.70,-2.83,2.99,-1.23,
4.137,-1.16,3.21,5.70,-2.69,2.82,-1.18,
4.138,-1.16,3.21,5.70,-2.65,2.76,-1.16,
4.14,-1.16,3.21,5.70,-2.56,2.64,-1.13,
4.141,-1.83,3.55,6.20,-2.56,2.64,-1.13,
4.142,-1.83,3.55,6.20,-2.47,2.52,-1.09,
4.144,-1.83,3.55,6.20,-2.38,2.40,-1.05,
4.148,-1.83,3.55,6.20,-2.24,2.21,-0.99,
4.148,-1.83,3.55,6.20,-2.19,2.15,-0.97,
4.15,-1.83,3.55,6.20,-2.10,2.02,-0.93,
4.152,-2.34,3.92,6.79,-2.10,2.02,-0.93,
4.152,-2.34,3.92,6.79,-2.02,1.88,-0.88,
4.154,-2.34,3.92,6.79,-1.93,1.75,-0.84,
4.161,-2.34,3.92,6.79,-1.80,1.55,-0.77,
4.161,-2.34,3.92,6.79,-1.76,1.49,-0.75,
4.161,-2.34,3.92,6.79,-1.67,1.36,-0.70,
4.166,-2.80,4.38,6.76,-1.67,1.36,-0.70,
4.167,-2.80,4.38,6.76,-1.60,1.23,-0.64,
4.188,-2.80,4.38,6.76,-1.52,1.10,-0.59,
4.189,-2.80,4.38,6.76,-1.41,0.91,-0.51,
4.189,-2.80,4.38,6.76,-1.37,0.85,-0.48,
4.189,-2.80,4.38,6.76,-1.30,0.73,-0.42,
4.189,-3.14,4.70,6.92,-1.30,0.73,-0.42,
4.19,-3.14,4.70,6.92,-1.23,0.61,-0.36,
4.19,-3.14,4.70,6.92,-1.17,0.50,-0.31,
4.19,-3.14,4.70,6.92,-1.06,0.35,-0.23,
4.19,-3.14,4.70,6.92,-1.03,0.31,-0.20,
4.191,-3.14,4.70,6.92,-0.96,0.22,-0.15,
4.191,-3.23,5.10,6.74,-0.96,0.22,-0.15,
4.191,-3.23,5.10,6.74,-0.90,0.15,-0.09,
4.191,-3.23,5.10,6.74,-0.83,0.08,-0.04,
4.191,-3.23,5.10,6.74,-0.73,-0.01,0.03,
4.192,-3.23,5.10,6.74,-0.69,-0.04,0.06,
4.192,-3.23,5.10,6.74,-0.63,-0.08,0.10,
4.192,-3.24,5.33,6.92,-0.63,-0.08,0.10,
4.192,-3.24,5.33,6.92,-0.56,-0.11,0.15,
4.194,-3.24,5.33,6.92,-0.50,-0.13,0.19,
4.197,-3.24,5.33,6.92,-0.41,-0.15,0.25,
4.198,-3.24,5.33,6.92,-0.38,-0.15,0.27,
4.2,-3.24,5.33,6.92,-0.32,-0.14,0.31,
4.202,-3.14,5.63,6.44,-0.32,-0.14,0.31,
4.202,-3.14,5.63,6.44,-0.27,-0.13,0.35,
4.204,-3.14,5.63,6.44,-0.21,-0.10,0.38,
4.207,-3.14,5.63,6.44,-0.14,-0.06,0.43,
4.208,-3.14,5.63,6.44,-0.11,-0.05,0.45,
4.21,-3.14,5.63,6.44,-0.06,-0.01,0.48,
4.215,-3.14,5.73,6.25,-0.06,-0.01,0.48,
4.215,-3.14,5.73,6.25,-0.01,0.03,0.51,
4.215,-3.14,5.73,6.25,0.04,0.06,0.54,
4.217,-3.14,5.73,6.25,0.10,0.12,0.57,
4.218,-3.14,5.73,6.25,0.12,0.14,0.59,
4.22,-3.14,5.73,6.25,0.16,0.18,0.61,
4.222,-3.00,5.95,5.70,0.16,0.18,0.61,
4.223,-3.00,5.95,5.70,0.21,0.22,0.63,
4.224,-3.00,5.95,5.70,0.25,0.25,0.65,
4.227,-3.00,5.95,5.70,0.31,0.30,0.68,
4.234,-3.00,5.95,5.70,0.33,0.32,0.69,
4.235,-3.00,5.95,5.70,0.37,0.34,0.70,
4.235,-2.91,6.11,5.72,0.37,0.34,0.70,
4.235,-2.91,6.11,5.72,0.42,0.36,0.72,
4.235,-2.91,6.11,5.72,0.46,0.38,0.74,
4.237,-2.91,6.11,5.72,0.53,0.40,0.76,
4.238,-2.91,6.11,5.72,0.56,0.40,0.77,
4.24,-2.91,6.11,5.72,0.61,0.40,0.78,
4.242,-2.82,6.36,5.41,0.61,0.40,0.78,
4.242,-2.82,6.36,5.41,0.66,0.41,0.80,
4.244,-2.82,6.36,5.41,0.71,0.40,0.81,
4.247,-2.82,6.36,5.41,0.79,0.39,0.84,
4.249,-2.82,6.36,5.41,0.82,0.38,0.84,
4.25,-2.82,6.36,5.41,0.87,0.38,0.86,
4.252,-2.88,6.39,5.46,0.87,0.38,0.86,
4.252,-2.88,6.39,5.46,0.93,0.36,0.88,
4.254,-2.88,6.39,5.46,0.99,0.35,0.90,
4.257,-2.88,6.39,5.46,1.09,0.34,0.93,
4.258,-2.88,6.39,5.46,1.12,0.34,0.94,
4.26,-2.88,6.39,5.46,1.18,0.33,0.96,
4.262,-2.82,6.38,5.08,1.18,0.33,0.96,
4.264,-2.82,6.38,5.08,1.25,0.33,0.99,
4.265,-2.82,6.38,5.08,1.32,0.33,1.01,
4.267,-2.82,6.38,5.08,1.44,0.34,1.05,
4.268,-2.82,6.38,5.08,1.47,0.34,1.07,
4.27,-2.82,6.38,5.08,1.55,0.35,1.10,
4.272,-2.64,6.21,5.03,1.55,0.35,1.10,
4.272,-2.64,6.21,5.03,1.63,0.36,1.12,
4.274,-2.64,6.21,5.03,1.70,0.37,1.15,
4.277,-2.64,6.21,5.03,1.82,0.38,1.19,
4.278,-2.64,6.21,5.03,1.86,0.39,1.20,
4.28,-2.64,6.21,5.03,1.94,0.40,1.22,
4.282,-2.20,5.74,4.34,1.94,0.40,1.22,
4.282,-2.20,5.74,4.34,2.01,0.41,1.25,
4.284,-2.20,5.74,4.34,2.09,0.42,1.27,
4.287,-2.20,5.74,4.34,2.19,0.44,1.30,
4.288,-2.20,5.74,4.34,2.23,0.44,1.32,
4.29,-2.20,5.74,4.34,2.30,0.43,1.34,
4.291,-1.78,4.87,3.44,2.30,0.43,1.34,
4.292,-1.78,4.87,3.44,2.36,0.43,1.36,
4.295,-1.78,4.87,3.44,2.42,0.41,1.39,
4.297,-1.78,4.87,3.44,2.50,0.37,1.42,
4.299,-1.78,4.87,3.44,2.53,0.35,1.44,
4.301,-1.78,4.87,3.44,2.57,0.31,1.47,
4.305,-1.50,3.63,1.19,2.57,0.31,1.47,
4.305,-1.50,3.63,1.19,2.60,0.26,1.49,
4.306,-1.50,3.63,1.19,2.63,0.20,1.52,
4.306,-1.50,3.63,1.19,2.67,0.09,1.56,
4.308,-1.50,3.63,1.19,2.68,0.04,1.57,
4.31,-1.50,3.63,1.19,2.69,-0.04,1.59,
4.322,-1.41,1.29,-4.13,2.69,-0.04,1.59,
4.323,-1.41,1.29,-4.13,2.71,-0.14,1.61,
4.323,-1.41,1.29,-4.13,2.73,-0.26,1.63,
4.323,-1.41,1.29,-4.13,2.68,-0.48,1.65,
4.324,-1.41,1.29,-4.13,2.64,-0.57,1.66,
4.324,-1.41,1.29,-4.13,2.52,-0.77,1.67,
4.325,-1.00,-2.82,-15.08,2.52,-0.77,1.67,
4.325,-1.00,-2.82,-15.08,2.35,-1.00,1.67,
4.325,-1.00,-2.82,-15.08,2.14,-1.26,1.67,
4.327,-1.00,-2.82,-15.08,1.78,-1.66,1.66,
4.351,-1.00,-2.82,-15.08,1.64,-1.78,1.65,
4.352,-1.00,-2.82,-15.08,1.35,-2.01,1.62,
4.379,0.40,-8.32,-29.17,1.35,-2.01,1.62,
4.38,0.40,-8.32,-29.17,1.03,-2.16,1.58,
4.38,0.40,-8.32,-29.17,0.71,-2.22,1.52,
4.381,0.40,-8.32,-29.17,0.29,-2.15,1.39,
4.381,0.40,-8.32,-29.17,0.16,-2.11,1.33,
4.381,0.40,-8.32,-29.17,-0.08,-1.95,1.19,
4.382,4.45,-12.63,-34.94,-0.08,-1.95,1.19,
4.382,4.45,-12.63,-34.94,-0.30,-1.68,1.03,
4.382,4.45,-12.63,-34.94,-0.49,-1.35,0.85,
4.383,4.45,-12.63,-34.94,-0.72,-0.80,0.56,
4.383,4.45,-12.63,-34.94,-0.78,-0.61,0.47,
4.383,4.45,-12.63,-34.94,-0.86,-0.21,0.29,
4.383,8.95,-12.09,-28.30,-0.86,-0.21,0.29,
4.384,8.95,-12.09,-28.30,-0.91,0.19,0.13,
4.384,8.95,-12.09,-28.30,-0.93,0.58,-0.02,
4.384,8.95,-12.09,-28.30,-0.94,1.10,-0.20,
4.385,8.95,-12.09,-28.30,-0.95,1.26,-0.25,
4.385,8.95,-12.09,-28.30,-0.94,1.56,-0.34,
4.385,9.19,-10.57,-17.87,-0.94,1.56,-0.34,
4.385,9.19,-10.57,-17.87,-0.93,1.83,-0.42,
4.386,9.19,-10.57,-17.87,-0.93,2.08,-0.50,
4.386,9.19,-10.57,-17.87,-0.90,2.39,-0.57,
4.386,9.19,-10.57,-17.87,-0.89,2.48,-0.59,
4.386,9.19,-10.57,-17.87,-0.87,2.64,-0.61,
4.387,7.27,-7.85,-11.49,-0.87,2.64,-0.61,
4.387,7.27,-7.85,-11.49,-0.85,2.78,-0.62,
4.387,7.27,-7.85,-11.49,-0.83,2.89,-0.62,
4.387,7.27,-7.85,-11.49,-0.80,2.96,-0.61,
4.388,7.27,-7.85,-11.49,-0.79,2.97,-0.60,
4.388,7.27,-7.85,-11.49,-0.77,2.97,-0.58,
4.388,5.58,-4.77,-7.46,-0.77,2.97,-0.58,
4.389,5.58,-4.77,-7.46,-0.74,2.95,-0.55,
4.389,5.58,-4.77,-7.46,-0.71,2.90,-0.52,
4.389,5.58,-4.77,-7.46,-0.66,2.76,-0.46,
4.389,5.58,-4.77,-7.46,-0.64,2.71,-0.44,
4.39,5.58,-4.77,-7.46,-0.61,2.58,-0.40,
4.395,4.25,-1.94,-4.30,-0.61,2.58,-0.40,
4.396,4.25,-1.94,-4.30,-0.56,2.42,-0.36,
4.396,4.25,-1.94,-4.30,-0.50,2.26,-0.32,
4.397,4.25,-1.94,-4.30,-0.42,1.99,-0.27,
4.403,4.25,-1.94,-4.30,-0.40,1.89,-0.26,
4.404,4.25,-1.94,-4.30,-0.34,1.70,-0.25,
4.405,4.03,0.26,-1.36,-0.34,1.70,-0.25,
4.405,4.03,0.26,-1.36,-0.29,1.50,-0.24,
4.405,4.03,0.26,-1.36,-0.22,1.30,-0.23,
4.409,4.03,0.26,-1.36,-0.14,0.99,-0.24,
4.41,4.03,0.26,-1.36,-0.11,0.88,-0.25,
4.41,4.03,0.26,-1.36,-0.04,0.67,-0.27,
4.414,5.34,0.75,0.27,-0.04,0.67,-0.27,
4.415,5.34,0.75,0.27,0.02,0.46,-0.31,
4.415,5.34,0.75,0.27,0.08,0.26,-0.35,
4.417,5.34,0.75,0.27,0.18,-0.03,-0.42,
4.418,5.34,0.75,0.27,0.21,-0.11,-0.45,
4.42,5.34,0.75,0.27,0.27,-0.26,-0.52,
4.422,6.84,-0.45,1.26,0.27,-0.26,-0.52,
4.422,6.84,-0.45,1.26,0.35,-0.38,-0.58,
4.424,6.84,-0.45,1.26,0.42,-0.46,-0.64,
4.428,6.84,-0.45,1.26,0.53,-0.53,-0.73,
4.428,6.84,-0.45,1.26,0.57,-0.53,-0.76,
4.43,6.84,-0.45,1.26,0.65,-0.51,-0.80,
4.432,7.24,-1.62,1.84,0.65,-0.51,-0.80,
4.433,7.24,-1.62,1.84,0.72,-0.45,-0.84,
4.434,7.24,-1.62,1.84,0.79,-0.36,-0.87,
4.436,7.24,-1.62,1.84,0.89,-0.21,-0.90,
4.438,7.24,-1.62,1.84,0.92,-0.15,-0.90,
4.44,7.24,-1.62,1.84,0.98,-0.06,-0.91,
4.442,5.91,-1.83,1.74,0.98,-0.06,-0.91,
4.443,5.91,-1.83,1.74,1.04,0.01,-0.91,
4.447,5.91,-1.83,1.74,1.10,0.06,-0.90,
4.449,5.91,-1.83,1.74,1.19,0.06,-0.89,
4.45,5.91,-1.83,1.74,1.21,0.05,-0.88,
4.451,5.91,-1.83,1.74,1.26,-0.01,-0.87,
4.452,4.67,-1.61,3.27,1.26,-0.01,-0.87,
4.453,4.67,-1.61,3.27,1.30,-0.11,-0.86,
4.454,4.67,-1.61,3.27,1.34,-0.26,-0.85,
4.457,4.67,-1.61,3.27,1.36,-0.55,-0.83,
4.458,4.67,-1.61,3.27,1.36,-0.66,-0.83,
4.478,4.67,-1.61,3.27,1.36,-0.91,-0.82,
4.48,3.99,-1.45,4.67,1.36,-0.91,-0.82,
4.481,3.99,-1.45,4.67,1.33,-1.18,-0.81,
4.482,3.99,-1.45,4.67,1.30,-1.45,-0.80,
4.483,3.99,-1.45,4.67,1.22,-1.87,-0.79,
4.483,3.99,-1.45,4.67,1.19,-2.01,-0.79,
4.484,3.99,-1.45,4.67,1.13,-2.28,-0.78,
4.485,2.74,-0.52,4.65,1.13,-2.28,-0.78,
4.486,2.74,-0.52,4.65,1.06,-2.52,-0.77,
4.486,2.74,-0.52,4.65,1.00,-2.75,-0.76,
4.487,2.74,-0.52,4.65,0.90,-3.06,-0.73,
4.488,2.74,-0.52,4.65,0.87,-3.14,-0.73,
4.489,2.74,-0.52,4.65,0.81,-3.31,-0.70,
4.49,1.22,1.08,3.93,0.81,-3.31,-0.70,
4.49,1.22,1.08,3.93,0.76,-3.45,-0.68,
4.49,1.22,1.08,3.93,0.72,-3.58,-0.66,
4.49,1.22,1.08,3.93,0.66,-3.76,-0.62,
4.49,1.22,1.08,3.93,0.64,-3.81,-0.61,
4.491,1.22,1.08,3.93,0.61,-3.90,-0.59,
4.492,0.18,2.48,3.73,0.61,-3.90,-0.59,
4.492,0.18,2.48,3.73,0.59,-3.98,-0.57,
4.508,0.18,2.48,3.73,0.58,-4.04,-0.55,
4.509,0.18,2.48,3.73,0.56,-4.12,-0.51,
4.536,0.18,2.48,3.73,0.56,-4.13,-0.50,
4.536,0.18,2.48,3.73,0.57,-4.16,-0.48,
4.536,-0.54,3.44,3.64,0.57,-4.16,-0.48,
4.537,-0.54,3.44,3.64,0.58,-4.16,-0.46,
4.537,-0.54,3.44,3.64,0.60,-4.15,-0.44,
4.537,-0.54,3.44,3.64,0.64,-4.11,-0.42,
4.537,-0.54,3.44,3.64,0.66,-4.09,-0.41,
4.538,-0.54,3.44,3.64,0.70,-4.03,-0.39,
4.538,-0.95,4.01,4.00,0.70,-4.03,-0.39,
4.538,-0.95,4.01,4.00,0.74,-3.96,-0.38,
4.538,-0.95,4.01,4.00,0.79,-3.88,-0.36,
4.539,-0.95,4.01,4.00,0.89,-3.74,-0.33,
4.539,-0.95,4.01,4.00,0.92,-3.69,-0.33,
4.539,-0.95,4.01,4.00,0.98,-3.57,-0.31,
4.539,-1.45,4.26,4.13,0.98,-3.57,-0.31,
4.54,-1.45,4.26,4.13,1.06,-3.46,-0.29,
4.54,-1.45,4.26,4.13,1.14,-3.33,-0.27,
4.54,-1.45,4.26,4.13,1.27,-3.11,-0.25,
4.541,-1.45,4.26,4.13,1.32,-3.03,-0.24,
4.541,-1.45,4.26,4.13,1.41,-2.86,-0.23,
4.541,-1.83,4.14,4.72,1.41,-2.86,-0.23,
4.541,-1.83,4.14,4.72,1.51,-2.67,-0.22,
4.542,-1.83,4.14,4.72,1.62,-2.46,-0.21,
4.542,-1.83,4.14,4.72,1.79,-2.13,-0.19,
4.542,-1.83,4.14,4.72,1.85,-2.01,-0.18,
4.542,-1.83,4.14,4.72,1.97,-1.77,-0.17,
4.543,-1.91,3.06,5.11,1.97,-1.77,-0.17,
4.543,-1.91,3.06,5.11,2.10,-1.52,-0.15,
4.545,-1.91,3.06,5.11,2.23,-1.28,-0.13,
4.547,-1.91,3.06,5.11,2.42,-0.93,-0.09,
4.548,-1.91,3.06,5.11,2.49,-0.82,-0.07,
4.55,-1.91,3.06,5.11,2.61,-0.61,-0.03,
4.552,-2.51,1.51,5.65,2.61,-0.61,-0.03,
4.552,-2.51,1.51,5.65,2.74,-0.40,0.01,
4.554,-2.51,1.51,5.65,2.86,-0.21,0.05,
4.557,-2.51,1.51,5.65,3.04,0.04,0.13,
4.558,-2.51,1.51,5.65,3.09,0.12,0.16,
4.561,-2.51,1.51,5.65,3.19,0.26,0.21,
4.562,-2.97,-0.40,5.32,3.19,0.26,0.21,
4.562,-2.97,-0.40,5.32,3.28,0.39,0.27,
4.564,-2.97,-0.40,5.32,3.35,0.50,0.34,
4.567,-2.97,-0.40,5.32,3.44,0.65,0.44,
4.568,-2.97,-0.40,5.32,3.46,0.69,0.47,
4.57,-2.97,-0.40,5.32,3.49,0.77,0.54,
4.571,-3.40,-2.51,4.11,3.49,0.77,0.54,
4.572,-3.40,-2.51,4.11,3.51,0.84,0.61,
4.574,-3.40,-2.51,4.11,3.52,0.89,0.67,
4.583,-3.40,-2.51,4.11,3.50,0.96,0.78,
4.583,-3.40,-2.51,4.11,3.48,0.98,0.81,
4.583,-3.40,-2.51,4.11,3.44,1.01,0.88,
4.584,-3.57,-4.36,2.53,3.44,1.01,0.88,
4.584,-3.57,-4.36,2.53,3.39,1.03,0.95,
4.584,-3.57,-4.36,2.53,3.32,1.04,1.01,
4.587,-3.57,-4.36,2.53,3.19,1.04,1.11,
4.588,-3.57,-4.36,2.53,3.14,1.04,1.14,
4.59,-3.57,-4.36,2.53,3.03,1.03,1.20,
4.61,-4.00,-5.53,0.93,3.03,1.03,1.20,
4.611,-4.00,-5.53,0.93,2.90,1.02,1.25,
4.611,-4.00,-5.53,0.93,2.78,1.01,1.30,
4.611,-4.00,-5.53,0.93,2.57,0.99,1.37,
4.611,-4.00,-5.53,0.93,2.50,0.99,1.39,
4.611,-4.00,-5.53,0.93,2.36,0.97,1.43,
4.612,-4.01,-5.80,-0.23,2.36,0.97,1.43,
4.612,-4.01,-5.80,-0.23,2.21,0.97,1.47,
4.612,-4.01,-5.80,-0.23,2.07,0.97,1.50,
4.612,-4.01,-5.80,-0.23,1.86,0.97,1.53,
4.612,-4.01,-5.80,-0.23,1.79,0.98,1.54,
4.615,-4.01,-5.80,-0.23,1.64,0.99,1.57,
4.615,-4.09,-5.72,-0.94,1.64,0.99,1.57,
4.616,-4.09,-5.72,-0.94,1.51,1.01,1.59,
4.616,-4.09,-5.72,-0.94,1.38,1.03,1.62,
4.617,-4.09,-5.72,-0.94,1.20,1.08,1.67,
4.618,-4.09,-5.72,-0.94,1.14,1.09,1.68,
4.62,-4.09,-5.72,-0.94,1.03,1.13,1.71,
4.622,-4.65,-4.97,-1.15,1.03,1.13,1.71,
4.622,-4.65,-4.97,-1.15,0.93,1.16,1.73,
4.624,-4.65,-4.97,-1.15,0.84,1.19,1.74,
4.627,-4.65,-4.97,-1.15,0.72,1.25,1.76,
4.628,-4.65,-4.97,-1.15,0.68,1.28,1.77,
4.63,-4.65,-4.97,-1.15,0.61,1.32,1.78,
4.632,-4.68,-3.89,-1.20,0.61,1.32,1.78,
4.632,-4.68,-3.89,-1.20,0.55,1.36,1.79,
4.634,-4.68,-3.89,-1.20,0.49,1.40,1.80,
4.637,-4.68,-3.89,-1.20,0.41,1.45,1.81,
4.638,-4.68,-3.89,-1.20,0.39,1.46,1.81,
4.641,-4.68,-3.89,-1.20,0.34,1.49,1.81,
4.644,-4.80,-2.74,-1.31,0.34,1.49,1.81,
4.644,-4.80,-2.74,-1.31,0.30,1.51,1.81,
4.644,-4.80,-2.74,-1.31,0.27,1.53,1.82,
4.647,-4.80,-2.74,-1.31,0.22,1.55,1.82,
4.648,-4.80,-2.74,-1.31,0.20,1.55,1.82,
4.65,-4.80,-2.74,-1.31,0.15,1.50,1.81,
4.652,-4.74,-1.04,-2.18,0.15,1.50,1.81,
4.653,-4.74,-1.04,-2.18,0.07,1.37,1.80,
4.654,-4.74,-1.04,-2.18,-0.04,1.11,1.77,
4.657,-4.74,-1.04,-2.18,-0.19,0.54,1.70,
4.658,-4.74,-1.04,-2.18,-0.22,0.32,1.68,
4.66,-4.74,-1.04,-2.18,-0.24,-0.16,1.62,
4.662,-3.92,2.29,-4.99,-0.24,-0.16,1.62,
4.663,-3.92,2.29,-4.99,-0.21,-0.65,1.55,
4.69,-3.92,2.29,-4.99,-0.15,-1.12,1.49,
4.69,-3.92,2.29,-4.99,0.02,-1.78,1.39,
4.691,-3.92,2.29,-4.99,0.08,-1.98,1.36,
4.691,-3.92,2.29,-4.99,0.23,-2.35,1.30,
4.692,-3.71,3.20,-3.27,0.23,-2.35,1.30,
4.692,-3.71,3.20,-3.27,0.41,-2.68,1.25,
4.693,-3.71,3.20,-3.27,0.60,-2.98,1.23,
4.693,-3.71,3.20,-3.27,0.88,-3.35,1.21,
4.693,-3.71,3.20,-3.27,0.97,-3.45,1.21,
4.694,-3.71,3.20,-3.27,1.16,-3.63,1.21,
4.694,-2.80,2.66,-2.15,1.16,-3.63,1.21,
4.695,-2.80,2.66,-2.15,1.35,-3.76,1.21,
4.695,-2.80,2.66,-2.15,1.54,-3.87,1.21,
4.695,-2.80,2.66,-2.15,1.80,-3.97,1.20,
4.696,-2.80,2.66,-2.15,1.88,-4.00,1.20,
4.696,-2.80,2.66,-2.15,2.04,-4.04,1.19,
4.697,-1.97,2.28,-2.89,2.04,-4.04,1.19,
4.697,-1.97,2.28,-2.89,2.18,-4.07,1.18,
4.698,-1.97,2.28,-2.89,2.31,-4.09,1.16,
4.698,-1.97,2.28,-2.89,2.47,-4.10,1.13,
4.698,-1.97,2.28,-2.89,2.52,-4.10,1.12,
4.7,-1.97,2.28,-2.89,2.60,-4.09,1.09,
4.702,-0.89,1.58,-4.39,2.60,-4.09,1.09,
4.702,-0.89,1.58,-4.39,2.67,-4.07,1.06,
4.704,-0.89,1.58,-4.39,2.73,-4.04,1.03,
4.707,-0.89,1.58,-4.39,2.78,-3.97,0.98,
4.707,-0.89,1.58,-4.39,2.79,-3.95,0.96,
4.71,-0.89,1.58,-4.39,2.80,-3.89,0.92,
4.712,-0.19,0.77,-6.34,2.80,-3.89,0.92,
4.712,-0.19,0.77,-6.34,2.80,-3.82,0.88,
4.714,-0.19,0.77,-6.34,2.79,-3.75,0.84,
4.717,-0.19,0.77,-6.34,2.74,-3.63,0.78,
4.718,-0.19,0.77,-6.34,2.72,-3.59,0.76,
4.72,-0.19,0.77,-6.34,2.67,-3.49,0.72,
4.722,0.11,0.17,-7.69,2.67,-3.49,0.72,
4.722,0.11,0.17,-7.69,2.60,-3.39,0.68,
4.727,0.11,0.17,-7.69,2.53,-3.28,0.64,
4.727,0.11,0.17,-7.69,2.41,-3.09,0.58,
4.734,0.11,0.17,-7.69,2.37,-3.03,0.56,
4.735,0.11,0.17,-7.69,2.28,-2.89,0.52,
4.736,0.20,-0.61,-8.58,2.28,-2.89,0.52,
4.736,0.20,-0.61,-8.58,2.18,-2.74,0.48,
4.736,0.20,-0.61,-8.58,2.08,-2.59,0.44,
4.737,0.20,-0.61,-8.58,1.93,-2.36,0.39,
4.738,0.20,-0.61,-8.58,1.87,-2.28,0.37,
4.759,0.20,-0.61,-8.58,1.77,-2.13,0.34,
4.759,0.31,-1.05,-8.37,1.77,-2.13,0.34,
4.759,0.31,-1.05,-8.37,1.66,-1.97,0.31,
4.76,0.31,-1.05,-8.37,1.55,-1.83,0.29,
4.76,0.31,-1.05,-8.37,1.39,-1.61,0.26,
4.76,0.31,-1.05,-8.37,1.34,-1.54,0.25,
4.76,0.31,-1.05,-8.37,1.24,-1.40,0.23,
4.76,0.51,-1.09,-7.70,1.24,-1.40,0.23,
4.761,0.51,-1.09,-7.70,1.13,-1.27,0.21,
4.761,0.51,-1.09,-7.70,1.03,-1.15,0.20,
4.761,0.51,-1.09,-7.70,0.89,-0.97,0.18,
4.761,0.51,-1.09,-7.70,0.85,-0.92,0.17,
4.761,0.51,-1.09,-7.70,0.76,-0.82,0.16,
4.762,0.40,-0.91,-6.38,0.76,-0.82,0.16,
4.763,0.40,-0.91,-6.38,0.68,-0.72,0.14,
4.764,0.40,-0.91,-6.38,0.61,-0.63,0.12,
4.767,0.40,-0.91,-6.38,0.52,-0.51,0.09,
4.768,0.40,-0.91,-6.38,0.49,-0.47,0.08,
4.77,0.40,-0.91,-6.38,0.44,-0.40,0.05,
4.771,0.48,-0.67,-4.99,0.44,-0.40,0.05,
4.772,0.48,-0.67,-4.99,0.40,-0.34,0.03,
4.774,0.48,-0.67,-4.99,0.37,-0.28,-0.00,
4.777,0.48,-0.67,-4.99,0.34,-0.21,-0.05,
4.778,0.48,-0.67,-4.99,0.33,-0.20,-0.07,
4.782,0.48,-0.67,-4.99,0.32,-0.16,-0.10,
4.782,0.52,-0.35,-3.30,0.32,-0.16,-0.10,
4.783,0.52,-0.35,-3.30,0.33,-0.13,-0.14,
4.784,0.52,-0.35,-3.30,0.34,-0.10,-0.17,
4.79,0.52,-0.35,-3.30,0.37,-0.06,-0.23,
4.791,0.52,-0.35,-3.30,0.38,-0.04,-0.24,
4.792,0.52,-0.35,-3.30,0.41,-0.01,-0.28,
4.8,0.47,-0.00,-2.05,0.41,-0.01,-0.28,
4.801,0.47,-0.00,-2.05,0.45,0.02,-0.31,
4.802,0.47,-0.00,-2.05,0.49,0.05,-0.34,
4.802,0.47,-0.00,-2.05,0.56,0.10,-0.39,
4.802,0.47,-0.00,-2.05,0.59,0.11,-0.40,
4.803,0.47,-0.00,-2.05,0.64,0.14,-0.43,
4.803,0.02,0.37,-1.19,0.64,0.14,-0.43,
4.803,0.02,0.37,-1.19,0.70,0.17,-0.45,
4.804,0.02,0.37,-1.19,0.76,0.20,-0.47,
4.807,0.02,0.37,-1.19,0.85,0.24,-0.49,
4.809,0.02,0.37,-1.19,0.88,0.25,-0.50,
4.816,0.02,0.37,-1.19,0.95,0.29,-0.51,
4.816,-0.67,0.57,-0.67,0.95,0.29,-0.51,
4.816,-0.67,0.57,-0.67,1.01,0.32,-0.52,
4.817,-0.67,0.57,-0.67,1.08,0.34,-0.52,
4.817,-0.67,0.57,-0.67,1.17,0.35,-0.53,
4.818,-0.67,0.57,-0.67,1.20,0.35,-0.53,
4.82,-0.67,0.57,-0.67,1.27,0.36,-0.53,
4.823,-1.05,0.62,-0.32,1.27,0.36,-0.53,
4.823,-1.05,0.62,-0.32,1.33,0.36,-0.52,
4.824,-1.05,0.62,-0.32,1.40,0.36,-0.52,
4.827,-1.05,0.62,-0.32,1.51,0.34,-0.50,
4.83,-1.05,0.62,-0.32,1.55,0.33,-0.49,
4.83,-1.05,0.62,-0.32,1.62,0.31,-0.47,
4.856,-1.36,0.43,-0.04,1.62,0.31,-0.47,
4.856,-1.36,0.43,-0.04,1.69,0.30,-0.45,
4.857,-1.36,0.43,-0.04,1.78,0.28,-0.43,
4.857,-1.36,0.43,-0.04,1.90,0.26,-0.38,
4.858,-1.36,0.43,-0.04,1.95,0.25,-0.36,
4.858,-1.36,0.43,-0.04,2.04,0.25,-0.32,
4.858,-1.39,-0.14,-0.36,2.04,0.25,-0.32,
4.859,-1.39,-0.14,-0.36,2.13,0.25,-0.28,
4.859,-1.39,-0.14,-0.36,2.22,0.25,-0.24,
4.86,-1.39,-0.14,-0.36,2.36,0.28,-0.18,
4.86,-1.39,-0.14,-0.36,2.41,0.30,-0.17,
4.86,-1.39,-0.14,-0.36,2.50,0.32,-0.13,
4.861,-1.42,-1.22,-1.62,2.50,0.32,-0.13,
4.861,-1.42,-1.22,-1.62,2.60,0.35,-0.10,
4.862,-1.42,-1.22,-1.62,2.69,0.38,-0.06,
4.862,-1.42,-1.22,-1.62,2.82,0.42,-0.02,
4.863,-1.42,-1.22,-1.62,2.86,0.42,-0.01,
4.863,-1.42,-1.22,-1.62,2.94,0.43,0.01,
4.863,-1.05,-2.59,-3.42,2.94,0.43,0.01,
4.864,-1.05,-2.59,-3.42,3.01,0.43,0.03,
4.864,-1.05,-2.59,-3.42,3.07,0.43,0.04,
4.868,-1.05,-2.59,-3.42,3.14,0.45,0.05,
4.869,-1.05,-2.59,-3.42,3.15,0.45,0.04,
4.87,-1.05,-2.59,-3.42,3.17,0.44,0.04,
4.872,-0.78,-4.02,-6.44,3.17,0.44,0.04,
4.872,-0.78,-4.02,-6.44,3.17,0.44,0.03,
4.874,-0.78,-4.02,-6.44,3.16,0.43,0.01,
4.882,-0.78,-4.02,-6.44,3.09,0.40,-0.02,
4.882,-0.78,-4.02,-6.44,3.05,0.39,-0.03,
4.883,-0.78,-4.02,-6.44,2.93,0.37,-0.06,
4.883,-0.91,-4.89,-11.26,2.93,0.37,-0.06,
4.883,-0.91,-4.89,-11.26,2.77,0.36,-0.08,
4.884,-0.91,-4.89,-11.26,2.58,0.33,-0.10,
4.907,-0.91,-4.89,-11.26,2.24,0.27,-0.13,
4.908,-0.91,-4.89,-11.26,2.11,0.25,-0.14,
4.908,-0.91,-4.89,-11.26,1.85,0.19,-0.17,
4.909,-2.02,-5.06,-16.86,1.85,0.19,-0.17,
4.909,-2.02,-5.06,-16.86,1.58,0.12,-0.19,
4.909,-2.02,-5.06,-16.86,1.30,0.04,-0.22,
4.91,-2.02,-5.06,-16.86,0.89,-0.09,-0.25,
4.91,-2.02,-5.06,-16.86,0.76,-0.13,-0.27,
4.91,-2.02,-5.06,-16.86,0.50,-0.23,-0.30,
4.91,-2.52,-4.87,-16.27,0.50,-0.23,-0.30,
4.911,-2.52,-4.87,-16.27,0.26,-0.32,-0.33,
4.911,-2.52,-4.87,-16.27,0.03,-0.40,-0.35,
4.911,-2.52,-4.87,-16.27,-0.28,-0.52,-0.40,
4.911,-2.52,-4.87,-16.27,-0.37,-0.56,-0.42,
4.911,-2.52,-4.87,-16.27,-0.55,-0.62,-0.45,
4.912,-2.28,-5.00,-12.43,-0.55,-0.62,-0.45,
4.912,-2.28,-5.00,-12.43,-0.70,-0.67,-0.48,
4.916,-2.28,-5.00,-12.43,-0.84,-0.70,-0.51,
4.917,-2.28,-5.00,-12.43,-1.00,-0.71,-0.54,
4.918,-2.28,-5.00,-12.43,-1.05,-0.71,-0.55,
4.92,-2.28,-5.00,-12.43,-1.13,-0.69,-0.57,
4.922,-1.86,-4.87,-8.18,-1.13,-0.69,-0.57,
4.922,-1.86,-4.87,-8.18,-1.20,-0.66,-0.58,
4.924,-1.86,-4.87,-8.18,-1.25,-0.62,-0.59,
4.927,-1.86,-4.87,-8.18,-1.30,-0.53,-0.59,
4.931,-1.86,-4.87,-8.18,-1.31,-0.50,-0.60,
4.933,-1.86,-4.87,-8.18,-1.33,-0.43,-0.59,
4.933,-1.74,-4.57,-5.24,-1.33,-0.43,-0.59,
4.934,-1.74,-4.57,-5.24,-1.33,-0.35,-0.59,
4.934,-1.74,-4.57,-5.24,-1.32,-0.27,-0.58,
4.937,-1.74,-4.57,-5.24,-1.30,-0.13,-0.57,
4.938,-1.74,-4.57,-5.24,-1.29,-0.09,-0.57,
4.94,-1.74,-4.57,-5.24,-1.26,0.01,-0.55,
4.943,-1.61,-4.55,-3.25,-1.26,0.01,-0.55,
4.943,-1.61,-4.55,-3.25,-1.24,0.10,-0.54,
4.945,-1.61,-4.55,-3.25,-1.21,0.19,-0.52,
4.947,-1.61,-4.55,-3.25,-1.16,0.32,-0.48,
4.948,-1.61,-4.55,-3.25,-1.14,0.37,-0.47,
4.95,-1.61,-4.55,-3.25,-1.11,0.45,-0.44,
4.951,-1.67,-5.04,-2.48,-1.11,0.45,-0.44,
4.952,-1.67,-5.04,-2.48,-1.08,0.53,-0.41,
4.954,-1.67,-5.04,-2.48,-1.04,0.61,-0.38,
4.957,-1.67,-5.04,-2.48,-0.99,0.71,-0.33,
4.959,-1.67,-5.04,-2.48,-0.98,0.74,-0.31,
4.961,-1.67,-5.04,-2.48,-0.95,0.79,-0.28,
4.964,-1.65,-5.51,-2.50,-0.95,0.79,-0.28,
4.964,-1.65,-5.51,-2.50,-0.92,0.84,-0.24,
4.964,-1.65,-5.51,-2.50,-0.90,0.88,-0.21,
4.967,-1.65,-5.51,-2.50,-0.88,0.93,-0.17,
4.968,-1.65,-5.51,-2.50,-0.87,0.94,-0.15,
4.97,-1.65,-5.51,-2.50,-0.87,0.96,-0.13,
4.972,-1.32,-5.96,-3.48,-0.87,0.96,-0.13,
