
time,ax,ay,az,wx,wy,wz,
0.003,0.34,-0.58,-1.15,-0.84,-0.77,-0.79,
0.003,0.34,-0.58,-1.15,-0.86,-0.79,-0.79,
0.003,0.34,-0.58,-1.15,-0.88,-0.81,-0.79,
0.003,0.34,-0.58,-1.15,-0.89,-0.83,-0.78,
0.004,0.34,-0.58,-1.15,-0.90,-0.85,-0.77,
0.007,-0.25,-0.34,-0.98,-0.90,-0.85,-0.77,
0.008,-0.25,-0.34,-0.98,-0.90,-0.87,-0.75,
0.008,-0.25,-0.34,-0.98,-0.90,-0.87,-0.75,
0.009,-0.25,-0.34,-0.98,-0.90,-0.88,-0.73,
0.06,-0.25,-0.34,-0.98,-0.89,-0.89,-0.72,
0.061,-0.25,-0.34,-0.98,-0.87,-0.89,-0.71,
0.061,-0.25,-0.34,-0.98,-0.85,-0.90,-0.71,
0.062,-0.78,-0.13,-0.96,-0.85,-0.90,-0.71,
0.062,-0.78,-0.13,-0.96,-0.82,-0.90,-0.71,
0.062,-0.78,-0.13,-0.96,-0.80,-0.88,-0.72,
0.062,-0.78,-0.13,-0.96,-0.77,-0.87,-0.73,
0.063,-0.78,-0.13,-0.96,-0.75,-0.85,-0.74,
0.063,-0.78,-0.13,-0.96,-0.73,-0.83,-0.75,
0.063,-0.96,-0.52,-1.35,-0.73,-0.83,-0.75,
0.063,-0.96,-0.52,-1.35,-0.70,-0.81,-0.76,
0.064,-0.96,-0.52,-1.35,-0.68,-0.79,-0.78,
0.064,-0.96,-0.52,-1.35,-0.66,-0.77,-0.79,
0.064,-0.96,-0.52,-1.35,-0.63,-0.76,-0.81,
0.065,-0.96,-0.52,-1.35,-0.62,-0.75,-0.81,
0.065,-0.90,-1.06,-2.08,-0.62,-0.75,-0.81,
0.065,-0.90,-1.06,-2.08,-0.61,-0.74,-0.82,
0.065,-0.90,-1.06,-2.08,-0.60,-0.74,-0.83,
0.066,-0.90,-1.06,-2.08,-0.60,-0.75,-0.84,
0.066,-0.90,-1.06,-2.08,-0.60,-0.77,-0.84,
0.066,-0.90,-1.06,-2.08,-0.61,-0.79,-0.84,
0.066,-0.83,-1.27,-2.93,-0.61,-0.79,-0.84,
0.067,-0.83,-1.27,-2.93,-0.63,-0.82,-0.85,
0.067,-0.83,-1.27,-2.93,-0.64,-0.85,-0.85,
0.067,-0.83,-1.27,-2.93,-0.66,-0.88,-0.86,
0.067,-0.83,-1.27,-2.93,-0.68,-0.91,-0.86,
0.068,-0.83,-1.27,-2.93,-0.71,-0.94,-0.87,
0.068,-0.88,-1.22,-3.63,-0.71,-0.94,-0.87,
0.068,-0.88,-1.22,-3.63,-0.74,-0.96,-0.87,
0.068,-0.88,-1.22,-3.63,-0.77,-0.98,-0.88,
0.069,-0.88,-1.22,-3.63,-0.80,-1.00,-0.89,
0.069,-0.88,-1.22,-3.63,-0.84,-1.01,-0.90,
0.069,-0.88,-1.22,-3.63,-0.88,-1.01,-0.91,
0.069,-0.65,-1.23,-4.18,-0.88,-1.01,-0.91,
0.07,-0.65,-1.23,-4.18,-0.92,-1.00,-0.93,
0.07,-0.65,-1.23,-4.18,-0.96,-0.99,-0.94,
0.07,-0.65,-1.23,-4.18,-1.00,-0.97,-0.96,
0.075,-0.65,-1.23,-4.18,-1.04,-0.94,-0.98,
0.076,-0.65,-1.23,-4.18,-1.09,-0.91,-1.00,
0.077,-0.40,-1.25,-4.86,-1.09,-0.91,-1.00,
0.077,-0.40,-1.25,-4.86,-1.14,-0.88,-1.02,
0.079,-0.40,-1.25,-4.86,-1.18,-0.85,-1.04,
0.081,-0.40,-1.25,-4.86,-1.23,-0.82,-1.07,
0.083,-0.40,-1.25,-4.86,-1.28,-0.80,-1.09,
0.085,-0.40,-1.25,-4.86,-1.33,-0.78,-1.11,
0.087,-0.15,-1.29,-5.27,-1.33,-0.78,-1.11,
0.087,-0.15,-1.29,-5.27,-1.38,-0.78,-1.14,
0.089,-0.15,-1.29,-5.27,-1.44,-0.82,-1.16,
0.091,-0.15,-1.29,-5.27,-1.50,-0.93,-1.19,
0.093,-0.15,-1.29,-5.27,-1.57,-1.09,-1.22,
0.095,-0.15,-1.29,-5.27,-1.65,-1.26,-1.25,
0.097,-0.22,-1.74,-4.23,-1.65,-1.26,-1.25,
0.097,-0.22,-1.74,-4.23,-1.73,-1.36,-1.29,
0.099,-0.22,-1.74,-4.23,-1.81,-1.42,-1.33,
0.101,-0.22,-1.74,-4.23,-1.89,-1.47,-1.38,
0.102,-0.22,-1.74,-4.23,-1.97,-1.52,-1.43,
0.105,-0.22,-1.74,-4.23,-2.05,-1.58,-1.50,
0.107,0.78,-2.66,-4.22,-2.05,-1.58,-1.50,
0.115,0.78,-2.66,-4.22,-2.13,-1.63,-1.56,
0.116,0.78,-2.66,-4.22,-2.22,-1.68,-1.64,
0.116,0.78,-2.66,-4.22,-2.30,-1.71,-1.71,
0.116,0.78,-2.66,-4.22,-2.37,-1.73,-1.78,
0.116,0.78,-2.66,-4.22,-2.44,-1.74,-1.86,
0.119,1.29,-3.51,-4.31,-2.44,-1.74,-1.86,
0.12,1.29,-3.51,-4.31,-2.51,-1.74,-1.93,
0.131,1.29,-3.51,-4.31,-2.57,-1.74,-2.00,
0.131,1.29,-3.51,-4.31,-2.62,-1.73,-2.07,
0.131,1.29,-3.51,-4.31,-2.66,-1.71,-2.15,
0.131,1.29,-3.51,-4.31,-2.69,-1.69,-2.23,
0.131,1.32,-3.44,-4.00,-2.69,-1.69,-2.23,
0.131,1.32,-3.44,-4.00,-2.72,-1.68,-2.32,
0.131,1.32,-3.44,-4.00,-2.74,-1.66,-2.40,
0.132,1.32,-3.44,-4.00,-2.76,-1.64,-2.49,
0.132,1.32,-3.44,-4.00,-2.77,-1.63,-2.58,
0.134,1.32,-3.44,-4.00,-2.78,-1.63,-2.66,
0.137,1.57,-3.30,-3.30,-2.78,-1.63,-2.66,
0.137,1.57,-3.30,-3.30,-2.78,-1.62,-2.75,
0.141,1.57,-3.30,-3.30,-2.78,-1.62,-2.84,
0.141,1.57,-3.30,-3.30,-2.77,-1.62,-2.92,
0.145,1.57,-3.30,-3.30,-2.76,-1.62,-3.00,
0.145,1.57,-3.30,-3.30,-2.75,-1.63,-3.07,
0.147,1.50,-3.23,-2.90,-2.75,-1.63,-3.07,
0.147,1.50,-3.23,-2.90,-2.74,-1.63,-3.14,
0.149,1.50,-3.23,-2.90,-2.72,-1.63,-3.20,
0.15,1.50,-3.23,-2.90,-2.70,-1.62,-3.25,
0.152,1.50,-3.23,-2.90,-2.68,-1.62,-3.28,
0.154,1.50,-3.23,-2.90,-2.66,-1.62,-3.30,
0.157,0.18,-3.05,-2.60,-2.66,-1.62,-3.30,
0.157,0.18,-3.05,-2.60,-2.64,-1.61,-3.31,
0.159,0.18,-3.05,-2.60,-2.62,-1.60,-3.31,
0.163,0.18,-3.05,-2.60,-2.60,-1.59,-3.29,
0.164,0.18,-3.05,-2.60,-2.58,-1.58,-3.26,
0.165,0.18,-3.05,-2.60,-2.56,-1.55,-3.23,
0.167,-1.34,-2.38,-2.46,-2.56,-1.55,-3.23,
0.167,-1.34,-2.38,-2.46,-2.54,-1.52,-3.18,
0.168,-1.34,-2.38,-2.46,-2.52,-1.48,-3.13,
0.233,-1.34,-2.38,-2.46,-2.49,-1.42,-3.06,
0.234,-1.34,-2.38,-2.46,-2.46,-1.35,-3.00,
0.234,-1.34,-2.38,-2.46,-2.42,-1.27,-2.93,
0.234,-2.07,-1.68,-1.79,-2.42,-1.27,-2.93,
0.234,-2.07,-1.68,-1.79,-2.38,-1.18,-2.86,
0.235,-2.07,-1.68,-1.79,-2.33,-1.09,-2.78,
0.235,-2.07,-1.68,-1.79,-2.28,-0.99,-2.71,
0.235,-2.07,-1.68,-1.79,-2.22,-0.88,-2.64,
0.235,-2.07,-1.68,-1.79,-2.17,-0.78,-2.57,
0.236,-1.73,-1.05,-1.07,-2.17,-0.78,-2.57,
0.236,-1.73,-1.05,-1.07,-2.11,-0.68,-2.50,
0.236,-1.73,-1.05,-1.07,-2.05,-0.59,-2.43,
0.236,-1.73,-1.05,-1.07,-2.00,-0.50,-2.37,
0.237,-1.73,-1.05,-1.07,-1.94,-0.43,-2.31,
0.237,-1.73,-1.05,-1.07,-1.89,-0.36,-2.26,
0.237,-1.09,-0.93,-0.88,-1.89,-0.36,-2.26,
0.237,-1.09,-0.93,-0.88,-1.84,-0.29,-2.22,
0.238,-1.09,-0.93,-0.88,-1.80,-0.24,-2.19,
0.238,-1.09,-0.93,-0.88,-1.76,-0.20,-2.16,
0.238,-1.09,-0.93,-0.88,-1.73,-0.17,-2.14,
0.239,-1.09,-0.93,-0.88,-1.71,-0.16,-2.14,
0.239,0.07,-1.33,-1.05,-1.71,-0.16,-2.14,
0.239,0.07,-1.33,-1.05,-1.70,-0.16,-2.14,
0.239,0.07,-1.33,-1.05,-1.69,-0.17,-2.16,
0.24,0.07,-1.33,-1.05,-1.70,-0.18,-2.20,
0.24,0.07,-1.33,-1.05,-1.71,-0.19,-2.24,
0.24,0.07,-1.33,-1.05,-1.72,-0.20,-2.29,
0.24,1.62,-2.54,-1.16,-1.72,-0.20,-2.29,
0.241,1.62,-2.54,-1.16,-1.75,-0.21,-2.35,
0.241,1.62,-2.54,-1.16,-1.78,-0.21,-2.42,
0.241,1.62,-2.54,-1.16,-1.80,-0.21,-2.50,
0.241,1.62,-2.54,-1.16,-1.83,-0.22,-2.58,
0.242,1.62,-2.54,-1.16,-1.87,-0.23,-2.67,
0.242,2.51,-3.55,-0.52,-1.87,-0.23,-2.67,
0.242,2.51,-3.55,-0.52,-1.91,-0.24,-2.76,
0.242,2.51,-3.55,-0.52,-1.95,-0.27,-2.86,
0.243,2.51,-3.55,-0.52,-2.00,-0.30,-2.95,
0.243,2.51,-3.55,-0.52,-2.04,-0.35,-3.05,
0.243,2.51,-3.55,-0.52,-2.09,-0.40,-3.14,
0.243,2.74,-4.16,0.40,-2.09,-0.40,-3.14,
0.244,2.74,-4.16,0.40,-2.15,-0.46,-3.23,
0.244,2.74,-4.16,0.40,-2.20,-0.52,-3.32,
0.244,2.74,-4.16,0.40,-2.25,-0.59,-3.40,
0.244,2.74,-4.16,0.40,-2.31,-0.65,-3.47,
0.245,2.74,-4.16,0.40,-2.37,-0.72,-3.53,
0.251,1.92,-3.76,0.91,-2.37,-0.72,-3.53,
0.252,1.92,-3.76,0.91,-2.43,-0.79,-3.57,
0.252,1.92,-3.76,0.91,-2.48,-0.85,-3.61,
0.253,1.92,-3.76,0.91,-2.54,-0.92,-3.63,
0.253,1.92,-3.76,0.91,-2.59,-0.98,-3.64,
0.255,1.92,-3.76,0.91,-2.65,-1.03,-3.65,
0.258,0.81,-2.74,1.35,-2.65,-1.03,-3.65,
0.259,0.81,-2.74,1.35,-2.70,-1.07,-3.64,
0.259,0.81,-2.74,1.35,-2.75,-1.12,-3.62,
0.262,0.81,-2.74,1.35,-2.79,-1.15,-3.59,
0.264,0.81,-2.74,1.35,-2.83,-1.18,-3.55,
0.265,0.81,-2.74,1.35,-2.87,-1.20,-3.50,
0.268,-0.40,-1.17,1.76,-2.87,-1.20,-3.50,
0.268,-0.40,-1.17,1.76,-2.90,-1.22,-3.43,
0.268,-0.40,-1.17,1.76,-2.92,-1.22,-3.36,
0.271,-0.40,-1.17,1.76,-2.94,-1.23,-3.27,
0.273,-0.40,-1.17,1.76,-2.96,-1.23,-3.17,
0.295,-0.40,-1.17,1.76,-2.97,-1.22,-3.07,
0.295,-1.49,0.48,2.45,-2.97,-1.22,-3.07,
0.295,-1.49,0.48,2.45,-2.97,-1.22,-2.96,
0.295,-1.49,0.48,2.45,-2.97,-1.21,-2.85,
0.296,-1.49,0.48,2.45,-2.97,-1.19,-2.75,
0.296,-1.49,0.48,2.45,-2.96,-1.18,-2.64,
0.296,-1.49,0.48,2.45,-2.95,-1.16,-2.54,
0.296,-1.02,1.02,3.18,-2.95,-1.16,-2.54,
0.297,-1.02,1.02,3.18,-2.94,-1.15,-2.45,
0.297,-1.02,1.02,3.18,-2.92,-1.13,-2.36,
0.297,-1.02,1.02,3.18,-2.90,-1.12,-2.29,
0.297,-1.02,1.02,3.18,-2.89,-1.11,-2.21,
0.297,-1.02,1.02,3.18,-2.87,-1.11,-2.15,
0.297,-0.05,0.60,3.83,-2.87,-1.11,-2.15,
0.298,-0.05,0.60,3.83,-2.84,-1.11,-2.10,
0.311,-0.05,0.60,3.83,-2.82,-1.12,-2.05,
0.312,-0.05,0.60,3.83,-2.80,-1.14,-2.01,
0.312,-0.05,0.60,3.83,-2.78,-1.15,-1.97,
0.312,-0.05,0.60,3.83,-2.76,-1.18,-1.95,
0.312,0.92,-0.02,4.28,-2.76,-1.18,-1.95,
0.312,0.92,-0.02,4.28,-2.74,-1.20,-1.94,
0.313,0.92,-0.02,4.28,-2.72,-1.23,-1.93,
0.313,0.92,-0.02,4.28,-2.71,-1.25,-1.93,
0.327,0.92,-0.02,4.28,-2.70,-1.27,-1.94,
0.327,0.92,-0.02,4.28,-2.69,-1.28,-1.95,
0.327,2.15,-0.37,4.35,-2.69,-1.28,-1.95,
0.327,2.15,-0.37,4.35,-2.68,-1.29,-1.96,
0.328,2.15,-0.37,4.35,-2.67,-1.29,-1.97,
0.328,2.15,-0.37,4.35,-2.66,-1.29,-1.99,
0.328,2.15,-0.37,4.35,-2.65,-1.29,-2.00,
0.328,2.15,-0.37,4.35,-2.64,-1.30,-2.01,
0.328,2.66,-0.38,4.49,-2.64,-1.30,-2.01,
0.329,2.66,-0.38,4.49,-2.63,-1.30,-2.03,
0.329,2.66,-0.38,4.49,-2.61,-1.30,-2.03,
0.331,2.66,-0.38,4.49,-2.60,-1.30,-2.05,
0.333,2.66,-0.38,4.49,-2.59,-1.30,-2.06,
0.34,2.66,-0.38,4.49,-2.57,-1.30,-2.07,
0.342,2.71,-0.23,4.40,-2.57,-1.30,-2.07,
0.342,2.71,-0.23,4.40,-2.56,-1.30,-2.08,
0.342,2.71,-0.23,4.40,-2.54,-1.29,-2.09,
0.386,2.71,-0.23,4.40,-2.53,-1.29,-2.10,
0.386,2.71,-0.23,4.40,-2.51,-1.27,-2.12,
0.387,2.71,-0.23,4.40,-2.49,-1.26,-2.13,
0.387,2.55,-0.19,3.95,-2.49,-1.26,-2.13,
0.387,2.55,-0.19,3.95,-2.47,-1.23,-2.14,
0.387,2.55,-0.19,3.95,-2.44,-1.20,-2.16,
0.387,2.55,-0.19,3.95,-2.42,-1.17,-2.18,
0.388,2.55,-0.19,3.95,-2.39,-1.13,-2.20,
0.388,2.55,-0.19,3.95,-2.36,-1.08,-2.21,
0.388,2.29,-0.15,3.51,-2.36,-1.08,-2.21,
0.388,2.29,-0.15,3.51,-2.33,-1.03,-2.24,
0.388,2.29,-0.15,3.51,-2.30,-0.98,-2.26,
0.389,2.29,-0.15,3.51,-2.27,-0.92,-2.28,
0.389,2.29,-0.15,3.51,-2.24,-0.85,-2.31,
0.389,2.29,-0.15,3.51,-2.22,-0.77,-2.33,
0.389,1.92,-0.15,2.85,-2.22,-0.77,-2.33,
0.389,1.92,-0.15,2.85,-2.19,-0.69,-2.36,
0.39,1.92,-0.15,2.85,-2.16,-0.60,-2.38,
0.39,1.92,-0.15,2.85,-2.13,-0.50,-2.39,
0.39,1.92,-0.15,2.85,-2.10,-0.40,-2.41,
0.39,1.92,-0.15,2.85,-2.07,-0.30,-2.42,
0.39,1.00,0.14,2.38,-2.07,-0.30,-2.42,
0.391,1.00,0.14,2.38,-2.04,-0.19,-2.42,
0.391,1.00,0.14,2.38,-2.01,-0.08,-2.43,
0.391,1.00,0.14,2.38,-1.97,0.02,-2.42,
0.391,1.00,0.14,2.38,-1.93,0.16,-2.42,
0.391,1.00,0.14,2.38,-1.91,0.21,-2.42,
0.392,0.20,0.33,2.20,-1.91,0.21,-2.42,
0.392,0.20,0.33,2.20,-1.88,0.30,-2.42,
0.392,0.20,0.33,2.20,-1.85,0.38,-2.42,
0.395,0.20,0.33,2.20,-1.82,0.46,-2.41,
0.395,0.20,0.33,2.20,-1.78,0.53,-2.41,
0.396,0.20,0.33,2.20,-1.75,0.60,-2.41,
0.399,0.02,0.40,2.22,-1.75,0.60,-2.41,
0.399,0.02,0.40,2.22,-1.72,0.67,-2.41,
0.4,0.02,0.40,2.22,-1.69,0.74,-2.40,
0.401,0.02,0.40,2.22,-1.65,0.83,-2.40,
0.403,0.02,0.40,2.22,-1.63,0.85,-2.40,
0.405,0.02,0.40,2.22,-1.60,0.90,-2.40,
0.408,-0.26,0.42,2.70,-1.60,0.90,-2.40,
0.408,-0.26,0.42,2.70,-1.57,0.94,-2.40,
0.409,-0.26,0.42,2.70,-1.54,0.97,-2.40,
0.412,-0.26,0.42,2.70,-1.51,0.98,-2.40,
0.412,-0.26,0.42,2.70,-1.49,0.98,-2.41,
0.414,-0.26,0.42,2.70,-1.48,0.97,-2.41,
0.417,-0.12,0.45,3.47,-1.48,0.97,-2.41,
0.417,-0.12,0.45,3.47,-1.46,0.95,-2.42,
0.418,-0.12,0.45,3.47,-1.46,0.91,-2.44,
0.42,-0.12,0.45,3.47,-1.45,0.87,-2.46,
0.422,-0.12,0.45,3.47,-1.45,0.83,-2.48,
0.424,-0.12,0.45,3.47,-1.45,0.78,-2.50,
0.429,0.34,0.15,3.88,-1.45,0.78,-2.50,
0.429,0.34,0.15,3.88,-1.46,0.73,-2.52,
0.429,0.34,0.15,3.88,-1.46,0.67,-2.54,
0.43,0.34,0.15,3.88,-1.46,0.62,-2.56,
0.436,0.34,0.15,3.88,-1.46,0.56,-2.59,
0.436,0.34,0.15,3.88,-1.46,0.50,-2.61,
0.437,0.51,-0.08,4.41,-1.46,0.50,-2.61,
0.437,0.51,-0.08,4.41,-1.46,0.44,-2.64,
0.438,0.51,-0.08,4.41,-1.46,0.38,-2.66,
0.454,0.51,-0.08,4.41,-1.45,0.32,-2.69,
0.454,0.51,-0.08,4.41,-1.45,0.26,-2.71,
0.454,0.51,-0.08,4.41,-1.44,0.21,-2.73,
0.454,0.31,-0.11,4.68,-1.44,0.21,-2.73,
0.454,0.31,-0.11,4.68,-1.43,0.15,-2.75,
0.455,0.31,-0.11,4.68,-1.42,0.11,-2.77,
0.455,0.31,-0.11,4.68,-1.41,0.07,-2.79,
0.455,0.31,-0.11,4.68,-1.40,0.04,-2.80,
0.455,0.31,-0.11,4.68,-1.38,0.02,-2.81,
0.458,-0.25,0.31,4.74,-1.38,0.02,-2.81,
0.458,-0.25,0.31,4.74,-1.36,0.01,-2.81,
0.466,-0.25,0.31,4.74,-1.34,0.01,-2.82,
0.466,-0.25,0.31,4.74,-1.32,0.00,-2.81,
0.466,-0.25,0.31,4.74,-1.30,-0.01,-2.80,
0.467,-0.25,0.31,4.74,-1.28,-0.03,-2.79,
0.467,-0.64,0.95,4.79,-1.28,-0.03,-2.79,
0.467,-0.64,0.95,4.79,-1.25,-0.05,-2.78,
0.468,-0.64,0.95,4.79,-1.23,-0.08,-2.76,
0.47,-0.64,0.95,4.79,-1.20,-0.12,-2.74,
0.473,-0.64,0.95,4.79,-1.18,-0.17,-2.71,
0.475,-0.64,0.95,4.79,-1.16,-0.22,-2.68,
0.477,-0.94,1.78,4.86,-1.16,-0.22,-2.68,
0.477,-0.94,1.78,4.86,-1.14,-0.27,-2.66,
0.478,-0.94,1.78,4.86,-1.12,-0.32,-2.62,
0.48,-0.94,1.78,4.86,-1.11,-0.37,-2.59,
0.482,-0.94,1.78,4.86,-1.09,-0.42,-2.56,
0.484,-0.94,1.78,4.86,-1.08,-0.47,-2.52,
0.487,-1.20,2.19,4.90,-1.08,-0.47,-2.52,
0.487,-1.20,2.19,4.90,-1.06,-0.51,-2.49,
0.488,-1.20,2.19,4.90,-1.05,-0.55,-2.46,
0.49,-1.20,2.19,4.90,-1.04,-0.59,-2.44,
0.492,-1.20,2.19,4.90,-1.03,-0.63,-2.42,
0.494,-1.20,2.19,4.90,-1.02,-0.67,-2.40,
0.497,-0.63,2.27,4.91,-1.02,-0.67,-2.40,
0.497,-0.63,2.27,4.91,-1.02,-0.70,-2.39,
0.498,-0.63,2.27,4.91,-1.02,-0.75,-2.38,
0.5,-0.63,2.27,4.91,-1.03,-0.79,-2.37,
0.502,-0.63,2.27,4.91,-1.03,-0.84,-2.36,
0.505,-0.63,2.27,4.91,-1.04,-0.89,-2.36,
0.512,0.07,1.77,4.72,-1.04,-0.89,-2.36,
0.513,0.07,1.77,4.72,-1.05,-0.97,-2.34,
0.513,0.07,1.77,4.72,-1.05,-0.97,-2.34,
0.513,0.07,1.77,4.72,-1.05,-0.99,-2.32,
0.513,0.07,1.77,4.72,-1.05,-1.02,-2.31,
0.514,0.07,1.77,4.72,-1.04,-1.04,-2.30,
0.517,-0.15,1.69,5.17,-1.04,-1.04,-2.30,
0.518,-0.15,1.69,5.17,-1.03,-1.06,-2.29,
0.519,-0.15,1.69,5.17,-1.01,-1.09,-2.28,
0.521,-0.15,1.69,5.17,-0.98,-1.11,-2.27,
0.523,-0.15,1.69,5.17,-0.96,-1.14,-2.27,
0.544,-0.15,1.69,5.17,-0.92,-1.16,-2.27,
0.545,-0.12,1.50,5.77,-0.92,-1.16,-2.27,
0.545,-0.12,1.50,5.77,-0.88,-1.19,-2.28,
0.545,-0.12,1.50,5.77,-0.83,-1.22,-2.28,
0.545,-0.12,1.50,5.77,-0.78,-1.25,-2.28,
0.546,-0.12,1.50,5.77,-0.73,-1.27,-2.29,
0.546,-0.12,1.50,5.77,-0.68,-1.30,-2.29,
0.546,-0.08,1.39,6.11,-0.68,-1.30,-2.29,
0.546,-0.08,1.39,6.11,-0.62,-1.34,-2.30,
0.546,-0.08,1.39,6.11,-0.57,-1.38,-2.30,
0.546,-0.08,1.39,6.11,-0.52,-1.43,-2.30,
0.547,-0.08,1.39,6.11,-0.47,-1.48,-2.29,
0.547,-0.08,1.39,6.11,-0.43,-1.54,-2.29,
0.547,-0.02,1.31,5.50,-0.43,-1.54,-2.29,
0.547,-0.02,1.31,5.50,-0.39,-1.60,-2.29,
0.55,-0.02,1.31,5.50,-0.36,-1.68,-2.28,
0.552,-0.02,1.31,5.50,-0.34,-1.76,-2.28,
0.552,-0.02,1.31,5.50,-0.33,-1.84,-2.27,
0.554,-0.02,1.31,5.50,-0.32,-1.93,-2.27,
0.557,-0.09,1.20,3.92,-0.32,-1.93,-2.27,
0.557,-0.09,1.20,3.92,-0.33,-2.00,-2.25,
0.559,-0.09,1.20,3.92,-0.34,-2.07,-2.24,
0.561,-0.09,1.20,3.92,-0.35,-2.14,-2.22,
0.562,-0.09,1.20,3.92,-0.38,-2.20,-2.19,
0.566,-0.09,1.20,3.92,-0.40,-2.25,-2.16,
0.567,-0.85,1.19,2.24,-0.40,-2.25,-2.16,
0.567,-0.85,1.19,2.24,-0.43,-2.29,-2.13,
0.569,-0.85,1.19,2.24,-0.47,-2.32,-2.10,
0.57,-0.85,1.19,2.24,-0.50,-2.36,-2.07,
0.573,-0.85,1.19,2.24,-0.54,-2.38,-2.03,
0.575,-0.85,1.19,2.24,-0.58,-2.40,-2.00,
0.577,-1.39,1.28,0.95,-0.58,-2.40,-2.00,
0.577,-1.39,1.28,0.95,-0.62,-2.42,-1.97,
0.578,-1.39,1.28,0.95,-0.65,-2.43,-1.93,
0.581,-1.39,1.28,0.95,-0.69,-2.44,-1.90,
0.582,-1.39,1.28,0.95,-0.73,-2.44,-1.87,
0.584,-1.39,1.28,0.95,-0.76,-2.43,-1.84,
0.587,-1.59,0.96,0.20,-0.76,-2.43,-1.84,
0.587,-1.59,0.96,0.20,-0.79,-2.42,-1.81,
0.588,-1.59,0.96,0.20,-0.81,-2.39,-1.78,
0.592,-1.59,0.96,0.20,-0.83,-2.36,-1.75,
0.593,-1.59,0.96,0.20,-0.85,-2.33,-1.72,
0.595,-1.59,0.96,0.20,-0.87,-2.30,-1.69,
0.597,-1.99,0.33,0.20,-0.87,-2.30,-1.69,
0.597,-1.99,0.33,0.20,-0.88,-2.26,-1.66,
0.598,-1.99,0.33,0.20,-0.89,-2.24,-1.63,
0.601,-1.99,0.33,0.20,-0.90,-2.21,-1.61,
0.602,-1.99,0.33,0.20,-0.90,-2.19,-1.58,
0.604,-1.99,0.33,0.20,-0.91,-2.16,-1.56,
0.607,-1.91,-0.29,0.13,-0.91,-2.16,-1.56,
0.618,-1.91,-0.29,0.13,-0.92,-2.14,-1.54,
0.618,-1.91,-0.29,0.13,-0.93,-2.12,-1.52,
0.618,-1.91,-0.29,0.13,-0.93,-2.09,-1.50,
0.618,-1.91,-0.29,0.13,-0.94,-2.06,-1.48,
0.618,-1.91,-0.29,0.13,-0.94,-2.02,-1.45,
0.618,-2.21,-0.70,0.13,-0.94,-2.02,-1.45,
0.618,-2.21,-0.70,0.13,-0.94,-1.98,-1.43,
0.619,-2.21,-0.70,0.13,-0.94,-1.93,-1.41,
0.621,-2.21,-0.70,0.13,-0.93,-1.88,-1.38,
0.622,-2.21,-0.70,0.13,-0.93,-1.83,-1.35,
0.631,-2.21,-0.70,0.13,-0.92,-1.78,-1.33,
0.631,-2.72,-0.90,0.35,-0.92,-1.78,-1.33,
0.631,-2.72,-0.90,0.35,-0.91,-1.74,-1.30,
0.631,-2.72,-0.90,0.35,-0.90,-1.70,-1.27,
0.632,-2.72,-0.90,0.35,-0.89,-1.66,-1.24,
0.632,-2.72,-0.90,0.35,-0.87,-1.63,-1.20,
0.634,-2.72,-0.90,0.35,-0.86,-1.60,-1.16,
0.637,-3.70,-1.11,0.51,-0.86,-1.60,-1.16,
0.637,-3.70,-1.11,0.51,-0.83,-1.57,-1.11,
0.638,-3.70,-1.11,0.51,-0.81,-1.54,-1.05,
0.641,-3.70,-1.11,0.51,-0.79,-1.52,-0.99,
0.643,-3.70,-1.11,0.51,-0.76,-1.50,-0.91,
0.645,-3.70,-1.11,0.51,-0.73,-1.47,-0.83,
0.647,-5.51,-0.82,0.98,-0.73,-1.47,-0.83,
0.647,-5.51,-0.82,0.98,-0.70,-1.46,-0.75,
0.648,-5.51,-0.82,0.98,-0.66,-1.44,-0.67,
0.65,-5.51,-0.82,0.98,-0.62,-1.43,-0.59,
0.652,-5.51,-0.82,0.98,-0.59,-1.42,-0.52,
0.654,-5.51,-0.82,0.98,-0.56,-1.41,-0.45,
0.657,-6.55,-0.45,1.12,-0.56,-1.41,-0.45,
0.658,-6.55,-0.45,1.12,-0.53,-1.41,-0.38,
0.659,-6.55,-0.45,1.12,-0.51,-1.42,-0.31,
0.661,-6.55,-0.45,1.12,-0.49,-1.43,-0.25,
0.662,-6.55,-0.45,1.12,-0.48,-1.46,-0.19,
0.665,-6.55,-0.45,1.12,-0.47,-1.49,-0.13,
0.667,-6.35,-0.60,0.59,-0.47,-1.49,-0.13,
0.668,-6.35,-0.60,0.59,-0.46,-1.53,-0.08,
0.669,-6.35,-0.60,0.59,-0.45,-1.56,-0.03,
0.671,-6.35,-0.60,0.59,-0.45,-1.59,0.01,
0.673,-6.35,-0.60,0.59,-0.45,-1.62,0.06,
0.675,-6.35,-0.60,0.59,-0.46,-1.64,0.10,
0.677,-6.06,-0.86,0.43,-0.46,-1.64,0.10,
0.677,-6.06,-0.86,0.43,-0.47,-1.67,0.14,
0.679,-6.06,-0.86,0.43,-0.47,-1.69,0.17,
0.681,-6.06,-0.86,0.43,-0.48,-1.72,0.20,
0.683,-6.06,-0.86,0.43,-0.49,-1.75,0.22,
0.685,-6.06,-0.86,0.43,-0.50,-1.78,0.22,
0.687,-4.67,-1.01,0.80,-0.50,-1.78,0.22,
0.688,-4.67,-1.01,0.80,-0.50,-1.83,0.22,
0.689,-4.67,-1.01,0.80,-0.50,-1.89,0.21,
0.756,-4.67,-1.01,0.80,-0.50,-1.95,0.19,
0.757,-4.67,-1.01,0.80,-0.50,-2.01,0.16,
0.757,-4.67,-1.01,0.80,-0.50,-2.06,0.12,
0.758,-2.76,-1.52,1.34,-0.50,-2.06,0.12,
0.758,-2.76,-1.52,1.34,-0.50,-2.11,0.09,
0.758,-2.76,-1.52,1.34,-0.50,-2.15,0.05,
0.758,-2.76,-1.52,1.34,-0.50,-2.20,0.02,
0.759,-2.76,-1.52,1.34,-0.50,-2.23,-0.02,
0.759,-2.76,-1.52,1.34,-0.50,-2.27,-0.05,
0.759,-1.37,-1.45,1.51,-0.50,-2.27,-0.05,
0.759,-1.37,-1.45,1.51,-0.49,-2.31,-0.08,
0.76,-1.37,-1.45,1.51,-0.49,-2.34,-0.10,
0.76,-1.37,-1.45,1.51,-0.49,-2.37,-0.13,
0.76,-1.37,-1.45,1.51,-0.49,-2.40,-0.15,
0.76,-1.37,-1.45,1.51,-0.48,-2.42,-0.17,
0.761,-0.25,-0.81,1.46,-0.48,-2.42,-0.17,
0.761,-0.25,-0.81,1.46,-0.47,-2.43,-0.18,
0.761,-0.25,-0.81,1.46,-0.47,-2.45,-0.20,
0.761,-0.25,-0.81,1.46,-0.46,-2.46,-0.21,
0.762,-0.25,-0.81,1.46,-0.44,-2.47,-0.22,
0.762,-0.25,-0.81,1.46,-0.43,-2.47,-0.22,
0.762,0.45,0.18,1.42,-0.43,-2.47,-0.22,
0.762,0.45,0.18,1.42,-0.41,-2.47,-0.22,
0.762,0.45,0.18,1.42,-0.39,-2.45,-0.21,
0.763,0.45,0.18,1.42,-0.37,-2.43,-0.20,
0.763,0.45,0.18,1.42,-0.34,-2.40,-0.18,
0.763,0.45,0.18,1.42,-0.32,-2.38,-0.17,
0.763,1.35,1.33,1.49,-0.32,-2.38,-0.17,
0.764,1.35,1.33,1.49,-0.30,-2.36,-0.15,
0.764,1.35,1.33,1.49,-0.27,-2.33,-0.14,
0.764,1.35,1.33,1.49,-0.25,-2.31,-0.13,
0.764,1.35,1.33,1.49,-0.23,-2.29,-0.12,
0.765,1.35,1.33,1.49,-0.22,-2.27,-0.11,
0.765,2.71,1.78,0.87,-0.22,-2.27,-0.11,
0.765,2.71,1.78,0.87,-0.21,-2.25,-0.10,
0.765,2.71,1.78,0.87,-0.20,-2.22,-0.10,
0.766,2.71,1.78,0.87,-0.20,-2.19,-0.09,
0.766,2.71,1.78,0.87,-0.19,-2.15,-0.09,
0.766,2.71,1.78,0.87,-0.19,-2.10,-0.09,
0.766,3.48,1.49,0.10,-0.19,-2.10,-0.09,
0.767,3.48,1.49,0.10,-0.19,-2.05,-0.09,
0.767,3.48,1.49,0.10,-0.19,-2.00,-0.10,
0.767,3.48,1.49,0.10,-0.19,-1.96,-0.11,
0.767,3.48,1.49,0.10,-0.19,-1.92,-0.14,
0.767,3.48,1.49,0.10,-0.19,-1.88,-0.17,
0.768,4.37,0.85,0.01,-0.19,-1.88,-0.17,
0.768,4.37,0.85,0.01,-0.19,-1.85,-0.22,
0.768,4.37,0.85,0.01,-0.19,-1.82,-0.27,
0.771,4.37,0.85,0.01,-0.20,-1.79,-0.32,
0.775,4.37,0.85,0.01,-0.20,-1.76,-0.38,
0.799,4.37,0.85,0.01,-0.21,-1.73,-0.43,
0.8,4.80,0.05,-0.35,-0.21,-1.73,-0.43,
0.8,4.80,0.05,-0.35,-0.22,-1.69,-0.50,
0.8,4.80,0.05,-0.35,-0.23,-1.65,-0.56,
0.8,4.80,0.05,-0.35,-0.24,-1.61,-0.62,
0.8,4.80,0.05,-0.35,-0.25,-1.56,-0.69,
0.801,4.80,0.05,-0.35,-0.26,-1.50,-0.76,
0.801,4.37,-0.57,-0.84,-0.26,-1.50,-0.76,
0.801,4.37,-0.57,-0.84,-0.27,-1.43,-0.83,
0.801,4.37,-0.57,-0.84,-0.29,-1.35,-0.89,
0.801,4.37,-0.57,-0.84,-0.30,-1.25,-0.96,
0.801,4.37,-0.57,-0.84,-0.32,-1.14,-1.03,
0.802,4.37,-0.57,-0.84,-0.34,-1.02,-1.09,
0.802,3.94,-0.67,-1.84,-0.34,-1.02,-1.09,
0.802,3.94,-0.67,-1.84,-0.36,-0.89,-1.14,
0.802,3.94,-0.67,-1.84,-0.38,-0.75,-1.19,
0.811,3.94,-0.67,-1.84,-0.39,-0.60,-1.23,
0.811,3.94,-0.67,-1.84,-0.40,-0.44,-1.26,
0.811,3.94,-0.67,-1.84,-0.41,-0.29,-1.29,
0.811,2.46,-0.23,-1.85,-0.41,-0.29,-1.29,
0.812,2.46,-0.23,-1.85,-0.40,-0.13,-1.31,
0.812,2.46,-0.23,-1.85,-0.40,0.03,-1.32,
0.812,2.46,-0.23,-1.85,-0.39,0.19,-1.32,
0.813,2.46,-0.23,-1.85,-0.37,0.34,-1.32,
0.817,2.46,-0.23,-1.85,-0.34,0.48,-1.30,
0.818,0.44,0.55,-1.11,-0.34,0.48,-1.30,
0.818,0.44,0.55,-1.11,-0.31,0.60,-1.28,
0.821,0.44,0.55,-1.11,-0.28,0.70,-1.25,
0.821,0.44,0.55,-1.11,-0.24,0.79,-1.22,
0.825,0.44,0.55,-1.11,-0.20,0.86,-1.18,
0.825,0.44,0.55,-1.11,-0.15,0.92,-1.14,
0.828,-1.39,0.93,-0.05,-0.15,0.92,-1.14,
0.828,-1.39,0.93,-0.05,-0.11,0.97,-1.10,
0.829,-1.39,0.93,-0.05,-0.08,0.99,-1.05,
0.831,-1.39,0.93,-0.05,-0.04,1.00,-1.00,
0.833,-1.39,0.93,-0.05,-0.02,1.00,-0.96,
0.835,-1.39,0.93,-0.05,0.01,0.99,-0.91,
0.837,-2.75,0.67,0.85,0.01,0.99,-0.91,
0.837,-2.75,0.67,0.85,0.03,0.97,-0.87,
0.838,-2.75,0.67,0.85,0.04,0.95,-0.83,
0.844,-2.75,0.67,0.85,0.06,0.92,-0.79,
0.844,-2.75,0.67,0.85,0.06,0.88,-0.76,
0.844,-2.75,0.67,0.85,0.07,0.84,-0.73,
0.85,-3.25,0.12,1.52,0.07,0.84,-0.73,
0.85,-3.25,0.12,1.52,0.07,0.80,-0.70,
0.886,-3.25,0.12,1.52,0.08,0.74,-0.68,
0.886,-3.25,0.12,1.52,0.08,0.68,-0.66,
0.886,-3.25,0.12,1.52,0.09,0.61,-0.64,
0.886,-3.25,0.12,1.52,0.09,0.52,-0.63,
0.886,-3.55,-0.50,2.22,0.09,0.52,-0.63,
0.887,-3.55,-0.50,2.22,0.09,0.44,-0.61,
0.887,-3.55,-0.50,2.22,0.09,0.34,-0.60,
0.887,-3.55,-0.50,2.22,0.09,0.24,-0.59,
0.887,-3.55,-0.50,2.22,0.09,0.13,-0.58,
0.887,-3.55,-0.50,2.22,0.08,0.02,-0.57,
0.887,-3.43,-1.14,2.08,0.08,0.02,-0.57,
0.887,-3.43,-1.14,2.08,0.06,-0.09,-0.56,
0.888,-3.43,-1.14,2.08,0.04,-0.20,-0.56,
0.888,-3.43,-1.14,2.08,0.02,-0.29,-0.56,
0.888,-3.43,-1.14,2.08,-0.01,-0.37,-0.57,
0.888,-3.43,-1.14,2.08,-0.05,-0.43,-0.58,
0.888,-2.92,-1.69,1.16,-0.05,-0.43,-0.58,
0.888,-2.92,-1.69,1.16,-0.08,-0.47,-0.59,
0.888,-2.92,-1.69,1.16,-0.12,-0.49,-0.61,
0.889,-2.92,-1.69,1.16,-0.16,-0.50,-0.62,
0.889,-2.92,-1.69,1.16,-0.19,-0.50,-0.62,
0.889,-2.92,-1.69,1.16,-0.23,-0.49,-0.63,
0.889,-3.05,-1.39,0.06,-0.23,-0.49,-0.63,
0.889,-3.05,-1.39,0.06,-0.26,-0.48,-0.63,
0.889,-3.05,-1.39,0.06,-0.29,-0.46,-0.64,
0.894,-3.05,-1.39,0.06,-0.32,-0.44,-0.64,
0.894,-3.05,-1.39,0.06,-0.35,-0.43,-0.63,
0.899,-3.05,-1.39,0.06,-0.37,-0.42,-0.62,
0.899,-3.05,-0.78,-0.94,-0.37,-0.42,-0.62,
0.899,-3.05,-0.78,-0.94,-0.39,-0.41,-0.61,
0.899,-3.05,-0.78,-0.94,-0.41,-0.40,-0.60,
0.903,-3.05,-0.78,-0.94,-0.43,-0.38,-0.58,
0.904,-3.05,-0.78,-0.94,-0.45,-0.36,-0.56,
0.907,-3.05,-0.78,-0.94,-0.46,-0.34,-0.54,
0.907,-2.91,0.12,-1.96,-0.46,-0.34,-0.54,
0.907,-2.91,0.12,-1.96,-0.47,-0.31,-0.51,
0.91,-2.91,0.12,-1.96,-0.48,-0.27,-0.48,
0.91,-2.91,0.12,-1.96,-0.49,-0.23,-0.45,
0.913,-2.91,0.12,-1.96,-0.50,-0.20,-0.40,
0.917,-2.91,0.12,-1.96,-0.50,-0.17,-0.36,
0.917,-2.91,1.18,-2.47,-0.50,-0.17,-0.36,
0.917,-2.91,1.18,-2.47,-0.51,-0.14,-0.32,
0.921,-2.91,1.18,-2.47,-0.52,-0.12,-0.27,
0.921,-2.91,1.18,-2.47,-0.52,-0.10,-0.22,
0.925,-2.91,1.18,-2.47,-0.53,-0.09,-0.17,
0.931,-2.91,1.18,-2.47,-0.55,-0.08,-0.11,
0.932,-2.39,1.37,-2.67,-0.55,-0.08,-0.11,
0.932,-2.39,1.37,-2.67,-0.56,-0.08,-0.06,
0.932,-2.39,1.37,-2.67,-0.59,-0.07,-0.02,
0.932,-2.39,1.37,-2.67,-0.60,-0.06,0.02,
0.933,-2.39,1.37,-2.67,-0.63,-0.04,0.05,
0.938,-2.39,1.37,-2.67,-0.65,-0.00,0.08,
0.938,-1.49,0.74,-2.51,-0.65,-0.00,0.08,
0.938,-1.49,0.74,-2.51,-0.68,0.04,0.09,
0.938,-1.49,0.74,-2.51,-0.70,0.09,0.08,
0.958,-1.49,0.74,-2.51,-0.73,0.15,0.07,
0.958,-1.49,0.74,-2.51,-0.75,0.21,0.06,
0.959,-1.49,0.74,-2.51,-0.77,0.26,0.04,
0.959,-0.54,0.07,-1.74,-0.77,0.26,0.04,
0.959,-0.54,0.07,-1.74,-0.78,0.31,0.02,
0.959,-0.54,0.07,-1.74,-0.78,0.36,-0.00,
0.96,-0.54,0.07,-1.74,-0.78,0.40,-0.02,
0.96,-0.54,0.07,-1.74,-0.77,0.43,-0.04,
0.96,-0.54,0.07,-1.74,-0.76,0.47,-0.06,
0.96,-0.50,-0.68,-0.33,-0.76,0.47,-0.06,
0.96,-0.50,-0.68,-0.33,-0.74,0.50,-0.07,
0.961,-0.50,-0.68,-0.33,-0.71,0.53,-0.09,
0.961,-0.50,-0.68,-0.33,-0.68,0.56,-0.11,
0.969,-0.50,-0.68,-0.33,-0.65,0.59,-0.13,
0.97,-0.50,-0.68,-0.33,-0.62,0.62,-0.15,
0.97,-0.32,-0.81,0.75,-0.62,0.62,-0.15,
0.97,-0.32,-0.81,0.75,-0.58,0.65,-0.18,
0.971,-0.32,-0.81,0.75,-0.54,0.69,-0.20,
0.971,-0.32,-0.81,0.75,-0.50,0.74,-0.22,
0.978,-0.32,-0.81,0.75,-0.46,0.78,-0.24,
0.978,-0.32,-0.81,0.75,-0.42,0.83,-0.25,
0.978,-0.80,-0.56,1.26,-0.42,0.83,-0.25,
0.979,-0.80,-0.56,1.26,-0.38,0.87,-0.26,
0.988,-0.80,-0.56,1.26,-0.34,0.90,-0.27,
0.988,-0.80,-0.56,1.26,-0.29,0.93,-0.28,
0.988,-0.80,-0.56,1.26,-0.25,0.95,-0.28,
1.011,-0.80,-0.56,1.26,-0.20,0.96,-0.27,
1.011,-1.24,-0.02,1.45,-0.20,0.96,-0.27,
1.012,-1.24,-0.02,1.45,-0.16,0.96,-0.26,
1.012,-1.24,-0.02,1.45,-0.12,0.95,-0.25,
1.012,-1.24,-0.02,1.45,-0.09,0.93,-0.23,
1.012,-1.24,-0.02,1.45,-0.06,0.89,-0.21,
1.012,-1.24,-0.02,1.45,-0.04,0.86,-0.19,
1.013,-1.28,0.63,0.69,-0.04,0.86,-0.19,
1.013,-1.28,0.63,0.69,-0.04,0.82,-0.17,
1.013,-1.28,0.63,0.69,-0.03,0.79,-0.14,
1.013,-1.28,0.63,0.69,-0.04,0.75,-0.11,
1.013,-1.28,0.63,0.69,-0.05,0.73,-0.07,
1.013,-1.40,1.04,-0.74,-0.05,0.73,-0.07,
1.014,-1.40,1.04,-0.74,-0.08,0.67,0.01,
1.014,-1.40,1.04,-0.74,-0.08,0.67,0.01,
1.014,-1.40,1.04,-0.74,-0.10,0.64,0.05,
1.014,-1.40,1.04,-0.74,-0.13,0.61,0.09,
1.014,-1.40,1.04,-0.74,-0.16,0.58,0.13,
1.015,-1.40,1.04,-0.74,-0.19,0.54,0.18,
1.017,-1.30,0.87,-1.32,-0.19,0.54,0.18,
1.018,-1.30,0.87,-1.32,-0.22,0.49,0.22,
1.02,-1.30,0.87,-1.32,-0.25,0.44,0.25,
1.022,-1.30,0.87,-1.32,-0.29,0.39,0.28,
1.023,-1.30,0.87,-1.32,-0.32,0.33,0.32,
1.05,-1.30,0.87,-1.32,-0.36,0.27,0.34,
1.05,-0.91,0.18,-1.57,-0.36,0.27,0.34,
1.05,-0.91,0.18,-1.57,-0.40,0.21,0.37,
1.05,-0.91,0.18,-1.57,-0.44,0.15,0.39,
1.051,-0.91,0.18,-1.57,-0.48,0.10,0.41,
1.051,-0.91,0.18,-1.57,-0.52,0.04,0.43,
1.051,-0.91,0.18,-1.57,-0.56,-0.00,0.45,
1.051,-0.80,-0.96,-1.57,-0.56,-0.00,0.45,
1.051,-0.80,-0.96,-1.57,-0.59,-0.04,0.46,
1.052,-0.80,-0.96,-1.57,-0.63,-0.07,0.46,
1.052,-0.80,-0.96,-1.57,-0.66,-0.09,0.46,
1.052,-0.80,-0.96,-1.57,-0.69,-0.11,0.46,
1.052,-0.80,-0.96,-1.57,-0.71,-0.13,0.45,
1.052,-0.14,-2.05,-1.05,-0.71,-0.13,0.45,
1.053,-0.14,-2.05,-1.05,-0.73,-0.14,0.43,
1.053,-0.14,-2.05,-1.05,-0.75,-0.15,0.41,
1.053,-0.14,-2.05,-1.05,-0.76,-0.15,0.39,
1.053,-0.14,-2.05,-1.05,-0.77,-0.15,0.37,
1.056,-0.14,-2.05,-1.05,-0.78,-0.15,0.35,
1.06,0.40,-2.86,-0.37,-0.78,-0.15,0.35,
1.061,0.40,-2.86,-0.37,-0.78,-0.14,0.33,
1.061,0.40,-2.86,-0.37,-0.78,-0.13,0.31,
1.061,0.40,-2.86,-0.37,-0.77,-0.11,0.30,
1.063,0.40,-2.86,-0.37,-0.76,-0.09,0.28,
1.065,0.40,-2.86,-0.37,-0.74,-0.07,0.27,
1.069,0.32,-2.87,0.34,-0.74,-0.07,0.27,
1.069,0.32,-2.87,0.34,-0.72,-0.04,0.26,
1.069,0.32,-2.87,0.34,-0.69,-0.02,0.25,
1.072,0.32,-2.87,0.34,-0.64,0.02,0.24,
1.073,0.32,-2.87,0.34,-0.62,0.03,0.23,
1.074,0.32,-2.87,0.34,-0.59,0.06,0.22,
1.077,0.50,-2.44,0.57,-0.59,0.06,0.22,
1.077,0.50,-2.44,0.57,-0.55,0.09,0.20,
1.078,0.50,-2.44,0.57,-0.52,0.12,0.19,
1.08,0.50,-2.44,0.57,-0.48,0.16,0.17,
1.083,0.50,-2.44,0.57,-0.43,0.21,0.14,
1.084,0.50,-2.44,0.57,-0.41,0.23,0.14,
1.087,1.00,-1.86,0.07,-0.41,0.23,0.14,
1.087,1.00,-1.86,0.07,-0.38,0.28,0.12,
1.089,1.00,-1.86,0.07,-0.36,0.33,0.11,
1.091,1.00,-1.86,0.07,-0.33,0.39,0.09,
1.092,1.00,-1.86,0.07,-0.31,0.45,0.08,
1.095,1.00,-1.86,0.07,-0.28,0.51,0.06,
1.097,1.06,-1.34,-0.65,-0.28,0.51,0.06,
1.097,1.06,-1.34,-0.65,-0.26,0.58,0.05,
1.098,1.06,-1.34,-0.65,-0.25,0.64,0.04,
1.1,1.06,-1.34,-0.65,-0.22,0.74,0.02,
1.102,1.06,-1.34,-0.65,-0.22,0.77,0.01,
1.104,1.06,-1.34,-0.65,-0.21,0.85,0.01,
1.107,0.79,-0.57,-1.34,-0.21,0.85,0.01,
1.122,0.79,-0.57,-1.34,-0.20,0.93,-0.00,
1.122,0.79,-0.57,-1.34,-0.21,1.02,-0.01,
1.122,0.79,-0.57,-1.34,-0.22,1.12,-0.00,
1.122,0.79,-0.57,-1.34,-0.23,1.21,0.01,
1.122,0.79,-0.57,-1.34,-0.24,1.29,0.02,
1.123,0.21,-0.04,-2.12,-0.24,1.29,0.02,
1.123,0.21,-0.04,-2.12,-0.25,1.35,0.04,
1.123,0.21,-0.04,-2.12,-0.27,1.41,0.06,
1.123,0.21,-0.04,-2.12,-0.28,1.45,0.07,
1.123,0.21,-0.04,-2.12,-0.29,1.48,0.08,
1.125,0.21,-0.04,-2.12,-0.30,1.50,0.09,
1.127,0.32,0.27,-1.72,-0.30,1.50,0.09,
1.127,0.32,0.27,-1.72,-0.31,1.51,0.10,
1.13,0.32,0.27,-1.72,-0.31,1.52,0.11,
1.131,0.32,0.27,-1.72,-0.32,1.52,0.12,
1.132,0.32,0.27,-1.72,-0.32,1.52,0.12,
1.134,0.32,0.27,-1.72,-0.33,1.50,0.13,
1.137,0.43,0.36,-1.02,-0.33,1.50,0.13,
1.137,0.43,0.36,-1.02,-0.33,1.47,0.13,
1.138,0.43,0.36,-1.02,-0.33,1.45,0.13,
1.141,0.43,0.36,-1.02,-0.34,1.37,0.12,
1.142,0.43,0.36,-1.02,-0.34,1.33,0.11,
1.147,0.43,0.36,-1.02,-0.34,1.20,0.08,
1.147,1.20,-0.02,-0.31,-0.34,1.20,0.08,
1.147,1.20,-0.02,-0.31,-0.35,1.10,0.05,
1.15,1.20,-0.02,-0.31,-0.35,1.06,0.03,
1.15,1.20,-0.02,-0.31,-0.37,0.91,-0.03,
1.154,1.20,-0.02,-0.31,-0.37,0.87,-0.05,
1.155,1.20,-0.02,-0.31,-0.39,0.75,-0.12,
1.159,2.11,-0.61,-0.11,-0.39,0.75,-0.12,
1.159,2.11,-0.61,-0.11,-0.41,0.68,-0.17,
1.159,2.11,-0.61,-0.11,-0.42,0.65,-0.20,
1.163,2.11,-0.61,-0.11,-0.45,0.57,-0.28,
1.163,2.11,-0.61,-0.11,-0.46,0.55,-0.31,
1.167,2.11,-0.61,-0.11,-0.50,0.49,-0.39,
1.167,2.66,-0.93,-0.08,-0.50,0.49,-0.39,
1.167,2.66,-0.93,-0.08,-0.51,0.47,-0.44,
1.171,2.66,-0.93,-0.08,-0.52,0.46,-0.46,
1.171,2.66,-0.93,-0.08,-0.55,0.44,-0.53,
1.174,2.66,-0.93,-0.08,-0.56,0.44,-0.57,
1.174,2.66,-0.93,-0.08,-0.57,0.45,-0.61,
1.177,2.69,-0.50,-0.02,-0.57,0.45,-0.61,
1.177,2.69,-0.50,-0.02,-0.57,0.47,-0.63,
1.178,2.69,-0.50,-0.02,-0.57,0.49,-0.65,
1.18,2.69,-0.50,-0.02,-0.56,0.52,-0.67,
1.182,2.69,-0.50,-0.02,-0.55,0.54,-0.68,
1.184,2.69,-0.50,-0.02,-0.52,0.56,-0.68,
1.186,2.30,0.41,0.47,-0.52,0.56,-0.68,
1.186,2.30,0.41,0.47,-0.50,0.57,-0.68,
1.188,2.30,0.41,0.47,-0.47,0.58,-0.68,
1.208,2.30,0.41,0.47,-0.44,0.60,-0.67,
1.209,2.30,0.41,0.47,-0.40,0.61,-0.65,
1.209,2.30,0.41,0.47,-0.37,0.62,-0.64,
1.209,1.92,1.50,0.95,-0.37,0.62,-0.64,
1.209,1.92,1.50,0.95,-0.34,0.64,-0.62,
1.21,1.92,1.50,0.95,-0.30,0.66,-0.60,
1.21,1.92,1.50,0.95,-0.27,0.69,-0.57,
1.21,1.92,1.50,0.95,-0.24,0.72,-0.54,
1.21,1.92,1.50,0.95,-0.21,0.76,-0.50,
1.211,1.05,2.19,0.97,-0.21,0.76,-0.50,
1.211,1.05,2.19,0.97,-0.18,0.79,-0.45,
1.211,1.05,2.19,0.97,-0.15,0.82,-0.40,
1.211,1.05,2.19,0.97,-0.11,0.85,-0.35,
1.217,1.05,2.19,0.97,-0.08,0.87,-0.29,
1.217,1.05,2.19,0.97,-0.05,0.89,-0.23,
1.218,0.27,2.45,1.47,-0.05,0.89,-0.23,
1.218,0.27,2.45,1.47,-0.02,0.89,-0.17,
1.218,0.27,2.45,1.47,0.01,0.88,-0.12,
1.223,0.27,2.45,1.47,0.04,0.86,-0.07,
1.223,0.27,2.45,1.47,0.07,0.83,-0.04,
1.233,0.27,2.45,1.47,0.10,0.79,-0.00,
1.234,0.62,2.31,1.84,0.10,0.79,-0.00,
1.234,0.62,2.31,1.84,0.12,0.74,0.03,
1.234,0.62,2.31,1.84,0.14,0.69,0.06,
1.234,0.62,2.31,1.84,0.16,0.63,0.08,
1.235,0.62,2.31,1.84,0.18,0.56,0.10,
1.235,0.62,2.31,1.84,0.20,0.49,0.12,
1.24,1.01,2.06,1.98,0.20,0.49,0.12,
1.24,1.01,2.06,1.98,0.21,0.43,0.14,
1.24,1.01,2.06,1.98,0.23,0.37,0.16,
1.271,1.01,2.06,1.98,0.25,0.31,0.18,
1.271,1.01,2.06,1.98,0.27,0.25,0.20,
1.271,1.01,2.06,1.98,0.29,0.18,0.22,
1.272,0.97,1.65,2.48,0.29,0.18,0.22,
1.272,0.97,1.65,2.48,0.32,0.12,0.23,
1.272,0.97,1.65,2.48,0.34,0.07,0.24,
1.272,0.97,1.65,2.48,0.36,0.02,0.25,
1.272,0.97,1.65,2.48,0.38,-0.02,0.26,
1.273,0.97,1.65,2.48,0.39,-0.06,0.27,
1.273,0.89,1.31,2.38,0.39,-0.06,0.27,
1.273,0.89,1.31,2.38,0.40,-0.10,0.27,
1.273,0.89,1.31,2.38,0.40,-0.15,0.27,
1.273,0.89,1.31,2.38,0.40,-0.19,0.26,
1.273,0.89,1.31,2.38,0.39,-0.23,0.25,
1.274,0.89,1.31,2.38,0.38,-0.26,0.23,
1.274,1.33,0.87,1.19,0.38,-0.26,0.23,
1.274,1.33,0.87,1.19,0.36,-0.28,0.22,
1.274,1.33,0.87,1.19,0.34,-0.30,0.19,
1.274,1.33,0.87,1.19,0.30,-0.31,0.17,
1.274,1.33,0.87,1.19,0.27,-0.31,0.15,
1.295,1.33,0.87,1.19,0.24,-0.31,0.13,
1.295,1.50,0.33,-0.41,0.24,-0.31,0.13,
1.295,1.50,0.33,-0.41,0.20,-0.30,0.11,
1.295,1.50,0.33,-0.41,0.17,-0.28,0.09,
1.296,1.50,0.33,-0.41,0.13,-0.26,0.07,
1.296,1.50,0.33,-0.41,0.11,-0.24,0.05,
1.296,1.50,0.33,-0.41,0.08,-0.21,0.03,
1.297,1.34,-0.03,-1.37,0.08,-0.21,0.03,
1.297,1.34,-0.03,-1.37,0.06,-0.18,0.01,
1.297,1.34,-0.03,-1.37,0.03,-0.14,-0.00,
1.297,1.34,-0.03,-1.37,0.01,-0.10,-0.02,
1.298,1.34,-0.03,-1.37,-0.00,-0.06,-0.04,
1.298,1.34,-0.03,-1.37,-0.01,-0.01,-0.05,
1.298,1.30,-0.19,-2.11,-0.01,-0.01,-0.05,
1.298,1.30,-0.19,-2.11,-0.02,0.03,-0.06,
1.299,1.30,-0.19,-2.11,-0.02,0.08,-0.07,
1.306,1.30,-0.19,-2.11,-0.02,0.13,-0.08,
1.307,1.30,-0.19,-2.11,-0.02,0.18,-0.09,
1.307,1.30,-0.19,-2.11,-0.01,0.22,-0.10,
1.307,1.27,-0.49,-2.23,-0.01,0.22,-0.10,
1.307,1.27,-0.49,-2.23,0.01,0.27,-0.11,
1.309,1.27,-0.49,-2.23,0.03,0.31,-0.12,
1.311,1.27,-0.49,-2.23,0.04,0.36,-0.13,
1.313,1.27,-0.49,-2.23,0.06,0.41,-0.15,
1.315,1.27,-0.49,-2.23,0.08,0.45,-0.16,
1.317,1.41,-0.58,-2.52,0.08,0.45,-0.16,
1.318,1.41,-0.58,-2.52,0.09,0.49,-0.17,
1.32,1.41,-0.58,-2.52,0.11,0.53,-0.18,
1.32,1.41,-0.58,-2.52,0.13,0.58,-0.19,
1.325,1.41,-0.58,-2.52,0.14,0.62,-0.20,
1.326,1.41,-0.58,-2.52,0.15,0.66,-0.21,
1.33,1.35,-0.39,-2.84,0.15,0.66,-0.21,
1.331,1.35,-0.39,-2.84,0.16,0.70,-0.21,
1.331,1.35,-0.39,-2.84,0.17,0.73,-0.22,
1.331,1.35,-0.39,-2.84,0.17,0.76,-0.22,
1.335,1.35,-0.39,-2.84,0.18,0.79,-0.22,
1.335,1.35,-0.39,-2.84,0.18,0.81,-0.22,
1.339,1.28,-0.22,-3.00,0.18,0.81,-0.22,
1.339,1.28,-0.22,-3.00,0.18,0.82,-0.22,
1.34,1.28,-0.22,-3.00,0.18,0.82,-0.22,
1.344,1.28,-0.22,-3.00,0.17,0.81,-0.22,
1.345,1.28,-0.22,-3.00,0.16,0.80,-0.22,
1.345,1.28,-0.22,-3.00,0.14,0.78,-0.22,
1.35,1.35,-0.07,-2.87,0.14,0.78,-0.22,
1.35,1.35,-0.07,-2.87,0.12,0.76,-0.23,
1.35,1.35,-0.07,-2.87,0.10,0.73,-0.23,
1.351,1.35,-0.07,-2.87,0.08,0.69,-0.23,
1.355,1.35,-0.07,-2.87,0.04,0.66,-0.23,
1.355,1.35,-0.07,-2.87,0.01,0.62,-0.23,
1.385,1.42,-0.05,-3.05,0.01,0.62,-0.23,
1.385,1.42,-0.05,-3.05,-0.03,0.59,-0.23,
1.386,1.42,-0.05,-3.05,-0.07,0.56,-0.23,
1.386,1.42,-0.05,-3.05,-0.10,0.53,-0.23,
1.386,1.42,-0.05,-3.05,-0.14,0.49,-0.24,
1.387,1.42,-0.05,-3.05,-0.18,0.46,-0.23,
1.387,1.39,-0.04,-2.81,-0.18,0.46,-0.23,
1.387,1.39,-0.04,-2.81,-0.22,0.42,-0.23,
1.387,1.39,-0.04,-2.81,-0.25,0.39,-0.22,
1.388,1.39,-0.04,-2.81,-0.29,0.35,-0.21,
1.388,1.39,-0.04,-2.81,-0.37,0.40,-0.13,
1.388,1.39,-0.04,-2.81,-0.56,0.60,0.14,
1.388,-4.04,0.73,-6.04,-0.56,0.60,0.14,
1.389,-4.04,0.73,-6.04,-0.74,0.66,0.35,
1.389,-4.04,0.73,-6.04,-0.86,0.60,0.49,
1.389,-4.04,0.73,-6.04,-0.96,0.51,0.57,
1.389,-4.04,0.73,-6.04,-1.02,0.41,0.61,
1.39,-4.04,0.73,-6.04,-1.05,0.32,0.61,
1.39,-0.38,2.03,-3.34,-1.05,0.32,0.61,
1.39,-0.38,2.03,-3.34,-1.06,0.24,0.58,
1.39,-0.38,2.03,-3.34,-1.04,0.13,0.50,
1.391,-0.38,2.03,-3.34,-0.98,0.00,0.39,
1.4,-0.38,2.03,-3.34,-0.89,-0.15,0.24,
1.4,-0.38,2.03,-3.34,-0.76,-0.30,0.09,
1.4,4.46,0.17,1.79,-0.76,-0.30,0.09,
1.4,4.46,0.17,1.79,-0.63,-0.43,-0.04,
1.401,4.46,0.17,1.79,-0.51,-0.50,-0.13,
1.401,4.46,0.17,1.79,-0.40,-0.55,-0.20,
1.408,4.46,0.17,1.79,-0.30,-0.58,-0.25,
1.409,4.46,0.17,1.79,-0.22,-0.58,-0.30,
1.409,3.11,-1.65,2.43,-0.22,-0.58,-0.30,
1.409,3.11,-1.65,2.43,-0.15,-0.56,-0.33,
1.409,3.11,-1.65,2.43,-0.10,-0.52,-0.35,
1.412,3.11,-1.65,2.43,-0.06,-0.46,-0.36,
1.414,3.11,-1.65,2.43,-0.03,-0.38,-0.35,
1.414,3.11,-1.65,2.43,-0.02,-0.30,-0.32,
1.418,3.32,-0.86,1.82,-0.02,-0.30,-0.32,
1.418,3.32,-0.86,1.82,-0.02,-0.21,-0.28,
1.419,3.32,-0.86,1.82,-0.02,-0.13,-0.23,
1.431,3.32,-0.86,1.82,-0.02,-0.05,-0.17,
1.432,3.32,-0.86,1.82,-0.02,0.01,-0.12,
1.432,3.32,-0.86,1.82,-0.02,0.06,-0.07,
1.432,2.72,0.01,1.41,-0.02,0.06,-0.07,
1.432,2.72,0.01,1.41,-0.02,0.10,-0.04,
1.432,2.72,0.01,1.41,-0.00,0.13,-0.02,
1.433,2.72,0.01,1.41,0.01,0.15,-0.01,
1.434,2.72,0.01,1.41,0.04,0.16,-0.02,
1.469,2.72,0.01,1.41,0.06,0.17,-0.03,
1.47,2.73,0.54,1.74,0.06,0.17,-0.03,
1.471,2.73,0.54,1.74,0.09,0.18,-0.06,
1.471,2.73,0.54,1.74,0.11,0.19,-0.08,
1.492,2.73,0.54,1.74,0.13,0.21,-0.11,
1.492,2.73,0.54,1.74,0.15,0.22,-0.14,
1.492,2.73,0.54,1.74,0.17,0.23,-0.16,
1.493,2.29,0.39,1.56,0.17,0.23,-0.16,
1.493,2.29,0.39,1.56,0.18,0.24,-0.18,
1.493,2.29,0.39,1.56,0.19,0.24,-0.20,
1.494,2.29,0.39,1.56,0.20,0.25,-0.22,
1.494,2.29,0.39,1.56,0.20,0.26,-0.23,
1.494,2.29,0.39,1.56,0.20,0.26,-0.24,
1.494,1.55,0.38,1.04,0.20,0.26,-0.24,
1.495,1.55,0.38,1.04,0.20,0.26,-0.25,
1.495,1.55,0.38,1.04,0.20,0.27,-0.25,
1.495,1.55,0.38,1.04,0.20,0.27,-0.25,
1.495,1.55,0.38,1.04,0.20,0.27,-0.25,
1.496,1.55,0.38,1.04,0.21,0.26,-0.24,
1.496,0.61,0.55,0.70,0.21,0.26,-0.24,
1.496,0.61,0.55,0.70,0.21,0.26,-0.24,
1.496,0.61,0.55,0.70,0.22,0.24,-0.24,
1.497,0.61,0.55,0.70,0.23,0.23,-0.24,
1.497,0.61,0.55,0.70,0.24,0.20,-0.24,
1.497,0.61,0.55,0.70,0.25,0.18,-0.25,
1.497,-0.05,0.78,0.68,0.25,0.18,-0.25,
1.498,-0.05,0.78,0.68,0.27,0.15,-0.25,
1.498,-0.05,0.78,0.68,0.29,0.12,-0.26,
1.498,-0.05,0.78,0.68,0.31,0.09,-0.27,
1.498,-0.05,0.78,0.68,0.32,0.06,-0.28,
1.499,-0.05,0.78,0.68,0.33,0.03,-0.29,
1.499,-0.14,1.16,0.59,0.33,0.03,-0.29,
1.499,-0.14,1.16,0.59,0.34,0.00,-0.30,
1.5,-0.14,1.16,0.59,0.35,-0.03,-0.30,
1.5,-0.14,1.16,0.59,0.35,-0.06,-0.30,
1.5,-0.14,1.16,0.59,0.35,-0.09,-0.30,
1.5,-0.14,1.16,0.59,0.34,-0.12,-0.29,
1.501,-0.32,1.58,0.09,0.34,-0.12,-0.29,
1.501,-0.32,1.58,0.09,0.34,-0.15,-0.28,
1.501,-0.32,1.58,0.09,0.33,-0.18,-0.26,
1.501,-0.32,1.58,0.09,0.32,-0.20,-0.25,
1.509,-0.32,1.58,0.09,0.31,-0.21,-0.23,
1.509,-0.32,1.58,0.09,0.29,-0.22,-0.22,
1.511,-0.41,1.89,-0.56,0.29,-0.22,-0.22,
1.511,-0.41,1.89,-0.56,0.25,-0.23,-0.18,
1.511,-0.41,1.89,-0.56,0.25,-0.23,-0.18,
1.511,-0.41,1.89,-0.56,0.23,-0.23,-0.16,
1.514,-0.41,1.89,-0.56,0.21,-0.23,-0.14,
1.515,-0.41,1.89,-0.56,0.20,-0.23,-0.12,
1.519,-0.38,2.17,-0.69,0.20,-0.23,-0.12,
1.547,-0.38,2.17,-0.69,0.18,-0.22,-0.11,
1.547,-0.38,2.17,-0.69,0.16,-0.20,-0.09,
1.547,-0.38,2.17,-0.69,0.14,-0.19,-0.07,
1.548,-0.38,2.17,-0.69,0.12,-0.17,-0.05,
1.548,-0.38,2.17,-0.69,0.10,-0.16,-0.02,
1.548,-0.30,2.08,-0.73,0.10,-0.16,-0.02,
1.548,-0.30,2.08,-0.73,0.07,-0.15,-0.00,
1.548,-0.30,2.08,-0.73,0.05,-0.14,0.03,
1.549,-0.30,2.08,-0.73,0.03,-0.13,0.06,
1.549,-0.30,2.08,-0.73,0.01,-0.12,0.10,
1.549,-0.30,2.08,-0.73,-0.01,-0.12,0.14,
1.549,-0.50,2.18,-0.67,-0.01,-0.12,0.14,
1.55,-0.50,2.18,-0.67,-0.04,-0.10,0.18,
1.55,-0.50,2.18,-0.67,-0.08,-0.09,0.23,
1.55,-0.50,2.18,-0.67,-0.12,-0.06,0.26,
1.55,-0.50,2.18,-0.67,-0.17,-0.04,0.30,
1.55,-0.50,2.18,-0.67,-0.23,-0.03,0.35,
1.551,0.02,3.22,-1.49,-0.23,-0.03,0.35,
1.551,0.02,3.22,-1.49,-0.27,-0.04,0.41,
1.551,0.02,3.22,-1.49,-0.31,-0.08,0.49,
1.551,0.02,3.22,-1.49,-0.35,-0.14,0.57,
1.566,0.02,3.22,-1.49,-0.39,-0.20,0.64,
1.567,0.02,3.22,-1.49,-0.42,-0.27,0.72,
1.567,-0.60,2.94,-1.16,-0.42,-0.27,0.72,
1.567,-0.60,2.94,-1.16,-0.44,-0.33,0.79,
1.567,-0.60,2.94,-1.16,-0.47,-0.39,0.85,
1.567,-0.60,2.94,-1.16,-0.49,-0.45,0.91,
1.568,-0.60,2.94,-1.16,-0.50,-0.51,0.95,
1.569,-0.60,2.94,-1.16,-0.49,-0.56,1.00,
1.569,-0.24,2.02,-0.18,-0.49,-0.56,1.00,
1.569,-0.24,2.02,-0.18,-0.54,-0.63,1.03,
1.569,-0.24,2.02,-0.18,-0.53,-0.68,1.06,
1.572,-0.24,2.02,-0.18,-0.52,-0.72,1.09,
1.575,-0.24,2.02,-0.18,-0.50,-0.79,1.11,
1.575,-0.24,2.02,-0.18,-0.50,-0.85,1.12,
1.579,0.10,0.66,0.98,-0.50,-0.85,1.12,
1.579,0.10,0.66,0.98,-0.49,-0.92,1.12,
1.581,0.10,0.66,0.98,-0.48,-1.00,1.12,
1.581,0.10,0.66,0.98,-0.46,-1.07,1.10,
1.583,0.10,0.66,0.98,-0.44,-1.15,1.07,
1.585,0.10,0.66,0.98,-0.43,-1.22,1.04,
1.588,0.94,-1.01,1.44,-0.43,-1.22,1.04,
1.589,0.94,-1.01,1.44,-0.42,-1.28,0.99,
1.59,0.94,-1.01,1.44,-0.41,-1.32,0.93,
1.593,0.94,-1.01,1.44,-0.40,-1.36,0.87,
1.593,0.94,-1.01,1.44,-0.39,-1.38,0.81,
1.595,0.94,-1.01,1.44,-0.39,-1.40,0.74,
1.599,1.36,-2.34,1.22,-0.39,-1.40,0.74,
1.599,1.36,-2.34,1.22,-0.38,-1.41,0.67,
1.599,1.36,-2.34,1.22,-0.37,-1.41,0.61,
1.602,1.36,-2.34,1.22,-0.36,-1.40,0.54,
1.603,1.36,-2.34,1.22,-0.36,-1.39,0.48,
1.605,1.36,-2.34,1.22,-0.35,-1.38,0.43,
1.608,1.06,-2.50,1.14,-0.35,-1.38,0.43,
1.625,1.06,-2.50,1.14,-0.34,-1.36,0.38,
1.625,1.06,-2.50,1.14,-0.32,-1.34,0.33,
1.625,1.06,-2.50,1.14,-0.31,-1.32,0.29,
1.625,1.06,-2.50,1.14,-0.30,-1.30,0.26,
1.626,1.06,-2.50,1.14,-0.29,-1.27,0.22,
1.626,0.68,-2.15,0.96,-0.29,-1.27,0.22,
1.626,0.68,-2.15,0.96,-0.28,-1.24,0.20,
1.626,0.68,-2.15,0.96,-0.27,-1.21,0.17,
1.627,0.68,-2.15,0.96,-0.27,-1.18,0.15,
1.627,0.68,-2.15,0.96,-0.25,-1.15,0.14,
1.627,0.68,-2.15,0.96,-0.25,-1.10,0.12,
1.627,0.09,-1.66,0.50,-0.25,-1.10,0.12,
1.627,0.09,-1.66,0.50,-0.24,-1.05,0.11,
1.632,0.09,-1.66,0.50,-0.22,-0.99,0.11,
1.633,0.09,-1.66,0.50,-0.20,-0.94,0.11,
1.634,0.09,-1.66,0.50,-0.18,-0.88,0.12,
1.638,0.09,-1.66,0.50,-0.17,-0.82,0.13,
1.638,-1.10,-0.96,0.65,-0.17,-0.82,0.13,
1.638,-1.10,-0.96,0.65,-0.14,-0.76,0.15,
1.639,-1.10,-0.96,0.65,-0.12,-0.71,0.16,
1.641,-1.10,-0.96,0.65,-0.10,-0.66,0.19,
1.643,-1.10,-0.96,0.65,-0.08,-0.62,0.21,
1.645,-1.10,-0.96,0.65,-0.06,-0.57,0.24,
1.649,-2.06,-0.18,0.65,-0.06,-0.57,0.24,
1.65,-2.06,-0.18,0.65,-0.05,-0.52,0.27,
1.65,-2.06,-0.18,0.65,-0.04,-0.47,0.31,
1.652,-2.06,-0.18,0.65,-0.03,-0.43,0.35,
1.656,-2.06,-0.18,0.65,-0.03,-0.39,0.39,
1.657,-2.06,-0.18,0.65,-0.03,-0.35,0.44,
1.659,-3.15,0.41,0.39,-0.03,-0.35,0.44,
1.659,-3.15,0.41,0.39,-0.03,-0.34,0.49,
1.659,-3.15,0.41,0.39,-0.03,-0.33,0.53,
1.661,-3.15,0.41,0.39,-0.04,-0.33,0.57,
1.663,-3.15,0.41,0.39,-0.06,-0.31,0.61,
1.665,-3.15,0.41,0.39,-0.10,-0.31,0.64,
1.712,-2.75,0.66,-0.25,-0.10,-0.31,0.64,
1.712,-2.75,0.66,-0.25,-0.13,-0.30,0.66,
1.713,-2.75,0.66,-0.25,-0.17,-0.29,0.68,
1.713,-2.75,0.66,-0.25,-0.21,-0.27,0.70,
1.713,-2.75,0.66,-0.25,-0.26,-0.25,0.71,
1.713,-2.75,0.66,-0.25,-0.30,-0.22,0.71,
1.713,-1.83,-0.31,-1.20,-0.30,-0.22,0.71,
1.714,-1.83,-0.31,-1.20,-0.34,-0.20,0.72,
1.714,-1.83,-0.31,-1.20,-0.38,-0.18,0.72,
1.714,-1.83,-0.31,-1.20,-0.42,-0.17,0.72,
1.714,-1.83,-0.31,-1.20,-0.45,-0.15,0.71,
1.714,-1.83,-0.31,-1.20,-0.48,-0.14,0.71,
1.715,-1.38,-0.90,-1.18,-0.48,-0.14,0.71,
1.715,-1.38,-0.90,-1.18,-0.49,-0.13,0.70,
1.715,-1.38,-0.90,-1.18,-0.51,-0.13,0.69,
1.715,-1.38,-0.90,-1.18,-0.51,-0.13,0.68,
1.715,-1.38,-0.90,-1.18,-0.50,-0.14,0.67,
1.716,-1.38,-0.90,-1.18,-0.49,-0.14,0.66,
1.716,-1.24,-0.84,-0.31,-0.49,-0.14,0.66,
1.716,-1.24,-0.84,-0.31,-0.48,-0.15,0.64,
1.716,-1.24,-0.84,-0.31,-0.46,-0.15,0.63,
1.717,-1.24,-0.84,-0.31,-0.43,-0.16,0.61,
1.717,-1.24,-0.84,-0.31,-0.40,-0.16,0.60,
1.717,-1.24,-0.84,-0.31,-0.36,-0.16,0.58,
1.717,-1.26,-0.76,0.12,-0.36,-0.16,0.58,
1.717,-1.26,-0.76,0.12,-0.33,-0.16,0.56,
1.717,-1.26,-0.76,0.12,-0.30,-0.16,0.54,
1.718,-1.26,-0.76,0.12,-0.26,-0.15,0.50,
1.718,-1.26,-0.76,0.12,-0.22,-0.15,0.47,
1.718,-1.26,-0.76,0.12,-0.18,-0.13,0.42,
1.718,-0.82,-0.40,0.06,-0.18,-0.13,0.42,
1.718,-0.82,-0.40,0.06,-0.14,-0.11,0.36,
1.718,-0.82,-0.40,0.06,-0.09,-0.08,0.28,
1.721,-0.82,-0.40,0.06,-0.03,-0.06,0.16,
1.723,-0.82,-0.40,0.06,0.02,-0.05,0.05,
1.725,-0.82,-0.40,0.06,0.06,-0.03,0.01,
1.727,-1.05,1.19,-0.05,0.06,-0.03,0.01,
1.727,-1.05,1.19,-0.05,0.10,0.01,-0.01,
1.728,-1.05,1.19,-0.05,0.15,0.03,0.01,
1.73,-1.05,1.19,-0.05,0.19,0.05,0.06,
1.732,-1.05,1.19,-0.05,0.23,0.05,0.13,
1.734,-1.05,1.19,-0.05,0.27,0.06,0.19,
1.737,-4.14,-1.74,-0.43,0.27,0.06,0.19,
1.738,-4.14,-1.74,-0.43,0.30,0.06,0.24,
1.738,-4.14,-1.74,-0.43,0.32,0.08,0.28,
1.74,-4.14,-1.74,-0.43,0.35,0.10,0.30,
1.742,-4.14,-1.74,-0.43,0.37,0.13,0.30,
1.744,-4.14,-1.74,-0.43,0.40,0.15,0.29,
1.747,-2.49,-1.74,0.07,0.40,0.15,0.29,
1.747,-2.49,-1.74,0.07,0.43,0.17,0.28,
1.748,-2.49,-1.74,0.07,0.46,0.17,0.26,
1.75,-2.49,-1.74,0.07,0.49,0.16,0.24,
1.752,-2.49,-1.74,0.07,0.52,0.13,0.23,
1.754,-2.49,-1.74,0.07,0.55,0.09,0.21,
1.757,-1.33,-1.78,0.76,0.55,0.09,0.21,
1.757,-1.33,-1.78,0.76,0.59,0.04,0.20,
1.758,-1.33,-1.78,0.76,0.62,-0.02,0.17,
1.76,-1.33,-1.78,0.76,0.65,-0.07,0.14,
1.762,-1.33,-1.78,0.76,0.68,-0.12,0.09,
1.764,-1.33,-1.78,0.76,0.70,-0.15,0.03,
1.767,0.95,-2.84,0.57,0.70,-0.15,0.03,
1.767,0.95,-2.84,0.57,0.73,-0.16,-0.03,
1.77,0.95,-2.84,0.57,0.75,-0.17,-0.09,
1.771,0.95,-2.84,0.57,0.76,-0.16,-0.15,
1.773,0.95,-2.84,0.57,0.78,-0.14,-0.20,
1.785,0.95,-2.84,0.57,0.79,-0.12,-0.25,
1.786,2.33,-3.41,0.27,0.79,-0.12,-0.25,
1.786,2.33,-3.41,0.27,0.80,-0.09,-0.28,
1.786,2.33,-3.41,0.27,0.80,-0.07,-0.30,
1.786,2.33,-3.41,0.27,0.80,-0.03,-0.31,
1.786,2.33,-3.41,0.27,0.79,0.00,-0.30,
1.787,2.33,-3.41,0.27,0.77,0.04,-0.27,
1.79,2.18,-2.94,0.61,0.77,0.04,-0.27,
1.79,2.18,-2.94,0.61,0.75,0.08,-0.23,
1.79,2.18,-2.94,0.61,0.71,0.12,-0.18,
1.791,2.18,-2.94,0.61,0.67,0.16,-0.13,
1.792,2.18,-2.94,0.61,0.62,0.20,-0.07,
1.794,2.18,-2.94,0.61,0.57,0.25,-0.01,
1.797,0.88,-1.72,0.67,0.57,0.25,-0.01,
1.797,0.88,-1.72,0.67,0.50,0.30,0.05,
1.798,0.88,-1.72,0.67,0.44,0.34,0.11,
1.8,0.88,-1.72,0.67,0.36,0.38,0.16,
1.802,0.88,-1.72,0.67,0.29,0.42,0.21,
1.808,0.88,-1.72,0.67,0.22,0.46,0.26,
1.808,-0.61,-0.60,0.26,0.22,0.46,0.26,
1.808,-0.61,-0.60,0.26,0.14,0.51,0.29,
1.808,-0.61,-0.60,0.26,0.07,0.56,0.33,
1.811,-0.61,-0.60,0.26,-0.01,0.60,0.37,
1.813,-0.61,-0.60,0.26,-0.08,0.64,0.40,
1.815,-0.61,-0.60,0.26,-0.15,0.68,0.44,
1.817,-1.93,-0.03,-0.12,-0.15,0.68,0.44,
1.817,-1.93,-0.03,-0.12,-0.22,0.73,0.47,
1.819,-1.93,-0.03,-0.12,-0.28,0.78,0.50,
1.821,-1.93,-0.03,-0.12,-0.33,0.83,0.53,
1.823,-1.93,-0.03,-0.12,-0.39,0.88,0.56,
1.825,-1.93,-0.03,-0.12,-0.43,0.92,0.59,
1.828,-2.80,0.59,-0.15,-0.43,0.92,0.59,
1.828,-2.80,0.59,-0.15,-0.47,0.95,0.62,
1.828,-2.80,0.59,-0.15,-0.51,0.99,0.65,
1.831,-2.80,0.59,-0.15,-0.55,1.02,0.68,
1.833,-2.80,0.59,-0.15,-0.58,1.05,0.71,
1.835,-2.80,0.59,-0.15,-0.61,1.08,0.73,
1.837,-2.88,1.32,-0.44,-0.61,1.08,0.73,
1.837,-2.88,1.32,-0.44,-0.64,1.11,0.75,
1.839,-2.88,1.32,-0.44,-0.67,1.14,0.78,
1.84,-2.88,1.32,-0.44,-0.69,1.16,0.80,
1.843,-2.88,1.32,-0.44,-0.71,1.18,0.82,
1.844,-2.88,1.32,-0.44,-0.72,1.20,0.84,
1.847,-2.30,1.84,-0.75,-0.72,1.20,0.84,
1.847,-2.30,1.84,-0.75,-0.73,1.20,0.87,
1.848,-2.30,1.84,-0.75,-0.73,1.21,0.88,
1.85,-2.30,1.84,-0.75,-0.72,1.21,0.90,
1.852,-2.30,1.84,-0.75,-0.71,1.22,0.92,
1.854,-2.30,1.84,-0.75,-0.70,1.22,0.94,
1.878,-1.48,1.79,-0.65,-0.70,1.22,0.94,
1.879,-1.48,1.79,-0.65,-0.68,1.22,0.96,
1.879,-1.48,1.79,-0.65,-0.65,1.22,0.97,
1.879,-1.48,1.79,-0.65,-0.63,1.22,0.98,
1.879,-1.48,1.79,-0.65,-0.60,1.22,1.00,
1.88,-1.48,1.79,-0.65,-0.57,1.20,1.00,
1.88,-0.84,1.41,-0.44,-0.57,1.20,1.00,
1.88,-0.84,1.41,-0.44,-0.54,1.18,1.01,
1.88,-0.84,1.41,-0.44,-0.51,1.15,1.02,
1.881,-0.84,1.41,-0.44,-0.48,1.11,1.03,
1.881,-0.84,1.41,-0.44,-0.45,1.07,1.03,
1.881,-0.84,1.41,-0.44,-0.42,1.02,1.04,
1.881,-0.31,1.05,0.09,-0.42,1.02,1.04,
1.882,-0.31,1.05,0.09,-0.40,0.98,1.05,
1.882,-0.31,1.05,0.09,-0.37,0.93,1.06,
1.882,-0.31,1.05,0.09,-0.35,0.89,1.07,
1.882,-0.31,1.05,0.09,-0.33,0.85,1.08,
1.885,-0.31,1.05,0.09,-0.32,0.82,1.08,
1.888,-0.37,0.66,0.44,-0.32,0.82,1.08,
1.888,-0.37,0.66,0.44,-0.30,0.79,1.09,
1.889,-0.37,0.66,0.44,-0.30,0.77,1.09,
1.891,-0.37,0.66,0.44,-0.30,0.75,1.09,
1.892,-0.37,0.66,0.44,-0.31,0.73,1.09,
1.894,-0.37,0.66,0.44,-0.32,0.74,1.08,
1.897,-0.36,0.38,0.05,-0.32,0.74,1.08,
1.897,-0.36,0.38,0.05,-0.33,0.76,1.07,
1.898,-0.36,0.38,0.05,-0.34,0.78,1.07,
1.902,-0.36,0.38,0.05,-0.37,0.80,1.07,
1.902,-0.36,0.38,0.05,-0.41,0.81,1.07,
1.906,-0.36,0.38,0.05,-0.44,0.82,1.07,
1.908,-0.54,0.56,-0.27,-0.44,0.82,1.07,
1.909,-0.54,0.56,-0.27,-0.49,0.83,1.08,
1.912,-0.54,0.56,-0.27,-0.53,0.83,1.09,
1.912,-0.54,0.56,-0.27,-0.58,0.83,1.11,
1.912,-0.54,0.56,-0.27,-0.62,0.84,1.14,
1.915,-0.54,0.56,-0.27,-0.67,0.84,1.18,
1.917,-1.12,1.49,-0.62,-0.67,0.84,1.18,
1.917,-1.12,1.49,-0.62,-0.72,0.84,1.21,
1.922,-1.12,1.49,-0.62,-0.77,0.83,1.25,
1.922,-1.12,1.49,-0.62,-0.82,0.83,1.27,
1.923,-1.12,1.49,-0.62,-0.87,0.82,1.28,
1.925,-1.12,1.49,-0.62,-0.90,0.81,1.29,
1.934,-0.50,1.94,-0.92,-0.90,0.81,1.29,
1.934,-0.50,1.94,-0.92,-0.92,0.80,1.30,
1.934,-0.50,1.94,-0.92,-0.92,0.77,1.32,
1.934,-0.50,1.94,-0.92,-0.92,0.73,1.33,
1.934,-0.50,1.94,-0.92,-0.91,0.67,1.33,
1.955,-0.50,1.94,-0.92,-0.89,0.60,1.33,
1.955,-0.99,1.75,-0.03,-0.89,0.60,1.33,
1.955,-0.99,1.75,-0.03,-0.87,0.51,1.31,
1.956,-0.99,1.75,-0.03,-0.85,0.42,1.27,
1.975,-0.99,1.75,-0.03,-0.82,0.33,1.23,
1.976,-0.99,1.75,-0.03,-0.80,0.24,1.19,
1.976,-0.99,1.75,-0.03,-0.77,0.16,1.15,
1.976,-0.18,2.03,0.09,-0.77,0.16,1.15,
1.976,-0.18,2.03,0.09,-0.75,0.08,1.11,
1.977,-0.18,2.03,0.09,-0.73,0.01,1.07,
1.977,-0.18,2.03,0.09,-0.71,-0.06,1.02,
1.977,-0.18,2.03,0.09,-0.70,-0.13,0.98,
1.978,-0.18,2.03,0.09,-0.69,-0.19,0.95,
1.978,0.59,1.20,-0.17,-0.69,-0.19,0.95,
1.978,0.59,1.20,-0.17,-0.68,-0.23,0.90,
1.978,0.59,1.20,-0.17,-0.68,-0.25,0.86,
1.979,0.59,1.20,-0.17,-0.67,-0.25,0.82,
1.979,0.59,1.20,-0.17,-0.67,-0.25,0.79,
1.979,0.59,1.20,-0.17,-0.67,-0.27,0.77,
1.979,0.84,0.75,-0.43,-0.67,-0.27,0.77,
1.98,0.84,0.75,-0.43,-0.66,-0.29,0.74,
1.98,0.84,0.75,-0.43,-0.64,-0.32,0.73,
1.98,0.84,0.75,-0.43,-0.62,-0.36,0.72,
1.981,0.84,0.75,-0.43,-0.62,-0.41,0.71,
1.981,0.84,0.75,-0.43,-0.61,-0.44,0.71,
1.981,0.10,1.12,-0.03,-0.61,-0.44,0.71,
1.981,0.10,1.12,-0.03,-0.60,-0.46,0.72,
1.982,0.10,1.12,-0.03,-0.58,-0.43,0.73,
1.982,0.10,1.12,-0.03,-0.56,-0.39,0.76,
1.989,0.10,1.12,-0.03,-0.55,-0.35,0.78,
1.99,0.10,1.12,-0.03,-0.53,-0.30,0.82,
1.99,-1.10,1.49,0.13,-0.53,-0.30,0.82,
1.99,-1.10,1.49,0.13,-0.51,-0.26,0.86,
1.991,-1.10,1.49,0.13,-0.50,-0.22,0.91,
1.991,-1.10,1.49,0.13,-0.49,-0.18,0.97,
1.995,-1.10,1.49,0.13,-0.48,-0.15,1.02,
1.995,-1.10,1.49,0.13,-0.50,-0.15,1.08,
1.997,-2.31,2.00,-0.47,-0.50,-0.15,1.08,
1.998,-2.31,2.00,-0.47,-0.52,-0.17,1.14,
1.999,-2.31,2.00,-0.47,-0.53,-0.15,1.20,
2.001,-2.31,2.00,-0.47,-0.55,-0.11,1.27,
2.008,-2.31,2.00,-0.47,-0.56,-0.04,1.35,
2.009,-2.75,1.93,-0.78,-0.56,-0.04,1.35,
2.009,-2.75,1.93,-0.78,-0.56,0.26,1.52,
2.009,-2.75,1.93,-0.78,-0.56,0.26,1.52,
2.01,-2.75,1.93,-0.78,-0.53,0.46,1.58,
2.011,-2.75,1.93,-0.78,-0.53,0.55,1.61,
2.014,-2.75,1.93,-0.78,-0.58,0.46,1.60,
2.016,-2.75,1.93,-0.78,-0.65,0.34,1.59,
2.018,-0.43,1.61,-2.02,-0.65,0.34,1.59,
2.018,-0.43,1.61,-2.02,-0.71,0.27,1.59,
2.019,-0.43,1.61,-2.02,-0.76,0.24,1.58,
2.021,-0.43,1.61,-2.02,-0.80,0.26,1.57,
2.023,-0.43,1.61,-2.02,-0.84,0.30,1.55,
2.047,-0.43,1.61,-2.02,-0.87,0.38,1.53,
2.047,-0.12,1.55,-1.57,-0.87,0.38,1.53,
2.047,-0.12,1.55,-1.57,-0.90,0.48,1.50,
2.047,-0.12,1.55,-1.57,-0.93,0.61,1.47,
2.048,-0.12,1.55,-1.57,-0.96,0.73,1.44,
2.048,-0.12,1.55,-1.57,-0.97,0.83,1.41,
2.048,-0.12,1.55,-1.57,-0.98,0.91,1.37,
2.048,1.18,0.88,-0.04,-0.98,0.91,1.37,
2.049,1.18,0.88,-0.04,-0.99,0.97,1.34,
2.049,1.18,0.88,-0.04,-1.00,1.01,1.30,
2.049,1.18,0.88,-0.04,-1.00,1.03,1.27,
2.049,1.18,0.88,-0.04,-1.00,1.04,1.23,
2.05,1.18,0.88,-0.04,-1.00,1.04,1.19,
2.05,1.89,0.51,0.87,-1.00,1.04,1.19,
2.05,1.89,0.51,0.87,-1.00,1.03,1.15,
2.055,1.89,0.51,0.87,-1.01,1.03,1.11,
2.055,1.89,0.51,0.87,-1.02,1.02,1.06,
2.055,1.89,0.51,0.87,-1.03,1.02,1.01,
2.056,1.89,0.51,0.87,-1.05,1.01,0.97,
2.059,1.71,0.25,0.13,-1.05,1.01,0.97,
2.06,1.71,0.25,0.13,-1.06,1.00,0.92,
2.061,1.71,0.25,0.13,-1.07,0.99,0.87,
2.064,1.71,0.25,0.13,-1.08,0.96,0.82,
2.064,1.71,0.25,0.13,-1.08,0.92,0.78,
2.065,1.71,0.25,0.13,-1.08,0.88,0.74,
2.075,0.98,-0.13,0.43,-1.08,0.88,0.74,
2.076,0.98,-0.13,0.43,-1.09,0.83,0.70,
2.076,0.98,-0.13,0.43,-1.09,0.78,0.66,
2.076,0.98,-0.13,0.43,-1.08,0.73,0.63,
2.076,0.98,-0.13,0.43,-1.08,0.68,0.59,
2.077,0.98,-0.13,0.43,-1.08,0.65,0.56,
2.079,0.30,-0.58,1.10,-1.08,0.65,0.56,
2.079,0.30,-0.58,1.10,-1.07,0.63,0.53,
2.079,0.30,-0.58,1.10,-1.07,0.62,0.51,
2.083,0.30,-0.58,1.10,-1.07,0.61,0.49,
2.092,0.30,-0.58,1.10,-1.07,0.60,0.46,
2.093,0.30,-0.58,1.10,-1.07,0.59,0.45,
2.093,0.10,-0.86,1.01,-1.07,0.59,0.45,
2.093,0.10,-0.86,1.01,-1.08,0.58,0.43,
2.093,0.10,-0.86,1.01,-1.09,0.57,0.42,
2.095,0.10,-0.86,1.01,-1.10,0.54,0.41,
2.095,0.10,-0.86,1.01,-1.11,0.52,0.40,
2.095,0.10,-0.86,1.01,-1.13,0.50,0.39,
2.098,-0.01,-1.03,0.35,-1.13,0.50,0.39,
2.098,-0.01,-1.03,0.35,-1.15,0.48,0.39,
2.101,-0.01,-1.03,0.35,-1.16,0.46,0.39,
2.103,-0.01,-1.03,0.35,-1.19,0.44,0.39,
2.104,-0.01,-1.03,0.35,-1.21,0.41,0.40,
2.105,-0.01,-1.03,0.35,-1.23,0.38,0.40,
2.107,-0.13,-1.00,-0.23,-1.23,0.38,0.40,
2.127,-0.13,-1.00,-0.23,-1.26,0.35,0.41,
2.127,-0.13,-1.00,-0.23,-1.28,0.31,0.42,
2.128,-0.13,-1.00,-0.23,-1.31,0.27,0.43,
2.128,-0.13,-1.00,-0.23,-1.34,0.23,0.44,
2.128,-0.13,-1.00,-0.23,-1.37,0.18,0.46,
2.129,-0.17,-0.80,-1.11,-1.37,0.18,0.46,
2.129,-0.17,-0.80,-1.11,-1.41,0.14,0.48,
2.129,-0.17,-0.80,-1.11,-1.44,0.12,0.49,
2.13,-0.17,-0.80,-1.11,-1.48,0.09,0.51,
2.13,-0.17,-0.80,-1.11,-1.53,0.08,0.54,
2.13,-0.17,-0.80,-1.11,-1.57,0.08,0.56,
2.13,-0.10,-0.40,-2.21,-1.57,0.08,0.56,
2.131,-0.10,-0.40,-2.21,-1.61,0.08,0.58,
2.131,-0.10,-0.40,-2.21,-1.65,0.09,0.61,
2.137,-0.10,-0.40,-2.21,-1.68,0.10,0.64,
2.137,-0.10,-0.40,-2.21,-1.72,0.12,0.66,
2.137,-0.10,-0.40,-2.21,-1.75,0.14,0.69,
2.139,-0.31,0.04,-2.62,-1.75,0.14,0.69,
2.139,-0.31,0.04,-2.62,-1.78,0.15,0.72,
2.139,-0.31,0.04,-2.62,-1.80,0.18,0.75,
2.144,-0.31,0.04,-2.62,-1.82,0.20,0.78,
2.144,-0.31,0.04,-2.62,-1.84,0.21,0.81,
2.145,-0.31,0.04,-2.62,-1.84,0.23,0.84,
2.147,-0.91,0.39,-2.05,-1.84,0.23,0.84,
2.147,-0.91,0.39,-2.05,-1.86,0.24,0.86,
2.149,-0.91,0.39,-2.05,-1.87,0.25,0.89,
2.152,-0.91,0.39,-2.05,-1.87,0.26,0.92,
2.153,-0.91,0.39,-2.05,-1.86,0.26,0.95,
2.155,-0.91,0.39,-2.05,-1.86,0.26,0.97,
2.157,-1.53,0.54,-1.24,-1.86,0.26,0.97,
2.157,-1.53,0.54,-1.24,-1.85,0.26,1.00,
2.158,-1.53,0.54,-1.24,-1.86,0.27,1.03,
2.16,-1.53,0.54,-1.24,-1.86,0.27,1.05,
2.162,-1.53,0.54,-1.24,-1.85,0.27,1.08,
2.165,-1.53,0.54,-1.24,-1.85,0.26,1.11,
2.17,-1.84,0.60,-0.59,-1.85,0.26,1.11,
2.17,-1.84,0.60,-0.59,-1.86,0.25,1.13,
2.171,-1.84,0.60,-0.59,-1.85,0.24,1.16,
2.171,-1.84,0.60,-0.59,-1.85,0.22,1.20,
2.172,-1.84,0.60,-0.59,-1.87,0.19,1.23,
2.174,-1.84,0.60,-0.59,-1.87,0.15,1.27,
2.177,-2.23,0.75,-0.14,-1.87,0.15,1.27,
2.177,-2.23,0.75,-0.14,-1.88,0.11,1.31,
2.178,-2.23,0.75,-0.14,-1.89,0.06,1.36,
2.18,-2.23,0.75,-0.14,-1.90,-0.00,1.42,
2.186,-2.23,0.75,-0.14,-1.91,-0.07,1.48,
2.186,-2.23,0.75,-0.14,-1.93,-0.13,1.54,
2.187,-2.38,1.13,-0.15,-1.93,-0.13,1.54,
2.187,-2.38,1.13,-0.15,-1.95,-0.20,1.62,
2.189,-2.38,1.13,-0.15,-1.97,-0.27,1.69,
2.211,-2.38,1.13,-0.15,-1.98,-0.34,1.76,
2.211,-2.38,1.13,-0.15,-2.00,-0.41,1.84,
2.211,-2.38,1.13,-0.15,-2.02,-0.48,1.91,
2.211,-2.28,1.57,-0.38,-2.02,-0.48,1.91,
2.211,-2.28,1.57,-0.38,-2.03,-0.55,1.98,
2.212,-2.28,1.57,-0.38,-2.05,-0.61,2.04,
2.212,-2.28,1.57,-0.38,-2.05,-0.68,2.11,
2.212,-2.28,1.57,-0.38,-2.04,-0.74,2.18,
2.212,-2.28,1.57,-0.38,-2.05,-0.80,2.25,
2.213,-2.02,2.14,-0.24,-2.05,-0.80,2.25,
2.213,-2.02,2.14,-0.24,-2.06,-0.85,2.31,
2.213,-2.02,2.14,-0.24,-2.06,-0.90,2.37,
2.213,-2.02,2.14,-0.24,-2.06,-0.95,2.44,
2.213,-2.02,2.14,-0.24,-2.06,-1.00,2.50,
2.216,-2.02,2.14,-0.24,-2.06,-1.05,2.56,
2.217,-1.98,2.84,-0.03,-2.06,-1.05,2.56,
2.217,-1.98,2.84,-0.03,-2.03,-1.10,2.62,
2.221,-1.98,2.84,-0.03,-2.00,-1.13,2.69,
2.222,-1.98,2.84,-0.03,-2.02,-1.17,2.75,
2.224,-1.98,2.84,-0.03,-2.01,-1.21,2.83,
2.225,-1.98,2.84,-0.03,-1.94,-1.23,2.91,
2.229,-2.06,3.67,0.62,-1.94,-1.23,2.91,
2.229,-2.06,3.67,0.62,-1.91,-1.26,2.99,
2.23,-2.06,3.67,0.62,-1.88,-1.29,3.07,
2.233,-2.06,3.67,0.62,-1.82,-1.32,3.15,
2.233,-2.06,3.67,0.62,-1.76,-1.36,3.23,
2.235,-2.06,3.67,0.62,-1.68,-1.38,3.32,
2.238,-2.14,4.51,1.71,-1.68,-1.38,3.32,
2.238,-2.14,4.51,1.71,-1.61,-1.39,3.40,
2.239,-2.14,4.51,1.71,-1.54,-1.39,3.49,
2.241,-2.14,4.51,1.71,-1.45,-1.39,3.57,
2.243,-2.14,4.51,1.71,-1.40,-1.37,3.65,
2.245,-2.14,4.51,1.71,-1.33,-1.33,3.73,
2.249,-1.95,5.04,1.86,-1.33,-1.33,3.73,
2.249,-1.95,5.04,1.86,-1.27,-1.29,3.80,
2.249,-1.95,5.04,1.86,-1.20,-1.21,3.88,
2.251,-1.95,5.04,1.86,-1.15,-1.12,3.96,
2.253,-1.95,5.04,1.86,-1.08,-1.03,4.03,
2.255,-1.95,5.04,1.86,-1.02,-0.93,4.11,
2.259,-1.93,5.33,1.79,-1.02,-0.93,4.11,
2.259,-1.93,5.33,1.79,-1.00,-0.83,4.17,
2.259,-1.93,5.33,1.79,-0.95,-0.72,4.23,
2.261,-1.93,5.33,1.79,-0.94,-0.59,4.26,
2.263,-1.93,5.33,1.79,-0.94,-0.45,4.29,
2.265,-1.93,5.33,1.79,-0.97,-0.32,4.30,
2.268,-0.96,5.91,0.68,-0.97,-0.32,4.30,
2.268,-0.96,5.91,0.68,-0.98,-0.20,4.30,
2.269,-0.96,5.91,0.68,-1.03,-0.10,4.29,
2.271,-0.96,5.91,0.68,-1.07,-0.03,4.28,
2.273,-0.96,5.91,0.68,-1.11,0.00,4.25,
2.289,-0.96,5.91,0.68,-1.15,0.02,4.22,
2.289,0.21,6.14,-0.17,-1.15,0.02,4.22,
2.289,0.21,6.14,-0.17,-1.22,0.02,4.19,
2.289,0.21,6.14,-0.17,-1.28,0.01,4.15,
2.289,0.21,6.14,-0.17,-1.35,-0.02,4.11,
2.29,0.21,6.14,-0.17,-1.41,-0.04,4.07,
2.29,0.21,6.14,-0.17,-1.47,-0.07,4.03,
2.29,0.93,6.00,-0.85,-1.47,-0.07,4.03,
2.29,0.93,6.00,-0.85,-1.55,-0.09,3.99,
2.291,0.93,6.00,-0.85,-1.61,-0.09,3.96,
2.291,0.93,6.00,-0.85,-1.69,-0.07,3.94,
2.296,0.93,6.00,-0.85,-1.73,-0.03,3.92,
2.296,0.93,6.00,-0.85,-1.78,0.01,3.91,
2.297,1.12,6.16,-1.52,-1.78,0.01,3.91,
2.297,1.12,6.16,-1.52,-1.84,0.08,3.90,
2.302,1.12,6.16,-1.52,-1.86,0.18,3.91,
2.303,1.12,6.16,-1.52,-1.89,0.26,3.92,
2.305,1.12,6.16,-1.52,-1.94,0.34,3.93,
2.306,1.12,6.16,-1.52,-1.96,0.41,3.94,
2.307,1.13,6.39,-1.91,-1.96,0.41,3.94,
2.307,1.13,6.39,-1.91,-1.99,0.47,3.95,
2.309,1.13,6.39,-1.91,-2.02,0.51,3.96,
2.311,1.13,6.39,-1.91,-2.06,0.54,3.96,
2.313,1.13,6.39,-1.91,-2.10,0.55,3.97,
2.315,1.13,6.39,-1.91,-2.14,0.55,3.98,
2.318,1.48,6.35,-2.39,-2.14,0.55,3.98,
2.318,1.48,6.35,-2.39,-2.18,0.54,3.99,
2.319,1.48,6.35,-2.39,-2.22,0.52,3.99,
2.321,1.48,6.35,-2.39,-2.26,0.49,4.00,
2.325,1.48,6.35,-2.39,-2.30,0.45,3.99,
2.325,1.48,6.35,-2.39,-2.33,0.40,3.98,
2.327,2.11,5.92,-2.49,-2.33,0.40,3.98,
2.327,2.11,5.92,-2.49,-2.37,0.33,3.97,
2.329,2.11,5.92,-2.49,-2.39,0.26,3.95,
2.331,2.11,5.92,-2.49,-2.39,0.21,3.94,
2.336,2.11,5.92,-2.49,-2.36,0.17,3.93,
2.336,2.11,5.92,-2.49,-2.35,0.08,3.91,
2.338,3.49,3.60,-0.75,-2.35,0.08,3.91,
2.338,3.49,3.60,-0.75,-2.32,-0.04,3.88,
2.338,3.49,3.60,-0.75,-2.31,-0.18,3.86,
2.341,3.49,3.60,-0.75,-2.30,-0.32,3.86,
2.343,3.49,3.60,-0.75,-2.31,-0.44,3.89,
2.346,3.49,3.60,-0.75,-2.32,-0.56,3.96,
2.348,3.13,-0.22,-0.98,-2.32,-0.56,3.96,
2.348,3.13,-0.22,-0.98,-2.36,-0.67,4.06,
2.38,3.13,-0.22,-0.98,-2.41,-0.73,4.20,
2.38,3.13,-0.22,-0.98,-2.48,-0.74,4.36,
2.381,3.13,-0.22,-0.98,-2.54,-0.70,4.52,
2.381,3.13,-0.22,-0.98,-2.60,-0.63,4.66,
2.381,-0.82,-10.25,-3.10,-2.60,-0.63,4.66,
2.381,-0.82,-10.25,-3.10,-2.64,-0.56,4.81,
2.381,-0.82,-10.25,-3.10,-2.68,-0.51,4.99,
2.382,-0.82,-10.25,-3.10,-2.72,-0.50,5.23,
2.382,-0.82,-10.25,-3.10,-2.79,-0.55,5.50,
2.382,-0.82,-10.25,-3.10,-2.85,-0.67,5.81,
2.382,-8.83,-20.72,-5.02,-2.85,-0.67,5.81,
2.382,-8.83,-20.72,-5.02,-2.93,-0.86,6.16,
2.383,-8.83,-20.72,-5.02,-3.02,-1.06,6.52,
2.383,-8.83,-20.72,-5.02,-3.07,-1.21,6.85,
2.383,-8.83,-20.72,-5.02,-3.10,-1.34,7.13,
2.383,-8.83,-20.72,-5.02,-3.09,-1.46,7.36,
2.383,-14.20,-35.76,-6.27,-3.09,-1.46,7.36,
2.384,-14.20,-35.76,-6.27,-3.06,-1.58,7.53,
2.384,-14.20,-35.76,-6.27,-3.02,-1.68,7.63,
2.384,-14.20,-35.76,-6.27,-2.97,-1.74,7.66,
2.385,-14.20,-35.76,-6.27,-2.91,-1.77,7.63,
2.385,-14.20,-35.76,-6.27,-2.84,-1.76,7.52,
2.389,-10.41,-39.14,-5.21,-2.84,-1.76,7.52,
2.389,-10.41,-39.14,-5.21,-2.76,-1.69,7.35,
2.389,-10.41,-39.14,-5.21,-2.65,-1.52,7.14,
2.39,-10.41,-39.14,-5.21,-2.50,-1.26,6.91,
2.392,-10.41,-39.14,-5.21,-2.35,-0.95,6.64,
2.395,-10.41,-39.14,-5.21,-2.20,-0.66,6.27,
2.397,-2.29,-31.89,-3.44,-2.20,-0.66,6.27,
2.397,-2.29,-31.89,-3.44,-2.03,-0.38,5.74,
2.399,-2.29,-31.89,-3.44,-1.84,-0.08,5.14,
2.401,-2.29,-31.89,-3.44,-1.62,0.25,4.51,
2.402,-2.29,-31.89,-3.44,-1.41,0.59,3.87,
2.405,-2.29,-31.89,-3.44,-1.20,0.91,3.25,
2.407,5.23,-19.45,0.17,-1.20,0.91,3.25,
2.407,5.23,-19.45,0.17,-1.00,1.19,2.66,
2.409,5.23,-19.45,0.17,-0.83,1.46,2.12,
2.41,5.23,-19.45,0.17,-0.66,1.70,1.61,
2.412,5.23,-19.45,0.17,-0.48,1.92,1.14,
2.417,5.23,-19.45,0.17,-0.28,2.08,0.70,
2.418,7.71,-8.85,2.67,-0.28,2.08,0.70,
2.418,7.71,-8.85,2.67,-0.07,2.19,0.31,
2.419,7.71,-8.85,2.67,0.14,2.27,-0.06,
2.421,7.71,-8.85,2.67,0.37,2.31,-0.40,
2.423,7.71,-8.85,2.67,0.61,2.31,-0.71,
2.425,7.71,-8.85,2.67,0.85,2.29,-0.99,
2.429,6.93,-1.98,6.20,0.85,2.29,-0.99,
2.429,6.93,-1.98,6.20,1.09,2.25,-1.24,
2.429,6.93,-1.98,6.20,1.33,2.19,-1.47,
2.432,6.93,-1.98,6.20,1.55,2.11,-1.67,
2.434,6.93,-1.98,6.20,1.77,2.04,-1.85,
2.434,6.93,-1.98,6.20,1.97,1.96,-2.01,
2.438,5.58,1.90,6.90,1.97,1.96,-2.01,
2.438,5.58,1.90,6.90,2.16,1.88,-2.14,
2.439,5.58,1.90,6.90,2.33,1.79,-2.26,
2.456,5.58,1.90,6.90,2.48,1.71,-2.36,
2.456,5.58,1.90,6.90,2.62,1.62,-2.44,
2.456,5.58,1.90,6.90,2.74,1.54,-2.50,
2.457,3.89,3.88,4.77,2.74,1.54,-2.50,
2.457,3.89,3.88,4.77,2.85,1.45,-2.54,
2.457,3.89,3.88,4.77,2.95,1.36,-2.57,
2.457,3.89,3.88,4.77,3.03,1.28,-2.58,
2.457,3.89,3.88,4.77,3.11,1.19,-2.58,
2.458,3.89,3.88,4.77,3.17,1.11,-2.57,
2.458,2.22,4.88,2.80,3.17,1.11,-2.57,
2.458,2.22,4.88,2.80,3.23,1.04,-2.55,
2.458,2.22,4.88,2.80,3.28,0.97,-2.52,
2.463,2.22,4.88,2.80,3.33,0.90,-2.48,
2.464,2.22,4.88,2.80,3.37,0.84,-2.44,
2.477,2.22,4.88,2.80,3.41,0.78,-2.38,
2.478,1.14,5.28,1.40,3.41,0.78,-2.38,
2.478,1.14,5.28,1.40,3.45,0.72,-2.33,
2.478,1.14,5.28,1.40,3.48,0.67,-2.27,
2.478,1.14,5.28,1.40,3.52,0.62,-2.21,
2.479,1.14,5.28,1.40,3.55,0.59,-2.14,
2.479,1.14,5.28,1.40,3.58,0.55,-2.07,
2.479,0.38,5.44,0.96,3.58,0.55,-2.07,
2.479,0.38,5.44,0.96,3.61,0.52,-1.99,
2.479,0.38,5.44,0.96,3.64,0.50,-1.91,
2.481,0.38,5.44,0.96,3.67,0.48,-1.82,
2.491,0.38,5.44,0.96,3.72,0.46,-1.68,
2.492,0.38,5.44,0.96,3.74,0.45,-1.63,
2.492,-0.58,5.19,0.97,3.74,0.45,-1.63,
2.492,-0.58,5.19,0.97,3.77,0.44,-1.53,
2.492,-0.58,5.19,0.97,3.81,0.44,-1.42,
2.492,-0.58,5.19,0.97,3.85,0.44,-1.31,
2.493,-0.58,5.19,0.97,3.90,0.45,-1.20,
2.495,-0.58,5.19,0.97,3.96,0.47,-1.08,
2.522,-2.23,4.58,1.87,3.96,0.47,-1.08,
2.523,-2.23,4.58,1.87,4.02,0.51,-0.95,
2.523,-2.23,4.58,1.87,4.09,0.59,-0.82,
2.523,-2.23,4.58,1.87,4.18,0.73,-0.68,
2.524,-2.23,4.58,1.87,4.26,0.93,-0.54,
2.524,-2.23,4.58,1.87,4.33,1.20,-0.40,
2.524,-5.04,2.56,3.98,4.33,1.20,-0.40,
2.525,-5.04,2.56,3.98,4.40,1.84,-0.12,
2.525,-5.04,2.56,3.98,4.41,2.20,0.02,
2.525,-5.04,2.56,3.98,4.41,2.20,0.02,
2.525,-5.04,2.56,3.98,4.38,2.56,0.15,
2.526,-5.04,2.56,3.98,4.34,2.92,0.27,
2.526,-5.88,1.09,2.58,4.34,2.92,0.27,
2.526,-5.88,1.09,2.58,4.27,3.27,0.38,
2.526,-5.88,1.09,2.58,4.19,3.61,0.48,
2.527,-5.88,1.09,2.58,4.09,3.92,0.57,
2.527,-5.88,1.09,2.58,3.97,4.20,0.65,
2.527,-5.88,1.09,2.58,3.85,4.45,0.71,
2.528,-5.25,-0.48,0.29,3.85,4.45,0.71,
2.528,-5.25,-0.48,0.29,3.71,4.66,0.75,
2.528,-5.25,-0.48,0.29,3.57,4.83,0.78,
2.559,-5.25,-0.48,0.29,3.41,4.94,0.79,
2.56,-5.25,-0.48,0.29,3.25,5.00,0.78,
2.56,-5.25,-0.48,0.29,3.07,5.00,0.75,
2.56,-3.93,-1.27,-0.79,3.07,5.00,0.75,
2.56,-3.93,-1.27,-0.79,2.89,4.96,0.70,
2.561,-3.93,-1.27,-0.79,2.71,4.85,0.64,
2.561,-3.93,-1.27,-0.79,2.53,4.71,0.57,
2.561,-3.93,-1.27,-0.79,2.36,4.53,0.50,
2.561,-3.93,-1.27,-0.79,2.22,4.33,0.44,
2.561,-3.11,-1.24,-0.55,2.22,4.33,0.44,
2.562,-3.11,-1.24,-0.55,2.09,4.12,0.38,
2.562,-3.11,-1.24,-0.55,1.97,3.89,0.33,
2.562,-3.11,-1.24,-0.55,1.88,3.66,0.29,
2.562,-3.11,-1.24,-0.55,1.82,3.44,0.27,
2.563,-3.11,-1.24,-0.55,1.78,3.24,0.26,
2.563,-3.03,-0.47,0.86,1.78,3.24,0.26,
2.563,-3.03,-0.47,0.86,1.76,3.04,0.27,
2.563,-3.03,-0.47,0.86,1.77,2.86,0.30,
2.564,-3.03,-0.47,0.86,1.79,2.70,0.34,
2.564,-3.03,-0.47,0.86,1.83,2.55,0.39,
2.566,-3.03,-0.47,0.86,1.86,2.41,0.45,
2.57,-3.38,0.18,2.39,1.86,2.41,0.45,
2.57,-3.38,0.18,2.39,1.90,2.27,0.51,
2.571,-3.38,0.18,2.39,1.93,2.12,0.56,
2.572,-3.38,0.18,2.39,1.96,1.98,0.62,
2.573,-3.38,0.18,2.39,1.97,1.82,0.68,
2.574,-3.38,0.18,2.39,1.98,1.65,0.73,
2.577,-3.01,0.53,1.58,1.98,1.65,0.73,
2.577,-3.01,0.53,1.58,1.99,1.48,0.78,
2.578,-3.01,0.53,1.58,1.98,1.29,0.81,
2.581,-3.01,0.53,1.58,1.96,1.09,0.84,
2.583,-3.01,0.53,1.58,1.93,0.88,0.86,
2.585,-3.01,0.53,1.58,1.90,0.66,0.87,
2.587,-2.28,0.35,-0.33,1.90,0.66,0.87,
2.587,-2.28,0.35,-0.33,1.87,0.42,0.88,
2.588,-2.28,0.35,-0.33,1.83,0.17,0.89,
2.59,-2.28,0.35,-0.33,1.80,-0.09,0.90,
2.593,-2.28,0.35,-0.33,1.77,-0.35,0.91,
2.594,-2.28,0.35,-0.33,1.75,-0.62,0.93,
2.597,-2.09,0.12,-0.96,1.75,-0.62,0.93,
2.597,-2.09,0.12,-0.96,1.73,-0.89,0.95,
2.599,-2.09,0.12,-0.96,1.72,-1.15,0.96,
2.602,-2.09,0.12,-0.96,1.71,-1.40,0.97,
2.603,-2.09,0.12,-0.96,1.70,-1.64,0.98,
2.605,-2.09,0.12,-0.96,1.68,-1.85,0.98,
2.607,-1.04,-0.07,-0.35,1.68,-1.85,0.98,
2.625,-1.04,-0.07,-0.35,1.64,-2.03,0.97,
2.625,-1.04,-0.07,-0.35,1.59,-2.17,0.95,
2.625,-1.04,-0.07,-0.35,1.51,-2.27,0.93,
2.626,-1.04,-0.07,-0.35,1.39,-2.32,0.91,
2.626,-1.04,-0.07,-0.35,1.24,-2.36,0.88,
2.626,1.11,-0.80,-1.35,1.24,-2.36,0.88,
2.626,1.11,-0.80,-1.35,1.09,-2.40,0.85,
2.627,1.11,-0.80,-1.35,0.96,-2.47,0.82,
2.627,1.11,-0.80,-1.35,0.84,-2.55,0.78,
2.627,1.11,-0.80,-1.35,0.73,-2.63,0.74,
2.627,1.11,-0.80,-1.35,0.63,-2.70,0.70,
2.628,3.12,-1.50,-2.35,0.63,-2.70,0.70,
2.628,3.12,-1.50,-2.35,0.55,-2.77,0.65,
2.628,3.12,-1.50,-2.35,0.47,-2.83,0.60,
2.64,3.12,-1.50,-2.35,0.39,-2.87,0.55,
2.641,3.12,-1.50,-2.35,0.33,-2.88,0.50,
2.641,3.12,-1.50,-2.35,0.27,-2.88,0.45,
2.641,4.48,-2.12,-3.04,0.27,-2.88,0.45,
2.641,4.48,-2.12,-3.04,0.22,-2.86,0.39,
2.641,4.48,-2.12,-3.04,0.18,-2.84,0.33,
2.642,4.48,-2.12,-3.04,0.14,-2.80,0.27,
2.643,4.48,-2.12,-3.04,0.11,-2.74,0.21,
2.645,4.48,-2.12,-3.04,0.09,-2.66,0.15,
2.666,5.23,-2.52,-3.02,0.09,-2.66,0.15,
2.667,5.23,-2.52,-3.02,0.07,-2.56,0.09,
2.667,5.23,-2.52,-3.02,0.06,-2.44,0.03,
2.667,5.23,-2.52,-3.02,0.05,-2.29,-0.02,
2.667,5.23,-2.52,-3.02,0.04,-2.13,-0.08,
2.668,5.23,-2.52,-3.02,0.04,-1.95,-0.14,
2.668,5.51,-3.03,-2.89,0.04,-1.95,-0.14,
2.668,5.51,-3.03,-2.89,0.04,-1.77,-0.19,
2.668,5.51,-3.03,-2.89,0.04,-1.58,-0.24,
2.668,5.51,-3.03,-2.89,0.05,-1.38,-0.29,
2.669,5.51,-3.03,-2.89,0.05,-1.19,-0.34,
2.669,5.51,-3.03,-2.89,0.05,-1.01,-0.38,
2.669,5.23,-2.80,-3.08,0.05,-1.01,-0.38,
2.669,5.23,-2.80,-3.08,0.05,-0.83,-0.42,
2.669,5.23,-2.80,-3.08,0.05,-0.66,-0.46,
2.671,5.23,-2.80,-3.08,0.06,-0.50,-0.50,
2.674,5.23,-2.80,-3.08,0.06,-0.35,-0.53,
2.674,5.23,-2.80,-3.08,0.07,-0.21,-0.56,
2.677,4.77,-2.39,-3.33,0.07,-0.21,-0.56,
2.677,4.77,-2.39,-3.33,0.07,-0.10,-0.58,
2.678,4.77,-2.39,-3.33,0.08,0.01,-0.60,
2.681,4.77,-2.39,-3.33,0.09,0.09,-0.61,
2.684,4.77,-2.39,-3.33,0.10,0.16,-0.62,
2.686,4.77,-2.39,-3.33,0.11,0.22,-0.62,
2.687,3.73,-1.87,-3.09,0.11,0.22,-0.62,
2.687,3.73,-1.87,-3.09,0.12,0.26,-0.62,
2.689,3.73,-1.87,-3.09,0.14,0.28,-0.61,
2.709,3.73,-1.87,-3.09,0.15,0.30,-0.60,
2.71,3.73,-1.87,-3.09,0.17,0.31,-0.59,
2.71,3.73,-1.87,-3.09,0.19,0.30,-0.57,
2.71,2.77,-1.50,-2.60,0.19,0.30,-0.57,
2.71,2.77,-1.50,-2.60,0.22,0.29,-0.55,
2.71,2.77,-1.50,-2.60,0.25,0.28,-0.54,
2.711,2.77,-1.50,-2.60,0.27,0.27,-0.53,
2.711,2.77,-1.50,-2.60,0.31,0.26,-0.52,
2.711,2.77,-1.50,-2.60,0.34,0.25,-0.52,
2.711,2.37,-0.93,-1.88,0.34,0.25,-0.52,
2.711,2.37,-0.93,-1.88,0.37,0.24,-0.52,
2.712,2.37,-0.93,-1.88,0.41,0.25,-0.52,
2.712,2.37,-0.93,-1.88,0.44,0.25,-0.53,
2.712,2.37,-0.93,-1.88,0.47,0.27,-0.55,
2.715,2.37,-0.93,-1.88,0.50,0.30,-0.58,
2.717,2.37,-0.25,-1.37,0.50,0.30,-0.58,
2.717,2.37,-0.25,-1.37,0.53,0.34,-0.61,
2.718,2.37,-0.25,-1.37,0.55,0.38,-0.65,
2.72,2.37,-0.25,-1.37,0.57,0.43,-0.69,
2.722,2.37,-0.25,-1.37,0.58,0.50,-0.73,
2.724,2.37,-0.25,-1.37,0.59,0.58,-0.78,
2.727,2.06,0.45,-1.20,0.59,0.58,-0.78,
2.727,2.06,0.45,-1.20,0.59,0.67,-0.83,
2.728,2.06,0.45,-1.20,0.57,0.77,-0.88,
2.732,2.06,0.45,-1.20,0.55,0.88,-0.93,
2.732,2.06,0.45,-1.20,0.51,0.98,-0.97,
2.734,2.06,0.45,-1.20,0.47,1.09,-1.01,
2.737,1.52,1.00,-1.49,0.47,1.09,-1.01,
2.737,1.52,1.00,-1.49,0.41,1.18,-1.04,
2.739,1.52,1.00,-1.49,0.34,1.27,-1.07,
2.741,1.52,1.00,-1.49,0.27,1.35,-1.10,
2.743,1.52,1.00,-1.49,0.20,1.41,-1.12,
2.745,1.52,1.00,-1.49,0.12,1.46,-1.14,
2.751,0.95,1.75,-1.16,0.12,1.46,-1.14,
2.751,0.95,1.75,-1.16,0.04,1.49,-1.16,
2.751,0.95,1.75,-1.16,-0.03,1.51,-1.17,
2.751,0.95,1.75,-1.16,-0.11,1.51,-1.18,
2.753,0.95,1.75,-1.16,-0.18,1.50,-1.19,
2.754,0.95,1.75,-1.16,-0.25,1.48,-1.20,
2.757,0.62,2.45,0.01,-0.25,1.48,-1.20,
2.757,0.62,2.45,0.01,-0.31,1.45,-1.21,
2.758,0.62,2.45,0.01,-0.37,1.40,-1.22,
2.76,0.62,2.45,0.01,-0.42,1.34,-1.22,
2.762,0.62,2.45,0.01,-0.47,1.28,-1.23,
2.764,0.62,2.45,0.01,-0.51,1.21,-1.23,
2.767,0.41,2.78,1.25,-0.51,1.21,-1.23,
2.767,0.41,2.78,1.25,-0.55,1.13,-1.23,
2.768,0.41,2.78,1.25,-0.59,1.04,-1.24,
2.77,0.41,2.78,1.25,-0.62,0.95,-1.24,
2.772,0.41,2.78,1.25,-0.65,0.85,-1.24,
2.784,0.41,2.78,1.25,-0.68,0.76,-1.24,
2.785,0.19,2.74,2.18,-0.68,0.76,-1.24,
2.785,0.19,2.74,2.18,-0.70,0.66,-1.24,
2.785,0.19,2.74,2.18,-0.72,0.55,-1.23,
2.785,0.19,2.74,2.18,-0.74,0.45,-1.23,
2.785,0.19,2.74,2.18,-0.76,0.35,-1.23,
2.786,0.19,2.74,2.18,-0.77,0.24,-1.23,
2.789,0.02,2.30,2.58,-0.77,0.24,-1.23,
2.789,0.02,2.30,2.58,-0.78,0.14,-1.23,
2.789,0.02,2.30,2.58,-0.79,0.05,-1.23,
2.79,0.02,2.30,2.58,-0.79,-0.04,-1.24,
2.792,0.02,2.30,2.58,-0.79,-0.12,-1.24,
2.794,0.02,2.30,2.58,-0.79,-0.20,-1.25,
2.797,-0.19,1.75,2.88,-0.79,-0.20,-1.25,
2.797,-0.19,1.75,2.88,-0.79,-0.26,-1.26,
2.798,-0.19,1.75,2.88,-0.78,-0.32,-1.27,
2.801,-0.19,1.75,2.88,-0.78,-0.37,-1.28,
2.802,-0.19,1.75,2.88,-0.77,-0.42,-1.29,
2.805,-0.19,1.75,2.88,-0.76,-0.45,-1.29,
2.807,-0.65,1.07,2.71,-0.76,-0.45,-1.29,
2.807,-0.65,1.07,2.71,-0.76,-0.48,-1.30,
2.809,-0.65,1.07,2.71,-0.75,-0.51,-1.30,
2.811,-0.65,1.07,2.71,-0.74,-0.52,-1.30,
2.813,-0.65,1.07,2.71,-0.74,-0.52,-1.30,
2.815,-0.65,1.07,2.71,-0.73,-0.51,-1.29,
2.817,-1.48,0.79,2.15,-0.73,-0.51,-1.29,
2.817,-1.48,0.79,2.15,-0.73,-0.49,-1.28,
2.819,-1.48,0.79,2.15,-0.72,-0.47,-1.27,
2.821,-1.48,0.79,2.15,-0.72,-0.44,-1.25,
2.822,-1.48,0.79,2.15,-0.71,-0.41,-1.23,
2.824,-1.48,0.79,2.15,-0.72,-0.37,-1.20,
2.827,-2.23,0.88,1.30,-0.72,-0.37,-1.20,
2.827,-2.23,0.88,1.30,-0.72,-0.32,-1.17,
2.829,-2.23,0.88,1.30,-0.71,-0.27,-1.14,
2.831,-2.23,0.88,1.30,-0.71,-0.22,-1.11,
2.833,-2.23,0.88,1.30,-0.71,-0.13,-1.07,
2.836,-2.23,0.88,1.30,-0.71,-0.10,-1.06,
2.837,-2.36,1.45,0.70,-0.71,-0.10,-1.06,
2.838,-2.36,1.45,0.70,-0.71,-0.05,-1.03,
2.838,-2.36,1.45,0.70,-0.71,0.00,-1.00,
2.84,-2.36,1.45,0.70,-0.71,0.06,-0.98,
2.842,-2.36,1.45,0.70,-0.71,0.11,-0.95,
2.845,-2.36,1.45,0.70,-0.71,0.15,-0.93,
2.847,-1.80,1.87,0.35,-0.71,0.15,-0.93,
2.848,-1.80,1.87,0.35,-0.71,0.20,-0.90,
2.848,-1.80,1.87,0.35,-0.72,0.24,-0.88,
2.851,-1.80,1.87,0.35,-0.73,0.27,-0.86,
2.853,-1.80,1.87,0.35,-0.74,0.30,-0.84,
2.855,-1.80,1.87,0.35,-0.75,0.32,-0.82,
2.884,-1.24,2.04,0.20,-0.75,0.32,-0.82,
2.885,-1.24,2.04,0.20,-0.76,0.34,-0.80,
2.885,-1.24,2.04,0.20,-0.77,0.35,-0.78,
2.885,-1.24,2.04,0.20,-0.79,0.35,-0.77,
2.886,-1.24,2.04,0.20,-0.81,0.34,-0.75,
2.886,-1.24,2.04,0.20,-0.83,0.32,-0.74,
2.886,-0.46,1.75,0.26,-0.83,0.32,-0.74,
2.886,-0.46,1.75,0.26,-0.85,0.30,-0.73,
2.887,-0.46,1.75,0.26,-0.87,0.27,-0.73,
2.887,-0.46,1.75,0.26,-0.89,0.23,-0.73,
2.887,-0.46,1.75,0.26,-0.91,0.19,-0.72,
2.887,-0.46,1.75,0.26,-0.92,0.14,-0.73,
2.888,0.53,1.26,0.79,-0.92,0.14,-0.73,
2.888,0.53,1.26,0.79,-0.93,0.09,-0.74,
2.888,0.53,1.26,0.79,-0.95,0.04,-0.75,
2.888,0.53,1.26,0.79,-0.95,-0.02,-0.77,
2.889,0.53,1.26,0.79,-0.95,-0.08,-0.78,
2.889,0.53,1.26,0.79,-0.95,-0.13,-0.80,
2.889,1.22,0.67,1.71,-0.95,-0.13,-0.80,
2.889,1.22,0.67,1.71,-0.95,-0.19,-0.81,
2.89,1.22,0.67,1.71,-0.94,-0.25,-0.82,
2.891,1.22,0.67,1.71,-0.93,-0.30,-0.84,
2.893,1.22,0.67,1.71,-0.92,-0.35,-0.85,
2.895,1.22,0.67,1.71,-0.91,-0.39,-0.85,
2.899,1.15,-0.06,2.66,-0.91,-0.39,-0.85,
2.899,1.15,-0.06,2.66,-0.90,-0.43,-0.86,
2.899,1.15,-0.06,2.66,-0.89,-0.46,-0.87,
2.901,1.15,-0.06,2.66,-0.87,-0.49,-0.87,
2.903,1.15,-0.06,2.66,-0.86,-0.50,-0.87,
2.905,1.15,-0.06,2.66,-0.84,-0.51,-0.87,
2.907,0.29,-0.97,3.22,-0.84,-0.51,-0.87,
2.907,0.29,-0.97,3.22,-0.82,-0.50,-0.86,
2.908,0.29,-0.97,3.22,-0.81,-0.49,-0.85,
2.91,0.29,-0.97,3.22,-0.79,-0.46,-0.84,
2.918,0.29,-0.97,3.22,-0.76,-0.43,-0.83,
2.919,0.29,-0.97,3.22,-0.74,-0.39,-0.81,
2.919,-0.88,-1.85,3.97,-0.74,-0.39,-0.81,
2.919,-0.88,-1.85,3.97,-0.71,-0.35,-0.79,
2.919,-0.88,-1.85,3.97,-0.69,-0.29,-0.77,
2.929,-0.88,-1.85,3.97,-0.66,-0.23,-0.75,
2.93,-0.88,-1.85,3.97,-0.63,-0.16,-0.73,
2.93,-0.88,-1.85,3.97,-0.60,-0.09,-0.70,
2.93,-1.88,-2.57,4.88,-0.60,-0.09,-0.70,
2.951,-1.88,-2.57,4.88,-0.56,-0.02,-0.68,
2.952,-1.88,-2.57,4.88,-0.52,0.06,-0.66,
2.952,-1.88,-2.57,4.88,-0.48,0.13,-0.63,
2.952,-1.88,-2.57,4.88,-0.45,0.20,-0.61,
2.952,-1.88,-2.57,4.88,-0.41,0.27,-0.59,
2.952,-2.35,-2.73,5.96,-0.41,0.27,-0.59,
2.952,-2.35,-2.73,5.96,-0.37,0.34,-0.58,
2.953,-2.35,-2.73,5.96,-0.34,0.40,-0.56,
2.97,-2.35,-2.73,5.96,-0.30,0.45,-0.54,
2.97,-2.35,-2.73,5.96,-0.27,0.50,-0.53,
2.971,-2.35,-2.73,5.96,-0.24,0.54,-0.51,
2.971,-2.30,-2.27,6.47,-0.24,0.54,-0.51,
2.971,-2.30,-2.27,6.47,-0.21,0.58,-0.50,
2.971,-2.30,-2.27,6.47,-0.17,0.62,-0.49,
2.971,-2.30,-2.27,6.47,-0.15,0.66,-0.48,
2.972,-2.30,-2.27,6.47,-0.12,0.69,-0.46,
2.972,-2.30,-2.27,6.47,-0.09,0.72,-0.45,
2.972,-1.83,-1.41,6.47,-0.09,0.72,-0.45,
2.972,-1.83,-1.41,6.47,-0.07,0.76,-0.44,
2.973,-1.83,-1.41,6.47,-0.04,0.80,-0.43,
2.973,-1.83,-1.41,6.47,-0.02,0.84,-0.42,
2.973,-1.83,-1.41,6.47,-0.00,0.89,-0.41,
2.973,-1.83,-1.41,6.47,0.01,0.94,-0.41,
2.973,-0.89,-0.61,5.35,0.01,0.94,-0.41,
2.974,-0.89,-0.61,5.35,0.02,0.99,-0.41,
2.974,-0.89,-0.61,5.35,0.04,1.04,-0.41,
2.974,-0.89,-0.61,5.35,0.04,1.09,-0.41,
2.974,-0.89,-0.61,5.35,0.05,1.15,-0.42,
2.974,-0.89,-0.61,5.35,0.06,1.20,-0.42,
2.98,0.45,-0.06,3.55,0.06,1.20,-0.42,
2.98,0.45,-0.06,3.55,0.06,1.25,-0.43,
2.98,0.45,-0.06,3.55,0.06,1.30,-0.45,
2.98,0.45,-0.06,3.55,0.06,1.35,-0.46,
2.984,0.45,-0.06,3.55,0.06,1.39,-0.48,
2.984,0.45,-0.06,3.55,0.06,1.43,-0.51,
2.988,1.75,0.05,1.33,0.06,1.43,-0.51,
2.988,1.75,0.05,1.33,0.05,1.47,-0.53,
2.988,1.75,0.05,1.33,0.04,1.50,-0.56,
2.99,1.75,0.05,1.33,0.03,1.52,-0.59,
2.992,1.75,0.05,1.33,0.01,1.53,-0.62,
2.995,1.75,0.05,1.33,-0.00,1.53,-0.64,
2.997,2.59,-0.31,-0.88,-0.00,1.53,-0.64,
2.997,2.59,-0.31,-0.88,-0.02,1.53,-0.66,
2.999,2.59,-0.31,-0.88,-0.05,1.52,-0.67,
3.0,2.59,-0.31,-0.88,-0.08,1.50,-0.67,
3.002,2.59,-0.31,-0.88,-0.12,1.47,-0.66,
3.007,1.51,-0.70,-2.96,-0.12,1.47,-0.66,
3.008,1.51,-0.70,-2.96,-0.22,1.38,-0.64,
3.008,1.51,-0.70,-2.96,-0.22,1.38,-0.64,
3.008,1.51,-0.70,-2.96,-0.27,1.32,-0.62,
3.01,1.51,-0.70,-2.96,-0.33,1.27,-0.60,
3.013,1.51,-0.70,-2.96,-0.38,1.20,-0.58,
3.014,1.51,-0.70,-2.96,-0.44,1.14,-0.56,
3.017,0.52,-1.24,-4.68,-0.44,1.14,-0.56,
3.017,0.52,-1.24,-4.68,-0.50,1.07,-0.55,
3.018,0.52,-1.24,-4.68,-0.57,1.00,-0.53,
3.02,0.52,-1.24,-4.68,-0.63,0.93,-0.51,
3.022,0.52,-1.24,-4.68,-0.69,0.85,-0.50,
3.038,0.52,-1.24,-4.68,-0.75,0.77,-0.49,
3.038,-0.14,-1.40,-5.64,-0.75,0.77,-0.49,
3.038,-0.14,-1.40,-5.64,-0.81,0.68,-0.48,
3.039,-0.14,-1.40,-5.64,-0.87,0.57,-0.47,
3.039,-0.14,-1.40,-5.64,-0.93,0.46,-0.46,
3.039,-0.14,-1.40,-5.64,-0.98,0.33,-0.46,
3.039,-0.14,-1.40,-5.64,-1.04,0.19,-0.45,
3.039,-0.44,-0.85,-6.28,-1.04,0.19,-0.45,
3.039,-0.44,-0.85,-6.28,-1.09,0.05,-0.45,
3.04,-0.44,-0.85,-6.28,-1.13,-0.11,-0.45,
3.044,-0.44,-0.85,-6.28,-1.17,-0.28,-0.44,
3.044,-0.44,-0.85,-6.28,-1.20,-0.45,-0.44,
3.044,-0.44,-0.85,-6.28,-1.22,-0.64,-0.43,
3.047,-0.76,-0.06,-5.74,-1.22,-0.64,-0.43,
3.047,-0.76,-0.06,-5.74,-1.24,-0.82,-0.42,
3.049,-0.76,-0.06,-5.74,-1.26,-1.01,-0.41,
3.05,-0.76,-0.06,-5.74,-1.26,-1.20,-0.40,
3.053,-0.76,-0.06,-5.74,-1.26,-1.39,-0.39,
3.054,-0.76,-0.06,-5.74,-1.26,-1.57,-0.37,
3.057,-1.20,0.54,-4.98,-1.26,-1.57,-0.37,
3.057,-1.20,0.54,-4.98,-1.26,-1.76,-0.36,
3.059,-1.20,0.54,-4.98,-1.25,-1.94,-0.34,
3.06,-1.20,0.54,-4.98,-1.24,-2.12,-0.32,
3.063,-1.20,0.54,-4.98,-1.22,-2.29,-0.31,
3.064,-1.20,0.54,-4.98,-1.21,-2.45,-0.30,
3.067,-1.32,0.75,-4.21,-1.21,-2.45,-0.30,
3.067,-1.32,0.75,-4.21,-1.20,-2.61,-0.29,
3.068,-1.32,0.75,-4.21,-1.19,-2.75,-0.27,
3.07,-1.32,0.75,-4.21,-1.18,-2.89,-0.26,
3.072,-1.32,0.75,-4.21,-1.17,-3.02,-0.25,
3.074,-1.32,0.75,-4.21,-1.16,-3.14,-0.23,
3.076,-1.56,0.68,-3.87,-1.16,-3.14,-0.23,
3.076,-1.56,0.68,-3.87,-1.15,-3.25,-0.22,
3.078,-1.56,0.68,-3.87,-1.14,-3.35,-0.20,
3.081,-1.56,0.68,-3.87,-1.13,-3.44,-0.19,
3.082,-1.56,0.68,-3.87,-1.13,-3.53,-0.18,
3.084,-1.56,0.68,-3.87,-1.12,-3.61,-0.17,
3.087,-1.77,0.28,-3.48,-1.12,-3.61,-0.17,
3.087,-1.77,0.28,-3.48,-1.11,-3.68,-0.15,
3.088,-1.77,0.28,-3.48,-1.11,-3.74,-0.14,
3.09,-1.77,0.28,-3.48,-1.11,-3.79,-0.14,
3.092,-1.77,0.28,-3.48,-1.10,-3.83,-0.13,
3.094,-1.77,0.28,-3.48,-1.09,-3.85,-0.12,
3.097,-1.98,-0.30,-3.11,-1.09,-3.85,-0.12,
3.097,-1.98,-0.30,-3.11,-1.09,-3.86,-0.12,
3.098,-1.98,-0.30,-3.11,-1.08,-3.86,-0.11,
3.1,-1.98,-0.30,-3.11,-1.07,-3.86,-0.09,
3.102,-1.98,-0.30,-3.11,-1.04,-3.86,-0.07,
3.104,-1.98,-0.30,-3.11,-0.96,-3.85,-0.04,
3.107,-3.42,-0.49,0.43,-0.96,-3.85,-0.04,
3.13,-3.42,-0.49,0.43,-0.81,-3.82,0.02,
3.13,-3.42,-0.49,0.43,-0.58,-3.73,0.10,
3.13,-3.42,-0.49,0.43,-0.32,-3.57,0.19,
3.13,-3.42,-0.49,0.43,-0.08,-3.36,0.29,
3.13,-3.42,-0.49,0.43,0.15,-3.09,0.38,
3.131,-6.53,-0.07,7.59,0.15,-3.09,0.38,
3.131,-6.53,-0.07,7.59,0.34,-2.73,0.46,
3.131,-6.53,-0.07,7.59,0.46,-2.21,0.51,
3.131,-6.53,-0.07,7.59,0.52,-1.68,0.55,
3.132,-6.53,-0.07,7.59,0.54,-1.24,0.57,
3.132,-6.53,-0.07,7.59,0.53,-0.83,0.57,
3.132,-4.87,-0.11,2.90,0.53,-0.83,0.57,
3.132,-4.87,-0.11,2.90,0.49,-0.46,0.56,
3.132,-4.87,-0.11,2.90,0.42,-0.12,0.55,
3.133,-4.87,-0.11,2.90,0.34,0.18,0.53,
3.133,-4.87,-0.11,2.90,0.23,0.45,0.50,
3.139,-4.87,-0.11,2.90,0.12,0.68,0.48,
3.139,-2.26,-0.39,-2.02,0.12,0.68,0.48,
3.139,-2.26,-0.39,-2.02,-0.01,0.86,0.45,
3.139,-2.26,-0.39,-2.02,-0.16,0.98,0.43,
3.141,-2.26,-0.39,-2.02,-0.32,1.07,0.40,
3.146,-2.26,-0.39,-2.02,-0.48,1.11,0.38,
3.146,-2.26,-0.39,-2.02,-0.65,1.12,0.35,
3.151,-0.07,-0.91,-4.62,-0.65,1.12,0.35,
3.152,-0.07,-0.91,-4.62,-0.81,1.12,0.33,
3.152,-0.07,-0.91,-4.62,-0.97,1.09,0.31,
3.152,-0.07,-0.91,-4.62,-1.13,1.04,0.28,
3.153,-0.07,-0.91,-4.62,-1.27,0.98,0.26,
3.155,-0.07,-0.91,-4.62,-1.41,0.90,0.23,
3.16,1.75,-1.64,-5.02,-1.41,0.90,0.23,
3.16,1.75,-1.64,-5.02,-1.54,0.81,0.21,
3.16,1.75,-1.64,-5.02,-1.67,0.70,0.18,
3.16,1.75,-1.64,-5.02,-1.78,0.58,0.14,
3.17,1.75,-1.64,-5.02,-1.89,0.45,0.10,
3.17,1.75,-1.64,-5.02,-1.99,0.31,0.05,
3.17,3.48,-2.11,-4.27,-1.99,0.31,0.05,
3.17,3.48,-2.11,-4.27,-2.09,0.17,-0.01,
3.171,3.48,-2.11,-4.27,-2.18,0.01,-0.08,
3.171,3.48,-2.11,-4.27,-2.25,-0.16,-0.15,
3.242,3.48,-2.11,-4.27,-2.32,-0.34,-0.23,
3.243,3.48,-2.11,-4.27,-2.37,-0.53,-0.31,
3.243,5.41,-2.55,-2.94,-2.37,-0.53,-0.31,
3.243,5.41,-2.55,-2.94,-2.42,-0.74,-0.40,
3.244,5.41,-2.55,-2.94,-2.45,-0.94,-0.50,
3.244,5.41,-2.55,-2.94,-2.48,-1.27,-0.63,
3.245,5.41,-2.55,-2.94,-2.49,-1.49,-0.73,
3.246,5.41,-2.55,-2.94,-2.48,-1.60,-0.77,
3.246,6.33,-2.61,-1.46,-2.48,-1.60,-0.77,
3.246,6.33,-2.61,-1.46,-2.48,-1.82,-0.87,
3.246,6.33,-2.61,-1.46,-2.47,-2.04,-0.96,
3.246,6.33,-2.61,-1.46,-2.44,-2.25,-1.05,
3.247,6.33,-2.61,-1.46,-2.42,-2.45,-1.14,
3.247,6.33,-2.61,-1.46,-2.38,-2.64,-1.22,
3.247,6.63,-2.29,-0.73,-2.38,-2.64,-1.22,
3.247,6.63,-2.29,-0.73,-2.35,-2.81,-1.30,
3.247,6.63,-2.29,-0.73,-2.31,-2.97,-1.38,
3.247,6.63,-2.29,-0.73,-2.26,-3.12,-1.46,
3.247,6.63,-2.29,-0.73,-2.22,-3.24,-1.53,
3.248,6.63,-2.29,-0.73,-2.18,-3.36,-1.60,
3.248,5.96,-1.55,-0.78,-2.18,-3.36,-1.60,
3.248,5.96,-1.55,-0.78,-2.14,-3.46,-1.66,
3.248,5.96,-1.55,-0.78,-2.09,-3.54,-1.72,
3.248,5.96,-1.55,-0.78,-2.05,-3.59,-1.77,
3.248,5.96,-1.55,-0.78,-2.01,-3.63,-1.82,
3.249,5.96,-1.55,-0.78,-1.96,-3.66,-1.87,
3.249,5.43,-0.60,-1.19,-1.96,-3.66,-1.87,
3.249,5.43,-0.60,-1.19,-1.92,-3.68,-1.90,
3.249,5.43,-0.60,-1.19,-1.87,-3.68,-1.94,
3.249,5.43,-0.60,-1.19,-1.81,-3.67,-1.97,
3.249,5.43,-0.60,-1.19,-1.76,-3.65,-1.99,
3.249,5.43,-0.60,-1.19,-1.74,-3.64,-2.00,
3.25,4.44,0.36,-1.36,-1.74,-3.64,-2.00,
3.25,4.44,0.36,-1.36,-1.69,-3.60,-2.01,
3.25,4.44,0.36,-1.36,-1.63,-3.55,-2.01,
3.25,4.44,0.36,-1.36,-1.58,-3.50,-2.01,
3.25,4.44,0.36,-1.36,-1.52,-3.44,-2.00,
3.25,4.44,0.36,-1.36,-1.46,-3.37,-1.99,
3.25,3.38,1.08,-1.19,-1.46,-3.37,-1.99,
3.251,3.38,1.08,-1.19,-1.40,-3.29,-1.97,
3.251,3.38,1.08,-1.19,-1.34,-3.21,-1.95,
3.251,3.38,1.08,-1.19,-1.28,-3.13,-1.93,
3.251,3.38,1.08,-1.19,-1.23,-3.03,-1.90,
3.251,3.38,1.08,-1.19,-1.17,-2.93,-1.87,
3.251,2.23,1.54,-1.07,-1.17,-2.93,-1.87,
3.251,2.23,1.54,-1.07,-1.12,-2.81,-1.83,
3.252,2.23,1.54,-1.07,-1.07,-2.68,-1.80,
3.252,2.23,1.54,-1.07,-1.01,-2.48,-1.74,
3.253,2.23,1.54,-1.07,-0.99,-2.41,-1.73,
3.257,2.23,1.54,-1.07,-0.96,-2.26,-1.69,
3.258,1.65,1.72,-1.38,-0.96,-2.26,-1.69,
3.258,1.65,1.72,-1.38,-0.93,-2.10,-1.66,
3.261,1.65,1.72,-1.38,-0.90,-1.95,-1.63,
3.261,1.65,1.72,-1.38,-0.88,-1.79,-1.59,
3.263,1.65,1.72,-1.38,-0.85,-1.63,-1.55,
3.265,1.65,1.72,-1.38,-0.83,-1.47,-1.52,
3.268,1.28,1.67,-1.52,-0.83,-1.47,-1.52,
3.269,1.28,1.67,-1.52,-0.82,-1.31,-1.48,
3.269,1.28,1.67,-1.52,-0.81,-1.16,-1.45,
3.271,1.28,1.67,-1.52,-0.80,-1.01,-1.41,
3.273,1.28,1.67,-1.52,-0.79,-0.86,-1.38,
3.289,1.28,1.67,-1.52,-0.79,-0.72,-1.34,
3.289,0.85,1.31,-1.52,-0.79,-0.72,-1.34,
3.29,0.85,1.31,-1.52,-0.79,-0.59,-1.30,
3.29,0.85,1.31,-1.52,-0.79,-0.47,-1.27,
3.29,0.85,1.31,-1.52,-0.80,-0.35,-1.23,
3.29,0.85,1.31,-1.52,-0.80,-0.24,-1.19,
3.29,0.85,1.31,-1.52,-0.81,-0.14,-1.15,
3.29,0.39,0.66,-1.17,-0.81,-0.14,-1.15,
3.29,0.39,0.66,-1.17,-0.82,-0.05,-1.12,
3.296,0.39,0.66,-1.17,-0.83,0.04,-1.09,
3.296,0.39,0.66,-1.17,-0.85,0.12,-1.05,
3.297,0.39,0.66,-1.17,-0.86,0.19,-1.02,
3.297,0.39,0.66,-1.17,-0.88,0.26,-0.99,
3.297,0.30,0.04,-0.80,-0.88,0.26,-0.99,
3.297,0.30,0.04,-0.80,-0.89,0.32,-0.97,
3.306,0.30,0.04,-0.80,-0.92,0.38,-0.94,
3.306,0.30,0.04,-0.80,-0.94,0.44,-0.92,
3.306,0.30,0.04,-0.80,-0.99,0.51,-0.90,
3.306,0.30,0.04,-0.80,-1.08,0.61,-0.88,
3.307,0.13,-0.56,-0.37,-1.08,0.61,-0.88,
3.31,0.13,-0.56,-0.37,-1.19,0.72,-0.87,
3.311,0.13,-0.56,-0.37,-1.31,0.83,-0.86,
3.311,0.13,-0.56,-0.37,-1.44,0.94,-0.85,
3.319,0.13,-0.56,-0.37,-1.56,1.03,-0.84,
3.32,0.13,-0.56,-0.37,-1.69,1.11,-0.83,
3.32,-0.90,-0.94,1.15,-1.69,1.11,-0.83,
3.32,-0.90,-0.94,1.15,-1.80,1.17,-0.81,
3.32,-0.90,-0.94,1.15,-1.89,1.21,-0.79,
3.32,-0.90,-0.94,1.15,-1.97,1.24,-0.77,
3.325,-0.90,-0.94,1.15,-2.04,1.25,-0.74,
3.326,-0.90,-0.94,1.15,-2.08,1.24,-0.70,
3.332,-1.95,-0.77,3.25,-2.08,1.24,-0.70,
3.333,-1.95,-0.77,3.25,-2.11,1.21,-0.66,
3.333,-1.95,-0.77,3.25,-2.13,1.17,-0.62,
3.333,-1.95,-0.77,3.25,-2.11,1.07,-0.55,
3.333,-1.95,-0.77,3.25,-2.10,1.04,-0.52,
3.335,-1.95,-0.77,3.25,-2.07,0.95,-0.47,
3.342,-2.54,-0.39,5.30,-2.07,0.95,-0.47,
3.343,-2.54,-0.39,5.30,-2.02,0.84,-0.41,
3.343,-2.54,-0.39,5.30,-1.92,0.66,-0.33,
3.343,-2.54,-0.39,5.30,-1.84,0.53,-0.27,
3.343,-2.54,-0.39,5.30,-1.80,0.45,-0.24,
3.382,-2.54,-0.39,5.30,-1.71,0.30,-0.18,
3.382,-2.35,0.04,6.18,-1.71,0.30,-0.18,
3.383,-2.35,0.04,6.18,-1.62,0.15,-0.13,
3.383,-2.35,0.04,6.18,-1.52,-0.02,-0.07,
3.383,-2.35,0.04,6.18,-1.41,-0.18,-0.02,
3.383,-2.35,0.04,6.18,-1.31,-0.33,0.03,
3.383,-2.35,0.04,6.18,-1.22,-0.48,0.07,
3.384,-1.37,0.36,5.81,-1.22,-0.48,0.07,
3.384,-1.37,0.36,5.81,-1.12,-0.62,0.11,
3.384,-1.37,0.36,5.81,-1.03,-0.76,0.15,
3.384,-1.37,0.36,5.81,-0.94,-0.87,0.18,
3.384,-1.37,0.36,5.81,-0.86,-0.98,0.20,
3.384,-1.37,0.36,5.81,-0.79,-1.07,0.21,
3.385,-0.10,0.72,4.23,-0.79,-1.07,0.21,
3.385,-0.10,0.72,4.23,-0.73,-1.15,0.22,
3.385,-0.10,0.72,4.23,-0.67,-1.22,0.23,
3.385,-0.10,0.72,4.23,-0.63,-1.27,0.23,
3.385,-0.10,0.72,4.23,-0.59,-1.31,0.22,
3.386,-0.10,0.72,4.23,-0.57,-1.33,0.22,
3.386,0.93,0.76,2.34,-0.57,-1.33,0.22,
3.386,0.93,0.76,2.34,-0.55,-1.34,0.21,
3.386,0.93,0.76,2.34,-0.54,-1.33,0.19,
3.386,0.93,0.76,2.34,-0.53,-1.31,0.17,
3.386,0.93,0.76,2.34,-0.54,-1.27,0.16,
3.387,0.93,0.76,2.34,-0.55,-1.24,0.14,
3.387,1.47,0.60,0.58,-0.55,-1.24,0.14,
3.387,1.47,0.60,0.58,-0.57,-1.18,0.12,
3.391,1.47,0.60,0.58,-0.60,-1.13,0.10,
3.391,1.47,0.60,0.58,-0.63,-1.07,0.08,
3.394,1.47,0.60,0.58,-0.67,-1.00,0.05,
3.394,1.47,0.60,0.58,-0.72,-0.93,0.03,
3.398,1.65,0.46,-0.61,-0.72,-0.93,0.03,
3.398,1.65,0.46,-0.61,-0.77,-0.86,0.01,
3.398,1.65,0.46,-0.61,-0.82,-0.79,-0.01,
3.403,1.65,0.46,-0.61,-0.92,-0.68,-0.03,
3.403,1.65,0.46,-0.61,-0.95,-0.65,-0.05,
3.407,1.65,0.46,-0.61,-1.06,-0.54,-0.07,
3.407,1.46,0.35,-0.97,-1.06,-0.54,-0.07,
3.407,1.46,0.35,-0.97,-1.14,-0.48,-0.09,
3.41,1.46,0.35,-0.97,-1.18,-0.45,-0.09,
3.411,1.46,0.35,-0.97,-1.30,-0.36,-0.12,
3.414,1.46,0.35,-0.97,-1.35,-0.33,-0.13,
3.414,1.46,0.35,-0.97,-1.48,-0.26,-0.16,
3.419,1.26,0.00,-0.51,-1.48,-0.26,-0.16,
3.42,1.26,0.00,-0.51,-1.56,-0.21,-0.17,
3.42,1.26,0.00,-0.51,-1.60,-0.19,-0.18,
3.42,1.26,0.00,-0.51,-1.72,-0.14,-0.20,
3.424,1.26,0.00,-0.51,-1.75,-0.12,-0.21,
3.425,1.26,0.00,-0.51,-1.85,-0.09,-0.22,
3.428,0.88,-0.57,0.83,-1.85,-0.09,-0.22,
3.428,0.88,-0.57,0.83,-1.91,-0.08,-0.23,
3.431,0.88,-0.57,0.83,-1.93,-0.07,-0.23,
3.432,0.88,-0.57,0.83,-1.99,-0.06,-0.23,
3.435,0.88,-0.57,0.83,-2.01,-0.05,-0.23,
3.435,0.88,-0.57,0.83,-2.04,-0.05,-0.22,
3.437,0.48,-1.37,2.77,-2.04,-0.05,-0.22,
3.437,0.48,-1.37,2.77,-2.05,-0.05,-0.21,
3.438,0.48,-1.37,2.77,-2.05,-0.05,-0.21,
3.45,0.48,-1.37,2.77,-2.04,-0.07,-0.19,
3.45,0.48,-1.37,2.77,-2.02,-0.07,-0.18,
3.45,0.48,-1.37,2.77,-1.99,-0.08,-0.16,
3.45,0.09,-2.36,4.91,-1.99,-0.08,-0.16,
3.45,0.09,-2.36,4.91,-1.95,-0.09,-0.14,
3.451,0.09,-2.36,4.91,-1.89,-0.10,-0.12,
3.451,0.09,-2.36,4.91,-1.83,-0.12,-0.10,
3.46,0.09,-2.36,4.91,-1.75,-0.14,-0.07,
3.461,0.09,-2.36,4.91,-1.66,-0.16,-0.04,
3.461,-0.17,-3.43,7.37,-1.66,-0.16,-0.04,
3.461,-0.17,-3.43,7.37,-1.56,-0.18,-0.01,
3.461,-0.17,-3.43,7.37,-1.44,-0.21,0.02,
3.461,-0.17,-3.43,7.37,-1.32,-0.25,0.05,
3.465,-0.17,-3.43,7.37,-1.18,-0.29,0.09,
3.465,-0.17,-3.43,7.37,-1.04,-0.34,0.13,
3.47,-0.14,-4.01,8.62,-1.04,-0.34,0.13,
3.47,-0.14,-4.01,8.62,-0.90,-0.39,0.16,
3.47,-0.14,-4.01,8.62,-0.74,-0.44,0.19,
3.472,-0.14,-4.01,8.62,-0.59,-0.49,0.21,
3.473,-0.14,-4.01,8.62,-0.44,-0.53,0.24,
3.485,-0.14,-4.01,8.62,-0.29,-0.57,0.26,
3.485,0.23,-3.94,8.09,-0.29,-0.57,0.26,
3.485,0.23,-3.94,8.09,-0.14,-0.61,0.28,
3.485,0.23,-3.94,8.09,-0.01,-0.63,0.29,
3.485,0.23,-3.94,8.09,0.12,-0.64,0.30,
3.487,0.23,-3.94,8.09,0.24,-0.64,0.30,
3.487,0.23,-3.94,8.09,0.35,-0.63,0.29,
3.488,0.51,-3.41,5.60,0.35,-0.63,0.29,
3.488,0.51,-3.41,5.60,0.45,-0.61,0.28,
3.489,0.51,-3.41,5.60,0.53,-0.58,0.27,
3.491,0.51,-3.41,5.60,0.60,-0.54,0.26,
3.493,0.51,-3.41,5.60,0.67,-0.50,0.24,
3.495,0.51,-3.41,5.60,0.71,-0.46,0.23,
3.498,0.42,-2.89,3.29,0.71,-0.46,0.23,
3.498,0.42,-2.89,3.29,0.75,-0.42,0.21,
3.498,0.42,-2.89,3.29,0.78,-0.38,0.18,
3.501,0.42,-2.89,3.29,0.79,-0.34,0.16,
3.502,0.42,-2.89,3.29,0.80,-0.30,0.14,
3.505,0.42,-2.89,3.29,0.79,-0.27,0.11,
3.51,0.09,-2.92,1.71,0.79,-0.27,0.11,
3.51,0.09,-2.92,1.71,0.76,-0.20,0.05,
3.51,0.09,-2.92,1.71,0.76,-0.20,0.05,
3.511,0.09,-2.92,1.71,0.73,-0.16,0.02,
3.512,0.09,-2.92,1.71,0.69,-0.12,-0.01,
3.515,0.09,-2.92,1.71,0.66,-0.09,-0.05,
3.517,-0.20,-3.25,1.50,0.66,-0.09,-0.05,
3.518,-0.20,-3.25,1.50,0.62,-0.06,-0.08,
3.519,-0.20,-3.25,1.50,0.58,-0.03,-0.11,
3.52,-0.20,-3.25,1.50,0.55,-0.01,-0.14,
3.522,-0.20,-3.25,1.50,0.52,0.02,-0.17,
3.545,-0.20,-3.25,1.50,0.50,0.03,-0.20,
3.545,-0.86,-3.42,2.03,0.50,0.03,-0.20,
3.545,-0.86,-3.42,2.03,0.48,0.05,-0.22,
3.545,-0.86,-3.42,2.03,0.47,0.06,-0.24,
3.546,-0.86,-3.42,2.03,0.47,0.08,-0.25,
3.546,-0.86,-3.42,2.03,0.48,0.10,-0.25,
3.546,-0.86,-3.42,2.03,0.50,0.13,-0.25,
3.546,-1.97,-2.88,3.55,0.50,0.13,-0.25,
3.546,-1.97,-2.88,3.55,0.53,0.17,-0.24,
3.547,-1.97,-2.88,3.55,0.57,0.21,-0.23,
3.547,-1.97,-2.88,3.55,0.62,0.27,-0.21,
3.547,-1.97,-2.88,3.55,0.69,0.33,-0.19,
3.547,-1.97,-2.88,3.55,0.77,0.40,-0.16,
3.55,-3.17,-2.00,5.47,0.77,0.40,-0.16,
3.55,-3.17,-2.00,5.47,0.86,0.49,-0.13,
3.55,-3.17,-2.00,5.47,0.96,0.57,-0.08,
3.552,-3.17,-2.00,5.47,1.07,0.67,-0.04,
3.553,-3.17,-2.00,5.47,1.19,0.77,0.01,
3.555,-3.17,-2.00,5.47,1.33,0.88,0.07,
3.558,-4.29,-1.40,7.63,1.33,0.88,0.07,
3.559,-4.29,-1.40,7.63,1.47,0.99,0.13,
3.56,-4.29,-1.40,7.63,1.63,1.11,0.20,
3.561,-4.29,-1.40,7.63,1.80,1.23,0.27,
3.563,-4.29,-1.40,7.63,1.98,1.36,0.34,
3.565,-4.29,-1.40,7.63,2.18,1.49,0.42,
3.567,-4.66,-1.04,9.64,2.18,1.49,0.42,
3.567,-4.66,-1.04,9.64,2.38,1.62,0.49,
3.569,-4.66,-1.04,9.64,2.59,1.74,0.57,
3.57,-4.66,-1.04,9.64,2.81,1.86,0.65,
3.572,-4.66,-1.04,9.64,3.03,1.97,0.72,
3.582,-4.66,-1.04,9.64,3.24,2.06,0.78,
3.582,-3.76,-0.60,10.88,3.24,2.06,0.78,
3.582,-3.76,-0.60,10.88,3.44,2.13,0.84,
3.582,-3.76,-0.60,10.88,3.62,2.18,0.89,
3.583,-3.76,-0.60,10.88,3.77,2.21,0.93,
3.583,-3.76,-0.60,10.88,3.90,2.21,0.96,
3.585,-3.76,-0.60,10.88,4.00,2.20,0.99,
3.588,-1.30,-0.85,7.45,4.00,2.20,0.99,
3.588,-1.30,-0.85,7.45,4.06,2.16,1.01,
3.589,-1.30,-0.85,7.45,4.09,2.10,1.02,
3.591,-1.30,-0.85,7.45,4.07,2.02,1.04,
3.615,-1.30,-0.85,7.45,4.03,1.92,1.05,
3.616,-1.30,-0.85,7.45,3.95,1.81,1.05,
3.616,0.69,-2.17,0.11,3.95,1.81,1.05,
3.616,0.69,-2.17,0.11,3.85,1.67,1.06,
3.616,0.69,-2.17,0.11,3.72,1.53,1.06,
3.616,0.69,-2.17,0.11,3.58,1.37,1.06,
3.616,0.69,-2.17,0.11,3.43,1.21,1.05,
3.617,0.69,-2.17,0.11,3.28,1.03,1.04,
3.617,1.70,-3.72,-5.83,3.28,1.03,1.04,
3.632,1.70,-3.72,-5.83,3.13,0.84,1.03,
3.632,1.70,-3.72,-5.83,2.98,0.66,1.02,
3.632,1.70,-3.72,-5.83,2.83,0.49,1.00,
3.632,1.70,-3.72,-5.83,2.68,0.32,0.96,
3.632,1.70,-3.72,-5.83,2.55,0.16,0.92,
3.634,3.07,-4.46,-8.12,2.55,0.16,0.92,
3.634,3.07,-4.46,-8.12,2.42,0.01,0.87,
3.635,3.07,-4.46,-8.12,2.30,-0.13,0.80,
3.635,3.07,-4.46,-8.12,2.20,-0.27,0.73,
3.636,3.07,-4.46,-8.12,2.10,-0.38,0.65,
3.636,3.07,-4.46,-8.12,2.02,-0.49,0.56,
3.636,4.97,-4.29,-7.49,2.02,-0.49,0.56,
3.637,4.97,-4.29,-7.49,1.95,-0.58,0.48,
3.637,4.97,-4.29,-7.49,1.89,-0.66,0.39,
3.638,4.97,-4.29,-7.49,1.83,-0.72,0.30,
3.638,4.97,-4.29,-7.49,1.79,-0.77,0.22,
3.654,4.97,-4.29,-7.49,1.75,-0.81,0.14,
3.655,5.73,-4.02,-6.20,1.75,-0.81,0.14,
3.655,5.73,-4.02,-6.20,1.73,-0.83,0.07,
3.655,5.73,-4.02,-6.20,1.71,-0.83,0.00,
3.656,5.73,-4.02,-6.20,1.69,-0.82,-0.06,
3.656,5.73,-4.02,-6.20,1.69,-0.80,-0.12,
3.657,5.73,-4.02,-6.20,1.69,-0.77,-0.18,
3.657,5.33,-3.94,-5.02,1.69,-0.77,-0.18,
3.657,5.33,-3.94,-5.02,1.69,-0.73,-0.23,
3.658,5.33,-3.94,-5.02,1.70,-0.68,-0.28,
3.658,5.33,-3.94,-5.02,1.71,-0.63,-0.32,
3.659,5.33,-3.94,-5.02,1.74,-0.56,-0.35,
3.667,5.33,-3.94,-5.02,1.76,-0.50,-0.38,
3.668,4.78,-4.11,-4.37,1.76,-0.50,-0.38,
3.668,4.78,-4.11,-4.37,1.78,-0.42,-0.41,
3.669,4.78,-4.11,-4.37,1.81,-0.35,-0.43,
3.669,4.78,-4.11,-4.37,1.84,-0.27,-0.45,
3.669,4.78,-4.11,-4.37,1.87,-0.20,-0.47,
3.67,4.78,-4.11,-4.37,1.91,-0.12,-0.48,
3.673,4.07,-4.19,-3.83,1.91,-0.12,-0.48,
3.674,4.07,-4.19,-3.83,1.94,-0.04,-0.49,
3.674,4.07,-4.19,-3.83,1.98,0.04,-0.50,
3.674,4.07,-4.19,-3.83,2.01,0.12,-0.50,
3.675,4.07,-4.19,-3.83,2.05,0.19,-0.50,
3.677,4.07,-4.19,-3.83,2.08,0.25,-0.49,
3.677,3.38,-4.23,-3.72,2.08,0.25,-0.49,
3.683,3.38,-4.23,-3.72,2.11,0.31,-0.48,
3.683,3.38,-4.23,-3.72,2.15,0.37,-0.47,
3.683,3.38,-4.23,-3.72,2.18,0.42,-0.45,
3.684,3.38,-4.23,-3.72,2.21,0.46,-0.43,
3.686,3.38,-4.23,-3.72,2.23,0.50,-0.40,
3.688,2.36,-4.10,-3.70,2.23,0.50,-0.40,
3.689,2.36,-4.10,-3.70,2.26,0.53,-0.37,
3.689,2.36,-4.10,-3.70,2.29,0.55,-0.34,
3.724,2.36,-4.10,-3.70,2.33,0.56,-0.31,
3.725,2.36,-4.10,-3.70,2.40,0.56,-0.29,
3.725,2.36,-4.10,-3.70,2.49,0.56,-0.27,
3.725,1.91,-4.01,-1.90,2.49,0.56,-0.27,
3.726,1.91,-4.01,-1.90,2.61,0.55,-0.25,
3.726,1.91,-4.01,-1.90,2.74,0.55,-0.24,
3.726,1.91,-4.01,-1.90,2.88,0.55,-0.23,
3.726,1.91,-4.01,-1.90,3.03,0.55,-0.21,
3.727,1.91,-4.01,-1.90,3.19,0.56,-0.19,
3.728,1.59,-4.47,1.61,3.19,0.56,-0.19,
3.728,1.59,-4.47,1.61,3.33,0.57,-0.17,
3.729,1.59,-4.47,1.61,3.47,0.57,-0.14,
3.729,1.59,-4.47,1.61,3.60,0.58,-0.11,
3.729,1.59,-4.47,1.61,3.71,0.58,-0.08,
3.729,1.59,-4.47,1.61,3.81,0.57,-0.05,
3.729,0.80,-4.52,1.58,3.81,0.57,-0.05,
3.73,0.80,-4.52,1.58,3.89,0.57,-0.01,
3.73,0.80,-4.52,1.58,3.96,0.56,0.03,
3.73,0.80,-4.52,1.58,4.00,0.55,0.07,
3.73,0.80,-4.52,1.58,4.03,0.53,0.11,
3.731,0.80,-4.52,1.58,4.05,0.53,0.16,
3.731,-0.04,-4.36,-0.47,4.05,0.53,0.16,
3.731,-0.04,-4.36,-0.47,4.05,0.53,0.21,
3.731,-0.04,-4.36,-0.47,4.04,0.53,0.25,
3.732,-0.04,-4.36,-0.47,4.02,0.55,0.30,
3.739,-0.04,-4.36,-0.47,3.98,0.57,0.35,
3.745,-0.04,-4.36,-0.47,3.93,0.61,0.40,
3.745,-0.52,-4.18,-2.49,3.93,0.61,0.40,
3.747,-0.52,-4.18,-2.49,3.88,0.66,0.44,
3.748,-0.52,-4.18,-2.49,3.80,0.72,0.48,
3.748,-0.52,-4.18,-2.49,3.72,0.81,0.51,
3.748,-0.52,-4.18,-2.49,3.63,0.91,0.55,
3.749,-0.52,-4.18,-2.49,3.53,1.02,0.58,
3.749,-0.38,-3.77,-4.11,3.53,1.02,0.58,
3.75,-0.38,-3.77,-4.11,3.42,1.14,0.61,
3.75,-0.38,-3.77,-4.11,3.30,1.27,0.63,
3.75,-0.38,-3.77,-4.11,3.17,1.39,0.64,
3.753,-0.38,-3.77,-4.11,3.04,1.52,0.65,
3.757,-0.38,-3.77,-4.11,2.90,1.64,0.65,
3.758,0.29,-2.99,-5.67,2.90,1.64,0.65,
3.758,0.29,-2.99,-5.67,2.76,1.76,0.65,
3.76,0.29,-2.99,-5.67,2.62,1.89,0.64,
3.761,0.29,-2.99,-5.67,2.47,2.00,0.63,
3.765,0.29,-2.99,-5.67,2.33,2.12,0.61,
3.766,0.29,-2.99,-5.67,2.19,2.22,0.59,
3.767,0.96,-1.80,-6.61,2.19,2.22,0.59,
3.768,0.96,-1.80,-6.61,2.05,2.32,0.57,
3.769,0.96,-1.80,-6.61,1.91,2.41,0.54,
3.771,0.96,-1.80,-6.61,1.78,2.50,0.51,
3.773,0.96,-1.80,-6.61,1.66,2.58,0.47,
3.792,0.96,-1.80,-6.61,1.54,2.65,0.43,
3.792,1.58,-0.86,-6.95,1.54,2.65,0.43,
3.792,1.58,-0.86,-6.95,1.43,2.72,0.39,
3.793,1.58,-0.86,-6.95,1.33,2.78,0.34,
3.793,1.58,-0.86,-6.95,1.23,2.84,0.29,
3.799,1.58,-0.86,-6.95,1.14,2.89,0.25,
3.8,1.58,-0.86,-6.95,1.06,2.94,0.21,
3.8,1.72,-0.08,-6.48,1.06,2.94,0.21,
3.8,1.72,-0.08,-6.48,0.98,2.98,0.16,
3.801,1.72,-0.08,-6.48,0.92,3.03,0.13,
3.801,1.72,-0.08,-6.48,0.87,3.06,0.09,
3.801,1.72,-0.08,-6.48,0.84,3.11,0.06,
3.801,1.72,-0.08,-6.48,0.81,3.15,0.04,
3.802,1.22,0.47,-5.60,0.81,3.15,0.04,
3.802,1.22,0.47,-5.60,0.81,3.19,0.01,
3.802,1.22,0.47,-5.60,0.81,3.23,-0.01,
3.803,1.22,0.47,-5.60,0.83,3.26,-0.01,
3.804,1.22,0.47,-5.60,0.85,3.29,-0.02,
3.805,1.22,0.47,-5.60,0.88,3.31,-0.01,
3.812,0.49,1.08,-4.50,0.88,3.31,-0.01,
3.813,0.49,1.08,-4.50,0.92,3.32,-0.00,
3.813,0.49,1.08,-4.50,0.96,3.32,0.02,
3.813,0.49,1.08,-4.50,1.01,3.31,0.04,
3.815,0.49,1.08,-4.50,1.06,3.29,0.06,
3.815,0.49,1.08,-4.50,1.12,3.26,0.09,
3.818,-0.10,1.55,-4.33,1.12,3.26,0.09,
3.818,-0.10,1.55,-4.33,1.17,3.23,0.12,
3.819,-0.10,1.55,-4.33,1.23,3.18,0.16,
3.821,-0.10,1.55,-4.33,1.28,3.12,0.19,
3.823,-0.10,1.55,-4.33,1.34,3.05,0.22,
3.825,-0.10,1.55,-4.33,1.39,2.99,0.26,
3.827,-0.08,1.96,-4.58,1.39,2.99,0.26,
3.827,-0.08,1.96,-4.58,1.44,2.92,0.28,
3.831,-0.08,1.96,-4.58,1.49,2.85,0.31,
3.831,-0.08,1.96,-4.58,1.54,2.78,0.33,
3.833,-0.08,1.96,-4.58,1.59,2.72,0.34,
3.84,-0.08,1.96,-4.58,1.63,2.67,0.36,
3.84,0.56,2.24,-5.42,1.63,2.67,0.36,
3.84,0.56,2.24,-5.42,1.67,2.62,0.36,
3.84,0.56,2.24,-5.42,1.71,2.58,0.37,
3.842,0.56,2.24,-5.42,1.74,2.55,0.37,
3.843,0.56,2.24,-5.42,1.77,2.53,0.37,
3.847,0.56,2.24,-5.42,1.79,2.51,0.37,
3.848,1.29,2.73,-6.25,1.79,2.51,0.37,
3.848,1.29,2.73,-6.25,1.80,2.49,0.36,
3.849,1.29,2.73,-6.25,1.81,2.48,0.36,
3.851,1.29,2.73,-6.25,1.82,2.47,0.35,
3.882,1.29,2.73,-6.25,1.82,2.45,0.34,
3.883,1.29,2.73,-6.25,1.81,2.43,0.33,
3.883,1.64,3.20,-7.31,1.81,2.43,0.33,
3.883,1.64,3.20,-7.31,1.80,2.40,0.32,
3.883,1.64,3.20,-7.31,1.79,2.38,0.31,
3.884,1.64,3.20,-7.31,1.77,2.36,0.30,
3.884,1.64,3.20,-7.31,1.75,2.32,0.28,
3.884,1.64,3.20,-7.31,1.72,2.29,0.27,
3.884,1.83,3.86,-7.73,1.72,2.29,0.27,
3.884,1.83,3.86,-7.73,1.69,2.26,0.25,
3.884,1.83,3.86,-7.73,1.66,2.22,0.23,
3.885,1.83,3.86,-7.73,1.62,2.19,0.21,
3.885,1.83,3.86,-7.73,1.58,2.15,0.19,
3.885,1.83,3.86,-7.73,1.54,2.11,0.18,
3.885,1.89,4.46,-8.10,1.54,2.11,0.18,
3.885,1.89,4.46,-8.10,1.50,2.07,0.16,
3.885,1.89,4.46,-8.10,1.46,2.03,0.14,
3.886,1.89,4.46,-8.10,1.41,1.98,0.12,
3.891,1.89,4.46,-8.10,1.36,1.94,0.10,
3.891,1.89,4.46,-8.10,1.31,1.89,0.08,
3.891,1.89,5.07,-7.93,1.31,1.89,0.08,
3.891,1.89,5.07,-7.93,1.25,1.84,0.06,
3.891,1.89,5.07,-7.93,1.19,1.79,0.04,
3.894,1.89,5.07,-7.93,1.13,1.73,0.02,
3.895,1.89,5.07,-7.93,1.06,1.68,-0.00,
3.895,1.89,5.07,-7.93,0.99,1.63,-0.02,
3.898,1.82,5.52,-7.99,0.99,1.63,-0.02,
3.898,1.82,5.52,-7.99,0.92,1.58,-0.04,
3.899,1.82,5.52,-7.99,0.85,1.53,-0.06,
3.9,1.82,5.52,-7.99,0.78,1.47,-0.07,
3.903,1.82,5.52,-7.99,0.70,1.42,-0.09,
3.905,1.82,5.52,-7.99,0.63,1.37,-0.11,
3.907,1.70,5.90,-7.47,0.63,1.37,-0.11,
3.908,1.70,5.90,-7.47,0.55,1.32,-0.13,
3.911,1.70,5.90,-7.47,0.47,1.27,-0.14,
3.911,1.70,5.90,-7.47,0.38,1.21,-0.16,
3.913,1.70,5.90,-7.47,0.30,1.15,-0.18,
3.914,1.70,5.90,-7.47,0.21,1.09,-0.19,
3.917,1.46,5.98,-7.13,0.21,1.09,-0.19,
3.918,1.46,5.98,-7.13,0.13,1.03,-0.21,
3.919,1.46,5.98,-7.13,0.04,0.96,-0.22,
3.92,1.46,5.98,-7.13,-0.05,0.90,-0.23,
3.924,1.46,5.98,-7.13,-0.14,0.83,-0.25,
3.925,1.46,5.98,-7.13,-0.23,0.75,-0.26,
3.927,1.20,6.06,-6.29,-0.23,0.75,-0.26,
3.927,1.20,6.06,-6.29,-0.32,0.68,-0.27,
3.929,1.20,6.06,-6.29,-0.41,0.60,-0.28,
3.931,1.20,6.06,-6.29,-0.50,0.52,-0.28,
3.933,1.20,6.06,-6.29,-0.59,0.44,-0.29,
3.934,1.20,6.06,-6.29,-0.68,0.36,-0.29,
3.937,0.71,6.03,-5.73,-0.68,0.36,-0.29,
3.937,0.71,6.03,-5.73,-0.78,0.28,-0.29,
3.939,0.71,6.03,-5.73,-0.87,0.20,-0.30,
3.949,0.71,6.03,-5.73,-0.97,0.12,-0.30,
3.949,0.71,6.03,-5.73,-1.06,0.03,-0.30,
3.949,0.71,6.03,-5.73,-1.16,-0.05,-0.29,
3.95,0.37,6.01,-4.84,-1.16,-0.05,-0.29,
3.95,0.37,6.01,-4.84,-1.26,-0.13,-0.29,
3.95,0.37,6.01,-4.84,-1.36,-0.20,-0.29,
3.952,0.37,6.01,-4.84,-1.46,-0.28,-0.29,
3.954,0.37,6.01,-4.84,-1.57,-0.34,-0.28,
3.955,0.37,6.01,-4.84,-1.67,-0.40,-0.28,
3.958,-0.06,5.92,-3.95,-1.67,-0.40,-0.28,
3.959,-0.06,5.92,-3.95,-1.78,-0.45,-0.29,
3.959,-0.06,5.92,-3.95,-1.90,-0.50,-0.29,
3.961,-0.06,5.92,-3.95,-2.02,-0.53,-0.30,
3.963,-0.06,5.92,-3.95,-2.13,-0.55,-0.31,
3.964,-0.06,5.92,-3.95,-2.26,-0.55,-0.33,
3.969,-0.03,5.49,-2.91,-2.26,-0.55,-0.33,
3.969,-0.03,5.49,-2.91,-2.39,-0.54,-0.35,
3.969,-0.03,5.49,-2.91,-2.52,-0.52,-0.38,
3.97,-0.03,5.49,-2.91,-2.65,-0.50,-0.41,
3.972,-0.03,5.49,-2.91,-2.78,-0.47,-0.45,
3.974,-0.03,5.49,-2.91,-2.91,-0.43,-0.49,
3.977,0.08,4.54,-1.64,-2.91,-0.43,-0.49,
3.977,0.08,4.54,-1.64,-3.03,-0.39,-0.54,
3.978,0.08,4.54,-1.64,-3.15,-0.36,-0.58,
3.98,0.08,4.54,-1.64,-3.26,-0.32,-0.64,
3.987,0.08,4.54,-1.64,-3.36,-0.30,-0.69,
3.987,0.08,4.54,-1.64,-3.45,-0.28,-0.75,
3.989,0.24,2.55,0.61,-3.45,-0.28,-0.75,
3.989,0.24,2.55,0.61,-3.52,-0.29,-0.81,
3.989,0.24,2.55,0.61,-3.58,-0.30,-0.86,
3.992,0.24,2.55,0.61,-3.63,-0.34,-0.92,
3.996,0.24,2.55,0.61,-3.65,-0.39,-0.97,
3.996,0.24,2.55,0.61,-3.64,-0.46,-1.03,
3.998,-0.02,0.01,4.68,-3.64,-0.46,-1.03,
3.998,-0.02,0.01,4.68,-3.62,-0.55,-1.07,
4.001,-0.02,0.01,4.68,-3.55,-0.68,-1.12,
4.002,-0.02,0.01,4.68,-3.45,-0.84,-1.16,
4.002,-0.02,0.01,4.68,-3.31,-1.03,-1.19,
4.014,-1.04,-2.68,12.04,-3.31,-1.03,-1.19,
4.014,-1.04,-2.68,12.04,-2.91,-1.49,-1.24,
4.014,-1.04,-2.68,12.04,-2.91,-1.49,-1.24,
4.015,-1.04,-2.68,12.04,-2.65,-1.75,-1.24,
4.015,-1.04,-2.68,12.04,-2.36,-2.02,-1.24,
4.015,-1.04,-2.68,12.04,-2.03,-2.29,-1.22,
4.015,-1.04,-2.68,12.04,-1.69,-2.57,-1.19,
4.017,-3.95,-6.27,21.84,-1.69,-2.57,-1.19,
4.017,-3.95,-6.27,21.84,-1.35,-2.83,-1.15,
4.019,-3.95,-6.27,21.84,-1.01,-3.10,-1.11,
4.02,-3.95,-6.27,21.84,-0.68,-3.36,-1.05,
4.022,-3.95,-6.27,21.84,-0.36,-3.60,-0.99,
4.044,-3.95,-6.27,21.84,-0.05,-3.81,-0.92,
4.044,-6.84,-10.96,26.42,-0.05,-3.81,-0.92,
4.044,-6.84,-10.96,26.42,0.25,-3.97,-0.84,
4.045,-6.84,-10.96,26.42,0.53,-4.07,-0.76,
4.045,-6.84,-10.96,26.42,0.80,-4.07,-0.65,
4.045,-6.84,-10.96,26.42,1.07,-3.97,-0.53,
4.045,-6.84,-10.96,26.42,1.34,-3.76,-0.40,
4.046,-9.24,-14.36,26.60,1.34,-3.76,-0.40,
4.046,-9.24,-14.36,26.60,1.59,-3.43,-0.26,
4.046,-9.24,-14.36,26.60,1.83,-3.00,-0.12,
4.046,-9.24,-14.36,26.60,2.05,-2.50,0.02,
4.047,-9.24,-14.36,26.60,2.22,-1.96,0.15,
4.047,-9.24,-14.36,26.60,2.34,-1.42,0.27,
4.049,-8.46,-13.34,20.53,2.34,-1.42,0.27,
4.049,-8.46,-13.34,20.53,2.41,-0.91,0.36,
4.051,-8.46,-13.34,20.53,2.43,-0.42,0.42,
4.051,-8.46,-13.34,20.53,2.41,0.03,0.47,
4.054,-8.46,-13.34,20.53,2.36,0.43,0.50,
4.055,-8.46,-13.34,20.53,2.29,0.80,0.51,
4.058,-4.34,-8.20,10.20,2.29,0.80,0.51,
4.058,-4.34,-8.20,10.20,2.20,1.12,0.51,
4.06,-4.34,-8.20,10.20,2.09,1.39,0.50,
4.064,-4.34,-8.20,10.20,1.97,1.62,0.46,
4.064,-4.34,-8.20,10.20,1.85,1.81,0.42,
4.064,-4.34,-8.20,10.20,1.71,1.97,0.36,
4.067,-1.08,-3.52,4.03,1.71,1.97,0.36,
4.067,-1.08,-3.52,4.03,1.57,2.12,0.30,
4.069,-1.08,-3.52,4.03,1.43,2.28,0.23,
4.071,-1.08,-3.52,4.03,1.28,2.49,0.16,
4.074,-1.08,-3.52,4.03,1.13,2.72,0.08,
4.075,-1.08,-3.52,4.03,0.97,2.92,-0.00,
4.078,0.67,0.63,1.65,0.97,2.92,-0.00,
4.078,0.67,0.63,1.65,0.82,3.05,-0.08,
4.078,0.67,0.63,1.65,0.67,3.13,-0.16,
4.081,0.67,0.63,1.65,0.53,3.16,-0.23,
4.084,0.67,0.63,1.65,0.39,3.13,-0.29,
4.093,0.67,0.63,1.65,0.26,3.07,-0.34,
4.094,1.60,3.55,0.00,0.26,3.07,-0.34,
4.094,1.60,3.55,0.00,0.15,2.96,-0.38,
4.094,1.60,3.55,0.00,0.04,2.83,-0.40,
4.094,1.60,3.55,0.00,-0.07,2.67,-0.40,
4.094,1.60,3.55,0.00,-0.16,2.51,-0.39,
4.097,1.60,3.55,0.00,-0.26,2.35,-0.37,
4.097,1.10,4.19,-0.93,-0.26,2.35,-0.37,
4.097,1.10,4.19,-0.93,-0.35,2.19,-0.33,
4.099,1.10,4.19,-0.93,-0.44,2.03,-0.28,
4.104,1.10,4.19,-0.93,-0.53,1.89,-0.22,
4.104,1.10,4.19,-0.93,-0.63,1.77,-0.16,
4.106,1.10,4.19,-0.93,-0.73,1.64,-0.09,
4.111,0.46,2.96,-2.48,-0.73,1.64,-0.09,
4.129,0.46,2.96,-2.48,-0.85,1.52,-0.02,
4.129,0.46,2.96,-2.48,-0.97,1.41,0.05,
4.129,0.46,2.96,-2.48,-1.11,1.30,0.13,
4.129,0.46,2.96,-2.48,-1.25,1.20,0.20,
4.13,0.46,2.96,-2.48,-1.40,1.10,0.28,
4.13,0.12,0.37,-5.88,-1.40,1.10,0.28,
4.13,0.12,0.37,-5.88,-1.56,0.99,0.36,
4.13,0.12,0.37,-5.88,-1.72,0.88,0.44,
4.131,0.12,0.37,-5.88,-1.89,0.77,0.51,
4.131,0.12,0.37,-5.88,-2.04,0.64,0.57,
4.131,0.12,0.37,-5.88,-2.19,0.49,0.63,
4.131,0.17,-2.44,-8.79,-2.19,0.49,0.63,
4.132,0.17,-2.44,-8.79,-2.33,0.33,0.68,
4.132,0.17,-2.44,-8.79,-2.45,0.14,0.73,
4.132,0.17,-2.44,-8.79,-2.55,-0.06,0.77,
4.143,0.17,-2.44,-8.79,-2.62,-0.29,0.79,
4.143,0.17,-2.44,-8.79,-2.67,-0.52,0.81,
4.143,0.33,-4.41,-9.48,-2.67,-0.52,0.81,
4.143,0.33,-4.41,-9.48,-2.70,-0.77,0.82,
4.144,0.33,-4.41,-9.48,-2.70,-1.02,0.82,
4.144,0.33,-4.41,-9.48,-2.68,-1.27,0.80,
4.144,0.33,-4.41,-9.48,-2.63,-1.51,0.79,
4.145,0.33,-4.41,-9.48,-2.56,-1.74,0.76,
4.148,0.50,-5.21,-7.97,-2.56,-1.74,0.76,
4.148,0.50,-5.21,-7.97,-2.48,-1.98,0.73,
4.149,0.50,-5.21,-7.97,-2.37,-2.20,0.69,
4.151,0.50,-5.21,-7.97,-2.26,-2.42,0.65,
4.154,0.50,-5.21,-7.97,-2.14,-2.63,0.60,
4.154,0.50,-5.21,-7.97,-2.01,-2.84,0.55,
4.162,0.72,-4.41,-5.62,-2.01,-2.84,0.55,
4.162,0.72,-4.41,-5.62,-1.88,-3.03,0.50,
4.162,0.72,-4.41,-5.62,-1.75,-3.22,0.44,
4.162,0.72,-4.41,-5.62,-1.63,-3.39,0.38,
4.162,0.72,-4.41,-5.62,-1.50,-3.56,0.31,
4.164,0.72,-4.41,-5.62,-1.37,-3.71,0.24,
4.17,1.06,-2.46,-3.75,-1.37,-3.71,0.24,
4.17,1.06,-2.46,-3.75,-1.26,-3.84,0.17,
4.17,1.06,-2.46,-3.75,-1.15,-3.97,0.10,
4.171,1.06,-2.46,-3.75,-1.05,-4.07,0.03,
4.174,1.06,-2.46,-3.75,-0.95,-4.17,-0.03,
4.178,1.06,-2.46,-3.75,-0.87,-4.25,-0.10,
4.178,1.02,-0.49,-2.91,-0.87,-4.25,-0.10,
4.179,1.02,-0.49,-2.91,-0.79,-4.32,-0.15,
4.179,1.02,-0.49,-2.91,-0.72,-4.38,-0.20,
4.181,1.02,-0.49,-2.91,-0.66,-4.42,-0.24,
4.182,1.02,-0.49,-2.91,-0.61,-4.45,-0.28,
4.187,1.02,-0.49,-2.91,-0.56,-4.46,-0.31,
4.187,0.09,0.83,-2.50,-0.56,-4.46,-0.31,
4.187,0.09,0.83,-2.50,-0.53,-4.45,-0.33,
4.21,0.09,0.83,-2.50,-0.50,-4.43,-0.35,
4.211,0.09,0.83,-2.50,-0.48,-4.40,-0.36,
4.211,0.09,0.83,-2.50,-0.47,-4.36,-0.37,
4.211,0.09,0.83,-2.50,-0.47,-4.31,-0.37,
4.211,-0.87,1.26,-2.54,-0.47,-4.31,-0.37,
4.211,-0.87,1.26,-2.54,-0.47,-4.25,-0.37,
4.212,-0.87,1.26,-2.54,-0.48,-4.18,-0.37,
4.212,-0.87,1.26,-2.54,-0.49,-4.09,-0.37,
4.212,-0.87,1.26,-2.54,-0.51,-4.01,-0.36,
4.212,-0.87,1.26,-2.54,-0.53,-3.91,-0.36,
4.213,-1.16,1.15,-2.66,-0.53,-3.91,-0.36,
4.213,-1.16,1.15,-2.66,-0.56,-3.80,-0.35,
4.213,-1.16,1.15,-2.66,-0.59,-3.69,-0.34,
4.213,-1.16,1.15,-2.66,-0.63,-3.56,-0.34,
4.213,-1.16,1.15,-2.66,-0.68,-3.43,-0.34,
4.215,-1.16,1.15,-2.66,-0.73,-3.29,-0.33,
4.218,-1.06,0.81,-3.19,-0.73,-3.29,-0.33,
4.218,-1.06,0.81,-3.19,-0.78,-3.14,-0.33,
4.219,-1.06,0.81,-3.19,-0.84,-2.98,-0.32,
4.223,-1.06,0.81,-3.19,-0.90,-2.82,-0.32,
4.226,-1.06,0.81,-3.19,-0.97,-2.65,-0.31,
4.226,-1.06,0.81,-3.19,-1.04,-2.47,-0.30,
4.229,-0.93,0.38,-3.63,-1.04,-2.47,-0.30,
4.23,-0.93,0.38,-3.63,-1.12,-2.29,-0.29,
4.23,-0.93,0.38,-3.63,-1.20,-2.11,-0.27,
4.231,-0.93,0.38,-3.63,-1.28,-1.93,-0.25,
4.233,-0.93,0.38,-3.63,-1.37,-1.73,-0.23,
4.235,-0.93,0.38,-3.63,-1.46,-1.45,-0.22,
4.237,-0.85,-0.01,-3.73,-1.46,-1.45,-0.22,
4.237,-0.85,-0.01,-3.73,-1.57,-1.05,-0.21,
4.239,-0.85,-0.01,-3.73,-1.70,-0.67,-0.20,
4.245,-0.85,-0.01,-3.73,-1.82,-0.35,-0.19,
4.25,-0.85,-0.01,-3.73,-1.94,-0.08,-0.18,
4.251,-0.85,-0.01,-3.73,-2.05,0.15,-0.17,
4.252,-0.42,-0.55,-3.71,-2.05,0.15,-0.17,
4.253,-0.42,-0.55,-3.71,-2.17,0.32,-0.15,
4.253,-0.42,-0.55,-3.71,-2.27,0.45,-0.14,
4.253,-0.42,-0.55,-3.71,-2.38,0.55,-0.13,
4.253,-0.42,-0.55,-3.71,-2.48,0.60,-0.13,
4.255,-0.42,-0.55,-3.71,-2.57,0.63,-0.13,
4.259,0.47,-1.75,-4.08,-2.57,0.63,-0.13,
4.259,0.47,-1.75,-4.08,-2.66,0.63,-0.15,
4.259,0.47,-1.75,-4.08,-2.74,0.61,-0.16,
4.262,0.47,-1.75,-4.08,-2.82,0.57,-0.19,
4.263,0.47,-1.75,-4.08,-2.89,0.52,-0.22,
4.265,0.47,-1.75,-4.08,-2.94,0.46,-0.26,
4.272,1.87,-2.62,-3.40,-2.94,0.46,-0.26,
4.272,1.87,-2.62,-3.40,-2.99,0.39,-0.30,
4.272,1.87,-2.62,-3.40,-3.02,0.32,-0.35,
4.272,1.87,-2.62,-3.40,-3.04,0.24,-0.39,
4.275,1.87,-2.62,-3.40,-3.05,0.16,-0.44,
4.291,1.87,-2.62,-3.40,-3.04,0.08,-0.50,
4.291,3.14,-2.85,-1.80,-3.04,0.08,-0.50,
4.292,3.14,-2.85,-1.80,-3.02,-0.00,-0.55,
4.292,3.14,-2.85,-1.80,-2.99,-0.08,-0.61,
4.292,3.14,-2.85,-1.80,-2.94,-0.14,-0.66,
4.292,3.14,-2.85,-1.80,-2.88,-0.21,-0.72,
4.293,3.14,-2.85,-1.80,-2.81,-0.28,-0.77,
4.293,3.99,-2.58,-0.22,-2.81,-0.28,-0.77,
4.293,3.99,-2.58,-0.22,-2.74,-0.35,-0.82,
4.293,3.99,-2.58,-0.22,-2.66,-0.41,-0.88,
4.293,3.99,-2.58,-0.22,-2.56,-0.47,-0.93,
4.294,3.99,-2.58,-0.22,-2.47,-0.53,-0.98,
4.304,3.99,-2.58,-0.22,-2.37,-0.59,-1.03,
4.304,4.67,-1.99,1.01,-2.37,-0.59,-1.03,
4.305,4.67,-1.99,1.01,-2.27,-0.65,-1.08,
4.305,4.67,-1.99,1.01,-2.17,-0.70,-1.13,
4.305,4.67,-1.99,1.01,-2.06,-0.75,-1.17,
4.305,4.67,-1.99,1.01,-1.96,-0.79,-1.22,
4.305,4.67,-1.99,1.01,-1.85,-0.83,-1.26,
4.307,4.89,-1.18,1.69,-1.85,-0.83,-1.26,
4.308,4.89,-1.18,1.69,-1.75,-0.87,-1.30,
4.31,4.89,-1.18,1.69,-1.64,-0.89,-1.34,
4.311,4.89,-1.18,1.69,-1.54,-0.92,-1.38,
4.313,4.89,-1.18,1.69,-1.43,-0.93,-1.41,
4.315,4.89,-1.18,1.69,-1.33,-0.95,-1.44,
4.317,4.88,-0.45,2.06,-1.33,-0.95,-1.44,
4.317,4.88,-0.45,2.06,-1.24,-0.95,-1.47,
4.318,4.88,-0.45,2.06,-1.14,-0.95,-1.49,
4.32,4.88,-0.45,2.06,-1.05,-0.95,-1.51,
4.322,4.88,-0.45,2.06,-0.97,-0.94,-1.53,
4.325,4.88,-0.45,2.06,-0.88,-0.93,-1.55,
4.328,4.20,0.24,2.11,-0.88,-0.93,-1.55,
4.328,4.20,0.24,2.11,-0.80,-0.92,-1.55,
4.328,4.20,0.24,2.11,-0.73,-0.92,-1.56,
4.33,4.20,0.24,2.11,-0.66,-0.91,-1.55,
4.333,4.20,0.24,2.11,-0.59,-0.90,-1.55,
4.335,4.20,0.24,2.11,-0.52,-0.90,-1.54,
4.337,3.40,0.78,2.50,-0.52,-0.90,-1.54,
4.337,3.40,0.78,2.50,-0.44,-0.91,-1.52,
4.34,3.40,0.78,2.50,-0.37,-0.92,-1.51,
4.343,3.40,0.78,2.50,-0.31,-0.94,-1.49,
4.343,3.40,0.78,2.50,-0.24,-0.96,-1.46,
4.344,3.40,0.78,2.50,-0.18,-0.98,-1.44,
4.348,2.67,1.28,3.12,-0.18,-0.98,-1.44,
4.349,2.67,1.28,3.12,-0.13,-1.00,-1.41,
4.35,2.67,1.28,3.12,-0.09,-1.03,-1.38,
4.351,2.67,1.28,3.12,-0.06,-1.06,-1.34,
4.353,2.67,1.28,3.12,-0.03,-1.08,-1.31,
4.358,2.67,1.28,3.12,-0.02,-1.12,-1.26,
4.358,2.07,1.44,3.33,-0.02,-1.12,-1.26,
4.358,2.07,1.44,3.33,-0.02,-1.15,-1.22,
4.374,2.07,1.44,3.33,-0.03,-1.19,-1.17,
4.374,2.07,1.44,3.33,-0.06,-1.23,-1.12,
4.374,2.07,1.44,3.33,-0.11,-1.27,-1.06,
4.374,2.07,1.44,3.33,-0.17,-1.31,-1.00,
4.375,1.21,1.55,3.03,-0.17,-1.31,-1.00,
4.375,1.21,1.55,3.03,-0.24,-1.34,-0.94,
4.375,1.21,1.55,3.03,-0.34,-1.37,-0.88,
4.375,1.21,1.55,3.03,-0.45,-1.39,-0.82,
4.375,1.21,1.55,3.03,-0.57,-1.40,-0.77,
4.375,1.21,1.55,3.03,-0.69,-1.41,-0.71,
4.377,0.52,1.36,2.56,-0.69,-1.41,-0.71,
4.377,0.52,1.36,2.56,-0.83,-1.41,-0.66,
4.378,0.52,1.36,2.56,-0.98,-1.40,-0.62,
4.38,0.52,1.36,2.56,-1.12,-1.38,-0.58,
4.382,0.52,1.36,2.56,-1.27,-1.36,-0.55,
4.384,0.52,1.36,2.56,-1.41,-1.35,-0.52,
4.39,0.13,0.70,2.50,-1.41,-1.35,-0.52,
4.39,0.13,0.70,2.50,-1.54,-1.32,-0.51,
4.39,0.13,0.70,2.50,-1.67,-1.30,-0.49,
4.393,0.13,0.70,2.50,-1.78,-1.27,-0.48,
4.393,0.13,0.70,2.50,-1.88,-1.25,-0.48,
4.394,0.13,0.70,2.50,-1.96,-1.24,-0.48,
4.398,0.01,0.06,3.91,-1.96,-1.24,-0.48,
4.398,0.01,0.06,3.91,-2.02,-1.23,-0.47,
4.398,0.01,0.06,3.91,-2.07,-1.23,-0.47,
4.402,0.01,0.06,3.91,-2.11,-1.24,-0.46,
4.402,0.01,0.06,3.91,-2.13,-1.26,-0.46,
4.405,0.01,0.06,3.91,-2.13,-1.28,-0.45,
4.407,-0.28,-0.34,5.74,-2.13,-1.28,-0.45,
4.408,-0.28,-0.34,5.74,-2.12,-1.32,-0.44,
4.41,-0.28,-0.34,5.74,-2.10,-1.36,-0.43,
4.411,-0.28,-0.34,5.74,-2.07,-1.42,-0.41,
4.413,-0.28,-0.34,5.74,-2.03,-1.47,-0.40,
4.428,-0.28,-0.34,5.74,-1.97,-1.54,-0.38,
4.428,-0.43,-0.57,6.99,-1.97,-1.54,-0.38,
4.428,-0.43,-0.57,6.99,-1.92,-1.61,-0.36,
4.428,-0.43,-0.57,6.99,-1.85,-1.68,-0.34,
4.429,-0.43,-0.57,6.99,-1.77,-1.76,-0.32,
4.429,-0.43,-0.57,6.99,-1.69,-1.84,-0.29,
4.429,-0.43,-0.57,6.99,-1.61,-1.92,-0.27,
4.429,-0.28,-0.84,6.98,-1.61,-1.92,-0.27,
4.429,-0.28,-0.84,6.98,-1.52,-1.99,-0.24,
4.429,-0.28,-0.84,6.98,-1.42,-2.06,-0.22,
4.432,-0.28,-0.84,6.98,-1.33,-2.11,-0.19,
4.437,-0.28,-0.84,6.98,-1.23,-2.17,-0.16,
4.438,-0.28,-0.84,6.98,-1.13,-2.21,-0.14,
4.438,0.17,-0.91,6.46,-1.13,-2.21,-0.14,
4.438,0.17,-0.91,6.46,-1.04,-2.24,-0.11,
4.441,0.17,-0.91,6.46,-0.95,-2.27,-0.09,
4.454,0.17,-0.91,6.46,-0.86,-2.28,-0.06,
4.454,0.17,-0.91,6.46,-0.78,-2.29,-0.04,
4.454,0.17,-0.91,6.46,-0.71,-2.28,-0.02,
4.455,0.64,-0.57,5.05,-0.71,-2.28,-0.02,
4.455,0.64,-0.57,5.05,-0.64,-2.26,0.00,
4.455,0.64,-0.57,5.05,-0.58,-2.24,0.02,
4.455,0.64,-0.57,5.05,-0.53,-2.20,0.04,
4.455,0.64,-0.57,5.05,-0.49,-2.16,0.05,
4.456,0.64,-0.57,5.05,-0.46,-2.11,0.06,
4.457,1.06,-0.02,3.44,-0.46,-2.11,0.06,
4.458,1.06,-0.02,3.44,-0.44,-2.06,0.08,
4.459,1.06,-0.02,3.44,-0.43,-2.00,0.09,
4.461,1.06,-0.02,3.44,-0.43,-1.94,0.10,
4.464,1.06,-0.02,3.44,-0.45,-1.86,0.11,
4.465,1.06,-0.02,3.44,-0.46,-1.80,0.12,
4.467,1.31,0.71,1.76,-0.46,-1.80,0.12,
4.467,1.31,0.71,1.76,-0.49,-1.72,0.13,
4.476,1.31,0.71,1.76,-0.54,-1.65,0.14,
4.477,1.31,0.71,1.76,-0.58,-1.58,0.15,
4.477,1.31,0.71,1.76,-0.64,-1.50,0.17,
4.477,1.31,0.71,1.76,-0.70,-1.43,0.18,
4.477,1.52,1.44,0.62,-0.70,-1.43,0.18,
4.477,1.52,1.44,0.62,-0.76,-1.36,0.20,
4.478,1.52,1.44,0.62,-0.83,-1.29,0.21,
4.481,1.52,1.44,0.62,-0.91,-1.22,0.23,
4.482,1.52,1.44,0.62,-0.98,-1.15,0.24,
4.484,1.52,1.44,0.62,-1.06,-1.08,0.27,
4.487,1.55,2.02,0.17,-1.06,-1.08,0.27,
4.488,1.55,2.02,0.17,-1.13,-1.01,0.29,
4.49,1.55,2.02,0.17,-1.21,-0.94,0.31,
4.49,1.55,2.02,0.17,-1.27,-0.87,0.33,
4.492,1.55,2.02,0.17,-1.34,-0.79,0.35,
4.494,1.55,2.02,0.17,-1.39,-0.72,0.38,
4.497,1.73,2.27,0.44,-1.39,-0.72,0.38,
4.497,1.73,2.27,0.44,-1.44,-0.65,0.40,
4.501,1.73,2.27,0.44,-1.49,-0.57,0.42,
4.501,1.73,2.27,0.44,-1.52,-0.49,0.44,
4.502,1.73,2.27,0.44,-1.56,-0.42,0.46,
4.508,1.73,2.27,0.44,-1.59,-0.34,0.47,
4.51,2.16,2.04,1.17,-1.59,-0.34,0.47,
4.511,2.16,2.04,1.17,-1.63,-0.19,0.50,
4.511,2.16,2.04,1.17,-1.63,-0.19,0.50,
4.511,2.16,2.04,1.17,-1.64,-0.11,0.51,
4.515,2.16,2.04,1.17,-1.66,-0.04,0.52,
4.517,2.16,2.04,1.17,-1.67,0.03,0.52,
4.518,2.49,1.57,1.51,-1.67,0.03,0.52,
4.519,2.49,1.57,1.51,-1.67,0.11,0.53,
4.52,2.49,1.57,1.51,-1.67,0.18,0.53,
4.521,2.49,1.57,1.51,-1.68,0.25,0.52,
4.523,2.49,1.57,1.51,-1.69,0.32,0.52,
4.539,2.49,1.57,1.51,-1.69,0.39,0.51,
4.539,2.84,1.08,1.87,-1.69,0.39,0.51,
4.539,2.84,1.08,1.87,-1.71,0.45,0.50,
4.539,2.84,1.08,1.87,-1.72,0.50,0.48,
4.54,2.84,1.08,1.87,-1.74,0.54,0.46,
4.54,2.84,1.08,1.87,-1.76,0.58,0.44,
4.54,2.84,1.08,1.87,-1.78,0.61,0.43,
4.54,3.15,0.49,2.37,-1.78,0.61,0.43,
4.54,3.15,0.49,2.37,-1.81,0.63,0.40,
4.54,3.15,0.49,2.37,-1.85,0.66,0.38,
4.545,3.15,0.49,2.37,-1.87,0.67,0.36,
4.545,3.15,0.49,2.37,-1.91,0.68,0.34,
4.545,3.15,0.49,2.37,-1.93,0.68,0.32,
4.548,2.95,-0.48,3.03,-1.93,0.68,0.32,
4.548,2.95,-0.48,3.03,-1.96,0.69,0.29,
4.549,2.95,-0.48,3.03,-1.98,0.69,0.27,
4.551,2.95,-0.48,3.03,-2.00,0.69,0.25,
4.552,2.95,-0.48,3.03,-2.02,0.68,0.22,
4.556,2.95,-0.48,3.03,-2.02,0.67,0.20,
4.557,2.71,-1.76,4.36,-2.02,0.67,0.20,
4.557,2.71,-1.76,4.36,-2.02,0.67,0.18,
4.56,2.71,-1.76,4.36,-2.02,0.66,0.17,
4.563,2.71,-1.76,4.36,-2.00,0.64,0.16,
4.563,2.71,-1.76,4.36,-1.98,0.62,0.14,
4.564,2.71,-1.76,4.36,-1.96,0.59,0.14,
4.568,2.27,-2.95,5.82,-1.96,0.59,0.14,
4.568,2.27,-2.95,5.82,-1.92,0.56,0.13,
4.573,2.27,-2.95,5.82,-1.88,0.53,0.12,
4.573,2.27,-2.95,5.82,-1.83,0.48,0.11,
4.573,2.27,-2.95,5.82,-1.76,0.44,0.10,
4.574,2.27,-2.95,5.82,-1.69,0.39,0.10,
4.577,2.10,-3.76,7.77,-1.69,0.39,0.10,
4.577,2.10,-3.76,7.77,-1.61,0.33,0.09,
4.579,2.10,-3.76,7.77,-1.51,0.27,0.08,
4.58,2.10,-3.76,7.77,-1.40,0.20,0.06,
4.583,2.10,-3.76,7.77,-1.23,0.09,0.04,
4.584,2.10,-3.76,7.77,-1.16,0.06,0.03,
4.587,2.02,-3.78,8.90,-1.16,0.06,0.03,
4.588,2.02,-3.78,8.90,-1.03,-0.01,0.01,
4.588,2.02,-3.78,8.90,-0.90,-0.08,-0.01,
4.59,2.02,-3.78,8.90,-0.76,-0.15,-0.04,
4.592,2.02,-3.78,8.90,-0.62,-0.21,-0.06,
4.594,2.02,-3.78,8.90,-0.48,-0.26,-0.08,
4.597,1.58,-3.53,8.38,-0.48,-0.26,-0.08,
4.597,1.58,-3.53,8.38,-0.34,-0.30,-0.11,
4.598,1.58,-3.53,8.38,-0.20,-0.32,-0.13,
4.6,1.58,-3.53,8.38,-0.07,-0.34,-0.15,
4.602,1.58,-3.53,8.38,0.06,-0.36,-0.17,
4.604,1.58,-3.53,8.38,0.17,-0.36,-0.19,
4.607,0.61,-2.97,6.04,0.17,-0.36,-0.19,
4.617,0.61,-2.97,6.04,0.28,-0.36,-0.20,
4.617,0.61,-2.97,6.04,0.39,-0.36,-0.21,
4.617,0.61,-2.97,6.04,0.48,-0.36,-0.21,
4.618,0.61,-2.97,6.04,0.56,-0.35,-0.22,
4.618,0.61,-2.97,6.04,0.63,-0.34,-0.22,
4.618,-0.28,-2.62,3.62,0.63,-0.34,-0.22,
4.618,-0.28,-2.62,3.62,0.69,-0.33,-0.22,
4.618,-0.28,-2.62,3.62,0.73,-0.31,-0.21,
4.621,-0.28,-2.62,3.62,0.77,-0.29,-0.21,
4.623,-0.28,-2.62,3.62,0.80,-0.27,-0.21,
4.624,-0.28,-2.62,3.62,0.82,-0.25,-0.21,
4.628,-0.77,-3.01,1.70,0.82,-0.25,-0.21,
4.628,-0.77,-3.01,1.70,0.83,-0.22,-0.21,
4.628,-0.77,-3.01,1.70,0.83,-0.19,-0.21,
4.63,-0.77,-3.01,1.70,0.82,-0.15,-0.22,
4.632,-0.77,-3.01,1.70,0.80,-0.12,-0.22,
4.634,-0.77,-3.01,1.70,0.78,-0.07,-0.23,
4.637,-1.11,-3.98,0.90,0.78,-0.07,-0.23,
4.637,-1.11,-3.98,0.90,0.76,-0.02,-0.24,
4.639,-1.11,-3.98,0.90,0.73,0.04,-0.25,
4.64,-1.11,-3.98,0.90,0.70,0.10,-0.27,
4.642,-1.11,-3.98,0.90,0.65,0.16,-0.29,
4.644,-1.11,-3.98,0.90,0.61,0.23,-0.31,
4.646,-1.46,-5.04,0.69,0.61,0.23,-0.31,
4.647,-1.46,-5.04,0.69,0.56,0.30,-0.33,
4.648,-1.46,-5.04,0.69,0.50,0.37,-0.36,
4.65,-1.46,-5.04,0.69,0.45,0.45,-0.39,
4.652,-1.46,-5.04,0.69,0.39,0.53,-0.42,
4.654,-1.46,-5.04,0.69,0.34,0.61,-0.44,
4.657,-2.18,-5.76,1.10,0.34,0.61,-0.44,
4.657,-2.18,-5.76,1.10,0.29,0.70,-0.47,
4.658,-2.18,-5.76,1.10,0.25,0.79,-0.48,
4.66,-2.18,-5.76,1.10,0.21,0.87,-0.50,
4.662,-2.18,-5.76,1.10,0.19,0.96,-0.50,
4.664,-2.18,-5.76,1.10,0.17,1.06,-0.50,
4.666,-3.53,-5.78,2.61,0.17,1.06,-0.50,
4.666,-3.53,-5.78,2.61,0.17,1.15,-0.49,
4.668,-3.53,-5.78,2.61,0.19,1.25,-0.47,
4.67,-3.53,-5.78,2.61,0.22,1.36,-0.44,
4.672,-3.53,-5.78,2.61,0.28,1.47,-0.40,
4.674,-3.53,-5.78,2.61,0.35,1.59,-0.36,
4.676,-5.55,-4.85,5.87,0.35,1.59,-0.36,
4.676,-5.55,-4.85,5.87,0.44,1.72,-0.30,
4.678,-5.55,-4.85,5.87,0.55,1.85,-0.23,
4.68,-5.55,-4.85,5.87,0.69,1.98,-0.15,
4.682,-5.55,-4.85,5.87,0.84,2.12,-0.07,
4.684,-5.55,-4.85,5.87,1.00,2.25,0.03,
4.687,-7.22,-3.40,9.35,1.00,2.25,0.03,
4.688,-7.22,-3.40,9.35,1.18,2.36,0.12,
4.689,-7.22,-3.40,9.35,1.37,2.48,0.23,
4.711,-7.22,-3.40,9.35,1.58,2.58,0.34,
4.711,-7.22,-3.40,9.35,1.80,2.69,0.44,
4.711,-7.22,-3.40,9.35,2.05,2.81,0.55,
4.712,-7.46,-1.73,12.33,2.05,2.81,0.55,
4.712,-7.46,-1.73,12.33,2.34,2.93,0.66,
4.713,-7.46,-1.73,12.33,2.65,3.06,0.77,
4.713,-7.46,-1.73,12.33,2.98,3.18,0.87,
4.714,-7.46,-1.73,12.33,3.32,3.29,0.97,
4.714,-7.46,-1.73,12.33,3.65,3.37,1.06,
4.714,-5.97,-0.54,15.53,3.65,3.37,1.06,
4.715,-5.97,-0.54,15.53,3.97,3.43,1.15,
4.715,-5.97,-0.54,15.53,4.26,3.46,1.23,
4.716,-5.97,-0.54,15.53,4.53,3.47,1.31,
4.716,-5.97,-0.54,15.53,4.75,3.46,1.38,
4.716,-5.97,-0.54,15.53,4.92,3.41,1.44,
4.727,-3.61,-0.81,11.99,4.92,3.41,1.44,
4.727,-3.61,-0.81,11.99,5.04,3.33,1.49,
4.727,-3.61,-0.81,11.99,5.11,3.22,1.53,
4.728,-3.61,-0.81,11.99,5.13,3.09,1.57,
4.728,-3.61,-0.81,11.99,5.10,2.92,1.59,
4.728,-3.61,-0.81,11.99,5.03,2.74,1.60,
4.728,-1.04,-2.41,2.18,5.03,2.74,1.60,
4.73,-1.04,-2.41,2.18,4.92,2.53,1.60,
4.732,-1.04,-2.41,2.18,4.78,2.30,1.59,
4.735,-1.04,-2.41,2.18,4.61,2.07,1.57,
4.735,-1.04,-2.41,2.18,4.42,1.83,1.54,
4.735,-1.04,-2.41,2.18,4.22,1.58,1.49,
4.741,1.55,-3.73,-6.35,4.22,1.58,1.49,
4.742,1.55,-3.73,-6.35,4.00,1.33,1.43,
4.742,1.55,-3.73,-6.35,3.79,1.09,1.36,
4.742,1.55,-3.73,-6.35,3.57,0.85,1.28,
4.742,1.55,-3.73,-6.35,3.37,0.63,1.19,
4.745,1.55,-3.73,-6.35,3.17,0.42,1.09,
4.747,4.17,-3.84,-9.38,3.17,0.42,1.09,
4.747,4.17,-3.84,-9.38,2.99,0.22,0.99,
4.749,4.17,-3.84,-9.38,2.81,0.03,0.88,
4.751,4.17,-3.84,-9.38,2.66,-0.15,0.78,
4.754,4.17,-3.84,-9.38,2.51,-0.31,0.68,
4.755,4.17,-3.84,-9.38,2.38,-0.46,0.59,
4.757,5.32,-3.70,-8.47,2.38,-0.46,0.59,
4.757,5.32,-3.70,-8.47,2.26,-0.59,0.51,
4.758,5.32,-3.70,-8.47,2.15,-0.70,0.44,
4.76,5.32,-3.70,-8.47,2.05,-0.79,0.37,
4.762,5.32,-3.70,-8.47,1.96,-0.86,0.31,
4.765,5.32,-3.70,-8.47,1.88,-0.91,0.26,
4.767,4.65,-3.78,-6.71,1.88,-0.91,0.26,
4.767,4.65,-3.78,-6.71,1.81,-0.94,0.22,
4.769,4.65,-3.78,-6.71,1.75,-0.95,0.18,
4.77,4.65,-3.78,-6.71,1.70,-0.94,0.14,
4.773,4.65,-3.78,-6.71,1.66,-0.92,0.11,
4.789,4.65,-3.78,-6.71,1.63,-0.89,0.09,
4.79,3.88,-4.12,-5.41,1.63,-0.89,0.09,
4.79,3.88,-4.12,-5.41,1.61,-0.84,0.07,
4.79,3.88,-4.12,-5.41,1.59,-0.77,0.05,
4.791,3.88,-4.12,-5.41,1.58,-0.70,0.04,
4.791,3.88,-4.12,-5.41,1.58,-0.62,0.03,
4.791,3.88,-4.12,-5.41,1.58,-0.53,0.02,
4.791,3.08,-4.16,-4.33,1.58,-0.53,0.02,
4.792,3.08,-4.16,-4.33,1.58,-0.44,0.02,
4.792,3.08,-4.16,-4.33,1.59,-0.35,0.02,
4.792,3.08,-4.16,-4.33,1.61,-0.26,0.03,
4.792,3.08,-4.16,-4.33,1.62,-0.17,0.04,
4.798,3.08,-4.16,-4.33,1.65,-0.09,0.05,
4.798,2.22,-3.86,-3.66,1.65,-0.09,0.05,
4.798,2.22,-3.86,-3.66,1.67,-0.01,0.06,
4.799,2.22,-3.86,-3.66,1.69,0.05,0.08,
4.801,2.22,-3.86,-3.66,1.72,0.11,0.10,
4.803,2.22,-3.86,-3.66,1.75,0.16,0.12,
4.805,2.22,-3.86,-3.66,1.78,0.19,0.13,
4.807,1.26,-3.29,-3.17,1.78,0.19,0.13,
4.808,1.26,-3.29,-3.17,1.80,0.22,0.16,
4.809,1.26,-3.29,-3.17,1.83,0.23,0.18,
4.811,1.26,-3.29,-3.17,1.86,0.23,0.21,
4.813,1.26,-3.29,-3.17,1.89,0.22,0.24,
4.814,1.26,-3.29,-3.17,1.92,0.20,0.27,
4.817,0.47,-2.68,-3.08,1.92,0.20,0.27,
4.817,0.47,-2.68,-3.08,1.94,0.17,0.31,
4.82,0.47,-2.68,-3.08,1.96,0.13,0.34,
4.821,0.47,-2.68,-3.08,1.99,0.07,0.37,
4.823,0.47,-2.68,-3.08,2.00,0.01,0.41,
4.825,0.47,-2.68,-3.08,2.02,-0.05,0.44,
4.827,-0.17,-2.21,-3.09,2.02,-0.05,0.44,
4.828,-0.17,-2.21,-3.09,2.03,-0.13,0.48,
4.829,-0.17,-2.21,-3.09,2.04,-0.20,0.52,
4.831,-0.17,-2.21,-3.09,2.04,-0.28,0.56,
4.833,-0.17,-2.21,-3.09,2.05,-0.36,0.61,
4.835,-0.17,-2.21,-3.09,2.05,-0.44,0.66,
4.837,-0.98,-2.09,-3.23,2.05,-0.44,0.66,
4.838,-0.98,-2.09,-3.23,2.07,-0.51,0.71,
4.839,-0.98,-2.09,-3.23,2.14,-0.55,0.77,
4.841,-0.98,-2.09,-3.23,2.25,-0.55,0.84,
4.843,-0.98,-2.09,-3.23,2.40,-0.53,0.93,
4.845,-0.98,-2.09,-3.23,2.58,-0.49,1.02,
4.847,-2.67,-2.76,1.99,2.58,-0.49,1.02,
4.847,-2.67,-2.76,1.99,2.78,-0.44,1.11,
4.848,-2.67,-2.76,1.99,2.98,-0.37,1.20,
4.851,-2.67,-2.76,1.99,3.18,-0.30,1.30,
4.856,-2.67,-2.76,1.99,3.37,-0.24,1.39,
4.856,-2.67,-2.76,1.99,3.53,-0.19,1.48,
4.884,-3.43,-3.45,4.09,3.53,-0.19,1.48,
4.885,-3.43,-3.45,4.09,3.68,-0.14,1.56,
4.885,-3.43,-3.45,4.09,3.80,-0.10,1.64,
4.885,-3.43,-3.45,4.09,3.91,-0.05,1.71,
4.885,-3.43,-3.45,4.09,3.99,-0.02,1.77,
4.886,-3.43,-3.45,4.09,4.04,0.02,1.83,
4.886,-2.59,-3.42,1.06,4.04,0.02,1.83,
4.886,-2.59,-3.42,1.06,4.08,0.05,1.87,
4.886,-2.59,-3.42,1.06,4.10,0.08,1.91,
4.887,-2.59,-3.42,1.06,4.11,0.12,1.95,
4.887,-2.59,-3.42,1.06,4.09,0.16,1.97,
4.887,-2.59,-3.42,1.06,4.06,0.21,1.99,
4.887,-1.46,-2.97,-2.41,4.06,0.21,1.99,
4.888,-1.46,-2.97,-2.41,4.02,0.27,2.00,
4.888,-1.46,-2.97,-2.41,3.97,0.35,2.01,
4.888,-1.46,-2.97,-2.41,3.91,0.44,2.00,
4.889,-1.46,-2.97,-2.41,3.83,0.56,1.98,
4.889,-1.46,-2.97,-2.41,3.75,0.68,1.95,
4.889,-0.04,-2.26,-4.57,3.75,0.68,1.95,
4.889,-0.04,-2.26,-4.57,3.66,0.82,1.92,
4.89,-0.04,-2.26,-4.57,3.57,0.97,1.87,
4.896,-0.04,-2.26,-4.57,3.46,1.13,1.82,
4.896,-0.04,-2.26,-4.57,3.35,1.30,1.76,
4.896,-0.04,-2.26,-4.57,3.24,1.47,1.70,
4.897,1.28,-1.40,-5.97,3.24,1.47,1.70,
4.898,1.28,-1.40,-5.97,3.12,1.64,1.64,
4.899,1.28,-1.40,-5.97,3.00,1.82,1.57,
4.906,1.28,-1.40,-5.97,2.88,1.99,1.49,
4.907,1.28,-1.40,-5.97,2.76,2.16,1.42,
4.907,1.28,-1.40,-5.97,2.63,2.33,1.33,
4.907,2.20,-0.41,-6.61,2.63,2.33,1.33,
4.907,2.20,-0.41,-6.61,2.51,2.49,1.25,
4.91,2.20,-0.41,-6.61,2.39,2.64,1.16,
4.91,2.20,-0.41,-6.61,2.28,2.78,1.08,
4.913,2.20,-0.41,-6.61,2.19,2.90,0.99,
4.915,2.20,-0.41,-6.61,2.10,3.00,0.91,
4.919,2.66,0.42,-6.16,2.10,3.00,0.91,
4.919,2.66,0.42,-6.16,2.04,3.07,0.84,
4.92,2.66,0.42,-6.16,1.98,3.11,0.77,
4.921,2.66,0.42,-6.16,1.93,3.13,0.71,
4.928,2.66,0.42,-6.16,1.89,3.12,0.65,
4.929,2.66,0.42,-6.16,1.85,3.08,0.59,
4.929,2.47,1.30,-4.41,1.85,3.08,0.59,
4.929,2.47,1.30,-4.41,1.83,3.03,0.54,
4.929,2.47,1.30,-4.41,1.83,2.93,0.49,
4.931,2.47,1.30,-4.41,1.83,2.81,0.44,
4.934,2.47,1.30,-4.41,1.87,2.59,0.38,
4.934,2.47,1.30,-4.41,1.88,2.50,0.35,
4.942,2.61,1.89,-2.86,1.88,2.50,0.35,
4.943,2.61,1.89,-2.86,1.90,2.34,0.31,
4.943,2.61,1.89,-2.86,1.93,2.17,0.26,
4.961,2.61,1.89,-2.86,1.95,2.00,0.22,
4.961,2.61,1.89,-2.86,1.97,1.84,0.17,
4.962,2.61,1.89,-2.86,1.98,1.68,0.13,
4.962,2.80,2.16,-3.30,1.98,1.68,0.13,
4.962,2.80,2.16,-3.30,1.97,1.55,0.08,
4.962,2.80,2.16,-3.30,1.97,1.42,0.05,
4.962,2.80,2.16,-3.30,1.96,1.30,0.01,
4.962,2.80,2.16,-3.30,1.94,1.18,-0.02,
4.963,2.80,2.16,-3.30,1.92,1.08,-0.06,
4.963,2.89,2.51,-4.88,1.92,1.08,-0.06,
4.963,2.89,2.51,-4.88,1.89,1.00,-0.10,
4.963,2.89,2.51,-4.88,1.86,0.93,-0.13,
4.963,2.89,2.51,-4.88,1.82,0.87,-0.16,
4.968,2.89,2.51,-4.88,1.78,0.82,-0.19,
4.968,2.89,2.51,-4.88,1.73,0.79,-0.22,
4.968,2.81,3.46,-6.09,1.73,0.79,-0.22,
