
time,ax,ay,az,wx,wy,wz,
0.003,-0.87,-0.21,0.00,-0.37,-0.20,0.32,
0.004,-0.87,-0.21,0.00,-0.36,-0.19,0.32,
0.004,-0.87,-0.21,0.00,-0.33,-0.18,0.32,
0.004,-0.87,-0.21,0.00,-0.30,-0.16,0.32,
0.005,-0.15,-0.09,0.92,-0.30,-0.16,0.32,
0.005,-0.15,-0.09,0.92,-0.27,-0.14,0.32,
0.005,-0.15,-0.09,0.92,-0.22,-0.13,0.31,
0.013,-0.15,-0.09,0.92,-0.21,-0.12,0.30,
0.013,-0.15,-0.09,0.92,-0.18,-0.11,0.28,
0.014,-0.15,-0.09,0.92,-0.14,-0.11,0.26,
0.014,0.66,0.05,1.28,-0.14,-0.11,0.26,
0.014,0.66,0.05,1.28,-0.10,-0.11,0.24,
0.016,0.66,0.05,1.28,-0.06,-0.11,0.19,
0.031,0.66,0.05,1.28,-0.04,-0.11,0.18,
0.032,0.66,0.05,1.28,-0.01,-0.11,0.15,
0.032,0.66,0.05,1.28,0.01,-0.11,0.13,
0.033,1.08,0.26,1.06,0.01,-0.11,0.13,
0.033,1.08,0.26,1.06,0.04,-0.11,0.10,
0.033,1.08,0.26,1.06,0.06,-0.11,0.05,
0.033,1.08,0.26,1.06,0.07,-0.11,0.04,
0.033,1.08,0.26,1.06,0.07,-0.10,0.02,
0.033,1.08,0.26,1.06,0.08,-0.10,-0.01,
0.034,0.97,0.43,0.31,0.08,-0.10,-0.01,
0.034,0.97,0.43,0.31,0.08,-0.09,-0.02,
0.043,0.97,0.43,0.31,0.08,-0.08,-0.04,
0.044,0.97,0.43,0.31,0.07,-0.07,-0.05,
0.044,0.97,0.43,0.31,0.07,-0.06,-0.06,
0.045,0.97,0.43,0.31,0.06,-0.06,-0.07,
0.045,0.41,0.37,-0.29,0.06,-0.06,-0.07,
0.045,0.41,0.37,-0.29,0.05,-0.05,-0.07,
0.046,0.41,0.37,-0.29,0.03,-0.04,-0.08,
0.049,0.41,0.37,-0.29,0.03,-0.04,-0.08,
0.05,0.41,0.37,-0.29,0.02,-0.04,-0.08,
0.059,0.41,0.37,-0.29,0.01,-0.04,-0.08,
0.062,-0.06,0.29,-0.50,0.01,-0.04,-0.08,
0.064,-0.06,0.29,-0.50,-0.00,-0.05,-0.08,
0.064,-0.06,0.29,-0.50,-0.01,-0.04,-0.07,
0.065,-0.06,0.29,-0.50,-0.01,-0.04,-0.07,
0.066,-0.06,0.29,-0.50,-0.01,-0.04,-0.06,
0.068,-0.06,0.29,-0.50,-0.01,-0.05,-0.06,
0.069,-0.31,0.24,-0.41,-0.01,-0.05,-0.06,
0.07,-0.31,0.24,-0.41,-0.01,-0.05,-0.05,
0.07,-0.31,0.24,-0.41,-0.02,-0.05,-0.04,
0.071,-0.31,0.24,-0.41,-0.02,-0.06,-0.03,
0.071,-0.31,0.24,-0.41,-0.03,-0.06,-0.03,
0.072,-0.31,0.24,-0.41,-0.04,-0.07,-0.02,
0.076,-0.37,0.15,-0.52,-0.04,-0.07,-0.02,
0.078,-0.37,0.15,-0.52,-0.04,-0.07,-0.01,
0.078,-0.37,0.15,-0.52,-0.06,-0.08,0.00,
0.079,-0.37,0.15,-0.52,-0.06,-0.08,0.01,
0.079,-0.37,0.15,-0.52,-0.07,-0.08,0.02,
0.081,-0.37,0.15,-0.52,-0.08,-0.09,0.03,
0.087,-0.48,0.20,-0.66,-0.08,-0.09,0.03,
0.087,-0.48,0.20,-0.66,-0.09,-0.09,0.04,
0.097,-0.48,0.20,-0.66,-0.11,-0.09,0.05,
0.097,-0.48,0.20,-0.66,-0.11,-0.09,0.06,
0.098,-0.48,0.20,-0.66,-0.12,-0.09,0.07,
0.098,-0.48,0.20,-0.66,-0.13,-0.09,0.07,
0.098,-0.46,0.28,-0.52,-0.13,-0.09,0.07,
0.098,-0.46,0.28,-0.52,-0.13,-0.09,0.08,
0.099,-0.46,0.28,-0.52,-0.14,-0.10,0.09,
0.099,-0.46,0.28,-0.52,-0.14,-0.09,0.09,
0.099,-0.46,0.28,-0.52,-0.14,-0.09,0.09,
0.101,-0.46,0.28,-0.52,-0.14,-0.10,0.09,
0.102,-0.27,0.29,-0.16,-0.14,-0.10,0.09,
0.103,-0.27,0.29,-0.16,-0.14,-0.10,0.10,
0.106,-0.27,0.29,-0.16,-0.14,-0.09,0.09,
0.107,-0.27,0.29,-0.16,-0.13,-0.09,0.09,
0.109,-0.27,0.29,-0.16,-0.13,-0.09,0.09,
0.111,-0.27,0.29,-0.16,-0.13,-0.09,0.09,
0.112,-0.03,0.29,0.10,-0.13,-0.09,0.09,
0.113,-0.03,0.29,0.10,-0.12,-0.08,0.08,
0.116,-0.03,0.29,0.10,-0.12,-0.08,0.07,
0.118,-0.03,0.29,0.10,-0.12,-0.08,0.07,
0.12,-0.03,0.29,0.10,-0.13,-0.07,0.06,
0.122,-0.03,0.29,0.10,-0.13,-0.07,0.06,
0.123,0.12,0.30,0.21,-0.13,-0.07,0.06,
0.125,0.12,0.30,0.21,-0.13,-0.06,0.05,
0.13,0.12,0.30,0.21,-0.13,-0.05,0.04,
0.131,0.12,0.30,0.21,-0.13,-0.05,0.04,
0.131,0.12,0.30,0.21,-0.13,-0.04,0.03,
0.132,0.12,0.30,0.21,-0.13,-0.03,0.02,
0.135,0.05,0.27,0.33,-0.13,-0.03,0.02,
0.137,0.05,0.27,0.33,-0.13,-0.03,0.02,
0.137,0.05,0.27,0.33,-0.13,-0.02,0.02,
0.138,0.05,0.27,0.33,-0.13,-0.02,0.01,
0.139,0.05,0.27,0.33,-0.13,-0.01,0.01,
0.141,0.05,0.27,0.33,-0.13,-0.00,0.01,
0.143,-0.06,0.17,0.44,-0.13,-0.00,0.01,
0.143,-0.06,0.17,0.44,-0.12,0.00,0.01,
0.146,-0.06,0.17,0.44,-0.12,0.01,0.02,
0.147,-0.06,0.17,0.44,-0.12,0.01,0.02,
0.149,-0.06,0.17,0.44,-0.12,0.02,0.02,
0.162,-0.06,0.17,0.44,-0.12,0.02,0.02,
0.163,-0.16,0.11,0.40,-0.12,0.02,0.02,
0.163,-0.16,0.11,0.40,-0.12,0.02,0.02,
0.164,-0.16,0.11,0.40,-0.12,0.03,0.03,
0.164,-0.16,0.11,0.40,-0.12,0.03,0.03,
0.164,-0.16,0.11,0.40,-0.12,0.03,0.03,
0.164,-0.16,0.11,0.40,-0.11,0.03,0.03,
0.164,-0.20,0.07,0.38,-0.11,0.03,0.03,
0.165,-0.20,0.07,0.38,-0.11,0.03,0.04,
0.165,-0.20,0.07,0.38,-0.10,0.02,0.04,
0.167,-0.20,0.07,0.38,-0.10,0.02,0.04,
0.169,-0.20,0.07,0.38,-0.09,0.01,0.04,
0.171,-0.20,0.07,0.38,-0.09,-0.00,0.05,
0.173,-0.25,0.09,0.41,-0.09,-0.00,0.05,
0.173,-0.25,0.09,0.41,-0.08,-0.01,0.05,
0.18,-0.25,0.09,0.41,-0.07,-0.03,0.05,
0.181,-0.25,0.09,0.41,-0.06,-0.04,0.06,
0.181,-0.25,0.09,0.41,-0.05,-0.05,0.06,
0.182,-0.25,0.09,0.41,-0.04,-0.06,0.06,
0.194,-0.34,0.10,0.48,-0.04,-0.06,0.06,
0.194,-0.34,0.10,0.48,-0.03,-0.08,0.07,
0.195,-0.34,0.10,0.48,-0.01,-0.10,0.08,
0.195,-0.34,0.10,0.48,-0.01,-0.10,0.08,
0.196,-0.34,0.10,0.48,0.01,-0.11,0.08,
0.196,-0.34,0.10,0.48,0.01,-0.12,0.09,
0.196,-0.35,0.10,0.48,0.01,-0.12,0.09,
0.197,-0.35,0.10,0.48,0.02,-0.13,0.09,
0.197,-0.35,0.10,0.48,0.04,-0.15,0.10,
0.197,-0.35,0.10,0.48,0.04,-0.15,0.10,
0.201,-0.35,0.10,0.48,0.05,-0.16,0.11,
0.204,-0.35,0.10,0.48,0.06,-0.16,0.11,
0.205,-0.36,0.07,0.36,0.06,-0.16,0.11,
0.207,-0.36,0.07,0.36,0.06,-0.17,0.12,
0.207,-0.36,0.07,0.36,0.07,-0.18,0.13,
0.208,-0.36,0.07,0.36,0.07,-0.18,0.13,
0.209,-0.36,0.07,0.36,0.08,-0.18,0.13,
0.211,-0.36,0.07,0.36,0.08,-0.18,0.14,
0.213,-0.34,0.04,0.21,0.08,-0.18,0.14,
0.214,-0.34,0.04,0.21,0.08,-0.18,0.14,
0.218,-0.34,0.04,0.21,0.09,-0.17,0.15,
0.219,-0.34,0.04,0.21,0.09,-0.17,0.16,
0.219,-0.34,0.04,0.21,0.09,-0.16,0.16,
0.221,-0.34,0.04,0.21,0.10,-0.15,0.17,
0.223,-0.32,0.02,0.26,0.10,-0.15,0.17,
0.224,-0.32,0.02,0.26,0.10,-0.14,0.17,
0.226,-0.32,0.02,0.26,0.11,-0.12,0.17,
0.227,-0.32,0.02,0.26,0.11,-0.11,0.17,
0.229,-0.32,0.02,0.26,0.11,-0.10,0.18,
0.231,-0.32,0.02,0.26,0.11,-0.08,0.18,
0.234,-0.21,0.01,0.21,0.11,-0.08,0.18,
0.235,-0.21,0.01,0.21,0.12,-0.07,0.19,
0.236,-0.21,0.01,0.21,0.11,-0.04,0.19,
0.237,-0.21,0.01,0.21,0.11,-0.03,0.19,
0.239,-0.21,0.01,0.21,0.11,-0.02,0.20,
0.241,-0.21,0.01,0.21,0.11,-0.00,0.20,
0.243,-0.14,0.00,-0.03,0.11,-0.00,0.20,
0.243,-0.14,0.00,-0.03,0.11,0.02,0.20,
0.246,-0.14,0.00,-0.03,0.10,0.04,0.21,
0.247,-0.14,0.00,-0.03,0.10,0.05,0.21,
0.251,-0.14,0.00,-0.03,0.09,0.06,0.21,
0.252,-0.14,0.00,-0.03,0.09,0.06,0.22,
0.282,-0.16,-0.05,-0.31,0.09,0.06,0.22,
0.283,-0.16,-0.05,-0.31,0.08,0.06,0.23,
0.283,-0.16,-0.05,-0.31,0.07,0.06,0.24,
0.285,-0.16,-0.05,-0.31,0.06,0.06,0.24,
0.285,-0.16,-0.05,-0.31,0.06,0.06,0.24,
0.285,-0.16,-0.05,-0.31,0.05,0.06,0.25,
0.286,-0.28,0.01,-0.60,0.05,0.06,0.25,
0.286,-0.28,0.01,-0.60,0.04,0.05,0.26,
0.287,-0.28,0.01,-0.60,0.03,0.04,0.27,
0.287,-0.28,0.01,-0.60,0.01,0.03,0.28,
0.288,-0.28,0.01,-0.60,0.01,0.03,0.28,
0.288,-0.28,0.01,-0.60,0.00,0.02,0.29,
0.288,-0.29,0.10,-0.74,0.00,0.02,0.29,
0.289,-0.29,0.10,-0.74,-0.01,0.01,0.29,
0.289,-0.29,0.10,-0.74,-0.02,-0.01,0.30,
0.289,-0.29,0.10,-0.74,-0.03,-0.02,0.30,
0.289,-0.29,0.10,-0.74,-0.03,-0.02,0.30,
0.29,-0.29,0.10,-0.74,-0.04,-0.04,0.30,
0.29,-0.13,0.15,-0.68,-0.04,-0.04,0.30,
0.29,-0.13,0.15,-0.68,-0.04,-0.05,0.30,
0.291,-0.13,0.15,-0.68,-0.04,-0.06,0.30,
0.291,-0.13,0.15,-0.68,-0.04,-0.07,0.29,
0.291,-0.13,0.15,-0.68,-0.04,-0.08,0.29,
0.291,-0.13,0.15,-0.68,-0.04,-0.09,0.29,
0.297,0.06,0.18,-0.40,-0.04,-0.09,0.29,
0.298,0.06,0.18,-0.40,-0.03,-0.10,0.28,
0.298,0.06,0.18,-0.40,-0.03,-0.13,0.27,
0.298,0.06,0.18,-0.40,-0.02,-0.14,0.27,
0.31,0.06,0.18,-0.40,-0.02,-0.15,0.26,
0.311,0.06,0.18,-0.40,-0.01,-0.16,0.26,
0.311,0.25,0.21,-0.15,-0.01,-0.16,0.26,
0.311,0.25,0.21,-0.15,-0.01,-0.17,0.25,
0.312,0.25,0.21,-0.15,-0.00,-0.18,0.24,
0.314,0.25,0.21,-0.15,0.01,-0.18,0.23,
0.315,0.25,0.21,-0.15,0.01,-0.19,0.22,
0.315,0.25,0.21,-0.15,0.01,-0.19,0.22,
0.315,0.26,0.19,0.04,0.01,-0.19,0.22,
0.315,0.26,0.19,0.04,0.02,-0.18,0.21,
0.317,0.26,0.19,0.04,0.02,-0.18,0.21,
0.317,0.26,0.19,0.04,0.02,-0.17,0.20,
0.319,0.26,0.19,0.04,0.02,-0.17,0.20,
0.321,0.26,0.19,0.04,0.02,-0.17,0.20,
0.33,0.15,0.13,0.02,0.02,-0.17,0.20,
0.33,0.15,0.13,0.02,0.02,-0.16,0.20,
0.331,0.15,0.13,0.02,0.02,-0.14,0.19,
0.331,0.15,0.13,0.02,0.01,-0.13,0.20,
0.334,0.15,0.13,0.02,0.01,-0.12,0.20,
0.335,0.15,0.13,0.02,0.01,-0.10,0.20,
0.335,0.03,0.07,0.01,0.01,-0.10,0.20,
0.335,0.03,0.07,0.01,0.00,-0.08,0.21,
0.336,0.03,0.07,0.01,0.00,-0.07,0.21,
0.343,0.03,0.07,0.01,0.00,-0.06,0.22,
0.343,0.03,0.07,0.01,0.00,-0.04,0.22,
0.343,0.03,0.07,0.01,0.00,-0.02,0.23,
0.344,-0.14,-0.01,0.13,0.00,-0.02,0.23,
0.344,-0.14,-0.01,0.13,-0.00,-0.00,0.23,
0.345,-0.14,-0.01,0.13,-0.00,0.02,0.24,
0.347,-0.14,-0.01,0.13,-0.00,0.04,0.25,
0.349,-0.14,-0.01,0.13,-0.00,0.05,0.26,
0.351,-0.14,-0.01,0.13,-0.00,0.06,0.27,
0.353,-0.25,-0.07,0.18,-0.00,0.06,0.27,
0.353,-0.25,-0.07,0.18,-0.00,0.07,0.28,
0.355,-0.25,-0.07,0.18,0.00,0.08,0.29,
0.357,-0.25,-0.07,0.18,0.00,0.09,0.30,
0.358,-0.25,-0.07,0.18,0.00,0.09,0.30,
0.361,-0.25,-0.07,0.18,0.01,0.10,0.31,
0.363,-0.34,-0.08,0.24,0.01,0.10,0.31,
0.363,-0.34,-0.08,0.24,0.01,0.10,0.32,
0.366,-0.34,-0.08,0.24,0.02,0.09,0.33,
0.367,-0.34,-0.08,0.24,0.02,0.09,0.34,
0.369,-0.34,-0.08,0.24,0.03,0.08,0.34,
0.372,-0.34,-0.08,0.24,0.03,0.08,0.34,
0.373,-0.25,-0.01,0.21,0.03,0.08,0.34,
0.374,-0.25,-0.01,0.21,0.04,0.07,0.35,
0.376,-0.25,-0.01,0.21,0.04,0.05,0.36,
0.377,-0.25,-0.01,0.21,0.04,0.04,0.36,
0.379,-0.25,-0.01,0.21,0.04,0.04,0.36,
0.383,-0.25,-0.01,0.21,0.04,0.03,0.36,
0.383,-0.05,0.04,0.00,0.04,0.03,0.36,
0.384,-0.05,0.04,0.00,0.03,0.02,0.35,
0.386,-0.05,0.04,0.00,0.03,0.01,0.35,
0.387,-0.05,0.04,0.00,0.02,0.00,0.35,
0.389,-0.05,0.04,0.00,0.02,0.00,0.34,
0.391,-0.05,0.04,0.00,0.01,0.00,0.33,
0.393,0.21,0.12,-0.30,0.01,0.00,0.33,
0.393,0.21,0.12,-0.30,-0.00,-0.00,0.33,
0.396,0.21,0.12,-0.30,-0.02,-0.00,0.32,
0.397,0.21,0.12,-0.30,-0.03,-0.01,0.31,
0.399,0.21,0.12,-0.30,-0.04,-0.01,0.31,
0.401,0.21,0.12,-0.30,-0.05,-0.00,0.29,
0.403,0.42,0.23,-0.43,-0.05,-0.00,0.29,
0.405,0.42,0.23,-0.43,-0.06,0.00,0.28,
0.406,0.42,0.23,-0.43,-0.07,0.01,0.27,
0.407,0.42,0.23,-0.43,-0.08,0.01,0.26,
0.409,0.42,0.23,-0.43,-0.09,0.02,0.24,
0.411,0.42,0.23,-0.43,-0.09,0.02,0.23,
0.413,0.49,0.24,-0.26,-0.09,0.02,0.23,
0.414,0.49,0.24,-0.26,-0.09,0.03,0.22,
0.418,0.49,0.24,-0.26,-0.09,0.04,0.21,
0.421,0.49,0.24,-0.26,-0.09,0.04,0.20,
0.451,0.49,0.24,-0.26,-0.09,0.05,0.19,
0.452,0.49,0.24,-0.26,-0.09,0.05,0.18,
0.452,0.44,0.19,-0.09,-0.09,0.05,0.18,
0.453,0.44,0.19,-0.09,-0.09,0.05,0.18,
0.453,0.44,0.19,-0.09,-0.09,0.05,0.17,
0.453,0.44,0.19,-0.09,-0.09,0.05,0.17,
0.454,0.44,0.19,-0.09,-0.09,0.06,0.16,
0.454,0.44,0.19,-0.09,-0.08,0.06,0.16,
0.455,0.32,0.09,0.06,-0.08,0.06,0.16,
0.455,0.32,0.09,0.06,-0.08,0.06,0.16,
0.456,0.32,0.09,0.06,-0.07,0.06,0.16,
0.456,0.32,0.09,0.06,-0.06,0.07,0.16,
0.457,0.32,0.09,0.06,-0.06,0.07,0.16,
0.457,0.32,0.09,0.06,-0.06,0.08,0.16,
0.457,0.20,-0.04,0.12,-0.06,0.08,0.16,
0.458,0.20,-0.04,0.12,-0.05,0.08,0.16,
0.458,0.20,-0.04,0.12,-0.05,0.09,0.16,
0.459,0.20,-0.04,0.12,-0.05,0.09,0.16,
0.459,0.20,-0.04,0.12,-0.04,0.10,0.17,
0.46,0.20,-0.04,0.12,-0.04,0.11,0.17,
0.46,0.01,-0.09,0.10,-0.04,0.11,0.17,
0.46,0.01,-0.09,0.10,-0.04,0.11,0.17,
0.461,0.01,-0.09,0.10,-0.04,0.12,0.18,
0.461,0.01,-0.09,0.10,-0.03,0.13,0.19,
0.462,0.01,-0.09,0.10,-0.03,0.13,0.19,
0.462,0.01,-0.09,0.10,-0.03,0.14,0.20,
0.463,-0.17,-0.12,0.07,-0.03,0.14,0.20,
0.463,-0.17,-0.12,0.07,-0.03,0.14,0.20,
0.47,-0.17,-0.12,0.07,-0.03,0.14,0.21,
0.471,-0.17,-0.12,0.07,-0.02,0.14,0.22,
0.471,-0.17,-0.12,0.07,-0.02,0.14,0.22,
0.471,-0.17,-0.12,0.07,-0.01,0.14,0.23,
0.473,-0.23,-0.12,0.06,-0.01,0.14,0.23,
0.473,-0.23,-0.12,0.06,-0.01,0.13,0.23,
0.476,-0.23,-0.12,0.06,-0.01,0.13,0.24,
0.477,-0.23,-0.12,0.06,-0.00,0.12,0.24,
0.479,-0.23,-0.12,0.06,0.00,0.12,0.24,
0.481,-0.23,-0.12,0.06,0.00,0.11,0.24,
0.492,-0.13,-0.14,0.02,0.00,0.11,0.24,
0.492,-0.13,-0.14,0.02,0.00,0.10,0.25,
0.493,-0.13,-0.14,0.02,0.01,0.10,0.25,
0.493,-0.13,-0.14,0.02,0.01,0.09,0.25,
0.493,-0.13,-0.14,0.02,0.01,0.08,0.24,
0.494,-0.13,-0.14,0.02,0.02,0.08,0.24,
0.494,0.04,-0.10,0.01,0.02,0.08,0.24,
0.494,0.04,-0.10,0.01,0.02,0.07,0.24,
0.496,0.04,-0.10,0.01,0.02,0.07,0.23,
0.496,0.04,-0.10,0.01,0.02,0.06,0.22,
0.51,0.04,-0.10,0.01,0.02,0.06,0.22,
0.512,0.04,-0.10,0.01,0.02,0.05,0.21,
0.513,0.24,-0.05,-0.08,0.02,0.05,0.21,
0.513,0.24,-0.05,-0.08,0.02,0.05,0.21,
0.514,0.24,-0.05,-0.08,0.01,0.05,0.20,
0.514,0.24,-0.05,-0.08,0.01,0.06,0.19,
0.515,0.24,-0.05,-0.08,0.01,0.06,0.19,
0.515,0.24,-0.05,-0.08,0.00,0.06,0.18,
0.516,0.36,-0.03,-0.16,0.00,0.06,0.18,
0.517,0.36,-0.03,-0.16,0.00,0.07,0.17,
0.517,0.36,-0.03,-0.16,0.00,0.08,0.17,
0.518,0.36,-0.03,-0.16,-0.00,0.08,0.16,
0.525,0.36,-0.03,-0.16,-0.00,0.09,0.16,
0.527,0.36,-0.03,-0.16,-0.01,0.10,0.15,
0.528,0.31,-0.04,-0.07,-0.01,0.10,0.15,
0.528,0.31,-0.04,-0.07,-0.00,0.10,0.15,
0.529,0.31,-0.04,-0.07,-0.00,0.11,0.15,
0.529,0.31,-0.04,-0.07,-0.00,0.11,0.15,
0.529,0.31,-0.04,-0.07,-0.00,0.12,0.15,
0.532,0.31,-0.04,-0.07,0.00,0.12,0.15,
0.533,0.17,-0.10,-0.01,0.00,0.12,0.15,
0.534,0.17,-0.10,-0.01,0.00,0.13,0.15,
0.536,0.17,-0.10,-0.01,0.01,0.13,0.15,
0.537,0.17,-0.10,-0.01,0.01,0.13,0.16,
0.539,0.17,-0.10,-0.01,0.01,0.13,0.16,
0.541,0.17,-0.10,-0.01,0.01,0.13,0.16,
0.543,-0.02,-0.16,-0.05,0.01,0.13,0.16,
0.544,-0.02,-0.16,-0.05,0.01,0.13,0.17,
0.546,-0.02,-0.16,-0.05,0.01,0.13,0.17,
0.547,-0.02,-0.16,-0.05,0.02,0.12,0.18,
0.55,-0.02,-0.16,-0.05,0.02,0.12,0.18,
0.551,-0.02,-0.16,-0.05,0.02,0.12,0.19,
0.553,-0.10,-0.16,-0.16,0.02,0.12,0.19,
0.554,-0.10,-0.16,-0.16,0.02,0.12,0.19,
0.556,-0.10,-0.16,-0.16,0.02,0.11,0.19,
0.557,-0.10,-0.16,-0.16,0.02,0.11,0.20,
0.559,-0.10,-0.16,-0.16,0.02,0.10,0.21,
0.561,-0.10,-0.16,-0.16,0.02,0.09,0.21,
0.563,-0.08,-0.19,-0.25,0.02,0.09,0.21,
0.563,-0.08,-0.19,-0.25,0.02,0.09,0.21,
0.576,-0.08,-0.19,-0.25,0.02,0.08,0.22,
0.577,-0.08,-0.19,-0.25,0.02,0.07,0.22,
0.578,-0.08,-0.19,-0.25,0.02,0.06,0.22,
0.578,-0.08,-0.19,-0.25,0.01,0.05,0.22,
0.579,0.01,-0.16,-0.35,0.01,0.05,0.22,
0.579,0.01,-0.16,-0.35,0.01,0.05,0.22,
0.58,0.01,-0.16,-0.35,0.01,0.04,0.22,
0.581,0.01,-0.16,-0.35,0.01,0.03,0.22,
0.582,0.01,-0.16,-0.35,0.00,0.02,0.22,
0.599,0.01,-0.16,-0.35,-0.00,0.01,0.21,
0.6,0.13,-0.10,-0.35,-0.00,0.01,0.21,
0.6,0.13,-0.10,-0.35,-0.01,-0.00,0.21,
0.629,0.13,-0.10,-0.35,-0.00,-0.01,0.21,
0.63,0.13,-0.10,-0.35,-0.00,-0.02,0.21,
0.63,0.13,-0.10,-0.35,-0.00,-0.03,0.20,
0.631,0.13,-0.10,-0.35,-0.00,-0.04,0.20,
0.632,0.21,-0.02,-0.17,-0.00,-0.04,0.20,
0.632,0.21,-0.02,-0.17,-0.00,-0.05,0.19,
0.633,0.21,-0.02,-0.17,-0.00,-0.06,0.18,
0.634,0.21,-0.02,-0.17,-0.00,-0.06,0.18,
0.634,0.21,-0.02,-0.17,0.00,-0.06,0.17,
0.635,0.21,-0.02,-0.17,-0.00,-0.06,0.17,
0.635,0.34,0.01,-0.10,-0.00,-0.06,0.17,
0.638,0.34,0.01,-0.10,-0.00,-0.06,0.16,
0.638,0.34,0.01,-0.10,-0.01,-0.06,0.15,
0.639,0.34,0.01,-0.10,-0.01,-0.06,0.15,
0.639,0.34,0.01,-0.10,-0.01,-0.05,0.14,
0.64,0.34,0.01,-0.10,-0.01,-0.05,0.14,
0.64,0.34,0.00,-0.10,-0.01,-0.05,0.14,
0.641,0.34,0.00,-0.10,-0.02,-0.04,0.14,
0.641,0.34,0.00,-0.10,-0.02,-0.03,0.13,
0.642,0.34,0.00,-0.10,-0.02,-0.03,0.13,
0.642,0.34,0.00,-0.10,-0.03,-0.02,0.13,
0.643,0.34,0.00,-0.10,-0.03,-0.01,0.13,
0.643,0.25,-0.03,0.06,-0.03,-0.01,0.13,
0.643,0.25,-0.03,0.06,-0.02,0.00,0.13,
0.644,0.25,-0.03,0.06,-0.02,0.02,0.13,
0.644,0.25,-0.03,0.06,-0.02,0.02,0.13,
0.645,0.25,-0.03,0.06,-0.02,0.03,0.14,
0.645,0.25,-0.03,0.06,-0.01,0.04,0.14,
0.646,0.10,-0.05,0.26,-0.01,0.04,0.14,
0.646,0.10,-0.05,0.26,-0.01,0.05,0.14,
0.646,0.10,-0.05,0.26,0.00,0.06,0.15,
0.647,0.10,-0.05,0.26,0.00,0.07,0.16,
0.647,0.10,-0.05,0.26,0.01,0.08,0.16,
0.648,0.10,-0.05,0.26,0.01,0.08,0.17,
0.648,-0.01,-0.16,0.34,0.01,0.08,0.17,
0.648,-0.01,-0.16,0.34,0.02,0.09,0.17,
0.649,-0.01,-0.16,0.34,0.03,0.09,0.19,
0.649,-0.01,-0.16,0.34,0.04,0.09,0.19,
0.649,-0.01,-0.16,0.34,0.04,0.09,0.19,
0.654,-0.01,-0.16,0.34,0.05,0.10,0.20,
0.655,-0.07,-0.21,0.28,0.05,0.10,0.20,
0.655,-0.07,-0.21,0.28,0.05,0.09,0.21,
0.656,-0.07,-0.21,0.28,0.06,0.09,0.22,
0.657,-0.07,-0.21,0.28,0.06,0.09,0.22,
0.659,-0.07,-0.21,0.28,0.07,0.08,0.23,
0.661,-0.07,-0.21,0.28,0.07,0.08,0.23,
0.663,-0.08,-0.21,0.14,0.07,0.08,0.23,
0.663,-0.08,-0.21,0.14,0.08,0.07,0.24,
0.667,-0.08,-0.21,0.14,0.08,0.06,0.24,
0.668,-0.08,-0.21,0.14,0.08,0.05,0.25,
0.669,-0.08,-0.21,0.14,0.08,0.05,0.25,
0.671,-0.08,-0.21,0.14,0.08,0.04,0.25,
0.673,0.01,-0.12,-0.06,0.08,0.04,0.25,
0.673,0.01,-0.12,-0.06,0.08,0.03,0.25,
0.676,0.01,-0.12,-0.06,0.08,0.02,0.25,
0.676,0.01,-0.12,-0.06,0.07,0.01,0.25,
0.678,0.01,-0.12,-0.06,0.07,0.01,0.25,
0.682,0.01,-0.12,-0.06,0.07,-0.01,0.25,
0.683,0.19,-0.08,-0.20,0.07,-0.01,0.25,
0.684,0.19,-0.08,-0.20,0.07,-0.01,0.24,
0.688,0.19,-0.08,-0.20,0.06,-0.03,0.24,
0.688,0.19,-0.08,-0.20,0.06,-0.03,0.23,
0.688,0.19,-0.08,-0.20,0.06,-0.04,0.23,
0.691,0.19,-0.08,-0.20,0.05,-0.05,0.22,
0.692,0.29,-0.03,-0.21,0.05,-0.05,0.22,
0.693,0.29,-0.03,-0.21,0.05,-0.06,0.21,
0.696,0.29,-0.03,-0.21,0.05,-0.08,0.20,
0.709,0.29,-0.03,-0.21,0.05,-0.08,0.19,
0.709,0.29,-0.03,-0.21,0.04,-0.08,0.18,
0.71,0.29,-0.03,-0.21,0.03,-0.09,0.16,
0.71,0.29,-0.03,-0.21,0.03,-0.09,0.16,
0.71,0.47,0.07,-0.12,0.03,-0.09,0.16,
0.71,0.47,0.07,-0.12,0.03,-0.09,0.14,
0.71,0.47,0.07,-0.12,0.02,-0.09,0.14,
0.711,0.47,0.07,-0.12,0.02,-0.09,0.13,
0.711,0.47,0.07,-0.12,0.01,-0.09,0.12,
0.732,0.50,0.06,-0.11,0.01,-0.09,0.12,
0.735,0.50,0.06,-0.11,0.00,-0.08,0.11,
0.737,0.50,0.06,-0.11,-0.01,-0.06,0.10,
0.738,0.50,0.06,-0.11,-0.02,-0.06,0.10,
0.738,0.50,0.06,-0.11,-0.03,-0.04,0.09,
0.739,0.50,0.06,-0.11,-0.03,-0.03,0.08,
0.739,0.43,0.03,-0.06,-0.03,-0.03,0.08,
0.74,0.43,0.03,-0.06,-0.04,-0.01,0.08,
0.74,0.43,0.03,-0.06,-0.04,0.01,0.07,
0.741,0.43,0.03,-0.06,-0.05,0.01,0.07,
0.741,0.43,0.03,-0.06,-0.05,0.03,0.07,
0.742,0.43,0.03,-0.06,-0.05,0.04,0.08,
0.742,0.18,-0.03,0.15,-0.05,0.04,0.08,
0.743,0.18,-0.03,0.15,-0.05,0.06,0.08,
0.743,0.18,-0.03,0.15,-0.04,0.08,0.09,
0.743,0.18,-0.03,0.15,-0.04,0.08,0.09,
0.744,0.18,-0.03,0.15,-0.04,0.09,0.09,
0.744,0.18,-0.03,0.15,-0.04,0.10,0.10,
0.745,0.02,-0.13,0.31,-0.04,0.10,0.10,
0.746,0.02,-0.13,0.31,-0.03,0.11,0.10,
0.746,0.02,-0.13,0.31,-0.02,0.12,0.12,
0.75,0.02,-0.13,0.31,-0.02,0.12,0.12,
0.754,0.02,-0.13,0.31,-0.01,0.12,0.13,
0.755,0.02,-0.13,0.31,0.00,0.13,0.14,
0.789,-0.09,-0.17,0.34,0.00,0.13,0.14,
0.789,-0.09,-0.17,0.34,0.01,0.13,0.14,
0.79,-0.09,-0.17,0.34,0.02,0.13,0.15,
0.79,-0.09,-0.17,0.34,0.02,0.13,0.16,
0.791,-0.09,-0.17,0.34,0.03,0.13,0.16,
0.791,-0.09,-0.17,0.34,0.04,0.12,0.17,
0.792,-0.12,-0.18,0.25,0.04,0.12,0.17,
0.792,-0.12,-0.18,0.25,0.05,0.11,0.18,
0.793,-0.12,-0.18,0.25,0.06,0.11,0.18,
0.793,-0.12,-0.18,0.25,0.06,0.10,0.19,
0.793,-0.12,-0.18,0.25,0.07,0.09,0.19,
0.794,-0.12,-0.18,0.25,0.08,0.08,0.19,
0.794,-0.05,-0.14,0.16,0.08,0.08,0.19,
0.795,-0.05,-0.14,0.16,0.09,0.07,0.20,
0.795,-0.05,-0.14,0.16,0.10,0.04,0.20,
0.796,-0.05,-0.14,0.16,0.10,0.04,0.20,
0.796,-0.05,-0.14,0.16,0.11,0.02,0.20,
0.796,-0.05,-0.14,0.16,0.12,0.01,0.20,
0.797,0.06,-0.09,-0.01,0.12,0.01,0.20,
0.797,0.06,-0.09,-0.01,0.12,-0.01,0.20,
0.798,0.06,-0.09,-0.01,0.13,-0.03,0.20,
0.798,0.06,-0.09,-0.01,0.13,-0.03,0.19,
0.799,0.06,-0.09,-0.01,0.13,-0.05,0.19,
0.799,0.06,-0.09,-0.01,0.14,-0.06,0.19,
0.799,0.18,-0.02,-0.10,0.14,-0.06,0.19,
0.8,0.18,-0.02,-0.10,0.14,-0.07,0.18,
0.8,0.18,-0.02,-0.10,0.15,-0.09,0.17,
0.801,0.18,-0.02,-0.10,0.15,-0.09,0.17,
0.801,0.18,-0.02,-0.10,0.15,-0.10,0.16,
0.802,0.18,-0.02,-0.10,0.15,-0.11,0.15,
0.802,0.26,0.04,-0.14,0.15,-0.11,0.15,
0.803,0.26,0.04,-0.14,0.15,-0.11,0.14,
0.807,0.26,0.04,-0.14,0.15,-0.11,0.13,
0.808,0.26,0.04,-0.14,0.15,-0.11,0.13,
0.809,0.26,0.04,-0.14,0.14,-0.11,0.12,
0.813,0.26,0.04,-0.14,0.14,-0.11,0.11,
0.814,0.35,0.05,-0.22,0.14,-0.11,0.11,
0.814,0.35,0.05,-0.22,0.13,-0.10,0.10,
0.818,0.35,0.05,-0.22,0.13,-0.08,0.09,
0.819,0.35,0.05,-0.22,0.12,-0.07,0.08,
0.82,0.35,0.05,-0.22,0.12,-0.06,0.08,
0.823,0.35,0.05,-0.22,0.11,-0.04,0.07,
0.823,0.40,0.02,-0.26,0.11,-0.04,0.07,
0.824,0.40,0.02,-0.26,0.10,-0.02,0.06,
0.828,0.40,0.02,-0.26,0.09,0.00,0.05,
0.828,0.40,0.02,-0.26,0.08,0.01,0.05,
0.829,0.40,0.02,-0.26,0.07,0.03,0.05,
0.831,0.40,0.02,-0.26,0.06,0.04,0.05,
0.833,0.23,-0.05,-0.35,0.06,0.04,0.05,
0.833,0.23,-0.05,-0.35,0.05,0.06,0.05,
0.838,0.23,-0.05,-0.35,0.04,0.08,0.05,
0.839,0.23,-0.05,-0.35,0.04,0.09,0.05,
0.839,0.23,-0.05,-0.35,0.03,0.10,0.05,
0.843,0.23,-0.05,-0.35,0.02,0.11,0.06,
0.844,0.05,-0.14,-0.29,0.02,0.11,0.06,
0.844,0.05,-0.14,-0.29,0.02,0.11,0.06,
0.856,0.05,-0.14,-0.29,0.01,0.12,0.06,
0.856,0.05,-0.14,-0.29,0.01,0.12,0.07,
0.857,0.05,-0.14,-0.29,0.01,0.12,0.07,
0.857,0.05,-0.14,-0.29,0.01,0.12,0.08,
0.857,-0.07,-0.20,-0.20,0.01,0.12,0.08,
0.857,-0.07,-0.20,-0.20,0.01,0.12,0.08,
0.857,-0.07,-0.20,-0.20,0.01,0.12,0.09,
0.858,-0.07,-0.20,-0.20,0.01,0.11,0.09,
0.859,-0.07,-0.20,-0.20,0.01,0.11,0.09,
0.861,-0.07,-0.20,-0.20,0.01,0.11,0.09,
0.878,-0.07,-0.24,-0.18,0.01,0.11,0.09,
0.879,-0.07,-0.24,-0.18,0.01,0.10,0.10,
0.879,-0.07,-0.24,-0.18,0.01,0.09,0.10,
0.879,-0.07,-0.24,-0.18,0.01,0.09,0.10,
0.879,-0.07,-0.24,-0.18,0.01,0.09,0.10,
0.88,-0.07,-0.24,-0.18,0.01,0.08,0.10,
0.88,-0.03,-0.27,-0.14,0.01,0.08,0.10,
0.88,-0.03,-0.27,-0.14,0.02,0.07,0.11,
0.88,-0.03,-0.27,-0.14,0.02,0.06,0.11,
0.88,-0.03,-0.27,-0.14,0.02,0.06,0.11,
0.881,-0.03,-0.27,-0.14,0.02,0.05,0.11,
0.883,-0.03,-0.27,-0.14,0.03,0.04,0.11,
0.884,-0.01,-0.29,-0.04,0.03,0.04,0.11,
0.884,-0.01,-0.29,-0.04,0.03,0.04,0.11,
0.886,-0.01,-0.29,-0.04,0.04,0.02,0.12,
0.887,-0.01,-0.29,-0.04,0.04,0.02,0.12,
0.889,-0.01,-0.29,-0.04,0.05,0.01,0.12,
0.891,-0.01,-0.29,-0.04,0.05,0.01,0.12,
0.893,-0.06,-0.32,0.04,0.05,0.01,0.12,
0.893,-0.06,-0.32,0.04,0.05,-0.00,0.12,
0.898,-0.06,-0.32,0.04,0.06,-0.01,0.13,
0.902,-0.06,-0.32,0.04,0.06,-0.01,0.13,
0.902,-0.06,-0.32,0.04,0.06,-0.02,0.13,
0.903,-0.06,-0.32,0.04,0.07,-0.02,0.13,
0.903,-0.06,-0.33,0.06,0.07,-0.02,0.13,
0.904,-0.06,-0.33,0.06,0.07,-0.02,0.13,
0.906,-0.06,-0.33,0.06,0.07,-0.02,0.13,
0.907,-0.06,-0.33,0.06,0.07,-0.02,0.13,
0.909,-0.06,-0.33,0.06,0.07,-0.02,0.13,
0.911,-0.06,-0.33,0.06,0.07,-0.02,0.13,
0.914,0.02,-0.32,0.04,0.07,-0.02,0.13,
0.917,0.02,-0.32,0.04,0.07,-0.02,0.12,
0.92,0.02,-0.32,0.04,0.08,-0.01,0.12,
0.921,0.02,-0.32,0.04,0.08,-0.01,0.12,
0.948,0.02,-0.32,0.04,0.08,-0.01,0.12,
0.948,0.02,-0.32,0.04,0.08,-0.01,0.11,
0.949,0.11,-0.27,0.01,0.08,-0.01,0.11,
0.949,0.11,-0.27,0.01,0.08,-0.01,0.11,
0.95,0.11,-0.27,0.01,0.08,-0.01,0.10,
0.95,0.11,-0.27,0.01,0.08,-0.00,0.10,
0.95,0.11,-0.27,0.01,0.08,-0.00,0.10,
0.951,0.11,-0.27,0.01,0.08,-0.00,0.10,
0.951,0.10,-0.19,-0.08,0.08,-0.00,0.10,
0.952,0.10,-0.19,-0.08,0.07,0.00,0.10,
0.952,0.10,-0.19,-0.08,0.07,0.01,0.09,
0.953,0.10,-0.19,-0.08,0.06,0.01,0.09,
0.953,0.10,-0.19,-0.08,0.06,0.01,0.09,
0.953,0.10,-0.19,-0.08,0.06,0.01,0.09,
0.954,0.09,-0.23,-0.21,0.06,0.01,0.09,
0.954,0.09,-0.23,-0.21,0.05,0.02,0.09,
0.955,0.09,-0.23,-0.21,0.04,0.02,0.09,
0.955,0.09,-0.23,-0.21,0.04,0.02,0.09,
0.956,0.09,-0.23,-0.21,0.04,0.02,0.08,
0.956,0.09,-0.23,-0.21,0.04,0.02,0.09,
0.956,0.05,-0.23,-0.24,0.04,0.02,0.09,
0.957,0.05,-0.23,-0.24,0.03,0.03,0.09,
0.957,0.05,-0.23,-0.24,0.03,0.02,0.09,
0.957,0.05,-0.23,-0.24,0.03,0.02,0.09,
0.96,0.05,-0.23,-0.24,0.03,0.02,0.09,
0.961,0.05,-0.23,-0.24,0.03,0.02,0.09,
0.967,0.01,-0.22,-0.15,0.03,0.02,0.09,
0.968,0.01,-0.22,-0.15,0.04,0.01,0.10,
0.968,0.01,-0.22,-0.15,0.04,0.01,0.10,
0.969,0.01,-0.22,-0.15,0.04,0.01,0.10,
0.969,0.01,-0.22,-0.15,0.04,0.01,0.10,
0.97,0.01,-0.22,-0.15,0.04,0.01,0.11,
0.976,-0.03,-0.26,-0.09,0.04,0.01,0.11,
0.977,-0.03,-0.26,-0.09,0.04,0.01,0.11,
0.977,-0.03,-0.26,-0.09,0.05,0.00,0.11,
0.977,-0.03,-0.26,-0.09,0.05,0.00,0.12,
0.986,-0.03,-0.26,-0.09,0.05,0.00,0.12,
0.986,-0.03,-0.26,-0.09,0.05,-0.00,0.12,
0.986,-0.03,-0.27,-0.11,0.05,-0.00,0.12,
0.987,-0.03,-0.27,-0.11,0.05,-0.01,0.12,
0.987,-0.03,-0.27,-0.11,0.05,-0.01,0.13,
0.987,-0.03,-0.27,-0.11,0.05,-0.02,0.13,
0.989,-0.03,-0.27,-0.11,0.05,-0.02,0.13,
0.991,-0.03,-0.27,-0.11,0.05,-0.02,0.13,
0.993,-0.05,-0.21,-0.14,0.05,-0.02,0.13,
0.993,-0.05,-0.21,-0.14,0.05,-0.03,0.14,
1.011,-0.05,-0.21,-0.14,0.05,-0.03,0.14,
1.012,-0.05,-0.21,-0.14,0.05,-0.03,0.14,
1.012,-0.05,-0.21,-0.14,0.05,-0.04,0.14,
1.012,-0.05,-0.21,-0.14,0.05,-0.04,0.14,
1.013,-0.01,-0.20,-0.14,0.05,-0.04,0.14,
1.013,-0.01,-0.20,-0.14,0.05,-0.04,0.14,
1.013,-0.01,-0.20,-0.14,0.05,-0.04,0.14,
1.013,-0.01,-0.20,-0.14,0.05,-0.04,0.14,
1.013,-0.01,-0.20,-0.14,0.05,-0.04,0.14,
1.014,-0.01,-0.20,-0.14,0.04,-0.04,0.13,
1.014,0.05,-0.18,-0.13,0.04,-0.04,0.13,
1.014,0.05,-0.18,-0.13,0.04,-0.05,0.13,
1.018,0.05,-0.18,-0.13,0.04,-0.05,0.13,
1.018,0.05,-0.18,-0.13,0.04,-0.05,0.13,
1.018,0.05,-0.18,-0.13,0.04,-0.05,0.12,
1.021,0.05,-0.18,-0.13,0.04,-0.05,0.12,
1.023,0.06,-0.17,-0.07,0.04,-0.05,0.12,
1.024,0.06,-0.17,-0.07,0.04,-0.04,0.12,
1.026,0.06,-0.17,-0.07,0.04,-0.04,0.11,
1.027,0.06,-0.17,-0.07,0.04,-0.04,0.11,
1.03,0.06,-0.17,-0.07,0.04,-0.04,0.10,
1.033,0.06,-0.17,-0.07,0.05,-0.04,0.10,
1.035,0.12,-0.12,0.02,0.05,-0.04,0.10,
1.035,0.12,-0.12,0.02,0.05,-0.03,0.09,
1.036,0.12,-0.12,0.02,0.05,-0.03,0.09,
1.037,0.12,-0.12,0.02,0.05,-0.02,0.08,
1.039,0.12,-0.12,0.02,0.05,-0.02,0.08,
1.041,0.12,-0.12,0.02,0.04,-0.01,0.07,
1.043,0.14,-0.09,-0.02,0.04,-0.01,0.07,
1.044,0.14,-0.09,-0.02,0.04,-0.01,0.07,
1.047,0.14,-0.09,-0.02,0.03,-0.00,0.06,
1.051,0.14,-0.09,-0.02,0.03,0.00,0.06,
1.052,0.14,-0.09,-0.02,0.03,0.01,0.05,
1.052,0.14,-0.09,-0.02,0.02,0.01,0.05,
1.053,0.12,-0.10,-0.10,0.02,0.01,0.05,
1.053,0.12,-0.10,-0.10,0.02,0.02,0.05,
1.055,0.12,-0.10,-0.10,0.01,0.02,0.04,
1.057,0.12,-0.10,-0.10,0.01,0.02,0.04,
1.059,0.12,-0.10,-0.10,0.01,0.02,0.04,
1.061,0.12,-0.10,-0.10,0.01,0.03,0.04,
1.066,0.03,-0.08,-0.05,0.01,0.03,0.04,
1.068,0.03,-0.08,-0.05,0.00,0.03,0.04,
1.069,0.03,-0.08,-0.05,0.00,0.03,0.04,
1.069,0.03,-0.08,-0.05,0.01,0.03,0.04,
1.07,0.03,-0.08,-0.05,0.00,0.03,0.04,
1.071,0.03,-0.08,-0.05,0.01,0.03,0.04,
1.073,0.01,-0.11,0.02,0.01,0.03,0.04,
1.074,0.01,-0.11,0.02,0.01,0.04,0.04,
1.076,0.01,-0.11,0.02,0.01,0.04,0.04,
1.077,0.01,-0.11,0.02,0.01,0.04,0.04,
1.08,0.01,-0.11,0.02,0.01,0.04,0.04,
1.082,0.01,-0.11,0.02,0.01,0.03,0.04,
1.084,-0.01,-0.12,0.05,0.01,0.03,0.04,
1.085,-0.01,-0.12,0.05,0.02,0.03,0.04,
1.117,-0.01,-0.12,0.05,0.03,0.03,0.04,
1.117,-0.01,-0.12,0.05,0.03,0.03,0.05,
1.118,-0.01,-0.12,0.05,0.03,0.03,0.05,
1.118,-0.01,-0.12,0.05,0.03,0.02,0.06,
1.118,-0.09,-0.16,0.06,0.03,0.02,0.06,
1.119,-0.09,-0.16,0.06,0.04,0.02,0.06,
1.119,-0.09,-0.16,0.06,0.05,0.01,0.06,
1.12,-0.09,-0.16,0.06,0.05,0.00,0.06,
1.12,-0.09,-0.16,0.06,0.05,-0.00,0.07,
1.121,-0.09,-0.16,0.06,0.05,-0.01,0.07,
1.121,-0.12,-0.16,-0.01,0.05,-0.01,0.07,
1.121,-0.12,-0.16,-0.01,0.06,-0.01,0.07,
1.122,-0.12,-0.16,-0.01,0.06,-0.02,0.07,
1.122,-0.12,-0.16,-0.01,0.06,-0.02,0.08,
1.123,-0.12,-0.16,-0.01,0.07,-0.03,0.08,
1.123,-0.12,-0.16,-0.01,0.07,-0.03,0.08,
1.124,-0.09,-0.16,-0.12,0.07,-0.03,0.08,
1.124,-0.09,-0.16,-0.12,0.07,-0.04,0.08,
1.124,-0.09,-0.16,-0.12,0.07,-0.04,0.08,
1.125,-0.09,-0.16,-0.12,0.07,-0.05,0.08,
1.125,-0.09,-0.16,-0.12,0.07,-0.05,0.08,
1.126,-0.09,-0.16,-0.12,0.07,-0.06,0.08,
1.126,-0.03,-0.15,-0.22,0.07,-0.06,0.08,
1.126,-0.03,-0.15,-0.22,0.07,-0.06,0.08,
1.127,-0.03,-0.15,-0.22,0.07,-0.07,0.08,
1.127,-0.03,-0.15,-0.22,0.07,-0.07,0.08,
1.13,-0.03,-0.15,-0.22,0.07,-0.08,0.08,
1.131,-0.03,-0.15,-0.22,0.06,-0.08,0.07,
1.135,-0.01,-0.10,-0.30,0.06,-0.08,0.07,
1.136,-0.01,-0.10,-0.30,0.06,-0.09,0.07,
1.136,-0.01,-0.10,-0.30,0.06,-0.09,0.07,
1.137,-0.01,-0.10,-0.30,0.05,-0.09,0.07,
1.141,-0.01,-0.10,-0.30,0.05,-0.10,0.06,
1.141,-0.01,-0.10,-0.30,0.04,-0.10,0.06,
1.144,-0.02,-0.06,-0.32,0.04,-0.10,0.06,
1.145,-0.02,-0.06,-0.32,0.04,-0.10,0.06,
1.145,-0.02,-0.06,-0.32,0.03,-0.09,0.05,
1.154,-0.02,-0.06,-0.32,0.03,-0.09,0.05,
1.155,-0.02,-0.06,-0.32,0.03,-0.08,0.05,
1.156,-0.02,-0.06,-0.32,0.02,-0.08,0.04,
1.156,0.01,-0.07,-0.23,0.02,-0.08,0.04,
1.157,0.01,-0.07,-0.23,0.02,-0.07,0.04,
1.157,0.01,-0.07,-0.23,0.01,-0.06,0.04,
1.157,0.01,-0.07,-0.23,0.01,-0.06,0.04,
1.159,0.01,-0.07,-0.23,0.01,-0.05,0.04,
1.177,0.01,-0.07,-0.23,0.01,-0.04,0.04,
1.178,-0.04,-0.14,-0.11,0.01,-0.04,0.04,
1.179,-0.04,-0.14,-0.11,0.00,-0.04,0.03,
1.179,-0.04,-0.14,-0.11,0.00,-0.02,0.03,
1.179,-0.04,-0.14,-0.11,0.00,-0.02,0.03,
1.18,-0.04,-0.14,-0.11,-0.00,-0.01,0.03,
1.18,-0.04,-0.14,-0.11,-0.00,-0.00,0.03,
1.18,-0.05,-0.13,-0.03,-0.00,-0.00,0.03,
1.181,-0.05,-0.13,-0.03,-0.00,0.01,0.03,
1.181,-0.05,-0.13,-0.03,-0.00,0.02,0.02,
1.181,-0.05,-0.13,-0.03,-0.00,0.02,0.02,
1.182,-0.05,-0.13,-0.03,-0.01,0.03,0.03,
1.182,-0.05,-0.13,-0.03,-0.01,0.04,0.02,
1.183,-0.04,-0.13,-0.05,-0.01,0.04,0.02,
1.184,-0.04,-0.13,-0.05,-0.01,0.04,0.02,
1.186,-0.04,-0.13,-0.05,-0.01,0.05,0.03,
1.187,-0.04,-0.13,-0.05,-0.01,0.05,0.03,
1.189,-0.04,-0.13,-0.05,-0.01,0.05,0.03,
1.191,-0.04,-0.13,-0.05,-0.01,0.05,0.03,
1.193,-0.06,-0.14,-0.11,-0.01,0.05,0.03,
1.193,-0.06,-0.14,-0.11,-0.01,0.05,0.03,
1.196,-0.06,-0.14,-0.11,-0.01,0.06,0.03,
1.197,-0.06,-0.14,-0.11,-0.01,0.06,0.03,
1.199,-0.06,-0.14,-0.11,-0.01,0.06,0.03,
1.204,-0.06,-0.14,-0.11,-0.02,0.06,0.04,
1.205,-0.11,-0.13,-0.20,-0.02,0.06,0.04,
1.205,-0.11,-0.13,-0.20,-0.02,0.05,0.04,
1.206,-0.11,-0.13,-0.20,-0.02,0.05,0.05,
1.207,-0.11,-0.13,-0.20,-0.02,0.05,0.05,
1.209,-0.11,-0.13,-0.20,-0.02,0.04,0.05,
1.212,-0.11,-0.13,-0.20,-0.02,0.04,0.05,
1.213,-0.09,-0.13,-0.28,-0.02,0.04,0.05,
1.214,-0.09,-0.13,-0.28,-0.02,0.03,0.05,
1.216,-0.09,-0.13,-0.28,-0.02,0.02,0.05,
1.217,-0.09,-0.13,-0.28,-0.02,0.01,0.05,
1.219,-0.09,-0.13,-0.28,-0.02,0.00,0.05,
1.221,-0.09,-0.13,-0.28,-0.02,-0.00,0.05,
1.222,-0.05,-0.10,-0.26,-0.02,-0.00,0.05,
1.223,-0.05,-0.10,-0.26,-0.01,-0.01,0.05,
1.225,-0.05,-0.10,-0.26,-0.01,-0.03,0.05,
1.228,-0.05,-0.10,-0.26,-0.01,-0.03,0.05,
1.23,-0.05,-0.10,-0.26,-0.01,-0.04,0.05,
1.231,-0.05,-0.10,-0.26,-0.01,-0.06,0.04,
1.233,-0.04,-0.10,-0.23,-0.01,-0.06,0.04,
1.234,-0.04,-0.10,-0.23,-0.00,-0.06,0.04,
1.236,-0.04,-0.10,-0.23,0.00,-0.08,0.04,
1.236,-0.04,-0.10,-0.23,0.00,-0.09,0.04,
1.238,-0.04,-0.10,-0.23,0.01,-0.10,0.03,
1.24,-0.04,-0.10,-0.23,0.01,-0.10,0.03,
1.243,-0.02,-0.11,-0.20,0.01,-0.10,0.03,
1.243,-0.02,-0.11,-0.20,0.01,-0.11,0.03,
1.255,-0.02,-0.11,-0.20,0.01,-0.12,0.02,
1.256,-0.02,-0.11,-0.20,0.01,-0.12,0.02,
1.256,-0.02,-0.11,-0.20,0.01,-0.12,0.01,
1.257,-0.02,-0.11,-0.20,0.01,-0.13,0.01,
1.285,-0.02,-0.11,-0.16,0.01,-0.13,0.01,
1.286,-0.02,-0.11,-0.16,0.01,-0.13,0.01,
1.286,-0.02,-0.11,-0.16,0.02,-0.13,0.00,
1.287,-0.02,-0.11,-0.16,0.02,-0.14,0.00,
1.287,-0.02,-0.11,-0.16,0.01,-0.14,-0.00,
1.288,-0.02,-0.11,-0.16,0.01,-0.13,-0.00,
1.288,-0.07,-0.12,-0.14,0.01,-0.13,-0.00,
1.288,-0.07,-0.12,-0.14,0.01,-0.13,-0.00,
1.289,-0.07,-0.12,-0.14,0.00,-0.12,-0.00,
1.289,-0.07,-0.12,-0.14,0.00,-0.11,-0.00,
1.289,-0.07,-0.12,-0.14,0.00,-0.11,-0.01,
1.289,-0.07,-0.12,-0.14,-0.01,-0.10,-0.01,
1.29,-0.08,-0.15,-0.14,-0.01,-0.10,-0.01,
1.29,-0.08,-0.15,-0.14,-0.02,-0.09,-0.01,
1.29,-0.08,-0.15,-0.14,-0.03,-0.07,-0.00,
1.291,-0.08,-0.15,-0.14,-0.03,-0.07,-0.00,
1.291,-0.08,-0.15,-0.14,-0.04,-0.05,-0.00,
1.291,-0.08,-0.15,-0.14,-0.04,-0.05,-0.00,
1.291,-0.09,-0.21,-0.11,-0.04,-0.05,-0.00,
1.292,-0.09,-0.21,-0.11,-0.05,-0.04,-0.00,
1.292,-0.09,-0.21,-0.11,-0.06,-0.02,0.00,
1.292,-0.09,-0.21,-0.11,-0.06,-0.02,0.00,
1.292,-0.09,-0.21,-0.11,-0.06,-0.01,0.01,
1.293,-0.09,-0.21,-0.11,-0.06,0.00,0.01,
1.293,-0.16,-0.21,0.07,-0.06,0.00,0.01,
1.293,-0.16,-0.21,0.07,-0.07,0.01,0.01,
1.296,-0.16,-0.21,0.07,-0.07,0.03,0.02,
1.296,-0.16,-0.21,0.07,-0.07,0.03,0.02,
1.299,-0.16,-0.21,0.07,-0.07,0.04,0.03,
1.3,-0.16,-0.21,0.07,-0.07,0.05,0.03,
1.302,-0.23,-0.24,0.21,-0.07,0.05,0.03,
1.303,-0.23,-0.24,0.21,-0.07,0.05,0.04,
1.306,-0.23,-0.24,0.21,-0.06,0.06,0.04,
1.307,-0.23,-0.24,0.21,-0.06,0.06,0.05,
1.309,-0.23,-0.24,0.21,-0.06,0.06,0.05,
1.312,-0.23,-0.24,0.21,-0.05,0.06,0.06,
1.313,-0.20,-0.23,0.29,-0.05,0.06,0.06,
1.313,-0.20,-0.23,0.29,-0.05,0.07,0.06,
1.316,-0.20,-0.23,0.29,-0.04,0.06,0.06,
1.317,-0.20,-0.23,0.29,-0.04,0.06,0.06,
1.319,-0.20,-0.23,0.29,-0.03,0.05,0.06,
1.321,-0.20,-0.23,0.29,-0.02,0.05,0.07,
1.323,-0.13,-0.20,0.21,-0.02,0.05,0.07,
1.323,-0.13,-0.20,0.21,-0.02,0.05,0.07,
1.328,-0.13,-0.20,0.21,-0.01,0.04,0.06,
1.329,-0.13,-0.20,0.21,-0.01,0.03,0.06,
1.333,-0.13,-0.20,0.21,-0.00,0.02,0.06,
1.334,-0.13,-0.20,0.21,-0.00,0.01,0.06,
1.334,-0.07,-0.14,0.07,-0.00,0.01,0.06,
1.335,-0.07,-0.14,0.07,0.00,0.00,0.06,
1.341,-0.07,-0.14,0.07,0.00,-0.01,0.05,
1.342,-0.07,-0.14,0.07,0.00,-0.02,0.05,
1.342,-0.07,-0.14,0.07,0.01,-0.02,0.04,
1.342,-0.07,-0.14,0.07,0.01,-0.03,0.04,
1.342,-0.03,-0.14,-0.03,0.01,-0.03,0.04,
1.343,-0.03,-0.14,-0.03,0.01,-0.04,0.04,
1.348,-0.03,-0.14,-0.03,0.01,-0.05,0.03,
1.348,-0.03,-0.14,-0.03,0.01,-0.05,0.03,
1.349,-0.03,-0.14,-0.03,0.00,-0.06,0.03,
1.351,-0.03,-0.14,-0.03,-0.00,-0.06,0.02,
1.353,0.01,-0.16,-0.15,-0.00,-0.06,0.02,
1.354,0.01,-0.16,-0.15,-0.01,-0.07,0.02,
1.356,0.01,-0.16,-0.15,-0.02,-0.08,0.01,
1.357,0.01,-0.16,-0.15,-0.02,-0.08,0.01,
1.359,0.01,-0.16,-0.15,-0.02,-0.08,0.01,
1.367,0.01,-0.16,-0.15,-0.03,-0.09,0.01,
1.369,-0.05,-0.18,-0.18,-0.03,-0.09,0.01,
1.37,-0.05,-0.18,-0.18,-0.03,-0.09,0.01,
1.371,-0.05,-0.18,-0.18,-0.03,-0.09,0.01,
1.372,-0.05,-0.18,-0.18,-0.03,-0.09,0.01,
1.373,-0.05,-0.18,-0.18,-0.03,-0.09,0.01,
1.374,-0.05,-0.18,-0.18,-0.04,-0.09,0.01,
1.374,-0.10,-0.19,-0.06,-0.04,-0.09,0.01,
1.374,-0.10,-0.19,-0.06,-0.04,-0.09,0.02,
1.378,-0.10,-0.19,-0.06,-0.04,-0.09,0.02,
1.378,-0.10,-0.19,-0.06,-0.04,-0.09,0.02,
1.38,-0.10,-0.19,-0.06,-0.04,-0.09,0.02,
1.384,-0.10,-0.19,-0.06,-0.04,-0.08,0.02,
1.384,-0.11,-0.24,0.03,-0.04,-0.08,0.02,
1.385,-0.11,-0.24,0.03,-0.04,-0.08,0.03,
1.386,-0.11,-0.24,0.03,-0.04,-0.07,0.03,
1.387,-0.11,-0.24,0.03,-0.05,-0.07,0.03,
1.389,-0.11,-0.24,0.03,-0.05,-0.06,0.03,
1.39,-0.11,-0.24,0.03,-0.05,-0.06,0.03,
1.398,-0.05,-0.26,0.04,-0.05,-0.06,0.03,
1.399,-0.05,-0.26,0.04,-0.05,-0.05,0.03,
1.4,-0.05,-0.26,0.04,-0.06,-0.04,0.04,
1.4,-0.05,-0.26,0.04,-0.06,-0.04,0.03,
1.4,-0.05,-0.26,0.04,-0.06,-0.03,0.04,
1.401,-0.05,-0.26,0.04,-0.06,-0.03,0.04,
1.405,0.03,-0.27,0.02,-0.06,-0.03,0.04,
1.405,0.03,-0.27,0.02,-0.07,-0.02,0.04,
1.406,0.03,-0.27,0.02,-0.07,-0.02,0.04,
1.408,0.03,-0.27,0.02,-0.07,-0.02,0.04,
1.41,0.03,-0.27,0.02,-0.07,-0.01,0.04,
1.42,0.03,-0.27,0.02,-0.07,-0.01,0.04,
1.422,0.08,-0.23,0.05,-0.07,-0.01,0.04,
1.422,0.08,-0.23,0.05,-0.07,-0.01,0.04,
1.423,0.08,-0.23,0.05,-0.07,-0.01,0.04,
1.423,0.08,-0.23,0.05,-0.06,-0.01,0.04,
1.457,0.08,-0.23,0.05,-0.07,-0.01,0.03,
1.457,0.08,-0.23,0.05,-0.06,-0.02,0.03,
1.457,0.09,-0.23,0.12,-0.06,-0.02,0.03,
1.457,0.09,-0.23,0.12,-0.06,-0.02,0.03,
1.458,0.09,-0.23,0.12,-0.06,-0.02,0.03,
1.458,0.09,-0.23,0.12,-0.05,-0.02,0.03,
1.458,0.09,-0.23,0.12,-0.04,-0.02,0.03,
1.459,0.09,-0.23,0.12,-0.04,-0.03,0.03,
1.459,0.12,-0.27,0.19,-0.04,-0.03,0.03,
1.459,0.12,-0.27,0.19,-0.04,-0.03,0.03,
1.459,0.12,-0.27,0.19,-0.03,-0.04,0.03,
1.46,0.12,-0.27,0.19,-0.02,-0.04,0.03,
1.46,0.12,-0.27,0.19,-0.02,-0.04,0.03,
1.46,0.12,-0.27,0.19,-0.01,-0.05,0.03,
1.46,0.09,-0.27,0.21,-0.01,-0.05,0.03,
1.461,0.09,-0.27,0.21,-0.01,-0.05,0.03,
1.461,0.09,-0.27,0.21,0.00,-0.06,0.03,
1.461,0.09,-0.27,0.21,0.01,-0.06,0.03,
1.462,0.09,-0.27,0.21,0.01,-0.07,0.03,
1.462,0.09,-0.27,0.21,0.02,-0.07,0.03,
1.462,0.03,-0.26,0.16,0.02,-0.07,0.03,
1.462,0.03,-0.26,0.16,0.02,-0.08,0.03,
1.463,0.03,-0.26,0.16,0.02,-0.08,0.03,
1.463,0.03,-0.26,0.16,0.02,-0.08,0.03,
1.463,0.03,-0.26,0.16,0.03,-0.09,0.03,
1.463,0.03,-0.26,0.16,0.03,-0.09,0.03,
1.464,-0.02,-0.31,0.08,0.03,-0.09,0.03,
1.464,-0.02,-0.31,0.08,0.02,-0.09,0.03,
1.466,-0.02,-0.31,0.08,0.03,-0.09,0.04,
1.467,-0.02,-0.31,0.08,0.02,-0.09,0.04,
1.469,-0.02,-0.31,0.08,0.02,-0.10,0.04,
1.471,-0.02,-0.31,0.08,0.02,-0.09,0.04,
1.473,-0.05,-0.34,0.02,0.02,-0.09,0.04,
1.473,-0.05,-0.34,0.02,0.02,-0.09,0.04,
1.476,-0.05,-0.34,0.02,0.02,-0.09,0.04,
1.477,-0.05,-0.34,0.02,0.02,-0.09,0.04,
1.479,-0.05,-0.34,0.02,0.02,-0.09,0.05,
1.481,-0.05,-0.34,0.02,0.02,-0.09,0.05,
1.483,-0.06,-0.37,0.09,0.02,-0.09,0.05,
1.483,-0.06,-0.37,0.09,0.02,-0.09,0.05,
1.485,-0.06,-0.37,0.09,0.02,-0.08,0.05,
1.486,-0.06,-0.37,0.09,0.02,-0.08,0.05,
1.489,-0.06,-0.37,0.09,0.02,-0.07,0.06,
1.491,-0.06,-0.37,0.09,0.02,-0.07,0.06,
1.493,-0.05,-0.38,0.19,0.02,-0.07,0.06,
1.494,-0.05,-0.38,0.19,0.02,-0.07,0.06,
1.496,-0.05,-0.38,0.19,0.03,-0.06,0.06,
1.497,-0.05,-0.38,0.19,0.03,-0.06,0.06,
1.499,-0.05,-0.38,0.19,0.03,-0.05,0.06,
1.501,-0.05,-0.38,0.19,0.03,-0.05,0.06,
1.503,0.00,-0.42,0.22,0.03,-0.05,0.06,
1.504,0.00,-0.42,0.22,0.04,-0.04,0.07,
1.506,0.00,-0.42,0.22,0.04,-0.04,0.07,
1.507,0.00,-0.42,0.22,0.04,-0.04,0.07,
1.523,0.00,-0.42,0.22,0.04,-0.03,0.07,
1.524,0.00,-0.42,0.22,0.04,-0.03,0.07,
1.525,0.02,-0.39,0.21,0.04,-0.03,0.07,
1.525,0.02,-0.39,0.21,0.04,-0.02,0.07,
1.525,0.02,-0.39,0.21,0.04,-0.02,0.07,
1.526,0.02,-0.39,0.21,0.04,-0.02,0.07,
1.526,0.02,-0.39,0.21,0.04,-0.01,0.08,
1.526,0.02,-0.39,0.21,0.04,-0.01,0.08,
1.526,0.08,-0.34,0.11,0.04,-0.01,0.08,
1.527,0.08,-0.34,0.11,0.04,-0.01,0.08,
1.527,0.08,-0.34,0.11,0.03,-0.00,0.08,
1.527,0.08,-0.34,0.11,0.03,-0.00,0.07,
1.545,0.08,-0.34,0.11,0.03,0.00,0.07,
1.545,0.08,-0.34,0.11,0.03,0.01,0.07,
1.546,0.21,-0.26,0.05,0.03,0.01,0.07,
1.546,0.21,-0.26,0.05,0.03,0.01,0.07,
1.546,0.21,-0.26,0.05,0.02,0.01,0.06,
1.547,0.21,-0.26,0.05,0.02,0.01,0.06,
1.547,0.21,-0.26,0.05,0.02,0.02,0.05,
1.547,0.21,-0.26,0.05,0.02,0.02,0.05,
1.547,0.30,-0.23,0.02,0.02,0.02,0.05,
1.548,0.30,-0.23,0.02,0.02,0.02,0.04,
1.548,0.30,-0.23,0.02,0.02,0.02,0.04,
1.548,0.30,-0.23,0.02,0.02,0.02,0.03,
1.549,0.30,-0.23,0.02,0.02,0.02,0.03,
1.551,0.30,-0.23,0.02,0.02,0.02,0.02,
1.553,0.33,-0.19,0.04,0.02,0.02,0.02,
1.553,0.33,-0.19,0.04,0.03,0.01,0.02,
1.555,0.33,-0.19,0.04,0.03,0.00,0.01,
1.557,0.33,-0.19,0.04,0.04,0.00,0.01,
1.559,0.33,-0.19,0.04,0.04,-0.00,0.01,
1.561,0.33,-0.19,0.04,0.04,-0.01,0.01,
1.563,0.24,-0.22,0.10,0.04,-0.01,0.01,
1.563,0.24,-0.22,0.10,0.05,-0.01,0.01,
1.566,0.24,-0.22,0.10,0.06,-0.03,0.00,
1.567,0.24,-0.22,0.10,0.06,-0.03,0.00,
1.569,0.24,-0.22,0.10,0.06,-0.04,0.00,
1.57,0.24,-0.22,0.10,0.07,-0.04,0.00,
1.573,0.16,-0.26,0.09,0.07,-0.04,0.00,
1.573,0.16,-0.26,0.09,0.07,-0.05,-0.00,
1.576,0.16,-0.26,0.09,0.08,-0.06,-0.00,
1.577,0.16,-0.26,0.09,0.08,-0.07,-0.00,
1.58,0.16,-0.26,0.09,0.08,-0.08,-0.00,
1.581,0.16,-0.26,0.09,0.09,-0.09,-0.01,
1.583,0.13,-0.27,-0.02,0.09,-0.09,-0.01,
1.583,0.13,-0.27,-0.02,0.09,-0.09,-0.01,
1.612,0.13,-0.27,-0.02,0.09,-0.11,-0.01,
1.613,0.13,-0.27,-0.02,0.09,-0.11,-0.01,
1.613,0.13,-0.27,-0.02,0.08,-0.11,-0.01,
1.614,0.13,-0.27,-0.02,0.08,-0.12,-0.01,
1.614,0.10,-0.28,-0.15,0.08,-0.12,-0.01,
1.614,0.10,-0.28,-0.15,0.08,-0.12,-0.01,
1.615,0.10,-0.28,-0.15,0.07,-0.13,-0.01,
1.615,0.10,-0.28,-0.15,0.07,-0.13,-0.01,
1.616,0.10,-0.28,-0.15,0.07,-0.13,-0.01,
1.617,0.10,-0.28,-0.15,0.06,-0.13,-0.01,
1.617,0.07,-0.29,-0.13,0.06,-0.13,-0.01,
1.618,0.07,-0.29,-0.13,0.06,-0.13,-0.02,
1.618,0.07,-0.29,-0.13,0.06,-0.13,-0.02,
1.618,0.07,-0.29,-0.13,0.05,-0.13,-0.02,
1.619,0.07,-0.29,-0.13,0.04,-0.12,-0.02,
1.619,0.07,-0.29,-0.13,0.04,-0.12,-0.02,
1.62,0.03,-0.26,-0.06,0.04,-0.12,-0.02,
1.62,0.03,-0.26,-0.06,0.04,-0.11,-0.02,
1.621,0.03,-0.26,-0.06,0.03,-0.11,-0.02,
1.621,0.03,-0.26,-0.06,0.03,-0.10,-0.02,
1.621,0.03,-0.26,-0.06,0.03,-0.10,-0.02,
1.622,0.03,-0.26,-0.06,0.02,-0.09,-0.02,
1.625,0.01,-0.24,-0.02,0.02,-0.09,-0.02,
1.625,0.01,-0.24,-0.02,0.02,-0.08,-0.02,
1.626,0.01,-0.24,-0.02,0.02,-0.07,-0.02,
1.626,0.01,-0.24,-0.02,0.02,-0.06,-0.02,
1.629,0.01,-0.24,-0.02,0.01,-0.05,-0.02,
1.633,0.01,-0.24,-0.02,0.01,-0.04,-0.02,
1.634,0.08,-0.23,0.03,0.01,-0.04,-0.02,
1.634,0.08,-0.23,0.03,0.01,-0.04,-0.02,
1.637,0.08,-0.23,0.03,0.01,-0.02,-0.02,
1.638,0.08,-0.23,0.03,0.01,-0.02,-0.02,
1.64,0.08,-0.23,0.03,0.00,-0.02,-0.03,
1.64,0.08,-0.23,0.03,0.01,-0.01,-0.03,
1.643,0.10,-0.17,0.11,0.01,-0.01,-0.03,
1.645,0.10,-0.17,0.11,0.01,-0.00,-0.03,
1.647,0.10,-0.17,0.11,0.01,0.01,-0.03,
1.649,0.10,-0.17,0.11,0.01,0.01,-0.04,
1.649,0.10,-0.17,0.11,0.01,0.01,-0.03,
1.65,0.10,-0.17,0.11,0.01,0.01,-0.04,
1.652,0.06,-0.11,0.08,0.01,0.01,-0.04,
1.653,0.06,-0.11,0.08,0.01,0.02,-0.04,
1.655,0.06,-0.11,0.08,0.01,0.01,-0.04,
1.656,0.06,-0.11,0.08,0.01,0.01,-0.04,
1.669,0.06,-0.11,0.08,0.01,0.01,-0.04,
1.669,0.06,-0.11,0.08,0.02,0.01,-0.04,
1.67,0.04,-0.05,-0.05,0.02,0.01,-0.04,
1.67,0.04,-0.05,-0.05,0.02,0.00,-0.04,
1.67,0.04,-0.05,-0.05,0.02,-0.00,-0.05,
1.671,0.04,-0.05,-0.05,0.02,-0.01,-0.05,
1.671,0.04,-0.05,-0.05,0.02,-0.01,-0.05,
1.671,0.04,-0.05,-0.05,0.03,-0.02,-0.05,
1.688,0.08,-0.00,-0.12,0.03,-0.02,-0.05,
1.689,0.08,-0.00,-0.12,0.03,-0.02,-0.06,
1.69,0.08,-0.00,-0.12,0.03,-0.04,-0.06,
1.69,0.08,-0.00,-0.12,0.04,-0.04,-0.06,
1.691,0.08,-0.00,-0.12,0.04,-0.06,-0.06,
1.691,0.08,-0.00,-0.12,0.04,-0.07,-0.06,
1.692,0.01,-0.01,-0.15,0.04,-0.07,-0.06,
1.692,0.01,-0.01,-0.15,0.05,-0.08,-0.06,
1.693,0.01,-0.01,-0.15,0.05,-0.10,-0.06,
1.693,0.01,-0.01,-0.15,0.06,-0.11,-0.06,
1.693,0.01,-0.01,-0.15,0.06,-0.13,-0.06,
1.694,0.01,-0.01,-0.15,0.06,-0.14,-0.06,
1.695,-0.14,-0.05,-0.22,0.06,-0.14,-0.06,
1.696,-0.14,-0.05,-0.22,0.06,-0.15,-0.06,
1.7,-0.14,-0.05,-0.22,0.06,-0.18,-0.05,
1.701,-0.14,-0.05,-0.22,0.06,-0.19,-0.05,
1.701,-0.14,-0.05,-0.22,0.07,-0.20,-0.05,
1.704,-0.14,-0.05,-0.22,0.07,-0.23,-0.04,
1.706,-0.14,-0.05,-0.22,0.07,-0.23,-0.04,
1.707,-0.25,-0.09,-0.21,0.07,-0.23,-0.04,
1.708,-0.25,-0.09,-0.21,0.07,-0.24,-0.04,
1.709,-0.25,-0.09,-0.21,0.07,-0.24,-0.03,
1.71,-0.25,-0.09,-0.21,0.07,-0.25,-0.03,
1.714,-0.25,-0.09,-0.21,0.07,-0.26,-0.03,
1.716,-0.24,-0.13,-0.15,0.07,-0.26,-0.03,
1.717,-0.24,-0.13,-0.15,0.07,-0.26,-0.03,
1.717,-0.24,-0.13,-0.15,0.07,-0.26,-0.03,
1.718,-0.24,-0.13,-0.15,0.07,-0.26,-0.03,
1.719,-0.24,-0.13,-0.15,0.07,-0.26,-0.03,
1.721,-0.24,-0.13,-0.15,0.07,-0.25,-0.02,
1.725,-0.17,-0.11,-0.03,0.07,-0.25,-0.02,
1.725,-0.17,-0.11,-0.03,0.07,-0.25,-0.03,
1.726,-0.17,-0.11,-0.03,0.07,-0.23,-0.03,
1.729,-0.17,-0.11,-0.03,0.07,-0.23,-0.03,
1.731,-0.17,-0.11,-0.03,0.07,-0.21,-0.03,
1.734,-0.17,-0.11,-0.03,0.06,-0.19,-0.03,
1.735,-0.10,-0.12,0.12,0.06,-0.19,-0.03,
1.735,-0.10,-0.12,0.12,0.06,-0.18,-0.03,
1.738,-0.10,-0.12,0.12,0.06,-0.16,-0.03,
1.739,-0.10,-0.12,0.12,0.06,-0.15,-0.03,
1.739,-0.10,-0.12,0.12,0.06,-0.13,-0.03,
1.743,-0.10,-0.12,0.12,0.05,-0.11,-0.04,
1.743,-0.03,-0.11,0.17,0.05,-0.11,-0.04,
1.744,-0.03,-0.11,0.17,0.05,-0.09,-0.04,
1.747,-0.03,-0.11,0.17,0.04,-0.06,-0.04,
1.749,-0.03,-0.11,0.17,0.04,-0.05,-0.04,
1.749,-0.03,-0.11,0.17,0.04,-0.03,-0.04,
1.751,-0.03,-0.11,0.17,0.03,-0.02,-0.04,
1.782,0.01,-0.07,0.09,0.03,-0.02,-0.04,
1.783,0.01,-0.07,0.09,0.03,-0.00,-0.05,
1.783,0.01,-0.07,0.09,0.02,0.02,-0.05,
1.784,0.01,-0.07,0.09,0.02,0.02,-0.05,
1.784,0.01,-0.07,0.09,0.01,0.03,-0.05,
1.785,0.01,-0.07,0.09,0.00,0.04,-0.05,
1.785,-0.03,-0.06,-0.08,0.00,0.04,-0.05,
1.785,-0.03,-0.06,-0.08,-0.00,0.05,-0.05,
1.786,-0.03,-0.06,-0.08,-0.01,0.06,-0.05,
1.786,-0.03,-0.06,-0.08,-0.01,0.06,-0.05,
1.787,-0.03,-0.06,-0.08,-0.01,0.06,-0.05,
1.787,-0.03,-0.06,-0.08,-0.01,0.05,-0.05,
1.788,-0.06,-0.05,-0.09,-0.01,0.05,-0.05,
1.788,-0.06,-0.05,-0.09,-0.01,0.05,-0.05,
1.788,-0.06,-0.05,-0.09,-0.00,0.04,-0.05,
1.789,-0.06,-0.05,-0.09,0.00,0.04,-0.06,
1.789,-0.06,-0.05,-0.09,0.00,0.02,-0.06,
1.79,-0.06,-0.05,-0.09,0.01,0.01,-0.06,
1.79,-0.05,-0.00,-0.08,0.01,0.01,-0.06,
1.79,-0.05,-0.00,-0.08,0.01,0.00,-0.06,
1.791,-0.05,-0.00,-0.08,0.02,-0.02,-0.06,
1.791,-0.05,-0.00,-0.08,0.02,-0.03,-0.07,
1.792,-0.05,-0.00,-0.08,0.03,-0.04,-0.07,
1.792,-0.05,-0.00,-0.08,0.03,-0.06,-0.07,
1.793,-0.06,-0.01,-0.11,0.03,-0.06,-0.07,
1.793,-0.06,-0.01,-0.11,0.04,-0.07,-0.07,
1.796,-0.06,-0.01,-0.11,0.05,-0.10,-0.08,
1.797,-0.06,-0.01,-0.11,0.05,-0.11,-0.08,
1.801,-0.06,-0.01,-0.11,0.06,-0.12,-0.08,
1.801,-0.06,-0.01,-0.11,0.06,-0.13,-0.08,
1.805,-0.04,-0.02,-0.14,0.06,-0.13,-0.08,
1.805,-0.04,-0.02,-0.14,0.06,-0.15,-0.08,
1.806,-0.04,-0.02,-0.14,0.07,-0.17,-0.09,
1.808,-0.04,-0.02,-0.14,0.07,-0.18,-0.09,
1.809,-0.04,-0.02,-0.14,0.07,-0.19,-0.10,
1.814,-0.04,-0.02,-0.14,0.07,-0.21,-0.10,
1.815,-0.02,-0.02,-0.23,0.07,-0.21,-0.10,
1.815,-0.02,-0.02,-0.23,0.07,-0.22,-0.10,
1.818,-0.02,-0.02,-0.23,0.06,-0.23,-0.11,
1.818,-0.02,-0.02,-0.23,0.06,-0.23,-0.11,
1.818,-0.02,-0.02,-0.23,0.06,-0.23,-0.11,
1.822,-0.02,-0.02,-0.23,0.06,-0.23,-0.11,
1.823,-0.10,-0.10,-0.24,0.06,-0.23,-0.11,
1.823,-0.10,-0.10,-0.24,0.06,-0.22,-0.11,
1.831,-0.10,-0.10,-0.24,0.05,-0.21,-0.10,
1.832,-0.10,-0.10,-0.24,0.05,-0.21,-0.10,
1.832,-0.10,-0.10,-0.24,0.05,-0.20,-0.10,
1.832,-0.10,-0.10,-0.24,0.05,-0.18,-0.10,
1.833,-0.23,-0.17,-0.14,0.05,-0.18,-0.10,
1.833,-0.23,-0.17,-0.14,0.05,-0.17,-0.09,
1.836,-0.23,-0.17,-0.14,0.04,-0.14,-0.09,
1.837,-0.23,-0.17,-0.14,0.04,-0.13,-0.09,
1.84,-0.23,-0.17,-0.14,0.04,-0.11,-0.08,
1.849,-0.23,-0.17,-0.14,0.03,-0.09,-0.08,
1.849,-0.33,-0.20,-0.13,0.03,-0.09,-0.08,
1.849,-0.33,-0.20,-0.13,0.02,-0.07,-0.08,
1.85,-0.33,-0.20,-0.13,0.01,-0.04,-0.07,
1.85,-0.33,-0.20,-0.13,0.01,-0.04,-0.07,
1.85,-0.33,-0.20,-0.13,-0.00,-0.02,-0.07,
1.851,-0.33,-0.20,-0.13,-0.01,0.00,-0.06,
1.852,-0.38,-0.21,-0.21,-0.01,0.00,-0.06,
1.853,-0.38,-0.21,-0.21,-0.02,0.02,-0.06,
1.856,-0.38,-0.21,-0.21,-0.03,0.05,-0.05,
1.859,-0.38,-0.21,-0.21,-0.03,0.06,-0.04,
1.86,-0.38,-0.21,-0.21,-0.04,0.08,-0.04,
1.861,-0.38,-0.21,-0.21,-0.05,0.09,-0.03,
1.863,-0.40,-0.24,-0.31,-0.05,0.09,-0.03,
1.863,-0.40,-0.24,-0.31,-0.06,0.11,-0.02,
1.866,-0.40,-0.24,-0.31,-0.07,0.12,-0.02,
1.867,-0.40,-0.24,-0.31,-0.07,0.13,-0.01,
1.869,-0.40,-0.24,-0.31,-0.08,0.13,-0.01,
1.871,-0.40,-0.24,-0.31,-0.08,0.13,-0.00,
1.873,-0.37,-0.17,-0.35,-0.08,0.13,-0.00,
1.873,-0.37,-0.17,-0.35,-0.08,0.13,0.00,
1.876,-0.37,-0.17,-0.35,-0.08,0.12,0.01,
1.877,-0.37,-0.17,-0.35,-0.08,0.12,0.01,
1.879,-0.37,-0.17,-0.35,-0.08,0.11,0.01,
1.881,-0.37,-0.17,-0.35,-0.08,0.11,0.02,
1.883,-0.36,-0.09,-0.34,-0.08,0.11,0.02,
1.883,-0.36,-0.09,-0.34,-0.08,0.10,0.02,
1.886,-0.36,-0.09,-0.34,-0.08,0.08,0.02,
1.887,-0.36,-0.09,-0.34,-0.08,0.07,0.02,
1.889,-0.36,-0.09,-0.34,-0.07,0.06,0.02,
1.891,-0.36,-0.09,-0.34,-0.07,0.05,0.02,
1.893,-0.20,-0.09,-0.26,-0.07,0.05,0.02,
1.894,-0.20,-0.09,-0.26,-0.06,0.03,0.02,
1.896,-0.20,-0.09,-0.26,-0.05,0.01,0.02,
1.897,-0.20,-0.09,-0.26,-0.04,0.01,0.01,
1.899,-0.20,-0.09,-0.26,-0.04,-0.01,0.01,
1.901,-0.20,-0.09,-0.26,-0.03,-0.01,0.01,
1.903,-0.00,-0.05,-0.09,-0.03,-0.01,0.01,
1.903,-0.00,-0.05,-0.09,-0.02,-0.03,0.00,
1.906,-0.00,-0.05,-0.09,-0.01,-0.05,-0.01,
1.907,-0.00,-0.05,-0.09,-0.01,-0.05,-0.01,
1.909,-0.00,-0.05,-0.09,0.00,-0.06,-0.02,
1.911,-0.00,-0.05,-0.09,0.01,-0.07,-0.03,
1.913,0.14,-0.08,0.01,0.01,-0.07,-0.03,
1.913,0.14,-0.08,0.01,0.01,-0.08,-0.03,
1.916,0.14,-0.08,0.01,0.02,-0.09,-0.04,
1.918,0.14,-0.08,0.01,0.03,-0.09,-0.05,
1.95,0.14,-0.08,0.01,0.03,-0.09,-0.05,
1.95,0.14,-0.08,0.01,0.04,-0.09,-0.05,
1.95,0.12,-0.11,0.06,0.04,-0.09,-0.05,
1.951,0.12,-0.11,0.06,0.04,-0.09,-0.06,
1.951,0.12,-0.11,0.06,0.04,-0.08,-0.06,
1.952,0.12,-0.11,0.06,0.04,-0.08,-0.06,
1.952,0.12,-0.11,0.06,0.04,-0.07,-0.06,
1.953,0.12,-0.11,0.06,0.03,-0.07,-0.06,
1.953,-0.06,-0.18,-0.04,0.03,-0.07,-0.06,
1.954,-0.06,-0.18,-0.04,0.03,-0.06,-0.06,
1.954,-0.06,-0.18,-0.04,0.02,-0.04,-0.05,
1.954,-0.06,-0.18,-0.04,0.02,-0.04,-0.05,
1.955,-0.06,-0.18,-0.04,0.02,-0.03,-0.05,
1.955,-0.06,-0.18,-0.04,0.01,-0.02,-0.04,
1.956,-0.30,-0.20,-0.13,0.01,-0.02,-0.04,
1.956,-0.30,-0.20,-0.13,0.00,-0.01,-0.03,
1.957,-0.30,-0.20,-0.13,-0.00,0.01,-0.02,
1.957,-0.30,-0.20,-0.13,-0.01,0.02,-0.02,
1.957,-0.30,-0.20,-0.13,-0.01,0.03,-0.01,
1.958,-0.30,-0.20,-0.13,-0.02,0.04,-0.00,
1.958,-0.40,-0.22,-0.21,-0.02,0.04,-0.00,
1.959,-0.40,-0.22,-0.21,-0.02,0.04,0.00,
1.959,-0.40,-0.22,-0.21,-0.03,0.05,0.01,
1.96,-0.40,-0.22,-0.21,-0.03,0.05,0.02,
1.96,-0.40,-0.22,-0.21,-0.03,0.06,0.02,
1.96,-0.40,-0.22,-0.21,-0.04,0.06,0.03,
1.973,-0.41,-0.25,-0.26,-0.04,0.06,0.03,
1.974,-0.41,-0.25,-0.26,-0.04,0.06,0.04,
1.974,-0.41,-0.25,-0.26,-0.04,0.06,0.04,
1.975,-0.41,-0.25,-0.26,-0.04,0.05,0.05,
1.975,-0.41,-0.25,-0.26,-0.04,0.05,0.05,
1.975,-0.41,-0.25,-0.26,-0.04,0.05,0.05,
1.976,-0.33,-0.20,-0.28,-0.04,0.05,0.05,
1.976,-0.33,-0.20,-0.28,-0.04,0.04,0.05,
1.977,-0.33,-0.20,-0.28,-0.04,0.04,0.05,
1.984,-0.33,-0.20,-0.28,-0.05,0.04,0.05,
1.985,-0.33,-0.20,-0.28,-0.04,0.03,0.05,
1.986,-0.33,-0.20,-0.28,-0.04,0.03,0.05,
1.986,-0.22,-0.16,-0.31,-0.04,0.03,0.05,
1.991,-0.22,-0.16,-0.31,-0.05,0.02,0.05,
1.991,-0.22,-0.16,-0.31,-0.05,0.02,0.05,
1.991,-0.22,-0.16,-0.31,-0.05,0.02,0.05,
1.992,-0.22,-0.16,-0.31,-0.05,0.01,0.05,
1.992,-0.22,-0.16,-0.31,-0.05,0.01,0.05,
1.995,-0.10,-0.13,-0.28,-0.05,0.01,0.05,
1.996,-0.10,-0.13,-0.28,-0.05,0.00,0.04,
1.997,-0.10,-0.13,-0.28,-0.05,-0.00,0.04,
1.997,-0.10,-0.13,-0.28,-0.05,-0.01,0.04,
1.999,-0.10,-0.13,-0.28,-0.05,-0.01,0.04,
2.001,-0.10,-0.13,-0.28,-0.05,-0.01,0.04,
2.003,-0.01,-0.06,-0.25,-0.05,-0.01,0.04,
2.004,-0.01,-0.06,-0.25,-0.05,-0.02,0.03,
2.007,-0.01,-0.06,-0.25,-0.05,-0.02,0.03,
2.008,-0.01,-0.06,-0.25,-0.06,-0.02,0.03,
2.011,-0.01,-0.06,-0.25,-0.06,-0.03,0.03,
2.011,-0.01,-0.06,-0.25,-0.06,-0.03,0.03,
2.014,0.09,-0.04,-0.19,-0.06,-0.03,0.03,
2.015,0.09,-0.04,-0.19,-0.06,-0.03,0.02,
2.016,0.09,-0.04,-0.19,-0.07,-0.03,0.02,
2.017,0.09,-0.04,-0.19,-0.07,-0.02,0.02,
2.019,0.09,-0.04,-0.19,-0.07,-0.03,0.02,
2.021,0.09,-0.04,-0.19,-0.07,-0.03,0.01,
2.027,0.16,0.01,-0.05,-0.07,-0.03,0.01,
2.03,0.16,0.01,-0.05,-0.07,-0.02,0.01,
2.031,0.16,0.01,-0.05,-0.06,-0.02,0.01,
2.032,0.16,0.01,-0.05,-0.06,-0.02,0.01,
2.032,0.16,0.01,-0.05,-0.06,-0.02,0.00,
2.033,0.16,0.01,-0.05,-0.06,-0.02,0.00,
2.034,0.21,0.05,0.08,-0.06,-0.02,0.00,
2.034,0.21,0.05,0.08,-0.05,-0.02,-0.00,
2.036,0.21,0.05,0.08,-0.05,-0.02,-0.01,
2.037,0.21,0.05,0.08,-0.05,-0.02,-0.01,
2.039,0.21,0.05,0.08,-0.05,-0.02,-0.01,
2.042,0.21,0.05,0.08,-0.04,-0.01,-0.02,
2.045,0.21,0.03,0.14,-0.04,-0.01,-0.02,
2.046,0.21,0.03,0.14,-0.04,-0.01,-0.02,
2.046,0.21,0.03,0.14,-0.04,-0.01,-0.02,
2.047,0.21,0.03,0.14,-0.04,-0.01,-0.02,
2.049,0.21,0.03,0.14,-0.04,-0.01,-0.02,
2.051,0.21,0.03,0.14,-0.04,-0.01,-0.02,
2.053,0.13,0.00,0.07,-0.04,-0.01,-0.02,
2.054,0.13,0.00,0.07,-0.03,-0.01,-0.02,
2.071,0.13,0.00,0.07,-0.03,-0.01,-0.02,
2.072,0.13,0.00,0.07,-0.03,-0.01,-0.02,
2.072,0.13,0.00,0.07,-0.03,-0.01,-0.02,
2.073,0.13,0.00,0.07,-0.03,-0.01,-0.02,
2.073,-0.03,-0.02,0.01,-0.03,-0.01,-0.02,
2.073,-0.03,-0.02,0.01,-0.02,-0.01,-0.01,
2.073,-0.03,-0.02,0.01,-0.02,-0.01,-0.01,
2.074,-0.03,-0.02,0.01,-0.02,-0.01,-0.01,
2.074,-0.03,-0.02,0.01,-0.02,-0.02,-0.01,
2.074,-0.03,-0.02,0.01,-0.02,-0.02,-0.00,
2.075,-0.09,-0.07,-0.09,-0.02,-0.02,-0.00,
2.075,-0.09,-0.07,-0.09,-0.02,-0.02,-0.00,
2.093,-0.09,-0.07,-0.09,-0.02,-0.03,-0.00,
2.093,-0.09,-0.07,-0.09,-0.02,-0.03,0.00,
2.094,-0.09,-0.07,-0.09,-0.02,-0.03,0.00,
2.094,-0.09,-0.07,-0.09,-0.03,-0.03,0.00,
2.094,-0.11,-0.11,-0.20,-0.03,-0.03,0.00,
2.095,-0.11,-0.11,-0.20,-0.03,-0.03,0.01,
2.122,-0.11,-0.11,-0.20,-0.03,-0.04,0.01,
2.123,-0.11,-0.11,-0.20,-0.04,-0.04,0.01,
2.124,-0.11,-0.11,-0.20,-0.04,-0.04,0.01,
2.125,-0.11,-0.11,-0.20,-0.05,-0.04,0.01,
2.125,-0.09,-0.09,-0.29,-0.05,-0.04,0.01,
2.129,-0.09,-0.09,-0.29,-0.05,-0.04,0.01,
2.13,-0.09,-0.09,-0.29,-0.06,-0.04,0.01,
2.13,-0.09,-0.09,-0.29,-0.06,-0.05,0.01,
2.131,-0.09,-0.09,-0.29,-0.06,-0.04,0.01,
2.131,-0.09,-0.09,-0.29,-0.07,-0.04,0.01,
2.132,-0.08,-0.10,-0.24,-0.07,-0.04,0.01,
2.133,-0.08,-0.10,-0.24,-0.07,-0.04,0.01,
2.134,-0.08,-0.10,-0.24,-0.07,-0.04,0.01,
2.134,-0.08,-0.10,-0.24,-0.07,-0.04,0.01,
2.135,-0.08,-0.10,-0.24,-0.07,-0.04,0.01,
2.135,-0.08,-0.10,-0.24,-0.08,-0.04,0.01,
2.136,-0.04,-0.15,-0.06,-0.08,-0.04,0.01,
2.137,-0.04,-0.15,-0.06,-0.07,-0.04,0.01,
2.137,-0.04,-0.15,-0.06,-0.07,-0.04,0.01,
2.138,-0.04,-0.15,-0.06,-0.07,-0.04,0.01,
2.138,-0.04,-0.15,-0.06,-0.07,-0.04,0.02,
2.139,-0.04,-0.15,-0.06,-0.07,-0.04,0.02,
2.139,-0.08,-0.15,0.13,-0.07,-0.04,0.02,
2.14,-0.08,-0.15,0.13,-0.06,-0.04,0.02,
2.141,-0.08,-0.15,0.13,-0.06,-0.04,0.02,
2.141,-0.08,-0.15,0.13,-0.06,-0.04,0.02,
2.142,-0.08,-0.15,0.13,-0.05,-0.04,0.02,
2.143,-0.08,-0.15,0.13,-0.05,-0.04,0.03,
2.143,-0.10,-0.11,0.20,-0.05,-0.04,0.03,
2.146,-0.10,-0.11,0.20,-0.05,-0.04,0.03,
2.147,-0.10,-0.11,0.20,-0.04,-0.04,0.03,
2.147,-0.10,-0.11,0.20,-0.04,-0.04,0.03,
2.147,-0.10,-0.11,0.20,-0.04,-0.04,0.04,
2.148,-0.10,-0.11,0.20,-0.03,-0.04,0.04,
2.148,-0.04,-0.12,0.18,-0.03,-0.04,0.04,
2.149,-0.04,-0.12,0.18,-0.03,-0.04,0.04,
2.149,-0.04,-0.12,0.18,-0.03,-0.05,0.04,
2.149,-0.04,-0.12,0.18,-0.02,-0.05,0.04,
2.15,-0.04,-0.12,0.18,-0.02,-0.05,0.04,
2.15,-0.04,-0.12,0.18,-0.02,-0.05,0.04,
2.153,-0.00,-0.14,0.15,-0.02,-0.05,0.04,
2.154,-0.00,-0.14,0.15,-0.02,-0.06,0.04,
2.17,-0.00,-0.14,0.15,-0.02,-0.06,0.04,
2.17,-0.00,-0.14,0.15,-0.01,-0.06,0.04,
2.171,-0.00,-0.14,0.15,-0.01,-0.06,0.04,
2.171,-0.00,-0.14,0.15,-0.01,-0.07,0.04,
2.171,0.03,-0.12,0.10,-0.01,-0.07,0.04,
2.172,0.03,-0.12,0.10,-0.01,-0.07,0.04,
2.172,0.03,-0.12,0.10,-0.01,-0.07,0.04,
2.172,0.03,-0.12,0.10,-0.00,-0.07,0.04,
2.172,0.03,-0.12,0.10,-0.00,-0.08,0.04,
2.173,0.03,-0.12,0.10,0.00,-0.08,0.04,
2.173,0.02,-0.09,0.02,0.00,-0.08,0.04,
2.173,0.02,-0.09,0.02,-0.00,-0.08,0.04,
2.181,0.02,-0.09,0.02,-0.00,-0.08,0.04,
2.181,0.02,-0.09,0.02,0.00,-0.08,0.04,
2.182,0.02,-0.09,0.02,0.00,-0.08,0.04,
2.182,0.02,-0.09,0.02,-0.00,-0.08,0.04,
2.183,0.00,-0.10,-0.06,-0.00,-0.08,0.04,
2.183,0.00,-0.10,-0.06,-0.00,-0.08,0.04,
2.185,0.00,-0.10,-0.06,-0.00,-0.08,0.04,
2.187,0.00,-0.10,-0.06,-0.01,-0.07,0.04,
2.199,0.00,-0.10,-0.06,-0.01,-0.07,0.04,
2.2,0.00,-0.10,-0.06,-0.01,-0.07,0.04,
2.201,-0.02,-0.08,-0.14,-0.01,-0.07,0.04,
2.202,-0.02,-0.08,-0.14,-0.01,-0.07,0.04,
2.203,-0.02,-0.08,-0.14,-0.02,-0.07,0.04,
2.204,-0.02,-0.08,-0.14,-0.02,-0.06,0.04,
2.204,-0.02,-0.08,-0.14,-0.02,-0.06,0.04,
2.205,-0.02,-0.08,-0.14,-0.02,-0.05,0.04,
2.206,0.02,-0.06,-0.16,-0.02,-0.05,0.04,
2.209,0.02,-0.06,-0.16,-0.03,-0.05,0.04,
2.21,0.02,-0.06,-0.16,-0.03,-0.04,0.03,
2.211,0.02,-0.06,-0.16,-0.03,-0.04,0.03,
2.212,0.02,-0.06,-0.16,-0.03,-0.03,0.03,
2.212,0.02,-0.06,-0.16,-0.03,-0.03,0.03,
2.223,0.11,-0.08,-0.13,-0.03,-0.03,0.03,
2.224,0.11,-0.08,-0.13,-0.04,-0.02,0.03,
2.225,0.11,-0.08,-0.13,-0.03,-0.02,0.03,
2.226,0.11,-0.08,-0.13,-0.03,-0.01,0.02,
2.226,0.11,-0.08,-0.13,-0.03,-0.01,0.02,
2.226,0.11,-0.08,-0.13,-0.02,-0.01,0.02,
2.227,0.15,-0.10,0.01,-0.02,-0.01,0.02,
2.228,0.15,-0.10,0.01,-0.02,-0.01,0.02,
2.229,0.15,-0.10,0.01,-0.01,-0.01,0.01,
2.229,0.15,-0.10,0.01,-0.00,-0.01,0.01,
2.23,0.15,-0.10,0.01,0.00,-0.01,0.01,
2.241,0.15,-0.10,0.01,0.01,-0.01,0.01,
2.241,0.23,-0.09,0.12,0.01,-0.01,0.01,
2.242,0.23,-0.09,0.12,0.02,-0.01,0.00,
2.242,0.23,-0.09,0.12,0.03,-0.02,-0.01,
2.242,0.23,-0.09,0.12,0.04,-0.02,-0.01,
2.243,0.23,-0.09,0.12,0.04,-0.02,-0.01,
2.243,0.23,-0.09,0.12,0.04,-0.03,-0.01,
2.243,0.24,-0.08,0.05,0.04,-0.03,-0.01,
2.244,0.24,-0.08,0.05,0.05,-0.04,-0.02,
2.25,0.24,-0.08,0.05,0.06,-0.04,-0.02,
2.251,0.24,-0.08,0.05,0.06,-0.05,-0.03,
2.252,0.24,-0.08,0.05,0.07,-0.05,-0.03,
2.252,0.24,-0.08,0.05,0.07,-0.06,-0.03,
2.285,0.19,-0.08,-0.03,0.07,-0.06,-0.03,
2.285,0.19,-0.08,-0.03,0.07,-0.06,-0.03,
2.286,0.19,-0.08,-0.03,0.08,-0.07,-0.04,
2.286,0.19,-0.08,-0.03,0.08,-0.07,-0.04,
2.287,0.19,-0.08,-0.03,0.08,-0.07,-0.04,
2.287,0.19,-0.08,-0.03,0.09,-0.07,-0.04,
2.287,0.13,-0.10,-0.11,0.09,-0.07,-0.04,
2.288,0.13,-0.10,-0.11,0.09,-0.08,-0.04,
2.288,0.13,-0.10,-0.11,0.09,-0.08,-0.05,
2.289,0.13,-0.10,-0.11,0.09,-0.08,-0.05,
2.289,0.13,-0.10,-0.11,0.09,-0.08,-0.05,
2.29,0.13,-0.10,-0.11,0.09,-0.08,-0.05,
2.29,0.05,-0.11,-0.22,0.09,-0.08,-0.05,
2.29,0.05,-0.11,-0.22,0.09,-0.08,-0.05,
2.291,0.05,-0.11,-0.22,0.09,-0.09,-0.05,
2.291,0.05,-0.11,-0.22,0.08,-0.09,-0.05,
2.292,0.05,-0.11,-0.22,0.08,-0.09,-0.06,
2.292,0.05,-0.11,-0.22,0.08,-0.09,-0.06,
2.293,-0.01,-0.12,-0.37,0.08,-0.09,-0.06,
2.293,-0.01,-0.12,-0.37,0.07,-0.09,-0.06,
2.293,-0.01,-0.12,-0.37,0.07,-0.10,-0.06,
2.294,-0.01,-0.12,-0.37,0.06,-0.10,-0.06,
2.294,-0.01,-0.12,-0.37,0.06,-0.10,-0.06,
2.295,-0.01,-0.12,-0.37,0.06,-0.11,-0.06,
2.295,-0.10,-0.15,-0.47,0.06,-0.11,-0.06,
2.296,-0.10,-0.15,-0.47,0.05,-0.11,-0.06,
2.296,-0.10,-0.15,-0.47,0.04,-0.12,-0.06,
2.296,-0.10,-0.15,-0.47,0.03,-0.13,-0.06,
2.299,-0.10,-0.15,-0.47,0.03,-0.13,-0.06,
2.301,-0.10,-0.15,-0.47,0.03,-0.14,-0.06,
2.303,-0.11,-0.10,-0.53,0.03,-0.14,-0.06,
2.304,-0.11,-0.10,-0.53,0.02,-0.14,-0.06,
2.309,-0.11,-0.10,-0.53,0.01,-0.15,-0.07,
2.313,-0.11,-0.10,-0.53,0.01,-0.16,-0.07,
2.314,-0.11,-0.10,-0.53,0.01,-0.16,-0.07,
2.314,-0.11,-0.10,-0.53,-0.00,-0.16,-0.08,
2.314,-0.05,-0.07,-0.49,-0.00,-0.16,-0.08,
2.314,-0.05,-0.07,-0.49,-0.01,-0.17,-0.09,
2.319,-0.05,-0.07,-0.49,-0.01,-0.16,-0.09,
2.32,-0.05,-0.07,-0.49,-0.02,-0.16,-0.09,
2.321,-0.05,-0.07,-0.49,-0.02,-0.16,-0.10,
2.321,-0.05,-0.07,-0.49,-0.03,-0.15,-0.10,
2.332,0.00,-0.09,-0.42,-0.03,-0.15,-0.10,
2.333,0.00,-0.09,-0.42,-0.04,-0.15,-0.11,
2.333,0.00,-0.09,-0.42,-0.04,-0.14,-0.11,
2.334,0.00,-0.09,-0.42,-0.05,-0.14,-0.11,
2.334,0.00,-0.09,-0.42,-0.06,-0.13,-0.11,
2.334,0.00,-0.09,-0.42,-0.06,-0.12,-0.12,
2.335,-0.02,-0.15,-0.36,-0.06,-0.12,-0.12,
2.335,-0.02,-0.15,-0.36,-0.07,-0.12,-0.12,
2.336,-0.02,-0.15,-0.36,-0.07,-0.11,-0.12,
2.337,-0.02,-0.15,-0.36,-0.08,-0.11,-0.12,
2.352,-0.02,-0.15,-0.36,-0.09,-0.11,-0.12,
2.354,-0.02,-0.15,-0.36,-0.09,-0.11,-0.13,
2.355,-0.03,-0.16,-0.32,-0.09,-0.11,-0.13,
2.358,-0.03,-0.16,-0.32,-0.09,-0.11,-0.13,
2.359,-0.03,-0.16,-0.32,-0.10,-0.11,-0.13,
2.359,-0.03,-0.16,-0.32,-0.11,-0.11,-0.12,
2.359,-0.03,-0.16,-0.32,-0.11,-0.11,-0.12,
2.36,-0.03,-0.16,-0.32,-0.11,-0.12,-0.12,
2.36,-0.13,-0.17,-0.22,-0.11,-0.12,-0.12,
2.36,-0.13,-0.17,-0.22,-0.11,-0.12,-0.12,
2.361,-0.13,-0.17,-0.22,-0.11,-0.12,-0.12,
2.361,-0.13,-0.17,-0.22,-0.11,-0.13,-0.12,
2.361,-0.13,-0.17,-0.22,-0.11,-0.13,-0.12,
2.361,-0.13,-0.17,-0.22,-0.11,-0.14,-0.11,
2.376,-0.23,-0.17,-0.06,-0.11,-0.14,-0.11,
2.376,-0.23,-0.17,-0.06,-0.11,-0.14,-0.11,
2.376,-0.23,-0.17,-0.06,-0.11,-0.15,-0.11,
2.377,-0.23,-0.17,-0.06,-0.10,-0.16,-0.10,
2.377,-0.23,-0.17,-0.06,-0.10,-0.16,-0.10,
2.377,-0.23,-0.17,-0.06,-0.09,-0.17,-0.09,
2.378,-0.28,-0.22,0.20,-0.09,-0.17,-0.09,
2.378,-0.28,-0.22,0.20,-0.08,-0.18,-0.09,
2.378,-0.28,-0.22,0.20,-0.06,-0.19,-0.08,
2.379,-0.28,-0.22,0.20,-0.05,-0.20,-0.08,
2.379,-0.28,-0.22,0.20,-0.04,-0.20,-0.07,
2.386,-0.28,-0.22,0.20,-0.03,-0.21,-0.07,
2.387,-0.30,-0.24,0.40,-0.03,-0.21,-0.07,
2.388,-0.30,-0.24,0.40,-0.02,-0.21,-0.07,
2.388,-0.30,-0.24,0.40,-0.00,-0.22,-0.06,
2.388,-0.30,-0.24,0.40,0.01,-0.22,-0.06,
2.389,-0.30,-0.24,0.40,0.02,-0.22,-0.06,
2.405,-0.30,-0.24,0.40,0.03,-0.23,-0.05,
2.407,-0.26,-0.23,0.36,0.03,-0.23,-0.05,
2.407,-0.26,-0.23,0.36,0.04,-0.23,-0.05,
2.408,-0.26,-0.23,0.36,0.05,-0.23,-0.05,
2.408,-0.26,-0.23,0.36,0.05,-0.23,-0.05,
2.408,-0.26,-0.23,0.36,0.06,-0.23,-0.04,
2.409,-0.26,-0.23,0.36,0.06,-0.24,-0.04,
2.409,-0.22,-0.16,0.19,0.06,-0.24,-0.04,
2.409,-0.22,-0.16,0.19,0.06,-0.24,-0.04,
2.41,-0.22,-0.16,0.19,0.06,-0.23,-0.04,
2.41,-0.22,-0.16,0.19,0.06,-0.23,-0.04,
2.41,-0.22,-0.16,0.19,0.06,-0.23,-0.04,
2.411,-0.22,-0.16,0.19,0.06,-0.23,-0.04,
2.42,-0.15,-0.08,-0.06,0.06,-0.23,-0.04,
2.421,-0.15,-0.08,-0.06,0.06,-0.22,-0.05,
2.422,-0.15,-0.08,-0.06,0.05,-0.22,-0.05,
2.422,-0.15,-0.08,-0.06,0.04,-0.21,-0.05,
2.454,-0.15,-0.08,-0.06,0.03,-0.20,-0.05,
2.454,-0.15,-0.08,-0.06,0.03,-0.20,-0.06,
2.455,-0.12,-0.02,-0.32,0.03,-0.20,-0.06,
2.455,-0.12,-0.02,-0.32,0.02,-0.19,-0.06,
2.455,-0.12,-0.02,-0.32,0.01,-0.19,-0.06,
2.456,-0.12,-0.02,-0.32,-0.00,-0.19,-0.06,
2.456,-0.12,-0.02,-0.32,-0.01,-0.19,-0.06,
2.457,-0.12,-0.02,-0.32,-0.02,-0.19,-0.07,
2.457,-0.11,0.06,-0.45,-0.02,-0.19,-0.07,
2.458,-0.11,0.06,-0.45,-0.03,-0.19,-0.07,
2.458,-0.11,0.06,-0.45,-0.03,-0.19,-0.07,
2.458,-0.11,0.06,-0.45,-0.04,-0.19,-0.07,
2.459,-0.11,0.06,-0.45,-0.04,-0.19,-0.07,
2.459,-0.11,0.06,-0.45,-0.05,-0.19,-0.07,
2.46,-0.11,0.12,-0.40,-0.05,-0.19,-0.07,
2.46,-0.11,0.12,-0.40,-0.05,-0.19,-0.08,
2.461,-0.11,0.12,-0.40,-0.05,-0.19,-0.08,
2.461,-0.11,0.12,-0.40,-0.05,-0.18,-0.07,
2.461,-0.11,0.12,-0.40,-0.05,-0.18,-0.07,
2.462,-0.11,0.12,-0.40,-0.06,-0.18,-0.08,
2.462,-0.05,0.10,-0.30,-0.06,-0.18,-0.08,
2.463,-0.05,0.10,-0.30,-0.06,-0.18,-0.07,
2.463,-0.05,0.10,-0.30,-0.05,-0.18,-0.07,
2.464,-0.05,0.10,-0.30,-0.05,-0.18,-0.07,
2.464,-0.05,0.10,-0.30,-0.05,-0.19,-0.07,
2.464,-0.05,0.10,-0.30,-0.05,-0.19,-0.06,
2.465,-0.15,0.09,-0.23,-0.05,-0.19,-0.06,
2.465,-0.15,0.09,-0.23,-0.05,-0.19,-0.06,
2.466,-0.15,0.09,-0.23,-0.04,-0.20,-0.06,
2.469,-0.15,0.09,-0.23,-0.04,-0.20,-0.06,
2.47,-0.15,0.09,-0.23,-0.04,-0.21,-0.06,
2.471,-0.15,0.09,-0.23,-0.03,-0.21,-0.06,
2.473,-0.13,0.07,-0.19,-0.03,-0.21,-0.06,
2.473,-0.13,0.07,-0.19,-0.03,-0.22,-0.06,
2.476,-0.13,0.07,-0.19,-0.03,-0.22,-0.06,
2.477,-0.13,0.07,-0.19,-0.03,-0.23,-0.06,
2.479,-0.13,0.07,-0.19,-0.02,-0.23,-0.05,
2.481,-0.13,0.07,-0.19,-0.02,-0.24,-0.05,
2.483,-0.13,0.09,-0.19,-0.02,-0.24,-0.05,
2.483,-0.13,0.09,-0.19,-0.02,-0.24,-0.05,
2.486,-0.13,0.09,-0.19,-0.02,-0.25,-0.05,
2.486,-0.13,0.09,-0.19,-0.02,-0.25,-0.05,
2.489,-0.13,0.09,-0.19,-0.02,-0.25,-0.05,
2.491,-0.13,0.09,-0.19,-0.02,-0.25,-0.05,
2.493,-0.07,0.03,-0.19,-0.02,-0.25,-0.05,
2.494,-0.07,0.03,-0.19,-0.01,-0.25,-0.05,
2.5,-0.07,0.03,-0.19,-0.01,-0.25,-0.05,
2.501,-0.07,0.03,-0.19,-0.02,-0.25,-0.05,
2.503,-0.07,0.03,-0.19,-0.01,-0.25,-0.05,
2.503,-0.07,0.03,-0.19,-0.01,-0.25,-0.05,
2.504,-0.10,-0.03,-0.13,-0.01,-0.25,-0.05,
2.504,-0.10,-0.03,-0.13,-0.01,-0.25,-0.05,
2.518,-0.10,-0.03,-0.13,-0.01,-0.24,-0.04,
2.519,-0.10,-0.03,-0.13,-0.01,-0.24,-0.04,
2.519,-0.10,-0.03,-0.13,-0.00,-0.24,-0.04,
2.519,-0.10,-0.03,-0.13,0.00,-0.24,-0.04,
2.52,-0.19,-0.03,-0.02,0.00,-0.24,-0.04,
2.52,-0.19,-0.03,-0.02,0.00,-0.24,-0.03,
2.52,-0.19,-0.03,-0.02,0.01,-0.23,-0.03,
2.521,-0.19,-0.03,-0.02,0.01,-0.23,-0.03,
2.521,-0.19,-0.03,-0.02,0.02,-0.23,-0.03,
2.521,-0.19,-0.03,-0.02,0.02,-0.22,-0.04,
2.542,-0.16,0.03,0.01,0.02,-0.22,-0.04,
2.543,-0.16,0.03,0.01,0.02,-0.22,-0.04,
2.544,-0.16,0.03,0.01,0.02,-0.20,-0.04,
2.544,-0.16,0.03,0.01,0.02,-0.20,-0.05,
2.544,-0.16,0.03,0.01,0.02,-0.19,-0.05,
2.545,-0.16,0.03,0.01,0.01,-0.19,-0.05,
2.545,-0.05,0.10,-0.15,0.01,-0.19,-0.05,
2.545,-0.05,0.10,-0.15,0.01,-0.17,-0.06,
2.545,-0.05,0.10,-0.15,-0.00,-0.16,-0.06,
2.546,-0.05,0.10,-0.15,-0.00,-0.15,-0.07,
2.546,-0.05,0.10,-0.15,-0.01,-0.14,-0.07,
2.546,-0.05,0.10,-0.15,-0.02,-0.13,-0.07,
2.547,-0.06,0.07,-0.30,-0.02,-0.13,-0.07,
2.547,-0.06,0.07,-0.30,-0.03,-0.12,-0.08,
2.547,-0.06,0.07,-0.30,-0.05,-0.11,-0.08,
2.548,-0.06,0.07,-0.30,-0.05,-0.11,-0.08,
2.549,-0.06,0.07,-0.30,-0.06,-0.10,-0.08,
2.551,-0.06,0.07,-0.30,-0.07,-0.09,-0.08,
2.552,-0.15,0.03,-0.36,-0.07,-0.09,-0.08,
2.553,-0.15,0.03,-0.36,-0.08,-0.08,-0.08,
2.556,-0.15,0.03,-0.36,-0.09,-0.07,-0.08,
2.557,-0.15,0.03,-0.36,-0.10,-0.06,-0.08,
2.56,-0.15,0.03,-0.36,-0.10,-0.06,-0.07,
2.561,-0.15,0.03,-0.36,-0.11,-0.05,-0.07,
2.563,-0.21,-0.01,-0.31,-0.11,-0.05,-0.07,
2.563,-0.21,-0.01,-0.31,-0.12,-0.04,-0.07,
2.566,-0.21,-0.01,-0.31,-0.13,-0.04,-0.07,
2.567,-0.21,-0.01,-0.31,-0.13,-0.03,-0.07,
2.569,-0.21,-0.01,-0.31,-0.13,-0.03,-0.07,
2.572,-0.21,-0.01,-0.31,-0.13,-0.02,-0.07,
2.574,-0.18,-0.04,-0.18,-0.13,-0.02,-0.07,
2.574,-0.18,-0.04,-0.18,-0.13,-0.02,-0.07,
2.576,-0.18,-0.04,-0.18,-0.13,-0.02,-0.07,
2.577,-0.18,-0.04,-0.18,-0.13,-0.02,-0.07,
2.579,-0.18,-0.04,-0.18,-0.13,-0.02,-0.07,
2.581,-0.18,-0.04,-0.18,-0.13,-0.01,-0.07,
2.583,-0.20,-0.07,-0.05,-0.13,-0.01,-0.07,
2.583,-0.20,-0.07,-0.05,-0.12,-0.02,-0.07,
2.616,-0.20,-0.07,-0.05,-0.12,-0.02,-0.07,
2.617,-0.20,-0.07,-0.05,-0.11,-0.03,-0.07,
2.617,-0.20,-0.07,-0.05,-0.11,-0.04,-0.07,
2.618,-0.20,-0.07,-0.05,-0.10,-0.05,-0.07,
2.618,-0.25,-0.05,0.01,-0.10,-0.05,-0.07,
2.618,-0.25,-0.05,0.01,-0.10,-0.06,-0.06,
2.619,-0.25,-0.05,0.01,-0.09,-0.07,-0.07,
2.619,-0.25,-0.05,0.01,-0.08,-0.07,-0.07,
2.62,-0.25,-0.05,0.01,-0.08,-0.09,-0.06,
2.62,-0.25,-0.05,0.01,-0.07,-0.10,-0.06,
2.62,-0.33,-0.05,0.01,-0.07,-0.10,-0.06,
2.621,-0.33,-0.05,0.01,-0.06,-0.11,-0.06,
2.621,-0.33,-0.05,0.01,-0.05,-0.13,-0.06,
2.621,-0.33,-0.05,0.01,-0.05,-0.14,-0.06,
2.622,-0.33,-0.05,0.01,-0.04,-0.15,-0.06,
2.622,-0.33,-0.05,0.01,-0.04,-0.16,-0.06,
2.623,-0.36,-0.05,0.02,-0.04,-0.16,-0.06,
2.623,-0.36,-0.05,0.02,-0.02,-0.17,-0.06,
2.623,-0.36,-0.05,0.02,-0.01,-0.17,-0.06,
2.624,-0.36,-0.05,0.02,-0.01,-0.17,-0.06,
2.624,-0.36,-0.05,0.02,-0.00,-0.18,-0.06,
2.624,-0.36,-0.05,0.02,0.00,-0.18,-0.06,
2.625,-0.31,-0.05,-0.05,0.00,-0.18,-0.06,
2.625,-0.31,-0.05,-0.05,0.00,-0.19,-0.06,
2.626,-0.31,-0.05,-0.05,0.00,-0.19,-0.06,
2.63,-0.31,-0.05,-0.05,0.00,-0.19,-0.06,
2.631,-0.31,-0.05,-0.05,0.00,-0.19,-0.06,
2.632,-0.31,-0.05,-0.05,0.00,-0.19,-0.06,
2.633,-0.33,-0.10,-0.25,0.00,-0.19,-0.06,
2.633,-0.33,-0.10,-0.25,0.00,-0.19,-0.06,
2.636,-0.33,-0.10,-0.25,-0.01,-0.19,-0.05,
2.639,-0.33,-0.10,-0.25,-0.01,-0.19,-0.05,
2.64,-0.33,-0.10,-0.25,-0.01,-0.19,-0.05,
2.641,-0.33,-0.10,-0.25,-0.01,-0.19,-0.05,
2.644,-0.38,-0.10,-0.37,-0.01,-0.19,-0.05,
2.644,-0.38,-0.10,-0.37,-0.02,-0.19,-0.05,
2.646,-0.38,-0.10,-0.37,-0.03,-0.19,-0.05,
2.646,-0.38,-0.10,-0.37,-0.03,-0.18,-0.05,
2.648,-0.38,-0.10,-0.37,-0.04,-0.18,-0.05,
2.65,-0.38,-0.10,-0.37,-0.05,-0.18,-0.04,
2.652,-0.38,-0.08,-0.47,-0.05,-0.18,-0.04,
2.653,-0.38,-0.08,-0.47,-0.05,-0.17,-0.04,
2.667,-0.38,-0.08,-0.47,-0.06,-0.16,-0.04,
2.668,-0.38,-0.08,-0.47,-0.07,-0.16,-0.04,
2.668,-0.38,-0.08,-0.47,-0.07,-0.16,-0.04,
2.669,-0.38,-0.08,-0.47,-0.08,-0.15,-0.04,
2.669,-0.37,-0.05,-0.45,-0.08,-0.15,-0.04,
2.669,-0.37,-0.05,-0.45,-0.09,-0.15,-0.04,
2.67,-0.37,-0.05,-0.45,-0.09,-0.14,-0.04,
2.67,-0.37,-0.05,-0.45,-0.10,-0.14,-0.04,
2.671,-0.37,-0.05,-0.45,-0.11,-0.14,-0.04,
2.687,-0.37,-0.05,-0.45,-0.11,-0.13,-0.04,
2.688,-0.33,-0.05,-0.34,-0.11,-0.13,-0.04,
2.688,-0.33,-0.05,-0.34,-0.11,-0.12,-0.04,
2.689,-0.33,-0.05,-0.34,-0.11,-0.11,-0.04,
2.689,-0.33,-0.05,-0.34,-0.11,-0.11,-0.04,
2.689,-0.33,-0.05,-0.34,-0.11,-0.11,-0.04,
2.689,-0.33,-0.05,-0.34,-0.11,-0.10,-0.04,
2.69,-0.31,-0.06,-0.18,-0.11,-0.10,-0.04,
2.69,-0.31,-0.06,-0.18,-0.11,-0.10,-0.04,
2.69,-0.31,-0.06,-0.18,-0.11,-0.09,-0.03,
2.691,-0.31,-0.06,-0.18,-0.11,-0.09,-0.03,
2.691,-0.31,-0.06,-0.18,-0.10,-0.09,-0.03,
2.691,-0.31,-0.06,-0.18,-0.10,-0.09,-0.03,
2.693,-0.29,-0.13,-0.15,-0.10,-0.09,-0.03,
2.693,-0.29,-0.13,-0.15,-0.10,-0.08,-0.03,
2.697,-0.29,-0.13,-0.15,-0.09,-0.09,-0.02,
2.697,-0.29,-0.13,-0.15,-0.09,-0.09,-0.02,
2.699,-0.29,-0.13,-0.15,-0.09,-0.09,-0.02,
2.705,-0.29,-0.13,-0.15,-0.09,-0.09,-0.01,
2.709,-0.29,-0.13,-0.15,-0.09,-0.09,-0.01,
2.71,-0.37,-0.13,-0.16,-0.09,-0.09,-0.01,
2.71,-0.37,-0.13,-0.16,-0.08,-0.10,-0.01,
2.711,-0.37,-0.13,-0.16,-0.08,-0.10,-0.00,
2.713,-0.37,-0.13,-0.16,-0.07,-0.11,0.00,
2.714,-0.37,-0.13,-0.16,-0.07,-0.11,0.01,
2.714,-0.44,-0.16,-0.23,-0.07,-0.11,0.01,
2.715,-0.44,-0.16,-0.23,-0.07,-0.12,0.01,
2.716,-0.44,-0.16,-0.23,-0.07,-0.13,0.02,
2.717,-0.44,-0.16,-0.23,-0.07,-0.13,0.02,
2.721,-0.44,-0.16,-0.23,-0.07,-0.14,0.03,
2.721,-0.44,-0.16,-0.23,-0.07,-0.14,0.03,
2.726,-0.46,-0.17,-0.34,-0.07,-0.14,0.03,
2.727,-0.46,-0.17,-0.34,-0.08,-0.15,0.04,
2.727,-0.46,-0.17,-0.34,-0.08,-0.16,0.05,
2.727,-0.46,-0.17,-0.34,-0.08,-0.16,0.05,
2.729,-0.46,-0.17,-0.34,-0.08,-0.16,0.05,
2.731,-0.46,-0.17,-0.34,-0.09,-0.16,0.06,
2.733,-0.41,-0.16,-0.34,-0.09,-0.16,0.06,
2.734,-0.41,-0.16,-0.34,-0.09,-0.16,0.06,
2.738,-0.41,-0.16,-0.34,-0.09,-0.16,0.06,
2.738,-0.41,-0.16,-0.34,-0.09,-0.16,0.06,
2.741,-0.41,-0.16,-0.34,-0.09,-0.16,0.06,
2.743,-0.41,-0.16,-0.34,-0.09,-0.16,0.06,
2.746,-0.33,-0.09,-0.25,-0.09,-0.16,0.06,
2.747,-0.33,-0.09,-0.25,-0.10,-0.16,0.06,
2.747,-0.33,-0.09,-0.25,-0.10,-0.15,0.06,
2.748,-0.33,-0.09,-0.25,-0.10,-0.15,0.06,
2.749,-0.33,-0.09,-0.25,-0.10,-0.14,0.06,
2.751,-0.33,-0.09,-0.25,-0.10,-0.14,0.06,
2.781,-0.18,-0.03,-0.27,-0.10,-0.14,0.06,
2.781,-0.18,-0.03,-0.27,-0.10,-0.13,0.05,
2.781,-0.18,-0.03,-0.27,-0.11,-0.11,0.05,
2.782,-0.18,-0.03,-0.27,-0.11,-0.10,0.04,
2.782,-0.18,-0.03,-0.27,-0.11,-0.09,0.04,
2.782,-0.18,-0.03,-0.27,-0.12,-0.09,0.04,
2.783,-0.11,-0.06,-0.30,-0.12,-0.09,0.04,
2.783,-0.11,-0.06,-0.30,-0.12,-0.08,0.04,
2.783,-0.11,-0.06,-0.30,-0.12,-0.06,0.04,
2.783,-0.11,-0.06,-0.30,-0.13,-0.06,0.03,
2.784,-0.11,-0.06,-0.30,-0.13,-0.06,0.03,
2.784,-0.11,-0.06,-0.30,-0.14,-0.05,0.03,
2.784,-0.16,-0.05,-0.36,-0.14,-0.05,0.03,
2.784,-0.16,-0.05,-0.36,-0.14,-0.05,0.03,
2.785,-0.16,-0.05,-0.36,-0.14,-0.05,0.03,
2.785,-0.16,-0.05,-0.36,-0.14,-0.05,0.03,
2.785,-0.16,-0.05,-0.36,-0.15,-0.05,0.04,
2.786,-0.16,-0.05,-0.36,-0.15,-0.05,0.04,
2.786,-0.32,0.04,-0.40,-0.15,-0.05,0.04,
2.786,-0.32,0.04,-0.40,-0.15,-0.05,0.04,
2.786,-0.32,0.04,-0.40,-0.15,-0.06,0.04,
2.787,-0.32,0.04,-0.40,-0.15,-0.06,0.05,
2.796,-0.32,0.04,-0.40,-0.15,-0.06,0.05,
2.797,-0.32,0.04,-0.40,-0.15,-0.07,0.05,
2.797,-0.28,0.10,-0.40,-0.15,-0.07,0.05,
2.798,-0.28,0.10,-0.40,-0.15,-0.07,0.05,
2.798,-0.28,0.10,-0.40,-0.15,-0.08,0.05,
2.798,-0.28,0.10,-0.40,-0.15,-0.08,0.05,
2.821,-0.28,0.10,-0.40,-0.15,-0.09,0.05,
2.822,-0.28,0.10,-0.40,-0.15,-0.09,0.05,
2.822,-0.20,0.06,-0.37,-0.15,-0.09,0.05,
2.822,-0.20,0.06,-0.37,-0.15,-0.09,0.05,
2.822,-0.20,0.06,-0.37,-0.15,-0.10,0.05,
2.823,-0.20,0.06,-0.37,-0.15,-0.10,0.05,
2.823,-0.20,0.06,-0.37,-0.15,-0.11,0.05,
2.823,-0.20,0.06,-0.37,-0.15,-0.11,0.05,
2.823,-0.19,0.03,-0.34,-0.15,-0.11,0.05,
2.824,-0.19,0.03,-0.34,-0.16,-0.11,0.05,
2.824,-0.19,0.03,-0.34,-0.16,-0.12,0.05,
2.824,-0.19,0.03,-0.34,-0.16,-0.12,0.05,
2.826,-0.19,0.03,-0.34,-0.16,-0.13,0.05,
2.827,-0.19,0.03,-0.34,-0.16,-0.13,0.05,
2.827,-0.24,0.03,-0.28,-0.16,-0.13,0.05,
2.828,-0.24,0.03,-0.28,-0.15,-0.14,0.05,
2.828,-0.24,0.03,-0.28,-0.16,-0.15,0.06,
2.829,-0.24,0.03,-0.28,-0.16,-0.15,0.06,
2.829,-0.24,0.03,-0.28,-0.16,-0.16,0.06,
2.831,-0.24,0.03,-0.28,-0.16,-0.16,0.05,
2.833,-0.27,0.04,-0.28,-0.16,-0.16,0.05,
2.833,-0.27,0.04,-0.28,-0.16,-0.17,0.06,
2.836,-0.27,0.04,-0.28,-0.17,-0.18,0.06,
2.837,-0.27,0.04,-0.28,-0.17,-0.18,0.06,
2.839,-0.27,0.04,-0.28,-0.17,-0.18,0.06,
2.841,-0.27,0.04,-0.28,-0.17,-0.19,0.06,
2.843,-0.30,0.06,-0.25,-0.17,-0.19,0.06,
2.843,-0.30,0.06,-0.25,-0.17,-0.19,0.06,
2.846,-0.30,0.06,-0.25,-0.17,-0.20,0.06,
2.846,-0.30,0.06,-0.25,-0.17,-0.20,0.06,
2.849,-0.30,0.06,-0.25,-0.18,-0.21,0.07,
2.851,-0.30,0.06,-0.25,-0.18,-0.21,0.07,
2.853,-0.29,0.02,-0.25,-0.18,-0.21,0.07,
2.854,-0.29,0.02,-0.25,-0.19,-0.22,0.07,
2.856,-0.29,0.02,-0.25,-0.19,-0.22,0.07,
2.857,-0.29,0.02,-0.25,-0.20,-0.23,0.07,
2.859,-0.29,0.02,-0.25,-0.20,-0.23,0.07,
2.861,-0.29,0.02,-0.25,-0.20,-0.23,0.07,
2.862,-0.25,-0.00,-0.21,-0.20,-0.23,0.07,
2.863,-0.25,-0.00,-0.21,-0.21,-0.23,0.07,
2.865,-0.25,-0.00,-0.21,-0.21,-0.23,0.07,
2.866,-0.25,-0.00,-0.21,-0.21,-0.23,0.07,
2.876,-0.25,-0.00,-0.21,-0.21,-0.23,0.07,
2.876,-0.25,-0.00,-0.21,-0.22,-0.23,0.07,
2.877,-0.18,-0.06,-0.06,-0.22,-0.23,0.07,
2.877,-0.18,-0.06,-0.06,-0.22,-0.23,0.07,
2.878,-0.18,-0.06,-0.06,-0.22,-0.24,0.07,
2.878,-0.18,-0.06,-0.06,-0.22,-0.24,0.07,
2.879,-0.18,-0.06,-0.06,-0.22,-0.24,0.07,
2.881,-0.18,-0.06,-0.06,-0.22,-0.23,0.07,
2.885,-0.15,-0.05,0.13,-0.22,-0.23,0.07,
2.885,-0.15,-0.05,0.13,-0.22,-0.23,0.07,
2.895,-0.15,-0.05,0.13,-0.23,-0.22,0.07,
2.897,-0.15,-0.05,0.13,-0.23,-0.21,0.07,
2.897,-0.15,-0.05,0.13,-0.23,-0.20,0.07,
2.898,-0.15,-0.05,0.13,-0.23,-0.19,0.07,
2.898,-0.13,-0.00,0.26,-0.23,-0.19,0.07,
2.898,-0.13,-0.00,0.26,-0.23,-0.18,0.07,
2.899,-0.13,-0.00,0.26,-0.24,-0.17,0.07,
2.899,-0.13,-0.00,0.26,-0.24,-0.16,0.07,
2.899,-0.13,-0.00,0.26,-0.24,-0.15,0.08,
2.901,-0.13,-0.00,0.26,-0.24,-0.14,0.08,
2.906,-0.10,0.01,0.31,-0.24,-0.14,0.08,
2.909,-0.10,0.01,0.31,-0.25,-0.13,0.09,
2.909,-0.10,0.01,0.31,-0.26,-0.11,0.09,
2.91,-0.10,0.01,0.31,-0.26,-0.11,0.10,
2.91,-0.10,0.01,0.31,-0.27,-0.10,0.10,
2.911,-0.10,0.01,0.31,-0.28,-0.09,0.10,
2.913,-0.05,0.03,0.31,-0.28,-0.09,0.10,
2.913,-0.05,0.03,0.31,-0.29,-0.08,0.10,
2.917,-0.05,0.03,0.31,-0.29,-0.06,0.11,
2.917,-0.05,0.03,0.31,-0.29,-0.06,0.11,
2.947,-0.05,0.03,0.31,-0.30,-0.05,0.11,
2.952,-0.05,0.03,0.31,-0.30,-0.04,0.11,
2.952,-0.05,0.07,0.45,-0.30,-0.04,0.11,
2.953,-0.05,0.07,0.45,-0.30,-0.03,0.11,
2.953,-0.05,0.07,0.45,-0.29,-0.02,0.12,
2.953,-0.05,0.07,0.45,-0.29,-0.02,0.12,
2.954,-0.05,0.07,0.45,-0.29,-0.02,0.12,
2.954,-0.05,0.07,0.45,-0.28,-0.02,0.12,
2.955,-0.11,0.16,0.64,-0.28,-0.02,0.12,
2.955,-0.11,0.16,0.64,-0.27,-0.02,0.13,
2.956,-0.11,0.16,0.64,-0.26,-0.03,0.13,
2.956,-0.11,0.16,0.64,-0.25,-0.03,0.13,
2.956,-0.11,0.16,0.64,-0.24,-0.03,0.14,
2.957,-0.11,0.16,0.64,-0.23,-0.04,0.14,
2.957,-0.19,0.22,0.76,-0.23,-0.04,0.14,
2.958,-0.19,0.22,0.76,-0.22,-0.04,0.14,
2.958,-0.19,0.22,0.76,-0.20,-0.04,0.15,
2.959,-0.19,0.22,0.76,-0.20,-0.04,0.15,
2.959,-0.19,0.22,0.76,-0.19,-0.03,0.15,
2.959,-0.19,0.22,0.76,-0.18,-0.02,0.16,
2.96,-0.17,0.17,0.59,-0.18,-0.02,0.16,
2.96,-0.17,0.17,0.59,-0.18,-0.01,0.16,
2.961,-0.17,0.17,0.59,-0.18,0.01,0.17,
2.961,-0.17,0.17,0.59,-0.17,0.01,0.17,
2.962,-0.17,0.17,0.59,-0.17,0.03,0.18,
2.962,-0.17,0.17,0.59,-0.17,0.04,0.19,
2.962,-0.24,0.03,0.44,-0.17,0.04,0.19,
2.963,-0.24,0.03,0.44,-0.17,0.06,0.19,
2.966,-0.24,0.03,0.44,-0.16,0.08,0.20,
2.974,-0.24,0.03,0.44,-0.16,0.09,0.21,
2.976,-0.24,0.03,0.44,-0.15,0.10,0.21,
2.976,-0.24,0.03,0.44,-0.15,0.12,0.22,
2.976,-0.37,0.02,0.41,-0.15,0.12,0.22,
2.977,-0.37,0.02,0.41,-0.15,0.13,0.23,
2.977,-0.37,0.02,0.41,-0.14,0.15,0.25,
2.977,-0.37,0.02,0.41,-0.14,0.15,0.25,
2.981,-0.37,0.02,0.41,-0.14,0.16,0.26,
2.981,-0.37,0.02,0.41,-0.13,0.17,0.26,
2.984,-0.43,0.08,0.24,-0.13,0.17,0.26,
2.985,-0.43,0.08,0.24,-0.13,0.17,0.27,
2.987,-0.43,0.08,0.24,-0.13,0.17,0.28,
2.988,-0.43,0.08,0.24,-0.13,0.17,0.28,
2.989,-0.43,0.08,0.24,-0.13,0.17,0.28,
2.992,-0.43,0.08,0.24,-0.14,0.16,0.28,
2.993,-0.25,0.13,-0.10,-0.14,0.16,0.28,
2.993,-0.25,0.13,-0.10,-0.14,0.15,0.28,
2.999,-0.25,0.13,-0.10,-0.15,0.14,0.28,
3.002,-0.25,0.13,-0.10,-0.16,0.13,0.28,
3.004,-0.25,0.13,-0.10,-0.16,0.11,0.28,
3.005,-0.25,0.13,-0.10,-0.17,0.09,0.28,
3.007,-0.10,0.30,-0.37,-0.17,0.09,0.28,
3.008,-0.10,0.30,-0.37,-0.17,0.07,0.27,
3.009,-0.10,0.30,-0.37,-0.18,0.05,0.27,
3.01,-0.10,0.30,-0.37,-0.18,0.04,0.26,
3.01,-0.10,0.30,-0.37,-0.18,0.02,0.26,
3.014,-0.10,0.30,-0.37,-0.18,-0.00,0.26,
3.018,-0.05,0.39,-0.36,-0.18,-0.00,0.26,
3.018,-0.05,0.39,-0.36,-0.18,-0.02,0.25,
3.018,-0.05,0.39,-0.36,-0.17,-0.05,0.25,
3.019,-0.05,0.39,-0.36,-0.17,-0.06,0.24,
3.019,-0.05,0.39,-0.36,-0.17,-0.08,0.24,
3.022,-0.05,0.39,-0.36,-0.17,-0.09,0.23,
3.023,0.04,0.39,-0.23,-0.17,-0.09,0.23,
3.023,0.04,0.39,-0.23,-0.16,-0.11,0.23,
3.026,0.04,0.39,-0.23,-0.16,-0.13,0.22,
3.027,0.04,0.39,-0.23,-0.15,-0.14,0.21,
3.029,0.04,0.39,-0.23,-0.14,-0.15,0.21,
3.031,0.04,0.39,-0.23,-0.14,-0.16,0.20,
3.033,0.13,0.37,-0.16,-0.14,-0.16,0.20,
3.033,0.13,0.37,-0.16,-0.14,-0.18,0.19,
3.046,0.13,0.37,-0.16,-0.13,-0.19,0.18,
3.047,0.13,0.37,-0.16,-0.13,-0.19,0.18,
3.047,0.13,0.37,-0.16,-0.13,-0.19,0.17,
3.048,0.13,0.37,-0.16,-0.13,-0.19,0.16,
3.048,0.14,0.35,-0.23,-0.13,-0.19,0.16,
3.049,0.14,0.35,-0.23,-0.12,-0.20,0.15,
3.049,0.14,0.35,-0.23,-0.13,-0.20,0.14,
3.049,0.14,0.35,-0.23,-0.14,-0.20,0.14,
3.05,0.14,0.35,-0.23,-0.14,-0.20,0.13,
3.075,0.14,0.35,-0.23,-0.15,-0.19,0.13,
3.076,-0.02,0.27,-0.39,-0.15,-0.19,0.13,
3.076,-0.02,0.27,-0.39,-0.17,-0.19,0.13,
3.077,-0.02,0.27,-0.39,-0.19,-0.19,0.13,
3.077,-0.02,0.27,-0.39,-0.19,-0.19,0.12,
3.077,-0.02,0.27,-0.39,-0.20,-0.18,0.13,
3.078,-0.02,0.27,-0.39,-0.22,-0.18,0.13,
3.078,-0.25,0.13,-0.37,-0.22,-0.18,0.13,
3.078,-0.25,0.13,-0.37,-0.23,-0.17,0.13,
3.079,-0.25,0.13,-0.37,-0.25,-0.16,0.14,
3.079,-0.25,0.13,-0.37,-0.25,-0.16,0.14,
3.079,-0.25,0.13,-0.37,-0.26,-0.15,0.14,
3.08,-0.25,0.13,-0.37,-0.27,-0.14,0.15,
3.08,-0.33,-0.00,-0.14,-0.27,-0.14,0.15,
3.08,-0.33,-0.00,-0.14,-0.28,-0.13,0.15,
3.081,-0.33,-0.00,-0.14,-0.29,-0.12,0.16,
3.081,-0.33,-0.00,-0.14,-0.29,-0.11,0.16,
3.081,-0.33,-0.00,-0.14,-0.30,-0.11,0.16,
3.082,-0.33,-0.00,-0.14,-0.30,-0.10,0.16,
3.083,-0.32,-0.03,0.22,-0.30,-0.10,0.16,
3.083,-0.32,-0.03,0.22,-0.30,-0.09,0.17,
3.114,-0.32,-0.03,0.22,-0.29,-0.08,0.17,
3.115,-0.32,-0.03,0.22,-0.29,-0.08,0.17,
3.116,-0.32,-0.03,0.22,-0.28,-0.08,0.17,
3.117,-0.32,-0.03,0.22,-0.27,-0.08,0.17,
3.118,-0.16,0.00,0.63,-0.27,-0.08,0.17,
3.118,-0.16,0.00,0.63,-0.26,-0.08,0.17,
3.119,-0.16,0.00,0.63,-0.24,-0.08,0.16,
3.119,-0.16,0.00,0.63,-0.23,-0.08,0.16,
3.12,-0.16,0.00,0.63,-0.22,-0.08,0.16,
3.12,-0.16,0.00,0.63,-0.20,-0.09,0.15,
3.121,0.01,0.05,0.90,-0.20,-0.09,0.15,
3.121,0.01,0.05,0.90,-0.19,-0.09,0.15,
3.122,0.01,0.05,0.90,-0.16,-0.09,0.14,
3.122,0.01,0.05,0.90,-0.15,-0.10,0.14,
3.123,0.01,0.05,0.90,-0.14,-0.10,0.13,
3.124,0.01,0.05,0.90,-0.12,-0.11,0.13,
3.124,0.08,0.08,0.78,-0.12,-0.11,0.13,
3.125,0.08,0.08,0.78,-0.11,-0.11,0.13,
3.125,0.08,0.08,0.78,-0.10,-0.13,0.12,
3.126,0.08,0.08,0.78,-0.10,-0.14,0.12,
3.126,0.08,0.08,0.78,-0.09,-0.15,0.12,
3.127,0.08,0.08,0.78,-0.09,-0.17,0.12,
3.127,0.03,0.15,0.33,-0.09,-0.17,0.12,
3.128,0.03,0.15,0.33,-0.09,-0.18,0.12,
3.128,0.03,0.15,0.33,-0.08,-0.21,0.12,
3.129,0.03,0.15,0.33,-0.08,-0.22,0.12,
3.129,0.03,0.15,0.33,-0.08,-0.24,0.12,
3.134,0.03,0.15,0.33,-0.09,-0.26,0.12,
3.136,-0.05,0.15,-0.15,-0.09,-0.26,0.12,
3.137,-0.05,0.15,-0.15,-0.10,-0.27,0.12,
3.138,-0.05,0.15,-0.15,-0.11,-0.29,0.12,
3.138,-0.05,0.15,-0.15,-0.12,-0.30,0.12,
3.139,-0.05,0.15,-0.15,-0.12,-0.31,0.12,
3.141,-0.05,0.15,-0.15,-0.13,-0.33,0.13,
3.143,-0.05,0.10,-0.52,-0.13,-0.33,0.13,
3.145,-0.05,0.10,-0.52,-0.14,-0.34,0.13,
3.146,-0.05,0.10,-0.52,-0.16,-0.36,0.13,
3.147,-0.05,0.10,-0.52,-0.17,-0.36,0.13,
3.149,-0.05,0.10,-0.52,-0.18,-0.37,0.14,
3.153,-0.05,0.10,-0.52,-0.20,-0.38,0.14,
3.155,-0.06,0.11,-0.66,-0.20,-0.38,0.14,
3.156,-0.06,0.11,-0.66,-0.21,-0.39,0.14,
3.158,-0.06,0.11,-0.66,-0.22,-0.40,0.14,
3.159,-0.06,0.11,-0.66,-0.23,-0.41,0.14,
3.16,-0.06,0.11,-0.66,-0.23,-0.41,0.15,
3.161,-0.06,0.11,-0.66,-0.24,-0.42,0.15,
3.163,-0.26,0.11,-0.37,-0.24,-0.42,0.15,
3.164,-0.26,0.11,-0.37,-0.24,-0.42,0.16,
3.166,-0.26,0.11,-0.37,-0.24,-0.43,0.17,
3.174,-0.26,0.11,-0.37,-0.24,-0.43,0.17,
3.175,-0.26,0.11,-0.37,-0.23,-0.43,0.18,
3.175,-0.26,0.11,-0.37,-0.22,-0.44,0.19,
3.175,-0.33,0.05,0.06,-0.22,-0.44,0.19,
3.176,-0.33,0.05,0.06,-0.22,-0.44,0.20,
3.176,-0.33,0.05,0.06,-0.20,-0.44,0.21,
3.176,-0.33,0.05,0.06,-0.20,-0.44,0.22,
3.183,-0.33,0.05,0.06,-0.19,-0.44,0.22,
3.185,-0.33,0.05,0.06,-0.18,-0.44,0.24,
3.185,-0.10,-0.05,0.36,-0.18,-0.44,0.24,
3.185,-0.10,-0.05,0.36,-0.17,-0.45,0.24,
3.186,-0.10,-0.05,0.36,-0.15,-0.45,0.26,
3.187,-0.10,-0.05,0.36,-0.15,-0.45,0.26,
3.19,-0.10,-0.05,0.36,-0.14,-0.45,0.26,
3.197,-0.10,-0.05,0.36,-0.13,-0.45,0.27,
3.197,0.09,-0.10,0.38,-0.13,-0.45,0.27,
3.198,0.09,-0.10,0.38,-0.13,-0.44,0.27,
3.198,0.09,-0.10,0.38,-0.12,-0.44,0.28,
3.198,0.09,-0.10,0.38,-0.12,-0.44,0.28,
3.199,0.09,-0.10,0.38,-0.12,-0.44,0.28,
3.207,0.09,-0.10,0.38,-0.12,-0.44,0.27,
3.21,0.49,-0.01,0.11,-0.12,-0.44,0.27,
3.211,0.49,-0.01,0.11,-0.13,-0.45,0.27,
3.211,0.49,-0.01,0.11,-0.14,-0.46,0.26,
3.212,0.49,-0.01,0.11,-0.14,-0.46,0.25,
3.213,0.49,-0.01,0.11,-0.14,-0.47,0.24,
3.213,0.49,-0.01,0.11,-0.15,-0.47,0.23,
3.214,0.98,0.15,-0.14,-0.15,-0.47,0.23,
3.214,0.98,0.15,-0.14,-0.16,-0.48,0.21,
3.216,0.98,0.15,-0.14,-0.16,-0.50,0.19,
3.22,0.98,0.15,-0.14,-0.16,-0.50,0.18,
3.223,0.98,0.15,-0.14,-0.16,-0.51,0.17,
3.224,0.98,0.15,-0.14,-0.16,-0.53,0.15,
3.225,1.18,0.19,-0.13,-0.16,-0.53,0.15,
3.225,1.18,0.19,-0.13,-0.15,-0.54,0.13,
3.226,1.18,0.19,-0.13,-0.15,-0.57,0.11,
3.227,1.18,0.19,-0.13,-0.14,-0.58,0.10,
3.229,1.18,0.19,-0.13,-0.14,-0.61,0.09,
3.231,1.18,0.19,-0.13,-0.13,-0.64,0.07,
3.235,1.07,0.23,0.07,-0.13,-0.64,0.07,
3.235,1.07,0.23,0.07,-0.11,-0.67,0.06,
3.236,1.07,0.23,0.07,-0.10,-0.73,0.03,
3.238,1.07,0.23,0.07,-0.09,-0.74,0.03,
3.239,1.07,0.23,0.07,-0.07,-0.78,0.01,
3.241,1.07,0.23,0.07,-0.05,-0.82,-0.00,
3.243,0.75,0.25,0.40,-0.05,-0.82,-0.00,
3.243,0.75,0.25,0.40,-0.03,-0.86,-0.02,
3.246,0.75,0.25,0.40,0.02,-0.91,-0.03,
3.247,0.75,0.25,0.40,0.04,-0.93,-0.04,
3.253,0.75,0.25,0.40,0.08,-0.96,-0.06,
3.254,0.75,0.25,0.40,0.11,-0.99,-0.07,
3.287,0.47,0.26,0.74,0.11,-0.99,-0.07,
3.287,0.47,0.26,0.74,0.15,-1.02,-0.08,
3.288,0.47,0.26,0.74,0.21,-1.04,-0.10,
3.288,0.47,0.26,0.74,0.23,-1.05,-0.10,
3.289,0.47,0.26,0.74,0.27,-1.07,-0.11,
3.289,0.47,0.26,0.74,0.30,-1.08,-0.12,
3.29,0.22,0.21,0.65,0.30,-1.08,-0.12,
3.29,0.22,0.21,0.65,0.33,-1.08,-0.13,
3.29,0.22,0.21,0.65,0.38,-1.09,-0.14,
3.291,0.22,0.21,0.65,0.39,-1.09,-0.14,
3.291,0.22,0.21,0.65,0.42,-1.09,-0.14,
3.292,0.22,0.21,0.65,0.45,-1.10,-0.15,
3.292,-0.04,0.13,0.19,0.45,-1.10,-0.15,
3.293,-0.04,0.13,0.19,0.47,-1.10,-0.15,
3.293,-0.04,0.13,0.19,0.49,-1.09,-0.15,
3.293,-0.04,0.13,0.19,0.50,-1.09,-0.15,
3.294,-0.04,0.13,0.19,0.50,-1.07,-0.15,
3.294,-0.04,0.13,0.19,0.49,-1.05,-0.15,
3.295,-0.37,0.09,-0.95,0.49,-1.05,-0.15,
3.295,-0.37,0.09,-0.95,0.47,-1.03,-0.15,
3.296,-0.37,0.09,-0.95,0.43,-0.99,-0.14,
3.296,-0.37,0.09,-0.95,0.41,-0.98,-0.14,
3.296,-0.37,0.09,-0.95,0.37,-0.97,-0.13,
3.297,-0.37,0.09,-0.95,0.32,-0.97,-0.13,
3.297,-0.69,-0.06,-2.27,0.32,-0.97,-0.13,
3.297,-0.69,-0.06,-2.27,0.27,-0.98,-0.12,
3.298,-0.69,-0.06,-2.27,0.19,-1.00,-0.12,
3.298,-0.69,-0.06,-2.27,0.16,-1.01,-0.12,
3.299,-0.69,-0.06,-2.27,0.10,-1.02,-0.12,
3.307,-0.69,-0.06,-2.27,0.04,-1.02,-0.12,
3.308,-0.53,-0.03,-2.98,0.04,-1.02,-0.12,
3.308,-0.53,-0.03,-2.98,-0.02,-1.03,-0.12,
3.308,-0.53,-0.03,-2.98,-0.11,-1.05,-0.12,
3.309,-0.53,-0.03,-2.98,-0.14,-1.06,-0.12,
3.312,-0.53,-0.03,-2.98,-0.20,-1.08,-0.12,
3.312,-0.53,-0.03,-2.98,-0.26,-1.11,-0.12,
3.337,-0.54,0.23,-2.81,-0.26,-1.11,-0.12,
3.338,-0.54,0.23,-2.81,-0.31,-1.15,-0.13,
3.338,-0.54,0.23,-2.81,-0.37,-1.21,-0.13,
3.339,-0.54,0.23,-2.81,-0.39,-1.23,-0.13,
3.339,-0.54,0.23,-2.81,-0.41,-1.27,-0.14,
3.339,-0.54,0.23,-2.81,-0.44,-1.32,-0.15,
3.34,-0.70,0.40,-1.55,-0.44,-1.32,-0.15,
3.34,-0.70,0.40,-1.55,-0.45,-1.36,-0.16,
3.34,-0.70,0.40,-1.55,-0.45,-1.41,-0.17,
3.34,-0.70,0.40,-1.55,-0.44,-1.43,-0.18,
3.341,-0.70,0.40,-1.55,-0.43,-1.46,-0.19,
3.341,-0.70,0.40,-1.55,-0.42,-1.49,-0.20,
3.341,-0.67,0.48,-0.08,-0.42,-1.49,-0.20,
3.342,-0.67,0.48,-0.08,-0.40,-1.52,-0.21,
3.342,-0.67,0.48,-0.08,-0.36,-1.55,-0.23,
3.342,-0.67,0.48,-0.08,-0.34,-1.56,-0.23,
3.343,-0.67,0.48,-0.08,-0.31,-1.58,-0.24,
3.343,-0.67,0.48,-0.08,-0.28,-1.59,-0.25,
3.343,-0.61,0.43,0.99,-0.28,-1.59,-0.25,
3.344,-0.61,0.43,0.99,-0.24,-1.59,-0.26,
3.346,-0.61,0.43,0.99,-0.18,-1.59,-0.27,
3.346,-0.61,0.43,0.99,-0.16,-1.59,-0.27,
3.349,-0.61,0.43,0.99,-0.12,-1.59,-0.27,
3.353,-0.61,0.43,0.99,-0.08,-1.58,-0.26,
3.354,-0.89,0.24,1.29,-0.08,-1.58,-0.26,
3.354,-0.89,0.24,1.29,-0.04,-1.57,-0.26,
3.356,-0.89,0.24,1.29,0.02,-1.56,-0.24,
3.357,-0.89,0.24,1.29,0.04,-1.56,-0.24,
3.359,-0.89,0.24,1.29,0.07,-1.55,-0.23,
3.361,-0.89,0.24,1.29,0.11,-1.56,-0.22,
3.363,-1.40,0.25,0.94,0.11,-1.56,-0.22,
3.364,-1.40,0.25,0.94,0.14,-1.57,-0.20,
3.373,-1.40,0.25,0.94,0.19,-1.58,-0.18,
3.375,-1.40,0.25,0.94,0.21,-1.59,-0.17,
3.376,-1.40,0.25,0.94,0.24,-1.62,-0.16,
3.377,-1.40,0.25,0.94,0.27,-1.67,-0.15,
3.377,-1.77,0.41,0.19,0.27,-1.67,-0.15,
3.378,-1.77,0.41,0.19,0.30,-1.73,-0.13,
3.378,-1.77,0.41,0.19,0.33,-1.85,-0.12,
3.379,-1.77,0.41,0.19,0.34,-1.90,-0.11,
3.379,-1.77,0.41,0.19,0.35,-2.00,-0.10,
3.381,-1.77,0.41,0.19,0.36,-2.11,-0.10,
3.387,-2.13,0.86,-1.25,0.36,-2.11,-0.10,
3.39,-2.13,0.86,-1.25,0.36,-2.24,-0.10,
3.39,-2.13,0.86,-1.25,0.36,-2.46,-0.11,
3.391,-2.13,0.86,-1.25,0.35,-2.54,-0.11,
3.391,-2.13,0.86,-1.25,0.35,-2.70,-0.12,
3.392,-2.13,0.86,-1.25,0.34,-2.87,-0.14,
3.393,-2.12,1.27,-2.18,0.34,-2.87,-0.14,
3.394,-2.12,1.27,-2.18,0.33,-3.04,-0.15,
3.398,-2.12,1.27,-2.18,0.32,-3.31,-0.19,
3.399,-2.12,1.27,-2.18,0.32,-3.40,-0.20,
3.399,-2.12,1.27,-2.18,0.31,-3.57,-0.23,
3.401,-2.12,1.27,-2.18,0.31,-3.74,-0.26,
3.403,-1.86,1.58,-1.68,0.31,-3.74,-0.26,
3.404,-1.86,1.58,-1.68,0.31,-3.91,-0.30,
3.406,-1.86,1.58,-1.68,0.34,-4.13,-0.36,
3.407,-1.86,1.58,-1.68,0.34,-4.21,-0.38,
3.409,-1.86,1.58,-1.68,0.36,-4.34,-0.42,
3.411,-1.86,1.58,-1.68,0.39,-4.45,-0.47,
3.413,-1.47,1.72,-0.01,0.39,-4.45,-0.47,
3.414,-1.47,1.72,-0.01,0.42,-4.54,-0.51,
3.428,-1.47,1.72,-0.01,0.47,-4.64,-0.58,
3.429,-1.47,1.72,-0.01,0.49,-4.66,-0.60,
3.46,-1.47,1.72,-0.01,0.53,-4.70,-0.65,
3.46,-1.47,1.72,-0.01,0.57,-4.70,-0.70,
3.461,-1.48,2.30,1.38,0.57,-4.70,-0.70,
3.461,-1.48,2.30,1.38,0.62,-4.70,-0.75,
3.462,-1.48,2.30,1.38,0.70,-4.67,-0.83,
3.462,-1.48,2.30,1.38,0.73,-4.66,-0.85,
3.462,-1.48,2.30,1.38,0.80,-4.61,-0.89,
3.463,-1.48,2.30,1.38,0.87,-4.55,-0.91,
3.463,-1.33,2.11,2.21,0.87,-4.55,-0.91,
3.464,-1.33,2.11,2.21,0.94,-4.48,-0.93,
3.464,-1.33,2.11,2.21,1.04,-4.36,-0.92,
3.465,-1.33,2.11,2.21,1.08,-4.32,-0.91,
3.465,-1.33,2.11,2.21,1.14,-4.24,-0.88,
3.465,-1.33,2.11,2.21,1.20,-4.17,-0.83,
3.466,-2.64,1.97,2.30,1.20,-4.17,-0.83,
3.466,-2.64,1.97,2.30,1.25,-4.12,-0.76,
3.467,-2.64,1.97,2.30,1.29,-4.15,-0.60,
3.467,-2.64,1.97,2.30,1.29,-4.14,-0.54,
3.468,-2.64,1.97,2.30,1.31,-4.11,-0.43,
3.468,-2.64,1.97,2.30,1.32,-4.07,-0.34,
3.469,-4.26,2.65,1.30,1.32,-4.07,-0.34,
3.469,-4.26,2.65,1.30,1.33,-4.02,-0.25,
3.469,-4.26,2.65,1.30,1.35,-3.95,-0.13,
3.47,-4.26,2.65,1.30,1.35,-3.94,-0.09,
3.47,-4.26,2.65,1.30,1.37,-3.95,0.00,
3.471,-4.26,2.65,1.30,1.38,-3.99,0.10,
3.471,-4.53,3.56,0.98,1.38,-3.99,0.10,
3.472,-4.53,3.56,0.98,1.39,-4.03,0.17,
3.472,-4.53,3.56,0.98,1.39,-4.11,0.25,
3.472,-4.53,3.56,0.98,1.39,-4.13,0.27,
3.472,-4.53,3.56,0.98,1.39,-4.17,0.29,
3.473,-4.53,3.56,0.98,1.40,-4.20,0.31,
3.473,-4.58,2.99,0.28,1.40,-4.20,0.31,
3.473,-4.58,2.99,0.28,1.40,-4.22,0.31,
3.476,-4.58,2.99,0.28,1.41,-4.26,0.28,
3.478,-4.58,2.99,0.28,1.41,-4.28,0.26,
3.479,-4.58,2.99,0.28,1.41,-4.32,0.22,
3.489,-4.58,2.99,0.28,1.40,-4.40,0.14,
3.49,-4.05,2.29,0.00,1.40,-4.40,0.14,
3.49,-4.05,2.29,0.00,1.40,-4.43,0.11,
3.49,-4.05,2.29,0.00,1.39,-4.53,0.01,
3.491,-4.05,2.29,0.00,1.38,-4.56,-0.02,
3.491,-4.05,2.29,0.00,1.37,-4.64,-0.09,
3.491,-4.05,2.29,0.00,1.37,-4.71,-0.15,
3.493,-3.14,1.32,0.49,1.37,-4.71,-0.15,
3.496,-3.14,1.32,0.49,1.36,-4.77,-0.21,
3.496,-3.14,1.32,0.49,1.34,-4.85,-0.28,
3.497,-3.14,1.32,0.49,1.34,-4.88,-0.30,
3.501,-3.14,1.32,0.49,1.34,-4.93,-0.34,
3.502,-3.14,1.32,0.49,1.35,-4.98,-0.36,
3.503,-2.46,0.50,1.60,1.35,-4.98,-0.36,
3.503,-2.46,0.50,1.60,1.36,-5.03,-0.38,
3.505,-2.46,0.50,1.60,1.39,-5.13,-0.40,
3.507,-2.46,0.50,1.60,1.41,-5.17,-0.40,
3.509,-2.46,0.50,1.60,1.44,-5.25,-0.41,
3.511,-2.46,0.50,1.60,1.49,-5.33,-0.42,
3.513,-1.67,0.45,2.90,1.49,-5.33,-0.42,
3.513,-1.67,0.45,2.90,1.54,-5.40,-0.43,
3.52,-1.67,0.45,2.90,1.64,-5.51,-0.44,
3.52,-1.67,0.45,2.90,1.68,-5.54,-0.45,
3.52,-1.67,0.45,2.90,1.76,-5.59,-0.46,
3.521,-1.67,0.45,2.90,1.85,-5.64,-0.48,
3.523,-0.76,0.95,4.69,1.85,-5.64,-0.48,
3.526,-0.76,0.95,4.69,1.96,-5.67,-0.50,
3.526,-0.76,0.95,4.69,2.13,-5.72,-0.54,
3.527,-0.76,0.95,4.69,2.19,-5.74,-0.55,
3.529,-0.76,0.95,4.69,2.32,-5.76,-0.59,
3.531,-0.76,0.95,4.69,2.45,-5.77,-0.63,
3.536,-0.36,1.76,5.95,2.45,-5.77,-0.63,
3.537,-0.36,1.76,5.95,2.58,-5.78,-0.67,
3.537,-0.36,1.76,5.95,2.79,-5.77,-0.75,
3.537,-0.36,1.76,5.95,2.85,-5.76,-0.78,
3.54,-0.36,1.76,5.95,2.98,-5.72,-0.83,
3.541,-0.36,1.76,5.95,3.10,-5.67,-0.88,
3.543,-0.80,2.10,6.07,3.10,-5.67,-0.88,
3.543,-0.80,2.10,6.07,3.22,-5.60,-0.94,
3.546,-0.80,2.10,6.07,3.37,-5.49,-1.01,
3.547,-0.80,2.10,6.07,3.42,-5.45,-1.04,
3.559,-0.80,2.10,6.07,3.51,-5.37,-1.09,
3.56,-0.80,2.10,6.07,3.59,-5.30,-1.14,
3.561,-1.88,1.64,4.62,3.59,-5.30,-1.14,
3.561,-1.88,1.64,4.62,3.65,-5.23,-1.18,
3.562,-1.88,1.64,4.62,3.74,-5.12,-1.23,
3.562,-1.88,1.64,4.62,3.76,-5.09,-1.25,
3.562,-1.88,1.64,4.62,3.79,-5.03,-1.28,
3.563,-1.88,1.64,4.62,3.80,-4.99,-1.31,
3.563,-3.64,-0.04,2.82,3.80,-4.99,-1.31,
3.564,-3.64,-0.04,2.82,3.80,-4.95,-1.33,
3.583,-3.64,-0.04,2.82,3.78,-4.90,-1.37,
3.583,-3.64,-0.04,2.82,3.76,-4.88,-1.38,
3.584,-3.64,-0.04,2.82,3.71,-4.85,-1.41,
3.584,-3.64,-0.04,2.82,3.66,-4.82,-1.44,
3.584,-5.09,-2.19,0.91,3.66,-4.82,-1.44,
3.585,-5.09,-2.19,0.91,3.58,-4.80,-1.48,
3.585,-5.09,-2.19,0.91,3.46,-4.79,-1.55,
3.585,-5.09,-2.19,0.91,3.41,-4.80,-1.58,
3.586,-5.09,-2.19,0.91,3.31,-4.82,-1.63,
3.586,-5.09,-2.19,0.91,3.21,-4.87,-1.69,
3.586,-6.48,-3.82,0.84,3.21,-4.87,-1.69,
3.587,-6.48,-3.82,0.84,3.11,-4.94,-1.74,
3.616,-6.48,-3.82,0.84,2.97,-5.09,-1.81,
3.617,-6.48,-3.82,0.84,2.92,-5.18,-1.83,
3.617,-6.48,-3.82,0.84,2.80,-5.38,-1.87,
3.618,-6.48,-3.82,0.84,2.67,-5.59,-1.89,
3.618,-7.49,-5.57,0.48,2.67,-5.59,-1.89,
3.619,-7.49,-5.57,0.48,2.55,-5.79,-1.89,
3.621,-7.49,-5.57,0.48,2.40,-6.06,-1.86,
3.621,-7.49,-5.57,0.48,2.35,-6.15,-1.85,
3.622,-7.49,-5.57,0.48,2.28,-6.33,-1.82,
3.622,-7.49,-5.57,0.48,2.23,-6.51,-1.79,
3.622,-8.48,-6.34,1.13,2.23,-6.51,-1.79,
3.623,-8.48,-6.34,1.13,2.20,-6.71,-1.75,
3.623,-8.48,-6.34,1.13,2.16,-7.04,-1.71,
3.624,-8.48,-6.34,1.13,2.15,-7.15,-1.69,
3.625,-8.48,-6.34,1.13,2.13,-7.38,-1.67,
3.625,-8.48,-6.34,1.13,2.11,-7.61,-1.64,
3.625,-7.54,-6.58,0.87,2.11,-7.61,-1.64,
3.626,-7.54,-6.58,0.87,2.08,-7.81,-1.61,
3.626,-7.54,-6.58,0.87,2.02,-8.02,-1.54,
3.627,-7.54,-6.58,0.87,1.99,-8.06,-1.51,
3.627,-7.54,-6.58,0.87,1.93,-8.08,-1.44,
3.628,-7.54,-6.58,0.87,1.87,-8.04,-1.36,
3.628,-7.41,-6.59,-0.76,1.87,-8.04,-1.36,
3.629,-7.41,-6.59,-0.76,1.81,-8.00,-1.28,
3.629,-7.41,-6.59,-0.76,1.70,-7.95,-1.19,
3.63,-7.41,-6.59,-0.76,1.67,-7.93,-1.16,
3.63,-7.41,-6.59,-0.76,1.59,-7.87,-1.11,
3.63,-7.41,-6.59,-0.76,1.51,-7.77,-1.05,
3.633,-7.00,-6.56,-0.59,1.51,-7.77,-1.05,
3.634,-7.00,-6.56,-0.59,1.43,-7.57,-0.98,
3.636,-7.00,-6.56,-0.59,1.31,-7.24,-0.84,
3.637,-7.00,-6.56,-0.59,1.27,-7.15,-0.80,
3.639,-7.00,-6.56,-0.59,1.21,-6.99,-0.71,
3.641,-7.00,-6.56,-0.59,1.15,-6.85,-0.64,
3.643,-7.98,-7.62,0.23,1.15,-6.85,-0.64,
3.643,-7.98,-7.62,0.23,1.11,-6.74,-0.57,
3.646,-7.98,-7.62,0.23,1.06,-6.64,-0.50,
3.647,-7.98,-7.62,0.23,1.05,-6.63,-0.48,
3.652,-7.98,-7.62,0.23,1.04,-6.63,-0.46,
3.653,-7.98,-7.62,0.23,1.04,-6.67,-0.46,
3.654,-6.94,-7.34,1.50,1.04,-6.67,-0.46,
3.655,-6.94,-7.34,1.50,1.05,-6.75,-0.46,
3.656,-6.94,-7.34,1.50,1.09,-6.95,-0.50,
3.657,-6.94,-7.34,1.50,1.11,-7.03,-0.52,
3.659,-6.94,-7.34,1.50,1.15,-7.21,-0.56,
3.661,-6.94,-7.34,1.50,1.18,-7.38,-0.62,
3.662,-5.84,-6.65,2.60,1.18,-7.38,-0.62,
3.663,-5.84,-6.65,2.60,1.21,-7.51,-0.67,
3.666,-5.84,-6.65,2.60,1.20,-7.54,-0.70,
3.667,-5.84,-6.65,2.60,1.19,-7.55,-0.70,
3.669,-5.84,-6.65,2.60,1.18,-7.55,-0.72,
3.671,-5.84,-6.65,2.60,1.17,-7.56,-0.73,
3.673,-6.40,-7.56,2.70,1.17,-7.56,-0.73,
3.673,-6.40,-7.56,2.70,1.16,-7.57,-0.74,
3.675,-6.40,-7.56,2.70,1.14,-7.58,-0.76,
3.676,-6.40,-7.56,2.70,1.13,-7.59,-0.77,
3.678,-6.40,-7.56,2.70,1.12,-7.59,-0.78,
3.681,-6.40,-7.56,2.70,1.11,-7.60,-0.79,
3.687,-6.30,-7.71,3.13,1.11,-7.60,-0.79,
3.689,-6.30,-7.71,3.13,1.09,-7.61,-0.80,
3.689,-6.30,-7.71,3.13,1.07,-7.62,-0.81,
3.689,-6.30,-7.71,3.13,1.07,-7.63,-0.82,
3.69,-6.30,-7.71,3.13,1.05,-7.63,-0.83,
3.691,-6.30,-7.71,3.13,1.04,-7.64,-0.84,
3.693,-5.83,-7.75,3.79,1.04,-7.64,-0.84,
3.693,-5.83,-7.75,3.79,1.03,-7.65,-0.85,
3.697,-5.83,-7.75,3.79,1.01,-7.66,-0.87,
3.697,-5.83,-7.75,3.79,1.00,-7.66,-0.87,
3.716,-5.83,-7.75,3.79,0.98,-7.67,-0.88,
3.718,-5.83,-7.75,3.79,0.96,-7.68,-0.90,
3.719,-5.83,-7.75,3.79,0.96,-7.68,-0.90,
3.719,-5.37,-7.76,4.40,0.96,-7.68,-0.90,
3.72,-5.37,-7.76,4.40,0.93,-7.70,-0.92,
3.72,-5.37,-7.76,4.40,0.92,-7.70,-0.93,
3.721,-5.37,-7.76,4.40,0.91,-7.71,-0.93,
3.721,-5.37,-7.76,4.40,0.90,-7.72,-0.94,
3.721,-4.89,-7.76,4.89,0.90,-7.72,-0.94,
3.722,-4.89,-7.76,4.89,0.88,-7.73,-0.95,
3.722,-4.89,-7.76,4.89,0.86,-7.73,-0.96,
3.723,-4.89,-7.76,4.89,0.85,-7.74,-0.97,
3.724,-4.89,-7.76,4.89,0.84,-7.75,-0.98,
3.725,-4.89,-7.76,4.89,0.82,-7.75,-0.99,
3.726,-4.40,-7.75,5.28,0.82,-7.75,-0.99,
3.726,-4.40,-7.75,5.28,0.81,-7.76,-1.00,
3.727,-4.40,-7.75,5.28,0.79,-7.77,-1.01,
3.727,-4.40,-7.75,5.28,0.78,-7.77,-1.01,
3.729,-4.40,-7.75,5.28,0.76,-7.78,-1.02,
3.733,-4.40,-7.75,5.28,0.75,-7.78,-1.03,
3.735,-3.67,-7.71,5.81,0.75,-7.78,-1.03,
3.737,-3.67,-7.71,5.81,0.73,-7.79,-1.04,
3.737,-3.67,-7.71,5.81,0.71,-7.80,-1.05,
3.737,-3.67,-7.71,5.81,0.70,-7.80,-1.06,
3.739,-3.67,-7.71,5.81,0.69,-7.81,-1.06,
3.743,-3.67,-7.71,5.81,0.67,-7.82,-1.07,
3.744,-3.13,-7.68,6.10,0.67,-7.82,-1.07,
3.746,-3.13,-7.68,6.10,0.66,-7.82,-1.08,
3.747,-3.13,-7.68,6.10,0.64,-7.83,-1.09,
3.754,-3.13,-7.68,6.10,0.62,-7.83,-1.10,
3.756,-3.13,-7.68,6.10,0.62,-7.84,-1.10,
3.757,-3.13,-7.68,6.10,0.60,-7.84,-1.11,
3.785,-2.27,-7.59,6.51,0.60,-7.84,-1.11,
3.785,-2.27,-7.59,6.51,0.58,-7.84,-1.11,
3.786,-2.27,-7.59,6.51,0.56,-7.85,-1.12,
3.786,-2.27,-7.59,6.51,0.55,-7.85,-1.13,
3.787,-2.27,-7.59,6.51,0.54,-7.85,-1.13,
3.787,-2.27,-7.59,6.51,0.52,-7.86,-1.14,
3.787,-1.65,-7.56,6.67,0.52,-7.86,-1.14,
3.788,-1.65,-7.56,6.67,0.51,-7.86,-1.14,
3.788,-1.65,-7.56,6.67,0.48,-7.86,-1.15,
3.789,-1.65,-7.56,6.67,0.48,-7.86,-1.16,
3.789,-1.65,-7.56,6.67,0.46,-7.87,-1.16,
3.789,-1.65,-7.56,6.67,0.45,-7.87,-1.17,
3.789,-0.71,-7.42,6.93,0.45,-7.87,-1.17,
3.79,-0.71,-7.42,6.93,0.43,-7.87,-1.17,
3.79,-0.71,-7.42,6.93,0.41,-7.87,-1.18,
3.79,-0.71,-7.42,6.93,0.40,-7.87,-1.18,
3.79,-0.71,-7.42,6.93,0.39,-7.87,-1.19,
3.791,-0.71,-7.42,6.93,0.37,-7.87,-1.19,
3.791,-0.09,-7.38,6.96,0.37,-7.87,-1.19,
3.791,-0.09,-7.38,6.96,0.36,-7.87,-1.20,
3.792,-0.09,-7.38,6.96,0.33,-7.87,-1.20,
3.792,-0.09,-7.38,6.96,0.32,-7.87,-1.21,
3.792,-0.09,-7.38,6.96,0.31,-7.87,-1.21,
3.792,-0.09,-7.38,6.96,0.29,-7.86,-1.21,
3.793,0.92,-7.18,7.04,0.29,-7.86,-1.21,
3.793,0.92,-7.18,7.04,0.28,-7.87,-1.22,
3.795,0.92,-7.18,7.04,0.26,-7.86,-1.22,
3.805,0.92,-7.18,7.04,0.25,-7.86,-1.22,
3.805,0.92,-7.18,7.04,0.23,-7.86,-1.23,
3.805,0.92,-7.18,7.04,0.22,-7.85,-1.23,
3.806,1.56,-7.16,6.93,0.22,-7.85,-1.23,
3.806,1.56,-7.16,6.93,0.20,-7.85,-1.23,
3.806,1.56,-7.16,6.93,0.18,-7.84,-1.23,
3.807,1.56,-7.16,6.93,0.17,-7.84,-1.24,
3.809,1.56,-7.16,6.93,0.15,-7.83,-1.24,
3.811,1.56,-7.16,6.93,0.14,-7.82,-1.24,
3.813,2.55,-6.89,6.82,0.14,-7.82,-1.24,
3.813,2.55,-6.89,6.82,0.12,-7.82,-1.24,
3.821,2.55,-6.89,6.82,0.10,-7.80,-1.25,
3.822,2.55,-6.89,6.82,0.09,-7.80,-1.25,
3.822,2.55,-6.89,6.82,0.07,-7.79,-1.25,
3.822,2.55,-6.89,6.82,0.06,-7.78,-1.25,
3.822,3.17,-6.85,6.57,0.06,-7.78,-1.25,
3.823,3.17,-6.85,6.57,0.04,-7.77,-1.25,
3.828,3.17,-6.85,6.57,0.01,-7.76,-1.25,
3.829,3.17,-6.85,6.57,0.01,-7.75,-1.25,
3.83,3.17,-6.85,6.57,-0.01,-7.74,-1.25,
3.84,3.17,-6.85,6.57,-0.03,-7.72,-1.25,
3.841,4.17,-6.52,6.28,-0.03,-7.72,-1.25,
3.841,4.17,-6.52,6.28,-0.05,-7.71,-1.25,
3.841,4.17,-6.52,6.28,-0.06,-7.70,-1.26,
3.841,4.17,-6.52,6.28,-0.07,-7.70,-1.26,
3.842,4.17,-6.52,6.28,-0.09,-7.68,-1.25,
3.842,4.17,-6.52,6.28,-0.10,-7.67,-1.26,
3.843,4.69,-6.47,5.95,-0.10,-7.67,-1.26,
3.843,4.69,-6.47,5.95,-0.12,-7.66,-1.26,
3.846,4.69,-6.47,5.95,-0.14,-7.64,-1.25,
3.848,4.69,-6.47,5.95,-0.16,-7.62,-1.25,
3.85,4.69,-6.47,5.95,-0.17,-7.62,-1.25,
3.851,4.69,-6.47,5.95,-0.18,-7.60,-1.25,
3.853,5.52,-6.11,5.56,-0.18,-7.60,-1.25,
3.854,5.52,-6.11,5.56,-0.20,-7.59,-1.25,
3.856,5.52,-6.11,5.56,-0.22,-7.57,-1.25,
3.857,5.52,-6.11,5.56,-0.23,-7.56,-1.25,
3.858,5.52,-6.11,5.56,-0.24,-7.55,-1.25,
3.861,5.52,-6.11,5.56,-0.26,-7.54,-1.25,
3.862,6.01,-6.03,5.08,-0.26,-7.54,-1.25,
3.863,6.01,-6.03,5.08,-0.27,-7.52,-1.24,
3.866,6.01,-6.03,5.08,-0.29,-7.50,-1.24,
3.867,6.01,-6.03,5.08,-0.31,-7.49,-1.24,
3.869,6.01,-6.03,5.08,-0.32,-7.48,-1.24,
3.871,6.01,-6.03,5.08,-0.33,-7.47,-1.24,
3.873,6.73,-5.64,4.60,-0.33,-7.47,-1.24,
3.873,6.73,-5.64,4.60,-0.35,-7.45,-1.23,
3.876,6.73,-5.64,4.60,-0.37,-7.43,-1.23,
3.877,6.73,-5.64,4.60,-0.38,-7.43,-1.23,
3.879,6.73,-5.64,4.60,-0.39,-7.41,-1.23,
3.881,6.73,-5.64,4.60,-0.41,-7.40,-1.22,
3.883,7.13,-5.55,4.05,-0.41,-7.40,-1.22,
3.883,7.13,-5.55,4.05,-0.42,-7.38,-1.22,
3.888,7.13,-5.55,4.05,-0.44,-7.36,-1.22,
3.888,7.13,-5.55,4.05,-0.46,-7.35,-1.21,
3.889,7.13,-5.55,4.05,-0.46,-7.34,-1.21,
3.891,7.13,-5.55,4.05,-0.48,-7.33,-1.21,
3.897,7.71,-5.13,3.46,-0.48,-7.33,-1.21,
3.899,7.71,-5.13,3.46,-0.49,-7.31,-1.20,
3.9,7.71,-5.13,3.46,-0.51,-7.29,-1.20,
3.9,7.71,-5.13,3.46,-0.52,-7.28,-1.20,
3.9,7.71,-5.13,3.46,-0.53,-7.26,-1.19,
3.901,7.71,-5.13,3.46,-0.55,-7.25,-1.19,
3.903,8.00,-5.05,2.84,-0.55,-7.25,-1.19,
3.903,8.00,-5.05,2.84,-0.56,-7.24,-1.18,
3.906,8.00,-5.05,2.84,-0.58,-7.21,-1.18,
3.907,8.00,-5.05,2.84,-0.60,-7.20,-1.17,
3.909,8.00,-5.05,2.84,-0.60,-7.19,-1.17,
3.911,8.00,-5.05,2.84,-0.62,-7.18,-1.16,
3.914,8.44,-4.62,2.19,-0.62,-7.18,-1.16,
3.915,8.44,-4.62,2.19,-0.63,-7.16,-1.16,
3.916,8.44,-4.62,2.19,-0.65,-7.14,-1.15,
3.918,8.44,-4.62,2.19,-0.66,-7.13,-1.15,
3.95,8.44,-4.62,2.19,-0.67,-7.12,-1.14,
3.951,8.44,-4.62,2.19,-0.69,-7.10,-1.14,
3.952,8.65,-4.53,1.57,-0.69,-7.10,-1.14,
3.954,8.65,-4.53,1.57,-0.70,-7.08,-1.13,
3.954,8.65,-4.53,1.57,-0.72,-7.06,-1.13,
3.955,8.65,-4.53,1.57,-0.74,-7.05,-1.12,
3.955,8.65,-4.53,1.57,-0.74,-7.05,-1.12,
3.956,8.65,-4.53,1.57,-0.76,-7.03,-1.11,
3.957,8.95,-4.09,0.80,-0.76,-7.03,-1.11,
3.957,8.95,-4.09,0.80,-0.77,-7.02,-1.11,
3.958,8.95,-4.09,0.80,-0.79,-7.00,-1.10,
3.958,8.95,-4.09,0.80,-0.80,-7.00,-1.09,
3.959,8.95,-4.09,0.80,-0.81,-6.99,-1.09,
3.959,8.95,-4.09,0.80,-0.83,-6.98,-1.08,
3.96,9.03,-3.98,0.16,-0.83,-6.98,-1.08,
3.96,9.03,-3.98,0.16,-0.84,-6.97,-1.08,
3.96,9.03,-3.98,0.16,-0.86,-6.96,-1.07,
3.961,9.03,-3.98,0.16,-0.87,-6.95,-1.06,
3.961,9.03,-3.98,0.16,-0.88,-6.95,-1.06,
3.962,9.03,-3.98,0.16,-0.89,-6.94,-1.05,
3.962,9.16,-3.59,-0.71,-0.89,-6.94,-1.05,
3.963,9.16,-3.59,-0.71,-0.91,-6.94,-1.05,
3.963,9.16,-3.59,-0.71,-0.92,-6.93,-1.03,
3.964,9.16,-3.59,-0.71,-0.93,-6.93,-1.03,
3.964,9.16,-3.59,-0.71,-0.95,-6.92,-1.02,
3.964,9.16,-3.59,-0.71,-0.96,-6.92,-1.02,
3.965,9.11,-3.48,-1.32,-0.96,-6.92,-1.02,
3.965,9.11,-3.48,-1.32,-0.97,-6.91,-1.01,
3.966,9.11,-3.48,-1.32,-0.99,-6.91,-1.00,
3.975,9.11,-3.48,-1.32,-1.00,-6.91,-0.99,
3.976,9.11,-3.48,-1.32,-1.01,-6.91,-0.99,
3.976,9.11,-3.48,-1.32,-1.02,-6.91,-0.98,
3.977,9.04,-3.12,-2.26,-1.02,-6.91,-0.98,
3.977,9.04,-3.12,-2.26,-1.04,-6.92,-0.97,
3.977,9.04,-3.12,-2.26,-1.06,-6.92,-0.96,
3.978,9.04,-3.12,-2.26,-1.06,-6.93,-0.95,
3.979,9.04,-3.12,-2.26,-1.07,-6.93,-0.95,
3.996,9.04,-3.12,-2.26,-1.08,-6.94,-0.94,
3.997,8.87,-3.01,-2.86,-1.08,-6.94,-0.94,
3.997,8.87,-3.01,-2.86,-1.10,-6.94,-0.93,
3.997,8.87,-3.01,-2.86,-1.12,-6.96,-0.92,
3.997,8.87,-3.01,-2.86,-1.13,-6.96,-0.91,
3.998,8.87,-3.01,-2.86,-1.13,-6.97,-0.91,
3.998,8.87,-3.01,-2.86,-1.15,-6.98,-0.90,
3.998,8.58,-2.68,-3.73,-1.15,-6.98,-0.90,
3.998,8.58,-2.68,-3.73,-1.16,-7.00,-0.89,
3.999,8.58,-2.68,-3.73,-1.18,-7.02,-0.87,
3.999,8.58,-2.68,-3.73,-1.19,-7.04,-0.87,
3.999,8.58,-2.68,-3.73,-1.20,-7.06,-0.86,
4.001,8.58,-2.68,-3.73,-1.21,-7.08,-0.85,
4.003,8.29,-2.55,-4.20,-1.21,-7.08,-0.85,
4.003,8.29,-2.55,-4.20,-1.22,-7.11,-0.84,
4.006,8.29,-2.55,-4.20,-1.24,-7.15,-0.83,
4.007,8.29,-2.55,-4.20,-1.23,-7.22,-1.17,
4.009,8.29,-2.55,-4.20,-1.65,-7.83,-3.50,
4.011,8.29,-2.55,-4.20,-4.11,-11.54,-19.07,
4.015,45.67,18.57,-19.00,-4.11,-11.54,-19.07,
4.018,45.67,18.57,-19.00,-8.31,-17.45,-34.88,
4.02,45.67,18.57,-19.00,-14.67,-23.04,-34.88,
4.021,45.67,18.57,-19.00,-16.02,-22.76,-34.88,
4.023,45.67,18.57,-19.00,-18.30,-21.72,-34.88,
4.025,45.67,18.57,-19.00,-18.70,-24.11,-32.14,
4.027,-22.52,-38.29,11.92,-18.70,-24.11,-32.14,
4.029,-22.52,-38.29,11.92,-14.10,-34.90,-26.88,
4.031,-22.52,-38.29,11.92,-3.35,-28.64,-9.09,
4.032,-22.52,-38.29,11.92,-1.34,19.07,-5.17,
4.033,-22.52,-38.29,11.92,0.15,34.87,-3.37,
4.034,-22.52,-38.29,11.92,-0.00,34.87,-3.53,
4.035,-42.38,-28.72,31.46,-0.00,34.87,-3.53,
4.036,-42.38,-28.72,31.46,-0.47,34.87,-3.54,
4.036,-42.38,-28.72,31.46,-1.14,34.87,-3.58,
4.037,-42.38,-28.72,31.46,-1.39,34.87,-3.57,
4.039,-42.38,-28.72,31.46,-1.85,34.87,-3.52,
4.041,-42.38,-28.72,31.46,-2.31,34.87,-3.43,
4.043,-13.68,-2.16,5.96,-2.31,34.87,-3.43,
4.044,-13.68,-2.16,5.96,-2.75,34.87,-3.30,
4.047,-13.68,-2.16,5.96,-3.37,34.87,-3.03,
4.048,-13.68,-2.16,5.96,-3.73,34.87,-2.81,
4.049,-13.68,-2.16,5.96,-3.90,34.87,-2.69,
4.051,-13.68,-2.16,5.96,-3.94,34.87,-2.61,
4.053,3.12,0.18,12.89,-3.94,34.87,-2.61,
4.053,3.12,0.18,12.89,-3.18,34.87,-3.22,
4.056,3.12,0.18,12.89,-2.20,-31.29,-4.63,
4.057,3.12,0.18,12.89,-2.48,-34.90,-5.05,
4.059,3.12,0.18,12.89,-2.77,-34.90,-5.05,
4.061,3.12,0.18,12.89,-3.38,-34.90,-4.89,
4.071,12.40,-2.17,16.25,-3.38,-34.90,-4.89,
4.072,12.40,-2.17,16.25,-3.96,-34.90,-4.66,
4.072,12.40,-2.17,16.25,-4.77,-34.90,-4.26,
4.073,12.40,-2.17,16.25,-5.27,-34.90,-3.93,
4.073,12.40,-2.17,16.25,-5.49,-34.90,-3.76,
4.074,12.40,-2.17,16.25,-5.91,-34.90,-3.37,
4.074,1.84,2.10,3.91,-5.91,-34.90,-3.37,
4.074,1.84,2.10,3.91,-6.28,-34.90,-2.96,
4.076,1.84,2.10,3.91,-6.73,-34.90,-2.30,
4.077,1.84,2.10,3.91,-6.94,-34.90,-1.83,
4.092,1.84,2.10,3.91,-7.02,-34.90,-1.59,
4.093,1.84,2.10,3.91,-7.16,-34.90,-1.10,
4.093,0.21,3.76,0.95,-7.16,-34.90,-1.10,
4.093,0.21,3.76,0.95,-7.21,-34.90,-0.61,
4.125,0.21,3.76,0.95,-7.18,-34.90,0.13,
4.125,0.21,3.76,0.95,-7.08,-34.90,0.62,
4.126,0.21,3.76,0.95,-7.01,-34.90,0.87,
4.127,0.21,3.76,0.95,-6.80,-34.90,1.34,
4.127,-2.26,4.72,0.01,-6.80,-34.90,1.34,
4.128,-2.26,4.72,0.01,-6.56,-34.90,1.79,
4.128,-2.26,4.72,0.01,-6.06,-34.90,2.42,
4.129,-2.26,4.72,0.01,-5.68,-34.90,2.81,
4.129,-2.26,4.72,0.01,-5.46,-34.90,2.99,
4.13,-2.26,4.72,0.01,-5.00,-34.90,3.33,
4.131,-6.92,5.64,0.10,-5.00,-34.90,3.33,
4.131,-6.92,5.64,0.10,-4.50,-34.90,3.63,
4.132,-6.92,5.64,0.10,-3.68,-34.90,4.00,
4.132,-6.92,5.64,0.10,-3.09,-34.90,4.19,
4.133,-6.92,5.64,0.10,-2.79,-34.90,4.26,
4.133,-6.92,5.64,0.10,-2.18,-34.90,4.38,
4.134,-12.59,5.96,0.60,-2.18,-34.90,4.38,
4.135,-12.59,5.96,0.60,-1.55,-34.90,4.45,
4.136,-12.59,5.96,0.60,-0.61,-34.90,4.46,
4.136,-12.59,5.96,0.60,0.02,-34.90,4.40,
4.137,-12.59,5.96,0.60,0.33,-34.90,4.36,
4.138,-12.59,5.96,0.60,0.94,-34.90,4.23,
4.138,-19.19,5.60,1.81,0.94,-34.90,4.23,
4.139,-19.19,5.60,1.81,1.52,-34.90,4.05,
4.14,-19.19,5.60,1.81,2.35,-34.90,3.70,
4.14,-19.19,5.60,1.81,2.85,-34.90,3.42,
4.141,-19.19,5.60,1.81,3.09,-34.90,3.26,
4.142,-19.19,5.60,1.81,3.55,-34.90,2.92,
4.142,-24.33,4.64,2.76,3.55,-34.90,2.92,
4.143,-24.33,4.64,2.76,3.94,-34.90,2.55,
4.144,-24.33,4.64,2.76,4.44,-34.90,1.93,
4.145,-24.33,4.64,2.76,4.71,-34.90,1.49,
4.145,-24.33,4.64,2.76,4.85,-34.90,1.24,
4.146,-24.33,4.64,2.76,5.23,-34.90,0.45,
4.147,-15.01,-2.18,9.88,5.23,-34.90,0.45,
4.148,-15.01,-2.18,9.88,5.86,-34.90,-1.11,
4.148,-15.01,-2.18,9.88,6.49,-34.90,-4.98,
4.149,-15.01,-2.18,9.88,6.21,-34.90,-7.49,
4.149,-15.01,-2.18,9.88,5.77,-34.90,-8.31,
4.152,-15.01,-2.18,9.88,3.68,-34.90,-7.80,
4.153,18.41,-28.03,-0.25,3.68,-34.90,-7.80,
4.154,18.41,-28.03,-0.25,-0.00,-34.90,-3.72,
4.156,18.41,-28.03,-0.25,-3.53,-34.90,3.15,
4.156,18.41,-28.03,-0.25,-3.79,-34.90,4.93,
4.159,18.41,-28.03,-0.25,-3.61,-34.90,5.11,
4.161,18.41,-28.03,-0.25,-3.18,-34.90,5.17,
4.165,-17.61,-0.50,-5.21,-3.18,-34.90,5.17,
4.166,-17.61,-0.50,-5.21,-2.79,-34.90,5.28,
4.167,-17.61,-0.50,-5.21,-2.20,-34.90,5.42,
4.167,-17.61,-0.50,-5.21,-2.94,-33.85,5.86,
4.169,-17.61,-0.50,-5.21,-4.32,-29.48,6.46,
4.171,-17.61,-0.50,-5.21,-7.66,-19.06,8.07,
4.173,-51.30,3.70,-44.33,-7.66,-19.06,8.07,
4.174,-51.30,3.70,-44.33,-9.70,-12.43,9.34,
4.176,-51.30,3.70,-44.33,-10.72,-8.68,10.41,
4.177,-51.30,3.70,-44.33,-10.98,-7.61,10.81,
4.19,-51.30,3.70,-44.33,-11.03,-7.33,10.96,
4.191,-51.30,3.70,-44.33,-11.13,-6.73,11.38,
4.192,-23.08,-2.65,-19.98,-11.13,-6.73,11.38,
4.193,-23.08,-2.65,-19.98,-11.11,-6.71,11.47,
4.193,-23.08,-2.65,-19.98,-11.08,-6.69,11.62,
4.194,-23.08,-2.65,-19.98,-11.06,-6.72,11.69,
4.194,-23.08,-2.65,-19.98,-10.98,-6.82,11.82,
4.195,-23.08,-2.65,-19.98,-10.91,-6.88,11.94,
4.196,-6.66,-6.40,-0.29,-10.91,-6.88,11.94,
4.196,-6.66,-6.40,-0.29,-10.81,-7.00,12.05,
4.197,-6.66,-6.40,-0.29,-10.66,-7.10,12.18,
4.209,-6.66,-6.40,-0.29,-10.53,-7.23,12.27,
4.211,-6.66,-6.40,-0.29,-10.47,-7.30,12.31,
4.211,-6.66,-6.40,-0.29,-10.29,-7.53,12.41,
4.212,-1.64,-8.30,5.52,-10.29,-7.53,12.41,
4.212,-1.64,-8.30,5.52,-10.12,-7.74,12.49,
4.213,-1.64,-8.30,5.52,-9.82,-8.13,12.64,
4.213,-1.64,-8.30,5.52,-9.62,-8.34,12.73,
4.213,-1.64,-8.30,5.52,-9.51,-8.48,12.78,
4.214,-1.64,-8.30,5.52,-9.29,-8.70,12.87,
4.214,0.09,-8.38,7.90,-9.29,-8.70,12.87,
4.214,0.09,-8.38,7.90,-9.06,-8.91,12.97,
4.222,0.09,-8.38,7.90,-8.70,-9.07,13.08,
4.223,0.09,-8.38,7.90,-8.42,-9.06,13.12,
4.224,0.09,-8.38,7.90,-8.28,-8.98,13.13,
4.224,0.09,-8.38,7.90,-7.97,-8.54,13.10,
4.225,0.68,-9.90,6.67,-7.97,-8.54,13.10,
4.225,0.68,-9.90,6.67,-7.59,-7.65,12.93,
4.226,0.68,-9.90,6.67,-6.92,-5.59,12.26,
4.227,0.68,-9.90,6.67,-6.45,-4.05,11.70,
4.233,0.68,-9.90,6.67,-5.96,-2.10,11.03,
4.234,0.68,-9.90,6.67,-5.45,0.01,10.24,
4.234,-0.59,-12.26,2.45,-5.45,0.01,10.24,
4.235,-0.59,-12.26,2.45,-4.95,2.01,9.35,
4.236,-0.59,-12.26,2.45,-4.50,3.69,8.47,
4.237,-0.59,-12.26,2.45,-4.14,5.04,7.69,
4.239,-0.59,-12.26,2.45,-3.84,6.04,7.04,
4.241,-0.59,-12.26,2.45,-3.64,6.86,6.51,
4.243,-1.30,-3.35,6.71,-3.64,6.86,6.51,
4.244,-1.30,-3.35,6.71,-3.46,7.53,6.07,
4.246,-1.30,-3.35,6.71,-3.23,8.48,5.54,
4.247,-1.30,-3.35,6.71,-3.14,8.79,5.38,
4.249,-1.30,-3.35,6.71,-2.97,9.47,5.11,
4.251,-1.30,-3.35,6.71,-2.77,10.17,4.86,
4.285,-0.72,1.48,8.18,-2.77,10.17,4.86,
4.285,-0.72,1.48,8.18,-2.55,10.92,4.63,
4.286,-0.72,1.48,8.18,-2.30,11.67,4.43,
4.286,-0.72,1.48,8.18,-2.02,12.43,4.26,
4.287,-0.72,1.48,8.18,-1.74,13.18,4.14,
4.287,-0.72,1.48,8.18,-1.45,13.88,4.07,
4.288,0.78,0.15,10.72,-1.45,13.88,4.07,
4.288,0.78,0.15,10.72,-1.16,14.30,4.04,
4.289,0.78,0.15,10.72,-0.83,13.96,4.00,
4.289,0.78,0.15,10.72,-1.14,11.56,3.18,
4.29,0.78,0.15,10.72,-3.19,5.41,0.11,
4.29,0.78,0.15,10.72,-5.58,-0.99,-4.09,
4.291,53.86,-21.04,-32.56,-5.58,-0.99,-4.09,
4.291,53.86,-21.04,-32.56,-5.76,-2.86,-7.34,
4.292,53.86,-21.04,-32.56,-5.08,-3.01,-9.00,
4.292,53.86,-21.04,-32.56,-4.22,-2.84,-9.24,
4.293,53.86,-21.04,-32.56,-3.09,-2.04,-8.90,
4.293,53.86,-21.04,-32.56,-1.87,-0.97,-8.49,
4.294,17.04,-6.59,12.42,-1.87,-0.97,-8.49,
4.294,17.04,-6.59,12.42,-0.70,0.14,-8.10,
4.295,17.04,-6.59,12.42,0.38,1.24,-7.71,
4.295,17.04,-6.59,12.42,1.33,2.24,-7.37,
4.296,17.04,-6.59,12.42,2.16,3.17,-7.06,
4.296,17.04,-6.59,12.42,2.89,4.08,-6.77,
4.296,-1.35,2.69,16.41,2.89,4.08,-6.77,
4.297,-1.35,2.69,16.41,3.52,4.92,-6.52,
4.297,-1.35,2.69,16.41,4.29,5.90,-6.19,
4.298,-1.35,2.69,16.41,4.51,6.16,-5.98,
4.3,-1.35,2.69,16.41,4.95,6.47,-4.90,
4.301,-1.35,2.69,16.41,5.30,6.53,-2.78,
4.303,-12.97,4.61,11.89,5.30,6.53,-2.78,
4.304,-12.97,4.61,11.89,5.43,6.44,-0.46,
4.305,-12.97,4.61,11.89,5.58,6.15,1.42,
4.306,-12.97,4.61,11.89,5.68,6.05,2.69,
4.311,-12.97,4.61,11.89,5.70,6.16,3.34,
4.312,-12.97,4.61,11.89,5.69,6.29,3.60,
4.312,-4.45,7.68,9.59,5.69,6.29,3.60,
4.313,-4.45,7.68,9.59,5.67,6.39,3.70,
4.318,-4.45,7.68,9.59,5.63,6.44,3.75,
4.319,-4.45,7.68,9.59,5.52,6.42,3.78,
4.319,-4.45,7.68,9.59,5.23,6.28,3.77,
4.323,-4.45,7.68,9.59,4.66,5.89,3.68,
4.324,1.75,2.86,-5.15,4.66,5.89,3.68,
4.324,1.75,2.86,-5.15,3.82,5.29,3.50,
4.326,1.75,2.86,-5.15,2.77,4.37,3.06,
4.327,1.75,2.86,-5.15,1.59,3.22,2.34,
4.343,1.75,2.86,-5.15,0.46,1.98,1.45,
4.344,1.75,2.86,-5.15,-0.49,1.03,0.56,
4.344,28.81,3.52,-28.00,-0.49,1.03,0.56,
4.345,28.81,3.52,-28.00,-1.10,0.59,-0.17,
4.346,28.81,3.52,-28.00,-1.52,0.45,-0.62,
4.346,28.81,3.52,-28.00,-1.89,0.25,-0.87,
4.346,28.81,3.52,-28.00,-2.21,0.05,-0.98,
4.347,28.81,3.52,-28.00,-2.44,-0.11,-1.05,
4.347,7.91,3.66,-6.99,-2.44,-0.11,-1.05,
4.347,7.91,3.66,-6.99,-2.60,-0.20,-1.10,
4.348,7.91,3.66,-6.99,-2.71,-0.26,-1.15,
4.348,7.91,3.66,-6.99,-2.73,-0.27,-1.16,
4.365,7.91,3.66,-6.99,-2.76,-0.26,-1.17,
4.367,7.91,3.66,-6.99,-2.77,-0.27,-1.17,
4.368,-1.19,3.19,5.71,-2.77,-0.27,-1.17,
4.368,-1.19,3.19,5.71,-2.77,-0.25,-1.17,
4.368,-1.19,3.19,5.71,-2.77,-0.25,-1.17,
4.369,-1.19,3.19,5.71,-2.77,-0.22,-1.17,
4.369,-1.19,3.19,5.71,-2.76,-0.27,-1.12,
4.369,-1.19,3.19,5.71,-2.71,-0.53,-0.79,
4.37,-0.55,2.92,9.17,-2.71,-0.53,-0.79,
4.37,-0.55,2.92,9.17,-2.57,-0.86,-0.18,
4.371,-0.55,2.92,9.17,-2.42,-1.12,0.45,
4.371,-0.55,2.92,9.17,-2.29,-1.32,0.99,
4.372,-0.55,2.92,9.17,-2.20,-1.40,1.37,
4.372,-0.55,2.92,9.17,-2.15,-1.41,1.56,
4.373,5.43,6.05,10.76,-2.15,-1.41,1.56,
4.373,5.43,6.05,10.76,-2.13,-1.39,1.61,
4.376,5.43,6.05,10.76,-2.11,-1.36,1.61,
4.377,5.43,6.05,10.76,-2.10,-1.35,1.61,
4.381,5.43,6.05,10.76,-2.08,-1.35,1.60,
4.382,5.43,6.05,10.76,-2.07,-1.38,1.59,
4.384,1.05,3.51,9.98,-2.07,-1.38,1.59,
4.385,1.05,3.51,9.98,-2.05,-1.40,1.55,
4.387,1.05,3.51,9.98,-2.02,-1.40,1.40,
4.387,1.05,3.51,9.98,-1.96,-1.35,1.10,
4.389,1.05,3.51,9.98,-1.90,-1.33,0.73,
4.391,1.05,3.51,9.98,-1.83,-1.36,0.34,
4.394,12.83,2.34,10.92,-1.83,-1.36,0.34,
4.395,12.83,2.34,10.92,-1.76,-1.45,0.02,
4.396,12.83,2.34,10.92,-1.69,-1.57,-0.31,
4.397,12.83,2.34,10.92,-1.66,-1.62,-0.38,
4.399,12.83,2.34,10.92,-1.64,-1.75,-0.46,
4.401,12.83,2.34,10.92,-1.61,-1.91,-0.47,
4.403,6.31,1.44,10.11,-1.61,-1.91,-0.47,
4.404,6.31,1.44,10.11,-1.59,-2.12,-0.42,
4.406,6.31,1.44,10.11,-1.56,-2.35,-0.32,
4.406,6.31,1.44,10.11,-1.53,-2.57,-0.19,
4.409,6.31,1.44,10.11,-1.49,-2.68,-0.06,
4.411,6.31,1.44,10.11,-1.46,-2.73,0.04,
4.414,2.53,2.18,9.76,-1.46,-2.73,0.04,
4.414,2.53,2.18,9.76,-1.42,-2.81,0.10,
4.416,2.53,2.18,9.76,-1.38,-2.94,0.17,
4.417,2.53,2.18,9.76,-1.34,-3.05,0.23,
4.445,2.53,2.18,9.76,-1.29,-3.14,0.29,
4.446,2.53,2.18,9.76,-1.24,-3.20,0.32,
4.446,4.09,3.35,9.65,-1.24,-3.20,0.32,
4.446,4.09,3.35,9.65,-1.17,-3.21,0.33,
4.447,4.09,3.35,9.65,-1.09,-3.19,0.32,
4.447,4.09,3.35,9.65,-1.00,-3.13,0.28,
4.448,4.09,3.35,9.65,-0.89,-3.05,0.22,
4.448,4.09,3.35,9.65,-0.77,-2.94,0.15,
4.449,6.09,2.85,8.98,-0.77,-2.94,0.15,
4.449,6.09,2.85,8.98,-0.63,-2.82,0.06,
4.45,6.09,2.85,8.98,-0.38,-2.66,-0.07,
4.45,6.09,2.85,8.98,-0.29,-2.58,-0.11,
4.451,6.09,2.85,8.98,-0.11,-2.40,-0.19,
4.451,6.09,2.85,8.98,0.04,-2.19,-0.26,
4.452,6.78,1.62,7.06,0.04,-2.19,-0.26,
4.452,6.78,1.62,7.06,0.16,-1.92,-0.33,
4.452,6.78,1.62,7.06,0.35,-1.48,-0.42,
4.453,6.78,1.62,7.06,0.42,-1.31,-0.46,
4.453,6.78,1.62,7.06,0.56,-0.93,-0.52,
4.453,6.78,1.62,7.06,0.69,-0.55,-0.58,
4.454,6.61,2.15,3.88,0.69,-0.55,-0.58,
4.454,6.61,2.15,3.88,0.82,-0.19,-0.61,
4.456,6.61,2.15,3.88,0.97,0.33,-0.63,
4.457,6.61,2.15,3.88,1.01,0.49,-0.63,
4.459,6.61,2.15,3.88,1.09,0.81,-0.62,
4.466,6.61,2.15,3.88,1.16,1.09,-0.60,
4.466,5.95,2.45,2.49,1.16,1.09,-0.60,
4.467,5.95,2.45,2.49,1.20,1.32,-0.58,
4.467,5.95,2.45,2.49,1.24,1.54,-0.55,
4.467,5.95,2.45,2.49,1.24,1.59,-0.53,
4.469,5.95,2.45,2.49,1.24,1.67,-0.53,
4.474,5.95,2.45,2.49,1.24,1.69,-0.53,
4.474,4.51,2.16,3.26,1.24,1.69,-0.53,
4.475,4.51,2.16,3.26,1.21,1.68,-0.53,
4.476,4.51,2.16,3.26,1.14,1.62,-0.56,
4.484,4.51,2.16,3.26,1.11,1.59,-0.57,
4.485,4.51,2.16,3.26,1.03,1.53,-0.58,
4.485,4.51,2.16,3.26,0.95,1.44,-0.59,
4.485,4.55,2.18,3.73,0.95,1.44,-0.59,
4.486,4.55,2.18,3.73,0.87,1.34,-0.57,
4.486,4.55,2.18,3.73,0.78,1.13,-0.54,
4.487,4.55,2.18,3.73,0.75,1.05,-0.51,
4.489,4.55,2.18,3.73,0.70,0.88,-0.47,
4.49,4.55,2.18,3.73,0.67,0.71,-0.42,
4.493,3.43,2.70,5.33,0.67,0.71,-0.42,
4.493,3.43,2.70,5.33,0.64,0.53,-0.37,
4.496,3.43,2.70,5.33,0.60,0.25,-0.28,
4.497,3.43,2.70,5.33,0.58,0.16,-0.25,
4.499,3.43,2.70,5.33,0.53,-0.03,-0.19,
4.501,3.43,2.70,5.33,0.47,-0.22,-0.16,
4.502,3.11,2.55,5.81,0.47,-0.22,-0.16,
4.505,3.11,2.55,5.81,0.39,-0.41,-0.14,
4.506,3.11,2.55,5.81,0.26,-0.68,-0.13,
4.507,3.11,2.55,5.81,0.21,-0.77,-0.14,
4.509,3.11,2.55,5.81,0.12,-0.92,-0.14,
4.511,3.11,2.55,5.81,0.04,-1.06,-0.15,
4.513,4.49,2.25,4.77,0.04,-1.06,-0.15,
4.513,4.49,2.25,4.77,-0.02,-1.19,-0.16,
4.516,4.49,2.25,4.77,-0.05,-1.33,-0.16,
4.517,4.49,2.25,4.77,-0.04,-1.37,-0.16,
4.519,4.49,2.25,4.77,-0.03,-1.42,-0.15,
4.521,4.49,2.25,4.77,-0.01,-1.45,-0.13,
4.523,3.84,2.93,5.80,-0.01,-1.45,-0.13,
4.523,3.84,2.93,5.80,0.01,-1.45,-0.11,
4.527,3.84,2.93,5.80,0.05,-1.40,-0.07,
4.527,3.84,2.93,5.80,0.06,-1.37,-0.06,
4.529,3.84,2.93,5.80,0.09,-1.30,-0.03,
4.532,3.84,2.93,5.80,0.14,-1.13,-0.01,
4.533,3.61,2.85,4.10,0.14,-1.13,-0.01,
4.534,3.61,2.85,4.10,0.16,-1.07,-0.01,
4.536,3.61,2.85,4.10,0.19,-0.83,-0.00,
4.537,3.61,2.85,4.10,0.19,-0.74,-0.01,
4.539,3.61,2.85,4.10,0.20,-0.57,-0.02,
4.541,3.61,2.85,4.10,0.19,-0.43,-0.04,
4.544,3.38,1.93,2.39,0.19,-0.43,-0.04,
4.545,3.38,1.93,2.39,0.17,-0.30,-0.07,
4.546,3.38,1.93,2.39,0.11,-0.17,-0.10,
4.547,3.38,1.93,2.39,0.09,-0.14,-0.11,
4.549,3.38,1.93,2.39,0.04,-0.11,-0.14,
4.553,3.38,1.93,2.39,-0.00,-0.11,-0.15,
4.554,3.69,1.80,2.28,-0.00,-0.11,-0.15,
4.554,3.69,1.80,2.28,-0.04,-0.11,-0.16,
4.556,3.69,1.80,2.28,-0.05,-0.13,-0.14,
4.557,3.69,1.80,2.28,-0.04,-0.14,-0.13,
4.559,3.69,1.80,2.28,-0.03,-0.16,-0.10,
4.561,3.69,1.80,2.28,-0.03,-0.19,-0.08,
4.563,3.37,2.63,4.90,-0.03,-0.19,-0.08,
4.563,3.37,2.63,4.90,-0.03,-0.24,-0.06,
4.567,3.37,2.63,4.90,-0.02,-0.34,-0.04,
4.567,3.37,2.63,4.90,-0.02,-0.39,-0.03,
4.569,3.37,2.63,4.90,-0.02,-0.48,-0.04,
4.571,3.37,2.63,4.90,-0.03,-0.59,-0.05,
4.574,3.23,1.98,5.91,-0.03,-0.59,-0.05,
4.574,3.23,1.98,5.91,-0.03,-0.70,-0.06,
4.576,3.23,1.98,5.91,-0.03,-0.87,-0.08,
4.58,3.23,1.98,5.91,-0.04,-0.92,-0.08,
4.584,3.23,1.98,5.91,-0.04,-1.03,-0.09,
4.584,3.23,1.98,5.91,-0.04,-1.12,-0.09,
4.584,4.10,1.86,5.86,-0.04,-1.12,-0.09,
4.585,4.10,1.86,5.86,-0.03,-1.19,-0.09,
4.616,4.10,1.86,5.86,-0.02,-1.24,-0.09,
4.616,4.10,1.86,5.86,-0.02,-1.23,-0.08,
4.616,4.10,1.86,5.86,-0.01,-1.20,-0.07,
4.617,4.10,1.86,5.86,-0.01,-1.13,-0.07,
4.617,3.31,2.17,3.08,-0.01,-1.13,-0.07,
4.618,3.31,2.17,3.08,-0.01,-1.00,-0.06,
4.618,3.31,2.17,3.08,0.00,-0.72,-0.05,
4.619,3.31,2.17,3.08,0.00,-0.60,-0.05,
4.619,3.31,2.17,3.08,0.01,-0.36,-0.04,
4.62,3.31,2.17,3.08,0.01,-0.04,-0.05,
4.62,3.42,1.94,-0.72,0.01,-0.04,-0.05,
4.62,3.42,1.94,-0.72,0.01,0.26,-0.07,
4.621,3.42,1.94,-0.72,0.00,0.66,-0.07,
4.621,3.42,1.94,-0.72,0.00,0.78,-0.07,
4.622,3.42,1.94,-0.72,-0.00,0.99,-0.08,
4.622,3.42,1.94,-0.72,-0.01,1.15,-0.08,
4.622,2.82,2.01,-0.38,-0.01,1.15,-0.08,
4.623,2.82,2.01,-0.38,-0.01,1.26,-0.07,
4.623,2.82,2.01,-0.38,-0.01,1.34,-0.04,
4.624,2.82,2.01,-0.38,-0.01,1.34,-0.03,
4.624,2.82,2.01,-0.38,-0.01,1.32,-0.01,
4.625,2.82,2.01,-0.38,-0.01,1.27,0.01,
4.625,3.13,2.43,3.52,-0.01,1.27,0.01,
4.626,3.13,2.43,3.52,-0.01,1.20,0.03,
4.626,3.13,2.43,3.52,-0.01,1.06,0.04,
4.628,3.13,2.43,3.52,-0.01,1.01,0.04,
4.629,3.13,2.43,3.52,-0.00,0.89,0.04,
4.631,3.13,2.43,3.52,-0.00,0.75,0.04,
4.632,3.03,1.99,6.10,-0.00,0.75,0.04,
4.633,3.03,1.99,6.10,0.00,0.60,0.04,
4.635,3.03,1.99,6.10,0.00,0.36,0.03,
4.636,3.03,1.99,6.10,0.01,0.28,0.03,
4.638,3.03,1.99,6.10,0.00,0.13,0.02,
4.64,3.03,1.99,6.10,0.01,-0.02,0.03,
4.644,3.41,2.01,6.85,0.01,-0.02,0.03,
4.644,3.41,2.01,6.85,0.00,-0.16,0.03,
4.646,3.41,2.01,6.85,0.00,-0.33,0.04,
4.648,3.41,2.01,6.85,0.00,-0.38,0.04,
4.649,3.41,2.01,6.85,0.00,-0.47,0.03,
4.651,3.41,2.01,6.85,-0.00,-0.55,0.03,
4.653,2.73,1.63,6.03,-0.00,-0.55,0.03,
4.653,2.73,1.63,6.03,-0.00,-0.62,0.02,
4.656,2.73,1.63,6.03,-0.01,-0.72,-0.00,
4.656,2.73,1.63,6.03,-0.01,-0.76,-0.01,
4.659,2.73,1.63,6.03,-0.01,-0.81,-0.01,
4.662,2.73,1.63,6.03,-0.01,-0.84,-0.00,
4.663,2.56,1.54,5.00,-0.01,-0.84,-0.00,
4.664,2.56,1.54,5.00,0.00,-0.86,-0.00,
4.666,2.56,1.54,5.00,-0.00,-0.85,-0.00,
4.667,2.56,1.54,5.00,-0.00,-0.84,-0.00,
4.669,2.56,1.54,5.00,-0.00,-0.79,0.00,
4.671,2.56,1.54,5.00,-0.01,-0.72,-0.00,
4.673,2.83,1.63,2.58,-0.01,-0.72,-0.00,
4.673,2.83,1.63,2.58,-0.01,-0.62,-0.01,
4.677,2.83,1.63,2.58,-0.01,-0.43,-0.02,
4.678,2.83,1.63,2.58,-0.01,-0.37,-0.02,
4.679,2.83,1.63,2.58,0.00,-0.24,-0.00,
4.682,2.83,1.63,2.58,0.01,-0.10,0.01,
4.683,2.23,1.50,0.98,0.01,-0.10,0.01,
4.684,2.23,1.50,0.98,0.01,0.03,0.01,
4.686,2.23,1.50,0.98,0.01,0.25,0.01,
4.686,2.23,1.50,0.98,0.01,0.32,0.01,
4.689,2.23,1.50,0.98,0.01,0.45,0.03,
4.691,2.23,1.50,0.98,0.01,0.56,0.03,
4.693,2.45,1.71,0.67,0.01,0.56,0.03,
4.694,2.45,1.71,0.67,0.01,0.66,0.03,
4.696,2.45,1.71,0.67,0.01,0.78,0.04,
4.696,2.45,1.71,0.67,0.01,0.81,0.05,
4.699,2.45,1.71,0.67,0.01,0.87,0.06,
4.704,2.45,1.71,0.67,0.01,0.95,0.09,
4.705,2.45,1.71,0.67,0.01,0.95,0.09,
4.705,1.99,1.74,2.08,0.01,0.95,0.09,
4.706,1.99,1.74,2.08,0.00,0.97,0.10,
4.707,1.99,1.74,2.08,0.00,0.98,0.11,
4.709,1.99,1.74,2.08,-0.00,0.98,0.11,
4.712,1.99,1.74,2.08,-0.00,0.98,0.11,
4.713,1.92,1.49,3.20,-0.00,0.98,0.11,
4.714,1.92,1.49,3.20,-0.00,0.96,0.11,
4.716,1.92,1.49,3.20,-0.01,0.92,0.09,
4.717,1.92,1.49,3.20,-0.01,0.90,0.09,
4.719,1.92,1.49,3.20,-0.01,0.85,0.07,
4.721,1.92,1.49,3.20,-0.01,0.79,0.06,
4.722,1.87,1.18,4.62,-0.01,0.79,0.06,
4.723,1.87,1.18,4.62,-0.01,0.73,0.04,
4.739,1.87,1.18,4.62,-0.01,0.63,0.04,
4.74,1.87,1.18,4.62,-0.00,0.59,0.03,
4.74,1.87,1.18,4.62,0.00,0.52,0.03,
4.74,1.87,1.18,4.62,0.00,0.45,0.03,
4.741,1.60,1.26,5.16,0.00,0.45,0.03,
4.741,1.60,1.26,5.16,0.00,0.38,0.02,
4.741,1.60,1.26,5.16,-0.00,0.27,0.02,
4.742,1.60,1.26,5.16,-0.01,0.24,0.01,
4.742,1.60,1.26,5.16,-0.01,0.18,0.01,
4.742,1.60,1.26,5.16,-0.02,0.15,0.01,
4.758,1.83,1.22,4.02,-0.02,0.15,0.01,
4.76,1.83,1.22,4.02,-0.02,0.15,0.01,
4.76,1.83,1.22,4.02,-0.01,0.19,0.01,
4.761,1.83,1.22,4.02,-0.01,0.21,0.02,
4.762,1.83,1.22,4.02,-0.01,0.27,0.02,
4.765,1.83,1.22,4.02,-0.01,0.34,0.02,
4.797,1.91,1.03,2.04,-0.01,0.34,0.02,
4.798,1.91,1.03,2.04,-0.01,0.42,0.01,
4.798,1.91,1.03,2.04,-0.01,0.52,-0.00,
4.799,1.91,1.03,2.04,-0.01,0.55,-0.01,
4.8,1.91,1.03,2.04,-0.01,0.61,-0.01,
4.8,1.91,1.03,2.04,-0.01,0.66,-0.02,
4.801,2.09,0.71,1.64,-0.01,0.66,-0.02,
4.802,2.09,0.71,1.64,-0.01,0.69,-0.02,
4.803,2.09,0.71,1.64,-0.03,0.73,-0.01,
4.804,2.09,0.71,1.64,-0.03,0.74,-0.01,
4.804,2.09,0.71,1.64,-0.03,0.74,-0.01,
4.805,2.09,0.71,1.64,-0.03,0.72,-0.01,
4.805,1.43,0.72,2.80,-0.03,0.72,-0.01,
4.806,1.43,0.72,2.80,-0.03,0.70,-0.01,
4.807,1.43,0.72,2.80,-0.03,0.63,-0.01,
4.808,1.43,0.72,2.80,-0.03,0.61,-0.02,
4.808,1.43,0.72,2.80,-0.02,0.55,-0.02,
4.809,1.43,0.72,2.80,-0.03,0.50,-0.02,
4.809,1.53,0.63,3.79,-0.03,0.50,-0.02,
4.81,1.53,0.63,3.79,-0.02,0.44,-0.02,
4.81,1.53,0.63,3.79,-0.02,0.38,-0.02,
4.811,1.53,0.63,3.79,-0.02,0.37,-0.03,
4.811,1.53,0.63,3.79,-0.02,0.35,-0.02,
4.811,1.53,0.63,3.79,-0.02,0.35,-0.02,
4.812,1.23,0.67,3.37,-0.02,0.35,-0.02,
4.812,1.23,0.67,3.37,-0.02,0.35,-0.02,
4.813,1.23,0.67,3.37,-0.02,0.36,-0.02,
4.813,1.23,0.67,3.37,-0.02,0.36,-0.02,
4.814,1.23,0.67,3.37,-0.02,0.36,-0.02,
4.814,1.23,0.67,3.37,-0.02,0.35,-0.03,
4.814,0.86,0.58,3.04,-0.02,0.35,-0.03,
4.815,0.86,0.58,3.04,-0.02,0.34,-0.03,
4.815,0.86,0.58,3.04,-0.02,0.32,-0.02,
4.816,0.86,0.58,3.04,-0.02,0.32,-0.02,
4.816,0.86,0.58,3.04,-0.02,0.32,-0.02,
4.817,0.86,0.58,3.04,-0.01,0.33,-0.01,
4.817,1.14,0.77,2.55,-0.01,0.33,-0.01,
4.817,1.14,0.77,2.55,-0.01,0.34,-0.00,
4.818,1.14,0.77,2.55,-0.01,0.39,0.00,
4.818,1.14,0.77,2.55,-0.01,0.41,0.01,
4.819,1.14,0.77,2.55,-0.01,0.44,0.01,
4.822,1.14,0.77,2.55,-0.01,0.48,0.01,
4.823,0.87,0.42,1.89,-0.01,0.48,0.01,
4.823,0.87,0.42,1.89,-0.01,0.53,0.00,
4.835,0.87,0.42,1.89,-0.01,0.58,-0.00,
4.835,0.87,0.42,1.89,-0.01,0.60,-0.01,
4.836,0.87,0.42,1.89,-0.02,0.63,-0.01,
4.836,0.87,0.42,1.89,-0.02,0.66,-0.01,
4.837,0.97,0.28,1.74,-0.02,0.66,-0.01,
4.837,0.97,0.28,1.74,-0.02,0.69,-0.02,
4.837,0.97,0.28,1.74,-0.02,0.74,-0.01,
4.838,0.97,0.28,1.74,-0.02,0.76,-0.01,
4.839,0.97,0.28,1.74,-0.02,0.79,-0.01,
4.841,0.97,0.28,1.74,-0.02,0.83,-0.01,
4.86,1.01,0.48,1.64,-0.02,0.83,-0.01,
4.861,1.01,0.48,1.64,-0.02,0.87,-0.00,
4.861,1.01,0.48,1.64,-0.01,0.92,0.01,
4.862,1.01,0.48,1.64,-0.01,0.94,0.01,
4.862,1.01,0.48,1.64,-0.01,0.98,0.01,
4.862,1.01,0.48,1.64,-0.01,1.01,0.02,
4.863,0.93,0.57,1.63,-0.01,1.01,0.02,
4.863,0.93,0.57,1.63,-0.01,1.03,0.02,
4.863,0.93,0.57,1.63,-0.01,1.06,0.03,
4.864,0.93,0.57,1.63,-0.00,1.07,0.04,
4.864,0.93,0.57,1.63,-0.00,1.06,0.04,
4.865,0.93,0.57,1.63,-0.00,1.06,0.05,
4.866,0.97,0.65,2.24,-0.00,1.06,0.05,
4.866,0.97,0.65,2.24,-0.00,1.04,0.06,
4.867,0.97,0.65,2.24,0.00,0.98,0.07,
4.867,0.97,0.65,2.24,0.00,0.96,0.08,
4.873,0.97,0.65,2.24,0.00,0.91,0.09,
4.873,0.97,0.65,2.24,0.00,0.85,0.09,
4.874,0.87,0.66,3.07,0.00,0.85,0.09,
4.874,0.87,0.66,3.07,0.00,0.79,0.10,
4.885,0.87,0.66,3.07,-0.00,0.68,0.10,
4.886,0.87,0.66,3.07,-0.00,0.65,0.10,
4.887,0.87,0.66,3.07,-0.00,0.58,0.10,
4.887,0.87,0.66,3.07,-0.00,0.47,0.10,
4.888,0.75,0.49,3.88,-0.00,0.47,0.10,
4.888,0.75,0.49,3.88,-0.00,0.44,0.10,
4.889,0.75,0.49,3.88,0.00,0.32,0.09,
4.889,0.75,0.49,3.88,0.00,0.28,0.08,
4.89,0.75,0.49,3.88,0.00,0.19,0.07,
4.891,0.75,0.49,3.88,0.01,0.11,0.07,
4.895,0.56,0.36,4.06,0.01,0.11,0.07,
4.898,0.56,0.36,4.06,0.01,0.03,0.06,
4.899,0.56,0.36,4.06,0.01,-0.08,0.06,
4.9,0.56,0.36,4.06,0.01,-0.11,0.06,
4.905,0.56,0.36,4.06,0.01,-0.17,0.06,
4.905,0.56,0.36,4.06,0.01,-0.23,0.06,
4.906,0.74,0.39,3.76,0.01,-0.23,0.06,
4.907,0.74,0.39,3.76,0.01,-0.28,0.06,
4.907,0.74,0.39,3.76,0.01,-0.33,0.06,
4.907,0.74,0.39,3.76,0.01,-0.33,0.06,
4.911,0.74,0.39,3.76,0.01,-0.33,0.05,
4.912,0.74,0.39,3.76,0.01,-0.31,0.04,
4.913,0.32,0.26,2.33,0.01,-0.31,0.04,
4.913,0.32,0.26,2.33,0.01,-0.25,0.04,
4.916,0.32,0.26,2.33,0.01,-0.13,0.04,
4.917,0.32,0.26,2.33,0.01,-0.08,0.04,
4.945,0.32,0.26,2.33,0.01,0.04,0.03,
4.946,0.32,0.26,2.33,0.01,0.17,0.03,
4.946,0.45,0.32,0.06,0.01,0.17,0.03,
4.947,0.45,0.32,0.06,0.00,0.30,0.02,
4.947,0.45,0.32,0.06,0.00,0.52,0.01,
4.948,0.45,0.32,0.06,0.00,0.59,0.01,
4.948,0.45,0.32,0.06,0.00,0.73,0.00,
4.948,0.45,0.32,0.06,0.00,0.85,0.00,
4.949,0.76,0.35,-0.64,0.00,0.85,0.00,
4.949,0.76,0.35,-0.64,0.00,0.96,0.00,
4.95,0.76,0.35,-0.64,-0.00,1.09,0.01,
4.95,0.76,0.35,-0.64,-0.00,1.12,0.01,
4.951,0.76,0.35,-0.64,0.00,1.18,0.01,
4.951,0.76,0.35,-0.64,0.00,1.21,0.02,
4.951,0.50,0.51,0.84,0.00,1.21,0.02,
4.952,0.50,0.51,0.84,-0.00,1.23,0.02,
4.952,0.50,0.51,0.84,0.00,1.22,0.03,
