
time,ax,ay,az,wx,wy,wz,
0.003,-0.06,-0.59,-0.91,-0.70,0.86,-0.09,
0.003,-0.06,-0.59,-0.91,-0.75,0.85,-0.06,
0.004,-0.06,-0.59,-0.91,-0.80,0.82,-0.03,
0.004,-0.06,-0.59,-0.91,-0.87,0.78,0.02,
0.004,-0.06,-0.59,-0.91,-0.88,0.77,0.03,
0.004,-0.06,-0.59,-0.91,-0.92,0.74,0.06,
0.004,-0.16,-0.69,-1.31,-0.92,0.74,0.06,
0.004,-0.16,-0.69,-1.31,-0.96,0.70,0.09,
0.005,-0.16,-0.69,-1.31,-0.98,0.66,0.12,
0.009,-0.16,-0.69,-1.31,-1.02,0.60,0.16,
0.01,-0.16,-0.69,-1.31,-1.03,0.57,0.17,
0.011,-0.16,-0.69,-1.31,-1.04,0.53,0.20,
0.013,-0.18,-0.51,-1.04,-1.04,0.53,0.20,
0.014,-0.18,-0.51,-1.04,-1.05,0.48,0.22,
0.016,-0.18,-0.51,-1.04,-1.05,0.40,0.25,
0.018,-0.18,-0.51,-1.04,-1.05,0.35,0.27,
0.019,-0.18,-0.51,-1.04,-1.05,0.33,0.28,
0.021,-0.18,-0.51,-1.04,-1.03,0.27,0.29,
0.025,-0.13,-0.15,-0.41,-1.03,0.27,0.29,
0.025,-0.13,-0.15,-0.41,-1.02,0.22,0.30,
0.026,-0.13,-0.15,-0.41,-1.00,0.17,0.30,
0.029,-0.13,-0.15,-0.41,-0.96,0.10,0.30,
0.029,-0.13,-0.15,-0.41,-0.94,0.08,0.30,
0.031,-0.13,-0.15,-0.41,-0.91,0.04,0.29,
0.033,0.04,0.13,0.29,-0.91,0.04,0.29,
0.034,0.04,0.13,0.29,-0.88,0.02,0.29,
0.035,0.04,0.13,0.29,-0.85,0.00,0.28,
0.038,0.04,0.13,0.29,-0.79,-0.03,0.26,
0.041,0.04,0.13,0.29,-0.78,-0.05,0.25,
0.044,0.04,0.13,0.29,-0.74,-0.07,0.23,
0.045,0.26,0.39,0.81,-0.74,-0.07,0.23,
0.045,0.26,0.39,0.81,-0.70,-0.10,0.22,
0.046,0.26,0.39,0.81,-0.66,-0.13,0.20,
0.049,0.26,0.39,0.81,-0.60,-0.16,0.16,
0.049,0.26,0.39,0.81,-0.57,-0.16,0.15,
0.051,0.26,0.39,0.81,-0.53,-0.17,0.12,
0.053,0.73,0.53,1.31,-0.53,-0.17,0.12,
0.054,0.73,0.53,1.31,-0.49,-0.17,0.10,
0.058,0.73,0.53,1.31,-0.45,-0.17,0.07,
0.059,0.73,0.53,1.31,-0.39,-0.15,0.02,
0.06,0.73,0.53,1.31,-0.37,-0.15,0.01,
0.063,0.73,0.53,1.31,-0.34,-0.13,-0.02,
0.063,1.02,0.47,1.39,-0.34,-0.13,-0.02,
0.063,1.02,0.47,1.39,-0.30,-0.11,-0.04,
0.066,1.02,0.47,1.39,-0.27,-0.09,-0.07,
0.068,1.02,0.47,1.39,-0.22,-0.06,-0.11,
0.069,1.02,0.47,1.39,-0.21,-0.05,-0.12,
0.071,1.02,0.47,1.39,-0.19,-0.03,-0.14,
0.086,0.96,0.27,1.18,-0.19,-0.03,-0.14,
0.087,0.96,0.27,1.18,-0.16,-0.02,-0.16,
0.087,0.96,0.27,1.18,-0.14,0.00,-0.17,
0.087,0.96,0.27,1.18,-0.12,0.03,-0.18,
0.087,0.96,0.27,1.18,-0.11,0.04,-0.19,
0.088,0.96,0.27,1.18,-0.10,0.06,-0.19,
0.089,0.54,0.09,0.82,-0.10,0.06,-0.19,
0.089,0.54,0.09,0.82,-0.09,0.07,-0.18,
0.09,0.54,0.09,0.82,-0.07,0.09,-0.18,
0.09,0.54,0.09,0.82,-0.06,0.11,-0.17,
0.09,0.54,0.09,0.82,-0.06,0.12,-0.16,
0.108,0.54,0.09,0.82,-0.05,0.13,-0.14,
0.109,-0.01,0.04,0.40,-0.05,0.13,-0.14,
0.126,-0.01,0.04,0.40,-0.05,0.14,-0.13,
0.13,-0.01,0.04,0.40,-0.04,0.14,-0.11,
0.13,-0.01,0.04,0.40,-0.04,0.15,-0.08,
0.131,-0.01,0.04,0.40,-0.04,0.15,-0.07,
0.132,-0.01,0.04,0.40,-0.04,0.16,-0.04,
0.133,-0.38,-0.04,0.07,-0.04,0.16,-0.04,
0.134,-0.38,-0.04,0.07,-0.03,0.15,-0.02,
0.135,-0.38,-0.04,0.07,-0.03,0.15,0.00,
0.136,-0.38,-0.04,0.07,-0.02,0.15,0.03,
0.136,-0.38,-0.04,0.07,-0.02,0.15,0.04,
0.137,-0.38,-0.04,0.07,-0.02,0.14,0.06,
0.138,-0.46,-0.07,-0.06,-0.02,0.14,0.06,
0.138,-0.46,-0.07,-0.06,-0.01,0.14,0.08,
0.139,-0.46,-0.07,-0.06,-0.00,0.13,0.10,
0.139,-0.46,-0.07,-0.06,0.01,0.12,0.12,
0.139,-0.46,-0.07,-0.06,0.01,0.12,0.13,
0.14,-0.46,-0.07,-0.06,0.02,0.11,0.14,
0.14,-0.34,-0.01,-0.11,0.02,0.11,0.14,
0.141,-0.34,-0.01,-0.11,0.03,0.10,0.15,
0.141,-0.34,-0.01,-0.11,0.03,0.09,0.15,
0.142,-0.34,-0.01,-0.11,0.04,0.07,0.16,
0.142,-0.34,-0.01,-0.11,0.05,0.07,0.16,
0.142,-0.34,-0.01,-0.11,0.05,0.05,0.17,
0.143,-0.14,0.08,-0.24,0.05,0.05,0.17,
0.143,-0.14,0.08,-0.24,0.05,0.04,0.17,
0.144,-0.14,0.08,-0.24,0.06,0.03,0.17,
0.144,-0.14,0.08,-0.24,0.06,0.02,0.16,
0.144,-0.14,0.08,-0.24,0.06,0.01,0.16,
0.145,-0.14,0.08,-0.24,0.06,0.00,0.15,
0.145,0.12,0.19,-0.42,0.06,0.00,0.15,
0.146,0.12,0.19,-0.42,0.06,-0.01,0.15,
0.146,0.12,0.19,-0.42,0.05,-0.02,0.14,
0.153,0.12,0.19,-0.42,0.04,-0.03,0.12,
0.154,0.12,0.19,-0.42,0.04,-0.04,0.12,
0.154,0.12,0.19,-0.42,0.03,-0.05,0.11,
0.155,0.35,0.26,-0.63,0.03,-0.05,0.11,
0.155,0.35,0.26,-0.63,0.02,-0.06,0.09,
0.157,0.35,0.26,-0.63,0.01,-0.06,0.08,
0.159,0.35,0.26,-0.63,-0.01,-0.07,0.05,
0.16,0.35,0.26,-0.63,-0.02,-0.08,0.05,
0.162,0.35,0.26,-0.63,-0.03,-0.08,0.03,
0.164,0.47,0.36,-0.76,-0.03,-0.08,0.03,
0.164,0.47,0.36,-0.76,-0.05,-0.09,0.01,
0.166,0.47,0.36,-0.76,-0.06,-0.09,-0.01,
0.168,0.47,0.36,-0.76,-0.08,-0.10,-0.04,
0.17,0.47,0.36,-0.76,-0.09,-0.10,-0.05,
0.171,0.47,0.36,-0.76,-0.10,-0.09,-0.07,
0.176,0.45,0.39,-0.69,-0.10,-0.09,-0.07,
0.176,0.45,0.39,-0.69,-0.12,-0.09,-0.09,
0.177,0.45,0.39,-0.69,-0.13,-0.09,-0.11,
0.178,0.45,0.39,-0.69,-0.16,-0.09,-0.14,
0.179,0.45,0.39,-0.69,-0.16,-0.09,-0.15,
0.181,0.45,0.39,-0.69,-0.18,-0.08,-0.17,
0.183,0.27,0.41,-0.59,-0.18,-0.08,-0.17,
0.184,0.27,0.41,-0.59,-0.19,-0.08,-0.19,
0.186,0.27,0.41,-0.59,-0.21,-0.07,-0.20,
0.197,0.27,0.41,-0.59,-0.23,-0.07,-0.22,
0.198,0.27,0.41,-0.59,-0.23,-0.07,-0.23,
0.198,0.27,0.41,-0.59,-0.25,-0.07,-0.24,
0.199,-0.17,0.31,-0.37,-0.25,-0.07,-0.24,
0.199,-0.17,0.31,-0.37,-0.26,-0.07,-0.26,
0.2,-0.17,0.31,-0.37,-0.27,-0.07,-0.26,
0.2,-0.17,0.31,-0.37,-0.28,-0.07,-0.27,
0.201,-0.17,0.31,-0.37,-0.28,-0.07,-0.27,
0.202,-0.17,0.31,-0.37,-0.28,-0.07,-0.28,
0.219,-0.47,0.16,-0.07,-0.28,-0.07,-0.28,
0.22,-0.47,0.16,-0.07,-0.29,-0.07,-0.28,
0.22,-0.47,0.16,-0.07,-0.29,-0.07,-0.28,
0.221,-0.47,0.16,-0.07,-0.29,-0.07,-0.28,
0.221,-0.47,0.16,-0.07,-0.29,-0.07,-0.28,
0.222,-0.47,0.16,-0.07,-0.29,-0.07,-0.27,
0.222,-0.62,-0.04,0.13,-0.29,-0.07,-0.27,
0.222,-0.62,-0.04,0.13,-0.29,-0.08,-0.27,
0.223,-0.62,-0.04,0.13,-0.29,-0.08,-0.26,
0.224,-0.62,-0.04,0.13,-0.29,-0.09,-0.25,
0.225,-0.62,-0.04,0.13,-0.28,-0.09,-0.25,
0.225,-0.62,-0.04,0.13,-0.29,-0.09,-0.24,
0.226,-0.62,-0.19,0.13,-0.29,-0.09,-0.24,
0.226,-0.62,-0.19,0.13,-0.29,-0.09,-0.23,
0.227,-0.62,-0.19,0.13,-0.29,-0.09,-0.22,
0.23,-0.62,-0.19,0.13,-0.29,-0.09,-0.21,
0.231,-0.62,-0.19,0.13,-0.30,-0.08,-0.20,
0.232,-0.62,-0.19,0.13,-0.31,-0.08,-0.19,
0.234,-0.69,-0.21,-0.07,-0.31,-0.08,-0.19,
0.235,-0.69,-0.21,-0.07,-0.31,-0.07,-0.18,
0.235,-0.69,-0.21,-0.07,-0.33,-0.06,-0.17,
0.24,-0.69,-0.21,-0.07,-0.35,-0.04,-0.15,
0.241,-0.69,-0.21,-0.07,-0.35,-0.04,-0.14,
0.242,-0.69,-0.21,-0.07,-0.37,-0.02,-0.13,
0.243,-0.71,-0.25,-0.37,-0.37,-0.02,-0.13,
0.244,-0.71,-0.25,-0.37,-0.39,-0.01,-0.12,
0.245,-0.71,-0.25,-0.37,-0.42,0.00,-0.10,
0.248,-0.71,-0.25,-0.37,-0.45,0.02,-0.08,
0.249,-0.71,-0.25,-0.37,-0.46,0.03,-0.08,
0.251,-0.71,-0.25,-0.37,-0.49,0.04,-0.06,
0.253,-0.73,-0.22,-0.65,-0.49,0.04,-0.06,
0.254,-0.73,-0.22,-0.65,-0.51,0.05,-0.05,
0.256,-0.73,-0.22,-0.65,-0.54,0.05,-0.04,
0.259,-0.73,-0.22,-0.65,-0.58,0.06,-0.02,
0.26,-0.73,-0.22,-0.65,-0.59,0.06,-0.01,
0.291,-0.73,-0.22,-0.65,-0.62,0.07,-0.01,
0.292,-0.63,-0.10,-0.70,-0.62,0.07,-0.01,
0.292,-0.63,-0.10,-0.70,-0.65,0.08,0.00,
0.292,-0.63,-0.10,-0.70,-0.68,0.09,0.01,
0.293,-0.63,-0.10,-0.70,-0.73,0.10,0.01,
0.293,-0.63,-0.10,-0.70,-0.74,0.10,0.01,
0.294,-0.63,-0.10,-0.70,-0.77,0.11,0.01,
0.294,-0.56,0.04,-0.61,-0.77,0.11,0.01,
0.295,-0.56,0.04,-0.61,-0.80,0.11,0.01,
0.295,-0.56,0.04,-0.61,-0.83,0.11,0.00,
0.296,-0.56,0.04,-0.61,-0.87,0.10,-0.00,
0.296,-0.56,0.04,-0.61,-0.89,0.10,-0.01,
0.297,-0.56,0.04,-0.61,-0.92,0.08,-0.01,
0.297,-0.63,0.16,-0.47,-0.92,0.08,-0.01,
0.298,-0.63,0.16,-0.47,-0.95,0.07,-0.02,
0.298,-0.63,0.16,-0.47,-0.98,0.06,-0.03,
0.298,-0.63,0.16,-0.47,-1.02,0.05,-0.04,
0.299,-0.63,0.16,-0.47,-1.03,0.05,-0.05,
0.299,-0.63,0.16,-0.47,-1.06,0.03,-0.06,
0.299,-0.79,0.16,-0.42,-1.06,0.03,-0.06,
0.299,-0.79,0.16,-0.42,-1.09,0.03,-0.06,
0.3,-0.79,0.16,-0.42,-1.12,0.02,-0.07,
0.3,-0.79,0.16,-0.42,-1.16,0.02,-0.08,
0.3,-0.79,0.16,-0.42,-1.18,0.02,-0.08,
0.306,-0.79,0.16,-0.42,-1.20,0.02,-0.09,
0.307,-0.61,0.13,-0.37,-1.20,0.02,-0.09,
0.307,-0.61,0.13,-0.37,-1.23,0.01,-0.10,
0.307,-0.61,0.13,-0.37,-1.25,-0.00,-0.10,
0.315,-0.61,0.13,-0.37,-1.28,-0.01,-0.11,
0.316,-0.61,0.13,-0.37,-1.29,-0.02,-0.11,
0.316,-0.61,0.13,-0.37,-1.31,-0.03,-0.12,
0.316,-0.22,-0.08,-0.27,-1.31,-0.03,-0.12,
0.317,-0.22,-0.08,-0.27,-1.33,-0.03,-0.12,
0.317,-0.22,-0.08,-0.27,-1.35,-0.03,-0.13,
0.318,-0.22,-0.08,-0.27,-1.39,-0.01,-0.14,
0.319,-0.22,-0.08,-0.27,-1.40,-0.01,-0.15,
0.335,-0.22,-0.08,-0.27,-1.42,0.02,-0.15,
0.336,0.11,-0.28,-0.38,-1.42,0.02,-0.15,
0.336,0.11,-0.28,-0.38,-1.43,0.07,-0.16,
0.338,0.11,-0.28,-0.38,-1.44,0.13,-0.16,
0.338,0.11,-0.28,-0.38,-1.44,0.22,-0.16,
0.338,0.11,-0.28,-0.38,-1.44,0.25,-0.16,
0.339,0.11,-0.28,-0.38,-1.44,0.29,-0.16,
0.339,0.30,-0.11,-0.10,-1.44,0.29,-0.16,
0.339,0.30,-0.11,-0.10,-1.45,0.33,-0.17,
0.339,0.30,-0.11,-0.10,-1.45,0.37,-0.18,
0.339,0.30,-0.11,-0.10,-1.47,0.41,-0.19,
0.339,0.30,-0.11,-0.10,-1.47,0.43,-0.19,
0.341,0.30,-0.11,-0.10,-1.48,0.45,-0.20,
0.343,0.36,-0.37,-0.12,-1.48,0.45,-0.20,
0.344,0.36,-0.37,-0.12,-1.50,0.47,-0.21,
0.346,0.36,-0.37,-0.12,-1.53,0.50,-0.22,
0.348,0.36,-0.37,-0.12,-1.57,0.54,-0.23,
0.35,0.36,-0.37,-0.12,-1.58,0.55,-0.23,
0.351,0.36,-0.37,-0.12,-1.62,0.57,-0.24,
0.353,0.02,-0.50,-0.74,-1.62,0.57,-0.24,
0.354,0.02,-0.50,-0.74,-1.65,0.59,-0.24,
0.357,0.02,-0.50,-0.74,-1.69,0.59,-0.25,
0.358,0.02,-0.50,-0.74,-1.75,0.58,-0.25,
0.359,0.02,-0.50,-0.74,-1.77,0.58,-0.24,
0.361,0.02,-0.50,-0.74,-1.81,0.55,-0.24,
0.363,-0.59,-0.36,-1.04,-1.81,0.55,-0.24,
0.364,-0.59,-0.36,-1.04,-1.85,0.52,-0.24,
0.366,-0.59,-0.36,-1.04,-1.90,0.46,-0.23,
0.368,-0.59,-0.36,-1.04,-1.94,0.42,-0.23,
0.369,-0.59,-0.36,-1.04,-1.97,0.38,-0.22,
0.374,-0.59,-0.36,-1.04,-1.99,0.36,-0.22,
0.375,-0.97,-0.15,-0.97,-1.99,0.36,-0.22,
0.375,-0.97,-0.15,-0.97,-2.01,0.32,-0.21,
0.377,-0.97,-0.15,-0.97,-2.04,0.28,-0.20,
0.379,-0.97,-0.15,-0.97,-2.07,0.22,-0.19,
0.379,-0.97,-0.15,-0.97,-2.07,0.21,-0.18,
0.382,-0.97,-0.15,-0.97,-2.09,0.18,-0.17,
0.384,-0.98,-0.10,-0.70,-2.09,0.18,-0.17,
0.385,-0.98,-0.10,-0.70,-2.10,0.15,-0.16,
0.385,-0.98,-0.10,-0.70,-2.10,0.12,-0.15,
0.389,-0.98,-0.10,-0.70,-2.11,0.08,-0.14,
0.39,-0.98,-0.10,-0.70,-2.11,0.06,-0.13,
0.392,-0.98,-0.10,-0.70,-2.11,0.04,-0.12,
0.394,-0.64,-0.25,-0.31,-2.11,0.04,-0.12,
0.394,-0.64,-0.25,-0.31,-2.10,0.01,-0.11,
0.395,-0.64,-0.25,-0.31,-2.10,-0.02,-0.11,
0.398,-0.64,-0.25,-0.31,-2.09,-0.05,-0.10,
0.399,-0.64,-0.25,-0.31,-2.09,-0.06,-0.09,
0.402,-0.64,-0.25,-0.31,-2.09,-0.08,-0.09,
0.405,-0.10,-0.43,-0.14,-2.09,-0.08,-0.09,
0.405,-0.10,-0.43,-0.14,-2.08,-0.11,-0.09,
0.405,-0.10,-0.43,-0.14,-2.08,-0.13,-0.08,
0.409,-0.10,-0.43,-0.14,-2.09,-0.17,-0.08,
0.41,-0.10,-0.43,-0.14,-2.09,-0.19,-0.08,
0.411,-0.10,-0.43,-0.14,-2.10,-0.24,-0.08,
0.413,0.18,-0.54,-0.47,-2.10,-0.24,-0.08,
0.414,0.18,-0.54,-0.47,-2.11,-0.29,-0.08,
0.415,0.18,-0.54,-0.47,-2.13,-0.35,-0.08,
0.418,0.18,-0.54,-0.47,-2.16,-0.44,-0.07,
0.42,0.18,-0.54,-0.47,-2.18,-0.51,-0.07,
0.423,0.18,-0.54,-0.47,-2.19,-0.55,-0.08,
0.424,0.35,-0.48,-1.15,-2.19,-0.55,-0.08,
0.424,0.35,-0.48,-1.15,-2.22,-0.62,-0.08,
0.425,0.35,-0.48,-1.15,-2.25,-0.70,-0.08,
0.457,0.35,-0.48,-1.15,-2.29,-0.82,-0.08,
0.457,0.35,-0.48,-1.15,-2.31,-0.86,-0.08,
0.458,0.35,-0.48,-1.15,-2.34,-0.94,-0.09,
0.458,0.53,-0.23,-1.75,-2.34,-0.94,-0.09,
0.459,0.53,-0.23,-1.75,-2.36,-1.04,-0.09,
0.459,0.53,-0.23,-1.75,-2.38,-1.14,-0.10,
0.46,0.53,-0.23,-1.75,-2.41,-1.29,-0.11,
0.46,0.53,-0.23,-1.75,-2.41,-1.35,-0.12,
0.46,0.53,-0.23,-1.75,-2.42,-1.47,-0.13,
0.461,0.64,0.25,-1.71,-2.42,-1.47,-0.13,
0.461,0.64,0.25,-1.71,-2.42,-1.59,-0.14,
0.462,0.64,0.25,-1.71,-2.41,-1.70,-0.16,
0.462,0.64,0.25,-1.71,-2.38,-1.87,-0.19,
0.462,0.64,0.25,-1.71,-2.36,-1.92,-0.20,
0.463,0.64,0.25,-1.71,-2.33,-2.02,-0.22,
0.463,0.60,0.64,-0.79,-2.33,-2.02,-0.22,
0.464,0.60,0.64,-0.79,-2.31,-2.08,-0.24,
0.464,0.60,0.64,-0.79,-2.30,-2.11,-0.25,
0.464,0.60,0.64,-0.79,-2.30,-2.09,-0.26,
0.465,0.60,0.64,-0.79,-2.29,-2.06,-0.26,
0.465,0.60,0.64,-0.79,-2.27,-2.05,-0.26,
0.466,0.25,0.81,0.26,-2.27,-2.05,-0.26,
0.466,0.25,0.81,0.26,-2.23,-2.01,-0.25,
0.467,0.25,0.81,0.26,-2.17,-1.95,-0.24,
0.469,0.25,0.81,0.26,-2.07,-1.82,-0.20,
0.47,0.25,0.81,0.26,-2.03,-1.76,-0.18,
0.486,0.25,0.81,0.26,-1.95,-1.64,-0.13,
0.486,-1.20,1.60,1.89,-1.95,-1.64,-0.13,
0.487,-1.20,1.60,1.89,-1.87,-1.52,-0.07,
0.487,-1.20,1.60,1.89,-1.79,-1.40,-0.01,
0.487,-1.20,1.60,1.89,-1.67,-1.24,0.11,
0.488,-1.20,1.60,1.89,-1.63,-1.20,0.15,
0.488,-1.20,1.60,1.89,-1.54,-1.14,0.24,
0.489,-2.20,1.57,3.61,-1.54,-1.14,0.24,
0.489,-2.20,1.57,3.61,-1.47,-1.09,0.33,
0.489,-2.20,1.57,3.61,-1.40,-1.06,0.42,
0.49,-2.20,1.57,3.61,-1.30,-1.03,0.56,
0.49,-2.20,1.57,3.61,-1.26,-1.02,0.60,
0.499,-2.20,1.57,3.61,-1.20,-1.01,0.69,
0.5,-1.51,0.80,4.47,-1.20,-1.01,0.69,
0.5,-1.51,0.80,4.47,-1.15,-1.00,0.79,
0.501,-1.51,0.80,4.47,-1.09,-0.99,0.88,
0.502,-1.51,0.80,4.47,-1.01,-0.97,1.02,
0.502,-1.51,0.80,4.47,-0.99,-0.96,1.07,
0.502,-1.51,0.80,4.47,-0.94,-0.94,1.17,
0.531,-1.02,-0.04,4.15,-0.94,-0.94,1.17,
0.532,-1.02,-0.04,4.15,-0.90,-0.90,1.26,
0.533,-1.02,-0.04,4.15,-0.86,-0.85,1.35,
0.533,-1.02,-0.04,4.15,-0.81,-0.76,1.47,
0.533,-1.02,-0.04,4.15,-0.79,-0.73,1.50,
0.534,-1.02,-0.04,4.15,-0.76,-0.66,1.56,
0.534,-0.54,-0.44,3.14,-0.76,-0.66,1.56,
0.534,-0.54,-0.44,3.14,-0.73,-0.60,1.61,
0.534,-0.54,-0.44,3.14,-0.70,-0.53,1.65,
0.535,-0.54,-0.44,3.14,-0.67,-0.45,1.70,
0.535,-0.54,-0.44,3.14,-0.64,-0.40,1.73,
0.535,-0.54,-0.44,3.14,-0.62,-0.38,1.73,
0.536,0.62,-0.25,2.35,-0.62,-0.38,1.73,
0.536,0.62,-0.25,2.35,-0.59,-0.33,1.75,
0.536,0.62,-0.25,2.35,-0.56,-0.29,1.75,
0.536,0.62,-0.25,2.35,-0.52,-0.25,1.75,
0.537,0.62,-0.25,2.35,-0.50,-0.24,1.75,
0.537,0.62,-0.25,2.35,-0.46,-0.21,1.74,
0.537,1.61,-0.07,2.26,-0.46,-0.21,1.74,
0.538,1.61,-0.07,2.26,-0.42,-0.20,1.73,
0.538,1.61,-0.07,2.26,-0.37,-0.19,1.71,
0.538,1.61,-0.07,2.26,-0.30,-0.19,1.69,
0.547,1.61,-0.07,2.26,-0.27,-0.20,1.68,
0.551,1.61,-0.07,2.26,-0.22,-0.21,1.66,
0.552,2.33,0.09,2.73,-0.22,-0.21,1.66,
0.552,2.33,0.09,2.73,-0.17,-0.22,1.63,
0.553,2.33,0.09,2.73,-0.12,-0.24,1.61,
0.554,2.33,0.09,2.73,-0.04,-0.27,1.57,
0.554,2.33,0.09,2.73,0.00,-0.30,1.55,
0.566,2.33,0.09,2.73,0.03,-0.30,1.54,
0.568,2.61,0.24,2.53,0.03,-0.30,1.54,
0.572,2.61,0.24,2.53,0.07,-0.32,1.51,
0.572,2.61,0.24,2.53,0.11,-0.33,1.48,
0.572,2.61,0.24,2.53,0.17,-0.35,1.43,
0.573,2.61,0.24,2.53,0.19,-0.35,1.42,
0.573,2.61,0.24,2.53,0.22,-0.37,1.38,
0.573,2.93,0.37,1.79,0.22,-0.37,1.38,
0.574,2.93,0.37,1.79,0.26,-0.38,1.35,
0.574,2.93,0.37,1.79,0.29,-0.40,1.31,
0.574,2.93,0.37,1.79,0.34,-0.43,1.26,
0.574,2.93,0.37,1.79,0.36,-0.44,1.24,
0.575,2.93,0.37,1.79,0.39,-0.46,1.21,
0.575,3.19,0.33,1.07,0.39,-0.46,1.21,
0.575,3.19,0.33,1.07,0.43,-0.50,1.17,
0.578,3.19,0.33,1.07,0.46,-0.53,1.14,
0.581,3.19,0.33,1.07,0.51,-0.57,1.10,
0.584,3.19,0.33,1.07,0.52,-0.59,1.09,
0.585,3.19,0.33,1.07,0.56,-0.62,1.07,
0.586,3.17,0.09,0.29,0.56,-0.62,1.07,
0.587,3.17,0.09,0.29,0.59,-0.64,1.05,
0.587,3.17,0.09,0.29,0.62,-0.67,1.03,
0.589,3.17,0.09,0.29,0.67,-0.70,1.01,
0.592,3.17,0.09,0.29,0.70,-0.73,1.01,
0.593,3.17,0.09,0.29,0.71,-0.73,1.00,
0.593,2.50,-0.30,-0.46,0.71,-0.73,1.00,
0.623,2.50,-0.30,-0.46,0.74,-0.76,1.00,
0.623,2.50,-0.30,-0.46,0.78,-0.78,1.00,
0.624,2.50,-0.30,-0.46,0.82,-0.82,0.99,
0.624,2.50,-0.30,-0.46,0.85,-0.84,0.99,
0.624,2.50,-0.30,-0.46,0.87,-0.84,0.99,
0.625,1.63,-0.73,-1.02,0.87,-0.84,0.99,
0.625,1.63,-0.73,-1.02,0.90,-0.85,0.99,
0.626,1.63,-0.73,-1.02,0.92,-0.85,0.99,
0.626,1.63,-0.73,-1.02,0.95,-0.84,0.98,
0.627,1.63,-0.73,-1.02,0.97,-0.82,0.97,
0.627,1.63,-0.73,-1.02,0.97,-0.80,0.97,
0.627,0.55,-1.08,-1.49,0.97,-0.80,0.97,
0.628,0.55,-1.08,-1.49,0.98,-0.78,0.96,
0.628,0.55,-1.08,-1.49,0.99,-0.75,0.94,
0.629,0.55,-1.08,-1.49,1.00,-0.72,0.92,
0.629,0.55,-1.08,-1.49,1.00,-0.69,0.90,
0.629,0.55,-1.08,-1.49,0.99,-0.68,0.89,
0.63,-0.23,-1.47,-1.23,0.99,-0.68,0.89,
0.63,-0.23,-1.47,-1.23,0.99,-0.66,0.86,
0.631,-0.23,-1.47,-1.23,0.98,-0.64,0.84,
0.631,-0.23,-1.47,-1.23,0.95,-0.60,0.79,
0.631,-0.23,-1.47,-1.23,0.93,-0.59,0.76,
0.632,-0.23,-1.47,-1.23,0.91,-0.58,0.74,
0.639,-0.72,-1.62,-1.01,0.91,-0.58,0.74,
0.639,-0.72,-1.62,-1.01,0.88,-0.57,0.71,
0.639,-0.72,-1.62,-1.01,0.84,-0.55,0.67,
0.64,-0.72,-1.62,-1.01,0.77,-0.51,0.62,
0.64,-0.72,-1.62,-1.01,0.71,-0.48,0.59,
0.641,-0.72,-1.62,-1.01,0.68,-0.47,0.57,
0.645,-1.42,-1.57,-1.05,0.68,-0.47,0.57,
0.645,-1.42,-1.57,-1.05,0.62,-0.44,0.54,
0.645,-1.42,-1.57,-1.05,0.56,-0.41,0.51,
0.649,-1.42,-1.57,-1.05,0.45,-0.39,0.47,
0.65,-1.42,-1.57,-1.05,0.37,-0.38,0.45,
0.651,-1.42,-1.57,-1.05,0.33,-0.37,0.44,
0.656,-2.02,-1.21,-1.11,0.33,-0.37,0.44,
0.656,-2.02,-1.21,-1.11,0.25,-0.32,0.42,
0.657,-2.02,-1.21,-1.11,0.17,-0.22,0.41,
0.658,-2.02,-1.21,-1.11,0.07,0.01,0.40,
0.659,-2.02,-1.21,-1.11,0.02,0.20,0.39,
0.662,-2.02,-1.21,-1.11,-0.00,0.30,0.39,
0.664,-2.59,-0.80,0.07,-0.00,0.30,0.39,
0.665,-2.59,-0.80,0.07,-0.03,0.48,0.38,
0.665,-2.59,-0.80,0.07,-0.04,0.62,0.38,
0.669,-2.59,-0.80,0.07,-0.04,0.74,0.39,
0.678,-2.59,-0.80,0.07,-0.01,0.74,0.39,
0.678,-2.59,-0.80,0.07,0.01,0.72,0.39,
0.678,-1.57,-0.57,1.00,0.01,0.72,0.39,
0.679,-1.57,-0.57,1.00,0.04,0.67,0.39,
0.679,-1.57,-0.57,1.00,0.09,0.58,0.39,
0.679,-1.57,-0.57,1.00,0.19,0.37,0.39,
0.679,-1.57,-0.57,1.00,0.27,0.22,0.39,
0.681,-1.57,-0.57,1.00,0.31,0.14,0.39,
0.683,0.08,-0.22,1.83,0.31,0.14,0.39,
0.684,0.08,-0.22,1.83,0.40,0.00,0.40,
0.685,0.08,-0.22,1.83,0.49,-0.12,0.40,
0.688,0.08,-0.22,1.83,0.64,-0.26,0.40,
0.69,0.08,-0.22,1.83,0.75,-0.34,0.40,
0.691,0.08,-0.22,1.83,0.80,-0.38,0.40,
0.694,0.48,-0.33,2.43,0.80,-0.38,0.40,
0.694,0.48,-0.33,2.43,0.90,-0.44,0.40,
0.695,0.48,-0.33,2.43,1.00,-0.50,0.41,
0.698,0.48,-0.33,2.43,1.15,-0.56,0.41,
0.699,0.48,-0.33,2.43,1.25,-0.59,0.41,
0.702,0.48,-0.33,2.43,1.29,-0.60,0.41,
0.704,0.53,-0.50,1.90,1.29,-0.60,0.41,
0.704,0.53,-0.50,1.90,1.38,-0.62,0.41,
0.705,0.53,-0.50,1.90,1.47,-0.62,0.41,
0.709,0.53,-0.50,1.90,1.60,-0.63,0.41,
0.71,0.53,-0.50,1.90,1.68,-0.63,0.40,
0.711,0.53,-0.50,1.90,1.72,-0.63,0.40,
0.714,0.79,-0.63,1.14,1.72,-0.63,0.40,
0.714,0.79,-0.63,1.14,1.79,-0.64,0.40,
0.716,0.79,-0.63,1.14,1.89,-0.65,0.40,
0.718,0.79,-0.63,1.14,1.94,-0.65,0.39,
0.72,0.79,-0.63,1.14,1.95,-0.66,0.38,
0.722,0.79,-0.63,1.14,1.97,-0.69,0.37,
0.723,1.25,-0.29,0.03,1.97,-0.69,0.37,
0.724,1.25,-0.29,0.03,1.95,-0.73,0.35,
0.725,1.25,-0.29,0.03,1.92,-0.78,0.33,
0.728,1.25,-0.29,0.03,1.81,-0.90,0.28,
0.729,1.25,-0.29,0.03,1.71,-0.98,0.25,
0.731,1.25,-0.29,0.03,1.66,-1.03,0.23,
0.734,1.31,0.43,-1.85,1.66,-1.03,0.23,
0.734,1.31,0.43,-1.85,1.55,-1.11,0.20,
0.737,1.31,0.43,-1.85,1.43,-1.18,0.16,
0.741,1.31,0.43,-1.85,1.25,-1.27,0.12,
0.741,1.31,0.43,-1.85,1.15,-1.31,0.10,
0.742,1.31,0.43,-1.85,1.10,-1.33,0.10,
0.744,0.77,0.77,-2.81,1.10,-1.33,0.10,
0.744,0.77,0.77,-2.81,1.02,-1.35,0.09,
0.746,0.77,0.77,-2.81,0.96,-1.35,0.09,
0.748,0.77,0.77,-2.81,0.87,-1.32,0.10,
0.75,0.77,0.77,-2.81,0.83,-1.29,0.12,
0.751,0.77,0.77,-2.81,0.82,-1.27,0.12,
0.763,0.08,0.48,-2.08,0.82,-1.27,0.12,
0.764,0.08,0.48,-2.08,0.79,-1.22,0.14,
0.764,0.08,0.48,-2.08,0.76,-1.15,0.16,
0.765,0.08,0.48,-2.08,0.74,-1.05,0.20,
0.765,0.08,0.48,-2.08,0.72,-0.97,0.23,
0.799,0.08,0.48,-2.08,0.72,-0.93,0.25,
0.799,-0.38,0.11,-1.23,0.72,-0.93,0.25,
0.8,-0.38,0.11,-1.23,0.71,-0.86,0.28,
0.8,-0.38,0.11,-1.23,0.70,-0.79,0.32,
0.801,-0.38,0.11,-1.23,0.68,-0.68,0.39,
0.801,-0.38,0.11,-1.23,0.66,-0.62,0.44,
0.802,-0.38,0.11,-1.23,0.65,-0.59,0.46,
0.802,-0.83,-0.16,-0.98,0.65,-0.59,0.46,
0.802,-0.83,-0.16,-0.98,0.64,-0.54,0.51,
0.803,-0.83,-0.16,-0.98,0.62,-0.50,0.56,
0.803,-0.83,-0.16,-0.98,0.60,-0.45,0.64,
0.804,-0.83,-0.16,-0.98,0.59,-0.44,0.69,
0.804,-0.83,-0.16,-0.98,0.59,-0.44,0.74,
0.804,-0.72,-0.29,-0.41,0.59,-0.44,0.74,
0.805,-0.72,-0.29,-0.41,0.59,-0.45,0.79,
0.805,-0.72,-0.29,-0.41,0.61,-0.48,0.84,
0.806,-0.72,-0.29,-0.41,0.63,-0.51,0.89,
0.806,-0.72,-0.29,-0.41,0.66,-0.55,0.93,
0.807,-0.72,-0.29,-0.41,0.70,-0.60,0.97,
0.807,-0.14,-0.33,0.77,0.70,-0.60,0.97,
0.807,-0.14,-0.33,0.77,0.75,-0.66,1.01,
0.808,-0.14,-0.33,0.77,0.80,-0.72,1.03,
0.808,-0.14,-0.33,0.77,0.85,-0.80,1.05,
0.809,-0.14,-0.33,0.77,0.92,-0.89,1.06,
0.809,-0.14,-0.33,0.77,0.98,-0.98,1.07,
0.809,0.58,-0.50,1.64,0.98,-0.98,1.07,
0.81,0.58,-0.50,1.64,1.05,-1.08,1.06,
0.81,0.58,-0.50,1.64,1.12,-1.18,1.05,
0.811,0.58,-0.50,1.64,1.19,-1.28,1.02,
0.811,0.58,-0.50,1.64,1.26,-1.38,0.99,
0.811,0.58,-0.50,1.64,1.32,-1.47,0.95,
0.816,1.07,-0.49,1.94,1.32,-1.47,0.95,
0.817,1.07,-0.49,1.94,1.37,-1.55,0.89,
0.818,1.07,-0.49,1.94,1.42,-1.62,0.82,
0.818,1.07,-0.49,1.94,1.46,-1.68,0.75,
0.83,1.07,-0.49,1.94,1.50,-1.73,0.67,
0.831,1.07,-0.49,1.94,1.52,-1.78,0.58,
0.831,1.48,-0.47,1.52,1.52,-1.78,0.58,
0.831,1.48,-0.47,1.52,1.55,-1.82,0.49,
0.832,1.48,-0.47,1.52,1.60,-1.87,0.20,
0.832,1.48,-0.47,1.52,1.60,-1.87,0.20,
0.833,1.48,-0.47,1.52,1.60,-1.87,0.20,
0.833,1.48,-0.47,1.52,1.61,-1.88,0.11,
0.833,1.47,-0.33,1.16,1.61,-1.88,0.11,
0.834,1.47,-0.33,1.16,1.63,-1.87,0.03,
0.837,1.47,-0.33,1.16,1.65,-1.85,-0.05,
0.839,1.47,-0.33,1.16,1.66,-1.81,-0.12,
0.84,1.47,-0.33,1.16,1.66,-1.75,-0.17,
0.841,1.47,-0.33,1.16,1.66,-1.69,-0.22,
0.844,0.89,-0.25,0.75,1.66,-1.69,-0.22,
0.844,0.89,-0.25,0.75,1.67,-1.62,-0.26,
0.845,0.89,-0.25,0.75,1.67,-1.54,-0.28,
0.848,0.89,-0.25,0.75,1.67,-1.45,-0.30,
0.85,0.89,-0.25,0.75,1.67,-1.36,-0.30,
0.852,0.89,-0.25,0.75,1.67,-1.27,-0.29,
0.86,0.00,-0.33,0.26,1.67,-1.27,-0.29,
0.861,0.00,-0.33,0.26,1.67,-1.18,-0.28,
0.862,0.00,-0.33,0.26,1.66,-1.10,-0.25,
0.863,0.00,-0.33,0.26,1.65,-1.02,-0.22,
0.863,0.00,-0.33,0.26,1.63,-0.94,-0.18,
0.864,0.00,-0.33,0.26,1.61,-0.87,-0.14,
0.865,-0.65,-0.38,-0.31,1.61,-0.87,-0.14,
0.866,-0.65,-0.38,-0.31,1.58,-0.81,-0.10,
0.867,-0.65,-0.38,-0.31,1.54,-0.74,-0.06,
0.87,-0.65,-0.38,-0.31,1.49,-0.69,-0.03,
0.871,-0.65,-0.38,-0.31,1.43,-0.63,0.01,
0.873,-0.65,-0.38,-0.31,1.36,-0.58,0.04,
0.875,-0.60,-0.32,-1.30,1.36,-0.58,0.04,
0.876,-0.60,-0.32,-1.30,1.29,-0.53,0.06,
0.876,-0.60,-0.32,-1.30,1.22,-0.49,0.08,
0.879,-0.60,-0.32,-1.30,1.14,-0.44,0.10,
0.88,-0.60,-0.32,-1.30,1.07,-0.39,0.11,
0.882,-0.60,-0.32,-1.30,0.99,-0.33,0.12,
0.884,-0.13,-0.20,-1.90,0.99,-0.33,0.12,
0.885,-0.13,-0.20,-1.90,0.92,-0.27,0.13,
0.888,-0.13,-0.20,-1.90,0.85,-0.22,0.14,
0.891,-0.13,-0.20,-1.90,0.79,-0.16,0.14,
0.892,-0.13,-0.20,-1.90,0.73,-0.10,0.15,
0.893,-0.13,-0.20,-1.90,0.67,-0.04,0.15,
0.894,0.21,-0.14,-1.57,0.67,-0.04,0.15,
0.895,0.21,-0.14,-1.57,0.63,0.01,0.15,
0.896,0.21,-0.14,-1.57,0.59,0.06,0.15,
0.899,0.21,-0.14,-1.57,0.53,0.11,0.16,
0.9,0.21,-0.14,-1.57,0.52,0.13,0.16,
0.904,0.21,-0.14,-1.57,0.49,0.16,0.16,
0.904,0.45,-0.17,-0.75,0.49,0.16,0.16,
0.904,0.45,-0.17,-0.75,0.47,0.18,0.16,
0.912,0.45,-0.17,-0.75,0.44,0.20,0.16,
0.914,0.45,-0.17,-0.75,0.43,0.21,0.16,
0.915,0.45,-0.17,-0.75,0.41,0.22,0.15,
0.915,0.45,-0.17,-0.75,0.40,0.23,0.15,
0.915,0.53,-0.10,-0.13,0.40,0.23,0.15,
0.916,0.53,-0.10,-0.13,0.38,0.24,0.15,
0.916,0.53,-0.10,-0.13,0.37,0.25,0.14,
0.941,0.53,-0.10,-0.13,0.36,0.25,0.12,
0.943,0.53,-0.10,-0.13,0.36,0.26,0.12,
0.944,0.53,-0.10,-0.13,0.35,0.25,0.11,
0.945,0.65,-0.16,0.24,0.35,0.25,0.11,
0.945,0.65,-0.16,0.24,0.35,0.25,0.10,
0.946,0.65,-0.16,0.24,0.35,0.24,0.09,
0.978,0.65,-0.16,0.24,0.36,0.22,0.08,
0.979,0.65,-0.16,0.24,0.37,0.20,0.07,
0.979,0.65,-0.16,0.24,0.38,0.17,0.05,
0.979,0.62,-0.02,0.68,0.38,0.17,0.05,
0.98,0.62,-0.02,0.68,0.39,0.14,0.04,
0.98,0.62,-0.02,0.68,0.41,0.11,0.03,
0.981,0.62,-0.02,0.68,0.43,0.08,0.01,
0.981,0.62,-0.02,0.68,0.44,0.04,0.00,
0.982,0.62,-0.02,0.68,0.47,0.01,-0.01,
0.982,0.72,0.00,0.93,0.47,0.01,-0.01,
0.982,0.72,0.00,0.93,0.49,-0.03,-0.02,
0.983,0.72,0.00,0.93,0.51,-0.06,-0.03,
0.983,0.72,0.00,0.93,0.53,-0.10,-0.05,
0.983,0.72,0.00,0.93,0.55,-0.13,-0.05,
0.984,0.72,0.00,0.93,0.57,-0.15,-0.06,
0.984,0.69,-0.03,0.80,0.57,-0.15,-0.06,
0.985,0.69,-0.03,0.80,0.59,-0.18,-0.07,
0.985,0.69,-0.03,0.80,0.61,-0.21,-0.08,
0.986,0.69,-0.03,0.80,0.62,-0.23,-0.09,
0.986,0.69,-0.03,0.80,0.63,-0.25,-0.10,
0.986,0.69,-0.03,0.80,0.65,-0.27,-0.11,
0.987,0.74,-0.03,0.51,0.65,-0.27,-0.11,
0.987,0.74,-0.03,0.51,0.66,-0.28,-0.12,
0.988,0.74,-0.03,0.51,0.66,-0.29,-0.13,
0.988,0.74,-0.03,0.51,0.67,-0.31,-0.15,
0.988,0.74,-0.03,0.51,0.68,-0.31,-0.15,
0.989,0.74,-0.03,0.51,0.68,-0.32,-0.16,
0.989,0.76,-0.01,0.15,0.68,-0.32,-0.16,
0.99,0.76,-0.01,0.15,0.68,-0.33,-0.17,
0.99,0.76,-0.01,0.15,0.69,-0.34,-0.18,
0.99,0.76,-0.01,0.15,0.69,-0.35,-0.19,
0.991,0.76,-0.01,0.15,0.69,-0.36,-0.20,
0.991,0.76,-0.01,0.15,0.69,-0.37,-0.21,
0.992,0.83,-0.01,-0.09,0.69,-0.37,-0.21,
0.992,0.83,-0.01,-0.09,0.69,-0.39,-0.22,
0.992,0.83,-0.01,-0.09,0.69,-0.40,-0.23,
0.993,0.83,-0.01,-0.09,0.69,-0.42,-0.24,
0.993,0.83,-0.01,-0.09,0.69,-0.43,-0.26,
0.994,0.83,-0.01,-0.09,0.69,-0.45,-0.27,
0.994,0.74,-0.01,-0.23,0.69,-0.45,-0.27,
0.995,0.74,-0.01,-0.23,0.69,-0.46,-0.28,
0.999,0.74,-0.01,-0.23,0.69,-0.47,-0.28,
1.0,0.74,-0.01,-0.23,0.68,-0.47,-0.30,
1.001,0.74,-0.01,-0.23,0.67,-0.47,-0.30,
1.011,0.74,-0.01,-0.23,0.66,-0.47,-0.30,
1.011,0.55,-0.00,-0.57,0.66,-0.47,-0.30,
1.011,0.55,-0.00,-0.57,0.65,-0.45,-0.31,
1.012,0.55,-0.00,-0.57,0.63,-0.43,-0.31,
1.012,0.55,-0.00,-0.57,0.60,-0.40,-0.31,
1.012,0.55,-0.00,-0.57,0.59,-0.39,-0.31,
1.012,0.55,-0.00,-0.57,0.57,-0.35,-0.31,
1.014,0.22,0.03,-1.03,0.57,-0.35,-0.31,
1.014,0.22,0.03,-1.03,0.54,-0.32,-0.30,
1.015,0.22,0.03,-1.03,0.51,-0.29,-0.29,
1.026,0.22,0.03,-1.03,0.47,-0.23,-0.28,
1.026,0.22,0.03,-1.03,0.45,-0.21,-0.28,
1.027,0.22,0.03,-1.03,0.42,-0.18,-0.27,
1.027,0.01,0.08,-1.44,0.42,-0.18,-0.27,
1.027,0.01,0.08,-1.44,0.38,-0.14,-0.26,
1.027,0.01,0.08,-1.44,0.34,-0.10,-0.25,
1.029,0.01,0.08,-1.44,0.28,-0.05,-0.23,
1.03,0.01,0.08,-1.44,0.26,-0.03,-0.22,
1.032,0.01,0.08,-1.44,0.23,-0.00,-0.21,
1.048,-0.08,0.12,-1.52,0.23,-0.00,-0.21,
1.049,-0.08,0.12,-1.52,0.19,0.03,-0.20,
1.05,-0.08,0.12,-1.52,0.16,0.06,-0.19,
1.05,-0.08,0.12,-1.52,0.11,0.10,-0.17,
1.051,-0.08,0.12,-1.52,0.10,0.12,-0.17,
1.051,-0.08,0.12,-1.52,0.07,0.14,-0.16,
1.052,-0.16,0.10,-1.11,0.07,0.14,-0.16,
1.054,-0.16,0.10,-1.11,0.06,0.16,-0.14,
1.055,-0.16,0.10,-1.11,0.04,0.18,-0.13,
1.056,-0.16,0.10,-1.11,0.02,0.21,-0.12,
1.058,-0.16,0.10,-1.11,0.02,0.21,-0.11,
1.058,-0.16,0.10,-1.11,0.01,0.22,-0.10,
1.059,-0.21,-0.02,-0.59,0.01,0.22,-0.10,
1.059,-0.21,-0.02,-0.59,0.01,0.22,-0.10,
1.06,-0.21,-0.02,-0.59,0.01,0.22,-0.09,
1.061,-0.21,-0.02,-0.59,0.02,0.21,-0.08,
1.061,-0.21,-0.02,-0.59,0.03,0.20,-0.08,
1.062,-0.21,-0.02,-0.59,0.04,0.18,-0.07,
1.064,-0.05,-0.13,0.04,0.04,0.18,-0.07,
1.066,-0.05,-0.13,0.04,0.05,0.16,-0.07,
1.067,-0.05,-0.13,0.04,0.07,0.13,-0.07,
1.069,-0.05,-0.13,0.04,0.10,0.10,-0.08,
1.07,-0.05,-0.13,0.04,0.11,0.08,-0.08,
1.071,-0.05,-0.13,0.04,0.14,0.05,-0.09,
1.073,0.12,-0.11,0.53,0.14,0.05,-0.09,
1.074,0.12,-0.11,0.53,0.16,0.03,-0.09,
1.075,0.12,-0.11,0.53,0.19,-0.00,-0.10,
1.078,0.12,-0.11,0.53,0.23,-0.04,-0.10,
1.079,0.12,-0.11,0.53,0.24,-0.05,-0.11,
1.081,0.12,-0.11,0.53,0.27,-0.08,-0.11,
1.083,0.14,-0.13,0.62,0.27,-0.08,-0.11,
1.084,0.14,-0.13,0.62,0.29,-0.10,-0.11,
1.086,0.14,-0.13,0.62,0.32,-0.13,-0.12,
1.088,0.14,-0.13,0.62,0.35,-0.17,-0.12,
1.089,0.14,-0.13,0.62,0.36,-0.18,-0.13,
1.091,0.14,-0.13,0.62,0.38,-0.21,-0.13,
1.094,0.15,-0.18,0.41,0.38,-0.21,-0.13,
1.125,0.15,-0.18,0.41,0.40,-0.24,-0.13,
1.126,0.15,-0.18,0.41,0.41,-0.26,-0.14,
1.126,0.15,-0.18,0.41,0.43,-0.29,-0.14,
1.127,0.15,-0.18,0.41,0.43,-0.30,-0.14,
1.127,0.15,-0.18,0.41,0.44,-0.32,-0.15,
1.128,0.19,-0.17,0.01,0.44,-0.32,-0.15,
1.128,0.19,-0.17,0.01,0.44,-0.32,-0.15,
1.129,0.19,-0.17,0.01,0.44,-0.33,-0.15,
1.13,0.19,-0.17,0.01,0.44,-0.32,-0.15,
1.13,0.19,-0.17,0.01,0.44,-0.31,-0.15,
1.131,0.19,-0.17,0.01,0.43,-0.30,-0.15,
1.132,0.04,-0.14,-0.51,0.43,-0.30,-0.15,
1.132,0.04,-0.14,-0.51,0.42,-0.28,-0.14,
1.134,0.04,-0.14,-0.51,0.41,-0.26,-0.14,
1.134,0.04,-0.14,-0.51,0.39,-0.22,-0.13,
1.135,0.04,-0.14,-0.51,0.38,-0.21,-0.13,
1.135,0.04,-0.14,-0.51,0.35,-0.18,-0.13,
1.136,0.02,-0.16,-0.95,0.35,-0.18,-0.13,
1.136,0.02,-0.16,-0.95,0.33,-0.16,-0.13,
1.136,0.02,-0.16,-0.95,0.31,-0.13,-0.12,
1.137,0.02,-0.16,-0.95,0.27,-0.09,-0.12,
1.137,0.02,-0.16,-0.95,0.26,-0.08,-0.11,
1.138,0.02,-0.16,-0.95,0.23,-0.05,-0.11,
1.138,0.01,-0.13,-1.17,0.23,-0.05,-0.11,
1.138,0.01,-0.13,-1.17,0.20,-0.03,-0.11,
1.139,0.01,-0.13,-1.17,0.18,-0.01,-0.10,
1.139,0.01,-0.13,-1.17,0.13,0.02,-0.09,
1.14,0.01,-0.13,-1.17,0.12,0.03,-0.09,
1.142,0.01,-0.13,-1.17,0.10,0.04,-0.08,
1.143,-0.09,-0.09,-1.04,0.10,0.04,-0.08,
1.144,-0.09,-0.09,-1.04,0.07,0.06,-0.08,
1.146,-0.09,-0.09,-1.04,0.06,0.07,-0.07,
1.148,-0.09,-0.09,-1.04,0.03,0.09,-0.07,
1.149,-0.09,-0.09,-1.04,0.02,0.09,-0.07,
1.153,-0.09,-0.09,-1.04,0.01,0.10,-0.06,
1.154,-0.01,-0.19,-0.69,0.01,0.10,-0.06,
1.154,-0.01,-0.19,-0.69,-0.00,0.11,-0.06,
1.155,-0.01,-0.19,-0.69,-0.01,0.12,-0.07,
1.16,-0.01,-0.19,-0.69,-0.02,0.12,-0.07,
1.161,-0.01,-0.19,-0.69,-0.03,0.11,-0.07,
1.161,-0.01,-0.19,-0.69,-0.03,0.11,-0.08,
1.163,0.27,-0.25,-0.27,-0.03,0.11,-0.08,
1.164,0.27,-0.25,-0.27,-0.03,0.10,-0.08,
1.166,0.27,-0.25,-0.27,-0.03,0.09,-0.09,
1.185,0.27,-0.25,-0.27,-0.02,0.08,-0.10,
1.191,0.27,-0.25,-0.27,-0.02,0.08,-0.11,
1.191,0.27,-0.25,-0.27,-0.01,0.08,-0.12,
1.192,0.40,-0.22,0.15,-0.01,0.08,-0.12,
1.193,0.40,-0.22,0.15,0.00,0.07,-0.13,
1.194,0.40,-0.22,0.15,0.01,0.07,-0.14,
1.194,0.40,-0.22,0.15,0.03,0.07,-0.15,
1.195,0.40,-0.22,0.15,0.03,0.07,-0.15,
1.195,0.40,-0.22,0.15,0.05,0.07,-0.16,
1.196,0.40,-0.22,0.35,0.05,0.07,-0.16,
1.196,0.40,-0.22,0.35,0.06,0.08,-0.17,
1.197,0.40,-0.22,0.35,0.07,0.08,-0.17,
1.197,0.40,-0.22,0.35,0.08,0.08,-0.18,
1.198,0.40,-0.22,0.35,0.09,0.08,-0.18,
1.198,0.40,-0.22,0.35,0.10,0.08,-0.18,
1.213,0.15,-0.24,0.28,0.10,0.08,-0.18,
1.214,0.15,-0.24,0.28,0.10,0.08,-0.18,
1.214,0.15,-0.24,0.28,0.11,0.08,-0.18,
1.215,0.15,-0.24,0.28,0.11,0.08,-0.18,
1.215,0.15,-0.24,0.28,0.11,0.08,-0.18,
1.215,0.15,-0.24,0.28,0.12,0.08,-0.17,
1.216,-0.04,-0.26,0.13,0.12,0.08,-0.17,
1.216,-0.04,-0.26,0.13,0.12,0.08,-0.17,
1.216,-0.04,-0.26,0.13,0.12,0.07,-0.17,
1.216,-0.04,-0.26,0.13,0.12,0.07,-0.16,
1.217,-0.04,-0.26,0.13,0.12,0.07,-0.16,
1.217,-0.04,-0.26,0.13,0.12,0.06,-0.16,
1.217,-0.21,-0.27,0.03,0.12,0.06,-0.16,
1.218,-0.21,-0.27,0.03,0.12,0.06,-0.15,
1.218,-0.21,-0.27,0.03,0.12,0.05,-0.15,
1.218,-0.21,-0.27,0.03,0.12,0.04,-0.14,
1.223,-0.21,-0.27,0.03,0.12,0.04,-0.14,
1.224,-0.21,-0.27,0.03,0.13,0.03,-0.13,
1.227,-0.28,-0.28,0.00,0.13,0.03,-0.13,
1.228,-0.28,-0.28,0.00,0.13,0.02,-0.13,
1.229,-0.28,-0.28,0.00,0.13,0.01,-0.12,
1.23,-0.28,-0.28,0.00,0.13,-0.01,-0.12,
1.23,-0.28,-0.28,0.00,0.14,-0.02,-0.12,
1.231,-0.28,-0.28,0.00,0.14,-0.04,-0.11,
1.235,-0.24,-0.28,0.07,0.14,-0.04,-0.11,
1.235,-0.24,-0.28,0.07,0.14,-0.05,-0.11,
1.235,-0.24,-0.28,0.07,0.15,-0.06,-0.11,
1.239,-0.24,-0.28,0.07,0.16,-0.09,-0.11,
1.24,-0.24,-0.28,0.07,0.16,-0.10,-0.11,
1.242,-0.24,-0.28,0.07,0.17,-0.12,-0.11,
1.244,-0.10,-0.26,0.26,0.17,-0.12,-0.11,
1.244,-0.10,-0.26,0.26,0.19,-0.13,-0.11,
1.245,-0.10,-0.26,0.26,0.20,-0.14,-0.11,
1.248,-0.10,-0.26,0.26,0.22,-0.15,-0.11,
1.249,-0.10,-0.26,0.26,0.22,-0.15,-0.11,
1.251,-0.10,-0.26,0.26,0.23,-0.15,-0.11,
1.254,-0.00,-0.21,0.29,0.23,-0.15,-0.11,
1.255,-0.00,-0.21,0.29,0.24,-0.16,-0.11,
1.256,-0.00,-0.21,0.29,0.25,-0.16,-0.11,
1.258,-0.00,-0.21,0.29,0.26,-0.16,-0.12,
1.26,-0.00,-0.21,0.29,0.26,-0.15,-0.12,
1.293,-0.00,-0.21,0.29,0.27,-0.15,-0.12,
1.293,0.07,-0.18,0.13,0.27,-0.15,-0.12,
1.294,0.07,-0.18,0.13,0.27,-0.15,-0.12,
1.294,0.07,-0.18,0.13,0.27,-0.14,-0.12,
1.295,0.07,-0.18,0.13,0.27,-0.13,-0.13,
1.295,0.07,-0.18,0.13,0.27,-0.12,-0.13,
1.296,0.07,-0.18,0.13,0.26,-0.11,-0.13,
1.296,0.06,-0.09,-0.19,0.26,-0.11,-0.13,
1.297,0.06,-0.09,-0.19,0.26,-0.09,-0.13,
1.297,0.06,-0.09,-0.19,0.24,-0.08,-0.13,
1.298,0.06,-0.09,-0.19,0.22,-0.04,-0.13,
1.298,0.06,-0.09,-0.19,0.22,-0.03,-0.13,
1.299,0.06,-0.09,-0.19,0.20,-0.01,-0.13,
1.299,0.06,0.35,-0.51,0.20,-0.01,-0.13,
1.3,0.06,0.35,-0.51,0.20,0.01,-0.13,
1.3,0.06,0.35,-0.51,0.19,0.03,-0.12,
1.301,0.06,0.35,-0.51,0.17,0.07,-0.11,
1.301,0.06,0.35,-0.51,0.16,0.09,-0.11,
1.302,0.06,0.35,-0.51,0.14,0.11,-0.11,
1.302,0.01,0.13,-0.83,0.14,0.11,-0.11,
1.302,0.01,0.13,-0.83,0.12,0.13,-0.12,
1.303,0.01,0.13,-0.83,0.10,0.14,-0.12,
1.303,0.01,0.13,-0.83,0.07,0.17,-0.13,
1.303,0.01,0.13,-0.83,0.05,0.18,-0.13,
1.304,0.01,0.13,-0.83,0.02,0.20,-0.13,
1.304,0.04,-0.49,-1.17,0.02,0.20,-0.13,
1.304,0.04,-0.49,-1.17,-0.01,0.21,-0.14,
1.306,0.04,-0.49,-1.17,-0.04,0.22,-0.14,
1.308,0.04,-0.49,-1.17,-0.08,0.23,-0.16,
1.309,0.04,-0.49,-1.17,-0.09,0.23,-0.16,
1.312,0.04,-0.49,-1.17,-0.11,0.23,-0.16,
1.315,-0.01,-0.33,-1.15,-0.11,0.23,-0.16,
1.316,-0.01,-0.33,-1.15,-0.13,0.23,-0.16,
1.316,-0.01,-0.33,-1.15,-0.15,0.22,-0.16,
1.32,-0.01,-0.33,-1.15,-0.17,0.21,-0.16,
1.321,-0.01,-0.33,-1.15,-0.17,0.20,-0.15,
1.321,-0.01,-0.33,-1.15,-0.18,0.20,-0.15,
1.323,-0.24,-0.04,-0.63,-0.18,0.20,-0.15,
1.324,-0.24,-0.04,-0.63,-0.18,0.19,-0.15,
1.326,-0.24,-0.04,-0.63,-0.18,0.18,-0.15,
1.329,-0.24,-0.04,-0.63,-0.18,0.17,-0.15,
1.33,-0.24,-0.04,-0.63,-0.18,0.16,-0.15,
1.331,-0.24,-0.04,-0.63,-0.17,0.16,-0.15,
1.346,-0.21,-0.20,-0.11,-0.17,0.16,-0.15,
1.346,-0.21,-0.20,-0.11,-0.17,0.15,-0.15,
1.346,-0.21,-0.20,-0.11,-0.16,0.13,-0.16,
1.347,-0.21,-0.20,-0.11,-0.14,0.12,-0.17,
1.347,-0.21,-0.20,-0.11,-0.14,0.12,-0.17,
1.347,-0.21,-0.20,-0.11,-0.13,0.11,-0.17,
1.348,-0.10,-0.36,0.38,-0.13,0.11,-0.17,
1.348,-0.10,-0.36,0.38,-0.11,0.10,-0.18,
1.348,-0.10,-0.36,0.38,-0.09,0.08,-0.18,
1.348,-0.10,-0.36,0.38,-0.07,0.07,-0.19,
1.366,-0.10,-0.36,0.38,-0.07,0.06,-0.19,
1.367,-0.10,-0.36,0.38,-0.05,0.06,-0.19,
1.368,-0.09,-0.32,0.79,-0.05,0.06,-0.19,
1.368,-0.09,-0.32,0.79,-0.03,0.05,-0.19,
1.368,-0.09,-0.32,0.79,-0.01,0.03,-0.19,
1.368,-0.09,-0.32,0.79,0.02,0.02,-0.20,
1.369,-0.09,-0.32,0.79,0.03,0.02,-0.20,
1.369,-0.09,-0.32,0.79,0.06,0.01,-0.20,
1.369,-0.09,0.25,1.24,0.06,0.01,-0.20,
1.37,-0.09,0.25,1.24,0.10,-0.01,-0.19,
1.37,-0.09,0.25,1.24,0.14,-0.02,-0.19,
1.37,-0.09,0.25,1.24,0.19,-0.02,-0.18,
1.371,-0.09,0.25,1.24,0.20,-0.02,-0.18,
1.371,-0.09,0.25,1.24,0.22,-0.01,-0.19,
1.374,0.07,0.11,1.18,0.22,-0.01,-0.19,
1.374,0.07,0.11,1.18,0.24,-0.02,-0.19,
1.376,0.07,0.11,1.18,0.26,-0.01,-0.20,
1.378,0.07,0.11,1.18,0.28,0.00,-0.21,
1.379,0.07,0.11,1.18,0.28,0.01,-0.21,
1.382,0.07,0.11,1.18,0.28,0.03,-0.22,
1.387,0.34,-0.54,0.40,0.28,0.03,-0.22,
1.389,0.34,-0.54,0.40,0.28,0.04,-0.23,
1.389,0.34,-0.54,0.40,0.27,0.06,-0.24,
1.39,0.34,-0.54,0.40,0.25,0.08,-0.25,
1.39,0.34,-0.54,0.40,0.24,0.09,-0.26,
1.391,0.34,-0.54,0.40,0.22,0.11,-0.26,
1.394,0.36,-0.49,-0.40,0.22,0.11,-0.26,
1.394,0.36,-0.49,-0.40,0.19,0.12,-0.27,
1.396,0.36,-0.49,-0.40,0.17,0.14,-0.27,
1.398,0.36,-0.49,-0.40,0.13,0.16,-0.28,
1.401,0.36,-0.49,-0.40,0.12,0.16,-0.28,
1.402,0.36,-0.49,-0.40,0.10,0.18,-0.28,
1.405,0.26,-0.28,-0.82,0.10,0.18,-0.28,
1.405,0.26,-0.28,-0.82,0.07,0.19,-0.29,
1.406,0.26,-0.28,-0.82,0.05,0.21,-0.29,
1.408,0.26,-0.28,-0.82,0.01,0.25,-0.30,
1.409,0.26,-0.28,-0.82,-0.01,0.26,-0.30,
1.411,0.26,-0.28,-0.82,-0.04,0.28,-0.31,
1.413,0.32,-0.42,-1.07,-0.04,0.28,-0.31,
1.414,0.32,-0.42,-1.07,-0.07,0.30,-0.32,
1.417,0.32,-0.42,-1.07,-0.10,0.33,-0.33,
1.418,0.32,-0.42,-1.07,-0.13,0.35,-0.33,
1.421,0.32,-0.42,-1.07,-0.14,0.35,-0.34,
1.421,0.32,-0.42,-1.07,-0.17,0.37,-0.34,
1.423,0.27,-0.35,-1.01,-0.17,0.37,-0.34,
1.424,0.27,-0.35,-1.01,-0.20,0.39,-0.34,
1.425,0.27,-0.35,-1.01,-0.22,0.40,-0.35,
1.456,0.27,-0.35,-1.01,-0.26,0.41,-0.35,
1.456,0.27,-0.35,-1.01,-0.27,0.42,-0.35,
1.456,0.27,-0.35,-1.01,-0.29,0.43,-0.35,
1.457,0.06,-0.27,-0.75,-0.29,0.43,-0.35,
1.457,0.06,-0.27,-0.75,-0.31,0.44,-0.35,
1.458,0.06,-0.27,-0.75,-0.32,0.45,-0.35,
1.458,0.06,-0.27,-0.75,-0.34,0.46,-0.35,
1.459,0.06,-0.27,-0.75,-0.35,0.46,-0.35,
1.459,0.06,-0.27,-0.75,-0.35,0.48,-0.35,
1.459,-0.01,-0.26,-0.35,-0.35,0.48,-0.35,
1.46,-0.01,-0.26,-0.35,-0.36,0.49,-0.34,
1.46,-0.01,-0.26,-0.35,-0.37,0.50,-0.34,
1.461,-0.01,-0.26,-0.35,-0.37,0.52,-0.34,
1.461,-0.01,-0.26,-0.35,-0.37,0.52,-0.34,
1.462,-0.01,-0.26,-0.35,-0.37,0.53,-0.33,
1.462,-0.14,-0.21,0.04,-0.37,0.53,-0.33,
1.462,-0.14,-0.21,0.04,-0.36,0.55,-0.33,
1.463,-0.14,-0.21,0.04,-0.36,0.56,-0.32,
1.463,-0.14,-0.21,0.04,-0.35,0.57,-0.31,
1.464,-0.14,-0.21,0.04,-0.34,0.57,-0.31,
1.464,-0.14,-0.21,0.04,-0.34,0.58,-0.30,
1.464,-0.27,-0.17,0.29,-0.34,0.58,-0.30,
1.465,-0.27,-0.17,0.29,-0.33,0.59,-0.29,
1.465,-0.27,-0.17,0.29,-0.32,0.59,-0.28,
1.475,-0.27,-0.17,0.29,-0.31,0.60,-0.27,
1.476,-0.27,-0.17,0.29,-0.30,0.60,-0.27,
1.476,-0.27,-0.17,0.29,-0.29,0.61,-0.26,
1.476,-0.30,-0.13,0.33,-0.29,0.61,-0.26,
1.477,-0.30,-0.13,0.33,-0.29,0.61,-0.25,
1.477,-0.30,-0.13,0.33,-0.28,0.61,-0.25,
1.479,-0.30,-0.13,0.33,-0.27,0.61,-0.23,
1.499,-0.30,-0.13,0.33,-0.27,0.60,-0.23,
1.5,-0.30,-0.13,0.33,-0.26,0.60,-0.22,
1.5,-0.38,-0.04,0.25,-0.26,0.60,-0.22,
1.5,-0.38,-0.04,0.25,-0.26,0.59,-0.21,
1.501,-0.38,-0.04,0.25,-0.25,0.59,-0.20,
1.501,-0.38,-0.04,0.25,-0.25,0.57,-0.18,
1.501,-0.38,-0.04,0.25,-0.24,0.57,-0.18,
1.501,-0.38,-0.04,0.25,-0.24,0.56,-0.16,
1.502,-0.50,0.08,0.17,-0.24,0.56,-0.16,
1.502,-0.50,0.08,0.17,-0.23,0.55,-0.15,
1.502,-0.50,0.08,0.17,-0.23,0.54,-0.13,
1.502,-0.50,0.08,0.17,-0.21,0.52,-0.11,
1.503,-0.50,0.08,0.17,-0.21,0.51,-0.11,
1.503,-0.50,0.08,0.17,-0.20,0.50,-0.09,
1.503,-0.55,0.14,0.09,-0.20,0.50,-0.09,
1.503,-0.55,0.14,0.09,-0.19,0.49,-0.08,
1.507,-0.55,0.14,0.09,-0.19,0.47,-0.07,
1.51,-0.55,0.14,0.09,-0.17,0.44,-0.05,
1.51,-0.55,0.14,0.09,-0.16,0.43,-0.05,
1.511,-0.55,0.14,0.09,-0.15,0.41,-0.04,
1.513,-0.38,0.20,0.16,-0.15,0.41,-0.04,
1.514,-0.38,0.20,0.16,-0.14,0.38,-0.03,
1.517,-0.38,0.20,0.16,-0.12,0.35,-0.02,
1.519,-0.38,0.20,0.16,-0.09,0.31,-0.01,
1.522,-0.38,0.20,0.16,-0.08,0.29,-0.01,
1.522,-0.38,0.20,0.16,-0.07,0.27,-0.01,
1.523,-0.13,0.24,0.23,-0.07,0.27,-0.01,
1.524,-0.13,0.24,0.23,-0.05,0.24,-0.01,
1.525,-0.13,0.24,0.23,-0.03,0.20,-0.00,
1.528,-0.13,0.24,0.23,0.00,0.16,-0.00,
1.53,-0.13,0.24,0.23,0.01,0.14,-0.01,
1.532,-0.13,0.24,0.23,0.04,0.11,-0.01,
1.536,0.17,0.31,0.21,0.04,0.11,-0.01,
1.537,0.17,0.31,0.21,0.06,0.07,-0.01,
1.538,0.17,0.31,0.21,0.08,0.04,-0.02,
1.539,0.17,0.31,0.21,0.11,-0.01,-0.02,
1.54,0.17,0.31,0.21,0.12,-0.02,-0.03,
1.542,0.17,0.31,0.21,0.14,-0.05,-0.03,
1.544,0.35,0.34,0.08,0.14,-0.05,-0.03,
1.544,0.35,0.34,0.08,0.16,-0.09,-0.04,
1.545,0.35,0.34,0.08,0.17,-0.11,-0.05,
1.548,0.35,0.34,0.08,0.20,-0.14,-0.06,
1.55,0.35,0.34,0.08,0.20,-0.15,-0.07,
1.552,0.35,0.34,0.08,0.21,-0.17,-0.08,
1.553,0.42,0.35,-0.28,0.21,-0.17,-0.08,
1.554,0.42,0.35,-0.28,0.21,-0.19,-0.09,
1.556,0.42,0.35,-0.28,0.22,-0.20,-0.10,
1.558,0.42,0.35,-0.28,0.22,-0.20,-0.11,
1.559,0.42,0.35,-0.28,0.21,-0.21,-0.11,
1.561,0.42,0.35,-0.28,0.21,-0.21,-0.12,
1.563,0.36,0.36,-0.80,0.21,-0.21,-0.12,
1.563,0.36,0.36,-0.80,0.20,-0.20,-0.13,
1.571,0.36,0.36,-0.80,0.19,-0.19,-0.13,
1.573,0.36,0.36,-0.80,0.16,-0.18,-0.14,
1.574,0.36,0.36,-0.80,0.15,-0.17,-0.14,
1.574,0.36,0.36,-0.80,0.13,-0.15,-0.14,
1.575,0.15,0.28,-1.36,0.13,-0.15,-0.14,
1.575,0.15,0.28,-1.36,0.11,-0.14,-0.14,
1.577,0.15,0.28,-1.36,0.08,-0.12,-0.14,
1.578,0.15,0.28,-1.36,0.04,-0.09,-0.14,
1.579,0.15,0.28,-1.36,0.03,-0.08,-0.14,
1.591,0.15,0.28,-1.36,-0.00,-0.06,-0.14,
1.593,-0.09,0.22,-1.70,-0.00,-0.06,-0.14,
1.594,-0.09,0.22,-1.70,-0.03,-0.04,-0.13,
1.594,-0.09,0.22,-1.70,-0.06,-0.02,-0.13,
1.595,-0.09,0.22,-1.70,-0.11,0.01,-0.13,
1.596,-0.09,0.22,-1.70,-0.12,0.02,-0.13,
1.596,-0.09,0.22,-1.70,-0.15,0.03,-0.12,
1.596,-0.24,0.11,-1.71,-0.15,0.03,-0.12,
1.632,-0.24,0.11,-1.71,-0.17,0.05,-0.12,
1.632,-0.24,0.11,-1.71,-0.19,0.06,-0.12,
1.633,-0.24,0.11,-1.71,-0.23,0.09,-0.11,
1.634,-0.24,0.11,-1.71,-0.23,0.10,-0.11,
1.634,-0.24,0.11,-1.71,-0.25,0.11,-0.11,
1.635,-0.35,0.04,-1.45,-0.25,0.11,-0.11,
1.635,-0.35,0.04,-1.45,-0.27,0.12,-0.10,
1.636,-0.35,0.04,-1.45,-0.28,0.14,-0.10,
1.636,-0.35,0.04,-1.45,-0.29,0.15,-0.09,
1.637,-0.35,0.04,-1.45,-0.30,0.16,-0.09,
1.637,-0.35,0.04,-1.45,-0.30,0.16,-0.09,
1.638,-0.35,-0.05,-1.07,-0.30,0.16,-0.09,
1.638,-0.35,-0.05,-1.07,-0.31,0.17,-0.09,
1.639,-0.35,-0.05,-1.07,-0.31,0.17,-0.09,
1.639,-0.35,-0.05,-1.07,-0.31,0.17,-0.08,
1.64,-0.35,-0.05,-1.07,-0.31,0.17,-0.08,
1.641,-0.35,-0.05,-1.07,-0.31,0.17,-0.08,
1.641,-0.29,-0.11,-0.73,-0.31,0.17,-0.08,
1.641,-0.29,-0.11,-0.73,-0.31,0.17,-0.08,
1.642,-0.29,-0.11,-0.73,-0.30,0.17,-0.08,
1.642,-0.29,-0.11,-0.73,-0.29,0.16,-0.08,
1.642,-0.29,-0.11,-0.73,-0.29,0.16,-0.09,
1.643,-0.29,-0.11,-0.73,-0.28,0.15,-0.09,
1.643,-0.04,-0.13,-0.46,-0.28,0.15,-0.09,
1.643,-0.04,-0.13,-0.46,-0.27,0.14,-0.10,
1.644,-0.04,-0.13,-0.46,-0.26,0.13,-0.10,
1.644,-0.04,-0.13,-0.46,-0.24,0.11,-0.11,
1.644,-0.04,-0.13,-0.46,-0.23,0.11,-0.12,
1.645,-0.04,-0.13,-0.46,-0.22,0.09,-0.13,
1.645,0.17,-0.16,-0.25,-0.22,0.09,-0.13,
1.646,0.17,-0.16,-0.25,-0.21,0.08,-0.13,
1.646,0.17,-0.16,-0.25,-0.20,0.07,-0.14,
1.649,0.17,-0.16,-0.25,-0.18,0.05,-0.16,
1.65,0.17,-0.16,-0.25,-0.18,0.04,-0.16,
1.652,0.17,-0.16,-0.25,-0.17,0.03,-0.17,
1.653,0.29,-0.20,-0.23,-0.17,0.03,-0.17,
1.654,0.29,-0.20,-0.23,-0.15,0.01,-0.18,
1.656,0.29,-0.20,-0.23,-0.14,0.00,-0.19,
1.658,0.29,-0.20,-0.23,-0.13,-0.02,-0.20,
1.663,0.29,-0.20,-0.23,-0.12,-0.02,-0.20,
1.663,0.29,-0.20,-0.23,-0.12,-0.03,-0.21,
1.663,0.33,-0.27,-0.22,-0.12,-0.03,-0.21,
1.664,0.33,-0.27,-0.22,-0.10,-0.04,-0.22,
1.666,0.33,-0.27,-0.22,-0.09,-0.06,-0.22,
1.668,0.33,-0.27,-0.22,-0.08,-0.07,-0.23,
1.67,0.33,-0.27,-0.22,-0.07,-0.08,-0.23,
1.671,0.33,-0.27,-0.22,-0.05,-0.09,-0.23,
1.674,0.32,-0.32,-0.02,-0.05,-0.09,-0.23,
1.674,0.32,-0.32,-0.02,-0.04,-0.10,-0.23,
1.675,0.32,-0.32,-0.02,-0.02,-0.10,-0.24,
1.678,0.32,-0.32,-0.02,0.01,-0.11,-0.23,
1.679,0.32,-0.32,-0.02,0.02,-0.11,-0.23,
1.682,0.32,-0.32,-0.02,0.04,-0.11,-0.23,
1.683,0.25,-0.34,0.23,0.04,-0.11,-0.23,
1.684,0.25,-0.34,0.23,0.07,-0.11,-0.23,
1.685,0.25,-0.34,0.23,0.09,-0.10,-0.23,
1.688,0.25,-0.34,0.23,0.11,-0.10,-0.23,
1.689,0.25,-0.34,0.23,0.11,-0.09,-0.23,
1.692,0.25,-0.34,0.23,0.13,-0.08,-0.23,
1.693,0.41,-0.34,-0.03,0.13,-0.08,-0.23,
1.693,0.41,-0.34,-0.03,0.13,-0.08,-0.23,
1.695,0.41,-0.34,-0.03,0.14,-0.07,-0.23,
1.707,0.41,-0.34,-0.03,0.14,-0.06,-0.23,
1.709,0.41,-0.34,-0.03,0.13,-0.05,-0.23,
1.709,0.41,-0.34,-0.03,0.13,-0.05,-0.23,
1.71,0.49,-0.25,-0.54,0.13,-0.05,-0.23,
1.71,0.49,-0.25,-0.54,0.12,-0.04,-0.23,
1.711,0.49,-0.25,-0.54,0.11,-0.03,-0.23,
1.711,0.49,-0.25,-0.54,0.08,-0.02,-0.22,
1.712,0.49,-0.25,-0.54,0.07,-0.02,-0.22,
1.712,0.49,-0.25,-0.54,0.05,-0.01,-0.22,
1.731,0.50,-0.14,-0.96,0.05,-0.01,-0.22,
1.732,0.50,-0.14,-0.96,0.03,-0.00,-0.21,
1.732,0.50,-0.14,-0.96,0.01,0.00,-0.21,
1.732,0.50,-0.14,-0.96,-0.02,0.02,-0.20,
1.733,0.50,-0.14,-0.96,-0.03,0.02,-0.20,
1.733,0.50,-0.14,-0.96,-0.05,0.03,-0.19,
1.733,0.56,-0.06,-1.15,-0.05,0.03,-0.19,
1.733,0.56,-0.06,-1.15,-0.08,0.03,-0.19,
1.734,0.56,-0.06,-1.15,-0.10,0.04,-0.18,
1.734,0.56,-0.06,-1.15,-0.13,0.06,-0.18,
1.734,0.56,-0.06,-1.15,-0.14,0.06,-0.18,
1.735,0.56,-0.06,-1.15,-0.16,0.07,-0.17,
1.735,0.65,0.05,-1.03,-0.16,0.07,-0.17,
1.735,0.65,0.05,-1.03,-0.18,0.08,-0.17,
1.735,0.65,0.05,-1.03,-0.20,0.08,-0.17,
1.738,0.65,0.05,-1.03,-0.22,0.09,-0.17,
1.739,0.65,0.05,-1.03,-0.23,0.10,-0.17,
1.742,0.65,0.05,-1.03,-0.24,0.10,-0.17,
1.743,0.91,0.15,-0.69,-0.24,0.10,-0.17,
1.744,0.91,0.15,-0.69,-0.25,0.10,-0.17,
1.745,0.91,0.15,-0.69,-0.26,0.11,-0.18,
1.748,0.91,0.15,-0.69,-0.28,0.11,-0.18,
1.75,0.91,0.15,-0.69,-0.28,0.11,-0.19,
1.751,0.91,0.15,-0.69,-0.29,0.10,-0.19,
1.754,1.13,0.14,-0.19,-0.29,0.10,-0.19,
1.754,1.13,0.14,-0.19,-0.29,0.10,-0.20,
1.756,1.13,0.14,-0.19,-0.29,0.10,-0.21,
1.758,1.13,0.14,-0.19,-0.29,0.09,-0.22,
1.76,1.13,0.14,-0.19,-0.28,0.09,-0.23,
1.795,1.13,0.14,-0.19,-0.28,0.08,-0.23,
1.796,1.28,0.08,0.30,-0.28,0.08,-0.23,
1.796,1.28,0.08,0.30,-0.27,0.07,-0.24,
1.797,1.28,0.08,0.30,-0.25,0.06,-0.26,
1.8,1.28,0.08,0.30,-0.24,0.05,-0.26,
1.8,1.28,0.08,0.30,-0.24,0.05,-0.27,
1.801,1.28,0.08,0.30,-0.22,0.04,-0.27,
1.801,1.21,0.03,0.57,-0.22,0.04,-0.27,
1.802,1.21,0.03,0.57,-0.21,0.03,-0.28,
1.802,1.21,0.03,0.57,-0.20,0.02,-0.29,
1.802,1.21,0.03,0.57,-0.19,-0.00,-0.29,
1.803,1.21,0.03,0.57,-0.18,-0.01,-0.29,
1.803,1.21,0.03,0.57,-0.17,-0.02,-0.30,
1.804,1.06,-0.04,0.58,-0.17,-0.02,-0.30,
1.804,1.06,-0.04,0.58,-0.17,-0.03,-0.30,
1.804,1.06,-0.04,0.58,-0.16,-0.04,-0.30,
1.805,1.06,-0.04,0.58,-0.15,-0.06,-0.30,
1.805,1.06,-0.04,0.58,-0.15,-0.07,-0.30,
1.806,1.06,-0.04,0.58,-0.14,-0.08,-0.30,
1.806,0.86,-0.07,0.54,-0.14,-0.08,-0.30,
1.807,0.86,-0.07,0.54,-0.14,-0.09,-0.30,
1.807,0.86,-0.07,0.54,-0.13,-0.11,-0.30,
1.807,0.86,-0.07,0.54,-0.13,-0.13,-0.30,
1.808,0.86,-0.07,0.54,-0.13,-0.13,-0.30,
1.808,0.86,-0.07,0.54,-0.12,-0.15,-0.29,
1.809,0.76,-0.08,0.59,-0.12,-0.15,-0.29,
1.809,0.76,-0.08,0.59,-0.12,-0.16,-0.29,
1.809,0.76,-0.08,0.59,-0.11,-0.17,-0.29,
1.81,0.76,-0.08,0.59,-0.10,-0.18,-0.28,
1.81,0.76,-0.08,0.59,-0.10,-0.18,-0.28,
1.813,0.76,-0.08,0.59,-0.09,-0.19,-0.27,
1.814,0.61,-0.05,0.69,-0.09,-0.19,-0.27,
1.814,0.61,-0.05,0.69,-0.09,-0.19,-0.26,
1.816,0.61,-0.05,0.69,-0.08,-0.20,-0.26,
1.818,0.61,-0.05,0.69,-0.07,-0.19,-0.24,
1.819,0.61,-0.05,0.69,-0.07,-0.19,-0.24,
1.822,0.61,-0.05,0.69,-0.06,-0.19,-0.23,
1.823,0.51,-0.00,0.70,-0.06,-0.19,-0.23,
1.824,0.51,-0.00,0.70,-0.06,-0.18,-0.22,
1.83,0.51,-0.00,0.70,-0.05,-0.17,-0.20,
1.83,0.51,-0.00,0.70,-0.05,-0.17,-0.20,
1.83,0.51,-0.00,0.70,-0.05,-0.17,-0.20,
1.834,0.51,-0.00,0.70,-0.04,-0.16,-0.19,
1.834,0.44,0.07,0.62,-0.04,-0.16,-0.19,
1.835,0.44,0.07,0.62,-0.04,-0.15,-0.18,
1.836,0.44,0.07,0.62,-0.04,-0.14,-0.17,
1.838,0.44,0.07,0.62,-0.04,-0.13,-0.16,
1.839,0.44,0.07,0.62,-0.04,-0.12,-0.16,
1.842,0.44,0.07,0.62,-0.04,-0.11,-0.15,
1.843,0.37,0.16,0.48,-0.04,-0.11,-0.15,
1.844,0.37,0.16,0.48,-0.03,-0.10,-0.14,
1.845,0.37,0.16,0.48,-0.03,-0.08,-0.13,
1.864,0.37,0.16,0.48,-0.03,-0.06,-0.12,
1.865,0.37,0.16,0.48,-0.03,-0.06,-0.12,
1.866,0.37,0.16,0.48,-0.03,-0.04,-0.11,
1.866,0.32,0.28,0.22,-0.03,-0.04,-0.11,
1.867,0.32,0.28,0.22,-0.04,-0.03,-0.11,
1.867,0.32,0.28,0.22,-0.04,-0.02,-0.10,
1.867,0.32,0.28,0.22,-0.05,0.00,-0.09,
1.867,0.32,0.28,0.22,-0.05,0.01,-0.09,
1.868,0.32,0.28,0.22,-0.06,0.02,-0.08,
1.868,0.31,0.37,-0.08,-0.06,0.02,-0.08,
1.868,0.31,0.37,-0.08,-0.06,0.03,-0.08,
1.869,0.31,0.37,-0.08,-0.07,0.04,-0.08,
1.869,0.31,0.37,-0.08,-0.09,0.04,-0.07,
1.87,0.31,0.37,-0.08,-0.09,0.05,-0.07,
1.872,0.31,0.37,-0.08,-0.10,0.05,-0.07,
1.878,0.34,0.40,-0.29,-0.10,0.05,-0.07,
1.878,0.34,0.40,-0.29,-0.11,0.05,-0.07,
1.879,0.34,0.40,-0.29,-0.12,0.05,-0.07,
1.889,0.34,0.40,-0.29,-0.12,0.05,-0.06,
1.891,0.34,0.40,-0.29,-0.13,0.05,-0.07,
1.891,0.34,0.40,-0.29,-0.13,0.04,-0.06,
1.892,0.35,0.47,-0.32,-0.13,0.04,-0.06,
1.892,0.35,0.47,-0.32,-0.14,0.04,-0.06,
1.893,0.35,0.47,-0.32,-0.14,0.04,-0.06,
1.893,0.35,0.47,-0.32,-0.15,0.04,-0.06,
1.894,0.35,0.47,-0.32,-0.15,0.04,-0.06,
1.894,0.35,0.47,-0.32,-0.15,0.04,-0.06,
1.895,0.37,0.51,-0.28,-0.15,0.04,-0.06,
1.895,0.37,0.51,-0.28,-0.16,0.04,-0.06,
1.895,0.37,0.51,-0.28,-0.16,0.03,-0.06,
1.9,0.37,0.51,-0.28,-0.17,0.03,-0.07,
1.901,0.37,0.51,-0.28,-0.17,0.03,-0.07,
1.901,0.37,0.51,-0.28,-0.17,0.03,-0.07,
1.904,0.44,0.56,-0.20,-0.17,0.03,-0.07,
1.904,0.44,0.56,-0.20,-0.18,0.02,-0.07,
1.906,0.44,0.56,-0.20,-0.18,0.02,-0.07,
1.908,0.44,0.56,-0.20,-0.18,0.02,-0.08,
1.91,0.44,0.56,-0.20,-0.18,0.02,-0.08,
1.911,0.44,0.56,-0.20,-0.18,0.01,-0.08,
1.915,0.44,0.54,-0.02,-0.18,0.01,-0.08,
1.916,0.44,0.54,-0.02,-0.18,0.01,-0.08,
1.916,0.44,0.54,-0.02,-0.18,0.00,-0.08,
1.919,0.44,0.54,-0.02,-0.17,-0.00,-0.08,
1.921,0.44,0.54,-0.02,-0.17,-0.00,-0.08,
1.922,0.44,0.54,-0.02,-0.16,-0.01,-0.08,
1.924,0.39,0.50,0.20,-0.16,-0.01,-0.08,
1.925,0.39,0.50,0.20,-0.16,-0.01,-0.08,
1.926,0.39,0.50,0.20,-0.15,-0.02,-0.08,
1.959,0.39,0.50,0.20,-0.14,-0.03,-0.08,
1.96,0.39,0.50,0.20,-0.14,-0.03,-0.08,
1.96,0.39,0.50,0.20,-0.13,-0.03,-0.08,
1.963,0.35,0.44,0.40,-0.13,-0.03,-0.08,
1.964,0.35,0.44,0.40,-0.12,-0.03,-0.08,
1.964,0.35,0.44,0.40,-0.12,-0.04,-0.08,
1.965,0.35,0.44,0.40,-0.11,-0.04,-0.07,
1.965,0.35,0.44,0.40,-0.10,-0.04,-0.07,
1.966,0.35,0.44,0.40,-0.09,-0.04,-0.07,
1.966,0.33,0.40,0.53,-0.09,-0.04,-0.07,
1.966,0.33,0.40,0.53,-0.09,-0.04,-0.06,
1.967,0.33,0.40,0.53,-0.07,-0.04,-0.06,
1.967,0.33,0.40,0.53,-0.06,-0.04,-0.05,
1.968,0.33,0.40,0.53,-0.06,-0.04,-0.05,
1.968,0.33,0.40,0.53,-0.05,-0.04,-0.05,
1.968,0.33,0.37,0.57,-0.05,-0.04,-0.05,
1.969,0.33,0.37,0.57,-0.04,-0.03,-0.04,
1.969,0.33,0.37,0.57,-0.03,-0.03,-0.04,
1.97,0.33,0.37,0.57,-0.02,-0.04,-0.03,
1.97,0.33,0.37,0.57,-0.02,-0.04,-0.03,
1.971,0.33,0.37,0.57,-0.01,-0.04,-0.03,
1.971,0.39,0.39,0.59,-0.01,-0.04,-0.03,
1.971,0.39,0.39,0.59,-0.00,-0.04,-0.03,
1.972,0.39,0.39,0.59,0.01,-0.04,-0.03,
1.972,0.39,0.39,0.59,0.02,-0.04,-0.02,
1.973,0.39,0.39,0.59,0.02,-0.04,-0.02,
1.973,0.39,0.39,0.59,0.03,-0.04,-0.02,
1.973,0.47,0.38,0.60,0.03,-0.04,-0.02,
1.974,0.47,0.38,0.60,0.04,-0.04,-0.02,
1.979,0.47,0.38,0.60,0.04,-0.04,-0.02,
1.98,0.47,0.38,0.60,0.06,-0.03,-0.02,
1.98,0.47,0.38,0.60,0.06,-0.03,-0.02,
1.984,0.47,0.38,0.60,0.07,-0.02,-0.02,
1.984,0.54,0.40,0.57,0.07,-0.02,-0.02,
1.985,0.54,0.40,0.57,0.08,-0.02,-0.02,
1.985,0.54,0.40,0.57,0.09,-0.01,-0.02,
1.99,0.54,0.40,0.57,0.10,-0.01,-0.01,
1.991,0.54,0.40,0.57,0.11,-0.01,-0.01,
1.992,0.54,0.40,0.57,0.12,-0.00,-0.01,
1.994,0.54,0.38,0.57,0.12,-0.00,-0.01,
1.995,0.54,0.38,0.57,0.13,0.00,-0.01,
1.996,0.54,0.38,0.57,0.14,0.01,-0.01,
2.002,0.54,0.38,0.57,0.16,0.02,-0.00,
2.004,0.54,0.38,0.57,0.16,0.02,-0.00,
2.007,0.54,0.38,0.57,0.17,0.02,-0.00,
2.007,0.54,0.30,0.48,0.17,0.02,-0.00,
2.008,0.54,0.30,0.48,0.18,0.02,0.00,
2.008,0.54,0.30,0.48,0.19,0.02,-0.00,
2.009,0.54,0.30,0.48,0.19,0.02,0.00,
2.009,0.54,0.30,0.48,0.20,0.02,0.00,
2.013,0.54,0.30,0.48,0.20,0.01,-0.00,
2.014,0.63,0.26,0.32,0.20,0.01,-0.00,
2.014,0.63,0.26,0.32,0.20,0.01,-0.00,
2.027,0.63,0.26,0.32,0.21,-0.00,-0.00,
2.028,0.63,0.26,0.32,0.21,-0.01,-0.01,
2.028,0.63,0.26,0.32,0.21,-0.01,-0.01,
2.028,0.63,0.26,0.32,0.22,-0.02,-0.01,
2.029,0.70,0.25,0.30,0.22,-0.02,-0.01,
2.029,0.70,0.25,0.30,0.22,-0.02,-0.01,
2.029,0.70,0.25,0.30,0.23,-0.02,-0.02,
2.029,0.70,0.25,0.30,0.24,-0.02,-0.02,
2.053,0.70,0.25,0.30,0.25,-0.02,-0.02,
2.054,0.70,0.25,0.30,0.25,-0.02,-0.02,
2.054,0.62,0.18,0.29,0.25,-0.02,-0.02,
2.054,0.62,0.18,0.29,0.26,-0.02,-0.02,
2.055,0.62,0.18,0.29,0.27,-0.01,-0.02,
2.055,0.62,0.18,0.29,0.28,-0.01,-0.01,
2.055,0.62,0.18,0.29,0.28,-0.01,-0.01,
2.055,0.62,0.18,0.29,0.29,-0.00,-0.01,
2.056,0.50,0.13,0.17,0.29,-0.00,-0.01,
2.056,0.50,0.13,0.17,0.29,-0.00,-0.01,
2.056,0.50,0.13,0.17,0.29,-0.00,-0.01,
2.057,0.50,0.13,0.17,0.30,0.00,0.00,
2.057,0.50,0.13,0.17,0.30,0.00,0.00,
2.057,0.50,0.13,0.17,0.30,-0.00,0.01,
2.058,0.35,0.10,-0.05,0.30,-0.00,0.01,
2.058,0.35,0.10,-0.05,0.30,0.00,0.01,
2.058,0.35,0.10,-0.05,0.30,0.00,0.02,
2.058,0.35,0.10,-0.05,0.30,0.00,0.02,
2.06,0.35,0.10,-0.05,0.29,0.00,0.03,
2.062,0.35,0.10,-0.05,0.29,0.00,0.03,
2.064,0.22,0.06,-0.31,0.29,0.00,0.03,
2.064,0.22,0.06,-0.31,0.29,0.00,0.04,
2.066,0.22,0.06,-0.31,0.29,0.01,0.04,
2.068,0.22,0.06,-0.31,0.28,0.01,0.05,
2.069,0.22,0.06,-0.31,0.28,0.01,0.06,
2.071,0.22,0.06,-0.31,0.28,0.01,0.06,
2.074,0.20,0.03,-0.51,0.28,0.01,0.06,
2.074,0.20,0.03,-0.51,0.27,0.01,0.07,
2.077,0.20,0.03,-0.51,0.27,0.00,0.07,
2.079,0.20,0.03,-0.51,0.26,-0.00,0.07,
2.08,0.20,0.03,-0.51,0.26,-0.01,0.08,
2.082,0.20,0.03,-0.51,0.26,-0.01,0.08,
2.084,0.24,0.03,-0.64,0.26,-0.01,0.08,
2.085,0.24,0.03,-0.64,0.26,-0.02,0.08,
2.086,0.24,0.03,-0.64,0.25,-0.02,0.08,
2.088,0.24,0.03,-0.64,0.25,-0.03,0.09,
2.089,0.24,0.03,-0.64,0.25,-0.04,0.09,
2.091,0.24,0.03,-0.64,0.25,-0.05,0.09,
2.094,0.26,0.04,-0.67,0.25,-0.05,0.09,
2.126,0.26,0.04,-0.67,0.25,-0.05,0.10,
2.127,0.26,0.04,-0.67,0.25,-0.06,0.10,
2.127,0.26,0.04,-0.67,0.25,-0.08,0.10,
2.128,0.26,0.04,-0.67,0.25,-0.08,0.10,
2.129,0.26,0.04,-0.67,0.25,-0.09,0.11,
2.13,0.28,0.09,-0.60,0.25,-0.09,0.11,
2.131,0.28,0.09,-0.60,0.26,-0.10,0.11,
2.131,0.28,0.09,-0.60,0.26,-0.10,0.11,
2.132,0.28,0.09,-0.60,0.27,-0.11,0.11,
2.132,0.28,0.09,-0.60,0.27,-0.11,0.11,
2.133,0.28,0.09,-0.60,0.27,-0.12,0.11,
2.133,0.33,0.11,-0.59,0.27,-0.12,0.11,
2.134,0.33,0.11,-0.59,0.27,-0.12,0.12,
2.135,0.33,0.11,-0.59,0.27,-0.12,0.12,
2.135,0.33,0.11,-0.59,0.27,-0.11,0.12,
2.136,0.33,0.11,-0.59,0.26,-0.11,0.12,
2.136,0.33,0.11,-0.59,0.26,-0.11,0.12,
2.136,0.36,0.18,-0.71,0.26,-0.11,0.12,
2.137,0.36,0.18,-0.71,0.25,-0.10,0.13,
2.138,0.36,0.18,-0.71,0.25,-0.09,0.13,
2.138,0.36,0.18,-0.71,0.24,-0.08,0.14,
2.139,0.36,0.18,-0.71,0.23,-0.08,0.14,
2.139,0.36,0.18,-0.71,0.22,-0.07,0.14,
2.14,0.32,0.24,-0.83,0.22,-0.07,0.14,
2.14,0.32,0.24,-0.83,0.21,-0.06,0.15,
2.14,0.32,0.24,-0.83,0.20,-0.05,0.15,
2.141,0.32,0.24,-0.83,0.18,-0.04,0.16,
2.141,0.32,0.24,-0.83,0.18,-0.04,0.16,
2.142,0.32,0.24,-0.83,0.17,-0.02,0.16,
2.144,0.26,0.30,-0.89,0.17,-0.02,0.16,
2.145,0.26,0.30,-0.89,0.15,-0.02,0.17,
2.146,0.26,0.30,-0.89,0.14,-0.01,0.17,
2.151,0.26,0.30,-0.89,0.12,-0.00,0.17,
2.151,0.26,0.30,-0.89,0.12,0.00,0.18,
2.152,0.26,0.30,-0.89,0.11,0.01,0.18,
2.156,0.22,0.31,-0.86,0.11,0.01,0.18,
2.157,0.22,0.31,-0.86,0.09,0.01,0.19,
2.157,0.22,0.31,-0.86,0.08,0.02,0.19,
2.158,0.22,0.31,-0.86,0.06,0.03,0.19,
2.16,0.22,0.31,-0.86,0.06,0.03,0.19,
2.164,0.22,0.31,-0.86,0.05,0.04,0.20,
2.164,0.25,0.32,-0.78,0.05,0.04,0.20,
2.165,0.25,0.32,-0.78,0.04,0.05,0.20,
2.165,0.25,0.32,-0.78,0.03,0.05,0.20,
2.169,0.25,0.32,-0.78,0.01,0.06,0.20,
2.171,0.25,0.32,-0.78,0.01,0.07,0.20,
2.172,0.25,0.32,-0.78,-0.00,0.07,0.20,
2.173,0.31,0.32,-0.70,-0.00,0.07,0.20,
2.174,0.31,0.32,-0.70,-0.01,0.08,0.20,
2.176,0.31,0.32,-0.70,-0.02,0.08,0.20,
2.18,0.31,0.32,-0.70,-0.04,0.08,0.19,
2.181,0.31,0.32,-0.70,-0.04,0.09,0.19,
2.181,0.31,0.32,-0.70,-0.05,0.08,0.19,
2.194,0.35,0.30,-0.59,-0.05,0.08,0.19,
2.196,0.35,0.30,-0.59,-0.06,0.08,0.18,
2.197,0.35,0.30,-0.59,-0.07,0.08,0.18,
2.198,0.35,0.30,-0.59,-0.08,0.08,0.17,
2.198,0.35,0.30,-0.59,-0.09,0.08,0.17,
2.199,0.35,0.30,-0.59,-0.10,0.07,0.17,
2.2,0.35,0.24,-0.40,-0.10,0.07,0.17,
2.2,0.35,0.24,-0.40,-0.10,0.07,0.16,
2.201,0.35,0.24,-0.40,-0.11,0.07,0.16,
2.202,0.35,0.24,-0.40,-0.12,0.07,0.16,
2.203,0.35,0.24,-0.40,-0.12,0.07,0.15,
2.22,0.35,0.24,-0.40,-0.13,0.07,0.15,
2.222,0.25,0.16,-0.14,-0.13,0.07,0.15,
2.223,0.25,0.16,-0.14,-0.13,0.07,0.15,
2.223,0.25,0.16,-0.14,-0.13,0.07,0.15,
2.224,0.25,0.16,-0.14,-0.13,0.07,0.15,
2.224,0.25,0.16,-0.14,-0.13,0.07,0.15,
2.225,0.25,0.16,-0.14,-0.13,0.07,0.15,
2.225,0.11,0.10,0.10,-0.13,0.07,0.15,
2.226,0.11,0.10,0.10,-0.13,0.07,0.15,
2.226,0.11,0.10,0.10,-0.13,0.07,0.15,
2.227,0.11,0.10,0.10,-0.12,0.07,0.15,
2.227,0.11,0.10,0.10,-0.12,0.07,0.15,
2.227,0.11,0.10,0.10,-0.12,0.07,0.15,
2.228,-0.02,0.05,0.29,-0.12,0.07,0.15,
2.228,-0.02,0.05,0.29,-0.11,0.07,0.16,
2.228,-0.02,0.05,0.29,-0.11,0.07,0.16,
2.238,-0.02,0.05,0.29,-0.10,0.07,0.16,
2.239,-0.02,0.05,0.29,-0.10,0.07,0.16,
2.24,-0.02,0.05,0.29,-0.10,0.07,0.16,
2.241,-0.04,0.07,0.44,-0.10,0.07,0.16,
2.241,-0.04,0.07,0.44,-0.09,0.06,0.17,
2.242,-0.04,0.07,0.44,-0.08,0.06,0.17,
2.243,-0.04,0.07,0.44,-0.07,0.06,0.17,
2.243,-0.04,0.07,0.44,-0.07,0.06,0.17,
2.244,-0.04,0.07,0.44,-0.06,0.06,0.17,
2.244,0.01,0.10,0.55,-0.06,0.06,0.17,
2.245,0.01,0.10,0.55,-0.05,0.05,0.16,
2.246,0.01,0.10,0.55,-0.04,0.05,0.16,
2.253,0.01,0.10,0.55,-0.03,0.05,0.16,
2.254,0.01,0.10,0.55,-0.02,0.04,0.16,
2.255,0.01,0.10,0.55,-0.02,0.04,0.15,
2.255,0.11,0.09,0.56,-0.02,0.04,0.15,
2.255,0.11,0.09,0.56,-0.01,0.04,0.15,
2.256,0.11,0.09,0.56,0.00,0.04,0.15,
2.258,0.11,0.09,0.56,0.01,0.03,0.14,
2.26,0.11,0.09,0.56,0.01,0.03,0.14,
2.295,0.11,0.09,0.56,0.02,0.03,0.13,
2.295,0.21,0.05,0.48,0.02,0.03,0.13,
2.296,0.21,0.05,0.48,0.03,0.03,0.13,
2.297,0.21,0.05,0.48,0.03,0.03,0.12,
2.297,0.21,0.05,0.48,0.04,0.03,0.12,
2.298,0.21,0.05,0.48,0.04,0.03,0.11,
2.298,0.21,0.05,0.48,0.04,0.03,0.11,
2.299,0.29,0.02,0.39,0.04,0.03,0.11,
2.3,0.29,0.02,0.39,0.04,0.03,0.10,
2.3,0.29,0.02,0.39,0.05,0.03,0.10,
2.301,0.29,0.02,0.39,0.05,0.03,0.09,
2.301,0.29,0.02,0.39,0.05,0.03,0.08,
2.302,0.29,0.02,0.39,0.05,0.03,0.08,
2.302,0.34,0.03,0.28,0.05,0.03,0.08,
2.303,0.34,0.03,0.28,0.05,0.03,0.07,
2.303,0.34,0.03,0.28,0.05,0.03,0.06,
2.304,0.34,0.03,0.28,0.05,0.04,0.06,
2.305,0.34,0.03,0.28,0.05,0.04,0.06,
2.306,0.34,0.03,0.28,0.05,0.04,0.05,
2.306,0.25,-0.01,0.25,0.05,0.04,0.05,
2.307,0.25,-0.01,0.25,0.06,0.05,0.05,
2.307,0.25,-0.01,0.25,0.06,0.05,0.04,
2.308,0.25,-0.01,0.25,0.06,0.06,0.04,
2.308,0.25,-0.01,0.25,0.06,0.06,0.04,
2.308,0.25,-0.01,0.25,0.06,0.07,0.04,
2.309,0.06,-0.08,0.25,0.06,0.07,0.04,
2.309,0.06,-0.08,0.25,0.07,0.07,0.04,
2.31,0.06,-0.08,0.25,0.07,0.08,0.04,
2.31,0.06,-0.08,0.25,0.08,0.09,0.05,
2.31,0.06,-0.08,0.25,0.08,0.09,0.05,
2.32,0.06,-0.08,0.25,0.08,0.10,0.06,
2.322,-0.12,-0.10,0.16,0.08,0.10,0.06,
2.323,-0.12,-0.10,0.16,0.08,0.11,0.06,
2.323,-0.12,-0.10,0.16,0.08,0.11,0.06,
2.323,-0.12,-0.10,0.16,0.08,0.12,0.07,
2.324,-0.12,-0.10,0.16,0.08,0.12,0.07,
2.324,-0.12,-0.10,0.16,0.08,0.12,0.08,
2.324,-0.18,-0.12,-0.01,0.08,0.12,0.08,
2.325,-0.18,-0.12,-0.01,0.08,0.13,0.08,
2.329,-0.18,-0.12,-0.01,0.07,0.13,0.09,
2.33,-0.18,-0.12,-0.01,0.07,0.13,0.09,
2.347,-0.18,-0.12,-0.01,0.07,0.13,0.10,
2.348,-0.18,-0.12,-0.01,0.06,0.14,0.10,
2.349,-0.21,-0.15,-0.21,0.06,0.14,0.10,
2.349,-0.21,-0.15,-0.21,0.06,0.14,0.10,
2.349,-0.21,-0.15,-0.21,0.06,0.14,0.11,
2.35,-0.21,-0.15,-0.21,0.05,0.14,0.11,
2.35,-0.21,-0.15,-0.21,0.05,0.14,0.11,
2.35,-0.21,-0.15,-0.21,0.04,0.14,0.11,
2.35,-0.10,-0.18,-0.36,0.04,0.14,0.11,
2.351,-0.10,-0.18,-0.36,0.04,0.14,0.12,
2.351,-0.10,-0.18,-0.36,0.03,0.14,0.12,
2.351,-0.10,-0.18,-0.36,0.02,0.14,0.12,
2.351,-0.10,-0.18,-0.36,0.02,0.14,0.12,
2.352,-0.10,-0.18,-0.36,0.02,0.13,0.11,
2.361,0.05,-0.22,-0.41,0.02,0.13,0.11,
2.364,0.05,-0.22,-0.41,0.01,0.13,0.11,
2.366,0.05,-0.22,-0.41,0.01,0.12,0.11,
2.367,0.05,-0.22,-0.41,0.00,0.11,0.10,
2.367,0.05,-0.22,-0.41,0.00,0.11,0.10,
2.368,0.05,-0.22,-0.41,0.00,0.10,0.10,
2.371,0.18,-0.23,-0.28,0.00,0.10,0.10,
2.372,0.18,-0.23,-0.28,-0.00,0.10,0.10,
2.372,0.18,-0.23,-0.28,-0.00,0.09,0.09,
2.372,0.18,-0.23,-0.28,0.01,0.08,0.08,
2.373,0.18,-0.23,-0.28,0.01,0.08,0.08,
2.373,0.18,-0.23,-0.28,0.01,0.08,0.08,
2.373,0.28,-0.27,-0.08,0.01,0.08,0.08,
2.374,0.28,-0.27,-0.08,0.02,0.07,0.07,
2.383,0.28,-0.27,-0.08,0.02,0.07,0.07,
2.383,0.28,-0.27,-0.08,0.04,0.06,0.06,
2.384,0.28,-0.27,-0.08,0.04,0.05,0.06,
2.384,0.28,-0.27,-0.08,0.05,0.04,0.05,
2.384,0.35,-0.27,0.11,0.05,0.04,0.05,
2.385,0.35,-0.27,0.11,0.06,0.04,0.04,
2.406,0.35,-0.27,0.11,0.07,0.03,0.04,
2.408,0.35,-0.27,0.11,0.09,0.02,0.03,
2.408,0.35,-0.27,0.11,0.09,0.02,0.03,
2.409,0.35,-0.27,0.11,0.10,0.01,0.02,
2.41,0.30,-0.30,0.25,0.10,0.01,0.02,
2.41,0.30,-0.30,0.25,0.11,0.01,0.02,
2.411,0.30,-0.30,0.25,0.13,0.01,0.02,
2.411,0.30,-0.30,0.25,0.14,0.00,0.01,
2.412,0.30,-0.30,0.25,0.14,0.00,0.01,
2.413,0.30,-0.30,0.25,0.15,0.00,0.01,
2.414,0.23,-0.29,0.16,0.15,0.00,0.01,
2.414,0.23,-0.29,0.16,0.16,0.01,0.00,
2.415,0.23,-0.29,0.16,0.17,0.01,0.00,
2.416,0.23,-0.29,0.16,0.17,0.01,0.00,
2.416,0.23,-0.29,0.16,0.17,0.01,-0.00,
2.417,0.23,-0.29,0.16,0.17,0.01,-0.00,
2.417,0.16,-0.24,-0.14,0.17,0.01,-0.00,
2.418,0.16,-0.24,-0.14,0.17,0.02,-0.00,
2.418,0.16,-0.24,-0.14,0.17,0.02,-0.01,
2.419,0.16,-0.24,-0.14,0.16,0.03,-0.01,
2.429,0.16,-0.24,-0.14,0.16,0.03,-0.01,
2.434,0.16,-0.24,-0.14,0.15,0.04,-0.01,
2.435,0.09,-0.16,-0.49,0.15,0.04,-0.01,
2.435,0.09,-0.16,-0.49,0.14,0.04,-0.02,
2.436,0.09,-0.16,-0.49,0.13,0.05,-0.02,
2.47,0.09,-0.16,-0.49,0.12,0.06,-0.02,
2.471,0.09,-0.16,-0.49,0.11,0.06,-0.02,
2.471,0.09,-0.16,-0.49,0.10,0.07,-0.02,
2.472,0.01,-0.13,-0.78,0.10,0.07,-0.02,
2.472,0.01,-0.13,-0.78,0.09,0.07,-0.02,
2.472,0.01,-0.13,-0.78,0.08,0.07,-0.02,
2.473,0.01,-0.13,-0.78,0.06,0.08,-0.02,
2.473,0.01,-0.13,-0.78,0.05,0.08,-0.02,
2.474,0.01,-0.13,-0.78,0.04,0.08,-0.02,
2.474,-0.08,-0.10,-0.87,0.04,0.08,-0.02,
2.474,-0.08,-0.10,-0.87,0.03,0.08,-0.02,
2.475,-0.08,-0.10,-0.87,0.02,0.08,-0.02,
2.475,-0.08,-0.10,-0.87,0.01,0.09,-0.02,
2.476,-0.08,-0.10,-0.87,-0.00,0.09,-0.03,
2.476,-0.08,-0.10,-0.87,-0.01,0.09,-0.03,
2.477,-0.13,-0.09,-0.82,-0.01,0.09,-0.03,
2.477,-0.13,-0.09,-0.82,-0.02,0.09,-0.03,
2.477,-0.13,-0.09,-0.82,-0.03,0.09,-0.03,
2.478,-0.13,-0.09,-0.82,-0.04,0.09,-0.03,
2.478,-0.13,-0.09,-0.82,-0.04,0.09,-0.03,
2.479,-0.13,-0.09,-0.82,-0.05,0.10,-0.03,
2.479,-0.20,-0.10,-0.71,-0.05,0.10,-0.03,
2.479,-0.20,-0.10,-0.71,-0.05,0.10,-0.04,
2.48,-0.20,-0.10,-0.71,-0.06,0.10,-0.04,
2.48,-0.20,-0.10,-0.71,-0.07,0.11,-0.04,
2.481,-0.20,-0.10,-0.71,-0.07,0.11,-0.04,
2.481,-0.20,-0.10,-0.71,-0.07,0.11,-0.05,
2.481,-0.16,-0.25,-0.53,-0.07,0.11,-0.05,
2.482,-0.16,-0.25,-0.53,-0.07,0.12,-0.06,
2.482,-0.16,-0.25,-0.53,-0.07,0.13,-0.06,
2.483,-0.16,-0.25,-0.53,-0.07,0.13,-0.06,
2.483,-0.16,-0.25,-0.53,-0.07,0.13,-0.06,
2.483,-0.16,-0.25,-0.53,-0.07,0.13,-0.07,
2.484,-0.22,-0.19,-0.34,-0.07,0.13,-0.07,
2.484,-0.22,-0.19,-0.34,-0.06,0.13,-0.07,
2.488,-0.22,-0.19,-0.34,-0.06,0.13,-0.07,
2.488,-0.22,-0.19,-0.34,-0.06,0.12,-0.06,
2.49,-0.22,-0.19,-0.34,-0.06,0.12,-0.07,
2.491,-0.22,-0.19,-0.34,-0.06,0.12,-0.07,
2.493,-0.32,-0.10,-0.24,-0.06,0.12,-0.07,
2.494,-0.32,-0.10,-0.24,-0.06,0.11,-0.06,
2.503,-0.32,-0.10,-0.24,-0.06,0.10,-0.06,
2.504,-0.32,-0.10,-0.24,-0.06,0.09,-0.07,
2.504,-0.32,-0.10,-0.24,-0.06,0.09,-0.07,
2.504,-0.32,-0.10,-0.24,-0.07,0.08,-0.07,
2.505,-0.31,-0.18,-0.25,-0.07,0.08,-0.07,
2.505,-0.31,-0.18,-0.25,-0.07,0.08,-0.07,
2.506,-0.31,-0.18,-0.25,-0.07,0.07,-0.08,
2.51,-0.31,-0.18,-0.25,-0.07,0.06,-0.08,
2.51,-0.31,-0.18,-0.25,-0.08,0.06,-0.08,
2.519,-0.31,-0.18,-0.25,-0.08,0.06,-0.08,
2.519,-0.25,-0.25,-0.22,-0.08,0.06,-0.08,
2.52,-0.25,-0.25,-0.22,-0.08,0.05,-0.08,
2.52,-0.25,-0.25,-0.22,-0.08,0.05,-0.08,
2.52,-0.25,-0.25,-0.22,-0.08,0.05,-0.09,
2.52,-0.25,-0.25,-0.22,-0.09,0.05,-0.09,
2.521,-0.25,-0.25,-0.22,-0.09,0.05,-0.09,
2.524,-0.25,-0.24,-0.13,-0.09,0.05,-0.09,
2.525,-0.25,-0.24,-0.13,-0.09,0.05,-0.09,
2.525,-0.25,-0.24,-0.13,-0.09,0.05,-0.08,
2.538,-0.25,-0.24,-0.13,-0.09,0.05,-0.08,
2.539,-0.25,-0.24,-0.13,-0.09,0.05,-0.08,
2.539,-0.25,-0.24,-0.13,-0.09,0.05,-0.08,
2.539,-0.29,-0.24,0.00,-0.09,0.05,-0.08,
2.54,-0.29,-0.24,0.00,-0.09,0.05,-0.08,
2.54,-0.29,-0.24,0.00,-0.09,0.05,-0.07,
2.54,-0.29,-0.24,0.00,-0.09,0.06,-0.07,
2.541,-0.29,-0.24,0.00,-0.09,0.06,-0.06,
2.541,-0.29,-0.24,0.00,-0.09,0.06,-0.06,
2.56,-0.31,-0.29,0.13,-0.09,0.06,-0.06,
2.56,-0.31,-0.29,0.13,-0.08,0.06,-0.06,
2.561,-0.31,-0.29,0.13,-0.09,0.06,-0.05,
2.561,-0.31,-0.29,0.13,-0.08,0.07,-0.05,
2.561,-0.31,-0.29,0.13,-0.08,0.07,-0.04,
2.561,-0.31,-0.29,0.13,-0.08,0.07,-0.04,
2.561,-0.29,-0.30,0.17,-0.08,0.07,-0.04,
2.562,-0.29,-0.30,0.17,-0.07,0.08,-0.03,
2.562,-0.29,-0.30,0.17,-0.07,0.08,-0.03,
2.562,-0.29,-0.30,0.17,-0.07,0.08,-0.02,
2.562,-0.29,-0.30,0.17,-0.07,0.08,-0.02,
2.562,-0.29,-0.30,0.17,-0.07,0.08,-0.02,
2.565,-0.21,-0.31,0.15,-0.07,0.08,-0.02,
2.565,-0.21,-0.31,0.15,-0.07,0.08,-0.01,
2.567,-0.21,-0.31,0.15,-0.07,0.08,-0.01,
2.569,-0.21,-0.31,0.15,-0.06,0.08,-0.01,
2.571,-0.21,-0.31,0.15,-0.06,0.08,-0.00,
2.572,-0.21,-0.31,0.15,-0.06,0.08,0.00,
2.573,-0.14,-0.29,0.08,-0.06,0.08,0.00,
2.574,-0.14,-0.29,0.08,-0.06,0.08,0.00,
2.575,-0.14,-0.29,0.08,-0.06,0.08,0.01,
2.578,-0.14,-0.29,0.08,-0.06,0.08,0.01,
2.58,-0.14,-0.29,0.08,-0.06,0.08,0.01,
2.582,-0.14,-0.29,0.08,-0.06,0.08,0.01,
2.584,-0.02,-0.29,-0.02,-0.06,0.08,0.01,
2.584,-0.02,-0.29,-0.02,-0.06,0.08,0.01,
2.585,-0.02,-0.29,-0.02,-0.06,0.08,0.01,
2.588,-0.02,-0.29,-0.02,-0.07,0.07,0.01,
2.589,-0.02,-0.29,-0.02,-0.07,0.07,0.01,
2.591,-0.02,-0.29,-0.02,-0.07,0.07,0.01,
2.595,0.11,-0.26,-0.12,-0.07,0.07,0.01,
2.624,0.11,-0.26,-0.12,-0.07,0.07,0.01,
2.624,0.11,-0.26,-0.12,-0.08,0.07,0.01,
2.624,0.11,-0.26,-0.12,-0.08,0.06,0.00,
2.624,0.11,-0.26,-0.12,-0.08,0.06,0.00,
2.625,0.11,-0.26,-0.12,-0.08,0.05,-0.00,
2.625,0.20,-0.23,-0.14,-0.08,0.05,-0.00,
2.625,0.20,-0.23,-0.14,-0.08,0.05,-0.00,
2.626,0.20,-0.23,-0.14,-0.08,0.04,-0.00,
2.626,0.20,-0.23,-0.14,-0.08,0.04,-0.01,
2.626,0.20,-0.23,-0.14,-0.08,0.04,-0.01,
2.626,0.20,-0.23,-0.14,-0.08,0.03,-0.01,
2.627,0.19,-0.21,-0.11,-0.08,0.03,-0.01,
2.627,0.19,-0.21,-0.11,-0.07,0.03,-0.01,
2.627,0.19,-0.21,-0.11,-0.07,0.03,-0.02,
2.627,0.19,-0.21,-0.11,-0.07,0.02,-0.02,
2.628,0.19,-0.21,-0.11,-0.06,0.01,-0.02,
2.628,0.19,-0.21,-0.11,-0.06,0.01,-0.03,
2.628,0.10,-0.18,-0.03,-0.06,0.01,-0.03,
2.628,0.10,-0.18,-0.03,-0.05,0.00,-0.03,
2.629,0.10,-0.18,-0.03,-0.05,-0.00,-0.03,
2.629,0.10,-0.18,-0.03,-0.04,-0.01,-0.03,
2.629,0.10,-0.18,-0.03,-0.03,-0.01,-0.03,
2.631,0.10,-0.18,-0.03,-0.03,-0.02,-0.03,
2.634,-0.05,-0.17,-0.04,-0.03,-0.02,-0.03,
2.634,-0.05,-0.17,-0.04,-0.02,-0.02,-0.03,
2.635,-0.05,-0.17,-0.04,-0.01,-0.03,-0.03,
2.638,-0.05,-0.17,-0.04,-0.00,-0.04,-0.03,
2.639,-0.05,-0.17,-0.04,0.01,-0.04,-0.03,
2.641,-0.05,-0.17,-0.04,0.01,-0.05,-0.03,
2.644,-0.20,-0.18,-0.12,0.01,-0.05,-0.03,
2.644,-0.20,-0.18,-0.12,0.01,-0.05,-0.03,
2.646,-0.20,-0.18,-0.12,0.02,-0.06,-0.02,
2.649,-0.20,-0.18,-0.12,0.03,-0.07,-0.02,
2.649,-0.20,-0.18,-0.12,0.03,-0.08,-0.02,
2.651,-0.20,-0.18,-0.12,0.03,-0.09,-0.02,
2.653,-0.31,-0.19,-0.31,0.03,-0.09,-0.02,
2.654,-0.31,-0.19,-0.31,0.04,-0.10,-0.02,
2.655,-0.31,-0.19,-0.31,0.04,-0.11,-0.01,
2.658,-0.31,-0.19,-0.31,0.04,-0.12,-0.01,
2.659,-0.31,-0.19,-0.31,0.04,-0.12,-0.01,
2.664,-0.31,-0.19,-0.31,0.04,-0.13,-0.01,
2.665,-0.41,-0.19,-0.49,0.04,-0.13,-0.01,
2.666,-0.41,-0.19,-0.49,0.04,-0.14,-0.01,
2.666,-0.41,-0.19,-0.49,0.04,-0.14,-0.00,
2.668,-0.41,-0.19,-0.49,0.04,-0.15,0.00,
2.67,-0.41,-0.19,-0.49,0.03,-0.15,0.00,
2.672,-0.41,-0.19,-0.49,0.03,-0.16,0.01,
2.673,-0.44,-0.20,-0.67,0.03,-0.16,0.01,
2.674,-0.44,-0.20,-0.67,0.03,-0.16,0.01,
2.676,-0.44,-0.20,-0.67,0.03,-0.16,0.01,
2.685,-0.44,-0.20,-0.67,0.02,-0.16,0.01,
2.686,-0.44,-0.20,-0.67,0.01,-0.16,0.02,
2.686,-0.44,-0.20,-0.67,0.01,-0.15,0.02,
2.686,-0.48,-0.23,-0.80,0.01,-0.15,0.02,
2.687,-0.48,-0.23,-0.80,0.00,-0.15,0.02,
2.687,-0.48,-0.23,-0.80,-0.00,-0.15,0.02,
2.688,-0.48,-0.23,-0.80,-0.02,-0.15,0.03,
2.69,-0.48,-0.23,-0.80,-0.03,-0.15,0.03,
2.693,-0.48,-0.23,-0.80,-0.04,-0.16,0.04,
2.706,-0.45,-0.15,-0.90,-0.04,-0.16,0.04,
2.707,-0.45,-0.15,-0.90,-0.05,-0.16,0.04,
2.708,-0.45,-0.15,-0.90,-0.07,-0.17,0.05,
2.708,-0.45,-0.15,-0.90,-0.08,-0.17,0.05,
2.709,-0.45,-0.15,-0.90,-0.09,-0.17,0.05,
2.71,-0.45,-0.15,-0.90,-0.11,-0.18,0.05,
2.711,-0.34,-0.08,-0.88,-0.11,-0.18,0.05,
2.712,-0.34,-0.08,-0.88,-0.12,-0.17,0.05,
2.713,-0.34,-0.08,-0.88,-0.14,-0.17,0.05,
2.716,-0.34,-0.08,-0.88,-0.16,-0.16,0.06,
2.717,-0.34,-0.08,-0.88,-0.17,-0.15,0.06,
2.717,-0.34,-0.08,-0.88,-0.18,-0.14,0.06,
2.717,-0.20,-0.11,-0.84,-0.18,-0.14,0.06,
2.718,-0.20,-0.11,-0.84,-0.20,-0.13,0.06,
2.718,-0.20,-0.11,-0.84,-0.21,-0.11,0.06,
2.718,-0.20,-0.11,-0.84,-0.23,-0.10,0.06,
2.721,-0.20,-0.11,-0.84,-0.24,-0.08,0.05,
2.723,-0.20,-0.11,-0.84,-0.25,-0.06,0.05,
2.724,-0.05,-0.11,-0.62,-0.25,-0.06,0.05,
2.724,-0.05,-0.11,-0.62,-0.27,-0.05,0.05,
2.725,-0.05,-0.11,-0.62,-0.28,-0.03,0.05,
2.73,-0.05,-0.11,-0.62,-0.29,-0.01,0.05,
2.732,-0.05,-0.11,-0.62,-0.30,0.00,0.05,
2.733,-0.05,-0.11,-0.62,-0.31,0.02,0.05,
2.734,-0.03,-0.13,-0.27,-0.31,0.02,0.05,
2.734,-0.03,-0.13,-0.27,-0.32,0.03,0.05,
2.736,-0.03,-0.13,-0.27,-0.32,0.05,0.05,
2.738,-0.03,-0.13,-0.27,-0.32,0.06,0.05,
2.739,-0.03,-0.13,-0.27,-0.32,0.08,0.05,
2.741,-0.03,-0.13,-0.27,-0.32,0.09,0.05,
2.745,-0.09,-0.15,0.10,-0.32,0.09,0.05,
2.746,-0.09,-0.15,0.10,-0.31,0.10,0.05,
2.748,-0.09,-0.15,0.10,-0.31,0.11,0.05,
2.749,-0.09,-0.15,0.10,-0.30,0.12,0.05,
2.75,-0.09,-0.15,0.10,-0.30,0.13,0.05,
2.752,-0.09,-0.15,0.10,-0.29,0.14,0.05,
2.756,-0.11,-0.18,0.33,-0.29,0.14,0.05,
2.756,-0.11,-0.18,0.33,-0.28,0.14,0.05,
2.757,-0.11,-0.18,0.33,-0.27,0.15,0.05,
2.759,-0.11,-0.18,0.33,-0.27,0.15,0.04,
2.762,-0.11,-0.18,0.33,-0.26,0.15,0.04,
2.795,-0.11,-0.18,0.33,-0.26,0.14,0.04,
2.796,-0.12,-0.19,0.32,-0.26,0.14,0.04,
2.797,-0.12,-0.19,0.32,-0.25,0.14,0.04,
2.798,-0.12,-0.19,0.32,-0.25,0.13,0.04,
2.798,-0.12,-0.19,0.32,-0.24,0.13,0.04,
2.799,-0.12,-0.19,0.32,-0.24,0.12,0.03,
2.8,-0.12,-0.19,0.32,-0.24,0.11,0.03,
2.8,-0.13,-0.18,0.15,-0.24,0.11,0.03,
2.801,-0.13,-0.18,0.15,-0.24,0.10,0.03,
2.801,-0.13,-0.18,0.15,-0.24,0.09,0.03,
2.802,-0.13,-0.18,0.15,-0.25,0.08,0.02,
2.803,-0.13,-0.18,0.15,-0.25,0.07,0.02,
2.803,-0.13,-0.18,0.15,-0.25,0.07,0.02,
2.803,-0.14,-0.18,-0.05,-0.25,0.07,0.02,
2.804,-0.14,-0.18,-0.05,-0.26,0.06,0.02,
2.804,-0.14,-0.18,-0.05,-0.27,0.06,0.01,
2.805,-0.14,-0.18,-0.05,-0.27,0.06,0.01,
2.805,-0.14,-0.18,-0.05,-0.28,0.05,0.01,
2.806,-0.14,-0.18,-0.05,-0.28,0.05,0.00,
2.806,-0.21,-0.15,-0.08,-0.28,0.05,0.00,
2.806,-0.21,-0.15,-0.08,-0.29,0.05,0.00,
2.807,-0.21,-0.15,-0.08,-0.29,0.05,-0.00,
2.807,-0.21,-0.15,-0.08,-0.29,0.05,-0.00,
2.808,-0.21,-0.15,-0.08,-0.30,0.06,-0.00,
2.808,-0.21,-0.15,-0.08,-0.30,0.06,-0.00,
2.808,-0.34,-0.11,0.05,-0.30,0.06,-0.00,
2.809,-0.34,-0.11,0.05,-0.30,0.07,-0.00,
2.809,-0.34,-0.11,0.05,-0.30,0.07,-0.00,
2.81,-0.34,-0.11,0.05,-0.30,0.07,-0.00,
2.81,-0.34,-0.11,0.05,-0.29,0.07,-0.00,
2.813,-0.34,-0.11,0.05,-0.29,0.08,-0.00,
2.813,-0.44,-0.11,0.25,-0.29,0.08,-0.00,
2.814,-0.44,-0.11,0.25,-0.29,0.08,0.00,
2.816,-0.44,-0.11,0.25,-0.28,0.08,0.00,
2.818,-0.44,-0.11,0.25,-0.28,0.08,0.00,
2.82,-0.44,-0.11,0.25,-0.27,0.08,0.00,
2.822,-0.44,-0.11,0.25,-0.27,0.08,0.00,
2.823,-0.47,-0.17,0.45,-0.27,0.08,0.00,
2.824,-0.47,-0.17,0.45,-0.26,0.08,0.01,
2.843,-0.47,-0.17,0.45,-0.23,0.09,0.01,
2.844,-0.47,-0.17,0.45,-0.23,0.09,0.01,
2.844,-0.47,-0.17,0.45,-0.23,0.09,0.01,
2.845,-0.47,-0.17,0.45,-0.22,0.09,0.00,
2.845,-0.45,-0.15,0.53,-0.22,0.09,0.00,
2.846,-0.45,-0.15,0.53,-0.21,0.09,0.01,
2.847,-0.45,-0.15,0.53,-0.20,0.09,0.00,
2.847,-0.45,-0.15,0.53,-0.19,0.08,0.01,
2.848,-0.45,-0.15,0.53,-0.18,0.08,0.00,
2.848,-0.45,-0.15,0.53,-0.17,0.08,0.00,
2.849,-0.42,-0.13,0.51,-0.17,0.08,0.00,
2.85,-0.42,-0.13,0.51,-0.17,0.08,0.00,
2.851,-0.42,-0.13,0.51,-0.16,0.08,-0.00,
2.852,-0.42,-0.13,0.51,-0.15,0.07,-0.01,
2.853,-0.42,-0.13,0.51,-0.14,0.07,-0.01,
2.854,-0.42,-0.13,0.51,-0.14,0.06,-0.01,
2.854,-0.40,-0.07,0.40,-0.14,0.06,-0.01,
2.854,-0.40,-0.07,0.40,-0.13,0.06,-0.02,
2.855,-0.40,-0.07,0.40,-0.13,0.05,-0.02,
2.858,-0.40,-0.07,0.40,-0.12,0.04,-0.02,
2.86,-0.40,-0.07,0.40,-0.12,0.04,-0.02,
2.861,-0.40,-0.07,0.40,-0.12,0.03,-0.03,
2.863,-0.41,-0.04,0.30,-0.12,0.03,-0.03,
2.863,-0.41,-0.04,0.30,-0.12,0.03,-0.03,
2.866,-0.41,-0.04,0.30,-0.11,0.02,-0.03,
2.868,-0.41,-0.04,0.30,-0.11,0.01,-0.03,
2.87,-0.41,-0.04,0.30,-0.10,0.01,-0.03,
2.871,-0.41,-0.04,0.30,-0.10,0.01,-0.04,
2.873,-0.43,-0.04,0.30,-0.10,0.01,-0.04,
2.874,-0.43,-0.04,0.30,-0.10,-0.00,-0.04,
2.877,-0.43,-0.04,0.30,-0.09,-0.01,-0.04,
2.879,-0.43,-0.04,0.30,-0.09,-0.01,-0.04,
2.881,-0.43,-0.04,0.30,-0.08,-0.02,-0.04,
2.882,-0.43,-0.04,0.30,-0.08,-0.03,-0.05,
2.883,-0.44,-0.03,0.30,-0.08,-0.03,-0.05,
2.884,-0.44,-0.03,0.30,-0.07,-0.03,-0.05,
2.886,-0.44,-0.03,0.30,-0.07,-0.04,-0.05,
2.888,-0.44,-0.03,0.30,-0.07,-0.04,-0.05,
2.889,-0.44,-0.03,0.30,-0.07,-0.05,-0.05,
2.891,-0.44,-0.03,0.30,-0.06,-0.05,-0.05,
2.894,-0.41,-0.03,0.30,-0.06,-0.05,-0.05,
2.894,-0.41,-0.03,0.30,-0.06,-0.06,-0.05,
2.896,-0.41,-0.03,0.30,-0.06,-0.06,-0.05,
2.898,-0.41,-0.03,0.30,-0.06,-0.06,-0.05,
2.899,-0.41,-0.03,0.30,-0.06,-0.07,-0.06,
2.901,-0.41,-0.03,0.30,-0.07,-0.06,-0.06,
2.903,-0.36,-0.09,0.26,-0.07,-0.06,-0.06,
2.904,-0.36,-0.09,0.26,-0.07,-0.06,-0.06,
2.905,-0.36,-0.09,0.26,-0.07,-0.06,-0.06,
2.91,-0.36,-0.09,0.26,-0.08,-0.05,-0.06,
2.91,-0.36,-0.09,0.26,-0.08,-0.05,-0.07,
2.912,-0.36,-0.09,0.26,-0.08,-0.04,-0.07,
2.914,-0.23,-0.08,0.29,-0.08,-0.04,-0.07,
2.915,-0.23,-0.08,0.29,-0.09,-0.04,-0.07,
2.916,-0.23,-0.08,0.29,-0.09,-0.03,-0.07,
2.918,-0.23,-0.08,0.29,-0.09,-0.02,-0.08,
2.919,-0.23,-0.08,0.29,-0.09,-0.01,-0.08,
2.921,-0.23,-0.08,0.29,-0.09,-0.00,-0.08,
2.923,-0.08,-0.09,0.46,-0.09,-0.00,-0.08,
2.924,-0.08,-0.09,0.46,-0.09,0.01,-0.08,
2.926,-0.08,-0.09,0.46,-0.09,0.02,-0.09,
2.955,-0.08,-0.09,0.46,-0.09,0.03,-0.09,
2.956,-0.08,-0.09,0.46,-0.09,0.03,-0.09,
2.956,-0.08,-0.09,0.46,-0.08,0.04,-0.09,
2.957,-0.05,-0.07,0.67,-0.08,0.04,-0.09,
2.957,-0.05,-0.07,0.67,-0.07,0.05,-0.09,
2.958,-0.05,-0.07,0.67,-0.07,0.05,-0.09,
2.958,-0.05,-0.07,0.67,-0.05,0.05,-0.10,
2.958,-0.05,-0.07,0.67,-0.05,0.05,-0.10,
2.959,-0.05,-0.07,0.67,-0.04,0.06,-0.10,
2.959,0.01,-0.05,0.87,-0.04,0.06,-0.10,
2.96,0.01,-0.05,0.87,-0.03,0.06,-0.10,
2.96,0.01,-0.05,0.87,-0.02,0.06,-0.10,
2.96,0.01,-0.05,0.87,-0.00,0.06,-0.11,
2.961,0.01,-0.05,0.87,0.00,0.06,-0.11,
2.961,0.01,-0.05,0.87,0.02,0.06,-0.11,
2.962,0.07,-0.04,0.89,0.02,0.06,-0.11,
2.962,0.07,-0.04,0.89,0.03,0.06,-0.11,
2.962,0.07,-0.04,0.89,0.04,0.06,-0.11,
2.963,0.07,-0.04,0.89,0.06,0.07,-0.12,
2.963,0.07,-0.04,0.89,0.06,0.07,-0.12,
2.964,0.07,-0.04,0.89,0.08,0.07,-0.12,
2.964,0.20,-0.01,0.73,0.08,0.07,-0.12,
2.964,0.20,-0.01,0.73,0.08,0.06,-0.13,
2.965,0.20,-0.01,0.73,0.09,0.06,-0.13,
2.968,0.20,-0.01,0.73,0.10,0.05,-0.14,
2.969,0.20,-0.01,0.73,0.10,0.05,-0.14,
2.972,0.20,-0.01,0.73,0.10,0.05,-0.14,
2.974,0.34,0.07,0.43,0.10,0.05,-0.14,
2.974,0.34,0.07,0.43,0.10,0.04,-0.15,
2.982,0.34,0.07,0.43,0.10,0.03,-0.16,
2.983,0.34,0.07,0.43,0.10,0.03,-0.16,
2.983,0.34,0.07,0.43,0.10,0.03,-0.17,
2.983,0.34,0.07,0.43,0.10,0.03,-0.18,
2.984,0.49,0.09,0.17,0.10,0.03,-0.18,
2.984,0.49,0.09,0.17,0.10,0.02,-0.18,
2.985,0.49,0.09,0.17,0.10,0.02,-0.19,
2.99,0.49,0.09,0.17,0.09,0.02,-0.20,
3.019,0.49,0.09,0.17,0.09,0.02,-0.21,
3.021,0.49,0.09,0.17,0.09,0.02,-0.21,
3.022,0.55,0.10,0.01,0.09,0.02,-0.21,
3.023,0.55,0.10,0.01,0.09,0.02,-0.22,
3.023,0.55,0.10,0.01,0.09,0.03,-0.23,
3.024,0.55,0.10,0.01,0.09,0.03,-0.24,
3.024,0.55,0.10,0.01,0.09,0.03,-0.24,
3.025,0.55,0.10,0.01,0.09,0.03,-0.25,
3.025,0.65,0.10,-0.06,0.09,0.03,-0.25,
3.026,0.65,0.10,-0.06,0.09,0.03,-0.25,
3.027,0.65,0.10,-0.06,0.09,0.04,-0.26,
3.031,0.65,0.10,-0.06,0.08,0.04,-0.27,
3.032,0.65,0.10,-0.06,0.08,0.04,-0.28,
3.032,0.65,0.10,-0.06,0.08,0.04,-0.29,
3.033,0.69,0.13,-0.07,0.08,0.04,-0.29,
3.034,0.69,0.13,-0.07,0.08,0.04,-0.29,
3.034,0.69,0.13,-0.07,0.08,0.04,-0.30,
3.035,0.69,0.13,-0.07,0.08,0.04,-0.31,
3.035,0.69,0.13,-0.07,0.08,0.04,-0.32,
3.035,0.69,0.13,-0.07,0.08,0.04,-0.33,
3.036,0.60,0.17,-0.11,0.08,0.04,-0.33,
3.036,0.60,0.17,-0.11,0.08,0.04,-0.33,
3.036,0.60,0.17,-0.11,0.08,0.03,-0.34,
3.037,0.60,0.17,-0.11,0.09,0.03,-0.34,
3.037,0.60,0.17,-0.11,0.08,0.03,-0.35,
3.037,0.60,0.17,-0.11,0.08,0.02,-0.35,
3.038,0.47,0.12,-0.18,0.08,0.02,-0.35,
3.038,0.47,0.12,-0.18,0.09,0.02,-0.36,
3.038,0.47,0.12,-0.18,0.09,0.01,-0.36,
3.039,0.47,0.12,-0.18,0.08,-0.01,-0.37,
3.039,0.47,0.12,-0.18,0.08,-0.01,-0.37,
3.043,0.47,0.12,-0.18,0.08,-0.02,-0.37,
3.047,0.40,0.09,-0.32,0.08,-0.02,-0.37,
3.047,0.40,0.09,-0.32,0.08,-0.03,-0.38,
3.048,0.40,0.09,-0.32,0.07,-0.04,-0.38,
3.05,0.40,0.09,-0.32,0.06,-0.06,-0.39,
3.05,0.40,0.09,-0.32,0.06,-0.07,-0.39,
3.052,0.40,0.09,-0.32,0.06,-0.08,-0.39,
3.054,0.35,0.01,-0.50,0.06,-0.08,-0.39,
3.056,0.35,0.01,-0.50,0.05,-0.09,-0.40,
3.056,0.35,0.01,-0.50,0.04,-0.09,-0.40,
3.06,0.35,0.01,-0.50,0.03,-0.11,-0.41,
3.064,0.35,0.01,-0.50,0.03,-0.11,-0.41,
3.065,0.35,0.01,-0.50,0.02,-0.12,-0.41,
3.066,0.34,-0.04,-0.57,0.02,-0.12,-0.41,
3.067,0.34,-0.04,-0.57,0.01,-0.13,-0.41,
3.067,0.34,-0.04,-0.57,0.00,-0.14,-0.41,
3.07,0.34,-0.04,-0.57,-0.01,-0.14,-0.42,
3.071,0.34,-0.04,-0.57,-0.01,-0.15,-0.42,
3.071,0.34,-0.04,-0.57,-0.02,-0.15,-0.42,
3.073,0.35,-0.10,-0.54,-0.02,-0.15,-0.42,
3.074,0.35,-0.10,-0.54,-0.03,-0.15,-0.42,
3.077,0.35,-0.10,-0.54,-0.03,-0.15,-0.42,
3.08,0.35,-0.10,-0.54,-0.04,-0.16,-0.43,
3.083,0.35,-0.10,-0.54,-0.05,-0.16,-0.43,
3.084,0.35,-0.10,-0.54,-0.05,-0.16,-0.43,
3.084,0.35,-0.17,-0.45,-0.05,-0.16,-0.43,
3.084,0.35,-0.17,-0.45,-0.06,-0.16,-0.43,
3.087,0.35,-0.17,-0.45,-0.06,-0.16,-0.43,
3.088,0.35,-0.17,-0.45,-0.07,-0.16,-0.43,
3.091,0.35,-0.17,-0.45,-0.07,-0.16,-0.43,
3.092,0.35,-0.17,-0.45,-0.07,-0.16,-0.43,
3.099,0.33,-0.20,-0.30,-0.07,-0.16,-0.43,
3.133,0.33,-0.20,-0.30,-0.08,-0.16,-0.43,
3.134,0.33,-0.20,-0.30,-0.08,-0.16,-0.43,
3.134,0.33,-0.20,-0.30,-0.08,-0.16,-0.43,
3.134,0.33,-0.20,-0.30,-0.08,-0.16,-0.43,
3.135,0.33,-0.20,-0.30,-0.07,-0.16,-0.43,
3.135,0.33,-0.23,-0.11,-0.07,-0.16,-0.43,
3.136,0.33,-0.23,-0.11,-0.07,-0.16,-0.43,
3.136,0.33,-0.23,-0.11,-0.07,-0.17,-0.43,
3.136,0.33,-0.23,-0.11,-0.06,-0.17,-0.43,
3.137,0.33,-0.23,-0.11,-0.06,-0.17,-0.43,
3.137,0.33,-0.23,-0.11,-0.05,-0.17,-0.43,
3.138,0.33,-0.18,0.04,-0.05,-0.17,-0.43,
3.138,0.33,-0.18,0.04,-0.05,-0.17,-0.43,
3.138,0.33,-0.18,0.04,-0.04,-0.18,-0.43,
3.139,0.33,-0.18,0.04,-0.03,-0.18,-0.43,
3.139,0.33,-0.18,0.04,-0.03,-0.18,-0.43,
3.14,0.33,-0.18,0.04,-0.03,-0.18,-0.43,
3.14,0.31,-0.13,0.01,-0.03,-0.18,-0.43,
3.14,0.31,-0.13,0.01,-0.02,-0.18,-0.43,
3.141,0.31,-0.13,0.01,-0.02,-0.18,-0.43,
3.141,0.31,-0.13,0.01,-0.01,-0.19,-0.43,
3.142,0.31,-0.13,0.01,-0.01,-0.19,-0.43,
3.142,0.31,-0.13,0.01,-0.01,-0.19,-0.42,
3.142,0.27,-0.05,-0.16,-0.01,-0.19,-0.42,
3.143,0.27,-0.05,-0.16,-0.01,-0.19,-0.42,
3.143,0.27,-0.05,-0.16,-0.01,-0.20,-0.42,
3.144,0.27,-0.05,-0.16,-0.02,-0.21,-0.43,
3.144,0.27,-0.05,-0.16,-0.02,-0.22,-0.43,
3.144,0.27,-0.05,-0.16,-0.02,-0.22,-0.43,
3.145,0.32,0.05,-0.31,-0.02,-0.22,-0.43,
3.145,0.32,0.05,-0.31,-0.02,-0.23,-0.43,
3.146,0.32,0.05,-0.31,-0.03,-0.24,-0.43,
3.15,0.32,0.05,-0.31,-0.03,-0.25,-0.44,
3.151,0.32,0.05,-0.31,-0.03,-0.26,-0.44,
3.152,0.32,0.05,-0.31,-0.04,-0.26,-0.44,
3.155,0.36,0.13,-0.41,-0.04,-0.26,-0.44,
3.156,0.36,0.13,-0.41,-0.04,-0.27,-0.44,
3.156,0.36,0.13,-0.41,-0.05,-0.28,-0.44,
3.165,0.36,0.13,-0.41,-0.05,-0.28,-0.45,
3.166,0.36,0.13,-0.41,-0.06,-0.29,-0.45,
3.167,0.36,0.13,-0.41,-0.06,-0.29,-0.45,
3.167,0.36,0.19,-0.39,-0.06,-0.29,-0.45,
3.167,0.36,0.19,-0.39,-0.06,-0.30,-0.45,
3.167,0.36,0.19,-0.39,-0.07,-0.30,-0.45,
3.17,0.36,0.19,-0.39,-0.07,-0.31,-0.46,
3.171,0.36,0.19,-0.39,-0.07,-0.31,-0.46,
3.171,0.36,0.19,-0.39,-0.07,-0.31,-0.46,
3.174,0.39,0.22,-0.28,-0.07,-0.31,-0.46,
3.175,0.39,0.22,-0.28,-0.08,-0.32,-0.46,
3.179,0.39,0.22,-0.28,-0.08,-0.32,-0.47,
3.18,0.39,0.22,-0.28,-0.07,-0.33,-0.47,
3.18,0.39,0.22,-0.28,-0.07,-0.33,-0.48,
3.181,0.39,0.22,-0.28,-0.07,-0.32,-0.48,
3.183,0.42,0.28,-0.13,-0.07,-0.32,-0.48,
3.183,0.42,0.28,-0.13,-0.07,-0.32,-0.49,
3.185,0.42,0.28,-0.13,-0.06,-0.32,-0.49,
3.189,0.42,0.28,-0.13,-0.06,-0.32,-0.50,
3.189,0.42,0.28,-0.13,-0.06,-0.32,-0.50,
3.192,0.42,0.28,-0.13,-0.05,-0.32,-0.50,
3.193,0.33,0.30,-0.09,-0.05,-0.32,-0.50,
3.193,0.33,0.30,-0.09,-0.05,-0.32,-0.51,
3.195,0.33,0.30,-0.09,-0.04,-0.32,-0.51,
3.199,0.33,0.30,-0.09,-0.04,-0.32,-0.52,
3.203,0.33,0.30,-0.09,-0.04,-0.32,-0.52,
3.204,0.33,0.30,-0.09,-0.04,-0.32,-0.52,
3.207,0.30,0.33,-0.22,-0.04,-0.32,-0.52,
3.208,0.30,0.33,-0.22,-0.04,-0.32,-0.53,
3.208,0.30,0.33,-0.22,-0.04,-0.32,-0.53,
3.209,0.30,0.33,-0.22,-0.04,-0.33,-0.54,
3.21,0.30,0.33,-0.22,-0.05,-0.33,-0.54,
3.214,0.30,0.33,-0.22,-0.05,-0.34,-0.55,
3.215,0.23,0.37,-0.37,-0.05,-0.34,-0.55,
3.216,0.23,0.37,-0.37,-0.05,-0.34,-0.55,
3.217,0.23,0.37,-0.37,-0.06,-0.34,-0.56,
3.219,0.23,0.37,-0.37,-0.07,-0.35,-0.57,
3.22,0.23,0.37,-0.37,-0.07,-0.35,-0.57,
3.222,0.23,0.37,-0.37,-0.08,-0.35,-0.58,
3.229,0.17,0.39,-0.49,-0.08,-0.35,-0.58,
3.23,0.17,0.39,-0.49,-0.09,-0.35,-0.58,
3.23,0.17,0.39,-0.49,-0.09,-0.35,-0.59,
3.23,0.17,0.39,-0.49,-0.10,-0.35,-0.59,
3.23,0.17,0.39,-0.49,-0.11,-0.35,-0.60,
3.231,0.17,0.39,-0.49,-0.11,-0.35,-0.60,
3.233,0.14,0.38,-0.51,-0.11,-0.35,-0.60,
3.233,0.14,0.38,-0.51,-0.12,-0.35,-0.61,
3.235,0.14,0.38,-0.51,-0.13,-0.35,-0.61,
3.254,0.14,0.38,-0.51,-0.14,-0.35,-0.62,
3.256,0.14,0.38,-0.51,-0.14,-0.35,-0.62,
3.257,0.14,0.38,-0.51,-0.15,-0.35,-0.63,
3.258,0.12,0.38,-0.38,-0.15,-0.35,-0.63,
3.261,0.12,0.38,-0.38,-0.15,-0.35,-0.63,
3.262,0.12,0.38,-0.38,-0.16,-0.35,-0.64,
3.264,0.12,0.38,-0.38,-0.16,-0.34,-0.64,
3.265,0.12,0.38,-0.38,-0.16,-0.34,-0.64,
3.265,0.12,0.38,-0.38,-0.17,-0.34,-0.65,
3.266,0.02,0.31,-0.19,-0.17,-0.34,-0.65,
3.266,0.02,0.31,-0.19,-0.17,-0.33,-0.65,
3.267,0.02,0.31,-0.19,-0.17,-0.32,-0.65,
3.267,0.02,0.31,-0.19,-0.16,-0.32,-0.66,
3.267,0.02,0.31,-0.19,-0.16,-0.31,-0.66,
3.296,0.02,0.31,-0.19,-0.16,-0.31,-0.66,
3.296,-0.09,0.25,-0.06,-0.16,-0.31,-0.66,
3.297,-0.09,0.25,-0.06,-0.16,-0.31,-0.66,
3.297,-0.09,0.25,-0.06,-0.16,-0.31,-0.66,
3.297,-0.09,0.25,-0.06,-0.15,-0.31,-0.66,
3.298,-0.09,0.25,-0.06,-0.15,-0.31,-0.66,
3.298,-0.09,0.25,-0.06,-0.14,-0.31,-0.67,
3.298,-0.20,0.25,0.04,-0.14,-0.31,-0.67,
3.298,-0.20,0.25,0.04,-0.14,-0.31,-0.67,
3.299,-0.20,0.25,0.04,-0.14,-0.31,-0.67,
3.299,-0.20,0.25,0.04,-0.13,-0.31,-0.66,
3.299,-0.20,0.25,0.04,-0.12,-0.32,-0.66,
3.299,-0.20,0.25,0.04,-0.12,-0.32,-0.67,
3.3,-0.28,0.23,0.04,-0.12,-0.32,-0.67,
3.3,-0.28,0.23,0.04,-0.11,-0.32,-0.66,
3.3,-0.28,0.23,0.04,-0.11,-0.32,-0.66,
3.3,-0.28,0.23,0.04,-0.10,-0.32,-0.66,
3.301,-0.28,0.23,0.04,-0.10,-0.32,-0.66,
3.301,-0.28,0.23,0.04,-0.09,-0.33,-0.66,
3.301,-0.31,0.24,-0.07,-0.09,-0.33,-0.66,
3.301,-0.31,0.24,-0.07,-0.09,-0.33,-0.66,
3.302,-0.31,0.24,-0.07,-0.09,-0.33,-0.66,
3.302,-0.31,0.24,-0.07,-0.08,-0.33,-0.66,
3.302,-0.31,0.24,-0.07,-0.08,-0.34,-0.66,
3.303,-0.31,0.24,-0.07,-0.08,-0.34,-0.66,
3.303,-0.27,0.27,-0.24,-0.08,-0.34,-0.66,
3.303,-0.27,0.27,-0.24,-0.08,-0.34,-0.66,
3.305,-0.27,0.27,-0.24,-0.08,-0.35,-0.67,
3.308,-0.27,0.27,-0.24,-0.08,-0.35,-0.67,
3.309,-0.27,0.27,-0.24,-0.08,-0.35,-0.67,
3.311,-0.27,0.27,-0.24,-0.09,-0.35,-0.67,
3.314,-0.15,0.31,-0.43,-0.09,-0.35,-0.67,
3.314,-0.15,0.31,-0.43,-0.09,-0.35,-0.68,
3.315,-0.15,0.31,-0.43,-0.10,-0.34,-0.68,
3.319,-0.15,0.31,-0.43,-0.11,-0.34,-0.69,
3.319,-0.15,0.31,-0.43,-0.11,-0.34,-0.69,
3.321,-0.15,0.31,-0.43,-0.11,-0.34,-0.70,
3.324,-0.07,0.33,-0.55,-0.11,-0.34,-0.70,
3.324,-0.07,0.33,-0.55,-0.12,-0.33,-0.71,
3.326,-0.07,0.33,-0.55,-0.13,-0.33,-0.71,
3.329,-0.07,0.33,-0.55,-0.14,-0.32,-0.72,
3.33,-0.07,0.33,-0.55,-0.15,-0.32,-0.72,
3.331,-0.07,0.33,-0.55,-0.15,-0.32,-0.72,
3.333,-0.13,0.25,-0.58,-0.15,-0.32,-0.72,
3.333,-0.13,0.25,-0.58,-0.16,-0.31,-0.73,
3.335,-0.13,0.25,-0.58,-0.17,-0.31,-0.73,
3.338,-0.13,0.25,-0.58,-0.18,-0.30,-0.73,
3.339,-0.13,0.25,-0.58,-0.18,-0.30,-0.73,
3.341,-0.13,0.25,-0.58,-0.18,-0.30,-0.73,
3.344,-0.31,0.20,-0.53,-0.18,-0.30,-0.73,
3.345,-0.31,0.20,-0.53,-0.19,-0.30,-0.73,
3.346,-0.31,0.20,-0.53,-0.19,-0.30,-0.73,
3.348,-0.31,0.20,-0.53,-0.20,-0.29,-0.73,
3.349,-0.31,0.20,-0.53,-0.20,-0.29,-0.72,
3.351,-0.31,0.20,-0.53,-0.20,-0.29,-0.72,
3.353,-0.44,0.16,-0.37,-0.20,-0.29,-0.72,
3.353,-0.44,0.16,-0.37,-0.20,-0.29,-0.72,
3.355,-0.44,0.16,-0.37,-0.21,-0.29,-0.72,
3.358,-0.44,0.16,-0.37,-0.21,-0.29,-0.71,
3.359,-0.44,0.16,-0.37,-0.21,-0.29,-0.71,
3.362,-0.44,0.16,-0.37,-0.21,-0.29,-0.71,
3.363,-0.46,0.09,-0.22,-0.21,-0.29,-0.71,
3.364,-0.46,0.09,-0.22,-0.21,-0.29,-0.71,
3.365,-0.46,0.09,-0.22,-0.21,-0.29,-0.70,
3.368,-0.46,0.09,-0.22,-0.20,-0.28,-0.70,
3.369,-0.46,0.09,-0.22,-0.20,-0.28,-0.70,
3.371,-0.46,0.09,-0.22,-0.20,-0.28,-0.70,
3.383,-0.40,0.07,-0.12,-0.20,-0.28,-0.70,
3.384,-0.40,0.07,-0.12,-0.20,-0.28,-0.70,
3.385,-0.40,0.07,-0.12,-0.19,-0.27,-0.70,
3.385,-0.40,0.07,-0.12,-0.19,-0.27,-0.70,
3.386,-0.40,0.07,-0.12,-0.19,-0.27,-0.70,
3.386,-0.40,0.07,-0.12,-0.18,-0.27,-0.69,
3.386,-0.40,0.09,-0.04,-0.18,-0.27,-0.69,
3.386,-0.40,0.09,-0.04,-0.18,-0.27,-0.69,
3.386,-0.40,0.09,-0.04,-0.17,-0.28,-0.69,
3.389,-0.40,0.09,-0.04,-0.17,-0.29,-0.69,
3.404,-0.40,0.09,-0.04,-0.16,-0.29,-0.69,
3.407,-0.40,0.09,-0.04,-0.16,-0.29,-0.69,
3.408,-0.39,0.10,-0.05,-0.16,-0.29,-0.69,
3.408,-0.39,0.10,-0.05,-0.16,-0.29,-0.69,
3.409,-0.39,0.10,-0.05,-0.15,-0.30,-0.69,
3.409,-0.39,0.10,-0.05,-0.15,-0.31,-0.69,
3.41,-0.39,0.10,-0.05,-0.15,-0.31,-0.68,
3.41,-0.39,0.10,-0.05,-0.14,-0.31,-0.68,
3.411,-0.45,0.08,-0.15,-0.14,-0.31,-0.68,
3.412,-0.45,0.08,-0.15,-0.14,-0.31,-0.68,
3.413,-0.45,0.08,-0.15,-0.14,-0.32,-0.68,
3.414,-0.45,0.08,-0.15,-0.14,-0.32,-0.67,
3.414,-0.45,0.08,-0.15,-0.14,-0.32,-0.67,
3.415,-0.45,0.08,-0.15,-0.14,-0.32,-0.67,
3.415,-0.42,0.10,-0.28,-0.14,-0.32,-0.67,
3.415,-0.42,0.10,-0.28,-0.14,-0.32,-0.67,
3.416,-0.42,0.10,-0.28,-0.15,-0.32,-0.67,
3.418,-0.42,0.10,-0.28,-0.15,-0.32,-0.67,
3.42,-0.42,0.10,-0.28,-0.15,-0.33,-0.67,
3.422,-0.42,0.10,-0.28,-0.15,-0.33,-0.67,
3.434,-0.41,0.12,-0.39,-0.15,-0.33,-0.67,
3.435,-0.41,0.12,-0.39,-0.16,-0.33,-0.67,
3.436,-0.41,0.12,-0.39,-0.16,-0.33,-0.67,
3.471,-0.41,0.12,-0.39,-0.16,-0.33,-0.67,
3.472,-0.41,0.12,-0.39,-0.16,-0.33,-0.67,
3.472,-0.41,0.12,-0.39,-0.17,-0.33,-0.67,
3.475,-0.37,0.16,-0.44,-0.17,-0.33,-0.67,
3.476,-0.37,0.16,-0.44,-0.17,-0.33,-0.67,
3.476,-0.37,0.16,-0.44,-0.17,-0.33,-0.67,
3.476,-0.37,0.16,-0.44,-0.17,-0.33,-0.67,
3.477,-0.37,0.16,-0.44,-0.18,-0.32,-0.67,
3.477,-0.37,0.16,-0.44,-0.18,-0.32,-0.67,
3.477,-0.39,0.16,-0.49,-0.18,-0.32,-0.67,
3.478,-0.39,0.16,-0.49,-0.18,-0.32,-0.67,
3.478,-0.39,0.16,-0.49,-0.19,-0.32,-0.67,
3.478,-0.39,0.16,-0.49,-0.19,-0.32,-0.67,
3.478,-0.39,0.16,-0.49,-0.19,-0.32,-0.67,
3.479,-0.39,0.16,-0.49,-0.20,-0.32,-0.67,
3.479,-0.39,0.16,-0.57,-0.20,-0.32,-0.67,
3.479,-0.39,0.16,-0.57,-0.20,-0.32,-0.67,
3.479,-0.39,0.16,-0.57,-0.21,-0.31,-0.67,
3.48,-0.39,0.16,-0.57,-0.22,-0.31,-0.67,
3.48,-0.39,0.16,-0.57,-0.22,-0.31,-0.67,
3.48,-0.39,0.16,-0.57,-0.22,-0.31,-0.67,
3.48,-0.40,0.17,-0.65,-0.22,-0.31,-0.67,
3.481,-0.40,0.17,-0.65,-0.23,-0.31,-0.67,
3.481,-0.40,0.17,-0.65,-0.23,-0.31,-0.68,
3.481,-0.40,0.17,-0.65,-0.24,-0.31,-0.68,
3.481,-0.40,0.17,-0.65,-0.24,-0.31,-0.68,
3.482,-0.40,0.17,-0.65,-0.25,-0.31,-0.68,
3.482,-0.40,0.14,-0.63,-0.25,-0.31,-0.68,
3.482,-0.40,0.14,-0.63,-0.25,-0.31,-0.68,
3.482,-0.40,0.14,-0.63,-0.26,-0.31,-0.68,
3.483,-0.40,0.14,-0.63,-0.26,-0.31,-0.68,
3.483,-0.40,0.14,-0.63,-0.26,-0.31,-0.68,
3.483,-0.40,0.14,-0.63,-0.27,-0.31,-0.67,
3.483,-0.51,0.07,-0.56,-0.27,-0.31,-0.67,
3.484,-0.51,0.07,-0.56,-0.27,-0.30,-0.67,
3.488,-0.51,0.07,-0.56,-0.27,-0.31,-0.67,
3.489,-0.51,0.07,-0.56,-0.27,-0.31,-0.66,
3.492,-0.51,0.07,-0.56,-0.28,-0.31,-0.66,
3.493,-0.51,0.07,-0.56,-0.27,-0.31,-0.66,
3.496,-0.61,0.03,-0.48,-0.27,-0.31,-0.66,
3.496,-0.61,0.03,-0.48,-0.28,-0.32,-0.65,
3.497,-0.61,0.03,-0.48,-0.28,-0.32,-0.65,
3.5,-0.61,0.03,-0.48,-0.28,-0.33,-0.64,
3.501,-0.61,0.03,-0.48,-0.28,-0.33,-0.64,
3.501,-0.61,0.03,-0.48,-0.28,-0.34,-0.64,
3.505,-0.63,-0.00,-0.40,-0.28,-0.34,-0.64,
3.506,-0.63,-0.00,-0.40,-0.28,-0.34,-0.64,
3.506,-0.63,-0.00,-0.40,-0.28,-0.35,-0.63,
3.51,-0.63,-0.00,-0.40,-0.28,-0.35,-0.63,
3.511,-0.63,-0.00,-0.40,-0.28,-0.35,-0.63,
3.512,-0.63,-0.00,-0.40,-0.28,-0.36,-0.63,
3.516,-0.59,-0.00,-0.34,-0.28,-0.36,-0.63,
3.516,-0.59,-0.00,-0.34,-0.28,-0.36,-0.62,
3.517,-0.59,-0.00,-0.34,-0.28,-0.37,-0.62,
3.518,-0.59,-0.00,-0.34,-0.29,-0.37,-0.62,
3.519,-0.59,-0.00,-0.34,-0.29,-0.37,-0.61,
3.521,-0.59,-0.00,-0.34,-0.28,-0.38,-0.61,
3.529,-0.54,-0.00,-0.31,-0.28,-0.38,-0.61,
3.532,-0.54,-0.00,-0.31,-0.29,-0.38,-0.61,
3.532,-0.54,-0.00,-0.31,-0.29,-0.38,-0.61,
3.532,-0.54,-0.00,-0.31,-0.29,-0.39,-0.61,
3.533,-0.54,-0.00,-0.31,-0.29,-0.39,-0.61,
3.533,-0.54,-0.00,-0.31,-0.29,-0.39,-0.61,
3.534,-0.38,-0.01,-0.23,-0.29,-0.39,-0.61,
3.534,-0.38,-0.01,-0.23,-0.29,-0.40,-0.61,
3.535,-0.38,-0.01,-0.23,-0.30,-0.40,-0.62,
3.538,-0.38,-0.01,-0.23,-0.30,-0.41,-0.62,
3.551,-0.38,-0.01,-0.23,-0.30,-0.41,-0.62,
3.554,-0.38,-0.01,-0.23,-0.30,-0.41,-0.63,
3.555,-0.21,0.04,-0.12,-0.30,-0.41,-0.63,
3.556,-0.21,0.04,-0.12,-0.30,-0.42,-0.63,
3.559,-0.21,0.04,-0.12,-0.29,-0.43,-0.64,
3.56,-0.21,0.04,-0.12,-0.29,-0.44,-0.65,
3.562,-0.21,0.04,-0.12,-0.29,-0.44,-0.65,
3.563,-0.21,0.04,-0.12,-0.29,-0.44,-0.65,
3.564,-0.15,0.04,0.04,-0.29,-0.44,-0.65,
3.564,-0.15,0.04,0.04,-0.28,-0.45,-0.66,
3.565,-0.15,0.04,0.04,-0.27,-0.46,-0.66,
3.565,-0.15,0.04,0.04,-0.27,-0.47,-0.66,
3.566,-0.15,0.04,0.04,-0.27,-0.47,-0.66,
3.566,-0.15,0.04,0.04,-0.26,-0.47,-0.67,
3.566,-0.22,0.05,0.15,-0.26,-0.47,-0.67,
3.567,-0.22,0.05,0.15,-0.25,-0.48,-0.67,
3.567,-0.22,0.05,0.15,-0.25,-0.48,-0.67,
3.57,-0.22,0.05,0.15,-0.24,-0.48,-0.67,
3.572,-0.22,0.05,0.15,-0.24,-0.48,-0.68,
3.574,-0.22,0.05,0.15,-0.23,-0.48,-0.68,
3.576,-0.20,0.05,0.16,-0.23,-0.48,-0.68,
3.577,-0.20,0.05,0.16,-0.23,-0.47,-0.68,
3.579,-0.20,0.05,0.16,-0.22,-0.47,-0.68,
3.58,-0.20,0.05,0.16,-0.22,-0.47,-0.69,
3.58,-0.20,0.05,0.16,-0.22,-0.46,-0.69,
3.586,-0.20,0.05,0.16,-0.22,-0.46,-0.69,
3.59,-0.15,0.06,0.04,-0.22,-0.46,-0.69,
3.591,-0.15,0.06,0.04,-0.22,-0.46,-0.69,
3.592,-0.15,0.06,0.04,-0.22,-0.46,-0.69,
3.594,-0.15,0.06,0.04,-0.22,-0.45,-0.70,
3.595,-0.15,0.06,0.04,-0.22,-0.45,-0.70,
3.596,-0.15,0.06,0.04,-0.23,-0.45,-0.71,
3.597,-0.11,0.07,-0.17,-0.23,-0.45,-0.71,
3.628,-0.11,0.07,-0.17,-0.23,-0.45,-0.71,
3.628,-0.11,0.07,-0.17,-0.24,-0.45,-0.71,
3.629,-0.11,0.07,-0.17,-0.26,-0.44,-0.72,
3.629,-0.11,0.07,-0.17,-0.26,-0.44,-0.72,
3.629,-0.11,0.07,-0.17,-0.27,-0.44,-0.73,
3.63,-0.09,0.08,-0.29,-0.27,-0.44,-0.73,
3.63,-0.09,0.08,-0.29,-0.27,-0.44,-0.73,
3.631,-0.09,0.08,-0.29,-0.28,-0.44,-0.74,
3.631,-0.09,0.08,-0.29,-0.30,-0.44,-0.75,
3.632,-0.09,0.08,-0.29,-0.30,-0.44,-0.75,
3.632,-0.09,0.08,-0.29,-0.31,-0.44,-0.75,
3.632,-0.06,0.01,-0.28,-0.31,-0.44,-0.75,
3.633,-0.06,0.01,-0.28,-0.31,-0.43,-0.76,
3.633,-0.06,0.01,-0.28,-0.32,-0.44,-0.77,
3.634,-0.06,0.01,-0.28,-0.33,-0.44,-0.78,
3.634,-0.06,0.01,-0.28,-0.33,-0.44,-0.78,
3.634,-0.06,0.01,-0.28,-0.33,-0.44,-0.78,
3.634,-0.09,-0.07,-0.12,-0.33,-0.44,-0.78,
3.635,-0.09,-0.07,-0.12,-0.34,-0.44,-0.79,
3.635,-0.09,-0.07,-0.12,-0.34,-0.44,-0.80,
3.635,-0.09,-0.07,-0.12,-0.34,-0.45,-0.80,
3.636,-0.09,-0.07,-0.12,-0.34,-0.45,-0.81,
3.636,-0.09,-0.07,-0.12,-0.34,-0.45,-0.81,
3.636,-0.15,-0.14,0.07,-0.34,-0.45,-0.81,
3.636,-0.15,-0.14,0.07,-0.33,-0.45,-0.82,
3.637,-0.15,-0.14,0.07,-0.33,-0.45,-0.82,
3.641,-0.15,-0.14,0.07,-0.33,-0.46,-0.82,
3.642,-0.15,-0.14,0.07,-0.32,-0.46,-0.83,
3.645,-0.15,-0.14,0.07,-0.32,-0.47,-0.83,
3.645,-0.25,-0.27,0.30,-0.32,-0.47,-0.83,
3.646,-0.25,-0.27,0.30,-0.31,-0.48,-0.83,
3.646,-0.25,-0.27,0.30,-0.30,-0.49,-0.84,
3.65,-0.25,-0.27,0.30,-0.29,-0.50,-0.84,
3.651,-0.25,-0.27,0.30,-0.29,-0.50,-0.84,
3.651,-0.25,-0.27,0.30,-0.28,-0.51,-0.85,
3.655,-0.31,-0.33,0.45,-0.28,-0.51,-0.85,
3.655,-0.31,-0.33,0.45,-0.27,-0.52,-0.85,
3.656,-0.31,-0.33,0.45,-0.26,-0.53,-0.85,
3.659,-0.31,-0.33,0.45,-0.24,-0.55,-0.86,
3.659,-0.31,-0.33,0.45,-0.23,-0.56,-0.86,
3.662,-0.31,-0.33,0.45,-0.22,-0.57,-0.86,
3.663,-0.37,-0.37,0.47,-0.22,-0.57,-0.86,
3.664,-0.37,-0.37,0.47,-0.21,-0.58,-0.86,
3.665,-0.37,-0.37,0.47,-0.20,-0.60,-0.87,
3.668,-0.37,-0.37,0.47,-0.19,-0.62,-0.87,
3.67,-0.37,-0.37,0.47,-0.18,-0.62,-0.87,
3.673,-0.37,-0.37,0.47,-0.18,-0.63,-0.88,
3.674,-0.37,-0.38,0.37,-0.18,-0.63,-0.88,
3.674,-0.37,-0.38,0.37,-0.17,-0.65,-0.88,
3.681,-0.37,-0.38,0.37,-0.16,-0.66,-0.89,
3.682,-0.37,-0.38,0.37,-0.16,-0.67,-0.89,
3.682,-0.37,-0.38,0.37,-0.15,-0.68,-0.89,
3.682,-0.37,-0.38,0.37,-0.15,-0.68,-0.89,
3.686,-0.39,-0.41,0.21,-0.15,-0.68,-0.89,
3.686,-0.39,-0.41,0.21,-0.14,-0.69,-0.89,
3.686,-0.39,-0.41,0.21,-0.14,-0.71,-0.90,
3.69,-0.39,-0.41,0.21,-0.14,-0.72,-0.90,
3.691,-0.39,-0.41,0.21,-0.14,-0.72,-0.90,
3.707,-0.39,-0.41,0.21,-0.14,-0.73,-0.90,
3.707,-0.41,-0.39,-0.00,-0.14,-0.73,-0.90,
3.708,-0.41,-0.39,-0.00,-0.14,-0.74,-0.91,
3.709,-0.41,-0.39,-0.00,-0.14,-0.74,-0.91,
3.709,-0.41,-0.39,-0.00,-0.15,-0.75,-0.92,
3.709,-0.41,-0.39,-0.00,-0.15,-0.76,-0.92,
3.709,-0.41,-0.39,-0.00,-0.15,-0.76,-0.92,
3.709,-0.44,-0.37,-0.21,-0.15,-0.76,-0.92,
3.71,-0.44,-0.37,-0.21,-0.16,-0.76,-0.92,
3.71,-0.44,-0.37,-0.21,-0.17,-0.77,-0.92,
3.71,-0.44,-0.37,-0.21,-0.18,-0.77,-0.93,
3.71,-0.44,-0.37,-0.21,-0.18,-0.77,-0.93,
3.712,-0.44,-0.37,-0.21,-0.19,-0.77,-0.93,
3.714,-0.47,-0.37,-0.38,-0.19,-0.77,-0.93,
3.715,-0.47,-0.37,-0.38,-0.20,-0.77,-0.93,
3.716,-0.47,-0.37,-0.38,-0.20,-0.77,-0.93,
3.719,-0.47,-0.37,-0.38,-0.22,-0.78,-0.93,
3.72,-0.47,-0.37,-0.38,-0.22,-0.78,-0.94,
3.725,-0.47,-0.37,-0.38,-0.23,-0.78,-0.94,
3.726,-0.47,-0.37,-0.38,-0.23,-0.78,-0.94,
3.726,-0.47,-0.37,-0.38,-0.23,-0.78,-0.94,
3.727,-0.47,-0.37,-0.38,-0.24,-0.78,-0.94,
3.728,-0.47,-0.37,-0.38,-0.25,-0.78,-0.95,
3.729,-0.47,-0.37,-0.38,-0.25,-0.79,-0.95,
3.732,-0.47,-0.37,-0.38,-0.25,-0.79,-0.95,
3.733,-0.55,-0.39,-0.25,-0.25,-0.79,-0.95,
3.734,-0.55,-0.39,-0.25,-0.25,-0.79,-0.95,
3.736,-0.55,-0.39,-0.25,-0.25,-0.79,-0.95,
3.744,-0.55,-0.39,-0.25,-0.25,-0.80,-0.95,
3.746,-0.55,-0.39,-0.25,-0.25,-0.80,-0.94,
3.747,-0.55,-0.39,-0.25,-0.25,-0.80,-0.94,
3.747,-0.69,-0.46,-0.15,-0.25,-0.80,-0.94,
3.747,-0.69,-0.46,-0.15,-0.24,-0.81,-0.94,
3.748,-0.69,-0.46,-0.15,-0.24,-0.81,-0.94,
3.75,-0.69,-0.46,-0.15,-0.24,-0.82,-0.94,
3.751,-0.69,-0.46,-0.15,-0.24,-0.83,-0.94,
3.752,-0.69,-0.46,-0.15,-0.24,-0.84,-0.94,
3.754,-0.73,-0.49,-0.15,-0.24,-0.84,-0.94,
3.755,-0.73,-0.49,-0.15,-0.23,-0.85,-0.94,
3.756,-0.73,-0.49,-0.15,-0.23,-0.86,-0.94,
3.76,-0.73,-0.49,-0.15,-0.23,-0.88,-0.94,
3.761,-0.73,-0.49,-0.15,-0.23,-0.89,-0.94,
3.793,-0.73,-0.49,-0.15,-0.23,-0.91,-0.94,
3.793,-0.73,-0.50,-0.14,-0.23,-0.91,-0.94,
3.794,-0.73,-0.50,-0.14,-0.22,-0.92,-0.94,
3.794,-0.73,-0.50,-0.14,-0.22,-0.94,-0.94,
3.795,-0.73,-0.50,-0.14,-0.21,-0.96,-0.94,
3.795,-0.73,-0.50,-0.14,-0.21,-0.97,-0.94,
3.795,-0.73,-0.50,-0.14,-0.20,-0.99,-0.94,
3.796,-0.76,-0.49,-0.06,-0.20,-0.99,-0.94,
3.796,-0.76,-0.49,-0.06,-0.20,-1.01,-0.94,
3.797,-0.76,-0.49,-0.06,-0.19,-1.03,-0.94,
3.797,-0.76,-0.49,-0.06,-0.18,-1.05,-0.94,
3.797,-0.76,-0.49,-0.06,-0.18,-1.06,-0.94,
3.798,-0.76,-0.49,-0.06,-0.17,-1.08,-0.94,
3.798,-0.87,-0.52,0.01,-0.17,-1.08,-0.94,
3.799,-0.87,-0.52,0.01,-0.16,-1.09,-0.94,
3.799,-0.87,-0.52,0.01,-0.15,-1.11,-0.94,
3.799,-0.87,-0.52,0.01,-0.14,-1.14,-0.94,
3.8,-0.87,-0.52,0.01,-0.14,-1.15,-0.94,
3.8,-0.87,-0.52,0.01,-0.13,-1.16,-0.94,
3.801,-0.89,-0.45,-0.03,-0.13,-1.16,-0.94,
3.801,-0.89,-0.45,-0.03,-0.12,-1.18,-0.93,
3.802,-0.89,-0.45,-0.03,-0.12,-1.19,-0.93,
3.802,-0.89,-0.45,-0.03,-0.11,-1.22,-0.93,
3.802,-0.89,-0.45,-0.03,-0.11,-1.22,-0.93,
3.803,-0.89,-0.45,-0.03,-0.10,-1.24,-0.93,
3.803,-0.94,-0.39,-0.20,-0.10,-1.24,-0.93,
3.804,-0.94,-0.39,-0.20,-0.10,-1.25,-0.93,
3.808,-0.94,-0.39,-0.20,-0.10,-1.26,-0.94,
3.809,-0.94,-0.39,-0.20,-0.10,-1.27,-0.94,
3.81,-0.94,-0.39,-0.20,-0.10,-1.28,-0.94,
3.813,-0.94,-0.39,-0.20,-0.10,-1.29,-0.94,
3.814,-0.83,-0.25,-0.44,-0.10,-1.29,-0.94,
3.814,-0.83,-0.25,-0.44,-0.11,-1.29,-0.94,
3.818,-0.83,-0.25,-0.44,-0.11,-1.30,-0.95,
3.819,-0.83,-0.25,-0.44,-0.11,-1.32,-0.95,
3.819,-0.83,-0.25,-0.44,-0.12,-1.32,-0.95,
3.822,-0.83,-0.25,-0.44,-0.12,-1.33,-0.96,
3.832,-0.82,-0.13,-0.61,-0.12,-1.33,-0.96,
3.833,-0.82,-0.13,-0.61,-0.13,-1.34,-0.96,
3.834,-0.82,-0.13,-0.61,-0.16,-1.37,-0.98,
3.834,-0.82,-0.13,-0.61,-0.16,-1.37,-0.98,
3.834,-0.82,-0.13,-0.61,-0.16,-1.37,-0.98,
3.834,-0.82,-0.13,-0.61,-0.17,-1.37,-0.99,
3.835,-0.75,0.00,-0.79,-0.17,-1.37,-0.99,
3.835,-0.75,0.00,-0.79,-0.18,-1.38,-1.00,
3.835,-0.75,0.00,-0.79,-0.19,-1.39,-1.00,
3.839,-0.75,0.00,-0.79,-0.21,-1.41,-1.01,
3.84,-0.75,0.00,-0.79,-0.22,-1.42,-1.02,
3.863,-0.75,0.00,-0.79,-0.23,-1.43,-1.02,
3.863,-0.76,0.06,-0.81,-0.23,-1.43,-1.02,
3.864,-0.76,0.06,-0.81,-0.24,-1.45,-1.03,
3.864,-0.76,0.06,-0.81,-0.25,-1.46,-1.04,
3.864,-0.76,0.06,-0.81,-0.27,-1.48,-1.05,
3.864,-0.76,0.06,-0.81,-0.27,-1.49,-1.06,
3.864,-0.76,0.06,-0.81,-0.28,-1.51,-1.07,
3.865,-0.87,0.04,-0.64,-0.28,-1.51,-1.07,
3.865,-0.87,0.04,-0.64,-0.29,-1.52,-1.07,
3.865,-0.87,0.04,-0.64,-0.29,-1.54,-1.08,
3.865,-0.87,0.04,-0.64,-0.29,-1.57,-1.08,
3.866,-0.87,0.04,-0.64,-0.30,-1.58,-1.08,
3.866,-0.87,0.04,-0.64,-0.30,-1.59,-1.09,
3.866,-1.09,-0.03,-0.25,-0.30,-1.59,-1.09,
3.866,-1.09,-0.03,-0.25,-0.29,-1.61,-1.09,
3.866,-1.09,-0.03,-0.25,-0.29,-1.63,-1.09,
3.868,-1.09,-0.03,-0.25,-0.28,-1.65,-1.09,
3.869,-1.09,-0.03,-0.25,-0.28,-1.66,-1.09,
3.875,-1.09,-0.03,-0.25,-0.27,-1.68,-1.09,
3.876,-1.28,-0.15,0.10,-0.27,-1.68,-1.09,
3.876,-1.28,-0.15,0.10,-0.26,-1.69,-1.09,
3.876,-1.28,-0.15,0.10,-0.25,-1.70,-1.08,
3.878,-1.28,-0.15,0.10,-0.24,-1.72,-1.08,
3.88,-1.28,-0.15,0.10,-0.23,-1.73,-1.08,
3.881,-1.28,-0.15,0.10,-0.22,-1.74,-1.08,
3.883,-1.51,-0.20,0.38,-0.22,-1.74,-1.08,
3.884,-1.51,-0.20,0.38,-0.21,-1.75,-1.07,
3.886,-1.51,-0.20,0.38,-0.20,-1.76,-1.07,
3.89,-1.51,-0.20,0.38,-0.18,-1.77,-1.06,
3.893,-1.51,-0.20,0.38,-0.18,-1.78,-1.06,
3.895,-1.51,-0.20,0.38,-0.17,-1.79,-1.05,
3.896,-1.68,-0.22,0.48,-0.17,-1.79,-1.05,
3.896,-1.68,-0.22,0.48,-0.16,-1.79,-1.05,
3.897,-1.68,-0.22,0.48,-0.14,-1.80,-1.04,
3.898,-1.68,-0.22,0.48,-0.13,-1.81,-1.03,
3.9,-1.68,-0.22,0.48,-0.12,-1.82,-1.03,
3.902,-1.68,-0.22,0.48,-0.11,-1.83,-1.02,
3.903,-2.03,-0.26,0.47,-0.11,-1.83,-1.02,
3.904,-2.03,-0.26,0.47,-0.10,-1.84,-1.01,
3.908,-2.03,-0.26,0.47,-0.09,-1.85,-1.00,
3.911,-2.03,-0.26,0.47,-0.08,-1.87,-0.99,
3.912,-2.03,-0.26,0.47,-0.07,-1.88,-0.98,
3.913,-2.03,-0.26,0.47,-0.06,-1.89,-0.97,
3.915,-2.32,-0.14,0.41,-0.06,-1.89,-0.97,
3.916,-2.32,-0.14,0.41,-0.05,-1.90,-0.95,
3.916,-2.32,-0.14,0.41,-0.05,-1.91,-0.94,
3.919,-2.32,-0.14,0.41,-0.03,-1.92,-0.92,
3.92,-2.32,-0.14,0.41,-0.03,-1.93,-0.92,
3.936,-2.32,-0.14,0.41,-0.02,-1.93,-0.90,
3.94,-2.64,-0.01,0.27,-0.02,-1.93,-0.90,
3.94,-2.64,-0.01,0.27,-0.02,-1.94,-0.89,
3.94,-2.64,-0.01,0.27,-0.01,-1.95,-0.87,
3.964,-2.64,-0.01,0.27,-0.00,-1.95,-0.85,
3.964,-2.64,-0.01,0.27,-0.00,-1.95,-0.84,
3.965,-2.64,-0.01,0.27,0.00,-1.96,-0.83,
3.965,-2.72,0.06,0.03,0.00,-1.96,-0.83,
3.965,-2.72,0.06,0.03,0.00,-1.96,-0.82,
3.965,-2.72,0.06,0.03,0.00,-1.97,-0.80,
3.966,-2.72,0.06,0.03,-0.00,-1.98,-0.78,
3.966,-2.72,0.06,0.03,-0.00,-1.99,-0.78,
3.966,-2.72,0.06,0.03,-0.00,-2.00,-0.76,
3.966,-2.75,0.14,-0.08,-0.00,-2.00,-0.76,
3.966,-2.75,0.14,-0.08,-0.01,-2.01,-0.75,
3.967,-2.75,0.14,-0.08,-0.01,-2.02,-0.74,
3.967,-2.75,0.14,-0.08,-0.01,-2.04,-0.72,
3.967,-2.75,0.14,-0.08,-0.01,-2.04,-0.72,
3.967,-2.75,0.14,-0.08,-0.01,-2.05,-0.71,
3.967,-2.55,0.26,-0.03,-0.01,-2.05,-0.71,
3.968,-2.55,0.26,-0.03,-0.01,-2.06,-0.70,
3.968,-2.55,0.26,-0.03,-0.01,-2.06,-0.70,
3.968,-2.55,0.26,-0.03,0.00,-2.07,-0.69,
3.968,-2.55,0.26,-0.03,0.00,-2.07,-0.68,
3.968,-2.55,0.26,-0.03,0.01,-2.07,-0.68,
3.969,-2.35,0.39,0.11,0.01,-2.07,-0.68,
3.969,-2.35,0.39,0.11,0.01,-2.07,-0.67,
3.969,-2.35,0.39,0.11,0.02,-2.06,-0.67,
3.969,-2.35,0.39,0.11,0.03,-2.06,-0.67,
3.97,-2.35,0.39,0.11,0.03,-2.05,-0.67,
3.974,-2.35,0.39,0.11,0.04,-2.05,-0.67,
3.975,-2.10,0.54,0.18,0.04,-2.05,-0.67,
3.975,-2.10,0.54,0.18,0.04,-2.05,-0.67,
3.979,-2.10,0.54,0.18,0.05,-2.04,-0.66,
3.979,-2.10,0.54,0.18,0.06,-2.04,-0.66,
3.979,-2.10,0.54,0.18,0.07,-2.04,-0.66,
3.984,-2.10,0.54,0.18,0.08,-2.04,-0.66,
3.984,-2.01,0.64,0.20,0.08,-2.04,-0.66,
3.984,-2.01,0.64,0.20,0.09,-2.04,-0.66,
3.987,-2.01,0.64,0.20,0.09,-2.04,-0.66,
3.992,-2.01,0.64,0.20,0.11,-2.05,-0.66,
3.993,-2.01,0.64,0.20,0.12,-2.05,-0.66,
3.993,-2.01,0.64,0.20,0.13,-2.05,-0.66,
3.995,-1.98,0.70,0.30,0.13,-2.05,-0.66,
3.996,-1.98,0.70,0.30,0.14,-2.06,-0.66,
3.996,-1.98,0.70,0.30,0.16,-2.07,-0.66,
4.0,-1.98,0.70,0.30,0.19,-2.08,-0.66,
4.001,-1.98,0.70,0.30,0.20,-2.08,-0.66,
4.001,-1.98,0.70,0.30,0.22,-2.08,-0.66,
4.005,-2.12,0.69,0.41,0.22,-2.08,-0.66,
4.005,-2.12,0.69,0.41,0.24,-2.06,-0.67,
4.006,-2.12,0.69,0.41,0.27,-2.02,-0.67,
4.01,-2.12,0.69,0.41,0.30,-1.99,-0.68,
4.011,-2.12,0.69,0.41,0.31,-1.98,-0.68,
4.011,-2.12,0.69,0.41,0.33,-1.98,-0.68,
4.015,-2.29,0.47,0.07,0.33,-1.98,-0.68,
4.019,-2.29,0.47,0.07,0.35,-1.98,-0.67,
4.02,-2.29,0.47,0.07,0.36,-1.99,-0.65,
4.02,-2.29,0.47,0.07,0.38,-2.02,-0.63,
4.02,-2.29,0.47,0.07,0.39,-2.03,-0.62,
4.026,-2.29,0.47,0.07,0.39,-2.06,-0.61,
4.027,-3.09,0.65,-0.12,0.39,-2.06,-0.61,
4.027,-3.09,0.65,-0.12,0.40,-2.09,-0.58,
4.028,-3.09,0.65,-0.12,0.41,-2.13,-0.56,
4.031,-3.09,0.65,-0.12,0.42,-2.21,-0.53,
4.031,-3.09,0.65,-0.12,0.42,-2.24,-0.52,
4.032,-3.09,0.65,-0.12,0.42,-2.29,-0.49,
4.035,-3.50,0.81,-0.30,0.42,-2.29,-0.49,
4.036,-3.50,0.81,-0.30,0.43,-2.35,-0.47,
4.036,-3.50,0.81,-0.30,0.43,-2.41,-0.45,
4.04,-3.50,0.81,-0.30,0.44,-2.50,-0.42,
4.04,-3.50,0.81,-0.30,0.45,-2.52,-0.41,
4.043,-3.50,0.81,-0.30,0.46,-2.58,-0.39,
4.044,-3.62,0.90,-0.49,0.46,-2.58,-0.39,
4.044,-3.62,0.90,-0.49,0.46,-2.63,-0.37,
4.045,-3.62,0.90,-0.49,0.47,-2.67,-0.35,
4.05,-3.62,0.90,-0.49,0.48,-2.74,-0.32,
4.051,-3.62,0.90,-0.49,0.49,-2.77,-0.32,
4.051,-3.62,0.90,-0.49,0.50,-2.81,-0.30,
4.055,-3.35,0.78,-0.72,0.50,-2.81,-0.30,
4.055,-3.35,0.78,-0.72,0.50,-2.85,-0.29,
4.055,-3.35,0.78,-0.72,0.51,-2.89,-0.27,
4.059,-3.35,0.78,-0.72,0.52,-2.96,-0.25,
4.061,-3.35,0.78,-0.72,0.52,-2.98,-0.25,
4.061,-3.35,0.78,-0.72,0.52,-3.02,-0.24,
4.066,-3.23,0.74,-0.82,0.52,-3.02,-0.24,
4.066,-3.23,0.74,-0.82,0.53,-3.05,-0.22,
4.067,-3.23,0.74,-0.82,0.53,-3.08,-0.21,
4.07,-3.23,0.74,-0.82,0.54,-3.12,-0.20,
4.071,-3.23,0.74,-0.82,0.54,-3.14,-0.20,
4.071,-3.23,0.74,-0.82,0.55,-3.16,-0.18,
4.078,-2.98,0.66,-0.83,0.55,-3.16,-0.18,
4.08,-2.98,0.66,-0.83,0.56,-3.18,-0.18,
4.081,-2.98,0.66,-0.83,0.57,-3.20,-0.17,
4.081,-2.98,0.66,-0.83,0.58,-3.22,-0.16,
4.082,-2.98,0.66,-0.83,0.58,-3.23,-0.15,
4.082,-2.98,0.66,-0.83,0.59,-3.25,-0.14,
4.086,-2.79,0.56,-0.71,0.59,-3.25,-0.14,
4.086,-2.79,0.56,-0.71,0.59,-3.25,-0.14,
4.104,-2.79,0.56,-0.71,0.60,-3.26,-0.13,
4.105,-2.79,0.56,-0.71,0.62,-3.26,-0.13,
4.105,-2.79,0.56,-0.71,0.62,-3.26,-0.13,
4.106,-2.79,0.56,-0.71,0.63,-3.25,-0.13,
4.106,-2.48,0.41,-0.44,0.63,-3.25,-0.13,
4.138,-2.48,0.41,-0.44,0.64,-3.24,-0.13,
4.138,-2.48,0.41,-0.44,0.65,-3.23,-0.13,
4.139,-2.48,0.41,-0.44,0.68,-3.21,-0.13,
4.139,-2.48,0.41,-0.44,0.68,-3.20,-0.14,
4.14,-2.48,0.41,-0.44,0.70,-3.19,-0.14,
4.14,-2.34,0.22,-0.06,0.70,-3.19,-0.14,
4.141,-2.34,0.22,-0.06,0.72,-3.16,-0.15,
4.141,-2.34,0.22,-0.06,0.74,-3.14,-0.15,
4.141,-2.34,0.22,-0.06,0.77,-3.10,-0.16,
4.142,-2.34,0.22,-0.06,0.78,-3.09,-0.17,
4.142,-2.34,0.22,-0.06,0.80,-3.06,-0.18,
4.143,-2.32,-0.06,0.15,0.80,-3.06,-0.18,
4.143,-2.32,-0.06,0.15,0.82,-3.03,-0.18,
4.143,-2.32,-0.06,0.15,0.84,-3.00,-0.19,
4.144,-2.32,-0.06,0.15,0.88,-2.96,-0.21,
4.144,-2.32,-0.06,0.15,0.89,-2.95,-0.21,
4.145,-2.32,-0.06,0.15,0.92,-2.92,-0.22,
4.145,-2.57,-0.26,0.37,0.92,-2.92,-0.22,
4.146,-2.57,-0.26,0.37,0.95,-2.90,-0.23,
4.146,-2.57,-0.26,0.37,0.98,-2.88,-0.24,
4.146,-2.57,-0.26,0.37,1.02,-2.85,-0.25,
4.147,-2.57,-0.26,0.37,1.03,-2.84,-0.25,
4.147,-2.57,-0.26,0.37,1.06,-2.82,-0.25,
4.148,-2.98,-0.45,0.36,1.06,-2.82,-0.25,
4.148,-2.98,-0.45,0.36,1.08,-2.81,-0.26,
4.148,-2.98,-0.45,0.36,1.11,-2.80,-0.26,
4.149,-2.98,-0.45,0.36,1.14,-2.77,-0.25,
4.149,-2.98,-0.45,0.36,1.14,-2.77,-0.25,
4.15,-2.98,-0.45,0.36,1.16,-2.75,-0.25,
4.15,-3.62,-0.61,0.10,1.16,-2.75,-0.25,
4.151,-3.62,-0.61,0.10,1.17,-2.74,-0.24,
4.151,-3.62,-0.61,0.10,1.18,-2.73,-0.23,
4.151,-3.62,-0.61,0.10,1.19,-2.70,-0.22,
4.152,-3.62,-0.61,0.10,1.19,-2.70,-0.21,
4.152,-3.62,-0.61,0.10,1.19,-2.69,-0.20,
4.157,-4.21,-0.79,-0.38,1.19,-2.69,-0.20,
4.158,-4.21,-0.79,-0.38,1.19,-2.68,-0.18,
4.158,-4.21,-0.79,-0.38,1.19,-2.67,-0.17,
4.158,-4.21,-0.79,-0.38,1.18,-2.67,-0.15,
4.164,-4.21,-0.79,-0.38,1.18,-2.66,-0.14,
4.164,-4.21,-0.79,-0.38,1.17,-2.66,-0.13,
4.165,-4.77,-0.78,-0.71,1.17,-2.66,-0.13,
4.165,-4.77,-0.78,-0.71,1.16,-2.66,-0.11,
4.168,-4.77,-0.78,-0.71,1.15,-2.65,-0.10,
4.168,-4.77,-0.78,-0.71,1.14,-2.64,-0.08,
4.171,-4.77,-0.78,-0.71,1.13,-2.64,-0.07,
4.171,-4.77,-0.78,-0.71,1.12,-2.63,-0.06,
4.174,-4.90,-0.67,-1.07,1.12,-2.63,-0.06,
4.174,-4.90,-0.67,-1.07,1.11,-2.62,-0.05,
4.175,-4.90,-0.67,-1.07,1.10,-2.60,-0.04,
4.178,-4.90,-0.67,-1.07,1.09,-2.57,-0.02,
4.179,-4.90,-0.67,-1.07,1.08,-2.56,-0.02,
4.181,-4.90,-0.67,-1.07,1.07,-2.53,-0.00,
4.183,-5.06,-0.52,-1.33,1.07,-2.53,-0.00,
4.184,-5.06,-0.52,-1.33,1.05,-2.51,0.00,
4.186,-5.06,-0.52,-1.33,1.04,-2.48,0.01,
4.189,-5.06,-0.52,-1.33,1.02,-2.44,0.03,
4.189,-5.06,-0.52,-1.33,1.01,-2.43,0.03,
4.192,-5.06,-0.52,-1.33,1.00,-2.41,0.04,
4.193,-4.99,-0.54,-1.59,1.00,-2.41,0.04,
4.193,-4.99,-0.54,-1.59,0.99,-2.38,0.04,
4.196,-4.99,-0.54,-1.59,0.97,-2.36,0.05,
4.198,-4.99,-0.54,-1.59,0.94,-2.33,0.05,
4.199,-4.99,-0.54,-1.59,0.94,-2.32,0.05,
4.201,-4.99,-0.54,-1.59,0.92,-2.30,0.05,
4.222,-4.86,-0.49,-1.65,0.92,-2.30,0.05,
4.225,-4.86,-0.49,-1.65,0.90,-2.28,0.05,
4.225,-4.86,-0.49,-1.65,0.89,-2.27,0.05,
4.226,-4.86,-0.49,-1.65,0.87,-2.24,0.04,
4.227,-4.86,-0.49,-1.65,0.85,-2.23,0.02,
4.228,-4.86,-0.49,-1.65,0.84,-2.22,0.02,
4.228,-4.48,-0.63,-1.57,0.84,-2.22,0.02,
4.231,-4.48,-0.63,-1.57,0.83,-2.21,0.01,
4.232,-4.48,-0.63,-1.57,0.81,-2.20,-0.01,
4.232,-4.48,-0.63,-1.57,0.80,-2.20,-0.03,
4.233,-4.48,-0.63,-1.57,0.79,-2.20,-0.05,
4.233,-4.48,-0.63,-1.57,0.79,-2.20,-0.05,
4.233,-4.24,-0.70,-1.02,0.79,-2.20,-0.05,
4.234,-4.24,-0.70,-1.02,0.79,-2.19,-0.07,
4.234,-4.24,-0.70,-1.02,0.78,-2.19,-0.09,
4.234,-4.24,-0.70,-1.02,0.79,-2.19,-0.12,
4.234,-4.24,-0.70,-1.02,0.79,-2.18,-0.13,
4.235,-4.24,-0.70,-1.02,0.80,-2.18,-0.14,
4.235,-4.24,-0.87,-0.21,0.80,-2.18,-0.14,
4.235,-4.24,-0.87,-0.21,0.81,-2.18,-0.16,
4.245,-4.24,-0.87,-0.21,0.83,-2.17,-0.18,
4.247,-4.24,-0.87,-0.21,0.87,-2.16,-0.20,
4.248,-4.24,-0.87,-0.21,0.88,-2.16,-0.20,
4.248,-4.24,-0.87,-0.21,0.90,-2.15,-0.21,
4.248,-4.64,-1.15,0.72,0.90,-2.15,-0.21,
4.249,-4.64,-1.15,0.72,0.94,-2.15,-0.22,
4.249,-4.64,-1.15,0.72,0.97,-2.14,-0.24,
4.25,-4.64,-1.15,0.72,1.02,-2.15,-0.25,
4.251,-4.64,-1.15,0.72,1.04,-2.15,-0.26,
4.262,-4.64,-1.15,0.72,1.08,-2.16,-0.28,
4.264,-4.93,-1.38,1.30,1.08,-2.16,-0.28,
4.264,-4.93,-1.38,1.30,1.12,-2.17,-0.29,
4.265,-4.93,-1.38,1.30,1.16,-2.19,-0.30,
4.266,-4.93,-1.38,1.30,1.23,-2.22,-0.32,
4.266,-4.93,-1.38,1.30,1.29,-2.25,-0.32,
4.301,-4.93,-1.38,1.30,1.31,-2.26,-0.33,
4.302,-5.48,-1.59,1.89,1.31,-2.26,-0.33,
4.302,-5.48,-1.59,1.89,1.37,-2.29,-0.33,
4.303,-5.48,-1.59,1.89,1.43,-2.32,-0.34,
4.303,-5.48,-1.59,1.89,1.51,-2.37,-0.33,
4.304,-5.48,-1.59,1.89,1.55,-2.39,-0.33,
4.304,-5.48,-1.59,1.89,1.61,-2.43,-0.32,
4.304,-5.78,-1.82,1.87,1.61,-2.43,-0.32,
4.305,-5.78,-1.82,1.87,1.67,-2.47,-0.31,
4.305,-5.78,-1.82,1.87,1.74,-2.51,-0.31,
4.306,-5.78,-1.82,1.87,1.83,-2.56,-0.30,
4.306,-5.78,-1.82,1.87,1.87,-2.57,-0.30,
4.307,-5.78,-1.82,1.87,1.93,-2.60,-0.29,
4.307,-6.16,-2.02,1.49,1.93,-2.60,-0.29,
4.307,-6.16,-2.02,1.49,1.99,-2.62,-0.28,
4.308,-6.16,-2.02,1.49,2.05,-2.64,-0.27,
4.308,-6.16,-2.02,1.49,2.12,-2.69,-0.24,
4.309,-6.16,-2.02,1.49,2.14,-2.71,-0.23,
4.309,-6.16,-2.02,1.49,2.18,-2.77,-0.22,
4.309,-6.25,-2.08,0.40,2.18,-2.77,-0.22,
4.31,-6.25,-2.08,0.40,2.21,-2.83,-0.21,
4.31,-6.25,-2.08,0.40,2.23,-2.90,-0.20,
4.311,-6.25,-2.08,0.40,2.24,-3.03,-0.20,
4.311,-6.25,-2.08,0.40,2.25,-3.12,-0.21,
4.312,-6.25,-2.08,0.40,2.25,-3.17,-0.21,
4.312,-5.77,-1.91,0.19,2.25,-3.17,-0.21,
4.312,-5.77,-1.91,0.19,2.26,-3.26,-0.22,
4.313,-5.77,-1.91,0.19,2.26,-3.36,-0.24,
4.313,-5.77,-1.91,0.19,2.27,-3.49,-0.27,
4.314,-5.77,-1.91,0.19,2.28,-3.53,-0.28,
4.314,-5.77,-1.91,0.19,2.29,-3.61,-0.30,
4.315,-5.28,-1.97,0.44,2.29,-3.61,-0.30,
4.315,-5.28,-1.97,0.44,2.31,-3.68,-0.33,
4.316,-5.28,-1.97,0.44,2.33,-3.74,-0.36,
4.319,-5.28,-1.97,0.44,2.38,-3.81,-0.41,
4.324,-5.28,-1.97,0.44,2.41,-3.84,-0.45,
4.324,-5.28,-1.97,0.44,2.43,-3.86,-0.46,
4.324,-5.01,-2.44,1.15,2.43,-3.86,-0.46,
4.325,-5.01,-2.44,1.15,2.48,-3.88,-0.50,
4.327,-5.01,-2.44,1.15,2.53,-3.90,-0.54,
4.328,-5.01,-2.44,1.15,2.61,-3.92,-0.60,
4.329,-5.01,-2.44,1.15,2.67,-3.94,-0.64,
4.331,-5.01,-2.44,1.15,2.70,-3.95,-0.66,
4.334,-4.88,-2.92,1.83,2.70,-3.95,-0.66,
4.335,-4.88,-2.92,1.83,2.76,-3.96,-0.69,
4.336,-4.88,-2.92,1.83,2.83,-3.98,-0.73,
4.342,-4.88,-2.92,1.83,2.93,-4.01,-0.78,
4.343,-4.88,-2.92,1.83,2.97,-4.03,-0.80,
4.344,-4.88,-2.92,1.83,3.03,-4.05,-0.83,
4.344,-5.18,-3.35,2.32,3.03,-4.05,-0.83,
4.344,-5.18,-3.35,2.32,3.09,-4.08,-0.86,
4.346,-5.18,-3.35,2.32,3.16,-4.10,-0.89,
4.349,-5.18,-3.35,2.32,3.24,-4.13,-0.94,
4.35,-5.18,-3.35,2.32,3.27,-4.13,-0.95,
4.362,-5.18,-3.35,2.32,3.31,-4.14,-0.98,
4.364,-5.56,-3.87,1.74,3.31,-4.14,-0.98,
4.365,-5.56,-3.87,1.74,3.35,-4.14,-1.00,
4.365,-5.56,-3.87,1.74,3.39,-4.14,-1.03,
4.366,-5.56,-3.87,1.74,3.43,-4.12,-1.07,
4.366,-5.56,-3.87,1.74,3.44,-4.11,-1.09,
4.367,-5.56,-3.87,1.74,3.45,-4.10,-1.10,
4.367,-5.82,-4.48,0.92,3.45,-4.10,-1.10,
4.367,-5.82,-4.48,0.92,3.45,-4.08,-1.12,
4.368,-5.82,-4.48,0.92,3.45,-4.07,-1.15,
4.388,-5.82,-4.48,0.92,3.42,-4.03,-1.18,
4.391,-5.82,-4.48,0.92,3.39,-4.01,-1.19,
4.392,-5.82,-4.48,0.92,3.38,-3.99,-1.20,
4.392,-6.01,-4.92,-0.30,3.38,-3.99,-1.20,
4.392,-6.01,-4.92,-0.30,3.34,-3.97,-1.22,
4.393,-6.01,-4.92,-0.30,3.29,-3.94,-1.25,
4.393,-6.01,-4.92,-0.30,3.20,-3.89,-1.28,
4.394,-6.01,-4.92,-0.30,3.17,-3.88,-1.29,
4.395,-6.01,-4.92,-0.30,3.10,-3.84,-1.32,
4.395,-5.86,-5.58,-0.65,3.10,-3.84,-1.32,
4.395,-5.86,-5.58,-0.65,3.04,-3.79,-1.36,
4.396,-5.86,-5.58,-0.65,2.97,-3.74,-1.39,
4.396,-5.86,-5.58,-0.65,2.88,-3.62,-1.44,
4.397,-5.86,-5.58,-0.65,2.82,-3.53,-1.47,
4.397,-5.86,-5.58,-0.65,2.80,-3.48,-1.48,
4.398,-5.94,-6.38,0.10,2.80,-3.48,-1.48,
4.398,-5.94,-6.38,0.10,2.75,-3.38,-1.51,
4.399,-5.94,-6.38,0.10,2.71,-3.27,-1.53,
4.399,-5.94,-6.38,0.10,2.65,-3.11,-1.55,
4.4,-5.94,-6.38,0.10,2.64,-3.05,-1.55,
4.402,-5.94,-6.38,0.10,2.61,-2.95,-1.56,
4.407,-7.10,-6.72,1.48,2.61,-2.95,-1.56,
4.409,-7.10,-6.72,1.48,2.59,-2.85,-1.57,
4.41,-7.10,-6.72,1.48,2.58,-2.75,-1.57,
4.411,-7.10,-6.72,1.48,2.57,-2.62,-1.58,
4.413,-7.10,-6.72,1.48,2.56,-2.59,-1.58,
4.414,-7.10,-6.72,1.48,2.56,-2.51,-1.58,
4.415,-8.53,-6.57,2.30,2.56,-2.51,-1.58,
4.415,-8.53,-6.57,2.30,2.56,-2.45,-1.57,
4.416,-8.53,-6.57,2.30,2.55,-2.39,-1.57,
4.423,-8.53,-6.57,2.30,2.54,-2.32,-1.56,
4.425,-8.53,-6.57,2.30,2.53,-2.29,-1.55,
4.426,-8.53,-6.57,2.30,2.52,-2.29,-1.54,
4.426,-9.22,-5.95,2.10,2.52,-2.29,-1.54,
4.427,-9.22,-5.95,2.10,2.50,-2.30,-1.54,
4.427,-9.22,-5.95,2.10,2.48,-2.34,-1.54,
4.458,-9.22,-5.95,2.10,2.44,-2.45,-1.55,
4.458,-9.22,-5.95,2.10,2.42,-2.57,-1.57,
4.459,-9.22,-5.95,2.10,2.40,-2.64,-1.58,
4.459,-8.09,-4.80,1.19,2.40,-2.64,-1.58,
4.459,-8.09,-4.80,1.19,2.38,-2.79,-1.61,
4.46,-8.09,-4.80,1.19,2.37,-2.96,-1.65,
4.46,-8.09,-4.80,1.19,2.35,-3.25,-1.74,
4.461,-8.09,-4.80,1.19,2.34,-3.46,-1.81,
4.461,-8.09,-4.80,1.19,2.34,-3.58,-1.85,
4.462,-5.99,-2.64,0.83,2.34,-3.58,-1.85,
4.462,-5.99,-2.64,0.83,2.35,-3.81,-1.93,
4.463,-5.99,-2.64,0.83,2.35,-4.07,-2.03,
4.463,-5.99,-2.64,0.83,2.36,-4.47,-2.18,
4.463,-5.99,-2.64,0.83,2.37,-4.75,-2.29,
4.464,-5.99,-2.64,0.83,2.37,-4.89,-2.34,
4.464,-4.01,-1.04,0.91,2.37,-4.89,-2.34,
4.465,-4.01,-1.04,0.91,2.38,-5.18,-2.43,
4.465,-4.01,-1.04,0.91,2.38,-5.45,-2.53,
4.466,-4.01,-1.04,0.91,2.40,-5.84,-2.64,
4.466,-4.01,-1.04,0.91,2.42,-6.06,-2.71,
4.466,-4.01,-1.04,0.91,2.44,-6.15,-2.74,
4.467,-2.63,0.32,2.00,2.44,-6.15,-2.74,
4.467,-2.63,0.32,2.00,2.47,-6.30,-2.79,
4.468,-2.63,0.32,2.00,2.52,-6.40,-2.85,
4.471,-2.63,0.32,2.00,2.60,-6.46,-2.94,
4.472,-2.63,0.32,2.00,2.65,-6.45,-3.01,
4.472,-2.63,0.32,2.00,2.67,-6.44,-3.04,
4.473,-1.77,2.54,2.42,2.67,-6.44,-3.04,
4.474,-1.77,2.54,2.42,2.72,-6.40,-3.11,
4.476,-1.77,2.54,2.42,2.75,-6.33,-3.19,
4.478,-1.77,2.54,2.42,2.78,-6.17,-3.34,
4.479,-1.77,2.54,2.42,2.78,-6.02,-3.45,
4.481,-1.77,2.54,2.42,2.78,-5.94,-3.51,
4.483,0.30,5.37,-0.86,2.78,-5.94,-3.51,
4.484,0.30,5.37,-0.86,2.79,-5.78,-3.61,
4.488,0.30,5.37,-0.86,2.82,-5.63,-3.71,
4.49,0.30,5.37,-0.86,2.83,-5.44,-3.85,
4.49,0.30,5.37,-0.86,2.82,-5.36,-3.93,
4.492,0.30,5.37,-0.86,2.81,-5.34,-3.96,
4.493,-3.45,7.40,-5.36,2.81,-5.34,-3.96,
4.494,-3.45,7.40,-5.36,2.77,-5.32,-4.00,
4.495,-3.45,7.40,-5.36,2.72,-5.36,-4.02,
4.498,-3.45,7.40,-5.36,2.61,-5.56,-3.98,
4.499,-3.45,7.40,-5.36,2.54,-5.78,-3.92,
4.506,-3.45,7.40,-5.36,2.51,-5.91,-3.88,
4.507,-9.18,7.05,-12.28,2.51,-5.91,-3.88,
4.507,-9.18,7.05,-12.28,2.44,-6.18,-3.77,
4.507,-9.18,7.05,-12.28,2.36,-6.49,-3.61,
4.508,-9.18,7.05,-12.28,2.22,-7.05,-3.30,
4.51,-9.18,7.05,-12.28,2.11,-7.44,-3.04,
4.517,-9.18,7.05,-12.28,2.04,-7.62,-2.91,
4.518,-13.67,4.31,-17.88,2.04,-7.62,-2.91,
4.519,-13.67,4.31,-17.88,1.90,-7.96,-2.60,
4.519,-13.67,4.31,-17.88,1.73,-8.24,-2.28,
4.519,-13.67,4.31,-17.88,1.30,-8.61,-1.60,
4.52,-13.67,4.31,-17.88,1.18,-8.66,-1.43,
4.535,-13.67,4.31,-17.88,1.06,-8.69,-1.27,
4.536,-14.42,3.22,-22.94,1.06,-8.69,-1.27,
4.536,-14.42,3.22,-22.94,0.78,-8.67,-0.95,
4.537,-14.42,3.22,-22.94,0.48,-8.57,-0.68,
4.537,-14.42,3.22,-22.94,-0.02,-8.24,-0.35,
4.537,-14.42,3.22,-22.94,-0.39,-7.91,-0.19,
4.538,-14.42,3.22,-22.94,-0.59,-7.71,-0.13,
4.538,-6.37,4.16,-25.46,-0.59,-7.71,-0.13,
4.538,-6.37,4.16,-25.46,-1.01,-7.27,-0.02,
4.538,-6.37,4.16,-25.46,-1.45,-6.78,0.06,
4.539,-6.37,4.16,-25.46,-2.15,-5.98,0.14,
4.542,-6.37,4.16,-25.46,-2.61,-5.41,0.19,
4.542,-6.37,4.16,-25.46,-2.84,-5.11,0.21,
4.546,0.14,4.85,-23.57,-2.84,-5.11,0.21,
4.546,0.14,4.85,-23.57,-3.28,-4.51,0.25,
4.547,0.14,4.85,-23.57,-3.68,-3.88,0.28,
4.55,0.14,4.85,-23.57,-4.20,-2.92,0.34,
4.551,0.14,4.85,-23.57,-4.48,-2.29,0.39,
4.553,0.14,4.85,-23.57,-4.60,-1.97,0.41,
4.555,2.70,1.70,-13.00,-4.60,-1.97,0.41,
4.557,2.70,1.70,-13.00,-4.80,-1.37,0.45,
4.558,2.70,1.70,-13.00,-4.95,-0.82,0.50,
4.558,2.70,1.70,-13.00,-5.06,-0.09,0.56,
4.559,2.70,1.70,-13.00,-5.05,0.32,0.60,
4.562,2.70,1.70,-13.00,-5.01,0.51,0.63,
4.563,4.01,-4.80,1.69,-5.01,0.51,0.63,
4.564,4.01,-4.80,1.69,-4.89,0.86,0.68,
4.569,4.01,-4.80,1.69,-4.55,1.33,0.78,
4.572,4.01,-4.80,1.69,-4.05,1.81,0.93,
4.573,4.01,-4.80,1.69,-3.86,1.98,0.99,
4.574,4.01,-4.80,1.69,-3.65,2.14,1.06,
4.576,4.95,-11.03,15.09,-3.65,2.14,1.06,
4.578,4.95,-11.03,15.09,-3.19,2.39,1.19,
4.578,4.95,-11.03,15.09,-2.69,2.55,1.32,
4.579,4.95,-11.03,15.09,-1.82,2.71,1.48,
4.579,4.95,-11.03,15.09,-1.16,2.77,1.57,
4.581,4.95,-11.03,15.09,-0.82,2.78,1.61,
4.583,8.83,-15.60,22.70,-0.82,2.78,1.61,
4.586,8.83,-15.60,22.70,-0.10,2.76,1.68,
4.587,8.83,-15.60,22.70,0.64,2.69,1.75,
4.593,8.83,-15.60,22.70,1.77,2.53,1.83,
4.595,8.83,-15.60,22.70,2.50,2.41,1.87,
4.596,8.83,-15.60,22.70,2.84,2.34,1.88,
4.597,13.32,-18.46,20.75,2.84,2.34,1.88,
4.633,13.32,-18.46,20.75,3.49,2.18,1.88,
4.633,13.32,-18.46,20.75,4.07,1.99,1.88,
4.633,13.32,-18.46,20.75,4.81,1.70,1.83,
4.634,13.32,-18.46,20.75,5.22,1.50,1.80,
4.634,13.32,-18.46,20.75,5.41,1.40,1.77,
4.635,15.81,-20.67,7.30,5.41,1.40,1.77,
4.635,15.81,-20.67,7.30,5.74,1.23,1.74,
4.636,15.81,-20.67,7.30,6.17,1.06,1.71,
4.636,15.81,-20.67,7.30,6.43,1.02,1.71,
4.637,15.81,-20.67,7.30,6.66,1.05,1.73,
4.637,15.81,-20.67,7.30,6.87,1.13,1.77,
4.637,14.80,-25.04,-5.41,6.87,1.13,1.77,
4.638,14.80,-25.04,-5.41,7.04,1.27,1.82,
4.638,14.80,-25.04,-5.41,7.19,1.46,1.88,
4.639,14.80,-25.04,-5.41,7.36,1.81,1.95,
4.639,14.80,-25.04,-5.41,7.40,1.94,1.98,
4.64,14.80,-25.04,-5.41,7.45,2.21,2.01,
4.64,16.11,-32.27,-16.48,7.45,2.21,2.01,
4.641,16.11,-32.27,-16.48,7.48,2.49,2.04,
4.641,16.11,-32.27,-16.48,7.50,2.76,2.04,
4.642,16.11,-32.27,-16.48,7.49,3.00,2.03,
4.642,16.11,-32.27,-16.48,7.46,3.21,2.00,
4.643,16.11,-32.27,-16.48,7.40,3.37,1.96,
4.643,18.34,-36.32,-23.71,7.40,3.37,1.96,
4.644,18.34,-36.32,-23.71,7.31,3.49,1.91,
4.644,18.34,-36.32,-23.71,7.19,3.58,1.86,
4.645,18.34,-36.32,-23.71,7.00,3.65,1.81,
4.645,18.34,-36.32,-23.71,6.94,3.65,1.80,
4.646,18.34,-36.32,-23.71,6.83,3.65,1.78,
4.646,16.94,-35.45,-28.31,6.83,3.65,1.78,
4.647,16.94,-35.45,-28.31,6.75,3.62,1.77,
4.647,16.94,-35.45,-28.31,6.71,3.57,1.76,
4.652,16.94,-35.45,-28.31,6.70,3.49,1.75,
4.653,16.94,-35.45,-28.31,6.73,3.38,1.73,
4.654,16.94,-35.45,-28.31,6.78,3.22,1.71,
4.654,14.17,-30.32,-26.96,6.78,3.22,1.71,
4.655,14.17,-30.32,-26.96,6.84,3.02,1.67,
4.658,14.17,-30.32,-26.96,6.88,2.75,1.62,
4.659,14.17,-30.32,-26.96,6.91,2.25,1.51,
4.659,14.17,-30.32,-26.96,6.90,2.06,1.47,
4.663,14.17,-30.32,-26.96,6.86,1.65,1.39,
4.664,9.76,-23.90,-29.32,6.86,1.65,1.39,
4.665,9.76,-23.90,-29.32,6.80,1.23,1.29,
4.666,9.76,-23.90,-29.32,6.70,0.81,1.18,
4.669,9.76,-23.90,-29.32,6.59,0.41,1.05,
4.669,9.76,-23.90,-29.32,6.45,0.04,0.91,
4.679,9.76,-23.90,-29.32,6.28,-0.30,0.74,
4.684,6.46,-18.22,-34.90,6.28,-0.30,0.74,
4.685,6.46,-18.22,-34.90,6.07,-0.63,0.56,
4.685,6.46,-18.22,-34.90,5.81,-0.96,0.35,
4.686,6.46,-18.22,-34.90,5.34,-1.43,0.05,
4.686,6.46,-18.22,-34.90,5.17,-1.59,-0.05,
4.686,6.46,-18.22,-34.90,4.79,-1.88,-0.23,
4.692,2.04,-14.16,-40.52,4.79,-1.88,-0.23,
4.693,2.04,-14.16,-40.52,4.41,-2.14,-0.40,
4.693,2.04,-14.16,-40.52,4.01,-2.38,-0.54,
4.694,2.04,-14.16,-40.52,3.62,-2.56,-0.65,
4.694,2.04,-14.16,-40.52,3.23,-2.70,-0.75,
4.694,2.04,-14.16,-40.52,2.86,-2.79,-0.83,
4.694,-5.05,-11.30,-38.49,2.86,-2.79,-0.83,
4.695,-5.05,-11.30,-38.49,2.48,-2.84,-0.90,
4.695,-5.05,-11.30,-38.49,2.10,-2.85,-0.95,
4.699,-5.05,-11.30,-38.49,1.73,-2.85,-0.97,
4.7,-5.05,-11.30,-38.49,1.36,-2.85,-0.96,
4.702,-5.05,-11.30,-38.49,1.00,-2.83,-0.93,
4.704,-12.50,-9.55,-31.59,1.00,-2.83,-0.93,
4.705,-12.50,-9.55,-31.59,0.68,-2.82,-0.87,
4.706,-12.50,-9.55,-31.59,0.39,-2.80,-0.79,
4.709,-12.50,-9.55,-31.59,0.14,-2.78,-0.69,
4.711,-12.50,-9.55,-31.59,-0.07,-2.77,-0.59,
4.712,-12.50,-9.55,-31.59,-0.25,-2.77,-0.47,
4.714,-16.45,-8.26,-20.54,-0.25,-2.77,-0.47,
4.717,-16.45,-8.26,-20.54,-0.40,-2.76,-0.34,
4.72,-16.45,-8.26,-20.54,-0.53,-2.76,-0.22,
4.724,-16.45,-8.26,-20.54,-0.69,-2.77,-0.02,
4.725,-16.45,-8.26,-20.54,-0.73,-2.78,0.04,
4.726,-16.45,-8.26,-20.54,-0.82,-2.81,0.17,
4.727,-16.56,-7.99,-11.46,-0.82,-2.81,0.17,
4.731,-16.56,-7.99,-11.46,-0.89,-2.84,0.31,
4.732,-16.56,-7.99,-11.46,-0.96,-2.88,0.44,
4.733,-16.56,-7.99,-11.46,-1.03,-2.93,0.56,
4.733,-16.56,-7.99,-11.46,-1.09,-2.98,0.69,
4.733,-16.56,-7.99,-11.46,-1.14,-3.04,0.81,
4.736,-13.77,-7.89,-6.53,-1.14,-3.04,0.81,
4.74,-13.77,-7.89,-6.53,-1.20,-3.08,0.94,
4.741,-13.77,-7.89,-6.53,-1.25,-3.12,1.07,
4.742,-13.77,-7.89,-6.53,-1.30,-3.15,1.20,
4.745,-13.77,-7.89,-6.53,-1.36,-3.17,1.32,
4.746,-13.77,-7.89,-6.53,-1.41,-3.18,1.44,
4.747,-9.57,-7.90,-4.53,-1.41,-3.18,1.44,
4.747,-9.57,-7.90,-4.53,-1.47,-3.18,1.55,
4.748,-9.57,-7.90,-4.53,-1.52,-3.16,1.65,
4.751,-9.57,-7.90,-4.53,-1.60,-3.11,1.80,
4.752,-9.57,-7.90,-4.53,-1.63,-3.10,1.85,
4.752,-9.57,-7.90,-4.53,-1.69,-3.06,1.93,
4.754,-4.24,-7.34,-3.17,-1.69,-3.06,1.93,
4.756,-4.24,-7.34,-3.17,-1.74,-3.03,2.01,
4.757,-4.24,-7.34,-3.17,-1.80,-3.00,2.07,
4.759,-4.24,-7.34,-3.17,-1.85,-2.97,2.14,
4.759,-4.24,-7.34,-3.17,-1.90,-2.93,2.19,
4.796,-4.24,-7.34,-3.17,-1.96,-2.88,2.24,
4.796,0.77,-6.64,-1.83,-1.96,-2.88,2.24,
4.797,0.77,-6.64,-1.83,-2.01,-2.83,2.27,
4.797,0.77,-6.64,-1.83,-2.05,-2.77,2.29,
4.798,0.77,-6.64,-1.83,-2.10,-2.65,2.31,
4.798,0.77,-6.64,-1.83,-2.12,-2.60,2.31,
4.798,0.77,-6.64,-1.83,-2.14,-2.49,2.30,
4.799,4.99,-5.96,0.55,-2.14,-2.49,2.30,
4.799,4.99,-5.96,0.55,-2.15,-2.38,2.29,
4.8,4.99,-5.96,0.55,-2.15,-2.27,2.26,
4.8,4.99,-5.96,0.55,-2.15,-2.16,2.23,
4.8,4.99,-5.96,0.55,-2.15,-2.06,2.20,
4.801,4.99,-5.96,0.55,-2.13,-1.97,2.16,
4.801,7.85,-4.99,3.13,-2.13,-1.97,2.16,
4.802,7.85,-4.99,3.13,-2.12,-1.89,2.10,
4.802,7.85,-4.99,3.13,-2.10,-1.84,2.04,
4.803,7.85,-4.99,3.13,-2.06,-1.81,1.92,
4.803,7.85,-4.99,3.13,-2.05,-1.80,1.88,
4.803,7.85,-4.99,3.13,-2.00,-1.77,1.79,
4.804,9.12,-4.50,5.68,-2.00,-1.77,1.79,
4.804,9.12,-4.50,5.68,-1.94,-1.73,1.71,
4.805,9.12,-4.50,5.68,-1.86,-1.68,1.62,
4.805,9.12,-4.50,5.68,-1.77,-1.59,1.52,
4.805,9.12,-4.50,5.68,-1.67,-1.50,1.43,
4.806,9.12,-4.50,5.68,-1.54,-1.37,1.33,
4.806,10.34,-4.92,8.29,-1.54,-1.37,1.33,
4.807,10.34,-4.92,8.29,-1.41,-1.22,1.22,
4.807,10.34,-4.92,8.29,-1.26,-1.05,1.10,
4.822,10.34,-4.92,8.29,-1.10,-0.87,0.97,
4.823,10.34,-4.92,8.29,-0.94,-0.68,0.84,
4.823,10.34,-4.92,8.29,-0.77,-0.50,0.70,
4.824,9.94,-4.96,10.05,-0.77,-0.50,0.70,
4.824,9.94,-4.96,10.05,-0.60,-0.33,0.56,
4.825,9.94,-4.96,10.05,-0.42,-0.17,0.42,
4.825,9.94,-4.96,10.05,-0.17,0.04,0.21,
4.825,9.94,-4.96,10.05,-0.09,0.10,0.14,
4.826,9.94,-4.96,10.05,0.08,0.20,0.01,
4.826,8.67,-4.74,10.37,0.08,0.20,0.01,
4.827,8.67,-4.74,10.37,0.24,0.29,-0.10,
4.832,8.67,-4.74,10.37,0.73,0.50,-0.41,
4.836,8.67,-4.74,10.37,0.73,0.50,-0.41,
4.836,8.67,-4.74,10.37,0.73,0.50,-0.41,
4.837,8.67,-4.74,10.37,0.89,0.55,-0.50,
4.837,5.73,-4.61,9.96,0.89,0.55,-0.50,
4.837,5.73,-4.61,9.96,1.06,0.60,-0.58,
4.838,5.73,-4.61,9.96,1.22,0.65,-0.65,
4.838,5.73,-4.61,9.96,1.46,0.68,-0.77,
4.842,5.73,-4.61,9.96,1.54,0.69,-0.82,
4.844,5.73,-4.61,9.96,1.68,0.69,-0.92,
4.846,4.74,-5.13,9.04,1.68,0.69,-0.92,
4.846,4.74,-5.13,9.04,1.83,0.69,-1.01,
4.847,4.74,-5.13,9.04,1.97,0.69,-1.10,
4.849,4.74,-5.13,9.04,2.20,0.66,-1.19,
4.861,4.74,-5.13,9.04,2.28,0.65,-1.22,
4.863,4.74,-5.13,9.04,2.44,0.63,-1.25,
4.864,2.40,-5.52,8.86,2.44,0.63,-1.25,
4.865,2.40,-5.52,8.86,2.60,0.61,-1.27,
4.866,2.40,-5.52,8.86,2.76,0.58,-1.28,
4.866,2.40,-5.52,8.86,2.99,0.53,-1.27,
4.867,2.40,-5.52,8.86,3.06,0.51,-1.26,
4.867,2.40,-5.52,8.86,3.20,0.47,-1.23,
4.868,-0.63,-6.14,8.48,3.20,0.47,-1.23,
4.868,-0.63,-6.14,8.48,3.33,0.42,-1.19,
4.871,-0.63,-6.14,8.48,3.46,0.37,-1.14,
4.872,-0.63,-6.14,8.48,3.72,0.10,-1.15,
4.873,-0.63,-6.14,8.48,3.85,-0.13,-1.20,
4.873,-0.63,-6.14,8.48,4.14,-0.78,-1.34,
4.874,-1.12,-5.12,8.77,4.14,-0.78,-1.34,
4.875,-1.12,-5.12,8.77,4.49,-1.54,-1.50,
4.878,-1.12,-5.12,8.77,5.06,-1.41,-1.66,
4.881,-1.12,-5.12,8.77,5.82,2.92,-1.78,
4.883,-1.12,-5.12,8.77,5.86,4.32,-1.71,
4.887,-1.12,-5.12,8.77,5.53,6.67,-1.43,
4.888,-11.51,1.15,-34.06,5.53,6.67,-1.43,
4.889,-11.51,1.15,-34.06,4.47,8.02,-1.00,
4.889,-11.51,1.15,-34.06,2.83,8.77,-0.51,
4.89,-11.51,1.15,-34.06,-0.65,9.32,0.01,
4.89,-11.51,1.15,-34.06,-2.36,8.12,0.07,
4.891,-11.51,1.15,-34.06,-5.72,4.84,-0.06,
4.898,-9.39,9.89,-64.35,-5.72,4.84,-0.06,
4.902,-9.39,9.89,-64.35,-7.17,2.66,-0.33,
4.902,-9.39,9.89,-64.35,-5.64,-0.22,-0.65,
4.903,-9.39,9.89,-64.35,-2.26,-3.78,-0.92,
4.903,-9.39,9.89,-64.35,-1.75,-3.70,-0.92,
4.904,-9.39,9.89,-64.35,-1.46,-2.41,-0.86,
4.905,2.12,2.96,-2.92,-1.46,-2.41,-0.86,
4.906,2.12,2.96,-2.92,-1.59,-0.96,-0.72,
4.907,2.12,2.96,-2.92,-1.82,-0.01,-0.52,
4.91,2.12,2.96,-2.92,-2.08,0.69,-0.24,
4.91,2.12,2.96,-2.92,-2.11,0.82,-0.17,
4.913,2.12,2.96,-2.92,-2.03,0.94,-0.05,
4.914,-3.15,-1.14,9.58,-2.03,0.94,-0.05,
4.915,-3.15,-1.14,9.58,-1.76,0.85,-0.00,
