
time,ax,ay,az,wx,wy,wz,
0.008,-0.35,-0.31,-0.57,-0.39,0.09,-0.17,
0.011,-0.35,-0.31,-0.57,-0.41,0.08,-0.16,
0.012,-0.35,-0.31,-0.57,-0.43,0.06,-0.14,
0.012,-0.35,-0.31,-0.57,-0.46,0.03,-0.12,
0.013,-0.35,-0.31,-0.57,-0.47,0.02,-0.11,
0.013,-0.35,-0.31,-0.57,-0.49,0.00,-0.09,
0.013,-0.52,-0.39,-0.56,-0.49,0.00,-0.09,
0.013,-0.52,-0.39,-0.56,-0.51,-0.02,-0.07,
0.013,-0.52,-0.39,-0.56,-0.52,-0.04,-0.06,
0.014,-0.52,-0.39,-0.56,-0.53,-0.07,-0.02,
0.014,-0.52,-0.39,-0.56,-0.53,-0.08,-0.01,
0.014,-0.52,-0.39,-0.56,-0.54,-0.10,0.01,
0.014,-0.67,-0.29,-0.15,-0.54,-0.10,0.01,
0.014,-0.67,-0.29,-0.15,-0.54,-0.12,0.03,
0.015,-0.67,-0.29,-0.15,-0.52,-0.16,0.08,
0.015,-0.67,-0.29,-0.15,-0.52,-0.16,0.08,
0.015,-0.67,-0.29,-0.15,-0.52,-0.16,0.08,
0.015,-0.67,-0.29,-0.15,-0.51,-0.17,0.10,
0.015,-0.63,-0.07,0.53,-0.51,-0.17,0.10,
0.016,-0.63,-0.07,0.53,-0.50,-0.17,0.11,
0.016,-0.63,-0.07,0.53,-0.48,-0.17,0.12,
0.016,-0.63,-0.07,0.53,-0.45,-0.17,0.14,
0.032,-0.63,-0.07,0.53,-0.44,-0.17,0.15,
0.033,-0.63,-0.07,0.53,-0.41,-0.16,0.15,
0.033,-0.56,0.14,1.16,-0.41,-0.16,0.15,
0.033,-0.56,0.14,1.16,-0.39,-0.15,0.16,
0.033,-0.56,0.14,1.16,-0.37,-0.14,0.17,
0.034,-0.56,0.14,1.16,-0.33,-0.11,0.17,
0.034,-0.56,0.14,1.16,-0.32,-0.10,0.17,
0.034,-0.56,0.14,1.16,-0.29,-0.08,0.18,
0.035,-0.40,0.23,1.47,-0.29,-0.08,0.18,
0.038,-0.40,0.23,1.47,-0.27,-0.06,0.17,
0.038,-0.40,0.23,1.47,-0.23,-0.03,0.17,
0.038,-0.40,0.23,1.47,-0.21,-0.01,0.17,
0.039,-0.40,0.23,1.47,-0.20,0.00,0.17,
0.039,-0.40,0.23,1.47,-0.17,0.03,0.17,
0.045,-0.23,0.26,1.44,-0.17,0.03,0.17,
0.046,-0.23,0.26,1.44,-0.16,0.05,0.17,
0.047,-0.23,0.26,1.44,-0.14,0.07,0.17,
0.047,-0.23,0.26,1.44,-0.12,0.10,0.16,
0.048,-0.23,0.26,1.44,-0.11,0.11,0.16,
0.051,-0.23,0.26,1.44,-0.10,0.13,0.16,
0.052,-0.08,0.21,1.14,-0.10,0.13,0.16,
0.052,-0.08,0.21,1.14,-0.09,0.15,0.16,
0.053,-0.08,0.21,1.14,-0.08,0.17,0.16,
0.064,-0.08,0.21,1.14,-0.06,0.20,0.16,
0.065,-0.08,0.21,1.14,-0.06,0.20,0.16,
0.065,-0.08,0.21,1.14,-0.06,0.22,0.16,
0.065,-0.09,0.13,0.69,-0.06,0.22,0.16,
0.066,-0.09,0.13,0.69,-0.05,0.23,0.17,
0.066,-0.09,0.13,0.69,-0.05,0.24,0.17,
0.066,-0.09,0.13,0.69,-0.05,0.25,0.18,
0.067,-0.09,0.13,0.69,-0.05,0.25,0.18,
0.069,-0.09,0.13,0.69,-0.05,0.26,0.18,
0.071,-0.09,0.07,0.25,-0.05,0.26,0.18,
0.071,-0.09,0.07,0.25,-0.05,0.26,0.19,
0.073,-0.09,0.07,0.25,-0.05,0.25,0.19,
0.147,-0.09,0.07,0.25,-0.05,0.24,0.20,
0.148,-0.09,0.07,0.25,-0.05,0.24,0.20,
0.149,-0.09,0.07,0.25,-0.06,0.23,0.20,
0.149,-0.02,0.06,-0.03,-0.06,0.23,0.20,
0.151,-0.02,0.06,-0.03,-0.06,0.22,0.20,
0.151,-0.02,0.06,-0.03,-0.06,0.21,0.20,
0.152,-0.02,0.06,-0.03,-0.06,0.19,0.20,
0.152,-0.02,0.06,-0.03,-0.06,0.18,0.20,
0.154,-0.02,0.06,-0.03,-0.05,0.17,0.20,
0.154,0.08,0.10,-0.14,-0.05,0.17,0.20,
0.154,0.08,0.10,-0.14,-0.05,0.15,0.20,
0.155,0.08,0.10,-0.14,-0.05,0.14,0.20,
0.156,0.08,0.10,-0.14,-0.04,0.12,0.19,
0.156,0.08,0.10,-0.14,-0.04,0.11,0.19,
0.157,0.08,0.10,-0.14,-0.04,0.10,0.19,
0.158,0.15,0.22,-0.08,-0.04,0.10,0.19,
0.159,0.15,0.22,-0.08,-0.03,0.09,0.18,
0.159,0.15,0.22,-0.08,-0.03,0.07,0.17,
0.16,0.15,0.22,-0.08,-0.02,0.06,0.17,
0.161,0.15,0.22,-0.08,-0.02,0.05,0.17,
0.162,0.15,0.22,-0.08,-0.01,0.04,0.16,
0.162,0.21,0.29,-0.01,-0.01,0.04,0.16,
0.163,0.21,0.29,-0.01,-0.00,0.03,0.15,
0.163,0.21,0.29,-0.01,0.00,0.02,0.15,
0.164,0.21,0.29,-0.01,0.01,0.00,0.14,
0.164,0.21,0.29,-0.01,0.01,-0.00,0.13,
0.165,0.21,0.29,-0.01,0.01,-0.01,0.13,
0.165,0.28,0.26,0.01,0.01,-0.01,0.13,
0.165,0.28,0.26,0.01,0.01,-0.02,0.12,
0.166,0.28,0.26,0.01,0.01,-0.02,0.11,
0.166,0.28,0.26,0.01,0.02,-0.03,0.10,
0.166,0.28,0.26,0.01,0.01,-0.03,0.10,
0.167,0.28,0.26,0.01,0.01,-0.03,0.09,
0.167,0.34,0.25,-0.01,0.01,-0.03,0.09,
0.168,0.34,0.25,-0.01,0.01,-0.03,0.08,
0.169,0.34,0.25,-0.01,0.01,-0.03,0.07,
0.169,0.34,0.25,-0.01,0.01,-0.03,0.06,
0.17,0.34,0.25,-0.01,0.01,-0.02,0.05,
0.171,0.34,0.25,-0.01,0.00,-0.02,0.05,
0.171,0.33,0.19,0.02,0.00,-0.02,0.05,
0.172,0.33,0.19,0.02,0.00,-0.01,0.04,
0.172,0.33,0.19,0.02,0.00,0.00,0.04,
0.173,0.33,0.19,0.02,-0.00,0.02,0.02,
0.174,0.33,0.19,0.02,-0.01,0.03,0.02,
0.174,0.33,0.19,0.02,-0.01,0.04,0.01,
0.175,0.30,0.13,0.01,-0.01,0.04,0.01,
0.178,0.30,0.13,0.01,-0.01,0.05,0.01,
0.179,0.30,0.13,0.01,-0.02,0.07,-0.00,
0.179,0.30,0.13,0.01,-0.03,0.09,-0.01,
0.18,0.30,0.13,0.01,-0.04,0.10,-0.01,
0.181,0.30,0.13,0.01,-0.05,0.12,-0.02,
0.182,0.20,0.05,-0.03,-0.05,0.12,-0.02,
0.183,0.20,0.05,-0.03,-0.06,0.14,-0.03,
0.184,0.20,0.05,-0.03,-0.07,0.16,-0.03,
0.184,0.20,0.05,-0.03,-0.09,0.18,-0.04,
0.185,0.20,0.05,-0.03,-0.09,0.19,-0.04,
0.186,0.20,0.05,-0.03,-0.10,0.21,-0.04,
0.186,0.05,-0.04,-0.03,-0.10,0.21,-0.04,
0.187,0.05,-0.04,-0.03,-0.12,0.22,-0.05,
0.188,0.05,-0.04,-0.03,-0.13,0.24,-0.05,
0.189,0.05,-0.04,-0.03,-0.15,0.26,-0.05,
0.192,0.05,-0.04,-0.03,-0.15,0.27,-0.06,
0.193,0.05,-0.04,-0.03,-0.17,0.28,-0.06,
0.194,-0.06,-0.03,0.03,-0.17,0.28,-0.06,
0.198,-0.06,-0.03,0.03,-0.18,0.29,-0.06,
0.2,-0.06,-0.03,0.03,-0.19,0.31,-0.07,
0.201,-0.06,-0.03,0.03,-0.21,0.33,-0.07,
0.201,-0.06,-0.03,0.03,-0.22,0.34,-0.07,
0.202,-0.06,-0.03,0.03,-0.23,0.35,-0.08,
0.203,-0.04,-0.05,0.01,-0.23,0.35,-0.08,
0.204,-0.04,-0.05,0.01,-0.24,0.35,-0.09,
0.204,-0.04,-0.05,0.01,-0.26,0.36,-0.09,
0.205,-0.04,-0.05,0.01,-0.28,0.37,-0.10,
0.205,-0.04,-0.05,0.01,-0.29,0.37,-0.11,
0.233,-0.04,-0.05,0.01,-0.30,0.37,-0.11,
0.234,-0.01,-0.10,-0.12,-0.30,0.37,-0.11,
0.234,-0.01,-0.10,-0.12,-0.31,0.37,-0.12,
0.234,-0.01,-0.10,-0.12,-0.33,0.37,-0.12,
0.235,-0.01,-0.10,-0.12,-0.34,0.37,-0.13,
0.235,-0.01,-0.10,-0.12,-0.35,0.36,-0.13,
0.236,-0.01,-0.10,-0.12,-0.36,0.36,-0.13,
0.236,-0.09,-0.10,-0.20,-0.36,0.36,-0.13,
0.236,-0.09,-0.10,-0.20,-0.37,0.35,-0.12,
0.237,-0.09,-0.10,-0.20,-0.38,0.34,-0.12,
0.237,-0.09,-0.10,-0.20,-0.40,0.33,-0.11,
0.237,-0.09,-0.10,-0.20,-0.40,0.33,-0.11,
0.238,-0.09,-0.10,-0.20,-0.41,0.32,-0.10,
0.238,-0.24,-0.12,-0.16,-0.41,0.32,-0.10,
0.238,-0.24,-0.12,-0.16,-0.42,0.30,-0.10,
0.239,-0.24,-0.12,-0.16,-0.42,0.29,-0.09,
0.239,-0.24,-0.12,-0.16,-0.42,0.26,-0.08,
0.24,-0.24,-0.12,-0.16,-0.42,0.25,-0.07,
0.24,-0.24,-0.12,-0.16,-0.42,0.22,-0.07,
0.24,-0.21,-0.11,0.13,-0.42,0.22,-0.07,
0.241,-0.21,-0.11,0.13,-0.42,0.20,-0.06,
0.241,-0.21,-0.11,0.13,-0.42,0.17,-0.06,
0.241,-0.21,-0.11,0.13,-0.42,0.13,-0.06,
0.242,-0.21,-0.11,0.13,-0.42,0.12,-0.06,
0.242,-0.21,-0.11,0.13,-0.42,0.10,-0.06,
0.243,0.06,-0.10,0.30,-0.42,0.10,-0.06,
0.243,0.06,-0.10,0.30,-0.41,0.08,-0.06,
0.243,0.06,-0.10,0.30,-0.41,0.06,-0.06,
0.264,0.06,-0.10,0.30,-0.40,0.05,-0.07,
0.264,0.06,-0.10,0.30,-0.40,0.05,-0.07,
0.265,0.06,-0.10,0.30,-0.40,0.05,-0.07,
0.265,0.25,-0.04,0.27,-0.40,0.05,-0.07,
0.265,0.25,-0.04,0.27,-0.40,0.06,-0.08,
0.265,0.25,-0.04,0.27,-0.40,0.07,-0.08,
0.265,0.25,-0.04,0.27,-0.41,0.09,-0.08,
0.266,0.25,-0.04,0.27,-0.41,0.10,-0.08,
0.266,0.25,-0.04,0.27,-0.42,0.12,-0.09,
0.266,0.26,-0.07,-0.09,-0.42,0.12,-0.09,
0.266,0.26,-0.07,-0.09,-0.43,0.15,-0.09,
0.266,0.26,-0.07,-0.09,-0.45,0.17,-0.09,
0.267,0.26,-0.07,-0.09,-0.47,0.21,-0.09,
0.267,0.26,-0.07,-0.09,-0.48,0.22,-0.09,
0.278,0.26,-0.07,-0.09,-0.50,0.25,-0.09,
0.279,0.10,-0.12,-0.34,-0.50,0.25,-0.09,
0.279,0.10,-0.12,-0.34,-0.52,0.27,-0.09,
0.28,0.10,-0.12,-0.34,-0.53,0.30,-0.09,
0.28,0.10,-0.12,-0.34,-0.55,0.33,-0.08,
0.28,0.10,-0.12,-0.34,-0.56,0.34,-0.07,
0.281,0.10,-0.12,-0.34,-0.57,0.37,-0.06,
0.281,-0.30,-0.03,-0.18,-0.57,0.37,-0.06,
0.282,-0.30,-0.03,-0.18,-0.58,0.39,-0.05,
0.296,-0.30,-0.03,-0.18,-0.59,0.41,-0.04,
0.297,-0.30,-0.03,-0.18,-0.59,0.43,-0.01,
0.298,-0.30,-0.03,-0.18,-0.59,0.44,-0.01,
0.298,-0.30,-0.03,-0.18,-0.59,0.45,0.01,
0.298,-0.53,0.04,0.21,-0.59,0.45,0.01,
0.299,-0.53,0.04,0.21,-0.59,0.47,0.02,
0.299,-0.53,0.04,0.21,-0.59,0.48,0.04,
0.299,-0.53,0.04,0.21,-0.58,0.49,0.06,
0.3,-0.53,0.04,0.21,-0.58,0.49,0.06,
0.3,-0.53,0.04,0.21,-0.58,0.50,0.07,
0.364,-0.43,-0.06,0.51,-0.58,0.50,0.07,
0.364,-0.43,-0.06,0.51,-0.57,0.50,0.08,
0.364,-0.43,-0.06,0.51,-0.57,0.51,0.09,
0.365,-0.43,-0.06,0.51,-0.57,0.52,0.09,
0.365,-0.43,-0.06,0.51,-0.57,0.52,0.09,
0.365,-0.43,-0.06,0.51,-0.57,0.53,0.09,
0.365,-0.13,-0.13,0.53,-0.57,0.53,0.09,
0.365,-0.13,-0.13,0.53,-0.57,0.55,0.09,
0.365,-0.13,-0.13,0.53,-0.58,0.56,0.09,
0.366,-0.13,-0.13,0.53,-0.59,0.58,0.08,
0.366,-0.13,-0.13,0.53,-0.60,0.59,0.08,
0.366,-0.13,-0.13,0.53,-0.62,0.61,0.07,
0.366,0.20,-0.18,0.20,-0.62,0.61,0.07,
0.366,0.20,-0.18,0.20,-0.64,0.62,0.06,
0.366,0.20,-0.18,0.20,-0.66,0.64,0.05,
0.367,0.20,-0.18,0.20,-0.70,0.67,0.04,
0.367,0.20,-0.18,0.20,-0.71,0.68,0.03,
0.367,0.20,-0.18,0.20,-0.75,0.71,0.02,
0.367,0.42,-0.20,-0.23,-0.75,0.71,0.02,
0.367,0.42,-0.20,-0.23,-0.78,0.74,0.01,
0.367,0.42,-0.20,-0.23,-0.81,0.77,-0.01,
0.368,0.42,-0.20,-0.23,-0.87,0.82,-0.03,
0.368,0.42,-0.20,-0.23,-0.89,0.84,-0.04,
0.368,0.42,-0.20,-0.23,-0.94,0.87,-0.05,
0.368,0.56,-0.15,-0.69,-0.94,0.87,-0.05,
0.368,0.56,-0.15,-0.69,-0.98,0.90,-0.06,
0.368,0.56,-0.15,-0.69,-1.03,0.93,-0.08,
0.369,0.56,-0.15,-0.69,-1.09,0.96,-0.09,
0.369,0.56,-0.15,-0.69,-1.11,0.97,-0.09,
0.369,0.56,-0.15,-0.69,-1.16,0.99,-0.10,
0.369,0.28,0.04,-0.78,-1.16,0.99,-0.10,
0.369,0.28,0.04,-0.78,-1.20,1.01,-0.10,
0.369,0.28,0.04,-0.78,-1.23,1.02,-0.10,
0.369,0.28,0.04,-0.78,-1.29,1.04,-0.10,
0.37,0.28,0.04,-0.78,-1.30,1.04,-0.10,
0.37,0.28,0.04,-0.78,-1.33,1.05,-0.10,
0.37,-0.20,0.21,-0.50,-1.33,1.05,-0.10,
0.37,-0.20,0.21,-0.50,-1.35,1.05,-0.09,
0.37,-0.20,0.21,-0.50,-1.37,1.06,-0.09,
0.388,-0.20,0.21,-0.50,-1.39,1.05,-0.09,
0.388,-0.20,0.21,-0.50,-1.40,1.05,-0.09,
0.388,-0.20,0.21,-0.50,-1.41,1.05,-0.08,
0.388,-0.41,0.29,-0.14,-1.41,1.05,-0.08,
0.388,-0.41,0.29,-0.14,-1.43,1.04,-0.08,
0.388,-0.41,0.29,-0.14,-1.44,1.03,-0.09,
0.388,-0.41,0.29,-0.14,-1.46,1.03,-0.09,
0.389,-0.41,0.29,-0.14,-1.46,1.03,-0.09,
0.389,-0.41,0.29,-0.14,-1.48,1.02,-0.10,
0.389,-0.15,0.26,0.10,-1.48,1.02,-0.10,
0.389,-0.15,0.26,0.10,-1.49,1.02,-0.11,
0.389,-0.15,0.26,0.10,-1.51,1.03,-0.12,
0.389,-0.15,0.26,0.10,-1.53,1.04,-0.13,
0.389,-0.15,0.26,0.10,-1.54,1.04,-0.13,
0.39,-0.15,0.26,0.10,-1.57,1.06,-0.14,
0.427,0.12,0.13,-0.16,-1.57,1.06,-0.14,
0.428,0.12,0.13,-0.16,-1.59,1.08,-0.15,
0.428,0.12,0.13,-0.16,-1.62,1.11,-0.16,
0.428,0.12,0.13,-0.16,-1.66,1.17,-0.18,
0.428,0.12,0.13,-0.16,-1.67,1.20,-0.18,
0.428,0.12,0.13,-0.16,-1.67,1.32,-0.17,
0.428,0.07,0.33,-0.47,-1.67,1.32,-0.17,
0.428,0.07,0.33,-0.47,-1.66,1.43,-0.16,
0.429,0.07,0.33,-0.47,-1.66,1.54,-0.15,
0.429,0.07,0.33,-0.47,-1.67,1.69,-0.14,
0.429,0.07,0.33,-0.47,-1.68,1.73,-0.14,
0.429,0.07,0.33,-0.47,-1.70,1.81,-0.13,
0.429,0.01,0.53,-1.06,-1.70,1.81,-0.13,
0.429,0.01,0.53,-1.06,-1.73,1.87,-0.12,
0.429,0.01,0.53,-1.06,-1.77,1.91,-0.11,
0.429,0.01,0.53,-1.06,-1.85,1.94,-0.11,
0.43,0.01,0.53,-1.06,-1.88,1.94,-0.11,
0.43,0.01,0.53,-1.06,-1.94,1.93,-0.11,
0.43,0.14,0.10,-2.06,-1.94,1.93,-0.11,
0.43,0.14,0.10,-2.06,-2.01,1.91,-0.11,
0.43,0.14,0.10,-2.06,-2.08,1.88,-0.11,
0.43,0.14,0.10,-2.06,-2.19,1.83,-0.09,
0.43,0.14,0.10,-2.06,-2.22,1.81,-0.08,
0.431,0.14,0.10,-2.06,-2.28,1.75,-0.07,
0.431,-0.33,-0.74,-2.24,-2.28,1.75,-0.07,
0.431,-0.33,-0.74,-2.24,-2.34,1.68,-0.06,
0.432,-0.33,-0.74,-2.24,-2.40,1.60,-0.04,
0.435,-0.33,-0.74,-2.24,-2.47,1.47,-0.01,
0.436,-0.33,-0.74,-2.24,-2.49,1.43,-0.00,
0.439,-0.33,-0.74,-2.24,-2.52,1.33,0.02,
0.44,-0.60,-0.69,-1.76,-2.52,1.33,0.02,
0.441,-0.60,-0.69,-1.76,-2.54,1.22,0.05,
0.443,-0.60,-0.69,-1.76,-2.54,1.11,0.07,
0.446,-0.60,-0.69,-1.76,-2.53,0.93,0.12,
0.447,-0.60,-0.69,-1.76,-2.51,0.87,0.14,
0.449,-0.60,-0.69,-1.76,-2.48,0.75,0.17,
0.451,-0.79,-0.11,-0.15,-2.48,0.75,0.17,
0.451,-0.79,-0.11,-0.15,-2.43,0.63,0.21,
0.453,-0.79,-0.11,-0.15,-2.37,0.50,0.25,
0.457,-0.79,-0.11,-0.15,-2.26,0.31,0.30,
0.458,-0.79,-0.11,-0.15,-2.22,0.25,0.32,
0.465,-0.79,-0.11,-0.15,-2.13,0.12,0.36,
0.466,-0.63,0.50,1.51,-2.13,0.12,0.36,
0.467,-0.63,0.50,1.51,-2.04,-0.00,0.38,
0.467,-0.63,0.50,1.51,-1.94,-0.13,0.41,
0.467,-0.63,0.50,1.51,-1.79,-0.31,0.44,
0.468,-0.63,0.50,1.51,-1.74,-0.37,0.45,
0.469,-0.63,0.50,1.51,-1.63,-0.50,0.47,
0.47,0.12,0.58,2.36,-1.63,-0.50,0.47,
0.471,0.12,0.58,2.36,-1.52,-0.62,0.47,
0.473,0.12,0.58,2.36,-1.41,-0.71,0.47,
0.486,0.12,0.58,2.36,-1.28,-0.79,0.46,
0.487,0.12,0.58,2.36,-1.23,-0.80,0.45,
0.488,0.12,0.58,2.36,-1.16,-0.79,0.42,
0.489,0.96,0.17,2.32,-1.16,-0.79,0.42,
0.49,0.96,0.17,2.32,-1.09,-0.78,0.38,
0.491,0.96,0.17,2.32,-1.03,-0.76,0.34,
0.492,0.96,0.17,2.32,-0.93,-0.75,0.28,
0.493,0.96,0.17,2.32,-0.90,-0.75,0.26,
0.494,0.96,0.17,2.32,-0.83,-0.75,0.22,
0.495,1.70,-0.18,1.77,-0.83,-0.75,0.22,
0.495,1.70,-0.18,1.77,-0.76,-0.76,0.18,
0.496,1.70,-0.18,1.77,-0.69,-0.77,0.14,
0.497,1.70,-0.18,1.77,-0.58,-0.77,0.06,
0.498,1.70,-0.18,1.77,-0.55,-0.77,0.04,
0.5,1.70,-0.18,1.77,-0.48,-0.77,-0.01,
0.502,2.14,-0.25,1.87,-0.48,-0.77,-0.01,
0.502,2.14,-0.25,1.87,-0.42,-0.76,-0.06,
0.503,2.14,-0.25,1.87,-0.35,-0.75,-0.11,
0.506,2.14,-0.25,1.87,-0.26,-0.74,-0.19,
0.507,2.14,-0.25,1.87,-0.23,-0.73,-0.22,
0.509,2.14,-0.25,1.87,-0.18,-0.72,-0.27,
0.51,2.09,0.04,2.02,-0.18,-0.72,-0.27,
0.512,2.09,0.04,2.02,-0.13,-0.70,-0.33,
0.512,2.09,0.04,2.02,-0.08,-0.68,-0.38,
0.516,2.09,0.04,2.02,-0.02,-0.65,-0.45,
0.516,2.09,0.04,2.02,0.00,-0.64,-0.48,
0.518,2.09,0.04,2.02,0.04,-0.62,-0.52,
0.52,1.71,0.35,1.67,0.04,-0.62,-0.52,
0.52,1.71,0.35,1.67,0.07,-0.62,-0.55,
0.524,1.71,0.35,1.67,0.11,-0.62,-0.57,
0.525,1.71,0.35,1.67,0.15,-0.65,-0.59,
0.527,1.71,0.35,1.67,0.17,-0.66,-0.59,
0.533,1.71,0.35,1.67,0.19,-0.70,-0.60,
0.534,0.94,0.48,1.30,0.19,-0.70,-0.60,
0.566,0.94,0.48,1.30,0.22,-0.74,-0.59,
0.566,0.94,0.48,1.30,0.23,-0.78,-0.58,
0.567,0.94,0.48,1.30,0.25,-0.86,-0.57,
0.567,0.94,0.48,1.30,0.25,-0.89,-0.56,
0.568,0.94,0.48,1.30,0.26,-0.95,-0.54,
0.568,0.60,0.47,0.61,0.26,-0.95,-0.54,
0.568,0.60,0.47,0.61,0.25,-1.02,-0.52,
0.569,0.60,0.47,0.61,0.24,-1.09,-0.50,
0.569,0.60,0.47,0.61,0.21,-1.20,-0.47,
0.57,0.60,0.47,0.61,0.20,-1.24,-0.46,
0.57,0.60,0.47,0.61,0.18,-1.31,-0.45,
0.571,0.59,0.33,-0.26,0.18,-1.31,-0.45,
0.571,0.59,0.33,-0.26,0.15,-1.38,-0.43,
0.573,0.59,0.33,-0.26,0.12,-1.44,-0.42,
0.573,0.59,0.33,-0.26,0.08,-1.51,-0.41,
0.574,0.59,0.33,-0.26,0.07,-1.52,-0.41,
0.574,0.59,0.33,-0.26,0.04,-1.54,-0.41,
0.574,0.56,0.21,-0.83,0.04,-1.54,-0.41,
0.575,0.56,0.21,-0.83,0.00,-1.54,-0.41,
0.575,0.56,0.21,-0.83,-0.03,-1.54,-0.41,
0.575,0.56,0.21,-0.83,-0.08,-1.55,-0.40,
0.576,0.56,0.21,-0.83,-0.10,-1.55,-0.39,
0.576,0.56,0.21,-0.83,-0.13,-1.56,-0.39,
0.576,0.46,-0.26,-1.18,-0.13,-1.56,-0.39,
0.577,0.46,-0.26,-1.18,-0.16,-1.56,-0.39,
0.577,0.46,-0.26,-1.18,-0.19,-1.54,-0.39,
0.577,0.46,-0.26,-1.18,-0.22,-1.49,-0.40,
0.578,0.46,-0.26,-1.18,-0.23,-1.47,-0.40,
0.579,0.46,-0.26,-1.18,-0.25,-1.43,-0.41,
0.581,0.34,-0.14,-0.52,-0.25,-1.43,-0.41,
0.581,0.34,-0.14,-0.52,-0.26,-1.39,-0.42,
0.583,0.34,-0.14,-0.52,-0.27,-1.35,-0.44,
0.586,0.34,-0.14,-0.52,-0.28,-1.32,-0.46,
0.587,0.34,-0.14,-0.52,-0.28,-1.31,-0.46,
0.589,0.34,-0.14,-0.52,-0.29,-1.30,-0.48,
0.591,0.32,0.11,0.27,-0.29,-1.30,-0.48,
0.594,0.32,0.11,0.27,-0.30,-1.29,-0.50,
0.595,0.32,0.11,0.27,-0.31,-1.28,-0.51,
0.596,0.32,0.11,0.27,-0.33,-1.28,-0.54,
0.597,0.32,0.11,0.27,-0.34,-1.28,-0.54,
0.599,0.32,0.11,0.27,-0.36,-1.27,-0.56,
0.601,0.21,0.19,0.43,-0.36,-1.27,-0.56,
0.601,0.21,0.19,0.43,-0.38,-1.28,-0.57,
0.603,0.21,0.19,0.43,-0.40,-1.28,-0.58,
0.606,0.21,0.19,0.43,-0.43,-1.30,-0.60,
0.607,0.21,0.19,0.43,-0.44,-1.30,-0.60,
0.626,0.21,0.19,0.43,-0.46,-1.31,-0.60,
0.628,-0.02,0.29,0.52,-0.46,-1.31,-0.60,
0.628,-0.02,0.29,0.52,-0.48,-1.32,-0.60,
0.629,-0.02,0.29,0.52,-0.49,-1.32,-0.60,
0.629,-0.02,0.29,0.52,-0.51,-1.34,-0.59,
0.63,-0.02,0.29,0.52,-0.52,-1.35,-0.59,
0.63,-0.02,0.29,0.52,-0.53,-1.36,-0.58,
0.63,-0.15,0.41,0.59,-0.53,-1.36,-0.58,
0.631,-0.15,0.41,0.59,-0.54,-1.39,-0.56,
0.631,-0.15,0.41,0.59,-0.54,-1.41,-0.55,
0.631,-0.15,0.41,0.59,-0.53,-1.46,-0.52,
0.632,-0.15,0.41,0.59,-0.53,-1.48,-0.52,
0.632,-0.15,0.41,0.59,-0.52,-1.52,-0.50,
0.632,-0.15,0.50,0.98,-0.52,-1.52,-0.50,
0.633,-0.15,0.50,0.98,-0.51,-1.57,-0.48,
0.634,-0.15,0.50,0.98,-0.49,-1.63,-0.46,
0.636,-0.15,0.50,0.98,-0.45,-1.73,-0.42,
0.637,-0.15,0.50,0.98,-0.44,-1.77,-0.41,
0.639,-0.15,0.50,0.98,-0.41,-1.85,-0.38,
0.675,-0.07,0.50,1.48,-0.41,-1.85,-0.38,
0.677,-0.07,0.50,1.48,-0.37,-1.94,-0.35,
0.678,-0.07,0.50,1.48,-0.33,-2.04,-0.32,
0.679,-0.07,0.50,1.48,-0.25,-2.18,-0.28,
0.679,-0.07,0.50,1.48,-0.20,-2.27,-0.25,
0.679,-0.07,0.50,1.48,-0.17,-2.32,-0.23,
0.68,0.12,0.35,1.91,-0.17,-2.32,-0.23,
0.68,0.12,0.35,1.91,-0.11,-2.40,-0.20,
0.68,0.12,0.35,1.91,-0.05,-2.47,-0.17,
0.681,0.12,0.35,1.91,0.04,-2.56,-0.12,
0.681,0.12,0.35,1.91,0.07,-2.58,-0.10,
0.681,0.12,0.35,1.91,0.13,-2.62,-0.07,
0.682,0.30,0.06,1.64,0.13,-2.62,-0.07,
0.683,0.30,0.06,1.64,0.18,-2.65,-0.03,
0.683,0.30,0.06,1.64,0.24,-2.67,0.00,
0.684,0.30,0.06,1.64,0.30,-2.68,0.06,
0.685,0.30,0.06,1.64,0.32,-2.68,0.08,
0.686,0.30,0.06,1.64,0.35,-2.67,0.12,
0.686,0.19,-0.32,0.77,0.35,-2.67,0.12,
0.687,0.19,-0.32,0.77,0.38,-2.65,0.16,
0.687,0.19,-0.32,0.77,0.40,-2.62,0.21,
0.687,0.19,-0.32,0.77,0.41,-2.56,0.27,
0.688,0.19,-0.32,0.77,0.41,-2.53,0.30,
0.688,0.19,-0.32,0.77,0.40,-2.48,0.34,
0.688,-0.28,-0.77,-0.28,0.40,-2.48,0.34,
0.689,-0.28,-0.77,-0.28,0.39,-2.43,0.39,
0.689,-0.28,-0.77,-0.28,0.37,-2.38,0.44,
0.69,-0.28,-0.77,-0.28,0.32,-2.30,0.51,
0.69,-0.28,-0.77,-0.28,0.30,-2.27,0.53,
0.691,-0.28,-0.77,-0.28,0.26,-2.21,0.57,
0.691,-0.67,-0.97,-0.92,0.26,-2.21,0.57,
0.692,-0.67,-0.97,-0.92,0.21,-2.15,0.61,
0.693,-0.67,-0.97,-0.92,0.16,-2.08,0.65,
0.696,-0.67,-0.97,-0.92,0.08,-1.98,0.71,
0.698,-0.67,-0.97,-0.92,0.05,-1.94,0.73,
0.729,-0.67,-0.97,-0.92,-0.00,-1.86,0.76,
0.729,-0.94,-0.89,-1.21,-0.00,-1.86,0.76,
0.729,-0.94,-0.89,-1.21,-0.06,-1.77,0.80,
0.73,-0.94,-0.89,-1.21,-0.10,-1.69,0.83,
0.73,-0.94,-0.89,-1.21,-0.16,-1.55,0.87,
0.73,-0.94,-0.89,-1.21,-0.18,-1.50,0.88,
0.73,-0.94,-0.89,-1.21,-0.22,-1.40,0.90,
0.731,-0.94,-0.57,-0.90,-0.22,-1.40,0.90,
0.731,-0.94,-0.57,-0.90,-0.25,-1.29,0.91,
0.731,-0.94,-0.57,-0.90,-0.28,-1.17,0.93,
0.732,-0.94,-0.57,-0.90,-0.31,-0.98,0.94,
0.732,-0.94,-0.57,-0.90,-0.32,-0.90,0.94,
0.732,-0.94,-0.57,-0.90,-0.34,-0.75,0.94,
0.732,-0.90,-0.34,-0.62,-0.34,-0.75,0.94,
0.733,-0.90,-0.34,-0.62,-0.35,-0.60,0.94,
0.733,-0.90,-0.34,-0.62,-0.36,-0.44,0.93,
0.733,-0.90,-0.34,-0.62,-0.38,-0.20,0.91,
0.734,-0.90,-0.34,-0.62,-0.38,-0.12,0.91,
0.734,-0.90,-0.34,-0.62,-0.39,0.04,0.89,
0.734,-0.75,-0.25,-0.57,-0.39,0.04,0.89,
0.734,-0.75,-0.25,-0.57,-0.39,0.19,0.87,
0.735,-0.75,-0.25,-0.57,-0.39,0.39,0.84,
0.74,-0.75,-0.25,-0.57,-0.38,0.51,0.81,
0.741,-0.75,-0.25,-0.57,-0.37,0.62,0.78,
0.741,-0.75,-0.25,-0.57,-0.37,0.67,0.77,
0.741,-0.68,-0.30,-0.57,-0.37,0.67,0.77,
0.742,-0.68,-0.30,-0.57,-0.35,0.77,0.74,
0.743,-0.68,-0.30,-0.57,-0.33,0.85,0.70,
0.746,-0.68,-0.30,-0.57,-0.29,0.95,0.65,
0.747,-0.68,-0.30,-0.57,-0.28,0.98,0.63,
0.749,-0.68,-0.30,-0.57,-0.24,1.03,0.58,
0.751,-0.59,-0.31,-0.22,-0.24,1.03,0.58,
0.751,-0.59,-0.31,-0.22,-0.21,1.07,0.54,
0.753,-0.59,-0.31,-0.22,-0.17,1.09,0.50,
0.756,-0.59,-0.31,-0.22,-0.10,1.09,0.43,
0.77,-0.59,-0.31,-0.22,-0.08,1.09,0.40,
0.771,-0.59,-0.31,-0.22,-0.01,1.02,0.36,
0.771,-0.53,-0.43,0.55,-0.01,1.02,0.36,
0.772,-0.53,-0.43,0.55,0.06,0.88,0.33,
0.772,-0.53,-0.43,0.55,0.14,0.73,0.30,
0.772,-0.53,-0.43,0.55,0.24,0.55,0.25,
0.772,-0.53,-0.43,0.55,0.27,0.51,0.23,
0.772,-0.53,-0.43,0.55,0.33,0.43,0.19,
0.773,-0.50,-0.53,1.09,0.33,0.43,0.19,
0.773,-0.50,-0.53,1.09,0.38,0.36,0.15,
0.773,-0.50,-0.53,1.09,0.43,0.30,0.10,
0.831,-0.50,-0.53,1.09,0.52,0.17,0.03,
0.832,-0.50,-0.53,1.09,0.55,0.12,0.01,
0.832,-0.50,-0.53,1.09,0.61,0.01,-0.03,
0.832,-0.76,-0.54,1.68,0.61,0.01,-0.03,
0.832,-0.76,-0.54,1.68,0.68,-0.09,-0.08,
0.832,-0.76,-0.54,1.68,0.75,-0.18,-0.13,
0.833,-0.76,-0.54,1.68,0.86,-0.30,-0.21,
0.833,-0.76,-0.54,1.68,0.89,-0.33,-0.24,
0.833,-0.76,-0.54,1.68,0.96,-0.39,-0.31,
0.833,-0.36,-0.42,2.30,0.96,-0.39,-0.31,
0.834,-0.36,-0.42,2.30,1.03,-0.44,-0.37,
0.834,-0.36,-0.42,2.30,1.09,-0.48,-0.44,
0.834,-0.36,-0.42,2.30,1.18,-0.55,-0.54,
0.834,-0.36,-0.42,2.30,1.21,-0.57,-0.57,
0.834,-0.36,-0.42,2.30,1.26,-0.61,-0.62,
0.834,0.16,-0.15,1.59,1.26,-0.61,-0.62,
0.835,0.16,-0.15,1.59,1.30,-0.66,-0.67,
0.835,0.16,-0.15,1.59,1.32,-0.70,-0.71,
0.835,0.16,-0.15,1.59,1.34,-0.76,-0.75,
0.835,0.16,-0.15,1.59,1.34,-0.78,-0.76,
0.835,0.16,-0.15,1.59,1.33,-0.82,-0.78,
0.836,-0.42,-0.14,0.07,1.33,-0.82,-0.78,
0.836,-0.42,-0.14,0.07,1.31,-0.86,-0.79,
0.836,-0.42,-0.14,0.07,1.28,-0.90,-0.79,
0.836,-0.42,-0.14,0.07,1.21,-0.97,-0.78,
0.836,-0.42,-0.14,0.07,1.19,-0.99,-0.78,
0.837,-0.42,-0.14,0.07,1.14,-1.03,-0.76,
0.837,-1.13,-0.27,-1.34,1.14,-1.03,-0.76,
0.837,-1.13,-0.27,-1.34,1.08,-1.08,-0.75,
0.837,-1.13,-0.27,-1.34,1.02,-1.13,-0.72,
0.837,-1.13,-0.27,-1.34,0.93,-1.21,-0.68,
0.838,-1.13,-0.27,-1.34,0.90,-1.24,-0.66,
0.838,-1.13,-0.27,-1.34,0.84,-1.29,-0.63,
0.838,-1.60,-0.12,-2.10,0.84,-1.29,-0.63,
0.838,-1.60,-0.12,-2.10,0.78,-1.34,-0.59,
0.838,-1.60,-0.12,-2.10,0.72,-1.38,-0.56,
0.839,-1.60,-0.12,-2.10,0.63,-1.42,-0.51,
0.839,-1.60,-0.12,-2.10,0.60,-1.43,-0.49,
0.839,-1.60,-0.12,-2.10,0.56,-1.44,-0.45,
0.843,-1.72,-0.38,-2.06,0.56,-1.44,-0.45,
0.844,-1.72,-0.38,-2.06,0.50,-1.44,-0.42,
0.844,-1.72,-0.38,-2.06,0.46,-1.42,-0.39,
0.847,-1.72,-0.38,-2.06,0.40,-1.36,-0.33,
0.848,-1.72,-0.38,-2.06,0.36,-1.31,-0.30,
0.849,-1.72,-0.38,-2.06,0.35,-1.28,-0.28,
0.854,-1.38,-0.42,-1.23,0.35,-1.28,-0.28,
0.856,-1.38,-0.42,-1.23,0.32,-1.22,-0.25,
0.856,-1.38,-0.42,-1.23,0.31,-1.14,-0.22,
0.857,-1.38,-0.42,-1.23,0.30,-1.03,-0.18,
0.857,-1.38,-0.42,-1.23,0.31,-0.99,-0.17,
0.871,-1.38,-0.42,-1.23,0.32,-0.91,-0.15,
0.872,-0.84,-0.37,0.26,0.32,-0.91,-0.15,
0.873,-0.84,-0.37,0.26,0.35,-0.84,-0.13,
0.873,-0.84,-0.37,0.26,0.38,-0.78,-0.12,
0.911,-0.84,-0.37,0.26,0.45,-0.71,-0.12,
0.911,-0.84,-0.37,0.26,0.48,-0.69,-0.12,
0.912,-0.84,-0.37,0.26,0.54,-0.66,-0.13,
0.912,0.15,0.07,1.81,0.54,-0.66,-0.13,
0.912,0.15,0.07,1.81,0.60,-0.63,-0.13,
0.913,0.15,0.07,1.81,0.66,-0.61,-0.14,
0.913,0.15,0.07,1.81,0.75,-0.58,-0.17,
0.913,0.15,0.07,1.81,0.81,-0.56,-0.19,
0.913,0.15,0.07,1.81,0.84,-0.54,-0.20,
0.914,0.65,0.07,2.08,0.84,-0.54,-0.20,
0.914,0.65,0.07,2.08,0.90,-0.50,-0.22,
0.914,0.65,0.07,2.08,0.95,-0.45,-0.24,
0.915,0.65,0.07,2.08,1.02,-0.36,-0.27,
0.915,0.65,0.07,2.08,1.04,-0.33,-0.28,
0.915,0.65,0.07,2.08,1.07,-0.25,-0.29,
0.915,0.41,-0.44,1.32,1.07,-0.25,-0.29,
0.916,0.41,-0.44,1.32,1.09,-0.17,-0.29,
0.916,0.41,-0.44,1.32,1.09,-0.06,-0.29,
0.916,0.41,-0.44,1.32,1.06,0.13,-0.27,
0.916,0.41,-0.44,1.32,1.03,0.20,-0.25,
0.917,0.41,-0.44,1.32,0.97,0.36,-0.22,
0.917,-0.66,-1.04,-0.22,0.97,0.36,-0.22,
0.918,-0.66,-1.04,-0.22,0.88,0.53,-0.16,
0.918,-0.66,-1.04,-0.22,0.79,0.67,-0.10,
0.918,-0.66,-1.04,-0.22,0.72,0.73,-0.02,
0.919,-0.66,-1.04,-0.22,0.71,0.71,-0.00,
0.919,-0.66,-1.04,-0.22,0.71,0.67,0.03,
0.919,-1.18,-1.03,0.02,0.71,0.67,0.03,
0.919,-1.18,-1.03,0.02,0.73,0.62,0.05,
0.919,-1.18,-1.03,0.02,0.74,0.58,0.07,
0.92,-1.18,-1.03,0.02,0.75,0.54,0.09,
0.92,-1.18,-1.03,0.02,0.75,0.53,0.09,
0.92,-1.18,-1.03,0.02,0.76,0.50,0.10,
0.94,-0.61,-0.52,0.25,0.76,0.50,0.10,
0.941,-0.61,-0.52,0.25,0.76,0.48,0.11,
0.941,-0.61,-0.52,0.25,0.76,0.46,0.11,
0.941,-0.61,-0.52,0.25,0.77,0.42,0.11,
0.941,-0.61,-0.52,0.25,0.77,0.40,0.11,
0.942,-0.61,-0.52,0.25,0.78,0.37,0.11,
0.942,0.28,0.37,-0.21,0.78,0.37,0.11,
0.942,0.28,0.37,-0.21,0.80,0.34,0.10,
0.942,0.28,0.37,-0.21,0.81,0.31,0.09,
0.942,0.28,0.37,-0.21,0.84,0.28,0.07,
0.943,0.28,0.37,-0.21,0.85,0.28,0.06,
0.943,0.28,0.37,-0.21,0.86,0.27,0.05,
0.943,0.78,0.66,-0.41,0.86,0.27,0.05,
0.943,0.78,0.66,-0.41,0.87,0.27,0.04,
0.944,0.78,0.66,-0.41,0.87,0.27,0.02,
0.946,0.78,0.66,-0.41,0.88,0.28,0.01,
0.947,0.78,0.66,-0.41,0.88,0.29,-0.01,
0.949,0.78,0.66,-0.41,0.88,0.29,-0.01,
0.951,0.91,0.47,-0.71,0.88,0.29,-0.01,
0.951,0.91,0.47,-0.71,0.87,0.29,-0.02,
0.953,0.91,0.47,-0.71,0.87,0.29,-0.02,
0.958,0.91,0.47,-0.71,0.85,0.28,-0.03,
0.963,0.91,0.47,-0.71,0.85,0.27,-0.03,
0.963,0.91,0.47,-0.71,0.83,0.26,-0.03,
0.964,0.85,0.49,-0.72,0.83,0.26,-0.03,
0.964,0.85,0.49,-0.72,0.82,0.25,-0.03,
0.965,0.85,0.49,-0.72,0.80,0.24,-0.03,
0.966,0.85,0.49,-0.72,0.78,0.21,-0.02,
0.968,0.85,0.49,-0.72,0.77,0.20,-0.02,
0.969,0.85,0.49,-0.72,0.76,0.18,-0.01,
0.971,0.72,0.57,-0.53,0.76,0.18,-0.01,
0.973,0.72,0.57,-0.53,0.75,0.17,0.00,
0.973,0.72,0.57,-0.53,0.74,0.15,0.01,
0.976,0.72,0.57,-0.53,0.74,0.14,0.04,
0.979,0.72,0.57,-0.53,0.74,0.13,0.04,
0.981,0.72,0.57,-0.53,0.74,0.12,0.06,
0.981,0.51,0.84,-0.30,0.74,0.12,0.06,
0.982,0.51,0.84,-0.30,0.74,0.11,0.08,
0.986,0.51,0.84,-0.30,0.74,0.09,0.09,
0.987,0.51,0.84,-0.30,0.75,0.06,0.11,
0.987,0.51,0.84,-0.30,0.76,0.04,0.12,
1.01,0.51,0.84,-0.30,0.77,0.03,0.12,
1.011,0.55,0.99,0.12,0.77,0.03,0.12,
1.011,0.55,0.99,0.12,0.78,0.00,0.13,
1.011,0.55,0.99,0.12,0.80,-0.02,0.13,
1.011,0.55,0.99,0.12,0.82,-0.06,0.14,
1.011,0.55,0.99,0.12,0.84,-0.08,0.13,
1.011,0.55,0.99,0.12,0.85,-0.09,0.13,
1.012,0.74,0.93,0.40,0.85,-0.09,0.13,
1.012,0.74,0.93,0.40,0.87,-0.10,0.12,
1.012,0.74,0.93,0.40,0.92,-0.14,0.09,
1.012,0.74,0.93,0.40,0.92,-0.14,0.09,
1.012,0.74,0.93,0.40,0.92,-0.14,0.09,
1.013,0.74,0.93,0.40,0.94,-0.14,0.07,
1.013,0.76,0.84,0.44,0.94,-0.14,0.07,
1.013,0.76,0.84,0.44,0.95,-0.14,0.06,
1.013,0.76,0.84,0.44,0.96,-0.14,0.05,
1.016,0.76,0.84,0.44,0.98,-0.12,0.04,
1.017,0.76,0.84,0.44,0.98,-0.10,0.03,
1.021,0.76,0.84,0.44,0.98,-0.09,0.03,
1.072,0.62,0.80,0.14,0.98,-0.09,0.03,
1.073,0.62,0.80,0.14,0.97,-0.07,0.03,
1.073,0.62,0.80,0.14,0.97,-0.04,0.03,
1.074,0.62,0.80,0.14,0.95,-0.01,0.03,
1.074,0.62,0.80,0.14,0.94,0.02,0.03,
1.074,0.62,0.80,0.14,0.93,0.03,0.03,
1.074,0.61,0.83,-0.26,0.93,0.03,0.03,
1.094,0.61,0.83,-0.26,0.91,0.06,0.03,
1.094,0.61,0.83,-0.26,0.89,0.09,0.03,
1.094,0.61,0.83,-0.26,0.85,0.14,0.04,
1.094,0.61,0.83,-0.26,0.82,0.17,0.04,
1.095,0.61,0.83,-0.26,0.80,0.19,0.04,
1.095,0.74,0.83,-0.70,0.80,0.19,0.04,
1.095,0.74,0.83,-0.70,0.77,0.22,0.03,
1.096,0.74,0.83,-0.70,0.73,0.25,0.03,
1.096,0.74,0.83,-0.70,0.67,0.30,0.01,
1.096,0.74,0.83,-0.70,0.63,0.33,0.00,
1.096,0.74,0.83,-0.70,0.61,0.34,-0.00,
1.097,0.90,0.77,-1.17,0.61,0.34,-0.00,
1.097,0.90,0.77,-1.17,0.57,0.38,-0.02,
1.097,0.90,0.77,-1.17,0.53,0.40,-0.03,
1.097,0.90,0.77,-1.17,0.46,0.45,-0.05,
1.098,0.90,0.77,-1.17,0.42,0.47,-0.06,
1.098,0.90,0.77,-1.17,0.39,0.48,-0.07,
1.098,0.69,0.77,-1.51,0.39,0.48,-0.07,
1.099,0.69,0.77,-1.51,0.35,0.50,-0.08,
1.099,0.69,0.77,-1.51,0.31,0.51,-0.08,
1.099,0.69,0.77,-1.51,0.25,0.53,-0.09,
1.099,0.69,0.77,-1.51,0.21,0.52,-0.09,
1.1,0.69,0.77,-1.51,0.19,0.52,-0.09,
1.1,0.11,0.53,-1.33,0.19,0.52,-0.09,
1.1,0.11,0.53,-1.33,0.16,0.52,-0.09,
1.1,0.11,0.53,-1.33,0.13,0.52,-0.09,
1.101,0.11,0.53,-1.33,0.09,0.54,-0.10,
1.101,0.11,0.53,-1.33,0.06,0.54,-0.11,
1.101,0.11,0.53,-1.33,0.05,0.54,-0.11,
1.102,0.10,0.36,-0.98,0.05,0.54,-0.11,
1.102,0.10,0.36,-0.98,0.03,0.53,-0.12,
1.102,0.10,0.36,-0.98,0.02,0.52,-0.13,
1.102,0.10,0.36,-0.98,0.01,0.50,-0.13,
1.103,0.10,0.36,-0.98,0.01,0.49,-0.13,
1.103,0.10,0.36,-0.98,0.01,0.48,-0.13,
1.103,0.04,0.32,-0.51,0.01,0.48,-0.13,
1.104,0.04,0.32,-0.51,0.01,0.46,-0.13,
1.104,0.04,0.32,-0.51,0.01,0.44,-0.13,
1.104,0.04,0.32,-0.51,0.02,0.41,-0.14,
1.104,0.04,0.32,-0.51,0.03,0.39,-0.14,
1.105,0.04,0.32,-0.51,0.03,0.39,-0.14,
1.105,0.08,0.19,-0.25,0.03,0.39,-0.14,
1.105,0.08,0.19,-0.25,0.03,0.37,-0.15,
1.105,0.08,0.19,-0.25,0.04,0.36,-0.16,
1.106,0.08,0.19,-0.25,0.04,0.35,-0.17,
1.108,0.08,0.19,-0.25,0.05,0.34,-0.17,
1.108,0.08,0.19,-0.25,0.05,0.34,-0.18,
1.11,0.08,0.12,-0.18,0.05,0.34,-0.18,
1.111,0.08,0.12,-0.18,0.05,0.34,-0.18,
1.112,0.08,0.12,-0.18,0.05,0.33,-0.19,
1.116,0.08,0.12,-0.18,0.05,0.33,-0.20,
1.117,0.08,0.12,-0.18,0.06,0.34,-0.20,
1.118,0.08,0.12,-0.18,0.06,0.34,-0.20,
1.12,-0.10,0.31,-0.09,0.06,0.34,-0.20,
1.121,-0.10,0.31,-0.09,0.06,0.34,-0.20,
1.128,-0.10,0.31,-0.09,0.06,0.34,-0.20,
1.128,-0.10,0.31,-0.09,0.06,0.33,-0.20,
1.128,-0.10,0.31,-0.09,0.05,0.32,-0.19,
1.131,-0.10,0.31,-0.09,0.05,0.32,-0.19,
1.132,-0.43,-0.05,-0.45,0.05,0.32,-0.19,
1.132,-0.43,-0.05,-0.45,0.04,0.32,-0.18,
1.133,-0.43,-0.05,-0.45,0.03,0.32,-0.18,
1.179,-0.43,-0.05,-0.45,0.02,0.31,-0.17,
1.18,-0.43,-0.05,-0.45,0.02,0.31,-0.16,
1.18,-0.43,-0.05,-0.45,0.01,0.31,-0.15,
1.181,-0.88,-0.22,-0.52,0.01,0.31,-0.15,
1.181,-0.88,-0.22,-0.52,0.01,0.30,-0.13,
1.181,-0.88,-0.22,-0.52,0.00,0.29,-0.12,
1.181,-0.88,-0.22,-0.52,-0.00,0.27,-0.09,
1.181,-0.88,-0.22,-0.52,-0.01,0.25,-0.08,
1.181,-0.88,-0.22,-0.52,-0.01,0.24,-0.07,
1.182,-1.16,-0.24,-0.62,-0.01,0.24,-0.07,
1.182,-1.16,-0.24,-0.62,-0.01,0.23,-0.05,
1.182,-1.16,-0.24,-0.62,-0.02,0.21,-0.04,
1.182,-1.16,-0.24,-0.62,-0.03,0.17,-0.03,
1.182,-1.16,-0.24,-0.62,-0.04,0.14,-0.01,
1.182,-1.16,-0.24,-0.62,-0.04,0.13,-0.01,
1.183,-1.02,-0.14,-0.75,-0.04,0.13,-0.01,
1.183,-1.02,-0.14,-0.75,-0.05,0.10,-0.01,
1.183,-1.02,-0.14,-0.75,-0.06,0.07,-0.00,
1.183,-1.02,-0.14,-0.75,-0.07,0.03,-0.00,
1.183,-1.02,-0.14,-0.75,-0.08,0.01,-0.01,
1.183,-1.02,-0.14,-0.75,-0.09,-0.01,-0.01,
1.183,-0.64,-0.02,-0.72,-0.09,-0.01,-0.01,
1.184,-0.64,-0.02,-0.72,-0.09,-0.03,-0.01,
1.184,-0.64,-0.02,-0.72,-0.10,-0.06,-0.02,
1.184,-0.64,-0.02,-0.72,-0.11,-0.09,-0.03,
1.184,-0.64,-0.02,-0.72,-0.12,-0.11,-0.03,
1.184,-0.64,-0.02,-0.72,-0.12,-0.12,-0.04,
1.184,-0.44,0.04,-0.54,-0.12,-0.12,-0.04,
1.185,-0.44,0.04,-0.54,-0.13,-0.14,-0.04,
1.185,-0.44,0.04,-0.54,-0.13,-0.15,-0.05,
1.186,-0.44,0.04,-0.54,-0.13,-0.16,-0.06,
1.187,-0.44,0.04,-0.54,-0.13,-0.17,-0.06,
1.191,-0.44,0.04,-0.54,-0.13,-0.18,-0.06,
1.193,-0.43,-0.01,-0.16,-0.13,-0.18,-0.06,
1.193,-0.43,-0.01,-0.16,-0.13,-0.18,-0.06,
1.194,-0.43,-0.01,-0.16,-0.12,-0.18,-0.06,
1.196,-0.43,-0.01,-0.16,-0.12,-0.19,-0.05,
1.197,-0.43,-0.01,-0.16,-0.11,-0.18,-0.04,
1.227,-0.43,-0.01,-0.16,-0.10,-0.18,-0.04,
1.227,-0.50,-0.13,0.22,-0.10,-0.18,-0.04,
1.228,-0.50,-0.13,0.22,-0.10,-0.18,-0.03,
1.228,-0.50,-0.13,0.22,-0.09,-0.18,-0.03,
1.229,-0.50,-0.13,0.22,-0.07,-0.17,-0.01,
1.229,-0.50,-0.13,0.22,-0.06,-0.16,-0.00,
1.23,-0.50,-0.13,0.22,-0.06,-0.16,0.00,
1.23,-0.59,-0.24,0.42,-0.06,-0.16,0.00,
1.23,-0.59,-0.24,0.42,-0.05,-0.16,0.01,
1.231,-0.59,-0.24,0.42,-0.04,-0.16,0.01,
1.231,-0.59,-0.24,0.42,-0.02,-0.15,0.02,
1.232,-0.59,-0.24,0.42,-0.02,-0.15,0.03,
1.232,-0.59,-0.24,0.42,-0.01,-0.15,0.03,
1.233,-0.57,-0.28,0.39,-0.01,-0.15,0.03,
1.233,-0.57,-0.28,0.39,-0.01,-0.15,0.04,
1.234,-0.57,-0.28,0.39,-0.00,-0.15,0.04,
1.234,-0.57,-0.28,0.39,0.01,-0.15,0.05,
1.234,-0.57,-0.28,0.39,0.01,-0.15,0.05,
1.235,-0.57,-0.28,0.39,0.01,-0.15,0.05,
1.235,-0.49,-0.25,0.20,0.01,-0.15,0.05,
1.236,-0.49,-0.25,0.20,0.01,-0.15,0.06,
1.236,-0.49,-0.25,0.20,0.02,-0.15,0.06,
1.237,-0.49,-0.25,0.20,0.01,-0.15,0.06,
1.237,-0.49,-0.25,0.20,0.01,-0.15,0.05,
1.24,-0.49,-0.25,0.20,0.01,-0.15,0.05,
1.241,-0.29,-0.23,-0.05,0.01,-0.15,0.05,
1.241,-0.29,-0.23,-0.05,-0.00,-0.15,0.04,
1.243,-0.29,-0.23,-0.05,-0.01,-0.15,0.03,
1.246,-0.29,-0.23,-0.05,-0.01,-0.15,0.02,
1.247,-0.29,-0.23,-0.05,-0.02,-0.15,0.01,
1.249,-0.29,-0.23,-0.05,-0.03,-0.15,0.00,
1.251,0.09,-0.15,-0.13,-0.03,-0.15,0.00,
1.252,0.09,-0.15,-0.13,-0.03,-0.15,-0.01,
1.253,0.09,-0.15,-0.13,-0.04,-0.15,-0.01,
1.256,0.09,-0.15,-0.13,-0.05,-0.14,-0.02,
1.257,0.09,-0.15,-0.13,-0.05,-0.14,-0.03,
1.259,0.09,-0.15,-0.13,-0.05,-0.12,-0.04,
1.262,0.14,-0.11,0.05,-0.05,-0.12,-0.04,
1.263,0.14,-0.11,0.05,-0.06,-0.11,-0.04,
1.263,0.14,-0.11,0.05,-0.06,-0.09,-0.05,
1.266,0.14,-0.11,0.05,-0.06,-0.08,-0.05,
1.267,0.14,-0.11,0.05,-0.06,-0.06,-0.06,
1.269,0.14,-0.11,0.05,-0.06,-0.05,-0.06,
1.287,0.06,-0.21,0.22,-0.06,-0.05,-0.06,
1.288,0.06,-0.21,0.22,-0.06,-0.03,-0.06,
1.288,0.06,-0.21,0.22,-0.06,-0.02,-0.05,
1.288,0.06,-0.21,0.22,-0.06,-0.00,-0.05,
1.289,0.06,-0.21,0.22,-0.06,0.01,-0.05,
1.289,0.06,-0.21,0.22,-0.06,0.02,-0.05,
1.29,0.00,-0.29,0.42,-0.06,0.02,-0.05,
1.29,0.00,-0.29,0.42,-0.06,0.04,-0.04,
1.29,0.00,-0.29,0.42,-0.06,0.06,-0.04,
1.291,0.00,-0.29,0.42,-0.05,0.07,-0.03,
1.291,0.00,-0.29,0.42,-0.05,0.09,-0.03,
1.291,0.00,-0.29,0.42,-0.05,0.10,-0.03,
1.291,-0.04,-0.27,0.57,-0.05,0.10,-0.03,
1.292,-0.04,-0.27,0.57,-0.04,0.12,-0.02,
1.298,-0.04,-0.27,0.57,-0.04,0.15,-0.02,
1.299,-0.04,-0.27,0.57,-0.03,0.18,-0.01,
1.299,-0.04,-0.27,0.57,-0.03,0.19,-0.00,
1.3,-0.04,-0.27,0.57,-0.02,0.20,0.00,
1.301,-0.03,-0.26,0.62,-0.02,0.20,0.00,
1.302,-0.03,-0.26,0.62,-0.02,0.22,0.01,
1.303,-0.03,-0.26,0.62,-0.02,0.23,0.01,
1.349,-0.03,-0.26,0.62,-0.01,0.25,0.01,
1.35,-0.03,-0.26,0.62,-0.01,0.26,0.01,
1.351,-0.03,-0.26,0.62,-0.00,0.26,0.01,
1.351,0.14,-0.24,0.68,-0.00,0.26,0.01,
1.351,0.14,-0.24,0.68,0.00,0.27,0.01,
1.352,0.14,-0.24,0.68,0.01,0.28,0.01,
1.352,0.14,-0.24,0.68,0.02,0.28,0.01,
1.352,0.14,-0.24,0.68,0.03,0.29,0.01,
1.353,0.14,-0.24,0.68,0.04,0.29,0.01,
1.353,0.29,-0.23,0.71,0.04,0.29,0.01,
1.353,0.29,-0.23,0.71,0.05,0.30,0.01,
1.354,0.29,-0.23,0.71,0.06,0.31,0.00,
1.354,0.29,-0.23,0.71,0.07,0.31,0.00,
1.354,0.29,-0.23,0.71,0.08,0.31,-0.00,
1.354,0.29,-0.23,0.71,0.09,0.31,-0.01,
1.355,0.50,-0.28,0.59,0.09,0.31,-0.01,
1.355,0.50,-0.28,0.59,0.10,0.31,-0.03,
1.355,0.50,-0.28,0.59,0.11,0.31,-0.05,
1.356,0.50,-0.28,0.59,0.12,0.31,-0.06,
1.356,0.50,-0.28,0.59,0.14,0.30,-0.08,
1.356,0.50,-0.28,0.59,0.15,0.30,-0.09,
1.357,0.84,-0.36,0.40,0.15,0.30,-0.09,
1.357,0.84,-0.36,0.40,0.16,0.29,-0.11,
1.357,0.84,-0.36,0.40,0.17,0.28,-0.12,
1.358,0.84,-0.36,0.40,0.19,0.26,-0.12,
1.358,0.84,-0.36,0.40,0.19,0.25,-0.13,
1.358,0.84,-0.36,0.40,0.19,0.23,-0.13,
1.358,0.40,0.06,0.18,0.19,0.23,-0.13,
1.359,0.40,0.06,0.18,0.20,0.20,-0.13,
1.359,0.40,0.06,0.18,0.20,0.17,-0.13,
1.359,0.40,0.06,0.18,0.20,0.14,-0.12,
1.36,0.40,0.06,0.18,0.20,0.11,-0.13,
1.36,0.40,0.06,0.18,0.20,0.09,-0.12,
1.365,0.16,0.22,-0.15,0.20,0.09,-0.12,
1.367,0.16,0.22,-0.15,0.20,0.06,-0.13,
1.368,0.16,0.22,-0.15,0.20,0.04,-0.13,
1.408,0.16,0.22,-0.15,0.19,0.02,-0.13,
1.408,0.16,0.22,-0.15,0.18,-0.00,-0.13,
1.409,0.16,0.22,-0.15,0.18,-0.02,-0.13,
1.409,0.05,0.15,-0.51,0.18,-0.02,-0.13,
1.41,0.05,0.15,-0.51,0.17,-0.03,-0.13,
1.41,0.05,0.15,-0.51,0.16,-0.04,-0.13,
1.41,0.05,0.15,-0.51,0.15,-0.05,-0.13,
1.411,0.05,0.15,-0.51,0.14,-0.06,-0.12,
1.411,0.05,0.15,-0.51,0.13,-0.07,-0.12,
1.412,-0.03,0.18,-0.65,0.13,-0.07,-0.12,
1.412,-0.03,0.18,-0.65,0.12,-0.07,-0.12,
1.413,-0.03,0.18,-0.65,0.11,-0.08,-0.11,
1.413,-0.03,0.18,-0.65,0.11,-0.09,-0.11,
1.413,-0.03,0.18,-0.65,0.10,-0.09,-0.11,
1.414,-0.03,0.18,-0.65,0.08,-0.10,-0.10,
1.414,-0.06,0.27,-0.60,0.08,-0.10,-0.10,
1.415,-0.06,0.27,-0.60,0.07,-0.11,-0.10,
1.415,-0.06,0.27,-0.60,0.07,-0.12,-0.09,
1.416,-0.06,0.27,-0.60,0.06,-0.13,-0.09,
1.416,-0.06,0.27,-0.60,0.05,-0.13,-0.09,
1.416,-0.06,0.27,-0.60,0.05,-0.14,-0.08,
1.417,-0.10,0.25,-0.42,0.05,-0.14,-0.08,
1.417,-0.10,0.25,-0.42,0.04,-0.14,-0.08,
1.418,-0.10,0.25,-0.42,0.04,-0.15,-0.07,
1.418,-0.10,0.25,-0.42,0.04,-0.16,-0.07,
1.419,-0.10,0.25,-0.42,0.04,-0.16,-0.06,
1.419,-0.10,0.25,-0.42,0.03,-0.17,-0.06,
1.419,-0.13,0.12,-0.19,0.03,-0.17,-0.06,
1.42,-0.13,0.12,-0.19,0.03,-0.17,-0.05,
1.42,-0.13,0.12,-0.19,0.03,-0.18,-0.05,
1.421,-0.13,0.12,-0.19,0.03,-0.18,-0.04,
1.421,-0.13,0.12,-0.19,0.04,-0.19,-0.04,
1.422,-0.13,0.12,-0.19,0.04,-0.20,-0.04,
1.422,-0.10,0.09,0.00,0.04,-0.20,-0.04,
1.422,-0.10,0.09,0.00,0.04,-0.20,-0.04,
1.423,-0.10,0.09,0.00,0.05,-0.21,-0.03,
1.426,-0.10,0.09,0.00,0.05,-0.22,-0.03,
1.426,-0.10,0.09,0.00,0.05,-0.22,-0.03,
1.429,-0.10,0.09,0.00,0.06,-0.23,-0.04,
1.431,0.11,0.12,0.06,0.06,-0.23,-0.04,
1.431,0.11,0.12,0.06,0.06,-0.23,-0.04,
1.436,0.11,0.12,0.06,0.06,-0.24,-0.05,
1.437,0.11,0.12,0.06,0.06,-0.25,-0.05,
1.437,0.11,0.12,0.06,0.06,-0.25,-0.05,
1.447,0.11,0.12,0.06,0.06,-0.25,-0.06,
1.449,0.33,0.10,0.02,0.06,-0.25,-0.06,
1.449,0.33,0.10,0.02,0.06,-0.26,-0.07,
1.45,0.33,0.10,0.02,0.06,-0.26,-0.08,
1.451,0.33,0.10,0.02,0.06,-0.26,-0.09,
1.457,0.33,0.10,0.02,0.06,-0.26,-0.10,
1.458,0.33,0.10,0.02,0.06,-0.26,-0.10,
1.458,0.36,0.13,0.02,0.06,-0.26,-0.10,
1.458,0.36,0.13,0.02,0.05,-0.25,-0.11,
1.459,0.36,0.13,0.02,0.05,-0.25,-0.11,
1.459,0.36,0.13,0.02,0.05,-0.24,-0.12,
1.459,0.36,0.13,0.02,0.05,-0.24,-0.12,
1.46,0.36,0.13,0.02,0.04,-0.23,-0.12,
1.506,0.21,0.16,-0.08,0.04,-0.23,-0.12,
1.507,0.21,0.16,-0.08,0.04,-0.23,-0.13,
1.507,0.21,0.16,-0.08,0.03,-0.22,-0.13,
1.507,0.21,0.16,-0.08,0.03,-0.22,-0.13,
1.507,0.21,0.16,-0.08,0.02,-0.21,-0.13,
1.508,0.21,0.16,-0.08,0.02,-0.21,-0.13,
1.508,0.07,0.10,-0.16,0.02,-0.21,-0.13,
1.508,0.07,0.10,-0.16,0.01,-0.21,-0.14,
1.509,0.07,0.10,-0.16,0.00,-0.20,-0.14,
1.509,0.07,0.10,-0.16,-0.00,-0.20,-0.14,
1.509,0.07,0.10,-0.16,-0.01,-0.19,-0.14,
1.51,0.07,0.10,-0.16,-0.01,-0.18,-0.14,
1.51,-0.00,0.02,-0.13,-0.01,-0.18,-0.14,
1.51,-0.00,0.02,-0.13,-0.01,-0.18,-0.14,
1.511,-0.00,0.02,-0.13,-0.01,-0.17,-0.14,
1.511,-0.00,0.02,-0.13,-0.02,-0.16,-0.14,
1.511,-0.00,0.02,-0.13,-0.02,-0.16,-0.14,
1.511,-0.00,0.02,-0.13,-0.02,-0.15,-0.14,
1.512,-0.19,0.00,-0.00,-0.02,-0.15,-0.14,
1.512,-0.19,0.00,-0.00,-0.02,-0.15,-0.14,
1.512,-0.19,0.00,-0.00,-0.02,-0.14,-0.13,
1.513,-0.19,0.00,-0.00,-0.03,-0.14,-0.13,
1.513,-0.19,0.00,-0.00,-0.03,-0.14,-0.13,
1.513,-0.19,0.00,-0.00,-0.03,-0.14,-0.13,
1.514,-0.21,-0.04,0.04,-0.03,-0.14,-0.13,
1.514,-0.21,-0.04,0.04,-0.03,-0.14,-0.13,
1.514,-0.21,-0.04,0.04,-0.04,-0.14,-0.12,
1.514,-0.21,-0.04,0.04,-0.04,-0.14,-0.12,
1.515,-0.21,-0.04,0.04,-0.04,-0.14,-0.12,
1.515,-0.21,-0.04,0.04,-0.04,-0.13,-0.12,
1.515,-0.18,-0.11,0.00,-0.04,-0.13,-0.12,
1.516,-0.18,-0.11,0.00,-0.05,-0.13,-0.12,
1.516,-0.18,-0.11,0.00,-0.05,-0.12,-0.12,
1.516,-0.18,-0.11,0.00,-0.06,-0.11,-0.12,
1.517,-0.18,-0.11,0.00,-0.06,-0.10,-0.11,
1.518,-0.18,-0.11,0.00,-0.06,-0.09,-0.11,
1.522,-0.24,-0.19,0.00,-0.06,-0.09,-0.11,
1.522,-0.24,-0.19,0.00,-0.06,-0.08,-0.11,
1.523,-0.24,-0.19,0.00,-0.06,-0.08,-0.11,
1.528,-0.24,-0.19,0.00,-0.07,-0.06,-0.10,
1.529,-0.24,-0.19,0.00,-0.07,-0.06,-0.10,
1.529,-0.24,-0.19,0.00,-0.07,-0.05,-0.10,
1.531,-0.24,-0.22,0.06,-0.07,-0.05,-0.10,
1.566,-0.24,-0.22,0.06,-0.07,-0.04,-0.10,
1.566,-0.24,-0.22,0.06,-0.08,-0.04,-0.10,
1.567,-0.24,-0.22,0.06,-0.08,-0.03,-0.09,
1.567,-0.24,-0.22,0.06,-0.08,-0.02,-0.09,
1.568,-0.24,-0.22,0.06,-0.08,-0.01,-0.09,
1.568,-0.25,-0.21,0.11,-0.08,-0.01,-0.09,
1.569,-0.25,-0.21,0.11,-0.08,-0.00,-0.09,
1.569,-0.25,-0.21,0.11,-0.08,0.00,-0.09,
1.57,-0.25,-0.21,0.11,-0.08,0.01,-0.08,
1.571,-0.25,-0.21,0.11,-0.07,0.02,-0.08,
1.571,-0.25,-0.21,0.11,-0.07,0.02,-0.08,
1.572,-0.27,-0.19,0.22,-0.07,0.02,-0.08,
1.572,-0.27,-0.19,0.22,-0.07,0.03,-0.08,
1.573,-0.27,-0.19,0.22,-0.06,0.03,-0.08,
1.573,-0.27,-0.19,0.22,-0.06,0.03,-0.08,
1.574,-0.27,-0.19,0.22,-0.05,0.03,-0.08,
1.575,-0.27,-0.19,0.22,-0.05,0.03,-0.08,
1.575,-0.24,-0.20,0.31,-0.05,0.03,-0.08,
1.576,-0.24,-0.20,0.31,-0.04,0.03,-0.08,
1.577,-0.24,-0.20,0.31,-0.04,0.02,-0.08,
1.577,-0.24,-0.20,0.31,-0.03,0.02,-0.08,
1.578,-0.24,-0.20,0.31,-0.03,0.02,-0.08,
1.578,-0.24,-0.20,0.31,-0.02,0.02,-0.07,
1.579,-0.24,-0.20,0.27,-0.02,0.02,-0.07,
1.579,-0.24,-0.20,0.27,-0.02,0.02,-0.07,
1.58,-0.24,-0.20,0.27,-0.02,0.02,-0.07,
1.58,-0.24,-0.20,0.27,-0.02,0.01,-0.07,
1.581,-0.24,-0.20,0.27,-0.02,0.01,-0.07,
1.581,-0.24,-0.20,0.27,-0.02,0.01,-0.07,
1.582,-0.25,-0.19,0.18,-0.02,0.01,-0.07,
1.582,-0.25,-0.19,0.18,-0.02,0.00,-0.07,
1.599,-0.25,-0.19,0.18,-0.02,-0.00,-0.07,
1.6,-0.25,-0.19,0.18,-0.02,-0.00,-0.06,
1.601,-0.25,-0.19,0.18,-0.02,-0.00,-0.06,
1.601,-0.25,-0.19,0.18,-0.03,0.00,-0.06,
1.601,-0.26,-0.18,0.08,-0.03,0.00,-0.06,
1.602,-0.26,-0.18,0.08,-0.03,0.00,-0.06,
1.602,-0.26,-0.18,0.08,-0.03,0.01,-0.06,
1.602,-0.26,-0.18,0.08,-0.04,0.02,-0.05,
1.603,-0.26,-0.18,0.08,-0.04,0.02,-0.05,
1.603,-0.26,-0.18,0.08,-0.05,0.03,-0.05,
1.611,-0.35,-0.18,-0.02,-0.05,0.03,-0.05,
1.612,-0.35,-0.18,-0.02,-0.05,0.04,-0.04,
1.614,-0.35,-0.18,-0.02,-0.06,0.06,-0.04,
1.614,-0.35,-0.18,-0.02,-0.08,0.07,-0.03,
1.615,-0.35,-0.18,-0.02,-0.08,0.08,-0.03,
1.615,-0.35,-0.18,-0.02,-0.09,0.09,-0.02,
1.615,-0.40,-0.17,-0.15,-0.09,0.09,-0.02,
1.616,-0.40,-0.17,-0.15,-0.09,0.10,-0.01,
1.616,-0.40,-0.17,-0.15,-0.10,0.11,-0.00,
1.616,-0.40,-0.17,-0.15,-0.11,0.12,0.01,
1.617,-0.40,-0.17,-0.15,-0.11,0.12,0.01,
1.619,-0.40,-0.17,-0.15,-0.12,0.13,0.01,
1.654,-0.43,-0.17,-0.13,-0.12,0.13,0.01,
1.656,-0.43,-0.17,-0.13,-0.12,0.14,0.02,
1.657,-0.43,-0.17,-0.13,-0.13,0.14,0.03,
1.658,-0.43,-0.17,-0.13,-0.13,0.15,0.04,
1.659,-0.43,-0.17,-0.13,-0.13,0.15,0.04,
1.66,-0.43,-0.17,-0.13,-0.13,0.15,0.05,
1.661,-0.40,-0.14,-0.02,-0.13,0.15,0.05,
1.663,-0.40,-0.14,-0.02,-0.13,0.16,0.05,
1.663,-0.40,-0.14,-0.02,-0.13,0.15,0.06,
1.664,-0.40,-0.14,-0.02,-0.13,0.15,0.06,
1.664,-0.40,-0.14,-0.02,-0.12,0.15,0.06,
1.664,-0.40,-0.14,-0.02,-0.12,0.14,0.06,
1.665,-0.22,-0.09,0.22,-0.12,0.14,0.06,
1.665,-0.22,-0.09,0.22,-0.11,0.14,0.07,
1.665,-0.22,-0.09,0.22,-0.10,0.14,0.07,
1.666,-0.22,-0.09,0.22,-0.09,0.13,0.06,
1.666,-0.22,-0.09,0.22,-0.08,0.13,0.06,
1.666,-0.22,-0.09,0.22,-0.07,0.12,0.06,
1.667,-0.04,-0.05,0.37,-0.07,0.12,0.06,
1.667,-0.04,-0.05,0.37,-0.06,0.12,0.06,
1.668,-0.04,-0.05,0.37,-0.05,0.11,0.06,
1.668,-0.04,-0.05,0.37,-0.03,0.10,0.06,
1.668,-0.04,-0.05,0.37,-0.02,0.10,0.06,
1.669,-0.04,-0.05,0.37,-0.01,0.09,0.05,
1.669,0.14,-0.04,0.47,-0.01,0.09,0.05,
1.67,0.14,-0.04,0.47,0.01,0.08,0.04,
1.67,0.14,-0.04,0.47,0.02,0.07,0.04,
1.671,0.14,-0.04,0.47,0.04,0.04,0.03,
1.671,0.14,-0.04,0.47,0.05,0.04,0.03,
1.671,0.14,-0.04,0.47,0.06,0.03,0.02,
1.672,0.26,0.03,0.45,0.06,0.03,0.02,
1.672,0.26,0.03,0.45,0.08,0.01,0.02,
1.675,0.26,0.03,0.45,0.09,0.00,0.01,
1.678,0.26,0.03,0.45,0.10,-0.02,0.01,
1.679,0.26,0.03,0.45,0.10,-0.03,0.00,
1.679,0.26,0.03,0.45,0.11,-0.04,0.00,
1.681,0.21,0.10,0.23,0.11,-0.04,0.00,
1.682,0.21,0.10,0.23,0.12,-0.05,-0.00,
1.683,0.21,0.10,0.23,0.12,-0.06,-0.00,
1.704,0.21,0.10,0.23,0.13,-0.08,-0.01,
1.706,0.21,0.10,0.23,0.13,-0.09,-0.01,
1.707,0.21,0.10,0.23,0.13,-0.10,-0.01,
1.708,0.07,0.16,0.03,0.13,-0.10,-0.01,
1.709,0.07,0.16,0.03,0.14,-0.11,-0.01,
1.71,0.07,0.16,0.03,0.13,-0.12,-0.01,
1.711,0.07,0.16,0.03,0.13,-0.14,-0.01,
1.711,0.07,0.16,0.03,0.13,-0.14,-0.01,
1.744,0.07,0.16,0.03,0.13,-0.15,-0.01,
1.745,-0.03,0.14,-0.14,0.13,-0.15,-0.01,
1.745,-0.03,0.14,-0.14,0.13,-0.15,-0.01,
1.746,-0.03,0.14,-0.14,0.13,-0.16,-0.00,
1.746,-0.03,0.14,-0.14,0.13,-0.16,0.00,
1.746,-0.03,0.14,-0.14,0.12,-0.16,0.00,
1.747,-0.03,0.14,-0.14,0.12,-0.16,0.00,
1.747,-0.14,0.14,-0.23,0.12,-0.16,0.00,
1.747,-0.14,0.14,-0.23,0.12,-0.17,0.01,
1.747,-0.14,0.14,-0.23,0.12,-0.17,0.01,
1.748,-0.14,0.14,-0.23,0.11,-0.17,0.02,
1.748,-0.14,0.14,-0.23,0.11,-0.17,0.02,
1.748,-0.14,0.14,-0.23,0.11,-0.17,0.02,
1.749,-0.14,0.13,-0.33,0.11,-0.17,0.02,
1.749,-0.14,0.13,-0.33,0.10,-0.17,0.03,
1.749,-0.14,0.13,-0.33,0.09,-0.16,0.03,
1.749,-0.14,0.13,-0.33,0.08,-0.16,0.03,
1.75,-0.14,0.13,-0.33,0.08,-0.16,0.03,
1.75,-0.14,0.13,-0.33,0.07,-0.15,0.03,
1.75,0.08,0.14,-0.48,0.07,-0.15,0.03,
1.75,0.08,0.14,-0.48,0.06,-0.14,0.02,
1.751,0.08,0.14,-0.48,0.05,-0.14,0.02,
1.751,0.08,0.14,-0.48,0.04,-0.12,0.02,
1.751,0.08,0.14,-0.48,0.03,-0.12,0.02,
1.752,0.08,0.14,-0.48,0.02,-0.11,0.01,
1.752,0.26,0.17,-0.55,0.02,-0.11,0.01,
1.752,0.26,0.17,-0.55,0.01,-0.09,0.00,
1.752,0.26,0.17,-0.55,-0.01,-0.08,0.00,
1.753,0.26,0.17,-0.55,-0.02,-0.07,-0.01,
1.753,0.26,0.17,-0.55,-0.03,-0.06,-0.01,
1.753,0.26,0.17,-0.55,-0.04,-0.06,-0.02,
1.753,0.33,0.15,-0.55,-0.04,-0.06,-0.02,
1.754,0.33,0.15,-0.55,-0.05,-0.05,-0.03,
1.754,0.33,0.15,-0.55,-0.06,-0.04,-0.03,
1.766,0.33,0.15,-0.55,-0.07,-0.03,-0.04,
1.767,0.33,0.15,-0.55,-0.07,-0.02,-0.04,
1.767,0.33,0.15,-0.55,-0.08,-0.02,-0.05,
1.767,0.37,0.12,-0.36,-0.08,-0.02,-0.05,
1.768,0.37,0.12,-0.36,-0.08,-0.01,-0.06,
1.768,0.37,0.12,-0.36,-0.09,-0.00,-0.06,
1.768,0.37,0.12,-0.36,-0.09,0.00,-0.07,
1.768,0.37,0.12,-0.36,-0.10,0.01,-0.07,
1.777,0.37,0.12,-0.36,-0.10,0.01,-0.08,
1.777,0.34,0.04,-0.13,-0.10,0.01,-0.08,
1.778,0.34,0.04,-0.13,-0.10,0.02,-0.08,
1.778,0.34,0.04,-0.13,-0.10,0.02,-0.09,
1.778,0.34,0.04,-0.13,-0.10,0.03,-0.10,
1.778,0.34,0.04,-0.13,-0.10,0.03,-0.11,
1.779,0.34,0.04,-0.13,-0.10,0.03,-0.11,
1.781,0.31,-0.02,0.10,-0.10,0.03,-0.11,
1.781,0.31,-0.02,0.10,-0.09,0.03,-0.12,
1.785,0.31,-0.02,0.10,-0.09,0.03,-0.12,
1.793,0.31,-0.02,0.10,-0.08,0.03,-0.13,
1.793,0.31,-0.02,0.10,-0.08,0.03,-0.13,
1.794,0.31,-0.02,0.10,-0.08,0.03,-0.14,
1.794,0.17,-0.06,0.28,-0.08,0.03,-0.14,
1.794,0.17,-0.06,0.28,-0.07,0.03,-0.14,
1.795,0.17,-0.06,0.28,-0.06,0.03,-0.14,
1.797,0.17,-0.06,0.28,-0.06,0.03,-0.14,
1.797,0.17,-0.06,0.28,-0.05,0.03,-0.14,
1.799,0.17,-0.06,0.28,-0.05,0.03,-0.14,
1.83,-0.07,-0.13,0.39,-0.05,0.03,-0.14,
1.831,-0.07,-0.13,0.39,-0.04,0.02,-0.14,
1.831,-0.07,-0.13,0.39,-0.03,0.02,-0.14,
1.831,-0.07,-0.13,0.39,-0.02,0.01,-0.14,
1.832,-0.07,-0.13,0.39,-0.02,0.01,-0.14,
1.832,-0.07,-0.13,0.39,-0.01,-0.00,-0.14,
1.832,-0.24,-0.16,0.49,-0.01,-0.00,-0.14,
1.832,-0.24,-0.16,0.49,-0.00,-0.01,-0.13,
1.832,-0.24,-0.16,0.49,0.01,-0.01,-0.13,
1.833,-0.24,-0.16,0.49,0.02,-0.02,-0.12,
1.833,-0.24,-0.16,0.49,0.02,-0.02,-0.12,
1.833,-0.24,-0.16,0.49,0.03,-0.03,-0.12,
1.833,-0.39,-0.22,0.46,0.03,-0.03,-0.12,
1.833,-0.39,-0.22,0.46,0.03,-0.03,-0.11,
1.834,-0.39,-0.22,0.46,0.03,-0.04,-0.11,
1.834,-0.39,-0.22,0.46,0.04,-0.04,-0.10,
1.834,-0.39,-0.22,0.46,0.04,-0.04,-0.10,
1.834,-0.39,-0.22,0.46,0.04,-0.04,-0.09,
1.834,-0.34,-0.23,0.30,0.04,-0.04,-0.09,
1.835,-0.34,-0.23,0.30,0.04,-0.04,-0.09,
1.835,-0.34,-0.23,0.30,0.04,-0.04,-0.09,
1.836,-0.34,-0.23,0.30,0.03,-0.04,-0.09,
1.838,-0.34,-0.23,0.30,0.03,-0.04,-0.09,
1.839,-0.34,-0.23,0.30,0.03,-0.04,-0.09,
1.842,-0.26,-0.27,0.18,0.03,-0.04,-0.09,
1.842,-0.26,-0.27,0.18,0.02,-0.04,-0.08,
1.843,-0.26,-0.27,0.18,0.02,-0.03,-0.08,
1.846,-0.26,-0.27,0.18,0.01,-0.02,-0.08,
1.847,-0.26,-0.27,0.18,0.01,-0.02,-0.08,
1.848,-0.26,-0.27,0.18,0.00,-0.01,-0.07,
1.851,-0.16,-0.29,0.08,0.00,-0.01,-0.07,
1.851,-0.16,-0.29,0.08,-0.01,-0.01,-0.07,
1.853,-0.16,-0.29,0.08,-0.01,0.00,-0.07,
1.858,-0.16,-0.29,0.08,-0.02,0.01,-0.06,
1.859,-0.16,-0.29,0.08,-0.02,0.02,-0.06,
1.859,-0.16,-0.29,0.08,-0.02,0.03,-0.06,
1.863,-0.10,-0.32,0.05,-0.02,0.03,-0.06,
1.863,-0.10,-0.32,0.05,-0.03,0.03,-0.06,
1.863,-0.10,-0.32,0.05,-0.03,0.04,-0.06,
1.882,-0.10,-0.32,0.05,-0.03,0.05,-0.06,
1.882,-0.10,-0.32,0.05,-0.03,0.06,-0.06,
1.882,-0.10,-0.32,0.05,-0.03,0.06,-0.06,
1.883,0.00,-0.31,0.18,-0.03,0.06,-0.06,
1.883,0.00,-0.31,0.18,-0.02,0.07,-0.06,
1.883,0.00,-0.31,0.18,-0.02,0.08,-0.06,
1.883,0.00,-0.31,0.18,-0.01,0.09,-0.06,
1.884,0.00,-0.31,0.18,-0.01,0.09,-0.07,
1.884,0.00,-0.31,0.18,0.00,0.09,-0.07,
1.884,0.08,-0.28,0.31,0.00,0.09,-0.07,
1.884,0.08,-0.28,0.31,0.01,0.10,-0.07,
1.885,0.08,-0.28,0.31,0.02,0.11,-0.07,
1.888,0.08,-0.28,0.31,0.04,0.12,-0.07,
1.888,0.08,-0.28,0.31,0.04,0.12,-0.07,
1.889,0.08,-0.28,0.31,0.05,0.13,-0.08,
1.891,0.06,-0.24,0.31,0.05,0.13,-0.08,
1.891,0.06,-0.24,0.31,0.06,0.13,-0.08,
1.893,0.06,-0.24,0.31,0.07,0.13,-0.08,
1.896,0.06,-0.24,0.31,0.09,0.14,-0.08,
1.897,0.06,-0.24,0.31,0.09,0.14,-0.08,
1.899,0.06,-0.24,0.31,0.10,0.14,-0.08,
1.901,-0.04,-0.15,0.11,0.10,0.14,-0.08,
1.901,-0.04,-0.15,0.11,0.10,0.13,-0.09,
1.903,-0.04,-0.15,0.11,0.11,0.13,-0.09,
1.906,-0.04,-0.15,0.11,0.11,0.12,-0.09,
1.906,-0.04,-0.15,0.11,0.11,0.12,-0.09,
1.909,-0.04,-0.15,0.11,0.11,0.11,-0.09,
1.91,-0.12,-0.06,-0.17,0.11,0.11,-0.09,
1.911,-0.12,-0.06,-0.17,0.12,0.11,-0.10,
1.913,-0.12,-0.06,-0.17,0.12,0.10,-0.09,
1.916,-0.12,-0.06,-0.17,0.12,0.09,-0.10,
1.917,-0.12,-0.06,-0.17,0.12,0.09,-0.10,
1.919,-0.12,-0.06,-0.17,0.11,0.08,-0.10,
1.921,-0.17,0.01,-0.45,0.11,0.08,-0.10,
1.921,-0.17,0.01,-0.45,0.11,0.08,-0.10,
1.923,-0.17,0.01,-0.45,0.11,0.07,-0.11,
1.926,-0.17,0.01,-0.45,0.10,0.05,-0.11,
1.927,-0.17,0.01,-0.45,0.09,0.05,-0.11,
1.929,-0.17,0.01,-0.45,0.09,0.03,-0.11,
1.938,-0.20,0.08,-0.63,0.09,0.03,-0.11,
1.938,-0.20,0.08,-0.63,0.08,0.02,-0.12,
1.939,-0.20,0.08,-0.63,0.07,0.01,-0.12,
1.939,-0.20,0.08,-0.63,0.06,-0.01,-0.12,
1.939,-0.20,0.08,-0.63,0.05,-0.02,-0.12,
1.945,-0.20,0.08,-0.63,0.05,-0.03,-0.12,
1.946,-0.26,0.16,-0.65,0.05,-0.03,-0.12,
1.947,-0.26,0.16,-0.65,0.04,-0.04,-0.12,
1.948,-0.26,0.16,-0.65,0.03,-0.06,-0.12,
1.948,-0.26,0.16,-0.65,0.02,-0.07,-0.12,
1.948,-0.26,0.16,-0.65,0.02,-0.07,-0.12,
1.949,-0.26,0.16,-0.65,0.01,-0.08,-0.12,
1.951,-0.34,0.12,-0.50,0.01,-0.08,-0.12,
1.951,-0.34,0.12,-0.50,0.01,-0.08,-0.12,
1.958,-0.34,0.12,-0.50,0.00,-0.09,-0.11,
1.959,-0.34,0.12,-0.50,-0.00,-0.09,-0.11,
1.959,-0.34,0.12,-0.50,-0.01,-0.09,-0.11,
1.963,-0.34,0.12,-0.50,-0.00,-0.09,-0.10,
1.963,-0.36,0.05,-0.30,-0.00,-0.09,-0.10,
1.963,-0.36,0.05,-0.30,-0.01,-0.09,-0.10,
1.963,-0.36,0.05,-0.30,-0.01,-0.08,-0.09,
1.966,-0.36,0.05,-0.30,-0.02,-0.08,-0.09,
1.967,-0.36,0.05,-0.30,-0.02,-0.07,-0.09,
1.989,-0.36,0.05,-0.30,-0.01,-0.07,-0.08,
1.99,-0.27,0.01,-0.07,-0.01,-0.07,-0.08,
1.99,-0.27,0.01,-0.07,-0.02,-0.06,-0.08,
1.99,-0.27,0.01,-0.07,-0.02,-0.05,-0.07,
1.99,-0.27,0.01,-0.07,-0.02,-0.03,-0.07,
1.99,-0.27,0.01,-0.07,-0.02,-0.03,-0.07,
1.991,-0.27,0.01,-0.07,-0.02,-0.01,-0.06,
1.991,-0.19,-0.02,0.13,-0.02,-0.01,-0.06,
1.991,-0.19,-0.02,0.13,-0.01,0.00,-0.06,
1.991,-0.19,-0.02,0.13,-0.01,0.01,-0.05,
1.991,-0.19,-0.02,0.13,-0.01,0.04,-0.05,
1.991,-0.19,-0.02,0.13,-0.01,0.04,-0.05,
1.992,-0.19,-0.02,0.13,-0.00,0.05,-0.05,
1.992,-0.11,-0.06,0.24,-0.00,0.05,-0.05,
1.992,-0.11,-0.06,0.24,0.00,0.06,-0.04,
1.994,-0.11,-0.06,0.24,0.00,0.07,-0.04,
1.996,-0.11,-0.06,0.24,0.01,0.08,-0.04,
1.997,-0.11,-0.06,0.24,0.01,0.08,-0.04,
1.999,-0.11,-0.06,0.24,0.01,0.09,-0.04,
2.012,-0.09,-0.06,0.26,0.01,0.09,-0.04,
2.013,-0.09,-0.06,0.26,0.02,0.10,-0.04,
2.013,-0.09,-0.06,0.26,0.03,0.11,-0.04,
2.013,-0.09,-0.06,0.26,0.03,0.11,-0.04,
2.013,-0.09,-0.06,0.26,0.03,0.11,-0.04,
2.014,-0.09,-0.06,0.26,0.03,0.12,-0.04,
2.014,-0.04,-0.05,0.19,0.03,0.12,-0.04,
2.014,-0.04,-0.05,0.19,0.03,0.12,-0.04,
2.014,-0.04,-0.05,0.19,0.04,0.13,-0.04,
2.016,-0.04,-0.05,0.19,0.04,0.13,-0.05,
2.033,-0.04,-0.05,0.19,0.04,0.13,-0.05,
2.033,-0.04,-0.05,0.19,0.04,0.14,-0.05,
2.034,0.06,-0.01,0.02,0.04,0.14,-0.05,
2.034,0.06,-0.01,0.02,0.04,0.14,-0.05,
2.034,0.06,-0.01,0.02,0.04,0.14,-0.06,
2.034,0.06,-0.01,0.02,0.03,0.13,-0.07,
2.034,0.06,-0.01,0.02,0.03,0.13,-0.07,
2.034,0.06,-0.01,0.02,0.03,0.13,-0.07,
2.034,0.15,0.01,-0.13,0.03,0.13,-0.07,
2.054,0.15,0.01,-0.13,0.03,0.12,-0.08,
2.054,0.15,0.01,-0.13,0.02,0.11,-0.09,
2.054,0.15,0.01,-0.13,0.01,0.10,-0.09,
2.055,0.15,0.01,-0.13,0.01,0.10,-0.09,
2.055,0.15,0.01,-0.13,0.00,0.09,-0.10,
2.055,0.10,0.06,-0.23,0.00,0.09,-0.10,
2.055,0.10,0.06,-0.23,-0.00,0.08,-0.10,
2.056,0.10,0.06,-0.23,-0.01,0.07,-0.10,
2.056,0.10,0.06,-0.23,-0.02,0.06,-0.10,
2.056,0.10,0.06,-0.23,-0.02,0.06,-0.11,
2.056,0.10,0.06,-0.23,-0.03,0.05,-0.11,
2.056,-0.04,0.00,-0.32,-0.03,0.05,-0.11,
2.057,-0.04,0.00,-0.32,-0.04,0.05,-0.11,
2.057,-0.04,0.00,-0.32,-0.05,0.05,-0.10,
2.057,-0.04,0.00,-0.32,-0.06,0.04,-0.10,
2.057,-0.04,0.00,-0.32,-0.07,0.04,-0.10,
2.059,-0.04,0.00,-0.32,-0.08,0.04,-0.10,
2.06,-0.15,-0.09,-0.29,-0.08,0.04,-0.10,
2.061,-0.15,-0.09,-0.29,-0.09,0.03,-0.10,
2.063,-0.15,-0.09,-0.29,-0.09,0.03,-0.09,
2.066,-0.15,-0.09,-0.29,-0.10,0.03,-0.09,
2.067,-0.15,-0.09,-0.29,-0.10,0.03,-0.09,
2.069,-0.15,-0.09,-0.29,-0.10,0.03,-0.08,
2.071,-0.24,-0.17,-0.10,-0.10,0.03,-0.08,
2.071,-0.24,-0.17,-0.10,-0.10,0.03,-0.08,
2.073,-0.24,-0.17,-0.10,-0.10,0.03,-0.07,
2.076,-0.24,-0.17,-0.10,-0.10,0.03,-0.06,
2.077,-0.24,-0.17,-0.10,-0.10,0.03,-0.06,
2.079,-0.24,-0.17,-0.10,-0.10,0.03,-0.06,
2.081,-0.30,-0.25,0.18,-0.10,0.03,-0.06,
2.081,-0.30,-0.25,0.18,-0.10,0.03,-0.05,
2.083,-0.30,-0.25,0.18,-0.09,0.03,-0.05,
2.089,-0.30,-0.25,0.18,-0.08,0.03,-0.04,
2.09,-0.30,-0.25,0.18,-0.08,0.03,-0.04,
2.09,-0.30,-0.25,0.18,-0.07,0.03,-0.04,
2.091,-0.22,-0.29,0.43,-0.07,0.03,-0.04,
2.092,-0.22,-0.29,0.43,-0.06,0.03,-0.03,
2.093,-0.22,-0.29,0.43,-0.05,0.03,-0.03,
2.096,-0.22,-0.29,0.43,-0.03,0.03,-0.03,
2.097,-0.22,-0.29,0.43,-0.03,0.03,-0.03,
2.099,-0.22,-0.29,0.43,-0.02,0.02,-0.03,
2.141,-0.10,-0.32,0.54,-0.02,0.02,-0.03,
2.141,-0.10,-0.32,0.54,-0.01,0.02,-0.02,
2.142,-0.10,-0.32,0.54,0.00,0.02,-0.03,
2.142,-0.10,-0.32,0.54,0.02,0.01,-0.03,
2.142,-0.10,-0.32,0.54,0.03,0.01,-0.03,
2.142,-0.10,-0.32,0.54,0.04,0.00,-0.03,
2.142,0.04,-0.26,0.48,0.04,0.00,-0.03,
2.142,0.04,-0.26,0.48,0.04,-0.00,-0.03,
2.143,0.04,-0.26,0.48,0.05,-0.01,-0.04,
2.143,0.04,-0.26,0.48,0.06,-0.01,-0.04,
2.143,0.04,-0.26,0.48,0.06,-0.01,-0.04,
2.143,0.04,-0.26,0.48,0.06,-0.01,-0.05,
2.143,0.17,-0.21,0.29,0.06,-0.01,-0.05,
2.143,0.17,-0.21,0.29,0.07,-0.01,-0.05,
2.143,0.17,-0.21,0.29,0.07,-0.01,-0.05,
2.144,0.17,-0.21,0.29,0.07,0.00,-0.06,
2.144,0.17,-0.21,0.29,0.07,0.00,-0.06,
2.144,0.17,-0.21,0.29,0.07,0.01,-0.06,
2.144,0.12,-0.16,0.09,0.07,0.01,-0.06,
2.144,0.12,-0.16,0.09,0.07,0.01,-0.06,
2.144,0.12,-0.16,0.09,0.06,0.02,-0.06,
2.145,0.12,-0.16,0.09,0.06,0.03,-0.06,
2.145,0.12,-0.16,0.09,0.06,0.03,-0.06,
2.145,0.12,-0.16,0.09,0.05,0.04,-0.06,
2.145,0.03,-0.12,-0.11,0.05,0.04,-0.06,
2.145,0.03,-0.12,-0.11,0.05,0.04,-0.06,
2.145,0.03,-0.12,-0.11,0.04,0.05,-0.06,
2.145,0.03,-0.12,-0.11,0.03,0.06,-0.05,
2.151,0.03,-0.12,-0.11,0.03,0.07,-0.05,
2.152,0.03,-0.12,-0.11,0.02,0.07,-0.05,
2.154,-0.12,-0.09,-0.26,0.02,0.07,-0.05,
2.154,-0.12,-0.09,-0.26,0.02,0.08,-0.04,
2.154,-0.12,-0.09,-0.26,0.02,0.09,-0.04,
2.166,-0.12,-0.09,-0.26,0.00,0.09,-0.03,
2.167,-0.12,-0.09,-0.26,0.00,0.09,-0.03,
2.167,-0.12,-0.09,-0.26,0.00,0.10,-0.02,
2.168,-0.20,-0.04,-0.30,0.00,0.10,-0.02,
2.168,-0.20,-0.04,-0.30,-0.01,0.10,-0.02,
2.169,-0.20,-0.04,-0.30,-0.01,0.10,-0.02,
2.169,-0.20,-0.04,-0.30,-0.02,0.10,-0.01,
2.169,-0.20,-0.04,-0.30,-0.02,0.10,-0.01,
2.17,-0.20,-0.04,-0.30,-0.02,0.10,-0.01,
2.184,-0.17,-0.01,-0.33,-0.02,0.10,-0.01,
2.185,-0.17,-0.01,-0.33,-0.03,0.10,-0.01,
2.185,-0.17,-0.01,-0.33,-0.03,0.10,-0.00,
2.186,-0.17,-0.01,-0.33,-0.04,0.09,-0.00,
2.187,-0.17,-0.01,-0.33,-0.04,0.09,-0.00,
2.187,-0.17,-0.01,-0.33,-0.04,0.08,-0.00,
2.188,-0.08,0.01,-0.29,-0.04,0.08,-0.00,
2.188,-0.08,0.01,-0.29,-0.04,0.08,-0.00,
2.188,-0.08,0.01,-0.29,-0.04,0.07,-0.01,
2.188,-0.08,0.01,-0.29,-0.04,0.06,-0.01,
2.189,-0.08,0.01,-0.29,-0.04,0.05,-0.01,
2.2,-0.08,0.01,-0.29,-0.04,0.04,-0.01,
2.201,-0.02,0.02,-0.19,-0.04,0.04,-0.01,
2.202,-0.02,0.02,-0.19,-0.04,0.04,-0.01,
2.202,-0.02,0.02,-0.19,-0.03,0.03,-0.02,
2.203,-0.02,0.02,-0.19,-0.03,0.02,-0.02,
2.204,-0.02,0.02,-0.19,-0.03,0.01,-0.03,
2.238,-0.02,0.02,-0.19,-0.02,0.00,-0.03,
2.239,0.08,0.04,-0.11,-0.02,0.00,-0.03,
2.239,0.08,0.04,-0.11,-0.02,-0.01,-0.04,
2.24,0.08,0.04,-0.11,-0.02,-0.02,-0.04,
2.24,0.08,0.04,-0.11,-0.01,-0.03,-0.05,
2.241,0.08,0.04,-0.11,-0.01,-0.04,-0.05,
2.241,0.08,0.04,-0.11,-0.01,-0.04,-0.05,
2.242,0.12,0.05,0.03,-0.01,-0.04,-0.05,
2.242,0.12,0.05,0.03,-0.00,-0.05,-0.06,
2.242,0.12,0.05,0.03,0.00,-0.05,-0.06,
2.243,0.12,0.05,0.03,0.01,-0.05,-0.06,
2.243,0.12,0.05,0.03,0.01,-0.05,-0.07,
2.244,0.12,0.05,0.03,0.02,-0.05,-0.07,
2.244,-0.00,0.05,0.07,0.02,-0.05,-0.07,
2.245,-0.00,0.05,0.07,0.02,-0.05,-0.06,
2.245,-0.00,0.05,0.07,0.02,-0.05,-0.06,
2.245,-0.00,0.05,0.07,0.02,-0.05,-0.06,
2.246,-0.00,0.05,0.07,0.02,-0.05,-0.06,
2.246,-0.00,0.05,0.07,0.02,-0.04,-0.06,
2.247,-0.15,0.05,-0.02,0.02,-0.04,-0.06,
2.247,-0.15,0.05,-0.02,0.02,-0.04,-0.06,
2.248,-0.15,0.05,-0.02,0.02,-0.04,-0.06,
2.248,-0.15,0.05,-0.02,0.02,-0.03,-0.05,
2.249,-0.15,0.05,-0.02,0.02,-0.03,-0.05,
2.249,-0.15,0.05,-0.02,0.01,-0.03,-0.05,
2.249,-0.22,0.07,-0.11,0.01,-0.03,-0.05,
2.25,-0.22,0.07,-0.11,0.01,-0.03,-0.04,
2.25,-0.22,0.07,-0.11,0.01,-0.02,-0.04,
2.251,-0.22,0.07,-0.11,0.00,-0.01,-0.04,
2.251,-0.22,0.07,-0.11,-0.00,-0.01,-0.03,
2.252,-0.22,0.07,-0.11,-0.00,-0.00,-0.03,
2.252,-0.22,0.06,-0.18,-0.00,-0.00,-0.03,
2.252,-0.22,0.06,-0.18,-0.01,0.00,-0.03,
2.253,-0.22,0.06,-0.18,-0.02,0.01,-0.02,
2.259,-0.22,0.06,-0.18,-0.02,0.02,-0.02,
2.26,-0.22,0.06,-0.18,-0.03,0.02,-0.02,
2.261,-0.22,0.06,-0.18,-0.03,0.02,-0.01,
2.261,-0.17,0.05,-0.19,-0.03,0.02,-0.01,
2.262,-0.17,0.05,-0.19,-0.04,0.03,-0.01,
2.265,-0.17,0.05,-0.19,-0.04,0.04,-0.01,
2.266,-0.17,0.05,-0.19,-0.05,0.04,-0.00,
2.275,-0.17,0.05,-0.19,-0.05,0.04,-0.01,
2.276,-0.17,0.05,-0.19,-0.06,0.05,-0.00,
2.277,-0.13,0.02,-0.16,-0.06,0.05,-0.00,
2.277,-0.13,0.02,-0.16,-0.06,0.05,-0.00,
2.277,-0.13,0.02,-0.16,-0.06,0.05,-0.00,
2.278,-0.13,0.02,-0.16,-0.07,0.05,0.00,
2.278,-0.13,0.02,-0.16,-0.07,0.05,-0.00,
2.279,-0.13,0.02,-0.16,-0.08,0.05,-0.00,
2.281,-0.05,0.02,-0.10,-0.08,0.05,-0.00,
2.283,-0.05,0.02,-0.10,-0.08,0.05,-0.00,
2.284,-0.05,0.02,-0.10,-0.08,0.05,-0.00,
2.287,-0.05,0.02,-0.10,-0.08,0.04,-0.00,
2.287,-0.05,0.02,-0.10,-0.08,0.04,-0.00,
2.309,-0.05,0.02,-0.10,-0.08,0.04,-0.01,
2.31,-0.05,-0.00,0.08,-0.08,0.04,-0.01,
2.31,-0.05,-0.00,0.08,-0.08,0.04,-0.01,
2.31,-0.05,-0.00,0.08,-0.07,0.03,-0.00,
2.311,-0.05,-0.00,0.08,-0.06,0.03,-0.00,
2.311,-0.05,-0.00,0.08,-0.06,0.03,-0.00,
2.311,-0.05,-0.00,0.08,-0.06,0.02,-0.00,
2.312,-0.15,-0.05,0.26,-0.06,0.02,-0.00,
2.312,-0.15,-0.05,0.26,-0.05,0.02,0.00,
2.312,-0.15,-0.05,0.26,-0.04,0.01,0.00,
2.313,-0.15,-0.05,0.26,-0.03,0.01,0.01,
2.313,-0.15,-0.05,0.26,-0.02,0.00,0.01,
2.313,-0.15,-0.05,0.26,-0.02,-0.00,0.01,
2.314,-0.18,-0.06,0.29,-0.02,-0.00,0.01,
2.314,-0.18,-0.06,0.29,-0.01,-0.01,0.01,
2.314,-0.18,-0.06,0.29,-0.00,-0.02,0.01,
2.316,-0.18,-0.06,0.29,0.01,-0.03,0.01,
2.368,-0.18,-0.06,0.29,0.02,-0.04,0.02,
2.369,-0.18,-0.06,0.29,0.02,-0.05,0.02,
2.369,-0.17,-0.04,0.21,0.02,-0.05,0.02,
2.369,-0.17,-0.04,0.21,0.03,-0.06,0.02,
2.37,-0.17,-0.04,0.21,0.03,-0.07,0.01,
2.37,-0.17,-0.04,0.21,0.04,-0.08,0.01,
2.37,-0.17,-0.04,0.21,0.04,-0.09,0.01,
2.371,-0.17,-0.04,0.21,0.04,-0.10,0.01,
2.371,-0.12,-0.00,0.04,0.04,-0.10,0.01,
2.371,-0.12,-0.00,0.04,0.05,-0.11,0.01,
2.372,-0.12,-0.00,0.04,0.05,-0.11,0.01,
2.372,-0.12,-0.00,0.04,0.05,-0.12,0.01,
2.372,-0.12,-0.00,0.04,0.05,-0.13,0.01,
2.373,-0.12,-0.00,0.04,0.05,-0.13,0.01,
2.373,-0.07,-0.01,-0.14,0.05,-0.13,0.01,
2.373,-0.07,-0.01,-0.14,0.04,-0.13,0.01,
2.374,-0.07,-0.01,-0.14,0.04,-0.13,0.01,
2.374,-0.07,-0.01,-0.14,0.04,-0.14,0.01,
2.374,-0.07,-0.01,-0.14,0.04,-0.14,0.00,
2.374,-0.07,-0.01,-0.14,0.03,-0.13,0.00,
2.375,0.01,-0.01,-0.23,0.03,-0.13,0.00,
2.375,0.01,-0.01,-0.23,0.03,-0.13,0.00,
2.375,0.01,-0.01,-0.23,0.02,-0.12,0.00,
2.376,0.01,-0.01,-0.23,0.01,-0.11,-0.00,
2.376,0.01,-0.01,-0.23,0.01,-0.10,-0.00,
2.376,0.01,-0.01,-0.23,0.00,-0.09,-0.00,
2.377,0.10,-0.03,-0.31,0.00,-0.09,-0.00,
2.377,0.10,-0.03,-0.31,-0.01,-0.09,-0.01,
2.377,0.10,-0.03,-0.31,-0.01,-0.07,-0.01,
2.406,0.10,-0.03,-0.31,-0.03,-0.06,-0.01,
2.407,0.10,-0.03,-0.31,-0.04,-0.05,-0.01,
2.408,0.10,-0.03,-0.31,-0.04,-0.04,-0.01,
2.408,0.17,-0.03,-0.35,-0.04,-0.04,-0.01,
2.409,0.17,-0.03,-0.35,-0.05,-0.03,-0.01,
2.409,0.17,-0.03,-0.35,-0.07,-0.01,-0.02,
2.41,0.17,-0.03,-0.35,-0.08,0.01,-0.02,
2.41,0.17,-0.03,-0.35,-0.09,0.02,-0.02,
2.411,0.17,-0.03,-0.35,-0.10,0.03,-0.02,
2.412,0.10,-0.05,-0.25,-0.10,0.03,-0.02,
2.412,0.10,-0.05,-0.25,-0.10,0.05,-0.01,
2.413,0.10,-0.05,-0.25,-0.11,0.06,-0.01,
2.413,0.10,-0.05,-0.25,-0.12,0.09,-0.00,
2.414,0.10,-0.05,-0.25,-0.12,0.09,-0.00,
2.414,0.10,-0.05,-0.25,-0.12,0.11,0.00,
2.415,0.02,-0.12,-0.08,-0.12,0.11,0.00,
2.415,0.02,-0.12,-0.08,-0.12,0.12,0.00,
2.416,0.02,-0.12,-0.08,-0.12,0.13,0.01,
2.416,0.02,-0.12,-0.08,-0.12,0.14,0.01,
2.417,0.02,-0.12,-0.08,-0.12,0.14,0.01,
2.42,0.02,-0.12,-0.08,-0.12,0.15,0.02,
2.421,-0.05,-0.08,0.08,-0.12,0.15,0.02,
2.421,-0.05,-0.08,0.08,-0.12,0.15,0.02,
2.422,-0.05,-0.08,0.08,-0.12,0.15,0.02,
2.422,-0.05,-0.08,0.08,-0.11,0.14,0.02,
2.423,-0.05,-0.08,0.08,-0.11,0.14,0.03,
2.423,-0.05,-0.08,0.08,-0.10,0.14,0.03,
2.423,-0.05,-0.05,0.15,-0.10,0.14,0.03,
2.424,-0.05,-0.05,0.15,-0.10,0.13,0.03,
2.424,-0.05,-0.05,0.15,-0.09,0.12,0.03,
2.425,-0.05,-0.05,0.15,-0.08,0.11,0.03,
2.425,-0.05,-0.05,0.15,-0.08,0.10,0.03,
2.425,-0.05,-0.05,0.15,-0.07,0.09,0.03,
2.426,-0.00,-0.04,0.17,-0.07,0.09,0.03,
2.426,-0.00,-0.04,0.17,-0.06,0.08,0.03,
2.427,-0.00,-0.04,0.17,-0.06,0.07,0.03,
2.427,-0.00,-0.04,0.17,-0.05,0.04,0.02,
2.427,-0.00,-0.04,0.17,-0.04,0.04,0.02,
2.432,-0.00,-0.04,0.17,-0.04,0.02,0.02,
2.434,0.08,0.04,0.15,-0.04,0.02,0.02,
2.434,0.08,0.04,0.15,-0.03,0.01,0.01,
2.434,0.08,0.04,0.15,-0.03,-0.01,0.01,
2.438,0.08,0.04,0.15,-0.02,-0.02,0.01,
2.439,0.08,0.04,0.15,-0.02,-0.03,0.01,
2.439,0.08,0.04,0.15,-0.01,-0.04,0.00,
2.443,0.12,0.10,0.07,-0.01,-0.04,0.00,
2.444,0.12,0.10,0.07,-0.01,-0.05,-0.00,
2.444,0.12,0.10,0.07,-0.00,-0.06,-0.00,
2.446,0.12,0.10,0.07,-0.00,-0.07,-0.01,
2.449,0.12,0.10,0.07,-0.00,-0.07,-0.01,
2.463,0.12,0.10,0.07,0.00,-0.08,-0.01,
2.464,0.15,0.10,-0.03,0.00,-0.08,-0.01,
2.464,0.15,0.10,-0.03,0.00,-0.08,-0.01,
2.465,0.15,0.10,-0.03,-0.00,-0.08,-0.02,
2.465,0.15,0.10,-0.03,-0.01,-0.08,-0.02,
2.465,0.15,0.10,-0.03,-0.01,-0.07,-0.02,
2.466,0.15,0.10,-0.03,-0.01,-0.07,-0.02,
2.466,0.15,0.10,-0.11,-0.01,-0.07,-0.02,
2.466,0.15,0.10,-0.11,-0.01,-0.07,-0.02,
2.467,0.15,0.10,-0.11,-0.02,-0.06,-0.02,
2.524,0.15,0.10,-0.11,-0.02,-0.05,-0.02,
2.525,0.15,0.10,-0.11,-0.03,-0.05,-0.02,
2.526,0.15,0.10,-0.11,-0.03,-0.04,-0.02,
2.526,0.14,0.10,-0.21,-0.03,-0.04,-0.02,
2.526,0.14,0.10,-0.21,-0.04,-0.03,-0.02,
2.527,0.14,0.10,-0.21,-0.05,-0.02,-0.02,
2.527,0.14,0.10,-0.21,-0.06,-0.01,-0.02,
2.527,0.14,0.10,-0.21,-0.06,-0.01,-0.02,
2.528,0.14,0.10,-0.21,-0.07,0.00,-0.02,
2.528,0.15,0.10,-0.20,-0.07,0.00,-0.02,
2.528,0.15,0.10,-0.20,-0.08,0.01,-0.02,
2.528,0.15,0.10,-0.20,-0.08,0.02,-0.02,
2.529,0.15,0.10,-0.20,-0.09,0.03,-0.02,
2.529,0.15,0.10,-0.20,-0.09,0.03,-0.02,
2.529,0.15,0.10,-0.20,-0.09,0.04,-0.02,
2.53,0.09,0.07,-0.04,-0.09,0.04,-0.02,
2.53,0.09,0.07,-0.04,-0.09,0.04,-0.02,
2.53,0.09,0.07,-0.04,-0.09,0.05,-0.01,
2.531,0.09,0.07,-0.04,-0.09,0.07,-0.01,
2.531,0.09,0.07,-0.04,-0.09,0.07,-0.01,
2.531,0.09,0.07,-0.04,-0.09,0.08,-0.01,
2.532,0.02,0.05,0.12,-0.09,0.08,-0.01,
2.532,0.02,0.05,0.12,-0.09,0.08,-0.01,
2.532,0.02,0.05,0.12,-0.08,0.08,-0.00,
2.533,0.02,0.05,0.12,-0.07,0.09,0.00,
2.533,0.02,0.05,0.12,-0.07,0.09,0.00,
2.533,0.02,0.05,0.12,-0.07,0.09,0.00,
2.534,0.01,0.04,0.21,-0.07,0.09,0.00,
2.534,0.01,0.04,0.21,-0.06,0.09,0.00,
2.534,0.01,0.04,0.21,-0.05,0.09,0.00,
2.534,0.01,0.04,0.21,-0.05,0.08,0.00,
2.535,0.01,0.04,0.21,-0.04,0.08,0.01,
2.535,0.01,0.04,0.21,-0.04,0.07,0.00,
2.535,0.02,0.07,0.21,-0.04,0.07,0.00,
2.536,0.02,0.07,0.21,-0.03,0.07,0.00,
2.536,0.02,0.07,0.21,-0.02,0.06,0.00,
2.536,0.02,0.07,0.21,-0.01,0.05,-0.00,
2.537,0.02,0.07,0.21,-0.01,0.05,-0.00,
2.537,0.02,0.07,0.21,-0.01,0.04,-0.00,
2.537,0.04,0.11,0.11,-0.01,0.04,-0.00,
2.565,0.04,0.11,0.11,0.00,0.03,-0.01,
2.566,0.04,0.11,0.11,0.00,0.02,-0.01,
2.567,0.04,0.11,0.11,0.01,0.01,-0.01,
2.568,0.04,0.11,0.11,0.01,0.00,-0.01,
2.568,0.04,0.11,0.11,0.01,-0.01,-0.02,
2.569,0.09,0.14,-0.06,0.01,-0.01,-0.02,
2.569,0.09,0.14,-0.06,0.01,-0.02,-0.02,
2.57,0.09,0.14,-0.06,0.02,-0.03,-0.03,
2.57,0.09,0.14,-0.06,0.01,-0.04,-0.03,
2.571,0.09,0.14,-0.06,0.02,-0.04,-0.04,
2.572,0.09,0.14,-0.06,0.01,-0.05,-0.04,
2.572,0.14,0.17,-0.17,0.01,-0.05,-0.04,
2.573,0.14,0.17,-0.17,0.01,-0.06,-0.04,
2.573,0.14,0.17,-0.17,0.01,-0.07,-0.05,
2.576,0.14,0.17,-0.17,0.01,-0.08,-0.05,
2.577,0.14,0.17,-0.17,0.01,-0.08,-0.06,
2.577,0.14,0.17,-0.17,0.00,-0.08,-0.06,
2.577,0.12,0.17,-0.27,0.00,-0.08,-0.06,
2.577,0.12,0.17,-0.27,-0.00,-0.09,-0.06,
2.578,0.12,0.17,-0.27,-0.00,-0.09,-0.06,
2.578,0.12,0.17,-0.27,-0.01,-0.09,-0.07,
2.578,0.12,0.17,-0.27,-0.01,-0.09,-0.07,
2.579,0.12,0.17,-0.27,-0.02,-0.08,-0.07,
2.579,0.02,0.11,-0.29,-0.02,-0.08,-0.07,
2.579,0.02,0.11,-0.29,-0.03,-0.08,-0.07,
2.579,0.02,0.11,-0.29,-0.03,-0.08,-0.07,
2.58,0.02,0.11,-0.29,-0.04,-0.07,-0.07,
2.58,0.02,0.11,-0.29,-0.04,-0.06,-0.07,
2.58,0.02,0.11,-0.29,-0.04,-0.06,-0.06,
2.581,-0.02,0.09,-0.21,-0.04,-0.06,-0.06,
2.581,-0.02,0.09,-0.21,-0.05,-0.05,-0.06,
2.589,-0.02,0.09,-0.21,-0.05,-0.04,-0.06,
2.59,-0.02,0.09,-0.21,-0.06,-0.03,-0.06,
2.59,-0.02,0.09,-0.21,-0.06,-0.03,-0.06,
2.59,-0.02,0.09,-0.21,-0.06,-0.02,-0.06,
2.591,-0.08,0.06,-0.05,-0.06,-0.02,-0.06,
2.591,-0.08,0.06,-0.05,-0.06,-0.02,-0.05,
2.593,-0.08,0.06,-0.05,-0.06,-0.01,-0.05,
2.598,-0.08,0.06,-0.05,-0.06,0.00,-0.05,
2.6,-0.08,0.06,-0.05,-0.06,0.01,-0.05,
2.6,-0.08,0.06,-0.05,-0.06,0.01,-0.04,
2.616,-0.13,0.03,0.04,-0.06,0.01,-0.04,
2.617,-0.13,0.03,0.04,-0.06,0.02,-0.04,
2.617,-0.13,0.03,0.04,-0.06,0.03,-0.04,
2.617,-0.13,0.03,0.04,-0.06,0.04,-0.03,
2.617,-0.13,0.03,0.04,-0.06,0.04,-0.03,
2.618,-0.13,0.03,0.04,-0.06,0.04,-0.03,
2.618,-0.13,0.01,0.04,-0.06,0.04,-0.03,
2.618,-0.13,0.01,0.04,-0.06,0.05,-0.03,
2.618,-0.13,0.01,0.04,-0.06,0.05,-0.03,
2.618,-0.13,0.01,0.04,-0.06,0.06,-0.03,
2.619,-0.13,0.01,0.04,-0.06,0.06,-0.03,
2.62,-0.13,0.01,0.04,-0.06,0.06,-0.03,
2.621,-0.10,0.02,-0.04,-0.06,0.06,-0.03,
2.621,-0.10,0.02,-0.04,-0.06,0.06,-0.03,
2.623,-0.10,0.02,-0.04,-0.07,0.05,-0.03,
2.626,-0.10,0.02,-0.04,-0.07,0.05,-0.03,
2.627,-0.10,0.02,-0.04,-0.07,0.05,-0.03,
2.629,-0.10,0.02,-0.04,-0.08,0.04,-0.03,
2.631,-0.00,0.02,-0.10,-0.08,0.04,-0.03,
2.631,-0.00,0.02,-0.10,-0.08,0.04,-0.04,
2.65,-0.00,0.02,-0.10,-0.08,0.03,-0.04,
2.651,-0.00,0.02,-0.10,-0.08,0.02,-0.04,
2.651,-0.00,0.02,-0.10,-0.08,0.02,-0.04,
2.651,-0.00,0.02,-0.10,-0.08,0.02,-0.04,
2.651,0.05,0.01,-0.02,-0.08,0.02,-0.04,
2.652,0.05,0.01,-0.02,-0.08,0.01,-0.05,
2.652,0.05,0.01,-0.02,-0.08,0.01,-0.05,
2.652,0.05,0.01,-0.02,-0.08,0.00,-0.05,
2.652,0.05,0.01,-0.02,-0.08,0.00,-0.05,
2.652,0.05,0.01,-0.02,-0.07,0.00,-0.05,
2.653,-0.01,-0.01,0.09,-0.07,0.00,-0.05,
2.653,-0.01,-0.01,0.09,-0.07,0.00,-0.06,
2.653,-0.01,-0.01,0.09,-0.06,-0.00,-0.06,
2.656,-0.01,-0.01,0.09,-0.06,-0.00,-0.06,
2.657,-0.01,-0.01,0.09,-0.06,-0.01,-0.06,
2.659,-0.01,-0.01,0.09,-0.05,-0.01,-0.05,
2.661,-0.08,-0.04,0.21,-0.05,-0.01,-0.05,
2.662,-0.08,-0.04,0.21,-0.05,-0.01,-0.05,
2.663,-0.08,-0.04,0.21,-0.04,-0.01,-0.05,
2.683,-0.08,-0.04,0.21,-0.04,-0.01,-0.05,
2.684,-0.08,-0.04,0.21,-0.03,-0.02,-0.05,
2.685,-0.08,-0.04,0.21,-0.03,-0.02,-0.05,
2.685,-0.13,-0.06,0.29,-0.03,-0.02,-0.05,
2.686,-0.13,-0.06,0.29,-0.02,-0.02,-0.05,
2.686,-0.13,-0.06,0.29,-0.02,-0.02,-0.05,
2.687,-0.13,-0.06,0.29,-0.01,-0.02,-0.04,
2.687,-0.13,-0.06,0.29,-0.00,-0.02,-0.04,
2.688,-0.13,-0.06,0.29,0.00,-0.02,-0.04,
2.688,-0.19,-0.07,0.32,0.00,-0.02,-0.04,
2.689,-0.19,-0.07,0.32,0.01,-0.02,-0.04,
2.689,-0.19,-0.07,0.32,0.01,-0.02,-0.04,
2.69,-0.19,-0.07,0.32,0.01,-0.02,-0.03,
2.691,-0.19,-0.07,0.32,0.02,-0.02,-0.03,
2.691,-0.19,-0.07,0.32,0.02,-0.03,-0.03,
2.691,-0.21,-0.06,0.24,0.02,-0.03,-0.03,
2.691,-0.21,-0.06,0.24,0.02,-0.03,-0.02,
2.693,-0.21,-0.06,0.24,0.02,-0.03,-0.02,
2.696,-0.21,-0.06,0.24,0.03,-0.02,-0.02,
2.726,-0.21,-0.06,0.24,0.03,-0.03,-0.02,
2.747,-0.21,-0.06,0.24,0.03,-0.02,-0.02,
2.747,-0.22,-0.05,0.08,0.03,-0.02,-0.02,
2.747,-0.22,-0.05,0.08,0.03,-0.03,-0.01,
2.747,-0.22,-0.05,0.08,0.03,-0.02,-0.01,
2.748,-0.22,-0.05,0.08,0.02,-0.02,-0.01,
2.748,-0.22,-0.05,0.08,0.02,-0.02,-0.01,
2.748,-0.22,-0.05,0.08,0.02,-0.02,-0.00,
2.748,-0.22,-0.03,-0.11,0.02,-0.02,-0.00,
2.748,-0.22,-0.03,-0.11,0.01,-0.02,-0.00,
2.749,-0.22,-0.03,-0.11,0.01,-0.01,0.00,
2.749,-0.22,-0.03,-0.11,0.00,-0.01,0.01,
2.749,-0.22,-0.03,-0.11,-0.00,-0.01,0.01,
2.749,-0.22,-0.03,-0.11,-0.01,-0.01,0.01,
2.75,-0.22,0.01,-0.22,-0.01,-0.01,0.01,
2.75,-0.22,0.01,-0.22,-0.01,-0.00,0.01,
2.75,-0.22,0.01,-0.22,-0.02,-0.00,0.02,
2.75,-0.22,0.01,-0.22,-0.03,0.00,0.02,
2.75,-0.22,0.01,-0.22,-0.03,0.00,0.02,
2.751,-0.22,0.01,-0.22,-0.04,0.00,0.03,
2.751,-0.19,0.00,-0.28,-0.04,0.00,0.03,
2.751,-0.19,0.00,-0.28,-0.05,0.01,0.03,
2.751,-0.19,0.00,-0.28,-0.05,0.01,0.03,
2.751,-0.19,0.00,-0.28,-0.06,0.01,0.03,
2.752,-0.19,0.00,-0.28,-0.06,0.01,0.04,
2.752,-0.19,0.00,-0.28,-0.06,0.02,0.04,
2.752,-0.17,0.01,-0.20,-0.06,0.02,0.04,
2.752,-0.17,0.01,-0.20,-0.06,0.02,0.04,
2.753,-0.17,0.01,-0.20,-0.07,0.02,0.04,
2.753,-0.17,0.01,-0.20,-0.07,0.02,0.05,
2.753,-0.17,0.01,-0.20,-0.07,0.02,0.05,
2.753,-0.17,0.01,-0.20,-0.07,0.02,0.05,
2.753,-0.10,0.01,-0.05,-0.07,0.02,0.05,
2.754,-0.10,0.01,-0.05,-0.07,0.02,0.05,
2.754,-0.10,0.01,-0.05,-0.06,0.02,0.05,
2.758,-0.10,0.01,-0.05,-0.06,0.03,0.05,
2.759,-0.10,0.01,-0.05,-0.06,0.03,0.05,
2.759,-0.10,0.01,-0.05,-0.05,0.02,0.05,
2.763,0.05,0.02,0.10,-0.05,0.02,0.05,
2.763,0.05,0.02,0.10,-0.05,0.02,0.04,
2.764,0.05,0.02,0.10,-0.05,0.02,0.04,
2.773,0.05,0.02,0.10,-0.04,0.02,0.04,
2.774,0.05,0.02,0.10,-0.03,0.02,0.04,
2.774,0.05,0.02,0.10,-0.03,0.02,0.03,
2.775,0.14,0.05,0.21,-0.03,0.02,0.03,
2.775,0.14,0.05,0.21,-0.02,0.02,0.03,
2.775,0.14,0.05,0.21,-0.01,0.02,0.03,
2.776,0.14,0.05,0.21,-0.00,0.02,0.02,
2.777,0.14,0.05,0.21,-0.00,0.02,0.02,
2.779,0.14,0.05,0.21,0.01,0.01,0.01,
2.832,0.16,0.09,0.19,0.01,0.01,0.01,
2.832,0.16,0.09,0.19,0.01,0.01,0.01,
2.833,0.16,0.09,0.19,0.01,0.01,0.01,
2.833,0.16,0.09,0.19,0.02,0.00,0.01,
2.833,0.16,0.09,0.19,0.02,0.01,0.01,
2.833,0.16,0.09,0.19,0.02,0.00,0.00,
2.833,0.06,0.10,0.06,0.02,0.00,0.00,
2.833,0.06,0.10,0.06,0.02,-0.00,0.01,
2.834,0.06,0.10,0.06,0.02,-0.01,0.00,
2.834,0.06,0.10,0.06,0.02,-0.01,0.00,
2.834,0.06,0.10,0.06,0.02,-0.01,0.00,
2.834,0.06,0.10,0.06,0.02,-0.01,0.01,
2.834,-0.03,0.14,-0.13,0.02,-0.01,0.01,
2.834,-0.03,0.14,-0.13,0.01,-0.02,0.01,
2.835,-0.03,0.14,-0.13,0.01,-0.02,0.01,
2.835,-0.03,0.14,-0.13,0.00,-0.02,0.01,
2.835,-0.03,0.14,-0.13,-0.00,-0.02,0.01,
2.835,-0.03,0.14,-0.13,-0.01,-0.02,0.01,
2.835,-0.09,0.15,-0.24,-0.01,-0.02,0.01,
2.835,-0.09,0.15,-0.24,-0.01,-0.02,0.01,
2.835,-0.09,0.15,-0.24,-0.02,-0.02,0.01,
2.836,-0.09,0.15,-0.24,-0.03,-0.02,0.01,
2.836,-0.09,0.15,-0.24,-0.03,-0.02,0.01,
2.836,-0.09,0.15,-0.24,-0.04,-0.01,0.02,
2.836,-0.08,0.17,-0.32,-0.04,-0.01,0.02,
2.836,-0.08,0.17,-0.32,-0.04,-0.01,0.02,
2.836,-0.08,0.17,-0.32,-0.05,-0.00,0.02,
2.837,-0.08,0.17,-0.32,-0.06,0.00,0.02,
2.837,-0.08,0.17,-0.32,-0.06,0.00,0.03,
2.837,-0.08,0.17,-0.32,-0.07,0.01,0.03,
2.837,-0.11,0.17,-0.28,-0.07,0.01,0.03,
2.837,-0.11,0.17,-0.28,-0.07,0.01,0.03,
2.837,-0.11,0.17,-0.28,-0.08,0.01,0.03,
2.838,-0.11,0.17,-0.28,-0.08,0.02,0.03,
2.838,-0.11,0.17,-0.28,-0.08,0.02,0.03,
2.838,-0.11,0.17,-0.28,-0.08,0.02,0.04,
2.841,-0.07,0.16,-0.17,-0.08,0.02,0.04,
2.841,-0.07,0.16,-0.17,-0.09,0.02,0.04,
2.843,-0.07,0.16,-0.17,-0.09,0.02,0.04,
2.846,-0.07,0.16,-0.17,-0.08,0.01,0.03,
2.848,-0.07,0.16,-0.17,-0.08,0.01,0.03,
2.849,-0.07,0.16,-0.17,-0.08,0.01,0.03,
2.851,0.06,0.13,0.02,-0.08,0.01,0.03,
2.851,0.06,0.13,0.02,-0.08,0.01,0.03,
2.854,0.06,0.13,0.02,-0.07,0.00,0.03,
2.856,0.06,0.13,0.02,-0.07,-0.00,0.02,
2.857,0.06,0.13,0.02,-0.07,-0.00,0.02,
2.859,0.06,0.13,0.02,-0.06,-0.01,0.02,
2.863,0.16,0.15,0.20,-0.06,-0.01,0.02,
2.864,0.16,0.15,0.20,-0.05,-0.01,0.01,
2.864,0.16,0.15,0.20,-0.05,-0.02,0.01,
2.895,0.16,0.15,0.20,-0.03,-0.02,0.00,
2.896,0.16,0.15,0.20,-0.03,-0.02,0.00,
2.896,0.16,0.15,0.20,-0.02,-0.03,0.00,
2.897,0.10,0.10,0.34,-0.02,-0.03,0.00,
2.897,0.10,0.10,0.34,-0.01,-0.03,0.00,
2.898,0.10,0.10,0.34,-0.00,-0.04,-0.00,
2.898,0.10,0.10,0.34,0.01,-0.04,-0.00,
2.899,0.10,0.10,0.34,0.01,-0.04,-0.00,
2.899,0.10,0.10,0.34,0.02,-0.04,-0.00,
2.9,0.02,0.09,0.35,0.02,-0.04,-0.00,
2.9,0.02,0.09,0.35,0.03,-0.05,-0.00,
2.9,0.02,0.09,0.35,0.04,-0.05,-0.00,
2.901,0.02,0.09,0.35,0.05,-0.05,-0.00,
2.901,0.02,0.09,0.35,0.05,-0.05,0.00,
2.902,0.02,0.09,0.35,0.05,-0.05,0.00,
2.902,-0.02,0.11,0.22,0.05,-0.05,0.00,
2.903,-0.02,0.11,0.22,0.05,-0.05,0.00,
2.903,-0.02,0.11,0.22,0.06,-0.06,0.00,
2.903,-0.02,0.11,0.22,0.06,-0.05,0.00,
2.904,-0.02,0.11,0.22,0.06,-0.05,0.00,
2.904,-0.02,0.11,0.22,0.06,-0.05,-0.00,
2.905,0.06,0.15,0.07,0.06,-0.05,-0.00,
2.905,0.06,0.15,0.07,0.06,-0.04,-0.00,
2.906,0.06,0.15,0.07,0.06,-0.04,-0.01,
2.906,0.06,0.15,0.07,0.06,-0.03,-0.00,
2.906,0.06,0.15,0.07,0.05,-0.03,-0.01,
2.909,0.06,0.15,0.07,0.05,-0.02,-0.01,
2.911,0.05,0.21,-0.14,0.05,-0.02,-0.01,
2.911,0.05,0.21,-0.14,0.04,-0.01,-0.01,
2.913,0.05,0.21,-0.14,0.04,-0.00,-0.01,
2.921,0.05,0.21,-0.14,0.03,0.01,-0.01,
2.922,0.05,0.21,-0.14,0.02,0.02,-0.01,
2.922,0.05,0.21,-0.14,0.01,0.02,-0.01,
2.922,0.03,0.21,-0.32,0.01,0.02,-0.01,
2.922,0.03,0.21,-0.32,0.01,0.03,-0.01,
2.922,0.03,0.21,-0.32,-0.00,0.03,-0.01,
2.926,0.03,0.21,-0.32,-0.02,0.04,-0.01,
2.927,0.03,0.21,-0.32,-0.02,0.04,-0.01,
2.929,0.03,0.21,-0.32,-0.03,0.04,-0.01,
2.976,-0.02,0.17,-0.36,-0.03,0.04,-0.01,
2.977,-0.02,0.17,-0.36,-0.04,0.05,-0.01,
2.977,-0.02,0.17,-0.36,-0.05,0.05,-0.01,
2.977,-0.02,0.17,-0.36,-0.05,0.05,-0.01,
2.978,-0.02,0.17,-0.36,-0.06,0.05,-0.00,
2.978,-0.02,0.17,-0.36,-0.06,0.05,0.00,
2.978,-0.12,0.17,-0.24,-0.06,0.05,0.00,
2.978,-0.12,0.17,-0.24,-0.06,0.05,-0.00,
2.978,-0.12,0.17,-0.24,-0.06,0.05,0.00,
2.979,-0.12,0.17,-0.24,-0.06,0.05,0.01,
2.979,-0.12,0.17,-0.24,-0.06,0.05,0.01,
2.979,-0.12,0.17,-0.24,-0.06,0.04,0.01,
2.979,-0.14,0.10,0.00,-0.06,0.04,0.01,
2.979,-0.14,0.10,0.00,-0.06,0.04,0.01,
2.98,-0.14,0.10,0.00,-0.05,0.04,0.01,
2.98,-0.14,0.10,0.00,-0.05,0.04,0.01,
2.98,-0.14,0.10,0.00,-0.04,0.04,0.01,
2.98,-0.14,0.10,0.00,-0.04,0.04,0.01,
2.98,-0.15,0.05,0.19,-0.04,0.04,0.01,
2.981,-0.15,0.05,0.19,-0.03,0.04,0.01,
2.981,-0.15,0.05,0.19,-0.03,0.03,0.02,
2.981,-0.15,0.05,0.19,-0.02,0.03,0.02,
2.981,-0.15,0.05,0.19,-0.01,0.03,0.02,
2.981,-0.15,0.05,0.19,-0.01,0.03,0.02,
2.982,-0.12,0.04,0.21,-0.01,0.03,0.02,
2.982,-0.12,0.04,0.21,-0.00,0.02,0.01,
2.982,-0.12,0.04,0.21,0.01,0.02,0.02,
2.982,-0.12,0.04,0.21,0.01,0.01,0.02,
2.982,-0.12,0.04,0.21,0.01,0.01,0.02,
2.983,-0.12,0.04,0.21,0.02,0.01,0.02,
2.983,-0.11,-0.02,0.12,0.02,0.01,0.02,
2.983,-0.11,-0.02,0.12,0.02,0.00,0.01,
2.983,-0.11,-0.02,0.12,0.02,-0.00,0.01,
2.987,-0.11,-0.02,0.12,0.03,-0.01,0.01,
2.989,-0.11,-0.02,0.12,0.03,-0.01,0.01,
2.99,-0.11,-0.02,0.12,0.03,-0.02,0.01,
2.993,-0.10,-0.03,-0.02,0.03,-0.02,0.01,
2.994,-0.10,-0.03,-0.02,0.03,-0.02,0.01,
2.994,-0.10,-0.03,-0.02,0.03,-0.03,0.01,
2.998,-0.10,-0.03,-0.02,0.02,-0.03,0.01,
2.998,-0.10,-0.03,-0.02,0.02,-0.03,0.01,
2.998,-0.10,-0.03,-0.02,0.02,-0.03,0.01,
3.005,-0.10,-0.04,-0.11,0.02,-0.03,0.01,
3.007,-0.10,-0.04,-0.11,0.02,-0.03,0.01,
3.008,-0.10,-0.04,-0.11,0.01,-0.02,0.01,
3.008,-0.10,-0.04,-0.11,0.01,-0.02,0.01,
3.009,-0.10,-0.04,-0.11,0.01,-0.02,0.01,
3.009,-0.10,-0.04,-0.11,0.00,-0.02,0.01,
3.013,-0.12,-0.04,-0.17,0.00,-0.02,0.01,
3.014,-0.12,-0.04,-0.17,0.00,-0.02,0.01,
3.014,-0.12,-0.04,-0.17,-0.01,-0.01,0.01,
3.064,-0.12,-0.04,-0.17,-0.01,-0.01,0.01,
3.065,-0.12,-0.04,-0.17,-0.01,-0.01,0.01,
3.065,-0.12,-0.04,-0.17,-0.02,-0.01,0.01,
3.065,-0.11,-0.09,-0.13,-0.02,-0.01,0.01,
3.066,-0.11,-0.09,-0.13,-0.02,-0.00,0.01,
3.066,-0.11,-0.09,-0.13,-0.02,-0.00,0.01,
3.066,-0.11,-0.09,-0.13,-0.02,0.01,0.02,
3.067,-0.11,-0.09,-0.13,-0.02,0.01,0.02,
3.067,-0.11,-0.09,-0.13,-0.02,0.01,0.02,
3.067,-0.20,-0.11,0.04,-0.02,0.01,0.02,
3.093,-0.20,-0.11,0.04,-0.02,0.01,0.02,
3.094,-0.20,-0.11,0.04,-0.02,0.02,0.02,
3.095,-0.20,-0.11,0.04,-0.01,0.02,0.03,
3.096,-0.20,-0.11,0.04,-0.01,0.02,0.03,
3.098,-0.20,-0.11,0.04,-0.01,0.02,0.04,
3.102,-0.30,-0.14,0.15,-0.01,0.02,0.04,
3.103,-0.30,-0.14,0.15,-0.00,0.02,0.04,
3.104,-0.30,-0.14,0.15,0.00,0.02,0.04,
3.104,-0.30,-0.14,0.15,0.01,0.02,0.05,
3.104,-0.30,-0.14,0.15,0.01,0.02,0.05,
3.105,-0.30,-0.14,0.15,0.01,0.02,0.06,
3.105,-0.28,-0.14,0.12,0.01,0.02,0.06,
3.106,-0.28,-0.14,0.12,0.02,0.01,0.06,
3.107,-0.28,-0.14,0.12,0.02,0.01,0.06,
3.107,-0.28,-0.14,0.12,0.02,0.00,0.06,
3.108,-0.28,-0.14,0.12,0.02,0.00,0.07,
3.108,-0.28,-0.14,0.12,0.03,-0.00,0.07,
3.109,-0.21,-0.09,0.01,0.03,-0.00,0.07,
3.109,-0.21,-0.09,0.01,0.03,-0.01,0.07,
3.11,-0.21,-0.09,0.01,0.03,-0.02,0.07,
3.11,-0.21,-0.09,0.01,0.03,-0.02,0.07,
3.111,-0.21,-0.09,0.01,0.03,-0.03,0.07,
3.111,-0.21,-0.09,0.01,0.03,-0.03,0.07,
3.112,-0.11,-0.04,-0.10,0.03,-0.03,0.07,
3.112,-0.11,-0.04,-0.10,0.03,-0.04,0.07,
3.113,-0.11,-0.04,-0.10,0.03,-0.04,0.07,
3.114,-0.11,-0.04,-0.10,0.03,-0.05,0.07,
3.114,-0.11,-0.04,-0.10,0.03,-0.05,0.07,
3.115,-0.11,-0.04,-0.10,0.03,-0.05,0.07,
3.115,0.01,-0.04,-0.20,0.03,-0.05,0.07,
3.116,0.01,-0.04,-0.20,0.02,-0.05,0.07,
3.116,0.01,-0.04,-0.20,0.02,-0.05,0.06,
3.117,0.01,-0.04,-0.20,0.01,-0.05,0.06,
3.117,0.01,-0.04,-0.20,0.01,-0.05,0.06,
3.118,0.01,-0.04,-0.20,0.00,-0.05,0.06,
3.118,0.07,-0.02,-0.25,0.00,-0.05,0.06,
3.119,0.07,-0.02,-0.25,0.00,-0.05,0.06,
3.119,0.07,-0.02,-0.25,-0.00,-0.04,0.06,
3.119,0.07,-0.02,-0.25,-0.01,-0.03,0.06,
3.12,0.07,-0.02,-0.25,-0.02,-0.02,0.06,
3.12,0.07,-0.02,-0.25,-0.02,-0.02,0.06,
3.121,0.11,0.01,-0.28,-0.02,-0.02,0.06,
3.121,0.11,0.01,-0.28,-0.03,-0.01,0.06,
3.122,0.11,0.01,-0.28,-0.04,-0.00,0.06,
3.122,0.11,0.01,-0.28,-0.04,0.01,0.06,
3.122,0.11,0.01,-0.28,-0.05,0.01,0.06,
3.123,0.11,0.01,-0.28,-0.05,0.02,0.06,
3.123,0.12,0.03,-0.23,-0.05,0.02,0.06,
3.124,0.12,0.03,-0.23,-0.06,0.03,0.06,
3.124,0.12,0.03,-0.23,-0.06,0.04,0.06,
3.124,0.12,0.03,-0.23,-0.07,0.05,0.06,
3.125,0.12,0.03,-0.23,-0.07,0.06,0.06,
3.125,0.12,0.03,-0.23,-0.07,0.07,0.06,
3.125,0.14,0.08,-0.17,-0.07,0.07,0.06,
3.126,0.14,0.08,-0.17,-0.08,0.08,0.06,
3.127,0.14,0.08,-0.17,-0.08,0.09,0.06,
3.127,0.14,0.08,-0.17,-0.08,0.10,0.06,
3.13,0.14,0.08,-0.17,-0.09,0.11,0.06,
3.131,0.14,0.08,-0.17,-0.09,0.11,0.06,
3.131,0.15,0.14,-0.14,-0.09,0.11,0.06,
3.131,0.15,0.14,-0.14,-0.09,0.12,0.06,
3.139,0.15,0.14,-0.14,-0.09,0.12,0.06,
3.141,0.15,0.14,-0.14,-0.09,0.12,0.06,
3.144,0.15,0.14,-0.14,-0.09,0.12,0.06,
3.144,0.15,0.14,-0.14,-0.09,0.12,0.06,
3.144,0.15,0.17,-0.05,-0.09,0.12,0.06,
3.145,0.15,0.17,-0.05,-0.08,0.12,0.05,
3.145,0.15,0.17,-0.05,-0.08,0.11,0.05,
3.156,0.15,0.17,-0.05,-0.07,0.11,0.05,
3.157,0.15,0.17,-0.05,-0.07,0.10,0.05,
3.158,0.15,0.17,-0.05,-0.06,0.09,0.05,
3.158,0.09,0.15,0.04,-0.06,0.09,0.05,
3.158,0.09,0.15,0.04,-0.06,0.09,0.05,
3.158,0.09,0.15,0.04,-0.05,0.08,0.04,
3.158,0.09,0.15,0.04,-0.05,0.06,0.04,
3.159,0.09,0.15,0.04,-0.04,0.06,0.04,
3.159,0.09,0.15,0.04,-0.04,0.04,0.04,
3.162,0.08,0.15,0.07,-0.04,0.04,0.04,
3.163,0.08,0.15,0.07,-0.03,0.03,0.04,
3.163,0.08,0.15,0.07,-0.02,0.02,0.04,
3.173,0.08,0.15,0.07,-0.02,0.00,0.03,
3.175,0.08,0.15,0.07,-0.01,-0.00,0.03,
3.175,0.08,0.15,0.07,-0.01,-0.01,0.03,
3.176,0.14,0.15,-0.02,-0.01,-0.01,0.03,
3.176,0.14,0.15,-0.02,-0.01,-0.02,0.03,
3.176,0.14,0.15,-0.02,-0.01,-0.03,0.02,
3.177,0.14,0.15,-0.02,-0.01,-0.04,0.01,
3.177,0.14,0.15,-0.02,-0.01,-0.05,0.01,
3.231,0.14,0.15,-0.02,-0.01,-0.05,0.01,
3.231,0.25,0.16,-0.15,-0.01,-0.05,0.01,
3.232,0.25,0.16,-0.15,-0.01,-0.06,0.00,
3.232,0.25,0.16,-0.15,-0.01,-0.06,-0.00,
3.232,0.25,0.16,-0.15,-0.02,-0.06,-0.01,
3.232,0.25,0.16,-0.15,-0.02,-0.06,-0.01,
3.232,0.25,0.16,-0.15,-0.03,-0.06,-0.01,
3.233,0.26,0.12,-0.23,-0.03,-0.06,-0.01,
3.233,0.26,0.12,-0.23,-0.03,-0.06,-0.02,
3.233,0.26,0.12,-0.23,-0.03,-0.05,-0.02,
3.233,0.26,0.12,-0.23,-0.04,-0.04,-0.02,
3.234,0.26,0.12,-0.23,-0.05,-0.04,-0.03,
3.257,0.26,0.12,-0.23,-0.06,-0.04,-0.03,
3.257,0.20,0.09,-0.24,-0.06,-0.04,-0.03,
3.257,0.20,0.09,-0.24,-0.06,-0.03,-0.02,
3.258,0.20,0.09,-0.24,-0.07,-0.02,-0.02,
3.258,0.20,0.09,-0.24,-0.08,-0.00,-0.02,
3.258,0.20,0.09,-0.24,-0.08,0.00,-0.02,
3.259,0.20,0.09,-0.24,-0.09,0.01,-0.02,
3.259,0.07,0.00,-0.24,-0.09,0.01,-0.02,
3.259,0.07,0.00,-0.24,-0.10,0.02,-0.02,
3.259,0.07,0.00,-0.24,-0.11,0.03,-0.01,
3.26,0.07,0.00,-0.24,-0.12,0.05,-0.01,
3.26,0.07,0.00,-0.24,-0.12,0.06,-0.01,
3.26,0.07,0.00,-0.24,-0.12,0.07,-0.00,
3.26,-0.03,-0.04,-0.16,-0.12,0.07,-0.00,
3.261,-0.03,-0.04,-0.16,-0.13,0.08,0.00,
3.261,-0.03,-0.04,-0.16,-0.13,0.08,0.00,
3.261,-0.03,-0.04,-0.16,-0.14,0.10,0.01,
3.262,-0.03,-0.04,-0.16,-0.14,0.10,0.01,
3.262,-0.03,-0.04,-0.16,-0.14,0.10,0.02,
3.262,-0.10,-0.07,0.03,-0.14,0.10,0.02,
3.262,-0.10,-0.07,0.03,-0.14,0.11,0.02,
3.263,-0.10,-0.07,0.03,-0.13,0.11,0.03,
3.263,-0.10,-0.07,0.03,-0.12,0.12,0.03,
3.263,-0.10,-0.07,0.03,-0.12,0.12,0.03,
3.263,-0.10,-0.07,0.03,-0.12,0.11,0.03,
3.264,-0.05,-0.07,0.18,-0.12,0.11,0.03,
3.264,-0.05,-0.07,0.18,-0.11,0.11,0.03,
3.264,-0.05,-0.07,0.18,-0.11,0.11,0.03,
3.264,-0.05,-0.07,0.18,-0.10,0.10,0.03,
3.265,-0.05,-0.07,0.18,-0.09,0.09,0.03,
3.265,-0.05,-0.07,0.18,-0.09,0.09,0.03,
3.265,0.04,-0.07,0.17,-0.09,0.09,0.03,
3.266,0.04,-0.07,0.17,-0.09,0.09,0.02,
3.266,0.04,-0.07,0.17,-0.08,0.08,0.02,
3.266,0.04,-0.07,0.17,-0.08,0.06,0.02,
3.266,0.04,-0.07,0.17,-0.08,0.06,0.02,
3.267,0.04,-0.07,0.17,-0.08,0.05,0.01,
3.267,0.08,-0.08,0.03,-0.08,0.05,0.01,
3.267,0.08,-0.08,0.03,-0.07,0.04,0.01,
3.267,0.08,-0.08,0.03,-0.07,0.03,0.00,
3.267,0.08,-0.08,0.03,-0.07,0.02,-0.00,
3.268,0.08,-0.08,0.03,-0.07,0.01,-0.00,
3.272,0.08,-0.08,0.03,-0.06,0.01,-0.01,
3.273,0.09,-0.06,-0.00,-0.06,0.01,-0.01,
3.273,0.09,-0.06,-0.00,-0.06,0.00,-0.01,
3.273,0.09,-0.06,-0.00,-0.06,-0.01,-0.01,
3.278,0.09,-0.06,-0.00,-0.06,-0.01,-0.02,
3.278,0.09,-0.06,-0.00,-0.06,-0.01,-0.02,
3.279,0.09,-0.06,-0.00,-0.06,-0.02,-0.02,
3.286,0.07,-0.05,-0.05,-0.06,-0.02,-0.02,
3.287,0.07,-0.05,-0.05,-0.06,-0.02,-0.02,
3.287,0.07,-0.05,-0.05,-0.06,-0.02,-0.03,
3.287,0.07,-0.05,-0.05,-0.06,-0.03,-0.03,
3.287,0.07,-0.05,-0.05,-0.06,-0.03,-0.03,
3.291,0.07,-0.05,-0.05,-0.07,-0.03,-0.03,
3.291,0.04,-0.08,-0.09,-0.07,-0.03,-0.03,
3.292,0.04,-0.08,-0.09,-0.07,-0.03,-0.03,
3.292,0.04,-0.08,-0.09,-0.07,-0.03,-0.03,
3.301,0.04,-0.08,-0.09,-0.07,-0.03,-0.03,
3.301,0.04,-0.08,-0.09,-0.08,-0.03,-0.03,
3.302,0.04,-0.08,-0.09,-0.08,-0.03,-0.03,
3.302,-0.09,-0.09,-0.08,-0.08,-0.03,-0.03,
3.302,-0.09,-0.09,-0.08,-0.08,-0.02,-0.02,
3.303,-0.09,-0.09,-0.08,-0.08,-0.02,-0.02,
3.306,-0.09,-0.09,-0.08,-0.09,-0.01,-0.01,
3.307,-0.09,-0.09,-0.08,-0.09,-0.00,-0.01,
3.309,-0.09,-0.09,-0.08,-0.09,0.00,-0.01,
3.311,-0.19,-0.11,-0.01,-0.09,0.00,-0.01,
3.311,-0.19,-0.11,-0.01,-0.09,0.01,-0.00,
3.355,-0.19,-0.11,-0.01,-0.09,0.01,0.00,
3.356,-0.19,-0.11,-0.01,-0.09,0.03,0.01,
3.356,-0.19,-0.11,-0.01,-0.09,0.03,0.01,
3.356,-0.19,-0.11,-0.01,-0.09,0.03,0.01,
3.356,-0.21,-0.07,0.03,-0.09,0.03,0.01,
3.357,-0.21,-0.07,0.03,-0.09,0.04,0.02,
3.357,-0.21,-0.07,0.03,-0.09,0.04,0.02,
3.357,-0.21,-0.07,0.03,-0.09,0.05,0.03,
3.357,-0.21,-0.07,0.03,-0.09,0.05,0.03,
3.358,-0.21,-0.07,0.03,-0.09,0.05,0.03,
3.358,-0.17,-0.01,0.00,-0.09,0.05,0.03,
3.358,-0.17,-0.01,0.00,-0.09,0.05,0.03,
3.358,-0.17,-0.01,0.00,-0.09,0.05,0.03,
3.358,-0.17,-0.01,0.00,-0.09,0.05,0.03,
3.358,-0.17,-0.01,0.00,-0.09,0.05,0.03,
3.359,-0.17,-0.01,0.00,-0.09,0.05,0.03,
3.359,-0.09,0.10,-0.05,-0.09,0.05,0.03,
3.359,-0.09,0.10,-0.05,-0.09,0.04,0.03,
3.359,-0.09,0.10,-0.05,-0.09,0.04,0.03,
3.359,-0.09,0.10,-0.05,-0.09,0.03,0.02,
3.36,-0.09,0.10,-0.05,-0.08,0.02,0.02,
3.36,-0.09,0.10,-0.05,-0.08,0.02,0.02,
3.36,-0.08,0.13,-0.11,-0.08,0.02,0.02,
3.36,-0.08,0.13,-0.11,-0.09,0.01,0.02,
3.36,-0.08,0.13,-0.11,-0.09,0.00,0.02,
3.361,-0.08,0.13,-0.11,-0.09,-0.01,0.02,
3.361,-0.08,0.13,-0.11,-0.09,-0.02,0.02,
3.361,-0.08,0.13,-0.11,-0.09,-0.02,0.01,
3.361,-0.02,0.14,-0.21,-0.09,-0.02,0.01,
3.361,-0.02,0.14,-0.21,-0.10,-0.03,0.01,
3.367,-0.02,0.14,-0.21,-0.10,-0.04,0.01,
3.396,-0.02,0.14,-0.21,-0.11,-0.05,0.01,
3.397,-0.02,0.14,-0.21,-0.11,-0.05,0.01,
3.397,-0.02,0.14,-0.21,-0.11,-0.05,0.00,
3.397,0.08,0.15,-0.27,-0.11,-0.05,0.00,
3.398,0.08,0.15,-0.27,-0.12,-0.06,0.00,
3.398,0.08,0.15,-0.27,-0.12,-0.06,-0.00,
3.398,0.08,0.15,-0.27,-0.13,-0.06,-0.01,
3.399,0.08,0.15,-0.27,-0.14,-0.06,-0.01,
3.399,0.08,0.15,-0.27,-0.14,-0.06,-0.01,
3.399,0.16,0.17,-0.16,-0.14,-0.06,-0.01,
3.399,0.16,0.17,-0.16,-0.14,-0.05,-0.01,
3.4,0.16,0.17,-0.16,-0.14,-0.05,-0.01,
3.4,0.16,0.17,-0.16,-0.14,-0.04,-0.02,
3.4,0.16,0.17,-0.16,-0.13,-0.03,-0.02,
3.4,0.16,0.17,-0.16,-0.13,-0.03,-0.02,
3.401,0.19,0.16,0.14,-0.13,-0.03,-0.02,
3.401,0.19,0.16,0.14,-0.12,-0.02,-0.02,
3.401,0.19,0.16,0.14,-0.12,-0.01,-0.02,
3.402,0.19,0.16,0.14,-0.11,0.00,-0.02,
3.402,0.19,0.16,0.14,-0.10,0.01,-0.02,
3.402,0.19,0.16,0.14,-0.10,0.01,-0.02,
3.402,0.16,0.20,0.33,-0.10,0.01,-0.02,
3.403,0.16,0.20,0.33,-0.09,0.02,-0.02,
3.403,0.16,0.20,0.33,-0.08,0.03,-0.02,
3.407,0.16,0.20,0.33,-0.07,0.04,-0.01,
3.408,0.16,0.20,0.33,-0.07,0.05,-0.01,
3.408,0.16,0.20,0.33,-0.06,0.05,-0.01,
3.412,0.10,0.28,0.29,-0.06,0.05,-0.01,
3.413,0.10,0.28,0.29,-0.06,0.05,-0.01,
3.413,0.10,0.28,0.29,-0.05,0.06,-0.01,
3.417,0.10,0.28,0.29,-0.04,0.06,-0.01,
3.418,0.10,0.28,0.29,-0.04,0.06,-0.01,
3.419,0.10,0.28,0.29,-0.04,0.06,-0.01,
3.423,0.03,0.36,0.19,-0.04,0.06,-0.01,
3.424,0.03,0.36,0.19,-0.03,0.06,-0.01,
3.424,0.03,0.36,0.19,-0.02,0.06,-0.01,
3.428,0.03,0.36,0.19,-0.01,0.05,-0.01,
3.428,0.03,0.36,0.19,-0.01,0.04,-0.01,
3.429,0.03,0.36,0.19,-0.00,0.04,-0.01,
3.439,0.00,0.45,0.07,-0.00,0.04,-0.01,
3.44,0.00,0.45,0.07,0.00,0.03,-0.01,
3.44,0.00,0.45,0.07,0.01,0.02,-0.01,
3.44,0.00,0.45,0.07,0.02,0.01,-0.01,
3.441,0.00,0.45,0.07,0.02,-0.00,-0.01,
3.441,0.00,0.45,0.07,0.03,-0.01,-0.02,
3.441,-0.01,0.61,-0.06,0.03,-0.01,-0.02,
3.441,-0.01,0.61,-0.06,0.03,-0.02,-0.02,
3.443,-0.01,0.61,-0.06,0.04,-0.03,-0.02,
3.491,-0.01,0.61,-0.06,0.04,-0.05,-0.03,
3.492,-0.01,0.61,-0.06,0.05,-0.06,-0.03,
3.492,-0.01,0.61,-0.06,0.05,-0.07,-0.03,
3.492,0.02,0.68,-0.17,0.05,-0.07,-0.03,
3.492,0.02,0.68,-0.17,0.05,-0.08,-0.04,
3.492,0.02,0.68,-0.17,0.06,-0.09,-0.04,
3.493,0.02,0.68,-0.17,0.06,-0.11,-0.05,
3.493,0.02,0.68,-0.17,0.06,-0.11,-0.06,
3.493,0.02,0.68,-0.17,0.06,-0.12,-0.06,
3.493,0.07,0.76,-0.35,0.06,-0.12,-0.06,
3.493,0.07,0.76,-0.35,0.06,-0.13,-0.06,
3.493,0.07,0.76,-0.35,0.05,-0.13,-0.07,
3.494,0.07,0.76,-0.35,0.05,-0.14,-0.07,
3.494,0.07,0.76,-0.35,0.04,-0.14,-0.08,
3.494,0.07,0.76,-0.35,0.04,-0.14,-0.08,
3.494,0.07,0.77,-0.53,0.04,-0.14,-0.08,
3.494,0.07,0.77,-0.53,0.03,-0.14,-0.09,
3.494,0.07,0.77,-0.53,0.02,-0.14,-0.09,
3.495,0.07,0.77,-0.53,0.01,-0.14,-0.10,
3.495,0.07,0.77,-0.53,0.00,-0.13,-0.10,
3.495,0.07,0.77,-0.53,-0.01,-0.13,-0.10,
3.495,0.11,0.78,-0.62,-0.01,-0.13,-0.10,
3.495,0.11,0.78,-0.62,-0.02,-0.12,-0.11,
3.495,0.11,0.78,-0.62,-0.03,-0.11,-0.11,
3.495,0.11,0.78,-0.62,-0.04,-0.11,-0.12,
3.496,0.11,0.78,-0.62,-0.06,-0.10,-0.12,
3.496,0.11,0.78,-0.62,-0.06,-0.09,-0.13,
3.496,0.14,0.72,-0.58,-0.06,-0.09,-0.13,
3.496,0.14,0.72,-0.58,-0.07,-0.08,-0.13,
3.496,0.14,0.72,-0.58,-0.08,-0.08,-0.13,
3.496,0.14,0.72,-0.58,-0.10,-0.07,-0.14,
3.503,0.14,0.72,-0.58,-0.11,-0.06,-0.14,
3.504,0.14,0.72,-0.58,-0.11,-0.05,-0.14,
3.504,0.08,0.69,-0.42,-0.11,-0.05,-0.14,
3.505,0.08,0.69,-0.42,-0.12,-0.04,-0.14,
3.505,0.08,0.69,-0.42,-0.13,-0.04,-0.15,
3.506,0.08,0.69,-0.42,-0.14,-0.02,-0.15,
3.507,0.08,0.69,-0.42,-0.14,-0.02,-0.15,
3.509,0.08,0.69,-0.42,-0.14,-0.01,-0.15,
3.516,0.01,0.61,-0.20,-0.14,-0.01,-0.15,
3.517,0.01,0.61,-0.20,-0.14,-0.00,-0.15,
3.518,0.01,0.61,-0.20,-0.14,0.00,-0.15,
3.518,0.01,0.61,-0.20,-0.15,0.01,-0.15,
3.519,0.01,0.61,-0.20,-0.15,0.01,-0.15,
3.519,0.01,0.61,-0.20,-0.14,0.01,-0.16,
3.521,0.06,0.53,0.08,-0.14,0.01,-0.16,
3.522,0.06,0.53,0.08,-0.14,0.01,-0.16,
3.523,0.06,0.53,0.08,-0.14,0.01,-0.16,
3.526,0.06,0.53,0.08,-0.13,0.01,-0.17,
3.527,0.06,0.53,0.08,-0.12,0.00,-0.17,
3.533,0.06,0.53,0.08,-0.11,-0.00,-0.18,
3.536,0.17,0.44,0.41,-0.11,-0.00,-0.18,
3.573,0.17,0.44,0.41,-0.11,-0.01,-0.18,
3.574,0.17,0.44,0.41,-0.09,-0.03,-0.19,
3.574,0.17,0.44,0.41,-0.07,-0.04,-0.19,
3.575,0.17,0.44,0.41,-0.06,-0.04,-0.20,
3.576,0.17,0.44,0.41,-0.05,-0.05,-0.20,
3.576,0.22,0.39,0.59,-0.05,-0.05,-0.20,
3.577,0.22,0.39,0.59,-0.04,-0.07,-0.20,
3.578,0.22,0.39,0.59,-0.02,-0.08,-0.21,
3.579,0.22,0.39,0.59,-0.01,-0.10,-0.21,
3.579,0.22,0.39,0.59,0.00,-0.12,-0.22,
3.58,0.22,0.39,0.59,0.02,-0.14,-0.22,
3.581,0.24,0.41,0.59,0.02,-0.14,-0.22,
3.581,0.24,0.41,0.59,0.03,-0.15,-0.23,
3.582,0.24,0.41,0.59,0.04,-0.17,-0.23,
3.583,0.24,0.41,0.59,0.05,-0.19,-0.24,
3.583,0.24,0.41,0.59,0.06,-0.20,-0.24,
3.583,0.24,0.41,0.59,0.07,-0.22,-0.25,
3.584,0.34,0.44,0.41,0.07,-0.22,-0.25,
3.584,0.34,0.44,0.41,0.07,-0.23,-0.25,
3.585,0.34,0.44,0.41,0.08,-0.25,-0.26,
3.585,0.34,0.44,0.41,0.08,-0.26,-0.27,
3.586,0.34,0.44,0.41,0.08,-0.26,-0.27,
3.587,0.34,0.44,0.41,0.08,-0.27,-0.28,
3.587,0.49,0.44,0.14,0.08,-0.27,-0.28,
3.588,0.49,0.44,0.14,0.08,-0.28,-0.29,
3.588,0.49,0.44,0.14,0.08,-0.28,-0.29,
3.59,0.49,0.44,0.14,0.07,-0.28,-0.30,
3.591,0.49,0.44,0.14,0.07,-0.29,-0.31,
3.592,0.49,0.44,0.14,0.06,-0.29,-0.32,
3.592,0.58,0.45,-0.09,0.06,-0.29,-0.32,
3.593,0.58,0.45,-0.09,0.05,-0.29,-0.32,
3.593,0.58,0.45,-0.09,0.05,-0.29,-0.33,
3.594,0.58,0.45,-0.09,0.04,-0.28,-0.33,
3.595,0.58,0.45,-0.09,0.03,-0.27,-0.34,
3.595,0.58,0.45,-0.09,0.03,-0.27,-0.35,
3.595,0.60,0.43,-0.19,0.03,-0.27,-0.35,
3.596,0.60,0.43,-0.19,0.02,-0.26,-0.35,
3.596,0.60,0.43,-0.19,0.02,-0.25,-0.36,
3.596,0.60,0.43,-0.19,0.01,-0.24,-0.36,
3.597,0.60,0.43,-0.19,0.00,-0.24,-0.37,
3.599,0.60,0.43,-0.19,-0.01,-0.23,-0.37,
3.601,0.65,0.43,-0.24,-0.01,-0.23,-0.37,
3.602,0.65,0.43,-0.24,-0.01,-0.22,-0.38,
3.603,0.65,0.43,-0.24,-0.02,-0.21,-0.38,
3.606,0.65,0.43,-0.24,-0.02,-0.21,-0.39,
3.606,0.65,0.43,-0.24,-0.02,-0.20,-0.39,
3.608,0.65,0.43,-0.24,-0.03,-0.19,-0.40,
3.623,0.66,0.41,-0.16,-0.03,-0.19,-0.40,
3.624,0.66,0.41,-0.16,-0.03,-0.18,-0.41,
3.624,0.66,0.41,-0.16,-0.03,-0.18,-0.41,
3.624,0.66,0.41,-0.16,-0.03,-0.17,-0.42,
3.625,0.66,0.41,-0.16,-0.03,-0.17,-0.42,
3.625,0.66,0.41,-0.16,-0.03,-0.17,-0.43,
3.626,0.60,0.43,-0.13,-0.03,-0.17,-0.43,
3.626,0.60,0.43,-0.13,-0.03,-0.17,-0.43,
3.627,0.60,0.43,-0.13,-0.02,-0.17,-0.44,
3.627,0.60,0.43,-0.13,-0.02,-0.17,-0.44,
3.627,0.60,0.43,-0.13,-0.02,-0.17,-0.45,
3.684,0.60,0.43,-0.13,-0.01,-0.18,-0.46,
3.685,0.54,0.41,-0.16,-0.01,-0.18,-0.46,
3.685,0.54,0.41,-0.16,-0.01,-0.18,-0.46,
3.686,0.54,0.41,-0.16,-0.01,-0.19,-0.47,
3.686,0.54,0.41,-0.16,-0.00,-0.20,-0.47,
3.686,0.54,0.41,-0.16,-0.00,-0.21,-0.48,
3.687,0.54,0.41,-0.16,0.00,-0.22,-0.49,
3.687,0.51,0.45,-0.24,0.00,-0.22,-0.49,
3.687,0.51,0.45,-0.24,0.01,-0.24,-0.50,
3.687,0.51,0.45,-0.24,0.01,-0.25,-0.51,
3.688,0.51,0.45,-0.24,0.02,-0.27,-0.52,
3.688,0.51,0.45,-0.24,0.02,-0.27,-0.52,
3.688,0.51,0.45,-0.24,0.02,-0.29,-0.53,
3.689,0.40,0.44,-0.41,0.02,-0.29,-0.53,
3.689,0.40,0.44,-0.41,0.02,-0.30,-0.53,
3.689,0.40,0.44,-0.41,0.03,-0.31,-0.54,
3.69,0.40,0.44,-0.41,0.03,-0.33,-0.55,
3.69,0.40,0.44,-0.41,0.02,-0.34,-0.56,
3.69,0.40,0.44,-0.41,0.02,-0.35,-0.57,
3.691,0.38,0.44,-0.63,0.02,-0.35,-0.57,
3.691,0.38,0.44,-0.63,0.02,-0.37,-0.57,
3.691,0.38,0.44,-0.63,0.02,-0.38,-0.58,
3.691,0.38,0.44,-0.63,0.01,-0.39,-0.59,
3.692,0.38,0.44,-0.63,0.01,-0.40,-0.60,
3.692,0.38,0.44,-0.63,0.00,-0.41,-0.61,
3.692,0.36,0.41,-0.81,0.00,-0.41,-0.61,
3.693,0.36,0.41,-0.81,-0.00,-0.42,-0.62,
3.693,0.36,0.41,-0.81,-0.01,-0.43,-0.62,
3.693,0.36,0.41,-0.81,-0.02,-0.44,-0.63,
3.694,0.36,0.41,-0.81,-0.03,-0.45,-0.64,
3.694,0.36,0.41,-0.81,-0.03,-0.45,-0.65,
3.694,0.32,0.41,-0.92,-0.03,-0.45,-0.65,
3.695,0.32,0.41,-0.92,-0.04,-0.46,-0.65,
3.695,0.32,0.41,-0.92,-0.05,-0.47,-0.66,
3.695,0.32,0.41,-0.92,-0.06,-0.47,-0.67,
3.696,0.32,0.41,-0.92,-0.06,-0.47,-0.67,
3.696,0.32,0.41,-0.92,-0.07,-0.48,-0.68,
3.696,0.22,0.30,-0.91,-0.07,-0.48,-0.68,
3.696,0.22,0.30,-0.91,-0.08,-0.48,-0.69,
3.697,0.22,0.30,-0.91,-0.09,-0.49,-0.69,
3.697,0.22,0.30,-0.91,-0.10,-0.50,-0.70,
3.697,0.22,0.30,-0.91,-0.10,-0.50,-0.70,
3.722,0.22,0.30,-0.91,-0.11,-0.50,-0.71,
3.723,0.18,0.24,-0.87,-0.11,-0.50,-0.71,
3.724,0.18,0.24,-0.87,-0.12,-0.51,-0.71,
3.724,0.18,0.24,-0.87,-0.12,-0.51,-0.72,
3.725,0.18,0.24,-0.87,-0.13,-0.51,-0.72,
3.725,0.18,0.24,-0.87,-0.13,-0.51,-0.73,
3.726,0.18,0.24,-0.87,-0.14,-0.51,-0.74,
3.727,0.20,0.13,-0.76,-0.14,-0.51,-0.74,
3.727,0.20,0.13,-0.76,-0.15,-0.51,-0.74,
3.727,0.20,0.13,-0.76,-0.15,-0.51,-0.75,
3.727,0.20,0.13,-0.76,-0.16,-0.51,-0.75,
3.728,0.20,0.13,-0.76,-0.17,-0.51,-0.76,
3.728,0.20,0.13,-0.76,-0.17,-0.50,-0.76,
3.728,0.16,0.06,-0.71,-0.17,-0.50,-0.76,
3.728,0.16,0.06,-0.71,-0.18,-0.50,-0.76,
3.729,0.16,0.06,-0.71,-0.19,-0.49,-0.76,
3.729,0.16,0.06,-0.71,-0.20,-0.49,-0.77,
3.729,0.16,0.06,-0.71,-0.20,-0.48,-0.77,
3.73,0.16,0.06,-0.71,-0.21,-0.48,-0.77,
3.734,0.04,0.02,-0.70,-0.21,-0.48,-0.77,
3.735,0.04,0.02,-0.70,-0.22,-0.47,-0.77,
3.735,0.04,0.02,-0.70,-0.23,-0.47,-0.76,
3.736,0.04,0.02,-0.70,-0.23,-0.46,-0.77,
3.739,0.04,0.02,-0.70,-0.24,-0.46,-0.77,
3.739,0.04,0.02,-0.70,-0.25,-0.46,-0.77,
3.743,0.02,0.01,-0.59,-0.25,-0.46,-0.77,
3.743,0.02,0.01,-0.59,-0.25,-0.46,-0.77,
3.744,0.02,0.01,-0.59,-0.25,-0.46,-0.78,
3.758,0.02,0.01,-0.59,-0.25,-0.46,-0.78,
3.759,0.02,0.01,-0.59,-0.25,-0.46,-0.78,
3.759,0.02,0.01,-0.59,-0.25,-0.47,-0.79,
3.759,0.06,0.07,-0.35,-0.25,-0.47,-0.79,
3.759,0.06,0.07,-0.35,-0.25,-0.47,-0.79,
3.76,0.06,0.07,-0.35,-0.24,-0.48,-0.80,
3.76,0.06,0.07,-0.35,-0.24,-0.48,-0.80,
3.76,0.06,0.07,-0.35,-0.24,-0.49,-0.81,
3.76,0.06,0.07,-0.35,-0.23,-0.50,-0.82,
3.761,0.12,0.14,-0.23,-0.23,-0.50,-0.82,
3.763,0.12,0.14,-0.23,-0.22,-0.51,-0.82,
3.764,0.12,0.14,-0.23,-0.22,-0.52,-0.83,
3.767,0.12,0.14,-0.23,-0.21,-0.54,-0.84,
3.767,0.12,0.14,-0.23,-0.21,-0.54,-0.84,
3.769,0.12,0.14,-0.23,-0.20,-0.56,-0.85,
3.772,0.15,0.15,-0.20,-0.20,-0.56,-0.85,
3.773,0.15,0.15,-0.20,-0.19,-0.57,-0.86,
3.773,0.15,0.15,-0.20,-0.19,-0.58,-0.86,
3.777,0.15,0.15,-0.20,-0.18,-0.60,-0.88,
3.806,0.15,0.15,-0.20,-0.18,-0.61,-0.88,
3.807,0.15,0.15,-0.20,-0.17,-0.62,-0.89,
3.807,0.11,0.15,-0.27,-0.17,-0.62,-0.89,
3.807,0.11,0.15,-0.27,-0.17,-0.64,-0.89,
3.807,0.11,0.15,-0.27,-0.16,-0.66,-0.90,
3.808,0.11,0.15,-0.27,-0.15,-0.68,-0.91,
3.808,0.11,0.15,-0.27,-0.15,-0.70,-0.91,
3.808,0.11,0.15,-0.27,-0.15,-0.72,-0.92,
3.808,0.01,0.13,-0.35,-0.15,-0.72,-0.92,
3.808,0.01,0.13,-0.35,-0.14,-0.74,-0.92,
3.809,0.01,0.13,-0.35,-0.14,-0.77,-0.93,
3.809,0.01,0.13,-0.35,-0.14,-0.81,-0.94,
3.809,0.01,0.13,-0.35,-0.14,-0.82,-0.94,
3.809,0.01,0.13,-0.35,-0.14,-0.85,-0.95,
3.81,0.02,0.16,-0.45,-0.14,-0.85,-0.95,
3.81,0.02,0.16,-0.45,-0.14,-0.87,-0.96,
3.81,0.02,0.16,-0.45,-0.14,-0.90,-0.97,
3.81,0.02,0.16,-0.45,-0.14,-0.93,-0.98,
3.81,0.02,0.16,-0.45,-0.14,-0.95,-0.98,
3.81,0.02,0.16,-0.45,-0.14,-0.97,-0.99,
3.811,0.05,0.16,-0.40,-0.14,-0.97,-0.99,
3.811,0.05,0.16,-0.40,-0.14,-0.99,-0.99,
3.82,0.05,0.16,-0.40,-0.14,-1.01,-1.00,
3.824,0.05,0.16,-0.40,-0.14,-1.04,-1.01,
3.824,0.05,0.16,-0.40,-0.14,-1.05,-1.01,
3.824,0.05,0.16,-0.40,-0.14,-1.07,-1.02,
3.825,-0.01,0.07,-0.20,-0.14,-1.07,-1.02,
3.826,-0.01,0.07,-0.20,-0.14,-1.09,-1.02,
3.828,-0.01,0.07,-0.20,-0.14,-1.11,-1.02,
3.833,-0.01,0.07,-0.20,-0.13,-1.13,-1.02,
3.834,-0.01,0.07,-0.20,-0.13,-1.14,-1.02,
3.835,-0.01,0.07,-0.20,-0.12,-1.16,-1.02,
3.836,-0.00,-0.00,0.05,-0.12,-1.16,-1.02,
3.836,-0.00,-0.00,0.05,-0.12,-1.18,-1.03,
3.836,-0.00,-0.00,0.05,-0.11,-1.20,-1.03,
3.837,-0.00,-0.00,0.05,-0.11,-1.22,-1.03,
3.837,-0.00,-0.00,0.05,-0.11,-1.23,-1.03,
3.841,-0.00,-0.00,0.05,-0.10,-1.24,-1.03,
3.844,0.03,-0.06,0.33,-0.10,-1.24,-1.03,
3.848,0.03,-0.06,0.33,-0.09,-1.26,-1.04,
3.849,0.03,-0.06,0.33,-0.09,-1.27,-1.04,
3.851,0.03,-0.06,0.33,-0.08,-1.28,-1.04,
3.852,0.03,-0.06,0.33,-0.08,-1.29,-1.05,
3.852,0.03,-0.06,0.33,-0.07,-1.29,-1.05,
3.853,0.09,-0.07,0.54,-0.07,-1.29,-1.05,
3.853,0.09,-0.07,0.54,-0.06,-1.29,-1.05,
3.854,0.09,-0.07,0.54,-0.06,-1.29,-1.05,
3.856,0.09,-0.07,0.54,-0.06,-1.29,-1.05,
3.857,0.09,-0.07,0.54,-0.05,-1.29,-1.05,
3.877,0.09,-0.07,0.54,-0.05,-1.28,-1.06,
3.879,0.18,-0.09,0.62,-0.05,-1.28,-1.06,
3.88,0.18,-0.09,0.62,-0.05,-1.27,-1.06,
3.88,0.18,-0.09,0.62,-0.05,-1.26,-1.06,
3.91,0.18,-0.09,0.62,-0.05,-1.24,-1.07,
3.911,0.18,-0.09,0.62,-0.05,-1.24,-1.07,
3.911,0.18,-0.09,0.62,-0.05,-1.22,-1.08,
3.911,0.28,-0.19,0.57,-0.05,-1.22,-1.08,
3.911,0.28,-0.19,0.57,-0.05,-1.21,-1.09,
3.912,0.28,-0.19,0.57,-0.05,-1.19,-1.09,
3.912,0.28,-0.19,0.57,-0.06,-1.17,-1.11,
3.912,0.28,-0.19,0.57,-0.06,-1.16,-1.11,
3.913,0.28,-0.19,0.57,-0.06,-1.15,-1.12,
3.913,0.23,-0.22,0.51,-0.06,-1.15,-1.12,
3.913,0.23,-0.22,0.51,-0.06,-1.14,-1.12,
3.914,0.23,-0.22,0.51,-0.06,-1.13,-1.13,
3.914,0.23,-0.22,0.51,-0.05,-1.12,-1.14,
3.914,0.23,-0.22,0.51,-0.05,-1.12,-1.14,
3.914,0.23,-0.22,0.51,-0.05,-1.11,-1.15,
3.915,0.12,-0.23,0.52,-0.05,-1.11,-1.15,
3.915,0.12,-0.23,0.52,-0.04,-1.11,-1.15,
3.915,0.12,-0.23,0.52,-0.04,-1.12,-1.16,
3.915,0.12,-0.23,0.52,-0.03,-1.12,-1.17,
3.916,0.12,-0.23,0.52,-0.03,-1.13,-1.17,
3.916,0.12,-0.23,0.52,-0.03,-1.14,-1.18,
3.916,-0.06,-0.28,0.40,-0.03,-1.14,-1.18,
3.917,-0.06,-0.28,0.40,-0.02,-1.15,-1.18,
3.917,-0.06,-0.28,0.40,-0.03,-1.17,-1.19,
3.917,-0.06,-0.28,0.40,-0.02,-1.20,-1.19,
3.917,-0.06,-0.28,0.40,-0.02,-1.21,-1.20,
3.918,-0.06,-0.28,0.40,-0.02,-1.23,-1.20,
3.918,-0.18,-0.30,0.17,-0.02,-1.23,-1.20,
3.918,-0.18,-0.30,0.17,-0.02,-1.26,-1.21,
3.919,-0.18,-0.30,0.17,-0.02,-1.29,-1.21,
3.919,-0.18,-0.30,0.17,-0.02,-1.35,-1.22,
3.919,-0.18,-0.30,0.17,-0.01,-1.36,-1.23,
3.923,-0.18,-0.30,0.17,-0.01,-1.40,-1.23,
3.924,-0.31,-0.30,0.17,-0.01,-1.40,-1.23,
3.924,-0.31,-0.30,0.17,-0.00,-1.44,-1.24,
3.924,-0.31,-0.30,0.17,0.00,-1.48,-1.24,
3.939,-0.31,-0.30,0.17,0.02,-1.55,-1.25,
3.94,-0.31,-0.30,0.17,0.03,-1.57,-1.25,
3.94,-0.31,-0.30,0.17,0.04,-1.62,-1.26,
3.94,-0.48,-0.34,0.34,0.04,-1.62,-1.26,
3.941,-0.48,-0.34,0.34,0.05,-1.66,-1.26,
3.941,-0.48,-0.34,0.34,0.07,-1.71,-1.26,
3.941,-0.48,-0.34,0.34,0.10,-1.77,-1.26,
3.941,-0.48,-0.34,0.34,0.11,-1.80,-1.26,
3.942,-0.48,-0.34,0.34,0.12,-1.84,-1.27,
3.942,-0.52,-0.37,0.50,0.12,-1.84,-1.27,
3.942,-0.52,-0.37,0.50,0.14,-1.88,-1.27,
3.944,-0.52,-0.37,0.50,0.15,-1.92,-1.27,
3.946,-0.52,-0.37,0.50,0.16,-1.93,-1.25,
3.948,-0.52,-0.37,0.50,0.16,-1.93,-1.25,
3.949,-0.52,-0.37,0.50,0.17,-1.93,-1.24,
3.951,-0.79,-0.93,0.38,0.17,-1.93,-1.24,
3.952,-0.79,-0.93,0.38,0.18,-1.94,-1.23,
3.953,-0.79,-0.93,0.38,0.20,-1.95,-1.23,
3.956,-0.79,-0.93,0.38,0.24,-1.96,-1.24,
3.957,-0.79,-0.93,0.38,0.25,-1.97,-1.24,
3.96,-0.79,-0.93,0.38,0.27,-1.99,-1.25,
3.961,-0.35,-0.37,0.44,0.27,-1.99,-1.25,
3.961,-0.35,-0.37,0.44,0.29,-2.00,-1.26,
3.963,-0.35,-0.37,0.44,0.30,-2.03,-1.28,
3.966,-0.35,-0.37,0.44,0.32,-2.07,-1.30,
3.967,-0.35,-0.37,0.44,0.33,-2.09,-1.31,
3.969,-0.35,-0.37,0.44,0.34,-2.14,-1.32,
3.971,-0.13,0.16,0.37,0.34,-2.14,-1.32,
3.972,-0.13,0.16,0.37,0.35,-2.18,-1.34,
3.973,-0.13,0.16,0.37,0.35,-2.22,-1.36,
3.978,-0.13,0.16,0.37,0.35,-2.28,-1.37,
3.978,-0.13,0.16,0.37,0.36,-2.30,-1.38,
3.978,-0.13,0.16,0.37,0.36,-2.33,-1.38,
3.985,-0.28,-0.11,0.31,0.36,-2.33,-1.38,
3.986,-0.28,-0.11,0.31,0.36,-2.35,-1.39,
3.986,-0.28,-0.11,0.31,0.36,-2.37,-1.40,
3.986,-0.28,-0.11,0.31,0.37,-2.39,-1.41,
3.988,-0.28,-0.11,0.31,0.38,-2.40,-1.41,
3.989,-0.28,-0.11,0.31,0.39,-2.41,-1.42,
3.991,-0.37,-0.32,0.12,0.39,-2.41,-1.42,
3.991,-0.37,-0.32,0.12,0.39,-2.42,-1.42,
4.009,-0.37,-0.32,0.12,0.39,-2.42,-1.43,
4.01,-0.37,-0.32,0.12,0.39,-2.44,-1.44,
4.011,-0.37,-0.32,0.12,0.40,-2.44,-1.44,
4.013,-0.37,-0.32,0.12,0.40,-2.46,-1.44,
4.014,-0.80,-0.23,-0.17,0.40,-2.46,-1.44,
4.014,-0.80,-0.23,-0.17,0.39,-2.47,-1.44,
4.015,-0.80,-0.23,-0.17,0.38,-2.53,-1.43,
4.015,-0.80,-0.23,-0.17,0.38,-2.53,-1.43,
4.015,-0.80,-0.23,-0.17,0.38,-2.53,-1.43,
4.015,-0.80,-0.23,-0.17,0.37,-2.55,-1.42,
4.016,-1.40,-0.17,-0.45,0.37,-2.55,-1.42,
4.016,-1.40,-0.17,-0.45,0.36,-2.58,-1.41,
4.016,-1.40,-0.17,-0.45,0.36,-2.61,-1.40,
4.019,-1.40,-0.17,-0.45,0.34,-2.66,-1.38,
4.02,-1.40,-0.17,-0.45,0.34,-2.68,-1.37,
4.02,-1.40,-0.17,-0.45,0.33,-2.72,-1.36,
4.02,-1.89,-0.21,-0.57,0.33,-2.72,-1.36,
4.023,-1.89,-0.21,-0.57,0.32,-2.75,-1.34,
4.024,-1.89,-0.21,-0.57,0.31,-2.79,-1.32,
4.06,-1.89,-0.21,-0.57,0.30,-2.85,-1.30,
4.061,-1.89,-0.21,-0.57,0.30,-2.87,-1.29,
4.061,-1.89,-0.21,-0.57,0.30,-2.91,-1.27,
4.062,-2.17,-0.29,-0.56,0.30,-2.91,-1.27,
4.081,-2.17,-0.29,-0.56,0.29,-2.95,-1.26,
4.081,-2.17,-0.29,-0.56,0.28,-2.99,-1.24,
4.081,-2.17,-0.29,-0.56,0.28,-3.05,-1.22,
4.082,-2.17,-0.29,-0.56,0.28,-3.07,-1.21,
4.082,-2.17,-0.29,-0.56,0.28,-3.12,-1.20,
4.082,-2.31,-0.37,-0.38,0.28,-3.12,-1.20,
4.083,-2.31,-0.37,-0.38,0.27,-3.16,-1.18,
4.083,-2.31,-0.37,-0.38,0.27,-3.21,-1.17,
4.083,-2.31,-0.37,-0.38,0.28,-3.27,-1.16,
4.083,-2.31,-0.37,-0.38,0.28,-3.30,-1.15,
4.084,-2.31,-0.37,-0.38,0.28,-3.34,-1.14,
4.084,-2.09,-0.44,-0.04,0.28,-3.34,-1.14,
4.084,-2.09,-0.44,-0.04,0.29,-3.39,-1.14,
4.085,-2.09,-0.44,-0.04,0.29,-3.43,-1.13,
4.085,-2.09,-0.44,-0.04,0.30,-3.49,-1.13,
4.085,-2.09,-0.44,-0.04,0.30,-3.51,-1.12,
4.086,-2.09,-0.44,-0.04,0.31,-3.55,-1.12,
4.086,-1.90,-0.51,0.42,0.31,-3.55,-1.12,
4.086,-1.90,-0.51,0.42,0.32,-3.59,-1.12,
4.087,-1.90,-0.51,0.42,0.33,-3.63,-1.12,
4.087,-1.90,-0.51,0.42,0.35,-3.69,-1.13,
4.087,-1.90,-0.51,0.42,0.36,-3.70,-1.13,
4.087,-1.90,-0.51,0.42,0.38,-3.74,-1.14,
4.088,-1.67,-0.53,0.86,0.38,-3.74,-1.14,
4.088,-1.67,-0.53,0.86,0.39,-3.77,-1.14,
4.088,-1.67,-0.53,0.86,0.41,-3.80,-1.15,
4.089,-1.67,-0.53,0.86,0.44,-3.83,-1.16,
4.089,-1.67,-0.53,0.86,0.45,-3.84,-1.17,
4.089,-1.67,-0.53,0.86,0.46,-3.85,-1.17,
4.089,-1.61,-0.58,1.12,0.46,-3.85,-1.17,
4.09,-1.61,-0.58,1.12,0.48,-3.86,-1.18,
4.09,-1.61,-0.58,1.12,0.49,-3.87,-1.19,
4.09,-1.61,-0.58,1.12,0.51,-3.88,-1.20,
4.091,-1.61,-0.58,1.12,0.51,-3.89,-1.20,
4.091,-1.61,-0.58,1.12,0.52,-3.89,-1.21,
4.091,-1.73,-0.54,0.92,0.52,-3.89,-1.21,
4.091,-1.73,-0.54,0.92,0.52,-3.89,-1.21,
4.093,-1.73,-0.54,0.92,0.52,-3.88,-1.21,
4.096,-1.73,-0.54,0.92,0.52,-3.87,-1.21,
4.099,-1.73,-0.54,0.92,0.52,-3.87,-1.21,
4.099,-1.73,-0.54,0.92,0.52,-3.85,-1.21,
4.101,-2.11,-0.39,0.54,0.52,-3.85,-1.21,
4.101,-2.11,-0.39,0.54,0.51,-3.83,-1.21,
4.103,-2.11,-0.39,0.54,0.50,-3.81,-1.20,
4.106,-2.11,-0.39,0.54,0.48,-3.76,-1.19,
4.108,-2.11,-0.39,0.54,0.47,-3.75,-1.18,
4.109,-2.11,-0.39,0.54,0.45,-3.71,-1.17,
4.111,-2.41,-0.22,-0.02,0.45,-3.71,-1.17,
4.111,-2.41,-0.22,-0.02,0.42,-3.68,-1.16,
4.114,-2.41,-0.22,-0.02,0.40,-3.65,-1.14,
4.116,-2.41,-0.22,-0.02,0.37,-3.60,-1.12,
4.117,-2.41,-0.22,-0.02,0.36,-3.59,-1.11,
4.119,-2.41,-0.22,-0.02,0.33,-3.55,-1.09,
4.12,-2.86,-0.12,-0.34,0.33,-3.55,-1.09,
4.121,-2.86,-0.12,-0.34,0.30,-3.53,-1.07,
4.122,-2.86,-0.12,-0.34,0.28,-3.50,-1.05,
4.127,-2.86,-0.12,-0.34,0.24,-3.46,-1.01,
4.132,-2.86,-0.12,-0.34,0.23,-3.45,-1.00,
4.134,-2.86,-0.12,-0.34,0.21,-3.43,-0.97,
4.134,-3.30,-0.16,-0.56,0.21,-3.43,-0.97,
4.135,-3.30,-0.16,-0.56,0.19,-3.40,-0.95,
4.136,-3.30,-0.16,-0.56,0.17,-3.39,-0.92,
4.137,-3.30,-0.16,-0.56,0.13,-3.36,-0.87,
4.138,-3.30,-0.16,-0.56,0.12,-3.36,-0.85,
4.14,-3.30,-0.16,-0.56,0.11,-3.35,-0.82,
4.141,-3.88,-0.17,-0.63,0.11,-3.35,-0.82,
4.142,-3.88,-0.17,-0.63,0.09,-3.35,-0.79,
4.163,-3.88,-0.17,-0.63,0.08,-3.35,-0.75,
4.165,-3.88,-0.17,-0.63,0.06,-3.37,-0.70,
4.166,-3.88,-0.17,-0.63,0.05,-3.37,-0.69,
4.166,-3.88,-0.17,-0.63,0.04,-3.39,-0.65,
4.167,-4.30,-0.19,-0.60,0.04,-3.39,-0.65,
4.167,-4.30,-0.19,-0.60,0.03,-3.42,-0.62,
4.168,-4.30,-0.19,-0.60,0.02,-3.45,-0.58,
4.169,-4.30,-0.19,-0.60,0.01,-3.50,-0.52,
4.169,-4.30,-0.19,-0.60,0.01,-3.52,-0.50,
4.17,-4.30,-0.19,-0.60,0.00,-3.56,-0.46,
4.171,-4.82,-0.05,-0.35,0.00,-3.56,-0.46,
4.171,-4.82,-0.05,-0.35,0.00,-3.61,-0.41,
4.171,-4.82,-0.05,-0.35,0.00,-3.66,-0.37,
4.172,-4.82,-0.05,-0.35,-0.00,-3.75,-0.31,
4.172,-4.82,-0.05,-0.35,0.00,-3.78,-0.29,
4.172,-4.82,-0.05,-0.35,0.00,-3.85,-0.26,
4.172,-4.83,0.17,0.05,0.00,-3.85,-0.26,
4.174,-4.83,0.17,0.05,0.01,-3.92,-0.22,
4.174,-4.83,0.17,0.05,0.03,-3.99,-0.19,
4.206,-4.83,0.17,0.05,0.05,-4.10,-0.16,
4.207,-4.83,0.17,0.05,0.07,-4.14,-0.15,
4.207,-4.83,0.17,0.05,0.09,-4.21,-0.13,
4.207,-4.19,0.59,1.13,0.09,-4.21,-0.13,
4.207,-4.19,0.59,1.13,0.13,-4.29,-0.13,
4.208,-4.19,0.59,1.13,0.17,-4.37,-0.12,
4.208,-4.19,0.59,1.13,0.24,-4.49,-0.13,
4.208,-4.19,0.59,1.13,0.26,-4.52,-0.13,
4.208,-4.19,0.59,1.13,0.31,-4.60,-0.14,
4.208,-2.65,0.84,2.32,0.31,-4.60,-0.14,
4.209,-2.65,0.84,2.32,0.37,-4.68,-0.16,
4.209,-2.65,0.84,2.32,0.43,-4.75,-0.19,
4.209,-2.65,0.84,2.32,0.53,-4.86,-0.23,
4.209,-2.65,0.84,2.32,0.57,-4.89,-0.25,
4.233,-2.65,0.84,2.32,0.64,-4.96,-0.29,
4.234,-1.46,0.88,3.32,0.64,-4.96,-0.29,
4.234,-1.46,0.88,3.32,0.71,-5.02,-0.32,
4.234,-1.46,0.88,3.32,0.79,-5.08,-0.36,
4.234,-1.46,0.88,3.32,0.91,-5.16,-0.42,
4.235,-1.46,0.88,3.32,0.95,-5.18,-0.44,
4.235,-1.46,0.88,3.32,1.04,-5.22,-0.47,
4.235,-1.17,0.85,4.01,1.04,-5.22,-0.47,
4.235,-1.17,0.85,4.01,1.13,-5.26,-0.50,
4.236,-1.17,0.85,4.01,1.21,-5.29,-0.53,
4.236,-1.17,0.85,4.01,1.34,-5.34,-0.57,
4.236,-1.17,0.85,4.01,1.39,-5.35,-0.59,
4.236,-1.17,0.85,4.01,1.48,-5.37,-0.61,
4.237,-1.63,0.85,4.50,1.48,-5.37,-0.61,
4.237,-1.63,0.85,4.50,1.56,-5.39,-0.63,
4.237,-1.63,0.85,4.50,1.65,-5.41,-0.65,
4.237,-1.63,0.85,4.50,1.77,-5.42,-0.67,
4.238,-1.63,0.85,4.50,1.81,-5.42,-0.67,
4.238,-1.63,0.85,4.50,1.89,-5.42,-0.68,
4.238,-2.37,0.83,4.20,1.89,-5.42,-0.68,
4.238,-2.37,0.83,4.20,1.96,-5.42,-0.70,
4.238,-2.37,0.83,4.20,2.05,-5.40,-0.71,
4.239,-2.37,0.83,4.20,2.11,-5.38,-0.72,
4.239,-2.37,0.83,4.20,2.13,-5.36,-0.72,
4.239,-2.37,0.83,4.20,2.18,-5.34,-0.73,
4.241,-3.35,0.89,3.21,2.18,-5.34,-0.73,
4.242,-3.35,0.89,3.21,2.22,-5.31,-0.73,
4.243,-3.35,0.89,3.21,2.26,-5.27,-0.72,
4.246,-3.35,0.89,3.21,2.30,-5.22,-0.69,
4.247,-3.35,0.89,3.21,2.32,-5.20,-0.68,
4.249,-3.35,0.89,3.21,2.35,-5.16,-0.66,
4.251,-4.45,0.85,2.01,2.35,-5.16,-0.66,
4.251,-4.45,0.85,2.01,2.38,-5.12,-0.63,
4.253,-4.45,0.85,2.01,2.41,-5.09,-0.60,
4.256,-4.45,0.85,2.01,2.45,-5.04,-0.56,
4.257,-4.45,0.85,2.01,2.47,-5.02,-0.55,
4.259,-4.45,0.85,2.01,2.50,-5.00,-0.52,
4.262,-5.45,0.69,1.54,2.50,-5.00,-0.52,
4.262,-5.45,0.69,1.54,2.53,-4.98,-0.50,
4.263,-5.45,0.69,1.54,2.56,-4.97,-0.48,
4.266,-5.45,0.69,1.54,2.60,-4.97,-0.45,
4.266,-5.45,0.69,1.54,2.61,-4.97,-0.44,
4.268,-5.45,0.69,1.54,2.64,-4.99,-0.42,
4.27,-6.07,0.30,1.38,2.64,-4.99,-0.42,
4.27,-6.07,0.30,1.38,2.66,-5.01,-0.40,
4.272,-6.07,0.30,1.38,2.69,-5.05,-0.38,
4.288,-6.07,0.30,1.38,2.72,-5.11,-0.34,
4.289,-6.07,0.30,1.38,2.73,-5.14,-0.33,
4.29,-6.07,0.30,1.38,2.75,-5.20,-0.31,
4.29,-6.60,0.11,1.72,2.75,-5.20,-0.31,
4.291,-6.60,0.11,1.72,2.77,-5.27,-0.29,
4.291,-6.60,0.11,1.72,2.79,-5.34,-0.28,
4.292,-6.60,0.11,1.72,2.82,-5.45,-0.25,
4.292,-6.60,0.11,1.72,2.83,-5.47,-0.24,
4.292,-6.60,0.11,1.72,2.86,-5.52,-0.23,
4.293,-6.68,-0.18,1.91,2.86,-5.52,-0.23,
4.341,-6.68,-0.18,1.91,2.88,-5.56,-0.21,
4.342,-6.68,-0.18,1.91,2.91,-5.59,-0.19,
4.342,-6.68,-0.18,1.91,2.96,-5.64,-0.16,
4.343,-6.68,-0.18,1.91,2.98,-5.66,-0.15,
4.343,-6.68,-0.18,1.91,3.01,-5.69,-0.13,
4.343,-6.86,-0.36,2.46,3.01,-5.69,-0.13,
4.344,-6.86,-0.36,2.46,3.05,-5.74,-0.12,
4.344,-6.86,-0.36,2.46,3.09,-5.78,-0.11,
4.345,-6.86,-0.36,2.46,3.14,-5.84,-0.11,
4.345,-6.86,-0.36,2.46,3.16,-5.86,-0.12,
4.345,-6.86,-0.36,2.46,3.20,-5.89,-0.13,
4.346,-6.04,-0.59,3.19,3.20,-5.89,-0.13,
4.346,-6.04,-0.59,3.19,3.24,-5.92,-0.15,
4.346,-6.04,-0.59,3.19,3.29,-5.94,-0.18,
4.347,-6.04,-0.59,3.19,3.36,-5.95,-0.22,
4.347,-6.04,-0.59,3.19,3.38,-5.96,-0.24,
4.347,-6.04,-0.59,3.19,3.44,-5.96,-0.27,
4.348,-5.41,-0.90,3.93,3.44,-5.96,-0.27,
4.348,-5.41,-0.90,3.93,3.49,-5.96,-0.31,
4.348,-5.41,-0.90,3.93,3.55,-5.96,-0.34,
4.349,-5.41,-0.90,3.93,3.64,-5.96,-0.40,
4.349,-5.41,-0.90,3.93,3.67,-5.96,-0.42,
4.349,-5.41,-0.90,3.93,3.74,-5.97,-0.45,
4.35,-5.23,-1.46,4.41,3.74,-5.97,-0.45,
4.35,-5.23,-1.46,4.41,3.80,-5.97,-0.49,
4.351,-5.23,-1.46,4.41,3.87,-5.98,-0.53,
4.351,-5.23,-1.46,4.41,3.97,-5.99,-0.57,
4.351,-5.23,-1.46,4.41,4.00,-5.99,-0.58,
4.352,-5.23,-1.46,4.41,4.07,-5.99,-0.60,
4.352,-5.60,-1.77,5.25,4.07,-5.99,-0.60,
4.353,-5.60,-1.77,5.25,4.14,-5.99,-0.61,
4.353,-5.60,-1.77,5.25,4.22,-5.99,-0.61,
4.353,-5.60,-1.77,5.25,4.33,-5.97,-0.60,
4.354,-5.60,-1.77,5.25,4.37,-5.97,-0.60,
4.354,-5.60,-1.77,5.25,4.46,-5.96,-0.58,
4.354,-6.59,-2.79,5.62,4.46,-5.96,-0.58,
4.355,-6.59,-2.79,5.62,4.53,-5.96,-0.58,
4.355,-6.59,-2.79,5.62,4.60,-5.95,-0.57,
4.356,-6.59,-2.79,5.62,4.70,-5.96,-0.56,
4.357,-6.59,-2.79,5.62,4.73,-5.96,-0.56,
4.363,-6.59,-2.79,5.62,4.78,-5.96,-0.56,
4.365,-7.47,-3.80,5.92,4.78,-5.96,-0.56,
4.367,-7.47,-3.80,5.92,4.83,-5.96,-0.55,
4.368,-7.47,-3.80,5.92,4.87,-5.94,-0.55,
4.404,-7.47,-3.80,5.92,4.92,-5.89,-0.53,
4.405,-7.47,-3.80,5.92,4.94,-5.87,-0.52,
4.406,-7.47,-3.80,5.92,4.96,-5.83,-0.54,
4.406,-6.88,-4.57,5.32,4.96,-5.83,-0.54,
4.407,-6.88,-4.57,5.32,4.96,-5.78,-0.57,
4.407,-6.88,-4.57,5.32,4.97,-5.71,-0.59,
4.408,-6.88,-4.57,5.32,4.98,-5.59,-0.60,
4.408,-6.88,-4.57,5.32,4.98,-5.55,-0.59,
4.409,-6.88,-4.57,5.32,4.99,-5.46,-0.57,
4.409,-6.69,-4.75,5.12,4.99,-5.46,-0.57,
4.41,-6.69,-4.75,5.12,5.01,-5.37,-0.54,
4.41,-6.69,-4.75,5.12,5.02,-5.28,-0.48,
4.411,-6.69,-4.75,5.12,5.05,-5.13,-0.36,
4.411,-6.69,-4.75,5.12,5.06,-5.08,-0.31,
4.412,-6.69,-4.75,5.12,5.08,-4.98,-0.21,
4.412,-8.55,-5.04,5.86,5.08,-4.98,-0.21,
4.413,-8.55,-5.04,5.86,5.10,-4.87,-0.10,
4.413,-8.55,-5.04,5.86,5.11,-4.77,0.00,
4.414,-8.55,-5.04,5.86,5.11,-4.62,0.14,
4.415,-8.55,-5.04,5.86,5.11,-4.57,0.18,
4.415,-8.55,-5.04,5.86,5.10,-4.46,0.26,
4.415,-7.53,-5.05,6.08,5.10,-4.46,0.26,
4.416,-7.53,-5.05,6.08,5.08,-4.36,0.31,
4.416,-7.53,-5.05,6.08,5.06,-4.26,0.35,
4.417,-7.53,-5.05,6.08,5.02,-4.09,0.37,
4.417,-7.53,-5.05,6.08,5.01,-4.03,0.37,
4.418,-7.53,-5.05,6.08,4.98,-3.90,0.36,
4.418,-4.75,-5.43,5.56,4.98,-3.90,0.36,
4.419,-4.75,-5.43,5.56,4.94,-3.76,0.34,
4.419,-4.75,-5.43,5.56,4.91,-3.61,0.32,
4.419,-4.75,-5.43,5.56,4.85,-3.36,0.26,
4.42,-4.75,-5.43,5.56,4.83,-3.28,0.25,
4.42,-4.75,-5.43,5.56,4.80,-3.10,0.22,
4.421,-3.61,-5.60,6.11,4.80,-3.10,0.22,
4.421,-3.61,-5.60,6.11,4.76,-2.92,0.19,
4.424,-3.61,-5.60,6.11,4.72,-2.74,0.16,
4.426,-3.61,-5.60,6.11,4.65,-2.47,0.14,
4.429,-3.61,-5.60,6.11,4.63,-2.38,0.14,
4.43,-3.61,-5.60,6.11,4.59,-2.22,0.13,
4.43,-4.55,-5.14,6.65,4.59,-2.22,0.13,
4.431,-4.55,-5.14,6.65,4.55,-2.06,0.13,
4.434,-4.55,-5.14,6.65,4.51,-1.91,0.12,
4.436,-4.55,-5.14,6.65,4.45,-1.68,0.12,
4.439,-4.55,-5.14,6.65,4.43,-1.61,0.13,
4.439,-4.55,-5.14,6.65,4.40,-1.48,0.15,
4.444,-5.17,-4.76,7.23,4.40,-1.48,0.15,
4.445,-5.17,-4.76,7.23,4.37,-1.36,0.18,
4.446,-5.17,-4.76,7.23,4.34,-1.25,0.21,
4.446,-5.17,-4.76,7.23,4.30,-1.10,0.27,
4.447,-5.17,-4.76,7.23,4.29,-1.05,0.29,
4.449,-5.17,-4.76,7.23,4.26,-0.96,0.33,
4.451,-6.80,-4.17,7.70,4.26,-0.96,0.33,
4.451,-6.80,-4.17,7.70,4.23,-0.88,0.37,
4.452,-6.80,-4.17,7.70,4.20,-0.82,0.41,
4.456,-6.80,-4.17,7.70,4.15,-0.75,0.46,
4.476,-6.80,-4.17,7.70,4.13,-0.74,0.48,
4.476,-6.80,-4.17,7.70,4.09,-0.73,0.50,
4.477,-8.09,-3.09,8.39,4.09,-0.73,0.50,
4.477,-8.09,-3.09,8.39,4.04,-0.74,0.53,
4.478,-8.09,-3.09,8.39,3.99,-0.76,0.57,
4.478,-8.09,-3.09,8.39,3.91,-0.79,0.63,
4.478,-8.09,-3.09,8.39,3.88,-0.80,0.65,
4.479,-8.09,-3.09,8.39,3.83,-0.82,0.71,
4.479,-8.35,-3.13,8.20,3.83,-0.82,0.71,
4.48,-8.35,-3.13,8.20,3.78,-0.83,0.77,
4.48,-8.35,-3.13,8.20,3.73,-0.83,0.83,
4.48,-8.35,-3.13,8.20,3.62,-0.82,0.93,
4.481,-8.35,-3.13,8.20,3.58,-0.81,0.96,
4.481,-8.35,-3.13,8.20,3.48,-0.79,1.02,
4.484,-7.71,-3.56,6.33,3.48,-0.79,1.02,
4.485,-7.71,-3.56,6.33,3.36,-0.76,1.09,
4.486,-7.71,-3.56,6.33,3.23,-0.73,1.16,
4.486,-7.71,-3.56,6.33,3.00,-0.66,1.25,
4.487,-7.71,-3.56,6.33,2.91,-0.64,1.28,
4.489,-7.71,-3.56,6.33,2.73,-0.58,1.35,
4.526,-7.31,-3.16,3.84,2.73,-0.58,1.35,
4.528,-7.31,-3.16,3.84,2.54,-0.50,1.41,
4.528,-7.31,-3.16,3.84,2.34,-0.40,1.48,
4.529,-7.31,-3.16,3.84,2.02,-0.25,1.57,
4.529,-7.31,-3.16,3.84,1.91,-0.19,1.60,
4.53,-7.31,-3.16,3.84,1.69,-0.07,1.66,
4.53,-6.81,-1.89,1.60,1.69,-0.07,1.66,
4.531,-6.81,-1.89,1.60,1.47,0.05,1.72,
4.531,-6.81,-1.89,1.60,1.24,0.17,1.78,
4.532,-6.81,-1.89,1.60,0.89,0.36,1.87,
4.532,-6.81,-1.89,1.60,0.78,0.42,1.90,
4.533,-6.81,-1.89,1.60,0.55,0.54,1.96,
4.533,-6.11,-1.30,1.09,0.55,0.54,1.96,
4.534,-6.11,-1.30,1.09,0.32,0.67,2.02,
4.534,-6.11,-1.30,1.09,0.10,0.80,2.08,
4.535,-6.11,-1.30,1.09,-0.22,0.99,2.14,
4.536,-6.11,-1.30,1.09,-0.32,1.06,2.16,
4.536,-6.11,-1.30,1.09,-0.52,1.19,2.19,
4.537,-4.58,-1.12,1.85,-0.52,1.19,2.19,
4.538,-4.58,-1.12,1.85,-0.70,1.32,2.22,
4.539,-4.58,-1.12,1.85,-0.87,1.43,2.24,
4.539,-4.58,-1.12,1.85,-1.10,1.60,2.25,
4.54,-4.58,-1.12,1.85,-1.17,1.65,2.25,
4.54,-4.58,-1.12,1.85,-1.31,1.73,2.25,
4.541,-2.43,-1.39,3.73,-1.31,1.73,2.25,
4.568,-2.43,-1.39,3.73,-1.43,1.81,2.24,
4.569,-2.43,-1.39,3.73,-1.54,1.87,2.23,
4.569,-2.43,-1.39,3.73,-1.69,1.93,2.20,
4.57,-2.43,-1.39,3.73,-1.73,1.95,2.19,
4.57,-2.43,-1.39,3.73,-1.80,1.97,2.17,
4.571,-0.14,-2.59,5.53,-1.80,1.97,2.17,
4.571,-0.14,-2.59,5.53,-1.87,1.99,2.15,
4.572,-0.14,-2.59,5.53,-1.92,2.01,2.13,
4.572,-0.14,-2.59,5.53,-1.97,2.06,2.08,
4.573,-0.14,-2.59,5.53,-1.98,2.07,2.05,
4.573,-0.14,-2.59,5.53,-2.00,2.10,2.00,
4.573,2.16,-4.23,6.21,-2.00,2.10,2.00,
4.574,2.16,-4.23,6.21,-2.00,2.13,1.94,
4.574,2.16,-4.23,6.21,-2.01,2.15,1.87,
4.575,2.16,-4.23,6.21,-2.00,2.16,1.76,
4.575,2.16,-4.23,6.21,-2.00,2.15,1.72,
4.576,2.16,-4.23,6.21,-2.00,2.13,1.64,
4.576,3.60,-5.19,5.73,-2.00,2.13,1.64,
4.577,3.60,-5.19,5.73,-1.99,2.07,1.55,
4.577,3.60,-5.19,5.73,-1.99,1.99,1.47,
4.578,3.60,-5.19,5.73,-1.98,1.81,1.36,
4.578,3.60,-5.19,5.73,-1.98,1.74,1.33,
4.579,3.60,-5.19,5.73,-1.98,1.59,1.27,
4.579,3.39,-4.61,3.41,-1.98,1.59,1.27,
4.58,3.39,-4.61,3.41,-1.98,1.41,1.22,
4.58,3.39,-4.61,3.41,-1.99,1.21,1.17,
4.58,3.39,-4.61,3.41,-2.02,0.88,1.10,
4.581,3.39,-4.61,3.41,-2.03,0.77,1.07,
4.581,3.39,-4.61,3.41,-2.05,0.54,1.02,
4.581,2.89,-3.70,0.18,-2.05,0.54,1.02,
4.582,2.89,-3.70,0.18,-2.06,0.33,0.98,
4.586,2.89,-3.70,0.18,-2.06,0.07,0.93,
4.587,2.89,-3.70,0.18,-2.03,-0.07,0.91,
4.587,2.89,-3.70,0.18,-2.02,-0.13,0.90,
4.591,2.89,-3.70,0.18,-1.97,-0.24,0.89,
4.591,2.43,-3.28,-0.82,-1.97,-0.24,0.89,
4.591,2.43,-3.28,-0.82,-1.91,-0.33,0.89,
4.6,2.43,-3.28,-0.82,-1.84,-0.40,0.89,
4.6,2.43,-3.28,-0.82,-1.72,-0.47,0.92,
4.601,2.43,-3.28,-0.82,-1.69,-0.48,0.93,
4.601,2.43,-3.28,-0.82,-1.61,-0.48,0.96,
4.601,1.33,-3.48,-1.29,-1.61,-0.48,0.96,
4.602,1.33,-3.48,-1.29,-1.54,-0.46,1.00,
4.603,1.33,-3.48,-1.29,-1.47,-0.41,1.06,
4.606,1.33,-3.48,-1.29,-1.36,-0.30,1.18,
4.607,1.33,-3.48,-1.29,-1.32,-0.25,1.22,
4.651,1.33,-3.48,-1.29,-1.24,-0.15,1.32,
4.652,-1.78,-3.29,-2.46,-1.24,-0.15,1.32,
4.652,-1.78,-3.29,-2.46,-1.14,-0.05,1.43,
4.652,-1.78,-3.29,-2.46,-1.03,0.05,1.54,
4.652,-1.78,-3.29,-2.46,-0.84,0.20,1.71,
4.653,-1.78,-3.29,-2.46,-0.77,0.25,1.77,
4.653,-1.78,-3.29,-2.46,-0.62,0.33,1.88,
4.653,-3.59,-1.79,-2.74,-0.62,0.33,1.88,
4.653,-3.59,-1.79,-2.74,-0.45,0.39,1.99,
4.654,-3.59,-1.79,-2.74,-0.26,0.42,2.10,
4.654,-3.59,-1.79,-2.74,0.04,0.39,2.28,
4.654,-3.59,-1.79,-2.74,0.14,0.36,2.34,
4.654,-3.59,-1.79,-2.74,0.36,0.27,2.48,
4.654,-4.78,0.78,-3.13,0.36,0.27,2.48,
4.655,-4.78,0.78,-3.13,0.58,0.15,2.61,
4.655,-4.78,0.78,-3.13,0.81,-0.02,2.74,
4.655,-4.78,0.78,-3.13,1.14,-0.36,2.90,
4.655,-4.78,0.78,-3.13,1.25,-0.51,2.95,
4.656,-4.78,0.78,-3.13,1.45,-0.84,3.03,
4.656,-2.19,4.21,-8.14,1.45,-0.84,3.03,
4.656,-2.19,4.21,-8.14,1.64,-1.23,3.09,
4.656,-2.19,4.21,-8.14,1.81,-1.66,3.14,
4.656,-2.19,4.21,-8.14,2.05,-2.35,3.23,
4.657,-2.19,4.21,-8.14,2.13,-2.60,3.26,
4.657,-2.19,4.21,-8.14,2.25,-3.09,3.31,
4.657,2.48,6.36,-15.50,2.25,-3.09,3.31,
4.657,2.48,6.36,-15.50,2.33,-3.57,3.33,
4.658,2.48,6.36,-15.50,2.37,-4.01,3.33,
4.658,2.48,6.36,-15.50,2.38,-4.56,3.30,
4.658,2.48,6.36,-15.50,2.37,-4.70,3.28,
4.663,2.48,6.36,-15.50,2.33,-4.93,3.23,
4.664,9.47,3.44,-22.76,2.33,-4.93,3.23,
4.665,9.47,3.44,-22.76,2.27,-5.06,3.18,
4.665,9.47,3.44,-22.76,2.19,-5.09,3.13,
4.666,9.47,3.44,-22.76,2.02,-4.97,3.07,
4.667,9.47,3.44,-22.76,1.96,-4.89,3.06,
4.669,9.47,3.44,-22.76,1.81,-4.69,3.04,
4.671,14.10,2.30,-24.16,1.81,-4.69,3.04,
4.672,14.10,2.30,-24.16,1.64,-4.44,3.05,
4.679,14.10,2.30,-24.16,1.45,-4.14,3.08,
4.68,14.10,2.30,-24.16,1.16,-3.60,3.11,
4.681,14.10,2.30,-24.16,1.06,-3.40,3.12,
4.681,14.10,2.30,-24.16,0.87,-2.97,3.11,
4.682,20.77,-3.84,-22.00,0.87,-2.97,3.11,
4.683,20.77,-3.84,-22.00,0.69,-2.50,3.09,
4.684,20.77,-3.84,-22.00,0.54,-2.01,3.03,
4.686,20.77,-3.84,-22.00,0.39,-1.21,2.89,
4.687,20.77,-3.84,-22.00,0.36,-0.94,2.82,
4.707,20.77,-3.84,-22.00,0.33,-0.39,2.67,
4.708,30.19,-10.59,-14.32,0.33,-0.39,2.67,
4.708,30.19,-10.59,-14.32,0.37,0.15,2.48,
4.708,30.19,-10.59,-14.32,0.47,0.68,2.23,
4.709,30.19,-10.59,-14.32,0.74,1.43,1.78,
4.709,30.19,-10.59,-14.32,0.87,1.66,1.61,
4.734,30.19,-10.59,-14.32,1.18,2.09,1.22,
4.734,38.18,-15.63,-3.84,1.18,2.09,1.22,
4.739,38.18,-15.63,-3.84,1.56,2.45,0.80,
4.74,38.18,-15.63,-3.84,2.01,2.76,0.36,
4.74,38.18,-15.63,-3.84,2.81,3.09,-0.34,
4.74,38.18,-15.63,-3.84,3.11,3.16,-0.57,
4.74,38.18,-15.63,-3.84,3.74,3.23,-1.05,
4.741,40.56,-20.86,4.25,3.74,3.23,-1.05,
4.741,40.56,-20.86,4.25,4.42,3.21,-1.54,
4.741,40.56,-20.86,4.25,5.14,3.12,-2.02,
4.742,40.56,-20.86,4.25,6.28,2.87,-2.70,
4.742,40.56,-20.86,4.25,6.67,2.76,-2.91,
4.742,40.56,-20.86,4.25,7.45,2.52,-3.32,
4.743,33.59,-30.90,6.61,7.45,2.52,-3.32,
4.743,33.59,-30.90,6.61,8.23,2.27,-3.68,
4.743,33.59,-30.90,6.61,8.70,2.45,-3.90,
4.744,33.59,-30.90,6.61,-1.78,19.87,6.20,
4.744,33.59,-30.90,6.61,-4.76,21.53,9.79,
4.744,33.59,-30.90,6.61,-5.95,16.87,8.28,
4.745,7.59,-43.21,-10.58,-5.95,16.87,8.28,
4.745,7.59,-43.21,-10.58,-5.27,13.10,5.57,
4.746,7.59,-43.21,-10.58,-4.93,12.59,4.58,
4.746,7.59,-43.21,-10.58,-4.42,13.69,4.81,
4.746,7.59,-43.21,-10.58,-4.13,14.04,5.05,
4.747,7.59,-43.21,-10.58,-3.14,13.92,5.42,
4.747,-5.63,-39.61,-11.51,-3.14,13.92,5.42,
4.747,-5.63,-39.61,-11.51,-1.95,13.53,5.64,
4.748,-5.63,-39.61,-11.51,-0.86,12.90,5.84,
4.748,-5.63,-39.61,-11.51,0.03,11.90,6.25,
4.749,-5.63,-39.61,-11.51,0.19,11.43,6.34,
4.749,-5.63,-39.61,-11.51,0.43,10.35,6.40,
4.769,-13.17,-24.81,-11.49,0.43,10.35,6.40,
4.772,-13.17,-24.81,-11.49,0.55,9.14,6.27,
4.773,-13.17,-24.81,-11.49,0.73,7.82,6.03,
4.773,-13.17,-24.81,-11.49,0.85,6.04,5.55,
4.774,-13.17,-24.81,-11.49,0.95,5.40,5.36,
4.774,-13.17,-24.81,-11.49,1.15,4.19,4.91,
4.774,-1.19,-21.56,-19.65,1.15,4.19,4.91,
4.775,-1.19,-21.56,-19.65,1.54,2.79,4.37,
4.775,-1.19,-21.56,-19.65,1.86,1.62,3.85,
4.775,-1.19,-21.56,-19.65,2.53,-0.34,3.03,
4.775,-1.19,-21.56,-19.65,2.74,-0.93,2.75,
4.776,-1.19,-21.56,-19.65,3.28,-2.22,2.17,
4.776,5.07,-19.35,-9.27,3.28,-2.22,2.17,
4.776,5.07,-19.35,-9.27,3.86,-3.43,1.59,
4.777,5.07,-19.35,-9.27,4.55,-4.75,0.98,
4.777,5.07,-19.35,-9.27,5.70,-6.79,-0.01,
4.78,5.07,-19.35,-9.27,6.15,-7.53,-0.31,
4.78,5.07,-19.35,-9.27,7.08,-8.99,-0.87,
4.78,2.37,-21.28,13.63,7.08,-8.99,-0.87,
4.781,2.37,-21.28,13.63,7.93,-10.36,-1.30,
4.783,2.37,-21.28,13.63,8.77,-11.77,-1.58,
4.786,2.37,-21.28,13.63,9.67,-13.65,-1.65,
4.786,2.37,-21.28,13.63,9.87,-14.26,-1.56,
4.789,2.37,-21.28,13.63,10.06,-15.32,-1.23,
4.792,-30.28,-17.81,13.37,10.06,-15.32,-1.23,
4.793,-30.28,-17.81,13.37,10.10,-16.32,-0.75,
4.793,-30.28,-17.81,13.37,9.94,-17.03,-0.10,
4.797,-30.28,-17.81,13.37,9.47,-17.53,1.20,
4.797,-30.28,-17.81,13.37,9.24,-17.45,1.70,
4.799,-30.28,-17.81,13.37,8.74,-17.10,2.73,
4.801,-65.26,-16.26,-5.97,8.74,-17.10,2.73,
4.801,-65.26,-16.26,-5.97,8.16,-16.34,3.75,
4.802,-65.26,-16.26,-5.97,7.47,-15.27,4.71,
4.806,-65.26,-16.26,-5.97,6.22,-13.05,6.00,
4.808,-65.26,-16.26,-5.97,5.77,-12.20,6.40,
4.81,-65.26,-16.26,-5.97,4.84,-10.42,7.13,
4.811,-56.67,-21.20,-24.41,4.84,-10.42,7.13,
4.812,-56.67,-21.20,-24.41,3.85,-8.58,7.80,
4.813,-56.67,-21.20,-24.41,2.86,-6.84,8.37,
4.816,-56.67,-21.20,-24.41,1.31,-4.42,9.05,
4.817,-56.67,-21.20,-24.41,0.80,-3.70,9.23,
4.819,-56.67,-21.20,-24.41,-0.24,-2.32,9.54,
4.821,-26.95,-18.57,-30.06,-0.24,-2.32,9.54,
4.822,-26.95,-18.57,-30.06,-1.21,-1.19,9.75,
4.838,-26.95,-18.57,-30.06,-2.18,-0.17,9.87,
4.839,-26.95,-18.57,-30.06,-3.47,1.00,9.91,
4.839,-26.95,-18.57,-30.06,-3.88,1.35,9.88,
4.839,-26.95,-18.57,-30.06,-4.60,1.88,9.76,
4.839,-2.03,-14.05,-21.56,-4.60,1.88,9.76,
4.84,-2.03,-14.05,-21.56,-5.24,2.33,9.56,
4.84,-2.03,-14.05,-21.56,-5.76,2.66,9.29,
4.84,-2.03,-14.05,-21.56,-6.34,3.04,8.74,
4.841,-2.03,-14.05,-21.56,-6.47,3.12,8.53,
4.841,-2.03,-14.05,-21.56,-6.65,3.26,8.07,
4.842,15.81,-10.10,-2.44,-6.65,3.26,8.07,
4.842,15.81,-10.10,-2.44,-6.74,3.38,7.58,
4.843,15.81,-10.10,-2.44,-6.69,3.44,7.08,
4.846,15.81,-10.10,-2.44,-6.48,3.48,6.32,
4.847,15.81,-10.10,-2.44,-6.36,3.45,6.08,
4.849,15.81,-10.10,-2.44,-6.09,3.41,5.60,
4.851,20.97,-4.98,15.46,-6.09,3.41,5.60,
4.851,20.97,-4.98,15.46,-5.76,3.26,5.13,
4.853,20.97,-4.98,15.46,-5.41,3.08,4.70,
4.896,20.97,-4.98,15.46,-4.81,2.64,4.11,
4.897,20.97,-4.98,15.46,-4.62,2.48,3.93,
4.897,20.97,-4.98,15.46,-4.22,2.07,3.60,
4.897,16.31,0.03,21.16,-4.22,2.07,3.60,
4.897,16.31,0.03,21.16,-3.83,1.63,3.32,
4.898,16.31,0.03,21.16,-3.46,1.13,3.09,
4.933,16.31,0.03,21.16,-2.92,0.34,2.80,
4.934,16.31,0.03,21.16,-2.75,0.06,2.73,
4.934,16.31,0.03,21.16,-2.42,-0.50,2.60,
4.935,6.96,3.12,16.54,-2.42,-0.50,2.60,
4.937,6.96,3.12,16.54,-2.13,-1.03,2.51,
4.937,6.96,3.12,16.54,-1.84,-1.57,2.44,
4.938,6.96,3.12,16.54,-1.49,-2.30,2.38,
4.938,6.96,3.12,16.54,-1.39,-2.53,2.37,
4.939,6.96,3.12,16.54,-1.24,-2.92,2.36,
4.939,-1.10,4.08,9.00,-1.24,-2.92,2.36,
4.94,-1.10,4.08,9.00,-1.10,-3.30,2.38,
4.94,-1.10,4.08,9.00,-1.03,-3.60,2.40,
4.941,-1.10,4.08,9.00,-0.98,-3.99,2.48,
4.941,-1.10,4.08,9.00,-0.99,-4.08,2.52,
4.941,-1.10,4.08,9.00,-1.02,-4.26,2.61,
4.942,-6.92,4.15,1.12,-1.02,-4.26,2.61,
4.943,-6.92,4.15,1.12,-1.09,-4.38,2.71,
4.943,-6.92,4.15,1.12,-1.20,-4.45,2.82,
4.944,-6.92,4.15,1.12,-1.41,-4.44,3.02,
4.944,-6.92,4.15,1.12,-1.49,-4.41,3.08,
4.944,-6.92,4.15,1.12,-1.67,-4.33,3.23,
4.945,-10.20,3.38,-4.58,-1.67,-4.33,3.23,
4.946,-10.20,3.38,-4.58,-1.86,-4.19,3.35,
4.947,-10.20,3.38,-4.58,-2.06,-4.04,3.46,
4.948,-10.20,3.38,-4.58,-2.35,-3.70,3.63,
4.949,-10.20,3.38,-4.58,-2.43,-3.58,3.70,
4.95,-10.20,3.38,-4.58,-2.61,-3.31,3.82,
4.951,-9.34,1.04,-4.86,-2.61,-3.31,3.82,
4.953,-9.34,1.04,-4.86,-2.77,-3.06,3.95,
4.953,-9.34,1.04,-4.86,-2.94,-2.77,4.08,
4.954,-9.34,1.04,-4.86,-3.15,-2.37,4.29,
4.954,-9.34,1.04,-4.86,-3.22,-2.23,4.36,
4.955,-9.34,1.04,-4.86,-3.35,-1.98,4.49,
4.955,-9.73,-2.44,-2.36,-3.35,-1.98,4.49,
4.956,-9.73,-2.44,-2.36,-3.47,-1.74,4.61,
4.956,-9.73,-2.44,-2.36,-3.57,-1.52,4.70,
4.957,-9.73,-2.44,-2.36,-3.70,-1.24,4.81,
4.957,-9.73,-2.44,-2.36,-3.73,-1.16,4.84,
4.957,-9.73,-2.44,-2.36,-3.77,-1.03,4.89,
4.958,-5.23,-3.30,1.11,-3.77,-1.03,4.89,
4.959,-5.23,-3.30,1.11,-3.79,-0.92,4.91,
4.959,-5.23,-3.30,1.11,-3.77,-0.81,4.93,
4.959,-5.23,-3.30,1.11,-3.74,-0.75,4.93,
