
time,ax,ay,az,wx,wy,wz,
0.009,0.37,0.54,2.00,0.28,-0.23,0.12,
0.009,0.26,0.48,1.60,0.28,-0.23,0.12,
0.01,0.26,0.48,1.60,0.31,-0.24,0.11,
0.01,0.26,0.48,1.60,0.33,-0.25,0.10,
0.01,0.26,0.48,1.60,0.35,-0.25,0.10,
0.011,0.26,0.48,1.60,0.37,-0.25,0.09,
0.011,0.26,0.48,1.60,0.38,-0.25,0.09,
0.011,0.11,0.34,0.75,0.38,-0.25,0.09,
0.012,0.11,0.34,0.75,0.38,-0.24,0.09,
0.012,0.11,0.34,0.75,0.38,-0.24,0.09,
0.012,0.11,0.34,0.75,0.37,-0.23,0.10,
0.012,0.11,0.34,0.75,0.36,-0.22,0.10,
0.013,0.11,0.34,0.75,0.34,-0.21,0.11,
0.013,-0.07,0.19,-0.16,0.34,-0.21,0.11,
0.013,-0.07,0.19,-0.16,0.32,-0.20,0.11,
0.014,-0.07,0.19,-0.16,0.30,-0.19,0.11,
0.014,-0.07,0.19,-0.16,0.27,-0.18,0.12,
0.014,-0.07,0.19,-0.16,0.24,-0.17,0.12,
0.015,-0.07,0.19,-0.16,0.21,-0.16,0.13,
0.015,-0.04,0.11,-0.76,0.21,-0.16,0.13,
0.015,-0.04,0.11,-0.76,0.18,-0.15,0.13,
0.016,-0.04,0.11,-0.76,0.15,-0.14,0.13,
0.016,-0.04,0.11,-0.76,0.12,-0.13,0.13,
0.016,-0.04,0.11,-0.76,0.09,-0.11,0.13,
0.016,-0.04,0.11,-0.76,0.06,-0.11,0.13,
0.017,0.15,0.06,-0.89,0.06,-0.11,0.13,
0.017,0.15,0.06,-0.89,0.03,-0.10,0.12,
0.017,0.15,0.06,-0.89,0.00,-0.09,0.12,
0.018,0.15,0.06,-0.89,-0.02,-0.08,0.11,
0.018,0.15,0.06,-0.89,-0.05,-0.07,0.10,
0.018,0.15,0.06,-0.89,-0.07,-0.06,0.09,
0.019,0.32,0.09,-0.75,-0.07,-0.06,0.09,
0.019,0.32,0.09,-0.75,-0.09,-0.06,0.08,
0.019,0.32,0.09,-0.75,-0.11,-0.05,0.07,
0.02,0.32,0.09,-0.75,-0.13,-0.04,0.06,
0.02,0.32,0.09,-0.75,-0.14,-0.03,0.05,
0.02,0.32,0.09,-0.75,-0.16,-0.02,0.04,
0.021,0.33,0.14,-0.60,-0.16,-0.02,0.04,
0.021,0.33,0.14,-0.60,-0.18,-0.01,0.03,
0.021,0.33,0.14,-0.60,-0.19,-0.00,0.01,
0.021,0.33,0.14,-0.60,-0.21,0.00,0.00,
0.025,0.33,0.14,-0.60,-0.22,0.01,-0.01,
0.026,0.33,0.14,-0.60,-0.24,0.01,-0.02,
0.027,0.19,0.19,-0.58,-0.24,0.01,-0.02,
0.027,0.19,0.19,-0.58,-0.26,0.00,-0.03,
0.029,0.19,0.19,-0.58,-0.27,0.00,-0.04,
0.03,0.19,0.19,-0.58,-0.29,-0.01,-0.05,
0.033,0.19,0.19,-0.58,-0.30,-0.01,-0.06,
0.035,0.19,0.19,-0.58,-0.32,-0.02,-0.06,
0.072,-0.09,0.21,-0.50,-0.32,-0.02,-0.06,
0.073,-0.09,0.21,-0.50,-0.33,-0.03,-0.07,
0.073,-0.09,0.21,-0.50,-0.35,-0.03,-0.08,
0.074,-0.09,0.21,-0.50,-0.36,-0.03,-0.09,
0.074,-0.09,0.21,-0.50,-0.37,-0.04,-0.10,
0.075,-0.09,0.21,-0.50,-0.38,-0.04,-0.11,
0.075,-0.27,0.20,-0.37,-0.38,-0.04,-0.11,
0.076,-0.27,0.20,-0.37,-0.39,-0.04,-0.11,
0.076,-0.27,0.20,-0.37,-0.40,-0.04,-0.11,
0.077,-0.27,0.20,-0.37,-0.41,-0.04,-0.12,
0.077,-0.27,0.20,-0.37,-0.42,-0.04,-0.13,
0.078,-0.27,0.20,-0.37,-0.42,-0.04,-0.13,
0.078,-0.21,0.05,-0.12,-0.42,-0.04,-0.13,
0.078,-0.21,0.05,-0.12,-0.43,-0.04,-0.14,
0.079,-0.21,0.05,-0.12,-0.43,-0.03,-0.14,
0.079,-0.21,0.05,-0.12,-0.43,-0.03,-0.14,
0.079,-0.21,0.05,-0.12,-0.43,-0.02,-0.15,
0.08,-0.21,0.05,-0.12,-0.43,-0.02,-0.15,
0.08,-0.19,-0.09,0.28,-0.43,-0.02,-0.15,
0.081,-0.19,-0.09,0.28,-0.43,-0.01,-0.15,
0.081,-0.19,-0.09,0.28,-0.42,-0.00,-0.16,
0.081,-0.19,-0.09,0.28,-0.42,0.01,-0.16,
0.082,-0.19,-0.09,0.28,-0.42,0.03,-0.16,
0.082,-0.19,-0.09,0.28,-0.41,0.04,-0.16,
0.082,-0.37,-0.20,0.59,-0.41,0.04,-0.16,
0.083,-0.37,-0.20,0.59,-0.40,0.06,-0.15,
0.083,-0.37,-0.20,0.59,-0.40,0.07,-0.15,
0.083,-0.37,-0.20,0.59,-0.39,0.08,-0.15,
0.084,-0.37,-0.20,0.59,-0.39,0.09,-0.14,
0.124,-0.37,-0.20,0.59,-0.39,0.10,-0.14,
0.126,-0.58,-0.24,0.66,-0.39,0.10,-0.14,
0.127,-0.58,-0.24,0.66,-0.38,0.11,-0.13,
0.127,-0.58,-0.24,0.66,-0.38,0.11,-0.12,
0.128,-0.58,-0.24,0.66,-0.38,0.12,-0.11,
0.128,-0.58,-0.24,0.66,-0.39,0.13,-0.10,
0.129,-0.58,-0.24,0.66,-0.39,0.14,-0.09,
0.129,-0.73,-0.23,0.45,-0.39,0.14,-0.09,
0.129,-0.73,-0.23,0.45,-0.40,0.14,-0.08,
0.13,-0.73,-0.23,0.45,-0.41,0.15,-0.07,
0.13,-0.73,-0.23,0.45,-0.42,0.16,-0.06,
0.131,-0.73,-0.23,0.45,-0.44,0.16,-0.05,
0.131,-0.73,-0.23,0.45,-0.46,0.17,-0.04,
0.131,-1.04,-0.18,-0.07,-0.46,0.17,-0.04,
0.132,-1.04,-0.18,-0.07,-0.49,0.18,-0.02,
0.132,-1.04,-0.18,-0.07,-0.51,0.18,-0.01,
0.132,-1.04,-0.18,-0.07,-0.55,0.19,0.00,
0.133,-1.04,-0.18,-0.07,-0.58,0.19,0.02,
0.133,-1.04,-0.18,-0.07,-0.62,0.20,0.03,
0.133,-1.45,-0.11,-0.68,-0.62,0.20,0.03,
0.134,-1.45,-0.11,-0.68,-0.66,0.21,0.05,
0.134,-1.45,-0.11,-0.68,-0.71,0.23,0.07,
0.158,-1.45,-0.11,-0.68,-0.76,0.24,0.09,
0.159,-1.45,-0.11,-0.68,-0.81,0.25,0.11,
0.159,-1.45,-0.11,-0.68,-0.87,0.25,0.12,
0.159,-1.71,-0.19,-1.30,-0.87,0.25,0.12,
0.16,-1.71,-0.19,-1.30,-0.92,0.25,0.14,
0.16,-1.71,-0.19,-1.30,-0.97,0.24,0.15,
0.16,-1.71,-0.19,-1.30,-1.03,0.23,0.16,
0.16,-1.71,-0.19,-1.30,-1.09,0.23,0.17,
0.161,-1.71,-0.19,-1.30,-1.14,0.23,0.17,
0.161,-1.34,-0.31,-1.43,-1.14,0.23,0.17,
0.161,-1.34,-0.31,-1.43,-1.20,0.23,0.18,
0.162,-1.34,-0.31,-1.43,-1.26,0.24,0.19,
0.162,-1.34,-0.31,-1.43,-1.31,0.24,0.19,
0.162,-1.34,-0.31,-1.43,-1.37,0.25,0.20,
0.162,-1.34,-0.31,-1.43,-1.42,0.26,0.20,
0.163,-0.88,-0.48,-1.61,-1.42,0.26,0.20,
0.163,-0.88,-0.48,-1.61,-1.48,0.26,0.20,
0.163,-0.88,-0.48,-1.61,-1.53,0.27,0.20,
0.164,-0.88,-0.48,-1.61,-1.58,0.27,0.20,
0.164,-0.88,-0.48,-1.61,-1.63,0.27,0.20,
0.164,-0.88,-0.48,-1.61,-1.67,0.26,0.19,
0.164,-0.11,-0.61,-1.29,-1.67,0.26,0.19,
0.165,-0.11,-0.61,-1.29,-1.70,0.25,0.19,
0.165,-0.11,-0.61,-1.29,-1.74,0.24,0.18,
0.165,-0.11,-0.61,-1.29,-1.77,0.23,0.17,
0.165,-0.11,-0.61,-1.29,-1.80,0.21,0.16,
0.166,-0.11,-0.61,-1.29,-1.84,0.20,0.15,
0.172,0.46,-0.65,-0.69,-1.84,0.20,0.15,
0.173,0.46,-0.65,-0.69,-1.87,0.19,0.15,
0.173,0.46,-0.65,-0.69,-1.90,0.18,0.14,
0.173,0.46,-0.65,-0.69,-1.94,0.18,0.14,
0.174,0.46,-0.65,-0.69,-1.97,0.18,0.13,
0.18,0.46,-0.65,-0.69,-2.00,0.18,0.12,
0.181,0.58,-0.63,-0.45,-2.00,0.18,0.12,
0.181,0.58,-0.63,-0.45,-2.04,0.18,0.12,
0.181,0.58,-0.63,-0.45,-2.07,0.17,0.11,
0.182,0.58,-0.63,-0.45,-2.10,0.17,0.10,
0.182,0.58,-0.63,-0.45,-2.14,0.17,0.09,
0.185,0.58,-0.63,-0.45,-2.17,0.18,0.09,
0.188,0.55,-0.64,-0.03,-2.17,0.18,0.09,
0.189,0.55,-0.64,-0.03,-2.20,0.19,0.08,
0.207,0.55,-0.64,-0.03,-2.23,0.21,0.08,
0.208,0.55,-0.64,-0.03,-2.26,0.23,0.09,
0.208,0.09,-0.53,0.22,-2.26,0.23,0.09,
0.208,0.09,-0.53,0.22,-2.32,0.36,0.10,
0.208,0.09,-0.53,0.22,-2.32,0.36,0.10,
0.209,0.09,-0.53,0.22,-2.32,0.36,0.10,
0.209,0.09,-0.53,0.22,-2.32,0.44,0.11,
0.209,0.09,-0.53,0.22,-2.31,0.54,0.13,
0.209,0.09,-0.53,0.22,-2.29,0.65,0.14,
0.209,0.09,-0.53,0.22,-2.27,0.75,0.16,
0.21,-0.48,-0.28,0.71,-2.27,0.75,0.16,
0.21,-0.48,-0.28,0.71,-2.24,0.86,0.17,
0.21,-0.48,-0.28,0.71,-2.20,0.96,0.19,
0.21,-0.48,-0.28,0.71,-2.16,1.05,0.22,
0.248,-0.48,-0.28,0.71,-2.11,1.12,0.24,
0.249,-0.48,-0.28,0.71,-2.07,1.18,0.27,
0.249,-0.75,-0.14,1.25,-2.07,1.18,0.27,
0.249,-0.75,-0.14,1.25,-2.03,1.21,0.30,
0.25,-0.75,-0.14,1.25,-1.99,1.21,0.33,
0.25,-0.75,-0.14,1.25,-1.95,1.19,0.36,
0.25,-0.75,-0.14,1.25,-1.91,1.15,0.38,
0.25,-0.75,-0.14,1.25,-1.87,1.10,0.41,
0.25,-0.37,-0.19,1.48,-1.87,1.10,0.41,
0.25,-0.37,-0.19,1.48,-1.82,1.03,0.44,
0.251,-0.37,-0.19,1.48,-1.78,0.96,0.46,
0.251,-0.37,-0.19,1.48,-1.74,0.86,0.48,
0.251,-0.37,-0.19,1.48,-1.71,0.76,0.50,
0.251,-0.37,-0.19,1.48,-1.66,0.65,0.52,
0.251,0.55,-0.21,1.35,-1.66,0.65,0.52,
0.251,0.55,-0.21,1.35,-1.62,0.55,0.53,
0.251,0.55,-0.21,1.35,-1.57,0.45,0.54,
0.252,0.55,-0.21,1.35,-1.52,0.35,0.55,
0.252,0.55,-0.21,1.35,-1.46,0.25,0.55,
0.252,0.55,-0.21,1.35,-1.40,0.15,0.55,
0.252,1.46,0.01,1.33,-1.40,0.15,0.55,
0.252,1.46,0.01,1.33,-1.34,0.06,0.55,
0.252,1.46,0.01,1.33,-1.27,-0.03,0.55,
0.253,1.46,0.01,1.33,-1.21,-0.12,0.56,
0.253,1.46,0.01,1.33,-1.14,-0.21,0.57,
0.257,1.46,0.01,1.33,-1.08,-0.31,0.58,
0.259,1.26,-0.23,1.14,-1.08,-0.31,0.58,
0.259,1.26,-0.23,1.14,-1.02,-0.42,0.59,
0.261,1.26,-0.23,1.14,-0.96,-0.52,0.59,
0.261,1.26,-0.23,1.14,-0.90,-0.62,0.59,
0.263,1.26,-0.23,1.14,-0.84,-0.72,0.58,
0.265,1.26,-0.23,1.14,-0.79,-0.82,0.58,
0.267,1.23,-0.18,0.94,-0.79,-0.82,0.58,
0.268,1.23,-0.18,0.94,-0.73,-0.93,0.57,
0.268,1.23,-0.18,0.94,-0.68,-1.03,0.55,
0.288,1.23,-0.18,0.94,-0.63,-1.13,0.54,
0.29,1.23,-0.18,0.94,-0.58,-1.23,0.52,
0.29,1.23,-0.18,0.94,-0.53,-1.33,0.50,
0.291,1.14,0.16,0.96,-0.53,-1.33,0.50,
0.291,1.14,0.16,0.96,-0.49,-1.42,0.48,
0.292,1.14,0.16,0.96,-0.45,-1.48,0.46,
0.292,1.14,0.16,0.96,-0.44,-1.49,0.43,
0.292,1.14,0.16,0.96,-0.44,-1.44,0.39,
0.293,1.14,0.16,0.96,-0.47,-1.33,0.34,
0.293,1.24,0.59,0.31,-0.47,-1.33,0.34,
0.322,1.24,0.59,0.31,-0.51,-1.17,0.28,
0.322,1.24,0.59,0.31,-0.55,-1.02,0.22,
0.322,1.24,0.59,0.31,-0.56,-0.89,0.15,
0.323,1.24,0.59,0.31,-0.56,-0.80,0.10,
0.323,1.24,0.59,0.31,-0.55,-0.71,0.06,
0.323,1.31,0.88,0.18,-0.55,-0.71,0.06,
0.324,1.31,0.88,0.18,-0.53,-0.64,0.03,
0.324,1.31,0.88,0.18,-0.51,-0.57,0.01,
0.324,1.31,0.88,0.18,-0.48,-0.51,-0.01,
0.325,1.31,0.88,0.18,-0.46,-0.46,-0.02,
0.325,1.31,0.88,0.18,-0.45,-0.42,-0.03,
0.325,1.23,1.00,0.20,-0.45,-0.42,-0.03,
0.325,1.23,1.00,0.20,-0.44,-0.39,-0.04,
0.326,1.23,1.00,0.20,-0.45,-0.38,-0.06,
0.326,1.23,1.00,0.20,-0.46,-0.38,-0.08,
0.326,1.23,1.00,0.20,-0.48,-0.39,-0.09,
0.326,1.23,1.00,0.20,-0.50,-0.42,-0.11,
0.327,1.43,1.00,-0.09,-0.50,-0.42,-0.11,
0.327,1.43,1.00,-0.09,-0.51,-0.47,-0.13,
0.327,1.43,1.00,-0.09,-0.53,-0.52,-0.15,
0.328,1.43,1.00,-0.09,-0.54,-0.59,-0.17,
0.328,1.43,1.00,-0.09,-0.55,-0.65,-0.18,
0.328,1.43,1.00,-0.09,-0.55,-0.71,-0.19,
0.328,1.50,1.00,-0.19,-0.55,-0.71,-0.19,
0.329,1.50,1.00,-0.19,-0.55,-0.76,-0.21,
0.329,1.50,1.00,-0.19,-0.55,-0.83,-0.20,
0.342,1.50,1.00,-0.19,-0.55,-0.91,-0.20,
0.343,1.50,1.00,-0.19,-0.54,-0.99,-0.19,
0.343,1.50,1.00,-0.19,-0.53,-1.06,-0.18,
0.343,1.23,0.64,-0.42,-0.53,-1.06,-0.18,
0.344,1.23,0.64,-0.42,-0.52,-1.12,-0.17,
0.344,1.23,0.64,-0.42,-0.50,-1.16,-0.17,
0.344,1.23,0.64,-0.42,-0.48,-1.20,-0.16,
0.344,1.23,0.64,-0.42,-0.46,-1.23,-0.15,
0.345,1.23,0.64,-0.42,-0.44,-1.26,-0.14,
0.348,0.83,0.74,-0.23,-0.44,-1.26,-0.14,
0.348,0.83,0.74,-0.23,-0.41,-1.29,-0.13,
0.349,0.83,0.74,-0.23,-0.38,-1.31,-0.12,
0.35,0.83,0.74,-0.23,-0.35,-1.33,-0.10,
0.373,0.83,0.74,-0.23,-0.32,-1.35,-0.08,
0.378,0.83,0.74,-0.23,-0.30,-1.37,-0.05,
0.379,0.45,0.77,-0.01,-0.30,-1.37,-0.05,
0.38,0.45,0.77,-0.01,-0.27,-1.39,-0.03,
0.381,0.45,0.77,-0.01,-0.24,-1.41,-0.00,
0.382,0.45,0.77,-0.01,-0.21,-1.43,0.03,
0.382,0.45,0.77,-0.01,-0.18,-1.46,0.06,
0.383,0.45,0.77,-0.01,-0.15,-1.49,0.09,
0.384,0.23,0.79,0.20,-0.15,-1.49,0.09,
0.385,0.23,0.79,0.20,-0.13,-1.53,0.12,
0.385,0.23,0.79,0.20,-0.10,-1.57,0.16,
0.386,0.23,0.79,0.20,-0.08,-1.62,0.19,
0.387,0.23,0.79,0.20,-0.06,-1.67,0.23,
0.388,0.23,0.79,0.20,-0.04,-1.72,0.26,
0.389,0.37,0.61,0.16,-0.04,-1.72,0.26,
0.39,0.37,0.61,0.16,-0.03,-1.77,0.30,
0.391,0.37,0.61,0.16,-0.02,-1.81,0.33,
0.392,0.37,0.61,0.16,-0.01,-1.84,0.37,
0.393,0.37,0.61,0.16,-0.01,-1.86,0.41,
0.394,0.37,0.61,0.16,-0.01,-1.88,0.45,
0.394,0.29,0.51,-0.18,-0.01,-1.88,0.45,
0.395,0.29,0.51,-0.18,-0.01,-1.88,0.49,
0.395,0.29,0.51,-0.18,-0.01,-1.87,0.53,
0.397,0.29,0.51,-0.18,-0.01,-1.85,0.58,
0.398,0.29,0.51,-0.18,-0.02,-1.82,0.62,
0.399,0.29,0.51,-0.18,-0.02,-1.78,0.67,
0.399,0.01,0.43,-0.62,-0.02,-1.78,0.67,
0.4,0.01,0.43,-0.62,-0.03,-1.74,0.71,
0.4,0.01,0.43,-0.62,-0.04,-1.69,0.75,
0.401,0.01,0.43,-0.62,-0.06,-1.64,0.80,
0.426,0.01,0.43,-0.62,-0.07,-1.58,0.84,
0.426,0.01,0.43,-0.62,-0.09,-1.52,0.88,
0.427,-0.09,0.20,-1.17,-0.09,-1.52,0.88,
0.427,-0.09,0.20,-1.17,-0.11,-1.45,0.92,
0.427,-0.09,0.20,-1.17,-0.13,-1.39,0.95,
0.427,-0.09,0.20,-1.17,-0.16,-1.33,0.99,
0.427,-0.09,0.20,-1.17,-0.17,-1.26,1.02,
0.427,-0.09,0.20,-1.17,-0.20,-1.20,1.04,
0.428,-0.06,-0.02,-1.34,-0.20,-1.20,1.04,
0.428,-0.06,-0.02,-1.34,-0.21,-1.13,1.07,
0.428,-0.06,-0.02,-1.34,-0.23,-1.06,1.09,
0.428,-0.06,-0.02,-1.34,-0.25,-0.99,1.11,
0.428,-0.06,-0.02,-1.34,-0.25,-0.93,1.13,
0.428,-0.06,-0.02,-1.34,-0.26,-0.86,1.14,
0.429,-0.09,-0.18,-1.05,-0.26,-0.86,1.14,
0.429,-0.09,-0.18,-1.05,-0.26,-0.80,1.15,
0.429,-0.09,-0.18,-1.05,-0.27,-0.76,1.16,
0.43,-0.09,-0.18,-1.05,-0.26,-0.71,1.17,
0.432,-0.09,-0.18,-1.05,-0.26,-0.67,1.17,
0.434,-0.09,-0.18,-1.05,-0.25,-0.64,1.16,
0.437,-0.45,-0.44,-0.46,-0.25,-0.64,1.16,
0.441,-0.45,-0.44,-0.46,-0.24,-0.60,1.16,
0.441,-0.45,-0.44,-0.46,-0.23,-0.57,1.14,
0.441,-0.45,-0.44,-0.46,-0.21,-0.54,1.13,
0.442,-0.45,-0.44,-0.46,-0.19,-0.51,1.11,
0.444,-0.45,-0.44,-0.46,-0.18,-0.49,1.08,
0.447,-0.57,-0.71,-0.00,-0.18,-0.49,1.08,
0.447,-0.57,-0.71,-0.00,-0.16,-0.46,1.05,
0.448,-0.57,-0.71,-0.00,-0.14,-0.43,1.01,
0.451,-0.57,-0.71,-0.00,-0.12,-0.40,0.98,
0.453,-0.57,-0.71,-0.00,-0.10,-0.37,0.93,
0.487,-0.57,-0.71,-0.00,-0.08,-0.35,0.89,
0.487,-0.55,-0.69,0.31,-0.08,-0.35,0.89,
0.487,-0.55,-0.69,0.31,-0.05,-0.32,0.84,
0.487,-0.55,-0.69,0.31,-0.03,-0.29,0.79,
0.488,-0.55,-0.69,0.31,0.00,-0.27,0.73,
0.488,-0.55,-0.69,0.31,0.03,-0.26,0.67,
0.488,-0.55,-0.69,0.31,0.07,-0.25,0.61,
0.488,0.04,-0.44,0.87,0.07,-0.25,0.61,
0.488,0.04,-0.44,0.87,0.10,-0.25,0.54,
0.489,0.04,-0.44,0.87,0.13,-0.25,0.48,
0.489,0.04,-0.44,0.87,0.17,-0.26,0.41,
0.489,0.04,-0.44,0.87,0.20,-0.26,0.34,
0.489,0.04,-0.44,0.87,0.24,-0.27,0.28,
0.49,0.89,-0.01,1.31,0.24,-0.27,0.28,
0.49,0.89,-0.01,1.31,0.28,-0.27,0.22,
0.49,0.89,-0.01,1.31,0.32,-0.28,0.16,
0.49,0.89,-0.01,1.31,0.36,-0.28,0.10,
0.49,0.89,-0.01,1.31,0.39,-0.28,0.05,
0.491,0.89,-0.01,1.31,0.43,-0.26,0.00,
0.491,1.42,0.25,1.50,0.43,-0.26,0.00,
0.491,1.42,0.25,1.50,0.48,-0.20,-0.05,
0.492,1.42,0.25,1.50,0.52,-0.11,-0.09,
0.492,1.42,0.25,1.50,0.57,0.03,-0.13,
0.492,1.42,0.25,1.50,0.62,0.18,-0.17,
0.494,1.42,0.25,1.50,0.68,0.34,-0.20,
0.499,1.64,-0.05,2.29,0.68,0.34,-0.20,
0.499,1.64,-0.05,2.29,0.73,0.48,-0.23,
0.5,1.64,-0.05,2.29,0.78,0.59,-0.25,
0.5,1.64,-0.05,2.29,0.83,0.66,-0.27,
0.504,1.64,-0.05,2.29,0.86,0.70,-0.28,
0.504,1.64,-0.05,2.29,0.90,0.70,-0.28,
0.508,1.26,-0.43,1.97,0.90,0.70,-0.28,
0.509,1.26,-0.43,1.97,0.95,0.70,-0.27,
0.509,1.26,-0.43,1.97,0.98,0.70,-0.26,
0.513,1.26,-0.43,1.97,1.02,0.69,-0.25,
0.513,1.26,-0.43,1.97,1.06,0.69,-0.23,
0.516,1.26,-0.43,1.97,1.10,0.69,-0.21,
0.517,0.19,-0.38,1.18,1.10,0.69,-0.21,
0.517,0.19,-0.38,1.18,1.14,0.70,-0.20,
0.52,0.19,-0.38,1.18,1.18,0.72,-0.18,
0.52,0.19,-0.38,1.18,1.21,0.74,-0.16,
0.529,0.19,-0.38,1.18,1.25,0.75,-0.15,
0.53,0.19,-0.38,1.18,1.27,0.75,-0.13,
0.53,-0.22,-0.39,0.69,1.27,0.75,-0.13,
0.53,-0.22,-0.39,0.69,1.30,0.75,-0.12,
0.53,-0.22,-0.39,0.69,1.32,0.73,-0.11,
0.53,-0.22,-0.39,0.69,1.34,0.71,-0.10,
0.532,-0.22,-0.39,0.69,1.35,0.68,-0.10,
0.534,-0.22,-0.39,0.69,1.36,0.64,-0.10,
0.595,-0.38,-0.34,0.00,1.36,0.64,-0.10,
0.596,-0.38,-0.34,0.00,1.36,0.59,-0.10,
0.596,-0.38,-0.34,0.00,1.36,0.55,-0.10,
0.597,-0.38,-0.34,0.00,1.36,0.50,-0.11,
0.597,-0.38,-0.34,0.00,1.36,0.46,-0.11,
0.597,-0.38,-0.34,0.00,1.35,0.40,-0.11,
0.597,-0.51,-0.07,-0.45,1.35,0.40,-0.11,
0.597,-0.51,-0.07,-0.45,1.35,0.35,-0.12,
0.598,-0.51,-0.07,-0.45,1.34,0.29,-0.12,
0.598,-0.51,-0.07,-0.45,1.33,0.22,-0.12,
0.598,-0.51,-0.07,-0.45,1.32,0.16,-0.13,
0.598,-0.51,-0.07,-0.45,1.32,0.09,-0.13,
0.598,-0.79,0.01,-0.60,1.32,0.09,-0.13,
0.599,-0.79,0.01,-0.60,1.31,0.03,-0.13,
0.599,-0.79,0.01,-0.60,1.30,-0.04,-0.13,
0.599,-0.79,0.01,-0.60,1.30,-0.10,-0.15,
0.599,-0.79,0.01,-0.60,1.29,-0.16,-0.17,
0.599,-0.79,0.01,-0.60,1.27,-0.21,-0.19,
0.6,-0.38,-0.20,-0.71,1.27,-0.21,-0.19,
0.6,-0.38,-0.20,-0.71,1.25,-0.26,-0.21,
0.6,-0.38,-0.20,-0.71,1.24,-0.30,-0.24,
0.6,-0.38,-0.20,-0.71,1.22,-0.34,-0.27,
0.6,-0.38,-0.20,-0.71,1.20,-0.37,-0.31,
0.601,-0.38,-0.20,-0.71,1.17,-0.41,-0.34,
0.601,0.10,-0.31,-0.85,1.17,-0.41,-0.34,
0.601,0.10,-0.31,-0.85,1.15,-0.45,-0.38,
0.601,0.10,-0.31,-0.85,1.12,-0.48,-0.42,
0.601,0.10,-0.31,-0.85,1.08,-0.50,-0.45,
0.602,0.10,-0.31,-0.85,1.05,-0.53,-0.49,
0.602,0.10,-0.31,-0.85,1.01,-0.56,-0.52,
0.602,-0.03,-0.21,-1.11,1.01,-0.56,-0.52,
0.602,-0.03,-0.21,-1.11,0.97,-0.59,-0.54,
0.602,-0.03,-0.21,-1.11,0.94,-0.61,-0.56,
0.603,-0.03,-0.21,-1.11,0.90,-0.63,-0.57,
0.603,-0.03,-0.21,-1.11,0.86,-0.65,-0.57,
0.603,-0.03,-0.21,-1.11,0.83,-0.65,-0.56,
0.603,-0.26,-0.13,-1.00,0.83,-0.65,-0.56,
0.603,-0.26,-0.13,-1.00,0.80,-0.64,-0.56,
0.604,-0.26,-0.13,-1.00,0.77,-0.63,-0.55,
0.604,-0.26,-0.13,-1.00,0.75,-0.61,-0.53,
0.604,-0.26,-0.13,-1.00,0.73,-0.58,-0.52,
0.604,-0.26,-0.13,-1.00,0.71,-0.53,-0.50,
0.607,-0.47,-0.30,-0.66,0.71,-0.53,-0.50,
0.608,-0.47,-0.30,-0.66,0.69,-0.48,-0.48,
0.608,-0.47,-0.30,-0.66,0.67,-0.42,-0.47,
0.61,-0.47,-0.30,-0.66,0.66,-0.36,-0.45,
0.612,-0.47,-0.30,-0.66,0.65,-0.30,-0.44,
0.614,-0.47,-0.30,-0.66,0.65,-0.24,-0.42,
0.617,-0.48,-0.42,-0.21,0.65,-0.24,-0.42,
0.617,-0.48,-0.42,-0.21,0.64,-0.18,-0.41,
0.632,-0.48,-0.42,-0.21,0.63,-0.12,-0.40,
0.671,-0.48,-0.42,-0.21,0.63,-0.07,-0.39,
0.671,-0.48,-0.42,-0.21,0.63,-0.01,-0.38,
0.672,-0.48,-0.42,-0.21,0.63,0.03,-0.37,
0.673,-0.40,-0.49,0.24,0.63,0.03,-0.37,
0.673,-0.40,-0.49,0.24,0.63,0.07,-0.35,
0.673,-0.40,-0.49,0.24,0.64,0.11,-0.34,
0.673,-0.40,-0.49,0.24,0.64,0.14,-0.32,
0.674,-0.40,-0.49,0.24,0.65,0.17,-0.30,
0.674,-0.40,-0.49,0.24,0.66,0.19,-0.29,
0.674,-0.45,-0.44,0.58,0.66,0.19,-0.29,
0.674,-0.45,-0.44,0.58,0.66,0.21,-0.26,
0.675,-0.45,-0.44,0.58,0.67,0.23,-0.24,
0.675,-0.45,-0.44,0.58,0.68,0.24,-0.22,
0.675,-0.45,-0.44,0.58,0.68,0.24,-0.20,
0.675,-0.45,-0.44,0.58,0.69,0.25,-0.18,
0.675,-0.57,-0.41,0.58,0.69,0.25,-0.18,
0.676,-0.57,-0.41,0.58,0.69,0.25,-0.15,
0.676,-0.57,-0.41,0.58,0.70,0.24,-0.13,
0.676,-0.57,-0.41,0.58,0.70,0.23,-0.11,
0.676,-0.57,-0.41,0.58,0.70,0.21,-0.09,
0.677,-0.57,-0.41,0.58,0.70,0.19,-0.07,
0.677,-0.75,-0.32,0.38,0.70,0.19,-0.07,
0.677,-0.75,-0.32,0.38,0.70,0.16,-0.05,
0.677,-0.75,-0.32,0.38,0.72,0.08,-0.03,
0.677,-0.75,-0.32,0.38,0.75,-0.05,0.00,
0.678,-0.75,-0.32,0.38,0.79,-0.15,0.03,
0.678,-0.75,-0.32,0.38,0.82,-0.21,0.06,
0.678,-0.66,-0.20,0.53,0.82,-0.21,0.06,
0.678,-0.66,-0.20,0.53,0.85,-0.24,0.07,
0.678,-0.66,-0.20,0.53,0.87,-0.27,0.08,
0.679,-0.66,-0.20,0.53,0.89,-0.29,0.08,
0.679,-0.66,-0.20,0.53,0.89,-0.31,0.07,
0.679,-0.66,-0.20,0.53,0.89,-0.32,0.06,
0.679,-0.41,-0.23,0.12,0.89,-0.32,0.06,
0.68,-0.41,-0.23,0.12,0.88,-0.34,0.04,
0.68,-0.41,-0.23,0.12,0.86,-0.37,0.02,
0.68,-0.41,-0.23,0.12,0.85,-0.39,-0.00,
0.682,-0.41,-0.23,0.12,0.83,-0.42,-0.03,
0.686,-0.41,-0.23,0.12,0.80,-0.45,-0.06,
0.687,-0.35,-0.31,-0.51,0.80,-0.45,-0.06,
0.687,-0.35,-0.31,-0.51,0.77,-0.47,-0.09,
0.689,-0.35,-0.31,-0.51,0.74,-0.49,-0.13,
0.691,-0.35,-0.31,-0.51,0.71,-0.51,-0.16,
0.694,-0.35,-0.31,-0.51,0.67,-0.52,-0.19,
0.695,-0.35,-0.31,-0.51,0.64,-0.52,-0.22,
0.696,-0.14,-0.16,-0.77,0.64,-0.52,-0.22,
0.697,-0.14,-0.16,-0.77,0.61,-0.52,-0.24,
0.698,-0.14,-0.16,-0.77,0.59,-0.50,-0.25,
0.7,-0.14,-0.16,-0.77,0.56,-0.49,-0.26,
0.702,-0.14,-0.16,-0.77,0.54,-0.46,-0.26,
0.704,-0.14,-0.16,-0.77,0.52,-0.43,-0.25,
0.707,-0.26,0.01,-0.64,0.52,-0.43,-0.25,
0.707,-0.26,0.01,-0.64,0.51,-0.39,-0.24,
0.708,-0.26,0.01,-0.64,0.50,-0.36,-0.23,
0.71,-0.26,0.01,-0.64,0.48,-0.32,-0.21,
0.712,-0.26,0.01,-0.64,0.47,-0.29,-0.19,
0.714,-0.26,0.01,-0.64,0.46,-0.26,-0.17,
0.716,-0.51,-0.07,-0.56,0.46,-0.26,-0.17,
0.717,-0.51,-0.07,-0.56,0.44,-0.23,-0.16,
0.718,-0.51,-0.07,-0.56,0.42,-0.19,-0.14,
0.72,-0.51,-0.07,-0.56,0.39,-0.16,-0.12,
0.723,-0.51,-0.07,-0.56,0.37,-0.13,-0.11,
0.726,-0.51,-0.07,-0.56,0.33,-0.08,-0.09,
0.726,-0.52,-0.18,-0.65,0.33,-0.08,-0.09,
0.727,-0.52,-0.18,-0.65,0.31,-0.06,-0.09,
0.729,-0.52,-0.18,-0.65,0.29,-0.02,-0.07,
0.731,-0.52,-0.18,-0.65,0.26,0.01,-0.06,
0.736,-0.52,-0.18,-0.65,0.23,0.06,-0.06,
0.737,-0.52,-0.18,-0.65,0.20,0.11,-0.04,
0.738,-0.50,-0.15,-0.74,0.20,0.11,-0.04,
0.738,-0.50,-0.15,-0.74,0.17,0.15,-0.03,
0.739,-0.50,-0.15,-0.74,0.14,0.20,-0.03,
0.74,-0.50,-0.15,-0.74,0.11,0.25,-0.02,
0.742,-0.50,-0.15,-0.74,0.09,0.30,-0.01,
0.744,-0.50,-0.15,-0.74,0.06,0.35,-0.01,
0.746,-0.40,-0.02,-0.75,0.06,0.35,-0.01,
0.747,-0.40,-0.02,-0.75,0.04,0.39,0.00,
0.748,-0.40,-0.02,-0.75,0.01,0.44,0.01,
0.75,-0.40,-0.02,-0.75,-0.01,0.49,0.01,
0.76,-0.40,-0.02,-0.75,-0.04,0.53,0.02,
0.761,-0.40,-0.02,-0.75,-0.06,0.57,0.02,
0.761,-0.31,-0.02,-0.76,-0.06,0.57,0.02,
0.762,-0.31,-0.02,-0.76,-0.09,0.61,0.03,
0.762,-0.31,-0.02,-0.76,-0.11,0.64,0.03,
0.762,-0.31,-0.02,-0.76,-0.13,0.66,0.04,
0.763,-0.31,-0.02,-0.76,-0.16,0.68,0.04,
0.764,-0.31,-0.02,-0.76,-0.18,0.70,0.04,
0.767,-0.13,-0.01,-0.73,-0.18,0.70,0.04,
0.767,-0.13,-0.01,-0.73,-0.20,0.71,0.04,
0.815,-0.13,-0.01,-0.73,-0.22,0.71,0.04,
0.817,-0.13,-0.01,-0.73,-0.23,0.71,0.04,
0.818,-0.13,-0.01,-0.73,-0.25,0.71,0.04,
0.819,-0.13,-0.01,-0.73,-0.26,0.70,0.04,
0.82,-0.04,0.07,-0.55,-0.26,0.70,0.04,
0.823,-0.04,0.07,-0.55,-0.27,0.69,0.04,
0.823,-0.04,0.07,-0.55,-0.28,0.68,0.04,
0.824,-0.04,0.07,-0.55,-0.28,0.67,0.04,
0.825,-0.04,0.07,-0.55,-0.29,0.65,0.04,
0.825,-0.04,0.07,-0.55,-0.29,0.63,0.04,
0.826,-0.01,0.08,-0.23,-0.29,0.63,0.04,
0.863,-0.01,0.08,-0.23,-0.28,0.60,0.04,
0.864,-0.01,0.08,-0.23,-0.28,0.57,0.04,
0.865,-0.01,0.08,-0.23,-0.27,0.54,0.04,
0.865,-0.01,0.08,-0.23,-0.26,0.51,0.03,
0.866,-0.01,0.08,-0.23,-0.24,0.47,0.03,
0.867,0.05,0.10,0.33,-0.24,0.47,0.03,
0.868,0.05,0.10,0.33,-0.22,0.44,0.02,
0.869,0.05,0.10,0.33,-0.20,0.40,0.02,
0.869,0.05,0.10,0.33,-0.18,0.37,0.01,
0.87,0.05,0.10,0.33,-0.15,0.33,0.00,
0.871,0.05,0.10,0.33,-0.12,0.29,-0.01,
0.872,0.14,0.07,0.79,-0.12,0.29,-0.01,
0.873,0.14,0.07,0.79,-0.10,0.26,-0.01,
0.873,0.14,0.07,0.79,-0.07,0.22,-0.02,
0.874,0.14,0.07,0.79,-0.04,0.19,-0.03,
0.874,0.14,0.07,0.79,-0.01,0.16,-0.04,
0.875,0.14,0.07,0.79,0.02,0.14,-0.05,
0.875,0.22,0.03,0.93,0.02,0.14,-0.05,
0.875,0.22,0.03,0.93,0.05,0.11,-0.06,
0.876,0.22,0.03,0.93,0.08,0.09,-0.07,
0.876,0.22,0.03,0.93,0.10,0.07,-0.07,
0.877,0.22,0.03,0.93,0.12,0.05,-0.08,
0.877,0.22,0.03,0.93,0.14,0.03,-0.08,
0.878,0.18,0.03,0.68,0.14,0.03,-0.08,
0.878,0.18,0.03,0.68,0.15,0.01,-0.09,
0.879,0.18,0.03,0.68,0.16,-0.00,-0.09,
0.879,0.18,0.03,0.68,0.16,-0.02,-0.09,
0.879,0.18,0.03,0.68,0.17,-0.02,-0.09,
0.88,0.18,0.03,0.68,0.17,-0.03,-0.09,
0.881,0.06,-0.03,0.25,0.17,-0.03,-0.09,
0.881,0.06,-0.03,0.25,0.18,-0.03,-0.08,
0.881,0.06,-0.03,0.25,0.17,-0.03,-0.08,
0.881,0.06,-0.03,0.25,0.17,-0.02,-0.07,
0.882,0.06,-0.03,0.25,0.17,-0.02,-0.07,
0.882,0.06,-0.03,0.25,0.16,-0.01,-0.06,
0.882,-0.08,0.01,-0.08,0.16,-0.01,-0.06,
0.882,-0.08,0.01,-0.08,0.16,-0.00,-0.06,
0.883,-0.08,0.01,-0.08,0.15,0.00,-0.05,
0.883,-0.08,0.01,-0.08,0.14,0.01,-0.04,
0.883,-0.08,0.01,-0.08,0.14,0.02,-0.04,
0.883,-0.08,0.01,-0.08,0.13,0.03,-0.04,
0.884,-0.07,0.07,-0.24,0.13,0.03,-0.04,
0.884,-0.07,0.07,-0.24,0.12,0.04,-0.04,
0.884,-0.07,0.07,-0.24,0.11,0.05,-0.03,
0.885,-0.07,0.07,-0.24,0.10,0.06,-0.03,
0.885,-0.07,0.07,-0.24,0.09,0.08,-0.03,
0.885,-0.07,0.07,-0.24,0.08,0.09,-0.03,
0.886,0.02,0.08,-0.40,0.08,0.09,-0.03,
0.886,0.02,0.08,-0.40,0.07,0.10,-0.02,
0.886,0.02,0.08,-0.40,0.06,0.11,-0.02,
0.887,0.02,0.08,-0.40,0.05,0.12,-0.03,
0.887,0.02,0.08,-0.40,0.04,0.12,-0.02,
0.889,0.02,0.08,-0.40,0.02,0.13,-0.03,
0.889,0.11,0.10,-0.38,0.02,0.13,-0.03,
0.889,0.11,0.10,-0.38,0.01,0.14,-0.03,
0.89,0.11,0.10,-0.38,0.01,0.14,-0.03,
0.89,0.11,0.10,-0.38,0.00,0.15,-0.03,
0.89,0.11,0.10,-0.38,-0.00,0.15,-0.03,
0.891,0.11,0.10,-0.38,-0.01,0.16,-0.03,
0.891,0.11,0.15,-0.24,-0.01,0.16,-0.03,
0.891,0.11,0.15,-0.24,-0.01,0.16,-0.04,
0.893,0.11,0.15,-0.24,-0.02,0.17,-0.03,
0.893,0.11,0.15,-0.24,-0.02,0.17,-0.04,
0.894,0.11,0.15,-0.24,-0.02,0.17,-0.03,
0.895,0.11,0.15,-0.24,-0.02,0.17,-0.03,
0.897,0.05,0.08,-0.06,-0.02,0.17,-0.03,
0.897,0.05,0.08,-0.06,-0.02,0.18,-0.03,
0.898,0.05,0.08,-0.06,-0.02,0.17,-0.03,
0.908,0.05,0.08,-0.06,-0.02,0.17,-0.03,
0.908,0.05,0.08,-0.06,-0.02,0.17,-0.03,
0.909,0.05,0.08,-0.06,-0.02,0.17,-0.02,
0.909,0.01,0.05,0.13,-0.02,0.17,-0.02,
0.909,0.01,0.05,0.13,-0.01,0.17,-0.02,
0.91,0.01,0.05,0.13,-0.01,0.17,-0.02,
0.913,0.01,0.05,0.13,-0.01,0.17,-0.02,
0.913,0.01,0.05,0.13,-0.00,0.17,-0.01,
0.914,0.01,0.05,0.13,0.00,0.17,-0.01,
0.918,0.03,0.09,0.27,0.00,0.17,-0.01,
0.919,0.03,0.09,0.27,0.01,0.17,-0.01,
0.919,0.03,0.09,0.27,0.01,0.17,-0.01,
0.928,0.03,0.09,0.27,0.02,0.18,-0.01,
0.93,0.03,0.09,0.27,0.02,0.18,-0.00,
0.93,0.03,0.09,0.27,0.03,0.18,-0.00,
0.931,0.00,0.09,0.27,0.03,0.18,-0.00,
0.931,0.00,0.09,0.27,0.03,0.18,-0.00,
0.934,0.00,0.09,0.27,0.04,0.18,0.00,
0.935,0.00,0.09,0.27,0.04,0.18,0.00,
0.935,0.00,0.09,0.27,0.04,0.18,0.00,
0.935,0.00,0.09,0.27,0.04,0.17,0.00,
0.987,0.01,0.12,0.12,0.04,0.17,0.00,
0.988,0.01,0.12,0.12,0.04,0.17,-0.00,
0.988,0.01,0.12,0.12,0.04,0.16,-0.00,
0.989,0.01,0.12,0.12,0.04,0.16,-0.01,
0.989,0.01,0.12,0.12,0.04,0.15,-0.01,
0.989,0.01,0.12,0.12,0.04,0.14,-0.01,
0.989,0.03,0.14,0.01,0.04,0.14,-0.01,
0.989,0.03,0.14,0.01,0.04,0.13,-0.01,
0.989,0.03,0.14,0.01,0.04,0.12,-0.02,
0.99,0.03,0.14,0.01,0.04,0.11,-0.02,
0.99,0.03,0.14,0.01,0.05,0.10,-0.02,
1.023,0.03,0.14,0.01,0.05,0.09,-0.03,
1.024,0.05,0.12,0.01,0.05,0.09,-0.03,
1.025,0.05,0.12,0.01,0.05,0.08,-0.03,
1.025,0.05,0.12,0.01,0.05,0.07,-0.03,
1.026,0.05,0.12,0.01,0.05,0.07,-0.03,
1.027,0.05,0.12,0.01,0.05,0.06,-0.03,
1.028,0.05,0.12,0.01,0.05,0.06,-0.03,
1.029,-0.04,0.09,-0.06,0.05,0.06,-0.03,
1.03,-0.04,0.09,-0.06,0.05,0.05,-0.03,
1.03,-0.04,0.09,-0.06,0.05,0.05,-0.03,
1.031,-0.04,0.09,-0.06,0.04,0.05,-0.03,
1.031,-0.04,0.09,-0.06,0.04,0.05,-0.03,
1.032,-0.04,0.09,-0.06,0.04,0.05,-0.02,
1.033,-0.10,0.02,-0.12,0.04,0.05,-0.02,
1.033,-0.10,0.02,-0.12,0.03,0.04,-0.02,
1.034,-0.10,0.02,-0.12,0.02,0.05,-0.01,
1.035,-0.10,0.02,-0.12,0.02,0.04,-0.01,
1.035,-0.10,0.02,-0.12,0.02,0.05,-0.01,
1.036,-0.10,0.02,-0.12,0.02,0.04,-0.01,
1.037,-0.10,-0.06,-0.01,0.02,0.04,-0.01,
1.038,-0.10,-0.06,-0.01,0.02,0.04,-0.01,
1.038,-0.10,-0.06,-0.01,0.02,0.04,-0.00,
1.039,-0.10,-0.06,-0.01,0.02,0.04,0.00,
1.04,-0.10,-0.06,-0.01,0.02,0.04,0.00,
1.04,-0.10,-0.06,-0.01,0.02,0.04,0.00,
1.041,-0.13,-0.13,0.14,0.02,0.04,0.00,
1.041,-0.13,-0.13,0.14,0.03,0.04,0.01,
1.042,-0.13,-0.13,0.14,0.03,0.04,0.01,
1.043,-0.13,-0.13,0.14,0.03,0.04,0.01,
1.043,-0.13,-0.13,0.14,0.04,0.03,0.01,
1.044,-0.13,-0.13,0.14,0.04,0.03,0.02,
1.045,-0.05,-0.13,0.18,0.04,0.03,0.02,
1.046,-0.05,-0.13,0.18,0.04,0.03,0.02,
1.046,-0.05,-0.13,0.18,0.05,0.03,0.02,
1.048,-0.05,-0.13,0.18,0.05,0.03,0.02,
1.049,-0.05,-0.13,0.18,0.05,0.03,0.03,
1.049,-0.05,-0.13,0.18,0.05,0.04,0.03,
1.05,-0.01,-0.10,0.11,0.05,0.04,0.03,
1.05,-0.01,-0.10,0.11,0.06,0.04,0.03,
1.051,-0.01,-0.10,0.11,0.06,0.04,0.03,
1.052,-0.01,-0.10,0.11,0.06,0.04,0.02,
1.052,-0.01,-0.10,0.11,0.06,0.04,0.02,
1.053,-0.01,-0.10,0.11,0.06,0.05,0.02,
1.053,0.17,-0.06,0.06,0.06,0.05,0.02,
1.054,0.17,-0.06,0.06,0.06,0.05,0.01,
1.055,0.17,-0.06,0.06,0.06,0.06,0.01,
1.055,0.17,-0.06,0.06,0.06,0.06,0.01,
1.056,0.17,-0.06,0.06,0.06,0.06,0.01,
1.056,0.17,-0.06,0.06,0.06,0.07,0.01,
1.056,0.21,-0.02,0.06,0.06,0.07,0.01,
1.057,0.21,-0.02,0.06,0.06,0.07,0.00,
1.057,0.21,-0.02,0.06,0.07,0.08,-0.00,
1.057,0.21,-0.02,0.06,0.07,0.08,-0.00,
1.057,0.21,-0.02,0.06,0.07,0.09,-0.01,
1.058,0.21,-0.02,0.06,0.07,0.10,-0.01,
1.058,0.17,-0.04,0.08,0.07,0.10,-0.01,
1.059,0.17,-0.04,0.08,0.08,0.10,-0.01,
1.059,0.17,-0.04,0.08,0.08,0.11,-0.01,
1.059,0.17,-0.04,0.08,0.09,0.11,-0.01,
1.06,0.17,-0.04,0.08,0.09,0.12,-0.01,
1.06,0.17,-0.04,0.08,0.09,0.12,-0.01,
1.06,0.07,-0.04,0.06,0.09,0.12,-0.01,
1.061,0.07,-0.04,0.06,0.10,0.13,-0.01,
1.061,0.07,-0.04,0.06,0.10,0.13,-0.01,
1.062,0.07,-0.04,0.06,0.10,0.13,-0.00,
1.064,0.07,-0.04,0.06,0.10,0.13,-0.00,
1.065,0.07,-0.04,0.06,0.10,0.13,-0.00,
1.067,-0.01,-0.05,-0.03,0.10,0.13,-0.00,
1.067,-0.01,-0.05,-0.03,0.11,0.12,-0.00,
1.068,-0.01,-0.05,-0.03,0.11,0.12,0.00,
1.07,-0.01,-0.05,-0.03,0.11,0.11,0.00,
1.072,-0.01,-0.05,-0.03,0.11,0.11,0.00,
1.075,-0.01,-0.05,-0.03,0.10,0.09,0.00,
1.077,-0.05,-0.06,-0.20,0.10,0.09,0.00,
1.077,-0.05,-0.06,-0.20,0.10,0.09,0.00,
1.079,-0.05,-0.06,-0.20,0.10,0.07,0.00,
1.081,-0.05,-0.06,-0.20,0.10,0.06,0.00,
1.087,-0.05,-0.06,-0.20,0.09,0.04,0.01,
1.089,-0.05,-0.06,-0.20,0.09,0.03,0.01,
1.09,-0.11,-0.07,-0.31,0.09,0.03,0.01,
1.09,-0.11,-0.07,-0.31,0.08,0.01,0.01,
1.09,-0.11,-0.07,-0.31,0.08,0.00,0.01,
1.091,-0.11,-0.07,-0.31,0.08,-0.01,0.01,
1.093,-0.11,-0.07,-0.31,0.07,-0.03,0.01,
1.095,-0.11,-0.07,-0.31,0.07,-0.04,0.02,
1.097,-0.14,-0.05,-0.28,0.07,-0.04,0.02,
1.097,-0.14,-0.05,-0.28,0.07,-0.05,0.02,
1.098,-0.14,-0.05,-0.28,0.06,-0.06,0.02,
1.122,-0.14,-0.05,-0.28,0.06,-0.07,0.03,
1.123,-0.14,-0.05,-0.28,0.06,-0.07,0.03,
1.124,-0.14,-0.05,-0.28,0.06,-0.08,0.03,
1.124,-0.17,-0.08,-0.20,0.06,-0.08,0.03,
1.125,-0.17,-0.08,-0.20,0.05,-0.08,0.04,
1.125,-0.17,-0.08,-0.20,0.05,-0.09,0.04,
1.125,-0.17,-0.08,-0.20,0.05,-0.09,0.04,
1.125,-0.17,-0.08,-0.20,0.05,-0.10,0.04,
1.126,-0.17,-0.08,-0.20,0.05,-0.10,0.05,
1.126,-0.06,-0.14,-0.12,0.05,-0.10,0.05,
1.126,-0.06,-0.14,-0.12,0.05,-0.10,0.05,
1.127,-0.06,-0.14,-0.12,0.05,-0.10,0.05,
1.157,-0.06,-0.14,-0.12,0.05,-0.10,0.05,
1.158,-0.06,-0.14,-0.12,0.05,-0.10,0.06,
1.158,-0.06,-0.14,-0.12,0.05,-0.09,0.06,
1.158,0.04,-0.12,-0.06,0.05,-0.09,0.06,
1.159,0.04,-0.12,-0.06,0.05,-0.09,0.06,
1.159,0.04,-0.12,-0.06,0.05,-0.08,0.06,
1.16,0.04,-0.12,-0.06,0.05,-0.07,0.06,
1.16,0.04,-0.12,-0.06,0.05,-0.06,0.05,
1.16,0.04,-0.12,-0.06,0.05,-0.05,0.05,
1.161,0.11,-0.11,-0.12,0.05,-0.05,0.05,
1.161,0.11,-0.11,-0.12,0.05,-0.04,0.05,
1.161,0.11,-0.11,-0.12,0.04,-0.03,0.05,
1.161,0.11,-0.11,-0.12,0.04,-0.01,0.05,
1.162,0.11,-0.11,-0.12,0.03,0.01,0.04,
1.162,0.11,-0.11,-0.12,0.02,0.03,0.04,
1.162,0.11,-0.11,-0.29,0.02,0.03,0.04,
1.163,0.11,-0.11,-0.29,0.01,0.04,0.04,
1.163,0.11,-0.11,-0.29,0.01,0.06,0.04,
1.163,0.11,-0.11,-0.29,-0.00,0.08,0.04,
1.164,0.11,-0.11,-0.29,-0.01,0.10,0.04,
1.164,0.11,-0.11,-0.29,-0.02,0.12,0.04,
1.164,0.09,-0.07,-0.41,-0.02,0.12,0.04,
1.164,0.09,-0.07,-0.41,-0.02,0.13,0.04,
1.165,0.09,-0.07,-0.41,-0.03,0.15,0.04,
1.165,0.09,-0.07,-0.41,-0.03,0.16,0.04,
1.165,0.09,-0.07,-0.41,-0.04,0.17,0.05,
1.165,0.09,-0.07,-0.41,-0.04,0.18,0.05,
1.193,-0.02,-0.02,-0.34,-0.04,0.18,0.05,
1.193,-0.02,-0.02,-0.34,-0.04,0.18,0.05,
1.194,-0.02,-0.02,-0.34,-0.04,0.19,0.05,
1.194,-0.02,-0.02,-0.34,-0.04,0.19,0.05,
1.194,-0.02,-0.02,-0.34,-0.04,0.19,0.05,
1.194,-0.02,-0.02,-0.34,-0.03,0.19,0.05,
1.194,-0.10,-0.02,-0.23,-0.03,0.19,0.05,
1.195,-0.10,-0.02,-0.23,-0.03,0.18,0.05,
1.195,-0.10,-0.02,-0.23,-0.02,0.17,0.06,
1.195,-0.10,-0.02,-0.23,-0.02,0.16,0.06,
1.195,-0.10,-0.02,-0.23,-0.01,0.15,0.06,
1.195,-0.10,-0.02,-0.23,-0.01,0.13,0.06,
1.196,-0.17,-0.03,-0.13,-0.01,0.13,0.06,
1.196,-0.17,-0.03,-0.13,0.00,0.11,0.06,
1.196,-0.17,-0.03,-0.13,0.01,0.09,0.06,
1.196,-0.17,-0.03,-0.13,0.02,0.07,0.06,
1.197,-0.16,-0.05,-0.01,0.02,0.07,0.06,
1.197,-0.16,-0.05,-0.01,0.05,-0.01,0.06,
1.198,-0.16,-0.05,-0.01,0.05,-0.01,0.06,
1.198,-0.16,-0.05,-0.01,0.05,-0.01,0.06,
1.199,-0.16,-0.05,-0.01,0.07,-0.04,0.06,
1.208,-0.16,-0.05,-0.01,0.07,-0.06,0.06,
1.209,-0.16,-0.05,-0.01,0.09,-0.09,0.06,
1.209,-0.16,-0.05,-0.01,0.10,-0.12,0.06,
1.209,-0.15,-0.04,-0.01,0.10,-0.12,0.06,
1.21,-0.15,-0.04,-0.01,0.11,-0.15,0.06,
1.211,-0.15,-0.04,-0.01,0.12,-0.18,0.06,
1.211,-0.15,-0.04,-0.01,0.13,-0.21,0.06,
1.212,-0.15,-0.04,-0.01,0.14,-0.23,0.06,
1.214,-0.15,-0.04,-0.01,0.14,-0.25,0.06,
1.224,-0.15,-0.01,-0.06,0.14,-0.25,0.06,
1.225,-0.15,-0.01,-0.06,0.15,-0.27,0.06,
1.226,-0.15,-0.01,-0.06,0.15,-0.30,0.06,
1.227,-0.15,-0.01,-0.06,0.16,-0.32,0.05,
1.227,-0.15,-0.01,-0.06,0.16,-0.34,0.05,
1.227,-0.15,-0.01,-0.06,0.17,-0.35,0.05,
1.228,-0.11,0.00,-0.08,0.17,-0.35,0.05,
1.228,-0.11,0.00,-0.08,0.17,-0.37,0.05,
1.229,-0.11,0.00,-0.08,0.18,-0.38,0.04,
1.231,-0.11,0.00,-0.08,0.18,-0.38,0.04,
1.281,-0.11,0.00,-0.08,0.18,-0.38,0.04,
1.282,-0.11,0.00,-0.08,0.18,-0.37,0.04,
1.282,-0.14,0.02,-0.11,0.18,-0.37,0.04,
1.282,-0.14,0.02,-0.11,0.17,-0.36,0.04,
1.282,-0.14,0.02,-0.11,0.17,-0.34,0.04,
1.282,-0.14,0.02,-0.11,0.16,-0.32,0.04,
1.283,-0.14,0.02,-0.11,0.15,-0.29,0.04,
1.283,-0.14,0.02,-0.11,0.14,-0.27,0.04,
1.283,-0.14,0.01,-0.24,0.14,-0.27,0.04,
1.283,-0.14,0.01,-0.24,0.13,-0.24,0.04,
1.283,-0.14,0.01,-0.24,0.12,-0.21,0.04,
1.284,-0.14,0.01,-0.24,0.10,-0.19,0.05,
1.284,-0.14,0.01,-0.24,0.09,-0.16,0.05,
1.284,-0.14,0.01,-0.24,0.08,-0.14,0.05,
1.284,-0.12,0.02,-0.30,0.08,-0.14,0.05,
1.284,-0.12,0.02,-0.30,0.07,-0.11,0.05,
1.285,-0.12,0.02,-0.30,0.06,-0.09,0.05,
1.285,-0.12,0.02,-0.30,0.04,-0.06,0.05,
1.285,-0.12,0.02,-0.30,0.03,-0.05,0.05,
1.285,-0.12,0.02,-0.30,0.02,-0.03,0.05,
1.285,-0.13,0.06,-0.30,0.02,-0.03,0.05,
1.286,-0.13,0.06,-0.30,0.01,-0.01,0.05,
1.286,-0.13,0.06,-0.30,0.00,0.01,0.05,
1.286,-0.13,0.06,-0.30,-0.01,0.03,0.06,
1.286,-0.13,0.06,-0.30,-0.02,0.05,0.06,
1.286,-0.13,0.06,-0.30,-0.03,0.06,0.06,
1.287,-0.13,0.05,-0.22,-0.03,0.06,0.06,
1.287,-0.13,0.05,-0.22,-0.04,0.08,0.06,
1.287,-0.13,0.05,-0.22,-0.05,0.10,0.06,
1.287,-0.13,0.05,-0.22,-0.06,0.11,0.06,
1.287,-0.13,0.05,-0.22,-0.06,0.12,0.06,
1.287,-0.13,0.05,-0.22,-0.07,0.12,0.06,
1.288,-0.13,0.04,-0.08,-0.07,0.12,0.06,
1.321,-0.13,0.04,-0.08,-0.07,0.13,0.06,
1.322,-0.13,0.04,-0.08,-0.07,0.13,0.06,
1.322,-0.13,0.04,-0.08,-0.08,0.13,0.06,
1.323,-0.13,0.04,-0.08,-0.08,0.14,0.06,
1.323,-0.13,0.04,-0.08,-0.08,0.14,0.06,
1.324,-0.10,0.04,0.05,-0.08,0.14,0.06,
1.324,-0.10,0.04,0.05,-0.07,0.13,0.06,
1.325,-0.10,0.04,0.05,-0.07,0.12,0.06,
1.325,-0.10,0.04,0.05,-0.07,0.12,0.06,
1.326,-0.10,0.04,0.05,-0.07,0.11,0.05,
1.326,-0.10,0.04,0.05,-0.07,0.11,0.05,
1.327,-0.10,0.03,0.12,-0.07,0.11,0.05,
1.327,-0.10,0.03,0.12,-0.06,0.10,0.05,
1.33,-0.10,0.03,0.12,-0.06,0.09,0.04,
1.331,-0.10,0.03,0.12,-0.05,0.08,0.04,
1.331,-0.10,0.03,0.12,-0.05,0.07,0.04,
1.331,-0.10,0.03,0.12,-0.05,0.05,0.03,
1.331,-0.08,0.07,0.22,-0.05,0.05,0.03,
1.332,-0.08,0.07,0.22,-0.04,0.04,0.03,
1.332,-0.08,0.07,0.22,-0.04,0.02,0.02,
1.332,-0.08,0.07,0.22,-0.03,0.01,0.02,
1.333,-0.08,0.07,0.22,-0.02,-0.01,0.01,
1.333,-0.08,0.07,0.22,-0.01,-0.02,0.01,
1.333,-0.07,0.12,0.33,-0.01,-0.02,0.01,
1.333,-0.07,0.12,0.33,-0.01,-0.04,0.00,
1.334,-0.07,0.12,0.33,0.00,-0.05,-0.00,
1.334,-0.07,0.12,0.33,0.01,-0.06,-0.01,
1.334,-0.07,0.12,0.33,0.02,-0.08,-0.01,
1.334,-0.07,0.12,0.33,0.02,-0.09,-0.02,
1.339,-0.10,0.11,0.40,0.02,-0.09,-0.02,
1.34,-0.10,0.11,0.40,0.03,-0.10,-0.02,
1.341,-0.10,0.11,0.40,0.04,-0.12,-0.03,
1.341,-0.10,0.11,0.40,0.05,-0.13,-0.03,
1.342,-0.10,0.11,0.40,0.06,-0.14,-0.04,
1.344,-0.10,0.11,0.40,0.07,-0.15,-0.05,
1.347,-0.02,0.10,0.44,0.07,-0.15,-0.05,
1.347,-0.02,0.10,0.44,0.08,-0.16,-0.05,
1.353,-0.02,0.10,0.44,0.08,-0.17,-0.06,
1.354,-0.02,0.10,0.44,0.09,-0.17,-0.06,
1.354,-0.02,0.10,0.44,0.09,-0.18,-0.07,
1.354,-0.02,0.10,0.44,0.10,-0.18,-0.08,
1.359,0.00,0.13,0.33,0.10,-0.18,-0.08,
1.359,0.00,0.13,0.33,0.10,-0.19,-0.08,
1.359,0.00,0.13,0.33,0.10,-0.19,-0.08,
1.361,0.00,0.13,0.33,0.10,-0.20,-0.09,
1.363,0.00,0.13,0.33,0.10,-0.20,-0.10,
1.365,0.00,0.13,0.33,0.09,-0.20,-0.10,
1.381,-0.00,0.19,0.10,0.09,-0.20,-0.10,
1.383,-0.00,0.19,0.10,0.09,-0.19,-0.11,
1.383,-0.00,0.19,0.10,0.08,-0.19,-0.11,
1.384,-0.00,0.19,0.10,0.07,-0.18,-0.12,
1.385,-0.00,0.19,0.10,0.06,-0.18,-0.12,
1.385,-0.00,0.19,0.10,0.05,-0.17,-0.12,
1.385,-0.06,0.21,-0.11,0.05,-0.17,-0.12,
1.385,-0.06,0.21,-0.11,0.04,-0.16,-0.13,
1.386,-0.06,0.21,-0.11,0.03,-0.15,-0.13,
1.386,-0.06,0.21,-0.11,0.01,-0.14,-0.13,
1.386,-0.06,0.21,-0.11,-0.00,-0.13,-0.13,
1.387,-0.06,0.21,-0.11,-0.02,-0.12,-0.13,
1.387,-0.17,0.22,-0.24,-0.02,-0.12,-0.13,
1.388,-0.17,0.22,-0.24,-0.03,-0.10,-0.13,
1.388,-0.17,0.22,-0.24,-0.05,-0.09,-0.13,
1.39,-0.17,0.22,-0.24,-0.06,-0.07,-0.13,
1.392,-0.17,0.22,-0.24,-0.07,-0.06,-0.13,
1.394,-0.17,0.22,-0.24,-0.09,-0.04,-0.13,
1.397,-0.21,0.15,-0.26,-0.09,-0.04,-0.13,
1.398,-0.21,0.15,-0.26,-0.11,-0.02,-0.12,
1.441,-0.21,0.15,-0.26,-0.12,-0.01,-0.12,
1.444,-0.21,0.15,-0.26,-0.13,0.01,-0.12,
1.445,-0.21,0.15,-0.26,-0.14,0.03,-0.12,
1.446,-0.21,0.15,-0.26,-0.16,0.04,-0.11,
1.446,-0.23,0.10,-0.16,-0.16,0.04,-0.11,
1.447,-0.23,0.10,-0.16,-0.17,0.06,-0.11,
1.449,-0.23,0.10,-0.16,-0.18,0.07,-0.11,
1.451,-0.23,0.10,-0.16,-0.19,0.09,-0.11,
1.452,-0.23,0.10,-0.16,-0.19,0.10,-0.11,
1.453,-0.23,0.10,-0.16,-0.19,0.11,-0.11,
1.453,-0.23,0.08,0.05,-0.19,0.11,-0.11,
1.453,-0.23,0.08,0.05,-0.20,0.12,-0.10,
1.454,-0.23,0.08,0.05,-0.20,0.12,-0.10,
1.454,-0.23,0.08,0.05,-0.20,0.13,-0.10,
1.454,-0.23,0.08,0.05,-0.20,0.13,-0.10,
1.455,-0.23,0.08,0.05,-0.20,0.13,-0.10,
1.455,-0.23,0.06,0.24,-0.20,0.13,-0.10,
1.456,-0.23,0.06,0.24,-0.20,0.13,-0.10,
1.456,-0.23,0.06,0.24,-0.19,0.13,-0.10,
1.457,-0.23,0.06,0.24,-0.19,0.12,-0.10,
1.457,-0.23,0.06,0.24,-0.18,0.12,-0.11,
1.458,-0.23,0.06,0.24,-0.17,0.11,-0.11,
1.458,-0.16,0.09,0.50,-0.17,0.11,-0.11,
1.458,-0.16,0.09,0.50,-0.16,0.11,-0.11,
1.459,-0.16,0.09,0.50,-0.15,0.10,-0.11,
1.459,-0.16,0.09,0.50,-0.14,0.09,-0.11,
1.459,-0.16,0.09,0.50,-0.12,0.08,-0.11,
1.46,-0.16,0.09,0.50,-0.11,0.07,-0.12,
1.46,-0.13,0.09,0.68,-0.11,0.07,-0.12,
1.461,-0.13,0.09,0.68,-0.09,0.07,-0.12,
1.461,-0.13,0.09,0.68,-0.08,0.06,-0.12,
1.461,-0.13,0.09,0.68,-0.06,0.05,-0.12,
1.461,-0.13,0.09,0.68,-0.04,0.05,-0.13,
1.496,-0.13,0.09,0.68,-0.03,0.04,-0.13,
1.497,-0.21,0.10,0.71,-0.03,0.04,-0.13,
1.498,-0.21,0.10,0.71,-0.01,0.03,-0.13,
1.499,-0.21,0.10,0.71,0.00,0.03,-0.13,
1.5,-0.21,0.10,0.71,0.02,0.02,-0.13,
1.5,-0.21,0.10,0.71,0.03,0.01,-0.13,
1.501,-0.21,0.10,0.71,0.04,0.00,-0.13,
1.501,-0.31,0.17,0.59,0.04,0.00,-0.13,
1.501,-0.31,0.17,0.59,0.06,-0.01,-0.13,
1.501,-0.31,0.17,0.59,0.06,-0.01,-0.13,
1.502,-0.31,0.17,0.59,0.07,-0.02,-0.13,
1.502,-0.31,0.17,0.59,0.08,-0.02,-0.13,
1.502,-0.31,0.17,0.59,0.09,-0.03,-0.13,
1.502,-0.32,0.22,0.36,0.09,-0.03,-0.13,
1.502,-0.32,0.22,0.36,0.10,-0.03,-0.13,
1.503,-0.32,0.22,0.36,0.10,-0.03,-0.13,
1.503,-0.32,0.22,0.36,0.11,-0.03,-0.12,
1.503,-0.32,0.22,0.36,0.11,-0.03,-0.12,
1.503,-0.32,0.22,0.36,0.11,-0.03,-0.12,
1.504,-0.31,0.27,0.08,0.11,-0.03,-0.12,
1.504,-0.31,0.27,0.08,0.11,-0.03,-0.12,
1.504,-0.31,0.27,0.08,0.11,-0.03,-0.12,
1.504,-0.31,0.27,0.08,0.11,-0.03,-0.12,
1.505,-0.31,0.27,0.08,0.11,-0.03,-0.12,
1.505,-0.31,0.27,0.08,0.10,-0.03,-0.13,
1.505,-0.22,0.32,-0.12,0.10,-0.03,-0.13,
1.505,-0.22,0.32,-0.12,0.10,-0.03,-0.13,
1.506,-0.22,0.32,-0.12,0.10,-0.03,-0.13,
1.506,-0.22,0.32,-0.12,0.10,-0.03,-0.13,
1.506,-0.22,0.32,-0.12,0.10,-0.03,-0.13,
1.506,-0.22,0.32,-0.12,0.09,-0.03,-0.14,
1.507,-0.23,0.39,-0.16,0.09,-0.03,-0.14,
1.507,-0.23,0.39,-0.16,0.09,-0.03,-0.14,
1.509,-0.23,0.39,-0.16,0.09,-0.03,-0.14,
1.51,-0.23,0.39,-0.16,0.09,-0.02,-0.14,
1.512,-0.23,0.39,-0.16,0.08,-0.02,-0.14,
1.522,-0.23,0.39,-0.16,0.08,-0.01,-0.14,
1.522,-0.23,0.40,-0.16,0.08,-0.01,-0.14,
1.523,-0.23,0.40,-0.16,0.08,-0.01,-0.15,
1.523,-0.23,0.40,-0.16,0.07,0.00,-0.15,
1.523,-0.23,0.40,-0.16,0.07,0.01,-0.15,
1.523,-0.23,0.40,-0.16,0.07,0.01,-0.15,
1.524,-0.23,0.40,-0.16,0.07,0.02,-0.15,
1.527,-0.24,0.41,-0.09,0.07,0.02,-0.15,
1.527,-0.24,0.41,-0.09,0.07,0.03,-0.15,
1.528,-0.24,0.41,-0.09,0.07,0.04,-0.15,
1.578,-0.24,0.41,-0.09,0.07,0.05,-0.16,
1.579,-0.24,0.41,-0.09,0.07,0.06,-0.16,
1.579,-0.24,0.41,-0.09,0.07,0.06,-0.16,
1.579,-0.21,0.39,0.01,0.07,0.06,-0.16,
1.58,-0.21,0.39,0.01,0.07,0.07,-0.17,
1.58,-0.21,0.39,0.01,0.07,0.08,-0.17,
1.58,-0.21,0.39,0.01,0.08,0.09,-0.17,
1.58,-0.21,0.39,0.01,0.08,0.09,-0.17,
1.58,-0.21,0.39,0.01,0.08,0.10,-0.18,
1.581,-0.20,0.37,0.15,0.08,0.10,-0.18,
1.581,-0.20,0.37,0.15,0.09,0.11,-0.18,
1.581,-0.20,0.37,0.15,0.09,0.11,-0.19,
1.581,-0.20,0.37,0.15,0.10,0.12,-0.19,
1.581,-0.20,0.37,0.15,0.10,0.12,-0.19,
1.582,-0.20,0.37,0.15,0.11,0.12,-0.20,
1.582,-0.15,0.34,0.20,0.11,0.12,-0.20,
1.582,-0.15,0.34,0.20,0.11,0.12,-0.20,
1.582,-0.15,0.34,0.20,0.11,0.12,-0.21,
1.582,-0.15,0.34,0.20,0.12,0.11,-0.21,
1.583,-0.15,0.34,0.20,0.12,0.11,-0.22,
1.583,-0.15,0.34,0.20,0.13,0.10,-0.23,
1.583,-0.14,0.28,0.11,0.13,0.10,-0.23,
1.583,-0.14,0.28,0.11,0.13,0.09,-0.24,
1.583,-0.14,0.28,0.11,0.13,0.09,-0.24,
1.584,-0.14,0.28,0.11,0.13,0.08,-0.25,
1.584,-0.14,0.28,0.11,0.13,0.07,-0.26,
1.584,-0.14,0.28,0.11,0.13,0.06,-0.26,
1.584,-0.17,0.26,0.03,0.13,0.06,-0.26,
1.584,-0.17,0.26,0.03,0.13,0.05,-0.27,
1.585,-0.17,0.26,0.03,0.13,0.04,-0.27,
1.585,-0.17,0.26,0.03,0.13,0.03,-0.28,
1.585,-0.17,0.26,0.03,0.13,0.02,-0.28,
1.585,-0.17,0.26,0.03,0.13,0.01,-0.29,
1.587,-0.21,0.23,-0.02,0.13,0.01,-0.29,
1.588,-0.21,0.23,-0.02,0.13,0.00,-0.29,
1.589,-0.21,0.23,-0.02,0.12,-0.01,-0.30,
1.591,-0.21,0.23,-0.02,0.12,-0.02,-0.30,
1.592,-0.21,0.23,-0.02,0.12,-0.03,-0.31,
1.594,-0.21,0.23,-0.02,0.12,-0.04,-0.31,
1.6,-0.22,0.14,-0.03,0.12,-0.04,-0.31,
1.601,-0.22,0.14,-0.03,0.12,-0.05,-0.32,
1.601,-0.22,0.14,-0.03,0.11,-0.06,-0.32,
1.601,-0.22,0.14,-0.03,0.11,-0.07,-0.33,
1.603,-0.22,0.14,-0.03,0.11,-0.08,-0.33,
1.604,-0.22,0.14,-0.03,0.11,-0.09,-0.33,
1.607,-0.24,0.11,-0.00,0.11,-0.09,-0.33,
1.607,-0.24,0.11,-0.00,0.10,-0.10,-0.33,
1.609,-0.24,0.11,-0.00,0.10,-0.11,-0.33,
1.611,-0.24,0.11,-0.00,0.10,-0.12,-0.33,
1.612,-0.24,0.11,-0.00,0.10,-0.13,-0.33,
1.629,-0.24,0.11,-0.00,0.10,-0.13,-0.34,
1.629,-0.18,0.05,0.10,0.10,-0.13,-0.34,
1.63,-0.18,0.05,0.10,0.10,-0.14,-0.34,
1.63,-0.18,0.05,0.10,0.10,-0.15,-0.34,
1.661,-0.18,0.05,0.10,0.10,-0.16,-0.34,
1.661,-0.18,0.05,0.10,0.10,-0.16,-0.34,
1.661,-0.18,0.05,0.10,0.10,-0.16,-0.34,
1.662,-0.06,-0.04,0.16,0.10,-0.16,-0.34,
1.662,-0.06,-0.04,0.16,0.11,-0.16,-0.35,
1.662,-0.06,-0.04,0.16,0.10,-0.16,-0.35,
1.662,-0.06,-0.04,0.16,0.10,-0.15,-0.35,
1.663,-0.06,-0.04,0.16,0.10,-0.15,-0.35,
1.663,-0.06,-0.04,0.16,0.10,-0.15,-0.36,
1.663,0.04,-0.06,0.13,0.10,-0.15,-0.36,
1.664,0.04,-0.06,0.13,0.09,-0.14,-0.36,
1.664,0.04,-0.06,0.13,0.09,-0.14,-0.36,
1.664,0.04,-0.06,0.13,0.09,-0.13,-0.37,
1.664,0.04,-0.06,0.13,0.08,-0.12,-0.37,
1.665,0.04,-0.06,0.13,0.08,-0.12,-0.37,
1.665,0.05,-0.08,0.03,0.08,-0.12,-0.37,
1.665,0.05,-0.08,0.03,0.07,-0.10,-0.37,
1.665,0.05,-0.08,0.03,0.07,-0.10,-0.37,
1.666,0.05,-0.08,0.03,0.06,-0.09,-0.37,
1.666,0.05,-0.08,0.03,0.05,-0.08,-0.38,
1.666,0.05,-0.08,0.03,0.05,-0.07,-0.38,
1.666,0.04,-0.16,-0.04,0.05,-0.07,-0.38,
1.667,0.04,-0.16,-0.04,0.04,-0.06,-0.37,
1.667,0.04,-0.16,-0.04,0.03,-0.05,-0.37,
1.667,0.04,-0.16,-0.04,0.02,-0.04,-0.37,
1.668,0.04,-0.16,-0.04,0.01,-0.03,-0.37,
1.668,0.04,-0.16,-0.04,0.01,-0.02,-0.37,
1.668,0.05,-0.21,-0.12,0.01,-0.02,-0.37,
1.668,0.05,-0.21,-0.12,0.00,-0.01,-0.37,
1.669,0.05,-0.21,-0.12,-0.01,0.00,-0.37,
1.698,0.05,-0.21,-0.12,-0.02,0.01,-0.37,
1.703,0.05,-0.21,-0.12,-0.02,0.02,-0.36,
1.704,0.05,-0.21,-0.12,-0.03,0.02,-0.36,
1.705,0.05,-0.25,-0.19,-0.03,0.02,-0.36,
1.706,0.05,-0.25,-0.19,-0.04,0.03,-0.36,
1.707,0.05,-0.25,-0.19,-0.05,0.03,-0.35,
1.708,0.05,-0.25,-0.19,-0.05,0.04,-0.35,
1.709,0.05,-0.25,-0.19,-0.06,0.04,-0.34,
1.71,0.05,-0.25,-0.19,-0.07,0.04,-0.34,
1.71,0.03,-0.31,-0.23,-0.07,0.04,-0.34,
1.711,0.03,-0.31,-0.23,-0.07,0.04,-0.34,
1.712,0.03,-0.31,-0.23,-0.08,0.04,-0.33,
1.713,0.03,-0.31,-0.23,-0.08,0.03,-0.33,
1.713,0.03,-0.31,-0.23,-0.08,0.02,-0.32,
1.714,0.03,-0.31,-0.23,-0.09,0.02,-0.32,
1.714,0.03,-0.34,-0.17,-0.09,0.02,-0.32,
1.715,0.03,-0.34,-0.17,-0.09,0.01,-0.31,
1.715,0.03,-0.34,-0.17,-0.09,0.00,-0.31,
1.716,0.03,-0.34,-0.17,-0.08,-0.01,-0.30,
1.716,0.03,-0.34,-0.17,-0.08,-0.02,-0.30,
1.717,0.03,-0.34,-0.17,-0.08,-0.03,-0.29,
1.717,0.03,-0.34,-0.03,-0.08,-0.03,-0.29,
1.718,0.03,-0.34,-0.03,-0.07,-0.04,-0.29,
1.718,0.03,-0.34,-0.03,-0.07,-0.05,-0.29,
1.719,0.03,-0.34,-0.03,-0.06,-0.06,-0.28,
1.72,0.03,-0.34,-0.03,-0.05,-0.07,-0.28,
1.72,0.03,-0.34,-0.03,-0.04,-0.09,-0.28,
1.721,0.05,-0.32,0.13,-0.04,-0.09,-0.28,
1.722,0.05,-0.32,0.13,-0.04,-0.10,-0.27,
1.723,0.05,-0.32,0.13,-0.03,-0.11,-0.27,
1.724,0.05,-0.32,0.13,-0.01,-0.12,-0.27,
1.724,0.05,-0.32,0.13,-0.00,-0.14,-0.26,
1.725,0.05,-0.32,0.13,0.01,-0.15,-0.26,
1.727,0.07,-0.32,0.33,0.01,-0.15,-0.26,
1.731,0.07,-0.32,0.33,0.03,-0.16,-0.26,
1.732,0.07,-0.32,0.33,0.04,-0.17,-0.25,
1.732,0.07,-0.32,0.33,0.06,-0.18,-0.25,
1.733,0.07,-0.32,0.33,0.07,-0.19,-0.24,
1.734,0.07,-0.32,0.33,0.09,-0.19,-0.24,
1.737,0.04,-0.29,0.38,0.09,-0.19,-0.24,
1.738,0.04,-0.29,0.38,0.10,-0.20,-0.23,
1.739,0.04,-0.29,0.38,0.11,-0.20,-0.23,
1.74,0.04,-0.29,0.38,0.12,-0.21,-0.22,
1.742,0.04,-0.29,0.38,0.13,-0.22,-0.22,
1.744,0.04,-0.29,0.38,0.15,-0.22,-0.22,
1.748,-0.01,-0.25,0.27,0.15,-0.22,-0.22,
1.749,-0.01,-0.25,0.27,0.15,-0.22,-0.21,
1.75,-0.01,-0.25,0.27,0.16,-0.23,-0.20,
1.751,-0.01,-0.25,0.27,0.17,-0.23,-0.20,
1.752,-0.01,-0.25,0.27,0.17,-0.23,-0.19,
1.754,-0.01,-0.25,0.27,0.18,-0.22,-0.19,
1.757,-0.05,-0.20,-0.00,0.18,-0.22,-0.19,
1.757,-0.05,-0.20,-0.00,0.18,-0.22,-0.18,
1.758,-0.05,-0.20,-0.00,0.17,-0.21,-0.18,
1.76,-0.05,-0.20,-0.00,0.18,-0.21,-0.17,
1.762,-0.05,-0.20,-0.00,0.17,-0.20,-0.17,
1.782,-0.05,-0.20,-0.00,0.17,-0.19,-0.16,
1.787,-0.09,-0.13,-0.30,0.17,-0.19,-0.16,
1.787,-0.09,-0.13,-0.30,0.16,-0.18,-0.16,
1.787,-0.09,-0.13,-0.30,0.16,-0.16,-0.15,
1.787,-0.09,-0.13,-0.30,0.15,-0.15,-0.14,
1.788,-0.09,-0.13,-0.30,0.14,-0.14,-0.14,
1.788,-0.09,-0.13,-0.30,0.13,-0.12,-0.14,
1.788,-0.10,-0.04,-0.56,0.13,-0.12,-0.14,
1.788,-0.10,-0.04,-0.56,0.12,-0.11,-0.13,
1.788,-0.10,-0.04,-0.56,0.11,-0.09,-0.13,
1.789,-0.10,-0.04,-0.56,0.10,-0.09,-0.13,
1.789,-0.10,-0.04,-0.56,0.09,-0.07,-0.13,
1.789,-0.10,-0.04,-0.56,0.07,-0.06,-0.12,
1.793,-0.03,0.03,-0.75,0.07,-0.06,-0.12,
1.822,-0.03,0.03,-0.75,0.06,-0.05,-0.12,
1.822,-0.03,0.03,-0.75,0.05,-0.05,-0.13,
1.823,-0.03,0.03,-0.75,0.04,-0.04,-0.13,
1.823,-0.03,0.03,-0.75,0.02,-0.04,-0.13,
1.824,-0.03,0.03,-0.75,0.01,-0.03,-0.13,
1.824,0.02,0.07,-0.78,0.01,-0.03,-0.13,
1.824,0.02,0.07,-0.78,0.00,-0.03,-0.13,
1.824,0.02,0.07,-0.78,-0.01,-0.03,-0.13,
1.825,0.02,0.07,-0.78,-0.02,-0.03,-0.13,
1.825,0.02,0.07,-0.78,-0.02,-0.02,-0.13,
1.825,0.02,0.07,-0.78,-0.03,-0.02,-0.13,
1.826,-0.00,0.09,-0.64,-0.03,-0.02,-0.13,
1.826,-0.00,0.09,-0.64,-0.04,-0.02,-0.14,
1.826,-0.00,0.09,-0.64,-0.04,-0.03,-0.14,
1.826,-0.00,0.09,-0.64,-0.04,-0.03,-0.14,
1.827,-0.00,0.09,-0.64,-0.04,-0.04,-0.14,
1.827,-0.00,0.09,-0.64,-0.04,-0.04,-0.14,
1.827,-0.08,0.04,-0.46,-0.04,-0.04,-0.14,
1.828,-0.08,0.04,-0.46,-0.05,-0.06,-0.14,
1.828,-0.08,0.04,-0.46,-0.05,-0.07,-0.14,
1.828,-0.08,0.04,-0.46,-0.04,-0.08,-0.14,
1.828,-0.08,0.04,-0.46,-0.04,-0.09,-0.14,
1.829,-0.08,0.04,-0.46,-0.04,-0.10,-0.14,
1.829,-0.13,0.02,-0.31,-0.04,-0.10,-0.14,
1.829,-0.13,0.02,-0.31,-0.04,-0.11,-0.14,
1.829,-0.13,0.02,-0.31,-0.04,-0.13,-0.14,
1.848,-0.13,0.02,-0.31,-0.03,-0.14,-0.14,
1.848,-0.13,0.02,-0.31,-0.03,-0.16,-0.14,
1.848,-0.13,0.02,-0.31,-0.02,-0.17,-0.14,
1.849,-0.12,-0.05,-0.16,-0.02,-0.17,-0.14,
1.849,-0.12,-0.05,-0.16,-0.02,-0.18,-0.14,
1.849,-0.12,-0.05,-0.16,-0.01,-0.19,-0.14,
1.849,-0.12,-0.05,-0.16,-0.01,-0.20,-0.14,
1.85,-0.12,-0.05,-0.16,-0.00,-0.21,-0.14,
1.85,-0.12,-0.05,-0.16,0.00,-0.22,-0.14,
1.851,-0.16,-0.11,-0.09,0.00,-0.22,-0.14,
1.851,-0.16,-0.11,-0.09,0.00,-0.22,-0.14,
1.851,-0.16,-0.11,-0.09,0.00,-0.22,-0.14,
1.851,-0.16,-0.11,-0.09,0.01,-0.23,-0.14,
1.852,-0.16,-0.11,-0.09,0.01,-0.23,-0.14,
1.854,-0.16,-0.11,-0.09,0.01,-0.23,-0.14,
1.857,-0.14,-0.10,-0.11,0.01,-0.23,-0.14,
1.857,-0.14,-0.10,-0.11,0.01,-0.23,-0.14,
1.858,-0.14,-0.10,-0.11,0.01,-0.23,-0.14,
1.86,-0.14,-0.10,-0.11,0.01,-0.23,-0.14,
1.864,-0.14,-0.10,-0.11,0.00,-0.22,-0.14,
1.865,-0.14,-0.10,-0.11,0.00,-0.22,-0.14,
1.87,-0.06,-0.11,-0.18,0.00,-0.22,-0.14,
1.871,-0.06,-0.11,-0.18,-0.00,-0.22,-0.14,
1.873,-0.06,-0.11,-0.18,-0.01,-0.21,-0.14,
1.873,-0.06,-0.11,-0.18,-0.01,-0.21,-0.14,
1.873,-0.06,-0.11,-0.18,-0.02,-0.20,-0.14,
1.874,-0.06,-0.11,-0.18,-0.02,-0.19,-0.15,
1.877,-0.03,-0.10,-0.25,-0.02,-0.19,-0.15,
1.878,-0.03,-0.10,-0.25,-0.03,-0.19,-0.15,
1.879,-0.03,-0.10,-0.25,-0.03,-0.18,-0.15,
1.88,-0.03,-0.10,-0.25,-0.04,-0.18,-0.16,
1.883,-0.03,-0.10,-0.25,-0.04,-0.17,-0.16,
1.886,-0.03,-0.10,-0.25,-0.05,-0.17,-0.16,
1.888,0.04,-0.09,-0.29,-0.05,-0.17,-0.16,
1.889,0.04,-0.09,-0.29,-0.06,-0.17,-0.17,
1.892,0.04,-0.09,-0.29,-0.06,-0.16,-0.18,
1.893,0.04,-0.09,-0.29,-0.07,-0.16,-0.18,
1.893,0.04,-0.09,-0.29,-0.08,-0.15,-0.18,
1.895,0.04,-0.09,-0.29,-0.09,-0.15,-0.19,
1.918,0.04,-0.10,-0.31,-0.09,-0.15,-0.19,
1.919,0.04,-0.10,-0.31,-0.09,-0.14,-0.19,
1.919,0.04,-0.10,-0.31,-0.10,-0.13,-0.20,
1.919,0.04,-0.10,-0.31,-0.11,-0.13,-0.20,
1.919,0.04,-0.10,-0.31,-0.11,-0.12,-0.20,
1.919,0.04,-0.10,-0.31,-0.12,-0.12,-0.20,
1.92,-0.01,-0.16,-0.25,-0.12,-0.12,-0.20,
1.92,-0.01,-0.16,-0.25,-0.13,-0.11,-0.21,
1.92,-0.01,-0.16,-0.25,-0.13,-0.11,-0.21,
1.92,-0.01,-0.16,-0.25,-0.14,-0.11,-0.21,
1.92,-0.01,-0.16,-0.25,-0.14,-0.10,-0.21,
1.921,-0.01,-0.16,-0.25,-0.14,-0.10,-0.21,
1.921,-0.09,-0.18,-0.09,-0.14,-0.10,-0.21,
1.921,-0.09,-0.18,-0.09,-0.15,-0.09,-0.20,
1.921,-0.09,-0.18,-0.09,-0.15,-0.08,-0.20,
1.921,-0.09,-0.18,-0.09,-0.16,-0.08,-0.20,
1.997,-0.09,-0.18,-0.09,-0.15,-0.08,-0.20,
1.998,-0.09,-0.18,-0.09,-0.16,-0.07,-0.19,
1.998,-0.20,-0.20,0.06,-0.16,-0.07,-0.19,
1.998,-0.20,-0.20,0.06,-0.16,-0.06,-0.19,
1.999,-0.20,-0.20,0.06,-0.16,-0.06,-0.19,
1.999,-0.20,-0.20,0.06,-0.16,-0.05,-0.18,
1.999,-0.20,-0.20,0.06,-0.15,-0.05,-0.17,
2.0,-0.20,-0.20,0.06,-0.15,-0.04,-0.17,
2.0,-0.30,-0.26,0.20,-0.15,-0.04,-0.17,
2.0,-0.30,-0.26,0.20,-0.15,-0.04,-0.16,
2.001,-0.30,-0.26,0.20,-0.14,-0.04,-0.16,
2.001,-0.30,-0.26,0.20,-0.14,-0.04,-0.15,
2.001,-0.30,-0.26,0.20,-0.13,-0.03,-0.15,
2.001,-0.30,-0.26,0.20,-0.13,-0.03,-0.14,
2.002,-0.35,-0.27,0.31,-0.13,-0.03,-0.14,
2.002,-0.35,-0.27,0.31,-0.12,-0.04,-0.14,
2.002,-0.35,-0.27,0.31,-0.11,-0.04,-0.13,
2.003,-0.35,-0.27,0.31,-0.11,-0.04,-0.13,
2.003,-0.35,-0.27,0.31,-0.10,-0.04,-0.12,
2.026,-0.35,-0.27,0.31,-0.09,-0.05,-0.12,
2.027,-0.28,-0.25,0.35,-0.09,-0.05,-0.12,
2.028,-0.28,-0.25,0.35,-0.08,-0.05,-0.12,
2.029,-0.28,-0.25,0.35,-0.07,-0.06,-0.12,
2.031,-0.28,-0.25,0.35,-0.06,-0.06,-0.12,
2.033,-0.28,-0.25,0.35,-0.05,-0.07,-0.12,
2.033,-0.28,-0.25,0.35,-0.04,-0.08,-0.12,
2.033,-0.16,-0.19,0.30,-0.04,-0.08,-0.12,
2.033,-0.16,-0.19,0.30,-0.04,-0.09,-0.12,
2.034,-0.16,-0.19,0.30,-0.03,-0.10,-0.12,
2.034,-0.16,-0.19,0.30,-0.02,-0.11,-0.12,
2.034,-0.16,-0.19,0.30,-0.01,-0.12,-0.12,
2.035,-0.16,-0.19,0.30,-0.01,-0.13,-0.12,
2.035,-0.06,-0.15,0.21,-0.01,-0.13,-0.12,
2.035,-0.06,-0.15,0.21,0.00,-0.14,-0.13,
2.035,-0.06,-0.15,0.21,0.01,-0.15,-0.13,
2.036,-0.06,-0.15,0.21,0.01,-0.16,-0.13,
2.036,-0.06,-0.15,0.21,0.02,-0.17,-0.13,
2.036,-0.06,-0.15,0.21,0.02,-0.17,-0.13,
2.037,-0.08,-0.10,0.10,0.02,-0.17,-0.13,
2.037,-0.08,-0.10,0.10,0.02,-0.18,-0.13,
2.037,-0.08,-0.10,0.10,0.03,-0.19,-0.13,
2.037,-0.08,-0.10,0.10,0.03,-0.19,-0.13,
2.038,-0.08,-0.10,0.10,0.03,-0.19,-0.13,
2.038,-0.08,-0.10,0.10,0.03,-0.19,-0.13,
2.038,-0.14,-0.06,-0.05,0.03,-0.19,-0.13,
2.038,-0.14,-0.06,-0.05,0.03,-0.20,-0.13,
2.039,-0.14,-0.06,-0.05,0.03,-0.20,-0.12,
2.039,-0.14,-0.06,-0.05,0.02,-0.19,-0.12,
2.039,-0.14,-0.06,-0.05,0.02,-0.19,-0.12,
2.04,-0.14,-0.06,-0.05,0.01,-0.19,-0.12,
2.04,-0.12,0.01,-0.18,0.01,-0.19,-0.12,
2.04,-0.12,0.01,-0.18,0.01,-0.18,-0.12,
2.04,-0.12,0.01,-0.18,0.00,-0.17,-0.11,
2.041,-0.12,0.01,-0.18,-0.00,-0.16,-0.11,
2.041,-0.12,0.01,-0.18,-0.01,-0.15,-0.11,
2.041,-0.12,0.01,-0.18,-0.02,-0.14,-0.11,
2.041,-0.10,0.05,-0.34,-0.02,-0.14,-0.11,
2.042,-0.10,0.05,-0.34,-0.03,-0.13,-0.11,
2.042,-0.10,0.05,-0.34,-0.04,-0.12,-0.10,
2.042,-0.10,0.05,-0.34,-0.04,-0.10,-0.10,
2.043,-0.10,0.05,-0.34,-0.06,-0.09,-0.10,
2.043,-0.10,0.05,-0.34,-0.07,-0.08,-0.09,
2.043,-0.11,0.06,-0.42,-0.07,-0.08,-0.09,
2.043,-0.11,0.06,-0.42,-0.08,-0.07,-0.09,
2.044,-0.11,0.06,-0.42,-0.09,-0.06,-0.09,
2.044,-0.11,0.06,-0.42,-0.10,-0.04,-0.08,
2.044,-0.11,0.06,-0.42,-0.10,-0.03,-0.08,
2.044,-0.11,0.06,-0.42,-0.11,-0.02,-0.07,
2.045,-0.11,0.11,-0.36,-0.11,-0.02,-0.07,
2.045,-0.11,0.11,-0.36,-0.12,-0.01,-0.07,
2.045,-0.11,0.11,-0.36,-0.12,-0.00,-0.07,
2.046,-0.11,0.11,-0.36,-0.13,0.01,-0.06,
2.046,-0.11,0.11,-0.36,-0.13,0.02,-0.06,
2.046,-0.11,0.11,-0.36,-0.14,0.03,-0.06,
2.046,-0.11,0.12,-0.20,-0.14,0.03,-0.06,
2.047,-0.11,0.12,-0.20,-0.14,0.04,-0.06,
2.049,-0.11,0.12,-0.20,-0.14,0.04,-0.06,
2.051,-0.11,0.12,-0.20,-0.14,0.05,-0.06,
2.052,-0.11,0.12,-0.20,-0.14,0.06,-0.05,
2.055,-0.11,0.12,-0.20,-0.14,0.06,-0.05,
2.057,-0.06,0.14,-0.07,-0.14,0.06,-0.05,
2.057,-0.06,0.14,-0.07,-0.14,0.07,-0.05,
2.058,-0.06,0.14,-0.07,-0.13,0.07,-0.05,
2.06,-0.06,0.14,-0.07,-0.13,0.07,-0.05,
2.062,-0.06,0.14,-0.07,-0.13,0.07,-0.05,
2.064,-0.06,0.14,-0.07,-0.12,0.07,-0.05,
2.067,-0.04,0.14,0.07,-0.12,0.07,-0.05,
2.067,-0.04,0.14,0.07,-0.11,0.07,-0.05,
2.068,-0.04,0.14,0.07,-0.11,0.07,-0.05,
2.07,-0.04,0.14,0.07,-0.10,0.07,-0.05,
2.072,-0.04,0.14,0.07,-0.09,0.06,-0.05,
2.075,-0.04,0.14,0.07,-0.09,0.06,-0.05,
2.077,-0.06,0.16,0.12,-0.09,0.06,-0.05,
2.077,-0.06,0.16,0.12,-0.08,0.05,-0.05,
2.083,-0.06,0.16,0.12,-0.07,0.04,-0.05,
2.084,-0.06,0.16,0.12,-0.06,0.04,-0.04,
2.085,-0.06,0.16,0.12,-0.06,0.03,-0.04,
2.085,-0.06,0.16,0.12,-0.05,0.02,-0.04,
2.087,-0.08,0.17,0.05,-0.05,0.02,-0.04,
2.087,-0.08,0.17,0.05,-0.04,0.01,-0.04,
2.094,-0.08,0.17,0.05,-0.04,0.01,-0.04,
2.094,-0.08,0.17,0.05,-0.03,-0.00,-0.04,
2.094,-0.08,0.17,0.05,-0.03,-0.01,-0.03,
2.096,-0.08,0.17,0.05,-0.02,-0.02,-0.03,
2.135,-0.08,0.21,-0.04,-0.02,-0.02,-0.03,
2.138,-0.08,0.21,-0.04,-0.02,-0.03,-0.04,
2.14,-0.08,0.21,-0.04,-0.01,-0.05,-0.04,
2.14,-0.08,0.21,-0.04,-0.01,-0.06,-0.03,
2.141,-0.08,0.21,-0.04,-0.01,-0.07,-0.03,
2.142,-0.08,0.21,-0.04,-0.01,-0.08,-0.04,
2.144,-0.08,0.24,-0.11,-0.01,-0.08,-0.04,
2.144,-0.08,0.24,-0.11,-0.00,-0.09,-0.03,
2.145,-0.08,0.24,-0.11,-0.00,-0.09,-0.04,
2.145,-0.08,0.24,-0.11,-0.01,-0.10,-0.04,
2.146,-0.08,0.24,-0.11,-0.01,-0.11,-0.04,
2.148,-0.08,0.24,-0.11,-0.00,-0.12,-0.04,
2.148,-0.08,0.28,-0.20,-0.00,-0.12,-0.04,
2.149,-0.08,0.28,-0.20,-0.01,-0.12,-0.04,
2.149,-0.08,0.28,-0.20,-0.01,-0.13,-0.04,
2.189,-0.08,0.28,-0.20,-0.01,-0.13,-0.04,
2.19,-0.08,0.28,-0.20,-0.01,-0.13,-0.04,
2.19,-0.08,0.28,-0.20,-0.02,-0.13,-0.05,
2.191,-0.03,0.31,-0.27,-0.02,-0.13,-0.05,
2.192,-0.03,0.31,-0.27,-0.02,-0.13,-0.05,
2.192,-0.03,0.31,-0.27,-0.03,-0.13,-0.05,
2.192,-0.03,0.31,-0.27,-0.03,-0.12,-0.05,
2.193,-0.03,0.31,-0.27,-0.04,-0.12,-0.05,
2.193,-0.03,0.31,-0.27,-0.04,-0.11,-0.06,
2.193,-0.02,0.30,-0.32,-0.04,-0.11,-0.06,
2.194,-0.02,0.30,-0.32,-0.05,-0.11,-0.06,
2.194,-0.02,0.30,-0.32,-0.06,-0.10,-0.06,
2.194,-0.02,0.30,-0.32,-0.07,-0.09,-0.06,
2.195,-0.02,0.30,-0.32,-0.07,-0.08,-0.06,
2.195,-0.02,0.30,-0.32,-0.08,-0.07,-0.06,
2.196,-0.06,0.26,-0.32,-0.08,-0.07,-0.06,
2.196,-0.06,0.26,-0.32,-0.09,-0.06,-0.06,
2.196,-0.06,0.26,-0.32,-0.10,-0.05,-0.05,
2.197,-0.06,0.26,-0.32,-0.10,-0.03,-0.05,
2.198,-0.06,0.26,-0.32,-0.11,-0.02,-0.05,
2.198,-0.06,0.26,-0.32,-0.11,-0.00,-0.05,
2.199,-0.11,0.18,-0.19,-0.11,-0.00,-0.05,
2.199,-0.11,0.18,-0.19,-0.12,0.01,-0.05,
2.2,-0.11,0.18,-0.19,-0.12,0.02,-0.05,
2.2,-0.11,0.18,-0.19,-0.12,0.03,-0.04,
2.201,-0.11,0.18,-0.19,-0.12,0.04,-0.04,
2.201,-0.11,0.18,-0.19,-0.12,0.05,-0.04,
2.202,-0.10,0.13,-0.01,-0.12,0.05,-0.04,
2.202,-0.10,0.13,-0.01,-0.12,0.05,-0.04,
2.202,-0.10,0.13,-0.01,-0.12,0.06,-0.04,
2.203,-0.10,0.13,-0.01,-0.12,0.07,-0.04,
2.204,-0.10,0.13,-0.01,-0.12,0.07,-0.04,
2.204,-0.10,0.13,-0.01,-0.11,0.07,-0.05,
2.205,-0.06,0.10,0.16,-0.11,0.07,-0.05,
2.205,-0.06,0.10,0.16,-0.11,0.07,-0.05,
2.205,-0.06,0.10,0.16,-0.11,0.07,-0.05,
2.205,-0.06,0.10,0.16,-0.10,0.08,-0.05,
2.205,-0.06,0.10,0.16,-0.10,0.07,-0.05,
2.206,-0.06,0.10,0.16,-0.09,0.07,-0.05,
2.206,-0.06,0.07,0.26,-0.09,0.07,-0.05,
2.206,-0.06,0.07,0.26,-0.09,0.06,-0.05,
2.206,-0.06,0.07,0.26,-0.08,0.06,-0.06,
2.206,-0.06,0.07,0.26,-0.07,0.05,-0.06,
2.207,-0.09,0.03,0.31,-0.07,0.05,-0.06,
2.207,-0.09,0.03,0.31,-0.06,0.03,-0.06,
2.207,-0.09,0.03,0.31,-0.06,0.03,-0.06,
2.207,-0.09,0.03,0.31,-0.06,0.03,-0.06,
2.207,-0.09,0.03,0.31,-0.05,0.02,-0.06,
2.208,-0.09,0.03,0.31,-0.04,0.02,-0.05,
2.208,-0.09,0.03,0.31,-0.04,0.01,-0.05,
2.208,-0.09,0.03,0.31,-0.03,-0.00,-0.05,
2.208,-0.18,-0.01,0.31,-0.03,-0.00,-0.05,
2.209,-0.18,-0.01,0.31,-0.03,-0.01,-0.05,
2.209,-0.18,-0.01,0.31,-0.02,-0.02,-0.05,
2.214,-0.18,-0.01,0.31,-0.02,-0.03,-0.04,
2.214,-0.18,-0.01,0.31,-0.02,-0.04,-0.04,
2.215,-0.18,-0.01,0.31,-0.01,-0.04,-0.04,
2.217,-0.27,-0.05,0.31,-0.01,-0.04,-0.04,
2.218,-0.27,-0.05,0.31,-0.01,-0.04,-0.03,
2.218,-0.27,-0.05,0.31,-0.00,-0.05,-0.02,
2.22,-0.27,-0.05,0.31,-0.00,-0.05,-0.02,
2.222,-0.27,-0.05,0.31,0.00,-0.05,-0.02,
2.224,-0.27,-0.05,0.31,0.01,-0.05,-0.01,
2.227,-0.28,-0.07,0.32,0.01,-0.05,-0.01,
2.227,-0.28,-0.07,0.32,0.01,-0.04,-0.01,
2.229,-0.28,-0.07,0.32,0.01,-0.04,-0.00,
2.23,-0.28,-0.07,0.32,0.01,-0.04,0.00,
2.232,-0.28,-0.07,0.32,0.02,-0.03,0.01,
2.234,-0.28,-0.07,0.32,0.02,-0.03,0.01,
2.239,-0.23,-0.09,0.34,0.02,-0.03,0.01,
2.239,-0.23,-0.09,0.34,0.02,-0.02,0.01,
2.239,-0.23,-0.09,0.34,0.02,-0.02,0.01,
2.24,-0.23,-0.09,0.34,0.03,-0.01,0.02,
2.242,-0.23,-0.09,0.34,0.03,-0.01,0.02,
2.256,-0.23,-0.09,0.34,0.03,-0.00,0.02,
2.257,-0.14,-0.11,0.32,0.03,-0.00,0.02,
2.258,-0.14,-0.11,0.32,0.03,0.00,0.02,
2.258,-0.14,-0.11,0.32,0.04,0.01,0.03,
2.259,-0.14,-0.11,0.32,0.04,0.01,0.03,
2.259,-0.14,-0.11,0.32,0.04,0.02,0.03,
2.259,-0.14,-0.11,0.32,0.04,0.02,0.03,
2.26,-0.08,-0.13,0.27,0.04,0.02,0.03,
2.26,-0.08,-0.13,0.27,0.04,0.02,0.03,
2.261,-0.08,-0.13,0.27,0.04,0.03,0.03,
2.261,-0.08,-0.13,0.27,0.04,0.03,0.03,
2.325,-0.08,-0.13,0.27,0.04,0.03,0.03,
2.326,-0.08,-0.13,0.27,0.05,0.03,0.03,
2.326,-0.04,-0.12,0.18,0.05,0.03,0.03,
2.326,-0.04,-0.12,0.18,0.05,0.03,0.03,
2.327,-0.04,-0.12,0.18,0.05,0.04,0.03,
2.327,-0.04,-0.12,0.18,0.05,0.04,0.03,
2.327,-0.04,-0.12,0.18,0.05,0.04,0.03,
2.327,-0.04,-0.12,0.18,0.05,0.04,0.02,
2.327,-0.02,-0.15,0.09,0.05,0.04,0.02,
2.328,-0.02,-0.15,0.09,0.05,0.04,0.02,
2.328,-0.02,-0.15,0.09,0.05,0.04,0.02,
2.328,-0.02,-0.15,0.09,0.05,0.04,0.02,
2.328,-0.02,-0.15,0.09,0.05,0.04,0.02,
2.328,-0.02,-0.15,0.09,0.05,0.04,0.02,
2.329,-0.04,-0.15,0.00,0.05,0.04,0.02,
2.359,-0.04,-0.15,0.00,0.05,0.03,0.02,
2.36,-0.04,-0.15,0.00,0.05,0.03,0.02,
2.361,-0.04,-0.15,0.00,0.05,0.03,0.02,
2.362,-0.04,-0.15,0.00,0.04,0.02,0.02,
2.362,-0.04,-0.15,0.00,0.05,0.02,0.03,
2.363,-0.06,-0.15,-0.02,0.05,0.02,0.03,
2.363,-0.06,-0.15,-0.02,0.05,0.02,0.03,
2.364,-0.06,-0.15,-0.02,0.04,0.01,0.03,
2.364,-0.06,-0.15,-0.02,0.04,0.01,0.03,
2.365,-0.06,-0.15,-0.02,0.05,0.00,0.03,
2.365,-0.06,-0.15,-0.02,0.05,0.00,0.04,
2.366,-0.07,-0.16,-0.01,0.05,0.00,0.04,
2.366,-0.07,-0.16,-0.01,0.05,0.00,0.04,
2.367,-0.07,-0.16,-0.01,0.05,0.00,0.04,
2.368,-0.07,-0.16,-0.01,0.05,0.00,0.05,
2.368,-0.07,-0.16,-0.01,0.05,0.01,0.05,
2.369,-0.07,-0.16,-0.01,0.05,0.01,0.05,
2.369,-0.08,-0.16,0.02,0.05,0.01,0.05,
2.37,-0.08,-0.16,0.02,0.05,0.01,0.05,
2.37,-0.08,-0.16,0.02,0.06,0.01,0.06,
2.371,-0.08,-0.16,0.02,0.06,0.01,0.06,
2.371,-0.08,-0.16,0.02,0.06,0.01,0.07,
2.372,-0.08,-0.16,0.02,0.06,0.01,0.07,
2.373,-0.07,-0.12,0.05,0.06,0.01,0.07,
2.374,-0.07,-0.12,0.05,0.06,0.01,0.07,
2.375,-0.07,-0.12,0.05,0.07,0.02,0.08,
2.375,-0.07,-0.12,0.05,0.07,0.02,0.08,
2.376,-0.07,-0.12,0.05,0.07,0.03,0.08,
2.376,-0.07,-0.12,0.05,0.07,0.03,0.09,
2.377,-0.07,-0.08,-0.01,0.07,0.03,0.09,
2.378,-0.07,-0.08,-0.01,0.07,0.03,0.09,
2.378,-0.07,-0.08,-0.01,0.07,0.04,0.09,
2.379,-0.07,-0.08,-0.01,0.07,0.04,0.09,
2.379,-0.07,-0.08,-0.01,0.07,0.04,0.10,
2.38,-0.07,-0.08,-0.01,0.07,0.04,0.10,
2.38,0.05,-0.04,-0.11,0.07,0.04,0.10,
2.381,0.05,-0.04,-0.11,0.07,0.04,0.10,
2.381,0.05,-0.04,-0.11,0.06,0.03,0.09,
2.382,0.05,-0.04,-0.11,0.06,0.03,0.09,
2.382,0.05,-0.04,-0.11,0.06,0.03,0.09,
2.383,0.05,-0.04,-0.11,0.06,0.02,0.09,
2.383,0.15,0.02,-0.20,0.06,0.02,0.09,
2.384,0.15,0.02,-0.20,0.05,0.02,0.09,
2.384,0.15,0.02,-0.20,0.05,0.02,0.09,
2.385,0.15,0.02,-0.20,0.05,0.01,0.09,
2.385,0.15,0.02,-0.20,0.05,0.01,0.08,
2.386,0.15,0.02,-0.20,0.05,0.01,0.08,
2.386,0.17,0.04,-0.22,0.05,0.01,0.08,
2.387,0.17,0.04,-0.22,0.05,0.01,0.08,
2.39,0.17,0.04,-0.22,0.04,0.00,0.08,
2.391,0.17,0.04,-0.22,0.04,-0.00,0.08,
2.391,0.17,0.04,-0.22,0.04,-0.00,0.08,
2.392,0.17,0.04,-0.22,0.04,-0.01,0.08,
2.392,0.21,0.02,-0.20,0.04,-0.01,0.08,
2.392,0.21,0.02,-0.20,0.04,-0.01,0.07,
2.393,0.21,0.02,-0.20,0.04,-0.01,0.07,
2.393,0.21,0.02,-0.20,0.03,-0.01,0.07,
2.393,0.21,0.02,-0.20,0.03,-0.01,0.07,
2.394,0.21,0.02,-0.20,0.03,-0.00,0.06,
2.394,0.27,0.06,-0.20,0.03,-0.00,0.06,
2.395,0.27,0.06,-0.20,0.03,0.00,0.06,
2.395,0.27,0.06,-0.20,0.03,0.00,0.06,
2.395,0.27,0.06,-0.20,0.02,0.01,0.05,
2.396,0.27,0.06,-0.20,0.02,0.01,0.05,
2.396,0.27,0.06,-0.20,0.02,0.01,0.05,
2.396,0.25,0.06,-0.21,0.02,0.01,0.05,
2.397,0.25,0.06,-0.21,0.01,0.02,0.05,
2.399,0.25,0.06,-0.21,0.01,0.02,0.04,
2.41,0.25,0.06,-0.21,0.01,0.02,0.04,
2.41,0.25,0.06,-0.21,0.01,0.02,0.04,
2.412,0.25,0.06,-0.21,0.00,0.03,0.04,
2.412,0.20,0.08,-0.22,0.00,0.03,0.04,
2.412,0.20,0.08,-0.22,0.00,0.03,0.04,
2.413,0.20,0.08,-0.22,0.00,0.03,0.04,
2.413,0.20,0.08,-0.22,-0.00,0.03,0.04,
2.413,0.20,0.08,-0.22,-0.00,0.03,0.04,
2.429,0.20,0.08,-0.22,-0.01,0.03,0.04,
2.43,0.14,0.06,-0.18,-0.01,0.03,0.04,
2.431,0.14,0.06,-0.18,-0.01,0.03,0.03,
2.431,0.14,0.06,-0.18,-0.01,0.03,0.03,
2.432,0.14,0.06,-0.18,-0.00,0.03,0.04,
2.432,0.14,0.06,-0.18,-0.00,0.03,0.03,
2.432,0.14,0.06,-0.18,-0.00,0.03,0.04,
2.433,0.08,0.07,-0.08,-0.00,0.03,0.04,
2.433,0.08,0.07,-0.08,-0.01,0.03,0.04,
2.433,0.08,0.07,-0.08,-0.00,0.02,0.04,
2.436,0.08,0.07,-0.08,-0.00,0.02,0.04,
2.436,0.08,0.07,-0.08,0.00,0.02,0.04,
2.437,0.08,0.07,-0.08,0.00,0.01,0.04,
2.437,0.07,0.07,-0.10,0.00,0.01,0.04,
2.437,0.07,0.07,-0.10,0.00,0.01,0.04,
2.438,0.07,0.07,-0.10,0.00,0.00,0.04,
2.441,0.07,0.07,-0.10,0.00,-0.00,0.03,
2.443,0.07,0.07,-0.10,0.00,-0.01,0.03,
2.484,0.07,0.07,-0.10,0.00,-0.02,0.03,
2.488,0.09,0.08,-0.11,0.00,-0.02,0.03,
2.489,0.09,0.08,-0.11,0.00,-0.02,0.03,
2.489,0.09,0.08,-0.11,0.00,-0.02,0.03,
2.49,0.09,0.08,-0.11,0.01,-0.02,0.03,
2.49,0.09,0.08,-0.11,0.00,-0.02,0.03,
2.532,0.09,0.08,-0.11,0.00,-0.01,0.03,
2.533,0.07,0.07,-0.15,0.00,-0.01,0.03,
2.534,0.07,0.07,-0.15,0.00,-0.01,0.03,
2.534,0.07,0.07,-0.15,0.00,-0.01,0.04,
2.535,0.07,0.07,-0.15,-0.00,-0.00,0.04,
2.536,0.07,0.07,-0.15,-0.00,0.00,0.04,
2.536,0.07,0.07,-0.15,-0.01,0.00,0.04,
2.537,0.10,0.06,-0.21,-0.01,0.00,0.04,
2.537,0.10,0.06,-0.21,-0.01,0.01,0.04,
2.537,0.10,0.06,-0.21,-0.01,0.01,0.04,
2.537,0.10,0.06,-0.21,-0.02,0.02,0.04,
2.538,0.10,0.06,-0.21,-0.02,0.03,0.04,
2.538,0.10,0.06,-0.21,-0.02,0.03,0.04,
2.538,0.07,0.03,-0.28,-0.02,0.03,0.04,
2.539,0.07,0.03,-0.28,-0.03,0.04,0.04,
2.539,0.07,0.03,-0.28,-0.03,0.04,0.04,
2.539,0.07,0.03,-0.28,-0.03,0.04,0.04,
2.539,0.07,0.03,-0.28,-0.03,0.05,0.04,
2.54,0.07,0.03,-0.28,-0.04,0.05,0.04,
2.54,0.06,0.03,-0.30,-0.04,0.05,0.04,
2.54,0.06,0.03,-0.30,-0.04,0.05,0.04,
2.54,0.06,0.03,-0.30,-0.04,0.05,0.04,
2.541,0.06,0.03,-0.30,-0.05,0.06,0.04,
2.541,0.06,0.03,-0.30,-0.05,0.06,0.04,
2.542,0.06,0.03,-0.30,-0.05,0.06,0.04,
2.543,0.00,0.05,-0.34,-0.05,0.06,0.04,
2.543,0.00,0.05,-0.34,-0.06,0.06,0.04,
2.544,0.00,0.05,-0.34,-0.06,0.06,0.04,
2.544,0.00,0.05,-0.34,-0.06,0.05,0.04,
2.544,0.00,0.05,-0.34,-0.06,0.05,0.05,
2.545,0.00,0.05,-0.34,-0.07,0.05,0.04,
2.545,-0.00,0.08,-0.39,-0.07,0.05,0.04,
2.545,-0.00,0.08,-0.39,-0.07,0.05,0.04,
2.545,-0.00,0.08,-0.39,-0.07,0.05,0.05,
2.546,-0.00,0.08,-0.39,-0.08,0.04,0.04,
2.546,-0.00,0.08,-0.39,-0.08,0.04,0.04,
2.547,-0.00,0.08,-0.39,-0.09,0.04,0.04,
2.547,0.01,0.09,-0.46,-0.09,0.04,0.04,
2.547,0.01,0.09,-0.46,-0.09,0.04,0.04,
2.547,0.01,0.09,-0.46,-0.09,0.04,0.04,
2.547,0.01,0.09,-0.46,-0.10,0.04,0.03,
2.548,0.01,0.09,-0.46,-0.10,0.03,0.03,
2.548,0.01,0.09,-0.46,-0.10,0.03,0.03,
2.548,0.02,0.12,-0.41,-0.10,0.03,0.03,
2.548,0.02,0.12,-0.41,-0.11,0.03,0.02,
2.548,0.02,0.12,-0.41,-0.11,0.03,0.02,
2.549,0.02,0.12,-0.41,-0.11,0.03,0.02,
2.549,0.02,0.12,-0.41,-0.11,0.03,0.02,
2.549,0.02,0.12,-0.41,-0.11,0.03,0.02,
2.549,-0.06,0.12,-0.29,-0.11,0.03,0.02,
2.549,-0.06,0.12,-0.29,-0.11,0.03,0.02,
2.55,-0.06,0.12,-0.29,-0.11,0.03,0.02,
2.55,-0.06,0.12,-0.29,-0.11,0.03,0.02,
2.55,-0.06,0.12,-0.29,-0.11,0.02,0.02,
2.55,-0.06,0.12,-0.29,-0.11,0.02,0.02,
2.55,-0.09,0.05,-0.18,-0.11,0.02,0.02,
2.551,-0.09,0.05,-0.18,-0.11,0.02,0.02,
2.551,-0.09,0.05,-0.18,-0.10,0.02,0.02,
2.551,-0.09,0.05,-0.18,-0.10,0.02,0.02,
2.555,-0.09,0.05,-0.18,-0.10,0.02,0.02,
2.556,-0.09,0.05,-0.18,-0.10,0.01,0.02,
2.557,-0.09,0.05,-0.08,-0.10,0.01,0.02,
2.557,-0.09,0.05,-0.08,-0.09,0.01,0.02,
2.558,-0.09,0.05,-0.08,-0.09,0.01,0.02,
2.58,-0.09,0.05,-0.08,-0.09,0.02,0.03,
2.58,-0.09,0.05,-0.08,-0.09,0.02,0.03,
2.581,-0.09,0.05,-0.08,-0.09,0.02,0.03,
2.581,-0.16,0.03,-0.06,-0.09,0.02,0.03,
2.581,-0.16,0.03,-0.06,-0.08,0.02,0.04,
2.581,-0.16,0.03,-0.06,-0.08,0.02,0.04,
2.581,-0.16,0.03,-0.06,-0.08,0.02,0.04,
2.581,-0.16,0.03,-0.06,-0.08,0.02,0.04,
2.582,-0.16,0.03,-0.06,-0.08,0.02,0.05,
2.582,-0.20,0.00,-0.10,-0.08,0.02,0.05,
2.582,-0.20,0.00,-0.10,-0.08,0.02,0.05,
2.582,-0.20,0.00,-0.10,-0.08,0.02,0.05,
2.582,-0.20,0.00,-0.10,-0.08,0.02,0.05,
2.583,-0.20,0.00,-0.10,-0.08,0.01,0.06,
2.584,-0.20,0.00,-0.10,-0.08,0.01,0.06,
2.589,-0.17,0.03,-0.18,-0.08,0.01,0.06,
2.589,-0.17,0.03,-0.18,-0.08,0.01,0.06,
2.589,-0.17,0.03,-0.18,-0.09,0.01,0.06,
2.59,-0.17,0.03,-0.18,-0.09,0.01,0.06,
2.65,-0.17,0.03,-0.18,-0.09,0.00,0.07,
2.653,-0.17,0.03,-0.18,-0.09,0.00,0.07,
2.653,-0.16,0.06,-0.24,-0.09,0.00,0.07,
2.654,-0.16,0.06,-0.24,-0.09,0.00,0.07,
2.655,-0.16,0.06,-0.24,-0.10,0.00,0.07,
2.656,-0.16,0.06,-0.24,-0.10,0.00,0.07,
2.657,-0.16,0.06,-0.24,-0.10,0.00,0.07,
2.66,-0.16,0.06,-0.24,-0.11,0.00,0.08,
2.661,-0.15,0.07,-0.27,-0.11,0.00,0.08,
2.661,-0.15,0.07,-0.27,-0.11,0.00,0.08,
2.664,-0.15,0.07,-0.27,-0.11,0.00,0.08,
2.666,-0.15,0.07,-0.27,-0.11,-0.00,0.08,
2.668,-0.15,0.07,-0.27,-0.12,-0.00,0.08,
2.669,-0.15,0.07,-0.27,-0.12,-0.01,0.08,
2.67,-0.12,0.08,-0.20,-0.12,-0.01,0.08,
2.671,-0.12,0.08,-0.20,-0.12,-0.01,0.09,
2.672,-0.12,0.08,-0.20,-0.12,-0.01,0.09,
2.703,-0.12,0.08,-0.20,-0.12,-0.01,0.09,
2.704,-0.12,0.08,-0.20,-0.12,-0.01,0.09,
2.704,-0.12,0.08,-0.20,-0.12,-0.02,0.09,
2.705,-0.10,0.08,-0.06,-0.12,-0.02,0.09,
2.705,-0.10,0.08,-0.06,-0.12,-0.01,0.09,
2.706,-0.10,0.08,-0.06,-0.12,-0.02,0.09,
2.706,-0.10,0.08,-0.06,-0.12,-0.01,0.10,
2.706,-0.10,0.08,-0.06,-0.11,-0.01,0.10,
2.707,-0.10,0.08,-0.06,-0.11,-0.01,0.10,
2.707,-0.08,0.09,0.10,-0.11,-0.01,0.10,
2.708,-0.08,0.09,0.10,-0.11,-0.01,0.10,
2.708,-0.08,0.09,0.10,-0.11,-0.01,0.10,
2.709,-0.08,0.09,0.10,-0.10,-0.01,0.10,
2.709,-0.08,0.09,0.10,-0.10,-0.01,0.10,
2.709,-0.08,0.09,0.10,-0.10,-0.01,0.10,
2.71,-0.05,0.09,0.13,-0.10,-0.01,0.10,
2.71,-0.05,0.09,0.13,-0.10,-0.01,0.10,
2.711,-0.05,0.09,0.13,-0.10,-0.00,0.10,
2.711,-0.05,0.09,0.13,-0.10,-0.00,0.10,
2.712,-0.05,0.09,0.13,-0.10,-0.00,0.10,
2.712,-0.05,0.09,0.13,-0.09,0.00,0.09,
2.712,0.02,0.10,0.19,-0.09,0.00,0.09,
2.713,0.02,0.10,0.19,-0.09,0.01,0.09,
2.713,0.02,0.10,0.19,-0.09,0.01,0.09,
2.714,0.02,0.10,0.19,-0.08,0.01,0.09,
2.714,0.02,0.10,0.19,-0.08,0.02,0.09,
2.715,0.02,0.10,0.19,-0.08,0.03,0.09,
2.715,0.00,0.11,0.24,-0.08,0.03,0.09,
2.716,0.00,0.11,0.24,-0.08,0.03,0.09,
2.716,0.00,0.11,0.24,-0.07,0.04,0.09,
2.716,0.00,0.11,0.24,-0.07,0.04,0.09,
2.717,0.00,0.11,0.24,-0.06,0.04,0.09,
2.717,0.00,0.11,0.24,-0.06,0.05,0.09,
2.718,0.00,0.11,0.24,-0.06,0.05,0.09,
2.718,0.00,0.11,0.24,-0.06,0.05,0.09,
2.719,0.00,0.11,0.24,-0.06,0.05,0.09,
2.719,0.00,0.11,0.24,-0.06,0.06,0.09,
2.719,0.00,0.11,0.24,-0.05,0.06,0.09,
2.72,0.00,0.11,0.24,-0.05,0.06,0.09,
2.72,-0.03,0.14,0.17,-0.05,0.06,0.09,
2.721,-0.03,0.14,0.17,-0.05,0.06,0.09,
2.721,-0.03,0.14,0.17,-0.05,0.06,0.09,
2.722,-0.03,0.14,0.17,-0.05,0.06,0.09,
2.722,-0.03,0.14,0.17,-0.04,0.06,0.10,
2.722,-0.03,0.14,0.17,-0.04,0.05,0.09,
2.723,-0.04,0.15,0.09,-0.04,0.05,0.09,
2.723,-0.04,0.15,0.09,-0.04,0.05,0.09,
2.724,-0.04,0.15,0.09,-0.04,0.05,0.10,
2.724,-0.04,0.15,0.09,-0.04,0.05,0.10,
2.725,-0.04,0.15,0.09,-0.04,0.04,0.09,
2.725,-0.04,0.15,0.09,-0.04,0.04,0.09,
2.725,-0.06,0.19,-0.00,-0.04,0.04,0.09,
2.726,-0.06,0.19,-0.00,-0.04,0.03,0.09,
2.726,-0.06,0.19,-0.00,-0.04,0.03,0.09,
2.727,-0.06,0.19,-0.00,-0.04,0.03,0.09,
2.727,-0.06,0.19,-0.00,-0.04,0.02,0.10,
2.728,-0.06,0.19,-0.00,-0.04,0.02,0.10,
2.728,-0.05,0.17,-0.08,-0.04,0.02,0.10,
2.728,-0.05,0.17,-0.08,-0.04,0.02,0.09,
2.729,-0.05,0.17,-0.08,-0.04,0.01,0.09,
2.729,-0.05,0.17,-0.08,-0.05,0.01,0.09,
2.729,-0.05,0.17,-0.08,-0.05,0.01,0.09,
2.729,-0.05,0.17,-0.08,-0.05,0.01,0.09,
2.73,0.00,0.17,-0.08,-0.05,0.01,0.09,
2.73,0.00,0.17,-0.08,-0.05,0.00,0.09,
2.73,0.00,0.17,-0.08,-0.05,0.00,0.09,
2.73,0.00,0.17,-0.08,-0.05,0.00,0.09,
2.736,0.00,0.17,-0.08,-0.05,0.00,0.09,
2.737,0.00,0.17,-0.08,-0.05,0.00,0.09,
2.737,0.04,0.17,0.02,-0.05,0.00,0.09,
2.737,0.04,0.17,0.02,-0.05,0.00,0.09,
2.74,0.04,0.17,0.02,-0.04,0.00,0.08,
2.741,0.04,0.17,0.02,-0.04,0.00,0.08,
2.75,0.04,0.17,0.02,-0.04,0.01,0.08,
2.751,0.04,0.17,0.02,-0.04,0.01,0.08,
2.751,0.06,0.15,0.04,-0.04,0.01,0.08,
2.752,0.06,0.15,0.04,-0.04,0.01,0.08,
2.752,0.06,0.15,0.04,-0.03,0.01,0.08,
2.752,0.06,0.15,0.04,-0.03,0.02,0.08,
2.752,0.06,0.15,0.04,-0.03,0.02,0.08,
2.756,0.06,0.15,0.04,-0.03,0.02,0.08,
2.757,0.04,0.14,-0.03,-0.03,0.02,0.08,
2.757,0.04,0.14,-0.03,-0.03,0.02,0.08,
2.772,0.04,0.14,-0.03,-0.03,0.03,0.09,
2.773,0.04,0.14,-0.03,-0.04,0.03,0.08,
2.773,0.04,0.14,-0.03,-0.04,0.03,0.08,
2.773,0.04,0.14,-0.03,-0.04,0.03,0.08,
2.773,0.09,0.14,-0.19,-0.04,0.03,0.08,
2.774,0.09,0.14,-0.19,-0.04,0.03,0.08,
2.774,0.09,0.14,-0.19,-0.05,0.04,0.08,
2.774,0.09,0.14,-0.19,-0.05,0.04,0.07,
2.774,0.09,0.14,-0.19,-0.06,0.04,0.07,
2.774,0.09,0.14,-0.19,-0.06,0.04,0.07,
2.819,0.14,0.17,-0.33,-0.06,0.04,0.07,
2.82,0.14,0.17,-0.33,-0.06,0.04,0.07,
2.82,0.14,0.17,-0.33,-0.07,0.04,0.06,
2.821,0.14,0.17,-0.33,-0.07,0.04,0.06,
2.821,0.14,0.17,-0.33,-0.08,0.04,0.06,
2.821,0.14,0.17,-0.33,-0.08,0.04,0.05,
2.821,0.15,0.16,-0.40,-0.08,0.04,0.05,
2.848,0.15,0.16,-0.40,-0.09,0.04,0.05,
2.848,0.15,0.16,-0.40,-0.09,0.04,0.05,
2.849,0.15,0.16,-0.40,-0.09,0.04,0.05,
2.849,0.15,0.16,-0.40,-0.10,0.03,0.05,
2.849,0.15,0.16,-0.40,-0.10,0.03,0.04,
2.85,0.09,0.12,-0.38,-0.10,0.03,0.04,
2.85,0.09,0.12,-0.38,-0.10,0.03,0.04,
2.85,0.09,0.12,-0.38,-0.11,0.03,0.04,
2.85,0.09,0.12,-0.38,-0.11,0.03,0.04,
2.851,0.09,0.12,-0.38,-0.11,0.03,0.04,
2.851,0.09,0.12,-0.38,-0.11,0.03,0.04,
2.851,-0.01,0.07,-0.27,-0.11,0.03,0.04,
2.852,-0.01,0.07,-0.27,-0.11,0.02,0.04,
2.852,-0.01,0.07,-0.27,-0.11,0.02,0.04,
2.852,-0.01,0.07,-0.27,-0.11,0.02,0.05,
2.852,-0.01,0.07,-0.27,-0.11,0.02,0.05,
2.853,-0.01,0.07,-0.27,-0.11,0.01,0.05,
2.853,-0.11,0.01,-0.17,-0.11,0.01,0.05,
2.853,-0.11,0.01,-0.17,-0.11,0.01,0.06,
2.853,-0.11,0.01,-0.17,-0.11,0.01,0.06,
2.854,-0.11,0.01,-0.17,-0.10,0.00,0.06,
2.854,-0.11,0.01,-0.17,-0.10,0.00,0.06,
2.854,-0.11,0.01,-0.17,-0.09,-0.00,0.07,
2.854,-0.11,-0.01,-0.11,-0.09,-0.00,0.07,
2.855,-0.11,-0.01,-0.11,-0.09,-0.00,0.07,
2.855,-0.11,-0.01,-0.11,-0.09,-0.01,0.07,
2.855,-0.11,-0.01,-0.11,-0.09,-0.01,0.08,
2.856,-0.11,-0.01,-0.11,-0.08,-0.01,0.08,
2.856,-0.11,-0.01,-0.11,-0.08,-0.02,0.08,
2.856,-0.12,-0.01,-0.12,-0.08,-0.02,0.08,
2.856,-0.12,-0.01,-0.12,-0.08,-0.02,0.08,
2.857,-0.12,-0.01,-0.12,-0.08,-0.02,0.09,
2.857,-0.12,-0.01,-0.12,-0.08,-0.03,0.09,
2.857,-0.12,-0.01,-0.12,-0.08,-0.03,0.09,
2.857,-0.12,-0.01,-0.12,-0.07,-0.03,0.09,
2.858,-0.11,0.03,-0.21,-0.07,-0.03,0.09,
2.858,-0.11,0.03,-0.21,-0.07,-0.04,0.09,
2.858,-0.11,0.03,-0.21,-0.07,-0.04,0.09,
2.859,-0.11,0.03,-0.21,-0.07,-0.05,0.09,
2.859,-0.11,0.03,-0.21,-0.07,-0.05,0.09,
2.859,-0.11,0.03,-0.21,-0.07,-0.05,0.09,
2.859,-0.07,0.09,-0.31,-0.07,-0.05,0.09,
2.86,-0.07,0.09,-0.31,-0.08,-0.06,0.08,
2.86,-0.07,0.09,-0.31,-0.08,-0.06,0.08,
2.86,-0.07,0.09,-0.31,-0.08,-0.06,0.08,
2.863,-0.07,0.09,-0.31,-0.09,-0.06,0.08,
2.864,-0.07,0.09,-0.31,-0.09,-0.06,0.08,
2.867,-0.06,0.13,-0.41,-0.09,-0.06,0.08,
2.867,-0.06,0.13,-0.41,-0.09,-0.06,0.08,
2.868,-0.06,0.13,-0.41,-0.10,-0.06,0.08,
2.87,-0.06,0.13,-0.41,-0.10,-0.06,0.08,
2.872,-0.06,0.13,-0.41,-0.11,-0.06,0.08,
2.877,-0.06,0.13,-0.41,-0.11,-0.06,0.08,
2.878,-0.12,0.13,-0.42,-0.11,-0.06,0.08,
2.878,-0.12,0.13,-0.42,-0.12,-0.05,0.08,
2.878,-0.12,0.13,-0.42,-0.12,-0.05,0.08,
2.88,-0.12,0.13,-0.42,-0.12,-0.05,0.08,
2.882,-0.12,0.13,-0.42,-0.13,-0.04,0.08,
2.885,-0.12,0.13,-0.42,-0.13,-0.04,0.09,
2.887,-0.13,0.12,-0.44,-0.13,-0.04,0.09,
2.887,-0.13,0.12,-0.44,-0.14,-0.04,0.09,
2.889,-0.13,0.12,-0.44,-0.14,-0.04,0.09,
2.891,-0.13,0.12,-0.44,-0.15,-0.03,0.09,
2.904,-0.13,0.12,-0.44,-0.15,-0.03,0.10,
2.904,-0.13,0.12,-0.44,-0.16,-0.03,0.09,
2.905,-0.16,0.16,-0.44,-0.16,-0.03,0.09,
2.905,-0.16,0.16,-0.44,-0.16,-0.03,0.10,
2.906,-0.16,0.16,-0.44,-0.17,-0.02,0.10,
2.906,-0.16,0.16,-0.44,-0.17,-0.02,0.10,
2.906,-0.16,0.16,-0.44,-0.18,-0.02,0.10,
2.907,-0.16,0.16,-0.44,-0.18,-0.01,0.11,
2.907,-0.17,0.20,-0.40,-0.18,-0.01,0.11,
2.907,-0.17,0.20,-0.40,-0.19,-0.01,0.11,
2.946,-0.17,0.20,-0.40,-0.19,-0.00,0.11,
2.947,-0.17,0.20,-0.40,-0.19,-0.00,0.11,
2.948,-0.17,0.20,-0.40,-0.19,0.00,0.11,
2.949,-0.17,0.20,-0.40,-0.20,0.00,0.11,
2.949,-0.13,0.21,-0.41,-0.20,0.00,0.11,
2.95,-0.13,0.21,-0.41,-0.20,0.00,0.11,
2.95,-0.13,0.21,-0.41,-0.20,0.00,0.11,
2.95,-0.13,0.21,-0.41,-0.20,0.00,0.11,
2.951,-0.13,0.21,-0.41,-0.21,0.00,0.11,
2.951,-0.13,0.21,-0.41,-0.21,0.00,0.11,
2.951,-0.10,0.26,-0.29,-0.21,0.00,0.11,
2.952,-0.10,0.26,-0.29,-0.21,0.00,0.10,
2.952,-0.10,0.26,-0.29,-0.20,-0.00,0.10,
2.952,-0.10,0.26,-0.29,-0.20,-0.01,0.10,
2.953,-0.10,0.26,-0.29,-0.19,-0.01,0.09,
2.953,-0.10,0.26,-0.29,-0.19,-0.01,0.09,
2.953,-0.05,0.30,-0.07,-0.19,-0.01,0.09,
2.954,-0.05,0.30,-0.07,-0.18,-0.01,0.09,
2.954,-0.05,0.30,-0.07,-0.17,-0.01,0.08,
2.954,-0.05,0.30,-0.07,-0.17,-0.01,0.08,
2.955,-0.05,0.30,-0.07,-0.16,-0.01,0.08,
2.955,-0.05,0.30,-0.07,-0.15,-0.01,0.07,
2.955,-0.11,0.26,0.05,-0.15,-0.01,0.07,
2.956,-0.11,0.26,0.05,-0.15,-0.01,0.07,
2.956,-0.11,0.26,0.05,-0.14,-0.02,0.07,
2.957,-0.11,0.26,0.05,-0.13,-0.02,0.07,
2.957,-0.11,0.26,0.05,-0.13,-0.03,0.07,
2.991,-0.11,0.26,0.05,-0.12,-0.03,0.07,
2.991,-0.17,0.27,0.09,-0.12,-0.03,0.07,
2.993,-0.17,0.27,0.09,-0.11,-0.04,0.07,
2.993,-0.17,0.27,0.09,-0.11,-0.04,0.07,
2.994,-0.17,0.27,0.09,-0.10,-0.05,0.07,
2.995,-0.17,0.27,0.09,-0.10,-0.05,0.07,
2.995,-0.17,0.27,0.09,-0.09,-0.06,0.07,
2.996,-0.30,0.28,0.05,-0.09,-0.06,0.07,
2.997,-0.30,0.28,0.05,-0.08,-0.06,0.07,
2.997,-0.30,0.28,0.05,-0.08,-0.06,0.07,
2.998,-0.30,0.28,0.05,-0.08,-0.07,0.08,
2.999,-0.30,0.28,0.05,-0.08,-0.07,0.08,
2.999,-0.30,0.28,0.05,-0.07,-0.07,0.08,
3.0,-0.32,0.30,-0.06,-0.07,-0.07,0.08,
3.001,-0.32,0.30,-0.06,-0.07,-0.07,0.08,
3.001,-0.32,0.30,-0.06,-0.07,-0.07,0.08,
3.002,-0.32,0.30,-0.06,-0.08,-0.08,0.08,
3.003,-0.32,0.30,-0.06,-0.08,-0.07,0.08,
3.003,-0.32,0.30,-0.06,-0.08,-0.07,0.08,
3.004,-0.30,0.36,-0.26,-0.08,-0.07,0.08,
3.005,-0.30,0.36,-0.26,-0.09,-0.07,0.08,
3.005,-0.30,0.36,-0.26,-0.10,-0.07,0.08,
3.006,-0.30,0.36,-0.26,-0.10,-0.07,0.08,
3.007,-0.30,0.36,-0.26,-0.11,-0.06,0.08,
3.008,-0.30,0.36,-0.26,-0.11,-0.06,0.08,
3.009,-0.24,0.40,-0.38,-0.11,-0.06,0.08,
3.01,-0.24,0.40,-0.38,-0.12,-0.06,0.08,
3.01,-0.24,0.40,-0.38,-0.13,-0.06,0.08,
3.011,-0.24,0.40,-0.38,-0.13,-0.05,0.08,
3.011,-0.24,0.40,-0.38,-0.14,-0.05,0.08,
3.011,-0.24,0.40,-0.38,-0.14,-0.05,0.08,
3.012,-0.22,0.39,-0.37,-0.14,-0.05,0.08,
3.012,-0.22,0.39,-0.37,-0.15,-0.04,0.08,
3.013,-0.22,0.39,-0.37,-0.16,-0.04,0.08,
3.013,-0.22,0.39,-0.37,-0.16,-0.04,0.08,
3.014,-0.22,0.39,-0.37,-0.16,-0.03,0.08,
3.015,-0.22,0.39,-0.37,-0.17,-0.03,0.08,
3.018,-0.20,0.38,-0.34,-0.17,-0.03,0.08,
3.02,-0.20,0.38,-0.34,-0.17,-0.02,0.07,
3.02,-0.20,0.38,-0.34,-0.18,-0.02,0.07,
3.021,-0.20,0.38,-0.34,-0.18,-0.01,0.08,
3.022,-0.20,0.38,-0.34,-0.19,-0.01,0.07,
3.03,-0.20,0.38,-0.34,-0.19,-0.01,0.07,
3.032,-0.20,0.38,-0.31,-0.19,-0.01,0.07,
3.032,-0.20,0.38,-0.31,-0.19,-0.01,0.07,
3.032,-0.20,0.38,-0.31,-0.20,-0.01,0.07,
3.032,-0.20,0.38,-0.31,-0.20,-0.01,0.07,
3.032,-0.20,0.38,-0.31,-0.21,-0.01,0.07,
3.034,-0.20,0.38,-0.31,-0.21,-0.00,0.07,
3.04,-0.17,0.35,-0.23,-0.21,-0.00,0.07,
3.041,-0.17,0.35,-0.23,-0.21,-0.00,0.07,
3.041,-0.17,0.35,-0.23,-0.21,0.00,0.07,
3.041,-0.17,0.35,-0.23,-0.22,0.00,0.07,
3.074,-0.17,0.35,-0.23,-0.22,0.01,0.07,
3.075,-0.17,0.35,-0.23,-0.22,0.01,0.07,
3.075,-0.16,0.32,-0.18,-0.22,0.01,0.07,
3.075,-0.16,0.32,-0.18,-0.22,0.01,0.07,
3.075,-0.16,0.32,-0.18,-0.23,0.01,0.07,
3.075,-0.16,0.32,-0.18,-0.23,0.01,0.06,
3.076,-0.16,0.32,-0.18,-0.23,0.02,0.06,
3.076,-0.16,0.32,-0.18,-0.23,0.02,0.07,
3.076,-0.17,0.27,-0.13,-0.23,0.02,0.07,
3.076,-0.17,0.27,-0.13,-0.23,0.02,0.07,
3.076,-0.17,0.27,-0.13,-0.23,0.02,0.06,
3.076,-0.17,0.27,-0.13,-0.23,0.02,0.06,
3.076,-0.17,0.27,-0.13,-0.23,0.02,0.06,
3.077,-0.17,0.27,-0.13,-0.22,0.02,0.06,
3.077,-0.17,0.26,0.03,-0.22,0.02,0.06,
3.077,-0.17,0.26,0.03,-0.22,0.02,0.06,
3.077,-0.17,0.26,0.03,-0.21,0.02,0.06,
3.077,-0.17,0.26,0.03,-0.21,0.01,0.06,
3.077,-0.17,0.26,0.03,-0.20,0.01,0.06,
3.077,-0.17,0.26,0.03,-0.19,0.00,0.06,
3.077,-0.13,0.24,0.17,-0.19,0.00,0.06,
3.078,-0.13,0.24,0.17,-0.19,0.00,0.05,
3.078,-0.13,0.24,0.17,-0.18,-0.00,0.05,
3.08,-0.13,0.24,0.17,-0.17,-0.01,0.05,
3.082,-0.13,0.24,0.17,-0.16,-0.01,0.05,
3.084,-0.13,0.24,0.17,-0.15,-0.02,0.05,
3.086,-0.14,0.20,0.24,-0.15,-0.02,0.05,
3.087,-0.14,0.20,0.24,-0.14,-0.02,0.04,
3.088,-0.14,0.20,0.24,-0.13,-0.03,0.04,
3.09,-0.14,0.20,0.24,-0.13,-0.03,0.04,
3.092,-0.14,0.20,0.24,-0.12,-0.03,0.04,
3.094,-0.14,0.20,0.24,-0.11,-0.04,0.04,
3.097,-0.14,0.16,0.14,-0.11,-0.04,0.04,
3.097,-0.14,0.16,0.14,-0.11,-0.04,0.04,
3.098,-0.14,0.16,0.14,-0.10,-0.04,0.04,
3.1,-0.14,0.16,0.14,-0.10,-0.05,0.04,
3.102,-0.14,0.16,0.14,-0.10,-0.05,0.04,
3.104,-0.14,0.16,0.14,-0.10,-0.06,0.04,
3.117,-0.16,0.17,-0.09,-0.10,-0.06,0.04,
3.118,-0.16,0.17,-0.09,-0.10,-0.06,0.04,
3.118,-0.16,0.17,-0.09,-0.10,-0.06,0.05,
3.118,-0.16,0.17,-0.09,-0.10,-0.06,0.04,
3.119,-0.16,0.17,-0.09,-0.11,-0.06,0.05,
3.119,-0.16,0.17,-0.09,-0.11,-0.06,0.05,
3.119,-0.16,0.16,-0.28,-0.11,-0.06,0.05,
3.119,-0.16,0.16,-0.28,-0.11,-0.06,0.05,
3.12,-0.16,0.16,-0.28,-0.12,-0.06,0.05,
3.145,-0.16,0.16,-0.28,-0.13,-0.05,0.05,
3.145,-0.16,0.16,-0.28,-0.13,-0.05,0.05,
3.146,-0.16,0.16,-0.28,-0.14,-0.05,0.05,
3.146,-0.15,0.14,-0.40,-0.14,-0.05,0.05,
3.147,-0.15,0.14,-0.40,-0.15,-0.04,0.06,
3.147,-0.15,0.14,-0.40,-0.16,-0.04,0.06,
3.148,-0.15,0.14,-0.40,-0.16,-0.03,0.06,
3.148,-0.15,0.14,-0.40,-0.17,-0.03,0.06,
3.149,-0.15,0.14,-0.40,-0.18,-0.03,0.06,
3.149,-0.16,0.09,-0.41,-0.18,-0.03,0.06,
3.149,-0.16,0.09,-0.41,-0.18,-0.02,0.06,
3.149,-0.16,0.09,-0.41,-0.19,-0.02,0.07,
3.149,-0.16,0.09,-0.41,-0.19,-0.01,0.07,
3.15,-0.16,0.09,-0.41,-0.19,-0.01,0.07,
3.15,-0.16,0.09,-0.41,-0.20,-0.01,0.08,
3.15,-0.19,0.08,-0.32,-0.20,-0.01,0.08,
3.15,-0.19,0.08,-0.32,-0.20,-0.01,0.08,
3.15,-0.19,0.08,-0.32,-0.20,-0.01,0.08,
3.151,-0.19,0.08,-0.32,-0.21,-0.00,0.09,
3.152,-0.19,0.08,-0.32,-0.21,-0.00,0.09,
3.154,-0.19,0.08,-0.32,-0.21,0.00,0.09,
3.163,-0.15,0.06,-0.28,-0.21,0.00,0.09,
3.164,-0.15,0.06,-0.28,-0.21,-0.00,0.09,
3.164,-0.15,0.06,-0.28,-0.21,0.00,0.09,
3.165,-0.15,0.06,-0.28,-0.21,-0.00,0.09,
3.165,-0.15,0.06,-0.28,-0.21,0.00,0.09,
3.165,-0.15,0.06,-0.28,-0.21,0.00,0.10,
3.166,-0.16,0.07,-0.22,-0.21,0.00,0.10,
3.167,-0.16,0.07,-0.22,-0.21,0.00,0.10,
3.168,-0.16,0.07,-0.22,-0.21,0.00,0.10,
3.17,-0.16,0.07,-0.22,-0.21,0.00,0.10,
3.172,-0.16,0.07,-0.22,-0.21,0.00,0.10,
3.175,-0.16,0.07,-0.22,-0.21,-0.01,0.11,
3.176,-0.12,0.10,-0.24,-0.21,-0.01,0.11,
3.177,-0.12,0.10,-0.24,-0.21,-0.01,0.11,
3.178,-0.12,0.10,-0.24,-0.21,-0.01,0.11,
3.18,-0.12,0.10,-0.24,-0.21,-0.01,0.11,
3.182,-0.12,0.10,-0.24,-0.20,-0.02,0.11,
3.184,-0.12,0.10,-0.24,-0.20,-0.03,0.10,
3.186,-0.04,0.14,-0.23,-0.20,-0.03,0.10,
3.187,-0.04,0.14,-0.23,-0.20,-0.03,0.10,
3.188,-0.04,0.14,-0.23,-0.20,-0.04,0.10,
3.19,-0.04,0.14,-0.23,-0.20,-0.04,0.10,
3.197,-0.03,0.19,-0.19,-0.20,-0.04,0.10,
3.197,-0.03,0.19,-0.19,-0.18,-0.06,0.10,
3.197,-0.03,0.19,-0.19,-0.18,-0.06,0.10,
3.198,-0.03,0.19,-0.19,-0.18,-0.06,0.10,
3.199,-0.03,0.19,-0.19,-0.19,-0.06,0.10,
3.2,-0.03,0.19,-0.19,-0.18,-0.07,0.10,
3.202,-0.03,0.19,-0.19,-0.18,-0.07,0.10,
3.204,-0.03,0.19,-0.19,-0.17,-0.07,0.10,
3.207,0.01,0.20,-0.24,-0.17,-0.07,0.10,
3.211,0.01,0.20,-0.24,-0.17,-0.08,0.10,
3.211,0.01,0.20,-0.24,-0.17,-0.08,0.10,
3.211,0.01,0.20,-0.24,-0.17,-0.08,0.10,
3.212,0.01,0.20,-0.24,-0.17,-0.08,0.09,
3.214,0.01,0.20,-0.24,-0.17,-0.08,0.09,
3.216,0.00,0.21,-0.34,-0.17,-0.08,0.09,
3.217,0.00,0.21,-0.34,-0.17,-0.08,0.09,
3.218,0.00,0.21,-0.34,-0.17,-0.08,0.09,
3.22,0.00,0.21,-0.34,-0.17,-0.08,0.09,
3.222,0.00,0.21,-0.34,-0.17,-0.08,0.09,
3.225,0.00,0.21,-0.34,-0.17,-0.08,0.09,
3.227,-0.06,0.25,-0.44,-0.17,-0.08,0.09,
3.228,-0.06,0.25,-0.44,-0.17,-0.08,0.10,
3.228,-0.06,0.25,-0.44,-0.17,-0.08,0.10,
3.23,-0.06,0.25,-0.44,-0.17,-0.08,0.10,
3.232,-0.06,0.25,-0.44,-0.17,-0.07,0.10,
3.234,-0.06,0.25,-0.44,-0.17,-0.07,0.10,
3.237,-0.05,0.26,-0.49,-0.17,-0.07,0.10,
3.237,-0.05,0.26,-0.49,-0.17,-0.07,0.10,
3.238,-0.05,0.26,-0.49,-0.18,-0.07,0.10,
3.249,-0.05,0.26,-0.49,-0.18,-0.07,0.10,
3.25,-0.05,0.26,-0.49,-0.19,-0.07,0.10,
3.251,-0.05,0.26,-0.49,-0.19,-0.07,0.10,
3.251,-0.03,0.29,-0.59,-0.19,-0.07,0.10,
3.251,-0.03,0.29,-0.59,-0.19,-0.07,0.10,
3.252,-0.03,0.29,-0.59,-0.20,-0.07,0.10,
3.252,-0.03,0.29,-0.59,-0.20,-0.07,0.10,
3.252,-0.03,0.29,-0.59,-0.21,-0.07,0.10,
3.254,-0.03,0.29,-0.59,-0.21,-0.07,0.09,
3.304,-0.02,0.34,-0.70,-0.21,-0.07,0.09,
3.307,-0.02,0.34,-0.70,-0.22,-0.07,0.09,
3.309,-0.02,0.34,-0.70,-0.23,-0.07,0.09,
3.31,-0.02,0.34,-0.70,-0.23,-0.07,0.09,
3.311,-0.02,0.34,-0.70,-0.24,-0.07,0.09,
3.312,-0.02,0.34,-0.70,-0.24,-0.07,0.08,
3.313,-0.00,0.37,-0.71,-0.24,-0.07,0.08,
3.314,-0.00,0.37,-0.71,-0.25,-0.07,0.08,
3.314,-0.00,0.37,-0.71,-0.25,-0.07,0.08,
3.315,-0.00,0.37,-0.71,-0.25,-0.08,0.08,
3.316,-0.00,0.37,-0.71,-0.25,-0.08,0.08,
3.317,-0.00,0.37,-0.71,-0.26,-0.08,0.07,
3.318,-0.02,0.39,-0.65,-0.26,-0.08,0.07,
3.318,-0.02,0.39,-0.65,-0.26,-0.08,0.07,
3.319,-0.02,0.39,-0.65,-0.26,-0.08,0.07,
3.319,-0.02,0.39,-0.65,-0.26,-0.09,0.07,
3.319,-0.02,0.39,-0.65,-0.26,-0.09,0.06,
3.32,-0.02,0.39,-0.65,-0.27,-0.09,0.06,
3.32,-0.08,0.45,-0.62,-0.27,-0.09,0.06,
3.362,-0.08,0.45,-0.62,-0.27,-0.10,0.06,
3.362,-0.08,0.45,-0.62,-0.27,-0.09,0.06,
3.363,-0.08,0.45,-0.62,-0.27,-0.10,0.06,
3.364,-0.08,0.45,-0.62,-0.27,-0.10,0.06,
3.365,-0.08,0.45,-0.62,-0.27,-0.10,0.05,
3.366,-0.15,0.45,-0.61,-0.27,-0.10,0.05,
3.366,-0.15,0.45,-0.61,-0.27,-0.10,0.06,
3.367,-0.15,0.45,-0.61,-0.27,-0.10,0.06,
3.368,-0.15,0.45,-0.61,-0.28,-0.10,0.06,
3.369,-0.15,0.45,-0.61,-0.28,-0.10,0.06,
3.37,-0.15,0.45,-0.61,-0.28,-0.10,0.05,
3.371,-0.22,0.48,-0.71,-0.28,-0.10,0.05,
3.372,-0.22,0.48,-0.71,-0.29,-0.11,0.05,
3.372,-0.22,0.48,-0.71,-0.29,-0.11,0.05,
3.373,-0.22,0.48,-0.71,-0.29,-0.11,0.05,
3.374,-0.22,0.48,-0.71,-0.30,-0.11,0.06,
3.374,-0.22,0.48,-0.71,-0.31,-0.11,0.05,
3.375,-0.27,0.50,-0.73,-0.31,-0.11,0.05,
3.376,-0.27,0.50,-0.73,-0.30,-0.11,0.05,
3.377,-0.27,0.50,-0.73,-0.31,-0.11,0.06,
3.378,-0.27,0.50,-0.73,-0.31,-0.11,0.06,
3.379,-0.27,0.50,-0.73,-0.32,-0.12,0.06,
3.38,-0.27,0.50,-0.73,-0.32,-0.12,0.06,
3.381,-0.28,0.51,-0.71,-0.32,-0.12,0.06,
3.382,-0.28,0.51,-0.71,-0.32,-0.12,0.06,
3.383,-0.28,0.51,-0.71,-0.33,-0.12,0.06,
3.383,-0.28,0.51,-0.71,-0.33,-0.12,0.06,
3.386,-0.28,0.51,-0.71,-0.34,-0.12,0.06,
3.386,-0.28,0.51,-0.71,-0.34,-0.12,0.06,
3.387,-0.28,0.46,-0.65,-0.34,-0.12,0.06,
3.387,-0.28,0.46,-0.65,-0.34,-0.12,0.06,
3.387,-0.28,0.46,-0.65,-0.34,-0.12,0.06,
3.388,-0.28,0.46,-0.65,-0.35,-0.13,0.06,
3.388,-0.28,0.46,-0.65,-0.35,-0.13,0.07,
3.388,-0.28,0.46,-0.65,-0.35,-0.13,0.06,
3.389,-0.29,0.48,-0.57,-0.35,-0.13,0.06,
3.389,-0.29,0.48,-0.57,-0.35,-0.14,0.06,
3.389,-0.29,0.48,-0.57,-0.35,-0.14,0.06,
3.39,-0.29,0.48,-0.57,-0.35,-0.14,0.07,
3.39,-0.29,0.48,-0.57,-0.35,-0.15,0.07,
3.39,-0.29,0.48,-0.57,-0.35,-0.15,0.06,
3.391,-0.25,0.43,-0.46,-0.35,-0.15,0.06,
3.391,-0.25,0.43,-0.46,-0.36,-0.15,0.06,
3.392,-0.25,0.43,-0.46,-0.35,-0.15,0.06,
3.392,-0.25,0.43,-0.46,-0.35,-0.15,0.06,
3.392,-0.25,0.43,-0.46,-0.35,-0.15,0.06,
3.393,-0.25,0.43,-0.46,-0.35,-0.15,0.06,
3.393,-0.27,0.44,-0.31,-0.35,-0.15,0.06,
3.393,-0.27,0.44,-0.31,-0.34,-0.15,0.06,
3.394,-0.27,0.44,-0.31,-0.34,-0.15,0.06,
3.394,-0.27,0.44,-0.31,-0.34,-0.14,0.06,
3.395,-0.27,0.44,-0.31,-0.34,-0.14,0.06,
3.395,-0.27,0.44,-0.31,-0.33,-0.14,0.06,
3.395,-0.29,0.43,-0.23,-0.33,-0.14,0.06,
3.396,-0.29,0.43,-0.23,-0.33,-0.14,0.06,
3.396,-0.29,0.43,-0.23,-0.33,-0.13,0.07,
3.397,-0.29,0.43,-0.23,-0.32,-0.14,0.07,
3.397,-0.29,0.43,-0.23,-0.32,-0.14,0.07,
3.397,-0.29,0.43,-0.23,-0.32,-0.13,0.07,
3.398,-0.31,0.46,-0.23,-0.32,-0.13,0.07,
3.398,-0.31,0.46,-0.23,-0.31,-0.13,0.06,
3.398,-0.31,0.46,-0.23,-0.31,-0.14,0.06,
3.399,-0.31,0.46,-0.23,-0.30,-0.14,0.06,
3.399,-0.31,0.46,-0.23,-0.30,-0.14,0.06,
3.4,-0.31,0.46,-0.23,-0.29,-0.14,0.06,
3.4,-0.32,0.48,-0.20,-0.29,-0.14,0.06,
3.4,-0.32,0.48,-0.20,-0.29,-0.14,0.06,
3.401,-0.32,0.48,-0.20,-0.28,-0.14,0.06,
3.401,-0.32,0.48,-0.20,-0.28,-0.14,0.06,
3.404,-0.32,0.48,-0.20,-0.28,-0.14,0.06,
3.411,-0.32,0.48,-0.20,-0.27,-0.14,0.06,
3.413,-0.35,0.53,-0.28,-0.27,-0.14,0.06,
3.413,-0.35,0.53,-0.28,-0.26,-0.14,0.06,
3.413,-0.35,0.53,-0.28,-0.26,-0.14,0.06,
3.414,-0.35,0.53,-0.28,-0.26,-0.14,0.06,
3.414,-0.35,0.53,-0.28,-0.26,-0.14,0.05,
3.415,-0.35,0.53,-0.28,-0.25,-0.14,0.05,
3.417,-0.35,0.55,-0.42,-0.25,-0.14,0.05,
3.418,-0.35,0.55,-0.42,-0.25,-0.15,0.05,
3.419,-0.35,0.55,-0.42,-0.25,-0.15,0.05,
3.421,-0.35,0.55,-0.42,-0.25,-0.15,0.05,
3.426,-0.35,0.55,-0.42,-0.25,-0.15,0.05,
3.427,-0.35,0.55,-0.42,-0.26,-0.15,0.05,
3.427,-0.36,0.58,-0.64,-0.26,-0.15,0.05,
3.427,-0.36,0.58,-0.64,-0.26,-0.15,0.05,
3.43,-0.36,0.58,-0.64,-0.27,-0.16,0.05,
3.431,-0.36,0.58,-0.64,-0.27,-0.16,0.05,
3.433,-0.36,0.58,-0.64,-0.28,-0.16,0.05,
3.435,-0.36,0.58,-0.64,-0.28,-0.16,0.05,
3.438,-0.36,0.59,-0.75,-0.28,-0.16,0.05,
3.439,-0.36,0.59,-0.75,-0.29,-0.16,0.05,
3.439,-0.36,0.59,-0.75,-0.29,-0.16,0.05,
3.449,-0.36,0.59,-0.75,-0.30,-0.16,0.05,
3.45,-0.36,0.59,-0.75,-0.30,-0.16,0.05,
3.451,-0.36,0.59,-0.75,-0.31,-0.16,0.05,
3.451,-0.39,0.59,-0.79,-0.31,-0.16,0.05,
3.451,-0.39,0.59,-0.79,-0.31,-0.16,0.05,
3.452,-0.39,0.59,-0.79,-0.32,-0.16,0.05,
3.452,-0.39,0.59,-0.79,-0.32,-0.16,0.05,
3.455,-0.39,0.59,-0.79,-0.33,-0.17,0.05,
3.485,-0.39,0.59,-0.79,-0.33,-0.17,0.06,
3.485,-0.39,0.57,-0.71,-0.33,-0.17,0.06,
3.486,-0.39,0.57,-0.71,-0.33,-0.17,0.06,
3.486,-0.39,0.57,-0.71,-0.34,-0.17,0.06,
3.486,-0.39,0.57,-0.71,-0.34,-0.17,0.06,
3.486,-0.39,0.57,-0.71,-0.34,-0.17,0.06,
3.487,-0.39,0.57,-0.71,-0.34,-0.17,0.06,
3.487,-0.46,0.56,-0.59,-0.34,-0.17,0.06,
3.487,-0.46,0.56,-0.59,-0.34,-0.17,0.06,
3.488,-0.46,0.56,-0.59,-0.34,-0.17,0.06,
3.488,-0.46,0.56,-0.59,-0.34,-0.17,0.07,
3.488,-0.46,0.56,-0.59,-0.34,-0.17,0.07,
3.488,-0.46,0.56,-0.59,-0.34,-0.17,0.07,
3.489,-0.51,0.53,-0.43,-0.34,-0.17,0.07,
3.489,-0.51,0.53,-0.43,-0.34,-0.17,0.07,
3.489,-0.51,0.53,-0.43,-0.34,-0.17,0.08,
3.49,-0.51,0.53,-0.43,-0.33,-0.17,0.08,
3.49,-0.51,0.53,-0.43,-0.33,-0.18,0.08,
3.49,-0.51,0.53,-0.43,-0.32,-0.18,0.08,
3.49,-0.53,0.55,-0.32,-0.32,-0.18,0.08,
3.491,-0.53,0.55,-0.32,-0.32,-0.18,0.09,
3.491,-0.53,0.55,-0.32,-0.31,-0.18,0.09,
3.491,-0.53,0.55,-0.32,-0.31,-0.18,0.09,
3.521,-0.53,0.55,-0.32,-0.30,-0.18,0.09,
3.522,-0.53,0.55,-0.32,-0.30,-0.18,0.10,
3.522,-0.49,0.57,-0.32,-0.30,-0.18,0.10,
3.522,-0.49,0.57,-0.32,-0.30,-0.17,0.10,
3.523,-0.49,0.57,-0.32,-0.29,-0.17,0.10,
3.523,-0.49,0.57,-0.32,-0.29,-0.17,0.10,
3.523,-0.49,0.57,-0.32,-0.29,-0.16,0.10,
3.523,-0.49,0.57,-0.32,-0.29,-0.16,0.10,
3.524,-0.44,0.62,-0.41,-0.29,-0.16,0.10,
3.524,-0.44,0.62,-0.41,-0.29,-0.15,0.10,
3.524,-0.44,0.62,-0.41,-0.29,-0.15,0.10,
3.524,-0.44,0.62,-0.41,-0.29,-0.14,0.10,
3.525,-0.44,0.62,-0.41,-0.29,-0.14,0.10,
3.525,-0.44,0.62,-0.41,-0.29,-0.14,0.09,
3.525,-0.43,0.65,-0.51,-0.29,-0.14,0.09,
3.525,-0.43,0.65,-0.51,-0.29,-0.13,0.09,
3.526,-0.43,0.65,-0.51,-0.29,-0.13,0.09,
3.526,-0.43,0.65,-0.51,-0.29,-0.13,0.09,
3.526,-0.43,0.65,-0.51,-0.29,-0.13,0.09,
3.526,-0.43,0.65,-0.51,-0.29,-0.13,0.09,
3.526,-0.44,0.66,-0.53,-0.29,-0.13,0.09,
3.527,-0.44,0.66,-0.53,-0.29,-0.13,0.09,
3.529,-0.44,0.66,-0.53,-0.29,-0.12,0.08,
3.532,-0.44,0.66,-0.53,-0.29,-0.12,0.08,
3.533,-0.44,0.66,-0.53,-0.29,-0.12,0.08,
3.535,-0.44,0.66,-0.53,-0.29,-0.12,0.08,
3.537,-0.44,0.65,-0.52,-0.29,-0.12,0.08,
3.539,-0.44,0.65,-0.52,-0.29,-0.12,0.08,
3.541,-0.44,0.65,-0.52,-0.29,-0.12,0.08,
3.545,-0.44,0.65,-0.52,-0.29,-0.12,0.08,
3.546,-0.44,0.65,-0.52,-0.28,-0.12,0.08,
3.547,-0.44,0.65,-0.52,-0.28,-0.12,0.08,
3.548,-0.51,0.69,-0.55,-0.28,-0.12,0.08,
3.548,-0.51,0.69,-0.55,-0.28,-0.13,0.08,
3.549,-0.51,0.69,-0.55,-0.28,-0.13,0.08,
3.554,-0.51,0.69,-0.55,-0.28,-0.13,0.08,
3.556,-0.51,0.69,-0.55,-0.28,-0.14,0.08,
3.557,-0.51,0.69,-0.55,-0.28,-0.14,0.08,
3.56,-0.52,0.70,-0.56,-0.28,-0.14,0.08,
3.561,-0.52,0.70,-0.56,-0.28,-0.15,0.09,
3.562,-0.52,0.70,-0.56,-0.28,-0.15,0.09,
3.562,-0.52,0.70,-0.56,-0.28,-0.15,0.09,
3.563,-0.52,0.70,-0.56,-0.28,-0.16,0.09,
3.565,-0.52,0.70,-0.56,-0.28,-0.16,0.09,
3.568,-0.56,0.73,-0.62,-0.28,-0.16,0.09,
3.569,-0.56,0.73,-0.62,-0.28,-0.16,0.09,
3.569,-0.56,0.73,-0.62,-0.28,-0.17,0.09,
3.587,-0.56,0.73,-0.62,-0.27,-0.17,0.10,
3.588,-0.56,0.73,-0.62,-0.28,-0.17,0.10,
3.589,-0.56,0.73,-0.62,-0.28,-0.17,0.09,
3.589,-0.53,0.69,-0.63,-0.28,-0.17,0.09,
3.589,-0.53,0.69,-0.63,-0.28,-0.18,0.10,
3.59,-0.53,0.69,-0.63,-0.28,-0.18,0.10,
3.59,-0.53,0.69,-0.63,-0.27,-0.18,0.10,
3.59,-0.53,0.69,-0.63,-0.27,-0.18,0.10,
3.591,-0.53,0.69,-0.63,-0.27,-0.18,0.10,
3.591,-0.47,0.73,-0.63,-0.27,-0.18,0.10,
3.591,-0.47,0.73,-0.63,-0.27,-0.18,0.10,
3.592,-0.47,0.73,-0.63,-0.27,-0.18,0.10,
3.592,-0.47,0.73,-0.63,-0.27,-0.18,0.10,
3.592,-0.47,0.73,-0.63,-0.27,-0.17,0.10,
3.594,-0.47,0.73,-0.63,-0.27,-0.17,0.10,
3.597,-0.47,0.70,-0.62,-0.27,-0.17,0.10,
3.597,-0.47,0.70,-0.62,-0.27,-0.17,0.10,
3.599,-0.47,0.70,-0.62,-0.27,-0.16,0.10,
3.601,-0.47,0.70,-0.62,-0.27,-0.16,0.10,
3.603,-0.47,0.70,-0.62,-0.27,-0.15,0.10,
3.656,-0.47,0.70,-0.62,-0.27,-0.15,0.10,
3.658,-0.49,0.74,-0.64,-0.27,-0.15,0.10,
3.659,-0.49,0.74,-0.64,-0.27,-0.14,0.10,
3.659,-0.49,0.74,-0.64,-0.28,-0.14,0.10,
3.66,-0.49,0.74,-0.64,-0.28,-0.13,0.09,
3.66,-0.49,0.74,-0.64,-0.28,-0.12,0.10,
3.661,-0.49,0.74,-0.64,-0.28,-0.12,0.10,
3.661,-0.51,0.73,-0.57,-0.28,-0.12,0.10,
3.661,-0.51,0.73,-0.57,-0.28,-0.11,0.10,
3.662,-0.51,0.73,-0.57,-0.27,-0.10,0.10,
3.699,-0.51,0.73,-0.57,-0.27,-0.10,0.10,
3.699,-0.51,0.73,-0.57,-0.27,-0.10,0.11,
3.7,-0.51,0.73,-0.57,-0.27,-0.09,0.11,
3.7,-0.62,0.69,-0.48,-0.27,-0.09,0.11,
3.701,-0.62,0.69,-0.48,-0.27,-0.09,0.11,
3.701,-0.62,0.69,-0.48,-0.27,-0.09,0.12,
3.702,-0.62,0.69,-0.48,-0.27,-0.09,0.12,
3.702,-0.62,0.69,-0.48,-0.26,-0.09,0.12,
3.703,-0.62,0.69,-0.48,-0.26,-0.09,0.12,
3.703,-0.60,0.66,-0.43,-0.26,-0.09,0.12,
3.704,-0.60,0.66,-0.43,-0.26,-0.09,0.13,
3.704,-0.60,0.66,-0.43,-0.25,-0.09,0.13,
3.705,-0.60,0.66,-0.43,-0.25,-0.09,0.13,
3.705,-0.60,0.66,-0.43,-0.24,-0.09,0.14,
3.706,-0.60,0.66,-0.43,-0.24,-0.09,0.14,
3.707,-0.65,0.67,-0.37,-0.24,-0.09,0.14,
3.707,-0.65,0.67,-0.37,-0.24,-0.09,0.14,
3.708,-0.65,0.67,-0.37,-0.23,-0.09,0.15,
3.708,-0.65,0.67,-0.37,-0.22,-0.09,0.15,
3.709,-0.65,0.67,-0.37,-0.22,-0.09,0.16,
3.709,-0.65,0.67,-0.37,-0.22,-0.10,0.16,
3.71,-0.78,0.73,-0.29,-0.22,-0.10,0.16,
3.711,-0.78,0.73,-0.29,-0.21,-0.10,0.16,
3.711,-0.78,0.73,-0.29,-0.20,-0.11,0.17,
3.711,-0.78,0.73,-0.29,-0.19,-0.11,0.17,
3.712,-0.78,0.73,-0.29,-0.18,-0.13,0.17,
3.712,-0.78,0.73,-0.29,-0.17,-0.14,0.18,
3.713,-0.83,0.77,-0.11,-0.17,-0.14,0.18,
3.713,-0.83,0.77,-0.11,-0.15,-0.15,0.18,
3.714,-0.83,0.77,-0.11,-0.13,-0.17,0.19,
3.714,-0.83,0.77,-0.11,-0.11,-0.18,0.19,
3.714,-0.83,0.77,-0.11,-0.10,-0.19,0.19,
3.715,-0.83,0.77,-0.11,-0.08,-0.20,0.20,
3.715,-0.93,0.81,-0.13,-0.08,-0.20,0.20,
3.716,-0.93,0.81,-0.13,-0.06,-0.22,0.21,
3.716,-0.93,0.81,-0.13,-0.05,-0.24,0.22,
3.717,-0.93,0.81,-0.13,-0.03,-0.25,0.22,
3.717,-0.93,0.81,-0.13,-0.02,-0.26,0.23,
3.718,-0.93,0.81,-0.13,-0.01,-0.27,0.24,
3.718,-1.00,0.91,-0.35,-0.01,-0.27,0.24,
3.719,-1.00,0.91,-0.35,0.01,-0.28,0.25,
3.719,-1.00,0.91,-0.35,0.02,-0.29,0.26,
3.72,-1.00,0.91,-0.35,0.03,-0.30,0.26,
3.723,-1.00,0.91,-0.35,0.04,-0.31,0.27,
3.723,-1.00,0.91,-0.35,0.04,-0.32,0.28,
3.723,-0.88,0.99,-0.55,0.04,-0.32,0.28,
3.724,-0.88,0.99,-0.55,0.05,-0.34,0.29,
3.724,-0.88,0.99,-0.55,0.06,-0.35,0.30,
3.725,-0.88,0.99,-0.55,0.08,-0.36,0.31,
3.725,-0.88,0.99,-0.55,0.08,-0.37,0.31,
3.725,-0.88,0.99,-0.55,0.09,-0.38,0.31,
3.726,-0.64,1.10,-0.61,0.09,-0.38,0.31,
3.726,-0.64,1.10,-0.61,0.10,-0.39,0.31,
3.727,-0.64,1.10,-0.61,0.11,-0.40,0.31,
3.727,-0.64,1.10,-0.61,0.12,-0.42,0.31,
3.727,-0.64,1.10,-0.61,0.13,-0.42,0.31,
3.728,-0.64,1.10,-0.61,0.14,-0.43,0.31,
3.728,-0.44,1.11,-0.60,0.14,-0.43,0.31,
3.728,-0.44,1.11,-0.60,0.16,-0.44,0.30,
3.729,-0.44,1.11,-0.60,0.16,-0.44,0.30,
3.729,-0.44,1.11,-0.60,0.17,-0.44,0.29,
3.73,-0.44,1.11,-0.60,0.18,-0.43,0.29,
3.73,-0.44,1.11,-0.60,0.18,-0.43,0.29,
3.73,-0.37,1.08,-0.82,0.18,-0.43,0.29,
3.731,-0.37,1.08,-0.82,0.19,-0.41,0.29,
3.731,-0.37,1.08,-0.82,0.19,-0.40,0.29,
3.732,-0.37,1.08,-0.82,0.19,-0.37,0.29,
3.732,-0.37,1.08,-0.82,0.19,-0.35,0.28,
3.737,-0.37,1.08,-0.82,0.18,-0.34,0.29,
3.738,-0.44,1.01,-1.46,0.18,-0.34,0.29,
3.738,-0.44,1.01,-1.46,0.16,-0.31,0.29,
3.739,-0.44,1.01,-1.46,0.16,-0.30,0.29,
3.742,-0.44,1.01,-1.46,0.13,-0.27,0.29,
3.743,-0.44,1.01,-1.46,0.12,-0.26,0.29,
3.745,-0.44,1.01,-1.46,0.11,-0.26,0.29,
3.747,-0.53,1.14,-1.86,0.11,-0.26,0.29,
3.748,-0.53,1.14,-1.86,0.13,-0.35,0.30,
3.748,-0.53,1.14,-1.86,0.14,-0.37,0.30,
3.752,-0.53,1.14,-1.86,0.16,-0.41,0.30,
3.753,-0.53,1.14,-1.86,0.16,-0.44,0.29,
3.764,-0.53,1.14,-1.86,0.17,-0.46,0.28,
3.765,-0.61,1.08,-1.70,0.17,-0.46,0.28,
3.765,-0.61,1.08,-1.70,0.17,-0.48,0.27,
3.765,-0.61,1.08,-1.70,0.17,-0.50,0.27,
3.766,-0.61,1.08,-1.70,0.17,-0.51,0.26,
3.766,-0.61,1.08,-1.70,0.16,-0.52,0.25,
3.766,-0.61,1.08,-1.70,0.16,-0.52,0.25,
3.766,-0.84,0.98,-1.87,0.16,-0.52,0.25,
3.767,-0.84,0.98,-1.87,0.16,-0.52,0.26,
3.769,-0.84,0.98,-1.87,0.16,-0.51,0.26,
3.816,-0.84,0.98,-1.87,0.16,-0.50,0.27,
3.818,-0.84,0.98,-1.87,0.16,-0.49,0.28,
3.819,-0.84,0.98,-1.87,0.17,-0.50,0.29,
3.819,-1.04,0.76,-1.87,0.17,-0.50,0.29,
3.82,-1.04,0.76,-1.87,0.18,-0.50,0.30,
3.82,-1.04,0.76,-1.87,0.19,-0.51,0.32,
3.821,-1.04,0.76,-1.87,0.21,-0.53,0.33,
3.821,-1.04,0.76,-1.87,0.23,-0.56,0.34,
3.821,-1.04,0.76,-1.87,0.26,-0.59,0.36,
3.822,-1.14,0.65,-1.66,0.26,-0.59,0.36,
3.872,-1.14,0.65,-1.66,0.29,-0.63,0.38,
3.873,-1.14,0.65,-1.66,0.31,-0.68,0.39,
3.874,-1.14,0.65,-1.66,0.34,-0.73,0.41,
3.874,-1.14,0.65,-1.66,0.37,-0.79,0.44,
3.875,-1.14,0.65,-1.66,0.41,-0.90,0.46,
3.876,-1.15,0.63,-1.74,0.41,-0.90,0.46,
3.877,-1.15,0.63,-1.74,0.45,-1.09,0.49,
3.877,-1.15,0.63,-1.74,0.50,-1.23,0.52,
3.878,-1.15,0.63,-1.74,0.55,-1.35,0.56,
3.878,-1.15,0.63,-1.74,0.59,-1.44,0.58,
3.879,-1.15,0.63,-1.74,0.63,-1.51,0.61,
3.88,-1.47,0.86,-2.09,0.63,-1.51,0.61,
3.88,-1.47,0.86,-2.09,0.66,-1.57,0.64,
3.881,-1.47,0.86,-2.09,0.69,-1.61,0.66,
3.881,-1.47,0.86,-2.09,0.71,-1.64,0.69,
3.882,-1.47,0.86,-2.09,0.72,-1.66,0.71,
3.882,-1.47,0.86,-2.09,0.73,-1.68,0.73,
3.883,-1.73,1.11,-2.96,0.73,-1.68,0.73,
3.883,-1.73,1.11,-2.96,0.73,-1.69,0.76,
3.884,-1.73,1.11,-2.96,0.73,-1.70,0.78,
3.884,-1.73,1.11,-2.96,0.73,-1.71,0.81,
3.885,-1.73,1.11,-2.96,0.73,-1.72,0.83,
3.885,-1.73,1.11,-2.96,0.74,-1.74,0.85,
3.885,-1.59,1.24,-3.73,0.74,-1.74,0.85,
3.886,-1.59,1.24,-3.73,0.75,-1.77,0.86,
3.887,-1.59,1.24,-3.73,0.76,-1.81,0.88,
3.888,-1.59,1.24,-3.73,0.77,-1.86,0.90,
3.889,-1.59,1.24,-3.73,0.79,-1.93,0.92,
3.889,-1.59,1.24,-3.73,0.82,-1.99,0.93,
3.89,-1.07,1.28,-3.87,0.82,-1.99,0.93,
3.891,-1.07,1.28,-3.87,0.84,-2.04,0.95,
3.892,-1.07,1.28,-3.87,0.87,-2.09,0.96,
3.892,-1.07,1.28,-3.87,0.89,-2.12,0.98,
3.893,-1.07,1.28,-3.87,0.92,-2.14,0.99,
3.894,-1.07,1.28,-3.87,0.95,-2.15,1.01,
3.894,-0.56,1.46,-4.04,0.95,-2.15,1.01,
3.895,-0.56,1.46,-4.04,0.97,-2.15,1.03,
3.898,-0.56,1.46,-4.04,0.99,-2.12,1.06,
3.898,-0.56,1.46,-4.04,1.01,-2.08,1.09,
3.899,-0.56,1.46,-4.04,1.03,-2.03,1.13,
3.899,-0.56,1.46,-4.04,1.05,-1.98,1.17,
3.899,-0.34,1.49,-4.60,1.05,-1.98,1.17,
3.9,-0.34,1.49,-4.60,1.07,-1.91,1.21,
3.9,-0.34,1.49,-4.60,1.09,-1.85,1.24,
3.9,-0.34,1.49,-4.60,1.11,-1.78,1.28,
3.901,-0.34,1.49,-4.60,1.14,-1.71,1.30,
3.901,-0.34,1.49,-4.60,1.16,-1.64,1.32,
3.901,-0.12,1.65,-5.18,1.16,-1.64,1.32,
3.901,-0.12,1.65,-5.18,1.18,-1.58,1.33,
3.902,-0.12,1.65,-5.18,1.21,-1.53,1.33,
3.902,-0.12,1.65,-5.18,1.23,-1.48,1.31,
3.902,-0.12,1.65,-5.18,1.24,-1.45,1.28,
3.902,-0.12,1.65,-5.18,1.25,-1.42,1.23,
3.903,0.74,0.90,-5.83,1.25,-1.42,1.23,
3.903,0.74,0.90,-5.83,1.24,-1.40,1.15,
3.903,0.74,0.90,-5.83,1.23,-1.38,1.05,
3.903,0.74,0.90,-5.83,1.21,-1.38,0.94,
3.904,0.74,0.90,-5.83,1.19,-1.38,0.83,
3.904,0.74,0.90,-5.83,1.16,-1.40,0.72,
3.904,1.40,0.40,-6.80,1.16,-1.40,0.72,
3.908,1.40,0.40,-6.80,1.15,-1.42,0.62,
3.908,1.40,0.40,-6.80,1.13,-1.46,0.53,
3.908,1.40,0.40,-6.80,1.12,-1.50,0.46,
3.909,1.40,0.40,-6.80,1.11,-1.56,0.41,
3.909,1.40,0.40,-6.80,1.10,-1.63,0.37,
3.909,-1.11,0.02,-6.81,1.10,-1.63,0.37,
3.909,-1.11,0.02,-6.81,1.10,-1.70,0.33,
3.91,-1.11,0.02,-6.81,1.11,-1.79,0.29,
3.91,-1.11,0.02,-6.81,1.11,-1.90,0.26,
3.91,-1.11,0.02,-6.81,1.13,-2.01,0.25,
3.91,-1.11,0.02,-6.81,1.14,-2.14,0.24,
3.91,-2.99,0.88,-6.73,1.14,-2.14,0.24,
3.911,-2.99,0.88,-6.73,1.16,-2.28,0.25,
3.911,-2.99,0.88,-6.73,1.20,-2.44,0.27,
3.911,-2.99,0.88,-6.73,1.25,-2.62,0.30,
3.915,-2.99,0.88,-6.73,1.30,-2.81,0.34,
3.916,-2.99,0.88,-6.73,1.37,-3.03,0.39,
3.919,-4.15,1.66,-6.15,1.37,-3.03,0.39,
3.92,-4.15,1.66,-6.15,1.44,-3.27,0.44,
3.92,-4.15,1.66,-6.15,1.54,-3.53,0.49,
3.921,-4.15,1.66,-6.15,1.64,-3.81,0.54,
3.93,-4.15,1.66,-6.15,1.76,-4.10,0.59,
3.93,-4.15,1.66,-6.15,1.89,-4.41,0.64,
3.931,-5.11,2.29,-4.95,1.89,-4.41,0.64,
3.931,-5.11,2.29,-4.95,2.04,-4.74,0.70,
3.932,-5.11,2.29,-4.95,2.20,-5.07,0.75,
3.932,-5.11,2.29,-4.95,2.39,-5.41,0.81,
3.932,-5.11,2.29,-4.95,2.57,-5.72,0.87,
3.935,-5.11,2.29,-4.95,2.77,-6.00,0.93,
3.941,-5.83,2.22,-3.15,2.77,-6.00,0.93,
3.942,-5.83,2.22,-3.15,2.96,-6.26,0.98,
3.942,-5.83,2.22,-3.15,3.16,-6.49,1.03,
3.942,-5.83,2.22,-3.15,3.35,-6.71,1.07,
3.943,-5.83,2.22,-3.15,3.55,-6.93,1.10,
3.944,-5.83,2.22,-3.15,3.74,-7.14,1.11,
3.947,-5.94,1.34,-2.31,3.74,-7.14,1.11,
3.947,-5.94,1.34,-2.31,3.91,-7.36,1.10,
3.948,-5.94,1.34,-2.31,4.07,-7.57,1.08,
3.951,-5.94,1.34,-2.31,4.22,-7.79,1.04,
3.984,-5.94,1.34,-2.31,4.36,-8.00,0.99,
4.001,-5.94,1.34,-2.31,4.47,-8.21,0.94,
4.001,-4.80,-0.37,-2.47,4.47,-8.21,0.94,
4.002,-4.80,-0.37,-2.47,4.58,-8.40,0.88,
4.002,-4.80,-0.37,-2.47,4.67,-8.58,0.82,
4.002,-4.80,-0.37,-2.47,4.76,-8.75,0.75,
4.002,-4.80,-0.37,-2.47,4.84,-8.90,0.69,
4.003,-4.80,-0.37,-2.47,4.93,-9.03,0.62,
4.003,-4.94,-1.27,-2.63,4.93,-9.03,0.62,
4.003,-4.94,-1.27,-2.63,5.01,-9.12,0.56,
4.004,-4.94,-1.27,-2.63,5.09,-9.19,0.50,
4.004,-4.94,-1.27,-2.63,5.18,-9.26,0.44,
4.004,-4.94,-1.27,-2.63,5.26,-9.34,0.39,
4.005,-4.94,-1.27,-2.63,5.32,-9.44,0.34,
4.005,-6.07,-2.01,-2.27,5.32,-9.44,0.34,
4.005,-6.07,-2.01,-2.27,5.39,-9.56,0.31,
4.005,-6.07,-2.01,-2.27,5.44,-9.69,0.28,
4.006,-6.07,-2.01,-2.27,5.50,-9.82,0.26,
4.006,-6.07,-2.01,-2.27,5.55,-9.95,0.24,
4.006,-6.07,-2.01,-2.27,5.61,-10.07,0.22,
4.007,-7.91,-2.39,-2.81,5.61,-10.07,0.22,
4.008,-7.91,-2.39,-2.81,5.66,-10.19,0.21,
4.008,-7.91,-2.39,-2.81,5.71,-10.30,0.19,
4.009,-7.91,-2.39,-2.81,5.76,-10.42,0.17,
4.009,-7.91,-2.39,-2.81,5.81,-10.53,0.14,
4.009,-7.91,-2.39,-2.81,5.86,-10.65,0.12,
4.01,-9.27,-2.62,-2.60,5.86,-10.65,0.12,
4.01,-9.27,-2.62,-2.60,5.91,-10.76,0.10,
4.01,-9.27,-2.62,-2.60,5.95,-10.88,0.07,
4.011,-9.27,-2.62,-2.60,5.99,-11.00,0.05,
4.011,-9.27,-2.62,-2.60,6.03,-11.10,0.03,
4.012,-9.27,-2.62,-2.60,6.07,-11.21,0.01,
4.012,-10.51,-2.81,-1.63,6.07,-11.21,0.01,
4.012,-10.51,-2.81,-1.63,6.11,-11.31,0.01,
4.013,-10.51,-2.81,-1.63,6.16,-11.39,0.00,
4.013,-10.51,-2.81,-1.63,6.21,-11.46,0.00,
4.014,-10.51,-2.81,-1.63,6.27,-11.52,0.00,
4.014,-10.51,-2.81,-1.63,6.33,-11.57,-0.00,
4.019,-11.21,-2.67,-0.12,6.33,-11.57,-0.00,
4.02,-11.21,-2.67,-0.12,6.40,-11.61,-0.01,
4.02,-11.21,-2.67,-0.12,6.47,-11.64,-0.03,
4.021,-11.21,-2.67,-0.12,6.54,-11.67,-0.06,
4.025,-11.21,-2.67,-0.12,6.62,-11.70,-0.10,
4.027,-11.21,-2.67,-0.12,6.69,-11.73,-0.16,
4.027,-11.46,-0.95,1.97,6.69,-11.73,-0.16,
4.027,-11.46,-0.95,1.97,6.77,-11.78,-0.22,
4.028,-11.46,-0.95,1.97,6.84,-11.83,-0.30,
4.03,-11.46,-0.95,1.97,6.93,-11.87,-0.38,
4.032,-11.46,-0.95,1.97,7.02,-11.90,-0.46,
4.036,-11.46,-0.95,1.97,7.11,-11.90,-0.54,
4.038,-11.16,0.47,4.26,7.11,-11.90,-0.54,
4.038,-11.16,0.47,4.26,7.20,-11.89,-0.63,
4.038,-11.16,0.47,4.26,7.29,-11.85,-0.71,
4.04,-11.16,0.47,4.26,7.37,-11.80,-0.80,
4.044,-11.16,0.47,4.26,7.45,-11.71,-0.88,
4.046,-11.16,0.47,4.26,7.52,-11.62,-0.95,
4.049,-11.13,0.40,4.55,7.52,-11.62,-0.95,
4.05,-11.13,0.40,4.55,7.58,-11.52,-1.02,
4.051,-11.13,0.40,4.55,7.62,-11.43,-1.09,
4.051,-11.13,0.40,4.55,7.64,-11.34,-1.16,
4.059,-11.13,0.40,4.55,7.65,-11.26,-1.22,
4.061,-11.13,0.40,4.55,7.63,-11.19,-1.28,
4.061,-9.97,-1.47,3.22,7.63,-11.19,-1.28,
4.061,-9.97,-1.47,3.22,7.59,-11.11,-1.32,
4.062,-9.97,-1.47,3.22,7.52,-11.04,-1.36,
4.062,-9.97,-1.47,3.22,7.45,-10.95,-1.39,
4.062,-9.97,-1.47,3.22,7.35,-10.86,-1.42,
4.065,-9.97,-1.47,3.22,7.24,-10.77,-1.45,
4.068,-7.82,-2.12,1.28,7.24,-10.77,-1.45,
4.068,-7.82,-2.12,1.28,7.12,-10.68,-1.49,
4.069,-7.82,-2.12,1.28,6.97,-10.59,-1.52,
4.122,-7.82,-2.12,1.28,6.82,-10.51,-1.56,
4.123,-7.82,-2.12,1.28,6.64,-10.44,-1.61,
4.124,-7.82,-2.12,1.28,6.44,-10.37,-1.66,
4.124,-5.29,-3.31,-0.48,6.44,-10.37,-1.66,
4.124,-5.29,-3.31,-0.48,6.21,-10.31,-1.72,
4.124,-5.29,-3.31,-0.48,5.97,-10.22,-1.77,
4.125,-5.29,-3.31,-0.48,5.71,-10.13,-1.82,
4.125,-5.29,-3.31,-0.48,5.44,-10.01,-1.86,
4.125,-5.29,-3.31,-0.48,5.16,-9.87,-1.89,
4.125,-4.81,-5.22,-2.48,5.16,-9.87,-1.89,
4.126,-4.81,-5.22,-2.48,4.86,-9.71,-1.91,
4.126,-4.81,-5.22,-2.48,4.54,-9.50,-1.92,
4.126,-4.81,-5.22,-2.48,4.20,-9.25,-1.90,
4.126,-4.81,-5.22,-2.48,3.85,-8.94,-1.87,
4.127,-4.81,-5.22,-2.48,3.50,-8.47,-1.82,
4.127,-6.77,-6.96,-5.28,3.50,-8.47,-1.82,
4.127,-6.77,-6.96,-5.28,3.13,-7.85,-1.74,
4.127,-6.77,-6.96,-5.28,2.72,-7.11,-1.63,
4.128,-6.77,-6.96,-5.28,2.27,-6.40,-1.48,
4.128,-6.77,-6.96,-5.28,1.77,-5.84,-1.29,
4.128,-6.77,-6.96,-5.28,1.27,-5.43,-1.08,
4.128,-10.89,-7.42,-10.40,1.27,-5.43,-1.08,
4.129,-10.89,-7.42,-10.40,0.80,-5.06,-0.87,
4.129,-10.89,-7.42,-10.40,0.38,-4.67,-0.68,
4.129,-10.89,-7.42,-10.40,0.02,-4.25,-0.50,
4.129,-10.89,-7.42,-10.40,-0.28,-3.83,-0.34,
4.13,-10.89,-7.42,-10.40,-0.53,-3.43,-0.21,
4.13,-9.44,-7.36,-3.10,-0.53,-3.43,-0.21,
4.13,-9.44,-7.36,-3.10,-0.73,-3.07,-0.11,
4.13,-9.44,-7.36,-3.10,-0.90,-2.72,-0.04,
4.149,-9.44,-7.36,-3.10,-1.03,-2.39,0.01,
4.15,-9.44,-7.36,-3.10,-1.12,-2.08,0.04,
4.15,-9.44,-7.36,-3.10,-1.19,-1.79,0.05,
4.15,-3.71,-7.75,3.77,-1.19,-1.79,0.05,
4.15,-3.71,-7.75,3.77,-1.22,-1.52,0.04,
4.151,-3.71,-7.75,3.77,-1.24,-1.28,0.01,
4.151,-3.71,-7.75,3.77,-1.24,-1.09,-0.04,
4.151,-3.71,-7.75,3.77,-1.22,-0.94,-0.11,
4.151,-3.71,-7.75,3.77,-1.19,-0.83,-0.19,
4.152,0.22,-8.97,7.62,-1.19,-0.83,-0.19,
4.152,0.22,-8.97,7.62,-1.15,-0.75,-0.28,
4.152,0.22,-8.97,7.62,-1.09,-0.72,-0.38,
4.152,0.22,-8.97,7.62,-1.02,-0.70,-0.49,
4.153,0.22,-8.97,7.62,-0.93,-0.71,-0.61,
4.153,0.22,-8.97,7.62,-0.83,-0.75,-0.73,
4.153,1.10,-10.12,9.89,-0.83,-0.75,-0.73,
4.153,1.10,-10.12,9.89,-0.70,-0.80,-0.86,
4.153,1.10,-10.12,9.89,-0.57,-0.87,-0.99,
4.154,1.10,-10.12,9.89,-0.41,-0.96,-1.13,
4.154,1.10,-10.12,9.89,-0.24,-1.09,-1.27,
4.154,1.10,-10.12,9.89,-0.06,-1.25,-1.41,
4.157,1.97,-10.91,11.81,-0.06,-1.25,-1.41,
4.158,1.97,-10.91,11.81,0.13,-1.47,-1.56,
4.158,1.97,-10.91,11.81,0.33,-1.75,-1.71,
4.16,1.97,-10.91,11.81,0.54,-2.06,-1.87,
4.162,1.97,-10.91,11.81,0.75,-2.42,-2.02,
4.166,1.97,-10.91,11.81,0.98,-2.81,-2.17,
4.166,3.51,-12.15,13.04,0.98,-2.81,-2.17,
4.167,3.51,-12.15,13.04,1.22,-3.20,-2.31,
4.169,3.51,-12.15,13.04,1.46,-3.60,-2.44,
4.177,3.51,-12.15,13.04,1.71,-4.00,-2.56,
4.178,3.51,-12.15,13.04,1.95,-4.41,-2.67,
4.178,3.51,-12.15,13.04,2.20,-4.81,-2.77,
4.178,4.04,-13.67,13.49,2.20,-4.81,-2.77,
4.179,4.04,-13.67,13.49,2.44,-5.20,-2.86,
4.179,4.04,-13.67,13.49,2.68,-5.56,-2.94,
4.181,4.04,-13.67,13.49,2.86,-5.86,-3.01,
4.183,4.04,-13.67,13.49,2.98,-6.08,-3.05,
4.219,4.04,-13.67,13.49,3.07,-6.33,-3.08,
4.22,3.81,-12.94,11.78,3.07,-6.33,-3.08,
4.22,3.81,-12.94,11.78,3.14,-6.51,-3.12,
4.22,3.81,-12.94,11.78,3.17,-6.64,-3.15,
4.22,3.81,-12.94,11.78,3.20,-6.78,-3.16,
4.22,1.87,-10.31,10.60,3.20,-6.78,-3.16,
4.221,1.87,-10.31,10.60,3.27,-7.12,-3.21,
4.221,1.87,-10.31,10.60,3.27,-7.12,-3.21,
4.221,1.87,-10.31,10.60,3.27,-7.12,-3.21,
4.221,1.87,-10.31,10.60,3.28,-7.16,-3.23,
4.221,1.87,-10.31,10.60,3.28,-7.19,-3.25,
4.221,1.87,-10.31,10.60,3.29,-7.21,-3.27,
4.221,1.87,-10.31,10.60,3.28,-7.24,-3.29,
4.222,0.72,-8.57,9.88,3.28,-7.24,-3.29,
4.222,0.72,-8.57,9.88,3.26,-7.27,-3.31,
4.222,0.72,-8.57,9.88,3.24,-7.31,-3.33,
4.222,0.72,-8.57,9.88,3.22,-7.35,-3.36,
4.222,0.72,-8.57,9.88,3.19,-7.39,-3.38,
4.222,0.72,-8.57,9.88,3.15,-7.44,-3.41,
4.223,0.93,-6.94,8.81,3.15,-7.44,-3.41,
4.223,0.93,-6.94,8.81,3.11,-7.48,-3.43,
4.223,0.93,-6.94,8.81,3.06,-7.52,-3.46,
4.223,0.93,-6.94,8.81,3.00,-7.56,-3.49,
4.223,0.93,-6.94,8.81,2.95,-7.61,-3.52,
4.226,0.93,-6.94,8.81,2.89,-7.65,-3.55,
4.226,1.50,-5.94,7.82,2.89,-7.65,-3.55,
4.226,1.50,-5.94,7.82,2.83,-7.69,-3.58,
4.23,1.50,-5.94,7.82,2.77,-7.73,-3.60,
4.23,1.50,-5.94,7.82,2.71,-7.77,-3.63,
4.234,1.50,-5.94,7.82,2.65,-7.80,-3.65,
4.234,1.50,-5.94,7.82,2.59,-7.84,-3.68,
4.237,2.37,-5.04,7.49,2.59,-7.84,-3.68,
4.238,2.37,-5.04,7.49,2.53,-7.88,-3.71,
4.241,2.37,-5.04,7.49,2.47,-7.91,-3.73,
4.241,2.37,-5.04,7.49,2.41,-7.93,-3.75,
4.244,2.37,-5.04,7.49,2.35,-7.96,-3.78,
4.245,2.37,-5.04,7.49,2.31,-7.97,-3.80,
4.249,3.21,-4.64,6.87,2.31,-7.97,-3.80,
4.249,3.21,-4.64,6.87,2.53,-7.67,-3.78,
4.249,3.21,-4.64,6.87,11.89,8.41,-2.74,
4.252,3.21,-4.64,6.87,33.21,34.87,1.01,
4.253,3.21,-4.64,6.87,34.87,34.87,5.41,
4.256,3.21,-4.64,6.87,16.94,7.12,3.24,
4.257,31.77,-46.53,-4.80,16.94,7.12,3.24,
4.257,31.77,-46.53,-4.80,-10.10,-25.82,-2.47,
4.258,31.77,-46.53,-4.80,-15.24,-9.43,-2.81,
4.26,31.77,-46.53,-4.80,-9.09,12.74,-0.60,
4.262,31.77,-46.53,-4.80,-12.12,-1.14,2.02,
4.264,31.77,-46.53,-4.80,-11.96,-20.42,4.48,
4.267,5.40,-37.93,37.94,-11.96,-20.42,4.48,
4.267,5.40,-37.93,37.94,-3.96,-11.27,5.37,
4.268,5.40,-37.93,37.94,1.36,0.07,5.00,
4.271,5.40,-37.93,37.94,1.72,5.13,4.17,
4.272,5.40,-37.93,37.94,0.36,6.67,3.42,
4.274,5.40,-37.93,37.94,-1.19,7.23,3.33,
4.277,-2.90,-0.10,30.74,-1.19,7.23,3.33,
4.277,-2.90,-0.10,30.74,-1.65,6.35,3.84,
4.278,-2.90,-0.10,30.74,-0.90,4.08,4.74,
4.28,-2.90,-0.10,30.74,0.33,1.24,5.74,
4.282,-2.90,-0.10,30.74,1.22,-0.76,6.29,
4.285,-2.90,-0.10,30.74,1.80,-1.59,6.50,
4.287,-4.50,2.79,40.08,1.80,-1.59,6.50,
4.315,-4.50,2.79,40.08,2.38,-1.79,6.65,
4.315,-4.50,2.79,40.08,2.75,-1.55,6.83,
4.316,-4.50,2.79,40.08,3.02,-1.31,7.01,
4.316,-4.50,2.79,40.08,3.13,-0.82,7.22,
4.316,-4.50,2.79,40.08,3.38,-0.46,7.41,
4.316,5.44,-6.03,24.78,3.38,-0.46,7.41,
4.317,5.44,-6.03,24.78,3.56,0.22,7.58,
4.317,5.44,-6.03,24.78,3.95,0.68,7.77,
4.317,5.44,-6.03,24.78,4.37,1.07,8.00,
4.317,5.44,-6.03,24.78,4.65,-0.08,8.25,
4.317,5.44,-6.03,24.78,2.56,-3.68,8.08,
4.318,20.82,-7.53,-19.22,2.56,-3.68,8.08,
4.318,20.82,-7.53,-19.22,-0.43,-5.21,7.45,
4.318,20.82,-7.53,-19.22,-1.25,-2.44,7.02,
4.318,20.82,-7.53,-19.22,-0.35,0.70,6.86,
4.318,20.82,-7.53,-19.22,-0.00,1.57,6.87,
4.319,20.82,-7.53,-19.22,-0.27,0.79,7.13,
4.319,15.86,-6.11,-17.18,-0.27,0.79,7.13,
4.319,15.86,-6.11,-17.18,-0.47,-0.04,7.52,
4.319,15.86,-6.11,-17.18,-0.53,-0.28,8.00,
4.321,15.86,-6.11,-17.18,-0.33,-0.42,8.57,
4.322,15.86,-6.11,-17.18,-0.24,-0.41,9.16,
4.324,15.86,-6.11,-17.18,-0.06,-0.46,9.76,
4.327,4.78,-10.80,8.79,-0.06,-0.46,9.76,
4.327,4.78,-10.80,8.79,0.06,-0.28,10.37,
4.328,4.78,-10.80,8.79,0.22,-0.20,10.88,
4.33,4.78,-10.80,8.79,0.04,-0.10,11.25,
4.332,4.78,-10.80,8.79,-0.07,-0.23,11.53,
4.335,4.78,-10.80,8.79,-0.17,-0.15,11.74,
4.336,8.22,-15.68,-4.16,-0.17,-0.15,11.74,
4.337,8.22,-15.68,-4.16,-0.11,-0.15,11.91,
4.339,8.22,-15.68,-4.16,-0.18,0.06,12.01,
4.342,8.22,-15.68,-4.16,-0.30,0.10,12.04,
4.342,8.22,-15.68,-4.16,-0.46,-0.14,12.03,
4.346,8.22,-15.68,-4.16,-0.65,-0.61,12.04,
4.346,7.68,-23.95,-5.46,-0.65,-0.61,12.04,
4.347,7.68,-23.95,-5.46,-0.63,-0.73,12.01,
4.35,7.68,-23.95,-5.46,-0.44,-0.19,11.65,
4.351,7.68,-23.95,-5.46,-0.13,0.30,10.67,
4.365,7.68,-23.95,-5.46,-0.01,0.36,9.38,
4.365,7.68,-23.95,-5.46,-0.06,-0.05,8.22,
4.366,12.78,-33.57,0.52,-0.06,-0.05,8.22,
4.366,12.78,-33.57,0.52,-0.10,-0.07,7.29,
4.366,12.78,-33.57,0.52,-0.08,0.14,6.43,
4.366,12.78,-33.57,0.52,-0.13,0.33,5.57,
4.367,12.78,-33.57,0.52,-0.11,0.26,4.72,
4.367,12.78,-33.57,0.52,-0.07,0.22,3.90,
4.413,9.54,-33.18,2.24,-0.07,0.22,3.90,
4.414,9.54,-33.18,2.24,0.07,0.09,3.10,
4.415,9.54,-33.18,2.24,0.13,0.04,2.30,
4.415,9.54,-33.18,2.24,0.15,-0.00,1.51,
4.415,9.54,-33.18,2.24,0.10,0.02,0.84,
4.415,9.54,-33.18,2.24,-0.05,0.07,0.55,
4.416,6.41,-25.06,-2.07,-0.05,0.07,0.55,
4.416,6.41,-25.06,-2.07,-0.12,0.14,0.49,
4.416,6.41,-25.06,-2.07,-0.08,0.17,0.42,
4.416,6.41,-25.06,-2.07,-0.11,-0.01,0.36,
4.417,6.41,-25.06,-2.07,-0.14,-0.07,0.32,
4.417,6.41,-25.06,-2.07,-0.08,-0.01,0.32,
4.417,2.17,-4.71,-0.57,-0.08,-0.01,0.32,
4.417,2.17,-4.71,-0.57,-0.09,0.12,0.34,
4.417,2.17,-4.71,-0.57,-0.14,0.03,0.39,
4.418,2.17,-4.71,-0.57,-0.20,0.01,0.44,
4.418,2.17,-4.71,-0.57,-0.19,0.02,0.50,
4.418,2.17,-4.71,-0.57,-0.19,0.11,0.52,
4.418,1.91,0.83,-0.16,-0.19,0.11,0.52,
4.418,1.91,0.83,-0.16,-0.20,0.09,0.52,
4.419,1.91,0.83,-0.16,-0.22,0.09,0.51,
4.419,1.91,0.83,-0.16,-0.21,0.05,0.51,
4.419,1.91,0.83,-0.16,-0.18,0.04,0.51,
4.419,1.91,0.83,-0.16,-0.14,0.04,0.53,
4.419,0.88,-0.96,0.27,-0.14,0.04,0.53,
4.42,0.88,-0.96,0.27,-0.11,0.02,0.57,
4.42,0.88,-0.96,0.27,-0.08,0.05,0.64,
4.42,0.88,-0.96,0.27,-0.07,0.08,0.69,
4.42,0.88,-0.96,0.27,-0.12,0.15,0.69,
4.42,0.88,-0.96,0.27,-0.21,0.17,0.62,
4.421,2.66,-2.66,-3.80,-0.21,0.17,0.62,
4.421,2.66,-2.66,-3.80,-0.29,0.18,0.55,
4.421,2.66,-2.66,-3.80,-0.29,0.12,0.50,
4.421,2.66,-2.66,-3.80,-0.32,0.10,0.46,
4.427,2.66,-2.66,-3.80,-0.33,0.09,0.40,
4.43,2.66,-2.66,-3.80,-0.34,0.20,0.34,
4.43,3.04,-5.36,-1.06,-0.34,0.20,0.34,
4.432,3.04,-5.36,-1.06,-0.29,0.23,0.29,
4.432,3.04,-5.36,-1.06,-0.19,0.17,0.27,
4.433,3.04,-5.36,-1.06,-0.05,0.06,0.27,
4.434,3.04,-5.36,-1.06,0.09,-0.03,0.27,
4.435,3.04,-5.36,-1.06,0.23,-0.08,0.27,
4.441,1.40,-3.17,5.94,0.23,-0.08,0.27,
4.444,1.40,-3.17,5.94,0.33,-0.10,0.27,
4.445,1.40,-3.17,5.94,0.35,-0.12,0.26,
4.446,1.40,-3.17,5.94,0.33,-0.16,0.23,
4.446,1.40,-3.17,5.94,0.26,-0.16,0.17,
4.446,1.40,-3.17,5.94,0.24,-0.16,0.14,
4.447,3.95,-3.29,-0.61,0.24,-0.16,0.14,
4.448,3.95,-3.29,-0.61,0.20,-0.14,0.06,
4.45,3.95,-3.29,-0.61,0.19,-0.17,-0.02,
4.451,3.95,-3.29,-0.61,0.19,-0.17,-0.05,
4.454,3.95,-3.29,-0.61,0.22,-0.19,-0.04,
4.492,3.95,-3.29,-0.61,0.24,-0.14,-0.03,
4.493,0.03,-4.43,-0.33,0.24,-0.14,-0.03,
4.494,0.03,-4.43,-0.33,0.22,-0.12,-0.01,
4.494,0.03,-4.43,-0.33,0.19,-0.10,-0.00,
4.495,0.03,-4.43,-0.33,0.17,-0.10,0.00,
4.495,0.03,-4.43,-0.33,0.16,-0.11,0.00,
4.496,0.03,-4.43,-0.33,0.14,-0.13,0.00,
4.496,-0.41,-5.20,-0.77,0.14,-0.13,0.00,
4.496,-0.41,-5.20,-0.77,0.14,-0.13,0.00,
4.497,-0.41,-5.20,-0.77,0.14,-0.11,0.01,
4.497,-0.41,-5.20,-0.77,0.15,-0.11,0.00,
4.498,-0.41,-5.20,-0.77,0.15,-0.10,0.00,
4.498,-0.41,-5.20,-0.77,0.16,-0.10,0.00,
4.498,0.67,-3.60,-0.02,0.16,-0.10,0.00,
4.499,0.67,-3.60,-0.02,0.15,-0.10,-0.01,
4.499,0.67,-3.60,-0.02,0.14,-0.11,-0.01,
4.5,0.67,-3.60,-0.02,0.13,-0.09,-0.02,
4.5,0.67,-3.60,-0.02,0.12,-0.09,-0.03,
4.501,0.67,-3.60,-0.02,0.11,-0.08,-0.03,
4.501,0.59,-2.69,0.13,0.11,-0.08,-0.03,
4.502,0.59,-2.69,0.13,0.12,-0.10,-0.03,
4.502,0.59,-2.69,0.13,0.12,-0.09,-0.03,
4.502,0.59,-2.69,0.13,0.12,-0.08,-0.03,
4.503,0.59,-2.69,0.13,0.11,-0.08,-0.04,
4.503,0.59,-2.69,0.13,0.11,-0.07,-0.04,
4.504,0.09,-2.40,0.02,0.11,-0.07,-0.04,
4.504,0.09,-2.40,0.02,0.10,-0.06,-0.03,
4.505,0.09,-2.40,0.02,0.09,-0.07,-0.03,
4.505,0.09,-2.40,0.02,0.09,-0.07,-0.03,
4.505,0.09,-2.40,0.02,0.08,-0.06,-0.03,
4.506,0.09,-2.40,0.02,0.08,-0.06,-0.02,
4.506,-0.36,-2.07,-0.20,0.08,-0.06,-0.02,
4.507,-0.36,-2.07,-0.20,0.08,-0.06,-0.02,
4.52,-0.36,-2.07,-0.20,0.08,-0.06,-0.03,
4.521,-0.36,-2.07,-0.20,0.07,-0.05,-0.04,
4.521,-0.36,-2.07,-0.20,0.07,-0.05,-0.05,
4.521,-0.36,-2.07,-0.20,0.07,-0.04,-0.06,
4.521,-0.85,-1.32,-0.50,0.07,-0.04,-0.06,
4.522,-0.85,-1.32,-0.50,0.06,-0.04,-0.08,
4.522,-0.85,-1.32,-0.50,0.05,-0.03,-0.11,
4.522,-0.85,-1.32,-0.50,0.05,-0.03,-0.13,
4.522,-0.85,-1.32,-0.50,0.06,-0.03,-0.14,
4.531,-0.85,-1.32,-0.50,0.05,-0.03,-0.16,
4.534,-0.88,-0.50,-0.19,0.05,-0.03,-0.16,
4.538,-0.88,-0.50,-0.19,0.05,-0.02,-0.17,
4.539,-0.88,-0.50,-0.19,0.05,-0.02,-0.18,
4.539,-0.88,-0.50,-0.19,0.05,-0.01,-0.18,
4.54,-0.88,-0.50,-0.19,0.05,-0.01,-0.18,
4.54,-0.88,-0.50,-0.19,0.04,-0.02,-0.18,
4.54,-0.74,-0.48,-0.05,0.04,-0.02,-0.18,
4.54,-0.74,-0.48,-0.05,0.04,-0.01,-0.18,
4.541,-0.74,-0.48,-0.05,0.04,-0.01,-0.19,
4.59,-0.74,-0.48,-0.05,0.04,-0.02,-0.17,
4.591,-0.74,-0.48,-0.05,0.05,-0.07,-0.14,
4.591,-0.74,-0.48,-0.05,0.04,-0.03,-0.11,
4.591,-1.07,-1.96,-0.07,0.04,-0.03,-0.11,
4.591,-1.07,-1.96,-0.07,0.01,0.03,-0.09,
4.592,-1.07,-1.96,-0.07,0.01,0.02,-0.06,
4.592,-1.07,-1.96,-0.07,0.03,-0.02,-0.04,
4.592,-1.07,-1.96,-0.07,0.03,-0.01,-0.01,
4.592,-1.07,-1.96,-0.07,0.03,-0.01,0.01,
4.592,-0.11,-3.51,0.06,0.03,-0.01,0.01,
4.593,-0.11,-3.51,0.06,0.02,0.00,0.03,
4.593,-0.11,-3.51,0.06,0.02,0.00,0.04,
4.593,-0.11,-3.51,0.06,0.02,0.00,0.05,
4.593,-0.11,-3.51,0.06,0.02,0.00,0.05,
4.594,-0.11,-3.51,0.06,0.02,0.00,0.05,
4.594,1.17,-4.30,-0.08,0.02,0.00,0.05,
4.594,1.17,-4.30,-0.08,0.02,0.00,0.04,
4.594,1.17,-4.30,-0.08,0.02,-0.00,0.03,
4.594,1.17,-4.30,-0.08,0.02,-0.01,0.02,
4.595,1.17,-4.30,-0.08,0.02,-0.02,0.01,
4.595,1.17,-4.30,-0.08,0.02,-0.03,0.00,
4.595,1.75,-4.05,0.19,0.02,-0.03,0.00,
4.595,1.75,-4.05,0.19,0.02,-0.04,0.00,
4.596,1.75,-4.05,0.19,0.01,-0.04,0.00,
4.596,1.75,-4.05,0.19,0.02,-0.03,0.01,
4.596,1.75,-4.05,0.19,0.02,-0.01,0.01,
4.596,1.75,-4.05,0.19,0.02,-0.02,0.00,
4.596,0.49,-2.29,-0.01,0.02,-0.02,0.00,
4.597,0.49,-2.29,-0.01,0.02,-0.02,0.00,
4.597,0.49,-2.29,-0.01,0.02,-0.01,0.01,
4.597,0.49,-2.29,-0.01,0.01,-0.02,0.00,
4.597,0.49,-2.29,-0.01,0.01,-0.01,0.00,
4.597,0.49,-2.29,-0.01,0.01,-0.00,0.00,
4.597,0.17,-1.79,0.09,0.01,-0.00,0.00,
4.598,0.17,-1.79,0.09,0.01,-0.01,0.00,
4.598,0.17,-1.79,0.09,0.01,-0.01,0.00,
4.6,0.17,-1.79,0.09,0.01,-0.01,-0.00,
4.603,0.17,-1.79,0.09,0.01,-0.01,-0.00,
4.604,0.17,-1.79,0.09,0.01,-0.01,-0.00,
4.607,0.27,-1.94,0.10,0.01,-0.01,-0.00,
4.608,0.27,-1.94,0.10,0.01,0.00,-0.01,
4.609,0.27,-1.94,0.10,0.00,0.02,-0.01,
4.61,0.27,-1.94,0.10,-0.01,0.02,-0.01,
4.612,0.27,-1.94,0.10,-0.01,0.02,-0.01,
4.615,0.27,-1.94,0.10,-0.01,0.03,-0.01,
4.629,0.12,-1.66,0.26,-0.01,0.03,-0.01,
4.631,0.12,-1.66,0.26,-0.00,0.03,-0.02,
4.631,0.12,-1.66,0.26,0.01,0.02,-0.02,
4.663,0.12,-1.66,0.26,0.01,0.01,-0.02,
4.663,0.12,-1.66,0.26,-0.00,0.00,-0.02,
4.664,0.12,-1.66,0.26,-0.01,0.02,-0.02,
4.664,-0.59,-2.31,0.02,-0.01,0.02,-0.02,
4.665,-0.59,-2.31,0.02,-0.01,0.03,-0.02,
4.665,-0.59,-2.31,0.02,-0.01,0.04,-0.02,
4.665,-0.59,-2.31,0.02,-0.01,0.06,-0.02,
4.666,-0.59,-2.31,0.02,-0.01,0.06,-0.02,
4.666,-0.59,-2.31,0.02,-0.02,0.05,-0.02,
4.667,-0.81,-2.39,0.14,-0.02,0.05,-0.02,
4.667,-0.81,-2.39,0.14,-0.03,0.04,-0.02,
4.668,-0.81,-2.39,0.14,-0.03,0.04,-0.02,
4.668,-0.81,-2.39,0.14,-0.01,0.04,-0.02,
4.669,-0.81,-2.39,0.14,-0.00,0.05,-0.01,
4.669,-0.81,-2.39,0.14,0.01,0.05,-0.01,
4.669,-0.74,-2.28,0.44,0.01,0.05,-0.01,
4.67,-0.74,-2.28,0.44,0.01,0.03,-0.01,
4.67,-0.74,-2.28,0.44,-0.00,0.02,-0.01,
4.671,-0.74,-2.28,0.44,-0.01,0.02,-0.01,
4.671,-0.74,-2.28,0.44,-0.02,0.00,-0.01,
4.672,-0.74,-2.28,0.44,-0.02,-0.01,-0.00,
4.672,0.05,-1.98,0.02,-0.02,-0.01,-0.00,
4.672,0.05,-1.98,0.02,-0.01,-0.01,-0.00,
4.673,0.05,-1.98,0.02,-0.01,-0.01,-0.00,
4.673,0.05,-1.98,0.02,-0.00,-0.02,-0.00,
4.674,0.05,-1.98,0.02,-0.00,-0.01,-0.00,
4.674,0.05,-1.98,0.02,0.00,-0.01,-0.00,
4.675,-0.03,-1.81,0.27,0.00,-0.01,-0.00,
4.675,-0.03,-1.81,0.27,0.00,-0.02,-0.00,
4.675,-0.03,-1.81,0.27,0.00,-0.02,-0.00,
4.676,-0.03,-1.81,0.27,0.00,-0.02,-0.00,
4.676,-0.03,-1.81,0.27,0.00,-0.02,-0.00,
4.676,-0.03,-1.81,0.27,0.01,-0.03,-0.00,
4.677,-0.03,-1.90,0.27,0.01,-0.03,-0.00,
4.677,-0.03,-1.90,0.27,0.01,-0.03,-0.00,
4.698,-0.03,-1.90,0.27,0.02,-0.03,0.00,
4.699,-0.03,-1.90,0.27,0.02,-0.03,-0.00,
4.699,-0.03,-1.90,0.27,0.02,-0.02,-0.00,
4.699,-0.03,-1.90,0.27,0.02,-0.02,-0.00,
4.7,-0.04,-1.81,0.21,0.02,-0.02,-0.00,
4.7,-0.04,-1.81,0.21,0.02,-0.03,0.00,
4.7,-0.04,-1.81,0.21,0.02,-0.03,0.00,
4.7,-0.04,-1.81,0.21,0.02,-0.03,-0.00,
4.701,-0.04,-1.81,0.21,0.03,-0.02,-0.00,
4.701,-0.04,-1.81,0.21,0.03,-0.02,-0.00,
4.701,-0.06,-1.75,0.13,0.03,-0.02,-0.00,
4.701,-0.06,-1.75,0.13,0.02,-0.02,-0.00,
4.702,-0.06,-1.75,0.13,0.03,-0.01,-0.00,
4.702,-0.06,-1.75,0.13,0.03,-0.01,-0.00,
4.702,-0.06,-1.75,0.13,0.03,-0.00,-0.00,
4.709,-0.06,-1.75,0.13,0.03,0.01,-0.01,
4.709,-0.07,-1.73,0.16,0.03,0.01,-0.01,
4.709,-0.07,-1.73,0.16,0.02,0.01,-0.01,
4.71,-0.07,-1.73,0.16,0.02,0.01,-0.01,
4.713,-0.07,-1.73,0.16,0.02,0.02,-0.01,
4.713,-0.07,-1.73,0.16,0.03,0.02,-0.01,
4.717,-0.07,-1.73,0.16,0.03,0.02,-0.01,
4.717,0.03,-1.54,0.47,0.03,0.02,-0.01,
4.717,0.03,-1.54,0.47,0.03,0.03,-0.01,
4.721,0.03,-1.54,0.47,0.02,0.02,-0.02,
4.722,0.03,-1.54,0.47,0.02,0.02,-0.03,
4.725,0.03,-1.54,0.47,0.02,0.02,-0.04,
4.725,0.03,-1.54,0.47,0.02,0.03,-0.06,
4.729,0.44,-1.79,0.21,0.02,0.03,-0.06,
4.729,0.44,-1.79,0.21,0.02,0.03,-0.08,
4.729,0.44,-1.79,0.21,0.02,0.02,-0.11,
4.732,0.44,-1.79,0.21,0.03,0.02,-0.14,
4.733,0.44,-1.79,0.21,0.02,0.02,-0.18,
4.737,0.44,-1.79,0.21,0.02,0.01,-0.21,
4.737,0.96,-2.23,0.24,0.02,0.01,-0.21,
4.738,0.96,-2.23,0.24,0.02,0.02,-0.24,
4.739,0.96,-2.23,0.24,0.03,0.01,-0.27,
4.74,0.96,-2.23,0.24,0.03,0.02,-0.31,
4.743,0.96,-2.23,0.24,0.02,0.02,-0.34,
4.744,0.96,-2.23,0.24,0.02,0.01,-0.37,
4.746,1.19,-2.21,0.15,0.02,0.01,-0.37,
4.747,1.19,-2.21,0.15,0.01,0.01,-0.40,
4.748,1.19,-2.21,0.15,0.01,0.01,-0.42,
4.763,1.19,-2.21,0.15,0.01,0.01,-0.45,
4.765,1.19,-2.21,0.15,0.01,0.01,-0.46,
4.766,1.19,-2.21,0.15,0.01,0.02,-0.48,
4.766,0.99,-1.74,0.41,0.01,0.02,-0.48,
4.767,0.99,-1.74,0.41,0.02,0.02,-0.50,
4.767,0.99,-1.74,0.41,0.02,0.01,-0.51,
4.767,0.99,-1.74,0.41,0.01,0.01,-0.52,
4.768,0.99,-1.74,0.41,0.01,0.01,-0.52,
4.768,0.99,-1.74,0.41,0.01,0.01,-0.51,
4.768,0.34,-1.34,0.29,0.01,0.01,-0.51,
4.768,0.34,-1.34,0.29,0.01,0.02,-0.51,
4.768,0.34,-1.34,0.29,0.01,0.01,-0.50,
4.835,0.34,-1.34,0.29,0.00,0.01,-0.50,
4.835,0.34,-1.34,0.29,0.01,0.01,-0.48,
4.836,0.34,-1.34,0.29,0.00,0.01,-0.47,
4.836,-0.39,-0.90,0.36,0.00,0.01,-0.47,
4.836,-0.39,-0.90,0.36,0.01,0.01,-0.46,
4.836,-0.39,-0.90,0.36,0.01,0.01,-0.44,
4.836,-0.39,-0.90,0.36,0.01,0.01,-0.42,
4.837,-0.39,-0.90,0.36,0.01,0.00,-0.40,
4.837,-0.39,-0.90,0.36,0.00,-0.00,-0.38,
4.837,-0.96,-0.64,0.30,0.00,-0.00,-0.38,
4.864,-0.96,-0.64,0.30,0.00,-0.00,-0.35,
4.864,-0.96,-0.64,0.30,-0.01,-0.02,-0.31,
4.864,-0.96,-0.64,0.30,-0.02,-0.05,-0.25,
4.865,-0.96,-0.64,0.30,-0.02,-0.05,-0.19,
4.865,-0.96,-0.64,0.30,0.00,-0.01,-0.15,
4.865,-1.86,-0.52,0.42,0.00,-0.01,-0.15,
4.865,-1.86,-0.52,0.42,0.02,0.01,-0.11,
4.866,-1.86,-0.52,0.42,0.02,0.01,-0.08,
4.866,-1.86,-0.52,0.42,0.01,0.00,-0.06,
4.866,-1.86,-0.52,0.42,0.00,0.00,-0.03,
4.866,-1.86,-0.52,0.42,-0.00,0.00,-0.01,
4.867,-1.28,-1.26,0.13,-0.00,0.00,-0.01,
4.867,-1.28,-1.26,0.13,-0.00,0.01,-0.01,
4.867,-1.28,-1.26,0.13,0.00,0.01,-0.00,
4.868,-1.28,-1.26,0.13,0.00,0.00,-0.00,
4.868,-1.28,-1.26,0.13,0.01,0.00,-0.00,
4.868,-1.28,-1.26,0.13,0.01,0.00,-0.00,
4.868,-0.17,-1.29,0.35,0.01,0.00,-0.00,
4.869,-0.17,-1.29,0.35,0.01,-0.00,-0.00,
4.869,-0.17,-1.29,0.35,0.01,-0.00,-0.00,
4.869,-0.17,-1.29,0.35,0.01,0.00,-0.00,
4.87,-0.17,-1.29,0.35,0.01,-0.00,-0.00,
4.87,-0.17,-1.29,0.35,0.01,-0.00,-0.01,
4.87,-0.01,-1.30,0.26,0.01,-0.00,-0.01,
4.87,-0.01,-1.30,0.26,0.01,-0.00,-0.00,
4.871,-0.01,-1.30,0.26,0.00,0.00,-0.01,
4.871,-0.01,-1.30,0.26,0.01,-0.00,-0.01,
4.871,-0.01,-1.30,0.26,0.01,-0.00,-0.01,
4.871,-0.01,-1.30,0.26,0.01,-0.00,-0.01,
4.872,0.03,-1.23,0.33,0.01,-0.00,-0.01,
4.872,0.03,-1.23,0.33,0.01,-0.00,-0.01,
4.872,0.03,-1.23,0.33,0.01,0.00,-0.01,
4.872,0.03,-1.23,0.33,0.01,-0.00,-0.01,
4.873,0.03,-1.23,0.33,0.01,-0.00,-0.00,
4.873,0.03,-1.23,0.33,0.01,-0.00,0.00,
4.873,-0.02,-1.33,0.29,0.01,-0.00,0.00,
4.874,-0.02,-1.33,0.29,0.01,-0.00,0.00,
4.874,-0.02,-1.33,0.29,0.01,-0.00,0.00,
4.874,-0.02,-1.33,0.29,0.01,-0.01,0.00,
4.874,-0.02,-1.33,0.29,0.01,-0.02,0.00,
4.875,-0.02,-1.33,0.29,0.01,-0.04,0.00,
4.875,0.10,-1.24,0.21,0.01,-0.04,0.00,
4.875,0.10,-1.24,0.21,0.01,-0.03,0.00,
4.875,0.10,-1.24,0.21,0.00,-0.01,0.00,
4.876,0.10,-1.24,0.21,0.00,0.00,0.00,
4.876,0.10,-1.24,0.21,0.01,0.01,0.00,
4.876,0.10,-1.24,0.21,0.01,0.00,0.00,
4.876,0.03,-1.17,0.37,0.01,0.00,0.00,
4.877,0.03,-1.17,0.37,0.01,-0.00,0.00,
4.877,0.03,-1.17,0.37,0.01,-0.00,0.00,
4.877,0.03,-1.17,0.37,0.01,-0.00,0.00,
4.878,0.03,-1.17,0.37,0.01,-0.00,0.00,
4.878,0.03,-1.17,0.37,0.01,-0.00,0.00,
4.878,0.03,-1.16,0.43,0.01,-0.00,0.00,
4.878,0.03,-1.16,0.43,0.01,-0.00,0.00,
4.879,0.03,-1.16,0.43,0.01,-0.01,-0.00,
4.881,0.03,-1.16,0.43,0.01,0.00,-0.00,
4.882,0.03,-1.16,0.43,0.01,0.01,0.00,
4.884,0.03,-1.16,0.43,0.02,0.02,0.00,
4.887,-0.02,-1.27,0.31,0.02,0.02,0.00,
4.887,-0.02,-1.27,0.31,0.02,0.01,0.00,
4.889,-0.02,-1.27,0.31,0.01,0.01,0.00,
4.89,-0.02,-1.27,0.31,0.01,0.00,0.00,
4.895,-0.02,-1.27,0.31,0.01,0.01,0.00,
4.895,-0.02,-1.27,0.31,0.02,0.01,0.00,
4.897,-0.02,-1.21,0.36,0.02,0.01,0.00,
4.898,-0.02,-1.21,0.36,0.02,0.01,0.00,
4.899,-0.02,-1.21,0.36,0.02,0.00,-0.00,
4.905,-0.02,-1.21,0.36,0.02,0.01,-0.00,
4.906,-0.02,-1.21,0.36,0.02,0.01,-0.00,
4.906,-0.02,-1.21,0.36,0.02,0.01,-0.00,
4.909,0.00,-0.98,0.29,0.02,0.01,-0.00,
4.91,0.00,-0.98,0.29,0.02,0.01,-0.00,
4.91,0.00,-0.98,0.29,0.02,0.00,-0.00,
4.912,0.00,-0.98,0.29,0.02,0.00,-0.00,
4.913,0.00,-0.98,0.29,0.02,0.01,-0.00,
