
time,ax,ay,az,wx,wy,wz,
0.006,0.82,-0.22,1.23,-0.06,0.17,-0.13,
0.007,0.82,-0.22,1.23,-0.06,0.15,-0.11,
0.007,0.82,-0.22,1.23,-0.05,0.10,-0.09,
0.008,-0.21,-0.53,0.79,-0.05,0.10,-0.09,
0.008,-0.21,-0.53,0.79,-0.04,0.05,-0.06,
0.009,-0.21,-0.53,0.79,-0.03,-0.00,-0.03,
0.009,-0.21,-0.53,0.79,-0.01,-0.10,0.02,
0.009,-0.21,-0.53,0.79,-0.01,-0.13,0.04,
0.01,-0.21,-0.53,0.79,0.00,-0.20,0.07,
0.01,-0.75,-0.58,0.33,0.00,-0.20,0.07,
0.011,-0.75,-0.58,0.33,0.01,-0.26,0.10,
0.012,-0.75,-0.58,0.33,0.01,-0.31,0.13,
0.012,-0.75,-0.58,0.33,0.01,-0.38,0.17,
0.012,-0.75,-0.58,0.33,0.01,-0.40,0.19,
0.013,-0.75,-0.58,0.33,0.01,-0.44,0.21,
0.017,-0.86,-0.23,-0.14,0.01,-0.44,0.21,
0.018,-0.86,-0.23,-0.14,0.01,-0.46,0.23,
0.018,-0.86,-0.23,-0.14,0.01,-0.47,0.24,
0.019,-0.86,-0.23,-0.14,0.01,-0.48,0.25,
0.02,-0.86,-0.23,-0.14,0.01,-0.47,0.25,
0.022,-0.86,-0.23,-0.14,0.01,-0.46,0.25,
0.024,-0.35,-0.10,-0.06,0.01,-0.46,0.25,
0.024,-0.35,-0.10,-0.06,0.02,-0.45,0.25,
0.026,-0.35,-0.10,-0.06,0.02,-0.43,0.24,
0.029,-0.35,-0.10,-0.06,0.03,-0.40,0.23,
0.03,-0.35,-0.10,-0.06,0.04,-0.39,0.22,
0.032,-0.35,-0.10,-0.06,0.04,-0.36,0.21,
0.034,0.19,-0.31,0.08,0.04,-0.36,0.21,
0.035,0.19,-0.31,0.08,0.04,-0.32,0.20,
0.046,0.19,-0.31,0.08,0.05,-0.29,0.19,
0.046,0.19,-0.31,0.08,0.04,-0.27,0.17,
0.047,0.19,-0.31,0.08,0.04,-0.26,0.16,
0.047,0.19,-0.31,0.08,0.02,-0.24,0.15,
0.047,0.51,-0.45,-0.38,0.02,-0.24,0.15,
0.048,0.51,-0.45,-0.38,0.01,-0.23,0.13,
0.049,0.51,-0.45,-0.38,-0.01,-0.20,0.11,
0.05,0.51,-0.45,-0.38,-0.04,-0.17,0.08,
0.063,0.51,-0.45,-0.38,-0.06,-0.15,0.05,
0.064,0.51,-0.45,-0.38,-0.08,-0.14,0.04,
0.064,0.68,-0.11,-1.10,-0.08,-0.14,0.04,
0.065,0.68,-0.11,-1.10,-0.11,-0.12,0.02,
0.065,0.68,-0.11,-1.10,-0.14,-0.10,-0.00,
0.065,0.68,-0.11,-1.10,-0.20,-0.08,-0.04,
0.065,0.68,-0.11,-1.10,-0.22,-0.08,-0.05,
0.066,0.68,-0.11,-1.10,-0.26,-0.06,-0.07,
0.066,0.63,-0.04,-1.61,-0.26,-0.06,-0.07,
0.066,0.63,-0.04,-1.61,-0.30,-0.05,-0.09,
0.067,0.63,-0.04,-1.61,-0.33,-0.03,-0.10,
0.077,0.63,-0.04,-1.61,-0.38,-0.01,-0.13,
0.077,0.63,-0.04,-1.61,-0.39,-0.01,-0.13,
0.089,0.63,-0.04,-1.61,-0.41,0.01,-0.14,
0.089,0.24,-0.18,-1.22,-0.41,0.01,-0.14,
0.09,0.24,-0.18,-1.22,-0.43,0.02,-0.14,
0.09,0.24,-0.18,-1.22,-0.44,0.04,-0.14,
0.091,0.24,-0.18,-1.22,-0.45,0.07,-0.14,
0.091,0.24,-0.18,-1.22,-0.45,0.08,-0.14,
0.092,0.24,-0.18,-1.22,-0.45,0.10,-0.14,
0.092,-0.42,-0.21,-0.34,-0.45,0.10,-0.14,
0.093,-0.42,-0.21,-0.34,-0.46,0.12,-0.13,
0.094,-0.42,-0.21,-0.34,-0.46,0.13,-0.12,
0.094,-0.42,-0.21,-0.34,-0.46,0.16,-0.11,
0.095,-0.42,-0.21,-0.34,-0.46,0.16,-0.11,
0.095,-0.42,-0.21,-0.34,-0.45,0.17,-0.10,
0.096,-0.61,-0.19,0.10,-0.45,0.17,-0.10,
0.096,-0.61,-0.19,0.10,-0.45,0.19,-0.09,
0.097,-0.61,-0.19,0.10,-0.44,0.20,-0.08,
0.1,-0.61,-0.19,0.10,-0.42,0.21,-0.07,
0.102,-0.61,-0.19,0.10,-0.41,0.21,-0.07,
0.103,-0.61,-0.19,0.10,-0.39,0.21,-0.06,
0.114,-0.56,-0.28,0.60,-0.39,0.21,-0.06,
0.115,-0.56,-0.28,0.60,-0.37,0.21,-0.05,
0.116,-0.56,-0.28,0.60,-0.35,0.20,-0.05,
0.116,-0.56,-0.28,0.60,-0.32,0.19,-0.04,
0.117,-0.56,-0.28,0.60,-0.31,0.19,-0.03,
0.117,-0.56,-0.28,0.60,-0.30,0.17,-0.02,
0.118,-0.51,-0.34,0.70,-0.30,0.17,-0.02,
0.119,-0.51,-0.34,0.70,-0.28,0.16,-0.02,
0.119,-0.51,-0.34,0.70,-0.27,0.15,-0.01,
0.121,-0.51,-0.34,0.70,-0.25,0.13,-0.00,
0.121,-0.51,-0.34,0.70,-0.25,0.12,0.00,
0.122,-0.51,-0.34,0.70,-0.24,0.10,0.01,
0.125,-0.46,-0.29,0.38,-0.24,0.10,0.01,
0.125,-0.46,-0.29,0.38,-0.24,0.09,0.01,
0.126,-0.46,-0.29,0.38,-0.23,0.07,0.02,
0.129,-0.46,-0.29,0.38,-0.22,0.04,0.03,
0.129,-0.46,-0.29,0.38,-0.22,0.03,0.03,
0.132,-0.46,-0.29,0.38,-0.22,0.01,0.03,
0.133,-0.34,-0.17,0.14,-0.22,0.01,0.03,
0.134,-0.34,-0.17,0.14,-0.22,-0.01,0.04,
0.136,-0.34,-0.17,0.14,-0.21,-0.03,0.04,
0.139,-0.34,-0.17,0.14,-0.21,-0.05,0.03,
0.14,-0.34,-0.17,0.14,-0.21,-0.06,0.03,
0.142,-0.34,-0.17,0.14,-0.20,-0.08,0.03,
0.144,-0.11,-0.09,0.09,-0.20,-0.08,0.03,
0.144,-0.11,-0.09,0.09,-0.20,-0.09,0.03,
0.146,-0.11,-0.09,0.09,-0.20,-0.11,0.02,
0.149,-0.11,-0.09,0.09,-0.19,-0.13,0.01,
0.149,-0.11,-0.09,0.09,-0.19,-0.13,0.01,
0.167,-0.11,-0.09,0.09,-0.19,-0.14,-0.00,
0.167,0.08,-0.07,0.13,-0.19,-0.14,-0.00,
0.167,0.08,-0.07,0.13,-0.19,-0.15,-0.01,
0.167,0.08,-0.07,0.13,-0.19,-0.16,-0.02,
0.168,0.08,-0.07,0.13,-0.18,-0.16,-0.04,
0.168,0.08,-0.07,0.13,-0.18,-0.17,-0.04,
0.168,0.08,-0.07,0.13,-0.18,-0.17,-0.05,
0.168,0.13,-0.05,0.27,-0.18,-0.17,-0.05,
0.168,0.13,-0.05,0.27,-0.17,-0.17,-0.06,
0.169,0.13,-0.05,0.27,-0.17,-0.17,-0.07,
0.169,0.13,-0.05,0.27,-0.17,-0.17,-0.07,
0.17,0.13,-0.05,0.27,-0.17,-0.17,-0.08,
0.172,0.13,-0.05,0.27,-0.17,-0.17,-0.08,
0.174,0.04,-0.13,0.36,-0.17,-0.17,-0.08,
0.174,0.04,-0.13,0.36,-0.16,-0.17,-0.09,
0.176,0.04,-0.13,0.36,-0.16,-0.16,-0.09,
0.18,0.04,-0.13,0.36,-0.16,-0.15,-0.09,
0.181,0.04,-0.13,0.36,-0.16,-0.15,-0.09,
0.182,0.04,-0.13,0.36,-0.16,-0.14,-0.09,
0.186,-0.06,-0.26,0.33,-0.16,-0.14,-0.09,
0.187,-0.06,-0.26,0.33,-0.16,-0.13,-0.08,
0.187,-0.06,-0.26,0.33,-0.17,-0.11,-0.08,
0.19,-0.06,-0.26,0.33,-0.17,-0.09,-0.07,
0.19,-0.06,-0.26,0.33,-0.17,-0.09,-0.07,
0.192,-0.06,-0.26,0.33,-0.17,-0.07,-0.06,
0.194,-0.25,-0.36,0.31,-0.17,-0.07,-0.06,
0.194,-0.25,-0.36,0.31,-0.18,-0.06,-0.06,
0.196,-0.25,-0.36,0.31,-0.18,-0.04,-0.05,
0.199,-0.25,-0.36,0.31,-0.19,-0.01,-0.04,
0.2,-0.25,-0.36,0.31,-0.19,0.00,-0.03,
0.202,-0.25,-0.36,0.31,-0.19,0.02,-0.02,
0.204,-0.35,-0.37,0.36,-0.19,0.02,-0.02,
0.205,-0.35,-0.37,0.36,-0.19,0.04,-0.01,
0.206,-0.35,-0.37,0.36,-0.20,0.07,-0.00,
0.208,-0.35,-0.37,0.36,-0.20,0.11,0.01,
0.21,-0.35,-0.37,0.36,-0.20,0.12,0.02,
0.212,-0.35,-0.37,0.36,-0.21,0.15,0.03,
0.214,-0.41,-0.39,0.38,-0.21,0.15,0.03,
0.215,-0.41,-0.39,0.38,-0.21,0.17,0.04,
0.216,-0.41,-0.39,0.38,-0.21,0.20,0.06,
0.221,-0.41,-0.39,0.38,-0.22,0.23,0.07,
0.222,-0.41,-0.39,0.38,-0.22,0.24,0.08,
0.222,-0.41,-0.39,0.38,-0.22,0.26,0.09,
0.223,-0.38,-0.40,0.28,-0.22,0.26,0.09,
0.224,-0.38,-0.40,0.28,-0.22,0.29,0.11,
0.226,-0.38,-0.40,0.28,-0.22,0.31,0.12,
0.229,-0.38,-0.40,0.28,-0.23,0.34,0.14,
0.23,-0.38,-0.40,0.28,-0.23,0.35,0.14,
0.232,-0.38,-0.40,0.28,-0.23,0.37,0.16,
0.235,-0.32,-0.39,0.13,-0.23,0.37,0.16,
0.235,-0.32,-0.39,0.13,-0.24,0.39,0.17,
0.237,-0.32,-0.39,0.13,-0.24,0.40,0.17,
0.27,-0.32,-0.39,0.13,-0.25,0.42,0.19,
0.27,-0.32,-0.39,0.13,-0.25,0.42,0.19,
0.271,-0.32,-0.39,0.13,-0.25,0.43,0.19,
0.271,-0.15,-0.21,0.04,-0.25,0.43,0.19,
0.272,-0.15,-0.21,0.04,-0.25,0.43,0.20,
0.272,-0.15,-0.21,0.04,-0.25,0.43,0.20,
0.272,-0.15,-0.21,0.04,-0.25,0.43,0.20,
0.273,-0.15,-0.21,0.04,-0.25,0.42,0.20,
0.273,-0.15,-0.21,0.04,-0.25,0.41,0.19,
0.274,0.02,-0.04,0.04,-0.25,0.41,0.19,
0.274,0.02,-0.04,0.04,-0.25,0.40,0.19,
0.275,0.02,-0.04,0.04,-0.24,0.39,0.19,
0.275,0.02,-0.04,0.04,-0.24,0.36,0.17,
0.275,0.02,-0.04,0.04,-0.23,0.35,0.17,
0.276,0.02,-0.04,0.04,-0.23,0.33,0.16,
0.276,0.19,0.05,0.09,-0.23,0.33,0.16,
0.277,0.19,0.05,0.09,-0.22,0.32,0.16,
0.277,0.19,0.05,0.09,-0.21,0.29,0.15,
0.278,0.19,0.05,0.09,-0.19,0.26,0.13,
0.278,0.19,0.05,0.09,-0.19,0.25,0.13,
0.278,0.19,0.05,0.09,-0.17,0.23,0.12,
0.279,0.30,0.06,0.26,-0.17,0.23,0.12,
0.279,0.30,0.06,0.26,-0.16,0.20,0.11,
0.28,0.30,0.06,0.26,-0.14,0.18,0.10,
0.28,0.30,0.06,0.26,-0.11,0.15,0.09,
0.28,0.30,0.06,0.26,-0.10,0.14,0.08,
0.283,0.30,0.06,0.26,-0.09,0.12,0.07,
0.284,0.32,0.03,0.39,-0.09,0.12,0.07,
0.284,0.32,0.03,0.39,-0.07,0.10,0.06,
0.287,0.32,0.03,0.39,-0.05,0.08,0.06,
0.289,0.32,0.03,0.39,-0.03,0.06,0.04,
0.29,0.32,0.03,0.39,-0.02,0.06,0.04,
0.292,0.32,0.03,0.39,-0.01,0.04,0.04,
0.294,0.33,-0.01,0.42,-0.01,0.04,0.04,
0.294,0.33,-0.01,0.42,0.01,0.03,0.03,
0.296,0.33,-0.01,0.42,0.02,0.02,0.02,
0.299,0.33,-0.01,0.42,0.04,0.01,0.01,
0.299,0.33,-0.01,0.42,0.05,0.01,0.01,
0.317,0.33,-0.01,0.42,0.06,-0.00,0.00,
0.317,0.34,-0.04,0.37,0.06,-0.00,0.00,
0.318,0.34,-0.04,0.37,0.08,-0.01,-0.00,
0.318,0.34,-0.04,0.37,0.09,-0.01,-0.01,
0.318,0.34,-0.04,0.37,0.10,-0.02,-0.01,
0.319,0.34,-0.04,0.37,0.10,-0.02,-0.02,
0.319,0.34,-0.04,0.37,0.11,-0.03,-0.02,
0.319,0.26,-0.04,0.18,0.11,-0.03,-0.02,
0.32,0.26,-0.04,0.18,0.12,-0.03,-0.02,
0.32,0.26,-0.04,0.18,0.12,-0.03,-0.02,
0.32,0.26,-0.04,0.18,0.12,-0.03,-0.02,
0.321,0.26,-0.04,0.18,0.12,-0.02,-0.02,
0.324,0.26,-0.04,0.18,0.12,-0.02,-0.02,
0.326,0.11,-0.06,-0.14,0.12,-0.02,-0.02,
0.327,0.11,-0.06,-0.14,0.12,-0.02,-0.02,
0.327,0.11,-0.06,-0.14,0.11,-0.01,-0.02,
0.332,0.11,-0.06,-0.14,0.10,-0.00,-0.01,
0.333,0.11,-0.06,-0.14,0.10,0.00,-0.00,
0.334,0.11,-0.06,-0.14,0.09,0.01,0.00,
0.335,-0.01,-0.08,-0.47,0.09,0.01,0.00,
0.336,-0.01,-0.08,-0.47,0.07,0.02,0.01,
0.337,-0.01,-0.08,-0.47,0.06,0.02,0.02,
0.347,-0.01,-0.08,-0.47,0.04,0.04,0.04,
0.349,-0.01,-0.08,-0.47,0.04,0.04,0.04,
0.35,-0.01,-0.08,-0.47,0.02,0.05,0.05,
0.351,-0.09,-0.18,-0.73,0.02,0.05,0.05,
0.352,-0.09,-0.18,-0.73,0.01,0.06,0.06,
0.357,-0.09,-0.18,-0.73,-0.01,0.06,0.07,
0.357,-0.09,-0.18,-0.73,-0.03,0.07,0.09,
0.358,-0.09,-0.18,-0.73,-0.04,0.07,0.09,
0.359,-0.09,-0.18,-0.73,-0.06,0.07,0.10,
0.36,-0.07,-0.18,-0.79,-0.06,0.07,0.10,
0.36,-0.07,-0.18,-0.79,-0.07,0.07,0.10,
0.361,-0.07,-0.18,-0.79,-0.09,0.07,0.11,
0.361,-0.07,-0.18,-0.79,-0.11,0.07,0.11,
0.362,-0.07,-0.18,-0.79,-0.11,0.07,0.12,
0.362,-0.07,-0.18,-0.79,-0.12,0.08,0.12,
0.366,-0.06,-0.14,-0.66,-0.12,0.08,0.12,
0.368,-0.06,-0.14,-0.66,-0.13,0.08,0.12,
0.369,-0.06,-0.14,-0.66,-0.14,0.08,0.13,
0.373,-0.06,-0.14,-0.66,-0.15,0.07,0.13,
0.374,-0.06,-0.14,-0.66,-0.15,0.07,0.13,
0.375,-0.06,-0.14,-0.66,-0.15,0.07,0.13,
0.375,0.01,-0.05,-0.29,-0.15,0.07,0.13,
0.376,0.01,-0.05,-0.29,-0.15,0.06,0.13,
0.377,0.01,-0.05,-0.29,-0.15,0.06,0.13,
0.38,0.01,-0.05,-0.29,-0.14,0.05,0.12,
0.382,0.01,-0.05,-0.29,-0.14,0.05,0.12,
0.383,0.01,-0.05,-0.29,-0.13,0.04,0.12,
0.384,0.21,-0.05,0.11,-0.13,0.04,0.12,
0.385,0.21,-0.05,0.11,-0.12,0.04,0.11,
0.392,0.21,-0.05,0.11,-0.11,0.04,0.11,
0.393,0.21,-0.05,0.11,-0.09,0.04,0.10,
0.393,0.21,-0.05,0.11,-0.09,0.04,0.09,
0.394,0.21,-0.05,0.11,-0.08,0.05,0.09,
0.397,0.41,-0.07,0.33,-0.08,0.05,0.09,
0.397,0.41,-0.07,0.33,-0.06,0.05,0.08,
0.397,0.41,-0.07,0.33,-0.05,0.05,0.07,
0.398,0.41,-0.07,0.33,-0.04,0.06,0.06,
0.402,0.41,-0.07,0.33,-0.03,0.06,0.05,
0.404,0.41,-0.07,0.33,-0.03,0.06,0.05,
0.404,0.51,-0.10,0.25,-0.03,0.06,0.05,
0.433,0.51,-0.10,0.25,-0.02,0.07,0.04,
0.433,0.51,-0.10,0.25,-0.01,0.07,0.04,
0.433,0.51,-0.10,0.25,-0.00,0.07,0.03,
0.434,0.51,-0.10,0.25,0.00,0.08,0.02,
0.434,0.51,-0.10,0.25,0.01,0.08,0.02,
0.435,0.44,-0.12,0.12,0.01,0.08,0.02,
0.435,0.44,-0.12,0.12,0.01,0.08,0.02,
0.436,0.44,-0.12,0.12,0.01,0.08,0.01,
0.436,0.44,-0.12,0.12,0.02,0.08,0.01,
0.436,0.44,-0.12,0.12,0.02,0.08,0.01,
0.437,0.44,-0.12,0.12,0.02,0.08,0.01,
0.437,0.36,-0.12,-0.07,0.02,0.08,0.01,
0.438,0.36,-0.12,-0.07,0.02,0.08,0.01,
0.438,0.36,-0.12,-0.07,0.01,0.08,0.00,
0.439,0.36,-0.12,-0.07,0.01,0.08,0.00,
0.439,0.36,-0.12,-0.07,0.01,0.08,0.00,
0.439,0.36,-0.12,-0.07,0.00,0.08,-0.00,
0.44,0.30,-0.14,-0.28,0.00,0.08,-0.00,
0.44,0.30,-0.14,-0.28,-0.00,0.07,-0.00,
0.441,0.30,-0.14,-0.28,-0.01,0.07,-0.01,
0.441,0.30,-0.14,-0.28,-0.02,0.07,-0.01,
0.442,0.30,-0.14,-0.28,-0.02,0.07,-0.01,
0.442,0.30,-0.14,-0.28,-0.03,0.07,-0.01,
0.445,0.25,-0.12,-0.42,-0.03,0.07,-0.01,
0.446,0.25,-0.12,-0.42,-0.04,0.07,-0.01,
0.446,0.25,-0.12,-0.42,-0.04,0.07,-0.01,
0.449,0.25,-0.12,-0.42,-0.05,0.07,-0.01,
0.458,0.25,-0.12,-0.42,-0.05,0.06,-0.01,
0.459,0.25,-0.12,-0.42,-0.05,0.06,-0.00,
0.459,0.17,-0.13,-0.42,-0.05,0.06,-0.00,
0.46,0.17,-0.13,-0.42,-0.06,0.06,-0.00,
0.46,0.17,-0.13,-0.42,-0.06,0.06,0.00,
0.46,0.17,-0.13,-0.42,-0.06,0.06,0.00,
0.461,0.17,-0.13,-0.42,-0.06,0.06,0.01,
0.462,0.17,-0.13,-0.42,-0.06,0.06,0.01,
0.478,0.09,-0.18,-0.34,-0.06,0.06,0.01,
0.479,0.09,-0.18,-0.34,-0.06,0.06,0.01,
0.48,0.09,-0.18,-0.34,-0.06,0.07,0.01,
0.481,0.09,-0.18,-0.34,-0.06,0.07,0.02,
0.486,0.09,-0.18,-0.34,-0.06,0.08,0.02,
0.487,0.09,-0.18,-0.34,-0.07,0.08,0.02,
0.487,0.03,-0.26,-0.30,-0.07,0.08,0.02,
0.488,0.03,-0.26,-0.30,-0.06,0.09,0.03,
0.488,0.03,-0.26,-0.30,-0.07,0.09,0.03,
0.488,0.03,-0.26,-0.30,-0.07,0.11,0.04,
0.489,0.03,-0.26,-0.30,-0.06,0.11,0.04,
0.489,0.03,-0.26,-0.30,-0.07,0.12,0.04,
0.489,-0.03,-0.26,-0.30,-0.07,0.12,0.04,
0.489,-0.03,-0.26,-0.30,-0.07,0.12,0.04,
0.49,-0.03,-0.26,-0.30,-0.07,0.13,0.04,
0.49,-0.03,-0.26,-0.30,-0.07,0.14,0.05,
0.49,-0.03,-0.26,-0.30,-0.07,0.14,0.05,
0.492,-0.03,-0.26,-0.30,-0.07,0.14,0.05,
0.494,-0.09,-0.22,-0.33,-0.07,0.14,0.05,
0.494,-0.09,-0.22,-0.33,-0.08,0.14,0.05,
0.496,-0.09,-0.22,-0.33,-0.08,0.14,0.05,
0.501,-0.09,-0.22,-0.33,-0.09,0.14,0.06,
0.502,-0.09,-0.22,-0.33,-0.09,0.14,0.06,
0.502,-0.09,-0.22,-0.33,-0.09,0.13,0.05,
0.504,-0.15,-0.21,-0.43,-0.09,0.13,0.05,
0.504,-0.15,-0.21,-0.43,-0.10,0.13,0.06,
0.506,-0.15,-0.21,-0.43,-0.11,0.12,0.06,
0.509,-0.15,-0.21,-0.43,-0.11,0.12,0.06,
0.51,-0.15,-0.21,-0.43,-0.11,0.12,0.06,
0.512,-0.15,-0.21,-0.43,-0.12,0.11,0.06,
0.514,-0.22,-0.19,-0.47,-0.12,0.11,0.06,
0.514,-0.22,-0.19,-0.47,-0.12,0.11,0.06,
0.517,-0.22,-0.19,-0.47,-0.13,0.11,0.06,
0.519,-0.22,-0.19,-0.47,-0.14,0.11,0.07,
0.52,-0.22,-0.19,-0.47,-0.14,0.11,0.07,
0.522,-0.22,-0.19,-0.47,-0.15,0.11,0.07,
0.524,-0.22,-0.17,-0.46,-0.15,0.11,0.07,
0.524,-0.22,-0.17,-0.46,-0.15,0.11,0.07,
0.526,-0.22,-0.17,-0.46,-0.16,0.11,0.08,
0.529,-0.22,-0.17,-0.46,-0.16,0.12,0.08,
0.53,-0.22,-0.17,-0.46,-0.17,0.12,0.08,
0.532,-0.22,-0.17,-0.46,-0.17,0.12,0.08,
0.535,-0.14,-0.18,-0.45,-0.17,0.12,0.08,
0.536,-0.14,-0.18,-0.45,-0.18,0.12,0.08,
0.537,-0.14,-0.18,-0.45,-0.19,0.12,0.08,
0.539,-0.14,-0.18,-0.45,-0.19,0.12,0.08,
0.54,-0.14,-0.18,-0.45,-0.19,0.12,0.08,
0.542,-0.14,-0.18,-0.45,-0.20,0.13,0.08,
0.544,-0.01,-0.17,-0.40,-0.20,0.13,0.08,
0.544,-0.01,-0.17,-0.40,-0.20,0.13,0.08,
0.546,-0.01,-0.17,-0.40,-0.21,0.13,0.08,
0.556,-0.01,-0.17,-0.40,-0.21,0.13,0.08,
0.556,-0.01,-0.17,-0.40,-0.21,0.13,0.07,
0.557,-0.01,-0.17,-0.40,-0.22,0.14,0.07,
0.557,0.09,-0.15,-0.32,-0.22,0.14,0.07,
0.557,0.09,-0.15,-0.32,-0.22,0.14,0.07,
0.558,0.09,-0.15,-0.32,-0.22,0.14,0.07,
0.559,0.09,-0.15,-0.32,-0.23,0.14,0.06,
0.56,0.09,-0.15,-0.32,-0.23,0.14,0.06,
0.563,0.09,-0.15,-0.32,-0.24,0.15,0.06,
0.565,0.12,-0.16,-0.37,-0.24,0.15,0.06,
0.566,0.12,-0.16,-0.37,-0.24,0.15,0.06,
0.567,0.12,-0.16,-0.37,-0.24,0.16,0.06,
0.57,0.12,-0.16,-0.37,-0.25,0.17,0.06,
0.575,0.04,-0.20,-0.44,-0.25,0.17,0.06,
0.602,0.04,-0.20,-0.44,-0.27,0.18,0.06,
0.603,0.04,-0.20,-0.44,-0.27,0.18,0.06,
0.603,0.04,-0.20,-0.44,-0.27,0.18,0.06,
0.604,0.04,-0.20,-0.44,-0.27,0.18,0.06,
0.604,0.04,-0.20,-0.44,-0.28,0.19,0.06,
0.605,0.04,-0.20,-0.44,-0.28,0.19,0.06,
0.605,0.04,-0.20,-0.44,-0.29,0.19,0.06,
0.605,-0.14,-0.22,-0.44,-0.29,0.19,0.06,
0.606,-0.14,-0.22,-0.44,-0.29,0.19,0.07,
0.606,-0.14,-0.22,-0.44,-0.30,0.19,0.07,
0.606,-0.14,-0.22,-0.44,-0.30,0.19,0.08,
0.606,-0.14,-0.22,-0.44,-0.30,0.19,0.08,
0.607,-0.14,-0.22,-0.44,-0.30,0.18,0.09,
0.607,-0.30,-0.20,-0.35,-0.30,0.18,0.09,
0.607,-0.30,-0.20,-0.35,-0.30,0.18,0.09,
0.608,-0.30,-0.20,-0.35,-0.30,0.17,0.10,
0.608,-0.30,-0.20,-0.35,-0.30,0.16,0.11,
0.608,-0.30,-0.20,-0.35,-0.30,0.15,0.11,
0.608,-0.30,-0.20,-0.35,-0.30,0.14,0.12,
0.609,-0.42,-0.17,-0.24,-0.30,0.14,0.12,
0.609,-0.42,-0.17,-0.24,-0.30,0.13,0.13,
0.609,-0.42,-0.17,-0.24,-0.30,0.12,0.13,
0.609,-0.42,-0.17,-0.24,-0.29,0.10,0.14,
0.61,-0.42,-0.17,-0.24,-0.29,0.10,0.15,
0.614,-0.42,-0.17,-0.24,-0.29,0.08,0.15,
0.615,-0.36,-0.14,-0.17,-0.29,0.08,0.15,
0.616,-0.36,-0.14,-0.17,-0.29,0.07,0.16,
0.616,-0.36,-0.14,-0.17,-0.29,0.06,0.16,
0.621,-0.36,-0.14,-0.17,-0.29,0.05,0.16,
0.621,-0.36,-0.14,-0.17,-0.28,0.05,0.16,
0.622,-0.36,-0.14,-0.17,-0.28,0.05,0.16,
0.626,-0.16,-0.07,-0.09,-0.28,0.05,0.16,
0.627,-0.16,-0.07,-0.09,-0.29,0.05,0.16,
0.627,-0.16,-0.07,-0.09,-0.28,0.05,0.15,
0.631,-0.16,-0.07,-0.09,-0.28,0.05,0.14,
0.631,-0.16,-0.07,-0.09,-0.28,0.05,0.14,
0.634,-0.16,-0.07,-0.09,-0.28,0.06,0.13,
0.635,0.18,0.00,0.10,-0.28,0.06,0.13,
0.635,0.18,0.00,0.10,-0.28,0.06,0.12,
0.636,0.18,0.00,0.10,-0.28,0.06,0.11,
0.639,0.18,0.00,0.10,-0.27,0.07,0.10,
0.64,0.18,0.00,0.10,-0.27,0.08,0.09,
0.642,0.18,0.00,0.10,-0.27,0.09,0.08,
0.648,0.41,0.04,0.31,-0.27,0.09,0.08,
0.648,0.41,0.04,0.31,-0.26,0.10,0.07,
0.649,0.41,0.04,0.31,-0.25,0.11,0.06,
0.651,0.41,0.04,0.31,-0.24,0.13,0.05,
0.651,0.41,0.04,0.31,-0.24,0.14,0.05,
0.653,0.41,0.04,0.31,-0.23,0.15,0.04,
0.654,0.40,0.00,0.46,-0.23,0.15,0.04,
0.654,0.40,0.00,0.46,-0.22,0.17,0.03,
0.659,0.40,0.00,0.46,-0.21,0.19,0.03,
0.66,0.40,0.00,0.46,-0.20,0.21,0.03,
0.66,0.40,0.00,0.46,-0.19,0.22,0.03,
0.661,0.40,0.00,0.46,-0.18,0.24,0.03,
0.664,0.14,-0.05,0.45,-0.18,0.24,0.03,
0.664,0.14,-0.05,0.45,-0.18,0.25,0.03,
0.669,0.14,-0.05,0.45,-0.17,0.27,0.03,
0.67,0.14,-0.05,0.45,-0.15,0.29,0.04,
0.671,0.14,-0.05,0.45,-0.15,0.29,0.04,
0.672,0.14,-0.05,0.45,-0.14,0.30,0.05,
0.674,-0.11,-0.09,0.28,-0.14,0.30,0.05,
0.675,-0.11,-0.09,0.28,-0.14,0.31,0.05,
0.676,-0.11,-0.09,0.28,-0.13,0.32,0.06,
0.679,-0.11,-0.09,0.28,-0.12,0.33,0.07,
0.68,-0.11,-0.09,0.28,-0.12,0.33,0.07,
0.684,-0.11,-0.09,0.28,-0.12,0.33,0.08,
0.685,-0.30,-0.10,0.03,-0.12,0.33,0.08,
0.685,-0.30,-0.10,0.03,-0.12,0.32,0.09,
0.686,-0.30,-0.10,0.03,-0.11,0.32,0.10,
0.689,-0.30,-0.10,0.03,-0.11,0.31,0.11,
0.69,-0.30,-0.10,0.03,-0.11,0.30,0.11,
0.692,-0.30,-0.10,0.03,-0.11,0.29,0.13,
0.694,-0.41,-0.11,-0.21,-0.11,0.29,0.13,
0.694,-0.41,-0.11,-0.21,-0.11,0.27,0.14,
0.696,-0.41,-0.11,-0.21,-0.11,0.25,0.15,
0.699,-0.41,-0.11,-0.21,-0.11,0.23,0.16,
0.701,-0.41,-0.11,-0.21,-0.11,0.22,0.17,
0.702,-0.41,-0.11,-0.21,-0.11,0.20,0.18,
0.704,-0.51,-0.04,-0.33,-0.11,0.20,0.18,
0.706,-0.51,-0.04,-0.33,-0.11,0.18,0.18,
0.708,-0.51,-0.04,-0.33,-0.10,0.16,0.19,
0.709,-0.51,-0.04,-0.33,-0.10,0.12,0.21,
0.71,-0.51,-0.04,-0.33,-0.10,0.11,0.21,
0.712,-0.51,-0.04,-0.33,-0.10,0.09,0.22,
0.714,-0.53,0.08,-0.37,-0.10,0.09,0.22,
0.714,-0.53,0.08,-0.37,-0.10,0.06,0.22,
0.716,-0.53,0.08,-0.37,-0.10,0.04,0.23,
0.719,-0.53,0.08,-0.37,-0.09,0.01,0.24,
0.72,-0.53,0.08,-0.37,-0.09,-0.01,0.24,
0.722,-0.53,0.08,-0.37,-0.09,-0.03,0.24,
0.724,-0.36,0.17,-0.30,-0.09,-0.03,0.24,
0.725,-0.36,0.17,-0.30,-0.09,-0.05,0.24,
0.726,-0.36,0.17,-0.30,-0.09,-0.07,0.24,
0.728,-0.36,0.17,-0.30,-0.08,-0.10,0.23,
0.73,-0.36,0.17,-0.30,-0.08,-0.11,0.23,
0.732,-0.36,0.17,-0.30,-0.07,-0.13,0.22,
0.735,-0.13,0.24,-0.15,-0.07,-0.13,0.22,
0.737,-0.13,0.24,-0.15,-0.07,-0.15,0.21,
0.737,-0.13,0.24,-0.15,-0.07,-0.16,0.20,
0.765,-0.13,0.24,-0.15,-0.06,-0.18,0.18,
0.766,-0.13,0.24,-0.15,-0.06,-0.19,0.18,
0.766,-0.13,0.24,-0.15,-0.06,-0.20,0.16,
0.767,0.20,0.26,0.05,-0.06,-0.20,0.16,
0.767,0.20,0.26,0.05,-0.05,-0.22,0.15,
0.768,0.20,0.26,0.05,-0.05,-0.22,0.13,
0.768,0.20,0.26,0.05,-0.04,-0.23,0.11,
0.769,0.20,0.26,0.05,-0.04,-0.23,0.09,
0.769,0.20,0.26,0.05,-0.04,-0.23,0.08,
0.769,0.43,0.19,0.07,-0.04,-0.23,0.08,
0.77,0.43,0.19,0.07,-0.05,-0.23,0.07,
0.77,0.43,0.19,0.07,-0.05,-0.22,0.06,
0.771,0.43,0.19,0.07,-0.05,-0.20,0.04,
0.771,0.43,0.19,0.07,-0.06,-0.20,0.03,
0.771,0.43,0.19,0.07,-0.06,-0.18,0.02,
0.772,0.40,0.04,-0.07,-0.06,-0.18,0.02,
0.772,0.40,0.04,-0.07,-0.07,-0.17,0.01,
0.773,0.40,0.04,-0.07,-0.08,-0.15,0.01,
0.773,0.40,0.04,-0.07,-0.09,-0.12,0.00,
0.774,0.40,0.04,-0.07,-0.10,-0.11,0.00,
0.774,0.40,0.04,-0.07,-0.11,-0.10,0.00,
0.775,0.12,-0.14,-0.29,-0.11,-0.10,0.00,
0.775,0.12,-0.14,-0.29,-0.12,-0.08,0.00,
0.778,0.12,-0.14,-0.29,-0.13,-0.06,0.01,
0.779,0.12,-0.14,-0.29,-0.15,-0.05,0.02,
0.78,0.12,-0.14,-0.29,-0.15,-0.04,0.02,
0.789,0.12,-0.14,-0.29,-0.16,-0.03,0.03,
0.79,-0.22,-0.27,-0.36,-0.16,-0.03,0.03,
0.79,-0.22,-0.27,-0.36,-0.17,-0.02,0.04,
0.79,-0.22,-0.27,-0.36,-0.18,-0.01,0.05,
0.791,-0.22,-0.27,-0.36,-0.19,0.00,0.07,
0.791,-0.22,-0.27,-0.36,-0.19,0.01,0.07,
0.792,-0.22,-0.27,-0.36,-0.19,0.02,0.09,
0.797,-0.47,-0.32,-0.31,-0.19,0.02,0.09,
0.816,-0.47,-0.32,-0.31,-0.19,0.03,0.10,
0.817,-0.47,-0.32,-0.31,-0.19,0.04,0.12,
0.818,-0.47,-0.32,-0.31,-0.20,0.05,0.14,
0.818,-0.47,-0.32,-0.31,-0.20,0.05,0.15,
0.818,-0.47,-0.32,-0.31,-0.19,0.06,0.16,
0.818,-0.60,-0.28,-0.24,-0.19,0.06,0.16,
0.818,-0.60,-0.28,-0.24,-0.19,0.06,0.17,
0.819,-0.60,-0.28,-0.24,-0.19,0.06,0.19,
0.819,-0.60,-0.28,-0.24,-0.19,0.07,0.20,
0.819,-0.60,-0.28,-0.24,-0.19,0.07,0.21,
0.819,-0.60,-0.28,-0.24,-0.18,0.07,0.22,
0.82,-0.48,-0.21,-0.14,-0.18,0.07,0.22,
0.82,-0.48,-0.21,-0.14,-0.19,0.07,0.22,
0.82,-0.48,-0.21,-0.14,-0.18,0.07,0.23,
0.82,-0.48,-0.21,-0.14,-0.18,0.06,0.23,
0.821,-0.48,-0.21,-0.14,-0.18,0.05,0.23,
0.824,-0.48,-0.21,-0.14,-0.17,0.04,0.23,
0.825,-0.26,-0.10,0.06,-0.17,0.04,0.23,
0.825,-0.26,-0.10,0.06,-0.17,0.03,0.23,
0.828,-0.26,-0.10,0.06,-0.16,0.02,0.22,
0.829,-0.26,-0.10,0.06,-0.14,0.00,0.21,
0.83,-0.26,-0.10,0.06,-0.14,-0.00,0.21,
0.834,-0.26,-0.10,0.06,-0.13,-0.01,0.20,
0.835,-0.02,0.01,0.25,-0.13,-0.01,0.20,
0.835,-0.02,0.01,0.25,-0.12,-0.02,0.19,
0.836,-0.02,0.01,0.25,-0.11,-0.03,0.18,
0.839,-0.02,0.01,0.25,-0.09,-0.05,0.16,
0.839,-0.02,0.01,0.25,-0.09,-0.06,0.16,
0.841,-0.02,0.01,0.25,-0.08,-0.08,0.14,
0.844,0.18,0.06,0.32,-0.08,-0.08,0.14,
0.844,0.18,0.06,0.32,-0.07,-0.10,0.13,
0.846,0.18,0.06,0.32,-0.06,-0.12,0.11,
0.849,0.18,0.06,0.32,-0.04,-0.16,0.09,
0.85,0.18,0.06,0.32,-0.04,-0.17,0.09,
0.852,0.18,0.06,0.32,-0.04,-0.20,0.07,
0.854,0.29,0.06,0.23,-0.04,-0.20,0.07,
0.854,0.29,0.06,0.23,-0.03,-0.22,0.06,
0.855,0.29,0.06,0.23,-0.02,-0.24,0.05,
0.858,0.29,0.06,0.23,-0.01,-0.28,0.03,
0.859,0.29,0.06,0.23,-0.01,-0.29,0.02,
0.861,0.29,0.06,0.23,0.00,-0.32,0.01,
0.864,0.27,-0.01,0.13,0.00,-0.32,0.01,
0.864,0.27,-0.01,0.13,0.01,-0.35,0.00,
0.867,0.27,-0.01,0.13,0.01,-0.37,-0.01,
0.871,0.27,-0.01,0.13,0.02,-0.40,-0.02,
0.872,0.27,-0.01,0.13,0.02,-0.41,-0.02,
0.873,0.27,-0.01,0.13,0.03,-0.42,-0.03,
0.874,0.15,-0.10,0.01,0.03,-0.42,-0.03,
0.874,0.15,-0.10,0.01,0.03,-0.43,-0.03,
0.876,0.15,-0.10,0.01,0.03,-0.44,-0.04,
0.878,0.15,-0.10,0.01,0.04,-0.45,-0.04,
0.879,0.15,-0.10,0.01,0.04,-0.45,-0.04,
0.882,0.15,-0.10,0.01,0.04,-0.46,-0.04,
0.888,0.07,-0.22,-0.05,0.04,-0.46,-0.04,
0.889,0.07,-0.22,-0.05,0.04,-0.46,-0.04,
0.889,0.07,-0.22,-0.05,0.04,-0.46,-0.04,
0.89,0.07,-0.22,-0.05,0.04,-0.46,-0.04,
0.89,0.07,-0.22,-0.05,0.05,-0.46,-0.04,
0.892,0.07,-0.22,-0.05,0.05,-0.46,-0.03,
0.894,0.04,-0.27,-0.00,0.05,-0.46,-0.03,
0.894,0.04,-0.27,-0.00,0.05,-0.45,-0.03,
0.896,0.04,-0.27,-0.00,0.05,-0.45,-0.03,
0.9,0.04,-0.27,-0.00,0.06,-0.43,-0.03,
0.903,0.04,-0.27,-0.00,0.06,-0.43,-0.03,
0.904,0.04,-0.27,-0.00,0.06,-0.42,-0.04,
0.905,0.10,-0.26,0.02,0.06,-0.42,-0.04,
0.932,0.10,-0.26,0.02,0.06,-0.41,-0.04,
0.933,0.10,-0.26,0.02,0.06,-0.40,-0.04,
0.933,0.10,-0.26,0.02,0.07,-0.39,-0.04,
0.934,0.10,-0.26,0.02,0.07,-0.39,-0.04,
0.934,0.10,-0.26,0.02,0.07,-0.38,-0.05,
0.935,0.08,-0.22,0.06,0.07,-0.38,-0.05,
0.935,0.08,-0.22,0.06,0.07,-0.38,-0.05,
0.935,0.08,-0.22,0.06,0.07,-0.38,-0.06,
0.936,0.08,-0.22,0.06,0.07,-0.37,-0.06,
0.936,0.08,-0.22,0.06,0.07,-0.37,-0.06,
0.937,0.08,-0.22,0.06,0.07,-0.36,-0.07,
0.937,0.11,-0.08,-0.05,0.07,-0.36,-0.07,
0.937,0.11,-0.08,-0.05,0.06,-0.36,-0.08,
0.938,0.11,-0.08,-0.05,0.06,-0.35,-0.09,
0.938,0.11,-0.08,-0.05,0.05,-0.33,-0.11,
0.938,0.11,-0.08,-0.05,0.05,-0.33,-0.11,
0.939,0.11,-0.08,-0.05,0.04,-0.32,-0.12,
0.939,0.31,-0.07,-0.31,0.04,-0.32,-0.12,
0.939,0.31,-0.07,-0.31,0.03,-0.31,-0.12,
0.939,0.31,-0.07,-0.31,0.02,-0.29,-0.13,
0.94,0.31,-0.07,-0.31,0.01,-0.28,-0.13,
0.94,0.31,-0.07,-0.31,0.00,-0.27,-0.13,
0.948,0.31,-0.07,-0.31,-0.01,-0.25,-0.14,
0.948,0.23,-0.09,-0.61,-0.01,-0.25,-0.14,
0.949,0.23,-0.09,-0.61,-0.02,-0.24,-0.14,
0.949,0.23,-0.09,-0.61,-0.04,-0.23,-0.14,
0.949,0.23,-0.09,-0.61,-0.07,-0.22,-0.14,
0.95,0.23,-0.09,-0.61,-0.08,-0.22,-0.14,
0.956,0.23,-0.09,-0.61,-0.10,-0.22,-0.15,
0.956,0.15,-0.12,-0.83,-0.10,-0.22,-0.15,
0.956,0.15,-0.12,-0.83,-0.12,-0.22,-0.15,
0.957,0.15,-0.12,-0.83,-0.14,-0.22,-0.15,
0.959,0.15,-0.12,-0.83,-0.16,-0.24,-0.15,
0.96,0.15,-0.12,-0.83,-0.17,-0.24,-0.15,
0.962,0.15,-0.12,-0.83,-0.19,-0.26,-0.16,
0.97,0.12,-0.04,-0.74,-0.19,-0.26,-0.16,
0.971,0.12,-0.04,-0.74,-0.21,-0.28,-0.16,
0.971,0.12,-0.04,-0.74,-0.22,-0.31,-0.17,
0.972,0.12,-0.04,-0.74,-0.25,-0.37,-0.18,
0.974,0.12,-0.04,-0.74,-0.25,-0.39,-0.18,
0.975,0.12,-0.04,-0.74,-0.26,-0.42,-0.19,
0.975,0.12,0.14,-0.48,-0.26,-0.42,-0.19,
0.975,0.12,0.14,-0.48,-0.27,-0.46,-0.20,
0.976,0.12,0.14,-0.48,-0.28,-0.50,-0.21,
0.979,0.12,0.14,-0.48,-0.30,-0.57,-0.23,
0.98,0.12,0.14,-0.48,-0.31,-0.60,-0.24,
0.982,0.12,0.14,-0.48,-0.34,-0.67,-0.24,
0.984,0.15,0.42,-0.51,-0.34,-0.67,-0.24,
0.985,0.15,0.42,-0.51,-0.38,-0.73,-0.25,
0.988,0.15,0.42,-0.51,-0.41,-0.78,-0.26,
0.989,0.15,0.42,-0.51,-0.45,-0.83,-0.28,
0.99,0.15,0.42,-0.51,-0.46,-0.85,-0.29,
0.992,0.15,0.42,-0.51,-0.49,-0.88,-0.31,
0.994,0.40,0.33,-0.67,-0.49,-0.88,-0.31,
0.994,0.40,0.33,-0.67,-0.51,-0.91,-0.32,
0.996,0.40,0.33,-0.67,-0.52,-0.94,-0.34,
0.999,0.40,0.33,-0.67,-0.55,-0.96,-0.37,
1.0,0.40,0.33,-0.67,-0.56,-0.97,-0.38,
1.003,0.40,0.33,-0.67,-0.58,-0.98,-0.40,
1.004,0.65,0.18,-0.36,-0.58,-0.98,-0.40,
1.004,0.65,0.18,-0.36,-0.59,-0.99,-0.42,
1.006,0.65,0.18,-0.36,-0.61,-1.00,-0.44,
1.009,0.65,0.18,-0.36,-0.63,-1.01,-0.46,
1.01,0.65,0.18,-0.36,-0.64,-1.01,-0.47,
1.012,0.65,0.18,-0.36,-0.66,-1.01,-0.48,
1.016,0.68,0.14,0.04,-0.66,-1.01,-0.48,
1.016,0.68,0.14,0.04,-0.67,-1.00,-0.49,
1.017,0.68,0.14,0.04,-0.68,-0.98,-0.50,
1.019,0.68,0.14,0.04,-0.69,-0.94,-0.50,
1.021,0.68,0.14,0.04,-0.69,-0.93,-0.50,
1.022,0.68,0.14,0.04,-0.70,-0.90,-0.50,
1.024,0.48,0.01,0.33,-0.70,-0.90,-0.50,
1.024,0.48,0.01,0.33,-0.71,-0.88,-0.50,
1.026,0.48,0.01,0.33,-0.71,-0.85,-0.48,
1.029,0.48,0.01,0.33,-0.73,-0.80,-0.47,
1.031,0.48,0.01,0.33,-0.73,-0.79,-0.46,
1.05,0.48,0.01,0.33,-0.74,-0.76,-0.45,
1.053,0.20,-0.18,0.54,-0.74,-0.76,-0.45,
1.054,0.20,-0.18,0.54,-0.76,-0.74,-0.43,
1.054,0.20,-0.18,0.54,-0.77,-0.71,-0.41,
1.055,0.20,-0.18,0.54,-0.80,-0.67,-0.39,
1.056,0.20,-0.18,0.54,-0.80,-0.66,-0.38,
1.057,0.20,-0.18,0.54,-0.82,-0.67,-0.35,
1.058,0.19,-0.25,0.74,-0.82,-0.67,-0.35,
1.059,0.19,-0.25,0.74,-0.85,-0.70,-0.32,
1.059,0.19,-0.25,0.74,-0.88,-0.71,-0.30,
1.059,0.19,-0.25,0.74,-0.93,-0.67,-0.26,
1.06,0.19,-0.25,0.74,-0.95,-0.65,-0.25,
1.06,0.19,-0.25,0.74,-0.98,-0.61,-0.24,
1.06,0.12,-0.75,-0.22,-0.98,-0.61,-0.24,
1.061,0.12,-0.75,-0.22,-1.02,-0.55,-0.22,
1.061,0.12,-0.75,-0.22,-1.06,-0.50,-0.20,
1.061,0.12,-0.75,-0.22,-1.10,-0.42,-0.16,
1.061,0.12,-0.75,-0.22,-1.12,-0.40,-0.15,
1.063,0.12,-0.75,-0.22,-1.14,-0.36,-0.12,
1.068,-1.03,-0.74,-0.26,-1.14,-0.36,-0.12,
1.069,-1.03,-0.74,-0.26,-1.16,-0.34,-0.09,
1.069,-1.03,-0.74,-0.26,-1.18,-0.32,-0.07,
1.07,-1.03,-0.74,-0.26,-1.21,-0.29,-0.03,
1.072,-1.03,-0.74,-0.26,-1.21,-0.28,-0.02,
1.101,-1.03,-0.74,-0.26,-1.23,-0.26,0.01,
1.103,-1.46,-0.17,0.16,-1.23,-0.26,0.01,
1.107,-1.46,-0.17,0.16,-1.23,-0.25,0.03,
1.107,-1.46,-0.17,0.16,-1.24,-0.25,0.05,
1.108,-1.46,-0.17,0.16,-1.24,-0.25,0.08,
1.108,-1.46,-0.17,0.16,-1.24,-0.25,0.08,
1.108,-1.46,-0.17,0.16,-1.24,-0.27,0.10,
1.108,-1.20,0.02,0.49,-1.24,-0.27,0.10,
1.109,-1.20,0.02,0.49,-1.23,-0.28,0.11,
1.109,-1.20,0.02,0.49,-1.22,-0.30,0.12,
1.109,-1.20,0.02,0.49,-1.20,-0.32,0.13,
1.11,-1.20,0.02,0.49,-1.19,-0.34,0.13,
1.11,-1.20,0.02,0.49,-1.18,-0.35,0.13,
1.11,-0.85,-0.12,0.71,-1.18,-0.35,0.13,
1.11,-0.85,-0.12,0.71,-1.16,-0.37,0.13,
1.111,-0.85,-0.12,0.71,-1.14,-0.39,0.12,
1.111,-0.85,-0.12,0.71,-1.11,-0.41,0.11,
1.111,-0.85,-0.12,0.71,-1.06,-0.44,0.10,
1.111,-0.85,-0.12,0.71,-1.05,-0.45,0.09,
1.112,-0.20,-0.07,1.06,-1.05,-0.45,0.09,
1.112,-0.20,-0.07,1.06,-1.03,-0.45,0.08,
1.112,-0.20,-0.07,1.06,-1.00,-0.47,0.07,
1.113,-0.20,-0.07,1.06,-0.94,-0.49,0.04,
1.113,-0.20,-0.07,1.06,-0.92,-0.50,0.03,
1.113,-0.20,-0.07,1.06,-0.88,-0.52,0.01,
1.114,0.24,0.08,1.43,-0.88,-0.52,0.01,
1.114,0.24,0.08,1.43,-0.84,-0.53,-0.01,
1.116,0.24,0.08,1.43,-0.79,-0.54,-0.03,
1.119,0.24,0.08,1.43,-0.72,-0.55,-0.06,
1.12,0.24,0.08,1.43,-0.69,-0.56,-0.07,
1.122,0.24,0.08,1.43,-0.64,-0.56,-0.10,
1.124,0.59,0.17,1.82,-0.64,-0.56,-0.10,
1.124,0.59,0.17,1.82,-0.58,-0.57,-0.12,
1.126,0.59,0.17,1.82,-0.52,-0.58,-0.14,
1.129,0.59,0.17,1.82,-0.43,-0.59,-0.17,
1.13,0.59,0.17,1.82,-0.40,-0.59,-0.18,
1.132,0.59,0.17,1.82,-0.34,-0.59,-0.20,
1.134,0.87,0.24,2.07,-0.34,-0.59,-0.20,
1.135,0.87,0.24,2.07,-0.27,-0.59,-0.22,
1.136,0.87,0.24,2.07,-0.20,-0.59,-0.23,
1.139,0.87,0.24,2.07,-0.10,-0.58,-0.25,
1.14,0.87,0.24,2.07,-0.06,-0.58,-0.26,
1.142,0.87,0.24,2.07,0.01,-0.58,-0.27,
1.143,0.68,0.37,2.16,0.01,-0.58,-0.27,
1.144,0.68,0.37,2.16,0.09,-0.58,-0.28,
1.147,0.68,0.37,2.16,0.16,-0.58,-0.28,
1.149,0.68,0.37,2.16,0.27,-0.59,-0.29,
1.15,0.68,0.37,2.16,0.30,-0.59,-0.29,
1.152,0.68,0.37,2.16,0.37,-0.60,-0.29,
1.154,0.17,0.39,2.00,0.37,-0.60,-0.29,
1.154,0.17,0.39,2.00,0.44,-0.60,-0.29,
1.156,0.17,0.39,2.00,0.50,-0.60,-0.29,
1.159,0.17,0.39,2.00,0.60,-0.60,-0.28,
1.16,0.17,0.39,2.00,0.62,-0.60,-0.28,
1.162,0.17,0.39,2.00,0.68,-0.61,-0.28,
1.165,-0.47,0.40,1.71,0.68,-0.61,-0.28,
1.166,-0.47,0.40,1.71,0.74,-0.62,-0.28,
1.167,-0.47,0.40,1.71,0.79,-0.63,-0.28,
1.17,-0.47,0.40,1.71,0.86,-0.65,-0.28,
1.17,-0.47,0.40,1.71,0.89,-0.65,-0.28,
1.172,-0.47,0.40,1.71,0.93,-0.67,-0.29,
1.173,-0.70,0.33,1.54,0.93,-0.67,-0.29,
1.174,-0.70,0.33,1.54,0.97,-0.68,-0.29,
1.175,-0.70,0.33,1.54,1.01,-0.69,-0.30,
1.18,-0.70,0.33,1.54,1.06,-0.71,-0.30,
1.181,-0.70,0.33,1.54,1.08,-0.72,-0.30,
1.183,-0.70,0.33,1.54,1.11,-0.73,-0.30,
1.184,-0.73,0.18,1.19,1.11,-0.73,-0.30,
1.184,-0.73,0.18,1.19,1.14,-0.75,-0.31,
1.186,-0.73,0.18,1.19,1.17,-0.76,-0.30,
1.189,-0.73,0.18,1.19,1.21,-0.78,-0.30,
1.19,-0.73,0.18,1.19,1.22,-0.79,-0.30,
1.191,-0.73,0.18,1.19,1.24,-0.80,-0.30,
1.193,-0.72,0.11,0.91,1.24,-0.80,-0.30,
1.194,-0.72,0.11,0.91,1.26,-0.82,-0.29,
1.209,-0.72,0.11,0.91,1.28,-0.83,-0.29,
1.211,-0.72,0.11,0.91,1.31,-0.85,-0.28,
1.212,-0.72,0.11,0.91,1.32,-0.85,-0.28,
1.213,-0.72,0.11,0.91,1.33,-0.85,-0.27,
1.215,-0.41,-0.01,0.64,1.33,-0.85,-0.27,
1.216,-0.41,-0.01,0.64,1.34,-0.85,-0.27,
1.219,-0.41,-0.01,0.64,1.35,-0.84,-0.27,
1.22,-0.41,-0.01,0.64,1.36,-0.83,-0.26,
1.22,-0.41,-0.01,0.64,1.36,-0.82,-0.26,
1.22,-0.41,-0.01,0.64,1.37,-0.81,-0.25,
1.221,0.01,0.04,0.32,1.37,-0.81,-0.25,
1.221,0.01,0.04,0.32,1.37,-0.79,-0.25,
1.221,0.01,0.04,0.32,1.38,-0.77,-0.25,
1.222,0.01,0.04,0.32,1.38,-0.74,-0.24,
1.222,0.01,0.04,0.32,1.38,-0.73,-0.24,
1.222,0.01,0.04,0.32,1.38,-0.71,-0.23,
1.229,0.20,0.16,0.01,1.38,-0.71,-0.23,
1.23,0.20,0.16,0.01,1.39,-0.68,-0.23,
1.23,0.20,0.16,0.01,1.38,-0.65,-0.22,
1.23,0.20,0.16,0.01,1.39,-0.60,-0.21,
1.231,0.20,0.16,0.01,1.38,-0.57,-0.20,
1.233,0.20,0.16,0.01,1.38,-0.55,-0.20,
1.234,0.13,0.36,-0.32,1.38,-0.55,-0.20,
1.234,0.13,0.36,-0.32,1.38,-0.52,-0.19,
1.236,0.13,0.36,-0.32,1.38,-0.49,-0.17,
1.26,0.13,0.36,-0.32,1.38,-0.45,-0.15,
1.261,0.13,0.36,-0.32,1.38,-0.44,-0.14,
1.261,0.13,0.36,-0.32,1.37,-0.42,-0.13,
1.261,-0.11,0.42,-0.74,1.37,-0.42,-0.13,
1.261,-0.11,0.42,-0.74,1.37,-0.39,-0.12,
1.262,-0.11,0.42,-0.74,1.36,-0.37,-0.11,
1.262,-0.11,0.42,-0.74,1.34,-0.34,-0.09,
1.262,-0.11,0.42,-0.74,1.34,-0.32,-0.08,
1.262,-0.11,0.42,-0.74,1.32,-0.30,-0.08,
1.263,-0.24,0.45,-1.53,1.32,-0.30,-0.08,
1.263,-0.24,0.45,-1.53,1.30,-0.27,-0.07,
1.263,-0.24,0.45,-1.53,1.27,-0.25,-0.06,
1.263,-0.24,0.45,-1.53,1.23,-0.21,-0.06,
1.264,-0.24,0.45,-1.53,1.21,-0.20,-0.05,
1.264,-0.24,0.45,-1.53,1.17,-0.19,-0.05,
1.264,-0.33,0.39,-2.45,1.17,-0.19,-0.05,
1.264,-0.33,0.39,-2.45,1.13,-0.17,-0.05,
1.266,-0.33,0.39,-2.45,1.08,-0.17,-0.05,
1.269,-0.33,0.39,-2.45,1.02,-0.17,-0.06,
1.27,-0.33,0.39,-2.45,0.97,-0.17,-0.06,
1.272,-0.33,0.39,-2.45,0.94,-0.18,-0.06,
1.274,-0.46,0.44,-2.71,0.94,-0.18,-0.06,
1.274,-0.46,0.44,-2.71,0.89,-0.19,-0.07,
1.278,-0.46,0.44,-2.71,0.84,-0.21,-0.07,
1.28,-0.46,0.44,-2.71,0.77,-0.23,-0.08,
1.281,-0.46,0.44,-2.71,0.74,-0.24,-0.09,
1.282,-0.46,0.44,-2.71,0.70,-0.25,-0.09,
1.284,-0.61,0.38,-2.44,0.70,-0.25,-0.09,
1.284,-0.61,0.38,-2.44,0.66,-0.26,-0.10,
1.286,-0.61,0.38,-2.44,0.62,-0.27,-0.10,
1.289,-0.61,0.38,-2.44,0.57,-0.28,-0.11,
1.29,-0.61,0.38,-2.44,0.54,-0.29,-0.11,
1.292,-0.61,0.38,-2.44,0.52,-0.29,-0.11,
1.294,-0.76,0.28,-1.97,0.52,-0.29,-0.11,
1.294,-0.76,0.28,-1.97,0.50,-0.29,-0.11,
1.296,-0.76,0.28,-1.97,0.48,-0.30,-0.11,
1.299,-0.76,0.28,-1.97,0.46,-0.30,-0.11,
1.3,-0.76,0.28,-1.97,0.44,-0.31,-0.11,
1.302,-0.76,0.28,-1.97,0.44,-0.31,-0.11,
1.308,-0.73,0.04,-1.43,0.44,-0.31,-0.11,
1.308,-0.73,0.04,-1.43,0.43,-0.31,-0.10,
1.309,-0.73,0.04,-1.43,0.43,-0.31,-0.10,
1.309,-0.73,0.04,-1.43,0.42,-0.32,-0.09,
1.31,-0.73,0.04,-1.43,0.42,-0.33,-0.09,
1.315,-0.73,0.04,-1.43,0.42,-0.33,-0.08,
1.315,-0.57,-0.14,-0.98,0.42,-0.33,-0.08,
1.315,-0.57,-0.14,-0.98,0.42,-0.34,-0.08,
1.316,-0.57,-0.14,-0.98,0.42,-0.36,-0.08,
1.319,-0.57,-0.14,-0.98,0.43,-0.37,-0.08,
1.32,-0.57,-0.14,-0.98,0.43,-0.38,-0.08,
1.322,-0.57,-0.14,-0.98,0.43,-0.38,-0.08,
1.326,-0.28,-0.19,-0.69,0.43,-0.38,-0.08,
1.326,-0.28,-0.19,-0.69,0.43,-0.39,-0.08,
1.326,-0.28,-0.19,-0.69,0.44,-0.39,-0.08,
1.337,-0.28,-0.19,-0.69,0.44,-0.39,-0.08,
1.338,-0.28,-0.19,-0.69,0.45,-0.40,-0.08,
1.338,-0.28,-0.19,-0.69,0.45,-0.40,-0.08,
1.338,-0.12,-0.22,-0.58,0.45,-0.40,-0.08,
1.338,-0.12,-0.22,-0.58,0.45,-0.40,-0.08,
1.339,-0.12,-0.22,-0.58,0.46,-0.41,-0.08,
1.339,-0.12,-0.22,-0.58,0.46,-0.41,-0.08,
1.34,-0.12,-0.22,-0.58,0.47,-0.42,-0.08,
1.342,-0.12,-0.22,-0.58,0.47,-0.42,-0.08,
1.344,-0.07,-0.19,-0.49,0.47,-0.42,-0.08,
1.344,-0.07,-0.19,-0.49,0.47,-0.43,-0.08,
1.346,-0.07,-0.19,-0.49,0.48,-0.44,-0.08,
1.349,-0.07,-0.19,-0.49,0.48,-0.45,-0.08,
1.35,-0.07,-0.19,-0.49,0.49,-0.46,-0.07,
1.352,-0.07,-0.19,-0.49,0.49,-0.46,-0.07,
1.354,-0.20,-0.10,-0.38,0.49,-0.46,-0.07,
1.354,-0.20,-0.10,-0.38,0.50,-0.46,-0.06,
1.356,-0.20,-0.10,-0.38,0.50,-0.46,-0.06,
1.359,-0.20,-0.10,-0.38,0.51,-0.46,-0.05,
1.36,-0.20,-0.10,-0.38,0.51,-0.47,-0.04,
1.362,-0.20,-0.10,-0.38,0.52,-0.47,-0.04,
1.364,-0.33,-0.06,-0.38,0.52,-0.47,-0.04,
1.365,-0.33,-0.06,-0.38,0.52,-0.47,-0.03,
1.366,-0.33,-0.06,-0.38,0.52,-0.47,-0.03,
1.369,-0.33,-0.06,-0.38,0.51,-0.47,-0.02,
1.37,-0.33,-0.06,-0.38,0.51,-0.47,-0.02,
1.372,-0.33,-0.06,-0.38,0.50,-0.47,-0.02,
1.373,-0.31,-0.16,-0.61,0.50,-0.47,-0.02,
1.374,-0.31,-0.16,-0.61,0.50,-0.47,-0.02,
1.376,-0.31,-0.16,-0.61,0.49,-0.47,-0.02,
1.379,-0.31,-0.16,-0.61,0.47,-0.46,-0.02,
1.38,-0.31,-0.16,-0.61,0.45,-0.46,-0.02,
1.382,-0.31,-0.16,-0.61,0.44,-0.46,-0.02,
1.384,-0.25,-0.24,-0.87,0.44,-0.46,-0.02,
1.385,-0.25,-0.24,-0.87,0.42,-0.46,-0.03,
1.386,-0.25,-0.24,-0.87,0.39,-0.46,-0.03,
1.389,-0.25,-0.24,-0.87,0.35,-0.46,-0.04,
1.39,-0.25,-0.24,-0.87,0.33,-0.46,-0.06,
1.391,-0.25,-0.24,-0.87,0.31,-0.46,-0.06,
1.394,-0.22,-0.25,-0.84,0.31,-0.46,-0.06,
1.394,-0.22,-0.25,-0.84,0.28,-0.46,-0.07,
1.396,-0.22,-0.25,-0.84,0.25,-0.46,-0.08,
1.4,-0.22,-0.25,-0.84,0.21,-0.46,-0.10,
1.4,-0.22,-0.25,-0.84,0.18,-0.45,-0.11,
1.402,-0.22,-0.25,-0.84,0.17,-0.45,-0.11,
1.404,-0.05,-0.25,-0.43,0.17,-0.45,-0.11,
1.434,-0.05,-0.25,-0.43,0.14,-0.45,-0.13,
1.435,-0.05,-0.25,-0.43,0.12,-0.45,-0.13,
1.435,-0.05,-0.25,-0.43,0.09,-0.43,-0.14,
1.436,-0.05,-0.25,-0.43,0.07,-0.42,-0.14,
1.436,-0.05,-0.25,-0.43,0.06,-0.41,-0.14,
1.437,0.04,-0.41,-0.04,0.06,-0.41,-0.14,
1.437,0.04,-0.41,-0.04,0.05,-0.40,-0.14,
1.437,0.04,-0.41,-0.04,0.04,-0.38,-0.13,
1.438,0.04,-0.41,-0.04,0.02,-0.36,-0.13,
1.438,0.04,-0.41,-0.04,0.02,-0.34,-0.12,
1.439,0.04,-0.41,-0.04,0.02,-0.33,-0.12,
1.439,0.13,-0.57,0.45,0.02,-0.33,-0.12,
1.44,0.13,-0.57,0.45,0.03,-0.31,-0.11,
1.44,0.13,-0.57,0.45,0.03,-0.28,-0.10,
1.44,0.13,-0.57,0.45,0.04,-0.24,-0.09,
1.441,0.13,-0.57,0.45,0.05,-0.21,-0.08,
1.441,0.13,-0.57,0.45,0.06,-0.19,-0.07,
1.442,0.19,-0.62,0.87,0.06,-0.19,-0.07,
1.442,0.19,-0.62,0.87,0.07,-0.17,-0.06,
1.443,0.19,-0.62,0.87,0.08,-0.14,-0.05,
1.443,0.19,-0.62,0.87,0.11,-0.10,-0.03,
1.443,0.19,-0.62,0.87,0.12,-0.08,-0.01,
1.444,0.19,-0.62,0.87,0.13,-0.07,-0.01,
1.444,0.05,-0.58,0.97,0.13,-0.07,-0.01,
1.445,0.05,-0.58,0.97,0.14,-0.05,0.00,
1.447,0.05,-0.58,0.97,0.16,-0.04,0.01,
1.449,0.05,-0.58,0.97,0.18,-0.03,0.03,
1.452,0.05,-0.58,0.97,0.19,-0.02,0.04,
1.452,0.05,-0.58,0.97,0.20,-0.03,0.04,
1.454,-0.02,-0.59,0.89,0.20,-0.03,0.04,
1.454,-0.02,-0.59,0.89,0.21,-0.03,0.04,
1.456,-0.02,-0.59,0.89,0.22,-0.03,0.05,
1.459,-0.02,-0.59,0.89,0.23,-0.04,0.05,
1.46,-0.02,-0.59,0.89,0.24,-0.04,0.06,
1.464,-0.02,-0.59,0.89,0.25,-0.04,0.06,
1.464,-0.23,-0.54,0.74,0.25,-0.04,0.06,
1.465,-0.23,-0.54,0.74,0.26,-0.05,0.07,
1.466,-0.23,-0.54,0.74,0.27,-0.06,0.07,
1.469,-0.23,-0.54,0.74,0.28,-0.07,0.08,
1.47,-0.23,-0.54,0.74,0.28,-0.07,0.08,
1.472,-0.23,-0.54,0.74,0.28,-0.07,0.09,
1.474,-0.39,-0.59,0.39,0.28,-0.07,0.09,
1.474,-0.39,-0.59,0.39,0.29,-0.08,0.09,
1.476,-0.39,-0.59,0.39,0.29,-0.09,0.09,
1.484,-0.39,-0.59,0.39,0.30,-0.10,0.11,
1.485,-0.39,-0.59,0.39,0.30,-0.11,0.11,
1.486,-0.39,-0.59,0.39,0.30,-0.11,0.11,
1.486,-0.36,-0.59,0.17,0.30,-0.11,0.11,
1.486,-0.36,-0.59,0.17,0.31,-0.11,0.12,
1.487,-0.36,-0.59,0.17,0.31,-0.11,0.12,
1.511,-0.36,-0.59,0.17,0.32,-0.11,0.13,
1.513,-0.36,-0.59,0.17,0.32,-0.12,0.13,
1.513,-0.36,-0.59,0.17,0.33,-0.12,0.12,
1.514,-0.20,-0.36,0.09,0.33,-0.12,0.12,
1.514,-0.20,-0.36,0.09,0.33,-0.13,0.12,
1.515,-0.20,-0.36,0.09,0.34,-0.14,0.12,
1.515,-0.20,-0.36,0.09,0.35,-0.15,0.11,
1.515,-0.20,-0.36,0.09,0.36,-0.16,0.10,
1.516,-0.20,-0.36,0.09,0.36,-0.17,0.09,
1.516,0.16,-0.29,0.05,0.36,-0.17,0.09,
1.517,0.16,-0.29,0.05,0.37,-0.18,0.08,
1.517,0.16,-0.29,0.05,0.38,-0.19,0.06,
1.517,0.16,-0.29,0.05,0.39,-0.20,0.05,
1.518,0.16,-0.29,0.05,0.40,-0.21,0.04,
1.518,0.16,-0.29,0.05,0.41,-0.21,0.02,
1.521,0.44,-0.28,0.24,0.41,-0.21,0.02,
1.521,0.44,-0.28,0.24,0.42,-0.21,0.01,
1.522,0.44,-0.28,0.24,0.43,-0.21,0.01,
1.523,0.44,-0.28,0.24,0.45,-0.21,-0.00,
1.523,0.44,-0.28,0.24,0.46,-0.21,-0.01,
1.524,0.44,-0.28,0.24,0.48,-0.20,-0.02,
1.525,0.44,-0.33,0.37,0.48,-0.20,-0.02,
1.525,0.44,-0.33,0.37,0.49,-0.19,-0.02,
1.526,0.44,-0.33,0.37,0.51,-0.18,-0.03,
1.529,0.44,-0.33,0.37,0.52,-0.17,-0.03,
1.53,0.44,-0.33,0.37,0.54,-0.16,-0.03,
1.532,0.44,-0.33,0.37,0.55,-0.14,-0.03,
1.534,0.29,-0.43,0.37,0.55,-0.14,-0.03,
1.535,0.29,-0.43,0.37,0.56,-0.12,-0.02,
1.536,0.29,-0.43,0.37,0.57,-0.10,-0.02,
1.539,0.29,-0.43,0.37,0.58,-0.09,-0.01,
1.539,0.29,-0.43,0.37,0.59,-0.07,-0.01,
1.541,0.29,-0.43,0.37,0.60,-0.05,0.00,
1.545,0.03,-0.51,0.13,0.60,-0.05,0.00,
1.547,0.03,-0.51,0.13,0.60,-0.03,0.01,
1.548,0.03,-0.51,0.13,0.60,-0.02,0.02,
1.549,0.03,-0.51,0.13,0.60,0.00,0.03,
1.55,0.03,-0.51,0.13,0.60,0.02,0.04,
1.552,0.03,-0.51,0.13,0.59,0.04,0.05,
1.554,-0.10,-0.63,-0.25,0.59,0.04,0.05,
1.554,-0.10,-0.63,-0.25,0.58,0.05,0.06,
1.556,-0.10,-0.63,-0.25,0.57,0.07,0.07,
1.558,-0.10,-0.63,-0.25,0.55,0.09,0.08,
1.559,-0.10,-0.63,-0.25,0.54,0.11,0.09,
1.564,-0.10,-0.63,-0.25,0.52,0.13,0.10,
1.565,-0.17,-0.57,-0.78,0.52,0.13,0.10,
1.565,-0.17,-0.57,-0.78,0.49,0.14,0.10,
1.566,-0.17,-0.57,-0.78,0.46,0.16,0.11,
1.569,-0.17,-0.57,-0.78,0.43,0.17,0.12,
1.574,-0.18,-0.48,-1.38,0.43,0.17,0.12,
1.605,-0.18,-0.48,-1.38,0.33,0.17,0.13,
1.605,-0.18,-0.48,-1.38,0.33,0.17,0.13,
1.606,-0.18,-0.48,-1.38,0.33,0.17,0.13,
1.606,-0.18,-0.48,-1.38,0.29,0.16,0.13,
1.607,-0.18,-0.48,-1.38,0.25,0.15,0.14,
1.607,-0.18,-0.48,-1.38,0.21,0.13,0.14,
1.608,-0.18,-0.48,-1.38,0.17,0.12,0.14,
1.608,-0.15,-0.43,-1.67,0.17,0.12,0.14,
1.609,-0.15,-0.43,-1.67,0.14,0.11,0.15,
1.609,-0.15,-0.43,-1.67,0.10,0.09,0.15,
1.61,-0.15,-0.43,-1.67,0.07,0.08,0.16,
1.611,-0.15,-0.43,-1.67,0.05,0.06,0.16,
1.611,-0.15,-0.43,-1.67,0.02,0.05,0.17,
1.612,-0.21,-0.43,-1.59,0.02,0.05,0.17,
1.612,-0.21,-0.43,-1.59,0.00,0.04,0.18,
1.613,-0.21,-0.43,-1.59,-0.02,0.03,0.18,
1.613,-0.21,-0.43,-1.59,-0.03,0.01,0.19,
1.614,-0.21,-0.43,-1.59,-0.04,0.00,0.19,
1.614,-0.21,-0.43,-1.59,-0.05,-0.01,0.20,
1.614,-0.27,-0.48,-1.14,-0.05,-0.01,0.20,
1.615,-0.27,-0.48,-1.14,-0.06,-0.02,0.20,
1.615,-0.27,-0.48,-1.14,-0.06,-0.03,0.20,
1.616,-0.27,-0.48,-1.14,-0.05,-0.05,0.21,
1.616,-0.27,-0.48,-1.14,-0.05,-0.07,0.21,
1.617,-0.27,-0.48,-1.14,-0.04,-0.09,0.21,
1.617,-0.24,-0.56,-0.56,-0.04,-0.09,0.21,
1.617,-0.24,-0.56,-0.56,-0.03,-0.11,0.21,
1.618,-0.24,-0.56,-0.56,-0.02,-0.14,0.22,
1.62,-0.24,-0.56,-0.56,-0.01,-0.19,0.28,
1.621,-0.24,-0.56,-0.56,0.01,-0.25,0.35,
1.622,-0.24,-0.56,-0.56,0.03,-0.28,0.42,
1.624,-1.48,-1.74,-0.25,0.03,-0.28,0.42,
1.624,-1.48,-1.74,-0.25,0.05,-0.29,0.47,
1.626,-1.48,-1.74,-0.25,0.07,-0.28,0.51,
1.63,-1.48,-1.74,-0.25,0.09,-0.26,0.53,
1.634,-1.48,-1.74,-0.25,0.12,-0.23,0.54,
1.634,-1.48,-1.74,-0.25,0.15,-0.20,0.54,
1.634,-0.34,-0.50,0.48,0.15,-0.20,0.54,
1.636,-0.34,-0.50,0.48,0.17,-0.18,0.53,
1.636,-0.34,-0.50,0.48,0.20,-0.16,0.51,
1.639,-0.34,-0.50,0.48,0.23,-0.16,0.48,
1.64,-0.34,-0.50,0.48,0.26,-0.16,0.45,
1.641,-0.34,-0.50,0.48,0.29,-0.17,0.42,
1.653,0.80,0.03,0.86,0.29,-0.17,0.42,
1.654,0.80,0.03,0.86,0.31,-0.18,0.39,
1.655,0.80,0.03,0.86,0.34,-0.18,0.36,
1.655,0.80,0.03,0.86,0.37,-0.18,0.32,
1.655,0.80,0.03,0.86,0.37,-0.17,0.31,
1.656,0.80,0.03,0.86,0.38,-0.16,0.29,
1.656,0.90,-0.38,0.27,0.38,-0.16,0.29,
1.657,0.90,-0.38,0.27,0.38,-0.14,0.28,
1.657,0.90,-0.38,0.27,0.39,-0.12,0.26,
1.659,0.90,-0.38,0.27,0.38,-0.10,0.25,
1.679,0.90,-0.38,0.27,0.38,-0.08,0.24,
1.68,0.90,-0.38,0.27,0.37,-0.07,0.24,
1.68,0.59,-0.48,-0.29,0.37,-0.07,0.24,
1.681,0.59,-0.48,-0.29,0.36,-0.07,0.24,
1.681,0.59,-0.48,-0.29,0.34,-0.06,0.24,
1.682,0.59,-0.48,-0.29,0.32,-0.06,0.23,
1.682,0.59,-0.48,-0.29,0.30,-0.05,0.24,
1.682,0.59,-0.48,-0.29,0.28,-0.05,0.23,
1.683,0.58,-0.35,-0.73,0.28,-0.05,0.23,
1.683,0.58,-0.35,-0.73,0.26,-0.05,0.23,
1.683,0.58,-0.35,-0.73,0.23,-0.04,0.23,
1.684,0.58,-0.35,-0.73,0.21,-0.03,0.23,
1.684,0.58,-0.35,-0.73,0.18,-0.02,0.22,
1.684,0.58,-0.35,-0.73,0.16,-0.01,0.22,
1.685,0.59,-0.23,-1.15,0.16,-0.01,0.22,
1.685,0.59,-0.23,-1.15,0.13,-0.00,0.21,
1.686,0.59,-0.23,-1.15,0.11,0.00,0.21,
1.689,0.59,-0.23,-1.15,0.08,0.01,0.20,
1.69,0.59,-0.23,-1.15,0.05,0.02,0.19,
1.692,0.59,-0.23,-1.15,0.02,0.02,0.18,
1.696,0.65,-0.19,-1.35,0.02,0.02,0.18,
1.697,0.65,-0.19,-1.35,-0.00,0.03,0.17,
1.698,0.65,-0.19,-1.35,-0.03,0.03,0.17,
1.699,0.65,-0.19,-1.35,-0.06,0.04,0.16,
1.7,0.65,-0.19,-1.35,-0.08,0.05,0.15,
1.702,0.65,-0.19,-1.35,-0.11,0.06,0.15,
1.704,0.57,-0.12,-1.35,-0.11,0.06,0.15,
1.704,0.57,-0.12,-1.35,-0.13,0.07,0.14,
1.706,0.57,-0.12,-1.35,-0.15,0.08,0.14,
1.709,0.57,-0.12,-1.35,-0.17,0.09,0.13,
1.712,0.57,-0.12,-1.35,-0.19,0.09,0.13,
1.712,0.57,-0.12,-1.35,-0.21,0.09,0.13,
1.714,0.48,-0.08,-1.12,-0.21,0.09,0.13,
1.714,0.48,-0.08,-1.12,-0.22,0.09,0.13,
1.716,0.48,-0.08,-1.12,-0.23,0.09,0.12,
1.719,0.48,-0.08,-1.12,-0.25,0.09,0.13,
1.72,0.48,-0.08,-1.12,-0.25,0.09,0.13,
1.722,0.48,-0.08,-1.12,-0.26,0.08,0.13,
1.724,0.25,-0.07,-0.72,-0.26,0.08,0.13,
1.724,0.25,-0.07,-0.72,-0.26,0.08,0.13,
1.727,0.25,-0.07,-0.72,-0.26,0.09,0.14,
1.73,0.25,-0.07,-0.72,-0.25,0.09,0.15,
1.73,0.25,-0.07,-0.72,-0.25,0.10,0.15,
1.733,0.25,-0.07,-0.72,-0.24,0.10,0.15,
1.734,0.15,-0.12,-0.22,-0.24,0.10,0.15,
1.735,0.15,-0.12,-0.22,-0.23,0.12,0.16,
1.739,0.15,-0.12,-0.22,-0.22,0.13,0.16,
1.765,0.15,-0.12,-0.22,-0.19,0.15,0.17,
1.765,0.15,-0.12,-0.22,-0.19,0.16,0.18,
1.766,0.15,-0.12,-0.22,-0.17,0.17,0.18,
1.766,0.21,-0.24,0.33,-0.17,0.17,0.18,
1.767,0.21,-0.24,0.33,-0.15,0.18,0.19,
1.767,0.21,-0.24,0.33,-0.13,0.19,0.19,
1.767,0.21,-0.24,0.33,-0.11,0.21,0.20,
1.768,0.21,-0.24,0.33,-0.10,0.21,0.21,
1.768,0.21,-0.24,0.33,-0.09,0.22,0.22,
1.769,0.15,-0.32,0.53,-0.09,0.22,0.22,
1.769,0.15,-0.32,0.53,-0.08,0.23,0.23,
1.77,0.15,-0.32,0.53,-0.06,0.24,0.24,
1.77,0.15,-0.32,0.53,-0.04,0.25,0.25,
1.77,0.15,-0.32,0.53,-0.04,0.25,0.26,
1.771,0.15,-0.32,0.53,-0.03,0.25,0.26,
1.771,0.13,-0.37,0.40,-0.03,0.25,0.26,
1.772,0.13,-0.37,0.40,-0.02,0.25,0.27,
1.772,0.13,-0.37,0.40,-0.01,0.24,0.27,
1.773,0.13,-0.37,0.40,-0.01,0.24,0.28,
1.773,0.13,-0.37,0.40,-0.00,0.23,0.28,
1.774,0.13,-0.37,0.40,0.00,0.22,0.28,
1.774,0.35,-0.29,0.10,0.00,0.22,0.28,
1.774,0.35,-0.29,0.10,0.00,0.20,0.27,
1.784,0.35,-0.29,0.10,0.00,0.19,0.27,
1.785,0.35,-0.29,0.10,0.00,0.16,0.26,
1.785,0.35,-0.29,0.10,0.00,0.15,0.26,
1.785,0.35,-0.29,0.10,0.00,0.12,0.25,
1.786,0.55,-0.18,-0.17,0.00,0.12,0.25,
1.786,0.55,-0.18,-0.17,-0.00,0.10,0.24,
1.786,0.55,-0.18,-0.17,-0.00,0.08,0.23,
1.792,0.55,-0.18,-0.17,-0.00,0.04,0.20,
1.792,0.55,-0.18,-0.17,-0.01,0.03,0.20,
1.792,0.55,-0.18,-0.17,-0.01,0.01,0.18,
1.808,0.74,-0.08,-0.28,-0.01,0.01,0.18,
1.808,0.74,-0.08,-0.28,-0.01,-0.01,0.16,
1.809,0.74,-0.08,-0.28,-0.01,-0.03,0.14,
1.81,0.74,-0.08,-0.28,-0.01,-0.06,0.11,
1.81,0.74,-0.08,-0.28,-0.00,-0.08,0.09,
1.813,0.74,-0.08,-0.28,-0.00,-0.08,0.08,
1.814,0.77,-0.02,-0.30,-0.00,-0.08,0.08,
1.814,0.77,-0.02,-0.30,0.00,-0.10,0.06,
1.814,0.77,-0.02,-0.30,0.00,-0.11,0.04,
1.814,0.77,-0.02,-0.30,0.01,-0.13,0.02,
1.814,0.77,-0.02,-0.30,0.02,-0.13,0.01,
1.817,0.77,-0.02,-0.30,0.02,-0.13,-0.00,
1.818,0.69,-0.04,-0.25,0.02,-0.13,-0.00,
1.818,0.69,-0.04,-0.25,0.03,-0.14,-0.02,
1.818,0.69,-0.04,-0.25,0.03,-0.15,-0.03,
1.819,0.69,-0.04,-0.25,0.04,-0.15,-0.04,
1.82,0.69,-0.04,-0.25,0.04,-0.15,-0.04,
1.822,0.69,-0.04,-0.25,0.04,-0.16,-0.04,
1.824,0.40,-0.13,-0.26,0.04,-0.16,-0.04,
1.824,0.40,-0.13,-0.26,0.04,-0.16,-0.05,
1.827,0.40,-0.13,-0.26,0.04,-0.16,-0.05,
1.83,0.40,-0.13,-0.26,0.04,-0.16,-0.05,
1.83,0.40,-0.13,-0.26,0.04,-0.15,-0.05,
1.832,0.40,-0.13,-0.26,0.04,-0.15,-0.04,
1.834,0.05,-0.17,-0.42,0.04,-0.15,-0.04,
1.834,0.05,-0.17,-0.42,0.03,-0.15,-0.03,
1.836,0.05,-0.17,-0.42,0.03,-0.15,-0.03,
1.839,0.05,-0.17,-0.42,0.02,-0.14,-0.02,
1.84,0.05,-0.17,-0.42,0.02,-0.14,-0.01,
1.843,0.05,-0.17,-0.42,0.01,-0.14,-0.00,
1.845,-0.09,-0.20,-0.57,0.01,-0.14,-0.00,
1.846,-0.09,-0.20,-0.57,0.00,-0.13,0.00,
1.846,-0.09,-0.20,-0.57,-0.00,-0.13,0.01,
1.849,-0.09,-0.20,-0.57,-0.01,-0.12,0.02,
1.85,-0.09,-0.20,-0.57,-0.02,-0.11,0.03,
1.852,-0.09,-0.20,-0.57,-0.03,-0.10,0.03,
1.854,-0.04,-0.18,-0.53,-0.03,-0.10,0.03,
1.854,-0.04,-0.18,-0.53,-0.03,-0.09,0.03,
1.855,-0.04,-0.18,-0.53,-0.04,-0.08,0.04,
1.869,-0.04,-0.18,-0.53,-0.05,-0.06,0.04,
1.87,-0.04,-0.18,-0.53,-0.05,-0.06,0.04,
1.871,-0.04,-0.18,-0.53,-0.05,-0.05,0.04,
1.871,0.11,-0.13,-0.47,-0.05,-0.05,0.04,
1.872,0.11,-0.13,-0.47,-0.06,-0.04,0.04,
1.873,0.11,-0.13,-0.47,-0.06,-0.03,0.04,
1.873,0.11,-0.13,-0.47,-0.08,-0.02,0.03,
1.873,0.11,-0.13,-0.47,-0.08,-0.02,0.03,
1.874,0.11,-0.13,-0.47,-0.08,-0.02,0.02,
1.892,0.32,-0.10,-0.49,-0.08,-0.02,0.02,
1.894,0.32,-0.10,-0.49,-0.09,-0.02,0.01,
1.895,0.32,-0.10,-0.49,-0.09,-0.02,0.01,
1.895,0.32,-0.10,-0.49,-0.11,-0.03,-0.00,
1.896,0.32,-0.10,-0.49,-0.11,-0.03,-0.01,
1.897,0.32,-0.10,-0.49,-0.12,-0.04,-0.02,
1.897,0.48,-0.12,-0.60,-0.12,-0.04,-0.02,
1.898,0.48,-0.12,-0.60,-0.13,-0.05,-0.02,
1.899,0.48,-0.12,-0.60,-0.13,-0.07,-0.03,
1.9,0.48,-0.12,-0.60,-0.15,-0.10,-0.05,
1.9,0.48,-0.12,-0.60,-0.15,-0.11,-0.06,
1.901,0.48,-0.12,-0.60,-0.16,-0.13,-0.07,
1.902,0.68,-0.11,-0.62,-0.16,-0.13,-0.07,
1.902,0.68,-0.11,-0.62,-0.16,-0.15,-0.08,
1.902,0.68,-0.11,-0.62,-0.17,-0.18,-0.10,
1.903,0.68,-0.11,-0.62,-0.17,-0.21,-0.12,
1.903,0.68,-0.11,-0.62,-0.17,-0.22,-0.12,
1.904,0.68,-0.11,-0.62,-0.17,-0.25,-0.13,
1.904,0.80,-0.16,-0.42,-0.17,-0.25,-0.13,
1.932,0.80,-0.16,-0.42,-0.17,-0.27,-0.14,
1.933,0.80,-0.16,-0.42,-0.17,-0.28,-0.16,
1.933,0.80,-0.16,-0.42,-0.17,-0.30,-0.17,
1.934,0.80,-0.16,-0.42,-0.17,-0.30,-0.18,
1.934,0.80,-0.16,-0.42,-0.16,-0.31,-0.19,
1.935,0.81,-0.16,-0.16,-0.16,-0.31,-0.19,
1.935,0.81,-0.16,-0.16,-0.16,-0.30,-0.19,
1.936,0.81,-0.16,-0.16,-0.16,-0.30,-0.20,
1.936,0.81,-0.16,-0.16,-0.17,-0.28,-0.21,
1.937,0.81,-0.16,-0.16,-0.17,-0.27,-0.22,
1.937,0.81,-0.16,-0.16,-0.17,-0.25,-0.22,
1.937,0.69,-0.18,-0.14,-0.17,-0.25,-0.22,
1.938,0.69,-0.18,-0.14,-0.18,-0.23,-0.23,
1.938,0.69,-0.18,-0.14,-0.19,-0.20,-0.24,
1.939,0.69,-0.18,-0.14,-0.20,-0.16,-0.24,
1.939,0.69,-0.18,-0.14,-0.21,-0.15,-0.25,
1.94,0.69,-0.18,-0.14,-0.22,-0.12,-0.25,
1.94,0.56,-0.18,-0.16,-0.22,-0.12,-0.25,
1.941,0.56,-0.18,-0.16,-0.23,-0.09,-0.25,
1.941,0.56,-0.18,-0.16,-0.25,-0.05,-0.26,
1.942,0.56,-0.18,-0.16,-0.27,0.00,-0.26,
1.942,0.56,-0.18,-0.16,-0.27,0.02,-0.26,
1.943,0.56,-0.18,-0.16,-0.29,0.05,-0.26,
1.946,0.36,-0.26,-0.16,-0.29,0.05,-0.26,
1.947,0.36,-0.26,-0.16,-0.30,0.08,-0.25,
1.947,0.36,-0.26,-0.16,-0.32,0.12,-0.25,
1.949,0.36,-0.26,-0.16,-0.34,0.17,-0.24,
1.949,0.36,-0.26,-0.16,-0.35,0.19,-0.23,
1.952,0.36,-0.26,-0.16,-0.36,0.22,-0.22,
1.954,0.13,-0.26,-0.09,-0.36,0.22,-0.22,
1.954,0.13,-0.26,-0.09,-0.37,0.25,-0.22,
1.956,0.13,-0.26,-0.09,-0.38,0.27,-0.21,
1.959,0.13,-0.26,-0.09,-0.39,0.30,-0.20,
1.96,0.13,-0.26,-0.09,-0.39,0.31,-0.19,
1.964,0.13,-0.26,-0.09,-0.40,0.32,-0.18,
1.965,0.08,-0.36,0.06,-0.40,0.32,-0.18,
1.966,0.08,-0.36,0.06,-0.40,0.33,-0.18,
1.966,0.08,-0.36,0.06,-0.40,0.33,-0.18,
1.969,0.08,-0.36,0.06,-0.40,0.33,-0.17,
1.969,0.08,-0.36,0.06,-0.40,0.32,-0.17,
1.972,0.08,-0.36,0.06,-0.39,0.31,-0.17,
1.974,0.12,-0.34,0.18,-0.39,0.31,-0.17,
1.974,0.12,-0.34,0.18,-0.39,0.29,-0.17,
1.977,0.12,-0.34,0.18,-0.39,0.27,-0.17,
1.979,0.12,-0.34,0.18,-0.38,0.24,-0.17,
1.98,0.12,-0.34,0.18,-0.38,0.22,-0.18,
1.982,0.12,-0.34,0.18,-0.37,0.19,-0.18,
1.984,0.24,-0.26,0.14,-0.37,0.19,-0.18,
1.984,0.24,-0.26,0.14,-0.37,0.15,-0.19,
1.989,0.24,-0.26,0.14,-0.36,0.11,-0.20,
1.989,0.24,-0.26,0.14,-0.34,0.04,-0.22,
1.99,0.24,-0.26,0.14,-0.34,0.02,-0.23,
1.993,0.24,-0.26,0.14,-0.33,-0.03,-0.25,
1.994,0.45,-0.18,0.09,-0.33,-0.03,-0.25,
1.995,0.45,-0.18,0.09,-0.32,-0.08,-0.27,
1.996,0.45,-0.18,0.09,-0.30,-0.14,-0.29,
1.998,0.45,-0.18,0.09,-0.29,-0.21,-0.32,
2.0,0.45,-0.18,0.09,-0.28,-0.23,-0.33,
2.002,0.45,-0.18,0.09,-0.26,-0.28,-0.35,
2.003,0.60,-0.14,0.12,-0.26,-0.28,-0.35,
2.004,0.60,-0.14,0.12,-0.25,-0.32,-0.37,
2.006,0.60,-0.14,0.12,-0.23,-0.36,-0.39,
2.018,0.60,-0.14,0.12,-0.20,-0.41,-0.41,
2.02,0.60,-0.14,0.12,-0.19,-0.43,-0.42,
2.02,0.60,-0.14,0.12,-0.17,-0.45,-0.43,
2.021,0.60,-0.20,0.24,-0.17,-0.45,-0.43,
2.021,0.60,-0.20,0.24,-0.15,-0.48,-0.44,
2.021,0.60,-0.20,0.24,-0.13,-0.49,-0.45,
2.022,0.60,-0.20,0.24,-0.10,-0.51,-0.46,
2.022,0.60,-0.20,0.24,-0.09,-0.51,-0.47,
2.035,0.60,-0.20,0.24,-0.07,-0.51,-0.47,
2.036,0.46,-0.26,0.31,-0.07,-0.51,-0.47,
2.037,0.46,-0.26,0.31,-0.06,-0.50,-0.47,
2.037,0.46,-0.26,0.31,-0.05,-0.49,-0.47,
2.037,0.46,-0.26,0.31,-0.03,-0.46,-0.46,
2.038,0.46,-0.26,0.31,-0.03,-0.44,-0.46,
2.038,0.46,-0.26,0.31,-0.03,-0.41,-0.45,
2.038,0.12,-0.37,0.09,-0.03,-0.41,-0.45,
2.039,0.12,-0.37,0.09,-0.04,-0.36,-0.44,
2.039,0.12,-0.37,0.09,-0.05,-0.31,-0.43,
2.039,0.12,-0.37,0.09,-0.07,-0.23,-0.42,
2.04,0.12,-0.37,0.09,-0.08,-0.20,-0.41,
2.044,0.12,-0.37,0.09,-0.10,-0.15,-0.39,
2.045,-0.28,-0.45,-0.48,-0.10,-0.15,-0.39,
2.045,-0.28,-0.45,-0.48,-0.13,-0.09,-0.38,
2.047,-0.28,-0.45,-0.48,-0.16,-0.03,-0.37,
2.049,-0.28,-0.45,-0.48,-0.21,0.05,-0.34,
2.05,-0.28,-0.45,-0.48,-0.22,0.08,-0.33,
2.052,-0.28,-0.45,-0.48,-0.26,0.13,-0.32,
2.053,-0.42,-0.39,-0.92,-0.26,0.13,-0.32,
2.054,-0.42,-0.39,-0.92,-0.29,0.17,-0.30,
2.056,-0.42,-0.39,-0.92,-0.33,0.20,-0.29,
2.059,-0.42,-0.39,-0.92,-0.38,0.24,-0.27,
2.06,-0.42,-0.39,-0.92,-0.40,0.25,-0.27,
2.062,-0.42,-0.39,-0.92,-0.43,0.27,-0.26,
2.064,-0.33,-0.32,-1.01,-0.43,0.27,-0.26,
2.064,-0.33,-0.32,-1.01,-0.46,0.28,-0.24,
2.066,-0.33,-0.32,-1.01,-0.48,0.28,-0.23,
2.069,-0.33,-0.32,-1.01,-0.52,0.27,-0.22,
2.07,-0.33,-0.32,-1.01,-0.53,0.26,-0.21,
2.101,-0.33,-0.32,-1.01,-0.55,0.24,-0.20,
2.102,-0.30,-0.32,-0.90,-0.55,0.24,-0.20,
2.102,-0.30,-0.32,-0.90,-0.56,0.21,-0.19,
2.103,-0.30,-0.32,-0.90,-0.57,0.18,-0.18,
2.103,-0.30,-0.32,-0.90,-0.58,0.12,-0.17,
2.103,-0.30,-0.32,-0.90,-0.58,0.10,-0.16,
2.104,-0.30,-0.32,-0.90,-0.58,0.06,-0.15,
2.104,-0.44,-0.52,-0.61,-0.58,0.06,-0.15,
2.105,-0.44,-0.52,-0.61,-0.59,0.01,-0.13,
2.105,-0.44,-0.52,-0.61,-0.59,-0.03,-0.10,
2.106,-0.44,-0.52,-0.61,-0.58,-0.09,-0.06,
2.106,-0.44,-0.52,-0.61,-0.57,-0.11,-0.05,
2.106,-0.44,-0.52,-0.61,-0.56,-0.17,-0.02,
2.107,-0.80,-0.93,-0.19,-0.56,-0.17,-0.02,
2.107,-0.80,-0.93,-0.19,-0.53,-0.25,0.02,
2.108,-0.80,-0.93,-0.19,-0.44,-0.46,0.13,
2.108,-0.80,-0.93,-0.19,-0.25,-0.77,0.33,
2.109,-0.80,-0.93,-0.19,-0.19,-0.83,0.38,
2.109,-0.80,-0.93,-0.19,-0.07,-0.94,0.49,
2.11,-2.17,-1.50,1.77,-0.07,-0.94,0.49,
2.11,-2.17,-1.50,1.77,0.05,-1.04,0.57,
2.11,-2.17,-1.50,1.77,0.17,-1.14,0.63,
2.111,-2.17,-1.50,1.77,0.32,-1.28,0.69,
2.111,-2.17,-1.50,1.77,0.36,-1.32,0.69,
2.112,-2.17,-1.50,1.77,0.44,-1.40,0.69,
2.114,-0.79,-0.41,1.88,0.44,-1.40,0.69,
2.115,-0.79,-0.41,1.88,0.50,-1.46,0.66,
2.116,-0.79,-0.41,1.88,0.55,-1.51,0.61,
2.119,-0.79,-0.41,1.88,0.60,-1.56,0.49,
2.119,-0.79,-0.41,1.88,0.60,-1.57,0.45,
2.122,-0.79,-0.41,1.88,0.61,-1.60,0.35,
2.123,1.07,0.97,0.93,0.61,-1.60,0.35,
2.124,1.07,0.97,0.93,0.60,-1.62,0.25,
2.127,1.07,0.97,0.93,0.58,-1.63,0.15,
2.129,1.07,0.97,0.93,0.54,-1.62,0.00,
2.131,1.07,0.97,0.93,0.52,-1.61,-0.04,
2.132,1.07,0.97,0.93,0.49,-1.58,-0.13,
2.134,1.89,1.15,-0.64,0.49,-1.58,-0.13,
2.134,1.89,1.15,-0.64,0.45,-1.55,-0.20,
2.136,1.89,1.15,-0.64,0.40,-1.51,-0.27,
2.139,1.89,1.15,-0.64,0.34,-1.44,-0.34,
2.14,1.89,1.15,-0.64,0.32,-1.41,-0.36,
2.15,1.89,1.15,-0.64,0.28,-1.37,-0.39,
2.15,1.46,0.57,-1.32,0.28,-1.37,-0.39,
2.15,1.46,0.57,-1.32,0.24,-1.32,-0.40,
2.151,1.46,0.57,-1.32,0.20,-1.28,-0.41,
2.151,1.46,0.57,-1.32,0.14,-1.21,-0.40,
2.151,1.46,0.57,-1.32,0.10,-1.17,-0.39,
2.153,1.46,0.57,-1.32,0.08,-1.15,-0.38,
2.154,0.62,0.00,-1.39,0.08,-1.15,-0.38,
2.154,0.62,0.00,-1.39,0.04,-1.10,-0.36,
2.173,0.62,0.00,-1.39,-0.01,-1.05,-0.34,
2.174,0.62,0.00,-1.39,-0.08,-0.94,-0.31,
2.174,0.62,0.00,-1.39,-0.11,-0.89,-0.29,
2.175,0.62,0.00,-1.39,-0.18,-0.79,-0.28,
2.175,0.19,-0.16,-1.67,-0.18,-0.79,-0.28,
2.175,0.19,-0.16,-1.67,-0.25,-0.67,-0.26,
2.176,0.19,-0.16,-1.67,-0.32,-0.56,-0.25,
2.176,0.19,-0.16,-1.67,-0.43,-0.39,-0.25,
2.176,0.19,-0.16,-1.67,-0.46,-0.34,-0.25,
2.177,0.19,-0.16,-1.67,-0.51,-0.25,-0.25,
2.177,0.47,0.01,-1.54,-0.51,-0.25,-0.25,
2.177,0.47,0.01,-1.54,-0.56,-0.16,-0.26,
2.178,0.47,0.01,-1.54,-0.60,-0.09,-0.27,
2.187,0.47,0.01,-1.54,-0.64,-0.01,-0.29,
2.188,0.47,0.01,-1.54,-0.64,0.01,-0.29,
2.189,0.47,0.01,-1.54,-0.66,0.05,-0.31,
2.19,0.75,0.10,-0.58,-0.66,0.05,-0.31,
2.19,0.75,0.10,-0.58,-0.67,0.08,-0.32,
2.19,0.75,0.10,-0.58,-0.68,0.09,-0.33,
2.191,0.75,0.10,-0.58,-0.68,0.11,-0.34,
2.192,0.75,0.10,-0.58,-0.69,0.11,-0.34,
2.197,0.75,0.10,-0.58,-0.69,0.11,-0.35,
2.197,0.67,0.16,0.06,-0.69,0.11,-0.35,
2.197,0.67,0.16,0.06,-0.68,0.11,-0.36,
2.198,0.67,0.16,0.06,-0.68,0.10,-0.36,
2.202,0.67,0.16,0.06,-0.67,0.09,-0.37,
2.203,0.67,0.16,0.06,-0.67,0.08,-0.37,
2.204,0.67,0.16,0.06,-0.66,0.06,-0.37,
2.204,0.56,0.12,0.39,-0.66,0.06,-0.37,
2.205,0.56,0.12,0.39,-0.65,0.04,-0.38,
2.206,0.56,0.12,0.39,-0.64,0.01,-0.38,
2.215,0.56,0.12,0.39,-0.61,-0.03,-0.39,
2.216,0.56,0.12,0.39,-0.60,-0.05,-0.39,
2.216,0.56,0.12,0.39,-0.59,-0.08,-0.40,
2.217,0.60,0.03,0.64,-0.59,-0.08,-0.40,
2.217,0.60,0.03,0.64,-0.57,-0.11,-0.40,
2.217,0.60,0.03,0.64,-0.54,-0.15,-0.41,
2.219,0.60,0.03,0.64,-0.50,-0.21,-0.42,
2.22,0.60,0.03,0.64,-0.49,-0.22,-0.42,
2.222,0.60,0.03,0.64,-0.46,-0.26,-0.43,
2.225,0.57,0.04,0.92,-0.46,-0.26,-0.43,
2.227,0.57,0.04,0.92,-0.43,-0.30,-0.43,
2.227,0.57,0.04,0.92,-0.39,-0.34,-0.43,
2.229,0.57,0.04,0.92,-0.34,-0.40,-0.44,
2.23,0.57,0.04,0.92,-0.33,-0.42,-0.44,
2.232,0.57,0.04,0.92,-0.29,-0.46,-0.45,
2.234,0.47,-0.03,1.11,-0.29,-0.46,-0.45,
2.234,0.47,-0.03,1.11,-0.26,-0.50,-0.45,
2.236,0.47,-0.03,1.11,-0.22,-0.54,-0.45,
2.276,0.47,-0.03,1.11,-0.18,-0.60,-0.45,
2.277,0.47,-0.03,1.11,-0.16,-0.62,-0.45,
2.278,0.47,-0.03,1.11,-0.14,-0.65,-0.45,
2.278,0.28,-0.09,0.99,-0.14,-0.65,-0.45,
2.279,0.28,-0.09,0.99,-0.11,-0.67,-0.45,
2.28,0.28,-0.09,0.99,-0.08,-0.69,-0.45,
2.28,0.28,-0.09,0.99,-0.04,-0.72,-0.45,
2.281,0.28,-0.09,0.99,-0.03,-0.73,-0.45,
2.282,0.28,-0.09,0.99,-0.01,-0.75,-0.45,
2.282,0.20,-0.11,0.62,-0.01,-0.75,-0.45,
2.283,0.20,-0.11,0.62,0.00,-0.78,-0.45,
2.284,0.20,-0.11,0.62,0.02,-0.80,-0.45,
2.285,0.20,-0.11,0.62,0.04,-0.84,-0.45,
2.285,0.20,-0.11,0.62,0.05,-0.85,-0.45,
2.286,0.20,-0.11,0.62,0.06,-0.87,-0.44,
2.286,0.32,-0.07,0.34,0.06,-0.87,-0.44,
2.287,0.32,-0.07,0.34,0.06,-0.89,-0.45,
2.287,0.32,-0.07,0.34,0.07,-0.91,-0.45,
2.287,0.32,-0.07,0.34,0.07,-0.93,-0.45,
2.288,0.32,-0.07,0.34,0.07,-0.94,-0.46,
2.288,0.32,-0.07,0.34,0.07,-0.95,-0.46,
2.289,0.55,0.10,-0.03,0.07,-0.95,-0.46,
2.289,0.55,0.10,-0.03,0.07,-0.96,-0.47,
2.289,0.55,0.10,-0.03,0.06,-0.97,-0.47,
2.29,0.55,0.10,-0.03,0.06,-0.98,-0.48,
2.29,0.55,0.10,-0.03,0.05,-0.98,-0.48,
2.29,0.55,0.10,-0.03,0.04,-0.97,-0.49,
2.291,0.88,0.11,-0.42,0.04,-0.97,-0.49,
2.291,0.88,0.11,-0.42,0.02,-0.97,-0.50,
2.292,0.88,0.11,-0.42,0.01,-0.96,-0.50,
2.292,0.88,0.11,-0.42,-0.01,-0.93,-0.52,
2.292,0.88,0.11,-0.42,-0.02,-0.92,-0.52,
2.295,0.88,0.11,-0.42,-0.04,-0.88,-0.53,
2.296,1.11,0.10,-0.62,-0.04,-0.88,-0.53,
2.296,1.11,0.10,-0.62,-0.06,-0.85,-0.53,
2.297,1.11,0.10,-0.62,-0.08,-0.80,-0.54,
2.299,1.11,0.10,-0.62,-0.11,-0.73,-0.55,
2.3,1.11,0.10,-0.62,-0.12,-0.70,-0.55,
2.302,1.11,0.10,-0.62,-0.14,-0.64,-0.56,
2.304,0.82,-0.00,-0.60,-0.14,-0.64,-0.56,
2.304,0.82,-0.00,-0.60,-0.17,-0.58,-0.56,
2.306,0.82,-0.00,-0.60,-0.20,-0.52,-0.56,
2.309,0.82,-0.00,-0.60,-0.24,-0.42,-0.55,
2.31,0.82,-0.00,-0.60,-0.26,-0.39,-0.55,
2.312,0.82,-0.00,-0.60,-0.29,-0.33,-0.55,
2.314,0.51,-0.15,-0.71,-0.29,-0.33,-0.55,
2.314,0.51,-0.15,-0.71,-0.32,-0.26,-0.55,
2.316,0.51,-0.15,-0.71,-0.34,-0.20,-0.54,
2.319,0.51,-0.15,-0.71,-0.38,-0.11,-0.53,
2.32,0.51,-0.15,-0.71,-0.39,-0.09,-0.52,
2.322,0.51,-0.15,-0.71,-0.41,-0.04,-0.52,
2.33,0.15,-0.20,-0.69,-0.41,-0.04,-0.52,
2.33,0.15,-0.20,-0.69,-0.44,0.00,-0.49,
2.33,0.15,-0.20,-0.69,-0.47,0.04,-0.45,
2.331,0.15,-0.20,-0.69,-0.51,0.10,-0.42,
2.331,0.15,-0.20,-0.69,-0.52,0.12,-0.41,
2.332,0.15,-0.20,-0.69,-0.54,0.16,-0.39,
2.334,-0.21,-0.31,-0.78,-0.54,0.16,-0.39,
2.334,-0.21,-0.31,-0.78,-0.56,0.20,-0.38,
2.338,-0.21,-0.31,-0.78,-0.57,0.23,-0.37,
2.339,-0.21,-0.31,-0.78,-0.59,0.26,-0.36,
2.35,-0.21,-0.31,-0.78,-0.60,0.27,-0.36,
2.351,-0.21,-0.31,-0.78,-0.61,0.29,-0.35,
2.351,-0.36,-0.37,-0.70,-0.61,0.29,-0.35,
2.352,-0.36,-0.37,-0.70,-0.62,0.30,-0.34,
2.352,-0.36,-0.37,-0.70,-0.62,0.31,-0.34,
2.353,-0.36,-0.37,-0.70,-0.62,0.32,-0.33,
2.353,-0.36,-0.37,-0.70,-0.63,0.32,-0.33,
2.353,-0.36,-0.37,-0.70,-0.63,0.32,-0.33,
2.354,-0.43,-0.37,-0.74,-0.63,0.32,-0.33,
2.354,-0.43,-0.37,-0.74,-0.63,0.30,-0.32,
2.357,-0.43,-0.37,-0.74,-0.63,0.28,-0.32,
2.359,-0.43,-0.37,-0.74,-0.62,0.23,-0.32,
2.36,-0.43,-0.37,-0.74,-0.62,0.21,-0.33,
2.362,-0.43,-0.37,-0.74,-0.61,0.17,-0.33,
2.364,-0.31,-0.35,-0.57,-0.61,0.17,-0.33,
2.365,-0.31,-0.35,-0.57,-0.59,0.13,-0.33,
2.366,-0.31,-0.35,-0.57,-0.58,0.09,-0.34,
2.369,-0.31,-0.35,-0.57,-0.55,0.03,-0.35,
2.37,-0.31,-0.35,-0.57,-0.54,0.00,-0.35,
2.372,-0.31,-0.35,-0.57,-0.51,-0.04,-0.36,
2.374,-0.18,-0.21,-0.23,-0.51,-0.04,-0.36,
2.375,-0.18,-0.21,-0.23,-0.48,-0.08,-0.37,
2.376,-0.18,-0.21,-0.23,-0.45,-0.13,-0.38,
2.379,-0.18,-0.21,-0.23,-0.41,-0.19,-0.40,
2.38,-0.18,-0.21,-0.23,-0.39,-0.21,-0.41,
2.382,-0.18,-0.21,-0.23,-0.36,-0.25,-0.42,
2.384,-0.01,-0.04,-0.03,-0.36,-0.25,-0.42,
2.384,-0.01,-0.04,-0.03,-0.32,-0.30,-0.44,
2.386,-0.01,-0.04,-0.03,-0.29,-0.34,-0.45,
2.389,-0.01,-0.04,-0.03,-0.24,-0.40,-0.48,
2.39,-0.01,-0.04,-0.03,-0.22,-0.42,-0.49,
2.392,-0.01,-0.04,-0.03,-0.19,-0.47,-0.50,
2.395,0.12,-0.01,-0.01,-0.19,-0.47,-0.50,
2.395,0.12,-0.01,-0.01,-0.17,-0.51,-0.52,
2.396,0.12,-0.01,-0.01,-0.14,-0.55,-0.54,
2.399,0.12,-0.01,-0.01,-0.10,-0.61,-0.56,
2.404,0.12,-0.01,-0.01,-0.09,-0.64,-0.56,
2.405,0.12,-0.01,-0.01,-0.06,-0.68,-0.57,
2.407,0.11,-0.03,-0.02,-0.06,-0.68,-0.57,
2.439,0.11,-0.03,-0.02,-0.04,-0.72,-0.58,
2.44,0.11,-0.03,-0.02,-0.02,-0.76,-0.59,
2.44,0.11,-0.03,-0.02,0.00,-0.81,-0.60,
2.441,0.11,-0.03,-0.02,0.01,-0.83,-0.61,
2.442,0.11,-0.03,-0.02,0.02,-0.85,-0.61,
2.442,0.05,-0.11,-0.19,0.02,-0.85,-0.61,
2.443,0.05,-0.11,-0.19,0.02,-0.87,-0.62,
2.444,0.05,-0.11,-0.19,0.03,-0.88,-0.62,
2.444,0.05,-0.11,-0.19,0.03,-0.89,-0.63,
2.445,0.05,-0.11,-0.19,0.03,-0.90,-0.63,
2.445,0.05,-0.11,-0.19,0.02,-0.90,-0.64,
2.446,0.04,-0.21,-0.52,0.02,-0.90,-0.64,
2.446,0.04,-0.21,-0.52,0.01,-0.89,-0.65,
2.447,0.04,-0.21,-0.52,-0.00,-0.89,-0.65,
2.447,0.04,-0.21,-0.52,-0.03,-0.87,-0.65,
2.448,0.04,-0.21,-0.52,-0.04,-0.86,-0.66,
2.448,0.04,-0.21,-0.52,-0.06,-0.84,-0.66,
2.449,0.04,-0.25,-0.90,-0.06,-0.84,-0.66,
2.449,0.04,-0.25,-0.90,-0.09,-0.82,-0.66,
2.45,0.04,-0.25,-0.90,-0.12,-0.80,-0.66,
2.45,0.04,-0.25,-0.90,-0.17,-0.76,-0.66,
2.451,0.04,-0.25,-0.90,-0.19,-0.74,-0.66,
2.451,0.04,-0.25,-0.90,-0.22,-0.72,-0.66,
2.451,0.10,-0.31,-1.19,-0.22,-0.72,-0.66,
2.452,0.10,-0.31,-1.19,-0.25,-0.69,-0.66,
2.452,0.10,-0.31,-1.19,-0.29,-0.67,-0.66,
2.453,0.10,-0.31,-1.19,-0.34,-0.63,-0.66,
2.454,0.10,-0.31,-1.19,-0.36,-0.62,-0.66,
2.454,0.10,-0.31,-1.19,-0.39,-0.60,-0.67,
2.455,0.26,-0.40,-1.11,-0.39,-0.60,-0.67,
2.455,0.26,-0.40,-1.11,-0.42,-0.58,-0.67,
2.461,0.26,-0.40,-1.11,-0.45,-0.56,-0.67,
2.461,0.26,-0.40,-1.11,-0.49,-0.53,-0.67,
2.462,0.26,-0.40,-1.11,-0.50,-0.52,-0.67,
2.462,0.26,-0.40,-1.11,-0.52,-0.50,-0.66,
2.466,0.32,-0.47,-0.66,-0.52,-0.50,-0.66,
2.466,0.32,-0.47,-0.66,-0.55,-0.48,-0.65,
2.467,0.32,-0.47,-0.66,-0.57,-0.46,-0.65,
2.469,0.32,-0.47,-0.66,-0.60,-0.43,-0.65,
2.469,0.32,-0.47,-0.66,-0.60,-0.42,-0.65,
2.472,0.32,-0.47,-0.66,-0.62,-0.39,-0.65,
2.481,0.61,-0.55,-0.15,-0.62,-0.39,-0.65,
2.482,0.61,-0.55,-0.15,-0.63,-0.37,-0.65,
2.482,0.61,-0.55,-0.15,-0.64,-0.35,-0.66,
2.483,0.61,-0.55,-0.15,-0.64,-0.33,-0.67,
2.483,0.61,-0.55,-0.15,-0.64,-0.32,-0.68,
2.483,0.61,-0.55,-0.15,-0.65,-0.30,-0.69,
2.484,0.87,-0.53,0.45,-0.65,-0.30,-0.69,
2.484,0.87,-0.53,0.45,-0.64,-0.29,-0.70,
2.486,0.87,-0.53,0.45,-0.64,-0.27,-0.71,
2.489,0.87,-0.53,0.45,-0.63,-0.26,-0.72,
2.499,0.87,-0.53,0.45,-0.62,-0.26,-0.73,
2.499,0.87,-0.53,0.45,-0.62,-0.25,-0.74,
2.5,1.00,-0.59,0.84,-0.62,-0.25,-0.74,
2.5,1.00,-0.59,0.84,-0.60,-0.24,-0.75,
2.5,1.00,-0.59,0.84,-0.60,-0.24,-0.76,
2.501,1.00,-0.59,0.84,-0.58,-0.24,-0.77,
2.501,1.00,-0.59,0.84,-0.57,-0.25,-0.78,
2.502,1.00,-0.59,0.84,-0.56,-0.26,-0.79,
2.503,0.82,-0.68,0.95,-0.56,-0.26,-0.79,
2.504,0.82,-0.68,0.95,-0.56,-0.26,-0.79,
2.51,0.82,-0.68,0.95,-0.54,-0.27,-0.79,
2.51,0.82,-0.68,0.95,-0.53,-0.28,-0.80,
2.511,0.82,-0.68,0.95,-0.52,-0.28,-0.80,
2.512,0.82,-0.68,0.95,-0.51,-0.29,-0.80,
2.514,0.54,-0.76,0.90,-0.51,-0.29,-0.80,
2.514,0.54,-0.76,0.90,-0.50,-0.29,-0.80,
2.516,0.54,-0.76,0.90,-0.48,-0.31,-0.80,
2.519,0.54,-0.76,0.90,-0.46,-0.32,-0.80,
2.52,0.54,-0.76,0.90,-0.46,-0.33,-0.80,
2.523,0.54,-0.76,0.90,-0.44,-0.34,-0.80,
2.524,0.28,-0.78,0.84,-0.44,-0.34,-0.80,
2.524,0.28,-0.78,0.84,-0.43,-0.36,-0.80,
2.526,0.28,-0.78,0.84,-0.41,-0.37,-0.80,
2.529,0.28,-0.78,0.84,-0.39,-0.40,-0.80,
2.53,0.28,-0.78,0.84,-0.38,-0.40,-0.80,
2.532,0.28,-0.78,0.84,-0.37,-0.42,-0.80,
2.534,0.10,-0.75,0.75,-0.37,-0.42,-0.80,
2.534,0.10,-0.75,0.75,-0.35,-0.43,-0.80,
2.536,0.10,-0.75,0.75,-0.34,-0.45,-0.80,
2.54,0.10,-0.75,0.75,-0.32,-0.47,-0.81,
2.54,0.10,-0.75,0.75,-0.31,-0.47,-0.81,
2.542,0.10,-0.75,0.75,-0.29,-0.49,-0.81,
2.544,-0.01,-0.66,0.43,-0.29,-0.49,-0.81,
2.544,-0.01,-0.66,0.43,-0.29,-0.50,-0.81,
2.546,-0.01,-0.66,0.43,-0.27,-0.52,-0.82,
2.549,-0.01,-0.66,0.43,-0.26,-0.55,-0.82,
2.55,-0.01,-0.66,0.43,-0.25,-0.56,-0.82,
2.552,-0.01,-0.66,0.43,-0.25,-0.58,-0.82,
2.554,-0.04,-0.59,0.16,-0.25,-0.58,-0.82,
2.554,-0.04,-0.59,0.16,-0.24,-0.60,-0.82,
2.556,-0.04,-0.59,0.16,-0.23,-0.62,-0.82,
2.559,-0.04,-0.59,0.16,-0.23,-0.65,-0.83,
2.561,-0.04,-0.59,0.16,-0.22,-0.66,-0.83,
2.562,-0.04,-0.59,0.16,-0.22,-0.68,-0.83,
2.564,-0.02,-0.51,-0.11,-0.22,-0.68,-0.83,
2.564,-0.02,-0.51,-0.11,-0.22,-0.70,-0.84,
2.566,-0.02,-0.51,-0.11,-0.22,-0.72,-0.84,
2.569,-0.02,-0.51,-0.11,-0.22,-0.75,-0.85,
2.582,0.07,-0.43,-0.33,-0.22,-0.75,-0.85,
2.616,0.07,-0.43,-0.33,-0.22,-0.81,-0.87,
2.617,0.07,-0.43,-0.33,-0.22,-0.81,-0.87,
2.617,0.07,-0.43,-0.33,-0.22,-0.81,-0.87,
2.618,0.07,-0.43,-0.33,-0.22,-0.82,-0.88,
2.618,0.07,-0.43,-0.33,-0.23,-0.85,-0.89,
2.619,0.07,-0.43,-0.33,-0.23,-0.85,-0.90,
2.619,0.07,-0.43,-0.33,-0.23,-0.87,-0.90,
2.62,0.08,-0.40,-0.41,-0.23,-0.87,-0.90,
2.62,0.08,-0.40,-0.41,-0.24,-0.88,-0.91,
2.62,0.08,-0.40,-0.41,-0.25,-0.89,-0.91,
2.621,0.08,-0.40,-0.41,-0.26,-0.90,-0.92,
2.622,0.08,-0.40,-0.41,-0.26,-0.90,-0.93,
2.622,0.08,-0.40,-0.41,-0.27,-0.90,-0.93,
2.623,0.03,-0.44,-0.46,-0.27,-0.90,-0.93,
2.623,0.03,-0.44,-0.46,-0.27,-0.90,-0.94,
2.623,0.03,-0.44,-0.46,-0.28,-0.90,-0.95,
2.624,0.03,-0.44,-0.46,-0.29,-0.91,-0.95,
2.624,0.03,-0.44,-0.46,-0.30,-0.91,-0.96,
2.625,0.03,-0.44,-0.46,-0.31,-0.90,-0.96,
2.625,-0.01,-0.48,-0.40,-0.31,-0.90,-0.96,
2.626,-0.01,-0.48,-0.40,-0.32,-0.90,-0.96,
2.626,-0.01,-0.48,-0.40,-0.33,-0.89,-0.97,
2.626,-0.01,-0.48,-0.40,-0.34,-0.88,-0.98,
2.627,-0.01,-0.48,-0.40,-0.34,-0.87,-0.98,
2.627,-0.01,-0.48,-0.40,-0.35,-0.86,-0.98,
2.628,-0.10,-0.47,-0.25,-0.35,-0.86,-0.98,
2.628,-0.10,-0.47,-0.25,-0.36,-0.85,-0.98,
2.629,-0.10,-0.47,-0.25,-0.37,-0.84,-0.98,
2.629,-0.10,-0.47,-0.25,-0.38,-0.82,-0.98,
2.629,-0.10,-0.47,-0.25,-0.39,-0.82,-0.98,
2.63,-0.10,-0.47,-0.25,-0.39,-0.80,-0.98,
2.63,-0.24,-0.53,-0.15,-0.39,-0.80,-0.98,
2.631,-0.24,-0.53,-0.15,-0.40,-0.79,-0.98,
2.631,-0.24,-0.53,-0.15,-0.42,-0.77,-0.98,
2.632,-0.24,-0.53,-0.15,-0.43,-0.74,-0.98,
2.632,-0.24,-0.53,-0.15,-0.43,-0.73,-0.98,
2.632,-0.24,-0.53,-0.15,-0.44,-0.71,-0.98,
2.635,-0.26,-0.61,-0.05,-0.44,-0.71,-0.98,
2.635,-0.26,-0.61,-0.05,-0.45,-0.70,-0.97,
2.636,-0.26,-0.61,-0.05,-0.46,-0.69,-0.97,
2.649,-0.26,-0.61,-0.05,-0.47,-0.68,-0.96,
2.65,-0.26,-0.61,-0.05,-0.47,-0.68,-0.96,
2.65,-0.26,-0.61,-0.05,-0.48,-0.67,-0.96,
2.65,-0.22,-0.59,-0.04,-0.48,-0.67,-0.96,
2.651,-0.22,-0.59,-0.04,-0.49,-0.66,-0.97,
2.651,-0.22,-0.59,-0.04,-0.50,-0.65,-0.97,
2.651,-0.22,-0.59,-0.04,-0.52,-0.64,-0.97,
2.652,-0.22,-0.59,-0.04,-0.52,-0.64,-0.97,
2.652,-0.22,-0.59,-0.04,-0.53,-0.64,-0.97,
2.653,-0.21,-0.56,-0.10,-0.53,-0.64,-0.97,
2.654,-0.21,-0.56,-0.10,-0.54,-0.64,-0.97,
2.658,-0.21,-0.56,-0.10,-0.55,-0.64,-0.97,
2.659,-0.21,-0.56,-0.10,-0.57,-0.65,-0.97,
2.66,-0.21,-0.56,-0.10,-0.57,-0.65,-0.97,
2.662,-0.21,-0.56,-0.10,-0.58,-0.66,-0.97,
2.664,-0.32,-0.47,-0.15,-0.58,-0.66,-0.97,
2.665,-0.32,-0.47,-0.15,-0.59,-0.68,-0.97,
2.666,-0.32,-0.47,-0.15,-0.60,-0.70,-0.97,
2.668,-0.32,-0.47,-0.15,-0.61,-0.74,-0.98,
2.67,-0.32,-0.47,-0.15,-0.62,-0.76,-0.98,
2.673,-0.32,-0.47,-0.15,-0.62,-0.80,-0.98,
2.674,-0.40,-0.32,-0.08,-0.62,-0.80,-0.98,
2.674,-0.40,-0.32,-0.08,-0.63,-0.83,-0.98,
2.676,-0.40,-0.32,-0.08,-0.63,-0.87,-0.98,
2.679,-0.40,-0.32,-0.08,-0.63,-0.92,-0.99,
2.68,-0.40,-0.32,-0.08,-0.63,-0.94,-0.99,
2.682,-0.40,-0.32,-0.08,-0.63,-0.98,-0.99,
2.684,-0.57,-0.14,0.26,-0.63,-0.98,-0.99,
2.684,-0.57,-0.14,0.26,-0.62,-1.02,-0.99,
2.686,-0.57,-0.14,0.26,-0.61,-1.05,-0.99,
2.689,-0.57,-0.14,0.26,-0.60,-1.10,-0.99,
2.69,-0.57,-0.14,0.26,-0.59,-1.12,-0.98,
2.692,-0.57,-0.14,0.26,-0.57,-1.16,-0.98,
2.694,-0.83,-0.11,0.79,-0.57,-1.16,-0.98,
2.695,-0.83,-0.11,0.79,-0.56,-1.20,-0.97,
2.696,-0.83,-0.11,0.79,-0.54,-1.24,-0.97,
2.699,-0.83,-0.11,0.79,-0.50,-1.30,-0.96,
2.699,-0.83,-0.11,0.79,-0.49,-1.32,-0.95,
2.701,-0.83,-0.11,0.79,-0.47,-1.36,-0.94,
2.704,-0.93,-0.03,1.14,-0.47,-1.36,-0.94,
2.704,-0.93,-0.03,1.14,-0.44,-1.40,-0.94,
2.717,-0.93,-0.03,1.14,-0.42,-1.43,-0.92,
2.719,-0.93,-0.03,1.14,-0.38,-1.48,-0.90,
2.719,-0.93,-0.03,1.14,-0.37,-1.49,-0.90,
2.72,-0.93,-0.03,1.14,-0.35,-1.51,-0.88,
2.721,-1.04,0.09,1.08,-0.35,-1.51,-0.88,
2.721,-1.04,0.09,1.08,-0.33,-1.53,-0.87,
2.722,-1.04,0.09,1.08,-0.32,-1.55,-0.86,
2.723,-1.04,0.09,1.08,-0.31,-1.56,-0.85,
2.724,-1.04,0.09,1.08,-0.30,-1.57,-0.84,
2.725,-1.04,0.09,1.08,-0.30,-1.58,-0.84,
2.726,-0.81,0.08,0.60,-0.30,-1.58,-0.84,
2.726,-0.81,0.08,0.60,-0.30,-1.59,-0.83,
2.74,-0.81,0.08,0.60,-0.30,-1.59,-0.83,
2.741,-0.81,0.08,0.60,-0.31,-1.59,-0.83,
2.742,-0.81,0.08,0.60,-0.31,-1.59,-0.83,
2.742,-0.81,0.08,0.60,-0.32,-1.59,-0.83,
2.742,-0.42,-0.00,0.20,-0.32,-1.59,-0.83,
2.743,-0.42,-0.00,0.20,-0.33,-1.59,-0.83,
2.743,-0.42,-0.00,0.20,-0.33,-1.58,-0.83,
2.778,-0.42,-0.00,0.20,-0.35,-1.56,-0.83,
2.778,-0.42,-0.00,0.20,-0.36,-1.56,-0.83,
2.779,-0.42,-0.00,0.20,-0.37,-1.54,-0.82,
2.779,-0.19,-0.02,-0.10,-0.37,-1.54,-0.82,
2.78,-0.19,-0.02,-0.10,-0.38,-1.52,-0.82,
2.78,-0.19,-0.02,-0.10,-0.40,-1.49,-0.82,
2.781,-0.19,-0.02,-0.10,-0.43,-1.45,-0.81,
2.781,-0.19,-0.02,-0.10,-0.44,-1.43,-0.81,
2.782,-0.19,-0.02,-0.10,-0.46,-1.40,-0.81,
2.782,-0.18,0.01,-0.23,-0.46,-1.40,-0.81,
2.783,-0.18,0.01,-0.23,-0.48,-1.38,-0.81,
2.783,-0.18,0.01,-0.23,-0.50,-1.37,-0.82,
2.784,-0.18,0.01,-0.23,-0.52,-1.37,-0.82,
2.784,-0.18,0.01,-0.23,-0.53,-1.37,-0.83,
2.786,-0.18,0.01,-0.23,-0.54,-1.39,-0.83,
2.787,-0.35,0.03,-0.11,-0.54,-1.39,-0.83,
2.787,-0.35,0.03,-0.11,-0.55,-1.42,-0.83,
2.788,-0.35,0.03,-0.11,-0.56,-1.45,-0.83,
2.788,-0.35,0.03,-0.11,-0.57,-1.52,-0.84,
2.789,-0.35,0.03,-0.11,-0.57,-1.54,-0.85,
2.789,-0.35,0.03,-0.11,-0.58,-1.59,-0.86,
2.79,-0.54,-0.22,0.06,-0.58,-1.59,-0.86,
2.79,-0.54,-0.22,0.06,-0.58,-1.64,-0.87,
2.792,-0.54,-0.22,0.06,-0.58,-1.69,-0.88,
2.793,-0.54,-0.22,0.06,-0.58,-1.77,-0.90,
2.794,-0.54,-0.22,0.06,-0.58,-1.79,-0.90,
2.794,-0.54,-0.22,0.06,-0.58,-1.84,-0.91,
2.794,-0.49,-0.36,0.51,-0.58,-1.84,-0.91,
2.795,-0.49,-0.36,0.51,-0.57,-1.88,-0.92,
2.795,-0.49,-0.36,0.51,-0.56,-1.93,-0.93,
2.796,-0.49,-0.36,0.51,-0.54,-2.01,-0.94,
2.796,-0.49,-0.36,0.51,-0.53,-2.04,-0.95,
2.796,-0.49,-0.36,0.51,-0.51,-2.10,-0.96,
2.797,-0.49,-0.32,1.18,-0.51,-2.10,-0.96,
2.797,-0.49,-0.32,1.18,-0.48,-2.16,-0.97,
2.798,-0.49,-0.32,1.18,-0.45,-2.21,-0.98,
2.8,-0.49,-0.32,1.18,-0.40,-2.29,-0.99,
2.801,-0.49,-0.32,1.18,-0.38,-2.31,-0.99,
2.802,-0.49,-0.32,1.18,-0.33,-2.35,-1.00,
2.818,-0.46,-0.43,1.85,-0.33,-2.35,-1.00,
2.818,-0.46,-0.43,1.85,-0.29,-2.38,-1.00,
2.819,-0.46,-0.43,1.85,-0.24,-2.41,-1.00,
2.82,-0.46,-0.43,1.85,-0.15,-2.43,-1.01,
2.821,-0.46,-0.43,1.85,-0.12,-2.43,-1.01,
2.821,-0.46,-0.43,1.85,-0.06,-2.44,-1.01,
2.821,-0.91,-0.56,2.39,-0.06,-2.44,-1.01,
2.822,-0.91,-0.56,2.39,0.01,-2.43,-1.00,
2.822,-0.91,-0.56,2.39,0.07,-2.42,-1.00,
2.823,-0.91,-0.56,2.39,0.18,-2.40,-0.98,
2.827,-0.91,-0.56,2.39,0.25,-2.38,-0.97,
2.828,-0.91,-0.56,2.39,0.29,-2.37,-0.96,
2.829,-1.56,-0.69,2.44,0.29,-2.37,-0.96,
2.83,-1.56,-0.69,2.44,0.36,-2.36,-0.95,
2.83,-1.56,-0.69,2.44,0.42,-2.34,-0.93,
2.83,-1.56,-0.69,2.44,0.51,-2.32,-0.90,
2.831,-1.56,-0.69,2.44,0.54,-2.32,-0.89,
2.832,-1.56,-0.69,2.44,0.59,-2.31,-0.87,
2.834,-1.95,-0.89,1.80,0.59,-2.31,-0.87,
2.834,-1.95,-0.89,1.80,0.63,-2.30,-0.84,
2.836,-1.95,-0.89,1.80,0.67,-2.30,-0.82,
2.849,-1.95,-0.89,1.80,0.70,-2.30,-0.77,
2.85,-1.95,-0.89,1.80,0.71,-2.30,-0.75,
2.851,-1.95,-0.89,1.80,0.73,-2.30,-0.71,
2.851,-2.11,-1.11,0.67,0.73,-2.30,-0.71,
2.852,-2.11,-1.11,0.67,0.73,-2.30,-0.67,
2.853,-2.11,-1.11,0.67,0.72,-2.30,-0.64,
2.854,-2.11,-1.11,0.67,0.71,-2.30,-0.58,
2.855,-2.11,-1.11,0.67,0.69,-2.30,-0.55,
2.857,-2.11,-1.11,0.67,0.67,-2.29,-0.52,
2.857,-2.10,-1.19,-0.48,0.67,-2.29,-0.52,
2.858,-2.10,-1.19,-0.48,0.65,-2.28,-0.51,
2.858,-2.10,-1.19,-0.48,0.62,-2.28,-0.48,
2.864,-2.10,-1.19,-0.48,0.56,-2.26,-0.46,
2.865,-2.10,-1.19,-0.48,0.54,-2.26,-0.45,
2.865,-2.10,-1.19,-0.48,0.49,-2.26,-0.45,
2.866,-1.22,-1.14,-1.26,0.49,-2.26,-0.45,
2.866,-1.22,-1.14,-1.26,0.44,-2.26,-0.45,
2.866,-1.22,-1.14,-1.26,0.38,-2.26,-0.46,
2.869,-1.22,-1.14,-1.26,0.28,-2.28,-0.49,
2.875,-1.22,-1.14,-1.26,0.24,-2.29,-0.51,
2.877,-1.22,-1.14,-1.26,0.17,-2.31,-0.54,
2.878,0.02,-0.99,-1.91,0.17,-2.31,-0.54,
2.878,0.02,-0.99,-1.91,0.10,-2.34,-0.58,
2.879,0.02,-0.99,-1.91,0.03,-2.37,-0.62,
2.879,0.02,-0.99,-1.91,-0.07,-2.42,-0.68,
2.88,0.02,-0.99,-1.91,-0.10,-2.44,-0.70,
2.882,0.02,-0.99,-1.91,-0.16,-2.48,-0.74,
2.884,0.71,-0.79,-1.61,-0.16,-2.48,-0.74,
2.885,0.71,-0.79,-1.61,-0.22,-2.52,-0.78,
2.886,0.71,-0.79,-1.61,-0.27,-2.56,-0.81,
2.889,0.71,-0.79,-1.61,-0.32,-2.60,-0.85,
2.89,0.71,-0.79,-1.61,-0.33,-2.61,-0.87,
2.893,0.71,-0.79,-1.61,-0.36,-2.64,-0.89,
2.894,0.59,-0.82,-0.24,-0.36,-2.64,-0.89,
2.894,0.59,-0.82,-0.24,-0.37,-2.64,-0.90,
2.896,0.59,-0.82,-0.24,-0.38,-2.64,-0.91,
2.899,0.59,-0.82,-0.24,-0.36,-2.63,-0.90,
2.9,0.59,-0.82,-0.24,-0.35,-2.62,-0.89,
2.902,0.59,-0.82,-0.24,-0.33,-2.59,-0.86,
2.906,-0.55,-0.98,1.28,-0.33,-2.59,-0.86,
2.94,-0.55,-0.98,1.28,-0.30,-2.55,-0.83,
2.94,-0.55,-0.98,1.28,-0.25,-2.52,-0.80,
2.941,-0.55,-0.98,1.28,-0.18,-2.44,-0.74,
2.942,-0.55,-0.98,1.28,-0.16,-2.42,-0.71,
2.942,-0.55,-0.98,1.28,-0.11,-2.36,-0.67,
2.943,-1.51,-1.38,2.39,-0.11,-2.36,-0.67,
2.944,-1.51,-1.38,2.39,-0.05,-2.29,-0.63,
2.944,-1.51,-1.38,2.39,0.00,-2.21,-0.59,
2.945,-1.51,-1.38,2.39,0.08,-2.06,-0.54,
2.946,-1.51,-1.38,2.39,0.10,-2.00,-0.51,
2.946,-1.51,-1.38,2.39,0.14,-1.88,-0.47,
2.947,-1.78,-1.53,2.24,0.14,-1.88,-0.47,
2.947,-1.78,-1.53,2.24,0.17,-1.74,-0.42,
2.947,-1.78,-1.53,2.24,0.19,-1.59,-0.37,
2.948,-1.78,-1.53,2.24,0.19,-1.36,-0.28,
2.948,-1.78,-1.53,2.24,0.19,-1.28,-0.25,
2.949,-1.78,-1.53,2.24,0.17,-1.12,-0.18,
2.949,-2.57,-1.34,0.96,0.17,-1.12,-0.18,
2.95,-2.57,-1.34,0.96,0.15,-0.96,-0.12,
2.95,-2.57,-1.34,0.96,0.12,-0.80,-0.07,
2.95,-2.57,-1.34,0.96,0.04,-0.58,0.01,
2.951,-2.57,-1.34,0.96,0.01,-0.51,0.04,
2.951,-2.57,-1.34,0.96,-0.05,-0.37,0.07,
2.952,-1.88,-0.88,-0.65,-0.05,-0.37,0.07,
2.952,-1.88,-0.88,-0.65,-0.13,-0.26,0.11,
2.953,-1.88,-0.88,-0.65,-0.21,-0.16,0.14,
2.953,-1.88,-0.88,-0.65,-0.33,-0.05,0.16,
2.953,-1.88,-0.88,-0.65,-0.37,-0.02,0.16,
2.954,-1.88,-0.88,-0.65,-0.46,0.02,0.15,
2.954,-0.19,-0.65,-1.88,-0.46,0.02,0.15,
2.954,-0.19,-0.65,-1.88,-0.55,0.04,0.14,
2.957,-0.19,-0.65,-1.88,-0.63,0.05,0.12,
2.959,-0.19,-0.65,-1.88,-0.75,0.03,0.07,
2.96,-0.19,-0.65,-1.88,-0.79,0.01,0.05,
2.962,-0.19,-0.65,-1.88,-0.87,-0.03,0.01,
2.964,0.96,-0.37,-1.77,-0.87,-0.03,0.01,
2.964,0.96,-0.37,-1.77,-0.93,-0.08,-0.03,
2.966,0.96,-0.37,-1.77,-0.98,-0.14,-0.06,
2.97,0.96,-0.37,-1.77,-1.04,-0.24,-0.11,
2.971,0.96,-0.37,-1.77,-1.07,-0.31,-0.12,
2.972,0.96,-0.37,-1.77,-1.08,-0.34,-0.13,
2.975,0.42,-0.23,-0.65,-1.08,-0.34,-0.13,
2.977,0.42,-0.23,-0.65,-1.09,-0.41,-0.14,
2.977,0.42,-0.23,-0.65,-1.08,-0.49,-0.15,
2.979,0.42,-0.23,-0.65,-1.06,-0.59,-0.16,
2.98,0.42,-0.23,-0.65,-1.04,-0.63,-0.16,
2.982,0.42,-0.23,-0.65,-1.01,-0.69,-0.17,
2.983,-0.27,-0.33,1.13,-1.01,-0.69,-0.17,
2.984,-0.27,-0.33,1.13,-0.97,-0.76,-0.18,
2.985,-0.27,-0.33,1.13,-0.92,-0.82,-0.19,
2.992,-0.27,-0.33,1.13,-0.84,-0.90,-0.20,
2.993,-0.27,-0.33,1.13,-0.81,-0.93,-0.21,
2.993,-0.27,-0.33,1.13,-0.74,-0.98,-0.22,
2.994,-0.28,-0.30,2.49,-0.74,-0.98,-0.22,
2.994,-0.28,-0.30,2.49,-0.67,-1.01,-0.23,
2.996,-0.28,-0.30,2.49,-0.60,-1.05,-0.24,
3.001,-0.28,-0.30,2.49,-0.50,-1.10,-0.24,
3.001,-0.28,-0.30,2.49,-0.43,-1.12,-0.25,
3.001,-0.28,-0.30,2.49,-0.39,-1.13,-0.24,
3.015,-0.37,-0.17,3.07,-0.39,-1.13,-0.24,
3.016,-0.37,-0.17,3.07,-0.32,-1.14,-0.24,
3.017,-0.37,-0.17,3.07,-0.26,-1.15,-0.24,
3.017,-0.37,-0.17,3.07,-0.18,-1.16,-0.22,
3.017,-0.37,-0.17,3.07,-0.15,-1.16,-0.21,
3.018,-0.37,-0.17,3.07,-0.10,-1.15,-0.20,
3.018,-0.55,-0.32,2.84,-0.10,-1.15,-0.20,
3.019,-0.55,-0.32,2.84,-0.06,-1.14,-0.19,
3.019,-0.55,-0.32,2.84,-0.02,-1.11,-0.18,
3.02,-0.55,-0.32,2.84,0.02,-1.06,-0.16,
3.028,-0.55,-0.32,2.84,0.03,-1.04,-0.15,
3.029,-0.55,-0.32,2.84,0.04,-1.00,-0.15,
3.03,-0.62,-0.29,2.09,0.04,-1.00,-0.15,
3.03,-0.62,-0.29,2.09,0.05,-0.95,-0.15,
3.031,-0.62,-0.29,2.09,0.06,-0.90,-0.15,
3.031,-0.62,-0.29,2.09,0.06,-0.83,-0.17,
3.032,-0.62,-0.29,2.09,0.05,-0.81,-0.17,
3.032,-0.62,-0.29,2.09,0.05,-0.78,-0.19,
3.034,-0.25,0.09,1.30,0.05,-0.78,-0.19,
3.034,-0.25,0.09,1.30,0.04,-0.75,-0.21,
3.036,-0.25,0.09,1.30,0.03,-0.72,-0.24,
3.04,-0.25,0.09,1.30,0.01,-0.70,-0.28,
3.04,-0.25,0.09,1.30,0.00,-0.69,-0.29,
3.042,-0.25,0.09,1.30,-0.01,-0.68,-0.32,
3.043,0.10,0.07,0.57,-0.01,-0.68,-0.32,
3.044,0.10,0.07,0.57,-0.02,-0.66,-0.34,
3.046,0.10,0.07,0.57,-0.04,-0.65,-0.36,
3.049,0.10,0.07,0.57,-0.06,-0.63,-0.39,
3.05,0.10,0.07,0.57,-0.07,-0.62,-0.39,
3.052,0.10,0.07,0.57,-0.08,-0.62,-0.41,
3.054,0.15,-0.07,0.03,-0.08,-0.62,-0.41,
3.055,0.15,-0.07,0.03,-0.10,-0.63,-0.42,
3.056,0.15,-0.07,0.03,-0.11,-0.65,-0.44,
3.059,0.15,-0.07,0.03,-0.14,-0.67,-0.47,
3.06,0.15,-0.07,0.03,-0.14,-0.69,-0.48,
3.062,0.15,-0.07,0.03,-0.15,-0.72,-0.51,
3.064,0.44,0.05,-0.12,-0.15,-0.72,-0.51,
3.064,0.44,0.05,-0.12,-0.16,-0.74,-0.54,
3.066,0.44,0.05,-0.12,-0.17,-0.77,-0.57,
3.069,0.44,0.05,-0.12,-0.16,-0.82,-0.61,
3.071,0.44,0.05,-0.12,-0.16,-0.83,-0.62,
3.1,0.44,0.05,-0.12,-0.15,-0.87,-0.65,
3.1,0.45,0.21,0.16,-0.15,-0.87,-0.65,
3.101,0.45,0.21,0.16,-0.14,-0.89,-0.68,
3.101,0.45,0.21,0.16,-0.13,-0.92,-0.70,
3.102,0.45,0.21,0.16,-0.10,-0.96,-0.73,
3.102,0.45,0.21,0.16,-0.09,-0.97,-0.74,
3.103,0.45,0.21,0.16,-0.07,-0.99,-0.75,
3.103,-0.04,0.17,0.58,-0.07,-0.99,-0.75,
3.103,-0.04,0.17,0.58,-0.05,-1.01,-0.77,
3.104,-0.04,0.17,0.58,-0.03,-1.03,-0.78,
3.104,-0.04,0.17,0.58,-0.00,-1.05,-0.78,
3.105,-0.04,0.17,0.58,0.01,-1.06,-0.78,
3.105,-0.04,0.17,0.58,0.03,-1.07,-0.79,
3.106,-0.74,0.05,0.90,0.03,-1.07,-0.79,
3.106,-0.74,0.05,0.90,0.04,-1.07,-0.78,
3.107,-0.74,0.05,0.90,0.06,-1.07,-0.77,
3.107,-0.74,0.05,0.90,0.08,-1.04,-0.76,
3.107,-0.74,0.05,0.90,0.09,-1.02,-0.74,
3.108,-0.74,0.05,0.90,0.09,-1.01,-0.73,
3.108,-1.37,-0.11,0.77,0.09,-1.01,-0.73,
3.109,-1.37,-0.11,0.77,0.10,-0.98,-0.71,
3.109,-1.37,-0.11,0.77,0.11,-0.95,-0.69,
3.11,-1.37,-0.11,0.77,0.11,-0.90,-0.64,
3.11,-1.37,-0.11,0.77,0.11,-0.89,-0.62,
3.113,-1.37,-0.11,0.77,0.11,-0.85,-0.59,
3.113,-1.83,-0.21,0.54,0.11,-0.85,-0.59,
3.114,-1.83,-0.21,0.54,0.11,-0.81,-0.56,
3.116,-1.83,-0.21,0.54,0.10,-0.77,-0.52,
3.119,-1.83,-0.21,0.54,0.10,-0.71,-0.47,
3.125,-1.83,-0.21,0.54,0.09,-0.68,-0.46,
3.126,-1.83,-0.21,0.54,0.09,-0.65,-0.43,
3.126,-1.93,-0.31,0.43,0.09,-0.65,-0.43,
3.126,-1.93,-0.31,0.43,0.09,-0.61,-0.40,
3.126,-1.93,-0.31,0.43,0.08,-0.58,-0.37,
3.129,-1.93,-0.31,0.43,0.07,-0.55,-0.35,
3.13,-1.93,-0.31,0.43,0.07,-0.54,-0.34,
3.132,-1.93,-0.31,0.43,0.06,-0.53,-0.32,
3.134,-1.85,-0.23,0.22,0.06,-0.53,-0.32,
3.134,-1.85,-0.23,0.22,0.05,-0.52,-0.31,
3.137,-1.85,-0.23,0.22,0.04,-0.53,-0.30,
3.139,-1.85,-0.23,0.22,0.02,-0.56,-0.28,
3.14,-1.85,-0.23,0.22,0.01,-0.57,-0.28,
3.143,-1.85,-0.23,0.22,-0.00,-0.59,-0.27,
3.144,-1.57,-0.30,-0.15,-0.00,-0.59,-0.27,
3.144,-1.57,-0.30,-0.15,-0.01,-0.62,-0.27,
3.146,-1.57,-0.30,-0.15,-0.03,-0.66,-0.26,
3.149,-1.57,-0.30,-0.15,-0.04,-0.71,-0.26,
3.15,-1.57,-0.30,-0.15,-0.04,-0.73,-0.26,
3.151,-1.57,-0.30,-0.15,-0.04,-0.77,-0.26,
3.154,-1.26,-0.38,-0.07,-0.04,-0.77,-0.26,
3.154,-1.26,-0.38,-0.07,-0.04,-0.81,-0.26,
3.156,-1.26,-0.38,-0.07,-0.04,-0.85,-0.26,
3.159,-1.26,-0.38,-0.07,-0.03,-0.91,-0.26,
3.16,-1.26,-0.38,-0.07,-0.02,-0.93,-0.26,
3.162,-1.26,-0.38,-0.07,-0.00,-0.97,-0.27,
3.164,-0.92,-0.37,0.49,-0.00,-0.97,-0.27,
3.164,-0.92,-0.37,0.49,0.03,-1.01,-0.27,
3.166,-0.92,-0.37,0.49,0.06,-1.05,-0.28,
3.17,-0.92,-0.37,0.49,0.11,-1.11,-0.30,
3.171,-0.92,-0.37,0.49,0.15,-1.14,-0.31,
3.172,-0.92,-0.37,0.49,0.17,-1.16,-0.32,
3.173,-0.50,-0.38,1.40,0.17,-1.16,-0.32,
3.174,-0.50,-0.38,1.40,0.22,-1.20,-0.33,
3.176,-0.50,-0.38,1.40,0.27,-1.23,-0.34,
3.179,-0.50,-0.38,1.40,0.34,-1.28,-0.36,
3.18,-0.50,-0.38,1.40,0.39,-1.30,-0.38,
3.181,-0.50,-0.38,1.40,0.42,-1.32,-0.39,
3.183,-0.11,-0.22,2.04,0.42,-1.32,-0.39,
3.184,-0.11,-0.22,2.04,0.47,-1.34,-0.40,
3.186,-0.11,-0.22,2.04,0.52,-1.37,-0.42,
3.189,-0.11,-0.22,2.04,0.60,-1.43,-0.45,
3.19,-0.11,-0.22,2.04,0.66,-1.46,-0.47,
3.192,-0.11,-0.22,2.04,0.69,-1.48,-0.48,
3.194,0.08,-0.17,2.39,0.69,-1.48,-0.48,
3.194,0.08,-0.17,2.39,0.75,-1.51,-0.51,
3.196,0.08,-0.17,2.39,0.81,-1.54,-0.53,
3.198,0.08,-0.17,2.39,0.89,-1.59,-0.56,
3.204,0.08,-0.17,2.39,0.97,-1.62,-0.58,
3.205,0.08,-0.17,2.39,1.00,-1.63,-0.58,
3.205,-0.10,-0.25,2.18,1.00,-1.63,-0.58,
3.205,-0.10,-0.25,2.18,1.02,-1.64,-0.58,
3.206,-0.10,-0.25,2.18,1.06,-1.66,-0.58,
3.209,-0.10,-0.25,2.18,1.12,-1.68,-0.57,
3.21,-0.10,-0.25,2.18,1.15,-1.68,-0.56,
3.212,-0.10,-0.25,2.18,1.16,-1.68,-0.55,
3.213,-0.79,-0.30,1.33,1.16,-1.68,-0.55,
3.214,-0.79,-0.30,1.33,1.18,-1.68,-0.53,
3.215,-0.79,-0.30,1.33,1.19,-1.68,-0.51,
3.22,-0.79,-0.30,1.33,1.19,-1.68,-0.48,
3.221,-0.79,-0.30,1.33,1.18,-1.68,-0.45,
3.223,-0.79,-0.30,1.33,1.16,-1.68,-0.44,
3.223,-1.24,-0.43,-0.25,1.16,-1.68,-0.44,
3.224,-1.24,-0.43,-0.25,1.14,-1.67,-0.42,
3.226,-1.24,-0.43,-0.25,1.10,-1.67,-0.39,
3.229,-1.24,-0.43,-0.25,1.04,-1.66,-0.36,
3.23,-1.24,-0.43,-0.25,0.99,-1.64,-0.33,
3.231,-1.24,-0.43,-0.25,0.96,-1.64,-0.32,
3.233,-1.38,-0.58,-1.58,0.96,-1.64,-0.32,
3.234,-1.38,-0.58,-1.58,0.91,-1.62,-0.29,
3.236,-1.38,-0.58,-1.58,0.85,-1.61,-0.27,
3.267,-1.38,-0.58,-1.58,0.76,-1.58,-0.23,
3.267,-1.38,-0.58,-1.58,0.70,-1.55,-0.20,
3.268,-1.38,-0.58,-1.58,0.68,-1.54,-0.19,
3.269,-1.30,-0.70,-1.99,0.68,-1.54,-0.19,
3.269,-1.30,-0.70,-1.99,0.62,-1.51,-0.16,
3.27,-1.30,-0.70,-1.99,0.57,-1.47,-0.14,
3.27,-1.30,-0.70,-1.99,0.51,-1.41,-0.10,
3.271,-1.30,-0.70,-1.99,0.48,-1.37,-0.08,
3.271,-1.30,-0.70,-1.99,0.46,-1.35,-0.07,
3.272,-1.25,-0.68,-1.55,0.46,-1.35,-0.07,
3.272,-1.25,-0.68,-1.55,0.44,-1.31,-0.05,
3.273,-1.25,-0.68,-1.55,0.42,-1.27,-0.03,
3.273,-1.25,-0.68,-1.55,0.40,-1.21,-0.00,
3.274,-1.25,-0.68,-1.55,0.40,-1.18,0.01,
3.274,-1.25,-0.68,-1.55,0.40,-1.16,0.02,
3.275,-1.18,-0.75,-0.72,0.40,-1.16,0.02,
3.275,-1.18,-0.75,-0.72,0.40,-1.13,0.04,
3.276,-1.18,-0.75,-0.72,0.41,-1.10,0.06,
3.276,-1.18,-0.75,-0.72,0.43,-1.07,0.08,
3.277,-1.18,-0.75,-0.72,0.44,-1.06,0.10,
3.277,-1.18,-0.75,-0.72,0.45,-1.05,0.10,
3.278,-1.17,-0.87,-0.09,0.45,-1.05,0.10,
3.278,-1.17,-0.87,-0.09,0.47,-1.04,0.12,
3.278,-1.17,-0.87,-0.09,0.49,-1.04,0.14,
3.279,-1.17,-0.87,-0.09,0.52,-1.06,0.16,
3.294,-1.17,-0.87,-0.09,0.55,-1.07,0.17,
3.295,-1.17,-0.87,-0.09,0.56,-1.08,0.18,
3.296,-0.82,-0.97,0.04,0.56,-1.08,0.18,
3.296,-0.82,-0.97,0.04,0.59,-1.10,0.19,
3.297,-0.82,-0.97,0.04,0.61,-1.13,0.19,
3.297,-0.82,-0.97,0.04,0.65,-1.16,0.19,
3.297,-0.82,-0.97,0.04,0.67,-1.18,0.18,
3.298,-0.82,-0.97,0.04,0.68,-1.19,0.18,
3.298,0.27,-0.63,-0.33,0.68,-1.19,0.18,
3.298,0.27,-0.63,-0.33,0.69,-1.21,0.16,
3.298,0.27,-0.63,-0.33,0.70,-1.22,0.14,
3.299,0.27,-0.63,-0.33,0.71,-1.24,0.09,
3.314,0.27,-0.63,-0.33,0.70,-1.25,0.06,
3.315,0.27,-0.63,-0.33,0.70,-1.25,0.03,
3.315,1.59,-0.28,-1.20,0.70,-1.25,0.03,
3.315,1.59,-0.28,-1.20,0.69,-1.26,-0.01,
3.316,1.59,-0.28,-1.20,0.67,-1.28,-0.06,
3.316,1.59,-0.28,-1.20,0.64,-1.30,-0.13,
3.316,1.59,-0.28,-1.20,0.61,-1.32,-0.18,
3.317,1.59,-0.28,-1.20,0.59,-1.32,-0.21,
3.317,2.41,-0.06,-1.97,0.59,-1.32,-0.21,
3.317,2.41,-0.06,-1.97,0.56,-1.33,-0.26,
3.318,2.41,-0.06,-1.97,0.52,-1.34,-0.30,
3.324,2.41,-0.06,-1.97,0.47,-1.34,-0.36,
3.325,2.41,-0.06,-1.97,0.43,-1.34,-0.39,
3.325,2.41,-0.06,-1.97,0.41,-1.34,-0.41,
3.326,1.97,-0.00,-2.30,0.41,-1.34,-0.41,
3.326,1.97,-0.00,-2.30,0.37,-1.34,-0.44,
3.327,1.97,-0.00,-2.30,0.33,-1.34,-0.46,
3.329,1.97,-0.00,-2.30,0.28,-1.34,-0.48,
3.33,1.97,-0.00,-2.30,0.26,-1.34,-0.50,
3.332,1.97,-0.00,-2.30,0.24,-1.35,-0.50,
3.334,1.10,-0.25,-2.12,0.24,-1.35,-0.50,
3.335,1.10,-0.25,-2.12,0.22,-1.35,-0.51,
3.338,1.10,-0.25,-2.12,0.19,-1.35,-0.51,
3.339,1.10,-0.25,-2.12,0.17,-1.36,-0.51,
3.34,1.10,-0.25,-2.12,0.16,-1.37,-0.51,
3.342,1.10,-0.25,-2.12,0.16,-1.37,-0.50,
3.344,0.14,-0.51,-1.48,0.16,-1.37,-0.50,
3.344,0.14,-0.51,-1.48,0.15,-1.38,-0.49,
3.346,0.14,-0.51,-1.48,0.15,-1.39,-0.48,
3.349,0.14,-0.51,-1.48,0.16,-1.42,-0.46,
3.35,0.14,-0.51,-1.48,0.16,-1.44,-0.43,
3.352,0.14,-0.51,-1.48,0.17,-1.44,-0.42,
3.354,-0.63,-0.89,-1.02,0.17,-1.44,-0.42,
3.354,-0.63,-0.89,-1.02,0.18,-1.47,-0.40,
3.356,-0.63,-0.89,-1.02,0.19,-1.49,-0.37,
3.359,-0.63,-0.89,-1.02,0.21,-1.53,-0.33,
3.36,-0.63,-0.89,-1.02,0.22,-1.56,-0.30,
3.362,-0.63,-0.89,-1.02,0.23,-1.57,-0.29,
3.364,-1.07,-1.18,-0.55,0.23,-1.57,-0.29,
3.364,-1.07,-1.18,-0.55,0.25,-1.60,-0.25,
3.366,-1.07,-1.18,-0.55,0.26,-1.62,-0.22,
3.369,-1.07,-1.18,-0.55,0.29,-1.65,-0.17,
3.371,-1.07,-1.18,-0.55,0.30,-1.67,-0.14,
3.372,-1.07,-1.18,-0.55,0.31,-1.68,-0.12,
3.374,-1.17,-1.34,-0.34,0.31,-1.68,-0.12,
3.375,-1.17,-1.34,-0.34,0.33,-1.69,-0.09,
3.376,-1.17,-1.34,-0.34,0.34,-1.71,-0.06,
3.379,-1.17,-1.34,-0.34,0.35,-1.73,-0.03,
3.38,-1.17,-1.34,-0.34,0.36,-1.73,-0.01,
3.382,-1.17,-1.34,-0.34,0.36,-1.74,0.00,
3.384,-0.65,-1.19,-0.54,0.36,-1.74,0.00,
3.384,-0.65,-1.19,-0.54,0.36,-1.74,0.02,
3.386,-0.65,-1.19,-0.54,0.35,-1.74,0.04,
3.389,-0.65,-1.19,-0.54,0.32,-1.73,0.05,
3.39,-0.65,-1.19,-0.54,0.29,-1.71,0.05,
3.392,-0.65,-1.19,-0.54,0.25,-1.68,0.05,
3.394,0.46,-0.79,-1.34,0.25,-1.68,0.05,
3.395,0.46,-0.79,-1.34,0.21,-1.65,0.05,
3.396,0.46,-0.79,-1.34,0.15,-1.60,0.05,
3.399,0.46,-0.79,-1.34,0.09,-1.55,0.04,
3.4,0.46,-0.79,-1.34,0.02,-1.50,0.04,
3.411,0.46,-0.79,-1.34,-0.06,-1.44,0.03,
3.412,1.42,-0.50,-2.24,-0.06,-1.44,0.03,
3.44,1.42,-0.50,-2.24,-0.13,-1.37,0.02,
3.441,1.42,-0.50,-2.24,-0.22,-1.29,0.01,
3.441,1.42,-0.50,-2.24,-0.34,-1.18,-0.02,
3.441,1.42,-0.50,-2.24,-0.38,-1.14,-0.03,
3.442,1.42,-0.50,-2.24,-0.46,-1.06,-0.04,
3.442,1.92,-0.37,-2.47,-0.46,-1.06,-0.04,
3.443,1.92,-0.37,-2.47,-0.54,-0.99,-0.06,
3.443,1.92,-0.37,-2.47,-0.62,-0.92,-0.08,
3.444,1.92,-0.37,-2.47,-0.68,-0.86,-0.09,
3.444,1.92,-0.37,-2.47,-0.75,-0.80,-0.11,
3.444,1.92,-0.37,-2.47,-0.80,-0.74,-0.12,
3.445,1.83,-0.31,-1.81,-0.80,-0.74,-0.12,
3.445,1.83,-0.31,-1.81,-0.86,-0.69,-0.14,
3.446,1.83,-0.31,-1.81,-0.90,-0.64,-0.15,
3.446,1.83,-0.31,-1.81,-0.94,-0.59,-0.16,
3.447,1.83,-0.31,-1.81,-0.97,-0.54,-0.17,
3.447,1.83,-0.31,-1.81,-1.00,-0.50,-0.18,
3.447,1.35,-0.55,-0.76,-1.00,-0.50,-0.18,
3.448,1.35,-0.55,-0.76,-1.02,-0.46,-0.18,
3.448,1.35,-0.55,-0.76,-1.03,-0.43,-0.19,
3.449,1.35,-0.55,-0.76,-1.03,-0.40,-0.19,
3.449,1.35,-0.55,-0.76,-1.04,-0.38,-0.19,
3.45,1.35,-0.55,-0.76,-1.03,-0.36,-0.19,
3.45,0.67,-0.80,0.29,-1.03,-0.36,-0.19,
3.451,0.67,-0.80,0.29,-1.02,-0.35,-0.19,
3.451,0.67,-0.80,0.29,-1.01,-0.35,-0.19,
3.451,0.67,-0.80,0.29,-0.99,-0.35,-0.19,
3.452,0.67,-0.80,0.29,-0.96,-0.36,-0.18,
3.452,0.67,-0.80,0.29,-0.93,-0.38,-0.18,
3.457,0.12,-0.93,1.14,-0.93,-0.38,-0.18,
3.458,0.12,-0.93,1.14,-0.90,-0.39,-0.18,
3.458,0.12,-0.93,1.14,-0.87,-0.42,-0.17,
3.459,0.12,-0.93,1.14,-0.83,-0.45,-0.17,
3.462,0.12,-0.93,1.14,-0.80,-0.48,-0.16,
3.462,0.12,-0.93,1.14,-0.76,-0.52,-0.16,
3.466,-0.32,-1.07,1.41,-0.76,-0.52,-0.16,
3.466,-0.32,-1.07,1.41,-0.72,-0.56,-0.16,
3.467,-0.32,-1.07,1.41,-0.68,-0.60,-0.16,
3.472,-0.32,-1.07,1.41,-0.63,-0.68,-0.15,
3.473,-0.32,-1.07,1.41,-0.61,-0.70,-0.15,
3.473,-0.32,-1.07,1.41,-0.57,-0.75,-0.15,
3.474,-0.39,-1.21,1.34,-0.57,-0.75,-0.15,
3.474,-0.39,-1.21,1.34,-0.54,-0.80,-0.14,
3.477,-0.39,-1.21,1.34,-0.50,-0.84,-0.14,
3.479,-0.39,-1.21,1.34,-0.47,-0.89,-0.13,
3.48,-0.39,-1.21,1.34,-0.45,-0.93,-0.13,
3.482,-0.39,-1.21,1.34,-0.43,-0.97,-0.12,
3.486,-0.34,-1.14,0.85,-0.43,-0.97,-0.12,
3.488,-0.34,-1.14,0.85,-0.41,-1.00,-0.11,
3.489,-0.34,-1.14,0.85,-0.40,-1.03,-0.10,
3.489,-0.34,-1.14,0.85,-0.40,-1.04,-0.09,
3.49,-0.34,-1.14,0.85,-0.41,-1.05,-0.09,
3.494,-0.34,-1.14,0.85,-0.42,-1.05,-0.08,
3.494,-0.01,-0.97,0.02,-0.42,-1.05,-0.08,
3.495,-0.01,-0.97,0.02,-0.44,-1.05,-0.08,
3.498,-0.01,-0.97,0.02,-0.46,-1.04,-0.07,
3.498,-0.01,-0.97,0.02,-0.49,-1.03,-0.07,
3.501,-0.01,-0.97,0.02,-0.52,-1.01,-0.08,
3.502,-0.01,-0.97,0.02,-0.56,-0.99,-0.09,
3.506,0.70,-0.80,-0.61,-0.56,-0.99,-0.09,
3.507,0.70,-0.80,-0.61,-0.60,-0.96,-0.09,
3.507,0.70,-0.80,-0.61,-0.64,-0.93,-0.10,
3.511,0.70,-0.80,-0.61,-0.69,-0.89,-0.11,
3.511,0.70,-0.80,-0.61,-0.73,-0.85,-0.13,
3.514,0.70,-0.80,-0.61,-0.77,-0.81,-0.14,
3.514,1.32,-0.61,-0.88,-0.77,-0.81,-0.14,
3.515,1.32,-0.61,-0.88,-0.82,-0.76,-0.16,
3.516,1.32,-0.61,-0.88,-0.86,-0.72,-0.17,
3.521,1.32,-0.61,-0.88,-0.91,-0.69,-0.19,
3.522,1.32,-0.61,-0.88,-0.95,-0.65,-0.21,
3.525,1.32,-0.61,-0.88,-1.00,-0.61,-0.23,
3.525,1.55,-0.46,-0.88,-1.00,-0.61,-0.23,
3.525,1.55,-0.46,-0.88,-1.04,-0.57,-0.24,
3.526,1.55,-0.46,-0.88,-1.08,-0.54,-0.26,
3.529,1.55,-0.46,-0.88,-1.14,-0.50,-0.29,
3.529,1.55,-0.46,-0.88,-1.15,-0.48,-0.30,
3.532,1.55,-0.46,-0.88,-1.18,-0.46,-0.32,
3.539,1.44,-0.57,-0.55,-1.18,-0.46,-0.32,
3.541,1.44,-0.57,-0.55,-1.21,-0.44,-0.33,
3.542,1.44,-0.57,-0.55,-1.23,-0.42,-0.34,
3.543,1.44,-0.57,-0.55,-1.25,-0.41,-0.35,
3.544,1.44,-0.57,-0.55,-1.26,-0.39,-0.36,
3.546,1.44,-0.57,-0.55,-1.27,-0.38,-0.37,
3.547,0.92,-0.77,0.14,-1.27,-0.38,-0.37,
3.548,0.92,-0.77,0.14,-1.28,-0.37,-0.37,
3.551,0.92,-0.77,0.14,-1.28,-0.36,-0.38,
3.552,0.92,-0.77,0.14,-1.27,-0.36,-0.38,
3.552,0.92,-0.77,0.14,-1.25,-0.36,-0.38,
3.567,0.92,-0.77,0.14,-1.25,-0.37,-0.39,
3.568,0.44,-1.05,0.83,-1.25,-0.37,-0.39,
3.568,0.44,-1.05,0.83,-1.23,-0.38,-0.39,
3.568,0.44,-1.05,0.83,-1.21,-0.39,-0.39,
3.569,0.44,-1.05,0.83,-1.18,-0.41,-0.39,
3.569,0.44,-1.05,0.83,-1.16,-0.43,-0.39,
3.569,0.44,-1.05,0.83,-1.12,-0.45,-0.39,
3.569,0.14,-1.22,1.29,-1.12,-0.45,-0.39,
3.569,0.14,-1.22,1.29,-1.09,-0.48,-0.39,
3.57,0.14,-1.22,1.29,-1.06,-0.50,-0.39,
3.57,0.14,-1.22,1.29,-1.00,-0.54,-0.38,
3.575,0.14,-1.22,1.29,-0.90,-0.60,-0.37,
3.597,0.14,-1.22,1.29,-0.90,-0.60,-0.37,
3.597,0.14,-1.22,1.29,-0.90,-0.60,-0.37,
3.597,-0.06,-1.06,1.60,-0.90,-0.60,-0.37,
3.597,-0.06,-1.06,1.60,-0.86,-0.63,-0.36,
3.598,-0.06,-1.06,1.60,-0.83,-0.66,-0.35,
3.598,-0.06,-1.06,1.60,-0.80,-0.68,-0.35,
3.598,-0.06,-1.06,1.60,-0.77,-0.71,-0.34,
3.599,0.01,-0.93,1.28,-0.77,-0.71,-0.34,
3.599,0.01,-0.93,1.28,-0.75,-0.73,-0.34,
3.599,0.01,-0.93,1.28,-0.73,-0.76,-0.34,
3.599,0.01,-0.93,1.28,-0.71,-0.78,-0.34,
3.6,0.01,-0.93,1.28,-0.70,-0.80,-0.35,
3.6,0.01,-0.93,1.28,-0.70,-0.83,-0.36,
3.6,0.69,-0.83,0.64,-0.70,-0.83,-0.36,
3.601,0.69,-0.83,0.64,-0.70,-0.85,-0.37,
3.601,0.69,-0.83,0.64,-0.70,-0.86,-0.39,
3.601,0.69,-0.83,0.64,-0.71,-0.88,-0.41,
3.601,0.69,-0.83,0.64,-0.71,-0.89,-0.42,
3.602,0.69,-0.83,0.64,-0.72,-0.89,-0.44,
3.604,1.30,-0.57,0.25,-0.72,-0.89,-0.44,
3.604,1.30,-0.57,0.25,-0.73,-0.89,-0.46,
3.606,1.30,-0.57,0.25,-0.74,-0.89,-0.48,
3.609,1.30,-0.57,0.25,-0.76,-0.89,-0.51,
3.609,1.30,-0.57,0.25,-0.76,-0.89,-0.52,
3.612,1.30,-0.57,0.25,-0.78,-0.89,-0.55,
3.614,1.52,-0.48,0.01,-0.78,-0.89,-0.55,
3.614,1.52,-0.48,0.01,-0.79,-0.89,-0.57,
3.616,1.52,-0.48,0.01,-0.81,-0.90,-0.60,
3.62,1.52,-0.48,0.01,-0.83,-0.90,-0.63,
3.62,1.52,-0.48,0.01,-0.84,-0.90,-0.64,
3.624,1.52,-0.48,0.01,-0.86,-0.91,-0.67,
3.625,1.42,-0.51,-0.15,-0.86,-0.91,-0.67,
3.625,1.42,-0.51,-0.15,-0.87,-0.91,-0.69,
3.626,1.42,-0.51,-0.15,-0.89,-0.91,-0.71,
3.628,1.42,-0.51,-0.15,-0.91,-0.91,-0.74,
3.629,1.42,-0.51,-0.15,-0.91,-0.91,-0.75,
3.632,1.42,-0.51,-0.15,-0.92,-0.91,-0.76,
3.634,1.01,-0.74,0.10,-0.92,-0.91,-0.76,
3.635,1.01,-0.74,0.10,-0.93,-0.90,-0.77,
3.638,1.01,-0.74,0.10,-0.93,-0.90,-0.78,
3.642,1.01,-0.74,0.10,-0.93,-0.89,-0.78,
3.642,1.01,-0.74,0.10,-0.93,-0.88,-0.78,
3.642,1.01,-0.74,0.10,-0.93,-0.88,-0.78,
3.646,0.32,-1.02,0.54,-0.93,-0.88,-0.78,
3.646,0.32,-1.02,0.54,-0.92,-0.87,-0.77,
3.646,0.32,-1.02,0.54,-0.92,-0.87,-0.77,
3.65,0.32,-1.02,0.54,-0.90,-0.86,-0.75,
3.651,0.32,-1.02,0.54,-0.90,-0.86,-0.75,
3.654,0.32,-1.02,0.54,-0.89,-0.86,-0.74,
3.655,-0.10,-1.30,0.85,-0.89,-0.86,-0.74,
3.655,-0.10,-1.30,0.85,-0.89,-0.86,-0.73,
3.655,-0.10,-1.30,0.85,-0.88,-0.86,-0.72,
3.661,-0.10,-1.30,0.85,-0.88,-0.86,-0.71,
3.661,-0.10,-1.30,0.85,-0.88,-0.86,-0.70,
3.661,-0.10,-1.30,0.85,-0.88,-0.87,-0.69,
3.665,-0.23,-1.42,0.78,-0.88,-0.87,-0.69,
3.666,-0.23,-1.42,0.78,-0.88,-0.88,-0.67,
3.666,-0.23,-1.42,0.78,-0.88,-0.89,-0.66,
3.67,-0.23,-1.42,0.78,-0.89,-0.91,-0.65,
3.67,-0.23,-1.42,0.78,-0.89,-0.92,-0.65,
3.672,-0.23,-1.42,0.78,-0.89,-0.95,-0.64,
3.673,-0.02,-1.39,0.57,-0.89,-0.95,-0.64,
3.674,-0.02,-1.39,0.57,-0.90,-0.97,-0.64,
3.678,-0.02,-1.39,0.57,-0.91,-1.00,-0.64,
3.678,-0.02,-1.39,0.57,-0.91,-1.05,-0.65,
3.68,-0.02,-1.39,0.57,-0.92,-1.07,-0.65,
3.683,-0.02,-1.39,0.57,-0.92,-1.12,-0.66,
3.69,0.56,-1.12,0.19,-0.92,-1.12,-0.66,
3.691,0.56,-1.12,0.19,-0.93,-1.17,-0.68,
3.691,0.56,-1.12,0.19,-0.93,-1.22,-0.70,
3.691,0.56,-1.12,0.19,-0.95,-1.30,-0.74,
3.705,0.56,-1.12,0.19,-0.95,-1.33,-0.75,
3.706,0.56,-1.12,0.19,-0.96,-1.38,-0.79,
3.706,1.18,-0.93,-0.20,-0.96,-1.38,-0.79,
3.706,1.18,-0.93,-0.20,-0.97,-1.44,-0.82,
3.707,1.18,-0.93,-0.20,-0.98,-1.50,-0.85,
3.707,1.18,-0.93,-0.20,-0.98,-1.59,-0.90,
3.707,1.18,-0.93,-0.20,-0.98,-1.62,-0.92,
3.707,1.18,-0.93,-0.20,-0.97,-1.67,-0.95,
3.708,1.48,-0.76,0.06,-0.97,-1.67,-0.95,
3.708,1.48,-0.76,0.06,-0.96,-1.73,-0.99,
3.708,1.48,-0.76,0.06,-0.95,-1.77,-1.02,
3.709,1.48,-0.76,0.06,-0.92,-1.83,-1.07,
3.71,1.48,-0.76,0.06,-0.91,-1.85,-1.08,
3.712,1.48,-0.76,0.06,-0.88,-1.87,-1.11,
3.714,1.35,-0.70,0.95,-0.88,-1.87,-1.11,
3.715,1.35,-0.70,0.95,-0.85,-1.89,-1.14,
3.716,1.35,-0.70,0.95,-0.82,-1.90,-1.16,
3.721,1.35,-0.70,0.95,-0.77,-1.89,-1.19,
3.721,1.35,-0.70,0.95,-0.75,-1.88,-1.20,
3.722,1.35,-0.70,0.95,-0.72,-1.86,-1.21,
3.724,0.89,-0.82,1.77,-0.72,-1.86,-1.21,
3.724,0.89,-0.82,1.77,-0.68,-1.83,-1.22,
3.725,0.89,-0.82,1.77,-0.65,-1.80,-1.22,
3.729,0.89,-0.82,1.77,-0.61,-1.74,-1.22,
3.73,0.89,-0.82,1.77,-0.60,-1.72,-1.22,
3.731,0.89,-0.82,1.77,-0.57,-1.68,-1.21,
3.734,0.28,-1.13,2.36,-0.57,-1.68,-1.21,
3.735,0.28,-1.13,2.36,-0.54,-1.62,-1.19,
3.736,0.28,-1.13,2.36,-0.52,-1.56,-1.17,
3.765,0.28,-1.13,2.36,-0.48,-1.46,-1.13,
3.766,0.28,-1.13,2.36,-0.47,-1.42,-1.12,
3.766,0.28,-1.13,2.36,-0.45,-1.34,-1.08,
3.767,-0.51,-1.27,2.53,-0.45,-1.34,-1.08,
3.767,-0.51,-1.27,2.53,-0.44,-1.26,-1.04,
3.768,-0.51,-1.27,2.53,-0.42,-1.17,-0.99,
3.768,-0.51,-1.27,2.53,-0.40,-1.05,-0.92,
3.768,-0.51,-1.27,2.53,-0.40,-1.01,-0.89,
3.769,-0.51,-1.27,2.53,-0.40,-0.94,-0.85,
3.769,-1.33,-1.51,2.13,-0.40,-0.94,-0.85,
3.77,-1.33,-1.51,2.13,-0.39,-0.88,-0.82,
3.77,-1.33,-1.51,2.13,-0.39,-0.83,-0.78,
3.771,-1.33,-1.51,2.13,-0.40,-0.78,-0.73,
3.771,-1.33,-1.51,2.13,-0.41,-0.76,-0.72,
3.771,-1.33,-1.51,2.13,-0.42,-0.74,-0.69,
3.772,-1.52,-1.56,1.11,-0.42,-0.74,-0.69,
3.772,-1.52,-1.56,1.11,-0.44,-0.73,-0.67,
3.773,-1.52,-1.56,1.11,-0.46,-0.72,-0.64,
3.773,-1.52,-1.56,1.11,-0.50,-0.72,-0.61,
3.774,-1.52,-1.56,1.11,-0.51,-0.72,-0.60,
3.774,-1.52,-1.56,1.11,-0.54,-0.73,-0.58,
3.774,-1.30,-1.50,-0.12,-0.54,-0.73,-0.58,
3.775,-1.30,-1.50,-0.12,-0.58,-0.74,-0.56,
3.775,-1.30,-1.50,-0.12,-0.62,-0.77,-0.55,
3.779,-1.30,-1.50,-0.12,-0.68,-0.83,-0.55,
3.78,-1.30,-1.50,-0.12,-0.70,-0.85,-0.55,
3.782,-1.30,-1.50,-0.12,-0.74,-0.89,-0.55,
3.792,-0.36,-1.27,-1.27,-0.74,-0.89,-0.55,
3.792,-0.36,-1.27,-1.27,-0.79,-0.95,-0.56,
3.793,-0.36,-1.27,-1.27,-0.84,-1.01,-0.57,
3.793,-0.36,-1.27,-1.27,-0.91,-1.10,-0.60,
3.794,-0.36,-1.27,-1.27,-0.94,-1.12,-0.62,
3.794,-0.36,-1.27,-1.27,-0.98,-1.18,-0.64,
3.819,0.72,-1.01,-2.07,-0.98,-1.18,-0.64,
3.82,0.72,-1.01,-2.07,-1.02,-1.23,-0.68,
3.82,0.72,-1.01,-2.07,-1.05,-1.28,-0.72,
3.821,0.72,-1.01,-2.07,-1.09,-1.36,-0.79,
3.821,0.72,-1.01,-2.07,-1.10,-1.39,-0.81,
3.821,0.72,-1.01,-2.07,-1.12,-1.44,-0.87,
3.821,1.61,-0.57,-1.65,-1.12,-1.44,-0.87,
3.822,1.61,-0.57,-1.65,-1.13,-1.50,-0.93,
3.822,1.61,-0.57,-1.65,-1.13,-1.56,-1.00,
3.822,1.61,-0.57,-1.65,-1.12,-1.65,-1.10,
3.823,1.61,-0.57,-1.65,-1.11,-1.68,-1.14,
3.823,1.61,-0.57,-1.65,-1.09,-1.73,-1.21,
3.823,1.87,-0.46,-0.25,-1.09,-1.73,-1.21,
3.824,1.87,-0.46,-0.25,-1.06,-1.78,-1.27,
3.824,1.87,-0.46,-0.25,-1.02,-1.82,-1.34,
3.824,1.87,-0.46,-0.25,-0.96,-1.86,-1.42,
3.825,1.87,-0.46,-0.25,-0.94,-1.87,-1.44,
3.825,1.87,-0.46,-0.25,-0.88,-1.87,-1.47,
3.827,1.06,-0.96,1.52,-0.88,-1.87,-1.47,
3.828,1.06,-0.96,1.52,-0.82,-1.87,-1.50,
3.829,1.06,-0.96,1.52,-0.76,-1.86,-1.52,
3.83,1.06,-0.96,1.52,-0.65,-1.81,-1.52,
3.83,1.06,-0.96,1.52,-0.62,-1.80,-1.52,
3.835,1.06,-0.96,1.52,-0.54,-1.75,-1.50,
3.836,-0.12,-1.87,2.99,-0.54,-1.75,-1.50,
3.836,-0.12,-1.87,2.99,-0.47,-1.70,-1.48,
3.836,-0.12,-1.87,2.99,-0.39,-1.64,-1.43,
3.839,-0.12,-1.87,2.99,-0.29,-1.54,-1.35,
3.84,-0.12,-1.87,2.99,-0.25,-1.51,-1.32,
3.842,-0.12,-1.87,2.99,-0.19,-1.42,-1.26,
3.843,-1.65,-2.55,3.09,-0.19,-1.42,-1.26,
3.844,-1.65,-2.55,3.09,-0.13,-1.34,-1.19,
3.846,-1.65,-2.55,3.09,-0.08,-1.25,-1.12,
3.85,-1.65,-2.55,3.09,-0.02,-1.11,-1.02,
3.852,-1.65,-2.55,3.09,0.00,-1.06,-0.98,
3.852,-1.65,-2.55,3.09,0.02,-0.97,-0.91,
3.855,-2.59,-2.57,2.53,0.02,-0.97,-0.91,
3.856,-2.59,-2.57,2.53,0.04,-0.89,-0.85,
3.856,-2.59,-2.57,2.53,0.04,-0.80,-0.80,
3.859,-2.59,-2.57,2.53,0.02,-0.71,-0.72,
3.859,-2.59,-2.57,2.53,0.01,-0.69,-0.70,
3.861,-2.59,-2.57,2.53,-0.01,-0.66,-0.66,
3.864,-2.49,-2.62,0.76,-0.01,-0.66,-0.66,
3.865,-2.49,-2.62,0.76,-0.05,-0.65,-0.63,
3.869,-2.49,-2.62,0.76,-0.10,-0.66,-0.60,
3.87,-2.49,-2.62,0.76,-0.18,-0.68,-0.57,
3.871,-2.49,-2.62,0.76,-0.21,-0.69,-0.57,
3.872,-2.49,-2.62,0.76,-0.27,-0.71,-0.56,
3.874,-1.46,-2.34,-1.43,-0.27,-0.71,-0.56,
3.874,-1.46,-2.34,-1.43,-0.33,-0.74,-0.56,
3.876,-1.46,-2.34,-1.43,-0.40,-0.78,-0.56,
3.878,-1.46,-2.34,-1.43,-0.50,-0.86,-0.59,
3.88,-1.46,-2.34,-1.43,-0.53,-0.88,-0.61,
3.882,-1.46,-2.34,-1.43,-0.60,-0.94,-0.64,
3.885,0.61,-1.54,-3.01,-0.60,-0.94,-0.64,
3.886,0.61,-1.54,-3.01,-0.66,-1.00,-0.69,
3.887,0.61,-1.54,-3.01,-0.72,-1.05,-0.74,
3.889,0.61,-1.54,-3.01,-0.81,-1.12,-0.83,
3.89,0.61,-1.54,-3.01,-0.84,-1.14,-0.87,
3.892,0.61,-1.54,-3.01,-0.89,-1.18,-0.95,
3.894,2.58,-0.79,-3.72,-0.89,-1.18,-0.95,
3.894,2.58,-0.79,-3.72,-0.95,-1.22,-1.03,
3.896,2.58,-0.79,-3.72,-1.01,-1.26,-1.11,
3.899,2.58,-0.79,-3.72,-1.09,-1.32,-1.25,
3.901,2.58,-0.79,-3.72,-1.15,-1.36,-1.34,
3.903,2.58,-0.79,-3.72,-1.17,-1.38,-1.39,
3.904,3.83,-0.45,-3.01,-1.17,-1.38,-1.39,
3.94,3.83,-0.45,-3.01,-1.21,-1.42,-1.48,
3.94,3.83,-0.45,-3.01,-1.25,-1.45,-1.57,
3.941,3.83,-0.45,-3.01,-1.28,-1.51,-1.70,
3.941,3.83,-0.45,-3.01,-1.29,-1.52,-1.74,
3.941,3.83,-0.45,-3.01,-1.29,-1.55,-1.82,
3.942,3.75,-0.95,-1.28,-1.29,-1.55,-1.82,
3.942,3.75,-0.95,-1.28,-1.30,-1.57,-1.88,
3.943,3.75,-0.95,-1.28,-1.29,-1.60,-1.94,
3.943,3.75,-0.95,-1.28,-1.26,-1.62,-2.00,
3.944,3.75,-0.95,-1.28,-1.25,-1.62,-2.02,
3.944,3.75,-0.95,-1.28,-1.23,-1.63,-2.04,
3.945,2.46,-1.65,0.58,-1.23,-1.63,-2.04,
3.945,2.46,-1.65,0.58,-1.20,-1.61,-2.04,
3.945,2.46,-1.65,0.58,-1.16,-1.58,-2.03,
3.946,2.46,-1.65,0.58,-1.10,-1.52,-2.00,
3.946,2.46,-1.65,0.58,-1.08,-1.49,-1.99,
3.947,2.46,-1.65,0.58,-1.04,-1.42,-1.95,
3.947,0.22,-2.27,1.97,-1.04,-1.42,-1.95,
3.948,0.22,-2.27,1.97,-0.98,-1.35,-1.90,
3.948,0.22,-2.27,1.97,-0.93,-1.26,-1.85,
3.948,0.22,-2.27,1.97,-0.83,-1.14,-1.76,
3.949,0.22,-2.27,1.97,-0.80,-1.10,-1.73,
3.949,0.22,-2.27,1.97,-0.73,-1.03,-1.67,
3.95,-1.68,-2.61,3.19,-0.73,-1.03,-1.67,
3.95,-1.68,-2.61,3.19,-0.67,-0.96,-1.61,
3.951,-1.68,-2.61,3.19,-0.61,-0.90,-1.54,
3.951,-1.68,-2.61,3.19,-0.53,-0.84,-1.44,
3.951,-1.68,-2.61,3.19,-0.51,-0.83,-1.41,
3.954,-1.68,-2.61,3.19,-0.47,-0.81,-1.34,
3.955,-2.82,-2.99,3.12,-0.47,-0.81,-1.34,
3.956,-2.82,-2.99,3.12,-0.44,-0.81,-1.27,
3.956,-2.82,-2.99,3.12,-0.42,-0.83,-1.20,
3.959,-2.82,-2.99,3.12,-0.39,-0.89,-1.10,
3.96,-2.82,-2.99,3.12,-0.38,-0.92,-1.08,
3.962,-2.82,-2.99,3.12,-0.37,-0.97,-1.02,
3.963,-3.41,-2.98,1.76,-0.37,-0.97,-1.02,
3.964,-3.41,-2.98,1.76,-0.36,-1.03,-0.96,
3.973,-3.41,-2.98,1.76,-0.36,-1.09,-0.92,
3.974,-3.41,-2.98,1.76,-0.36,-1.19,-0.87,
3.974,-3.41,-2.98,1.76,-0.36,-1.23,-0.85,
3.975,-3.41,-2.98,1.76,-0.37,-1.31,-0.83,
3.976,-2.22,-2.66,0.17,-0.37,-1.31,-0.83,
3.976,-2.22,-2.66,0.17,-0.38,-1.38,-0.82,
3.976,-2.22,-2.66,0.17,-0.39,-1.45,-0.82,
3.996,-2.22,-2.66,0.17,-0.40,-1.56,-0.83,
3.996,-2.22,-2.66,0.17,-0.41,-1.59,-0.84,
3.997,-2.22,-2.66,0.17,-0.42,-1.66,-0.86,
3.997,0.64,-2.11,-1.27,-0.42,-1.66,-0.86,
3.997,0.64,-2.11,-1.27,-0.43,-1.73,-0.89,
3.998,0.64,-2.11,-1.27,-0.44,-1.82,-0.92,
3.998,0.64,-2.11,-1.27,-0.43,-1.93,-0.94,
3.999,0.64,-2.11,-1.27,-0.43,-1.95,-0.96,
3.999,0.64,-2.11,-1.27,-0.42,-1.98,-1.00,
3.999,3.66,-1.54,-2.00,-0.42,-1.98,-1.00,
4.0,3.66,-1.54,-2.00,-0.42,-2.00,-1.06,
4.0,3.66,-1.54,-2.00,-0.41,-2.00,-1.13,
4.001,3.66,-1.54,-2.00,-0.39,-1.95,-1.26,
4.001,3.66,-1.54,-2.00,-0.38,-1.92,-1.31,
4.004,3.66,-1.54,-2.00,-0.37,-1.84,-1.42,
4.005,6.53,-0.14,-1.30,-0.37,-1.84,-1.42,
4.005,6.53,-0.14,-1.30,-0.36,-1.75,-1.54,
4.006,6.53,-0.14,-1.30,-0.35,-1.66,-1.67,
4.009,6.53,-0.14,-1.30,-0.34,-1.55,-1.88,
4.01,6.53,-0.14,-1.30,-0.34,-1.53,-1.96,
4.011,6.53,-0.14,-1.30,-0.33,-1.49,-2.09,
4.013,7.85,0.33,0.13,-0.33,-1.49,-2.09,
4.014,7.85,0.33,0.13,-0.32,-1.47,-2.22,
4.016,7.85,0.33,0.13,-0.30,-1.47,-2.34,
4.019,7.85,0.33,0.13,-0.26,-1.47,-2.49,
4.02,7.85,0.33,0.13,-0.24,-1.47,-2.53,
4.022,7.85,0.33,0.13,-0.19,-1.47,-2.59,
4.024,5.99,-0.39,1.43,-0.19,-1.47,-2.59,
4.024,5.99,-0.39,1.43,-0.13,-1.45,-2.63,
4.026,5.99,-0.39,1.43,-0.06,-1.41,-2.66,
4.029,5.99,-0.39,1.43,0.05,-1.32,-2.65,
4.03,5.99,-0.39,1.43,0.10,-1.29,-2.64,
4.032,5.99,-0.39,1.43,0.19,-1.21,-2.61,
4.034,3.24,-1.63,2.38,0.19,-1.21,-2.61,
4.034,3.24,-1.63,2.38,0.28,-1.14,-2.56,
4.036,3.24,-1.63,2.38,0.37,-1.09,-2.49,
4.039,3.24,-1.63,2.38,0.49,-1.06,-2.39,
4.04,3.24,-1.63,2.38,0.52,-1.06,-2.35,
4.042,3.24,-1.63,2.38,0.58,-1.08,-2.27,
4.044,0.29,-1.75,1.46,0.58,-1.08,-2.27,
4.044,0.29,-1.75,1.46,0.62,-1.11,-2.19,
4.046,0.29,-1.75,1.46,0.65,-1.15,-2.12,
4.049,0.29,-1.75,1.46,0.65,-1.23,-2.03,
4.052,0.29,-1.75,1.46,0.64,-1.25,-2.00,
4.053,0.29,-1.75,1.46,0.61,-1.31,-1.96,
4.054,0.19,-1.61,-0.97,0.61,-1.31,-1.96,
4.054,0.19,-1.61,-0.97,0.56,-1.36,-1.92,
4.057,0.19,-1.61,-0.97,0.49,-1.41,-1.90,
4.059,0.19,-1.61,-0.97,0.34,-1.47,-1.88,
4.06,0.19,-1.61,-0.97,0.28,-1.49,-1.89,
4.062,0.19,-1.61,-0.97,0.16,-1.51,-1.90,
4.066,2.54,-1.65,-3.56,0.16,-1.51,-1.90,
4.066,2.54,-1.65,-3.56,0.01,-1.52,-1.91,
4.067,2.54,-1.65,-3.56,-0.13,-1.51,-1.94,
4.069,2.54,-1.65,-3.56,-0.37,-1.48,-2.02,
4.074,2.54,-1.65,-3.56,-0.44,-1.47,-2.05,
4.11,2.54,-1.65,-3.56,-0.59,-1.45,-2.13,
4.11,5.85,-2.06,-3.84,-0.59,-1.45,-2.13,
4.111,5.85,-2.06,-3.84,-0.72,-1.44,-2.23,
4.111,5.85,-2.06,-3.84,-0.84,-1.43,-2.33,
4.112,5.85,-2.06,-3.84,-0.96,-1.44,-2.50,
4.112,5.85,-2.06,-3.84,-0.99,-1.45,-2.56,
4.113,5.85,-2.06,-3.84,-1.03,-1.47,-2.69,
4.113,9.32,-2.30,0.05,-1.03,-1.47,-2.69,
4.114,9.32,-2.30,0.05,-1.03,-1.50,-2.81,
4.114,9.32,-2.30,0.05,-1.00,-1.54,-2.93,
4.115,9.32,-2.30,0.05,-0.90,-1.60,-3.12,
4.115,9.32,-2.30,0.05,-0.86,-1.62,-3.17,
4.115,9.32,-2.30,0.05,-0.73,-1.65,-3.29,
4.116,11.42,-2.71,5.48,-0.73,-1.65,-3.29,
4.116,11.42,-2.71,5.48,-0.58,-1.67,-3.41,
4.117,11.42,-2.71,5.48,-0.41,-1.69,-3.51,
4.117,11.42,-2.71,5.48,-0.09,-1.70,-3.66,
4.118,11.42,-2.71,5.48,0.03,-1.71,-3.70,
4.118,11.42,-2.71,5.48,0.29,-1.70,-3.78,
4.119,12.06,-3.81,10.36,0.29,-1.70,-3.78,
4.119,12.06,-3.81,10.36,0.57,-1.68,-3.83,
4.12,12.06,-3.81,10.36,0.87,-1.64,-3.87,
4.12,12.06,-3.81,10.36,1.36,-1.57,-3.89,
4.121,12.06,-3.81,10.36,1.52,-1.54,-3.89,
4.121,12.06,-3.81,10.36,1.86,-1.49,-3.89,
4.121,10.20,-5.21,13.46,1.86,-1.49,-3.89,
4.122,10.20,-5.21,13.46,2.19,-1.48,-3.88,
4.122,10.20,-5.21,13.46,2.51,-1.50,-3.87,
4.123,10.20,-5.21,13.46,2.95,-1.63,-3.86,
4.123,10.20,-5.21,13.46,3.08,-1.70,-3.86,
4.124,10.20,-5.21,13.46,3.32,-1.86,-3.85,
4.124,8.26,-5.34,12.28,3.32,-1.86,-3.85,
4.125,8.26,-5.34,12.28,3.53,-2.07,-3.85,
4.137,8.26,-5.34,12.28,3.70,-2.31,-3.86,
4.138,8.26,-5.34,12.28,3.90,-2.73,-3.87,
4.139,8.26,-5.34,12.28,3.95,-2.88,-3.88,
4.139,8.26,-5.34,12.28,4.01,-3.21,-3.90,
4.14,7.32,-5.68,7.19,4.01,-3.21,-3.90,
4.14,7.32,-5.68,7.19,4.05,-3.55,-3.92,
4.141,7.32,-5.68,7.19,4.05,-3.90,-3.95,
4.141,7.32,-5.68,7.19,4.01,-4.41,-4.02,
4.141,7.32,-5.68,7.19,3.98,-4.57,-4.05,
4.142,7.32,-5.68,7.19,3.89,-4.88,-4.10,
4.145,7.92,-4.91,1.52,3.89,-4.88,-4.10,
4.145,7.92,-4.91,1.52,3.79,-5.16,-4.17,
4.146,7.92,-4.91,1.52,3.66,-5.40,-4.24,
4.154,7.92,-4.91,1.52,3.43,-5.71,-4.35,
4.154,7.92,-4.91,1.52,3.34,-5.80,-4.39,
4.154,7.92,-4.91,1.52,3.13,-5.94,-4.46,
4.154,9.68,-4.31,-2.24,3.13,-5.94,-4.46,
4.155,9.68,-4.31,-2.24,2.90,-6.04,-4.53,
4.156,9.68,-4.31,-2.24,2.64,-6.08,-4.59,
4.158,9.68,-4.31,-2.24,2.18,-6.05,-4.67,
4.159,9.68,-4.31,-2.24,2.02,-6.01,-4.70,
4.162,9.68,-4.31,-2.24,1.69,-5.88,-4.74,
4.164,9.63,-5.42,-4.62,1.69,-5.88,-4.74,
4.165,9.63,-5.42,-4.62,1.35,-5.71,-4.77,
4.166,9.63,-5.42,-4.62,1.01,-5.53,-4.80,
4.17,9.63,-5.42,-4.62,0.55,-5.21,-4.85,
4.171,9.63,-5.42,-4.62,0.41,-5.09,-4.87,
4.172,9.63,-5.42,-4.62,0.17,-4.85,-4.91,
4.173,9.54,-7.80,-1.65,0.17,-4.85,-4.91,
4.174,9.54,-7.80,-1.65,-0.02,-4.61,-4.95,
4.176,9.54,-7.80,-1.65,-0.16,-4.39,-4.99,
4.179,9.54,-7.80,-1.65,-0.27,-4.10,-5.02,
4.18,9.54,-7.80,-1.65,-0.28,-4.01,-5.02,
4.182,9.54,-7.80,-1.65,-0.27,-3.85,-4.99,
4.184,8.82,-9.81,7.45,-0.27,-3.85,-4.99,
4.184,8.82,-9.81,7.45,-0.21,-3.70,-4.94,
4.186,8.82,-9.81,7.45,-0.10,-3.56,-4.86,
4.189,8.82,-9.81,7.45,0.15,-3.36,-4.68,
4.19,8.82,-9.81,7.45,0.26,-3.30,-4.61,
4.192,8.82,-9.81,7.45,0.51,-3.19,-4.45,
4.194,7.21,-11.24,15.70,0.51,-3.19,-4.45,
4.194,7.21,-11.24,15.70,0.80,-3.10,-4.29,
4.196,7.21,-11.24,15.70,1.10,-3.04,-4.13,
4.208,7.21,-11.24,15.70,1.59,-3.02,-3.91,
4.211,7.21,-11.24,15.70,1.76,-3.03,-3.84,
4.212,7.21,-11.24,15.70,2.09,-3.09,-3.73,
4.215,8.39,-13.95,17.54,2.09,-3.09,-3.73,
4.215,8.39,-13.95,17.54,2.41,-3.21,-3.64,
4.216,8.39,-13.95,17.54,2.70,-3.37,-3.57,
4.216,8.39,-13.95,17.54,3.06,-3.71,-3.54,
4.216,8.39,-13.95,17.54,3.16,-3.85,-3.55,
4.218,8.39,-13.95,17.54,3.31,-4.15,-3.59,
4.239,12.48,-12.91,13.30,3.31,-4.15,-3.59,
4.241,12.48,-12.91,13.30,3.40,-4.49,-3.68,
4.241,12.48,-12.91,13.30,3.42,-4.82,-3.82,
4.242,12.48,-12.91,13.30,3.33,-5.28,-4.10,
4.242,12.48,-12.91,13.30,3.26,-5.42,-4.22,
4.242,12.48,-12.91,13.30,3.06,-5.68,-4.49,
4.243,18.99,-8.71,2.70,3.06,-5.68,-4.49,
4.243,18.99,-8.71,2.70,2.78,-5.90,-4.81,
4.243,18.99,-8.71,2.70,2.41,-6.08,-5.16,
4.244,18.99,-8.71,2.70,1.75,-6.27,-5.72,
4.244,18.99,-8.71,2.70,1.50,-6.31,-5.91,
4.244,18.99,-8.71,2.70,0.99,-6.35,-6.26,
4.245,21.55,-6.86,-8.89,0.99,-6.35,-6.26,
4.245,21.55,-6.86,-8.89,0.47,-6.35,-6.57,
4.245,21.55,-6.86,-8.89,-0.04,-6.33,-6.84,
4.283,21.55,-6.86,-8.89,-0.75,-6.23,-7.16,
4.284,21.55,-6.86,-8.89,-0.97,-6.18,-7.23,
4.284,21.55,-6.86,-8.89,-1.37,-6.05,-7.33,
4.285,16.55,-9.70,-9.75,-1.37,-6.05,-7.33,
4.285,16.55,-9.70,-9.75,-1.74,-5.88,-7.37,
4.286,16.55,-9.70,-9.75,-2.07,-5.68,-7.35,
4.286,16.55,-9.70,-9.75,-2.49,-5.35,-7.23,
4.287,16.55,-9.70,-9.75,-2.74,-5.10,-7.09,
4.287,16.55,-9.70,-9.75,-2.85,-4.97,-7.01,
4.287,9.12,-15.27,-2.16,-2.85,-4.97,-7.01,
4.288,9.12,-15.27,-2.16,-3.03,-4.68,-6.83,
4.289,9.12,-15.27,-2.16,-3.18,-4.36,-6.62,
4.289,9.12,-15.27,-2.16,-3.29,-3.81,-6.26,
4.289,9.12,-15.27,-2.16,-3.30,-3.61,-6.12,
4.29,9.12,-15.27,-2.16,-3.28,-3.19,-5.83,
4.29,4.69,-20.38,4.20,-3.28,-3.19,-5.83,
4.291,4.69,-20.38,4.20,-3.23,-2.75,-5.51,
4.291,4.69,-20.38,4.20,-3.14,-2.28,-5.16,
4.291,4.69,-20.38,4.20,-2.97,-1.57,-4.60,
4.292,4.69,-20.38,4.20,-2.91,-1.33,-4.41,
4.292,4.69,-20.38,4.20,-2.78,-0.86,-4.03,
4.293,-1.46,-23.34,7.44,-2.78,-0.86,-4.03,
4.293,-1.46,-23.34,7.44,-2.66,-0.42,-3.65,
4.293,-1.46,-23.34,7.44,-2.56,-0.01,-3.29,
4.294,-1.46,-23.34,7.44,-2.44,0.44,-2.79,
4.294,-1.46,-23.34,7.44,-2.40,0.53,-2.65,
4.295,-1.46,-23.34,7.44,-2.34,0.61,-2.39,
4.295,-9.75,-24.30,4.46,-2.34,0.61,-2.39,
4.295,-9.75,-24.30,4.46,-2.29,0.57,-2.16,
4.296,-9.75,-24.30,4.46,-2.25,0.43,-1.97,
4.296,-9.75,-24.30,4.46,-2.23,0.05,-1.74,
4.297,-9.75,-24.30,4.46,-2.23,-0.11,-1.68,
4.297,-9.75,-24.30,4.46,-2.25,-0.48,-1.57,
4.297,-17.96,-19.50,-3.73,-2.25,-0.48,-1.57,
4.298,-17.96,-19.50,-3.73,-2.31,-0.89,-1.49,
4.299,-17.96,-19.50,-3.73,-2.42,-1.32,-1.42,
4.299,-17.96,-19.50,-3.73,-2.70,-1.90,-1.39,
4.3,-17.96,-19.50,-3.73,-2.83,-2.07,-1.41,
4.303,-17.96,-19.50,-3.73,-3.14,-2.36,-1.46,
4.308,-15.78,-14.79,-16.85,-3.14,-2.36,-1.46,
4.31,-15.78,-14.79,-16.85,-3.53,-2.59,-1.55,
4.31,-15.78,-14.79,-16.85,-3.97,-2.76,-1.65,
4.31,-15.78,-14.79,-16.85,-4.69,-2.91,-1.82,
4.311,-15.78,-14.79,-16.85,-4.94,-2.93,-1.87,
4.317,-15.78,-14.79,-16.85,-5.41,-2.94,-1.96,
4.318,-14.82,-10.77,-26.50,-5.41,-2.94,-1.96,
4.318,-14.82,-10.77,-26.50,-5.87,-2.91,-2.04,
4.319,-14.82,-10.77,-26.50,-6.28,-2.84,-2.11,
4.322,-14.82,-10.77,-26.50,-6.80,-2.70,-2.20,
4.323,-14.82,-10.77,-26.50,-6.95,-2.63,-2.22,
4.323,-14.82,-10.77,-26.50,-7.21,-2.49,-2.26,
4.326,-14.83,-10.05,-21.10,-7.21,-2.49,-2.26,
4.327,-14.83,-10.05,-21.10,-7.41,-2.33,-2.27,
4.327,-14.83,-10.05,-21.10,-7.57,-2.15,-2.25,
4.329,-14.83,-10.05,-21.10,-7.69,-1.88,-2.15,
4.331,-14.83,-10.05,-21.10,-7.71,-1.79,-2.11,
4.332,-14.83,-10.05,-21.10,-7.70,-1.65,-2.00,
4.334,-14.33,-8.33,-9.49,-7.70,-1.65,-2.00,
4.335,-14.33,-8.33,-9.49,-7.65,-1.54,-1.87,
4.337,-14.33,-8.33,-9.49,-7.55,-1.45,-1.73,
4.339,-14.33,-8.33,-9.49,-7.31,-1.37,-1.48,
4.34,-14.33,-8.33,-9.49,-7.21,-1.35,-1.39,
4.342,-14.33,-8.33,-9.49,-6.99,-1.29,-1.18,
4.343,-10.01,-3.89,3.25,-6.99,-1.29,-1.18,
4.344,-10.01,-3.89,3.25,-6.75,-1.21,-0.95,
4.346,-10.01,-3.89,3.25,-6.48,-1.08,-0.69,
4.349,-10.01,-3.89,3.25,-6.06,-0.78,-0.29,
4.35,-10.01,-3.89,3.25,-5.91,-0.65,-0.15,
4.352,-10.01,-3.89,3.25,-5.61,-0.34,0.13,
4.354,-6.41,-2.26,14.96,-5.61,-0.34,0.13,
4.354,-6.41,-2.26,14.96,-5.29,0.02,0.39,
4.356,-6.41,-2.26,14.96,-4.95,0.42,0.63,
4.359,-6.41,-2.26,14.96,-4.38,1.07,0.95,
4.36,-6.41,-2.26,14.96,-4.18,1.28,1.03,
4.362,-6.41,-2.26,14.96,-3.76,1.71,1.17,
4.372,-1.71,0.91,23.51,-3.76,1.71,1.17,
4.373,-1.71,0.91,23.51,-3.31,2.11,1.26,
4.373,-1.71,0.91,23.51,-2.84,2.48,1.29,
4.373,-1.71,0.91,23.51,-2.13,2.96,1.19,
4.374,-1.71,0.91,23.51,-1.88,3.09,1.12,
4.374,-1.71,0.91,23.51,-1.39,3.33,0.91,
4.374,6.59,1.62,28.54,-1.39,3.33,0.91,
4.374,6.59,1.62,28.54,-0.90,3.51,0.60,
4.376,6.59,1.62,28.54,-0.42,3.62,0.20,
4.388,6.59,1.62,28.54,0.32,3.63,-0.57,
4.389,6.59,1.62,28.54,0.56,3.59,-0.87,
4.39,6.59,1.62,28.54,1.06,3.45,-1.50,
4.39,15.80,-0.02,25.23,1.06,3.45,-1.50,
4.391,15.80,-0.02,25.23,1.56,3.22,-2.18,
4.392,15.80,-0.02,25.23,2.05,2.90,-2.87,
4.392,15.80,-0.02,25.23,2.76,2.29,-3.91,
4.392,15.80,-0.02,25.23,2.99,2.04,-4.25,
4.393,15.80,-0.02,25.23,3.42,1.50,-4.91,
4.394,15.11,-0.22,14.08,3.42,1.50,-4.91,
4.395,15.11,-0.22,14.08,3.81,0.89,-5.53,
4.399,15.11,-0.22,14.08,4.15,0.24,-6.12,
4.401,15.11,-0.22,14.08,4.55,-0.83,-6.97,
4.401,15.11,-0.22,14.08,4.66,-1.21,-7.25,
4.402,15.11,-0.22,14.08,4.81,-1.99,-7.78,
4.404,8.20,-6.37,-3.49,4.81,-1.99,-7.78,
4.437,8.20,-6.37,-3.49,4.88,-2.81,-8.29,
4.438,8.20,-6.37,-3.49,4.87,-3.65,-8.75,
4.438,8.20,-6.37,-3.49,4.70,-4.94,-9.31,
4.439,8.20,-6.37,-3.49,4.60,-5.38,-9.46,
4.439,8.20,-6.37,-3.49,4.35,-6.28,-9.69,
4.44,0.65,-12.13,-21.11,4.35,-6.28,-9.69,
4.441,0.65,-12.13,-21.11,4.03,-7.21,-9.84,
4.441,0.65,-12.13,-21.11,3.65,-8.15,-9.91,
4.441,0.65,-12.13,-21.11,3.02,-9.54,-9.85,
4.442,0.65,-12.13,-21.11,2.80,-9.96,-9.79,
4.442,0.65,-12.13,-21.11,2.37,-10.75,-9.60,
4.443,-7.79,-16.26,-24.52,2.37,-10.75,-9.60,
4.444,-7.79,-16.26,-24.52,1.96,-11.43,-9.32,
4.445,-7.79,-16.26,-24.52,1.56,-11.99,-8.95,
4.445,-7.79,-16.26,-24.52,1.03,-12.62,-8.22,
4.446,-7.79,-16.26,-24.52,0.87,-12.78,-7.93,
4.446,-7.79,-16.26,-24.52,0.56,-13.03,-7.28,
4.446,-14.08,-19.17,-13.72,0.56,-13.03,-7.28,
4.447,-14.08,-19.17,-13.72,0.27,-13.18,-6.54,
4.448,-14.08,-19.17,-13.72,-0.01,-13.24,-5.74,
4.448,-14.08,-19.17,-13.72,-0.42,-13.13,-4.45,
4.449,-14.08,-19.17,-13.72,-0.55,-13.03,-4.01,
4.449,-14.08,-19.17,-13.72,-0.82,-12.74,-3.13,
4.449,-14.17,-19.16,-0.17,-0.82,-12.74,-3.13,
4.45,-14.17,-19.16,-0.17,-1.06,-12.31,-2.26,
4.45,-14.17,-19.16,-0.17,-1.28,-11.72,-1.41,
4.451,-14.17,-19.16,-0.17,-1.56,-10.51,-0.21,
4.451,-14.17,-19.16,-0.17,-1.65,-10.01,0.16,
4.452,-14.17,-19.16,-0.17,-1.85,-8.78,0.84,
4.456,-1.12,-16.31,10.03,-1.85,-8.78,0.84,
4.457,-1.12,-16.31,10.03,-2.08,-7.27,1.44,
4.458,-1.12,-16.31,10.03,-2.36,-5.53,1.91,
4.459,-1.12,-16.31,10.03,-2.85,-2.61,2.30,
4.46,-1.12,-16.31,10.03,-3.03,-1.62,2.33,
4.464,-1.12,-16.31,10.03,-3.41,0.28,2.23,
4.464,27.65,-14.74,9.76,-3.41,0.28,2.23,
4.465,27.65,-14.74,9.76,-3.79,1.95,1.90,
4.467,27.65,-14.74,9.76,-4.17,3.26,1.38,
4.469,27.65,-14.74,9.76,-4.62,4.51,0.29,
4.47,27.65,-14.74,9.76,-4.73,4.73,-0.13,
4.472,27.65,-14.74,9.76,-4.87,4.94,-1.05,
4.473,61.71,-15.14,12.48,-4.87,4.94,-1.05,
4.474,61.71,-15.14,12.48,-4.90,4.84,-2.00,
4.475,61.71,-15.14,12.48,-4.79,4.52,-3.00,
4.48,61.71,-15.14,12.48,-4.34,3.72,-4.62,
4.48,61.71,-15.14,12.48,-4.13,3.38,-5.19,
4.482,61.71,-15.14,12.48,-3.60,2.58,-6.34,
4.485,67.97,-16.95,27.81,-3.60,2.58,-6.34,
4.485,67.97,-16.95,27.81,-2.98,1.68,-7.47,
4.486,67.97,-16.95,27.81,-2.27,0.68,-8.54,
4.489,67.97,-16.95,27.81,-1.15,-0.92,-9.98,
4.489,67.97,-16.95,27.81,-0.78,-1.46,-10.39,
4.491,67.97,-16.95,27.81,-0.05,-2.56,-11.12,
4.494,48.82,-22.97,35.83,-0.05,-2.56,-11.12,
4.494,48.82,-22.97,35.83,0.62,-3.63,-11.70,
4.497,48.82,-22.97,35.83,1.23,-4.62,-12.13,
4.505,48.82,-22.97,35.83,2.02,-5.96,-12.53,
4.506,48.82,-22.97,35.83,2.24,-6.36,-12.61,
4.507,48.82,-22.97,35.83,2.63,-7.10,-12.68,
4.507,21.04,-29.68,27.21,2.63,-7.10,-12.68,
4.507,21.04,-29.68,27.21,2.96,-7.76,-12.66,
4.508,21.04,-29.68,27.21,3.22,-8.33,-12.54,
4.511,21.04,-29.68,27.21,3.49,-9.06,-12.13,
4.512,21.04,-29.68,27.21,3.55,-9.28,-11.92,
4.529,21.04,-29.68,27.21,3.59,-9.70,-11.42,
4.531,-1.08,-33.88,16.75,3.59,-9.70,-11.42,
4.531,-1.08,-33.88,16.75,3.54,-10.12,-10.78,
4.532,-1.08,-33.88,16.75,3.35,-10.60,-10.04,
4.533,-1.08,-33.88,16.75,2.88,-11.43,-8.83,
4.533,-1.08,-33.88,16.75,2.68,-11.70,-8.43,
4.534,-1.08,-33.88,16.75,2.25,-12.18,-7.62,
4.534,-43.15,-7.10,14.86,2.25,-12.18,-7.62,
4.535,-43.15,-7.10,14.86,1.80,-12.45,-6.83,
4.535,-43.15,-7.10,14.86,1.36,-12.40,-6.09,
4.536,-43.15,-7.10,14.86,0.77,-11.71,-5.09,
4.536,-43.15,-7.10,14.86,0.58,-11.34,-4.79,
4.537,-43.15,-7.10,14.86,0.16,-10.49,-4.21,
4.537,-38.63,-4.53,6.10,0.16,-10.49,-4.21,
4.538,-38.63,-4.53,6.10,-0.42,-9.61,-3.66,
4.538,-38.63,-4.53,6.10,-1.26,-8.85,-3.11,
4.539,-38.63,-4.53,6.10,-3.11,-8.25,-2.20,
4.542,-38.63,-4.53,6.10,-3.89,-8.24,-1.87,
4.543,-38.63,-4.53,6.10,-5.62,-8.52,-1.19,
4.546,-3.41,-55.11,-29.78,-5.62,-8.52,-1.19,
4.547,-3.41,-55.11,-29.78,-7.44,-9.04,-0.58,
4.547,-3.41,-55.11,-29.78,-9.19,-9.62,-0.18,
4.551,-3.41,-55.11,-29.78,-11.43,-10.44,-0.12,
4.552,-3.41,-55.11,-29.78,-12.07,-10.68,-0.25,
4.553,-3.41,-55.11,-29.78,-13.14,-11.05,-0.69,
4.556,41.42,-56.25,-19.64,-13.14,-11.05,-0.69,
4.557,41.42,-56.25,-19.64,-13.99,-11.22,-1.31,
4.559,41.42,-56.25,-19.64,-14.64,-11.14,-2.05,
4.559,41.42,-56.25,-19.64,-15.29,-10.61,-3.18,
4.559,41.42,-56.25,-19.64,-15.44,-10.35,-3.55,
4.563,41.42,-56.25,-19.64,-15.64,-9.74,-4.22,
4.564,63.70,-58.16,18.34,-15.64,-9.74,-4.22,
4.565,63.70,-58.16,18.34,-15.72,-9.05,-4.81,
4.565,63.70,-58.16,18.34,-15.68,-8.31,-5.31,
4.569,63.70,-58.16,18.34,-15.37,-7.17,-5.92,
4.574,63.70,-58.16,18.34,-14.20,-5.27,-6.56,
4.595,63.70,-58.16,18.34,-14.20,-5.27,-6.56,
4.595,63.70,-58.16,18.34,-14.20,-5.27,-6.56,
4.596,47.30,-61.69,53.00,-14.20,-5.27,-6.56,
4.596,47.30,-61.69,53.00,-13.56,-4.52,-6.71,
4.597,47.30,-61.69,53.00,-12.46,-3.39,-6.81,
4.597,47.30,-61.69,53.00,-12.07,-3.02,-6.82,
4.597,47.30,-61.69,53.00,-11.23,-2.28,-6.77,
4.598,28.62,-52.27,64.58,-11.23,-2.28,-6.77,
4.598,28.62,-52.27,64.58,-10.35,-1.56,-6.66,
4.598,28.62,-52.27,64.58,-9.41,-0.86,-6.48,
4.599,28.62,-52.27,64.58,-7.92,0.15,-6.12,
4.599,28.62,-52.27,64.58,-7.41,0.48,-5.98,
4.599,28.62,-52.27,64.58,-6.38,1.10,-5.69,
4.599,8.24,-40.18,68.22,-6.38,1.10,-5.69,
4.6,8.24,-40.18,68.22,-5.34,1.69,-5.41,
4.6,8.24,-40.18,68.22,-4.31,2.23,-5.15,
4.6,8.24,-40.18,68.22,-2.76,2.93,-4.83,
4.602,8.24,-40.18,68.22,-1.74,3.29,-4.67,
4.602,8.24,-40.18,68.22,-0.72,3.54,-4.52,
4.603,-3.82,-28.15,60.30,-0.72,3.54,-4.52,
4.604,-3.82,-28.15,60.30,-0.22,3.63,-4.45,
4.606,-3.82,-28.15,60.30,0.77,3.72,-4.31,
4.609,-3.82,-28.15,60.30,2.15,3.65,-4.07,
4.609,-3.82,-28.15,60.30,2.58,3.58,-3.98,
4.613,-3.82,-28.15,60.30,3.40,3.35,-3.79,
4.615,-9.51,-23.97,44.48,3.40,3.35,-3.79,
4.616,-9.51,-23.97,44.48,4.14,3.04,-3.58,
4.616,-9.51,-23.97,44.48,4.80,2.67,-3.38,
4.619,-9.51,-23.97,44.48,5.64,2.00,-3.08,
4.62,-9.51,-23.97,44.48,5.88,1.75,-3.00,
4.622,-9.51,-23.97,44.48,6.28,1.24,-2.84,
4.625,-11.60,-22.28,19.87,6.28,1.24,-2.84,
4.626,-11.60,-22.28,19.87,6.61,0.71,-2.70,
4.626,-11.60,-22.28,19.87,6.85,0.18,-2.59,
4.629,-11.60,-22.28,19.87,7.07,-0.60,-2.45,
4.63,-11.60,-22.28,19.87,7.11,-0.84,-2.41,
4.637,-11.60,-22.28,19.87,7.13,-1.30,-2.32,
4.638,-10.58,-19.45,-4.12,7.13,-1.30,-2.32,
4.639,-10.58,-19.45,-4.12,7.08,-1.72,-2.24,
4.639,-10.58,-19.45,-4.12,6.96,-2.11,-2.17,
4.639,-10.58,-19.45,-4.12,6.68,-2.61,-2.08,
4.639,-10.58,-19.45,-4.12,6.56,-2.76,-2.05,
4.644,-10.58,-19.45,-4.12,6.29,-3.02,-2.01,
4.645,-10.01,-15.18,-21.47,6.29,-3.02,-2.01,
4.645,-10.01,-15.18,-21.47,5.98,-3.22,-1.97,
4.661,-10.01,-15.18,-21.47,5.63,-3.36,-1.92,
4.662,-10.01,-15.18,-21.47,5.08,-3.47,-1.84,
4.663,-10.01,-15.18,-21.47,4.88,-3.49,-1.80,
4.663,-10.01,-15.18,-21.47,4.50,-3.49,-1.72,
4.663,-11.86,-10.60,-30.39,4.50,-3.49,-1.72,
4.664,-11.86,-10.60,-30.39,4.10,-3.46,-1.61,
4.664,-11.86,-10.60,-30.39,3.71,-3.40,-1.48,
4.664,-11.86,-10.60,-30.39,3.11,-3.28,-1.22,
4.664,-11.86,-10.60,-30.39,2.92,-3.23,-1.12,
4.664,-11.86,-10.60,-30.39,2.53,-3.14,-0.90,
4.665,-15.95,-6.80,-31.05,2.53,-3.14,-0.90,
4.665,-15.95,-6.80,-31.05,2.15,-3.04,-0.65,
4.666,-15.95,-6.80,-31.05,1.78,-2.95,-0.38,
4.669,-15.95,-6.80,-31.05,1.26,-2.84,0.06,
4.67,-15.95,-6.80,-31.05,1.09,-2.80,0.22,
4.671,-15.95,-6.80,-31.05,0.78,-2.74,0.55,
4.673,-19.67,-3.83,-26.70,0.78,-2.74,0.55,
4.674,-19.67,-3.83,-26.70,0.49,-2.69,0.88,
4.677,-19.67,-3.83,-26.70,0.23,-2.66,1.22,
4.682,-19.67,-3.83,-26.70,-0.10,-2.63,1.74,
4.683,-19.67,-3.83,-26.70,-0.20,-2.63,1.91,
4.683,-19.67,-3.83,-26.70,-0.36,-2.62,2.25,
4.687,-19.87,-1.12,-18.80,-0.36,-2.62,2.25,
4.688,-19.87,-1.12,-18.80,-0.50,-2.62,2.59,
4.688,-19.87,-1.12,-18.80,-0.61,-2.62,2.91,
4.689,-19.87,-1.12,-18.80,-0.74,-2.61,3.37,
4.692,-19.87,-1.12,-18.80,-0.77,-2.59,3.51,
4.693,-19.87,-1.12,-18.80,-0.82,-2.57,3.78,
4.693,-15.19,0.45,-10.96,-0.82,-2.57,3.78,
4.694,-15.19,0.45,-10.96,-0.86,-2.53,4.02,
4.698,-15.19,0.45,-10.96,-0.89,-2.48,4.23,
4.699,-15.19,0.45,-10.96,-0.93,-2.41,4.48,
4.7,-15.19,0.45,-10.96,-0.94,-2.39,4.54,
4.704,-15.19,0.45,-10.96,-0.96,-2.36,4.64,
4.705,-5.14,1.82,-6.56,-0.96,-2.36,4.64,
4.705,-5.14,1.82,-6.56,-0.99,-2.35,4.70,
4.705,-5.14,1.82,-6.56,-1.02,-2.35,4.72,
4.71,-5.14,1.82,-6.56,-1.06,-2.38,4.68,
4.711,-5.14,1.82,-6.56,-1.08,-2.40,4.64,
4.713,-5.14,1.82,-6.56,-1.10,-2.44,4.56,
4.714,6.20,2.95,-3.90,-1.10,-2.44,4.56,
4.714,6.20,2.95,-3.90,-1.12,-2.50,4.44,
4.716,6.20,2.95,-3.90,-1.13,-2.55,4.30,
4.719,6.20,2.95,-3.90,-1.13,-2.64,4.03,
4.72,6.20,2.95,-3.90,-1.13,-2.66,3.93,
4.721,6.20,2.95,-3.90,-1.12,-2.71,3.72,
4.725,15.41,3.85,-0.97,-1.12,-2.71,3.72,
4.726,15.41,3.85,-0.97,-1.10,-2.76,3.48,
4.726,15.41,3.85,-0.97,-1.07,-2.80,3.22,
4.731,15.41,3.85,-0.97,-1.02,-2.86,2.80,
4.732,15.41,3.85,-0.97,-0.97,-2.84,2.65,
4.732,15.41,3.85,-0.97,-0.33,-2.02,2.20,
4.734,27.79,3.44,17.47,-0.33,-2.02,2.20,
4.735,27.79,3.44,17.47,1.83,0.22,1.21,
4.735,27.79,3.44,17.47,4.25,1.84,-0.08,
4.755,27.79,3.44,17.47,5.99,1.03,-1.23,
4.755,27.79,3.44,17.47,6.08,0.39,-1.32,
4.756,27.79,3.44,17.47,5.83,-0.81,-1.26,
4.756,28.99,4.52,36.92,5.83,-0.81,-1.26,
4.757,28.99,4.52,36.92,5.33,-1.67,-1.09,
4.757,28.99,4.52,36.92,4.77,-2.24,-0.99,
4.757,28.99,4.52,36.92,4.16,-2.91,-1.10,
4.757,28.99,4.52,36.92,4.04,-3.10,-1.18,
4.758,28.99,4.52,36.92,3.89,-3.40,-1.37,
4.758,20.38,6.24,10.57,3.89,-3.40,-1.37,
4.758,20.38,6.24,10.57,3.81,-3.56,-1.56,
4.759,20.38,6.24,10.57,3.71,-3.55,-1.70,
4.759,20.38,6.24,10.57,3.49,-3.23,-1.83,
4.761,20.38,6.24,10.57,3.39,-3.06,-1.85,
4.762,20.38,6.24,10.57,3.18,-2.60,-1.87,
4.764,14.31,0.02,1.43,3.18,-2.60,-1.87,
4.764,14.31,0.02,1.43,2.96,-2.02,-1.87,
4.766,14.31,0.02,1.43,2.74,-1.37,-1.83,
4.769,14.31,0.02,1.43,2.30,-0.47,-1.74,
4.771,14.31,0.02,1.43,2.11,-0.22,-1.69,
4.773,14.31,0.02,1.43,1.70,0.21,-1.58,
4.774,7.58,-0.27,-6.79,1.70,0.21,-1.58,
4.774,7.58,-0.27,-6.79,1.25,0.54,-1.46,
4.776,7.58,-0.27,-6.79,0.78,0.78,-1.33,
4.78,7.58,-0.27,-6.79,0.14,1.05,-1.17,
4.78,7.58,-0.27,-6.79,-0.04,1.12,-1.13,
4.782,7.58,-0.27,-6.79,-0.38,1.25,-1.06,
4.784,1.92,1.25,-9.61,-0.38,1.25,-1.06,
4.784,1.92,1.25,-9.61,-0.66,1.35,-1.01,
4.786,1.92,1.25,-9.61,-0.89,1.43,-0.98,
4.789,1.92,1.25,-9.61,-1.13,1.52,-0.93,
4.79,1.92,1.25,-9.61,-1.19,1.54,-0.92,
4.792,1.92,1.25,-9.61,-1.29,1.57,-0.88,
4.8,1.33,0.78,-6.13,-1.29,1.57,-0.88,
4.801,1.33,0.78,-6.13,-1.36,1.57,-0.84,
4.801,1.33,0.78,-6.13,-1.42,1.56,-0.79,
4.801,1.33,0.78,-6.13,-1.49,1.51,-0.72,
4.801,1.33,0.78,-6.13,-1.51,1.49,-0.70,
4.802,1.33,0.78,-6.13,-1.54,1.44,-0.66,
4.804,0.08,-0.05,-3.83,-1.54,1.44,-0.66,
4.804,0.08,-0.05,-3.83,-1.57,1.38,-0.62,
4.807,0.08,-0.05,-3.83,-1.60,1.32,-0.58,
4.81,0.08,-0.05,-3.83,-1.62,1.22,-0.54,
4.81,0.08,-0.05,-3.83,-1.63,1.19,-0.52,
4.826,0.08,-0.05,-3.83,-1.63,1.12,-0.49,
4.828,-0.30,-0.95,-2.20,-1.63,1.12,-0.49,
4.83,-0.30,-0.95,-2.20,-1.62,1.05,-0.47,
4.831,-0.30,-0.95,-2.20,-1.61,0.98,-0.45,
4.831,-0.30,-0.95,-2.20,-1.59,0.87,-0.43,
4.832,-0.30,-0.95,-2.20,-1.57,0.79,-0.42,
4.832,-0.30,-0.95,-2.20,-1.56,0.76,-0.42,
4.833,-0.23,-1.46,-1.14,-1.56,0.76,-0.42,
4.834,-0.23,-1.46,-1.14,-1.55,0.68,-0.42,
4.835,-0.23,-1.46,-1.14,-1.53,0.60,-0.42,
4.835,-0.23,-1.46,-1.14,-1.49,0.48,-0.42,
4.836,-0.23,-1.46,-1.14,-1.48,0.44,-0.42,
4.836,-0.23,-1.46,-1.14,-1.46,0.37,-0.43,
4.837,-0.16,-1.73,-0.36,-1.46,0.37,-0.43,
4.837,-0.16,-1.73,-0.36,-1.43,0.30,-0.44,
4.838,-0.16,-1.73,-0.36,-1.40,0.23,-0.45,
4.842,-0.16,-1.73,-0.36,-1.35,0.14,-0.47,
4.847,-0.16,-1.73,-0.36,-1.33,0.11,-0.47,
4.85,-0.16,-1.73,-0.36,-1.28,0.05,-0.49,
4.85,-0.08,-1.72,0.59,-1.28,0.05,-0.49,
4.851,-0.08,-1.72,0.59,-1.23,-0.01,-0.50,
4.851,-0.08,-1.72,0.59,-1.18,-0.05,-0.51,
4.852,-0.08,-1.72,0.59,-1.09,-0.12,-0.52,
4.852,-0.08,-1.72,0.59,-1.06,-0.14,-0.53,
4.853,-0.08,-1.72,0.59,-1.00,-0.17,-0.54,
4.854,-0.14,-1.56,1.28,-1.00,-0.17,-0.54,
