
time,ax,ay,az,wx,wy,wz,
0.003,0.16,0.01,-0.96,-0.35,0.01,-0.15,
0.003,0.16,0.01,-0.96,-0.39,0.01,-0.16,
0.003,0.16,0.01,-0.96,-0.41,0.02,-0.16,
0.004,0.16,0.01,-0.96,-0.44,0.03,-0.16,
0.004,0.16,0.01,-0.96,-0.46,0.03,-0.15,
0.004,0.16,0.01,-0.96,-0.48,0.03,-0.15,
0.004,-0.01,-0.21,-0.64,-0.48,0.03,-0.15,
0.005,-0.01,-0.21,-0.64,-0.49,0.03,-0.14,
0.005,-0.01,-0.21,-0.64,-0.51,0.04,-0.13,
0.008,-0.01,-0.21,-0.64,-0.52,0.04,-0.13,
0.009,-0.01,-0.21,-0.64,-0.52,0.04,-0.11,
0.01,-0.01,-0.21,-0.64,-0.53,0.04,-0.10,
0.012,-0.31,-0.40,-0.12,-0.53,0.04,-0.10,
0.012,-0.31,-0.40,-0.12,-0.53,0.04,-0.08,
0.013,-0.31,-0.40,-0.12,-0.53,0.05,-0.06,
0.016,-0.31,-0.40,-0.12,-0.52,0.06,-0.02,
0.017,-0.31,-0.40,-0.12,-0.52,0.07,-0.01,
0.019,-0.31,-0.40,-0.12,-0.51,0.08,0.02,
0.021,-0.68,-0.34,0.32,-0.51,0.08,0.02,
0.021,-0.68,-0.34,0.32,-0.50,0.09,0.04,
0.024,-0.68,-0.34,0.32,-0.49,0.10,0.06,
0.027,-0.68,-0.34,0.32,-0.47,0.11,0.10,
0.027,-0.68,-0.34,0.32,-0.46,0.11,0.10,
0.029,-0.68,-0.34,0.32,-0.44,0.11,0.12,
0.031,-0.50,-0.18,0.75,-0.44,0.11,0.12,
0.032,-0.50,-0.18,0.75,-0.42,0.11,0.14,
0.033,-0.50,-0.18,0.75,-0.40,0.11,0.15,
0.036,-0.50,-0.18,0.75,-0.35,0.10,0.16,
0.037,-0.50,-0.18,0.75,-0.34,0.09,0.16,
0.042,-0.50,-0.18,0.75,-0.31,0.09,0.16,
0.047,-0.10,-0.09,1.19,-0.31,0.09,0.16,
0.048,-0.10,-0.09,1.19,-0.27,0.09,0.16,
0.048,-0.10,-0.09,1.19,-0.24,0.09,0.16,
0.048,-0.10,-0.09,1.19,-0.19,0.09,0.15,
0.049,-0.10,-0.09,1.19,-0.17,0.09,0.15,
0.052,-0.10,-0.09,1.19,-0.13,0.09,0.14,
0.053,0.13,-0.10,1.40,-0.13,0.09,0.14,
0.053,0.13,-0.10,1.40,-0.10,0.09,0.13,
0.053,0.13,-0.10,1.40,-0.06,0.09,0.12,
0.059,0.13,-0.10,1.40,-0.01,0.10,0.11,
0.059,0.13,-0.10,1.40,0.00,0.11,0.11,
0.059,0.13,-0.10,1.40,0.03,0.12,0.11,
0.061,0.05,-0.01,1.23,0.03,0.12,0.11,
0.061,0.05,-0.01,1.23,0.06,0.13,0.11,
0.063,0.05,-0.01,1.23,0.08,0.14,0.11,
0.066,0.05,-0.01,1.23,0.11,0.15,0.11,
0.067,0.05,-0.01,1.23,0.12,0.16,0.12,
0.069,0.05,-0.01,1.23,0.14,0.16,0.12,
0.071,-0.16,0.07,0.72,0.14,0.16,0.12,
0.072,-0.16,0.07,0.72,0.15,0.17,0.13,
0.075,-0.16,0.07,0.72,0.16,0.17,0.13,
0.076,-0.16,0.07,0.72,0.17,0.17,0.15,
0.078,-0.16,0.07,0.72,0.17,0.17,0.15,
0.079,-0.16,0.07,0.72,0.18,0.17,0.15,
0.081,-0.25,-0.02,0.16,0.18,0.17,0.15,
0.082,-0.25,-0.02,0.16,0.17,0.17,0.16,
0.083,-0.25,-0.02,0.16,0.17,0.16,0.16,
0.086,-0.25,-0.02,0.16,0.17,0.15,0.17,
0.088,-0.25,-0.02,0.16,0.16,0.15,0.17,
0.091,-0.25,-0.02,0.16,0.16,0.15,0.17,
0.093,-0.15,-0.12,-0.32,0.16,0.15,0.17,
0.093,-0.15,-0.12,-0.32,0.15,0.14,0.17,
0.093,-0.15,-0.12,-0.32,0.14,0.14,0.18,
0.097,-0.15,-0.12,-0.32,0.13,0.13,0.18,
0.098,-0.15,-0.12,-0.32,0.12,0.13,0.18,
0.1,-0.15,-0.12,-0.32,0.11,0.13,0.18,
0.102,-0.08,-0.16,-0.57,0.11,0.13,0.18,
0.103,-0.08,-0.16,-0.57,0.10,0.12,0.18,
0.104,-0.08,-0.16,-0.57,0.09,0.11,0.17,
0.12,-0.08,-0.16,-0.57,0.07,0.10,0.17,
0.123,-0.08,-0.16,-0.57,0.07,0.10,0.17,
0.124,-0.08,-0.16,-0.57,0.05,0.09,0.17,
0.124,0.03,-0.20,-0.69,0.05,0.09,0.17,
0.124,0.03,-0.20,-0.69,0.04,0.08,0.17,
0.124,0.03,-0.20,-0.69,0.03,0.07,0.16,
0.125,0.03,-0.20,-0.69,0.01,0.06,0.16,
0.125,0.03,-0.20,-0.69,0.00,0.05,0.16,
0.125,0.03,-0.20,-0.69,-0.01,0.05,0.15,
0.125,0.09,-0.15,-0.74,-0.01,0.05,0.15,
0.125,0.09,-0.15,-0.74,-0.03,0.04,0.15,
0.126,0.09,-0.15,-0.74,-0.04,0.04,0.15,
0.144,0.09,-0.15,-0.74,-0.06,0.03,0.14,
0.144,0.09,-0.15,-0.74,-0.07,0.03,0.13,
0.144,0.09,-0.15,-0.74,-0.08,0.03,0.12,
0.145,0.14,0.02,-0.65,-0.08,0.03,0.12,
0.145,0.14,0.02,-0.65,-0.09,0.03,0.12,
0.145,0.14,0.02,-0.65,-0.10,0.03,0.11,
0.145,0.14,0.02,-0.65,-0.12,0.04,0.09,
0.145,0.14,0.02,-0.65,-0.12,0.04,0.09,
0.146,0.14,0.02,-0.65,-0.13,0.04,0.07,
0.146,0.22,0.10,-0.46,-0.13,0.04,0.07,
0.146,0.22,0.10,-0.46,-0.14,0.05,0.06,
0.146,0.22,0.10,-0.46,-0.15,0.06,0.05,
0.146,0.22,0.10,-0.46,-0.17,0.08,0.03,
0.149,0.22,0.10,-0.46,-0.17,0.08,0.02,
0.15,0.22,0.10,-0.46,-0.19,0.10,0.01,
0.151,0.23,0.20,-0.31,-0.19,0.10,0.01,
0.151,0.23,0.20,-0.31,-0.20,0.11,-0.01,
0.153,0.23,0.20,-0.31,-0.21,0.11,-0.02,
0.168,0.23,0.20,-0.31,-0.23,0.12,-0.05,
0.168,0.23,0.20,-0.31,-0.24,0.12,-0.06,
0.169,0.23,0.20,-0.31,-0.25,0.12,-0.08,
0.169,0.31,0.23,-0.30,-0.25,0.12,-0.08,
0.169,0.31,0.23,-0.30,-0.27,0.12,-0.10,
0.17,0.31,0.23,-0.30,-0.28,0.11,-0.13,
0.17,0.31,0.23,-0.30,-0.31,0.10,-0.16,
0.17,0.31,0.23,-0.30,-0.32,0.09,-0.17,
0.171,0.31,0.23,-0.30,-0.33,0.08,-0.20,
0.171,0.43,0.14,-0.40,-0.33,0.08,-0.20,
0.172,0.43,0.14,-0.40,-0.34,0.07,-0.22,
0.19,0.43,0.14,-0.40,-0.36,0.06,-0.24,
0.192,0.43,0.14,-0.40,-0.37,0.05,-0.27,
0.194,0.43,0.14,-0.40,-0.38,0.05,-0.27,
0.196,0.43,0.14,-0.40,-0.38,0.05,-0.29,
0.197,0.28,0.01,-0.07,-0.38,0.05,-0.29,
0.197,0.28,0.01,-0.07,-0.38,0.06,-0.30,
0.198,0.28,0.01,-0.07,-0.38,0.07,-0.31,
0.198,0.28,0.01,-0.07,-0.37,0.08,-0.33,
0.198,0.28,0.01,-0.07,-0.36,0.08,-0.33,
0.199,0.28,0.01,-0.07,-0.35,0.09,-0.34,
0.199,-0.09,-0.14,0.50,-0.35,0.09,-0.34,
0.2,-0.09,-0.14,0.50,-0.33,0.09,-0.34,
0.2,-0.09,-0.14,0.50,-0.31,0.10,-0.34,
0.201,-0.09,-0.14,0.50,-0.29,0.10,-0.34,
0.201,-0.09,-0.14,0.50,-0.28,0.10,-0.34,
0.202,-0.09,-0.14,0.50,-0.27,0.10,-0.33,
0.202,-0.45,-0.23,0.86,-0.27,0.10,-0.33,
0.203,-0.45,-0.23,0.86,-0.25,0.11,-0.33,
0.214,-0.45,-0.23,0.86,-0.24,0.12,-0.33,
0.215,-0.45,-0.23,0.86,-0.23,0.14,-0.33,
0.238,-0.45,-0.23,0.86,-0.23,0.16,-0.34,
0.238,-0.45,-0.23,0.86,-0.23,0.18,-0.34,
0.238,-0.33,-0.35,0.59,-0.23,0.18,-0.34,
0.238,-0.33,-0.35,0.59,-0.24,0.20,-0.35,
0.239,-0.33,-0.35,0.59,-0.25,0.23,-0.35,
0.239,-0.33,-0.35,0.59,-0.28,0.29,-0.36,
0.239,-0.33,-0.35,0.59,-0.29,0.31,-0.36,
0.239,-0.33,-0.35,0.59,-0.32,0.35,-0.36,
0.24,-0.36,-0.46,-0.04,-0.32,0.35,-0.36,
0.24,-0.36,-0.46,-0.04,-0.36,0.39,-0.37,
0.24,-0.36,-0.46,-0.04,-0.40,0.44,-0.37,
0.241,-0.36,-0.46,-0.04,-0.47,0.53,-0.37,
0.241,-0.36,-0.46,-0.04,-0.49,0.56,-0.37,
0.241,-0.36,-0.46,-0.04,-0.55,0.61,-0.37,
0.241,-0.37,-0.53,-0.98,-0.55,0.61,-0.37,
0.242,-0.37,-0.53,-0.98,-0.61,0.67,-0.37,
0.242,-0.37,-0.53,-0.98,-0.67,0.72,-0.36,
0.242,-0.37,-0.53,-0.98,-0.76,0.81,-0.34,
0.242,-0.37,-0.53,-0.98,-0.79,0.83,-0.33,
0.243,-0.37,-0.53,-0.98,-0.85,0.89,-0.31,
0.243,-0.37,-0.44,-1.51,-0.85,0.89,-0.31,
0.243,-0.37,-0.44,-1.51,-0.91,0.94,-0.29,
0.243,-0.37,-0.44,-1.51,-0.97,0.99,-0.27,
0.256,-0.37,-0.44,-1.51,-1.05,1.07,-0.24,
0.256,-0.37,-0.44,-1.51,-1.08,1.09,-0.23,
0.257,-0.37,-0.44,-1.51,-1.13,1.13,-0.21,
0.257,-0.55,-0.51,-1.53,-1.13,1.13,-0.21,
0.257,-0.55,-0.51,-1.53,-1.17,1.17,-0.19,
0.257,-0.55,-0.51,-1.53,-1.21,1.21,-0.17,
0.258,-0.55,-0.51,-1.53,-1.26,1.25,-0.15,
0.258,-0.55,-0.51,-1.53,-1.27,1.26,-0.14,
0.261,-0.55,-0.51,-1.53,-1.30,1.27,-0.12,
0.261,-0.50,-0.59,-1.20,-1.30,1.27,-0.12,
0.262,-0.50,-0.59,-1.20,-1.32,1.28,-0.11,
0.263,-0.50,-0.59,-1.20,-1.34,1.27,-0.10,
0.267,-0.50,-0.59,-1.20,-1.36,1.24,-0.08,
0.267,-0.50,-0.59,-1.20,-1.36,1.22,-0.08,
0.269,-0.50,-0.59,-1.20,-1.37,1.18,-0.07,
0.287,-0.21,-0.48,-0.57,-1.37,1.18,-0.07,
0.287,-0.21,-0.48,-0.57,-1.37,1.12,-0.07,
0.287,-0.21,-0.48,-0.57,-1.37,1.06,-0.07,
0.287,-0.21,-0.48,-0.57,-1.36,0.96,-0.08,
0.288,-0.21,-0.48,-0.57,-1.36,0.92,-0.09,
0.288,-0.21,-0.48,-0.57,-1.36,0.86,-0.11,
0.288,0.32,-0.12,-0.15,-1.36,0.86,-0.11,
0.288,0.32,-0.12,-0.15,-1.35,0.80,-0.13,
0.288,0.32,-0.12,-0.15,-1.36,0.74,-0.15,
0.289,0.32,-0.12,-0.15,-1.38,0.67,-0.20,
0.289,0.32,-0.12,-0.15,-1.39,0.66,-0.22,
0.293,0.32,-0.12,-0.15,-1.41,0.63,-0.26,
0.294,0.79,0.31,-0.83,-1.41,0.63,-0.26,
0.294,0.79,0.31,-0.83,-1.45,0.62,-0.31,
0.294,0.79,0.31,-0.83,-1.49,0.61,-0.35,
0.298,0.79,0.31,-0.83,-1.57,0.60,-0.41,
0.305,0.79,0.31,-0.83,-1.59,0.60,-0.44,
0.306,0.79,0.31,-0.83,-1.65,0.59,-0.48,
0.306,0.83,0.43,-1.43,-1.65,0.59,-0.48,
0.306,0.83,0.43,-1.43,-1.70,0.58,-0.52,
0.306,0.83,0.43,-1.43,-1.76,0.58,-0.56,
0.307,0.83,0.43,-1.43,-1.84,0.57,-0.61,
0.316,0.83,0.43,-1.43,-1.86,0.57,-0.63,
0.316,0.83,0.43,-1.43,-1.91,0.58,-0.66,
0.317,0.64,0.53,-1.09,-1.91,0.58,-0.66,
0.317,0.64,0.53,-1.09,-1.95,0.58,-0.68,
0.317,0.64,0.53,-1.09,-1.99,0.58,-0.71,
0.317,0.64,0.53,-1.09,-2.03,0.59,-0.73,
0.318,0.64,0.53,-1.09,-2.04,0.58,-0.74,
0.319,0.64,0.53,-1.09,-2.06,0.58,-0.75,
0.323,0.12,0.40,0.17,-2.06,0.58,-0.75,
0.323,0.12,0.40,0.17,-2.06,0.57,-0.75,
0.324,0.12,0.40,0.17,-2.05,0.55,-0.75,
0.326,0.12,0.40,0.17,-2.02,0.51,-0.73,
0.328,0.12,0.40,0.17,-2.00,0.49,-0.72,
0.329,0.12,0.40,0.17,-1.96,0.45,-0.70,
0.331,-0.62,0.01,2.14,-1.96,0.45,-0.70,
0.332,-0.62,0.01,2.14,-1.91,0.39,-0.68,
0.333,-0.62,0.01,2.14,-1.85,0.29,-0.65,
0.336,-0.62,0.01,2.14,-1.75,0.16,-0.60,
0.337,-0.62,0.01,2.14,-1.71,0.13,-0.58,
0.34,-0.62,0.01,2.14,-1.63,0.08,-0.54,
0.342,-1.09,-0.30,3.62,-1.63,0.08,-0.54,
0.346,-1.09,-0.30,3.62,-1.55,0.04,-0.50,
0.346,-1.09,-0.30,3.62,-1.46,0.02,-0.45,
0.346,-1.09,-0.30,3.62,-1.32,-0.01,-0.39,
0.347,-1.09,-0.30,3.62,-1.27,-0.02,-0.37,
0.35,-1.09,-0.30,3.62,-1.18,-0.03,-0.33,
0.352,-1.08,-0.57,3.35,-1.18,-0.03,-0.33,
0.352,-1.08,-0.57,3.35,-1.09,-0.04,-0.30,
0.353,-1.08,-0.57,3.35,-1.01,-0.04,-0.27,
0.359,-1.08,-0.57,3.35,-0.89,-0.05,-0.24,
0.36,-1.08,-0.57,3.35,-0.86,-0.06,-0.23,
0.361,-1.08,-0.57,3.35,-0.80,-0.08,-0.21,
0.362,-0.52,-0.92,2.29,-0.80,-0.08,-0.21,
0.363,-0.52,-0.92,2.29,-0.75,-0.10,-0.19,
0.364,-0.52,-0.92,2.29,-0.71,-0.12,-0.18,
0.366,-0.52,-0.92,2.29,-0.66,-0.14,-0.17,
0.367,-0.52,-0.92,2.29,-0.65,-0.15,-0.16,
0.369,-0.52,-0.92,2.29,-0.64,-0.17,-0.16,
0.374,0.03,-1.36,1.14,-0.64,-0.17,-0.16,
0.375,0.03,-1.36,1.14,-0.63,-0.19,-0.15,
0.401,0.03,-1.36,1.14,-0.63,-0.20,-0.14,
0.401,0.03,-1.36,1.14,-0.64,-0.22,-0.13,
0.402,0.03,-1.36,1.14,-0.64,-0.22,-0.13,
0.402,0.03,-1.36,1.14,-0.65,-0.23,-0.12,
0.402,0.34,-1.56,0.30,-0.65,-0.23,-0.12,
0.402,0.34,-1.56,0.30,-0.67,-0.23,-0.11,
0.403,0.34,-1.56,0.30,-0.68,-0.24,-0.10,
0.403,0.34,-1.56,0.30,-0.72,-0.23,-0.08,
0.403,0.34,-1.56,0.30,-0.73,-0.23,-0.08,
0.404,0.34,-1.56,0.30,-0.75,-0.21,-0.06,
0.404,0.18,-1.41,0.04,-0.75,-0.21,-0.06,
0.404,0.18,-1.41,0.04,-0.77,-0.18,-0.04,
0.404,0.18,-1.41,0.04,-0.79,-0.15,-0.01,
0.405,0.18,-1.41,0.04,-0.82,-0.14,0.04,
0.405,0.18,-1.41,0.04,-0.83,-0.15,0.06,
0.405,0.18,-1.41,0.04,-0.84,-0.18,0.09,
0.406,-0.53,-1.25,0.08,-0.84,-0.18,0.09,
0.406,-0.53,-1.25,0.08,-0.84,-0.22,0.12,
0.406,-0.53,-1.25,0.08,-0.85,-0.27,0.15,
0.411,-0.53,-1.25,0.08,-0.84,-0.34,0.19,
0.412,-0.53,-1.25,0.08,-0.84,-0.37,0.21,
0.412,-0.53,-1.25,0.08,-0.82,-0.42,0.23,
0.412,-0.41,-0.67,0.25,-0.82,-0.42,0.23,
0.413,-0.41,-0.67,0.25,-0.80,-0.48,0.25,
0.413,-0.41,-0.67,0.25,-0.77,-0.54,0.27,
0.416,-0.41,-0.67,0.25,-0.72,-0.63,0.29,
0.417,-0.41,-0.67,0.25,-0.70,-0.66,0.30,
0.42,-0.41,-0.67,0.25,-0.67,-0.73,0.31,
0.434,0.01,0.07,0.52,-0.67,-0.73,0.31,
0.436,0.01,0.07,0.52,-0.62,-0.79,0.32,
0.437,0.01,0.07,0.52,-0.57,-0.86,0.32,
0.438,0.01,0.07,0.52,-0.49,-0.96,0.31,
0.439,0.01,0.07,0.52,-0.47,-0.99,0.30,
0.44,0.01,0.07,0.52,-0.41,-1.06,0.29,
0.44,0.43,0.72,0.65,-0.41,-1.06,0.29,
0.44,0.43,0.72,0.65,-0.37,-1.12,0.27,
0.441,0.43,0.72,0.65,-0.32,-1.18,0.24,
0.441,0.43,0.72,0.65,-0.26,-1.26,0.20,
0.442,0.43,0.72,0.65,-0.24,-1.29,0.18,
0.442,0.43,0.72,0.65,-0.21,-1.33,0.14,
0.443,0.65,1.18,0.33,-0.21,-1.33,0.14,
0.443,0.65,1.18,0.33,-0.19,-1.38,0.10,
0.443,0.65,1.18,0.33,-0.17,-1.42,0.06,
0.453,0.65,1.18,0.33,-0.14,-1.48,-0.01,
0.454,0.65,1.18,0.33,-0.14,-1.50,-0.04,
0.455,0.65,1.18,0.33,-0.13,-1.53,-0.09,
0.456,0.65,1.45,-0.16,-0.13,-1.53,-0.09,
0.457,0.65,1.45,-0.16,-0.12,-1.56,-0.14,
0.458,0.65,1.45,-0.16,-0.11,-1.59,-0.19,
0.458,0.65,1.45,-0.16,-0.12,-1.59,-0.26,
0.459,0.65,1.45,-0.16,-0.14,-1.55,-0.27,
0.46,0.65,1.45,-0.16,-0.20,-1.42,-0.30,
0.47,0.44,1.55,-1.06,-0.20,-1.42,-0.30,
0.471,0.44,1.55,-1.06,-0.29,-1.20,-0.32,
0.471,0.44,1.55,-1.06,-0.38,-1.00,-0.35,
0.472,0.44,1.55,-1.06,-0.43,-0.90,-0.38,
0.472,0.44,1.55,-1.06,-0.43,-0.91,-0.37,
0.472,0.44,1.55,-1.06,-0.42,-0.94,-0.35,
0.472,0.05,0.71,-1.07,-0.42,-0.94,-0.35,
0.472,0.05,0.71,-1.07,-0.40,-0.96,-0.32,
0.49,0.05,0.71,-1.07,-0.38,-0.97,-0.27,
0.49,0.05,0.71,-1.07,-0.35,-0.96,-0.17,
0.491,0.05,0.71,-1.07,-0.34,-0.96,-0.14,
0.491,0.05,0.71,-1.07,-0.32,-0.94,-0.09,
0.491,-0.40,0.59,-0.45,-0.32,-0.94,-0.09,
0.491,-0.40,0.59,-0.45,-0.31,-0.93,-0.04,
0.491,-0.40,0.59,-0.45,-0.30,-0.93,0.00,
0.492,-0.40,0.59,-0.45,-0.30,-0.96,0.05,
0.492,-0.40,0.59,-0.45,-0.30,-0.97,0.07,
0.492,-0.40,0.59,-0.45,-0.30,-1.00,0.09,
0.492,0.16,0.57,-0.43,-0.30,-1.00,0.09,
0.492,0.16,0.57,-0.43,-0.31,-1.04,0.11,
0.503,0.16,0.57,-0.43,-0.31,-1.07,0.13,
0.504,0.16,0.57,-0.43,-0.33,-1.12,0.16,
0.504,0.16,0.57,-0.43,-0.34,-1.14,0.17,
0.504,0.16,0.57,-0.43,-0.34,-1.17,0.19,
0.505,0.65,0.43,-0.81,-0.34,-1.17,0.19,
0.505,0.65,0.43,-0.81,-0.36,-1.19,0.21,
0.505,0.65,0.43,-0.81,-0.37,-1.21,0.22,
0.513,0.65,0.43,-0.81,-0.38,-1.24,0.26,
0.513,0.65,0.43,-0.81,-0.38,-1.25,0.27,
0.514,0.65,0.43,-0.81,-0.39,-1.26,0.29,
0.514,0.68,0.51,-0.86,-0.39,-1.26,0.29,
0.515,0.68,0.51,-0.86,-0.39,-1.27,0.31,
0.515,0.68,0.51,-0.86,-0.39,-1.27,0.34,
0.517,0.68,0.51,-0.86,-0.39,-1.27,0.38,
0.518,0.68,0.51,-0.86,-0.39,-1.27,0.39,
0.52,0.68,0.51,-0.86,-0.38,-1.27,0.42,
0.531,0.35,0.52,-0.58,-0.38,-1.27,0.42,
0.532,0.35,0.52,-0.58,-0.37,-1.27,0.45,
0.533,0.35,0.52,-0.58,-0.36,-1.26,0.49,
0.533,0.35,0.52,-0.58,-0.34,-1.27,0.54,
0.533,0.35,0.52,-0.58,-0.33,-1.27,0.56,
0.534,0.35,0.52,-0.58,-0.31,-1.27,0.59,
0.534,0.08,0.41,-0.25,-0.31,-1.27,0.59,
0.534,0.08,0.41,-0.25,-0.29,-1.27,0.63,
0.535,0.08,0.41,-0.25,-0.28,-1.27,0.66,
0.536,0.08,0.41,-0.25,-0.24,-1.28,0.71,
0.54,0.08,0.41,-0.25,-0.23,-1.29,0.73,
0.542,0.08,0.41,-0.25,-0.21,-1.30,0.75,
0.566,0.03,0.16,-0.11,-0.21,-1.30,0.75,
0.566,0.03,0.16,-0.11,-0.19,-1.31,0.77,
0.566,0.03,0.16,-0.11,-0.17,-1.33,0.79,
0.567,0.03,0.16,-0.11,-0.15,-1.37,0.82,
0.567,0.03,0.16,-0.11,-0.14,-1.38,0.83,
0.567,0.03,0.16,-0.11,-0.13,-1.41,0.84,
0.568,0.05,0.07,-0.20,-0.13,-1.41,0.84,
0.568,0.05,0.07,-0.20,-0.13,-1.45,0.84,
0.568,0.05,0.07,-0.20,-0.12,-1.48,0.85,
0.568,0.05,0.07,-0.20,-0.13,-1.53,0.85,
0.569,0.05,0.07,-0.20,-0.14,-1.54,0.84,
0.569,0.05,0.07,-0.20,-0.15,-1.56,0.84,
0.569,0.01,0.22,-0.54,-0.15,-1.56,0.84,
0.569,0.01,0.22,-0.54,-0.16,-1.58,0.84,
0.57,0.01,0.22,-0.54,-0.17,-1.59,0.83,
0.57,0.01,0.22,-0.54,-0.19,-1.60,0.83,
0.57,0.01,0.22,-0.54,-0.20,-1.59,0.83,
0.571,0.01,0.22,-0.54,-0.22,-1.59,0.83,
0.573,-0.22,0.33,-0.89,-0.22,-1.59,0.83,
0.573,-0.22,0.33,-0.89,-0.24,-1.58,0.82,
0.574,-0.22,0.33,-0.89,-0.26,-1.56,0.81,
0.576,-0.22,0.33,-0.89,-0.30,-1.53,0.80,
0.577,-0.22,0.33,-0.89,-0.32,-1.52,0.79,
0.579,-0.22,0.33,-0.89,-0.35,-1.50,0.79,
0.581,-0.26,0.27,-1.16,-0.35,-1.50,0.79,
0.581,-0.26,0.27,-1.16,-0.38,-1.47,0.78,
0.584,-0.26,0.27,-1.16,-0.41,-1.43,0.77,
0.588,-0.26,0.27,-1.16,-0.47,-1.37,0.76,
0.589,-0.26,0.27,-1.16,-0.50,-1.32,0.75,
0.589,-0.26,0.27,-1.16,-0.52,-1.29,0.75,
0.592,-0.24,0.18,-1.17,-0.52,-1.29,0.75,
0.592,-0.24,0.18,-1.17,-0.55,-1.24,0.74,
0.594,-0.24,0.18,-1.17,-0.58,-1.17,0.74,
0.598,-0.24,0.18,-1.17,-0.62,-1.06,0.74,
0.598,-0.24,0.18,-1.17,-0.64,-1.02,0.74,
0.599,-0.24,0.18,-1.17,-0.66,-0.93,0.73,
0.601,-0.16,0.06,-0.97,-0.66,-0.93,0.73,
0.602,-0.16,0.06,-0.97,-0.69,-0.83,0.73,
0.605,-0.16,0.06,-0.97,-0.71,-0.73,0.72,
0.609,-0.16,0.06,-0.97,-0.73,-0.57,0.71,
0.61,-0.16,0.06,-0.97,-0.74,-0.51,0.71,
0.611,-0.16,0.06,-0.97,-0.75,-0.40,0.70,
0.612,-0.07,-0.15,-0.48,-0.75,-0.40,0.70,
0.612,-0.07,-0.15,-0.48,-0.75,-0.29,0.69,
0.613,-0.07,-0.15,-0.48,-0.75,-0.18,0.68,
0.616,-0.07,-0.15,-0.48,-0.73,-0.02,0.66,
0.617,-0.07,-0.15,-0.48,-0.73,0.03,0.65,
0.62,-0.07,-0.15,-0.48,-0.71,0.13,0.64,
0.627,0.05,-0.33,0.27,-0.71,0.13,0.64,
0.629,0.05,-0.33,0.27,-0.68,0.23,0.63,
0.63,0.05,-0.33,0.27,-0.66,0.33,0.61,
0.63,0.05,-0.33,0.27,-0.60,0.46,0.58,
0.632,0.05,-0.33,0.27,-0.58,0.49,0.57,
0.632,0.05,-0.33,0.27,-0.54,0.57,0.55,
0.633,0.15,-0.56,0.95,-0.54,0.57,0.55,
0.634,0.15,-0.56,0.95,-0.49,0.64,0.53,
0.634,0.15,-0.56,0.95,-0.44,0.70,0.51,
0.651,0.15,-0.56,0.95,-0.35,0.78,0.49,
0.652,0.15,-0.56,0.95,-0.32,0.80,0.48,
0.652,0.15,-0.56,0.95,-0.25,0.83,0.47,
0.652,-0.03,-0.69,1.62,-0.25,0.83,0.47,
0.652,-0.03,-0.69,1.62,-0.18,0.86,0.46,
0.652,-0.03,-0.69,1.62,-0.11,0.88,0.45,
0.653,-0.03,-0.69,1.62,0.02,0.88,0.45,
0.653,-0.03,-0.69,1.62,0.06,0.87,0.44,
0.653,-0.03,-0.69,1.62,0.14,0.85,0.44,
0.653,-0.38,-0.77,2.16,0.14,0.85,0.44,
0.653,-0.38,-0.77,2.16,0.23,0.82,0.45,
0.653,-0.38,-0.77,2.16,0.32,0.78,0.46,
0.674,-0.38,-0.77,2.16,0.45,0.71,0.47,
0.675,-0.38,-0.77,2.16,0.49,0.68,0.48,
0.675,-0.38,-0.77,2.16,0.56,0.63,0.49,
0.675,-0.68,-0.74,2.27,0.56,0.63,0.49,
0.676,-0.68,-0.74,2.27,0.63,0.57,0.50,
0.676,-0.68,-0.74,2.27,0.69,0.51,0.51,
0.676,-0.68,-0.74,2.27,0.76,0.42,0.53,
0.676,-0.68,-0.74,2.27,0.78,0.38,0.53,
0.677,-0.68,-0.74,2.27,0.82,0.31,0.54,
0.677,-0.53,-0.61,1.54,0.82,0.31,0.54,
0.677,-0.53,-0.61,1.54,0.84,0.24,0.54,
0.678,-0.53,-0.61,1.54,0.86,0.16,0.55,
0.678,-0.53,-0.61,1.54,0.87,0.06,0.55,
0.678,-0.53,-0.61,1.54,0.87,0.03,0.54,
0.68,-0.53,-0.61,1.54,0.87,-0.03,0.55,
0.681,-0.22,-0.44,0.28,0.87,-0.03,0.55,
0.682,-0.22,-0.44,0.28,0.87,-0.08,0.55,
0.683,-0.22,-0.44,0.28,0.87,-0.12,0.54,
0.688,-0.22,-0.44,0.28,0.88,-0.17,0.55,
0.689,-0.22,-0.44,0.28,0.88,-0.17,0.55,
0.69,-0.22,-0.44,0.28,0.89,-0.18,0.55,
0.692,0.06,-0.13,-0.18,0.89,-0.18,0.55,
0.692,0.06,-0.13,-0.18,0.89,-0.18,0.55,
0.694,0.06,-0.13,-0.18,0.90,-0.16,0.55,
0.7,0.06,-0.13,-0.18,0.94,-0.08,0.54,
0.701,0.06,-0.13,-0.18,0.94,-0.08,0.54,
0.702,0.06,-0.13,-0.18,0.94,-0.08,0.54,
0.702,0.35,0.06,-0.08,0.94,-0.08,0.54,
0.703,0.35,0.06,-0.08,0.94,-0.05,0.54,
0.705,0.35,0.06,-0.08,0.95,-0.04,0.53,
0.707,0.35,0.06,-0.08,0.95,-0.02,0.51,
0.736,0.35,0.06,-0.08,0.95,-0.02,0.50,
0.737,0.35,0.06,-0.08,0.95,-0.03,0.49,
0.738,0.54,0.14,0.02,0.95,-0.03,0.49,
0.739,0.54,0.14,0.02,0.94,-0.04,0.47,
0.739,0.54,0.14,0.02,0.92,-0.06,0.45,
0.74,0.54,0.14,0.02,0.89,-0.10,0.42,
0.741,0.54,0.14,0.02,0.88,-0.11,0.41,
0.742,0.54,0.14,0.02,0.85,-0.14,0.39,
0.743,0.37,0.20,-0.28,0.85,-0.14,0.39,
0.744,0.37,0.20,-0.28,0.82,-0.16,0.36,
0.744,0.37,0.20,-0.28,0.78,-0.19,0.34,
0.745,0.37,0.20,-0.28,0.71,-0.21,0.30,
0.745,0.37,0.20,-0.28,0.69,-0.22,0.29,
0.746,0.37,0.20,-0.28,0.64,-0.22,0.27,
0.746,-0.03,0.30,-0.92,0.64,-0.22,0.27,
0.747,-0.03,0.30,-0.92,0.58,-0.22,0.25,
0.747,-0.03,0.30,-0.92,0.53,-0.22,0.24,
0.747,-0.03,0.30,-0.92,0.46,-0.21,0.22,
0.748,-0.03,0.30,-0.92,0.44,-0.21,0.21,
0.748,-0.03,0.30,-0.92,0.41,-0.21,0.20,
0.749,-0.21,0.36,-1.05,0.41,-0.21,0.20,
0.749,-0.21,0.36,-1.05,0.39,-0.21,0.20,
0.749,-0.21,0.36,-1.05,0.37,-0.21,0.20,
0.75,-0.21,0.36,-1.05,0.36,-0.21,0.20,
0.75,-0.21,0.36,-1.05,0.36,-0.21,0.20,
0.751,-0.21,0.36,-1.05,0.36,-0.21,0.21,
0.751,-0.32,0.19,-0.28,0.36,-0.21,0.21,
0.751,-0.32,0.19,-0.28,0.36,-0.22,0.21,
0.754,-0.32,0.19,-0.28,0.37,-0.21,0.22,
0.756,-0.32,0.19,-0.28,0.39,-0.20,0.23,
0.757,-0.32,0.19,-0.28,0.39,-0.20,0.23,
0.759,-0.32,0.19,-0.28,0.41,-0.18,0.24,
0.762,-0.47,-0.06,0.38,0.41,-0.18,0.24,
0.762,-0.47,-0.06,0.38,0.42,-0.17,0.24,
0.764,-0.47,-0.06,0.38,0.44,-0.16,0.25,
0.767,-0.47,-0.06,0.38,0.47,-0.14,0.25,
0.768,-0.47,-0.06,0.38,0.48,-0.13,0.25,
0.774,-0.47,-0.06,0.38,0.50,-0.12,0.25,
0.776,-0.41,-0.24,0.65,0.50,-0.12,0.25,
0.777,-0.41,-0.24,0.65,0.52,-0.11,0.25,
0.778,-0.41,-0.24,0.65,0.54,-0.11,0.25,
0.778,-0.41,-0.24,0.65,0.57,-0.09,0.25,
0.779,-0.41,-0.24,0.65,0.58,-0.09,0.25,
0.784,-0.41,-0.24,0.65,0.60,-0.08,0.24,
0.784,-0.27,-0.26,0.81,0.60,-0.08,0.24,
0.785,-0.27,-0.26,0.81,0.62,-0.06,0.24,
0.785,-0.27,-0.26,0.81,0.64,-0.04,0.23,
0.793,-0.27,-0.26,0.81,0.67,0.02,0.22,
0.794,-0.27,-0.26,0.81,0.67,0.04,0.22,
0.794,-0.27,-0.26,0.81,0.69,0.08,0.22,
0.795,-0.37,-0.22,0.88,0.69,0.08,0.22,
0.797,-0.37,-0.22,0.88,0.70,0.12,0.21,
0.798,-0.37,-0.22,0.88,0.72,0.16,0.20,
0.802,-0.37,-0.22,0.88,0.73,0.21,0.19,
0.803,-0.37,-0.22,0.88,0.74,0.23,0.19,
0.813,-0.37,-0.22,0.88,0.75,0.25,0.18,
0.815,-0.22,-0.32,0.72,0.75,0.25,0.18,
0.816,-0.22,-0.32,0.72,0.75,0.27,0.17,
0.816,-0.22,-0.32,0.72,0.75,0.29,0.16,
0.816,-0.22,-0.32,0.72,0.76,0.31,0.15,
0.817,-0.22,-0.32,0.72,0.76,0.31,0.15,
0.817,-0.22,-0.32,0.72,0.76,0.33,0.14,
0.817,0.06,-0.25,0.61,0.76,0.33,0.14,
0.817,0.06,-0.25,0.61,0.76,0.35,0.14,
0.818,0.06,-0.25,0.61,0.76,0.37,0.13,
0.818,0.06,-0.25,0.61,0.76,0.41,0.12,
0.818,0.06,-0.25,0.61,0.75,0.43,0.12,
0.83,0.06,-0.25,0.61,0.75,0.47,0.11,
0.831,0.18,-0.14,0.38,0.75,0.47,0.11,
0.831,0.18,-0.14,0.38,0.74,0.50,0.10,
0.832,0.18,-0.14,0.38,0.74,0.53,0.10,
0.832,0.18,-0.14,0.38,0.72,0.59,0.09,
0.832,0.18,-0.14,0.38,0.72,0.61,0.08,
0.832,0.18,-0.14,0.38,0.71,0.65,0.08,
0.833,0.12,-0.18,0.19,0.71,0.65,0.08,
0.833,0.12,-0.18,0.19,0.70,0.69,0.07,
0.833,0.12,-0.18,0.19,0.69,0.72,0.07,
0.838,0.12,-0.18,0.19,0.66,0.77,0.07,
0.838,0.12,-0.18,0.19,0.65,0.78,0.07,
0.842,0.12,-0.18,0.19,0.63,0.81,0.07,
0.844,-0.19,-0.10,-0.18,0.63,0.81,0.07,
0.844,-0.19,-0.10,-0.18,0.61,0.83,0.07,
0.845,-0.19,-0.10,-0.18,0.58,0.84,0.07,
0.846,-0.19,-0.10,-0.18,0.55,0.84,0.08,
0.848,-0.19,-0.10,-0.18,0.54,0.84,0.08,
0.851,-0.19,-0.10,-0.18,0.52,0.81,0.09,
0.852,-0.37,-0.13,-0.45,0.52,0.81,0.09,
0.852,-0.37,-0.13,-0.45,0.51,0.76,0.11,
0.854,-0.37,-0.13,-0.45,0.51,0.70,0.13,
0.856,-0.37,-0.13,-0.45,0.51,0.63,0.17,
0.857,-0.37,-0.13,-0.45,0.51,0.62,0.18,
0.86,-0.37,-0.13,-0.45,0.51,0.60,0.19,
0.861,-0.50,-0.28,-0.23,0.51,0.60,0.19,
0.862,-0.50,-0.28,-0.23,0.50,0.58,0.20,
0.864,-0.50,-0.28,-0.23,0.49,0.57,0.20,
0.867,-0.50,-0.28,-0.23,0.46,0.54,0.20,
0.868,-0.50,-0.28,-0.23,0.45,0.52,0.19,
0.873,-0.50,-0.28,-0.23,0.42,0.49,0.18,
0.876,-0.10,-0.00,-0.58,0.42,0.49,0.18,
0.877,-0.10,-0.00,-0.58,0.41,0.45,0.17,
0.909,-0.10,-0.00,-0.58,0.39,0.39,0.15,
0.91,-0.10,-0.00,-0.58,0.39,0.30,0.13,
0.91,-0.10,-0.00,-0.58,0.39,0.26,0.12,
0.911,-0.10,-0.00,-0.58,0.40,0.18,0.10,
0.911,0.02,0.08,-0.40,0.40,0.18,0.10,
0.911,0.02,0.08,-0.40,0.41,0.09,0.07,
0.912,0.02,0.08,-0.40,0.42,-0.00,0.05,
0.912,0.02,0.08,-0.40,0.44,-0.13,0.01,
0.913,0.02,0.08,-0.40,0.44,-0.17,-0.00,
0.913,0.02,0.08,-0.40,0.46,-0.25,-0.04,
0.914,0.34,0.11,-0.12,0.46,-0.25,-0.04,
0.914,0.34,0.11,-0.12,0.47,-0.32,-0.06,
0.914,0.34,0.11,-0.12,0.47,-0.38,-0.09,
0.915,0.34,0.11,-0.12,0.48,-0.44,-0.14,
0.915,0.34,0.11,-0.12,0.48,-0.45,-0.15,
0.916,0.34,0.11,-0.12,0.48,-0.48,-0.17,
0.916,0.37,0.22,0.03,0.48,-0.48,-0.17,
0.917,0.37,0.22,0.03,0.48,-0.48,-0.20,
0.917,0.37,0.22,0.03,0.48,-0.48,-0.22,
0.917,0.37,0.22,0.03,0.49,-0.46,-0.25,
0.918,0.37,0.22,0.03,0.49,-0.45,-0.25,
0.918,0.37,0.22,0.03,0.49,-0.43,-0.27,
0.919,0.19,0.05,0.23,0.49,-0.43,-0.27,
0.919,0.19,0.05,0.23,0.50,-0.40,-0.28,
0.919,0.19,0.05,0.23,0.52,-0.37,-0.28,
0.92,0.19,0.05,0.23,0.53,-0.32,-0.28,
0.92,0.19,0.05,0.23,0.54,-0.31,-0.28,
0.921,0.19,0.05,0.23,0.55,-0.29,-0.27,
0.923,-0.18,-0.20,0.36,0.55,-0.29,-0.27,
0.924,-0.18,-0.20,0.36,0.56,-0.26,-0.26,
0.925,-0.18,-0.20,0.36,0.56,-0.24,-0.25,
0.927,-0.18,-0.20,0.36,0.57,-0.20,-0.22,
0.927,-0.18,-0.20,0.36,0.57,-0.19,-0.21,
0.929,-0.18,-0.20,0.36,0.56,-0.17,-0.18,
0.931,-0.73,-0.40,0.01,0.56,-0.17,-0.18,
0.932,-0.73,-0.40,0.01,0.55,-0.14,-0.16,
0.933,-0.73,-0.40,0.01,0.53,-0.11,-0.13,
0.937,-0.73,-0.40,0.01,0.47,-0.04,-0.07,
0.938,-0.73,-0.40,0.01,0.46,-0.02,-0.06,
0.94,-0.73,-0.40,0.01,0.44,-0.00,-0.05,
0.942,-1.07,-0.53,-0.75,0.44,-0.00,-0.05,
0.942,-1.07,-0.53,-0.75,0.39,0.04,-0.02,
0.944,-1.07,-0.53,-0.75,0.35,0.10,0.01,
0.946,-1.07,-0.53,-0.75,0.28,0.18,0.05,
0.947,-1.07,-0.53,-0.75,0.25,0.21,0.06,
0.949,-1.07,-0.53,-0.75,0.21,0.26,0.08,
0.951,-1.04,-0.40,-1.21,0.21,0.26,0.08,
0.952,-1.04,-0.40,-1.21,0.17,0.31,0.10,
0.962,-1.04,-0.40,-1.21,0.13,0.36,0.12,
0.963,-1.04,-0.40,-1.21,0.09,0.41,0.14,
0.963,-1.04,-0.40,-1.21,0.08,0.43,0.15,
0.964,-1.04,-0.40,-1.21,0.06,0.45,0.16,
0.964,-0.65,-0.17,-0.97,0.06,0.45,0.16,
0.964,-0.65,-0.17,-0.97,0.04,0.46,0.16,
0.965,-0.65,-0.17,-0.97,0.02,0.47,0.17,
0.988,-0.65,-0.17,-0.97,0.00,0.49,0.18,
0.988,-0.65,-0.17,-0.97,-0.00,0.49,0.18,
0.989,-0.65,-0.17,-0.97,-0.01,0.49,0.19,
0.989,-0.25,-0.05,-0.61,-0.01,0.49,0.19,
0.989,-0.25,-0.05,-0.61,-0.03,0.50,0.19,
0.989,-0.25,-0.05,-0.61,-0.04,0.50,0.19,
0.989,-0.25,-0.05,-0.61,-0.06,0.51,0.19,
0.99,-0.25,-0.05,-0.61,-0.07,0.51,0.19,
0.99,-0.25,-0.05,-0.61,-0.09,0.52,0.19,
0.99,-0.03,0.07,-0.58,-0.09,0.52,0.19,
0.99,-0.03,0.07,-0.58,-0.10,0.52,0.18,
0.99,-0.03,0.07,-0.58,-0.11,0.53,0.18,
0.99,-0.03,0.07,-0.58,-0.13,0.52,0.17,
0.991,-0.03,0.07,-0.58,-0.14,0.52,0.17,
0.991,-0.03,0.07,-0.58,-0.15,0.51,0.16,
0.991,0.02,0.10,-0.50,-0.15,0.51,0.16,
0.992,0.02,0.10,-0.50,-0.16,0.51,0.15,
0.993,0.02,0.10,-0.50,-0.17,0.49,0.15,
0.996,0.02,0.10,-0.50,-0.17,0.46,0.14,
0.998,0.02,0.10,-0.50,-0.18,0.46,0.13,
0.999,0.02,0.10,-0.50,-0.18,0.43,0.12,
1.001,0.11,0.06,-0.20,-0.18,0.43,0.12,
1.002,0.11,0.06,-0.20,-0.18,0.41,0.11,
1.003,0.11,0.06,-0.20,-0.17,0.38,0.10,
1.006,0.11,0.06,-0.20,-0.16,0.34,0.09,
1.007,0.11,0.06,-0.20,-0.16,0.33,0.09,
1.009,0.11,0.06,-0.20,-0.14,0.30,0.08,
1.011,0.10,-0.03,0.29,-0.14,0.30,0.08,
1.012,0.10,-0.03,0.29,-0.12,0.27,0.07,
1.013,0.10,-0.03,0.29,-0.11,0.23,0.10,
1.016,0.10,-0.03,0.29,-0.09,0.19,0.14,
1.017,0.10,-0.03,0.29,-0.07,0.18,0.15,
1.02,0.10,-0.03,0.29,-0.05,0.16,0.15,
1.022,-0.07,-0.17,0.76,-0.05,0.16,0.15,
1.022,-0.07,-0.17,0.76,-0.03,0.16,0.15,
1.024,-0.07,-0.17,0.76,0.00,0.16,0.15,
1.029,-0.07,-0.17,0.76,0.05,0.16,0.12,
1.029,-0.07,-0.17,0.76,0.06,0.16,0.12,
1.03,-0.07,-0.17,0.76,0.09,0.16,0.10,
1.032,0.20,-0.27,1.00,0.09,0.16,0.10,
1.032,0.20,-0.27,1.00,0.12,0.15,0.07,
1.034,0.20,-0.27,1.00,0.15,0.15,0.05,
1.044,0.20,-0.27,1.00,0.18,0.13,0.01,
1.045,0.20,-0.27,1.00,0.19,0.13,0.00,
1.046,0.20,-0.27,1.00,0.21,0.12,-0.02,
1.074,0.34,-0.16,0.89,0.21,0.12,-0.02,
1.074,0.34,-0.16,0.89,0.24,0.10,-0.03,
1.074,0.34,-0.16,0.89,0.25,0.09,-0.05,
1.075,0.34,-0.16,0.89,0.27,0.08,-0.07,
1.075,0.34,-0.16,0.89,0.27,0.08,-0.07,
1.076,0.34,-0.16,0.89,0.28,0.07,-0.08,
1.076,0.21,-0.13,0.43,0.28,0.07,-0.08,
1.077,0.21,-0.13,0.43,0.28,0.07,-0.08,
1.077,0.21,-0.13,0.43,0.28,0.06,-0.07,
1.077,0.21,-0.13,0.43,0.28,0.06,-0.07,
1.078,0.21,-0.13,0.43,0.28,0.06,-0.06,
1.078,0.21,-0.13,0.43,0.27,0.06,-0.06,
1.079,-0.09,-0.21,-0.20,0.27,0.06,-0.06,
1.079,-0.09,-0.21,-0.20,0.26,0.06,-0.04,
1.079,-0.09,-0.21,-0.20,0.24,0.07,-0.04,
1.08,-0.09,-0.21,-0.20,0.22,0.09,-0.02,
1.08,-0.09,-0.21,-0.20,0.20,0.10,-0.01,
1.081,-0.09,-0.21,-0.20,0.18,0.12,0.01,
1.081,-0.39,-0.24,-0.80,0.18,0.12,0.01,
1.081,-0.39,-0.24,-0.80,0.16,0.13,0.03,
1.082,-0.39,-0.24,-0.80,0.13,0.15,0.04,
1.082,-0.39,-0.24,-0.80,0.09,0.17,0.07,
1.083,-0.39,-0.24,-0.80,0.08,0.18,0.08,
1.083,-0.39,-0.24,-0.80,0.05,0.20,0.10,
1.084,-0.57,-0.24,-1.06,0.05,0.20,0.10,
1.084,-0.57,-0.24,-1.06,0.03,0.21,0.11,
1.084,-0.57,-0.24,-1.06,0.01,0.22,0.13,
1.087,-0.57,-0.24,-1.06,-0.03,0.23,0.15,
1.087,-0.57,-0.24,-1.06,-0.04,0.24,0.16,
1.089,-0.57,-0.24,-1.06,-0.06,0.25,0.17,
1.091,-0.46,-0.14,-0.97,-0.06,0.25,0.17,
1.092,-0.46,-0.14,-0.97,-0.07,0.25,0.18,
1.094,-0.46,-0.14,-0.97,-0.09,0.26,0.19,
1.096,-0.46,-0.14,-0.97,-0.10,0.26,0.19,
1.098,-0.46,-0.14,-0.97,-0.11,0.26,0.19,
1.1,-0.46,-0.14,-0.97,-0.12,0.25,0.19,
1.101,-0.03,0.01,-0.72,-0.12,0.25,0.19,
1.103,-0.03,0.01,-0.72,-0.12,0.24,0.19,
1.104,-0.03,0.01,-0.72,-0.12,0.23,0.19,
1.106,-0.03,0.01,-0.72,-0.12,0.21,0.19,
1.108,-0.03,0.01,-0.72,-0.12,0.19,0.20,
1.109,-0.03,0.01,-0.72,-0.12,0.18,0.20,
1.112,0.25,0.14,-0.39,-0.12,0.18,0.20,
1.112,0.25,0.14,-0.39,-0.11,0.16,0.19,
1.113,0.25,0.14,-0.39,-0.10,0.15,0.18,
1.116,0.25,0.14,-0.39,-0.09,0.13,0.16,
1.117,0.25,0.14,-0.39,-0.08,0.12,0.15,
1.119,0.25,0.14,-0.39,-0.07,0.11,0.12,
1.122,0.54,0.22,-0.10,-0.07,0.11,0.12,
1.123,0.54,0.22,-0.10,-0.06,0.09,0.10,
1.125,0.54,0.22,-0.10,-0.04,0.07,0.08,
1.127,0.54,0.22,-0.10,-0.02,0.04,0.04,
1.128,0.54,0.22,-0.10,-0.01,0.03,0.03,
1.129,0.54,0.22,-0.10,-0.00,0.00,0.01,
1.131,0.63,0.25,-0.01,-0.00,0.00,0.01,
1.132,0.63,0.25,-0.01,0.01,-0.03,-0.02,
1.133,0.63,0.25,-0.01,0.02,-0.05,-0.03,
1.136,0.63,0.25,-0.01,0.04,-0.09,-0.06,
1.137,0.63,0.25,-0.01,0.04,-0.10,-0.06,
1.139,0.63,0.25,-0.01,0.05,-0.13,-0.07,
1.141,0.46,0.19,-0.06,0.05,-0.13,-0.07,
1.142,0.46,0.19,-0.06,0.06,-0.15,-0.08,
1.144,0.46,0.19,-0.06,0.07,-0.17,-0.09,
1.146,0.46,0.19,-0.06,0.08,-0.19,-0.09,
1.147,0.46,0.19,-0.06,0.08,-0.20,-0.10,
1.149,0.46,0.19,-0.06,0.09,-0.21,-0.10,
1.161,0.21,0.07,-0.11,0.09,-0.21,-0.10,
1.162,0.21,0.07,-0.11,0.10,-0.22,-0.10,
1.162,0.21,0.07,-0.11,0.10,-0.23,-0.10,
1.162,0.21,0.07,-0.11,0.11,-0.24,-0.11,
1.163,0.21,0.07,-0.11,0.11,-0.24,-0.11,
1.163,0.21,0.07,-0.11,0.12,-0.24,-0.11,
1.163,0.08,-0.02,-0.15,0.12,-0.24,-0.11,
1.164,0.08,-0.02,-0.15,0.12,-0.24,-0.10,
1.164,0.08,-0.02,-0.15,0.12,-0.24,-0.10,
1.167,0.08,-0.02,-0.15,0.11,-0.24,-0.10,
1.168,0.08,-0.02,-0.15,0.11,-0.23,-0.10,
1.184,0.08,-0.02,-0.15,0.11,-0.22,-0.09,
1.186,0.02,-0.03,-0.30,0.11,-0.22,-0.09,
1.186,0.02,-0.03,-0.30,0.10,-0.21,-0.09,
1.187,0.02,-0.03,-0.30,0.09,-0.20,-0.08,
1.188,0.02,-0.03,-0.30,0.08,-0.18,-0.08,
1.19,0.02,-0.03,-0.30,0.07,-0.17,-0.08,
1.191,0.02,-0.03,-0.30,0.06,-0.15,-0.07,
1.192,0.02,-0.04,-0.47,0.06,-0.15,-0.07,
1.193,0.02,-0.04,-0.47,0.05,-0.13,-0.07,
1.194,0.02,-0.04,-0.47,0.04,-0.12,-0.07,
1.194,0.02,-0.04,-0.47,0.02,-0.09,-0.06,
1.194,0.02,-0.04,-0.47,0.01,-0.08,-0.06,
1.195,0.02,-0.04,-0.47,-0.00,-0.07,-0.06,
1.195,0.04,-0.06,-0.41,-0.00,-0.07,-0.06,
1.196,0.04,-0.06,-0.41,-0.01,-0.05,-0.05,
1.196,0.04,-0.06,-0.41,-0.02,-0.04,-0.05,
1.196,0.04,-0.06,-0.41,-0.03,-0.02,-0.05,
1.198,0.04,-0.06,-0.41,-0.03,-0.02,-0.05,
1.199,0.04,-0.06,-0.41,-0.04,-0.01,-0.05,
1.203,0.09,-0.06,-0.13,-0.04,-0.01,-0.05,
1.205,0.09,-0.06,-0.13,-0.04,0.00,-0.05,
1.206,0.09,-0.06,-0.13,-0.04,0.02,-0.05,
1.208,0.09,-0.06,-0.13,-0.04,0.04,-0.05,
1.237,0.09,-0.06,-0.13,-0.04,0.04,-0.05,
1.237,0.09,-0.06,-0.13,-0.04,0.06,-0.05,
1.237,0.17,-0.06,0.13,-0.04,0.06,-0.05,
1.238,0.17,-0.06,0.13,-0.04,0.07,-0.05,
1.238,0.17,-0.06,0.13,-0.04,0.08,-0.06,
1.239,0.17,-0.06,0.13,-0.05,0.09,-0.06,
1.239,0.17,-0.06,0.13,-0.04,0.09,-0.06,
1.239,0.17,-0.06,0.13,-0.04,0.09,-0.07,
1.24,0.23,-0.04,0.21,-0.04,0.09,-0.07,
1.24,0.23,-0.04,0.21,-0.04,0.09,-0.07,
1.241,0.23,-0.04,0.21,-0.04,0.09,-0.08,
1.241,0.23,-0.04,0.21,-0.04,0.09,-0.09,
1.242,0.23,-0.04,0.21,-0.04,0.09,-0.09,
1.242,0.23,-0.04,0.21,-0.04,0.08,-0.10,
1.242,0.24,-0.05,0.34,-0.04,0.08,-0.10,
1.243,0.24,-0.05,0.34,-0.03,0.08,-0.11,
1.243,0.24,-0.05,0.34,-0.02,0.08,-0.11,
1.244,0.24,-0.05,0.34,-0.01,0.07,-0.12,
1.244,0.24,-0.05,0.34,-0.01,0.06,-0.12,
1.244,0.24,-0.05,0.34,0.00,0.06,-0.13,
1.245,0.15,-0.12,0.49,0.00,0.06,-0.13,
1.245,0.15,-0.12,0.49,0.01,0.05,-0.13,
1.245,0.15,-0.12,0.49,0.02,0.04,-0.13,
1.247,0.15,-0.12,0.49,0.04,0.03,-0.13,
1.248,0.15,-0.12,0.49,0.05,0.02,-0.13,
1.249,0.15,-0.12,0.49,0.06,0.01,-0.13,
1.255,0.04,-0.16,0.54,0.06,0.01,-0.13,
1.255,0.04,-0.16,0.54,0.07,0.00,-0.13,
1.255,0.04,-0.16,0.54,0.07,-0.00,-0.13,
1.256,0.04,-0.16,0.54,0.08,-0.01,-0.13,
1.257,0.04,-0.16,0.54,0.09,-0.01,-0.13,
1.259,0.04,-0.16,0.54,0.09,-0.01,-0.13,
1.261,-0.09,-0.15,0.34,0.09,-0.01,-0.13,
1.261,-0.09,-0.15,0.34,0.09,-0.01,-0.13,
1.263,-0.09,-0.15,0.34,0.09,-0.01,-0.12,
1.266,-0.09,-0.15,0.34,0.08,0.00,-0.12,
1.271,-0.09,-0.15,0.34,0.08,0.00,-0.11,
1.273,-0.09,-0.15,0.34,0.07,0.01,-0.11,
1.276,-0.25,-0.12,0.00,0.07,0.01,-0.11,
1.277,-0.25,-0.12,0.00,0.06,0.02,-0.10,
1.277,-0.25,-0.12,0.00,0.06,0.03,-0.09,
1.278,-0.25,-0.12,0.00,0.04,0.04,-0.08,
1.278,-0.25,-0.12,0.00,0.03,0.04,-0.07,
1.28,-0.25,-0.12,0.00,0.03,0.05,-0.07,
1.282,-0.27,-0.11,-0.17,0.03,0.05,-0.07,
1.284,-0.27,-0.11,-0.17,0.02,0.06,-0.06,
1.285,-0.27,-0.11,-0.17,0.01,0.07,-0.05,
1.289,-0.27,-0.11,-0.17,-0.01,0.09,-0.04,
1.292,-0.27,-0.11,-0.17,-0.02,0.09,-0.04,
1.293,-0.27,-0.11,-0.17,-0.02,0.10,-0.04,
1.295,-0.21,-0.06,-0.19,-0.02,0.10,-0.04,
1.297,-0.21,-0.06,-0.19,-0.03,0.11,-0.03,
1.297,-0.21,-0.06,-0.19,-0.04,0.12,-0.03,
1.298,-0.21,-0.06,-0.19,-0.05,0.14,-0.02,
1.298,-0.21,-0.06,-0.19,-0.06,0.14,-0.02,
1.316,-0.21,-0.06,-0.19,-0.07,0.15,-0.01,
1.317,-0.15,-0.01,-0.13,-0.07,0.15,-0.01,
1.317,-0.15,-0.01,-0.13,-0.07,0.16,-0.01,
1.318,-0.15,-0.01,-0.13,-0.08,0.18,-0.00,
1.318,-0.15,-0.01,-0.13,-0.09,0.19,-0.00,
1.318,-0.15,-0.01,-0.13,-0.09,0.19,-0.00,
1.319,-0.15,-0.01,-0.13,-0.09,0.20,-0.00,
1.319,-0.08,-0.01,-0.03,-0.09,0.20,-0.00,
1.319,-0.08,-0.01,-0.03,-0.09,0.21,-0.00,
1.32,-0.08,-0.01,-0.03,-0.10,0.21,-0.00,
1.32,-0.08,-0.01,-0.03,-0.10,0.22,-0.00,
1.32,-0.08,-0.01,-0.03,-0.10,0.22,-0.00,
1.321,-0.08,-0.01,-0.03,-0.10,0.22,-0.00,
1.322,-0.01,0.05,0.09,-0.10,0.22,-0.00,
1.322,-0.01,0.05,0.09,-0.10,0.22,-0.00,
1.323,-0.01,0.05,0.09,-0.10,0.22,-0.00,
1.327,-0.01,0.05,0.09,-0.09,0.22,-0.00,
1.328,-0.01,0.05,0.09,-0.09,0.21,-0.01,
1.33,-0.01,0.05,0.09,-0.08,0.21,-0.01,
1.331,0.04,0.04,0.30,-0.08,0.21,-0.01,
1.331,0.04,0.04,0.30,-0.07,0.20,-0.01,
1.335,0.04,0.04,0.30,-0.06,0.20,-0.01,
1.338,0.04,0.04,0.30,-0.05,0.18,-0.01,
1.338,0.04,0.04,0.30,-0.04,0.18,-0.02,
1.34,0.04,0.04,0.30,-0.02,0.17,-0.02,
1.341,0.09,0.01,0.55,-0.02,0.17,-0.02,
1.342,0.09,0.01,0.55,-0.01,0.16,-0.02,
1.343,0.09,0.01,0.55,0.00,0.14,-0.02,
1.346,0.09,0.01,0.55,0.03,0.12,-0.02,
1.348,0.09,0.01,0.55,0.03,0.12,-0.02,
1.349,0.09,0.01,0.55,0.05,0.11,-0.02,
1.353,0.06,0.00,0.65,0.05,0.11,-0.02,
1.353,0.06,0.00,0.65,0.06,0.10,-0.02,
1.353,0.06,0.00,0.65,0.08,0.09,-0.03,
1.356,0.06,0.00,0.65,0.10,0.07,-0.02,
1.357,0.06,0.00,0.65,0.10,0.07,-0.02,
1.359,0.06,0.00,0.65,0.11,0.06,-0.02,
1.361,-0.04,-0.01,0.55,0.11,0.06,-0.02,
1.362,-0.04,-0.01,0.55,0.12,0.05,-0.02,
1.364,-0.04,-0.01,0.55,0.13,0.04,-0.01,
1.367,-0.04,-0.01,0.55,0.14,0.03,-0.00,
1.368,-0.04,-0.01,0.55,0.14,0.03,-0.00,
1.37,-0.04,-0.01,0.55,0.14,0.02,0.00,
1.372,-0.10,-0.02,0.27,0.14,0.02,0.00,
1.372,-0.10,-0.02,0.27,0.14,0.02,0.01,
1.402,-0.10,-0.02,0.27,0.14,0.01,0.02,
1.402,-0.10,-0.02,0.27,0.14,0.01,0.02,
1.403,-0.10,-0.02,0.27,0.13,0.01,0.03,
1.404,-0.10,-0.02,0.27,0.13,0.01,0.03,
1.404,-0.09,0.02,-0.00,0.13,0.01,0.03,
1.404,-0.09,0.02,-0.00,0.12,0.01,0.04,
1.404,-0.09,0.02,-0.00,0.12,0.01,0.05,
1.405,-0.09,0.02,-0.00,0.11,0.01,0.06,
1.405,-0.09,0.02,-0.00,0.10,0.01,0.06,
1.405,-0.09,0.02,-0.00,0.10,0.01,0.07,
1.405,-0.12,0.07,-0.19,0.10,0.01,0.07,
1.406,-0.12,0.07,-0.19,0.09,0.01,0.08,
1.406,-0.12,0.07,-0.19,0.08,0.02,0.08,
1.406,-0.12,0.07,-0.19,0.07,0.01,0.08,
1.406,-0.12,0.07,-0.19,0.06,0.01,0.08,
1.407,-0.12,0.07,-0.19,0.06,0.01,0.08,
1.407,0.07,0.10,-0.16,0.06,0.01,0.08,
1.407,0.07,0.10,-0.16,0.06,0.01,0.08,
1.407,0.07,0.10,-0.16,0.06,-0.00,0.08,
1.408,0.07,0.10,-0.16,0.06,-0.01,0.07,
1.408,0.07,0.10,-0.16,0.06,-0.01,0.07,
1.41,0.07,0.10,-0.16,0.06,-0.01,0.07,
1.411,0.15,0.14,0.02,0.06,-0.01,0.07,
1.412,0.15,0.14,0.02,0.06,-0.01,0.07,
1.413,0.15,0.14,0.02,0.07,-0.01,0.07,
1.417,0.15,0.14,0.02,0.08,-0.01,0.08,
1.418,0.15,0.14,0.02,0.08,-0.01,0.08,
1.42,0.15,0.14,0.02,0.08,-0.02,0.08,
1.422,0.14,0.09,0.13,0.08,-0.02,0.08,
1.422,0.14,0.09,0.13,0.09,-0.02,0.09,
1.424,0.14,0.09,0.13,0.09,-0.02,0.10,
1.426,0.14,0.09,0.13,0.10,-0.03,0.11,
1.427,0.14,0.09,0.13,0.10,-0.03,0.12,
1.429,0.14,0.09,0.13,0.10,-0.04,0.12,
1.431,0.10,0.07,0.14,0.10,-0.04,0.12,
1.431,0.10,0.07,0.14,0.11,-0.04,0.12,
1.443,0.10,0.07,0.14,0.11,-0.04,0.12,
1.443,0.10,0.07,0.14,0.11,-0.05,0.12,
1.443,0.10,0.07,0.14,0.11,-0.05,0.12,
1.443,0.10,0.07,0.14,0.12,-0.05,0.11,
1.444,0.23,0.07,0.20,0.12,-0.05,0.11,
1.444,0.23,0.07,0.20,0.12,-0.06,0.11,
1.444,0.23,0.07,0.20,0.13,-0.07,0.10,
1.446,0.23,0.07,0.20,0.14,-0.07,0.09,
1.448,0.23,0.07,0.20,0.15,-0.07,0.09,
1.466,0.23,0.07,0.20,0.16,-0.07,0.08,
1.466,0.27,0.08,0.28,0.16,-0.07,0.08,
1.466,0.27,0.08,0.28,0.16,-0.07,0.08,
1.467,0.27,0.08,0.28,0.17,-0.07,0.07,
1.467,0.27,0.08,0.28,0.18,-0.07,0.06,
1.467,0.27,0.08,0.28,0.18,-0.07,0.06,
1.467,0.27,0.08,0.28,0.18,-0.07,0.06,
1.467,0.23,0.08,0.25,0.18,-0.07,0.06,
1.467,0.23,0.08,0.25,0.19,-0.07,0.05,
1.468,0.23,0.08,0.25,0.19,-0.07,0.05,
1.468,0.23,0.08,0.25,0.19,-0.07,0.05,
1.468,0.23,0.08,0.25,0.19,-0.07,0.05,
1.469,0.23,0.08,0.25,0.19,-0.08,0.05,
1.473,0.18,0.11,0.10,0.19,-0.08,0.05,
1.473,0.18,0.11,0.10,0.19,-0.08,0.05,
1.474,0.18,0.11,0.10,0.19,-0.08,0.05,
1.476,0.18,0.11,0.10,0.19,-0.08,0.05,
1.477,0.18,0.11,0.10,0.18,-0.08,0.05,
1.479,0.18,0.11,0.10,0.18,-0.07,0.05,
1.481,0.12,0.13,-0.08,0.18,-0.07,0.05,
1.482,0.12,0.13,-0.08,0.18,-0.07,0.05,
1.484,0.12,0.13,-0.08,0.17,-0.07,0.05,
1.486,0.12,0.13,-0.08,0.16,-0.07,0.05,
1.488,0.12,0.13,-0.08,0.16,-0.07,0.05,
1.49,0.12,0.13,-0.08,0.16,-0.07,0.05,
1.491,0.17,0.11,-0.21,0.16,-0.07,0.05,
1.492,0.17,0.11,-0.21,0.15,-0.07,0.05,
1.493,0.17,0.11,-0.21,0.15,-0.07,0.05,
1.496,0.17,0.11,-0.21,0.14,-0.07,0.06,
1.497,0.17,0.11,-0.21,0.14,-0.07,0.06,
1.504,0.17,0.11,-0.21,0.14,-0.07,0.06,
1.505,0.15,0.11,-0.22,0.14,-0.07,0.06,
1.507,0.15,0.11,-0.22,0.14,-0.07,0.06,
1.508,0.15,0.11,-0.22,0.13,-0.08,0.06,
1.508,0.15,0.11,-0.22,0.13,-0.08,0.06,
1.509,0.15,0.11,-0.22,0.13,-0.09,0.05,
1.511,0.15,0.11,-0.22,0.13,-0.10,0.05,
1.512,0.20,0.10,-0.14,0.13,-0.10,0.05,
1.512,0.20,0.10,-0.14,0.13,-0.10,0.05,
1.513,0.20,0.10,-0.14,0.13,-0.11,0.05,
1.516,0.20,0.10,-0.14,0.14,-0.12,0.05,
1.518,0.20,0.10,-0.14,0.14,-0.13,0.05,
1.523,0.20,0.10,-0.14,0.14,-0.13,0.05,
1.524,0.18,0.09,-0.04,0.14,-0.13,0.05,
1.525,0.18,0.09,-0.04,0.15,-0.13,0.05,
1.525,0.18,0.09,-0.04,0.15,-0.14,0.05,
1.529,0.18,0.09,-0.04,0.16,-0.14,0.06,
1.529,0.18,0.09,-0.04,0.16,-0.15,0.06,
1.531,0.18,0.09,-0.04,0.16,-0.15,0.06,
1.532,0.16,0.07,-0.02,0.16,-0.15,0.06,
1.532,0.16,0.07,-0.02,0.16,-0.15,0.06,
1.534,0.16,0.07,-0.02,0.16,-0.15,0.06,
1.537,0.16,0.07,-0.02,0.16,-0.15,0.05,
1.537,0.16,0.07,-0.02,0.16,-0.15,0.05,
1.539,0.16,0.07,-0.02,0.16,-0.14,0.05,
1.578,0.15,0.08,-0.03,0.16,-0.14,0.05,
1.579,0.15,0.08,-0.03,0.16,-0.14,0.05,
1.579,0.15,0.08,-0.03,0.16,-0.14,0.05,
1.58,0.15,0.08,-0.03,0.17,-0.13,0.05,
1.58,0.15,0.08,-0.03,0.17,-0.12,0.05,
1.58,0.15,0.08,-0.03,0.17,-0.11,0.05,
1.581,0.12,0.10,-0.07,0.17,-0.11,0.05,
1.582,0.12,0.10,-0.07,0.17,-0.10,0.05,
1.582,0.12,0.10,-0.07,0.16,-0.09,0.05,
1.583,0.12,0.10,-0.07,0.16,-0.07,0.05,
1.583,0.12,0.10,-0.07,0.16,-0.06,0.06,
1.584,0.12,0.10,-0.07,0.16,-0.06,0.06,
1.584,0.03,0.10,-0.19,0.16,-0.06,0.06,
1.585,0.03,0.10,-0.19,0.15,-0.05,0.06,
1.585,0.03,0.10,-0.19,0.15,-0.04,0.07,
1.585,0.03,0.10,-0.19,0.14,-0.03,0.08,
1.586,0.03,0.10,-0.19,0.13,-0.02,0.08,
1.586,0.03,0.10,-0.19,0.13,-0.02,0.08,
1.587,0.03,0.11,-0.31,0.13,-0.02,0.08,
1.588,0.03,0.11,-0.31,0.13,-0.02,0.09,
1.588,0.03,0.11,-0.31,0.12,-0.01,0.09,
1.588,0.03,0.11,-0.31,0.11,-0.01,0.09,
1.589,0.03,0.11,-0.31,0.10,-0.00,0.09,
1.589,0.03,0.11,-0.31,0.10,-0.00,0.09,
1.59,0.08,0.14,-0.44,0.10,-0.00,0.09,
1.59,0.08,0.14,-0.44,0.09,-0.00,0.09,
1.591,0.08,0.14,-0.44,0.08,0.00,0.09,
1.592,0.08,0.14,-0.44,0.07,-0.00,0.09,
1.594,0.08,0.14,-0.44,0.06,-0.00,0.09,
1.595,0.08,0.14,-0.44,0.06,-0.00,0.09,
1.595,0.12,0.16,-0.47,0.06,-0.00,0.09,
1.596,0.12,0.16,-0.47,0.05,-0.01,0.09,
1.596,0.12,0.16,-0.47,0.04,-0.01,0.08,
1.597,0.12,0.16,-0.47,0.04,-0.02,0.08,
1.601,0.12,0.16,-0.47,0.03,-0.03,0.08,
1.602,0.12,0.16,-0.47,0.03,-0.03,0.08,
1.603,0.14,0.17,-0.35,0.03,-0.03,0.08,
1.603,0.14,0.17,-0.35,0.03,-0.03,0.07,
1.603,0.14,0.17,-0.35,0.02,-0.03,0.07,
1.608,0.14,0.17,-0.35,0.02,-0.04,0.06,
1.609,0.14,0.17,-0.35,0.02,-0.04,0.05,
1.609,0.14,0.17,-0.35,0.02,-0.04,0.05,
1.613,0.21,0.16,-0.23,0.02,-0.04,0.05,
1.614,0.21,0.16,-0.23,0.01,-0.04,0.04,
1.614,0.21,0.16,-0.23,0.01,-0.05,0.03,
1.619,0.21,0.16,-0.23,0.01,-0.05,0.03,
1.62,0.21,0.16,-0.23,0.01,-0.05,0.02,
1.62,0.21,0.16,-0.23,0.01,-0.06,0.02,
1.622,0.19,0.10,-0.07,0.01,-0.06,0.02,
1.623,0.19,0.10,-0.07,0.01,-0.06,0.02,
1.624,0.19,0.10,-0.07,0.02,-0.06,0.01,
1.626,0.19,0.10,-0.07,0.02,-0.07,0.01,
1.629,0.19,0.10,-0.07,0.02,-0.07,0.01,
1.63,0.19,0.10,-0.07,0.02,-0.07,0.00,
1.631,0.12,0.04,0.05,0.02,-0.07,0.00,
1.632,0.12,0.04,0.05,0.03,-0.08,0.00,
1.647,0.12,0.04,0.05,0.03,-0.09,0.00,
1.648,0.12,0.04,0.05,0.04,-0.09,-0.00,
1.649,0.12,0.04,0.05,0.04,-0.10,-0.00,
1.649,0.12,0.04,0.05,0.05,-0.10,-0.00,
1.649,0.06,-0.05,0.23,0.05,-0.10,-0.00,
1.65,0.06,-0.05,0.23,0.06,-0.10,-0.00,
1.65,0.06,-0.05,0.23,0.06,-0.10,-0.00,
1.65,0.06,-0.05,0.23,0.07,-0.10,0.00,
1.65,0.06,-0.05,0.23,0.08,-0.10,0.00,
1.651,0.06,-0.05,0.23,0.08,-0.09,0.00,
1.666,0.02,-0.08,0.26,0.08,-0.09,0.00,
1.666,0.02,-0.08,0.26,0.09,-0.09,0.01,
1.667,0.02,-0.08,0.26,0.09,-0.08,0.01,
1.667,0.02,-0.08,0.26,0.09,-0.08,0.01,
1.667,0.02,-0.08,0.26,0.09,-0.07,0.02,
1.668,0.02,-0.08,0.26,0.09,-0.07,0.02,
1.668,-0.05,-0.12,0.11,0.09,-0.07,0.02,
1.668,-0.05,-0.12,0.11,0.09,-0.06,0.03,
1.668,-0.05,-0.12,0.11,0.08,-0.06,0.03,
1.669,-0.05,-0.12,0.11,0.08,-0.05,0.04,
1.669,-0.05,-0.12,0.11,0.08,-0.04,0.04,
1.669,-0.05,-0.12,0.11,0.07,-0.04,0.05,
1.672,-0.05,-0.13,-0.01,0.07,-0.04,0.05,
1.675,-0.05,-0.13,-0.01,0.07,-0.03,0.05,
1.675,-0.05,-0.13,-0.01,0.06,-0.02,0.05,
1.677,-0.05,-0.13,-0.01,0.06,-0.02,0.06,
1.678,-0.05,-0.13,-0.01,0.06,-0.01,0.06,
1.682,-0.05,-0.13,-0.01,0.05,-0.00,0.07,
1.682,-0.05,-0.08,-0.06,0.05,-0.00,0.07,
1.683,-0.05,-0.08,-0.06,0.05,0.01,0.07,
1.685,-0.05,-0.08,-0.06,0.05,0.01,0.07,
1.69,-0.05,-0.08,-0.06,0.04,0.02,0.07,
1.691,-0.05,-0.08,-0.06,0.04,0.03,0.07,
1.699,-0.05,-0.08,-0.06,0.04,0.03,0.08,
1.7,-0.03,-0.05,-0.03,0.04,0.03,0.08,
1.7,-0.03,-0.05,-0.03,0.04,0.04,0.08,
1.7,-0.03,-0.05,-0.03,0.03,0.04,0.08,
1.701,-0.03,-0.05,-0.03,0.03,0.05,0.09,
1.701,-0.03,-0.05,-0.03,0.03,0.05,0.09,
1.701,-0.03,-0.05,-0.03,0.03,0.05,0.09,
1.701,0.01,-0.06,-0.01,0.03,0.05,0.09,
1.702,0.01,-0.06,-0.01,0.02,0.05,0.09,
1.705,0.01,-0.06,-0.01,0.02,0.05,0.08,
1.707,0.01,-0.06,-0.01,0.02,0.05,0.09,
1.742,0.01,-0.06,-0.01,0.02,0.04,0.08,
1.742,0.01,-0.06,-0.01,0.02,0.04,0.08,
1.743,0.04,-0.02,0.11,0.02,0.04,0.08,
1.743,0.04,-0.02,0.11,0.03,0.03,0.08,
1.744,0.04,-0.02,0.11,0.03,0.03,0.08,
1.744,0.04,-0.02,0.11,0.04,0.02,0.07,
1.744,0.04,-0.02,0.11,0.04,0.02,0.07,
1.745,0.04,-0.02,0.11,0.05,0.01,0.07,
1.745,0.06,0.00,0.27,0.05,0.01,0.07,
1.746,0.06,0.00,0.27,0.06,0.01,0.07,
1.746,0.06,0.00,0.27,0.06,0.01,0.07,
1.747,0.06,0.00,0.27,0.07,0.00,0.06,
1.747,0.06,0.00,0.27,0.08,0.00,0.06,
1.747,0.06,0.00,0.27,0.09,-0.00,0.06,
1.748,0.09,-0.01,0.32,0.09,-0.00,0.06,
1.748,0.09,-0.01,0.32,0.09,-0.01,0.05,
1.749,0.09,-0.01,0.32,0.10,-0.01,0.05,
1.749,0.09,-0.01,0.32,0.11,-0.02,0.05,
1.749,0.09,-0.01,0.32,0.11,-0.02,0.05,
1.75,0.09,-0.01,0.32,0.12,-0.02,0.05,
1.75,0.10,-0.03,0.34,0.12,-0.02,0.05,
1.751,0.10,-0.03,0.34,0.13,-0.03,0.04,
1.751,0.10,-0.03,0.34,0.14,-0.03,0.04,
1.751,0.10,-0.03,0.34,0.14,-0.03,0.04,
1.752,0.10,-0.03,0.34,0.15,-0.03,0.04,
1.752,0.10,-0.03,0.34,0.16,-0.04,0.04,
1.753,0.05,-0.08,0.24,0.16,-0.04,0.04,
1.753,0.05,-0.08,0.24,0.16,-0.04,0.04,
1.753,0.05,-0.08,0.24,0.16,-0.04,0.04,
1.765,0.05,-0.08,0.24,0.17,-0.04,0.04,
1.769,0.05,-0.08,0.24,0.17,-0.04,0.04,
1.769,0.05,-0.08,0.24,0.17,-0.04,0.04,
1.769,0.00,-0.08,0.07,0.17,-0.04,0.04,
1.769,0.00,-0.08,0.07,0.17,-0.04,0.05,
1.77,0.00,-0.08,0.07,0.17,-0.04,0.05,
1.77,0.00,-0.08,0.07,0.16,-0.04,0.05,
1.781,0.00,-0.08,0.07,0.16,-0.04,0.05,
1.781,0.00,-0.08,0.07,0.16,-0.04,0.06,
1.782,-0.00,-0.07,-0.14,0.16,-0.04,0.06,
1.782,-0.00,-0.07,-0.14,0.16,-0.04,0.06,
1.782,-0.00,-0.07,-0.14,0.15,-0.03,0.06,
1.782,-0.00,-0.07,-0.14,0.15,-0.03,0.06,
1.783,-0.00,-0.07,-0.14,0.14,-0.03,0.07,
1.783,-0.00,-0.07,-0.14,0.14,-0.03,0.07,
1.783,-0.01,-0.08,-0.30,0.14,-0.03,0.07,
1.783,-0.01,-0.08,-0.30,0.13,-0.02,0.07,
1.784,-0.01,-0.08,-0.30,0.12,-0.02,0.07,
1.786,-0.01,-0.08,-0.30,0.12,-0.02,0.07,
1.789,-0.01,-0.08,-0.30,0.11,-0.02,0.07,
1.79,-0.01,-0.08,-0.30,0.10,-0.01,0.07,
1.794,0.09,0.00,-0.36,0.10,-0.01,0.07,
1.794,0.09,0.00,-0.36,0.10,-0.01,0.07,
1.794,0.09,0.00,-0.36,0.09,-0.00,0.07,
1.796,0.09,0.00,-0.36,0.09,0.00,0.07,
1.799,0.09,0.00,-0.36,0.08,0.01,0.07,
1.8,0.09,0.00,-0.36,0.07,0.02,0.06,
1.801,0.14,0.04,-0.42,0.07,0.02,0.06,
1.802,0.14,0.04,-0.42,0.07,0.02,0.06,
1.806,0.14,0.04,-0.42,0.06,0.03,0.06,
1.807,0.14,0.04,-0.42,0.05,0.03,0.06,
1.808,0.14,0.04,-0.42,0.04,0.04,0.06,
1.81,0.14,0.04,-0.42,0.04,0.05,0.06,
1.812,0.12,0.05,-0.46,0.04,0.05,0.06,
1.813,0.12,0.05,-0.46,0.03,0.05,0.06,
1.814,0.12,0.05,-0.46,0.02,0.05,0.06,
1.82,0.12,0.05,-0.46,0.02,0.06,0.06,
1.821,0.12,0.05,-0.46,0.02,0.06,0.06,
1.821,0.12,0.05,-0.46,0.01,0.07,0.06,
1.822,0.12,0.05,-0.45,0.01,0.07,0.06,
1.822,0.12,0.05,-0.45,0.00,0.07,0.06,
1.826,0.12,0.05,-0.45,-0.00,0.07,0.06,
1.826,0.12,0.05,-0.45,-0.01,0.07,0.06,
1.829,0.12,0.05,-0.45,-0.01,0.07,0.06,
1.83,0.12,0.05,-0.45,-0.01,0.07,0.05,
1.834,0.11,0.06,-0.43,-0.01,0.07,0.05,
1.835,0.11,0.06,-0.43,-0.02,0.07,0.05,
1.835,0.11,0.06,-0.43,-0.02,0.06,0.05,
1.838,0.11,0.06,-0.43,-0.02,0.06,0.05,
1.839,0.11,0.06,-0.43,-0.02,0.06,0.05,
1.84,0.11,0.06,-0.43,-0.02,0.06,0.05,
1.844,0.11,0.07,-0.31,-0.02,0.06,0.05,
1.844,0.11,0.07,-0.31,-0.02,0.05,0.05,
1.844,0.11,0.07,-0.31,-0.02,0.05,0.05,
1.846,0.11,0.07,-0.31,-0.02,0.05,0.04,
1.848,0.11,0.07,-0.31,-0.02,0.04,0.04,
1.864,0.11,0.07,-0.31,-0.01,0.04,0.04,
1.865,0.11,0.06,-0.25,-0.01,0.04,0.04,
1.865,0.11,0.06,-0.25,-0.01,0.04,0.04,
1.866,0.11,0.06,-0.25,-0.01,0.03,0.04,
1.866,0.11,0.06,-0.25,-0.01,0.03,0.04,
1.866,0.11,0.06,-0.25,-0.01,0.03,0.03,
1.867,0.11,0.06,-0.25,-0.01,0.03,0.04,
1.867,0.09,0.06,-0.29,-0.01,0.03,0.04,
1.867,0.09,0.06,-0.29,-0.01,0.03,0.03,
1.868,0.09,0.06,-0.29,-0.02,0.03,0.03,
1.879,0.09,0.06,-0.29,-0.02,0.03,0.03,
1.88,0.09,0.06,-0.29,-0.02,0.03,0.03,
1.88,0.09,0.06,-0.29,-0.02,0.03,0.03,
1.88,0.09,0.06,-0.28,-0.02,0.03,0.03,
1.88,0.09,0.06,-0.28,-0.02,0.02,0.03,
1.9,0.09,0.06,-0.28,-0.02,0.02,0.03,
1.901,0.09,0.06,-0.28,-0.03,0.02,0.03,
1.901,0.09,0.06,-0.28,-0.03,0.02,0.03,
1.901,0.09,0.06,-0.28,-0.02,0.01,0.03,
1.902,0.09,0.03,-0.20,-0.02,0.01,0.03,
1.902,0.09,0.03,-0.20,-0.02,0.01,0.03,
1.902,0.09,0.03,-0.20,-0.02,0.01,0.03,
1.902,0.09,0.03,-0.20,-0.02,0.01,0.02,
1.903,0.09,0.03,-0.20,-0.02,0.01,0.02,
1.903,0.09,0.03,-0.20,-0.02,-0.00,0.02,
1.903,0.14,0.07,-0.14,-0.02,-0.00,0.02,
1.904,0.14,0.07,-0.14,-0.02,-0.01,0.02,
1.904,0.14,0.07,-0.14,-0.02,-0.01,0.01,
1.904,0.14,0.07,-0.14,-0.01,-0.02,0.01,
1.904,0.14,0.07,-0.14,-0.01,-0.02,0.01,
1.905,0.14,0.07,-0.14,-0.01,-0.03,0.01,
1.905,0.16,0.06,-0.09,-0.01,-0.03,0.01,
1.905,0.16,0.06,-0.09,-0.01,-0.04,0.00,
1.905,0.16,0.06,-0.09,-0.01,-0.04,0.00,
1.91,0.16,0.06,-0.09,-0.00,-0.05,-0.00,
1.911,0.16,0.06,-0.09,-0.00,-0.05,-0.00,
1.911,0.16,0.06,-0.09,-0.00,-0.06,-0.00,
1.914,0.16,0.02,-0.05,-0.00,-0.06,-0.00,
1.915,0.16,0.02,-0.05,0.00,-0.06,-0.01,
1.915,0.16,0.02,-0.05,0.00,-0.06,-0.01,
1.922,0.16,0.02,-0.05,0.00,-0.06,-0.01,
1.923,0.16,0.02,-0.05,0.00,-0.06,-0.01,
1.924,0.16,0.02,-0.05,0.00,-0.06,-0.01,
1.924,0.15,0.00,-0.09,0.00,-0.06,-0.01,
1.924,0.15,0.00,-0.09,-0.00,-0.05,-0.01,
1.924,0.15,0.00,-0.09,-0.00,-0.06,-0.01,
1.929,0.15,0.00,-0.09,-0.01,-0.05,-0.01,
1.929,0.15,0.00,-0.09,-0.01,-0.05,-0.01,
1.929,0.15,0.00,-0.09,-0.01,-0.05,-0.01,
1.935,0.10,-0.00,-0.15,-0.01,-0.05,-0.01,
1.936,0.10,-0.00,-0.15,-0.01,-0.05,-0.01,
1.936,0.10,-0.00,-0.15,-0.02,-0.04,-0.01,
1.937,0.10,-0.00,-0.15,-0.03,-0.04,-0.01,
1.937,0.10,-0.00,-0.15,-0.03,-0.04,-0.01,
1.939,0.10,-0.00,-0.15,-0.03,-0.03,-0.01,
1.942,0.09,-0.00,-0.15,-0.03,-0.03,-0.01,
1.942,0.09,-0.00,-0.15,-0.04,-0.03,-0.01,
1.943,0.09,-0.00,-0.15,-0.04,-0.03,-0.01,
1.948,0.09,-0.00,-0.15,-0.04,-0.02,-0.01,
1.949,0.09,-0.00,-0.15,-0.04,-0.02,-0.01,
1.95,0.09,-0.00,-0.15,-0.04,-0.02,-0.01,
1.953,0.08,-0.03,-0.07,-0.04,-0.02,-0.01,
1.954,0.08,-0.03,-0.07,-0.04,-0.02,-0.01,
1.954,0.08,-0.03,-0.07,-0.05,-0.01,-0.01,
1.957,0.08,-0.03,-0.07,-0.05,-0.01,-0.00,
1.958,0.08,-0.03,-0.07,-0.05,-0.00,-0.00,
1.961,0.08,-0.03,-0.07,-0.05,-0.00,-0.00,
1.962,0.06,-0.09,0.10,-0.05,-0.00,-0.00,
1.962,0.06,-0.09,0.10,-0.04,-0.00,-0.00,
1.965,0.06,-0.09,0.10,-0.04,-0.00,-0.00,
1.969,0.06,-0.09,0.10,-0.03,-0.00,-0.00,
1.971,0.06,-0.09,0.10,-0.03,-0.00,-0.00,
1.972,0.06,-0.09,0.10,-0.02,0.00,-0.00,
1.972,0.12,-0.14,0.31,-0.02,0.00,-0.00,
1.973,0.12,-0.14,0.31,-0.02,0.00,-0.00,
1.974,0.12,-0.14,0.31,-0.01,-0.00,-0.00,
1.977,0.12,-0.14,0.31,0.00,-0.00,-0.00,
1.978,0.12,-0.14,0.31,0.01,-0.01,-0.00,
1.984,0.12,-0.14,0.31,0.02,-0.01,-0.00,
1.985,0.09,-0.16,0.48,0.02,-0.01,-0.00,
1.985,0.09,-0.16,0.48,0.02,-0.01,-0.00,
1.985,0.09,-0.16,0.48,0.04,-0.01,-0.00,
1.989,0.09,-0.16,0.48,0.05,-0.02,-0.00,
1.99,0.09,-0.16,0.48,0.05,-0.02,-0.00,
1.99,0.09,-0.16,0.48,0.06,-0.02,-0.00,
1.992,0.07,-0.17,0.46,0.06,-0.02,-0.00,
1.993,0.07,-0.17,0.46,0.06,-0.02,-0.00,
1.993,0.07,-0.17,0.46,0.07,-0.02,-0.00,
2.008,0.07,-0.17,0.46,0.07,-0.01,-0.00,
2.009,0.07,-0.17,0.46,0.07,-0.01,-0.00,
2.009,0.07,-0.17,0.46,0.07,-0.01,-0.01,
2.009,0.08,-0.12,0.22,0.07,-0.01,-0.01,
2.009,0.08,-0.12,0.22,0.07,-0.01,-0.00,
2.01,0.08,-0.12,0.22,0.07,-0.00,-0.00,
2.01,0.08,-0.12,0.22,0.06,0.00,-0.00,
2.01,0.08,-0.12,0.22,0.06,0.01,-0.00,
2.011,0.08,-0.12,0.22,0.05,0.01,-0.00,
2.014,0.13,-0.06,-0.07,0.05,0.01,-0.00,
2.014,0.13,-0.06,-0.07,0.05,0.02,-0.00,
2.033,0.13,-0.06,-0.07,0.04,0.02,-0.00,
2.034,0.13,-0.06,-0.07,0.03,0.03,-0.00,
2.034,0.13,-0.06,-0.07,0.03,0.04,-0.00,
2.034,0.13,-0.06,-0.07,0.02,0.05,-0.00,
2.035,0.11,-0.01,-0.24,0.02,0.05,-0.00,
2.035,0.11,-0.01,-0.24,0.01,0.06,-0.00,
2.035,0.11,-0.01,-0.24,0.00,0.06,-0.00,
2.036,0.11,-0.01,-0.24,-0.01,0.07,-0.00,
2.036,0.11,-0.01,-0.24,-0.02,0.07,-0.01,
2.036,0.11,-0.01,-0.24,-0.02,0.08,-0.01,
2.037,0.12,0.00,-0.33,-0.02,0.08,-0.01,
2.037,0.12,0.00,-0.33,-0.03,0.08,-0.01,
2.037,0.12,0.00,-0.33,-0.04,0.08,-0.01,
2.037,0.12,0.00,-0.33,-0.04,0.09,-0.01,
2.038,0.12,0.00,-0.33,-0.05,0.09,-0.01,
2.04,0.12,0.00,-0.33,-0.05,0.09,-0.01,
2.074,0.12,-0.03,-0.28,-0.05,0.09,-0.01,
2.075,0.12,-0.03,-0.28,-0.06,0.09,-0.01,
2.075,0.12,-0.03,-0.28,-0.06,0.09,-0.01,
2.076,0.12,-0.03,-0.28,-0.06,0.09,-0.01,
2.076,0.12,-0.03,-0.28,-0.06,0.09,-0.02,
2.077,0.12,-0.03,-0.28,-0.06,0.09,-0.02,
2.078,0.13,-0.05,-0.20,-0.06,0.09,-0.02,
2.078,0.13,-0.05,-0.20,-0.06,0.08,-0.02,
2.079,0.13,-0.05,-0.20,-0.06,0.07,-0.02,
2.079,0.13,-0.05,-0.20,-0.06,0.06,-0.02,
2.08,0.13,-0.05,-0.20,-0.06,0.06,-0.02,
2.08,0.13,-0.05,-0.20,-0.05,0.05,-0.02,
2.081,0.12,-0.04,0.02,-0.05,0.05,-0.02,
2.082,0.12,-0.04,0.02,-0.04,0.04,-0.03,
2.082,0.12,-0.04,0.02,-0.04,0.04,-0.03,
2.083,0.12,-0.04,0.02,-0.02,0.03,-0.03,
2.084,0.12,-0.04,0.02,-0.02,0.02,-0.03,
2.084,0.12,-0.04,0.02,-0.01,0.02,-0.03,
2.084,0.12,-0.12,0.21,-0.01,0.02,-0.03,
2.085,0.12,-0.12,0.21,-0.00,0.01,-0.03,
2.085,0.12,-0.12,0.21,0.01,0.00,-0.04,
2.086,0.12,-0.12,0.21,0.02,-0.00,-0.04,
2.086,0.12,-0.12,0.21,0.03,-0.01,-0.04,
2.087,0.12,-0.12,0.21,0.03,-0.02,-0.04,
2.088,0.09,-0.12,0.18,0.03,-0.02,-0.04,
2.088,0.09,-0.12,0.18,0.04,-0.02,-0.04,
2.089,0.09,-0.12,0.18,0.04,-0.02,-0.04,
2.089,0.09,-0.12,0.18,0.05,-0.03,-0.04,
2.09,0.09,-0.12,0.18,0.05,-0.03,-0.04,
2.09,0.09,-0.12,0.18,0.05,-0.03,-0.04,
2.093,0.01,-0.10,-0.01,0.05,-0.03,-0.04,
2.094,0.01,-0.10,-0.01,0.05,-0.04,-0.04,
2.095,0.01,-0.10,-0.01,0.06,-0.03,-0.04,
2.108,0.01,-0.10,-0.01,0.06,-0.03,-0.04,
2.11,0.01,-0.10,-0.01,0.05,-0.03,-0.04,
2.11,0.01,-0.10,-0.01,0.05,-0.03,-0.03,
2.11,-0.03,-0.07,-0.19,0.05,-0.03,-0.03,
2.111,-0.03,-0.07,-0.19,0.05,-0.02,-0.03,
2.111,-0.03,-0.07,-0.19,0.05,-0.02,-0.03,
2.111,-0.03,-0.07,-0.19,0.04,-0.01,-0.03,
2.112,-0.03,-0.07,-0.19,0.04,-0.01,-0.03,
2.112,-0.03,-0.07,-0.19,0.03,-0.00,-0.03,
2.112,-0.04,-0.03,-0.41,0.03,-0.00,-0.03,
2.113,-0.04,-0.03,-0.41,0.02,0.00,-0.02,
2.114,-0.04,-0.03,-0.41,0.02,0.01,-0.02,
2.119,-0.04,-0.03,-0.41,0.00,0.02,-0.02,
2.12,-0.04,-0.03,-0.41,-0.00,0.02,-0.02,
2.12,-0.04,-0.03,-0.41,-0.02,0.03,-0.02,
2.121,-0.04,0.00,-0.61,-0.02,0.03,-0.02,
2.122,-0.04,0.00,-0.61,-0.03,0.04,-0.02,
2.125,-0.04,0.00,-0.61,-0.04,0.05,-0.02,
2.129,-0.04,0.00,-0.61,-0.06,0.05,-0.02,
2.13,-0.04,0.00,-0.61,-0.07,0.05,-0.02,
2.13,-0.04,0.00,-0.61,-0.07,0.06,-0.01,
2.149,-0.03,0.01,-0.65,-0.07,0.06,-0.01,
2.15,-0.03,0.01,-0.65,-0.08,0.06,-0.02,
2.151,-0.03,0.01,-0.65,-0.09,0.06,-0.02,
2.151,-0.03,0.01,-0.65,-0.10,0.06,-0.02,
2.151,-0.03,0.01,-0.65,-0.10,0.06,-0.02,
2.152,-0.03,0.01,-0.65,-0.11,0.06,-0.02,
2.152,-0.02,0.01,-0.40,-0.11,0.06,-0.02,
2.152,-0.02,0.01,-0.40,-0.11,0.06,-0.02,
2.152,-0.02,0.01,-0.40,-0.11,0.06,-0.02,
2.153,-0.02,0.01,-0.40,-0.10,0.05,-0.02,
2.153,-0.02,0.01,-0.40,-0.10,0.05,-0.02,
2.153,-0.02,0.01,-0.40,-0.10,0.04,-0.02,
2.154,-0.02,-0.04,-0.17,-0.10,0.04,-0.02,
2.171,-0.02,-0.04,-0.17,-0.10,0.03,-0.02,
2.173,-0.02,-0.04,-0.17,-0.09,0.03,-0.02,
2.174,-0.02,-0.04,-0.17,-0.09,0.01,-0.03,
2.174,-0.02,-0.04,-0.17,-0.08,0.01,-0.03,
2.175,-0.02,-0.04,-0.17,-0.08,0.00,-0.03,
2.175,-0.01,-0.07,-0.01,-0.08,0.00,-0.03,
2.175,-0.01,-0.07,-0.01,-0.07,-0.01,-0.03,
2.176,-0.01,-0.07,-0.01,-0.07,-0.02,-0.03,
2.176,-0.01,-0.07,-0.01,-0.06,-0.02,-0.03,
2.177,-0.01,-0.07,-0.01,-0.06,-0.02,-0.03,
2.177,-0.01,-0.07,-0.01,-0.05,-0.03,-0.03,
2.178,-0.03,-0.07,0.02,-0.05,-0.03,-0.03,
2.178,-0.03,-0.07,0.02,-0.05,-0.03,-0.03,
2.178,-0.03,-0.07,0.02,-0.04,-0.03,-0.03,
2.179,-0.03,-0.07,0.02,-0.04,-0.03,-0.02,
2.179,-0.03,-0.07,0.02,-0.04,-0.03,-0.02,
2.18,-0.03,-0.07,0.02,-0.04,-0.03,-0.02,
2.193,-0.02,-0.07,-0.01,-0.04,-0.03,-0.02,
2.194,-0.02,-0.07,-0.01,-0.04,-0.03,-0.02,
2.194,-0.02,-0.07,-0.01,-0.04,-0.03,-0.02,
2.195,-0.02,-0.07,-0.01,-0.04,-0.03,-0.02,
2.195,-0.02,-0.07,-0.01,-0.04,-0.03,-0.02,
2.195,-0.02,-0.07,-0.01,-0.04,-0.03,-0.02,
2.196,-0.03,-0.03,-0.07,-0.04,-0.03,-0.02,
2.196,-0.03,-0.03,-0.07,-0.04,-0.03,-0.02,
2.196,-0.03,-0.03,-0.07,-0.04,-0.03,-0.02,
2.197,-0.03,-0.03,-0.07,-0.04,-0.03,-0.02,
2.207,-0.03,-0.03,-0.07,-0.04,-0.03,-0.02,
2.209,-0.03,-0.03,-0.07,-0.04,-0.03,-0.02,
2.21,0.02,-0.02,0.02,-0.04,-0.03,-0.02,
2.212,0.02,-0.02,0.02,-0.04,-0.03,-0.02,
2.213,0.02,-0.02,0.02,-0.04,-0.03,-0.03,
2.214,0.02,-0.02,0.02,-0.03,-0.03,-0.03,
2.251,0.02,-0.02,0.02,-0.03,-0.03,-0.03,
2.252,0.02,-0.02,0.02,-0.02,-0.03,-0.03,
2.253,0.07,-0.03,0.14,-0.02,-0.03,-0.03,
2.253,0.07,-0.03,0.14,-0.02,-0.04,-0.03,
2.254,0.07,-0.03,0.14,-0.01,-0.04,-0.03,
2.254,0.07,-0.03,0.14,-0.01,-0.04,-0.03,
2.254,0.07,-0.03,0.14,-0.00,-0.05,-0.03,
2.255,0.07,-0.03,0.14,-0.00,-0.05,-0.04,
2.255,0.06,-0.04,0.18,-0.00,-0.05,-0.04,
2.256,0.06,-0.04,0.18,0.00,-0.05,-0.04,
2.257,0.06,-0.04,0.18,0.00,-0.06,-0.04,
2.257,0.06,-0.04,0.18,0.01,-0.06,-0.04,
2.257,0.06,-0.04,0.18,0.01,-0.05,-0.04,
2.258,0.06,-0.04,0.18,0.01,-0.05,-0.04,
2.258,-0.00,-0.04,0.08,0.01,-0.05,-0.04,
2.259,-0.00,-0.04,0.08,0.01,-0.05,-0.04,
2.259,-0.00,-0.04,0.08,0.01,-0.04,-0.04,
2.26,-0.00,-0.04,0.08,0.00,-0.04,-0.04,
2.26,-0.00,-0.04,0.08,-0.00,-0.03,-0.04,
2.261,-0.00,-0.04,0.08,-0.00,-0.03,-0.04,
2.261,-0.03,-0.06,-0.06,-0.00,-0.03,-0.04,
2.262,-0.03,-0.06,-0.06,-0.01,-0.02,-0.03,
2.262,-0.03,-0.06,-0.06,-0.01,-0.01,-0.03,
2.262,-0.03,-0.06,-0.06,-0.02,-0.01,-0.03,
2.263,-0.03,-0.06,-0.06,-0.02,-0.00,-0.03,
2.263,-0.03,-0.06,-0.06,-0.03,0.01,-0.03,
2.263,-0.04,-0.02,-0.16,-0.03,0.01,-0.03,
2.264,-0.04,-0.02,-0.16,-0.03,0.01,-0.03,
2.264,-0.04,-0.02,-0.16,-0.04,0.02,-0.03,
2.264,-0.04,-0.02,-0.16,-0.04,0.03,-0.03,
2.265,-0.04,-0.02,-0.16,-0.05,0.03,-0.03,
2.265,-0.04,-0.02,-0.16,-0.05,0.04,-0.03,
2.265,-0.04,0.01,-0.19,-0.05,0.04,-0.03,
2.266,-0.04,0.01,-0.19,-0.05,0.05,-0.03,
2.266,-0.04,0.01,-0.19,-0.06,0.06,-0.02,
2.266,-0.04,0.01,-0.19,-0.06,0.06,-0.02,
2.267,-0.04,0.01,-0.19,-0.06,0.07,-0.02,
2.273,-0.04,0.01,-0.19,-0.07,0.07,-0.02,
2.274,-0.03,0.00,-0.19,-0.07,0.07,-0.02,
2.274,-0.03,0.00,-0.19,-0.07,0.07,-0.02,
2.274,-0.03,0.00,-0.19,-0.07,0.07,-0.02,
2.277,-0.03,0.00,-0.19,-0.08,0.08,-0.02,
2.278,-0.03,0.00,-0.19,-0.08,0.08,-0.02,
2.291,-0.03,0.00,-0.19,-0.08,0.07,-0.02,
2.291,-0.02,0.02,-0.13,-0.08,0.07,-0.02,
2.292,-0.02,0.02,-0.13,-0.08,0.07,-0.02,
2.292,-0.02,0.02,-0.13,-0.08,0.07,-0.02,
2.292,-0.02,0.02,-0.13,-0.07,0.07,-0.02,
2.292,-0.02,0.02,-0.13,-0.07,0.06,-0.02,
2.292,-0.02,0.02,-0.13,-0.07,0.06,-0.03,
2.293,-0.02,-0.00,0.06,-0.07,0.06,-0.03,
2.293,-0.02,-0.00,0.06,-0.06,0.06,-0.02,
2.293,-0.02,-0.00,0.06,-0.06,0.06,-0.03,
2.297,-0.02,-0.00,0.06,-0.05,0.05,-0.03,
2.306,-0.02,-0.00,0.06,-0.05,0.05,-0.03,
2.307,-0.02,-0.00,0.06,-0.04,0.04,-0.03,
2.307,-0.01,0.01,0.17,-0.04,0.04,-0.03,
2.308,-0.01,0.01,0.17,-0.03,0.04,-0.03,
2.308,-0.01,0.01,0.17,-0.03,0.03,-0.03,
2.308,-0.01,0.01,0.17,-0.02,0.03,-0.04,
2.308,-0.01,0.01,0.17,-0.02,0.03,-0.04,
2.313,-0.01,0.01,0.17,-0.02,0.02,-0.04,
2.33,-0.01,0.02,0.16,-0.02,0.02,-0.04,
2.332,-0.01,0.02,0.16,-0.01,0.01,-0.04,
2.332,-0.01,0.02,0.16,-0.01,0.01,-0.04,
2.332,-0.01,0.02,0.16,-0.01,0.01,-0.05,
2.333,-0.01,0.02,0.16,-0.00,0.01,-0.05,
2.333,-0.01,0.02,0.16,-0.00,0.00,-0.05,
2.333,0.02,0.05,0.10,-0.00,0.00,-0.05,
2.333,0.02,0.05,0.10,-0.00,0.01,-0.05,
2.333,0.02,0.05,0.10,0.00,0.00,-0.05,
2.334,0.02,0.05,0.10,0.00,-0.00,-0.06,
2.334,0.02,0.05,0.10,0.01,-0.00,-0.06,
2.334,0.02,0.05,0.10,0.01,0.00,-0.06,
2.334,-0.00,0.05,0.01,0.01,0.00,-0.06,
2.334,-0.00,0.05,0.01,0.01,0.00,-0.06,
2.334,-0.00,0.05,0.01,0.00,0.00,-0.06,
2.337,-0.00,0.05,0.01,0.00,0.01,-0.06,
2.338,-0.00,0.05,0.01,-0.00,0.01,-0.06,
2.339,-0.00,0.05,0.01,0.00,0.01,-0.06,
2.342,-0.05,0.03,-0.09,0.00,0.01,-0.06,
2.342,-0.05,0.03,-0.09,-0.00,0.02,-0.05,
2.343,-0.05,0.03,-0.09,-0.01,0.02,-0.05,
2.346,-0.05,0.03,-0.09,-0.01,0.03,-0.05,
2.351,-0.05,0.03,-0.09,-0.01,0.03,-0.05,
2.351,-0.05,0.03,-0.09,-0.02,0.04,-0.05,
2.352,-0.12,0.02,-0.23,-0.02,0.04,-0.05,
2.353,-0.12,0.02,-0.23,-0.03,0.05,-0.04,
2.354,-0.12,0.02,-0.23,-0.03,0.05,-0.04,
2.356,-0.12,0.02,-0.23,-0.05,0.06,-0.03,
2.358,-0.12,0.02,-0.23,-0.05,0.06,-0.03,
2.36,-0.12,0.02,-0.23,-0.05,0.07,-0.03,
2.361,-0.12,0.02,-0.31,-0.05,0.07,-0.03,
2.362,-0.12,0.02,-0.31,-0.06,0.07,-0.03,
2.363,-0.12,0.02,-0.31,-0.06,0.08,-0.03,
2.367,-0.12,0.02,-0.31,-0.07,0.08,-0.03,
2.367,-0.12,0.02,-0.31,-0.07,0.08,-0.03,
2.369,-0.12,0.02,-0.31,-0.08,0.08,-0.02,
2.372,-0.13,0.03,-0.31,-0.08,0.08,-0.02,
2.373,-0.13,0.03,-0.31,-0.08,0.08,-0.02,
2.408,-0.13,0.03,-0.31,-0.09,0.08,-0.02,
2.408,-0.13,0.03,-0.31,-0.09,0.08,-0.02,
2.409,-0.13,0.03,-0.31,-0.09,0.08,-0.02,
2.41,-0.13,0.03,-0.31,-0.09,0.07,-0.02,
2.41,-0.12,0.01,-0.21,-0.09,0.07,-0.02,
2.411,-0.12,0.01,-0.21,-0.09,0.07,-0.02,
2.412,-0.12,0.01,-0.21,-0.09,0.06,-0.02,
2.413,-0.12,0.01,-0.21,-0.08,0.05,-0.02,
2.414,-0.12,0.01,-0.21,-0.08,0.05,-0.02,
2.414,-0.12,0.01,-0.21,-0.07,0.05,-0.02,
2.415,-0.08,-0.06,0.03,-0.07,0.05,-0.02,
2.415,-0.08,-0.06,0.03,-0.07,0.04,-0.02,
2.416,-0.08,-0.06,0.03,-0.06,0.03,-0.02,
2.416,-0.08,-0.06,0.03,-0.05,0.02,-0.03,
2.417,-0.08,-0.06,0.03,-0.04,0.02,-0.03,
2.417,-0.08,-0.06,0.03,-0.03,0.01,-0.03,
2.418,-0.06,-0.07,0.21,-0.03,0.01,-0.03,
2.418,-0.06,-0.07,0.21,-0.02,0.01,-0.03,
2.419,-0.06,-0.07,0.21,-0.02,-0.00,-0.03,
2.419,-0.06,-0.07,0.21,-0.01,-0.02,-0.03,
2.419,-0.06,-0.07,0.21,-0.00,-0.02,-0.03,
2.42,-0.06,-0.07,0.21,0.00,-0.03,-0.03,
2.42,-0.11,-0.09,0.18,0.00,-0.03,-0.03,
2.421,-0.11,-0.09,0.18,0.01,-0.04,-0.03,
2.421,-0.11,-0.09,0.18,0.01,-0.05,-0.03,
2.421,-0.11,-0.09,0.18,0.02,-0.06,-0.03,
2.422,-0.11,-0.09,0.18,0.02,-0.06,-0.02,
2.422,-0.11,-0.09,0.18,0.03,-0.07,-0.02,
2.423,-0.11,-0.12,0.19,0.03,-0.07,-0.02,
2.423,-0.11,-0.12,0.19,0.04,-0.07,-0.02,
2.423,-0.11,-0.12,0.19,0.04,-0.08,-0.02,
2.428,-0.11,-0.12,0.19,0.04,-0.08,-0.01,
2.428,-0.11,-0.12,0.19,0.05,-0.08,-0.01,
2.429,-0.11,-0.12,0.19,0.05,-0.07,-0.01,
2.431,-0.12,-0.10,0.12,0.05,-0.07,-0.01,
2.432,-0.12,-0.10,0.12,0.05,-0.07,-0.01,
2.433,-0.12,-0.10,0.12,0.05,-0.07,-0.00,
2.436,-0.12,-0.10,0.12,0.05,-0.06,0.00,
2.437,-0.12,-0.10,0.12,0.05,-0.06,0.00,
2.439,-0.12,-0.10,0.12,0.04,-0.05,0.01,
2.443,-0.11,-0.08,0.02,0.04,-0.05,0.01,
2.444,-0.11,-0.08,0.02,0.04,-0.04,0.01,
2.445,-0.11,-0.08,0.02,0.04,-0.04,0.01,
2.448,-0.11,-0.08,0.02,0.04,-0.03,0.02,
2.45,-0.11,-0.08,0.02,0.04,-0.03,0.02,
2.451,-0.11,-0.08,0.02,0.04,-0.03,0.02,
2.455,-0.05,-0.04,0.06,0.04,-0.03,0.02,
2.457,-0.05,-0.04,0.06,0.04,-0.02,0.02,
2.457,-0.05,-0.04,0.06,0.04,-0.02,0.02,
2.458,-0.05,-0.04,0.06,0.04,-0.02,0.02,
2.458,-0.05,-0.04,0.06,0.04,-0.02,0.02,
2.461,-0.05,-0.04,0.06,0.05,-0.01,0.02,
2.462,0.03,-0.01,0.17,0.05,-0.01,0.02,
2.462,0.03,-0.01,0.17,0.05,-0.01,0.02,
2.471,0.03,-0.01,0.17,0.06,-0.01,0.02,
2.473,0.03,-0.01,0.17,0.06,-0.01,0.02,
2.473,0.03,-0.01,0.17,0.07,-0.01,0.02,
2.474,0.03,-0.01,0.17,0.07,-0.01,0.02,
2.474,0.03,0.01,0.17,0.07,-0.01,0.02,
2.476,0.03,0.01,0.17,0.07,-0.01,0.02,
2.477,0.03,0.01,0.17,0.08,-0.01,0.02,
2.478,0.03,0.01,0.17,0.08,-0.02,0.02,
2.501,0.03,0.01,0.17,0.08,-0.02,0.02,
2.502,0.03,0.01,0.17,0.08,-0.02,0.01,
2.502,0.02,0.06,0.10,0.08,-0.02,0.01,
2.502,0.02,0.06,0.10,0.09,-0.02,0.01,
2.502,0.02,0.06,0.10,0.09,-0.02,0.01,
2.502,0.02,0.06,0.10,0.09,-0.03,0.01,
2.503,0.02,0.06,0.10,0.09,-0.03,0.01,
2.503,0.02,0.06,0.10,0.08,-0.03,0.00,
2.503,0.02,0.06,-0.08,0.08,-0.03,0.00,
2.503,0.02,0.06,-0.08,0.08,-0.03,0.01,
2.503,0.02,0.06,-0.08,0.08,-0.04,0.01,
2.504,0.02,0.06,-0.08,0.07,-0.04,0.01,
2.504,0.02,0.06,-0.08,0.07,-0.04,0.00,
2.504,0.02,0.06,-0.08,0.07,-0.04,0.00,
2.504,-0.01,0.07,-0.17,0.07,-0.04,0.00,
2.504,-0.01,0.07,-0.17,0.06,-0.04,0.00,
2.505,-0.01,0.07,-0.17,0.06,-0.05,0.00,
2.507,-0.01,0.07,-0.17,0.05,-0.05,0.00,
2.508,-0.01,0.07,-0.17,0.05,-0.05,0.00,
2.51,-0.01,0.07,-0.17,0.04,-0.06,0.00,
2.513,0.00,0.07,-0.20,0.04,-0.06,0.00,
2.514,0.00,0.07,-0.20,0.04,-0.06,0.00,
2.515,0.00,0.07,-0.20,0.04,-0.07,-0.00,
2.516,0.00,0.07,-0.20,0.03,-0.07,-0.00,
2.517,0.00,0.07,-0.20,0.03,-0.07,-0.00,
2.52,0.00,0.07,-0.20,0.03,-0.07,-0.00,
2.522,0.01,0.07,-0.15,0.03,-0.07,-0.00,
2.522,0.01,0.07,-0.15,0.03,-0.06,-0.01,
2.524,0.01,0.07,-0.15,0.02,-0.06,-0.01,
2.529,0.01,0.07,-0.15,0.02,-0.05,-0.01,
2.529,0.01,0.07,-0.15,0.01,-0.05,-0.01,
2.535,0.01,0.07,-0.15,0.01,-0.04,-0.01,
2.537,-0.00,0.08,-0.14,0.01,-0.04,-0.01,
2.537,-0.00,0.08,-0.14,0.01,-0.03,-0.01,
2.538,-0.00,0.08,-0.14,-0.00,-0.02,-0.01,
2.538,-0.00,0.08,-0.14,-0.01,-0.01,-0.01,
2.538,-0.00,0.08,-0.14,-0.01,-0.00,-0.01,
2.54,-0.00,0.08,-0.14,-0.02,0.01,-0.01,
2.573,-0.00,0.04,-0.11,-0.02,0.01,-0.01,
2.573,-0.00,0.04,-0.11,-0.02,0.02,-0.01,
2.573,-0.00,0.04,-0.11,-0.02,0.03,-0.01,
2.573,-0.00,0.04,-0.11,-0.03,0.04,0.00,
2.574,-0.00,0.04,-0.11,-0.03,0.05,-0.00,
2.574,-0.00,0.04,-0.11,-0.03,0.06,0.00,
2.574,-0.00,-0.04,0.08,-0.03,0.06,0.00,
2.575,-0.00,-0.04,0.08,-0.02,0.06,0.00,
2.575,-0.00,-0.04,0.08,-0.02,0.07,0.01,
2.575,-0.00,-0.04,0.08,-0.02,0.08,0.01,
2.575,-0.00,-0.04,0.08,-0.01,0.08,0.01,
2.576,-0.00,-0.04,0.08,-0.01,0.08,0.01,
2.576,-0.00,-0.06,0.21,-0.01,0.08,0.01,
2.576,-0.00,-0.06,0.21,-0.00,0.09,0.01,
2.576,-0.00,-0.06,0.21,-0.00,0.09,0.01,
2.577,-0.00,-0.06,0.21,0.01,0.09,0.01,
2.577,-0.00,-0.06,0.21,0.01,0.09,0.01,
2.577,-0.00,-0.06,0.21,0.01,0.09,0.01,
2.578,0.00,-0.06,0.16,0.01,0.09,0.01,
2.578,0.00,-0.06,0.16,0.01,0.09,0.01,
2.578,0.00,-0.06,0.16,0.02,0.09,0.01,
2.578,0.00,-0.06,0.16,0.02,0.09,0.01,
2.579,0.00,-0.06,0.16,0.02,0.09,0.01,
2.583,0.00,-0.06,0.16,0.02,0.08,0.01,
2.584,-0.04,-0.04,0.06,0.02,0.08,0.01,
2.585,-0.04,-0.04,0.06,0.03,0.08,0.01,
2.585,-0.04,-0.04,0.06,0.03,0.07,0.01,
2.588,-0.04,-0.04,0.06,0.03,0.06,0.01,
2.589,-0.04,-0.04,0.06,0.03,0.06,0.01,
2.59,-0.04,-0.04,0.06,0.03,0.06,0.01,
2.593,-0.03,-0.04,-0.11,0.03,0.06,0.01,
2.594,-0.03,-0.04,-0.11,0.03,0.05,0.01,
2.594,-0.03,-0.04,-0.11,0.03,0.05,0.01,
2.599,-0.03,-0.04,-0.11,0.02,0.04,0.01,
2.6,-0.03,-0.04,-0.11,0.02,0.04,0.01,
2.6,-0.03,-0.04,-0.11,0.02,0.04,0.01,
2.601,-0.05,-0.02,-0.29,0.02,0.04,0.01,
2.602,-0.05,-0.02,-0.29,0.01,0.03,0.01,
2.603,-0.05,-0.02,-0.29,0.01,0.03,0.01,
2.606,-0.05,-0.02,-0.29,-0.00,0.03,0.01,
2.61,-0.05,-0.02,-0.29,-0.01,0.03,0.01,
2.611,-0.05,-0.02,-0.29,-0.01,0.03,0.01,
2.612,-0.06,-0.01,-0.39,-0.01,0.03,0.01,
2.613,-0.06,-0.01,-0.39,-0.02,0.02,0.01,
2.614,-0.06,-0.01,-0.39,-0.02,0.02,0.01,
2.617,-0.06,-0.01,-0.39,-0.03,0.02,0.01,
2.617,-0.06,-0.01,-0.39,-0.04,0.01,0.01,
2.62,-0.06,-0.01,-0.39,-0.04,0.01,0.01,
2.621,-0.06,-0.03,-0.35,-0.04,0.01,0.01,
2.622,-0.06,-0.03,-0.35,-0.04,0.01,0.01,
2.623,-0.06,-0.03,-0.35,-0.04,0.01,0.01,
2.626,-0.06,-0.03,-0.35,-0.05,0.01,0.01,
2.627,-0.06,-0.03,-0.35,-0.05,0.01,0.01,
2.629,-0.06,-0.03,-0.35,-0.05,0.00,0.01,
2.631,-0.08,-0.08,-0.21,-0.05,0.00,0.01,
2.631,-0.08,-0.08,-0.21,-0.05,0.01,0.01,
2.633,-0.08,-0.08,-0.21,-0.05,0.00,0.01,
2.636,-0.08,-0.08,-0.21,-0.05,0.01,0.01,
2.637,-0.08,-0.08,-0.21,-0.04,0.01,0.02,
2.639,-0.08,-0.08,-0.21,-0.04,0.01,0.02,
2.641,-0.08,-0.09,-0.10,-0.04,0.01,0.02,
2.641,-0.08,-0.09,-0.10,-0.04,0.01,0.02,
2.644,-0.08,-0.09,-0.10,-0.04,0.01,0.02,
2.646,-0.08,-0.09,-0.10,-0.04,0.02,0.02,
2.647,-0.08,-0.09,-0.10,-0.03,0.02,0.03,
2.65,-0.08,-0.09,-0.10,-0.03,0.02,0.03,
2.651,-0.14,-0.10,-0.07,-0.03,0.02,0.03,
2.652,-0.14,-0.10,-0.07,-0.03,0.02,0.03,
2.653,-0.14,-0.10,-0.07,-0.03,0.03,0.04,
2.656,-0.14,-0.10,-0.07,-0.03,0.03,0.04,
2.657,-0.14,-0.10,-0.07,-0.03,0.04,0.04,
2.659,-0.14,-0.10,-0.07,-0.03,0.04,0.04,
2.661,-0.12,-0.12,-0.15,-0.03,0.04,0.04,
2.662,-0.12,-0.12,-0.15,-0.03,0.04,0.05,
2.664,-0.12,-0.12,-0.15,-0.03,0.04,0.05,
2.667,-0.12,-0.12,-0.15,-0.03,0.05,0.05,
2.668,-0.12,-0.12,-0.15,-0.03,0.05,0.05,
2.67,-0.12,-0.12,-0.15,-0.03,0.05,0.06,
2.672,-0.11,-0.12,-0.15,-0.03,0.05,0.06,
2.673,-0.11,-0.12,-0.15,-0.03,0.05,0.06,
2.675,-0.11,-0.12,-0.15,-0.03,0.05,0.06,
2.692,-0.11,-0.12,-0.15,-0.03,0.05,0.06,
2.695,-0.11,-0.12,-0.15,-0.02,0.05,0.06,
2.696,-0.11,-0.12,-0.15,-0.02,0.05,0.06,
2.696,-0.09,-0.13,-0.12,-0.02,0.05,0.06,
2.697,-0.09,-0.13,-0.12,-0.02,0.05,0.06,
2.698,-0.09,-0.13,-0.12,-0.01,0.04,0.06,
2.699,-0.09,-0.13,-0.12,-0.01,0.04,0.06,
2.701,-0.09,-0.13,-0.12,-0.01,0.03,0.06,
2.703,-0.09,-0.13,-0.12,-0.01,0.03,0.06,
2.705,-0.05,-0.10,-0.12,-0.01,0.03,0.06,
2.705,-0.05,-0.10,-0.12,-0.00,0.03,0.06,
2.705,-0.05,-0.10,-0.12,-0.00,0.02,0.06,
2.706,-0.05,-0.10,-0.12,0.00,0.01,0.06,
2.706,-0.05,-0.10,-0.12,0.00,0.01,0.06,
2.707,-0.05,-0.10,-0.12,0.00,0.01,0.06,
2.707,-0.04,-0.03,-0.17,0.00,0.01,0.06,
2.708,-0.04,-0.03,-0.17,0.01,0.01,0.06,
2.71,-0.04,-0.03,-0.17,0.01,0.01,0.06,
2.711,-0.04,-0.03,-0.17,0.01,0.01,0.06,
2.744,-0.04,-0.03,-0.17,0.01,0.00,0.06,
2.745,-0.04,-0.03,-0.17,0.00,0.00,0.06,
2.745,-0.05,0.04,-0.27,0.00,0.00,0.06,
2.746,-0.05,0.04,-0.27,0.00,0.00,0.06,
2.746,-0.05,0.04,-0.27,-0.00,0.00,0.06,
2.747,-0.05,0.04,-0.27,-0.00,-0.00,0.06,
2.748,-0.05,0.04,-0.27,-0.01,-0.00,0.06,
2.748,-0.05,0.04,-0.27,-0.01,-0.00,0.06,
2.749,-0.06,0.07,-0.38,-0.01,-0.00,0.06,
2.749,-0.06,0.07,-0.38,-0.01,-0.00,0.05,
2.75,-0.06,0.07,-0.38,-0.02,-0.00,0.05,
2.75,-0.06,0.07,-0.38,-0.03,-0.01,0.05,
2.75,-0.06,0.07,-0.38,-0.03,-0.01,0.05,
2.751,-0.06,0.07,-0.38,-0.03,-0.01,0.05,
2.752,-0.08,0.14,-0.43,-0.03,-0.01,0.05,
2.752,-0.08,0.14,-0.43,-0.04,-0.00,0.05,
2.753,-0.08,0.14,-0.43,-0.04,-0.00,0.05,
2.754,-0.08,0.14,-0.43,-0.05,0.01,0.05,
2.754,-0.08,0.14,-0.43,-0.05,0.01,0.05,
2.755,-0.08,0.14,-0.43,-0.05,0.01,0.05,
2.755,-0.12,0.13,-0.43,-0.05,0.01,0.05,
2.756,-0.12,0.13,-0.43,-0.06,0.01,0.05,
2.756,-0.12,0.13,-0.43,-0.07,0.01,0.05,
2.757,-0.12,0.13,-0.43,-0.07,0.02,0.05,
2.757,-0.12,0.13,-0.43,-0.08,0.01,0.05,
2.758,-0.12,0.13,-0.43,-0.08,0.01,0.05,
2.758,-0.12,0.13,-0.38,-0.08,0.01,0.05,
2.758,-0.12,0.13,-0.38,-0.08,0.02,0.05,
2.759,-0.12,0.13,-0.38,-0.09,0.02,0.05,
2.76,-0.12,0.13,-0.38,-0.09,0.02,0.05,
2.761,-0.12,0.13,-0.38,-0.09,0.02,0.05,
2.761,-0.12,0.13,-0.38,-0.10,0.03,0.05,
2.762,-0.09,0.11,-0.28,-0.10,0.03,0.05,
2.762,-0.09,0.11,-0.28,-0.10,0.03,0.05,
2.766,-0.09,0.11,-0.28,-0.11,0.04,0.05,
2.768,-0.09,0.11,-0.28,-0.11,0.04,0.04,
2.769,-0.09,0.11,-0.28,-0.11,0.05,0.04,
2.773,-0.09,0.11,-0.28,-0.12,0.05,0.04,
2.773,-0.01,0.09,-0.20,-0.12,0.05,0.04,
2.774,-0.01,0.09,-0.20,-0.12,0.06,0.04,
2.774,-0.01,0.09,-0.20,-0.13,0.07,0.04,
2.778,-0.01,0.09,-0.20,-0.13,0.08,0.04,
2.779,-0.01,0.09,-0.20,-0.14,0.08,0.04,
2.781,-0.01,0.09,-0.20,-0.14,0.08,0.03,
2.783,0.02,0.09,-0.13,-0.14,0.08,0.03,
2.784,0.02,0.09,-0.13,-0.14,0.09,0.03,
2.785,0.02,0.09,-0.13,-0.14,0.09,0.03,
2.787,0.02,0.09,-0.13,-0.15,0.10,0.03,
2.788,0.02,0.09,-0.13,-0.15,0.10,0.03,
2.79,0.02,0.09,-0.13,-0.15,0.11,0.02,
2.794,-0.00,0.03,0.03,-0.15,0.11,0.02,
2.799,-0.00,0.03,0.03,-0.15,0.11,0.02,
2.799,-0.00,0.03,0.03,-0.15,0.12,0.03,
2.8,-0.00,0.03,0.03,-0.14,0.12,0.02,
2.8,-0.00,0.03,0.03,-0.14,0.12,0.02,
2.8,-0.00,0.03,0.03,-0.14,0.12,0.02,
2.803,-0.08,-0.04,0.14,-0.14,0.12,0.02,
2.805,-0.08,-0.04,0.14,-0.14,0.12,0.02,
2.805,-0.08,-0.04,0.14,-0.13,0.13,0.02,
2.807,-0.08,-0.04,0.14,-0.13,0.13,0.03,
2.81,-0.08,-0.04,0.14,-0.13,0.13,0.03,
2.812,-0.08,-0.04,0.14,-0.12,0.13,0.03,
2.813,-0.12,-0.06,0.16,-0.12,0.13,0.03,
2.813,-0.12,-0.06,0.16,-0.12,0.12,0.03,
2.83,-0.12,-0.06,0.16,-0.12,0.12,0.03,
2.831,-0.12,-0.06,0.16,-0.12,0.12,0.03,
2.831,-0.12,-0.06,0.16,-0.11,0.11,0.03,
2.832,-0.12,-0.06,0.16,-0.11,0.11,0.03,
2.832,-0.22,-0.11,0.14,-0.11,0.11,0.03,
2.832,-0.22,-0.11,0.14,-0.11,0.11,0.04,
2.833,-0.22,-0.11,0.14,-0.11,0.10,0.04,
2.833,-0.22,-0.11,0.14,-0.10,0.10,0.04,
2.833,-0.22,-0.11,0.14,-0.10,0.10,0.04,
2.833,-0.22,-0.11,0.14,-0.10,0.10,0.05,
2.834,-0.27,-0.14,0.06,-0.10,0.10,0.05,
2.834,-0.27,-0.14,0.06,-0.10,0.09,0.05,
2.848,-0.27,-0.14,0.06,-0.10,0.09,0.05,
2.849,-0.27,-0.14,0.06,-0.09,0.09,0.05,
2.849,-0.27,-0.14,0.06,-0.10,0.09,0.05,
2.85,-0.27,-0.14,0.06,-0.10,0.09,0.06,
2.85,-0.27,-0.15,-0.07,-0.10,0.09,0.06,
2.85,-0.27,-0.15,-0.07,-0.10,0.08,0.06,
2.85,-0.27,-0.15,-0.07,-0.10,0.07,0.07,
2.851,-0.27,-0.15,-0.07,-0.11,0.07,0.07,
2.851,-0.27,-0.15,-0.07,-0.11,0.06,0.07,
2.851,-0.27,-0.15,-0.07,-0.11,0.06,0.07,
2.852,-0.26,-0.14,-0.11,-0.11,0.06,0.07,
2.852,-0.26,-0.14,-0.11,-0.11,0.06,0.08,
2.854,-0.26,-0.14,-0.11,-0.12,0.05,0.08,
2.857,-0.26,-0.14,-0.11,-0.12,0.05,0.08,
2.858,-0.26,-0.14,-0.11,-0.12,0.05,0.09,
2.869,-0.26,-0.14,-0.11,-0.11,0.05,0.09,
2.87,-0.25,-0.13,0.01,-0.11,0.05,0.09,
2.871,-0.25,-0.13,0.01,-0.11,0.05,0.09,
2.871,-0.25,-0.13,0.01,-0.11,0.04,0.10,
2.872,-0.25,-0.13,0.01,-0.10,0.04,0.10,
2.872,-0.25,-0.13,0.01,-0.10,0.04,0.10,
2.872,-0.25,-0.13,0.01,-0.10,0.03,0.10,
2.873,-0.24,-0.11,0.18,-0.10,0.03,0.10,
2.873,-0.24,-0.11,0.18,-0.09,0.03,0.11,
2.904,-0.24,-0.11,0.18,-0.09,0.03,0.11,
2.904,-0.24,-0.11,0.18,-0.08,0.02,0.12,
2.905,-0.24,-0.11,0.18,-0.08,0.02,0.12,
2.905,-0.24,-0.11,0.18,-0.07,0.02,0.12,
2.905,-0.15,-0.07,0.21,-0.07,0.02,0.12,
2.906,-0.15,-0.07,0.21,-0.07,0.02,0.12,
2.906,-0.15,-0.07,0.21,-0.07,0.02,0.12,
2.907,-0.15,-0.07,0.21,-0.06,0.02,0.12,
2.907,-0.15,-0.07,0.21,-0.06,0.01,0.12,
2.907,-0.15,-0.07,0.21,-0.06,0.01,0.12,
2.908,-0.03,-0.04,0.18,-0.06,0.01,0.12,
2.908,-0.03,-0.04,0.18,-0.06,0.01,0.12,
2.909,-0.03,-0.04,0.18,-0.05,0.01,0.12,
2.909,-0.03,-0.04,0.18,-0.06,0.01,0.12,
2.91,-0.03,-0.04,0.18,-0.06,0.01,0.12,
2.91,-0.03,-0.04,0.18,-0.06,0.01,0.11,
2.91,0.15,0.01,0.15,-0.06,0.01,0.11,
2.911,0.15,0.01,0.15,-0.05,0.01,0.11,
2.911,0.15,0.01,0.15,-0.05,0.00,0.11,
2.912,0.15,0.01,0.15,-0.05,-0.00,0.10,
2.912,0.15,0.01,0.15,-0.06,-0.00,0.10,
2.913,0.15,0.01,0.15,-0.05,-0.00,0.09,
2.913,0.25,0.06,0.11,-0.05,-0.00,0.09,
2.913,0.25,0.06,0.11,-0.05,-0.01,0.09,
2.914,0.25,0.06,0.11,-0.05,-0.01,0.08,
2.919,0.25,0.06,0.11,-0.05,-0.01,0.07,
2.925,0.25,0.06,0.11,-0.05,-0.01,0.07,
2.926,0.25,0.06,0.11,-0.05,-0.01,0.06,
2.926,0.33,0.08,0.11,-0.05,-0.01,0.06,
2.926,0.33,0.08,0.11,-0.05,-0.01,0.05,
2.926,0.33,0.08,0.11,-0.05,-0.01,0.05,
2.927,0.33,0.08,0.11,-0.04,-0.01,0.04,
2.931,0.33,0.08,0.11,-0.04,-0.01,0.04,
2.931,0.33,0.08,0.11,-0.04,-0.01,0.03,
2.932,0.33,0.10,0.08,-0.04,-0.01,0.03,
2.932,0.33,0.10,0.08,-0.04,-0.01,0.02,
2.936,0.33,0.10,0.08,-0.04,-0.02,0.02,
2.936,0.33,0.10,0.08,-0.04,-0.02,0.01,
2.938,0.33,0.10,0.08,-0.04,-0.02,0.00,
2.942,0.33,0.10,0.08,-0.04,-0.02,0.00,
2.942,0.28,0.08,0.08,-0.04,-0.02,0.00,
2.942,0.28,0.08,0.08,-0.04,-0.02,-0.00,
2.949,0.28,0.08,0.08,-0.04,-0.02,-0.01,
2.95,0.28,0.08,0.08,-0.03,-0.03,-0.02,
2.95,0.28,0.08,0.08,-0.03,-0.03,-0.02,
2.95,0.28,0.08,0.08,-0.03,-0.03,-0.02,
2.951,0.22,0.06,0.12,-0.03,-0.03,-0.02,
2.952,0.22,0.06,0.12,-0.03,-0.03,-0.03,
2.973,0.22,0.06,0.12,-0.03,-0.03,-0.03,
2.974,0.22,0.06,0.12,-0.02,-0.03,-0.03,
2.975,0.22,0.06,0.12,-0.02,-0.04,-0.03,
2.976,0.22,0.06,0.12,-0.02,-0.04,-0.04,
2.977,0.14,0.05,0.10,-0.02,-0.04,-0.04,
2.978,0.14,0.05,0.10,-0.02,-0.03,-0.04,
2.979,0.14,0.05,0.10,-0.02,-0.04,-0.05,
2.979,0.14,0.05,0.10,-0.02,-0.03,-0.05,
2.98,0.14,0.05,0.10,-0.02,-0.03,-0.05,
2.98,0.14,0.05,0.10,-0.02,-0.03,-0.05,
2.981,0.17,0.06,0.03,-0.02,-0.03,-0.05,
2.982,0.17,0.06,0.03,-0.02,-0.03,-0.06,
2.982,0.17,0.06,0.03,-0.03,-0.03,-0.06,
2.983,0.17,0.06,0.03,-0.03,-0.03,-0.07,
2.983,0.17,0.06,0.03,-0.03,-0.03,-0.07,
2.984,0.17,0.06,0.03,-0.03,-0.03,-0.07,
2.984,0.18,0.08,0.03,-0.03,-0.03,-0.07,
2.984,0.18,0.08,0.03,-0.02,-0.03,-0.08,
2.985,0.18,0.08,0.03,-0.02,-0.03,-0.08,
2.988,0.18,0.08,0.03,-0.02,-0.03,-0.09,
2.99,0.18,0.08,0.03,-0.02,-0.03,-0.09,
2.991,0.18,0.08,0.03,-0.02,-0.03,-0.10,
2.992,0.22,0.11,-0.01,-0.02,-0.03,-0.10,
2.993,0.22,0.11,-0.01,-0.02,-0.03,-0.11,
3.001,0.22,0.11,-0.01,-0.03,-0.03,-0.11,
3.003,0.22,0.11,-0.01,-0.03,-0.04,-0.12,
3.004,0.22,0.11,-0.01,-0.03,-0.04,-0.13,
3.004,0.22,0.11,-0.01,-0.03,-0.05,-0.13,
3.004,0.25,0.14,-0.03,-0.03,-0.05,-0.13,
3.005,0.25,0.14,-0.03,-0.02,-0.05,-0.14,
3.005,0.25,0.14,-0.03,-0.03,-0.06,-0.15,
3.007,0.25,0.14,-0.03,-0.02,-0.06,-0.16,
3.008,0.25,0.14,-0.03,-0.03,-0.06,-0.16,
3.01,0.25,0.14,-0.03,-0.02,-0.07,-0.17,
3.012,0.24,0.15,0.01,-0.02,-0.07,-0.17,
3.013,0.24,0.15,0.01,-0.02,-0.07,-0.17,
3.014,0.24,0.15,0.01,-0.02,-0.07,-0.18,
3.018,0.24,0.15,0.01,-0.03,-0.08,-0.19,
3.018,0.24,0.15,0.01,-0.03,-0.09,-0.19,
3.019,0.24,0.15,0.01,-0.03,-0.09,-0.20,
3.021,0.22,0.15,-0.03,-0.03,-0.09,-0.20,
3.022,0.22,0.15,-0.03,-0.03,-0.09,-0.21,
3.023,0.22,0.15,-0.03,-0.03,-0.10,-0.21,
3.027,0.22,0.15,-0.03,-0.04,-0.10,-0.22,
3.028,0.22,0.15,-0.03,-0.04,-0.10,-0.22,
3.029,0.22,0.15,-0.03,-0.04,-0.10,-0.23,
3.032,0.09,0.16,-0.00,-0.04,-0.10,-0.23,
3.032,0.09,0.16,-0.00,-0.04,-0.10,-0.23,
3.034,0.09,0.16,-0.00,-0.04,-0.10,-0.23,
3.037,0.09,0.16,-0.00,-0.04,-0.10,-0.24,
3.038,0.09,0.16,-0.00,-0.04,-0.10,-0.24,
3.039,0.09,0.16,-0.00,-0.04,-0.09,-0.24,
3.068,0.07,0.15,0.05,-0.04,-0.09,-0.24,
3.069,0.07,0.15,0.05,-0.04,-0.09,-0.24,
3.069,0.07,0.15,0.05,-0.04,-0.08,-0.24,
3.069,0.07,0.15,0.05,-0.04,-0.07,-0.24,
3.07,0.07,0.15,0.05,-0.04,-0.07,-0.24,
3.07,0.07,0.15,0.05,-0.04,-0.06,-0.24,
3.071,0.04,0.14,0.04,-0.04,-0.06,-0.24,
3.071,0.04,0.14,0.04,-0.04,-0.06,-0.24,
3.071,0.04,0.14,0.04,-0.04,-0.05,-0.25,
3.072,0.04,0.14,0.04,-0.04,-0.05,-0.24,
3.072,0.04,0.14,0.04,-0.04,-0.04,-0.24,
3.073,0.04,0.14,0.04,-0.04,-0.04,-0.25,
3.073,0.05,0.15,-0.00,-0.04,-0.04,-0.25,
3.073,0.05,0.15,-0.00,-0.04,-0.04,-0.25,
3.074,0.05,0.15,-0.00,-0.04,-0.04,-0.25,
3.074,0.05,0.15,-0.00,-0.04,-0.04,-0.26,
3.075,0.05,0.15,-0.00,-0.04,-0.04,-0.26,
3.075,0.05,0.15,-0.00,-0.04,-0.04,-0.26,
3.075,0.07,0.20,-0.03,-0.04,-0.04,-0.26,
3.076,0.07,0.20,-0.03,-0.04,-0.04,-0.27,
3.076,0.07,0.20,-0.03,-0.03,-0.04,-0.27,
3.077,0.07,0.20,-0.03,-0.03,-0.04,-0.28,
3.078,0.07,0.20,-0.03,-0.03,-0.04,-0.28,
3.079,0.07,0.20,-0.03,-0.03,-0.04,-0.29,
3.081,0.10,0.26,-0.13,-0.03,-0.04,-0.29,
3.082,0.10,0.26,-0.13,-0.04,-0.05,-0.30,
3.086,0.10,0.26,-0.13,-0.04,-0.05,-0.30,
3.087,0.10,0.26,-0.13,-0.04,-0.05,-0.31,
3.09,0.10,0.26,-0.13,-0.04,-0.06,-0.31,
3.09,0.10,0.26,-0.13,-0.04,-0.06,-0.32,
3.096,0.07,0.34,-0.26,-0.04,-0.06,-0.32,
3.097,0.07,0.34,-0.26,-0.04,-0.06,-0.32,
3.097,0.07,0.34,-0.26,-0.04,-0.07,-0.33,
3.097,0.07,0.34,-0.26,-0.05,-0.07,-0.33,
3.098,0.07,0.34,-0.26,-0.05,-0.07,-0.34,
3.1,0.07,0.34,-0.26,-0.06,-0.07,-0.34,
3.102,0.07,0.37,-0.45,-0.06,-0.07,-0.34,
3.104,0.07,0.37,-0.45,-0.07,-0.07,-0.35,
3.104,0.07,0.37,-0.45,-0.08,-0.08,-0.35,
3.106,0.07,0.37,-0.45,-0.08,-0.08,-0.36,
3.108,0.07,0.37,-0.45,-0.09,-0.08,-0.36,
3.117,0.07,0.37,-0.45,-0.10,-0.09,-0.36,
3.118,0.08,0.44,-0.59,-0.10,-0.09,-0.36,
3.118,0.08,0.44,-0.59,-0.11,-0.09,-0.37,
3.118,0.08,0.44,-0.59,-0.12,-0.09,-0.37,
3.119,0.08,0.44,-0.59,-0.13,-0.10,-0.38,
3.119,0.08,0.44,-0.59,-0.13,-0.10,-0.38,
3.12,0.08,0.44,-0.59,-0.14,-0.10,-0.38,
3.139,0.05,0.43,-0.62,-0.14,-0.10,-0.38,
3.141,0.05,0.43,-0.62,-0.14,-0.11,-0.39,
3.142,0.05,0.43,-0.62,-0.15,-0.11,-0.39,
3.143,0.05,0.43,-0.62,-0.16,-0.12,-0.40,
3.144,0.05,0.43,-0.62,-0.17,-0.12,-0.40,
3.144,0.05,0.43,-0.62,-0.17,-0.13,-0.40,
3.145,0.01,0.43,-0.55,-0.17,-0.13,-0.40,
3.145,0.01,0.43,-0.55,-0.18,-0.14,-0.41,
3.146,0.01,0.43,-0.55,-0.18,-0.14,-0.41,
3.146,0.01,0.43,-0.55,-0.19,-0.15,-0.41,
3.147,0.01,0.43,-0.55,-0.19,-0.16,-0.41,
3.147,0.01,0.43,-0.55,-0.19,-0.16,-0.42,
3.148,-0.08,0.38,-0.38,-0.19,-0.16,-0.42,
3.149,-0.08,0.38,-0.38,-0.19,-0.17,-0.42,
3.149,-0.08,0.38,-0.38,-0.19,-0.17,-0.42,
3.149,-0.08,0.38,-0.38,-0.19,-0.18,-0.42,
3.15,-0.08,0.38,-0.38,-0.19,-0.18,-0.42,
3.15,-0.08,0.38,-0.38,-0.19,-0.18,-0.43,
3.152,-0.15,0.30,-0.24,-0.19,-0.18,-0.43,
3.153,-0.15,0.30,-0.24,-0.19,-0.18,-0.43,
3.154,-0.15,0.30,-0.24,-0.19,-0.19,-0.43,
3.156,-0.15,0.30,-0.24,-0.19,-0.19,-0.42,
3.16,-0.15,0.30,-0.24,-0.19,-0.19,-0.42,
3.162,-0.15,0.30,-0.24,-0.19,-0.19,-0.42,
3.164,-0.20,0.23,-0.13,-0.19,-0.19,-0.42,
3.165,-0.20,0.23,-0.13,-0.19,-0.19,-0.42,
3.166,-0.20,0.23,-0.13,-0.19,-0.20,-0.42,
3.167,-0.20,0.23,-0.13,-0.19,-0.20,-0.42,
3.168,-0.20,0.23,-0.13,-0.19,-0.20,-0.42,
3.169,-0.20,0.23,-0.13,-0.19,-0.20,-0.42,
3.172,-0.21,0.20,-0.12,-0.19,-0.20,-0.42,
3.173,-0.21,0.20,-0.12,-0.18,-0.20,-0.41,
3.173,-0.21,0.20,-0.12,-0.18,-0.20,-0.41,
3.178,-0.21,0.20,-0.12,-0.18,-0.19,-0.41,
3.181,-0.21,0.20,-0.12,-0.18,-0.19,-0.41,
3.182,-0.21,0.20,-0.12,-0.18,-0.19,-0.41,
3.183,-0.20,0.20,-0.22,-0.18,-0.19,-0.41,
3.184,-0.20,0.20,-0.22,-0.18,-0.19,-0.41,
3.184,-0.20,0.20,-0.22,-0.18,-0.19,-0.41,
3.186,-0.20,0.20,-0.22,-0.18,-0.18,-0.41,
3.188,-0.20,0.20,-0.22,-0.19,-0.18,-0.41,
3.189,-0.20,0.20,-0.22,-0.18,-0.18,-0.41,
3.193,-0.18,0.23,-0.34,-0.18,-0.18,-0.41,
3.196,-0.18,0.23,-0.34,-0.18,-0.18,-0.41,
3.197,-0.18,0.23,-0.34,-0.18,-0.18,-0.41,
3.2,-0.18,0.23,-0.34,-0.19,-0.19,-0.41,
3.201,-0.18,0.23,-0.34,-0.19,-0.19,-0.41,
3.201,-0.18,0.23,-0.34,-0.19,-0.19,-0.41,
3.202,-0.13,0.24,-0.44,-0.19,-0.19,-0.41,
3.202,-0.13,0.24,-0.44,-0.19,-0.20,-0.41,
3.203,-0.13,0.24,-0.44,-0.19,-0.20,-0.41,
3.206,-0.13,0.24,-0.44,-0.19,-0.21,-0.42,
3.243,-0.13,0.24,-0.44,-0.19,-0.22,-0.42,
3.243,-0.13,0.24,-0.44,-0.19,-0.22,-0.43,
3.244,-0.05,0.31,-0.56,-0.19,-0.22,-0.43,
3.244,-0.05,0.31,-0.56,-0.19,-0.23,-0.43,
3.245,-0.05,0.31,-0.56,-0.19,-0.24,-0.44,
3.245,-0.05,0.31,-0.56,-0.19,-0.25,-0.44,
3.245,-0.05,0.31,-0.56,-0.19,-0.26,-0.44,
3.246,-0.05,0.31,-0.56,-0.19,-0.27,-0.45,
3.246,-0.04,0.35,-0.60,-0.19,-0.27,-0.45,
3.247,-0.04,0.35,-0.60,-0.19,-0.27,-0.45,
3.247,-0.04,0.35,-0.60,-0.19,-0.28,-0.46,
3.247,-0.04,0.35,-0.60,-0.19,-0.30,-0.47,
3.248,-0.04,0.35,-0.60,-0.19,-0.30,-0.47,
3.248,-0.04,0.35,-0.60,-0.18,-0.31,-0.48,
3.249,0.02,0.35,-0.61,-0.18,-0.31,-0.48,
3.249,0.02,0.35,-0.61,-0.18,-0.32,-0.48,
3.25,0.02,0.35,-0.61,-0.18,-0.33,-0.49,
3.25,0.02,0.35,-0.61,-0.18,-0.35,-0.50,
3.25,0.02,0.35,-0.61,-0.18,-0.36,-0.50,
3.251,0.02,0.35,-0.61,-0.18,-0.37,-0.51,
3.251,-0.00,0.34,-0.57,-0.18,-0.37,-0.51,
3.252,-0.00,0.34,-0.57,-0.17,-0.38,-0.52,
3.252,-0.00,0.34,-0.57,-0.17,-0.39,-0.52,
3.253,-0.00,0.34,-0.57,-0.16,-0.41,-0.53,
3.253,-0.00,0.34,-0.57,-0.16,-0.41,-0.54,
3.253,-0.00,0.34,-0.57,-0.15,-0.43,-0.54,
3.254,-0.02,0.31,-0.51,-0.15,-0.43,-0.54,
3.254,-0.02,0.31,-0.51,-0.15,-0.43,-0.55,
3.255,-0.02,0.31,-0.51,-0.15,-0.45,-0.55,
3.259,-0.02,0.31,-0.51,-0.14,-0.46,-0.56,
3.26,-0.02,0.31,-0.51,-0.14,-0.47,-0.57,
3.261,-0.02,0.31,-0.51,-0.13,-0.48,-0.57,
3.261,-0.02,0.26,-0.51,-0.13,-0.48,-0.57,
3.262,-0.02,0.26,-0.51,-0.13,-0.49,-0.58,
3.266,-0.02,0.26,-0.51,-0.13,-0.50,-0.58,
3.266,-0.02,0.26,-0.51,-0.13,-0.52,-0.59,
3.27,-0.02,0.26,-0.51,-0.12,-0.52,-0.59,
3.27,-0.02,0.26,-0.51,-0.12,-0.53,-0.60,
3.273,-0.02,0.23,-0.61,-0.12,-0.53,-0.60,
3.276,-0.02,0.23,-0.61,-0.13,-0.54,-0.61,
3.281,-0.02,0.23,-0.61,-0.13,-0.55,-0.61,
3.282,-0.02,0.23,-0.61,-0.13,-0.56,-0.62,
3.282,-0.02,0.23,-0.61,-0.14,-0.57,-0.63,
3.282,-0.02,0.23,-0.61,-0.14,-0.58,-0.63,
3.283,0.00,0.22,-0.73,-0.14,-0.58,-0.63,
3.283,0.00,0.22,-0.73,-0.15,-0.58,-0.64,
3.283,0.00,0.22,-0.73,-0.15,-0.59,-0.65,
3.292,0.00,0.22,-0.73,-0.16,-0.61,-0.66,
3.293,0.00,0.22,-0.73,-0.16,-0.61,-0.66,
3.293,0.00,0.22,-0.73,-0.17,-0.61,-0.67,
3.294,0.09,0.20,-0.79,-0.17,-0.61,-0.67,
3.294,0.09,0.20,-0.79,-0.17,-0.62,-0.68,
3.294,0.09,0.20,-0.79,-0.18,-0.63,-0.69,
3.297,0.09,0.20,-0.79,-0.19,-0.63,-0.70,
3.303,0.09,0.20,-0.79,-0.19,-0.64,-0.70,
3.304,0.09,0.20,-0.79,-0.20,-0.64,-0.71,
3.305,0.17,0.18,-0.76,-0.20,-0.64,-0.71,
3.305,0.17,0.18,-0.76,-0.20,-0.65,-0.72,
3.305,0.17,0.18,-0.76,-0.21,-0.66,-0.73,
3.307,0.17,0.18,-0.76,-0.22,-0.67,-0.75,
3.314,0.17,0.18,-0.76,-0.22,-0.67,-0.75,
3.317,0.17,0.18,-0.76,-0.22,-0.68,-0.76,
3.317,0.26,0.14,-0.69,-0.22,-0.68,-0.76,
3.318,0.26,0.14,-0.69,-0.22,-0.69,-0.77,
3.318,0.26,0.14,-0.69,-0.23,-0.70,-0.78,
3.319,0.26,0.14,-0.69,-0.24,-0.72,-0.80,
3.319,0.26,0.14,-0.69,-0.24,-0.72,-0.81,
3.32,0.26,0.14,-0.69,-0.24,-0.73,-0.82,
3.322,0.25,0.07,-0.64,-0.24,-0.73,-0.82,
3.323,0.25,0.07,-0.64,-0.25,-0.74,-0.83,
3.324,0.25,0.07,-0.64,-0.25,-0.76,-0.84,
3.33,0.25,0.07,-0.64,-0.25,-0.78,-0.85,
3.331,0.25,0.07,-0.64,-0.26,-0.80,-0.86,
3.331,0.25,0.07,-0.64,-0.26,-0.81,-0.87,
3.332,0.27,-0.03,-0.52,-0.26,-0.81,-0.87,
3.332,0.27,-0.03,-0.52,-0.26,-0.84,-0.88,
3.334,0.27,-0.03,-0.52,-0.26,-0.86,-0.89,
3.337,0.27,-0.03,-0.52,-0.26,-0.90,-0.91,
3.338,0.27,-0.03,-0.52,-0.26,-0.93,-0.92,
3.341,0.27,-0.03,-0.52,-0.26,-0.94,-0.93,
3.342,0.29,-0.18,-0.26,-0.26,-0.94,-0.93,
3.342,0.29,-0.18,-0.26,-0.25,-0.96,-0.94,
3.349,0.29,-0.18,-0.26,-0.25,-0.99,-0.95,
3.35,0.29,-0.18,-0.26,-0.24,-1.02,-0.97,
3.35,0.29,-0.18,-0.26,-0.24,-1.04,-0.98,
3.35,0.29,-0.18,-0.26,-0.23,-1.06,-0.98,
3.351,0.29,-0.31,0.07,-0.23,-1.06,-0.98,
3.352,0.29,-0.31,0.07,-0.23,-1.08,-0.99,
3.355,0.29,-0.31,0.07,-0.22,-1.10,-1.00,
3.378,0.29,-0.31,0.07,-0.21,-1.13,-1.01,
3.379,0.29,-0.31,0.07,-0.21,-1.15,-1.02,
3.38,0.29,-0.31,0.07,-0.20,-1.16,-1.02,
3.38,0.20,-0.40,0.31,-0.20,-1.16,-1.02,
3.38,0.20,-0.40,0.31,-0.20,-1.18,-1.02,
3.38,0.20,-0.40,0.31,-0.19,-1.20,-1.03,
3.381,0.20,-0.40,0.31,-0.18,-1.22,-1.03,
3.381,0.20,-0.40,0.31,-0.18,-1.23,-1.04,
3.381,0.20,-0.40,0.31,-0.17,-1.23,-1.04,
3.382,0.06,-0.49,0.47,-0.17,-1.23,-1.04,
3.382,0.06,-0.49,0.47,-0.17,-1.24,-1.03,
3.416,0.06,-0.49,0.47,-0.17,-1.24,-1.03,
3.417,0.06,-0.49,0.47,-0.17,-1.24,-1.03,
3.418,0.06,-0.49,0.47,-0.17,-1.24,-1.03,
3.418,0.06,-0.49,0.47,-0.17,-1.24,-1.03,
3.419,-0.10,-0.55,0.43,-0.17,-1.24,-1.03,
3.419,-0.10,-0.55,0.43,-0.17,-1.23,-1.02,
3.42,-0.10,-0.55,0.43,-0.17,-1.23,-1.02,
3.42,-0.10,-0.55,0.43,-0.18,-1.21,-1.01,
3.421,-0.10,-0.55,0.43,-0.18,-1.21,-1.01,
3.422,-0.10,-0.55,0.43,-0.18,-1.21,-1.01,
3.423,-0.15,-0.55,0.32,-0.18,-1.21,-1.01,
3.424,-0.15,-0.55,0.32,-0.18,-1.20,-1.01,
3.427,-0.15,-0.55,0.32,-0.19,-1.19,-1.00,
3.428,-0.15,-0.55,0.32,-0.20,-1.18,-1.00,
3.428,-0.15,-0.55,0.32,-0.20,-1.17,-1.00,
3.429,-0.15,-0.55,0.32,-0.21,-1.17,-0.99,
3.429,-0.14,-0.54,0.15,-0.21,-1.17,-0.99,
3.429,-0.14,-0.54,0.15,-0.21,-1.17,-0.99,
3.43,-0.14,-0.54,0.15,-0.21,-1.16,-0.99,
3.43,-0.14,-0.54,0.15,-0.22,-1.15,-0.99,
3.431,-0.14,-0.54,0.15,-0.23,-1.15,-0.99,
3.431,-0.14,-0.54,0.15,-0.23,-1.15,-0.99,
3.432,-0.09,-0.50,-0.01,-0.23,-1.15,-0.99,
3.432,-0.09,-0.50,-0.01,-0.23,-1.15,-0.99,
3.432,-0.09,-0.50,-0.01,-0.24,-1.14,-0.99,
3.433,-0.09,-0.50,-0.01,-0.25,-1.15,-0.99,
3.433,-0.09,-0.50,-0.01,-0.25,-1.15,-1.00,
3.434,-0.09,-0.50,-0.01,-0.26,-1.15,-1.00,
3.434,0.01,-0.38,-0.16,-0.26,-1.15,-1.00,
3.434,0.01,-0.38,-0.16,-0.26,-1.16,-1.00,
3.435,0.01,-0.38,-0.16,-0.26,-1.17,-1.01,
3.435,0.01,-0.38,-0.16,-0.27,-1.18,-1.02,
3.436,0.01,-0.38,-0.16,-0.27,-1.20,-1.03,
3.436,0.01,-0.38,-0.16,-0.28,-1.21,-1.04,
3.437,0.15,-0.24,-0.29,-0.28,-1.21,-1.04,
3.437,0.15,-0.24,-0.29,-0.28,-1.22,-1.05,
3.437,0.15,-0.24,-0.29,-0.28,-1.24,-1.06,
3.438,0.15,-0.24,-0.29,-0.28,-1.27,-1.08,
3.438,0.15,-0.24,-0.29,-0.29,-1.29,-1.09,
3.443,0.15,-0.24,-0.29,-0.29,-1.30,-1.10,
3.444,0.19,-0.13,-0.36,-0.29,-1.30,-1.10,
3.444,0.19,-0.13,-0.36,-0.29,-1.33,-1.11,
3.445,0.19,-0.13,-0.36,-0.29,-1.35,-1.12,
3.447,0.19,-0.13,-0.36,-0.29,-1.38,-1.14,
3.448,0.19,-0.13,-0.36,-0.29,-1.40,-1.15,
3.45,0.19,-0.13,-0.36,-0.29,-1.41,-1.16,
3.452,0.16,0.01,-0.39,-0.29,-1.41,-1.16,
3.453,0.16,0.01,-0.39,-0.30,-1.43,-1.17,
3.453,0.16,0.01,-0.39,-0.30,-1.45,-1.18,
3.458,0.16,0.01,-0.39,-0.31,-1.48,-1.19,
3.459,0.16,0.01,-0.39,-0.31,-1.50,-1.20,
3.461,0.16,0.01,-0.39,-0.31,-1.51,-1.21,
3.462,0.05,0.06,-0.48,-0.31,-1.51,-1.21,
3.465,0.05,0.06,-0.48,-0.32,-1.52,-1.22,
3.465,0.05,0.06,-0.48,-0.33,-1.53,-1.23,
3.469,0.05,0.06,-0.48,-0.34,-1.54,-1.24,
3.469,0.05,0.06,-0.48,-0.35,-1.54,-1.25,
3.476,0.05,0.06,-0.48,-0.36,-1.55,-1.25,
3.477,-0.12,0.07,-0.63,-0.36,-1.55,-1.25,
3.477,-0.12,0.07,-0.63,-0.37,-1.55,-1.25,
3.477,-0.12,0.07,-0.63,-0.38,-1.55,-1.26,
3.477,-0.12,0.07,-0.63,-0.40,-1.56,-1.26,
3.478,-0.12,0.07,-0.63,-0.42,-1.56,-1.27,
3.48,-0.12,0.07,-0.63,-0.42,-1.56,-1.27,
3.482,-0.32,0.04,-0.81,-0.42,-1.56,-1.27,
3.483,-0.32,0.04,-0.81,-0.44,-1.56,-1.26,
3.484,-0.32,0.04,-0.81,-0.46,-1.56,-1.26,
3.487,-0.32,0.04,-0.81,-0.48,-1.55,-1.26,
3.488,-0.32,0.04,-0.81,-0.50,-1.55,-1.26,
3.503,-0.32,0.04,-0.81,-0.52,-1.55,-1.26,
3.505,-0.50,-0.01,-0.92,-0.52,-1.55,-1.26,
3.506,-0.50,-0.01,-0.92,-0.53,-1.54,-1.25,
3.507,-0.50,-0.01,-0.92,-0.55,-1.54,-1.25,
3.507,-0.50,-0.01,-0.92,-0.57,-1.54,-1.24,
3.508,-0.50,-0.01,-0.92,-0.58,-1.53,-1.24,
3.509,-0.50,-0.01,-0.92,-0.60,-1.53,-1.24,
3.509,-0.69,-0.09,-0.86,-0.60,-1.53,-1.24,
3.51,-0.69,-0.09,-0.86,-0.61,-1.53,-1.23,
3.511,-0.69,-0.09,-0.86,-0.62,-1.53,-1.23,
3.512,-0.69,-0.09,-0.86,-0.63,-1.54,-1.22,
3.512,-0.69,-0.09,-0.86,-0.63,-1.54,-1.21,
3.513,-0.69,-0.09,-0.86,-0.64,-1.55,-1.21,
3.529,-0.90,-0.16,-0.66,-0.64,-1.55,-1.21,
3.531,-0.90,-0.16,-0.66,-0.65,-1.55,-1.20,
3.532,-0.90,-0.16,-0.66,-0.65,-1.56,-1.19,
3.533,-0.90,-0.16,-0.66,-0.65,-1.57,-1.18,
3.534,-0.90,-0.16,-0.66,-0.65,-1.57,-1.17,
3.534,-0.90,-0.16,-0.66,-0.66,-1.58,-1.16,
3.534,-1.07,-0.14,-0.46,-0.66,-1.58,-1.16,
3.535,-1.07,-0.14,-0.46,-0.65,-1.60,-1.15,
3.535,-1.07,-0.14,-0.46,-0.65,-1.61,-1.14,
3.536,-1.07,-0.14,-0.46,-0.64,-1.64,-1.13,
3.536,-1.07,-0.14,-0.46,-0.64,-1.65,-1.12,
3.537,-1.07,-0.14,-0.46,-0.63,-1.67,-1.11,
3.537,-1.11,-0.05,-0.24,-0.63,-1.67,-1.11,
3.538,-1.11,-0.05,-0.24,-0.63,-1.69,-1.11,
3.538,-1.11,-0.05,-0.24,-0.62,-1.72,-1.10,
3.539,-1.11,-0.05,-0.24,-0.61,-1.74,-1.09,
3.54,-1.11,-0.05,-0.24,-0.60,-1.76,-1.09,
3.54,-1.11,-0.05,-0.24,-0.59,-1.79,-1.08,
3.573,-1.03,0.08,-0.14,-0.59,-1.79,-1.08,
3.573,-1.03,0.08,-0.14,-0.58,-1.81,-1.08,
3.574,-1.03,0.08,-0.14,-0.57,-1.84,-1.07,
3.574,-1.03,0.08,-0.14,-0.56,-1.87,-1.07,
3.575,-1.03,0.08,-0.14,-0.55,-1.90,-1.07,
3.575,-1.03,0.08,-0.14,-0.55,-1.93,-1.07,
3.576,-0.81,0.20,-0.20,-0.55,-1.93,-1.07,
3.576,-0.81,0.20,-0.20,-0.54,-1.96,-1.07,
3.576,-0.81,0.20,-0.20,-0.54,-1.99,-1.07,
3.577,-0.81,0.20,-0.20,-0.53,-2.02,-1.08,
3.577,-0.81,0.20,-0.20,-0.53,-2.05,-1.08,
3.578,-0.81,0.20,-0.20,-0.54,-2.08,-1.08,
3.578,-0.54,0.32,-0.30,-0.54,-2.08,-1.08,
3.579,-0.54,0.32,-0.30,-0.54,-2.10,-1.09,
3.579,-0.54,0.32,-0.30,-0.54,-2.13,-1.10,
3.579,-0.54,0.32,-0.30,-0.54,-2.15,-1.11,
3.58,-0.54,0.32,-0.30,-0.55,-2.18,-1.12,
3.58,-0.54,0.32,-0.30,-0.55,-2.20,-1.12,
3.581,-0.33,0.41,-0.28,-0.55,-2.20,-1.12,
3.581,-0.33,0.41,-0.28,-0.55,-2.23,-1.13,
3.581,-0.33,0.41,-0.28,-0.55,-2.25,-1.14,
3.582,-0.33,0.41,-0.28,-0.56,-2.28,-1.16,
3.582,-0.33,0.41,-0.28,-0.56,-2.29,-1.17,
3.583,-0.33,0.41,-0.28,-0.56,-2.32,-1.18,
3.583,-0.27,0.41,-0.12,-0.56,-2.32,-1.18,
3.584,-0.27,0.41,-0.12,-0.56,-2.33,-1.18,
3.584,-0.27,0.41,-0.12,-0.55,-2.35,-1.19,
3.589,-0.27,0.41,-0.12,-0.56,-2.37,-1.20,
3.59,-0.27,0.41,-0.12,-0.55,-2.38,-1.21,
3.59,-0.27,0.41,-0.12,-0.56,-2.38,-1.22,
3.594,-0.42,0.36,0.02,-0.56,-2.38,-1.22,
3.594,-0.42,0.36,0.02,-0.56,-2.39,-1.23,
3.594,-0.42,0.36,0.02,-0.57,-2.38,-1.23,
3.598,-0.42,0.36,0.02,-0.58,-2.38,-1.23,
3.599,-0.42,0.36,0.02,-0.59,-2.37,-1.23,
3.599,-0.42,0.36,0.02,-0.60,-2.36,-1.23,
3.603,-0.67,0.32,-0.18,-0.60,-2.36,-1.23,
3.606,-0.67,0.32,-0.18,-0.62,-2.36,-1.23,
3.607,-0.67,0.32,-0.18,-0.64,-2.34,-1.22,
3.607,-0.67,0.32,-0.18,-0.66,-2.32,-1.22,
3.61,-0.67,0.32,-0.18,-0.68,-2.30,-1.22,
3.611,-0.67,0.32,-0.18,-0.70,-2.28,-1.21,
3.616,-0.95,0.22,-0.37,-0.70,-2.28,-1.21,
3.616,-0.95,0.22,-0.37,-0.72,-2.26,-1.20,
3.617,-0.95,0.22,-0.37,-0.74,-2.23,-1.19,
3.617,-0.95,0.22,-0.37,-0.78,-2.20,-1.16,
3.617,-0.95,0.22,-0.37,-0.79,-2.19,-1.16,
3.619,-0.95,0.22,-0.37,-0.81,-2.17,-1.14,
3.621,-1.27,0.09,-0.39,-0.81,-2.17,-1.14,
3.621,-1.27,0.09,-0.39,-0.83,-2.15,-1.12,
3.624,-1.27,0.09,-0.39,-0.84,-2.13,-1.10,
3.628,-1.27,0.09,-0.39,-0.86,-2.12,-1.08,
3.629,-1.27,0.09,-0.39,-0.87,-2.10,-1.07,
3.63,-1.27,0.09,-0.39,-0.88,-2.09,-1.05,
3.632,-1.40,0.11,0.05,-0.88,-2.09,-1.05,
3.632,-1.40,0.11,0.05,-0.88,-2.08,-1.03,
3.633,-1.40,0.11,0.05,-0.88,-2.07,-1.02,
3.636,-1.40,0.11,0.05,-0.87,-2.06,-1.00,
3.637,-1.40,0.11,0.05,-0.86,-2.05,-0.99,
3.653,-1.40,0.11,0.05,-0.85,-2.04,-0.98,
3.656,-1.16,0.24,0.76,-0.85,-2.04,-0.98,
3.657,-1.16,0.24,0.76,-0.83,-2.03,-0.97,
3.658,-1.16,0.24,0.76,-0.81,-2.02,-0.97,
3.659,-1.16,0.24,0.76,-0.79,-2.00,-0.97,
3.66,-1.16,0.24,0.76,-0.76,-1.98,-0.98,
3.66,-1.16,0.24,0.76,-0.73,-1.96,-0.98,
3.661,-0.81,0.02,1.09,-0.73,-1.96,-0.98,
3.662,-0.81,0.02,1.09,-0.70,-1.95,-0.98,
3.663,-0.81,0.02,1.09,-0.67,-1.95,-0.98,
3.664,-0.81,0.02,1.09,-0.65,-1.96,-0.97,
3.665,-0.81,0.02,1.09,-0.62,-1.97,-0.96,
3.666,-0.81,0.02,1.09,-0.60,-1.99,-0.95,
3.666,-1.11,0.40,1.09,-0.60,-1.99,-0.95,
3.666,-1.11,0.40,1.09,-0.58,-2.02,-0.93,
3.668,-1.11,0.40,1.09,-0.56,-2.05,-0.91,
3.668,-1.11,0.40,1.09,-0.55,-2.08,-0.89,
3.668,-1.11,0.40,1.09,-0.53,-2.12,-0.86,
3.67,-1.11,0.40,1.09,-0.52,-2.15,-0.84,
3.677,-1.52,0.66,0.89,-0.52,-2.15,-0.84,
3.679,-1.52,0.66,0.89,-0.50,-2.19,-0.82,
3.68,-1.52,0.66,0.89,-0.50,-2.22,-0.81,
3.68,-1.52,0.66,0.89,-0.47,-2.27,-0.78,
3.681,-1.52,0.66,0.89,-0.47,-2.29,-0.78,
3.681,-1.52,0.66,0.89,-0.45,-2.31,-0.77,
3.684,-1.46,0.49,0.72,-0.45,-2.31,-0.77,
3.684,-1.46,0.49,0.72,-0.43,-2.34,-0.77,
3.685,-1.46,0.49,0.72,-0.42,-2.37,-0.76,
3.687,-1.46,0.49,0.72,-0.39,-2.41,-0.75,
3.687,-1.46,0.49,0.72,-0.38,-2.42,-0.75,
3.692,-1.46,0.49,0.72,-0.36,-2.46,-0.74,
3.693,-1.68,0.37,0.84,-0.36,-2.46,-0.74,
3.693,-1.68,0.37,0.84,-0.34,-2.50,-0.73,
3.694,-1.68,0.37,0.84,-0.32,-2.54,-0.72,
3.7,-1.68,0.37,0.84,-0.23,-2.84,-0.68,
3.7,-1.68,0.37,0.84,-0.23,-2.84,-0.68,
3.701,-1.68,0.37,0.84,-0.23,-2.84,-0.68,
3.702,-1.89,0.47,1.07,-0.23,-2.84,-0.68,
3.702,-1.89,0.47,1.07,-0.19,-3.02,-0.67,
3.704,-1.89,0.47,1.07,-0.15,-3.12,-0.66,
3.708,-1.89,0.47,1.07,-0.08,-3.20,-0.64,
3.744,-1.89,0.47,1.07,-0.06,-3.21,-0.63,
3.745,-1.89,0.47,1.07,-0.02,-3.22,-0.63,
3.746,-2.63,0.57,1.83,-0.02,-3.22,-0.63,
3.746,-2.63,0.57,1.83,0.02,-3.22,-0.63,
3.747,-2.63,0.57,1.83,0.05,-3.21,-0.62,
3.749,-2.63,0.57,1.83,0.10,-3.20,-0.61,
3.75,-2.63,0.57,1.83,0.12,-3.20,-0.61,
3.75,-2.63,0.57,1.83,0.16,-3.22,-0.59,
3.751,-2.81,0.30,2.41,0.16,-3.22,-0.59,
3.751,-2.81,0.30,2.41,0.21,-3.25,-0.57,
3.752,-2.81,0.30,2.41,0.25,-3.29,-0.55,
3.752,-2.81,0.30,2.41,0.33,-3.35,-0.52,
3.753,-2.81,0.30,2.41,0.35,-3.37,-0.51,
3.753,-2.81,0.30,2.41,0.40,-3.40,-0.48,
3.753,-3.32,0.37,2.67,0.40,-3.40,-0.48,
3.754,-3.32,0.37,2.67,0.45,-3.41,-0.46,
3.754,-3.32,0.37,2.67,0.50,-3.41,-0.44,
3.755,-3.32,0.37,2.67,0.55,-3.37,-0.39,
3.755,-3.32,0.37,2.67,0.57,-3.35,-0.38,
3.755,-3.32,0.37,2.67,0.60,-3.31,-0.35,
3.756,-3.81,0.56,1.92,0.60,-3.31,-0.35,
3.756,-3.81,0.56,1.92,0.61,-3.26,-0.31,
3.757,-3.81,0.56,1.92,0.62,-3.20,-0.27,
3.757,-3.81,0.56,1.92,0.62,-3.13,-0.20,
3.757,-3.81,0.56,1.92,0.62,-3.10,-0.17,
3.758,-3.81,0.56,1.92,0.60,-3.04,-0.11,
3.758,-4.54,0.60,0.85,0.60,-3.04,-0.11,
3.759,-4.54,0.60,0.85,0.59,-2.99,-0.05,
3.759,-4.54,0.60,0.85,0.57,-2.93,0.01,
3.759,-4.54,0.60,0.85,0.55,-2.85,0.11,
3.76,-4.54,0.60,0.85,0.54,-2.82,0.14,
3.76,-4.54,0.60,0.85,0.53,-2.76,0.20,
3.761,-4.67,0.78,0.07,0.53,-2.76,0.20,
3.762,-4.67,0.78,0.07,0.52,-2.71,0.26,
3.766,-4.67,0.78,0.07,0.51,-2.65,0.32,
3.772,-4.67,0.78,0.07,0.50,-2.57,0.41,
3.773,-4.67,0.78,0.07,0.49,-2.55,0.43,
3.773,-4.67,0.78,0.07,0.49,-2.51,0.48,
3.773,-4.37,0.97,-0.09,0.49,-2.51,0.48,
3.774,-4.37,0.97,-0.09,0.50,-2.48,0.53,
3.774,-4.37,0.97,-0.09,0.50,-2.46,0.57,
3.785,-4.37,0.97,-0.09,0.52,-2.46,0.63,
3.786,-4.37,0.97,-0.09,0.52,-2.46,0.65,
3.786,-4.37,0.97,-0.09,0.55,-2.47,0.69,
3.786,-3.68,0.99,0.21,0.55,-2.47,0.69,
3.787,-3.68,0.99,0.21,0.57,-2.50,0.71,
3.787,-3.68,0.99,0.21,0.61,-2.53,0.75,
3.791,-3.68,0.99,0.21,0.67,-2.61,0.79,
3.794,-3.68,0.99,0.21,0.69,-2.64,0.80,
3.794,-3.68,0.99,0.21,0.75,-2.71,0.83,
3.794,-3.14,1.08,0.97,0.75,-2.71,0.83,
3.794,-3.14,1.08,0.97,0.80,-2.79,0.86,
3.795,-3.14,1.08,0.97,0.86,-2.88,0.87,
3.81,-3.14,1.08,0.97,0.96,-3.01,0.89,
3.811,-3.14,1.08,0.97,1.00,-3.06,0.89,
3.812,-3.14,1.08,0.97,1.07,-3.15,0.89,
3.812,-2.54,1.22,1.50,1.07,-3.15,0.89,
3.812,-2.54,1.22,1.50,1.15,-3.25,0.88,
3.813,-2.54,1.22,1.50,1.23,-3.35,0.87,
3.813,-2.54,1.22,1.50,1.36,-3.50,0.84,
3.813,-2.54,1.22,1.50,1.40,-3.56,0.83,
3.813,-2.54,1.22,1.50,1.48,-3.67,0.81,
3.814,-2.12,1.36,1.63,1.48,-3.67,0.81,
3.814,-2.12,1.36,1.63,1.56,-3.78,0.79,
3.814,-2.12,1.36,1.63,1.63,-3.90,0.77,
3.816,-2.12,1.36,1.63,1.74,-4.06,0.74,
3.822,-2.12,1.36,1.63,1.78,-4.11,0.73,
3.823,-2.12,1.36,1.63,1.84,-4.20,0.72,
3.823,-1.96,1.35,1.42,1.84,-4.20,0.72,
3.824,-1.96,1.35,1.42,1.90,-4.27,0.70,
3.826,-1.96,1.35,1.42,1.95,-4.33,0.69,
3.829,-1.96,1.35,1.42,2.01,-4.38,0.68,
3.829,-1.96,1.35,1.42,2.03,-4.40,0.68,
3.829,-1.96,1.35,1.42,2.06,-4.41,0.68,
3.837,-2.46,1.31,0.98,2.06,-4.41,0.68,
3.837,-2.46,1.31,0.98,2.08,-4.40,0.68,
3.837,-2.46,1.31,0.98,2.10,-4.39,0.69,
3.838,-2.46,1.31,0.98,2.12,-4.35,0.70,
3.838,-2.46,1.31,0.98,2.12,-4.33,0.70,
3.842,-2.46,1.31,0.98,2.12,-4.28,0.71,
3.843,-2.87,0.97,0.22,2.12,-4.28,0.71,
3.843,-2.87,0.97,0.22,2.12,-4.24,0.72,
3.844,-2.87,0.97,0.22,2.12,-4.19,0.73,
3.846,-2.87,0.97,0.22,2.10,-4.12,0.74,
3.848,-2.87,0.97,0.22,2.09,-4.09,0.75,
3.849,-2.87,0.97,0.22,2.07,-4.05,0.75,
3.851,-3.05,0.84,-0.36,2.07,-4.05,0.75,
3.852,-3.05,0.84,-0.36,2.06,-4.00,0.76,
3.853,-3.05,0.84,-0.36,2.04,-3.94,0.76,
3.856,-3.05,0.84,-0.36,2.01,-3.86,0.77,
3.858,-3.05,0.84,-0.36,2.00,-3.84,0.78,
3.86,-3.05,0.84,-0.36,1.98,-3.78,0.79,
3.862,-3.69,0.62,-0.97,1.98,-3.78,0.79,
3.863,-3.69,0.62,-0.97,1.96,-3.72,0.80,
3.864,-3.69,0.62,-0.97,1.94,-3.66,0.82,
3.868,-3.69,0.62,-0.97,1.91,-3.56,0.84,
3.868,-3.69,0.62,-0.97,1.91,-3.54,0.85,
3.87,-3.69,0.62,-0.97,1.89,-3.49,0.87,
3.875,-4.32,0.50,-1.36,1.89,-3.49,0.87,
3.877,-4.32,0.50,-1.36,1.87,-3.44,0.89,
3.911,-4.32,0.50,-1.36,1.85,-3.40,0.91,
3.912,-4.32,0.50,-1.36,1.83,-3.36,0.94,
3.913,-4.32,0.50,-1.36,1.82,-3.34,0.95,
3.913,-4.32,0.50,-1.36,1.81,-3.32,0.97,
3.913,-4.62,0.25,-1.54,1.81,-3.32,0.97,
3.914,-4.62,0.25,-1.54,1.80,-3.30,0.98,
3.915,-4.62,0.25,-1.54,1.80,-3.29,1.00,
3.915,-4.62,0.25,-1.54,1.81,-3.30,1.02,
3.915,-4.62,0.25,-1.54,1.81,-3.30,1.03,
3.916,-4.62,0.25,-1.54,1.82,-3.31,1.04,
3.916,-4.76,0.07,-1.25,1.82,-3.31,1.04,
3.917,-4.76,0.07,-1.25,1.84,-3.33,1.05,
3.917,-4.76,0.07,-1.25,1.86,-3.36,1.06,
3.918,-4.76,0.07,-1.25,1.89,-3.41,1.06,
3.918,-4.76,0.07,-1.25,1.91,-3.43,1.06,
3.918,-4.76,0.07,-1.25,1.93,-3.48,1.06,
3.919,-4.66,-0.16,-0.82,1.93,-3.48,1.06,
3.919,-4.66,-0.16,-0.82,1.97,-3.53,1.06,
3.92,-4.66,-0.16,-0.82,2.00,-3.58,1.05,
3.92,-4.66,-0.16,-0.82,2.07,-3.66,1.04,
3.921,-4.66,-0.16,-0.82,2.09,-3.69,1.03,
3.921,-4.66,-0.16,-0.82,2.13,-3.75,1.02,
3.922,-4.52,-0.33,-0.37,2.13,-3.75,1.02,
3.922,-4.52,-0.33,-0.37,2.18,-3.81,1.01,
3.922,-4.52,-0.33,-0.37,2.22,-3.87,0.99,
3.923,-4.52,-0.33,-0.37,2.29,-3.97,0.96,
3.923,-4.52,-0.33,-0.37,2.32,-4.01,0.94,
3.923,-4.52,-0.33,-0.37,2.37,-4.08,0.90,
3.924,-3.69,-0.33,-0.39,2.37,-4.08,0.90,
3.924,-3.69,-0.33,-0.39,2.42,-4.14,0.86,
3.925,-3.69,-0.33,-0.39,2.48,-4.21,0.84,
3.927,-3.69,-0.33,-0.39,2.57,-4.32,0.80,
3.928,-3.69,-0.33,-0.39,2.61,-4.35,0.80,
3.929,-3.69,-0.33,-0.39,2.67,-4.41,0.78,
3.932,-4.24,-0.69,-0.12,2.67,-4.41,0.78,
3.933,-4.24,-0.69,-0.12,2.72,-4.48,0.76,
3.933,-4.24,-0.69,-0.12,2.77,-4.54,0.74,
3.936,-4.24,-0.69,-0.12,2.85,-4.61,0.72,
3.947,-4.24,-0.69,-0.12,2.88,-4.64,0.71,
3.948,-4.24,-0.69,-0.12,2.92,-4.68,0.70,
3.949,-4.89,-1.13,-0.74,2.92,-4.68,0.70,
3.949,-4.89,-1.13,-0.74,2.97,-4.73,0.69,
3.949,-4.89,-1.13,-0.74,3.00,-4.78,0.68,
3.95,-4.89,-1.13,-0.74,3.05,-4.85,0.67,
3.95,-4.89,-1.13,-0.74,3.06,-4.87,0.66,
3.95,-4.89,-1.13,-0.74,3.09,-4.92,0.66,
3.971,-5.23,-1.07,-1.52,3.09,-4.92,0.66,
3.972,-5.23,-1.07,-1.52,3.11,-4.96,0.66,
3.973,-5.23,-1.07,-1.52,3.13,-4.99,0.66,
3.973,-5.23,-1.07,-1.52,3.15,-5.04,0.67,
3.973,-5.23,-1.07,-1.52,3.16,-5.06,0.67,
3.973,-5.23,-1.07,-1.52,3.17,-5.09,0.67,
3.974,-5.71,-1.16,-1.73,3.17,-5.09,0.67,
3.974,-5.71,-1.16,-1.73,3.18,-5.13,0.67,
3.975,-5.71,-1.16,-1.73,3.18,-5.17,0.68,
3.975,-5.71,-1.16,-1.73,3.18,-5.24,0.68,
3.975,-5.71,-1.16,-1.73,3.18,-5.25,0.68,
3.976,-5.71,-1.16,-1.73,3.17,-5.28,0.69,
3.976,-6.24,-1.15,-2.23,3.17,-5.28,0.69,
3.976,-6.24,-1.15,-2.23,3.16,-5.31,0.70,
3.977,-6.24,-1.15,-2.23,3.14,-5.32,0.72,
3.977,-6.24,-1.15,-2.23,3.11,-5.33,0.75,
3.977,-6.24,-1.15,-2.23,3.09,-5.33,0.76,
3.98,-6.24,-1.15,-2.23,3.06,-5.33,0.80,
3.982,-6.51,-0.98,-2.60,3.06,-5.33,0.80,
3.983,-6.51,-0.98,-2.60,3.02,-5.31,0.83,
3.984,-6.51,-0.98,-2.60,2.97,-5.30,0.86,
3.988,-6.51,-0.98,-2.60,2.89,-5.26,0.91,
3.989,-6.51,-0.98,-2.60,2.86,-5.25,0.92,
3.989,-6.51,-0.98,-2.60,2.79,-5.22,0.95,
3.993,-5.90,-0.90,-3.47,2.79,-5.22,0.95,
3.994,-5.90,-0.90,-3.47,2.72,-5.19,0.97,
3.995,-5.90,-0.90,-3.47,2.65,-5.16,0.99,
3.997,-5.90,-0.90,-3.47,2.53,-5.11,1.01,
3.998,-5.90,-0.90,-3.47,2.49,-5.09,1.01,
4.0,-5.90,-0.90,-3.47,2.42,-5.04,1.01,
4.002,-4.10,-1.24,-3.64,2.42,-5.04,1.01,
4.004,-4.10,-1.24,-3.64,2.34,-5.00,1.00,
4.005,-4.10,-1.24,-3.64,2.27,-4.95,0.98,
4.01,-4.10,-1.24,-3.64,2.16,-4.87,0.93,
4.012,-4.10,-1.24,-3.64,2.12,-4.84,0.91,
4.014,-4.10,-1.24,-3.64,2.04,-4.79,0.86,
4.015,-1.90,-1.46,-3.48,2.04,-4.79,0.86,
4.016,-1.90,-1.46,-3.48,1.97,-4.73,0.82,
4.018,-1.90,-1.46,-3.48,1.89,-4.67,0.77,
4.019,-1.90,-1.46,-3.48,1.78,-4.58,0.69,
4.022,-1.90,-1.46,-3.48,1.74,-4.55,0.67,
4.022,-1.90,-1.46,-3.48,1.68,-4.48,0.63,
4.025,-1.14,-1.23,-2.38,1.68,-4.48,0.63,
4.027,-1.14,-1.23,-2.38,1.61,-4.42,0.59,
4.029,-1.14,-1.23,-2.38,1.56,-4.36,0.56,
4.03,-1.14,-1.23,-2.38,1.48,-4.27,0.52,
4.031,-1.14,-1.23,-2.38,1.46,-4.24,0.51,
4.032,-1.14,-1.23,-2.38,1.42,-4.19,0.50,
4.033,-1.76,-1.03,-0.58,1.42,-4.19,0.50,
4.034,-1.76,-1.03,-0.58,1.39,-4.13,0.48,
4.034,-1.76,-1.03,-0.58,1.37,-4.08,0.47,
4.038,-1.76,-1.03,-0.58,1.35,-4.00,0.46,
4.039,-1.76,-1.03,-0.58,1.35,-3.98,0.46,
4.046,-1.76,-1.03,-0.58,1.34,-3.94,0.46,
4.093,-2.60,-1.04,1.31,1.34,-3.94,0.46,
4.093,-2.60,-1.04,1.31,1.35,-3.89,0.45,
4.094,-2.60,-1.04,1.31,1.35,-3.85,0.46,
4.094,-2.60,-1.04,1.31,1.38,-3.79,0.47,
4.095,-2.60,-1.04,1.31,1.39,-3.78,0.48,
4.095,-2.60,-1.04,1.31,1.41,-3.74,0.50,
4.096,-3.78,-1.03,2.90,1.41,-3.74,0.50,
4.096,-3.78,-1.03,2.90,1.44,-3.71,0.52,
4.096,-3.78,-1.03,2.90,1.47,-3.68,0.55,
4.097,-3.78,-1.03,2.90,1.53,-3.64,0.60,
4.097,-3.78,-1.03,2.90,1.55,-3.62,0.62,
4.098,-3.78,-1.03,2.90,1.59,-3.60,0.65,
4.098,-4.95,-1.00,3.91,1.59,-3.60,0.65,
4.098,-4.95,-1.00,3.91,1.63,-3.57,0.69,
4.099,-4.95,-1.00,3.91,1.68,-3.55,0.73,
4.099,-4.95,-1.00,3.91,1.75,-3.53,0.79,
4.1,-4.95,-1.00,3.91,1.78,-3.53,0.80,
4.1,-4.95,-1.00,3.91,1.82,-3.52,0.84,
4.1,-5.56,-0.53,4.61,1.82,-3.52,0.84,
4.101,-5.56,-0.53,4.61,1.87,-3.51,0.88,
4.101,-5.56,-0.53,4.61,1.92,-3.50,0.91,
4.102,-5.56,-0.53,4.61,1.98,-3.49,0.95,
4.102,-5.56,-0.53,4.61,2.00,-3.49,0.97,
4.103,-5.56,-0.53,4.61,2.03,-3.49,0.99,
4.103,-5.57,0.18,4.63,2.03,-3.49,0.99,
4.103,-5.57,0.18,4.63,2.06,-3.49,1.01,
4.104,-5.57,0.18,4.63,2.08,-3.49,1.02,
4.104,-5.57,0.18,4.63,2.10,-3.49,1.02,
4.105,-5.57,0.18,4.63,2.10,-3.49,1.02,
4.105,-5.57,0.18,4.63,2.10,-3.48,1.01,
4.106,-4.73,1.46,4.01,2.10,-3.48,1.01,
4.106,-4.73,1.46,4.01,2.08,-3.48,0.99,
4.107,-4.73,1.46,4.01,2.06,-3.48,0.97,
4.107,-4.73,1.46,4.01,2.02,-3.48,0.93,
4.107,-4.73,1.46,4.01,2.00,-3.47,0.92,
4.108,-4.73,1.46,4.01,1.97,-3.45,0.89,
4.108,-3.69,2.56,3.21,1.97,-3.45,0.89,
4.108,-3.69,2.56,3.21,1.93,-3.42,0.87,
4.109,-3.69,2.56,3.21,1.88,-3.36,0.83,
4.109,-3.69,2.56,3.21,1.81,-3.26,0.78,
4.11,-3.69,2.56,3.21,1.79,-3.23,0.76,
4.11,-3.69,2.56,3.21,1.74,-3.16,0.71,
4.114,-3.40,3.18,3.36,1.74,-3.16,0.71,
4.115,-3.40,3.18,3.36,1.69,-3.09,0.66,
4.116,-3.40,3.18,3.36,1.64,-3.03,0.60,
4.116,-3.40,3.18,3.36,1.58,-2.95,0.51,
4.119,-3.40,3.18,3.36,1.56,-2.93,0.47,
4.12,-3.40,3.18,3.36,1.52,-2.89,0.41,
4.13,-3.93,3.75,4.44,1.52,-2.89,0.41,
4.131,-3.93,3.75,4.44,1.49,-2.85,0.35,
4.134,-3.93,3.75,4.44,1.45,-2.81,0.30,
4.134,-3.93,3.75,4.44,1.41,-2.76,0.22,
4.135,-3.93,3.75,4.44,1.41,-2.75,0.20,
4.135,-3.93,3.75,4.44,1.39,-2.72,0.16,
4.135,-5.51,4.86,5.97,1.39,-2.72,0.16,
4.136,-5.51,4.86,5.97,1.36,-2.68,0.13,
4.136,-5.51,4.86,5.97,1.34,-2.65,0.10,
4.137,-5.51,4.86,5.97,1.31,-2.60,0.06,
4.144,-5.51,4.86,5.97,1.30,-2.58,0.05,
4.146,-5.51,4.86,5.97,1.27,-2.54,0.04,
4.146,-7.13,5.00,6.55,1.27,-2.54,0.04,
4.148,-7.13,5.00,6.55,1.24,-2.51,0.02,
4.149,-7.13,5.00,6.55,1.21,-2.47,0.01,
4.149,-7.13,5.00,6.55,1.15,-2.41,0.00,
4.15,-7.13,5.00,6.55,1.13,-2.39,0.00,
4.15,-7.13,5.00,6.55,1.08,-2.36,0.00,
4.152,-8.20,4.98,6.30,1.08,-2.36,0.00,
4.154,-8.20,4.98,6.30,1.03,-2.33,-0.01,
4.154,-8.20,4.98,6.30,0.97,-2.31,-0.02,
4.157,-8.20,4.98,6.30,0.87,-2.27,-0.06,
4.159,-8.20,4.98,6.30,0.83,-2.26,-0.07,
4.16,-8.20,4.98,6.30,0.77,-2.24,-0.09,
4.164,-8.04,4.46,5.75,0.77,-2.24,-0.09,
4.165,-8.04,4.46,5.75,0.72,-2.22,-0.09,
4.165,-8.04,4.46,5.75,0.66,-2.22,-0.10,
4.167,-8.04,4.46,5.75,0.56,-2.22,-0.12,
4.168,-8.04,4.46,5.75,0.53,-2.22,-0.12,
4.171,-8.04,4.46,5.75,0.47,-2.22,-0.13,
4.173,-8.58,5.00,5.78,0.47,-2.22,-0.13,
4.175,-8.58,5.00,5.78,0.41,-2.23,-0.14,
4.175,-8.58,5.00,5.78,0.35,-2.24,-0.16,
4.179,-8.58,5.00,5.78,0.25,-2.27,-0.20,
4.18,-8.58,5.00,5.78,0.22,-2.29,-0.22,
4.18,-8.58,5.00,5.78,0.16,-2.32,-0.26,
4.182,-7.64,4.93,5.52,0.16,-2.32,-0.26,
4.184,-7.64,4.93,5.52,0.10,-2.35,-0.32,
4.185,-7.64,4.93,5.52,0.03,-2.40,-0.38,
4.202,-7.64,4.93,5.52,-0.07,-2.48,-0.49,
4.203,-7.64,4.93,5.52,-0.11,-2.51,-0.53,
4.203,-7.64,4.93,5.52,-0.18,-2.57,-0.62,
4.204,-6.02,5.21,4.77,-0.18,-2.57,-0.62,
4.204,-6.02,5.21,4.77,-0.24,-2.62,-0.70,
4.204,-6.02,5.21,4.77,-0.31,-2.67,-0.78,
4.205,-6.02,5.21,4.77,-0.42,-2.75,-0.90,
4.205,-6.02,5.21,4.77,-0.46,-2.77,-0.94,
4.205,-6.02,5.21,4.77,-0.53,-2.83,-1.01,
4.206,-4.77,5.18,3.58,-0.53,-2.83,-1.01,
4.206,-4.77,5.18,3.58,-0.61,-2.90,-1.09,
4.206,-4.77,5.18,3.58,-0.69,-2.97,-1.16,
4.211,-4.77,5.18,3.58,-0.81,-3.11,-1.26,
4.241,-4.77,5.18,3.58,-0.85,-3.15,-1.29,
4.241,-4.77,5.18,3.58,-0.93,-3.26,-1.36,
4.242,-4.36,5.18,2.58,-0.93,-3.26,-1.36,
4.242,-4.36,5.18,2.58,-1.00,-3.37,-1.42,
4.242,-4.36,5.18,2.58,-1.07,-3.49,-1.48,
4.243,-4.36,5.18,2.58,-1.17,-3.69,-1.57,
4.243,-4.36,5.18,2.58,-1.20,-3.76,-1.60,
4.244,-4.36,5.18,2.58,-1.25,-3.92,-1.67,
4.244,-3.26,4.33,2.07,-1.25,-3.92,-1.67,
4.245,-3.26,4.33,2.07,-1.31,-4.09,-1.76,
4.245,-3.26,4.33,2.07,-1.36,-4.26,-1.84,
4.245,-3.26,4.33,2.07,-1.41,-4.55,-1.94,
4.246,-3.26,4.33,2.07,-1.42,-4.66,-1.96,
4.246,-3.26,4.33,2.07,-1.42,-4.89,-1.99,
4.247,-3.39,3.30,2.25,-1.42,-4.89,-1.99,
4.247,-3.39,3.30,2.25,-1.42,-5.14,-1.99,
4.247,-3.39,3.30,2.25,-1.40,-5.39,-1.97,
4.248,-3.39,3.30,2.25,-1.35,-5.80,-1.90,
4.249,-3.39,3.30,2.25,-1.33,-5.94,-1.86,
4.249,-3.39,3.30,2.25,-1.26,-6.22,-1.78,
4.25,-5.67,3.00,3.42,-1.26,-6.22,-1.78,
4.25,-5.67,3.00,3.42,-1.19,-6.49,-1.68,
4.251,-5.67,3.00,3.42,-1.09,-6.77,-1.57,
4.251,-5.67,3.00,3.42,-0.92,-7.19,-1.41,
4.251,-5.67,3.00,3.42,-0.86,-7.33,-1.37,
4.252,-5.67,3.00,3.42,-0.73,-7.59,-1.27,
4.252,-5.03,2.60,4.32,-0.73,-7.59,-1.27,
4.253,-5.03,2.60,4.32,-0.59,-7.84,-1.19,
4.253,-5.03,2.60,4.32,-0.44,-8.06,-1.11,
4.258,-5.03,2.60,4.32,-0.21,-8.32,-1.01,
4.259,-5.03,2.60,4.32,-0.14,-8.38,-0.98,
4.26,-5.03,2.60,4.32,-0.00,-8.44,-0.92,
4.264,-1.86,2.78,3.33,-0.00,-8.44,-0.92,
4.264,-1.86,2.78,3.33,0.12,-8.44,-0.87,
4.264,-1.86,2.78,3.33,0.22,-8.35,-0.83,
4.27,-1.86,2.78,3.33,0.33,-8.07,-0.81,
4.271,-1.86,2.78,3.33,0.34,-7.94,-0.81,
4.271,-1.86,2.78,3.33,0.35,-7.61,-0.83,
4.273,2.33,4.70,-2.85,0.35,-7.61,-0.83,
4.274,2.33,4.70,-2.85,0.32,-7.21,-0.88,
4.274,2.33,4.70,-2.85,0.23,-6.75,-0.94,
4.277,2.33,4.70,-2.85,0.00,-5.94,-1.05,
4.277,2.33,4.70,-2.85,-0.10,-5.65,-1.10,
4.28,2.33,4.70,-2.85,-0.34,-5.04,-1.18,
4.281,3.98,6.13,-13.95,-0.34,-5.04,-1.18,
4.282,3.98,6.13,-13.95,-0.65,-4.42,-1.26,
4.284,3.98,6.13,-13.95,-1.01,-3.80,-1.32,
4.286,3.98,6.13,-13.95,-1.64,-2.89,-1.38,
4.287,3.98,6.13,-13.95,-1.88,-2.59,-1.39,
4.29,3.98,6.13,-13.95,-2.39,-2.03,-1.40,
4.292,-0.24,5.44,-26.64,-2.39,-2.03,-1.40,
4.292,-0.24,5.44,-26.64,-2.94,-1.51,-1.38,
4.294,-0.24,5.44,-26.64,-3.51,-1.05,-1.35,
4.297,-0.24,5.44,-26.64,-4.39,-0.46,-1.24,
4.297,-0.24,5.44,-26.64,-4.69,-0.29,-1.19,
4.3,-0.24,5.44,-26.64,-5.26,-0.00,-1.06,
4.312,-8.38,0.84,-34.02,-5.26,-0.00,-1.06,
4.312,-8.38,0.84,-34.02,-5.81,0.23,-0.90,
4.312,-8.38,0.84,-34.02,-6.33,0.40,-0.69,
4.312,-8.38,0.84,-34.02,-7.02,0.56,-0.32,
4.313,-8.38,0.84,-34.02,-7.23,0.58,-0.19,
4.313,-8.38,0.84,-34.02,-7.61,0.58,0.09,
4.313,-15.82,-4.74,-29.63,-7.61,0.58,0.09,
4.314,-15.82,-4.74,-29.63,-7.93,0.53,0.36,
4.314,-15.82,-4.74,-29.63,-8.20,0.44,0.62,
4.318,-15.82,-4.74,-29.63,-8.50,0.22,0.96,
4.32,-15.82,-4.74,-29.63,-8.56,0.13,1.06,
4.32,-15.82,-4.74,-29.63,-8.65,-0.06,1.22,
4.327,-13.63,-8.17,-16.77,-8.65,-0.06,1.22,
4.329,-13.63,-8.17,-16.77,-8.67,-0.27,1.35,
4.329,-13.63,-8.17,-16.77,-8.62,-0.47,1.46,
4.329,-13.63,-8.17,-16.77,-8.43,-0.75,1.56,
4.33,-13.63,-8.17,-16.77,-8.34,-0.83,1.57,
4.33,-13.63,-8.17,-16.77,-8.11,-0.99,1.59,
4.332,-4.93,-8.56,-0.70,-8.11,-0.99,1.59,
4.332,-4.93,-8.56,-0.70,-7.85,-1.14,1.57,
4.334,-4.93,-8.56,-0.70,-7.55,-1.27,1.53,
4.338,-4.93,-8.56,-0.70,-7.05,-1.38,1.41,
4.338,-4.93,-8.56,-0.70,-6.87,-1.39,1.35,
4.34,-4.93,-8.56,-0.70,-6.52,-1.38,1.22,
4.342,4.64,-7.67,10.97,-6.52,-1.38,1.22,
4.342,4.64,-7.67,10.97,-6.14,-1.31,1.05,
4.343,4.64,-7.67,10.97,-5.75,-1.20,0.86,
4.348,4.64,-7.67,10.97,-5.13,-0.94,0.53,
4.348,4.64,-7.67,10.97,-4.91,-0.83,0.41,
4.35,4.64,-7.67,10.97,-4.46,-0.59,0.16,
4.352,12.99,-8.25,18.38,-4.46,-0.59,0.16,
4.353,12.99,-8.25,18.38,-3.99,-0.31,-0.08,
4.354,12.99,-8.25,18.38,-3.52,-0.01,-0.34,
4.358,12.99,-8.25,18.38,-2.79,0.46,-0.73,
4.358,12.99,-8.25,18.38,-2.54,0.62,-0.85,
4.361,12.99,-8.25,18.38,-2.06,0.92,-1.12,
4.363,18.42,-10.12,21.32,-2.06,0.92,-1.12,
4.364,18.42,-10.12,21.32,-1.57,1.20,-1.38,
4.364,18.42,-10.12,21.32,-1.08,1.43,-1.66,
4.367,18.42,-10.12,21.32,-0.35,1.68,-2.06,
4.37,18.42,-10.12,21.32,-0.11,1.74,-2.19,
4.371,18.42,-10.12,21.32,0.37,1.82,-2.45,
4.372,21.50,-13.44,19.18,0.37,1.82,-2.45,
4.372,21.50,-13.44,19.18,0.85,1.85,-2.69,
4.395,21.50,-13.44,19.18,1.32,1.82,-2.92,
4.395,21.50,-13.44,19.18,2.03,1.67,-3.24,
4.396,21.50,-13.44,19.18,2.27,1.60,-3.34,
4.396,21.50,-13.44,19.18,2.74,1.41,-3.54,
4.396,21.35,-17.19,16.40,2.74,1.41,-3.54,
4.397,21.35,-17.19,16.40,3.22,1.19,-3.72,
4.397,21.35,-17.19,16.40,3.70,0.94,-3.87,
4.397,21.35,-17.19,16.40,4.42,0.53,-4.09,
4.398,21.35,-17.19,16.40,4.66,0.39,-4.16,
4.398,21.35,-17.19,16.40,5.12,0.12,-4.30,
4.398,19.46,-17.65,15.55,5.12,0.12,-4.30,
4.399,19.46,-17.65,15.55,5.56,-0.13,-4.44,
4.399,19.46,-17.65,15.55,5.99,-0.35,-4.57,
4.4,19.46,-17.65,15.55,6.60,-0.59,-4.76,
4.4,19.46,-17.65,15.55,6.79,-0.65,-4.82,
4.4,19.46,-17.65,15.55,7.17,-0.70,-4.95,
4.402,17.50,-18.79,12.35,7.17,-0.70,-4.95,
4.403,17.50,-18.79,12.35,7.54,-0.69,-5.05,
4.404,17.50,-18.79,12.35,7.89,-0.61,-5.15,
4.407,17.50,-18.79,12.35,8.40,-0.41,-5.20,
4.408,17.50,-18.79,12.35,8.58,-0.35,-5.20,
4.409,17.50,-18.79,12.35,8.91,-0.23,-5.19,
4.411,14.65,-26.73,7.38,8.91,-0.23,-5.19,
4.412,14.65,-26.73,7.38,9.20,-0.13,-5.16,
4.413,14.65,-26.73,7.38,9.46,-0.08,-5.11,
4.416,14.65,-26.73,7.38,9.82,-0.06,-4.97,
4.417,14.65,-26.73,7.38,9.93,-0.05,-4.90,
4.419,14.65,-26.73,7.38,10.14,-0.02,-4.73,
4.422,14.41,-40.65,1.17,10.14,-0.02,-4.73,
4.422,14.41,-40.65,1.17,10.34,0.05,-4.55,
4.424,14.41,-40.65,1.17,10.54,0.18,-4.33,
4.426,14.41,-40.65,1.17,10.79,0.50,-4.00,
4.427,14.41,-40.65,1.17,10.87,0.66,-3.90,
4.43,14.41,-40.65,1.17,10.99,1.03,-3.70,
4.431,16.87,-57.21,-3.54,10.99,1.03,-3.70,
4.431,16.87,-57.21,-3.54,11.06,1.42,-3.52,
4.433,16.87,-57.21,-3.54,11.09,1.84,-3.36,
4.438,16.87,-57.21,-3.54,11.07,2.50,-3.14,
4.439,16.87,-57.21,-3.54,11.04,2.93,-3.01,
4.443,16.87,-57.21,-3.54,11.02,3.14,-2.94,
4.444,16.52,-63.49,-6.29,11.02,3.14,-2.94,
4.444,16.52,-63.49,-6.29,10.98,3.55,-2.80,
4.444,16.52,-63.49,-6.29,10.95,3.94,-2.65,
4.448,16.52,-63.49,-6.29,10.90,4.50,-2.42,
4.449,16.52,-63.49,-6.29,10.89,4.68,-2.35,
4.449,16.52,-63.49,-6.29,10.87,5.02,-2.22,
4.453,16.08,-57.79,-5.67,10.87,5.02,-2.22,
4.454,16.08,-57.79,-5.67,10.84,5.32,-2.10,
4.454,16.08,-57.79,-5.67,10.62,5.41,-2.02,
4.458,16.08,-57.79,-5.67,2.56,-6.70,-0.29,
4.459,16.08,-57.79,-5.67,-3.53,-15.17,1.13,
4.46,16.08,-57.79,-5.67,-15.88,-27.90,3.21,
4.464,-25.05,-71.62,-51.09,-15.88,-27.90,3.21,
4.465,-25.05,-71.62,-51.09,-23.38,-28.15,3.44,
4.466,-25.05,-71.62,-51.09,-25.98,-22.17,3.56,
4.467,-25.05,-71.62,-51.09,-25.74,-11.20,4.23,
4.468,-25.05,-71.62,-51.09,-22.37,-1.24,3.50,
4.477,-25.05,-71.62,-51.09,-6.35,22.62,-0.45,
4.479,-10.00,-33.30,15.87,-6.35,22.62,-0.45,
4.479,-10.00,-33.30,15.87,10.77,19.17,-2.16,
4.48,-10.00,-33.30,15.87,13.30,0.81,-1.07,
4.48,-10.00,-33.30,15.87,4.95,-6.51,0.44,
4.481,-10.00,-33.30,15.87,3.12,-5.80,0.58,
4.481,-10.00,-33.30,15.87,1.10,-3.63,0.85,
4.498,-6.78,-2.32,-22.62,1.10,-3.63,0.85,
4.499,-6.78,-2.32,-22.62,0.21,-2.00,1.15,
4.5,-6.78,-2.32,-22.62,-0.67,-1.29,1.30,
4.5,-6.78,-2.32,-22.62,-1.80,-1.24,1.35,
4.5,-6.78,-2.32,-22.62,-2.09,-1.24,1.35,
4.5,-6.78,-2.32,-22.62,-2.64,-0.90,1.32,
4.5,0.36,8.10,24.36,-2.64,-0.90,1.32,
4.501,0.36,8.10,24.36,-3.40,0.25,1.17,
4.501,0.36,8.10,24.36,-4.34,2.04,0.92,
4.501,0.36,8.10,24.36,-3.89,4.45,0.30,
4.501,0.36,8.10,24.36,-2.05,3.94,-0.00,
4.501,0.36,8.10,24.36,1.47,-0.86,-0.41,
4.502,-0.55,-15.84,-8.25,1.47,-0.86,-0.41,
4.502,-0.55,-15.84,-8.25,0.79,-3.72,-0.73,
4.514,-0.55,-15.84,-8.25,-1.25,-2.35,-1.06,
4.515,-0.55,-15.84,-8.25,-0.67,0.09,-0.99,
4.515,-0.55,-15.84,-8.25,-0.02,0.50,-0.90,
4.515,-0.55,-15.84,-8.25,0.73,1.04,-0.73,
4.515,-2.55,-8.07,11.68,0.73,1.04,-0.73,
4.516,-2.55,-8.07,11.68,0.51,1.05,-0.63,
4.516,-2.55,-8.07,11.68,-0.11,0.42,-0.60,
4.516,-2.55,-8.07,11.68,-0.32,-0.71,-0.59,
4.52,-2.55,-8.07,11.68,-0.28,-0.70,-0.61,
4.52,-2.55,-8.07,11.68,-0.14,-0.29,-0.65,
4.523,-1.78,-2.23,1.00,-0.14,-0.29,-0.65,
4.524,-1.78,-2.23,1.00,-0.04,0.30,-0.73,
4.525,-1.78,-2.23,1.00,0.08,0.54,-0.84,
4.527,-1.78,-2.23,1.00,0.07,0.41,-1.05,
4.528,-1.78,-2.23,1.00,0.04,0.28,-1.12,
4.529,-1.78,-2.23,1.00,-0.06,0.13,-1.23,
4.531,1.03,-0.92,-2.49,-0.06,0.13,-1.23,
4.532,1.03,-0.92,-2.49,-0.10,0.07,-1.32,
4.533,1.03,-0.92,-2.49,-0.07,0.10,-1.39,
4.536,1.03,-0.92,-2.49,-0.01,0.14,-1.43,
4.538,1.03,-0.92,-2.49,-0.01,0.14,-1.40,
4.539,1.03,-0.92,-2.49,-0.05,0.11,-1.28,
4.573,0.55,-2.29,-0.07,-0.05,0.11,-1.28,
4.574,0.55,-2.29,-0.07,-0.07,0.01,-1.11,
4.574,0.55,-2.29,-0.07,-0.09,0.00,-0.93,
4.575,0.55,-2.29,-0.07,-0.09,-0.03,-0.68,
4.575,0.55,-2.29,-0.07,-0.10,-0.03,-0.60,
4.576,0.55,-2.29,-0.07,-0.11,-0.10,-0.48,
4.576,1.47,-5.17,-0.17,-0.11,-0.10,-0.48,
4.576,1.47,-5.17,-0.17,-0.15,-0.14,-0.37,
4.577,1.47,-5.17,-0.17,-0.17,-0.22,-0.27,
4.577,1.47,-5.17,-0.17,-0.21,-0.28,-0.12,
4.578,1.47,-5.17,-0.17,-0.22,-0.33,-0.08,
4.578,1.47,-5.17,-0.17,-0.25,-0.37,-0.02,
4.579,1.06,-4.74,-0.45,-0.25,-0.37,-0.02,
4.579,1.06,-4.74,-0.45,-0.28,-0.41,0.02,
4.579,1.06,-4.74,-0.45,-0.33,-0.49,0.06,
4.58,1.06,-4.74,-0.45,-0.39,-0.64,0.08,
4.58,1.06,-4.74,-0.45,-0.42,-0.68,0.08,
4.581,1.06,-4.74,-0.45,-0.47,-0.76,0.08,
4.581,1.14,-3.05,-1.55,-0.47,-0.76,0.08,
4.581,1.14,-3.05,-1.55,-0.51,-0.85,0.07,
4.582,1.14,-3.05,-1.55,-0.55,-0.91,0.06,
4.582,1.14,-3.05,-1.55,-0.60,-1.00,0.06,
4.583,1.14,-3.05,-1.55,-0.61,-1.00,0.06,
4.583,1.14,-3.05,-1.55,-0.62,-1.04,0.06,
4.584,0.15,-1.79,-1.39,-0.62,-1.04,0.06,
4.584,0.15,-1.79,-1.39,-0.63,-1.02,0.07,
4.584,0.15,-1.79,-1.39,-0.62,-1.01,0.07,
4.587,0.15,-1.79,-1.39,-0.62,-0.97,0.08,
4.588,0.15,-1.79,-1.39,-0.62,-0.96,0.08,
4.592,0.15,-1.79,-1.39,-0.61,-0.93,0.09,
4.592,-0.57,-1.61,-0.49,-0.61,-0.93,0.09,
4.593,-0.57,-1.61,-0.49,-0.62,-0.91,0.09,
4.593,-0.57,-1.61,-0.49,-0.61,-0.90,0.10,
4.599,-0.57,-1.61,-0.49,-0.60,-0.88,0.11,
4.599,-0.57,-1.61,-0.49,-0.60,-0.87,0.12,
4.6,-0.57,-1.61,-0.49,-0.59,-0.84,0.14,
4.604,-1.28,-1.26,-0.24,-0.59,-0.84,0.14,
4.605,-1.28,-1.26,-0.24,-0.57,-0.84,0.16,
4.605,-1.28,-1.26,-0.24,-0.56,-0.81,0.18,
4.609,-1.28,-1.26,-0.24,-0.55,-0.81,0.22,
4.609,-1.28,-1.26,-0.24,-0.55,-0.80,0.24,
4.609,-1.28,-1.26,-0.24,-0.54,-0.82,0.28,
4.612,-2.45,-1.21,0.18,-0.54,-0.82,0.28,
4.613,-2.45,-1.21,0.18,-0.54,-0.80,0.33,
4.613,-2.45,-1.21,0.18,-0.55,-0.78,0.37,
4.619,-2.45,-1.21,0.18,-0.58,-0.69,0.45,
4.624,-2.45,-1.21,0.18,-0.59,-0.67,0.48,
4.625,-2.45,-1.21,0.18,-0.62,-0.62,0.54,
4.626,-3.27,-1.69,0.16,-0.62,-0.62,0.54,
4.626,-3.27,-1.69,0.16,-0.64,-0.58,0.60,
4.626,-3.27,-1.69,0.16,-0.65,-0.59,0.66,
4.627,-3.27,-1.69,0.16,-0.63,-0.59,0.75,
4.644,-3.27,-1.69,0.16,-0.63,-0.59,0.78,
4.644,-3.27,-1.69,0.16,-0.61,-0.58,0.84,
4.645,-3.74,-1.44,0.89,-0.61,-0.58,0.84,
4.645,-3.74,-1.44,0.89,-0.59,-0.55,0.90,
4.645,-3.74,-1.44,0.89,-0.55,-0.55,0.94,
4.645,-3.74,-1.44,0.89,-0.43,-0.76,1.00,
4.645,-3.74,-1.44,0.89,-0.39,-0.84,1.02,
4.646,-3.74,-1.44,0.89,-0.33,-0.95,1.04,
4.646,-2.30,-0.87,1.78,-0.33,-0.95,1.04,
4.646,-2.30,-0.87,1.78,-0.31,-0.91,1.06,
4.646,-2.30,-0.87,1.78,-0.32,-0.82,1.06,
4.646,-2.30,-0.87,1.78,-0.33,-0.63,1.04,
4.652,-2.30,-0.87,1.78,-0.32,-0.59,1.03,
4.653,-2.30,-0.87,1.78,-0.30,-0.50,1.01,
4.653,0.48,-0.89,1.48,-0.30,-0.50,1.01,
4.653,0.48,-0.89,1.48,-0.27,-0.44,0.97,
4.653,0.48,-0.89,1.48,-0.23,-0.40,0.93,
4.671,0.48,-0.89,1.48,-0.18,-0.38,0.86,
4.672,0.48,-0.89,1.48,-0.17,-0.38,0.83,
4.672,0.48,-0.89,1.48,-0.15,-0.40,0.79,
4.672,2.25,-0.86,1.84,-0.15,-0.40,0.79,
4.672,2.25,-0.86,1.84,-0.16,-0.43,0.74,
4.672,2.25,-0.86,1.84,-0.18,-0.45,0.70,
4.673,2.25,-0.86,1.84,-0.24,-0.45,0.66,
4.673,2.25,-0.86,1.84,-0.27,-0.45,0.65,
4.673,2.25,-0.86,1.84,-0.33,-0.46,0.62,
4.673,1.57,-1.56,-1.50,-0.33,-0.46,0.62,
4.673,1.57,-1.56,-1.50,-0.39,-0.47,0.60,
4.673,1.57,-1.56,-1.50,-0.44,-0.50,0.58,
4.677,1.57,-1.56,-1.50,-0.51,-0.53,0.53,
4.679,1.57,-1.56,-1.50,-0.53,-0.54,0.52,
4.68,1.57,-1.56,-1.50,-0.55,-0.55,0.49,
4.681,2.04,-2.08,-1.74,-0.55,-0.55,0.49,
4.682,2.04,-2.08,-1.74,-0.57,-0.54,0.45,
4.685,2.04,-2.08,-1.74,-0.58,-0.50,0.41,
4.688,2.04,-2.08,-1.74,-0.57,-0.49,0.35,
4.688,2.04,-2.08,-1.74,-0.56,-0.48,0.34,
4.69,2.04,-2.08,-1.74,-0.53,-0.47,0.31,
4.691,2.47,-2.05,0.39,-0.53,-0.47,0.31,
4.692,2.47,-2.05,0.39,-0.50,-0.45,0.28,
4.693,2.47,-2.05,0.39,-0.46,-0.43,0.26,
4.7,2.47,-2.05,0.39,-0.35,-0.38,0.21,
4.703,2.47,-2.05,0.39,-0.35,-0.38,0.21,
4.704,2.47,-2.05,0.39,-0.35,-0.38,0.21,
4.704,1.64,-1.88,1.33,-0.35,-0.38,0.21,
4.704,1.64,-1.88,1.33,-0.33,-0.36,0.20,
4.705,1.64,-1.88,1.33,-0.31,-0.36,0.19,
4.707,1.64,-1.88,1.33,-0.31,-0.36,0.17,
4.738,1.64,-1.88,1.33,-0.31,-0.36,0.17,
4.739,1.64,-1.88,1.33,-0.31,-0.35,0.15,
4.739,1.49,-2.25,0.42,-0.31,-0.35,0.15,
4.74,1.49,-2.25,0.42,-0.32,-0.36,0.14,
4.74,1.49,-2.25,0.42,-0.33,-0.37,0.13,
4.74,1.49,-2.25,0.42,-0.37,-0.38,0.12,
4.741,1.49,-2.25,0.42,-0.38,-0.38,0.12,
4.741,1.49,-2.25,0.42,-0.40,-0.39,0.12,
4.742,1.03,-2.39,-0.44,-0.40,-0.39,0.12,
4.742,1.03,-2.39,-0.44,-0.42,-0.40,0.12,
4.742,1.03,-2.39,-0.44,-0.44,-0.40,0.12,
4.743,1.03,-2.39,-0.44,-0.47,-0.40,0.12,
4.743,1.03,-2.39,-0.44,-0.47,-0.40,0.12,
4.744,1.03,-2.39,-0.44,-0.47,-0.39,0.12,
4.744,0.46,-2.50,-0.22,-0.47,-0.39,0.12,
4.745,0.46,-2.50,-0.22,-0.48,-0.38,0.12,
4.745,0.46,-2.50,-0.22,-0.47,-0.38,0.12,
4.745,0.46,-2.50,-0.22,-0.46,-0.37,0.11,
4.746,0.46,-2.50,-0.22,-0.45,-0.37,0.11,
4.746,0.46,-2.50,-0.22,-0.44,-0.36,0.11,
4.747,0.45,-2.49,0.33,-0.44,-0.36,0.11,
4.747,0.45,-2.49,0.33,-0.44,-0.35,0.10,
4.748,0.45,-2.49,0.33,-0.43,-0.33,0.10,
4.748,0.45,-2.49,0.33,-0.42,-0.33,0.09,
4.748,0.45,-2.49,0.33,-0.41,-0.33,0.09,
4.757,0.45,-2.49,0.33,-0.40,-0.33,0.09,
4.758,0.42,-2.90,0.08,-0.40,-0.33,0.09,
4.758,0.42,-2.90,0.08,-0.40,-0.33,0.08,
4.759,0.42,-2.90,0.08,-0.40,-0.33,0.07,
4.759,0.42,-2.90,0.08,-0.40,-0.33,0.06,
4.759,0.42,-2.90,0.08,-0.40,-0.33,0.06,
4.759,0.42,-2.90,0.08,-0.40,-0.34,0.05,
4.761,0.67,-3.00,-0.14,-0.40,-0.34,0.05,
4.762,0.67,-3.00,-0.14,-0.40,-0.34,0.04,
4.763,0.67,-3.00,-0.14,-0.39,-0.35,0.03,
4.767,0.67,-3.00,-0.14,-0.40,-0.35,0.02,
4.78,0.67,-3.00,-0.14,-0.40,-0.35,0.02,
4.781,0.67,-3.00,-0.14,-0.40,-0.35,0.01,
4.781,0.84,-3.36,-0.22,-0.40,-0.35,0.01,
4.781,0.84,-3.36,-0.22,-0.40,-0.34,0.00,
4.781,0.84,-3.36,-0.22,-0.40,-0.34,-0.01,
4.781,0.84,-3.36,-0.22,-0.39,-0.33,-0.02,
4.782,0.84,-3.36,-0.22,-0.39,-0.33,-0.02,
4.782,0.84,-3.36,-0.22,-0.39,-0.32,-0.02,
4.782,0.89,-3.54,-0.18,-0.39,-0.32,-0.02,
4.782,0.89,-3.54,-0.18,-0.38,-0.32,-0.03,
4.789,0.89,-3.54,-0.18,-0.38,-0.30,-0.03,
4.79,0.89,-3.54,-0.18,-0.37,-0.28,-0.04,
4.79,0.89,-3.54,-0.18,-0.37,-0.28,-0.04,
4.79,0.89,-3.54,-0.18,-0.36,-0.27,-0.04,
4.792,0.90,-3.95,-0.29,-0.36,-0.27,-0.04,
4.793,0.90,-3.95,-0.29,-0.35,-0.25,-0.03,
4.796,0.90,-3.95,-0.29,-0.34,-0.24,-0.03,
4.796,0.90,-3.95,-0.29,-0.32,-0.22,-0.03,
4.798,0.90,-3.95,-0.29,-0.31,-0.21,-0.03,
4.802,0.90,-3.95,-0.29,-0.28,-0.18,-0.02,
4.803,0.27,-2.63,0.27,-0.28,-0.18,-0.02,
4.803,0.27,-2.63,0.27,-0.25,-0.15,-0.02,
4.806,0.27,-2.63,0.27,-0.21,-0.12,-0.02,
4.806,0.27,-2.63,0.27,-0.15,-0.07,-0.02,
4.808,0.27,-2.63,0.27,-0.13,-0.05,-0.02,
4.81,0.27,-2.63,0.27,-0.08,-0.02,-0.02,
4.814,-0.21,-0.75,1.61,-0.08,-0.02,-0.02,
4.814,-0.21,-0.75,1.61,-0.04,0.01,-0.02,
4.815,-0.21,-0.75,1.61,-0.00,0.02,-0.02,
4.818,-0.21,-0.75,1.61,0.04,0.05,-0.02,
4.819,-0.21,-0.75,1.61,0.05,0.05,-0.02,
4.82,-0.21,-0.75,1.61,0.06,0.06,-0.02,
4.821,-0.08,-1.05,0.98,0.06,0.06,-0.02,
4.822,-0.08,-1.05,0.98,0.07,0.07,-0.03,
4.824,-0.08,-1.05,0.98,0.07,0.08,-0.03,
4.826,-0.08,-1.05,0.98,0.06,0.08,-0.02,
4.827,-0.08,-1.05,0.98,0.06,0.08,-0.02,
4.829,-0.08,-1.05,0.98,0.05,0.08,-0.02,
4.832,-0.08,-1.17,0.03,0.05,0.08,-0.02,
4.832,-0.08,-1.17,0.03,0.05,0.08,-0.02,
4.836,-0.08,-1.17,0.03,0.04,0.08,-0.02,
4.837,-0.08,-1.17,0.03,0.02,0.07,-0.02,
4.838,-0.08,-1.17,0.03,0.02,0.06,-0.02,
4.84,-0.08,-1.17,0.03,0.00,0.05,-0.02,
4.841,-0.03,-1.26,-0.14,0.00,0.05,-0.02,
4.842,-0.03,-1.26,-0.14,-0.01,0.04,-0.02,
4.844,-0.03,-1.26,-0.14,-0.02,0.03,-0.01,
4.85,-0.03,-1.26,-0.14,-0.04,0.03,-0.01,
4.851,-0.03,-1.26,-0.14,-0.04,0.03,-0.01,
4.851,-0.03,-1.26,-0.14,-0.04,0.03,-0.01,
4.851,-0.13,-1.10,-0.18,-0.04,0.03,-0.01,
4.852,-0.13,-1.10,-0.18,-0.05,0.03,-0.01,
4.854,-0.13,-1.10,-0.18,-0.05,0.04,-0.01,
4.856,-0.13,-1.10,-0.18,-0.05,0.04,-0.01,
4.858,-0.13,-1.10,-0.18,-0.05,0.04,-0.01,
4.86,-0.13,-1.10,-0.18,-0.06,0.04,-0.01,
4.862,-0.13,-1.04,0.08,-0.06,0.04,-0.01,
4.862,-0.13,-1.04,0.08,-0.07,0.04,-0.01,
4.863,-0.13,-1.04,0.08,-0.07,0.04,-0.01,
4.872,-0.13,-1.04,0.08,-0.09,0.03,-0.00,
4.873,-0.13,-1.04,0.08,-0.10,0.03,-0.00,
4.874,-0.13,-1.04,0.08,-0.11,0.03,-0.00,
4.874,-0.16,-1.13,-0.24,-0.11,0.03,-0.00,
4.874,-0.16,-1.13,-0.24,-0.12,0.03,-0.00,
4.91,-0.16,-1.13,-0.24,-0.13,0.03,-0.00,
4.911,-0.16,-1.13,-0.24,-0.14,0.01,0.00,
4.911,-0.16,-1.13,-0.24,-0.15,0.01,-0.00,
4.912,-0.16,-1.13,-0.24,-0.16,-0.00,0.00,
4.912,-0.02,-1.17,-0.23,-0.16,-0.00,0.00,
4.913,-0.02,-1.17,-0.23,-0.18,-0.01,-0.00,
4.913,-0.02,-1.17,-0.23,-0.20,-0.03,0.00,
4.913,-0.02,-1.17,-0.23,-0.23,-0.04,0.00,
4.914,-0.02,-1.17,-0.23,-0.24,-0.04,0.00,
4.914,-0.02,-1.17,-0.23,-0.27,-0.04,0.00,
4.915,-0.03,-1.30,-0.42,-0.27,-0.04,0.00,
4.915,-0.03,-1.30,-0.42,-0.29,-0.04,0.00,
4.916,-0.03,-1.30,-0.42,-0.30,-0.04,0.00,
4.916,-0.03,-1.30,-0.42,-0.31,-0.05,0.00,
4.916,-0.03,-1.30,-0.42,-0.32,-0.05,0.00,
4.917,-0.03,-1.30,-0.42,-0.32,-0.06,0.00,
4.917,-0.01,-1.00,-0.09,-0.32,-0.06,0.00,
4.918,-0.01,-1.00,-0.09,-0.32,-0.06,0.00,
4.918,-0.01,-1.00,-0.09,-0.32,-0.04,0.01,
4.918,-0.01,-1.00,-0.09,-0.32,-0.04,0.00,
4.919,-0.01,-1.00,-0.09,-0.31,-0.04,0.00,
4.919,-0.01,-1.00,-0.09,-0.31,-0.05,0.00,
4.92,-0.01,-0.91,0.42,-0.31,-0.05,0.00,
4.92,-0.01,-0.91,0.42,-0.30,-0.06,0.00,
4.921,-0.01,-0.91,0.42,-0.31,-0.06,0.00,
4.921,-0.01,-0.91,0.42,-0.32,-0.07,0.01,
4.921,-0.01,-0.91,0.42,-0.32,-0.07,0.01,
4.922,-0.01,-0.91,0.42,-0.33,-0.07,0.01,
4.922,0.04,-1.05,0.55,-0.33,-0.07,0.01,
4.923,0.04,-1.05,0.55,-0.34,-0.08,0.00,
4.923,0.04,-1.05,0.55,-0.35,-0.08,0.00,
4.926,0.04,-1.05,0.55,-0.38,-0.07,0.01,
4.927,0.04,-1.05,0.55,-0.39,-0.07,0.01,
4.929,0.04,-1.05,0.55,-0.40,-0.06,0.02,
4.931,-0.21,-1.04,-0.11,-0.40,-0.06,0.02,
4.932,-0.21,-1.04,-0.11,-0.40,-0.05,0.02,
4.934,-0.21,-1.04,-0.11,-0.39,-0.04,0.02,
4.936,-0.21,-1.04,-0.11,-0.38,-0.01,0.02,
4.937,-0.21,-1.04,-0.11,-0.38,-0.01,0.02,
4.94,-0.21,-1.04,-0.11,-0.37,0.01,0.03,
4.941,-0.23,-0.87,0.30,-0.37,0.01,0.03,
4.942,-0.23,-0.87,0.30,-0.36,0.03,0.02,
4.943,-0.23,-0.87,0.30,-0.35,0.04,0.02,
