
time,ax,ay,az,wx,wy,wz,
0.003,0.36,-0.43,-1.53,0.24,0.03,0.02,
0.003,0.36,-0.43,-1.53,0.19,0.01,0.02,
0.004,0.36,-0.43,-1.53,0.14,-0.02,0.02,
0.004,0.36,-0.43,-1.53,0.09,-0.05,0.02,
0.004,0.36,-0.43,-1.53,0.04,-0.09,0.02,
0.004,0.36,-0.43,-1.53,-0.01,-0.12,0.02,
0.005,0.60,-0.55,-1.94,-0.01,-0.12,0.02,
0.005,0.60,-0.55,-1.94,-0.06,-0.14,0.02,
0.007,0.60,-0.55,-1.94,-0.11,-0.17,0.02,
0.01,0.60,-0.55,-1.94,-0.16,-0.19,0.02,
0.015,0.60,-0.55,-1.94,-0.21,-0.21,0.01,
0.016,0.60,-0.55,-1.94,-0.25,-0.22,0.01,
0.016,0.65,-0.45,-1.63,-0.25,-0.22,0.01,
0.017,0.65,-0.45,-1.63,-0.29,-0.24,0.00,
0.017,0.65,-0.45,-1.63,-0.32,-0.25,0.00,
0.018,0.65,-0.45,-1.63,-0.34,-0.26,-0.00,
0.02,0.65,-0.45,-1.63,-0.37,-0.27,-0.01,
0.023,0.65,-0.45,-1.63,-0.38,-0.28,-0.01,
0.025,0.37,-0.22,-0.56,-0.38,-0.28,-0.01,
0.025,0.37,-0.22,-0.56,-0.39,-0.29,-0.01,
0.028,0.37,-0.22,-0.56,-0.39,-0.29,-0.01,
0.028,0.37,-0.22,-0.56,-0.38,-0.30,-0.01,
0.03,0.37,-0.22,-0.56,-0.37,-0.30,-0.01,
0.033,0.37,-0.22,-0.56,-0.36,-0.31,-0.01,
0.035,-0.03,0.02,0.58,-0.36,-0.31,-0.01,
0.035,-0.03,0.02,0.58,-0.34,-0.31,-0.01,
0.037,-0.03,0.02,0.58,-0.32,-0.32,-0.00,
0.039,-0.03,0.02,0.58,-0.29,-0.32,-0.00,
0.04,-0.03,0.02,0.58,-0.26,-0.33,0.00,
0.042,-0.03,0.02,0.58,-0.23,-0.33,0.00,
0.046,-0.29,0.21,1.20,-0.23,-0.33,0.00,
0.047,-0.29,0.21,1.20,-0.20,-0.33,0.01,
0.047,-0.29,0.21,1.20,-0.17,-0.33,0.01,
0.049,-0.29,0.21,1.20,-0.14,-0.32,0.01,
0.051,-0.29,0.21,1.20,-0.11,-0.32,0.01,
0.052,-0.29,0.21,1.20,-0.08,-0.31,0.01,
0.055,-0.32,0.25,1.21,-0.08,-0.31,0.01,
0.056,-0.32,0.25,1.21,-0.05,-0.30,0.01,
0.057,-0.32,0.25,1.21,-0.02,-0.29,0.01,
0.059,-0.32,0.25,1.21,-0.00,-0.28,0.01,
0.062,-0.32,0.25,1.21,0.02,-0.27,0.01,
0.063,-0.32,0.25,1.21,0.04,-0.25,0.01,
0.067,-0.22,0.17,0.80,0.04,-0.25,0.01,
0.068,-0.22,0.17,0.80,0.06,-0.24,0.01,
0.068,-0.22,0.17,0.80,0.07,-0.23,0.01,
0.068,-0.22,0.17,0.80,0.08,-0.22,0.01,
0.07,-0.22,0.17,0.80,0.09,-0.21,0.01,
0.073,-0.22,0.17,0.80,0.10,-0.20,0.01,
0.075,-0.13,0.08,0.32,0.10,-0.20,0.01,
0.077,-0.13,0.08,0.32,0.11,-0.19,0.01,
0.081,-0.13,0.08,0.32,0.11,-0.17,0.01,
0.083,-0.13,0.08,0.32,0.11,-0.16,0.00,
0.083,-0.13,0.08,0.32,0.12,-0.15,0.01,
0.084,-0.13,0.08,0.32,0.12,-0.14,0.00,
0.085,0.05,0.04,-0.08,0.12,-0.14,0.00,
0.085,0.05,0.04,-0.08,0.11,-0.12,0.00,
0.086,0.05,0.04,-0.08,0.11,-0.11,0.00,
0.09,0.05,0.04,-0.08,0.11,-0.10,0.00,
0.091,0.05,0.04,-0.08,0.11,-0.08,0.00,
0.092,0.05,0.04,-0.08,0.10,-0.07,0.00,
0.11,0.22,0.02,-0.34,0.10,-0.07,0.00,
0.111,0.22,0.02,-0.34,0.10,-0.06,-0.00,
0.111,0.22,0.02,-0.34,0.09,-0.05,-0.00,
0.111,0.22,0.02,-0.34,0.09,-0.04,-0.00,
0.112,0.22,0.02,-0.34,0.08,-0.03,-0.01,
0.112,0.22,0.02,-0.34,0.08,-0.02,-0.01,
0.112,0.34,-0.03,-0.52,0.08,-0.02,-0.01,
0.113,0.34,-0.03,-0.52,0.07,-0.01,-0.01,
0.113,0.34,-0.03,-0.52,0.06,-0.01,-0.01,
0.113,0.34,-0.03,-0.52,0.05,-0.00,-0.02,
0.114,0.34,-0.03,-0.52,0.04,0.00,-0.02,
0.114,0.34,-0.03,-0.52,0.03,0.01,-0.02,
0.133,0.36,-0.12,-0.73,0.03,0.01,-0.02,
0.135,0.36,-0.12,-0.73,0.02,0.01,-0.03,
0.135,0.36,-0.12,-0.73,0.01,0.01,-0.03,
0.136,0.36,-0.12,-0.73,0.00,0.01,-0.03,
0.137,0.36,-0.12,-0.73,-0.01,0.01,-0.03,
0.137,0.36,-0.12,-0.73,-0.02,0.00,-0.04,
0.138,0.31,-0.14,-0.78,-0.02,0.00,-0.04,
0.138,0.31,-0.14,-0.78,-0.03,0.00,-0.04,
0.138,0.31,-0.14,-0.78,-0.04,-0.00,-0.04,
0.139,0.31,-0.14,-0.78,-0.05,-0.01,-0.04,
0.139,0.31,-0.14,-0.78,-0.06,-0.01,-0.04,
0.162,0.31,-0.14,-0.78,-0.07,-0.02,-0.04,
0.163,0.19,-0.14,-0.67,-0.07,-0.02,-0.04,
0.163,0.19,-0.14,-0.67,-0.07,-0.02,-0.04,
0.164,0.19,-0.14,-0.67,-0.08,-0.03,-0.04,
0.164,0.19,-0.14,-0.67,-0.09,-0.03,-0.04,
0.164,0.19,-0.14,-0.67,-0.09,-0.04,-0.04,
0.165,0.19,-0.14,-0.67,-0.10,-0.04,-0.03,
0.165,0.13,-0.13,-0.47,-0.10,-0.04,-0.03,
0.166,0.13,-0.13,-0.47,-0.10,-0.05,-0.03,
0.166,0.13,-0.13,-0.47,-0.10,-0.05,-0.03,
0.167,0.13,-0.13,-0.47,-0.11,-0.05,-0.03,
0.167,0.13,-0.13,-0.47,-0.11,-0.05,-0.03,
0.167,0.13,-0.13,-0.47,-0.11,-0.06,-0.03,
0.168,0.09,-0.12,-0.27,-0.11,-0.06,-0.03,
0.168,0.09,-0.12,-0.27,-0.11,-0.06,-0.03,
0.169,0.09,-0.12,-0.27,-0.11,-0.06,-0.03,
0.169,0.09,-0.12,-0.27,-0.11,-0.06,-0.03,
0.17,0.09,-0.12,-0.27,-0.11,-0.07,-0.03,
0.17,0.09,-0.12,-0.27,-0.11,-0.07,-0.03,
0.17,0.00,-0.10,-0.09,-0.11,-0.07,-0.03,
0.171,0.00,-0.10,-0.09,-0.11,-0.07,-0.04,
0.171,0.00,-0.10,-0.09,-0.10,-0.07,-0.04,
0.172,0.00,-0.10,-0.09,-0.10,-0.07,-0.04,
0.172,0.00,-0.10,-0.09,-0.09,-0.07,-0.04,
0.173,0.00,-0.10,-0.09,-0.09,-0.07,-0.04,
0.176,-0.07,-0.04,0.08,-0.09,-0.07,-0.04,
0.177,-0.07,-0.04,0.08,-0.09,-0.06,-0.04,
0.177,-0.07,-0.04,0.08,-0.08,-0.06,-0.04,
0.179,-0.07,-0.04,0.08,-0.08,-0.06,-0.04,
0.182,-0.07,-0.04,0.08,-0.07,-0.05,-0.04,
0.183,-0.07,-0.04,0.08,-0.07,-0.04,-0.04,
0.185,-0.10,-0.03,0.18,-0.07,-0.04,-0.04,
0.185,-0.10,-0.03,0.18,-0.06,-0.04,-0.04,
0.186,-0.10,-0.03,0.18,-0.05,-0.03,-0.04,
0.188,-0.10,-0.03,0.18,-0.05,-0.03,-0.04,
0.19,-0.10,-0.03,0.18,-0.04,-0.02,-0.04,
0.194,-0.10,-0.03,0.18,-0.04,-0.02,-0.04,
0.195,-0.10,-0.03,0.21,-0.04,-0.02,-0.04,
0.196,-0.10,-0.03,0.21,-0.04,-0.01,-0.04,
0.197,-0.10,-0.03,0.21,-0.03,-0.01,-0.04,
0.198,-0.10,-0.03,0.21,-0.03,-0.01,-0.04,
0.2,-0.10,-0.03,0.21,-0.03,-0.02,-0.04,
0.202,-0.10,-0.03,0.21,-0.02,-0.02,-0.04,
0.205,-0.05,-0.09,0.20,-0.02,-0.02,-0.04,
0.206,-0.05,-0.09,0.20,-0.02,-0.02,-0.04,
0.207,-0.05,-0.09,0.20,-0.02,-0.02,-0.05,
0.209,-0.05,-0.09,0.20,-0.02,-0.02,-0.05,
0.211,-0.05,-0.09,0.20,-0.02,-0.03,-0.05,
0.213,-0.05,-0.09,0.20,-0.02,-0.03,-0.05,
0.215,-0.00,-0.13,0.16,-0.02,-0.03,-0.05,
0.216,-0.00,-0.13,0.16,-0.03,-0.03,-0.05,
0.217,-0.00,-0.13,0.16,-0.03,-0.03,-0.05,
0.219,-0.00,-0.13,0.16,-0.02,-0.03,-0.05,
0.221,-0.00,-0.13,0.16,-0.02,-0.03,-0.05,
0.222,-0.00,-0.13,0.16,-0.02,-0.03,-0.05,
0.227,-0.05,-0.13,0.15,-0.02,-0.03,-0.05,
0.228,-0.05,-0.13,0.15,-0.02,-0.03,-0.05,
0.229,-0.05,-0.13,0.15,-0.02,-0.03,-0.05,
0.229,-0.05,-0.13,0.15,-0.02,-0.02,-0.04,
0.232,-0.05,-0.13,0.15,-0.02,-0.02,-0.04,
0.233,-0.05,-0.13,0.15,-0.02,-0.02,-0.04,
0.235,-0.10,-0.11,0.18,-0.02,-0.02,-0.04,
0.236,-0.10,-0.11,0.18,-0.02,-0.02,-0.04,
0.238,-0.10,-0.11,0.18,-0.02,-0.02,-0.04,
0.239,-0.10,-0.11,0.18,-0.02,-0.02,-0.03,
0.241,-0.10,-0.11,0.18,-0.02,-0.02,-0.03,
0.257,-0.10,-0.11,0.18,-0.01,-0.02,-0.03,
0.259,-0.18,-0.12,0.25,-0.01,-0.02,-0.03,
0.262,-0.18,-0.12,0.25,-0.01,-0.02,-0.03,
0.263,-0.18,-0.12,0.25,-0.01,-0.02,-0.02,
0.264,-0.18,-0.12,0.25,-0.00,-0.01,-0.02,
0.266,-0.18,-0.12,0.25,-0.00,-0.01,-0.02,
0.267,-0.18,-0.12,0.25,0.01,-0.01,-0.02,
0.268,-0.21,-0.08,0.28,0.01,-0.01,-0.02,
0.269,-0.21,-0.08,0.28,0.01,-0.01,-0.01,
0.269,-0.21,-0.08,0.28,0.01,-0.01,-0.01,
0.27,-0.21,-0.08,0.28,0.02,-0.01,-0.01,
0.271,-0.21,-0.08,0.28,0.02,-0.01,-0.01,
0.272,-0.21,-0.08,0.28,0.03,-0.01,-0.01,
0.273,-0.23,-0.09,0.30,0.03,-0.01,-0.01,
0.273,-0.23,-0.09,0.30,0.04,-0.01,-0.01,
0.274,-0.23,-0.09,0.30,0.04,-0.01,-0.01,
0.275,-0.23,-0.09,0.30,0.05,-0.00,-0.01,
0.276,-0.23,-0.09,0.30,0.05,-0.00,-0.00,
0.277,-0.23,-0.09,0.30,0.06,-0.01,-0.01,
0.277,-0.32,-0.07,0.32,0.06,-0.01,-0.01,
0.278,-0.32,-0.07,0.32,0.06,-0.00,-0.00,
0.279,-0.32,-0.07,0.32,0.06,0.00,-0.00,
0.279,-0.32,-0.07,0.32,0.07,0.00,-0.00,
0.282,-0.32,-0.07,0.32,0.07,0.01,0.00,
0.293,-0.32,-0.07,0.32,0.08,0.01,0.00,
0.299,-0.40,-0.00,0.24,0.08,0.01,0.00,
0.3,-0.40,-0.00,0.24,0.08,0.01,0.00,
0.3,-0.40,-0.00,0.24,0.08,0.01,0.01,
0.301,-0.40,-0.00,0.24,0.08,0.02,0.01,
0.302,-0.40,-0.00,0.24,0.09,0.02,0.01,
0.302,-0.40,-0.00,0.24,0.09,0.03,0.01,
0.303,-0.43,0.05,0.22,0.09,0.03,0.01,
0.304,-0.43,0.05,0.22,0.09,0.03,0.01,
0.304,-0.43,0.05,0.22,0.09,0.03,0.01,
0.333,-0.43,0.05,0.22,0.09,0.03,0.01,
0.333,-0.43,0.05,0.22,0.10,0.04,0.01,
0.333,-0.43,0.05,0.22,0.10,0.04,0.02,
0.334,-0.57,0.09,0.24,0.10,0.04,0.02,
0.334,-0.57,0.09,0.24,0.10,0.04,0.02,
0.334,-0.57,0.09,0.24,0.11,0.04,0.02,
0.334,-0.57,0.09,0.24,0.11,0.04,0.03,
0.335,-0.57,0.09,0.24,0.11,0.03,0.03,
0.335,-0.57,0.09,0.24,0.12,0.03,0.04,
0.335,-0.62,0.13,0.29,0.12,0.03,0.04,
0.335,-0.62,0.13,0.29,0.12,0.03,0.04,
0.336,-0.62,0.13,0.29,0.13,0.02,0.04,
0.336,-0.62,0.13,0.29,0.13,0.02,0.05,
0.336,-0.62,0.13,0.29,0.13,0.01,0.05,
0.337,-0.62,0.13,0.29,0.14,0.01,0.06,
0.337,-0.70,0.16,0.33,0.14,0.01,0.06,
0.337,-0.70,0.16,0.33,0.14,0.00,0.06,
0.337,-0.70,0.16,0.33,0.15,-0.00,0.07,
0.338,-0.70,0.16,0.33,0.15,-0.01,0.07,
0.338,-0.70,0.16,0.33,0.16,-0.02,0.07,
0.338,-0.70,0.16,0.33,0.16,-0.03,0.08,
0.338,-0.65,0.11,0.35,0.16,-0.03,0.08,
0.339,-0.65,0.11,0.35,0.17,-0.03,0.08,
0.339,-0.65,0.11,0.35,0.17,-0.04,0.09,
0.339,-0.65,0.11,0.35,0.18,-0.05,0.09,
0.342,-0.65,0.11,0.35,0.18,-0.05,0.09,
0.343,-0.65,0.11,0.35,0.19,-0.05,0.10,
0.353,-0.45,0.05,0.35,0.19,-0.05,0.10,
0.353,-0.45,0.05,0.35,0.19,-0.06,0.10,
0.354,-0.45,0.05,0.35,0.19,-0.06,0.10,
0.354,-0.45,0.05,0.35,0.19,-0.06,0.10,
0.354,-0.45,0.05,0.35,0.19,-0.06,0.10,
0.354,-0.45,0.05,0.35,0.19,-0.06,0.10,
0.355,-0.17,-0.04,0.22,0.19,-0.06,0.10,
0.355,-0.17,-0.04,0.22,0.20,-0.05,0.10,
0.356,-0.17,-0.04,0.22,0.19,-0.05,0.10,
0.372,-0.17,-0.04,0.22,0.19,-0.04,0.09,
0.373,-0.17,-0.04,0.22,0.19,-0.03,0.09,
0.373,-0.17,-0.04,0.22,0.18,-0.02,0.08,
0.373,0.01,-0.17,-0.00,0.18,-0.02,0.08,
0.373,0.01,-0.17,-0.00,0.18,-0.01,0.08,
0.374,0.01,-0.17,-0.00,0.17,-0.01,0.08,
0.374,0.01,-0.17,-0.00,0.17,-0.01,0.07,
0.374,0.01,-0.17,-0.00,0.16,-0.00,0.07,
0.374,0.01,-0.17,-0.00,0.15,0.00,0.06,
0.375,0.07,-0.26,-0.17,0.15,0.00,0.06,
0.375,0.07,-0.26,-0.17,0.14,0.00,0.06,
0.377,0.07,-0.26,-0.17,0.13,0.00,0.06,
0.378,0.07,-0.26,-0.17,0.13,0.00,0.05,
0.381,0.07,-0.26,-0.17,0.12,0.00,0.05,
0.383,0.07,-0.26,-0.17,0.11,-0.01,0.05,
0.386,-0.23,-0.06,-0.22,0.11,-0.01,0.05,
0.386,-0.23,-0.06,-0.22,0.09,-0.05,0.08,
0.387,-0.23,-0.06,-0.22,0.00,-0.23,0.20,
0.389,-0.23,-0.06,-0.22,-0.02,-0.28,0.24,
0.39,-0.23,-0.06,-0.22,-0.05,-0.36,0.29,
0.395,-0.23,-0.06,-0.22,-0.08,-0.42,0.32,
0.395,-1.66,0.74,-0.28,-0.08,-0.42,0.32,
0.395,-1.66,0.74,-0.28,-0.10,-0.46,0.35,
0.396,-1.66,0.74,-0.28,-0.12,-0.50,0.39,
0.398,-1.66,0.74,-0.28,-0.14,-0.53,0.42,
0.4,-1.66,0.74,-0.28,-0.16,-0.55,0.45,
0.402,-1.66,0.74,-0.28,-0.18,-0.56,0.47,
0.405,-1.55,0.44,-0.21,-0.18,-0.56,0.47,
0.405,-1.55,0.44,-0.21,-0.19,-0.56,0.49,
0.406,-1.55,0.44,-0.21,-0.21,-0.56,0.50,
0.409,-1.55,0.44,-0.21,-0.23,-0.55,0.51,
0.412,-1.55,0.44,-0.21,-0.24,-0.55,0.50,
0.412,-1.55,0.44,-0.21,-0.26,-0.55,0.50,
0.415,-0.69,0.10,-0.36,-0.26,-0.55,0.50,
0.415,-0.69,0.10,-0.36,-0.27,-0.54,0.50,
0.416,-0.69,0.10,-0.36,-0.28,-0.54,0.49,
0.418,-0.69,0.10,-0.36,-0.28,-0.54,0.48,
0.42,-0.69,0.10,-0.36,-0.29,-0.54,0.48,
0.422,-0.69,0.10,-0.36,-0.29,-0.54,0.47,
0.428,-0.15,-0.09,-0.17,-0.29,-0.54,0.47,
0.428,-0.15,-0.09,-0.17,-0.29,-0.54,0.47,
0.428,-0.15,-0.09,-0.17,-0.28,-0.55,0.46,
0.429,-0.15,-0.09,-0.17,-0.28,-0.55,0.45,
0.43,-0.15,-0.09,-0.17,-0.28,-0.54,0.45,
0.432,-0.15,-0.09,-0.17,-0.27,-0.52,0.44,
0.435,0.21,-0.21,0.01,-0.27,-0.52,0.44,
0.435,0.21,-0.21,0.01,-0.26,-0.50,0.43,
0.436,0.21,-0.21,0.01,-0.25,-0.48,0.42,
0.438,0.21,-0.21,0.01,-0.24,-0.45,0.41,
0.44,0.21,-0.21,0.01,-0.22,-0.43,0.40,
0.443,0.21,-0.21,0.01,-0.21,-0.41,0.39,
0.445,0.40,-0.12,0.10,-0.21,-0.41,0.39,
0.445,0.40,-0.12,0.10,-0.20,-0.38,0.38,
0.446,0.40,-0.12,0.10,-0.19,-0.36,0.37,
0.448,0.40,-0.12,0.10,-0.18,-0.34,0.36,
0.45,0.40,-0.12,0.10,-0.18,-0.32,0.34,
0.455,0.40,-0.12,0.10,-0.17,-0.30,0.33,
0.456,0.67,-0.16,-0.14,-0.17,-0.30,0.33,
0.457,0.67,-0.16,-0.14,-0.17,-0.29,0.32,
0.457,0.67,-0.16,-0.14,-0.17,-0.26,0.31,
0.46,0.67,-0.16,-0.14,-0.16,-0.24,0.30,
0.461,0.67,-0.16,-0.14,-0.16,-0.22,0.29,
0.462,0.67,-0.16,-0.14,-0.16,-0.20,0.28,
0.465,0.75,-0.33,-0.39,-0.16,-0.20,0.28,
0.494,0.75,-0.33,-0.39,-0.16,-0.19,0.27,
0.494,0.75,-0.33,-0.39,-0.16,-0.17,0.25,
0.495,0.75,-0.33,-0.39,-0.16,-0.15,0.24,
0.495,0.75,-0.33,-0.39,-0.16,-0.13,0.23,
0.496,0.75,-0.33,-0.39,-0.16,-0.12,0.22,
0.496,0.74,-0.44,-0.55,-0.16,-0.12,0.22,
0.496,0.74,-0.44,-0.55,-0.16,-0.09,0.20,
0.497,0.74,-0.44,-0.55,-0.16,-0.09,0.20,
0.497,0.74,-0.44,-0.55,-0.17,-0.07,0.18,
0.498,0.74,-0.44,-0.55,-0.17,-0.06,0.17,
0.498,0.74,-0.44,-0.55,-0.17,-0.05,0.16,
0.499,0.72,-0.44,-0.67,-0.17,-0.05,0.16,
0.499,0.72,-0.44,-0.67,-0.17,-0.02,0.15,
0.5,0.72,-0.44,-0.67,-0.17,-0.01,0.15,
0.5,0.72,-0.44,-0.67,-0.17,0.01,0.14,
0.5,0.72,-0.44,-0.67,-0.17,0.03,0.13,
0.501,0.72,-0.44,-0.67,-0.17,0.05,0.13,
0.501,0.55,-0.40,-0.63,-0.17,0.05,0.13,
0.502,0.55,-0.40,-0.63,-0.16,0.08,0.12,
0.502,0.55,-0.40,-0.63,-0.16,0.09,0.12,
0.503,0.55,-0.40,-0.63,-0.15,0.12,0.11,
0.503,0.55,-0.40,-0.63,-0.15,0.14,0.11,
0.503,0.55,-0.40,-0.63,-0.14,0.16,0.11,
0.506,0.35,-0.31,-0.58,-0.14,0.16,0.11,
0.507,0.35,-0.31,-0.58,-0.13,0.20,0.11,
0.507,0.35,-0.31,-0.58,-0.12,0.21,0.11,
0.518,0.35,-0.31,-0.58,-0.11,0.26,0.12,
0.519,0.35,-0.31,-0.58,-0.11,0.27,0.12,
0.519,0.35,-0.31,-0.58,-0.10,0.30,0.13,
0.52,0.04,-0.11,-0.52,-0.10,0.30,0.13,
0.521,0.04,-0.11,-0.52,-0.09,0.35,0.14,
0.521,0.04,-0.11,-0.52,-0.09,0.36,0.15,
0.522,0.04,-0.11,-0.52,-0.08,0.40,0.17,
0.522,0.04,-0.11,-0.52,-0.08,0.41,0.18,
0.522,0.04,-0.11,-0.52,-0.07,0.44,0.19,
0.536,-0.21,0.06,-0.47,-0.07,0.44,0.19,
0.537,-0.21,0.06,-0.47,-0.06,0.47,0.21,
0.537,-0.21,0.06,-0.47,-0.06,0.47,0.22,
0.537,-0.21,0.06,-0.47,-0.06,0.49,0.23,
0.538,-0.21,0.06,-0.47,-0.06,0.50,0.24,
0.538,-0.21,0.06,-0.47,-0.06,0.50,0.25,
0.538,-0.23,-0.02,-0.40,-0.06,0.50,0.25,
0.539,-0.23,-0.02,-0.40,-0.06,0.50,0.26,
0.539,-0.23,-0.02,-0.40,-0.07,0.50,0.27,
0.54,-0.23,-0.02,-0.40,-0.07,0.49,0.28,
0.562,-0.23,-0.02,-0.40,-0.08,0.49,0.28,
0.563,-0.23,-0.02,-0.40,-0.10,0.48,0.28,
0.563,-0.06,-0.16,-0.55,-0.10,0.48,0.28,
0.563,-0.06,-0.16,-0.55,-0.11,0.47,0.28,
0.564,-0.06,-0.16,-0.55,-0.13,0.47,0.28,
0.564,-0.06,-0.16,-0.55,-0.15,0.46,0.27,
0.564,-0.06,-0.16,-0.55,-0.17,0.45,0.27,
0.565,-0.06,-0.16,-0.55,-0.19,0.45,0.26,
0.565,0.20,-0.28,-0.97,-0.19,0.45,0.26,
0.565,0.20,-0.28,-0.97,-0.22,0.45,0.24,
0.566,0.20,-0.28,-0.97,-0.24,0.44,0.23,
0.566,0.20,-0.28,-0.97,-0.26,0.43,0.22,
0.566,0.20,-0.28,-0.97,-0.29,0.43,0.20,
0.567,0.20,-0.28,-0.97,-0.31,0.42,0.19,
0.567,0.38,-0.48,-1.36,-0.31,0.42,0.19,
0.567,0.38,-0.48,-1.36,-0.34,0.41,0.17,
0.568,0.38,-0.48,-1.36,-0.36,0.41,0.14,
0.573,0.38,-0.48,-1.36,-0.39,0.40,0.12,
0.573,0.38,-0.48,-1.36,-0.42,0.40,0.09,
0.574,0.38,-0.48,-1.36,-0.45,0.39,0.06,
0.589,0.34,-0.77,-1.70,-0.45,0.39,0.06,
0.59,0.34,-0.77,-1.70,-0.48,0.38,0.03,
0.591,0.34,-0.77,-1.70,-0.51,0.38,0.00,
0.592,0.34,-0.77,-1.70,-0.54,0.38,-0.03,
0.592,0.34,-0.77,-1.70,-0.57,0.38,-0.06,
0.592,0.34,-0.77,-1.70,-0.60,0.38,-0.09,
0.593,0.21,-0.97,-1.87,-0.60,0.38,-0.09,
0.593,0.21,-0.97,-1.87,-0.63,0.39,-0.12,
0.593,0.21,-0.97,-1.87,-0.65,0.39,-0.15,
0.594,0.21,-0.97,-1.87,-0.67,0.41,-0.17,
0.595,0.21,-0.97,-1.87,-0.70,0.42,-0.18,
0.595,0.21,-0.97,-1.87,-0.72,0.43,-0.18,
0.608,-0.20,-0.60,-1.83,-0.72,0.43,-0.18,
0.609,-0.20,-0.60,-1.83,-0.74,0.44,-0.18,
0.61,-0.20,-0.60,-1.83,-0.77,0.45,-0.17,
0.61,-0.20,-0.60,-1.83,-0.79,0.45,-0.13,
0.61,-0.20,-0.60,-1.83,-0.82,0.42,-0.07,
0.611,-0.20,-0.60,-1.83,-0.85,0.39,-0.02,
0.611,-0.58,-0.22,-1.54,-0.85,0.39,-0.02,
0.612,-0.58,-0.22,-1.54,-0.87,0.39,0.02,
0.612,-0.58,-0.22,-1.54,-0.88,0.38,0.06,
0.612,-0.58,-0.22,-1.54,-0.88,0.36,0.09,
0.613,-0.58,-0.22,-1.54,-0.87,0.32,0.13,
0.613,-0.58,-0.22,-1.54,-0.86,0.23,0.17,
0.626,0.46,0.50,-0.22,-0.86,0.23,0.17,
0.627,0.46,0.50,-0.22,-0.83,0.15,0.19,
0.627,0.46,0.50,-0.22,-0.79,0.10,0.22,
0.628,0.46,0.50,-0.22,-0.76,0.06,0.23,
0.628,0.46,0.50,-0.22,-0.72,0.04,0.25,
0.629,0.46,0.50,-0.22,-0.67,0.05,0.26,
0.629,0.54,0.13,1.08,-0.67,0.05,0.26,
0.629,0.54,0.13,1.08,-0.63,0.07,0.27,
0.63,0.54,0.13,1.08,-0.59,0.10,0.27,
0.63,0.54,0.13,1.08,-0.55,0.14,0.27,
0.639,0.54,0.13,1.08,-0.51,0.20,0.27,
0.682,0.54,0.13,1.08,-0.48,0.25,0.27,
0.683,0.66,-0.49,1.07,-0.48,0.25,0.27,
0.684,0.66,-0.49,1.07,-0.45,0.31,0.26,
0.685,0.66,-0.49,1.07,-0.42,0.37,0.25,
0.686,0.66,-0.49,1.07,-0.40,0.43,0.23,
0.687,0.66,-0.49,1.07,-0.39,0.49,0.22,
0.687,0.66,-0.49,1.07,-0.38,0.55,0.20,
0.688,0.95,-0.55,0.32,-0.38,0.55,0.20,
0.689,0.95,-0.55,0.32,-0.38,0.60,0.18,
0.691,0.95,-0.55,0.32,-0.39,0.65,0.17,
0.692,0.95,-0.55,0.32,-0.40,0.69,0.15,
0.693,0.95,-0.55,0.32,-0.42,0.72,0.14,
0.694,0.95,-0.55,0.32,-0.44,0.73,0.12,
0.694,0.81,-0.21,-0.70,-0.44,0.73,0.12,
0.696,0.81,-0.21,-0.70,-0.46,0.71,0.09,
0.697,0.81,-0.21,-0.70,-0.50,0.67,0.04,
0.697,0.81,-0.21,-0.70,-0.53,0.64,0.00,
0.698,0.81,-0.21,-0.70,-0.55,0.64,-0.03,
0.699,0.81,-0.21,-0.70,-0.57,0.65,-0.05,
0.699,1.16,0.17,-1.27,-0.57,0.65,-0.05,
0.7,1.16,0.17,-1.27,-0.58,0.65,-0.07,
0.701,1.16,0.17,-1.27,-0.60,0.64,-0.08,
0.701,1.16,0.17,-1.27,-0.61,0.62,-0.10,
0.702,1.16,0.17,-1.27,-0.62,0.60,-0.12,
0.703,1.16,0.17,-1.27,-0.62,0.57,-0.13,
0.703,0.51,-0.30,-0.75,-0.62,0.57,-0.13,
0.704,0.51,-0.30,-0.75,-0.63,0.55,-0.14,
0.705,0.51,-0.30,-0.75,-0.64,0.52,-0.16,
0.706,0.51,-0.30,-0.75,-0.65,0.50,-0.16,
0.707,0.51,-0.30,-0.75,-0.67,0.47,-0.17,
0.708,0.51,-0.30,-0.75,-0.68,0.45,-0.18,
0.709,0.09,-0.72,-0.33,-0.68,0.45,-0.18,
0.71,0.09,-0.72,-0.33,-0.69,0.43,-0.18,
0.71,0.09,-0.72,-0.33,-0.70,0.41,-0.18,
0.711,0.09,-0.72,-0.33,-0.71,0.40,-0.18,
0.712,0.09,-0.72,-0.33,-0.72,0.39,-0.18,
0.712,0.09,-0.72,-0.33,-0.73,0.39,-0.18,
0.713,-0.25,-0.78,-0.01,-0.73,0.39,-0.18,
0.713,-0.25,-0.78,-0.01,-0.73,0.40,-0.18,
0.714,-0.25,-0.78,-0.01,-0.74,0.40,-0.17,
0.715,-0.25,-0.78,-0.01,-0.73,0.42,-0.16,
0.716,-0.25,-0.78,-0.01,-0.72,0.43,-0.14,
0.717,-0.25,-0.78,-0.01,-0.70,0.45,-0.13,
0.718,-1.12,-0.41,0.61,-0.70,0.45,-0.13,
0.718,-1.12,-0.41,0.61,-0.69,0.48,-0.11,
0.719,-1.12,-0.41,0.61,-0.68,0.50,-0.10,
0.722,-1.12,-0.41,0.61,-0.66,0.52,-0.08,
0.724,-1.12,-0.41,0.61,-0.64,0.55,-0.06,
0.726,-1.12,-0.41,0.61,-0.62,0.56,-0.04,
0.727,-1.87,-0.01,0.81,-0.62,0.56,-0.04,
0.728,-1.87,-0.01,0.81,-0.60,0.57,-0.02,
0.728,-1.87,-0.01,0.81,-0.59,0.57,0.01,
0.729,-1.87,-0.01,0.81,-0.57,0.56,0.04,
0.73,-1.87,-0.01,0.81,-0.56,0.55,0.07,
0.73,-1.87,-0.01,0.81,-0.54,0.53,0.11,
0.731,-2.25,-0.03,0.48,-0.54,0.53,0.11,
0.731,-2.25,-0.03,0.48,-0.53,0.50,0.14,
0.732,-2.25,-0.03,0.48,-0.51,0.48,0.17,
0.732,-2.25,-0.03,0.48,-0.49,0.45,0.20,
0.733,-2.25,-0.03,0.48,-0.48,0.43,0.24,
0.733,-2.25,-0.03,0.48,-0.46,0.40,0.27,
0.744,-1.98,-0.33,0.06,-0.46,0.40,0.27,
0.746,-1.98,-0.33,0.06,-0.44,0.37,0.29,
0.747,-1.98,-0.33,0.06,-0.42,0.34,0.32,
0.747,-1.98,-0.33,0.06,-0.41,0.30,0.34,
0.747,-1.98,-0.33,0.06,-0.39,0.25,0.35,
0.748,-1.98,-0.33,0.06,-0.38,0.20,0.37,
0.749,-1.28,-0.72,-0.20,-0.38,0.20,0.37,
0.749,-1.28,-0.72,-0.20,-0.36,0.14,0.39,
0.749,-1.28,-0.72,-0.20,-0.35,0.07,0.41,
0.75,-1.28,-0.72,-0.20,-0.33,0.01,0.43,
0.752,-1.28,-0.72,-0.20,-0.32,-0.06,0.44,
0.753,-1.28,-0.72,-0.20,-0.30,-0.13,0.46,
0.755,-0.68,-0.76,-0.27,-0.30,-0.13,0.46,
0.756,-0.68,-0.76,-0.27,-0.29,-0.20,0.47,
0.767,-0.68,-0.76,-0.27,-0.28,-0.26,0.49,
0.768,-0.68,-0.76,-0.27,-0.26,-0.32,0.49,
0.768,-0.68,-0.76,-0.27,-0.25,-0.36,0.50,
0.768,-0.68,-0.76,-0.27,-0.24,-0.38,0.50,
0.769,-0.41,-0.40,-0.03,-0.24,-0.38,0.50,
0.769,-0.41,-0.40,-0.03,-0.24,-0.39,0.50,
0.769,-0.41,-0.40,-0.03,-0.24,-0.36,0.49,
0.77,-0.41,-0.40,-0.03,-0.26,-0.31,0.48,
0.77,-0.41,-0.40,-0.03,-0.28,-0.22,0.47,
0.772,-0.41,-0.40,-0.03,-0.31,-0.12,0.46,
0.789,-0.19,0.10,0.18,-0.31,-0.12,0.46,
0.792,-0.19,0.10,0.18,-0.35,-0.01,0.45,
0.793,-0.19,0.10,0.18,-0.39,0.11,0.44,
0.793,-0.19,0.10,0.18,-0.44,0.24,0.43,
0.794,-0.19,0.10,0.18,-0.49,0.37,0.42,
0.794,-0.19,0.10,0.18,-0.53,0.48,0.41,
0.795,-0.10,0.22,0.14,-0.53,0.48,0.41,
0.795,-0.10,0.22,0.14,-0.58,0.60,0.41,
0.796,-0.10,0.22,0.14,-0.63,0.70,0.41,
0.796,-0.10,0.22,0.14,-0.67,0.80,0.41,
0.797,-0.10,0.22,0.14,-0.70,0.89,0.40,
0.797,-0.10,0.22,0.14,-0.74,0.97,0.40,
0.798,-0.17,0.06,0.05,-0.74,0.97,0.40,
0.798,-0.17,0.06,0.05,-0.77,1.04,0.41,
0.799,-0.17,0.06,0.05,-0.79,1.10,0.41,
0.832,-0.17,0.06,0.05,-0.82,1.16,0.42,
0.832,-0.17,0.06,0.05,-0.84,1.20,0.42,
0.832,-0.17,0.06,0.05,-0.85,1.23,0.43,
0.833,-0.51,-0.16,0.04,-0.85,1.23,0.43,
0.833,-0.51,-0.16,0.04,-0.86,1.25,0.43,
0.834,-0.51,-0.16,0.04,-0.88,1.26,0.44,
0.834,-0.51,-0.16,0.04,-0.88,1.26,0.44,
0.835,-0.51,-0.16,0.04,-0.88,1.24,0.45,
0.835,-0.51,-0.16,0.04,-0.88,1.21,0.45,
0.836,-0.78,-0.32,0.20,-0.88,1.21,0.45,
0.836,-0.78,-0.32,0.20,-0.88,1.17,0.45,
0.836,-0.78,-0.32,0.20,-0.87,1.13,0.46,
0.837,-0.78,-0.32,0.20,-0.86,1.09,0.46,
0.837,-0.78,-0.32,0.20,-0.85,1.05,0.46,
0.838,-0.78,-0.32,0.20,-0.83,1.01,0.47,
0.838,-1.06,-0.33,0.33,-0.83,1.01,0.47,
0.839,-1.06,-0.33,0.33,-0.82,0.96,0.47,
0.839,-1.06,-0.33,0.33,-0.80,0.92,0.47,
0.839,-1.06,-0.33,0.33,-0.77,0.88,0.47,
0.84,-1.06,-0.33,0.33,-0.75,0.83,0.47,
0.84,-1.06,-0.33,0.33,-0.72,0.78,0.47,
0.841,-1.33,-0.24,0.57,-0.72,0.78,0.47,
0.841,-1.33,-0.24,0.57,-0.70,0.72,0.47,
0.842,-1.33,-0.24,0.57,-0.67,0.65,0.47,
0.842,-1.33,-0.24,0.57,-0.64,0.57,0.47,
0.842,-1.33,-0.24,0.57,-0.61,0.49,0.47,
0.843,-1.33,-0.24,0.57,-0.57,0.40,0.46,
0.845,-1.23,-0.26,0.44,-0.57,0.40,0.46,
0.85,-1.23,-0.26,0.44,-0.45,0.09,0.46,
0.85,-1.23,-0.26,0.44,-0.45,0.09,0.46,
0.851,-1.23,-0.26,0.44,-0.45,0.09,0.46,
0.851,-1.23,-0.26,0.44,-0.40,-0.02,0.45,
0.852,-1.23,-0.26,0.44,-0.35,-0.14,0.45,
0.855,-0.80,-0.19,0.39,-0.35,-0.14,0.45,
0.855,-0.80,-0.19,0.39,-0.29,-0.26,0.44,
0.857,-0.80,-0.19,0.39,-0.24,-0.38,0.44,
0.858,-0.80,-0.19,0.39,-0.18,-0.50,0.43,
0.862,-0.80,-0.19,0.39,-0.13,-0.62,0.42,
0.862,-0.80,-0.19,0.39,-0.08,-0.73,0.41,
0.865,-0.29,0.10,0.56,-0.08,-0.73,0.41,
0.865,-0.29,0.10,0.56,-0.03,-0.83,0.40,
0.866,-0.29,0.10,0.56,0.03,-0.92,0.38,
0.868,-0.29,0.10,0.56,0.07,-1.00,0.37,
0.87,-0.29,0.10,0.56,0.12,-1.07,0.36,
0.875,-0.29,0.10,0.56,0.16,-1.13,0.35,
0.875,0.15,0.27,0.64,0.16,-1.13,0.35,
0.875,0.15,0.27,0.64,0.20,-1.18,0.34,
0.877,0.15,0.27,0.64,0.23,-1.22,0.34,
0.878,0.15,0.27,0.64,0.25,-1.26,0.34,
0.881,0.15,0.27,0.64,0.28,-1.29,0.34,
0.882,0.15,0.27,0.64,0.29,-1.32,0.35,
0.885,0.48,0.03,0.55,0.29,-1.32,0.35,
0.885,0.48,0.03,0.55,0.29,-1.34,0.35,
0.886,0.48,0.03,0.55,0.30,-1.36,0.37,
0.888,0.48,0.03,0.55,0.30,-1.38,0.38,
0.892,0.48,0.03,0.55,0.29,-1.38,0.40,
0.893,0.48,0.03,0.55,0.29,-1.37,0.42,
0.895,0.68,0.07,0.36,0.29,-1.37,0.42,
0.896,0.68,0.07,0.36,0.28,-1.35,0.43,
0.897,0.68,0.07,0.36,0.26,-1.33,0.45,
0.898,0.68,0.07,0.36,0.24,-1.29,0.46,
0.9,0.68,0.07,0.36,0.22,-1.24,0.47,
0.902,0.68,0.07,0.36,0.20,-1.19,0.48,
0.905,1.11,0.41,0.30,0.20,-1.19,0.48,
0.905,1.11,0.41,0.30,0.17,-1.13,0.48,
0.92,1.11,0.41,0.30,0.14,-1.06,0.49,
0.921,1.11,0.41,0.30,0.11,-0.98,0.49,
0.921,1.11,0.41,0.30,0.07,-0.90,0.48,
0.922,1.11,0.41,0.30,0.03,-0.80,0.47,
0.922,1.35,0.77,0.37,0.03,-0.80,0.47,
0.923,1.35,0.77,0.37,-0.01,-0.69,0.46,
0.923,1.35,0.77,0.37,-0.04,-0.57,0.45,
0.923,1.35,0.77,0.37,-0.08,-0.44,0.43,
0.924,1.35,0.77,0.37,-0.11,-0.31,0.41,
0.939,1.35,0.77,0.37,-0.13,-0.17,0.39,
0.941,1.45,0.78,0.56,-0.13,-0.17,0.39,
0.942,1.45,0.78,0.56,-0.15,-0.03,0.36,
0.942,1.45,0.78,0.56,-0.17,0.11,0.34,
0.943,1.45,0.78,0.56,-0.19,0.24,0.31,
0.944,1.45,0.78,0.56,-0.20,0.36,0.29,
0.944,1.45,0.78,0.56,-0.20,0.47,0.27,
0.945,1.39,0.61,0.95,-0.20,0.47,0.27,
0.946,1.39,0.61,0.95,-0.21,0.57,0.24,
0.946,1.39,0.61,0.95,-0.21,0.66,0.22,
0.947,1.39,0.61,0.95,-0.21,0.73,0.21,
0.947,1.39,0.61,0.95,-0.20,0.80,0.19,
0.947,1.39,0.61,0.95,-0.20,0.85,0.18,
0.948,1.11,0.45,1.28,-0.20,0.85,0.18,
0.949,1.11,0.45,1.28,-0.19,0.90,0.18,
0.949,1.11,0.45,1.28,-0.17,0.93,0.17,
0.95,1.11,0.45,1.28,-0.16,0.95,0.17,
0.951,1.11,0.45,1.28,-0.14,0.96,0.17,
0.952,1.11,0.45,1.28,-0.12,0.96,0.18,
0.958,0.69,0.37,1.30,-0.12,0.96,0.18,
0.959,0.69,0.37,1.30,-0.10,0.96,0.18,
0.96,0.69,0.37,1.30,-0.08,0.94,0.18,
0.96,0.69,0.37,1.30,-0.06,0.91,0.19,
0.961,0.69,0.37,1.30,-0.04,0.87,0.19,
0.963,0.69,0.37,1.30,-0.02,0.83,0.20,
0.968,0.38,0.28,1.16,-0.02,0.83,0.20,
1.005,0.38,0.28,1.16,0.00,0.78,0.20,
1.006,0.38,0.28,1.16,0.03,0.73,0.20,
1.006,0.38,0.28,1.16,0.06,0.67,0.21,
1.006,0.38,0.28,1.16,0.08,0.61,0.21,
1.006,0.38,0.28,1.16,0.11,0.55,0.21,
1.007,0.16,0.26,1.05,0.11,0.55,0.21,
1.007,0.16,0.26,1.05,0.14,0.48,0.22,
1.007,0.16,0.26,1.05,0.17,0.41,0.22,
1.008,0.16,0.26,1.05,0.20,0.35,0.22,
1.008,0.16,0.26,1.05,0.23,0.29,0.22,
1.008,0.16,0.26,1.05,0.25,0.25,0.23,
1.009,-0.04,0.34,0.84,0.25,0.25,0.23,
1.009,-0.04,0.34,0.84,0.27,0.22,0.23,
1.01,-0.04,0.34,0.84,0.28,0.19,0.23,
1.01,-0.04,0.34,0.84,0.29,0.18,0.23,
1.011,-0.04,0.34,0.84,0.30,0.17,0.24,
1.011,-0.04,0.34,0.84,0.30,0.16,0.23,
1.011,0.02,0.43,0.51,0.30,0.16,0.23,
1.012,0.02,0.43,0.51,0.30,0.15,0.23,
1.012,0.02,0.43,0.51,0.30,0.12,0.23,
1.013,0.02,0.43,0.51,0.31,0.08,0.23,
1.013,0.02,0.43,0.51,0.31,0.04,0.22,
1.014,0.02,0.43,0.51,0.32,-0.02,0.22,
1.014,0.25,0.54,0.36,0.32,-0.02,0.22,
1.014,0.25,0.54,0.36,0.33,-0.08,0.21,
1.015,0.25,0.54,0.36,0.35,-0.13,0.20,
1.015,0.25,0.54,0.36,0.36,-0.18,0.19,
1.016,0.25,0.54,0.36,0.37,-0.22,0.17,
1.016,0.25,0.54,0.36,0.39,-0.25,0.15,
1.017,0.45,0.73,0.38,0.39,-0.25,0.15,
1.017,0.45,0.73,0.38,0.39,-0.28,0.13,
1.017,0.45,0.73,0.38,0.40,-0.29,0.11,
1.02,0.45,0.73,0.38,0.40,-0.30,0.09,
1.027,0.45,0.73,0.38,0.40,-0.31,0.07,
1.027,0.45,0.73,0.38,0.39,-0.31,0.04,
1.028,0.57,0.75,0.11,0.39,-0.31,0.04,
1.028,0.57,0.75,0.11,0.38,-0.31,0.03,
1.029,0.57,0.75,0.11,0.37,-0.30,0.01,
1.029,0.57,0.75,0.11,0.35,-0.29,-0.01,
1.03,0.57,0.75,0.11,0.32,-0.26,-0.02,
1.032,0.57,0.75,0.11,0.29,-0.21,-0.03,
1.035,0.39,0.54,-0.44,0.29,-0.21,-0.03,
1.035,0.39,0.54,-0.44,0.25,-0.16,-0.03,
1.037,0.39,0.54,-0.44,0.20,-0.11,-0.03,
1.038,0.39,0.54,-0.44,0.16,-0.05,-0.03,
1.062,0.39,0.54,-0.44,0.12,-0.00,-0.03,
1.064,0.39,0.54,-0.44,0.09,0.03,-0.03,
1.065,0.23,0.31,-0.57,0.09,0.03,-0.03,
1.066,0.23,0.31,-0.57,0.07,0.05,-0.03,
1.066,0.23,0.31,-0.57,0.06,0.07,-0.04,
1.067,0.23,0.31,-0.57,0.06,0.08,-0.05,
1.068,0.23,0.31,-0.57,0.06,0.09,-0.06,
1.069,0.23,0.31,-0.57,0.06,0.09,-0.07,
1.07,0.09,0.23,0.21,0.06,0.09,-0.07,
1.07,0.09,0.23,0.21,0.07,0.08,-0.08,
1.072,0.09,0.23,0.21,0.07,0.08,-0.08,
1.073,0.09,0.23,0.21,0.08,0.07,-0.09,
1.074,0.09,0.23,0.21,0.08,0.06,-0.10,
1.074,0.09,0.23,0.21,0.08,0.04,-0.10,
1.075,-0.09,0.18,0.43,0.08,0.04,-0.10,
1.084,-0.09,0.18,0.43,0.08,0.03,-0.10,
1.084,-0.09,0.18,0.43,0.08,0.02,-0.09,
1.084,-0.09,0.18,0.43,0.08,0.01,-0.09,
1.085,-0.09,0.18,0.43,0.08,-0.00,-0.09,
1.085,-0.09,0.18,0.43,0.08,-0.01,-0.08,
1.085,-0.31,0.15,0.42,0.08,-0.01,-0.08,
1.086,-0.31,0.15,0.42,0.09,-0.02,-0.07,
1.086,-0.31,0.15,0.42,0.10,-0.03,-0.07,
1.086,-0.31,0.15,0.42,0.10,-0.04,-0.06,
1.087,-0.31,0.15,0.42,0.11,-0.05,-0.05,
1.087,-0.31,0.15,0.42,0.12,-0.06,-0.05,
1.087,-0.46,0.04,0.48,0.12,-0.06,-0.05,
1.088,-0.46,0.04,0.48,0.13,-0.07,-0.04,
1.088,-0.46,0.04,0.48,0.14,-0.08,-0.04,
1.088,-0.46,0.04,0.48,0.15,-0.10,-0.03,
1.091,-0.46,0.04,0.48,0.17,-0.12,-0.02,
1.093,-0.46,0.04,0.48,0.18,-0.14,-0.02,
1.095,-0.47,0.00,0.50,0.18,-0.14,-0.02,
1.096,-0.47,0.00,0.50,0.19,-0.16,-0.01,
1.097,-0.47,0.00,0.50,0.20,-0.18,-0.01,
1.099,-0.47,0.00,0.50,0.22,-0.20,0.00,
1.101,-0.47,0.00,0.50,0.23,-0.22,0.01,
1.103,-0.47,0.00,0.50,0.24,-0.24,0.01,
1.112,-0.43,-0.04,0.43,0.24,-0.24,0.01,
1.113,-0.43,-0.04,0.43,0.24,-0.25,0.01,
1.113,-0.43,-0.04,0.43,0.25,-0.27,0.01,
1.114,-0.43,-0.04,0.43,0.25,-0.29,0.01,
1.114,-0.43,-0.04,0.43,0.26,-0.31,0.01,
1.114,-0.43,-0.04,0.43,0.27,-0.33,0.02,
1.115,-0.35,-0.02,0.34,0.27,-0.33,0.02,
1.115,-0.35,-0.02,0.34,0.27,-0.35,0.02,
1.116,-0.35,-0.02,0.34,0.29,-0.38,0.03,
1.119,-0.35,-0.02,0.34,0.30,-0.40,0.03,
1.122,-0.35,-0.02,0.34,0.31,-0.42,0.04,
1.123,-0.35,-0.02,0.34,0.32,-0.45,0.04,
1.125,-0.33,-0.05,0.41,0.32,-0.45,0.04,
1.126,-0.33,-0.05,0.41,0.33,-0.47,0.04,
1.127,-0.33,-0.05,0.41,0.34,-0.49,0.05,
1.129,-0.33,-0.05,0.41,0.36,-0.51,0.05,
1.13,-0.33,-0.05,0.41,0.37,-0.53,0.06,
1.159,-0.33,-0.05,0.41,0.38,-0.54,0.06,
1.159,-0.36,-0.06,0.37,0.38,-0.54,0.06,
1.16,-0.36,-0.06,0.37,0.39,-0.56,0.06,
1.16,-0.36,-0.06,0.37,0.39,-0.57,0.07,
1.161,-0.36,-0.06,0.37,0.39,-0.58,0.07,
1.161,-0.36,-0.06,0.37,0.39,-0.59,0.07,
1.162,-0.36,-0.06,0.37,0.39,-0.58,0.07,
1.162,-0.33,-0.03,0.19,0.39,-0.58,0.07,
1.162,-0.33,-0.03,0.19,0.39,-0.58,0.07,
1.163,-0.33,-0.03,0.19,0.39,-0.57,0.08,
1.163,-0.33,-0.03,0.19,0.39,-0.55,0.08,
1.164,-0.33,-0.03,0.19,0.39,-0.53,0.09,
1.164,-0.33,-0.03,0.19,0.38,-0.51,0.09,
1.165,-0.28,-0.07,-0.07,0.38,-0.51,0.09,
1.165,-0.28,-0.07,-0.07,0.37,-0.48,0.09,
1.165,-0.28,-0.07,-0.07,0.37,-0.46,0.09,
1.166,-0.28,-0.07,-0.07,0.36,-0.43,0.09,
1.166,-0.28,-0.07,-0.07,0.35,-0.40,0.09,
1.167,-0.28,-0.07,-0.07,0.34,-0.37,0.09,
1.167,-0.08,-0.12,-0.34,0.34,-0.37,0.09,
1.168,-0.08,-0.12,-0.34,0.32,-0.34,0.08,
1.168,-0.08,-0.12,-0.34,0.29,-0.32,0.07,
1.168,-0.08,-0.12,-0.34,0.25,-0.29,0.05,
1.177,-0.08,-0.12,-0.34,0.23,-0.27,0.04,
1.178,-0.08,-0.12,-0.34,0.22,-0.25,0.04,
1.178,0.17,-0.12,-0.57,0.22,-0.25,0.04,
1.178,0.17,-0.12,-0.57,0.22,-0.22,0.05,
1.179,0.17,-0.12,-0.57,0.20,-0.20,0.05,
1.179,0.17,-0.12,-0.57,0.19,-0.17,0.06,
1.181,0.17,-0.12,-0.57,0.18,-0.15,0.06,
1.186,0.17,-0.12,-0.57,0.18,-0.13,0.07,
1.187,-0.29,0.66,-0.32,0.18,-0.13,0.07,
1.187,-0.29,0.66,-0.32,0.18,-0.12,0.08,
1.187,-0.29,0.66,-0.32,0.18,-0.11,0.08,
1.197,-0.29,0.66,-0.32,0.17,-0.10,0.08,
1.198,-0.29,0.66,-0.32,0.17,-0.09,0.07,
1.198,-0.29,0.66,-0.32,0.18,-0.08,0.06,
1.199,-0.12,0.74,-0.14,0.18,-0.08,0.06,
1.199,-0.12,0.74,-0.14,0.18,-0.07,0.05,
1.199,-0.12,0.74,-0.14,0.18,-0.07,0.04,
1.199,-0.12,0.74,-0.14,0.18,-0.07,0.03,
1.202,-0.12,0.74,-0.14,0.19,-0.07,0.02,
1.212,-0.12,0.74,-0.14,0.19,-0.07,0.01,
1.213,0.12,0.45,-0.06,0.19,-0.07,0.01,
1.213,0.12,0.45,-0.06,0.20,-0.08,-0.01,
1.213,0.12,0.45,-0.06,0.20,-0.08,-0.02,
1.214,0.12,0.45,-0.06,0.21,-0.09,-0.03,
1.214,0.12,0.45,-0.06,0.21,-0.09,-0.04,
1.214,0.12,0.45,-0.06,0.22,-0.10,-0.05,
1.217,0.14,0.31,-0.02,0.22,-0.10,-0.05,
1.218,0.14,0.31,-0.02,0.22,-0.11,-0.06,
1.218,0.14,0.31,-0.02,0.23,-0.13,-0.07,
1.219,0.14,0.31,-0.02,0.24,-0.14,-0.07,
1.23,0.14,0.31,-0.02,0.25,-0.16,-0.08,
1.231,0.14,0.31,-0.02,0.25,-0.18,-0.09,
1.231,0.01,0.29,-0.02,0.25,-0.18,-0.09,
1.232,0.01,0.29,-0.02,0.25,-0.20,-0.09,
1.232,0.01,0.29,-0.02,0.26,-0.22,-0.10,
1.232,0.01,0.29,-0.02,0.27,-0.24,-0.11,
1.233,0.01,0.29,-0.02,0.27,-0.27,-0.11,
1.233,0.01,0.29,-0.02,0.27,-0.29,-0.12,
1.235,-0.02,0.16,-0.17,0.27,-0.29,-0.12,
1.235,-0.02,0.16,-0.17,0.26,-0.31,-0.13,
1.237,-0.02,0.16,-0.17,0.26,-0.33,-0.14,
1.24,-0.02,0.16,-0.17,0.26,-0.35,-0.15,
1.241,-0.02,0.16,-0.17,0.25,-0.37,-0.16,
1.243,-0.02,0.16,-0.17,0.24,-0.38,-0.17,
1.245,0.06,0.03,-0.42,0.24,-0.38,-0.17,
1.247,0.06,0.03,-0.42,0.23,-0.39,-0.18,
1.247,0.06,0.03,-0.42,0.22,-0.41,-0.18,
1.248,0.06,0.03,-0.42,0.21,-0.42,-0.19,
1.25,0.06,0.03,-0.42,0.20,-0.43,-0.20,
1.253,0.06,0.03,-0.42,0.19,-0.43,-0.21,
1.256,0.16,-0.12,-0.44,0.19,-0.43,-0.21,
1.257,0.16,-0.12,-0.44,0.18,-0.44,-0.21,
1.257,0.16,-0.12,-0.44,0.17,-0.44,-0.22,
1.26,0.16,-0.12,-0.44,0.16,-0.44,-0.22,
1.261,0.16,-0.12,-0.44,0.15,-0.44,-0.23,
1.263,0.16,-0.12,-0.44,0.14,-0.43,-0.23,
1.265,0.15,-0.29,-0.28,0.14,-0.43,-0.23,
1.266,0.15,-0.29,-0.28,0.13,-0.42,-0.23,
1.266,0.15,-0.29,-0.28,0.12,-0.41,-0.23,
1.269,0.15,-0.29,-0.28,0.12,-0.40,-0.23,
1.271,0.15,-0.29,-0.28,0.11,-0.38,-0.23,
1.283,0.15,-0.29,-0.28,0.10,-0.37,-0.22,
1.284,-0.03,-0.44,-0.06,0.10,-0.37,-0.22,
1.284,-0.03,-0.44,-0.06,0.10,-0.35,-0.22,
1.285,-0.03,-0.44,-0.06,0.10,-0.33,-0.21,
1.286,-0.03,-0.44,-0.06,0.10,-0.32,-0.21,
1.286,-0.03,-0.44,-0.06,0.10,-0.30,-0.20,
1.286,-0.03,-0.44,-0.06,0.10,-0.29,-0.19,
1.287,-0.15,-0.56,0.21,0.10,-0.29,-0.19,
1.287,-0.15,-0.56,0.21,0.10,-0.27,-0.18,
1.308,-0.15,-0.56,0.21,0.11,-0.25,-0.18,
1.309,-0.15,-0.56,0.21,0.12,-0.23,-0.17,
1.309,-0.15,-0.56,0.21,0.13,-0.22,-0.16,
1.31,-0.15,-0.56,0.21,0.14,-0.20,-0.16,
1.311,-0.09,-0.57,0.42,0.14,-0.20,-0.16,
1.311,-0.09,-0.57,0.42,0.15,-0.18,-0.15,
1.311,-0.09,-0.57,0.42,0.16,-0.16,-0.14,
1.347,-0.09,-0.57,0.42,0.17,-0.15,-0.14,
1.349,-0.09,-0.57,0.42,0.19,-0.13,-0.14,
1.349,-0.09,-0.57,0.42,0.20,-0.11,-0.13,
1.35,0.01,-0.54,0.29,0.20,-0.11,-0.13,
1.351,0.01,-0.54,0.29,0.20,-0.10,-0.13,
1.352,0.01,-0.54,0.29,0.21,-0.09,-0.13,
1.353,0.01,-0.54,0.29,0.22,-0.08,-0.12,
1.353,0.01,-0.54,0.29,0.22,-0.07,-0.12,
1.354,0.01,-0.54,0.29,0.22,-0.07,-0.12,
1.355,0.04,-0.43,-0.13,0.22,-0.07,-0.12,
1.358,0.04,-0.43,-0.13,0.22,-0.06,-0.11,
1.359,0.04,-0.43,-0.13,0.22,-0.06,-0.11,
1.359,0.04,-0.43,-0.13,0.22,-0.06,-0.11,
1.36,0.04,-0.43,-0.13,0.21,-0.06,-0.11,
1.36,0.04,-0.43,-0.13,0.21,-0.06,-0.11,
1.361,0.01,-0.31,-0.68,0.21,-0.06,-0.11,
1.361,0.01,-0.31,-0.68,0.20,-0.06,-0.11,
1.361,0.01,-0.31,-0.68,0.19,-0.06,-0.11,
1.362,0.01,-0.31,-0.68,0.18,-0.07,-0.11,
1.362,0.01,-0.31,-0.68,0.17,-0.09,-0.11,
1.363,0.01,-0.31,-0.68,0.15,-0.10,-0.11,
1.363,0.02,-0.19,-1.10,0.15,-0.10,-0.11,
1.364,0.02,-0.19,-1.10,0.14,-0.11,-0.11,
1.364,0.02,-0.19,-1.10,0.12,-0.13,-0.11,
1.364,0.02,-0.19,-1.10,0.11,-0.15,-0.12,
1.365,0.02,-0.19,-1.10,0.10,-0.17,-0.12,
1.365,0.02,-0.19,-1.10,0.08,-0.20,-0.12,
1.366,0.01,-0.04,-1.23,0.08,-0.20,-0.12,
1.366,0.01,-0.04,-1.23,0.07,-0.22,-0.12,
1.367,0.01,-0.04,-1.23,0.06,-0.25,-0.12,
1.367,0.01,-0.04,-1.23,0.05,-0.27,-0.13,
1.367,0.01,-0.04,-1.23,0.04,-0.30,-0.13,
1.368,0.01,-0.04,-1.23,0.03,-0.33,-0.13,
1.368,0.00,-0.05,-0.99,0.03,-0.33,-0.13,
1.369,0.00,-0.05,-0.99,0.03,-0.35,-0.13,
1.369,0.00,-0.05,-0.99,0.03,-0.38,-0.14,
1.369,0.00,-0.05,-0.99,0.03,-0.41,-0.14,
1.37,0.00,-0.05,-0.99,0.03,-0.44,-0.14,
1.37,0.00,-0.05,-0.99,0.04,-0.46,-0.14,
1.37,0.05,-0.14,-0.43,0.04,-0.46,-0.14,
1.371,0.05,-0.14,-0.43,0.04,-0.49,-0.14,
1.371,0.05,-0.14,-0.43,0.06,-0.51,-0.14,
1.372,0.05,-0.14,-0.43,0.07,-0.54,-0.14,
1.372,0.05,-0.14,-0.43,0.08,-0.56,-0.14,
1.372,0.05,-0.14,-0.43,0.09,-0.57,-0.14,
1.375,0.08,-0.24,0.02,0.09,-0.57,-0.14,
1.376,0.08,-0.24,0.02,0.11,-0.59,-0.14,
1.377,0.08,-0.24,0.02,0.12,-0.60,-0.14,
1.378,0.08,-0.24,0.02,0.13,-0.60,-0.13,
1.381,0.08,-0.24,0.02,0.14,-0.61,-0.13,
1.382,0.08,-0.24,0.02,0.14,-0.61,-0.13,
1.385,0.05,-0.35,0.12,0.14,-0.61,-0.13,
1.385,0.05,-0.35,0.12,0.15,-0.60,-0.12,
1.386,0.05,-0.35,0.12,0.16,-0.60,-0.12,
1.389,0.05,-0.35,0.12,0.17,-0.59,-0.12,
1.391,0.05,-0.35,0.12,0.17,-0.57,-0.12,
1.393,0.05,-0.35,0.12,0.18,-0.55,-0.12,
1.396,0.15,-0.36,0.03,0.18,-0.55,-0.12,
1.396,0.15,-0.36,0.03,0.18,-0.53,-0.11,
1.397,0.15,-0.36,0.03,0.18,-0.51,-0.12,
1.398,0.15,-0.36,0.03,0.18,-0.49,-0.12,
1.4,0.15,-0.36,0.03,0.18,-0.47,-0.12,
1.402,0.15,-0.36,0.03,0.18,-0.44,-0.12,
1.406,0.36,-0.36,-0.25,0.18,-0.44,-0.12,
1.407,0.36,-0.36,-0.25,0.17,-0.42,-0.12,
1.408,0.36,-0.36,-0.25,0.16,-0.39,-0.13,
1.41,0.36,-0.36,-0.25,0.15,-0.37,-0.13,
1.411,0.36,-0.36,-0.25,0.14,-0.34,-0.13,
1.413,0.36,-0.36,-0.25,0.13,-0.32,-0.14,
1.415,0.56,-0.29,-0.61,0.13,-0.32,-0.14,
1.415,0.56,-0.29,-0.61,0.12,-0.30,-0.14,
1.416,0.56,-0.29,-0.61,0.10,-0.27,-0.15,
1.418,0.56,-0.29,-0.61,0.09,-0.25,-0.15,
1.433,0.56,-0.29,-0.61,0.07,-0.22,-0.16,
1.434,0.56,-0.29,-0.61,0.05,-0.20,-0.17,
1.434,0.62,-0.19,-0.88,0.05,-0.20,-0.17,
1.435,0.62,-0.19,-0.88,0.04,-0.17,-0.17,
1.435,0.62,-0.19,-0.88,0.02,-0.15,-0.18,
1.436,0.62,-0.19,-0.88,0.01,-0.13,-0.19,
1.437,0.62,-0.19,-0.88,-0.00,-0.11,-0.20,
1.437,0.62,-0.19,-0.88,-0.02,-0.09,-0.21,
1.438,0.57,-0.10,-0.94,-0.02,-0.09,-0.21,
1.438,0.57,-0.10,-0.94,-0.03,-0.07,-0.22,
1.438,0.57,-0.10,-0.94,-0.04,-0.06,-0.23,
1.456,0.57,-0.10,-0.94,-0.05,-0.05,-0.24,
1.458,0.57,-0.10,-0.94,-0.06,-0.04,-0.25,
1.459,0.57,-0.10,-0.94,-0.07,-0.03,-0.27,
1.459,0.47,-0.10,-0.91,-0.07,-0.03,-0.27,
1.46,0.47,-0.10,-0.91,-0.08,-0.02,-0.28,
1.46,0.47,-0.10,-0.91,-0.09,-0.02,-0.29,
1.461,0.47,-0.10,-0.91,-0.10,-0.02,-0.30,
1.461,0.47,-0.10,-0.91,-0.10,-0.01,-0.31,
1.462,0.47,-0.10,-0.91,-0.11,-0.01,-0.32,
1.462,0.24,-0.11,-0.82,-0.11,-0.01,-0.32,
1.463,0.24,-0.11,-0.82,-0.12,-0.01,-0.33,
1.463,0.24,-0.11,-0.82,-0.12,-0.01,-0.34,
1.464,0.24,-0.11,-0.82,-0.13,-0.02,-0.34,
1.464,0.24,-0.11,-0.82,-0.13,-0.02,-0.35,
1.465,0.24,-0.11,-0.82,-0.13,-0.02,-0.36,
1.465,0.03,-0.20,-0.70,-0.13,-0.02,-0.36,
1.499,0.03,-0.20,-0.70,-0.13,-0.03,-0.37,
1.499,0.03,-0.20,-0.70,-0.13,-0.04,-0.38,
1.5,0.03,-0.20,-0.70,-0.14,-0.05,-0.39,
1.5,0.03,-0.20,-0.70,-0.13,-0.06,-0.40,
1.501,0.03,-0.20,-0.70,-0.13,-0.07,-0.41,
1.501,-0.11,-0.31,-0.49,-0.13,-0.07,-0.41,
1.502,-0.11,-0.31,-0.49,-0.13,-0.08,-0.42,
1.502,-0.11,-0.31,-0.49,-0.12,-0.11,-0.43,
1.502,-0.11,-0.31,-0.49,-0.11,-0.12,-0.43,
1.503,-0.11,-0.31,-0.49,-0.11,-0.12,-0.43,
1.503,-0.11,-0.31,-0.49,-0.11,-0.14,-0.44,
1.504,-0.24,-0.45,-0.26,-0.11,-0.14,-0.44,
1.504,-0.24,-0.45,-0.26,-0.10,-0.15,-0.44,
1.505,-0.24,-0.45,-0.26,-0.09,-0.17,-0.45,
1.505,-0.24,-0.45,-0.26,-0.09,-0.18,-0.45,
1.506,-0.24,-0.45,-0.26,-0.08,-0.19,-0.45,
1.506,-0.24,-0.45,-0.26,-0.07,-0.21,-0.45,
1.506,-0.51,-0.57,-0.09,-0.07,-0.21,-0.45,
1.507,-0.51,-0.57,-0.09,-0.06,-0.22,-0.44,
1.507,-0.51,-0.57,-0.09,-0.06,-0.23,-0.44,
1.508,-0.51,-0.57,-0.09,-0.05,-0.24,-0.43,
1.508,-0.51,-0.57,-0.09,-0.05,-0.25,-0.42,
1.509,-0.51,-0.57,-0.09,-0.04,-0.26,-0.42,
1.509,-0.81,-0.74,0.01,-0.04,-0.26,-0.42,
1.509,-0.81,-0.74,0.01,-0.04,-0.27,-0.40,
1.51,-0.81,-0.74,0.01,-0.04,-0.28,-0.39,
1.51,-0.81,-0.74,0.01,-0.03,-0.28,-0.38,
1.511,-0.81,-0.74,0.01,-0.03,-0.28,-0.37,
1.513,-0.81,-0.74,0.01,-0.03,-0.27,-0.35,
1.515,-0.99,-0.83,0.09,-0.03,-0.27,-0.35,
1.515,-0.99,-0.83,0.09,-0.03,-0.27,-0.34,
1.516,-0.99,-0.83,0.09,-0.02,-0.26,-0.32,
1.518,-0.99,-0.83,0.09,-0.02,-0.25,-0.31,
1.522,-0.99,-0.83,0.09,-0.02,-0.23,-0.29,
1.523,-0.99,-0.83,0.09,-0.02,-0.22,-0.28,
1.525,-1.05,-0.88,0.12,-0.02,-0.22,-0.28,
1.525,-1.05,-0.88,0.12,-0.02,-0.21,-0.26,
1.527,-1.05,-0.88,0.12,-0.02,-0.19,-0.24,
1.528,-1.05,-0.88,0.12,-0.01,-0.18,-0.23,
1.53,-1.05,-0.88,0.12,-0.01,-0.17,-0.21,
1.532,-1.05,-0.88,0.12,-0.01,-0.15,-0.20,
1.535,-0.95,-0.84,0.17,-0.01,-0.15,-0.20,
1.535,-0.95,-0.84,0.17,-0.01,-0.14,-0.18,
1.537,-0.95,-0.84,0.17,-0.00,-0.12,-0.17,
1.539,-0.95,-0.84,0.17,-0.00,-0.11,-0.15,
1.54,-0.95,-0.84,0.17,0.00,-0.10,-0.14,
1.542,-0.95,-0.84,0.17,0.01,-0.09,-0.13,
1.545,-0.65,-0.81,0.22,0.01,-0.09,-0.13,
1.546,-0.65,-0.81,0.22,0.01,-0.08,-0.12,
1.547,-0.65,-0.81,0.22,0.02,-0.07,-0.11,
1.549,-0.65,-0.81,0.22,0.02,-0.06,-0.10,
1.551,-0.65,-0.81,0.22,0.03,-0.06,-0.10,
1.554,-0.65,-0.81,0.22,0.03,-0.06,-0.09,
1.555,-0.27,-0.73,0.18,0.03,-0.06,-0.09,
1.555,-0.27,-0.73,0.18,0.03,-0.06,-0.09,
1.557,-0.27,-0.73,0.18,0.04,-0.06,-0.09,
1.558,-0.27,-0.73,0.18,0.04,-0.06,-0.08,
1.56,-0.27,-0.73,0.18,0.05,-0.06,-0.08,
1.564,-0.27,-0.73,0.18,0.05,-0.06,-0.08,
1.565,0.02,-0.68,0.18,0.05,-0.06,-0.08,
1.566,0.02,-0.68,0.18,0.06,-0.07,-0.08,
1.566,0.02,-0.68,0.18,0.06,-0.07,-0.08,
1.569,0.02,-0.68,0.18,0.07,-0.07,-0.09,
1.583,0.02,-0.68,0.18,0.07,-0.08,-0.09,
1.584,0.02,-0.68,0.18,0.08,-0.09,-0.09,
1.584,0.26,-0.60,0.24,0.08,-0.09,-0.09,
1.584,0.26,-0.60,0.24,0.09,-0.09,-0.10,
1.585,0.26,-0.60,0.24,0.09,-0.10,-0.10,
1.585,0.26,-0.60,0.24,0.10,-0.10,-0.11,
1.585,0.26,-0.60,0.24,0.11,-0.11,-0.12,
1.586,0.26,-0.60,0.24,0.12,-0.12,-0.12,
1.586,0.39,-0.52,0.29,0.12,-0.12,-0.12,
1.586,0.39,-0.52,0.29,0.12,-0.13,-0.13,
1.587,0.39,-0.52,0.29,0.13,-0.13,-0.14,
1.604,0.39,-0.52,0.29,0.14,-0.14,-0.14,
1.608,0.39,-0.52,0.29,0.15,-0.14,-0.15,
1.609,0.39,-0.52,0.29,0.16,-0.15,-0.16,
1.609,0.37,-0.41,0.32,0.16,-0.15,-0.16,
1.61,0.37,-0.41,0.32,0.16,-0.15,-0.16,
1.61,0.37,-0.41,0.32,0.17,-0.16,-0.17,
1.611,0.37,-0.41,0.32,0.18,-0.16,-0.17,
1.611,0.37,-0.41,0.32,0.18,-0.16,-0.17,
1.611,0.37,-0.41,0.32,0.18,-0.15,-0.18,
1.612,0.21,-0.39,0.20,0.18,-0.15,-0.18,
1.612,0.21,-0.39,0.20,0.18,-0.15,-0.18,
1.612,0.21,-0.39,0.20,0.18,-0.15,-0.18,
1.613,0.21,-0.39,0.20,0.17,-0.14,-0.17,
1.613,0.21,-0.39,0.20,0.16,-0.13,-0.17,
1.613,0.21,-0.39,0.20,0.15,-0.12,-0.17,
1.615,-0.05,-0.41,-0.19,0.15,-0.12,-0.17,
1.615,-0.05,-0.41,-0.19,0.14,-0.11,-0.16,
1.616,-0.05,-0.41,-0.19,0.12,-0.09,-0.16,
1.618,-0.05,-0.41,-0.19,0.10,-0.08,-0.15,
1.621,-0.05,-0.41,-0.19,0.08,-0.06,-0.14,
1.623,-0.05,-0.41,-0.19,0.06,-0.05,-0.13,
1.625,-0.22,-0.49,-0.58,0.06,-0.05,-0.13,
1.626,-0.22,-0.49,-0.58,0.03,-0.03,-0.12,
1.627,-0.22,-0.49,-0.58,0.01,-0.01,-0.12,
1.629,-0.22,-0.49,-0.58,-0.02,0.01,-0.11,
1.631,-0.22,-0.49,-0.58,-0.04,0.03,-0.10,
1.66,-0.22,-0.49,-0.58,-0.07,0.05,-0.09,
1.66,-0.36,-0.42,-0.76,-0.07,0.05,-0.09,
1.661,-0.36,-0.42,-0.76,-0.10,0.07,-0.08,
1.661,-0.36,-0.42,-0.76,-0.12,0.09,-0.08,
1.661,-0.36,-0.42,-0.76,-0.15,0.10,-0.07,
1.662,-0.36,-0.42,-0.76,-0.17,0.12,-0.06,
1.662,-0.36,-0.42,-0.76,-0.19,0.14,-0.05,
1.663,-0.41,-0.40,-0.54,-0.19,0.14,-0.05,
1.663,-0.41,-0.40,-0.54,-0.21,0.15,-0.04,
1.664,-0.41,-0.40,-0.54,-0.22,0.17,-0.03,
1.664,-0.41,-0.40,-0.54,-0.24,0.19,-0.02,
1.664,-0.41,-0.40,-0.54,-0.25,0.20,-0.02,
1.665,-0.41,-0.40,-0.54,-0.26,0.21,-0.01,
1.665,-0.42,-0.47,-0.08,-0.26,0.21,-0.01,
1.666,-0.42,-0.47,-0.08,-0.27,0.23,0.00,
1.666,-0.42,-0.47,-0.08,-0.27,0.24,0.01,
1.667,-0.42,-0.47,-0.08,-0.28,0.24,0.02,
1.667,-0.42,-0.47,-0.08,-0.27,0.25,0.03,
1.668,-0.42,-0.47,-0.08,-0.27,0.25,0.03,
1.668,-0.50,-0.53,0.43,-0.27,0.25,0.03,
1.668,-0.50,-0.53,0.43,-0.27,0.26,0.04,
1.669,-0.50,-0.53,0.43,-0.26,0.26,0.05,
1.669,-0.50,-0.53,0.43,-0.25,0.25,0.06,
1.674,-0.50,-0.53,0.43,-0.25,0.25,0.07,
1.675,-0.50,-0.53,0.43,-0.23,0.24,0.07,
1.676,-0.45,-0.49,0.79,-0.23,0.24,0.07,
1.676,-0.45,-0.49,0.79,-0.22,0.23,0.08,
1.676,-0.45,-0.49,0.79,-0.21,0.22,0.09,
1.681,-0.45,-0.49,0.79,-0.20,0.21,0.09,
1.681,-0.45,-0.49,0.79,-0.19,0.20,0.09,
1.682,-0.45,-0.49,0.79,-0.17,0.18,0.10,
1.685,-0.28,-0.49,0.94,-0.17,0.18,0.10,
1.685,-0.28,-0.49,0.94,-0.16,0.16,0.10,
1.687,-0.28,-0.49,0.94,-0.15,0.15,0.10,
1.689,-0.28,-0.49,0.94,-0.13,0.13,0.10,
1.691,-0.28,-0.49,0.94,-0.12,0.12,0.10,
1.692,-0.28,-0.49,0.94,-0.11,0.10,0.10,
1.696,-0.13,-0.37,0.95,-0.11,0.10,0.10,
1.697,-0.13,-0.37,0.95,-0.09,0.08,0.11,
1.697,-0.13,-0.37,0.95,-0.08,0.06,0.11,
1.698,-0.13,-0.37,0.95,-0.06,0.05,0.11,
1.7,-0.13,-0.37,0.95,-0.05,0.03,0.11,
1.713,-0.13,-0.37,0.95,-0.04,0.02,0.11,
1.714,-0.13,-0.26,0.95,-0.04,0.02,0.11,
1.714,-0.13,-0.26,0.95,-0.03,0.01,0.11,
1.715,-0.13,-0.26,0.95,-0.01,-0.01,0.11,
1.715,-0.13,-0.26,0.95,-0.00,-0.02,0.11,
1.716,-0.13,-0.26,0.95,0.01,-0.03,0.11,
1.716,-0.13,-0.26,0.95,0.02,-0.04,0.11,
1.716,-0.14,-0.19,0.89,0.02,-0.04,0.11,
1.717,-0.14,-0.19,0.89,0.03,-0.05,0.11,
1.718,-0.14,-0.19,0.89,0.04,-0.05,0.12,
1.739,-0.14,-0.19,0.89,0.05,-0.06,0.12,
1.739,-0.14,-0.19,0.89,0.06,-0.06,0.12,
1.74,-0.14,-0.19,0.89,0.07,-0.07,0.13,
1.74,-0.16,-0.14,0.78,0.07,-0.07,0.13,
1.74,-0.16,-0.14,0.78,0.08,-0.07,0.13,
1.74,-0.16,-0.14,0.78,0.08,-0.07,0.13,
1.74,-0.16,-0.14,0.78,0.08,-0.07,0.14,
1.741,-0.16,-0.14,0.78,0.09,-0.06,0.14,
1.741,-0.16,-0.14,0.78,0.10,-0.06,0.14,
1.741,-0.11,-0.05,0.63,0.10,-0.06,0.14,
1.741,-0.11,-0.05,0.63,0.10,-0.04,0.15,
1.741,-0.11,-0.05,0.63,0.09,-0.03,0.15,
1.742,-0.11,-0.05,0.63,0.09,-0.02,0.15,
1.742,-0.11,-0.05,0.63,0.09,-0.00,0.15,
1.742,-0.11,-0.05,0.63,0.09,0.01,0.16,
1.746,-0.07,0.05,0.41,0.09,0.01,0.16,
1.747,-0.07,0.05,0.41,0.08,0.03,0.16,
1.747,-0.07,0.05,0.41,0.08,0.05,0.16,
1.749,-0.07,0.05,0.41,0.07,0.07,0.17,
1.75,-0.07,0.05,0.41,0.07,0.09,0.17,
1.753,-0.07,0.05,0.41,0.07,0.11,0.17,
1.755,-0.03,0.11,0.26,0.07,0.11,0.17,
1.755,-0.03,0.11,0.26,0.06,0.12,0.17,
1.756,-0.03,0.11,0.26,0.06,0.13,0.17,
1.758,-0.03,0.11,0.26,0.06,0.15,0.17,
1.76,-0.03,0.11,0.26,0.05,0.16,0.16,
1.762,-0.03,0.11,0.26,0.05,0.17,0.16,
1.765,0.18,0.19,0.20,0.05,0.17,0.16,
1.766,0.18,0.19,0.20,0.05,0.18,0.16,
1.767,0.18,0.19,0.20,0.04,0.19,0.15,
1.769,0.18,0.19,0.20,0.04,0.20,0.14,
1.771,0.18,0.19,0.20,0.04,0.21,0.14,
1.772,0.18,0.19,0.20,0.04,0.22,0.14,
1.775,0.31,0.28,0.28,0.04,0.22,0.14,
1.776,0.31,0.28,0.28,0.05,0.23,0.13,
1.776,0.31,0.28,0.28,0.05,0.23,0.12,
1.779,0.31,0.28,0.28,0.05,0.24,0.12,
1.78,0.31,0.28,0.28,0.05,0.24,0.11,
1.782,0.31,0.28,0.28,0.06,0.25,0.11,
1.786,0.32,0.25,0.36,0.06,0.25,0.11,
1.787,0.32,0.25,0.36,0.07,0.25,0.11,
1.791,0.32,0.25,0.36,0.07,0.25,0.10,
1.791,0.32,0.25,0.36,0.08,0.25,0.10,
1.791,0.32,0.25,0.36,0.09,0.25,0.10,
1.792,0.32,0.25,0.36,0.09,0.24,0.10,
1.795,0.26,0.20,0.33,0.09,0.24,0.10,
1.795,0.26,0.20,0.33,0.10,0.24,0.10,
1.796,0.26,0.20,0.33,0.11,0.24,0.10,
1.833,0.26,0.20,0.33,0.11,0.23,0.10,
1.834,0.26,0.20,0.33,0.11,0.23,0.10,
1.834,0.26,0.20,0.33,0.12,0.22,0.10,
1.835,0.23,0.17,0.26,0.12,0.22,0.10,
1.835,0.23,0.17,0.26,0.13,0.22,0.10,
1.836,0.23,0.17,0.26,0.14,0.21,0.10,
1.837,0.23,0.17,0.26,0.15,0.21,0.10,
1.837,0.23,0.17,0.26,0.16,0.20,0.10,
1.838,0.23,0.17,0.26,0.16,0.20,0.10,
1.838,0.27,0.15,0.11,0.16,0.20,0.10,
1.839,0.27,0.15,0.11,0.17,0.20,0.10,
1.839,0.27,0.15,0.11,0.17,0.19,0.10,
1.84,0.27,0.15,0.11,0.18,0.19,0.10,
1.84,0.27,0.15,0.11,0.19,0.18,0.10,
1.841,0.27,0.15,0.11,0.19,0.18,0.10,
1.841,0.38,0.11,-0.11,0.19,0.18,0.10,
1.842,0.38,0.11,-0.11,0.19,0.17,0.09,
1.842,0.38,0.11,-0.11,0.19,0.17,0.09,
1.843,0.38,0.11,-0.11,0.19,0.16,0.09,
1.843,0.38,0.11,-0.11,0.20,0.16,0.09,
1.844,0.38,0.11,-0.11,0.20,0.16,0.08,
1.844,0.45,0.12,-0.30,0.20,0.16,0.08,
1.845,0.45,0.12,-0.30,0.20,0.15,0.08,
1.845,0.45,0.12,-0.30,0.20,0.14,0.07,
1.846,0.45,0.12,-0.30,0.19,0.14,0.07,
1.846,0.45,0.12,-0.30,0.19,0.13,0.06,
1.847,0.45,0.12,-0.30,0.19,0.13,0.06,
1.847,0.60,0.13,-0.54,0.19,0.13,0.06,
1.85,0.60,0.13,-0.54,0.18,0.11,0.04,
1.851,0.60,0.13,-0.54,0.18,0.11,0.04,
1.851,0.60,0.13,-0.54,0.18,0.11,0.04,
1.852,0.60,0.13,-0.54,0.18,0.10,0.03,
1.855,0.60,0.13,-0.54,0.17,0.09,0.02,
1.857,0.60,0.10,-0.69,0.17,0.09,0.02,
1.858,0.60,0.10,-0.69,0.17,0.08,0.02,
1.859,0.60,0.10,-0.69,0.16,0.08,0.01,
1.862,0.60,0.10,-0.69,0.16,0.07,0.00,
1.863,0.60,0.10,-0.69,0.15,0.06,0.00,
1.863,0.60,0.10,-0.69,0.14,0.06,-0.01,
1.867,0.53,-0.00,-0.80,0.14,0.06,-0.01,
1.868,0.53,-0.00,-0.80,0.13,0.06,-0.01,
1.868,0.53,-0.00,-0.80,0.13,0.06,-0.01,
1.869,0.53,-0.00,-0.80,0.12,0.06,-0.01,
1.873,0.53,-0.00,-0.80,0.10,0.06,-0.02,
1.877,0.53,-0.00,-0.80,0.09,0.06,-0.02,
1.879,0.44,-0.12,-0.84,0.09,0.06,-0.02,
1.879,0.44,-0.12,-0.84,0.08,0.07,-0.02,
1.88,0.44,-0.12,-0.84,0.06,0.08,-0.02,
1.881,0.44,-0.12,-0.84,0.05,0.10,-0.02,
1.881,0.44,-0.12,-0.84,0.04,0.11,-0.02,
1.883,0.44,-0.12,-0.84,0.04,0.12,-0.01,
1.887,0.23,-0.18,-0.74,0.04,0.12,-0.01,
1.887,0.23,-0.18,-0.74,0.02,0.14,-0.01,
1.888,0.23,-0.18,-0.74,0.01,0.16,-0.00,
1.902,0.23,-0.18,-0.74,0.01,0.17,0.00,
1.905,0.23,-0.18,-0.74,0.00,0.19,0.01,
1.906,0.23,-0.18,-0.74,-0.01,0.20,0.02,
1.906,0.00,-0.24,-0.57,-0.01,0.20,0.02,
1.907,0.00,-0.24,-0.57,-0.01,0.22,0.02,
1.91,0.00,-0.24,-0.57,-0.02,0.23,0.03,
1.91,0.00,-0.24,-0.57,-0.02,0.23,0.04,
1.911,0.00,-0.24,-0.57,-0.02,0.24,0.05,
1.911,0.00,-0.24,-0.57,-0.02,0.24,0.06,
1.911,-0.12,-0.27,-0.36,-0.02,0.24,0.06,
1.912,-0.12,-0.27,-0.36,-0.03,0.25,0.07,
1.912,-0.12,-0.27,-0.36,-0.02,0.25,0.08,
1.912,-0.12,-0.27,-0.36,-0.02,0.25,0.09,
1.913,-0.12,-0.27,-0.36,-0.02,0.25,0.10,
1.913,-0.12,-0.27,-0.36,-0.01,0.25,0.11,
1.917,-0.13,-0.17,-0.13,-0.01,0.25,0.11,
1.918,-0.13,-0.17,-0.13,-0.01,0.24,0.12,
1.918,-0.13,-0.17,-0.13,-0.00,0.24,0.13,
1.919,-0.13,-0.17,-0.13,0.01,0.23,0.13,
1.932,-0.13,-0.17,-0.13,0.01,0.22,0.14,
1.935,-0.13,-0.17,-0.13,0.02,0.21,0.15,
1.935,-0.08,-0.06,-0.02,0.02,0.21,0.15,
1.936,-0.08,-0.06,-0.02,0.02,0.21,0.16,
1.936,-0.08,-0.06,-0.02,0.03,0.20,0.16,
1.937,-0.08,-0.06,-0.02,0.04,0.19,0.17,
1.938,-0.08,-0.06,-0.02,0.04,0.18,0.17,
1.939,-0.08,-0.06,-0.02,0.05,0.17,0.18,
1.945,-0.02,-0.00,0.00,0.05,0.17,0.18,
1.946,-0.02,-0.00,0.00,0.06,0.15,0.18,
1.946,-0.02,-0.00,0.00,0.06,0.14,0.19,
1.946,-0.02,-0.00,0.00,0.07,0.13,0.19,
1.947,-0.02,-0.00,0.00,0.07,0.12,0.19,
1.947,-0.02,-0.00,0.00,0.08,0.10,0.20,
1.947,0.06,0.03,-0.09,0.08,0.10,0.20,
1.948,0.06,0.03,-0.09,0.08,0.09,0.20,
1.948,0.06,0.03,-0.09,0.08,0.08,0.20,
1.948,0.06,0.03,-0.09,0.09,0.06,0.21,
1.965,0.06,0.03,-0.09,0.09,0.05,0.21,
1.966,0.06,0.03,-0.09,0.09,0.04,0.21,
1.967,0.12,0.11,-0.15,0.09,0.04,0.21,
1.967,0.12,0.11,-0.15,0.09,0.03,0.21,
1.967,0.12,0.11,-0.15,0.09,0.02,0.21,
1.968,0.12,0.11,-0.15,0.09,0.01,0.21,
1.968,0.12,0.11,-0.15,0.09,-0.00,0.20,
1.969,0.12,0.11,-0.15,0.09,-0.01,0.20,
1.97,0.23,0.20,-0.15,0.09,-0.01,0.20,
2.002,0.23,0.20,-0.15,0.10,-0.02,0.20,
2.003,0.23,0.20,-0.15,0.10,-0.02,0.20,
2.003,0.23,0.20,-0.15,0.10,-0.03,0.19,
2.004,0.23,0.20,-0.15,0.10,-0.03,0.19,
2.004,0.23,0.20,-0.15,0.10,-0.04,0.18,
2.005,0.28,0.28,-0.08,0.10,-0.04,0.18,
2.005,0.28,0.28,-0.08,0.10,-0.04,0.18,
2.006,0.28,0.28,-0.08,0.10,-0.04,0.17,
2.006,0.28,0.28,-0.08,0.10,-0.04,0.17,
2.006,0.28,0.28,-0.08,0.10,-0.04,0.17,
2.007,0.28,0.28,-0.08,0.10,-0.05,0.16,
2.007,0.21,0.29,-0.03,0.10,-0.05,0.16,
2.008,0.21,0.29,-0.03,0.10,-0.05,0.16,
2.008,0.21,0.29,-0.03,0.09,-0.04,0.16,
2.009,0.21,0.29,-0.03,0.09,-0.04,0.16,
2.009,0.21,0.29,-0.03,0.09,-0.04,0.16,
2.009,0.21,0.29,-0.03,0.09,-0.03,0.16,
2.01,0.09,0.30,-0.03,0.09,-0.03,0.16,
2.01,0.09,0.30,-0.03,0.09,-0.03,0.15,
2.011,0.09,0.30,-0.03,0.09,-0.03,0.15,
2.011,0.09,0.30,-0.03,0.08,-0.02,0.15,
2.012,0.09,0.30,-0.03,0.08,-0.02,0.15,
2.012,0.09,0.30,-0.03,0.07,-0.02,0.15,
2.012,0.05,0.30,-0.08,0.07,-0.02,0.15,
2.013,0.05,0.30,-0.08,0.06,-0.01,0.15,
2.013,0.05,0.30,-0.08,0.06,-0.01,0.15,
2.014,0.05,0.30,-0.08,0.05,-0.00,0.15,
2.014,0.05,0.30,-0.08,0.05,0.00,0.15,
2.015,0.05,0.30,-0.08,0.04,0.01,0.15,
2.015,0.01,0.33,-0.07,0.04,0.01,0.15,
2.015,0.01,0.33,-0.07,0.03,0.01,0.15,
2.016,0.01,0.33,-0.07,0.03,0.02,0.15,
2.019,0.01,0.33,-0.07,0.02,0.03,0.15,
2.021,0.01,0.33,-0.07,0.02,0.03,0.15,
2.022,0.01,0.33,-0.07,0.01,0.04,0.15,
2.025,-0.08,0.37,-0.07,0.01,0.04,0.15,
2.025,-0.08,0.37,-0.07,0.00,0.05,0.15,
2.026,-0.08,0.37,-0.07,-0.01,0.05,0.15,
2.029,-0.08,0.37,-0.07,-0.01,0.05,0.15,
2.03,-0.08,0.37,-0.07,-0.01,0.06,0.15,
2.032,-0.08,0.37,-0.07,-0.02,0.06,0.14,
2.035,-0.05,0.39,0.05,-0.02,0.06,0.14,
2.036,-0.05,0.39,0.05,-0.02,0.06,0.14,
2.036,-0.05,0.39,0.05,-0.02,0.06,0.14,
2.039,-0.05,0.39,0.05,-0.02,0.07,0.13,
2.041,-0.05,0.39,0.05,-0.02,0.06,0.13,
2.043,-0.05,0.39,0.05,-0.03,0.06,0.12,
2.045,0.04,0.40,0.23,-0.03,0.06,0.12,
2.046,0.04,0.40,0.23,-0.02,0.06,0.11,
2.047,0.04,0.40,0.23,-0.02,0.06,0.11,
2.049,0.04,0.40,0.23,-0.02,0.06,0.10,
2.052,0.04,0.40,0.23,-0.01,0.06,0.09,
2.053,0.04,0.40,0.23,-0.01,0.06,0.09,
2.057,0.07,0.37,0.37,-0.01,0.06,0.09,
2.057,0.07,0.37,0.37,-0.01,0.06,0.08,
2.058,0.07,0.37,0.37,-0.01,0.07,0.07,
2.059,0.07,0.37,0.37,-0.00,0.07,0.06,
2.06,0.07,0.37,0.37,0.00,0.07,0.06,
2.062,0.07,0.37,0.37,0.00,0.07,0.05,
2.065,0.04,0.28,0.40,0.00,0.07,0.05,
2.065,0.04,0.28,0.40,0.01,0.07,0.04,
2.066,0.04,0.28,0.40,0.01,0.07,0.04,
2.07,0.04,0.28,0.40,0.01,0.08,0.04,
2.07,0.04,0.28,0.40,0.01,0.08,0.03,
2.072,0.04,0.28,0.40,0.01,0.09,0.03,
2.077,-0.03,0.16,0.37,0.01,0.09,0.03,
2.077,-0.03,0.16,0.37,0.01,0.09,0.03,
2.077,-0.03,0.16,0.37,0.01,0.09,0.02,
2.078,-0.03,0.16,0.37,0.01,0.10,0.03,
2.08,-0.03,0.16,0.37,0.02,0.11,0.03,
2.082,-0.03,0.16,0.37,0.02,0.11,0.02,
2.096,-0.17,0.08,0.38,0.02,0.11,0.02,
2.097,-0.17,0.08,0.38,0.02,0.12,0.02,
2.097,-0.17,0.08,0.38,0.02,0.12,0.02,
2.098,-0.17,0.08,0.38,0.02,0.13,0.02,
2.098,-0.17,0.08,0.38,0.03,0.14,0.03,
2.098,-0.17,0.08,0.38,0.03,0.14,0.03,
2.099,-0.19,-0.00,0.38,0.03,0.14,0.03,
2.099,-0.19,-0.00,0.38,0.03,0.15,0.03,
2.1,-0.19,-0.00,0.38,0.04,0.15,0.03,
2.1,-0.19,-0.00,0.38,0.04,0.15,0.02,
2.117,-0.19,-0.00,0.38,0.04,0.16,0.02,
2.121,-0.19,-0.00,0.38,0.04,0.16,0.03,
2.122,-0.21,-0.07,0.39,0.04,0.16,0.03,
2.122,-0.21,-0.07,0.39,0.05,0.17,0.03,
2.122,-0.21,-0.07,0.39,0.05,0.17,0.02,
2.123,-0.21,-0.07,0.39,0.06,0.17,0.02,
2.124,-0.21,-0.07,0.39,0.06,0.17,0.03,
2.125,-0.21,-0.07,0.39,0.07,0.18,0.03,
2.126,-0.24,-0.14,0.43,0.07,0.18,0.03,
2.126,-0.24,-0.14,0.43,0.08,0.18,0.03,
2.127,-0.24,-0.14,0.43,0.09,0.19,0.03,
2.127,-0.24,-0.14,0.43,0.10,0.18,0.03,
2.127,-0.24,-0.14,0.43,0.10,0.18,0.03,
2.128,-0.24,-0.14,0.43,0.12,0.18,0.03,
2.128,-0.27,-0.19,0.40,0.12,0.18,0.03,
2.129,-0.27,-0.19,0.40,0.12,0.18,0.03,
2.129,-0.27,-0.19,0.40,0.13,0.17,0.03,
2.129,-0.27,-0.19,0.40,0.14,0.17,0.04,
2.131,-0.27,-0.19,0.40,0.14,0.17,0.04,
2.16,-0.27,-0.19,0.40,0.15,0.16,0.04,
2.161,-0.25,-0.20,0.25,0.15,0.16,0.04,
2.161,-0.25,-0.20,0.25,0.15,0.16,0.04,
2.162,-0.25,-0.20,0.25,0.16,0.15,0.04,
2.162,-0.25,-0.20,0.25,0.16,0.15,0.04,
2.163,-0.25,-0.20,0.25,0.16,0.14,0.04,
2.163,-0.25,-0.20,0.25,0.16,0.14,0.04,
2.163,-0.27,-0.19,0.06,0.16,0.14,0.04,
2.164,-0.27,-0.19,0.06,0.16,0.14,0.04,
2.165,-0.27,-0.19,0.06,0.16,0.14,0.04,
2.165,-0.27,-0.19,0.06,0.15,0.14,0.05,
2.166,-0.27,-0.19,0.06,0.15,0.14,0.05,
2.166,-0.27,-0.19,0.06,0.15,0.14,0.05,
2.167,-0.23,-0.22,-0.14,0.15,0.14,0.05,
2.167,-0.23,-0.22,-0.14,0.14,0.14,0.05,
2.167,-0.23,-0.22,-0.14,0.14,0.15,0.05,
2.168,-0.23,-0.22,-0.14,0.13,0.15,0.05,
2.168,-0.23,-0.22,-0.14,0.12,0.15,0.05,
2.169,-0.23,-0.22,-0.14,0.12,0.15,0.05,
2.169,-0.22,-0.28,-0.28,0.12,0.15,0.05,
2.17,-0.22,-0.28,-0.28,0.11,0.16,0.05,
2.17,-0.22,-0.28,-0.28,0.10,0.16,0.06,
2.17,-0.22,-0.28,-0.28,0.10,0.16,0.06,
2.171,-0.22,-0.28,-0.28,0.09,0.16,0.06,
2.173,-0.22,-0.28,-0.28,0.08,0.16,0.06,
2.175,-0.19,-0.28,-0.21,0.08,0.16,0.06,
2.176,-0.19,-0.28,-0.21,0.08,0.16,0.06,
2.177,-0.19,-0.28,-0.21,0.08,0.16,0.06,
2.179,-0.19,-0.28,-0.21,0.07,0.16,0.06,
2.181,-0.19,-0.28,-0.21,0.07,0.17,0.07,
2.186,-0.19,-0.28,-0.21,0.07,0.17,0.07,
2.187,-0.25,-0.36,-0.00,0.07,0.17,0.07,
2.187,-0.25,-0.36,-0.00,0.08,0.17,0.07,
2.188,-0.25,-0.36,-0.00,0.08,0.17,0.08,
2.19,-0.25,-0.36,-0.00,0.08,0.17,0.08,
2.191,-0.25,-0.36,-0.00,0.08,0.17,0.08,
2.192,-0.25,-0.36,-0.00,0.09,0.17,0.09,
2.195,-0.24,-0.44,0.15,0.09,0.17,0.09,
2.195,-0.24,-0.44,0.15,0.09,0.17,0.09,
2.196,-0.24,-0.44,0.15,0.10,0.17,0.09,
2.198,-0.24,-0.44,0.15,0.10,0.16,0.10,
2.203,-0.24,-0.44,0.15,0.11,0.16,0.10,
2.204,-0.24,-0.44,0.15,0.12,0.16,0.10,
2.207,-0.20,-0.46,0.19,0.12,0.16,0.10,
2.208,-0.20,-0.46,0.19,0.12,0.15,0.11,
2.208,-0.20,-0.46,0.19,0.13,0.15,0.11,
2.209,-0.20,-0.46,0.19,0.14,0.14,0.11,
2.211,-0.20,-0.46,0.19,0.15,0.14,0.11,
2.213,-0.20,-0.46,0.19,0.16,0.13,0.11,
2.215,-0.13,-0.38,0.12,0.16,0.13,0.11,
2.215,-0.13,-0.38,0.12,0.16,0.13,0.11,
2.217,-0.13,-0.38,0.12,0.17,0.12,0.11,
2.219,-0.13,-0.38,0.12,0.17,0.11,0.11,
2.221,-0.13,-0.38,0.12,0.17,0.11,0.11,
2.222,-0.13,-0.38,0.12,0.18,0.10,0.11,
2.225,-0.01,-0.35,-0.12,0.18,0.10,0.11,
2.225,-0.01,-0.35,-0.12,0.18,0.10,0.11,
2.231,-0.01,-0.35,-0.12,0.18,0.09,0.11,
2.231,-0.01,-0.35,-0.12,0.18,0.09,0.10,
2.232,-0.01,-0.35,-0.12,0.17,0.09,0.10,
2.245,-0.01,-0.35,-0.12,0.17,0.08,0.10,
2.246,0.02,-0.28,-0.38,0.17,0.08,0.10,
2.247,0.02,-0.28,-0.38,0.16,0.08,0.10,
2.248,0.02,-0.28,-0.38,0.16,0.09,0.10,
2.248,0.02,-0.28,-0.38,0.15,0.09,0.09,
2.249,0.02,-0.28,-0.38,0.15,0.09,0.09,
2.249,0.02,-0.28,-0.38,0.14,0.09,0.09,
2.25,0.01,-0.23,-0.55,0.14,0.09,0.09,
2.251,0.01,-0.23,-0.55,0.13,0.09,0.09,
2.252,0.01,-0.23,-0.55,0.12,0.10,0.09,
2.253,0.01,-0.23,-0.55,0.12,0.10,0.09,
2.253,0.01,-0.23,-0.55,0.11,0.10,0.09,
2.256,0.01,-0.23,-0.55,0.10,0.11,0.09,
2.257,0.00,-0.17,-0.57,0.10,0.11,0.09,
2.258,0.00,-0.17,-0.57,0.10,0.11,0.09,
2.278,0.00,-0.17,-0.57,0.09,0.11,0.09,
2.28,0.00,-0.17,-0.57,0.09,0.11,0.08,
2.281,0.00,-0.17,-0.57,0.09,0.12,0.08,
2.281,0.00,-0.17,-0.57,0.08,0.12,0.08,
2.281,0.07,-0.18,-0.46,0.08,0.12,0.08,
2.282,0.07,-0.18,-0.46,0.08,0.12,0.07,
2.282,0.07,-0.18,-0.46,0.08,0.12,0.07,
2.283,0.07,-0.18,-0.46,0.08,0.12,0.06,
2.283,0.07,-0.18,-0.46,0.08,0.13,0.06,
2.284,0.07,-0.18,-0.46,0.08,0.13,0.05,
2.285,0.12,-0.13,-0.35,0.08,0.13,0.05,
2.288,0.12,-0.13,-0.35,0.08,0.13,0.05,
2.29,0.12,-0.13,-0.35,0.08,0.13,0.04,
2.29,0.12,-0.13,-0.35,0.08,0.13,0.04,
2.291,0.12,-0.13,-0.35,0.09,0.13,0.03,
2.291,0.12,-0.13,-0.35,0.09,0.12,0.03,
2.292,0.02,-0.13,-0.26,0.09,0.12,0.03,
2.292,0.02,-0.13,-0.26,0.09,0.13,0.03,
2.293,0.02,-0.13,-0.26,0.09,0.13,0.03,
2.293,0.02,-0.13,-0.26,0.10,0.13,0.02,
2.293,0.02,-0.13,-0.26,0.10,0.14,0.02,
2.294,0.02,-0.13,-0.26,0.10,0.14,0.02,
2.297,-0.08,-0.18,-0.28,0.10,0.14,0.02,
2.3,-0.08,-0.18,-0.28,0.11,0.14,0.02,
2.301,-0.08,-0.18,-0.28,0.11,0.14,0.02,
2.334,-0.08,-0.18,-0.28,0.11,0.15,0.02,
2.334,-0.08,-0.18,-0.28,0.11,0.15,0.02,
2.335,-0.08,-0.18,-0.28,0.10,0.15,0.02,
2.335,-0.13,-0.22,-0.45,0.10,0.15,0.02,
2.336,-0.13,-0.22,-0.45,0.10,0.15,0.01,
2.336,-0.13,-0.22,-0.45,0.09,0.15,0.01,
2.336,-0.13,-0.22,-0.45,0.09,0.15,0.01,
2.337,-0.13,-0.22,-0.45,0.08,0.15,0.01,
2.337,-0.13,-0.22,-0.45,0.08,0.14,0.01,
2.338,-0.18,-0.19,-0.62,0.08,0.14,0.01,
2.338,-0.18,-0.19,-0.62,0.07,0.14,0.01,
2.339,-0.18,-0.19,-0.62,0.07,0.14,0.01,
2.339,-0.18,-0.19,-0.62,0.06,0.13,0.01,
2.339,-0.18,-0.19,-0.62,0.05,0.13,0.00,
2.34,-0.18,-0.19,-0.62,0.05,0.12,0.00,
2.34,-0.23,-0.22,-0.64,0.05,0.12,0.00,
2.341,-0.23,-0.22,-0.64,0.04,0.12,0.00,
2.341,-0.23,-0.22,-0.64,0.03,0.11,0.00,
2.342,-0.23,-0.22,-0.64,0.03,0.11,0.00,
2.342,-0.23,-0.22,-0.64,0.03,0.10,0.00,
2.342,-0.23,-0.22,-0.64,0.02,0.10,0.00,
2.343,-0.29,-0.26,-0.52,0.02,0.10,0.00,
2.343,-0.29,-0.26,-0.52,0.02,0.10,0.00,
2.344,-0.29,-0.26,-0.52,0.01,0.09,0.00,
2.344,-0.29,-0.26,-0.52,0.01,0.09,0.01,
2.345,-0.29,-0.26,-0.52,0.01,0.09,0.01,
2.345,-0.29,-0.26,-0.52,0.01,0.09,0.01,
2.345,-0.34,-0.29,-0.34,0.01,0.09,0.01,
2.345,-0.34,-0.29,-0.34,0.01,0.09,0.01,
2.348,-0.34,-0.29,-0.34,0.01,0.09,0.01,
2.348,-0.34,-0.29,-0.34,0.01,0.09,0.01,
2.362,-0.34,-0.29,-0.34,0.01,0.09,0.01,
2.362,-0.34,-0.29,-0.34,0.01,0.09,0.01,
2.362,-0.29,-0.30,-0.21,0.01,0.09,0.01,
2.363,-0.29,-0.30,-0.21,0.01,0.09,0.02,
2.363,-0.29,-0.30,-0.21,0.01,0.09,0.02,
2.363,-0.29,-0.30,-0.21,0.01,0.09,0.01,
2.363,-0.29,-0.30,-0.21,0.01,0.09,0.01,
2.364,-0.29,-0.30,-0.21,0.01,0.09,0.01,
2.365,-0.24,-0.29,-0.15,0.01,0.09,0.01,
2.365,-0.24,-0.29,-0.15,0.02,0.09,0.01,
2.378,-0.24,-0.29,-0.15,0.02,0.09,0.01,
2.378,-0.24,-0.29,-0.15,0.02,0.09,0.01,
2.378,-0.24,-0.29,-0.15,0.02,0.08,0.01,
2.379,-0.24,-0.29,-0.15,0.02,0.09,0.01,
2.379,-0.21,-0.30,-0.18,0.02,0.09,0.01,
2.379,-0.21,-0.30,-0.18,0.03,0.08,0.01,
2.379,-0.21,-0.30,-0.18,0.03,0.08,0.01,
2.379,-0.21,-0.30,-0.18,0.03,0.08,0.01,
2.381,-0.21,-0.30,-0.18,0.02,0.08,0.01,
2.399,-0.21,-0.30,-0.18,0.02,0.08,0.01,
2.404,-0.22,-0.35,-0.24,0.02,0.08,0.01,
2.405,-0.22,-0.35,-0.24,0.02,0.08,0.01,
2.405,-0.22,-0.35,-0.24,0.02,0.08,0.01,
2.405,-0.22,-0.35,-0.24,0.02,0.08,0.01,
2.405,-0.22,-0.35,-0.24,0.02,0.08,0.01,
2.406,-0.22,-0.35,-0.24,0.02,0.08,0.01,
2.406,-0.17,-0.40,-0.30,0.02,0.08,0.01,
2.406,-0.17,-0.40,-0.30,0.01,0.08,0.01,
2.406,-0.17,-0.40,-0.30,0.01,0.08,0.01,
2.407,-0.17,-0.40,-0.30,0.01,0.07,0.01,
2.407,-0.17,-0.40,-0.30,0.01,0.07,0.01,
2.407,-0.17,-0.40,-0.30,0.01,0.07,0.00,
2.407,-0.06,-0.38,-0.28,0.01,0.07,0.00,
2.407,-0.06,-0.38,-0.28,0.01,0.06,-0.00,
2.408,-0.06,-0.38,-0.28,0.01,0.06,-0.00,
2.409,-0.06,-0.38,-0.28,0.01,0.05,-0.01,
2.411,-0.06,-0.38,-0.28,0.00,0.05,-0.01,
2.412,-0.06,-0.38,-0.28,0.00,0.05,-0.01,
2.42,-0.08,-0.30,-0.23,0.00,0.05,-0.01,
2.421,-0.08,-0.30,-0.23,0.00,0.04,-0.02,
2.421,-0.08,-0.30,-0.23,0.00,0.04,-0.02,
2.422,-0.08,-0.30,-0.23,0.00,0.04,-0.01,
2.422,-0.08,-0.30,-0.23,-0.00,0.04,-0.02,
2.423,-0.08,-0.30,-0.23,-0.00,0.04,-0.02,
2.425,-0.22,-0.30,-0.28,-0.00,0.04,-0.02,
2.425,-0.22,-0.30,-0.28,-0.01,0.05,-0.01,
2.426,-0.22,-0.30,-0.28,-0.01,0.05,-0.01,
2.428,-0.22,-0.30,-0.28,-0.02,0.05,-0.01,
2.43,-0.22,-0.30,-0.28,-0.02,0.05,-0.01,
2.432,-0.22,-0.30,-0.28,-0.03,0.06,-0.01,
2.435,-0.33,-0.32,-0.38,-0.03,0.06,-0.01,
2.436,-0.33,-0.32,-0.38,-0.04,0.06,-0.00,
2.437,-0.33,-0.32,-0.38,-0.04,0.07,0.00,
2.438,-0.33,-0.32,-0.38,-0.05,0.07,0.00,
2.44,-0.33,-0.32,-0.38,-0.06,0.08,0.01,
2.442,-0.33,-0.32,-0.38,-0.06,0.09,0.01,
2.445,-0.39,-0.32,-0.36,-0.06,0.09,0.01,
2.445,-0.39,-0.32,-0.36,-0.07,0.09,0.01,
2.447,-0.39,-0.32,-0.36,-0.07,0.09,0.02,
2.449,-0.39,-0.32,-0.36,-0.08,0.10,0.02,
2.451,-0.39,-0.32,-0.36,-0.08,0.10,0.02,
2.452,-0.39,-0.32,-0.36,-0.08,0.11,0.03,
2.455,-0.47,-0.29,-0.21,-0.08,0.11,0.03,
2.455,-0.47,-0.29,-0.21,-0.09,0.11,0.03,
2.456,-0.47,-0.29,-0.21,-0.09,0.11,0.04,
2.458,-0.47,-0.29,-0.21,-0.08,0.11,0.04,
2.46,-0.47,-0.29,-0.21,-0.08,0.11,0.05,
2.463,-0.47,-0.29,-0.21,-0.08,0.11,0.05,
2.47,-0.52,-0.31,-0.01,-0.08,0.11,0.05,
2.506,-0.52,-0.31,-0.01,-0.07,0.10,0.06,
2.507,-0.52,-0.31,-0.01,-0.07,0.10,0.06,
2.507,-0.52,-0.31,-0.01,-0.06,0.09,0.07,
2.507,-0.52,-0.31,-0.01,-0.06,0.08,0.07,
2.508,-0.52,-0.31,-0.01,-0.05,0.08,0.08,
2.508,-0.48,-0.30,0.16,-0.05,0.08,0.08,
2.508,-0.48,-0.30,0.16,-0.05,0.07,0.08,
2.508,-0.48,-0.30,0.16,-0.04,0.06,0.09,
2.509,-0.48,-0.30,0.16,-0.03,0.06,0.09,
2.509,-0.48,-0.30,0.16,-0.03,0.05,0.09,
2.509,-0.48,-0.30,0.16,-0.02,0.03,0.09,
2.51,-0.35,-0.27,0.18,-0.02,0.03,0.09,
2.51,-0.35,-0.27,0.18,-0.02,0.03,0.10,
2.51,-0.35,-0.27,0.18,-0.01,0.02,0.10,
2.51,-0.35,-0.27,0.18,-0.01,0.01,0.10,
2.511,-0.35,-0.27,0.18,-0.01,-0.00,0.10,
2.511,-0.35,-0.27,0.18,-0.01,-0.01,0.10,
2.511,-0.22,-0.20,0.10,-0.01,-0.01,0.10,
2.511,-0.22,-0.20,0.10,-0.01,-0.01,0.10,
2.512,-0.22,-0.20,0.10,-0.01,-0.02,0.10,
2.512,-0.22,-0.20,0.10,-0.01,-0.03,0.10,
2.512,-0.22,-0.20,0.10,-0.01,-0.03,0.10,
2.513,-0.22,-0.20,0.10,-0.01,-0.03,0.10,
2.513,-0.11,-0.17,0.02,-0.01,-0.03,0.10,
2.513,-0.11,-0.17,0.02,-0.01,-0.03,0.10,
2.513,-0.11,-0.17,0.02,-0.01,-0.03,0.10,
2.514,-0.11,-0.17,0.02,-0.02,-0.03,0.10,
2.514,-0.11,-0.17,0.02,-0.02,-0.03,0.09,
2.514,-0.11,-0.17,0.02,-0.02,-0.02,0.09,
2.514,0.00,-0.12,-0.02,-0.02,-0.02,0.09,
2.515,0.00,-0.12,-0.02,-0.02,-0.02,0.09,
2.519,0.00,-0.12,-0.02,-0.03,-0.02,0.09,
2.52,0.00,-0.12,-0.02,-0.03,-0.01,0.09,
2.52,0.00,-0.12,-0.02,-0.04,-0.01,0.09,
2.522,0.00,-0.12,-0.02,-0.04,-0.00,0.08,
2.525,0.07,-0.11,-0.07,-0.04,-0.00,0.08,
2.525,0.07,-0.11,-0.07,-0.05,0.00,0.08,
2.527,0.07,-0.11,-0.07,-0.05,0.00,0.08,
2.529,0.07,-0.11,-0.07,-0.06,0.01,0.08,
2.53,0.07,-0.11,-0.07,-0.06,0.01,0.07,
2.552,0.07,-0.11,-0.07,-0.07,0.01,0.07,
2.554,0.12,-0.12,-0.07,-0.07,0.01,0.07,
2.555,0.12,-0.12,-0.07,-0.08,0.02,0.07,
2.555,0.12,-0.12,-0.07,-0.08,0.02,0.07,
2.556,0.12,-0.12,-0.07,-0.08,0.02,0.07,
2.557,0.12,-0.12,-0.07,-0.09,0.02,0.07,
2.557,0.12,-0.12,-0.07,-0.09,0.03,0.06,
2.557,0.05,-0.14,0.06,-0.09,0.03,0.06,
2.558,0.05,-0.14,0.06,-0.09,0.03,0.06,
2.558,0.05,-0.14,0.06,-0.09,0.03,0.06,
2.56,0.05,-0.14,0.06,-0.09,0.03,0.06,
2.56,0.05,-0.14,0.06,-0.09,0.03,0.06,
2.56,0.05,-0.14,0.06,-0.09,0.04,0.06,
2.56,0.05,-0.17,0.20,-0.09,0.04,0.06,
2.56,0.05,-0.17,0.20,-0.10,0.04,0.06,
2.561,0.05,-0.17,0.20,-0.09,0.04,0.06,
2.564,0.05,-0.17,0.20,-0.09,0.04,0.06,
2.574,0.05,-0.17,0.20,-0.09,0.05,0.07,
2.574,0.05,-0.17,0.20,-0.09,0.05,0.06,
2.575,0.09,-0.24,0.37,-0.09,0.05,0.06,
2.575,0.09,-0.24,0.37,-0.08,0.05,0.06,
2.575,0.09,-0.24,0.37,-0.08,0.06,0.06,
2.575,0.09,-0.24,0.37,-0.07,0.06,0.06,
2.576,0.09,-0.24,0.37,-0.07,0.06,0.06,
2.576,0.09,-0.24,0.37,-0.06,0.06,0.07,
2.576,0.12,-0.27,0.48,-0.06,0.06,0.07,
2.576,0.12,-0.27,0.48,-0.06,0.05,0.07,
2.576,0.12,-0.27,0.48,-0.05,0.05,0.07,
2.578,0.12,-0.27,0.48,-0.04,0.05,0.07,
2.581,0.12,-0.27,0.48,-0.03,0.04,0.07,
2.584,0.12,-0.27,0.48,-0.02,0.04,0.07,
2.586,0.09,-0.28,0.61,-0.02,0.04,0.07,
2.588,0.09,-0.28,0.61,-0.01,0.04,0.07,
2.588,0.09,-0.28,0.61,-0.00,0.03,0.07,
2.588,0.09,-0.28,0.61,0.01,0.03,0.07,
2.59,0.09,-0.28,0.61,0.02,0.03,0.07,
2.593,0.09,-0.28,0.61,0.03,0.03,0.08,
2.595,0.07,-0.28,0.57,0.03,0.03,0.08,
2.596,0.07,-0.28,0.57,0.04,0.02,0.08,
2.596,0.07,-0.28,0.57,0.04,0.02,0.08,
2.599,0.07,-0.28,0.57,0.05,0.02,0.08,
2.601,0.07,-0.28,0.57,0.06,0.01,0.08,
2.604,0.07,-0.28,0.57,0.06,0.01,0.08,
2.605,0.10,-0.25,0.36,0.06,0.01,0.08,
2.605,0.10,-0.25,0.36,0.07,0.01,0.08,
2.607,0.10,-0.25,0.36,0.07,0.00,0.08,
2.608,0.10,-0.25,0.36,0.07,-0.00,0.08,
2.61,0.10,-0.25,0.36,0.07,-0.01,0.08,
2.612,0.10,-0.25,0.36,0.07,-0.01,0.08,
2.615,0.15,-0.15,0.07,0.07,-0.01,0.08,
2.616,0.15,-0.15,0.07,0.07,-0.01,0.08,
2.617,0.15,-0.15,0.07,0.07,-0.01,0.08,
2.619,0.15,-0.15,0.07,0.07,-0.01,0.08,
2.622,0.15,-0.15,0.07,0.06,-0.01,0.08,
2.622,0.15,-0.15,0.07,0.06,-0.01,0.07,
2.625,0.22,-0.05,-0.21,0.06,-0.01,0.07,
2.625,0.22,-0.05,-0.21,0.06,-0.01,0.07,
2.626,0.22,-0.05,-0.21,0.05,-0.01,0.07,
2.629,0.22,-0.05,-0.21,0.04,-0.01,0.06,
2.64,0.22,-0.05,-0.21,0.04,-0.00,0.06,
2.669,0.22,-0.05,-0.21,0.03,-0.00,0.06,
2.669,0.30,0.01,-0.40,0.03,-0.00,0.06,
2.67,0.30,0.01,-0.40,0.02,-0.00,0.05,
2.67,0.30,0.01,-0.40,0.01,-0.00,0.05,
2.671,0.30,0.01,-0.40,0.00,0.00,0.04,
2.671,0.30,0.01,-0.40,-0.01,0.00,0.04,
2.671,0.30,0.01,-0.40,-0.01,0.00,0.04,
2.672,0.32,0.04,-0.51,-0.01,0.00,0.04,
2.672,0.32,0.04,-0.51,-0.02,0.01,0.03,
2.673,0.32,0.04,-0.51,-0.03,0.01,0.03,
2.673,0.32,0.04,-0.51,-0.04,0.01,0.02,
2.674,0.32,0.04,-0.51,-0.04,0.01,0.02,
2.674,0.32,0.04,-0.51,-0.05,0.02,0.01,
2.674,0.30,0.04,-0.44,-0.05,0.02,0.01,
2.675,0.30,0.04,-0.44,-0.05,0.02,0.01,
2.675,0.30,0.04,-0.44,-0.06,0.02,0.01,
2.676,0.30,0.04,-0.44,-0.06,0.02,0.01,
2.676,0.30,0.04,-0.44,-0.06,0.03,0.00,
2.677,0.30,0.04,-0.44,-0.06,0.02,-0.00,
2.677,0.22,0.01,-0.26,-0.06,0.02,-0.00,
2.677,0.22,0.01,-0.26,-0.06,0.03,-0.01,
2.678,0.22,0.01,-0.26,-0.06,0.03,-0.01,
2.678,0.22,0.01,-0.26,-0.06,0.03,-0.01,
2.679,0.22,0.01,-0.26,-0.06,0.03,-0.01,
2.679,0.22,0.01,-0.26,-0.05,0.03,-0.01,
2.68,0.12,-0.01,-0.06,-0.05,0.03,-0.01,
2.68,0.12,-0.01,-0.06,-0.05,0.03,-0.01,
2.68,0.12,-0.01,-0.06,-0.04,0.04,-0.02,
2.681,0.12,-0.01,-0.06,-0.04,0.04,-0.02,
2.681,0.12,-0.01,-0.06,-0.03,0.04,-0.02,
2.684,0.12,-0.01,-0.06,-0.03,0.04,-0.01,
2.685,0.02,-0.05,-0.01,-0.03,0.04,-0.01,
2.685,0.02,-0.05,-0.01,-0.03,0.04,-0.01,
2.687,0.02,-0.05,-0.01,-0.02,0.04,-0.02,
2.688,0.02,-0.05,-0.01,-0.02,0.04,-0.01,
2.69,0.02,-0.05,-0.01,-0.02,0.04,-0.01,
2.692,0.02,-0.05,-0.01,-0.02,0.04,-0.01,
2.695,-0.01,-0.06,-0.11,-0.02,0.04,-0.01,
2.695,-0.01,-0.06,-0.11,-0.02,0.04,-0.01,
2.696,-0.01,-0.06,-0.11,-0.01,0.04,-0.01,
2.699,-0.01,-0.06,-0.11,-0.01,0.04,-0.02,
2.7,-0.01,-0.06,-0.11,-0.02,0.04,-0.02,
2.702,-0.01,-0.06,-0.11,-0.02,0.04,-0.02,
2.705,-0.06,-0.03,-0.25,-0.02,0.04,-0.02,
2.705,-0.06,-0.03,-0.25,-0.02,0.04,-0.02,
2.706,-0.06,-0.03,-0.25,-0.02,0.04,-0.02,
2.708,-0.06,-0.03,-0.25,-0.02,0.04,-0.02,
2.71,-0.06,-0.03,-0.25,-0.03,0.04,-0.02,
2.712,-0.06,-0.03,-0.25,-0.03,0.04,-0.02,
2.716,-0.08,-0.02,-0.34,-0.03,0.04,-0.02,
2.719,-0.08,-0.02,-0.34,-0.03,0.04,-0.01,
2.719,-0.08,-0.02,-0.34,-0.04,0.04,-0.02,
2.719,-0.08,-0.02,-0.34,-0.04,0.04,-0.02,
2.72,-0.08,-0.02,-0.34,-0.05,0.04,-0.02,
2.722,-0.08,-0.02,-0.34,-0.05,0.04,-0.02,
2.725,-0.09,0.02,-0.44,-0.05,0.04,-0.02,
2.725,-0.09,0.02,-0.44,-0.06,0.04,-0.02,
2.726,-0.09,0.02,-0.44,-0.06,0.04,-0.02,
2.729,-0.09,0.02,-0.44,-0.07,0.05,-0.02,
2.733,-0.09,0.02,-0.44,-0.07,0.05,-0.02,
2.735,-0.09,0.02,-0.44,-0.08,0.04,-0.03,
2.736,-0.08,0.04,-0.50,-0.08,0.04,-0.03,
2.737,-0.08,0.04,-0.50,-0.09,0.04,-0.03,
2.737,-0.08,0.04,-0.50,-0.09,0.04,-0.03,
2.739,-0.08,0.04,-0.50,-0.09,0.04,-0.03,
2.741,-0.08,0.04,-0.50,-0.10,0.04,-0.03,
2.742,-0.08,0.04,-0.50,-0.11,0.04,-0.04,
2.745,-0.11,0.05,-0.44,-0.11,0.04,-0.04,
2.746,-0.11,0.05,-0.44,-0.11,0.04,-0.04,
2.746,-0.11,0.05,-0.44,-0.11,0.05,-0.04,
2.749,-0.11,0.05,-0.44,-0.12,0.05,-0.04,
2.751,-0.11,0.05,-0.44,-0.12,0.05,-0.04,
2.752,-0.11,0.05,-0.44,-0.12,0.05,-0.04,
2.755,-0.20,0.02,-0.31,-0.12,0.05,-0.04,
2.755,-0.20,0.02,-0.31,-0.12,0.04,-0.04,
2.756,-0.20,0.02,-0.31,-0.12,0.05,-0.04,
2.758,-0.20,0.02,-0.31,-0.12,0.04,-0.04,
2.76,-0.20,0.02,-0.31,-0.13,0.04,-0.04,
2.762,-0.20,0.02,-0.31,-0.12,0.04,-0.04,
2.779,-0.27,-0.05,-0.12,-0.12,0.04,-0.04,
2.78,-0.27,-0.05,-0.12,-0.12,0.03,-0.04,
2.781,-0.27,-0.05,-0.12,-0.12,0.03,-0.05,
2.782,-0.27,-0.05,-0.12,-0.11,0.02,-0.05,
2.783,-0.27,-0.05,-0.12,-0.11,0.01,-0.05,
2.783,-0.27,-0.05,-0.12,-0.10,0.01,-0.05,
2.784,-0.29,-0.07,0.09,-0.10,0.01,-0.05,
2.784,-0.29,-0.07,0.09,-0.10,0.00,-0.05,
2.785,-0.29,-0.07,0.09,-0.09,-0.00,-0.05,
2.785,-0.29,-0.07,0.09,-0.08,-0.01,-0.05,
2.786,-0.29,-0.07,0.09,-0.07,-0.02,-0.05,
2.786,-0.29,-0.07,0.09,-0.07,-0.02,-0.05,
2.79,-0.35,-0.11,0.24,-0.07,-0.02,-0.05,
2.792,-0.35,-0.11,0.24,-0.06,-0.03,-0.05,
2.793,-0.35,-0.11,0.24,-0.05,-0.04,-0.05,
2.793,-0.35,-0.11,0.24,-0.04,-0.04,-0.05,
2.795,-0.35,-0.11,0.24,-0.03,-0.05,-0.05,
2.796,-0.35,-0.11,0.24,-0.03,-0.06,-0.05,
2.797,-0.37,-0.14,0.24,-0.03,-0.06,-0.05,
2.798,-0.37,-0.14,0.24,-0.02,-0.06,-0.05,
2.798,-0.37,-0.14,0.24,-0.01,-0.07,-0.04,
2.827,-0.37,-0.14,0.24,-0.01,-0.08,-0.04,
2.828,-0.37,-0.14,0.24,-0.00,-0.09,-0.04,
2.828,-0.37,-0.14,0.24,0.00,-0.09,-0.04,
2.828,-0.36,-0.14,0.19,0.00,-0.09,-0.04,
2.829,-0.36,-0.14,0.19,0.00,-0.10,-0.04,
2.829,-0.36,-0.14,0.19,0.01,-0.10,-0.04,
2.83,-0.36,-0.14,0.19,0.01,-0.11,-0.03,
2.83,-0.36,-0.14,0.19,0.01,-0.11,-0.03,
2.831,-0.36,-0.14,0.19,0.01,-0.11,-0.03,
2.831,-0.35,-0.14,0.09,0.01,-0.11,-0.03,
2.832,-0.35,-0.14,0.09,0.01,-0.11,-0.03,
2.832,-0.35,-0.14,0.09,0.01,-0.10,-0.03,
2.832,-0.35,-0.14,0.09,0.01,-0.10,-0.02,
2.833,-0.35,-0.14,0.09,0.00,-0.09,-0.02,
2.833,-0.35,-0.14,0.09,0.00,-0.09,-0.02,
2.834,-0.28,-0.14,-0.00,0.00,-0.09,-0.02,
2.834,-0.28,-0.14,-0.00,0.00,-0.09,-0.02,
2.835,-0.28,-0.14,-0.00,-0.00,-0.08,-0.02,
2.835,-0.28,-0.14,-0.00,-0.01,-0.07,-0.01,
2.836,-0.28,-0.14,-0.00,-0.01,-0.07,-0.01,
2.836,-0.28,-0.14,-0.00,-0.01,-0.07,-0.02,
2.836,-0.15,-0.10,-0.06,-0.01,-0.07,-0.02,
2.837,-0.15,-0.10,-0.06,-0.02,-0.06,-0.02,
2.837,-0.15,-0.10,-0.06,-0.02,-0.06,-0.02,
2.84,-0.15,-0.10,-0.06,-0.03,-0.05,-0.02,
2.84,-0.15,-0.10,-0.06,-0.03,-0.05,-0.02,
2.843,-0.15,-0.10,-0.06,-0.04,-0.04,-0.02,
2.845,0.04,-0.10,-0.06,-0.04,-0.04,-0.02,
2.857,0.04,-0.10,-0.06,-0.05,-0.03,-0.03,
2.857,0.04,-0.10,-0.06,-0.05,-0.03,-0.03,
2.858,0.04,-0.10,-0.06,-0.05,-0.03,-0.03,
2.858,0.04,-0.10,-0.06,-0.05,-0.03,-0.04,
2.858,0.04,-0.10,-0.06,-0.06,-0.02,-0.05,
2.858,0.10,-0.09,0.03,-0.06,-0.02,-0.05,
2.859,0.10,-0.09,0.03,-0.06,-0.02,-0.05,
2.859,0.10,-0.09,0.03,-0.06,-0.01,-0.05,
2.859,0.10,-0.09,0.03,-0.06,-0.01,-0.06,
2.874,0.10,-0.09,0.03,-0.06,-0.00,-0.06,
2.875,0.10,-0.09,0.03,-0.06,0.00,-0.06,
2.875,0.06,-0.12,0.20,-0.06,0.00,-0.06,
2.877,0.06,-0.12,0.20,-0.05,0.00,-0.07,
2.877,0.06,-0.12,0.20,-0.05,0.01,-0.07,
2.878,0.06,-0.12,0.20,-0.05,0.01,-0.07,
2.878,0.06,-0.12,0.20,-0.05,0.01,-0.07,
2.878,0.06,-0.12,0.20,-0.04,0.01,-0.07,
2.878,-0.08,-0.17,0.40,-0.04,0.01,-0.07,
2.878,-0.08,-0.17,0.40,-0.03,0.02,-0.07,
2.879,-0.08,-0.17,0.40,-0.03,0.02,-0.07,
2.879,-0.08,-0.17,0.40,-0.02,0.03,-0.07,
2.886,-0.08,-0.17,0.40,-0.01,0.03,-0.06,
2.887,-0.08,-0.17,0.40,-0.00,0.04,-0.06,
2.887,-0.17,-0.22,0.56,-0.00,0.04,-0.06,
2.888,-0.17,-0.22,0.56,0.01,0.04,-0.06,
2.888,-0.17,-0.22,0.56,0.02,0.04,-0.06,
2.889,-0.17,-0.22,0.56,0.03,0.05,-0.06,
2.89,-0.17,-0.22,0.56,0.03,0.05,-0.05,
2.893,-0.17,-0.22,0.56,0.04,0.05,-0.05,
2.896,-0.26,-0.20,0.54,0.04,0.05,-0.05,
2.896,-0.26,-0.20,0.54,0.05,0.05,-0.05,
2.896,-0.26,-0.20,0.54,0.06,0.05,-0.05,
2.9,-0.26,-0.20,0.54,0.06,0.05,-0.04,
2.9,-0.26,-0.20,0.54,0.07,0.05,-0.04,
2.902,-0.26,-0.20,0.54,0.08,0.04,-0.04,
2.905,-0.29,-0.18,0.37,0.08,0.04,-0.04,
2.905,-0.29,-0.18,0.37,0.08,0.04,-0.04,
2.906,-0.29,-0.18,0.37,0.08,0.03,-0.04,
2.908,-0.29,-0.18,0.37,0.09,0.03,-0.03,
2.91,-0.29,-0.18,0.37,0.09,0.02,-0.03,
2.923,-0.29,-0.18,0.37,0.09,0.01,-0.03,
2.924,-0.21,-0.15,0.09,0.09,0.01,-0.03,
2.924,-0.21,-0.15,0.09,0.09,0.01,-0.03,
2.924,-0.21,-0.15,0.09,0.09,0.00,-0.03,
2.925,-0.21,-0.15,0.09,0.09,0.00,-0.03,
2.925,-0.21,-0.15,0.09,0.08,-0.00,-0.03,
2.925,-0.21,-0.15,0.09,0.08,-0.01,-0.03,
2.926,-0.08,-0.10,-0.08,0.08,-0.01,-0.03,
2.926,-0.08,-0.10,-0.08,0.08,-0.01,-0.04,
2.927,-0.08,-0.10,-0.08,0.07,-0.01,-0.04,
2.928,-0.08,-0.10,-0.08,0.07,-0.01,-0.04,
2.957,-0.08,-0.10,-0.08,0.07,-0.01,-0.04,
2.958,-0.08,-0.10,-0.08,0.06,-0.01,-0.05,
2.959,0.01,-0.07,-0.20,0.06,-0.01,-0.05,
2.96,0.01,-0.07,-0.20,0.06,-0.01,-0.05,
2.96,0.01,-0.07,-0.20,0.06,-0.01,-0.05,
2.96,0.01,-0.07,-0.20,0.05,-0.01,-0.05,
2.961,0.01,-0.07,-0.20,0.05,-0.01,-0.05,
2.961,0.01,-0.07,-0.20,0.05,-0.01,-0.06,
2.961,0.04,-0.06,-0.22,0.05,-0.01,-0.06,
2.962,0.04,-0.06,-0.22,0.04,-0.01,-0.06,
2.963,0.04,-0.06,-0.22,0.04,-0.01,-0.06,
2.966,0.04,-0.06,-0.22,0.04,-0.00,-0.07,
2.966,0.04,-0.06,-0.22,0.03,-0.00,-0.07,
2.967,0.04,-0.06,-0.22,0.03,-0.00,-0.07,
2.967,0.07,-0.04,-0.19,0.03,-0.00,-0.07,
2.968,0.07,-0.04,-0.19,0.03,0.00,-0.08,
2.968,0.07,-0.04,-0.19,0.03,0.00,-0.08,
2.969,0.07,-0.04,-0.19,0.03,0.01,-0.08,
2.969,0.07,-0.04,-0.19,0.03,0.01,-0.08,
2.969,0.07,-0.04,-0.19,0.02,0.01,-0.08,
2.97,0.08,-0.04,-0.15,0.02,0.01,-0.08,
3.003,0.08,-0.04,-0.15,0.02,0.02,-0.09,
3.004,0.08,-0.04,-0.15,0.02,0.02,-0.09,
3.005,0.08,-0.04,-0.15,0.02,0.03,-0.09,
3.006,0.08,-0.04,-0.15,0.02,0.03,-0.09,
3.007,0.08,-0.04,-0.15,0.02,0.03,-0.09,
3.007,-0.01,-0.08,-0.13,0.02,0.03,-0.09,
3.008,-0.01,-0.08,-0.13,0.02,0.03,-0.09,
3.009,-0.01,-0.08,-0.13,0.02,0.03,-0.09,
3.009,-0.01,-0.08,-0.13,0.02,0.03,-0.09,
3.01,-0.01,-0.08,-0.13,0.02,0.03,-0.08,
3.01,-0.01,-0.08,-0.13,0.02,0.03,-0.08,
3.011,-0.14,-0.15,-0.12,0.02,0.03,-0.08,
3.012,-0.14,-0.15,-0.12,0.02,0.03,-0.08,
3.014,-0.14,-0.15,-0.12,0.02,0.02,-0.07,
3.014,-0.14,-0.15,-0.12,0.02,0.01,-0.07,
3.015,-0.14,-0.15,-0.12,0.02,0.01,-0.07,
3.016,-0.14,-0.15,-0.12,0.02,0.00,-0.07,
3.017,-0.18,-0.16,-0.21,0.02,0.00,-0.07,
3.017,-0.18,-0.16,-0.21,0.01,-0.00,-0.06,
3.018,-0.18,-0.16,-0.21,0.01,-0.01,-0.06,
3.019,-0.18,-0.16,-0.21,0.01,-0.02,-0.06,
3.019,-0.18,-0.16,-0.21,0.01,-0.02,-0.06,
3.019,-0.18,-0.16,-0.21,0.01,-0.03,-0.05,
3.02,-0.17,-0.20,-0.24,0.01,-0.03,-0.05,
3.021,-0.17,-0.20,-0.24,0.00,-0.03,-0.05,
3.021,-0.17,-0.20,-0.24,0.00,-0.04,-0.05,
3.021,-0.17,-0.20,-0.24,-0.00,-0.05,-0.05,
3.022,-0.17,-0.20,-0.24,-0.00,-0.05,-0.04,
3.022,-0.17,-0.20,-0.24,-0.00,-0.05,-0.04,
3.023,-0.17,-0.24,-0.17,-0.00,-0.05,-0.04,
3.023,-0.17,-0.24,-0.17,-0.00,-0.06,-0.04,
3.023,-0.17,-0.24,-0.17,0.00,-0.06,-0.03,
3.024,-0.17,-0.24,-0.17,0.00,-0.05,-0.03,
3.024,-0.17,-0.24,-0.17,0.00,-0.06,-0.03,
3.025,-0.17,-0.24,-0.17,0.01,-0.06,-0.03,
3.025,-0.11,-0.24,-0.01,0.01,-0.06,-0.03,
3.025,-0.11,-0.24,-0.01,0.01,-0.05,-0.02,
3.027,-0.11,-0.24,-0.01,0.01,-0.05,-0.02,
3.028,-0.11,-0.24,-0.01,0.01,-0.05,-0.02,
3.041,-0.11,-0.24,-0.01,0.01,-0.05,-0.02,
3.042,-0.11,-0.24,-0.01,0.02,-0.05,-0.02,
3.043,0.05,-0.28,0.03,0.02,-0.05,-0.02,
3.043,0.05,-0.28,0.03,0.02,-0.05,-0.02,
3.044,0.05,-0.28,0.03,0.02,-0.05,-0.02,
3.044,0.05,-0.28,0.03,0.02,-0.05,-0.02,
3.044,0.05,-0.28,0.03,0.02,-0.05,-0.02,
3.044,0.05,-0.28,0.03,0.02,-0.05,-0.02,
3.045,0.19,-0.22,0.01,0.02,-0.05,-0.02,
3.045,0.19,-0.22,0.01,0.02,-0.05,-0.03,
3.052,0.19,-0.22,0.01,0.02,-0.05,-0.03,
3.055,0.19,-0.22,0.01,0.03,-0.05,-0.03,
3.056,0.19,-0.22,0.01,0.03,-0.05,-0.04,
3.057,0.19,-0.22,0.01,0.03,-0.05,-0.04,
3.058,0.22,-0.17,-0.00,0.03,-0.05,-0.04,
3.059,0.22,-0.17,-0.00,0.03,-0.05,-0.04,
3.06,0.22,-0.17,-0.00,0.03,-0.05,-0.05,
3.08,0.22,-0.17,-0.00,0.03,-0.05,-0.05,
3.082,0.22,-0.17,-0.00,0.03,-0.05,-0.05,
3.083,0.22,-0.17,-0.00,0.03,-0.05,-0.05,
3.084,0.20,-0.12,-0.02,0.03,-0.05,-0.05,
3.084,0.20,-0.12,-0.02,0.04,-0.05,-0.05,
3.085,0.20,-0.12,-0.02,0.04,-0.05,-0.06,
3.086,0.20,-0.12,-0.02,0.04,-0.05,-0.06,
3.086,0.20,-0.12,-0.02,0.04,-0.05,-0.06,
3.087,0.20,-0.12,-0.02,0.04,-0.05,-0.06,
3.087,0.16,-0.09,-0.08,0.04,-0.05,-0.06,
3.088,0.16,-0.09,-0.08,0.05,-0.05,-0.06,
3.088,0.16,-0.09,-0.08,0.05,-0.05,-0.07,
3.089,0.16,-0.09,-0.08,0.05,-0.05,-0.07,
3.089,0.16,-0.09,-0.08,0.05,-0.05,-0.07,
3.089,0.16,-0.09,-0.08,0.04,-0.04,-0.07,
3.09,0.12,-0.07,-0.19,0.04,-0.04,-0.07,
3.09,0.12,-0.07,-0.19,0.04,-0.04,-0.07,
3.091,0.12,-0.07,-0.19,0.04,-0.04,-0.07,
3.091,0.12,-0.07,-0.19,0.03,-0.04,-0.07,
3.092,0.12,-0.07,-0.19,0.03,-0.03,-0.07,
3.093,0.12,-0.07,-0.19,0.02,-0.03,-0.07,
3.098,-0.02,-0.07,-0.31,0.02,-0.03,-0.07,
3.1,-0.02,-0.07,-0.31,0.02,-0.03,-0.07,
3.102,-0.02,-0.07,-0.31,0.01,-0.03,-0.06,
3.103,-0.02,-0.07,-0.31,0.01,-0.03,-0.06,
3.103,-0.02,-0.07,-0.31,0.01,-0.03,-0.06,
3.104,-0.02,-0.07,-0.31,0.00,-0.02,-0.06,
3.105,-0.11,-0.08,-0.35,0.00,-0.02,-0.06,
3.106,-0.11,-0.08,-0.35,0.00,-0.02,-0.05,
3.107,-0.11,-0.08,-0.35,0.00,-0.03,-0.05,
3.109,-0.11,-0.08,-0.35,-0.00,-0.03,-0.05,
3.111,-0.11,-0.08,-0.35,-0.00,-0.03,-0.05,
3.115,-0.11,-0.08,-0.35,-0.00,-0.03,-0.04,
3.118,-0.11,-0.05,-0.32,-0.00,-0.03,-0.04,
3.119,-0.11,-0.05,-0.32,-0.00,-0.04,-0.04,
3.12,-0.11,-0.05,-0.32,-0.01,-0.04,-0.04,
3.121,-0.11,-0.05,-0.32,-0.00,-0.05,-0.04,
3.121,-0.11,-0.05,-0.32,-0.01,-0.05,-0.04,
3.122,-0.11,-0.05,-0.32,-0.01,-0.05,-0.04,
3.125,-0.11,-0.06,-0.29,-0.01,-0.05,-0.04,
3.126,-0.11,-0.06,-0.29,-0.01,-0.06,-0.04,
3.126,-0.11,-0.06,-0.29,-0.00,-0.06,-0.04,
3.131,-0.11,-0.06,-0.29,-0.00,-0.07,-0.04,
3.133,-0.11,-0.06,-0.29,-0.00,-0.07,-0.04,
3.168,-0.11,-0.06,-0.29,-0.00,-0.07,-0.04,
3.168,-0.05,-0.07,-0.29,-0.00,-0.07,-0.04,
3.169,-0.05,-0.07,-0.29,-0.00,-0.08,-0.04,
3.169,-0.05,-0.07,-0.29,-0.00,-0.08,-0.04,
3.17,-0.05,-0.07,-0.29,-0.00,-0.09,-0.04,
3.17,-0.05,-0.07,-0.29,-0.01,-0.09,-0.04,
3.17,-0.05,-0.07,-0.29,-0.01,-0.10,-0.04,
3.171,0.04,-0.08,-0.32,-0.01,-0.10,-0.04,
3.171,0.04,-0.08,-0.32,-0.01,-0.10,-0.04,
3.172,0.04,-0.08,-0.32,-0.01,-0.10,-0.04,
3.172,0.04,-0.08,-0.32,-0.01,-0.11,-0.05,
3.173,0.04,-0.08,-0.32,-0.01,-0.11,-0.05,
3.173,0.04,-0.08,-0.32,-0.01,-0.11,-0.06,
3.173,0.13,-0.03,-0.31,-0.01,-0.11,-0.06,
3.174,0.13,-0.03,-0.31,-0.01,-0.11,-0.06,
3.174,0.13,-0.03,-0.31,-0.02,-0.11,-0.06,
3.175,0.13,-0.03,-0.31,-0.02,-0.11,-0.07,
3.175,0.13,-0.03,-0.31,-0.02,-0.11,-0.07,
3.176,0.13,-0.03,-0.31,-0.02,-0.11,-0.08,
3.176,0.21,-0.04,-0.26,-0.02,-0.11,-0.08,
3.176,0.21,-0.04,-0.26,-0.02,-0.11,-0.08,
3.177,0.21,-0.04,-0.26,-0.03,-0.11,-0.09,
3.177,0.21,-0.04,-0.26,-0.03,-0.11,-0.09,
3.178,0.21,-0.04,-0.26,-0.03,-0.10,-0.09,
3.178,0.21,-0.04,-0.26,-0.03,-0.10,-0.10,
3.179,0.19,-0.03,-0.16,-0.03,-0.10,-0.10,
3.179,0.19,-0.03,-0.16,-0.03,-0.09,-0.10,
3.179,0.19,-0.03,-0.16,-0.03,-0.09,-0.10,
3.18,0.19,-0.03,-0.16,-0.03,-0.08,-0.10,
3.18,0.19,-0.03,-0.16,-0.03,-0.07,-0.10,
3.183,0.19,-0.03,-0.16,-0.03,-0.07,-0.10,
3.185,0.09,-0.02,-0.07,-0.03,-0.07,-0.10,
3.185,0.09,-0.02,-0.07,-0.04,-0.06,-0.10,
3.186,0.09,-0.02,-0.07,-0.04,-0.06,-0.10,
3.188,0.09,-0.02,-0.07,-0.04,-0.05,-0.10,
3.19,0.09,-0.02,-0.07,-0.04,-0.05,-0.10,
3.192,0.09,-0.02,-0.07,-0.04,-0.04,-0.09,
3.195,-0.02,-0.02,-0.06,-0.04,-0.04,-0.09,
3.196,-0.02,-0.02,-0.06,-0.04,-0.03,-0.09,
3.198,-0.02,-0.02,-0.06,-0.04,-0.03,-0.09,
3.199,-0.02,-0.02,-0.06,-0.04,-0.02,-0.09,
3.2,-0.02,-0.02,-0.06,-0.04,-0.02,-0.08,
3.203,-0.02,-0.02,-0.06,-0.04,-0.02,-0.08,
3.205,-0.08,-0.05,-0.02,-0.04,-0.02,-0.08,
3.205,-0.08,-0.05,-0.02,-0.04,-0.01,-0.08,
3.206,-0.08,-0.05,-0.02,-0.04,-0.01,-0.08,
3.208,-0.08,-0.05,-0.02,-0.03,-0.01,-0.07,
3.21,-0.08,-0.05,-0.02,-0.03,-0.01,-0.07,
3.231,-0.08,-0.05,-0.02,-0.03,-0.01,-0.07,
3.232,-0.07,-0.01,0.01,-0.03,-0.01,-0.07,
3.233,-0.07,-0.01,0.01,-0.03,-0.01,-0.07,
3.233,-0.07,-0.01,0.01,-0.03,-0.01,-0.07,
3.233,-0.07,-0.01,0.01,-0.02,-0.02,-0.07,
3.234,-0.07,-0.01,0.01,-0.03,-0.02,-0.07,
3.234,-0.07,-0.01,0.01,-0.03,-0.02,-0.07,
3.234,-0.06,0.00,-0.04,-0.03,-0.02,-0.07,
3.235,-0.06,0.00,-0.04,-0.03,-0.03,-0.07,
3.235,-0.06,0.00,-0.04,-0.03,-0.03,-0.07,
3.235,-0.06,0.00,-0.04,-0.03,-0.03,-0.07,
3.236,-0.06,0.00,-0.04,-0.03,-0.03,-0.07,
3.236,-0.06,0.00,-0.04,-0.03,-0.03,-0.07,
3.236,-0.03,-0.00,-0.08,-0.03,-0.03,-0.07,
3.237,-0.03,-0.00,-0.08,-0.04,-0.04,-0.07,
3.238,-0.03,-0.00,-0.08,-0.04,-0.04,-0.07,
3.24,-0.03,-0.00,-0.08,-0.04,-0.04,-0.07,
3.242,-0.03,-0.00,-0.08,-0.04,-0.04,-0.08,
3.261,-0.03,-0.00,-0.08,-0.04,-0.04,-0.08,
3.263,-0.01,-0.02,-0.07,-0.04,-0.04,-0.08,
3.264,-0.01,-0.02,-0.07,-0.05,-0.04,-0.08,
3.265,-0.01,-0.02,-0.07,-0.05,-0.04,-0.08,
3.267,-0.01,-0.02,-0.07,-0.05,-0.04,-0.08,
3.268,-0.01,-0.02,-0.07,-0.05,-0.04,-0.08,
3.269,-0.01,-0.02,-0.07,-0.05,-0.04,-0.08,
3.27,0.02,-0.04,0.01,-0.05,-0.04,-0.08,
3.271,0.02,-0.04,0.01,-0.05,-0.05,-0.09,
3.271,0.02,-0.04,0.01,-0.05,-0.05,-0.09,
3.272,0.02,-0.04,0.01,-0.05,-0.05,-0.09,
3.273,0.02,-0.04,0.01,-0.05,-0.05,-0.09,
3.273,0.02,-0.04,0.01,-0.05,-0.05,-0.09,
3.273,0.02,-0.04,0.13,-0.05,-0.05,-0.09,
3.274,0.02,-0.04,0.13,-0.05,-0.05,-0.09,
3.275,0.02,-0.04,0.13,-0.05,-0.05,-0.09,
3.276,0.02,-0.04,0.13,-0.04,-0.05,-0.09,
3.276,0.02,-0.04,0.13,-0.04,-0.05,-0.09,
3.277,0.02,-0.04,0.13,-0.03,-0.05,-0.09,
3.277,-0.08,-0.06,0.29,-0.03,-0.05,-0.09,
3.279,-0.08,-0.06,0.29,-0.03,-0.05,-0.09,
3.279,-0.08,-0.06,0.29,-0.02,-0.05,-0.09,
3.28,-0.08,-0.06,0.29,-0.02,-0.05,-0.08,
3.283,-0.08,-0.06,0.29,-0.01,-0.04,-0.08,
3.285,-0.08,-0.06,0.29,-0.00,-0.04,-0.08,
3.286,-0.18,-0.10,0.39,-0.00,-0.04,-0.08,
3.287,-0.18,-0.10,0.39,0.00,-0.04,-0.08,
3.288,-0.18,-0.10,0.39,0.01,-0.04,-0.07,
3.289,-0.18,-0.10,0.39,0.01,-0.04,-0.07,
3.291,-0.18,-0.10,0.39,0.02,-0.03,-0.07,
3.292,-0.18,-0.10,0.39,0.02,-0.03,-0.06,
3.295,-0.19,-0.07,0.34,0.02,-0.03,-0.06,
3.299,-0.19,-0.07,0.34,0.03,-0.03,-0.06,
3.301,-0.19,-0.07,0.34,0.03,-0.03,-0.06,
3.331,-0.19,-0.07,0.34,0.04,-0.03,-0.06,
3.332,-0.19,-0.07,0.34,0.04,-0.03,-0.06,
3.332,-0.19,-0.07,0.34,0.04,-0.03,-0.06,
3.332,-0.12,-0.04,0.23,0.04,-0.03,-0.06,
3.333,-0.12,-0.04,0.23,0.05,-0.03,-0.06,
3.333,-0.12,-0.04,0.23,0.05,-0.03,-0.06,
3.334,-0.12,-0.04,0.23,0.05,-0.03,-0.06,
3.334,-0.12,-0.04,0.23,0.05,-0.03,-0.06,
3.335,-0.12,-0.04,0.23,0.05,-0.03,-0.06,
3.335,-0.04,-0.01,-0.00,0.05,-0.03,-0.06,
3.336,-0.04,-0.01,-0.00,0.05,-0.03,-0.06,
3.336,-0.04,-0.01,-0.00,0.05,-0.03,-0.06,
3.336,-0.04,-0.01,-0.00,0.04,-0.03,-0.06,
3.337,-0.04,-0.01,-0.00,0.04,-0.03,-0.07,
3.337,-0.04,-0.01,-0.00,0.03,-0.03,-0.07,
3.338,0.01,0.03,-0.22,0.03,-0.03,-0.07,
3.338,0.01,0.03,-0.22,0.03,-0.03,-0.07,
3.339,0.01,0.03,-0.22,0.02,-0.03,-0.07,
3.339,0.01,0.03,-0.22,0.02,-0.04,-0.08,
3.339,0.01,0.03,-0.22,0.02,-0.04,-0.08,
3.34,0.01,0.03,-0.22,0.01,-0.04,-0.08,
3.34,-0.03,0.03,-0.31,0.01,-0.04,-0.08,
3.341,-0.03,0.03,-0.31,0.01,-0.04,-0.08,
3.341,-0.03,0.03,-0.31,0.00,-0.04,-0.08,
3.342,-0.03,0.03,-0.31,-0.00,-0.04,-0.08,
3.342,-0.03,0.03,-0.31,-0.00,-0.04,-0.08,
3.342,-0.03,0.03,-0.31,-0.01,-0.04,-0.08,
3.345,-0.13,0.03,-0.30,-0.01,-0.04,-0.08,
3.346,-0.13,0.03,-0.30,-0.01,-0.04,-0.08,
3.347,-0.13,0.03,-0.30,-0.02,-0.04,-0.07,
3.349,-0.13,0.03,-0.30,-0.02,-0.04,-0.07,
3.351,-0.13,0.03,-0.30,-0.03,-0.04,-0.07,
3.353,-0.13,0.03,-0.30,-0.03,-0.04,-0.07,
3.354,-0.20,0.02,-0.23,-0.03,-0.04,-0.07,
3.355,-0.20,0.02,-0.23,-0.03,-0.04,-0.06,
3.356,-0.20,0.02,-0.23,-0.03,-0.04,-0.06,
3.358,-0.20,0.02,-0.23,-0.04,-0.04,-0.06,
3.371,-0.20,0.02,-0.23,-0.03,-0.04,-0.06,
3.372,-0.20,0.02,-0.23,-0.03,-0.04,-0.06,
3.372,-0.19,-0.05,-0.13,-0.03,-0.04,-0.06,
3.372,-0.19,-0.05,-0.13,-0.04,-0.03,-0.05,
3.373,-0.19,-0.05,-0.13,-0.04,-0.03,-0.05,
3.373,-0.19,-0.05,-0.13,-0.03,-0.03,-0.05,
3.374,-0.19,-0.05,-0.13,-0.04,-0.02,-0.05,
3.374,-0.19,-0.05,-0.13,-0.03,-0.02,-0.05,
3.376,-0.12,-0.05,-0.10,-0.03,-0.02,-0.05,
3.377,-0.12,-0.05,-0.10,-0.03,-0.01,-0.05,
3.377,-0.12,-0.05,-0.10,-0.04,-0.01,-0.05,
3.4,-0.12,-0.05,-0.10,-0.04,-0.00,-0.05,
3.401,-0.12,-0.05,-0.10,-0.04,0.00,-0.05,
3.402,-0.12,-0.05,-0.10,-0.04,0.01,-0.05,
3.402,-0.07,-0.06,-0.09,-0.04,0.01,-0.05,
3.403,-0.07,-0.06,-0.09,-0.04,0.02,-0.04,
3.403,-0.07,-0.06,-0.09,-0.04,0.02,-0.04,
3.403,-0.07,-0.06,-0.09,-0.04,0.03,-0.04,
3.404,-0.07,-0.06,-0.09,-0.04,0.03,-0.04,
3.404,-0.07,-0.06,-0.09,-0.04,0.03,-0.05,
3.404,-0.02,-0.11,-0.05,-0.04,0.03,-0.05,
3.405,-0.02,-0.11,-0.05,-0.04,0.03,-0.04,
3.405,-0.02,-0.11,-0.05,-0.04,0.04,-0.04,
3.406,-0.02,-0.11,-0.05,-0.04,0.04,-0.04,
3.406,-0.02,-0.11,-0.05,-0.04,0.03,-0.04,
3.407,-0.02,-0.11,-0.05,-0.03,0.03,-0.04,
3.407,-0.06,-0.12,0.02,-0.03,0.03,-0.04,
3.408,-0.06,-0.12,0.02,-0.03,0.03,-0.04,
3.408,-0.06,-0.12,0.02,-0.02,0.02,-0.04,
3.409,-0.06,-0.12,0.02,-0.02,0.01,-0.04,
3.412,-0.06,-0.12,0.02,-0.01,0.01,-0.04,
3.417,-0.06,-0.12,0.02,-0.01,0.00,-0.04,
3.417,-0.13,-0.11,0.07,-0.01,0.00,-0.04,
3.418,-0.13,-0.11,0.07,-0.00,-0.00,-0.04,
3.418,-0.13,-0.11,0.07,0.00,-0.01,-0.04,
3.418,-0.13,-0.11,0.07,0.01,-0.01,-0.04,
3.42,-0.13,-0.11,0.07,0.01,-0.02,-0.04,
3.422,-0.13,-0.11,0.07,0.01,-0.03,-0.03,
3.425,-0.21,-0.08,0.01,0.01,-0.03,-0.03,
3.426,-0.21,-0.08,0.01,0.01,-0.03,-0.03,
3.427,-0.21,-0.08,0.01,0.02,-0.03,-0.03,
3.432,-0.21,-0.08,0.01,0.02,-0.04,-0.03,
3.434,-0.21,-0.08,0.01,0.02,-0.04,-0.03,
3.435,-0.21,-0.08,0.01,0.02,-0.04,-0.03,
3.436,-0.21,-0.07,-0.16,0.02,-0.04,-0.03,
3.436,-0.21,-0.07,-0.16,0.01,-0.05,-0.02,
3.437,-0.21,-0.07,-0.16,0.01,-0.05,-0.02,
3.439,-0.21,-0.07,-0.16,0.01,-0.05,-0.02,
3.44,-0.21,-0.07,-0.16,0.01,-0.05,-0.02,
3.442,-0.21,-0.07,-0.16,0.01,-0.05,-0.02,
3.446,-0.20,-0.06,-0.31,0.01,-0.05,-0.02,
3.448,-0.20,-0.06,-0.31,0.00,-0.05,-0.02,
3.448,-0.20,-0.06,-0.31,-0.00,-0.06,-0.01,
3.449,-0.20,-0.06,-0.31,-0.01,-0.06,-0.01,
3.45,-0.20,-0.06,-0.31,-0.01,-0.05,-0.01,
3.453,-0.20,-0.06,-0.31,-0.01,-0.06,-0.01,
3.455,-0.20,-0.03,-0.34,-0.01,-0.06,-0.01,
3.456,-0.20,-0.03,-0.34,-0.02,-0.05,-0.01,
3.457,-0.20,-0.03,-0.34,-0.02,-0.05,-0.01,
3.458,-0.20,-0.03,-0.34,-0.02,-0.05,-0.01,
3.462,-0.20,-0.03,-0.34,-0.03,-0.05,-0.01,
3.464,-0.20,-0.03,-0.34,-0.03,-0.05,-0.01,
3.466,-0.21,-0.04,-0.24,-0.03,-0.05,-0.01,
3.505,-0.21,-0.04,-0.24,-0.03,-0.04,-0.00,
3.505,-0.21,-0.04,-0.24,-0.03,-0.04,-0.00,
3.506,-0.21,-0.04,-0.24,-0.03,-0.03,-0.00,
3.506,-0.21,-0.04,-0.24,-0.03,-0.03,0.00,
3.507,-0.21,-0.04,-0.24,-0.03,-0.02,0.00,
3.507,-0.19,-0.04,-0.21,-0.03,-0.02,0.00,
3.508,-0.19,-0.04,-0.21,-0.04,-0.02,0.01,
3.508,-0.19,-0.04,-0.21,-0.04,-0.01,0.01,
3.509,-0.19,-0.04,-0.21,-0.04,-0.01,0.01,
3.509,-0.19,-0.04,-0.21,-0.04,-0.00,0.01,
3.51,-0.19,-0.04,-0.21,-0.04,0.00,0.01,
3.51,-0.14,-0.03,-0.19,-0.04,0.00,0.01,
3.511,-0.14,-0.03,-0.19,-0.05,0.01,0.01,
3.511,-0.14,-0.03,-0.19,-0.05,0.01,0.01,
3.512,-0.14,-0.03,-0.19,-0.05,0.02,0.01,
3.512,-0.14,-0.03,-0.19,-0.05,0.02,0.01,
3.513,-0.14,-0.03,-0.19,-0.05,0.02,0.01,
3.513,-0.09,-0.01,-0.15,-0.05,0.02,0.01,
3.514,-0.09,-0.01,-0.15,-0.05,0.03,0.01,
3.514,-0.09,-0.01,-0.15,-0.05,0.03,0.01,
3.515,-0.09,-0.01,-0.15,-0.05,0.03,0.01,
3.515,-0.09,-0.01,-0.15,-0.05,0.04,0.01,
3.516,-0.09,-0.01,-0.15,-0.05,0.04,0.01,
3.517,-0.10,-0.04,-0.13,-0.05,0.04,0.01,
3.517,-0.10,-0.04,-0.13,-0.06,0.04,0.01,
3.518,-0.10,-0.04,-0.13,-0.06,0.04,0.01,
3.518,-0.10,-0.04,-0.13,-0.06,0.05,0.01,
3.518,-0.10,-0.04,-0.13,-0.06,0.05,0.01,
3.519,-0.10,-0.04,-0.13,-0.06,0.05,0.02,
3.519,-0.13,-0.04,-0.13,-0.06,0.05,0.02,
3.52,-0.13,-0.04,-0.13,-0.06,0.06,0.02,
3.52,-0.13,-0.04,-0.13,-0.06,0.06,0.02,
3.521,-0.13,-0.04,-0.13,-0.06,0.06,0.02,
3.521,-0.13,-0.04,-0.13,-0.06,0.06,0.02,
3.533,-0.13,-0.04,-0.13,-0.06,0.06,0.02,
3.534,-0.16,-0.07,-0.11,-0.06,0.06,0.02,
3.535,-0.16,-0.07,-0.11,-0.06,0.06,0.02,
3.535,-0.16,-0.07,-0.11,-0.06,0.06,0.02,
3.535,-0.16,-0.07,-0.11,-0.06,0.06,0.02,
3.536,-0.16,-0.07,-0.11,-0.06,0.06,0.03,
3.536,-0.16,-0.07,-0.11,-0.06,0.06,0.03,
3.537,-0.08,-0.07,-0.08,-0.06,0.06,0.03,
3.537,-0.08,-0.07,-0.08,-0.05,0.06,0.03,
3.542,-0.08,-0.07,-0.08,-0.05,0.06,0.02,
3.543,-0.08,-0.07,-0.08,-0.05,0.05,0.02,
3.543,-0.08,-0.07,-0.08,-0.05,0.05,0.02,
3.543,-0.08,-0.07,-0.08,-0.05,0.05,0.02,
3.557,-0.03,-0.01,-0.10,-0.05,0.05,0.02,
3.558,-0.03,-0.01,-0.10,-0.05,0.05,0.02,
3.559,-0.03,-0.01,-0.10,-0.05,0.05,0.02,
3.559,-0.03,-0.01,-0.10,-0.05,0.05,0.02,
3.559,-0.03,-0.01,-0.10,-0.05,0.05,0.01,
3.56,-0.03,-0.01,-0.10,-0.05,0.04,0.01,
3.56,-0.03,0.02,-0.10,-0.05,0.04,0.01,
3.56,-0.03,0.02,-0.10,-0.05,0.04,0.01,
3.56,-0.03,0.02,-0.10,-0.05,0.04,0.01,
3.561,-0.03,0.02,-0.10,-0.05,0.04,0.01,
3.561,-0.03,0.02,-0.10,-0.04,0.04,0.01,
3.573,-0.03,0.02,-0.10,-0.04,0.04,0.01,
3.573,-0.03,0.02,-0.13,-0.04,0.04,0.01,
3.574,-0.03,0.02,-0.13,-0.04,0.04,0.01,
3.574,-0.03,0.02,-0.13,-0.04,0.04,0.01,
3.574,-0.03,0.02,-0.13,-0.04,0.04,0.01,
3.575,-0.03,0.02,-0.13,-0.04,0.04,0.01,
3.575,-0.03,0.02,-0.13,-0.04,0.04,0.01,
3.576,-0.05,0.04,-0.15,-0.04,0.04,0.01,
3.577,-0.05,0.04,-0.15,-0.04,0.04,0.01,
3.577,-0.05,0.04,-0.15,-0.04,0.04,0.01,
3.579,-0.05,0.04,-0.15,-0.04,0.03,0.01,
3.582,-0.05,0.04,-0.15,-0.04,0.03,0.01,
3.583,-0.05,0.04,-0.15,-0.04,0.03,0.01,
3.585,-0.05,0.04,-0.15,-0.04,0.03,0.01,
3.585,-0.05,0.04,-0.15,-0.04,0.03,0.00,
3.586,-0.05,0.04,-0.15,-0.04,0.02,0.00,
3.588,-0.05,0.04,-0.15,-0.04,0.02,0.00,
3.59,-0.05,0.04,-0.15,-0.04,0.02,0.01,
3.592,-0.05,0.04,-0.15,-0.04,0.02,0.00,
3.595,-0.09,0.07,-0.19,-0.04,0.02,0.00,
3.595,-0.09,0.07,-0.19,-0.04,0.02,0.01,
3.596,-0.09,0.07,-0.19,-0.04,0.01,0.01,
3.599,-0.09,0.07,-0.19,-0.04,0.01,0.01,
3.6,-0.09,0.07,-0.19,-0.04,0.01,0.01,
3.603,-0.09,0.07,-0.19,-0.05,0.01,0.01,
3.605,-0.11,0.08,-0.25,-0.05,0.01,0.01,
3.605,-0.11,0.08,-0.25,-0.05,0.01,0.01,
3.606,-0.11,0.08,-0.25,-0.05,0.01,0.01,
3.608,-0.11,0.08,-0.25,-0.06,0.01,0.01,
3.617,-0.11,0.08,-0.25,-0.06,0.01,0.01,
3.619,-0.11,0.08,-0.25,-0.07,0.01,0.01,
3.619,-0.04,0.06,-0.28,-0.07,0.01,0.01,
3.619,-0.04,0.06,-0.28,-0.07,0.01,0.01,
3.62,-0.04,0.06,-0.28,-0.08,0.01,0.01,
3.62,-0.04,0.06,-0.28,-0.08,0.01,0.01,
3.621,-0.04,0.06,-0.28,-0.09,0.01,0.01,
3.643,-0.04,0.06,-0.28,-0.10,0.02,0.01,
3.647,0.05,0.02,-0.32,-0.10,0.02,0.01,
3.648,0.05,0.02,-0.32,-0.11,0.03,0.01,
3.648,0.05,0.02,-0.32,-0.11,0.03,0.01,
3.649,0.05,0.02,-0.32,-0.12,0.04,0.01,
3.65,0.05,0.02,-0.32,-0.12,0.04,0.01,
3.685,0.05,0.02,-0.32,-0.13,0.04,0.01,
3.686,0.11,0.01,-0.24,-0.13,0.04,0.01,
3.686,0.11,0.01,-0.24,-0.14,0.05,0.01,
3.687,0.11,0.01,-0.24,-0.14,0.06,0.01,
3.688,0.11,0.01,-0.24,-0.14,0.06,0.01,
3.689,0.11,0.01,-0.24,-0.14,0.07,0.01,
3.69,0.11,0.01,-0.24,-0.15,0.07,0.01,
3.69,0.12,-0.02,-0.07,-0.15,0.07,0.01,
3.691,0.12,-0.02,-0.07,-0.14,0.08,0.01,
3.692,0.12,-0.02,-0.07,-0.14,0.09,0.01,
3.693,0.12,-0.02,-0.07,-0.15,0.09,0.01,
3.694,0.12,-0.02,-0.07,-0.14,0.10,0.01,
3.694,0.12,-0.02,-0.07,-0.14,0.10,0.01,
3.695,0.11,-0.05,0.04,-0.14,0.10,0.01,
3.696,0.11,-0.05,0.04,-0.14,0.11,0.01,
3.697,0.11,-0.05,0.04,-0.14,0.11,0.01,
3.698,0.11,-0.05,0.04,-0.14,0.12,0.01,
3.699,0.11,-0.05,0.04,-0.13,0.12,0.01,
3.699,0.11,-0.05,0.04,-0.13,0.12,0.01,
3.7,0.08,-0.03,0.10,-0.13,0.12,0.01,
3.701,0.08,-0.03,0.10,-0.13,0.13,0.02,
3.702,0.08,-0.03,0.10,-0.12,0.13,0.02,
3.703,0.08,-0.03,0.10,-0.12,0.13,0.02,
3.703,0.08,-0.03,0.10,-0.11,0.13,0.02,
3.706,0.08,-0.03,0.10,-0.10,0.12,0.02,
3.707,0.08,-0.02,0.18,-0.10,0.12,0.02,
3.707,0.08,-0.02,0.18,-0.09,0.12,0.02,
3.708,0.08,-0.02,0.18,-0.09,0.12,0.02,
3.708,0.08,-0.02,0.18,-0.08,0.12,0.02,
3.708,0.08,-0.02,0.18,-0.07,0.11,0.02,
3.709,0.08,-0.02,0.18,-0.06,0.11,0.02,
3.709,0.05,0.06,0.20,-0.06,0.11,0.02,
3.71,0.05,0.06,0.20,-0.05,0.11,0.02,
3.71,0.05,0.06,0.20,-0.04,0.10,0.02,
3.71,0.05,0.06,0.20,-0.04,0.09,0.02,
3.711,0.05,0.06,0.20,-0.03,0.09,0.02,
3.711,0.05,0.06,0.20,-0.02,0.08,0.02,
3.711,0.01,0.11,0.12,-0.02,0.08,0.02,
3.712,0.01,0.11,0.12,-0.01,0.07,0.02,
3.712,0.01,0.11,0.12,-0.01,0.07,0.03,
3.713,0.01,0.11,0.12,0.00,0.06,0.03,
3.713,0.01,0.11,0.12,0.01,0.05,0.03,
3.713,0.01,0.11,0.12,0.01,0.04,0.02,
3.714,0.04,0.15,-0.03,0.01,0.04,0.02,
3.714,0.04,0.15,-0.03,0.02,0.03,0.02,
3.714,0.04,0.15,-0.03,0.02,0.02,0.02,
3.715,0.04,0.15,-0.03,0.02,0.01,0.02,
3.715,0.04,0.15,-0.03,0.02,0.00,0.02,
3.716,0.04,0.15,-0.03,0.03,-0.01,0.02,
3.716,0.04,0.24,-0.19,0.03,-0.01,0.02,
3.716,0.04,0.24,-0.19,0.02,-0.01,0.02,
3.717,0.04,0.24,-0.19,0.02,-0.02,0.02,
3.721,0.04,0.24,-0.19,0.02,-0.02,0.02,
3.722,0.04,0.24,-0.19,0.02,-0.02,0.02,
3.73,0.04,0.24,-0.19,0.02,-0.02,0.02,
3.73,0.02,0.26,-0.31,0.02,-0.02,0.02,
3.731,0.02,0.26,-0.31,0.02,-0.02,0.02,
3.731,0.02,0.26,-0.31,0.02,-0.02,0.03,
3.731,0.02,0.26,-0.31,0.01,-0.01,0.03,
3.732,0.02,0.26,-0.31,0.01,-0.01,0.03,
3.734,0.02,0.26,-0.31,0.01,-0.00,0.03,
3.735,-0.02,0.32,-0.37,0.01,-0.00,0.03,
3.735,-0.02,0.32,-0.37,0.00,0.00,0.03,
3.736,-0.02,0.32,-0.37,0.00,0.01,0.03,
3.738,-0.02,0.32,-0.37,-0.00,0.01,0.04,
3.74,-0.02,0.32,-0.37,-0.01,0.02,0.04,
3.743,-0.02,0.32,-0.37,-0.01,0.03,0.04,
3.745,-0.06,0.36,-0.39,-0.01,0.03,0.04,
3.749,-0.06,0.36,-0.39,-0.01,0.03,0.04,
3.749,-0.06,0.36,-0.39,-0.02,0.03,0.05,
3.75,-0.06,0.36,-0.39,-0.02,0.04,0.05,
3.75,-0.06,0.36,-0.39,-0.02,0.04,0.05,
3.753,-0.06,0.36,-0.39,-0.03,0.05,0.05,
3.755,-0.04,0.39,-0.41,-0.03,0.05,0.05,
3.757,-0.04,0.39,-0.41,-0.03,0.05,0.06,
3.758,-0.04,0.39,-0.41,-0.03,0.05,0.06,
3.773,-0.04,0.39,-0.41,-0.03,0.05,0.06,
3.775,-0.04,0.39,-0.41,-0.03,0.05,0.06,
3.776,-0.04,0.39,-0.41,-0.03,0.04,0.06,
3.777,0.07,0.46,-0.41,-0.03,0.04,0.06,
3.777,0.07,0.46,-0.41,-0.04,0.04,0.06,
3.777,0.07,0.46,-0.41,-0.04,0.03,0.05,
3.778,0.07,0.46,-0.41,-0.04,0.02,0.05,
3.778,0.07,0.46,-0.41,-0.04,0.02,0.05,
3.779,0.07,0.46,-0.41,-0.04,0.01,0.04,
3.78,0.30,0.49,-0.42,-0.04,0.01,0.04,
3.781,0.30,0.49,-0.42,-0.04,-0.00,0.04,
3.781,0.30,0.49,-0.42,-0.05,-0.01,0.03,
3.781,0.30,0.49,-0.42,-0.05,-0.02,0.02,
3.782,0.30,0.49,-0.42,-0.04,-0.03,0.01,
3.797,0.30,0.49,-0.42,-0.04,-0.04,0.00,
3.798,0.48,0.59,-0.31,-0.04,-0.04,0.00,
3.799,0.48,0.59,-0.31,-0.04,-0.05,-0.00,
3.799,0.48,0.59,-0.31,-0.04,-0.06,-0.01,
3.799,0.48,0.59,-0.31,-0.04,-0.06,-0.02,
3.8,0.48,0.59,-0.31,-0.04,-0.07,-0.03,
3.8,0.48,0.59,-0.31,-0.03,-0.07,-0.04,
3.8,0.54,0.56,-0.12,-0.03,-0.07,-0.04,
3.8,0.54,0.56,-0.12,-0.03,-0.08,-0.04,
3.801,0.54,0.56,-0.12,-0.03,-0.08,-0.05,
3.83,0.54,0.56,-0.12,-0.02,-0.08,-0.06,
3.831,0.54,0.56,-0.12,-0.02,-0.09,-0.07,
3.831,0.54,0.56,-0.12,-0.02,-0.09,-0.07,
3.832,0.54,0.55,-0.08,-0.02,-0.09,-0.07,
3.832,0.54,0.55,-0.08,-0.02,-0.09,-0.08,
3.833,0.54,0.55,-0.08,-0.02,-0.08,-0.09,
3.833,0.54,0.55,-0.08,-0.02,-0.08,-0.09,
3.833,0.54,0.55,-0.08,-0.02,-0.08,-0.09,
3.834,0.54,0.55,-0.08,-0.03,-0.07,-0.10,
3.834,0.38,0.48,-0.03,-0.03,-0.07,-0.10,
3.835,0.38,0.48,-0.03,-0.03,-0.07,-0.09,
3.835,0.38,0.48,-0.03,-0.03,-0.06,-0.10,
3.836,0.38,0.48,-0.03,-0.03,-0.05,-0.10,
3.836,0.38,0.48,-0.03,-0.03,-0.05,-0.10,
3.836,0.38,0.48,-0.03,-0.02,-0.04,-0.09,
3.837,0.27,0.38,0.02,-0.02,-0.04,-0.09,
3.837,0.27,0.38,0.02,-0.03,-0.04,-0.09,
3.838,0.27,0.38,0.02,-0.03,-0.04,-0.09,
3.838,0.27,0.38,0.02,-0.02,-0.03,-0.09,
3.839,0.27,0.38,0.02,-0.02,-0.03,-0.10,
3.839,0.27,0.38,0.02,-0.02,-0.03,-0.09,
3.84,0.26,0.30,0.02,-0.02,-0.03,-0.09,
3.84,0.26,0.30,0.02,-0.02,-0.02,-0.10,
3.84,0.26,0.30,0.02,-0.02,-0.02,-0.10,
3.841,0.26,0.30,0.02,-0.02,-0.02,-0.10,
3.841,0.26,0.30,0.02,-0.02,-0.02,-0.10,
3.846,0.26,0.30,0.02,-0.02,-0.02,-0.10,
3.847,0.34,0.25,-0.11,-0.02,-0.02,-0.10,
3.852,0.34,0.25,-0.11,-0.03,-0.02,-0.10,
3.852,0.34,0.25,-0.11,-0.03,-0.02,-0.10,
3.853,0.34,0.25,-0.11,-0.03,-0.02,-0.10,
3.853,0.34,0.25,-0.11,-0.03,-0.02,-0.10,
3.853,0.34,0.25,-0.11,-0.04,-0.02,-0.11,
3.857,0.44,0.19,-0.30,-0.04,-0.02,-0.11,
3.858,0.44,0.19,-0.30,-0.04,-0.02,-0.11,
3.858,0.44,0.19,-0.30,-0.04,-0.03,-0.11,
3.86,0.44,0.19,-0.30,-0.05,-0.04,-0.12,
3.86,0.44,0.19,-0.30,-0.06,-0.04,-0.12,
3.862,0.44,0.19,-0.30,-0.06,-0.05,-0.12,
3.866,0.51,0.18,-0.40,-0.06,-0.05,-0.12,
3.866,0.51,0.18,-0.40,-0.07,-0.05,-0.12,
3.867,0.51,0.18,-0.40,-0.07,-0.06,-0.13,
3.868,0.51,0.18,-0.40,-0.08,-0.06,-0.13,
3.87,0.51,0.18,-0.40,-0.09,-0.07,-0.14,
3.872,0.51,0.18,-0.40,-0.09,-0.07,-0.14,
3.876,0.63,0.18,-0.42,-0.09,-0.07,-0.14,
3.877,0.63,0.18,-0.42,-0.10,-0.07,-0.14,
3.878,0.63,0.18,-0.42,-0.10,-0.07,-0.15,
3.878,0.63,0.18,-0.42,-0.11,-0.08,-0.16,
3.88,0.63,0.18,-0.42,-0.11,-0.08,-0.17,
3.882,0.63,0.18,-0.42,-0.11,-0.08,-0.17,
3.885,0.89,0.17,-0.30,-0.11,-0.08,-0.17,
3.886,0.89,0.17,-0.30,-0.12,-0.07,-0.18,
3.887,0.89,0.17,-0.30,-0.12,-0.07,-0.19,
3.889,0.89,0.17,-0.30,-0.12,-0.08,-0.19,
3.893,0.89,0.17,-0.30,-0.12,-0.08,-0.20,
3.893,0.89,0.17,-0.30,-0.11,-0.08,-0.21,
3.903,1.04,0.12,-0.13,-0.11,-0.08,-0.21,
3.904,1.04,0.12,-0.13,-0.11,-0.08,-0.22,
3.905,1.04,0.12,-0.13,-0.11,-0.08,-0.23,
3.905,1.04,0.12,-0.13,-0.11,-0.08,-0.24,
3.905,1.04,0.12,-0.13,-0.10,-0.09,-0.25,
3.905,1.04,0.12,-0.13,-0.10,-0.09,-0.26,
3.906,1.15,0.08,0.01,-0.10,-0.09,-0.26,
3.906,1.15,0.08,0.01,-0.09,-0.10,-0.27,
3.906,1.15,0.08,0.01,-0.08,-0.11,-0.28,
3.909,1.15,0.08,0.01,-0.08,-0.11,-0.29,
3.925,1.15,0.08,0.01,-0.07,-0.12,-0.30,
3.927,1.15,0.08,0.01,-0.06,-0.14,-0.32,
3.927,1.13,0.02,0.07,-0.06,-0.14,-0.32,
3.928,1.13,0.02,0.07,-0.05,-0.15,-0.33,
3.928,1.13,0.02,0.07,-0.04,-0.16,-0.33,
3.929,1.13,0.02,0.07,-0.03,-0.17,-0.34,
3.929,1.13,0.02,0.07,-0.02,-0.19,-0.35,
3.93,1.13,0.02,0.07,-0.01,-0.20,-0.36,
3.93,1.07,-0.03,0.10,-0.01,-0.20,-0.36,
3.93,1.07,-0.03,0.10,0.00,-0.21,-0.37,
3.931,1.07,-0.03,0.10,0.01,-0.24,-0.38,
3.931,1.07,-0.03,0.10,0.03,-0.25,-0.39,
3.931,1.07,-0.03,0.10,0.03,-0.26,-0.39,
3.932,1.07,-0.03,0.10,0.04,-0.27,-0.40,
3.935,0.96,-0.11,-0.06,0.04,-0.27,-0.40,
3.936,0.96,-0.11,-0.06,0.05,-0.28,-0.41,
3.936,0.96,-0.11,-0.06,0.05,-0.30,-0.42,
3.939,0.96,-0.11,-0.06,0.05,-0.31,-0.42,
3.94,0.96,-0.11,-0.06,0.06,-0.33,-0.43,
3.942,0.96,-0.11,-0.06,0.05,-0.34,-0.44,
3.945,0.89,-0.12,-0.39,0.05,-0.34,-0.44,
3.947,0.89,-0.12,-0.39,0.05,-0.35,-0.45,
3.947,0.89,-0.12,-0.39,0.05,-0.36,-0.45,
3.952,0.89,-0.12,-0.39,0.04,-0.37,-0.46,
3.953,0.89,-0.12,-0.39,0.03,-0.38,-0.46,
3.953,0.89,-0.12,-0.39,0.02,-0.39,-0.47,
3.955,0.85,-0.15,-0.76,0.02,-0.39,-0.47,
3.956,0.85,-0.15,-0.76,0.01,-0.39,-0.47,
3.957,0.85,-0.15,-0.76,0.00,-0.40,-0.48,
3.959,0.85,-0.15,-0.76,-0.01,-0.41,-0.49,
3.961,0.85,-0.15,-0.76,-0.03,-0.42,-0.50,
3.963,0.85,-0.15,-0.76,-0.04,-0.42,-0.50,
3.965,0.91,-0.18,-1.00,-0.04,-0.42,-0.50,
3.996,0.91,-0.18,-1.00,-0.06,-0.43,-0.51,
3.997,0.91,-0.18,-1.00,-0.07,-0.43,-0.52,
3.997,0.91,-0.18,-1.00,-0.09,-0.44,-0.52,
3.998,0.91,-0.18,-1.00,-0.10,-0.44,-0.53,
3.998,0.91,-0.18,-1.00,-0.11,-0.45,-0.54,
3.999,0.92,-0.20,-0.97,-0.11,-0.45,-0.54,
3.999,0.92,-0.20,-0.97,-0.13,-0.45,-0.54,
4.0,0.92,-0.20,-0.97,-0.14,-0.46,-0.55,
4.0,0.92,-0.20,-0.97,-0.15,-0.46,-0.56,
4.001,0.92,-0.20,-0.97,-0.16,-0.47,-0.57,
4.001,0.92,-0.20,-0.97,-0.16,-0.48,-0.58,
4.002,1.06,-0.20,-0.68,-0.16,-0.48,-0.58,
4.002,1.06,-0.20,-0.68,-0.17,-0.48,-0.59,
4.003,1.06,-0.20,-0.68,-0.17,-0.49,-0.60,
4.003,1.06,-0.20,-0.68,-0.17,-0.50,-0.62,
4.004,1.06,-0.20,-0.68,-0.17,-0.51,-0.63,
4.004,1.06,-0.20,-0.68,-0.16,-0.51,-0.64,
4.004,1.19,-0.19,-0.20,-0.16,-0.51,-0.64,
4.005,1.19,-0.19,-0.20,-0.16,-0.52,-0.66,
4.005,1.19,-0.19,-0.20,-0.15,-0.53,-0.67,
4.006,1.19,-0.19,-0.20,-0.14,-0.53,-0.69,
4.006,1.19,-0.19,-0.20,-0.14,-0.54,-0.70,
4.007,1.19,-0.19,-0.20,-0.13,-0.55,-0.72,
4.007,1.29,-0.21,0.11,-0.13,-0.55,-0.72,
4.007,1.29,-0.21,0.11,-0.12,-0.55,-0.74,
4.008,1.29,-0.21,0.11,-0.11,-0.56,-0.75,
4.008,1.29,-0.21,0.11,-0.10,-0.57,-0.77,
4.011,1.29,-0.21,0.11,-0.09,-0.58,-0.78,
4.013,1.29,-0.21,0.11,-0.08,-0.58,-0.80,
4.015,1.21,-0.29,0.19,-0.08,-0.58,-0.80,
4.015,1.21,-0.29,0.19,-0.07,-0.59,-0.81,
4.016,1.21,-0.29,0.19,-0.06,-0.60,-0.82,
4.018,1.21,-0.29,0.19,-0.06,-0.61,-0.83,
4.02,1.21,-0.29,0.19,-0.05,-0.61,-0.84,
4.022,1.21,-0.29,0.19,-0.05,-0.62,-0.86,
4.026,1.00,-0.38,0.11,-0.05,-0.62,-0.86,
4.027,1.00,-0.38,0.11,-0.04,-0.64,-0.87,
4.027,1.00,-0.38,0.11,-0.03,-0.65,-0.88,
4.029,1.00,-0.38,0.11,-0.03,-0.66,-0.88,
4.031,1.00,-0.38,0.11,-0.03,-0.68,-0.90,
4.032,1.00,-0.38,0.11,-0.02,-0.70,-0.91,
4.035,0.84,-0.45,-0.01,-0.02,-0.70,-0.91,
4.036,0.84,-0.45,-0.01,-0.02,-0.71,-0.92,
4.037,0.84,-0.45,-0.01,-0.02,-0.73,-0.93,
4.038,0.84,-0.45,-0.01,-0.01,-0.74,-0.94,
4.057,0.84,-0.45,-0.01,-0.01,-0.76,-0.95,
4.062,0.84,-0.45,-0.01,-0.01,-0.78,-0.96,
4.062,0.73,-0.49,-0.13,-0.01,-0.78,-0.96,
4.063,0.73,-0.49,-0.13,-0.01,-0.79,-0.97,
4.063,0.73,-0.49,-0.13,-0.01,-0.81,-0.98,
4.064,0.73,-0.49,-0.13,-0.01,-0.83,-0.99,
4.064,0.73,-0.49,-0.13,-0.01,-0.84,-1.00,
4.064,0.73,-0.49,-0.13,-0.01,-0.86,-1.01,
4.064,0.63,-0.51,-0.23,-0.01,-0.86,-1.01,
4.065,0.63,-0.51,-0.23,-0.01,-0.88,-1.02,
4.065,0.63,-0.51,-0.23,-0.01,-0.90,-1.03,
4.065,0.63,-0.51,-0.23,-0.01,-0.92,-1.04,
4.066,0.63,-0.51,-0.23,-0.01,-0.94,-1.05,
4.066,0.63,-0.51,-0.23,-0.01,-0.97,-1.05,
4.066,0.48,-0.58,-0.25,-0.01,-0.97,-1.05,
4.067,0.48,-0.58,-0.25,-0.01,-0.99,-1.06,
4.067,0.48,-0.58,-0.25,-0.01,-1.01,-1.07,
4.07,0.48,-0.58,-0.25,-0.02,-1.04,-1.08,
4.072,0.48,-0.58,-0.25,-0.02,-1.06,-1.08,
4.072,0.48,-0.58,-0.25,-0.02,-1.08,-1.09,
4.08,0.31,-0.65,-0.28,-0.02,-1.08,-1.09,
4.082,0.31,-0.65,-0.28,-0.02,-1.10,-1.09,
4.082,0.31,-0.65,-0.28,-0.02,-1.12,-1.10,
4.083,0.31,-0.65,-0.28,-0.03,-1.14,-1.11,
4.083,0.31,-0.65,-0.28,-0.03,-1.16,-1.11,
4.084,0.31,-0.65,-0.28,-0.03,-1.18,-1.12,
4.085,0.22,-0.74,-0.31,-0.03,-1.18,-1.12,
4.086,0.22,-0.74,-0.31,-0.04,-1.20,-1.12,
4.086,0.22,-0.74,-0.31,-0.04,-1.21,-1.13,
4.088,0.22,-0.74,-0.31,-0.04,-1.23,-1.14,
4.092,0.22,-0.74,-0.31,-0.05,-1.25,-1.14,
4.095,0.22,-0.74,-0.31,-0.05,-1.26,-1.15,
4.096,0.28,-0.83,-0.33,-0.05,-1.26,-1.15,
4.097,0.28,-0.83,-0.33,-0.06,-1.27,-1.16,
4.097,0.28,-0.83,-0.33,-0.06,-1.28,-1.16,
4.099,0.28,-0.83,-0.33,-0.07,-1.29,-1.17,
4.101,0.28,-0.83,-0.33,-0.08,-1.30,-1.18,
4.103,0.28,-0.83,-0.33,-0.08,-1.30,-1.19,
4.105,0.39,-0.97,-0.37,-0.08,-1.30,-1.19,
4.106,0.39,-0.97,-0.37,-0.09,-1.31,-1.20,
4.107,0.39,-0.97,-0.37,-0.10,-1.31,-1.21,
4.114,0.39,-0.97,-0.37,-0.11,-1.31,-1.21,
4.117,0.39,-0.97,-0.37,-0.12,-1.31,-1.22,
4.118,0.39,-0.97,-0.37,-0.12,-1.31,-1.24,
4.119,0.43,-1.03,-0.26,-0.12,-1.31,-1.24,
4.12,0.43,-1.03,-0.26,-0.13,-1.31,-1.25,
4.121,0.43,-1.03,-0.26,-0.13,-1.31,-1.26,
4.122,0.43,-1.03,-0.26,-0.14,-1.31,-1.27,
4.122,0.43,-1.03,-0.26,-0.14,-1.31,-1.28,
4.123,0.43,-1.03,-0.26,-0.14,-1.31,-1.29,
4.13,0.32,-1.14,-0.14,-0.14,-1.31,-1.29,
4.133,0.32,-1.14,-0.14,-0.14,-1.32,-1.29,
4.133,0.32,-1.14,-0.14,-0.14,-1.32,-1.30,
4.134,0.32,-1.14,-0.14,-0.15,-1.33,-1.31,
4.135,0.32,-1.14,-0.14,-0.15,-1.34,-1.32,
4.165,0.32,-1.14,-0.14,-0.15,-1.35,-1.32,
4.165,0.21,-1.23,-0.16,-0.15,-1.35,-1.32,
4.166,0.21,-1.23,-0.16,-0.15,-1.36,-1.33,
4.166,0.21,-1.23,-0.16,-0.15,-1.38,-1.34,
4.166,0.21,-1.23,-0.16,-0.15,-1.40,-1.34,
4.167,0.21,-1.23,-0.16,-0.15,-1.42,-1.35,
4.167,0.21,-1.23,-0.16,-0.15,-1.45,-1.36,
4.167,0.10,-1.27,-0.08,-0.15,-1.45,-1.36,
4.167,0.10,-1.27,-0.08,-0.14,-1.47,-1.37,
4.168,0.10,-1.27,-0.08,-0.14,-1.49,-1.37,
4.168,0.10,-1.27,-0.08,-0.14,-1.52,-1.38,
4.168,0.10,-1.27,-0.08,-0.13,-1.55,-1.38,
4.169,0.10,-1.27,-0.08,-0.13,-1.58,-1.39,
4.169,-0.08,-1.24,-0.11,-0.13,-1.58,-1.39,
4.169,-0.08,-1.24,-0.11,-0.12,-1.61,-1.40,
4.169,-0.08,-1.24,-0.11,-0.12,-1.63,-1.41,
4.17,-0.08,-1.24,-0.11,-0.11,-1.66,-1.41,
4.17,-0.08,-1.24,-0.11,-0.11,-1.69,-1.42,
4.17,-0.08,-1.24,-0.11,-0.11,-1.72,-1.43,
4.17,-0.05,-1.21,-0.23,-0.11,-1.72,-1.43,
4.171,-0.05,-1.21,-0.23,-0.11,-1.74,-1.44,
4.171,-0.05,-1.21,-0.23,-0.11,-1.77,-1.45,
4.171,-0.05,-1.21,-0.23,-0.11,-1.79,-1.47,
4.172,-0.05,-1.21,-0.23,-0.11,-1.80,-1.49,
4.174,-0.05,-1.21,-0.23,-0.12,-1.81,-1.51,
4.176,0.20,-1.37,-0.45,-0.12,-1.81,-1.51,
4.177,0.20,-1.37,-0.45,-0.12,-1.83,-1.52,
4.177,0.20,-1.37,-0.45,-0.12,-1.87,-1.54,
4.179,0.20,-1.37,-0.45,-0.13,-1.90,-1.56,
4.18,0.20,-1.37,-0.45,-0.13,-1.92,-1.56,
4.182,0.20,-1.37,-0.45,-0.13,-1.95,-1.57,
4.185,0.06,-1.22,-0.40,-0.13,-1.95,-1.57,
4.185,0.06,-1.22,-0.40,-0.13,-1.98,-1.58,
4.186,0.06,-1.22,-0.40,-0.14,-2.02,-1.59,
4.188,0.06,-1.22,-0.40,-0.14,-2.05,-1.60,
4.19,0.06,-1.22,-0.40,-0.14,-2.09,-1.61,
4.193,0.06,-1.22,-0.40,-0.14,-2.13,-1.62,
4.195,-0.18,-1.05,-0.26,-0.14,-2.13,-1.62,
4.196,-0.18,-1.05,-0.26,-0.14,-2.16,-1.62,
4.196,-0.18,-1.05,-0.26,-0.14,-2.19,-1.63,
4.199,-0.18,-1.05,-0.26,-0.14,-2.22,-1.64,
4.2,-0.18,-1.05,-0.26,-0.14,-2.25,-1.65,
4.202,-0.18,-1.05,-0.26,-0.14,-2.27,-1.66,
4.205,-0.49,-1.14,-0.15,-0.14,-2.27,-1.66,
4.205,-0.49,-1.14,-0.15,-0.14,-2.29,-1.66,
4.212,-0.49,-1.14,-0.15,-0.14,-2.30,-1.67,
4.213,-0.49,-1.14,-0.15,-0.14,-2.31,-1.67,
4.213,-0.49,-1.14,-0.15,-0.13,-2.32,-1.67,
4.213,-0.49,-1.14,-0.15,-0.13,-2.33,-1.67,
4.215,-0.75,-1.24,-0.01,-0.13,-2.33,-1.67,
4.216,-0.75,-1.24,-0.01,-0.13,-2.34,-1.67,
4.221,-0.75,-1.24,-0.01,-0.12,-2.35,-1.66,
4.221,-0.75,-1.24,-0.01,-0.12,-2.38,-1.66,
4.221,-0.75,-1.24,-0.01,-0.12,-2.39,-1.65,
4.223,-0.75,-1.24,-0.01,-0.12,-2.41,-1.65,
4.233,-0.88,-1.22,0.10,-0.12,-2.41,-1.65,
4.233,-0.88,-1.22,0.10,-0.12,-2.43,-1.64,
4.234,-0.88,-1.22,0.10,-0.12,-2.45,-1.64,
4.234,-0.88,-1.22,0.10,-0.12,-2.46,-1.63,
4.234,-0.88,-1.22,0.10,-0.13,-2.48,-1.63,
4.234,-0.88,-1.22,0.10,-0.14,-2.48,-1.63,
4.235,-0.72,-1.00,-0.03,-0.14,-2.48,-1.63,
4.235,-0.72,-1.00,-0.03,-0.14,-2.48,-1.64,
4.236,-0.72,-1.00,-0.03,-0.15,-2.48,-1.64,
4.238,-0.72,-1.00,-0.03,-0.16,-2.48,-1.65,
4.245,-0.72,-1.00,-0.03,-0.16,-2.48,-1.65,
4.247,-0.72,-1.00,-0.03,-0.17,-2.47,-1.66,
4.247,-0.52,-0.77,-0.04,-0.17,-2.47,-1.66,
4.248,-0.52,-0.77,-0.04,-0.18,-2.47,-1.67,
4.248,-0.52,-0.77,-0.04,-0.19,-2.46,-1.68,
4.249,-0.52,-0.77,-0.04,-0.19,-2.45,-1.69,
4.25,-0.52,-0.77,-0.04,-0.20,-2.45,-1.69,
4.252,-0.52,-0.77,-0.04,-0.21,-2.45,-1.70,
4.255,-0.48,-0.69,-0.07,-0.21,-2.45,-1.70,
4.256,-0.48,-0.69,-0.07,-0.22,-2.45,-1.72,
4.256,-0.48,-0.69,-0.07,-0.22,-2.45,-1.72,
4.259,-0.48,-0.69,-0.07,-0.23,-2.46,-1.74,
4.26,-0.48,-0.69,-0.07,-0.24,-2.47,-1.74,
4.262,-0.48,-0.69,-0.07,-0.24,-2.48,-1.75,
4.265,-0.73,-0.69,-0.19,-0.24,-2.48,-1.75,
4.265,-0.73,-0.69,-0.19,-0.26,-2.51,-1.77,
4.266,-0.73,-0.69,-0.19,-0.26,-2.52,-1.77,
4.268,-0.73,-0.69,-0.19,-0.27,-2.55,-1.78,
4.27,-0.73,-0.69,-0.19,-0.28,-2.58,-1.78,
4.272,-0.73,-0.69,-0.19,-0.28,-2.61,-1.78,
4.276,-1.14,-0.65,-0.33,-0.28,-2.61,-1.78,
4.277,-1.14,-0.65,-0.33,-0.30,-2.67,-1.78,
4.278,-1.14,-0.65,-0.33,-0.30,-2.71,-1.78,
4.279,-1.14,-0.65,-0.33,-0.31,-2.75,-1.78,
4.28,-1.14,-0.65,-0.33,-0.32,-2.78,-1.78,
4.282,-1.14,-0.65,-0.33,-0.32,-2.84,-1.77,
4.285,-1.62,-0.66,-0.45,-0.32,-2.84,-1.77,
4.285,-1.62,-0.66,-0.45,-0.34,-2.93,-1.77,
4.286,-1.62,-0.66,-0.45,-0.35,-2.97,-1.77,
4.288,-1.62,-0.66,-0.45,-0.35,-3.25,-1.76,
4.291,-1.62,-0.66,-0.45,-0.36,-3.35,-1.76,
4.293,-1.62,-0.66,-0.45,-0.36,-3.49,-1.77,
4.295,-1.33,-0.55,-0.55,-0.36,-3.49,-1.77,
4.295,-1.33,-0.55,-0.55,-0.38,-3.60,-1.80,
4.296,-1.33,-0.55,-0.55,-0.39,-3.63,-1.82,
4.332,-1.33,-0.55,-0.55,-0.42,-3.63,-1.85,
4.332,-1.33,-0.55,-0.55,-0.44,-3.62,-1.86,
4.333,-1.33,-0.55,-0.55,-0.50,-3.57,-1.88,
4.333,-1.27,-1.45,-1.00,-0.50,-3.57,-1.88,
4.334,-1.27,-1.45,-1.00,-0.61,-3.50,-1.91,
4.335,-1.27,-1.45,-1.00,-0.65,-3.48,-1.92,
4.335,-1.27,-1.45,-1.00,-0.74,-3.45,-1.92,
4.336,-1.27,-1.45,-1.00,-0.78,-3.45,-1.92,
4.337,-1.27,-1.45,-1.00,-0.80,-3.45,-1.92,
4.337,-1.26,-1.01,-0.31,-0.80,-3.45,-1.92,
4.338,-1.26,-1.01,-0.31,-0.82,-3.46,-1.91,
4.339,-1.26,-1.01,-0.31,-0.83,-3.46,-1.91,
4.339,-1.26,-1.01,-0.31,-0.83,-3.46,-1.91,
4.34,-1.26,-1.01,-0.31,-0.83,-3.45,-1.92,
4.341,-1.26,-1.01,-0.31,-0.83,-3.45,-1.93,
4.341,-1.07,-0.11,0.81,-0.83,-3.45,-1.93,
4.341,-1.07,-0.11,0.81,-0.83,-3.45,-1.94,
4.342,-1.07,-0.11,0.81,-0.83,-3.45,-1.96,
4.343,-1.07,-0.11,0.81,-0.84,-3.45,-1.98,
4.343,-1.07,-0.11,0.81,-0.85,-3.46,-2.01,
4.343,-1.07,-0.11,0.81,-0.86,-3.47,-2.04,
4.344,-0.67,-0.41,1.43,-0.86,-3.47,-2.04,
4.345,-0.67,-0.41,1.43,-0.87,-3.47,-2.06,
4.345,-0.67,-0.41,1.43,-0.89,-3.48,-2.08,
4.346,-0.67,-0.41,1.43,-0.90,-3.48,-2.09,
4.347,-0.67,-0.41,1.43,-0.91,-3.48,-2.10,
4.347,-0.67,-0.41,1.43,-0.93,-3.47,-2.10,
4.347,-0.94,-1.24,1.38,-0.93,-3.47,-2.10,
4.348,-0.94,-1.24,1.38,-0.94,-3.45,-2.10,
4.349,-0.94,-1.24,1.38,-0.95,-3.42,-2.10,
4.35,-0.94,-1.24,1.38,-0.97,-3.39,-2.10,
4.352,-0.94,-1.24,1.38,-0.99,-3.36,-2.08,
4.353,-0.94,-1.24,1.38,-1.01,-3.32,-2.07,
4.368,-1.59,-1.48,1.19,-1.01,-3.32,-2.07,
4.37,-1.59,-1.48,1.19,-1.04,-3.29,-2.05,
4.37,-1.59,-1.48,1.19,-1.07,-3.25,-2.03,
4.371,-1.59,-1.48,1.19,-1.11,-3.24,-2.01,
4.372,-1.59,-1.48,1.19,-1.15,-3.29,-1.98,
4.373,-1.59,-1.48,1.19,-1.19,-3.34,-1.95,
4.373,-1.67,-1.79,0.60,-1.19,-3.34,-1.95,
4.374,-1.67,-1.79,0.60,-1.23,-3.38,-1.93,
4.374,-1.67,-1.79,0.60,-1.27,-3.40,-1.91,
4.375,-1.67,-1.79,0.60,-1.31,-3.42,-1.90,
4.376,-1.67,-1.79,0.60,-1.34,-3.42,-1.89,
4.376,-1.67,-1.79,0.60,-1.36,-3.41,-1.88,
4.395,-1.96,-1.25,1.03,-1.36,-3.41,-1.88,
4.396,-1.96,-1.25,1.03,-1.37,-3.38,-1.87,
4.396,-1.96,-1.25,1.03,-1.38,-3.34,-1.86,
4.397,-1.96,-1.25,1.03,-1.38,-3.30,-1.85,
4.397,-1.96,-1.25,1.03,-1.38,-3.25,-1.83,
4.397,-1.96,-1.25,1.03,-1.37,-3.20,-1.81,
4.398,-2.33,-0.78,2.19,-1.37,-3.20,-1.81,
4.398,-2.33,-0.78,2.19,-1.37,-3.17,-1.79,
4.398,-2.33,-0.78,2.19,-1.35,-3.15,-1.77,
4.399,-2.33,-0.78,2.19,-1.34,-3.14,-1.75,
4.399,-2.33,-0.78,2.19,-1.32,-3.14,-1.73,
4.399,-2.33,-0.78,2.19,-1.30,-3.15,-1.73,
4.4,-1.83,-0.75,2.91,-1.30,-3.15,-1.73,
4.4,-1.83,-0.75,2.91,-1.27,-3.17,-1.72,
4.4,-1.83,-0.75,2.91,-1.24,-3.18,-1.72,
4.4,-1.83,-0.75,2.91,-1.20,-3.20,-1.73,
4.401,-1.83,-0.75,2.91,-1.16,-3.22,-1.74,
4.402,-1.83,-0.75,2.91,-1.11,-3.24,-1.75,
4.408,-1.32,-0.79,3.68,-1.11,-3.24,-1.75,
4.408,-1.32,-0.79,3.68,-1.06,-3.26,-1.77,
4.408,-1.32,-0.79,3.68,-1.00,-3.27,-1.79,
4.409,-1.32,-0.79,3.68,-0.95,-3.29,-1.81,
4.41,-1.32,-0.79,3.68,-0.89,-3.30,-1.83,
4.413,-1.32,-0.79,3.68,-0.83,-3.31,-1.85,
4.415,-1.18,-0.72,4.18,-0.83,-3.31,-1.85,
4.415,-1.18,-0.72,4.18,-0.77,-3.32,-1.87,
4.416,-1.18,-0.72,4.18,-0.72,-3.34,-1.89,
4.418,-1.18,-0.72,4.18,-0.66,-3.35,-1.91,
4.42,-1.18,-0.72,4.18,-0.60,-3.36,-1.92,
4.426,-1.18,-0.72,4.18,-0.55,-3.36,-1.93,
4.427,-1.79,-0.41,4.28,-0.55,-3.36,-1.93,
4.428,-1.79,-0.41,4.28,-0.50,-3.37,-1.94,
4.429,-1.79,-0.41,4.28,-0.46,-3.38,-1.94,
4.429,-1.79,-0.41,4.28,-0.43,-3.39,-1.94,
4.431,-1.79,-0.41,4.28,-0.40,-3.40,-1.94,
4.432,-1.79,-0.41,4.28,-0.38,-3.41,-1.94,
4.436,-2.53,-0.36,3.26,-0.38,-3.41,-1.94,
4.436,-2.53,-0.36,3.26,-0.36,-3.42,-1.93,
4.437,-2.53,-0.36,3.26,-0.36,-3.44,-1.93,
4.439,-2.53,-0.36,3.26,-0.36,-3.45,-1.92,
4.441,-2.53,-0.36,3.26,-0.36,-3.45,-1.91,
4.442,-2.53,-0.36,3.26,-0.37,-3.44,-1.90,
4.446,-3.20,-0.42,2.00,-0.37,-3.44,-1.90,
4.446,-3.20,-0.42,2.00,-0.38,-3.42,-1.88,
4.447,-3.20,-0.42,2.00,-0.39,-3.40,-1.87,
4.449,-3.20,-0.42,2.00,-0.40,-3.37,-1.84,
4.45,-3.20,-0.42,2.00,-0.42,-3.35,-1.82,
4.453,-3.20,-0.42,2.00,-0.43,-3.32,-1.80,
4.469,-3.89,-0.15,1.21,-0.43,-3.32,-1.80,
4.47,-3.89,-0.15,1.21,-0.45,-3.29,-1.77,
4.47,-3.89,-0.15,1.21,-0.47,-3.27,-1.75,
4.471,-3.89,-0.15,1.21,-0.49,-3.25,-1.72,
4.471,-3.89,-0.15,1.21,-0.51,-3.23,-1.70,
4.471,-3.89,-0.15,1.21,-0.53,-3.21,-1.67,
4.472,-4.41,0.11,1.24,-0.53,-3.21,-1.67,
4.513,-4.41,0.11,1.24,-0.55,-3.19,-1.65,
4.513,-4.41,0.11,1.24,-0.56,-3.18,-1.62,
4.514,-4.41,0.11,1.24,-0.57,-3.16,-1.60,
4.514,-4.41,0.11,1.24,-0.57,-3.15,-1.57,
4.514,-4.41,0.11,1.24,-0.58,-3.15,-1.55,
4.515,-4.33,0.19,1.67,-0.58,-3.15,-1.55,
4.515,-4.33,0.19,1.67,-0.57,-3.14,-1.53,
4.516,-4.33,0.19,1.67,-0.57,-3.13,-1.51,
4.516,-4.33,0.19,1.67,-0.56,-3.12,-1.49,
4.517,-4.33,0.19,1.67,-0.55,-3.11,-1.48,
4.517,-4.33,0.19,1.67,-0.54,-3.10,-1.47,
4.517,-4.04,0.08,2.29,-0.54,-3.10,-1.47,
4.518,-4.04,0.08,2.29,-0.53,-3.10,-1.46,
4.518,-4.04,0.08,2.29,-0.51,-3.09,-1.45,
4.519,-4.04,0.08,2.29,-0.50,-3.09,-1.44,
4.519,-4.04,0.08,2.29,-0.48,-3.09,-1.44,
4.52,-4.04,0.08,2.29,-0.47,-3.09,-1.45,
4.52,-3.50,-0.18,2.73,-0.47,-3.09,-1.45,
4.521,-3.50,-0.18,2.73,-0.45,-3.09,-1.45,
4.521,-3.50,-0.18,2.73,-0.43,-3.10,-1.46,
4.521,-3.50,-0.18,2.73,-0.42,-3.10,-1.46,
4.522,-3.50,-0.18,2.73,-0.40,-3.10,-1.47,
4.522,-3.50,-0.18,2.73,-0.38,-3.11,-1.47,
4.523,-3.50,-0.25,3.00,-0.38,-3.11,-1.47,
4.523,-3.50,-0.25,3.00,-0.37,-3.11,-1.46,
4.524,-3.50,-0.25,3.00,-0.35,-3.11,-1.46,
4.524,-3.50,-0.25,3.00,-0.34,-3.11,-1.44,
4.524,-3.50,-0.25,3.00,-0.32,-3.11,-1.43,
4.525,-3.50,-0.25,3.00,-0.30,-3.12,-1.42,
4.525,-3.65,-0.13,3.13,-0.30,-3.12,-1.42,
4.526,-3.65,-0.13,3.13,-0.28,-3.13,-1.41,
4.526,-3.65,-0.13,3.13,-0.26,-3.14,-1.39,
4.527,-3.65,-0.13,3.13,-0.24,-3.15,-1.38,
4.527,-3.65,-0.13,3.13,-0.21,-3.16,-1.36,
4.527,-3.65,-0.13,3.13,-0.18,-3.17,-1.35,
4.528,-3.79,0.02,3.78,-0.18,-3.17,-1.35,
4.528,-3.79,0.02,3.78,-0.15,-3.19,-1.33,
4.529,-3.79,0.02,3.78,-0.12,-3.20,-1.32,
4.529,-3.79,0.02,3.78,-0.08,-3.21,-1.31,
4.534,-3.79,0.02,3.78,-0.05,-3.23,-1.30,
4.535,-3.79,0.02,3.78,-0.01,-3.24,-1.28,
4.535,-3.50,0.08,4.10,-0.01,-3.24,-1.28,
4.535,-3.50,0.08,4.10,0.03,-3.26,-1.27,
4.537,-3.50,0.08,4.10,0.07,-3.27,-1.27,
4.546,-3.50,0.08,4.10,0.10,-3.28,-1.26,
4.547,-3.50,0.08,4.10,0.13,-3.30,-1.26,
4.547,-3.50,0.08,4.10,0.16,-3.30,-1.26,
4.547,-3.17,0.02,3.77,0.16,-3.30,-1.26,
4.548,-3.17,0.02,3.77,0.19,-3.31,-1.26,
4.548,-3.17,0.02,3.77,0.21,-3.32,-1.26,
4.548,-3.17,0.02,3.77,0.23,-3.32,-1.27,
4.55,-3.17,0.02,3.77,0.25,-3.33,-1.27,
4.552,-3.17,0.02,3.77,0.27,-3.33,-1.28,
4.564,-2.80,0.04,3.03,0.27,-3.33,-1.28,
4.565,-2.80,0.04,3.03,0.28,-3.32,-1.28,
4.565,-2.80,0.04,3.03,0.29,-3.31,-1.29,
4.567,-2.80,0.04,3.03,0.30,-3.30,-1.29,
4.567,-2.80,0.04,3.03,0.30,-3.29,-1.30,
4.567,-2.80,0.04,3.03,0.30,-3.28,-1.30,
4.568,-2.73,0.06,2.23,0.30,-3.28,-1.30,
4.569,-2.73,0.06,2.23,0.30,-3.27,-1.31,
4.569,-2.73,0.06,2.23,0.30,-3.25,-1.32,
4.569,-2.73,0.06,2.23,0.29,-3.24,-1.32,
4.571,-2.73,0.06,2.23,0.28,-3.22,-1.33,
4.573,-2.73,0.06,2.23,0.27,-3.21,-1.34,
4.575,-2.72,-0.04,1.30,0.27,-3.21,-1.34,
4.576,-2.72,-0.04,1.30,0.25,-3.19,-1.34,
4.576,-2.72,-0.04,1.30,0.23,-3.17,-1.34,
4.579,-2.72,-0.04,1.30,0.21,-3.16,-1.35,
4.58,-2.72,-0.04,1.30,0.20,-3.14,-1.35,
4.583,-2.72,-0.04,1.30,0.19,-3.13,-1.36,
4.585,-2.91,-0.32,0.97,0.19,-3.13,-1.36,
4.585,-2.91,-0.32,0.97,0.18,-3.12,-1.37,
4.586,-2.91,-0.32,0.97,0.17,-3.11,-1.37,
4.599,-2.91,-0.32,0.97,0.16,-3.10,-1.38,
4.6,-2.91,-0.32,0.97,0.16,-3.09,-1.39,
4.601,-2.91,-0.32,0.97,0.15,-3.08,-1.40,
4.601,-3.10,-0.62,1.01,0.15,-3.08,-1.40,
4.601,-3.10,-0.62,1.01,0.15,-3.06,-1.41,
4.602,-3.10,-0.62,1.01,0.15,-3.05,-1.41,
4.602,-3.10,-0.62,1.01,0.16,-3.03,-1.42,
4.603,-3.10,-0.62,1.01,0.16,-3.01,-1.42,
4.603,-3.10,-0.62,1.01,0.16,-2.99,-1.42,
4.625,-3.69,-0.85,1.40,0.16,-2.99,-1.42,
4.626,-3.69,-0.85,1.40,0.17,-2.97,-1.42,
4.627,-3.69,-0.85,1.40,0.18,-2.95,-1.42,
4.627,-3.69,-0.85,1.40,0.19,-2.94,-1.42,
4.628,-3.69,-0.85,1.40,0.20,-2.93,-1.41,
4.628,-3.69,-0.85,1.40,0.22,-2.92,-1.40,
4.629,-4.30,-0.88,1.83,0.22,-2.92,-1.40,
4.629,-4.30,-0.88,1.83,0.24,-2.91,-1.38,
4.629,-4.30,-0.88,1.83,0.26,-2.91,-1.36,
4.63,-4.30,-0.88,1.83,0.28,-2.90,-1.33,
4.63,-4.30,-0.88,1.83,0.32,-2.89,-1.30,
4.63,-4.30,-0.88,1.83,0.35,-2.88,-1.27,
4.631,-5.13,-0.84,2.66,0.35,-2.88,-1.27,
4.631,-5.13,-0.84,2.66,0.39,-2.86,-1.23,
4.631,-5.13,-0.84,2.66,0.43,-2.84,-1.19,
4.632,-5.13,-0.84,2.66,0.46,-2.82,-1.16,
4.632,-5.13,-0.84,2.66,0.50,-2.81,-1.12,
4.669,-5.13,-0.84,2.66,0.53,-2.79,-1.09,
4.67,-5.49,-0.87,2.62,0.53,-2.79,-1.09,
4.67,-5.49,-0.87,2.62,0.56,-2.78,-1.05,
4.672,-5.49,-0.87,2.62,0.59,-2.76,-1.02,
4.673,-5.49,-0.87,2.62,0.62,-2.75,-0.99,
4.673,-5.49,-0.87,2.62,0.64,-2.74,-0.96,
4.674,-5.49,-0.87,2.62,0.67,-2.73,-0.93,
4.675,-5.66,-0.65,2.24,0.67,-2.73,-0.93,
4.677,-5.66,-0.65,2.24,0.69,-2.72,-0.90,
4.677,-5.66,-0.65,2.24,0.71,-2.71,-0.87,
4.678,-5.66,-0.65,2.24,0.73,-2.70,-0.84,
4.679,-5.66,-0.65,2.24,0.74,-2.69,-0.81,
4.679,-5.66,-0.65,2.24,0.75,-2.68,-0.79,
4.68,-5.37,-0.38,1.48,0.75,-2.68,-0.79,
4.681,-5.37,-0.38,1.48,0.76,-2.66,-0.76,
4.682,-5.37,-0.38,1.48,0.76,-2.65,-0.74,
4.683,-5.37,-0.38,1.48,0.76,-2.63,-0.72,
4.683,-5.37,-0.38,1.48,0.76,-2.61,-0.71,
4.686,-5.37,-0.38,1.48,0.75,-2.59,-0.70,
4.687,-5.02,-0.13,0.63,0.75,-2.59,-0.70,
4.687,-5.02,-0.13,0.63,0.74,-2.56,-0.69,
4.688,-5.02,-0.13,0.63,0.72,-2.53,-0.69,
4.688,-5.02,-0.13,0.63,0.70,-2.50,-0.69,
4.688,-5.02,-0.13,0.63,0.67,-2.48,-0.69,
4.689,-5.02,-0.13,0.63,0.64,-2.46,-0.70,
4.689,-4.54,0.10,-0.34,0.64,-2.46,-0.70,
4.689,-4.54,0.10,-0.34,0.61,-2.44,-0.71,
4.69,-4.54,0.10,-0.34,0.59,-2.43,-0.72,
4.69,-4.54,0.10,-0.34,0.56,-2.43,-0.73,
4.691,-4.54,0.10,-0.34,0.53,-2.43,-0.73,
4.691,-4.54,0.10,-0.34,0.51,-2.43,-0.73,
4.691,-4.61,0.43,-0.67,0.51,-2.43,-0.73,
4.692,-4.61,0.43,-0.67,0.49,-2.43,-0.73,
4.692,-4.61,0.43,-0.67,0.47,-2.44,-0.73,
4.693,-4.61,0.43,-0.67,0.45,-2.45,-0.73,
4.693,-4.61,0.43,-0.67,0.43,-2.46,-0.72,
4.693,-4.61,0.43,-0.67,0.42,-2.48,-0.71,
4.698,-5.02,0.28,-0.36,0.42,-2.48,-0.71,
4.699,-5.02,0.28,-0.36,0.41,-2.51,-0.70,
4.699,-5.02,0.28,-0.36,0.41,-2.54,-0.68,
4.7,-5.02,0.28,-0.36,0.41,-2.58,-0.67,
4.7,-5.02,0.28,-0.36,0.42,-2.63,-0.65,
4.704,-5.02,0.28,-0.36,0.44,-2.68,-0.62,
4.705,-6.11,0.39,0.99,0.44,-2.68,-0.62,
4.706,-6.11,0.39,0.99,0.46,-2.73,-0.59,
4.712,-6.11,0.39,0.99,0.50,-2.79,-0.54,
4.712,-6.11,0.39,0.99,0.55,-2.85,-0.49,
4.713,-6.11,0.39,0.99,0.62,-2.90,-0.42,
4.713,-6.11,0.39,0.99,0.69,-2.95,-0.35,
4.717,-7.15,0.42,3.15,0.69,-2.95,-0.35,
4.718,-7.15,0.42,3.15,0.78,-3.00,-0.28,
4.718,-7.15,0.42,3.15,0.87,-3.03,-0.20,
4.719,-7.15,0.42,3.15,0.97,-3.07,-0.12,
4.734,-7.15,0.42,3.15,1.07,-3.09,-0.05,
4.736,-7.15,0.42,3.15,1.17,-3.12,0.02,
4.737,-7.93,0.43,5.04,1.17,-3.12,0.02,
4.738,-7.93,0.43,5.04,1.27,-3.15,0.09,
4.739,-7.93,0.43,5.04,1.37,-3.18,0.16,
4.742,-7.93,0.43,5.04,1.47,-3.20,0.22,
4.742,-7.93,0.43,5.04,1.57,-3.22,0.28,
4.743,-7.93,0.43,5.04,1.66,-3.23,0.34,
4.743,-7.69,-0.03,5.50,1.66,-3.23,0.34,
4.743,-7.69,-0.03,5.50,1.75,-3.24,0.40,
4.744,-7.69,-0.03,5.50,1.83,-3.24,0.46,
4.744,-7.69,-0.03,5.50,1.90,-3.24,0.52,
4.744,-7.69,-0.03,5.50,1.97,-3.23,0.58,
4.745,-7.69,-0.03,5.50,2.03,-3.21,0.64,
4.757,-7.48,-0.26,4.76,2.03,-3.21,0.64,
4.758,-7.48,-0.26,4.76,2.08,-3.18,0.70,
4.758,-7.48,-0.26,4.76,2.13,-3.15,0.75,
4.758,-7.48,-0.26,4.76,2.16,-3.12,0.80,
4.759,-7.48,-0.26,4.76,2.18,-3.10,0.85,
4.759,-7.48,-0.26,4.76,2.19,-3.07,0.89,
4.759,-7.08,-0.21,2.85,2.19,-3.07,0.89,
4.76,-7.08,-0.21,2.85,2.19,-3.06,0.93,
4.76,-7.08,-0.21,2.85,2.19,-3.05,0.97,
4.76,-7.08,-0.21,2.85,2.18,-3.05,1.00,
4.761,-7.08,-0.21,2.85,2.17,-3.05,1.04,
4.762,-7.08,-0.21,2.85,2.16,-3.06,1.07,
4.765,-6.53,-0.05,1.39,2.16,-3.06,1.07,
4.766,-6.53,-0.05,1.39,2.14,-3.07,1.11,
4.767,-6.53,-0.05,1.39,2.13,-3.08,1.13,
4.769,-6.53,-0.05,1.39,2.11,-3.09,1.16,
4.772,-6.53,-0.05,1.39,2.10,-3.11,1.17,
4.774,-6.53,-0.05,1.39,2.08,-3.14,1.18,
4.775,-5.53,-0.41,0.61,2.08,-3.14,1.18,
4.776,-5.53,-0.41,0.61,2.07,-3.17,1.18,
4.777,-5.53,-0.41,0.61,2.05,-3.20,1.18,
4.779,-5.53,-0.41,0.61,2.04,-3.25,1.17,
4.78,-5.53,-0.41,0.61,2.02,-3.30,1.17,
4.782,-5.53,-0.41,0.61,2.01,-3.36,1.17,
4.785,-5.52,-0.73,0.75,2.01,-3.36,1.17,
4.785,-5.52,-0.73,0.75,2.00,-3.43,1.18,
4.786,-5.52,-0.73,0.75,2.00,-3.49,1.19,
4.794,-5.52,-0.73,0.75,2.01,-3.56,1.20,
4.795,-5.52,-0.73,0.75,2.02,-3.63,1.21,
4.795,-5.52,-0.73,0.75,2.04,-3.70,1.22,
4.796,-6.16,-1.46,2.00,2.04,-3.70,1.22,
4.796,-6.16,-1.46,2.00,2.07,-3.77,1.23,
4.796,-6.16,-1.46,2.00,2.11,-3.86,1.25,
4.826,-6.16,-1.46,2.00,2.16,-3.95,1.26,
4.827,-6.16,-1.46,2.00,2.23,-4.06,1.29,
4.827,-6.16,-1.46,2.00,2.31,-4.18,1.32,
4.828,-7.51,-2.24,5.17,2.31,-4.18,1.32,
4.828,-7.51,-2.24,5.17,2.41,-4.32,1.36,
4.828,-7.51,-2.24,5.17,2.52,-4.46,1.41,
4.829,-7.51,-2.24,5.17,2.65,-4.61,1.47,
4.829,-7.51,-2.24,5.17,2.79,-4.75,1.53,
4.83,-7.51,-2.24,5.17,2.94,-4.89,1.59,
4.83,-8.47,-3.41,8.47,2.94,-4.89,1.59,
4.831,-8.47,-3.41,8.47,3.09,-5.02,1.64,
4.831,-8.47,-3.41,8.47,3.26,-5.16,1.70,
4.832,-8.47,-3.41,8.47,3.43,-5.29,1.75,
4.832,-8.47,-3.41,8.47,3.60,-5.44,1.79,
4.833,-8.47,-3.41,8.47,3.77,-5.58,1.82,
4.833,-8.35,-4.35,10.58,3.77,-5.58,1.82,
4.834,-8.35,-4.35,10.58,3.94,-5.73,1.84,
4.834,-8.35,-4.35,10.58,4.11,-5.88,1.85,
4.834,-8.35,-4.35,10.58,4.27,-6.04,1.85,
4.835,-8.35,-4.35,10.58,4.43,-6.19,1.84,
4.835,-8.35,-4.35,10.58,4.59,-6.35,1.82,
4.836,-6.90,-5.12,10.22,4.59,-6.35,1.82,
4.836,-6.90,-5.12,10.22,4.73,-6.51,1.80,
4.837,-6.90,-5.12,10.22,4.86,-6.66,1.76,
4.839,-6.90,-5.12,10.22,4.98,-6.81,1.72,
4.843,-6.90,-5.12,10.22,5.09,-6.95,1.68,
4.843,-6.90,-5.12,10.22,5.17,-7.06,1.62,
4.847,-5.26,-5.51,8.60,5.17,-7.06,1.62,
4.85,-5.26,-5.51,8.60,5.27,-7.26,1.41,
4.851,-5.26,-5.51,8.60,5.27,-7.26,1.41,
4.852,-5.26,-5.51,8.60,5.27,-7.26,1.41,
4.852,-5.26,-5.51,8.60,5.25,-7.28,1.34,
4.853,-5.26,-5.51,8.60,5.20,-7.29,1.27,
4.858,-4.83,-5.89,5.57,5.20,-7.29,1.27,
4.859,-4.83,-5.89,5.57,5.14,-7.27,1.20,
4.859,-4.83,-5.89,5.57,5.06,-7.24,1.15,
4.86,-4.83,-5.89,5.57,4.96,-7.19,1.10,
4.861,-4.83,-5.89,5.57,4.86,-7.14,1.05,
4.863,-4.83,-5.89,5.57,4.75,-7.07,1.01,
4.865,-5.26,-7.25,4.74,4.75,-7.07,1.01,
4.865,-5.26,-7.25,4.74,4.64,-7.00,0.95,
4.866,-5.26,-7.25,4.74,4.54,-6.92,0.90,
4.868,-5.26,-7.25,4.74,4.43,-6.84,0.84,
4.889,-5.26,-7.25,4.74,4.31,-6.75,0.78,
4.891,-5.26,-7.25,4.74,4.18,-6.66,0.72,
4.892,-5.08,-8.42,5.65,4.18,-6.66,0.72,
4.892,-5.08,-8.42,5.65,4.05,-6.58,0.67,
4.893,-5.08,-8.42,5.65,3.92,-6.51,0.62,
4.893,-5.08,-8.42,5.65,3.78,-6.45,0.58,
4.893,-5.08,-8.42,5.65,3.64,-6.43,0.55,
4.894,-5.08,-8.42,5.65,3.50,-6.44,0.53,
4.894,-5.47,-9.74,6.19,3.50,-6.44,0.53,
4.896,-5.47,-9.74,6.19,3.37,-6.50,0.51,
4.897,-5.47,-9.74,6.19,3.24,-6.60,0.49,
4.897,-5.47,-9.74,6.19,3.11,-6.75,0.47,
4.898,-5.47,-9.74,6.19,3.00,-6.94,0.45,
4.899,-5.47,-9.74,6.19,2.91,-7.18,0.42,
4.901,-4.47,-10.93,6.39,2.91,-7.18,0.42,
4.903,-4.47,-10.93,6.39,2.83,-7.46,0.39,
4.903,-4.47,-10.93,6.39,2.78,-7.78,0.35,
4.904,-4.47,-10.93,6.39,2.74,-8.12,0.32,
4.905,-4.47,-10.93,6.39,2.73,-8.49,0.28,
4.906,-4.47,-10.93,6.39,2.74,-8.87,0.23,
4.907,-1.93,-12.58,8.30,2.74,-8.87,0.23,
4.909,-1.93,-12.58,8.30,2.76,-9.28,0.18,
4.909,-1.93,-12.58,8.30,2.80,-9.69,0.13,
4.91,-1.93,-12.58,8.30,2.85,-10.12,0.06,
4.911,-1.93,-12.58,8.30,2.90,-10.54,-0.00,
4.918,-1.93,-12.58,8.30,2.95,-10.96,-0.08,
4.92,0.94,-12.33,8.94,2.95,-10.96,-0.08,
4.92,0.94,-12.33,8.94,2.99,-11.35,-0.15,
4.921,0.94,-12.33,8.94,3.02,-11.70,-0.23,
4.921,0.94,-12.33,8.94,3.02,-12.01,-0.31,
4.922,0.94,-12.33,8.94,2.97,-12.24,-0.39,
4.922,0.94,-12.33,8.94,2.88,-12.40,-0.49,
4.927,3.36,-11.27,3.82,2.88,-12.40,-0.49,
4.928,3.36,-11.27,3.82,2.75,-12.49,-0.58,
4.929,3.36,-11.27,3.82,2.58,-12.49,-0.65,
4.929,3.36,-11.27,3.82,2.39,-12.40,-0.68,
4.93,3.36,-11.27,3.82,2.19,-12.22,-0.66,
4.933,3.36,-11.27,3.82,1.98,-11.97,-0.60,
4.94,-0.60,-10.93,-3.36,1.98,-11.97,-0.60,
4.941,-0.60,-10.93,-3.36,1.77,-11.66,-0.51,
4.942,-0.60,-10.93,-3.36,1.56,-11.32,-0.38,
