
time,ax,ay,az,wx,wy,wz,
0.009,-0.98,-0.73,-0.38,-0.01,-0.06,-0.33,
0.009,-0.98,-0.73,-0.38,-0.03,-0.09,-0.29,
0.01,-0.98,-0.73,-0.38,-0.07,-0.15,-0.23,
0.01,-0.98,-0.73,-0.38,-0.09,-0.17,-0.20,
0.011,-0.98,-0.73,-0.38,-0.13,-0.21,-0.16,
0.011,-0.98,-0.73,-0.38,-0.18,-0.25,-0.11,
0.011,-1.39,-0.67,-1.92,-0.18,-0.25,-0.11,
0.011,-1.39,-0.67,-1.92,-0.23,-0.29,-0.07,
0.012,-1.39,-0.67,-1.92,-0.31,-0.33,-0.01,
0.012,-1.39,-0.67,-1.92,-0.34,-0.35,0.01,
0.013,-1.39,-0.67,-1.92,-0.40,-0.37,0.04,
0.013,-1.39,-0.67,-1.92,-0.46,-0.40,0.07,
0.018,-1.23,-0.35,-2.97,-0.46,-0.40,0.07,
0.02,-1.23,-0.35,-2.97,-0.51,-0.42,0.09,
0.024,-1.23,-0.35,-2.97,-0.58,-0.45,0.12,
0.025,-1.23,-0.35,-2.97,-0.60,-0.46,0.12,
0.025,-1.23,-0.35,-2.97,-0.63,-0.47,0.14,
0.026,-1.23,-0.35,-2.97,-0.66,-0.48,0.14,
0.026,-0.59,-0.13,-2.21,-0.66,-0.48,0.14,
0.027,-0.59,-0.13,-2.21,-0.68,-0.49,0.14,
0.028,-0.59,-0.13,-2.21,-0.69,-0.50,0.14,
0.028,-0.59,-0.13,-2.21,-0.69,-0.50,0.14,
0.033,-0.59,-0.13,-2.21,-0.68,-0.51,0.14,
0.034,-0.59,-0.13,-2.21,-0.67,-0.51,0.13,
0.034,0.00,-0.19,-0.65,-0.67,-0.51,0.13,
0.035,0.00,-0.19,-0.65,-0.65,-0.52,0.12,
0.037,0.00,-0.19,-0.65,-0.61,-0.52,0.10,
0.04,0.00,-0.19,-0.65,-0.60,-0.52,0.09,
0.042,0.00,-0.19,-0.65,-0.58,-0.53,0.08,
0.043,0.00,-0.19,-0.65,-0.55,-0.53,0.06,
0.046,0.39,-0.26,0.29,-0.55,-0.53,0.06,
0.047,0.39,-0.26,0.29,-0.52,-0.54,0.05,
0.047,0.39,-0.26,0.29,-0.48,-0.54,0.02,
0.048,0.39,-0.26,0.29,-0.47,-0.54,0.01,
0.05,0.39,-0.26,0.29,-0.44,-0.55,0.00,
0.056,0.39,-0.26,0.29,-0.42,-0.55,-0.02,
0.057,0.43,-0.04,0.61,-0.42,-0.55,-0.02,
0.057,0.43,-0.04,0.61,-0.39,-0.55,-0.04,
0.058,0.43,-0.04,0.61,-0.35,-0.55,-0.06,
0.058,0.43,-0.04,0.61,-0.35,-0.55,-0.07,
0.06,0.43,-0.04,0.61,-0.33,-0.55,-0.08,
0.064,0.43,-0.04,0.61,-0.31,-0.55,-0.10,
0.064,0.39,0.30,0.70,-0.31,-0.55,-0.10,
0.065,0.39,0.30,0.70,-0.30,-0.53,-0.11,
0.069,0.39,0.30,0.70,-0.28,-0.51,-0.13,
0.069,0.39,0.30,0.70,-0.28,-0.50,-0.14,
0.07,0.39,0.30,0.70,-0.27,-0.47,-0.15,
0.072,0.39,0.30,0.70,-0.27,-0.44,-0.16,
0.074,0.54,0.33,0.58,-0.27,-0.44,-0.16,
0.074,0.54,0.33,0.58,-0.26,-0.41,-0.18,
0.076,0.54,0.33,0.58,-0.27,-0.37,-0.19,
0.078,0.54,0.33,0.58,-0.27,-0.35,-0.20,
0.08,0.54,0.33,0.58,-0.28,-0.31,-0.21,
0.082,0.54,0.33,0.58,-0.29,-0.28,-0.21,
0.084,0.72,0.23,0.32,-0.29,-0.28,-0.21,
0.085,0.72,0.23,0.32,-0.30,-0.24,-0.23,
0.1,0.72,0.23,0.32,-0.31,-0.18,-0.24,
0.101,0.72,0.23,0.32,-0.31,-0.16,-0.24,
0.102,0.72,0.23,0.32,-0.32,-0.13,-0.25,
0.103,0.72,0.23,0.32,-0.32,-0.09,-0.26,
0.104,0.75,0.30,0.52,-0.32,-0.09,-0.26,
0.104,0.75,0.30,0.52,-0.32,-0.06,-0.27,
0.105,0.75,0.30,0.52,-0.32,-0.02,-0.27,
0.105,0.75,0.30,0.52,-0.31,-0.01,-0.27,
0.106,0.75,0.30,0.52,-0.30,0.00,-0.28,
0.106,0.75,0.30,0.52,-0.28,0.02,-0.28,
0.106,0.66,0.28,1.22,-0.28,0.02,-0.28,
0.107,0.66,0.28,1.22,-0.26,0.03,-0.29,
0.107,0.66,0.28,1.22,-0.23,0.04,-0.29,
0.108,0.66,0.28,1.22,-0.22,0.04,-0.29,
0.111,0.66,0.28,1.22,-0.20,0.04,-0.30,
0.112,0.66,0.28,1.22,-0.17,0.05,-0.30,
0.116,0.70,0.16,1.67,-0.17,0.05,-0.30,
0.131,0.70,0.16,1.67,-0.15,0.04,-0.30,
0.133,0.70,0.16,1.67,-0.12,0.04,-0.30,
0.135,0.70,0.16,1.67,-0.11,0.04,-0.31,
0.137,0.70,0.16,1.67,-0.09,0.04,-0.30,
0.139,0.70,0.16,1.67,-0.08,0.04,-0.30,
0.14,0.62,0.11,1.38,-0.08,0.04,-0.30,
0.14,0.62,0.11,1.38,-0.06,0.04,-0.30,
0.141,0.62,0.11,1.38,-0.05,0.03,-0.30,
0.142,0.62,0.11,1.38,-0.04,0.03,-0.30,
0.143,0.62,0.11,1.38,-0.04,0.02,-0.30,
0.144,0.62,0.11,1.38,-0.04,0.00,-0.29,
0.144,0.49,0.12,0.74,-0.04,0.00,-0.29,
0.145,0.49,0.12,0.74,-0.03,-0.02,-0.29,
0.145,0.49,0.12,0.74,-0.04,-0.05,-0.28,
0.146,0.49,0.12,0.74,-0.04,-0.06,-0.28,
0.146,0.49,0.12,0.74,-0.04,-0.09,-0.27,
0.152,0.49,0.12,0.74,-0.05,-0.13,-0.26,
0.153,0.25,0.22,0.20,-0.05,-0.13,-0.26,
0.153,0.25,0.22,0.20,-0.06,-0.15,-0.26,
0.153,0.25,0.22,0.20,-0.07,-0.19,-0.25,
0.154,0.25,0.22,0.20,-0.07,-0.21,-0.24,
0.154,0.25,0.22,0.20,-0.08,-0.23,-0.24,
0.155,0.25,0.22,0.20,-0.09,-0.26,-0.23,
0.155,0.16,0.30,-0.14,-0.09,-0.26,-0.23,
0.155,0.16,0.30,-0.14,-0.10,-0.28,-0.23,
0.16,0.16,0.30,-0.14,-0.12,-0.31,-0.22,
0.16,0.16,0.30,-0.14,-0.12,-0.32,-0.22,
0.161,0.16,0.30,-0.14,-0.13,-0.33,-0.21,
0.162,0.16,0.30,-0.14,-0.13,-0.34,-0.21,
0.164,0.16,0.39,-0.10,-0.13,-0.34,-0.21,
0.164,0.16,0.39,-0.10,-0.13,-0.35,-0.21,
0.167,0.16,0.39,-0.10,-0.13,-0.35,-0.21,
0.169,0.16,0.39,-0.10,-0.13,-0.36,-0.21,
0.17,0.16,0.39,-0.10,-0.13,-0.36,-0.22,
0.172,0.16,0.39,-0.10,-0.13,-0.36,-0.22,
0.174,0.34,0.42,0.26,-0.13,-0.36,-0.22,
0.175,0.34,0.42,0.26,-0.12,-0.35,-0.23,
0.177,0.34,0.42,0.26,-0.12,-0.34,-0.23,
0.178,0.34,0.42,0.26,-0.11,-0.33,-0.23,
0.18,0.34,0.42,0.26,-0.11,-0.32,-0.24,
0.184,0.34,0.42,0.26,-0.11,-0.30,-0.24,
0.184,0.58,0.32,0.29,-0.11,-0.30,-0.24,
0.185,0.58,0.32,0.29,-0.11,-0.28,-0.25,
0.188,0.58,0.32,0.29,-0.12,-0.26,-0.26,
0.189,0.58,0.32,0.29,-0.11,-0.25,-0.26,
0.19,0.58,0.32,0.29,-0.11,-0.22,-0.27,
0.192,0.58,0.32,0.29,-0.12,-0.20,-0.28,
0.194,0.71,0.26,0.23,-0.12,-0.20,-0.28,
0.195,0.71,0.26,0.23,-0.12,-0.18,-0.29,
0.197,0.71,0.26,0.23,-0.12,-0.16,-0.29,
0.198,0.71,0.26,0.23,-0.12,-0.15,-0.29,
0.2,0.71,0.26,0.23,-0.11,-0.13,-0.30,
0.206,0.71,0.26,0.23,-0.11,-0.12,-0.30,
0.239,0.49,0.30,0.28,-0.11,-0.12,-0.30,
0.24,0.49,0.30,0.28,-0.11,-0.11,-0.31,
0.24,0.49,0.30,0.28,-0.10,-0.09,-0.31,
0.241,0.49,0.30,0.28,-0.09,-0.09,-0.31,
0.241,0.49,0.30,0.28,-0.08,-0.08,-0.30,
0.241,0.49,0.30,0.28,-0.08,-0.08,-0.30,
0.242,0.21,0.28,0.32,-0.08,-0.08,-0.30,
0.242,0.21,0.28,0.32,-0.07,-0.08,-0.30,
0.243,0.21,0.28,0.32,-0.06,-0.08,-0.29,
0.243,0.21,0.28,0.32,-0.05,-0.08,-0.29,
0.244,0.21,0.28,0.32,-0.04,-0.08,-0.29,
0.244,0.21,0.28,0.32,-0.04,-0.08,-0.29,
0.245,0.01,0.26,0.18,-0.04,-0.08,-0.29,
0.245,0.01,0.26,0.18,-0.03,-0.09,-0.29,
0.245,0.01,0.26,0.18,-0.02,-0.10,-0.28,
0.246,0.01,0.26,0.18,-0.02,-0.10,-0.28,
0.246,0.01,0.26,0.18,-0.01,-0.11,-0.28,
0.247,0.01,0.26,0.18,-0.01,-0.11,-0.28,
0.247,-0.10,0.30,-0.03,-0.01,-0.11,-0.28,
0.247,-0.10,0.30,-0.03,-0.00,-0.12,-0.27,
0.248,-0.10,0.30,-0.03,0.00,-0.14,-0.27,
0.248,-0.10,0.30,-0.03,0.01,-0.14,-0.27,
0.248,-0.10,0.30,-0.03,0.01,-0.16,-0.27,
0.249,-0.10,0.30,-0.03,0.02,-0.17,-0.27,
0.249,-0.17,0.28,-0.14,0.02,-0.17,-0.27,
0.25,-0.17,0.28,-0.14,0.03,-0.18,-0.27,
0.25,-0.17,0.28,-0.14,0.04,-0.21,-0.27,
0.25,-0.17,0.28,-0.14,0.05,-0.21,-0.27,
0.251,-0.17,0.28,-0.14,0.06,-0.23,-0.27,
0.252,-0.17,0.28,-0.14,0.07,-0.25,-0.27,
0.268,-0.22,0.27,-0.21,0.07,-0.25,-0.27,
0.269,-0.22,0.27,-0.21,0.08,-0.26,-0.28,
0.269,-0.22,0.27,-0.21,0.09,-0.28,-0.28,
0.27,-0.22,0.27,-0.21,0.09,-0.29,-0.29,
0.27,-0.22,0.27,-0.21,0.10,-0.30,-0.29,
0.27,-0.22,0.27,-0.21,0.10,-0.31,-0.30,
0.27,-0.22,0.16,-0.39,0.10,-0.31,-0.30,
0.27,-0.22,0.16,-0.39,0.10,-0.32,-0.30,
0.271,-0.22,0.16,-0.39,0.10,-0.33,-0.30,
0.271,-0.22,0.16,-0.39,0.10,-0.33,-0.30,
0.271,-0.22,0.16,-0.39,0.09,-0.34,-0.31,
0.276,-0.22,0.16,-0.39,0.09,-0.34,-0.31,
0.277,-0.30,0.00,-0.81,0.09,-0.34,-0.31,
0.277,-0.30,0.00,-0.81,0.09,-0.35,-0.31,
0.277,-0.30,0.00,-0.81,0.07,-0.36,-0.31,
0.277,-0.30,0.00,-0.81,0.06,-0.37,-0.31,
0.28,-0.30,0.00,-0.81,0.05,-0.38,-0.31,
0.282,-0.30,0.00,-0.81,0.03,-0.39,-0.31,
0.295,-0.45,-0.15,-1.25,0.03,-0.39,-0.31,
0.295,-0.45,-0.15,-1.25,0.01,-0.40,-0.30,
0.295,-0.45,-0.15,-1.25,-0.02,-0.42,-0.30,
0.296,-0.45,-0.15,-1.25,-0.03,-0.43,-0.29,
0.296,-0.45,-0.15,-1.25,-0.06,-0.44,-0.29,
0.296,-0.45,-0.15,-1.25,-0.08,-0.46,-0.28,
0.296,-0.66,-0.18,-1.54,-0.08,-0.46,-0.28,
0.296,-0.66,-0.18,-1.54,-0.11,-0.48,-0.28,
0.297,-0.66,-0.18,-1.54,-0.14,-0.50,-0.27,
0.298,-0.66,-0.18,-1.54,-0.15,-0.51,-0.26,
0.305,-0.66,-0.18,-1.54,-0.17,-0.53,-0.26,
0.307,-0.66,-0.18,-1.54,-0.19,-0.54,-0.25,
0.307,-0.72,-0.22,-1.25,-0.19,-0.54,-0.25,
0.308,-0.72,-0.22,-1.25,-0.21,-0.56,-0.24,
0.308,-0.72,-0.22,-1.25,-0.23,-0.58,-0.23,
0.308,-0.72,-0.22,-1.25,-0.24,-0.59,-0.23,
0.31,-0.72,-0.22,-1.25,-0.25,-0.60,-0.22,
0.312,-0.72,-0.22,-1.25,-0.25,-0.62,-0.22,
0.314,-0.67,-0.19,-0.62,-0.25,-0.62,-0.22,
0.315,-0.67,-0.19,-0.62,-0.26,-0.62,-0.21,
0.332,-0.67,-0.19,-0.62,-0.27,-0.62,-0.21,
0.333,-0.67,-0.19,-0.62,-0.28,-0.62,-0.21,
0.334,-0.67,-0.19,-0.62,-0.29,-0.62,-0.21,
0.334,-0.67,-0.19,-0.62,-0.30,-0.61,-0.21,
0.335,-0.46,-0.25,-0.19,-0.30,-0.61,-0.21,
0.336,-0.46,-0.25,-0.19,-0.31,-0.60,-0.20,
0.336,-0.46,-0.25,-0.19,-0.32,-0.58,-0.20,
0.337,-0.46,-0.25,-0.19,-0.33,-0.57,-0.20,
0.337,-0.46,-0.25,-0.19,-0.33,-0.56,-0.20,
0.338,-0.46,-0.25,-0.19,-0.34,-0.54,-0.21,
0.339,-0.17,-0.28,0.39,-0.34,-0.54,-0.21,
0.34,-0.17,-0.28,0.39,-0.34,-0.52,-0.20,
0.34,-0.17,-0.28,0.39,-0.34,-0.49,-0.21,
0.341,-0.17,-0.28,0.39,-0.34,-0.48,-0.21,
0.341,-0.17,-0.28,0.39,-0.33,-0.46,-0.22,
0.345,-0.17,-0.28,0.39,-0.33,-0.44,-0.23,
0.346,0.14,-0.24,1.00,-0.33,-0.44,-0.23,
0.347,0.14,-0.24,1.00,-0.32,-0.42,-0.24,
0.348,0.14,-0.24,1.00,-0.31,-0.39,-0.25,
0.348,0.14,-0.24,1.00,-0.30,-0.38,-0.26,
0.351,0.14,-0.24,1.00,-0.29,-0.36,-0.27,
0.352,0.14,-0.24,1.00,-0.28,-0.34,-0.28,
0.359,0.28,-0.18,1.49,-0.28,-0.34,-0.28,
0.36,0.28,-0.18,1.49,-0.26,-0.33,-0.29,
0.361,0.28,-0.18,1.49,-0.24,-0.29,-0.30,
0.361,0.28,-0.18,1.49,-0.23,-0.28,-0.30,
0.361,0.28,-0.18,1.49,-0.22,-0.26,-0.31,
0.361,0.28,-0.18,1.49,-0.21,-0.24,-0.32,
0.364,0.33,-0.13,1.62,-0.21,-0.24,-0.32,
0.365,0.33,-0.13,1.62,-0.19,-0.21,-0.33,
0.383,0.33,-0.13,1.62,-0.18,-0.18,-0.34,
0.385,0.33,-0.13,1.62,-0.18,-0.17,-0.34,
0.423,0.33,-0.13,1.62,-0.17,-0.15,-0.34,
0.423,0.33,-0.13,1.62,-0.17,-0.13,-0.35,
0.424,0.32,-0.23,1.36,-0.17,-0.13,-0.35,
0.424,0.32,-0.23,1.36,-0.17,-0.11,-0.35,
0.424,0.32,-0.23,1.36,-0.16,-0.07,-0.36,
0.424,0.32,-0.23,1.36,-0.16,-0.06,-0.36,
0.425,0.32,-0.23,1.36,-0.16,-0.04,-0.36,
0.425,0.32,-0.23,1.36,-0.16,-0.02,-0.36,
0.425,0.16,-0.28,0.98,-0.16,-0.02,-0.36,
0.426,0.16,-0.28,0.98,-0.16,0.00,-0.36,
0.426,0.16,-0.28,0.98,-0.16,0.03,-0.35,
0.426,0.16,-0.28,0.98,-0.16,0.04,-0.35,
0.426,0.16,-0.28,0.98,-0.15,0.05,-0.34,
0.427,0.16,-0.28,0.98,-0.15,0.06,-0.34,
0.427,-0.10,-0.38,0.77,-0.15,0.06,-0.34,
0.427,-0.10,-0.38,0.77,-0.15,0.07,-0.33,
0.428,-0.10,-0.38,0.77,-0.14,0.09,-0.32,
0.428,-0.10,-0.38,0.77,-0.14,0.09,-0.32,
0.428,-0.10,-0.38,0.77,-0.13,0.09,-0.31,
0.428,-0.10,-0.38,0.77,-0.12,0.09,-0.29,
0.429,-0.34,-0.47,0.74,-0.12,0.09,-0.29,
0.429,-0.34,-0.47,0.74,-0.11,0.09,-0.29,
0.429,-0.34,-0.47,0.74,-0.10,0.09,-0.27,
0.429,-0.34,-0.47,0.74,-0.09,0.09,-0.26,
0.43,-0.34,-0.47,0.74,-0.08,0.08,-0.25,
0.43,-0.34,-0.47,0.74,-0.06,0.08,-0.24,
0.43,-0.58,-0.50,0.86,-0.06,0.08,-0.24,
0.431,-0.58,-0.50,0.86,-0.04,0.07,-0.23,
0.431,-0.58,-0.50,0.86,-0.02,0.06,-0.21,
0.431,-0.58,-0.50,0.86,-0.01,0.06,-0.20,
0.431,-0.58,-0.50,0.86,0.01,0.06,-0.19,
0.432,-0.58,-0.50,0.86,0.03,0.05,-0.17,
0.432,-0.66,-0.47,0.75,0.03,0.05,-0.17,
0.432,-0.66,-0.47,0.75,0.04,0.04,-0.16,
0.433,-0.66,-0.47,0.75,0.06,0.03,-0.14,
0.433,-0.66,-0.47,0.75,0.07,0.03,-0.14,
0.433,-0.66,-0.47,0.75,0.08,0.02,-0.12,
0.433,-0.66,-0.47,0.75,0.09,0.01,-0.11,
0.434,-0.62,-0.50,0.40,0.09,0.01,-0.11,
0.434,-0.62,-0.50,0.40,0.10,0.00,-0.11,
0.437,-0.62,-0.50,0.40,0.10,-0.01,-0.10,
0.438,-0.62,-0.50,0.40,0.11,-0.01,-0.09,
0.44,-0.62,-0.50,0.40,0.11,-0.03,-0.09,
0.442,-0.62,-0.50,0.40,0.11,-0.04,-0.09,
0.443,-0.48,-0.46,-0.16,0.11,-0.04,-0.09,
0.444,-0.48,-0.46,-0.16,0.10,-0.06,-0.08,
0.447,-0.48,-0.46,-0.16,0.10,-0.09,-0.08,
0.447,-0.48,-0.46,-0.16,0.10,-0.10,-0.08,
0.45,-0.48,-0.46,-0.16,0.10,-0.12,-0.08,
0.452,-0.48,-0.46,-0.16,0.10,-0.15,-0.09,
0.456,-0.29,-0.20,-0.29,0.10,-0.15,-0.09,
0.456,-0.29,-0.20,-0.29,0.10,-0.17,-0.09,
0.456,-0.29,-0.20,-0.29,0.11,-0.20,-0.10,
0.459,-0.29,-0.20,-0.29,0.11,-0.21,-0.10,
0.46,-0.29,-0.20,-0.29,0.12,-0.23,-0.11,
0.461,-0.29,-0.20,-0.29,0.12,-0.25,-0.13,
0.464,0.05,-0.02,-0.15,0.12,-0.25,-0.13,
0.464,0.05,-0.02,-0.15,0.13,-0.26,-0.14,
0.467,0.05,-0.02,-0.15,0.14,-0.29,-0.16,
0.468,0.05,-0.02,-0.15,0.14,-0.30,-0.17,
0.472,0.05,-0.02,-0.15,0.15,-0.31,-0.19,
0.473,0.05,-0.02,-0.15,0.15,-0.31,-0.21,
0.474,0.49,-0.02,0.04,0.15,-0.31,-0.21,
0.474,0.49,-0.02,0.04,0.16,-0.32,-0.23,
0.477,0.49,-0.02,0.04,0.18,-0.32,-0.26,
0.478,0.49,-0.02,0.04,0.18,-0.32,-0.27,
0.48,0.49,-0.02,0.04,0.19,-0.31,-0.29,
0.482,0.49,-0.02,0.04,0.20,-0.29,-0.31,
0.484,0.74,-0.18,0.27,0.20,-0.29,-0.31,
0.484,0.74,-0.18,0.27,0.21,-0.28,-0.32,
0.487,0.74,-0.18,0.27,0.23,-0.25,-0.35,
0.488,0.74,-0.18,0.27,0.24,-0.25,-0.35,
0.49,0.74,-0.18,0.27,0.24,-0.23,-0.37,
0.495,0.74,-0.18,0.27,0.26,-0.20,-0.38,
0.495,0.71,-0.51,0.35,0.26,-0.20,-0.38,
0.496,0.71,-0.51,0.35,0.26,-0.19,-0.39,
0.496,0.71,-0.51,0.35,0.27,-0.16,-0.40,
0.497,0.71,-0.51,0.35,0.28,-0.14,-0.40,
0.508,0.71,-0.51,0.35,0.28,-0.12,-0.40,
0.509,0.71,-0.51,0.35,0.29,-0.10,-0.41,
0.509,0.38,-0.74,0.22,0.29,-0.10,-0.41,
0.51,0.38,-0.74,0.22,0.30,-0.08,-0.41,
0.51,0.38,-0.74,0.22,0.30,-0.05,-0.40,
0.51,0.38,-0.74,0.22,0.30,-0.04,-0.40,
0.511,0.38,-0.74,0.22,0.30,-0.02,-0.39,
0.512,0.38,-0.74,0.22,0.30,-0.00,-0.39,
0.529,-0.11,-0.90,-0.15,0.30,-0.00,-0.39,
0.53,-0.11,-0.90,-0.15,0.29,0.01,-0.38,
0.531,-0.11,-0.90,-0.15,0.28,0.04,-0.36,
0.531,-0.11,-0.90,-0.15,0.27,0.04,-0.35,
0.532,-0.11,-0.90,-0.15,0.26,0.05,-0.34,
0.532,-0.11,-0.90,-0.15,0.25,0.06,-0.33,
0.533,-0.51,-0.89,-0.71,0.25,0.06,-0.33,
0.535,-0.51,-0.89,-0.71,0.23,0.06,-0.32,
0.537,-0.51,-0.89,-0.71,0.20,0.07,-0.30,
0.539,-0.51,-0.89,-0.71,0.19,0.07,-0.29,
0.54,-0.51,-0.89,-0.71,0.17,0.07,-0.27,
0.541,-0.51,-0.89,-0.71,0.14,0.06,-0.25,
0.541,-0.73,-0.77,-1.23,0.14,0.06,-0.25,
0.542,-0.73,-0.77,-1.23,0.11,0.05,-0.24,
0.572,-0.73,-0.77,-1.23,0.07,0.04,-0.21,
0.573,-0.73,-0.77,-1.23,0.06,0.04,-0.21,
0.573,-0.73,-0.77,-1.23,0.03,0.02,-0.19,
0.574,-0.73,-0.77,-1.23,0.00,0.00,-0.18,
0.574,-0.84,-0.62,-1.44,0.00,0.00,-0.18,
0.575,-0.84,-0.62,-1.44,-0.02,-0.01,-0.16,
0.575,-0.84,-0.62,-1.44,-0.06,-0.04,-0.14,
0.576,-0.84,-0.62,-1.44,-0.07,-0.06,-0.14,
0.576,-0.84,-0.62,-1.44,-0.09,-0.08,-0.13,
0.576,-0.84,-0.62,-1.44,-0.11,-0.10,-0.12,
0.576,-0.73,-0.43,-1.06,-0.11,-0.10,-0.12,
0.577,-0.73,-0.43,-1.06,-0.12,-0.12,-0.12,
0.577,-0.73,-0.43,-1.06,-0.13,-0.15,-0.12,
0.577,-0.73,-0.43,-1.06,-0.13,-0.16,-0.12,
0.578,-0.73,-0.43,-1.06,-0.14,-0.17,-0.12,
0.578,-0.73,-0.43,-1.06,-0.13,-0.19,-0.13,
0.578,-0.25,-0.24,-0.18,-0.13,-0.19,-0.13,
0.578,-0.25,-0.24,-0.18,-0.13,-0.20,-0.14,
0.579,-0.25,-0.24,-0.18,-0.11,-0.21,-0.15,
0.579,-0.25,-0.24,-0.18,-0.10,-0.21,-0.16,
0.579,-0.25,-0.24,-0.18,-0.09,-0.22,-0.18,
0.579,-0.25,-0.24,-0.18,-0.08,-0.22,-0.20,
0.58,0.47,-0.26,0.63,-0.08,-0.22,-0.20,
0.58,0.47,-0.26,0.63,-0.06,-0.22,-0.21,
0.58,0.47,-0.26,0.63,-0.04,-0.22,-0.24,
0.58,0.47,-0.26,0.63,-0.03,-0.22,-0.26,
0.58,0.47,-0.26,0.63,-0.02,-0.22,-0.27,
0.583,0.47,-0.26,0.63,-0.00,-0.21,-0.29,
0.584,0.85,-0.49,0.95,-0.00,-0.21,-0.29,
0.584,0.85,-0.49,0.95,0.01,-0.20,-0.31,
0.587,0.85,-0.49,0.95,0.03,-0.19,-0.33,
0.588,0.85,-0.49,0.95,0.04,-0.18,-0.34,
0.59,0.85,-0.49,0.95,0.05,-0.17,-0.35,
0.592,0.85,-0.49,0.95,0.07,-0.16,-0.36,
0.594,0.73,-0.68,1.04,0.07,-0.16,-0.36,
0.594,0.73,-0.68,1.04,0.08,-0.16,-0.37,
0.596,0.73,-0.68,1.04,0.09,-0.14,-0.37,
0.597,0.73,-0.68,1.04,0.10,-0.14,-0.37,
0.6,0.73,-0.68,1.04,0.10,-0.12,-0.37,
0.602,0.73,-0.68,1.04,0.11,-0.12,-0.37,
0.606,0.31,-0.74,0.85,0.11,-0.12,-0.37,
0.606,0.31,-0.74,0.85,0.11,-0.11,-0.37,
0.607,0.31,-0.74,0.85,0.11,-0.09,-0.36,
0.61,0.31,-0.74,0.85,0.11,-0.09,-0.35,
0.61,0.31,-0.74,0.85,0.11,-0.08,-0.34,
0.614,0.31,-0.74,0.85,0.11,-0.07,-0.34,
0.614,-0.08,-0.83,0.50,0.11,-0.07,-0.34,
0.614,-0.08,-0.83,0.50,0.10,-0.06,-0.32,
0.619,-0.08,-0.83,0.50,0.08,-0.05,-0.31,
0.619,-0.08,-0.83,0.50,0.08,-0.05,-0.30,
0.62,-0.08,-0.83,0.50,0.07,-0.05,-0.29,
0.622,-0.08,-0.83,0.50,0.05,-0.04,-0.28,
0.624,-0.35,-0.81,0.04,0.05,-0.04,-0.28,
0.624,-0.35,-0.81,0.04,0.04,-0.04,-0.27,
0.627,-0.35,-0.81,0.04,0.02,-0.04,-0.25,
0.628,-0.35,-0.81,0.04,0.01,-0.04,-0.25,
0.63,-0.35,-0.81,0.04,-0.01,-0.03,-0.23,
0.633,-0.35,-0.81,0.04,-0.02,-0.03,-0.22,
0.634,-0.47,-0.76,-0.20,-0.02,-0.03,-0.22,
0.634,-0.47,-0.76,-0.20,-0.04,-0.03,-0.21,
0.637,-0.47,-0.76,-0.20,-0.06,-0.02,-0.19,
0.638,-0.47,-0.76,-0.20,-0.07,-0.02,-0.18,
0.639,-0.47,-0.76,-0.20,-0.08,-0.01,-0.17,
0.641,-0.47,-0.76,-0.20,-0.09,-0.01,-0.16,
0.643,-0.50,-0.64,-0.28,-0.09,-0.01,-0.16,
0.643,-0.50,-0.64,-0.28,-0.11,-0.00,-0.15,
0.646,-0.50,-0.64,-0.28,-0.12,0.00,-0.13,
0.647,-0.50,-0.64,-0.28,-0.13,0.01,-0.12,
0.65,-0.50,-0.64,-0.28,-0.13,0.01,-0.11,
0.652,-0.50,-0.64,-0.28,-0.13,0.02,-0.11,
0.654,-0.40,-0.49,-0.02,-0.13,0.02,-0.11,
0.654,-0.40,-0.49,-0.02,-0.13,0.03,-0.10,
0.656,-0.40,-0.49,-0.02,-0.12,0.04,-0.09,
0.658,-0.40,-0.49,-0.02,-0.12,0.05,-0.09,
0.659,-0.40,-0.49,-0.02,-0.11,0.06,-0.09,
0.661,-0.40,-0.49,-0.02,-0.10,0.07,-0.09,
0.663,-0.08,-0.36,0.32,-0.10,0.07,-0.09,
0.664,-0.08,-0.36,0.32,-0.09,0.08,-0.09,
0.667,-0.08,-0.36,0.32,-0.07,0.10,-0.09,
0.668,-0.08,-0.36,0.32,-0.06,0.10,-0.09,
0.67,-0.08,-0.36,0.32,-0.05,0.11,-0.09,
0.672,-0.08,-0.36,0.32,-0.03,0.12,-0.09,
0.673,0.27,-0.33,0.49,-0.03,0.12,-0.09,
0.674,0.27,-0.33,0.49,-0.02,0.13,-0.10,
0.676,0.27,-0.33,0.49,0.01,0.14,-0.11,
0.677,0.27,-0.33,0.49,0.02,0.14,-0.11,
0.679,0.27,-0.33,0.49,0.03,0.14,-0.12,
0.682,0.27,-0.33,0.49,0.05,0.14,-0.13,
0.684,0.36,-0.24,0.52,0.05,0.14,-0.13,
0.685,0.36,-0.24,0.52,0.07,0.14,-0.14,
0.687,0.36,-0.24,0.52,0.10,0.14,-0.15,
0.688,0.36,-0.24,0.52,0.11,0.13,-0.15,
0.69,0.36,-0.24,0.52,0.14,0.13,-0.16,
0.692,0.36,-0.24,0.52,0.15,0.12,-0.17,
0.693,0.27,-0.19,0.40,0.15,0.12,-0.17,
0.694,0.27,-0.19,0.40,0.17,0.10,-0.17,
0.696,0.27,-0.19,0.40,0.20,0.08,-0.18,
0.699,0.27,-0.19,0.40,0.20,0.07,-0.19,
0.702,0.27,-0.19,0.40,0.22,0.05,-0.19,
0.702,0.27,-0.19,0.40,0.23,0.02,-0.20,
0.738,0.11,-0.16,0.08,0.23,0.02,-0.20,
0.739,0.11,-0.16,0.08,0.24,0.00,-0.21,
0.739,0.11,-0.16,0.08,0.26,-0.04,-0.22,
0.74,0.11,-0.16,0.08,0.26,-0.05,-0.23,
0.74,0.11,-0.16,0.08,0.27,-0.08,-0.24,
0.74,0.11,-0.16,0.08,0.28,-0.14,-0.25,
0.741,0.11,-0.16,0.08,0.28,-0.14,-0.25,
0.741,-0.05,-0.20,-0.38,0.28,-0.14,-0.25,
0.742,-0.05,-0.20,-0.38,0.29,-0.18,-0.27,
0.742,-0.05,-0.20,-0.38,0.28,-0.20,-0.27,
0.743,-0.05,-0.20,-0.38,0.28,-0.23,-0.28,
0.743,-0.05,-0.20,-0.38,0.28,-0.26,-0.29,
0.744,-0.18,-0.24,-0.70,0.28,-0.26,-0.29,
0.745,-0.18,-0.24,-0.70,0.27,-0.29,-0.29,
0.745,-0.18,-0.24,-0.70,0.26,-0.34,-0.30,
0.745,-0.18,-0.24,-0.70,0.25,-0.35,-0.30,
0.746,-0.18,-0.24,-0.70,0.23,-0.38,-0.31,
0.746,-0.18,-0.24,-0.70,0.22,-0.41,-0.32,
0.747,-0.35,-0.27,-1.04,0.22,-0.41,-0.32,
0.748,-0.35,-0.27,-1.04,0.20,-0.43,-0.32,
0.748,-0.35,-0.27,-1.04,0.16,-0.47,-0.33,
0.749,-0.35,-0.27,-1.04,0.15,-0.47,-0.33,
0.749,-0.35,-0.27,-1.04,0.13,-0.49,-0.34,
0.75,-0.35,-0.27,-1.04,0.10,-0.50,-0.34,
0.751,-0.49,-0.27,-1.12,0.10,-0.50,-0.34,
0.751,-0.49,-0.27,-1.12,0.07,-0.51,-0.34,
0.751,-0.49,-0.27,-1.12,0.04,-0.51,-0.35,
0.752,-0.49,-0.27,-1.12,0.02,-0.51,-0.35,
0.752,-0.49,-0.27,-1.12,0.00,-0.51,-0.35,
0.753,-0.49,-0.27,-1.12,-0.03,-0.51,-0.35,
0.756,-0.57,-0.34,-0.82,-0.03,-0.51,-0.35,
0.758,-0.57,-0.34,-0.82,-0.05,-0.51,-0.36,
0.759,-0.57,-0.34,-0.82,-0.08,-0.50,-0.36,
0.759,-0.57,-0.34,-0.82,-0.09,-0.49,-0.36,
0.762,-0.57,-0.34,-0.82,-0.11,-0.48,-0.37,
0.763,-0.57,-0.34,-0.82,-0.13,-0.46,-0.37,
0.764,-0.51,-0.38,-0.37,-0.13,-0.46,-0.37,
0.765,-0.51,-0.38,-0.37,-0.15,-0.45,-0.38,
0.767,-0.51,-0.38,-0.37,-0.17,-0.40,-0.39,
0.768,-0.51,-0.38,-0.37,-0.18,-0.39,-0.39,
0.772,-0.51,-0.38,-0.37,-0.20,-0.36,-0.40,
0.773,-0.51,-0.38,-0.37,-0.22,-0.33,-0.40,
0.774,-0.46,-0.39,0.05,-0.22,-0.33,-0.40,
0.775,-0.46,-0.39,0.05,-0.23,-0.29,-0.41,
0.779,-0.46,-0.39,0.05,-0.25,-0.23,-0.42,
0.78,-0.46,-0.39,0.05,-0.26,-0.22,-0.42,
0.78,-0.46,-0.39,0.05,-0.27,-0.18,-0.43,
0.8,-0.46,-0.39,0.05,-0.28,-0.14,-0.43,
0.801,-0.40,-0.42,0.50,-0.28,-0.14,-0.43,
0.802,-0.40,-0.42,0.50,-0.28,-0.10,-0.44,
0.802,-0.40,-0.42,0.50,-0.29,-0.04,-0.45,
0.802,-0.40,-0.42,0.50,-0.29,-0.02,-0.45,
0.803,-0.40,-0.42,0.50,-0.29,0.02,-0.45,
0.803,-0.40,-0.42,0.50,-0.28,0.05,-0.45,
0.803,-0.50,-0.47,0.85,-0.28,0.05,-0.45,
0.804,-0.50,-0.47,0.85,-0.28,0.09,-0.45,
0.804,-0.50,-0.47,0.85,-0.27,0.14,-0.44,
0.804,-0.50,-0.47,0.85,-0.27,0.15,-0.44,
0.804,-0.50,-0.47,0.85,-0.26,0.17,-0.44,
0.805,-0.50,-0.47,0.85,-0.25,0.19,-0.43,
0.805,-0.69,-0.44,0.95,-0.25,0.19,-0.43,
0.806,-0.69,-0.44,0.95,-0.24,0.21,-0.43,
0.808,-0.69,-0.44,0.95,-0.23,0.23,-0.42,
0.809,-0.69,-0.44,0.95,-0.22,0.23,-0.42,
0.81,-0.69,-0.44,0.95,-0.22,0.24,-0.41,
0.812,-0.69,-0.44,0.95,-0.21,0.24,-0.40,
0.815,-0.95,-0.38,0.84,-0.21,0.24,-0.40,
0.816,-0.95,-0.38,0.84,-0.20,0.24,-0.39,
0.819,-0.95,-0.38,0.84,-0.18,0.23,-0.38,
0.819,-0.95,-0.38,0.84,-0.18,0.23,-0.38,
0.82,-0.95,-0.38,0.84,-0.17,0.22,-0.37,
0.822,-0.95,-0.38,0.84,-0.16,0.21,-0.36,
0.824,-1.03,-0.27,0.60,-0.16,0.21,-0.36,
0.824,-1.03,-0.27,0.60,-0.15,0.20,-0.35,
0.827,-1.03,-0.27,0.60,-0.14,0.17,-0.34,
0.828,-1.03,-0.27,0.60,-0.13,0.17,-0.34,
0.83,-1.03,-0.27,0.60,-0.12,0.15,-0.33,
0.832,-1.03,-0.27,0.60,-0.11,0.13,-0.33,
0.834,-1.05,-0.23,0.47,-0.11,0.13,-0.33,
0.834,-1.05,-0.23,0.47,-0.10,0.11,-0.32,
0.837,-1.05,-0.23,0.47,-0.09,0.07,-0.31,
0.838,-1.05,-0.23,0.47,-0.08,0.06,-0.31,
0.84,-1.05,-0.23,0.47,-0.06,0.04,-0.30,
0.845,-1.05,-0.23,0.47,-0.04,-0.00,-0.30,
0.846,-1.00,-0.14,0.47,-0.04,-0.00,-0.30,
0.847,-1.00,-0.14,0.47,-0.03,-0.01,-0.29,
0.848,-1.00,-0.14,0.47,-0.01,-0.05,-0.29,
0.849,-1.00,-0.14,0.47,-0.00,-0.06,-0.29,
0.852,-1.00,-0.14,0.47,0.01,-0.09,-0.29,
0.855,-1.00,-0.14,0.47,0.03,-0.11,-0.28,
0.856,-0.92,-0.08,0.55,0.03,-0.11,-0.28,
0.856,-0.92,-0.08,0.55,0.05,-0.13,-0.28,
0.857,-0.92,-0.08,0.55,0.07,-0.15,-0.28,
0.858,-0.92,-0.08,0.55,0.08,-0.16,-0.28,
0.86,-0.92,-0.08,0.55,0.10,-0.18,-0.28,
0.862,-0.92,-0.08,0.55,0.11,-0.19,-0.28,
0.866,-0.78,-0.03,0.53,0.11,-0.19,-0.28,
0.869,-0.78,-0.03,0.53,0.12,-0.21,-0.28,
0.869,-0.78,-0.03,0.53,0.14,-0.22,-0.29,
0.87,-0.78,-0.03,0.53,0.14,-0.22,-0.29,
0.905,-0.78,-0.03,0.53,0.15,-0.23,-0.29,
0.905,-0.78,-0.03,0.53,0.16,-0.23,-0.29,
0.906,-0.69,-0.05,0.37,0.16,-0.23,-0.29,
0.906,-0.69,-0.05,0.37,0.16,-0.23,-0.29,
0.907,-0.69,-0.05,0.37,0.17,-0.23,-0.29,
0.907,-0.69,-0.05,0.37,0.17,-0.23,-0.29,
0.908,-0.69,-0.05,0.37,0.16,-0.22,-0.29,
0.909,-0.69,-0.05,0.37,0.16,-0.21,-0.29,
0.909,-0.57,-0.09,0.20,0.16,-0.21,-0.29,
0.909,-0.57,-0.09,0.20,0.16,-0.20,-0.29,
0.91,-0.57,-0.09,0.20,0.15,-0.18,-0.29,
0.911,-0.57,-0.09,0.20,0.15,-0.17,-0.28,
0.911,-0.57,-0.09,0.20,0.14,-0.15,-0.28,
0.912,-0.57,-0.09,0.20,0.13,-0.13,-0.28,
0.913,-0.59,-0.14,0.08,0.13,-0.13,-0.28,
0.914,-0.59,-0.14,0.08,0.12,-0.11,-0.27,
0.915,-0.59,-0.14,0.08,0.10,-0.06,-0.27,
0.916,-0.59,-0.14,0.08,0.10,-0.05,-0.26,
0.916,-0.59,-0.14,0.08,0.08,-0.02,-0.26,
0.917,-0.59,-0.14,0.08,0.08,0.01,-0.25,
0.918,-0.54,-0.16,0.10,0.08,0.01,-0.25,
0.919,-0.54,-0.16,0.10,0.06,0.04,-0.25,
0.919,-0.54,-0.16,0.10,0.05,0.08,-0.24,
0.92,-0.54,-0.16,0.10,0.04,0.09,-0.24,
0.92,-0.54,-0.16,0.10,0.04,0.12,-0.23,
0.92,-0.54,-0.16,0.10,0.03,0.15,-0.23,
0.921,-0.37,-0.19,0.27,0.03,0.15,-0.23,
0.921,-0.37,-0.19,0.27,0.03,0.17,-0.23,
0.922,-0.37,-0.19,0.27,0.03,0.21,-0.22,
0.922,-0.37,-0.19,0.27,0.03,0.22,-0.22,
0.923,-0.37,-0.19,0.27,0.03,0.24,-0.22,
0.923,-0.37,-0.19,0.27,0.04,0.26,-0.22,
0.924,-0.19,-0.25,0.62,0.04,0.26,-0.22,
0.925,-0.19,-0.25,0.62,0.05,0.28,-0.22,
0.928,-0.19,-0.25,0.62,0.08,0.30,-0.21,
0.932,-0.19,-0.25,0.62,0.09,0.31,-0.21,
0.933,-0.19,-0.25,0.62,0.10,0.32,-0.21,
0.934,-0.19,-0.25,0.62,0.12,0.34,-0.21,
0.934,-0.05,-0.36,0.84,0.12,0.34,-0.21,
0.935,-0.05,-0.36,0.84,0.14,0.35,-0.20,
0.939,-0.05,-0.36,0.84,0.17,0.36,-0.20,
0.94,-0.05,-0.36,0.84,0.19,0.37,-0.20,
0.94,-0.05,-0.36,0.84,0.21,0.37,-0.20,
0.942,-0.05,-0.36,0.84,0.23,0.37,-0.20,
0.944,0.17,-0.32,0.88,0.23,0.37,-0.20,
0.945,0.17,-0.32,0.88,0.25,0.36,-0.20,
0.958,0.17,-0.32,0.88,0.29,0.34,-0.20,
0.96,0.17,-0.32,0.88,0.30,0.33,-0.20,
0.961,0.17,-0.32,0.88,0.32,0.31,-0.21,
0.961,0.17,-0.32,0.88,0.35,0.30,-0.21,
0.962,0.45,-0.21,0.77,0.35,0.30,-0.21,
0.962,0.45,-0.21,0.77,0.37,0.28,-0.22,
0.963,0.45,-0.21,0.77,0.40,0.24,-0.23,
0.963,0.45,-0.21,0.77,0.41,0.23,-0.23,
0.964,0.45,-0.21,0.77,0.43,0.20,-0.24,
0.964,0.45,-0.21,0.77,0.45,0.16,-0.25,
0.971,0.49,-0.16,0.38,0.45,0.16,-0.25,
0.972,0.49,-0.16,0.38,0.46,0.12,-0.26,
0.972,0.49,-0.16,0.38,0.48,0.06,-0.28,
0.973,0.49,-0.16,0.38,0.48,0.04,-0.28,
0.973,0.49,-0.16,0.38,0.49,-0.01,-0.29,
0.973,0.49,-0.16,0.38,0.49,-0.05,-0.30,
0.974,0.33,-0.06,-0.22,0.49,-0.05,-0.30,
0.974,0.33,-0.06,-0.22,0.49,-0.10,-0.30,
0.977,0.33,-0.06,-0.22,0.49,-0.17,-0.32,
0.978,0.33,-0.06,-0.22,0.49,-0.19,-0.32,
0.984,0.33,-0.06,-0.22,0.48,-0.24,-0.32,
0.985,0.33,-0.06,-0.22,0.48,-0.28,-0.33,
0.985,-0.08,0.19,-0.71,0.48,-0.28,-0.33,
0.986,-0.08,0.19,-0.71,0.47,-0.32,-0.33,
0.987,-0.08,0.19,-0.71,0.46,-0.38,-0.33,
0.988,-0.08,0.19,-0.71,0.45,-0.40,-0.33,
0.99,-0.08,0.19,-0.71,0.44,-0.44,-0.33,
0.993,-0.08,0.19,-0.71,0.42,-0.46,-0.33,
0.994,-0.46,0.37,-1.28,0.42,-0.46,-0.33,
0.995,-0.46,0.37,-1.28,0.40,-0.48,-0.33,
1.0,-0.46,0.37,-1.28,0.35,-0.50,-0.32,
1.001,-0.46,0.37,-1.28,0.33,-0.50,-0.31,
1.002,-0.46,0.37,-1.28,0.29,-0.51,-0.31,
1.002,-0.46,0.37,-1.28,0.25,-0.50,-0.30,
1.004,-0.54,0.25,-1.94,0.25,-0.50,-0.30,
1.005,-0.54,0.25,-1.94,0.20,-0.49,-0.29,
1.007,-0.54,0.25,-1.94,0.13,-0.45,-0.27,
1.008,-0.54,0.25,-1.94,0.11,-0.44,-0.27,
1.01,-0.54,0.25,-1.94,0.06,-0.40,-0.26,
1.012,-0.54,0.25,-1.94,0.01,-0.36,-0.24,
1.014,-0.54,0.13,-2.22,0.01,-0.36,-0.24,
1.015,-0.54,0.13,-2.22,-0.04,-0.32,-0.23,
1.018,-0.54,0.13,-2.22,-0.11,-0.24,-0.21,
1.021,-0.54,0.13,-2.22,-0.14,-0.22,-0.20,
1.021,-0.54,0.13,-2.22,-0.18,-0.18,-0.19,
1.022,-0.54,0.13,-2.22,-0.23,-0.13,-0.17,
1.024,-0.37,-0.10,-2.04,-0.23,-0.13,-0.17,
1.025,-0.37,-0.10,-2.04,-0.27,-0.08,-0.16,
1.027,-0.37,-0.10,-2.04,-0.33,0.00,-0.13,
1.028,-0.37,-0.10,-2.04,-0.35,0.03,-0.12,
1.044,-0.37,-0.10,-2.04,-0.39,0.08,-0.11,
1.045,-0.37,-0.10,-2.04,-0.43,0.13,-0.09,
1.046,-0.22,-0.16,-1.71,-0.43,0.13,-0.09,
1.046,-0.22,-0.16,-1.71,-0.46,0.17,-0.08,
1.087,-0.22,-0.16,-1.71,-0.50,0.24,-0.07,
1.088,-0.22,-0.16,-1.71,-0.51,0.26,-0.06,
1.088,-0.22,-0.16,-1.71,-0.54,0.29,-0.06,
1.089,-0.22,-0.16,-1.71,-0.56,0.33,-0.05,
1.089,-0.02,-0.01,-1.22,-0.56,0.33,-0.05,
1.09,-0.02,-0.01,-1.22,-0.58,0.35,-0.05,
1.09,-0.02,-0.01,-1.22,-0.59,0.39,-0.05,
1.091,-0.02,-0.01,-1.22,-0.60,0.40,-0.05,
1.092,-0.02,-0.01,-1.22,-0.60,0.42,-0.05,
1.092,-0.02,-0.01,-1.22,-0.61,0.44,-0.05,
1.093,0.13,0.16,-0.57,-0.61,0.44,-0.05,
1.093,0.13,0.16,-0.57,-0.60,0.45,-0.06,
1.093,0.13,0.16,-0.57,-0.59,0.45,-0.06,
1.094,0.13,0.16,-0.57,-0.59,0.45,-0.06,
1.094,0.13,0.16,-0.57,-0.57,0.45,-0.06,
1.095,0.13,0.16,-0.57,-0.55,0.45,-0.06,
1.095,0.17,0.18,0.28,-0.55,0.45,-0.06,
1.096,0.17,0.18,0.28,-0.53,0.45,-0.06,
1.096,0.17,0.18,0.28,-0.48,0.43,-0.06,
1.096,0.17,0.18,0.28,-0.46,0.43,-0.06,
1.097,0.17,0.18,0.28,-0.42,0.42,-0.05,
1.097,0.17,0.18,0.28,-0.38,0.40,-0.05,
1.098,0.16,0.07,1.12,-0.38,0.40,-0.05,
1.098,0.16,0.07,1.12,-0.33,0.39,-0.04,
1.099,0.16,0.07,1.12,-0.26,0.36,-0.03,
1.099,0.16,0.07,1.12,-0.23,0.35,-0.03,
1.099,0.16,0.07,1.12,-0.18,0.33,-0.02,
1.1,0.16,0.07,1.12,-0.13,0.31,-0.02,
1.1,0.18,0.03,1.51,-0.13,0.31,-0.02,
1.101,0.18,0.03,1.51,-0.08,0.29,-0.02,
1.101,0.18,0.03,1.51,0.00,0.25,-0.01,
1.102,0.18,0.03,1.51,0.03,0.24,-0.01,
1.102,0.18,0.03,1.51,0.08,0.21,-0.01,
1.103,0.18,0.03,1.51,0.12,0.19,-0.00,
1.103,0.05,0.17,1.21,0.12,0.19,-0.00,
1.103,0.05,0.17,1.21,0.16,0.16,0.00,
1.104,0.05,0.17,1.21,0.22,0.13,0.01,
1.104,0.05,0.17,1.21,0.24,0.12,0.01,
1.105,0.05,0.17,1.21,0.27,0.10,0.02,
1.105,0.05,0.17,1.21,0.29,0.09,0.03,
1.106,-0.12,0.37,0.43,0.29,0.09,0.03,
1.106,-0.12,0.37,0.43,0.32,0.07,0.03,
1.106,-0.12,0.37,0.43,0.35,0.05,0.04,
1.109,-0.12,0.37,0.43,0.36,0.05,0.04,
1.11,-0.12,0.37,0.43,0.37,0.04,0.05,
1.112,-0.12,0.37,0.43,0.39,0.03,0.05,
1.122,-0.21,0.52,-0.35,0.39,0.03,0.05,
1.123,-0.21,0.52,-0.35,0.40,0.02,0.06,
1.123,-0.21,0.52,-0.35,0.41,0.00,0.06,
1.124,-0.21,0.52,-0.35,0.41,-0.00,0.07,
1.124,-0.21,0.52,-0.35,0.41,-0.01,0.07,
1.125,-0.21,0.52,-0.35,0.41,-0.02,0.08,
1.125,-0.29,0.60,-1.10,0.41,-0.02,0.08,
1.125,-0.29,0.60,-1.10,0.40,-0.02,0.09,
1.127,-0.29,0.60,-1.10,0.39,-0.03,0.09,
1.128,-0.29,0.60,-1.10,0.39,-0.03,0.10,
1.138,-0.29,0.60,-1.10,0.38,-0.04,0.10,
1.139,-0.29,0.60,-1.10,0.37,-0.04,0.11,
1.139,-0.34,0.74,-1.72,0.37,-0.04,0.11,
1.14,-0.34,0.74,-1.72,0.36,-0.04,0.11,
1.14,-0.34,0.74,-1.72,0.34,-0.05,0.12,
1.14,-0.34,0.74,-1.72,0.33,-0.06,0.12,
1.14,-0.34,0.74,-1.72,0.31,-0.06,0.13,
1.142,-0.34,0.74,-1.72,0.29,-0.07,0.13,
1.145,-0.33,0.74,-2.09,0.29,-0.07,0.13,
1.145,-0.33,0.74,-2.09,0.27,-0.08,0.14,
1.15,-0.33,0.74,-2.09,0.24,-0.09,0.14,
1.151,-0.33,0.74,-2.09,0.23,-0.09,0.14,
1.152,-0.33,0.74,-2.09,0.20,-0.09,0.14,
1.152,-0.33,0.74,-2.09,0.18,-0.10,0.14,
1.154,-0.19,0.79,-2.33,0.18,-0.10,0.14,
1.155,-0.19,0.79,-2.33,0.15,-0.10,0.13,
1.157,-0.19,0.79,-2.33,0.12,-0.10,0.13,
1.158,-0.19,0.79,-2.33,0.10,-0.10,0.13,
1.16,-0.19,0.79,-2.33,0.08,-0.09,0.12,
1.162,-0.19,0.79,-2.33,0.05,-0.09,0.12,
1.164,0.04,0.66,-2.26,0.05,-0.09,0.12,
1.166,0.04,0.66,-2.26,0.02,-0.08,0.11,
1.167,0.04,0.66,-2.26,-0.02,-0.08,0.09,
1.17,0.04,0.66,-2.26,-0.04,-0.08,0.09,
1.171,0.04,0.66,-2.26,-0.06,-0.08,0.08,
1.172,0.04,0.66,-2.26,-0.09,-0.07,0.07,
1.174,0.27,0.54,-1.98,-0.09,-0.07,0.07,
1.175,0.27,0.54,-1.98,-0.12,-0.07,0.05,
1.178,0.27,0.54,-1.98,-0.15,-0.07,0.03,
1.179,0.27,0.54,-1.98,-0.16,-0.06,0.02,
1.194,0.27,0.54,-1.98,-0.18,-0.06,0.01,
1.195,0.27,0.54,-1.98,-0.19,-0.05,-0.01,
1.196,0.39,0.42,-1.28,-0.19,-0.05,-0.01,
1.196,0.39,0.42,-1.28,-0.21,-0.04,-0.02,
1.196,0.39,0.42,-1.28,-0.22,-0.03,-0.05,
1.197,0.39,0.42,-1.28,-0.23,-0.02,-0.06,
1.197,0.39,0.42,-1.28,-0.23,-0.01,-0.07,
1.197,0.39,0.42,-1.28,-0.24,0.01,-0.09,
1.197,0.38,0.24,-0.62,-0.24,0.01,-0.09,
1.198,0.38,0.24,-0.62,-0.25,0.02,-0.11,
1.198,0.38,0.24,-0.62,-0.25,0.04,-0.11,
1.202,0.38,0.24,-0.62,-0.26,0.04,-0.12,
1.203,0.38,0.24,-0.62,-0.26,0.05,-0.13,
1.204,0.38,0.24,-0.62,-0.26,0.06,-0.14,
1.234,0.22,0.02,-0.19,-0.26,0.06,-0.14,
1.235,0.22,0.02,-0.19,-0.26,0.07,-0.14,
1.235,0.22,0.02,-0.19,-0.26,0.09,-0.15,
1.236,0.22,0.02,-0.19,-0.26,0.09,-0.16,
1.236,0.22,0.02,-0.19,-0.26,0.10,-0.16,
1.237,0.22,0.02,-0.19,-0.25,0.11,-0.16,
1.237,0.03,-0.13,0.12,-0.25,0.11,-0.16,
1.238,0.03,-0.13,0.12,-0.25,0.11,-0.17,
1.238,0.03,-0.13,0.12,-0.25,0.12,-0.17,
1.238,0.03,-0.13,0.12,-0.25,0.12,-0.17,
1.239,0.03,-0.13,0.12,-0.25,0.12,-0.17,
1.239,0.03,-0.13,0.12,-0.25,0.12,-0.17,
1.24,-0.22,-0.21,0.23,-0.25,0.12,-0.17,
1.24,-0.22,-0.21,0.23,-0.25,0.11,-0.16,
1.241,-0.22,-0.21,0.23,-0.24,0.10,-0.15,
1.241,-0.22,-0.21,0.23,-0.24,0.10,-0.15,
1.241,-0.22,-0.21,0.23,-0.24,0.10,-0.14,
1.242,-0.22,-0.21,0.23,-0.24,0.09,-0.13,
1.242,-0.43,-0.31,0.26,-0.24,0.09,-0.13,
1.243,-0.43,-0.31,0.26,-0.24,0.08,-0.13,
1.243,-0.43,-0.31,0.26,-0.24,0.07,-0.11,
1.243,-0.43,-0.31,0.26,-0.24,0.07,-0.10,
1.244,-0.43,-0.31,0.26,-0.24,0.06,-0.09,
1.244,-0.43,-0.31,0.26,-0.24,0.05,-0.09,
1.244,-0.35,-0.35,0.30,-0.24,0.05,-0.09,
1.245,-0.35,-0.35,0.30,-0.24,0.05,-0.08,
1.249,-0.35,-0.35,0.30,-0.24,0.04,-0.07,
1.25,-0.35,-0.35,0.30,-0.24,0.03,-0.07,
1.25,-0.35,-0.35,0.30,-0.23,0.02,-0.06,
1.254,-0.35,-0.35,0.30,-0.23,0.02,-0.06,
1.254,-0.09,-0.38,0.46,-0.23,0.02,-0.06,
1.255,-0.09,-0.38,0.46,-0.22,0.01,-0.05,
1.259,-0.09,-0.38,0.46,-0.21,0.01,-0.05,
1.259,-0.09,-0.38,0.46,-0.20,0.01,-0.05,
1.26,-0.09,-0.38,0.46,-0.19,0.01,-0.05,
1.263,-0.09,-0.38,0.46,-0.18,0.00,-0.05,
1.264,0.06,-0.31,0.64,-0.18,0.00,-0.05,
1.265,0.06,-0.31,0.64,-0.17,0.00,-0.05,
1.267,0.06,-0.31,0.64,-0.15,0.01,-0.05,
1.268,0.06,-0.31,0.64,-0.15,0.01,-0.05,
1.271,0.06,-0.31,0.64,-0.14,0.01,-0.05,
1.272,0.06,-0.31,0.64,-0.12,0.02,-0.04,
1.274,0.11,-0.24,0.74,-0.12,0.02,-0.04,
1.274,0.11,-0.24,0.74,-0.11,0.03,-0.04,
1.277,0.11,-0.24,0.74,-0.09,0.04,-0.04,
1.28,0.11,-0.24,0.74,-0.09,0.04,-0.04,
1.28,0.11,-0.24,0.74,-0.08,0.05,-0.04,
1.282,0.11,-0.24,0.74,-0.07,0.06,-0.03,
1.284,0.09,-0.18,0.65,-0.07,0.06,-0.03,
1.285,0.09,-0.18,0.65,-0.06,0.07,-0.03,
1.287,0.09,-0.18,0.65,-0.05,0.08,-0.02,
1.288,0.09,-0.18,0.65,-0.05,0.09,-0.02,
1.29,0.09,-0.18,0.65,-0.04,0.10,-0.02,
1.292,0.09,-0.18,0.65,-0.04,0.11,-0.01,
1.293,-0.06,-0.21,0.27,-0.04,0.11,-0.01,
1.294,-0.06,-0.21,0.27,-0.04,0.13,-0.00,
1.3,-0.06,-0.21,0.27,-0.05,0.14,0.01,
1.301,-0.06,-0.21,0.27,-0.05,0.15,0.02,
1.301,-0.06,-0.21,0.27,-0.05,0.16,0.03,
1.302,-0.06,-0.21,0.27,-0.05,0.17,0.04,
1.304,-0.25,-0.15,-0.14,-0.05,0.17,0.04,
1.304,-0.25,-0.15,-0.14,-0.06,0.17,0.05,
1.307,-0.25,-0.15,-0.14,-0.07,0.19,0.07,
1.308,-0.25,-0.15,-0.14,-0.07,0.19,0.07,
1.31,-0.25,-0.15,-0.14,-0.08,0.20,0.09,
1.323,-0.25,-0.15,-0.14,-0.08,0.21,0.10,
1.324,-0.40,-0.03,-0.38,-0.08,0.21,0.10,
1.324,-0.40,-0.03,-0.38,-0.09,0.21,0.11,
1.325,-0.40,-0.03,-0.38,-0.10,0.22,0.13,
1.325,-0.40,-0.03,-0.38,-0.10,0.22,0.14,
1.325,-0.40,-0.03,-0.38,-0.11,0.23,0.15,
1.326,-0.40,-0.03,-0.38,-0.11,0.24,0.16,
1.326,-0.39,0.02,-0.43,-0.11,0.24,0.16,
1.327,-0.39,0.02,-0.43,-0.11,0.24,0.17,
1.327,-0.39,0.02,-0.43,-0.11,0.25,0.19,
1.342,-0.39,0.02,-0.43,-0.11,0.25,0.19,
1.344,-0.39,0.02,-0.43,-0.12,0.26,0.20,
1.345,-0.39,0.02,-0.43,-0.11,0.25,0.21,
1.345,-0.15,0.06,-0.40,-0.11,0.25,0.21,
1.346,-0.15,0.06,-0.40,-0.11,0.25,0.21,
1.347,-0.15,0.06,-0.40,-0.11,0.25,0.22,
1.348,-0.15,0.06,-0.40,-0.11,0.25,0.22,
1.348,-0.15,0.06,-0.40,-0.11,0.24,0.23,
1.349,-0.15,0.06,-0.40,-0.11,0.24,0.23,
1.349,0.07,0.20,-0.40,-0.11,0.24,0.23,
1.35,0.07,0.20,-0.40,-0.10,0.22,0.23,
1.351,0.07,0.20,-0.40,-0.10,0.21,0.23,
1.352,0.07,0.20,-0.40,-0.09,0.20,0.23,
1.353,0.07,0.20,-0.40,-0.09,0.18,0.24,
1.353,0.07,0.20,-0.40,-0.08,0.17,0.24,
1.354,0.24,0.37,-0.37,-0.08,0.17,0.24,
1.355,0.24,0.37,-0.37,-0.07,0.15,0.23,
1.358,0.24,0.37,-0.37,-0.06,0.13,0.23,
1.359,0.24,0.37,-0.37,-0.06,0.12,0.23,
1.36,0.24,0.37,-0.37,-0.05,0.10,0.23,
1.37,0.24,0.37,-0.37,-0.04,0.08,0.22,
1.372,0.45,0.47,-0.29,-0.04,0.08,0.22,
1.373,0.45,0.47,-0.29,-0.03,0.07,0.22,
1.374,0.45,0.47,-0.29,-0.02,0.04,0.21,
1.374,0.45,0.47,-0.29,-0.01,0.03,0.20,
1.411,0.45,0.47,-0.29,-0.01,0.02,0.19,
1.411,0.45,0.47,-0.29,0.00,-0.00,0.18,
1.412,0.71,0.60,-0.25,0.00,-0.00,0.18,
1.412,0.71,0.60,-0.25,0.01,-0.02,0.17,
1.413,0.71,0.60,-0.25,0.03,-0.05,0.15,
1.413,0.71,0.60,-0.25,0.03,-0.06,0.14,
1.414,0.71,0.60,-0.25,0.04,-0.06,0.14,
1.414,0.71,0.60,-0.25,0.04,-0.08,0.12,
1.414,0.85,0.64,-0.23,0.04,-0.08,0.12,
1.415,0.85,0.64,-0.23,0.05,-0.09,0.11,
1.415,0.85,0.64,-0.23,0.06,-0.11,0.10,
1.416,0.85,0.64,-0.23,0.06,-0.11,0.09,
1.416,0.85,0.64,-0.23,0.06,-0.12,0.08,
1.417,0.85,0.64,-0.23,0.07,-0.12,0.07,
1.417,0.81,0.64,-0.30,0.07,-0.12,0.07,
1.417,0.81,0.64,-0.30,0.07,-0.13,0.06,
1.418,0.81,0.64,-0.30,0.07,-0.14,0.05,
1.418,0.81,0.64,-0.30,0.07,-0.14,0.04,
1.419,0.81,0.64,-0.30,0.07,-0.14,0.04,
1.419,0.81,0.64,-0.30,0.06,-0.15,0.03,
1.42,0.69,0.59,-0.37,0.06,-0.15,0.03,
1.42,0.69,0.59,-0.37,0.06,-0.15,0.02,
1.42,0.69,0.59,-0.37,0.05,-0.15,0.02,
1.421,0.69,0.59,-0.37,0.04,-0.15,0.02,
1.421,0.69,0.59,-0.37,0.04,-0.15,0.01,
1.422,0.69,0.59,-0.37,0.03,-0.14,0.01,
1.422,0.50,0.53,-0.43,0.03,-0.14,0.01,
1.423,0.50,0.53,-0.43,0.01,-0.13,0.01,
1.423,0.50,0.53,-0.43,-0.00,-0.12,0.01,
1.423,0.50,0.53,-0.43,-0.01,-0.11,0.01,
1.424,0.50,0.53,-0.43,-0.02,-0.10,0.02,
1.424,0.50,0.53,-0.43,-0.03,-0.09,0.02,
1.425,0.28,0.41,-0.33,-0.03,-0.09,0.02,
1.425,0.28,0.41,-0.33,-0.05,-0.08,0.02,
1.43,0.28,0.41,-0.33,-0.06,-0.05,0.03,
1.431,0.28,0.41,-0.33,-0.07,-0.04,0.04,
1.432,0.28,0.41,-0.33,-0.08,-0.03,0.04,
1.432,0.28,0.41,-0.33,-0.08,-0.01,0.05,
1.434,0.17,0.29,-0.10,-0.08,-0.01,0.05,
1.434,0.17,0.29,-0.10,-0.09,0.00,0.05,
1.437,0.17,0.29,-0.10,-0.10,0.03,0.06,
1.438,0.17,0.29,-0.10,-0.11,0.04,0.07,
1.44,0.17,0.29,-0.10,-0.11,0.05,0.07,
1.442,0.17,0.29,-0.10,-0.11,0.07,0.08,
1.444,0.02,0.23,0.16,-0.11,0.07,0.08,
1.444,0.02,0.23,0.16,-0.12,0.08,0.09,
1.448,0.02,0.23,0.16,-0.12,0.10,0.09,
1.448,0.02,0.23,0.16,-0.12,0.11,0.10,
1.45,0.02,0.23,0.16,-0.12,0.11,0.10,
1.452,0.02,0.23,0.16,-0.12,0.12,0.11,
1.454,0.02,0.21,0.35,-0.12,0.12,0.11,
1.455,0.02,0.21,0.35,-0.12,0.12,0.11,
1.457,0.02,0.21,0.35,-0.11,0.13,0.11,
1.458,0.02,0.21,0.35,-0.11,0.13,0.12,
1.46,0.02,0.21,0.35,-0.11,0.13,0.12,
1.471,0.02,0.21,0.35,-0.10,0.13,0.12,
1.473,0.20,0.20,0.51,-0.10,0.13,0.12,
1.473,0.20,0.20,0.51,-0.09,0.13,0.12,
1.474,0.20,0.20,0.51,-0.08,0.13,0.12,
1.474,0.20,0.20,0.51,-0.06,0.13,0.11,
1.475,0.20,0.20,0.51,-0.06,0.12,0.11,
1.475,0.20,0.20,0.51,-0.04,0.12,0.11,
1.475,0.34,0.29,0.68,-0.04,0.12,0.11,
1.476,0.34,0.29,0.68,-0.02,0.11,0.10,
1.477,0.34,0.29,0.68,0.00,0.10,0.10,
1.492,0.34,0.29,0.68,0.02,0.09,0.09,
1.493,0.34,0.29,0.68,0.03,0.09,0.09,
1.493,0.34,0.29,0.68,0.04,0.08,0.08,
1.494,0.43,0.33,0.69,0.04,0.08,0.08,
1.494,0.43,0.33,0.69,0.06,0.08,0.07,
1.494,0.43,0.33,0.69,0.09,0.06,0.06,
1.495,0.43,0.33,0.69,0.11,0.06,0.06,
1.495,0.43,0.33,0.69,0.11,0.05,0.06,
1.495,0.43,0.33,0.69,0.13,0.05,0.05,
1.495,0.44,0.32,0.52,0.13,0.05,0.05,
1.496,0.44,0.32,0.52,0.14,0.04,0.05,
1.505,0.44,0.32,0.52,0.16,0.03,0.05,
1.506,0.44,0.32,0.52,0.16,0.03,0.04,
1.506,0.44,0.32,0.52,0.17,0.02,0.04,
1.507,0.44,0.32,0.52,0.17,0.02,0.04,
1.507,0.31,0.29,0.12,0.17,0.02,0.04,
1.507,0.31,0.29,0.12,0.17,0.01,0.04,
1.508,0.31,0.29,0.12,0.18,0.01,0.04,
1.508,0.31,0.29,0.12,0.17,0.01,0.04,
1.51,0.31,0.29,0.12,0.17,0.01,0.04,
1.517,0.31,0.29,0.12,0.17,0.01,0.04,
1.518,0.20,0.28,-0.24,0.17,0.01,0.04,
1.518,0.20,0.28,-0.24,0.17,0.00,0.05,
1.519,0.20,0.28,-0.24,0.16,0.00,0.05,
1.519,0.20,0.28,-0.24,0.15,0.00,0.05,
1.52,0.20,0.28,-0.24,0.15,0.00,0.06,
1.522,0.20,0.28,-0.24,0.14,0.00,0.06,
1.524,0.11,0.21,-0.40,0.14,0.00,0.06,
1.525,0.11,0.21,-0.40,0.14,-0.00,0.06,
1.528,0.11,0.21,-0.40,0.13,0.00,0.07,
1.529,0.11,0.21,-0.40,0.11,0.01,0.07,
1.53,0.11,0.21,-0.40,0.11,0.01,0.07,
1.532,0.11,0.21,-0.40,0.11,0.01,0.08,
1.534,0.07,0.17,-0.46,0.11,0.01,0.08,
1.535,0.07,0.17,-0.46,0.10,0.02,0.08,
1.565,0.07,0.17,-0.46,0.08,0.03,0.09,
1.566,0.07,0.17,-0.46,0.08,0.03,0.09,
1.567,0.07,0.17,-0.46,0.08,0.04,0.09,
1.568,0.07,0.17,-0.46,0.06,0.05,0.10,
1.568,0.13,0.12,-0.36,0.06,0.05,0.10,
1.569,0.13,0.12,-0.36,0.06,0.05,0.10,
1.57,0.13,0.12,-0.36,0.05,0.06,0.10,
1.57,0.13,0.12,-0.36,0.05,0.07,0.10,
1.571,0.13,0.12,-0.36,0.04,0.07,0.10,
1.572,0.13,0.12,-0.36,0.04,0.08,0.10,
1.573,0.21,0.07,-0.30,0.04,0.08,0.10,
1.573,0.21,0.07,-0.30,0.03,0.08,0.10,
1.574,0.21,0.07,-0.30,0.03,0.09,0.10,
1.577,0.21,0.07,-0.30,0.03,0.09,0.10,
1.578,0.21,0.07,-0.30,0.02,0.09,0.10,
1.578,0.21,0.07,-0.30,0.02,0.10,0.09,
1.579,0.32,0.10,-0.19,0.02,0.10,0.09,
1.579,0.32,0.10,-0.19,0.02,0.10,0.09,
1.579,0.32,0.10,-0.19,0.02,0.11,0.08,
1.58,0.32,0.10,-0.19,0.02,0.11,0.07,
1.58,0.32,0.10,-0.19,0.02,0.11,0.07,
1.581,0.32,0.10,-0.19,0.02,0.11,0.06,
1.581,0.46,0.13,-0.18,0.02,0.11,0.06,
1.582,0.46,0.13,-0.18,0.02,0.11,0.05,
1.582,0.46,0.13,-0.18,0.02,0.10,0.05,
1.582,0.46,0.13,-0.18,0.03,0.10,0.04,
1.583,0.46,0.13,-0.18,0.03,0.09,0.03,
1.583,0.46,0.13,-0.18,0.03,0.09,0.02,
1.584,0.48,0.12,-0.18,0.03,0.09,0.02,
1.584,0.48,0.12,-0.18,0.03,0.09,0.02,
1.589,0.48,0.12,-0.18,0.03,0.08,0.01,
1.591,0.48,0.12,-0.18,0.04,0.07,0.01,
1.591,0.48,0.12,-0.18,0.04,0.07,0.00,
1.592,0.48,0.12,-0.18,0.04,0.06,-0.01,
1.595,0.44,0.13,-0.24,0.04,0.06,-0.01,
1.596,0.44,0.13,-0.24,0.04,0.05,-0.01,
1.6,0.44,0.13,-0.24,0.04,0.04,-0.02,
1.602,0.44,0.13,-0.24,0.05,0.03,-0.02,
1.602,0.44,0.13,-0.24,0.05,0.02,-0.03,
1.602,0.44,0.13,-0.24,0.05,0.01,-0.03,
1.609,0.33,0.10,-0.23,0.05,0.01,-0.03,
1.61,0.33,0.10,-0.23,0.06,0.00,-0.03,
1.61,0.33,0.10,-0.23,0.06,-0.01,-0.03,
1.61,0.33,0.10,-0.23,0.07,-0.01,-0.04,
1.611,0.33,0.10,-0.23,0.07,-0.02,-0.04,
1.62,0.33,0.10,-0.23,0.07,-0.03,-0.04,
1.621,0.23,0.04,-0.24,0.07,-0.03,-0.04,
1.621,0.23,0.04,-0.24,0.08,-0.04,-0.04,
1.621,0.23,0.04,-0.24,0.08,-0.04,-0.04,
1.622,0.23,0.04,-0.24,0.08,-0.05,-0.04,
1.622,0.23,0.04,-0.24,0.08,-0.05,-0.04,
1.622,0.23,0.04,-0.24,0.09,-0.05,-0.04,
1.638,0.19,-0.05,-0.22,0.09,-0.05,-0.04,
1.639,0.19,-0.05,-0.22,0.09,-0.06,-0.04,
1.64,0.19,-0.05,-0.22,0.09,-0.06,-0.04,
1.64,0.19,-0.05,-0.22,0.09,-0.06,-0.04,
1.641,0.19,-0.05,-0.22,0.09,-0.06,-0.04,
1.641,0.19,-0.05,-0.22,0.09,-0.06,-0.03,
1.641,0.17,-0.14,-0.16,0.09,-0.06,-0.03,
1.642,0.17,-0.14,-0.16,0.09,-0.06,-0.03,
1.643,0.17,-0.14,-0.16,0.09,-0.06,-0.03,
1.643,0.17,-0.14,-0.16,0.09,-0.05,-0.03,
1.644,0.17,-0.14,-0.16,0.09,-0.05,-0.03,
1.644,0.17,-0.14,-0.16,0.09,-0.05,-0.02,
1.648,0.12,-0.17,-0.13,0.09,-0.05,-0.02,
1.648,0.12,-0.17,-0.13,0.09,-0.05,-0.02,
1.649,0.12,-0.17,-0.13,0.09,-0.04,-0.02,
1.65,0.12,-0.17,-0.13,0.09,-0.04,-0.02,
1.651,0.12,-0.17,-0.13,0.09,-0.03,-0.02,
1.653,0.12,-0.17,-0.13,0.09,-0.03,-0.02,
1.655,0.09,-0.19,-0.07,0.09,-0.03,-0.02,
1.655,0.09,-0.19,-0.07,0.08,-0.03,-0.02,
1.657,0.09,-0.19,-0.07,0.08,-0.02,-0.02,
1.658,0.09,-0.19,-0.07,0.08,-0.01,-0.02,
1.665,0.09,-0.19,-0.07,0.07,-0.01,-0.02,
1.666,0.09,-0.19,-0.07,0.07,0.00,-0.02,
1.666,0.12,-0.20,-0.09,0.07,0.00,-0.02,
1.666,0.12,-0.20,-0.09,0.07,0.01,-0.02,
1.667,0.12,-0.20,-0.09,0.06,0.02,-0.02,
1.668,0.12,-0.20,-0.09,0.05,0.03,-0.02,
1.67,0.12,-0.20,-0.09,0.05,0.04,-0.02,
1.672,0.12,-0.20,-0.09,0.04,0.05,-0.02,
1.674,0.11,-0.25,-0.15,0.04,0.05,-0.02,
1.674,0.11,-0.25,-0.15,0.04,0.06,-0.03,
1.678,0.11,-0.25,-0.15,0.04,0.06,-0.03,
1.679,0.11,-0.25,-0.15,0.03,0.07,-0.03,
1.68,0.11,-0.25,-0.15,0.03,0.07,-0.03,
1.682,0.11,-0.25,-0.15,0.02,0.07,-0.03,
1.684,0.01,-0.21,-0.08,0.02,0.07,-0.03,
1.685,0.01,-0.21,-0.08,0.02,0.08,-0.03,
1.687,0.01,-0.21,-0.08,0.02,0.08,-0.03,
1.688,0.01,-0.21,-0.08,0.02,0.08,-0.03,
1.69,0.01,-0.21,-0.08,0.02,0.08,-0.03,
1.692,0.01,-0.21,-0.08,0.02,0.08,-0.03,
1.694,-0.02,-0.18,-0.05,0.02,0.08,-0.03,
1.695,-0.02,-0.18,-0.05,0.02,0.07,-0.03,
1.697,-0.02,-0.18,-0.05,0.02,0.07,-0.03,
1.698,-0.02,-0.18,-0.05,0.02,0.07,-0.03,
1.7,-0.02,-0.18,-0.05,0.02,0.07,-0.03,
1.702,-0.02,-0.18,-0.05,0.03,0.06,-0.02,
1.732,-0.06,-0.16,-0.02,0.03,0.06,-0.02,
1.732,-0.06,-0.16,-0.02,0.03,0.06,-0.02,
1.733,-0.06,-0.16,-0.02,0.03,0.06,-0.02,
1.733,-0.06,-0.16,-0.02,0.04,0.05,-0.02,
1.734,-0.06,-0.16,-0.02,0.04,0.04,-0.02,
1.734,-0.06,-0.16,-0.02,0.05,0.03,-0.01,
1.735,-0.06,-0.16,-0.02,0.05,0.03,-0.01,
1.736,0.01,-0.07,-0.01,0.05,0.03,-0.01,
1.736,0.01,-0.07,-0.01,0.06,0.02,-0.01,
1.736,0.01,-0.07,-0.01,0.06,0.02,-0.01,
1.737,0.01,-0.07,-0.01,0.06,0.01,-0.02,
1.737,0.01,-0.07,-0.01,0.06,0.00,-0.02,
1.738,0.11,-0.02,-0.02,0.06,0.00,-0.02,
1.738,0.11,-0.02,-0.02,0.07,-0.00,-0.02,
1.739,0.11,-0.02,-0.02,0.07,-0.01,-0.02,
1.739,0.11,-0.02,-0.02,0.07,-0.01,-0.02,
1.739,0.11,-0.02,-0.02,0.07,-0.01,-0.03,
1.74,0.11,-0.02,-0.02,0.07,-0.02,-0.03,
1.74,0.25,-0.01,-0.08,0.07,-0.02,-0.03,
1.741,0.25,-0.01,-0.08,0.07,-0.02,-0.03,
1.741,0.25,-0.01,-0.08,0.07,-0.02,-0.04,
1.742,0.25,-0.01,-0.08,0.07,-0.02,-0.04,
1.742,0.25,-0.01,-0.08,0.07,-0.02,-0.04,
1.742,0.25,-0.01,-0.08,0.07,-0.02,-0.05,
1.745,0.35,-0.02,-0.07,0.07,-0.02,-0.05,
1.746,0.35,-0.02,-0.07,0.07,-0.02,-0.05,
1.747,0.35,-0.02,-0.07,0.07,-0.02,-0.06,
1.748,0.35,-0.02,-0.07,0.07,-0.02,-0.06,
1.75,0.35,-0.02,-0.07,0.07,-0.02,-0.07,
1.752,0.35,-0.02,-0.07,0.08,-0.01,-0.07,
1.754,0.29,-0.05,0.03,0.08,-0.01,-0.07,
1.754,0.29,-0.05,0.03,0.08,-0.01,-0.07,
1.756,0.29,-0.05,0.03,0.08,-0.01,-0.07,
1.757,0.29,-0.05,0.03,0.08,-0.01,-0.07,
1.76,0.29,-0.05,0.03,0.09,-0.01,-0.07,
1.764,0.29,-0.05,0.03,0.09,-0.00,-0.07,
1.765,0.19,-0.12,0.10,0.09,-0.00,-0.07,
1.765,0.19,-0.12,0.10,0.09,-0.00,-0.07,
1.767,0.19,-0.12,0.10,0.09,0.00,-0.07,
1.768,0.19,-0.12,0.10,0.09,0.00,-0.07,
1.773,0.19,-0.12,0.10,0.09,0.01,-0.07,
1.774,0.19,-0.12,0.10,0.09,0.01,-0.06,
1.774,0.10,-0.12,0.02,0.09,0.01,-0.06,
1.775,0.10,-0.12,0.02,0.09,0.02,-0.06,
1.782,0.10,-0.12,0.02,0.09,0.03,-0.06,
1.783,0.10,-0.12,0.02,0.08,0.03,-0.06,
1.783,0.10,-0.12,0.02,0.08,0.04,-0.06,
1.783,0.10,-0.12,0.02,0.08,0.04,-0.05,
1.784,-0.01,-0.13,-0.13,0.08,0.04,-0.05,
1.784,-0.01,-0.13,-0.13,0.07,0.05,-0.05,
1.79,-0.01,-0.13,-0.13,0.07,0.06,-0.05,
1.791,-0.01,-0.13,-0.13,0.06,0.06,-0.04,
1.791,-0.01,-0.13,-0.13,0.06,0.07,-0.04,
1.792,-0.01,-0.13,-0.13,0.05,0.07,-0.04,
1.801,-0.02,-0.16,-0.24,0.05,0.07,-0.04,
1.803,-0.02,-0.16,-0.24,0.05,0.08,-0.04,
1.804,-0.02,-0.16,-0.24,0.04,0.08,-0.03,
1.805,-0.02,-0.16,-0.24,0.04,0.08,-0.03,
1.805,-0.02,-0.16,-0.24,0.04,0.08,-0.03,
1.806,-0.02,-0.16,-0.24,0.04,0.08,-0.03,
1.806,-0.01,-0.15,-0.25,0.04,0.08,-0.03,
1.807,-0.01,-0.15,-0.25,0.04,0.08,-0.03,
1.808,-0.01,-0.15,-0.25,0.03,0.09,-0.03,
1.808,-0.01,-0.15,-0.25,0.03,0.09,-0.03,
1.818,-0.01,-0.15,-0.25,0.03,0.08,-0.02,
1.821,-0.01,-0.15,-0.25,0.03,0.08,-0.03,
1.822,0.01,-0.12,-0.30,0.03,0.08,-0.03,
1.823,0.01,-0.12,-0.30,0.03,0.08,-0.03,
1.823,0.01,-0.12,-0.30,0.03,0.08,-0.03,
1.824,0.01,-0.12,-0.30,0.03,0.08,-0.03,
1.824,0.01,-0.12,-0.30,0.03,0.07,-0.03,
1.825,0.01,-0.12,-0.30,0.03,0.06,-0.03,
1.826,-0.01,-0.06,-0.20,0.03,0.06,-0.03,
1.827,-0.01,-0.06,-0.20,0.04,0.06,-0.03,
1.834,-0.01,-0.06,-0.20,0.04,0.06,-0.03,
1.836,-0.01,-0.06,-0.20,0.04,0.05,-0.02,
1.837,-0.01,-0.06,-0.20,0.05,0.05,-0.02,
1.838,-0.01,-0.06,-0.20,0.05,0.05,-0.02,
1.838,-0.05,-0.03,-0.06,0.05,0.05,-0.02,
1.845,-0.05,-0.03,-0.06,0.06,0.05,-0.02,
1.846,-0.05,-0.03,-0.06,0.06,0.05,-0.02,
1.846,-0.05,-0.03,-0.06,0.07,0.05,-0.02,
1.846,-0.05,-0.03,-0.06,0.07,0.05,-0.02,
1.847,-0.05,-0.03,-0.06,0.07,0.06,-0.02,
1.847,0.08,-0.04,0.01,0.07,0.06,-0.02,
1.847,0.08,-0.04,0.01,0.08,0.06,-0.02,
1.848,0.08,-0.04,0.01,0.09,0.06,-0.02,
1.848,0.08,-0.04,0.01,0.09,0.06,-0.02,
1.852,0.08,-0.04,0.01,0.09,0.05,-0.02,
1.853,0.08,-0.04,0.01,0.10,0.04,-0.03,
1.854,0.22,-0.01,0.02,0.10,0.04,-0.03,
1.855,0.22,-0.01,0.02,0.11,0.03,-0.03,
1.857,0.22,-0.01,0.02,0.12,0.02,-0.04,
1.858,0.22,-0.01,0.02,0.13,0.02,-0.04,
1.86,0.22,-0.01,0.02,0.13,0.01,-0.04,
1.865,0.22,-0.01,0.02,0.14,-0.00,-0.04,
1.865,0.20,-0.01,0.03,0.14,-0.00,-0.04,
1.866,0.20,-0.01,0.03,0.15,-0.01,-0.04,
1.867,0.20,-0.01,0.03,0.16,-0.02,-0.05,
1.868,0.20,-0.01,0.03,0.16,-0.03,-0.05,
1.901,0.20,-0.01,0.03,0.17,-0.04,-0.05,
1.901,0.20,-0.01,0.03,0.18,-0.05,-0.05,
1.901,0.13,-0.06,0.06,0.18,-0.05,-0.05,
1.902,0.13,-0.06,0.06,0.19,-0.05,-0.05,
1.902,0.13,-0.06,0.06,0.20,-0.07,-0.05,
1.903,0.13,-0.06,0.06,0.20,-0.08,-0.05,
1.903,0.13,-0.06,0.06,0.21,-0.09,-0.05,
1.904,0.13,-0.06,0.06,0.21,-0.10,-0.05,
1.904,0.08,-0.10,-0.10,0.21,-0.10,-0.05,
1.905,0.08,-0.10,-0.10,0.21,-0.11,-0.05,
1.905,0.08,-0.10,-0.10,0.22,-0.12,-0.04,
1.906,0.08,-0.10,-0.10,0.21,-0.13,-0.04,
1.906,0.08,-0.10,-0.10,0.21,-0.13,-0.04,
1.907,0.08,-0.10,-0.10,0.21,-0.14,-0.04,
1.908,-0.00,-0.10,-0.33,0.21,-0.14,-0.04,
1.908,-0.00,-0.10,-0.33,0.21,-0.15,-0.04,
1.909,-0.00,-0.10,-0.33,0.20,-0.15,-0.04,
1.909,-0.00,-0.10,-0.33,0.20,-0.16,-0.04,
1.91,-0.00,-0.10,-0.33,0.19,-0.16,-0.03,
1.91,-0.00,-0.10,-0.33,0.18,-0.17,-0.04,
1.91,0.04,-0.10,-0.59,0.18,-0.17,-0.04,
1.911,0.04,-0.10,-0.59,0.17,-0.17,-0.04,
1.912,0.04,-0.10,-0.59,0.15,-0.17,-0.04,
1.912,0.04,-0.10,-0.59,0.15,-0.17,-0.04,
1.912,0.04,-0.10,-0.59,0.13,-0.17,-0.04,
1.913,0.04,-0.10,-0.59,0.12,-0.17,-0.04,
1.913,0.07,-0.06,-0.83,0.12,-0.17,-0.04,
1.914,0.07,-0.06,-0.83,0.10,-0.17,-0.04,
1.917,0.07,-0.06,-0.83,0.08,-0.17,-0.04,
1.918,0.07,-0.06,-0.83,0.07,-0.17,-0.04,
1.92,0.07,-0.06,-0.83,0.06,-0.17,-0.05,
1.923,0.07,-0.06,-0.83,0.04,-0.16,-0.05,
1.924,0.13,-0.01,-0.89,0.04,-0.16,-0.05,
1.925,0.13,-0.01,-0.89,0.03,-0.17,-0.06,
1.932,0.13,-0.01,-0.89,0.01,-0.17,-0.06,
1.933,0.13,-0.01,-0.89,0.00,-0.17,-0.07,
1.934,0.13,-0.01,-0.89,-0.01,-0.17,-0.07,
1.934,0.13,-0.01,-0.89,-0.02,-0.18,-0.08,
1.934,0.15,0.11,-0.76,-0.02,-0.18,-0.08,
1.935,0.15,0.11,-0.76,-0.03,-0.18,-0.09,
1.938,0.15,0.11,-0.76,-0.04,-0.20,-0.10,
1.939,0.15,0.11,-0.76,-0.05,-0.20,-0.10,
1.953,0.15,0.11,-0.76,-0.05,-0.21,-0.11,
1.954,0.15,0.11,-0.76,-0.05,-0.22,-0.12,
1.954,0.19,0.21,-0.51,-0.05,-0.22,-0.12,
1.955,0.19,0.21,-0.51,-0.06,-0.23,-0.13,
1.955,0.19,0.21,-0.51,-0.05,-0.25,-0.14,
1.955,0.19,0.21,-0.51,-0.05,-0.26,-0.15,
1.955,0.19,0.21,-0.51,-0.05,-0.27,-0.16,
1.955,0.19,0.21,-0.51,-0.04,-0.28,-0.17,
1.956,0.27,0.20,-0.16,-0.04,-0.28,-0.17,
1.956,0.27,0.20,-0.16,-0.04,-0.29,-0.18,
1.957,0.27,0.20,-0.16,-0.03,-0.31,-0.19,
1.958,0.27,0.20,-0.16,-0.02,-0.31,-0.19,
1.966,0.27,0.20,-0.16,-0.01,-0.32,-0.20,
1.966,0.27,0.20,-0.16,0.00,-0.33,-0.22,
1.967,0.36,0.08,0.26,0.00,-0.33,-0.22,
1.967,0.36,0.08,0.26,0.02,-0.33,-0.22,
1.968,0.36,0.08,0.26,0.04,-0.34,-0.24,
1.968,0.36,0.08,0.26,0.05,-0.34,-0.24,
1.97,0.36,0.08,0.26,0.06,-0.34,-0.25,
1.972,0.36,0.08,0.26,0.08,-0.34,-0.25,
1.974,0.38,-0.06,0.53,0.08,-0.34,-0.25,
1.974,0.38,-0.06,0.53,0.10,-0.34,-0.26,
1.978,0.38,-0.06,0.53,0.12,-0.34,-0.26,
1.979,0.38,-0.06,0.53,0.13,-0.34,-0.26,
1.982,0.38,-0.06,0.53,0.15,-0.35,-0.26,
1.983,0.38,-0.06,0.53,0.16,-0.35,-0.25,
1.984,0.10,-0.40,0.51,0.16,-0.35,-0.25,
1.985,0.10,-0.40,0.51,0.17,-0.35,-0.25,
1.987,0.10,-0.40,0.51,0.18,-0.34,-0.24,
1.988,0.10,-0.40,0.51,0.19,-0.34,-0.24,
1.99,0.10,-0.40,0.51,0.20,-0.33,-0.23,
1.994,0.10,-0.40,0.51,0.20,-0.32,-0.22,
1.995,-0.25,-0.48,0.27,0.20,-0.32,-0.22,
1.996,-0.25,-0.48,0.27,0.21,-0.32,-0.21,
1.997,-0.25,-0.48,0.27,0.22,-0.32,-0.19,
1.998,-0.25,-0.48,0.27,0.22,-0.32,-0.19,
2.0,-0.25,-0.48,0.27,0.22,-0.32,-0.18,
2.002,-0.25,-0.48,0.27,0.22,-0.32,-0.17,
2.005,-0.40,-0.17,-0.02,0.22,-0.32,-0.17,
2.005,-0.40,-0.17,-0.02,0.22,-0.31,-0.16,
2.009,-0.40,-0.17,-0.02,0.21,-0.31,-0.15,
2.009,-0.40,-0.17,-0.02,0.21,-0.31,-0.15,
2.01,-0.40,-0.17,-0.02,0.21,-0.31,-0.15,
2.017,-0.40,-0.17,-0.02,0.20,-0.31,-0.15,
2.017,-0.18,0.14,-0.33,0.20,-0.31,-0.15,
2.017,-0.18,0.14,-0.33,0.19,-0.31,-0.15,
2.018,-0.18,0.14,-0.33,0.18,-0.32,-0.16,
2.018,-0.18,0.14,-0.33,0.18,-0.32,-0.17,
2.02,-0.18,0.14,-0.33,0.17,-0.33,-0.18,
2.022,-0.18,0.14,-0.33,0.15,-0.35,-0.19,
2.024,0.17,0.23,-0.65,0.15,-0.35,-0.19,
2.025,0.17,0.23,-0.65,0.14,-0.36,-0.20,
2.036,0.17,0.23,-0.65,0.12,-0.39,-0.23,
2.037,0.17,0.23,-0.65,0.11,-0.40,-0.24,
2.037,0.17,0.23,-0.65,0.10,-0.42,-0.25,
2.038,0.17,0.23,-0.65,0.09,-0.44,-0.27,
2.038,0.22,0.22,-0.76,0.09,-0.44,-0.27,
2.038,0.22,0.22,-0.76,0.07,-0.45,-0.28,
2.068,0.22,0.22,-0.76,0.06,-0.48,-0.31,
2.069,0.22,0.22,-0.76,0.05,-0.49,-0.31,
2.069,0.22,0.22,-0.76,0.04,-0.51,-0.32,
2.07,0.22,0.22,-0.76,0.04,-0.53,-0.33,
2.07,0.01,0.12,-0.50,0.04,-0.53,-0.33,
2.071,0.01,0.12,-0.50,0.03,-0.54,-0.33,
2.071,0.01,0.12,-0.50,0.02,-0.56,-0.34,
2.071,0.01,0.12,-0.50,0.02,-0.57,-0.34,
2.072,0.01,0.12,-0.50,0.02,-0.58,-0.34,
2.072,0.01,0.12,-0.50,0.02,-0.59,-0.34,
2.073,-0.13,-0.05,-0.10,0.02,-0.59,-0.34,
2.073,-0.13,-0.05,-0.10,0.02,-0.60,-0.34,
2.074,-0.13,-0.05,-0.10,0.03,-0.60,-0.34,
2.074,-0.13,-0.05,-0.10,0.03,-0.60,-0.34,
2.075,-0.13,-0.05,-0.10,0.04,-0.59,-0.34,
2.075,-0.13,-0.05,-0.10,0.04,-0.59,-0.34,
2.075,-0.07,-0.16,0.18,0.04,-0.59,-0.34,
2.076,-0.07,-0.16,0.18,0.05,-0.58,-0.34,
2.076,-0.07,-0.16,0.18,0.06,-0.57,-0.33,
2.077,-0.07,-0.16,0.18,0.06,-0.57,-0.33,
2.077,-0.07,-0.16,0.18,0.07,-0.57,-0.33,
2.077,-0.07,-0.16,0.18,0.08,-0.57,-0.33,
2.078,-0.06,-0.30,0.34,0.08,-0.57,-0.33,
2.078,-0.06,-0.30,0.34,0.09,-0.57,-0.33,
2.079,-0.06,-0.30,0.34,0.10,-0.57,-0.33,
2.079,-0.06,-0.30,0.34,0.11,-0.58,-0.33,
2.08,-0.06,-0.30,0.34,0.11,-0.58,-0.32,
2.082,-0.06,-0.30,0.34,0.12,-0.58,-0.32,
2.084,-0.09,-0.34,0.28,0.12,-0.58,-0.32,
2.084,-0.09,-0.34,0.28,0.13,-0.59,-0.32,
2.086,-0.09,-0.34,0.28,0.14,-0.61,-0.33,
2.088,-0.09,-0.34,0.28,0.15,-0.61,-0.33,
2.09,-0.09,-0.34,0.28,0.15,-0.63,-0.34,
2.095,-0.09,-0.34,0.28,0.16,-0.64,-0.34,
2.096,-0.06,-0.21,0.11,0.16,-0.64,-0.34,
2.097,-0.06,-0.21,0.11,0.16,-0.65,-0.35,
2.097,-0.06,-0.21,0.11,0.17,-0.66,-0.36,
2.098,-0.06,-0.21,0.11,0.17,-0.67,-0.36,
2.1,-0.06,-0.21,0.11,0.17,-0.68,-0.37,
2.101,-0.06,-0.21,0.11,0.17,-0.69,-0.38,
2.104,0.04,-0.13,-0.26,0.17,-0.69,-0.38,
2.104,0.04,-0.13,-0.26,0.16,-0.70,-0.39,
2.106,0.04,-0.13,-0.26,0.15,-0.72,-0.41,
2.109,0.04,-0.13,-0.26,0.15,-0.72,-0.42,
2.111,0.04,-0.13,-0.26,0.14,-0.73,-0.43,
2.112,0.04,-0.13,-0.26,0.13,-0.75,-0.45,
2.114,0.13,-0.07,-0.54,0.13,-0.75,-0.45,
2.115,0.13,-0.07,-0.54,0.12,-0.76,-0.47,
2.117,0.13,-0.07,-0.54,0.10,-0.78,-0.50,
2.118,0.13,-0.07,-0.54,0.10,-0.79,-0.51,
2.12,0.13,-0.07,-0.54,0.09,-0.80,-0.54,
2.122,0.13,-0.07,-0.54,0.08,-0.81,-0.56,
2.124,0.34,0.06,-0.60,0.08,-0.81,-0.56,
2.126,0.34,0.06,-0.60,0.06,-0.82,-0.58,
2.127,0.34,0.06,-0.60,0.04,-0.83,-0.62,
2.129,0.34,0.06,-0.60,0.04,-0.83,-0.64,
2.13,0.34,0.06,-0.60,0.02,-0.83,-0.66,
2.132,0.34,0.06,-0.60,0.01,-0.83,-0.69,
2.134,0.50,0.09,-0.46,0.01,-0.83,-0.69,
2.134,0.50,0.09,-0.46,-0.00,-0.82,-0.71,
2.137,0.50,0.09,-0.46,-0.02,-0.81,-0.75,
2.137,0.50,0.09,-0.46,-0.02,-0.80,-0.76,
2.14,0.50,0.09,-0.46,-0.03,-0.79,-0.78,
2.155,0.50,0.09,-0.46,-0.04,-0.78,-0.79,
2.156,0.44,-0.03,-0.18,-0.04,-0.78,-0.79,
2.157,0.44,-0.03,-0.18,-0.05,-0.76,-0.81,
2.157,0.44,-0.03,-0.18,-0.06,-0.73,-0.82,
2.158,0.44,-0.03,-0.18,-0.06,-0.72,-0.83,
2.159,0.44,-0.03,-0.18,-0.07,-0.69,-0.84,
2.16,0.44,-0.03,-0.18,-0.08,-0.66,-0.84,
2.16,0.18,-0.26,-0.07,-0.08,-0.66,-0.84,
2.161,0.18,-0.26,-0.07,-0.09,-0.62,-0.84,
2.162,0.18,-0.26,-0.07,-0.10,-0.57,-0.83,
2.163,0.18,-0.26,-0.07,-0.10,-0.55,-0.83,
2.164,0.18,-0.26,-0.07,-0.11,-0.51,-0.82,
2.181,0.18,-0.26,-0.07,-0.12,-0.46,-0.80,
2.183,-0.31,-0.60,-0.19,-0.12,-0.46,-0.80,
2.183,-0.31,-0.60,-0.19,-0.13,-0.42,-0.78,
2.184,-0.31,-0.60,-0.19,-0.14,-0.35,-0.75,
2.185,-0.31,-0.60,-0.19,-0.15,-0.33,-0.73,
2.185,-0.31,-0.60,-0.19,-0.16,-0.29,-0.70,
2.185,-0.31,-0.60,-0.19,-0.17,-0.25,-0.66,
2.185,-1.09,-0.80,-0.37,-0.17,-0.25,-0.66,
2.186,-1.09,-0.80,-0.37,-0.18,-0.21,-0.62,
2.186,-1.09,-0.80,-0.37,-0.20,-0.15,-0.55,
2.187,-1.09,-0.80,-0.37,-0.20,-0.13,-0.53,
2.187,-1.09,-0.80,-0.37,-0.21,-0.10,-0.49,
2.188,-1.09,-0.80,-0.37,-0.22,-0.07,-0.45,
2.189,-1.53,-0.63,-0.49,-0.22,-0.07,-0.45,
2.189,-1.53,-0.63,-0.49,-0.23,-0.05,-0.40,
2.189,-1.53,-0.63,-0.49,-0.25,-0.01,-0.35,
2.19,-1.53,-0.63,-0.49,-0.25,0.01,-0.33,
2.191,-1.53,-0.63,-0.49,-0.26,0.03,-0.29,
2.196,-1.53,-0.63,-0.49,-0.26,0.05,-0.26,
2.197,-1.56,-0.40,-0.52,-0.26,0.05,-0.26,
2.198,-1.56,-0.40,-0.52,-0.26,0.06,-0.23,
2.199,-1.56,-0.40,-0.52,-0.26,0.06,-0.19,
2.199,-1.56,-0.40,-0.52,-0.26,0.06,-0.18,
2.2,-1.56,-0.40,-0.52,-0.26,0.06,-0.16,
2.202,-1.56,-0.40,-0.52,-0.25,0.05,-0.14,
2.237,-1.26,-0.34,-0.48,-0.25,0.05,-0.14,
2.238,-1.26,-0.34,-0.48,-0.25,0.04,-0.13,
2.238,-1.26,-0.34,-0.48,-0.24,0.01,-0.11,
2.239,-1.26,-0.34,-0.48,-0.24,-0.00,-0.11,
2.239,-1.26,-0.34,-0.48,-0.23,-0.03,-0.11,
2.24,-1.26,-0.34,-0.48,-0.22,-0.06,-0.10,
2.24,-0.91,-0.22,-0.55,-0.22,-0.06,-0.10,
2.24,-0.91,-0.22,-0.55,-0.22,-0.08,-0.11,
2.241,-0.91,-0.22,-0.55,-0.22,-0.12,-0.11,
2.241,-0.91,-0.22,-0.55,-0.23,-0.14,-0.11,
2.242,-0.91,-0.22,-0.55,-0.23,-0.17,-0.11,
2.242,-0.91,-0.22,-0.55,-0.24,-0.20,-0.11,
2.243,-0.88,-0.20,-0.92,-0.24,-0.20,-0.11,
2.243,-0.88,-0.20,-0.92,-0.25,-0.24,-0.11,
2.243,-0.88,-0.20,-0.92,-0.26,-0.32,-0.11,
2.244,-0.88,-0.20,-0.92,-0.27,-0.34,-0.11,
2.244,-0.88,-0.20,-0.92,-0.28,-0.39,-0.12,
2.245,-0.88,-0.20,-0.92,-0.28,-0.44,-0.12,
2.245,-0.69,-0.16,-0.76,-0.28,-0.44,-0.12,
2.246,-0.69,-0.16,-0.76,-0.29,-0.48,-0.13,
2.246,-0.69,-0.16,-0.76,-0.29,-0.53,-0.14,
2.247,-0.69,-0.16,-0.76,-0.29,-0.55,-0.14,
2.247,-0.69,-0.16,-0.76,-0.29,-0.57,-0.16,
2.247,-0.69,-0.16,-0.76,-0.29,-0.59,-0.18,
2.248,-0.25,-0.13,-0.36,-0.29,-0.59,-0.18,
2.248,-0.25,-0.13,-0.36,-0.29,-0.60,-0.19,
2.249,-0.25,-0.13,-0.36,-0.28,-0.60,-0.21,
2.249,-0.25,-0.13,-0.36,-0.28,-0.60,-0.22,
2.25,-0.25,-0.13,-0.36,-0.27,-0.59,-0.23,
2.252,-0.25,-0.13,-0.36,-0.27,-0.58,-0.25,
2.253,-0.00,-0.21,0.02,-0.27,-0.58,-0.25,
2.254,-0.00,-0.21,0.02,-0.26,-0.57,-0.26,
2.257,-0.00,-0.21,0.02,-0.24,-0.53,-0.27,
2.267,-0.00,-0.21,0.02,-0.23,-0.52,-0.27,
2.267,-0.00,-0.21,0.02,-0.22,-0.48,-0.27,
2.268,-0.00,-0.21,0.02,-0.21,-0.45,-0.26,
2.268,-0.30,-0.29,0.25,-0.21,-0.45,-0.26,
2.268,-0.30,-0.29,0.25,-0.20,-0.41,-0.25,
2.268,-0.30,-0.29,0.25,-0.19,-0.35,-0.22,
2.269,-0.30,-0.29,0.25,-0.18,-0.33,-0.21,
2.27,-0.30,-0.29,0.25,-0.18,-0.30,-0.18,
2.272,-0.30,-0.29,0.25,-0.17,-0.27,-0.16,
2.281,-0.78,-0.43,0.08,-0.17,-0.27,-0.16,
2.282,-0.78,-0.43,0.08,-0.17,-0.23,-0.13,
2.283,-0.78,-0.43,0.08,-0.17,-0.19,-0.08,
2.283,-0.78,-0.43,0.08,-0.17,-0.18,-0.07,
2.284,-0.78,-0.43,0.08,-0.17,-0.15,-0.03,
2.284,-0.78,-0.43,0.08,-0.17,-0.12,-0.00,
2.285,-0.92,-0.58,-0.03,-0.17,-0.12,-0.00,
2.285,-0.92,-0.58,-0.03,-0.17,-0.10,0.03,
2.288,-0.92,-0.58,-0.03,-0.17,-0.08,0.08,
2.288,-0.92,-0.58,-0.03,-0.18,-0.08,0.09,
2.298,-0.92,-0.58,-0.03,-0.19,-0.09,0.12,
2.299,-0.92,-0.58,-0.03,-0.21,-0.08,0.15,
2.3,-0.89,-0.51,-0.31,-0.21,-0.08,0.15,
2.301,-0.89,-0.51,-0.31,-0.22,-0.07,0.16,
2.301,-0.89,-0.51,-0.31,-0.23,-0.07,0.18,
2.301,-0.89,-0.51,-0.31,-0.24,-0.07,0.19,
2.302,-0.89,-0.51,-0.31,-0.25,-0.07,0.19,
2.302,-0.89,-0.51,-0.31,-0.25,-0.07,0.19,
2.305,-0.59,-0.30,-0.28,-0.25,-0.07,0.19,
2.306,-0.59,-0.30,-0.28,-0.25,-0.08,0.19,
2.307,-0.59,-0.30,-0.28,-0.26,-0.09,0.18,
2.308,-0.59,-0.30,-0.28,-0.26,-0.10,0.17,
2.312,-0.59,-0.30,-0.28,-0.26,-0.10,0.17,
2.313,-0.59,-0.30,-0.28,-0.26,-0.11,0.15,
2.314,-0.20,-0.06,-0.03,-0.26,-0.11,0.15,
2.315,-0.20,-0.06,-0.03,-0.25,-0.12,0.13,
2.317,-0.20,-0.06,-0.03,-0.24,-0.13,0.11,
2.317,-0.20,-0.06,-0.03,-0.24,-0.14,0.10,
2.32,-0.20,-0.06,-0.03,-0.24,-0.14,0.08,
2.321,-0.20,-0.06,-0.03,-0.23,-0.15,0.06,
2.324,0.18,0.05,0.12,-0.23,-0.15,0.06,
2.324,0.18,0.05,0.12,-0.23,-0.16,0.04,
2.327,0.18,0.05,0.12,-0.22,-0.17,0.01,
2.328,0.18,0.05,0.12,-0.21,-0.17,0.01,
2.33,0.18,0.05,0.12,-0.20,-0.17,-0.01,
2.332,0.18,0.05,0.12,-0.20,-0.17,-0.02,
2.334,0.24,0.03,0.19,-0.20,-0.17,-0.02,
2.334,0.24,0.03,0.19,-0.19,-0.17,-0.03,
2.336,0.24,0.03,0.19,-0.17,-0.17,-0.05,
2.338,0.24,0.03,0.19,-0.17,-0.17,-0.05,
2.34,0.24,0.03,0.19,-0.16,-0.17,-0.06,
2.342,0.24,0.03,0.19,-0.15,-0.18,-0.06,
2.344,0.06,-0.00,0.21,-0.15,-0.18,-0.06,
2.344,0.06,-0.00,0.21,-0.14,-0.17,-0.07,
2.347,0.06,-0.00,0.21,-0.13,-0.18,-0.07,
2.348,0.06,-0.00,0.21,-0.12,-0.18,-0.07,
2.35,0.06,-0.00,0.21,-0.11,-0.18,-0.08,
2.352,0.06,-0.00,0.21,-0.11,-0.19,-0.08,
2.354,-0.15,-0.04,0.09,-0.11,-0.19,-0.08,
2.354,-0.15,-0.04,0.09,-0.10,-0.19,-0.08,
2.357,-0.15,-0.04,0.09,-0.10,-0.20,-0.08,
2.358,-0.15,-0.04,0.09,-0.09,-0.21,-0.08,
2.36,-0.15,-0.04,0.09,-0.09,-0.22,-0.08,
2.362,-0.15,-0.04,0.09,-0.09,-0.22,-0.09,
2.364,-0.27,-0.05,-0.07,-0.09,-0.22,-0.09,
2.364,-0.27,-0.05,-0.07,-0.09,-0.23,-0.09,
2.367,-0.27,-0.05,-0.07,-0.08,-0.24,-0.09,
2.368,-0.27,-0.05,-0.07,-0.08,-0.24,-0.09,
2.403,-0.27,-0.05,-0.07,-0.08,-0.24,-0.09,
2.404,-0.27,-0.05,-0.07,-0.08,-0.25,-0.09,
2.404,-0.34,-0.06,-0.15,-0.08,-0.25,-0.09,
2.405,-0.34,-0.06,-0.15,-0.07,-0.25,-0.09,
2.406,-0.34,-0.06,-0.15,-0.07,-0.25,-0.07,
2.406,-0.34,-0.06,-0.15,-0.07,-0.25,-0.07,
2.407,-0.34,-0.06,-0.15,-0.07,-0.25,-0.06,
2.407,-0.34,-0.06,-0.15,-0.07,-0.25,-0.04,
2.408,-0.53,-0.21,-0.25,-0.07,-0.25,-0.04,
2.408,-0.53,-0.21,-0.25,-0.08,-0.26,-0.03,
2.409,-0.53,-0.21,-0.25,-0.09,-0.26,-0.01,
2.409,-0.53,-0.21,-0.25,-0.09,-0.26,0.00,
2.41,-0.53,-0.21,-0.25,-0.09,-0.27,0.01,
2.41,-0.53,-0.21,-0.25,-0.09,-0.27,0.02,
2.41,-0.56,-0.25,-0.25,-0.09,-0.27,0.02,
2.411,-0.56,-0.25,-0.25,-0.10,-0.27,0.03,
2.411,-0.56,-0.25,-0.25,-0.11,-0.27,0.04,
2.412,-0.56,-0.25,-0.25,-0.11,-0.27,0.05,
2.412,-0.56,-0.25,-0.25,-0.11,-0.27,0.05,
2.413,-0.56,-0.25,-0.25,-0.11,-0.26,0.06,
2.413,-0.40,-0.18,-0.09,-0.11,-0.26,0.06,
2.413,-0.40,-0.18,-0.09,-0.11,-0.26,0.06,
2.414,-0.40,-0.18,-0.09,-0.12,-0.24,0.07,
2.414,-0.40,-0.18,-0.09,-0.12,-0.24,0.07,
2.415,-0.40,-0.18,-0.09,-0.12,-0.24,0.07,
2.415,-0.40,-0.18,-0.09,-0.12,-0.23,0.07,
2.416,-0.33,-0.19,0.11,-0.12,-0.23,0.07,
2.416,-0.33,-0.19,0.11,-0.12,-0.22,0.07,
2.416,-0.33,-0.19,0.11,-0.12,-0.22,0.07,
2.423,-0.33,-0.19,0.11,-0.12,-0.21,0.07,
2.424,-0.33,-0.19,0.11,-0.12,-0.21,0.07,
2.424,-0.33,-0.19,0.11,-0.11,-0.21,0.07,
2.425,-0.32,-0.17,0.34,-0.11,-0.21,0.07,
2.425,-0.32,-0.17,0.34,-0.11,-0.20,0.07,
2.429,-0.32,-0.17,0.34,-0.10,-0.19,0.07,
2.43,-0.32,-0.17,0.34,-0.10,-0.19,0.07,
2.43,-0.32,-0.17,0.34,-0.09,-0.19,0.06,
2.434,-0.32,-0.17,0.34,-0.08,-0.18,0.06,
2.435,-0.19,-0.16,0.54,-0.08,-0.18,0.06,
2.435,-0.19,-0.16,0.54,-0.07,-0.18,0.05,
2.437,-0.19,-0.16,0.54,-0.05,-0.18,0.04,
2.438,-0.19,-0.16,0.54,-0.05,-0.19,0.04,
2.441,-0.19,-0.16,0.54,-0.04,-0.19,0.04,
2.442,-0.19,-0.16,0.54,-0.03,-0.20,0.03,
2.444,-0.09,-0.03,0.45,-0.03,-0.20,0.03,
2.445,-0.09,-0.03,0.45,-0.01,-0.20,0.02,
2.446,-0.09,-0.03,0.45,-0.00,-0.22,0.01,
2.447,-0.09,-0.03,0.45,0.00,-0.23,0.00,
2.451,-0.09,-0.03,0.45,0.01,-0.24,-0.01,
2.452,-0.09,-0.03,0.45,0.01,-0.25,-0.02,
2.454,0.05,0.07,0.17,0.01,-0.25,-0.02,
2.454,0.05,0.07,0.17,0.02,-0.26,-0.03,
2.469,0.05,0.07,0.17,0.03,-0.28,-0.04,
2.471,0.05,0.07,0.17,0.03,-0.29,-0.04,
2.472,0.05,0.07,0.17,0.04,-0.30,-0.05,
2.472,0.05,0.07,0.17,0.03,-0.31,-0.06,
2.473,0.12,0.16,-0.13,0.03,-0.31,-0.06,
2.474,0.12,0.16,-0.13,0.03,-0.32,-0.07,
2.475,0.12,0.16,-0.13,0.03,-0.34,-0.09,
2.476,0.12,0.16,-0.13,0.03,-0.35,-0.09,
2.476,0.12,0.16,-0.13,0.02,-0.36,-0.10,
2.476,0.12,0.16,-0.13,0.02,-0.37,-0.11,
2.476,0.15,0.24,-0.42,0.02,-0.37,-0.11,
2.477,0.15,0.24,-0.42,0.01,-0.38,-0.12,
2.477,0.15,0.24,-0.42,0.00,-0.39,-0.13,
2.478,0.15,0.24,-0.42,-0.00,-0.40,-0.13,
2.489,0.15,0.24,-0.42,-0.01,-0.40,-0.14,
2.49,0.15,0.24,-0.42,-0.02,-0.40,-0.15,
2.491,0.08,0.20,-0.54,-0.02,-0.40,-0.15,
2.491,0.08,0.20,-0.54,-0.03,-0.41,-0.15,
2.491,0.08,0.20,-0.54,-0.04,-0.42,-0.16,
2.492,0.08,0.20,-0.54,-0.05,-0.42,-0.16,
2.492,0.08,0.20,-0.54,-0.07,-0.42,-0.16,
2.492,0.08,0.20,-0.54,-0.08,-0.42,-0.17,
2.495,0.06,0.15,-0.59,-0.08,-0.42,-0.17,
2.496,0.06,0.15,-0.59,-0.09,-0.41,-0.17,
2.496,0.06,0.15,-0.59,-0.11,-0.41,-0.18,
2.498,0.06,0.15,-0.59,-0.12,-0.41,-0.18,
2.5,0.06,0.15,-0.59,-0.13,-0.41,-0.18,
2.502,0.06,0.15,-0.59,-0.14,-0.41,-0.18,
2.504,-0.12,0.03,-0.45,-0.14,-0.41,-0.18,
2.504,-0.12,0.03,-0.45,-0.16,-0.40,-0.18,
2.507,-0.12,0.03,-0.45,-0.17,-0.38,-0.17,
2.507,-0.12,0.03,-0.45,-0.18,-0.38,-0.17,
2.51,-0.12,0.03,-0.45,-0.19,-0.37,-0.17,
2.512,-0.12,0.03,-0.45,-0.20,-0.35,-0.16,
2.514,-0.45,-0.20,-0.33,-0.20,-0.35,-0.16,
2.514,-0.45,-0.20,-0.33,-0.21,-0.34,-0.15,
2.517,-0.45,-0.20,-0.33,-0.23,-0.33,-0.14,
2.517,-0.45,-0.20,-0.33,-0.23,-0.32,-0.13,
2.52,-0.45,-0.20,-0.33,-0.24,-0.31,-0.11,
2.522,-0.45,-0.20,-0.33,-0.24,-0.29,-0.09,
2.524,-0.64,-0.35,-0.13,-0.24,-0.29,-0.09,
2.525,-0.64,-0.35,-0.13,-0.24,-0.28,-0.07,
2.528,-0.64,-0.35,-0.13,-0.24,-0.25,-0.04,
2.528,-0.64,-0.35,-0.13,-0.24,-0.24,-0.02,
2.53,-0.64,-0.35,-0.13,-0.24,-0.22,0.00,
2.532,-0.64,-0.35,-0.13,-0.23,-0.19,0.03,
2.534,-0.84,-0.45,0.16,-0.23,-0.19,0.03,
2.535,-0.84,-0.45,0.16,-0.22,-0.17,0.05,
2.567,-0.84,-0.45,0.16,-0.21,-0.13,0.09,
2.567,-0.84,-0.45,0.16,-0.21,-0.11,0.11,
2.568,-0.84,-0.45,0.16,-0.20,-0.09,0.13,
2.568,-0.84,-0.45,0.16,-0.19,-0.06,0.16,
2.569,-0.78,-0.52,0.35,-0.19,-0.06,0.16,
2.569,-0.78,-0.52,0.35,-0.18,-0.04,0.18,
2.57,-0.78,-0.52,0.35,-0.17,-0.00,0.22,
2.57,-0.78,-0.52,0.35,-0.16,0.01,0.23,
2.57,-0.78,-0.52,0.35,-0.15,0.02,0.24,
2.571,-0.78,-0.52,0.35,-0.14,0.04,0.26,
2.571,-0.53,-0.42,0.36,-0.14,0.04,0.26,
2.572,-0.53,-0.42,0.36,-0.13,0.06,0.27,
2.572,-0.53,-0.42,0.36,-0.12,0.08,0.27,
2.573,-0.53,-0.42,0.36,-0.11,0.09,0.28,
2.573,-0.53,-0.42,0.36,-0.10,0.10,0.28,
2.573,-0.53,-0.42,0.36,-0.09,0.11,0.27,
2.574,-0.12,-0.14,0.30,-0.09,0.11,0.27,
2.574,-0.12,-0.14,0.30,-0.08,0.10,0.27,
2.575,-0.12,-0.14,0.30,-0.07,0.10,0.25,
2.575,-0.12,-0.14,0.30,-0.06,0.09,0.25,
2.576,-0.12,-0.14,0.30,-0.05,0.08,0.24,
2.576,-0.12,-0.14,0.30,-0.05,0.07,0.22,
2.576,0.27,0.14,0.19,-0.05,0.07,0.22,
2.576,0.27,0.14,0.19,-0.04,0.05,0.21,
2.577,0.27,0.14,0.19,-0.03,0.02,0.18,
2.58,0.27,0.14,0.19,-0.03,0.00,0.17,
2.58,0.27,0.14,0.19,-0.02,-0.03,0.14,
2.583,0.27,0.14,0.19,-0.02,-0.06,0.12,
2.584,0.49,0.27,0.12,-0.02,-0.06,0.12,
2.584,0.49,0.27,0.12,-0.01,-0.09,0.10,
2.587,0.49,0.27,0.12,0.00,-0.14,0.06,
2.588,0.49,0.27,0.12,0.00,-0.16,0.05,
2.59,0.49,0.27,0.12,0.01,-0.19,0.04,
2.595,0.49,0.27,0.12,0.02,-0.24,0.01,
2.595,0.42,0.29,0.15,0.02,-0.24,0.01,
2.595,0.42,0.29,0.15,0.03,-0.25,-0.00,
2.597,0.42,0.29,0.15,0.04,-0.29,-0.02,
2.598,0.42,0.29,0.15,0.05,-0.30,-0.03,
2.6,0.42,0.29,0.15,0.06,-0.31,-0.04,
2.602,0.42,0.29,0.15,0.06,-0.33,-0.05,
2.603,0.23,0.17,0.20,0.06,-0.33,-0.05,
2.604,0.23,0.17,0.20,0.07,-0.34,-0.06,
2.619,0.23,0.17,0.20,0.08,-0.35,-0.06,
2.62,0.23,0.17,0.20,0.09,-0.35,-0.06,
2.621,0.23,0.17,0.20,0.09,-0.36,-0.07,
2.621,0.23,0.17,0.20,0.09,-0.36,-0.07,
2.621,0.00,0.03,0.11,0.09,-0.36,-0.07,
2.622,0.00,0.03,0.11,0.10,-0.35,-0.07,
2.622,0.00,0.03,0.11,0.09,-0.35,-0.06,
2.622,0.00,0.03,0.11,0.09,-0.35,-0.06,
2.623,0.00,0.03,0.11,0.09,-0.34,-0.06,
2.623,0.00,0.03,0.11,0.09,-0.32,-0.06,
2.641,-0.10,-0.08,-0.16,0.09,-0.32,-0.06,
2.642,-0.10,-0.08,-0.16,0.08,-0.31,-0.06,
2.643,-0.10,-0.08,-0.16,0.07,-0.28,-0.05,
2.644,-0.10,-0.08,-0.16,0.06,-0.27,-0.05,
2.644,-0.10,-0.08,-0.16,0.05,-0.25,-0.04,
2.645,-0.10,-0.08,-0.16,0.03,-0.23,-0.04,
2.645,-0.12,-0.10,-0.51,0.03,-0.23,-0.04,
2.646,-0.12,-0.10,-0.51,0.01,-0.20,-0.03,
2.646,-0.12,-0.10,-0.51,-0.02,-0.16,-0.02,
2.647,-0.12,-0.10,-0.51,-0.03,-0.14,-0.01,
2.647,-0.12,-0.10,-0.51,-0.05,-0.11,0.00,
2.647,-0.12,-0.10,-0.51,-0.07,-0.08,0.01,
2.648,-0.25,-0.12,-0.84,-0.07,-0.08,0.01,
2.648,-0.25,-0.12,-0.84,-0.10,-0.06,0.03,
2.648,-0.25,-0.12,-0.84,-0.14,-0.03,0.05,
2.649,-0.25,-0.12,-0.84,-0.15,-0.02,0.06,
2.65,-0.25,-0.12,-0.84,-0.18,-0.01,0.07,
2.652,-0.25,-0.12,-0.84,-0.21,0.00,0.08,
2.654,-0.40,-0.16,-1.05,-0.21,0.00,0.08,
2.654,-0.40,-0.16,-1.05,-0.23,0.01,0.09,
2.657,-0.40,-0.16,-1.05,-0.27,0.01,0.11,
2.66,-0.40,-0.16,-1.05,-0.28,0.01,0.11,
2.661,-0.40,-0.16,-1.05,-0.31,0.02,0.12,
2.662,-0.40,-0.16,-1.05,-0.33,0.02,0.12,
2.664,-0.35,-0.19,-1.04,-0.33,0.02,0.12,
2.664,-0.35,-0.19,-1.04,-0.35,0.02,0.13,
2.667,-0.35,-0.19,-1.04,-0.37,0.02,0.13,
2.668,-0.35,-0.19,-1.04,-0.38,0.02,0.13,
2.67,-0.35,-0.19,-1.04,-0.39,0.02,0.14,
2.674,-0.35,-0.19,-1.04,-0.39,0.02,0.14,
2.674,-0.28,-0.19,-0.70,-0.39,0.02,0.14,
2.675,-0.28,-0.19,-0.70,-0.39,0.01,0.14,
2.677,-0.28,-0.19,-0.70,-0.40,-0.00,0.14,
2.678,-0.28,-0.19,-0.70,-0.39,-0.01,0.14,
2.68,-0.28,-0.19,-0.70,-0.39,-0.02,0.14,
2.682,-0.28,-0.19,-0.70,-0.38,-0.04,0.13,
2.683,-0.04,-0.15,-0.22,-0.38,-0.04,0.13,
2.684,-0.04,-0.15,-0.22,-0.36,-0.06,0.13,
2.686,-0.04,-0.15,-0.22,-0.34,-0.09,0.11,
2.689,-0.04,-0.15,-0.22,-0.33,-0.10,0.11,
2.69,-0.04,-0.15,-0.22,-0.31,-0.11,0.10,
2.693,-0.04,-0.15,-0.22,-0.29,-0.13,0.09,
2.694,0.23,-0.12,0.10,-0.29,-0.13,0.09,
2.695,0.23,-0.12,0.10,-0.27,-0.15,0.08,
2.697,0.23,-0.12,0.10,-0.23,-0.19,0.06,
2.698,0.23,-0.12,0.10,-0.22,-0.20,0.06,
2.7,0.23,-0.12,0.10,-0.19,-0.23,0.06,
2.702,0.23,-0.12,0.10,-0.17,-0.26,0.05,
2.734,0.26,-0.09,0.23,-0.17,-0.26,0.05,
2.735,0.26,-0.09,0.23,-0.14,-0.28,0.04,
2.735,0.26,-0.09,0.23,-0.10,-0.33,0.03,
2.735,0.26,-0.09,0.23,-0.10,-0.35,0.03,
2.736,0.26,-0.09,0.23,-0.07,-0.38,0.02,
2.736,0.26,-0.09,0.23,-0.03,-0.44,0.01,
2.737,0.26,-0.09,0.23,-0.03,-0.44,0.01,
2.737,0.37,-0.11,0.18,-0.03,-0.44,0.01,
2.738,0.37,-0.11,0.18,-0.00,-0.48,-0.01,
2.738,0.37,-0.11,0.18,0.01,-0.49,-0.01,
2.738,0.37,-0.11,0.18,0.02,-0.50,-0.02,
2.739,0.37,-0.11,0.18,0.04,-0.51,-0.03,
2.739,0.36,-0.20,0.07,0.04,-0.51,-0.03,
2.74,0.36,-0.20,0.07,0.06,-0.51,-0.04,
2.74,0.36,-0.20,0.07,0.07,-0.51,-0.04,
2.741,0.36,-0.20,0.07,0.08,-0.50,-0.04,
2.741,0.36,-0.20,0.07,0.09,-0.49,-0.04,
2.741,0.36,-0.20,0.07,0.09,-0.48,-0.03,
2.742,0.08,-0.35,-0.26,0.09,-0.48,-0.03,
2.742,0.08,-0.35,-0.26,0.10,-0.46,-0.02,
2.743,0.08,-0.35,-0.26,0.10,-0.43,-0.01,
2.743,0.08,-0.35,-0.26,0.10,-0.42,-0.00,
2.744,0.08,-0.35,-0.26,0.09,-0.40,0.01,
2.744,0.08,-0.35,-0.26,0.09,-0.37,0.03,
2.744,-0.22,-0.45,-0.68,0.09,-0.37,0.03,
2.745,-0.22,-0.45,-0.68,0.08,-0.35,0.05,
2.757,-0.22,-0.45,-0.68,0.06,-0.30,0.08,
2.758,-0.22,-0.45,-0.68,0.05,-0.29,0.09,
2.759,-0.22,-0.45,-0.68,0.04,-0.26,0.11,
2.759,-0.22,-0.45,-0.68,0.02,-0.22,0.13,
2.759,-0.43,-0.51,-1.06,0.02,-0.22,0.13,
2.759,-0.43,-0.51,-1.06,0.00,-0.19,0.15,
2.76,-0.43,-0.51,-1.06,-0.02,-0.15,0.18,
2.76,-0.43,-0.51,-1.06,-0.03,-0.14,0.19,
2.76,-0.43,-0.51,-1.06,-0.05,-0.11,0.21,
2.768,-0.43,-0.51,-1.06,-0.06,-0.09,0.22,
2.768,-0.43,-0.49,-1.24,-0.06,-0.09,0.22,
2.769,-0.43,-0.49,-1.24,-0.08,-0.08,0.23,
2.769,-0.43,-0.49,-1.24,-0.10,-0.06,0.25,
2.769,-0.43,-0.49,-1.24,-0.11,-0.06,0.25,
2.769,-0.43,-0.49,-1.24,-0.12,-0.07,0.25,
2.774,-0.43,-0.49,-1.24,-0.13,-0.08,0.25,
2.775,-0.25,-0.29,-1.27,-0.13,-0.08,0.25,
2.775,-0.25,-0.29,-1.27,-0.14,-0.10,0.24,
2.777,-0.25,-0.29,-1.27,-0.16,-0.13,0.23,
2.778,-0.25,-0.29,-1.27,-0.16,-0.14,0.22,
2.781,-0.25,-0.29,-1.27,-0.17,-0.17,0.21,
2.782,-0.25,-0.29,-1.27,-0.17,-0.19,0.19,
2.784,0.09,-0.18,-1.09,-0.17,-0.19,0.19,
2.785,0.09,-0.18,-1.09,-0.18,-0.22,0.17,
2.789,0.09,-0.18,-1.09,-0.18,-0.26,0.14,
2.789,0.09,-0.18,-1.09,-0.17,-0.28,0.13,
2.789,0.09,-0.18,-1.09,-0.17,-0.31,0.11,
2.792,0.09,-0.18,-1.09,-0.16,-0.34,0.08,
2.794,0.46,-0.05,-0.60,-0.16,-0.34,0.08,
2.795,0.46,-0.05,-0.60,-0.14,-0.37,0.06,
2.797,0.46,-0.05,-0.60,-0.11,-0.42,0.02,
2.798,0.46,-0.05,-0.60,-0.10,-0.44,0.01,
2.8,0.46,-0.05,-0.60,-0.08,-0.47,-0.02,
2.802,0.46,-0.05,-0.60,-0.06,-0.50,-0.04,
2.804,0.50,-0.03,-0.05,-0.06,-0.50,-0.04,
2.804,0.50,-0.03,-0.05,-0.03,-0.53,-0.06,
2.807,0.50,-0.03,-0.05,0.00,-0.57,-0.09,
2.809,0.50,-0.03,-0.05,0.01,-0.59,-0.10,
2.81,0.50,-0.03,-0.05,0.04,-0.62,-0.11,
2.812,0.50,-0.03,-0.05,0.06,-0.65,-0.12,
2.814,0.37,-0.14,0.31,0.06,-0.65,-0.12,
2.814,0.37,-0.14,0.31,0.08,-0.68,-0.14,
2.817,0.37,-0.14,0.31,0.11,-0.72,-0.14,
2.818,0.37,-0.14,0.31,0.12,-0.73,-0.15,
2.82,0.37,-0.14,0.31,0.13,-0.75,-0.15,
2.822,0.37,-0.14,0.31,0.14,-0.78,-0.15,
2.824,0.05,-0.28,0.32,0.14,-0.78,-0.15,
2.824,0.05,-0.28,0.32,0.15,-0.80,-0.15,
2.827,0.05,-0.28,0.32,0.16,-0.83,-0.14,
2.828,0.05,-0.28,0.32,0.16,-0.83,-0.13,
2.83,0.05,-0.28,0.32,0.16,-0.85,-0.12,
2.832,0.05,-0.28,0.32,0.16,-0.85,-0.11,
2.834,-0.24,-0.50,0.17,0.16,-0.85,-0.11,
2.834,-0.24,-0.50,0.17,0.15,-0.85,-0.09,
2.837,-0.24,-0.50,0.17,0.14,-0.83,-0.06,
2.842,-0.24,-0.50,0.17,0.13,-0.83,-0.05,
2.843,-0.24,-0.50,0.17,0.11,-0.81,-0.03,
2.844,-0.24,-0.50,0.17,0.09,-0.79,-0.01,
2.844,-0.41,-0.63,-0.15,0.09,-0.79,-0.01,
2.845,-0.41,-0.63,-0.15,0.07,-0.76,0.02,
2.847,-0.41,-0.63,-0.15,0.03,-0.71,0.05,
2.848,-0.41,-0.63,-0.15,0.01,-0.69,0.06,
2.85,-0.41,-0.63,-0.15,-0.02,-0.65,0.08,
2.852,-0.41,-0.63,-0.15,-0.06,-0.61,0.10,
2.866,-0.32,-0.67,-0.47,-0.06,-0.61,0.10,
2.869,-0.32,-0.67,-0.47,-0.09,-0.56,0.12,
2.869,-0.32,-0.67,-0.47,-0.16,-0.48,0.14,
2.87,-0.32,-0.67,-0.47,-0.18,-0.45,0.15,
2.871,-0.32,-0.67,-0.47,-0.22,-0.40,0.16,
2.873,-0.32,-0.67,-0.47,-0.26,-0.35,0.17,
2.874,-0.06,-0.54,-0.74,-0.26,-0.35,0.17,
2.875,-0.06,-0.54,-0.74,-0.30,-0.30,0.18,
2.876,-0.06,-0.54,-0.74,-0.36,-0.23,0.19,
2.877,-0.06,-0.54,-0.74,-0.37,-0.22,0.19,
2.916,-0.06,-0.54,-0.74,-0.40,-0.19,0.18,
2.917,-0.06,-0.54,-0.74,-0.43,-0.17,0.17,
2.918,0.30,-0.12,-0.83,-0.43,-0.17,0.17,
2.919,0.30,-0.12,-0.83,-0.45,-0.17,0.16,
2.919,0.30,-0.12,-0.83,-0.44,-0.25,0.18,
2.92,0.30,-0.12,-0.83,-0.42,-0.32,0.22,
2.921,0.30,-0.12,-0.83,-0.37,-0.42,0.31,
2.922,0.30,-0.12,-0.83,-0.32,-0.47,0.37,
2.923,-0.52,-0.29,0.18,-0.32,-0.47,0.37,
2.924,-0.52,-0.29,0.18,-0.27,-0.49,0.41,
2.925,-0.52,-0.29,0.18,-0.20,-0.53,0.42,
2.925,-0.52,-0.29,0.18,-0.18,-0.55,0.42,
2.925,-0.52,-0.29,0.18,-0.14,-0.57,0.40,
2.926,-0.52,-0.29,0.18,-0.10,-0.59,0.36,
2.926,0.33,0.33,0.97,-0.10,-0.59,0.36,
2.927,0.33,0.33,0.97,-0.07,-0.61,0.30,
2.927,0.33,0.33,0.97,-0.03,-0.63,0.20,
2.928,0.33,0.33,0.97,-0.01,-0.63,0.17,
2.928,0.33,0.33,0.97,0.01,-0.64,0.10,
2.928,0.33,0.33,0.97,0.04,-0.64,0.06,
2.929,0.64,0.18,1.07,0.04,-0.64,0.06,
2.929,0.64,0.18,1.07,0.06,-0.67,0.06,
2.93,0.64,0.18,1.07,0.10,-0.71,0.14,
2.93,0.64,0.18,1.07,0.12,-0.73,0.17,
2.931,0.64,0.18,1.07,0.14,-0.75,0.23,
2.931,0.64,0.18,1.07,0.17,-0.76,0.29,
2.931,-1.06,-1.22,0.80,0.17,-0.76,0.29,
2.932,-1.06,-1.22,0.80,0.21,-0.78,0.35,
2.932,-1.06,-1.22,0.80,0.26,-0.82,0.44,
2.933,-1.06,-1.22,0.80,0.27,-0.84,0.45,
2.933,-1.06,-1.22,0.80,0.31,-0.86,0.47,
2.934,-1.06,-1.22,0.80,0.35,-0.85,0.47,
2.934,0.02,0.50,0.97,0.35,-0.85,0.47,
2.937,0.02,0.50,0.97,0.39,-0.82,0.46,
2.938,0.02,0.50,0.97,0.44,-0.73,0.44,
2.938,0.02,0.50,0.97,0.46,-0.70,0.43,
2.938,0.02,0.50,0.97,0.48,-0.64,0.41,
2.939,0.02,0.50,0.97,0.50,-0.58,0.41,
2.939,-0.02,0.81,0.80,0.50,-0.58,0.41,
2.94,-0.02,0.81,0.80,0.51,-0.51,0.40,
2.94,-0.02,0.81,0.80,0.52,-0.38,0.38,
2.94,-0.02,0.81,0.80,0.51,-0.33,0.38,
2.941,-0.02,0.81,0.80,0.49,-0.23,0.37,
2.944,-0.02,0.81,0.80,0.44,-0.11,0.36,
2.947,-0.28,-0.02,-0.74,0.44,-0.11,0.36,
2.949,-0.28,-0.02,-0.74,0.42,-0.08,0.36,
2.951,-0.28,-0.02,-0.74,0.34,-0.02,0.35,
2.952,-0.28,-0.02,-0.74,0.32,0.00,0.36,
2.956,-0.28,-0.02,-0.74,0.25,0.04,0.36,
2.956,-0.28,-0.02,-0.74,0.18,0.08,0.37,
2.957,-0.35,0.15,-1.71,0.18,0.08,0.37,
2.957,-0.35,0.15,-1.71,0.11,0.11,0.39,
2.957,-0.35,0.15,-1.71,-0.01,0.18,0.41,
2.958,-0.35,0.15,-1.71,-0.05,0.21,0.43,
2.963,-0.35,0.15,-1.71,-0.13,0.25,0.45,
2.964,-0.35,0.15,-1.71,-0.21,0.30,0.47,
2.964,-0.57,0.17,-2.43,-0.21,0.30,0.47,
2.965,-0.57,0.17,-2.43,-0.29,0.35,0.49,
2.967,-0.57,0.17,-2.43,-0.41,0.42,0.51,
2.968,-0.57,0.17,-2.43,-0.45,0.44,0.51,
2.97,-0.57,0.17,-2.43,-0.53,0.49,0.51,
2.973,-0.57,0.17,-2.43,-0.61,0.54,0.52,
2.975,-0.38,0.15,-2.45,-0.61,0.54,0.52,
2.976,-0.38,0.15,-2.45,-0.69,0.61,0.51,
2.977,-0.38,0.15,-2.45,-0.83,0.70,0.51,
2.979,-0.38,0.15,-2.45,-0.87,0.73,0.50,
2.98,-0.38,0.15,-2.45,-0.95,0.77,0.50,
2.982,-0.38,0.15,-2.45,-1.03,0.79,0.49,
2.987,-0.33,-0.07,-1.96,-1.03,0.79,0.49,
2.987,-0.33,-0.07,-1.96,-1.08,0.79,0.48,
2.988,-0.33,-0.07,-1.96,-1.14,0.76,0.46,
2.988,-0.33,-0.07,-1.96,-1.15,0.74,0.45,
2.997,-0.33,-0.07,-1.96,-1.16,0.71,0.44,
2.998,-0.33,-0.07,-1.96,-1.16,0.67,0.42,
2.998,-0.51,-0.06,-0.76,-1.16,0.67,0.42,
2.998,-0.51,-0.06,-0.76,-1.14,0.64,0.41,
2.999,-0.51,-0.06,-0.76,-1.11,0.58,0.38,
3.003,-0.51,-0.06,-0.76,-1.09,0.57,0.37,
3.003,-0.51,-0.06,-0.76,-1.05,0.53,0.34,
3.025,-0.51,-0.06,-0.76,-1.01,0.50,0.32,
3.026,-0.61,0.12,0.17,-1.01,0.50,0.32,
3.027,-0.61,0.12,0.17,-0.98,0.46,0.29,
3.027,-0.61,0.12,0.17,-0.90,0.39,0.25,
3.027,-0.61,0.12,0.17,-0.88,0.36,0.23,
3.028,-0.61,0.12,0.17,-0.83,0.31,0.20,
3.028,-0.61,0.12,0.17,-0.78,0.25,0.18,
3.028,-0.64,0.06,0.52,-0.78,0.25,0.18,
3.029,-0.64,0.06,0.52,-0.73,0.20,0.15,
3.029,-0.64,0.06,0.52,-0.67,0.12,0.12,
3.029,-0.64,0.06,0.52,-0.65,0.10,0.12,
3.03,-0.64,0.06,0.52,-0.61,0.04,0.11,
3.03,-0.64,0.06,0.52,-0.58,-0.01,0.10,
3.03,-0.95,-0.07,0.24,-0.58,-0.01,0.10,
3.031,-0.95,-0.07,0.24,-0.55,-0.07,0.10,
3.031,-0.95,-0.07,0.24,-0.52,-0.17,0.10,
3.031,-0.95,-0.07,0.24,-0.52,-0.20,0.10,
3.032,-0.95,-0.07,0.24,-0.51,-0.27,0.10,
3.032,-0.95,-0.07,0.24,-0.50,-0.34,0.10,
3.034,-1.09,-0.34,-0.21,-0.50,-0.34,0.10,
3.034,-1.09,-0.34,-0.21,-0.49,-0.42,0.10,
3.058,-1.09,-0.34,-0.21,-0.49,-0.52,0.11,
3.058,-1.09,-0.34,-0.21,-0.48,-0.55,0.11,
3.058,-1.09,-0.34,-0.21,-0.48,-0.61,0.11,
3.059,-1.09,-0.34,-0.21,-0.48,-0.66,0.12,
3.059,-0.94,-0.49,-0.49,-0.48,-0.66,0.12,
3.059,-0.94,-0.49,-0.49,-0.48,-0.71,0.13,
3.059,-0.94,-0.49,-0.49,-0.49,-0.77,0.15,
3.06,-0.94,-0.49,-0.49,-0.48,-0.80,0.16,
3.06,-0.94,-0.49,-0.49,-0.48,-0.84,0.17,
3.06,-0.94,-0.49,-0.49,-0.48,-0.87,0.19,
3.061,-0.91,-0.48,-0.31,-0.48,-0.87,0.19,
3.061,-0.91,-0.48,-0.31,-0.48,-0.91,0.21,
3.061,-0.91,-0.48,-0.31,-0.47,-0.94,0.24,
3.061,-0.91,-0.48,-0.31,-0.47,-0.95,0.25,
3.062,-0.91,-0.48,-0.31,-0.47,-0.96,0.28,
3.062,-0.91,-0.48,-0.31,-0.45,-0.97,0.30,
3.064,-0.70,-0.56,0.20,-0.45,-0.97,0.30,
3.064,-0.70,-0.56,0.20,-0.44,-0.97,0.33,
3.067,-0.70,-0.56,0.20,-0.42,-0.94,0.38,
3.068,-0.70,-0.56,0.20,-0.41,-0.93,0.40,
3.077,-0.70,-0.56,0.20,-0.38,-0.91,0.44,
3.078,-0.70,-0.56,0.20,-0.36,-0.88,0.47,
3.078,-0.75,-0.66,0.64,-0.36,-0.88,0.47,
3.078,-0.75,-0.66,0.64,-0.34,-0.85,0.52,
3.078,-0.75,-0.66,0.64,-0.30,-0.80,0.58,
3.079,-0.75,-0.66,0.64,-0.28,-0.78,0.60,
3.08,-0.75,-0.66,0.64,-0.25,-0.74,0.64,
3.082,-0.75,-0.66,0.64,-0.22,-0.69,0.68,
3.084,-0.40,-0.64,1.05,-0.22,-0.69,0.68,
3.084,-0.40,-0.64,1.05,-0.19,-0.65,0.71,
3.087,-0.40,-0.64,1.05,-0.14,-0.58,0.75,
3.088,-0.40,-0.64,1.05,-0.12,-0.55,0.77,
3.09,-0.40,-0.64,1.05,-0.08,-0.51,0.79,
3.092,-0.40,-0.64,1.05,-0.05,-0.46,0.81,
3.094,0.15,-0.58,1.26,-0.05,-0.46,0.81,
3.094,0.15,-0.58,1.26,-0.01,-0.41,0.82,
3.098,0.15,-0.58,1.26,0.05,-0.34,0.84,
3.099,0.15,-0.58,1.26,0.07,-0.32,0.84,
3.1,0.15,-0.58,1.26,0.11,-0.28,0.85,
3.102,0.15,-0.58,1.26,0.15,-0.23,0.85,
3.104,0.63,-0.36,1.13,0.15,-0.23,0.85,
3.104,0.63,-0.36,1.13,0.19,-0.20,0.85,
3.107,0.63,-0.36,1.13,0.24,-0.15,0.85,
3.108,0.63,-0.36,1.13,0.26,-0.14,0.84,
3.11,0.63,-0.36,1.13,0.29,-0.11,0.83,
3.112,0.63,-0.36,1.13,0.32,-0.10,0.83,
3.114,0.99,-0.16,0.49,0.32,-0.10,0.83,
3.114,0.99,-0.16,0.49,0.35,-0.09,0.81,
3.117,0.99,-0.16,0.49,0.37,-0.09,0.79,
3.118,0.99,-0.16,0.49,0.39,-0.11,0.77,
3.129,0.99,-0.16,0.49,0.39,-0.12,0.76,
3.13,0.99,-0.16,0.49,0.40,-0.14,0.74,
3.13,1.29,-0.08,-0.53,0.40,-0.14,0.74,
3.131,1.29,-0.08,-0.53,0.41,-0.17,0.72,
3.131,1.29,-0.08,-0.53,0.41,-0.22,0.68,
3.131,1.29,-0.08,-0.53,0.41,-0.23,0.67,
3.132,1.29,-0.08,-0.53,0.40,-0.26,0.65,
3.132,1.29,-0.08,-0.53,0.39,-0.30,0.62,
3.134,1.57,-0.04,-1.58,0.39,-0.30,0.62,
3.134,1.57,-0.04,-1.58,0.39,-0.33,0.59,
3.15,1.57,-0.04,-1.58,0.37,-0.40,0.54,
3.152,1.57,-0.04,-1.58,0.36,-0.42,0.52,
3.153,1.57,-0.04,-1.58,0.34,-0.47,0.49,
3.155,1.57,-0.04,-1.58,0.32,-0.53,0.44,
3.156,1.88,0.02,-2.13,0.32,-0.53,0.44,
3.157,1.88,0.02,-2.13,0.31,-0.58,0.40,
3.159,1.88,0.02,-2.13,0.28,-0.65,0.33,
3.159,1.88,0.02,-2.13,0.27,-0.68,0.30,
3.16,1.88,0.02,-2.13,0.25,-0.72,0.25,
3.16,1.88,0.02,-2.13,0.23,-0.76,0.21,
3.161,2.01,0.12,-2.48,0.23,-0.76,0.21,
3.161,2.01,0.12,-2.48,0.21,-0.79,0.16,
3.161,2.01,0.12,-2.48,0.17,-0.84,0.09,
3.162,2.01,0.12,-2.48,0.16,-0.85,0.07,
3.162,2.01,0.12,-2.48,0.13,-0.88,0.03,
3.163,2.01,0.12,-2.48,0.10,-0.92,-0.00,
3.165,1.61,0.00,-2.52,0.10,-0.92,-0.00,
3.167,1.61,0.00,-2.52,0.07,-0.95,-0.04,
3.168,1.61,0.00,-2.52,0.02,-0.98,-0.09,
3.168,1.61,0.00,-2.52,0.01,-0.99,-0.11,
3.177,1.61,0.00,-2.52,-0.02,-1.01,-0.14,
3.178,1.61,0.00,-2.52,-0.05,-1.02,-0.16,
3.179,1.42,-0.22,-2.36,-0.05,-1.02,-0.16,
3.179,1.42,-0.22,-2.36,-0.08,-1.03,-0.19,
3.18,1.42,-0.22,-2.36,-0.13,-1.03,-0.21,
3.181,1.42,-0.22,-2.36,-0.15,-1.03,-0.22,
3.181,1.42,-0.22,-2.36,-0.19,-1.01,-0.23,
3.182,1.42,-0.22,-2.36,-0.22,-1.00,-0.23,
3.184,0.86,-0.51,-2.23,-0.22,-1.00,-0.23,
3.185,0.86,-0.51,-2.23,-0.26,-0.98,-0.22,
3.189,0.86,-0.51,-2.23,-0.32,-0.94,-0.20,
3.192,0.86,-0.51,-2.23,-0.34,-0.94,-0.19,
3.192,0.86,-0.51,-2.23,-0.37,-0.92,-0.18,
3.193,0.86,-0.51,-2.23,-0.41,-0.90,-0.16,
3.194,0.27,-0.77,-1.93,-0.41,-0.90,-0.16,
3.195,0.27,-0.77,-1.93,-0.45,-0.88,-0.15,
3.197,0.27,-0.77,-1.93,-0.50,-0.85,-0.13,
3.198,0.27,-0.77,-1.93,-0.54,-0.83,-0.12,
3.2,0.27,-0.77,-1.93,-0.56,-0.81,-0.11,
3.204,0.27,-0.77,-1.93,-0.58,-0.80,-0.10,
3.237,0.24,-0.87,-1.40,-0.58,-0.80,-0.10,
3.238,0.24,-0.87,-1.40,-0.61,-0.78,-0.10,
3.238,0.24,-0.87,-1.40,-0.64,-0.76,-0.09,
3.239,0.24,-0.87,-1.40,-0.65,-0.75,-0.09,
3.239,0.24,-0.87,-1.40,-0.66,-0.74,-0.10,
3.239,0.24,-0.87,-1.40,-0.67,-0.74,-0.10,
3.24,0.33,-0.70,-0.71,-0.67,-0.74,-0.10,
3.24,0.33,-0.70,-0.71,-0.67,-0.74,-0.11,
3.241,0.33,-0.70,-0.71,-0.66,-0.74,-0.12,
3.241,0.33,-0.70,-0.71,-0.66,-0.75,-0.13,
3.242,0.33,-0.70,-0.71,-0.64,-0.76,-0.14,
3.242,0.33,-0.70,-0.71,-0.62,-0.79,-0.16,
3.242,0.39,-0.48,0.11,-0.62,-0.79,-0.16,
3.243,0.39,-0.48,0.11,-0.60,-0.83,-0.17,
3.243,0.39,-0.48,0.11,-0.56,-0.90,-0.20,
3.244,0.39,-0.48,0.11,-0.54,-0.92,-0.21,
3.244,0.39,-0.48,0.11,-0.51,-0.95,-0.24,
3.244,0.39,-0.48,0.11,-0.47,-0.98,-0.27,
3.245,0.71,-0.34,0.75,-0.47,-0.98,-0.27,
3.245,0.71,-0.34,0.75,-0.43,-1.02,-0.31,
3.245,0.71,-0.34,0.75,-0.38,-1.08,-0.35,
3.246,0.71,-0.34,0.75,-0.34,-1.13,-0.38,
3.246,0.71,-0.34,0.75,-0.32,-1.15,-0.39,
3.247,0.71,-0.34,0.75,-0.29,-1.20,-0.39,
3.247,0.10,-0.58,0.63,-0.29,-1.20,-0.39,
3.247,0.10,-0.58,0.63,-0.27,-1.26,-0.39,
3.248,0.10,-0.58,0.63,-0.24,-1.36,-0.39,
3.248,0.10,-0.58,0.63,-0.23,-1.40,-0.38,
3.25,0.10,-0.58,0.63,-0.22,-1.49,-0.38,
3.251,0.10,-0.58,0.63,-0.21,-1.57,-0.37,
3.254,-0.59,-1.01,0.12,-0.21,-1.57,-0.37,
3.256,-0.59,-1.01,0.12,-0.20,-1.66,-0.36,
3.257,-0.59,-1.01,0.12,-0.20,-1.79,-0.35,
3.262,-0.59,-1.01,0.12,-0.20,-1.83,-0.35,
3.262,-0.59,-1.01,0.12,-0.20,-1.91,-0.34,
3.263,-0.59,-1.01,0.12,-0.21,-1.98,-0.33,
3.264,-0.61,-0.67,-0.63,-0.21,-1.98,-0.33,
3.264,-0.61,-0.67,-0.63,-0.21,-2.05,-0.32,
3.266,-0.61,-0.67,-0.63,-0.23,-2.14,-0.31,
3.267,-0.61,-0.67,-0.63,-0.23,-2.20,-0.31,
3.272,-0.61,-0.67,-0.63,-0.23,-2.23,-0.31,
3.273,-0.61,-0.67,-0.63,-0.24,-2.29,-0.31,
3.274,0.02,0.12,-0.99,-0.24,-2.29,-0.31,
3.274,0.02,0.12,-0.99,-0.24,-2.35,-0.30,
3.277,0.02,0.12,-0.99,-0.24,-2.44,-0.31,
3.278,0.02,0.12,-0.99,-0.23,-2.46,-0.31,
3.282,0.02,0.12,-0.99,-0.23,-2.51,-0.31,
3.282,0.02,0.12,-0.99,-0.21,-2.55,-0.31,
3.284,0.53,0.36,-0.42,-0.21,-2.55,-0.31,
3.284,0.53,0.36,-0.42,-0.19,-2.58,-0.32,
3.292,0.53,0.36,-0.42,-0.15,-2.62,-0.32,
3.293,0.53,0.36,-0.42,-0.12,-2.62,-0.32,
3.294,0.53,0.36,-0.42,-0.11,-2.62,-0.32,
3.295,0.53,0.36,-0.42,-0.05,-2.59,-0.33,
3.295,0.55,0.34,0.72,-0.05,-2.59,-0.33,
3.296,0.55,0.34,0.72,-0.01,-2.57,-0.33,
3.297,0.55,0.34,0.72,0.04,-2.54,-0.34,
3.298,0.55,0.34,0.72,0.08,-2.51,-0.34,
3.3,0.55,0.34,0.72,0.10,-2.49,-0.35,
3.304,0.55,0.34,0.72,0.14,-2.46,-0.36,
3.306,0.84,0.21,1.42,0.14,-2.46,-0.36,
3.307,0.84,0.21,1.42,0.17,-2.41,-0.37,
3.308,0.84,0.21,1.42,0.21,-2.35,-0.39,
3.308,0.84,0.21,1.42,0.24,-2.30,-0.41,
3.31,0.84,0.21,1.42,0.25,-2.28,-0.41,
3.312,0.84,0.21,1.42,0.26,-2.25,-0.43,
3.314,1.02,0.24,1.41,0.26,-2.25,-0.43,
3.314,1.02,0.24,1.41,0.27,-2.22,-0.44,
3.317,1.02,0.24,1.41,0.29,-2.16,-0.47,
3.323,1.02,0.24,1.41,0.29,-2.12,-0.48,
3.324,1.02,0.24,1.41,0.29,-2.10,-0.49,
3.325,1.02,0.24,1.41,0.29,-2.07,-0.50,
3.325,0.86,0.38,1.27,0.29,-2.07,-0.50,
3.325,0.86,0.38,1.27,0.29,-2.03,-0.52,
3.328,0.86,0.38,1.27,0.28,-1.97,-0.53,
3.328,0.86,0.38,1.27,0.27,-1.94,-0.54,
3.33,0.86,0.38,1.27,0.27,-1.92,-0.55,
3.331,0.86,0.38,1.27,0.26,-1.90,-0.56,
3.333,0.70,0.33,0.95,0.26,-1.90,-0.56,
3.334,0.70,0.33,0.95,0.24,-1.88,-0.57,
3.338,0.70,0.33,0.95,0.22,-1.86,-0.57,
3.339,0.70,0.33,0.95,0.21,-1.85,-0.57,
3.34,0.70,0.33,0.95,0.20,-1.85,-0.57,
3.342,0.70,0.33,0.95,0.18,-1.85,-0.56,
3.344,0.03,0.18,0.47,0.18,-1.85,-0.56,
3.344,0.03,0.18,0.47,0.17,-1.84,-0.54,
3.347,0.03,0.18,0.47,0.14,-1.85,-0.50,
3.348,0.03,0.18,0.47,0.13,-1.86,-0.41,
3.35,0.03,0.18,0.47,0.12,-1.87,-0.34,
3.353,0.03,0.18,0.47,0.10,-1.89,-0.22,
3.354,-2.81,-1.71,0.04,0.10,-1.89,-0.22,
3.355,-2.81,-1.71,0.04,0.08,-1.92,-0.10,
3.357,-2.81,-1.71,0.04,0.04,-1.99,0.06,
3.358,-2.81,-1.71,0.04,0.03,-2.02,0.11,
3.36,-2.81,-1.71,0.04,0.01,-2.09,0.20,
3.362,-2.81,-1.71,0.04,-0.01,-2.16,0.27,
3.364,-2.61,-1.42,-0.47,-0.01,-2.16,0.27,
3.364,-2.61,-1.42,-0.47,-0.03,-2.25,0.33,
3.367,-2.61,-1.42,-0.47,-0.04,-2.39,0.39,
3.369,-2.61,-1.42,-0.47,-0.04,-2.49,0.41,
3.404,-2.61,-1.42,-0.47,-0.04,-2.54,0.42,
3.405,-2.61,-1.42,-0.47,-0.04,-2.63,0.42,
3.405,-1.29,0.22,-0.10,-0.04,-2.63,0.42,
3.406,-1.29,0.22,-0.10,-0.03,-2.71,0.41,
3.406,-1.29,0.22,-0.10,-0.01,-2.79,0.36,
3.406,-1.29,0.22,-0.10,0.02,-2.83,0.31,
3.407,-1.29,0.22,-0.10,0.03,-2.84,0.28,
3.407,-1.29,0.22,-0.10,0.06,-2.87,0.21,
3.408,0.30,1.54,0.54,0.06,-2.87,0.21,
3.408,0.30,1.54,0.54,0.09,-2.88,0.14,
3.409,0.30,1.54,0.54,0.14,-2.89,0.02,
3.409,0.30,1.54,0.54,0.18,-2.89,-0.06,
3.409,0.30,1.54,0.54,0.19,-2.89,-0.10,
3.41,0.30,1.54,0.54,0.23,-2.89,-0.17,
3.41,1.14,1.82,1.34,0.23,-2.89,-0.17,
3.411,1.14,1.82,1.34,0.27,-2.88,-0.23,
3.411,1.14,1.82,1.34,0.31,-2.86,-0.32,
3.412,1.14,1.82,1.34,0.35,-2.84,-0.37,
3.412,1.14,1.82,1.34,0.37,-2.83,-0.39,
3.413,1.14,1.82,1.34,0.39,-2.80,-0.43,
3.413,1.04,1.23,1.76,0.39,-2.80,-0.43,
3.413,1.04,1.23,1.76,0.42,-2.77,-0.47,
3.414,1.04,1.23,1.76,0.46,-2.72,-0.50,
3.414,1.04,1.23,1.76,0.48,-2.67,-0.52,
3.415,1.04,1.23,1.76,0.50,-2.65,-0.53,
3.415,1.04,1.23,1.76,0.52,-2.59,-0.53,
3.416,0.40,0.79,1.88,0.52,-2.59,-0.53,
3.416,0.40,0.79,1.88,0.54,-2.54,-0.54,
3.416,0.40,0.79,1.88,0.57,-2.45,-0.54,
3.426,0.40,0.79,1.88,0.59,-2.39,-0.53,
3.427,0.40,0.79,1.88,0.60,-2.37,-0.53,
3.428,0.40,0.79,1.88,0.62,-2.32,-0.53,
3.428,-0.07,0.51,2.06,0.62,-2.32,-0.53,
3.428,-0.07,0.51,2.06,0.64,-2.29,-0.54,
3.429,-0.07,0.51,2.06,0.68,-2.24,-0.55,
3.429,-0.07,0.51,2.06,0.70,-2.21,-0.57,
3.43,-0.07,0.51,2.06,0.72,-2.19,-0.58,
3.446,-0.07,0.51,2.06,0.75,-2.15,-0.60,
3.447,0.59,0.35,2.61,0.75,-2.15,-0.60,
3.447,0.59,0.35,2.61,0.78,-2.11,-0.63,
3.448,0.59,0.35,2.61,0.82,-2.03,-0.67,
3.448,0.59,0.35,2.61,0.85,-1.98,-0.70,
3.448,0.59,0.35,2.61,0.87,-1.95,-0.71,
3.449,0.59,0.35,2.61,0.89,-1.90,-0.74,
3.449,0.56,0.48,2.53,0.89,-1.90,-0.74,
3.449,0.56,0.48,2.53,0.90,-1.86,-0.76,
3.45,0.56,0.48,2.53,0.90,-1.82,-0.81,
3.45,0.56,0.48,2.53,0.90,-1.81,-0.83,
3.451,0.56,0.48,2.53,0.90,-1.81,-0.84,
3.461,0.56,0.48,2.53,0.88,-1.81,-0.86,
3.462,-0.08,0.44,1.70,0.88,-1.81,-0.86,
3.463,-0.08,0.44,1.70,0.86,-1.82,-0.88,
3.464,-0.08,0.44,1.70,0.82,-1.83,-0.90,
3.464,-0.08,0.44,1.70,0.79,-1.84,-0.91,
3.464,-0.08,0.44,1.70,0.75,-1.85,-0.91,
3.465,-0.08,0.44,1.70,0.71,-1.86,-0.91,
3.465,-0.89,0.19,0.79,0.71,-1.86,-0.91,
3.466,-0.89,0.19,0.79,0.68,-1.87,-0.90,
3.467,-0.89,0.19,0.79,0.62,-1.88,-0.88,
3.473,-0.89,0.19,0.79,0.60,-1.87,-0.87,
3.474,-0.89,0.19,0.79,0.57,-1.87,-0.86,
3.475,-0.89,0.19,0.79,0.54,-1.86,-0.84,
3.476,-1.51,-0.18,0.42,0.54,-1.86,-0.84,
3.477,-1.51,-0.18,0.42,0.51,-1.85,-0.83,
3.478,-1.51,-0.18,0.42,0.48,-1.83,-0.81,
3.478,-1.51,-0.18,0.42,0.46,-1.81,-0.80,
3.48,-1.51,-0.18,0.42,0.44,-1.79,-0.79,
3.481,-1.51,-0.18,0.42,0.42,-1.78,-0.78,
3.485,-1.64,-0.24,0.70,0.42,-1.78,-0.78,
3.486,-1.64,-0.24,0.70,0.41,-1.77,-0.77,
3.487,-1.64,-0.24,0.70,0.40,-1.77,-0.77,
3.488,-1.64,-0.24,0.70,0.39,-1.78,-0.76,
3.49,-1.64,-0.24,0.70,0.39,-1.78,-0.76,
3.492,-1.64,-0.24,0.70,0.39,-1.79,-0.76,
3.494,-1.53,-0.02,1.40,0.39,-1.79,-0.76,
3.495,-1.53,-0.02,1.40,0.39,-1.79,-0.76,
3.496,-1.53,-0.02,1.40,0.40,-1.80,-0.75,
3.497,-1.53,-0.02,1.40,0.41,-1.82,-0.76,
3.5,-1.53,-0.02,1.40,0.42,-1.84,-0.76,
3.502,-1.53,-0.02,1.40,0.44,-1.87,-0.76,
3.504,-1.30,0.06,2.15,0.44,-1.87,-0.76,
3.504,-1.30,0.06,2.15,0.46,-1.90,-0.77,
3.507,-1.30,0.06,2.15,0.49,-1.92,-0.78,
3.508,-1.30,0.06,2.15,0.52,-1.95,-0.79,
3.51,-1.30,0.06,2.15,0.55,-1.98,-0.80,
3.512,-1.30,0.06,2.15,0.59,-2.00,-0.81,
3.514,-1.29,-0.11,3.01,0.59,-2.00,-0.81,
3.514,-1.29,-0.11,3.01,0.63,-2.01,-0.82,
3.527,-1.29,-0.11,3.01,0.70,-2.03,-0.83,
3.528,-1.29,-0.11,3.01,0.72,-2.03,-0.84,
3.529,-1.29,-0.11,3.01,0.77,-2.04,-0.84,
3.529,-1.29,-0.11,3.01,0.83,-2.05,-0.85,
3.53,-1.29,-0.30,3.54,0.83,-2.05,-0.85,
3.53,-1.29,-0.30,3.54,0.88,-2.06,-0.86,
3.531,-1.29,-0.30,3.54,0.93,-2.06,-0.86,
3.531,-1.29,-0.30,3.54,0.98,-2.06,-0.88,
3.532,-1.29,-0.30,3.54,1.03,-2.07,-0.89,
3.535,-1.29,-0.30,3.54,1.07,-2.08,-0.89,
3.552,-1.19,-0.39,3.68,1.07,-2.08,-0.89,
3.555,-1.19,-0.39,3.68,1.11,-2.08,-0.90,
3.593,-1.19,-0.39,3.68,1.14,-2.09,-0.90,
3.594,-1.19,-0.39,3.68,1.17,-2.09,-0.91,
3.594,-1.19,-0.39,3.68,1.19,-2.08,-0.91,
3.595,-1.19,-0.39,3.68,1.20,-2.08,-0.91,
3.595,-1.36,-0.35,3.00,1.20,-2.08,-0.91,
3.595,-1.36,-0.35,3.00,1.21,-2.07,-0.90,
3.596,-1.36,-0.35,3.00,1.22,-2.05,-0.90,
3.596,-1.36,-0.35,3.00,1.22,-2.04,-0.89,
3.597,-1.36,-0.35,3.00,1.21,-2.03,-0.88,
3.597,-1.36,-0.35,3.00,1.21,-2.03,-0.88,
3.598,-1.58,-0.18,2.36,1.21,-2.03,-0.88,
3.598,-1.58,-0.18,2.36,1.20,-2.02,-0.87,
3.598,-1.58,-0.18,2.36,1.18,-2.02,-0.87,
3.599,-1.58,-0.18,2.36,1.16,-2.02,-0.87,
3.599,-1.58,-0.18,2.36,1.14,-2.02,-0.87,
3.6,-1.58,-0.18,2.36,1.12,-2.03,-0.87,
3.6,-1.52,-0.51,1.74,1.12,-2.03,-0.87,
3.601,-1.52,-0.51,1.74,1.10,-2.04,-0.87,
3.601,-1.52,-0.51,1.74,1.07,-2.05,-0.87,
3.602,-1.52,-0.51,1.74,1.06,-2.05,-0.87,
3.603,-1.52,-0.51,1.74,1.03,-2.06,-0.87,
3.604,-1.52,-0.51,1.74,1.01,-2.06,-0.86,
3.604,-1.78,-0.74,1.54,1.01,-2.06,-0.86,
3.605,-1.78,-0.74,1.54,1.00,-2.06,-0.86,
3.605,-1.78,-0.74,1.54,0.98,-2.07,-0.85,
3.606,-1.78,-0.74,1.54,0.96,-2.09,-0.85,
3.606,-1.78,-0.74,1.54,0.96,-2.10,-0.84,
3.609,-1.78,-0.74,1.54,0.95,-2.13,-0.83,
3.61,-2.10,-0.77,1.90,0.95,-2.13,-0.83,
3.61,-2.10,-0.77,1.90,0.96,-2.17,-0.81,
3.61,-2.10,-0.77,1.90,0.97,-2.21,-0.80,
3.611,-2.10,-0.77,1.90,0.99,-2.25,-0.79,
3.611,-2.10,-0.77,1.90,1.02,-2.29,-0.78,
3.612,-2.10,-0.77,1.90,1.05,-2.35,-0.77,
3.612,-2.28,-0.60,3.14,1.05,-2.35,-0.77,
3.612,-2.28,-0.60,3.14,1.09,-2.41,-0.77,
3.613,-2.28,-0.60,3.14,1.13,-2.48,-0.77,
3.613,-2.28,-0.60,3.14,1.19,-2.55,-0.78,
3.613,-2.28,-0.60,3.14,1.24,-2.62,-0.79,
3.614,-2.28,-0.60,3.14,1.30,-2.69,-0.80,
3.614,-1.63,-0.63,4.07,1.30,-2.69,-0.80,
3.615,-1.63,-0.63,4.07,1.37,-2.75,-0.80,
3.615,-1.63,-0.63,4.07,1.48,-2.85,-0.82,
3.615,-1.63,-0.63,4.07,1.51,-2.88,-0.82,
3.616,-1.63,-0.63,4.07,1.59,-2.94,-0.83,
3.616,-1.63,-0.63,4.07,1.67,-2.99,-0.84,
3.616,-1.41,-0.56,4.76,1.67,-2.99,-0.84,
3.617,-1.41,-0.56,4.76,1.75,-3.04,-0.86,
3.617,-1.41,-0.56,4.76,1.83,-3.09,-0.87,
3.618,-1.41,-0.56,4.76,1.90,-3.13,-0.89,
3.622,-1.41,-0.56,4.76,1.98,-3.16,-0.91,
3.623,-1.41,-0.56,4.76,2.06,-3.19,-0.93,
3.624,-1.24,-0.50,4.84,2.06,-3.19,-0.93,
3.624,-1.24,-0.50,4.84,2.14,-3.20,-0.96,
3.629,-1.24,-0.50,4.84,2.22,-3.20,-0.99,
3.63,-1.24,-0.50,4.84,2.29,-3.19,-1.02,
3.63,-1.24,-0.50,4.84,2.36,-3.17,-1.05,
3.632,-1.24,-0.50,4.84,2.43,-3.15,-1.08,
3.639,-1.20,-0.49,4.44,2.43,-3.15,-1.08,
3.642,-1.20,-0.49,4.44,2.49,-3.11,-1.10,
3.643,-1.20,-0.49,4.44,2.56,-3.04,-1.14,
3.644,-1.20,-0.49,4.44,2.59,-3.01,-1.15,
3.644,-1.20,-0.49,4.44,2.62,-2.94,-1.17,
3.645,-1.20,-0.49,4.44,2.66,-2.83,-1.19,
3.646,-1.62,-0.46,2.99,2.66,-2.83,-1.19,
3.646,-1.62,-0.46,2.99,2.67,-2.79,-1.20,
3.647,-1.62,-0.46,2.99,2.69,-2.67,-1.21,
3.649,-1.62,-0.46,2.99,2.69,-2.64,-1.21,
3.658,-1.62,-0.46,2.99,2.68,-2.56,-1.21,
3.659,-1.62,-0.46,2.99,2.65,-2.49,-1.21,
3.659,-2.19,-0.41,1.38,2.65,-2.49,-1.21,
3.66,-2.19,-0.41,1.38,2.62,-2.43,-1.21,
3.66,-2.19,-0.41,1.38,2.57,-2.38,-1.21,
3.66,-2.19,-0.41,1.38,2.51,-2.33,-1.21,
3.661,-2.19,-0.41,1.38,2.44,-2.30,-1.21,
3.664,-2.19,-0.41,1.38,2.36,-2.27,-1.20,
3.684,-2.53,-0.46,-0.45,2.36,-2.27,-1.20,
3.686,-2.53,-0.46,-0.45,2.27,-2.25,-1.20,
3.687,-2.53,-0.46,-0.45,2.12,-2.22,-1.19,
3.688,-2.53,-0.46,-0.45,2.06,-2.21,-1.18,
3.69,-2.53,-0.46,-0.45,1.95,-2.19,-1.17,
3.691,-2.53,-0.46,-0.45,1.85,-2.18,-1.15,
3.691,-3.03,-0.27,-1.75,1.85,-2.18,-1.15,
3.692,-3.03,-0.27,-1.75,1.73,-2.16,-1.13,
3.692,-3.03,-0.27,-1.75,1.58,-2.13,-1.08,
3.693,-3.03,-0.27,-1.75,1.53,-2.12,-1.07,
3.693,-3.03,-0.27,-1.75,1.43,-2.10,-1.03,
3.693,-3.03,-0.27,-1.75,1.34,-2.08,-1.00,
3.694,-3.59,-0.30,-1.55,1.34,-2.08,-1.00,
3.695,-3.59,-0.30,-1.55,1.26,-2.06,-0.96,
3.695,-3.59,-0.30,-1.55,1.15,-2.03,-0.90,
3.696,-3.59,-0.30,-1.55,1.11,-2.02,-0.88,
3.696,-3.59,-0.30,-1.55,1.05,-1.99,-0.85,
3.696,-3.59,-0.30,-1.55,0.99,-1.95,-0.83,
3.697,-3.77,-0.67,-0.64,0.99,-1.95,-0.83,
3.697,-3.77,-0.67,-0.64,0.95,-1.91,-0.80,
3.697,-3.77,-0.67,-0.64,0.89,-1.83,-0.77,
3.698,-3.77,-0.67,-0.64,0.88,-1.80,-0.77,
3.701,-3.77,-0.67,-0.64,0.85,-1.74,-0.76,
3.705,-3.77,-0.67,-0.64,0.83,-1.68,-0.76,
3.731,-3.37,-1.29,0.92,0.83,-1.68,-0.76,
3.731,-3.37,-1.29,0.92,0.82,-1.63,-0.77,
3.731,-3.37,-1.29,0.92,0.83,-1.57,-0.78,
3.731,-3.37,-1.29,0.92,0.83,-1.55,-0.79,
3.732,-3.37,-1.29,0.92,0.85,-1.53,-0.80,
3.732,-3.37,-1.29,0.92,0.93,-1.51,-0.85,
3.732,-3.37,-1.29,0.92,0.93,-1.51,-0.85,
3.733,-2.91,-1.45,3.82,0.93,-1.51,-0.85,
3.733,-2.91,-1.45,3.82,1.01,-1.54,-0.88,
3.733,-2.91,-1.45,3.82,1.05,-1.55,-0.88,
3.733,-2.91,-1.45,3.82,1.12,-1.58,-0.90,
3.734,-2.91,-1.45,3.82,1.22,-1.63,-0.92,
3.734,-2.63,-1.25,5.86,1.22,-1.63,-0.92,
3.734,-2.63,-1.25,5.86,1.33,-1.71,-0.94,
3.735,-2.63,-1.25,5.86,1.51,-1.89,-0.97,
3.735,-2.63,-1.25,5.86,1.58,-1.97,-0.98,
3.735,-2.63,-1.25,5.86,1.72,-2.14,-1.00,
3.735,-2.63,-1.25,5.86,1.88,-2.32,-1.03,
3.736,-1.94,-0.92,8.97,1.88,-2.32,-1.03,
3.736,-1.94,-0.92,8.97,2.04,-2.50,-1.05,
3.736,-1.94,-0.92,8.97,2.29,-2.79,-1.08,
3.741,-1.94,-0.92,8.97,2.37,-2.89,-1.09,
3.742,-1.94,-0.92,8.97,2.53,-3.08,-1.11,
3.742,-1.94,-0.92,8.97,2.69,-3.27,-1.14,
3.746,-1.72,-1.36,9.77,2.69,-3.27,-1.14,
3.746,-1.72,-1.36,9.77,2.84,-3.44,-1.16,
3.747,-1.72,-1.36,9.77,3.04,-3.66,-1.21,
3.749,-1.72,-1.36,9.77,3.10,-3.73,-1.23,
3.75,-1.72,-1.36,9.77,3.21,-3.84,-1.26,
3.752,-1.72,-1.36,9.77,3.31,-3.93,-1.30,
3.754,-1.68,-1.83,7.49,3.31,-3.93,-1.30,
3.754,-1.68,-1.83,7.49,3.41,-3.99,-1.34,
3.757,-1.68,-1.83,7.49,3.54,-4.01,-1.37,
3.758,-1.68,-1.83,7.49,3.59,-4.00,-1.39,
3.76,-1.68,-1.83,7.49,3.67,-3.97,-1.42,
3.761,-1.68,-1.83,7.49,3.74,-3.90,-1.44,
3.763,-2.45,-1.43,4.71,3.74,-3.90,-1.44,
3.763,-2.45,-1.43,4.71,3.80,-3.80,-1.47,
3.767,-2.45,-1.43,4.71,3.87,-3.59,-1.51,
3.767,-2.45,-1.43,4.71,3.89,-3.51,-1.52,
3.772,-2.45,-1.43,4.71,3.93,-3.33,-1.54,
3.773,-2.45,-1.43,4.71,3.95,-3.14,-1.57,
3.774,-2.27,-1.63,2.29,3.95,-3.14,-1.57,
3.775,-2.27,-1.63,2.29,3.97,-2.93,-1.59,
3.779,-2.27,-1.63,2.29,3.97,-2.61,-1.61,
3.779,-2.27,-1.63,2.29,3.97,-2.51,-1.62,
3.779,-2.27,-1.63,2.29,3.93,-2.32,-1.63,
3.783,-2.27,-1.63,2.29,3.87,-2.16,-1.63,
3.784,-1.92,-2.40,0.52,3.87,-2.16,-1.63,
3.784,-1.92,-2.40,0.52,3.77,-2.02,-1.63,
3.792,-1.92,-2.40,0.52,3.56,-1.88,-1.62,
3.793,-1.92,-2.40,0.52,3.47,-1.85,-1.62,
3.793,-1.92,-2.40,0.52,3.28,-1.81,-1.60,
3.793,-1.92,-2.40,0.52,3.06,-1.78,-1.58,
3.793,-2.46,-2.60,-1.70,3.06,-1.78,-1.58,
3.794,-2.46,-2.60,-1.70,2.83,-1.75,-1.56,
3.799,-2.46,-2.60,-1.70,2.49,-1.70,-1.52,
3.799,-2.46,-2.60,-1.70,2.38,-1.68,-1.51,
3.8,-2.46,-2.60,-1.70,2.16,-1.62,-1.49,
3.818,-2.46,-2.60,-1.70,1.96,-1.53,-1.46,
3.819,-2.98,-2.48,-2.69,1.96,-1.53,-1.46,
3.819,-2.98,-2.48,-2.69,1.78,-1.43,-1.44,
3.819,-2.98,-2.48,-2.69,1.55,-1.26,-1.41,
3.82,-2.98,-2.48,-2.69,1.48,-1.20,-1.40,
3.82,-2.98,-2.48,-2.69,1.37,-1.08,-1.38,
3.82,-2.98,-2.48,-2.69,1.28,-0.97,-1.36,
3.82,-2.58,-2.95,-1.12,1.28,-0.97,-1.36,
3.82,-2.58,-2.95,-1.12,1.20,-0.87,-1.35,
3.821,-2.58,-2.95,-1.12,1.12,-0.76,-1.33,
3.821,-2.58,-2.95,-1.12,1.11,-0.73,-1.32,
3.821,-2.58,-2.95,-1.12,1.09,-0.69,-1.30,
3.822,-2.58,-2.95,-1.12,1.08,-0.68,-1.29,
3.824,-2.35,-3.73,1.74,1.08,-0.68,-1.29,
3.824,-2.35,-3.73,1.74,1.08,-0.70,-1.27,
3.827,-2.35,-3.73,1.74,1.11,-0.77,-1.25,
3.828,-2.35,-3.73,1.74,1.13,-0.81,-1.23,
3.83,-2.35,-3.73,1.74,1.18,-0.90,-1.20,
3.832,-2.35,-3.73,1.74,1.23,-1.01,-1.18,
3.838,-2.00,-4.53,4.55,1.23,-1.01,-1.18,
3.84,-2.00,-4.53,4.55,1.30,-1.14,-1.17,
3.841,-2.00,-4.53,4.55,1.41,-1.38,-1.16,
3.841,-2.00,-4.53,4.55,1.45,-1.46,-1.16,
3.841,-2.00,-4.53,4.55,1.52,-1.64,-1.16,
3.842,-2.00,-4.53,4.55,1.60,-1.82,-1.17,
3.844,-1.48,-5.34,6.21,1.60,-1.82,-1.17,
3.845,-1.48,-5.34,6.21,1.68,-2.02,-1.19,
3.849,-1.48,-5.34,6.21,1.79,-2.33,-1.23,
3.85,-1.48,-5.34,6.21,1.82,-2.44,-1.25,
3.85,-1.48,-5.34,6.21,1.90,-2.65,-1.28,
3.853,-1.48,-5.34,6.21,1.97,-2.86,-1.32,
3.856,-1.16,-5.70,7.11,1.97,-2.86,-1.32,
3.856,-1.16,-5.70,7.11,2.05,-3.07,-1.36,
3.858,-1.16,-5.70,7.11,2.17,-3.36,-1.41,
3.859,-1.16,-5.70,7.11,2.21,-3.45,-1.44,
3.86,-1.16,-5.70,7.11,2.28,-3.63,-1.48,
3.862,-1.16,-5.70,7.11,2.36,-3.77,-1.51,
3.864,-0.97,-5.50,6.63,2.36,-3.77,-1.51,
3.864,-0.97,-5.50,6.63,2.42,-3.89,-1.56,
3.868,-0.97,-5.50,6.63,2.51,-4.03,-1.61,
3.871,-0.97,-5.50,6.63,2.54,-4.06,-1.63,
3.91,-0.97,-5.50,6.63,2.60,-4.12,-1.67,
3.91,-0.97,-5.50,6.63,2.66,-4.16,-1.70,
3.911,-1.23,-4.99,5.26,2.66,-4.16,-1.70,
3.911,-1.23,-4.99,5.26,2.71,-4.18,-1.73,
3.912,-1.23,-4.99,5.26,2.78,-4.15,-1.78,
3.912,-1.23,-4.99,5.26,2.80,-4.13,-1.80,
3.913,-1.23,-4.99,5.26,2.84,-4.06,-1.82,
3.913,-1.23,-4.99,5.26,2.88,-3.95,-1.84,
3.914,-1.83,-4.71,3.79,2.88,-3.95,-1.84,
3.914,-1.83,-4.71,3.79,2.91,-3.81,-1.86,
3.915,-1.83,-4.71,3.79,2.96,-3.56,-1.87,
3.915,-1.83,-4.71,3.79,2.97,-3.47,-1.87,
3.915,-1.83,-4.71,3.79,3.01,-3.29,-1.87,
3.916,-1.83,-4.71,3.79,3.04,-3.09,-1.87,
3.916,-1.93,-4.78,3.57,3.04,-3.09,-1.87,
3.917,-1.93,-4.78,3.57,3.06,-2.89,-1.86,
3.917,-1.93,-4.78,3.57,3.10,-2.58,-1.84,
3.917,-1.93,-4.78,3.57,3.12,-2.47,-1.82,
3.918,-1.93,-4.78,3.57,3.14,-2.26,-1.79,
3.918,-1.93,-4.78,3.57,3.16,-2.04,-1.73,
3.919,-1.65,-5.55,4.42,3.16,-2.04,-1.73,
3.919,-1.65,-5.55,4.42,3.19,-1.82,-1.65,
3.919,-1.65,-5.55,4.42,3.22,-1.49,-1.49,
3.92,-1.65,-5.55,4.42,3.23,-1.38,-1.42,
3.92,-1.65,-5.55,4.42,3.26,-1.17,-1.27,
3.92,-1.65,-5.55,4.42,3.29,-0.97,-1.11,
3.921,-2.34,-6.38,6.16,3.29,-0.97,-1.11,
3.921,-2.34,-6.38,6.16,3.30,-0.80,-0.94,
3.922,-2.34,-6.38,6.16,3.27,-0.62,-0.67,
3.922,-2.34,-6.38,6.16,3.25,-0.60,-0.59,
3.922,-2.34,-6.38,6.16,3.16,-0.59,-0.44,
3.923,-2.34,-6.38,6.16,3.04,-0.64,-0.31,
3.923,-2.53,-7.19,6.36,3.04,-0.64,-0.31,
3.924,-2.53,-7.19,6.36,2.89,-0.73,-0.20,
3.927,-2.53,-7.19,6.36,2.64,-0.89,-0.10,
3.927,-2.53,-7.19,6.36,2.56,-0.95,-0.08,
3.93,-2.53,-7.19,6.36,2.40,-1.07,-0.07,
3.941,-2.53,-7.19,6.36,2.25,-1.18,-0.08,
3.942,-1.81,-6.87,6.14,2.25,-1.18,-0.08,
3.943,-1.81,-6.87,6.14,2.12,-1.28,-0.11,
3.943,-1.81,-6.87,6.14,1.97,-1.36,-0.18,
3.943,-1.81,-6.87,6.14,1.94,-1.37,-0.22,
3.943,-1.81,-6.87,6.14,1.89,-1.38,-0.28,
3.943,-1.81,-6.87,6.14,1.86,-1.35,-0.35,
3.947,-1.83,-6.43,6.53,1.86,-1.35,-0.35,
3.948,-1.83,-6.43,6.53,1.85,-1.31,-0.42,
3.948,-1.83,-6.43,6.53,1.87,-1.23,-0.53,
3.949,-1.83,-6.43,6.53,1.89,-1.20,-0.56,
3.967,-1.83,-6.43,6.53,1.91,-1.14,-0.63,
3.967,-1.83,-6.43,6.53,1.94,-1.09,-0.69,
3.968,-2.57,-5.38,7.69,1.94,-1.09,-0.69,
3.968,-2.57,-5.38,7.69,1.97,-1.05,-0.75,
3.968,-2.57,-5.38,7.69,1.99,-1.05,-0.84,
3.968,-2.57,-5.38,7.69,1.99,-1.06,-0.87,
3.968,-2.57,-5.38,7.69,1.99,-1.12,-0.93,
3.969,-2.57,-5.38,7.69,1.97,-1.23,-0.97,
3.969,-3.39,-4.53,7.48,1.97,-1.23,-0.97,
3.969,-3.39,-4.53,7.48,1.93,-1.38,-1.01,
3.969,-3.39,-4.53,7.48,1.86,-1.65,-1.05,
3.969,-3.39,-4.53,7.48,1.83,-1.74,-1.06,
3.973,-3.39,-4.53,7.48,1.78,-1.93,-1.08,
3.973,-3.39,-4.53,7.48,1.74,-2.13,-1.10,
3.974,-3.59,-3.88,7.48,1.74,-2.13,-1.10,
3.974,-3.59,-3.88,7.48,1.69,-2.32,-1.11,
3.977,-3.59,-3.88,7.48,1.65,-2.60,-1.14,
3.979,-3.59,-3.88,7.48,1.63,-2.69,-1.15,
3.982,-3.59,-3.88,7.48,1.62,-2.87,-1.18,
3.982,-3.59,-3.88,7.48,1.60,-3.05,-1.22,
3.986,-1.80,-3.27,8.19,1.60,-3.05,-1.22,
3.987,-1.80,-3.27,8.19,1.58,-3.21,-1.27,
3.987,-1.80,-3.27,8.19,1.56,-3.43,-1.36,
3.988,-1.80,-3.27,8.19,1.55,-3.50,-1.41,
3.995,-1.80,-3.27,8.19,1.53,-3.63,-1.51,
3.996,-1.80,-3.27,8.19,1.48,-3.78,-1.67,
3.997,1.48,-2.34,9.04,1.48,-3.78,-1.67,
3.999,1.48,-2.34,9.04,1.46,-3.83,-1.72,
3.999,1.48,-2.34,9.04,1.39,-3.93,-1.86,
4.0,1.48,-2.34,9.04,1.36,-3.96,-1.90,
4.001,1.48,-2.34,9.04,1.29,-3.98,-1.97,
4.003,1.48,-2.34,9.04,1.22,-3.98,-2.03,
4.006,3.68,-1.36,8.78,1.22,-3.98,-2.03,
4.007,3.68,-1.36,8.78,1.13,-3.95,-2.08,
4.008,3.68,-1.36,8.78,0.99,-3.84,-2.11,
4.009,3.68,-1.36,8.78,0.94,-3.78,-2.10,
4.012,3.68,-1.36,8.78,0.82,-3.64,-2.08,
4.012,3.68,-1.36,8.78,0.70,-3.47,-2.04,
4.016,4.68,-1.38,8.63,0.70,-3.47,-2.04,
4.017,4.68,-1.38,8.63,0.57,-3.26,-1.98,
4.017,4.68,-1.38,8.63,0.37,-2.89,-1.90,
4.021,4.68,-1.38,8.63,0.30,-2.75,-1.88,
4.021,4.68,-1.38,8.63,0.16,-2.46,-1.86,
4.022,4.68,-1.38,8.63,0.01,-2.17,-1.86,
4.024,5.66,-1.74,8.53,0.01,-2.17,-1.86,
4.025,5.66,-1.74,8.53,-0.13,-1.87,-1.89,
4.027,5.66,-1.74,8.53,-0.35,-1.44,-1.97,
4.028,5.66,-1.74,8.53,-0.42,-1.30,-2.01,
4.03,5.66,-1.74,8.53,-0.56,-1.03,-2.10,
4.035,5.66,-1.74,8.53,-0.70,-0.76,-2.19,
4.036,6.18,-1.47,9.98,-0.70,-0.76,-2.19,
4.036,6.18,-1.47,9.98,-0.82,-0.50,-2.28,
4.057,6.18,-1.47,9.98,-0.99,-0.10,-2.42,
4.058,6.18,-1.47,9.98,-1.04,0.05,-2.47,
4.058,6.18,-1.47,9.98,-1.12,0.35,-2.55,
4.059,6.18,-1.47,9.98,-1.18,0.67,-2.63,
4.059,2.33,-1.82,12.84,-1.18,0.67,-2.63,
4.059,2.33,-1.82,12.84,-1.20,0.99,-2.71,
4.06,2.33,-1.82,12.84,-1.18,1.40,-2.83,
4.06,2.33,-1.82,12.84,-1.15,1.51,-2.86,
4.06,2.33,-1.82,12.84,-1.05,1.67,-2.94,
4.06,2.33,-1.82,12.84,-0.92,1.75,-3.00,
4.061,-1.34,-3.71,18.54,-0.92,1.75,-3.00,
4.061,-1.34,-3.71,18.54,-0.74,1.72,-3.03,
4.061,-1.34,-3.71,18.54,-0.41,1.52,-3.01,
4.062,-1.34,-3.71,18.54,-0.28,1.43,-3.01,
4.062,-1.34,-3.71,18.54,0.01,1.19,-3.00,
4.062,-1.34,-3.71,18.54,0.33,0.92,-3.00,
4.067,-2.33,-5.14,23.41,0.33,0.92,-3.00,
4.068,-2.33,-5.14,23.41,0.67,0.62,-3.00,
4.068,-2.33,-5.14,23.41,1.21,0.15,-3.01,
4.068,-2.33,-5.14,23.41,1.39,-0.00,-3.02,
4.072,-2.33,-5.14,23.41,1.75,-0.31,-3.05,
4.072,-2.33,-5.14,23.41,2.08,-0.59,-3.11,
4.073,0.29,-3.49,22.17,2.08,-0.59,-3.11,
4.074,0.29,-3.49,22.17,2.39,-0.85,-3.18,
4.079,0.29,-3.49,22.17,2.80,-1.14,-3.34,
4.079,0.29,-3.49,22.17,2.92,-1.21,-3.40,
4.08,0.29,-3.49,22.17,3.13,-1.29,-3.56,
4.092,0.29,-3.49,22.17,3.29,-1.31,-3.74,
4.093,6.35,-2.20,11.59,3.29,-1.31,-3.74,
4.094,6.35,-2.20,11.59,3.41,-1.29,-3.95,
4.094,6.35,-2.20,11.59,3.50,-1.21,-4.30,
4.094,6.35,-2.20,11.59,3.50,-1.19,-4.42,
4.095,6.35,-2.20,11.59,3.45,-1.15,-4.66,
4.095,6.35,-2.20,11.59,3.35,-1.11,-4.85,
4.095,8.15,-2.70,-1.55,3.35,-1.11,-4.85,
4.095,8.15,-2.70,-1.55,3.24,-1.09,-5.02,
4.111,8.15,-2.70,-1.55,2.95,-1.14,-5.27,
4.112,8.15,-2.70,-1.55,2.82,-1.18,-5.35,
4.112,8.15,-2.70,-1.55,2.50,-1.24,-5.48,
4.112,8.15,-2.70,-1.55,2.12,-1.30,-5.58,
4.112,4.76,-7.34,-11.37,2.12,-1.30,-5.58,
4.113,4.76,-7.34,-11.37,1.69,-1.40,-5.65,
4.113,4.76,-7.34,-11.37,1.02,-1.56,-5.66,
4.113,4.76,-7.34,-11.37,0.81,-1.60,-5.64,
4.113,4.76,-7.34,-11.37,0.42,-1.68,-5.54,
4.114,4.76,-7.34,-11.37,0.11,-1.77,-5.40,
4.114,-1.80,-15.77,-11.23,0.11,-1.77,-5.40,
4.114,-1.80,-15.77,-11.23,-0.11,-1.88,-5.19,
4.126,-1.80,-15.77,-11.23,-0.24,-2.14,-4.81,
4.127,-1.80,-15.77,-11.23,-0.24,-2.25,-4.67,
4.127,-1.80,-15.77,-11.23,-0.15,-2.48,-4.35,
4.128,-1.80,-15.77,-11.23,0.05,-2.72,-4.00,
4.128,-10.35,-19.03,4.64,0.05,-2.72,-4.00,
4.129,-10.35,-19.03,4.64,0.34,-3.00,-3.64,
4.129,-10.35,-19.03,4.64,0.93,-3.45,-3.07,
4.129,-10.35,-19.03,4.64,1.17,-3.60,-2.86,
4.129,-10.35,-19.03,4.64,1.68,-3.91,-2.45,
4.143,-10.35,-19.03,4.64,2.24,-4.19,-2.03,
4.146,-14.47,-20.29,20.90,2.24,-4.19,-2.03,
4.148,-14.47,-20.29,20.90,2.83,-4.44,-1.61,
4.15,-14.47,-20.29,20.90,3.76,-4.74,-1.00,
4.151,-14.47,-20.29,20.90,4.07,-4.81,-0.80,
4.152,-14.47,-20.29,20.90,4.68,-4.89,-0.44,
4.153,-14.47,-20.29,20.90,5.27,-4.87,-0.09,
4.155,-10.66,-22.55,25.52,5.27,-4.87,-0.09,
4.156,-10.66,-22.55,25.52,5.82,-4.75,0.21,
4.157,-10.66,-22.55,25.52,6.49,-4.37,0.59,
4.157,-10.66,-22.55,25.52,6.66,-4.21,0.68,
4.159,-10.66,-22.55,25.52,6.89,-3.82,0.83,
4.16,-10.66,-22.55,25.52,6.98,-3.38,0.91,
4.16,1.12,-21.67,8.35,6.98,-3.38,0.91,
4.161,1.12,-21.67,8.35,6.91,-2.88,0.93,
4.162,1.12,-21.67,8.35,6.52,-1.96,0.86,
4.162,1.12,-21.67,8.35,6.32,-1.60,0.81,
4.162,1.12,-21.67,8.35,5.84,-0.81,0.68,
4.163,1.12,-21.67,8.35,5.26,0.07,0.55,
4.164,11.63,-20.50,-16.56,5.26,0.07,0.55,
4.165,11.63,-20.50,-16.56,4.61,1.00,0.44,
4.17,11.63,-20.50,-16.56,3.57,2.43,0.35,
4.171,11.63,-20.50,-16.56,3.21,2.90,0.36,
4.171,11.63,-20.50,-16.56,2.52,3.87,0.40,
4.172,11.63,-20.50,-16.56,1.89,4.89,0.50,
4.176,10.71,-23.51,-28.18,1.89,4.89,0.50,
4.177,10.71,-23.51,-28.18,1.33,5.95,0.63,
4.177,10.71,-23.51,-28.18,0.59,7.50,0.87,
4.178,10.71,-23.51,-28.18,0.37,8.00,0.96,
4.18,10.71,-23.51,-28.18,-0.02,9.00,1.08,
4.189,10.71,-23.51,-28.18,-0.28,10.01,1.05,
4.191,9.30,-27.00,-23.44,-0.28,10.01,1.05,
4.193,9.30,-27.00,-23.44,-0.47,10.94,0.94,
4.193,9.30,-27.00,-23.44,-0.72,12.07,0.74,
4.195,9.30,-27.00,-23.44,-0.78,12.36,0.68,
4.196,9.30,-27.00,-23.44,-0.88,12.80,0.58,
4.197,9.30,-27.00,-23.44,-0.94,13.07,0.53,
4.199,11.16,-27.59,-11.70,-0.94,13.07,0.53,
4.203,11.16,-27.59,-11.70,-0.98,13.11,0.51,
4.205,11.16,-27.59,-11.70,-0.99,12.79,0.58,
4.206,11.16,-27.59,-11.70,-0.98,12.59,0.62,
4.206,11.16,-27.59,-11.70,-0.93,12.07,0.73,
4.207,11.16,-27.59,-11.70,-0.84,11.34,0.86,
4.239,7.26,-23.82,1.25,-0.84,11.34,0.86,
4.239,7.26,-23.82,1.25,-0.70,10.37,1.02,
4.24,7.26,-23.82,1.25,-0.40,8.51,1.32,
4.24,7.26,-23.82,1.25,-0.28,7.78,1.43,
4.241,7.26,-23.82,1.25,0.00,6.19,1.67,
4.241,7.26,-23.82,1.25,0.32,4.49,1.91,
4.241,7.95,-21.71,9.43,0.32,4.49,1.91,
4.242,7.95,-21.71,9.43,0.65,2.78,2.16,
4.243,7.95,-21.71,9.43,1.15,0.58,2.54,
4.243,7.95,-21.71,9.43,1.28,0.15,2.64,
4.243,7.95,-21.71,9.43,2.74,-2.15,2.60,
4.244,7.95,-21.71,9.43,22.41,-15.47,0.42,
4.245,22.64,-32.81,47.71,22.41,-15.47,0.42,
4.246,22.64,-32.81,47.71,34.87,-13.93,-3.47,
4.246,22.64,-32.81,47.71,34.87,9.72,-4.71,
4.247,22.64,-32.81,47.71,20.58,4.37,-2.63,
4.247,22.64,-32.81,47.71,-7.78,-11.01,0.55,
4.248,22.64,-32.81,47.71,-19.06,-7.37,0.94,
4.249,-15.91,-71.21,-28.06,-19.06,-7.37,0.94,
4.249,-15.91,-71.21,-28.06,-15.04,-0.30,-0.20,
4.25,-15.91,-71.21,-28.06,-5.23,3.16,-0.99,
4.251,-15.91,-71.21,-28.06,-3.31,2.56,-0.69,
4.251,-15.91,-71.21,-28.06,-1.65,1.85,-0.10,
4.252,-15.91,-71.21,-28.06,-1.70,2.53,0.27,
4.253,-8.02,-5.01,45.68,-1.70,2.53,0.27,
4.253,-8.02,-5.01,45.68,-1.93,2.95,0.52,
4.253,-8.02,-5.01,45.68,-2.29,2.94,0.73,
4.254,-8.02,-5.01,45.68,-2.37,2.52,0.75,
4.254,-8.02,-5.01,45.68,-2.91,1.36,0.61,
4.255,-8.02,-5.01,45.68,-3.72,-0.53,0.24,
4.255,-6.12,-1.87,17.68,-3.72,-0.53,0.24,
4.256,-6.12,-1.87,17.68,-4.53,-2.45,-0.13,
4.263,-6.12,-1.87,17.68,-5.02,-4.66,-0.37,
4.264,-6.12,-1.87,17.68,-5.01,-5.05,-0.36,
4.264,-6.12,-1.87,17.68,-4.85,-4.99,-0.29,
4.265,-6.12,-1.87,17.68,-3.78,-3.26,-0.24,
4.265,-11.92,-1.54,40.53,-3.78,-3.26,-0.24,
4.266,-11.92,-1.54,40.53,-1.20,0.12,-0.32,
4.269,-11.92,-1.54,40.53,2.25,2.51,-0.71,
4.27,-11.92,-1.54,40.53,2.83,2.79,-0.84,
4.271,-11.92,-1.54,40.53,3.57,3.52,-0.93,
4.272,-11.92,-1.54,40.53,3.92,4.26,-0.79,
4.275,-9.79,-12.67,44.15,3.92,4.26,-0.79,
4.276,-9.79,-12.67,44.15,4.50,4.16,-0.50,
4.277,-9.79,-12.67,44.15,5.40,3.62,-0.15,
4.279,-9.79,-12.67,44.15,5.68,3.30,-0.08,
4.28,-9.79,-12.67,44.15,6.04,2.88,0.03,
4.285,-9.79,-12.67,44.15,6.29,2.55,0.12,
4.286,-4.50,-11.73,21.76,6.29,2.55,0.12,
4.286,-4.50,-11.73,21.76,6.43,2.33,0.18,
4.29,-4.50,-11.73,21.76,6.54,2.09,0.24,
4.291,-4.50,-11.73,21.76,6.56,2.04,0.26,
4.291,-4.50,-11.73,21.76,6.55,1.92,0.29,
4.291,-4.50,-11.73,21.76,6.35,1.04,0.31,
4.297,0.80,-10.60,-1.30,6.35,1.04,0.31,
4.297,0.80,-10.60,-1.30,4.33,-3.63,0.21,
4.299,0.80,-10.60,-1.30,-0.37,-12.43,-0.06,
4.299,0.80,-10.60,-1.30,-1.35,-13.10,-0.10,
4.3,0.80,-10.60,-1.30,-3.04,-10.86,-0.21,
4.304,0.80,-10.60,-1.30,-4.02,-4.01,-0.48,
4.305,7.09,-17.68,-52.89,-4.02,-4.01,-0.48,
4.305,7.09,-17.68,-52.89,-2.25,3.65,-0.67,
4.307,7.09,-17.68,-52.89,0.22,7.04,-0.69,
4.308,7.09,-17.68,-52.89,0.62,6.64,-0.67,
4.31,7.09,-17.68,-52.89,1.33,5.27,-0.57,
4.312,7.09,-17.68,-52.89,1.79,3.80,-0.43,
4.316,-0.24,-10.19,7.62,1.79,3.80,-0.43,
4.316,-0.24,-10.19,7.62,1.54,2.27,-0.31,
4.317,-0.24,-10.19,7.62,0.69,0.03,-0.25,
4.318,-0.24,-10.19,7.62,0.48,-0.40,-0.25,
4.32,-0.24,-10.19,7.62,0.24,-0.91,-0.24,
4.322,-0.24,-10.19,7.62,0.15,-1.16,-0.23,
4.324,-0.33,-7.19,0.90,0.15,-1.16,-0.23,
4.324,-0.33,-7.19,0.90,0.09,-1.24,-0.23,
4.327,-0.33,-7.19,0.90,0.06,-1.31,-0.22,
4.328,-0.33,-7.19,0.90,0.06,-1.31,-0.22,
4.33,-0.33,-7.19,0.90,0.07,-1.37,-0.23,
4.332,-0.33,-7.19,0.90,0.02,-1.36,-0.22,
4.334,-0.69,-5.58,6.40,0.02,-1.36,-0.22,
4.335,-0.69,-5.58,6.40,-0.03,-1.49,-0.22,
4.337,-0.69,-5.58,6.40,-0.36,-1.69,-0.22,
4.338,-0.69,-5.58,6.40,-0.53,-1.72,-0.22,
4.34,-0.69,-5.58,6.40,-0.97,-1.44,-0.22,
4.343,-0.69,-5.58,6.40,-1.28,-0.52,-0.23,
4.344,-0.52,-5.79,-8.84,-1.28,-0.52,-0.23,
4.345,-0.52,-5.79,-8.84,-1.13,-0.14,-0.23,
4.359,-0.52,-5.79,-8.84,0.13,0.61,-0.19,
4.361,-0.52,-5.79,-8.84,0.43,0.65,-0.17,
4.362,-0.52,-5.79,-8.84,0.60,0.47,-0.13,
4.363,-0.52,-5.79,-8.84,0.37,0.23,-0.11,
4.363,-0.70,-6.59,-4.77,0.37,0.23,-0.11,
4.364,-0.70,-6.59,-4.77,0.09,0.07,-0.10,
4.366,-0.70,-6.59,-4.77,-0.15,-0.08,-0.09,
4.369,-0.70,-6.59,-4.77,-0.18,-0.12,-0.08,
4.37,-0.70,-6.59,-4.77,-0.14,-0.19,-0.07,
4.37,-0.70,-6.59,-4.77,-0.08,-0.14,-0.05,
4.37,-0.66,-6.02,0.66,-0.08,-0.14,-0.05,
4.371,-0.66,-6.02,0.66,0.02,-0.08,-0.03,
4.371,-0.66,-6.02,0.66,0.06,0.08,-0.00,
4.371,-0.66,-6.02,0.66,0.07,0.08,0.00,
4.409,-0.66,-6.02,0.66,0.04,0.09,0.02,
4.409,-0.66,-6.02,0.66,0.02,0.02,0.03,
4.41,-0.48,-6.47,-1.24,0.02,0.02,0.03,
4.41,-0.48,-6.47,-1.24,-0.01,-0.01,0.04,
4.411,-0.48,-6.47,-1.24,0.00,-0.04,0.06,
4.412,-0.48,-6.47,-1.24,0.00,-0.01,0.06,
4.412,-0.48,-6.47,-1.24,0.01,0.02,0.07,
4.413,-0.48,-6.47,-1.24,0.02,0.02,0.08,
4.413,-0.35,-6.41,-0.55,0.02,0.02,0.08,
4.414,-0.35,-6.41,-0.55,0.01,0.03,0.08,
4.414,-0.35,-6.41,-0.55,0.01,0.02,0.09,
4.415,-0.35,-6.41,-0.55,0.01,0.02,0.09,
4.415,-0.35,-6.41,-0.55,0.01,0.00,0.09,
4.415,-0.35,-6.41,-0.55,0.00,0.02,0.09,
4.416,-0.09,-6.59,-0.64,0.00,0.02,0.09,
4.416,-0.09,-6.59,-0.64,0.02,0.00,0.08,
4.417,-0.09,-6.59,-0.64,0.01,0.02,0.08,
4.417,-0.09,-6.59,-0.64,0.01,0.01,0.07,
4.418,-0.09,-6.59,-0.64,-0.00,0.03,0.06,
4.418,-0.09,-6.59,-0.64,0.01,0.01,0.06,
4.418,0.06,-6.39,-0.46,0.01,0.01,0.06,
4.419,0.06,-6.39,-0.46,0.00,0.02,0.05,
4.419,0.06,-6.39,-0.46,0.02,0.01,0.05,
4.42,0.06,-6.39,-0.46,0.01,0.02,0.04,
4.42,0.06,-6.39,-0.46,0.01,0.01,0.03,
4.421,0.06,-6.39,-0.46,0.01,0.01,0.02,
4.421,0.14,-6.46,-0.60,0.01,0.01,0.02,
4.421,0.14,-6.46,-0.60,0.00,0.02,0.02,
4.422,0.14,-6.46,-0.60,0.00,0.03,0.01,
4.422,0.14,-6.46,-0.60,0.01,0.02,0.01,
4.423,0.14,-6.46,-0.60,0.01,0.01,0.00,
4.423,0.14,-6.46,-0.60,0.00,0.02,-0.00,
4.424,0.16,-6.35,-0.39,0.00,0.02,-0.00,
4.424,0.16,-6.35,-0.39,0.01,0.01,-0.01,
4.426,0.16,-6.35,-0.39,0.01,0.02,-0.01,
4.428,0.16,-6.35,-0.39,0.01,0.01,-0.01,
4.445,0.16,-6.35,-0.39,0.01,0.03,-0.01,
4.449,0.16,-6.35,-0.39,0.02,0.02,-0.01,
4.45,0.19,-6.43,-0.39,0.02,0.02,-0.01,
4.452,0.19,-6.43,-0.39,0.01,0.04,-0.02,
4.453,0.19,-6.43,-0.39,0.01,0.02,-0.02,
4.455,0.19,-6.43,-0.39,0.01,0.03,-0.02,
4.456,0.19,-6.43,-0.39,0.01,0.02,-0.03,
4.456,0.19,-6.43,-0.39,0.01,0.04,-0.03,
4.456,0.25,-6.22,-0.45,0.01,0.04,-0.03,
4.457,0.25,-6.22,-0.45,0.01,0.04,-0.03,
4.457,0.25,-6.22,-0.45,0.01,0.04,-0.03,
4.458,0.25,-6.22,-0.45,0.01,0.04,-0.03,
4.458,0.25,-6.22,-0.45,0.01,0.02,-0.03,
4.459,0.25,-6.22,-0.45,0.01,0.03,-0.02,
4.459,0.16,-6.22,-0.25,0.01,0.03,-0.02,
4.46,0.16,-6.22,-0.25,0.01,0.03,-0.02,
4.46,0.16,-6.22,-0.25,0.01,0.02,-0.01,
4.46,0.16,-6.22,-0.25,0.02,0.02,-0.01,
4.461,0.16,-6.22,-0.25,0.01,0.03,0.00,
4.464,0.16,-6.22,-0.25,0.01,0.02,0.01,
4.464,-0.11,-5.60,-0.30,0.01,0.02,0.01,
4.465,-0.11,-5.60,-0.30,0.00,0.03,0.03,
4.469,-0.11,-5.60,-0.30,-0.00,0.01,0.03,
4.47,-0.11,-5.60,-0.30,-0.00,0.02,0.03,
4.47,-0.11,-5.60,-0.30,0.00,0.03,0.03,
4.472,-0.11,-5.60,-0.30,0.01,0.04,0.04,
4.475,-0.50,-3.06,-0.14,0.01,0.04,0.04,
4.476,-0.50,-3.06,-0.14,0.02,0.04,0.03,
4.477,-0.50,-3.06,-0.14,0.02,0.04,0.03,
4.477,-0.50,-3.06,-0.14,0.02,0.04,0.03,
4.485,-0.50,-3.06,-0.14,0.02,0.03,0.04,
4.486,-0.50,-3.06,-0.14,0.01,0.04,0.04,
4.486,-0.44,-2.64,-0.16,0.01,0.04,0.04,
4.486,-0.44,-2.64,-0.16,0.02,0.03,0.04,
4.487,-0.44,-2.64,-0.16,0.02,0.03,0.04,
4.489,-0.44,-2.64,-0.16,0.02,0.03,0.04,
4.49,-0.44,-2.64,-0.16,0.02,0.06,0.04,
4.492,-0.44,-2.64,-0.16,0.02,0.05,0.04,
4.494,-0.32,-2.60,-0.22,0.02,0.05,0.04,
4.495,-0.32,-2.60,-0.22,0.02,0.05,0.04,
4.506,-0.32,-2.60,-0.22,0.02,0.03,0.04,
4.508,-0.32,-2.60,-0.22,0.02,0.04,0.04,
4.509,-0.32,-2.60,-0.22,0.02,0.05,0.04,
4.509,-0.32,-2.60,-0.22,0.02,0.06,0.04,
4.509,-0.22,-2.70,-0.16,0.02,0.06,0.04,
4.51,-0.22,-2.70,-0.16,0.02,0.05,0.04,
4.51,-0.22,-2.70,-0.16,0.01,0.05,0.04,
4.51,-0.22,-2.70,-0.16,0.01,0.05,0.03,
4.512,-0.22,-2.70,-0.16,0.01,0.06,0.03,
4.528,-0.22,-2.70,-0.16,0.01,0.07,0.03,
4.532,-0.11,-2.99,-0.20,0.01,0.07,0.03,
4.535,-0.11,-2.99,-0.20,0.02,0.06,0.03,
4.536,-0.11,-2.99,-0.20,0.02,0.06,0.03,
4.536,-0.11,-2.99,-0.20,0.02,0.06,0.03,
4.536,-0.11,-2.99,-0.20,0.01,0.06,0.03,
4.537,-0.11,-2.99,-0.20,0.01,0.06,0.03,
4.537,-0.11,-3.06,-0.25,0.01,0.06,0.03,
4.538,-0.11,-3.06,-0.25,0.01,0.07,0.03,
4.538,-0.11,-3.06,-0.25,0.01,0.07,0.02,
4.538,-0.11,-3.06,-0.25,0.01,0.07,0.02,
4.539,-0.11,-3.06,-0.25,0.01,0.06,0.02,
4.539,-0.11,-3.06,-0.25,0.01,0.06,0.02,
4.539,-0.31,-3.17,-0.14,0.01,0.06,0.02,
4.54,-0.31,-3.17,-0.14,0.01,0.06,0.02,
4.572,-0.31,-3.17,-0.14,0.01,0.06,0.02,
4.573,-0.31,-3.17,-0.14,0.00,0.06,0.02,
4.573,-0.31,-3.17,-0.14,0.00,0.06,0.02,
4.574,-0.31,-3.17,-0.14,0.01,0.06,0.02,
4.575,-0.40,-3.10,-0.09,0.01,0.06,0.02,
4.575,-0.40,-3.10,-0.09,0.01,0.06,0.02,
4.575,-0.40,-3.10,-0.09,0.00,0.06,0.01,
4.576,-0.40,-3.10,-0.09,0.00,0.05,0.01,
4.576,-0.40,-3.10,-0.09,0.00,0.06,0.01,
4.577,-0.40,-3.10,-0.09,0.01,0.05,0.01,
4.578,-0.43,-3.15,-0.01,0.01,0.05,0.01,
4.578,-0.43,-3.15,-0.01,0.00,0.05,0.01,
4.579,-0.43,-3.15,-0.01,0.01,0.05,0.01,
4.579,-0.43,-3.15,-0.01,0.00,0.05,0.01,
4.58,-0.43,-3.15,-0.01,0.00,0.05,0.01,
4.58,-0.43,-3.15,-0.01,0.00,0.05,0.01,
4.58,-0.26,-2.82,-0.07,0.00,0.05,0.01,
4.581,-0.26,-2.82,-0.07,0.00,0.05,0.01,
4.581,-0.26,-2.82,-0.07,0.00,0.05,0.00,
4.581,-0.26,-2.82,-0.07,0.00,0.05,0.00,
4.582,-0.26,-2.82,-0.07,0.00,0.05,0.00,
4.582,-0.26,-2.82,-0.07,-0.00,0.05,0.00,
4.582,-0.34,-2.91,-0.02,-0.00,0.05,0.00,
4.582,-0.34,-2.91,-0.02,-0.00,0.05,-0.00,
4.583,-0.34,-2.91,-0.02,0.00,0.05,0.00,
4.583,-0.34,-2.91,-0.02,0.00,0.05,0.00,
4.583,-0.34,-2.91,-0.02,0.00,0.05,-0.00,
4.583,-0.34,-2.91,-0.02,0.00,0.04,-0.00,
4.584,-0.52,-2.98,0.09,0.00,0.04,-0.00,
4.584,-0.52,-2.98,0.09,0.00,0.04,-0.00,
4.586,-0.52,-2.98,0.09,0.00,0.04,-0.00,
4.588,-0.52,-2.98,0.09,-0.00,0.04,-0.00,
4.59,-0.52,-2.98,0.09,-0.00,0.04,-0.00,
4.591,-0.52,-2.98,0.09,0.00,0.04,-0.01,
4.594,-0.59,-3.02,0.12,0.00,0.04,-0.01,
4.594,-0.59,-3.02,0.12,0.00,0.03,-0.01,
4.597,-0.59,-3.02,0.12,0.00,0.03,-0.01,
4.598,-0.59,-3.02,0.12,0.00,0.04,-0.01,
4.6,-0.59,-3.02,0.12,-0.00,0.04,-0.01,
4.603,-0.59,-3.02,0.12,0.00,0.03,-0.01,
4.604,-0.60,-2.89,0.01,0.00,0.03,-0.01,
4.604,-0.60,-2.89,0.01,0.00,0.02,-0.01,
4.607,-0.60,-2.89,0.01,0.00,0.02,-0.01,
4.608,-0.60,-2.89,0.01,-0.00,0.02,-0.01,
4.609,-0.60,-2.89,0.01,-0.00,0.02,-0.01,
4.623,-0.60,-2.89,0.01,0.00,0.02,-0.01,
4.625,-0.62,-2.91,0.07,0.00,0.02,-0.01,
4.625,-0.62,-2.91,0.07,-0.00,0.02,-0.01,
4.626,-0.62,-2.91,0.07,0.00,0.02,-0.01,
4.626,-0.62,-2.91,0.07,-0.00,0.02,-0.01,
4.626,-0.62,-2.91,0.07,-0.00,0.02,-0.01,
4.629,-0.62,-2.91,0.07,-0.00,0.02,-0.01,
4.63,-0.69,-2.89,0.17,-0.00,0.02,-0.01,
4.63,-0.69,-2.89,0.17,-0.00,0.02,-0.01,
4.63,-0.69,-2.89,0.17,0.00,0.01,-0.01,
4.631,-0.69,-2.89,0.17,0.00,0.01,-0.01,
4.631,-0.69,-2.89,0.17,0.00,0.01,-0.01,
4.647,-0.69,-2.89,0.17,0.00,0.01,-0.01,
4.648,-0.72,-2.90,0.07,0.00,0.01,-0.01,
4.648,-0.72,-2.90,0.07,-0.00,0.01,-0.01,
4.648,-0.72,-2.90,0.07,-0.00,0.01,-0.01,
4.649,-0.72,-2.90,0.07,-0.00,0.01,-0.01,
4.649,-0.72,-2.90,0.07,-0.00,0.01,-0.01,
4.649,-0.72,-2.90,0.07,-0.00,0.01,-0.01,
4.649,-0.70,-2.82,0.25,-0.00,0.01,-0.01,
4.649,-0.70,-2.82,0.25,0.00,0.01,-0.01,
4.65,-0.70,-2.82,0.25,-0.00,0.00,-0.01,
4.65,-0.70,-2.82,0.25,0.00,-0.00,-0.01,
4.652,-0.70,-2.82,0.25,-0.00,-0.00,-0.01,
4.654,-0.70,-2.82,0.25,0.00,0.01,-0.01,
4.655,-0.64,-2.77,0.26,0.00,0.01,-0.01,
4.658,-0.64,-2.77,0.26,0.00,0.01,-0.01,
4.658,-0.64,-2.77,0.26,0.00,-0.00,-0.01,
4.66,-0.64,-2.77,0.26,0.00,-0.01,-0.01,
4.66,-0.64,-2.77,0.26,0.00,-0.01,-0.01,
4.665,-0.64,-2.77,0.26,0.00,0.00,-0.01,
4.668,-0.48,-2.54,0.08,0.00,0.00,-0.01,
4.669,-0.48,-2.54,0.08,-0.00,0.01,-0.01,
4.669,-0.48,-2.54,0.08,-0.00,0.01,-0.01,
4.67,-0.48,-2.54,0.08,-0.00,0.00,-0.02,
4.67,-0.48,-2.54,0.08,-0.00,-0.00,-0.02,
4.672,-0.48,-2.54,0.08,-0.00,0.00,-0.02,
4.674,-0.47,-2.53,0.20,-0.00,0.00,-0.02,
4.675,-0.47,-2.53,0.20,-0.00,0.00,-0.01,
4.677,-0.47,-2.53,0.20,0.00,0.01,-0.01,
4.678,-0.47,-2.53,0.20,-0.00,0.01,-0.02,
4.685,-0.47,-2.53,0.20,0.00,0.01,-0.02,
4.688,-0.47,-2.53,0.20,-0.00,0.00,-0.02,
4.689,-0.56,-2.59,0.07,-0.00,0.00,-0.02,
4.69,-0.56,-2.59,0.07,-0.00,0.00,-0.02,
4.69,-0.56,-2.59,0.07,-0.00,0.00,-0.02,
4.691,-0.56,-2.59,0.07,-0.00,0.00,-0.02,
4.691,-0.56,-2.59,0.07,-0.00,0.00,-0.02,
4.693,-0.56,-2.59,0.07,0.00,0.00,-0.02,
4.696,-0.50,-2.79,0.18,0.00,0.00,-0.02,
4.696,-0.50,-2.79,0.18,0.00,0.00,-0.02,
4.699,-0.50,-2.79,0.18,-0.00,0.00,-0.01,
4.701,-0.50,-2.79,0.18,-0.00,0.00,-0.01,
4.701,-0.50,-2.79,0.18,-0.00,0.00,-0.01,
4.702,-0.50,-2.79,0.18,-0.00,0.00,-0.01,
4.73,-0.52,-2.78,0.22,-0.00,0.00,-0.01,
4.73,-0.52,-2.78,0.22,-0.00,0.00,-0.01,
4.731,-0.52,-2.78,0.22,-0.00,0.00,-0.01,
4.731,-0.52,-2.78,0.22,0.00,0.00,-0.01,
4.731,-0.52,-2.78,0.22,0.00,-0.00,-0.01,
4.732,-0.52,-2.78,0.22,0.00,0.00,-0.01,
4.732,-0.52,-2.78,0.22,0.00,0.00,-0.01,
4.732,-0.48,-2.76,0.21,0.00,0.00,-0.01,
4.733,-0.48,-2.76,0.21,-0.00,-0.00,-0.01,
4.733,-0.48,-2.76,0.21,-0.00,-0.00,-0.01,
4.733,-0.48,-2.76,0.21,0.00,-0.00,-0.01,
4.733,-0.48,-2.76,0.21,0.00,-0.01,-0.01,
4.734,-0.44,-2.74,0.27,0.00,-0.01,-0.01,
4.734,-0.44,-2.74,0.27,0.00,-0.01,-0.01,
4.734,-0.44,-2.74,0.27,0.00,-0.00,-0.01,
4.735,-0.44,-2.74,0.27,0.00,-0.00,-0.01,
4.735,-0.44,-2.74,0.27,0.00,-0.01,-0.01,
4.735,-0.44,-2.74,0.27,0.00,-0.00,-0.01,
4.735,-0.36,-2.80,0.18,0.00,-0.00,-0.01,
4.736,-0.36,-2.80,0.18,-0.00,-0.00,-0.00,
4.738,-0.36,-2.80,0.18,0.00,-0.05,0.00,
4.738,-0.36,-2.80,0.18,0.00,-0.11,-0.00,
4.74,-0.36,-2.80,0.18,0.00,-0.25,-0.01,
4.742,-0.36,-2.80,0.18,0.00,-0.32,-0.01,
4.744,-0.23,-2.26,3.00,0.00,-0.32,-0.01,
4.744,-0.23,-2.26,3.00,-0.07,-0.21,-0.03,
4.747,-0.23,-2.26,3.00,-0.42,0.51,-0.16,
4.748,-0.23,-2.26,3.00,-0.49,0.68,-0.24,
4.751,-0.23,-2.26,3.00,-0.38,0.64,-0.39,
4.752,-0.23,-2.26,3.00,-0.13,0.38,-0.56,
4.753,1.02,-0.90,3.08,-0.13,0.38,-0.56,
4.754,1.02,-0.90,3.08,0.13,-0.10,-0.68,
4.756,1.02,-0.90,3.08,0.36,-0.87,-0.72,
4.759,1.02,-0.90,3.08,0.34,-0.90,-0.73,
4.76,1.02,-0.90,3.08,0.21,-0.69,-0.73,
4.769,1.02,-0.90,3.08,0.07,-0.28,-0.70,
4.77,-0.44,-3.17,-3.24,0.07,-0.28,-0.70,
4.77,-0.44,-3.17,-3.24,0.00,0.06,-0.62,
4.77,-0.44,-3.17,-3.24,-0.02,0.17,-0.48,
4.771,-0.44,-3.17,-3.24,-0.03,0.18,-0.45,
4.771,-0.44,-3.17,-3.24,-0.06,0.18,-0.40,
4.774,-0.44,-3.17,-3.24,-0.05,0.17,-0.35,
4.779,-0.41,-3.16,-1.15,-0.05,0.17,-0.35,
4.78,-0.41,-3.16,-1.15,-0.01,0.08,-0.29,
4.78,-0.41,-3.16,-1.15,0.04,-0.03,-0.20,
4.78,-0.41,-3.16,-1.15,0.03,-0.04,-0.18,
4.78,-0.41,-3.16,-1.15,0.01,-0.02,-0.12,
4.79,-0.41,-3.16,-1.15,-0.00,0.02,-0.06,
4.791,0.13,-1.43,-0.39,-0.00,0.02,-0.06,
4.791,0.13,-1.43,-0.39,-0.00,0.05,-0.02,
4.792,0.13,-1.43,-0.39,0.01,0.06,-0.01,
4.792,0.13,-1.43,-0.39,0.00,0.07,-0.01,
4.792,0.13,-1.43,-0.39,-0.01,0.10,-0.01,
4.792,0.13,-1.43,-0.39,-0.02,0.11,-0.01,
4.795,0.37,-1.37,-0.16,-0.02,0.11,-0.01,
4.796,0.37,-1.37,-0.16,-0.02,0.08,-0.01,
4.802,0.37,-1.37,-0.16,0.00,0.02,-0.01,
4.804,0.37,-1.37,-0.16,0.01,0.02,-0.01,
4.805,0.37,-1.37,-0.16,0.02,0.01,-0.01,
4.805,0.37,-1.37,-0.16,0.02,-0.01,-0.00,
4.805,0.13,-1.73,0.46,0.02,-0.01,-0.00,
4.806,0.13,-1.73,0.46,0.02,-0.02,-0.00,
4.807,0.13,-1.73,0.46,-0.00,0.01,-0.01,
4.808,0.13,-1.73,0.46,-0.01,0.02,-0.01,
4.81,0.13,-1.73,0.46,-0.01,0.03,-0.01,
4.817,0.13,-1.73,0.46,-0.00,0.02,-0.01,
4.818,0.07,-1.75,0.71,-0.00,0.02,-0.01,
4.818,0.07,-1.75,0.71,0.00,-0.00,-0.01,
4.818,0.07,-1.75,0.71,0.01,-0.02,-0.00,
4.819,0.07,-1.75,0.71,0.01,-0.02,-0.01,
4.82,0.07,-1.75,0.71,0.01,-0.03,-0.00,
4.822,0.07,-1.75,0.71,0.02,-0.04,-0.00,
4.824,0.34,-1.47,0.66,0.02,-0.04,-0.00,
4.825,0.34,-1.47,0.66,0.02,-0.05,-0.00,
4.827,0.34,-1.47,0.66,0.02,-0.06,-0.00,
4.828,0.34,-1.47,0.66,0.02,-0.06,-0.00,
4.831,0.34,-1.47,0.66,0.03,-0.07,-0.01,
4.835,0.34,-1.47,0.66,0.03,-0.09,-0.01,
4.836,0.23,-1.65,0.36,0.03,-0.09,-0.01,
4.836,0.23,-1.65,0.36,0.03,-0.09,-0.01,
4.837,0.23,-1.65,0.36,0.02,-0.07,-0.02,
4.84,0.23,-1.65,0.36,0.02,-0.06,-0.02,
4.84,0.23,-1.65,0.36,0.02,-0.05,-0.03,
4.842,0.23,-1.65,0.36,0.02,-0.05,-0.04,
4.846,0.09,-1.57,0.41,0.02,-0.05,-0.04,
4.849,0.09,-1.57,0.41,0.03,-0.05,-0.04,
4.85,0.09,-1.57,0.41,0.03,-0.05,-0.05,
4.851,0.09,-1.57,0.41,0.03,-0.06,-0.05,
4.851,0.09,-1.57,0.41,0.03,-0.06,-0.05,
4.853,0.09,-1.57,0.41,0.02,-0.05,-0.06,
4.856,0.16,-1.74,0.24,0.02,-0.05,-0.06,
4.857,0.16,-1.74,0.24,0.02,-0.05,-0.06,
4.859,0.16,-1.74,0.24,0.01,-0.04,-0.05,
4.861,0.16,-1.74,0.24,0.00,-0.04,-0.05,
4.861,0.16,-1.74,0.24,-0.00,-0.03,-0.04,
4.863,0.16,-1.74,0.24,-0.00,-0.02,-0.03,
4.867,-0.20,-1.95,0.00,-0.00,-0.02,-0.03,
4.87,-0.20,-1.95,0.00,-0.00,-0.01,-0.02,
4.875,-0.20,-1.95,0.00,-0.00,-0.01,-0.01,
4.876,-0.20,-1.95,0.00,-0.00,-0.01,-0.01,
4.908,-0.20,-1.95,0.00,-0.01,-0.01,-0.01,
4.908,-0.20,-1.95,0.00,-0.01,-0.02,-0.01,
4.908,-0.02,-1.55,-0.01,-0.01,-0.02,-0.01,
4.909,-0.02,-1.55,-0.01,-0.01,-0.03,-0.01,
4.909,-0.02,-1.55,-0.01,-0.01,-0.05,-0.01,
4.91,-0.02,-1.55,-0.01,-0.01,-0.06,-0.01,
4.91,-0.02,-1.55,-0.01,-0.01,-0.05,-0.02,
4.911,-0.02,-1.55,-0.01,-0.01,-0.04,-0.01,
4.911,-0.10,-1.80,0.60,-0.01,-0.04,-0.01,
4.911,-0.10,-1.80,0.60,-0.01,-0.05,-0.01,
4.912,-0.10,-1.80,0.60,-0.00,-0.05,-0.02,
4.912,-0.10,-1.80,0.60,-0.00,-0.05,-0.02,
4.913,-0.10,-1.80,0.60,-0.00,-0.05,-0.02,
4.913,-0.10,-1.80,0.60,-0.00,-0.03,-0.02,
4.914,0.22,-1.93,0.33,-0.00,-0.03,-0.02,
4.914,0.22,-1.93,0.33,-0.00,-0.03,-0.02,
4.915,0.22,-1.93,0.33,-0.00,-0.02,-0.02,
4.915,0.22,-1.93,0.33,-0.00,-0.02,-0.02,
4.915,0.22,-1.93,0.33,-0.01,-0.02,-0.01,
4.916,0.22,-1.93,0.33,-0.01,-0.03,-0.01,
4.916,0.63,-1.70,0.16,-0.01,-0.03,-0.01,
4.917,0.63,-1.70,0.16,-0.01,-0.06,-0.01,
4.917,0.63,-1.70,0.16,-0.01,-0.03,-0.01,
4.917,0.63,-1.70,0.16,-0.01,-0.02,-0.01,
4.918,0.63,-1.70,0.16,-0.00,-0.00,-0.01,
4.918,0.63,-1.70,0.16,0.00,-0.00,-0.01,
4.919,0.17,-1.46,0.24,0.00,-0.00,-0.01,
4.919,0.17,-1.46,0.24,-0.00,-0.01,-0.00,
4.92,0.17,-1.46,0.24,-0.01,-0.03,-0.00,
4.92,0.17,-1.46,0.24,-0.01,-0.03,0.00,
