
time,ax,ay,az,wx,wy,wz,
0.007,1.47,-0.53,1.98,-0.33,-0.31,-0.21,
0.008,0.80,-0.51,0.49,-0.33,-0.31,-0.21,
0.008,0.80,-0.51,0.49,-0.36,-0.34,-0.20,
0.008,0.80,-0.51,0.49,-0.39,-0.38,-0.18,
0.009,0.80,-0.51,0.49,-0.45,-0.43,-0.13,
0.009,0.80,-0.51,0.49,-0.47,-0.45,-0.12,
0.009,0.80,-0.51,0.49,-0.51,-0.48,-0.08,
0.009,-0.38,-0.10,-0.75,-0.51,-0.48,-0.08,
0.01,-0.38,-0.10,-0.75,-0.54,-0.51,-0.04,
0.01,-0.38,-0.10,-0.75,-0.58,-0.52,0.02,
0.01,-0.38,-0.10,-0.75,-0.62,-0.54,0.10,
0.011,-0.38,-0.10,-0.75,-0.64,-0.55,0.13,
0.011,-0.38,-0.10,-0.75,-0.66,-0.57,0.17,
0.011,-1.46,0.00,-0.48,-0.66,-0.57,0.17,
0.012,-1.46,0.00,-0.48,-0.67,-0.58,0.21,
0.012,-1.46,0.00,-0.48,-0.66,-0.58,0.25,
0.026,-1.46,0.00,-0.48,-0.64,-0.56,0.29,
0.027,-1.46,0.00,-0.48,-0.63,-0.55,0.30,
0.027,-1.46,0.00,-0.48,-0.60,-0.52,0.32,
0.027,-0.91,0.15,1.22,-0.60,-0.52,0.32,
0.027,-0.91,0.15,1.22,-0.56,-0.49,0.33,
0.028,-0.91,0.15,1.22,-0.53,-0.46,0.34,
0.028,-0.91,0.15,1.22,-0.47,-0.42,0.34,
0.028,-0.91,0.15,1.22,-0.45,-0.40,0.34,
0.029,-0.91,0.15,1.22,-0.42,-0.37,0.33,
0.029,0.22,0.22,2.14,-0.42,-0.37,0.33,
0.029,0.22,0.22,2.14,-0.38,-0.34,0.32,
0.03,0.22,0.22,2.14,-0.35,-0.32,0.30,
0.062,0.22,0.22,2.14,-0.29,-0.28,0.27,
0.062,0.22,0.22,2.14,-0.28,-0.28,0.26,
0.063,0.22,0.22,2.14,-0.25,-0.26,0.23,
0.063,1.06,0.01,2.15,-0.25,-0.26,0.23,
0.063,1.06,0.01,2.15,-0.22,-0.24,0.20,
0.063,1.06,0.01,2.15,-0.19,-0.23,0.17,
0.064,1.06,0.01,2.15,-0.15,-0.21,0.13,
0.064,1.06,0.01,2.15,-0.14,-0.21,0.11,
0.064,1.06,0.01,2.15,-0.12,-0.19,0.08,
0.065,1.28,0.07,1.72,-0.12,-0.19,0.08,
0.065,1.28,0.07,1.72,-0.09,-0.15,0.02,
0.065,1.28,0.07,1.72,-0.07,-0.10,-0.02,
0.066,1.28,0.07,1.72,-0.07,-0.10,-0.02,
0.066,1.28,0.07,1.72,-0.06,-0.09,-0.03,
0.066,1.28,0.07,1.72,-0.06,-0.06,-0.05,
0.067,0.75,0.31,1.07,-0.06,-0.06,-0.05,
0.067,0.75,0.31,1.07,-0.06,-0.02,-0.07,
0.067,0.75,0.31,1.07,-0.06,0.01,-0.08,
0.068,0.75,0.31,1.07,-0.05,0.05,-0.10,
0.068,0.75,0.31,1.07,-0.05,0.06,-0.11,
0.068,0.75,0.31,1.07,-0.05,0.09,-0.12,
0.068,0.15,0.31,0.79,-0.05,0.09,-0.12,
0.069,0.15,0.31,0.79,-0.04,0.11,-0.12,
0.072,0.15,0.31,0.79,-0.03,0.14,-0.13,
0.085,0.15,0.31,0.79,-0.01,0.18,-0.14,
0.085,0.15,0.31,0.79,-0.01,0.19,-0.14,
0.086,0.15,0.31,0.79,0.00,0.22,-0.14,
0.086,-0.15,0.06,0.77,0.00,0.22,-0.14,
0.087,-0.15,0.06,0.77,0.01,0.26,-0.14,
0.088,-0.15,0.06,0.77,0.01,0.27,-0.14,
0.088,-0.15,0.06,0.77,0.02,0.31,-0.14,
0.089,-0.15,0.06,0.77,0.02,0.32,-0.13,
0.089,-0.15,0.06,0.77,0.03,0.34,-0.13,
0.09,-0.26,-0.12,0.45,0.03,0.34,-0.13,
0.09,-0.26,-0.12,0.45,0.03,0.36,-0.12,
0.091,-0.26,-0.12,0.45,0.03,0.37,-0.12,
0.093,-0.26,-0.12,0.45,0.03,0.39,-0.11,
0.094,-0.26,-0.12,0.45,0.03,0.40,-0.11,
0.096,-0.26,-0.12,0.45,0.03,0.40,-0.10,
0.098,-0.31,-0.11,0.06,0.03,0.40,-0.10,
0.099,-0.31,-0.11,0.06,0.03,0.40,-0.10,
0.1,-0.31,-0.11,0.06,0.02,0.40,-0.09,
0.103,-0.31,-0.11,0.06,0.02,0.41,-0.08,
0.104,-0.31,-0.11,0.06,0.02,0.41,-0.07,
0.106,-0.31,-0.11,0.06,0.03,0.43,-0.04,
0.108,-0.72,-0.25,0.16,0.03,0.43,-0.04,
0.109,-0.72,-0.25,0.16,0.03,0.44,-0.02,
0.11,-0.72,-0.25,0.16,0.03,0.44,0.01,
0.113,-0.72,-0.25,0.16,-0.01,0.42,0.04,
0.115,-0.72,-0.25,0.16,-0.03,0.40,0.04,
0.116,-0.72,-0.25,0.16,-0.07,0.38,0.04,
0.118,-0.64,-0.19,-1.14,-0.07,0.38,0.04,
0.118,-0.64,-0.19,-1.14,-0.11,0.35,0.05,
0.12,-0.64,-0.19,-1.14,-0.13,0.33,0.05,
0.123,-0.64,-0.19,-1.14,-0.16,0.28,0.06,
0.124,-0.64,-0.19,-1.14,-0.16,0.27,0.06,
0.125,-0.64,-0.19,-1.14,-0.16,0.24,0.07,
0.142,-0.23,-0.03,-0.83,-0.16,0.24,0.07,
0.144,-0.23,-0.03,-0.83,-0.16,0.21,0.07,
0.144,-0.23,-0.03,-0.83,-0.16,0.19,0.07,
0.144,-0.23,-0.03,-0.83,-0.16,0.15,0.07,
0.144,-0.23,-0.03,-0.83,-0.16,0.13,0.06,
0.145,-0.23,-0.03,-0.83,-0.16,0.11,0.06,
0.145,0.08,0.00,-0.44,-0.16,0.11,0.06,
0.145,0.08,0.00,-0.44,-0.16,0.08,0.05,
0.146,0.08,0.00,-0.44,-0.16,0.06,0.05,
0.146,0.08,0.00,-0.44,-0.14,0.02,0.04,
0.146,0.08,0.00,-0.44,-0.14,0.01,0.03,
0.147,0.08,0.00,-0.44,-0.13,-0.01,0.02,
0.149,0.15,-0.01,0.09,-0.13,-0.01,0.02,
0.149,0.15,-0.01,0.09,-0.11,-0.03,0.02,
0.15,0.15,-0.01,0.09,-0.09,-0.05,0.01,
0.153,0.15,-0.01,0.09,-0.05,-0.07,-0.00,
0.154,0.15,-0.01,0.09,-0.04,-0.08,-0.01,
0.158,0.15,-0.01,0.09,-0.01,-0.09,-0.01,
0.159,0.17,0.02,0.60,-0.01,-0.09,-0.01,
0.16,0.17,0.02,0.60,0.01,-0.09,-0.02,
0.16,0.17,0.02,0.60,0.03,-0.10,-0.03,
0.169,0.17,0.02,0.60,0.06,-0.10,-0.04,
0.17,0.17,0.02,0.60,0.07,-0.09,-0.04,
0.171,0.17,0.02,0.60,0.08,-0.09,-0.04,
0.171,0.20,-0.07,0.50,0.08,-0.09,-0.04,
0.173,0.20,-0.07,0.50,0.09,-0.08,-0.05,
0.174,0.20,-0.07,0.50,0.09,-0.07,-0.06,
0.175,0.20,-0.07,0.50,0.09,-0.06,-0.07,
0.176,0.20,-0.07,0.50,0.09,-0.06,-0.07,
0.177,0.20,-0.07,0.50,0.09,-0.05,-0.07,
0.18,0.16,-0.09,-0.05,0.09,-0.05,-0.07,
0.181,0.16,-0.09,-0.05,0.08,-0.04,-0.07,
0.181,0.16,-0.09,-0.05,0.07,-0.03,-0.08,
0.19,0.16,-0.09,-0.05,0.06,-0.01,-0.07,
0.191,0.16,-0.09,-0.05,0.05,0.00,-0.07,
0.192,0.16,-0.09,-0.05,0.05,0.01,-0.07,
0.192,-0.03,-0.08,-0.39,0.05,0.01,-0.07,
0.192,-0.03,-0.08,-0.39,0.03,0.02,-0.07,
0.193,-0.03,-0.08,-0.39,0.02,0.03,-0.06,
0.193,-0.03,-0.08,-0.39,0.00,0.05,-0.06,
0.194,-0.03,-0.08,-0.39,-0.00,0.05,-0.05,
0.197,-0.03,-0.08,-0.39,-0.01,0.06,-0.05,
0.198,-0.15,-0.13,-0.47,-0.01,0.06,-0.05,
0.198,-0.15,-0.13,-0.47,-0.03,0.07,-0.04,
0.2,-0.15,-0.13,-0.47,-0.03,0.07,-0.03,
0.203,-0.15,-0.13,-0.47,-0.05,0.07,-0.02,
0.204,-0.15,-0.13,-0.47,-0.05,0.07,-0.01,
0.206,-0.15,-0.13,-0.47,-0.06,0.07,-0.00,
0.208,-0.23,-0.18,-0.40,-0.06,0.07,-0.00,
0.208,-0.23,-0.18,-0.40,-0.06,0.06,0.01,
0.21,-0.23,-0.18,-0.40,-0.06,0.06,0.02,
0.213,-0.23,-0.18,-0.40,-0.07,0.04,0.03,
0.214,-0.23,-0.18,-0.40,-0.07,0.04,0.03,
0.216,-0.23,-0.18,-0.40,-0.07,0.03,0.03,
0.218,-0.21,-0.09,-0.16,-0.07,0.03,0.03,
0.218,-0.21,-0.09,-0.16,-0.07,0.02,0.04,
0.22,-0.21,-0.09,-0.16,-0.06,0.01,0.05,
0.223,-0.21,-0.09,-0.16,-0.06,-0.00,0.05,
0.224,-0.21,-0.09,-0.16,-0.06,-0.01,0.06,
0.226,-0.21,-0.09,-0.16,-0.05,-0.01,0.06,
0.228,-0.07,-0.02,0.03,-0.05,-0.01,0.06,
0.23,-0.07,-0.02,0.03,-0.04,-0.02,0.06,
0.231,-0.07,-0.02,0.03,-0.04,-0.03,0.06,
0.233,-0.07,-0.02,0.03,-0.03,-0.04,0.06,
0.234,-0.07,-0.02,0.03,-0.03,-0.04,0.06,
0.236,-0.07,-0.02,0.03,-0.02,-0.05,0.06,
0.238,0.24,-0.04,0.20,-0.02,-0.05,0.06,
0.272,0.24,-0.04,0.20,-0.01,-0.05,0.05,
0.273,0.24,-0.04,0.20,-0.01,-0.06,0.04,
0.274,0.24,-0.04,0.20,0.01,-0.06,0.03,
0.275,0.24,-0.04,0.20,0.01,-0.07,0.02,
0.276,0.24,-0.04,0.20,0.02,-0.07,0.01,
0.277,0.47,0.02,0.35,0.02,-0.07,0.01,
0.278,0.47,0.02,0.35,0.03,-0.08,0.00,
0.279,0.47,0.02,0.35,0.04,-0.09,-0.01,
0.28,0.47,0.02,0.35,0.05,-0.09,-0.02,
0.281,0.47,0.02,0.35,0.05,-0.09,-0.03,
0.282,0.47,0.02,0.35,0.06,-0.10,-0.04,
0.283,0.47,0.11,0.31,0.06,-0.10,-0.04,
0.284,0.47,0.11,0.31,0.06,-0.10,-0.04,
0.284,0.47,0.11,0.31,0.07,-0.10,-0.05,
0.285,0.47,0.11,0.31,0.06,-0.10,-0.05,
0.285,0.47,0.11,0.31,0.06,-0.10,-0.06,
0.286,0.47,0.11,0.31,0.06,-0.10,-0.06,
0.286,0.31,0.07,0.09,0.06,-0.10,-0.06,
0.287,0.31,0.07,0.09,0.06,-0.09,-0.06,
0.288,0.31,0.07,0.09,0.06,-0.09,-0.06,
0.288,0.31,0.07,0.09,0.05,-0.07,-0.06,
0.289,0.31,0.07,0.09,0.05,-0.07,-0.06,
0.289,0.31,0.07,0.09,0.04,-0.06,-0.07,
0.289,0.25,0.07,-0.08,0.04,-0.06,-0.07,
0.29,0.25,0.07,-0.08,0.04,-0.05,-0.07,
0.29,0.25,0.07,-0.08,0.03,-0.04,-0.07,
0.291,0.25,0.07,-0.08,0.02,-0.02,-0.07,
0.291,0.25,0.07,-0.08,0.02,-0.02,-0.08,
0.291,0.25,0.07,-0.08,0.01,-0.00,-0.08,
0.292,0.24,0.17,-0.14,0.01,-0.00,-0.08,
0.292,0.24,0.17,-0.14,0.01,0.01,-0.08,
0.292,0.24,0.17,-0.14,0.00,0.02,-0.08,
0.293,0.24,0.17,-0.14,-0.00,0.04,-0.09,
0.31,0.24,0.17,-0.14,-0.00,0.04,-0.09,
0.31,0.24,0.17,-0.14,-0.00,0.05,-0.10,
0.31,0.29,0.18,0.02,-0.00,0.05,-0.10,
0.311,0.29,0.18,0.02,-0.01,0.06,-0.10,
0.311,0.29,0.18,0.02,0.00,0.06,-0.11,
0.311,0.29,0.18,0.02,0.00,0.07,-0.11,
0.311,0.29,0.18,0.02,0.01,0.07,-0.11,
0.311,0.29,0.18,0.02,0.01,0.08,-0.12,
0.312,0.23,0.17,0.24,0.01,0.08,-0.12,
0.312,0.23,0.17,0.24,0.02,0.08,-0.12,
0.312,0.23,0.17,0.24,0.02,0.08,-0.11,
0.321,0.23,0.17,0.24,0.03,0.08,-0.12,
0.322,0.23,0.17,0.24,0.03,0.07,-0.12,
0.322,0.23,0.17,0.24,0.04,0.07,-0.12,
0.322,0.05,0.21,0.29,0.04,0.07,-0.12,
0.323,0.05,0.21,0.29,0.05,0.07,-0.12,
0.323,0.05,0.21,0.29,0.05,0.07,-0.12,
0.323,0.05,0.21,0.29,0.06,0.06,-0.11,
0.324,0.05,0.21,0.29,0.06,0.06,-0.11,
0.326,0.05,0.21,0.29,0.07,0.06,-0.10,
0.331,-0.07,0.18,0.29,0.07,0.06,-0.10,
0.331,-0.07,0.18,0.29,0.07,0.06,-0.10,
0.331,-0.07,0.18,0.29,0.07,0.06,-0.09,
0.333,-0.07,0.18,0.29,0.08,0.05,-0.08,
0.334,-0.07,0.18,0.29,0.08,0.05,-0.08,
0.336,-0.07,0.18,0.29,0.08,0.05,-0.07,
0.339,-0.08,0.12,0.14,0.08,0.05,-0.07,
0.34,-0.08,0.12,0.14,0.09,0.05,-0.07,
0.34,-0.08,0.12,0.14,0.09,0.04,-0.06,
0.346,-0.08,0.12,0.14,0.09,0.03,-0.04,
0.348,-0.08,0.12,0.14,0.09,0.03,-0.04,
0.348,-0.08,0.12,0.14,0.09,0.02,-0.03,
0.349,-0.20,0.12,-0.02,0.09,0.02,-0.03,
0.35,-0.20,0.12,-0.02,0.09,0.01,-0.03,
0.35,-0.20,0.12,-0.02,0.10,0.00,-0.02,
0.353,-0.20,0.12,-0.02,0.10,-0.01,-0.01,
0.354,-0.20,0.12,-0.02,0.10,-0.02,-0.00,
0.356,-0.20,0.12,-0.02,0.10,-0.03,0.00,
0.358,-0.23,0.18,-0.11,0.10,-0.03,0.00,
0.359,-0.23,0.18,-0.11,0.10,-0.05,0.01,
0.364,-0.23,0.18,-0.11,0.11,-0.06,0.01,
0.365,-0.23,0.18,-0.11,0.11,-0.08,0.02,
0.365,-0.23,0.18,-0.11,0.11,-0.08,0.02,
0.366,-0.23,0.18,-0.11,0.11,-0.09,0.03,
0.368,-0.13,0.18,-0.20,0.11,-0.09,0.03,
0.368,-0.13,0.18,-0.20,0.11,-0.10,0.03,
0.369,-0.13,0.18,-0.20,0.11,-0.11,0.03,
0.373,-0.13,0.18,-0.20,0.10,-0.12,0.03,
0.374,-0.13,0.18,-0.20,0.10,-0.12,0.03,
0.38,-0.13,0.18,-0.20,0.10,-0.12,0.03,
0.381,-0.03,0.17,-0.34,0.10,-0.12,0.03,
0.382,-0.03,0.17,-0.34,0.09,-0.12,0.03,
0.383,-0.03,0.17,-0.34,0.08,-0.13,0.02,
0.383,-0.03,0.17,-0.34,0.07,-0.13,0.02,
0.384,-0.03,0.17,-0.34,0.06,-0.12,0.02,
0.386,-0.03,0.17,-0.34,0.05,-0.12,0.01,
0.388,0.12,0.19,-0.47,0.05,-0.12,0.01,
0.389,0.12,0.19,-0.47,0.04,-0.12,0.01,
0.39,0.12,0.19,-0.47,0.04,-0.12,0.01,
0.406,0.12,0.19,-0.47,0.02,-0.12,-0.00,
0.407,0.12,0.19,-0.47,0.02,-0.12,-0.01,
0.408,0.12,0.19,-0.47,0.01,-0.12,-0.01,
0.409,0.23,0.23,-0.40,0.01,-0.12,-0.01,
0.409,0.23,0.23,-0.40,0.00,-0.12,-0.02,
0.411,0.23,0.23,-0.40,-0.00,-0.12,-0.02,
0.411,0.23,0.23,-0.40,-0.01,-0.12,-0.03,
0.412,0.23,0.23,-0.40,-0.01,-0.12,-0.03,
0.433,0.23,0.23,-0.40,-0.02,-0.12,-0.04,
0.434,0.18,0.18,-0.30,-0.02,-0.12,-0.04,
0.434,0.18,0.18,-0.30,-0.03,-0.12,-0.04,
0.435,0.18,0.18,-0.30,-0.04,-0.12,-0.04,
0.435,0.18,0.18,-0.30,-0.05,-0.11,-0.04,
0.435,0.18,0.18,-0.30,-0.05,-0.11,-0.04,
0.436,0.18,0.18,-0.30,-0.05,-0.10,-0.05,
0.436,0.07,0.20,-0.18,-0.05,-0.10,-0.05,
0.437,0.07,0.20,-0.18,-0.06,-0.09,-0.05,
0.437,0.07,0.20,-0.18,-0.06,-0.08,-0.05,
0.437,0.07,0.20,-0.18,-0.06,-0.06,-0.04,
0.438,0.07,0.20,-0.18,-0.06,-0.06,-0.04,
0.438,0.07,0.20,-0.18,-0.06,-0.04,-0.04,
0.439,-0.00,0.16,0.04,-0.06,-0.04,-0.04,
0.439,-0.00,0.16,0.04,-0.06,-0.02,-0.03,
0.44,-0.00,0.16,0.04,-0.05,-0.02,-0.03,
0.44,-0.00,0.16,0.04,-0.05,0.00,-0.02,
0.441,-0.00,0.16,0.04,-0.05,0.01,-0.02,
0.441,-0.00,0.16,0.04,-0.04,0.02,-0.02,
0.441,-0.03,0.07,0.26,-0.04,0.02,-0.02,
0.442,-0.03,0.07,0.26,-0.03,0.03,-0.01,
0.442,-0.03,0.07,0.26,-0.02,0.04,-0.01,
0.443,-0.03,0.07,0.26,-0.01,0.05,-0.00,
0.446,-0.03,0.07,0.26,-0.00,0.05,0.00,
0.447,-0.03,0.07,0.26,0.01,0.06,0.01,
0.448,-0.08,0.10,0.35,0.01,0.06,0.01,
0.448,-0.08,0.10,0.35,0.02,0.06,0.01,
0.45,-0.08,0.10,0.35,0.03,0.06,0.01,
0.453,-0.08,0.10,0.35,0.05,0.05,0.02,
0.454,-0.08,0.10,0.35,0.06,0.05,0.02,
0.456,-0.08,0.10,0.35,0.07,0.04,0.03,
0.458,-0.04,0.12,0.33,0.07,0.04,0.03,
0.458,-0.04,0.12,0.33,0.08,0.03,0.03,
0.461,-0.04,0.12,0.33,0.09,0.02,0.03,
0.463,-0.04,0.12,0.33,0.11,0.01,0.03,
0.464,-0.04,0.12,0.33,0.12,0.00,0.03,
0.466,-0.04,0.12,0.33,0.13,-0.01,0.04,
0.468,0.06,0.15,0.11,0.13,-0.01,0.04,
0.468,0.06,0.15,0.11,0.13,-0.02,0.04,
0.47,0.06,0.15,0.11,0.14,-0.02,0.03,
0.473,0.06,0.15,0.11,0.14,-0.04,0.03,
0.474,0.06,0.15,0.11,0.14,-0.05,0.03,
0.477,0.06,0.15,0.11,0.14,-0.06,0.02,
0.479,0.20,0.19,-0.19,0.14,-0.06,0.02,
0.479,0.20,0.19,-0.19,0.15,-0.07,0.02,
0.48,0.20,0.19,-0.19,0.15,-0.07,0.01,
0.483,0.20,0.19,-0.19,0.14,-0.08,0.01,
0.484,0.20,0.19,-0.19,0.14,-0.09,0.01,
0.486,0.20,0.19,-0.19,0.14,-0.09,-0.00,
0.488,0.33,0.18,-0.40,0.14,-0.09,-0.00,
0.488,0.33,0.18,-0.40,0.14,-0.10,-0.01,
0.49,0.33,0.18,-0.40,0.13,-0.11,-0.02,
0.495,0.33,0.18,-0.40,0.13,-0.11,-0.03,
0.495,0.33,0.18,-0.40,0.13,-0.11,-0.03,
0.496,0.33,0.18,-0.40,0.12,-0.11,-0.04,
0.498,0.44,0.15,-0.45,0.12,-0.11,-0.04,
0.499,0.44,0.15,-0.45,0.12,-0.12,-0.04,
0.5,0.44,0.15,-0.45,0.11,-0.12,-0.05,
0.503,0.44,0.15,-0.45,0.11,-0.12,-0.06,
0.504,0.44,0.15,-0.45,0.10,-0.12,-0.06,
0.508,0.44,0.15,-0.45,0.10,-0.11,-0.07,
0.508,0.43,0.10,-0.43,0.10,-0.11,-0.07,
0.509,0.43,0.10,-0.43,0.09,-0.11,-0.07,
0.511,0.43,0.10,-0.43,0.09,-0.11,-0.08,
0.513,0.43,0.10,-0.43,0.08,-0.11,-0.08,
0.514,0.43,0.10,-0.43,0.08,-0.11,-0.08,
0.516,0.43,0.10,-0.43,0.07,-0.11,-0.09,
0.518,0.39,0.02,-0.41,0.07,-0.11,-0.09,
0.519,0.39,0.02,-0.41,0.07,-0.11,-0.09,
0.52,0.39,0.02,-0.41,0.07,-0.11,-0.09,
0.523,0.39,0.02,-0.41,0.06,-0.10,-0.09,
0.524,0.39,0.02,-0.41,0.06,-0.10,-0.09,
0.528,0.39,0.02,-0.41,0.06,-0.09,-0.09,
0.529,0.32,0.00,-0.30,0.06,-0.09,-0.09,
0.53,0.32,0.00,-0.30,0.06,-0.09,-0.09,
0.53,0.32,0.00,-0.30,0.06,-0.09,-0.09,
0.533,0.32,0.00,-0.30,0.06,-0.08,-0.10,
0.534,0.32,0.00,-0.30,0.06,-0.09,-0.09,
0.536,0.32,0.00,-0.30,0.06,-0.08,-0.10,
0.538,0.31,-0.03,-0.18,0.06,-0.08,-0.10,
0.538,0.31,-0.03,-0.18,0.06,-0.08,-0.10,
0.54,0.31,-0.03,-0.18,0.06,-0.08,-0.10,
0.563,0.31,-0.03,-0.18,0.06,-0.08,-0.10,
0.565,0.31,-0.03,-0.18,0.07,-0.08,-0.10,
0.566,0.31,-0.03,-0.18,0.07,-0.08,-0.10,
0.566,0.34,-0.09,-0.15,0.07,-0.08,-0.10,
0.568,0.34,-0.09,-0.15,0.07,-0.08,-0.10,
0.568,0.34,-0.09,-0.15,0.07,-0.08,-0.10,
0.568,0.34,-0.09,-0.15,0.08,-0.07,-0.10,
0.569,0.34,-0.09,-0.15,0.08,-0.07,-0.11,
0.569,0.34,-0.09,-0.15,0.08,-0.07,-0.11,
0.569,0.43,-0.14,-0.14,0.08,-0.07,-0.11,
0.57,0.43,-0.14,-0.14,0.09,-0.06,-0.11,
0.57,0.43,-0.14,-0.14,0.09,-0.06,-0.12,
0.57,0.43,-0.14,-0.14,0.09,-0.06,-0.12,
0.571,0.43,-0.14,-0.14,0.09,-0.06,-0.12,
0.571,0.43,-0.14,-0.14,0.09,-0.05,-0.13,
0.571,0.51,-0.18,-0.15,0.09,-0.05,-0.13,
0.572,0.51,-0.18,-0.15,0.10,-0.05,-0.14,
0.572,0.51,-0.18,-0.15,0.09,-0.05,-0.14,
0.596,0.51,-0.18,-0.15,0.09,-0.05,-0.15,
0.596,0.51,-0.18,-0.15,0.09,-0.05,-0.15,
0.596,0.51,-0.18,-0.15,0.09,-0.05,-0.16,
0.596,0.57,-0.17,-0.27,0.09,-0.05,-0.16,
0.597,0.57,-0.17,-0.27,0.08,-0.05,-0.16,
0.597,0.57,-0.17,-0.27,0.08,-0.04,-0.17,
0.597,0.57,-0.17,-0.27,0.07,-0.04,-0.18,
0.598,0.57,-0.17,-0.27,0.06,-0.04,-0.18,
0.598,0.57,-0.17,-0.27,0.06,-0.04,-0.19,
0.598,0.57,-0.20,-0.40,0.06,-0.04,-0.19,
0.598,0.57,-0.20,-0.40,0.05,-0.04,-0.19,
0.599,0.57,-0.20,-0.40,0.04,-0.03,-0.20,
0.599,0.57,-0.20,-0.40,0.02,-0.02,-0.21,
0.599,0.57,-0.20,-0.40,0.02,-0.02,-0.21,
0.599,0.57,-0.20,-0.40,0.00,-0.02,-0.22,
0.6,0.53,-0.27,-0.45,0.00,-0.02,-0.22,
0.6,0.53,-0.27,-0.45,-0.01,-0.01,-0.22,
0.6,0.53,-0.27,-0.45,-0.02,-0.01,-0.22,
0.603,0.53,-0.27,-0.45,-0.03,-0.00,-0.23,
0.603,0.53,-0.27,-0.45,-0.04,0.00,-0.23,
0.606,0.53,-0.27,-0.45,-0.05,0.01,-0.23,
0.608,0.37,-0.30,-0.37,-0.05,0.01,-0.23,
0.608,0.37,-0.30,-0.37,-0.05,0.01,-0.23,
0.618,0.37,-0.30,-0.37,-0.06,0.01,-0.24,
0.619,0.37,-0.30,-0.37,-0.07,0.02,-0.24,
0.619,0.37,-0.30,-0.37,-0.07,0.02,-0.24,
0.62,0.37,-0.30,-0.37,-0.08,0.02,-0.24,
0.62,0.26,-0.29,-0.27,-0.08,0.02,-0.24,
0.62,0.26,-0.29,-0.27,-0.08,0.03,-0.24,
0.62,0.26,-0.29,-0.27,-0.08,0.03,-0.24,
0.625,0.26,-0.29,-0.27,-0.09,0.03,-0.24,
0.625,0.26,-0.29,-0.27,-0.09,0.03,-0.24,
0.633,0.26,-0.29,-0.27,-0.09,0.03,-0.23,
0.634,0.16,-0.31,-0.15,-0.09,0.03,-0.23,
0.635,0.16,-0.31,-0.15,-0.09,0.03,-0.23,
0.635,0.16,-0.31,-0.15,-0.08,0.03,-0.23,
0.635,0.16,-0.31,-0.15,-0.08,0.03,-0.23,
0.635,0.16,-0.31,-0.15,-0.08,0.03,-0.23,
0.636,0.16,-0.31,-0.15,-0.08,0.03,-0.22,
0.638,0.13,-0.30,-0.05,-0.08,0.03,-0.22,
0.638,0.13,-0.30,-0.05,-0.07,0.03,-0.22,
0.64,0.13,-0.30,-0.05,-0.06,0.03,-0.22,
0.646,0.13,-0.30,-0.05,-0.06,0.02,-0.22,
0.646,0.13,-0.30,-0.05,-0.05,0.02,-0.22,
0.647,0.13,-0.30,-0.05,-0.05,0.02,-0.21,
0.648,0.08,-0.24,0.01,-0.05,0.02,-0.21,
0.648,0.08,-0.24,0.01,-0.04,0.02,-0.21,
0.651,0.08,-0.24,0.01,-0.03,0.02,-0.21,
0.653,0.08,-0.24,0.01,-0.03,0.02,-0.20,
0.654,0.08,-0.24,0.01,-0.02,0.02,-0.20,
0.656,0.08,-0.24,0.01,-0.02,0.02,-0.20,
0.659,0.08,-0.24,-0.02,-0.02,0.02,-0.20,
0.66,0.08,-0.24,-0.02,-0.01,0.02,-0.20,
0.66,0.08,-0.24,-0.02,-0.01,0.01,-0.20,
0.663,0.08,-0.24,-0.02,-0.01,0.01,-0.19,
0.664,0.08,-0.24,-0.02,-0.00,0.01,-0.19,
0.667,0.08,-0.24,-0.02,0.00,0.01,-0.19,
0.668,0.17,-0.22,-0.09,0.00,0.01,-0.19,
0.668,0.17,-0.22,-0.09,0.00,0.01,-0.19,
0.67,0.17,-0.22,-0.09,0.01,0.00,-0.19,
0.673,0.17,-0.22,-0.09,0.01,-0.00,-0.19,
0.674,0.17,-0.22,-0.09,0.01,-0.01,-0.19,
0.684,0.17,-0.22,-0.09,0.01,-0.01,-0.19,
0.685,0.16,-0.14,-0.23,0.01,-0.01,-0.19,
0.686,0.16,-0.14,-0.23,0.01,-0.01,-0.19,
0.686,0.16,-0.14,-0.23,0.01,-0.02,-0.19,
0.687,0.16,-0.14,-0.23,0.00,-0.02,-0.19,
0.687,0.16,-0.14,-0.23,0.00,-0.03,-0.19,
0.687,0.16,-0.14,-0.23,-0.00,-0.03,-0.19,
0.688,0.16,-0.04,-0.35,-0.00,-0.03,-0.19,
0.688,0.16,-0.04,-0.35,-0.00,-0.04,-0.19,
0.69,0.16,-0.04,-0.35,-0.01,-0.05,-0.19,
0.698,0.16,-0.04,-0.35,-0.01,-0.06,-0.19,
0.699,0.16,-0.04,-0.35,-0.01,-0.06,-0.19,
0.7,0.16,-0.04,-0.35,-0.01,-0.07,-0.19,
0.7,0.23,-0.01,-0.32,-0.01,-0.07,-0.19,
0.7,0.23,-0.01,-0.32,-0.01,-0.07,-0.19,
0.701,0.23,-0.01,-0.32,-0.01,-0.08,-0.20,
0.703,0.23,-0.01,-0.32,-0.01,-0.09,-0.20,
0.704,0.23,-0.01,-0.32,-0.01,-0.09,-0.20,
0.706,0.23,-0.01,-0.32,-0.02,-0.09,-0.21,
0.709,0.26,0.02,-0.28,-0.02,-0.09,-0.21,
0.711,0.26,0.02,-0.28,-0.02,-0.09,-0.21,
0.712,0.26,0.02,-0.28,-0.03,-0.09,-0.21,
0.713,0.26,0.02,-0.28,-0.03,-0.09,-0.22,
0.714,0.26,0.02,-0.28,-0.03,-0.10,-0.22,
0.716,0.26,0.02,-0.28,-0.04,-0.10,-0.22,
0.718,0.28,0.07,-0.20,-0.04,-0.10,-0.22,
0.719,0.28,0.07,-0.20,-0.04,-0.09,-0.22,
0.72,0.28,0.07,-0.20,-0.04,-0.09,-0.23,
0.723,0.28,0.07,-0.20,-0.05,-0.10,-0.23,
0.725,0.28,0.07,-0.20,-0.05,-0.09,-0.23,
0.729,0.28,0.07,-0.20,-0.05,-0.09,-0.24,
0.732,0.20,0.07,-0.17,-0.05,-0.09,-0.24,
0.733,0.20,0.07,-0.17,-0.06,-0.09,-0.24,
0.733,0.20,0.07,-0.17,-0.06,-0.09,-0.24,
0.734,0.20,0.07,-0.17,-0.06,-0.08,-0.24,
0.734,0.20,0.07,-0.17,-0.06,-0.08,-0.24,
0.736,0.20,0.07,-0.17,-0.06,-0.08,-0.24,
0.738,0.13,0.11,-0.06,-0.06,-0.08,-0.24,
0.771,0.13,0.11,-0.06,-0.06,-0.07,-0.24,
0.772,0.13,0.11,-0.06,-0.06,-0.06,-0.24,
0.772,0.13,0.11,-0.06,-0.06,-0.06,-0.24,
0.772,0.13,0.11,-0.06,-0.05,-0.05,-0.24,
0.773,0.13,0.11,-0.06,-0.06,-0.05,-0.24,
0.773,0.11,0.09,0.02,-0.06,-0.05,-0.24,
0.773,0.11,0.09,0.02,-0.05,-0.04,-0.24,
0.773,0.11,0.09,0.02,-0.05,-0.04,-0.24,
0.774,0.11,0.09,0.02,-0.04,-0.04,-0.24,
0.774,0.11,0.09,0.02,-0.04,-0.04,-0.24,
0.774,0.11,0.09,0.02,-0.04,-0.04,-0.24,
0.774,0.12,0.01,0.02,-0.04,-0.04,-0.24,
0.775,0.12,0.01,0.02,-0.04,-0.04,-0.24,
0.775,0.12,0.01,0.02,-0.03,-0.04,-0.24,
0.775,0.12,0.01,0.02,-0.03,-0.04,-0.24,
0.776,0.12,0.01,0.02,-0.03,-0.04,-0.24,
0.776,0.12,0.01,0.02,-0.03,-0.04,-0.24,
0.776,0.08,0.03,-0.03,-0.03,-0.04,-0.24,
0.776,0.08,0.03,-0.03,-0.03,-0.04,-0.24,
0.777,0.08,0.03,-0.03,-0.03,-0.04,-0.24,
0.777,0.08,0.03,-0.03,-0.02,-0.04,-0.24,
0.777,0.08,0.03,-0.03,-0.02,-0.04,-0.24,
0.777,0.08,0.03,-0.03,-0.02,-0.04,-0.24,
0.778,0.05,0.02,-0.09,-0.02,-0.04,-0.24,
0.783,0.05,0.02,-0.09,-0.02,-0.04,-0.24,
0.783,0.05,0.02,-0.09,-0.03,-0.04,-0.24,
0.784,0.05,0.02,-0.09,-0.03,-0.04,-0.24,
0.784,0.05,0.02,-0.09,-0.03,-0.04,-0.24,
0.788,0.05,0.02,-0.09,-0.03,-0.03,-0.24,
0.789,0.05,0.02,-0.09,-0.03,-0.03,-0.24,
0.789,0.05,0.02,-0.09,-0.03,-0.03,-0.24,
0.789,0.05,0.02,-0.09,-0.03,-0.03,-0.24,
0.796,0.05,0.02,-0.09,-0.03,-0.03,-0.24,
0.797,0.05,0.02,-0.09,-0.03,-0.03,-0.24,
0.798,0.05,0.02,-0.09,-0.03,-0.03,-0.24,
0.798,0.09,0.04,-0.11,-0.03,-0.03,-0.24,
0.798,0.09,0.04,-0.11,-0.03,-0.03,-0.24,
0.802,0.09,0.04,-0.11,-0.03,-0.03,-0.25,
0.803,0.09,0.04,-0.11,-0.03,-0.03,-0.25,
0.806,0.09,0.04,-0.11,-0.04,-0.03,-0.25,
0.806,0.09,0.04,-0.11,-0.04,-0.03,-0.25,
0.816,0.12,0.08,-0.03,-0.04,-0.03,-0.25,
0.817,0.12,0.08,-0.03,-0.03,-0.03,-0.26,
0.817,0.12,0.08,-0.03,-0.03,-0.03,-0.26,
0.817,0.12,0.08,-0.03,-0.03,-0.03,-0.26,
0.818,0.12,0.08,-0.03,-0.03,-0.03,-0.27,
0.818,0.12,0.08,-0.03,-0.03,-0.03,-0.27,
0.818,0.17,0.06,0.11,-0.03,-0.03,-0.27,
0.818,0.17,0.06,0.11,-0.03,-0.02,-0.27,
0.823,0.17,0.06,0.11,-0.03,-0.02,-0.27,
0.823,0.17,0.06,0.11,-0.02,-0.02,-0.28,
0.841,0.17,0.06,0.11,-0.02,-0.02,-0.28,
0.846,0.17,0.06,0.11,-0.01,-0.02,-0.28,
0.847,0.24,0.03,0.29,-0.01,-0.02,-0.28,
0.85,0.24,0.03,0.29,-0.01,-0.02,-0.29,
0.851,0.24,0.03,0.29,-0.00,-0.02,-0.29,
0.851,0.24,0.03,0.29,0.00,-0.02,-0.30,
0.852,0.24,0.03,0.29,0.01,-0.02,-0.30,
0.854,0.24,0.03,0.29,0.01,-0.02,-0.30,
0.855,0.16,-0.01,0.38,0.01,-0.02,-0.30,
0.856,0.16,-0.01,0.38,0.02,-0.02,-0.30,
0.857,0.16,-0.01,0.38,0.03,-0.02,-0.30,
0.859,0.16,-0.01,0.38,0.04,-0.01,-0.30,
0.86,0.16,-0.01,0.38,0.04,-0.01,-0.30,
0.863,0.16,-0.01,0.38,0.05,-0.01,-0.31,
0.864,0.07,-0.01,0.42,0.05,-0.01,-0.31,
0.864,0.07,-0.01,0.42,0.06,-0.01,-0.30,
0.864,0.07,-0.01,0.42,0.06,-0.01,-0.31,
0.865,0.07,-0.01,0.42,0.08,-0.01,-0.30,
0.865,0.07,-0.01,0.42,0.08,-0.01,-0.30,
0.865,0.07,-0.01,0.42,0.08,-0.01,-0.30,
0.866,-0.05,-0.04,0.31,0.08,-0.01,-0.30,
0.866,-0.05,-0.04,0.31,0.08,-0.01,-0.30,
0.867,-0.05,-0.04,0.31,0.09,-0.01,-0.30,
0.867,-0.05,-0.04,0.31,0.09,-0.01,-0.30,
0.868,-0.05,-0.04,0.31,0.09,-0.01,-0.29,
0.868,-0.05,-0.04,0.31,0.09,-0.01,-0.29,
0.868,-0.12,-0.05,0.09,0.09,-0.01,-0.29,
0.869,-0.12,-0.05,0.09,0.09,-0.01,-0.29,
0.871,-0.12,-0.05,0.09,0.09,-0.02,-0.29,
0.873,-0.12,-0.05,0.09,0.08,-0.02,-0.29,
0.874,-0.12,-0.05,0.09,0.08,-0.02,-0.28,
0.881,-0.12,-0.05,0.09,0.07,-0.02,-0.28,
0.884,-0.11,-0.06,-0.15,0.07,-0.02,-0.28,
0.884,-0.11,-0.06,-0.15,0.07,-0.02,-0.28,
0.885,-0.11,-0.06,-0.15,0.06,-0.02,-0.28,
0.885,-0.11,-0.06,-0.15,0.05,-0.02,-0.28,
0.886,-0.11,-0.06,-0.15,0.04,-0.02,-0.28,
0.886,-0.11,-0.06,-0.15,0.04,-0.02,-0.28,
0.888,-0.04,-0.02,-0.36,0.04,-0.02,-0.28,
0.888,-0.04,-0.02,-0.36,0.03,-0.02,-0.28,
0.89,-0.04,-0.02,-0.36,0.02,-0.02,-0.28,
0.896,-0.04,-0.02,-0.36,0.00,-0.02,-0.29,
0.897,-0.04,-0.02,-0.36,-0.01,-0.02,-0.29,
0.898,-0.04,-0.02,-0.36,-0.01,-0.02,-0.29,
0.899,0.07,0.04,-0.45,-0.01,-0.02,-0.29,
0.9,0.07,0.04,-0.45,-0.02,-0.02,-0.30,
0.9,0.07,0.04,-0.45,-0.03,-0.02,-0.30,
0.903,0.07,0.04,-0.45,-0.05,-0.02,-0.31,
0.904,0.07,0.04,-0.45,-0.06,-0.02,-0.31,
0.933,0.07,0.04,-0.45,-0.06,-0.02,-0.32,
0.934,0.18,0.04,-0.43,-0.06,-0.02,-0.32,
0.934,0.18,0.04,-0.43,-0.07,-0.02,-0.32,
0.935,0.18,0.04,-0.43,-0.08,-0.02,-0.33,
0.935,0.18,0.04,-0.43,-0.08,-0.02,-0.33,
0.936,0.18,0.04,-0.43,-0.09,-0.02,-0.34,
0.936,0.18,0.04,-0.43,-0.09,-0.02,-0.34,
0.937,0.21,0.05,-0.23,-0.09,-0.02,-0.34,
0.937,0.21,0.05,-0.23,-0.08,-0.02,-0.35,
0.937,0.21,0.05,-0.23,-0.08,-0.02,-0.35,
0.938,0.21,0.05,-0.23,-0.08,-0.02,-0.35,
0.938,0.21,0.05,-0.23,-0.07,-0.02,-0.36,
0.939,0.21,0.05,-0.23,-0.07,-0.02,-0.36,
0.939,0.14,-0.02,0.04,-0.07,-0.02,-0.36,
0.94,0.14,-0.02,0.04,-0.07,-0.02,-0.36,
0.94,0.14,-0.02,0.04,-0.06,-0.02,-0.36,
0.94,0.14,-0.02,0.04,-0.05,-0.01,-0.36,
0.941,0.14,-0.02,0.04,-0.04,-0.01,-0.35,
0.941,0.14,-0.02,0.04,-0.04,-0.01,-0.35,
0.942,-0.03,-0.12,0.20,-0.04,-0.01,-0.35,
0.942,-0.03,-0.12,0.20,-0.03,-0.01,-0.35,
0.943,-0.03,-0.12,0.20,-0.02,-0.01,-0.34,
0.943,-0.03,-0.12,0.20,-0.00,-0.00,-0.34,
0.944,-0.03,-0.12,0.20,0.00,-0.00,-0.33,
0.948,-0.03,-0.12,0.20,0.01,-0.00,-0.32,
0.95,-0.20,-0.20,0.23,0.01,-0.00,-0.32,
0.95,-0.20,-0.20,0.23,0.02,-0.00,-0.32,
0.951,-0.20,-0.20,0.23,0.03,-0.00,-0.31,
0.955,-0.20,-0.20,0.23,0.03,-0.01,-0.30,
0.956,-0.20,-0.20,0.23,0.04,-0.01,-0.29,
0.956,-0.20,-0.20,0.23,0.04,-0.01,-0.28,
0.958,-0.35,-0.26,0.16,0.04,-0.01,-0.28,
0.959,-0.35,-0.26,0.16,0.05,-0.01,-0.27,
0.959,-0.35,-0.26,0.16,0.06,-0.02,-0.27,
0.963,-0.35,-0.26,0.16,0.07,-0.02,-0.25,
0.964,-0.35,-0.26,0.16,0.08,-0.03,-0.25,
0.965,-0.35,-0.26,0.16,0.08,-0.03,-0.25,
0.967,-0.38,-0.26,0.07,0.08,-0.03,-0.25,
0.968,-0.38,-0.26,0.07,0.09,-0.04,-0.24,
0.969,-0.38,-0.26,0.07,0.09,-0.04,-0.23,
0.972,-0.38,-0.26,0.07,0.10,-0.05,-0.22,
0.979,-0.38,-0.26,0.07,0.11,-0.06,-0.22,
0.98,-0.38,-0.26,0.07,0.11,-0.06,-0.22,
0.98,-0.34,-0.24,-0.07,0.11,-0.06,-0.22,
0.981,-0.34,-0.24,-0.07,0.11,-0.07,-0.21,
0.982,-0.34,-0.24,-0.07,0.11,-0.08,-0.21,
0.983,-0.34,-0.24,-0.07,0.10,-0.08,-0.21,
0.984,-0.34,-0.24,-0.07,0.10,-0.09,-0.21,
0.988,-0.34,-0.24,-0.07,0.10,-0.09,-0.21,
0.988,-0.21,-0.17,-0.31,0.10,-0.09,-0.21,
0.989,-0.21,-0.17,-0.31,0.09,-0.10,-0.21,
0.991,-0.21,-0.17,-0.31,0.09,-0.10,-0.21,
1.002,-0.21,-0.17,-0.31,0.08,-0.11,-0.21,
1.003,-0.21,-0.17,-0.31,0.07,-0.11,-0.21,
1.003,-0.21,-0.17,-0.31,0.07,-0.11,-0.21,
1.003,-0.11,-0.11,-0.42,0.07,-0.11,-0.21,
1.004,-0.11,-0.11,-0.42,0.06,-0.11,-0.22,
1.004,-0.11,-0.11,-0.42,0.05,-0.12,-0.22,
1.004,-0.11,-0.11,-0.42,0.04,-0.12,-0.22,
1.005,-0.11,-0.11,-0.42,0.04,-0.12,-0.23,
1.006,-0.11,-0.11,-0.42,0.03,-0.11,-0.23,
1.016,-0.01,-0.08,-0.41,0.03,-0.11,-0.23,
1.018,-0.01,-0.08,-0.41,0.03,-0.11,-0.23,
1.019,-0.01,-0.08,-0.41,0.02,-0.11,-0.24,
1.02,-0.01,-0.08,-0.41,0.01,-0.10,-0.24,
1.02,-0.01,-0.08,-0.41,0.01,-0.10,-0.25,
1.021,-0.01,-0.08,-0.41,0.01,-0.10,-0.25,
1.021,0.08,-0.05,-0.30,0.01,-0.10,-0.25,
1.021,0.08,-0.05,-0.30,0.00,-0.09,-0.26,
1.022,0.08,-0.05,-0.30,-0.00,-0.09,-0.26,
1.025,0.08,-0.05,-0.30,-0.00,-0.07,-0.27,
1.025,0.08,-0.05,-0.30,-0.00,-0.07,-0.28,
1.028,0.08,-0.05,-0.30,-0.00,-0.06,-0.28,
1.029,0.12,-0.03,-0.09,-0.00,-0.06,-0.28,
1.029,0.12,-0.03,-0.09,-0.00,-0.06,-0.29,
1.03,0.12,-0.03,-0.09,0.00,-0.05,-0.29,
1.033,0.12,-0.03,-0.09,0.00,-0.04,-0.30,
1.034,0.12,-0.03,-0.09,0.00,-0.03,-0.30,
1.036,0.12,-0.03,-0.09,0.00,-0.02,-0.31,
1.038,0.06,-0.07,0.02,0.00,-0.02,-0.31,
1.038,0.06,-0.07,0.02,0.01,-0.01,-0.31,
1.04,0.06,-0.07,0.02,0.01,-0.01,-0.31,
1.043,0.06,-0.07,0.02,0.01,-0.00,-0.31,
1.044,0.06,-0.07,0.02,0.01,0.00,-0.31,
1.046,0.06,-0.07,0.02,0.01,0.01,-0.31,
1.048,-0.11,-0.14,0.01,0.01,0.01,-0.31,
1.053,-0.11,-0.14,0.01,0.01,0.01,-0.30,
1.053,-0.11,-0.14,0.01,0.01,0.01,-0.30,
1.054,-0.11,-0.14,0.01,0.01,0.01,-0.30,
1.055,-0.11,-0.14,0.01,0.01,0.01,-0.30,
1.057,-0.11,-0.14,0.01,0.01,0.01,-0.29,
1.058,-0.23,-0.18,-0.06,0.01,0.01,-0.29,
1.059,-0.23,-0.18,-0.06,0.01,0.01,-0.29,
1.061,-0.23,-0.18,-0.06,0.01,0.01,-0.29,
1.063,-0.23,-0.18,-0.06,0.01,0.01,-0.28,
1.064,-0.23,-0.18,-0.06,0.01,0.00,-0.27,
1.066,-0.23,-0.18,-0.06,0.01,-0.01,-0.27,
1.068,-0.28,-0.17,-0.03,0.01,-0.01,-0.27,
1.07,-0.28,-0.17,-0.03,0.01,-0.02,-0.27,
1.07,-0.28,-0.17,-0.03,0.01,-0.02,-0.27,
1.103,-0.28,-0.17,-0.03,0.01,-0.03,-0.27,
1.104,-0.28,-0.17,-0.03,0.01,-0.03,-0.27,
1.104,-0.28,-0.17,-0.03,0.01,-0.04,-0.27,
1.104,-0.30,-0.17,-0.10,0.01,-0.04,-0.27,
1.105,-0.30,-0.17,-0.10,0.01,-0.05,-0.27,
1.105,-0.30,-0.17,-0.10,0.01,-0.06,-0.27,
1.106,-0.30,-0.17,-0.10,0.01,-0.06,-0.26,
1.106,-0.30,-0.17,-0.10,0.00,-0.07,-0.26,
1.107,-0.30,-0.17,-0.10,0.00,-0.08,-0.26,
1.107,-0.30,-0.15,-0.12,0.00,-0.08,-0.26,
1.108,-0.30,-0.15,-0.12,0.00,-0.08,-0.26,
1.108,-0.30,-0.15,-0.12,-0.00,-0.09,-0.25,
1.108,-0.30,-0.15,-0.12,-0.00,-0.09,-0.25,
1.109,-0.30,-0.15,-0.12,-0.00,-0.10,-0.26,
1.109,-0.30,-0.15,-0.12,-0.01,-0.10,-0.25,
1.11,-0.21,-0.10,-0.08,-0.01,-0.10,-0.25,
1.11,-0.21,-0.10,-0.08,-0.01,-0.10,-0.25,
1.111,-0.21,-0.10,-0.08,-0.01,-0.11,-0.26,
1.111,-0.21,-0.10,-0.08,-0.01,-0.11,-0.26,
1.111,-0.21,-0.10,-0.08,-0.01,-0.11,-0.26,
1.112,-0.21,-0.10,-0.08,-0.01,-0.12,-0.26,
1.112,-0.08,-0.06,0.05,-0.01,-0.12,-0.26,
1.113,-0.08,-0.06,0.05,-0.01,-0.12,-0.27,
1.113,-0.08,-0.06,0.05,-0.01,-0.12,-0.27,
1.114,-0.08,-0.06,0.05,-0.00,-0.11,-0.28,
1.114,-0.08,-0.06,0.05,0.00,-0.11,-0.28,
1.124,-0.08,-0.06,0.05,0.01,-0.10,-0.28,
1.124,-0.05,-0.06,0.25,0.01,-0.10,-0.28,
1.125,-0.05,-0.06,0.25,0.01,-0.10,-0.29,
1.125,-0.05,-0.06,0.25,0.01,-0.09,-0.29,
1.126,-0.05,-0.06,0.25,0.01,-0.08,-0.29,
1.126,-0.05,-0.06,0.25,0.02,-0.07,-0.30,
1.126,-0.05,-0.06,0.25,0.03,-0.06,-0.30,
1.129,0.01,-0.06,0.42,0.03,-0.06,-0.30,
1.13,0.01,-0.06,0.42,0.04,-0.05,-0.31,
1.13,0.01,-0.06,0.42,0.04,-0.05,-0.31,
1.133,0.01,-0.06,0.42,0.05,-0.04,-0.31,
1.134,0.01,-0.06,0.42,0.06,-0.03,-0.31,
1.136,0.01,-0.06,0.42,0.07,-0.02,-0.32,
1.14,-0.05,-0.08,0.50,0.07,-0.02,-0.32,
1.14,-0.05,-0.08,0.50,0.07,-0.01,-0.32,
1.141,-0.05,-0.08,0.50,0.08,-0.00,-0.32,
1.15,-0.05,-0.08,0.50,0.09,0.01,-0.32,
1.151,-0.05,-0.08,0.50,0.10,0.02,-0.32,
1.151,-0.05,-0.08,0.50,0.10,0.02,-0.32,
1.151,-0.06,-0.14,0.42,0.10,0.02,-0.32,
1.151,-0.06,-0.14,0.42,0.11,0.03,-0.32,
1.152,-0.06,-0.14,0.42,0.11,0.03,-0.32,
1.155,-0.06,-0.14,0.42,0.11,0.04,-0.32,
1.155,-0.06,-0.14,0.42,0.12,0.04,-0.32,
1.156,-0.06,-0.14,0.42,0.12,0.04,-0.31,
1.167,-0.17,-0.18,0.16,0.12,0.04,-0.31,
1.168,-0.17,-0.18,0.16,0.12,0.04,-0.31,
1.168,-0.17,-0.18,0.16,0.11,0.04,-0.30,
1.168,-0.17,-0.18,0.16,0.11,0.04,-0.30,
1.168,-0.17,-0.18,0.16,0.11,0.04,-0.30,
1.169,-0.17,-0.18,0.16,0.11,0.03,-0.29,
1.169,-0.24,-0.17,-0.16,0.11,0.03,-0.29,
1.171,-0.24,-0.17,-0.16,0.10,0.03,-0.29,
1.171,-0.24,-0.17,-0.16,0.09,0.02,-0.28,
1.177,-0.24,-0.17,-0.16,0.09,0.01,-0.28,
1.18,-0.24,-0.17,-0.16,0.09,0.01,-0.27,
1.18,-0.24,-0.17,-0.16,0.08,0.00,-0.27,
1.181,-0.29,-0.15,-0.33,0.08,0.00,-0.27,
1.181,-0.29,-0.15,-0.33,0.07,-0.01,-0.27,
1.182,-0.29,-0.15,-0.33,0.07,-0.01,-0.27,
1.184,-0.29,-0.15,-0.33,0.06,-0.02,-0.26,
1.185,-0.29,-0.15,-0.33,0.06,-0.03,-0.26,
1.187,-0.29,-0.15,-0.33,0.05,-0.04,-0.26,
1.188,-0.31,-0.08,-0.41,0.05,-0.04,-0.26,
1.189,-0.31,-0.08,-0.41,0.04,-0.05,-0.26,
1.19,-0.31,-0.08,-0.41,0.04,-0.05,-0.26,
1.194,-0.31,-0.08,-0.41,0.03,-0.06,-0.26,
1.196,-0.31,-0.08,-0.41,0.03,-0.06,-0.26,
1.197,-0.31,-0.08,-0.41,0.02,-0.07,-0.26,
1.198,-0.27,-0.01,-0.43,0.02,-0.07,-0.26,
1.2,-0.27,-0.01,-0.43,0.01,-0.07,-0.26,
1.201,-0.27,-0.01,-0.43,0.01,-0.08,-0.26,
1.203,-0.27,-0.01,-0.43,0.00,-0.08,-0.26,
1.204,-0.27,-0.01,-0.43,-0.00,-0.08,-0.26,
1.219,-0.27,-0.01,-0.43,-0.01,-0.08,-0.26,
1.222,-0.19,0.01,-0.28,-0.01,-0.08,-0.26,
1.222,-0.19,0.01,-0.28,-0.01,-0.08,-0.26,
1.223,-0.19,0.01,-0.28,-0.01,-0.08,-0.26,
1.224,-0.19,0.01,-0.28,-0.01,-0.07,-0.26,
1.225,-0.19,0.01,-0.28,-0.01,-0.07,-0.27,
1.226,-0.19,0.01,-0.28,-0.01,-0.07,-0.27,
1.229,-0.17,0.01,-0.07,-0.01,-0.07,-0.27,
1.229,-0.17,0.01,-0.07,-0.01,-0.06,-0.27,
1.23,-0.17,0.01,-0.07,-0.00,-0.06,-0.27,
1.23,-0.17,0.01,-0.07,-0.00,-0.05,-0.27,
1.23,-0.17,0.01,-0.07,0.00,-0.05,-0.28,
1.23,-0.17,0.01,-0.07,0.00,-0.04,-0.28,
1.23,-0.13,0.02,0.03,0.00,-0.04,-0.28,
1.231,-0.13,0.02,0.03,0.01,-0.04,-0.28,
1.231,-0.13,0.02,0.03,0.01,-0.03,-0.28,
1.242,-0.13,0.02,0.03,0.02,-0.03,-0.28,
1.244,-0.13,0.02,0.03,0.02,-0.03,-0.29,
1.244,-0.13,0.02,0.03,0.03,-0.03,-0.29,
1.244,-0.11,-0.00,0.06,0.03,-0.03,-0.29,
1.281,-0.11,-0.00,0.06,0.03,-0.02,-0.29,
1.282,-0.11,-0.00,0.06,0.04,-0.02,-0.29,
1.282,-0.11,-0.00,0.06,0.04,-0.02,-0.29,
1.283,-0.11,-0.00,0.06,0.04,-0.02,-0.29,
1.283,-0.11,-0.00,0.06,0.05,-0.02,-0.30,
1.283,-0.12,-0.04,-0.05,0.05,-0.02,-0.30,
1.284,-0.12,-0.04,-0.05,0.05,-0.03,-0.30,
1.284,-0.12,-0.04,-0.05,0.06,-0.03,-0.30,
1.285,-0.12,-0.04,-0.05,0.06,-0.04,-0.30,
1.285,-0.12,-0.04,-0.05,0.06,-0.05,-0.30,
1.286,-0.12,-0.04,-0.05,0.06,-0.06,-0.30,
1.286,-0.19,-0.05,-0.23,0.06,-0.06,-0.30,
1.286,-0.19,-0.05,-0.23,0.06,-0.07,-0.30,
1.287,-0.19,-0.05,-0.23,0.06,-0.08,-0.30,
1.287,-0.19,-0.05,-0.23,0.07,-0.09,-0.30,
1.288,-0.19,-0.05,-0.23,0.07,-0.10,-0.30,
1.288,-0.19,-0.05,-0.23,0.07,-0.11,-0.30,
1.289,-0.30,-0.06,-0.35,0.07,-0.11,-0.30,
1.289,-0.30,-0.06,-0.35,0.07,-0.12,-0.29,
1.289,-0.30,-0.06,-0.35,0.07,-0.14,-0.29,
1.29,-0.30,-0.06,-0.35,0.07,-0.15,-0.29,
1.29,-0.30,-0.06,-0.35,0.07,-0.16,-0.29,
1.291,-0.30,-0.06,-0.35,0.07,-0.17,-0.29,
1.291,-0.39,-0.05,-0.45,0.07,-0.17,-0.29,
1.292,-0.39,-0.05,-0.45,0.07,-0.18,-0.29,
1.292,-0.39,-0.05,-0.45,0.06,-0.19,-0.28,
1.292,-0.39,-0.05,-0.45,0.06,-0.21,-0.29,
1.293,-0.39,-0.05,-0.45,0.06,-0.22,-0.28,
1.293,-0.39,-0.05,-0.45,0.05,-0.23,-0.28,
1.294,-0.41,-0.06,-0.54,0.05,-0.23,-0.28,
1.294,-0.41,-0.06,-0.54,0.05,-0.24,-0.28,
1.295,-0.41,-0.06,-0.54,0.05,-0.25,-0.29,
1.295,-0.41,-0.06,-0.54,0.04,-0.27,-0.29,
1.296,-0.41,-0.06,-0.54,0.04,-0.28,-0.29,
1.296,-0.41,-0.06,-0.54,0.03,-0.28,-0.29,
1.299,-0.40,-0.02,-0.56,0.03,-0.28,-0.29,
1.301,-0.40,-0.02,-0.56,0.02,-0.29,-0.29,
1.301,-0.40,-0.02,-0.56,0.02,-0.30,-0.29,
1.303,-0.40,-0.02,-0.56,0.01,-0.30,-0.29,
1.304,-0.40,-0.02,-0.56,0.01,-0.31,-0.30,
1.316,-0.40,-0.02,-0.56,0.00,-0.31,-0.30,
1.319,-0.39,0.00,-0.46,0.00,-0.31,-0.30,
1.32,-0.39,0.00,-0.46,-0.00,-0.32,-0.30,
1.321,-0.39,0.00,-0.46,-0.01,-0.32,-0.30,
1.322,-0.39,0.00,-0.46,-0.01,-0.33,-0.31,
1.323,-0.39,0.00,-0.46,-0.01,-0.33,-0.31,
1.328,-0.39,0.00,-0.46,-0.01,-0.34,-0.31,
1.329,-0.43,0.01,-0.15,-0.01,-0.34,-0.31,
1.33,-0.43,0.01,-0.15,-0.01,-0.34,-0.31,
1.33,-0.43,0.01,-0.15,-0.01,-0.34,-0.32,
1.331,-0.43,0.01,-0.15,0.01,-0.34,-0.32,
1.331,-0.43,0.01,-0.15,0.01,-0.34,-0.32,
1.332,-0.43,0.01,-0.15,0.02,-0.33,-0.32,
1.332,-0.43,-0.04,0.23,0.02,-0.33,-0.32,
1.332,-0.43,-0.04,0.23,0.02,-0.32,-0.32,
1.333,-0.43,-0.04,0.23,0.03,-0.31,-0.32,
1.333,-0.43,-0.04,0.23,0.04,-0.30,-0.32,
1.334,-0.43,-0.04,0.23,0.04,-0.29,-0.32,
1.337,-0.43,-0.04,0.23,0.04,-0.28,-0.32,
1.34,-0.36,-0.14,0.26,0.04,-0.28,-0.32,
1.341,-0.36,-0.14,0.26,0.04,-0.26,-0.32,
1.342,-0.36,-0.14,0.26,0.05,-0.24,-0.31,
1.345,-0.36,-0.14,0.26,0.04,-0.21,-0.31,
1.346,-0.36,-0.14,0.26,0.04,-0.20,-0.31,
1.347,-0.36,-0.14,0.26,0.04,-0.19,-0.30,
1.348,-0.35,-0.23,0.08,0.04,-0.19,-0.30,
1.349,-0.35,-0.23,0.08,0.03,-0.17,-0.30,
1.35,-0.35,-0.23,0.08,0.03,-0.15,-0.29,
1.353,-0.35,-0.23,0.08,0.02,-0.12,-0.29,
1.354,-0.35,-0.23,0.08,0.02,-0.11,-0.29,
1.359,-0.35,-0.23,0.08,0.01,-0.10,-0.28,
1.361,-0.38,-0.25,-0.17,0.01,-0.10,-0.28,
1.362,-0.38,-0.25,-0.17,0.01,-0.08,-0.28,
1.362,-0.38,-0.25,-0.17,-0.00,-0.07,-0.27,
1.363,-0.38,-0.25,-0.17,-0.02,-0.05,-0.27,
1.364,-0.38,-0.25,-0.17,-0.02,-0.04,-0.27,
1.366,-0.38,-0.25,-0.17,-0.03,-0.03,-0.27,
1.368,-0.41,-0.19,-0.43,-0.03,-0.03,-0.27,
1.368,-0.41,-0.19,-0.43,-0.04,-0.02,-0.26,
1.369,-0.41,-0.19,-0.43,-0.06,-0.01,-0.26,
1.383,-0.41,-0.19,-0.43,-0.07,-0.01,-0.26,
1.385,-0.41,-0.19,-0.43,-0.08,-0.00,-0.26,
1.385,-0.41,-0.19,-0.43,-0.09,-0.00,-0.26,
1.386,-0.44,-0.13,-0.59,-0.09,-0.00,-0.26,
1.387,-0.44,-0.13,-0.59,-0.10,0.00,-0.26,
1.387,-0.44,-0.13,-0.59,-0.11,-0.01,-0.26,
1.388,-0.44,-0.13,-0.59,-0.13,-0.02,-0.26,
1.388,-0.44,-0.13,-0.59,-0.14,-0.02,-0.26,
1.388,-0.44,-0.13,-0.59,-0.14,-0.04,-0.26,
1.389,-0.47,-0.08,-0.57,-0.14,-0.04,-0.26,
1.4,-0.47,-0.08,-0.57,-0.15,-0.05,-0.26,
1.4,-0.47,-0.08,-0.57,-0.16,-0.07,-0.26,
1.4,-0.47,-0.08,-0.57,-0.16,-0.10,-0.26,
1.401,-0.47,-0.08,-0.57,-0.17,-0.11,-0.26,
1.401,-0.47,-0.08,-0.57,-0.17,-0.14,-0.26,
1.401,-0.58,0.04,-0.37,-0.17,-0.14,-0.26,
1.402,-0.58,0.04,-0.37,-0.17,-0.16,-0.26,
1.402,-0.58,0.04,-0.37,-0.16,-0.18,-0.27,
1.403,-0.58,0.04,-0.37,-0.16,-0.22,-0.27,
1.404,-0.58,0.04,-0.37,-0.16,-0.23,-0.27,
1.433,-0.58,0.04,-0.37,-0.15,-0.25,-0.27,
1.434,-0.58,0.16,-0.01,-0.15,-0.25,-0.27,
1.434,-0.58,0.16,-0.01,-0.14,-0.26,-0.28,
1.435,-0.58,0.16,-0.01,-0.13,-0.28,-0.28,
1.435,-0.58,0.16,-0.01,-0.11,-0.31,-0.28,
1.436,-0.58,0.16,-0.01,-0.11,-0.32,-0.28,
1.436,-0.58,0.16,-0.01,-0.09,-0.34,-0.29,
1.437,-0.48,0.18,0.36,-0.09,-0.34,-0.29,
1.437,-0.48,0.18,0.36,-0.08,-0.35,-0.29,
1.437,-0.48,0.18,0.36,-0.06,-0.37,-0.29,
1.438,-0.48,0.18,0.36,-0.03,-0.39,-0.29,
1.438,-0.48,0.18,0.36,-0.02,-0.39,-0.30,
1.439,-0.48,0.18,0.36,-0.00,-0.41,-0.30,
1.439,-0.32,0.11,0.66,-0.00,-0.41,-0.30,
1.44,-0.32,0.11,0.66,0.02,-0.41,-0.30,
1.44,-0.32,0.11,0.66,0.04,-0.42,-0.31,
1.441,-0.32,0.11,0.66,0.07,-0.43,-0.32,
1.441,-0.32,0.11,0.66,0.08,-0.44,-0.32,
1.441,-0.32,0.11,0.66,0.10,-0.45,-0.32,
1.442,-0.24,0.09,0.81,0.10,-0.45,-0.32,
1.442,-0.24,0.09,0.81,0.13,-0.45,-0.32,
1.443,-0.24,0.09,0.81,0.15,-0.46,-0.33,
1.443,-0.24,0.09,0.81,0.17,-0.46,-0.33,
1.444,-0.24,0.09,0.81,0.18,-0.47,-0.33,
1.446,-0.24,0.09,0.81,0.20,-0.47,-0.33,
1.448,-0.17,0.10,0.64,0.20,-0.47,-0.33,
1.448,-0.17,0.10,0.64,0.21,-0.47,-0.34,
1.45,-0.17,0.10,0.64,0.22,-0.47,-0.34,
1.453,-0.17,0.10,0.64,0.24,-0.46,-0.34,
1.454,-0.17,0.10,0.64,0.24,-0.46,-0.34,
1.46,-0.17,0.10,0.64,0.24,-0.45,-0.34,
1.461,-0.22,0.04,0.21,0.24,-0.45,-0.34,
1.461,-0.22,0.04,0.21,0.24,-0.44,-0.34,
1.463,-0.22,0.04,0.21,0.24,-0.43,-0.34,
1.463,-0.22,0.04,0.21,0.23,-0.40,-0.34,
1.464,-0.22,0.04,0.21,0.23,-0.39,-0.34,
1.466,-0.22,0.04,0.21,0.22,-0.38,-0.33,
1.468,-0.28,0.05,-0.28,0.22,-0.38,-0.33,
1.468,-0.28,0.05,-0.28,0.21,-0.35,-0.33,
1.47,-0.28,0.05,-0.28,0.20,-0.32,-0.33,
1.473,-0.28,0.05,-0.28,0.17,-0.28,-0.32,
1.474,-0.28,0.05,-0.28,0.16,-0.27,-0.32,
1.476,-0.28,0.05,-0.28,0.15,-0.24,-0.32,
1.478,-0.34,0.11,-0.71,0.15,-0.24,-0.32,
1.479,-0.34,0.11,-0.71,0.11,-0.19,-0.31,
1.48,-0.34,0.11,-0.71,0.11,-0.17,-0.31,
1.483,-0.34,0.11,-0.71,0.07,-0.12,-0.31,
1.485,-0.34,0.11,-0.71,0.06,-0.11,-0.31,
1.486,-0.34,0.11,-0.71,0.04,-0.07,-0.31,
1.501,-0.32,0.09,-0.94,0.04,-0.07,-0.31,
1.502,-0.32,0.09,-0.94,0.02,-0.04,-0.31,
1.503,-0.32,0.09,-0.94,-0.00,-0.01,-0.31,
1.503,-0.32,0.09,-0.94,-0.04,0.03,-0.31,
1.504,-0.32,0.09,-0.94,-0.04,0.04,-0.31,
1.504,-0.32,0.09,-0.94,-0.06,0.06,-0.31,
1.505,-0.27,0.09,-0.96,-0.06,0.06,-0.31,
1.505,-0.27,0.09,-0.96,-0.07,0.08,-0.32,
1.505,-0.27,0.09,-0.96,-0.09,0.10,-0.32,
1.508,-0.27,0.09,-0.96,-0.11,0.12,-0.32,
1.511,-0.27,0.09,-0.96,-0.11,0.12,-0.32,
1.512,-0.27,0.09,-0.96,-0.12,0.12,-0.33,
1.513,-0.19,0.10,-0.81,-0.12,0.12,-0.33,
1.514,-0.19,0.10,-0.81,-0.13,0.12,-0.34,
1.515,-0.19,0.10,-0.81,-0.13,0.12,-0.35,
1.515,-0.19,0.10,-0.81,-0.14,0.11,-0.36,
1.516,-0.19,0.10,-0.81,-0.14,0.10,-0.36,
1.516,-0.19,0.10,-0.81,-0.14,0.09,-0.37,
1.531,-0.11,0.15,-0.64,-0.14,0.09,-0.37,
1.534,-0.11,0.15,-0.64,-0.14,0.07,-0.38,
1.535,-0.11,0.15,-0.64,-0.13,0.05,-0.40,
1.535,-0.11,0.15,-0.64,-0.12,0.01,-0.42,
1.536,-0.11,0.15,-0.64,-0.12,0.00,-0.42,
1.536,-0.11,0.15,-0.64,-0.11,-0.02,-0.43,
1.537,-0.02,0.15,-0.44,-0.11,-0.02,-0.43,
1.538,-0.02,0.15,-0.44,-0.10,-0.05,-0.45,
1.539,-0.02,0.15,-0.44,-0.09,-0.08,-0.46,
1.541,-0.02,0.15,-0.44,-0.08,-0.12,-0.48,
1.542,-0.02,0.15,-0.44,-0.07,-0.13,-0.48,
1.543,-0.02,0.15,-0.44,-0.06,-0.16,-0.50,
1.544,0.04,0.14,-0.34,-0.06,-0.16,-0.50,
1.545,0.04,0.14,-0.34,-0.05,-0.19,-0.51,
1.546,0.04,0.14,-0.34,-0.03,-0.22,-0.52,
1.546,0.04,0.14,-0.34,-0.02,-0.26,-0.53,
1.547,0.04,0.14,-0.34,-0.01,-0.27,-0.54,
1.547,0.04,0.14,-0.34,0.00,-0.30,-0.55,
1.548,0.03,0.05,-0.27,0.00,-0.30,-0.55,
1.548,0.03,0.05,-0.27,0.01,-0.33,-0.55,
1.551,0.03,0.05,-0.27,0.02,-0.36,-0.56,
1.557,0.03,0.05,-0.27,0.04,-0.39,-0.57,
1.557,0.03,0.05,-0.27,0.05,-0.40,-0.58,
1.558,0.03,0.05,-0.27,0.05,-0.42,-0.58,
1.558,-0.03,-0.03,-0.27,0.05,-0.42,-0.58,
1.558,-0.03,-0.03,-0.27,0.06,-0.44,-0.59,
1.568,-0.03,-0.03,-0.27,0.07,-0.45,-0.59,
1.569,-0.03,-0.03,-0.27,0.07,-0.48,-0.60,
1.57,-0.03,-0.03,-0.27,0.08,-0.48,-0.60,
1.57,-0.03,-0.03,-0.27,0.08,-0.50,-0.61,
1.571,0.01,-0.17,-0.39,0.08,-0.50,-0.61,
1.571,0.01,-0.17,-0.39,0.08,-0.52,-0.62,
1.571,0.01,-0.17,-0.39,0.07,-0.53,-0.63,
1.607,0.01,-0.17,-0.39,0.07,-0.55,-0.64,
1.607,0.01,-0.17,-0.39,0.06,-0.56,-0.64,
1.608,0.01,-0.17,-0.39,0.06,-0.58,-0.65,
1.608,0.07,-0.26,-0.49,0.06,-0.58,-0.65,
1.609,0.07,-0.26,-0.49,0.04,-0.59,-0.65,
1.609,0.07,-0.26,-0.49,0.04,-0.59,-0.67,
1.61,0.07,-0.26,-0.49,0.02,-0.59,-0.68,
1.61,0.07,-0.26,-0.49,0.01,-0.59,-0.68,
1.611,0.07,-0.26,-0.49,0.00,-0.58,-0.69,
1.611,0.13,-0.28,-0.44,0.00,-0.58,-0.69,
1.611,0.13,-0.28,-0.44,-0.01,-0.56,-0.70,
1.612,0.13,-0.28,-0.44,-0.02,-0.54,-0.70,
1.612,0.13,-0.28,-0.44,-0.04,-0.52,-0.71,
1.613,0.13,-0.28,-0.44,-0.05,-0.51,-0.71,
1.613,0.13,-0.28,-0.44,-0.06,-0.49,-0.71,
1.614,0.12,-0.18,-0.33,-0.06,-0.49,-0.71,
1.614,0.12,-0.18,-0.33,-0.08,-0.48,-0.72,
1.614,0.12,-0.18,-0.33,-0.09,-0.48,-0.73,
1.615,0.12,-0.18,-0.33,-0.11,-0.47,-0.74,
1.615,0.12,-0.18,-0.33,-0.12,-0.47,-0.75,
1.616,0.12,-0.18,-0.33,-0.14,-0.47,-0.76,
1.616,0.27,-0.24,-0.12,-0.14,-0.47,-0.76,
1.617,0.27,-0.24,-0.12,-0.15,-0.46,-0.76,
1.617,0.27,-0.24,-0.12,-0.16,-0.46,-0.77,
1.617,0.27,-0.24,-0.12,-0.17,-0.45,-0.78,
1.618,0.27,-0.24,-0.12,-0.18,-0.45,-0.79,
1.618,0.27,-0.24,-0.12,-0.19,-0.44,-0.79,
1.619,0.34,-0.39,0.03,-0.19,-0.44,-0.79,
1.619,0.34,-0.39,0.03,-0.20,-0.43,-0.79,
1.62,0.34,-0.39,0.03,-0.21,-0.42,-0.80,
1.624,0.34,-0.39,0.03,-0.23,-0.42,-0.80,
1.625,0.34,-0.39,0.03,-0.24,-0.41,-0.80,
1.626,0.34,-0.39,0.03,-0.24,-0.40,-0.80,
1.63,0.24,-0.51,0.13,-0.24,-0.40,-0.80,
1.631,0.24,-0.51,0.13,-0.25,-0.40,-0.80,
1.631,0.24,-0.51,0.13,-0.26,-0.40,-0.80,
1.633,0.24,-0.51,0.13,-0.27,-0.39,-0.80,
1.634,0.24,-0.51,0.13,-0.28,-0.39,-0.80,
1.636,0.24,-0.51,0.13,-0.28,-0.39,-0.79,
1.639,0.13,-0.50,0.28,-0.28,-0.39,-0.79,
1.64,0.13,-0.50,0.28,-0.28,-0.39,-0.79,
1.643,0.13,-0.50,0.28,-0.29,-0.39,-0.79,
1.643,0.13,-0.50,0.28,-0.29,-0.40,-0.79,
1.644,0.13,-0.50,0.28,-0.29,-0.40,-0.79,
1.646,0.13,-0.50,0.28,-0.28,-0.40,-0.79,
1.648,0.14,-0.44,0.45,-0.28,-0.40,-0.79,
1.648,0.14,-0.44,0.45,-0.28,-0.41,-0.79,
1.65,0.14,-0.44,0.45,-0.28,-0.41,-0.79,
1.653,0.14,-0.44,0.45,-0.28,-0.42,-0.79,
1.669,0.14,-0.44,0.45,-0.27,-0.42,-0.80,
1.67,0.14,-0.44,0.45,-0.27,-0.43,-0.80,
1.671,0.34,-0.43,0.52,-0.27,-0.43,-0.80,
1.671,0.34,-0.43,0.52,-0.27,-0.44,-0.81,
1.671,0.34,-0.43,0.52,-0.26,-0.43,-0.81,
1.672,0.34,-0.43,0.52,-0.25,-0.42,-0.82,
1.672,0.34,-0.43,0.52,-0.24,-0.41,-0.82,
1.672,0.34,-0.43,0.52,-0.23,-0.39,-0.83,
1.672,0.35,-0.29,0.61,-0.23,-0.39,-0.83,
1.672,0.35,-0.29,0.61,-0.22,-0.37,-0.83,
1.673,0.35,-0.29,0.61,-0.21,-0.34,-0.83,
1.673,0.35,-0.29,0.61,-0.20,-0.32,-0.84,
1.674,0.35,-0.29,0.61,-0.19,-0.31,-0.84,
1.676,0.35,-0.29,0.61,-0.18,-0.30,-0.84,
1.679,0.35,-0.12,0.60,-0.18,-0.30,-0.84,
1.679,0.35,-0.12,0.60,-0.17,-0.29,-0.84,
1.68,0.35,-0.12,0.60,-0.15,-0.29,-0.85,
1.684,0.35,-0.12,0.60,-0.13,-0.29,-0.86,
1.685,0.35,-0.12,0.60,-0.12,-0.30,-0.86,
1.686,0.35,-0.12,0.60,-0.11,-0.32,-0.87,
1.688,0.51,-0.16,0.58,-0.11,-0.32,-0.87,
1.689,0.51,-0.16,0.58,-0.09,-0.33,-0.89,
1.69,0.51,-0.16,0.58,-0.08,-0.35,-0.90,
1.693,0.51,-0.16,0.58,-0.05,-0.36,-0.92,
1.694,0.51,-0.16,0.58,-0.04,-0.37,-0.92,
1.696,0.51,-0.16,0.58,-0.01,-0.38,-0.94,
1.698,0.44,-0.02,0.49,-0.01,-0.38,-0.94,
1.698,0.44,-0.02,0.49,0.01,-0.38,-0.95,
1.7,0.44,-0.02,0.49,0.03,-0.39,-0.95,
1.703,0.44,-0.02,0.49,0.05,-0.40,-0.96,
1.705,0.44,-0.02,0.49,0.06,-0.40,-0.96,
1.707,0.44,-0.02,0.49,0.08,-0.40,-0.96,
1.708,0.16,0.13,0.13,0.08,-0.40,-0.96,
1.708,0.16,0.13,0.13,0.09,-0.42,-0.96,
1.71,0.16,0.13,0.13,0.10,-0.43,-0.96,
1.713,0.16,0.13,0.13,0.12,-0.46,-0.95,
1.714,0.16,0.13,0.13,0.12,-0.47,-0.95,
1.716,0.16,0.13,0.13,0.12,-0.50,-0.95,
1.718,0.13,0.04,-0.38,0.12,-0.50,-0.95,
1.719,0.13,0.04,-0.38,0.13,-0.52,-0.95,
1.72,0.13,0.04,-0.38,0.13,-0.53,-0.94,
1.723,0.13,0.04,-0.38,0.14,-0.56,-0.93,
1.724,0.13,0.04,-0.38,0.14,-0.56,-0.93,
1.726,0.13,0.04,-0.38,0.14,-0.57,-0.93,
1.728,0.03,-0.01,-0.77,0.14,-0.57,-0.93,
1.728,0.03,-0.01,-0.77,0.14,-0.57,-0.92,
1.73,0.03,-0.01,-0.77,0.14,-0.57,-0.91,
1.733,0.03,-0.01,-0.77,0.14,-0.57,-0.89,
1.733,0.03,-0.01,-0.77,0.13,-0.57,-0.89,
1.736,0.03,-0.01,-0.77,0.12,-0.57,-0.87,
1.746,-0.35,0.14,-1.03,0.12,-0.57,-0.87,
1.782,-0.35,0.14,-1.03,0.11,-0.57,-0.86,
1.783,-0.35,0.14,-1.03,0.10,-0.56,-0.85,
1.784,-0.35,0.14,-1.03,0.08,-0.55,-0.83,
1.785,-0.35,0.14,-1.03,0.07,-0.55,-0.82,
1.785,-0.35,0.14,-1.03,0.05,-0.54,-0.81,
1.785,-0.38,0.29,-1.11,0.05,-0.54,-0.81,
1.786,-0.38,0.29,-1.11,0.04,-0.54,-0.81,
1.787,-0.38,0.29,-1.11,0.03,-0.51,-0.82,
1.787,-0.38,0.29,-1.11,0.03,-0.48,-0.86,
1.789,-0.38,0.29,-1.11,0.03,-0.49,-0.88,
1.789,-0.38,0.29,-1.11,0.03,-0.51,-0.89,
1.79,0.07,0.24,-0.83,0.03,-0.51,-0.89,
1.79,0.07,0.24,-0.83,0.03,-0.54,-0.91,
1.793,0.07,0.24,-0.83,0.02,-0.57,-0.92,
1.794,0.07,0.24,-0.83,-0.00,-0.62,-0.92,
1.794,0.07,0.24,-0.83,-0.01,-0.63,-0.92,
1.794,0.07,0.24,-0.83,-0.02,-0.66,-0.92,
1.795,0.00,0.55,-0.85,-0.02,-0.66,-0.92,
1.795,0.00,0.55,-0.85,-0.04,-0.69,-0.92,
1.796,0.00,0.55,-0.85,-0.05,-0.72,-0.92,
1.796,0.00,0.55,-0.85,-0.07,-0.76,-0.93,
1.797,0.00,0.55,-0.85,-0.08,-0.78,-0.94,
1.797,0.00,0.55,-0.85,-0.09,-0.80,-0.95,
1.798,0.27,0.69,-0.66,-0.09,-0.80,-0.95,
1.798,0.27,0.69,-0.66,-0.10,-0.83,-0.97,
1.798,0.27,0.69,-0.66,-0.10,-0.85,-1.00,
1.799,0.27,0.69,-0.66,-0.11,-0.89,-1.04,
1.799,0.27,0.69,-0.66,-0.11,-0.90,-1.06,
1.8,0.27,0.69,-0.66,-0.12,-0.92,-1.10,
1.8,0.89,0.52,-0.33,-0.12,-0.92,-1.10,
1.801,0.89,0.52,-0.33,-0.12,-0.94,-1.13,
1.801,0.89,0.52,-0.33,-0.12,-0.96,-1.17,
1.801,0.89,0.52,-0.33,-0.12,-1.00,-1.22,
1.802,0.89,0.52,-0.33,-0.12,-1.01,-1.24,
1.802,0.89,0.52,-0.33,-0.12,-1.03,-1.28,
1.803,1.29,0.13,-0.04,-0.12,-1.03,-1.28,
1.803,1.29,0.13,-0.04,-0.11,-1.04,-1.31,
1.804,1.29,0.13,-0.04,-0.11,-1.05,-1.34,
1.804,1.29,0.13,-0.04,-0.09,-1.05,-1.38,
1.804,1.29,0.13,-0.04,-0.08,-1.05,-1.39,
1.809,1.29,0.13,-0.04,-0.06,-1.06,-1.40,
1.81,0.99,-0.19,0.43,-0.06,-1.06,-1.40,
1.811,0.99,-0.19,0.43,-0.02,-1.08,-1.39,
1.811,0.99,-0.19,0.43,0.04,-1.18,-1.33,
1.815,0.99,-0.19,0.43,0.14,-1.23,-1.24,
1.816,0.99,-0.19,0.43,0.17,-1.22,-1.21,
1.816,0.99,-0.19,0.43,0.22,-1.20,-1.16,
1.818,-0.20,-0.63,1.06,0.22,-1.20,-1.16,
1.82,-0.20,-0.63,1.06,0.27,-1.17,-1.12,
1.82,-0.20,-0.63,1.06,0.30,-1.12,-1.09,
1.824,-0.20,-0.63,1.06,0.31,-1.02,-1.05,
1.825,-0.20,-0.63,1.06,0.31,-0.98,-1.04,
1.826,-0.20,-0.63,1.06,0.29,-0.90,-1.02,
1.828,-0.55,-0.56,0.48,0.29,-0.90,-1.02,
1.829,-0.55,-0.56,0.48,0.26,-0.79,-0.98,
1.83,-0.55,-0.56,0.48,0.25,-0.76,-0.97,
1.833,-0.55,-0.56,0.48,0.22,-0.70,-0.94,
1.834,-0.55,-0.56,0.48,0.21,-0.68,-0.93,
1.836,-0.55,-0.56,0.48,0.19,-0.67,-0.90,
1.839,-0.82,-0.85,-0.11,0.19,-0.67,-0.90,
1.84,-0.82,-0.85,-0.11,0.18,-0.66,-0.88,
1.841,-0.82,-0.85,-0.11,0.17,-0.66,-0.85,
1.843,-0.82,-0.85,-0.11,0.15,-0.66,-0.83,
1.844,-0.82,-0.85,-0.11,0.15,-0.67,-0.82,
1.846,-0.82,-0.85,-0.11,0.14,-0.67,-0.80,
1.848,-0.81,-0.51,-0.37,0.14,-0.67,-0.80,
1.848,-0.81,-0.51,-0.37,0.12,-0.68,-0.78,
1.85,-0.81,-0.51,-0.37,0.11,-0.69,-0.77,
1.854,-0.81,-0.51,-0.37,0.09,-0.72,-0.76,
1.855,-0.81,-0.51,-0.37,0.08,-0.73,-0.75,
1.856,-0.81,-0.51,-0.37,0.06,-0.76,-0.75,
1.858,-0.54,0.00,-0.51,0.06,-0.76,-0.75,
1.858,-0.54,0.00,-0.51,0.04,-0.79,-0.76,
1.86,-0.54,0.00,-0.51,0.02,-0.82,-0.76,
1.863,-0.54,0.00,-0.51,0.00,-0.87,-0.77,
1.864,-0.54,0.00,-0.51,-0.00,-0.89,-0.77,
1.866,-0.54,0.00,-0.51,-0.01,-0.93,-0.77,
1.868,-0.18,-0.25,-0.41,-0.01,-0.93,-0.77,
1.869,-0.18,-0.25,-0.41,-0.01,-0.99,-0.75,
1.87,-0.18,-0.25,-0.41,-0.01,-1.06,-0.72,
1.873,-0.18,-0.25,-0.41,-0.01,-1.13,-0.68,
1.874,-0.18,-0.25,-0.41,-0.00,-1.16,-0.67,
1.876,-0.18,-0.25,-0.41,0.00,-1.20,-0.65,
1.878,-0.29,-0.90,-0.42,0.00,-1.20,-0.65,
1.879,-0.29,-0.90,-0.42,0.00,-1.24,-0.63,
1.88,-0.29,-0.90,-0.42,-0.00,-1.28,-0.63,
1.883,-0.29,-0.90,-0.42,-0.01,-1.31,-0.63,
1.884,-0.29,-0.90,-0.42,-0.02,-1.31,-0.64,
1.886,-0.29,-0.90,-0.42,-0.04,-1.30,-0.66,
1.898,0.07,-0.02,-0.15,-0.04,-1.30,-0.66,
1.9,0.07,-0.02,-0.15,-0.05,-1.28,-0.68,
1.9,0.07,-0.02,-0.15,-0.08,-1.24,-0.72,
1.901,0.07,-0.02,-0.15,-0.12,-1.16,-0.79,
1.901,0.07,-0.02,-0.15,-0.14,-1.13,-0.81,
1.901,0.07,-0.02,-0.15,-0.17,-1.08,-0.86,
1.902,0.82,0.62,-0.26,-0.17,-1.08,-0.86,
1.902,0.82,0.62,-0.26,-0.20,-1.03,-0.90,
1.903,0.82,0.62,-0.26,-0.23,-1.00,-0.94,
1.904,0.82,0.62,-0.26,-0.27,-0.94,-0.99,
1.906,0.82,0.62,-0.26,-0.28,-0.92,-1.01,
1.935,0.82,0.62,-0.26,-0.30,-0.89,-1.02,
1.936,0.74,-0.22,-0.60,-0.30,-0.89,-1.02,
1.936,0.74,-0.22,-0.60,-0.33,-0.86,-1.04,
1.936,0.74,-0.22,-0.60,-0.35,-0.83,-1.04,
1.937,0.74,-0.22,-0.60,-0.38,-0.81,-1.04,
1.937,0.74,-0.22,-0.60,-0.39,-0.80,-1.03,
1.938,0.74,-0.22,-0.60,-0.40,-0.79,-1.03,
1.938,0.19,-0.47,-0.59,-0.40,-0.79,-1.03,
1.939,0.19,-0.47,-0.59,-0.41,-0.78,-1.01,
1.939,0.19,-0.47,-0.59,-0.42,-0.77,-1.00,
1.939,0.19,-0.47,-0.59,-0.42,-0.75,-0.97,
1.94,0.19,-0.47,-0.59,-0.42,-0.74,-0.96,
1.94,0.19,-0.47,-0.59,-0.43,-0.73,-0.94,
1.941,-0.22,-0.20,-0.11,-0.43,-0.73,-0.94,
1.941,-0.22,-0.20,-0.11,-0.42,-0.73,-0.92,
1.942,-0.22,-0.20,-0.11,-0.42,-0.72,-0.91,
1.942,-0.22,-0.20,-0.11,-0.42,-0.70,-0.90,
1.942,-0.22,-0.20,-0.11,-0.42,-0.69,-0.90,
1.943,-0.22,-0.20,-0.11,-0.42,-0.67,-0.90,
1.943,-0.35,-0.20,0.23,-0.42,-0.67,-0.90,
1.944,-0.35,-0.20,0.23,-0.42,-0.66,-0.90,
1.944,-0.35,-0.20,0.23,-0.41,-0.65,-0.91,
1.945,-0.35,-0.20,0.23,-0.41,-0.64,-0.93,
1.945,-0.35,-0.20,0.23,-0.40,-0.64,-0.94,
1.945,-0.35,-0.20,0.23,-0.40,-0.64,-0.95,
1.951,-0.01,-0.14,0.54,-0.40,-0.64,-0.95,
1.952,-0.01,-0.14,0.54,-0.39,-0.66,-0.96,
1.952,-0.01,-0.14,0.54,-0.38,-0.68,-0.97,
1.955,-0.01,-0.14,0.54,-0.37,-0.73,-0.99,
1.955,-0.01,-0.14,0.54,-0.36,-0.74,-0.99,
1.956,-0.01,-0.14,0.54,-0.34,-0.78,-1.00,
1.96,0.05,-0.15,0.74,-0.34,-0.78,-1.00,
1.96,0.05,-0.15,0.74,-0.32,-0.81,-1.01,
1.961,0.05,-0.15,0.74,-0.29,-0.85,-1.03,
1.965,0.05,-0.15,0.74,-0.25,-0.90,-1.05,
1.965,0.05,-0.15,0.74,-0.24,-0.92,-1.06,
1.966,0.05,-0.15,0.74,-0.21,-0.96,-1.07,
1.969,0.12,0.07,0.94,-0.21,-0.96,-1.07,
1.97,0.12,0.07,0.94,-0.18,-1.00,-1.09,
1.97,0.12,0.07,0.94,-0.16,-1.05,-1.11,
1.975,0.12,0.07,0.94,-0.12,-1.13,-1.13,
1.976,0.12,0.07,0.94,-0.11,-1.15,-1.15,
1.977,0.12,0.07,0.94,-0.09,-1.20,-1.17,
1.98,0.34,0.21,0.68,-0.09,-1.20,-1.17,
1.98,0.34,0.21,0.68,-0.06,-1.25,-1.20,
1.98,0.34,0.21,0.68,-0.04,-1.31,-1.23,
1.983,0.34,0.21,0.68,-0.02,-1.39,-1.27,
1.984,0.34,0.21,0.68,-0.01,-1.41,-1.29,
1.989,0.34,0.21,0.68,-0.00,-1.46,-1.32,
1.991,0.45,0.30,0.32,-0.00,-1.46,-1.32,
1.992,0.45,0.30,0.32,0.00,-1.52,-1.35,
1.992,0.45,0.30,0.32,0.01,-1.59,-1.38,
1.993,0.45,0.30,0.32,0.01,-1.68,-1.42,
1.994,0.45,0.30,0.32,0.01,-1.71,-1.43,
1.996,0.45,0.30,0.32,0.00,-1.74,-1.45,
1.998,0.05,0.10,-0.15,0.00,-1.74,-1.45,
1.998,0.05,0.10,-0.15,-0.00,-1.76,-1.46,
2.0,0.05,0.10,-0.15,-0.01,-1.77,-1.47,
2.004,0.05,0.10,-0.15,-0.01,-1.78,-1.47,
2.005,0.05,0.10,-0.15,-0.01,-1.78,-1.47,
2.006,0.05,0.10,-0.15,-0.02,-1.77,-1.47,
2.008,-0.40,-0.20,-0.22,-0.02,-1.77,-1.47,
2.008,-0.40,-0.20,-0.22,-0.03,-1.76,-1.46,
2.01,-0.40,-0.20,-0.22,-0.05,-1.74,-1.44,
2.013,-0.40,-0.20,-0.22,-0.06,-1.69,-1.42,
2.014,-0.40,-0.20,-0.22,-0.06,-1.67,-1.40,
2.016,-0.40,-0.20,-0.22,-0.08,-1.61,-1.37,
2.018,-0.76,-0.43,-0.14,-0.08,-1.61,-1.37,
2.019,-0.76,-0.43,-0.14,-0.08,-1.55,-1.33,
2.02,-0.76,-0.43,-0.14,-0.09,-1.49,-1.29,
2.025,-0.76,-0.43,-0.14,-0.11,-1.38,-1.22,
2.028,-0.76,-0.43,-0.14,-0.11,-1.34,-1.19,
2.029,-0.76,-0.43,-0.14,-0.13,-1.27,-1.14,
2.03,-1.25,-0.54,-0.25,-0.13,-1.27,-1.14,
2.031,-1.25,-0.54,-0.25,-0.15,-1.18,-1.08,
2.032,-1.25,-0.54,-0.25,-0.17,-1.11,-1.03,
2.033,-1.25,-0.54,-0.25,-0.21,-1.06,-0.94,
2.033,-1.25,-0.54,-0.25,-0.22,-1.04,-0.91,
2.042,-1.25,-0.54,-0.25,-0.25,-0.97,-0.86,
2.044,-1.06,-0.82,-0.59,-0.25,-0.97,-0.86,
2.044,-1.06,-0.82,-0.59,-0.29,-0.88,-0.81,
2.045,-1.06,-0.82,-0.59,-0.33,-0.77,-0.77,
2.045,-1.06,-0.82,-0.59,-0.38,-0.62,-0.72,
2.045,-1.06,-0.82,-0.59,-0.40,-0.57,-0.70,
2.046,-1.06,-0.82,-0.59,-0.42,-0.46,-0.68,
2.048,-1.37,-0.76,-0.80,-0.42,-0.46,-0.68,
2.067,-1.37,-0.76,-0.80,-0.45,-0.31,-0.66,
2.069,-1.37,-0.76,-0.80,-0.48,-0.23,-0.65,
2.069,-1.37,-0.76,-0.80,-0.48,-0.23,-0.65,
2.07,-1.37,-0.76,-0.80,-0.49,-0.21,-0.64,
2.071,-1.37,-0.76,-0.80,-0.51,-0.17,-0.63,
2.071,-0.87,-0.23,-0.41,-0.51,-0.17,-0.63,
2.072,-0.87,-0.23,-0.41,-0.52,-0.14,-0.63,
2.072,-0.87,-0.23,-0.41,-0.53,-0.13,-0.63,
2.073,-0.87,-0.23,-0.41,-0.54,-0.13,-0.63,
2.075,-0.87,-0.23,-0.41,-0.54,-0.13,-0.63,
2.075,-0.87,-0.23,-0.41,-0.54,-0.14,-0.64,
2.076,-0.38,-0.08,0.01,-0.54,-0.14,-0.64,
2.076,-0.38,-0.08,0.01,-0.55,-0.16,-0.65,
2.077,-0.38,-0.08,0.01,-0.55,-0.18,-0.66,
2.106,-0.38,-0.08,0.01,-0.54,-0.22,-0.68,
2.107,-0.38,-0.08,0.01,-0.53,-0.24,-0.69,
2.107,-0.38,-0.08,0.01,-0.52,-0.27,-0.71,
2.107,-0.07,-0.22,0.36,-0.52,-0.27,-0.71,
2.108,-0.07,-0.22,0.36,-0.51,-0.31,-0.72,
2.108,-0.07,-0.22,0.36,-0.49,-0.34,-0.73,
2.109,-0.07,-0.22,0.36,-0.46,-0.40,-0.74,
2.109,-0.07,-0.22,0.36,-0.45,-0.42,-0.74,
2.11,-0.07,-0.22,0.36,-0.44,-0.48,-0.74,
2.11,-0.01,-0.19,0.51,-0.44,-0.48,-0.74,
2.11,-0.01,-0.19,0.51,-0.41,-0.54,-0.74,
2.111,-0.01,-0.19,0.51,-0.39,-0.60,-0.73,
2.111,-0.01,-0.19,0.51,-0.35,-0.72,-0.72,
2.112,-0.01,-0.19,0.51,-0.34,-0.75,-0.71,
2.112,-0.01,-0.19,0.51,-0.32,-0.82,-0.70,
2.113,-0.10,-0.18,0.41,-0.32,-0.82,-0.70,
2.113,-0.10,-0.18,0.41,-0.29,-0.88,-0.70,
2.113,-0.10,-0.18,0.41,-0.27,-0.93,-0.69,
2.114,-0.10,-0.18,0.41,-0.22,-0.99,-0.68,
2.114,-0.10,-0.18,0.41,-0.21,-1.01,-0.68,
2.115,-0.10,-0.18,0.41,-0.18,-1.04,-0.67,
2.115,-0.21,0.00,0.14,-0.18,-1.04,-0.67,
2.116,-0.21,0.00,0.14,-0.15,-1.07,-0.67,
2.116,-0.21,0.00,0.14,-0.11,-1.10,-0.67,
2.116,-0.21,0.00,0.14,-0.06,-1.13,-0.67,
2.116,-0.21,0.00,0.14,-0.04,-1.13,-0.67,
2.117,-0.21,0.00,0.14,-0.01,-1.12,-0.67,
2.117,-0.27,0.17,0.09,-0.01,-1.12,-0.67,
2.117,-0.27,0.17,0.09,0.03,-1.11,-0.68,
2.122,-0.27,0.17,0.09,0.07,-1.09,-0.68,
2.123,-0.27,0.17,0.09,0.12,-1.04,-0.68,
2.123,-0.27,0.17,0.09,0.14,-1.02,-0.68,
2.128,-0.27,0.17,0.09,0.18,-0.98,-0.68,
2.128,-0.54,0.21,0.10,0.18,-0.98,-0.68,
2.129,-0.54,0.21,0.10,0.21,-0.94,-0.68,
2.132,-0.54,0.21,0.10,0.23,-0.89,-0.68,
2.132,-0.54,0.21,0.10,0.27,-0.82,-0.67,
2.135,-0.54,0.21,0.10,0.28,-0.79,-0.67,
2.136,-0.54,0.21,0.10,0.30,-0.74,-0.66,
2.14,-0.61,0.15,-0.02,0.30,-0.74,-0.66,
2.141,-0.61,0.15,-0.02,0.31,-0.68,-0.65,
2.141,-0.61,0.15,-0.02,0.31,-0.62,-0.64,
2.143,-0.61,0.15,-0.02,0.30,-0.55,-0.62,
2.146,-0.61,0.15,-0.02,0.30,-0.53,-0.61,
2.146,-0.61,0.15,-0.02,0.28,-0.50,-0.59,
2.149,-0.66,0.05,-0.51,0.28,-0.50,-0.59,
2.15,-0.66,0.05,-0.51,0.26,-0.48,-0.57,
2.15,-0.66,0.05,-0.51,0.23,-0.47,-0.56,
2.153,-0.66,0.05,-0.51,0.19,-0.47,-0.53,
2.154,-0.66,0.05,-0.51,0.17,-0.47,-0.52,
2.156,-0.66,0.05,-0.51,0.13,-0.48,-0.51,
2.158,-0.82,0.03,-0.78,0.13,-0.48,-0.51,
2.158,-0.82,0.03,-0.78,0.09,-0.49,-0.50,
2.16,-0.82,0.03,-0.78,0.06,-0.50,-0.49,
2.163,-0.82,0.03,-0.78,-0.01,-0.52,-0.48,
2.163,-0.82,0.03,-0.78,-0.03,-0.52,-0.48,
2.168,-0.82,0.03,-0.78,-0.06,-0.52,-0.48,
2.168,-0.61,-0.01,-0.87,-0.06,-0.52,-0.48,
2.168,-0.61,-0.01,-0.87,-0.10,-0.52,-0.48,
2.184,-0.61,-0.01,-0.87,-0.14,-0.52,-0.48,
2.185,-0.61,-0.01,-0.87,-0.19,-0.52,-0.48,
2.185,-0.61,-0.01,-0.87,-0.20,-0.51,-0.49,
2.185,-0.61,-0.01,-0.87,-0.24,-0.50,-0.49,
2.186,-0.25,-0.00,-0.74,-0.24,-0.50,-0.49,
2.186,-0.25,-0.00,-0.74,-0.28,-0.49,-0.50,
2.187,-0.25,-0.00,-0.74,-0.29,-0.48,-0.50,
2.187,-0.25,-0.00,-0.74,-0.32,-0.46,-0.51,
2.188,-0.25,-0.00,-0.74,-0.33,-0.45,-0.52,
2.188,-0.25,-0.00,-0.74,-0.35,-0.44,-0.52,
2.189,0.09,0.08,-0.42,-0.35,-0.44,-0.52,
2.189,0.09,0.08,-0.42,-0.36,-0.43,-0.53,
2.196,0.09,0.08,-0.42,-0.38,-0.42,-0.54,
2.197,0.09,0.08,-0.42,-0.40,-0.41,-0.55,
2.198,0.09,0.08,-0.42,-0.41,-0.41,-0.56,
2.199,0.09,0.08,-0.42,-0.41,-0.41,-0.57,
2.199,0.30,0.12,-0.12,-0.41,-0.41,-0.57,
2.2,0.30,0.12,-0.12,-0.42,-0.41,-0.57,
2.2,0.30,0.12,-0.12,-0.42,-0.42,-0.58,
2.207,0.30,0.12,-0.12,-0.42,-0.43,-0.59,
2.208,0.30,0.12,-0.12,-0.42,-0.43,-0.59,
2.208,0.30,0.12,-0.12,-0.42,-0.44,-0.60,
2.208,0.27,0.07,0.22,-0.42,-0.44,-0.60,
2.209,0.27,0.07,0.22,-0.41,-0.45,-0.60,
2.21,0.27,0.07,0.22,-0.40,-0.45,-0.60,
2.213,0.27,0.07,0.22,-0.37,-0.47,-0.60,
2.214,0.27,0.07,0.22,-0.37,-0.48,-0.60,
2.216,0.27,0.07,0.22,-0.35,-0.49,-0.61,
2.22,0.11,0.04,0.53,-0.35,-0.49,-0.61,
2.22,0.11,0.04,0.53,-0.33,-0.50,-0.61,
2.221,0.11,0.04,0.53,-0.30,-0.52,-0.61,
2.223,0.11,0.04,0.53,-0.27,-0.55,-0.61,
2.225,0.11,0.04,0.53,-0.25,-0.56,-0.61,
2.227,0.11,0.04,0.53,-0.23,-0.58,-0.61,
2.228,-0.09,-0.03,0.78,-0.23,-0.58,-0.61,
2.229,-0.09,-0.03,0.78,-0.20,-0.60,-0.61,
2.23,-0.09,-0.03,0.78,-0.17,-0.62,-0.61,
2.233,-0.09,-0.03,0.78,-0.12,-0.65,-0.61,
2.234,-0.09,-0.03,0.78,-0.11,-0.65,-0.61,
2.237,-0.09,-0.03,0.78,-0.08,-0.67,-0.60,
2.239,-0.22,-0.13,0.79,-0.08,-0.67,-0.60,
2.269,-0.22,-0.13,0.79,-0.05,-0.68,-0.60,
2.269,-0.22,-0.13,0.79,-0.03,-0.69,-0.60,
2.27,-0.22,-0.13,0.79,0.01,-0.71,-0.59,
2.27,-0.22,-0.13,0.79,0.02,-0.72,-0.59,
2.271,-0.22,-0.13,0.79,0.04,-0.73,-0.58,
2.271,-0.41,-0.15,0.70,0.04,-0.73,-0.58,
2.272,-0.41,-0.15,0.70,0.05,-0.74,-0.57,
2.272,-0.41,-0.15,0.70,0.07,-0.75,-0.57,
2.273,-0.41,-0.15,0.70,0.08,-0.77,-0.56,
2.273,-0.41,-0.15,0.70,0.08,-0.77,-0.56,
2.273,-0.41,-0.15,0.70,0.08,-0.77,-0.55,
2.274,-0.50,-0.17,0.58,0.08,-0.77,-0.55,
2.274,-0.50,-0.17,0.58,0.08,-0.77,-0.55,
2.275,-0.50,-0.17,0.58,0.08,-0.76,-0.55,
2.275,-0.50,-0.17,0.58,0.07,-0.75,-0.54,
2.276,-0.50,-0.17,0.58,0.07,-0.75,-0.53,
2.276,-0.50,-0.17,0.58,0.06,-0.73,-0.53,
2.276,-0.53,-0.09,0.30,0.06,-0.73,-0.53,
2.277,-0.53,-0.09,0.30,0.05,-0.71,-0.52,
2.277,-0.53,-0.09,0.30,0.03,-0.70,-0.51,
2.278,-0.53,-0.09,0.30,0.01,-0.66,-0.50,
2.278,-0.53,-0.09,0.30,0.00,-0.65,-0.49,
2.279,-0.53,-0.09,0.30,-0.02,-0.63,-0.49,
2.279,-0.55,-0.10,-0.02,-0.02,-0.63,-0.49,
2.279,-0.55,-0.10,-0.02,-0.04,-0.60,-0.47,
2.28,-0.55,-0.10,-0.02,-0.06,-0.58,-0.47,
2.283,-0.55,-0.10,-0.02,-0.10,-0.54,-0.46,
2.284,-0.55,-0.10,-0.02,-0.12,-0.54,-0.46,
2.297,-0.55,-0.10,-0.02,-0.14,-0.52,-0.45,
2.297,-0.44,-0.06,-0.24,-0.14,-0.52,-0.45,
2.297,-0.44,-0.06,-0.24,-0.17,-0.50,-0.45,
2.298,-0.44,-0.06,-0.24,-0.20,-0.48,-0.44,
2.298,-0.44,-0.06,-0.24,-0.24,-0.45,-0.43,
2.298,-0.44,-0.06,-0.24,-0.25,-0.45,-0.43,
2.298,-0.44,-0.06,-0.24,-0.28,-0.43,-0.42,
2.299,-0.39,-0.06,-0.23,-0.28,-0.43,-0.42,
2.3,-0.39,-0.06,-0.23,-0.30,-0.41,-0.41,
2.3,-0.39,-0.06,-0.23,-0.32,-0.39,-0.40,
2.325,-0.39,-0.06,-0.23,-0.35,-0.37,-0.39,
2.325,-0.39,-0.06,-0.23,-0.36,-0.37,-0.39,
2.325,-0.39,-0.06,-0.23,-0.38,-0.35,-0.38,
2.325,-0.43,-0.08,-0.04,-0.38,-0.35,-0.38,
2.326,-0.43,-0.08,-0.04,-0.39,-0.33,-0.37,
2.326,-0.43,-0.08,-0.04,-0.39,-0.32,-0.36,
2.326,-0.43,-0.08,-0.04,-0.40,-0.30,-0.35,
2.326,-0.43,-0.08,-0.04,-0.40,-0.29,-0.35,
2.328,-0.43,-0.08,-0.04,-0.41,-0.29,-0.34,
2.33,-0.52,-0.07,0.31,-0.41,-0.29,-0.34,
2.332,-0.52,-0.07,0.31,-0.40,-0.28,-0.34,
2.334,-0.52,-0.07,0.31,-0.40,-0.28,-0.33,
2.335,-0.52,-0.07,0.31,-0.39,-0.29,-0.32,
2.34,-0.52,-0.07,0.31,-0.38,-0.29,-0.32,
2.342,-0.52,-0.07,0.31,-0.37,-0.29,-0.32,
2.343,-0.57,-0.09,0.65,-0.37,-0.29,-0.32,
2.344,-0.57,-0.09,0.65,-0.36,-0.30,-0.31,
2.345,-0.57,-0.09,0.65,-0.34,-0.31,-0.31,
2.345,-0.57,-0.09,0.65,-0.31,-0.32,-0.30,
2.346,-0.57,-0.09,0.65,-0.30,-0.32,-0.29,
2.346,-0.57,-0.09,0.65,-0.28,-0.34,-0.29,
2.347,-0.74,-0.11,0.98,-0.28,-0.34,-0.29,
2.348,-0.74,-0.11,0.98,-0.25,-0.35,-0.28,
2.348,-0.74,-0.11,0.98,-0.22,-0.36,-0.28,
2.349,-0.74,-0.11,0.98,-0.18,-0.38,-0.27,
2.349,-0.74,-0.11,0.98,-0.16,-0.39,-0.27,
2.349,-0.74,-0.11,0.98,-0.13,-0.41,-0.26,
2.35,-0.87,-0.07,1.28,-0.13,-0.41,-0.26,
2.351,-0.87,-0.07,1.28,-0.10,-0.42,-0.25,
2.351,-0.87,-0.07,1.28,-0.06,-0.44,-0.25,
2.358,-0.87,-0.07,1.28,-0.01,-0.47,-0.23,
2.359,-0.87,-0.07,1.28,0.01,-0.47,-0.23,
2.359,-0.87,-0.07,1.28,0.05,-0.49,-0.22,
2.359,-1.12,-0.11,1.41,0.05,-0.49,-0.22,
2.36,-1.12,-0.11,1.41,0.09,-0.51,-0.21,
2.36,-1.12,-0.11,1.41,0.12,-0.52,-0.21,
2.365,-1.12,-0.11,1.41,0.18,-0.54,-0.20,
2.365,-1.12,-0.11,1.41,0.20,-0.55,-0.19,
2.365,-1.12,-0.11,1.41,0.24,-0.55,-0.19,
2.371,-1.15,-0.10,1.41,0.24,-0.55,-0.19,
2.372,-1.15,-0.10,1.41,0.28,-0.56,-0.18,
2.373,-1.15,-0.10,1.41,0.31,-0.57,-0.18,
2.374,-1.15,-0.10,1.41,0.36,-0.58,-0.16,
2.374,-1.15,-0.10,1.41,0.38,-0.58,-0.16,
2.377,-1.15,-0.10,1.41,0.40,-0.59,-0.15,
2.378,-1.28,-0.01,1.25,0.40,-0.59,-0.15,
2.378,-1.28,-0.01,1.25,0.43,-0.60,-0.15,
2.38,-1.28,-0.01,1.25,0.45,-0.60,-0.14,
2.383,-1.28,-0.01,1.25,0.48,-0.61,-0.13,
2.384,-1.28,-0.01,1.25,0.49,-0.61,-0.13,
2.39,-1.28,-0.01,1.25,0.50,-0.62,-0.12,
2.392,-1.29,0.05,0.91,0.50,-0.62,-0.12,
2.392,-1.29,0.05,0.91,0.52,-0.62,-0.11,
2.393,-1.29,0.05,0.91,0.53,-0.63,-0.11,
2.393,-1.29,0.05,0.91,0.55,-0.64,-0.10,
2.394,-1.29,0.05,0.91,0.55,-0.64,-0.10,
2.396,-1.29,0.05,0.91,0.56,-0.65,-0.10,
2.398,-1.32,0.13,0.69,0.56,-0.65,-0.10,
2.4,-1.32,0.13,0.69,0.57,-0.65,-0.10,
2.401,-1.32,0.13,0.69,0.58,-0.65,-0.09,
2.405,-1.32,0.13,0.69,0.60,-0.66,-0.09,
2.408,-1.32,0.13,0.69,0.60,-0.66,-0.09,
2.441,-1.32,0.13,0.69,0.60,-0.66,-0.08,
2.441,-1.19,0.22,0.56,0.60,-0.66,-0.08,
2.441,-1.19,0.22,0.56,0.61,-0.67,-0.08,
2.442,-1.19,0.22,0.56,0.62,-0.67,-0.08,
2.442,-1.19,0.22,0.56,0.62,-0.65,-0.07,
2.443,-1.19,0.22,0.56,0.63,-0.65,-0.06,
2.443,-1.19,0.22,0.56,0.63,-0.64,-0.06,
2.444,-1.31,0.25,0.45,0.63,-0.64,-0.06,
2.444,-1.31,0.25,0.45,0.63,-0.64,-0.05,
2.444,-1.31,0.25,0.45,0.63,-0.63,-0.04,
2.445,-1.31,0.25,0.45,0.62,-0.61,-0.03,
2.445,-1.31,0.25,0.45,0.62,-0.61,-0.03,
2.446,-1.31,0.25,0.45,0.61,-0.59,-0.02,
2.446,-1.38,0.24,0.26,0.61,-0.59,-0.02,
2.447,-1.38,0.24,0.26,0.59,-0.58,-0.01,
2.447,-1.38,0.24,0.26,0.58,-0.56,0.00,
2.448,-1.38,0.24,0.26,0.55,-0.53,0.02,
2.448,-1.38,0.24,0.26,0.54,-0.52,0.02,
2.448,-1.38,0.24,0.26,0.52,-0.49,0.04,
2.449,-1.53,0.21,0.04,0.52,-0.49,0.04,
2.449,-1.53,0.21,0.04,0.49,-0.47,0.05,
2.45,-1.53,0.21,0.04,0.47,-0.44,0.06,
2.45,-1.53,0.21,0.04,0.43,-0.40,0.08,
2.451,-1.53,0.21,0.04,0.42,-0.38,0.09,
2.451,-1.53,0.21,0.04,0.40,-0.36,0.10,
2.451,-1.45,0.15,-0.01,0.40,-0.36,0.10,
2.452,-1.45,0.15,-0.01,0.38,-0.33,0.11,
2.452,-1.45,0.15,-0.01,0.36,-0.30,0.12,
2.455,-1.45,0.15,-0.01,0.33,-0.26,0.13,
2.456,-1.45,0.15,-0.01,0.32,-0.25,0.13,
2.456,-1.45,0.15,-0.01,0.31,-0.22,0.14,
2.458,-1.21,0.11,0.32,0.31,-0.22,0.14,
2.458,-1.21,0.11,0.32,0.30,-0.19,0.15,
2.46,-1.21,0.11,0.32,0.29,-0.16,0.15,
2.463,-1.21,0.11,0.32,0.28,-0.11,0.16,
2.464,-1.21,0.11,0.32,0.28,-0.09,0.17,
2.466,-1.21,0.11,0.32,0.27,-0.07,0.17,
2.468,-1.07,0.11,0.59,0.27,-0.07,0.17,
2.469,-1.07,0.11,0.59,0.27,-0.04,0.18,
2.47,-1.07,0.11,0.59,0.27,-0.02,0.19,
2.473,-1.07,0.11,0.59,0.26,0.00,0.20,
2.473,-1.07,0.11,0.59,0.26,0.01,0.20,
2.476,-1.07,0.11,0.59,0.26,0.02,0.21,
2.478,-0.93,0.02,0.79,0.26,0.02,0.21,
2.478,-0.93,0.02,0.79,0.26,0.03,0.21,
2.48,-0.93,0.02,0.79,0.27,0.04,0.21,
2.483,-0.93,0.02,0.79,0.28,0.04,0.21,
2.495,-0.93,0.02,0.79,0.28,0.04,0.21,
2.496,-0.93,0.02,0.79,0.29,0.05,0.21,
2.496,-0.67,0.00,1.05,0.29,0.05,0.21,
2.497,-0.67,0.00,1.05,0.30,0.05,0.21,
2.498,-0.67,0.00,1.05,0.31,0.05,0.21,
2.499,-0.67,0.00,1.05,0.33,0.06,0.21,
2.499,-0.67,0.00,1.05,0.34,0.06,0.20,
2.499,-0.67,0.00,1.05,0.35,0.06,0.20,
2.499,-0.32,0.10,1.20,0.35,0.06,0.20,
2.499,-0.32,0.10,1.20,0.37,0.06,0.19,
2.514,-0.32,0.10,1.20,0.39,0.07,0.18,
2.514,-0.32,0.10,1.20,0.41,0.08,0.16,
2.515,-0.32,0.10,1.20,0.42,0.08,0.15,
2.515,-0.32,0.10,1.20,0.43,0.08,0.14,
2.515,0.07,0.20,1.20,0.43,0.08,0.14,
2.515,0.07,0.20,1.20,0.45,0.09,0.13,
2.515,0.07,0.20,1.20,0.46,0.08,0.12,
2.516,0.07,0.20,1.20,0.48,0.08,0.10,
2.516,0.07,0.20,1.20,0.49,0.08,0.10,
2.516,0.07,0.20,1.20,0.50,0.07,0.09,
2.531,0.22,0.16,1.06,0.50,0.07,0.09,
2.532,0.22,0.16,1.06,0.52,0.06,0.08,
2.532,0.22,0.16,1.06,0.53,0.05,0.08,
2.533,0.22,0.16,1.06,0.54,0.04,0.07,
2.533,0.22,0.16,1.06,0.55,0.04,0.07,
2.533,0.22,0.16,1.06,0.56,0.03,0.07,
2.534,0.08,0.12,0.80,0.56,0.03,0.07,
2.534,0.08,0.12,0.80,0.57,0.02,0.07,
2.534,0.08,0.12,0.80,0.57,0.01,0.07,
2.535,0.08,0.12,0.80,0.58,0.01,0.07,
2.535,0.08,0.12,0.80,0.58,0.01,0.07,
2.538,0.08,0.12,0.80,0.59,0.00,0.07,
2.54,-0.16,-0.00,0.48,0.59,0.00,0.07,
2.541,-0.16,-0.00,0.48,0.59,0.00,0.08,
2.541,-0.16,-0.00,0.48,0.59,-0.00,0.08,
2.543,-0.16,-0.00,0.48,0.59,-0.01,0.09,
2.544,-0.16,-0.00,0.48,0.59,-0.01,0.10,
2.546,-0.16,-0.00,0.48,0.58,-0.01,0.11,
2.548,-0.35,-0.14,0.11,0.58,-0.01,0.11,
2.549,-0.35,-0.14,0.11,0.58,-0.02,0.12,
2.552,-0.35,-0.14,0.11,0.57,-0.04,0.13,
2.555,-0.35,-0.14,0.11,0.56,-0.07,0.19,
2.556,-0.35,-0.14,0.11,0.56,-0.08,0.22,
2.557,-0.35,-0.14,0.11,0.55,-0.09,0.26,
2.559,-1.16,-0.97,-0.20,0.55,-0.09,0.26,
2.56,-1.16,-0.97,-0.20,0.54,-0.08,0.29,
2.56,-1.16,-0.97,-0.20,0.53,-0.07,0.32,
2.563,-1.16,-0.97,-0.20,0.52,-0.05,0.34,
2.564,-1.16,-0.97,-0.20,0.51,-0.05,0.35,
2.566,-1.16,-0.97,-0.20,0.50,-0.05,0.36,
2.583,-0.69,-0.32,-0.16,0.50,-0.05,0.36,
2.583,-0.69,-0.32,-0.16,0.49,-0.06,0.38,
2.584,-0.69,-0.32,-0.16,0.48,-0.07,0.39,
2.602,-0.69,-0.32,-0.16,0.46,-0.08,0.39,
2.603,-0.69,-0.32,-0.16,0.45,-0.08,0.39,
2.603,-0.69,-0.32,-0.16,0.45,-0.08,0.39,
2.603,-0.05,0.17,-0.22,0.45,-0.08,0.39,
2.603,-0.05,0.17,-0.22,0.44,-0.08,0.38,
2.604,-0.05,0.17,-0.22,0.43,-0.07,0.37,
2.604,-0.05,0.17,-0.22,0.42,-0.05,0.34,
2.604,-0.05,0.17,-0.22,0.42,-0.04,0.33,
2.605,-0.05,0.17,-0.22,0.41,-0.02,0.32,
2.605,0.43,-0.03,-0.38,0.41,-0.02,0.32,
2.605,0.43,-0.03,-0.38,0.40,-0.01,0.30,
2.605,0.43,-0.03,-0.38,0.39,0.01,0.28,
2.606,0.43,-0.03,-0.38,0.38,0.04,0.25,
2.606,0.43,-0.03,-0.38,0.37,0.04,0.24,
2.606,0.43,-0.03,-0.38,0.36,0.06,0.23,
2.607,0.67,-0.11,-0.46,0.36,0.06,0.23,
2.607,0.67,-0.11,-0.46,0.34,0.07,0.22,
2.607,0.67,-0.11,-0.46,0.33,0.08,0.21,
2.607,0.67,-0.11,-0.46,0.31,0.09,0.19,
2.608,0.67,-0.11,-0.46,0.30,0.10,0.19,
2.608,0.67,-0.11,-0.46,0.29,0.11,0.18,
2.608,0.71,-0.11,-0.50,0.29,0.11,0.18,
2.608,0.71,-0.11,-0.50,0.27,0.11,0.18,
2.611,0.71,-0.11,-0.50,0.26,0.12,0.17,
2.613,0.71,-0.11,-0.50,0.24,0.13,0.16,
2.614,0.71,-0.11,-0.50,0.24,0.13,0.16,
2.616,0.71,-0.11,-0.50,0.23,0.14,0.15,
2.627,0.67,-0.23,-0.52,0.23,0.14,0.15,
2.627,0.67,-0.23,-0.52,0.22,0.14,0.14,
2.628,0.67,-0.23,-0.52,0.22,0.15,0.13,
2.628,0.67,-0.23,-0.52,0.22,0.15,0.11,
2.628,0.67,-0.23,-0.52,0.22,0.15,0.11,
2.628,0.67,-0.23,-0.52,0.22,0.14,0.10,
2.628,0.58,-0.36,-0.44,0.22,0.14,0.10,
2.629,0.58,-0.36,-0.44,0.22,0.14,0.09,
2.63,0.58,-0.36,-0.44,0.22,0.14,0.08,
2.632,0.58,-0.36,-0.44,0.22,0.14,0.06,
2.639,0.58,-0.36,-0.44,0.23,0.14,0.06,
2.64,0.58,-0.36,-0.44,0.23,0.13,0.05,
2.64,0.49,-0.40,-0.28,0.23,0.13,0.05,
2.64,0.49,-0.40,-0.28,0.24,0.13,0.05,
2.64,0.49,-0.40,-0.28,0.24,0.13,0.04,
2.644,0.49,-0.40,-0.28,0.26,0.11,0.04,
2.644,0.49,-0.40,-0.28,0.26,0.11,0.04,
2.646,0.49,-0.40,-0.28,0.27,0.10,0.04,
2.648,0.42,-0.43,-0.21,0.27,0.10,0.04,
2.649,0.42,-0.43,-0.21,0.27,0.09,0.04,
2.651,0.42,-0.43,-0.21,0.28,0.08,0.04,
2.653,0.42,-0.43,-0.21,0.29,0.06,0.04,
2.654,0.42,-0.43,-0.21,0.29,0.06,0.04,
2.656,0.42,-0.43,-0.21,0.30,0.05,0.05,
2.658,0.37,-0.47,-0.33,0.30,0.05,0.05,
2.659,0.37,-0.47,-0.33,0.31,0.04,0.05,
2.66,0.37,-0.47,-0.33,0.31,0.03,0.05,
2.663,0.37,-0.47,-0.33,0.32,0.01,0.06,
2.664,0.37,-0.47,-0.33,0.32,0.00,0.06,
2.668,0.37,-0.47,-0.33,0.32,-0.00,0.06,
2.669,0.53,-0.45,-0.49,0.32,-0.00,0.06,
2.669,0.53,-0.45,-0.49,0.32,-0.01,0.06,
2.67,0.53,-0.45,-0.49,0.32,-0.01,0.05,
2.673,0.53,-0.45,-0.49,0.32,-0.01,0.05,
2.674,0.53,-0.45,-0.49,0.32,-0.01,0.05,
2.676,0.53,-0.45,-0.49,0.31,-0.01,0.04,
2.679,0.78,-0.34,-0.62,0.31,-0.01,0.04,
2.679,0.78,-0.34,-0.62,0.31,-0.01,0.04,
2.68,0.78,-0.34,-0.62,0.31,-0.01,0.03,
2.686,0.78,-0.34,-0.62,0.30,-0.02,0.03,
2.688,0.78,-0.34,-0.62,0.30,-0.03,0.02,
2.689,0.78,-0.34,-0.62,0.29,-0.03,0.02,
2.689,0.88,-0.26,-0.68,0.29,-0.03,0.02,
2.69,0.88,-0.26,-0.68,0.29,-0.05,0.01,
2.69,0.88,-0.26,-0.68,0.29,-0.06,0.00,
2.693,0.88,-0.26,-0.68,0.28,-0.08,-0.01,
2.694,0.88,-0.26,-0.68,0.28,-0.08,-0.01,
2.696,0.88,-0.26,-0.68,0.27,-0.10,-0.02,
2.698,1.06,-0.22,-0.80,0.27,-0.10,-0.02,
2.698,1.06,-0.22,-0.80,0.26,-0.11,-0.02,
2.71,1.06,-0.22,-0.80,0.26,-0.12,-0.03,
2.711,1.06,-0.22,-0.80,0.25,-0.14,-0.04,
2.712,1.06,-0.22,-0.80,0.25,-0.14,-0.05,
2.712,1.06,-0.22,-0.80,0.25,-0.15,-0.06,
2.713,1.03,-0.17,-0.86,0.25,-0.15,-0.06,
2.714,1.03,-0.17,-0.86,0.24,-0.16,-0.07,
2.714,1.03,-0.17,-0.86,0.23,-0.17,-0.08,
2.714,1.03,-0.17,-0.86,0.22,-0.20,-0.10,
2.715,1.03,-0.17,-0.86,0.21,-0.21,-0.10,
2.733,1.03,-0.17,-0.86,0.20,-0.24,-0.10,
2.734,0.97,-0.17,-1.05,0.20,-0.24,-0.10,
2.734,0.97,-0.17,-1.05,0.19,-0.25,-0.10,
2.734,0.97,-0.17,-1.05,0.18,-0.25,-0.11,
2.735,0.97,-0.17,-1.05,0.16,-0.27,-0.13,
2.735,0.97,-0.17,-1.05,0.16,-0.27,-0.14,
2.735,0.97,-0.17,-1.05,0.15,-0.27,-0.15,
2.736,0.97,-0.21,-1.08,0.15,-0.27,-0.15,
2.736,0.97,-0.21,-1.08,0.14,-0.27,-0.16,
2.736,0.97,-0.21,-1.08,0.14,-0.28,-0.16,
2.737,0.97,-0.21,-1.08,0.14,-0.28,-0.17,
2.737,0.97,-0.21,-1.08,0.14,-0.28,-0.18,
2.737,0.97,-0.21,-1.08,0.13,-0.28,-0.18,
2.738,0.79,-0.33,-0.89,0.13,-0.28,-0.18,
2.763,0.79,-0.33,-0.89,0.13,-0.27,-0.18,
2.764,0.79,-0.33,-0.89,0.13,-0.27,-0.17,
2.765,0.79,-0.33,-0.89,0.12,-0.27,-0.16,
2.765,0.79,-0.33,-0.89,0.12,-0.26,-0.16,
2.766,0.79,-0.33,-0.89,0.11,-0.26,-0.15,
2.766,0.35,-0.37,-0.81,0.11,-0.26,-0.15,
2.769,0.35,-0.37,-0.81,0.11,-0.25,-0.14,
2.769,0.35,-0.37,-0.81,0.10,-0.25,-0.14,
2.77,0.35,-0.37,-0.81,0.09,-0.25,-0.12,
2.77,0.35,-0.37,-0.81,0.09,-0.25,-0.12,
2.77,0.35,-0.37,-0.81,0.08,-0.26,-0.11,
2.771,0.12,-0.38,-0.69,0.08,-0.26,-0.11,
2.771,0.12,-0.38,-0.69,0.08,-0.26,-0.10,
2.771,0.12,-0.38,-0.69,0.07,-0.27,-0.10,
2.771,0.12,-0.38,-0.69,0.07,-0.27,-0.09,
2.772,0.12,-0.38,-0.69,0.07,-0.27,-0.09,
2.772,0.12,-0.38,-0.69,0.07,-0.28,-0.08,
2.772,0.24,-0.31,-0.49,0.07,-0.28,-0.08,
2.773,0.24,-0.31,-0.49,0.06,-0.28,-0.08,
2.773,0.24,-0.31,-0.49,0.06,-0.28,-0.08,
2.773,0.24,-0.31,-0.49,0.07,-0.28,-0.08,
2.773,0.24,-0.31,-0.49,0.07,-0.27,-0.07,
2.778,0.24,-0.31,-0.49,0.07,-0.27,-0.07,
2.779,0.56,-0.12,-0.29,0.07,-0.27,-0.07,
2.779,0.56,-0.12,-0.29,0.07,-0.27,-0.07,
2.78,0.56,-0.12,-0.29,0.07,-0.26,-0.07,
2.791,0.56,-0.12,-0.29,0.07,-0.25,-0.09,
2.791,0.56,-0.12,-0.29,0.07,-0.25,-0.09,
2.791,0.56,-0.12,-0.29,0.07,-0.24,-0.10,
2.792,0.94,0.03,-0.16,0.07,-0.24,-0.10,
2.792,0.94,0.03,-0.16,0.08,-0.24,-0.12,
2.792,0.94,0.03,-0.16,0.08,-0.24,-0.13,
2.793,0.94,0.03,-0.16,0.09,-0.23,-0.16,
2.794,0.94,0.03,-0.16,0.09,-0.23,-0.16,
2.796,0.94,0.03,-0.16,0.10,-0.23,-0.18,
2.798,1.23,0.10,-0.08,0.10,-0.23,-0.18,
2.798,1.23,0.10,-0.08,0.11,-0.23,-0.19,
2.8,1.23,0.10,-0.08,0.11,-0.23,-0.20,
2.803,1.23,0.10,-0.08,0.13,-0.23,-0.22,
2.804,1.23,0.10,-0.08,0.13,-0.23,-0.23,
2.806,1.23,0.10,-0.08,0.14,-0.23,-0.24,
2.808,1.13,0.15,-0.10,0.14,-0.23,-0.24,
2.808,1.13,0.15,-0.10,0.14,-0.23,-0.25,
2.81,1.13,0.15,-0.10,0.14,-0.23,-0.26,
2.813,1.13,0.15,-0.10,0.15,-0.23,-0.27,
2.814,1.13,0.15,-0.10,0.15,-0.23,-0.27,
2.816,1.13,0.15,-0.10,0.15,-0.23,-0.28,
2.819,1.00,0.04,-0.35,0.15,-0.23,-0.28,
2.819,1.00,0.04,-0.35,0.15,-0.23,-0.29,
2.821,1.00,0.04,-0.35,0.15,-0.23,-0.29,
2.823,1.00,0.04,-0.35,0.14,-0.24,-0.30,
2.824,1.00,0.04,-0.35,0.14,-0.24,-0.31,
2.828,1.00,0.04,-0.35,0.14,-0.25,-0.31,
2.828,0.78,0.01,-0.47,0.14,-0.25,-0.31,
2.828,0.78,0.01,-0.47,0.14,-0.25,-0.31,
2.837,0.78,0.01,-0.47,0.13,-0.26,-0.32,
2.837,0.78,0.01,-0.47,0.13,-0.27,-0.32,
2.838,0.78,0.01,-0.47,0.13,-0.28,-0.32,
2.838,0.78,0.01,-0.47,0.13,-0.28,-0.32,
2.839,0.59,-0.10,-0.48,0.13,-0.28,-0.32,
2.839,0.59,-0.10,-0.48,0.13,-0.28,-0.32,
2.841,0.59,-0.10,-0.48,0.13,-0.29,-0.32,
2.843,0.59,-0.10,-0.48,0.14,-0.29,-0.32,
2.844,0.59,-0.10,-0.48,0.14,-0.29,-0.31,
2.846,0.59,-0.10,-0.48,0.14,-0.29,-0.31,
2.848,0.32,-0.20,-0.41,0.14,-0.29,-0.31,
2.848,0.32,-0.20,-0.41,0.14,-0.30,-0.31,
2.862,0.32,-0.20,-0.41,0.14,-0.30,-0.30,
2.863,0.32,-0.20,-0.41,0.13,-0.30,-0.30,
2.863,0.32,-0.20,-0.41,0.13,-0.31,-0.30,
2.863,0.32,-0.20,-0.41,0.13,-0.31,-0.29,
2.864,0.15,-0.27,-0.46,0.13,-0.31,-0.29,
2.864,0.15,-0.27,-0.46,0.12,-0.31,-0.29,
2.865,0.15,-0.27,-0.46,0.11,-0.32,-0.29,
2.886,0.15,-0.27,-0.46,0.09,-0.32,-0.29,
2.887,0.15,-0.27,-0.46,0.08,-0.33,-0.29,
2.888,0.15,-0.27,-0.46,0.08,-0.33,-0.29,
2.888,0.12,-0.29,-0.51,0.08,-0.33,-0.29,
2.889,0.12,-0.29,-0.51,0.06,-0.33,-0.29,
2.889,0.12,-0.29,-0.51,0.05,-0.33,-0.29,
2.89,0.12,-0.29,-0.51,0.04,-0.34,-0.29,
2.89,0.12,-0.29,-0.51,0.03,-0.34,-0.29,
2.89,0.12,-0.29,-0.51,0.03,-0.34,-0.29,
2.891,0.11,-0.32,-0.28,0.03,-0.34,-0.29,
2.891,0.11,-0.32,-0.28,0.02,-0.33,-0.30,
2.891,0.11,-0.32,-0.28,0.01,-0.33,-0.30,
2.891,0.11,-0.32,-0.28,0.01,-0.32,-0.30,
2.892,0.11,-0.32,-0.28,0.00,-0.31,-0.31,
2.892,0.11,-0.32,-0.28,0.00,-0.30,-0.31,
2.893,0.22,-0.31,0.05,0.00,-0.30,-0.31,
2.893,0.22,-0.31,0.05,0.00,-0.28,-0.31,
2.893,0.22,-0.31,0.05,-0.00,-0.26,-0.31,
2.894,0.22,-0.31,0.05,-0.00,-0.24,-0.32,
2.894,0.22,-0.31,0.05,-0.00,-0.22,-0.33,
2.896,0.22,-0.31,0.05,-0.00,-0.21,-0.33,
2.899,0.25,-0.26,0.34,-0.00,-0.21,-0.33,
2.902,0.25,-0.26,0.34,-0.00,-0.19,-0.33,
2.903,0.25,-0.26,0.34,-0.00,-0.17,-0.34,
2.903,0.25,-0.26,0.34,-0.01,-0.14,-0.34,
2.904,0.25,-0.26,0.34,-0.01,-0.13,-0.35,
2.938,0.25,-0.26,0.34,-0.01,-0.12,-0.35,
2.939,0.13,-0.32,0.37,-0.01,-0.12,-0.35,
2.94,0.13,-0.32,0.37,-0.01,-0.11,-0.36,
2.941,0.13,-0.32,0.37,-0.01,-0.10,-0.36,
2.941,0.13,-0.32,0.37,-0.01,-0.09,-0.37,
2.941,0.13,-0.32,0.37,-0.01,-0.09,-0.37,
2.942,0.13,-0.32,0.37,-0.01,-0.09,-0.37,
2.945,-0.04,-0.35,0.47,-0.01,-0.09,-0.37,
2.946,-0.04,-0.35,0.47,-0.00,-0.11,-0.37,
2.946,-0.04,-0.35,0.47,0.01,-0.12,-0.37,
2.947,-0.04,-0.35,0.47,0.01,-0.14,-0.38,
2.947,-0.04,-0.35,0.47,0.02,-0.16,-0.38,
2.947,-0.04,-0.35,0.47,0.03,-0.17,-0.38,
2.948,-0.16,-0.34,0.52,0.03,-0.17,-0.38,
2.948,-0.16,-0.34,0.52,0.04,-0.19,-0.38,
2.949,-0.16,-0.34,0.52,0.05,-0.21,-0.39,
2.949,-0.16,-0.34,0.52,0.06,-0.24,-0.39,
2.95,-0.16,-0.34,0.52,0.08,-0.26,-0.39,
2.95,-0.16,-0.34,0.52,0.08,-0.26,-0.40,
2.95,-0.26,-0.37,0.54,0.08,-0.26,-0.40,
2.951,-0.26,-0.37,0.54,0.09,-0.28,-0.40,
2.951,-0.26,-0.37,0.54,0.10,-0.29,-0.40,
2.952,-0.26,-0.37,0.54,0.11,-0.31,-0.41,
2.952,-0.26,-0.37,0.54,0.12,-0.32,-0.41,
2.953,-0.26,-0.37,0.54,0.13,-0.33,-0.41,
2.953,-0.26,-0.32,0.47,0.13,-0.33,-0.41,
2.953,-0.26,-0.32,0.47,0.13,-0.34,-0.41,
2.954,-0.26,-0.32,0.47,0.14,-0.34,-0.42,
2.954,-0.26,-0.32,0.47,0.14,-0.35,-0.42,
2.955,-0.26,-0.32,0.47,0.14,-0.35,-0.43,
2.959,-0.26,-0.32,0.47,0.14,-0.35,-0.43,
2.96,-0.26,-0.36,0.37,0.14,-0.35,-0.43,
2.961,-0.26,-0.36,0.37,0.14,-0.34,-0.43,
2.961,-0.26,-0.36,0.37,0.14,-0.34,-0.43,
2.965,-0.26,-0.36,0.37,0.14,-0.32,-0.43,
2.966,-0.26,-0.36,0.37,0.13,-0.30,-0.42,
2.966,-0.26,-0.36,0.37,0.13,-0.30,-0.42,
2.97,-0.44,-0.37,0.18,0.13,-0.30,-0.42,
2.972,-0.44,-0.37,0.18,0.12,-0.28,-0.41,
2.973,-0.44,-0.37,0.18,0.11,-0.27,-0.41,
2.973,-0.44,-0.37,0.18,0.09,-0.24,-0.40,
2.974,-0.44,-0.37,0.18,0.08,-0.23,-0.39,
2.976,-0.44,-0.37,0.18,0.07,-0.22,-0.39,
2.978,-0.53,-0.34,0.07,0.07,-0.22,-0.39,
2.979,-0.53,-0.34,0.07,0.06,-0.21,-0.38,
2.98,-0.53,-0.34,0.07,0.05,-0.19,-0.38,
2.998,-0.53,-0.34,0.07,0.03,-0.18,-0.37,
3.0,-0.53,-0.34,0.07,0.02,-0.16,-0.37,
3.0,-0.53,-0.34,0.07,0.02,-0.15,-0.37,
3.001,-0.48,-0.27,0.14,0.02,-0.15,-0.37,
3.001,-0.48,-0.27,0.14,0.01,-0.14,-0.37,
3.001,-0.48,-0.27,0.14,0.00,-0.13,-0.36,
3.002,-0.48,-0.27,0.14,-0.01,-0.11,-0.36,
3.002,-0.48,-0.27,0.14,-0.02,-0.09,-0.36,
3.002,-0.48,-0.27,0.14,-0.02,-0.09,-0.36,
3.003,-0.38,-0.28,0.31,-0.02,-0.09,-0.36,
3.004,-0.38,-0.28,0.31,-0.02,-0.08,-0.36,
3.004,-0.38,-0.28,0.31,-0.02,-0.07,-0.36,
3.004,-0.38,-0.28,0.31,-0.03,-0.06,-0.36,
3.005,-0.38,-0.28,0.31,-0.03,-0.05,-0.36,
3.006,-0.38,-0.28,0.31,-0.03,-0.05,-0.36,
3.011,-0.25,-0.24,0.49,-0.03,-0.05,-0.36,
3.011,-0.25,-0.24,0.49,-0.02,-0.04,-0.36,
3.012,-0.25,-0.24,0.49,-0.02,-0.03,-0.36,
3.013,-0.25,-0.24,0.49,-0.02,-0.02,-0.37,
3.021,-0.25,-0.24,0.49,-0.01,-0.01,-0.37,
3.022,-0.25,-0.24,0.49,-0.01,-0.01,-0.37,
3.022,-0.17,-0.25,0.66,-0.01,-0.01,-0.37,
3.022,-0.17,-0.25,0.66,-0.01,-0.01,-0.37,
3.023,-0.17,-0.25,0.66,-0.00,-0.00,-0.38,
3.023,-0.17,-0.25,0.66,0.00,0.01,-0.38,
3.03,-0.17,-0.25,0.66,0.01,0.01,-0.38,
3.031,-0.17,-0.25,0.66,0.01,0.02,-0.38,
3.032,-0.19,-0.24,0.72,0.01,0.02,-0.38,
3.032,-0.19,-0.24,0.72,0.01,0.02,-0.39,
3.033,-0.19,-0.24,0.72,0.01,0.03,-0.39,
3.034,-0.19,-0.24,0.72,0.01,0.05,-0.38,
3.037,-0.19,-0.24,0.72,0.01,0.06,-0.38,
3.037,-0.19,-0.24,0.72,0.01,0.06,-0.38,
3.038,-0.38,-0.29,0.62,0.01,0.06,-0.38,
3.038,-0.38,-0.29,0.62,0.00,0.07,-0.38,
3.041,-0.38,-0.29,0.62,-0.00,0.08,-0.37,
3.043,-0.38,-0.29,0.62,-0.01,0.10,-0.37,
3.044,-0.38,-0.29,0.62,-0.02,0.11,-0.36,
3.046,-0.38,-0.29,0.62,-0.02,0.11,-0.36,
3.06,-0.45,-0.29,0.40,-0.02,0.11,-0.36,
3.062,-0.45,-0.29,0.40,-0.04,0.14,-0.35,
3.062,-0.45,-0.29,0.40,-0.04,0.14,-0.35,
3.063,-0.45,-0.29,0.40,-0.06,0.15,-0.35,
3.064,-0.45,-0.29,0.40,-0.06,0.16,-0.35,
3.065,-0.45,-0.29,0.40,-0.07,0.17,-0.35,
3.065,-0.40,-0.24,0.28,-0.07,0.17,-0.35,
3.067,-0.40,-0.24,0.28,-0.08,0.17,-0.35,
3.068,-0.40,-0.24,0.28,-0.09,0.18,-0.35,
3.068,-0.40,-0.24,0.28,-0.10,0.18,-0.35,
3.069,-0.40,-0.24,0.28,-0.10,0.19,-0.35,
3.071,-0.40,-0.24,0.28,-0.11,0.19,-0.36,
3.072,-0.29,-0.17,0.27,-0.11,0.19,-0.36,
3.073,-0.29,-0.17,0.27,-0.11,0.19,-0.36,
3.073,-0.29,-0.17,0.27,-0.11,0.19,-0.36,
3.108,-0.29,-0.17,0.27,-0.12,0.19,-0.37,
3.108,-0.29,-0.17,0.27,-0.12,0.19,-0.37,
3.109,-0.29,-0.17,0.27,-0.11,0.18,-0.38,
3.109,-0.30,-0.15,0.48,-0.11,0.18,-0.38,
3.11,-0.30,-0.15,0.48,-0.10,0.18,-0.38,
3.11,-0.30,-0.15,0.48,-0.10,0.17,-0.38,
3.11,-0.30,-0.15,0.48,-0.10,0.14,-0.36,
3.111,-0.30,-0.15,0.48,-0.10,0.13,-0.34,
3.111,-0.30,-0.15,0.48,-0.09,0.13,-0.34,
3.112,-0.53,-0.21,0.57,-0.09,0.13,-0.34,
3.112,-0.53,-0.21,0.57,-0.09,0.12,-0.34,
3.113,-0.53,-0.21,0.57,-0.08,0.12,-0.35,
3.113,-0.53,-0.21,0.57,-0.06,0.11,-0.36,
3.113,-0.53,-0.21,0.57,-0.05,0.11,-0.37,
3.114,-0.53,-0.21,0.57,-0.03,0.10,-0.38,
3.114,-0.38,-0.31,0.74,-0.03,0.10,-0.38,
3.115,-0.38,-0.31,0.74,-0.01,0.09,-0.39,
3.115,-0.38,-0.31,0.74,0.01,0.07,-0.40,
3.116,-0.38,-0.31,0.74,0.03,0.06,-0.41,
3.116,-0.38,-0.31,0.74,0.05,0.04,-0.42,
3.116,-0.38,-0.31,0.74,0.08,0.02,-0.43,
3.117,-0.50,-0.25,0.89,0.08,0.02,-0.43,
3.117,-0.50,-0.25,0.89,0.10,0.00,-0.43,
3.118,-0.50,-0.25,0.89,0.12,-0.01,-0.43,
3.118,-0.50,-0.25,0.89,0.13,-0.03,-0.43,
3.119,-0.50,-0.25,0.89,0.15,-0.04,-0.43,
3.119,-0.50,-0.25,0.89,0.16,-0.06,-0.43,
3.119,-0.72,-0.40,0.71,0.16,-0.06,-0.43,
3.12,-0.72,-0.40,0.71,0.17,-0.07,-0.42,
3.12,-0.72,-0.40,0.71,0.19,-0.07,-0.42,
3.125,-0.72,-0.40,0.71,0.19,-0.08,-0.42,
3.127,-0.72,-0.40,0.71,0.20,-0.08,-0.41,
3.127,-0.72,-0.40,0.71,0.21,-0.09,-0.40,
3.131,-0.82,-0.51,0.44,0.21,-0.09,-0.40,
3.131,-0.82,-0.51,0.44,0.21,-0.09,-0.40,
3.132,-0.82,-0.51,0.44,0.22,-0.09,-0.39,
3.136,-0.82,-0.51,0.44,0.22,-0.09,-0.39,
3.137,-0.82,-0.51,0.44,0.22,-0.09,-0.38,
3.138,-0.82,-0.51,0.44,0.23,-0.09,-0.38,
3.138,-0.92,-0.51,0.28,0.23,-0.09,-0.38,
3.139,-0.92,-0.51,0.28,0.23,-0.09,-0.37,
3.141,-0.92,-0.51,0.28,0.23,-0.08,-0.36,
3.143,-0.92,-0.51,0.28,0.23,-0.08,-0.35,
3.144,-0.92,-0.51,0.28,0.22,-0.08,-0.35,
3.146,-0.92,-0.51,0.28,0.22,-0.07,-0.34,
3.161,-0.87,-0.50,0.00,0.22,-0.07,-0.34,
3.162,-0.87,-0.50,0.00,0.21,-0.07,-0.33,
3.162,-0.87,-0.50,0.00,0.20,-0.07,-0.32,
3.163,-0.87,-0.50,0.00,0.19,-0.07,-0.32,
3.163,-0.87,-0.50,0.00,0.18,-0.07,-0.31,
3.164,-0.87,-0.50,0.00,0.17,-0.07,-0.30,
3.164,-0.77,-0.51,-0.16,0.17,-0.07,-0.30,
3.166,-0.77,-0.51,-0.16,0.16,-0.07,-0.30,
3.167,-0.77,-0.51,-0.16,0.15,-0.07,-0.29,
3.167,-0.77,-0.51,-0.16,0.13,-0.06,-0.29,
3.167,-0.77,-0.51,-0.16,0.12,-0.06,-0.28,
3.168,-0.77,-0.51,-0.16,0.11,-0.05,-0.28,
3.18,-0.65,-0.43,-0.26,0.11,-0.05,-0.28,
3.181,-0.65,-0.43,-0.26,0.10,-0.04,-0.27,
3.181,-0.65,-0.43,-0.26,0.09,-0.04,-0.27,
3.181,-0.65,-0.43,-0.26,0.07,-0.03,-0.27,
3.181,-0.65,-0.43,-0.26,0.06,-0.02,-0.27,
3.182,-0.65,-0.43,-0.26,0.05,-0.01,-0.27,
3.182,-0.50,-0.34,-0.28,0.05,-0.01,-0.27,
3.182,-0.50,-0.34,-0.28,0.04,-0.00,-0.27,
3.183,-0.50,-0.34,-0.28,0.03,0.01,-0.27,
3.184,-0.50,-0.34,-0.28,0.03,0.01,-0.27,
3.185,-0.50,-0.34,-0.28,0.03,0.02,-0.27,
3.186,-0.50,-0.34,-0.28,0.02,0.03,-0.27,
3.188,-0.45,-0.27,-0.18,0.02,0.03,-0.27,
3.189,-0.45,-0.27,-0.18,0.02,0.04,-0.27,
3.191,-0.45,-0.27,-0.18,0.02,0.05,-0.27,
3.193,-0.45,-0.27,-0.18,0.01,0.06,-0.28,
3.196,-0.45,-0.27,-0.18,0.02,0.07,-0.28,
3.197,-0.45,-0.27,-0.18,0.02,0.07,-0.28,
3.199,-0.57,-0.26,-0.16,0.02,0.07,-0.28,
3.201,-0.57,-0.26,-0.16,0.02,0.07,-0.28,
3.202,-0.57,-0.26,-0.16,0.02,0.07,-0.28,
3.205,-0.57,-0.26,-0.16,0.02,0.07,-0.27,
3.206,-0.57,-0.26,-0.16,0.03,0.07,-0.27,
3.206,-0.57,-0.26,-0.16,0.04,0.07,-0.27,
3.21,-0.70,-0.32,-0.13,0.04,0.07,-0.27,
3.211,-0.70,-0.32,-0.13,0.04,0.06,-0.26,
3.211,-0.70,-0.32,-0.13,0.05,0.06,-0.26,
3.213,-0.70,-0.32,-0.13,0.06,0.05,-0.25,
3.214,-0.70,-0.32,-0.13,0.07,0.04,-0.25,
3.22,-0.70,-0.32,-0.13,0.08,0.02,-0.24,
3.221,-0.88,-0.34,-0.04,0.08,0.02,-0.24,
3.221,-0.88,-0.34,-0.04,0.10,0.01,-0.23,
3.222,-0.88,-0.34,-0.04,0.12,-0.01,-0.23,
3.223,-0.88,-0.34,-0.04,0.13,-0.03,-0.22,
3.224,-0.88,-0.34,-0.04,0.15,-0.05,-0.22,
3.226,-0.88,-0.34,-0.04,0.16,-0.07,-0.21,
3.228,-0.94,-0.31,-0.05,0.16,-0.07,-0.21,
3.231,-0.94,-0.31,-0.05,0.19,-0.10,-0.21,
3.232,-0.94,-0.31,-0.05,0.20,-0.12,-0.20,
3.237,-0.94,-0.31,-0.05,0.22,-0.14,-0.20,
3.238,-0.94,-0.31,-0.05,0.23,-0.17,-0.20,
3.238,-0.94,-0.31,-0.05,0.25,-0.19,-0.19,
3.238,-0.85,-0.23,-0.06,0.25,-0.19,-0.19,
3.268,-0.85,-0.23,-0.06,0.27,-0.22,-0.19,
3.268,-0.85,-0.23,-0.06,0.29,-0.25,-0.19,
3.269,-0.85,-0.23,-0.06,0.30,-0.27,-0.19,
3.269,-0.85,-0.23,-0.06,0.32,-0.30,-0.20,
3.27,-0.85,-0.23,-0.06,0.33,-0.32,-0.20,
3.27,-0.65,-0.18,-0.20,0.33,-0.32,-0.20,
3.271,-0.65,-0.18,-0.20,0.35,-0.34,-0.20,
3.271,-0.65,-0.18,-0.20,0.36,-0.37,-0.21,
3.271,-0.65,-0.18,-0.20,0.37,-0.38,-0.21,
3.272,-0.65,-0.18,-0.20,0.38,-0.40,-0.22,
3.272,-0.65,-0.18,-0.20,0.38,-0.41,-0.22,
3.273,-0.46,-0.11,-0.37,0.38,-0.41,-0.22,
3.273,-0.46,-0.11,-0.37,0.39,-0.42,-0.23,
3.274,-0.46,-0.11,-0.37,0.39,-0.43,-0.24,
3.274,-0.46,-0.11,-0.37,0.39,-0.43,-0.24,
3.274,-0.46,-0.11,-0.37,0.39,-0.44,-0.24,
3.275,-0.46,-0.11,-0.37,0.39,-0.44,-0.25,
3.275,-0.38,-0.06,-0.61,0.39,-0.44,-0.25,
3.276,-0.38,-0.06,-0.61,0.38,-0.44,-0.25,
3.276,-0.38,-0.06,-0.61,0.37,-0.43,-0.25,
3.277,-0.38,-0.06,-0.61,0.36,-0.42,-0.24,
3.277,-0.38,-0.06,-0.61,0.35,-0.41,-0.24,
3.277,-0.38,-0.06,-0.61,0.33,-0.39,-0.24,
3.278,-0.51,-0.09,-0.85,0.33,-0.39,-0.24,
3.278,-0.51,-0.09,-0.85,0.32,-0.38,-0.23,
3.283,-0.51,-0.09,-0.85,0.30,-0.36,-0.23,
3.284,-0.51,-0.09,-0.85,0.27,-0.32,-0.22,
3.284,-0.51,-0.09,-0.85,0.26,-0.31,-0.22,
3.288,-0.51,-0.09,-0.85,0.24,-0.29,-0.21,
3.289,-0.62,-0.04,-0.96,0.24,-0.29,-0.21,
3.289,-0.62,-0.04,-0.96,0.22,-0.27,-0.20,
3.29,-0.62,-0.04,-0.96,0.20,-0.25,-0.20,
3.293,-0.62,-0.04,-0.96,0.17,-0.23,-0.19,
3.293,-0.62,-0.04,-0.96,0.15,-0.23,-0.19,
3.295,-0.62,-0.04,-0.96,0.13,-0.22,-0.19,
3.302,-0.57,-0.01,-0.88,0.13,-0.22,-0.19,
3.303,-0.57,-0.01,-0.88,0.11,-0.20,-0.19,
3.303,-0.57,-0.01,-0.88,0.09,-0.19,-0.18,
3.303,-0.57,-0.01,-0.88,0.06,-0.18,-0.18,
3.304,-0.57,-0.01,-0.88,0.06,-0.18,-0.17,
3.309,-0.57,-0.01,-0.88,0.04,-0.17,-0.17,
3.309,-0.44,0.02,-0.56,0.04,-0.17,-0.17,
3.31,-0.44,0.02,-0.56,0.03,-0.16,-0.17,
3.31,-0.44,0.02,-0.56,0.02,-0.15,-0.17,
3.313,-0.44,0.02,-0.56,0.01,-0.14,-0.17,
3.314,-0.44,0.02,-0.56,0.01,-0.14,-0.17,
3.316,-0.44,0.02,-0.56,0.01,-0.14,-0.17,
3.319,-0.21,0.03,-0.16,0.01,-0.14,-0.17,
3.319,-0.21,0.03,-0.16,0.01,-0.15,-0.17,
3.32,-0.21,0.03,-0.16,0.00,-0.15,-0.17,
3.325,-0.21,0.03,-0.16,0.00,-0.17,-0.18,
3.325,-0.21,0.03,-0.16,0.01,-0.18,-0.18,
3.326,-0.21,0.03,-0.16,0.01,-0.19,-0.18,
3.33,0.05,0.07,0.30,0.01,-0.19,-0.18,
3.331,0.05,0.07,0.30,0.01,-0.20,-0.19,
3.331,0.05,0.07,0.30,0.02,-0.22,-0.20,
3.335,0.05,0.07,0.30,0.02,-0.24,-0.21,
3.336,0.05,0.07,0.30,0.03,-0.25,-0.21,
3.336,0.05,0.07,0.30,0.04,-0.27,-0.22,
3.34,0.22,0.22,0.74,0.04,-0.27,-0.22,
3.341,0.22,0.22,0.74,0.05,-0.28,-0.23,
3.341,0.22,0.22,0.74,0.07,-0.30,-0.23,
3.345,0.22,0.22,0.74,0.09,-0.33,-0.24,
3.345,0.22,0.22,0.74,0.10,-0.34,-0.25,
3.346,0.22,0.22,0.74,0.12,-0.36,-0.26,
3.352,0.35,0.33,1.08,0.12,-0.36,-0.26,
3.353,0.35,0.33,1.08,0.13,-0.38,-0.26,
3.353,0.35,0.33,1.08,0.15,-0.39,-0.27,
3.354,0.35,0.33,1.08,0.19,-0.42,-0.28,
3.354,0.35,0.33,1.08,0.20,-0.43,-0.28,
3.358,0.35,0.33,1.08,0.21,-0.44,-0.29,
3.358,0.44,0.40,1.32,0.21,-0.44,-0.29,
3.359,0.44,0.40,1.32,0.24,-0.45,-0.30,
3.36,0.44,0.40,1.32,0.26,-0.45,-0.30,
3.364,0.44,0.40,1.32,0.29,-0.46,-0.30,
3.365,0.44,0.40,1.32,0.31,-0.46,-0.30,
3.366,0.44,0.40,1.32,0.33,-0.46,-0.30,
3.37,0.34,0.46,1.42,0.33,-0.46,-0.30,
3.371,0.34,0.46,1.42,0.35,-0.46,-0.30,
3.373,0.34,0.46,1.42,0.38,-0.46,-0.30,
3.374,0.34,0.46,1.42,0.42,-0.47,-0.29,
3.374,0.34,0.46,1.42,0.43,-0.47,-0.29,
3.376,0.34,0.46,1.42,0.45,-0.48,-0.28,
3.378,0.13,0.52,1.46,0.45,-0.48,-0.28,
3.379,0.13,0.52,1.46,0.47,-0.48,-0.28,
3.38,0.13,0.52,1.46,0.50,-0.49,-0.27,
3.386,0.13,0.52,1.46,0.53,-0.51,-0.27,
3.388,0.13,0.52,1.46,0.54,-0.52,-0.26,
3.389,0.13,0.52,1.46,0.57,-0.53,-0.26,
3.389,0.04,0.71,1.44,0.57,-0.53,-0.26,
3.39,0.04,0.71,1.44,0.59,-0.55,-0.26,
3.39,0.04,0.71,1.44,0.61,-0.57,-0.25,
3.393,0.04,0.71,1.44,0.66,-0.59,-0.25,
3.394,0.04,0.71,1.44,0.67,-0.60,-0.25,
3.396,0.04,0.71,1.44,0.69,-0.62,-0.25,
3.413,0.09,0.92,1.42,0.69,-0.62,-0.25,
3.416,0.09,0.92,1.42,0.71,-0.64,-0.25,
3.416,0.09,0.92,1.42,0.74,-0.67,-0.25,
3.416,0.09,0.92,1.42,0.78,-0.71,-0.26,
3.416,0.09,0.92,1.42,0.79,-0.73,-0.26,
3.435,0.09,0.92,1.42,0.82,-0.76,-0.26,
3.436,0.30,1.12,1.38,0.82,-0.76,-0.26,
3.436,0.30,1.12,1.38,0.85,-0.79,-0.27,
3.436,0.30,1.12,1.38,0.88,-0.83,-0.28,
3.437,0.30,1.12,1.38,0.92,-0.88,-0.29,
3.437,0.30,1.12,1.38,0.94,-0.90,-0.29,
3.437,0.30,1.12,1.38,0.97,-0.95,-0.30,
3.437,0.62,1.41,1.35,0.97,-0.95,-0.30,
3.438,0.62,1.41,1.35,1.01,-1.00,-0.32,
3.438,0.62,1.41,1.35,1.04,-1.05,-0.33,
3.438,0.62,1.41,1.35,1.09,-1.12,-0.35,
3.439,0.62,1.41,1.35,1.11,-1.14,-0.36,
3.439,0.62,1.41,1.35,1.14,-1.19,-0.37,
3.439,1.15,1.58,1.33,1.14,-1.19,-0.37,
3.439,1.15,1.58,1.33,1.17,-1.24,-0.39,
3.44,1.15,1.58,1.33,1.20,-1.28,-0.41,
3.44,1.15,1.58,1.33,1.25,-1.35,-0.44,
3.44,1.15,1.58,1.33,1.27,-1.37,-0.45,
3.441,1.15,1.58,1.33,1.30,-1.41,-0.47,
3.441,1.73,1.66,1.41,1.30,-1.41,-0.47,
3.441,1.73,1.66,1.41,1.34,-1.46,-0.49,
3.441,1.73,1.66,1.41,1.38,-1.50,-0.52,
3.446,1.73,1.66,1.41,1.44,-1.56,-0.55,
3.448,1.73,1.66,1.41,1.46,-1.57,-0.56,
3.448,1.73,1.66,1.41,1.50,-1.61,-0.58,
3.449,2.09,1.72,1.66,1.50,-1.61,-0.58,
3.449,2.09,1.72,1.66,1.54,-1.64,-0.61,
3.45,2.09,1.72,1.66,1.58,-1.67,-0.63,
3.453,2.09,1.72,1.66,1.62,-1.71,-0.66,
3.454,2.09,1.72,1.66,1.64,-1.72,-0.67,
3.456,2.09,1.72,1.66,1.67,-1.74,-0.69,
3.458,2.18,1.75,1.69,1.67,-1.74,-0.69,
3.458,2.18,1.75,1.69,1.70,-1.76,-0.71,
3.46,2.18,1.75,1.69,1.72,-1.78,-0.73,
3.464,2.18,1.75,1.69,1.76,-1.79,-0.75,
3.464,2.18,1.75,1.69,1.77,-1.80,-0.76,
3.468,2.18,1.75,1.69,1.79,-1.81,-0.77,
3.469,2.02,1.69,1.73,1.79,-1.81,-0.77,
3.469,2.02,1.69,1.73,1.81,-1.82,-0.79,
3.469,2.02,1.69,1.73,1.82,-1.82,-0.80,
3.473,2.02,1.69,1.73,1.85,-1.83,-0.82,
3.474,2.02,1.69,1.73,1.85,-1.83,-0.82,
3.479,2.02,1.69,1.73,1.87,-1.83,-0.83,
3.479,1.79,1.55,1.75,1.87,-1.83,-0.83,
3.479,1.79,1.55,1.75,1.88,-1.83,-0.83,
3.483,1.79,1.55,1.75,1.89,-1.82,-0.84,
3.483,1.79,1.55,1.75,1.91,-1.81,-0.84,
3.484,1.79,1.55,1.75,1.91,-1.81,-0.85,
3.488,1.79,1.55,1.75,1.92,-1.80,-0.85,
3.488,1.54,1.49,1.77,1.92,-1.80,-0.85,
3.489,1.54,1.49,1.77,1.92,-1.80,-0.85,
3.49,1.54,1.49,1.77,1.93,-1.80,-0.85,
3.493,1.54,1.49,1.77,1.94,-1.79,-0.85,
3.493,1.54,1.49,1.77,1.94,-1.79,-0.85,
3.495,1.54,1.49,1.77,1.95,-1.79,-0.85,
3.498,1.59,1.39,1.74,1.95,-1.79,-0.85,
3.499,1.59,1.39,1.74,1.96,-1.79,-0.86,
3.5,1.59,1.39,1.74,1.96,-1.80,-0.86,
3.503,1.59,1.39,1.74,1.98,-1.80,-0.88,
3.504,1.59,1.39,1.74,1.98,-1.80,-0.88,
3.506,1.59,1.39,1.74,1.99,-1.81,-0.90,
3.507,2.17,1.62,1.56,1.99,-1.81,-0.90,
3.507,2.17,1.62,1.56,1.99,-1.82,-0.92,
3.509,2.17,1.62,1.56,2.00,-1.83,-0.94,
3.516,2.17,1.62,1.56,2.01,-1.85,-0.98,
3.517,2.17,1.62,1.56,2.01,-1.86,-1.00,
3.517,2.17,1.62,1.56,2.02,-1.88,-1.03,
3.52,3.01,1.98,1.30,2.02,-1.88,-1.03,
3.521,3.01,1.98,1.30,2.02,-1.90,-1.07,
3.521,3.01,1.98,1.30,2.03,-1.92,-1.11,
3.524,3.01,1.98,1.30,2.04,-1.96,-1.17,
3.525,3.01,1.98,1.30,2.04,-1.97,-1.20,
3.525,3.01,1.98,1.30,2.05,-2.00,-1.25,
3.528,3.97,2.32,1.14,2.05,-2.00,-1.25,
3.529,3.97,2.32,1.14,2.06,-2.03,-1.30,
3.536,3.97,2.32,1.14,2.08,-2.06,-1.36,
3.537,3.97,2.32,1.14,2.10,-2.12,-1.45,
3.537,3.97,2.32,1.14,2.11,-2.14,-1.48,
3.537,3.97,2.32,1.14,2.13,-2.18,-1.54,
3.538,4.41,2.30,1.28,2.13,-2.18,-1.54,
3.538,4.41,2.30,1.28,2.15,-2.23,-1.57,
3.542,4.41,2.30,1.28,2.18,-2.28,-1.59,
3.543,4.41,2.30,1.28,2.24,-2.34,-1.63,
3.543,4.41,2.30,1.28,2.26,-2.37,-1.65,
3.562,4.41,2.30,1.28,2.29,-2.44,-1.68,
3.562,3.42,1.70,1.60,2.29,-2.44,-1.68,
3.563,3.42,1.70,1.60,2.31,-2.51,-1.71,
3.563,3.42,1.70,1.60,2.33,-2.60,-1.72,
3.563,3.42,1.70,1.60,2.36,-2.71,-1.75,
3.563,3.42,1.70,1.60,2.37,-2.74,-1.77,
3.563,3.42,1.70,1.60,2.39,-2.81,-1.81,
3.563,3.66,1.26,1.62,2.39,-2.81,-1.81,
3.564,3.66,1.26,1.62,2.42,-2.87,-1.86,
3.564,3.66,1.26,1.62,2.46,-2.95,-1.91,
3.564,3.66,1.26,1.62,2.54,-3.06,-1.99,
3.564,3.66,1.26,1.62,2.57,-3.10,-2.01,
3.567,3.66,1.26,1.62,2.63,-3.17,-2.07,
3.572,3.56,1.36,2.76,2.63,-3.17,-2.07,
3.572,3.56,1.36,2.76,2.70,-3.23,-2.11,
3.572,3.56,1.36,2.76,2.78,-3.30,-2.16,
3.594,3.56,1.36,2.76,2.89,-3.38,-2.20,
3.594,3.56,1.36,2.76,2.93,-3.40,-2.21,
3.594,3.56,1.36,2.76,3.01,-3.45,-2.23,
3.595,2.07,0.65,3.84,3.01,-3.45,-2.23,
3.595,2.07,0.65,3.84,3.14,-3.51,-2.25,
3.595,2.07,0.65,3.84,3.18,-3.53,-2.25,
3.596,2.07,0.65,3.84,3.27,-3.58,-2.26,
3.596,2.07,0.65,3.84,3.30,-3.60,-2.26,
3.596,2.07,0.65,3.84,3.36,-3.63,-2.26,
3.596,1.61,-0.27,3.76,3.36,-3.63,-2.26,
3.597,1.61,-0.27,3.76,3.40,-3.66,-2.25,
3.597,1.61,-0.27,3.76,3.44,-3.68,-2.24,
3.597,1.61,-0.27,3.76,3.50,-3.72,-2.21,
3.597,1.61,-0.27,3.76,3.52,-3.73,-2.20,
3.598,1.61,-0.27,3.76,3.55,-3.75,-2.19,
3.603,1.21,-0.42,3.37,3.55,-3.75,-2.19,
3.604,1.21,-0.42,3.37,3.58,-3.77,-2.17,
3.604,1.21,-0.42,3.37,3.60,-3.79,-2.16,
3.604,1.21,-0.42,3.37,3.63,-3.82,-2.15,
3.605,1.21,-0.42,3.37,3.65,-3.83,-2.14,
3.608,1.21,-0.42,3.37,3.66,-3.84,-2.14,
3.609,1.70,-0.33,2.84,3.66,-3.84,-2.14,
3.609,1.70,-0.33,2.84,3.68,-3.86,-2.14,
3.612,1.70,-0.33,2.84,3.69,-3.87,-2.15,
3.616,1.70,-0.33,2.84,3.72,-3.88,-2.16,
3.616,1.70,-0.33,2.84,3.73,-3.88,-2.17,
3.617,1.70,-0.33,2.84,3.75,-3.89,-2.19,
3.618,2.58,-0.10,2.50,3.75,-3.89,-2.19,
3.618,2.58,-0.10,2.50,3.76,-3.90,-2.21,
3.622,2.58,-0.10,2.50,3.77,-3.91,-2.24,
3.623,2.58,-0.10,2.50,3.78,-3.92,-2.29,
3.626,2.58,-0.10,2.50,3.78,-3.93,-2.31,
3.626,2.58,-0.10,2.50,3.78,-3.95,-2.34,
3.63,3.11,0.66,1.66,3.78,-3.95,-2.34,
3.63,3.11,0.66,1.66,3.78,-3.97,-2.38,
3.631,3.11,0.66,1.66,3.76,-3.98,-2.38,
3.635,3.11,0.66,1.66,3.75,-4.01,-2.36,
3.636,3.11,0.66,1.66,3.74,-4.02,-2.37,
3.637,3.11,0.66,1.66,3.74,-4.05,-2.40,
3.64,2.37,0.51,0.71,3.74,-4.05,-2.40,
3.644,2.37,0.51,0.71,3.70,-4.08,-2.44,
3.645,2.37,0.51,0.71,3.65,-4.10,-2.48,
3.645,2.37,0.51,0.71,3.57,-4.14,-2.56,
3.646,2.37,0.51,0.71,3.54,-4.16,-2.59,
3.646,2.37,0.51,0.71,3.48,-4.22,-2.64,
3.651,4.05,-0.36,-1.19,3.48,-4.22,-2.64,
3.651,4.05,-0.36,-1.19,3.43,-4.29,-2.70,
3.652,4.05,-0.36,-1.19,3.37,-4.37,-2.75,
3.655,4.05,-0.36,-1.19,3.29,-4.51,-2.82,
3.655,4.05,-0.36,-1.19,3.26,-4.56,-2.84,
3.655,4.05,-0.36,-1.19,3.22,-4.66,-2.88,
3.66,4.09,0.23,-0.88,3.22,-4.66,-2.88,
3.66,4.09,0.23,-0.88,3.19,-4.77,-2.92,
3.66,4.09,0.23,-0.88,3.17,-4.86,-2.95,
3.663,4.09,0.23,-0.88,3.15,-4.99,-2.98,
3.664,4.09,0.23,-0.88,3.15,-5.03,-2.98,
3.671,4.09,0.23,-0.88,3.15,-5.09,-2.97,
3.672,2.32,-0.08,0.72,3.15,-5.09,-2.97,
3.672,2.32,-0.08,0.72,3.15,-5.14,-2.97,
3.672,2.32,-0.08,0.72,3.16,-5.17,-2.95,
3.673,2.32,-0.08,0.72,3.16,-5.18,-2.94,
3.676,2.32,-0.08,0.72,3.16,-5.17,-2.93,
3.676,2.32,-0.08,0.72,3.16,-5.15,-2.91,
3.678,1.80,-1.00,1.68,3.16,-5.15,-2.91,
3.678,1.80,-1.00,1.68,3.15,-5.13,-2.89,
3.691,1.80,-1.00,1.68,3.14,-5.09,-2.86,
3.692,1.80,-1.00,1.68,3.12,-5.01,-2.80,
3.692,1.80,-1.00,1.68,3.11,-4.98,-2.78,
3.692,1.80,-1.00,1.68,3.10,-4.91,-2.74,
3.693,1.30,-0.82,2.16,3.10,-4.91,-2.74,
3.693,1.30,-0.82,2.16,3.08,-4.84,-2.70,
3.693,1.30,-0.82,2.16,3.06,-4.75,-2.66,
3.693,1.30,-0.82,2.16,3.02,-4.60,-2.61,
3.693,1.30,-0.82,2.16,3.00,-4.54,-2.59,
3.704,1.30,-0.82,2.16,2.97,-4.42,-2.55,
3.705,1.41,-0.80,2.39,2.97,-4.42,-2.55,
3.706,1.41,-0.80,2.39,2.94,-4.29,-2.51,
3.706,1.41,-0.80,2.39,2.90,-4.15,-2.47,
3.707,1.41,-0.80,2.39,2.84,-3.92,-2.41,
3.707,1.41,-0.80,2.39,2.82,-3.85,-2.39,
3.708,1.41,-0.80,2.39,2.77,-3.70,-2.35,
3.708,1.74,-0.69,1.94,2.77,-3.70,-2.35,
3.708,1.74,-0.69,1.94,2.72,-3.55,-2.31,
3.71,1.74,-0.69,1.94,2.66,-3.42,-2.28,
3.717,1.74,-0.69,1.94,2.57,-3.24,-2.25,
3.719,1.74,-0.69,1.94,2.54,-3.19,-2.25,
3.72,1.74,-0.69,1.94,2.47,-3.08,-2.24,
3.72,2.79,-0.45,0.78,2.47,-3.08,-2.24,
3.72,2.79,-0.45,0.78,2.40,-2.98,-2.23,
3.721,2.79,-0.45,0.78,2.32,-2.89,-2.23,
3.723,2.79,-0.45,0.78,2.20,-2.78,-2.24,
3.724,2.79,-0.45,0.78,2.16,-2.75,-2.25,
3.726,2.79,-0.45,0.78,2.07,-2.69,-2.25,
3.729,3.41,-0.35,-0.81,2.07,-2.69,-2.25,
3.73,3.41,-0.35,-0.81,1.97,-2.64,-2.27,
3.73,3.41,-0.35,-0.81,1.87,-2.59,-2.29,
3.734,3.41,-0.35,-0.81,1.71,-2.54,-2.33,
3.735,3.41,-0.35,-0.81,1.65,-2.52,-2.35,
3.736,3.41,-0.35,-0.81,1.54,-2.51,-2.38,
3.738,4.43,-0.55,-2.54,1.54,-2.51,-2.38,
3.772,4.43,-0.55,-2.54,1.43,-2.50,-2.42,
3.773,4.43,-0.55,-2.54,1.32,-2.50,-2.46,
3.774,4.43,-0.55,-2.54,1.16,-2.50,-2.52,
3.775,4.43,-0.55,-2.54,1.11,-2.50,-2.54,
3.776,4.43,-0.55,-2.54,1.01,-2.50,-2.58,
3.776,4.57,-0.65,-2.84,1.01,-2.50,-2.58,
3.777,4.57,-0.65,-2.84,0.92,-2.51,-2.62,
3.779,4.57,-0.65,-2.84,0.83,-2.53,-2.65,
3.78,4.57,-0.65,-2.84,0.72,-2.56,-2.70,
3.783,4.57,-0.65,-2.84,0.69,-2.57,-2.71,
3.784,4.57,-0.65,-2.84,0.63,-2.61,-2.74,
3.784,4.64,-1.08,-1.70,0.63,-2.61,-2.74,
3.784,4.64,-1.08,-1.70,0.59,-2.63,-2.77,
3.785,4.64,-1.08,-1.70,0.56,-2.66,-2.79,
3.785,4.64,-1.08,-1.70,0.54,-2.69,-2.80,
3.786,4.64,-1.08,-1.70,0.55,-2.70,-2.80,
3.786,4.64,-1.08,-1.70,0.56,-2.73,-2.82,
3.787,4.06,-1.69,1.10,0.56,-2.73,-2.82,
3.787,4.06,-1.69,1.10,0.59,-2.75,-2.84,
3.788,4.06,-1.69,1.10,0.62,-2.76,-2.87,
3.788,4.06,-1.69,1.10,0.70,-2.78,-2.89,
3.788,4.06,-1.69,1.10,0.73,-2.79,-2.89,
3.789,4.06,-1.69,1.10,0.80,-2.79,-2.90,
3.789,3.68,-2.00,3.88,0.80,-2.79,-2.90,
3.79,3.68,-2.00,3.88,0.88,-2.79,-2.90,
3.79,3.68,-2.00,3.88,0.97,-2.78,-2.89,
3.791,3.68,-2.00,3.88,1.10,-2.76,-2.88,
3.791,3.68,-2.00,3.88,1.14,-2.75,-2.87,
3.791,3.68,-2.00,3.88,1.23,-2.73,-2.86,
3.792,2.91,-2.58,5.20,1.23,-2.73,-2.86,
3.792,2.91,-2.58,5.20,1.31,-2.70,-2.84,
3.793,2.91,-2.58,5.20,1.39,-2.67,-2.82,
3.793,2.91,-2.58,5.20,1.49,-2.62,-2.80,
3.794,2.91,-2.58,5.20,1.52,-2.61,-2.79,
3.798,2.91,-2.58,5.20,1.58,-2.58,-2.76,
3.799,2.54,-2.89,4.86,1.58,-2.58,-2.76,
3.8,2.54,-2.89,4.86,1.63,-2.56,-2.74,
3.8,2.54,-2.89,4.86,1.66,-2.54,-2.72,
3.803,2.54,-2.89,4.86,1.69,-2.53,-2.69,
3.806,2.54,-2.89,4.86,1.70,-2.53,-2.68,
3.806,2.54,-2.89,4.86,1.70,-2.52,-2.66,
3.808,2.23,-3.03,2.96,1.70,-2.52,-2.66,
3.809,2.23,-3.03,2.96,1.70,-2.52,-2.64,
3.812,2.23,-3.03,2.96,1.68,-2.51,-2.62,
3.814,2.23,-3.03,2.96,1.64,-2.52,-2.59,
3.815,2.23,-3.03,2.96,1.62,-2.52,-2.58,
3.815,2.23,-3.03,2.96,1.58,-2.51,-2.56,
3.818,2.23,-3.25,0.86,1.58,-2.51,-2.56,
3.818,2.23,-3.25,0.86,1.54,-2.52,-2.54,
3.82,2.23,-3.25,0.86,1.48,-2.52,-2.51,
3.823,2.23,-3.25,0.86,1.39,-2.52,-2.48,
3.823,2.23,-3.25,0.86,1.36,-2.52,-2.47,
3.825,2.23,-3.25,0.86,1.29,-2.53,-2.45,
3.844,2.16,-3.40,-0.56,1.29,-2.53,-2.45,
3.845,2.16,-3.40,-0.56,1.22,-2.54,-2.43,
3.846,2.16,-3.40,-0.56,1.15,-2.55,-2.41,
3.846,2.16,-3.40,-0.56,1.04,-2.57,-2.38,
3.846,2.16,-3.40,-0.56,1.00,-2.57,-2.37,
3.847,2.16,-3.40,-0.56,0.93,-2.58,-2.35,
3.847,2.27,-3.47,-1.01,0.93,-2.58,-2.35,
3.847,2.27,-3.47,-1.01,0.87,-2.60,-2.33,
3.848,2.27,-3.47,-1.01,0.81,-2.61,-2.31,
3.848,2.27,-3.47,-1.01,0.72,-2.62,-2.29,
3.848,2.27,-3.47,-1.01,0.69,-2.63,-2.28,
3.849,2.27,-3.47,-1.01,0.63,-2.63,-2.26,
3.851,2.39,-3.44,-0.51,0.63,-2.63,-2.26,
3.852,2.39,-3.44,-0.51,0.58,-2.62,-2.24,
3.852,2.39,-3.44,-0.51,0.52,-2.61,-2.23,
3.853,2.39,-3.44,-0.51,0.43,-2.59,-2.20,
3.854,2.39,-3.44,-0.51,0.41,-2.58,-2.19,
3.856,2.39,-3.44,-0.51,0.35,-2.55,-2.18,
3.858,2.82,-3.37,-0.38,0.35,-2.55,-2.18,
3.858,2.82,-3.37,-0.38,0.29,-2.53,-2.18,
3.86,2.82,-3.37,-0.38,0.23,-2.49,-2.17,
3.863,2.82,-3.37,-0.38,0.14,-2.44,-2.17,
3.867,2.82,-3.37,-0.38,0.11,-2.42,-2.17,
3.868,2.82,-3.37,-0.38,0.06,-2.39,-2.18,
3.868,3.39,-3.32,0.09,0.06,-2.39,-2.18,
3.869,3.39,-3.32,0.09,0.01,-2.35,-2.19,
3.87,3.39,-3.32,0.09,-0.03,-2.31,-2.21,
3.873,3.39,-3.32,0.09,-0.08,-2.26,-2.24,
3.874,3.39,-3.32,0.09,-0.09,-2.24,-2.25,
3.875,3.39,-3.32,0.09,-0.11,-2.20,-2.27,
3.879,4.06,-3.47,1.40,-0.11,-2.20,-2.27,
3.88,4.06,-3.47,1.40,-0.12,-2.17,-2.29,
3.88,4.06,-3.47,1.40,-0.11,-2.14,-2.31,
3.885,4.06,-3.47,1.40,-0.10,-2.10,-2.33,
3.886,4.06,-3.47,1.40,-0.09,-2.08,-2.34,
3.886,4.06,-3.47,1.40,-0.07,-2.06,-2.35,
3.888,4.06,-3.65,2.83,-0.07,-2.06,-2.35,
3.888,4.06,-3.65,2.83,-0.04,-2.04,-2.36,
3.89,4.06,-3.65,2.83,-0.01,-2.02,-2.36,
3.893,4.06,-3.65,2.83,0.06,-2.00,-2.37,
3.894,4.06,-3.65,2.83,0.08,-2.00,-2.37,
3.896,4.06,-3.65,2.83,0.13,-1.99,-2.37,
3.898,3.87,-3.91,4.03,0.13,-1.99,-2.37,
3.899,3.87,-3.91,4.03,0.18,-1.99,-2.38,
3.9,3.87,-3.91,4.03,0.23,-2.00,-2.38,
3.903,3.87,-3.91,4.03,0.31,-2.02,-2.39,
3.903,3.87,-3.91,4.03,0.34,-2.03,-2.39,
3.935,3.87,-3.91,4.03,0.38,-2.05,-2.40,
3.936,3.42,-4.18,4.03,0.38,-2.05,-2.40,
3.936,3.42,-4.18,4.03,0.43,-2.08,-2.40,
3.937,3.42,-4.18,4.03,0.46,-2.11,-2.41,
3.937,3.42,-4.18,4.03,0.51,-2.18,-2.42,
3.938,3.42,-4.18,4.03,0.53,-2.20,-2.42,
3.941,3.42,-4.18,4.03,0.56,-2.26,-2.42,
3.942,3.32,-4.33,3.54,0.56,-2.26,-2.42,
3.942,3.32,-4.33,3.54,0.60,-2.31,-2.43,
3.942,3.32,-4.33,3.54,0.63,-2.37,-2.43,
3.943,3.32,-4.33,3.54,0.69,-2.47,-2.44,
3.943,3.32,-4.33,3.54,0.71,-2.51,-2.44,
3.944,3.32,-4.33,3.54,0.74,-2.58,-2.45,
3.944,3.35,-4.51,2.96,0.74,-2.58,-2.45,
3.945,3.35,-4.51,2.96,0.80,-2.70,-2.46,
3.945,3.35,-4.51,2.96,0.82,-2.74,-2.46,
3.945,3.35,-4.51,2.96,0.86,-2.87,-2.46,
3.946,3.35,-4.51,2.96,0.87,-2.92,-2.46,
3.946,3.35,-4.51,2.96,0.89,-3.01,-2.46,
3.947,3.41,-4.58,2.04,0.89,-3.01,-2.46,
3.947,3.41,-4.58,2.04,0.90,-3.09,-2.46,
3.948,3.41,-4.58,2.04,0.91,-3.18,-2.46,
3.948,3.41,-4.58,2.04,0.91,-3.30,-2.45,
3.949,3.41,-4.58,2.04,0.91,-3.34,-2.44,
3.949,3.41,-4.58,2.04,0.90,-3.41,-2.44,
3.949,3.48,-4.77,1.29,0.90,-3.41,-2.44,
3.95,3.48,-4.77,1.29,0.90,-3.47,-2.43,
3.95,3.48,-4.77,1.29,0.88,-3.52,-2.42,
3.955,3.48,-4.77,1.29,0.85,-3.57,-2.40,
3.956,3.48,-4.77,1.29,0.83,-3.57,-2.39,
3.957,3.48,-4.77,1.29,0.80,-3.58,-2.38,
3.96,3.99,-4.73,0.71,0.80,-3.58,-2.38,
3.961,3.99,-4.73,0.71,0.76,-3.57,-2.37,
3.961,3.99,-4.73,0.71,0.71,-3.55,-2.37,
3.966,3.99,-4.73,0.71,0.63,-3.50,-2.36,
3.967,3.99,-4.73,0.71,0.60,-3.48,-2.36,
3.967,3.99,-4.73,0.71,0.55,-3.43,-2.35,
3.968,4.49,-4.75,0.78,0.55,-3.43,-2.35,
3.968,4.49,-4.75,0.78,0.50,-3.37,-2.35,
3.972,4.49,-4.75,0.78,0.45,-3.30,-2.34,
3.972,4.49,-4.75,0.78,0.38,-3.18,-2.33,
3.974,4.49,-4.75,0.78,0.35,-3.13,-2.32,
3.976,4.49,-4.75,0.78,0.31,-3.03,-2.31,
3.996,4.89,-4.65,1.41,0.31,-3.03,-2.31,
3.997,4.89,-4.65,1.41,0.26,-2.91,-2.30,
3.998,4.89,-4.65,1.41,0.21,-2.79,-2.28,
3.998,4.89,-4.65,1.41,0.14,-2.59,-2.25,
3.999,4.89,-4.65,1.41,0.11,-2.51,-2.24,
3.999,4.89,-4.65,1.41,0.06,-2.37,-2.22,
3.999,4.59,-4.78,1.82,0.06,-2.37,-2.22,
4.002,4.59,-4.78,1.82,0.01,-2.24,-2.19,
4.003,4.59,-4.78,1.82,-0.04,-2.12,-2.17,
4.003,4.59,-4.78,1.82,-0.10,-1.95,-2.14,
4.004,4.59,-4.78,1.82,-0.12,-1.90,-2.13,
4.004,4.59,-4.78,1.82,-0.16,-1.80,-2.11,
4.004,4.37,-4.71,1.95,-0.16,-1.80,-2.11,
4.005,4.37,-4.71,1.95,-0.20,-1.71,-2.09,
4.005,4.37,-4.71,1.95,-0.22,-1.63,-2.08,
4.005,4.37,-4.71,1.95,-0.27,-1.51,-2.05,
4.006,4.37,-4.71,1.95,-0.28,-1.48,-2.05,
4.006,4.37,-4.71,1.95,-0.30,-1.42,-2.03,
4.008,4.03,-4.76,1.79,-0.30,-1.42,-2.03,
4.009,4.03,-4.76,1.79,-0.33,-1.37,-2.02,
4.016,4.03,-4.76,1.79,-0.35,-1.32,-2.00,
4.018,4.03,-4.76,1.79,-0.39,-1.28,-1.99,
4.019,4.03,-4.76,1.79,-0.40,-1.26,-1.98,
4.019,4.03,-4.76,1.79,-0.42,-1.25,-1.98,
4.02,3.87,-4.98,1.22,-0.42,-1.25,-1.98,
4.02,3.87,-4.98,1.22,-0.43,-1.25,-1.97,
4.021,3.87,-4.98,1.22,-0.44,-1.27,-1.97,
4.025,3.87,-4.98,1.22,-0.45,-1.33,-1.98,
4.026,3.87,-4.98,1.22,-0.45,-1.36,-1.98,
4.026,3.87,-4.98,1.22,-0.43,-1.44,-1.99,
4.033,3.93,-5.13,1.04,-0.43,-1.44,-1.99,
4.034,3.93,-5.13,1.04,-0.42,-1.52,-2.00,
4.034,3.93,-5.13,1.04,-0.40,-1.62,-2.02,
4.035,3.93,-5.13,1.04,-0.37,-1.79,-2.04,
4.035,3.93,-5.13,1.04,-0.36,-1.85,-2.05,
4.036,3.93,-5.13,1.04,-0.34,-1.99,-2.07,
4.038,4.20,-5.39,0.54,-0.34,-1.99,-2.07,
4.04,4.20,-5.39,0.54,-0.32,-2.13,-2.09,
4.041,4.20,-5.39,0.54,-0.30,-2.28,-2.11,
4.045,4.20,-5.39,0.54,-0.28,-2.51,-2.14,
4.045,4.20,-5.39,0.54,-0.27,-2.59,-2.14,
4.047,4.20,-5.39,0.54,-0.27,-2.75,-2.16,
4.048,4.16,-5.61,0.50,-0.27,-2.75,-2.16,
4.052,4.16,-5.61,0.50,-0.26,-3.02,-2.19,
4.054,4.16,-5.61,0.50,-0.27,-3.20,-2.21,
4.054,4.16,-5.61,0.50,-0.27,-3.20,-2.21,
4.057,4.16,-5.61,0.50,-0.27,-3.25,-2.21,
4.058,4.16,-5.61,0.50,-0.28,-3.33,-2.22,
4.058,4.13,-5.98,0.87,-0.28,-3.33,-2.22,
4.059,4.13,-5.98,0.87,-0.29,-3.40,-2.22,
4.061,4.13,-5.98,0.87,-0.29,-3.46,-2.22,
4.064,4.13,-5.98,0.87,-0.30,-3.53,-2.20,
4.065,4.13,-5.98,0.87,-0.31,-3.55,-2.20,
4.066,4.13,-5.98,0.87,-0.31,-3.58,-2.18,
4.067,4.12,-6.18,2.24,-0.31,-3.58,-2.18,
4.068,4.12,-6.18,2.24,-0.31,-3.59,-2.16,
4.07,4.12,-6.18,2.24,-0.31,-3.59,-2.13,
4.099,4.12,-6.18,2.24,-0.30,-3.58,-2.10,
4.1,4.12,-6.18,2.24,-0.30,-3.56,-2.09,
4.1,4.12,-6.18,2.24,-0.29,-3.53,-2.07,
4.1,3.90,-6.14,3.96,-0.29,-3.53,-2.07,
4.101,3.90,-6.14,3.96,-0.28,-3.48,-2.04,
4.101,3.90,-6.14,3.96,-0.27,-3.42,-2.01,
4.102,3.90,-6.14,3.96,-0.26,-3.31,-1.96,
4.102,3.90,-6.14,3.96,-0.26,-3.27,-1.95,
4.103,3.90,-6.14,3.96,-0.27,-3.19,-1.91,
4.103,3.95,-5.85,4.14,-0.27,-3.19,-1.91,
4.103,3.95,-5.85,4.14,-0.28,-3.09,-1.87,
4.104,3.95,-5.85,4.14,-0.31,-3.00,-1.83,
4.104,3.95,-5.85,4.14,-0.36,-2.85,-1.78,
4.105,3.95,-5.85,4.14,-0.38,-2.79,-1.76,
4.105,3.95,-5.85,4.14,-0.43,-2.68,-1.73,
4.106,4.27,-5.63,2.90,-0.43,-2.68,-1.73,
4.106,4.27,-5.63,2.90,-0.50,-2.56,-1.70,
4.107,4.27,-5.63,2.90,-0.56,-2.42,-1.67,
4.107,4.27,-5.63,2.90,-0.67,-2.20,-1.64,
4.107,4.27,-5.63,2.90,-0.71,-2.13,-1.63,
4.108,4.27,-5.63,2.90,-0.79,-1.97,-1.62,
4.108,5.16,-5.54,1.38,-0.79,-1.97,-1.62,
4.109,5.16,-5.54,1.38,-0.87,-1.80,-1.62,
4.12,5.16,-5.54,1.38,-0.95,-1.63,-1.61,
4.122,5.16,-5.54,1.38,-1.06,-1.37,-1.60,
4.122,5.16,-5.54,1.38,-1.10,-1.29,-1.59,
4.123,5.16,-5.54,1.38,-1.18,-1.14,-1.58,
4.123,6.01,-5.25,0.40,-1.18,-1.14,-1.58,
4.124,6.01,-5.25,0.40,-1.24,-1.01,-1.58,
4.124,6.01,-5.25,0.40,-1.31,-0.90,-1.57,
4.124,6.01,-5.25,0.40,-1.41,-0.76,-1.56,
4.125,6.01,-5.25,0.40,-1.44,-0.73,-1.56,
4.128,6.01,-5.25,0.40,-1.50,-0.66,-1.56,
4.129,6.45,-5.14,-0.12,-1.50,-0.66,-1.56,
4.129,6.45,-5.14,-0.12,-1.56,-0.60,-1.56,
4.141,6.45,-5.14,-0.12,-1.62,-0.55,-1.57,
4.142,6.45,-5.14,-0.12,-1.70,-0.50,-1.58,
4.142,6.45,-5.14,-0.12,-1.72,-0.50,-1.58,
4.143,6.45,-5.14,-0.12,-1.76,-0.49,-1.60,
4.143,7.24,-4.91,-0.52,-1.76,-0.49,-1.60,
4.143,7.24,-4.91,-0.52,-1.80,-0.50,-1.62,
4.144,7.24,-4.91,-0.52,-1.83,-0.54,-1.65,
4.144,7.24,-4.91,-0.52,-1.86,-0.65,-1.71,
4.145,7.24,-4.91,-0.52,-1.86,-0.70,-1.73,
4.156,7.24,-4.91,-0.52,-1.84,-0.81,-1.78,
4.161,7.91,-4.63,0.54,-1.84,-0.81,-1.78,
4.163,7.91,-4.63,0.54,-1.81,-0.95,-1.83,
4.165,7.91,-4.63,0.54,-1.76,-1.09,-1.89,
4.166,7.91,-4.63,0.54,-1.65,-1.34,-1.98,
4.167,7.91,-4.63,0.54,-1.61,-1.42,-2.01,
4.168,7.91,-4.63,0.54,-1.50,-1.59,-2.07,
4.169,8.67,-4.48,3.15,-1.50,-1.59,-2.07,
4.17,8.67,-4.48,3.15,-1.37,-1.75,-2.13,
4.171,8.67,-4.48,3.15,-1.21,-1.91,-2.19,
4.171,8.67,-4.48,3.15,-0.96,-2.15,-2.27,
4.172,8.67,-4.48,3.15,-0.87,-2.23,-2.30,
4.172,8.67,-4.48,3.15,-0.68,-2.39,-2.34,
4.173,8.47,-4.64,5.71,-0.68,-2.39,-2.34,
4.173,8.47,-4.64,5.71,-0.49,-2.54,-2.38,
4.173,8.47,-4.64,5.71,-0.29,-2.68,-2.42,
4.174,8.47,-4.64,5.71,-0.00,-2.88,-2.46,
4.174,8.47,-4.64,5.71,0.09,-2.94,-2.46,
4.177,8.47,-4.64,5.71,0.26,-3.04,-2.47,
4.178,7.03,-4.34,6.42,0.26,-3.04,-2.47,
4.178,7.03,-4.34,6.42,0.42,-3.13,-2.47,
4.182,7.03,-4.34,6.42,0.57,-3.21,-2.46,
4.184,7.03,-4.34,6.42,0.77,-3.33,-2.42,
4.185,7.03,-4.34,6.42,0.83,-3.36,-2.40,
4.187,7.03,-4.34,6.42,0.94,-3.43,-2.37,
4.188,5.93,-4.89,4.87,0.94,-3.43,-2.37,
4.189,5.93,-4.89,4.87,1.04,-3.47,-2.33,
4.19,5.93,-4.89,4.87,1.12,-3.50,-2.30,
4.195,5.93,-4.89,4.87,1.21,-3.53,-2.25,
4.2,5.93,-4.89,4.87,1.22,-3.53,-2.23,
4.2,5.93,-4.89,4.87,1.23,-3.51,-2.21,
4.201,6.76,-4.11,1.74,1.23,-3.51,-2.21,
4.201,6.76,-4.11,1.74,1.21,-3.49,-2.19,
4.202,6.76,-4.11,1.74,1.16,-3.45,-2.17,
4.203,6.76,-4.11,1.74,1.02,-3.33,-2.16,
4.204,6.76,-4.11,1.74,0.96,-3.28,-2.15,
4.206,6.76,-4.11,1.74,0.83,-3.16,-2.15,
4.208,8.84,-3.37,-3.44,0.83,-3.16,-2.15,
4.208,8.84,-3.37,-3.44,0.66,-2.99,-2.16,
4.213,8.84,-3.37,-3.44,0.48,-2.79,-2.17,
4.214,8.84,-3.37,-3.44,0.18,-2.43,-2.20,
4.215,8.84,-3.37,-3.44,0.07,-2.29,-2.22,
4.215,8.84,-3.37,-3.44,-0.16,-2.01,-2.25,
4.218,12.76,-2.25,-8.44,-0.16,-2.01,-2.25,
4.218,12.76,-2.25,-8.44,-0.39,-1.72,-2.28,
4.22,12.76,-2.25,-8.44,-0.64,-1.45,-2.32,
4.222,12.76,-2.25,-8.44,-1.02,-1.07,-2.38,
4.223,12.76,-2.25,-8.44,-1.14,-0.96,-2.41,
4.237,12.76,-2.25,-8.44,-1.39,-0.77,-2.45,
4.239,14.13,-1.86,-11.64,-1.39,-0.77,-2.45,
4.24,14.13,-1.86,-11.64,-1.62,-0.61,-2.50,
4.241,14.13,-1.86,-11.64,-1.84,-0.49,-2.54,
4.241,14.13,-1.86,-11.64,-2.12,-0.38,-2.60,
4.242,14.13,-1.86,-11.64,-2.20,-0.36,-2.61,
4.242,14.13,-1.86,-11.64,-2.33,-0.34,-2.63,
4.242,12.88,-3.37,-11.07,-2.33,-0.34,-2.63,
4.273,12.88,-3.37,-11.07,-2.42,-0.36,-2.65,
4.274,12.88,-3.37,-11.07,-2.47,-0.41,-2.65,
4.274,12.88,-3.37,-11.07,-2.47,-0.56,-2.65,
4.275,12.88,-3.37,-11.07,-2.45,-0.63,-2.65,
4.275,12.88,-3.37,-11.07,-2.38,-0.80,-2.65,
4.276,10.81,-5.43,-6.63,-2.38,-0.80,-2.65,
4.276,10.81,-5.43,-6.63,-2.28,-1.00,-2.65,
4.276,10.81,-5.43,-6.63,-2.14,-1.25,-2.67,
4.277,10.81,-5.43,-6.63,-1.88,-1.70,-2.67,
4.277,10.81,-5.43,-6.63,-1.78,-1.88,-2.65,
4.278,10.81,-5.43,-6.63,-1.57,-2.23,-2.62,
4.278,9.27,-6.79,-1.47,-1.57,-2.23,-2.62,
4.279,9.27,-6.79,-1.47,-1.32,-2.58,-2.64,
4.279,9.27,-6.79,-1.47,-1.05,-2.92,-2.69,
4.28,9.27,-6.79,-1.47,-0.58,-3.41,-2.82,
4.28,9.27,-6.79,-1.47,-0.42,-3.56,-2.88,
4.28,9.27,-6.79,-1.47,-0.07,-3.84,-2.98,
4.28,10.02,-7.54,3.64,-0.07,-3.84,-2.98,
4.281,10.02,-7.54,3.64,0.30,-4.09,-3.08,
4.281,10.02,-7.54,3.64,0.67,-4.31,-3.16,
4.281,10.02,-7.54,3.64,1.22,-4.60,-3.21,
4.281,10.02,-7.54,3.64,1.40,-4.68,-3.22,
4.282,10.02,-7.54,3.64,1.74,-4.84,-3.20,
4.282,8.29,-7.97,6.38,1.74,-4.84,-3.20,
4.282,8.29,-7.97,6.38,2.20,-5.04,-3.13,
4.283,8.29,-7.97,6.38,2.34,-5.11,-3.10,
4.283,8.29,-7.97,6.38,2.69,-5.27,-2.96,
4.285,8.29,-7.97,6.38,2.78,-5.30,-2.90,
4.286,8.29,-7.97,6.38,2.91,-5.34,-2.78,
4.288,6.73,-9.30,2.63,2.91,-5.34,-2.78,
4.288,6.73,-9.30,2.63,2.98,-5.35,-2.65,
4.29,6.73,-9.30,2.63,2.98,-5.31,-2.51,
4.297,6.73,-9.30,2.63,2.86,-5.17,-2.31,
4.298,6.73,-9.30,2.63,2.78,-5.11,-2.26,
4.298,6.73,-9.30,2.63,2.57,-4.96,-2.15,
4.299,8.05,-9.09,-5.86,2.57,-4.96,-2.15,
4.299,8.05,-9.09,-5.86,2.14,-4.68,-2.03,
4.3,8.05,-9.09,-5.86,1.97,-4.57,-2.01,
4.303,8.05,-9.09,-5.86,1.38,-4.19,-1.96,
4.304,8.05,-9.09,-5.86,1.16,-4.05,-1.96,
4.306,8.05,-9.09,-5.86,0.71,-3.73,-1.96,
4.308,12.39,-8.26,-14.27,0.71,-3.73,-1.96,
4.309,12.39,-8.26,-14.27,0.25,-3.39,-1.98,
4.312,12.39,-8.26,-14.27,-0.21,-3.03,-2.01,
4.316,12.39,-8.26,-14.27,-0.86,-2.51,-2.09,
4.317,12.39,-8.26,-14.27,-1.06,-2.35,-2.12,
4.318,12.39,-8.26,-14.27,-1.43,-2.08,-2.20,
4.319,14.27,-10.49,-15.68,-1.43,-2.08,-2.20,
4.32,14.27,-10.49,-15.68,-1.74,-1.89,-2.29,
4.327,14.27,-10.49,-15.68,-1.99,-1.79,-2.39,
4.328,14.27,-10.49,-15.68,-2.24,-1.83,-2.52,
4.328,14.27,-10.49,-15.68,-2.29,-1.89,-2.56,
4.328,14.27,-10.49,-15.68,-2.33,-2.10,-2.63,
4.333,11.28,-15.69,-7.75,-2.33,-2.10,-2.63,
4.335,11.28,-15.69,-7.75,-2.30,-2.43,-2.66,
4.336,11.28,-15.69,-7.75,-2.19,-2.88,-2.67,
4.337,11.28,-15.69,-7.75,-1.87,-3.76,-2.60,
4.337,11.28,-15.69,-7.75,-1.73,-4.09,-2.56,
4.338,11.28,-15.69,-7.75,-1.39,-4.80,-2.40,
4.338,2.75,-22.05,6.74,-1.39,-4.80,-2.40,
4.339,2.75,-22.05,6.74,-0.98,-5.55,-2.11,
4.341,2.75,-22.05,6.74,-0.53,-6.29,-1.81,
4.344,2.75,-22.05,6.74,0.21,-7.29,-1.35,
4.346,2.75,-22.05,6.74,0.46,-7.57,-1.19,
4.347,2.75,-22.05,6.74,0.97,-8.05,-0.86,
4.35,-5.38,-23.48,19.60,0.97,-8.05,-0.86,
4.35,-5.38,-23.48,19.60,1.47,-8.41,-0.52,
4.35,-5.38,-23.48,19.60,1.94,-8.64,-0.16,
4.353,-5.38,-23.48,19.60,2.56,-8.69,0.39,
4.355,-5.38,-23.48,19.60,2.73,-8.63,0.57,
4.356,-5.38,-23.48,19.60,3.04,-8.38,0.93,
4.358,-7.88,-20.31,20.02,3.04,-8.38,0.93,
4.36,-7.88,-20.31,20.02,3.27,-7.96,1.27,
4.361,-7.88,-20.31,20.02,3.42,-7.37,1.60,
4.375,-7.88,-20.31,20.02,3.46,-6.20,2.02,
4.376,-7.88,-20.31,20.02,3.42,-5.75,2.13,
4.377,-7.88,-20.31,20.02,3.26,-4.77,2.32,
4.377,-2.52,-14.81,6.82,3.26,-4.77,2.32,
4.378,-2.52,-14.81,6.82,2.97,-3.74,2.45,
4.378,-2.52,-14.81,6.82,2.56,-2.71,2.58,
4.378,-2.52,-14.81,6.82,1.75,-1.21,2.64,
4.379,-2.52,-14.81,6.82,1.44,-0.73,2.61,
4.379,-2.52,-14.81,6.82,0.76,0.19,2.50,
4.379,5.20,-8.18,-13.60,0.76,0.19,2.50,
4.384,5.20,-8.18,-13.60,0.04,1.04,2.32,
4.385,5.20,-8.18,-13.60,-0.71,1.82,2.12,
4.385,5.20,-8.18,-13.60,-1.84,2.87,1.77,
4.386,5.20,-8.18,-13.60,-2.21,3.17,1.65,
4.386,5.20,-8.18,-13.60,-2.92,3.69,1.43,
4.39,6.94,-4.69,-25.15,-2.92,3.69,1.43,
4.391,6.94,-4.69,-25.15,-3.58,4.07,1.24,
4.392,6.94,-4.69,-25.15,-4.17,4.27,1.09,
4.396,6.94,-4.69,-25.15,-4.88,4.27,0.95,
4.397,6.94,-4.69,-25.15,-5.06,4.18,0.92,
4.398,6.94,-4.69,-25.15,-5.35,3.84,0.88,
4.398,-0.62,-5.76,-20.04,-5.35,3.84,0.88,
4.399,-0.62,-5.76,-20.04,-5.53,3.29,0.87,
4.4,-0.62,-5.76,-20.04,-5.58,2.54,0.88,
4.403,-0.62,-5.76,-20.04,-5.45,1.08,1.09,
4.404,-0.62,-5.76,-20.04,-5.35,0.54,1.18,
4.434,-0.62,-5.76,-20.04,-5.06,-0.56,1.34,
4.435,-6.51,-6.60,-4.23,-5.06,-0.56,1.34,
4.435,-6.51,-6.60,-4.23,-4.67,-1.63,1.46,
4.436,-6.51,-6.60,-4.23,-4.18,-2.62,1.56,
4.436,-6.51,-6.60,-4.23,-3.31,-3.97,1.66,
4.437,-6.51,-6.60,-4.23,-2.99,-4.37,1.69,
4.437,-6.51,-6.60,-4.23,-2.36,-5.05,1.74,
4.438,-4.09,-4.21,9.23,-2.36,-5.05,1.74,
4.438,-4.09,-4.21,9.23,-1.74,-5.62,1.78,
4.438,-4.09,-4.21,9.23,-1.18,-6.10,1.79,
4.439,-4.09,-4.21,9.23,-0.50,-6.70,1.76,
4.439,-4.09,-4.21,9.23,-0.32,-6.87,1.75,
4.44,-4.09,-4.21,9.23,-0.01,-7.13,1.75,
4.44,-5.01,6.98,9.12,-0.01,-7.13,1.75,
4.44,-5.01,6.98,9.12,0.25,-7.31,1.77,
4.44,-5.01,6.98,9.12,0.47,-7.40,1.80,
4.441,-5.01,6.98,9.12,0.74,-7.39,1.85,
4.441,-5.01,6.98,9.12,0.81,-7.35,1.87,
4.441,-5.01,6.98,9.12,0.92,-7.21,1.91,
4.442,-1.13,12.79,1.04,0.92,-7.21,1.91,
4.442,-1.13,12.79,1.04,0.97,-6.98,1.93,
4.442,-1.13,12.79,1.04,0.94,-6.66,1.94,
4.442,-1.13,12.79,1.04,0.71,-5.96,1.89,
4.447,-1.13,12.79,1.04,0.57,-5.68,1.85,
4.448,-1.13,12.79,1.04,0.23,-5.06,1.71,
4.448,14.40,15.30,-15.37,0.23,-5.06,1.71,
4.449,14.40,15.30,-15.37,-0.19,-4.42,1.49,
4.452,14.40,15.30,-15.37,-0.69,-3.79,1.19,
4.455,14.40,15.30,-15.37,-1.52,-2.95,0.58,
4.456,14.40,15.30,-15.37,-1.81,-2.73,0.34,
4.456,14.40,15.30,-15.37,-2.41,-2.37,-0.18,
4.459,36.53,16.79,-34.43,-2.41,-2.37,-0.18,
4.46,36.53,16.79,-34.43,-3.01,-2.15,-0.77,
4.461,36.53,16.79,-34.43,-3.61,-2.08,-1.42,
4.465,36.53,16.79,-34.43,-4.45,-2.32,-2.50,
4.466,36.53,16.79,-34.43,-4.71,-2.49,-2.88,
4.467,36.53,16.79,-34.43,-5.18,-2.98,-3.68,
4.468,53.86,6.07,-39.47,-5.18,-2.98,-3.68,
4.468,53.86,6.07,-39.47,-5.55,-3.64,-4.49,
4.47,53.86,6.07,-39.47,-5.80,-4.49,-5.27,
4.473,53.86,6.07,-39.47,-5.89,-6.09,-6.38,
4.474,53.86,6.07,-39.47,-5.84,-6.70,-6.72,
4.476,53.86,6.07,-39.47,-5.63,-8.01,-7.40,
4.478,53.96,-8.72,-13.60,-5.63,-8.01,-7.40,
4.478,53.96,-8.72,-13.60,-5.28,-9.41,-8.05,
4.48,53.96,-8.72,-13.60,-4.78,-10.82,-8.60,
4.483,53.96,-8.72,-13.60,-3.77,-12.95,-9.16,
4.484,53.96,-8.72,-13.60,-3.37,-13.65,-9.25,
4.486,53.96,-8.72,-13.60,-2.51,-15.02,-9.32,
4.491,29.05,-13.81,29.21,-2.51,-15.02,-9.32,
4.492,29.05,-13.81,29.21,-1.57,-16.39,-9.23,
4.493,29.05,-13.81,29.21,-0.64,-17.87,-8.98,
4.494,29.05,-13.81,29.21,0.67,-20.27,-8.35,
4.506,29.05,-13.81,29.21,1.12,-20.94,-8.08,
4.508,29.05,-13.81,29.21,2.00,-21.77,-7.55,
4.509,-22.37,6.40,54.00,2.00,-21.77,-7.55,
4.51,-22.37,6.40,54.00,2.81,-21.77,-7.09,
4.511,-22.37,6.40,54.00,3.48,-21.01,-6.67,
4.513,-22.37,6.40,54.00,4.02,-18.96,-5.74,
4.518,-22.37,6.40,54.00,3.98,-18.17,-5.28,
4.518,-22.37,6.40,54.00,3.36,-16.85,-3.95,
4.519,6.87,-55.61,-10.56,3.36,-16.85,-3.95,
4.519,6.87,-55.61,-10.56,1.89,-16.45,-1.93,
4.519,6.87,-55.61,-10.56,-0.64,-17.51,0.58,
4.52,6.87,-55.61,-10.56,-5.92,-20.81,4.86,
4.52,6.87,-55.61,-10.56,-7.77,-21.90,6.24,
4.52,6.87,-55.61,-10.56,-11.22,-23.13,8.76,
4.521,40.11,-76.96,-68.40,-11.22,-23.13,8.76,
4.521,40.11,-76.96,-68.40,-11.87,-8.35,10.26,
4.521,40.11,-76.96,-68.40,-5.14,29.55,7.00,
4.539,40.11,-76.96,-68.40,-0.94,34.87,0.39,
4.54,40.11,-76.96,-68.40,-1.53,32.00,-0.27,
4.54,40.11,-76.96,-68.40,-2.17,21.73,0.48,
4.54,59.46,-51.67,48.74,-2.17,21.73,0.48,
4.541,59.46,-51.67,48.74,-4.10,13.54,3.20,
4.541,59.46,-51.67,48.74,-6.32,7.84,5.74,
4.541,59.46,-51.67,48.74,-8.54,0.44,7.19,
4.541,59.46,-51.67,48.74,-9.06,-1.75,7.14,
4.542,59.46,-51.67,48.74,-10.00,-4.60,6.25,
4.542,52.89,-2.23,16.46,-10.00,-4.60,6.25,
4.543,52.89,-2.23,16.46,-10.97,-4.81,4.45,
4.543,52.89,-2.23,16.46,-12.11,-3.45,1.75,
4.543,52.89,-2.23,16.46,-13.53,-2.67,-3.17,
4.551,52.89,-2.23,16.46,-13.81,-2.87,-4.62,
4.555,52.89,-2.23,16.46,-14.01,-3.51,-6.67,
4.557,75.90,-38.75,5.61,-14.01,-3.51,-6.67,
4.562,75.90,-38.75,5.61,-13.72,-3.88,-7.54,
4.563,75.90,-38.75,5.61,-12.98,-3.92,-7.50,
4.566,75.90,-38.75,5.61,-11.01,-3.19,-6.38,
4.57,75.90,-38.75,5.61,-10.17,-2.78,-5.80,
4.57,75.90,-38.75,5.61,-8.26,-1.77,-4.73,
4.571,30.14,-37.99,60.24,-8.26,-1.77,-4.73,
4.571,30.14,-37.99,60.24,-6.17,-0.20,-4.06,
4.572,30.14,-37.99,60.24,-3.84,1.88,-3.81,
4.572,30.14,-37.99,60.24,-0.07,5.27,-3.91,
4.572,30.14,-37.99,60.24,1.16,6.27,-3.98,
4.573,30.14,-37.99,60.24,3.47,7.97,-3.98,
4.573,7.69,-31.22,68.00,3.47,7.97,-3.98,
4.573,7.69,-31.22,68.00,5.48,9.04,-3.69,
4.574,7.69,-31.22,68.00,7.10,9.56,-3.11,
4.6,7.69,-31.22,68.00,8.86,9.67,-2.00,
4.601,7.69,-31.22,68.00,9.29,9.63,-1.62,
4.601,7.69,-31.22,68.00,10.02,9.47,-0.92,
4.602,-9.75,-31.92,43.76,10.02,9.47,-0.92,
4.602,-9.75,-31.92,43.76,10.60,9.40,-0.23,
4.603,-9.75,-31.92,43.76,11.07,9.40,0.47,
4.603,-9.75,-31.92,43.76,11.56,9.40,1.59,
4.603,-9.75,-31.92,43.76,11.66,9.39,1.98,
4.604,-9.75,-31.92,43.76,11.75,9.33,2.75,
4.604,-13.11,-36.62,-3.36,11.75,9.33,2.75,
4.605,-13.11,-36.62,-3.36,11.65,9.27,3.48,
4.605,-13.11,-36.62,-3.36,11.41,9.20,4.15,
4.605,-13.11,-36.62,-3.36,10.79,9.16,5.02,
4.606,-13.11,-36.62,-3.36,10.55,9.17,5.28,
4.606,-13.11,-36.62,-3.36,10.02,9.25,5.77,
4.607,-6.17,-37.33,-39.56,10.02,9.25,5.77,
4.607,-6.17,-37.33,-39.56,9.48,9.37,6.18,
4.607,-6.17,-37.33,-39.56,8.90,9.57,6.53,
4.608,-6.17,-37.33,-39.56,8.02,9.93,6.90,
4.608,-6.17,-37.33,-39.56,7.71,10.07,6.98,
4.608,-6.17,-37.33,-39.56,7.12,10.33,7.06,
4.608,9.51,-31.90,-52.39,7.12,10.33,7.06,
4.609,9.51,-31.90,-52.39,6.52,10.56,7.04,
4.613,9.51,-31.90,-52.39,5.94,10.74,6.91,
4.614,9.51,-31.90,-52.39,5.10,10.92,6.50,
4.615,9.51,-31.90,-52.39,4.82,10.95,6.32,
4.618,9.51,-31.90,-52.39,4.29,10.94,5.87,
4.618,27.39,-16.86,-55.53,4.29,10.94,5.87,
4.619,27.39,-16.86,-55.53,3.76,10.83,5.37,
4.622,27.39,-16.86,-55.53,3.26,10.58,4.82,
4.622,27.39,-16.86,-55.53,2.56,10.00,3.92,
4.626,27.39,-16.86,-55.53,2.36,9.74,3.59,
4.627,27.39,-16.86,-55.53,2.01,9.18,2.90,
4.631,34.75,-3.29,-51.26,2.01,9.18,2.90,
4.632,34.75,-3.29,-51.26,1.62,8.22,1.78,
4.632,34.75,-3.29,-51.26,1.44,7.58,0.99,
4.633,34.75,-3.29,-51.26,1.34,6.90,0.20,
4.636,34.75,-3.29,-51.26,1.32,6.56,-0.18,
4.636,34.75,-3.29,-51.26,1.32,5.84,-0.89,
4.639,34.36,1.62,-39.46,1.32,5.84,-0.89,
4.64,34.36,1.62,-39.46,1.36,5.10,-1.53,
4.641,34.36,1.62,-39.46,1.44,4.33,-2.07,
4.649,34.36,1.62,-39.46,1.60,3.16,-2.68,
4.65,34.36,1.62,-39.46,1.67,2.76,-2.82,
4.651,34.36,1.62,-39.46,1.80,1.98,-3.01,
4.651,23.12,-2.38,-30.23,1.80,1.98,-3.01,
4.651,23.12,-2.38,-30.23,1.95,1.23,-3.04,
4.652,23.12,-2.38,-30.23,2.10,0.52,-2.94,
4.654,23.12,-2.38,-30.23,2.31,-0.40,-2.58,
4.654,23.12,-2.38,-30.23,2.38,-0.67,-2.42,
4.658,23.12,-2.38,-30.23,2.51,-1.13,-2.05,
4.67,1.50,-8.25,-22.60,2.51,-1.13,-2.05,
4.671,1.50,-8.25,-22.60,2.62,-1.51,-1.65,
4.671,1.50,-8.25,-22.60,2.69,-1.79,-1.22,
4.671,1.50,-8.25,-22.60,2.73,-2.08,-0.55,
4.672,1.50,-8.25,-22.60,2.69,-2.16,-0.10,
4.672,1.50,-8.25,-22.60,2.66,-2.19,0.14,
4.672,-14.51,-10.68,-20.49,2.66,-2.19,0.14,
4.673,-14.51,-10.68,-20.49,2.56,-2.18,0.60,
4.673,-14.51,-10.68,-20.49,2.41,-2.14,1.04,
4.673,-14.51,-10.68,-20.49,2.13,-1.99,1.67,
4.674,-14.51,-10.68,-20.49,2.05,-1.92,1.87,
4.686,-14.51,-10.68,-20.49,1.91,-1.75,2.29,
4.687,-19.37,-10.83,-20.24,1.91,-1.75,2.29,
4.688,-19.37,-10.83,-20.24,1.77,-1.52,2.68,
4.689,-19.37,-10.83,-20.24,1.65,-1.29,3.05,
4.69,-19.37,-10.83,-20.24,1.50,-0.96,3.56,
4.69,-19.37,-10.83,-20.24,1.45,-0.87,3.71,
4.691,-19.37,-10.83,-20.24,1.39,-0.67,3.99,
4.691,-17.31,-9.32,-15.17,1.39,-0.67,3.99,
4.695,-17.31,-9.32,-15.17,1.35,-0.49,4.25,
4.695,-17.31,-9.32,-15.17,1.32,-0.31,4.47,
4.697,-17.31,-9.32,-15.17,1.30,-0.07,4.71,
4.698,-17.31,-9.32,-15.17,1.28,-0.00,4.76,
4.698,-17.31,-9.32,-15.17,1.25,0.12,4.80,
4.699,-7.22,-9.32,-12.11,1.25,0.12,4.80,
4.699,-7.22,-9.32,-12.11,1.20,0.24,4.78,
4.7,-7.22,-9.32,-12.11,1.14,0.34,4.70,
4.703,-7.22,-9.32,-12.11,1.00,0.44,4.49,
4.704,-7.22,-9.32,-12.11,0.95,0.45,4.39,
4.706,-7.22,-9.32,-12.11,0.82,0.45,4.18,
4.708,4.58,-5.96,-13.69,0.82,0.45,4.18,
4.709,4.58,-5.96,-13.69,0.69,0.40,3.93,
4.711,4.58,-5.96,-13.69,0.54,0.29,3.66,
4.713,4.58,-5.96,-13.69,0.34,0.04,3.20,
4.714,4.58,-5.96,-13.69,0.21,-0.18,2.87,
4.716,4.58,-5.96,-13.69,0.15,-0.30,2.71,
4.718,13.63,-2.84,-14.72,0.15,-0.30,2.71,
4.72,13.63,-2.84,-14.72,0.04,-0.58,2.37,
4.72,13.63,-2.84,-14.72,-0.05,-0.88,2.02,
4.723,13.63,-2.84,-14.72,-0.16,-1.38,1.49,
4.725,13.63,-2.84,-14.72,-0.19,-1.56,1.31,
4.728,13.63,-2.84,-14.72,-0.23,-1.95,0.96,
4.728,18.62,-1.46,-11.78,-0.23,-1.95,0.96,
4.729,18.62,-1.46,-11.78,-0.25,-2.34,0.62,
4.73,18.62,-1.46,-11.78,-0.28,-2.75,0.29,
4.733,18.62,-1.46,-11.78,-0.32,-3.36,-0.15,
4.734,18.62,-1.46,-11.78,-0.33,-3.56,-0.28,
4.736,18.62,-1.46,-11.78,-0.35,-3.96,-0.53,
4.737,19.54,-2.06,-8.40,-0.35,-3.96,-0.53,
4.771,19.54,-2.06,-8.40,-0.32,-4.29,-0.80,
4.771,19.54,-2.06,-8.40,-0.27,-4.63,-1.04,
4.772,19.54,-2.06,-8.40,-0.22,-5.15,-1.20,
4.772,19.54,-2.06,-8.40,-0.20,-5.30,-1.20,
4.773,19.54,-2.06,-8.40,-0.17,-5.56,-1.14,
4.773,14.02,-3.97,-3.54,-0.17,-5.56,-1.14,
4.777,14.02,-3.97,-3.54,-0.14,-5.77,-0.99,
4.778,14.02,-3.97,-3.54,-0.10,-5.91,-0.78,
4.778,14.02,-3.97,-3.54,-0.05,-6.01,-0.38,
4.778,14.02,-3.97,-3.54,-0.03,-6.01,-0.23,
4.779,14.02,-3.97,-3.54,0.00,-5.97,0.08,
4.779,5.86,-6.60,0.66,0.00,-5.97,0.08,
4.78,5.86,-6.60,0.66,0.04,-5.89,0.38,
4.78,5.86,-6.60,0.66,0.06,-5.75,0.68,
4.781,5.86,-6.60,0.66,0.07,-5.44,1.10,
4.781,5.86,-6.60,0.66,0.06,-5.31,1.23,
4.782,5.86,-6.60,0.66,0.02,-5.02,1.49,
4.782,1.07,-7.82,1.86,0.02,-5.02,1.49,
4.782,1.07,-7.82,1.86,-0.05,-4.68,1.72,
4.783,1.07,-7.82,1.86,-0.14,-4.30,1.96,
4.783,1.07,-7.82,1.86,-0.30,-3.68,2.29,
4.784,1.07,-7.82,1.86,-0.36,-3.45,2.40,
4.784,1.07,-7.82,1.86,-0.48,-3.00,2.61,
4.785,-2.34,-6.71,0.33,-0.48,-3.00,2.61,
4.785,-2.34,-6.71,0.33,-0.61,-2.54,2.81,
4.785,-2.34,-6.71,0.33,-0.73,-2.07,3.00,
4.786,-2.34,-6.71,0.33,-0.92,-1.39,3.27,
4.786,-2.34,-6.71,0.33,-0.99,-1.16,3.36,
4.787,-2.34,-6.71,0.33,-1.10,-0.73,3.52,
4.787,-1.64,-6.48,-0.14,-1.10,-0.73,3.52,
4.788,-1.64,-6.48,-0.14,-1.22,-0.31,3.67,
4.792,-1.64,-6.48,-0.14,-1.34,0.06,3.81,
4.794,-1.64,-6.48,-0.14,-1.50,0.54,3.97,
4.794,-1.64,-6.48,-0.14,-1.56,0.69,4.01,
4.798,-1.64,-6.48,-0.14,-1.68,0.98,4.07,
4.799,1.50,-5.98,0.08,-1.68,0.98,4.07,
4.8,1.50,-5.98,0.08,-1.80,1.26,4.10,
4.8,1.50,-5.98,0.08,-1.92,1.51,4.09,
4.805,1.50,-5.98,0.08,-2.10,1.82,4.00,
4.805,1.50,-5.98,0.08,-2.16,1.91,3.96,
4.806,1.50,-5.98,0.08,-2.26,2.05,3.85,
4.808,5.76,-4.89,-0.24,-2.26,2.05,3.85,
4.809,5.76,-4.89,-0.24,-2.36,2.14,3.70,
4.81,5.76,-4.89,-0.24,-2.43,2.14,3.53,
4.813,5.76,-4.89,-0.24,-2.49,1.99,3.22,
4.814,5.76,-4.89,-0.24,-2.48,1.79,2.98,
4.816,5.76,-4.89,-0.24,-2.46,1.67,2.85,
4.818,11.79,-4.15,2.39,-2.46,1.67,2.85,
4.818,11.79,-4.15,2.39,-2.40,1.37,2.57,
4.82,11.79,-4.15,2.39,-2.29,1.01,2.28,
4.823,11.79,-4.15,2.39,-2.07,0.38,1.81,
4.824,11.79,-4.15,2.39,-1.98,0.14,1.65,
4.827,11.79,-4.15,2.39,-1.78,-0.34,1.31,
4.843,16.14,-2.83,7.21,-1.78,-0.34,1.31,
4.845,16.14,-2.83,7.21,-1.55,-0.83,0.97,
4.845,16.14,-2.83,7.21,-1.30,-1.34,0.63,
4.845,16.14,-2.83,7.21,-0.91,-2.12,0.13,
4.845,16.14,-2.83,7.21,-0.78,-2.37,-0.04,
4.846,16.14,-2.83,7.21,-0.50,-2.88,-0.38,
4.846,17.87,-1.25,10.19,-0.50,-2.88,-0.38,
4.847,17.87,-1.25,10.19,-0.22,-3.35,-0.75,
4.847,17.87,-1.25,10.19,0.06,-3.81,-1.11,
4.847,17.87,-1.25,10.19,0.47,-4.43,-1.55,
4.848,17.87,-1.25,10.19,0.60,-4.60,-1.67,
4.848,17.87,-1.25,10.19,0.85,-4.93,-1.86,
4.848,15.45,-0.77,10.52,0.85,-4.93,-1.86,
4.849,15.45,-0.77,10.52,1.07,-5.21,-1.97,
4.852,15.45,-0.77,10.52,1.27,-5.46,-2.00,
4.853,15.45,-0.77,10.52,1.52,-5.75,-1.94,
4.856,15.45,-0.77,10.52,1.59,-5.82,-1.89,
4.857,15.45,-0.77,10.52,1.69,-5.92,-1.75,
4.866,6.25,-1.78,8.79,1.69,-5.92,-1.75,
4.868,6.25,-1.78,8.79,1.76,-5.98,-1.57,
4.868,6.25,-1.78,8.79,1.80,-6.03,-1.36,
4.869,6.25,-1.78,8.79,1.81,-6.02,-1.03,
4.869,6.25,-1.78,8.79,1.79,-5.96,-0.80,
4.869,6.25,-1.78,8.79,1.76,-5.92,-0.69,
4.87,-2.87,-1.15,5.13,1.76,-5.92,-0.69,
4.87,-2.87,-1.15,5.13,1.69,-5.82,-0.45,
4.871,-2.87,-1.15,5.13,1.58,-5.69,-0.22,
4.873,-2.87,-1.15,5.13,1.35,-5.49,0.15,
4.881,-2.87,-1.15,5.13,1.25,-5.42,0.27,
4.883,-2.87,-1.15,5.13,1.05,-5.27,0.52,
4.884,-9.31,1.16,0.24,1.05,-5.27,0.52,
4.884,-9.31,1.16,0.24,0.83,-5.10,0.78,
4.885,-9.31,1.16,0.24,0.58,-4.90,1.03,
4.885,-9.31,1.16,0.24,0.18,-4.52,1.40,
4.886,-9.31,1.16,0.24,0.03,-4.36,1.52,
4.886,-9.31,1.16,0.24,-0.28,-4.01,1.75,
4.888,-10.78,2.85,-3.34,-0.28,-4.01,1.75,
4.89,-10.78,2.85,-3.34,-0.61,-3.60,1.97,
4.891,-10.78,2.85,-3.34,-0.95,-3.14,2.17,
4.894,-10.78,2.85,-3.34,-1.49,-2.40,2.43,
