
time,ax,ay,az,wx,wy,wz,
0.003,-1.98,0.10,-3.14,-0.39,-0.33,0.30,
0.004,-1.98,0.10,-3.14,-0.42,-0.34,0.32,
0.004,-1.98,0.10,-3.14,-0.46,-0.38,0.34,
0.005,-1.98,0.10,-3.14,-0.50,-0.41,0.36,
0.005,-1.02,0.28,-2.41,-0.50,-0.41,0.36,
0.008,-1.02,0.28,-2.41,-0.52,-0.43,0.36,
0.008,-1.02,0.28,-2.41,-0.54,-0.46,0.36,
0.008,-1.02,0.28,-2.41,-0.55,-0.47,0.36,
0.009,-1.02,0.28,-2.41,-0.55,-0.48,0.35,
0.012,-1.02,0.28,-2.41,-0.54,-0.48,0.34,
0.013,0.37,0.39,-0.65,-0.54,-0.48,0.34,
0.013,0.37,0.39,-0.65,-0.53,-0.48,0.32,
0.015,0.37,0.39,-0.65,-0.50,-0.47,0.28,
0.016,0.37,0.39,-0.65,-0.49,-0.46,0.27,
0.019,0.37,0.39,-0.65,-0.47,-0.45,0.24,
0.022,0.37,0.39,-0.65,-0.45,-0.43,0.21,
0.023,1.41,0.52,0.60,-0.45,-0.43,0.21,
0.024,1.41,0.52,0.60,-0.42,-0.41,0.17,
0.026,1.41,0.52,0.60,-0.38,-0.38,0.11,
0.027,1.41,0.52,0.60,-0.36,-0.37,0.09,
0.029,1.41,0.52,0.60,-0.33,-0.35,0.05,
0.03,1.41,0.52,0.60,-0.30,-0.32,0.02,
0.033,1.79,0.50,1.25,-0.30,-0.32,0.02,
0.033,1.79,0.50,1.25,-0.27,-0.30,-0.02,
0.036,1.79,0.50,1.25,-0.22,-0.27,-0.06,
0.036,1.79,0.50,1.25,-0.21,-0.26,-0.08,
0.039,1.79,0.50,1.25,-0.18,-0.24,-0.10,
0.041,1.79,0.50,1.25,-0.16,-0.22,-0.12,
0.043,1.18,0.34,1.25,-0.16,-0.22,-0.12,
0.043,1.18,0.34,1.25,-0.14,-0.20,-0.13,
0.054,1.18,0.34,1.25,-0.11,-0.17,-0.13,
0.061,1.18,0.34,1.25,-0.10,-0.16,-0.13,
0.063,1.18,0.34,1.25,-0.08,-0.14,-0.13,
0.063,1.18,0.34,1.25,-0.07,-0.12,-0.12,
0.063,0.22,0.17,1.06,-0.07,-0.12,-0.12,
0.064,0.22,0.17,1.06,-0.05,-0.10,-0.11,
0.064,0.22,0.17,1.06,-0.04,-0.07,-0.09,
0.064,0.22,0.17,1.06,-0.03,-0.06,-0.08,
0.065,0.22,0.17,1.06,-0.02,-0.04,-0.06,
0.065,0.22,0.17,1.06,-0.01,-0.03,-0.04,
0.065,-0.46,-0.08,0.78,-0.01,-0.03,-0.04,
0.066,-0.46,-0.08,0.78,-0.01,-0.01,-0.02,
0.068,-0.46,-0.08,0.78,-0.00,0.02,0.01,
0.069,-0.46,-0.08,0.78,-0.00,0.03,0.02,
0.069,-0.46,-0.08,0.78,-0.00,0.05,0.05,
0.082,-0.46,-0.08,0.78,-0.00,0.07,0.07,
0.082,-0.58,-0.19,0.51,-0.00,0.07,0.07,
0.083,-0.58,-0.19,0.51,-0.00,0.09,0.09,
0.083,-0.58,-0.19,0.51,-0.01,0.11,0.11,
0.083,-0.58,-0.19,0.51,-0.01,0.12,0.12,
0.084,-0.58,-0.19,0.51,-0.01,0.14,0.13,
0.084,-0.58,-0.19,0.51,-0.01,0.15,0.14,
0.084,-0.24,-0.18,0.37,-0.01,0.15,0.14,
0.085,-0.24,-0.18,0.37,-0.02,0.17,0.14,
0.085,-0.24,-0.18,0.37,-0.02,0.19,0.15,
0.086,-0.24,-0.18,0.37,-0.02,0.19,0.16,
0.095,-0.24,-0.18,0.37,-0.02,0.20,0.16,
0.095,-0.24,-0.18,0.37,-0.02,0.21,0.15,
0.096,0.18,-0.10,0.50,-0.02,0.21,0.15,
0.096,0.18,-0.10,0.50,-0.01,0.21,0.15,
0.096,0.18,-0.10,0.50,-0.01,0.22,0.14,
0.097,0.18,-0.10,0.50,-0.01,0.22,0.14,
0.098,0.18,-0.10,0.50,-0.00,0.22,0.13,
0.1,0.18,-0.10,0.50,-0.00,0.22,0.12,
0.102,0.56,-0.03,0.61,-0.00,0.22,0.12,
0.103,0.56,-0.03,0.61,0.00,0.22,0.11,
0.107,0.56,-0.03,0.61,0.01,0.22,0.10,
0.107,0.56,-0.03,0.61,0.01,0.22,0.09,
0.109,0.56,-0.03,0.61,0.01,0.21,0.08,
0.11,0.56,-0.03,0.61,0.01,0.21,0.07,
0.112,0.71,0.04,0.48,0.01,0.21,0.07,
0.113,0.71,0.04,0.48,0.02,0.20,0.06,
0.115,0.71,0.04,0.48,0.02,0.18,0.04,
0.117,0.71,0.04,0.48,0.02,0.18,0.04,
0.119,0.71,0.04,0.48,0.03,0.17,0.03,
0.121,0.71,0.04,0.48,0.03,0.15,0.02,
0.123,0.60,0.11,0.31,0.03,0.15,0.02,
0.124,0.60,0.11,0.31,0.03,0.14,0.01,
0.126,0.60,0.11,0.31,0.04,0.11,0.00,
0.126,0.60,0.11,0.31,0.04,0.11,0.00,
0.128,0.60,0.11,0.31,0.04,0.09,-0.00,
0.13,0.60,0.11,0.31,0.05,0.07,-0.00,
0.132,0.27,0.08,0.14,0.05,0.07,-0.00,
0.133,0.27,0.08,0.14,0.05,0.06,-0.00,
0.136,0.27,0.08,0.14,0.06,0.03,-0.00,
0.141,0.27,0.08,0.14,0.06,0.02,-0.00,
0.143,0.27,0.08,0.14,0.06,0.01,0.00,
0.144,0.27,0.08,0.14,0.06,-0.01,0.00,
0.145,0.03,0.10,0.05,0.06,-0.01,0.00,
0.146,0.03,0.10,0.05,0.07,-0.02,0.00,
0.146,0.03,0.10,0.05,0.07,-0.04,0.01,
0.147,0.03,0.10,0.05,0.07,-0.05,0.01,
0.149,0.03,0.10,0.05,0.08,-0.05,0.01,
0.153,0.03,0.10,0.05,0.08,-0.06,0.01,
0.153,-0.01,0.06,0.03,0.08,-0.06,0.01,
0.159,-0.01,0.06,0.03,0.08,-0.07,0.01,
0.161,-0.01,0.06,0.03,0.09,-0.07,0.01,
0.162,-0.01,0.06,0.03,0.09,-0.07,0.01,
0.163,-0.01,0.06,0.03,0.09,-0.08,0.02,
0.163,-0.01,0.06,0.03,0.10,-0.08,0.02,
0.164,0.01,0.04,0.08,0.10,-0.08,0.02,
0.164,0.01,0.04,0.08,0.10,-0.09,0.02,
0.165,0.01,0.04,0.08,0.11,-0.09,0.02,
0.168,0.01,0.04,0.08,0.11,-0.09,0.02,
0.169,0.01,0.04,0.08,0.10,-0.09,0.02,
0.173,0.01,0.04,0.08,0.10,-0.10,0.02,
0.174,0.02,0.07,-0.05,0.10,-0.10,0.02,
0.174,0.02,0.07,-0.05,0.10,-0.10,0.03,
0.175,0.02,0.07,-0.05,0.09,-0.10,0.03,
0.176,0.02,0.07,-0.05,0.09,-0.10,0.03,
0.178,0.02,0.07,-0.05,0.09,-0.09,0.03,
0.18,0.02,0.07,-0.05,0.08,-0.09,0.03,
0.184,0.08,0.06,-0.23,0.08,-0.09,0.03,
0.184,0.08,0.06,-0.23,0.07,-0.08,0.03,
0.185,0.08,0.06,-0.23,0.07,-0.08,0.03,
0.201,0.08,0.06,-0.23,0.06,-0.08,0.03,
0.227,0.08,0.06,-0.23,0.06,-0.08,0.03,
0.227,0.08,0.06,-0.23,0.05,-0.07,0.03,
0.227,0.18,0.05,-0.21,0.05,-0.07,0.03,
0.227,0.18,0.05,-0.21,0.05,-0.07,0.03,
0.228,0.18,0.05,-0.21,0.05,-0.07,0.03,
0.228,0.18,0.05,-0.21,0.04,-0.07,0.03,
0.228,0.18,0.05,-0.21,0.04,-0.06,0.02,
0.229,0.18,0.05,-0.21,0.04,-0.06,0.02,
0.229,0.27,0.06,-0.03,0.04,-0.06,0.02,
0.229,0.27,0.06,-0.03,0.04,-0.05,0.02,
0.229,0.27,0.06,-0.03,0.04,-0.05,0.02,
0.23,0.27,0.06,-0.03,0.04,-0.05,0.02,
0.23,0.27,0.06,-0.03,0.04,-0.04,0.01,
0.23,0.27,0.06,-0.03,0.04,-0.04,0.01,
0.23,0.31,0.06,0.14,0.04,-0.04,0.01,
0.231,0.31,0.06,0.14,0.05,-0.04,0.01,
0.231,0.31,0.06,0.14,0.05,-0.04,0.00,
0.231,0.31,0.06,0.14,0.05,-0.04,-0.00,
0.232,0.31,0.06,0.14,0.05,-0.04,-0.01,
0.232,0.31,0.06,0.14,0.05,-0.03,-0.01,
0.232,0.36,0.07,0.19,0.05,-0.03,-0.01,
0.232,0.36,0.07,0.19,0.06,-0.03,-0.02,
0.233,0.36,0.07,0.19,0.06,-0.03,-0.03,
0.233,0.36,0.07,0.19,0.06,-0.03,-0.03,
0.233,0.36,0.07,0.19,0.06,-0.03,-0.03,
0.233,0.36,0.07,0.19,0.06,-0.03,-0.04,
0.234,0.40,0.06,0.10,0.06,-0.03,-0.04,
0.234,0.40,0.06,0.10,0.06,-0.03,-0.04,
0.24,0.40,0.06,0.10,0.06,-0.03,-0.05,
0.24,0.40,0.06,0.10,0.06,-0.03,-0.05,
0.24,0.40,0.06,0.10,0.06,-0.03,-0.06,
0.241,0.40,0.06,0.10,0.06,-0.03,-0.06,
0.243,0.37,0.05,0.03,0.06,-0.03,-0.06,
0.243,0.37,0.05,0.03,0.05,-0.03,-0.07,
0.245,0.37,0.05,0.03,0.06,-0.02,-0.08,
0.246,0.37,0.05,0.03,0.05,-0.03,-0.08,
0.248,0.37,0.05,0.03,0.05,-0.03,-0.08,
0.25,0.37,0.05,0.03,0.05,-0.03,-0.08,
0.253,0.26,0.01,-0.09,0.05,-0.03,-0.08,
0.254,0.26,0.01,-0.09,0.05,-0.03,-0.08,
0.256,0.26,0.01,-0.09,0.04,-0.03,-0.09,
0.256,0.26,0.01,-0.09,0.04,-0.03,-0.09,
0.26,0.26,0.01,-0.09,0.04,-0.03,-0.09,
0.26,0.26,0.01,-0.09,0.04,-0.03,-0.09,
0.263,0.17,-0.03,-0.18,0.04,-0.03,-0.09,
0.265,0.17,-0.03,-0.18,0.04,-0.03,-0.09,
0.266,0.17,-0.03,-0.18,0.04,-0.04,-0.10,
0.267,0.17,-0.03,-0.18,0.04,-0.04,-0.10,
0.268,0.17,-0.03,-0.18,0.03,-0.05,-0.10,
0.27,0.17,-0.03,-0.18,0.03,-0.05,-0.10,
0.273,0.12,-0.10,-0.24,0.03,-0.05,-0.10,
0.273,0.12,-0.10,-0.24,0.03,-0.05,-0.10,
0.276,0.12,-0.10,-0.24,0.03,-0.05,-0.10,
0.277,0.12,-0.10,-0.24,0.03,-0.06,-0.10,
0.278,0.12,-0.10,-0.24,0.03,-0.06,-0.10,
0.28,0.12,-0.10,-0.24,0.02,-0.06,-0.10,
0.283,0.09,-0.13,-0.25,0.02,-0.06,-0.10,
0.284,0.09,-0.13,-0.25,0.02,-0.06,-0.10,
0.288,0.09,-0.13,-0.25,0.02,-0.06,-0.10,
0.289,0.09,-0.13,-0.25,0.02,-0.06,-0.10,
0.289,0.09,-0.13,-0.25,0.02,-0.06,-0.10,
0.29,0.09,-0.13,-0.25,0.03,-0.06,-0.10,
0.293,-0.01,-0.17,-0.12,0.03,-0.06,-0.10,
0.293,-0.01,-0.17,-0.12,0.03,-0.06,-0.10,
0.296,-0.01,-0.17,-0.12,0.04,-0.06,-0.10,
0.296,-0.01,-0.17,-0.12,0.04,-0.06,-0.10,
0.299,-0.01,-0.17,-0.12,0.04,-0.07,-0.10,
0.3,-0.01,-0.17,-0.12,0.05,-0.07,-0.09,
0.305,-0.08,-0.21,0.02,0.05,-0.07,-0.09,
0.306,-0.08,-0.21,0.02,0.06,-0.07,-0.09,
0.306,-0.08,-0.21,0.02,0.06,-0.07,-0.08,
0.307,-0.08,-0.21,0.02,0.06,-0.08,-0.08,
0.308,-0.08,-0.21,0.02,0.06,-0.08,-0.08,
0.31,-0.08,-0.21,0.02,0.07,-0.08,-0.07,
0.312,-0.14,-0.24,0.02,0.07,-0.08,-0.07,
0.313,-0.14,-0.24,0.02,0.07,-0.08,-0.07,
0.315,-0.14,-0.24,0.02,0.07,-0.08,-0.07,
0.316,-0.14,-0.24,0.02,0.07,-0.08,-0.06,
0.318,-0.14,-0.24,0.02,0.07,-0.08,-0.06,
0.323,-0.14,-0.24,0.02,0.07,-0.08,-0.06,
0.324,-0.14,-0.24,-0.02,0.07,-0.08,-0.06,
0.325,-0.14,-0.24,-0.02,0.07,-0.09,-0.06,
0.325,-0.14,-0.24,-0.02,0.07,-0.09,-0.05,
0.326,-0.14,-0.24,-0.02,0.07,-0.09,-0.05,
0.328,-0.14,-0.24,-0.02,0.07,-0.09,-0.05,
0.33,-0.14,-0.24,-0.02,0.07,-0.09,-0.05,
0.334,-0.08,-0.22,-0.01,0.07,-0.09,-0.05,
0.335,-0.08,-0.22,-0.01,0.07,-0.08,-0.05,
0.348,-0.08,-0.22,-0.01,0.07,-0.09,-0.05,
0.348,-0.08,-0.22,-0.01,0.07,-0.08,-0.05,
0.348,-0.08,-0.22,-0.01,0.06,-0.08,-0.04,
0.349,-0.08,-0.22,-0.01,0.06,-0.07,-0.04,
0.349,-0.00,-0.21,-0.06,0.06,-0.07,-0.04,
0.349,-0.00,-0.21,-0.06,0.06,-0.07,-0.04,
0.35,-0.00,-0.21,-0.06,0.06,-0.07,-0.05,
0.35,-0.00,-0.21,-0.06,0.06,-0.07,-0.05,
0.35,-0.00,-0.21,-0.06,0.05,-0.06,-0.05,
0.351,-0.00,-0.21,-0.06,0.05,-0.06,-0.05,
0.368,0.09,-0.20,-0.11,0.05,-0.06,-0.05,
0.369,0.09,-0.20,-0.11,0.05,-0.06,-0.05,
0.397,0.09,-0.20,-0.11,0.04,-0.06,-0.06,
0.398,0.09,-0.20,-0.11,0.04,-0.06,-0.06,
0.4,0.09,-0.20,-0.11,0.04,-0.06,-0.06,
0.401,0.09,-0.20,-0.11,0.03,-0.06,-0.06,
0.402,0.09,-0.19,-0.16,0.03,-0.06,-0.06,
0.405,0.09,-0.19,-0.16,0.03,-0.06,-0.06,
0.405,0.09,-0.19,-0.16,0.02,-0.06,-0.07,
0.406,0.09,-0.19,-0.16,0.02,-0.06,-0.07,
0.406,0.09,-0.19,-0.16,0.02,-0.06,-0.07,
0.406,0.09,-0.19,-0.16,0.02,-0.06,-0.07,
0.407,0.02,-0.18,-0.14,0.02,-0.06,-0.07,
0.407,0.02,-0.18,-0.14,0.02,-0.06,-0.07,
0.408,0.02,-0.18,-0.14,0.02,-0.06,-0.06,
0.408,0.02,-0.18,-0.14,0.02,-0.06,-0.06,
0.408,0.02,-0.18,-0.14,0.02,-0.06,-0.06,
0.409,0.02,-0.18,-0.14,0.02,-0.06,-0.06,
0.409,-0.04,-0.17,-0.07,0.02,-0.06,-0.06,
0.41,-0.04,-0.17,-0.07,0.02,-0.07,-0.06,
0.41,-0.04,-0.17,-0.07,0.02,-0.07,-0.06,
0.411,-0.04,-0.17,-0.07,0.02,-0.07,-0.06,
0.411,-0.04,-0.17,-0.07,0.02,-0.07,-0.06,
0.411,-0.04,-0.17,-0.07,0.02,-0.08,-0.05,
0.412,-0.06,-0.12,-0.06,0.02,-0.08,-0.05,
0.412,-0.06,-0.12,-0.06,0.02,-0.08,-0.05,
0.413,-0.06,-0.12,-0.06,0.03,-0.09,-0.05,
0.413,-0.06,-0.12,-0.06,0.03,-0.09,-0.05,
0.413,-0.06,-0.12,-0.06,0.03,-0.10,-0.05,
0.414,-0.06,-0.12,-0.06,0.03,-0.10,-0.05,
0.414,-0.08,-0.11,-0.04,0.03,-0.10,-0.05,
0.415,-0.08,-0.11,-0.04,0.03,-0.11,-0.05,
0.415,-0.08,-0.11,-0.04,0.04,-0.12,-0.05,
0.415,-0.08,-0.11,-0.04,0.04,-0.12,-0.05,
0.416,-0.08,-0.11,-0.04,0.04,-0.12,-0.04,
0.416,-0.08,-0.11,-0.04,0.05,-0.12,-0.04,
0.417,-0.10,-0.06,-0.06,0.05,-0.12,-0.04,
0.417,-0.10,-0.06,-0.06,0.05,-0.13,-0.04,
0.417,-0.10,-0.06,-0.06,0.05,-0.13,-0.04,
0.418,-0.10,-0.06,-0.06,0.05,-0.13,-0.04,
0.423,-0.10,-0.06,-0.06,0.05,-0.14,-0.04,
0.424,-0.10,-0.06,-0.06,0.05,-0.14,-0.04,
0.425,-0.05,-0.02,-0.13,0.05,-0.14,-0.04,
0.425,-0.05,-0.02,-0.13,0.05,-0.13,-0.04,
0.427,-0.05,-0.02,-0.13,0.04,-0.13,-0.04,
0.427,-0.05,-0.02,-0.13,0.04,-0.13,-0.04,
0.429,-0.05,-0.02,-0.13,0.04,-0.13,-0.04,
0.431,-0.05,-0.02,-0.13,0.04,-0.12,-0.04,
0.432,-0.00,-0.04,-0.19,0.04,-0.12,-0.04,
0.433,-0.00,-0.04,-0.19,0.03,-0.12,-0.04,
0.436,-0.00,-0.04,-0.19,0.03,-0.12,-0.04,
0.437,-0.00,-0.04,-0.19,0.03,-0.11,-0.04,
0.439,-0.00,-0.04,-0.19,0.02,-0.11,-0.04,
0.441,-0.00,-0.04,-0.19,0.02,-0.11,-0.04,
0.444,-0.01,-0.00,-0.18,0.02,-0.11,-0.04,
0.444,-0.01,-0.00,-0.18,0.02,-0.10,-0.03,
0.445,-0.01,-0.00,-0.18,0.02,-0.10,-0.03,
0.446,-0.01,-0.00,-0.18,0.02,-0.10,-0.03,
0.449,-0.01,-0.00,-0.18,0.01,-0.10,-0.03,
0.451,-0.01,-0.00,-0.18,0.01,-0.09,-0.03,
0.455,0.01,0.03,-0.14,0.01,-0.09,-0.03,
0.456,0.01,0.03,-0.14,0.01,-0.09,-0.03,
0.457,0.01,0.03,-0.14,0.01,-0.08,-0.03,
0.458,0.01,0.03,-0.14,0.01,-0.08,-0.03,
0.46,0.01,0.03,-0.14,0.01,-0.08,-0.03,
0.461,0.01,0.03,-0.14,0.01,-0.07,-0.03,
0.463,0.04,0.01,-0.13,0.01,-0.07,-0.03,
0.463,0.04,0.01,-0.13,0.01,-0.07,-0.03,
0.466,0.04,0.01,-0.13,0.00,-0.06,-0.03,
0.466,0.04,0.01,-0.13,0.00,-0.06,-0.03,
0.474,0.04,0.01,-0.13,0.00,-0.06,-0.04,
0.475,0.04,0.01,-0.13,0.00,-0.06,-0.04,
0.475,0.12,0.05,-0.14,0.00,-0.06,-0.04,
0.475,0.12,0.05,-0.14,0.00,-0.05,-0.04,
0.476,0.12,0.05,-0.14,-0.01,-0.06,-0.05,
0.476,0.12,0.05,-0.14,-0.00,-0.06,-0.05,
0.494,0.12,0.05,-0.14,-0.01,-0.05,-0.06,
0.496,0.12,0.05,-0.14,-0.01,-0.05,-0.06,
0.497,0.18,0.09,-0.21,-0.01,-0.05,-0.06,
0.497,0.18,0.09,-0.21,-0.01,-0.05,-0.07,
0.498,0.18,0.09,-0.21,-0.01,-0.05,-0.07,
0.498,0.18,0.09,-0.21,-0.02,-0.05,-0.08,
0.498,0.18,0.09,-0.21,-0.02,-0.05,-0.08,
0.499,0.18,0.09,-0.21,-0.02,-0.06,-0.09,
0.499,0.15,0.07,-0.23,-0.02,-0.06,-0.09,
0.499,0.15,0.07,-0.23,-0.03,-0.06,-0.09,
0.5,0.15,0.07,-0.23,-0.03,-0.06,-0.10,
0.5,0.15,0.07,-0.23,-0.03,-0.07,-0.10,
0.5,0.15,0.07,-0.23,-0.04,-0.07,-0.10,
0.501,0.15,0.07,-0.23,-0.04,-0.07,-0.11,
0.504,0.04,0.03,-0.17,-0.04,-0.07,-0.11,
0.505,0.04,0.03,-0.17,-0.04,-0.07,-0.11,
0.505,0.04,0.03,-0.17,-0.04,-0.08,-0.11,
0.506,0.04,0.03,-0.17,-0.04,-0.08,-0.11,
0.508,0.04,0.03,-0.17,-0.03,-0.08,-0.11,
0.51,0.04,0.03,-0.17,-0.03,-0.09,-0.11,
0.512,-0.12,-0.01,-0.03,-0.03,-0.09,-0.11,
0.513,-0.12,-0.01,-0.03,-0.03,-0.09,-0.10,
0.516,-0.12,-0.01,-0.03,-0.03,-0.10,-0.10,
0.516,-0.12,-0.01,-0.03,-0.03,-0.10,-0.10,
0.519,-0.12,-0.01,-0.03,-0.02,-0.10,-0.10,
0.52,-0.12,-0.01,-0.03,-0.01,-0.11,-0.09,
0.549,-0.23,-0.03,0.14,-0.01,-0.11,-0.09,
0.549,-0.23,-0.03,0.14,-0.01,-0.11,-0.09,
0.549,-0.23,-0.03,0.14,-0.00,-0.11,-0.08,
0.55,-0.23,-0.03,0.14,-0.00,-0.11,-0.08,
0.55,-0.23,-0.03,0.14,0.00,-0.11,-0.08,
0.551,-0.23,-0.03,0.14,0.01,-0.11,-0.07,
0.551,-0.30,-0.11,0.23,0.01,-0.11,-0.07,
0.552,-0.30,-0.11,0.23,0.01,-0.11,-0.06,
0.552,-0.30,-0.11,0.23,0.02,-0.11,-0.06,
0.552,-0.30,-0.11,0.23,0.02,-0.11,-0.06,
0.553,-0.30,-0.11,0.23,0.03,-0.11,-0.05,
0.553,-0.30,-0.11,0.23,0.03,-0.11,-0.05,
0.554,-0.30,-0.13,0.30,0.03,-0.11,-0.05,
0.554,-0.30,-0.13,0.30,0.03,-0.11,-0.05,
0.554,-0.30,-0.13,0.30,0.04,-0.11,-0.05,
0.555,-0.30,-0.13,0.30,0.04,-0.11,-0.04,
0.555,-0.30,-0.13,0.30,0.05,-0.12,-0.04,
0.556,-0.30,-0.13,0.30,0.04,-0.12,-0.04,
0.556,-0.28,-0.08,0.27,0.04,-0.12,-0.04,
0.557,-0.28,-0.08,0.27,0.05,-0.12,-0.04,
0.557,-0.28,-0.08,0.27,0.05,-0.11,-0.04,
0.558,-0.28,-0.08,0.27,0.05,-0.11,-0.04,
0.56,-0.28,-0.08,0.27,0.04,-0.11,-0.04,
0.561,-0.28,-0.08,0.27,0.05,-0.11,-0.03,
0.562,-0.20,-0.06,0.19,0.05,-0.11,-0.03,
0.563,-0.20,-0.06,0.19,0.04,-0.10,-0.04,
0.565,-0.20,-0.06,0.19,0.04,-0.09,-0.04,
0.567,-0.20,-0.06,0.19,0.04,-0.09,-0.04,
0.569,-0.20,-0.06,0.19,0.03,-0.08,-0.04,
0.571,-0.20,-0.06,0.19,0.03,-0.08,-0.04,
0.573,-0.12,-0.06,0.14,0.03,-0.08,-0.04,
0.574,-0.12,-0.06,0.14,0.03,-0.07,-0.04,
0.575,-0.12,-0.06,0.14,0.02,-0.06,-0.04,
0.577,-0.12,-0.06,0.14,0.02,-0.06,-0.04,
0.578,-0.12,-0.06,0.14,0.02,-0.05,-0.04,
0.581,-0.12,-0.06,0.14,0.02,-0.04,-0.04,
0.582,-0.12,-0.05,0.17,0.02,-0.04,-0.04,
0.583,-0.12,-0.05,0.17,0.02,-0.04,-0.04,
0.587,-0.12,-0.05,0.17,0.02,-0.04,-0.04,
0.588,-0.12,-0.05,0.17,0.02,-0.03,-0.04,
0.588,-0.12,-0.05,0.17,0.02,-0.03,-0.04,
0.595,-0.12,-0.05,0.17,0.02,-0.03,-0.04,
0.595,-0.09,-0.05,0.17,0.02,-0.03,-0.04,
0.596,-0.09,-0.05,0.17,0.03,-0.02,-0.04,
0.596,-0.09,-0.05,0.17,0.03,-0.02,-0.04,
0.596,-0.09,-0.05,0.17,0.04,-0.03,-0.04,
0.599,-0.09,-0.05,0.17,0.04,-0.03,-0.04,
0.606,-0.09,-0.05,0.17,0.04,-0.03,-0.04,
0.606,-0.10,-0.04,0.13,0.04,-0.03,-0.04,
0.607,-0.10,-0.04,0.13,0.04,-0.03,-0.04,
0.607,-0.10,-0.04,0.13,0.05,-0.04,-0.04,
0.607,-0.10,-0.04,0.13,0.05,-0.04,-0.03,
0.608,-0.10,-0.04,0.13,0.05,-0.04,-0.03,
0.613,-0.10,-0.04,0.13,0.06,-0.05,-0.03,
0.614,-0.08,-0.03,0.04,0.06,-0.05,-0.03,
0.614,-0.08,-0.03,0.04,0.06,-0.05,-0.03,
0.615,-0.08,-0.03,0.04,0.06,-0.06,-0.03,
0.616,-0.08,-0.03,0.04,0.07,-0.06,-0.03,
0.628,-0.08,-0.03,0.04,0.07,-0.07,-0.03,
0.63,-0.08,-0.03,0.04,0.07,-0.07,-0.03,
0.63,-0.03,-0.01,-0.02,0.07,-0.07,-0.03,
0.631,-0.03,-0.01,-0.02,0.08,-0.08,-0.03,
0.631,-0.03,-0.01,-0.02,0.08,-0.08,-0.03,
0.631,-0.03,-0.01,-0.02,0.08,-0.09,-0.03,
0.632,-0.03,-0.01,-0.02,0.08,-0.09,-0.03,
0.632,-0.03,-0.01,-0.02,0.09,-0.09,-0.03,
0.632,0.00,0.01,-0.12,0.09,-0.09,-0.03,
0.633,0.00,0.01,-0.12,0.09,-0.09,-0.03,
0.642,0.00,0.01,-0.12,0.09,-0.10,-0.03,
0.643,0.00,0.01,-0.12,0.09,-0.10,-0.03,
0.647,0.00,0.01,-0.12,0.09,-0.10,-0.03,
0.647,0.00,0.01,-0.12,0.09,-0.11,-0.04,
0.648,0.05,0.01,-0.21,0.09,-0.11,-0.04,
0.648,0.05,0.01,-0.21,0.09,-0.11,-0.03,
0.649,0.05,0.01,-0.21,0.09,-0.11,-0.03,
0.649,0.05,0.01,-0.21,0.09,-0.11,-0.03,
0.649,0.05,0.01,-0.21,0.09,-0.11,-0.03,
0.651,0.05,0.01,-0.21,0.09,-0.11,-0.03,
0.653,0.02,0.02,-0.30,0.09,-0.11,-0.03,
0.653,0.02,0.02,-0.30,0.09,-0.11,-0.03,
0.656,0.02,0.02,-0.30,0.08,-0.11,-0.03,
0.656,0.02,0.02,-0.30,0.08,-0.11,-0.03,
0.658,0.02,0.02,-0.30,0.08,-0.11,-0.03,
0.66,0.02,0.02,-0.30,0.08,-0.11,-0.03,
0.662,0.06,0.01,-0.32,0.08,-0.11,-0.03,
0.662,0.06,0.01,-0.32,0.07,-0.11,-0.04,
0.665,0.06,0.01,-0.32,0.07,-0.11,-0.04,
0.668,0.06,0.01,-0.32,0.07,-0.11,-0.04,
0.669,0.06,0.01,-0.32,0.07,-0.11,-0.04,
0.67,0.06,0.01,-0.32,0.07,-0.10,-0.05,
0.677,0.12,-0.02,-0.31,0.07,-0.10,-0.05,
0.677,0.12,-0.02,-0.31,0.06,-0.10,-0.05,
0.677,0.12,-0.02,-0.31,0.06,-0.10,-0.06,
0.678,0.12,-0.02,-0.31,0.06,-0.09,-0.06,
0.678,0.12,-0.02,-0.31,0.05,-0.09,-0.06,
0.68,0.12,-0.02,-0.31,0.05,-0.08,-0.07,
0.683,0.17,0.00,-0.38,0.05,-0.08,-0.07,
0.683,0.17,0.00,-0.38,0.04,-0.07,-0.07,
0.687,0.17,0.00,-0.38,0.04,-0.07,-0.08,
0.688,0.17,0.00,-0.38,0.03,-0.06,-0.08,
0.717,0.17,0.00,-0.38,0.02,-0.05,-0.08,
0.718,0.17,0.00,-0.38,0.01,-0.05,-0.09,
0.719,0.20,-0.02,-0.45,0.01,-0.05,-0.09,
0.72,0.20,-0.02,-0.45,0.01,-0.04,-0.10,
0.721,0.20,-0.02,-0.45,-0.00,-0.03,-0.11,
0.722,0.20,-0.02,-0.45,-0.01,-0.02,-0.11,
0.723,0.20,-0.02,-0.45,-0.01,-0.02,-0.11,
0.724,0.20,-0.02,-0.45,-0.02,-0.01,-0.12,
0.725,0.17,-0.02,-0.40,-0.02,-0.01,-0.12,
0.725,0.17,-0.02,-0.40,-0.03,-0.00,-0.12,
0.726,0.17,-0.02,-0.40,-0.03,0.01,-0.12,
0.727,0.17,-0.02,-0.40,-0.03,0.01,-0.13,
0.728,0.17,-0.02,-0.40,-0.03,0.02,-0.13,
0.728,0.17,-0.02,-0.40,-0.04,0.01,-0.13,
0.728,0.08,-0.07,-0.29,-0.04,0.01,-0.13,
0.729,0.08,-0.07,-0.29,-0.04,0.02,-0.13,
0.729,0.08,-0.07,-0.29,-0.04,0.02,-0.13,
0.73,0.08,-0.07,-0.29,-0.04,0.02,-0.13,
0.73,0.08,-0.07,-0.29,-0.04,0.01,-0.13,
0.73,0.08,-0.07,-0.29,-0.04,0.01,-0.13,
0.731,0.01,-0.09,-0.18,-0.04,0.01,-0.13,
0.731,0.01,-0.09,-0.18,-0.03,0.01,-0.13,
0.732,0.01,-0.09,-0.18,-0.03,-0.00,-0.13,
0.732,0.01,-0.09,-0.18,-0.03,-0.00,-0.13,
0.732,0.01,-0.09,-0.18,-0.02,-0.01,-0.12,
0.733,0.01,-0.09,-0.18,-0.02,-0.02,-0.12,
0.733,-0.07,-0.11,-0.16,-0.02,-0.02,-0.12,
0.734,-0.07,-0.11,-0.16,-0.02,-0.02,-0.12,
0.736,-0.07,-0.11,-0.16,-0.01,-0.04,-0.11,
0.737,-0.07,-0.11,-0.16,-0.01,-0.04,-0.11,
0.739,-0.07,-0.11,-0.16,-0.01,-0.05,-0.11,
0.74,-0.07,-0.11,-0.16,-0.01,-0.06,-0.10,
0.744,-0.10,-0.12,-0.18,-0.01,-0.06,-0.10,
0.745,-0.10,-0.12,-0.18,-0.01,-0.07,-0.10,
0.745,-0.10,-0.12,-0.18,-0.00,-0.09,-0.10,
0.746,-0.10,-0.12,-0.18,-0.00,-0.09,-0.10,
0.75,-0.10,-0.12,-0.18,-0.00,-0.10,-0.10,
0.754,-0.10,-0.12,-0.18,0.00,-0.11,-0.09,
0.756,-0.03,-0.11,-0.16,0.00,-0.11,-0.09,
0.757,-0.03,-0.11,-0.16,0.00,-0.12,-0.09,
0.761,-0.03,-0.11,-0.16,0.01,-0.13,-0.09,
0.761,-0.03,-0.11,-0.16,0.01,-0.14,-0.09,
0.761,-0.03,-0.11,-0.16,0.01,-0.14,-0.09,
0.761,-0.03,-0.11,-0.16,0.01,-0.15,-0.09,
0.764,-0.01,-0.12,-0.08,0.01,-0.15,-0.09,
0.765,-0.01,-0.12,-0.08,0.01,-0.15,-0.09,
0.765,-0.01,-0.12,-0.08,0.02,-0.15,-0.09,
0.768,-0.01,-0.12,-0.08,0.02,-0.15,-0.09,
0.768,-0.01,-0.12,-0.08,0.02,-0.16,-0.09,
0.776,-0.01,-0.12,-0.08,0.02,-0.16,-0.09,
0.777,0.01,-0.13,0.01,0.02,-0.16,-0.09,
0.777,0.01,-0.13,0.01,0.02,-0.16,-0.09,
0.777,0.01,-0.13,0.01,0.03,-0.16,-0.09,
0.777,0.01,-0.13,0.01,0.03,-0.15,-0.09,
0.781,0.01,-0.13,0.01,0.02,-0.15,-0.09,
0.784,0.01,-0.13,0.01,0.02,-0.15,-0.09,
0.785,0.02,-0.14,0.10,0.02,-0.15,-0.09,
0.785,0.02,-0.14,0.10,0.03,-0.15,-0.09,
0.806,0.02,-0.14,0.10,0.03,-0.14,-0.09,
0.807,0.02,-0.14,0.10,0.03,-0.14,-0.09,
0.807,0.02,-0.14,0.10,0.03,-0.13,-0.09,
0.807,0.02,-0.14,0.10,0.03,-0.12,-0.09,
0.807,0.00,-0.12,0.15,0.03,-0.12,-0.09,
0.807,0.00,-0.12,0.15,0.03,-0.12,-0.09,
0.808,0.00,-0.12,0.15,0.03,-0.11,-0.09,
0.808,0.00,-0.12,0.15,0.03,-0.11,-0.09,
0.808,0.00,-0.12,0.15,0.03,-0.10,-0.10,
0.808,0.00,-0.12,0.15,0.02,-0.10,-0.10,
0.808,-0.09,-0.11,0.11,0.02,-0.10,-0.10,
0.809,-0.09,-0.11,0.11,0.02,-0.09,-0.10,
0.809,-0.09,-0.11,0.11,0.02,-0.09,-0.10,
0.809,-0.09,-0.11,0.11,0.02,-0.09,-0.09,
0.809,-0.09,-0.11,0.11,0.01,-0.08,-0.09,
0.811,-0.09,-0.11,0.11,0.01,-0.07,-0.09,
0.813,-0.19,-0.11,0.04,0.01,-0.07,-0.09,
0.814,-0.19,-0.11,0.04,0.01,-0.07,-0.09,
0.816,-0.19,-0.11,0.04,0.01,-0.07,-0.09,
0.817,-0.19,-0.11,0.04,0.01,-0.07,-0.09,
0.82,-0.19,-0.11,0.04,-0.00,-0.07,-0.09,
0.823,-0.19,-0.11,0.04,-0.00,-0.06,-0.08,
0.824,-0.24,-0.08,0.02,-0.00,-0.06,-0.08,
0.824,-0.24,-0.08,0.02,-0.01,-0.06,-0.08,
0.826,-0.24,-0.08,0.02,-0.01,-0.06,-0.08,
0.827,-0.24,-0.08,0.02,-0.01,-0.06,-0.08,
0.829,-0.24,-0.08,0.02,-0.01,-0.05,-0.08,
0.831,-0.24,-0.08,0.02,-0.02,-0.05,-0.08,
0.838,-0.18,-0.04,0.01,-0.02,-0.05,-0.08,
0.839,-0.18,-0.04,0.01,-0.02,-0.05,-0.09,
0.84,-0.18,-0.04,0.01,-0.02,-0.05,-0.09,
0.84,-0.18,-0.04,0.01,-0.02,-0.05,-0.09,
0.84,-0.18,-0.04,0.01,-0.02,-0.04,-0.09,
0.841,-0.18,-0.04,0.01,-0.03,-0.04,-0.09,
0.844,-0.13,-0.01,0.04,-0.03,-0.04,-0.09,
0.846,-0.13,-0.01,0.04,-0.03,-0.04,-0.09,
0.846,-0.13,-0.01,0.04,-0.03,-0.04,-0.09,
0.847,-0.13,-0.01,0.04,-0.03,-0.04,-0.10,
0.849,-0.13,-0.01,0.04,-0.03,-0.04,-0.09,
0.856,-0.13,-0.01,0.04,-0.03,-0.04,-0.09,
0.857,-0.13,-0.02,0.10,-0.03,-0.04,-0.09,
0.857,-0.13,-0.02,0.10,-0.02,-0.04,-0.09,
0.886,-0.13,-0.02,0.10,-0.02,-0.04,-0.09,
0.887,-0.13,-0.02,0.10,-0.02,-0.04,-0.09,
0.887,-0.13,-0.02,0.10,-0.02,-0.04,-0.09,
0.888,-0.13,-0.02,0.10,-0.02,-0.04,-0.09,
0.888,-0.15,0.01,0.16,-0.02,-0.04,-0.09,
0.888,-0.15,0.01,0.16,-0.01,-0.05,-0.09,
0.889,-0.15,0.01,0.16,-0.01,-0.05,-0.09,
0.889,-0.15,0.01,0.16,-0.01,-0.05,-0.09,
0.89,-0.15,0.01,0.16,-0.00,-0.05,-0.09,
0.89,-0.15,0.01,0.16,0.00,-0.06,-0.08,
0.89,-0.11,0.04,0.21,0.00,-0.06,-0.08,
0.891,-0.11,0.04,0.21,0.01,-0.06,-0.08,
0.891,-0.11,0.04,0.21,0.02,-0.06,-0.08,
0.892,-0.11,0.04,0.21,0.02,-0.06,-0.08,
0.892,-0.11,0.04,0.21,0.02,-0.07,-0.08,
0.892,-0.11,0.04,0.21,0.03,-0.07,-0.08,
0.893,-0.12,0.03,0.29,0.03,-0.07,-0.08,
0.893,-0.12,0.03,0.29,0.04,-0.07,-0.08,
0.894,-0.12,0.03,0.29,0.05,-0.07,-0.08,
0.894,-0.12,0.03,0.29,0.05,-0.07,-0.08,
0.894,-0.12,0.03,0.29,0.06,-0.07,-0.08,
0.895,-0.12,0.03,0.29,0.06,-0.07,-0.08,
0.906,-0.12,-0.02,0.30,0.06,-0.07,-0.08,
0.907,-0.12,-0.02,0.30,0.07,-0.07,-0.08,
0.907,-0.12,-0.02,0.30,0.07,-0.07,-0.08,
0.907,-0.12,-0.02,0.30,0.08,-0.07,-0.07,
0.907,-0.12,-0.02,0.30,0.08,-0.06,-0.07,
0.908,-0.12,-0.02,0.30,0.09,-0.06,-0.07,
0.908,-0.19,-0.07,0.25,0.09,-0.06,-0.07,
0.908,-0.19,-0.07,0.25,0.09,-0.06,-0.06,
0.908,-0.19,-0.07,0.25,0.10,-0.05,-0.06,
0.908,-0.19,-0.07,0.25,0.10,-0.05,-0.06,
0.909,-0.19,-0.07,0.25,0.09,-0.05,-0.05,
0.91,-0.19,-0.07,0.25,0.10,-0.05,-0.05,
0.931,-0.26,-0.07,0.13,0.10,-0.05,-0.05,
0.931,-0.26,-0.07,0.13,0.10,-0.05,-0.05,
0.931,-0.26,-0.07,0.13,0.10,-0.04,-0.04,
0.932,-0.26,-0.07,0.13,0.10,-0.04,-0.04,
0.932,-0.26,-0.07,0.13,0.10,-0.04,-0.03,
0.932,-0.26,-0.07,0.13,0.10,-0.04,-0.03,
0.932,-0.24,-0.08,-0.02,0.10,-0.04,-0.03,
0.932,-0.24,-0.08,-0.02,0.10,-0.03,-0.03,
0.932,-0.24,-0.08,-0.02,0.09,-0.03,-0.03,
0.933,-0.24,-0.08,-0.02,0.09,-0.03,-0.03,
0.933,-0.24,-0.08,-0.02,0.09,-0.03,-0.03,
0.933,-0.24,-0.08,-0.02,0.09,-0.02,-0.03,
0.942,-0.18,-0.06,-0.17,0.09,-0.02,-0.03,
0.942,-0.18,-0.06,-0.17,0.08,-0.02,-0.03,
0.942,-0.18,-0.06,-0.17,0.07,-0.02,-0.03,
0.942,-0.18,-0.06,-0.17,0.07,-0.02,-0.03,
0.943,-0.18,-0.06,-0.17,0.06,-0.02,-0.03,
0.943,-0.18,-0.06,-0.17,0.06,-0.02,-0.03,
0.943,-0.09,-0.04,-0.35,0.06,-0.02,-0.03,
0.943,-0.09,-0.04,-0.35,0.05,-0.02,-0.03,
0.946,-0.09,-0.04,-0.35,0.04,-0.02,-0.03,
0.947,-0.09,-0.04,-0.35,0.04,-0.02,-0.03,
0.948,-0.09,-0.04,-0.35,0.03,-0.02,-0.03,
0.95,-0.09,-0.04,-0.35,0.02,-0.02,-0.04,
0.952,-0.00,-0.02,-0.45,0.02,-0.02,-0.04,
0.953,-0.00,-0.02,-0.45,0.01,-0.02,-0.04,
0.956,-0.00,-0.02,-0.45,0.01,-0.02,-0.04,
0.956,-0.00,-0.02,-0.45,0.00,-0.02,-0.05,
0.958,-0.00,-0.02,-0.45,-0.01,-0.02,-0.05,
0.96,-0.00,-0.02,-0.45,-0.01,-0.02,-0.05,
0.962,0.09,0.01,-0.44,-0.01,-0.02,-0.05,
0.962,0.09,0.01,-0.44,-0.02,-0.02,-0.05,
0.965,0.09,0.01,-0.44,-0.02,-0.02,-0.06,
0.967,0.09,0.01,-0.44,-0.02,-0.02,-0.06,
0.97,0.09,0.01,-0.44,-0.02,-0.02,-0.06,
0.971,0.09,0.01,-0.44,-0.02,-0.02,-0.06,
0.972,0.10,-0.02,-0.25,-0.02,-0.02,-0.06,
0.973,0.10,-0.02,-0.25,-0.02,-0.02,-0.06,
0.975,0.10,-0.02,-0.25,-0.02,-0.02,-0.07,
0.976,0.10,-0.02,-0.25,-0.01,-0.02,-0.07,
0.978,0.10,-0.02,-0.25,-0.01,-0.02,-0.06,
0.981,0.10,-0.02,-0.25,-0.01,-0.02,-0.07,
0.984,0.07,-0.03,-0.11,-0.01,-0.02,-0.07,
0.985,0.07,-0.03,-0.11,-0.00,-0.02,-0.07,
0.986,0.07,-0.03,-0.11,0.00,-0.03,-0.07,
0.987,0.07,-0.03,-0.11,0.01,-0.03,-0.07,
0.989,0.07,-0.03,-0.11,0.01,-0.04,-0.07,
0.99,0.07,-0.03,-0.11,0.02,-0.04,-0.06,
0.992,0.01,-0.04,-0.05,0.02,-0.04,-0.06,
0.993,0.01,-0.04,-0.05,0.02,-0.05,-0.06,
0.995,0.01,-0.04,-0.05,0.03,-0.06,-0.06,
0.997,0.01,-0.04,-0.05,0.03,-0.06,-0.06,
1.009,0.01,-0.04,-0.05,0.03,-0.06,-0.06,
1.009,0.01,-0.04,-0.05,0.04,-0.07,-0.06,
1.01,-0.04,-0.10,-0.12,0.04,-0.07,-0.06,
1.01,-0.04,-0.10,-0.12,0.04,-0.07,-0.06,
1.011,-0.04,-0.10,-0.12,0.04,-0.08,-0.06,
1.011,-0.04,-0.10,-0.12,0.04,-0.08,-0.06,
1.011,-0.04,-0.10,-0.12,0.04,-0.08,-0.06,
1.012,-0.04,-0.10,-0.12,0.04,-0.08,-0.06,
1.014,0.01,-0.10,-0.13,0.04,-0.08,-0.06,
1.014,0.01,-0.10,-0.13,0.04,-0.08,-0.06,
1.032,0.01,-0.10,-0.13,0.05,-0.08,-0.06,
1.035,0.01,-0.10,-0.13,0.04,-0.08,-0.06,
1.036,0.01,-0.10,-0.13,0.04,-0.08,-0.06,
1.036,0.01,-0.10,-0.13,0.04,-0.08,-0.06,
1.065,0.03,-0.08,-0.11,0.04,-0.08,-0.06,
1.065,0.03,-0.08,-0.11,0.04,-0.07,-0.06,
1.066,0.03,-0.08,-0.11,0.04,-0.07,-0.06,
1.066,0.03,-0.08,-0.11,0.04,-0.07,-0.06,
1.067,0.03,-0.08,-0.11,0.04,-0.06,-0.06,
1.067,0.03,-0.08,-0.11,0.04,-0.06,-0.06,
1.067,0.01,-0.09,-0.11,0.04,-0.06,-0.06,
1.067,0.01,-0.09,-0.11,0.03,-0.06,-0.06,
1.068,0.01,-0.09,-0.11,0.03,-0.05,-0.06,
1.068,0.01,-0.09,-0.11,0.03,-0.05,-0.06,
1.068,0.01,-0.09,-0.11,0.03,-0.05,-0.06,
1.069,0.01,-0.09,-0.11,0.03,-0.05,-0.06,
1.069,-0.06,-0.09,-0.15,0.03,-0.05,-0.06,
1.069,-0.06,-0.09,-0.15,0.03,-0.05,-0.05,
1.069,-0.06,-0.09,-0.15,0.02,-0.04,-0.05,
1.07,-0.06,-0.09,-0.15,0.02,-0.04,-0.05,
1.07,-0.06,-0.09,-0.15,0.02,-0.04,-0.05,
1.07,-0.06,-0.09,-0.15,0.01,-0.04,-0.04,
1.07,-0.09,-0.07,-0.17,0.01,-0.04,-0.04,
1.071,-0.09,-0.07,-0.17,0.01,-0.05,-0.04,
1.071,-0.09,-0.07,-0.17,0.01,-0.05,-0.04,
1.071,-0.09,-0.07,-0.17,0.00,-0.05,-0.03,
1.071,-0.09,-0.07,-0.17,0.00,-0.05,-0.03,
1.072,-0.09,-0.07,-0.17,-0.00,-0.05,-0.03,
1.072,-0.05,-0.02,-0.17,-0.00,-0.05,-0.03,
1.072,-0.05,-0.02,-0.17,-0.01,-0.06,-0.03,
1.072,-0.05,-0.02,-0.17,-0.01,-0.06,-0.03,
1.073,-0.05,-0.02,-0.17,-0.01,-0.06,-0.03,
1.073,-0.05,-0.02,-0.17,-0.01,-0.06,-0.03,
1.073,-0.05,-0.02,-0.17,-0.02,-0.06,-0.03,
1.073,0.12,0.10,-0.09,-0.02,-0.06,-0.03,
1.074,0.12,0.10,-0.09,-0.02,-0.06,-0.03,
1.076,0.12,0.10,-0.09,-0.02,-0.05,-0.04,
1.076,0.12,0.10,-0.09,-0.02,-0.05,-0.04,
1.079,0.12,0.10,-0.09,-0.02,-0.05,-0.04,
1.08,0.12,0.10,-0.09,-0.02,-0.05,-0.05,
1.083,0.33,0.14,-0.01,-0.02,-0.05,-0.05,
1.084,0.33,0.14,-0.01,-0.02,-0.05,-0.06,
1.085,0.33,0.14,-0.01,-0.02,-0.04,-0.06,
1.087,0.33,0.14,-0.01,-0.02,-0.04,-0.07,
1.088,0.33,0.14,-0.01,-0.02,-0.03,-0.07,
1.09,0.33,0.14,-0.01,-0.02,-0.03,-0.08,
1.092,0.41,0.13,0.08,-0.02,-0.03,-0.08,
1.093,0.41,0.13,0.08,-0.02,-0.03,-0.08,
1.095,0.41,0.13,0.08,-0.02,-0.02,-0.09,
1.096,0.41,0.13,0.08,-0.02,-0.02,-0.09,
1.099,0.41,0.13,0.08,-0.03,-0.02,-0.09,
1.1,0.41,0.13,0.08,-0.03,-0.01,-0.10,
1.103,0.38,0.13,0.10,-0.03,-0.01,-0.10,
1.103,0.38,0.13,0.10,-0.02,-0.01,-0.10,
1.105,0.38,0.13,0.10,-0.03,-0.01,-0.11,
1.107,0.38,0.13,0.10,-0.03,-0.01,-0.11,
1.109,0.38,0.13,0.10,-0.02,-0.01,-0.11,
1.11,0.38,0.13,0.10,-0.02,-0.00,-0.11,
1.112,0.28,0.08,0.16,-0.02,-0.00,-0.11,
1.113,0.28,0.08,0.16,-0.02,0.00,-0.11,
1.116,0.28,0.08,0.16,-0.02,0.01,-0.11,
1.117,0.28,0.08,0.16,-0.02,0.01,-0.11,
1.119,0.28,0.08,0.16,-0.01,0.01,-0.11,
1.12,0.28,0.08,0.16,-0.01,0.01,-0.11,
1.122,0.16,-0.00,0.23,-0.01,0.01,-0.11,
1.123,0.16,-0.00,0.23,-0.01,0.01,-0.11,
1.125,0.16,-0.00,0.23,0.00,0.01,-0.10,
1.127,0.16,-0.00,0.23,0.01,0.01,-0.10,
1.129,0.16,-0.00,0.23,0.01,0.01,-0.10,
1.131,0.16,-0.00,0.23,0.02,0.00,-0.10,
1.133,0.04,-0.04,0.29,0.02,0.00,-0.10,
1.134,0.04,-0.04,0.29,0.03,0.00,-0.10,
1.135,0.04,-0.04,0.29,0.04,-0.00,-0.09,
1.138,0.04,-0.04,0.29,0.04,-0.00,-0.09,
1.139,0.04,-0.04,0.29,0.05,-0.00,-0.09,
1.14,0.04,-0.04,0.29,0.05,-0.00,-0.08,
1.143,-0.03,-0.06,0.25,0.05,-0.00,-0.08,
1.143,-0.03,-0.06,0.25,0.06,-0.01,-0.08,
1.145,-0.03,-0.06,0.25,0.06,-0.01,-0.08,
1.146,-0.03,-0.06,0.25,0.06,-0.02,-0.08,
1.16,-0.03,-0.06,0.25,0.06,-0.02,-0.08,
1.16,-0.03,-0.06,0.25,0.06,-0.02,-0.07,
1.161,-0.08,-0.08,0.07,0.06,-0.02,-0.07,
1.161,-0.08,-0.08,0.07,0.06,-0.02,-0.07,
1.162,-0.08,-0.08,0.07,0.06,-0.02,-0.07,
1.162,-0.08,-0.08,0.07,0.06,-0.03,-0.07,
1.162,-0.08,-0.08,0.07,0.06,-0.03,-0.07,
1.163,-0.08,-0.08,0.07,0.06,-0.03,-0.06,
1.164,-0.08,-0.04,-0.10,0.06,-0.03,-0.06,
1.164,-0.08,-0.04,-0.10,0.05,-0.03,-0.06,
1.185,-0.08,-0.04,-0.10,0.05,-0.03,-0.06,
1.186,-0.08,-0.04,-0.10,0.05,-0.03,-0.06,
1.187,-0.08,-0.04,-0.10,0.04,-0.02,-0.06,
1.187,-0.08,-0.04,-0.10,0.04,-0.02,-0.06,
1.187,-0.07,-0.02,-0.17,0.04,-0.02,-0.06,
1.187,-0.07,-0.02,-0.17,0.03,-0.02,-0.06,
1.188,-0.07,-0.02,-0.17,0.03,-0.02,-0.06,
1.188,-0.07,-0.02,-0.17,0.02,-0.01,-0.06,
1.188,-0.07,-0.02,-0.17,0.02,-0.01,-0.06,
1.189,-0.07,-0.02,-0.17,0.01,-0.01,-0.06,
1.189,-0.01,0.04,-0.20,0.01,-0.01,-0.06,
1.189,-0.01,0.04,-0.20,0.01,-0.00,-0.06,
1.189,-0.01,0.04,-0.20,0.00,-0.00,-0.06,
1.19,-0.01,0.04,-0.20,0.00,0.00,-0.06,
1.215,-0.01,0.04,-0.20,-0.00,0.01,-0.07,
1.216,-0.01,0.04,-0.20,-0.00,0.01,-0.07,
1.216,0.07,0.04,-0.20,-0.00,0.01,-0.07,
1.217,0.07,0.04,-0.20,-0.01,0.01,-0.07,
1.217,0.07,0.04,-0.20,-0.01,0.01,-0.07,
1.217,0.07,0.04,-0.20,-0.02,0.02,-0.08,
1.218,0.07,0.04,-0.20,-0.02,0.01,-0.08,
1.218,0.07,0.04,-0.20,-0.02,0.01,-0.08,
1.219,0.13,0.04,-0.14,-0.02,0.01,-0.08,
1.219,0.13,0.04,-0.14,-0.01,0.01,-0.09,
1.22,0.13,0.04,-0.14,-0.01,0.01,-0.09,
1.22,0.13,0.04,-0.14,-0.01,0.01,-0.09,
1.22,0.13,0.04,-0.14,-0.01,0.00,-0.09,
1.221,0.13,0.04,-0.14,-0.01,-0.00,-0.10,
1.221,0.13,0.02,-0.06,-0.01,-0.00,-0.10,
1.222,0.13,0.02,-0.06,-0.01,-0.01,-0.10,
1.222,0.13,0.02,-0.06,0.00,-0.01,-0.10,
1.223,0.13,0.02,-0.06,0.00,-0.02,-0.10,
1.223,0.13,0.02,-0.06,0.01,-0.02,-0.10,
1.223,0.13,0.02,-0.06,0.01,-0.03,-0.10,
1.223,0.04,-0.02,-0.00,0.01,-0.03,-0.10,
1.224,0.04,-0.02,-0.00,0.01,-0.03,-0.10,
1.226,0.04,-0.02,-0.00,0.03,-0.04,-0.10,
1.226,0.04,-0.02,-0.00,0.03,-0.04,-0.10,
1.229,0.04,-0.02,-0.00,0.04,-0.04,-0.10,
1.23,0.04,-0.02,-0.00,0.04,-0.05,-0.10,
1.234,-0.04,-0.10,0.08,0.04,-0.05,-0.10,
1.235,-0.04,-0.10,0.08,0.05,-0.05,-0.10,
1.235,-0.04,-0.10,0.08,0.06,-0.06,-0.09,
1.237,-0.04,-0.10,0.08,0.06,-0.06,-0.09,
1.238,-0.04,-0.10,0.08,0.07,-0.06,-0.09,
1.24,-0.04,-0.10,0.08,0.07,-0.06,-0.09,
1.242,-0.10,-0.15,0.05,0.07,-0.06,-0.09,
1.242,-0.10,-0.15,0.05,0.07,-0.06,-0.08,
1.245,-0.10,-0.15,0.05,0.08,-0.06,-0.08,
1.246,-0.10,-0.15,0.05,0.08,-0.05,-0.08,
1.248,-0.10,-0.15,0.05,0.08,-0.05,-0.08,
1.25,-0.10,-0.15,0.05,0.08,-0.05,-0.07,
1.252,-0.10,-0.17,-0.08,0.08,-0.05,-0.07,
1.253,-0.10,-0.17,-0.08,0.08,-0.05,-0.07,
1.259,-0.10,-0.17,-0.08,0.07,-0.04,-0.07,
1.259,-0.10,-0.17,-0.08,0.07,-0.04,-0.07,
1.259,-0.10,-0.17,-0.08,0.07,-0.04,-0.06,
1.261,-0.10,-0.17,-0.08,0.07,-0.03,-0.06,
1.263,-0.10,-0.19,-0.21,0.07,-0.03,-0.06,
1.263,-0.10,-0.19,-0.21,0.06,-0.03,-0.06,
1.265,-0.10,-0.19,-0.21,0.06,-0.03,-0.06,
1.266,-0.10,-0.19,-0.21,0.05,-0.03,-0.06,
1.268,-0.10,-0.19,-0.21,0.05,-0.03,-0.06,
1.271,-0.10,-0.19,-0.21,0.05,-0.03,-0.06,
1.273,-0.10,-0.17,-0.29,0.05,-0.03,-0.06,
1.274,-0.10,-0.17,-0.29,0.05,-0.03,-0.06,
1.276,-0.10,-0.17,-0.29,0.04,-0.04,-0.06,
1.276,-0.10,-0.17,-0.29,0.03,-0.04,-0.06,
1.279,-0.10,-0.17,-0.29,0.03,-0.04,-0.06,
1.286,-0.10,-0.17,-0.29,0.03,-0.05,-0.06,
1.287,-0.03,-0.17,-0.36,0.03,-0.05,-0.06,
1.288,-0.03,-0.17,-0.36,0.02,-0.05,-0.06,
1.288,-0.03,-0.17,-0.36,0.01,-0.05,-0.07,
1.288,-0.03,-0.17,-0.36,0.01,-0.06,-0.07,
1.289,-0.03,-0.17,-0.36,0.00,-0.06,-0.07,
1.291,-0.03,-0.17,-0.36,0.00,-0.06,-0.07,
1.317,0.04,-0.18,-0.33,0.00,-0.06,-0.07,
1.318,0.04,-0.18,-0.33,-0.00,-0.07,-0.08,
1.319,0.04,-0.18,-0.33,-0.00,-0.08,-0.08,
1.319,0.04,-0.18,-0.33,-0.01,-0.08,-0.09,
1.32,0.04,-0.18,-0.33,-0.01,-0.08,-0.09,
1.32,0.04,-0.18,-0.33,-0.01,-0.08,-0.09,
1.32,0.05,-0.17,-0.16,-0.01,-0.08,-0.09,
1.321,0.05,-0.17,-0.16,-0.01,-0.09,-0.09,
1.321,0.05,-0.17,-0.16,-0.01,-0.09,-0.10,
1.321,0.05,-0.17,-0.16,-0.01,-0.09,-0.10,
1.322,0.05,-0.17,-0.16,-0.01,-0.10,-0.10,
1.322,0.05,-0.17,-0.16,-0.01,-0.10,-0.10,
1.323,0.04,-0.17,0.01,-0.01,-0.10,-0.10,
1.323,0.04,-0.17,0.01,-0.01,-0.10,-0.10,
1.324,0.04,-0.17,0.01,-0.00,-0.09,-0.11,
1.324,0.04,-0.17,0.01,-0.00,-0.09,-0.10,
1.324,0.04,-0.17,0.01,-0.00,-0.09,-0.10,
1.324,0.04,-0.17,0.01,0.00,-0.09,-0.10,
1.325,-0.07,-0.21,0.17,0.00,-0.09,-0.10,
1.325,-0.07,-0.21,0.17,0.01,-0.09,-0.10,
1.326,-0.07,-0.21,0.17,0.01,-0.08,-0.09,
1.326,-0.07,-0.21,0.17,0.01,-0.07,-0.09,
1.328,-0.07,-0.21,0.17,0.01,-0.07,-0.09,
1.332,-0.07,-0.21,0.17,0.02,-0.07,-0.08,
1.334,-0.15,-0.23,0.22,0.02,-0.07,-0.08,
1.335,-0.15,-0.23,0.22,0.02,-0.06,-0.08,
1.337,-0.15,-0.23,0.22,0.02,-0.05,-0.07,
1.338,-0.15,-0.23,0.22,0.02,-0.04,-0.06,
1.339,-0.15,-0.23,0.22,0.02,-0.04,-0.06,
1.341,-0.15,-0.23,0.22,0.02,-0.04,-0.06,
1.343,-0.19,-0.25,0.17,0.02,-0.04,-0.06,
1.344,-0.19,-0.25,0.17,0.02,-0.03,-0.06,
1.346,-0.19,-0.25,0.17,0.02,-0.02,-0.05,
1.347,-0.19,-0.25,0.17,0.02,-0.02,-0.05,
1.349,-0.19,-0.25,0.17,0.02,-0.02,-0.05,
1.351,-0.19,-0.25,0.17,0.03,-0.02,-0.05,
1.353,-0.11,-0.21,0.14,0.03,-0.02,-0.05,
1.354,-0.11,-0.21,0.14,0.03,-0.01,-0.05,
1.383,-0.11,-0.21,0.14,0.03,-0.01,-0.05,
1.383,-0.11,-0.21,0.14,0.03,-0.01,-0.05,
1.384,-0.11,-0.21,0.14,0.03,-0.01,-0.05,
1.384,-0.11,-0.21,0.14,0.03,-0.01,-0.05,
1.385,-0.01,-0.19,0.05,0.03,-0.01,-0.05,
1.385,-0.01,-0.19,0.05,0.03,-0.01,-0.05,
1.385,-0.01,-0.19,0.05,0.03,-0.02,-0.06,
1.386,-0.01,-0.19,0.05,0.03,-0.02,-0.06,
1.386,-0.01,-0.19,0.05,0.03,-0.02,-0.06,
1.387,-0.01,-0.19,0.05,0.03,-0.02,-0.06,
1.387,0.04,-0.13,-0.04,0.03,-0.02,-0.06,
1.388,0.04,-0.13,-0.04,0.03,-0.03,-0.07,
1.388,0.04,-0.13,-0.04,0.02,-0.03,-0.07,
1.388,0.04,-0.13,-0.04,0.02,-0.03,-0.08,
1.389,0.04,-0.13,-0.04,0.02,-0.03,-0.08,
1.389,0.04,-0.13,-0.04,0.02,-0.04,-0.08,
1.39,0.04,-0.13,-0.03,0.02,-0.04,-0.08,
1.39,0.04,-0.13,-0.03,0.02,-0.04,-0.08,
1.39,0.04,-0.13,-0.03,0.02,-0.05,-0.09,
1.391,0.04,-0.13,-0.03,0.02,-0.05,-0.09,
1.391,0.04,-0.13,-0.03,0.02,-0.05,-0.09,
1.392,0.04,-0.13,-0.03,0.02,-0.06,-0.10,
1.392,0.01,-0.12,-0.05,0.02,-0.06,-0.10,
1.392,0.01,-0.12,-0.05,0.02,-0.06,-0.10,
1.395,0.01,-0.12,-0.05,0.02,-0.07,-0.10,
1.396,0.01,-0.12,-0.05,0.02,-0.07,-0.10,
1.403,0.01,-0.12,-0.05,0.01,-0.07,-0.10,
1.403,0.01,-0.12,-0.05,0.01,-0.07,-0.11,
1.403,-0.08,-0.11,0.01,0.01,-0.07,-0.11,
1.404,-0.08,-0.11,0.01,0.01,-0.07,-0.10,
1.405,-0.08,-0.11,0.01,0.01,-0.07,-0.10,
1.406,-0.08,-0.11,0.01,0.01,-0.06,-0.10,
1.411,-0.08,-0.11,0.01,0.01,-0.06,-0.10,
1.411,-0.08,-0.11,0.01,0.01,-0.06,-0.10,
1.413,-0.14,-0.16,0.07,0.01,-0.06,-0.10,
1.413,-0.14,-0.16,0.07,0.01,-0.05,-0.10,
1.431,-0.14,-0.16,0.07,0.01,-0.04,-0.10,
1.432,-0.14,-0.16,0.07,0.01,-0.04,-0.09,
1.432,-0.14,-0.16,0.07,0.01,-0.04,-0.09,
1.432,-0.14,-0.16,0.07,0.01,-0.03,-0.09,
1.433,-0.14,-0.18,0.11,0.01,-0.03,-0.09,
1.433,-0.14,-0.18,0.11,0.01,-0.03,-0.09,
1.433,-0.14,-0.18,0.11,0.01,-0.02,-0.09,
1.433,-0.14,-0.18,0.11,0.01,-0.02,-0.09,
1.433,-0.14,-0.18,0.11,0.01,-0.02,-0.09,
1.434,-0.14,-0.18,0.11,0.01,-0.02,-0.08,
1.434,-0.11,-0.16,0.12,0.01,-0.02,-0.08,
1.434,-0.11,-0.16,0.12,0.01,-0.02,-0.09,
1.436,-0.11,-0.16,0.12,0.01,-0.02,-0.09,
1.436,-0.11,-0.16,0.12,0.01,-0.02,-0.08,
1.44,-0.11,-0.16,0.12,0.01,-0.01,-0.08,
1.441,-0.11,-0.16,0.12,0.01,-0.01,-0.08,
1.443,-0.07,-0.15,0.11,0.01,-0.01,-0.08,
1.443,-0.07,-0.15,0.11,0.01,-0.01,-0.08,
1.445,-0.07,-0.15,0.11,0.01,-0.01,-0.08,
1.452,-0.07,-0.15,0.11,0.01,-0.01,-0.08,
1.453,-0.07,-0.15,0.11,0.01,-0.01,-0.08,
1.453,-0.07,-0.15,0.11,0.02,-0.01,-0.08,
1.454,-0.03,-0.12,0.11,0.02,-0.01,-0.08,
1.454,-0.03,-0.12,0.11,0.02,-0.01,-0.08,
1.455,-0.03,-0.12,0.11,0.02,-0.01,-0.08,
1.456,-0.03,-0.12,0.11,0.02,-0.01,-0.08,
1.458,-0.03,-0.12,0.11,0.02,-0.01,-0.09,
1.46,-0.03,-0.12,0.11,0.02,-0.01,-0.08,
1.462,0.02,-0.09,0.11,0.02,-0.01,-0.08,
1.463,0.02,-0.09,0.11,0.03,-0.01,-0.09,
1.467,0.02,-0.09,0.11,0.03,-0.01,-0.09,
1.468,0.02,-0.09,0.11,0.03,-0.01,-0.09,
1.47,0.02,-0.09,0.11,0.04,-0.01,-0.09,
1.47,0.02,-0.09,0.11,0.04,-0.01,-0.09,
1.474,0.08,-0.08,0.17,0.04,-0.01,-0.09,
1.474,0.08,-0.08,0.17,0.04,-0.01,-0.09,
1.475,0.08,-0.08,0.17,0.05,-0.01,-0.10,
1.476,0.08,-0.08,0.17,0.05,-0.01,-0.10,
1.478,0.08,-0.08,0.17,0.06,-0.01,-0.10,
1.482,0.08,-0.08,0.17,0.06,-0.01,-0.10,
1.483,0.13,-0.04,0.15,0.06,-0.01,-0.10,
1.484,0.13,-0.04,0.15,0.06,-0.01,-0.10,
1.486,0.13,-0.04,0.15,0.07,-0.00,-0.10,
1.487,0.13,-0.04,0.15,0.07,-0.00,-0.11,
1.488,0.13,-0.04,0.15,0.07,0.00,-0.11,
1.491,0.13,-0.04,0.15,0.08,0.00,-0.11,
1.492,0.16,-0.04,0.10,0.08,0.00,-0.11,
1.494,0.16,-0.04,0.10,0.08,0.01,-0.12,
1.495,0.16,-0.04,0.10,0.08,0.01,-0.12,
1.498,0.16,-0.04,0.10,0.09,0.01,-0.12,
1.499,0.16,-0.04,0.10,0.09,0.01,-0.12,
1.5,0.16,-0.04,0.10,0.09,0.01,-0.13,
1.503,0.18,-0.04,-0.02,0.09,0.01,-0.13,
1.503,0.18,-0.04,-0.02,0.09,0.01,-0.13,
1.505,0.18,-0.04,-0.02,0.09,0.01,-0.13,
1.507,0.18,-0.04,-0.02,0.08,0.01,-0.14,
1.508,0.18,-0.04,-0.02,0.08,0.00,-0.14,
1.511,0.18,-0.04,-0.02,0.08,0.00,-0.14,
1.513,0.17,-0.06,-0.20,0.08,0.00,-0.14,
1.513,0.17,-0.06,-0.20,0.08,-0.00,-0.14,
1.516,0.17,-0.06,-0.20,0.07,-0.01,-0.15,
1.517,0.17,-0.06,-0.20,0.07,-0.02,-0.15,
1.518,0.17,-0.06,-0.20,0.07,-0.02,-0.15,
1.52,0.17,-0.06,-0.20,0.06,-0.03,-0.16,
1.551,0.12,-0.09,-0.30,0.06,-0.03,-0.16,
1.552,0.12,-0.09,-0.30,0.06,-0.04,-0.16,
1.552,0.12,-0.09,-0.30,0.06,-0.05,-0.16,
1.553,0.12,-0.09,-0.30,0.06,-0.06,-0.16,
1.554,0.12,-0.09,-0.30,0.05,-0.07,-0.16,
1.554,0.12,-0.09,-0.30,0.05,-0.08,-0.16,
1.555,0.02,-0.09,-0.38,0.05,-0.08,-0.16,
1.555,0.02,-0.09,-0.38,0.05,-0.09,-0.16,
1.556,0.02,-0.09,-0.38,0.04,-0.09,-0.16,
1.556,0.02,-0.09,-0.38,0.04,-0.10,-0.16,
1.557,0.02,-0.09,-0.38,0.04,-0.11,-0.16,
1.557,0.02,-0.09,-0.38,0.04,-0.11,-0.16,
1.557,-0.08,-0.09,-0.32,0.04,-0.11,-0.16,
1.558,-0.08,-0.09,-0.32,0.04,-0.12,-0.16,
1.558,-0.08,-0.09,-0.32,0.04,-0.12,-0.16,
1.559,-0.08,-0.09,-0.32,0.04,-0.12,-0.16,
1.559,-0.08,-0.09,-0.32,0.04,-0.12,-0.16,
1.559,-0.08,-0.09,-0.32,0.04,-0.12,-0.16,
1.56,-0.08,-0.12,-0.20,0.04,-0.12,-0.16,
1.56,-0.08,-0.12,-0.20,0.04,-0.12,-0.16,
1.561,-0.08,-0.12,-0.20,0.04,-0.12,-0.16,
1.561,-0.08,-0.12,-0.20,0.04,-0.12,-0.16,
1.561,-0.08,-0.12,-0.20,0.04,-0.12,-0.15,
1.562,-0.08,-0.12,-0.20,0.04,-0.12,-0.15,
1.562,-0.12,-0.12,-0.21,0.04,-0.12,-0.15,
1.562,-0.12,-0.12,-0.21,0.03,-0.12,-0.15,
1.565,-0.12,-0.12,-0.21,0.02,-0.12,-0.15,
1.566,-0.12,-0.12,-0.21,0.02,-0.11,-0.15,
1.568,-0.12,-0.12,-0.21,0.02,-0.11,-0.15,
1.571,-0.12,-0.12,-0.21,0.02,-0.10,-0.15,
1.573,-0.10,-0.14,-0.26,0.02,-0.10,-0.15,
1.573,-0.10,-0.14,-0.26,0.02,-0.10,-0.14,
1.576,-0.10,-0.14,-0.26,0.02,-0.10,-0.14,
1.576,-0.10,-0.14,-0.26,0.01,-0.10,-0.14,
1.578,-0.10,-0.14,-0.26,0.01,-0.10,-0.14,
1.584,-0.10,-0.14,-0.26,0.00,-0.09,-0.14,
1.584,-0.09,-0.18,-0.29,0.00,-0.09,-0.14,
1.585,-0.09,-0.18,-0.29,-0.00,-0.09,-0.14,
1.585,-0.09,-0.18,-0.29,-0.00,-0.09,-0.14,
1.586,-0.09,-0.18,-0.29,-0.01,-0.09,-0.14,
1.588,-0.09,-0.18,-0.29,-0.01,-0.09,-0.14,
1.594,-0.09,-0.18,-0.29,-0.01,-0.09,-0.14,
1.594,-0.08,-0.16,-0.24,-0.01,-0.09,-0.14,
1.595,-0.08,-0.16,-0.24,-0.02,-0.09,-0.14,
1.607,-0.08,-0.16,-0.24,-0.02,-0.09,-0.14,
1.609,-0.08,-0.16,-0.24,-0.02,-0.10,-0.14,
1.609,-0.08,-0.16,-0.24,-0.02,-0.10,-0.14,
1.61,-0.08,-0.16,-0.24,-0.02,-0.11,-0.15,
1.61,-0.04,-0.16,-0.18,-0.02,-0.11,-0.15,
1.61,-0.04,-0.16,-0.18,-0.03,-0.11,-0.15,
1.611,-0.04,-0.16,-0.18,-0.03,-0.12,-0.15,
1.611,-0.04,-0.16,-0.18,-0.03,-0.12,-0.15,
1.612,-0.04,-0.16,-0.18,-0.03,-0.12,-0.15,
1.612,-0.04,-0.16,-0.18,-0.03,-0.12,-0.15,
1.613,0.00,-0.16,-0.09,-0.03,-0.12,-0.15,
1.614,0.00,-0.16,-0.09,-0.03,-0.12,-0.15,
1.621,0.00,-0.16,-0.09,-0.04,-0.12,-0.15,
1.622,0.00,-0.16,-0.09,-0.04,-0.12,-0.16,
1.623,0.00,-0.16,-0.09,-0.04,-0.12,-0.16,
1.623,0.00,-0.16,-0.09,-0.04,-0.12,-0.16,
1.624,-0.01,-0.17,-0.02,-0.04,-0.12,-0.16,
1.624,-0.01,-0.17,-0.02,-0.04,-0.12,-0.16,
1.626,-0.01,-0.17,-0.02,-0.04,-0.11,-0.16,
1.627,-0.01,-0.17,-0.02,-0.04,-0.11,-0.16,
1.628,-0.01,-0.17,-0.02,-0.04,-0.11,-0.16,
1.631,-0.01,-0.17,-0.02,-0.04,-0.10,-0.16,
1.636,-0.02,-0.17,0.06,-0.04,-0.10,-0.16,
1.636,-0.02,-0.17,0.06,-0.04,-0.10,-0.16,
1.637,-0.02,-0.17,0.06,-0.03,-0.10,-0.16,
1.638,-0.02,-0.17,0.06,-0.03,-0.09,-0.16,
1.639,-0.02,-0.17,0.06,-0.03,-0.09,-0.16,
1.64,-0.02,-0.17,0.06,-0.02,-0.09,-0.16,
1.642,-0.09,-0.18,0.12,-0.02,-0.09,-0.16,
1.647,-0.09,-0.18,0.12,-0.01,-0.09,-0.15,
1.649,-0.09,-0.18,0.12,-0.01,-0.09,-0.15,
1.649,-0.09,-0.18,0.12,-0.01,-0.09,-0.15,
1.65,-0.09,-0.18,0.12,-0.01,-0.09,-0.15,
1.65,-0.09,-0.18,0.12,-0.01,-0.09,-0.14,
1.652,-0.20,-0.18,0.09,-0.01,-0.09,-0.14,
1.652,-0.20,-0.18,0.09,-0.00,-0.09,-0.14,
1.655,-0.20,-0.18,0.09,0.00,-0.10,-0.13,
1.657,-0.20,-0.18,0.09,0.01,-0.10,-0.13,
1.658,-0.20,-0.18,0.09,0.01,-0.10,-0.13,
1.661,-0.20,-0.18,0.09,0.01,-0.10,-0.13,
1.664,-0.27,-0.15,-0.00,0.01,-0.10,-0.13,
1.665,-0.27,-0.15,-0.00,0.01,-0.11,-0.12,
1.666,-0.27,-0.15,-0.00,0.01,-0.11,-0.12,
1.667,-0.27,-0.15,-0.00,0.01,-0.11,-0.12,
1.668,-0.27,-0.15,-0.00,0.01,-0.11,-0.11,
1.67,-0.27,-0.15,-0.00,0.01,-0.12,-0.11,
1.672,-0.28,-0.14,-0.06,0.01,-0.12,-0.11,
1.673,-0.28,-0.14,-0.06,0.02,-0.12,-0.11,
1.678,-0.28,-0.14,-0.06,0.02,-0.12,-0.10,
1.678,-0.28,-0.14,-0.06,0.02,-0.12,-0.10,
1.678,-0.28,-0.14,-0.06,0.02,-0.13,-0.10,
1.68,-0.28,-0.14,-0.06,0.02,-0.13,-0.10,
1.684,-0.27,-0.10,-0.06,0.02,-0.13,-0.10,
1.684,-0.27,-0.10,-0.06,0.02,-0.13,-0.09,
1.687,-0.27,-0.10,-0.06,0.02,-0.13,-0.09,
1.688,-0.27,-0.10,-0.06,0.02,-0.14,-0.09,
1.731,-0.27,-0.10,-0.06,0.02,-0.14,-0.09,
1.731,-0.27,-0.10,-0.06,0.02,-0.14,-0.09,
1.731,-0.19,-0.02,-0.04,0.02,-0.14,-0.09,
1.732,-0.19,-0.02,-0.04,0.02,-0.15,-0.09,
1.732,-0.19,-0.02,-0.04,0.02,-0.15,-0.09,
1.733,-0.19,-0.02,-0.04,0.02,-0.15,-0.09,
1.733,-0.19,-0.02,-0.04,0.03,-0.15,-0.09,
1.733,-0.19,-0.02,-0.04,0.02,-0.15,-0.09,
1.734,-0.15,0.04,-0.04,0.02,-0.15,-0.09,
1.734,-0.15,0.04,-0.04,0.02,-0.15,-0.09,
1.735,-0.15,0.04,-0.04,0.02,-0.15,-0.10,
1.735,-0.15,0.04,-0.04,0.02,-0.15,-0.10,
1.735,-0.15,0.04,-0.04,0.02,-0.15,-0.10,
1.736,-0.15,0.04,-0.04,0.02,-0.14,-0.10,
1.736,-0.03,0.04,-0.06,0.02,-0.14,-0.10,
1.737,-0.03,0.04,-0.06,0.01,-0.14,-0.11,
1.737,-0.03,0.04,-0.06,0.01,-0.13,-0.11,
1.737,-0.03,0.04,-0.06,0.01,-0.13,-0.11,
1.738,-0.03,0.04,-0.06,0.01,-0.12,-0.11,
1.738,-0.03,0.04,-0.06,0.01,-0.12,-0.12,
1.739,0.01,0.10,-0.07,0.01,-0.12,-0.12,
1.739,0.01,0.10,-0.07,0.01,-0.11,-0.12,
1.739,0.01,0.10,-0.07,0.01,-0.10,-0.12,
1.74,0.01,0.10,-0.07,0.01,-0.10,-0.12,
1.74,0.01,0.10,-0.07,0.00,-0.10,-0.12,
1.741,0.01,0.10,-0.07,-0.00,-0.09,-0.13,
1.741,-0.05,0.11,-0.09,-0.00,-0.09,-0.13,
1.741,-0.05,0.11,-0.09,-0.00,-0.09,-0.13,
1.742,-0.05,0.11,-0.09,-0.01,-0.08,-0.13,
1.742,-0.05,0.11,-0.09,-0.01,-0.07,-0.13,
1.743,-0.05,0.11,-0.09,-0.01,-0.07,-0.12,
1.743,-0.05,0.11,-0.09,-0.02,-0.07,-0.12,
1.744,-0.22,0.09,-0.17,-0.02,-0.07,-0.12,
1.744,-0.22,0.09,-0.17,-0.02,-0.06,-0.12,
1.755,-0.22,0.09,-0.17,-0.02,-0.06,-0.11,
1.756,-0.22,0.09,-0.17,-0.03,-0.06,-0.12,
1.757,-0.22,0.09,-0.17,-0.03,-0.06,-0.12,
1.757,-0.22,0.09,-0.17,-0.03,-0.06,-0.12,
1.758,-0.17,0.03,-0.20,-0.03,-0.06,-0.12,
1.758,-0.17,0.03,-0.20,-0.03,-0.07,-0.12,
1.759,-0.17,0.03,-0.20,-0.04,-0.07,-0.12,
1.759,-0.17,0.03,-0.20,-0.04,-0.06,-0.12,
1.759,-0.17,0.03,-0.20,-0.04,-0.06,-0.12,
1.777,-0.17,0.03,-0.20,-0.04,-0.06,-0.11,
1.782,-0.21,0.10,-0.16,-0.04,-0.06,-0.11,
1.783,-0.21,0.10,-0.16,-0.04,-0.06,-0.11,
1.783,-0.21,0.10,-0.16,-0.04,-0.06,-0.11,
1.783,-0.21,0.10,-0.16,-0.04,-0.06,-0.11,
1.783,-0.21,0.10,-0.16,-0.04,-0.06,-0.11,
1.784,-0.21,0.10,-0.16,-0.04,-0.07,-0.11,
1.784,-0.18,0.04,-0.08,-0.04,-0.07,-0.11,
1.784,-0.18,0.04,-0.08,-0.04,-0.07,-0.12,
1.784,-0.18,0.04,-0.08,-0.04,-0.07,-0.12,
1.784,-0.18,0.04,-0.08,-0.04,-0.08,-0.12,
1.785,-0.18,0.04,-0.08,-0.03,-0.07,-0.11,
1.785,-0.18,0.04,-0.08,-0.03,-0.08,-0.11,
1.785,-0.20,0.02,0.01,-0.03,-0.08,-0.11,
1.785,-0.20,0.02,0.01,-0.03,-0.08,-0.12,
1.785,-0.20,0.02,0.01,-0.02,-0.08,-0.11,
1.786,-0.20,0.02,0.01,-0.01,-0.09,-0.11,
1.788,-0.20,0.02,0.01,-0.01,-0.09,-0.11,
1.79,-0.20,0.02,0.01,-0.01,-0.09,-0.11,
1.792,-0.23,0.05,0.08,-0.01,-0.09,-0.11,
1.792,-0.23,0.05,0.08,-0.00,-0.10,-0.11,
1.797,-0.23,0.05,0.08,-0.00,-0.11,-0.11,
1.798,-0.23,0.05,0.08,-0.00,-0.11,-0.11,
1.799,-0.23,0.05,0.08,0.00,-0.11,-0.11,
1.801,-0.23,0.05,0.08,0.00,-0.12,-0.11,
1.802,-0.15,0.03,0.01,0.00,-0.12,-0.11,
1.803,-0.15,0.03,0.01,0.00,-0.12,-0.11,
1.805,-0.15,0.03,0.01,-0.00,-0.12,-0.11,
1.806,-0.15,0.03,0.01,-0.01,-0.12,-0.11,
1.809,-0.15,0.03,0.01,-0.01,-0.11,-0.11,
1.81,-0.15,0.03,0.01,-0.01,-0.11,-0.11,
1.813,-0.08,0.03,-0.10,-0.01,-0.11,-0.11,
1.815,-0.08,0.03,-0.10,-0.01,-0.11,-0.12,
1.816,-0.08,0.03,-0.10,-0.02,-0.11,-0.12,
1.816,-0.08,0.03,-0.10,-0.02,-0.11,-0.12,
1.822,-0.08,0.03,-0.10,-0.03,-0.11,-0.12,
1.823,-0.08,0.03,-0.10,-0.03,-0.10,-0.13,
1.824,-0.08,0.07,-0.10,-0.03,-0.10,-0.13,
1.824,-0.08,0.07,-0.10,-0.03,-0.10,-0.13,
1.825,-0.08,0.07,-0.10,-0.03,-0.10,-0.13,
1.826,-0.08,0.07,-0.10,-0.03,-0.10,-0.13,
1.83,-0.08,0.07,-0.10,-0.04,-0.10,-0.13,
1.831,-0.08,0.07,-0.10,-0.04,-0.09,-0.13,
1.833,-0.13,0.07,-0.07,-0.04,-0.09,-0.13,
1.834,-0.13,0.07,-0.07,-0.04,-0.09,-0.14,
1.835,-0.13,0.07,-0.07,-0.04,-0.09,-0.14,
1.836,-0.13,0.07,-0.07,-0.04,-0.09,-0.14,
1.838,-0.13,0.07,-0.07,-0.04,-0.08,-0.14,
1.84,-0.13,0.07,-0.07,-0.04,-0.08,-0.14,
1.843,-0.22,0.04,-0.05,-0.04,-0.08,-0.14,
1.843,-0.22,0.04,-0.05,-0.05,-0.07,-0.13,
1.858,-0.22,0.04,-0.05,-0.05,-0.06,-0.13,
1.859,-0.22,0.04,-0.05,-0.05,-0.06,-0.13,
1.859,-0.22,0.04,-0.05,-0.05,-0.05,-0.13,
1.86,-0.22,0.04,-0.05,-0.05,-0.05,-0.13,
1.86,-0.30,-0.03,-0.04,-0.05,-0.05,-0.13,
1.861,-0.30,-0.03,-0.04,-0.05,-0.04,-0.13,
1.89,-0.30,-0.03,-0.04,-0.05,-0.04,-0.12,
1.89,-0.30,-0.03,-0.04,-0.05,-0.03,-0.12,
1.891,-0.30,-0.03,-0.04,-0.05,-0.03,-0.12,
1.891,-0.30,-0.03,-0.04,-0.05,-0.02,-0.11,
1.891,-0.40,-0.04,-0.03,-0.05,-0.02,-0.11,
1.892,-0.40,-0.04,-0.03,-0.05,-0.02,-0.11,
1.892,-0.40,-0.04,-0.03,-0.05,-0.02,-0.10,
1.893,-0.40,-0.04,-0.03,-0.05,-0.01,-0.10,
1.893,-0.40,-0.04,-0.03,-0.04,-0.01,-0.10,
1.894,-0.40,-0.04,-0.03,-0.05,-0.01,-0.09,
1.894,-0.45,-0.07,-0.10,-0.05,-0.01,-0.09,
1.894,-0.45,-0.07,-0.10,-0.05,-0.02,-0.09,
1.895,-0.45,-0.07,-0.10,-0.05,-0.02,-0.08,
1.895,-0.45,-0.07,-0.10,-0.05,-0.02,-0.08,
1.896,-0.45,-0.07,-0.10,-0.05,-0.02,-0.08,
1.896,-0.45,-0.07,-0.10,-0.05,-0.03,-0.07,
1.896,-0.45,-0.10,-0.21,-0.05,-0.03,-0.07,
1.897,-0.45,-0.10,-0.21,-0.05,-0.03,-0.07,
1.897,-0.45,-0.10,-0.21,-0.05,-0.04,-0.06,
1.898,-0.45,-0.10,-0.21,-0.05,-0.04,-0.06,
1.898,-0.45,-0.10,-0.21,-0.05,-0.05,-0.06,
1.898,-0.45,-0.10,-0.21,-0.06,-0.06,-0.06,
1.899,-0.44,-0.09,-0.22,-0.06,-0.06,-0.06,
1.899,-0.44,-0.09,-0.22,-0.06,-0.06,-0.05,
1.9,-0.44,-0.09,-0.22,-0.06,-0.07,-0.05,
1.9,-0.44,-0.09,-0.22,-0.06,-0.08,-0.05,
1.9,-0.44,-0.09,-0.22,-0.06,-0.09,-0.05,
1.901,-0.44,-0.09,-0.22,-0.06,-0.09,-0.05,
1.903,-0.39,-0.15,-0.13,-0.06,-0.09,-0.05,
1.904,-0.39,-0.15,-0.13,-0.06,-0.10,-0.04,
1.905,-0.39,-0.15,-0.13,-0.06,-0.10,-0.04,
1.906,-0.39,-0.15,-0.13,-0.06,-0.11,-0.04,
1.908,-0.39,-0.15,-0.13,-0.05,-0.11,-0.04,
1.91,-0.39,-0.15,-0.13,-0.05,-0.11,-0.04,
1.913,-0.32,-0.23,0.03,-0.05,-0.11,-0.04,
1.913,-0.32,-0.23,0.03,-0.05,-0.11,-0.04,
1.915,-0.32,-0.23,0.03,-0.05,-0.11,-0.03,
1.916,-0.32,-0.23,0.03,-0.04,-0.11,-0.03,
1.918,-0.32,-0.23,0.03,-0.04,-0.11,-0.03,
1.92,-0.32,-0.23,0.03,-0.04,-0.11,-0.03,
1.922,-0.31,-0.22,0.23,-0.04,-0.11,-0.03,
1.922,-0.31,-0.22,0.23,-0.03,-0.11,-0.03,
1.926,-0.31,-0.22,0.23,-0.02,-0.11,-0.03,
1.926,-0.31,-0.22,0.23,-0.02,-0.11,-0.03,
1.93,-0.31,-0.22,0.23,-0.01,-0.11,-0.03,
1.931,-0.31,-0.22,0.23,-0.01,-0.10,-0.03,
1.933,-0.35,-0.22,0.33,-0.01,-0.10,-0.03,
1.934,-0.35,-0.22,0.33,-0.00,-0.10,-0.02,
1.935,-0.35,-0.22,0.33,-0.00,-0.09,-0.02,
1.936,-0.35,-0.22,0.33,-0.00,-0.09,-0.01,
1.938,-0.35,-0.22,0.33,0.00,-0.08,-0.00,
1.94,-0.35,-0.22,0.33,0.00,-0.08,0.00,
1.942,-0.51,-0.30,0.26,0.00,-0.08,0.00,
1.942,-0.51,-0.30,0.26,0.01,-0.07,0.01,
1.947,-0.51,-0.30,0.26,0.01,-0.06,0.02,
1.947,-0.51,-0.30,0.26,0.01,-0.06,0.02,
1.949,-0.51,-0.30,0.26,0.01,-0.05,0.03,
1.951,-0.51,-0.30,0.26,0.00,-0.04,0.04,
1.952,-0.57,-0.30,0.14,0.00,-0.04,0.04,
1.953,-0.57,-0.30,0.14,0.00,-0.04,0.05,
1.955,-0.57,-0.30,0.14,0.00,-0.03,0.06,
1.956,-0.57,-0.30,0.14,0.00,-0.03,0.06,
1.959,-0.57,-0.30,0.14,0.00,-0.03,0.07,
1.964,-0.57,-0.30,0.14,0.01,-0.02,0.07,
1.965,-0.57,-0.25,0.06,0.01,-0.02,0.07,
1.965,-0.57,-0.25,0.06,0.01,-0.02,0.08,
1.966,-0.57,-0.25,0.06,0.01,-0.01,0.09,
1.966,-0.57,-0.25,0.06,0.01,-0.01,0.09,
1.971,-0.57,-0.25,0.06,0.01,-0.01,0.09,
1.972,-0.57,-0.25,0.06,0.00,-0.00,0.10,
1.973,-0.41,-0.21,-0.05,0.00,-0.00,0.10,
1.973,-0.41,-0.21,-0.05,0.00,0.00,0.10,
1.976,-0.41,-0.21,-0.05,-0.00,0.01,0.10,
1.976,-0.41,-0.21,-0.05,-0.00,0.01,0.10,
1.981,-0.41,-0.21,-0.05,-0.00,0.01,0.11,
1.982,-0.41,-0.21,-0.05,-0.00,0.01,0.11,
1.983,-0.26,-0.12,-0.12,-0.00,0.01,0.11,
1.984,-0.26,-0.12,-0.12,-0.01,0.02,0.11,
1.986,-0.26,-0.12,-0.12,-0.00,0.02,0.11,
1.987,-0.26,-0.12,-0.12,-0.00,0.02,0.11,
1.988,-0.26,-0.12,-0.12,-0.00,0.01,0.11,
1.991,-0.26,-0.12,-0.12,-0.00,0.01,0.11,
1.993,-0.15,-0.04,-0.13,-0.00,0.01,0.11,
1.993,-0.15,-0.04,-0.13,-0.00,0.01,0.11,
1.996,-0.15,-0.04,-0.13,-0.00,0.01,0.11,
1.997,-0.15,-0.04,-0.13,-0.01,0.01,0.11,
1.999,-0.15,-0.04,-0.13,-0.01,0.01,0.11,
2.0,-0.15,-0.04,-0.13,-0.01,0.01,0.11,
2.002,0.02,0.06,-0.20,-0.01,0.01,0.11,
2.003,0.02,0.06,-0.20,-0.01,0.01,0.11,
2.006,0.02,0.06,-0.20,-0.01,0.00,0.10,
2.007,0.02,0.06,-0.20,-0.01,0.00,0.10,
2.008,0.02,0.06,-0.20,-0.01,-0.00,0.10,
2.011,0.02,0.06,-0.20,-0.02,-0.00,0.09,
2.013,0.20,0.09,-0.21,-0.02,-0.00,0.09,
2.013,0.20,0.09,-0.21,-0.02,-0.01,0.09,
2.015,0.20,0.09,-0.21,-0.02,-0.01,0.08,
2.016,0.20,0.09,-0.21,-0.03,-0.02,0.08,
2.018,0.20,0.09,-0.21,-0.03,-0.02,0.07,
2.02,0.20,0.09,-0.21,-0.03,-0.02,0.06,
2.055,0.28,0.10,-0.19,-0.03,-0.02,0.06,
2.056,0.28,0.10,-0.19,-0.03,-0.02,0.06,
2.057,0.28,0.10,-0.19,-0.04,-0.02,0.05,
2.057,0.28,0.10,-0.19,-0.04,-0.02,0.05,
2.058,0.28,0.10,-0.19,-0.04,-0.02,0.05,
2.059,0.28,0.10,-0.19,-0.04,-0.02,0.05,
2.06,0.21,0.09,-0.17,-0.04,-0.02,0.05,
2.061,0.21,0.09,-0.17,-0.04,-0.01,0.04,
2.063,0.21,0.09,-0.17,-0.05,-0.01,0.04,
2.064,0.21,0.09,-0.17,-0.05,-0.01,0.04,
2.064,0.21,0.09,-0.17,-0.06,-0.00,0.04,
2.065,0.21,0.09,-0.17,-0.06,0.00,0.04,
2.066,0.04,0.00,-0.11,-0.06,0.00,0.04,
2.067,0.04,0.00,-0.11,-0.06,0.00,0.04,
2.067,0.04,0.00,-0.11,-0.06,0.01,0.05,
2.068,0.04,0.00,-0.11,-0.06,0.01,0.05,
2.068,0.04,0.00,-0.11,-0.06,0.01,0.05,
2.068,0.04,0.00,-0.11,-0.06,0.02,0.05,
2.069,-0.11,-0.06,0.05,-0.06,0.02,0.05,
2.069,-0.11,-0.06,0.05,-0.06,0.02,0.06,
2.069,-0.11,-0.06,0.05,-0.06,0.02,0.06,
2.07,-0.11,-0.06,0.05,-0.06,0.02,0.07,
2.07,-0.11,-0.06,0.05,-0.06,0.03,0.07,
2.071,-0.11,-0.06,0.05,-0.05,0.03,0.07,
2.071,-0.18,-0.12,0.14,-0.05,0.03,0.07,
2.072,-0.18,-0.12,0.14,-0.05,0.03,0.07,
2.072,-0.18,-0.12,0.14,-0.05,0.04,0.08,
2.072,-0.18,-0.12,0.14,-0.05,0.04,0.08,
2.073,-0.18,-0.12,0.14,-0.05,0.04,0.08,
2.073,-0.18,-0.12,0.14,-0.05,0.04,0.09,
2.074,-0.21,-0.13,0.12,-0.05,0.04,0.09,
2.074,-0.21,-0.13,0.12,-0.05,0.04,0.09,
2.077,-0.21,-0.13,0.12,-0.04,0.04,0.10,
2.079,-0.21,-0.13,0.12,-0.04,0.05,0.10,
2.079,-0.21,-0.13,0.12,-0.04,0.04,0.10,
2.08,-0.21,-0.13,0.12,-0.04,0.04,0.11,
2.083,-0.29,-0.12,0.07,-0.04,0.04,0.11,
2.083,-0.29,-0.12,0.07,-0.04,0.04,0.11,
2.085,-0.29,-0.12,0.07,-0.04,0.04,0.12,
2.086,-0.29,-0.12,0.07,-0.04,0.04,0.12,
2.088,-0.29,-0.12,0.07,-0.03,0.04,0.13,
2.091,-0.29,-0.12,0.07,-0.03,0.04,0.13,
2.092,-0.33,-0.12,0.05,-0.03,0.04,0.13,
2.093,-0.33,-0.12,0.05,-0.03,0.04,0.14,
2.098,-0.33,-0.12,0.05,-0.03,0.04,0.14,
2.1,-0.33,-0.12,0.05,-0.03,0.04,0.14,
2.1,-0.33,-0.12,0.05,-0.03,0.04,0.14,
2.1,-0.33,-0.12,0.05,-0.02,0.04,0.15,
2.103,-0.25,-0.12,0.06,-0.02,0.04,0.15,
2.103,-0.25,-0.12,0.06,-0.02,0.04,0.15,
2.105,-0.25,-0.12,0.06,-0.02,0.04,0.15,
2.106,-0.25,-0.12,0.06,-0.02,0.04,0.15,
2.108,-0.25,-0.12,0.06,-0.02,0.04,0.15,
2.112,-0.25,-0.12,0.06,-0.01,0.04,0.16,
2.113,-0.18,-0.06,0.10,-0.01,0.04,0.16,
2.113,-0.18,-0.06,0.10,-0.01,0.04,0.16,
2.116,-0.18,-0.06,0.10,-0.00,0.05,0.16,
2.116,-0.18,-0.06,0.10,-0.00,0.05,0.16,
2.119,-0.18,-0.06,0.10,0.00,0.05,0.16,
2.12,-0.18,-0.06,0.10,0.01,0.05,0.16,
2.122,-0.11,0.02,0.13,0.01,0.05,0.16,
2.122,-0.11,0.02,0.13,0.01,0.05,0.16,
2.125,-0.11,0.02,0.13,0.01,0.06,0.16,
2.132,-0.11,0.02,0.13,0.02,0.06,0.16,
2.133,-0.11,0.02,0.13,0.02,0.06,0.16,
2.133,-0.11,0.02,0.13,0.02,0.06,0.16,
2.133,-0.12,0.04,0.11,0.02,0.06,0.16,
2.133,-0.12,0.04,0.11,0.02,0.06,0.17,
2.135,-0.12,0.04,0.11,0.02,0.07,0.17,
2.136,-0.12,0.04,0.11,0.02,0.07,0.17,
2.138,-0.12,0.04,0.11,0.02,0.07,0.17,
2.143,-0.12,0.04,0.11,0.02,0.07,0.18,
2.157,-0.18,0.04,0.05,0.02,0.07,0.18,
2.16,-0.18,0.04,0.05,0.02,0.08,0.18,
2.16,-0.18,0.04,0.05,0.02,0.08,0.18,
2.163,-0.18,0.04,0.05,0.02,0.08,0.18,
2.163,-0.18,0.04,0.05,0.02,0.09,0.19,
2.164,-0.18,0.04,0.05,0.02,0.09,0.19,
2.164,-0.20,0.03,-0.03,0.02,0.09,0.19,
2.165,-0.20,0.03,-0.03,0.01,0.09,0.20,
2.165,-0.20,0.03,-0.03,0.01,0.09,0.20,
2.165,-0.20,0.03,-0.03,0.01,0.10,0.20,
2.166,-0.20,0.03,-0.03,0.01,0.10,0.20,
2.167,-0.20,0.03,-0.03,0.01,0.10,0.21,
2.167,-0.20,0.04,-0.04,0.01,0.10,0.21,
2.167,-0.20,0.04,-0.04,0.01,0.10,0.21,
2.167,-0.20,0.04,-0.04,0.01,0.10,0.21,
2.167,-0.20,0.04,-0.04,0.01,0.10,0.21,
2.169,-0.20,0.04,-0.04,0.02,0.10,0.21,
2.17,-0.20,0.04,-0.04,0.02,0.10,0.22,
2.172,-0.19,0.01,-0.02,0.02,0.10,0.22,
2.173,-0.19,0.01,-0.02,0.02,0.10,0.22,
2.175,-0.19,0.01,-0.02,0.02,0.10,0.22,
2.178,-0.19,0.01,-0.02,0.02,0.10,0.22,
2.18,-0.19,0.01,-0.02,0.02,0.11,0.22,
2.182,-0.19,0.01,-0.02,0.03,0.11,0.22,
2.183,-0.20,-0.00,-0.02,0.03,0.11,0.22,
2.183,-0.20,-0.00,-0.02,0.03,0.11,0.23,
2.185,-0.20,-0.00,-0.02,0.03,0.11,0.23,
2.186,-0.20,-0.00,-0.02,0.03,0.12,0.23,
2.222,-0.20,-0.00,-0.02,0.03,0.12,0.23,
2.222,-0.20,-0.00,-0.02,0.03,0.12,0.23,
2.223,-0.17,-0.02,-0.07,0.03,0.12,0.23,
2.224,-0.17,-0.02,-0.07,0.03,0.12,0.24,
2.224,-0.17,-0.02,-0.07,0.03,0.12,0.24,
2.225,-0.17,-0.02,-0.07,0.03,0.12,0.24,
2.226,-0.17,-0.02,-0.07,0.03,0.12,0.24,
2.227,-0.17,-0.02,-0.07,0.02,0.12,0.24,
2.227,-0.10,-0.06,-0.15,0.02,0.12,0.24,
2.227,-0.10,-0.06,-0.15,0.02,0.11,0.23,
2.228,-0.10,-0.06,-0.15,0.02,0.12,0.23,
2.228,-0.10,-0.06,-0.15,0.02,0.11,0.23,
2.229,-0.10,-0.06,-0.15,0.01,0.11,0.23,
2.229,-0.10,-0.06,-0.15,0.01,0.11,0.22,
2.229,-0.00,-0.01,-0.16,0.01,0.11,0.22,
2.23,-0.00,-0.01,-0.16,0.01,0.10,0.22,
2.23,-0.00,-0.01,-0.16,0.01,0.09,0.21,
2.231,-0.00,-0.01,-0.16,0.01,0.09,0.21,
2.231,-0.00,-0.01,-0.16,0.01,0.08,0.20,
2.232,-0.00,-0.01,-0.16,0.01,0.08,0.20,
2.232,0.13,0.01,-0.11,0.01,0.08,0.20,
2.232,0.13,0.01,-0.11,0.01,0.07,0.19,
2.233,0.13,0.01,-0.11,0.01,0.07,0.18,
2.233,0.13,0.01,-0.11,0.01,0.07,0.18,
2.233,0.13,0.01,-0.11,0.01,0.06,0.17,
2.234,0.13,0.01,-0.11,0.01,0.06,0.17,
2.234,0.13,-0.03,0.01,0.01,0.06,0.17,
2.235,0.13,-0.03,0.01,0.01,0.06,0.16,
2.235,0.13,-0.03,0.01,0.01,0.06,0.16,
2.237,0.13,-0.03,0.01,0.02,0.06,0.16,
2.238,0.13,-0.03,0.01,0.02,0.06,0.16,
2.241,0.13,-0.03,0.01,0.02,0.07,0.16,
2.247,-0.04,-0.09,0.17,0.02,0.07,0.16,
2.247,-0.04,-0.09,0.17,0.02,0.07,0.16,
2.248,-0.04,-0.09,0.17,0.02,0.08,0.16,
2.248,-0.04,-0.09,0.17,0.02,0.08,0.16,
2.249,-0.04,-0.09,0.17,0.02,0.08,0.17,
2.253,-0.04,-0.09,0.17,0.02,0.09,0.17,
2.253,-0.25,-0.15,0.20,0.02,0.09,0.17,
2.254,-0.25,-0.15,0.20,0.02,0.10,0.18,
2.256,-0.25,-0.15,0.20,0.02,0.11,0.19,
2.257,-0.25,-0.15,0.20,0.02,0.11,0.19,
2.26,-0.25,-0.15,0.20,0.02,0.12,0.20,
2.261,-0.25,-0.15,0.20,0.02,0.13,0.21,
2.267,-0.37,-0.19,0.18,0.02,0.13,0.21,
2.268,-0.37,-0.19,0.18,0.01,0.13,0.22,
2.269,-0.37,-0.19,0.18,0.01,0.14,0.22,
2.269,-0.37,-0.19,0.18,0.01,0.14,0.22,
2.269,-0.37,-0.19,0.18,0.01,0.15,0.23,
2.27,-0.37,-0.19,0.18,0.01,0.16,0.24,
2.272,-0.36,-0.19,0.17,0.01,0.16,0.24,
2.273,-0.36,-0.19,0.17,0.01,0.16,0.25,
2.288,-0.36,-0.19,0.17,0.01,0.18,0.25,
2.289,-0.36,-0.19,0.17,0.01,0.18,0.26,
2.29,-0.36,-0.19,0.17,0.01,0.19,0.26,
2.291,-0.36,-0.19,0.17,0.01,0.19,0.27,
2.291,-0.32,-0.23,0.14,0.01,0.19,0.27,
2.292,-0.32,-0.23,0.14,0.01,0.19,0.27,
2.293,-0.32,-0.23,0.14,0.01,0.19,0.27,
2.295,-0.32,-0.23,0.14,0.02,0.19,0.27,
2.296,-0.32,-0.23,0.14,0.02,0.19,0.28,
2.297,-0.32,-0.23,0.14,0.02,0.19,0.28,
2.299,-0.30,-0.21,0.05,0.02,0.19,0.28,
2.299,-0.30,-0.21,0.05,0.02,0.19,0.29,
2.3,-0.30,-0.21,0.05,0.02,0.19,0.29,
2.301,-0.30,-0.21,0.05,0.02,0.19,0.29,
2.301,-0.30,-0.21,0.05,0.02,0.18,0.30,
2.302,-0.30,-0.21,0.05,0.02,0.18,0.30,
2.307,-0.30,-0.20,-0.12,0.02,0.18,0.30,
2.308,-0.30,-0.20,-0.12,0.02,0.17,0.30,
2.308,-0.30,-0.20,-0.12,0.02,0.17,0.30,
2.308,-0.30,-0.20,-0.12,0.02,0.16,0.31,
2.323,-0.30,-0.20,-0.12,0.02,0.16,0.31,
2.324,-0.30,-0.20,-0.12,0.02,0.15,0.31,
2.324,-0.26,-0.20,-0.25,0.02,0.15,0.31,
2.325,-0.26,-0.20,-0.25,0.02,0.15,0.31,
2.325,-0.26,-0.20,-0.25,0.02,0.14,0.32,
2.325,-0.26,-0.20,-0.25,0.02,0.13,0.32,
2.325,-0.26,-0.20,-0.25,0.02,0.13,0.33,
2.326,-0.26,-0.20,-0.25,0.02,0.13,0.33,
2.326,-0.26,-0.19,-0.34,0.02,0.13,0.33,
2.326,-0.26,-0.19,-0.34,0.01,0.12,0.33,
2.327,-0.26,-0.19,-0.34,0.01,0.11,0.34,
2.327,-0.26,-0.19,-0.34,0.01,0.11,0.34,
2.334,-0.26,-0.19,-0.34,0.01,0.11,0.34,
2.335,-0.26,-0.19,-0.34,0.00,0.11,0.34,
2.335,-0.09,-0.17,-0.39,0.00,0.11,0.34,
2.335,-0.09,-0.17,-0.39,-0.00,0.11,0.34,
2.336,-0.09,-0.17,-0.39,-0.00,0.10,0.33,
2.336,-0.09,-0.17,-0.39,-0.00,0.10,0.33,
2.338,-0.09,-0.17,-0.39,-0.01,0.10,0.33,
2.341,-0.09,-0.17,-0.39,-0.01,0.10,0.33,
2.344,0.01,-0.12,-0.34,-0.01,0.10,0.33,
2.346,0.01,-0.12,-0.34,-0.01,0.10,0.33,
2.346,0.01,-0.12,-0.34,-0.01,0.10,0.33,
2.347,0.01,-0.12,-0.34,-0.01,0.10,0.33,
2.35,0.01,-0.12,-0.34,-0.01,0.10,0.33,
2.35,0.01,-0.12,-0.34,-0.01,0.10,0.33,
2.352,0.01,-0.12,-0.28,-0.01,0.10,0.33,
2.353,0.01,-0.12,-0.28,-0.01,0.10,0.33,
2.389,0.01,-0.12,-0.28,-0.01,0.10,0.33,
2.39,0.01,-0.12,-0.28,-0.01,0.10,0.33,
2.391,0.01,-0.12,-0.28,-0.02,0.10,0.33,
2.392,0.01,-0.12,-0.28,-0.02,0.10,0.33,
2.392,-0.03,-0.10,-0.25,-0.02,0.10,0.33,
2.393,-0.03,-0.10,-0.25,-0.02,0.10,0.34,
2.395,-0.03,-0.10,-0.25,-0.03,0.11,0.34,
2.396,-0.03,-0.10,-0.25,-0.03,0.11,0.34,
2.396,-0.03,-0.10,-0.25,-0.03,0.11,0.34,
2.397,-0.03,-0.10,-0.25,-0.03,0.12,0.35,
2.398,-0.06,-0.09,-0.19,-0.03,0.12,0.35,
2.401,-0.06,-0.09,-0.19,-0.04,0.12,0.35,
2.401,-0.06,-0.09,-0.19,-0.04,0.13,0.35,
2.401,-0.06,-0.09,-0.19,-0.04,0.13,0.35,
2.402,-0.06,-0.09,-0.19,-0.04,0.14,0.35,
2.402,-0.06,-0.09,-0.19,-0.04,0.14,0.36,
2.403,-0.03,-0.11,-0.10,-0.04,0.14,0.36,
2.403,-0.03,-0.11,-0.10,-0.04,0.15,0.36,
2.404,-0.03,-0.11,-0.10,-0.04,0.15,0.36,
2.404,-0.03,-0.11,-0.10,-0.04,0.16,0.36,
2.404,-0.03,-0.11,-0.10,-0.04,0.16,0.36,
2.405,-0.03,-0.11,-0.10,-0.04,0.16,0.36,
2.405,0.01,-0.07,-0.07,-0.04,0.16,0.36,
2.406,0.01,-0.07,-0.07,-0.04,0.17,0.36,
2.406,0.01,-0.07,-0.07,-0.04,0.17,0.36,
2.406,0.01,-0.07,-0.07,-0.04,0.17,0.36,
2.407,0.01,-0.07,-0.07,-0.04,0.17,0.36,
2.407,0.01,-0.07,-0.07,-0.04,0.17,0.36,
2.408,0.06,-0.08,-0.07,-0.04,0.17,0.36,
2.408,0.06,-0.08,-0.07,-0.04,0.17,0.36,
2.408,0.06,-0.08,-0.07,-0.04,0.17,0.36,
2.409,0.06,-0.08,-0.07,-0.04,0.17,0.35,
2.409,0.06,-0.08,-0.07,-0.04,0.16,0.35,
2.416,0.06,-0.08,-0.07,-0.04,0.16,0.35,
2.417,0.11,-0.07,-0.09,-0.04,0.16,0.35,
2.417,0.11,-0.07,-0.09,-0.04,0.16,0.35,
2.418,0.11,-0.07,-0.09,-0.03,0.16,0.35,
2.418,0.11,-0.07,-0.09,-0.03,0.15,0.34,
2.418,0.11,-0.07,-0.09,-0.03,0.15,0.34,
2.422,0.11,-0.07,-0.09,-0.03,0.14,0.34,
2.423,0.18,-0.05,-0.13,-0.03,0.14,0.34,
2.424,0.18,-0.05,-0.13,-0.03,0.13,0.33,
2.427,0.18,-0.05,-0.13,-0.03,0.12,0.33,
2.427,0.18,-0.05,-0.13,-0.03,0.12,0.33,
2.431,0.18,-0.05,-0.13,-0.03,0.11,0.32,
2.432,0.18,-0.05,-0.13,-0.03,0.10,0.32,
2.433,0.20,-0.05,-0.16,-0.03,0.10,0.32,
2.433,0.20,-0.05,-0.16,-0.03,0.09,0.32,
2.435,0.20,-0.05,-0.16,-0.03,0.08,0.31,
2.437,0.20,-0.05,-0.16,-0.03,0.08,0.31,
2.439,0.20,-0.05,-0.16,-0.03,0.07,0.31,
2.443,0.20,-0.05,-0.16,-0.03,0.07,0.31,
2.444,0.10,-0.11,-0.09,-0.03,0.07,0.31,
2.447,0.10,-0.11,-0.09,-0.03,0.07,0.31,
2.447,0.10,-0.11,-0.09,-0.03,0.07,0.31,
2.448,0.10,-0.11,-0.09,-0.04,0.07,0.31,
2.465,0.10,-0.11,-0.09,-0.04,0.07,0.31,
2.467,0.10,-0.11,-0.09,-0.04,0.07,0.31,
2.467,0.05,-0.19,-0.01,-0.04,0.07,0.31,
2.467,0.05,-0.19,-0.01,-0.04,0.07,0.31,
2.467,0.05,-0.19,-0.01,-0.04,0.08,0.32,
2.468,0.05,-0.19,-0.01,-0.04,0.08,0.32,
2.468,0.05,-0.19,-0.01,-0.04,0.09,0.32,
2.468,0.05,-0.19,-0.01,-0.04,0.09,0.33,
2.469,-0.03,-0.20,0.17,-0.04,0.09,0.33,
2.469,-0.03,-0.20,0.17,-0.04,0.10,0.33,
2.469,-0.03,-0.20,0.17,-0.04,0.11,0.34,
2.473,-0.03,-0.20,0.17,-0.04,0.11,0.34,
2.473,-0.03,-0.20,0.17,-0.04,0.12,0.34,
2.476,-0.03,-0.20,0.17,-0.03,0.12,0.34,
2.477,0.00,-0.18,0.27,-0.03,0.12,0.34,
2.477,0.00,-0.18,0.27,-0.03,0.12,0.34,
2.477,0.00,-0.18,0.27,-0.03,0.13,0.34,
2.478,0.00,-0.18,0.27,-0.03,0.14,0.34,
2.487,0.00,-0.18,0.27,-0.03,0.14,0.35,
2.489,0.00,-0.18,0.27,-0.03,0.15,0.35,
2.49,0.10,-0.15,0.28,-0.03,0.15,0.35,
2.491,0.10,-0.15,0.28,-0.03,0.16,0.35,
2.492,0.10,-0.15,0.28,-0.03,0.17,0.35,
2.495,0.10,-0.15,0.28,-0.03,0.17,0.35,
2.497,0.10,-0.15,0.28,-0.03,0.18,0.35,
2.499,0.10,-0.15,0.28,-0.03,0.19,0.35,
2.5,0.19,-0.08,0.13,-0.03,0.19,0.35,
2.5,0.19,-0.08,0.13,-0.04,0.19,0.35,
2.501,0.19,-0.08,0.13,-0.04,0.20,0.35,
2.501,0.19,-0.08,0.13,-0.04,0.21,0.34,
2.501,0.19,-0.08,0.13,-0.05,0.21,0.34,
2.502,0.19,-0.08,0.13,-0.05,0.21,0.34,
2.504,0.27,-0.05,0.02,-0.05,0.21,0.34,
2.506,0.27,-0.05,0.02,-0.05,0.22,0.34,
2.507,0.27,-0.05,0.02,-0.05,0.22,0.33,
2.508,0.27,-0.05,0.02,-0.05,0.22,0.33,
2.517,0.27,-0.05,0.02,-0.05,0.22,0.33,
2.52,0.27,-0.05,0.02,-0.05,0.22,0.33,
2.522,0.26,-0.02,-0.03,-0.05,0.22,0.33,
2.523,0.26,-0.02,-0.03,-0.05,0.22,0.33,
2.524,0.26,-0.02,-0.03,-0.05,0.22,0.32,
2.526,0.26,-0.02,-0.03,-0.06,0.22,0.32,
2.527,0.26,-0.02,-0.03,-0.05,0.21,0.32,
2.528,0.26,-0.02,-0.03,-0.05,0.21,0.32,
2.559,0.25,0.02,-0.12,-0.05,0.21,0.32,
2.559,0.25,0.02,-0.12,-0.05,0.20,0.32,
2.559,0.25,0.02,-0.12,-0.06,0.20,0.31,
2.56,0.25,0.02,-0.12,-0.05,0.19,0.31,
2.56,0.25,0.02,-0.12,-0.05,0.18,0.31,
2.561,0.25,0.02,-0.12,-0.05,0.18,0.30,
2.561,0.23,0.02,-0.18,-0.05,0.18,0.30,
2.561,0.23,0.02,-0.18,-0.05,0.17,0.30,
2.562,0.23,0.02,-0.18,-0.05,0.16,0.30,
2.562,0.23,0.02,-0.18,-0.05,0.15,0.30,
2.563,0.23,0.02,-0.18,-0.05,0.15,0.30,
2.563,0.23,0.02,-0.18,-0.05,0.14,0.30,
2.564,0.13,0.02,-0.22,-0.05,0.14,0.30,
2.564,0.13,0.02,-0.22,-0.05,0.13,0.30,
2.564,0.13,0.02,-0.22,-0.05,0.12,0.30,
2.565,0.13,0.02,-0.22,-0.05,0.12,0.30,
2.565,0.13,0.02,-0.22,-0.05,0.11,0.30,
2.566,0.13,0.02,-0.22,-0.05,0.11,0.30,
2.566,0.03,0.01,-0.16,-0.05,0.11,0.30,
2.566,0.03,0.01,-0.16,-0.05,0.10,0.30,
2.567,0.03,0.01,-0.16,-0.05,0.09,0.30,
2.567,0.03,0.01,-0.16,-0.05,0.09,0.30,
2.567,0.03,0.01,-0.16,-0.05,0.09,0.31,
2.568,0.03,0.01,-0.16,-0.04,0.08,0.31,
2.568,-0.04,-0.06,-0.08,-0.04,0.08,0.31,
2.568,-0.04,-0.06,-0.08,-0.04,0.08,0.31,
2.568,-0.04,-0.06,-0.08,-0.04,0.08,0.32,
2.569,-0.04,-0.06,-0.08,-0.04,0.08,0.32,
2.569,-0.04,-0.06,-0.08,-0.04,0.08,0.32,
2.571,-0.04,-0.06,-0.08,-0.04,0.08,0.32,
2.572,-0.05,-0.06,0.00,-0.04,0.08,0.32,
2.573,-0.05,-0.06,0.00,-0.04,0.08,0.33,
2.58,-0.05,-0.06,0.00,-0.04,0.08,0.33,
2.58,-0.05,-0.06,0.00,-0.04,0.08,0.33,
2.58,-0.05,-0.06,0.00,-0.04,0.09,0.33,
2.581,-0.05,-0.06,0.00,-0.03,0.09,0.33,
2.583,-0.00,-0.07,0.11,-0.03,0.09,0.33,
2.589,-0.00,-0.07,0.11,-0.03,0.09,0.33,
2.59,-0.00,-0.07,0.11,-0.03,0.09,0.33,
2.59,-0.00,-0.07,0.11,-0.03,0.09,0.34,
2.59,-0.00,-0.07,0.11,-0.02,0.09,0.34,
2.6,-0.00,-0.07,0.11,-0.02,0.09,0.34,
2.601,0.02,-0.06,0.21,-0.02,0.09,0.34,
2.601,0.02,-0.06,0.21,-0.02,0.10,0.34,
2.602,0.02,-0.06,0.21,-0.01,0.10,0.34,
2.602,0.02,-0.06,0.21,-0.01,0.10,0.34,
2.602,0.02,-0.06,0.21,-0.01,0.09,0.35,
2.602,0.02,-0.06,0.21,-0.00,0.09,0.35,
2.603,-0.03,-0.05,0.24,-0.00,0.09,0.35,
2.606,-0.03,-0.05,0.24,-0.00,0.10,0.35,
2.606,-0.03,-0.05,0.24,0.01,0.10,0.35,
2.607,-0.03,-0.05,0.24,0.01,0.10,0.36,
2.613,-0.03,-0.05,0.24,0.01,0.11,0.36,
2.614,-0.03,-0.05,0.24,0.01,0.11,0.36,
2.614,0.01,0.03,0.25,0.01,0.11,0.36,
2.614,0.01,0.03,0.25,0.01,0.11,0.36,
2.615,0.01,0.03,0.25,0.01,0.12,0.36,
2.616,0.01,0.03,0.25,0.01,0.12,0.36,
2.618,0.01,0.03,0.25,0.01,0.12,0.36,
2.62,0.01,0.03,0.25,0.01,0.12,0.36,
2.622,0.04,-0.01,0.15,0.01,0.12,0.36,
2.623,0.04,-0.01,0.15,0.01,0.13,0.36,
2.625,0.04,-0.01,0.15,0.00,0.14,0.36,
2.627,0.04,-0.01,0.15,0.00,0.14,0.36,
2.628,0.04,-0.01,0.15,0.00,0.15,0.36,
2.63,0.04,-0.01,0.15,-0.00,0.15,0.36,
2.634,0.01,-0.04,0.10,-0.00,0.15,0.36,
2.635,0.01,-0.04,0.10,-0.01,0.16,0.37,
2.635,0.01,-0.04,0.10,-0.01,0.16,0.37,
2.636,0.01,-0.04,0.10,-0.01,0.17,0.37,
2.639,0.01,-0.04,0.10,-0.01,0.17,0.37,
2.642,0.01,-0.04,0.10,-0.01,0.17,0.37,
2.642,-0.01,-0.05,0.10,-0.01,0.17,0.37,
2.647,-0.01,-0.05,0.10,-0.01,0.17,0.37,
2.648,-0.01,-0.05,0.10,-0.01,0.17,0.37,
2.648,-0.01,-0.05,0.10,-0.01,0.17,0.37,
2.648,-0.01,-0.05,0.10,-0.01,0.17,0.37,
2.65,-0.01,-0.05,0.10,-0.01,0.17,0.37,
2.652,0.03,-0.07,0.10,-0.01,0.17,0.37,
2.653,0.03,-0.07,0.10,-0.01,0.17,0.37,
2.655,0.03,-0.07,0.10,-0.01,0.16,0.37,
2.656,0.03,-0.07,0.10,-0.01,0.16,0.37,
2.658,0.03,-0.07,0.10,-0.01,0.16,0.37,
2.66,0.03,-0.07,0.10,-0.01,0.16,0.37,
2.663,0.04,-0.10,0.10,-0.01,0.16,0.37,
2.664,0.04,-0.10,0.10,-0.00,0.16,0.37,
2.665,0.04,-0.10,0.10,0.00,0.15,0.37,
2.666,0.04,-0.10,0.10,0.01,0.15,0.37,
2.668,0.04,-0.10,0.10,0.01,0.15,0.37,
2.67,0.04,-0.10,0.10,0.01,0.15,0.37,
2.673,0.04,-0.09,0.08,0.01,0.15,0.37,
2.673,0.04,-0.09,0.08,0.01,0.15,0.37,
2.687,0.04,-0.09,0.08,0.02,0.14,0.37,
2.688,0.04,-0.09,0.08,0.02,0.14,0.37,
2.689,0.04,-0.09,0.08,0.02,0.14,0.37,
2.689,0.04,-0.09,0.08,0.02,0.13,0.37,
2.689,0.07,-0.08,-0.02,0.02,0.13,0.37,
2.69,0.07,-0.08,-0.02,0.02,0.13,0.37,
2.69,0.07,-0.08,-0.02,0.02,0.13,0.37,
2.691,0.07,-0.08,-0.02,0.02,0.12,0.37,
2.726,0.07,-0.08,-0.02,0.02,0.12,0.37,
2.726,0.07,-0.08,-0.02,0.02,0.13,0.37,
2.726,0.04,-0.06,-0.06,0.02,0.13,0.37,
2.727,0.04,-0.06,-0.06,0.01,0.12,0.37,
2.727,0.04,-0.06,-0.06,0.01,0.12,0.37,
2.728,0.04,-0.06,-0.06,0.01,0.12,0.37,
2.728,0.04,-0.06,-0.06,0.01,0.13,0.38,
2.728,0.04,-0.06,-0.06,0.02,0.13,0.38,
2.729,0.00,-0.11,-0.05,0.02,0.13,0.38,
2.729,0.00,-0.11,-0.05,0.01,0.13,0.38,
2.73,0.00,-0.11,-0.05,0.01,0.13,0.38,
2.73,0.00,-0.11,-0.05,0.01,0.13,0.38,
2.73,0.00,-0.11,-0.05,0.01,0.14,0.38,
2.731,0.00,-0.11,-0.05,0.01,0.14,0.38,
2.731,-0.07,-0.13,0.03,0.01,0.14,0.38,
2.732,-0.07,-0.13,0.03,0.02,0.14,0.38,
2.732,-0.07,-0.13,0.03,0.02,0.15,0.38,
2.733,-0.07,-0.13,0.03,0.02,0.15,0.38,
2.733,-0.07,-0.13,0.03,0.02,0.15,0.39,
2.733,-0.07,-0.13,0.03,0.02,0.15,0.39,
2.734,-0.19,-0.19,0.05,0.02,0.15,0.39,
2.734,-0.19,-0.19,0.05,0.03,0.16,0.40,
2.735,-0.19,-0.19,0.05,0.02,0.16,0.40,
2.735,-0.19,-0.19,0.05,0.03,0.16,0.41,
2.735,-0.19,-0.19,0.05,0.03,0.16,0.41,
2.736,-0.19,-0.19,0.05,0.03,0.16,0.41,
2.736,-0.20,-0.19,-0.04,0.03,0.16,0.41,
2.737,-0.20,-0.19,-0.04,0.03,0.16,0.42,
2.737,-0.20,-0.19,-0.04,0.03,0.16,0.42,
2.737,-0.20,-0.19,-0.04,0.03,0.16,0.43,
2.738,-0.20,-0.19,-0.04,0.03,0.16,0.43,
2.74,-0.20,-0.19,-0.04,0.03,0.16,0.43,
2.743,-0.06,-0.11,-0.11,0.03,0.16,0.43,
2.744,-0.06,-0.11,-0.11,0.03,0.16,0.43,
2.745,-0.06,-0.11,-0.11,0.02,0.15,0.43,
2.747,-0.06,-0.11,-0.11,0.02,0.15,0.43,
2.748,-0.06,-0.11,-0.11,0.02,0.15,0.43,
2.75,-0.06,-0.11,-0.11,0.02,0.14,0.43,
2.752,0.09,-0.01,-0.20,0.02,0.14,0.43,
2.753,0.09,-0.01,-0.20,0.02,0.14,0.42,
2.755,0.09,-0.01,-0.20,0.01,0.13,0.42,
2.757,0.09,-0.01,-0.20,0.01,0.13,0.42,
2.759,0.09,-0.01,-0.20,0.01,0.13,0.41,
2.76,0.09,-0.01,-0.20,0.01,0.12,0.41,
2.764,0.24,0.08,-0.22,0.01,0.12,0.41,
2.765,0.24,0.08,-0.22,0.01,0.12,0.40,
2.765,0.24,0.08,-0.22,0.01,0.11,0.39,
2.766,0.24,0.08,-0.22,0.01,0.11,0.39,
2.77,0.24,0.08,-0.22,0.01,0.11,0.39,
2.771,0.24,0.08,-0.22,0.01,0.10,0.38,
2.773,0.46,0.10,-0.18,0.01,0.10,0.38,
2.774,0.46,0.10,-0.18,0.01,0.09,0.37,
2.781,0.46,0.10,-0.18,0.01,0.08,0.36,
2.783,0.46,0.10,-0.18,0.01,0.08,0.35,
2.783,0.46,0.10,-0.18,0.02,0.07,0.34,
2.792,0.46,0.10,-0.18,0.02,0.06,0.33,
2.792,0.56,0.14,-0.06,0.02,0.06,0.33,
2.792,0.56,0.14,-0.06,0.02,0.06,0.33,
2.793,0.56,0.14,-0.06,0.03,0.05,0.32,
2.793,0.56,0.14,-0.06,0.03,0.04,0.32,
2.793,0.56,0.14,-0.06,0.04,0.04,0.32,
2.793,0.56,0.14,-0.06,0.04,0.03,0.32,
2.794,0.39,0.13,0.05,0.04,0.03,0.32,
2.794,0.39,0.13,0.05,0.04,0.03,0.31,
2.796,0.39,0.13,0.05,0.05,0.02,0.31,
2.801,0.39,0.13,0.05,0.06,0.02,0.31,
2.802,0.39,0.13,0.05,0.06,0.01,0.31,
2.802,0.39,0.13,0.05,0.06,0.01,0.31,
2.805,0.23,0.03,0.15,0.06,0.01,0.31,
2.806,0.23,0.03,0.15,0.07,0.01,0.31,
2.806,0.23,0.03,0.15,0.07,0.01,0.32,
2.81,0.23,0.03,0.15,0.08,0.00,0.32,
2.811,0.23,0.03,0.15,0.08,0.01,0.32,
2.811,0.23,0.03,0.15,0.08,0.01,0.32,
2.815,0.13,-0.06,0.21,0.08,0.01,0.32,
2.815,0.13,-0.06,0.21,0.08,0.01,0.33,
2.818,0.13,-0.06,0.21,0.08,0.01,0.33,
2.818,0.13,-0.06,0.21,0.08,0.01,0.33,
2.819,0.13,-0.06,0.21,0.08,0.02,0.33,
2.82,0.13,-0.06,0.21,0.08,0.03,0.33,
2.822,0.11,-0.13,0.14,0.08,0.03,0.33,
2.822,0.11,-0.13,0.14,0.07,0.03,0.34,
2.827,0.11,-0.13,0.14,0.07,0.05,0.34,
2.827,0.11,-0.13,0.14,0.06,0.05,0.34,
2.829,0.11,-0.13,0.14,0.06,0.06,0.34,
2.832,0.11,-0.13,0.14,0.06,0.06,0.34,
2.833,0.22,-0.12,0.13,0.06,0.06,0.34,
2.837,0.22,-0.12,0.13,0.05,0.07,0.34,
2.846,0.22,-0.12,0.13,0.04,0.08,0.33,
2.847,0.22,-0.12,0.13,0.04,0.08,0.33,
2.847,0.22,-0.12,0.13,0.03,0.09,0.32,
2.848,0.22,-0.12,0.13,0.02,0.10,0.32,
2.848,0.41,-0.09,0.06,0.02,0.10,0.32,
2.848,0.41,-0.09,0.06,0.02,0.10,0.31,
2.849,0.41,-0.09,0.06,0.01,0.11,0.31,
2.849,0.41,-0.09,0.06,0.00,0.12,0.30,
2.849,0.41,-0.09,0.06,-0.00,0.12,0.30,
2.851,0.41,-0.09,0.06,-0.01,0.11,0.29,
2.853,0.54,-0.03,0.08,-0.01,0.11,0.29,
2.855,0.54,-0.03,0.08,-0.02,0.11,0.28,
2.88,0.54,-0.03,0.08,-0.03,0.11,0.27,
2.881,0.54,-0.03,0.08,-0.03,0.10,0.27,
2.881,0.54,-0.03,0.08,-0.03,0.10,0.26,
2.881,0.54,-0.03,0.08,-0.03,0.09,0.25,
2.882,0.80,0.19,0.29,-0.03,0.09,0.25,
2.882,0.80,0.19,0.29,-0.03,0.08,0.24,
2.883,0.80,0.19,0.29,-0.03,0.06,0.22,
2.883,0.80,0.19,0.29,-0.02,0.06,0.22,
2.883,0.80,0.19,0.29,-0.02,0.05,0.21,
2.884,0.80,0.19,0.29,-0.01,0.04,0.20,
2.884,0.95,0.33,0.67,-0.01,0.04,0.20,
2.885,0.95,0.33,0.67,-0.00,0.03,0.19,
2.885,0.95,0.33,0.67,0.01,0.01,0.18,
2.886,0.95,0.33,0.67,0.02,0.01,0.17,
2.886,0.95,0.33,0.67,0.03,0.01,0.17,
2.886,0.95,0.33,0.67,0.04,0.00,0.16,
2.887,1.02,0.34,0.99,0.04,0.00,0.16,
2.887,1.02,0.34,0.99,0.06,-0.00,0.15,
2.888,1.02,0.34,0.99,0.08,-0.00,0.15,
2.888,1.02,0.34,0.99,0.08,-0.00,0.14,
2.888,1.02,0.34,0.99,0.09,-0.00,0.14,
2.891,1.02,0.34,0.99,0.11,-0.00,0.13,
2.893,0.95,0.32,1.14,0.11,-0.00,0.13,
2.893,0.95,0.32,1.14,0.12,0.00,0.13,
2.895,0.95,0.32,1.14,0.14,0.01,0.13,
2.897,0.95,0.32,1.14,0.14,0.01,0.13,
2.898,0.95,0.32,1.14,0.15,0.02,0.13,
2.9,0.95,0.32,1.14,0.16,0.03,0.13,
2.902,0.91,0.27,1.00,0.16,0.03,0.13,
2.904,0.91,0.27,1.00,0.17,0.03,0.13,
2.905,0.91,0.27,1.00,0.18,0.04,0.13,
2.907,0.91,0.27,1.00,0.18,0.05,0.13,
2.909,0.91,0.27,1.00,0.18,0.05,0.12,
2.911,0.91,0.27,1.00,0.19,0.06,0.12,
2.915,0.85,0.24,0.69,0.19,0.06,0.12,
2.915,0.85,0.24,0.69,0.19,0.06,0.12,
2.915,0.85,0.24,0.69,0.19,0.06,0.12,
2.918,0.85,0.24,0.69,0.19,0.06,0.12,
2.919,0.85,0.24,0.69,0.20,0.06,0.11,
2.925,0.85,0.24,0.69,0.20,0.06,0.10,
2.925,0.90,0.22,0.33,0.20,0.06,0.10,
2.925,0.90,0.22,0.33,0.19,0.06,0.10,
2.925,0.90,0.22,0.33,0.19,0.06,0.09,
2.929,0.90,0.22,0.33,0.19,0.06,0.09,
2.93,0.90,0.22,0.33,0.18,0.06,0.08,
2.931,0.90,0.22,0.33,0.17,0.06,0.07,
2.934,0.93,0.19,-0.08,0.17,0.06,0.07,
2.935,0.93,0.19,-0.08,0.17,0.06,0.07,
2.938,0.93,0.19,-0.08,0.16,0.06,0.05,
2.938,0.93,0.19,-0.08,0.15,0.06,0.05,
2.938,0.93,0.19,-0.08,0.14,0.06,0.04,
2.94,0.93,0.19,-0.08,0.14,0.06,0.03,
2.945,0.90,0.17,-0.24,0.14,0.06,0.03,
2.946,0.90,0.17,-0.24,0.13,0.05,0.02,
2.947,0.90,0.17,-0.24,0.13,0.04,0.01,
2.947,0.90,0.17,-0.24,0.13,0.04,0.00,
2.949,0.90,0.17,-0.24,0.12,0.04,-0.00,
2.951,0.90,0.17,-0.24,0.12,0.03,-0.01,
2.953,0.81,0.06,-0.28,0.12,0.03,-0.01,
2.953,0.81,0.06,-0.28,0.12,0.02,-0.02,
2.962,0.81,0.06,-0.28,0.11,0.01,-0.03,
2.963,0.81,0.06,-0.28,0.11,0.01,-0.04,
2.963,0.81,0.06,-0.28,0.11,-0.00,-0.05,
2.964,0.81,0.06,-0.28,0.11,-0.01,-0.06,
2.964,0.74,0.02,-0.24,0.11,-0.01,-0.06,
2.964,0.74,0.02,-0.24,0.11,-0.01,-0.06,
2.965,0.74,0.02,-0.24,0.11,-0.02,-0.07,
2.966,0.74,0.02,-0.24,0.11,-0.03,-0.08,
2.969,0.74,0.02,-0.24,0.11,-0.03,-0.08,
2.971,0.74,0.02,-0.24,0.11,-0.04,-0.08,
2.977,0.54,-0.09,-0.16,0.11,-0.04,-0.08,
2.977,0.54,-0.09,-0.16,0.12,-0.04,-0.08,
2.977,0.54,-0.09,-0.16,0.12,-0.05,-0.09,
2.977,0.54,-0.09,-0.16,0.12,-0.05,-0.09,
2.979,0.54,-0.09,-0.16,0.12,-0.05,-0.09,
2.981,0.54,-0.09,-0.16,0.12,-0.05,-0.09,
2.983,0.39,-0.27,-0.14,0.12,-0.05,-0.09,
2.984,0.39,-0.27,-0.14,0.12,-0.05,-0.09,
2.985,0.39,-0.27,-0.14,0.12,-0.05,-0.09,
2.987,0.39,-0.27,-0.14,0.12,-0.05,-0.09,
2.989,0.39,-0.27,-0.14,0.12,-0.04,-0.09,
2.99,0.39,-0.27,-0.14,0.12,-0.05,-0.09,
2.995,0.27,-0.37,-0.16,0.12,-0.05,-0.09,
2.995,0.27,-0.37,-0.16,0.12,-0.05,-0.09,
2.995,0.27,-0.37,-0.16,0.13,-0.05,-0.09,
2.997,0.27,-0.37,-0.16,0.13,-0.05,-0.09,
2.999,0.27,-0.37,-0.16,0.13,-0.05,-0.09,
3.001,0.27,-0.37,-0.16,0.13,-0.05,-0.09,
3.003,0.24,-0.41,-0.26,0.13,-0.05,-0.09,
3.004,0.24,-0.41,-0.26,0.14,-0.06,-0.08,
3.009,0.24,-0.41,-0.26,0.13,-0.06,-0.09,
3.012,0.24,-0.41,-0.26,0.13,-0.06,-0.09,
3.012,0.24,-0.41,-0.26,0.13,-0.07,-0.09,
3.013,0.24,-0.41,-0.26,0.13,-0.07,-0.09,
3.014,0.25,-0.45,-0.44,0.13,-0.07,-0.09,
3.015,0.25,-0.45,-0.44,0.14,-0.08,-0.09,
3.016,0.25,-0.45,-0.44,0.13,-0.08,-0.10,
3.017,0.25,-0.45,-0.44,0.13,-0.09,-0.10,
3.018,0.25,-0.45,-0.44,0.13,-0.09,-0.10,
3.021,0.25,-0.45,-0.44,0.12,-0.10,-0.11,
3.048,0.25,-0.47,-0.65,0.12,-0.10,-0.11,
3.048,0.25,-0.47,-0.65,0.12,-0.10,-0.11,
3.049,0.25,-0.47,-0.65,0.11,-0.10,-0.12,
3.049,0.25,-0.47,-0.65,0.11,-0.10,-0.12,
3.049,0.25,-0.47,-0.65,0.11,-0.11,-0.13,
3.049,0.25,-0.47,-0.65,0.10,-0.11,-0.13,
3.05,0.27,-0.49,-0.79,0.10,-0.11,-0.13,
3.05,0.27,-0.49,-0.79,0.09,-0.11,-0.14,
3.05,0.27,-0.49,-0.79,0.09,-0.11,-0.15,
3.05,0.27,-0.49,-0.79,0.08,-0.11,-0.15,
3.051,0.27,-0.49,-0.79,0.07,-0.12,-0.16,
3.051,0.27,-0.49,-0.79,0.06,-0.12,-0.16,
3.051,0.34,-0.49,-0.92,0.06,-0.12,-0.16,
3.052,0.34,-0.49,-0.92,0.06,-0.13,-0.17,
3.052,0.34,-0.49,-0.92,0.04,-0.13,-0.19,
3.052,0.34,-0.49,-0.92,0.04,-0.14,-0.19,
3.052,0.34,-0.49,-0.92,0.03,-0.15,-0.20,
3.053,0.34,-0.49,-0.92,0.02,-0.16,-0.21,
3.053,0.41,-0.48,-0.97,0.02,-0.16,-0.21,
3.053,0.41,-0.48,-0.97,0.02,-0.16,-0.23,
3.057,0.41,-0.48,-0.97,0.00,-0.18,-0.24,
3.058,0.41,-0.48,-0.97,-0.00,-0.19,-0.25,
3.059,0.41,-0.48,-0.97,-0.01,-0.19,-0.26,
3.063,0.41,-0.48,-0.97,-0.02,-0.18,-0.27,
3.063,0.26,-0.50,-0.94,-0.02,-0.18,-0.27,
3.064,0.26,-0.50,-0.94,-0.02,-0.19,-0.27,
3.067,0.26,-0.50,-0.94,-0.03,-0.20,-0.28,
3.068,0.26,-0.50,-0.94,-0.04,-0.21,-0.28,
3.068,0.26,-0.50,-0.94,-0.04,-0.21,-0.28,
3.072,0.26,-0.50,-0.94,-0.04,-0.22,-0.28,
3.073,0.11,-0.61,-0.76,-0.04,-0.22,-0.28,
3.076,0.11,-0.61,-0.76,-0.04,-0.23,-0.28,
3.076,0.11,-0.61,-0.76,-0.04,-0.24,-0.28,
3.077,0.11,-0.61,-0.76,-0.04,-0.25,-0.28,
3.081,0.11,-0.61,-0.76,-0.04,-0.26,-0.28,
3.082,0.11,-0.61,-0.76,-0.04,-0.27,-0.28,
3.082,0.04,-0.68,-0.68,-0.04,-0.27,-0.28,
3.082,0.04,-0.68,-0.68,-0.05,-0.27,-0.28,
3.087,0.04,-0.68,-0.68,-0.04,-0.31,-0.29,
3.088,0.04,-0.68,-0.68,-0.04,-0.31,-0.29,
3.088,0.04,-0.68,-0.68,-0.04,-0.32,-0.30,
3.091,0.04,-0.68,-0.68,-0.02,-0.32,-0.31,
3.092,0.19,-0.53,-0.46,-0.02,-0.32,-0.31,
3.093,0.19,-0.53,-0.46,-0.01,-0.33,-0.32,
3.095,0.19,-0.53,-0.46,0.01,-0.34,-0.33,
3.097,0.19,-0.53,-0.46,0.02,-0.35,-0.34,
3.098,0.19,-0.53,-0.46,0.02,-0.36,-0.34,
3.1,0.19,-0.53,-0.46,0.03,-0.37,-0.34,
3.103,0.16,-0.47,-0.49,0.03,-0.37,-0.34,
3.103,0.16,-0.47,-0.49,0.03,-0.38,-0.34,
3.116,0.16,-0.47,-0.49,0.04,-0.40,-0.35,
3.117,0.16,-0.47,-0.49,0.04,-0.42,-0.36,
3.117,0.16,-0.47,-0.49,0.04,-0.43,-0.36,
3.117,0.16,-0.47,-0.49,0.04,-0.45,-0.37,
3.117,0.28,-0.49,-0.85,0.04,-0.45,-0.37,
3.118,0.28,-0.49,-0.85,0.04,-0.46,-0.38,
3.118,0.28,-0.49,-0.85,0.04,-0.47,-0.39,
3.118,0.28,-0.49,-0.85,0.05,-0.47,-0.40,
3.122,0.28,-0.49,-0.85,0.05,-0.48,-0.40,
3.122,0.28,-0.49,-0.85,0.05,-0.49,-0.40,
3.144,0.10,-0.17,-0.78,0.05,-0.49,-0.40,
3.145,0.10,-0.17,-0.78,0.06,-0.51,-0.40,
3.145,0.10,-0.17,-0.78,0.05,-0.54,-0.40,
3.145,0.10,-0.17,-0.78,0.05,-0.55,-0.41,
3.146,0.10,-0.17,-0.78,0.05,-0.56,-0.41,
3.146,0.10,-0.17,-0.78,0.05,-0.58,-0.41,
3.146,0.07,-0.00,-0.94,0.05,-0.58,-0.41,
3.147,0.07,-0.00,-0.94,0.05,-0.59,-0.41,
3.147,0.07,-0.00,-0.94,0.05,-0.60,-0.41,
3.147,0.07,-0.00,-0.94,0.05,-0.61,-0.41,
3.147,0.07,-0.00,-0.94,0.05,-0.62,-0.41,
3.148,0.07,-0.00,-0.94,0.05,-0.62,-0.41,
3.148,0.03,0.14,-0.90,0.05,-0.62,-0.41,
3.148,0.03,0.14,-0.90,0.04,-0.63,-0.41,
3.149,0.03,0.14,-0.90,0.04,-0.63,-0.41,
3.149,0.03,0.14,-0.90,0.04,-0.63,-0.41,
3.149,0.03,0.14,-0.90,0.04,-0.64,-0.41,
3.151,0.03,0.14,-0.90,0.05,-0.65,-0.42,
3.155,0.10,0.24,-0.67,0.05,-0.65,-0.42,
3.156,0.10,0.24,-0.67,0.05,-0.66,-0.42,
3.156,0.10,0.24,-0.67,0.06,-0.68,-0.44,
3.159,0.10,0.24,-0.67,0.07,-0.69,-0.45,
3.162,0.10,0.24,-0.67,0.07,-0.69,-0.46,
3.163,0.10,0.24,-0.67,0.07,-0.70,-0.47,
3.163,0.44,0.47,-0.54,0.07,-0.70,-0.47,
3.164,0.44,0.47,-0.54,0.08,-0.71,-0.49,
3.165,0.44,0.47,-0.54,0.08,-0.72,-0.51,
3.166,0.44,0.47,-0.54,0.08,-0.73,-0.53,
3.168,0.44,0.47,-0.54,0.07,-0.73,-0.54,
3.176,0.44,0.47,-0.54,0.06,-0.74,-0.56,
3.177,0.75,0.60,-0.83,0.06,-0.74,-0.56,
3.177,0.75,0.60,-0.83,0.06,-0.76,-0.59,
3.177,0.75,0.60,-0.83,0.04,-0.80,-0.63,
3.177,0.75,0.60,-0.83,0.03,-0.83,-0.65,
3.179,0.75,0.60,-0.83,0.02,-0.85,-0.67,
3.18,0.75,0.60,-0.83,0.01,-0.89,-0.70,
3.183,1.14,0.91,-1.40,0.01,-0.89,-0.70,
3.184,1.14,0.91,-1.40,-0.01,-0.94,-0.73,
3.185,1.14,0.91,-1.40,-0.03,-1.01,-0.78,
3.186,1.14,0.91,-1.40,-0.05,-1.06,-0.81,
3.219,1.14,0.91,-1.40,-0.06,-1.09,-0.83,
3.22,1.14,0.91,-1.40,-0.08,-1.14,-0.86,
3.22,1.31,1.05,-1.91,-0.08,-1.14,-0.86,
3.221,1.31,1.05,-1.91,-0.10,-1.21,-0.89,
3.221,1.31,1.05,-1.91,-0.13,-1.30,-0.95,
3.222,1.31,1.05,-1.91,-0.14,-1.37,-0.98,
3.222,1.31,1.05,-1.91,-0.15,-1.40,-1.00,
3.222,1.31,1.05,-1.91,-0.17,-1.47,-1.04,
3.223,1.43,1.04,-2.02,-0.17,-1.47,-1.04,
3.223,1.43,1.04,-2.02,-0.18,-1.53,-1.07,
3.224,1.43,1.04,-2.02,-0.20,-1.62,-1.12,
3.224,1.43,1.04,-2.02,-0.21,-1.68,-1.15,
3.224,1.43,1.04,-2.02,-0.22,-1.70,-1.16,
3.225,1.43,1.04,-2.02,-0.22,-1.75,-1.19,
3.225,1.04,0.92,-1.50,-0.22,-1.75,-1.19,
3.226,1.04,0.92,-1.50,-0.23,-1.79,-1.20,
3.226,1.04,0.92,-1.50,-0.23,-1.85,-1.22,
3.227,1.04,0.92,-1.50,-0.22,-1.88,-1.23,
3.231,1.04,0.92,-1.50,-0.22,-1.90,-1.23,
3.232,1.04,0.92,-1.50,-0.21,-1.93,-1.23,
3.232,0.20,0.73,-0.42,-0.21,-1.93,-1.23,
3.233,0.20,0.73,-0.42,-0.20,-1.96,-1.23,
3.233,0.20,0.73,-0.42,-0.17,-2.00,-1.22,
3.233,0.20,0.73,-0.42,-0.14,-2.02,-1.22,
3.234,0.20,0.73,-0.42,-0.13,-2.02,-1.21,
3.234,0.20,0.73,-0.42,-0.10,-2.03,-1.20,
3.235,-0.31,0.55,0.91,-0.10,-2.03,-1.20,
3.235,-0.31,0.55,0.91,-0.07,-2.02,-1.19,
3.235,-0.31,0.55,0.91,-0.01,-1.99,-1.18,
3.237,-0.31,0.55,0.91,0.02,-1.97,-1.17,
3.248,-0.31,0.55,0.91,0.03,-1.95,-1.16,
3.249,-0.31,0.55,0.91,0.06,-1.90,-1.15,
3.249,-0.40,0.32,1.53,0.06,-1.90,-1.15,
3.25,-0.40,0.32,1.53,0.08,-1.86,-1.13,
3.25,-0.40,0.32,1.53,0.11,-1.80,-1.11,
3.25,-0.40,0.32,1.53,0.12,-1.75,-1.10,
3.251,-0.40,0.32,1.53,0.12,-1.72,-1.10,
3.253,-0.40,0.32,1.53,0.13,-1.67,-1.08,
3.281,-0.27,0.15,1.20,0.13,-1.67,-1.08,
3.282,-0.27,0.15,1.20,0.12,-1.63,-1.07,
3.283,-0.27,0.15,1.20,0.11,-1.56,-1.06,
3.283,-0.27,0.15,1.20,0.10,-1.53,-1.05,
3.283,-0.27,0.15,1.20,0.10,-1.52,-1.05,
3.283,-0.27,0.15,1.20,0.09,-1.50,-1.06,
3.284,0.26,0.43,0.46,0.09,-1.50,-1.06,
3.284,0.26,0.43,0.46,0.08,-1.50,-1.07,
3.284,0.26,0.43,0.46,0.07,-1.51,-1.10,
3.285,0.26,0.43,0.46,0.06,-1.54,-1.12,
3.285,0.26,0.43,0.46,0.06,-1.55,-1.14,
3.285,0.26,0.43,0.46,0.05,-1.58,-1.18,
3.286,1.08,1.12,-0.13,0.05,-1.58,-1.18,
3.286,1.08,1.12,-0.13,0.04,-1.65,-1.23,
3.286,1.08,1.12,-0.13,0.03,-1.71,-1.27,
3.287,1.08,1.12,-0.13,0.03,-1.79,-1.32,
3.287,1.08,1.12,-0.13,0.03,-1.88,-1.36,
3.287,1.08,1.12,-0.13,0.03,-2.00,-1.41,
3.287,1.57,1.73,-0.47,0.03,-2.00,-1.41,
3.288,1.57,1.73,-0.47,0.03,-2.14,-1.47,
3.288,1.57,1.73,-0.47,0.03,-2.28,-1.53,
3.288,1.57,1.73,-0.47,0.04,-2.44,-1.60,
3.289,1.57,1.73,-0.47,0.05,-2.60,-1.67,
3.291,1.57,1.73,-0.47,0.06,-2.76,-1.74,
3.292,2.13,2.22,-0.53,0.06,-2.76,-1.74,
3.293,2.13,2.22,-0.53,0.06,-2.95,-1.83,
3.295,2.13,2.22,-0.53,0.04,-3.18,-1.93,
3.296,2.13,2.22,-0.53,0.01,-3.37,-2.02,
3.298,2.13,2.22,-0.53,-0.00,-3.52,-2.12,
3.301,2.13,2.22,-0.53,0.01,-3.66,-2.21,
3.303,2.88,1.67,-0.20,0.01,-3.66,-2.21,
3.303,2.88,1.67,-0.20,0.03,-3.79,-2.29,
3.305,2.88,1.67,-0.20,0.09,-3.93,-2.40,
3.307,2.88,1.67,-0.20,0.11,-3.98,-2.43,
3.308,2.88,1.67,-0.20,0.15,-4.05,-2.48,
3.31,2.88,1.67,-0.20,0.17,-4.10,-2.51,
3.312,0.90,1.94,1.23,0.17,-4.10,-2.51,
3.313,0.90,1.94,1.23,0.18,-4.13,-2.52,
3.315,0.90,1.94,1.23,0.18,-4.14,-2.51,
3.316,0.90,1.94,1.23,0.17,-4.14,-2.47,
3.319,0.90,1.94,1.23,0.18,-4.14,-2.39,
3.321,0.90,1.94,1.23,0.19,-4.15,-2.30,
3.322,-2.21,1.79,1.02,0.19,-4.15,-2.30,
3.323,-2.21,1.79,1.02,0.20,-4.19,-2.20,
3.325,-2.21,1.79,1.02,0.21,-4.23,-2.10,
3.326,-2.21,1.79,1.02,0.22,-4.26,-2.00,
3.328,-2.21,1.79,1.02,0.23,-4.29,-1.90,
3.331,-2.21,1.79,1.02,0.23,-4.30,-1.80,
3.333,-2.26,0.55,1.82,0.23,-4.30,-1.80,
3.334,-2.26,0.55,1.82,0.23,-4.29,-1.71,
3.335,-2.26,0.55,1.82,0.23,-4.25,-1.58,
3.337,-2.26,0.55,1.82,0.23,-4.22,-1.54,
3.339,-2.26,0.55,1.82,0.24,-4.14,-1.47,
3.341,-2.26,0.55,1.82,0.24,-4.07,-1.39,
3.345,-1.27,-0.21,1.77,0.24,-4.07,-1.39,
3.345,-1.27,-0.21,1.77,0.24,-3.97,-1.32,
3.346,-1.27,-0.21,1.77,0.24,-3.86,-1.26,
3.346,-1.27,-0.21,1.77,0.24,-3.75,-1.21,
3.349,-1.27,-0.21,1.77,0.25,-3.64,-1.16,
3.351,-1.27,-0.21,1.77,0.26,-3.52,-1.12,
3.353,-0.84,0.14,2.02,0.26,-3.52,-1.12,
3.354,-0.84,0.14,2.02,0.28,-3.41,-1.09,
3.381,-0.84,0.14,2.02,0.28,-3.32,-1.07,
3.382,-0.84,0.14,2.02,0.28,-3.23,-1.07,
3.383,-0.84,0.14,2.02,0.29,-3.15,-1.08,
3.384,-0.84,0.14,2.02,0.29,-3.10,-1.09,
3.385,0.10,1.20,1.86,0.29,-3.10,-1.09,
3.385,0.10,1.20,1.86,0.28,-3.06,-1.12,
3.386,0.10,1.20,1.86,0.27,-3.01,-1.19,
3.387,0.10,1.20,1.86,0.26,-3.01,-1.21,
3.388,0.10,1.20,1.86,0.25,-3.01,-1.27,
3.389,0.10,1.20,1.86,0.24,-3.02,-1.34,
3.39,1.25,1.89,1.45,0.24,-3.02,-1.34,
3.391,1.25,1.89,1.45,0.23,-3.05,-1.41,
3.391,1.25,1.89,1.45,0.22,-3.14,-1.53,
3.395,1.25,1.89,1.45,0.22,-3.17,-1.57,
3.395,1.25,1.89,1.45,0.21,-3.24,-1.65,
3.396,1.25,1.89,1.45,0.21,-3.30,-1.74,
3.396,1.93,1.89,0.98,0.21,-3.30,-1.74,
3.396,1.93,1.89,0.98,0.22,-3.37,-1.82,
3.397,1.93,1.89,0.98,0.23,-3.46,-1.90,
3.397,1.93,1.89,0.98,0.25,-3.57,-1.97,
3.398,1.93,1.89,0.98,0.27,-3.68,-2.05,
3.398,1.93,1.89,0.98,0.30,-3.80,-2.13,
3.399,1.77,1.94,1.82,0.30,-3.80,-2.13,
3.399,1.77,1.94,1.82,0.34,-3.94,-2.20,
3.399,1.77,1.94,1.82,0.39,-4.15,-2.32,
3.4,1.77,1.94,1.82,0.42,-4.22,-2.36,
3.4,1.77,1.94,1.82,0.47,-4.36,-2.43,
3.401,1.77,1.94,1.82,0.53,-4.49,-2.50,
3.405,1.34,1.78,3.55,0.53,-4.49,-2.50,
3.406,1.34,1.78,3.55,0.59,-4.61,-2.57,
3.407,1.34,1.78,3.55,0.66,-4.71,-2.64,
3.41,1.34,1.78,3.55,0.72,-4.81,-2.71,
3.412,1.34,1.78,3.55,0.79,-4.92,-2.77,
3.412,1.34,1.78,3.55,0.86,-5.09,-2.82,
3.412,1.39,1.12,5.21,0.86,-5.09,-2.82,
3.413,1.39,1.12,5.21,0.91,-5.21,-2.85,
3.417,1.39,1.12,5.21,0.99,-5.33,-2.88,
3.418,1.39,1.12,5.21,1.01,-5.36,-2.88,
3.419,1.39,1.12,5.21,1.06,-5.39,-2.88,
3.422,1.39,1.12,5.21,1.12,-5.38,-2.87,
3.426,0.12,0.31,5.24,1.12,-5.38,-2.87,
3.427,0.12,0.31,5.24,1.19,-5.34,-2.85,
3.428,0.12,0.31,5.24,1.31,-5.23,-2.81,
3.428,0.12,0.31,5.24,1.35,-5.19,-2.79,
3.428,0.12,0.31,5.24,1.44,-5.08,-2.76,
3.433,0.12,0.31,5.24,1.53,-4.96,-2.73,
3.434,-1.09,-0.05,6.15,1.53,-4.96,-2.73,
3.434,-1.09,-0.05,6.15,1.63,-4.83,-2.70,
3.435,-1.09,-0.05,6.15,1.79,-4.62,-2.65,
3.455,-1.09,-0.05,6.15,1.85,-4.54,-2.63,
3.456,-1.09,-0.05,6.15,1.96,-4.40,-2.59,
3.456,-1.09,-0.05,6.15,2.08,-4.26,-2.55,
3.457,-1.98,-0.22,6.78,2.08,-4.26,-2.55,
3.457,-1.98,-0.22,6.78,2.20,-4.12,-2.52,
3.457,-1.98,-0.22,6.78,2.33,-3.98,-2.48,
3.458,-1.98,-0.22,6.78,2.45,-3.84,-2.45,
3.458,-1.98,-0.22,6.78,2.58,-3.72,-2.43,
3.458,-1.98,-0.22,6.78,2.71,-3.61,-2.41,
3.458,-2.38,-0.27,6.78,2.71,-3.61,-2.41,
3.459,-2.38,-0.27,6.78,2.83,-3.53,-2.39,
3.459,-2.38,-0.27,6.78,3.00,-3.44,-2.39,
3.459,-2.38,-0.27,6.78,3.06,-3.43,-2.39,
3.46,-2.38,-0.27,6.78,3.16,-3.41,-2.39,
3.463,-2.38,-0.27,6.78,3.25,-3.41,-2.40,
3.463,-2.24,-0.15,5.73,3.25,-3.41,-2.40,
3.463,-2.24,-0.15,5.73,3.32,-3.43,-2.41,
3.469,-2.24,-0.15,5.73,3.41,-3.48,-2.42,
3.469,-2.24,-0.15,5.73,3.43,-3.51,-2.43,
3.47,-2.24,-0.15,5.73,3.47,-3.57,-2.44,
3.481,-2.24,-0.15,5.73,3.49,-3.63,-2.45,
3.482,-1.93,-0.21,3.59,3.49,-3.63,-2.45,
3.482,-1.93,-0.21,3.59,3.50,-3.69,-2.46,
3.483,-1.93,-0.21,3.59,3.50,-3.79,-2.47,
3.483,-1.93,-0.21,3.59,3.49,-3.82,-2.47,
3.483,-1.93,-0.21,3.59,3.47,-3.89,-2.47,
3.483,-1.93,-0.21,3.59,3.44,-3.96,-2.47,
3.489,-2.00,-0.46,1.95,3.44,-3.96,-2.47,
3.49,-2.00,-0.46,1.95,3.40,-4.04,-2.47,
3.49,-2.00,-0.46,1.95,3.32,-4.15,-2.47,
3.491,-2.00,-0.46,1.95,3.29,-4.19,-2.47,
3.491,-2.00,-0.46,1.95,3.24,-4.27,-2.47,
3.491,-2.00,-0.46,1.95,3.18,-4.33,-2.47,
3.493,-1.83,-0.72,1.26,3.18,-4.33,-2.47,
3.494,-1.83,-0.72,1.26,3.12,-4.40,-2.47,
3.498,-1.83,-0.72,1.26,3.03,-4.48,-2.48,
3.499,-1.83,-0.72,1.26,3.00,-4.51,-2.48,
3.499,-1.83,-0.72,1.26,2.93,-4.57,-2.49,
3.502,-1.83,-0.72,1.26,2.87,-4.63,-2.50,
3.503,-1.64,-0.99,1.55,2.87,-4.63,-2.50,
3.508,-1.64,-0.99,1.55,2.82,-4.68,-2.50,
3.51,-1.64,-0.99,1.55,2.75,-4.76,-2.51,
3.511,-1.64,-0.99,1.55,2.73,-4.79,-2.51,
3.511,-1.64,-0.99,1.55,2.70,-4.84,-2.52,
3.511,-1.64,-0.99,1.55,2.69,-4.88,-2.52,
3.512,-1.78,-0.76,2.63,2.69,-4.88,-2.52,
3.513,-1.78,-0.76,2.63,2.68,-4.91,-2.52,
3.516,-1.78,-0.76,2.63,2.68,-4.93,-2.51,
3.517,-1.78,-0.76,2.63,2.69,-4.94,-2.51,
3.518,-1.78,-0.76,2.63,2.70,-4.94,-2.50,
3.522,-1.78,-0.76,2.63,2.73,-4.93,-2.49,
3.554,-1.84,-1.03,3.95,2.73,-4.93,-2.49,
3.554,-1.84,-1.03,3.95,2.76,-4.91,-2.47,
3.555,-1.84,-1.03,3.95,2.83,-4.87,-2.43,
3.555,-1.84,-1.03,3.95,2.85,-4.86,-2.41,
3.556,-1.84,-1.03,3.95,2.91,-4.82,-2.38,
3.556,-1.84,-1.03,3.95,2.96,-4.78,-2.35,
3.556,-1.97,-1.16,4.74,2.96,-4.78,-2.35,
3.557,-1.97,-1.16,4.74,3.02,-4.74,-2.32,
3.557,-1.97,-1.16,4.74,3.12,-4.67,-2.26,
3.558,-1.97,-1.16,4.74,3.15,-4.65,-2.24,
3.558,-1.97,-1.16,4.74,3.21,-4.60,-2.20,
3.559,-1.97,-1.16,4.74,3.27,-4.54,-2.16,
3.559,-2.31,-1.07,5.21,3.27,-4.54,-2.16,
3.559,-2.31,-1.07,5.21,3.32,-4.46,-2.12,
3.56,-2.31,-1.07,5.21,3.37,-4.29,-2.05,
3.56,-2.31,-1.07,5.21,3.39,-4.22,-2.03,
3.561,-2.31,-1.07,5.21,3.41,-4.08,-1.99,
3.561,-2.31,-1.07,5.21,3.43,-3.93,-1.96,
3.562,-2.62,-1.27,3.89,3.43,-3.93,-1.96,
3.562,-2.62,-1.27,3.89,3.43,-3.78,-1.94,
3.562,-2.62,-1.27,3.89,3.40,-3.58,-1.93,
3.563,-2.62,-1.27,3.89,3.39,-3.52,-1.92,
3.563,-2.62,-1.27,3.89,3.36,-3.41,-1.93,
3.564,-2.62,-1.27,3.89,3.32,-3.32,-1.94,
3.564,-1.79,-1.51,2.58,3.32,-3.32,-1.94,
3.564,-1.79,-1.51,2.58,3.28,-3.25,-1.96,
3.573,-1.79,-1.51,2.58,3.19,-3.17,-1.98,
3.574,-1.79,-1.51,2.58,3.16,-3.15,-1.98,
3.574,-1.79,-1.51,2.58,3.08,-3.11,-1.99,
3.574,-1.79,-1.51,2.58,3.00,-3.07,-2.00,
3.575,-1.43,-1.45,1.54,3.00,-3.07,-2.00,
3.575,-1.43,-1.45,1.54,2.91,-3.04,-2.00,
3.578,-1.43,-1.45,1.54,2.78,-3.00,-2.01,
3.585,-1.43,-1.45,1.54,2.74,-3.01,-2.00,
3.586,-1.43,-1.45,1.54,2.70,-3.09,-1.97,
3.586,-1.43,-1.45,1.54,2.67,-3.16,-1.94,
3.586,-1.75,-1.58,1.72,2.67,-3.16,-1.94,
3.587,-1.75,-1.58,1.72,2.64,-3.19,-1.90,
3.587,-1.75,-1.58,1.72,2.58,-3.17,-1.87,
3.587,-1.75,-1.58,1.72,2.56,-3.15,-1.86,
3.597,-1.75,-1.58,1.72,2.51,-3.10,-1.85,
3.598,-1.75,-1.58,1.72,2.46,-3.03,-1.85,
3.598,-1.40,-1.42,1.68,2.46,-3.03,-1.85,
3.598,-1.40,-1.42,1.68,2.40,-2.96,-1.86,
3.598,-1.40,-1.42,1.68,2.30,-2.87,-1.87,
3.599,-1.40,-1.42,1.68,2.27,-2.84,-1.87,
3.599,-1.40,-1.42,1.68,2.21,-2.79,-1.87,
3.602,-1.40,-1.42,1.68,2.16,-2.75,-1.87,
3.603,-1.48,-1.63,2.20,2.16,-2.75,-1.87,
3.603,-1.48,-1.63,2.20,2.10,-2.72,-1.87,
3.61,-1.48,-1.63,2.20,2.02,-2.71,-1.85,
3.611,-1.48,-1.63,2.20,2.00,-2.71,-1.84,
3.611,-1.48,-1.63,2.20,1.96,-2.71,-1.83,
3.612,-1.48,-1.63,2.20,1.92,-2.73,-1.81,
3.613,-1.80,-2.26,2.74,1.92,-2.73,-1.81,
3.613,-1.80,-2.26,2.74,1.90,-2.74,-1.79,
3.615,-1.80,-2.26,2.74,1.87,-2.76,-1.76,
3.618,-1.80,-2.26,2.74,1.87,-2.77,-1.75,
3.619,-1.80,-2.26,2.74,1.86,-2.78,-1.73,
3.621,-1.80,-2.26,2.74,1.87,-2.78,-1.71,
3.623,-1.83,-2.26,3.88,1.87,-2.78,-1.71,
3.623,-1.83,-2.26,3.88,1.88,-2.78,-1.68,
3.625,-1.83,-2.26,3.88,1.92,-2.78,-1.66,
3.626,-1.83,-2.26,3.88,1.94,-2.77,-1.65,
3.628,-1.83,-2.26,3.88,1.98,-2.77,-1.62,
3.63,-1.83,-2.26,3.88,2.02,-2.77,-1.60,
3.632,-1.79,-2.22,4.85,2.02,-2.77,-1.60,
3.633,-1.79,-2.22,4.85,2.07,-2.76,-1.58,
3.636,-1.79,-2.22,4.85,2.14,-2.75,-1.56,
3.639,-1.79,-2.22,4.85,2.17,-2.74,-1.54,
3.639,-1.79,-2.22,4.85,2.23,-2.73,-1.52,
3.64,-1.79,-2.22,4.85,2.28,-2.72,-1.50,
3.642,-2.05,-2.45,5.54,2.28,-2.72,-1.50,
3.648,-2.05,-2.45,5.54,2.44,-2.65,-1.43,
3.649,-2.05,-2.45,5.54,2.44,-2.65,-1.43,
3.65,-2.05,-2.45,5.54,2.44,-2.65,-1.43,
3.651,-2.05,-2.45,5.54,2.49,-2.61,-1.41,
3.652,-2.05,-2.45,5.54,2.54,-2.56,-1.39,
3.659,-2.46,-2.53,5.32,2.54,-2.56,-1.39,
3.66,-2.46,-2.53,5.32,2.58,-2.51,-1.37,
3.66,-2.46,-2.53,5.32,2.63,-2.44,-1.35,
3.66,-2.46,-2.53,5.32,2.64,-2.41,-1.34,
3.661,-2.46,-2.53,5.32,2.66,-2.36,-1.33,
3.661,-2.46,-2.53,5.32,2.68,-2.31,-1.33,
3.663,-2.39,-2.68,4.70,2.68,-2.31,-1.33,
3.663,-2.39,-2.68,4.70,2.69,-2.26,-1.32,
3.665,-2.39,-2.68,4.70,2.70,-2.18,-1.31,
3.667,-2.39,-2.68,4.70,2.70,-2.15,-1.30,
3.668,-2.39,-2.68,4.70,2.69,-2.10,-1.29,
3.675,-2.39,-2.68,4.70,2.69,-2.06,-1.27,
3.676,-2.39,-2.95,4.01,2.69,-2.06,-1.27,
3.677,-2.39,-2.95,4.01,2.68,-2.03,-1.25,
3.677,-2.39,-2.95,4.01,2.67,-2.00,-1.23,
3.678,-2.39,-2.95,4.01,2.66,-2.00,-1.22,
3.679,-2.39,-2.95,4.01,2.65,-2.00,-1.20,
3.681,-2.39,-2.95,4.01,2.65,-2.01,-1.19,
3.685,-2.42,-2.95,3.77,2.65,-2.01,-1.19,
3.685,-2.42,-2.95,3.77,2.64,-2.03,-1.18,
3.686,-2.42,-2.95,3.77,2.63,-2.07,-1.16,
3.688,-2.42,-2.95,3.77,2.62,-2.08,-1.15,
3.721,-2.42,-2.95,3.77,2.62,-2.10,-1.15,
3.722,-2.42,-2.95,3.77,2.61,-2.13,-1.14,
3.722,-2.26,-3.17,3.32,2.61,-2.13,-1.14,
3.722,-2.26,-3.17,3.32,2.60,-2.15,-1.14,
3.723,-2.26,-3.17,3.32,2.59,-2.17,-1.14,
3.723,-2.26,-3.17,3.32,2.58,-2.18,-1.14,
3.724,-2.26,-3.17,3.32,2.58,-2.19,-1.14,
3.724,-2.26,-3.17,3.32,2.57,-2.20,-1.13,
3.724,-2.07,-3.40,3.41,2.57,-2.20,-1.13,
3.725,-2.07,-3.40,3.41,2.56,-2.20,-1.13,
3.725,-2.07,-3.40,3.41,2.56,-2.19,-1.12,
3.726,-2.07,-3.40,3.41,2.56,-2.19,-1.12,
3.726,-2.07,-3.40,3.41,2.56,-2.18,-1.12,
3.727,-2.07,-3.40,3.41,2.56,-2.18,-1.11,
3.727,-1.91,-3.32,3.69,2.56,-2.18,-1.11,
3.727,-1.91,-3.32,3.69,2.56,-2.16,-1.11,
3.728,-1.91,-3.32,3.69,2.56,-2.13,-1.10,
3.728,-1.91,-3.32,3.69,2.57,-2.12,-1.10,
3.729,-1.91,-3.32,3.69,2.57,-2.08,-1.09,
3.729,-1.91,-3.32,3.69,2.58,-2.03,-1.08,
3.729,-1.73,-3.29,4.30,2.58,-2.03,-1.08,
3.73,-1.73,-3.29,4.30,2.59,-1.98,-1.07,
3.73,-1.73,-3.29,4.30,2.60,-1.88,-1.05,
3.731,-1.73,-3.29,4.30,2.61,-1.84,-1.04,
3.731,-1.73,-3.29,4.30,2.62,-1.77,-1.03,
3.732,-1.73,-3.29,4.30,2.63,-1.69,-1.02,
3.732,-1.50,-3.45,4.57,2.63,-1.69,-1.02,
3.732,-1.50,-3.45,4.57,2.64,-1.61,-1.01,
3.737,-1.50,-3.45,4.57,2.65,-1.49,-1.00,
3.738,-1.50,-3.45,4.57,2.66,-1.46,-0.99,
3.739,-1.50,-3.45,4.57,2.66,-1.38,-0.98,
3.742,-1.50,-3.45,4.57,2.66,-1.31,-0.98,
3.743,-1.23,-3.62,4.62,2.66,-1.31,-0.98,
3.744,-1.23,-3.62,4.62,2.65,-1.24,-0.97,
3.748,-1.23,-3.62,4.62,2.63,-1.14,-0.95,
3.748,-1.23,-3.62,4.62,2.62,-1.10,-0.95,
3.749,-1.23,-3.62,4.62,2.59,-1.03,-0.93,
3.751,-1.23,-3.62,4.62,2.56,-0.95,-0.91,
3.759,-1.16,-3.78,3.50,2.56,-0.95,-0.91,
3.761,-1.16,-3.78,3.50,2.52,-0.87,-0.89,
3.762,-1.16,-3.78,3.50,2.44,-0.76,-0.85,
3.762,-1.16,-3.78,3.50,2.41,-0.73,-0.84,
3.763,-1.16,-3.78,3.50,2.35,-0.67,-0.82,
3.763,-1.16,-3.78,3.50,2.29,-0.63,-0.80,
3.766,-1.40,-3.69,2.38,2.29,-0.63,-0.80,
3.77,-1.40,-3.69,2.38,2.22,-0.59,-0.79,
3.771,-1.40,-3.69,2.38,2.12,-0.58,-0.78,
3.771,-1.40,-3.69,2.38,2.08,-0.58,-0.78,
3.772,-1.40,-3.69,2.38,2.01,-0.59,-0.78,
3.773,-1.40,-3.69,2.38,1.95,-0.61,-0.78,
3.773,-1.52,-3.59,1.95,1.95,-0.61,-0.78,
3.774,-1.52,-3.59,1.95,1.89,-0.63,-0.78,
3.776,-1.52,-3.59,1.95,1.80,-0.68,-0.77,
3.776,-1.52,-3.59,1.95,1.77,-0.69,-0.77,
3.779,-1.52,-3.59,1.95,1.72,-0.72,-0.77,
3.78,-1.52,-3.59,1.95,1.67,-0.75,-0.77,
3.783,-2.08,-3.43,2.11,1.67,-0.75,-0.77,
3.784,-2.08,-3.43,2.11,1.63,-0.79,-0.77,
3.786,-2.08,-3.43,2.11,1.59,-0.84,-0.79,
3.787,-2.08,-3.43,2.11,1.58,-0.86,-0.80,
3.79,-2.08,-3.43,2.11,1.56,-0.90,-0.81,
3.791,-2.08,-3.43,2.11,1.56,-0.95,-0.84,
3.793,-1.80,-3.52,3.42,1.56,-0.95,-0.84,
3.794,-1.80,-3.52,3.42,1.57,-0.99,-0.86,
3.796,-1.80,-3.52,3.42,1.60,-1.06,-0.90,
3.797,-1.80,-3.52,3.42,1.61,-1.07,-0.91,
3.799,-1.80,-3.52,3.42,1.66,-1.11,-0.94,
3.802,-1.80,-3.52,3.42,1.71,-1.14,-0.95,
3.803,-1.50,-3.52,5.65,1.71,-1.14,-0.95,
3.803,-1.50,-3.52,5.65,1.77,-1.16,-0.97,
3.811,-1.50,-3.52,5.65,1.88,-1.18,-1.01,
3.814,-1.50,-3.52,5.65,1.92,-1.18,-1.02,
3.815,-1.50,-3.52,5.65,2.00,-1.17,-1.05,
3.816,-1.50,-3.52,5.65,2.08,-1.15,-1.07,
3.817,-0.90,-3.86,6.82,2.08,-1.15,-1.07,
3.819,-0.90,-3.86,6.82,2.17,-1.11,-1.09,
3.82,-0.90,-3.86,6.82,2.30,-1.05,-1.14,
3.821,-0.90,-3.86,6.82,2.34,-1.02,-1.15,
3.821,-0.90,-3.86,6.82,2.42,-0.97,-1.17,
3.824,-0.90,-3.86,6.82,2.50,-0.92,-1.19,
3.825,-0.59,-4.28,7.24,2.50,-0.92,-1.19,
3.825,-0.59,-4.28,7.24,2.57,-0.87,-1.21,
3.841,-0.59,-4.28,7.24,2.66,-0.81,-1.22,
3.842,-0.59,-4.28,7.24,2.69,-0.78,-1.23,
3.842,-0.59,-4.28,7.24,2.73,-0.75,-1.23,
3.843,-0.59,-4.28,7.24,2.77,-0.72,-1.23,
3.843,-1.03,-4.48,6.06,2.77,-0.72,-1.23,
3.843,-1.03,-4.48,6.06,2.79,-0.70,-1.23,
3.843,-1.03,-4.48,6.06,2.80,-0.69,-1.23,
3.844,-1.03,-4.48,6.06,2.80,-0.69,-1.23,
3.844,-1.03,-4.48,6.06,2.78,-0.69,-1.22,
3.844,-1.03,-4.48,6.06,2.75,-0.69,-1.22,
3.844,-1.51,-4.28,4.02,2.75,-0.69,-1.22,
3.845,-1.51,-4.28,4.02,2.70,-0.70,-1.21,
3.848,-1.51,-4.28,4.02,2.61,-0.71,-1.18,
3.848,-1.51,-4.28,4.02,2.57,-0.72,-1.17,
3.849,-1.51,-4.28,4.02,2.48,-0.73,-1.15,
3.851,-1.51,-4.28,4.02,2.39,-0.75,-1.12,
3.855,-1.81,-4.12,1.61,2.39,-0.75,-1.12,
3.857,-1.81,-4.12,1.61,2.29,-0.76,-1.09,
3.889,-1.81,-4.12,1.61,2.12,-0.76,-1.03,
3.889,-1.81,-4.12,1.61,2.06,-0.75,-1.00,
3.889,-1.81,-4.12,1.61,1.95,-0.74,-0.95,
3.89,-1.81,-4.12,1.61,1.82,-0.71,-0.90,
3.89,-2.44,-4.17,0.38,1.82,-0.71,-0.90,
3.891,-2.44,-4.17,0.38,1.71,-0.68,-0.85,
3.891,-2.44,-4.17,0.38,1.53,-0.63,-0.78,
3.892,-2.44,-4.17,0.38,1.48,-0.62,-0.76,
3.892,-2.44,-4.17,0.38,1.38,-0.58,-0.72,
3.892,-2.44,-4.17,0.38,1.28,-0.55,-0.69,
3.893,-2.25,-4.11,1.36,1.28,-0.55,-0.69,
3.893,-2.25,-4.11,1.36,1.20,-0.53,-0.65,
3.894,-2.25,-4.11,1.36,1.11,-0.49,-0.60,
3.894,-2.25,-4.11,1.36,1.08,-0.48,-0.59,
3.894,-2.25,-4.11,1.36,1.04,-0.47,-0.57,
3.895,-2.25,-4.11,1.36,1.02,-0.46,-0.55,
3.895,-1.83,-3.83,4.02,1.02,-0.46,-0.55,
3.896,-1.83,-3.83,4.02,1.02,-0.45,-0.54,
3.896,-1.83,-3.83,4.02,1.04,-0.45,-0.52,
3.897,-1.83,-3.83,4.02,1.05,-0.45,-0.52,
3.897,-1.83,-3.83,4.02,1.10,-0.46,-0.52,
3.897,-1.83,-3.83,4.02,1.16,-0.48,-0.52,
3.898,-0.85,-4.02,7.07,1.16,-0.48,-0.52,
3.899,-0.85,-4.02,7.07,1.24,-0.50,-0.52,
3.899,-0.85,-4.02,7.07,1.39,-0.54,-0.54,
3.899,-0.85,-4.02,7.07,1.45,-0.55,-0.55,
3.899,-0.85,-4.02,7.07,1.57,-0.59,-0.56,
3.901,-0.85,-4.02,7.07,1.71,-0.62,-0.58,
3.903,0.27,-4.06,10.23,1.71,-0.62,-0.58,
3.903,0.27,-4.06,10.23,1.85,-0.64,-0.59,
3.907,0.27,-4.06,10.23,2.10,-0.65,-0.62,
3.907,0.27,-4.06,10.23,2.18,-0.65,-0.63,
3.908,0.27,-4.06,10.23,2.35,-0.66,-0.66,
3.911,0.27,-4.06,10.23,2.51,-0.66,-0.69,
3.918,0.71,-4.12,11.53,2.51,-0.66,-0.69,
3.919,0.71,-4.12,11.53,2.69,-0.67,-0.72,
3.919,0.71,-4.12,11.53,2.93,-0.68,-0.77,
3.92,0.71,-4.12,11.53,3.00,-0.69,-0.78,
3.92,0.71,-4.12,11.53,3.13,-0.71,-0.82,
3.92,0.71,-4.12,11.53,3.24,-0.73,-0.85,
3.924,0.61,-3.60,10.65,3.24,-0.73,-0.85,
3.925,0.61,-3.60,10.65,3.32,-0.76,-0.87,
3.926,0.61,-3.60,10.65,3.37,-0.81,-0.91,
3.927,0.61,-3.60,10.65,3.37,-0.83,-0.92,
3.928,0.61,-3.60,10.65,3.34,-0.88,-0.93,
3.93,0.61,-3.60,10.65,3.29,-0.93,-0.95,
3.932,0.03,-3.12,6.37,3.29,-0.93,-0.95,
3.933,0.03,-3.12,6.37,3.19,-0.98,-0.97,
3.945,0.03,-3.12,6.37,2.98,-1.05,-1.00,
3.946,0.03,-3.12,6.37,2.90,-1.06,-1.01,
3.946,0.03,-3.12,6.37,2.71,-1.08,-1.04,
3.946,0.03,-3.12,6.37,2.51,-1.07,-1.06,
3.946,0.37,-2.70,2.07,2.51,-1.07,-1.06,
3.946,0.37,-2.70,2.07,2.28,-1.04,-1.09,
3.947,0.37,-2.70,2.07,1.92,-0.96,-1.14,
3.947,0.37,-2.70,2.07,1.79,-0.92,-1.15,
3.949,0.37,-2.70,2.07,1.54,-0.84,-1.14,
3.974,0.37,-2.70,2.07,1.30,-0.72,-1.13,
3.976,0.32,-3.01,0.10,1.30,-0.72,-1.13,
3.977,0.32,-3.01,0.10,1.08,-0.59,-1.14,
3.977,0.32,-3.01,0.10,0.75,-0.42,-1.16,
3.977,0.32,-3.01,0.10,0.64,-0.36,-1.18,
3.978,0.32,-3.01,0.10,0.43,-0.23,-1.21,
3.978,0.32,-3.01,0.10,0.25,-0.11,-1.25,
3.978,2.13,-3.70,1.56,0.25,-0.11,-1.25,
3.979,2.13,-3.70,1.56,0.08,0.01,-1.30,
3.979,2.13,-3.70,1.56,-0.13,0.19,-1.37,
3.979,2.13,-3.70,1.56,-0.19,0.24,-1.40,
3.98,2.13,-3.70,1.56,-0.29,0.34,-1.44,
3.98,2.13,-3.70,1.56,-0.36,0.41,-1.47,
3.981,2.51,-4.15,5.23,-0.36,0.41,-1.47,
3.981,2.51,-4.15,5.23,-0.41,0.47,-1.50,
3.981,2.51,-4.15,5.23,-0.42,0.53,-1.51,
3.982,2.51,-4.15,5.23,-0.40,0.54,-1.51,
3.983,2.51,-4.15,5.23,-0.36,0.57,-1.49,
3.983,2.51,-4.15,5.23,-0.29,0.58,-1.46,
3.984,0.36,-5.24,10.14,-0.29,0.58,-1.46,
3.984,0.36,-5.24,10.14,-0.18,0.58,-1.41,
3.987,0.36,-5.24,10.14,0.02,0.55,-1.34,
3.989,0.36,-5.24,10.14,0.10,0.53,-1.31,
3.99,0.36,-5.24,10.14,0.29,0.47,-1.28,
3.991,0.36,-5.24,10.14,0.50,0.37,-1.25,
3.993,-0.19,-7.29,13.80,0.50,0.37,-1.25,
3.994,-0.19,-7.29,13.80,0.73,0.24,-1.22,
3.995,-0.19,-7.29,13.80,1.13,0.01,-1.19,
3.996,-0.19,-7.29,13.80,1.28,-0.08,-1.18,
3.999,-0.19,-7.29,13.80,1.58,-0.25,-1.16,
4.004,-0.19,-7.29,13.80,1.90,-0.42,-1.14,
4.007,0.07,-7.67,16.37,1.90,-0.42,-1.14,
4.009,0.07,-7.67,16.37,2.24,-0.58,-1.13,
4.01,0.07,-7.67,16.37,2.75,-0.79,-1.11,
4.011,0.07,-7.67,16.37,2.93,-0.85,-1.11,
4.011,0.07,-7.67,16.37,3.27,-0.95,-1.11,
4.012,0.07,-7.67,16.37,3.58,-1.03,-1.11,
4.012,0.89,-7.73,15.88,3.58,-1.03,-1.11,
4.013,0.89,-7.73,15.88,3.88,-1.08,-1.10,
4.016,0.89,-7.73,15.88,4.27,-1.10,-1.08,
4.016,0.89,-7.73,15.88,4.38,-1.09,-1.07,
4.018,0.89,-7.73,15.88,4.56,-1.04,-1.04,
4.02,0.89,-7.73,15.88,4.69,-0.96,-0.99,
4.049,2.12,-6.51,10.39,4.69,-0.96,-0.99,
4.05,2.12,-6.51,10.39,4.76,-0.85,-0.94,
4.05,2.12,-6.51,10.39,4.74,-0.65,-0.76,
4.051,2.12,-6.51,10.39,4.71,-0.56,-0.69,
4.051,2.12,-6.51,10.39,4.61,-0.36,-0.57,
4.052,2.12,-6.51,10.39,4.46,-0.16,-0.46,
4.052,1.51,-4.59,1.52,4.46,-0.16,-0.46,
4.052,1.51,-4.59,1.52,4.22,0.04,-0.38,
4.053,1.51,-4.59,1.52,3.71,0.30,-0.31,
4.053,1.51,-4.59,1.52,3.50,0.38,-0.30,
4.054,1.51,-4.59,1.52,3.03,0.52,-0.31,
4.054,1.51,-4.59,1.52,2.50,0.64,-0.34,
4.054,6.96,-3.46,-7.79,2.50,0.64,-0.34,
4.055,6.96,-3.46,-7.79,1.92,0.74,-0.39,
4.055,6.96,-3.46,-7.79,1.01,0.88,-0.52,
4.056,6.96,-3.46,-7.79,0.71,0.93,-0.56,
4.056,6.96,-3.46,-7.79,0.13,1.04,-0.67,
4.057,6.96,-3.46,-7.79,-0.41,1.17,-0.77,
4.057,11.31,-3.23,-10.27,-0.41,1.17,-0.77,
4.058,11.31,-3.23,-10.27,-0.88,1.31,-0.87,
4.058,11.31,-3.23,-10.27,-1.45,1.53,-0.97,
4.059,11.31,-3.23,-10.27,-1.61,1.60,-0.98,
4.059,11.31,-3.23,-10.27,-1.86,1.74,-0.98,
4.061,11.31,-3.23,-10.27,-2.03,1.87,-0.96,
4.062,8.20,-5.31,-2.69,-2.03,1.87,-0.96,
4.063,8.20,-5.31,-2.69,-2.15,1.95,-0.92,
4.067,8.20,-5.31,-2.69,-2.21,2.01,-0.84,
4.068,8.20,-5.31,-2.69,-2.21,2.00,-0.80,
4.071,8.20,-5.31,-2.69,-2.18,1.96,-0.71,
4.072,8.20,-5.31,-2.69,-2.12,1.87,-0.61,
4.072,4.41,-8.83,6.76,-2.12,1.87,-0.61,
4.073,4.41,-8.83,6.76,-2.02,1.74,-0.48,
4.075,4.41,-8.83,6.76,-1.81,1.48,-0.28,
4.076,4.41,-8.83,6.76,-1.72,1.38,-0.21,
4.078,4.41,-8.83,6.76,-1.53,1.18,-0.07,
4.08,4.41,-8.83,6.76,-1.32,0.97,0.05,
4.082,2.45,-11.78,13.99,-1.32,0.97,0.05,
4.083,2.45,-11.78,13.99,-1.08,0.75,0.15,
4.089,2.45,-11.78,13.99,-0.66,0.48,0.29,
4.09,2.45,-11.78,13.99,-0.50,0.41,0.34,
4.09,2.45,-11.78,13.99,-0.15,0.30,0.43,
4.09,2.45,-11.78,13.99,0.24,0.22,0.50,
4.092,1.73,-11.46,20.03,0.24,0.22,0.50,
4.093,1.73,-11.46,20.03,0.65,0.19,0.54,
4.1,1.73,-11.46,20.03,1.33,0.21,0.58,
4.101,1.73,-11.46,20.03,1.56,0.24,0.58,
4.101,1.73,-11.46,20.03,2.05,0.33,0.58,
4.117,1.73,-11.46,20.03,2.53,0.45,0.55,
4.118,2.39,-10.83,22.79,2.53,0.45,0.55,
4.118,2.39,-10.83,22.79,3.01,0.60,0.52,
4.119,2.39,-10.83,22.79,3.70,0.84,0.42,
4.119,2.39,-10.83,22.79,3.91,0.91,0.38,
4.119,2.39,-10.83,22.79,4.29,1.03,0.29,
4.119,2.39,-10.83,22.79,4.63,1.11,0.19,
4.119,4.41,-12.23,17.00,4.63,1.11,0.19,
4.12,4.41,-12.23,17.00,4.91,1.15,0.10,
4.12,4.41,-12.23,17.00,5.22,1.15,-0.04,
4.12,4.41,-12.23,17.00,5.29,1.14,-0.08,
4.12,4.41,-12.23,17.00,5.38,1.11,-0.17,
4.121,4.41,-12.23,17.00,5.39,1.09,-0.26,
4.123,4.70,-11.74,4.38,5.39,1.09,-0.26,
4.125,4.70,-11.74,4.38,5.33,1.09,-0.34,
4.126,4.70,-11.74,4.38,5.08,1.13,-0.47,
4.127,4.70,-11.74,4.38,4.96,1.15,-0.51,
4.129,4.70,-11.74,4.38,4.64,1.15,-0.60,
4.131,4.70,-11.74,4.38,4.22,1.11,-0.68,
4.133,5.44,-10.14,-11.90,4.22,1.11,-0.68,
4.135,5.44,-10.14,-11.90,3.71,1.02,-0.72,
4.137,5.44,-10.14,-11.90,2.82,0.83,-0.73,
4.139,5.44,-10.14,-11.90,2.51,0.75,-0.73,
4.141,5.44,-10.14,-11.90,1.83,0.57,-0.75,
4.141,5.44,-10.14,-11.90,1.14,0.41,-0.74,
4.144,3.89,-10.05,-22.98,1.14,0.41,-0.74,
4.148,3.89,-10.05,-22.98,0.45,0.28,-0.72,
4.149,3.89,-10.05,-22.98,-0.49,0.17,-0.63,
4.149,3.89,-10.05,-22.98,-0.77,0.14,-0.58,
4.15,3.89,-10.05,-22.98,-1.30,0.09,-0.45,
4.159,3.89,-10.05,-22.98,-1.74,0.02,-0.29,
4.16,0.57,-12.03,-22.02,-1.74,0.02,-0.29,
4.161,0.57,-12.03,-22.02,-2.10,-0.10,-0.10,
4.162,0.57,-12.03,-22.02,-2.48,-0.36,0.22,
4.163,0.57,-12.03,-22.02,-2.56,-0.47,0.33,
4.164,0.57,-12.03,-22.02,-2.67,-0.72,0.55,
4.164,0.57,-12.03,-22.02,-2.71,-1.01,0.75,
4.164,-2.77,-12.45,-7.13,-2.71,-1.01,0.75,
4.165,-2.77,-12.45,-7.13,-2.69,-1.31,0.95,
4.168,-2.77,-12.45,-7.13,-2.56,-1.74,1.25,
4.169,-2.77,-12.45,-7.13,-2.49,-1.87,1.35,
4.169,-2.77,-12.45,-7.13,-2.31,-2.14,1.57,
4.17,-2.77,-12.45,-7.13,-2.08,-2.39,1.79,
4.172,-0.53,-14.98,11.22,-2.08,-2.39,1.79,
4.173,-0.53,-14.98,11.22,-1.79,-2.58,2.00,
4.175,-0.53,-14.98,11.22,-1.28,-2.76,2.27,
4.177,-0.53,-14.98,11.22,-1.09,-2.78,2.35,
4.179,-0.53,-14.98,11.22,-0.67,-2.76,2.50,
4.181,-0.53,-14.98,11.22,-0.23,-2.65,2.61,
4.184,2.37,-16.14,28.35,-0.23,-2.65,2.61,
4.185,2.37,-16.14,28.35,0.26,-2.43,2.69,
4.185,2.37,-16.14,28.35,1.03,-1.91,2.70,
4.19,2.37,-16.14,28.35,1.30,-1.70,2.68,
4.21,2.37,-16.14,28.35,1.84,-1.24,2.62,
4.21,2.37,-16.14,28.35,2.40,-0.77,2.52,
4.21,7.29,-16.46,38.38,2.40,-0.77,2.52,
4.211,7.29,-16.46,38.38,2.95,-0.34,2.39,
4.211,7.29,-16.46,38.38,3.73,0.28,2.17,
4.211,7.29,-16.46,38.38,3.97,0.49,2.09,
4.212,7.29,-16.46,38.38,4.41,0.95,1.93,
4.212,7.29,-16.46,38.38,4.78,1.43,1.78,
4.212,20.24,-17.65,33.27,4.78,1.43,1.78,
4.212,20.24,-17.65,33.27,5.06,1.93,1.60,
4.213,20.24,-17.65,33.27,5.26,2.64,1.29,
4.213,20.24,-17.65,33.27,5.26,2.85,1.17,
4.213,20.24,-17.65,33.27,5.17,3.21,0.87,
4.213,20.24,-17.65,33.27,4.97,3.46,0.52,
4.213,32.33,-17.34,11.17,4.97,3.46,0.52,
4.214,32.33,-17.34,11.17,4.68,3.61,0.11,
4.221,32.33,-17.34,11.17,4.15,3.70,-0.55,
4.221,32.33,-17.34,11.17,3.96,3.70,-0.78,
4.222,32.33,-17.34,11.17,3.60,3.70,-1.23,
4.222,32.33,-17.34,11.17,3.27,3.71,-1.66,
4.223,39.01,-18.48,-5.62,3.27,3.71,-1.66,
4.224,39.01,-18.48,-5.62,3.00,3.74,-2.04,
4.226,39.01,-18.48,-5.62,2.71,3.82,-2.52,
4.226,39.01,-18.48,-5.62,2.64,3.83,-2.67,
4.23,39.01,-18.48,-5.62,2.57,3.78,-2.95,
4.231,39.01,-18.48,-5.62,2.58,3.63,-3.18,
4.234,35.57,-19.08,-6.83,2.58,3.63,-3.18,
4.235,35.57,-19.08,-6.83,2.66,3.35,-3.42,
4.237,35.57,-19.08,-6.83,2.88,2.70,-3.86,
4.237,35.57,-19.08,-6.83,2.98,2.46,-4.02,
4.239,35.57,-19.08,-6.83,3.22,1.99,-4.32,
4.24,35.57,-19.08,-6.83,3.49,1.55,-4.62,
4.243,35.38,-21.29,-0.15,3.49,1.55,-4.62,
4.243,35.38,-21.29,-0.15,3.80,1.14,-4.89,
4.245,35.38,-21.29,-0.15,4.36,0.63,-5.23,
4.246,35.38,-21.29,-0.15,4.58,0.49,-5.31,
4.248,35.38,-21.29,-0.15,5.07,0.24,-5.50,
4.251,35.38,-21.29,-0.15,5.57,-0.01,-5.67,
4.253,32.72,-23.51,13.27,5.57,-0.01,-5.67,
4.253,32.72,-23.51,13.27,6.10,-0.20,-5.81,
4.257,32.72,-23.51,13.27,6.87,-0.43,-5.89,
4.258,32.72,-23.51,13.27,7.12,-0.49,-5.86,
4.258,32.72,-23.51,13.27,7.60,-0.60,-5.73,
4.262,32.72,-23.51,13.27,8.06,-0.70,-5.52,
4.263,30.51,-32.37,27.05,8.06,-0.70,-5.52,
4.263,30.51,-32.37,27.05,8.47,-0.76,-5.23,
4.267,30.51,-32.37,27.05,9.08,-0.71,-4.72,
4.268,30.51,-32.37,27.05,9.43,-0.10,-4.42,
4.269,30.51,-32.37,27.05,10.51,5.36,-2.45,
4.271,30.51,-32.37,27.05,7.84,-12.77,1.47,
4.274,-39.65,-60.50,-31.18,7.84,-12.77,1.47,
4.274,-39.65,-60.50,-31.18,-4.66,-31.52,5.43,
4.276,-39.65,-60.50,-31.18,-12.94,-21.91,8.80,
4.277,-39.65,-60.50,-31.18,-12.90,-20.41,9.30,
4.279,-39.65,-60.50,-31.18,-12.25,-20.20,9.51,
4.281,-39.65,-60.50,-31.18,-10.76,-18.87,9.37,
4.284,-70.03,30.51,-10.22,-10.76,-18.87,9.37,
4.285,-70.03,30.51,-10.22,-8.76,-15.41,9.12,
4.286,-70.03,30.51,-10.22,-6.18,-6.60,8.31,
4.287,-70.03,30.51,-10.22,-5.35,-2.15,8.26,
4.288,-70.03,30.51,-10.22,-2.83,7.10,8.50,
4.29,-70.03,30.51,-10.22,0.26,12.78,8.91,
4.292,-17.85,-49.84,71.18,0.26,12.78,8.91,
4.293,-17.85,-49.84,71.18,2.91,13.72,9.18,
4.295,-17.85,-49.84,71.18,5.08,10.99,9.33,
4.296,-17.85,-49.84,71.18,5.55,9.39,9.31,
4.298,-17.85,-49.84,71.18,6.15,5.47,9.05,
4.301,-17.85,-49.84,71.18,6.53,0.57,8.37,
4.303,62.34,-70.91,52.01,6.53,0.57,8.37,
4.303,62.34,-70.91,52.01,6.57,-4.12,7.20,
4.305,62.34,-70.91,52.01,6.49,-7.97,4.73,
4.306,62.34,-70.91,52.01,6.33,-7.82,3.83,
4.308,62.34,-70.91,52.01,5.61,-6.09,1.93,
4.31,62.34,-70.91,52.01,4.32,-3.53,0.10,
4.312,77.72,-33.48,-27.43,4.32,-3.53,0.10,
4.313,77.72,-33.48,-27.43,2.58,-1.00,-1.54,
4.315,77.72,-33.48,-27.43,0.12,1.09,-3.29,
4.316,77.72,-33.48,-27.43,-0.46,1.24,-3.56,
4.321,77.72,-33.48,-27.43,-1.06,0.84,-3.66,
4.321,77.72,-33.48,-27.43,-1.07,0.21,-3.40,
4.323,16.91,-2.85,-45.41,-1.07,0.21,-3.40,
4.324,16.91,-2.85,-45.41,-0.71,-0.11,-3.07,
4.325,16.91,-2.85,-45.41,-0.57,0.61,-2.79,
4.327,16.91,-2.85,-45.41,-0.60,0.80,-2.73,
4.328,16.91,-2.85,-45.41,-0.76,1.03,-2.57,
4.33,16.91,-2.85,-45.41,-0.87,0.98,-2.39,
4.343,3.12,-14.35,-9.87,-0.87,0.98,-2.39,
4.343,3.12,-14.35,-9.87,-0.99,0.98,-2.12,
4.344,3.12,-14.35,-9.87,-1.11,0.94,-1.59,
4.344,3.12,-14.35,-9.87,-1.12,0.93,-1.40,
4.344,3.12,-14.35,-9.87,-1.01,0.88,-0.99,
4.344,3.12,-14.35,-9.87,-0.73,0.77,-0.56,
4.345,-19.28,-14.40,7.11,-0.73,0.77,-0.56,
4.345,-19.28,-14.40,7.11,-0.34,0.69,-0.23,
4.348,-19.28,-14.40,7.11,0.28,0.61,0.03,
4.349,-19.28,-14.40,7.11,0.46,0.60,0.06,
4.349,-19.28,-14.40,7.11,0.80,0.49,0.09,
4.363,-19.28,-14.40,7.11,1.05,0.45,0.12,
4.364,-9.32,-7.90,14.04,1.05,0.45,0.12,
4.365,-9.32,-7.90,14.04,1.29,0.38,0.13,
4.397,-9.32,-7.90,14.04,1.52,0.39,0.07,
4.398,-9.32,-7.90,14.04,1.58,0.34,0.01,
4.398,-9.32,-7.90,14.04,1.58,0.18,-0.18,
4.399,-9.32,-7.90,14.04,1.51,-0.16,-0.37,
4.399,-0.01,-2.94,0.36,1.51,-0.16,-0.37,
4.4,-0.01,-2.94,0.36,1.39,-0.21,-0.53,
4.4,-0.01,-2.94,0.36,0.93,0.25,-0.74,
4.4,-0.01,-2.94,0.36,0.73,0.42,-0.78,
4.401,-0.01,-2.94,0.36,0.47,0.54,-0.77,
4.401,-0.01,-2.94,0.36,0.39,0.34,-0.64,
4.402,-4.74,-4.23,-8.78,0.39,0.34,-0.64,
4.402,-4.74,-4.23,-8.78,0.40,0.12,-0.49,
4.403,-4.74,-4.23,-8.78,0.53,0.01,-0.31,
4.403,-4.74,-4.23,-8.78,0.56,0.01,-0.28,
4.404,-4.74,-4.23,-8.78,0.63,-0.02,-0.25,
4.404,-4.74,-4.23,-8.78,0.66,0.02,-0.26,
4.405,-1.70,-9.03,0.17,0.66,0.02,-0.26,
4.405,-1.70,-9.03,0.17,0.70,-0.00,-0.30,
4.405,-1.70,-9.03,0.17,0.70,0.01,-0.31,
4.406,-1.70,-9.03,0.17,0.70,0.02,-0.33,
4.406,-1.70,-9.03,0.17,0.67,0.12,-0.38,
4.407,-1.70,-9.03,0.17,0.62,0.21,-0.45,
4.407,2.15,-8.21,-1.46,0.62,0.21,-0.45,
4.407,2.15,-8.21,-1.46,0.56,0.26,-0.50,
4.408,2.15,-8.21,-1.46,0.49,0.24,-0.56,
4.408,2.15,-8.21,-1.46,0.45,0.26,-0.58,
4.409,2.15,-8.21,-1.46,0.37,0.25,-0.62,
4.409,2.15,-8.21,-1.46,0.26,0.20,-0.67,
4.409,2.78,-5.66,-5.14,0.26,0.20,-0.67,
4.41,2.78,-5.66,-5.14,0.14,0.18,-0.75,
4.41,2.78,-5.66,-5.14,-0.00,0.14,-0.87,
4.411,2.78,-5.66,-5.14,-0.04,0.13,-0.92,
4.411,2.78,-5.66,-5.14,-0.11,0.06,-1.04,
4.412,2.78,-5.66,-5.14,-0.15,0.10,-1.19,
4.414,3.27,-1.73,-3.14,-0.15,0.10,-1.19,
4.415,3.27,-1.73,-3.14,-0.11,0.20,-1.33,
4.419,3.27,-1.73,-3.14,-0.04,0.38,-1.54,
4.419,3.27,-1.73,-3.14,-0.01,0.44,-1.62,
4.42,3.27,-1.73,-3.14,0.01,0.55,-1.80,
4.42,3.27,-1.73,-3.14,0.01,0.61,-1.97,
4.423,3.52,1.48,-1.06,0.01,0.61,-1.97,
4.423,3.52,1.48,-1.06,-0.03,0.68,-2.14,
4.425,3.52,1.48,-1.06,-0.13,0.74,-2.39,
4.426,3.52,1.48,-1.06,-0.18,0.77,-2.45,
4.43,3.52,1.48,-1.06,-0.25,0.81,-2.57,
4.431,3.52,1.48,-1.06,-0.31,0.78,-2.67,
4.434,2.14,0.60,-3.78,-0.31,0.78,-2.67,
4.436,2.14,0.60,-3.78,-0.37,0.77,-2.76,
4.437,2.14,0.60,-3.78,-0.44,0.84,-2.84,
4.443,2.14,0.60,-3.78,-0.47,0.85,-2.85,
4.443,2.14,0.60,-3.78,-0.51,0.87,-2.85,
4.443,2.14,0.60,-3.78,-0.55,0.90,-2.81,
4.444,-1.25,-2.99,-2.69,-0.55,0.90,-2.81,
4.444,-1.25,-2.99,-2.69,-0.57,0.89,-2.75,
4.447,-1.25,-2.99,-2.69,-0.62,0.92,-2.57,
4.448,-1.25,-2.99,-2.69,-0.64,0.90,-2.48,
4.452,-1.25,-2.99,-2.69,-0.68,0.86,-2.30,
4.453,-1.25,-2.99,-2.69,-0.73,0.81,-2.10,
4.453,-6.40,-8.01,-2.94,-0.73,0.81,-2.10,
4.453,-6.40,-8.01,-2.94,-0.79,0.79,-1.87,
4.455,-6.40,-8.01,-2.94,-0.91,0.72,-1.53,
4.457,-6.40,-8.01,-2.94,-0.95,0.69,-1.41,
4.458,-6.40,-8.01,-2.94,-1.03,0.67,-1.19,
4.46,-6.40,-8.01,-2.94,-1.10,0.71,-0.99,
4.463,-7.97,-10.52,-4.15,-1.10,0.71,-0.99,
4.463,-7.97,-10.52,-4.15,-1.14,0.76,-0.78,
4.468,-7.97,-10.52,-4.15,-1.13,0.74,-0.53,
4.471,-7.97,-10.52,-4.15,-1.11,0.72,-0.46,
4.473,-7.97,-10.52,-4.15,-1.05,0.76,-0.32,
4.473,-7.97,-10.52,-4.15,-0.98,0.84,-0.24,
4.474,-3.92,-9.36,0.32,-0.98,0.84,-0.24,
4.475,-3.92,-9.36,0.32,-0.89,0.76,-0.22,
4.476,-3.92,-9.36,0.32,-0.73,0.67,-0.16,
4.476,-3.92,-9.36,0.32,-0.69,0.69,-0.16,
4.479,-3.92,-9.36,0.32,-0.62,0.63,-0.20,
4.48,-3.92,-9.36,0.32,-0.55,0.54,-0.24,
4.496,4.70,-8.00,2.47,-0.55,0.54,-0.24,
4.498,4.70,-8.00,2.47,-0.48,0.59,-0.31,
4.499,4.70,-8.00,2.47,-0.41,0.75,-0.46,
4.5,4.70,-8.00,2.47,-0.38,0.74,-0.51,
4.501,4.70,-8.00,2.47,-0.30,0.61,-0.59,
4.502,4.70,-8.00,2.47,-0.23,0.51,-0.66,
4.503,8.47,-6.37,1.86,-0.23,0.51,-0.66,
4.504,8.47,-6.37,1.86,-0.20,0.55,-0.76,
4.505,8.47,-6.37,1.86,-0.14,0.46,-0.88,
4.505,8.47,-6.37,1.86,-0.13,0.46,-0.92,
4.506,8.47,-6.37,1.86,-0.11,0.52,-0.99,
4.507,8.47,-6.37,1.86,-0.11,0.58,-1.02,
4.52,5.84,-5.82,-0.59,-0.11,0.58,-1.02,
4.521,5.84,-5.82,-0.59,-0.13,0.52,-1.02,
4.521,5.84,-5.82,-0.59,-0.19,0.46,-1.01,
4.521,5.84,-5.82,-0.59,-0.21,0.49,-1.01,
4.522,5.84,-5.82,-0.59,-0.28,0.52,-1.00,
4.522,5.84,-5.82,-0.59,-0.33,0.48,-0.93,
4.522,0.35,-5.43,-3.29,-0.33,0.48,-0.93,
4.523,0.35,-5.43,-3.29,-0.37,0.37,-0.80,
4.523,0.35,-5.43,-3.29,-0.46,0.32,-0.45,
4.523,0.35,-5.43,-3.29,-0.51,0.35,-0.35,
4.523,0.35,-5.43,-3.29,-0.58,0.40,-0.19,
4.524,0.35,-5.43,-3.29,-0.63,0.42,-0.07,
4.551,-2.97,-4.55,-3.74,-0.63,0.42,-0.07,
4.551,-2.97,-4.55,-3.74,-0.70,0.44,0.02,
4.551,-2.97,-4.55,-3.74,-0.83,0.50,0.13,
4.552,-2.97,-4.55,-3.74,-0.87,0.50,0.15,
4.552,-2.97,-4.55,-3.74,-0.94,0.50,0.19,
4.553,-2.97,-4.55,-3.74,-1.02,0.53,0.21,
4.553,-4.17,-3.37,-4.16,-1.02,0.53,0.21,
4.553,-4.17,-3.37,-4.16,-1.11,0.52,0.21,
4.554,-4.17,-3.37,-4.16,-1.22,0.56,0.21,
4.554,-4.17,-3.37,-4.16,-1.25,0.57,0.21,
4.555,-4.17,-3.37,-4.16,-1.31,0.58,0.20,
4.555,-4.17,-3.37,-4.16,-1.35,0.54,0.27,
4.556,-2.60,-2.56,-3.09,-1.35,0.54,0.27,
4.556,-2.60,-2.56,-3.09,-1.37,0.51,0.38,
4.556,-2.60,-2.56,-3.09,-1.39,0.50,0.54,
4.557,-2.60,-2.56,-3.09,-1.39,0.50,0.59,
4.557,-2.60,-2.56,-3.09,-1.37,0.43,0.68,
4.558,-2.60,-2.56,-3.09,-1.33,0.32,0.76,
4.558,0.92,-2.08,0.23,-1.33,0.32,0.76,
4.558,0.92,-2.08,0.23,-1.26,0.25,0.79,
4.559,0.92,-2.08,0.23,-1.11,0.23,0.77,
4.559,0.92,-2.08,0.23,-1.04,0.20,0.75,
4.56,0.92,-2.08,0.23,-0.90,0.13,0.68,
4.564,0.92,-2.08,0.23,-0.76,0.07,0.58,
4.565,7.61,-0.98,5.62,-0.76,0.07,0.58,
4.565,7.61,-0.98,5.62,-0.62,-0.03,0.47,
4.565,7.61,-0.98,5.62,-0.41,-0.13,0.29,
4.568,7.61,-0.98,5.62,-0.35,-0.16,0.24,
4.569,7.61,-0.98,5.62,-0.22,-0.20,0.13,
4.572,7.61,-0.98,5.62,-0.09,-0.19,0.06,
4.573,7.88,-1.72,7.57,-0.09,-0.19,0.06,
4.574,7.88,-1.72,7.57,0.03,-0.17,-0.01,
4.576,7.88,-1.72,7.57,0.23,-0.29,-0.09,
4.576,7.88,-1.72,7.57,0.30,-0.32,-0.11,
4.578,7.88,-1.72,7.57,0.42,-0.39,-0.15,
4.582,7.88,-1.72,7.57,0.53,-0.44,-0.18,
4.583,3.43,-1.58,6.33,0.53,-0.44,-0.18,
4.583,3.43,-1.58,6.33,0.62,-0.50,-0.22,
4.586,3.43,-1.58,6.33,0.72,-0.56,-0.27,
4.586,3.43,-1.58,6.33,0.74,-0.58,-0.29,
4.588,3.43,-1.58,6.33,0.77,-0.62,-0.32,
4.59,3.43,-1.58,6.33,0.78,-0.63,-0.34,
4.593,1.51,-1.85,1.66,0.78,-0.63,-0.34,
4.593,1.51,-1.85,1.66,0.76,-0.61,-0.36,
4.595,1.51,-1.85,1.66,0.68,-0.50,-0.34,
4.596,1.51,-1.85,1.66,0.65,-0.41,-0.34,
4.599,1.51,-1.85,1.66,0.53,-0.28,-0.37,
4.6,1.51,-1.85,1.66,0.34,-0.27,-0.35,
4.603,-0.98,-2.27,-7.86,0.34,-0.27,-0.35,
4.603,-0.98,-2.27,-7.86,0.13,-0.22,-0.30,
4.608,-0.98,-2.27,-7.86,-0.24,0.01,-0.20,
4.608,-0.98,-2.27,-7.86,-0.38,0.06,-0.17,
4.608,-0.98,-2.27,-7.86,-0.66,0.11,-0.10,
4.61,-0.98,-2.27,-7.86,-0.91,0.11,-0.02,
4.613,-3.62,-3.03,-14.71,-0.91,0.11,-0.02,
4.614,-3.62,-3.03,-14.71,-1.11,0.13,0.05,
4.63,-3.62,-3.03,-14.71,-1.25,-0.07,0.15,
4.634,-3.62,-3.03,-14.71,-1.23,-0.16,0.19,
4.637,-3.62,-3.03,-14.71,-1.11,-0.23,0.26,
4.637,-3.62,-3.03,-14.71,-0.93,-0.12,0.30,
4.641,-2.48,-2.13,1.40,-0.93,-0.12,0.30,
4.641,-2.48,-2.13,1.40,-0.75,0.01,0.30,
4.641,-2.48,-2.13,1.40,-0.52,0.01,0.29,
4.642,-2.48,-2.13,1.40,-0.46,-0.03,0.28,
4.642,-2.48,-2.13,1.40,-0.35,-0.11,0.26,
4.643,-2.48,-2.13,1.40,-0.27,-0.15,0.25,
4.643,0.82,-1.72,4.70,-0.27,-0.15,0.25,
4.643,0.82,-1.72,4.70,-0.22,-0.15,0.23,
4.643,0.82,-1.72,4.70,-0.16,-0.12,0.22,
4.644,0.82,-1.72,4.70,-0.15,-0.11,0.22,
4.645,0.82,-1.72,4.70,-0.14,-0.10,0.21,
4.661,0.82,-1.72,4.70,-0.13,-0.11,0.20,
4.662,1.94,-2.65,0.73,-0.13,-0.11,0.20,
4.662,1.94,-2.65,0.73,-0.15,-0.04,0.19,
4.663,1.94,-2.65,0.73,-0.15,-0.04,0.19,
4.663,1.94,-2.65,0.73,-0.15,-0.04,0.19,
4.663,1.94,-2.65,0.73,-0.18,0.05,0.17,
4.663,1.94,-2.65,0.73,-0.16,-0.03,0.17,
4.664,2.81,-2.99,-1.22,-0.16,-0.03,0.17,
4.664,2.81,-2.99,-1.22,-0.15,-0.12,0.15,
4.664,2.81,-2.99,-1.22,-0.16,-0.08,0.11,
4.665,2.81,-2.99,-1.22,-0.17,-0.06,0.11,
4.665,2.81,-2.99,-1.22,-0.19,-0.05,0.10,
4.665,2.81,-2.99,-1.22,-0.21,-0.04,0.10,
4.665,2.07,-3.02,-1.99,-0.21,-0.04,0.10,
4.666,2.07,-3.02,-1.99,-0.23,-0.02,0.10,
4.666,2.07,-3.02,-1.99,-0.25,0.02,0.13,
4.674,2.07,-3.02,-1.99,-0.25,0.03,0.14,
4.675,2.07,-3.02,-1.99,-0.26,0.04,0.15,
4.676,2.07,-3.02,-1.99,-0.25,0.05,0.16,
4.677,0.70,-2.97,-0.88,-0.25,0.05,0.16,
4.677,0.70,-2.97,-0.88,-0.24,0.06,0.16,
4.678,0.70,-2.97,-0.88,-0.22,0.08,0.17,
4.678,0.70,-2.97,-0.88,-0.21,0.09,0.17,
4.68,0.70,-2.97,-0.88,-0.19,0.10,0.17,
4.685,0.70,-2.97,-0.88,-0.17,0.11,0.18,
4.686,0.93,-2.90,0.16,-0.17,0.11,0.18,
4.686,0.93,-2.90,0.16,-0.15,0.10,0.18,
4.686,0.93,-2.90,0.16,-0.12,0.10,0.18,
4.687,0.93,-2.90,0.16,-0.11,0.09,0.18,
4.715,0.93,-2.90,0.16,-0.08,0.07,0.18,
4.718,0.93,-2.90,0.16,-0.07,0.06,0.18,
4.72,1.34,-2.93,0.65,-0.07,0.06,0.18,
4.721,1.34,-2.93,0.65,-0.05,0.05,0.18,
4.721,1.34,-2.93,0.65,-0.02,0.03,0.17,
4.723,1.34,-2.93,0.65,-0.01,0.02,0.17,
4.723,1.34,-2.93,0.65,0.01,0.01,0.17,
4.724,1.34,-2.93,0.65,0.04,-0.01,0.16,
4.724,1.67,-3.15,1.09,0.04,-0.01,0.16,
4.725,1.67,-3.15,1.09,0.08,-0.02,0.16,
4.725,1.67,-3.15,1.09,0.13,-0.02,0.16,
4.726,1.67,-3.15,1.09,0.14,-0.01,0.16,
4.727,1.67,-3.15,1.09,0.18,-0.00,0.17,
4.728,1.67,-3.15,1.09,0.20,0.01,0.17,
4.729,1.31,-3.06,1.18,0.20,0.01,0.17,
4.729,1.31,-3.06,1.18,0.23,0.01,0.17,
4.733,1.31,-3.06,1.18,0.25,-0.00,0.17,
4.733,1.31,-3.06,1.18,0.25,-0.00,0.17,
4.734,1.31,-3.06,1.18,0.24,-0.00,0.17,
4.734,1.31,-3.06,1.18,0.22,0.00,0.18,
4.734,1.21,-3.38,-0.57,0.22,0.00,0.18,
4.735,1.21,-3.38,-0.57,0.20,-0.00,0.17,
4.735,1.21,-3.38,-0.57,0.16,0.00,0.18,
4.736,1.21,-3.38,-0.57,0.15,0.01,0.18,
4.736,1.21,-3.38,-0.57,0.11,0.02,0.18,
4.737,1.21,-3.38,-0.57,0.09,0.03,0.18,
4.737,1.18,-3.35,-1.90,0.09,0.03,0.18,
4.737,1.18,-3.35,-1.90,0.07,0.03,0.18,
4.738,1.18,-3.35,-1.90,0.05,0.02,0.19,
4.738,1.18,-3.35,-1.90,0.05,0.02,0.19,
4.739,1.18,-3.35,-1.90,0.03,0.02,0.19,
4.741,1.18,-3.35,-1.90,0.02,0.01,0.18,
4.743,1.55,-3.47,-1.69,0.02,0.01,0.18,
4.743,1.55,-3.47,-1.69,-0.00,0.01,0.18,
4.745,1.55,-3.47,-1.69,-0.03,0.01,0.18,
4.749,1.55,-3.47,-1.69,-0.04,0.02,0.18,
4.75,1.55,-3.47,-1.69,-0.06,0.02,0.18,
4.751,1.55,-3.47,-1.69,-0.08,0.02,0.18,
4.753,1.39,-3.30,-1.61,-0.08,0.02,0.18,
4.753,1.39,-3.30,-1.61,-0.10,0.01,0.18,
4.755,1.39,-3.30,-1.61,-0.10,-0.00,0.18,
4.756,1.39,-3.30,-1.61,-0.10,0.00,0.18,
4.758,1.39,-3.30,-1.61,-0.10,-0.00,0.18,
4.76,1.39,-3.30,-1.61,-0.10,-0.00,0.18,
4.762,1.46,-3.49,-0.98,-0.10,-0.00,0.18,
4.762,1.46,-3.49,-0.98,-0.11,-0.00,0.18,
4.768,1.46,-3.49,-0.98,-0.11,-0.03,0.18,
4.768,1.46,-3.49,-0.98,-0.11,-0.04,0.18,
4.769,1.46,-3.49,-0.98,-0.10,-0.04,0.18,
4.77,1.46,-3.49,-0.98,-0.09,-0.07,0.17,
4.778,1.83,-3.84,-0.60,-0.09,-0.07,0.17,
4.778,1.83,-3.84,-0.60,-0.07,-0.09,0.17,
4.779,1.83,-3.84,-0.60,-0.05,-0.09,0.17,
4.779,1.83,-3.84,-0.60,-0.06,-0.08,0.17,
4.779,1.83,-3.84,-0.60,-0.08,-0.06,0.17,
4.792,1.83,-3.84,-0.60,-0.10,-0.04,0.17,
4.794,2.09,-2.45,-1.08,-0.10,-0.04,0.17,
4.794,2.09,-2.45,-1.08,-0.12,-0.03,0.15,
4.795,2.09,-2.45,-1.08,-0.14,-0.04,0.14,
4.795,2.09,-2.45,-1.08,-0.15,-0.05,0.13,
4.795,2.09,-2.45,-1.08,-0.16,-0.08,0.11,
4.796,2.09,-2.45,-1.08,-0.15,-0.11,0.09,
4.796,3.92,-2.09,-0.68,-0.15,-0.11,0.09,
4.797,3.92,-2.09,-0.68,-0.15,-0.12,0.07,
4.798,3.92,-2.09,-0.68,-0.14,-0.10,0.06,
4.799,3.92,-2.09,-0.68,-0.13,-0.09,0.05,
4.802,3.92,-2.09,-0.68,-0.13,-0.09,0.03,
4.802,3.92,-2.09,-0.68,-0.13,-0.09,-0.01,
4.803,4.01,-1.92,-0.73,-0.13,-0.09,-0.01,
4.803,4.01,-1.92,-0.73,-0.12,-0.11,-0.06,
4.805,4.01,-1.92,-0.73,-0.10,-0.14,-0.08,
4.807,4.01,-1.92,-0.73,-0.10,-0.13,-0.06,
4.808,4.01,-1.92,-0.73,-0.11,-0.12,-0.04,
4.811,4.01,-1.92,-0.73,-0.13,-0.09,-0.01,
4.812,-0.53,-2.04,-0.95,-0.13,-0.09,-0.01,
4.813,-0.53,-2.04,-0.95,-0.16,-0.05,0.01,
4.815,-0.53,-2.04,-0.95,-0.18,0.02,0.02,
4.816,-0.53,-2.04,-0.95,-0.17,0.04,0.02,
4.819,-0.53,-2.04,-0.95,-0.15,0.03,0.00,
4.82,-0.53,-2.04,-0.95,-0.12,0.02,-0.01,
4.823,0.54,-1.81,0.38,-0.12,0.02,-0.01,
4.824,0.54,-1.81,0.38,-0.09,0.03,-0.01,
4.825,0.54,-1.81,0.38,-0.07,0.04,-0.00,
4.827,0.54,-1.81,0.38,-0.07,0.06,-0.00,
4.828,0.54,-1.81,0.38,-0.05,0.09,0.00,
4.831,0.54,-1.81,0.38,-0.03,0.10,0.02,
4.833,-0.18,-1.93,0.96,-0.03,0.10,0.02,
4.833,-0.18,-1.93,0.96,-0.02,0.12,0.04,
4.835,-0.18,-1.93,0.96,-0.01,0.16,0.06,
4.837,-0.18,-1.93,0.96,-0.01,0.17,0.06,
4.838,-0.18,-1.93,0.96,-0.01,0.18,0.06,
4.84,-0.18,-1.93,0.96,-0.02,0.17,0.06,
4.843,0.20,-2.01,-0.39,-0.02,0.17,0.06,
4.843,0.20,-2.01,-0.39,-0.02,0.17,0.07,
4.846,0.20,-2.01,-0.39,-0.04,0.17,0.06,
4.848,0.20,-2.01,-0.39,-0.05,0.17,0.06,
4.852,0.20,-2.01,-0.39,-0.06,0.15,0.05,
4.852,0.20,-2.01,-0.39,-0.07,0.14,0.05,
4.853,0.83,-1.80,-1.05,-0.07,0.14,0.05,
4.854,0.83,-1.80,-1.05,-0.07,0.14,0.04,
4.884,0.83,-1.80,-1.05,-0.09,0.12,0.03,
4.885,0.83,-1.80,-1.05,-0.09,0.11,0.03,
4.885,0.83,-1.80,-1.05,-0.09,0.09,0.02,
4.886,0.83,-1.80,-1.05,-0.09,0.08,0.02,
4.887,0.72,-1.69,-0.23,-0.09,0.08,0.02,
4.887,0.72,-1.69,-0.23,-0.08,0.08,0.02,
4.888,0.72,-1.69,-0.23,-0.06,0.05,0.02,
4.888,0.72,-1.69,-0.23,-0.05,0.04,0.02,
4.889,0.72,-1.69,-0.23,-0.04,0.05,0.03,
4.889,0.72,-1.69,-0.23,-0.02,0.07,0.03,
4.889,0.49,-2.24,0.62,-0.02,0.07,0.03,
4.89,0.49,-2.24,0.62,-0.00,0.07,0.02,
4.89,0.49,-2.24,0.62,0.01,0.08,0.03,
4.891,0.49,-2.24,0.62,0.01,0.09,0.03,
4.891,0.49,-2.24,0.62,0.00,0.13,0.03,
4.891,0.49,-2.24,0.62,-0.01,0.15,0.04,
4.892,-0.32,-1.53,-0.14,-0.01,0.15,0.04,
4.892,-0.32,-1.53,-0.14,-0.01,0.14,0.05,
4.893,-0.32,-1.53,-0.14,-0.03,0.11,0.05,
4.893,-0.32,-1.53,-0.14,-0.04,0.11,0.04,
4.893,-0.32,-1.53,-0.14,-0.07,0.12,0.03,
4.894,-0.32,-1.53,-0.14,-0.10,0.13,0.02,
4.894,0.26,-1.02,-1.12,-0.10,0.13,0.02,
4.895,0.26,-1.02,-1.12,-0.13,0.13,0.03,
4.895,0.26,-1.02,-1.12,-0.17,0.11,0.02,
4.897,0.26,-1.02,-1.12,-0.18,0.13,0.01,
4.901,0.26,-1.02,-1.12,-0.17,0.18,-0.01,
4.901,0.26,-1.02,-1.12,-0.14,0.18,0.00,
4.902,0.18,-1.23,0.29,-0.14,0.18,0.00,
4.903,0.18,-1.23,0.29,-0.10,0.13,0.03,
4.905,0.18,-1.23,0.29,-0.08,0.10,0.05,
4.906,0.18,-1.23,0.29,-0.08,0.11,0.05,
4.909,0.18,-1.23,0.29,-0.08,0.13,0.04,
4.911,0.18,-1.23,0.29,-0.08,0.11,0.03,
4.916,0.75,-2.03,0.18,-0.08,0.11,0.03,
4.916,0.75,-2.03,0.18,-0.06,0.08,0.02,
4.917,0.75,-2.03,0.18,-0.05,0.05,0.01,
4.917,0.75,-2.03,0.18,-0.05,0.04,0.01,
4.918,0.75,-2.03,0.18,-0.05,0.03,0.01,
4.92,0.75,-2.03,0.18,-0.04,0.03,0.01,
4.922,0.45,-1.22,0.43,-0.04,0.03,0.01,
4.923,0.45,-1.22,0.43,-0.04,0.03,0.01,
4.926,0.45,-1.22,0.43,-0.03,0.03,0.01,
4.927,0.45,-1.22,0.43,-0.02,0.03,0.00,
4.928,0.45,-1.22,0.43,-0.01,0.03,-0.00,
4.941,0.45,-1.22,0.43,0.00,0.03,-0.03,
4.942,1.24,-0.92,0.70,0.00,0.03,-0.03,
4.943,1.24,-0.92,0.70,0.03,0.05,-0.04,
4.943,1.24,-0.92,0.70,0.09,0.08,-0.03,
4.943,1.24,-0.92,0.70,0.11,0.08,-0.01,
