
time,ax,ay,az,wx,wy,wz,
0.002,-0.28,0.38,0.16,-0.20,-0.15,0.02,
0.003,-0.29,0.25,0.33,-0.20,-0.15,0.02,
0.003,-0.29,0.25,0.33,-0.20,-0.14,0.01,
0.003,-0.29,0.25,0.33,-0.21,-0.14,0.00,
0.004,-0.29,0.25,0.33,-0.22,-0.13,-0.00,
0.004,-0.29,0.25,0.33,-0.22,-0.13,-0.01,
0.004,-0.29,0.25,0.33,-0.23,-0.13,-0.01,
0.005,-0.11,0.06,0.25,-0.23,-0.13,-0.01,
0.005,-0.11,0.06,0.25,-0.24,-0.13,-0.02,
0.008,-0.11,0.06,0.25,-0.24,-0.13,-0.02,
0.008,-0.11,0.06,0.25,-0.25,-0.13,-0.02,
0.01,-0.11,0.06,0.25,-0.25,-0.13,-0.02,
0.013,-0.11,0.06,0.25,-0.26,-0.13,-0.02,
0.015,0.24,-0.14,0.16,-0.26,-0.13,-0.02,
0.015,0.24,-0.14,0.16,-0.26,-0.14,-0.02,
0.016,0.24,-0.14,0.16,-0.26,-0.14,-0.02,
0.022,0.24,-0.14,0.16,-0.26,-0.14,-0.03,
0.023,0.24,-0.14,0.16,-0.27,-0.15,-0.03,
0.023,0.24,-0.14,0.16,-0.26,-0.16,-0.03,
0.024,0.64,-0.31,0.22,-0.26,-0.16,-0.03,
0.025,0.64,-0.31,0.22,-0.26,-0.16,-0.03,
0.026,0.64,-0.31,0.22,-0.26,-0.17,-0.03,
0.029,0.64,-0.31,0.22,-0.25,-0.17,-0.03,
0.03,0.64,-0.31,0.22,-0.25,-0.17,-0.03,
0.032,0.64,-0.31,0.22,-0.24,-0.16,-0.03,
0.035,0.85,-0.31,0.41,-0.24,-0.16,-0.03,
0.036,0.85,-0.31,0.41,-0.23,-0.16,-0.03,
0.036,0.85,-0.31,0.41,-0.23,-0.15,-0.03,
0.039,0.85,-0.31,0.41,-0.22,-0.14,-0.03,
0.04,0.85,-0.31,0.41,-0.21,-0.14,-0.03,
0.044,0.85,-0.31,0.41,-0.20,-0.13,-0.03,
0.045,0.73,-0.18,0.54,-0.20,-0.13,-0.03,
0.045,0.73,-0.18,0.54,-0.19,-0.12,-0.03,
0.048,0.73,-0.18,0.54,-0.17,-0.10,-0.03,
0.049,0.73,-0.18,0.54,-0.16,-0.09,-0.04,
0.066,0.73,-0.18,0.54,-0.15,-0.08,-0.04,
0.068,0.73,-0.18,0.54,-0.14,-0.07,-0.04,
0.069,0.51,-0.01,0.58,-0.14,-0.07,-0.04,
0.07,0.51,-0.01,0.58,-0.13,-0.06,-0.05,
0.071,0.51,-0.01,0.58,-0.12,-0.05,-0.05,
0.071,0.51,-0.01,0.58,-0.10,-0.04,-0.05,
0.073,0.51,-0.01,0.58,-0.09,-0.04,-0.05,
0.074,0.51,-0.01,0.58,-0.08,-0.03,-0.05,
0.075,0.23,0.06,0.46,-0.08,-0.03,-0.05,
0.076,0.23,0.06,0.46,-0.05,-0.01,-0.06,
0.077,0.23,0.06,0.46,-0.05,-0.01,-0.06,
0.078,0.23,0.06,0.46,-0.05,-0.01,-0.06,
0.078,0.23,0.06,0.46,-0.04,-0.01,-0.05,
0.079,0.23,0.06,0.46,-0.04,-0.00,-0.05,
0.079,-0.00,0.06,0.23,-0.04,-0.00,-0.05,
0.08,-0.00,0.06,0.23,-0.03,0.00,-0.05,
0.08,-0.00,0.06,0.23,-0.03,0.01,-0.05,
0.081,-0.00,0.06,0.23,-0.03,0.02,-0.05,
0.081,-0.00,0.06,0.23,-0.02,0.02,-0.05,
0.084,-0.00,0.06,0.23,-0.02,0.02,-0.05,
0.087,-0.00,0.06,-0.02,-0.02,0.02,-0.05,
0.088,-0.00,0.06,-0.02,-0.02,0.03,-0.05,
0.088,-0.00,0.06,-0.02,-0.02,0.03,-0.05,
0.089,-0.00,0.06,-0.02,-0.02,0.03,-0.04,
0.09,-0.00,0.06,-0.02,-0.01,0.03,-0.05,
0.092,-0.00,0.06,-0.02,-0.01,0.04,-0.05,
0.095,0.16,0.05,-0.23,-0.01,0.04,-0.05,
0.095,0.16,0.05,-0.23,-0.01,0.04,-0.05,
0.096,0.16,0.05,-0.23,-0.02,0.04,-0.05,
0.098,0.16,0.05,-0.23,-0.02,0.04,-0.05,
0.101,0.16,0.05,-0.23,-0.03,0.05,-0.05,
0.102,0.16,0.05,-0.23,-0.03,0.05,-0.05,
0.107,0.27,0.02,-0.44,-0.03,0.05,-0.05,
0.107,0.27,0.02,-0.44,-0.04,0.06,-0.05,
0.107,0.27,0.02,-0.44,-0.04,0.06,-0.05,
0.108,0.27,0.02,-0.44,-0.05,0.07,-0.05,
0.11,0.27,0.02,-0.44,-0.06,0.08,-0.06,
0.112,0.27,0.02,-0.44,-0.06,0.08,-0.06,
0.114,0.34,0.03,-0.59,-0.06,0.08,-0.06,
0.115,0.34,0.03,-0.59,-0.07,0.08,-0.06,
0.118,0.34,0.03,-0.59,-0.08,0.08,-0.06,
0.119,0.34,0.03,-0.59,-0.08,0.08,-0.06,
0.12,0.34,0.03,-0.59,-0.09,0.08,-0.06,
0.122,0.34,0.03,-0.59,-0.09,0.08,-0.06,
0.125,0.28,0.07,-0.54,-0.09,0.08,-0.06,
0.125,0.28,0.07,-0.54,-0.09,0.07,-0.06,
0.126,0.28,0.07,-0.54,-0.10,0.07,-0.06,
0.128,0.28,0.07,-0.54,-0.10,0.06,-0.06,
0.13,0.28,0.07,-0.54,-0.10,0.06,-0.07,
0.132,0.28,0.07,-0.54,-0.10,0.05,-0.07,
0.135,0.22,0.10,-0.38,-0.10,0.05,-0.07,
0.135,0.22,0.10,-0.38,-0.10,0.04,-0.07,
0.136,0.22,0.10,-0.38,-0.10,0.04,-0.07,
0.138,0.22,0.10,-0.38,-0.10,0.04,-0.07,
0.14,0.22,0.10,-0.38,-0.10,0.03,-0.07,
0.142,0.22,0.10,-0.38,-0.10,0.03,-0.07,
0.145,0.14,0.12,-0.20,-0.10,0.03,-0.07,
0.145,0.14,0.12,-0.20,-0.09,0.02,-0.07,
0.146,0.14,0.12,-0.20,-0.09,0.02,-0.07,
0.148,0.14,0.12,-0.20,-0.09,0.01,-0.07,
0.151,0.14,0.12,-0.20,-0.09,0.01,-0.07,
0.153,0.14,0.12,-0.20,-0.09,0.01,-0.07,
0.155,0.08,0.07,-0.09,-0.09,0.01,-0.07,
0.155,0.08,0.07,-0.09,-0.09,0.01,-0.07,
0.156,0.08,0.07,-0.09,-0.09,0.01,-0.07,
0.158,0.08,0.07,-0.09,-0.08,0.01,-0.06,
0.16,0.08,0.07,-0.09,-0.08,0.00,-0.06,
0.163,0.08,0.07,-0.09,-0.08,0.01,-0.06,
0.166,0.08,-0.02,-0.09,-0.08,0.01,-0.06,
0.167,0.08,-0.02,-0.09,-0.08,0.01,-0.06,
0.168,0.08,-0.02,-0.09,-0.08,0.01,-0.06,
0.168,0.08,-0.02,-0.09,-0.08,0.01,-0.06,
0.173,0.08,-0.02,-0.09,-0.08,0.01,-0.05,
0.174,0.08,-0.02,-0.09,-0.08,0.01,-0.05,
0.175,0.07,-0.08,-0.04,-0.08,0.01,-0.05,
0.178,0.07,-0.08,-0.04,-0.08,0.00,-0.05,
0.179,0.07,-0.08,-0.04,-0.07,0.00,-0.05,
0.179,0.07,-0.08,-0.04,-0.07,0.00,-0.05,
0.18,0.07,-0.08,-0.04,-0.07,0.00,-0.04,
0.183,0.07,-0.08,-0.04,-0.07,0.00,-0.04,
0.189,0.07,-0.07,0.01,-0.07,0.00,-0.04,
0.19,0.07,-0.07,0.01,-0.07,0.00,-0.04,
0.19,0.07,-0.07,0.01,-0.06,0.00,-0.04,
0.19,0.07,-0.07,0.01,-0.06,0.00,-0.04,
0.191,0.07,-0.07,0.01,-0.06,0.00,-0.04,
0.192,0.07,-0.07,0.01,-0.05,0.00,-0.03,
0.195,0.07,-0.07,0.10,-0.05,0.00,-0.03,
0.231,0.07,-0.07,0.10,-0.05,0.00,-0.03,
0.232,0.07,-0.07,0.10,-0.05,0.00,-0.03,
0.232,0.07,-0.07,0.10,-0.04,0.00,-0.03,
0.233,0.07,-0.07,0.10,-0.04,0.00,-0.03,
0.233,0.07,-0.07,0.10,-0.03,-0.00,-0.03,
0.234,0.07,-0.04,0.16,-0.03,-0.00,-0.03,
0.234,0.07,-0.04,0.16,-0.03,-0.00,-0.03,
0.234,0.07,-0.04,0.16,-0.03,-0.00,-0.03,
0.235,0.07,-0.04,0.16,-0.03,-0.00,-0.03,
0.236,0.07,-0.04,0.16,-0.03,-0.01,-0.02,
0.237,0.07,-0.04,0.16,-0.03,-0.01,-0.02,
0.238,0.03,0.03,0.16,-0.03,-0.01,-0.02,
0.239,0.03,0.03,0.16,-0.03,-0.01,-0.02,
0.24,0.03,0.03,0.16,-0.03,-0.02,-0.02,
0.24,0.03,0.03,0.16,-0.03,-0.02,-0.02,
0.241,0.03,0.03,0.16,-0.02,-0.03,-0.02,
0.241,0.03,0.03,0.16,-0.02,-0.03,-0.02,
0.242,-0.00,0.07,0.12,-0.02,-0.03,-0.02,
0.243,-0.00,0.07,0.12,-0.02,-0.04,-0.02,
0.244,-0.00,0.07,0.12,-0.02,-0.05,-0.02,
0.244,-0.00,0.07,0.12,-0.02,-0.05,-0.02,
0.246,-0.00,0.07,0.12,-0.02,-0.06,-0.02,
0.247,-0.00,0.07,0.12,-0.02,-0.07,-0.02,
0.247,-0.03,0.07,0.08,-0.02,-0.07,-0.02,
0.248,-0.03,0.07,0.08,-0.03,-0.07,-0.02,
0.249,-0.03,0.07,0.08,-0.03,-0.07,-0.02,
0.249,-0.03,0.07,0.08,-0.03,-0.08,-0.02,
0.25,-0.03,0.07,0.08,-0.03,-0.08,-0.03,
0.25,-0.03,0.07,0.08,-0.03,-0.08,-0.03,
0.25,-0.00,0.05,-0.00,-0.03,-0.08,-0.03,
0.251,-0.00,0.05,-0.00,-0.03,-0.08,-0.03,
0.251,-0.00,0.05,-0.00,-0.04,-0.08,-0.03,
0.252,-0.00,0.05,-0.00,-0.04,-0.08,-0.03,
0.252,-0.00,0.05,-0.00,-0.04,-0.07,-0.03,
0.252,-0.00,0.05,-0.00,-0.05,-0.08,-0.03,
0.273,0.04,0.05,-0.07,-0.05,-0.08,-0.03,
0.274,0.04,0.05,-0.07,-0.05,-0.07,-0.04,
0.274,0.04,0.05,-0.07,-0.06,-0.07,-0.04,
0.274,0.04,0.05,-0.07,-0.06,-0.07,-0.04,
0.275,0.04,0.05,-0.07,-0.07,-0.07,-0.04,
0.275,0.04,0.05,-0.07,-0.07,-0.07,-0.04,
0.275,0.03,0.07,-0.07,-0.07,-0.07,-0.04,
0.275,0.03,0.07,-0.07,-0.07,-0.07,-0.04,
0.276,0.03,0.07,-0.07,-0.08,-0.06,-0.04,
0.276,0.03,0.07,-0.07,-0.08,-0.06,-0.05,
0.276,0.03,0.07,-0.07,-0.07,-0.06,-0.05,
0.277,0.03,0.07,-0.07,-0.07,-0.06,-0.05,
0.277,0.10,0.06,0.03,-0.07,-0.06,-0.05,
0.277,0.10,0.06,0.03,-0.07,-0.06,-0.06,
0.277,0.10,0.06,0.03,-0.07,-0.06,-0.06,
0.301,0.10,0.06,0.03,-0.07,-0.06,-0.06,
0.302,0.10,0.06,0.03,-0.07,-0.06,-0.06,
0.302,0.10,0.06,0.03,-0.07,-0.06,-0.06,
0.303,0.14,0.03,0.12,-0.07,-0.06,-0.06,
0.303,0.14,0.03,0.12,-0.07,-0.05,-0.07,
0.303,0.14,0.03,0.12,-0.06,-0.05,-0.07,
0.303,0.14,0.03,0.12,-0.06,-0.04,-0.07,
0.304,0.14,0.03,0.12,-0.06,-0.04,-0.07,
0.304,0.14,0.03,0.12,-0.06,-0.04,-0.07,
0.304,0.12,-0.03,0.15,-0.06,-0.04,-0.07,
0.305,0.12,-0.03,0.15,-0.05,-0.03,-0.06,
0.305,0.12,-0.03,0.15,-0.06,-0.03,-0.06,
0.305,0.12,-0.03,0.15,-0.05,-0.03,-0.06,
0.305,0.12,-0.03,0.15,-0.05,-0.03,-0.06,
0.306,0.12,-0.03,0.15,-0.04,-0.03,-0.06,
0.306,0.13,-0.02,0.18,-0.04,-0.03,-0.06,
0.306,0.13,-0.02,0.18,-0.04,-0.02,-0.06,
0.317,0.13,-0.02,0.18,-0.03,-0.02,-0.06,
0.317,0.13,-0.02,0.18,-0.03,-0.02,-0.06,
0.318,0.13,-0.02,0.18,-0.02,-0.02,-0.06,
0.318,0.13,-0.02,0.18,-0.01,-0.02,-0.05,
0.318,0.15,0.03,0.20,-0.01,-0.02,-0.05,
0.319,0.15,0.03,0.20,-0.01,-0.03,-0.05,
0.319,0.15,0.03,0.20,-0.00,-0.03,-0.05,
0.319,0.15,0.03,0.20,0.00,-0.03,-0.05,
0.324,0.15,0.03,0.20,0.01,-0.03,-0.05,
0.325,0.15,0.03,0.20,0.01,-0.03,-0.05,
0.325,0.13,0.04,0.14,0.01,-0.03,-0.05,
0.326,0.13,0.04,0.14,0.02,-0.03,-0.04,
0.326,0.13,0.04,0.14,0.03,-0.03,-0.04,
0.328,0.13,0.04,0.14,0.03,-0.04,-0.04,
0.33,0.13,0.04,0.14,0.03,-0.04,-0.03,
0.347,0.13,0.04,0.14,0.04,-0.04,-0.03,
0.347,0.13,0.04,0.05,0.04,-0.04,-0.03,
0.348,0.13,0.04,0.05,0.04,-0.04,-0.03,
0.348,0.13,0.04,0.05,0.04,-0.03,-0.03,
0.348,0.13,0.04,0.05,0.04,-0.03,-0.03,
0.349,0.13,0.04,0.05,0.04,-0.03,-0.03,
0.349,0.13,0.04,0.05,0.04,-0.03,-0.03,
0.35,0.15,0.04,-0.08,0.04,-0.03,-0.03,
0.351,0.15,0.04,-0.08,0.04,-0.03,-0.03,
0.351,0.15,0.04,-0.08,0.04,-0.02,-0.03,
0.351,0.15,0.04,-0.08,0.03,-0.02,-0.02,
0.352,0.15,0.04,-0.08,0.03,-0.02,-0.02,
0.352,0.15,0.04,-0.08,0.03,-0.02,-0.02,
0.379,0.16,0.05,-0.28,0.03,-0.02,-0.02,
0.382,0.16,0.05,-0.28,0.02,-0.02,-0.02,
0.384,0.16,0.05,-0.28,0.02,-0.02,-0.02,
0.387,0.16,0.05,-0.28,0.01,-0.02,-0.02,
0.388,0.16,0.05,-0.28,0.01,-0.02,-0.02,
0.419,0.16,0.05,-0.28,-0.00,-0.02,-0.02,
0.42,0.15,0.00,-0.41,-0.00,-0.02,-0.02,
0.421,0.15,0.00,-0.41,-0.01,-0.02,-0.02,
0.422,0.15,0.00,-0.41,-0.02,-0.02,-0.02,
0.423,0.15,0.00,-0.41,-0.02,-0.02,-0.02,
0.424,0.15,0.00,-0.41,-0.03,-0.02,-0.02,
0.425,0.15,0.00,-0.41,-0.04,-0.03,-0.03,
0.426,0.15,-0.01,-0.47,-0.04,-0.03,-0.03,
0.427,0.15,-0.01,-0.47,-0.05,-0.03,-0.03,
0.427,0.15,-0.01,-0.47,-0.06,-0.03,-0.03,
0.428,0.15,-0.01,-0.47,-0.07,-0.03,-0.03,
0.429,0.15,-0.01,-0.47,-0.07,-0.03,-0.04,
0.43,0.15,-0.01,-0.47,-0.08,-0.03,-0.04,
0.43,0.17,-0.00,-0.42,-0.08,-0.03,-0.04,
0.431,0.17,-0.00,-0.42,-0.09,-0.03,-0.04,
0.435,0.17,-0.00,-0.42,-0.09,-0.03,-0.04,
0.435,0.17,-0.00,-0.42,-0.10,-0.04,-0.05,
0.435,0.17,-0.00,-0.42,-0.10,-0.04,-0.05,
0.436,0.17,-0.00,-0.42,-0.10,-0.04,-0.05,
0.436,0.14,0.00,-0.25,-0.10,-0.04,-0.05,
0.437,0.14,0.00,-0.25,-0.10,-0.04,-0.05,
0.437,0.14,0.00,-0.25,-0.10,-0.04,-0.05,
0.438,0.14,0.00,-0.25,-0.10,-0.04,-0.05,
0.438,0.14,0.00,-0.25,-0.10,-0.04,-0.05,
0.438,0.14,0.00,-0.25,-0.09,-0.04,-0.05,
0.439,0.04,-0.04,-0.05,-0.09,-0.04,-0.05,
0.439,0.04,-0.04,-0.05,-0.09,-0.04,-0.05,
0.44,0.04,-0.04,-0.05,-0.09,-0.04,-0.05,
0.44,0.04,-0.04,-0.05,-0.08,-0.04,-0.05,
0.441,0.04,-0.04,-0.05,-0.08,-0.04,-0.05,
0.441,0.04,-0.04,-0.05,-0.07,-0.04,-0.05,
0.441,0.08,-0.01,0.11,-0.07,-0.04,-0.05,
0.442,0.08,-0.01,0.11,-0.06,-0.04,-0.04,
0.442,0.08,-0.01,0.11,-0.06,-0.04,-0.04,
0.443,0.08,-0.01,0.11,-0.05,-0.04,-0.04,
0.443,0.08,-0.01,0.11,-0.05,-0.04,-0.04,
0.444,0.08,-0.01,0.11,-0.04,-0.04,-0.04,
0.444,0.08,-0.00,0.11,-0.04,-0.04,-0.04,
0.444,0.08,-0.00,0.11,-0.04,-0.03,-0.04,
0.445,0.08,-0.00,0.11,-0.03,-0.03,-0.03,
0.445,0.08,-0.00,0.11,-0.03,-0.03,-0.03,
0.446,0.08,-0.00,0.11,-0.03,-0.03,-0.03,
0.446,0.08,-0.00,0.11,-0.03,-0.03,-0.02,
0.447,0.08,-0.00,0.03,-0.03,-0.03,-0.02,
0.447,0.08,-0.00,0.03,-0.02,-0.03,-0.02,
0.448,0.08,-0.00,0.03,-0.03,-0.03,-0.02,
0.448,0.08,-0.00,0.03,-0.02,-0.03,-0.02,
0.448,0.08,-0.00,0.03,-0.02,-0.04,-0.02,
0.449,0.08,-0.00,0.03,-0.02,-0.04,-0.02,
0.449,0.05,0.01,-0.02,-0.02,-0.04,-0.02,
0.449,0.05,0.01,-0.02,-0.02,-0.04,-0.01,
0.45,0.05,0.01,-0.02,-0.02,-0.04,-0.01,
0.45,0.05,0.01,-0.02,-0.02,-0.05,-0.01,
0.45,0.05,0.01,-0.02,-0.02,-0.05,-0.01,
0.455,0.05,0.01,-0.02,-0.02,-0.05,-0.01,
0.456,0.07,0.04,-0.02,-0.02,-0.05,-0.01,
0.457,0.07,0.04,-0.02,-0.02,-0.05,-0.02,
0.457,0.07,0.04,-0.02,-0.02,-0.06,-0.02,
0.46,0.07,0.04,-0.02,-0.02,-0.06,-0.02,
0.461,0.07,0.04,-0.02,-0.02,-0.06,-0.02,
0.464,0.07,0.04,-0.02,-0.02,-0.06,-0.02,
0.472,0.13,0.01,-0.00,-0.02,-0.06,-0.02,
0.474,0.13,0.01,-0.00,-0.02,-0.07,-0.02,
0.474,0.13,0.01,-0.00,-0.02,-0.07,-0.02,
0.475,0.13,0.01,-0.00,-0.02,-0.07,-0.02,
0.476,0.13,0.01,-0.00,-0.02,-0.07,-0.03,
0.476,0.13,0.01,-0.00,-0.02,-0.07,-0.03,
0.477,0.14,-0.00,-0.01,-0.02,-0.07,-0.03,
0.477,0.14,-0.00,-0.01,-0.02,-0.07,-0.03,
0.478,0.14,-0.00,-0.01,-0.03,-0.07,-0.03,
0.479,0.14,-0.00,-0.01,-0.03,-0.07,-0.03,
0.482,0.14,-0.00,-0.01,-0.03,-0.07,-0.03,
0.483,0.14,-0.00,-0.01,-0.03,-0.07,-0.03,
0.49,0.15,-0.01,0.01,-0.03,-0.07,-0.03,
0.491,0.15,-0.01,0.01,-0.03,-0.07,-0.03,
0.491,0.15,-0.01,0.01,-0.03,-0.07,-0.03,
0.491,0.15,-0.01,0.01,-0.03,-0.06,-0.03,
0.492,0.15,-0.01,0.01,-0.04,-0.05,-0.03,
0.494,0.15,-0.01,0.01,-0.04,-0.05,-0.03,
0.497,0.11,0.01,0.01,-0.04,-0.05,-0.03,
0.497,0.11,0.01,0.01,-0.04,-0.05,-0.03,
0.513,0.11,0.01,0.01,-0.04,-0.04,-0.03,
0.514,0.11,0.01,0.01,-0.04,-0.04,-0.03,
0.514,0.11,0.01,0.01,-0.04,-0.04,-0.03,
0.514,0.11,0.01,0.01,-0.04,-0.04,-0.03,
0.514,0.11,0.05,-0.01,-0.04,-0.04,-0.03,
0.515,0.11,0.05,-0.01,-0.04,-0.04,-0.04,
0.515,0.11,0.05,-0.01,-0.04,-0.04,-0.04,
0.515,0.11,0.05,-0.01,-0.04,-0.04,-0.04,
0.515,0.11,0.05,-0.01,-0.04,-0.05,-0.04,
0.515,0.11,0.05,-0.01,-0.04,-0.05,-0.04,
0.516,0.08,0.08,-0.03,-0.04,-0.05,-0.04,
0.516,0.08,0.08,-0.03,-0.04,-0.05,-0.04,
0.516,0.08,0.08,-0.03,-0.04,-0.05,-0.04,
0.518,0.08,0.08,-0.03,-0.04,-0.05,-0.03,
0.52,0.08,0.08,-0.03,-0.04,-0.05,-0.04,
0.522,0.08,0.08,-0.03,-0.04,-0.05,-0.03,
0.525,0.05,0.11,-0.00,-0.04,-0.05,-0.03,
0.525,0.05,0.11,-0.00,-0.03,-0.05,-0.03,
0.526,0.05,0.11,-0.00,-0.03,-0.05,-0.03,
0.558,0.05,0.11,-0.00,-0.03,-0.04,-0.03,
0.558,0.05,0.11,-0.00,-0.03,-0.04,-0.03,
0.559,0.05,0.11,-0.00,-0.02,-0.04,-0.03,
0.559,0.04,0.14,0.08,-0.02,-0.04,-0.03,
0.559,0.04,0.14,0.08,-0.02,-0.03,-0.03,
0.559,0.04,0.14,0.08,-0.01,-0.03,-0.03,
0.56,0.04,0.14,0.08,-0.01,-0.03,-0.03,
0.56,0.04,0.14,0.08,-0.01,-0.02,-0.03,
0.56,0.04,0.14,0.08,-0.01,-0.02,-0.03,
0.56,0.03,0.10,0.09,-0.01,-0.02,-0.03,
0.561,0.03,0.10,0.09,-0.01,-0.02,-0.03,
0.561,0.03,0.10,0.09,-0.01,-0.01,-0.03,
0.561,0.03,0.10,0.09,-0.01,-0.01,-0.02,
0.561,0.03,0.10,0.09,-0.00,-0.01,-0.03,
0.562,0.03,0.10,0.09,-0.00,-0.00,-0.03,
0.562,0.09,0.09,0.02,-0.00,-0.00,-0.03,
0.562,0.09,0.09,0.02,-0.00,0.00,-0.03,
0.567,0.09,0.09,0.02,-0.00,0.01,-0.03,
0.567,0.09,0.09,0.02,-0.00,0.01,-0.02,
0.567,0.09,0.09,0.02,-0.01,0.01,-0.03,
0.568,0.09,0.09,0.02,-0.01,0.01,-0.03,
0.568,0.13,0.11,0.01,-0.01,0.01,-0.03,
0.568,0.13,0.11,0.01,-0.01,0.01,-0.03,
0.568,0.13,0.11,0.01,-0.01,0.02,-0.02,
0.568,0.13,0.11,0.01,-0.01,0.02,-0.02,
0.571,0.13,0.11,0.01,-0.01,0.02,-0.02,
0.572,0.13,0.11,0.01,-0.01,0.02,-0.02,
0.574,0.13,0.11,0.01,-0.01,0.02,-0.02,
0.575,0.13,0.11,0.01,-0.01,0.02,-0.02,
0.576,0.13,0.11,0.01,-0.01,0.01,-0.02,
0.578,0.13,0.11,0.01,-0.01,0.01,-0.02,
0.58,0.13,0.11,0.01,-0.02,0.01,-0.01,
0.582,0.13,0.11,0.01,-0.02,0.01,-0.01,
0.586,0.08,0.09,0.01,-0.02,0.01,-0.01,
0.586,0.08,0.09,0.01,-0.01,0.01,-0.02,
0.587,0.08,0.09,0.01,-0.02,0.01,-0.02,
0.588,0.08,0.09,0.01,-0.02,0.01,-0.01,
0.59,0.08,0.09,0.01,-0.02,0.01,-0.01,
0.592,0.08,0.09,0.01,-0.01,0.00,-0.01,
0.594,0.07,0.12,0.02,-0.01,0.00,-0.01,
0.595,0.07,0.12,0.02,-0.02,0.00,-0.01,
0.596,0.07,0.12,0.02,-0.01,-0.00,-0.01,
0.607,0.07,0.12,0.02,-0.01,-0.00,-0.01,
0.609,0.07,0.12,0.02,-0.01,-0.00,-0.01,
0.61,0.07,0.12,0.02,-0.01,-0.00,-0.00,
0.611,-0.00,0.11,0.09,-0.01,-0.00,-0.00,
0.611,-0.00,0.11,0.09,-0.01,-0.00,-0.00,
0.612,-0.00,0.11,0.09,-0.01,-0.00,0.00,
0.613,-0.00,0.11,0.09,-0.01,-0.00,0.00,
0.613,-0.00,0.11,0.09,-0.01,-0.00,0.00,
0.614,-0.00,0.11,0.09,-0.00,-0.01,0.00,
0.636,-0.01,0.10,0.09,-0.00,-0.01,0.00,
0.638,-0.01,0.10,0.09,-0.00,-0.00,0.00,
0.638,-0.01,0.10,0.09,-0.00,-0.00,0.01,
0.639,-0.01,0.10,0.09,0.00,-0.01,0.00,
0.639,-0.01,0.10,0.09,0.00,-0.01,0.00,
0.64,-0.01,0.10,0.09,0.01,-0.01,0.01,
0.641,-0.00,0.07,0.02,0.01,-0.01,0.01,
0.641,-0.00,0.07,0.02,0.01,-0.01,0.00,
0.641,-0.00,0.07,0.02,0.01,-0.01,0.00,
0.642,-0.00,0.07,0.02,0.01,-0.01,0.00,
0.642,-0.00,0.07,0.02,0.01,-0.01,0.00,
0.643,-0.00,0.07,0.02,0.01,-0.01,0.00,
0.643,0.00,0.04,-0.07,0.01,-0.01,0.00,
0.643,0.00,0.04,-0.07,0.01,-0.01,0.01,
0.644,0.00,0.04,-0.07,0.01,-0.01,0.01,
0.645,0.00,0.04,-0.07,0.01,-0.01,0.01,
0.646,0.00,0.04,-0.07,0.01,-0.01,0.01,
0.647,0.00,0.04,-0.07,0.01,-0.01,0.00,
0.647,-0.03,0.03,-0.15,0.01,-0.01,0.00,
0.647,-0.03,0.03,-0.15,0.00,-0.01,0.01,
0.649,-0.03,0.03,-0.15,-0.00,-0.01,0.01,
0.65,-0.03,0.03,-0.15,-0.00,-0.01,0.01,
0.653,-0.03,0.03,-0.15,-0.00,-0.02,0.00,
0.657,-0.03,0.03,-0.15,0.00,-0.01,0.01,
0.657,-0.01,0.06,-0.09,0.00,-0.01,0.01,
0.658,-0.01,0.06,-0.09,-0.00,-0.01,0.00,
0.658,-0.01,0.06,-0.09,-0.00,-0.01,0.00,
0.659,-0.01,0.06,-0.09,0.00,-0.01,0.00,
0.661,-0.01,0.06,-0.09,0.00,-0.01,-0.00,
0.663,-0.01,0.06,-0.09,0.01,-0.01,-0.00,
0.667,0.05,0.02,-0.01,0.01,-0.01,-0.00,
0.671,0.05,0.02,-0.01,0.01,-0.01,-0.00,
0.671,0.05,0.02,-0.01,0.01,-0.00,-0.00,
0.672,0.05,0.02,-0.01,0.01,-0.00,-0.01,
0.672,0.05,0.02,-0.01,0.01,-0.00,-0.01,
0.673,0.05,0.02,-0.01,0.01,-0.00,-0.01,
0.675,0.12,-0.04,0.03,0.01,-0.00,-0.01,
0.676,0.12,-0.04,0.03,0.02,0.00,-0.01,
0.677,0.12,-0.04,0.03,0.02,0.01,-0.01,
0.679,0.12,-0.04,0.03,0.02,0.01,-0.01,
0.683,0.12,-0.04,0.03,0.02,0.01,-0.01,
0.683,0.12,-0.04,0.03,0.02,0.01,-0.01,
0.685,0.15,-0.05,0.01,0.02,0.01,-0.01,
0.686,0.15,-0.05,0.01,0.02,0.01,-0.01,
0.687,0.15,-0.05,0.01,0.02,0.01,-0.01,
0.688,0.15,-0.05,0.01,0.02,0.01,-0.01,
0.691,0.15,-0.05,0.01,0.02,0.01,-0.01,
0.692,0.15,-0.05,0.01,0.02,0.01,-0.01,
0.695,0.12,-0.02,0.01,0.02,0.01,-0.01,
0.725,0.12,-0.02,0.01,0.01,0.01,-0.01,
0.726,0.12,-0.02,0.01,0.01,0.01,-0.01,
0.726,0.12,-0.02,0.01,0.02,0.00,-0.01,
0.727,0.12,-0.02,0.01,0.02,0.00,-0.01,
0.727,0.12,-0.02,0.01,0.02,-0.00,-0.02,
0.728,0.09,0.02,-0.03,0.02,-0.00,-0.02,
0.728,0.09,0.02,-0.03,0.02,-0.00,-0.01,
0.729,0.09,0.02,-0.03,0.02,-0.01,-0.01,
0.729,0.09,0.02,-0.03,0.02,-0.01,-0.01,
0.73,0.09,0.02,-0.03,0.02,-0.01,-0.02,
0.73,0.09,0.02,-0.03,0.02,-0.01,-0.01,
0.731,0.07,0.02,-0.11,0.02,-0.01,-0.01,
0.731,0.07,0.02,-0.11,0.01,-0.02,-0.01,
0.732,0.07,0.02,-0.11,0.01,-0.02,-0.01,
0.732,0.07,0.02,-0.11,0.01,-0.02,-0.01,
0.733,0.07,0.02,-0.11,0.01,-0.02,-0.01,
0.733,0.07,0.02,-0.11,0.01,-0.03,-0.01,
0.734,0.07,0.04,-0.13,0.01,-0.03,-0.01,
0.734,0.07,0.04,-0.13,0.01,-0.03,-0.01,
0.735,0.07,0.04,-0.13,0.01,-0.03,-0.01,
0.735,0.07,0.04,-0.13,0.01,-0.04,-0.01,
0.736,0.07,0.04,-0.13,0.01,-0.04,-0.00,
0.737,0.07,0.04,-0.13,0.01,-0.04,-0.01,
0.737,0.08,0.03,-0.17,0.01,-0.04,-0.01,
0.737,0.08,0.03,-0.17,0.01,-0.04,-0.01,
0.738,0.08,0.03,-0.17,0.01,-0.05,-0.00,
0.738,0.08,0.03,-0.17,0.01,-0.05,-0.00,
0.741,0.08,0.03,-0.17,0.01,-0.05,-0.00,
0.742,0.08,0.03,-0.17,0.01,-0.05,-0.00,
0.745,0.08,-0.01,-0.23,0.01,-0.05,-0.00,
0.745,0.08,-0.01,-0.23,0.00,-0.05,0.00,
0.748,0.08,-0.01,-0.23,-0.00,-0.05,0.00,
0.749,0.08,-0.01,-0.23,-0.00,-0.05,0.00,
0.75,0.08,-0.01,-0.23,-0.00,-0.05,0.00,
0.752,0.08,-0.01,-0.23,-0.01,-0.04,0.01,
0.755,0.12,-0.01,-0.31,-0.01,-0.04,0.01,
0.755,0.12,-0.01,-0.31,-0.01,-0.04,0.00,
0.756,0.12,-0.01,-0.31,-0.02,-0.04,0.00,
0.758,0.12,-0.01,-0.31,-0.02,-0.03,0.01,
0.76,0.12,-0.01,-0.31,-0.02,-0.03,0.00,
0.762,0.12,-0.01,-0.31,-0.03,-0.02,0.00,
0.771,0.13,-0.02,-0.29,-0.03,-0.02,0.00,
0.771,0.13,-0.02,-0.29,-0.03,-0.02,0.00,
0.772,0.13,-0.02,-0.29,-0.04,-0.02,0.00,
0.772,0.13,-0.02,-0.29,-0.04,-0.01,0.00,
0.773,0.13,-0.02,-0.29,-0.04,-0.01,0.00,
0.773,0.13,-0.02,-0.29,-0.04,-0.01,-0.00,
0.775,0.15,-0.01,-0.14,-0.04,-0.01,-0.00,
0.775,0.15,-0.01,-0.14,-0.04,-0.00,-0.00,
0.795,0.15,-0.01,-0.14,-0.04,-0.00,-0.00,
0.796,0.15,-0.01,-0.14,-0.04,0.01,-0.00,
0.797,0.15,-0.01,-0.14,-0.04,0.01,-0.00,
0.798,0.15,-0.01,-0.14,-0.04,0.02,-0.01,
0.798,0.17,-0.00,0.02,-0.04,0.02,-0.01,
0.799,0.17,-0.00,0.02,-0.04,0.02,-0.01,
0.799,0.17,-0.00,0.02,-0.04,0.03,-0.01,
0.799,0.17,-0.00,0.02,-0.04,0.03,-0.00,
0.8,0.17,-0.00,0.02,-0.03,0.04,-0.00,
0.801,0.17,-0.00,0.02,-0.03,0.04,-0.00,
0.801,0.18,-0.04,0.04,-0.03,0.04,-0.00,
0.802,0.18,-0.04,0.04,-0.03,0.04,-0.00,
0.802,0.18,-0.04,0.04,-0.02,0.04,-0.00,
0.802,0.18,-0.04,0.04,-0.02,0.05,-0.00,
0.803,0.18,-0.04,0.04,-0.02,0.05,-0.00,
0.809,0.18,-0.04,0.04,-0.01,0.05,-0.00,
0.81,0.16,-0.04,-0.02,-0.01,0.05,-0.00,
0.811,0.16,-0.04,-0.02,-0.01,0.04,-0.00,
0.811,0.16,-0.04,-0.02,-0.01,0.04,-0.00,
0.813,0.16,-0.04,-0.02,-0.01,0.04,-0.00,
0.813,0.16,-0.04,-0.02,-0.01,0.04,0.00,
0.817,0.16,-0.04,-0.02,-0.01,0.04,0.00,
0.817,0.18,0.02,-0.10,-0.01,0.04,0.00,
0.818,0.18,0.02,-0.10,-0.00,0.03,0.00,
0.818,0.18,0.02,-0.10,-0.00,0.03,0.00,
0.819,0.18,0.02,-0.10,-0.00,0.02,0.00,
0.822,0.18,0.02,-0.10,0.00,0.02,0.01,
0.824,0.18,0.02,-0.10,0.00,0.01,0.01,
0.825,0.16,0.04,-0.16,0.00,0.01,0.01,
0.826,0.16,0.04,-0.16,0.00,0.01,0.01,
0.827,0.16,0.04,-0.16,0.00,0.00,0.01,
0.828,0.16,0.04,-0.16,0.00,-0.00,0.01,
0.831,0.16,0.04,-0.16,0.01,-0.00,0.01,
0.833,0.16,0.04,-0.16,0.00,-0.01,0.01,
0.834,0.12,0.05,-0.17,0.00,-0.01,0.01,
0.836,0.12,0.05,-0.17,0.01,-0.01,0.01,
0.836,0.12,0.05,-0.17,0.01,-0.01,0.01,
0.838,0.12,0.05,-0.17,0.01,-0.01,0.01,
0.84,0.12,0.05,-0.17,0.01,-0.01,0.01,
0.842,0.12,0.05,-0.17,0.01,-0.01,0.01,
0.844,0.08,0.03,-0.11,0.01,-0.01,0.01,
0.845,0.08,0.03,-0.11,0.01,-0.01,0.01,
0.847,0.08,0.03,-0.11,0.01,-0.00,0.01,
0.849,0.08,0.03,-0.11,0.01,0.00,0.01,
0.85,0.08,0.03,-0.11,0.01,0.01,0.01,
0.853,0.08,0.03,-0.11,0.00,0.01,0.01,
0.855,0.08,0.01,-0.14,0.00,0.01,0.01,
0.855,0.08,0.01,-0.14,0.00,0.01,0.01,
0.856,0.08,0.01,-0.14,-0.00,0.02,0.01,
0.858,0.08,0.01,-0.14,-0.01,0.02,0.01,
0.86,0.08,0.01,-0.14,-0.01,0.03,0.01,
0.889,0.08,0.01,-0.14,-0.02,0.03,0.01,
0.89,0.07,0.00,-0.21,-0.02,0.03,0.01,
0.89,0.07,0.00,-0.21,-0.02,0.03,0.01,
0.891,0.07,0.00,-0.21,-0.03,0.03,0.01,
0.891,0.07,0.00,-0.21,-0.04,0.03,0.01,
0.892,0.07,0.00,-0.21,-0.04,0.04,0.01,
0.892,0.07,0.00,-0.21,-0.05,0.04,0.01,
0.892,0.09,0.03,-0.25,-0.05,0.04,0.01,
0.893,0.09,0.03,-0.25,-0.05,0.03,0.01,
0.893,0.09,0.03,-0.25,-0.06,0.03,0.01,
0.894,0.09,0.03,-0.25,-0.07,0.03,0.00,
0.894,0.09,0.03,-0.25,-0.07,0.02,0.01,
0.894,0.09,0.03,-0.25,-0.07,0.02,0.00,
0.895,0.05,0.06,-0.15,-0.07,0.02,0.00,
0.895,0.05,0.06,-0.15,-0.08,0.01,0.00,
0.896,0.05,0.06,-0.15,-0.08,0.01,0.00,
0.896,0.05,0.06,-0.15,-0.08,0.01,0.00,
0.897,0.05,0.06,-0.15,-0.08,0.00,0.00,
0.897,0.05,0.06,-0.15,-0.08,-0.00,0.00,
0.898,0.05,0.10,0.01,-0.08,-0.00,0.00,
0.898,0.05,0.10,0.01,-0.08,-0.01,0.00,
0.899,0.05,0.10,0.01,-0.08,-0.01,0.00,
0.899,0.05,0.10,0.01,-0.08,-0.01,0.00,
0.901,0.05,0.10,0.01,-0.07,-0.02,0.00,
0.902,0.05,0.10,0.01,-0.07,-0.02,0.01,
0.904,0.08,0.11,0.11,-0.07,-0.02,0.01,
0.905,0.08,0.11,0.11,-0.06,-0.03,0.01,
0.906,0.08,0.11,0.11,-0.06,-0.04,0.01,
0.908,0.08,0.11,0.11,-0.06,-0.04,0.01,
0.91,0.08,0.11,0.11,-0.05,-0.05,0.01,
0.913,0.08,0.11,0.11,-0.04,-0.06,0.01,
0.915,0.12,0.10,0.15,-0.04,-0.06,0.01,
0.915,0.12,0.10,0.15,-0.04,-0.06,0.01,
0.916,0.12,0.10,0.15,-0.04,-0.07,0.01,
0.919,0.12,0.10,0.15,-0.03,-0.07,0.01,
0.92,0.12,0.10,0.15,-0.03,-0.07,0.01,
0.924,0.12,0.10,0.15,-0.02,-0.07,0.02,
0.924,0.12,0.11,0.23,-0.02,-0.07,0.02,
0.924,0.12,0.11,0.23,-0.02,-0.07,0.02,
0.926,0.12,0.11,0.23,-0.01,-0.08,0.01,
0.928,0.12,0.11,0.23,-0.01,-0.08,0.01,
0.938,0.12,0.11,0.23,-0.01,-0.07,0.01,
0.938,0.12,0.11,0.23,-0.00,-0.07,0.01,
0.939,0.15,0.14,0.30,-0.00,-0.07,0.01,
0.939,0.15,0.14,0.30,0.00,-0.06,0.01,
0.94,0.15,0.14,0.30,0.01,-0.06,0.01,
0.94,0.15,0.14,0.30,0.01,-0.05,0.01,
0.941,0.15,0.14,0.30,0.02,-0.05,0.01,
0.943,0.15,0.14,0.30,0.02,-0.04,0.00,
0.96,0.14,0.13,0.28,0.02,-0.04,0.00,
0.962,0.14,0.13,0.28,0.03,-0.03,0.00,
0.964,0.14,0.13,0.28,0.03,-0.03,0.00,
0.965,0.14,0.13,0.28,0.03,-0.02,0.00,
0.966,0.14,0.13,0.28,0.03,-0.01,0.00,
0.967,0.14,0.13,0.28,0.04,-0.01,0.00,
0.968,0.16,0.06,0.13,0.04,-0.01,0.00,
0.968,0.16,0.06,0.13,0.03,-0.01,0.00,
0.969,0.16,0.06,0.13,0.03,-0.00,-0.00,
0.97,0.16,0.06,0.13,0.03,0.01,-0.00,
0.971,0.16,0.06,0.13,0.03,0.01,-0.00,
0.971,0.16,0.06,0.13,0.03,0.01,-0.00,
0.971,0.21,0.03,-0.03,0.03,0.01,-0.00,
0.972,0.21,0.03,-0.03,0.02,0.01,-0.00,
0.973,0.21,0.03,-0.03,0.02,0.02,-0.00,
0.973,0.21,0.03,-0.03,0.02,0.02,-0.00,
0.973,0.21,0.03,-0.03,0.01,0.02,-0.01,
0.974,0.21,0.03,-0.03,0.01,0.02,-0.01,
0.974,0.28,0.10,-0.08,0.01,0.02,-0.01,
0.975,0.28,0.10,-0.08,0.01,0.02,-0.01,
0.976,0.28,0.10,-0.08,0.00,0.02,-0.01,
0.98,0.28,0.10,-0.08,-0.00,0.02,-0.01,
0.981,0.28,0.10,-0.08,-0.00,0.02,-0.01,
0.982,0.28,0.10,-0.08,-0.01,0.02,-0.01,
0.985,0.24,0.11,-0.05,-0.01,0.02,-0.01,
0.985,0.24,0.11,-0.05,-0.01,0.01,-0.01,
0.986,0.24,0.11,-0.05,-0.01,0.01,-0.00,
0.989,0.24,0.11,-0.05,-0.01,0.01,-0.00,
0.99,0.24,0.11,-0.05,-0.01,0.01,-0.00,
0.994,0.24,0.11,-0.05,-0.01,0.01,-0.00,
0.995,0.21,0.11,0.01,-0.01,0.01,-0.00,
0.995,0.21,0.11,0.01,-0.01,0.01,-0.00,
0.997,0.21,0.11,0.01,-0.01,0.01,-0.00,
0.999,0.21,0.11,0.01,-0.01,0.01,-0.00,
1.0,0.21,0.11,0.01,-0.00,0.01,-0.00,
1.002,0.21,0.11,0.01,-0.00,0.01,0.00,
1.005,0.19,0.11,0.04,-0.00,0.01,0.00,
1.006,0.19,0.11,0.04,0.01,0.00,0.00,
1.006,0.19,0.11,0.04,0.01,0.00,0.00,
1.008,0.19,0.11,0.04,0.01,0.00,0.01,
1.01,0.19,0.11,0.04,0.01,0.00,0.01,
1.013,0.19,0.11,0.04,0.01,0.00,0.01,
1.015,0.16,0.09,0.06,0.01,0.00,0.01,
1.016,0.16,0.09,0.06,0.02,0.00,0.01,
1.017,0.16,0.09,0.06,0.02,-0.00,0.02,
1.018,0.16,0.09,0.06,0.02,-0.00,0.02,
1.02,0.16,0.09,0.06,0.02,0.00,0.02,
1.022,0.16,0.09,0.06,0.02,0.00,0.02,
1.024,0.18,0.07,0.01,0.02,0.00,0.02,
1.025,0.18,0.07,0.01,0.02,0.00,0.02,
1.026,0.18,0.07,0.01,0.02,0.00,0.02,
1.055,0.18,0.07,0.01,0.02,0.00,0.02,
1.056,0.18,0.07,0.01,0.02,0.00,0.03,
1.056,0.18,0.07,0.01,0.02,0.00,0.03,
1.057,0.16,0.06,-0.06,0.02,0.00,0.03,
1.057,0.16,0.06,-0.06,0.02,0.00,0.03,
1.058,0.16,0.06,-0.06,0.02,0.00,0.03,
1.058,0.16,0.06,-0.06,0.02,0.00,0.03,
1.059,0.16,0.06,-0.06,0.02,0.00,0.03,
1.059,0.16,0.06,-0.06,0.02,0.00,0.03,
1.06,0.13,0.05,-0.10,0.02,0.00,0.03,
1.06,0.13,0.05,-0.10,0.02,0.00,0.03,
1.06,0.13,0.05,-0.10,0.02,0.00,0.03,
1.061,0.13,0.05,-0.10,0.02,0.00,0.03,
1.061,0.13,0.05,-0.10,0.02,0.00,0.04,
1.062,0.13,0.05,-0.10,0.02,0.00,0.04,
1.062,0.10,0.05,-0.09,0.02,0.00,0.04,
1.062,0.10,0.05,-0.09,0.02,-0.00,0.04,
1.063,0.10,0.05,-0.09,0.02,-0.00,0.03,
1.063,0.10,0.05,-0.09,0.02,-0.00,0.03,
1.064,0.10,0.05,-0.09,0.02,-0.00,0.03,
1.064,0.10,0.05,-0.09,0.02,-0.00,0.03,
1.064,0.13,0.05,-0.07,0.02,-0.00,0.03,
1.069,0.13,0.05,-0.07,0.02,-0.00,0.03,
1.07,0.13,0.05,-0.07,0.02,-0.00,0.03,
1.07,0.13,0.05,-0.07,0.02,-0.00,0.03,
1.07,0.13,0.05,-0.07,0.02,0.00,0.02,
1.072,0.13,0.05,-0.07,0.02,0.00,0.02,
1.076,0.18,0.04,-0.07,0.02,0.00,0.02,
1.077,0.18,0.04,-0.07,0.02,0.01,0.02,
1.078,0.18,0.04,-0.07,0.02,0.01,0.02,
1.078,0.18,0.04,-0.07,0.02,0.01,0.02,
1.091,0.18,0.04,-0.07,0.02,0.01,0.02,
1.092,0.18,0.04,-0.07,0.01,0.01,0.02,
1.093,0.17,0.00,-0.08,0.01,0.01,0.02,
1.093,0.17,0.00,-0.08,0.01,0.01,0.02,
1.093,0.17,0.00,-0.08,0.01,0.02,0.01,
1.094,0.17,0.00,-0.08,0.01,0.02,0.01,
1.094,0.17,0.00,-0.08,0.01,0.02,0.01,
1.094,0.17,0.00,-0.08,0.00,0.02,0.01,
1.119,0.20,-0.02,-0.12,0.00,0.02,0.01,
1.12,0.20,-0.02,-0.12,0.00,0.02,0.01,
1.12,0.20,-0.02,-0.12,-0.00,0.02,0.01,
1.121,0.20,-0.02,-0.12,-0.00,0.02,0.01,
1.121,0.20,-0.02,-0.12,-0.00,0.02,0.01,
1.121,0.20,-0.02,-0.12,-0.00,0.02,0.00,
1.121,0.20,-0.00,-0.07,-0.00,0.02,0.00,
1.122,0.20,-0.00,-0.07,-0.00,0.02,0.00,
1.122,0.20,-0.00,-0.07,-0.00,0.02,0.00,
1.122,0.20,-0.00,-0.07,-0.01,0.02,0.00,
1.123,0.20,-0.00,-0.07,-0.00,0.02,0.00,
1.123,0.20,-0.00,-0.07,-0.00,0.02,0.00,
1.123,0.13,0.01,-0.04,-0.00,0.02,0.00,
1.124,0.13,0.01,-0.04,-0.00,0.02,0.00,
1.124,0.13,0.01,-0.04,-0.00,0.02,0.00,
1.124,0.13,0.01,-0.04,0.00,0.01,0.00,
1.124,0.13,0.01,-0.04,0.01,0.01,0.00,
1.125,0.13,0.01,-0.04,0.01,0.01,0.00,
1.125,0.08,0.02,-0.02,0.01,0.01,0.00,
1.125,0.08,0.02,-0.02,0.01,0.00,0.00,
1.126,0.08,0.02,-0.02,0.01,-0.00,0.00,
1.131,0.08,0.02,-0.02,0.01,-0.01,0.00,
1.133,0.08,0.02,-0.02,0.02,-0.01,0.00,
1.134,0.08,0.02,-0.02,0.02,-0.02,0.00,
1.135,0.08,0.04,-0.09,0.02,-0.02,0.00,
1.135,0.08,0.04,-0.09,0.02,-0.02,0.00,
1.136,0.08,0.04,-0.09,0.02,-0.02,0.00,
1.138,0.08,0.04,-0.09,0.02,-0.03,0.00,
1.14,0.08,0.04,-0.09,0.02,-0.03,0.01,
1.142,0.08,0.04,-0.09,0.02,-0.04,0.01,
1.146,0.07,-0.02,-0.21,0.02,-0.04,0.01,
1.146,0.07,-0.02,-0.21,0.02,-0.04,0.01,
1.147,0.07,-0.02,-0.21,0.01,-0.04,0.01,
1.148,0.07,-0.02,-0.21,0.01,-0.04,0.01,
1.15,0.07,-0.02,-0.21,0.01,-0.04,0.01,
1.152,0.07,-0.02,-0.21,0.00,-0.04,0.01,
1.155,0.15,0.00,-0.30,0.00,-0.04,0.01,
1.155,0.15,0.00,-0.30,-0.00,-0.04,0.00,
1.156,0.15,0.00,-0.30,-0.01,-0.04,0.00,
1.158,0.15,0.00,-0.30,-0.01,-0.04,0.00,
1.16,0.15,0.00,-0.30,-0.01,-0.05,-0.00,
1.162,0.15,0.00,-0.30,-0.02,-0.04,-0.00,
1.166,0.16,0.01,-0.28,-0.02,-0.04,-0.00,
1.166,0.16,0.01,-0.28,-0.03,-0.04,-0.00,
1.166,0.16,0.01,-0.28,-0.03,-0.04,-0.00,
1.168,0.16,0.01,-0.28,-0.03,-0.04,-0.01,
1.17,0.16,0.01,-0.28,-0.03,-0.04,-0.01,
1.172,0.16,0.01,-0.28,-0.04,-0.03,-0.01,
1.174,0.19,0.02,-0.16,-0.04,-0.03,-0.01,
1.175,0.19,0.02,-0.16,-0.03,-0.02,-0.01,
1.176,0.19,0.02,-0.16,-0.03,-0.02,-0.01,
1.19,0.19,0.02,-0.16,-0.04,-0.01,-0.02,
1.193,0.19,0.02,-0.16,-0.03,-0.01,-0.02,
1.194,0.19,0.02,-0.16,-0.03,-0.01,-0.02,
1.194,0.18,0.00,-0.03,-0.03,-0.01,-0.02,
1.195,0.18,0.00,-0.03,-0.03,0.00,-0.02,
1.196,0.18,0.00,-0.03,-0.03,0.01,-0.02,
1.197,0.18,0.00,-0.03,-0.03,0.01,-0.02,
1.197,0.18,0.00,-0.03,-0.03,0.01,-0.02,
1.198,0.18,0.00,-0.03,-0.02,0.02,-0.02,
1.219,0.16,0.04,0.07,-0.02,0.02,-0.02,
1.258,0.16,0.04,0.07,-0.02,0.02,-0.02,
1.259,0.16,0.04,0.07,-0.02,0.02,-0.02,
1.259,0.16,0.04,0.07,-0.01,0.02,-0.02,
1.26,0.16,0.04,0.07,-0.01,0.02,-0.02,
1.261,0.16,0.04,0.07,-0.01,0.02,-0.02,
1.261,0.16,0.06,0.10,-0.01,0.02,-0.02,
1.261,0.16,0.06,0.10,-0.00,0.03,-0.02,
1.262,0.16,0.06,0.10,0.00,0.03,-0.01,
1.262,0.16,0.06,0.10,0.01,0.02,-0.01,
1.262,0.16,0.06,0.10,0.01,0.02,-0.01,
1.263,0.16,0.06,0.10,0.01,0.02,-0.01,
1.263,0.16,0.05,0.05,0.01,0.02,-0.01,
1.263,0.16,0.05,0.05,0.01,0.02,-0.01,
1.264,0.16,0.05,0.05,0.01,0.02,-0.01,
1.264,0.16,0.05,0.05,0.01,0.01,-0.01,
1.265,0.16,0.05,0.05,0.01,0.01,-0.01,
1.265,0.16,0.05,0.05,0.01,0.01,-0.01,
1.265,0.16,0.04,-0.06,0.01,0.01,-0.01,
1.266,0.16,0.04,-0.06,0.01,0.01,-0.01,
1.266,0.16,0.04,-0.06,0.00,0.00,-0.01,
1.266,0.16,0.04,-0.06,-0.00,0.00,-0.01,
1.267,0.16,0.04,-0.06,-0.00,-0.00,-0.01,
1.267,0.16,0.04,-0.06,-0.01,-0.01,-0.01,
1.267,0.17,0.05,-0.21,-0.01,-0.01,-0.01,
1.268,0.17,0.05,-0.21,-0.01,-0.01,-0.01,
1.268,0.17,0.05,-0.21,-0.01,-0.01,-0.01,
1.268,0.17,0.05,-0.21,-0.02,-0.02,-0.01,
1.269,0.17,0.05,-0.21,-0.02,-0.02,-0.01,
1.269,0.17,0.05,-0.21,-0.02,-0.02,-0.00,
1.269,0.14,0.04,-0.24,-0.02,-0.02,-0.00,
1.27,0.14,0.04,-0.24,-0.03,-0.03,-0.00,
1.27,0.14,0.04,-0.24,-0.03,-0.03,-0.00,
1.271,0.14,0.04,-0.24,-0.03,-0.03,-0.00,
1.271,0.14,0.04,-0.24,-0.04,-0.03,-0.00,
1.271,0.14,0.04,-0.24,-0.04,-0.03,-0.00,
1.272,0.14,0.05,-0.16,-0.04,-0.03,-0.00,
1.272,0.14,0.05,-0.16,-0.04,-0.04,-0.00,
1.272,0.14,0.05,-0.16,-0.04,-0.04,-0.00,
1.273,0.14,0.05,-0.16,-0.03,-0.04,-0.01,
1.273,0.14,0.05,-0.16,-0.03,-0.04,-0.01,
1.273,0.14,0.05,-0.16,-0.03,-0.04,-0.01,
1.273,0.14,0.03,-0.07,-0.03,-0.04,-0.01,
1.274,0.14,0.03,-0.07,-0.03,-0.04,-0.01,
1.274,0.14,0.03,-0.07,-0.03,-0.04,-0.01,
1.274,0.14,0.03,-0.07,-0.03,-0.04,-0.01,
1.274,0.14,0.03,-0.07,-0.02,-0.04,-0.01,
1.275,0.14,0.03,-0.07,-0.02,-0.03,-0.01,
1.275,0.17,0.04,-0.05,-0.02,-0.03,-0.01,
1.275,0.17,0.04,-0.05,-0.03,-0.03,-0.01,
1.279,0.17,0.04,-0.05,-0.02,-0.03,-0.02,
1.28,0.17,0.04,-0.05,-0.02,-0.03,-0.02,
1.287,0.17,0.04,-0.05,-0.02,-0.02,-0.02,
1.287,0.17,0.04,-0.05,-0.02,-0.02,-0.02,
1.287,0.20,0.05,-0.06,-0.02,-0.02,-0.02,
1.291,0.20,0.05,-0.06,-0.02,-0.02,-0.02,
1.292,0.20,0.05,-0.06,-0.02,-0.02,-0.02,
1.292,0.20,0.05,-0.06,-0.02,-0.02,-0.02,
1.292,0.20,0.05,-0.06,-0.02,-0.02,-0.02,
1.293,0.20,0.05,-0.06,-0.01,-0.02,-0.02,
1.297,0.20,0.05,-0.06,-0.01,-0.02,-0.02,
1.298,0.20,0.05,-0.06,-0.01,-0.01,-0.02,
1.298,0.20,0.05,-0.06,-0.01,-0.02,-0.02,
1.299,0.20,0.05,-0.06,-0.01,-0.01,-0.02,
1.302,0.20,0.05,-0.06,-0.01,-0.01,-0.02,
1.307,0.20,0.05,-0.06,-0.01,-0.01,-0.02,
1.308,0.17,0.03,0.01,-0.01,-0.01,-0.02,
1.31,0.17,0.03,0.01,-0.01,-0.01,-0.02,
1.311,0.17,0.03,0.01,-0.00,-0.01,-0.02,
1.311,0.17,0.03,0.01,-0.00,-0.02,-0.02,
1.311,0.17,0.03,0.01,-0.01,-0.02,-0.02,
1.313,0.17,0.03,0.01,-0.00,-0.02,-0.02,
1.315,0.15,0.03,-0.00,-0.00,-0.02,-0.02,
1.315,0.15,0.03,-0.00,-0.01,-0.02,-0.02,
1.317,0.15,0.03,-0.00,-0.01,-0.03,-0.02,
1.318,0.15,0.03,-0.00,-0.01,-0.03,-0.02,
1.321,0.15,0.03,-0.00,-0.01,-0.03,-0.01,
1.323,0.15,0.03,-0.00,-0.01,-0.03,-0.01,
1.325,0.14,0.03,-0.00,-0.01,-0.03,-0.01,
1.325,0.14,0.03,-0.00,-0.01,-0.03,-0.01,
1.33,0.14,0.03,-0.00,-0.01,-0.03,-0.01,
1.331,0.14,0.03,-0.00,-0.01,-0.03,-0.01,
1.331,0.14,0.03,-0.00,-0.01,-0.03,-0.01,
1.332,0.14,0.03,-0.00,-0.01,-0.03,-0.01,
1.335,0.15,0.06,0.02,-0.01,-0.03,-0.01,
1.336,0.15,0.06,0.02,-0.01,-0.03,-0.01,
1.336,0.15,0.06,0.02,-0.01,-0.02,-0.01,
1.348,0.15,0.06,0.02,-0.01,-0.02,-0.00,
1.349,0.15,0.06,0.02,-0.02,-0.02,-0.00,
1.349,0.15,0.06,0.02,-0.01,-0.02,-0.00,
1.349,0.16,0.06,0.01,-0.01,-0.02,-0.00,
1.349,0.16,0.06,0.01,-0.01,-0.02,-0.00,
1.35,0.16,0.06,0.01,-0.02,-0.02,-0.00,
1.35,0.16,0.06,0.01,-0.02,-0.02,0.00,
1.361,0.16,0.06,0.01,-0.02,-0.02,0.00,
1.362,0.16,0.06,0.01,-0.02,-0.02,0.00,
1.362,0.17,0.08,0.00,-0.02,-0.02,0.00,
1.362,0.17,0.08,0.00,-0.02,-0.02,0.00,
1.362,0.17,0.08,0.00,-0.02,-0.02,0.00,
1.363,0.17,0.08,0.00,-0.02,-0.02,0.00,
1.363,0.17,0.08,0.00,-0.02,-0.02,0.00,
1.389,0.17,0.08,0.00,-0.01,-0.02,0.01,
1.39,0.15,0.09,-0.02,-0.01,-0.02,0.01,
1.39,0.15,0.09,-0.02,-0.01,-0.02,0.01,
1.39,0.15,0.09,-0.02,-0.01,-0.02,0.01,
1.39,0.15,0.09,-0.02,-0.01,-0.02,0.01,
1.391,0.15,0.09,-0.02,-0.01,-0.03,0.01,
1.391,0.15,0.09,-0.02,-0.01,-0.03,0.01,
1.391,0.15,0.13,-0.04,-0.01,-0.03,0.01,
1.391,0.15,0.13,-0.04,-0.01,-0.03,0.01,
1.392,0.15,0.13,-0.04,-0.01,-0.03,0.01,
1.392,0.15,0.13,-0.04,-0.00,-0.03,0.01,
1.392,0.15,0.13,-0.04,-0.00,-0.03,0.01,
1.392,0.15,0.13,-0.04,0.00,-0.03,0.01,
1.393,0.14,0.08,-0.06,0.00,-0.03,0.01,
1.393,0.14,0.08,-0.06,0.00,-0.04,0.01,
1.393,0.14,0.08,-0.06,0.00,-0.03,0.01,
1.393,0.14,0.08,-0.06,0.00,-0.03,0.01,
1.394,0.14,0.08,-0.06,0.00,-0.03,0.01,
1.394,0.14,0.08,-0.06,0.00,-0.03,0.01,
1.394,0.21,0.08,-0.11,0.00,-0.03,0.01,
1.395,0.21,0.08,-0.11,0.00,-0.03,0.00,
1.397,0.21,0.08,-0.11,0.00,-0.03,0.00,
1.398,0.21,0.08,-0.11,-0.00,-0.03,-0.00,
1.4,0.21,0.08,-0.11,-0.00,-0.03,-0.00,
1.402,0.21,0.08,-0.11,-0.00,-0.02,-0.00,
1.404,0.22,0.07,-0.11,-0.00,-0.02,-0.00,
1.405,0.22,0.07,-0.11,-0.01,-0.02,-0.01,
1.406,0.22,0.07,-0.11,-0.01,-0.02,-0.01,
1.408,0.22,0.07,-0.11,-0.01,-0.01,-0.01,
1.41,0.22,0.07,-0.11,-0.01,-0.01,-0.01,
1.412,0.22,0.07,-0.11,-0.01,-0.01,-0.01,
1.415,0.20,0.08,-0.05,-0.01,-0.01,-0.01,
1.415,0.20,0.08,-0.05,-0.02,-0.00,-0.01,
1.416,0.20,0.08,-0.05,-0.01,0.00,-0.02,
1.418,0.20,0.08,-0.05,-0.01,0.01,-0.02,
1.42,0.20,0.08,-0.05,-0.02,0.01,-0.02,
1.422,0.20,0.08,-0.05,-0.01,0.01,-0.02,
1.424,0.20,0.07,0.05,-0.01,0.01,-0.02,
1.425,0.20,0.07,0.05,-0.01,0.02,-0.02,
1.428,0.20,0.07,0.05,-0.02,0.02,-0.02,
1.432,0.20,0.07,0.05,-0.01,0.02,-0.02,
1.434,0.20,0.07,0.05,-0.01,0.02,-0.02,
1.435,0.20,0.07,0.05,-0.01,0.02,-0.02,
1.436,0.22,0.05,0.08,-0.01,0.02,-0.02,
1.436,0.22,0.05,0.08,-0.01,0.02,-0.02,
1.437,0.22,0.05,0.08,-0.01,0.03,-0.02,
1.438,0.22,0.05,0.08,-0.01,0.02,-0.02,
1.44,0.22,0.05,0.08,-0.01,0.02,-0.02,
1.442,0.22,0.05,0.08,-0.00,0.02,-0.02,
1.449,0.13,0.09,0.11,-0.00,0.02,-0.02,
1.45,0.13,0.09,0.11,0.00,0.02,-0.01,
1.45,0.13,0.09,0.11,0.00,0.01,-0.01,
1.451,0.13,0.09,0.11,0.01,0.01,-0.01,
1.451,0.13,0.09,0.11,0.01,0.01,-0.01,
1.452,0.13,0.09,0.11,0.01,0.01,-0.00,
1.454,0.09,0.10,0.13,0.01,0.01,-0.00,
1.455,0.09,0.10,0.13,0.01,0.01,-0.00,
1.456,0.09,0.10,0.13,0.02,0.01,-0.00,
1.458,0.09,0.10,0.13,0.02,0.00,0.00,
1.465,0.09,0.10,0.13,0.02,-0.00,0.00,
1.466,0.09,0.10,0.13,0.03,-0.00,0.00,
1.467,0.07,0.13,0.13,0.03,-0.00,0.00,
1.467,0.07,0.13,0.13,0.03,-0.00,0.00,
1.467,0.07,0.13,0.13,0.03,-0.01,0.00,
1.468,0.07,0.13,0.13,0.03,-0.01,0.00,
1.473,0.07,0.13,0.13,0.03,-0.01,0.00,
1.473,0.07,0.13,0.13,0.03,-0.02,0.00,
1.479,0.13,0.11,0.04,0.03,-0.02,0.00,
1.479,0.13,0.11,0.04,0.03,-0.02,0.00,
1.479,0.13,0.11,0.04,0.03,-0.02,0.00,
1.48,0.13,0.11,0.04,0.03,-0.03,0.00,
1.489,0.13,0.11,0.04,0.03,-0.03,0.00,
1.494,0.13,0.11,0.04,0.03,-0.03,0.00,
1.495,0.13,0.08,-0.05,0.03,-0.03,0.00,
1.495,0.13,0.08,-0.05,0.03,-0.02,0.00,
1.495,0.13,0.08,-0.05,0.03,-0.02,0.00,
1.496,0.13,0.08,-0.05,0.02,-0.02,0.00,
1.496,0.13,0.08,-0.05,0.02,-0.02,0.00,
1.496,0.13,0.08,-0.05,0.02,-0.01,-0.00,
1.497,0.18,0.04,-0.14,0.02,-0.01,-0.00,
1.497,0.18,0.04,-0.14,0.02,-0.01,0.00,
1.497,0.18,0.04,-0.14,0.01,-0.01,-0.00,
1.503,0.18,0.04,-0.14,0.01,-0.01,-0.00,
1.505,0.18,0.04,-0.14,0.01,-0.01,-0.00,
1.506,0.18,0.04,-0.14,0.00,-0.00,-0.00,
1.507,0.16,0.05,-0.24,0.00,-0.00,-0.00,
1.507,0.16,0.05,-0.24,-0.00,-0.00,-0.00,
1.508,0.16,0.05,-0.24,-0.00,-0.00,-0.00,
1.518,0.16,0.05,-0.24,-0.01,-0.00,-0.01,
1.52,0.16,0.05,-0.24,-0.01,-0.00,-0.01,
1.521,0.16,0.05,-0.24,-0.01,-0.00,-0.01,
1.521,0.16,0.06,-0.26,-0.01,-0.00,-0.01,
1.522,0.16,0.06,-0.26,-0.01,-0.00,-0.01,
1.522,0.16,0.06,-0.26,-0.01,-0.00,-0.01,
1.522,0.16,0.06,-0.26,-0.01,-0.00,-0.01,
1.523,0.16,0.06,-0.26,-0.01,-0.00,-0.01,
1.523,0.16,0.06,-0.26,-0.01,-0.00,-0.01,
1.525,0.16,0.07,-0.18,-0.01,-0.00,-0.01,
1.526,0.16,0.07,-0.18,-0.01,0.00,-0.01,
1.527,0.16,0.07,-0.18,-0.01,0.00,-0.00,
1.559,0.16,0.07,-0.18,-0.01,0.00,-0.00,
1.559,0.16,0.07,-0.18,-0.01,0.01,-0.00,
1.56,0.16,0.07,-0.18,-0.00,0.01,-0.00,
1.561,0.19,0.04,-0.08,-0.00,0.01,-0.00,
1.562,0.19,0.04,-0.08,-0.00,0.02,-0.00,
1.562,0.19,0.04,-0.08,-0.00,0.02,-0.00,
1.562,0.19,0.04,-0.08,0.00,0.03,0.00,
1.563,0.19,0.04,-0.08,0.01,0.03,0.00,
1.563,0.19,0.04,-0.08,0.01,0.03,0.00,
1.564,0.15,0.01,0.01,0.01,0.03,0.00,
1.564,0.15,0.01,0.01,0.01,0.03,0.00,
1.564,0.15,0.01,0.01,0.02,0.03,0.00,
1.565,0.15,0.01,0.01,0.02,0.03,0.00,
1.565,0.15,0.01,0.01,0.02,0.03,0.00,
1.565,0.15,0.01,0.01,0.02,0.03,0.01,
1.565,0.10,0.04,-0.02,0.02,0.03,0.01,
1.566,0.10,0.04,-0.02,0.02,0.03,0.01,
1.566,0.10,0.04,-0.02,0.02,0.03,0.01,
1.566,0.10,0.04,-0.02,0.02,0.03,0.01,
1.567,0.10,0.04,-0.02,0.02,0.03,0.01,
1.57,0.10,0.04,-0.02,0.02,0.03,0.01,
1.57,0.02,0.06,-0.06,0.02,0.03,0.01,
1.571,0.02,0.06,-0.06,0.02,0.02,0.01,
1.571,0.02,0.06,-0.06,0.02,0.02,0.01,
1.571,0.02,0.06,-0.06,0.02,0.02,0.02,
1.571,0.02,0.06,-0.06,0.02,0.01,0.01,
1.575,0.02,0.06,-0.06,0.01,0.01,0.02,
1.576,0.05,0.09,-0.07,0.01,0.01,0.02,
1.576,0.05,0.09,-0.07,0.01,0.00,0.01,
1.576,0.05,0.09,-0.07,0.01,-0.00,0.02,
1.578,0.05,0.09,-0.07,0.01,-0.00,0.02,
1.58,0.05,0.09,-0.07,-0.00,-0.01,0.01,
1.582,0.05,0.09,-0.07,-0.00,-0.01,0.01,
1.584,0.09,0.05,-0.13,-0.00,-0.01,0.01,
1.584,0.09,0.05,-0.13,-0.01,-0.01,0.01,
1.588,0.09,0.05,-0.13,-0.01,-0.02,0.01,
1.588,0.09,0.05,-0.13,-0.02,-0.02,0.01,
1.592,0.09,0.05,-0.13,-0.02,-0.02,0.01,
1.592,0.09,0.05,-0.13,-0.03,-0.02,0.01,
1.595,0.13,0.05,-0.16,-0.03,-0.02,0.01,
1.595,0.13,0.05,-0.16,-0.03,-0.02,0.01,
1.596,0.13,0.05,-0.16,-0.03,-0.02,0.01,
1.598,0.13,0.05,-0.16,-0.04,-0.02,0.00,
1.6,0.13,0.05,-0.16,-0.04,-0.03,0.00,
1.602,0.13,0.05,-0.16,-0.05,-0.03,0.00,
1.604,0.15,0.04,-0.13,-0.05,-0.03,0.00,
1.605,0.15,0.04,-0.13,-0.05,-0.03,0.00,
1.606,0.15,0.04,-0.13,-0.05,-0.04,0.00,
1.608,0.15,0.04,-0.13,-0.05,-0.04,-0.00,
1.618,0.15,0.04,-0.13,-0.05,-0.04,-0.00,
1.619,0.15,0.04,-0.13,-0.05,-0.04,-0.00,
1.62,0.16,0.07,-0.03,-0.05,-0.04,-0.00,
1.62,0.16,0.07,-0.03,-0.05,-0.04,-0.01,
1.62,0.16,0.07,-0.03,-0.05,-0.04,-0.01,
1.621,0.16,0.07,-0.03,-0.04,-0.04,-0.01,
1.621,0.16,0.07,-0.03,-0.04,-0.04,-0.01,
1.622,0.16,0.07,-0.03,-0.03,-0.04,-0.01,
1.64,0.15,0.08,0.10,-0.03,-0.04,-0.01,
1.644,0.15,0.08,0.10,-0.03,-0.04,-0.01,
1.645,0.15,0.08,0.10,-0.02,-0.03,-0.01,
1.646,0.15,0.08,0.10,-0.01,-0.03,-0.01,
1.646,0.15,0.08,0.10,-0.01,-0.03,-0.00,
1.647,0.15,0.08,0.10,-0.00,-0.02,-0.00,
1.647,0.15,0.07,0.17,-0.00,-0.02,-0.00,
1.648,0.15,0.07,0.17,-0.00,-0.02,-0.01,
1.649,0.15,0.07,0.17,0.01,-0.02,-0.00,
1.649,0.15,0.07,0.17,0.01,-0.02,-0.00,
1.65,0.15,0.07,0.17,0.02,-0.02,-0.00,
1.65,0.15,0.07,0.17,0.02,-0.01,-0.00,
1.651,0.18,0.07,0.12,0.02,-0.01,-0.00,
1.651,0.18,0.07,0.12,0.02,-0.01,-0.00,
1.651,0.18,0.07,0.12,0.02,-0.01,-0.00,
1.652,0.18,0.07,0.12,0.03,-0.01,-0.00,
1.653,0.18,0.07,0.12,0.03,-0.01,0.00,
1.653,0.18,0.07,0.12,0.03,-0.01,0.00,
1.655,0.18,0.07,0.00,0.03,-0.01,0.00,
1.656,0.18,0.07,0.00,0.03,-0.01,0.00,
1.656,0.18,0.07,0.00,0.03,-0.02,0.00,
1.658,0.18,0.07,0.00,0.02,-0.02,0.01,
1.661,0.18,0.07,0.00,0.02,-0.02,0.01,
1.662,0.18,0.07,0.00,0.02,-0.03,0.01,
1.665,0.17,0.06,-0.10,0.02,-0.03,0.01,
1.665,0.17,0.06,-0.10,0.02,-0.03,0.01,
1.666,0.17,0.06,-0.10,0.01,-0.04,0.01,
1.668,0.17,0.06,-0.10,0.01,-0.04,0.01,
1.67,0.17,0.06,-0.10,0.01,-0.04,0.01,
1.672,0.17,0.06,-0.10,0.00,-0.04,0.01,
1.674,0.17,0.06,-0.12,0.00,-0.04,0.01,
1.675,0.17,0.06,-0.12,-0.00,-0.04,0.02,
1.677,0.17,0.06,-0.12,-0.00,-0.04,0.01,
1.68,0.17,0.06,-0.12,-0.01,-0.04,0.01,
1.68,0.17,0.06,-0.12,-0.01,-0.04,0.02,
1.682,0.17,0.06,-0.12,-0.01,-0.04,0.02,
1.684,0.16,0.05,-0.10,-0.01,-0.04,0.02,
1.685,0.16,0.05,-0.10,-0.01,-0.04,0.02,
1.686,0.16,0.05,-0.10,-0.01,-0.04,0.02,
1.688,0.16,0.05,-0.10,-0.02,-0.04,0.02,
1.69,0.16,0.05,-0.10,-0.02,-0.04,0.02,
1.693,0.16,0.05,-0.10,-0.02,-0.04,0.01,
1.695,0.20,0.06,-0.02,-0.02,-0.04,0.01,
1.729,0.20,0.06,-0.02,-0.02,-0.03,0.02,
1.729,0.20,0.06,-0.02,-0.02,-0.03,0.01,
1.729,0.20,0.06,-0.02,-0.02,-0.02,0.02,
1.73,0.20,0.06,-0.02,-0.02,-0.02,0.02,
1.73,0.20,0.06,-0.02,-0.02,-0.02,0.01,
1.731,0.18,0.06,0.00,-0.02,-0.02,0.01,
1.731,0.18,0.06,0.00,-0.03,-0.01,0.02,
1.732,0.18,0.06,0.00,-0.02,-0.01,0.02,
1.732,0.18,0.06,0.00,-0.02,0.00,0.02,
1.732,0.18,0.06,0.00,-0.02,0.01,0.01,
1.733,0.18,0.06,0.00,-0.02,0.01,0.01,
1.733,0.16,0.05,0.06,-0.02,0.01,0.01,
1.734,0.16,0.05,0.06,-0.02,0.02,0.01,
1.734,0.16,0.05,0.06,-0.02,0.02,0.01,
1.734,0.16,0.05,0.06,-0.02,0.03,0.01,
1.735,0.16,0.05,0.06,-0.02,0.04,0.01,
1.735,0.16,0.05,0.06,-0.02,0.04,0.01,
1.736,0.18,0.04,0.07,-0.02,0.04,0.01,
1.736,0.18,0.04,0.07,-0.02,0.05,0.01,
1.736,0.18,0.04,0.07,-0.02,0.05,0.01,
1.737,0.18,0.04,0.07,-0.02,0.06,0.01,
1.737,0.18,0.04,0.07,-0.02,0.06,0.01,
1.738,0.18,0.04,0.07,-0.01,0.07,0.01,
1.738,0.19,0.06,0.06,-0.01,0.07,0.01,
1.738,0.19,0.06,0.06,-0.01,0.07,0.01,
1.739,0.19,0.06,0.06,-0.01,0.07,0.01,
1.739,0.19,0.06,0.06,-0.01,0.07,0.01,
1.742,0.19,0.06,0.06,-0.01,0.07,0.02,
1.744,0.19,0.06,0.06,-0.01,0.06,0.02,
1.747,0.21,0.06,-0.03,-0.01,0.06,0.02,
1.747,0.21,0.06,-0.03,-0.01,0.06,0.02,
1.747,0.21,0.06,-0.03,-0.01,0.06,0.02,
1.748,0.21,0.06,-0.03,-0.00,0.05,0.02,
1.75,0.21,0.06,-0.03,-0.00,0.05,0.02,
1.753,0.21,0.06,-0.03,-0.00,0.04,0.02,
1.759,0.21,0.06,-0.11,-0.00,0.04,0.02,
1.76,0.21,0.06,-0.11,0.00,0.03,0.02,
1.761,0.21,0.06,-0.11,0.00,0.03,0.02,
1.762,0.21,0.06,-0.11,0.01,0.02,0.03,
1.764,0.21,0.06,-0.11,0.01,0.02,0.03,
1.765,0.21,0.06,-0.11,0.01,0.01,0.03,
1.765,0.16,0.05,-0.10,0.01,0.01,0.03,
1.766,0.16,0.05,-0.10,0.01,0.01,0.03,
1.77,0.16,0.05,-0.10,0.02,0.01,0.04,
1.771,0.16,0.05,-0.10,0.02,0.01,0.04,
1.772,0.16,0.05,-0.10,0.02,0.01,0.04,
1.772,0.16,0.05,-0.10,0.02,0.01,0.04,
1.784,0.10,0.07,-0.06,0.02,0.01,0.04,
1.785,0.10,0.07,-0.06,0.02,0.00,0.04,
1.786,0.10,0.07,-0.06,0.02,0.00,0.04,
1.786,0.10,0.07,-0.06,0.02,0.00,0.04,
1.786,0.10,0.07,-0.06,0.02,0.01,0.04,
1.787,0.10,0.07,-0.06,0.02,0.00,0.04,
1.787,0.13,0.07,-0.08,0.02,0.00,0.04,
1.787,0.13,0.07,-0.08,0.01,0.01,0.04,
1.791,0.13,0.07,-0.08,0.01,0.01,0.04,
1.791,0.13,0.07,-0.08,0.01,0.01,0.04,
1.792,0.13,0.07,-0.08,0.01,0.01,0.03,
1.807,0.13,0.07,-0.08,-0.00,0.02,0.03,
1.808,0.13,0.03,-0.16,-0.00,0.02,0.03,
1.809,0.13,0.03,-0.16,-0.00,0.02,0.03,
1.809,0.13,0.03,-0.16,-0.01,0.03,0.03,
1.809,0.13,0.03,-0.16,-0.01,0.03,0.03,
1.809,0.13,0.03,-0.16,-0.02,0.03,0.03,
1.81,0.13,0.03,-0.16,-0.02,0.04,0.03,
1.81,0.13,0.00,-0.15,-0.02,0.04,0.03,
1.81,0.13,0.00,-0.15,-0.03,0.04,0.03,
1.811,0.13,0.00,-0.15,-0.03,0.05,0.03,
1.811,0.13,0.00,-0.15,-0.03,0.05,0.02,
1.811,0.13,0.00,-0.15,-0.03,0.05,0.02,
1.813,0.13,0.00,-0.15,-0.03,0.06,0.02,
1.816,0.16,0.03,-0.08,-0.03,0.06,0.02,
1.817,0.16,0.03,-0.08,-0.03,0.06,0.02,
1.818,0.16,0.03,-0.08,-0.03,0.06,0.02,
1.819,0.16,0.03,-0.08,-0.03,0.06,0.02,
1.821,0.16,0.03,-0.08,-0.03,0.06,0.01,
1.822,0.16,0.03,-0.08,-0.03,0.07,0.01,
1.826,0.17,0.07,-0.02,-0.03,0.07,0.01,
1.827,0.17,0.07,-0.02,-0.02,0.07,0.01,
1.827,0.17,0.07,-0.02,-0.02,0.06,0.01,
1.828,0.17,0.07,-0.02,-0.02,0.06,0.01,
1.83,0.17,0.07,-0.02,-0.02,0.06,0.01,
1.833,0.17,0.07,-0.02,-0.02,0.05,0.01,
1.834,0.17,0.05,-0.01,-0.02,0.05,0.01,
1.835,0.17,0.05,-0.01,-0.01,0.04,0.01,
1.836,0.17,0.05,-0.01,-0.01,0.04,0.01,
1.838,0.17,0.05,-0.01,-0.01,0.03,0.01,
1.84,0.17,0.05,-0.01,-0.01,0.02,0.01,
1.844,0.17,0.05,-0.01,-0.01,0.02,0.01,
1.846,0.22,0.04,-0.01,-0.01,0.02,0.01,
1.846,0.22,0.04,-0.01,-0.01,0.01,0.01,
1.847,0.22,0.04,-0.01,-0.01,0.01,0.00,
1.849,0.22,0.04,-0.01,-0.01,0.01,0.00,
1.851,0.22,0.04,-0.01,-0.01,0.00,0.00,
1.853,0.22,0.04,-0.01,-0.01,0.00,0.00,
1.858,0.29,0.07,-0.05,-0.01,0.00,0.00,
1.859,0.29,0.07,-0.05,-0.01,-0.00,-0.00,
1.859,0.29,0.07,-0.05,-0.02,-0.00,-0.00,
1.859,0.29,0.07,-0.05,-0.02,-0.01,-0.00,
1.867,0.29,0.07,-0.05,-0.02,-0.01,-0.01,
1.897,0.29,0.07,-0.05,-0.02,-0.02,-0.01,
1.897,0.32,0.07,-0.04,-0.02,-0.02,-0.01,
1.898,0.32,0.07,-0.04,-0.02,-0.02,-0.01,
1.898,0.32,0.07,-0.04,-0.02,-0.02,-0.01,
1.898,0.32,0.07,-0.04,-0.02,-0.03,-0.01,
1.899,0.32,0.07,-0.04,-0.02,-0.03,-0.02,
1.899,0.32,0.07,-0.04,-0.02,-0.04,-0.02,
1.9,0.31,0.08,-0.05,-0.02,-0.04,-0.02,
1.9,0.31,0.08,-0.05,-0.02,-0.04,-0.02,
1.901,0.31,0.08,-0.05,-0.02,-0.04,-0.02,
1.901,0.31,0.08,-0.05,-0.03,-0.04,-0.02,
1.901,0.31,0.08,-0.05,-0.03,-0.04,-0.03,
1.901,0.31,0.08,-0.05,-0.03,-0.05,-0.04,
1.902,0.54,0.00,-0.05,-0.03,-0.05,-0.04,
1.902,0.54,0.00,-0.05,-0.03,-0.06,-0.05,
1.902,0.54,0.00,-0.05,-0.03,-0.07,-0.05,
1.902,0.54,0.00,-0.05,-0.02,-0.07,-0.05,
1.903,0.54,0.00,-0.05,-0.01,-0.06,-0.04,
1.903,0.54,0.00,-0.05,-0.01,-0.05,-0.03,
1.903,0.08,-0.07,0.04,-0.01,-0.05,-0.03,
1.903,0.08,-0.07,0.04,-0.01,-0.03,-0.03,
1.904,0.08,-0.07,0.04,-0.02,-0.02,-0.03,
1.904,0.08,-0.07,0.04,-0.02,-0.02,-0.03,
1.904,0.08,-0.07,0.04,-0.02,-0.01,-0.03,
1.904,0.08,-0.07,0.04,-0.03,-0.01,-0.03,
1.905,0.15,0.10,-0.12,-0.03,-0.01,-0.03,
1.905,0.15,0.10,-0.12,-0.03,-0.01,-0.03,
1.91,0.15,0.10,-0.12,-0.03,-0.00,-0.02,
1.91,0.15,0.10,-0.12,-0.04,0.00,-0.02,
1.911,0.15,0.10,-0.12,-0.04,0.01,-0.02,
1.922,0.15,0.10,-0.12,-0.04,0.01,-0.02,
1.923,0.07,0.11,-0.09,-0.04,0.01,-0.02,
1.924,0.07,0.11,-0.09,-0.04,0.02,-0.01,
1.924,0.07,0.11,-0.09,-0.04,0.02,-0.01,
1.924,0.07,0.11,-0.09,-0.04,0.03,-0.01,
1.925,0.07,0.11,-0.09,-0.04,0.03,-0.01,
1.925,0.07,0.11,-0.09,-0.04,0.03,-0.01,
1.925,0.14,0.05,0.05,-0.04,0.03,-0.01,
1.926,0.14,0.05,0.05,-0.04,0.03,-0.01,
1.935,0.14,0.05,0.05,-0.04,0.04,-0.01,
1.936,0.14,0.05,0.05,-0.04,0.04,-0.01,
1.936,0.14,0.05,0.05,-0.04,0.04,-0.01,
1.939,0.14,0.05,0.05,-0.04,0.04,-0.01,
1.94,0.25,0.02,0.09,-0.04,0.04,-0.01,
1.94,0.25,0.02,0.09,-0.03,0.04,-0.01,
1.941,0.25,0.02,0.09,-0.03,0.03,-0.01,
1.941,0.25,0.02,0.09,-0.03,0.03,-0.01,
1.941,0.25,0.02,0.09,-0.03,0.03,-0.01,
1.949,0.25,0.02,0.09,-0.03,0.02,-0.01,
1.95,0.32,0.02,0.02,-0.03,0.02,-0.01,
1.95,0.32,0.02,0.02,-0.03,0.02,-0.01,
1.95,0.32,0.02,0.02,-0.03,0.02,-0.01,
1.95,0.32,0.02,0.02,-0.03,0.01,-0.00,
1.951,0.32,0.02,0.02,-0.04,0.01,-0.00,
1.953,0.32,0.02,0.02,-0.04,0.01,0.00,
1.955,0.19,0.05,-0.03,-0.04,0.01,0.00,
1.956,0.19,0.05,-0.03,-0.04,0.01,0.00,
1.957,0.19,0.05,-0.03,-0.04,0.01,0.01,
1.963,0.19,0.05,-0.03,-0.04,0.00,0.01,
1.964,0.19,0.05,-0.03,-0.04,-0.00,0.01,
1.964,0.19,0.05,-0.03,-0.04,-0.00,0.01,
1.965,0.19,0.09,0.02,-0.04,-0.00,0.01,
1.965,0.19,0.09,0.02,-0.04,-0.01,0.02,
1.966,0.19,0.09,0.02,-0.04,-0.01,0.02,
1.968,0.19,0.09,0.02,-0.04,-0.02,0.02,
1.97,0.19,0.09,0.02,-0.04,-0.02,0.03,
1.972,0.19,0.09,0.02,-0.04,-0.02,0.03,
1.975,0.13,0.07,0.04,-0.04,-0.02,0.03,
1.975,0.13,0.07,0.04,-0.04,-0.02,0.03,
1.976,0.13,0.07,0.04,-0.03,-0.03,0.03,
1.978,0.13,0.07,0.04,-0.03,-0.03,0.04,
1.98,0.13,0.07,0.04,-0.04,-0.03,0.04,
1.982,0.13,0.07,0.04,-0.04,-0.03,0.04,
1.985,0.10,0.08,0.02,-0.04,-0.03,0.04,
1.985,0.10,0.08,0.02,-0.04,-0.03,0.04,
1.986,0.10,0.08,0.02,-0.03,-0.03,0.04,
1.988,0.10,0.08,0.02,-0.03,-0.03,0.05,
1.99,0.10,0.08,0.02,-0.03,-0.03,0.05,
1.993,0.10,0.08,0.02,-0.03,-0.03,0.05,
1.995,0.13,0.08,-0.02,-0.03,-0.03,0.05,
1.995,0.13,0.08,-0.02,-0.03,-0.03,0.05,
1.996,0.13,0.08,-0.02,-0.03,-0.03,0.05,
1.998,0.13,0.08,-0.02,-0.03,-0.03,0.06,
2.0,0.13,0.08,-0.02,-0.03,-0.03,0.06,
2.002,0.13,0.08,-0.02,-0.02,-0.03,0.06,
2.005,0.09,0.07,0.04,-0.02,-0.03,0.06,
2.005,0.09,0.07,0.04,-0.02,-0.03,0.07,
2.006,0.09,0.07,0.04,-0.01,-0.03,0.07,
2.019,0.09,0.07,0.04,-0.01,-0.03,0.07,
2.021,0.09,0.07,0.04,-0.01,-0.04,0.07,
2.021,0.09,0.07,0.04,0.00,-0.04,0.07,
2.021,0.10,0.07,0.04,0.00,-0.04,0.07,
2.021,0.10,0.07,0.04,0.00,-0.04,0.08,
2.021,0.10,0.07,0.04,0.01,-0.04,0.08,
2.022,0.10,0.07,0.04,0.01,-0.04,0.08,
2.022,0.10,0.07,0.04,0.01,-0.03,0.08,
2.022,0.10,0.07,0.04,0.01,-0.03,0.08,
2.041,0.09,0.07,-0.00,0.01,-0.03,0.08,
2.044,0.09,0.07,-0.00,0.02,-0.03,0.08,
2.045,0.09,0.07,-0.00,0.02,-0.02,0.08,
2.078,0.09,0.07,-0.00,0.02,-0.02,0.09,
2.079,0.09,0.07,-0.00,0.02,-0.02,0.08,
2.08,0.09,0.07,-0.00,0.02,-0.02,0.09,
2.08,0.08,0.12,0.02,0.02,-0.02,0.09,
2.081,0.08,0.12,0.02,0.02,-0.02,0.09,
2.081,0.08,0.12,0.02,0.02,-0.02,0.09,
2.082,0.08,0.12,0.02,0.02,-0.02,0.09,
2.082,0.08,0.12,0.02,0.02,-0.02,0.10,
2.083,0.08,0.12,0.02,0.01,-0.02,0.10,
2.083,0.05,0.16,-0.05,0.01,-0.02,0.10,
2.084,0.05,0.16,-0.05,0.01,-0.02,0.10,
2.084,0.05,0.16,-0.05,0.01,-0.02,0.10,
2.085,0.05,0.16,-0.05,0.01,-0.02,0.11,
2.085,0.05,0.16,-0.05,0.00,-0.03,0.11,
2.086,0.05,0.16,-0.05,-0.00,-0.03,0.10,
2.086,0.07,0.14,-0.08,-0.00,-0.03,0.10,
2.087,0.07,0.14,-0.08,-0.01,-0.04,0.10,
2.087,0.07,0.14,-0.08,-0.01,-0.04,0.10,
2.088,0.07,0.14,-0.08,-0.01,-0.04,0.09,
2.089,0.07,0.14,-0.08,-0.02,-0.05,0.09,
2.089,0.07,0.14,-0.08,-0.03,-0.05,0.08,
2.089,0.12,0.09,-0.14,-0.03,-0.05,0.08,
2.089,0.12,0.09,-0.14,-0.05,-0.06,0.08,
2.09,0.12,0.09,-0.14,-0.05,-0.06,0.08,
2.09,0.12,0.09,-0.14,-0.05,-0.06,0.08,
2.09,0.12,0.09,-0.14,-0.06,-0.06,0.07,
2.09,0.12,0.09,-0.14,-0.06,-0.06,0.07,
2.09,0.08,0.12,-0.05,-0.06,-0.06,0.07,
2.091,0.08,0.12,-0.05,-0.07,-0.07,0.07,
2.091,0.08,0.12,-0.05,-0.07,-0.07,0.07,
2.091,0.08,0.12,-0.05,-0.07,-0.07,0.07,
2.091,0.08,0.12,-0.05,-0.06,-0.07,0.08,
2.092,0.08,0.12,-0.05,-0.06,-0.08,0.08,
2.092,0.04,0.13,0.21,-0.06,-0.08,0.08,
2.092,0.04,0.13,0.21,-0.05,-0.08,0.08,
2.092,0.04,0.13,0.21,-0.04,-0.08,0.09,
2.093,0.04,0.13,0.21,-0.04,-0.09,0.09,
2.093,0.04,0.13,0.21,-0.02,-0.09,0.09,
2.093,0.04,0.13,0.21,-0.02,-0.09,0.10,
2.095,0.03,0.07,0.34,-0.02,-0.09,0.10,
2.096,0.03,0.07,0.34,-0.00,-0.10,0.10,
2.1,0.03,0.07,0.34,0.00,-0.10,0.10,
2.1,0.03,0.07,0.34,0.02,-0.10,0.10,
2.101,0.03,0.07,0.34,0.03,-0.09,0.11,
2.104,0.03,0.07,0.34,0.04,-0.09,0.11,
2.105,-0.05,0.03,0.37,0.04,-0.09,0.11,
2.109,-0.05,0.03,0.37,0.04,-0.09,0.11,
2.109,-0.05,0.03,0.37,0.05,-0.08,0.11,
2.109,-0.05,0.03,0.37,0.06,-0.07,0.11,
2.11,-0.05,0.03,0.37,0.07,-0.07,0.11,
2.113,-0.05,0.03,0.37,0.07,-0.07,0.11,
2.114,0.09,0.00,0.34,0.07,-0.07,0.11,
2.115,0.09,0.00,0.34,0.08,-0.07,0.11,
2.12,0.09,0.00,0.34,0.09,-0.07,0.10,
2.12,0.09,0.00,0.34,0.09,-0.06,0.10,
2.12,0.09,0.00,0.34,0.09,-0.06,0.10,
2.122,0.09,0.00,0.34,0.09,-0.06,0.09,
2.124,0.22,-0.00,0.21,0.09,-0.06,0.09,
2.125,0.22,-0.00,0.21,0.09,-0.05,0.08,
2.126,0.22,-0.00,0.21,0.09,-0.04,0.08,
2.128,0.22,-0.00,0.21,0.08,-0.04,0.08,
2.13,0.22,-0.00,0.21,0.07,-0.03,0.07,
2.132,0.22,-0.00,0.21,0.07,-0.02,0.07,
2.134,0.17,-0.01,-0.04,0.07,-0.02,0.07,
2.135,0.17,-0.01,-0.04,0.06,-0.02,0.07,
2.136,0.17,-0.01,-0.04,0.05,-0.02,0.06,
2.138,0.17,-0.01,-0.04,0.04,-0.01,0.06,
2.15,0.17,-0.01,-0.04,0.03,-0.01,0.06,
2.151,0.17,-0.01,-0.04,0.02,-0.01,0.07,
2.151,0.10,-0.04,-0.19,0.02,-0.01,0.07,
2.152,0.10,-0.04,-0.19,0.01,-0.01,0.07,
2.152,0.10,-0.04,-0.19,0.00,-0.00,0.07,
2.153,0.10,-0.04,-0.19,-0.01,-0.00,0.07,
2.153,0.10,-0.04,-0.19,-0.02,-0.00,0.08,
2.153,0.10,-0.04,-0.19,-0.03,-0.00,0.08,
2.171,0.10,-0.08,-0.18,-0.03,-0.00,0.08,
2.173,0.10,-0.08,-0.18,-0.03,-0.01,0.09,
2.175,0.10,-0.08,-0.18,-0.04,-0.02,0.10,
2.175,0.10,-0.08,-0.18,-0.05,-0.02,0.11,
2.177,0.10,-0.08,-0.18,-0.05,-0.03,0.12,
2.177,0.10,-0.08,-0.18,-0.05,-0.04,0.13,
2.178,0.04,-0.04,0.00,-0.05,-0.04,0.13,
2.178,0.04,-0.04,0.00,-0.05,-0.04,0.13,
2.179,0.04,-0.04,0.00,-0.06,-0.04,0.13,
2.179,0.04,-0.04,0.00,-0.06,-0.05,0.13,
2.18,0.04,-0.04,0.00,-0.06,-0.05,0.13,
2.18,0.04,-0.04,0.00,-0.07,-0.06,0.12,
2.181,0.14,0.02,0.15,-0.07,-0.06,0.12,
2.182,0.14,0.02,0.15,-0.07,-0.07,0.12,
2.182,0.14,0.02,0.15,-0.07,-0.07,0.12,
2.183,0.14,0.02,0.15,-0.07,-0.08,0.12,
2.183,0.14,0.02,0.15,-0.08,-0.10,0.12,
2.184,0.14,0.02,0.15,-0.08,-0.10,0.12,
2.185,0.18,-0.04,0.08,-0.08,-0.10,0.12,
2.185,0.18,-0.04,0.08,-0.08,-0.12,0.12,
2.186,0.18,-0.04,0.08,-0.09,-0.13,0.12,
2.188,0.18,-0.04,0.08,-0.09,-0.14,0.12,
2.191,0.18,-0.04,0.08,-0.09,-0.15,0.12,
2.192,0.18,-0.04,0.08,-0.09,-0.15,0.13,
2.195,0.19,-0.09,0.12,-0.09,-0.15,0.13,
2.218,0.19,-0.09,0.12,-0.09,-0.15,0.13,
2.219,0.19,-0.09,0.12,-0.09,-0.15,0.13,
2.219,0.19,-0.09,0.12,-0.09,-0.16,0.14,
2.219,0.19,-0.09,0.12,-0.09,-0.15,0.14,
2.22,0.19,-0.09,0.12,-0.09,-0.15,0.15,
2.22,0.13,-0.12,-0.00,-0.09,-0.15,0.15,
2.22,0.13,-0.12,-0.00,-0.09,-0.15,0.15,
2.22,0.13,-0.12,-0.00,-0.10,-0.16,0.15,
2.221,0.13,-0.12,-0.00,-0.11,-0.17,0.15,
2.221,0.13,-0.12,-0.00,-0.12,-0.18,0.15,
2.221,0.13,-0.12,-0.00,-0.13,-0.20,0.15,
2.222,0.22,-0.16,0.01,-0.13,-0.20,0.15,
2.222,0.22,-0.16,0.01,-0.14,-0.22,0.16,
2.222,0.22,-0.16,0.01,-0.15,-0.24,0.16,
2.222,0.22,-0.16,0.01,-0.16,-0.24,0.16,
2.223,0.22,-0.16,0.01,-0.16,-0.24,0.17,
2.223,0.22,-0.16,0.01,-0.16,-0.24,0.17,
2.225,0.17,-0.12,0.06,-0.16,-0.24,0.17,
2.225,0.17,-0.12,0.06,-0.16,-0.22,0.17,
2.226,0.17,-0.12,0.06,-0.16,-0.20,0.16,
2.228,0.17,-0.12,0.06,-0.16,-0.17,0.16,
2.23,0.17,-0.12,0.06,-0.16,-0.14,0.16,
2.232,0.17,-0.12,0.06,-0.16,-0.12,0.16,
2.234,0.23,0.01,-0.06,-0.16,-0.12,0.16,
2.235,0.23,0.01,-0.06,-0.16,-0.10,0.15,
2.237,0.23,0.01,-0.06,-0.16,-0.08,0.15,
2.238,0.23,0.01,-0.06,-0.17,-0.08,0.15,
2.24,0.23,0.01,-0.06,-0.17,-0.08,0.15,
2.242,0.23,0.01,-0.06,-0.18,-0.09,0.15,
2.245,0.20,0.00,0.02,-0.18,-0.09,0.15,
2.245,0.20,0.00,0.02,-0.18,-0.10,0.15,
2.246,0.20,0.00,0.02,-0.19,-0.10,0.15,
2.248,0.20,0.00,0.02,-0.19,-0.11,0.16,
2.25,0.20,0.00,0.02,-0.20,-0.11,0.17,
2.252,0.20,0.00,0.02,-0.20,-0.11,0.17,
2.254,0.03,-0.09,0.12,-0.20,-0.11,0.17,
2.255,0.03,-0.09,0.12,-0.20,-0.10,0.19,
2.257,0.03,-0.09,0.12,-0.20,-0.08,0.20,
2.259,0.03,-0.09,0.12,-0.20,-0.07,0.21,
2.26,0.03,-0.09,0.12,-0.20,-0.05,0.22,
2.262,0.03,-0.09,0.12,-0.20,-0.04,0.23,
2.265,0.13,-0.22,0.10,-0.20,-0.04,0.23,
2.265,0.13,-0.22,0.10,-0.20,-0.03,0.23,
2.266,0.13,-0.22,0.10,-0.19,-0.03,0.22,
2.268,0.13,-0.22,0.10,-0.19,-0.02,0.22,
2.27,0.13,-0.22,0.10,-0.19,-0.00,0.22,
2.273,0.13,-0.22,0.10,-0.18,0.02,0.22,
2.276,0.55,-0.55,0.11,-0.18,0.02,0.22,
2.276,0.55,-0.55,0.11,-0.18,0.04,0.22,
2.277,0.55,-0.55,0.11,-0.17,0.07,0.22,
2.278,0.55,-0.55,0.11,-0.16,0.10,0.21,
2.28,0.55,-0.55,0.11,-0.16,0.14,0.21,
2.282,0.55,-0.55,0.11,-0.15,0.16,0.21,
2.284,0.57,-0.36,0.01,-0.15,0.16,0.21,
2.285,0.57,-0.36,0.01,-0.14,0.18,0.21,
2.286,0.57,-0.36,0.01,-0.14,0.19,0.21,
2.288,0.57,-0.36,0.01,-0.13,0.20,0.21,
2.29,0.57,-0.36,0.01,-0.12,0.21,0.22,
2.292,0.57,-0.36,0.01,-0.12,0.22,0.22,
2.295,0.29,-0.09,-0.01,-0.12,0.22,0.22,
2.296,0.29,-0.09,-0.01,-0.11,0.22,0.23,
2.296,0.29,-0.09,-0.01,-0.10,0.21,0.24,
2.298,0.29,-0.09,-0.01,-0.10,0.20,0.25,
2.3,0.29,-0.09,-0.01,-0.10,0.19,0.26,
2.302,0.29,-0.09,-0.01,-0.09,0.17,0.27,
2.304,0.06,0.14,-0.07,-0.09,0.17,0.27,
2.305,0.06,0.14,-0.07,-0.09,0.15,0.27,
2.312,0.06,0.14,-0.07,-0.09,0.14,0.28,
2.313,0.06,0.14,-0.07,-0.08,0.14,0.28,
2.314,0.06,0.14,-0.07,-0.08,0.13,0.29,
2.314,0.06,0.14,-0.07,-0.08,0.12,0.28,
2.315,0.12,0.11,-0.08,-0.08,0.12,0.28,
2.316,0.12,0.11,-0.08,-0.07,0.12,0.28,
2.317,0.12,0.11,-0.08,-0.07,0.12,0.28,
2.333,0.12,0.11,-0.08,-0.07,0.13,0.26,
2.337,0.12,0.11,-0.08,-0.07,0.14,0.23,
2.339,0.12,0.11,-0.08,-0.07,0.15,0.20,
2.341,0.97,-0.09,-0.06,-0.07,0.15,0.20,
2.342,0.97,-0.09,-0.06,-0.07,0.14,0.18,
2.342,0.97,-0.09,-0.06,-0.08,0.14,0.16,
2.343,0.97,-0.09,-0.06,-0.09,0.14,0.15,
2.343,0.97,-0.09,-0.06,-0.10,0.14,0.14,
2.344,0.97,-0.09,-0.06,-0.11,0.15,0.13,
2.344,0.14,-0.33,-0.50,-0.11,0.15,0.13,
2.345,0.14,-0.33,-0.50,-0.12,0.16,0.13,
2.345,0.14,-0.33,-0.50,-0.14,0.18,0.13,
2.346,0.14,-0.33,-0.50,-0.15,0.20,0.12,
2.346,0.14,-0.33,-0.50,-0.17,0.23,0.12,
2.347,0.14,-0.33,-0.50,-0.18,0.26,0.12,
2.347,-0.01,-0.08,-0.65,-0.18,0.26,0.12,
2.347,-0.01,-0.08,-0.65,-0.19,0.29,0.11,
2.348,-0.01,-0.08,-0.65,-0.20,0.31,0.11,
2.348,-0.01,-0.08,-0.65,-0.21,0.32,0.12,
2.351,-0.01,-0.08,-0.65,-0.22,0.32,0.12,
2.353,-0.01,-0.08,-0.65,-0.23,0.30,0.12,
2.361,0.36,-0.07,-0.44,-0.23,0.30,0.12,
2.363,0.36,-0.07,-0.44,-0.23,0.29,0.12,
2.364,0.36,-0.07,-0.44,-0.24,0.28,0.13,
2.365,0.36,-0.07,-0.44,-0.24,0.28,0.14,
2.365,0.36,-0.07,-0.44,-0.24,0.29,0.15,
2.395,0.36,-0.07,-0.44,-0.24,0.29,0.15,
2.395,-0.07,-0.14,-0.10,-0.24,0.29,0.15,
2.396,-0.07,-0.14,-0.10,-0.23,0.29,0.16,
2.396,-0.07,-0.14,-0.10,-0.22,0.29,0.17,
2.396,-0.07,-0.14,-0.10,-0.22,0.27,0.17,
2.397,-0.07,-0.14,-0.10,-0.22,0.24,0.16,
2.397,-0.07,-0.14,-0.10,-0.21,0.23,0.15,
2.397,0.64,-0.34,0.28,-0.21,0.23,0.15,
2.397,0.64,-0.34,0.28,-0.19,0.23,0.14,
2.398,0.64,-0.34,0.28,-0.17,0.23,0.13,
2.398,0.64,-0.34,0.28,-0.16,0.25,0.14,
2.398,0.64,-0.34,0.28,-0.15,0.27,0.15,
2.398,0.64,-0.34,0.28,-0.15,0.28,0.16,
2.399,-0.13,-0.14,0.14,-0.15,0.28,0.16,
2.399,-0.13,-0.14,0.14,-0.15,0.28,0.18,
2.399,-0.13,-0.14,0.14,-0.16,0.28,0.19,
2.399,-0.13,-0.14,0.14,-0.16,0.28,0.19,
2.4,-0.13,-0.14,0.14,-0.16,0.27,0.18,
2.4,-0.13,-0.14,0.14,-0.17,0.27,0.17,
2.4,0.37,0.18,0.04,-0.17,0.27,0.17,
2.4,0.37,0.18,0.04,-0.17,0.26,0.17,
2.401,0.37,0.18,0.04,-0.18,0.24,0.18,
2.401,0.37,0.18,0.04,-0.19,0.22,0.18,
2.401,0.37,0.18,0.04,-0.20,0.20,0.19,
2.403,0.37,0.18,0.04,-0.21,0.18,0.20,
2.405,-0.08,0.04,0.18,-0.21,0.18,0.20,
2.405,-0.08,0.04,0.18,-0.22,0.16,0.22,
2.406,-0.08,0.04,0.18,-0.22,0.16,0.23,
2.408,-0.08,0.04,0.18,-0.23,0.16,0.24,
2.412,-0.08,0.04,0.18,-0.24,0.17,0.26,
2.413,-0.08,0.04,0.18,-0.24,0.19,0.28,
2.416,-0.61,0.25,0.01,-0.24,0.19,0.28,
2.417,-0.61,0.25,0.01,-0.25,0.22,0.29,
2.417,-0.61,0.25,0.01,-0.26,0.25,0.31,
2.423,-0.61,0.25,0.01,-0.26,0.29,0.33,
2.423,-0.61,0.25,0.01,-0.27,0.33,0.35,
2.423,-0.61,0.25,0.01,-0.27,0.37,0.37,
2.427,-0.82,0.54,-0.21,-0.27,0.37,0.37,
2.428,-0.82,0.54,-0.21,-0.28,0.41,0.39,
2.428,-0.82,0.54,-0.21,-0.28,0.44,0.40,
2.431,-0.82,0.54,-0.21,-0.28,0.47,0.42,
2.432,-0.82,0.54,-0.21,-0.28,0.49,0.43,
2.432,-0.82,0.54,-0.21,-0.28,0.50,0.44,
2.437,-0.41,0.44,-0.29,-0.28,0.50,0.44,
2.442,-0.41,0.44,-0.29,-0.28,0.51,0.45,
2.443,-0.41,0.44,-0.29,-0.28,0.52,0.46,
2.444,-0.41,0.44,-0.29,-0.28,0.54,0.46,
2.446,-0.41,0.44,-0.29,-0.28,0.55,0.46,
2.447,-0.41,0.44,-0.29,-0.28,0.57,0.46,
2.447,0.18,0.15,-0.23,-0.28,0.57,0.46,
2.447,0.18,0.15,-0.23,-0.27,0.58,0.46,
2.448,0.18,0.15,-0.23,-0.27,0.60,0.46,
2.449,0.18,0.15,-0.23,-0.26,0.61,0.46,
2.456,0.18,0.15,-0.23,-0.26,0.62,0.45,
2.457,0.18,0.15,-0.23,-0.25,0.62,0.45,
2.457,0.50,-0.09,0.02,-0.25,0.62,0.45,
2.458,0.50,-0.09,0.02,-0.24,0.61,0.45,
2.458,0.50,-0.09,0.02,-0.23,0.60,0.45,
2.458,0.50,-0.09,0.02,-0.22,0.58,0.45,
2.464,0.50,-0.09,0.02,-0.21,0.56,0.45,
2.468,0.50,-0.09,0.02,-0.21,0.54,0.46,
2.469,0.43,-0.42,0.20,-0.21,0.54,0.46,
2.47,0.43,-0.42,0.20,-0.20,0.50,0.47,
2.471,0.43,-0.42,0.20,-0.19,0.46,0.48,
2.472,0.43,-0.42,0.20,-0.18,0.43,0.48,
2.473,0.43,-0.42,0.20,-0.17,0.40,0.48,
2.474,0.43,-0.42,0.20,-0.15,0.36,0.49,
2.484,0.52,-0.36,0.53,-0.15,0.36,0.49,
2.485,0.52,-0.36,0.53,-0.14,0.33,0.49,
2.485,0.52,-0.36,0.53,-0.13,0.29,0.49,
2.486,0.52,-0.36,0.53,-0.12,0.24,0.49,
2.486,0.52,-0.36,0.53,-0.11,0.20,0.49,
2.486,0.52,-0.36,0.53,-0.10,0.15,0.49,
2.487,0.38,-0.19,0.58,-0.10,0.15,0.49,
2.487,0.38,-0.19,0.58,-0.09,0.11,0.49,
2.487,0.38,-0.19,0.58,-0.08,0.07,0.49,
2.495,0.38,-0.19,0.58,-0.07,0.03,0.50,
2.497,0.38,-0.19,0.58,-0.06,-0.01,0.49,
2.498,0.38,-0.19,0.58,-0.05,-0.05,0.50,
2.499,0.06,-0.09,0.47,-0.05,-0.05,0.50,
2.499,0.06,-0.09,0.47,-0.05,-0.08,0.50,
2.499,0.06,-0.09,0.47,-0.04,-0.12,0.50,
2.5,0.06,-0.09,0.47,-0.03,-0.15,0.50,
2.5,0.06,-0.09,0.47,-0.01,-0.17,0.50,
2.503,0.06,-0.09,0.47,-0.00,-0.20,0.50,
2.506,-0.12,-0.07,0.56,-0.00,-0.20,0.50,
2.507,-0.12,-0.07,0.56,0.01,-0.22,0.50,
2.507,-0.12,-0.07,0.56,0.03,-0.23,0.50,
2.51,-0.12,-0.07,0.56,0.04,-0.25,0.50,
2.512,-0.12,-0.07,0.56,0.06,-0.26,0.51,
2.513,-0.12,-0.07,0.56,0.07,-0.29,0.52,
2.515,-0.18,-0.11,0.52,0.07,-0.29,0.52,
2.516,-0.18,-0.11,0.52,0.09,-0.31,0.53,
2.517,-0.18,-0.11,0.52,0.11,-0.33,0.54,
2.518,-0.18,-0.11,0.52,0.12,-0.35,0.55,
2.521,-0.18,-0.11,0.52,0.13,-0.36,0.56,
2.524,-0.18,-0.11,0.52,0.13,-0.38,0.56,
2.526,-0.26,0.02,0.25,0.13,-0.38,0.56,
2.527,-0.26,0.02,0.25,0.14,-0.39,0.56,
2.527,-0.26,0.02,0.25,0.14,-0.39,0.56,
2.555,-0.26,0.02,0.25,0.14,-0.39,0.56,
2.556,-0.26,0.02,0.25,0.13,-0.40,0.55,
2.556,-0.26,0.02,0.25,0.12,-0.41,0.54,
2.557,-0.31,0.19,-0.08,0.12,-0.41,0.54,
2.557,-0.31,0.19,-0.08,0.11,-0.41,0.52,
2.558,-0.31,0.19,-0.08,0.10,-0.43,0.51,
2.558,-0.31,0.19,-0.08,0.09,-0.44,0.49,
2.559,-0.31,0.19,-0.08,0.08,-0.45,0.48,
2.559,-0.31,0.19,-0.08,0.07,-0.46,0.46,
2.559,-0.22,0.16,-0.27,0.07,-0.46,0.46,
2.56,-0.22,0.16,-0.27,0.07,-0.47,0.44,
2.56,-0.22,0.16,-0.27,0.07,-0.48,0.43,
2.561,-0.22,0.16,-0.27,0.07,-0.48,0.41,
2.561,-0.22,0.16,-0.27,0.07,-0.47,0.40,
2.562,-0.22,0.16,-0.27,0.08,-0.47,0.39,
2.562,-0.15,0.14,-0.26,0.08,-0.47,0.39,
2.562,-0.15,0.14,-0.26,0.08,-0.46,0.38,
2.563,-0.15,0.14,-0.26,0.09,-0.46,0.38,
2.563,-0.15,0.14,-0.26,0.10,-0.45,0.37,
2.563,-0.15,0.14,-0.26,0.10,-0.45,0.37,
2.563,-0.15,0.14,-0.26,0.11,-0.45,0.37,
2.565,0.02,0.08,-0.24,0.11,-0.45,0.37,
2.566,0.02,0.08,-0.24,0.12,-0.44,0.37,
2.566,0.02,0.08,-0.24,0.13,-0.45,0.36,
2.568,0.02,0.08,-0.24,0.14,-0.45,0.34,
2.57,0.02,0.08,-0.24,0.15,-0.44,0.32,
2.574,0.02,0.08,-0.24,0.16,-0.44,0.31,
2.575,0.63,-0.03,-0.16,0.16,-0.44,0.31,
2.575,0.63,-0.03,-0.16,0.16,-0.43,0.31,
2.576,0.63,-0.03,-0.16,0.17,-0.44,0.31,
2.578,0.63,-0.03,-0.16,0.17,-0.45,0.32,
2.58,0.63,-0.03,-0.16,0.17,-0.47,0.33,
2.582,0.63,-0.03,-0.16,0.17,-0.49,0.34,
2.584,0.01,-0.14,-0.28,0.17,-0.49,0.34,
2.585,0.01,-0.14,-0.28,0.18,-0.51,0.35,
2.586,0.01,-0.14,-0.28,0.18,-0.53,0.35,
2.592,0.01,-0.14,-0.28,0.19,-0.54,0.35,
2.593,0.01,-0.14,-0.28,0.20,-0.55,0.35,
2.593,0.01,-0.14,-0.28,0.21,-0.56,0.35,
2.594,0.03,-0.00,0.15,0.21,-0.56,0.35,
2.595,0.03,-0.00,0.15,0.23,-0.56,0.34,
2.596,0.03,-0.00,0.15,0.25,-0.56,0.34,
2.598,0.03,-0.00,0.15,0.26,-0.55,0.33,
2.6,0.03,-0.00,0.15,0.27,-0.54,0.32,
2.613,0.03,-0.00,0.15,0.29,-0.53,0.32,
2.615,0.09,0.19,0.38,0.29,-0.53,0.32,
2.616,0.09,0.19,0.38,0.30,-0.52,0.31,
2.616,0.09,0.19,0.38,0.31,-0.50,0.31,
2.617,0.09,0.19,0.38,0.32,-0.49,0.31,
2.617,0.09,0.19,0.38,0.34,-0.48,0.31,
2.617,0.09,0.19,0.38,0.35,-0.46,0.31,
2.618,0.00,0.16,0.30,0.35,-0.46,0.31,
2.618,0.00,0.16,0.30,0.36,-0.45,0.31,
2.618,0.00,0.16,0.30,0.37,-0.44,0.31,
2.619,0.00,0.16,0.30,0.38,-0.44,0.32,
2.624,0.00,0.16,0.30,0.39,-0.43,0.32,
2.626,0.00,0.16,0.30,0.40,-0.43,0.32,
2.627,0.07,0.08,0.13,0.40,-0.43,0.32,
2.628,0.07,0.08,0.13,0.41,-0.44,0.33,
2.629,0.07,0.08,0.13,0.40,-0.44,0.32,
2.629,0.07,0.08,0.13,0.40,-0.45,0.33,
2.63,0.07,0.08,0.13,0.39,-0.45,0.32,
2.633,0.07,0.08,0.13,0.39,-0.45,0.32,
2.635,0.26,-0.01,-0.39,0.39,-0.45,0.32,
2.635,0.26,-0.01,-0.39,0.38,-0.45,0.32,
2.636,0.26,-0.01,-0.39,0.37,-0.44,0.32,
2.638,0.26,-0.01,-0.39,0.37,-0.45,0.31,
2.64,0.26,-0.01,-0.39,0.36,-0.45,0.30,
2.642,0.26,-0.01,-0.39,0.34,-0.46,0.30,
2.645,0.53,-0.02,-0.80,0.34,-0.46,0.30,
2.645,0.53,-0.02,-0.80,0.33,-0.47,0.29,
2.646,0.53,-0.02,-0.80,0.32,-0.48,0.28,
2.648,0.53,-0.02,-0.80,0.31,-0.50,0.26,
2.65,0.53,-0.02,-0.80,0.29,-0.51,0.26,
2.652,0.53,-0.02,-0.80,0.27,-0.51,0.25,
2.655,0.56,-0.08,-1.09,0.27,-0.51,0.25,
2.656,0.56,-0.08,-1.09,0.25,-0.50,0.25,
2.657,0.56,-0.08,-1.09,0.21,-0.47,0.25,
2.658,0.56,-0.08,-1.09,0.17,-0.42,0.25,
2.66,0.56,-0.08,-1.09,0.14,-0.37,0.24,
2.662,0.56,-0.08,-1.09,0.11,-0.32,0.22,
2.665,0.22,-0.04,-1.21,0.11,-0.32,0.22,
2.665,0.22,-0.04,-1.21,0.08,-0.29,0.21,
2.666,0.22,-0.04,-1.21,0.08,-0.26,0.20,
2.668,0.22,-0.04,-1.21,0.08,-0.24,0.19,
2.672,0.22,-0.04,-1.21,0.10,-0.20,0.19,
2.673,0.22,-0.04,-1.21,0.12,-0.17,0.19,
2.674,0.37,0.50,-0.31,0.12,-0.17,0.19,
2.675,0.37,0.50,-0.31,0.15,-0.15,0.18,
2.676,0.37,0.50,-0.31,0.18,-0.14,0.19,
2.678,0.37,0.50,-0.31,0.21,-0.13,0.19,
2.68,0.37,0.50,-0.31,0.24,-0.12,0.20,
2.682,0.37,0.50,-0.31,0.26,-0.12,0.20,
2.684,0.32,0.38,-0.11,0.26,-0.12,0.20,
2.685,0.32,0.38,-0.11,0.28,-0.13,0.20,
2.686,0.32,0.38,-0.11,0.29,-0.14,0.19,
2.688,0.32,0.38,-0.11,0.30,-0.15,0.19,
2.69,0.32,0.38,-0.11,0.29,-0.16,0.19,
2.693,0.32,0.38,-0.11,0.27,-0.16,0.18,
2.695,0.31,-0.04,-0.82,0.27,-0.16,0.18,
2.725,0.31,-0.04,-0.82,0.25,-0.14,0.17,
2.725,0.31,-0.04,-0.82,0.22,-0.13,0.17,
2.726,0.31,-0.04,-0.82,0.18,-0.10,0.15,
2.726,0.31,-0.04,-0.82,0.15,-0.05,0.14,
2.726,0.31,-0.04,-0.82,0.11,-0.01,0.13,
2.727,0.28,0.12,-1.71,0.11,-0.01,0.13,
2.727,0.28,0.12,-1.71,0.06,0.05,0.13,
2.728,0.28,0.12,-1.71,0.03,0.09,0.13,
2.728,0.28,0.12,-1.71,-0.01,0.14,0.13,
2.729,0.28,0.12,-1.71,-0.05,0.17,0.13,
2.729,0.28,0.12,-1.71,-0.09,0.20,0.14,
2.729,0.09,0.63,-1.75,-0.09,0.20,0.14,
2.73,0.09,0.63,-1.75,-0.12,0.22,0.15,
2.73,0.09,0.63,-1.75,-0.16,0.26,0.16,
2.731,0.09,0.63,-1.75,-0.19,0.31,0.16,
2.731,0.09,0.63,-1.75,-0.23,0.36,0.17,
2.731,0.09,0.63,-1.75,-0.27,0.42,0.17,
2.732,-0.16,0.72,-1.36,-0.27,0.42,0.17,
2.732,-0.16,0.72,-1.36,-0.30,0.47,0.18,
2.733,-0.16,0.72,-1.36,-0.34,0.53,0.18,
2.733,-0.16,0.72,-1.36,-0.36,0.57,0.18,
2.734,-0.16,0.72,-1.36,-0.39,0.62,0.18,
2.734,-0.16,0.72,-1.36,-0.40,0.65,0.18,
2.734,0.25,0.29,-0.54,-0.40,0.65,0.18,
2.735,0.25,0.29,-0.54,-0.41,0.68,0.17,
2.739,0.25,0.29,-0.54,-0.41,0.71,0.17,
2.741,0.25,0.29,-0.54,-0.41,0.74,0.16,
2.741,0.25,0.29,-0.54,-0.39,0.76,0.15,
2.742,0.25,0.29,-0.54,-0.37,0.79,0.13,
2.744,0.66,0.26,0.95,-0.37,0.79,0.13,
2.745,0.66,0.26,0.95,-0.35,0.81,0.12,
2.746,0.66,0.26,0.95,-0.32,0.83,0.11,
2.748,0.66,0.26,0.95,-0.28,0.85,0.09,
2.75,0.66,0.26,0.95,-0.25,0.87,0.08,
2.752,0.66,0.26,0.95,-0.21,0.88,0.07,
2.767,0.78,0.43,1.86,-0.21,0.88,0.07,
2.767,0.78,0.43,1.86,-0.15,0.90,0.06,
2.768,0.78,0.43,1.86,-0.13,0.90,0.05,
2.768,0.78,0.43,1.86,-0.09,0.91,0.05,
2.769,0.78,0.43,1.86,-0.04,0.90,0.04,
2.769,0.78,0.43,1.86,-0.00,0.90,0.04,
2.769,0.40,0.28,2.07,-0.00,0.90,0.04,
2.77,0.40,0.28,2.07,0.04,0.89,0.04,
2.77,0.40,0.28,2.07,0.08,0.88,0.03,
2.77,0.40,0.28,2.07,0.12,0.86,0.03,
2.787,0.40,0.28,2.07,0.15,0.85,0.03,
2.788,0.40,0.28,2.07,0.18,0.84,0.03,
2.788,0.33,0.12,1.83,0.18,0.84,0.03,
2.789,0.33,0.12,1.83,0.21,0.82,0.02,
2.789,0.33,0.12,1.83,0.24,0.81,0.02,
2.789,0.33,0.12,1.83,0.26,0.79,0.02,
2.79,0.33,0.12,1.83,0.28,0.78,0.02,
2.79,0.33,0.12,1.83,0.29,0.76,0.02,
2.79,0.29,0.19,1.20,0.29,0.76,0.02,
2.79,0.29,0.19,1.20,0.30,0.74,0.02,
2.791,0.29,0.19,1.20,0.31,0.73,0.02,
2.791,0.29,0.19,1.20,0.30,0.72,0.01,
2.791,0.29,0.19,1.20,0.30,0.70,0.01,
2.792,0.29,0.19,1.20,0.29,0.67,0.00,
2.795,0.41,0.46,0.42,0.29,0.67,0.00,
2.795,0.41,0.46,0.42,0.28,0.65,-0.00,
2.796,0.41,0.46,0.42,0.26,0.63,-0.01,
2.798,0.41,0.46,0.42,0.24,0.61,-0.02,
2.8,0.41,0.46,0.42,0.21,0.59,-0.03,
2.802,0.41,0.46,0.42,0.17,0.57,-0.03,
2.805,0.38,0.65,-0.50,0.17,0.57,-0.03,
2.806,0.38,0.65,-0.50,0.14,0.56,-0.04,
2.807,0.38,0.65,-0.50,0.09,0.56,-0.05,
2.809,0.38,0.65,-0.50,0.05,0.56,-0.06,
2.81,0.38,0.65,-0.50,0.01,0.56,-0.06,
2.813,0.38,0.65,-0.50,-0.03,0.56,-0.07,
2.814,0.53,0.83,-1.13,-0.03,0.56,-0.07,
2.815,0.53,0.83,-1.13,-0.07,0.57,-0.08,
2.816,0.53,0.83,-1.13,-0.11,0.57,-0.09,
2.818,0.53,0.83,-1.13,-0.15,0.57,-0.09,
2.821,0.53,0.83,-1.13,-0.19,0.57,-0.09,
2.824,0.53,0.83,-1.13,-0.22,0.56,-0.10,
2.825,0.36,0.95,-1.15,-0.22,0.56,-0.10,
2.825,0.36,0.95,-1.15,-0.25,0.56,-0.10,
2.828,0.36,0.95,-1.15,-0.28,0.55,-0.10,
2.828,0.36,0.95,-1.15,-0.31,0.55,-0.10,
2.83,0.36,0.95,-1.15,-0.33,0.54,-0.10,
2.832,0.36,0.95,-1.15,-0.36,0.53,-0.11,
2.834,0.25,0.99,-1.16,-0.36,0.53,-0.11,
2.835,0.25,0.99,-1.16,-0.38,0.52,-0.11,
2.837,0.25,0.99,-1.16,-0.40,0.51,-0.12,
2.839,0.25,0.99,-1.16,-0.41,0.49,-0.12,
2.84,0.25,0.99,-1.16,-0.42,0.47,-0.13,
2.842,0.25,0.99,-1.16,-0.43,0.45,-0.14,
2.845,0.33,0.89,-1.08,-0.43,0.45,-0.14,
2.845,0.33,0.89,-1.08,-0.44,0.44,-0.15,
2.846,0.33,0.89,-1.08,-0.44,0.47,-0.13,
2.848,0.33,0.89,-1.08,-0.42,0.55,-0.10,
2.85,0.33,0.89,-1.08,-0.41,0.61,-0.07,
2.867,0.33,0.89,-1.08,-0.40,0.64,-0.04,
2.869,-0.54,-0.22,-0.37,-0.40,0.64,-0.04,
2.869,-0.54,-0.22,-0.37,-0.39,0.65,-0.02,
2.87,-0.54,-0.22,-0.37,-0.39,0.65,0.01,
2.871,-0.54,-0.22,-0.37,-0.39,0.65,0.04,
2.871,-0.54,-0.22,-0.37,-0.40,0.63,0.06,
2.906,-0.54,-0.22,-0.37,-0.40,0.60,0.09,
2.906,-0.66,0.08,-0.86,-0.40,0.60,0.09,
2.907,-0.66,0.08,-0.86,-0.42,0.57,0.11,
2.907,-0.66,0.08,-0.86,-0.43,0.52,0.12,
2.907,-0.66,0.08,-0.86,-0.44,0.46,0.14,
2.907,-0.66,0.08,-0.86,-0.46,0.39,0.15,
2.908,-0.66,0.08,-0.86,-0.47,0.32,0.17,
2.908,-0.55,0.47,-1.30,-0.47,0.32,0.17,
2.908,-0.55,0.47,-1.30,-0.49,0.24,0.18,
2.908,-0.55,0.47,-1.30,-0.50,0.17,0.19,
2.909,-0.55,0.47,-1.30,-0.52,0.10,0.21,
2.909,-0.55,0.47,-1.30,-0.53,0.04,0.22,
2.909,-0.55,0.47,-1.30,-0.53,-0.01,0.24,
2.909,-0.50,0.62,-1.27,-0.53,-0.01,0.24,
2.91,-0.50,0.62,-1.27,-0.53,-0.05,0.26,
2.91,-0.50,0.62,-1.27,-0.53,-0.08,0.28,
2.91,-0.50,0.62,-1.27,-0.52,-0.10,0.30,
2.911,-0.50,0.62,-1.27,-0.51,-0.10,0.31,
2.911,-0.50,0.62,-1.27,-0.49,-0.11,0.33,
2.911,-0.19,0.65,-0.88,-0.49,-0.11,0.33,
2.911,-0.19,0.65,-0.88,-0.47,-0.10,0.34,
2.912,-0.19,0.65,-0.88,-0.45,-0.09,0.35,
2.912,-0.19,0.65,-0.88,-0.42,-0.08,0.35,
2.912,-0.19,0.65,-0.88,-0.40,-0.07,0.35,
2.912,-0.19,0.65,-0.88,-0.37,-0.05,0.35,
2.913,0.37,0.57,-0.69,-0.37,-0.05,0.35,
2.913,0.37,0.57,-0.69,-0.35,-0.04,0.33,
2.913,0.37,0.57,-0.69,-0.32,-0.02,0.32,
2.913,0.37,0.57,-0.69,-0.29,-0.00,0.28,
2.914,0.37,0.57,-0.69,-0.27,0.00,0.27,
2.914,0.37,0.57,-0.69,-0.25,0.02,0.23,
2.914,1.12,0.82,-0.70,-0.25,0.02,0.23,
2.915,1.12,0.82,-0.70,-0.22,0.03,0.20,
2.917,1.12,0.82,-0.70,-0.20,0.05,0.15,
2.918,1.12,0.82,-0.70,-0.18,0.06,0.10,
2.929,1.12,0.82,-0.70,-0.17,0.06,0.05,
2.93,1.12,0.82,-0.70,-0.15,0.06,-0.01,
2.93,1.53,1.14,-0.80,-0.15,0.06,-0.01,
2.93,1.53,1.14,-0.80,-0.14,0.06,-0.07,
2.93,1.53,1.14,-0.80,-0.14,0.05,-0.13,
2.931,1.53,1.14,-0.80,-0.13,0.04,-0.19,
2.931,1.53,1.14,-0.80,-0.13,0.02,-0.25,
2.932,1.53,1.14,-0.80,-0.14,0.00,-0.31,
2.935,1.58,1.31,-1.05,-0.14,0.00,-0.31,
2.936,1.58,1.31,-1.05,-0.14,-0.02,-0.37,
2.937,1.58,1.31,-1.05,-0.15,-0.04,-0.43,
2.938,1.58,1.31,-1.05,-0.16,-0.06,-0.49,
2.941,1.58,1.31,-1.05,-0.18,-0.09,-0.54,
2.942,1.58,1.31,-1.05,-0.19,-0.12,-0.59,
2.945,1.37,1.17,-1.00,-0.19,-0.12,-0.59,
2.946,1.37,1.17,-1.00,-0.20,-0.15,-0.64,
2.947,1.37,1.17,-1.00,-0.21,-0.18,-0.68,
2.948,1.37,1.17,-1.00,-0.22,-0.21,-0.72,
2.95,1.37,1.17,-1.00,-0.23,-0.24,-0.76,
2.953,1.37,1.17,-1.00,-0.23,-0.27,-0.79,
2.955,1.09,0.81,-0.64,-0.23,-0.27,-0.79,
2.955,1.09,0.81,-0.64,-0.23,-0.29,-0.82,
2.956,1.09,0.81,-0.64,-0.23,-0.31,-0.84,
2.958,1.09,0.81,-0.64,-0.23,-0.34,-0.85,
2.96,1.09,0.81,-0.64,-0.22,-0.35,-0.87,
2.963,1.09,0.81,-0.64,-0.21,-0.37,-0.87,
2.964,0.71,0.33,0.01,-0.21,-0.37,-0.87,
2.965,0.71,0.33,0.01,-0.19,-0.39,-0.88,
2.966,0.71,0.33,0.01,-0.18,-0.40,-0.88,
2.968,0.71,0.33,0.01,-0.16,-0.41,-0.87,
2.97,0.71,0.33,0.01,-0.13,-0.42,-0.87,
2.973,0.71,0.33,0.01,-0.10,-0.42,-0.86,
2.974,0.26,-0.04,0.64,-0.10,-0.42,-0.86,
2.975,0.26,-0.04,0.64,-0.08,-0.42,-0.84,
2.976,0.26,-0.04,0.64,-0.05,-0.41,-0.83,
2.978,0.26,-0.04,0.64,-0.02,-0.39,-0.81,
2.98,0.26,-0.04,0.64,0.00,-0.37,-0.79,
2.982,0.26,-0.04,0.64,0.03,-0.35,-0.76,
2.984,-0.11,-0.33,0.66,0.03,-0.35,-0.76,
2.985,-0.11,-0.33,0.66,0.05,-0.33,-0.73,
2.997,-0.11,-0.33,0.66,0.06,-0.32,-0.70,
2.998,-0.11,-0.33,0.66,0.08,-0.30,-0.67,
2.999,-0.11,-0.33,0.66,0.09,-0.29,-0.63,
2.999,-0.11,-0.33,0.66,0.10,-0.28,-0.60,
3.0,-0.37,-0.52,0.21,0.10,-0.28,-0.60,
3.0,-0.37,-0.52,0.21,0.11,-0.28,-0.54,
3.001,-0.37,-0.52,0.21,0.11,-0.29,-0.53,
3.001,-0.37,-0.52,0.21,0.11,-0.30,-0.50,
3.001,-0.37,-0.52,0.21,0.10,-0.31,-0.47,
3.017,-0.37,-0.52,0.21,0.10,-0.33,-0.44,
3.018,-0.46,-0.59,-0.31,0.10,-0.33,-0.44,
3.019,-0.46,-0.59,-0.31,0.08,-0.36,-0.40,
3.019,-0.46,-0.59,-0.31,0.07,-0.38,-0.38,
3.02,-0.46,-0.59,-0.31,0.06,-0.41,-0.37,
3.022,-0.46,-0.59,-0.31,0.05,-0.42,-0.36,
3.023,-0.46,-0.59,-0.31,0.04,-0.45,-0.35,
3.023,-0.40,-0.47,-0.47,0.04,-0.45,-0.35,
3.024,-0.40,-0.47,-0.47,0.02,-0.50,-0.34,
3.024,-0.40,-0.47,-0.47,0.02,-0.52,-0.34,
3.025,-0.40,-0.47,-0.47,0.01,-0.57,-0.34,
3.026,-0.40,-0.47,-0.47,0.01,-0.59,-0.34,
3.027,-0.40,-0.47,-0.47,0.01,-0.62,-0.34,
3.027,-0.03,-0.26,0.07,0.01,-0.62,-0.34,
3.027,-0.03,-0.26,0.07,0.02,-0.66,-0.35,
3.028,-0.03,-0.26,0.07,0.02,-0.67,-0.36,
3.056,-0.03,-0.26,0.07,0.03,-0.69,-0.37,
3.057,-0.03,-0.26,0.07,0.04,-0.69,-0.37,
3.057,-0.03,-0.26,0.07,0.05,-0.70,-0.38,
3.058,0.38,-0.11,0.54,0.05,-0.70,-0.38,
3.058,0.38,-0.11,0.54,0.06,-0.69,-0.41,
3.058,0.38,-0.11,0.54,0.06,-0.70,-0.42,
3.059,0.38,-0.11,0.54,0.06,-0.70,-0.45,
3.059,0.38,-0.11,0.54,0.05,-0.70,-0.47,
3.06,0.38,-0.11,0.54,0.05,-0.70,-0.48,
3.06,0.70,-0.29,0.58,0.05,-0.70,-0.48,
3.061,0.70,-0.29,0.58,0.06,-0.69,-0.49,
3.061,0.70,-0.29,0.58,0.06,-0.68,-0.49,
3.061,0.70,-0.29,0.58,0.06,-0.64,-0.50,
3.062,0.70,-0.29,0.58,0.06,-0.63,-0.50,
3.062,0.70,-0.29,0.58,0.06,-0.59,-0.50,
3.063,0.24,-0.10,0.75,0.06,-0.59,-0.50,
3.063,0.24,-0.10,0.75,0.07,-0.54,-0.50,
3.063,0.24,-0.10,0.75,0.07,-0.50,-0.51,
3.064,0.24,-0.10,0.75,0.07,-0.45,-0.51,
3.064,0.24,-0.10,0.75,0.07,-0.41,-0.51,
3.065,0.24,-0.10,0.75,0.06,-0.37,-0.52,
3.065,0.13,-0.03,0.73,0.06,-0.37,-0.52,
3.069,0.13,-0.03,0.73,0.05,-0.24,-0.54,
3.07,0.13,-0.03,0.73,0.05,-0.24,-0.54,
3.07,0.13,-0.03,0.73,0.05,-0.24,-0.54,
3.071,0.13,-0.03,0.73,0.05,-0.20,-0.54,
3.072,0.13,-0.03,0.73,0.04,-0.17,-0.56,
3.075,0.34,-0.10,0.55,0.04,-0.17,-0.56,
3.075,0.34,-0.10,0.55,0.03,-0.14,-0.56,
3.076,0.34,-0.10,0.55,0.02,-0.11,-0.57,
3.079,0.34,-0.10,0.55,0.01,-0.09,-0.58,
3.08,0.34,-0.10,0.55,-0.00,-0.07,-0.58,
3.082,0.34,-0.10,0.55,-0.01,-0.06,-0.59,
3.085,0.32,-0.23,0.44,-0.01,-0.06,-0.59,
3.085,0.32,-0.23,0.44,-0.02,-0.05,-0.59,
3.088,0.32,-0.23,0.44,-0.03,-0.04,-0.59,
3.089,0.32,-0.23,0.44,-0.04,-0.03,-0.59,
3.09,0.32,-0.23,0.44,-0.05,-0.02,-0.60,
3.092,0.32,-0.23,0.44,-0.06,-0.01,-0.60,
3.095,0.24,-0.25,0.35,-0.06,-0.01,-0.60,
3.095,0.24,-0.25,0.35,-0.07,-0.00,-0.60,
3.096,0.24,-0.25,0.35,-0.08,-0.00,-0.60,
3.098,0.24,-0.25,0.35,-0.09,0.00,-0.60,
3.1,0.24,-0.25,0.35,-0.10,-0.00,-0.61,
3.102,0.24,-0.25,0.35,-0.11,-0.00,-0.61,
3.106,0.25,-0.18,0.22,-0.11,-0.00,-0.61,
3.107,0.25,-0.18,0.22,-0.11,-0.01,-0.62,
3.109,0.25,-0.18,0.22,-0.12,-0.02,-0.62,
3.11,0.25,-0.18,0.22,-0.12,-0.03,-0.63,
3.11,0.25,-0.18,0.22,-0.13,-0.04,-0.63,
3.113,0.25,-0.18,0.22,-0.13,-0.05,-0.63,
3.115,0.24,-0.18,0.27,-0.13,-0.05,-0.63,
3.115,0.24,-0.18,0.27,-0.13,-0.06,-0.64,
3.116,0.24,-0.18,0.27,-0.13,-0.08,-0.64,
3.119,0.24,-0.18,0.27,-0.12,-0.09,-0.64,
3.12,0.24,-0.18,0.27,-0.12,-0.11,-0.64,
3.122,0.24,-0.18,0.27,-0.11,-0.12,-0.64,
3.125,0.08,-0.25,0.42,-0.11,-0.12,-0.64,
3.126,0.08,-0.25,0.42,-0.10,-0.14,-0.64,
3.127,0.08,-0.25,0.42,-0.09,-0.16,-0.64,
3.13,0.08,-0.25,0.42,-0.08,-0.18,-0.64,
3.13,0.08,-0.25,0.42,-0.07,-0.19,-0.64,
3.133,0.08,-0.25,0.42,-0.06,-0.21,-0.64,
3.135,-0.01,-0.33,0.63,-0.06,-0.21,-0.64,
3.135,-0.01,-0.33,0.63,-0.04,-0.22,-0.64,
3.141,-0.01,-0.33,0.63,-0.03,-0.23,-0.63,
3.142,-0.01,-0.33,0.63,-0.01,-0.24,-0.63,
3.143,-0.01,-0.33,0.63,0.01,-0.25,-0.62,
3.144,-0.01,-0.33,0.63,0.02,-0.25,-0.62,
3.145,-0.12,-0.41,0.66,0.02,-0.25,-0.62,
3.145,-0.12,-0.41,0.66,0.04,-0.26,-0.61,
3.146,-0.12,-0.41,0.66,0.05,-0.27,-0.60,
3.152,-0.12,-0.41,0.66,0.06,-0.27,-0.59,
3.153,-0.12,-0.41,0.66,0.07,-0.27,-0.58,
3.153,-0.12,-0.41,0.66,0.08,-0.26,-0.56,
3.159,-0.29,-0.52,0.54,0.08,-0.26,-0.56,
3.16,-0.29,-0.52,0.54,0.09,-0.25,-0.55,
3.161,-0.29,-0.52,0.54,0.09,-0.24,-0.54,
3.161,-0.29,-0.52,0.54,0.10,-0.22,-0.52,
3.161,-0.29,-0.52,0.54,0.10,-0.20,-0.51,
3.162,-0.29,-0.52,0.54,0.10,-0.18,-0.50,
3.164,-0.37,-0.57,0.44,0.10,-0.18,-0.50,
3.165,-0.37,-0.57,0.44,0.10,-0.15,-0.48,
3.166,-0.37,-0.57,0.44,0.10,-0.13,-0.47,
3.169,-0.37,-0.57,0.44,0.10,-0.11,-0.45,
3.171,-0.37,-0.57,0.44,0.10,-0.09,-0.44,
3.172,-0.37,-0.57,0.44,0.09,-0.06,-0.42,
3.175,-0.43,-0.53,0.09,0.09,-0.06,-0.42,
3.175,-0.43,-0.53,0.09,0.08,-0.05,-0.41,
3.176,-0.43,-0.53,0.09,0.07,-0.03,-0.40,
3.178,-0.43,-0.53,0.09,0.06,-0.01,-0.38,
3.18,-0.43,-0.53,0.09,0.05,-0.00,-0.37,
3.186,-0.43,-0.53,0.09,0.04,0.01,-0.35,
3.186,-0.43,-0.41,-0.36,0.04,0.01,-0.35,
3.187,-0.43,-0.41,-0.36,0.03,0.03,-0.34,
3.187,-0.43,-0.41,-0.36,0.02,0.04,-0.33,
3.188,-0.43,-0.41,-0.36,0.00,0.05,-0.31,
3.191,-0.43,-0.41,-0.36,-0.01,0.06,-0.30,
3.192,-0.43,-0.41,-0.36,-0.03,0.06,-0.29,
3.194,-0.39,-0.34,-0.62,-0.03,0.06,-0.29,
3.228,-0.39,-0.34,-0.62,-0.04,0.07,-0.28,
3.228,-0.39,-0.34,-0.62,-0.05,0.07,-0.27,
3.229,-0.39,-0.34,-0.62,-0.06,0.06,-0.26,
3.229,-0.39,-0.34,-0.62,-0.07,0.06,-0.25,
3.23,-0.39,-0.34,-0.62,-0.08,0.04,-0.24,
3.23,-0.34,-0.26,-0.63,-0.08,0.04,-0.24,
3.23,-0.34,-0.26,-0.63,-0.09,0.03,-0.23,
3.231,-0.34,-0.26,-0.63,-0.09,0.00,-0.22,
3.231,-0.34,-0.26,-0.63,-0.09,-0.03,-0.22,
3.232,-0.34,-0.26,-0.63,-0.09,-0.06,-0.21,
3.232,-0.34,-0.26,-0.63,-0.08,-0.10,-0.20,
3.233,-0.20,-0.22,-0.29,-0.08,-0.10,-0.20,
3.233,-0.20,-0.22,-0.29,-0.08,-0.14,-0.20,
3.234,-0.20,-0.22,-0.29,-0.07,-0.17,-0.20,
3.234,-0.20,-0.22,-0.29,-0.05,-0.21,-0.19,
3.235,-0.20,-0.22,-0.29,-0.03,-0.24,-0.19,
3.235,-0.20,-0.22,-0.29,-0.01,-0.27,-0.19,
3.236,0.03,-0.21,0.25,-0.01,-0.27,-0.19,
3.237,0.03,-0.21,0.25,0.01,-0.30,-0.19,
3.237,0.03,-0.21,0.25,0.04,-0.33,-0.19,
3.238,0.03,-0.21,0.25,0.07,-0.36,-0.19,
3.238,0.03,-0.21,0.25,0.10,-0.38,-0.19,
3.238,0.03,-0.21,0.25,0.13,-0.41,-0.19,
3.239,0.31,-0.21,0.87,0.13,-0.41,-0.19,
3.239,0.31,-0.21,0.87,0.16,-0.44,-0.19,
3.24,0.31,-0.21,0.87,0.20,-0.47,-0.20,
3.24,0.31,-0.21,0.87,0.23,-0.50,-0.21,
3.241,0.31,-0.21,0.87,0.27,-0.52,-0.21,
3.244,0.31,-0.21,0.87,0.30,-0.54,-0.22,
3.245,0.48,-0.18,1.11,0.30,-0.54,-0.22,
3.245,0.48,-0.18,1.11,0.32,-0.55,-0.23,
3.246,0.48,-0.18,1.11,0.34,-0.55,-0.23,
3.248,0.48,-0.18,1.11,0.36,-0.55,-0.24,
3.25,0.48,-0.18,1.11,0.37,-0.54,-0.25,
3.253,0.48,-0.18,1.11,0.37,-0.53,-0.26,
3.255,0.79,-0.28,0.57,0.37,-0.53,-0.26,
3.255,0.79,-0.28,0.57,0.37,-0.51,-0.27,
3.256,0.79,-0.28,0.57,0.36,-0.48,-0.27,
3.258,0.79,-0.28,0.57,0.34,-0.45,-0.27,
3.26,0.79,-0.28,0.57,0.33,-0.41,-0.27,
3.262,0.79,-0.28,0.57,0.31,-0.37,-0.27,
3.264,0.52,-0.13,-0.14,0.31,-0.37,-0.27,
3.265,0.52,-0.13,-0.14,0.28,-0.33,-0.26,
3.268,0.52,-0.13,-0.14,0.26,-0.28,-0.26,
3.269,0.52,-0.13,-0.14,0.22,-0.23,-0.26,
3.281,0.52,-0.13,-0.14,0.19,-0.18,-0.26,
3.282,0.52,-0.13,-0.14,0.16,-0.12,-0.26,
3.283,0.42,-0.08,-0.73,0.16,-0.12,-0.26,
3.283,0.42,-0.08,-0.73,0.12,-0.07,-0.26,
3.284,0.42,-0.08,-0.73,0.09,-0.01,-0.26,
3.284,0.42,-0.08,-0.73,0.05,0.04,-0.27,
3.285,0.42,-0.08,-0.73,0.01,0.09,-0.27,
3.286,0.42,-0.08,-0.73,-0.02,0.13,-0.28,
3.286,0.49,-0.14,-0.98,-0.02,0.13,-0.28,
3.291,0.49,-0.14,-0.98,-0.06,0.16,-0.28,
3.292,0.49,-0.14,-0.98,-0.09,0.19,-0.29,
3.302,0.49,-0.14,-0.98,-0.12,0.21,-0.30,
3.303,0.49,-0.14,-0.98,-0.15,0.23,-0.31,
3.304,0.49,-0.14,-0.98,-0.18,0.23,-0.32,
3.304,0.81,-0.18,-0.90,-0.18,0.23,-0.32,
3.304,0.81,-0.18,-0.90,-0.20,0.24,-0.34,
3.304,0.81,-0.18,-0.90,-0.21,0.25,-0.34,
3.305,0.81,-0.18,-0.90,-0.22,0.25,-0.34,
3.305,0.81,-0.18,-0.90,-0.22,0.25,-0.34,
3.305,0.81,-0.18,-0.90,-0.23,0.25,-0.33,
3.306,0.19,0.08,-0.31,-0.23,0.25,-0.33,
3.306,0.19,0.08,-0.31,-0.22,0.24,-0.33,
3.306,0.19,0.08,-0.31,-0.22,0.23,-0.33,
3.308,0.19,0.08,-0.31,-0.21,0.21,-0.33,
3.31,0.19,0.08,-0.31,-0.20,0.19,-0.33,
3.312,0.19,0.08,-0.31,-0.19,0.16,-0.33,
3.314,0.28,-0.00,0.14,-0.19,0.16,-0.33,
3.315,0.28,-0.00,0.14,-0.18,0.13,-0.34,
3.316,0.28,-0.00,0.14,-0.17,0.10,-0.34,
3.319,0.28,-0.00,0.14,-0.15,0.07,-0.35,
3.32,0.28,-0.00,0.14,-0.13,0.03,-0.35,
3.322,0.28,-0.00,0.14,-0.11,-0.00,-0.36,
3.325,0.37,-0.29,0.49,-0.11,-0.00,-0.36,
3.326,0.37,-0.29,0.49,-0.09,-0.04,-0.36,
3.327,0.37,-0.29,0.49,-0.07,-0.07,-0.36,
3.328,0.37,-0.29,0.49,-0.04,-0.11,-0.36,
3.33,0.37,-0.29,0.49,-0.02,-0.14,-0.36,
3.332,0.37,-0.29,0.49,0.00,-0.17,-0.36,
3.335,0.31,-0.39,0.71,0.00,-0.17,-0.36,
3.336,0.31,-0.39,0.71,0.03,-0.20,-0.36,
3.336,0.31,-0.39,0.71,0.05,-0.23,-0.35,
3.338,0.31,-0.39,0.71,0.08,-0.25,-0.35,
3.34,0.31,-0.39,0.71,0.10,-0.27,-0.35,
3.342,0.31,-0.39,0.71,0.12,-0.29,-0.34,
3.344,0.27,-0.47,0.75,0.12,-0.29,-0.34,
3.345,0.27,-0.47,0.75,0.14,-0.31,-0.34,
3.346,0.27,-0.47,0.75,0.16,-0.32,-0.33,
3.348,0.27,-0.47,0.75,0.17,-0.33,-0.33,
3.35,0.27,-0.47,0.75,0.19,-0.34,-0.32,
3.355,0.27,-0.47,0.75,0.19,-0.35,-0.32,
3.357,0.30,-0.55,0.53,0.19,-0.35,-0.32,
3.357,0.30,-0.55,0.53,0.20,-0.35,-0.32,
3.358,0.30,-0.55,0.53,0.21,-0.35,-0.32,
3.359,0.30,-0.55,0.53,0.21,-0.36,-0.32,
3.36,0.30,-0.55,0.53,0.21,-0.36,-0.32,
3.386,0.30,-0.55,0.53,0.21,-0.36,-0.32,
3.386,0.46,-0.46,0.15,0.21,-0.36,-0.32,
3.387,0.46,-0.46,0.15,0.21,-0.35,-0.32,
3.387,0.46,-0.46,0.15,0.21,-0.35,-0.32,
3.388,0.46,-0.46,0.15,0.20,-0.34,-0.33,
3.389,0.46,-0.46,0.15,0.19,-0.33,-0.33,
3.389,0.46,-0.46,0.15,0.18,-0.32,-0.33,
3.389,0.38,-0.26,-0.28,0.18,-0.32,-0.33,
3.39,0.38,-0.26,-0.28,0.17,-0.31,-0.33,
3.39,0.38,-0.26,-0.28,0.16,-0.29,-0.32,
3.39,0.38,-0.26,-0.28,0.14,-0.28,-0.32,
3.39,0.38,-0.26,-0.28,0.12,-0.28,-0.30,
3.391,0.38,-0.26,-0.28,0.12,-0.30,-0.27,
3.391,-0.21,-0.56,-0.52,0.12,-0.30,-0.27,
3.391,-0.21,-0.56,-0.52,0.12,-0.33,-0.22,
3.391,-0.21,-0.56,-0.52,0.12,-0.34,-0.18,
3.392,-0.21,-0.56,-0.52,0.11,-0.34,-0.15,
3.392,-0.21,-0.56,-0.52,0.10,-0.34,-0.13,
3.392,-0.21,-0.56,-0.52,0.08,-0.34,-0.11,
3.395,-0.35,-0.54,-0.79,0.08,-0.34,-0.11,
3.395,-0.35,-0.54,-0.79,0.05,-0.33,-0.10,
3.396,-0.35,-0.54,-0.79,0.01,-0.32,-0.09,
3.398,-0.35,-0.54,-0.79,-0.02,-0.30,-0.10,
3.404,-0.35,-0.54,-0.79,-0.06,-0.27,-0.11,
3.404,-0.35,-0.54,-0.79,-0.10,-0.23,-0.13,
3.405,0.37,0.06,-1.23,-0.10,-0.23,-0.13,
3.405,0.37,0.06,-1.23,-0.14,-0.19,-0.14,
3.406,0.37,0.06,-1.23,-0.17,-0.16,-0.16,
3.408,0.37,0.06,-1.23,-0.19,-0.13,-0.17,
3.41,0.37,0.06,-1.23,-0.21,-0.10,-0.18,
3.412,0.37,0.06,-1.23,-0.22,-0.08,-0.19,
3.414,0.47,-0.01,-0.58,-0.22,-0.08,-0.19,
3.415,0.47,-0.01,-0.58,-0.22,-0.07,-0.19,
3.416,0.47,-0.01,-0.58,-0.22,-0.06,-0.19,
3.428,0.47,-0.01,-0.58,-0.22,-0.06,-0.19,
3.429,0.47,-0.01,-0.58,-0.21,-0.07,-0.19,
3.429,0.47,-0.01,-0.58,-0.20,-0.08,-0.18,
3.429,0.42,-0.26,0.17,-0.20,-0.08,-0.18,
3.429,0.42,-0.26,0.17,-0.19,-0.09,-0.18,
3.429,0.42,-0.26,0.17,-0.17,-0.10,-0.17,
3.433,0.42,-0.26,0.17,-0.16,-0.11,-0.17,
3.433,0.42,-0.26,0.17,-0.14,-0.12,-0.16,
3.433,0.42,-0.26,0.17,-0.12,-0.13,-0.15,
3.455,0.43,-0.19,0.64,-0.12,-0.13,-0.15,
3.457,0.43,-0.19,0.64,-0.10,-0.13,-0.15,
3.458,0.43,-0.19,0.64,-0.08,-0.13,-0.15,
3.458,0.43,-0.19,0.64,-0.06,-0.14,-0.14,
3.458,0.43,-0.19,0.64,-0.05,-0.14,-0.14,
3.459,0.43,-0.19,0.64,-0.03,-0.14,-0.14,
3.459,0.42,-0.20,0.57,-0.03,-0.14,-0.14,
3.459,0.42,-0.20,0.57,-0.02,-0.14,-0.14,
3.46,0.42,-0.20,0.57,-0.01,-0.14,-0.14,
3.46,0.42,-0.20,0.57,-0.00,-0.15,-0.14,
3.461,0.42,-0.20,0.57,0.01,-0.15,-0.13,
3.461,0.42,-0.20,0.57,0.01,-0.15,-0.13,
3.461,0.39,-0.21,0.34,0.01,-0.15,-0.13,
3.462,0.39,-0.21,0.34,0.02,-0.16,-0.13,
3.462,0.39,-0.21,0.34,0.03,-0.16,-0.12,
3.463,0.39,-0.21,0.34,0.03,-0.17,-0.12,
3.463,0.39,-0.21,0.34,0.04,-0.17,-0.11,
3.463,0.39,-0.21,0.34,0.04,-0.17,-0.11,
3.465,0.34,-0.11,0.10,0.04,-0.17,-0.11,
3.467,0.34,-0.11,0.10,0.04,-0.16,-0.10,
3.467,0.34,-0.11,0.10,0.04,-0.16,-0.10,
3.468,0.34,-0.11,0.10,0.04,-0.15,-0.10,
3.472,0.34,-0.11,0.10,0.03,-0.15,-0.10,
3.474,0.34,-0.11,0.10,0.02,-0.14,-0.09,
3.476,0.29,-0.02,-0.19,0.02,-0.14,-0.09,
3.477,0.29,-0.02,-0.19,0.01,-0.13,-0.09,
3.477,0.29,-0.02,-0.19,0.01,-0.12,-0.09,
3.478,0.29,-0.02,-0.19,-0.01,-0.10,-0.08,
3.48,0.29,-0.02,-0.19,-0.02,-0.09,-0.08,
3.482,0.29,-0.02,-0.19,-0.03,-0.08,-0.08,
3.486,0.22,0.03,-0.47,-0.03,-0.08,-0.08,
3.488,0.22,0.03,-0.47,-0.04,-0.06,-0.07,
3.489,0.22,0.03,-0.47,-0.06,-0.04,-0.07,
3.49,0.22,0.03,-0.47,-0.07,-0.03,-0.07,
3.491,0.22,0.03,-0.47,-0.09,-0.01,-0.06,
3.492,0.22,0.03,-0.47,-0.10,-0.00,-0.06,
3.495,0.28,0.10,-0.55,-0.10,-0.00,-0.06,
3.496,0.28,0.10,-0.55,-0.11,0.01,-0.06,
3.496,0.28,0.10,-0.55,-0.12,0.02,-0.06,
3.498,0.28,0.10,-0.55,-0.13,0.04,-0.06,
3.503,0.28,0.10,-0.55,-0.14,0.05,-0.06,
3.506,0.28,0.10,-0.55,-0.14,0.06,-0.06,
3.506,0.37,0.19,-0.42,-0.14,0.06,-0.06,
3.507,0.37,0.19,-0.42,-0.15,0.08,-0.07,
3.507,0.37,0.19,-0.42,-0.15,0.09,-0.07,
3.508,0.37,0.19,-0.42,-0.16,0.11,-0.07,
3.511,0.37,0.19,-0.42,-0.17,0.12,-0.08,
3.512,0.37,0.19,-0.42,-0.17,0.14,-0.08,
3.515,0.40,0.26,-0.32,-0.17,0.14,-0.08,
3.516,0.40,0.26,-0.32,-0.17,0.15,-0.09,
3.52,0.40,0.26,-0.32,-0.18,0.16,-0.10,
3.523,0.40,0.26,-0.32,-0.18,0.16,-0.11,
3.523,0.40,0.26,-0.32,-0.19,0.17,-0.11,
3.524,0.40,0.26,-0.32,-0.19,0.17,-0.12,
3.525,0.41,0.27,-0.26,-0.19,0.17,-0.12,
3.526,0.41,0.27,-0.26,-0.19,0.17,-0.13,
3.527,0.41,0.27,-0.26,-0.19,0.17,-0.14,
3.565,0.41,0.27,-0.26,-0.18,0.17,-0.14,
3.567,0.41,0.27,-0.26,-0.18,0.16,-0.15,
3.567,0.41,0.27,-0.26,-0.18,0.15,-0.16,
3.568,0.40,0.26,-0.03,-0.18,0.15,-0.16,
3.569,0.40,0.26,-0.03,-0.17,0.14,-0.16,
3.569,0.40,0.26,-0.03,-0.16,0.13,-0.17,
3.57,0.40,0.26,-0.03,-0.15,0.12,-0.18,
3.57,0.40,0.26,-0.03,-0.14,0.11,-0.18,
3.571,0.40,0.26,-0.03,-0.13,0.10,-0.19,
3.571,0.35,0.21,0.24,-0.13,0.10,-0.19,
3.572,0.35,0.21,0.24,-0.12,0.09,-0.20,
3.575,0.35,0.21,0.24,-0.11,0.08,-0.21,
3.575,0.35,0.21,0.24,-0.10,0.07,-0.21,
3.576,0.35,0.21,0.24,-0.09,0.07,-0.22,
3.576,0.35,0.21,0.24,-0.07,0.06,-0.23,
3.577,0.34,0.20,0.41,-0.07,0.06,-0.23,
3.577,0.34,0.20,0.41,-0.06,0.06,-0.23,
3.577,0.34,0.20,0.41,-0.05,0.06,-0.24,
3.578,0.34,0.20,0.41,-0.04,0.06,-0.24,
3.578,0.34,0.20,0.41,-0.02,0.05,-0.24,
3.579,0.34,0.20,0.41,-0.01,0.05,-0.24,
3.579,0.18,0.12,0.45,-0.01,0.05,-0.24,
3.579,0.18,0.12,0.45,-0.00,0.05,-0.24,
3.58,0.18,0.12,0.45,0.01,0.05,-0.24,
3.581,0.18,0.12,0.45,0.02,0.04,-0.24,
3.581,0.18,0.12,0.45,0.03,0.04,-0.23,
3.581,0.18,0.12,0.45,0.04,0.03,-0.23,
3.582,-0.02,0.00,0.40,0.04,0.03,-0.23,
3.583,-0.02,0.00,0.40,0.05,0.03,-0.22,
3.583,-0.02,0.00,0.40,0.06,0.03,-0.21,
3.583,-0.02,0.00,0.40,0.07,0.02,-0.21,
3.584,-0.02,0.00,0.40,0.08,0.02,-0.20,
3.585,-0.02,0.00,0.40,0.08,0.01,-0.20,
3.585,-0.15,-0.07,0.26,0.08,0.01,-0.20,
3.585,-0.15,-0.07,0.26,0.09,0.01,-0.19,
3.586,-0.15,-0.07,0.26,0.09,0.01,-0.18,
3.589,-0.15,-0.07,0.26,0.10,0.01,-0.18,
3.592,-0.15,-0.07,0.26,0.09,0.00,-0.18,
3.592,-0.15,-0.07,0.26,0.10,-0.00,-0.17,
3.595,-0.15,-0.05,0.07,0.10,-0.00,-0.17,
3.595,-0.15,-0.05,0.07,0.10,0.00,-0.17,
3.596,-0.15,-0.05,0.07,0.10,0.00,-0.17,
3.598,-0.15,-0.05,0.07,0.09,0.00,-0.16,
3.609,-0.15,-0.05,0.07,0.09,0.01,-0.16,
3.613,-0.15,-0.05,0.07,0.08,0.01,-0.16,
3.614,-0.06,-0.04,-0.19,0.08,0.01,-0.16,
3.615,-0.06,-0.04,-0.19,0.07,0.02,-0.15,
3.616,-0.06,-0.04,-0.19,0.06,0.02,-0.15,
3.617,-0.06,-0.04,-0.19,0.05,0.03,-0.15,
3.617,-0.06,-0.04,-0.19,0.04,0.04,-0.15,
3.617,-0.06,-0.04,-0.19,0.03,0.05,-0.14,
3.617,-0.00,-0.07,-0.44,0.03,0.05,-0.14,
3.618,-0.00,-0.07,-0.44,0.02,0.06,-0.14,
3.633,-0.00,-0.07,-0.44,0.00,0.06,-0.14,
3.634,-0.00,-0.07,-0.44,-0.01,0.07,-0.13,
3.635,-0.00,-0.07,-0.44,-0.03,0.08,-0.13,
3.636,-0.00,-0.07,-0.44,-0.04,0.08,-0.13,
3.637,0.08,-0.08,-0.53,-0.04,0.08,-0.13,
3.637,0.08,-0.08,-0.53,-0.06,0.09,-0.13,
3.638,0.08,-0.08,-0.53,-0.07,0.09,-0.13,
3.638,0.08,-0.08,-0.53,-0.08,0.09,-0.13,
3.639,0.08,-0.08,-0.53,-0.09,0.10,-0.13,
3.639,0.08,-0.08,-0.53,-0.10,0.10,-0.13,
3.64,0.11,-0.10,-0.41,-0.10,0.10,-0.13,
3.64,0.11,-0.10,-0.41,-0.11,0.10,-0.13,
3.641,0.11,-0.10,-0.41,-0.12,0.10,-0.13,
3.641,0.11,-0.10,-0.41,-0.12,0.10,-0.13,
3.642,0.11,-0.10,-0.41,-0.13,0.10,-0.13,
3.642,0.11,-0.10,-0.41,-0.13,0.10,-0.13,
3.645,0.12,-0.11,-0.15,-0.13,0.10,-0.13,
3.646,0.12,-0.11,-0.15,-0.13,0.10,-0.13,
3.646,0.12,-0.11,-0.15,-0.13,0.10,-0.13,
3.648,0.12,-0.11,-0.15,-0.13,0.09,-0.13,
3.651,0.12,-0.11,-0.15,-0.13,0.09,-0.13,
3.653,0.12,-0.11,-0.15,-0.12,0.09,-0.13,
3.655,0.12,-0.14,0.14,-0.12,0.09,-0.13,
3.655,0.12,-0.14,0.14,-0.12,0.08,-0.13,
3.656,0.12,-0.14,0.14,-0.11,0.08,-0.12,
3.659,0.12,-0.14,0.14,-0.10,0.07,-0.12,
3.66,0.12,-0.14,0.14,-0.10,0.06,-0.12,
3.662,0.12,-0.14,0.14,-0.09,0.05,-0.11,
3.665,0.07,-0.18,0.35,-0.09,0.05,-0.11,
3.666,0.07,-0.18,0.35,-0.08,0.05,-0.11,
3.67,0.07,-0.18,0.35,-0.07,0.03,-0.11,
3.672,0.07,-0.18,0.35,-0.06,0.02,-0.10,
3.673,0.07,-0.18,0.35,-0.05,0.01,-0.10,
3.675,0.07,-0.18,0.35,-0.04,0.00,-0.10,
3.676,0.05,-0.20,0.48,-0.04,0.00,-0.10,
3.676,0.05,-0.20,0.48,-0.03,-0.01,-0.09,
3.677,0.05,-0.20,0.48,-0.01,-0.02,-0.09,
3.678,0.05,-0.20,0.48,-0.00,-0.03,-0.09,
3.68,0.05,-0.20,0.48,0.01,-0.04,-0.08,
3.685,0.05,-0.20,0.48,0.01,-0.05,-0.08,
3.687,0.05,-0.16,0.52,0.01,-0.05,-0.08,
3.689,0.05,-0.16,0.52,0.02,-0.06,-0.08,
3.689,0.05,-0.16,0.52,0.04,-0.07,-0.08,
3.69,0.05,-0.16,0.52,0.04,-0.08,-0.08,
3.691,0.05,-0.16,0.52,0.05,-0.08,-0.07,
3.693,0.05,-0.16,0.52,0.06,-0.09,-0.07,
3.695,0.06,-0.13,0.43,0.06,-0.09,-0.07,
3.728,0.06,-0.13,0.43,0.07,-0.09,-0.07,
3.728,0.06,-0.13,0.43,0.07,-0.10,-0.06,
3.729,0.06,-0.13,0.43,0.08,-0.10,-0.06,
3.729,0.06,-0.13,0.43,0.08,-0.10,-0.06,
3.73,0.06,-0.13,0.43,0.08,-0.11,-0.06,
3.73,0.06,-0.07,0.24,0.08,-0.11,-0.06,
3.731,0.06,-0.07,0.24,0.08,-0.11,-0.05,
3.731,0.06,-0.07,0.24,0.08,-0.11,-0.05,
3.731,0.06,-0.07,0.24,0.07,-0.11,-0.05,
3.732,0.06,-0.07,0.24,0.07,-0.11,-0.04,
3.732,0.06,-0.07,0.24,0.07,-0.11,-0.04,
3.733,0.12,-0.02,0.02,0.07,-0.11,-0.04,
3.733,0.12,-0.02,0.02,0.06,-0.11,-0.04,
3.733,0.12,-0.02,0.02,0.05,-0.11,-0.04,
3.734,0.12,-0.02,0.02,0.05,-0.10,-0.04,
3.734,0.12,-0.02,0.02,0.04,-0.10,-0.04,
3.735,0.12,-0.02,0.02,0.04,-0.09,-0.04,
3.735,0.15,0.07,-0.10,0.04,-0.09,-0.04,
3.735,0.15,0.07,-0.10,0.03,-0.09,-0.04,
3.736,0.15,0.07,-0.10,0.02,-0.08,-0.04,
3.736,0.15,0.07,-0.10,0.01,-0.07,-0.04,
3.737,0.15,0.07,-0.10,0.00,-0.07,-0.03,
3.737,0.15,0.07,-0.10,-0.01,-0.06,-0.03,
3.738,0.11,0.12,-0.17,-0.01,-0.06,-0.03,
3.738,0.11,0.12,-0.17,-0.01,-0.05,-0.03,
3.738,0.11,0.12,-0.17,-0.02,-0.05,-0.03,
3.739,0.11,0.12,-0.17,-0.03,-0.04,-0.03,
3.751,0.11,0.12,-0.17,-0.04,-0.04,-0.03,
3.752,0.11,0.12,-0.17,-0.05,-0.03,-0.03,
3.752,0.07,0.11,-0.16,-0.05,-0.03,-0.03,
3.753,0.07,0.11,-0.16,-0.05,-0.03,-0.02,
3.753,0.07,0.11,-0.16,-0.06,-0.02,-0.02,
3.753,0.07,0.11,-0.16,-0.06,-0.02,-0.02,
3.753,0.07,0.11,-0.16,-0.06,-0.02,-0.02,
3.754,0.07,0.11,-0.16,-0.07,-0.02,-0.01,
3.756,0.05,0.14,-0.08,-0.07,-0.02,-0.01,
3.756,0.05,0.14,-0.08,-0.07,-0.02,-0.01,
3.761,0.05,0.14,-0.08,-0.07,-0.02,-0.01,
3.761,0.05,0.14,-0.08,-0.06,-0.02,-0.01,
3.761,0.05,0.14,-0.08,-0.06,-0.03,-0.01,
3.762,0.05,0.14,-0.08,-0.06,-0.03,-0.01,
3.771,0.07,0.15,-0.02,-0.06,-0.03,-0.01,
3.772,0.07,0.15,-0.02,-0.06,-0.04,-0.01,
3.773,0.07,0.15,-0.02,-0.05,-0.04,-0.01,
3.773,0.07,0.15,-0.02,-0.05,-0.05,-0.01,
3.774,0.07,0.15,-0.02,-0.05,-0.06,-0.01,
3.774,0.07,0.15,-0.02,-0.04,-0.07,-0.01,
3.775,0.14,0.22,0.05,-0.04,-0.07,-0.01,
3.775,0.14,0.22,0.05,-0.04,-0.08,-0.01,
3.776,0.14,0.22,0.05,-0.03,-0.09,-0.01,
3.778,0.14,0.22,0.05,-0.03,-0.09,-0.01,
3.78,0.14,0.22,0.05,-0.02,-0.10,-0.02,
3.784,0.14,0.22,0.05,-0.01,-0.11,-0.02,
3.786,0.24,0.25,0.19,-0.01,-0.11,-0.02,
3.786,0.24,0.25,0.19,0.00,-0.11,-0.02,
3.787,0.24,0.25,0.19,0.01,-0.12,-0.02,
3.788,0.24,0.25,0.19,0.02,-0.12,-0.02,
3.79,0.24,0.25,0.19,0.04,-0.12,-0.03,
3.792,0.24,0.25,0.19,0.05,-0.12,-0.03,
3.794,0.39,0.29,0.32,0.05,-0.12,-0.03,
3.795,0.39,0.29,0.32,0.06,-0.12,-0.04,
3.797,0.39,0.29,0.32,0.07,-0.11,-0.04,
3.799,0.39,0.29,0.32,0.08,-0.10,-0.05,
3.801,0.39,0.29,0.32,0.08,-0.09,-0.05,
3.802,0.39,0.29,0.32,0.09,-0.08,-0.06,
3.805,0.45,0.35,0.14,0.09,-0.08,-0.06,
3.806,0.45,0.35,0.14,0.09,-0.07,-0.06,
3.806,0.45,0.35,0.14,0.09,-0.06,-0.06,
3.808,0.45,0.35,0.14,0.08,-0.05,-0.07,
3.81,0.45,0.35,0.14,0.08,-0.04,-0.07,
3.813,0.45,0.35,0.14,0.07,-0.03,-0.07,
3.818,0.42,0.41,-0.28,0.07,-0.03,-0.07,
3.82,0.42,0.41,-0.28,0.06,-0.02,-0.08,
3.821,0.42,0.41,-0.28,0.05,-0.02,-0.08,
3.821,0.42,0.41,-0.28,0.04,-0.01,-0.08,
3.821,0.42,0.41,-0.28,0.02,-0.00,-0.08,
3.824,0.42,0.41,-0.28,0.01,0.00,-0.09,
3.825,0.32,0.40,-0.66,0.01,0.00,-0.09,
3.825,0.32,0.40,-0.66,-0.00,0.01,-0.09,
3.826,0.32,0.40,-0.66,-0.02,0.01,-0.09,
3.828,0.32,0.40,-0.66,-0.04,0.02,-0.10,
3.831,0.32,0.40,-0.66,-0.05,0.02,-0.10,
3.832,0.32,0.40,-0.66,-0.07,0.03,-0.11,
3.844,0.28,0.44,-0.82,-0.07,0.03,-0.11,
3.845,0.28,0.44,-0.82,-0.08,0.03,-0.11,
3.845,0.28,0.44,-0.82,-0.09,0.03,-0.11,
3.846,0.28,0.44,-0.82,-0.10,0.02,-0.12,
3.846,0.28,0.44,-0.82,-0.11,0.02,-0.12,
3.847,0.28,0.44,-0.82,-0.11,0.02,-0.13,
3.847,0.30,0.40,-0.64,-0.11,0.02,-0.13,
3.848,0.30,0.40,-0.64,-0.12,0.01,-0.14,
3.849,0.30,0.40,-0.64,-0.12,0.01,-0.14,
3.851,0.30,0.40,-0.64,-0.12,0.00,-0.15,
3.853,0.30,0.40,-0.64,-0.12,-0.01,-0.16,
3.853,0.30,0.40,-0.64,-0.11,-0.02,-0.16,
3.869,0.30,0.35,-0.35,-0.11,-0.02,-0.16,
3.871,0.30,0.35,-0.35,-0.11,-0.02,-0.17,
3.871,0.30,0.35,-0.35,-0.10,-0.04,-0.17,
3.872,0.30,0.35,-0.35,-0.09,-0.05,-0.18,
3.873,0.30,0.35,-0.35,-0.09,-0.06,-0.18,
3.906,0.30,0.35,-0.35,-0.08,-0.07,-0.18,
3.906,0.17,0.25,-0.13,-0.08,-0.07,-0.18,
3.907,0.17,0.25,-0.13,-0.07,-0.08,-0.19,
3.907,0.17,0.25,-0.13,-0.07,-0.09,-0.19,
3.907,0.17,0.25,-0.13,-0.06,-0.10,-0.19,
3.908,0.17,0.25,-0.13,-0.05,-0.11,-0.19,
3.909,0.17,0.25,-0.13,-0.04,-0.12,-0.19,
3.909,-0.01,0.14,0.06,-0.04,-0.12,-0.19,
3.91,-0.01,0.14,0.06,-0.02,-0.13,-0.19,
3.91,-0.01,0.14,0.06,-0.02,-0.14,-0.18,
3.911,-0.01,0.14,0.06,-0.01,-0.14,-0.18,
3.911,-0.01,0.14,0.06,0.00,-0.15,-0.18,
3.912,-0.01,0.14,0.06,0.01,-0.15,-0.18,
3.913,-0.05,0.05,0.08,0.01,-0.15,-0.18,
3.913,-0.05,0.05,0.08,0.02,-0.15,-0.18,
3.913,-0.05,0.05,0.08,0.02,-0.15,-0.17,
3.914,-0.05,0.05,0.08,0.03,-0.15,-0.17,
3.914,-0.05,0.05,0.08,0.03,-0.15,-0.17,
3.915,-0.05,0.05,0.08,0.03,-0.15,-0.17,
3.915,-0.00,0.11,-0.12,0.03,-0.15,-0.17,
3.916,-0.00,0.11,-0.12,0.03,-0.15,-0.17,
3.916,-0.00,0.11,-0.12,0.03,-0.15,-0.17,
3.917,-0.00,0.11,-0.12,0.03,-0.15,-0.17,
3.917,-0.00,0.11,-0.12,0.02,-0.14,-0.17,
3.917,-0.00,0.11,-0.12,0.01,-0.14,-0.17,
3.918,0.07,0.13,-0.40,0.01,-0.14,-0.17,
3.918,0.07,0.13,-0.40,0.00,-0.14,-0.18,
3.918,0.07,0.13,-0.40,-0.00,-0.14,-0.18,
3.919,0.07,0.13,-0.40,-0.01,-0.14,-0.18,
3.919,0.07,0.13,-0.40,-0.02,-0.13,-0.18,
3.919,0.07,0.13,-0.40,-0.02,-0.13,-0.19,
3.92,0.11,0.18,-0.55,-0.02,-0.13,-0.19,
3.92,0.11,0.18,-0.55,-0.03,-0.13,-0.19,
3.921,0.11,0.18,-0.55,-0.04,-0.13,-0.19,
3.921,0.11,0.18,-0.55,-0.05,-0.13,-0.20,
3.921,0.11,0.18,-0.55,-0.05,-0.13,-0.20,
3.922,0.11,0.18,-0.55,-0.06,-0.13,-0.21,
3.924,0.16,0.18,-0.52,-0.06,-0.13,-0.21,
3.925,0.16,0.18,-0.52,-0.06,-0.14,-0.21,
3.926,0.16,0.18,-0.52,-0.06,-0.13,-0.22,
3.928,0.16,0.18,-0.52,-0.07,-0.13,-0.22,
3.93,0.16,0.18,-0.52,-0.07,-0.13,-0.23,
3.933,0.16,0.18,-0.52,-0.07,-0.14,-0.24,
3.935,0.25,0.19,-0.49,-0.07,-0.14,-0.24,
3.935,0.25,0.19,-0.49,-0.08,-0.14,-0.25,
3.937,0.25,0.19,-0.49,-0.08,-0.14,-0.25,
3.939,0.25,0.19,-0.49,-0.08,-0.15,-0.26,
3.94,0.25,0.19,-0.49,-0.09,-0.15,-0.27,
3.942,0.25,0.19,-0.49,-0.09,-0.16,-0.28,
3.945,0.24,0.21,-0.51,-0.09,-0.16,-0.28,
3.946,0.24,0.21,-0.51,-0.10,-0.17,-0.28,
3.946,0.24,0.21,-0.51,-0.10,-0.18,-0.29,
3.949,0.24,0.21,-0.51,-0.10,-0.19,-0.30,
3.953,0.24,0.21,-0.51,-0.10,-0.20,-0.30,
3.954,0.24,0.21,-0.51,-0.10,-0.21,-0.31,
3.957,0.23,0.19,-0.43,-0.10,-0.21,-0.31,
3.958,0.23,0.19,-0.43,-0.11,-0.22,-0.31,
3.958,0.23,0.19,-0.43,-0.10,-0.23,-0.32,
3.959,0.23,0.19,-0.43,-0.10,-0.24,-0.32,
3.961,0.23,0.19,-0.43,-0.10,-0.25,-0.32,
3.962,0.23,0.19,-0.43,-0.10,-0.26,-0.33,
3.968,0.14,0.10,-0.33,-0.10,-0.26,-0.33,
3.969,0.14,0.10,-0.33,-0.10,-0.27,-0.33,
3.969,0.14,0.10,-0.33,-0.10,-0.27,-0.33,
3.969,0.14,0.10,-0.33,-0.10,-0.28,-0.33,
3.971,0.14,0.10,-0.33,-0.10,-0.30,-0.32,
3.972,0.14,0.10,-0.33,-0.10,-0.31,-0.31,
3.975,-0.05,0.01,-0.27,-0.10,-0.31,-0.31,
3.976,-0.05,0.01,-0.27,-0.09,-0.33,-0.31,
3.977,-0.05,0.01,-0.27,-0.09,-0.35,-0.30,
3.978,-0.05,0.01,-0.27,-0.09,-0.36,-0.30,
3.995,-0.05,0.01,-0.27,-0.09,-0.38,-0.29,
3.998,-0.05,0.01,-0.27,-0.09,-0.39,-0.29,
3.999,-0.07,-0.04,-0.19,-0.09,-0.39,-0.29,
4.0,-0.07,-0.04,-0.19,-0.09,-0.39,-0.29,
4.0,-0.07,-0.04,-0.19,-0.09,-0.40,-0.29,
4.001,-0.07,-0.04,-0.19,-0.09,-0.40,-0.29,
4.001,-0.07,-0.04,-0.19,-0.09,-0.40,-0.29,
4.002,-0.07,-0.04,-0.19,-0.09,-0.40,-0.30,
4.002,0.09,0.02,-0.11,-0.09,-0.40,-0.30,
4.003,0.09,0.02,-0.11,-0.09,-0.40,-0.30,
4.003,0.09,0.02,-0.11,-0.09,-0.41,-0.30,
4.003,0.09,0.02,-0.11,-0.08,-0.41,-0.30,
4.004,0.09,0.02,-0.11,-0.07,-0.42,-0.30,
4.004,0.09,0.02,-0.11,-0.06,-0.43,-0.30,
4.005,0.17,0.00,0.16,-0.06,-0.43,-0.30,
4.006,0.17,0.00,0.16,-0.05,-0.43,-0.30,
4.027,0.17,0.00,0.16,-0.04,-0.44,-0.31,
4.029,0.17,0.00,0.16,-0.03,-0.45,-0.31,
4.03,0.17,0.00,0.16,-0.02,-0.45,-0.31,
4.031,0.17,0.00,0.16,-0.01,-0.45,-0.32,
4.032,0.24,0.07,0.24,-0.01,-0.45,-0.32,
4.033,0.24,0.07,0.24,-0.01,-0.46,-0.32,
4.034,0.24,0.07,0.24,-0.00,-0.46,-0.33,
4.034,0.24,0.07,0.24,0.00,-0.46,-0.34,
4.035,0.24,0.07,0.24,0.00,-0.46,-0.34,
4.036,0.24,0.07,0.24,0.00,-0.46,-0.35,
4.037,0.37,0.15,-0.02,0.00,-0.46,-0.35,
4.038,0.37,0.15,-0.02,-0.00,-0.46,-0.36,
4.038,0.37,0.15,-0.02,-0.01,-0.46,-0.37,
4.07,0.37,0.15,-0.02,-0.02,-0.45,-0.38,
4.07,0.37,0.15,-0.02,-0.03,-0.45,-0.39,
4.07,0.37,0.15,-0.02,-0.04,-0.45,-0.40,
4.071,0.46,0.22,-0.36,-0.04,-0.45,-0.40,
4.071,0.46,0.22,-0.36,-0.04,-0.46,-0.41,
4.072,0.46,0.22,-0.36,-0.05,-0.47,-0.42,
4.072,0.46,0.22,-0.36,-0.06,-0.48,-0.42,
4.072,0.46,0.22,-0.36,-0.07,-0.50,-0.43,
4.073,0.46,0.22,-0.36,-0.08,-0.51,-0.44,
4.073,0.35,0.20,-0.41,-0.08,-0.51,-0.44,
4.074,0.35,0.20,-0.41,-0.09,-0.52,-0.44,
4.074,0.35,0.20,-0.41,-0.09,-0.53,-0.45,
4.075,0.35,0.20,-0.41,-0.10,-0.53,-0.46,
4.075,0.35,0.20,-0.41,-0.11,-0.54,-0.47,
4.075,0.35,0.20,-0.41,-0.12,-0.54,-0.49,
4.076,0.43,0.33,-0.35,-0.12,-0.54,-0.49,
4.076,0.43,0.33,-0.35,-0.13,-0.54,-0.51,
4.077,0.43,0.33,-0.35,-0.14,-0.54,-0.52,
4.077,0.43,0.33,-0.35,-0.14,-0.54,-0.54,
4.077,0.43,0.33,-0.35,-0.15,-0.54,-0.56,
4.078,0.43,0.33,-0.35,-0.15,-0.54,-0.58,
4.078,0.55,0.42,-0.12,-0.15,-0.54,-0.58,
4.079,0.55,0.42,-0.12,-0.16,-0.55,-0.64,
4.079,0.55,0.42,-0.12,-0.16,-0.55,-0.64,
4.079,0.55,0.42,-0.12,-0.16,-0.55,-0.64,
4.08,0.55,0.42,-0.12,-0.16,-0.55,-0.65,
4.08,0.55,0.42,-0.12,-0.16,-0.56,-0.66,
4.081,0.49,0.29,0.07,-0.16,-0.56,-0.66,
4.081,0.49,0.29,0.07,-0.15,-0.56,-0.67,
4.081,0.49,0.29,0.07,-0.15,-0.56,-0.68,
4.082,0.49,0.29,0.07,-0.15,-0.57,-0.69,
4.082,0.49,0.29,0.07,-0.15,-0.58,-0.69,
4.083,0.49,0.29,0.07,-0.14,-0.60,-0.69,
4.087,0.17,0.05,0.23,-0.14,-0.60,-0.69,
4.088,0.17,0.05,0.23,-0.13,-0.62,-0.69,
4.089,0.17,0.05,0.23,-0.13,-0.64,-0.69,
4.089,0.17,0.05,0.23,-0.12,-0.67,-0.69,
4.09,0.17,0.05,0.23,-0.11,-0.69,-0.69,
4.092,0.17,0.05,0.23,-0.10,-0.72,-0.69,
4.095,-0.11,-0.13,0.30,-0.10,-0.72,-0.69,
4.095,-0.11,-0.13,0.30,-0.09,-0.74,-0.69,
4.097,-0.11,-0.13,0.30,-0.09,-0.76,-0.68,
4.098,-0.11,-0.13,0.30,-0.08,-0.77,-0.68,
4.1,-0.11,-0.13,0.30,-0.08,-0.79,-0.69,
4.102,-0.11,-0.13,0.30,-0.08,-0.80,-0.69,
4.105,-0.18,-0.12,0.26,-0.08,-0.80,-0.69,
4.105,-0.18,-0.12,0.26,-0.08,-0.81,-0.69,
4.106,-0.18,-0.12,0.26,-0.08,-0.82,-0.69,
4.108,-0.18,-0.12,0.26,-0.08,-0.82,-0.69,
4.111,-0.18,-0.12,0.26,-0.08,-0.83,-0.70,
4.112,-0.18,-0.12,0.26,-0.08,-0.83,-0.70,
4.133,-0.09,-0.16,0.27,-0.08,-0.83,-0.70,
4.134,-0.09,-0.16,0.27,-0.08,-0.84,-0.70,
4.134,-0.09,-0.16,0.27,-0.08,-0.84,-0.71,
4.135,-0.09,-0.16,0.27,-0.08,-0.85,-0.71,
4.135,-0.09,-0.16,0.27,-0.07,-0.85,-0.72,
4.136,-0.09,-0.16,0.27,-0.07,-0.85,-0.72,
4.136,0.05,-0.24,0.27,-0.07,-0.85,-0.72,
4.137,0.05,-0.24,0.27,-0.07,-0.85,-0.73,
4.137,0.05,-0.24,0.27,-0.07,-0.85,-0.73,
4.137,0.05,-0.24,0.27,-0.07,-0.85,-0.74,
4.138,0.05,-0.24,0.27,-0.07,-0.84,-0.75,
4.138,0.05,-0.24,0.27,-0.07,-0.84,-0.76,
4.139,0.15,-0.30,0.19,-0.07,-0.84,-0.76,
4.139,0.15,-0.30,0.19,-0.08,-0.84,-0.77,
4.14,0.15,-0.30,0.19,-0.08,-0.83,-0.78,
4.14,0.15,-0.30,0.19,-0.09,-0.83,-0.79,
4.142,0.15,-0.30,0.19,-0.10,-0.82,-0.80,
4.143,0.15,-0.30,0.19,-0.10,-0.81,-0.81,
4.145,0.28,-0.30,0.07,-0.10,-0.81,-0.81,
4.146,0.28,-0.30,0.07,-0.10,-0.81,-0.82,
4.146,0.28,-0.30,0.07,-0.11,-0.79,-0.83,
4.152,0.28,-0.30,0.07,-0.12,-0.77,-0.84,
4.153,0.28,-0.30,0.07,-0.13,-0.75,-0.85,
4.153,0.28,-0.30,0.07,-0.15,-0.73,-0.86,
4.155,0.28,-0.34,-0.10,-0.15,-0.73,-0.86,
4.156,0.28,-0.34,-0.10,-0.17,-0.69,-0.88,
4.156,0.28,-0.34,-0.10,-0.18,-0.67,-0.88,
4.158,0.28,-0.34,-0.10,-0.20,-0.64,-0.89,
4.16,0.28,-0.34,-0.10,-0.22,-0.61,-0.90,
4.162,0.28,-0.34,-0.10,-0.23,-0.58,-0.91,
4.165,0.21,-0.39,-0.20,-0.23,-0.58,-0.91,
4.166,0.21,-0.39,-0.20,-0.25,-0.55,-0.92,
4.166,0.21,-0.39,-0.20,-0.26,-0.52,-0.92,
4.169,0.21,-0.39,-0.20,-0.27,-0.49,-0.93,
4.17,0.21,-0.39,-0.20,-0.28,-0.47,-0.93,
4.172,0.21,-0.39,-0.20,-0.28,-0.45,-0.94,
4.175,0.03,-0.54,-0.03,-0.28,-0.45,-0.94,
4.175,0.03,-0.54,-0.03,-0.28,-0.44,-0.94,
4.176,0.03,-0.54,-0.03,-0.28,-0.44,-0.94,
4.178,0.03,-0.54,-0.03,-0.27,-0.43,-0.94,
4.181,0.03,-0.54,-0.03,-0.26,-0.43,-0.94,
4.182,0.03,-0.54,-0.03,-0.26,-0.42,-0.93,
4.185,-0.26,-0.65,0.21,-0.26,-0.42,-0.93,
4.185,-0.26,-0.65,0.21,-0.25,-0.42,-0.93,
4.187,-0.26,-0.65,0.21,-0.24,-0.42,-0.93,
4.188,-0.26,-0.65,0.21,-0.23,-0.42,-0.92,
4.19,-0.26,-0.65,0.21,-0.21,-0.43,-0.92,
4.192,-0.26,-0.65,0.21,-0.20,-0.43,-0.91,
4.194,-0.61,-0.74,0.33,-0.20,-0.43,-0.91,
4.227,-0.61,-0.74,0.33,-0.18,-0.43,-0.91,
4.227,-0.61,-0.74,0.33,-0.17,-0.43,-0.90,
4.228,-0.61,-0.74,0.33,-0.15,-0.44,-0.89,
4.228,-0.61,-0.74,0.33,-0.14,-0.45,-0.89,
4.228,-0.61,-0.74,0.33,-0.12,-0.46,-0.88,
4.229,-0.72,-0.74,0.25,-0.12,-0.46,-0.88,
4.229,-0.72,-0.74,0.25,-0.11,-0.48,-0.87,
4.23,-0.72,-0.74,0.25,-0.09,-0.49,-0.87,
4.23,-0.72,-0.74,0.25,-0.08,-0.51,-0.86,
4.231,-0.72,-0.74,0.25,-0.06,-0.54,-0.85,
4.231,-0.72,-0.74,0.25,-0.05,-0.57,-0.85,
4.231,-0.81,-0.74,0.03,-0.05,-0.57,-0.85,
4.232,-0.81,-0.74,0.03,-0.04,-0.60,-0.84,
4.232,-0.81,-0.74,0.03,-0.03,-0.63,-0.84,
4.233,-0.81,-0.74,0.03,-0.02,-0.66,-0.84,
4.233,-0.81,-0.74,0.03,-0.01,-0.69,-0.84,
4.233,-0.81,-0.74,0.03,-0.01,-0.72,-0.83,
4.234,-0.81,-0.62,-0.35,-0.01,-0.72,-0.83,
4.234,-0.81,-0.62,-0.35,-0.00,-0.74,-0.83,
4.235,-0.81,-0.62,-0.35,-0.00,-0.77,-0.83,
4.235,-0.81,-0.62,-0.35,-0.00,-0.79,-0.83,
4.235,-0.81,-0.62,-0.35,-0.00,-0.82,-0.83,
4.236,-0.81,-0.62,-0.35,-0.00,-0.84,-0.83,
4.236,-0.81,-0.49,-0.71,-0.00,-0.84,-0.83,
4.237,-0.81,-0.49,-0.71,-0.01,-0.86,-0.83,
4.237,-0.81,-0.49,-0.71,-0.01,-0.89,-0.83,
4.239,-0.81,-0.49,-0.71,-0.01,-0.91,-0.83,
4.24,-0.81,-0.49,-0.71,-0.01,-0.93,-0.83,
4.242,-0.81,-0.49,-0.71,-0.01,-0.95,-0.83,
4.245,-0.80,-0.42,-0.83,-0.01,-0.95,-0.83,
4.245,-0.80,-0.42,-0.83,-0.01,-0.97,-0.84,
4.247,-0.80,-0.42,-0.83,-0.01,-0.99,-0.84,
4.25,-0.80,-0.42,-0.83,-0.01,-1.01,-0.84,
4.25,-0.80,-0.42,-0.83,-0.01,-1.04,-0.85,
4.253,-0.80,-0.42,-0.83,-0.00,-1.06,-0.85,
4.254,-0.87,-0.39,-0.76,-0.00,-1.06,-0.85,
4.255,-0.87,-0.39,-0.76,0.01,-1.09,-0.86,
4.256,-0.87,-0.39,-0.76,0.01,-1.11,-0.87,
4.258,-0.87,-0.39,-0.76,0.02,-1.13,-0.88,
4.26,-0.87,-0.39,-0.76,0.03,-1.16,-0.88,
4.262,-0.87,-0.39,-0.76,0.03,-1.18,-0.89,
4.273,-0.82,-0.37,-0.74,0.03,-1.18,-0.89,
4.274,-0.82,-0.37,-0.74,0.03,-1.20,-0.90,
4.274,-0.82,-0.37,-0.74,0.04,-1.22,-0.90,
4.275,-0.82,-0.37,-0.74,0.04,-1.24,-0.91,
4.275,-0.82,-0.37,-0.74,0.04,-1.25,-0.91,
4.275,-0.82,-0.37,-0.74,0.04,-1.26,-0.92,
4.276,-0.93,-0.39,-0.89,0.04,-1.26,-0.92,
4.276,-0.93,-0.39,-0.89,0.03,-1.27,-0.92,
4.277,-0.93,-0.39,-0.89,0.03,-1.29,-0.92,
4.278,-0.93,-0.39,-0.89,0.02,-1.29,-0.93,
4.292,-0.93,-0.39,-0.89,0.01,-1.30,-0.93,
4.294,-0.93,-0.39,-0.89,0.00,-1.30,-0.93,
4.295,-0.99,-0.42,-1.11,0.00,-1.30,-0.93,
4.295,-0.99,-0.42,-1.11,-0.01,-1.31,-0.94,
4.296,-0.99,-0.42,-1.11,-0.02,-1.31,-0.94,
4.296,-0.99,-0.42,-1.11,-0.03,-1.30,-0.94,
4.297,-0.99,-0.42,-1.11,-0.05,-1.30,-0.94,
4.297,-0.99,-0.42,-1.11,-0.06,-1.29,-0.94,
4.298,-1.11,-0.45,-1.18,-0.06,-1.29,-0.94,
4.299,-1.11,-0.45,-1.18,-0.08,-1.29,-0.94,
4.3,-1.11,-0.45,-1.18,-0.09,-1.28,-0.95,
4.301,-1.11,-0.45,-1.18,-0.10,-1.27,-0.95,
4.302,-1.11,-0.45,-1.18,-0.11,-1.26,-0.95,
4.303,-1.11,-0.45,-1.18,-0.12,-1.25,-0.95,
4.307,-1.19,-0.53,-0.87,-0.12,-1.25,-0.95,
4.309,-1.19,-0.53,-0.87,-0.13,-1.25,-0.95,
4.31,-1.19,-0.53,-0.87,-0.13,-1.24,-0.95,
4.312,-1.19,-0.53,-0.87,-0.13,-1.24,-0.95,
4.313,-1.19,-0.53,-0.87,-0.13,-1.24,-0.95,
4.314,-1.19,-0.53,-0.87,-0.13,-1.23,-0.95,
4.318,-1.30,-0.62,-0.37,-0.13,-1.23,-0.95,
4.319,-1.30,-0.62,-0.37,-0.13,-1.23,-0.95,
4.319,-1.30,-0.62,-0.37,-0.12,-1.23,-0.95,
4.32,-1.30,-0.62,-0.37,-0.11,-1.24,-0.95,
4.321,-1.30,-0.62,-0.37,-0.10,-1.24,-0.95,
4.322,-1.30,-0.62,-0.37,-0.08,-1.25,-0.96,
4.327,-1.27,-0.59,0.00,-0.08,-1.25,-0.96,
4.328,-1.27,-0.59,0.00,-0.07,-1.26,-0.96,
4.328,-1.27,-0.59,0.00,-0.05,-1.27,-0.96,
4.328,-1.27,-0.59,0.00,-0.04,-1.28,-0.96,
4.33,-1.27,-0.59,0.00,-0.02,-1.29,-0.97,
4.332,-1.27,-0.59,0.00,-0.01,-1.30,-0.97,
4.336,-1.33,-0.55,0.08,-0.01,-1.30,-0.97,
4.336,-1.33,-0.55,0.08,0.00,-1.31,-0.97,
4.337,-1.33,-0.55,0.08,0.01,-1.32,-0.97,
4.338,-1.33,-0.55,0.08,0.02,-1.33,-0.98,
4.34,-1.33,-0.55,0.08,0.02,-1.34,-0.98,
4.342,-1.33,-0.55,0.08,0.03,-1.34,-0.99,
4.345,-1.38,-0.43,-0.31,0.03,-1.34,-0.99,
4.345,-1.38,-0.43,-0.31,0.02,-1.35,-0.99,
4.346,-1.38,-0.43,-0.31,0.02,-1.35,-0.99,
4.349,-1.38,-0.43,-0.31,0.01,-1.36,-1.00,
4.35,-1.38,-0.43,-0.31,-0.00,-1.37,-1.00,
4.352,-1.38,-0.43,-0.31,-0.02,-1.38,-1.00,
4.354,-1.50,-0.31,-0.85,-0.02,-1.38,-1.00,
4.355,-1.50,-0.31,-0.85,-0.03,-1.39,-1.00,
4.356,-1.50,-0.31,-0.85,-0.05,-1.40,-1.00,
4.358,-1.50,-0.31,-0.85,-0.07,-1.41,-1.00,
4.36,-1.50,-0.31,-0.85,-0.09,-1.42,-1.00,
4.391,-1.50,-0.31,-0.85,-0.11,-1.43,-1.01,
4.391,-1.54,-0.17,-1.18,-0.11,-1.43,-1.01,
4.392,-1.54,-0.17,-1.18,-0.14,-1.45,-1.01,
4.393,-1.54,-0.17,-1.18,-0.16,-1.46,-1.01,
4.393,-1.54,-0.17,-1.18,-0.18,-1.47,-1.01,
4.394,-1.54,-0.17,-1.18,-0.21,-1.48,-1.02,
4.394,-1.54,-0.17,-1.18,-0.23,-1.49,-1.02,
4.395,-1.57,-0.15,-1.19,-0.23,-1.49,-1.02,
4.395,-1.57,-0.15,-1.19,-0.25,-1.50,-1.02,
4.396,-1.57,-0.15,-1.19,-0.27,-1.51,-1.02,
4.396,-1.57,-0.15,-1.19,-0.30,-1.52,-1.03,
4.397,-1.57,-0.15,-1.19,-0.31,-1.54,-1.03,
4.397,-1.57,-0.15,-1.19,-0.33,-1.55,-1.04,
4.398,-1.57,-0.17,-0.90,-0.33,-1.55,-1.04,
4.398,-1.57,-0.17,-0.90,-0.34,-1.56,-1.04,
4.399,-1.57,-0.17,-0.90,-0.36,-1.58,-1.04,
4.399,-1.57,-0.17,-0.90,-0.37,-1.59,-1.05,
4.4,-1.57,-0.17,-0.90,-0.37,-1.61,-1.05,
4.403,-1.57,-0.17,-0.90,-0.38,-1.63,-1.06,
4.403,-1.60,-0.17,-0.44,-0.38,-1.63,-1.06,
4.404,-1.60,-0.17,-0.44,-0.39,-1.65,-1.06,
4.404,-1.60,-0.17,-0.44,-0.39,-1.67,-1.07,
4.405,-1.60,-0.17,-0.44,-0.39,-1.70,-1.07,
4.405,-1.60,-0.17,-0.44,-0.38,-1.72,-1.08,
4.405,-1.60,-0.17,-0.44,-0.38,-1.74,-1.08,
4.406,-1.62,-0.26,0.03,-0.38,-1.74,-1.08,
4.406,-1.62,-0.26,0.03,-0.38,-1.76,-1.09,
4.407,-1.62,-0.26,0.03,-0.37,-1.79,-1.09,
4.411,-1.62,-0.26,0.03,-0.37,-1.81,-1.09,
4.412,-1.62,-0.26,0.03,-0.36,-1.83,-1.09,
4.413,-1.62,-0.26,0.03,-0.35,-1.86,-1.09,
4.416,-1.90,-0.43,0.45,-0.35,-1.86,-1.09,
4.417,-1.90,-0.43,0.45,-0.34,-1.89,-1.08,
4.418,-1.90,-0.43,0.45,-0.32,-1.92,-1.08,
4.418,-1.90,-0.43,0.45,-0.31,-1.95,-1.07,
4.42,-1.90,-0.43,0.45,-0.29,-1.99,-1.06,
4.422,-1.90,-0.43,0.45,-0.27,-2.02,-1.05,
4.425,-2.21,-0.49,0.86,-0.27,-2.02,-1.05,
4.426,-2.21,-0.49,0.86,-0.26,-2.06,-1.04,
4.426,-2.21,-0.49,0.86,-0.24,-2.09,-1.02,
4.43,-2.21,-0.49,0.86,-0.22,-2.13,-1.00,
4.431,-2.21,-0.49,0.86,-0.20,-2.17,-0.98,
4.435,-2.21,-0.49,0.86,-0.19,-2.20,-0.96,
4.436,-2.42,-0.46,1.07,-0.19,-2.20,-0.96,
4.437,-2.42,-0.46,1.07,-0.17,-2.23,-0.94,
4.437,-2.42,-0.46,1.07,-0.16,-2.26,-0.92,
4.44,-2.42,-0.46,1.07,-0.14,-2.29,-0.90,
4.441,-2.42,-0.46,1.07,-0.14,-2.31,-0.87,
4.442,-2.42,-0.46,1.07,-0.13,-2.33,-0.85,
4.468,-2.24,-0.37,0.97,-0.13,-2.33,-0.85,
4.47,-2.24,-0.37,0.97,-0.12,-2.35,-0.83,
4.471,-2.24,-0.37,0.97,-0.12,-2.36,-0.81,
4.471,-2.24,-0.37,0.97,-0.12,-2.37,-0.80,
4.472,-2.24,-0.37,0.97,-0.12,-2.37,-0.79,
4.472,-2.24,-0.37,0.97,-0.12,-2.36,-0.78,
4.473,-1.73,-0.25,0.80,-0.12,-2.36,-0.78,
4.473,-1.73,-0.25,0.80,-0.13,-2.36,-0.77,
4.474,-1.73,-0.25,0.80,-0.13,-2.35,-0.76,
4.475,-1.73,-0.25,0.80,-0.14,-2.34,-0.75,
4.476,-1.73,-0.25,0.80,-0.14,-2.33,-0.74,
4.477,-1.73,-0.25,0.80,-0.15,-2.31,-0.73,
4.478,-1.33,0.10,0.71,-0.15,-2.31,-0.73,
4.479,-1.33,0.10,0.71,-0.16,-2.30,-0.72,
4.48,-1.33,0.10,0.71,-0.16,-2.29,-0.71,
4.483,-1.33,0.10,0.71,-0.17,-2.28,-0.70,
4.483,-1.33,0.10,0.71,-0.18,-2.27,-0.70,
4.484,-1.33,0.10,0.71,-0.18,-2.26,-0.69,
4.484,-1.10,0.43,0.79,-0.18,-2.26,-0.69,
4.484,-1.10,0.43,0.79,-0.19,-2.25,-0.69,
4.485,-1.10,0.43,0.79,-0.19,-2.23,-0.68,
4.485,-1.10,0.43,0.79,-0.19,-2.22,-0.68,
4.485,-1.10,0.43,0.79,-0.20,-2.21,-0.68,
4.485,-1.10,0.43,0.79,-0.19,-2.19,-0.68,
4.486,-0.79,0.52,0.81,-0.19,-2.19,-0.68,
4.486,-0.79,0.52,0.81,-0.19,-2.17,-0.69,
4.486,-0.79,0.52,0.81,-0.19,-2.15,-0.69,
4.492,-0.79,0.52,0.81,-0.20,-2.13,-0.70,
4.494,-0.79,0.52,0.81,-0.20,-2.10,-0.71,
4.494,-0.79,0.52,0.81,-0.19,-2.08,-0.72,
4.507,-0.69,0.51,0.78,-0.19,-2.08,-0.72,
4.509,-0.69,0.51,0.78,-0.19,-2.07,-0.72,
4.51,-0.69,0.51,0.78,-0.18,-2.05,-0.73,
4.51,-0.69,0.51,0.78,-0.18,-2.04,-0.74,
4.511,-0.69,0.51,0.78,-0.18,-2.03,-0.74,
4.511,-0.69,0.51,0.78,-0.17,-2.02,-0.75,
4.512,-0.94,0.50,0.80,-0.17,-2.02,-0.75,
4.512,-0.94,0.50,0.80,-0.16,-2.01,-0.75,
4.513,-0.94,0.50,0.80,-0.16,-2.00,-0.75,
4.514,-0.94,0.50,0.80,-0.15,-2.00,-0.76,
4.515,-0.94,0.50,0.80,-0.14,-2.00,-0.76,
4.518,-0.94,0.50,0.80,-0.13,-1.99,-0.76,
4.519,-1.41,0.47,0.71,-0.13,-1.99,-0.76,
4.52,-1.41,0.47,0.71,-0.12,-1.99,-0.76,
4.52,-1.41,0.47,0.71,-0.11,-1.99,-0.76,
4.521,-1.41,0.47,0.71,-0.10,-2.00,-0.76,
4.521,-1.41,0.47,0.71,-0.08,-2.01,-0.75,
4.524,-1.41,0.47,0.71,-0.07,-2.03,-0.74,
4.526,-1.91,0.29,0.72,-0.07,-2.03,-0.74,
4.527,-1.91,0.29,0.72,-0.05,-2.04,-0.73,
4.527,-1.91,0.29,0.72,-0.03,-2.06,-0.72,
4.563,-1.91,0.29,0.72,-0.01,-2.08,-0.71,
4.564,-1.91,0.29,0.72,0.01,-2.10,-0.70,
4.564,-1.91,0.29,0.72,0.03,-2.12,-0.68,
4.564,-2.51,0.19,0.80,0.03,-2.12,-0.68,
4.565,-2.51,0.19,0.80,0.05,-2.14,-0.66,
4.565,-2.51,0.19,0.80,0.07,-2.16,-0.64,
4.566,-2.51,0.19,0.80,0.09,-2.18,-0.63,
4.566,-2.51,0.19,0.80,0.11,-2.19,-0.60,
4.567,-2.51,0.19,0.80,0.12,-2.21,-0.58,
4.567,-3.03,0.12,0.68,0.12,-2.21,-0.58,
4.567,-3.03,0.12,0.68,0.14,-2.23,-0.55,
4.568,-3.03,0.12,0.68,0.16,-2.24,-0.52,
4.568,-3.03,0.12,0.68,0.18,-2.25,-0.50,
4.569,-3.03,0.12,0.68,0.19,-2.26,-0.47,
4.569,-3.03,0.12,0.68,0.21,-2.27,-0.44,
4.57,-3.36,0.09,0.44,0.21,-2.27,-0.44,
4.57,-3.36,0.09,0.44,0.23,-2.28,-0.41,
4.57,-3.36,0.09,0.44,0.24,-2.29,-0.38,
4.571,-3.36,0.09,0.44,0.26,-2.29,-0.35,
4.571,-3.36,0.09,0.44,0.27,-2.30,-0.32,
4.572,-3.36,0.09,0.44,0.29,-2.31,-0.29,
4.572,-3.27,0.18,0.20,0.29,-2.31,-0.29,
4.572,-3.27,0.18,0.20,0.30,-2.31,-0.27,
4.573,-3.27,0.18,0.20,0.32,-2.32,-0.25,
4.573,-3.27,0.18,0.20,0.33,-2.32,-0.23,
4.574,-3.27,0.18,0.20,0.35,-2.32,-0.20,
4.574,-3.27,0.18,0.20,0.36,-2.32,-0.19,
4.574,-3.06,0.40,-0.03,0.36,-2.32,-0.19,
4.575,-3.06,0.40,-0.03,0.37,-2.32,-0.17,
4.576,-3.06,0.40,-0.03,0.39,-2.32,-0.15,
4.581,-3.06,0.40,-0.03,0.40,-2.32,-0.14,
4.582,-3.06,0.40,-0.03,0.41,-2.32,-0.13,
4.582,-3.06,0.40,-0.03,0.42,-2.32,-0.11,
4.585,-2.74,0.60,-0.51,0.42,-2.32,-0.11,
4.585,-2.74,0.60,-0.51,0.42,-2.31,-0.11,
4.588,-2.74,0.60,-0.51,0.42,-2.31,-0.10,
4.588,-2.74,0.60,-0.51,0.43,-2.32,-0.09,
4.591,-2.74,0.60,-0.51,0.43,-2.32,-0.08,
4.592,-2.74,0.60,-0.51,0.42,-2.32,-0.07,
4.603,-2.64,0.88,-0.87,0.42,-2.32,-0.07,
4.603,-2.64,0.88,-0.87,0.42,-2.33,-0.06,
4.603,-2.64,0.88,-0.87,0.42,-2.34,-0.06,
4.604,-2.64,0.88,-0.87,0.42,-2.34,-0.05,
4.604,-2.64,0.88,-0.87,0.42,-2.35,-0.04,
4.604,-2.64,0.88,-0.87,0.42,-2.36,-0.03,
4.605,-2.62,0.96,-1.13,0.42,-2.36,-0.03,
4.605,-2.62,0.96,-1.13,0.42,-2.37,-0.03,
4.606,-2.62,0.96,-1.13,0.41,-2.37,-0.02,
4.608,-2.62,0.96,-1.13,0.41,-2.37,-0.01,
4.61,-2.62,0.96,-1.13,0.40,-2.37,-0.00,
4.619,-2.62,0.96,-1.13,0.39,-2.37,0.01,
4.621,-2.80,1.00,-1.37,0.39,-2.37,0.01,
4.621,-2.80,1.00,-1.37,0.37,-2.36,0.01,
4.621,-2.80,1.00,-1.37,0.36,-2.36,0.03,
4.622,-2.80,1.00,-1.37,0.34,-2.35,0.04,
4.622,-2.80,1.00,-1.37,0.32,-2.35,0.06,
4.622,-2.80,1.00,-1.37,0.30,-2.34,0.08,
4.625,-3.19,0.85,-1.59,0.30,-2.34,0.08,
4.626,-3.19,0.85,-1.59,0.28,-2.34,0.10,
4.626,-3.19,0.85,-1.59,0.25,-2.33,0.12,
4.629,-3.19,0.85,-1.59,0.23,-2.32,0.14,
4.631,-3.19,0.85,-1.59,0.20,-2.31,0.17,
4.632,-3.19,0.85,-1.59,0.18,-2.31,0.20,
4.635,-3.69,0.70,-1.65,0.18,-2.31,0.20,
4.636,-3.69,0.70,-1.65,0.15,-2.31,0.22,
4.636,-3.69,0.70,-1.65,0.12,-2.31,0.25,
4.638,-3.69,0.70,-1.65,0.10,-2.32,0.28,
4.64,-3.69,0.70,-1.65,0.08,-2.34,0.31,
4.642,-3.69,0.70,-1.65,0.06,-2.36,0.34,
4.646,-3.92,0.48,-1.31,0.06,-2.36,0.34,
4.647,-3.92,0.48,-1.31,0.05,-2.39,0.38,
4.647,-3.92,0.48,-1.31,0.05,-2.43,0.41,
4.648,-3.92,0.48,-1.31,0.04,-2.48,0.45,
4.651,-3.92,0.48,-1.31,0.05,-2.54,0.49,
4.652,-3.92,0.48,-1.31,0.06,-2.63,0.53,
4.655,-4.08,0.17,-0.38,0.06,-2.63,0.53,
4.655,-4.08,0.17,-0.38,0.08,-2.72,0.57,
4.656,-4.08,0.17,-0.38,0.11,-2.80,0.61,
4.658,-4.08,0.17,-0.38,0.15,-2.86,0.65,
4.66,-4.08,0.17,-0.38,0.20,-2.90,0.68,
4.662,-4.08,0.17,-0.38,0.27,-2.93,0.71,
4.665,-3.93,0.03,1.25,0.27,-2.93,0.71,
4.665,-3.93,0.03,1.25,0.34,-2.95,0.74,
4.666,-3.93,0.03,1.25,0.42,-2.97,0.77,
4.668,-3.93,0.03,1.25,0.50,-2.99,0.80,
4.67,-3.93,0.03,1.25,0.60,-3.01,0.83,
4.672,-3.93,0.03,1.25,0.70,-3.05,0.86,
4.674,-3.73,-0.34,2.74,0.70,-3.05,0.86,
4.675,-3.73,-0.34,2.74,0.80,-3.08,0.90,
4.676,-3.73,-0.34,2.74,0.90,-3.12,0.93,
4.686,-3.73,-0.34,2.74,1.01,-3.17,0.96,
4.687,-3.73,-0.34,2.74,1.12,-3.22,1.00,
4.687,-3.73,-0.34,2.74,1.23,-3.27,1.03,
4.688,-3.42,-0.66,2.86,1.23,-3.27,1.03,
4.689,-3.42,-0.66,2.86,1.34,-3.32,1.06,
4.689,-3.42,-0.66,2.86,1.46,-3.36,1.08,
4.689,-3.42,-0.66,2.86,1.57,-3.40,1.11,
4.705,-3.42,-0.66,2.86,1.68,-3.44,1.13,
4.708,-3.42,-0.66,2.86,1.79,-3.47,1.15,
4.709,-3.22,-0.53,2.63,1.79,-3.47,1.15,
4.744,-3.22,-0.53,2.63,1.89,-3.48,1.16,
4.746,-3.22,-0.53,2.63,1.99,-3.49,1.18,
4.746,-3.22,-0.53,2.63,2.07,-3.50,1.19,
4.747,-3.22,-0.53,2.63,2.15,-3.50,1.20,
4.748,-3.22,-0.53,2.63,2.22,-3.49,1.21,
4.748,-2.80,-0.16,1.43,2.22,-3.49,1.21,
4.749,-2.80,-0.16,1.43,2.28,-3.49,1.24,
4.749,-2.80,-0.16,1.43,2.32,-3.48,1.25,
4.75,-2.80,-0.16,1.43,2.35,-3.47,1.26,
4.751,-2.80,-0.16,1.43,2.37,-3.45,1.25,
4.751,-2.80,-0.16,1.43,2.38,-3.42,1.24,
4.752,-2.30,0.18,-0.51,2.38,-3.42,1.24,
4.755,-2.30,0.18,-0.51,2.38,-3.40,1.22,
4.755,-2.30,0.18,-0.51,2.37,-3.38,1.20,
4.755,-2.30,0.18,-0.51,2.35,-3.35,1.18,
4.756,-2.30,0.18,-0.51,2.33,-3.32,1.16,
4.756,-2.30,0.18,-0.51,2.29,-3.28,1.14,
4.757,-2.06,0.75,-2.15,2.29,-3.28,1.14,
4.757,-2.06,0.75,-2.15,2.25,-3.25,1.12,
4.758,-2.06,0.75,-2.15,2.20,-3.21,1.09,
4.758,-2.06,0.75,-2.15,2.14,-3.18,1.07,
4.758,-2.06,0.75,-2.15,2.08,-3.14,1.04,
4.759,-2.06,0.75,-2.15,2.01,-3.10,1.02,
4.759,-1.86,0.87,-3.21,2.01,-3.10,1.02,
4.76,-1.86,0.87,-3.21,1.95,-3.06,0.99,
4.76,-1.86,0.87,-3.21,1.88,-3.02,0.97,
4.761,-1.86,0.87,-3.21,1.82,-2.98,0.94,
4.761,-1.86,0.87,-3.21,1.76,-2.93,0.92,
4.761,-1.86,0.87,-3.21,1.69,-2.89,0.89,
4.762,-2.05,0.50,-3.16,1.69,-2.89,0.89,
4.762,-2.05,0.50,-3.16,1.64,-2.85,0.87,
4.763,-2.05,0.50,-3.16,1.59,-2.82,0.85,
4.763,-2.05,0.50,-3.16,1.54,-2.79,0.83,
4.763,-2.05,0.50,-3.16,1.50,-2.76,0.82,
4.764,-2.05,0.50,-3.16,1.47,-2.74,0.81,
4.764,-2.75,0.14,-2.11,1.47,-2.74,0.81,
4.765,-2.75,0.14,-2.11,1.45,-2.72,0.80,
4.765,-2.75,0.14,-2.11,1.43,-2.72,0.79,
4.766,-2.75,0.14,-2.11,1.43,-2.71,0.80,
4.766,-2.75,0.14,-2.11,1.43,-2.71,0.80,
4.766,-2.75,0.14,-2.11,1.44,-2.72,0.80,
4.767,-3.72,-0.41,-0.52,1.44,-2.72,0.80,
4.767,-3.72,-0.41,-0.52,1.46,-2.73,0.81,
4.768,-3.72,-0.41,-0.52,1.49,-2.75,0.82,
4.768,-3.72,-0.41,-0.52,1.52,-2.78,0.83,
4.774,-3.72,-0.41,-0.52,1.56,-2.81,0.84,
4.775,-3.72,-0.41,-0.52,1.62,-2.85,0.85,
4.776,-4.70,-0.89,1.22,1.62,-2.85,0.85,
4.776,-4.70,-0.89,1.22,1.68,-2.90,0.87,
4.776,-4.70,-0.89,1.22,1.75,-2.96,0.88,
4.789,-4.70,-0.89,1.22,1.87,-3.07,0.90,
4.79,-4.70,-0.89,1.22,1.92,-3.10,0.91,
4.791,-4.70,-0.89,1.22,2.02,-3.18,0.93,
4.791,-5.44,-1.16,2.91,2.02,-3.18,0.93,
4.795,-5.44,-1.16,2.91,2.12,-3.24,0.95,
4.795,-5.44,-1.16,2.91,2.23,-3.31,0.98,
4.796,-5.44,-1.16,2.91,2.35,-3.36,1.01,
4.796,-5.44,-1.16,2.91,2.46,-3.40,1.05,
4.796,-5.44,-1.16,2.91,2.58,-3.44,1.10,
4.797,-6.02,-1.54,4.05,2.58,-3.44,1.10,
4.797,-6.02,-1.54,4.05,2.70,-3.47,1.15,
4.797,-6.02,-1.54,4.05,2.81,-3.49,1.20,
4.798,-6.02,-1.54,4.05,2.91,-3.51,1.25,
4.804,-6.02,-1.54,4.05,3.01,-3.54,1.30,
4.806,-6.02,-1.54,4.05,3.09,-3.56,1.34,
4.807,-6.08,-2.06,3.39,3.09,-3.56,1.34,
4.807,-6.08,-2.06,3.39,3.18,-3.58,1.38,
4.808,-6.08,-2.06,3.39,3.25,-3.60,1.41,
4.809,-6.08,-2.06,3.39,3.31,-3.63,1.43,
4.823,-6.08,-2.06,3.39,3.36,-3.65,1.45,
4.825,-6.08,-2.06,3.39,3.41,-3.66,1.46,
4.826,-5.59,-2.09,2.29,3.41,-3.66,1.46,
4.827,-5.59,-2.09,2.29,3.44,-3.68,1.46,
4.828,-5.59,-2.09,2.29,3.47,-3.69,1.46,
4.828,-5.59,-2.09,2.29,3.48,-3.70,1.45,
4.829,-5.59,-2.09,2.29,3.49,-3.70,1.44,
4.829,-5.59,-2.09,2.29,3.48,-3.70,1.43,
4.83,-4.69,-1.37,0.68,3.48,-3.70,1.43,
4.83,-4.69,-1.37,0.68,3.46,-3.70,1.41,
4.831,-4.69,-1.37,0.68,3.44,-3.70,1.38,
4.831,-4.69,-1.37,0.68,3.39,-3.68,1.34,
4.832,-4.69,-1.37,0.68,3.37,-3.68,1.33,
4.834,-4.69,-1.37,0.68,3.33,-3.66,1.29,
4.855,-4.07,-0.51,-0.63,3.33,-3.66,1.29,
4.856,-4.07,-0.51,-0.63,3.29,-3.65,1.26,
4.856,-4.07,-0.51,-0.63,3.23,-3.63,1.22,
4.856,-4.07,-0.51,-0.63,3.14,-3.59,1.15,
4.857,-4.07,-0.51,-0.63,3.10,-3.58,1.12,
4.857,-4.07,-0.51,-0.63,3.02,-3.54,1.05,
4.858,-3.12,-0.72,-1.68,3.02,-3.54,1.05,
4.858,-3.12,-0.72,-1.68,2.89,-3.45,0.97,
4.858,-3.12,-0.72,-1.68,2.86,-3.42,0.94,
4.859,-3.12,-0.72,-1.68,2.79,-3.35,0.89,
4.859,-3.12,-0.72,-1.68,2.72,-3.27,0.85,
4.859,-3.12,-0.72,-1.68,2.66,-3.19,0.83,
4.859,-3.96,0.33,-1.01,2.66,-3.19,0.83,
4.86,-3.96,0.33,-1.01,2.59,-3.06,0.80,
4.86,-3.96,0.33,-1.01,2.57,-3.02,0.80,
4.86,-3.96,0.33,-1.01,2.53,-2.95,0.79,
4.861,-3.96,0.33,-1.01,2.49,-2.88,0.79,
4.89,-3.96,0.33,-1.01,2.47,-2.83,0.80,
4.891,-5.08,0.65,0.06,2.47,-2.83,0.80,
4.891,-5.08,0.65,0.06,2.45,-2.76,0.82,
4.892,-5.08,0.65,0.06,2.44,-2.75,0.83,
4.892,-5.08,0.65,0.06,2.43,-2.72,0.87,
4.892,-5.08,0.65,0.06,2.43,-2.71,0.88,
4.893,-5.08,0.65,0.06,2.44,-2.70,0.92,
4.893,-6.08,0.12,1.16,2.44,-2.70,0.92,
4.894,-6.08,0.12,1.16,2.45,-2.70,0.98,
4.894,-6.08,0.12,1.16,2.45,-2.70,1.00,
4.894,-6.08,0.12,1.16,2.48,-2.71,1.07,
4.895,-6.08,0.12,1.16,2.49,-2.72,1.09,
4.895,-6.08,0.12,1.16,2.52,-2.74,1.14,
4.896,-6.47,-0.89,1.69,2.52,-2.74,1.14,
4.896,-6.47,-0.89,1.69,2.57,-2.78,1.20,
4.896,-6.47,-0.89,1.69,2.59,-2.80,1.23,
4.897,-6.47,-0.89,1.69,2.65,-2.87,1.30,
4.897,-6.47,-0.89,1.69,2.67,-2.89,1.33,
4.898,-6.47,-0.89,1.69,2.71,-2.95,1.38,
4.898,-6.41,-1.72,1.99,2.71,-2.95,1.38,
4.899,-6.41,-1.72,1.99,2.77,-3.05,1.45,
4.899,-6.41,-1.72,1.99,2.78,-3.09,1.47,
4.899,-6.41,-1.72,1.99,2.83,-3.24,1.51,
4.9,-6.41,-1.72,1.99,2.86,-3.37,1.53,
4.903,-6.41,-1.72,1.99,2.89,-3.53,1.54,
4.905,-5.97,-1.83,1.79,2.89,-3.53,1.54,
4.905,-5.97,-1.83,1.79,2.92,-3.71,1.53,
4.906,-5.97,-1.83,1.79,2.94,-3.91,1.53,
4.908,-5.97,-1.83,1.79,2.98,-4.13,1.53,
4.915,-5.97,-1.83,1.79,3.02,-4.37,1.54,
4.917,-5.97,-1.83,1.79,3.09,-4.61,1.55,
4.917,-6.46,-1.25,3.35,3.09,-4.61,1.55,
4.917,-6.46,-1.25,3.35,3.16,-4.87,1.56,
4.918,-6.46,-1.25,3.35,3.25,-5.12,1.58,
4.918,-6.46,-1.25,3.35,3.36,-5.37,1.61,
4.92,-6.46,-1.25,3.35,3.50,-5.61,1.63,
4.923,-6.46,-1.25,3.35,3.65,-5.85,1.65,
4.925,-6.85,-0.73,6.91,3.65,-5.85,1.65,
4.926,-6.85,-0.73,6.91,3.82,-6.08,1.66,
4.938,-6.85,-0.73,6.91,4.01,-6.31,1.66,
4.939,-6.85,-0.73,6.91,4.22,-6.53,1.65,
4.939,-6.85,-0.73,6.91,4.43,-6.75,1.64,
4.94,-6.85,-0.73,6.91,4.66,-6.97,1.61,
4.94,-6.15,-1.11,10.73,4.66,-6.97,1.61,
4.941,-6.15,-1.11,10.73,4.90,-7.18,1.57,
4.942,-6.15,-1.11,10.73,5.13,-7.38,1.52,
4.943,-6.15,-1.11,10.73,5.37,-7.56,1.46,
4.944,-6.15,-1.11,10.73,5.60,-7.71,1.40,
4.944,-6.15,-1.11,10.73,5.82,-7.84,1.33,
4.962,-5.32,-1.88,12.06,5.82,-7.84,1.33,
4.963,-5.32,-1.88,12.06,6.04,-7.93,1.26,
4.964,-5.32,-1.88,12.06,6.24,-7.98,1.19,
4.964,-5.32,-1.88,12.06,6.42,-7.99,1.12,
4.964,-5.32,-1.88,12.06,6.58,-7.97,1.04,
4.964,-5.32,-1.88,12.06,6.72,-7.91,0.97,
4.965,-5.70,-1.62,10.83,6.72,-7.91,0.97,
4.965,-5.70,-1.62,10.83,6.82,-7.83,0.91,
4.965,-5.70,-1.62,10.83,6.89,-7.71,0.85,
4.965,-5.70,-1.62,10.83,6.92,-7.57,0.79,
4.966,-5.70,-1.62,10.83,6.91,-7.39,0.75,
4.966,-5.70,-1.62,10.83,6.87,-7.18,0.72,
4.966,-7.54,-1.09,6.10,6.87,-7.18,0.72,
4.966,-7.54,-1.09,6.10,6.79,-6.93,0.71,
4.966,-7.54,-1.09,6.10,6.68,-6.65,0.71,
4.968,-7.54,-1.09,6.10,6.54,-6.33,0.72,
4.97,-7.54,-1.09,6.10,6.36,-6.00,0.74,
4.972,-7.54,-1.09,6.10,6.16,-5.65,0.76,
4.974,-9.75,-0.18,0.19,6.16,-5.65,0.76,
4.975,-9.75,-0.18,0.19,5.93,-5.28,0.80,
4.979,-9.75,-0.18,0.19,5.67,-4.90,0.85,
4.98,-9.75,-0.18,0.19,5.39,-4.53,0.91,
4.982,-9.75,-0.18,0.19,5.09,-4.15,0.97,
4.982,-9.75,-0.18,0.19,4.77,-3.78,1.05,
4.985,-11.36,1.22,-4.55,4.77,-3.78,1.05,
4.986,-11.36,1.22,-4.55,4.44,-3.41,1.14,
4.987,-11.36,1.22,-4.55,4.09,-3.04,1.23,
