
time,ax,ay,az,wx,wy,wz,
0.004,-0.93,-0.67,-1.13,-0.31,-1.64,0.71,
0.004,-1.18,-0.78,-0.96,-0.31,-1.64,0.71,
0.004,-1.18,-0.78,-0.96,-0.30,-1.65,0.74,
0.004,-1.18,-0.78,-0.96,-0.29,-1.66,0.76,
0.004,-1.18,-0.78,-0.96,-0.29,-1.66,0.78,
0.005,-1.18,-0.78,-0.96,-0.28,-1.67,0.80,
0.018,-1.18,-0.78,-0.96,-0.26,-1.67,0.83,
0.019,-1.44,-0.90,-0.78,-0.26,-1.67,0.83,
0.019,-1.44,-0.90,-0.78,-0.25,-1.67,0.85,
0.019,-1.44,-0.90,-0.78,-0.24,-1.68,0.90,
0.019,-1.44,-0.90,-0.78,-0.22,-1.68,0.93,
0.019,-1.44,-0.90,-0.78,-0.22,-1.69,0.94,
0.019,-1.44,-0.90,-0.78,-0.20,-1.69,0.98,
0.023,-1.76,-0.98,-0.73,-0.20,-1.69,0.98,
0.043,-1.76,-0.98,-0.73,-0.19,-1.70,1.01,
0.043,-1.76,-0.98,-0.73,-0.18,-1.70,1.05,
0.044,-1.76,-0.98,-0.73,-0.17,-1.70,1.09,
0.044,-1.76,-0.98,-0.73,-0.15,-1.70,1.13,
0.044,-1.76,-0.98,-0.73,-0.13,-1.70,1.17,
0.044,-2.41,-1.32,-0.42,-0.13,-1.70,1.17,
0.044,-2.41,-1.32,-0.42,-0.11,-1.70,1.22,
0.044,-2.41,-1.32,-0.42,-0.09,-1.70,1.25,
0.044,-2.41,-1.32,-0.42,-0.08,-1.70,1.29,
0.044,-2.41,-1.32,-0.42,-0.06,-1.70,1.31,
0.044,-2.41,-1.32,-0.42,-0.04,-1.70,1.33,
0.045,-2.10,-1.27,-0.11,-0.04,-1.70,1.33,
0.045,-2.10,-1.27,-0.11,-0.02,-1.70,1.34,
0.045,-2.10,-1.27,-0.11,0.00,-1.70,1.35,
0.045,-2.10,-1.27,-0.11,0.03,-1.70,1.35,
0.045,-2.10,-1.27,-0.11,0.04,-1.69,1.35,
0.045,-2.10,-1.27,-0.11,0.07,-1.68,1.34,
0.067,-1.38,-0.97,0.34,0.07,-1.68,1.34,
0.067,-1.38,-0.97,0.34,0.10,-1.67,1.33,
0.067,-1.38,-0.97,0.34,0.13,-1.66,1.31,
0.067,-1.38,-0.97,0.34,0.16,-1.65,1.29,
0.067,-1.38,-0.97,0.34,0.20,-1.64,1.27,
0.067,-1.38,-0.97,0.34,0.24,-1.63,1.25,
0.067,-0.65,-0.76,1.04,0.24,-1.63,1.25,
0.068,-0.65,-0.76,1.04,0.28,-1.63,1.22,
0.068,-0.65,-0.76,1.04,0.32,-1.63,1.19,
0.068,-0.65,-0.76,1.04,0.36,-1.63,1.16,
0.068,-0.65,-0.76,1.04,0.40,-1.64,1.13,
0.068,-0.65,-0.76,1.04,0.44,-1.66,1.10,
0.068,-0.14,-0.84,1.48,0.44,-1.66,1.10,
0.068,-0.14,-0.84,1.48,0.48,-1.68,1.08,
0.068,-0.14,-0.84,1.48,0.51,-1.71,1.06,
0.07,-0.14,-0.84,1.48,0.54,-1.74,1.04,
0.072,-0.14,-0.84,1.48,0.57,-1.77,1.03,
0.073,-0.14,-0.84,1.48,0.60,-1.80,1.02,
0.076,-0.76,-0.90,0.83,0.60,-1.80,1.02,
0.076,-0.76,-0.90,0.83,0.63,-1.84,1.02,
0.077,-0.76,-0.90,0.83,0.65,-1.88,1.02,
0.079,-0.76,-0.90,0.83,0.67,-1.93,1.04,
0.082,-0.76,-0.90,0.83,0.68,-2.00,1.05,
0.084,-0.76,-0.90,0.83,0.69,-2.07,1.07,
0.086,-1.89,-0.87,-0.03,0.69,-2.07,1.07,
0.086,-1.89,-0.87,-0.03,0.70,-2.15,1.10,
0.087,-1.89,-0.87,-0.03,0.71,-2.22,1.13,
0.089,-1.89,-0.87,-0.03,0.72,-2.29,1.16,
0.092,-1.89,-0.87,-0.03,0.73,-2.36,1.19,
0.094,-1.89,-0.87,-0.03,0.74,-2.42,1.22,
0.096,-2.60,-0.89,-0.47,0.74,-2.42,1.22,
0.096,-2.60,-0.89,-0.47,0.75,-2.47,1.25,
0.097,-2.60,-0.89,-0.47,0.77,-2.51,1.28,
0.099,-2.60,-0.89,-0.47,0.79,-2.55,1.31,
0.102,-2.60,-0.89,-0.47,0.80,-2.57,1.34,
0.107,-2.60,-0.89,-0.47,0.83,-2.59,1.37,
0.107,-2.54,-0.95,-0.37,0.83,-2.59,1.37,
0.107,-2.54,-0.95,-0.37,0.85,-2.59,1.40,
0.107,-2.54,-0.95,-0.37,0.88,-2.59,1.42,
0.109,-2.54,-0.95,-0.37,0.90,-2.58,1.45,
0.112,-2.54,-0.95,-0.37,0.93,-2.57,1.47,
0.113,-2.54,-0.95,-0.37,0.95,-2.56,1.50,
0.116,-1.92,-0.94,0.11,0.95,-2.56,1.50,
0.116,-1.92,-0.94,0.11,0.98,-2.56,1.52,
0.118,-1.92,-0.94,0.11,1.01,-2.55,1.53,
0.119,-1.92,-0.94,0.11,1.03,-2.55,1.54,
0.122,-1.92,-0.94,0.11,1.05,-2.54,1.55,
0.123,-1.92,-0.94,0.11,1.07,-2.54,1.54,
0.128,-0.53,-1.07,0.34,1.07,-2.54,1.54,
0.128,-0.53,-1.07,0.34,1.08,-2.53,1.53,
0.128,-0.53,-1.07,0.34,1.09,-2.50,1.52,
0.13,-0.53,-1.07,0.34,1.09,-2.44,1.50,
0.132,-0.53,-1.07,0.34,1.08,-2.38,1.48,
0.133,-0.53,-1.07,0.34,1.06,-2.32,1.46,
0.136,0.99,-1.29,0.11,1.06,-2.32,1.46,
0.136,0.99,-1.29,0.11,1.05,-2.27,1.43,
0.138,0.99,-1.29,0.11,1.03,-2.23,1.40,
0.14,0.99,-1.29,0.11,1.01,-2.19,1.37,
0.148,0.99,-1.29,0.11,0.98,-2.14,1.34,
0.148,0.99,-1.29,0.11,0.95,-2.08,1.32,
0.149,2.05,-1.09,-0.12,0.95,-2.08,1.32,
0.149,2.05,-1.09,-0.12,0.91,-2.02,1.29,
0.149,2.05,-1.09,-0.12,0.87,-1.97,1.26,
0.15,2.05,-1.09,-0.12,0.82,-1.92,1.24,
0.152,2.05,-1.09,-0.12,0.78,-1.89,1.22,
0.154,2.05,-1.09,-0.12,0.73,-1.86,1.20,
0.156,1.75,-0.70,-0.59,0.73,-1.86,1.20,
0.156,1.75,-0.70,-0.59,0.69,-1.84,1.19,
0.159,1.75,-0.70,-0.59,0.64,-1.82,1.17,
0.16,1.75,-0.70,-0.59,0.59,-1.80,1.16,
0.163,1.75,-0.70,-0.59,0.54,-1.77,1.16,
0.164,1.75,-0.70,-0.59,0.49,-1.73,1.15,
0.166,1.07,-0.49,-0.82,0.49,-1.73,1.15,
0.166,1.07,-0.49,-0.82,0.45,-1.70,1.14,
0.167,1.07,-0.49,-0.82,0.40,-1.66,1.14,
0.169,1.07,-0.49,-0.82,0.36,-1.63,1.13,
0.172,1.07,-0.49,-0.82,0.32,-1.61,1.11,
0.173,1.07,-0.49,-0.82,0.29,-1.59,1.10,
0.176,0.71,-0.22,-0.72,0.29,-1.59,1.10,
0.177,0.71,-0.22,-0.72,0.27,-1.58,1.09,
0.178,0.71,-0.22,-0.72,0.24,-1.56,1.08,
0.18,0.71,-0.22,-0.72,0.21,-1.55,1.07,
0.182,0.71,-0.22,-0.72,0.19,-1.52,1.06,
0.184,0.71,-0.22,-0.72,0.16,-1.50,1.05,
0.186,0.50,-0.01,-0.63,0.16,-1.50,1.05,
0.187,0.50,-0.01,-0.63,0.14,-1.47,1.04,
0.188,0.50,-0.01,-0.63,0.12,-1.45,1.04,
0.19,0.50,-0.01,-0.63,0.10,-1.43,1.04,
0.192,0.50,-0.01,-0.63,0.08,-1.40,1.04,
0.194,0.50,-0.01,-0.63,0.06,-1.38,1.04,
0.196,0.10,-0.06,-0.59,0.06,-1.38,1.04,
0.197,0.10,-0.06,-0.59,0.04,-1.36,1.04,
0.198,0.10,-0.06,-0.59,0.02,-1.34,1.05,
0.2,0.10,-0.06,-0.59,-0.01,-1.33,1.06,
0.202,0.10,-0.06,-0.59,-0.03,-1.31,1.07,
0.204,0.10,-0.06,-0.59,-0.05,-1.29,1.09,
0.206,-0.48,-0.29,-0.53,-0.05,-1.29,1.09,
0.207,-0.48,-0.29,-0.53,-0.07,-1.27,1.11,
0.209,-0.48,-0.29,-0.53,-0.09,-1.25,1.13,
0.21,-0.48,-0.29,-0.53,-0.11,-1.22,1.16,
0.212,-0.48,-0.29,-0.53,-0.12,-1.20,1.18,
0.214,-0.48,-0.29,-0.53,-0.14,-1.17,1.21,
0.216,-0.69,-0.58,-0.38,-0.14,-1.17,1.21,
0.216,-0.69,-0.58,-0.38,-0.15,-1.14,1.23,
0.217,-0.69,-0.58,-0.38,-0.17,-1.13,1.25,
0.22,-0.69,-0.58,-0.38,-0.18,-1.11,1.26,
0.222,-0.69,-0.58,-0.38,-0.18,-1.09,1.27,
0.224,-0.69,-0.58,-0.38,-0.19,-1.05,1.28,
0.226,-0.61,-0.92,-0.41,-0.19,-1.05,1.28,
0.227,-0.61,-0.92,-0.41,-0.20,-1.00,1.29,
0.228,-0.61,-0.92,-0.41,-0.21,-0.93,1.30,
0.23,-0.61,-0.92,-0.41,-0.23,-0.85,1.31,
0.232,-0.61,-0.92,-0.41,-0.24,-0.80,1.32,
0.234,-0.61,-0.92,-0.41,-0.27,-0.79,1.33,
0.236,-0.97,-1.08,-1.45,-0.27,-0.79,1.33,
0.237,-0.97,-1.08,-1.45,-0.29,-0.81,1.34,
0.238,-0.97,-1.08,-1.45,-0.32,-0.86,1.34,
0.24,-0.97,-1.08,-1.45,-0.33,-0.91,1.34,
0.242,-0.97,-1.08,-1.45,-0.35,-0.95,1.34,
0.244,-0.97,-1.08,-1.45,-0.36,-0.97,1.33,
0.246,0.36,-1.23,-0.93,-0.36,-0.97,1.33,
0.247,0.36,-1.23,-0.93,-0.37,-0.98,1.31,
0.248,0.36,-1.23,-0.93,-0.37,-0.96,1.29,
0.25,0.36,-1.23,-0.93,-0.38,-0.93,1.27,
0.252,0.36,-1.23,-0.93,-0.38,-0.90,1.25,
0.254,0.36,-1.23,-0.93,-0.39,-0.86,1.22,
0.256,1.29,-1.20,-0.72,-0.39,-0.86,1.22,
0.257,1.29,-1.20,-0.72,-0.39,-0.82,1.20,
0.281,1.29,-1.20,-0.72,-0.39,-0.78,1.17,
0.282,1.29,-1.20,-0.72,-0.40,-0.74,1.15,
0.283,1.29,-1.20,-0.72,-0.40,-0.70,1.13,
0.283,1.29,-1.20,-0.72,-0.40,-0.65,1.12,
0.284,1.58,-0.97,-0.18,-0.40,-0.65,1.12,
0.285,1.58,-0.97,-0.18,-0.41,-0.61,1.10,
0.285,1.58,-0.97,-0.18,-0.41,-0.58,1.09,
0.322,1.58,-0.97,-0.18,-0.42,-0.56,1.08,
0.322,1.58,-0.97,-0.18,-0.42,-0.55,1.07,
0.323,1.58,-0.97,-0.18,-0.42,-0.54,1.05,
0.323,1.25,-0.91,0.22,-0.42,-0.54,1.05,
0.324,1.25,-0.91,0.22,-0.43,-0.53,1.03,
0.324,1.25,-0.91,0.22,-0.43,-0.54,1.01,
0.324,1.25,-0.91,0.22,-0.43,-0.55,0.99,
0.325,1.25,-0.91,0.22,-0.42,-0.55,0.96,
0.325,1.25,-0.91,0.22,-0.41,-0.53,0.93,
0.326,0.76,-1.11,0.75,-0.41,-0.53,0.93,
0.326,0.76,-1.11,0.75,-0.39,-0.53,0.90,
0.326,0.76,-1.11,0.75,-0.37,-0.53,0.88,
0.327,0.76,-1.11,0.75,-0.34,-0.54,0.85,
0.327,0.76,-1.11,0.75,-0.32,-0.55,0.84,
0.328,0.76,-1.11,0.75,-0.25,-0.56,0.81,
0.328,0.76,-1.11,0.75,-0.25,-0.56,0.81,
0.328,-0.04,-1.16,1.69,-0.25,-0.56,0.81,
0.329,-0.04,-1.16,1.69,-0.19,-0.54,0.80,
0.329,-0.04,-1.16,1.69,-0.15,-0.52,0.80,
0.33,-0.04,-1.16,1.69,-0.13,-0.50,0.80,
0.33,-0.04,-1.16,1.69,-0.09,-0.46,0.80,
0.331,-0.45,-1.03,2.22,-0.09,-0.46,0.80,
0.331,-0.45,-1.03,2.22,-0.04,-0.42,0.80,
0.331,-0.45,-1.03,2.22,0.00,-0.36,0.81,
0.332,-0.45,-1.03,2.22,0.08,-0.28,0.82,
0.332,-0.45,-1.03,2.22,0.11,-0.25,0.83,
0.333,-0.45,-1.03,2.22,0.16,-0.20,0.84,
0.333,-0.64,-0.59,2.60,0.16,-0.20,0.84,
0.333,-0.64,-0.59,2.60,0.21,-0.14,0.84,
0.334,-0.64,-0.59,2.60,0.26,-0.07,0.84,
0.334,-0.64,-0.59,2.60,0.30,-0.00,0.83,
0.334,-0.64,-0.59,2.60,0.33,0.07,0.80,
0.335,-0.64,-0.59,2.60,0.36,0.15,0.78,
0.335,-0.06,-0.49,2.39,0.36,0.15,0.78,
0.335,-0.06,-0.49,2.39,0.39,0.23,0.74,
0.335,-0.06,-0.49,2.39,0.42,0.31,0.71,
0.336,-0.06,-0.49,2.39,0.44,0.40,0.66,
0.336,-0.06,-0.49,2.39,0.44,0.51,0.60,
0.336,-0.06,-0.49,2.39,0.44,0.62,0.52,
0.337,0.56,-1.03,1.51,0.44,0.62,0.52,
0.337,0.56,-1.03,1.51,0.44,0.74,0.44,
0.351,0.56,-1.03,1.51,0.43,0.86,0.36,
0.351,0.56,-1.03,1.51,0.42,1.00,0.27,
0.352,0.56,-1.03,1.51,0.40,1.13,0.19,
0.352,0.56,-1.03,1.51,0.37,1.25,0.11,
0.352,0.91,-1.76,0.50,0.37,1.25,0.11,
0.352,0.91,-1.76,0.50,0.33,1.37,0.02,
0.353,0.91,-1.76,0.50,0.30,1.47,-0.08,
0.353,0.91,-1.76,0.50,0.26,1.56,-0.17,
0.353,0.91,-1.76,0.50,0.22,1.64,-0.27,
0.353,0.91,-1.76,0.50,0.18,1.69,-0.37,
0.356,1.14,-2.07,-0.19,0.18,1.69,-0.37,
0.36,1.14,-2.07,-0.19,0.15,1.73,-0.48,
0.36,1.14,-2.07,-0.19,0.12,1.79,-0.64,
0.36,1.14,-2.07,-0.19,0.10,1.83,-0.74,
0.362,1.14,-2.07,-0.19,0.10,1.86,-0.79,
0.364,1.14,-2.07,-0.19,0.09,1.91,-0.89,
0.366,1.24,-1.69,-0.18,0.09,1.91,-0.89,
0.367,1.24,-1.69,-0.18,0.09,1.96,-0.98,
0.367,1.24,-1.69,-0.18,0.08,2.00,-1.06,
0.37,1.24,-1.69,-0.18,0.09,2.03,-1.13,
0.372,1.24,-1.69,-0.18,0.09,2.05,-1.19,
0.375,1.24,-1.69,-0.18,0.09,2.06,-1.24,
0.377,0.63,-1.02,0.17,0.09,2.06,-1.24,
0.377,0.63,-1.02,0.17,0.10,2.06,-1.28,
0.378,0.63,-1.02,0.17,0.11,2.05,-1.30,
0.38,0.63,-1.02,0.17,0.12,2.03,-1.31,
0.382,0.63,-1.02,0.17,0.13,2.00,-1.30,
0.383,0.63,-1.02,0.17,0.14,1.97,-1.28,
0.387,-0.48,-0.96,0.27,0.14,1.97,-1.28,
0.387,-0.48,-0.96,0.27,0.16,1.93,-1.25,
0.388,-0.48,-0.96,0.27,0.18,1.89,-1.21,
0.394,-0.48,-0.96,0.27,0.20,1.85,-1.15,
0.395,-0.48,-0.96,0.27,0.22,1.80,-1.07,
0.395,-0.48,-0.96,0.27,0.25,1.75,-0.98,
0.398,-1.53,-1.11,0.26,0.25,1.75,-0.98,
0.399,-1.53,-1.11,0.26,0.28,1.69,-0.86,
0.399,-1.53,-1.11,0.26,0.31,1.63,-0.73,
0.399,-1.53,-1.11,0.26,0.33,1.56,-0.60,
0.402,-1.53,-1.11,0.26,0.35,1.47,-0.46,
0.404,-1.53,-1.11,0.26,0.37,1.38,-0.33,
0.411,-2.96,-1.62,0.76,0.37,1.38,-0.33,
0.412,-2.96,-1.62,0.76,0.39,1.29,-0.20,
0.412,-2.96,-1.62,0.76,0.40,1.19,-0.08,
0.413,-2.96,-1.62,0.76,0.41,1.09,0.04,
0.413,-2.96,-1.62,0.76,0.42,0.99,0.14,
0.414,-2.96,-1.62,0.76,0.42,0.90,0.24,
0.416,-3.17,-2.82,1.26,0.42,0.90,0.24,
0.416,-3.17,-2.82,1.26,0.42,0.81,0.33,
0.417,-3.17,-2.82,1.26,0.41,0.75,0.41,
0.42,-3.17,-2.82,1.26,0.40,0.70,0.49,
0.422,-3.17,-2.82,1.26,0.38,0.68,0.55,
0.432,-3.17,-2.82,1.26,0.35,0.66,0.62,
0.433,-2.61,-3.41,0.76,0.35,0.66,0.62,
0.433,-2.61,-3.41,0.76,0.31,0.66,0.68,
0.433,-2.61,-3.41,0.76,0.27,0.65,0.73,
0.434,-2.61,-3.41,0.76,0.19,0.65,0.80,
0.434,-2.61,-3.41,0.76,0.16,0.66,0.82,
0.434,-2.61,-3.41,0.76,0.09,0.67,0.87,
0.436,-2.41,-3.39,-0.37,0.09,0.67,0.87,
0.457,-2.41,-3.39,-0.37,0.03,0.70,0.91,
0.457,-2.41,-3.39,-0.37,-0.05,0.74,0.95,
0.457,-2.41,-3.39,-0.37,-0.12,0.80,0.99,
0.458,-2.41,-3.39,-0.37,-0.19,0.87,1.02,
0.458,-2.41,-3.39,-0.37,-0.27,0.96,1.04,
0.458,-2.36,-3.10,-1.43,-0.27,0.96,1.04,
0.458,-2.36,-3.10,-1.43,-0.34,1.05,1.05,
0.458,-2.36,-3.10,-1.43,-0.41,1.15,1.05,
0.458,-2.36,-3.10,-1.43,-0.48,1.22,1.05,
0.459,-2.36,-3.10,-1.43,-0.56,1.30,1.03,
0.459,-2.36,-3.10,-1.43,-0.63,1.40,1.01,
0.459,-1.34,-2.36,-1.84,-0.63,1.40,1.01,
0.459,-1.34,-2.36,-1.84,-0.70,1.49,0.97,
0.459,-1.34,-2.36,-1.84,-0.76,1.59,0.94,
0.463,-1.34,-2.36,-1.84,-0.83,1.69,0.90,
0.463,-1.34,-2.36,-1.84,-0.89,1.76,0.86,
0.463,-1.34,-2.36,-1.84,-0.97,1.81,0.83,
0.466,-0.05,-2.06,-1.68,-0.97,1.81,0.83,
0.466,-0.05,-2.06,-1.68,-1.04,1.84,0.81,
0.468,-0.05,-2.06,-1.68,-1.12,1.84,0.79,
0.47,-0.05,-2.06,-1.68,-1.19,1.80,0.78,
0.471,-0.05,-2.06,-1.68,-1.27,1.72,0.76,
0.474,-0.05,-2.06,-1.68,-1.36,1.62,0.74,
0.48,0.34,-2.69,-2.75,-1.36,1.62,0.74,
0.48,0.34,-2.69,-2.75,-1.44,1.52,0.72,
0.48,0.34,-2.69,-2.75,-1.52,1.41,0.69,
0.481,0.34,-2.69,-2.75,-1.59,1.32,0.66,
0.482,0.34,-2.69,-2.75,-1.64,1.23,0.62,
0.483,0.34,-2.69,-2.75,-1.69,1.15,0.58,
0.488,1.37,-3.11,-3.25,-1.69,1.15,0.58,
0.488,1.37,-3.11,-3.25,-1.72,1.08,0.54,
0.489,1.37,-3.11,-3.25,-1.75,1.02,0.49,
0.492,1.37,-3.11,-3.25,-1.77,0.96,0.45,
0.492,1.37,-3.11,-3.25,-1.77,0.91,0.40,
0.494,1.37,-3.11,-3.25,-1.77,0.86,0.37,
0.499,1.48,-3.37,-2.33,-1.77,0.86,0.37,
0.5,1.48,-3.37,-2.33,-1.77,0.81,0.33,
0.5,1.48,-3.37,-2.33,-1.77,0.78,0.30,
0.5,1.48,-3.37,-2.33,-1.77,0.75,0.27,
0.507,1.48,-3.37,-2.33,-1.77,0.72,0.25,
0.507,1.48,-3.37,-2.33,-1.77,0.68,0.23,
0.507,0.97,-3.96,-1.92,-1.77,0.68,0.23,
0.507,0.97,-3.96,-1.92,-1.77,0.64,0.22,
0.512,0.97,-3.96,-1.92,-1.78,0.60,0.22,
0.513,0.97,-3.96,-1.92,-1.79,0.56,0.22,
0.513,0.97,-3.96,-1.92,-1.81,0.52,0.22,
0.514,0.97,-3.96,-1.92,-1.84,0.48,0.23,
0.516,0.28,-4.12,-2.18,-1.84,0.48,0.23,
0.517,0.28,-4.12,-2.18,-1.87,0.45,0.24,
0.518,0.28,-4.12,-2.18,-1.91,0.42,0.25,
0.522,0.28,-4.12,-2.18,-1.96,0.39,0.27,
0.523,0.28,-4.12,-2.18,-2.02,0.37,0.28,
0.524,0.28,-4.12,-2.18,-2.08,0.34,0.30,
0.526,0.25,-4.03,-2.91,-2.08,0.34,0.30,
0.526,0.25,-4.03,-2.91,-2.15,0.33,0.31,
0.528,0.25,-4.03,-2.91,-2.22,0.31,0.32,
0.531,0.25,-4.03,-2.91,-2.30,0.29,0.33,
0.532,0.25,-4.03,-2.91,-2.38,0.27,0.35,
0.534,0.25,-4.03,-2.91,-2.46,0.25,0.36,
0.536,0.43,-3.63,-3.54,-2.46,0.25,0.36,
0.536,0.43,-3.63,-3.54,-2.54,0.23,0.37,
0.538,0.43,-3.63,-3.54,-2.63,0.21,0.39,
0.54,0.43,-3.63,-3.54,-2.71,0.18,0.40,
0.542,0.43,-3.63,-3.54,-2.78,0.15,0.41,
0.545,0.43,-3.63,-3.54,-2.86,0.11,0.42,
0.546,1.00,-3.83,-3.28,-2.86,0.11,0.42,
0.547,1.00,-3.83,-3.28,-2.93,0.07,0.43,
0.548,1.00,-3.83,-3.28,-3.00,0.02,0.43,
0.551,1.00,-3.83,-3.28,-3.07,-0.03,0.43,
0.552,1.00,-3.83,-3.28,-3.13,-0.07,0.43,
0.554,1.00,-3.83,-3.28,-3.19,-0.10,0.43,
0.562,1.92,-4.20,-2.51,-3.19,-0.10,0.43,
0.562,1.92,-4.20,-2.51,-3.25,-0.13,0.42,
0.562,1.92,-4.20,-2.51,-3.30,-0.15,0.42,
0.563,1.92,-4.20,-2.51,-3.35,-0.17,0.41,
0.563,1.92,-4.20,-2.51,-3.40,-0.18,0.40,
0.564,1.92,-4.20,-2.51,-3.45,-0.18,0.39,
0.57,2.78,-4.22,-2.14,-3.45,-0.18,0.39,
0.57,2.78,-4.22,-2.14,-3.49,-0.18,0.38,
0.57,2.78,-4.22,-2.14,-3.53,-0.18,0.36,
0.571,2.78,-4.22,-2.14,-3.58,-0.18,0.35,
0.575,2.78,-4.22,-2.14,-3.61,-0.19,0.33,
0.576,2.78,-4.22,-2.14,-3.65,-0.20,0.31,
0.576,3.28,-3.58,-1.97,-3.65,-0.20,0.31,
0.576,3.28,-3.58,-1.97,-3.68,-0.21,0.29,
0.578,3.28,-3.58,-1.97,-3.71,-0.22,0.26,
0.58,3.28,-3.58,-1.97,-3.73,-0.22,0.23,
0.582,3.28,-3.58,-1.97,-3.75,-0.22,0.20,
0.584,3.28,-3.58,-1.97,-3.77,-0.23,0.17,
0.586,3.87,-2.89,-1.62,-3.77,-0.23,0.17,
0.586,3.87,-2.89,-1.62,-3.79,-0.23,0.14,
0.587,3.87,-2.89,-1.62,-3.81,-0.24,0.10,
0.59,3.87,-2.89,-1.62,-3.82,-0.24,0.07,
0.592,3.87,-2.89,-1.62,-3.83,-0.25,0.04,
0.594,3.87,-2.89,-1.62,-3.84,-0.26,0.01,
0.597,3.98,-2.47,-1.11,-3.84,-0.26,0.01,
0.597,3.98,-2.47,-1.11,-3.85,-0.27,-0.02,
0.604,3.98,-2.47,-1.11,-3.86,-0.28,-0.05,
0.604,3.98,-2.47,-1.11,-3.87,-0.30,-0.07,
0.604,3.98,-2.47,-1.11,-3.88,-0.32,-0.10,
0.619,3.98,-2.47,-1.11,-3.89,-0.34,-0.14,
0.619,3.97,-2.45,-0.56,-3.89,-0.34,-0.14,
0.619,3.97,-2.45,-0.56,-3.90,-0.37,-0.17,
0.619,3.97,-2.45,-0.56,-3.91,-0.41,-0.20,
0.62,3.97,-2.45,-0.56,-3.93,-0.45,-0.24,
0.62,3.97,-2.45,-0.56,-3.94,-0.50,-0.28,
0.62,3.97,-2.45,-0.56,-3.95,-0.56,-0.31,
0.62,4.02,-2.41,0.06,-3.95,-0.56,-0.31,
0.62,4.02,-2.41,0.06,-3.97,-0.62,-0.35,
0.62,4.02,-2.41,0.06,-3.98,-0.68,-0.39,
0.62,4.02,-2.41,0.06,-3.99,-0.73,-0.42,
0.624,4.02,-2.41,0.06,-4.00,-0.77,-0.45,
0.625,4.02,-2.41,0.06,-4.01,-0.80,-0.47,
0.626,3.98,-2.08,0.48,-4.01,-0.80,-0.47,
0.627,3.98,-2.08,0.48,-4.01,-0.81,-0.49,
0.628,3.98,-2.08,0.48,-4.02,-0.81,-0.50,
0.63,3.98,-2.08,0.48,-4.02,-0.80,-0.52,
0.632,3.98,-2.08,0.48,-4.02,-0.78,-0.52,
0.633,3.98,-2.08,0.48,-4.02,-0.75,-0.51,
0.636,3.42,-1.36,0.54,-4.02,-0.75,-0.51,
0.636,3.42,-1.36,0.54,-4.01,-0.73,-0.51,
0.637,3.42,-1.36,0.54,-4.01,-0.72,-0.50,
0.639,3.42,-1.36,0.54,-4.01,-0.71,-0.48,
0.641,3.42,-1.36,0.54,-4.00,-0.71,-0.47,
0.644,3.42,-1.36,0.54,-3.99,-0.72,-0.45,
0.646,3.06,-0.97,1.27,-3.99,-0.72,-0.45,
0.646,3.06,-0.97,1.27,-3.98,-0.75,-0.44,
0.647,3.06,-0.97,1.27,-3.97,-0.78,-0.42,
0.649,3.06,-0.97,1.27,-3.97,-0.82,-0.41,
0.652,3.06,-0.97,1.27,-3.96,-0.87,-0.40,
0.653,3.06,-0.97,1.27,-3.95,-0.91,-0.39,
0.659,3.18,-0.61,1.89,-3.95,-0.91,-0.39,
0.659,3.18,-0.61,1.89,-3.95,-0.95,-0.38,
0.66,3.18,-0.61,1.89,-3.95,-0.99,-0.36,
0.66,3.18,-0.61,1.89,-3.94,-1.02,-0.35,
0.661,3.18,-0.61,1.89,-3.94,-1.05,-0.33,
0.664,3.18,-0.61,1.89,-3.93,-1.07,-0.31,
0.669,3.37,0.34,1.63,-3.93,-1.07,-0.31,
0.669,3.37,0.34,1.63,-3.93,-1.07,-0.29,
0.669,3.37,0.34,1.63,-3.92,-1.07,-0.26,
0.669,3.37,0.34,1.63,-3.91,-1.06,-0.24,
0.675,3.37,0.34,1.63,-3.90,-1.04,-0.20,
0.675,3.37,0.34,1.63,-3.88,-1.02,-0.17,
0.676,3.17,1.37,1.62,-3.88,-1.02,-0.17,
0.676,3.17,1.37,1.62,-3.87,-0.99,-0.14,
0.677,3.17,1.37,1.62,-3.85,-0.96,-0.11,
0.679,3.17,1.37,1.62,-3.81,-0.92,-0.06,
0.682,3.17,1.37,1.62,-3.80,-0.91,-0.04,
0.683,3.17,1.37,1.62,-3.78,-0.89,-0.02,
0.686,3.13,2.17,2.19,-3.78,-0.89,-0.02,
0.686,3.13,2.17,2.19,-3.75,-0.87,0.01,
0.687,3.13,2.17,2.19,-3.72,-0.86,0.03,
0.69,3.13,2.17,2.19,-3.69,-0.85,0.06,
0.692,3.13,2.17,2.19,-3.65,-0.85,0.07,
0.693,3.13,2.17,2.19,-3.62,-0.85,0.09,
0.696,3.31,2.41,2.72,-3.62,-0.85,0.09,
0.696,3.31,2.41,2.72,-3.58,-0.85,0.11,
0.698,3.31,2.41,2.72,-3.55,-0.86,0.12,
0.7,3.31,2.41,2.72,-3.52,-0.86,0.13,
0.701,3.31,2.41,2.72,-3.48,-0.87,0.14,
0.704,3.31,2.41,2.72,-3.45,-0.88,0.14,
0.706,3.63,2.59,2.95,-3.45,-0.88,0.14,
0.707,3.63,2.59,2.95,-3.41,-0.89,0.14,
0.708,3.63,2.59,2.95,-3.37,-0.92,0.14,
0.71,3.63,2.59,2.95,-3.33,-0.95,0.14,
0.712,3.63,2.59,2.95,-3.32,-0.96,0.14,
0.713,3.63,2.59,2.95,-3.29,-1.00,0.13,
0.716,3.90,2.41,3.26,-3.29,-1.00,0.13,
0.716,3.90,2.41,3.26,-3.26,-1.05,0.12,
0.717,3.90,2.41,3.26,-3.23,-1.10,0.11,
0.719,3.90,2.41,3.26,-3.20,-1.14,0.09,
0.722,3.90,2.41,3.26,-3.18,-1.19,0.08,
0.724,3.90,2.41,3.26,-3.15,-1.22,0.06,
0.726,4.18,2.34,3.53,-3.15,-1.22,0.06,
0.726,4.18,2.34,3.53,-3.13,-1.26,0.04,
0.727,4.18,2.34,3.53,-3.10,-1.29,0.02,
0.729,4.18,2.34,3.53,-3.07,-1.31,-0.00,
0.731,4.18,2.34,3.53,-3.04,-1.32,-0.03,
0.733,4.18,2.34,3.53,-3.02,-1.33,-0.05,
0.736,4.53,2.43,3.63,-3.02,-1.33,-0.05,
0.736,4.53,2.43,3.63,-2.99,-1.32,-0.08,
0.738,4.53,2.43,3.63,-2.96,-1.32,-0.11,
0.74,4.53,2.43,3.63,-2.93,-1.31,-0.13,
0.742,4.53,2.43,3.63,-2.91,-1.30,-0.16,
0.744,4.53,2.43,3.63,-2.88,-1.29,-0.18,
0.746,4.49,2.90,3.49,-2.88,-1.29,-0.18,
0.746,4.49,2.90,3.49,-2.85,-1.28,-0.20,
0.747,4.49,2.90,3.49,-2.82,-1.27,-0.22,
0.75,4.49,2.90,3.49,-2.79,-1.27,-0.25,
0.752,4.49,2.90,3.49,-2.76,-1.26,-0.27,
0.754,4.49,2.90,3.49,-2.73,-1.26,-0.29,
0.756,4.06,3.18,3.52,-2.73,-1.26,-0.29,
0.757,4.06,3.18,3.52,-2.71,-1.26,-0.31,
0.758,4.06,3.18,3.52,-2.67,-1.27,-0.33,
0.76,4.06,3.18,3.52,-2.64,-1.29,-0.34,
0.762,4.06,3.18,3.52,-2.61,-1.31,-0.36,
0.764,4.06,3.18,3.52,-2.58,-1.34,-0.38,
0.766,3.80,3.15,4.08,-2.58,-1.34,-0.38,
0.766,3.80,3.15,4.08,-2.55,-1.37,-0.40,
0.768,3.80,3.15,4.08,-2.52,-1.41,-0.42,
0.792,3.80,3.15,4.08,-2.49,-1.46,-0.44,
0.792,3.80,3.15,4.08,-2.45,-1.50,-0.45,
0.793,3.80,3.15,4.08,-2.43,-1.53,-0.46,
0.793,3.55,2.87,4.42,-2.43,-1.53,-0.46,
0.793,3.55,2.87,4.42,-2.40,-1.56,-0.47,
0.794,3.55,2.87,4.42,-2.37,-1.59,-0.47,
0.794,3.55,2.87,4.42,-2.34,-1.61,-0.47,
0.795,3.55,2.87,4.42,-2.32,-1.62,-0.46,
0.795,3.55,2.87,4.42,-2.29,-1.63,-0.46,
0.796,3.35,3.01,4.24,-2.29,-1.63,-0.46,
0.796,3.35,3.01,4.24,-2.27,-1.64,-0.44,
0.796,3.35,3.01,4.24,-2.25,-1.65,-0.43,
0.797,3.35,3.01,4.24,-2.23,-1.66,-0.42,
0.797,3.35,3.01,4.24,-2.18,-1.68,-0.40,
0.798,3.35,3.01,4.24,-2.18,-1.68,-0.40,
0.798,3.35,3.01,4.24,-2.16,-1.70,-0.40,
0.798,3.31,3.14,4.38,-2.16,-1.70,-0.40,
0.799,3.31,3.14,4.38,-2.14,-1.72,-0.40,
0.807,3.31,3.14,4.38,-2.12,-1.74,-0.40,
0.808,3.31,3.14,4.38,-2.09,-1.76,-0.40,
0.808,3.31,3.14,4.38,-2.07,-1.79,-0.41,
0.808,3.88,3.01,4.83,-2.07,-1.79,-0.41,
0.808,3.88,3.01,4.83,-2.05,-1.81,-0.43,
0.809,3.88,3.01,4.83,-2.02,-1.84,-0.44,
0.812,3.88,3.01,4.83,-2.00,-1.86,-0.46,
0.812,3.88,3.01,4.83,-1.98,-1.88,-0.48,
0.816,3.88,3.01,4.83,-1.96,-1.89,-0.50,
0.816,4.28,2.61,5.06,-1.96,-1.89,-0.50,
0.816,4.28,2.61,5.06,-1.93,-1.90,-0.53,
0.82,4.28,2.61,5.06,-1.91,-1.91,-0.55,
0.82,4.28,2.61,5.06,-1.89,-1.91,-0.58,
0.822,4.28,2.61,5.06,-1.87,-1.92,-0.61,
0.824,4.28,2.61,5.06,-1.85,-1.93,-0.64,
0.826,4.30,2.34,5.26,-1.85,-1.93,-0.64,
0.827,4.30,2.34,5.26,-1.83,-1.94,-0.67,
0.828,4.30,2.34,5.26,-1.81,-1.96,-0.70,
0.837,4.30,2.34,5.26,-1.78,-1.99,-0.76,
0.837,4.30,2.34,5.26,-1.77,-2.00,-0.78,
0.838,4.30,2.34,5.26,-1.76,-2.02,-0.81,
0.838,4.17,1.77,5.06,-1.76,-2.02,-0.81,
0.838,4.17,1.77,5.06,-1.75,-2.04,-0.85,
0.838,4.17,1.77,5.06,-1.74,-2.06,-0.88,
0.849,4.17,1.77,5.06,-1.73,-2.09,-0.92,
0.849,4.17,1.77,5.06,-1.72,-2.11,-0.96,
0.849,4.17,1.77,5.06,-1.72,-2.13,-1.00,
0.85,3.80,1.33,4.77,-1.72,-2.13,-1.00,
0.85,3.80,1.33,4.77,-1.71,-2.15,-1.04,
0.85,3.80,1.33,4.77,-1.71,-2.18,-1.08,
0.85,3.80,1.33,4.77,-1.70,-2.20,-1.12,
0.855,3.80,1.33,4.77,-1.70,-2.22,-1.16,
0.88,3.80,1.33,4.77,-1.69,-2.23,-1.20,
0.881,3.31,0.98,4.40,-1.69,-2.23,-1.20,
0.881,3.31,0.98,4.40,-1.69,-2.24,-1.23,
0.881,3.31,0.98,4.40,-1.69,-2.24,-1.27,
0.881,3.31,0.98,4.40,-1.69,-2.22,-1.32,
0.882,3.31,0.98,4.40,-1.68,-2.21,-1.34,
0.882,3.31,0.98,4.40,-1.68,-2.18,-1.36,
0.882,2.46,1.20,4.12,-1.68,-2.18,-1.36,
0.882,2.46,1.20,4.12,-1.67,-2.14,-1.39,
0.883,2.46,1.20,4.12,-1.65,-2.08,-1.43,
0.883,2.46,1.20,4.12,-1.64,-2.03,-1.45,
0.883,2.46,1.20,4.12,-1.63,-2.00,-1.46,
0.883,2.46,1.20,4.12,-1.61,-1.95,-1.48,
0.884,1.23,1.52,4.01,-1.61,-1.95,-1.48,
0.884,1.23,1.52,4.01,-1.59,-1.90,-1.49,
0.884,1.23,1.52,4.01,-1.56,-1.82,-1.51,
0.884,1.23,1.52,4.01,-1.53,-1.77,-1.52,
0.884,1.23,1.52,4.01,-1.51,-1.75,-1.53,
0.889,1.23,1.52,4.01,-1.48,-1.71,-1.53,
0.889,0.07,2.05,4.41,-1.48,-1.71,-1.53,
0.889,0.07,2.05,4.41,-1.42,-1.68,-1.54,
0.89,0.07,2.05,4.41,-1.40,-1.67,-1.54,
0.892,0.07,2.05,4.41,-1.33,-1.66,-1.54,
0.892,0.07,2.05,4.41,-1.28,-1.65,-1.53,
0.895,0.07,2.05,4.41,-1.25,-1.64,-1.53,
0.896,-0.79,2.33,4.95,-1.25,-1.64,-1.53,
0.896,-0.79,2.33,4.95,-1.18,-1.63,-1.51,
0.898,-0.79,2.33,4.95,-1.13,-1.63,-1.50,
0.9,-0.79,2.33,4.95,-1.08,-1.62,-1.48,
0.902,-0.79,2.33,4.95,-1.04,-1.62,-1.46,
0.905,-0.79,2.33,4.95,-1.01,-1.61,-1.44,
0.907,-1.39,2.36,4.71,-1.01,-1.61,-1.44,
0.909,-1.39,2.36,4.71,-0.95,-1.60,-1.40,
0.91,-1.39,2.36,4.71,-0.93,-1.60,-1.38,
0.91,-1.39,2.36,4.71,-0.87,-1.59,-1.33,
0.913,-1.39,2.36,4.71,-0.84,-1.58,-1.29,
0.914,-1.39,2.36,4.71,-0.80,-1.58,-1.25,
0.916,-1.97,2.24,3.95,-0.80,-1.58,-1.25,
0.917,-1.97,2.24,3.95,-0.76,-1.57,-1.21,
0.918,-1.97,2.24,3.95,-0.72,-1.57,-1.17,
0.921,-1.97,2.24,3.95,-0.68,-1.56,-1.12,
0.923,-1.97,2.24,3.95,-0.64,-1.55,-1.08,
0.924,-1.97,2.24,3.95,-0.60,-1.54,-1.04,
0.926,-2.33,2.42,3.67,-0.60,-1.54,-1.04,
0.927,-2.33,2.42,3.67,-0.55,-1.52,-1.00,
0.928,-2.33,2.42,3.67,-0.50,-1.51,-0.96,
0.93,-2.33,2.42,3.67,-0.45,-1.50,-0.92,
0.932,-2.33,2.42,3.67,-0.40,-1.48,-0.88,
0.934,-2.33,2.42,3.67,-0.35,-1.47,-0.84,
0.942,-2.68,2.54,3.46,-0.35,-1.47,-0.84,
0.96,-2.68,2.54,3.46,-0.29,-1.46,-0.80,
0.96,-2.68,2.54,3.46,-0.24,-1.45,-0.77,
0.961,-2.68,2.54,3.46,-0.18,-1.45,-0.74,
0.961,-2.68,2.54,3.46,-0.12,-1.44,-0.71,
0.961,-2.68,2.54,3.46,-0.06,-1.43,-0.69,
0.961,-2.83,2.81,3.66,-0.06,-1.43,-0.69,
0.961,-2.83,2.81,3.66,0.00,-1.43,-0.67,
0.961,-2.83,2.81,3.66,0.06,-1.42,-0.65,
0.961,-2.83,2.81,3.66,0.12,-1.41,-0.63,
0.961,-2.83,2.81,3.66,0.18,-1.41,-0.62,
0.962,-2.83,2.81,3.66,0.23,-1.41,-0.60,
0.962,-2.87,2.88,3.31,0.23,-1.41,-0.60,
0.962,-2.87,2.88,3.31,0.28,-1.41,-0.59,
0.962,-2.87,2.88,3.31,0.33,-1.41,-0.58,
0.962,-2.87,2.88,3.31,0.38,-1.41,-0.56,
0.962,-2.87,2.88,3.31,0.43,-1.41,-0.54,
0.964,-2.87,2.88,3.31,0.47,-1.40,-0.53,
0.968,-2.92,2.32,2.89,0.47,-1.40,-0.53,
0.969,-2.92,2.32,2.89,0.51,-1.39,-0.52,
0.969,-2.92,2.32,2.89,0.55,-1.38,-0.49,
0.97,-2.92,2.32,2.89,0.59,-1.37,-0.47,
0.972,-2.92,2.32,2.89,0.62,-1.36,-0.45,
0.974,-2.92,2.32,2.89,0.65,-1.35,-0.42,
0.976,-3.35,1.87,2.26,0.65,-1.35,-0.42,
0.976,-3.35,1.87,2.26,0.68,-1.33,-0.39,
0.977,-3.35,1.87,2.26,0.71,-1.31,-0.36,
0.98,-3.35,1.87,2.26,0.74,-1.29,-0.33,
0.982,-3.35,1.87,2.26,0.77,-1.28,-0.31,
0.984,-3.35,1.87,2.26,0.80,-1.27,-0.28,
0.987,-3.70,1.77,2.05,0.80,-1.27,-0.28,
0.987,-3.70,1.77,2.05,0.84,-1.26,-0.26,
0.988,-3.70,1.77,2.05,0.87,-1.24,-0.23,
0.99,-3.70,1.77,2.05,0.90,-1.22,-0.21,
0.992,-3.70,1.77,2.05,0.93,-1.20,-0.18,
0.995,-3.70,1.77,2.05,0.96,-1.18,-0.15,
0.996,-3.78,1.80,1.88,0.96,-1.18,-0.15,
0.996,-3.78,1.80,1.88,0.99,-1.16,-0.12,
0.998,-3.78,1.80,1.88,1.03,-1.15,-0.09,
0.999,-3.78,1.80,1.88,1.06,-1.15,-0.06,
1.002,-3.78,1.80,1.88,1.10,-1.15,-0.03,
1.004,-3.78,1.80,1.88,1.14,-1.16,-0.00,
1.006,-3.96,1.62,2.63,1.14,-1.16,-0.00,
1.007,-3.96,1.62,2.63,1.17,-1.18,0.03,
1.008,-3.96,1.62,2.63,1.21,-1.20,0.05,
1.01,-3.96,1.62,2.63,1.25,-1.23,0.07,
1.012,-3.96,1.62,2.63,1.28,-1.25,0.10,
1.014,-3.96,1.62,2.63,1.31,-1.28,0.13,
1.016,-3.47,0.70,2.85,1.31,-1.28,0.13,
1.016,-3.47,0.70,2.85,1.33,-1.30,0.15,
1.018,-3.47,0.70,2.85,1.35,-1.32,0.18,
1.021,-3.47,0.70,2.85,1.37,-1.34,0.21,
1.022,-3.47,0.70,2.85,1.38,-1.36,0.25,
1.024,-3.47,0.70,2.85,1.39,-1.38,0.28,
1.026,-3.26,0.01,2.12,1.39,-1.38,0.28,
1.026,-3.26,0.01,2.12,1.39,-1.39,0.32,
1.028,-3.26,0.01,2.12,1.39,-1.40,0.36,
1.03,-3.26,0.01,2.12,1.39,-1.40,0.40,
1.032,-3.26,0.01,2.12,1.39,-1.40,0.43,
1.034,-3.26,0.01,2.12,1.39,-1.40,0.46,
1.037,-3.00,-0.03,1.21,1.39,-1.40,0.46,
1.038,-3.00,-0.03,1.21,1.38,-1.40,0.49,
1.038,-3.00,-0.03,1.21,1.37,-1.41,0.52,
1.04,-3.00,-0.03,1.21,1.36,-1.41,0.55,
1.042,-3.00,-0.03,1.21,1.35,-1.42,0.58,
1.044,-3.00,-0.03,1.21,1.34,-1.43,0.60,
1.049,-2.65,-0.34,0.58,1.34,-1.43,0.60,
1.05,-2.65,-0.34,0.58,1.33,-1.43,0.62,
1.05,-2.65,-0.34,0.58,1.32,-1.44,0.65,
1.05,-2.65,-0.34,0.58,1.31,-1.43,0.66,
1.052,-2.65,-0.34,0.58,1.30,-1.42,0.68,
1.055,-2.65,-0.34,0.58,1.29,-1.41,0.69,
1.057,-2.59,-0.65,0.17,1.29,-1.41,0.69,
1.057,-2.59,-0.65,0.17,1.28,-1.40,0.70,
1.058,-2.59,-0.65,0.17,1.27,-1.37,0.71,
1.061,-2.59,-0.65,0.17,1.27,-1.34,0.71,
1.062,-2.59,-0.65,0.17,1.27,-1.30,0.71,
1.064,-2.59,-0.65,0.17,1.27,-1.26,0.70,
1.067,-2.42,-0.71,-0.01,1.27,-1.26,0.70,
1.067,-2.42,-0.71,-0.01,1.27,-1.22,0.69,
1.068,-2.42,-0.71,-0.01,1.27,-1.18,0.68,
1.078,-2.42,-0.71,-0.01,1.27,-1.14,0.67,
1.079,-2.42,-0.71,-0.01,1.27,-1.09,0.65,
1.079,-2.42,-0.71,-0.01,1.26,-1.05,0.63,
1.079,-2.33,-0.84,-0.42,1.26,-1.05,0.63,
1.079,-2.33,-0.84,-0.42,1.26,-1.01,0.61,
1.08,-2.33,-0.84,-0.42,1.27,-0.97,0.58,
1.081,-2.33,-0.84,-0.42,1.27,-0.94,0.55,
1.105,-2.33,-0.84,-0.42,1.28,-0.93,0.51,
1.106,-2.33,-0.84,-0.42,1.29,-0.92,0.48,
1.106,-1.90,-0.98,-0.12,1.29,-0.92,0.48,
1.107,-1.90,-0.98,-0.12,1.30,-0.91,0.44,
1.107,-1.90,-0.98,-0.12,1.31,-0.90,0.40,
1.107,-1.90,-0.98,-0.12,1.32,-0.88,0.35,
1.108,-1.90,-0.98,-0.12,1.33,-0.87,0.31,
1.108,-1.90,-0.98,-0.12,1.34,-0.84,0.28,
1.108,-1.50,-1.11,0.10,1.34,-0.84,0.28,
1.109,-1.50,-1.11,0.10,1.35,-0.81,0.24,
1.109,-1.50,-1.11,0.10,1.36,-0.78,0.21,
1.109,-1.50,-1.11,0.10,1.37,-0.76,0.17,
1.109,-1.50,-1.11,0.10,1.38,-0.72,0.14,
1.13,-1.50,-1.11,0.10,1.39,-0.69,0.12,
1.13,-1.26,-1.42,-0.26,1.39,-0.69,0.12,
1.13,-1.26,-1.42,-0.26,1.40,-0.66,0.09,
1.131,-1.26,-1.42,-0.26,1.40,-0.63,0.07,
1.131,-1.26,-1.42,-0.26,1.41,-0.60,0.05,
1.131,-1.26,-1.42,-0.26,1.42,-0.58,0.02,
1.131,-1.26,-1.42,-0.26,1.43,-0.57,0.00,
1.131,-1.02,-1.62,-0.25,1.43,-0.57,0.00,
1.132,-1.02,-1.62,-0.25,1.43,-0.56,-0.02,
1.132,-1.02,-1.62,-0.25,1.43,-0.55,-0.05,
1.132,-1.02,-1.62,-0.25,1.43,-0.55,-0.07,
1.132,-1.02,-1.62,-0.25,1.43,-0.55,-0.10,
1.132,-1.02,-1.62,-0.25,1.42,-0.57,-0.13,
1.133,-0.44,-1.91,-0.59,1.42,-0.57,-0.13,
1.133,-0.44,-1.91,-0.59,1.40,-0.59,-0.16,
1.133,-0.44,-1.91,-0.59,1.37,-0.61,-0.19,
1.133,-0.44,-1.91,-0.59,1.34,-0.62,-0.20,
1.133,-0.44,-1.91,-0.59,1.30,-0.64,-0.21,
1.138,-0.44,-1.91,-0.59,1.26,-0.64,-0.21,
1.138,-0.58,-2.03,-1.25,1.26,-0.64,-0.21,
1.138,-0.58,-2.03,-1.25,1.23,-0.64,-0.21,
1.139,-0.58,-2.03,-1.25,1.20,-0.63,-0.20,
1.14,-0.58,-2.03,-1.25,1.18,-0.62,-0.19,
1.142,-0.58,-2.03,-1.25,1.16,-0.60,-0.17,
1.144,-0.58,-2.03,-1.25,1.14,-0.58,-0.15,
1.146,-1.04,-2.20,-0.89,1.14,-0.58,-0.15,
1.146,-1.04,-2.20,-0.89,1.13,-0.57,-0.12,
1.148,-1.04,-2.20,-0.89,1.13,-0.57,-0.09,
1.15,-1.04,-2.20,-0.89,1.12,-0.57,-0.06,
1.153,-1.04,-2.20,-0.89,1.13,-0.57,-0.03,
1.154,-1.04,-2.20,-0.89,1.13,-0.59,0.01,
1.156,-0.99,-1.81,-0.15,1.13,-0.59,0.01,
1.156,-0.99,-1.81,-0.15,1.13,-0.62,0.04,
1.158,-0.99,-1.81,-0.15,1.15,-0.65,0.08,
1.16,-0.99,-1.81,-0.15,1.16,-0.69,0.12,
1.162,-0.99,-1.81,-0.15,1.17,-0.74,0.15,
1.164,-0.99,-1.81,-0.15,1.18,-0.78,0.19,
1.166,-0.61,-1.17,0.44,1.18,-0.78,0.19,
1.166,-0.61,-1.17,0.44,1.20,-0.83,0.23,
1.168,-0.61,-1.17,0.44,1.21,-0.87,0.27,
1.171,-0.61,-1.17,0.44,1.24,-0.91,0.32,
1.172,-0.61,-1.17,0.44,1.26,-0.95,0.37,
1.174,-0.61,-1.17,0.44,1.28,-1.00,0.42,
1.176,-0.78,-0.51,1.10,1.28,-1.00,0.42,
1.176,-0.78,-0.51,1.10,1.31,-1.04,0.48,
1.178,-0.78,-0.51,1.10,1.34,-1.08,0.53,
1.18,-0.78,-0.51,1.10,1.37,-1.12,0.59,
1.182,-0.78,-0.51,1.10,1.40,-1.16,0.64,
1.184,-0.78,-0.51,1.10,1.43,-1.20,0.69,
1.188,-1.20,0.02,1.71,1.43,-1.20,0.69,
1.188,-1.20,0.02,1.71,1.47,-1.24,0.75,
1.188,-1.20,0.02,1.71,1.51,-1.29,0.81,
1.192,-1.20,0.02,1.71,1.54,-1.34,0.86,
1.193,-1.20,0.02,1.71,1.58,-1.38,0.92,
1.195,-1.20,0.02,1.71,1.61,-1.43,0.98,
1.196,-1.90,0.60,1.93,1.61,-1.43,0.98,
1.197,-1.90,0.60,1.93,1.65,-1.49,1.05,
1.198,-1.90,0.60,1.93,1.69,-1.54,1.12,
1.2,-1.90,0.60,1.93,1.72,-1.60,1.19,
1.209,-1.90,0.60,1.93,1.75,-1.65,1.27,
1.21,-1.90,0.60,1.93,1.78,-1.68,1.35,
1.21,-2.96,1.41,1.80,1.78,-1.68,1.35,
1.21,-2.96,1.41,1.80,1.80,-1.71,1.43,
1.216,-2.96,1.41,1.80,1.82,-1.73,1.52,
1.216,-2.96,1.41,1.80,1.84,-1.74,1.61,
1.218,-2.96,1.41,1.80,1.86,-1.74,1.70,
1.234,-2.96,1.41,1.80,1.88,-1.74,1.78,
1.235,-3.59,2.14,0.93,1.88,-1.74,1.78,
1.235,-3.59,2.14,0.93,1.89,-1.73,1.86,
1.235,-3.59,2.14,0.93,1.91,-1.71,1.93,
1.235,-3.59,2.14,0.93,1.91,-1.65,1.98,
1.236,-3.59,2.14,0.93,1.90,-1.59,2.02,
1.236,-3.59,2.14,0.93,1.90,-1.53,2.05,
1.236,-2.69,1.86,-0.29,1.90,-1.53,2.05,
1.236,-2.69,1.86,-0.29,1.89,-1.48,2.07,
1.236,-2.69,1.86,-0.29,1.89,-1.44,2.08,
1.237,-2.69,1.86,-0.29,1.90,-1.39,2.08,
1.237,-2.69,1.86,-0.29,1.90,-1.35,2.07,
1.237,-2.69,1.86,-0.29,1.91,-1.29,2.06,
1.237,-1.90,0.74,-0.12,1.91,-1.29,2.06,
1.238,-1.90,0.74,-0.12,1.94,-1.24,2.05,
1.239,-1.90,0.74,-0.12,1.98,-1.20,2.03,
1.24,-1.90,0.74,-0.12,2.02,-1.16,2.00,
1.242,-1.90,0.74,-0.12,2.07,-1.11,1.96,
1.244,-1.90,0.74,-0.12,2.11,-1.06,1.92,
1.246,-1.47,-0.64,0.76,2.11,-1.06,1.92,
1.247,-1.47,-0.64,0.76,2.14,-1.00,1.87,
1.248,-1.47,-0.64,0.76,2.18,-0.93,1.80,
1.25,-1.47,-0.64,0.76,2.19,-0.85,1.72,
1.253,-1.47,-0.64,0.76,2.20,-0.75,1.63,
1.259,-1.47,-0.64,0.76,2.19,-0.65,1.53,
1.259,0.39,-1.91,-0.82,2.19,-0.65,1.53,
1.26,0.39,-1.91,-0.82,2.17,-0.54,1.42,
1.26,0.39,-1.91,-0.82,2.15,-0.43,1.30,
1.261,0.39,-1.91,-0.82,2.11,-0.30,1.18,
1.263,0.39,-1.91,-0.82,2.07,-0.17,1.05,
1.265,0.39,-1.91,-0.82,2.02,-0.02,0.93,
1.267,1.63,-3.08,-2.66,2.02,-0.02,0.93,
1.267,1.63,-3.08,-2.66,1.97,0.12,0.81,
1.268,1.63,-3.08,-2.66,1.90,0.26,0.69,
1.287,1.63,-3.08,-2.66,1.83,0.39,0.58,
1.288,1.63,-3.08,-2.66,1.75,0.52,0.47,
1.288,1.63,-3.08,-2.66,1.66,0.65,0.36,
1.288,1.59,-3.86,-3.89,1.66,0.65,0.36,
1.289,1.59,-3.86,-3.89,1.56,0.77,0.26,
1.289,1.59,-3.86,-3.89,1.46,0.90,0.16,
1.289,1.59,-3.86,-3.89,1.36,1.01,0.06,
1.289,1.59,-3.86,-3.89,1.25,1.12,-0.02,
1.29,1.59,-3.86,-3.89,1.14,1.22,-0.11,
1.29,1.01,-3.88,-4.73,1.14,1.22,-0.11,
1.29,1.01,-3.88,-4.73,1.03,1.31,-0.19,
1.291,1.01,-3.88,-4.73,0.92,1.40,-0.26,
1.295,1.01,-3.88,-4.73,0.81,1.49,-0.33,
1.296,1.01,-3.88,-4.73,0.71,1.58,-0.39,
1.296,1.01,-3.88,-4.73,0.52,1.75,-0.49,
1.297,1.01,-3.88,-4.73,0.52,1.75,-0.49,
1.298,0.16,-2.66,-4.64,0.52,1.75,-0.49,
1.299,0.16,-2.66,-4.64,0.43,1.84,-0.52,
1.3,0.16,-2.66,-4.64,0.35,1.92,-0.55,
1.302,0.16,-2.66,-4.64,0.28,2.01,-0.57,
1.304,0.16,-2.66,-4.64,0.22,2.09,-0.58,
1.307,-0.33,-1.45,-3.74,0.22,2.09,-0.58,
1.307,-0.33,-1.45,-3.74,0.17,2.16,-0.59,
1.308,-0.33,-1.45,-3.74,0.13,2.22,-0.60,
1.309,-0.33,-1.45,-3.74,0.09,2.27,-0.60,
1.311,-0.33,-1.45,-3.74,0.07,2.31,-0.59,
1.313,-0.33,-1.45,-3.74,0.05,2.34,-0.59,
1.316,-0.46,0.14,-2.07,0.05,2.34,-0.59,
1.316,-0.46,0.14,-2.07,0.04,2.36,-0.57,
1.319,-0.46,0.14,-2.07,0.05,2.37,-0.56,
1.32,-0.46,0.14,-2.07,0.06,2.37,-0.53,
1.323,-0.46,0.14,-2.07,0.08,2.36,-0.50,
1.325,-0.46,0.14,-2.07,0.11,2.35,-0.47,
1.326,-0.61,1.66,-0.14,0.11,2.35,-0.47,
1.326,-0.61,1.66,-0.14,0.15,2.32,-0.43,
1.327,-0.61,1.66,-0.14,0.20,2.28,-0.38,
1.329,-0.61,1.66,-0.14,0.25,2.24,-0.33,
1.331,-0.61,1.66,-0.14,0.32,2.18,-0.28,
1.333,-0.61,1.66,-0.14,0.39,2.11,-0.21,
1.337,-0.46,2.83,1.92,0.39,2.11,-0.21,
1.337,-0.46,2.83,1.92,0.47,2.01,-0.15,
1.338,-0.46,2.83,1.92,0.56,1.90,-0.08,
1.34,-0.46,2.83,1.92,0.66,1.76,-0.01,
1.342,-0.46,2.83,1.92,0.76,1.61,0.06,
1.344,-0.46,2.83,1.92,0.86,1.44,0.13,
1.347,0.08,2.95,4.49,0.86,1.44,0.13,
1.347,0.08,2.95,4.49,0.97,1.26,0.20,
1.348,0.08,2.95,4.49,1.07,1.06,0.27,
1.35,0.08,2.95,4.49,1.16,0.85,0.34,
1.362,0.08,2.95,4.49,1.25,0.65,0.41,
1.362,0.08,2.95,4.49,1.32,0.46,0.48,
1.363,1.49,1.71,5.17,1.32,0.46,0.48,
1.363,1.49,1.71,5.17,1.38,0.27,0.55,
1.363,1.49,1.71,5.17,1.42,0.08,0.62,
1.363,1.49,1.71,5.17,1.45,-0.11,0.69,
1.363,1.49,1.71,5.17,1.47,-0.30,0.77,
1.364,1.49,1.71,5.17,1.49,-0.48,0.85,
1.367,2.41,0.55,3.03,1.49,-0.48,0.85,
1.367,2.41,0.55,3.03,1.49,-0.66,0.94,
1.396,2.41,0.55,3.03,1.49,-0.83,1.02,
1.397,2.41,0.55,3.03,1.48,-1.00,1.09,
1.397,2.41,0.55,3.03,1.47,-1.16,1.16,
1.397,2.41,0.55,3.03,1.46,-1.32,1.23,
1.397,2.75,0.02,1.33,1.46,-1.32,1.23,
1.397,2.75,0.02,1.33,1.45,-1.47,1.29,
1.398,2.75,0.02,1.33,1.44,-1.61,1.34,
1.398,2.75,0.02,1.33,1.43,-1.74,1.39,
1.398,2.75,0.02,1.33,1.42,-1.87,1.44,
1.398,2.75,0.02,1.33,1.42,-2.00,1.48,
1.398,2.73,-0.34,0.79,1.42,-2.00,1.48,
1.398,2.73,-0.34,0.79,1.41,-2.12,1.52,
1.399,2.73,-0.34,0.79,1.41,-2.24,1.56,
1.399,2.73,-0.34,0.79,1.40,-2.35,1.59,
1.399,2.73,-0.34,0.79,1.40,-2.46,1.62,
1.399,2.73,-0.34,0.79,1.40,-2.56,1.65,
1.399,2.19,-0.65,0.72,1.40,-2.56,1.65,
1.399,2.19,-0.65,0.72,1.39,-2.65,1.67,
1.399,2.19,-0.65,0.72,1.39,-2.73,1.70,
1.4,2.19,-0.65,0.72,1.38,-2.81,1.72,
1.404,2.19,-0.65,0.72,1.37,-2.88,1.75,
1.404,2.19,-0.65,0.72,1.36,-2.95,1.78,
1.407,1.03,-0.78,0.54,1.36,-2.95,1.78,
1.407,1.03,-0.78,0.54,1.35,-3.01,1.81,
1.408,1.03,-0.78,0.54,1.34,-3.07,1.84,
1.41,1.03,-0.78,0.54,1.32,-3.11,1.87,
1.412,1.03,-0.78,0.54,1.31,-3.15,1.90,
1.413,1.03,-0.78,0.54,1.29,-3.17,1.94,
1.416,-0.43,-0.99,0.25,1.29,-3.17,1.94,
1.416,-0.43,-0.99,0.25,1.28,-3.18,1.98,
1.418,-0.43,-0.99,0.25,1.26,-3.16,2.01,
1.421,-0.43,-0.99,0.25,1.25,-3.13,2.04,
1.422,-0.43,-0.99,0.25,1.23,-3.09,2.07,
1.424,-0.43,-0.99,0.25,1.21,-3.03,2.10,
1.426,-1.89,-1.49,-0.46,1.21,-3.03,2.10,
1.426,-1.89,-1.49,-0.46,1.20,-2.95,2.13,
1.428,-1.89,-1.49,-0.46,1.18,-2.86,2.15,
1.429,-1.89,-1.49,-0.46,1.17,-2.75,2.18,
1.432,-1.89,-1.49,-0.46,1.15,-2.63,2.19,
1.434,-1.89,-1.49,-0.46,1.13,-2.50,2.21,
1.436,-2.71,-1.51,-1.08,1.13,-2.50,2.21,
1.447,-2.71,-1.51,-1.08,1.12,-2.36,2.21,
1.448,-2.71,-1.51,-1.08,1.11,-2.22,2.22,
1.448,-2.71,-1.51,-1.08,1.09,-2.08,2.21,
1.448,-2.71,-1.51,-1.08,1.08,-1.93,2.20,
1.448,-2.71,-1.51,-1.08,1.06,-1.77,2.19,
1.448,-2.99,-1.43,-1.45,1.06,-1.77,2.19,
1.448,-2.99,-1.43,-1.45,1.05,-1.63,2.18,
1.448,-2.99,-1.43,-1.45,1.03,-1.48,2.16,
1.45,-2.99,-1.43,-1.45,1.01,-1.34,2.14,
1.451,-2.99,-1.43,-1.45,0.99,-1.21,2.11,
1.454,-2.99,-1.43,-1.45,0.97,-1.07,2.08,
1.456,-2.85,-1.13,-1.39,0.97,-1.07,2.08,
1.456,-2.85,-1.13,-1.39,0.95,-0.94,2.05,
1.457,-2.85,-1.13,-1.39,0.93,-0.83,2.02,
1.459,-2.85,-1.13,-1.39,0.92,-0.72,1.98,
1.461,-2.85,-1.13,-1.39,0.90,-0.63,1.95,
1.463,-2.85,-1.13,-1.39,0.89,-0.55,1.92,
1.466,-2.90,-1.06,-0.14,0.89,-0.55,1.92,
1.466,-2.90,-1.06,-0.14,0.87,-0.48,1.89,
1.471,-2.90,-1.06,-0.14,0.85,-0.43,1.87,
1.471,-2.90,-1.06,-0.14,0.82,-0.39,1.86,
1.472,-2.90,-1.06,-0.14,0.78,-0.37,1.85,
1.473,-2.90,-1.06,-0.14,0.74,-0.37,1.86,
1.476,-3.56,-1.00,0.19,0.74,-0.37,1.86,
1.476,-3.56,-1.00,0.19,0.70,-0.35,1.87,
1.477,-3.56,-1.00,0.19,0.67,-0.35,1.89,
1.48,-3.56,-1.00,0.19,0.63,-0.36,1.93,
1.482,-3.56,-1.00,0.19,0.59,-0.36,1.98,
1.485,-3.56,-1.00,0.19,0.55,-0.37,2.04,
1.486,-4.40,-0.27,0.10,0.55,-0.37,2.04,
1.486,-4.40,-0.27,0.10,0.52,-0.36,2.11,
1.487,-4.40,-0.27,0.10,0.48,-0.35,2.19,
1.489,-4.40,-0.27,0.10,0.44,-0.32,2.28,
1.491,-4.40,-0.27,0.10,0.41,-0.28,2.39,
1.493,-4.40,-0.27,0.10,0.38,-0.25,2.51,
1.496,-4.90,1.54,-0.64,0.38,-0.25,2.51,
1.496,-4.90,1.54,-0.64,0.35,-0.21,2.64,
1.497,-4.90,1.54,-0.64,0.32,-0.17,2.77,
1.499,-4.90,1.54,-0.64,0.30,-0.13,2.90,
1.502,-4.90,1.54,-0.64,0.29,-0.09,3.05,
1.503,-4.90,1.54,-0.64,0.26,-0.06,3.19,
1.506,-4.53,2.74,-0.74,0.26,-0.06,3.19,
1.506,-4.53,2.74,-0.74,0.23,-0.06,3.33,
1.508,-4.53,2.74,-0.74,0.20,-0.09,3.48,
1.509,-4.53,2.74,-0.74,0.17,-0.16,3.61,
1.512,-4.53,2.74,-0.74,0.14,-0.27,3.74,
1.514,-4.53,2.74,-0.74,0.11,-0.39,3.85,
1.516,-3.10,2.33,-0.31,0.11,-0.39,3.85,
1.516,-3.10,2.33,-0.31,0.08,-0.50,3.94,
1.518,-3.10,2.33,-0.31,0.05,-0.60,4.02,
1.519,-3.10,2.33,-0.31,0.02,-0.70,4.10,
1.525,-3.10,2.33,-0.31,-0.03,-0.79,4.16,
1.525,-3.10,2.33,-0.31,-0.07,-0.87,4.21,
1.526,-1.20,0.87,-0.96,-0.07,-0.87,4.21,
1.527,-1.20,0.87,-0.96,-0.12,-0.91,4.24,
1.528,-1.20,0.87,-0.96,-0.17,-0.93,4.28,
1.53,-1.20,0.87,-0.96,-0.22,-0.94,4.30,
1.532,-1.20,0.87,-0.96,-0.28,-0.94,4.31,
1.535,-1.20,0.87,-0.96,-0.35,-0.94,4.32,
1.536,0.09,0.24,-3.14,-0.35,-0.94,4.32,
1.537,0.09,0.24,-3.14,-0.41,-0.95,4.32,
1.538,0.09,0.24,-3.14,-0.48,-0.96,4.31,
1.54,0.09,0.24,-3.14,-0.54,-0.97,4.30,
1.542,0.09,0.24,-3.14,-0.60,-0.99,4.29,
1.544,0.09,0.24,-3.14,-0.66,-1.01,4.27,
1.546,0.05,0.69,-3.94,-0.66,-1.01,4.27,
1.546,0.05,0.69,-3.94,-0.70,-1.05,4.25,
1.548,0.05,0.69,-3.94,-0.73,-1.09,4.22,
1.551,0.05,0.69,-3.94,-0.74,-1.14,4.19,
1.552,0.05,0.69,-3.94,-0.73,-1.20,4.16,
1.554,0.05,0.69,-3.94,-0.70,-1.26,4.12,
1.556,-0.22,1.35,-1.59,-0.70,-1.26,4.12,
1.557,-0.22,1.35,-1.59,-0.65,-1.34,4.08,
1.558,-0.22,1.35,-1.59,-0.59,-1.41,4.03,
1.56,-0.22,1.35,-1.59,-0.50,-1.49,3.98,
1.562,-0.22,1.35,-1.59,-0.41,-1.58,3.92,
1.564,-0.22,1.35,-1.59,-0.31,-1.66,3.87,
1.567,-0.30,1.86,1.50,-0.31,-1.66,3.87,
1.568,-0.30,1.86,1.50,-0.21,-1.74,3.81,
1.568,-0.30,1.86,1.50,-0.09,-1.81,3.76,
1.57,-0.30,1.86,1.50,0.01,-1.86,3.71,
1.572,-0.30,1.86,1.50,0.11,-1.91,3.66,
1.574,-0.30,1.86,1.50,0.22,-1.95,3.61,
1.576,-0.78,2.33,2.14,0.22,-1.95,3.61,
1.576,-0.78,2.33,2.14,0.30,-1.98,3.56,
1.578,-0.78,2.33,2.14,0.39,-1.99,3.52,
1.58,-0.78,2.33,2.14,0.46,-1.99,3.48,
1.582,-0.78,2.33,2.14,0.52,-1.98,3.44,
1.584,-0.78,2.33,2.14,0.58,-1.94,3.40,
1.587,-1.53,2.94,0.91,0.58,-1.94,3.40,
1.587,-1.53,2.94,0.91,0.63,-1.88,3.36,
1.588,-1.53,2.94,0.91,0.68,-1.80,3.32,
1.59,-1.53,2.94,0.91,0.71,-1.70,3.28,
1.592,-1.53,2.94,0.91,0.74,-1.58,3.24,
1.594,-1.53,2.94,0.91,0.76,-1.45,3.20,
1.596,-1.85,3.35,-0.51,0.76,-1.45,3.20,
1.597,-1.85,3.35,-0.51,0.78,-1.30,3.16,
1.598,-1.85,3.35,-0.51,0.79,-1.15,3.12,
1.615,-1.85,3.35,-0.51,0.80,-0.99,3.08,
1.617,-1.85,3.35,-0.51,0.80,-0.84,3.05,
1.651,-1.85,3.35,-0.51,0.79,-0.70,3.00,
1.651,-1.70,3.39,-1.34,0.79,-0.70,3.00,
1.652,-1.70,3.39,-1.34,0.78,-0.57,2.96,
1.652,-1.70,3.39,-1.34,0.77,-0.46,2.91,
1.652,-1.70,3.39,-1.34,0.76,-0.36,2.87,
1.653,-1.70,3.39,-1.34,0.75,-0.28,2.82,
1.653,-1.70,3.39,-1.34,0.73,-0.22,2.77,
1.654,-1.45,3.26,-1.57,0.73,-0.22,2.77,
1.654,-1.45,3.26,-1.57,0.71,-0.17,2.72,
1.654,-1.45,3.26,-1.57,0.70,-0.13,2.67,
1.655,-1.45,3.26,-1.57,0.68,-0.11,2.61,
1.655,-1.45,3.26,-1.57,0.67,-0.12,2.55,
1.655,-1.45,3.26,-1.57,0.66,-0.14,2.49,
1.655,-1.44,3.05,-1.01,0.66,-0.14,2.49,
1.656,-1.44,3.05,-1.01,0.64,-0.18,2.43,
1.656,-1.44,3.05,-1.01,0.62,-0.24,2.37,
1.656,-1.44,3.05,-1.01,0.61,-0.30,2.31,
1.656,-1.44,3.05,-1.01,0.59,-0.38,2.25,
1.657,-1.44,3.05,-1.01,0.56,-0.46,2.19,
1.657,-1.41,2.90,-0.20,0.56,-0.46,2.19,
1.657,-1.41,2.90,-0.20,0.53,-0.54,2.13,
1.657,-1.41,2.90,-0.20,0.51,-0.62,2.07,
1.658,-1.41,2.90,-0.20,0.47,-0.69,2.01,
1.658,-1.41,2.90,-0.20,0.43,-0.75,1.96,
1.658,-1.41,2.90,-0.20,0.39,-0.79,1.91,
1.659,-1.52,2.97,0.04,0.39,-0.79,1.91,
1.659,-1.52,2.97,0.04,0.34,-0.82,1.86,
1.659,-1.52,2.97,0.04,0.28,-0.83,1.83,
1.659,-1.52,2.97,0.04,0.24,-0.79,1.80,
1.66,-1.52,2.97,0.04,0.20,-0.73,1.78,
1.66,-1.52,2.97,0.04,0.19,-0.64,1.76,
1.66,-2.05,3.14,-0.39,0.19,-0.64,1.76,
1.66,-2.05,3.14,-0.39,0.16,-0.54,1.74,
1.661,-2.05,3.14,-0.39,0.13,-0.45,1.72,
1.661,-2.05,3.14,-0.39,0.09,-0.37,1.71,
1.669,-2.05,3.14,-0.39,0.04,-0.31,1.70,
1.669,-2.05,3.14,-0.39,-0.02,-0.27,1.69,
1.669,-1.96,2.62,-1.75,-0.02,-0.27,1.69,
1.67,-1.96,2.62,-1.75,-0.11,-0.26,1.69,
1.67,-1.96,2.62,-1.75,-0.21,-0.28,1.70,
1.67,-1.96,2.62,-1.75,-0.33,-0.32,1.71,
1.674,-1.96,2.62,-1.75,-0.47,-0.38,1.74,
1.674,-1.96,2.62,-1.75,-0.61,-0.46,1.77,
1.677,-2.12,2.48,-3.67,-0.61,-0.46,1.77,
1.677,-2.12,2.48,-3.67,-0.77,-0.56,1.81,
1.679,-2.12,2.48,-3.67,-0.94,-0.67,1.85,
1.68,-2.12,2.48,-3.67,-1.11,-0.79,1.90,
1.682,-2.12,2.48,-3.67,-1.28,-0.92,1.96,
1.684,-2.12,2.48,-3.67,-1.45,-1.04,2.02,
1.686,-2.82,2.90,-5.22,-1.45,-1.04,2.02,
1.687,-2.82,2.90,-5.22,-1.62,-1.16,2.08,
1.687,-2.82,2.90,-5.22,-1.77,-1.27,2.13,
1.692,-2.82,2.90,-5.22,-1.92,-1.38,2.19,
1.692,-2.82,2.90,-5.22,-2.05,-1.48,2.24,
1.694,-2.82,2.90,-5.22,-2.17,-1.58,2.30,
1.697,-3.33,3.73,-5.26,-2.17,-1.58,2.30,
1.697,-3.33,3.73,-5.26,-2.28,-1.67,2.35,
1.7,-3.33,3.73,-5.26,-2.36,-1.74,2.40,
1.701,-3.33,3.73,-5.26,-2.43,-1.80,2.45,
1.703,-3.33,3.73,-5.26,-2.48,-1.87,2.50,
1.705,-3.33,3.73,-5.26,-2.51,-1.94,2.55,
1.712,-3.64,4.34,-4.19,-2.51,-1.94,2.55,
1.712,-3.64,4.34,-4.19,-2.53,-2.01,2.60,
1.712,-3.64,4.34,-4.19,-2.54,-2.08,2.64,
1.712,-3.64,4.34,-4.19,-2.53,-2.13,2.69,
1.712,-3.64,4.34,-4.19,-2.50,-2.19,2.73,
1.715,-3.64,4.34,-4.19,-2.45,-2.23,2.76,
1.717,-3.56,4.85,-1.94,-2.45,-2.23,2.76,
1.718,-3.56,4.85,-1.94,-2.40,-2.25,2.80,
1.722,-3.56,4.85,-1.94,-2.33,-2.25,2.83,
1.722,-3.56,4.85,-1.94,-2.25,-2.25,2.87,
1.722,-3.56,4.85,-1.94,-2.16,-2.22,2.90,
1.724,-3.56,4.85,-1.94,-2.07,-2.18,2.92,
1.726,-3.42,4.82,0.24,-2.07,-2.18,2.92,
1.726,-3.42,4.82,0.24,-1.97,-2.11,2.95,
1.727,-3.42,4.82,0.24,-1.88,-2.03,2.98,
1.729,-3.42,4.82,0.24,-1.77,-1.91,3.01,
1.732,-3.42,4.82,0.24,-1.66,-1.78,3.04,
1.734,-3.42,4.82,0.24,-1.56,-1.63,3.07,
1.737,-3.31,4.65,1.37,-1.56,-1.63,3.07,
1.738,-3.31,4.65,1.37,-1.46,-1.47,3.10,
1.738,-3.31,4.65,1.37,-1.37,-1.32,3.12,
1.74,-3.31,4.65,1.37,-1.29,-1.19,3.14,
1.742,-3.31,4.65,1.37,-1.22,-1.05,3.16,
1.743,-3.31,4.65,1.37,-1.17,-0.92,3.18,
1.746,-2.77,4.79,0.78,-1.17,-0.92,3.18,
1.746,-2.77,4.79,0.78,-1.13,-0.79,3.19,
1.747,-2.77,4.79,0.78,-1.10,-0.65,3.19,
1.75,-2.77,4.79,0.78,-1.07,-0.51,3.20,
1.752,-2.77,4.79,0.78,-1.06,-0.37,3.21,
1.754,-2.77,4.79,0.78,-1.08,-0.25,3.21,
1.756,-2.17,4.87,-0.95,-1.08,-0.25,3.21,
1.757,-2.17,4.87,-0.95,-1.08,-0.14,3.21,
1.758,-2.17,4.87,-0.95,-1.06,0.08,3.17,
1.76,-2.17,4.87,-0.95,-1.08,0.25,3.15,
1.762,-2.17,4.87,-0.95,-1.09,0.35,3.14,
1.764,-2.17,4.87,-0.95,-1.13,0.55,3.15,
1.776,0.27,0.12,-2.55,-1.13,0.55,3.15,
1.777,0.27,0.12,-2.55,-1.17,0.77,3.17,
1.777,0.27,0.12,-2.55,-1.21,0.98,3.22,
1.795,0.27,0.12,-2.55,-1.26,1.21,3.29,
1.796,0.27,0.12,-2.55,-1.30,1.45,3.40,
1.796,0.27,0.12,-2.55,-1.34,1.69,3.53,
1.796,-0.73,-9.73,-4.60,-1.34,1.69,3.53,
1.796,-0.73,-9.73,-4.60,-1.37,1.91,3.70,
1.797,-0.73,-9.73,-4.60,-1.38,2.10,3.89,
1.797,-0.73,-9.73,-4.60,-1.37,2.26,4.13,
1.797,-0.73,-9.73,-4.60,-1.35,2.38,4.40,
1.797,-0.73,-9.73,-4.60,-1.34,2.48,4.71,
1.797,-4.97,-20.83,-3.77,-1.34,2.48,4.71,
1.798,-4.97,-20.83,-3.77,-1.34,2.58,5.04,
1.798,-4.97,-20.83,-3.77,-1.31,2.66,5.39,
1.798,-4.97,-20.83,-3.77,-1.27,2.72,5.73,
1.798,-4.97,-20.83,-3.77,-1.20,2.80,6.43,
1.798,-4.97,-20.83,-3.77,-1.20,2.80,6.43,
1.799,-4.97,-20.83,-3.77,-1.16,2.83,6.77,
1.799,-8.54,-31.53,-3.20,-1.16,2.83,6.77,
1.799,-8.54,-31.53,-3.20,-1.11,2.87,7.10,
1.809,-8.54,-31.53,-3.20,-1.07,2.91,7.38,
1.81,-8.54,-31.53,-3.20,-1.02,2.95,7.61,
1.81,-8.54,-31.53,-3.20,-0.96,2.97,7.78,
1.81,-6.99,-35.29,-2.56,-0.96,2.97,7.78,
1.811,-6.99,-35.29,-2.56,-0.90,2.98,7.88,
1.811,-6.99,-35.29,-2.56,-0.84,2.97,7.92,
1.811,-6.99,-35.29,-2.56,-0.77,2.96,7.91,
1.812,-6.99,-35.29,-2.56,-0.70,2.94,7.85,
1.814,-6.99,-35.29,-2.56,-0.63,2.93,7.75,
1.817,-1.00,-29.00,-1.58,-0.63,2.93,7.75,
1.817,-1.00,-29.00,-1.58,-0.55,2.91,7.61,
1.818,-1.00,-29.00,-1.58,-0.47,2.89,7.45,
1.82,-1.00,-29.00,-1.58,-0.38,2.88,7.27,
1.821,-1.00,-29.00,-1.58,-0.29,2.88,7.07,
1.823,-1.00,-29.00,-1.58,-0.21,2.88,6.85,
1.826,3.38,-18.88,-0.08,-0.21,2.88,6.85,
1.826,3.38,-18.88,-0.08,-0.13,2.89,6.61,
1.828,3.38,-18.88,-0.08,-0.04,2.89,6.36,
1.83,3.38,-18.88,-0.08,0.04,2.88,6.10,
1.832,3.38,-18.88,-0.08,0.12,2.87,5.82,
1.833,3.38,-18.88,-0.08,0.20,2.84,5.54,
1.836,6.71,-9.63,1.11,0.20,2.84,5.54,
1.836,6.71,-9.63,1.11,0.28,2.81,5.26,
1.837,6.71,-9.63,1.11,0.37,2.75,4.97,
1.839,6.71,-9.63,1.11,0.47,2.65,4.69,
1.841,6.71,-9.63,1.11,0.60,2.53,4.41,
1.843,6.71,-9.63,1.11,0.74,2.38,4.12,
1.846,8.94,-2.55,4.30,0.74,2.38,4.12,
1.846,8.94,-2.55,4.30,0.88,2.21,3.84,
1.848,8.94,-2.55,4.30,1.00,2.04,3.56,
1.849,8.94,-2.55,4.30,1.12,1.86,3.30,
1.851,8.94,-2.55,4.30,1.21,1.68,3.04,
1.853,8.94,-2.55,4.30,1.28,1.51,2.79,
1.856,8.86,2.43,4.59,1.28,1.51,2.79,
1.856,8.86,2.43,4.59,1.35,1.35,2.54,
1.857,8.86,2.43,4.59,1.39,1.22,2.30,
1.86,8.86,2.43,4.59,1.42,1.10,2.07,
1.861,8.86,2.43,4.59,1.43,1.02,1.83,
1.866,8.86,2.43,4.59,1.43,0.95,1.61,
1.868,8.18,4.95,2.36,1.43,0.95,1.61,
1.868,8.18,4.95,2.36,1.41,0.90,1.39,
1.868,8.18,4.95,2.36,1.37,0.87,1.17,
1.87,8.18,4.95,2.36,1.30,0.84,0.85,
1.871,8.18,4.95,2.36,1.27,0.83,0.75,
1.874,8.18,4.95,2.36,1.21,0.83,0.55,
1.876,7.10,6.29,0.29,1.21,0.83,0.55,
1.876,7.10,6.29,0.29,1.15,0.82,0.35,
1.877,7.10,6.29,0.29,1.08,0.82,0.17,
1.88,7.10,6.29,0.29,1.01,0.81,-0.02,
1.884,7.10,6.29,0.29,0.93,0.81,-0.19,
1.884,7.10,6.29,0.29,0.85,0.79,-0.36,
1.886,5.94,6.43,-0.79,0.85,0.79,-0.36,
1.886,5.94,6.43,-0.79,0.77,0.77,-0.52,
1.887,5.94,6.43,-0.79,0.68,0.73,-0.66,
1.89,5.94,6.43,-0.79,0.60,0.69,-0.80,
1.891,5.94,6.43,-0.79,0.51,0.64,-0.92,
1.893,5.94,6.43,-0.79,0.42,0.58,-1.03,
1.896,3.73,5.61,-1.30,0.42,0.58,-1.03,
1.896,3.73,5.61,-1.30,0.33,0.51,-1.13,
1.904,3.73,5.61,-1.30,0.24,0.44,-1.21,
1.904,3.73,5.61,-1.30,0.14,0.35,-1.28,
1.905,3.73,5.61,-1.30,0.06,0.27,-1.35,
1.905,3.73,5.61,-1.30,-0.03,0.18,-1.39,
1.914,1.21,4.22,-1.61,-0.03,0.18,-1.39,
1.915,1.21,4.22,-1.61,-0.12,0.09,-1.43,
1.915,1.21,4.22,-1.61,-0.20,-0.01,-1.46,
1.915,1.21,4.22,-1.61,-0.29,-0.11,-1.48,
1.916,1.21,4.22,-1.61,-0.37,-0.21,-1.48,
1.916,1.21,4.22,-1.61,-0.45,-0.32,-1.47,
1.919,-1.18,2.69,-1.53,-0.45,-0.32,-1.47,
1.92,-1.18,2.69,-1.53,-0.53,-0.42,-1.46,
1.921,-1.18,2.69,-1.53,-0.60,-0.54,-1.43,
1.921,-1.18,2.69,-1.53,-0.68,-0.65,-1.40,
1.924,-1.18,2.69,-1.53,-0.75,-0.77,-1.36,
1.924,-1.18,2.69,-1.53,-0.81,-0.89,-1.32,
1.926,-3.19,1.23,-1.32,-0.81,-0.89,-1.32,
1.927,-3.19,1.23,-1.32,-0.88,-1.01,-1.27,
1.928,-3.19,1.23,-1.32,-0.94,-1.14,-1.21,
1.931,-3.19,1.23,-1.32,-0.99,-1.26,-1.15,
1.933,-3.19,1.23,-1.32,-1.04,-1.39,-1.09,
1.94,-3.19,1.23,-1.32,-1.09,-1.51,-1.02,
1.941,-4.53,-0.11,-0.90,-1.09,-1.51,-1.02,
1.965,-4.53,-0.11,-0.90,-1.13,-1.62,-0.94,
1.966,-4.53,-0.11,-0.90,-1.17,-1.74,-0.86,
1.966,-4.53,-0.11,-0.90,-1.20,-1.86,-0.78,
1.967,-4.53,-0.11,-0.90,-1.23,-1.97,-0.70,
1.967,-4.53,-0.11,-0.90,-1.25,-2.07,-0.62,
1.967,-5.57,-1.06,-0.26,-1.25,-2.07,-0.62,
1.967,-5.57,-1.06,-0.26,-1.27,-2.17,-0.53,
1.968,-5.57,-1.06,-0.26,-1.28,-2.27,-0.45,
1.968,-5.57,-1.06,-0.26,-1.29,-2.36,-0.38,
1.968,-5.57,-1.06,-0.26,-1.29,-2.44,-0.31,
1.969,-5.57,-1.06,-0.26,-1.28,-2.51,-0.25,
1.969,-5.27,-1.42,0.43,-1.28,-2.51,-0.25,
1.969,-5.27,-1.42,0.43,-1.27,-2.57,-0.21,
1.97,-5.27,-1.42,0.43,-1.25,-2.63,-0.17,
1.97,-5.27,-1.42,0.43,-1.23,-2.68,-0.15,
1.97,-5.27,-1.42,0.43,-1.21,-2.73,-0.14,
1.97,-5.27,-1.42,0.43,-1.18,-2.77,-0.14,
1.971,-3.34,-0.80,1.12,-1.18,-2.77,-0.14,
1.971,-3.34,-0.80,1.12,-1.16,-2.80,-0.14,
1.971,-3.34,-0.80,1.12,-1.13,-2.82,-0.16,
1.971,-3.34,-0.80,1.12,-1.10,-2.84,-0.17,
1.979,-3.34,-0.80,1.12,-1.07,-2.86,-0.19,
1.98,-3.34,-0.80,1.12,-1.05,-2.87,-0.21,
1.98,-1.50,0.08,1.29,-1.05,-2.87,-0.21,
1.98,-1.50,0.08,1.29,-1.02,-2.87,-0.23,
1.98,-1.50,0.08,1.29,-0.99,-2.86,-0.24,
1.981,-1.50,0.08,1.29,-0.96,-2.86,-0.25,
1.985,-1.50,0.08,1.29,-0.94,-2.84,-0.25,
1.985,-1.50,0.08,1.29,-0.92,-2.83,-0.25,
1.989,-0.97,0.50,1.23,-0.92,-2.83,-0.25,
1.989,-0.97,0.50,1.23,-0.90,-2.81,-0.24,
1.99,-0.97,0.50,1.23,-0.89,-2.79,-0.23,
1.99,-0.97,0.50,1.23,-0.87,-2.77,-0.22,
1.994,-0.97,0.50,1.23,-0.86,-2.75,-0.20,
1.994,-0.97,0.50,1.23,-0.86,-2.73,-0.19,
1.998,-0.83,0.47,0.92,-0.86,-2.73,-0.19,
1.998,-0.83,0.47,0.92,-0.85,-2.70,-0.17,
1.998,-0.83,0.47,0.92,-0.85,-2.68,-0.15,
2.0,-0.83,0.47,0.92,-0.85,-2.65,-0.13,
2.002,-0.83,0.47,0.92,-0.85,-2.63,-0.12,
2.004,-0.83,0.47,0.92,-0.86,-2.60,-0.11,
2.006,-0.58,0.30,0.60,-0.86,-2.60,-0.11,
2.006,-0.58,0.30,0.60,-0.87,-2.58,-0.09,
2.007,-0.58,0.30,0.60,-0.88,-2.56,-0.08,
2.01,-0.58,0.30,0.60,-0.89,-2.54,-0.07,
2.011,-0.58,0.30,0.60,-0.90,-2.51,-0.06,
2.013,-0.58,0.30,0.60,-0.92,-2.49,-0.06,
2.017,-0.11,0.10,0.35,-0.92,-2.49,-0.06,
2.017,-0.11,0.10,0.35,-0.94,-2.46,-0.05,
2.021,-0.11,0.10,0.35,-0.96,-2.44,-0.05,
2.021,-0.11,0.10,0.35,-0.98,-2.41,-0.05,
2.022,-0.11,0.10,0.35,-1.00,-2.39,-0.05,
2.026,-0.11,0.10,0.35,-1.03,-2.36,-0.05,
2.026,0.51,-0.09,0.25,-1.03,-2.36,-0.05,
2.027,0.51,-0.09,0.25,-1.06,-2.34,-0.05,
2.03,0.51,-0.09,0.25,-1.09,-2.31,-0.05,
2.03,0.51,-0.09,0.25,-1.12,-2.28,-0.06,
2.041,0.51,-0.09,0.25,-1.15,-2.26,-0.06,
2.041,0.51,-0.09,0.25,-1.18,-2.24,-0.07,
2.042,1.05,-0.19,0.33,-1.18,-2.24,-0.07,
2.042,1.05,-0.19,0.33,-1.20,-2.22,-0.08,
2.042,1.05,-0.19,0.33,-1.23,-2.20,-0.10,
2.042,1.05,-0.19,0.33,-1.26,-2.19,-0.12,
2.042,1.05,-0.19,0.33,-1.27,-2.17,-0.14,
2.047,1.05,-0.19,0.33,-1.29,-2.16,-0.17,
2.047,1.67,-0.56,0.73,-1.29,-2.16,-0.17,
2.047,1.67,-0.56,0.73,-1.30,-2.15,-0.19,
2.08,1.67,-0.56,0.73,-1.31,-2.14,-0.21,
2.081,1.67,-0.56,0.73,-1.31,-2.14,-0.23,
2.081,1.67,-0.56,0.73,-1.32,-2.13,-0.25,
2.082,1.67,-0.56,0.73,-1.32,-2.14,-0.26,
2.082,1.96,-0.78,1.17,-1.32,-2.14,-0.26,
2.082,1.96,-0.78,1.17,-1.31,-2.14,-0.28,
2.082,1.96,-0.78,1.17,-1.31,-2.15,-0.30,
2.083,1.96,-0.78,1.17,-1.30,-2.16,-0.31,
2.083,1.96,-0.78,1.17,-1.28,-2.18,-0.33,
2.083,1.96,-0.78,1.17,-1.27,-2.19,-0.35,
2.084,2.32,-0.92,1.66,-1.27,-2.19,-0.35,
2.084,2.32,-0.92,1.66,-1.25,-2.21,-0.37,
2.084,2.32,-0.92,1.66,-1.24,-2.23,-0.38,
2.084,2.32,-0.92,1.66,-1.22,-2.25,-0.40,
2.085,2.32,-0.92,1.66,-1.21,-2.26,-0.42,
2.085,2.32,-0.92,1.66,-1.19,-2.29,-0.45,
2.085,2.81,-0.78,2.06,-1.19,-2.29,-0.45,
2.085,2.81,-0.78,2.06,-1.18,-2.31,-0.47,
2.086,2.81,-0.78,2.06,-1.17,-2.34,-0.49,
2.086,2.81,-0.78,2.06,-1.16,-2.36,-0.52,
2.086,2.81,-0.78,2.06,-1.14,-2.39,-0.55,
2.087,2.81,-0.78,2.06,-1.13,-2.42,-0.58,
2.087,3.27,-0.66,2.60,-1.13,-2.42,-0.58,
2.087,3.27,-0.66,2.60,-1.11,-2.44,-0.60,
2.088,3.27,-0.66,2.60,-1.10,-2.46,-0.63,
2.091,3.27,-0.66,2.60,-1.08,-2.49,-0.66,
2.092,3.27,-0.66,2.60,-1.07,-2.51,-0.68,
2.094,3.27,-0.66,2.60,-1.05,-2.52,-0.70,
2.097,3.33,-0.48,3.08,-1.05,-2.52,-0.70,
2.097,3.33,-0.48,3.08,-1.03,-2.54,-0.73,
2.103,3.33,-0.48,3.08,-1.02,-2.55,-0.75,
2.105,3.33,-0.48,3.08,-1.00,-2.56,-0.77,
2.105,3.33,-0.48,3.08,-0.98,-2.56,-0.79,
2.135,3.33,-0.48,3.08,-0.96,-2.56,-0.81,
2.136,3.32,-0.50,3.63,-0.96,-2.56,-0.81,
2.136,3.32,-0.50,3.63,-0.94,-2.55,-0.82,
2.137,3.32,-0.50,3.63,-0.91,-2.53,-0.84,
2.137,3.32,-0.50,3.63,-0.89,-2.52,-0.84,
2.137,3.32,-0.50,3.63,-0.88,-2.51,-0.85,
2.138,3.32,-0.50,3.63,-0.86,-2.49,-0.85,
2.138,2.80,-0.66,3.90,-0.86,-2.49,-0.85,
2.139,2.80,-0.66,3.90,-0.84,-2.47,-0.86,
2.139,2.80,-0.66,3.90,-0.82,-2.45,-0.86,
2.14,2.80,-0.66,3.90,-0.80,-2.42,-0.85,
2.14,2.80,-0.66,3.90,-0.78,-2.39,-0.84,
2.14,2.80,-0.66,3.90,-0.76,-2.36,-0.83,
2.141,2.07,-1.02,4.29,-0.76,-2.36,-0.83,
2.141,2.07,-1.02,4.29,-0.75,-2.33,-0.81,
2.142,2.07,-1.02,4.29,-0.73,-2.29,-0.79,
2.142,2.07,-1.02,4.29,-0.71,-2.26,-0.76,
2.142,2.07,-1.02,4.29,-0.70,-2.22,-0.73,
2.143,2.07,-1.02,4.29,-0.69,-2.19,-0.69,
2.143,1.04,-1.34,4.58,-0.69,-2.19,-0.69,
2.144,1.04,-1.34,4.58,-0.67,-2.15,-0.66,
2.144,1.04,-1.34,4.58,-0.66,-2.12,-0.62,
2.144,1.04,-1.34,4.58,-0.63,-2.06,-0.57,
2.145,1.04,-1.34,4.58,-0.62,-2.04,-0.56,
2.145,1.04,-1.34,4.58,-0.60,-2.00,-0.54,
2.154,0.35,-1.42,5.16,-0.60,-2.00,-0.54,
2.154,0.35,-1.42,5.16,-0.58,-1.96,-0.52,
2.154,0.35,-1.42,5.16,-0.56,-1.92,-0.51,
2.155,0.35,-1.42,5.16,-0.54,-1.88,-0.50,
2.155,0.35,-1.42,5.16,-0.52,-1.84,-0.49,
2.155,0.35,-1.42,5.16,-0.49,-1.80,-0.49,
2.159,-0.03,-1.25,5.37,-0.49,-1.80,-0.49,
2.16,-0.03,-1.25,5.37,-0.47,-1.77,-0.49,
2.16,-0.03,-1.25,5.37,-0.44,-1.74,-0.49,
2.16,-0.03,-1.25,5.37,-0.41,-1.71,-0.49,
2.162,-0.03,-1.25,5.37,-0.39,-1.69,-0.49,
2.166,-0.03,-1.25,5.37,-0.36,-1.67,-0.50,
2.166,-0.56,-1.00,5.33,-0.36,-1.67,-0.50,
2.167,-0.56,-1.00,5.33,-0.33,-1.65,-0.50,
2.167,-0.56,-1.00,5.33,-0.30,-1.64,-0.50,
2.171,-0.56,-1.00,5.33,-0.28,-1.63,-0.51,
2.172,-0.56,-1.00,5.33,-0.25,-1.62,-0.51,
2.174,-0.56,-1.00,5.33,-0.23,-1.63,-0.51,
2.176,-1.26,-0.77,4.63,-0.23,-1.63,-0.51,
2.176,-1.26,-0.77,4.63,-0.20,-1.63,-0.51,
2.178,-1.26,-0.77,4.63,-0.18,-1.65,-0.51,
2.192,-1.26,-0.77,4.63,-0.16,-1.66,-0.51,
2.193,-1.26,-0.77,4.63,-0.14,-1.68,-0.51,
2.193,-1.26,-0.77,4.63,-0.11,-1.71,-0.50,
2.193,-2.20,-0.53,4.00,-0.11,-1.71,-0.50,
2.194,-2.20,-0.53,4.00,-0.09,-1.73,-0.50,
2.194,-2.20,-0.53,4.00,-0.07,-1.76,-0.49,
2.194,-2.20,-0.53,4.00,-0.05,-1.79,-0.48,
2.194,-2.20,-0.53,4.00,-0.03,-1.82,-0.47,
2.195,-2.20,-0.53,4.00,-0.01,-1.85,-0.46,
2.226,-3.07,-0.29,3.15,-0.01,-1.85,-0.46,
2.226,-3.07,-0.29,3.15,0.01,-1.87,-0.45,
2.226,-3.07,-0.29,3.15,0.02,-1.90,-0.43,
2.227,-3.07,-0.29,3.15,0.03,-1.92,-0.41,
2.227,-3.07,-0.29,3.15,0.04,-1.95,-0.39,
2.227,-3.07,-0.29,3.15,0.05,-1.98,-0.37,
2.227,-4.02,-0.02,2.36,0.05,-1.98,-0.37,
2.228,-4.02,-0.02,2.36,0.06,-2.02,-0.35,
2.228,-4.02,-0.02,2.36,0.08,-2.05,-0.32,
2.228,-4.02,-0.02,2.36,0.09,-2.09,-0.29,
2.228,-4.02,-0.02,2.36,0.10,-2.13,-0.26,
2.228,-4.02,-0.02,2.36,0.11,-2.18,-0.23,
2.229,-4.86,-0.12,1.66,0.11,-2.18,-0.23,
2.229,-4.86,-0.12,1.66,0.14,-2.23,-0.19,
2.229,-4.86,-0.12,1.66,0.16,-2.29,-0.16,
2.229,-4.86,-0.12,1.66,0.18,-2.35,-0.13,
2.23,-4.86,-0.12,1.66,0.22,-2.42,-0.10,
2.23,-4.86,-0.12,1.66,0.25,-2.50,-0.07,
2.23,-5.86,-1.00,1.30,0.25,-2.50,-0.07,
2.231,-5.86,-1.00,1.30,0.29,-2.58,-0.04,
2.231,-5.86,-1.00,1.30,0.34,-2.66,-0.01,
2.231,-5.86,-1.00,1.30,0.39,-2.75,0.02,
2.235,-5.86,-1.00,1.30,0.44,-2.84,0.04,
2.235,-5.86,-1.00,1.30,0.50,-2.94,0.06,
2.237,-6.48,-2.06,0.73,0.50,-2.94,0.06,
2.237,-6.48,-2.06,0.73,0.55,-3.05,0.08,
2.238,-6.48,-2.06,0.73,0.61,-3.17,0.11,
2.24,-6.48,-2.06,0.73,0.66,-3.30,0.13,
2.242,-6.48,-2.06,0.73,0.71,-3.43,0.16,
2.244,-6.48,-2.06,0.73,0.76,-3.57,0.19,
2.251,-7.42,-2.37,0.07,0.76,-3.57,0.19,
2.251,-7.42,-2.37,0.07,0.82,-3.70,0.22,
2.251,-7.42,-2.37,0.07,0.87,-3.82,0.25,
2.252,-7.42,-2.37,0.07,0.93,-3.94,0.29,
2.253,-7.42,-2.37,0.07,1.00,-4.05,0.33,
2.254,-7.42,-2.37,0.07,1.08,-4.16,0.37,
2.256,-8.34,-2.57,1.28,1.08,-4.16,0.37,
2.256,-8.34,-2.57,1.28,1.17,-4.27,0.42,
2.258,-8.34,-2.57,1.28,1.27,-4.39,0.47,
2.259,-8.34,-2.57,1.28,1.38,-4.51,0.52,
2.262,-8.34,-2.57,1.28,1.50,-4.63,0.58,
2.265,-8.34,-2.57,1.28,1.63,-4.76,0.64,
2.266,-9.01,-2.37,4.31,1.63,-4.76,0.64,
2.266,-9.01,-2.37,4.31,1.77,-4.89,0.70,
2.269,-9.01,-2.37,4.31,1.91,-5.01,0.75,
2.288,-9.01,-2.37,4.31,2.04,-5.12,0.81,
2.288,-9.01,-2.37,4.31,2.18,-5.20,0.87,
2.288,-9.01,-2.37,4.31,2.32,-5.27,0.92,
2.288,-8.32,-1.89,6.42,2.32,-5.27,0.92,
2.289,-8.32,-1.89,6.42,2.44,-5.30,0.97,
2.289,-8.32,-1.89,6.42,2.56,-5.30,1.01,
2.289,-8.32,-1.89,6.42,2.67,-5.26,1.05,
2.289,-8.32,-1.89,6.42,2.75,-5.18,1.09,
2.29,-8.32,-1.89,6.42,2.83,-5.05,1.12,
2.29,-7.41,-1.57,6.44,2.83,-5.05,1.12,
2.29,-7.41,-1.57,6.44,2.89,-4.89,1.16,
2.29,-7.41,-1.57,6.44,2.94,-4.70,1.19,
2.291,-7.41,-1.57,6.44,2.97,-4.50,1.23,
2.295,-7.41,-1.57,6.44,2.98,-4.28,1.27,
2.302,-7.41,-1.57,6.44,2.98,-3.88,1.37,
2.302,-7.41,-1.57,6.44,2.98,-3.88,1.37,
2.303,-7.45,-2.23,4.32,2.98,-3.88,1.37,
2.303,-7.45,-2.23,4.32,2.95,-3.62,1.44,
2.303,-7.45,-2.23,4.32,2.92,-3.45,1.52,
2.303,-7.45,-2.23,4.32,2.91,-3.41,1.55,
2.303,-7.45,-2.23,4.32,2.89,-3.38,1.58,
2.306,-7.90,-3.22,2.90,2.89,-3.38,1.58,
2.306,-7.90,-3.22,2.90,2.87,-3.32,1.63,
2.307,-7.90,-3.22,2.90,2.85,-3.31,1.69,
2.31,-7.90,-3.22,2.90,2.84,-3.32,1.74,
2.312,-7.90,-3.22,2.90,2.82,-3.37,1.80,
2.318,-7.90,-3.22,2.90,2.82,-3.47,1.85,
2.318,-7.97,-4.50,1.36,2.82,-3.47,1.85,
2.318,-7.97,-4.50,1.36,2.81,-3.60,1.89,
2.318,-7.97,-4.50,1.36,2.82,-3.77,1.94,
2.323,-7.97,-4.50,1.36,2.83,-3.98,1.98,
2.327,-7.97,-4.50,1.36,2.85,-4.22,2.02,
2.327,-7.97,-4.50,1.36,2.87,-4.49,2.05,
2.327,-7.69,-5.19,-0.01,2.87,-4.49,2.05,
2.328,-7.69,-5.19,-0.01,2.89,-4.80,2.07,
2.328,-7.69,-5.19,-0.01,2.91,-5.11,2.08,
2.342,-7.69,-5.19,-0.01,2.92,-5.43,2.07,
2.342,-7.69,-5.19,-0.01,2.92,-5.73,2.06,
2.342,-7.69,-5.19,-0.01,2.90,-6.01,2.03,
2.343,-6.57,-5.79,-3.04,2.90,-6.01,2.03,
2.343,-6.57,-5.79,-3.04,2.87,-6.26,1.99,
2.343,-6.57,-5.79,-3.04,2.82,-6.47,1.95,
2.343,-6.57,-5.79,-3.04,2.75,-6.63,1.89,
2.343,-6.57,-5.79,-3.04,2.67,-6.75,1.83,
2.343,-6.57,-5.79,-3.04,2.56,-6.83,1.76,
2.347,-5.60,-6.05,-8.26,2.56,-6.83,1.76,
2.347,-5.60,-6.05,-8.26,2.42,-6.87,1.68,
2.348,-5.60,-6.05,-8.26,2.27,-6.87,1.61,
2.35,-5.60,-6.05,-8.26,2.10,-6.82,1.53,
2.352,-5.60,-6.05,-8.26,1.91,-6.72,1.46,
2.354,-5.60,-6.05,-8.26,1.71,-6.58,1.38,
2.356,-4.69,-6.08,-13.29,1.71,-6.58,1.38,
2.357,-4.69,-6.08,-13.29,1.51,-6.40,1.31,
2.357,-4.69,-6.08,-13.29,1.30,-6.18,1.24,
2.36,-4.69,-6.08,-13.29,1.08,-5.94,1.17,
2.363,-4.69,-6.08,-13.29,0.87,-5.68,1.10,
2.364,-4.69,-6.08,-13.29,0.66,-5.43,1.03,
2.366,-3.16,-6.52,-16.35,0.66,-5.43,1.03,
2.366,-3.16,-6.52,-16.35,0.45,-5.17,0.97,
2.367,-3.16,-6.52,-16.35,0.25,-4.93,0.91,
2.37,-3.16,-6.52,-16.35,0.06,-4.71,0.85,
2.372,-3.16,-6.52,-16.35,-0.10,-4.51,0.80,
2.374,-3.16,-6.52,-16.35,-0.25,-4.34,0.74,
2.377,-1.22,-6.74,-15.22,-0.25,-4.34,0.74,
2.377,-1.22,-6.74,-15.22,-0.37,-4.23,0.67,
2.378,-1.22,-6.74,-15.22,-0.47,-4.18,0.59,
2.38,-1.22,-6.74,-15.22,-0.50,-4.24,0.44,
2.382,-1.22,-6.74,-15.22,-0.48,-4.29,0.37,
2.384,-1.22,-6.74,-15.22,-0.38,-4.42,0.24,
2.387,2.89,-8.16,-6.90,-0.38,-4.42,0.24,
2.387,2.89,-8.16,-6.90,-0.22,-4.59,0.09,
2.388,2.89,-8.16,-6.90,-0.00,-4.77,-0.06,
2.39,2.89,-8.16,-6.90,0.26,-4.97,-0.22,
2.393,2.89,-8.16,-6.90,0.55,-5.17,-0.38,
2.394,2.89,-8.16,-6.90,0.86,-5.38,-0.54,
2.397,4.78,-9.21,1.88,0.86,-5.38,-0.54,
2.397,4.78,-9.21,1.88,1.19,-5.58,-0.70,
2.398,4.78,-9.21,1.88,1.53,-5.77,-0.86,
2.4,4.78,-9.21,1.88,1.88,-5.93,-1.01,
2.402,4.78,-9.21,1.88,2.22,-6.02,-1.16,
2.404,4.78,-9.21,1.88,2.57,-6.04,-1.30,
2.406,4.35,-11.21,7.17,2.57,-6.04,-1.30,
2.407,4.35,-11.21,7.17,2.92,-5.99,-1.44,
2.408,4.35,-11.21,7.17,3.25,-5.87,-1.56,
2.41,4.35,-11.21,7.17,3.58,-5.69,-1.65,
2.413,4.35,-11.21,7.17,3.89,-5.44,-1.72,
2.416,4.35,-11.21,7.17,4.18,-5.11,-1.76,
2.418,1.83,-13.03,10.01,4.18,-5.11,-1.76,
2.419,1.83,-13.03,10.01,4.46,-4.71,-1.77,
2.42,1.83,-13.03,10.01,4.71,-4.23,-1.75,
2.42,1.83,-13.03,10.01,4.94,-3.68,-1.69,
2.426,1.83,-13.03,10.01,5.13,-3.08,-1.59,
2.428,1.83,-13.03,10.01,5.29,-2.44,-1.44,
2.428,-2.33,-12.42,9.55,5.29,-2.44,-1.44,
2.429,-2.33,-12.42,9.55,5.41,-1.80,-1.25,
2.429,-2.33,-12.42,9.55,5.50,-1.18,-1.05,
2.434,-2.33,-12.42,9.55,5.57,-0.60,-0.82,
2.435,-2.33,-12.42,9.55,5.62,-0.06,-0.58,
2.435,-2.33,-12.42,9.55,5.65,0.42,-0.35,
2.438,-5.18,-8.51,3.67,5.65,0.42,-0.35,
2.466,-5.18,-8.51,3.67,5.68,0.85,-0.12,
2.467,-5.18,-8.51,3.67,5.70,1.21,0.08,
2.467,-5.18,-8.51,3.67,5.70,1.51,0.27,
2.468,-5.18,-8.51,3.67,5.71,1.73,0.44,
2.468,-5.18,-8.51,3.67,5.72,1.89,0.59,
2.469,-4.55,-5.32,-3.44,5.72,1.89,0.59,
2.469,-4.55,-5.32,-3.44,5.74,1.97,0.72,
2.47,-4.55,-5.32,-3.44,5.75,2.00,0.82,
2.47,-4.55,-5.32,-3.44,5.77,1.97,0.91,
2.47,-4.55,-5.32,-3.44,5.80,1.89,0.98,
2.471,-4.55,-5.32,-3.44,5.82,1.79,1.04,
2.471,-2.12,-3.41,-8.41,5.82,1.79,1.04,
2.472,-2.12,-3.41,-8.41,5.84,1.65,1.09,
2.472,-2.12,-3.41,-8.41,5.87,1.42,1.14,
2.473,-2.12,-3.41,-8.41,5.87,1.26,1.16,
2.473,-2.12,-3.41,-8.41,5.86,1.18,1.17,
2.473,-2.12,-3.41,-8.41,5.84,1.04,1.17,
2.474,0.38,-2.04,-11.12,5.84,1.04,1.17,
2.474,0.38,-2.04,-11.12,5.80,0.93,1.17,
2.475,0.38,-2.04,-11.12,5.75,0.85,1.16,
2.475,0.38,-2.04,-11.12,5.68,0.80,1.16,
2.476,0.38,-2.04,-11.12,5.60,0.80,1.14,
2.476,0.38,-2.04,-11.12,5.51,0.82,1.13,
2.476,2.24,-0.03,-10.16,5.51,0.82,1.13,
2.477,2.24,-0.03,-10.16,5.40,0.88,1.11,
2.495,2.24,-0.03,-10.16,5.27,0.96,1.09,
2.496,2.24,-0.03,-10.16,5.06,1.09,1.07,
2.496,2.24,-0.03,-10.16,4.98,1.13,1.07,
2.496,2.24,-0.03,-10.16,4.83,1.21,1.06,
2.496,3.14,1.86,-8.74,4.83,1.21,1.06,
2.497,3.14,1.86,-8.74,4.67,1.28,1.05,
2.497,3.14,1.86,-8.74,4.53,1.32,1.05,
2.497,3.14,1.86,-8.74,4.38,1.35,1.05,
2.498,3.14,1.86,-8.74,4.25,1.34,1.06,
2.498,3.14,1.86,-8.74,4.12,1.31,1.06,
2.498,3.05,3.41,-7.42,4.12,1.31,1.06,
2.498,3.05,3.41,-7.42,4.00,1.26,1.07,
2.499,3.05,3.41,-7.42,3.90,1.20,1.08,
2.506,3.05,3.41,-7.42,3.80,1.12,1.09,
2.507,3.05,3.41,-7.42,3.71,1.03,1.10,
2.508,3.05,3.41,-7.42,3.62,0.94,1.11,
2.509,2.74,4.21,-7.26,3.62,0.94,1.11,
2.509,2.74,4.21,-7.26,3.53,0.86,1.13,
2.51,2.74,4.21,-7.26,3.45,0.80,1.14,
2.529,2.74,4.21,-7.26,3.38,0.73,1.16,
2.53,2.74,4.21,-7.26,3.30,0.69,1.17,
2.53,2.74,4.21,-7.26,3.23,0.65,1.19,
2.53,2.39,5.03,-8.02,3.23,0.65,1.19,
2.531,2.39,5.03,-8.02,3.15,0.62,1.20,
2.531,2.39,5.03,-8.02,3.07,0.60,1.22,
2.531,2.39,5.03,-8.02,2.99,0.59,1.23,
2.531,2.39,5.03,-8.02,2.90,0.60,1.25,
2.532,2.39,5.03,-8.02,2.83,0.61,1.27,
2.532,2.12,5.72,-8.97,2.83,0.61,1.27,
2.532,2.12,5.72,-8.97,2.75,0.63,1.28,
2.532,2.12,5.72,-8.97,2.66,0.65,1.29,
2.533,2.12,5.72,-8.97,2.53,0.67,1.31,
2.533,2.12,5.72,-8.97,2.49,0.68,1.32,
2.534,2.12,5.72,-8.97,2.40,0.69,1.34,
2.536,1.97,6.33,-9.13,2.40,0.69,1.34,
2.536,1.97,6.33,-9.13,2.31,0.69,1.36,
2.537,1.97,6.33,-9.13,2.22,0.70,1.38,
2.54,1.97,6.33,-9.13,2.12,0.70,1.40,
2.544,1.97,6.33,-9.13,2.02,0.69,1.41,
2.547,1.97,6.33,-9.13,1.92,0.68,1.43,
2.547,1.72,6.73,-8.62,1.92,0.68,1.43,
2.548,1.72,6.73,-8.62,1.82,0.67,1.45,
2.548,1.72,6.73,-8.62,1.72,0.66,1.47,
2.55,1.72,6.73,-8.62,1.55,0.64,1.50,
2.552,1.72,6.73,-8.62,1.49,0.63,1.51,
2.554,1.72,6.73,-8.62,1.37,0.63,1.53,
2.556,1.70,6.37,-7.89,1.37,0.63,1.53,
2.557,1.70,6.37,-7.89,1.25,0.62,1.54,
2.558,1.70,6.37,-7.89,1.13,0.62,1.55,
2.56,1.70,6.37,-7.89,1.02,0.62,1.57,
2.563,1.70,6.37,-7.89,0.90,0.63,1.57,
2.564,1.70,6.37,-7.89,0.79,0.64,1.58,
2.568,1.73,5.77,-6.19,0.79,0.64,1.58,
2.568,1.73,5.77,-6.19,0.68,0.65,1.59,
2.568,1.73,5.77,-6.19,0.58,0.66,1.59,
2.57,1.73,5.77,-6.19,0.48,0.67,1.59,
2.572,1.73,5.77,-6.19,0.39,0.67,1.58,
2.574,1.73,5.77,-6.19,0.31,0.66,1.57,
2.576,2.43,3.72,-4.26,0.31,0.66,1.57,
2.577,2.43,3.72,-4.26,0.20,0.63,1.53,
2.587,2.43,3.72,-4.26,0.16,0.61,1.51,
2.589,2.43,3.72,-4.26,0.07,0.54,1.44,
2.59,2.43,3.72,-4.26,0.04,0.51,1.41,
2.591,2.43,3.72,-4.26,-0.01,0.45,1.36,
2.591,3.92,1.62,-2.62,-0.01,0.45,1.36,
2.591,3.92,1.62,-2.62,-0.05,0.38,1.30,
2.592,3.92,1.62,-2.62,-0.10,0.29,1.23,
2.592,3.92,1.62,-2.62,-0.16,0.16,1.11,
2.593,3.92,1.62,-2.62,-0.19,0.11,1.07,
2.615,3.92,1.62,-2.62,-0.23,0.01,0.99,
2.616,4.96,0.45,-2.04,-0.23,0.01,0.99,
2.616,4.96,0.45,-2.04,-0.31,-0.13,0.86,
2.616,4.96,0.45,-2.04,-0.34,-0.18,0.81,
2.616,4.96,0.45,-2.04,-0.42,-0.29,0.68,
2.617,4.96,0.45,-2.04,-0.48,-0.34,0.59,
2.631,4.96,0.45,-2.04,-0.51,-0.36,0.55,
2.632,5.50,0.02,-2.78,-0.51,-0.36,0.55,
2.632,5.50,0.02,-2.78,-0.59,-0.37,0.44,
2.632,5.50,0.02,-2.78,-0.62,-0.37,0.40,
2.632,5.50,0.02,-2.78,-0.70,-0.33,0.31,
2.632,5.50,0.02,-2.78,-0.74,-0.28,0.25,
2.632,5.50,0.02,-2.78,-0.77,-0.25,0.23,
2.633,5.09,0.74,-3.66,-0.77,-0.25,0.23,
2.633,5.09,0.74,-3.66,-0.82,-0.15,0.17,
2.633,5.09,0.74,-3.66,-0.83,-0.12,0.15,
2.633,5.09,0.74,-3.66,-0.86,-0.01,0.10,
2.633,5.09,0.74,-3.66,-0.87,0.07,0.07,
2.633,5.09,0.74,-3.66,-0.87,0.14,0.05,
2.634,4.50,1.90,-3.49,-0.87,0.14,0.05,
2.634,4.50,1.90,-3.49,-0.87,0.20,0.02,
2.634,4.50,1.90,-3.49,-0.86,0.26,-0.00,
2.634,4.50,1.90,-3.49,-0.84,0.31,-0.03,
2.634,4.50,1.90,-3.49,-0.82,0.35,-0.05,
2.645,4.50,1.90,-3.49,-0.80,0.39,-0.07,
2.645,4.03,2.91,-2.73,-0.80,0.39,-0.07,
2.645,4.03,2.91,-2.73,-0.78,0.41,-0.10,
2.645,4.03,2.91,-2.73,-0.76,0.42,-0.13,
2.646,4.03,2.91,-2.73,-0.74,0.42,-0.16,
2.646,4.03,2.91,-2.73,-0.72,0.41,-0.19,
2.646,4.03,2.91,-2.73,-0.71,0.38,-0.22,
2.649,3.95,3.56,-2.16,-0.71,0.38,-0.22,
2.65,3.95,3.56,-2.16,-0.70,0.35,-0.25,
2.651,3.95,3.56,-2.16,-0.70,0.30,-0.29,
2.651,3.95,3.56,-2.16,-0.71,0.25,-0.32,
2.652,3.95,3.56,-2.16,-0.72,0.20,-0.36,
2.654,3.95,3.56,-2.16,-0.73,0.14,-0.39,
2.656,3.40,3.99,-2.41,-0.73,0.14,-0.39,
2.657,3.40,3.99,-2.41,-0.76,0.08,-0.43,
2.658,3.40,3.99,-2.41,-0.79,0.03,-0.47,
2.661,3.40,3.99,-2.41,-0.82,-0.02,-0.51,
2.662,3.40,3.99,-2.41,-0.86,-0.06,-0.54,
2.664,3.40,3.99,-2.41,-0.90,-0.10,-0.56,
2.666,2.15,4.69,-2.12,-0.90,-0.10,-0.56,
2.666,2.15,4.69,-2.12,-0.95,-0.13,-0.59,
2.668,2.15,4.69,-2.12,-1.00,-0.16,-0.61,
2.669,2.15,4.69,-2.12,-1.05,-0.17,-0.63,
2.672,2.15,4.69,-2.12,-1.11,-0.18,-0.64,
2.674,2.15,4.69,-2.12,-1.16,-0.18,-0.64,
2.676,-0.03,5.47,-0.63,-1.16,-0.18,-0.64,
2.676,-0.03,5.47,-0.63,-1.22,-0.18,-0.64,
2.678,-0.03,5.47,-0.63,-1.29,-0.17,-0.63,
2.68,-0.03,5.47,-0.63,-1.35,-0.15,-0.62,
2.681,-0.03,5.47,-0.63,-1.42,-0.14,-0.60,
2.684,-0.03,5.47,-0.63,-1.50,-0.11,-0.57,
2.686,-2.43,6.50,0.68,-1.50,-0.11,-0.57,
2.686,-2.43,6.50,0.68,-1.58,-0.09,-0.54,
2.687,-2.43,6.50,0.68,-1.66,-0.08,-0.50,
2.69,-2.43,6.50,0.68,-1.72,-0.08,-0.45,
2.693,-2.43,6.50,0.68,-1.77,-0.09,-0.40,
2.697,-2.43,6.50,0.68,-1.80,-0.11,-0.34,
2.699,-4.40,6.87,2.35,-1.80,-0.11,-0.34,
2.7,-4.40,6.87,2.35,-1.81,-0.17,-0.26,
2.7,-4.40,6.87,2.35,-1.78,-0.27,-0.18,
2.701,-4.40,6.87,2.35,-1.70,-0.41,-0.08,
2.709,-4.40,6.87,2.35,-1.58,-0.60,0.04,
2.712,-4.40,6.87,2.35,-1.40,-0.81,0.18,
2.712,-7.74,7.61,12.51,-1.40,-0.81,0.18,
2.713,-7.74,7.61,12.51,-1.17,-1.02,0.33,
2.713,-7.74,7.61,12.51,-0.91,-1.21,0.50,
2.713,-7.74,7.61,12.51,-0.64,-1.32,0.66,
2.713,-7.74,7.61,12.51,-0.41,-1.29,0.80,
2.716,-7.74,7.61,12.51,-0.25,-1.10,0.91,
2.717,-11.59,5.25,20.09,-0.25,-1.10,0.91,
2.717,-11.59,5.25,20.09,-0.17,-0.75,0.97,
2.717,-11.59,5.25,20.09,-0.18,-0.26,1.00,
2.72,-11.59,5.25,20.09,-0.27,0.33,1.00,
2.722,-11.59,5.25,20.09,-0.42,0.98,0.97,
2.723,-11.59,5.25,20.09,-0.64,1.64,0.93,
2.726,-10.21,-2.25,5.78,-0.64,1.64,0.93,
2.726,-10.21,-2.25,5.78,-0.91,2.23,0.88,
2.732,-10.21,-2.25,5.78,-1.22,2.70,0.82,
2.733,-10.21,-2.25,5.78,-1.56,2.99,0.77,
2.733,-10.21,-2.25,5.78,-1.88,3.06,0.71,
2.74,-10.21,-2.25,5.78,-2.17,2.91,0.65,
2.746,-5.38,-8.62,-7.40,-2.17,2.91,0.65,
2.747,-5.38,-8.62,-7.40,-2.41,2.55,0.61,
2.747,-5.38,-8.62,-7.40,-2.58,2.03,0.57,
2.747,-5.38,-8.62,-7.40,-2.69,1.41,0.55,
2.747,-5.38,-8.62,-7.40,-2.73,0.72,0.54,
2.747,-5.38,-8.62,-7.40,-2.74,0.02,0.54,
2.747,-3.15,-11.05,-5.29,-2.74,0.02,0.54,
2.748,-3.15,-11.05,-5.29,-2.71,-0.64,0.55,
2.768,-3.15,-11.05,-5.29,-2.67,-1.22,0.55,
2.769,-3.15,-11.05,-5.29,-2.63,-1.73,0.55,
2.769,-3.15,-11.05,-5.29,-2.58,-2.14,0.54,
2.769,-3.15,-11.05,-5.29,-2.52,-2.45,0.52,
2.769,-0.59,-10.28,-3.79,-2.52,-2.45,0.52,
2.77,-0.59,-10.28,-3.79,-2.47,-2.66,0.49,
2.77,-0.59,-10.28,-3.79,-2.42,-2.79,0.45,
2.77,-0.59,-10.28,-3.79,-2.37,-2.82,0.40,
2.77,-0.59,-10.28,-3.79,-2.34,-2.80,0.34,
2.77,-0.59,-10.28,-3.79,-2.32,-2.73,0.28,
2.77,1.65,-7.49,-5.22,-2.32,-2.73,0.28,
2.771,1.65,-7.49,-5.22,-2.31,-2.62,0.21,
2.771,1.65,-7.49,-5.22,-2.31,-2.49,0.14,
2.788,1.65,-7.49,-5.22,-2.33,-2.33,0.07,
2.788,1.65,-7.49,-5.22,-2.37,-2.14,-0.01,
2.789,1.65,-7.49,-5.22,-2.41,-1.93,-0.09,
2.789,2.50,-3.75,-7.21,-2.41,-1.93,-0.09,
2.789,2.50,-3.75,-7.21,-2.45,-1.72,-0.17,
2.789,2.50,-3.75,-7.21,-2.50,-1.51,-0.26,
2.789,2.50,-3.75,-7.21,-2.53,-1.31,-0.34,
2.79,2.50,-3.75,-7.21,-2.56,-1.13,-0.42,
2.79,2.50,-3.75,-7.21,-2.56,-0.98,-0.51,
2.79,2.92,-0.63,-5.30,-2.56,-0.98,-0.51,
2.79,2.92,-0.63,-5.30,-2.55,-0.86,-0.60,
2.791,2.92,-0.63,-5.30,-2.53,-0.78,-0.69,
2.791,2.92,-0.63,-5.30,-2.51,-0.73,-0.78,
2.798,2.92,-0.63,-5.30,-2.44,-0.71,-0.95,
2.799,2.92,-0.63,-5.30,-2.44,-0.71,-0.95,
2.799,2.92,-0.63,-5.30,-2.40,-0.73,-1.01,
2.799,2.91,0.63,-1.67,-2.40,-0.73,-1.01,
2.799,2.91,0.63,-1.67,-2.38,-0.75,-1.05,
2.8,2.91,0.63,-1.67,-2.35,-0.77,-1.08,
2.804,2.91,0.63,-1.67,-2.33,-0.80,-1.09,
2.805,2.91,0.63,-1.67,-2.32,-0.83,-1.08,
2.808,1.37,-0.47,-1.90,-2.32,-0.83,-1.08,
2.808,1.37,-0.47,-1.90,-2.32,-0.86,-1.05,
2.812,1.37,-0.47,-1.90,-2.32,-0.90,-1.00,
2.812,1.37,-0.47,-1.90,-2.32,-0.94,-0.92,
2.815,1.37,-0.47,-1.90,-2.32,-0.98,-0.84,
2.816,1.37,-0.47,-1.90,-2.32,-1.02,-0.75,
2.816,-1.76,-1.35,-2.86,-2.32,-1.02,-0.75,
2.816,-1.76,-1.35,-2.86,-2.33,-1.05,-0.64,
2.818,-1.76,-1.35,-2.86,-2.33,-1.08,-0.52,
2.82,-1.76,-1.35,-2.86,-2.33,-1.11,-0.40,
2.821,-1.76,-1.35,-2.86,-2.32,-1.14,-0.28,
2.823,-1.76,-1.35,-2.86,-2.31,-1.17,-0.15,
2.827,-4.34,-2.05,-2.17,-2.31,-1.17,-0.15,
2.827,-4.34,-2.05,-2.17,-2.31,-1.21,-0.03,
2.828,-4.34,-2.05,-2.17,-2.30,-1.25,0.10,
2.83,-4.34,-2.05,-2.17,-2.30,-1.30,0.22,
2.832,-4.34,-2.05,-2.17,-2.31,-1.34,0.34,
2.834,-4.34,-2.05,-2.17,-2.31,-1.38,0.45,
2.836,-5.11,-2.60,-1.05,-2.31,-1.38,0.45,
2.836,-5.11,-2.60,-1.05,-2.33,-1.41,0.56,
2.837,-5.11,-2.60,-1.05,-2.34,-1.44,0.66,
2.839,-5.11,-2.60,-1.05,-2.37,-1.47,0.76,
2.841,-5.11,-2.60,-1.05,-2.40,-1.49,0.85,
2.844,-5.11,-2.60,-1.05,-2.43,-1.50,0.93,
2.847,-4.77,-3.04,-1.16,-2.43,-1.50,0.93,
2.847,-4.77,-3.04,-1.16,-2.47,-1.50,1.00,
2.848,-4.77,-3.04,-1.16,-2.51,-1.51,1.06,
2.85,-4.77,-3.04,-1.16,-2.54,-1.51,1.10,
2.852,-4.77,-3.04,-1.16,-2.59,-1.50,1.14,
2.853,-4.77,-3.04,-1.16,-2.63,-1.49,1.16,
2.858,-3.26,-3.43,-1.59,-2.63,-1.49,1.16,
2.859,-3.26,-3.43,-1.59,-2.67,-1.47,1.16,
2.859,-3.26,-3.43,-1.59,-2.71,-1.45,1.17,
2.87,-3.26,-3.43,-1.59,-2.75,-1.43,1.15,
2.871,-3.26,-3.43,-1.59,-2.79,-1.41,1.14,
2.871,-3.26,-3.43,-1.59,-2.83,-1.39,1.11,
2.871,-1.90,-3.67,-2.09,-2.83,-1.39,1.11,
2.871,-1.90,-3.67,-2.09,-2.86,-1.38,1.08,
2.872,-1.90,-3.67,-2.09,-2.89,-1.37,1.04,
2.872,-1.90,-3.67,-2.09,-2.92,-1.36,0.99,
2.872,-1.90,-3.67,-2.09,-2.94,-1.35,0.94,
2.874,-1.90,-3.67,-2.09,-2.96,-1.35,0.90,
2.902,-1.03,-3.51,-1.99,-2.96,-1.35,0.90,
2.903,-1.03,-3.51,-1.99,-2.98,-1.35,0.84,
2.903,-1.03,-3.51,-1.99,-2.99,-1.36,0.79,
2.903,-1.03,-3.51,-1.99,-3.00,-1.38,0.74,
2.903,-1.03,-3.51,-1.99,-3.01,-1.40,0.68,
2.903,-1.03,-3.51,-1.99,-3.02,-1.42,0.63,
2.903,-0.56,-3.06,-1.84,-3.02,-1.42,0.63,
2.903,-0.56,-3.06,-1.84,-3.03,-1.46,0.58,
2.904,-0.56,-3.06,-1.84,-3.04,-1.49,0.54,
2.904,-0.56,-3.06,-1.84,-3.04,-1.52,0.49,
2.904,-0.56,-3.06,-1.84,-3.04,-1.55,0.45,
2.904,-0.56,-3.06,-1.84,-3.04,-1.58,0.42,
2.904,-0.62,-2.42,-1.42,-3.04,-1.58,0.42,
2.904,-0.62,-2.42,-1.42,-3.03,-1.61,0.38,
2.905,-0.62,-2.42,-1.42,-3.03,-1.63,0.35,
2.905,-0.62,-2.42,-1.42,-3.02,-1.65,0.32,
2.905,-0.62,-2.42,-1.42,-3.01,-1.66,0.30,
2.905,-0.62,-2.42,-1.42,-3.01,-1.67,0.28,
2.906,-0.96,-1.93,-0.98,-3.01,-1.67,0.28,
2.906,-0.96,-1.93,-0.98,-3.00,-1.67,0.25,
2.908,-0.96,-1.93,-0.98,-2.99,-1.67,0.24,
2.909,-0.96,-1.93,-0.98,-2.99,-1.66,0.22,
2.912,-0.96,-1.93,-0.98,-2.99,-1.64,0.21,
2.913,-0.96,-1.93,-0.98,-2.98,-1.62,0.20,
2.916,-1.08,-1.53,-0.91,-2.98,-1.62,0.20,
2.916,-1.08,-1.53,-0.91,-2.98,-1.59,0.19,
2.917,-1.08,-1.53,-0.91,-2.99,-1.56,0.19,
2.919,-1.08,-1.53,-0.91,-2.99,-1.53,0.18,
2.921,-1.08,-1.53,-0.91,-2.99,-1.49,0.18,
2.923,-1.08,-1.53,-0.91,-3.00,-1.45,0.19,
2.926,-1.13,-1.17,-1.15,-3.00,-1.45,0.19,
2.927,-1.13,-1.17,-1.15,-3.01,-1.42,0.19,
2.928,-1.13,-1.17,-1.15,-3.01,-1.38,0.19,
2.93,-1.13,-1.17,-1.15,-3.02,-1.34,0.20,
2.932,-1.13,-1.17,-1.15,-3.03,-1.30,0.20,
2.934,-1.13,-1.17,-1.15,-3.04,-1.27,0.21,
2.936,-0.95,-0.86,-1.18,-3.04,-1.27,0.21,
2.947,-0.95,-0.86,-1.18,-3.04,-1.24,0.22,
2.947,-0.95,-0.86,-1.18,-3.04,-1.21,0.22,
2.947,-0.95,-0.86,-1.18,-3.04,-1.18,0.23,
2.947,-0.95,-0.86,-1.18,-3.05,-1.16,0.24,
2.947,-0.95,-0.86,-1.18,-3.05,-1.14,0.24,
2.947,-0.72,-0.59,-1.07,-3.05,-1.14,0.24,
2.947,-0.72,-0.59,-1.07,-3.05,-1.12,0.25,
2.948,-0.72,-0.59,-1.07,-3.05,-1.11,0.26,
2.95,-0.72,-0.59,-1.07,-3.05,-1.09,0.26,
2.952,-0.72,-0.59,-1.07,-3.05,-1.09,0.27,
2.953,-0.72,-0.59,-1.07,-3.04,-1.08,0.28,
2.956,-0.72,-0.39,-1.12,-3.04,-1.08,0.28,
2.956,-0.72,-0.39,-1.12,-3.04,-1.07,0.30,
2.957,-0.72,-0.39,-1.12,-3.04,-1.07,0.31,
2.959,-0.72,-0.39,-1.12,-3.04,-1.07,0.33,
2.962,-0.72,-0.39,-1.12,-3.04,-1.07,0.35,
2.963,-0.72,-0.39,-1.12,-3.04,-1.07,0.37,
2.966,-1.08,-0.14,-1.40,-3.04,-1.07,0.37,
2.966,-1.08,-0.14,-1.40,-3.04,-1.08,0.39,
2.967,-1.08,-0.14,-1.40,-3.05,-1.09,0.42,
2.969,-1.08,-0.14,-1.40,-3.05,-1.10,0.45,
2.972,-1.08,-0.14,-1.40,-3.06,-1.11,0.48,
2.973,-1.08,-0.14,-1.40,-3.06,-1.12,0.51,
2.978,-1.42,0.01,-1.45,-3.06,-1.12,0.51,
2.978,-1.42,0.01,-1.45,-3.06,-1.13,0.54,
2.978,-1.42,0.01,-1.45,-3.07,-1.15,0.58,
2.979,-1.42,0.01,-1.45,-3.07,-1.15,0.61,
2.982,-1.42,0.01,-1.45,-3.07,-1.16,0.65,
2.985,-1.42,0.01,-1.45,-3.08,-1.17,0.69,
2.986,-1.86,0.14,-1.41,-3.08,-1.17,0.69,
2.986,-1.86,0.14,-1.41,-3.08,-1.18,0.73,
2.988,-1.86,0.14,-1.41,-3.08,-1.19,0.78,
2.989,-1.86,0.14,-1.41,-3.08,-1.19,0.82,
2.995,-1.86,0.14,-1.41,-3.08,-1.18,0.87,
2.995,-1.86,0.14,-1.41,-3.08,-1.18,0.92,
2.996,-2.40,0.49,-1.06,-3.08,-1.18,0.92,
2.996,-2.40,0.49,-1.06,-3.07,-1.18,0.97,
2.998,-2.40,0.49,-1.06,-3.06,-1.17,1.01,
2.999,-2.40,0.49,-1.06,-3.05,-1.16,1.06,
3.002,-2.40,0.49,-1.06,-3.04,-1.15,1.10,
3.003,-2.40,0.49,-1.06,-3.02,-1.14,1.15,
3.006,-2.46,0.91,-0.52,-3.02,-1.14,1.15,
3.006,-2.46,0.91,-0.52,-3.00,-1.13,1.19,
3.008,-2.46,0.91,-0.52,-2.97,-1.12,1.23,
3.009,-2.46,0.91,-0.52,-2.95,-1.10,1.27,
3.012,-2.46,0.91,-0.52,-2.92,-1.09,1.31,
3.013,-2.46,0.91,-0.52,-2.89,-1.07,1.35,
3.016,-2.22,1.14,0.03,-2.89,-1.07,1.35,
3.016,-2.22,1.14,0.03,-2.86,-1.06,1.38,
3.017,-2.22,1.14,0.03,-2.83,-1.04,1.42,
3.02,-2.22,1.14,0.03,-2.80,-1.01,1.45,
3.022,-2.22,1.14,0.03,-2.76,-0.99,1.48,
3.023,-2.22,1.14,0.03,-2.73,-0.97,1.51,
3.026,-1.87,1.25,0.67,-2.73,-0.97,1.51,
3.027,-1.87,1.25,0.67,-2.68,-0.94,1.53,
3.028,-1.87,1.25,0.67,-2.64,-0.92,1.56,
3.03,-1.87,1.25,0.67,-2.60,-0.90,1.58,
3.032,-1.87,1.25,0.67,-2.55,-0.87,1.59,
3.034,-1.87,1.25,0.67,-2.51,-0.85,1.61,
3.036,-1.28,1.23,1.43,-2.51,-0.85,1.61,
3.036,-1.28,1.23,1.43,-2.45,-0.82,1.62,
3.037,-1.28,1.23,1.43,-2.40,-0.78,1.63,
3.04,-1.28,1.23,1.43,-2.35,-0.75,1.64,
3.042,-1.28,1.23,1.43,-2.30,-0.71,1.64,
3.044,-1.28,1.23,1.43,-2.25,-0.66,1.63,
3.046,-0.44,1.04,2.24,-2.25,-0.66,1.63,
3.046,-0.44,1.04,2.24,-2.20,-0.61,1.62,
3.048,-0.44,1.04,2.24,-2.14,-0.55,1.60,
3.05,-0.44,1.04,2.24,-2.09,-0.49,1.58,
3.052,-0.44,1.04,2.24,-2.05,-0.42,1.55,
3.054,-0.44,1.04,2.24,-2.00,-0.36,1.52,
3.056,0.71,0.77,2.69,-2.00,-0.36,1.52,
3.056,0.71,0.77,2.69,-1.96,-0.28,1.48,
3.058,0.71,0.77,2.69,-1.91,-0.21,1.44,
3.061,0.71,0.77,2.69,-1.87,-0.13,1.38,
3.062,0.71,0.77,2.69,-1.83,-0.05,1.33,
3.064,0.71,0.77,2.69,-1.80,0.03,1.27,
3.067,2.26,0.55,2.68,-1.80,0.03,1.27,
3.068,2.26,0.55,2.68,-1.76,0.10,1.21,
3.068,2.26,0.55,2.68,-1.73,0.18,1.14,
3.071,2.26,0.55,2.68,-1.70,0.26,1.07,
3.072,2.26,0.55,2.68,-1.67,0.33,1.00,
3.075,2.26,0.55,2.68,-1.64,0.41,0.93,
3.078,3.51,0.31,2.46,-1.64,0.41,0.93,
3.079,3.51,0.31,2.46,-1.61,0.48,0.86,
3.08,3.51,0.31,2.46,-1.58,0.55,0.79,
3.081,3.51,0.31,2.46,-1.55,0.62,0.73,
3.084,3.51,0.31,2.46,-1.52,0.67,0.66,
3.085,3.51,0.31,2.46,-1.49,0.72,0.59,
3.086,4.51,-0.28,2.46,-1.49,0.72,0.59,
3.086,4.51,-0.28,2.46,-1.46,0.76,0.52,
3.088,4.51,-0.28,2.46,-1.43,0.80,0.46,
3.09,4.51,-0.28,2.46,-1.40,0.84,0.39,
3.092,4.51,-0.28,2.46,-1.37,0.86,0.32,
3.094,4.51,-0.28,2.46,-1.35,0.88,0.26,
3.097,5.23,-0.79,2.71,-1.35,0.88,0.26,
3.097,5.23,-0.79,2.71,-1.33,0.88,0.20,
3.098,5.23,-0.79,2.71,-1.31,0.88,0.13,
3.1,5.23,-0.79,2.71,-1.30,0.87,0.07,
3.102,5.23,-0.79,2.71,-1.29,0.85,0.00,
3.131,5.23,-0.79,2.71,-1.28,0.83,-0.06,
3.131,5.99,-1.34,2.77,-1.28,0.83,-0.06,
3.131,5.99,-1.34,2.77,-1.27,0.82,-0.12,
3.132,5.99,-1.34,2.77,-1.27,0.81,-0.18,
3.132,5.99,-1.34,2.77,-1.26,0.80,-0.23,
3.132,5.99,-1.34,2.77,-1.26,0.79,-0.29,
3.132,5.99,-1.34,2.77,-1.26,0.79,-0.34,
3.133,5.96,-1.67,2.69,-1.26,0.79,-0.34,
3.133,5.96,-1.67,2.69,-1.26,0.78,-0.39,
3.133,5.96,-1.67,2.69,-1.26,0.77,-0.44,
3.134,5.96,-1.67,2.69,-1.26,0.77,-0.48,
3.134,5.96,-1.67,2.69,-1.26,0.76,-0.52,
3.134,5.96,-1.67,2.69,-1.26,0.76,-0.56,
3.134,6.14,-1.74,2.58,-1.26,0.76,-0.56,
3.135,6.14,-1.74,2.58,-1.26,0.75,-0.60,
3.135,6.14,-1.74,2.58,-1.26,0.75,-0.64,
3.135,6.14,-1.74,2.58,-1.26,0.76,-0.67,
3.135,6.14,-1.74,2.58,-1.26,0.77,-0.70,
3.136,6.14,-1.74,2.58,-1.26,0.78,-0.73,
3.136,5.94,-1.54,2.46,-1.26,0.78,-0.73,
3.136,5.94,-1.54,2.46,-1.26,0.79,-0.76,
3.142,5.94,-1.54,2.46,-1.26,0.80,-0.78,
3.142,5.94,-1.54,2.46,-1.25,0.80,-0.79,
3.143,5.94,-1.54,2.46,-1.24,0.82,-0.80,
3.144,5.94,-1.54,2.46,-1.23,0.82,-0.81,
3.146,5.43,-1.42,2.61,-1.23,0.82,-0.81,
3.147,5.43,-1.42,2.61,-1.20,0.82,-0.80,
3.148,5.43,-1.42,2.61,-1.18,0.82,-0.80,
3.149,5.43,-1.42,2.61,-1.16,0.81,-0.78,
3.151,5.43,-1.42,2.61,-1.13,0.79,-0.76,
3.153,5.43,-1.42,2.61,-1.10,0.78,-0.75,
3.156,4.51,-1.23,3.15,-1.10,0.78,-0.75,
3.156,4.51,-1.23,3.15,-1.06,0.76,-0.73,
3.159,4.51,-1.23,3.15,-1.02,0.75,-0.70,
3.16,4.51,-1.23,3.15,-0.98,0.74,-0.68,
3.166,4.51,-1.23,3.15,-0.93,0.73,-0.65,
3.166,4.51,-1.23,3.15,-0.90,0.72,-0.62,
3.166,4.06,-1.46,3.40,-0.90,0.72,-0.62,
3.167,4.06,-1.46,3.40,-0.86,0.72,-0.58,
3.167,4.06,-1.46,3.40,-0.83,0.71,-0.55,
3.17,4.06,-1.46,3.40,-0.79,0.72,-0.50,
3.172,4.06,-1.46,3.40,-0.76,0.72,-0.46,
3.174,4.06,-1.46,3.40,-0.73,0.74,-0.42,
3.184,3.27,-1.88,2.98,-0.73,0.74,-0.42,
3.185,3.27,-1.88,2.98,-0.71,0.76,-0.37,
3.185,3.27,-1.88,2.98,-0.69,0.78,-0.33,
3.185,3.27,-1.88,2.98,-0.67,0.81,-0.28,
3.185,3.27,-1.88,2.98,-0.66,0.85,-0.24,
3.186,3.27,-1.88,2.98,-0.65,0.89,-0.19,
3.186,2.80,-2.50,2.23,-0.65,0.89,-0.19,
3.186,2.80,-2.50,2.23,-0.64,0.93,-0.15,
3.188,2.80,-2.50,2.23,-0.64,0.99,-0.12,
3.248,2.80,-2.50,2.23,-0.64,1.05,-0.08,
3.25,2.80,-2.50,2.23,-0.65,1.10,-0.06,
3.251,2.80,-2.50,2.23,-0.66,1.16,-0.04,
3.251,2.16,-3.07,1.34,-0.66,1.16,-0.04,
3.252,2.16,-3.07,1.34,-0.67,1.21,-0.02,
3.252,2.16,-3.07,1.34,-0.70,1.26,-0.01,
3.252,2.16,-3.07,1.34,-0.73,1.30,-0.01,
3.253,2.16,-3.07,1.34,-0.76,1.35,-0.00,
3.253,2.16,-3.07,1.34,-0.79,1.39,-0.01,
3.254,1.64,-3.43,0.38,-0.79,1.39,-0.01,
3.254,1.64,-3.43,0.38,-0.83,1.43,-0.02,
3.255,1.64,-3.43,0.38,-0.87,1.47,-0.03,
3.255,1.64,-3.43,0.38,-0.90,1.52,-0.05,
3.255,1.64,-3.43,0.38,-0.94,1.55,-0.07,
3.256,1.64,-3.43,0.38,-0.98,1.60,-0.08,
3.257,1.12,-3.64,-0.10,-0.98,1.60,-0.08,
3.257,1.12,-3.64,-0.10,-1.01,1.63,-0.10,
3.257,1.12,-3.64,-0.10,-1.05,1.67,-0.13,
3.258,1.12,-3.64,-0.10,-1.08,1.71,-0.15,
3.258,1.12,-3.64,-0.10,-1.12,1.74,-0.16,
3.259,1.12,-3.64,-0.10,-1.15,1.76,-0.18,
3.26,0.32,-3.80,-0.15,-1.15,1.76,-0.18,
3.26,0.32,-3.80,-0.15,-1.19,1.78,-0.19,
3.26,0.32,-3.80,-0.15,-1.22,1.80,-0.20,
3.261,0.32,-3.80,-0.15,-1.25,1.81,-0.21,
3.261,0.32,-3.80,-0.15,-1.28,1.81,-0.21,
3.261,0.32,-3.80,-0.15,-1.31,1.82,-0.21,
3.262,-0.84,-3.92,0.18,-1.31,1.82,-0.21,
3.262,-0.84,-3.92,0.18,-1.34,1.81,-0.20,
3.263,-0.84,-3.92,0.18,-1.36,1.80,-0.19,
3.263,-0.84,-3.92,0.18,-1.38,1.79,-0.17,
3.263,-0.84,-3.92,0.18,-1.41,1.76,-0.15,
3.264,-0.84,-3.92,0.18,-1.43,1.73,-0.13,
3.264,-2.31,-4.19,0.91,-1.43,1.73,-0.13,
3.264,-2.31,-4.19,0.91,-1.45,1.70,-0.10,
3.265,-2.31,-4.19,0.91,-1.46,1.67,-0.07,
3.265,-2.31,-4.19,0.91,-1.48,1.64,-0.04,
3.265,-2.31,-4.19,0.91,-1.48,1.61,-0.01,
3.266,-2.31,-4.19,0.91,-1.48,1.59,0.03,
3.266,-3.96,-4.60,2.38,-1.48,1.59,0.03,
3.267,-3.96,-4.60,2.38,-1.48,1.57,0.07,
3.267,-3.96,-4.60,2.38,-1.46,1.55,0.12,
3.267,-3.96,-4.60,2.38,-1.44,1.53,0.17,
3.267,-3.96,-4.60,2.38,-1.41,1.51,0.22,
3.267,-3.96,-4.60,2.38,-1.37,1.49,0.28,
3.268,-5.82,-5.03,4.86,-1.37,1.49,0.28,
3.268,-5.82,-5.03,4.86,-1.33,1.46,0.34,
3.268,-5.82,-5.03,4.86,-1.27,1.42,0.39,
3.286,-5.82,-5.03,4.86,-1.20,1.38,0.44,
3.286,-5.82,-5.03,4.86,-1.12,1.33,0.49,
3.286,-5.82,-5.03,4.86,-1.03,1.28,0.53,
3.287,-6.82,-5.07,8.28,-1.03,1.28,0.53,
3.287,-6.82,-5.07,8.28,-0.92,1.22,0.57,
3.287,-6.82,-5.07,8.28,-0.79,1.14,0.61,
3.287,-6.82,-5.07,8.28,-0.66,1.05,0.64,
3.288,-6.82,-5.07,8.28,-0.51,0.93,0.66,
3.288,-6.82,-5.07,8.28,-0.36,0.80,0.68,
3.288,-6.87,-4.34,12.04,-0.36,0.80,0.68,
3.288,-6.87,-4.34,12.04,-0.19,0.64,0.69,
3.288,-6.87,-4.34,12.04,-0.02,0.45,0.70,
3.295,-6.87,-4.34,12.04,0.16,0.24,0.70,
3.295,-6.87,-4.34,12.04,0.34,-0.00,0.70,
3.297,-6.87,-4.34,12.04,0.69,-0.56,0.70,
3.297,-6.87,-4.34,12.04,0.69,-0.56,0.70,
3.298,-5.92,-3.38,13.50,0.69,-0.56,0.70,
3.299,-5.92,-3.38,13.50,0.87,-0.88,0.70,
3.3,-5.92,-3.38,13.50,1.13,-1.37,0.70,
3.301,-5.92,-3.38,13.50,1.22,-1.54,0.70,
3.304,-5.92,-3.38,13.50,1.39,-1.90,0.71,
3.306,-5.63,-2.74,12.71,1.39,-1.90,0.71,
3.306,-5.63,-2.74,12.71,1.55,-2.25,0.72,
3.312,-5.63,-2.74,12.71,1.71,-2.60,0.73,
3.313,-5.63,-2.74,12.71,1.86,-2.95,0.75,
3.313,-5.63,-2.74,12.71,2.01,-3.28,0.77,
3.314,-5.63,-2.74,12.71,2.15,-3.59,0.79,
3.316,-5.51,-2.31,10.30,2.15,-3.59,0.79,
3.316,-5.51,-2.31,10.30,2.28,-3.86,0.82,
3.317,-5.51,-2.31,10.30,2.42,-4.10,0.85,
3.32,-5.51,-2.31,10.30,2.54,-4.29,0.88,
3.322,-5.51,-2.31,10.30,2.67,-4.45,0.92,
3.35,-5.51,-2.31,10.30,2.78,-4.57,0.95,
3.35,-5.95,-2.71,8.00,2.78,-4.57,0.95,
3.35,-5.95,-2.71,8.00,2.90,-4.64,0.98,
3.35,-5.95,-2.71,8.00,3.01,-4.67,1.01,
3.351,-5.95,-2.71,8.00,3.12,-4.65,1.04,
3.351,-5.95,-2.71,8.00,3.23,-4.59,1.06,
3.351,-5.95,-2.71,8.00,3.33,-4.49,1.06,
3.351,-5.71,-3.96,6.20,3.33,-4.49,1.06,
3.351,-5.71,-3.96,6.20,3.42,-4.35,1.06,
3.351,-5.71,-3.96,6.20,3.50,-4.17,1.04,
3.351,-5.71,-3.96,6.20,3.58,-3.96,1.02,
3.352,-5.71,-3.96,6.20,3.66,-3.73,0.99,
3.352,-5.71,-3.96,6.20,3.74,-3.46,0.95,
3.352,-4.81,-5.56,5.21,3.74,-3.46,0.95,
3.352,-4.81,-5.56,5.21,3.81,-3.17,0.91,
3.352,-4.81,-5.56,5.21,3.87,-2.86,0.87,
3.352,-4.81,-5.56,5.21,3.93,-2.54,0.83,
3.353,-4.81,-5.56,5.21,3.98,-2.21,0.79,
3.354,-4.81,-5.56,5.21,4.03,-1.89,0.75,
3.361,-4.18,-6.71,4.69,4.03,-1.89,0.75,
3.363,-4.18,-6.71,4.69,4.08,-1.57,0.71,
3.363,-4.18,-6.71,4.69,4.13,-1.28,0.68,
3.364,-4.18,-6.71,4.69,4.17,-1.02,0.65,
3.364,-4.18,-6.71,4.69,4.21,-0.80,0.62,
3.368,-4.18,-6.71,4.69,4.24,-0.61,0.58,
3.37,-3.03,-7.11,4.15,4.24,-0.61,0.58,
3.371,-3.03,-7.11,4.15,4.26,-0.45,0.53,
3.371,-3.03,-7.11,4.15,4.28,-0.34,0.48,
3.372,-3.03,-7.11,4.15,4.27,-0.26,0.42,
3.372,-3.03,-7.11,4.15,4.26,-0.23,0.34,
3.378,-3.03,-7.11,4.15,4.24,-0.22,0.26,
3.378,0.10,-7.47,1.80,4.24,-0.22,0.26,
3.379,0.10,-7.47,1.80,4.20,-0.26,0.18,
3.379,0.10,-7.47,1.80,4.15,-0.34,0.09,
3.38,0.10,-7.47,1.80,4.08,-0.45,-0.01,
3.382,0.10,-7.47,1.80,3.99,-0.59,-0.10,
3.384,0.10,-7.47,1.80,3.89,-0.77,-0.19,
3.386,2.86,-7.80,-2.54,3.89,-0.77,-0.19,
3.387,2.86,-7.80,-2.54,3.76,-0.96,-0.28,
3.388,2.86,-7.80,-2.54,3.62,-1.18,-0.36,
3.39,2.86,-7.80,-2.54,3.45,-1.41,-0.45,
3.392,2.86,-7.80,-2.54,3.26,-1.66,-0.53,
3.394,2.86,-7.80,-2.54,3.06,-1.91,-0.60,
3.396,3.92,-7.78,-8.27,3.06,-1.91,-0.60,
3.397,3.92,-7.78,-8.27,2.84,-2.17,-0.66,
3.398,3.92,-7.78,-8.27,2.60,-2.43,-0.71,
3.4,3.92,-7.78,-8.27,2.36,-2.70,-0.73,
3.402,3.92,-7.78,-8.27,2.10,-2.97,-0.73,
3.404,3.92,-7.78,-8.27,1.83,-3.24,-0.71,
3.419,2.09,-8.18,-14.01,1.83,-3.24,-0.71,
3.42,2.09,-8.18,-14.01,1.55,-3.51,-0.67,
3.42,2.09,-8.18,-14.01,1.27,-3.79,-0.63,
3.42,2.09,-8.18,-14.01,0.99,-4.06,-0.59,
3.42,2.09,-8.18,-14.01,0.71,-4.33,-0.55,
3.421,2.09,-8.18,-14.01,0.45,-4.58,-0.52,
3.421,0.44,-7.73,-17.10,0.45,-4.58,-0.52,
3.422,0.44,-7.73,-17.10,0.21,-4.82,-0.50,
3.422,0.44,-7.73,-17.10,-0.00,-5.03,-0.50,
3.422,0.44,-7.73,-17.10,-0.19,-5.21,-0.51,
3.464,0.44,-7.73,-17.10,-0.36,-5.36,-0.53,
3.464,0.44,-7.73,-17.10,-0.51,-5.49,-0.57,
3.465,0.99,-6.35,-16.22,-0.51,-5.49,-0.57,
3.465,0.99,-6.35,-16.22,-0.62,-5.59,-0.62,
3.465,0.99,-6.35,-16.22,-0.71,-5.66,-0.68,
3.466,0.99,-6.35,-16.22,-0.77,-5.70,-0.75,
3.466,0.99,-6.35,-16.22,-0.82,-5.72,-0.82,
3.466,0.99,-6.35,-16.22,-0.84,-5.72,-0.90,
3.467,1.08,-5.30,-12.55,-0.84,-5.72,-0.90,
3.496,1.08,-5.30,-12.55,-0.84,-5.69,-0.98,
3.496,1.08,-5.30,-12.55,-0.81,-5.64,-1.07,
3.497,1.08,-5.30,-12.55,-0.77,-5.56,-1.15,
3.497,1.08,-5.30,-12.55,-0.70,-5.46,-1.24,
3.497,1.08,-5.30,-12.55,-0.59,-5.31,-1.32,
3.498,0.31,-5.27,-8.12,-0.59,-5.31,-1.32,
3.498,0.31,-5.27,-8.12,-0.45,-5.14,-1.41,
3.499,0.31,-5.27,-8.12,-0.26,-4.93,-1.48,
3.499,0.31,-5.27,-8.12,-0.05,-4.69,-1.56,
3.5,0.31,-5.27,-8.12,0.20,-4.39,-1.63,
3.5,0.31,-5.27,-8.12,0.48,-4.05,-1.70,
3.501,-1.19,-6.05,-1.27,0.48,-4.05,-1.70,
3.501,-1.19,-6.05,-1.27,0.79,-3.67,-1.78,
3.501,-1.19,-6.05,-1.27,1.13,-3.27,-1.87,
3.502,-1.19,-6.05,-1.27,1.50,-2.88,-1.95,
3.502,-1.19,-6.05,-1.27,1.88,-2.50,-2.03,
3.503,-1.19,-6.05,-1.27,2.27,-2.14,-2.11,
3.503,-1.74,-8.50,4.67,2.27,-2.14,-2.11,
3.504,-1.74,-8.50,4.67,2.65,-1.80,-2.18,
3.504,-1.74,-8.50,4.67,3.02,-1.46,-2.25,
3.505,-1.74,-8.50,4.67,3.37,-1.14,-2.30,
3.505,-1.74,-8.50,4.67,3.68,-0.85,-2.35,
3.505,-1.74,-8.50,4.67,3.97,-0.57,-2.39,
3.506,-2.28,-10.79,4.92,3.97,-0.57,-2.39,
3.506,-2.28,-10.79,4.92,4.23,-0.30,-2.41,
3.507,-2.28,-10.79,4.92,4.46,-0.02,-2.43,
3.507,-2.28,-10.79,4.92,4.65,0.29,-2.44,
3.508,-2.28,-10.79,4.92,4.80,0.63,-2.44,
3.508,-2.28,-10.79,4.92,4.92,0.97,-2.44,
3.509,-2.75,-11.01,1.95,4.92,0.97,-2.44,
3.509,-2.75,-11.01,1.95,5.01,1.29,-2.42,
3.51,-2.75,-11.01,1.95,5.08,1.58,-2.40,
3.51,-2.75,-11.01,1.95,5.12,1.84,-2.37,
3.511,-2.75,-11.01,1.95,5.15,2.08,-2.34,
3.511,-2.75,-11.01,1.95,5.17,2.27,-2.32,
3.511,-3.67,-10.09,-0.78,5.17,2.27,-2.32,
3.512,-3.67,-10.09,-0.78,5.18,2.43,-2.28,
3.512,-3.67,-10.09,-0.78,5.17,2.54,-2.24,
3.513,-3.67,-10.09,-0.78,5.15,2.62,-2.20,
3.513,-3.67,-10.09,-0.78,5.12,2.67,-2.16,
3.514,-3.67,-10.09,-0.78,5.08,2.68,-2.12,
3.514,-4.25,-8.84,-2.93,5.08,2.68,-2.12,
3.514,-4.25,-8.84,-2.93,5.03,2.65,-2.07,
3.524,-4.25,-8.84,-2.93,4.95,2.59,-2.02,
3.525,-4.25,-8.84,-2.93,4.89,2.53,-1.98,
3.525,-4.25,-8.84,-2.93,4.86,2.50,-1.96,
3.525,-4.25,-8.84,-2.93,4.79,2.43,-1.92,
3.525,-4.04,-6.91,-3.62,4.79,2.43,-1.92,
3.526,-4.04,-6.91,-3.62,4.72,2.36,-1.88,
3.526,-4.04,-6.91,-3.62,4.63,2.28,-1.84,
3.526,-4.04,-6.91,-3.62,4.55,2.21,-1.80,
3.526,-4.04,-6.91,-3.62,4.46,2.15,-1.76,
3.527,-4.04,-6.91,-3.62,4.36,2.09,-1.72,
3.527,-4.16,-4.11,-4.61,4.36,2.09,-1.72,
3.527,-4.16,-4.11,-4.61,4.27,2.04,-1.68,
3.528,-4.16,-4.11,-4.61,4.17,1.99,-1.64,
3.532,-4.16,-4.11,-4.61,4.08,1.95,-1.59,
3.532,-4.16,-4.11,-4.61,3.98,1.91,-1.55,
3.534,-4.16,-4.11,-4.61,3.89,1.89,-1.51,
3.537,-4.08,-1.24,-6.01,3.89,1.89,-1.51,
3.537,-4.08,-1.24,-6.01,3.81,1.87,-1.48,
3.539,-4.08,-1.24,-6.01,3.73,1.86,-1.44,
3.541,-4.08,-1.24,-6.01,3.66,1.86,-1.41,
3.542,-4.08,-1.24,-6.01,3.60,1.85,-1.37,
3.545,-4.08,-1.24,-6.01,3.55,1.83,-1.33,
3.547,-4.37,1.39,-7.13,3.55,1.83,-1.33,
3.547,-4.37,1.39,-7.13,3.51,1.81,-1.29,
3.548,-4.37,1.39,-7.13,3.48,1.78,-1.24,
3.549,-4.37,1.39,-7.13,3.45,1.73,-1.19,
3.551,-4.37,1.39,-7.13,3.44,1.67,-1.14,
3.553,-4.37,1.39,-7.13,3.43,1.60,-1.08,
3.566,-4.62,3.66,-8.23,3.43,1.60,-1.08,
3.567,-4.62,3.66,-8.23,3.42,1.53,-1.03,
3.567,-4.62,3.66,-8.23,3.41,1.45,-0.98,
3.568,-4.62,3.66,-8.23,3.42,1.37,-0.92,
3.568,-4.62,3.66,-8.23,3.42,1.30,-0.87,
3.568,-4.62,3.66,-8.23,3.43,1.23,-0.82,
3.568,-4.61,5.47,-9.60,3.43,1.23,-0.82,
3.569,-4.61,5.47,-9.60,3.44,1.16,-0.77,
3.569,-4.61,5.47,-9.60,3.45,1.11,-0.73,
3.57,-4.61,5.47,-9.60,3.46,1.08,-0.69,
3.598,-4.61,5.47,-9.60,3.47,1.06,-0.65,
3.598,-4.61,5.47,-9.60,3.47,1.07,-0.62,
3.599,-3.40,6.86,-10.50,3.47,1.07,-0.62,
3.599,-3.40,6.86,-10.50,3.47,1.12,-0.58,
3.599,-3.40,6.86,-10.50,3.45,1.19,-0.55,
3.6,-3.40,6.86,-10.50,3.42,1.29,-0.51,
3.6,-3.40,6.86,-10.50,3.39,1.39,-0.47,
3.6,-3.40,6.86,-10.50,3.35,1.51,-0.42,
3.6,-2.29,8.19,-11.00,3.35,1.51,-0.42,
3.601,-2.29,8.19,-11.00,3.30,1.64,-0.37,
3.601,-2.29,8.19,-11.00,3.24,1.78,-0.33,
3.601,-2.29,8.19,-11.00,3.18,1.92,-0.28,
3.601,-2.29,8.19,-11.00,3.12,2.04,-0.23,
3.601,-2.29,8.19,-11.00,3.04,2.15,-0.17,
3.602,-0.33,9.01,-10.41,3.04,2.15,-0.17,
3.602,-0.33,9.01,-10.41,2.97,2.23,-0.11,
3.602,-0.33,9.01,-10.41,2.89,2.28,-0.05,
3.603,-0.33,9.01,-10.41,2.80,2.30,0.00,
3.603,-0.33,9.01,-10.41,2.72,2.28,0.07,
3.621,-0.33,9.01,-10.41,2.63,2.23,0.14,
3.621,1.68,9.48,-9.47,2.63,2.23,0.14,
3.622,1.68,9.48,-9.47,2.54,2.15,0.21,
3.622,1.68,9.48,-9.47,2.44,2.03,0.29,
3.622,1.68,9.48,-9.47,2.33,1.90,0.37,
3.622,1.68,9.48,-9.47,2.23,1.77,0.45,
3.623,1.68,9.48,-9.47,2.12,1.62,0.53,
3.623,3.31,9.13,-9.66,2.12,1.62,0.53,
3.623,3.31,9.13,-9.66,2.01,1.46,0.60,
3.623,3.31,9.13,-9.66,1.90,1.33,0.69,
3.623,3.31,9.13,-9.66,1.79,1.20,0.77,
3.624,3.31,9.13,-9.66,1.67,1.09,0.84,
3.624,3.31,9.13,-9.66,1.55,1.00,0.92,
3.63,4.28,9.05,-9.98,1.55,1.00,0.92,
3.63,4.28,9.05,-9.98,1.43,0.96,0.99,
3.631,4.28,9.05,-9.98,1.31,0.94,1.05,
3.631,4.28,9.05,-9.98,1.21,0.94,1.09,
3.631,4.28,9.05,-9.98,1.10,0.97,1.13,
3.634,4.28,9.05,-9.98,0.99,1.00,1.16,
3.636,5.05,9.01,-9.25,0.99,1.00,1.16,
3.636,5.05,9.01,-9.25,0.90,1.04,1.16,
3.65,5.05,9.01,-9.25,0.81,1.07,1.14,
3.65,5.05,9.01,-9.25,0.73,1.09,1.12,
3.65,5.05,9.01,-9.25,0.67,1.09,1.08,
3.65,5.05,9.01,-9.25,0.61,1.08,1.04,
3.65,5.52,9.08,-6.86,0.61,1.08,1.04,
3.651,5.52,9.08,-6.86,0.56,1.06,0.99,
3.651,5.52,9.08,-6.86,0.52,1.02,0.94,
3.651,5.52,9.08,-6.86,0.48,0.98,0.88,
3.652,5.52,9.08,-6.86,0.43,0.93,0.82,
3.656,5.52,9.08,-6.86,0.38,0.87,0.77,
3.657,4.78,8.05,-5.43,0.38,0.87,0.77,
3.657,4.78,8.05,-5.43,0.33,0.82,0.71,
3.658,4.78,8.05,-5.43,0.27,0.76,0.66,
3.66,4.78,8.05,-5.43,0.21,0.70,0.62,
3.662,4.78,8.05,-5.43,0.14,0.64,0.58,
3.664,4.78,8.05,-5.43,0.06,0.57,0.53,
3.667,3.78,6.22,-5.35,0.06,0.57,0.53,
3.667,3.78,6.22,-5.35,-0.01,0.50,0.49,
3.667,3.78,6.22,-5.35,-0.09,0.42,0.44,
3.669,3.78,6.22,-5.35,-0.17,0.35,0.38,
3.676,3.78,6.22,-5.35,-0.25,0.27,0.31,
3.677,3.78,6.22,-5.35,-0.33,0.20,0.24,
3.677,4.11,4.02,-6.33,-0.33,0.20,0.24,
3.677,4.11,4.02,-6.33,-0.41,0.14,0.15,
3.677,4.11,4.02,-6.33,-0.49,0.08,0.07,
3.68,4.11,4.02,-6.33,-0.57,0.02,-0.02,
3.686,4.11,4.02,-6.33,-0.64,-0.03,-0.11,
3.687,4.11,4.02,-6.33,-0.72,-0.08,-0.20,
3.706,4.73,3.17,-6.99,-0.72,-0.08,-0.20,
3.707,4.73,3.17,-6.99,-0.80,-0.12,-0.29,
3.707,4.73,3.17,-6.99,-0.87,-0.15,-0.37,
3.707,4.73,3.17,-6.99,-0.95,-0.18,-0.45,
3.707,4.73,3.17,-6.99,-1.02,-0.20,-0.53,
3.708,4.73,3.17,-6.99,-1.09,-0.21,-0.60,
3.708,3.86,2.90,-7.10,-1.09,-0.21,-0.60,
3.708,3.86,2.90,-7.10,-1.15,-0.23,-0.67,
3.708,3.86,2.90,-7.10,-1.21,-0.25,-0.73,
3.708,3.86,2.90,-7.10,-1.26,-0.27,-0.78,
3.708,3.86,2.90,-7.10,-1.31,-0.30,-0.83,
3.709,3.86,2.90,-7.10,-1.34,-0.34,-0.87,
3.709,2.51,2.86,-6.20,-1.34,-0.34,-0.87,
3.709,2.51,2.86,-6.20,-1.36,-0.38,-0.90,
3.711,2.51,2.86,-6.20,-1.36,-0.44,-0.93,
3.711,2.51,2.86,-6.20,-1.35,-0.50,-0.95,
3.712,2.51,2.86,-6.20,-1.33,-0.56,-0.96,
3.714,2.51,2.86,-6.20,-1.30,-0.63,-0.96,
3.716,0.31,3.07,-2.50,-1.30,-0.63,-0.96,
3.717,0.31,3.07,-2.50,-1.25,-0.68,-0.95,
3.718,0.31,3.07,-2.50,-1.19,-0.75,-0.94,
3.72,0.31,3.07,-2.50,-1.11,-0.81,-0.91,
3.722,0.31,3.07,-2.50,-1.01,-0.88,-0.88,
3.724,0.31,3.07,-2.50,-0.89,-0.96,-0.84,
3.726,-2.36,3.28,5.07,-0.89,-0.96,-0.84,
3.727,-2.36,3.28,5.07,-0.76,-1.02,-0.81,
3.728,-2.36,3.28,5.07,-0.62,-1.05,-0.77,
3.73,-2.36,3.28,5.07,-0.51,-1.05,-0.72,
3.735,-2.36,3.28,5.07,-0.42,-1.00,-0.69,
3.738,-2.36,3.28,5.07,-0.38,-0.89,-0.65,
3.739,-3.54,1.28,11.27,-0.38,-0.89,-0.65,
3.739,-3.54,1.28,11.27,-0.37,-0.75,-0.61,
3.74,-3.54,1.28,11.27,-0.41,-0.55,-0.56,
3.742,-3.54,1.28,11.27,-0.50,-0.31,-0.52,
3.742,-3.54,1.28,11.27,-0.64,-0.04,-0.48,
3.744,-3.54,1.28,11.27,-0.83,0.26,-0.44,
3.747,-2.27,-2.56,8.41,-0.83,0.26,-0.44,
3.748,-2.27,-2.56,8.41,-1.05,0.58,-0.40,
3.748,-2.27,-2.56,8.41,-1.32,0.90,-0.36,
3.75,-2.27,-2.56,8.41,-1.62,1.17,-0.33,
3.752,-2.27,-2.56,8.41,-1.94,1.36,-0.29,
3.755,-2.27,-2.56,8.41,-2.26,1.45,-0.26,
3.758,-0.12,-6.06,1.14,-2.26,1.45,-0.26,
3.758,-0.12,-6.06,1.14,-2.58,1.43,-0.24,
3.758,-0.12,-6.06,1.14,-2.89,1.28,-0.22,
3.76,-0.12,-6.06,1.14,-3.16,1.00,-0.19,
3.762,-0.12,-6.06,1.14,-3.41,0.60,-0.16,
3.764,-0.12,-6.06,1.14,-3.60,0.12,-0.11,
3.771,1.12,-8.69,-4.50,-3.60,0.12,-0.11,
3.772,1.12,-8.69,-4.50,-3.76,-0.42,-0.06,
3.772,1.12,-8.69,-4.50,-3.88,-1.00,0.01,
3.787,1.12,-8.69,-4.50,-3.99,-1.82,0.14,
3.788,1.12,-8.69,-4.50,-4.01,-2.07,0.19,
3.788,1.12,-8.69,-4.50,-4.02,-2.51,0.29,
3.788,-0.05,-9.08,-8.89,-4.02,-2.51,0.29,
3.788,-0.05,-9.08,-8.89,-4.00,-2.85,0.39,
3.788,-0.05,-9.08,-8.89,-3.95,-3.09,0.49,
3.789,-0.05,-9.08,-8.89,-3.87,-3.24,0.58,
3.789,-0.05,-9.08,-8.89,-3.77,-3.31,0.66,
3.789,-0.05,-9.08,-8.89,-3.65,-3.30,0.73,
3.789,-1.57,-7.93,-9.87,-3.65,-3.30,0.73,
3.789,-1.57,-7.93,-9.87,-3.52,-3.24,0.77,
3.789,-1.57,-7.93,-9.87,-3.37,-3.14,0.80,
3.793,-1.57,-7.93,-9.87,-3.22,-3.01,0.81,
3.796,-1.57,-7.93,-9.87,-2.89,-2.68,0.76,
3.797,-1.57,-7.93,-9.87,-2.89,-2.68,0.76,
3.798,-1.57,-7.93,-9.87,-2.73,-2.48,0.70,
3.798,-1.61,-6.63,-5.18,-2.73,-2.48,0.70,
3.798,-1.61,-6.63,-5.18,-2.57,-2.27,0.64,
3.801,-1.61,-6.63,-5.18,-2.43,-2.03,0.56,
3.802,-1.61,-6.63,-5.18,-2.31,-1.77,0.47,
3.804,-1.61,-6.63,-5.18,-2.21,-1.49,0.38,
3.808,-0.95,-6.42,-1.39,-2.21,-1.49,0.38,
3.808,-0.95,-6.42,-1.39,-2.13,-1.20,0.28,
3.808,-0.95,-6.42,-1.39,-2.07,-0.92,0.18,
3.81,-0.95,-6.42,-1.39,-2.04,-0.67,0.08,
3.812,-0.95,-6.42,-1.39,-2.04,-0.45,-0.01,
3.814,-0.95,-6.42,-1.39,-2.05,-0.27,-0.11,
3.816,0.28,-6.30,-1.88,-2.05,-0.27,-0.11,
3.816,0.28,-6.30,-1.88,-2.08,-0.14,-0.20,
3.818,0.28,-6.30,-1.88,-2.12,-0.04,-0.29,
3.826,0.28,-6.30,-1.88,-2.19,0.06,-0.38,
3.826,0.28,-6.30,-1.88,-2.27,0.14,-0.46,
3.826,0.28,-6.30,-1.88,-2.35,0.21,-0.53,
3.826,1.22,-5.94,-4.50,-2.35,0.21,-0.53,
3.827,1.22,-5.94,-4.50,-2.43,0.26,-0.59,
3.828,1.22,-5.94,-4.50,-2.50,0.29,-0.65,
3.83,1.22,-5.94,-4.50,-2.56,0.31,-0.69,
3.835,1.22,-5.94,-4.50,-2.60,0.31,-0.72,
3.835,1.22,-5.94,-4.50,-2.62,0.29,-0.73,
3.859,0.60,-4.90,-3.93,-2.62,0.29,-0.73,
3.859,0.60,-4.90,-3.93,-2.63,0.25,-0.73,
3.859,0.60,-4.90,-3.93,-2.63,0.20,-0.72,
3.86,0.60,-4.90,-3.93,-2.61,0.15,-0.70,
3.86,0.60,-4.90,-3.93,-2.59,0.08,-0.67,
3.86,0.60,-4.90,-3.93,-2.57,0.02,-0.63,
3.86,-0.55,-3.99,-2.78,-2.57,0.02,-0.63,
3.86,-0.55,-3.99,-2.78,-2.55,-0.04,-0.59,
3.86,-0.55,-3.99,-2.78,-2.53,-0.10,-0.55,
3.86,-0.55,-3.99,-2.78,-2.51,-0.16,-0.50,
3.861,-0.55,-3.99,-2.78,-2.51,-0.22,-0.44,
3.861,-0.55,-3.99,-2.78,-2.51,-0.28,-0.39,
3.861,-1.19,-3.12,-3.02,-2.51,-0.28,-0.39,
3.861,-1.19,-3.12,-3.02,-2.51,-0.35,-0.34,
3.861,-1.19,-3.12,-3.02,-2.53,-0.43,-0.24,
3.861,-1.19,-3.12,-3.02,-2.54,-0.48,-0.17,
3.861,-1.19,-3.12,-3.02,-2.55,-0.51,-0.14,
3.864,-1.19,-3.12,-3.02,-2.57,-0.55,-0.07,
3.866,-1.56,-2.67,-3.25,-2.57,-0.55,-0.07,
3.867,-1.56,-2.67,-3.25,-2.59,-0.60,-0.00,
3.867,-1.56,-2.67,-3.25,-2.61,-0.64,0.06,
3.871,-1.56,-2.67,-3.25,-2.63,-0.68,0.12,
3.872,-1.56,-2.67,-3.25,-2.65,-0.73,0.17,
3.875,-1.56,-2.67,-3.25,-2.66,-0.77,0.23,
3.877,-1.17,-2.47,-2.63,-2.66,-0.77,0.23,
3.877,-1.17,-2.47,-2.63,-2.67,-0.82,0.28,
3.878,-1.17,-2.47,-2.63,-2.69,-0.88,0.32,
3.88,-1.17,-2.47,-2.63,-2.70,-0.94,0.36,
3.881,-1.17,-2.47,-2.63,-2.71,-0.99,0.40,
3.883,-1.17,-2.47,-2.63,-2.71,-1.04,0.43,
3.886,-0.56,-2.52,-2.10,-2.71,-1.04,0.43,
3.887,-0.56,-2.52,-2.10,-2.72,-1.09,0.46,
3.888,-0.56,-2.52,-2.10,-2.73,-1.13,0.48,
3.89,-0.56,-2.52,-2.10,-2.73,-1.17,0.50,
3.892,-0.56,-2.52,-2.10,-2.74,-1.21,0.52,
3.894,-0.56,-2.52,-2.10,-2.75,-1.25,0.53,
3.897,-0.22,-2.40,-2.09,-2.75,-1.25,0.53,
3.898,-0.22,-2.40,-2.09,-2.75,-1.27,0.54,
3.898,-0.22,-2.40,-2.09,-2.76,-1.30,0.55,
3.9,-0.22,-2.40,-2.09,-2.76,-1.32,0.56,
3.902,-0.22,-2.40,-2.09,-2.77,-1.34,0.57,
3.904,-0.22,-2.40,-2.09,-2.77,-1.35,0.57,
3.907,-0.14,-2.09,-2.21,-2.77,-1.35,0.57,
3.907,-0.14,-2.09,-2.21,-2.77,-1.35,0.58,
3.909,-0.14,-2.09,-2.21,-2.77,-1.35,0.58,
3.91,-0.14,-2.09,-2.21,-2.77,-1.34,0.59,
3.912,-0.14,-2.09,-2.21,-2.76,-1.33,0.59,
3.914,-0.14,-2.09,-2.21,-2.75,-1.32,0.59,
3.916,-0.21,-1.66,-1.82,-2.75,-1.32,0.59,
3.917,-0.21,-1.66,-1.82,-2.74,-1.30,0.60,
3.918,-0.21,-1.66,-1.82,-2.72,-1.27,0.60,
3.922,-0.21,-1.66,-1.82,-2.71,-1.24,0.60,
3.923,-0.21,-1.66,-1.82,-2.69,-1.20,0.60,
3.924,-0.21,-1.66,-1.82,-2.66,-1.16,0.60,
3.926,-0.10,-1.21,-1.21,-2.66,-1.16,0.60,
3.927,-0.10,-1.21,-1.21,-2.64,-1.11,0.59,
3.928,-0.10,-1.21,-1.21,-2.61,-1.06,0.59,
3.93,-0.10,-1.21,-1.21,-2.58,-1.01,0.59,
3.932,-0.10,-1.21,-1.21,-2.56,-0.95,0.59,
3.934,-0.10,-1.21,-1.21,-2.53,-0.89,0.59,
3.937,-0.15,-0.68,-0.81,-2.53,-0.89,0.59,
3.963,-0.15,-0.68,-0.81,-2.50,-0.82,0.59,
3.963,-0.15,-0.68,-0.81,-2.46,-0.75,0.59,
3.963,-0.15,-0.68,-0.81,-2.43,-0.68,0.59,
3.963,-0.15,-0.68,-0.81,-2.40,-0.60,0.60,
3.964,-0.15,-0.68,-0.81,-2.37,-0.52,0.60,
3.964,-0.14,-0.22,-0.69,-2.37,-0.52,0.60,
3.964,-0.14,-0.22,-0.69,-2.34,-0.45,0.60,
3.964,-0.14,-0.22,-0.69,-2.31,-0.37,0.60,
3.965,-0.14,-0.22,-0.69,-2.27,-0.28,0.61,
3.965,-0.14,-0.22,-0.69,-2.24,-0.20,0.61,
3.965,-0.14,-0.22,-0.69,-2.20,-0.12,0.61,
3.965,-0.09,0.14,-0.47,-2.20,-0.12,0.61,
3.966,-0.09,0.14,-0.47,-2.17,-0.04,0.62,
3.966,-0.09,0.14,-0.47,-2.14,0.03,0.63,
3.966,-0.09,0.14,-0.47,-2.10,0.11,0.64,
3.967,-0.09,0.14,-0.47,-2.07,0.18,0.65,
3.967,-0.09,0.14,-0.47,-2.05,0.24,0.66,
3.967,-0.19,0.46,-0.56,-2.05,0.24,0.66,
3.967,-0.19,0.46,-0.56,-2.02,0.30,0.67,
3.968,-0.19,0.46,-0.56,-2.00,0.36,0.69,
3.972,-0.19,0.46,-0.56,-1.99,0.41,0.70,
3.974,-0.19,0.46,-0.56,-1.97,0.45,0.72,
3.975,-0.19,0.46,-0.56,-1.96,0.49,0.73,
3.977,-0.23,0.77,-0.94,-1.96,0.49,0.73,
3.979,-0.23,0.77,-0.94,-1.95,0.52,0.75,
3.979,-0.23,0.77,-0.94,-1.95,0.54,0.77,
3.98,-0.23,0.77,-0.94,-1.94,0.56,0.78,
3.982,-0.23,0.77,-0.94,-1.93,0.58,0.80,
3.984,-0.23,0.77,-0.94,-1.93,0.59,0.82,
3.998,-0.08,1.08,-1.08,-1.93,0.59,0.82,
3.998,-0.08,1.08,-1.08,-1.92,0.59,0.83,
3.999,-0.08,1.08,-1.08,-1.92,0.60,0.84,
3.999,-0.08,1.08,-1.08,-1.92,0.60,0.86,
3.999,-0.08,1.08,-1.08,-1.92,0.60,0.87,
3.999,-0.08,1.08,-1.08,-1.91,0.60,0.87,
4.0,0.24,1.37,-1.06,-1.91,0.60,0.87,
4.0,0.24,1.37,-1.06,-1.91,0.59,0.88,
4.0,0.24,1.37,-1.06,-1.91,0.58,0.89,
4.0,0.24,1.37,-1.06,-1.91,0.57,0.89,
4.038,0.24,1.37,-1.06,-1.91,0.55,0.89,
4.039,0.24,1.37,-1.06,-1.91,0.53,0.89,
4.039,0.58,1.57,-1.14,-1.91,0.53,0.89,
4.039,0.58,1.57,-1.14,-1.91,0.51,0.89,
4.04,0.58,1.57,-1.14,-1.90,0.50,0.89,
4.04,0.58,1.57,-1.14,-1.91,0.47,0.89,
4.04,0.58,1.57,-1.14,-1.90,0.45,0.89,
4.04,0.58,1.57,-1.14,-1.90,0.43,0.89,
4.04,0.70,1.73,-1.06,-1.90,0.43,0.89,
4.041,0.70,1.73,-1.06,-1.89,0.40,0.89,
4.041,0.70,1.73,-1.06,-1.88,0.38,0.89,
4.041,0.70,1.73,-1.06,-1.87,0.35,0.89,
4.041,0.70,1.73,-1.06,-1.86,0.33,0.88,
4.041,0.70,1.73,-1.06,-1.84,0.30,0.88,
4.042,0.74,1.79,-0.73,-1.84,0.30,0.88,
4.042,0.74,1.79,-0.73,-1.83,0.28,0.88,
4.042,0.74,1.79,-0.73,-1.81,0.26,0.87,
4.042,0.74,1.79,-0.73,-1.79,0.25,0.86,
4.043,0.74,1.79,-0.73,-1.76,0.24,0.86,
4.043,0.74,1.79,-0.73,-1.73,0.23,0.85,
4.043,0.80,1.79,-0.27,-1.73,0.23,0.85,
4.043,0.80,1.79,-0.27,-1.70,0.23,0.84,
4.044,0.80,1.79,-0.27,-1.67,0.23,0.83,
4.044,0.80,1.79,-0.27,-1.64,0.24,0.82,
4.044,0.80,1.79,-0.27,-1.60,0.26,0.80,
4.044,0.80,1.79,-0.27,-1.55,0.29,0.79,
4.047,1.07,1.67,0.13,-1.55,0.29,0.79,
4.048,1.07,1.67,0.13,-1.50,0.32,0.77,
4.048,1.07,1.67,0.13,-1.45,0.35,0.76,
4.051,1.07,1.67,0.13,-1.40,0.39,0.74,
4.053,1.07,1.67,0.13,-1.34,0.44,0.72,
4.054,1.07,1.67,0.13,-1.28,0.50,0.71,
4.058,1.13,1.53,0.72,-1.28,0.50,0.71,
4.059,1.13,1.53,0.72,-1.22,0.56,0.69,
4.059,1.13,1.53,0.72,-1.15,0.62,0.68,
4.06,1.13,1.53,0.72,-1.09,0.66,0.66,
4.068,1.13,1.53,0.72,-1.03,0.70,0.65,
4.068,1.13,1.53,0.72,-0.97,0.75,0.63,
4.068,1.34,0.88,1.13,-0.97,0.75,0.63,
4.068,1.34,0.88,1.13,-0.91,0.81,0.61,
4.068,1.34,0.88,1.13,-0.84,0.88,0.59,
4.071,1.34,0.88,1.13,-0.78,0.96,0.58,
4.073,1.34,0.88,1.13,-0.71,1.06,0.55,
4.074,1.34,0.88,1.13,-0.65,1.16,0.53,
4.077,1.64,0.04,1.49,-0.65,1.16,0.53,
4.077,1.64,0.04,1.49,-0.58,1.24,0.51,
4.077,1.64,0.04,1.49,-0.51,1.32,0.49,
4.08,1.64,0.04,1.49,-0.44,1.37,0.48,
4.081,1.64,0.04,1.49,-0.36,1.41,0.48,
4.084,1.64,0.04,1.49,-0.28,1.46,0.48,
4.086,1.53,-0.63,2.67,-0.28,1.46,0.48,
4.087,1.53,-0.63,2.67,-0.20,1.50,0.48,
4.09,1.53,-0.63,2.67,-0.12,1.54,0.47,
4.09,1.53,-0.63,2.67,-0.04,1.58,0.47,
4.091,1.53,-0.63,2.67,0.04,1.63,0.48,
4.094,1.53,-0.63,2.67,0.12,1.68,0.48,
4.096,1.86,-1.22,3.52,0.12,1.68,0.48,
4.096,1.86,-1.22,3.52,0.19,1.73,0.47,
4.097,1.86,-1.22,3.52,0.27,1.79,0.47,
4.1,1.86,-1.22,3.52,0.33,1.85,0.46,
4.102,1.86,-1.22,3.52,0.39,1.91,0.45,
4.118,1.86,-1.22,3.52,0.44,1.97,0.43,
4.118,2.84,-1.91,3.72,0.44,1.97,0.43,
4.119,2.84,-1.91,3.72,0.48,2.04,0.42,
4.119,2.84,-1.91,3.72,0.52,2.10,0.40,
4.119,2.84,-1.91,3.72,0.54,2.16,0.38,
4.119,2.84,-1.91,3.72,0.56,2.21,0.36,
4.119,2.84,-1.91,3.72,0.56,2.26,0.33,
4.119,3.23,-1.88,2.93,0.56,2.26,0.33,
4.119,3.23,-1.88,2.93,0.56,2.30,0.31,
4.12,3.23,-1.88,2.93,0.55,2.32,0.28,
4.12,3.23,-1.88,2.93,0.53,2.33,0.26,
4.124,3.23,-1.88,2.93,0.50,2.32,0.24,
4.124,3.23,-1.88,2.93,0.47,2.30,0.21,
4.126,3.11,-1.46,1.79,0.47,2.30,0.21,
4.126,3.11,-1.46,1.79,0.42,2.27,0.19,
4.127,3.11,-1.46,1.79,0.38,2.24,0.16,
4.129,3.11,-1.46,1.79,0.33,2.19,0.13,
4.131,3.11,-1.46,1.79,0.28,2.15,0.10,
4.133,3.11,-1.46,1.79,0.23,2.10,0.07,
4.14,2.95,-0.96,1.37,0.23,2.10,0.07,
4.14,2.95,-0.96,1.37,0.18,2.06,0.03,
4.141,2.95,-0.96,1.37,0.13,2.03,-0.02,
4.141,2.95,-0.96,1.37,0.09,1.99,-0.05,
4.141,2.95,-0.96,1.37,0.04,1.96,-0.09,
4.144,2.95,-0.96,1.37,-0.00,1.93,-0.12,
4.146,2.70,-0.65,1.35,-0.00,1.93,-0.12,
4.147,2.70,-0.65,1.35,-0.05,1.90,-0.14,
4.149,2.70,-0.65,1.35,-0.10,1.87,-0.17,
4.151,2.70,-0.65,1.35,-0.14,1.84,-0.18,
4.164,2.70,-0.65,1.35,-0.19,1.81,-0.19,
4.164,2.70,-0.65,1.35,-0.24,1.78,-0.20,
4.164,1.63,-0.68,1.08,-0.24,1.78,-0.20,
4.165,1.63,-0.68,1.08,-0.29,1.74,-0.20,
4.165,1.63,-0.68,1.08,-0.34,1.71,-0.20,
4.165,1.63,-0.68,1.08,-0.38,1.67,-0.20,
4.165,1.63,-0.68,1.08,-0.44,1.64,-0.19,
4.165,1.63,-0.68,1.08,-0.49,1.60,-0.19,
4.166,0.91,-1.05,0.55,-0.49,1.60,-0.19,
4.166,0.91,-1.05,0.55,-0.54,1.56,-0.18,
4.169,0.91,-1.05,0.55,-0.60,1.52,-0.18,
4.17,0.91,-1.05,0.55,-0.65,1.48,-0.18,
4.172,0.91,-1.05,0.55,-0.70,1.43,-0.18,
4.174,0.91,-1.05,0.55,-0.76,1.37,-0.17,
4.176,0.80,-1.65,-0.20,-0.76,1.37,-0.17,
4.176,0.80,-1.65,-0.20,-0.82,1.31,-0.18,
4.179,0.80,-1.65,-0.20,-0.88,1.24,-0.18,
4.18,0.80,-1.65,-0.20,-0.94,1.16,-0.19,
4.182,0.80,-1.65,-0.20,-0.99,1.09,-0.20,
4.184,0.80,-1.65,-0.20,-1.05,1.01,-0.21,
4.187,1.26,-2.49,-0.85,-1.05,1.01,-0.21,
4.187,1.26,-2.49,-0.85,-1.10,0.93,-0.22,
4.188,1.26,-2.49,-0.85,-1.15,0.85,-0.24,
4.19,1.26,-2.49,-0.85,-1.20,0.76,-0.26,
4.192,1.26,-2.49,-0.85,-1.25,0.69,-0.27,
4.194,1.26,-2.49,-0.85,-1.30,0.61,-0.30,
4.196,1.82,-3.25,-1.13,-1.30,0.61,-0.30,
4.196,1.82,-3.25,-1.13,-1.34,0.53,-0.32,
4.197,1.82,-3.25,-1.13,-1.38,0.46,-0.34,
4.2,1.82,-3.25,-1.13,-1.41,0.40,-0.37,
4.203,1.82,-3.25,-1.13,-1.45,0.34,-0.39,
4.205,1.82,-3.25,-1.13,-1.48,0.28,-0.42,
4.211,2.49,-3.81,-1.32,-1.48,0.28,-0.42,
4.212,2.49,-3.81,-1.32,-1.51,0.22,-0.45,
4.215,2.49,-3.81,-1.32,-1.55,0.15,-0.49,
4.215,2.49,-3.81,-1.32,-1.58,0.11,-0.51,
4.217,2.49,-3.81,-1.32,-1.59,0.08,-0.52,
4.218,2.49,-3.81,-1.32,-1.62,0.04,-0.54,
4.219,2.73,-3.90,-1.51,-1.62,0.04,-0.54,
4.219,2.73,-3.90,-1.51,-1.64,0.00,-0.56,
4.219,2.73,-3.90,-1.51,-1.67,-0.04,-0.58,
4.221,2.73,-3.90,-1.51,-1.68,-0.05,-0.58,
4.222,2.73,-3.90,-1.51,-1.70,-0.07,-0.59,
4.224,2.73,-3.90,-1.51,-1.72,-0.07,-0.59,
4.227,2.48,-3.70,-1.52,-1.72,-0.07,-0.59,
4.227,2.48,-3.70,-1.52,-1.74,-0.07,-0.59,
4.227,2.48,-3.70,-1.52,-1.76,-0.06,-0.59,
4.23,2.48,-3.70,-1.52,-1.78,-0.03,-0.58,
4.232,2.48,-3.70,-1.52,-1.80,0.00,-0.57,
4.234,2.48,-3.70,-1.52,-1.81,0.05,-0.56,
4.237,1.77,-3.43,-1.14,-1.81,0.05,-0.56,
4.237,1.77,-3.43,-1.14,-1.83,0.11,-0.54,
4.238,1.77,-3.43,-1.14,-1.85,0.18,-0.53,
4.24,1.77,-3.43,-1.14,-1.87,0.27,-0.51,
4.241,1.77,-3.43,-1.14,-1.89,0.36,-0.50,
4.243,1.77,-3.43,-1.14,-1.91,0.47,-0.49,
4.246,1.13,-3.26,-0.51,-1.91,0.47,-0.49,
4.246,1.13,-3.26,-0.51,-1.93,0.57,-0.47,
4.247,1.13,-3.26,-0.51,-1.95,0.68,-0.46,
4.249,1.13,-3.26,-0.51,-1.97,0.78,-0.44,
4.257,1.13,-3.26,-0.51,-2.00,0.88,-0.43,
4.257,1.13,-3.26,-0.51,-2.01,0.97,-0.42,
4.258,0.60,-3.21,0.22,-2.01,0.97,-0.42,
4.258,0.60,-3.21,0.22,-2.03,1.05,-0.40,
4.259,0.60,-3.21,0.22,-2.04,1.11,-0.39,
4.268,0.60,-3.21,0.22,-2.05,1.16,-0.37,
4.269,0.60,-3.21,0.22,-2.06,1.19,-0.36,
4.269,0.60,-3.21,0.22,-2.05,1.20,-0.34,
4.269,0.45,-3.50,0.97,-2.05,1.20,-0.34,
4.269,0.45,-3.50,0.97,-2.04,1.19,-0.33,
4.269,0.45,-3.50,0.97,-2.03,1.17,-0.32,
4.29,0.45,-3.50,0.97,-2.01,1.13,-0.30,
4.29,0.45,-3.50,0.97,-1.98,1.07,-0.29,
4.29,0.45,-3.50,0.97,-1.95,1.00,-0.28,
4.29,0.48,-4.13,1.45,-1.95,1.00,-0.28,
4.291,0.48,-4.13,1.45,-1.91,0.92,-0.27,
4.291,0.48,-4.13,1.45,-1.86,0.84,-0.26,
4.291,0.48,-4.13,1.45,-1.81,0.75,-0.26,
4.291,0.48,-4.13,1.45,-1.76,0.65,-0.25,
4.291,0.48,-4.13,1.45,-1.70,0.55,-0.24,
4.292,0.37,-4.93,1.77,-1.70,0.55,-0.24,
4.292,0.37,-4.93,1.77,-1.63,0.45,-0.24,
4.292,0.37,-4.93,1.77,-1.55,0.34,-0.23,
4.292,0.37,-4.93,1.77,-1.43,0.19,-0.22,
4.292,0.37,-4.93,1.77,-1.39,0.14,-0.21,
4.297,0.37,-4.93,1.77,-1.19,-0.05,-0.19,
4.298,0.37,-4.93,1.77,-1.19,-0.05,-0.19,
4.298,-0.43,-5.95,2.29,-1.19,-0.05,-0.19,
4.299,-0.43,-5.95,2.29,-1.03,-0.19,-0.17,
4.311,-0.43,-5.95,2.29,-0.92,-0.27,-0.15,
4.311,-0.43,-5.95,2.29,-0.86,-0.30,-0.14,
4.312,-0.43,-5.95,2.29,-0.73,-0.36,-0.13,
4.312,-1.18,-6.61,3.00,-0.73,-0.36,-0.13,
4.312,-1.18,-6.61,3.00,-0.60,-0.41,-0.11,
4.312,-1.18,-6.61,3.00,-0.46,-0.44,-0.09,
4.312,-1.18,-6.61,3.00,-0.32,-0.45,-0.08,
4.312,-1.18,-6.61,3.00,-0.17,-0.46,-0.06,
4.313,-1.18,-6.61,3.00,-0.03,-0.44,-0.05,
4.316,-1.65,-7.04,4.17,-0.03,-0.44,-0.05,
4.316,-1.65,-7.04,4.17,0.11,-0.40,-0.04,
4.318,-1.65,-7.04,4.17,0.25,-0.35,-0.04,
4.32,-1.65,-7.04,4.17,0.44,-0.22,-0.04,
4.322,-1.65,-7.04,4.17,0.51,-0.18,-0.04,
4.324,-1.65,-7.04,4.17,0.63,-0.07,-0.05,
4.326,-1.40,-6.54,5.48,0.63,-0.07,-0.05,
4.326,-1.40,-6.54,5.48,0.81,0.12,-0.05,
4.332,-1.40,-6.54,5.48,0.86,0.19,-0.06,
4.332,-1.40,-6.54,5.48,1.02,0.42,-0.07,
4.332,-1.40,-6.54,5.48,1.13,0.58,-0.09,
4.335,-1.40,-6.54,5.48,1.18,0.67,-0.09,
4.336,-1.11,-5.42,6.76,1.18,0.67,-0.09,
4.337,-1.11,-5.42,6.76,1.34,0.93,-0.12,
4.338,-1.11,-5.42,6.76,1.39,1.02,-0.13,
4.342,-1.11,-5.42,6.76,1.55,1.31,-0.16,
4.343,-1.11,-5.42,6.76,1.67,1.49,-0.17,
4.344,-1.11,-5.42,6.76,1.73,1.59,-0.18,
4.346,-0.89,-4.30,9.48,1.73,1.59,-0.18,
4.347,-0.89,-4.30,9.48,1.92,1.87,-0.21,
4.347,-0.89,-4.30,9.48,1.99,1.95,-0.22,
4.35,-0.89,-4.30,9.48,2.21,2.19,-0.25,
4.352,-0.89,-4.30,9.48,2.37,2.32,-0.27,
4.354,-0.89,-4.30,9.48,2.54,2.42,-0.28,
4.356,-0.75,-3.75,13.04,2.54,2.42,-0.28,
4.356,-0.75,-3.75,13.04,2.72,2.50,-0.30,
4.358,-0.75,-3.75,13.04,2.91,2.53,-0.31,
4.361,-0.75,-3.75,13.04,3.11,2.53,-0.31,
4.361,-0.75,-3.75,13.04,3.32,2.49,-0.32,
4.363,-0.75,-3.75,13.04,3.53,2.40,-0.31,
4.366,-1.26,-3.70,16.36,3.53,2.40,-0.31,
4.367,-1.26,-3.70,16.36,3.74,2.28,-0.29,
4.368,-1.26,-3.70,16.36,3.96,2.13,-0.27,
4.37,-1.26,-3.70,16.36,4.18,1.95,-0.24,
4.372,-1.26,-3.70,16.36,4.39,1.74,-0.19,
4.374,-1.26,-3.70,16.36,4.60,1.51,-0.14,
4.376,-3.00,-3.79,16.89,4.60,1.51,-0.14,
4.376,-3.00,-3.79,16.89,4.79,1.28,-0.08,
4.378,-3.00,-3.79,16.89,4.97,1.04,-0.01,
4.379,-3.00,-3.79,16.89,5.13,0.79,0.07,
4.381,-3.00,-3.79,16.89,5.26,0.56,0.15,
4.387,-3.00,-3.79,16.89,5.38,0.33,0.23,
4.387,-4.80,-3.91,13.87,5.38,0.33,0.23,
4.387,-4.80,-3.91,13.87,5.46,0.11,0.30,
4.387,-4.80,-3.91,13.87,5.52,-0.09,0.38,
4.389,-4.80,-3.91,13.87,5.54,-0.25,0.46,
4.395,-4.80,-3.91,13.87,5.53,-0.39,0.54,
4.395,-4.80,-3.91,13.87,5.47,-0.50,0.61,
4.397,-5.36,-3.93,7.03,5.47,-0.50,0.61,
4.397,-5.36,-3.93,7.03,5.39,-0.59,0.67,
4.398,-5.36,-3.93,7.03,5.28,-0.67,0.73,
4.407,-5.36,-3.93,7.03,5.14,-0.75,0.78,
4.407,-5.36,-3.93,7.03,4.99,-0.83,0.82,
4.407,-5.36,-3.93,7.03,4.82,-0.93,0.86,
4.407,-4.45,-3.89,0.19,4.82,-0.93,0.86,
4.407,-4.45,-3.89,0.19,4.65,-1.03,0.88,
4.407,-4.45,-3.89,0.19,4.46,-1.14,0.88,
4.409,-4.45,-3.89,0.19,4.27,-1.27,0.88,
4.411,-4.45,-3.89,0.19,4.06,-1.41,0.87,
4.414,-4.45,-3.89,0.19,3.85,-1.55,0.85,
4.416,-2.67,-4.38,-4.55,3.85,-1.55,0.85,
4.417,-2.67,-4.38,-4.55,3.65,-1.71,0.83,
4.417,-2.67,-4.38,-4.55,3.44,-1.87,0.79,
4.419,-2.67,-4.38,-4.55,3.23,-2.04,0.75,
4.421,-2.67,-4.38,-4.55,3.01,-2.20,0.70,
4.423,-2.67,-4.38,-4.55,2.80,-2.37,0.65,
4.426,-1.05,-4.84,-8.36,2.80,-2.37,0.65,
4.426,-1.05,-4.84,-8.36,2.58,-2.55,0.60,
4.427,-1.05,-4.84,-8.36,2.37,-2.72,0.55,
4.43,-1.05,-4.84,-8.36,2.16,-2.90,0.49,
4.431,-1.05,-4.84,-8.36,1.95,-3.08,0.45,
4.433,-1.05,-4.84,-8.36,1.75,-3.25,0.40,
4.436,-0.18,-5.38,-11.72,1.75,-3.25,0.40,
4.45,-0.18,-5.38,-11.72,1.55,-3.43,0.37,
4.451,-0.18,-5.38,-11.72,1.36,-3.59,0.33,
4.451,-0.18,-5.38,-11.72,1.17,-3.76,0.29,
4.451,-0.18,-5.38,-11.72,1.00,-3.91,0.24,
4.451,-0.18,-5.38,-11.72,0.83,-4.05,0.19,
4.451,0.86,-5.83,-14.77,0.83,-4.05,0.19,
4.451,0.86,-5.83,-14.77,0.67,-4.19,0.13,
4.451,0.86,-5.83,-14.77,0.52,-4.31,0.08,
4.451,0.86,-5.83,-14.77,0.37,-4.42,0.02,
4.452,0.86,-5.83,-14.77,0.23,-4.51,-0.05,
4.453,0.86,-5.83,-14.77,0.10,-4.58,-0.11,
4.456,1.63,-5.83,-15.60,0.10,-4.58,-0.11,
4.456,1.63,-5.83,-15.60,-0.02,-4.64,-0.18,
4.457,1.63,-5.83,-15.60,-0.14,-4.68,-0.25,
4.459,1.63,-5.83,-15.60,-0.25,-4.71,-0.32,
4.461,1.63,-5.83,-15.60,-0.34,-4.73,-0.39,
4.463,1.63,-5.83,-15.60,-0.43,-4.73,-0.47,
4.466,1.34,-5.90,-15.06,-0.43,-4.73,-0.47,
4.467,1.34,-5.90,-15.06,-0.51,-4.72,-0.56,
4.467,1.34,-5.90,-15.06,-0.57,-4.69,-0.65,
4.469,1.34,-5.90,-15.06,-0.62,-4.61,-0.75,
4.472,1.34,-5.90,-15.06,-0.65,-4.50,-0.84,
4.473,1.34,-5.90,-15.06,-0.67,-4.33,-0.93,
4.476,0.83,-5.76,-13.76,-0.67,-4.33,-0.93,
4.476,0.83,-5.76,-13.76,-0.69,-4.12,-1.02,
4.477,0.83,-5.76,-13.76,-0.69,-3.86,-1.11,
4.479,0.83,-5.76,-13.76,-0.70,-3.58,-1.19,
4.481,0.83,-5.76,-13.76,-0.69,-3.25,-1.26,
4.483,0.83,-5.76,-13.76,-0.68,-2.91,-1.34,
4.486,-0.13,-5.38,-13.41,-0.68,-2.91,-1.34,
4.486,-0.13,-5.38,-13.41,-0.65,-2.55,-1.41,
4.487,-0.13,-5.38,-13.41,-0.63,-2.20,-1.47,
4.49,-0.13,-5.38,-13.41,-0.60,-1.86,-1.52,
4.492,-0.13,-5.38,-13.41,-0.55,-1.54,-1.57,
4.494,-0.13,-5.38,-13.41,-0.47,-1.26,-1.61,
4.497,-0.72,-4.44,-10.18,-0.47,-1.26,-1.61,
4.498,-0.72,-4.44,-10.18,-0.23,-1.06,-1.68,
4.498,-0.72,-4.44,-10.18,0.21,-0.96,-1.80,
4.51,-0.72,-4.44,-10.18,0.78,-0.94,-1.96,
4.51,-0.72,-4.44,-10.18,1.41,-0.97,-2.11,
4.511,-0.72,-4.44,-10.18,2.06,-1.05,-2.25,
4.511,2.97,-6.76,11.33,2.06,-1.05,-2.25,
4.511,2.97,-6.76,11.33,2.72,-1.18,-2.36,
4.512,2.97,-6.76,11.33,3.35,-1.33,-2.45,
4.512,2.97,-6.76,11.33,3.95,-1.48,-2.53,
4.512,2.97,-6.76,11.33,4.48,-1.61,-2.57,
4.525,2.97,-6.76,11.33,4.94,-1.71,-2.59,
4.525,0.13,-10.22,12.70,4.94,-1.71,-2.59,
4.526,0.13,-10.22,12.70,5.32,-1.75,-2.58,
4.526,0.13,-10.22,12.70,5.63,-1.75,-2.54,
4.526,0.13,-10.22,12.70,5.88,-1.69,-2.48,
4.526,0.13,-10.22,12.70,6.08,-1.58,-2.40,
4.526,0.13,-10.22,12.70,6.24,-1.41,-2.30,
4.526,-4.57,-10.86,2.87,6.24,-1.41,-2.30,
4.527,-4.57,-10.86,2.87,6.37,-1.21,-2.19,
4.528,-4.57,-10.86,2.87,6.47,-0.96,-2.07,
4.529,-4.57,-10.86,2.87,6.56,-0.68,-1.94,
4.532,-4.57,-10.86,2.87,6.65,-0.32,-1.81,
4.534,-4.57,-10.86,2.87,6.71,0.11,-1.69,
4.536,-6.47,-9.89,-0.91,6.71,0.11,-1.69,
4.536,-6.47,-9.89,-0.91,6.75,0.62,-1.57,
4.538,-6.47,-9.89,-0.91,6.75,1.19,-1.47,
4.54,-6.47,-9.89,-0.91,6.72,1.77,-1.36,
4.542,-6.47,-9.89,-0.91,6.65,2.34,-1.26,
4.544,-6.47,-9.89,-0.91,6.56,2.86,-1.16,
4.546,-5.62,-7.94,-2.51,6.56,2.86,-1.16,
4.547,-5.62,-7.94,-2.51,6.43,3.31,-1.07,
4.547,-5.62,-7.94,-2.51,6.28,3.68,-0.98,
4.55,-5.62,-7.94,-2.51,6.11,3.97,-0.91,
4.552,-5.62,-7.94,-2.51,5.93,4.17,-0.85,
4.553,-5.62,-7.94,-2.51,5.73,4.28,-0.81,
4.556,-3.08,-5.72,-4.47,5.73,4.28,-0.81,
4.557,-3.08,-5.72,-4.47,5.53,4.30,-0.78,
4.559,-3.08,-5.72,-4.47,5.34,4.24,-0.77,
4.56,-3.08,-5.72,-4.47,5.15,4.10,-0.77,
4.562,-3.08,-5.72,-4.47,4.98,3.89,-0.78,
4.564,-3.08,-5.72,-4.47,4.82,3.60,-0.79,
4.568,-1.07,-3.60,-3.33,4.82,3.60,-0.79,
4.569,-1.07,-3.60,-3.33,4.66,3.25,-0.81,
4.569,-1.07,-3.60,-3.33,4.49,2.84,-0.83,
4.572,-1.07,-3.60,-3.33,4.32,2.40,-0.85,
4.572,-1.07,-3.60,-3.33,4.15,1.94,-0.86,
4.574,-1.07,-3.60,-3.33,3.97,1.48,-0.87,
4.576,-1.35,-1.32,-4.81,3.97,1.48,-0.87,
4.576,-1.35,-1.32,-4.81,3.79,1.05,-0.89,
4.578,-1.35,-1.32,-4.81,3.63,0.67,-0.90,
4.58,-1.35,-1.32,-4.81,3.48,0.34,-0.90,
4.583,-1.35,-1.32,-4.81,3.35,0.08,-0.91,
4.583,-1.35,-1.32,-4.81,3.23,-0.12,-0.91,
4.588,-2.63,0.62,-7.74,3.23,-0.12,-0.91,
4.588,-2.63,0.62,-7.74,3.13,-0.25,-0.92,
4.589,-2.63,0.62,-7.74,3.04,-0.33,-0.91,
4.592,-2.63,0.62,-7.74,2.96,-0.37,-0.91,
4.592,-2.63,0.62,-7.74,2.90,-0.37,-0.90,
4.595,-2.63,0.62,-7.74,2.84,-0.33,-0.90,
4.596,-3.31,2.34,-9.36,2.84,-0.33,-0.90,
4.596,-3.31,2.34,-9.36,2.80,-0.27,-0.88,
4.598,-3.31,2.34,-9.36,2.78,-0.20,-0.87,
4.603,-3.31,2.34,-9.36,2.77,-0.11,-0.86,
4.604,-3.31,2.34,-9.36,2.77,-0.03,-0.84,
4.634,-3.31,2.34,-9.36,2.79,0.06,-0.82,
4.635,-3.64,3.56,-9.51,2.79,0.06,-0.82,
4.635,-3.64,3.56,-9.51,2.82,0.14,-0.80,
4.636,-3.64,3.56,-9.51,2.87,0.22,-0.79,
4.636,-3.64,3.56,-9.51,2.93,0.30,-0.77,
4.636,-3.64,3.56,-9.51,2.99,0.37,-0.76,
4.637,-3.64,3.56,-9.51,3.06,0.45,-0.76,
4.637,-2.63,4.70,-8.39,3.06,0.45,-0.76,
4.638,-2.63,4.70,-8.39,3.13,0.52,-0.75,
4.638,-2.63,4.70,-8.39,3.21,0.59,-0.74,
4.638,-2.63,4.70,-8.39,3.27,0.67,-0.73,
4.639,-2.63,4.70,-8.39,3.32,0.74,-0.72,
4.639,-2.63,4.70,-8.39,3.37,0.81,-0.72,
4.639,-1.38,5.44,-8.12,3.37,0.81,-0.72,
4.639,-1.38,5.44,-8.12,3.40,0.88,-0.70,
4.64,-1.38,5.44,-8.12,3.41,0.96,-0.69,
4.64,-1.38,5.44,-8.12,3.40,1.03,-0.67,
4.64,-1.38,5.44,-8.12,3.38,1.10,-0.64,
4.641,-1.38,5.44,-8.12,3.35,1.18,-0.61,
4.641,0.18,6.21,-8.95,3.35,1.18,-0.61,
4.641,0.18,6.21,-8.95,3.30,1.26,-0.57,
4.641,0.18,6.21,-8.95,3.23,1.34,-0.52,
4.642,0.18,6.21,-8.95,3.15,1.41,-0.46,
4.647,0.18,6.21,-8.95,3.06,1.47,-0.39,
4.647,0.18,6.21,-8.95,2.95,1.52,-0.32,
4.647,1.03,6.81,-10.01,2.95,1.52,-0.32,
4.648,1.03,6.81,-10.01,2.84,1.55,-0.25,
4.648,1.03,6.81,-10.01,2.73,1.58,-0.17,
4.652,1.03,6.81,-10.01,2.60,1.59,-0.09,
4.653,1.03,6.81,-10.01,2.49,1.59,-0.01,
4.654,1.03,6.81,-10.01,2.37,1.59,0.08,
4.658,1.92,7.48,-10.17,2.37,1.59,0.08,
4.658,1.92,7.48,-10.17,2.26,1.58,0.16,
4.659,1.92,7.48,-10.17,2.16,1.56,0.24,
4.661,1.92,7.48,-10.17,2.06,1.53,0.33,
4.662,1.92,7.48,-10.17,1.95,1.50,0.41,
4.665,1.92,7.48,-10.17,1.85,1.46,0.50,
4.676,2.68,8.13,-9.53,1.85,1.46,0.50,
4.677,2.68,8.13,-9.53,1.73,1.42,0.58,
4.677,2.68,8.13,-9.53,1.62,1.38,0.66,
4.677,2.68,8.13,-9.53,1.52,1.34,0.74,
4.678,2.68,8.13,-9.53,1.41,1.32,0.81,
4.678,2.68,8.13,-9.53,1.31,1.29,0.88,
4.678,3.33,8.38,-9.59,1.31,1.29,0.88,
4.678,3.33,8.38,-9.59,1.21,1.27,0.93,
4.679,3.33,8.38,-9.59,1.11,1.23,0.99,
4.703,3.33,8.38,-9.59,1.02,1.19,1.04,
4.703,3.33,8.38,-9.59,0.93,1.14,1.09,
4.704,3.33,8.38,-9.59,0.85,1.08,1.12,
4.704,3.99,8.23,-9.36,0.85,1.08,1.12,
4.704,3.99,8.23,-9.36,0.77,1.00,1.15,
4.705,3.99,8.23,-9.36,0.70,0.91,1.16,
4.705,3.99,8.23,-9.36,0.64,0.82,1.17,
4.705,3.99,8.23,-9.36,0.57,0.72,1.17,
4.705,3.99,8.23,-9.36,0.52,0.64,1.15,
4.705,4.31,7.65,-9.08,0.52,0.64,1.15,
4.706,4.31,7.65,-9.08,0.47,0.54,1.13,
4.706,4.31,7.65,-9.08,0.43,0.45,1.10,
4.706,4.31,7.65,-9.08,0.39,0.37,1.06,
4.707,4.31,7.65,-9.08,0.35,0.30,1.01,
4.707,4.31,7.65,-9.08,0.31,0.23,0.96,
4.707,4.52,7.95,-8.60,0.31,0.23,0.96,
4.707,4.52,7.95,-8.60,0.28,0.16,0.91,
4.708,4.52,7.95,-8.60,0.25,0.09,0.84,
4.71,4.52,7.95,-8.60,0.22,0.01,0.78,
4.712,4.52,7.95,-8.60,0.19,-0.06,0.71,
4.714,4.52,7.95,-8.60,0.16,-0.14,0.65,
4.717,4.05,8.27,-8.12,0.16,-0.14,0.65,
4.717,4.05,8.27,-8.12,0.13,-0.20,0.58,
4.718,4.05,8.27,-8.12,0.09,-0.26,0.52,
4.72,4.05,8.27,-8.12,0.06,-0.31,0.45,
4.722,4.05,8.27,-8.12,0.01,-0.35,0.39,
4.724,4.05,8.27,-8.12,-0.04,-0.39,0.32,
4.726,3.04,8.96,-7.16,-0.04,-0.39,0.32,
4.727,3.04,8.96,-7.16,-0.09,-0.43,0.27,
4.728,3.04,8.96,-7.16,-0.16,-0.46,0.21,
4.73,3.04,8.96,-7.16,-0.22,-0.48,0.16,
4.739,3.04,8.96,-7.16,-0.29,-0.51,0.11,
4.741,3.04,8.96,-7.16,-0.37,-0.53,0.06,
4.742,2.14,8.33,-6.46,-0.37,-0.53,0.06,
4.743,2.14,8.33,-6.46,-0.45,-0.54,0.02,
4.744,2.14,8.33,-6.46,-0.53,-0.54,-0.02,
4.744,2.14,8.33,-6.46,-0.61,-0.54,-0.06,
4.745,2.14,8.33,-6.46,-0.69,-0.52,-0.10,
4.745,2.14,8.33,-6.46,-0.76,-0.49,-0.14,
4.747,2.67,5.52,-5.33,-0.76,-0.49,-0.14,
4.748,2.67,5.52,-5.33,-0.83,-0.46,-0.17,
4.748,2.67,5.52,-5.33,-0.90,-0.41,-0.21,
4.751,2.67,5.52,-5.33,-0.96,-0.37,-0.24,
4.752,2.67,5.52,-5.33,-1.01,-0.33,-0.26,
4.755,2.67,5.52,-5.33,-1.06,-0.29,-0.29,
4.756,3.40,3.00,-3.86,-1.06,-0.29,-0.29,
4.756,3.40,3.00,-3.86,-1.11,-0.26,-0.31,
4.759,3.40,3.00,-3.86,-1.14,-0.24,-0.32,
4.761,3.40,3.00,-3.86,-1.17,-0.22,-0.33,
4.762,3.40,3.00,-3.86,-1.19,-0.22,-0.34,
4.763,3.40,3.00,-3.86,-1.20,-0.22,-0.35,
4.774,3.61,1.66,-2.06,-1.20,-0.22,-0.35,
4.775,3.61,1.66,-2.06,-1.21,-0.23,-0.36,
4.775,3.61,1.66,-2.06,-1.21,-0.24,-0.37,
4.791,3.61,1.66,-2.06,-1.20,-0.26,-0.38,
4.792,3.61,1.66,-2.06,-1.19,-0.29,-0.40,
4.792,3.61,1.66,-2.06,-1.17,-0.32,-0.41,
4.792,3.41,0.63,-0.14,-1.17,-0.32,-0.41,
4.792,3.41,0.63,-0.14,-1.15,-0.36,-0.42,
4.792,3.41,0.63,-0.14,-1.12,-0.40,-0.43,
4.792,3.41,0.63,-0.14,-1.09,-0.45,-0.45,
4.793,3.41,0.63,-0.14,-1.06,-0.50,-0.46,
4.793,3.41,0.63,-0.14,-1.03,-0.57,-0.48,
4.793,3.06,-0.26,1.57,-1.03,-0.57,-0.48,
4.793,3.06,-0.26,1.57,-1.00,-0.64,-0.49,
4.793,3.06,-0.26,1.57,-0.98,-0.73,-0.50,
4.793,3.06,-0.26,1.57,-0.95,-0.82,-0.51,
4.812,3.06,-0.26,1.57,-0.92,-1.03,-0.50,
4.813,3.06,-0.26,1.57,-0.92,-1.03,-0.50,
4.813,3.06,-0.26,1.57,-0.91,-1.13,-0.49,
4.813,1.50,-0.63,2.84,-0.91,-1.13,-0.49,
4.813,1.50,-0.63,2.84,-0.89,-1.24,-0.47,
4.814,1.50,-0.63,2.84,-0.88,-1.35,-0.45,
4.814,1.50,-0.63,2.84,-0.85,-1.46,-0.41,
4.814,1.50,-0.63,2.84,-0.82,-1.57,-0.37,
4.814,-1.81,0.14,5.37,-0.82,-1.57,-0.37,
4.814,-1.81,0.14,5.37,-0.76,-1.68,-0.31,
4.814,-1.81,0.14,5.37,-0.68,-1.80,-0.25,
4.814,-1.81,0.14,5.37,-0.57,-1.91,-0.18,
4.815,-1.81,0.14,5.37,-0.43,-2.01,-0.11,
4.815,-1.81,0.14,5.37,-0.25,-2.08,-0.03,
4.83,-6.29,0.57,13.41,-0.25,-2.08,-0.03,
4.83,-6.29,0.57,13.41,-0.06,-2.11,0.05,
4.83,-6.29,0.57,13.41,0.15,-2.09,0.13,
4.831,-6.29,0.57,13.41,0.35,-2.01,0.21,
4.831,-6.29,0.57,13.41,0.53,-1.86,0.28,
4.831,-6.29,0.57,13.41,0.67,-1.64,0.35,
4.831,-10.06,-1.51,19.57,0.67,-1.64,0.35,
4.832,-10.06,-1.51,19.57,0.76,-1.36,0.42,
4.832,-10.06,-1.51,19.57,0.78,-1.03,0.49,
4.832,-10.06,-1.51,19.57,0.73,-0.67,0.56,
4.832,-10.06,-1.51,19.57,0.62,-0.29,0.64,
4.837,-10.06,-1.51,19.57,0.46,0.09,0.72,
4.837,-11.18,-5.11,11.97,0.46,0.09,0.72,
4.837,-11.18,-5.11,11.97,0.25,0.47,0.79,
4.838,-11.18,-5.11,11.97,-0.01,0.86,0.86,
4.842,-11.18,-5.11,11.97,-0.31,1.22,0.91,
4.843,-11.18,-5.11,11.97,-0.65,1.56,0.96,
4.843,-11.18,-5.11,11.97,-1.02,1.86,0.98,
4.848,-6.41,-6.91,-1.15,-1.02,1.86,0.98,
4.848,-6.41,-6.91,-1.15,-1.40,2.10,0.98,
4.851,-6.41,-6.91,-1.15,-1.80,2.26,0.96,
4.851,-6.41,-6.91,-1.15,-2.18,2.34,0.92,
4.852,-6.41,-6.91,-1.15,-2.54,2.31,0.86,
4.853,-6.41,-6.91,-1.15,-2.86,2.18,0.78,
4.856,0.18,-6.65,-8.54,-2.86,2.18,0.78,
4.856,0.18,-6.65,-8.54,-3.13,1.93,0.70,
4.857,0.18,-6.65,-8.54,-3.33,1.56,0.61,
4.859,0.18,-6.65,-8.54,-3.45,1.10,0.52,
4.862,0.18,-6.65,-8.54,-3.49,0.55,0.43,
4.863,0.18,-6.65,-8.54,-3.47,-0.05,0.35,
4.866,4.35,-6.45,-5.28,-3.47,-0.05,0.35,
4.867,4.35,-6.45,-5.28,-3.39,-0.66,0.27,
4.868,4.35,-6.45,-5.28,-3.27,-1.24,0.21,
4.87,4.35,-6.45,-5.28,-3.12,-1.77,0.14,
4.872,4.35,-6.45,-5.28,-2.97,-2.23,0.08,
4.874,4.35,-6.45,-5.28,-2.82,-2.58,0.03,
4.876,5.69,-5.60,-3.11,-2.82,-2.58,0.03,
4.876,5.69,-5.60,-3.11,-2.68,-2.84,-0.02,
4.877,5.69,-5.60,-3.11,-2.56,-3.01,-0.07,
4.879,5.69,-5.60,-3.11,-2.45,-3.09,-0.12,
4.886,5.69,-5.60,-3.11,-2.36,-3.10,-0.16,
4.887,5.69,-5.60,-3.11,-2.29,-3.04,-0.21,
4.887,5.03,-4.20,-5.92,-2.29,-3.04,-0.21,
4.887,5.03,-4.20,-5.92,-2.23,-2.94,-0.26,
4.888,5.03,-4.20,-5.92,-2.19,-2.81,-0.31,
4.89,5.03,-4.20,-5.92,-2.15,-2.64,-0.37,
4.892,5.03,-4.20,-5.92,-2.11,-2.45,-0.43,
4.894,5.03,-4.20,-5.92,-2.08,-2.24,-0.49,
4.914,3.58,-2.57,-4.97,-2.08,-2.24,-0.49,
4.914,3.58,-2.57,-4.97,-2.05,-2.01,-0.54,
4.914,3.58,-2.57,-4.97,-2.01,-1.78,-0.58,
4.915,3.58,-2.57,-4.97,-1.99,-1.55,-0.61,
4.915,3.58,-2.57,-4.97,-1.96,-1.31,-0.63,
4.915,3.58,-2.57,-4.97,-1.93,-1.08,-0.63,
4.915,1.37,-2.38,-0.43,-1.93,-1.08,-0.63,
4.915,1.37,-2.38,-0.43,-1.91,-0.86,-0.63,
4.915,1.37,-2.38,-0.43,-1.89,-0.64,-0.61,
4.915,1.37,-2.38,-0.43,-1.87,-0.43,-0.57,
4.916,1.37,-2.38,-0.43,-1.84,-0.22,-0.53,
4.916,1.37,-2.38,-0.43,-1.83,-0.04,-0.48,
4.917,0.14,-3.56,1.36,-1.83,-0.04,-0.48,
4.917,0.14,-3.56,1.36,-1.82,0.11,-0.42,
4.919,0.14,-3.56,1.36,-1.81,0.22,-0.35,
4.92,0.14,-3.56,1.36,-1.81,0.30,-0.28,
4.922,0.14,-3.56,1.36,-1.82,0.34,-0.20,
4.923,0.14,-3.56,1.36,-1.83,0.35,-0.11,
4.926,-0.80,-4.23,-1.48,-1.83,0.35,-0.11,
4.926,-0.80,-4.23,-1.48,-1.85,0.33,-0.02,
4.928,-0.80,-4.23,-1.48,-1.86,0.29,0.08,
4.929,-0.80,-4.23,-1.48,-1.87,0.23,0.17,
4.933,-0.80,-4.23,-1.48,-1.87,0.16,0.26,
4.935,-0.80,-4.23,-1.48,-1.87,0.09,0.35,
4.936,-1.95,-3.79,-3.29,-1.87,0.09,0.35,
4.958,-1.95,-3.79,-3.29,-1.86,0.03,0.44,
4.958,-1.95,-3.79,-3.29,-1.86,-0.03,0.52,
4.958,-1.95,-3.79,-3.29,-1.85,-0.09,0.59,
4.958,-1.95,-3.79,-3.29,-1.85,-0.14,0.65,
4.959,-1.95,-3.79,-3.29,-1.84,-0.17,0.71,
4.959,-2.61,-3.02,-3.28,-1.84,-0.17,0.71,
4.959,-2.61,-3.02,-3.28,-1.83,-0.19,0.75,
