
time,ax,ay,az,wx,wy,wz,
0.001,0.70,-0.50,-0.93,-0.55,0.08,-0.16,
0.002,0.70,-0.50,-0.93,-0.57,0.10,-0.17,
0.002,0.70,-0.50,-0.93,-0.58,0.11,-0.19,
0.002,0.70,-0.50,-0.93,-0.59,0.11,-0.20,
0.002,0.70,-0.50,-0.93,-0.59,0.11,-0.20,
0.003,0.70,-0.50,-0.93,-0.60,0.09,-0.21,
0.005,0.10,-0.55,-0.26,-0.60,0.09,-0.21,
0.005,0.10,-0.55,-0.26,-0.59,0.08,-0.21,
0.009,0.10,-0.55,-0.26,-0.59,0.05,-0.21,
0.01,0.10,-0.55,-0.26,-0.58,0.01,-0.20,
0.011,0.10,-0.55,-0.26,-0.58,0.00,-0.20,
0.013,0.10,-0.55,-0.26,-0.56,-0.03,-0.19,
0.015,-0.42,-0.40,0.67,-0.56,-0.03,-0.19,
0.015,-0.42,-0.40,0.67,-0.55,-0.06,-0.18,
0.017,-0.42,-0.40,0.67,-0.52,-0.09,-0.17,
0.02,-0.42,-0.40,0.67,-0.49,-0.14,-0.15,
0.021,-0.42,-0.40,0.67,-0.47,-0.15,-0.14,
0.035,-0.42,-0.40,0.67,-0.44,-0.19,-0.13,
0.036,-0.45,-0.23,1.51,-0.44,-0.19,-0.13,
0.036,-0.45,-0.23,1.51,-0.41,-0.24,-0.12,
0.036,-0.45,-0.23,1.51,-0.38,-0.28,-0.10,
0.037,-0.45,-0.23,1.51,-0.34,-0.34,-0.08,
0.037,-0.45,-0.23,1.51,-0.33,-0.36,-0.08,
0.037,-0.45,-0.23,1.51,-0.31,-0.40,-0.07,
0.037,-0.58,-0.22,1.55,-0.31,-0.40,-0.07,
0.037,-0.58,-0.22,1.55,-0.29,-0.43,-0.06,
0.038,-0.58,-0.22,1.55,-0.28,-0.46,-0.05,
0.041,-0.58,-0.22,1.55,-0.27,-0.50,-0.04,
0.041,-0.58,-0.22,1.55,-0.27,-0.51,-0.04,
0.043,-0.58,-0.22,1.55,-0.27,-0.52,-0.03,
0.045,-0.53,-0.28,0.88,-0.27,-0.52,-0.03,
0.046,-0.53,-0.28,0.88,-0.28,-0.54,-0.02,
0.048,-0.53,-0.28,0.88,-0.30,-0.55,-0.02,
0.05,-0.53,-0.28,0.88,-0.35,-0.55,-0.01,
0.051,-0.53,-0.28,0.88,-0.37,-0.55,-0.00,
0.053,-0.53,-0.28,0.88,-0.42,-0.54,-0.00,
0.062,-0.93,-0.45,-0.96,-0.42,-0.54,-0.00,
0.062,-0.93,-0.45,-0.96,-0.47,-0.50,0.01,
0.062,-0.93,-0.45,-0.96,-0.54,-0.44,0.02,
0.062,-0.93,-0.45,-0.96,-0.64,-0.34,0.03,
0.063,-0.93,-0.45,-0.96,-0.67,-0.31,0.03,
0.063,-0.93,-0.45,-0.96,-0.74,-0.24,0.02,
0.065,-0.91,-0.84,-2.86,-0.74,-0.24,0.02,
0.065,-0.91,-0.84,-2.86,-0.81,-0.17,-0.00,
0.067,-0.91,-0.84,-2.86,-0.88,-0.09,-0.02,
0.07,-0.91,-0.84,-2.86,-0.99,0.03,-0.07,
0.071,-0.91,-0.84,-2.86,-1.02,0.07,-0.09,
0.073,-0.91,-0.84,-2.86,-1.09,0.15,-0.13,
0.075,0.30,-0.83,-4.16,-1.09,0.15,-0.13,
0.075,0.30,-0.83,-4.16,-1.15,0.23,-0.18,
0.077,0.30,-0.83,-4.16,-1.21,0.31,-0.23,
0.08,0.30,-0.83,-4.16,-1.30,0.42,-0.31,
0.081,0.30,-0.83,-4.16,-1.33,0.46,-0.34,
0.084,0.30,-0.83,-4.16,-1.38,0.53,-0.39,
0.085,1.10,-0.57,-4.38,-1.38,0.53,-0.39,
0.086,1.10,-0.57,-4.38,-1.42,0.59,-0.45,
0.087,1.10,-0.57,-4.38,-1.46,0.66,-0.50,
0.092,1.10,-0.57,-4.38,-1.49,0.77,-0.55,
0.093,1.10,-0.57,-4.38,-1.50,0.81,-0.56,
0.093,1.10,-0.57,-4.38,-1.51,0.89,-0.58,
0.097,0.44,-0.01,-3.31,-1.51,0.89,-0.58,
0.098,0.44,-0.01,-3.31,-1.51,0.96,-0.59,
0.098,0.44,-0.01,-3.31,-1.50,1.05,-0.59,
0.1,0.44,-0.01,-3.31,-1.49,1.19,-0.59,
0.101,0.44,-0.01,-3.31,-1.48,1.24,-0.59,
0.103,0.44,-0.01,-3.31,-1.46,1.35,-0.58,
0.107,-0.77,0.09,-1.84,-1.46,1.35,-0.58,
0.108,-0.77,0.09,-1.84,-1.44,1.46,-0.57,
0.109,-0.77,0.09,-1.84,-1.42,1.57,-0.56,
0.11,-0.77,0.09,-1.84,-1.37,1.72,-0.53,
0.112,-0.77,0.09,-1.84,-1.36,1.76,-0.53,
0.113,-0.77,0.09,-1.84,-1.33,1.85,-0.51,
0.115,-2.02,-0.22,-0.56,-1.33,1.85,-0.51,
0.116,-2.02,-0.22,-0.56,-1.30,1.92,-0.50,
0.117,-2.02,-0.22,-0.56,-1.27,1.98,-0.49,
0.12,-2.02,-0.22,-0.56,-1.23,2.03,-0.46,
0.121,-2.02,-0.22,-0.56,-1.21,2.03,-0.45,
0.124,-2.02,-0.22,-0.56,-1.16,1.98,-0.43,
0.126,-2.37,-0.46,1.18,-1.16,1.98,-0.43,
0.126,-2.37,-0.46,1.18,-1.09,1.88,-0.41,
0.127,-2.37,-0.46,1.18,-1.00,1.73,-0.40,
0.13,-2.37,-0.46,1.18,-0.88,1.48,-0.38,
0.131,-2.37,-0.46,1.18,-0.85,1.40,-0.38,
0.133,-2.37,-0.46,1.18,-0.80,1.22,-0.37,
0.135,-1.47,-0.57,2.58,-0.80,1.22,-0.37,
0.136,-1.47,-0.57,2.58,-0.76,1.02,-0.37,
0.137,-1.47,-0.57,2.58,-0.73,0.79,-0.38,
0.141,-1.47,-0.57,2.58,-0.69,0.44,-0.38,
0.142,-1.47,-0.57,2.58,-0.68,0.33,-0.39,
0.144,-1.47,-0.57,2.58,-0.66,0.13,-0.40,
0.147,-1.19,-1.19,1.43,-0.66,0.13,-0.40,
0.147,-1.19,-1.19,1.43,-0.63,-0.05,-0.42,
0.147,-1.19,-1.19,1.43,-0.61,-0.20,-0.45,
0.15,-1.19,-1.19,1.43,-0.59,-0.39,-0.49,
0.151,-1.19,-1.19,1.43,-0.59,-0.44,-0.50,
0.153,-1.19,-1.19,1.43,-0.58,-0.52,-0.54,
0.169,-0.86,-1.60,0.55,-0.58,-0.52,-0.54,
0.17,-0.86,-1.60,0.55,-0.57,-0.56,-0.58,
0.17,-0.86,-1.60,0.55,-0.58,-0.58,-0.62,
0.171,-0.86,-1.60,0.55,-0.60,-0.58,-0.69,
0.171,-0.86,-1.60,0.55,-0.61,-0.56,-0.71,
0.171,-0.86,-1.60,0.55,-0.62,-0.52,-0.76,
0.172,-0.45,-1.07,-0.81,-0.62,-0.52,-0.76,
0.172,-0.45,-1.07,-0.81,-0.65,-0.47,-0.80,
0.172,-0.45,-1.07,-0.81,-0.68,-0.42,-0.85,
0.173,-0.45,-1.07,-0.81,-0.74,-0.34,-0.92,
0.173,-0.45,-1.07,-0.81,-0.76,-0.32,-0.94,
0.174,-0.45,-1.07,-0.81,-0.81,-0.28,-0.99,
0.177,-0.31,-0.36,-1.90,-0.81,-0.28,-0.99,
0.177,-0.31,-0.36,-1.90,-0.86,-0.25,-1.04,
0.196,-0.31,-0.36,-1.90,-0.91,-0.22,-1.08,
0.196,-0.31,-0.36,-1.90,-0.99,-0.17,-1.14,
0.197,-0.31,-0.36,-1.90,-1.02,-0.15,-1.15,
0.197,-0.31,-0.36,-1.90,-1.07,-0.10,-1.18,
0.197,-0.09,-0.24,-2.27,-1.07,-0.10,-1.18,
0.197,-0.09,-0.24,-2.27,-1.13,-0.05,-1.21,
0.197,-0.09,-0.24,-2.27,-1.23,0.02,-1.23,
0.198,-0.09,-0.24,-2.27,-1.28,0.09,-1.23,
0.198,-0.09,-0.24,-2.27,-1.31,0.13,-1.23,
0.198,-0.09,-0.24,-2.27,-1.35,0.21,-1.24,
0.198,0.45,-0.15,-1.97,-1.35,0.21,-1.24,
0.198,0.45,-0.15,-1.97,-1.38,0.30,-1.24,
0.198,0.45,-0.15,-1.97,-1.41,0.39,-1.24,
0.206,0.45,-0.15,-1.97,-1.43,0.57,-1.25,
0.207,0.45,-0.15,-1.97,-1.43,0.70,-1.26,
0.207,0.45,-0.15,-1.97,-1.42,1.00,-1.29,
0.224,0.42,-0.42,-2.07,-1.42,1.00,-1.29,
0.225,0.42,-0.42,-2.07,-1.40,1.23,-1.32,
0.227,0.42,-0.42,-2.07,-1.37,1.40,-1.34,
0.227,0.42,-0.42,-2.07,-1.34,1.60,-1.36,
0.227,0.42,-0.42,-2.07,-1.33,1.66,-1.37,
0.232,0.42,-0.42,-2.07,-1.30,1.77,-1.37,
0.26,0.05,-0.25,-1.26,-1.30,1.77,-1.37,
0.261,0.05,-0.25,-1.26,-1.27,1.87,-1.37,
0.261,0.05,-0.25,-1.26,-1.24,1.97,-1.37,
0.262,0.05,-0.25,-1.26,-1.17,2.09,-1.34,
0.262,0.05,-0.25,-1.26,-1.15,2.12,-1.33,
0.263,0.05,-0.25,-1.26,-1.09,2.15,-1.29,
0.263,-0.97,0.33,0.90,-1.09,2.15,-1.29,
0.263,-0.97,0.33,0.90,-1.01,2.15,-1.25,
0.264,-0.97,0.33,0.90,-0.93,2.13,-1.21,
0.264,-0.97,0.33,0.90,-0.82,2.00,-1.12,
0.265,-0.97,0.33,0.90,-0.80,1.90,-1.09,
0.265,-0.97,0.33,0.90,-0.79,1.60,-1.03,
0.265,-2.22,0.58,2.65,-0.79,1.60,-1.03,
0.266,-2.22,0.58,2.65,-0.79,1.28,-0.96,
0.266,-2.22,0.58,2.65,-0.79,1.07,-0.88,
0.267,-2.22,0.58,2.65,-0.72,0.92,-0.79,
0.267,-2.22,0.58,2.65,-0.69,0.88,-0.76,
0.268,-2.22,0.58,2.65,-0.62,0.80,-0.70,
0.268,-2.51,-0.04,3.43,-0.62,0.80,-0.70,
0.268,-2.51,-0.04,3.43,-0.55,0.69,-0.66,
0.269,-2.51,-0.04,3.43,-0.50,0.58,-0.63,
0.269,-2.51,-0.04,3.43,-0.44,0.39,-0.60,
0.27,-2.51,-0.04,3.43,-0.42,0.34,-0.59,
0.27,-2.51,-0.04,3.43,-0.40,0.24,-0.58,
0.27,-1.56,-0.77,2.24,-0.40,0.24,-0.58,
0.271,-1.56,-0.77,2.24,-0.39,0.17,-0.57,
0.271,-1.56,-0.77,2.24,-0.38,0.10,-0.57,
0.272,-1.56,-0.77,2.24,-0.39,0.01,-0.59,
0.272,-1.56,-0.77,2.24,-0.39,-0.01,-0.60,
0.273,-1.56,-0.77,2.24,-0.41,-0.06,-0.61,
0.273,0.03,-0.75,0.73,-0.41,-0.06,-0.61,
0.273,0.03,-0.75,0.73,-0.43,-0.08,-0.64,
0.274,0.03,-0.75,0.73,-0.46,-0.08,-0.67,
0.274,0.03,-0.75,0.73,-0.50,-0.07,-0.72,
0.275,0.03,-0.75,0.73,-0.51,-0.07,-0.74,
0.275,0.03,-0.75,0.73,-0.54,-0.06,-0.77,
0.289,1.05,-0.69,-0.17,-0.54,-0.06,-0.77,
0.29,1.05,-0.69,-0.17,-0.58,-0.06,-0.80,
0.29,1.05,-0.69,-0.17,-0.61,-0.06,-0.83,
0.291,1.05,-0.69,-0.17,-0.68,-0.06,-0.88,
0.291,1.05,-0.69,-0.17,-0.70,-0.06,-0.89,
0.291,1.05,-0.69,-0.17,-0.74,-0.06,-0.92,
0.292,1.22,-0.80,-1.09,-0.74,-0.06,-0.92,
0.292,1.22,-0.80,-1.09,-0.80,-0.05,-0.95,
0.293,1.22,-0.80,-1.09,-0.84,-0.04,-0.98,
0.293,1.22,-0.80,-1.09,-0.93,-0.03,-1.03,
0.293,1.22,-0.80,-1.09,-0.95,-0.02,-1.05,
0.294,1.22,-0.80,-1.09,-1.01,0.01,-1.08,
0.295,1.23,-1.06,-1.88,-1.01,0.01,-1.08,
0.296,1.23,-1.06,-1.88,-1.06,0.04,-1.12,
0.297,1.23,-1.06,-1.88,-1.12,0.07,-1.15,
0.3,1.23,-1.06,-1.88,-1.20,0.13,-1.22,
0.302,1.23,-1.06,-1.88,-1.22,0.15,-1.24,
0.303,1.23,-1.06,-1.88,-1.27,0.21,-1.28,
0.318,1.12,-1.06,-2.09,-1.27,0.21,-1.28,
0.319,1.12,-1.06,-2.09,-1.32,0.27,-1.32,
0.319,1.12,-1.06,-2.09,-1.36,0.33,-1.36,
0.319,1.12,-1.06,-2.09,-1.42,0.44,-1.43,
0.32,1.12,-1.06,-2.09,-1.45,0.47,-1.45,
0.32,1.12,-1.06,-2.09,-1.48,0.54,-1.50,
0.32,1.03,-1.13,-1.45,-1.48,0.54,-1.50,
0.321,1.03,-1.13,-1.45,-1.52,0.61,-1.56,
0.321,1.03,-1.13,-1.45,-1.55,0.68,-1.61,
0.321,1.03,-1.13,-1.45,-1.60,0.78,-1.70,
0.322,1.03,-1.13,-1.45,-1.62,0.81,-1.74,
0.34,1.03,-1.13,-1.45,-1.65,0.86,-1.80,
0.34,1.09,-1.53,-0.76,-1.65,0.86,-1.80,
0.341,1.09,-1.53,-0.76,-1.69,0.91,-1.87,
0.341,1.09,-1.53,-0.76,-1.72,0.94,-1.94,
0.341,1.09,-1.53,-0.76,-1.77,0.98,-2.06,
0.342,1.09,-1.53,-0.76,-1.79,0.98,-2.09,
0.342,1.09,-1.53,-0.76,-1.83,1.00,-2.17,
0.342,1.14,-2.16,-0.51,-1.83,1.00,-2.17,
0.343,1.14,-2.16,-0.51,-1.87,1.01,-2.25,
0.343,1.14,-2.16,-0.51,-1.90,1.03,-2.33,
0.343,1.14,-2.16,-0.51,-1.95,1.04,-2.44,
0.344,1.14,-2.16,-0.51,-1.96,1.04,-2.48,
0.344,1.14,-2.16,-0.51,-1.99,1.06,-2.56,
0.348,0.98,-2.43,0.04,-1.99,1.06,-2.56,
0.348,0.98,-2.43,0.04,-2.01,1.07,-2.63,
0.349,0.98,-2.43,0.04,-2.02,1.09,-2.70,
0.35,0.98,-2.43,0.04,-2.03,1.11,-2.81,
0.352,0.98,-2.43,0.04,-2.03,1.12,-2.84,
0.353,0.98,-2.43,0.04,-2.02,1.13,-2.90,
0.376,0.70,-2.21,0.75,-2.02,1.13,-2.90,
0.377,0.70,-2.21,0.75,-2.00,1.13,-2.96,
0.377,0.70,-2.21,0.75,-1.98,1.13,-3.02,
0.377,0.70,-2.21,0.75,-1.94,1.11,-3.09,
0.377,0.70,-2.21,0.75,-1.93,1.11,-3.11,
0.378,0.70,-2.21,0.75,-1.89,1.11,-3.15,
0.378,0.33,-1.51,1.14,-1.89,1.11,-3.15,
0.378,0.33,-1.51,1.14,-1.85,1.11,-3.19,
0.378,0.33,-1.51,1.14,-1.81,1.11,-3.22,
0.379,0.33,-1.51,1.14,-1.72,1.09,-3.24,
0.379,0.33,-1.51,1.14,-1.69,1.08,-3.24,
0.379,0.33,-1.51,1.14,-1.63,1.05,-3.24,
0.379,-0.04,-0.73,1.85,-1.63,1.05,-3.24,
0.379,-0.04,-0.73,1.85,-1.56,1.04,-3.23,
0.379,-0.04,-0.73,1.85,-1.48,1.02,-3.21,
0.389,-0.04,-0.73,1.85,-1.36,0.97,-3.16,
0.411,-0.04,-0.73,1.85,-1.32,0.95,-3.14,
0.411,-0.04,-0.73,1.85,-1.24,0.91,-3.10,
0.411,-0.27,-0.11,2.16,-1.24,0.91,-3.10,
0.411,-0.27,-0.11,2.16,-1.16,0.87,-3.04,
0.412,-0.27,-0.11,2.16,-1.08,0.83,-2.98,
0.412,-0.27,-0.11,2.16,-0.97,0.76,-2.87,
0.412,-0.27,-0.11,2.16,-0.94,0.73,-2.83,
0.412,-0.27,-0.11,2.16,-0.87,0.68,-2.74,
0.412,-0.53,-0.01,1.85,-0.87,0.68,-2.74,
0.413,-0.53,-0.01,1.85,-0.80,0.63,-2.65,
0.413,-0.53,-0.01,1.85,-0.74,0.58,-2.56,
0.413,-0.53,-0.01,1.85,-0.65,0.52,-2.41,
0.413,-0.53,-0.01,1.85,-0.62,0.50,-2.37,
0.413,-0.53,-0.01,1.85,-0.57,0.44,-2.28,
0.414,-0.48,-0.60,1.05,-0.57,0.44,-2.28,
0.414,-0.48,-0.60,1.05,-0.55,0.36,-2.21,
0.414,-0.48,-0.60,1.05,-0.55,0.27,-2.15,
0.414,-0.48,-0.60,1.05,-0.58,0.15,-2.09,
0.414,-0.48,-0.60,1.05,-0.59,0.12,-2.07,
0.415,-0.48,-0.60,1.05,-0.62,0.10,-2.04,
0.421,1.14,-1.72,-1.40,-0.62,0.10,-2.04,
0.422,1.14,-1.72,-1.40,-0.66,0.12,-2.02,
0.422,1.14,-1.72,-1.40,-0.69,0.15,-2.00,
0.422,1.14,-1.72,-1.40,-0.76,0.22,-1.99,
0.422,1.14,-1.72,-1.40,-0.79,0.25,-1.99,
0.432,1.14,-1.72,-1.40,-0.85,0.31,-1.99,
0.432,1.31,-1.96,-1.37,-0.85,0.31,-1.99,
0.432,1.31,-1.96,-1.37,-0.91,0.37,-2.01,
0.433,1.31,-1.96,-1.37,-0.98,0.42,-2.04,
0.433,1.31,-1.96,-1.37,-1.08,0.50,-2.10,
0.433,1.31,-1.96,-1.37,-1.11,0.52,-2.13,
0.433,1.31,-1.96,-1.37,-1.17,0.55,-2.18,
0.435,2.26,-1.59,-1.31,-1.17,0.55,-2.18,
0.436,2.26,-1.59,-1.31,-1.23,0.57,-2.24,
0.459,2.26,-1.59,-1.31,-1.29,0.57,-2.30,
0.459,2.26,-1.59,-1.31,-1.36,0.56,-2.39,
0.459,2.26,-1.59,-1.31,-1.39,0.55,-2.41,
0.46,2.26,-1.59,-1.31,-1.43,0.53,-2.47,
0.46,2.60,-1.51,-0.59,-1.43,0.53,-2.47,
0.46,2.60,-1.51,-0.59,-1.47,0.50,-2.52,
0.46,2.60,-1.51,-0.59,-1.51,0.46,-2.57,
0.461,2.60,-1.51,-0.59,-1.57,0.38,-2.64,
0.461,2.60,-1.51,-0.59,-1.59,0.35,-2.66,
0.461,2.60,-1.51,-0.59,-1.64,0.27,-2.70,
0.461,2.37,-1.44,0.27,-1.64,0.27,-2.70,
0.461,2.37,-1.44,0.27,-1.68,0.19,-2.73,
0.461,2.37,-1.44,0.27,-1.73,0.10,-2.77,
0.462,2.37,-1.44,0.27,-1.81,-0.03,-2.81,
0.462,2.37,-1.44,0.27,-1.83,-0.08,-2.83,
0.464,2.37,-1.44,0.27,-1.88,-0.18,-2.86,
0.465,1.89,-1.25,0.55,-1.88,-0.18,-2.86,
0.465,1.89,-1.25,0.55,-1.94,-0.27,-2.89,
0.468,1.89,-1.25,0.55,-1.99,-0.36,-2.93,
0.47,1.89,-1.25,0.55,-2.07,-0.48,-2.97,
0.483,1.89,-1.25,0.55,-2.10,-0.52,-2.99,
0.483,1.89,-1.25,0.55,-2.16,-0.59,-3.02,
0.484,1.61,-1.10,0.40,-2.16,-0.59,-3.02,
0.484,1.61,-1.10,0.40,-2.22,-0.65,-3.05,
0.484,1.61,-1.10,0.40,-2.28,-0.70,-3.08,
0.484,1.61,-1.10,0.40,-2.37,-0.76,-3.11,
0.484,1.61,-1.10,0.40,-2.40,-0.78,-3.12,
0.485,1.61,-1.10,0.40,-2.45,-0.82,-3.13,
0.486,1.17,-0.62,0.53,-2.45,-0.82,-3.13,
0.486,1.17,-0.62,0.53,-2.51,-0.85,-3.14,
0.502,1.17,-0.62,0.53,-2.55,-0.90,-3.14,
0.502,1.17,-0.62,0.53,-2.62,-0.96,-3.13,
0.503,1.17,-0.62,0.53,-2.64,-0.98,-3.12,
0.503,1.17,-0.62,0.53,-2.67,-1.03,-3.10,
0.504,0.37,-0.14,1.15,-2.67,-1.03,-3.10,
0.504,0.37,-0.14,1.15,-2.70,-1.07,-3.08,
0.504,0.37,-0.14,1.15,-2.72,-1.11,-3.05,
0.505,0.37,-0.14,1.15,-2.73,-1.15,-2.98,
0.506,0.37,-0.14,1.15,-2.73,-1.17,-2.96,
0.507,0.37,-0.14,1.15,-2.73,-1.19,-2.91,
0.508,-0.90,0.52,2.41,-2.73,-1.19,-2.91,
0.508,-0.90,0.52,2.41,-2.73,-1.23,-2.85,
0.508,-0.90,0.52,2.41,-2.71,-1.26,-2.79,
0.517,-0.90,0.52,2.41,-2.68,-1.32,-2.69,
0.517,-0.90,0.52,2.41,-2.66,-1.35,-2.66,
0.517,-0.90,0.52,2.41,-2.63,-1.40,-2.60,
0.518,-1.66,1.16,3.68,-2.63,-1.40,-2.60,
0.518,-1.66,1.16,3.68,-2.60,-1.46,-2.54,
0.518,-1.66,1.16,3.68,-2.56,-1.52,-2.48,
0.541,-1.66,1.16,3.68,-2.50,-1.63,-2.40,
0.542,-1.66,1.16,3.68,-2.48,-1.67,-2.38,
0.542,-1.66,1.16,3.68,-2.44,-1.75,-2.33,
0.543,-1.69,1.38,4.42,-2.44,-1.75,-2.33,
0.543,-1.69,1.38,4.42,-2.39,-1.82,-2.29,
0.544,-1.69,1.38,4.42,-2.35,-1.89,-2.26,
0.544,-1.69,1.38,4.42,-2.29,-2.00,-2.23,
0.544,-1.69,1.38,4.42,-2.27,-2.03,-2.22,
0.545,-1.69,1.38,4.42,-2.24,-2.09,-2.21,
0.545,-1.00,1.42,4.75,-2.24,-2.09,-2.21,
0.546,-1.00,1.42,4.75,-2.21,-2.15,-2.20,
0.546,-1.00,1.42,4.75,-2.16,-2.22,-2.20,
0.547,-1.00,1.42,4.75,-2.13,-2.26,-2.19,
0.547,-1.00,1.42,4.75,-2.12,-2.28,-2.19,
0.547,-1.00,1.42,4.75,-2.10,-2.31,-2.19,
0.548,-0.69,1.50,4.48,-2.10,-2.31,-2.19,
0.548,-0.69,1.50,4.48,-2.08,-2.34,-2.19,
0.571,-0.69,1.50,4.48,-2.06,-2.37,-2.18,
0.571,-0.69,1.50,4.48,-2.04,-2.40,-2.17,
0.572,-0.69,1.50,4.48,-2.03,-2.41,-2.16,
0.572,-0.69,1.50,4.48,-2.02,-2.42,-2.15,
0.572,-0.83,1.60,3.94,-2.02,-2.42,-2.15,
0.573,-0.83,1.60,3.94,-2.01,-2.43,-2.14,
0.573,-0.83,1.60,3.94,-1.99,-2.44,-2.12,
0.573,-0.83,1.60,3.94,-1.98,-2.45,-2.10,
0.574,-0.83,1.60,3.94,-1.97,-2.45,-2.09,
0.574,-0.83,1.60,3.94,-1.96,-2.45,-2.07,
0.574,-0.79,1.51,3.32,-1.96,-2.45,-2.07,
0.574,-0.79,1.51,3.32,-1.95,-2.45,-2.06,
0.575,-0.79,1.51,3.32,-1.94,-2.44,-2.03,
0.575,-0.79,1.51,3.32,-1.92,-2.41,-2.00,
0.575,-0.79,1.51,3.32,-1.92,-2.40,-1.99,
0.576,-0.79,1.51,3.32,-1.91,-2.38,-1.97,
0.576,-1.08,1.63,2.87,-1.91,-2.38,-1.97,
0.576,-1.08,1.63,2.87,-1.89,-2.35,-1.94,
0.585,-1.08,1.63,2.87,-1.88,-2.33,-1.92,
0.585,-1.08,1.63,2.87,-1.85,-2.29,-1.89,
0.586,-1.08,1.63,2.87,-1.84,-2.29,-1.88,
0.586,-1.08,1.63,2.87,-1.83,-2.27,-1.85,
0.586,-1.32,1.47,2.48,-1.83,-2.27,-1.85,
0.586,-1.32,1.47,2.48,-1.81,-2.26,-1.83,
0.587,-1.32,1.47,2.48,-1.80,-2.25,-1.81,
0.592,-1.32,1.47,2.48,-1.78,-2.24,-1.77,
0.592,-1.32,1.47,2.48,-1.77,-2.24,-1.76,
0.593,-1.32,1.47,2.48,-1.76,-2.24,-1.74,
0.595,-1.42,1.26,2.14,-1.76,-2.24,-1.74,
0.595,-1.42,1.26,2.14,-1.76,-2.24,-1.71,
0.597,-1.42,1.26,2.14,-1.75,-2.24,-1.68,
0.6,-1.42,1.26,2.14,-1.74,-2.25,-1.64,
0.601,-1.42,1.26,2.14,-1.74,-2.25,-1.62,
0.604,-1.42,1.26,2.14,-1.74,-2.27,-1.59,
0.605,-1.84,1.18,1.74,-1.74,-2.27,-1.59,
0.606,-1.84,1.18,1.74,-1.73,-2.29,-1.56,
0.607,-1.84,1.18,1.74,-1.73,-2.30,-1.53,
0.61,-1.84,1.18,1.74,-1.73,-2.31,-1.50,
0.611,-1.84,1.18,1.74,-1.73,-2.31,-1.49,
0.613,-1.84,1.18,1.74,-1.73,-2.31,-1.48,
0.615,-2.23,0.92,1.49,-1.73,-2.31,-1.48,
0.615,-2.23,0.92,1.49,-1.73,-2.31,-1.47,
0.617,-2.23,0.92,1.49,-1.74,-2.31,-1.47,
0.62,-2.23,0.92,1.49,-1.74,-2.31,-1.47,
0.621,-2.23,0.92,1.49,-1.74,-2.31,-1.47,
0.624,-2.23,0.92,1.49,-1.74,-2.32,-1.47,
0.625,-1.97,0.90,1.40,-1.74,-2.32,-1.47,
0.625,-1.97,0.90,1.40,-1.74,-2.32,-1.47,
0.627,-1.97,0.90,1.40,-1.73,-2.34,-1.46,
0.63,-1.97,0.90,1.40,-1.72,-2.36,-1.44,
0.631,-1.97,0.90,1.40,-1.71,-2.37,-1.43,
0.633,-1.97,0.90,1.40,-1.69,-2.39,-1.41,
0.635,-2.51,1.08,1.56,-1.69,-2.39,-1.41,
0.635,-2.51,1.08,1.56,-1.67,-2.41,-1.38,
0.637,-2.51,1.08,1.56,-1.64,-2.42,-1.34,
0.64,-2.51,1.08,1.56,-1.58,-2.43,-1.28,
0.642,-2.51,1.08,1.56,-1.56,-2.43,-1.26,
0.644,-2.51,1.08,1.56,-1.51,-2.43,-1.21,
0.645,-3.31,1.31,2.33,-1.51,-2.43,-1.21,
0.645,-3.31,1.31,2.33,-1.46,-2.43,-1.16,
0.647,-3.31,1.31,2.33,-1.40,-2.42,-1.10,
0.65,-3.31,1.31,2.33,-1.31,-2.40,-1.01,
0.651,-3.31,1.31,2.33,-1.25,-2.38,-0.94,
0.653,-3.31,1.31,2.33,-1.21,-2.37,-0.91,
0.655,-4.33,1.59,2.75,-1.21,-2.37,-0.91,
0.655,-4.33,1.59,2.75,-1.15,-2.35,-0.84,
0.657,-4.33,1.59,2.75,-1.08,-2.32,-0.77,
0.66,-4.33,1.59,2.75,-0.97,-2.26,-0.67,
0.661,-4.33,1.59,2.75,-0.90,-2.21,-0.59,
0.663,-4.33,1.59,2.75,-0.87,-2.18,-0.55,
0.665,-4.87,1.57,2.75,-0.87,-2.18,-0.55,
0.665,-4.87,1.57,2.75,-0.79,-2.12,-0.48,
0.667,-4.87,1.57,2.75,-0.72,-2.05,-0.41,
0.678,-4.87,1.57,2.75,-0.61,-1.94,-0.31,
0.679,-4.87,1.57,2.75,-0.57,-1.90,-0.28,
0.679,-4.87,1.57,2.75,-0.50,-1.82,-0.21,
0.679,-5.06,1.54,2.59,-0.50,-1.82,-0.21,
0.68,-5.06,1.54,2.59,-0.42,-1.73,-0.15,
0.68,-5.06,1.54,2.59,-0.35,-1.65,-0.09,
0.68,-5.06,1.54,2.59,-0.25,-1.53,-0.00,
0.684,-5.06,1.54,2.59,-0.22,-1.49,0.02,
0.685,-5.06,1.54,2.59,-0.17,-1.41,0.07,
0.685,-4.51,0.92,1.88,-0.17,-1.41,0.07,
0.685,-4.51,0.92,1.88,-0.13,-1.34,0.11,
0.695,-4.51,0.92,1.88,-0.09,-1.28,0.15,
0.695,-4.51,0.92,1.88,-0.06,-1.18,0.20,
0.695,-4.51,0.92,1.88,-0.06,-1.16,0.21,
0.695,-4.51,0.92,1.88,-0.06,-1.11,0.24,
0.695,-3.40,-0.04,0.39,-0.06,-1.11,0.24,
0.696,-3.40,-0.04,0.39,-0.07,-1.06,0.26,
0.697,-3.40,-0.04,0.39,-0.10,-1.03,0.28,
0.7,-3.40,-0.04,0.39,-0.16,-0.97,0.30,
0.701,-3.40,-0.04,0.39,-0.18,-0.95,0.30,
0.703,-3.40,-0.04,0.39,-0.24,-0.92,0.31,
0.705,-2.48,-0.51,-1.19,-0.24,-0.92,0.31,
0.705,-2.48,-0.51,-1.19,-0.30,-0.90,0.31,
0.707,-2.48,-0.51,-1.19,-0.36,-0.88,0.31,
0.71,-2.48,-0.51,-1.19,-0.46,-0.87,0.30,
0.711,-2.48,-0.51,-1.19,-0.52,-0.87,0.29,
0.713,-2.48,-0.51,-1.19,-0.55,-0.87,0.28,
0.735,-1.96,-0.53,-1.76,-0.55,-0.87,0.28,
0.735,-1.96,-0.53,-1.76,-0.61,-0.89,0.27,
0.735,-1.96,-0.53,-1.76,-0.66,-0.91,0.26,
0.735,-1.96,-0.53,-1.76,-0.75,-0.95,0.24,
0.735,-1.96,-0.53,-1.76,-0.78,-0.97,0.23,
0.735,-1.96,-0.53,-1.76,-0.83,-1.01,0.22,
0.735,-1.05,-0.54,-2.10,-0.83,-1.01,0.22,
0.735,-1.05,-0.54,-2.10,-0.89,-1.03,0.19,
0.736,-1.05,-0.54,-2.10,-0.94,-1.06,0.13,
0.736,-1.05,-0.54,-2.10,-1.01,-1.09,0.02,
0.736,-1.05,-0.54,-2.10,-1.02,-1.09,-0.01,
0.736,-1.05,-0.54,-2.10,-1.05,-1.08,-0.06,
0.736,0.72,-0.91,-2.02,-1.05,-1.08,-0.06,
0.736,0.72,-0.91,-2.02,-1.07,-1.07,-0.10,
0.74,0.72,-0.91,-2.02,-1.08,-1.08,-0.12,
0.74,0.72,-0.91,-2.02,-1.07,-1.08,-0.13,
0.741,0.72,-0.91,-2.02,-1.07,-1.07,-0.13,
0.743,0.72,-0.91,-2.02,-1.06,-1.05,-0.11,
0.745,-0.56,0.62,-1.83,-1.06,-1.05,-0.11,
0.745,-0.56,0.62,-1.83,-1.05,-1.02,-0.09,
0.747,-0.56,0.62,-1.83,-1.02,-0.98,-0.05,
0.75,-0.56,0.62,-1.83,-0.99,-0.90,0.04,
0.751,-0.56,0.62,-1.83,-0.97,-0.87,0.07,
0.753,-0.56,0.62,-1.83,-0.95,-0.78,0.14,
0.755,-1.86,1.14,-2.01,-0.95,-0.78,0.14,
0.755,-1.86,1.14,-2.01,-0.92,-0.68,0.22,
0.757,-1.86,1.14,-2.01,-0.88,-0.58,0.29,
0.76,-1.86,1.14,-2.01,-0.83,-0.42,0.41,
0.761,-1.86,1.14,-2.01,-0.82,-0.37,0.45,
0.763,-1.86,1.14,-2.01,-0.78,-0.27,0.52,
0.765,-1.23,1.27,-1.51,-0.78,-0.27,0.52,
0.765,-1.23,1.27,-1.51,-0.75,-0.17,0.57,
0.767,-1.23,1.27,-1.51,-0.71,-0.07,0.62,
0.77,-1.23,1.27,-1.51,-0.66,0.08,0.68,
0.771,-1.23,1.27,-1.51,-0.64,0.13,0.69,
0.773,-1.23,1.27,-1.51,-0.61,0.22,0.72,
0.775,0.47,1.56,-1.04,-0.61,0.22,0.72,
0.776,0.47,1.56,-1.04,-0.58,0.32,0.73,
0.777,0.47,1.56,-1.04,-0.55,0.41,0.75,
0.78,0.47,1.56,-1.04,-0.50,0.56,0.76,
0.781,0.47,1.56,-1.04,-0.49,0.61,0.76,
0.783,0.47,1.56,-1.04,-0.45,0.70,0.76,
0.793,1.35,1.34,-0.18,-0.45,0.70,0.76,
0.794,1.35,1.34,-0.18,-0.41,0.79,0.75,
0.794,1.35,1.34,-0.18,-0.36,0.86,0.73,
0.795,1.35,1.34,-0.18,-0.23,0.94,0.68,
0.795,1.35,1.34,-0.18,-0.14,0.98,0.64,
0.795,1.35,1.34,-0.18,-0.10,0.99,0.62,
0.797,2.77,1.12,2.45,-0.10,0.99,0.62,
0.797,2.77,1.12,2.45,-0.02,1.01,0.56,
0.814,2.77,1.12,2.45,0.05,1.02,0.51,
0.815,2.77,1.12,2.45,0.15,1.03,0.42,
0.816,2.77,1.12,2.45,0.20,1.05,0.37,
0.817,2.77,1.12,2.45,0.23,1.06,0.35,
0.817,3.10,0.85,2.68,0.23,1.06,0.35,
0.818,3.10,0.85,2.68,0.28,1.09,0.30,
0.818,3.10,0.85,2.68,0.32,1.13,0.26,
0.818,3.10,0.85,2.68,0.39,1.18,0.20,
0.819,3.10,0.85,2.68,0.43,1.21,0.17,
0.819,3.10,0.85,2.68,0.46,1.22,0.16,
0.822,2.63,0.85,3.39,0.46,1.22,0.16,
0.823,2.63,0.85,3.39,0.50,1.22,0.14,
0.824,2.63,0.85,3.39,0.54,1.18,0.12,
0.824,2.63,0.85,3.39,0.59,1.05,0.10,
0.824,2.63,0.85,3.39,0.61,0.92,0.09,
0.825,2.63,0.85,3.39,0.61,0.84,0.08,
0.826,2.94,0.78,3.71,0.61,0.84,0.08,
0.826,2.94,0.78,3.71,0.61,0.66,0.05,
0.827,2.94,0.78,3.71,0.60,0.48,0.01,
0.834,2.94,0.78,3.71,0.55,0.21,-0.07,
0.836,2.94,0.78,3.71,0.50,0.04,-0.13,
0.836,2.94,0.78,3.71,0.46,-0.04,-0.17,
0.84,3.89,0.43,2.34,0.46,-0.04,-0.17,
0.84,3.89,0.43,2.34,0.39,-0.18,-0.24,
0.841,3.89,0.43,2.34,0.30,-0.31,-0.31,
0.841,3.89,0.43,2.34,0.17,-0.50,-0.42,
0.842,3.89,0.43,2.34,0.07,-0.62,-0.48,
0.845,3.89,0.43,2.34,0.03,-0.68,-0.51,
0.847,3.92,0.22,1.12,0.03,-0.68,-0.51,
0.848,3.92,0.22,1.12,-0.06,-0.80,-0.56,
0.849,3.92,0.22,1.12,-0.13,-0.91,-0.60,
0.85,3.92,0.22,1.12,-0.23,-1.07,-0.65,
0.852,3.92,0.22,1.12,-0.28,-1.15,-0.68,
0.857,3.92,0.22,1.12,-0.30,-1.18,-0.70,
0.858,3.31,0.40,1.22,-0.30,-1.18,-0.70,
0.858,3.31,0.40,1.22,-0.33,-1.24,-0.72,
0.858,3.31,0.40,1.22,-0.36,-1.28,-0.74,
0.86,3.31,0.40,1.22,-0.37,-1.29,-0.77,
0.862,3.31,0.40,1.22,-0.36,-1.28,-0.78,
0.866,3.31,0.40,1.22,-0.35,-1.27,-0.79,
0.867,2.53,0.55,1.90,-0.35,-1.27,-0.79,
0.867,2.53,0.55,1.90,-0.33,-1.24,-0.80,
0.867,2.53,0.55,1.90,-0.30,-1.20,-0.81,
0.872,2.53,0.55,1.90,-0.23,-1.14,-0.81,
0.873,2.53,0.55,1.90,-0.17,-1.09,-0.81,
0.873,2.53,0.55,1.90,-0.14,-1.07,-0.81,
0.878,2.07,0.40,2.66,-0.14,-1.07,-0.81,
0.878,2.07,0.40,2.66,-0.07,-1.02,-0.82,
0.881,2.07,0.40,2.66,0.00,-0.96,-0.82,
0.882,2.07,0.40,2.66,0.11,-0.88,-0.84,
0.909,2.07,0.40,2.66,0.17,-0.81,-0.85,
0.91,2.07,0.40,2.66,0.20,-0.78,-0.86,
0.91,2.03,0.05,2.46,0.20,-0.78,-0.86,
0.91,2.03,0.05,2.46,0.26,-0.70,-0.88,
0.911,2.03,0.05,2.46,0.35,-0.57,-0.90,
0.911,2.03,0.05,2.46,0.40,-0.48,-0.92,
0.912,2.03,0.05,2.46,0.42,-0.44,-0.93,
0.912,2.03,0.05,2.46,0.46,-0.35,-0.94,
0.912,1.88,-0.43,1.56,0.46,-0.35,-0.94,
0.913,1.88,-0.43,1.56,0.49,-0.26,-0.96,
0.913,1.88,-0.43,1.56,0.52,-0.17,-0.97,
0.914,1.88,-0.43,1.56,0.56,-0.05,-0.98,
0.914,1.88,-0.43,1.56,0.58,0.01,-1.00,
0.915,1.88,-0.43,1.56,0.58,0.04,-1.00,
0.915,1.83,-1.10,0.68,0.58,0.04,-1.00,
0.915,1.83,-1.10,0.68,0.60,0.09,-1.02,
0.916,1.83,-1.10,0.68,0.61,0.13,-1.04,
0.916,1.83,-1.10,0.68,0.63,0.20,-1.08,
0.917,1.83,-1.10,0.68,0.63,0.24,-1.11,
0.917,1.83,-1.10,0.68,0.63,0.27,-1.12,
0.917,1.84,-1.70,-0.03,0.63,0.27,-1.12,
0.918,1.84,-1.70,-0.03,0.62,0.33,-1.13,
0.918,1.84,-1.70,-0.03,0.62,0.39,-1.15,
0.925,1.84,-1.70,-0.03,0.60,0.49,-1.16,
0.925,1.84,-1.70,-0.03,0.59,0.56,-1.15,
0.927,1.84,-1.70,-0.03,0.59,0.59,-1.15,
0.928,0.87,-1.90,-0.44,0.59,0.59,-1.15,
0.928,0.87,-1.90,-0.44,0.58,0.66,-1.13,
0.929,0.87,-1.90,-0.44,0.58,0.71,-1.11,
0.93,0.87,-1.90,-0.44,0.59,0.75,-1.08,
0.931,0.87,-1.90,-0.44,0.59,0.74,-1.06,
0.934,0.87,-1.90,-0.44,0.59,0.73,-1.06,
0.936,0.20,-2.21,-0.05,0.59,0.73,-1.06,
0.936,0.20,-2.21,-0.05,0.59,0.70,-1.05,
0.939,0.20,-2.21,-0.05,0.58,0.65,-1.05,
0.942,0.20,-2.21,-0.05,0.57,0.59,-1.06,
0.943,0.20,-2.21,-0.05,0.55,0.54,-1.08,
0.943,0.20,-2.21,-0.05,0.54,0.51,-1.09,
0.945,-0.07,-2.62,0.11,0.54,0.51,-1.09,
0.946,-0.07,-2.62,0.11,0.51,0.46,-1.11,
0.947,-0.07,-2.62,0.11,0.47,0.41,-1.12,
0.95,-0.07,-2.62,0.11,0.42,0.34,-1.14,
0.96,-0.07,-2.62,0.11,0.38,0.29,-1.14,
0.96,-0.07,-2.62,0.11,0.36,0.27,-1.14,
0.961,-1.33,-2.44,-0.11,0.36,0.27,-1.14,
0.961,-1.33,-2.44,-0.11,0.32,0.22,-1.13,
0.961,-1.33,-2.44,-0.11,0.29,0.16,-1.10,
0.961,-1.33,-2.44,-0.11,0.25,0.07,-1.06,
0.961,-1.33,-2.44,-0.11,0.23,0.02,-1.03,
0.985,-1.33,-2.44,-0.11,0.22,-0.00,-1.01,
0.985,-2.76,-1.77,0.27,0.22,-0.00,-1.01,
0.986,-2.76,-1.77,0.27,0.20,-0.04,-0.98,
0.986,-2.76,-1.77,0.27,0.18,-0.11,-0.85,
0.986,-2.76,-1.77,0.27,0.18,-0.11,-0.85,
0.986,-2.76,-1.77,0.27,0.18,-0.11,-0.85,
0.986,-2.76,-1.77,0.27,0.19,-0.11,-0.81,
0.987,-3.56,-1.52,0.65,0.19,-0.11,-0.81,
0.987,-3.56,-1.52,0.65,0.20,-0.10,-0.77,
0.987,-3.56,-1.52,0.65,0.22,-0.09,-0.73,
0.987,-3.56,-1.52,0.65,0.24,-0.07,-0.69,
0.988,-3.56,-1.52,0.65,0.28,-0.07,-0.65,
0.988,-3.56,-1.52,0.65,0.32,-0.07,-0.62,
0.988,-3.40,-1.79,1.50,0.32,-0.07,-0.62,
0.988,-3.40,-1.79,1.50,0.38,-0.08,-0.60,
0.99,-3.40,-1.79,1.50,0.44,-0.10,-0.58,
0.99,-3.40,-1.79,1.50,0.50,-0.12,-0.59,
0.991,-3.40,-1.79,1.50,0.57,-0.15,-0.60,
0.993,-3.40,-1.79,1.50,0.65,-0.17,-0.62,
0.995,-1.90,-2.51,2.46,0.65,-0.17,-0.62,
0.996,-1.90,-2.51,2.46,0.72,-0.19,-0.66,
0.997,-1.90,-2.51,2.46,0.78,-0.21,-0.69,
1.0,-1.90,-2.51,2.46,0.85,-0.23,-0.73,
1.003,-1.90,-2.51,2.46,0.92,-0.27,-0.79,
1.003,-1.90,-2.51,2.46,1.00,-0.31,-0.85,
1.006,0.41,-3.61,3.53,1.00,-0.31,-0.85,
1.006,0.41,-3.61,3.53,1.08,-0.35,-0.92,
1.007,0.41,-3.61,3.53,1.15,-0.38,-0.97,
1.01,0.41,-3.61,3.53,1.22,-0.41,-1.02,
1.011,0.41,-3.61,3.53,1.29,-0.44,-1.08,
1.013,0.41,-3.61,3.53,1.33,-0.43,-1.14,
1.016,2.48,-4.45,3.98,1.33,-0.43,-1.14,
1.018,2.48,-4.45,3.98,1.35,-0.41,-1.19,
1.018,2.48,-4.45,3.98,1.36,-0.37,-1.23,
1.023,2.48,-4.45,3.98,1.34,-0.32,-1.26,
1.024,2.48,-4.45,3.98,1.30,-0.25,-1.28,
1.024,2.48,-4.45,3.98,1.25,-0.17,-1.30,
1.026,3.52,-4.32,1.28,1.25,-0.17,-1.30,
1.026,3.52,-4.32,1.28,1.19,-0.09,-1.32,
1.027,3.52,-4.32,1.28,1.13,-0.01,-1.34,
1.03,3.52,-4.32,1.28,1.07,0.06,-1.35,
1.031,3.52,-4.32,1.28,1.03,0.11,-1.35,
1.033,3.52,-4.32,1.28,0.99,0.15,-1.35,
1.036,3.67,-3.71,-0.27,0.99,0.15,-1.35,
1.037,3.67,-3.71,-0.27,0.98,0.17,-1.35,
1.038,3.67,-3.71,-0.27,0.98,0.17,-1.36,
1.04,3.67,-3.71,-0.27,0.99,0.18,-1.38,
1.041,3.67,-3.71,-0.27,1.00,0.16,-1.39,
1.043,3.67,-3.71,-0.27,1.03,0.14,-1.42,
1.045,3.38,-2.98,1.08,1.03,0.14,-1.42,
1.046,3.38,-2.98,1.08,1.07,0.12,-1.46,
1.072,3.38,-2.98,1.08,1.10,0.10,-1.51,
1.072,3.38,-2.98,1.08,1.14,0.06,-1.57,
1.072,3.38,-2.98,1.08,1.14,0.05,-1.60,
1.072,3.38,-2.98,1.08,1.16,0.02,-1.63,
1.073,3.58,-2.30,1.31,1.16,0.02,-1.63,
1.073,3.58,-2.30,1.31,1.16,-0.01,-1.66,
1.074,3.58,-2.30,1.31,1.16,-0.04,-1.68,
1.074,3.58,-2.30,1.31,1.14,-0.10,-1.72,
1.074,3.58,-2.30,1.31,1.13,-0.11,-1.73,
1.075,3.58,-2.30,1.31,1.10,-0.16,-1.76,
1.075,3.34,-2.19,0.24,1.10,-0.16,-1.76,
1.075,3.34,-2.19,0.24,1.07,-0.20,-1.78,
1.075,3.34,-2.19,0.24,1.04,-0.25,-1.81,
1.076,3.34,-2.19,0.24,1.00,-0.29,-1.84,
1.076,3.34,-2.19,0.24,0.97,-0.32,-1.87,
1.076,3.34,-2.19,0.24,0.93,-0.36,-1.89,
1.077,3.01,-1.61,-0.88,0.93,-0.36,-1.89,
1.077,3.01,-1.61,-0.88,0.90,-0.39,-1.91,
1.077,3.01,-1.61,-0.88,0.86,-0.42,-1.94,
1.082,3.01,-1.61,-0.88,0.83,-0.45,-1.95,
1.082,3.01,-1.61,-0.88,0.80,-0.47,-1.97,
1.083,3.01,-1.61,-0.88,0.78,-0.50,-1.98,
1.088,2.01,-0.78,-1.33,0.78,-0.50,-1.98,
1.089,2.01,-0.78,-1.33,0.76,-0.53,-1.98,
1.089,2.01,-0.78,-1.33,0.74,-0.55,-1.99,
1.09,2.01,-0.78,-1.33,0.72,-0.58,-1.99,
1.091,2.01,-0.78,-1.33,0.70,-0.61,-1.99,
1.093,2.01,-0.78,-1.33,0.68,-0.64,-1.98,
1.095,0.96,0.21,-1.76,0.68,-0.64,-1.98,
1.095,0.96,0.21,-1.76,0.65,-0.66,-1.98,
1.097,0.96,0.21,-1.76,0.62,-0.68,-1.97,
1.104,0.96,0.21,-1.76,0.58,-0.70,-1.94,
1.105,0.96,0.21,-1.76,0.56,-0.70,-1.92,
1.105,0.96,0.21,-1.76,0.54,-0.71,-1.89,
1.106,-0.67,1.41,-2.71,0.54,-0.71,-1.89,
1.106,-0.67,1.41,-2.71,0.51,-0.72,-1.85,
1.107,-0.67,1.41,-2.71,0.47,-0.72,-1.80,
1.11,-0.67,1.41,-2.71,0.42,-0.72,-1.72,
1.115,-0.67,1.41,-2.71,0.40,-0.72,-1.69,
1.116,-0.67,1.41,-2.71,0.36,-0.72,-1.62,
1.135,-2.52,2.84,-3.48,0.36,-0.72,-1.62,
1.137,-2.52,2.84,-3.48,0.32,-0.71,-1.54,
1.138,-2.52,2.84,-3.48,0.27,-0.69,-1.46,
1.139,-2.52,2.84,-3.48,0.22,-0.67,-1.36,
1.14,-2.52,2.84,-3.48,0.16,-0.64,-1.24,
1.14,-2.52,2.84,-3.48,0.10,-0.61,-1.12,
1.141,-5.00,4.42,-4.89,0.10,-0.61,-1.12,
1.142,-5.00,4.42,-4.89,0.03,-0.57,-0.99,
1.143,-5.00,4.42,-4.89,-0.04,-0.54,-0.85,
1.143,-5.00,4.42,-4.89,-0.11,-0.50,-0.71,
1.144,-5.00,4.42,-4.89,-0.18,-0.45,-0.57,
1.144,-5.00,4.42,-4.89,-0.24,-0.41,-0.43,
1.145,-6.97,5.44,-5.74,-0.24,-0.41,-0.43,
1.147,-6.97,5.44,-5.74,-0.30,-0.38,-0.34,
1.148,-6.97,5.44,-5.74,-0.36,-0.35,-0.29,
1.148,-6.97,5.44,-5.74,-0.40,-0.31,-0.23,
1.149,-6.97,5.44,-5.74,-0.44,-0.27,-0.15,
1.15,-6.97,5.44,-5.74,-0.47,-0.26,-0.05,
1.151,-6.36,4.76,-4.84,-0.47,-0.26,-0.05,
1.152,-6.36,4.76,-4.84,-0.49,-0.27,0.07,
1.153,-6.36,4.76,-4.84,-0.50,-0.30,0.19,
1.154,-6.36,4.76,-4.84,-0.52,-0.34,0.38,
1.156,-6.36,4.76,-4.84,-0.53,-0.35,0.44,
1.157,-6.36,4.76,-4.84,-0.54,-0.37,0.56,
1.158,-7.60,5.09,-3.83,-0.54,-0.37,0.56,
1.159,-7.60,5.09,-3.83,-0.55,-0.39,0.66,
1.159,-7.60,5.09,-3.83,-0.55,-0.42,0.75,
1.171,-7.60,5.09,-3.83,-0.53,-0.45,0.88,
1.172,-7.60,5.09,-3.83,-0.52,-0.45,0.91,
1.172,-7.60,5.09,-3.83,-0.50,-0.46,0.98,
1.172,-5.70,3.36,-2.30,-0.50,-0.46,0.98,
1.173,-5.70,3.36,-2.30,-0.48,-0.46,1.05,
1.173,-5.70,3.36,-2.30,-0.46,-0.45,1.10,
1.173,-5.70,3.36,-2.30,-0.43,-0.43,1.17,
1.173,-5.70,3.36,-2.30,-0.42,-0.43,1.19,
1.173,-5.70,3.36,-2.30,-0.39,-0.42,1.22,
1.175,-4.19,1.54,-1.22,-0.39,-0.42,1.22,
1.175,-4.19,1.54,-1.22,-0.36,-0.42,1.23,
1.177,-4.19,1.54,-1.22,-0.34,-0.45,1.24,
1.18,-4.19,1.54,-1.22,-0.30,-0.52,1.24,
1.181,-4.19,1.54,-1.22,-0.29,-0.55,1.23,
1.184,-4.19,1.54,-1.22,-0.27,-0.63,1.21,
1.186,-1.95,0.04,-0.08,-0.27,-0.63,1.21,
1.187,-1.95,0.04,-0.08,-0.25,-0.71,1.18,
1.187,-1.95,0.04,-0.08,-0.23,-0.81,1.15,
1.19,-1.95,0.04,-0.08,-0.22,-0.95,1.08,
1.191,-1.95,0.04,-0.08,-0.21,-1.00,1.05,
1.193,-1.95,0.04,-0.08,-0.21,-1.10,0.99,
1.195,-0.38,-0.60,0.82,-0.21,-1.10,0.99,
1.195,-0.38,-0.60,0.82,-0.21,-1.19,0.93,
1.197,-0.38,-0.60,0.82,-0.22,-1.28,0.87,
1.204,-0.38,-0.60,0.82,-0.25,-1.43,0.80,
1.206,-0.38,-0.60,0.82,-0.26,-1.48,0.78,
1.207,-0.38,-0.60,0.82,-0.28,-1.57,0.74,
1.207,0.40,-0.43,0.83,-0.28,-1.57,0.74,
1.208,0.40,-0.43,0.83,-0.31,-1.66,0.70,
1.209,0.40,-0.43,0.83,-0.34,-1.74,0.68,
1.211,0.40,-0.43,0.83,-0.38,-1.84,0.65,
1.212,0.40,-0.43,0.83,-0.40,-1.87,0.64,
1.213,0.40,-0.43,0.83,-0.43,-1.90,0.63,
1.241,0.51,0.35,0.47,-0.43,-1.90,0.63,
1.242,0.51,0.35,0.47,-0.45,-1.93,0.63,
1.242,0.51,0.35,0.47,-0.47,-1.95,0.63,
1.243,0.51,0.35,0.47,-0.49,-1.96,0.65,
1.243,0.51,0.35,0.47,-0.50,-1.96,0.66,
1.243,0.51,0.35,0.47,-0.50,-1.95,0.69,
1.244,-0.19,1.32,0.70,-0.50,-1.95,0.69,
1.244,-0.19,1.32,0.70,-0.49,-1.94,0.72,
1.245,-0.19,1.32,0.70,-0.48,-1.92,0.76,
1.245,-0.19,1.32,0.70,-0.46,-1.89,0.83,
1.245,-0.19,1.32,0.70,-0.45,-1.87,0.85,
1.246,-0.19,1.32,0.70,-0.43,-1.84,0.89,
1.246,-0.29,1.48,0.87,-0.43,-1.84,0.89,
1.247,-0.29,1.48,0.87,-0.41,-1.80,0.93,
1.247,-0.29,1.48,0.87,-0.38,-1.74,0.97,
1.247,-0.29,1.48,0.87,-0.35,-1.63,1.02,
1.248,-0.29,1.48,0.87,-0.33,-1.58,1.03,
1.248,-0.29,1.48,0.87,-0.30,-1.50,1.06,
1.249,0.13,0.94,0.50,-0.30,-1.50,1.06,
1.249,0.13,0.94,0.50,-0.27,-1.40,1.09,
1.249,0.13,0.94,0.50,-0.24,-1.31,1.11,
1.258,0.13,0.94,0.50,-0.19,-1.17,1.14,
1.259,0.13,0.94,0.50,-0.18,-1.12,1.15,
1.259,0.13,0.94,0.50,-0.15,-1.04,1.17,
1.259,0.51,0.34,-0.03,-0.15,-1.04,1.17,
1.26,0.51,0.34,-0.03,-0.12,-0.96,1.18,
1.26,0.51,0.34,-0.03,-0.10,-0.89,1.18,
1.26,0.51,0.34,-0.03,-0.09,-0.81,1.16,
1.261,0.51,0.34,-0.03,-0.09,-0.78,1.15,
1.265,0.51,0.34,-0.03,-0.08,-0.74,1.14,
1.265,1.49,-0.56,-0.95,-0.08,-0.74,1.14,
1.266,1.49,-0.56,-0.95,-0.08,-0.70,1.12,
1.276,1.49,-0.56,-0.95,-0.07,-0.66,1.09,
1.277,1.49,-0.56,-0.95,-0.07,-0.60,1.05,
1.279,1.49,-0.56,-0.95,-0.07,-0.58,1.03,
1.28,1.49,-0.56,-0.95,-0.06,-0.54,1.01,
1.28,2.13,-0.79,-1.01,-0.06,-0.54,1.01,
1.281,2.13,-0.79,-1.01,-0.05,-0.50,0.99,
1.282,2.13,-0.79,-1.01,-0.04,-0.48,0.97,
1.304,2.13,-0.79,-1.01,-0.04,-0.46,0.95,
1.305,2.13,-0.79,-1.01,-0.04,-0.46,0.94,
1.305,2.13,-0.79,-1.01,-0.04,-0.47,0.92,
1.305,2.27,-1.34,-0.93,-0.04,-0.47,0.92,
1.305,2.27,-1.34,-0.93,-0.04,-0.47,0.91,
1.305,2.27,-1.34,-0.93,-0.04,-0.49,0.89,
1.306,2.27,-1.34,-0.93,-0.06,-0.51,0.86,
1.306,2.27,-1.34,-0.93,-0.07,-0.52,0.85,
1.306,2.27,-1.34,-0.93,-0.08,-0.53,0.82,
1.306,3.06,-1.96,-1.19,-0.08,-0.53,0.82,
1.307,3.06,-1.96,-1.19,-0.10,-0.54,0.78,
1.307,3.06,-1.96,-1.19,-0.12,-0.54,0.73,
1.307,3.06,-1.96,-1.19,-0.15,-0.55,0.67,
1.307,3.06,-1.96,-1.19,-0.16,-0.56,0.64,
1.308,3.06,-1.96,-1.19,-0.18,-0.58,0.59,
1.308,3.72,-2.18,-1.18,-0.18,-0.58,0.59,
1.308,3.72,-2.18,-1.18,-0.19,-0.61,0.54,
1.309,3.72,-2.18,-1.18,-0.21,-0.65,0.49,
1.312,3.72,-2.18,-1.18,-0.24,-0.76,0.40,
1.312,3.72,-2.18,-1.18,-0.24,-0.80,0.37,
1.313,3.72,-2.18,-1.18,-0.25,-0.87,0.31,
1.315,4.32,-2.37,-0.83,-0.25,-0.87,0.31,
1.316,4.32,-2.37,-0.83,-0.26,-0.94,0.23,
1.318,4.32,-2.37,-0.83,-0.27,-1.00,0.16,
1.322,4.32,-2.37,-0.83,-0.28,-1.08,0.06,
1.322,4.32,-2.37,-0.83,-0.28,-1.10,0.03,
1.323,4.32,-2.37,-0.83,-0.29,-1.13,-0.03,
1.325,3.94,-2.11,-0.57,-0.29,-1.13,-0.03,
1.325,3.94,-2.11,-0.57,-0.30,-1.14,-0.08,
1.328,3.94,-2.11,-0.57,-0.30,-1.14,-0.12,
1.33,3.94,-2.11,-0.57,-0.29,-1.11,-0.17,
1.334,3.94,-2.11,-0.57,-0.28,-1.10,-0.18,
1.335,3.94,-2.11,-0.57,-0.27,-1.06,-0.19,
1.335,1.70,-1.47,-0.11,-0.27,-1.06,-0.19,
1.335,1.70,-1.47,-0.11,-0.25,-1.03,-0.19,
1.337,1.70,-1.47,-0.11,-0.22,-0.99,-0.17,
1.341,1.70,-1.47,-0.11,-0.17,-0.94,-0.14,
1.341,1.70,-1.47,-0.11,-0.15,-0.93,-0.13,
1.344,1.70,-1.47,-0.11,-0.11,-0.91,-0.10,
1.346,-0.59,-1.08,0.66,-0.11,-0.91,-0.10,
1.346,-0.59,-1.08,0.66,-0.07,-0.90,-0.07,
1.347,-0.59,-1.08,0.66,-0.03,-0.88,-0.04,
1.35,-0.59,-1.08,0.66,0.04,-0.87,-0.00,
1.351,-0.59,-1.08,0.66,0.06,-0.86,0.01,
1.353,-0.59,-1.08,0.66,0.10,-0.85,0.02,
1.355,-1.59,-1.02,0.94,0.10,-0.85,0.02,
1.356,-1.59,-1.02,0.94,0.14,-0.85,0.04,
1.357,-1.59,-1.02,0.94,0.18,-0.86,0.05,
1.36,-1.59,-1.02,0.94,0.22,-0.87,0.05,
1.361,-1.59,-1.02,0.94,0.23,-0.88,0.05,
1.363,-1.59,-1.02,0.94,0.24,-0.91,0.05,
1.378,-1.36,-1.17,0.45,0.24,-0.91,0.05,
1.379,-1.36,-1.17,0.45,0.25,-0.94,0.04,
1.379,-1.36,-1.17,0.45,0.24,-0.97,0.03,
1.38,-1.36,-1.17,0.45,0.21,-1.01,0.01,
1.381,-1.36,-1.17,0.45,0.20,-1.03,0.00,
1.382,-1.36,-1.17,0.45,0.17,-1.05,-0.02,
1.382,-0.74,-1.52,-0.52,0.17,-1.05,-0.02,
1.383,-0.74,-1.52,-0.52,0.13,-1.06,-0.03,
1.383,-0.74,-1.52,-0.52,0.09,-1.06,-0.05,
1.384,-0.74,-1.52,-0.52,0.03,-1.05,-0.08,
1.402,-0.74,-1.52,-0.52,0.01,-1.04,-0.09,
1.403,-0.74,-1.52,-0.52,-0.03,-1.01,-0.11,
1.403,-0.51,-1.54,-0.99,-0.03,-1.01,-0.11,
1.403,-0.51,-1.54,-0.99,-0.06,-0.98,-0.13,
1.403,-0.51,-1.54,-0.99,-0.09,-0.93,-0.15,
1.403,-0.51,-1.54,-0.99,-0.12,-0.84,-0.17,
1.404,-0.51,-1.54,-0.99,-0.13,-0.81,-0.18,
1.404,-0.51,-1.54,-0.99,-0.14,-0.74,-0.18,
1.404,-0.59,-1.22,-0.77,-0.14,-0.74,-0.18,
1.404,-0.59,-1.22,-0.77,-0.15,-0.66,-0.18,
1.404,-0.59,-1.22,-0.77,-0.16,-0.58,-0.17,
1.405,-0.59,-1.22,-0.77,-0.16,-0.46,-0.15,
1.405,-0.59,-1.22,-0.77,-0.16,-0.42,-0.14,
1.405,-0.59,-1.22,-0.77,-0.16,-0.34,-0.12,
1.405,-1.09,-0.46,-0.37,-0.16,-0.34,-0.12,
1.405,-1.09,-0.46,-0.37,-0.15,-0.27,-0.10,
1.409,-1.09,-0.46,-0.37,-0.14,-0.20,-0.07,
1.41,-1.09,-0.46,-0.37,-0.12,-0.10,-0.03,
1.411,-1.09,-0.46,-0.37,-0.12,-0.07,-0.01,
1.413,-1.09,-0.46,-0.37,-0.11,-0.01,0.02,
1.417,-1.61,0.09,-0.22,-0.11,-0.01,0.02,
1.418,-1.61,0.09,-0.22,-0.10,0.04,0.05,
1.418,-1.61,0.09,-0.22,-0.09,0.08,0.08,
1.42,-1.61,0.09,-0.22,-0.07,0.14,0.13,
1.421,-1.61,0.09,-0.22,-0.07,0.16,0.14,
1.423,-1.61,0.09,-0.22,-0.06,0.18,0.17,
1.425,-1.59,0.28,-0.36,-0.06,0.18,0.17,
1.425,-1.59,0.28,-0.36,-0.06,0.18,0.19,
1.427,-1.59,0.28,-0.36,-0.06,0.16,0.21,
1.43,-1.59,0.28,-0.36,-0.08,0.11,0.24,
1.431,-1.59,0.28,-0.36,-0.09,0.09,0.24,
1.433,-1.59,0.28,-0.36,-0.10,0.04,0.25,
1.435,-0.68,0.16,-0.71,-0.10,0.04,0.25,
1.435,-0.68,0.16,-0.71,-0.13,-0.01,0.25,
1.437,-0.68,0.16,-0.71,-0.15,-0.07,0.25,
1.44,-0.68,0.16,-0.71,-0.20,-0.16,0.25,
1.441,-0.68,0.16,-0.71,-0.22,-0.19,0.25,
1.443,-0.68,0.16,-0.71,-0.26,-0.25,0.24,
1.445,0.26,-0.03,-1.01,-0.26,-0.25,0.24,
1.445,0.26,-0.03,-1.01,-0.31,-0.32,0.24,
1.447,0.26,-0.03,-1.01,-0.36,-0.39,0.23,
1.45,0.26,-0.03,-1.01,-0.43,-0.52,0.22,
1.452,0.26,-0.03,-1.01,-0.46,-0.56,0.21,
1.453,0.26,-0.03,-1.01,-0.52,-0.64,0.20,
1.456,1.37,-0.38,-0.91,-0.52,-0.64,0.20,
1.457,1.37,-0.38,-0.91,-0.57,-0.71,0.20,
1.457,1.37,-0.38,-0.91,-0.63,-0.77,0.19,
1.46,1.37,-0.38,-0.91,-0.71,-0.85,0.18,
1.461,1.37,-0.38,-0.91,-0.74,-0.86,0.18,
1.463,1.37,-0.38,-0.91,-0.80,-0.90,0.18,
1.466,1.81,-0.28,-0.55,-0.80,-0.90,0.18,
1.466,1.81,-0.28,-0.55,-0.85,-0.93,0.18,
1.468,1.81,-0.28,-0.55,-0.90,-0.95,0.18,
1.471,1.81,-0.28,-0.55,-0.97,-0.97,0.18,
1.472,1.81,-0.28,-0.55,-0.99,-0.97,0.18,
1.473,1.81,-0.28,-0.55,-1.03,-0.97,0.17,
1.475,2.36,-0.46,0.16,-1.03,-0.97,0.17,
1.476,2.36,-0.46,0.16,-1.07,-0.95,0.15,
1.477,2.36,-0.46,0.16,-1.09,-0.93,0.14,
1.48,2.36,-0.46,0.16,-1.12,-0.88,0.10,
1.481,2.36,-0.46,0.16,-1.12,-0.86,0.09,
1.483,2.36,-0.46,0.16,-1.12,-0.82,0.05,
1.486,3.07,-0.92,0.83,-1.12,-0.82,0.05,
1.487,3.07,-0.92,0.83,-1.12,-0.78,0.02,
1.488,3.07,-0.92,0.83,-1.11,-0.74,-0.02,
1.49,3.07,-0.92,0.83,-1.08,-0.67,-0.08,
1.491,3.07,-0.92,0.83,-1.06,-0.64,-0.10,
1.493,3.07,-0.92,0.83,-1.03,-0.58,-0.15,
1.495,3.43,-1.14,1.34,-1.03,-0.58,-0.15,
1.496,3.43,-1.14,1.34,-0.98,-0.51,-0.20,
1.497,3.43,-1.14,1.34,-0.93,-0.42,-0.24,
1.5,3.43,-1.14,1.34,-0.84,-0.26,-0.31,
1.502,3.43,-1.14,1.34,-0.80,-0.21,-0.33,
1.504,3.43,-1.14,1.34,-0.73,-0.10,-0.38,
1.505,2.47,-1.07,1.74,-0.73,-0.10,-0.38,
1.506,2.47,-1.07,1.74,-0.64,0.01,-0.42,
1.507,2.47,-1.07,1.74,-0.56,0.11,-0.45,
1.51,2.47,-1.07,1.74,-0.42,0.23,-0.49,
1.511,2.47,-1.07,1.74,-0.38,0.26,-0.50,
1.513,2.47,-1.07,1.74,-0.30,0.30,-0.50,
1.522,0.92,-0.50,1.96,-0.30,0.30,-0.50,
1.522,0.92,-0.50,1.96,-0.21,0.31,-0.51,
1.522,0.92,-0.50,1.96,-0.14,0.29,-0.51,
1.523,0.92,-0.50,1.96,-0.04,0.23,-0.54,
1.523,0.92,-0.50,1.96,-0.02,0.20,-0.55,
1.523,0.92,-0.50,1.96,0.03,0.14,-0.57,
1.528,0.89,-0.50,1.18,0.03,0.14,-0.57,
1.53,0.89,-0.50,1.18,0.06,0.07,-0.60,
1.533,0.89,-0.50,1.18,0.07,-0.02,-0.63,
1.534,0.89,-0.50,1.18,0.07,-0.14,-0.66,
1.534,0.89,-0.50,1.18,0.05,-0.17,-0.67,
1.535,0.89,-0.50,1.18,0.02,-0.24,-0.69,
1.536,0.79,-0.08,-0.27,0.02,-0.24,-0.69,
1.537,0.79,-0.08,-0.27,-0.02,-0.30,-0.70,
1.55,0.79,-0.08,-0.27,-0.08,-0.37,-0.71,
1.551,0.79,-0.08,-0.27,-0.19,-0.45,-0.70,
1.552,0.79,-0.08,-0.27,-0.23,-0.47,-0.69,
1.553,0.79,-0.08,-0.27,-0.31,-0.52,-0.68,
1.553,0.31,0.27,-1.81,-0.31,-0.52,-0.68,
1.554,0.31,0.27,-1.81,-0.39,-0.57,-0.65,
1.582,0.31,0.27,-1.81,-0.48,-0.62,-0.62,
1.583,0.31,0.27,-1.81,-0.61,-0.69,-0.58,
1.583,0.31,0.27,-1.81,-0.65,-0.70,-0.56,
1.583,0.31,0.27,-1.81,-0.73,-0.74,-0.53,
1.583,0.22,0.41,-2.49,-0.73,-0.74,-0.53,
1.584,0.22,0.41,-2.49,-0.80,-0.76,-0.50,
1.584,0.22,0.41,-2.49,-0.87,-0.78,-0.47,
1.584,0.22,0.41,-2.49,-0.96,-0.79,-0.44,
1.584,0.22,0.41,-2.49,-0.98,-0.78,-0.43,
1.585,0.22,0.41,-2.49,-1.01,-0.77,-0.41,
1.585,1.15,0.24,-1.68,-1.01,-0.77,-0.41,
1.585,1.15,0.24,-1.68,-1.04,-0.75,-0.40,
1.586,1.15,0.24,-1.68,-1.06,-0.72,-0.39,
1.586,1.15,0.24,-1.68,-1.07,-0.62,-0.40,
1.586,1.15,0.24,-1.68,-1.07,-0.58,-0.41,
1.586,1.15,0.24,-1.68,-1.07,-0.47,-0.43,
1.587,2.24,-0.22,-0.99,-1.07,-0.47,-0.43,
1.587,2.24,-0.22,-0.99,-1.05,-0.36,-0.46,
1.587,2.24,-0.22,-0.99,-1.03,-0.24,-0.48,
1.587,2.24,-0.22,-0.99,-0.97,-0.06,-0.50,
1.588,2.24,-0.22,-0.99,-0.95,0.00,-0.51,
1.588,2.24,-0.22,-0.99,-0.91,0.11,-0.52,
1.588,1.56,-0.42,-0.52,-0.91,0.11,-0.52,
1.588,1.56,-0.42,-0.52,-0.87,0.19,-0.52,
1.589,1.56,-0.42,-0.52,-0.83,0.24,-0.53,
1.595,1.56,-0.42,-0.52,-0.76,0.31,-0.55,
1.595,1.56,-0.42,-0.52,-0.74,0.32,-0.57,
1.595,1.56,-0.42,-0.52,-0.71,0.32,-0.60,
1.596,1.49,-1.48,-0.25,-0.71,0.32,-0.60,
1.596,1.49,-1.48,-0.25,-0.68,0.33,-0.66,
1.601,1.49,-1.48,-0.25,-0.65,0.32,-0.72,
1.604,1.49,-1.48,-0.25,-0.63,0.30,-0.83,
1.605,1.49,-1.48,-0.25,-0.62,0.29,-0.86,
1.605,1.49,-1.48,-0.25,-0.61,0.27,-0.93,
1.605,1.62,-1.56,0.07,-0.61,0.27,-0.93,
1.605,1.62,-1.56,0.07,-0.61,0.22,-0.98,
1.607,1.62,-1.56,0.07,-0.61,0.17,-1.03,
1.611,1.62,-1.56,0.07,-0.61,0.07,-1.07,
1.611,1.62,-1.56,0.07,-0.61,0.03,-1.08,
1.615,1.62,-1.56,0.07,-0.62,-0.04,-1.08,
1.615,0.52,-0.50,0.45,-0.62,-0.04,-1.08,
1.616,0.52,-0.50,0.45,-0.64,-0.10,-1.07,
1.619,0.52,-0.50,0.45,-0.65,-0.15,-1.05,
1.62,0.52,-0.50,0.45,-0.68,-0.22,-1.00,
1.621,0.52,-0.50,0.45,-0.69,-0.24,-0.98,
1.624,0.52,-0.50,0.45,-0.71,-0.27,-0.93,
1.627,-0.96,0.53,-0.05,-0.71,-0.27,-0.93,
1.627,-0.96,0.53,-0.05,-0.74,-0.28,-0.88,
1.628,-0.96,0.53,-0.05,-0.75,-0.28,-0.83,
1.63,-0.96,0.53,-0.05,-0.78,-0.26,-0.73,
1.632,-0.96,0.53,-0.05,-0.78,-0.25,-0.70,
1.636,-0.96,0.53,-0.05,-0.79,-0.22,-0.63,
1.638,-2.44,1.53,-0.84,-0.79,-0.22,-0.63,
1.638,-2.44,1.53,-0.84,-0.79,-0.19,-0.56,
1.638,-2.44,1.53,-0.84,-0.78,-0.16,-0.48,
1.641,-2.44,1.53,-0.84,-0.76,-0.08,-0.38,
1.642,-2.44,1.53,-0.84,-0.75,-0.05,-0.35,
1.645,-2.44,1.53,-0.84,-0.73,0.01,-0.28,
1.645,-3.20,2.52,-1.68,-0.73,0.01,-0.28,
1.645,-3.20,2.52,-1.68,-0.71,0.11,-0.22,
1.653,-3.20,2.52,-1.68,-0.69,0.22,-0.16,
1.654,-3.20,2.52,-1.68,-0.64,0.39,-0.06,
1.654,-3.20,2.52,-1.68,-0.62,0.45,-0.03,
1.654,-3.20,2.52,-1.68,-0.59,0.56,0.05,
1.655,-4.91,3.10,-2.42,-0.59,0.56,0.05,
1.656,-4.91,3.10,-2.42,-0.54,0.68,0.12,
1.657,-4.91,3.10,-2.42,-0.50,0.79,0.21,
1.661,-4.91,3.10,-2.42,-0.42,0.93,0.32,
1.662,-4.91,3.10,-2.42,-0.39,0.98,0.36,
1.691,-4.91,3.10,-2.42,-0.34,1.06,0.44,
1.692,-6.48,3.61,-2.39,-0.34,1.06,0.44,
1.693,-6.48,3.61,-2.39,-0.28,1.13,0.51,
1.693,-6.48,3.61,-2.39,-0.21,1.19,0.58,
1.693,-6.48,3.61,-2.39,-0.12,1.28,0.66,
1.693,-6.48,3.61,-2.39,-0.09,1.30,0.69,
1.693,-6.48,3.61,-2.39,-0.03,1.35,0.74,
1.694,-6.71,3.56,-1.86,-0.03,1.35,0.74,
1.694,-6.71,3.56,-1.86,0.01,1.39,0.78,
1.694,-6.71,3.56,-1.86,0.05,1.42,0.81,
1.694,-6.71,3.56,-1.86,0.09,1.43,0.86,
1.694,-6.71,3.56,-1.86,0.10,1.43,0.87,
1.694,-6.71,3.56,-1.86,0.10,1.43,0.89,
1.694,-5.80,3.05,-1.73,0.10,1.43,0.89,
1.695,-5.80,3.05,-1.73,0.10,1.42,0.91,
1.695,-5.80,3.05,-1.73,0.08,1.41,0.92,
1.695,-5.80,3.05,-1.73,0.05,1.37,0.95,
1.695,-5.80,3.05,-1.73,0.04,1.35,0.96,
1.695,-5.80,3.05,-1.73,0.01,1.32,0.98,
1.696,-4.68,2.39,-1.35,0.01,1.32,0.98,
1.696,-4.68,2.39,-1.35,-0.03,1.27,1.00,
1.698,-4.68,2.39,-1.35,-0.07,1.23,1.02,
1.702,-4.68,2.39,-1.35,-0.13,1.16,1.05,
1.702,-4.68,2.39,-1.35,-0.16,1.13,1.06,
1.703,-4.68,2.39,-1.35,-0.21,1.08,1.08,
1.706,-3.37,2.14,-0.99,-0.21,1.08,1.08,
1.706,-3.37,2.14,-0.99,-0.26,1.03,1.10,
1.707,-3.37,2.14,-0.99,-0.31,0.98,1.12,
1.71,-3.37,2.14,-0.99,-0.39,0.92,1.14,
1.711,-3.37,2.14,-0.99,-0.42,0.90,1.15,
1.713,-3.37,2.14,-0.99,-0.48,0.86,1.17,
1.73,-1.93,2.04,-0.78,-0.48,0.86,1.17,
1.73,-1.93,2.04,-0.78,-0.53,0.82,1.19,
1.731,-1.93,2.04,-0.78,-0.58,0.78,1.22,
1.731,-1.93,2.04,-0.78,-0.65,0.72,1.26,
1.731,-1.93,2.04,-0.78,-0.67,0.69,1.27,
1.731,-1.93,2.04,-0.78,-0.71,0.65,1.29,
1.731,-0.56,1.67,-0.70,-0.71,0.65,1.29,
1.731,-0.56,1.67,-0.70,-0.75,0.61,1.31,
1.731,-0.56,1.67,-0.70,-0.77,0.57,1.33,
1.732,-0.56,1.67,-0.70,-0.81,0.54,1.34,
1.732,-0.56,1.67,-0.70,-0.81,0.53,1.34,
1.733,-0.56,1.67,-0.70,-0.82,0.53,1.34,
1.735,1.05,1.14,-0.60,-0.82,0.53,1.34,
1.735,1.05,1.14,-0.60,-0.83,0.52,1.34,
1.737,1.05,1.14,-0.60,-0.82,0.53,1.34,
1.74,1.05,1.14,-0.60,-0.81,0.56,1.32,
1.741,1.05,1.14,-0.60,-0.80,0.58,1.32,
1.743,1.05,1.14,-0.60,-0.78,0.65,1.30,
1.746,1.50,0.44,-0.77,-0.78,0.65,1.30,
1.747,1.50,0.44,-0.77,-0.77,0.74,1.28,
1.748,1.50,0.44,-0.77,-0.75,0.84,1.27,
1.751,1.50,0.44,-0.77,-0.73,1.01,1.25,
1.751,1.50,0.44,-0.77,-0.73,1.07,1.24,
1.753,1.50,0.44,-0.77,-0.72,1.20,1.24,
1.755,1.12,0.09,-1.61,-0.72,1.20,1.24,
1.755,1.12,0.09,-1.61,-0.70,1.33,1.24,
1.757,1.12,0.09,-1.61,-0.69,1.46,1.24,
1.76,1.12,0.09,-1.61,-0.69,1.64,1.25,
1.761,1.12,0.09,-1.61,-0.68,1.69,1.26,
1.765,1.12,0.09,-1.61,-0.67,1.80,1.27,
1.765,0.73,0.48,-1.54,-0.67,1.80,1.27,
1.765,0.73,0.48,-1.54,-0.66,1.89,1.28,
1.769,0.73,0.48,-1.54,-0.65,1.96,1.29,
1.77,0.73,0.48,-1.54,-0.63,2.04,1.30,
1.773,0.73,0.48,-1.54,-0.61,2.05,1.30,
1.773,0.73,0.48,-1.54,-0.58,2.06,1.29,
1.777,0.86,0.51,0.14,-0.58,2.06,1.29,
1.777,0.86,0.51,0.14,-0.52,2.06,1.28,
1.777,0.86,0.51,0.14,-0.43,2.01,1.27,
1.781,0.86,0.51,0.14,-0.25,1.84,1.22,
1.781,0.86,0.51,0.14,-0.20,1.77,1.20,
1.785,0.86,0.51,0.14,-0.08,1.62,1.16,
1.786,1.46,-0.04,3.95,-0.08,1.62,1.16,
1.786,1.46,-0.04,3.95,0.02,1.49,1.11,
1.789,1.46,-0.04,3.95,0.12,1.36,1.07,
1.79,1.46,-0.04,3.95,0.24,1.22,1.02,
1.793,1.46,-0.04,3.95,0.27,1.19,1.01,
1.793,1.46,-0.04,3.95,0.30,1.14,1.00,
1.797,0.43,0.17,3.75,0.30,1.14,1.00,
1.797,0.43,0.17,3.75,0.32,1.11,1.00,
1.798,0.43,0.17,3.75,0.32,1.10,1.02,
1.805,0.43,0.17,3.75,0.29,1.11,1.06,
1.806,0.43,0.17,3.75,0.27,1.12,1.08,
1.806,0.43,0.17,3.75,0.22,1.13,1.13,
1.806,-1.02,0.65,1.21,0.22,1.13,1.13,
1.806,-1.02,0.65,1.21,0.16,1.13,1.19,
1.807,-1.02,0.65,1.21,0.08,1.11,1.25,
1.837,-1.02,0.65,1.21,-0.04,1.05,1.35,
1.838,-1.02,0.65,1.21,-0.09,1.01,1.39,
1.838,-1.02,0.65,1.21,-0.19,0.95,1.44,
1.838,-1.41,0.60,0.30,-0.19,0.95,1.44,
1.839,-1.41,0.60,0.30,-0.29,0.87,1.50,
1.839,-1.41,0.60,0.30,-0.40,0.80,1.53,
1.839,-1.41,0.60,0.30,-0.55,0.69,1.57,
1.84,-1.41,0.60,0.30,-0.60,0.65,1.57,
1.84,-1.41,0.60,0.30,-0.70,0.58,1.58,
1.84,-0.65,-0.43,0.05,-0.70,0.58,1.58,
1.84,-0.65,-0.43,0.05,-0.79,0.50,1.58,
1.841,-0.65,-0.43,0.05,-0.87,0.43,1.57,
1.841,-0.65,-0.43,0.05,-0.97,0.34,1.55,
1.841,-0.65,-0.43,0.05,-0.99,0.31,1.54,
1.842,-0.65,-0.43,0.05,-1.03,0.26,1.52,
1.842,0.27,-1.39,0.12,-1.03,0.26,1.52,
1.842,0.27,-1.39,0.12,-1.06,0.21,1.49,
1.843,0.27,-1.39,0.12,-1.08,0.17,1.46,
1.843,0.27,-1.39,0.12,-1.08,0.13,1.40,
1.843,0.27,-1.39,0.12,-1.08,0.11,1.38,
1.844,0.27,-1.39,0.12,-1.07,0.09,1.34,
1.845,1.09,-1.66,0.14,-1.07,0.09,1.34,
1.846,1.09,-1.66,0.14,-1.05,0.06,1.29,
1.847,1.09,-1.66,0.14,-1.03,0.03,1.25,
1.85,1.09,-1.66,0.14,-1.00,-0.01,1.18,
1.852,1.09,-1.66,0.14,-0.99,-0.01,1.15,
1.853,1.09,-1.66,0.14,-0.97,-0.03,1.11,
1.855,1.50,-1.97,-0.62,-0.97,-0.03,1.11,
1.856,1.50,-1.97,-0.62,-0.94,-0.03,1.06,
1.857,1.50,-1.97,-0.62,-0.92,-0.04,1.01,
1.86,1.50,-1.97,-0.62,-0.89,-0.04,0.94,
1.862,1.50,-1.97,-0.62,-0.88,-0.04,0.91,
1.863,1.50,-1.97,-0.62,-0.86,-0.06,0.86,
1.865,2.01,-1.75,-1.20,-0.86,-0.06,0.86,
1.866,2.01,-1.75,-1.20,-0.85,-0.12,0.81,
1.868,2.01,-1.75,-1.20,-0.84,-0.16,0.76,
1.87,2.01,-1.75,-1.20,-0.85,-0.18,0.71,
1.871,2.01,-1.75,-1.20,-0.85,-0.19,0.69,
1.873,2.01,-1.75,-1.20,-0.87,-0.19,0.67,
1.875,1.69,-1.50,-2.05,-0.87,-0.19,0.67,
1.876,1.69,-1.50,-2.05,-0.88,-0.19,0.65,
1.877,1.69,-1.50,-2.05,-0.90,-0.17,0.64,
1.88,1.69,-1.50,-2.05,-0.94,-0.13,0.64,
1.91,1.69,-1.50,-2.05,-0.96,-0.11,0.64,
1.911,1.69,-1.50,-2.05,-0.99,-0.09,0.66,
1.911,0.60,-0.72,-3.10,-0.99,-0.09,0.66,
1.912,0.60,-0.72,-3.10,-1.03,-0.07,0.68,
1.912,0.60,-0.72,-3.10,-1.07,-0.04,0.70,
1.912,0.60,-0.72,-3.10,-1.11,0.02,0.74,
1.913,0.60,-0.72,-3.10,-1.12,0.03,0.75,
1.913,0.60,-0.72,-3.10,-1.14,0.07,0.78,
1.914,-0.13,-0.15,-2.67,-1.14,0.07,0.78,
1.914,-0.13,-0.15,-2.67,-1.15,0.12,0.80,
1.915,-0.13,-0.15,-2.67,-1.16,0.18,0.82,
1.915,-0.13,-0.15,-2.67,-1.15,0.28,0.85,
1.915,-0.13,-0.15,-2.67,-1.15,0.31,0.86,
1.916,-0.13,-0.15,-2.67,-1.13,0.37,0.88,
1.916,-0.19,-0.62,-0.96,-1.13,0.37,0.88,
1.917,-0.19,-0.62,-0.96,-1.11,0.44,0.90,
1.917,-0.19,-0.62,-0.96,-1.07,0.51,0.93,
1.917,-0.19,-0.62,-0.96,-1.02,0.62,0.97,
1.918,-0.19,-0.62,-0.96,-1.00,0.66,0.98,
1.918,-0.19,-0.62,-0.96,-0.95,0.73,1.00,
1.919,-0.22,-1.14,0.67,-0.95,0.73,1.00,
1.919,-0.22,-1.14,0.67,-0.90,0.78,1.02,
1.92,-0.22,-1.14,0.67,-0.84,0.84,1.04,
1.92,-0.22,-1.14,0.67,-0.76,0.93,1.03,
1.921,-0.22,-1.14,0.67,-0.74,0.96,1.03,
1.931,-0.22,-1.14,0.67,-0.68,1.00,1.01,
1.932,1.18,-2.20,1.41,-0.68,1.00,1.01,
1.932,1.18,-2.20,1.41,-0.62,1.06,0.98,
1.932,1.18,-2.20,1.41,-0.58,1.11,0.94,
1.932,1.18,-2.20,1.41,-0.51,1.17,0.88,
1.933,1.18,-2.20,1.41,-0.48,1.19,0.85,
1.934,1.18,-2.20,1.41,-0.44,1.22,0.80,
1.94,2.42,-2.98,1.46,-0.44,1.22,0.80,
1.94,2.42,-2.98,1.46,-0.40,1.24,0.74,
1.94,2.42,-2.98,1.46,-0.35,1.24,0.64,
1.94,2.42,-2.98,1.46,-0.32,1.24,0.58,
1.941,2.42,-2.98,1.46,-0.30,1.24,0.55,
1.945,2.42,-2.98,1.46,-0.27,1.24,0.49,
1.945,2.54,-2.83,1.04,-0.27,1.24,0.49,
1.946,2.54,-2.83,1.04,-0.24,1.24,0.43,
1.956,2.54,-2.83,1.04,-0.20,1.23,0.37,
1.956,2.54,-2.83,1.04,-0.16,1.22,0.28,
1.957,2.54,-2.83,1.04,-0.15,1.22,0.25,
1.957,2.54,-2.83,1.04,-0.12,1.23,0.19,
1.957,2.15,-2.20,0.43,-0.12,1.23,0.19,
1.957,2.15,-2.20,0.43,-0.10,1.23,0.14,
1.962,2.15,-2.20,0.43,-0.07,1.23,0.09,
1.981,2.15,-2.20,0.43,-0.04,1.21,0.01,
1.982,2.15,-2.20,0.43,-0.03,1.20,-0.01,
1.982,2.15,-2.20,0.43,-0.00,1.17,-0.05,
1.982,1.10,-1.14,0.44,-0.00,1.17,-0.05,
1.983,1.10,-1.14,0.44,0.02,1.13,-0.09,
1.984,1.10,-1.14,0.44,0.06,0.92,-0.19,
1.984,1.10,-1.14,0.44,0.06,0.92,-0.19,
1.985,1.10,-1.14,0.44,0.06,0.84,-0.21,
1.985,1.10,-1.14,0.44,0.06,0.84,-0.21,
1.986,0.21,0.12,0.60,0.06,0.84,-0.21,
1.986,0.21,0.12,0.60,0.06,0.75,-0.22,
1.986,0.21,0.12,0.60,0.06,0.66,-0.23,
1.987,0.21,0.12,0.60,0.05,0.53,-0.24,
1.987,0.21,0.12,0.60,0.04,0.49,-0.24,
1.988,0.21,0.12,0.60,0.03,0.43,-0.24,
1.988,-0.08,0.70,0.19,0.03,0.43,-0.24,
1.988,-0.08,0.70,0.19,0.00,0.37,-0.23,
1.989,-0.08,0.70,0.19,-0.02,0.32,-0.22,
1.997,-0.08,0.70,0.19,-0.05,0.27,-0.18,
1.997,-0.08,0.70,0.19,-0.06,0.24,-0.17,
1.997,-0.08,0.70,0.19,-0.08,0.18,-0.15,
1.997,0.20,0.63,-0.12,-0.08,0.18,-0.15,
1.997,0.20,0.63,-0.12,-0.09,0.11,-0.12,
1.998,0.20,0.63,-0.12,-0.11,0.06,-0.09,
2.001,0.20,0.63,-0.12,-0.13,0.00,-0.03,
2.002,0.20,0.63,-0.12,-0.13,-0.02,-0.02,
2.003,0.20,0.63,-0.12,-0.14,-0.09,0.01,
2.007,0.83,0.45,-0.17,-0.14,-0.09,0.01,
2.007,0.83,0.45,-0.17,-0.14,-0.11,0.05,
2.008,0.83,0.45,-0.17,-0.16,-0.12,0.08,
2.011,0.83,0.45,-0.17,-0.17,-0.07,0.13,
2.011,0.83,0.45,-0.17,-0.18,-0.05,0.15,
2.018,0.83,0.45,-0.17,-0.18,-0.02,0.17,
2.019,0.92,0.57,-0.47,-0.18,-0.02,0.17,
2.019,0.92,0.57,-0.47,-0.18,-0.01,0.18,
2.019,0.92,0.57,-0.47,-0.18,0.02,0.20,
2.02,0.92,0.57,-0.47,-0.17,-0.01,0.19,
2.021,0.92,0.57,-0.47,-0.16,-0.03,0.18,
2.024,0.92,0.57,-0.47,-0.14,-0.09,0.17,
2.026,2.04,0.35,1.35,-0.14,-0.09,0.17,
2.026,2.04,0.35,1.35,-0.11,-0.17,0.14,
2.028,2.04,0.35,1.35,-0.06,-0.34,0.11,
2.034,2.04,0.35,1.35,0.05,-0.68,0.07,
2.035,2.04,0.35,1.35,0.08,-0.79,0.06,
2.036,2.04,0.35,1.35,0.12,-0.97,0.04,
2.037,2.83,1.63,4.73,0.12,-0.97,0.04,
2.038,2.83,1.63,4.73,0.16,-1.09,0.01,
2.038,2.83,1.63,4.73,0.19,-1.17,-0.02,
2.041,2.83,1.63,4.73,0.25,-1.26,0.01,
2.044,2.83,1.63,4.73,0.26,-1.29,0.01,
2.044,2.83,1.63,4.73,0.29,-1.34,-0.00,
2.056,-1.16,3.37,4.02,0.29,-1.34,-0.00,
2.057,-1.16,3.37,4.02,0.30,-1.40,-0.04,
2.075,-1.16,3.37,4.02,0.29,-1.53,-0.10,
2.075,-1.16,3.37,4.02,0.21,-1.87,-0.22,
2.075,-1.16,3.37,4.02,0.18,-1.98,-0.27,
2.075,-1.16,3.37,4.02,0.10,-2.18,-0.37,
2.076,1.41,3.17,-0.38,0.10,-2.18,-0.37,
2.076,1.41,3.17,-0.38,0.02,-2.39,-0.49,
2.076,1.41,3.17,-0.38,-0.05,-2.57,-0.60,
2.076,1.41,3.17,-0.38,-0.16,-2.73,-0.73,
2.076,1.41,3.17,-0.38,-0.19,-2.76,-0.77,
2.077,1.41,3.17,-0.38,-0.25,-2.80,-0.84,
2.077,2.11,2.39,-0.67,-0.25,-2.80,-0.84,
2.077,2.11,2.39,-0.67,-0.31,-2.81,-0.90,
2.077,2.11,2.39,-0.67,-0.35,-2.81,-0.95,
2.077,2.11,2.39,-0.67,-0.41,-2.78,-1.01,
2.077,2.11,2.39,-0.67,-0.43,-2.77,-1.03,
2.078,2.11,2.39,-0.67,-0.45,-2.72,-1.05,
2.078,0.98,2.04,0.03,-0.45,-2.72,-1.05,
2.078,0.98,2.04,0.03,-0.46,-2.64,-1.07,
2.078,0.98,2.04,0.03,-0.47,-2.55,-1.08,
2.084,0.98,2.04,0.03,-0.45,-2.36,-1.09,
2.085,0.98,2.04,0.03,-0.44,-2.29,-1.08,
2.085,0.98,2.04,0.03,-0.43,-2.16,-1.08,
2.085,0.00,1.85,0.67,-0.43,-2.16,-1.08,
2.085,0.00,1.85,0.67,-0.41,-2.03,-1.06,
2.087,0.00,1.85,0.67,-0.39,-1.89,-1.04,
2.09,0.00,1.85,0.67,-0.37,-1.73,-0.99,
2.091,0.00,1.85,0.67,-0.36,-1.68,-0.98,
2.093,0.00,1.85,0.67,-0.35,-1.60,-0.93,
2.095,-0.23,1.59,0.32,-0.35,-1.60,-0.93,
2.096,-0.23,1.59,0.32,-0.34,-1.53,-0.88,
2.097,-0.23,1.59,0.32,-0.34,-1.47,-0.81,
2.1,-0.23,1.59,0.32,-0.35,-1.41,-0.70,
2.101,-0.23,1.59,0.32,-0.36,-1.39,-0.66,
2.103,-0.23,1.59,0.32,-0.37,-1.36,-0.57,
2.105,-0.20,1.12,-0.42,-0.37,-1.36,-0.57,
2.105,-0.20,1.12,-0.42,-0.39,-1.34,-0.46,
2.107,-0.20,1.12,-0.42,-0.42,-1.31,-0.34,
2.11,-0.20,1.12,-0.42,-0.46,-1.25,-0.15,
2.112,-0.20,1.12,-0.42,-0.48,-1.22,-0.09,
2.113,-0.20,1.12,-0.42,-0.51,-1.16,0.04,
2.115,-0.11,0.76,-0.75,-0.51,-1.16,0.04,
2.115,-0.11,0.76,-0.75,-0.55,-1.09,0.17,
2.117,-0.11,0.76,-0.75,-0.59,-1.01,0.29,
2.12,-0.11,0.76,-0.75,-0.65,-0.89,0.46,
2.121,-0.11,0.76,-0.75,-0.67,-0.84,0.51,
2.123,-0.11,0.76,-0.75,-0.71,-0.74,0.60,
2.125,0.06,0.58,-1.23,-0.71,-0.74,0.60,
2.125,0.06,0.58,-1.23,-0.74,-0.63,0.68,
2.127,0.06,0.58,-1.23,-0.78,-0.51,0.76,
2.131,0.06,0.58,-1.23,-0.83,-0.35,0.85,
2.132,0.06,0.58,-1.23,-0.84,-0.29,0.88,
2.134,0.06,0.58,-1.23,-0.87,-0.19,0.93,
2.135,0.46,0.41,-1.27,-0.87,-0.19,0.93,
2.136,0.46,0.41,-1.27,-0.90,-0.08,0.98,
2.137,0.46,0.41,-1.27,-0.92,0.03,1.03,
2.14,0.46,0.41,-1.27,-0.96,0.18,1.10,
2.141,0.46,0.41,-1.27,-0.97,0.23,1.12,
2.143,0.46,0.41,-1.27,-0.99,0.33,1.16,
2.146,0.64,0.45,-0.90,-0.99,0.33,1.16,
2.146,0.64,0.45,-0.90,-1.00,0.42,1.20,
2.148,0.64,0.45,-0.90,-1.02,0.50,1.24,
2.15,0.64,0.45,-0.90,-1.02,0.58,1.29,
2.152,0.64,0.45,-0.90,-1.02,0.60,1.31,
2.156,0.64,0.45,-0.90,-1.00,0.62,1.35,
2.157,0.49,0.73,0.11,-1.00,0.62,1.35,
2.157,0.49,0.73,0.11,-0.98,0.62,1.37,
2.159,0.49,0.73,0.11,-0.96,0.61,1.40,
2.16,0.49,0.73,0.11,-0.91,0.58,1.44,
2.162,0.49,0.73,0.11,-0.89,0.57,1.44,
2.177,0.49,0.73,0.11,-0.85,0.54,1.46,
2.177,0.17,1.01,1.40,-0.85,0.54,1.46,
2.178,0.17,1.01,1.40,-0.81,0.51,1.48,
2.178,0.17,1.01,1.40,-0.76,0.48,1.49,
2.178,0.17,1.01,1.40,-0.68,0.42,1.51,
2.178,0.17,1.01,1.40,-0.65,0.40,1.52,
2.178,0.17,1.01,1.40,-0.60,0.35,1.53,
2.178,-0.14,1.48,1.93,-0.60,0.35,1.53,
2.178,-0.14,1.48,1.93,-0.55,0.30,1.54,
2.179,-0.14,1.48,1.93,-0.49,0.24,1.54,
2.2,-0.14,1.48,1.93,-0.40,0.17,1.55,
2.2,-0.14,1.48,1.93,-0.37,0.14,1.55,
2.2,-0.14,1.48,1.93,-0.31,0.09,1.55,
2.201,-0.59,2.21,1.51,-0.31,0.09,1.55,
2.201,-0.59,2.21,1.51,-0.25,0.04,1.54,
2.201,-0.59,2.21,1.51,-0.19,-0.02,1.53,
2.201,-0.59,2.21,1.51,-0.10,-0.09,1.51,
2.201,-0.59,2.21,1.51,-0.06,-0.12,1.50,
2.201,-0.59,2.21,1.51,-0.00,-0.17,1.48,
2.202,-0.81,3.18,0.80,-0.00,-0.17,1.48,
2.202,-0.81,3.18,0.80,0.07,-0.20,1.45,
2.202,-0.81,3.18,0.80,0.14,-0.23,1.42,
2.202,-0.81,3.18,0.80,0.25,-0.26,1.37,
2.202,-0.81,3.18,0.80,0.29,-0.26,1.36,
2.211,-0.81,3.18,0.80,0.36,-0.28,1.33,
2.211,-1.12,4.16,0.37,0.36,-0.28,1.33,
2.211,-1.12,4.16,0.37,0.43,-0.31,1.29,
2.211,-1.12,4.16,0.37,0.51,-0.35,1.25,
2.212,-1.12,4.16,0.37,0.62,-0.41,1.18,
2.212,-1.12,4.16,0.37,0.65,-0.43,1.17,
2.23,-1.12,4.16,0.37,0.73,-0.46,1.13,
2.261,-1.38,4.77,0.42,0.73,-0.46,1.13,
2.262,-1.38,4.77,0.42,0.80,-0.49,1.10,
2.262,-1.38,4.77,0.42,0.87,-0.53,1.07,
2.262,-1.38,4.77,0.42,0.96,-0.61,1.03,
2.263,-1.38,4.77,0.42,1.00,-0.64,1.02,
2.263,-1.38,4.77,0.42,1.06,-0.70,0.99,
2.264,-1.50,4.96,0.43,1.06,-0.70,0.99,
2.264,-1.50,4.96,0.43,1.12,-0.78,0.98,
2.265,-1.50,4.96,0.43,1.18,-0.85,0.97,
2.265,-1.50,4.96,0.43,1.26,-0.99,0.96,
2.265,-1.50,4.96,0.43,1.29,-1.05,0.96,
2.266,-1.50,4.96,0.43,1.34,-1.18,0.97,
2.266,-1.64,5.05,0.88,1.34,-1.18,0.97,
2.267,-1.64,5.05,0.88,1.39,-1.31,0.98,
2.267,-1.64,5.05,0.88,1.44,-1.47,1.00,
2.267,-1.64,5.05,0.88,1.51,-1.69,1.02,
2.268,-1.64,5.05,0.88,1.53,-1.76,1.04,
2.268,-1.64,5.05,0.88,1.57,-1.88,1.05,
2.269,-1.75,5.08,1.33,1.57,-1.88,1.05,
2.269,-1.75,5.08,1.33,1.60,-1.98,1.07,
2.27,-1.75,5.08,1.33,1.62,-2.04,1.10,
2.27,-1.75,5.08,1.33,1.61,-2.04,1.16,
2.271,-1.75,5.08,1.33,1.60,-2.02,1.18,
2.271,-1.75,5.08,1.33,1.57,-1.95,1.23,
2.272,-2.02,5.04,0.49,1.57,-1.95,1.23,
2.272,-2.02,5.04,0.49,1.51,-1.85,1.29,
2.272,-2.02,5.04,0.49,1.43,-1.73,1.36,
2.273,-2.02,5.04,0.49,1.25,-1.48,1.48,
2.273,-2.02,5.04,0.49,1.11,-1.29,1.57,
2.274,-2.02,5.04,0.49,1.03,-1.19,1.61,
2.274,-2.39,4.73,-2.46,1.03,-1.19,1.61,
2.275,-2.39,4.73,-2.46,0.87,-1.01,1.69,
2.275,-2.39,4.73,-2.46,0.71,-0.85,1.76,
2.275,-2.39,4.73,-2.46,0.45,-0.68,1.87,
2.276,-2.39,4.73,-2.46,0.29,-0.59,1.92,
2.276,-2.39,4.73,-2.46,0.22,-0.56,1.94,
2.277,-2.37,4.75,-4.15,0.22,-0.56,1.94,
2.277,-2.37,4.75,-4.15,0.07,-0.54,1.98,
2.277,-2.37,4.75,-4.15,-0.08,-0.54,2.02,
2.289,-2.37,4.75,-4.15,-0.29,-0.56,2.05,
2.29,-2.37,4.75,-4.15,-0.36,-0.58,2.06,
2.29,-2.37,4.75,-4.15,-0.50,-0.63,2.08,
2.29,-2.06,5.25,-4.05,-0.50,-0.63,2.08,
2.291,-2.06,5.25,-4.05,-0.60,-0.67,2.09,
2.291,-2.06,5.25,-4.05,-0.78,-0.76,2.10,
2.291,-2.06,5.25,-4.05,-0.90,-0.82,2.10,
2.292,-2.06,5.25,-4.05,-0.96,-0.85,2.10,
2.293,-2.06,5.25,-4.05,-1.10,-0.90,2.10,
2.304,-1.80,5.56,-4.04,-1.10,-0.90,2.10,
2.305,-1.80,5.56,-4.04,-1.22,-0.96,2.11,
2.305,-1.80,5.56,-4.04,-1.34,-1.00,2.11,
2.305,-1.80,5.56,-4.04,-1.55,-1.05,2.12,
2.305,-1.80,5.56,-4.04,-1.62,-1.06,2.13,
2.306,-1.80,5.56,-4.04,-1.75,-1.08,2.14,
2.306,-1.94,5.67,-4.22,-1.75,-1.08,2.14,
2.306,-1.94,5.67,-4.22,-1.87,-1.09,2.15,
2.308,-1.94,5.67,-4.22,-2.01,-1.10,2.16,
2.312,-1.94,5.67,-4.22,-2.22,-1.10,2.18,
2.312,-1.94,5.67,-4.22,-2.28,-1.09,2.19,
2.323,-1.94,5.67,-4.22,-2.43,-1.08,2.21,
2.324,-2.26,5.78,-4.75,-2.43,-1.08,2.21,
2.324,-2.26,5.78,-4.75,-2.55,-1.05,2.22,
2.325,-2.26,5.78,-4.75,-2.68,-1.02,2.24,
2.325,-2.26,5.78,-4.75,-2.87,-0.98,2.27,
2.326,-2.26,5.78,-4.75,-2.99,-0.95,2.29,
2.326,-2.26,5.78,-4.75,-3.03,-0.94,2.29,
2.326,-2.49,6.04,-4.91,-3.03,-0.94,2.29,
2.327,-2.49,6.04,-4.91,-3.12,-0.92,2.31,
2.327,-2.49,6.04,-4.91,-3.22,-0.90,2.32,
2.363,-2.49,6.04,-4.91,-3.35,-0.87,2.34,
2.363,-2.49,6.04,-4.91,-3.39,-0.86,2.35,
2.364,-2.49,6.04,-4.91,-3.46,-0.84,2.36,
2.364,-2.52,6.39,-4.72,-3.46,-0.84,2.36,
2.364,-2.52,6.39,-4.72,-3.52,-0.83,2.36,
2.364,-2.52,6.39,-4.72,-3.59,-0.81,2.37,
2.364,-2.52,6.39,-4.72,-3.67,-0.79,2.39,
2.365,-2.52,6.39,-4.72,-3.70,-0.78,2.39,
2.365,-2.52,6.39,-4.72,-3.75,-0.74,2.41,
2.365,-2.49,6.61,-3.99,-3.75,-0.74,2.41,
2.365,-2.49,6.61,-3.99,-3.79,-0.70,2.42,
2.366,-2.49,6.61,-3.99,-3.82,-0.65,2.44,
2.366,-2.49,6.61,-3.99,-3.86,-0.57,2.46,
2.366,-2.49,6.61,-3.99,-3.88,-0.49,2.48,
2.366,-2.49,6.61,-3.99,-3.88,-0.45,2.48,
2.366,-2.65,6.55,-3.29,-3.88,-0.45,2.48,
2.367,-2.65,6.55,-3.29,-3.89,-0.36,2.50,
2.367,-2.65,6.55,-3.29,-3.90,-0.27,2.52,
2.367,-2.65,6.55,-3.29,-3.94,-0.12,2.55,
2.367,-2.65,6.55,-3.29,-3.98,0.03,2.61,
2.368,-2.65,6.55,-3.29,-4.00,0.13,2.65,
2.368,-2.46,1.01,-3.96,-4.00,0.13,2.65,
2.368,-2.46,1.01,-3.96,-4.03,0.30,2.71,
2.368,-2.46,1.01,-3.96,-4.02,0.53,2.74,
2.374,-2.46,1.01,-3.96,-3.97,0.96,2.74,
2.374,-2.46,1.01,-3.96,-3.93,1.11,2.74,
2.375,-2.46,1.01,-3.96,-3.80,1.45,2.77,
2.376,-0.30,-14.57,-0.90,-3.80,1.45,2.77,
2.376,-0.30,-14.57,-0.90,-3.59,1.86,2.85,
2.38,-0.30,-14.57,-0.90,-3.36,2.30,2.99,
2.381,-0.30,-14.57,-0.90,-2.99,2.97,3.23,
2.398,-0.30,-14.57,-0.90,-2.76,3.34,3.38,
2.398,-0.30,-14.57,-0.90,-2.64,3.50,3.46,
2.399,-3.41,-34.10,2.33,-2.64,3.50,3.46,
2.399,-3.41,-34.10,2.33,-2.42,3.82,3.60,
2.399,-3.41,-34.10,2.33,-2.21,4.10,3.74,
2.4,-3.41,-34.10,2.33,-1.89,4.45,3.95,
2.4,-3.41,-34.10,2.33,-1.78,4.55,4.01,
2.4,-3.41,-34.10,2.33,-1.57,4.70,4.09,
2.4,-3.02,-47.97,1.68,-1.57,4.70,4.09,
2.401,-3.02,-47.97,1.68,-1.36,4.80,4.13,
2.401,-3.02,-47.97,1.68,-1.16,4.87,4.09,
2.401,-3.02,-47.97,1.68,-0.85,4.92,3.94,
2.401,-3.02,-47.97,1.68,-0.64,4.92,3.78,
2.407,-3.02,-47.97,1.68,-0.54,4.90,3.69,
2.408,2.82,-41.94,1.66,-0.54,4.90,3.69,
2.408,2.82,-41.94,1.66,-0.34,4.86,3.50,
2.408,2.82,-41.94,1.66,-0.15,4.81,3.32,
2.419,2.82,-41.94,1.66,0.11,4.71,3.06,
2.419,2.82,-41.94,1.66,0.28,4.64,2.90,
2.42,2.82,-41.94,1.66,0.35,4.61,2.82,
2.42,3.99,-26.05,2.25,0.35,4.61,2.82,
2.42,3.99,-26.05,2.25,0.50,4.56,2.68,
2.42,3.99,-26.05,2.25,0.63,4.53,2.55,
2.421,3.99,-26.05,2.25,0.81,4.49,2.37,
2.423,3.99,-26.05,2.25,0.92,4.48,2.27,
2.423,3.99,-26.05,2.25,0.97,4.48,2.22,
2.425,2.85,-13.62,2.17,0.97,4.48,2.22,
2.426,2.85,-13.62,2.17,1.07,4.48,2.12,
2.43,2.85,-13.62,2.17,1.16,4.49,2.02,
2.43,2.85,-13.62,2.17,1.29,4.53,1.88,
2.431,2.85,-13.62,2.17,1.33,4.54,1.84,
2.433,2.85,-13.62,2.17,1.40,4.57,1.75,
2.435,2.59,-4.94,2.33,1.40,4.57,1.75,
2.435,2.59,-4.94,2.33,1.47,4.62,1.66,
2.437,2.59,-4.94,2.33,1.53,4.66,1.59,
2.44,2.59,-4.94,2.33,1.63,4.73,1.48,
2.441,2.59,-4.94,2.33,1.69,4.78,1.42,
2.443,2.59,-4.94,2.33,1.72,4.81,1.38,
2.448,2.28,1.07,2.59,1.72,4.81,1.38,
2.448,2.28,1.07,2.59,1.78,4.87,1.33,
2.448,2.28,1.07,2.59,1.85,4.94,1.28,
2.45,2.28,1.07,2.59,1.95,5.04,1.21,
2.454,2.28,1.07,2.59,2.02,5.11,1.17,
2.454,2.28,1.07,2.59,2.06,5.15,1.16,
2.458,1.74,5.15,3.40,2.06,5.15,1.16,
2.459,1.74,5.15,3.40,2.15,5.23,1.13,
2.472,1.74,5.15,3.40,2.23,5.31,1.11,
2.473,1.74,5.15,3.40,2.37,5.44,1.09,
2.473,1.74,5.15,3.40,2.47,5.54,1.09,
2.474,1.74,5.15,3.40,2.51,5.59,1.09,
2.474,0.93,7.71,3.95,2.51,5.59,1.09,
2.474,0.93,7.71,3.95,2.61,5.69,1.10,
2.474,0.93,7.71,3.95,2.71,5.79,1.11,
2.475,0.93,7.71,3.95,2.86,5.94,1.14,
2.475,0.93,7.71,3.95,2.96,6.04,1.17,
2.475,0.93,7.71,3.95,3.01,6.09,1.18,
2.475,0.29,8.92,4.17,3.01,6.09,1.18,
2.476,0.29,8.92,4.17,3.09,6.19,1.21,
2.477,0.29,8.92,4.17,3.16,6.27,1.25,
2.48,0.29,8.92,4.17,3.23,6.42,1.31,
2.481,0.29,8.92,4.17,3.19,6.63,1.33,
2.483,0.29,8.92,4.17,3.13,6.80,1.34,
2.485,-0.00,8.95,1.13,3.13,6.80,1.34,
2.486,-0.00,8.95,1.13,2.94,7.23,1.35,
2.487,-0.00,8.95,1.13,2.72,7.69,1.35,
2.49,-0.00,8.95,1.13,2.39,8.29,1.37,
2.491,-0.00,8.95,1.13,2.19,8.60,1.38,
2.496,-0.00,8.95,1.13,2.10,8.72,1.39,
2.499,-0.54,8.40,-2.27,2.10,8.72,1.39,
2.5,-0.54,8.40,-2.27,1.94,8.89,1.42,
2.502,-0.54,8.40,-2.27,1.80,8.98,1.46,
2.503,-0.54,8.40,-2.27,1.61,8.94,1.52,
2.504,-0.54,8.40,-2.27,1.48,8.76,1.56,
2.505,-0.54,8.40,-2.27,1.40,8.62,1.57,
2.506,-0.83,7.23,-1.31,1.40,8.62,1.57,
2.506,-0.83,7.23,-1.31,1.22,8.23,1.59,
2.507,-0.83,7.23,-1.31,1.02,7.74,1.59,
2.51,-0.83,7.23,-1.31,0.76,6.94,1.59,
2.511,-0.83,7.23,-1.31,0.62,6.41,1.59,
2.513,-0.83,7.23,-1.31,0.56,6.13,1.59,
2.517,-1.55,5.17,1.25,0.56,6.13,1.59,
2.517,-1.55,5.17,1.25,0.45,5.57,1.59,
2.517,-1.55,5.17,1.25,0.37,4.98,1.59,
2.521,-1.55,5.17,1.25,0.31,4.09,1.61,
2.521,-1.55,5.17,1.25,0.32,3.50,1.63,
2.525,-1.55,5.17,1.25,0.33,3.21,1.64,
2.525,-3.09,2.68,5.84,0.33,3.21,1.64,
2.527,-3.09,2.68,5.84,0.36,2.65,1.68,
2.531,-3.09,2.68,5.84,0.41,2.09,1.72,
2.531,-3.09,2.68,5.84,0.51,1.30,1.79,
2.532,-3.09,2.68,5.84,0.59,0.79,1.84,
2.535,-3.09,2.68,5.84,0.63,0.53,1.86,
2.535,-4.02,0.12,7.14,0.63,0.53,1.86,
2.535,-4.02,0.12,7.14,0.72,0.03,1.91,
2.537,-4.02,0.12,7.14,0.81,-0.45,1.96,
2.54,-4.02,0.12,7.14,0.94,-1.14,2.03,
2.541,-4.02,0.12,7.14,1.03,-1.59,2.07,
2.544,-4.02,0.12,7.14,1.07,-1.80,2.09,
2.545,-3.53,-2.04,5.19,1.07,-1.80,2.09,
2.546,-3.53,-2.04,5.19,1.15,-2.20,2.12,
2.567,-3.53,-2.04,5.19,1.23,-2.57,2.14,
2.567,-3.53,-2.04,5.19,1.33,-3.06,2.16,
2.568,-3.53,-2.04,5.19,1.39,-3.34,2.16,
2.568,-3.53,-2.04,5.19,1.42,-3.47,2.15,
2.568,-2.27,-3.16,2.42,1.42,-3.47,2.15,
2.569,-2.27,-3.16,2.42,1.48,-3.71,2.13,
2.569,-2.27,-3.16,2.42,1.53,-3.92,2.11,
2.569,-2.27,-3.16,2.42,1.61,-4.17,2.04,
2.569,-2.27,-3.16,2.42,1.66,-4.30,2.00,
2.57,-2.27,-3.16,2.42,1.68,-4.36,1.97,
2.57,-0.92,-3.12,0.34,1.68,-4.36,1.97,
2.571,-0.92,-3.12,0.34,1.72,-4.45,1.93,
2.571,-0.92,-3.12,0.34,1.76,-4.50,1.88,
2.571,-0.92,-3.12,0.34,1.80,-4.53,1.80,
2.571,-0.92,-3.12,0.34,1.83,-4.52,1.75,
2.579,-0.92,-3.12,0.34,1.84,-4.49,1.73,
2.58,-0.69,-2.62,-1.15,1.84,-4.49,1.73,
2.581,-0.69,-2.62,-1.15,1.86,-4.43,1.67,
2.581,-0.69,-2.62,-1.15,1.86,-4.32,1.62,
2.581,-0.69,-2.62,-1.15,1.85,-4.07,1.53,
2.582,-0.69,-2.62,-1.15,1.81,-3.84,1.46,
2.585,-0.69,-2.62,-1.15,1.79,-3.71,1.43,
2.586,-0.32,-2.34,-2.77,1.79,-3.71,1.43,
2.586,-0.32,-2.34,-2.77,1.73,-3.41,1.35,
2.589,-0.32,-2.34,-2.77,1.67,-3.10,1.28,
2.59,-0.32,-2.34,-2.77,1.57,-2.59,1.15,
2.594,-0.32,-2.34,-2.77,1.49,-2.24,1.07,
2.594,-0.32,-2.34,-2.77,1.44,-2.07,1.03,
2.605,0.57,-2.12,-3.94,1.44,-2.07,1.03,
2.606,0.57,-2.12,-3.94,1.35,-1.71,0.95,
2.606,0.57,-2.12,-3.94,1.26,-1.37,0.87,
2.606,0.57,-2.12,-3.94,1.11,-0.87,0.75,
2.607,0.57,-2.12,-3.94,1.01,-0.57,0.68,
2.607,0.57,-2.12,-3.94,0.96,-0.42,0.65,
2.607,1.11,-1.41,-4.65,0.96,-0.42,0.65,
2.607,1.11,-1.41,-4.65,0.85,-0.16,0.58,
2.631,1.11,-1.41,-4.65,0.75,0.08,0.52,
2.631,1.11,-1.41,-4.65,0.56,0.49,0.40,
2.632,1.11,-1.41,-4.65,0.52,0.57,0.38,
2.632,1.11,-1.41,-4.65,0.47,0.66,0.35,
2.632,1.40,-0.56,-4.88,0.47,0.66,0.35,
2.633,1.40,-0.56,-4.88,0.36,0.89,0.27,
2.633,1.40,-0.56,-4.88,0.30,1.03,0.22,
2.633,1.40,-0.56,-4.88,0.26,1.15,0.17,
2.633,1.40,-0.56,-4.88,0.24,1.26,0.11,
2.633,1.40,-0.56,-4.88,0.24,1.35,0.06,
2.634,2.26,0.08,-2.75,0.24,1.35,0.06,
2.634,2.26,0.08,-2.75,0.25,1.42,-0.01,
2.634,2.26,0.08,-2.75,0.28,1.48,-0.07,
2.634,2.26,0.08,-2.75,0.33,1.52,-0.14,
2.635,2.26,0.08,-2.75,0.38,1.55,-0.20,
2.635,2.26,0.08,-2.75,0.45,1.55,-0.27,
2.635,3.59,0.28,0.56,0.45,1.55,-0.27,
2.635,3.59,0.28,0.56,0.52,1.54,-0.33,
2.643,3.59,0.28,0.56,0.59,1.51,-0.39,
2.644,3.59,0.28,0.56,0.66,1.47,-0.45,
2.644,3.59,0.28,0.56,0.72,1.43,-0.51,
2.644,3.59,0.28,0.56,0.78,1.37,-0.56,
2.649,3.97,0.41,1.51,0.78,1.37,-0.56,
2.65,3.97,0.41,1.51,0.83,1.32,-0.60,
2.65,3.97,0.41,1.51,0.87,1.26,-0.64,
2.65,3.97,0.41,1.51,0.90,1.21,-0.67,
2.651,3.97,0.41,1.51,0.93,1.16,-0.70,
2.655,3.97,0.41,1.51,0.94,1.12,-0.72,
2.655,3.79,0.70,0.94,0.94,1.12,-0.72,
2.656,3.79,0.70,0.94,0.95,1.08,-0.73,
2.659,3.79,0.70,0.94,0.94,1.05,-0.74,
2.662,3.79,0.70,0.94,0.93,1.03,-0.74,
2.662,3.79,0.70,0.94,0.90,1.00,-0.73,
2.663,3.79,0.70,0.94,0.87,0.99,-0.73,
2.666,3.30,1.15,0.10,0.87,0.99,-0.73,
2.666,3.30,1.15,0.10,0.83,0.97,-0.71,
2.667,3.30,1.15,0.10,0.78,0.96,-0.69,
2.67,3.30,1.15,0.10,0.73,0.95,-0.67,
2.671,3.30,1.15,0.10,0.68,0.94,-0.64,
2.673,3.30,1.15,0.10,0.62,0.94,-0.61,
2.677,2.85,1.60,-0.17,0.62,0.94,-0.61,
2.678,2.85,1.60,-0.17,0.56,0.93,-0.57,
2.68,2.85,1.60,-0.17,0.50,0.92,-0.53,
2.68,2.85,1.60,-0.17,0.44,0.91,-0.50,
2.681,2.85,1.60,-0.17,0.39,0.90,-0.46,
2.683,2.85,1.60,-0.17,0.34,0.89,-0.43,
2.686,2.17,1.93,0.18,0.34,0.89,-0.43,
2.686,2.17,1.93,0.18,0.30,0.87,-0.41,
2.687,2.17,1.93,0.18,0.26,0.84,-0.39,
2.69,2.17,1.93,0.18,0.21,0.78,-0.36,
2.692,2.17,1.93,0.18,0.20,0.76,-0.36,
2.694,2.17,1.93,0.18,0.17,0.70,-0.35,
2.695,1.38,1.69,0.97,0.17,0.70,-0.35,
2.696,1.38,1.69,0.97,0.14,0.64,-0.34,
2.698,1.38,1.69,0.97,0.11,0.57,-0.34,
2.7,1.38,1.69,0.97,0.09,0.50,-0.33,
2.701,1.38,1.69,0.97,0.07,0.42,-0.33,
2.703,1.38,1.69,0.97,0.05,0.33,-0.33,
2.705,0.32,1.19,1.49,0.05,0.33,-0.33,
2.705,0.32,1.19,1.49,0.03,0.24,-0.32,
2.707,0.32,1.19,1.49,0.01,0.15,-0.32,
2.71,0.32,1.19,1.49,-0.00,0.05,-0.31,
2.711,0.32,1.19,1.49,-0.02,-0.04,-0.31,
2.713,0.32,1.19,1.49,-0.03,-0.13,-0.30,
2.737,-0.81,0.96,1.92,-0.03,-0.13,-0.30,
2.737,-0.81,0.96,1.92,-0.04,-0.22,-0.30,
2.737,-0.81,0.96,1.92,-0.05,-0.32,-0.29,
2.738,-0.81,0.96,1.92,-0.06,-0.41,-0.28,
2.738,-0.81,0.96,1.92,-0.06,-0.49,-0.28,
2.738,-0.81,0.96,1.92,-0.07,-0.58,-0.27,
2.738,-1.67,0.90,2.19,-0.07,-0.58,-0.27,
2.739,-1.67,0.90,2.19,-0.07,-0.67,-0.27,
2.739,-1.67,0.90,2.19,-0.06,-0.75,-0.26,
2.739,-1.67,0.90,2.19,-0.06,-0.84,-0.25,
2.739,-1.67,0.90,2.19,-0.05,-0.92,-0.25,
2.739,-1.67,0.90,2.19,-0.04,-1.00,-0.24,
2.739,-2.33,0.98,2.50,-0.04,-1.00,-0.24,
2.74,-2.33,0.98,2.50,-0.02,-1.09,-0.24,
2.74,-2.33,0.98,2.50,-0.01,-1.17,-0.23,
2.74,-2.33,0.98,2.50,0.01,-1.26,-0.23,
2.749,-2.33,0.98,2.50,0.03,-1.33,-0.23,
2.749,-2.33,0.98,2.50,0.05,-1.41,-0.23,
2.75,-2.58,1.09,2.44,0.05,-1.41,-0.23,
2.75,-2.58,1.09,2.44,0.07,-1.48,-0.23,
2.75,-2.58,1.09,2.44,0.09,-1.54,-0.23,
2.75,-2.58,1.09,2.44,0.11,-1.60,-0.23,
2.751,-2.58,1.09,2.44,0.12,-1.65,-0.23,
2.753,-2.58,1.09,2.44,0.14,-1.69,-0.24,
2.755,-2.81,1.53,1.86,0.14,-1.69,-0.24,
2.756,-2.81,1.53,1.86,0.15,-1.72,-0.24,
2.774,-2.81,1.53,1.86,0.16,-1.74,-0.24,
2.774,-2.81,1.53,1.86,0.16,-1.75,-0.24,
2.775,-2.81,1.53,1.86,0.16,-1.76,-0.24,
2.775,-2.81,1.53,1.86,0.16,-1.76,-0.23,
2.775,-2.97,1.99,0.79,0.16,-1.76,-0.23,
2.775,-2.97,1.99,0.79,0.16,-1.74,-0.23,
2.775,-2.97,1.99,0.79,0.15,-1.72,-0.22,
2.776,-2.97,1.99,0.79,0.13,-1.68,-0.20,
2.776,-2.97,1.99,0.79,0.13,-1.66,-0.20,
2.776,-2.97,1.99,0.79,0.11,-1.62,-0.19,
2.776,-3.17,2.49,-0.23,0.11,-1.62,-0.19,
2.776,-3.17,2.49,-0.23,0.10,-1.57,-0.17,
2.779,-3.17,2.49,-0.23,0.09,-1.52,-0.16,
2.78,-3.17,2.49,-0.23,0.07,-1.46,-0.14,
2.781,-3.17,2.49,-0.23,0.05,-1.40,-0.12,
2.783,-3.17,2.49,-0.23,0.04,-1.34,-0.11,
2.785,-2.89,2.73,-0.94,0.04,-1.34,-0.11,
2.786,-2.89,2.73,-0.94,0.03,-1.28,-0.09,
2.787,-2.89,2.73,-0.94,0.02,-1.22,-0.07,
2.79,-2.89,2.73,-0.94,0.01,-1.14,-0.04,
2.793,-2.89,2.73,-0.94,0.01,-1.12,-0.03,
2.794,-2.89,2.73,-0.94,0.01,-1.07,-0.01,
2.795,-2.41,2.74,-1.20,0.01,-1.07,-0.01,
2.795,-2.41,2.74,-1.20,0.01,-1.02,0.00,
2.799,-2.41,2.74,-1.20,0.02,-0.99,0.02,
2.8,-2.41,2.74,-1.20,0.03,-0.94,0.03,
2.801,-2.41,2.74,-1.20,0.03,-0.93,0.04,
2.804,-2.41,2.74,-1.20,0.05,-0.91,0.05,
2.806,-1.50,2.37,-1.16,0.05,-0.91,0.05,
2.807,-1.50,2.37,-1.16,0.06,-0.89,0.06,
2.807,-1.50,2.37,-1.16,0.07,-0.89,0.06,
2.811,-1.50,2.37,-1.16,0.09,-0.88,0.06,
2.814,-1.50,2.37,-1.16,0.10,-0.88,0.06,
2.815,-1.50,2.37,-1.16,0.12,-0.88,0.06,
2.817,-0.46,1.77,-1.08,0.12,-0.88,0.06,
2.818,-0.46,1.77,-1.08,0.13,-0.88,0.06,
2.818,-0.46,1.77,-1.08,0.15,-0.89,0.05,
2.82,-0.46,1.77,-1.08,0.17,-0.90,0.04,
2.821,-0.46,1.77,-1.08,0.18,-0.90,0.04,
2.823,-0.46,1.77,-1.08,0.19,-0.90,0.02,
2.826,0.51,1.09,-0.98,0.19,-0.90,0.02,
2.827,0.51,1.09,-0.98,0.20,-0.90,0.01,
2.827,0.51,1.09,-0.98,0.21,-0.90,-0.00,
2.83,0.51,1.09,-0.98,0.22,-0.90,-0.02,
2.831,0.51,1.09,-0.98,0.22,-0.90,-0.03,
2.833,0.51,1.09,-0.98,0.22,-0.89,-0.05,
2.835,1.30,0.43,-0.79,0.22,-0.89,-0.05,
2.835,1.30,0.43,-0.79,0.22,-0.89,-0.06,
2.837,1.30,0.43,-0.79,0.22,-0.88,-0.08,
2.84,1.30,0.43,-0.79,0.20,-0.87,-0.10,
2.843,1.30,0.43,-0.79,0.20,-0.87,-0.11,
2.844,1.30,0.43,-0.79,0.19,-0.86,-0.13,
2.847,1.84,-0.18,-0.33,0.19,-0.86,-0.13,
2.848,1.84,-0.18,-0.33,0.17,-0.86,-0.14,
2.849,1.84,-0.18,-0.33,0.16,-0.85,-0.14,
2.85,1.84,-0.18,-0.33,0.13,-0.83,-0.15,
2.851,1.84,-0.18,-0.33,0.12,-0.83,-0.16,
2.864,1.84,-0.18,-0.33,0.10,-0.80,-0.17,
2.865,2.11,-0.95,0.47,0.10,-0.80,-0.17,
2.866,2.11,-0.95,0.47,0.07,-0.78,-0.18,
2.866,2.11,-0.95,0.47,0.05,-0.75,-0.19,
2.867,2.11,-0.95,0.47,0.01,-0.69,-0.20,
2.867,2.11,-0.95,0.47,0.00,-0.67,-0.21,
2.867,2.11,-0.95,0.47,-0.02,-0.63,-0.22,
2.868,2.22,-1.59,1.62,-0.02,-0.63,-0.22,
2.868,2.22,-1.59,1.62,-0.04,-0.58,-0.23,
2.868,2.22,-1.59,1.62,-0.05,-0.53,-0.24,
2.87,2.22,-1.59,1.62,-0.07,-0.45,-0.26,
2.895,2.22,-1.59,1.62,-0.07,-0.42,-0.26,
2.896,2.22,-1.59,1.62,-0.08,-0.36,-0.27,
2.897,2.44,-2.21,3.27,-0.08,-0.36,-0.27,
2.897,2.44,-2.21,3.27,-0.09,-0.31,-0.29,
2.897,2.44,-2.21,3.27,-0.09,-0.26,-0.30,
2.897,2.44,-2.21,3.27,-0.09,-0.18,-0.31,
2.929,2.44,-2.21,3.27,-0.09,-0.16,-0.31,
2.93,2.44,-2.21,3.27,-0.09,-0.11,-0.32,
2.93,2.32,-2.71,4.54,-0.09,-0.11,-0.32,
2.931,2.32,-2.71,4.54,-0.09,-0.05,-0.33,
2.932,2.32,-2.71,4.54,-0.09,0.01,-0.34,
2.932,2.32,-2.71,4.54,-0.09,0.11,-0.35,
2.933,2.32,-2.71,4.54,-0.09,0.14,-0.36,
2.934,2.32,-2.71,4.54,-0.09,0.21,-0.37,
2.934,2.18,-2.78,5.26,-0.09,0.21,-0.37,
2.935,2.18,-2.78,5.26,-0.09,0.29,-0.38,
2.935,2.18,-2.78,5.26,-0.09,0.38,-0.40,
2.936,2.18,-2.78,5.26,-0.10,0.51,-0.42,
2.936,2.18,-2.78,5.26,-0.10,0.55,-0.43,
2.937,2.18,-2.78,5.26,-0.11,0.64,-0.45,
2.937,1.82,-2.15,5.02,-0.11,0.64,-0.45,
2.938,1.82,-2.15,5.02,-0.12,0.73,-0.47,
2.938,1.82,-2.15,5.02,-0.14,0.82,-0.48,
2.938,1.82,-2.15,5.02,-0.16,0.95,-0.51,
2.939,1.82,-2.15,5.02,-0.17,0.99,-0.52,
2.939,1.82,-2.15,5.02,-0.19,1.07,-0.54,
2.94,1.29,-0.95,4.19,-0.19,1.07,-0.54,
2.94,1.29,-0.95,4.19,-0.21,1.14,-0.55,
2.94,1.29,-0.95,4.19,-0.23,1.22,-0.57,
2.941,1.29,-0.95,4.19,-0.26,1.33,-0.60,
2.941,1.29,-0.95,4.19,-0.27,1.37,-0.61,
2.942,1.29,-0.95,4.19,-0.30,1.44,-0.63,
2.942,0.84,0.21,2.65,-0.30,1.44,-0.63,
2.943,0.84,0.21,2.65,-0.33,1.51,-0.64,
2.943,0.84,0.21,2.65,-0.35,1.58,-0.66,
2.943,0.84,0.21,2.65,-0.40,1.67,-0.68,
2.944,0.84,0.21,2.65,-0.41,1.70,-0.69,
2.944,0.84,0.21,2.65,-0.44,1.75,-0.70,
2.944,0.68,0.91,0.85,-0.44,1.75,-0.70,
2.945,0.68,0.91,0.85,-0.48,1.80,-0.71,
2.945,0.68,0.91,0.85,-0.51,1.84,-0.72,
2.946,0.68,0.91,0.85,-0.57,1.88,-0.73,
2.946,0.68,0.91,0.85,-0.59,1.89,-0.73,
2.946,0.68,0.91,0.85,-0.63,1.90,-0.73,
2.947,0.52,0.68,-0.85,-0.63,1.90,-0.73,
2.947,0.52,0.68,-0.85,-0.67,1.91,-0.73,
2.947,0.52,0.68,-0.85,-0.71,1.90,-0.73,
2.959,0.52,0.68,-0.85,-0.77,1.89,-0.72,
2.959,0.52,0.68,-0.85,-0.79,1.88,-0.71,
2.96,0.52,0.68,-0.85,-0.82,1.85,-0.70,
2.96,0.34,-0.67,-1.83,-0.82,1.85,-0.70,
2.96,0.34,-0.67,-1.83,-0.87,1.82,-0.69,
2.96,0.34,-0.67,-1.83,-0.91,1.78,-0.68,
2.962,0.34,-0.67,-1.83,-0.96,1.69,-0.65,
2.963,0.34,-0.67,-1.83,-0.98,1.65,-0.65,
2.963,0.34,-0.67,-1.83,-1.03,1.56,-0.62,
2.965,0.22,-2.64,-2.63,-1.03,1.56,-0.62,
2.966,0.22,-2.64,-2.63,-1.07,1.46,-0.60,
2.972,0.22,-2.64,-2.63,-1.20,1.05,-0.50,
2.972,0.22,-2.64,-2.63,-1.20,1.05,-0.50,
2.973,0.22,-2.64,-2.63,-1.24,0.89,-0.46,
2.975,0.22,-2.64,-2.63,-1.24,0.89,-0.46,
2.976,-0.22,-4.37,-3.97,-1.24,0.89,-0.46,
2.976,-0.22,-4.37,-3.97,-1.28,0.71,-0.41,
2.977,-0.22,-4.37,-3.97,-1.31,0.53,-0.37,
2.981,-0.22,-4.37,-3.97,-1.37,0.23,-0.31,
2.982,-0.22,-4.37,-3.97,-1.38,0.13,-0.30,
2.984,-0.22,-4.37,-3.97,-1.41,-0.08,-0.26,
2.986,-0.50,-5.14,-5.02,-1.41,-0.08,-0.26,
2.986,-0.50,-5.14,-5.02,-1.44,-0.29,-0.22,
2.988,-0.50,-5.14,-5.02,-1.47,-0.51,-0.18,
2.991,-0.50,-5.14,-5.02,-1.51,-0.85,-0.13,
2.992,-0.50,-5.14,-5.02,-1.52,-0.96,-0.11,
2.993,-0.50,-5.14,-5.02,-1.54,-1.19,-0.07,
2.995,-1.01,-5.16,-5.87,-1.54,-1.19,-0.07,
2.996,-1.01,-5.16,-5.87,-1.55,-1.42,-0.04,
2.997,-1.01,-5.16,-5.87,-1.56,-1.65,-0.01,
3.0,-1.01,-5.16,-5.87,-1.55,-1.99,0.03,
3.001,-1.01,-5.16,-5.87,-1.55,-2.10,0.04,
3.004,-1.01,-5.16,-5.87,-1.53,-2.33,0.06,
3.005,-1.51,-4.15,-5.81,-1.53,-2.33,0.06,
3.005,-1.51,-4.15,-5.81,-1.50,-2.54,0.08,
3.013,-1.51,-4.15,-5.81,-1.45,-2.76,0.08,
3.014,-1.51,-4.15,-5.81,-1.35,-3.07,0.08,
3.014,-1.51,-4.15,-5.81,-1.30,-3.17,0.08,
3.014,-1.51,-4.15,-5.81,-1.19,-3.36,0.07,
3.015,-1.58,-3.00,-3.61,-1.19,-3.36,0.07,
3.015,-1.58,-3.00,-3.61,-1.06,-3.53,0.07,
3.017,-1.58,-3.00,-3.61,-0.90,-3.69,0.06,
3.02,-1.58,-3.00,-3.61,-0.64,-3.88,0.08,
3.021,-1.58,-3.00,-3.61,-0.55,-3.92,0.08,
3.037,-1.58,-3.00,-3.61,-0.37,-4.00,0.11,
3.038,-3.00,-1.67,-0.49,-0.37,-4.00,0.11,
3.038,-3.00,-1.67,-0.49,-0.18,-4.05,0.15,
3.038,-3.00,-1.67,-0.49,0.00,-4.07,0.20,
3.039,-3.00,-1.67,-0.49,0.26,-4.06,0.30,
3.039,-3.00,-1.67,-0.49,0.35,-4.05,0.33,
3.039,-3.00,-1.67,-0.49,0.50,-4.00,0.41,
3.039,-5.40,-0.14,-0.08,0.50,-4.00,0.41,
3.04,-5.40,-0.14,-0.08,0.64,-3.92,0.50,
3.04,-5.40,-0.14,-0.08,0.77,-3.83,0.59,
3.041,-5.40,-0.14,-0.08,0.94,-3.65,0.73,
3.051,-5.40,-0.14,-0.08,0.98,-3.58,0.78,
3.052,-5.40,-0.14,-0.08,1.06,-3.43,0.87,
3.052,-6.25,0.90,-1.71,1.06,-3.43,0.87,
3.053,-6.25,0.90,-1.71,1.13,-3.26,0.96,
3.082,-6.25,0.90,-1.71,1.18,-3.08,1.05,
3.083,-6.25,0.90,-1.71,1.23,-2.80,1.18,
3.083,-6.25,0.90,-1.71,1.24,-2.71,1.22,
3.083,-6.25,0.90,-1.71,1.25,-2.51,1.30,
3.083,-5.97,1.51,-3.81,1.25,-2.51,1.30,
3.084,-5.97,1.51,-3.81,1.25,-2.30,1.38,
3.084,-5.97,1.51,-3.81,1.24,-2.09,1.45,
3.084,-5.97,1.51,-3.81,1.21,-1.76,1.56,
3.084,-5.97,1.51,-3.81,1.21,-1.64,1.59,
3.084,-5.97,1.51,-3.81,1.18,-1.40,1.65,
3.085,-4.86,1.94,-4.76,1.18,-1.40,1.65,
3.085,-4.86,1.94,-4.76,1.15,-1.15,1.71,
3.085,-4.86,1.94,-4.76,1.11,-0.87,1.75,
3.085,-4.86,1.94,-4.76,1.05,-0.40,1.79,
3.086,-4.86,1.94,-4.76,1.02,-0.23,1.80,
3.086,-4.86,1.94,-4.76,0.96,0.16,1.81,
3.086,-3.02,2.43,-4.74,0.96,0.16,1.81,
3.086,-3.02,2.43,-4.74,0.86,0.64,1.79,
3.086,-3.02,2.43,-4.74,0.72,1.18,1.74,
3.087,-3.02,2.43,-4.74,0.46,1.92,1.63,
3.087,-3.02,2.43,-4.74,0.37,2.14,1.59,
3.087,-3.02,2.43,-4.74,0.16,2.58,1.48,
3.087,0.38,2.55,-6.13,0.16,2.58,1.48,
3.087,0.38,2.55,-6.13,-0.05,2.96,1.36,
3.088,0.38,2.55,-6.13,-0.27,3.27,1.23,
3.091,0.38,2.55,-6.13,-0.58,3.61,1.02,
3.092,0.38,2.55,-6.13,-0.68,3.69,0.95,
3.093,0.38,2.55,-6.13,-0.85,3.80,0.80,
3.095,3.53,1.23,-5.87,-0.85,3.80,0.80,
3.095,3.53,1.23,-5.87,-0.98,3.84,0.64,
3.097,3.53,1.23,-5.87,-1.06,3.81,0.49,
3.1,3.53,1.23,-5.87,-1.09,3.64,0.23,
3.101,3.53,1.23,-5.87,-1.08,3.55,0.14,
3.103,3.53,1.23,-5.87,-1.06,3.32,-0.04,
3.105,7.29,-1.49,1.25,-1.06,3.32,-0.04,
3.105,7.29,-1.49,1.25,-1.01,3.05,-0.23,
3.107,7.29,-1.49,1.25,-0.96,2.73,-0.41,
3.11,7.29,-1.49,1.25,-0.87,2.19,-0.70,
3.112,7.29,-1.49,1.25,-0.84,2.00,-0.79,
3.113,7.29,-1.49,1.25,-0.81,1.61,-0.97,
3.115,9.43,-3.99,4.62,-0.81,1.61,-0.97,
3.115,9.43,-3.99,4.62,-0.80,1.22,-1.14,
3.117,9.43,-3.99,4.62,-0.81,0.83,-1.30,
3.119,9.43,-3.99,4.62,-0.87,0.28,-1.50,
3.121,9.43,-3.99,4.62,-0.90,0.10,-1.56,
3.128,9.43,-3.99,4.62,-0.97,-0.25,-1.68,
3.128,8.12,-4.76,1.99,-0.97,-0.25,-1.68,
3.128,8.12,-4.76,1.99,-1.06,-0.59,-1.78,
3.128,8.12,-4.76,1.99,-1.16,-0.91,-1.86,
3.13,8.12,-4.76,1.99,-1.33,-1.36,-1.97,
3.131,8.12,-4.76,1.99,-1.39,-1.51,-2.00,
3.138,8.12,-4.76,1.99,-1.50,-1.79,-2.05,
3.141,5.97,-4.42,-1.15,-1.50,-1.79,-2.05,
3.142,5.97,-4.42,-1.15,-1.60,-2.06,-2.10,
3.142,5.97,-4.42,-1.15,-1.71,-2.31,-2.14,
3.142,5.97,-4.42,-1.15,-1.85,-2.67,-2.18,
3.142,5.97,-4.42,-1.15,-1.89,-2.79,-2.20,
3.151,5.97,-4.42,-1.15,-1.97,-3.00,-2.22,
3.152,3.96,-3.25,-2.69,-1.97,-3.00,-2.22,
3.152,3.96,-3.25,-2.69,-2.05,-3.20,-2.23,
3.152,3.96,-3.25,-2.69,-2.11,-3.38,-2.24,
3.152,3.96,-3.25,-2.69,-2.21,-3.63,-2.25,
3.152,3.96,-3.25,-2.69,-2.24,-3.70,-2.25,
3.154,3.96,-3.25,-2.69,-2.29,-3.83,-2.25,
3.155,2.53,-1.88,-3.53,-2.29,-3.83,-2.25,
3.156,2.53,-1.88,-3.53,-2.35,-3.96,-2.24,
3.165,2.53,-1.88,-3.53,-2.39,-4.06,-2.23,
3.166,2.53,-1.88,-3.53,-2.46,-4.20,-2.20,
3.167,2.53,-1.88,-3.53,-2.48,-4.24,-2.20,
3.167,2.53,-1.88,-3.53,-2.51,-4.31,-2.17,
3.167,1.30,-0.67,-3.59,-2.51,-4.31,-2.17,
3.168,1.30,-0.67,-3.59,-2.55,-4.36,-2.15,
3.168,1.30,-0.67,-3.59,-2.57,-4.41,-2.12,
3.17,1.30,-0.67,-3.59,-2.61,-4.47,-2.07,
3.171,1.30,-0.67,-3.59,-2.61,-4.48,-2.05,
3.176,1.30,-0.67,-3.59,-2.61,-4.50,-2.00,
3.178,0.31,0.18,-2.76,-2.61,-4.50,-2.00,
3.178,0.31,0.18,-2.76,-2.61,-4.51,-1.96,
3.179,0.31,0.18,-2.76,-2.60,-4.52,-1.91,
3.18,0.31,0.18,-2.76,-2.55,-4.51,-1.83,
3.181,0.31,0.18,-2.76,-2.53,-4.50,-1.80,
3.183,0.31,0.18,-2.76,-2.48,-4.48,-1.74,
3.185,-0.76,0.85,-0.81,-2.48,-4.48,-1.74,
3.186,-0.76,0.85,-0.81,-2.41,-4.44,-1.68,
3.187,-0.76,0.85,-0.81,-2.33,-4.40,-1.61,
3.19,-0.76,0.85,-0.81,-2.19,-4.31,-1.51,
3.192,-0.76,0.85,-0.81,-2.13,-4.27,-1.47,
3.193,-0.76,0.85,-0.81,-2.02,-4.17,-1.40,
3.195,-1.78,1.35,1.51,-2.02,-4.17,-1.40,
3.196,-1.78,1.35,1.51,-1.90,-4.06,-1.33,
3.197,-1.78,1.35,1.51,-1.78,-3.92,-1.25,
3.2,-1.78,1.35,1.51,-1.58,-3.69,-1.14,
3.201,-1.78,1.35,1.51,-1.52,-3.61,-1.10,
3.203,-1.78,1.35,1.51,-1.39,-3.43,-1.02,
3.206,-2.31,1.56,2.53,-1.39,-3.43,-1.02,
3.207,-2.31,1.56,2.53,-1.27,-3.25,-0.95,
3.207,-2.31,1.56,2.53,-1.15,-3.06,-0.88,
3.21,-2.31,1.56,2.53,-0.99,-2.78,-0.78,
3.212,-2.31,1.56,2.53,-0.94,-2.68,-0.75,
3.213,-2.31,1.56,2.53,-0.86,-2.49,-0.70,
3.246,-2.01,1.45,1.60,-0.86,-2.49,-0.70,
3.246,-2.01,1.45,1.60,-0.78,-2.30,-0.65,
3.247,-2.01,1.45,1.60,-0.72,-2.12,-0.61,
3.247,-2.01,1.45,1.60,-0.64,-1.86,-0.57,
3.248,-2.01,1.45,1.60,-0.62,-1.78,-0.55,
3.248,-2.01,1.45,1.60,-0.58,-1.62,-0.53,
3.249,-0.92,0.93,-0.03,-0.58,-1.62,-0.53,
3.249,-0.92,0.93,-0.03,-0.54,-1.49,-0.51,
3.249,-0.92,0.93,-0.03,-0.51,-1.36,-0.50,
3.25,-0.92,0.93,-0.03,-0.48,-1.20,-0.49,
3.25,-0.92,0.93,-0.03,-0.47,-1.16,-0.48,
3.251,-0.92,0.93,-0.03,-0.45,-1.07,-0.48,
3.251,-0.12,0.26,-0.97,-0.45,-1.07,-0.48,
3.251,-0.12,0.26,-0.97,-0.45,-0.99,-0.49,
3.252,-0.12,0.26,-0.97,-0.44,-0.92,-0.49,
3.252,-0.12,0.26,-0.97,-0.43,-0.83,-0.50,
3.253,-0.12,0.26,-0.97,-0.43,-0.80,-0.50,
3.253,-0.12,0.26,-0.97,-0.43,-0.74,-0.50,
3.254,0.16,-0.38,-1.04,-0.43,-0.74,-0.50,
3.254,0.16,-0.38,-1.04,-0.43,-0.65,-0.51,
3.254,0.16,-0.38,-1.04,-0.45,-0.52,-0.51,
3.255,0.16,-0.38,-1.04,-0.52,-0.22,-0.49,
3.255,0.16,-0.38,-1.04,-0.55,-0.11,-0.49,
3.256,0.16,-0.38,-1.04,-0.64,0.11,-0.48,
3.256,0.05,-0.83,-0.96,-0.64,0.11,-0.48,
3.256,0.05,-0.83,-0.96,-0.73,0.35,-0.47,
3.257,0.05,-0.83,-0.96,-0.84,0.59,-0.47,
3.266,0.05,-0.83,-0.96,-1.01,0.92,-0.46,
3.266,0.05,-0.83,-0.96,-1.07,1.01,-0.45,
3.266,0.05,-0.83,-0.96,-1.17,1.18,-0.44,
3.267,0.22,-1.43,-1.31,-1.17,1.18,-0.44,
3.267,0.22,-1.43,-1.31,-1.26,1.31,-0.43,
3.267,0.22,-1.43,-1.31,-1.34,1.42,-0.42,
3.27,0.22,-1.43,-1.31,-1.44,1.55,-0.40,
3.271,0.22,-1.43,-1.31,-1.47,1.58,-0.39,
3.276,0.22,-1.43,-1.31,-1.52,1.62,-0.38,
3.276,0.17,-1.47,-0.03,-1.52,1.62,-0.38,
3.276,0.17,-1.47,-0.03,-1.56,1.64,-0.37,
3.277,0.17,-1.47,-0.03,-1.59,1.63,-0.36,
3.283,0.17,-1.47,-0.03,-1.63,1.60,-0.34,
3.284,0.17,-1.47,-0.03,-1.63,1.58,-0.34,
3.284,0.17,-1.47,-0.03,-1.64,1.54,-0.34,
3.285,0.43,-1.28,1.30,-1.64,1.54,-0.34,
3.285,0.43,-1.28,1.30,-1.65,1.49,-0.34,
3.287,0.43,-1.28,1.30,-1.65,1.42,-0.35,
3.295,0.43,-1.28,1.30,-1.63,1.31,-0.35,
3.296,0.43,-1.28,1.30,-1.62,1.26,-0.36,
3.296,0.43,-1.28,1.30,-1.59,1.16,-0.36,
3.296,0.69,-1.10,2.42,-1.59,1.16,-0.36,
3.296,0.69,-1.10,2.42,-1.57,1.05,-0.37,
3.297,0.69,-1.10,2.42,-1.53,0.93,-0.38,
3.302,0.69,-1.10,2.42,-1.48,0.73,-0.39,
3.304,0.69,-1.10,2.42,-1.46,0.66,-0.39,
3.313,0.69,-1.10,2.42,-1.42,0.51,-0.40,
3.314,0.84,-0.99,2.79,-1.42,0.51,-0.40,
3.314,0.84,-0.99,2.79,-1.37,0.36,-0.41,
3.315,0.84,-0.99,2.79,-1.32,0.20,-0.41,
3.315,0.84,-0.99,2.79,-1.25,-0.04,-0.42,
3.315,0.84,-0.99,2.79,-1.22,-0.13,-0.43,
3.315,0.84,-0.99,2.79,-1.17,-0.29,-0.43,
3.316,1.09,-0.86,2.98,-1.17,-0.29,-0.43,
3.316,1.09,-0.86,2.98,-1.11,-0.46,-0.44,
3.32,1.09,-0.86,2.98,-1.05,-0.63,-0.45,
3.325,1.09,-0.86,2.98,-0.97,-0.90,-0.45,
3.325,1.09,-0.86,2.98,-0.94,-0.98,-0.46,
3.326,1.09,-0.86,2.98,-0.89,-1.16,-0.46,
3.326,1.21,-0.43,2.87,-0.89,-1.16,-0.46,
3.326,1.21,-0.43,2.87,-0.84,-1.33,-0.47,
3.327,1.21,-0.43,2.87,-0.80,-1.49,-0.47,
3.33,1.21,-0.43,2.87,-0.74,-1.72,-0.48,
3.331,1.21,-0.43,2.87,-0.72,-1.79,-0.48,
3.333,1.21,-0.43,2.87,-0.69,-1.93,-0.49,
3.335,1.25,0.33,2.62,-0.69,-1.93,-0.49,
3.335,1.25,0.33,2.62,-0.67,-2.06,-0.50,
3.341,1.25,0.33,2.62,-0.65,-2.18,-0.50,
3.344,1.25,0.33,2.62,-0.64,-2.36,-0.52,
3.344,1.25,0.33,2.62,-0.63,-2.41,-0.53,
3.344,1.25,0.33,2.62,-0.63,-2.52,-0.54,
3.345,1.37,0.92,2.06,-0.63,-2.52,-0.54,
3.345,1.37,0.92,2.06,-0.63,-2.61,-0.55,
3.347,1.37,0.92,2.06,-0.63,-2.70,-0.56,
3.35,1.37,0.92,2.06,-0.63,-2.80,-0.58,
3.351,1.37,0.92,2.06,-0.64,-2.83,-0.58,
3.353,1.37,0.92,2.06,-0.64,-2.88,-0.60,
3.356,1.49,1.37,1.93,-0.64,-2.88,-0.60,
3.356,1.49,1.37,1.93,-0.65,-2.93,-0.61,
3.357,1.49,1.37,1.93,-0.66,-2.97,-0.63,
3.36,1.49,1.37,1.93,-0.67,-3.02,-0.65,
3.362,1.49,1.37,1.93,-0.67,-3.03,-0.66,
3.363,1.49,1.37,1.93,-0.67,-3.06,-0.67,
3.366,1.64,1.63,1.81,-0.67,-3.06,-0.67,
3.367,1.64,1.63,1.81,-0.68,-3.09,-0.68,
3.367,1.64,1.63,1.81,-0.68,-3.12,-0.69,
3.37,1.64,1.63,1.81,-0.67,-3.17,-0.71,
3.374,1.64,1.63,1.81,-0.67,-3.18,-0.71,
3.374,1.64,1.63,1.81,-0.67,-3.22,-0.72,
3.375,1.63,1.65,1.81,-0.67,-3.22,-0.72,
3.375,1.63,1.65,1.81,-0.66,-3.26,-0.72,
3.377,1.63,1.65,1.81,-0.66,-3.31,-0.72,
3.38,1.63,1.65,1.81,-0.66,-3.39,-0.73,
3.402,1.63,1.65,1.81,-0.66,-3.42,-0.73,
3.403,1.63,1.65,1.81,-0.66,-3.48,-0.73,
3.403,1.57,1.48,1.39,-0.66,-3.48,-0.73,
3.403,1.57,1.48,1.39,-0.67,-3.55,-0.74,
3.404,1.57,1.48,1.39,-0.67,-3.62,-0.74,
3.404,1.57,1.48,1.39,-0.70,-3.76,-0.75,
3.404,1.57,1.48,1.39,-0.71,-3.82,-0.76,
3.404,1.57,1.48,1.39,-0.75,-3.95,-0.76,
3.404,1.75,1.19,0.42,-0.75,-3.95,-0.76,
3.405,1.75,1.19,0.42,-0.80,-4.10,-0.75,
3.405,1.75,1.19,0.42,-0.85,-4.25,-0.73,
3.405,1.75,1.19,0.42,-0.94,-4.47,-0.70,
3.405,1.75,1.19,0.42,-0.97,-4.54,-0.69,
3.405,1.75,1.19,0.42,-1.03,-4.66,-0.66,
3.406,0.75,0.75,-0.46,-1.03,-4.66,-0.66,
3.406,0.75,0.75,-0.46,-1.09,-4.77,-0.64,
3.41,0.75,0.75,-0.46,-1.14,-4.86,-0.62,
3.41,0.75,0.75,-0.46,-1.22,-4.98,-0.58,
3.411,0.75,0.75,-0.46,-1.24,-5.02,-0.58,
3.413,0.75,0.75,-0.46,-1.29,-5.08,-0.56,
3.415,0.44,0.36,-0.34,-1.29,-5.08,-0.56,
3.415,0.44,0.36,-0.34,-1.33,-5.12,-0.54,
3.417,0.44,0.36,-0.34,-1.36,-5.16,-0.53,
3.42,0.44,0.36,-0.34,-1.41,-5.19,-0.51,
3.426,0.44,0.36,-0.34,-1.43,-5.19,-0.50,
3.426,0.44,0.36,-0.34,-1.46,-5.19,-0.49,
3.427,0.39,-0.05,-0.06,-1.46,-5.19,-0.49,
3.427,0.39,-0.05,-0.06,-1.48,-5.18,-0.48,
3.427,0.39,-0.05,-0.06,-1.51,-5.15,-0.46,
3.43,0.39,-0.05,-0.06,-1.54,-5.08,-0.44,
3.434,0.39,-0.05,-0.06,-1.55,-5.04,-0.43,
3.434,0.39,-0.05,-0.06,-1.57,-4.97,-0.42,
3.452,-0.01,-0.43,0.14,-1.57,-4.97,-0.42,
3.453,-0.01,-0.43,0.14,-1.58,-4.88,-0.40,
3.453,-0.01,-0.43,0.14,-1.59,-4.77,-0.37,
3.453,-0.01,-0.43,0.14,-1.58,-4.57,-0.34,
3.453,-0.01,-0.43,0.14,-1.58,-4.49,-0.33,
3.453,-0.01,-0.43,0.14,-1.57,-4.33,-0.30,
3.454,-0.71,-0.86,0.54,-1.57,-4.33,-0.30,
3.454,-0.71,-0.86,0.54,-1.55,-4.14,-0.27,
3.454,-0.71,-0.86,0.54,-1.51,-3.93,-0.23,
3.454,-0.71,-0.86,0.54,-1.46,-3.58,-0.18,
3.454,-0.71,-0.86,0.54,-1.44,-3.45,-0.16,
3.455,-0.71,-0.86,0.54,-1.39,-3.18,-0.12,
3.456,-1.59,-1.70,1.20,-1.39,-3.18,-0.12,
3.457,-1.59,-1.70,1.20,-1.33,-2.90,-0.08,
3.466,-1.59,-1.70,1.20,-1.28,-2.61,-0.04,
3.467,-1.59,-1.70,1.20,-1.18,-2.16,0.03,
3.468,-1.59,-1.70,1.20,-1.15,-2.00,0.06,
3.468,-1.59,-1.70,1.20,-1.07,-1.68,0.10,
3.469,-2.36,-2.90,1.65,-1.07,-1.68,0.10,
3.469,-2.36,-2.90,1.65,-1.00,-1.36,0.14,
3.469,-2.36,-2.90,1.65,-0.93,-1.05,0.19,
3.474,-2.36,-2.90,1.65,-0.82,-0.58,0.26,
3.475,-2.36,-2.90,1.65,-0.79,-0.43,0.28,
3.475,-2.36,-2.90,1.65,-0.72,-0.12,0.31,
3.478,-2.67,-4.13,1.86,-0.72,-0.12,0.31,
3.479,-2.67,-4.13,1.86,-0.65,0.18,0.35,
3.48,-2.67,-4.13,1.86,-0.59,0.47,0.38,
3.48,-2.67,-4.13,1.86,-0.51,0.90,0.41,
3.481,-2.67,-4.13,1.86,-0.48,1.03,0.42,
3.483,-2.67,-4.13,1.86,-0.44,1.30,0.43,
3.486,-1.90,-4.94,1.58,-0.44,1.30,0.43,
3.486,-1.90,-4.94,1.58,-0.40,1.54,0.44,
3.488,-1.90,-4.94,1.58,-0.36,1.78,0.44,
3.491,-1.90,-4.94,1.58,-0.33,2.10,0.43,
3.492,-1.90,-4.94,1.58,-0.33,2.20,0.43,
3.494,-1.90,-4.94,1.58,-0.32,2.39,0.42,
3.495,-0.88,-5.47,1.31,-0.32,2.39,0.42,
3.496,-0.88,-5.47,1.31,-0.31,2.56,0.41,
3.497,-0.88,-5.47,1.31,-0.32,2.71,0.39,
3.5,-0.88,-5.47,1.31,-0.33,2.90,0.37,
3.501,-0.88,-5.47,1.31,-0.34,2.96,0.36,
3.503,-0.88,-5.47,1.31,-0.37,3.06,0.34,
3.506,0.01,-5.60,1.18,-0.37,3.06,0.34,
3.508,0.01,-5.60,1.18,-0.39,3.13,0.33,
3.508,0.01,-5.60,1.18,-0.42,3.20,0.31,
3.51,0.01,-5.60,1.18,-0.47,3.27,0.28,
3.511,0.01,-5.60,1.18,-0.49,3.28,0.27,
3.514,0.01,-5.60,1.18,-0.52,3.31,0.25,
3.515,0.98,-5.16,1.73,-0.52,3.31,0.25,
3.516,0.98,-5.16,1.73,-0.56,3.31,0.23,
3.517,0.98,-5.16,1.73,-0.59,3.31,0.21,
3.52,0.98,-5.16,1.73,-0.62,3.29,0.18,
3.522,0.98,-5.16,1.73,-0.63,3.28,0.18,
3.523,0.98,-5.16,1.73,-0.64,3.24,0.16,
3.525,1.78,-4.42,3.25,-0.64,3.24,0.16,
3.525,1.78,-4.42,3.25,-0.65,3.20,0.14,
3.527,1.78,-4.42,3.25,-0.64,3.14,0.13,
3.53,1.78,-4.42,3.25,-0.61,3.03,0.11,
3.531,1.78,-4.42,3.25,-0.60,2.99,0.11,
3.533,1.78,-4.42,3.25,-0.56,2.89,0.10,
3.535,2.27,-3.67,5.89,-0.56,2.89,0.10,
3.536,2.27,-3.67,5.89,-0.51,2.78,0.10,
3.538,2.27,-3.67,5.89,-0.44,2.65,0.10,
3.544,2.27,-3.67,5.89,-0.31,2.42,0.10,
3.545,2.27,-3.67,5.89,-0.27,2.33,0.10,
3.546,2.27,-3.67,5.89,-0.16,2.14,0.11,
3.547,2.17,-2.87,8.41,-0.16,2.14,0.11,
3.548,2.17,-2.87,8.41,-0.05,1.94,0.12,
3.586,2.17,-2.87,8.41,0.08,1.71,0.13,
3.587,2.17,-2.87,8.41,0.28,1.34,0.16,
3.587,2.17,-2.87,8.41,0.35,1.21,0.17,
3.588,2.17,-2.87,8.41,0.49,0.94,0.19,
3.588,1.50,-2.39,9.84,0.49,0.94,0.19,
3.589,1.50,-2.39,9.84,0.64,0.66,0.22,
3.589,1.50,-2.39,9.84,0.78,0.38,0.24,
3.59,1.50,-2.39,9.84,0.99,-0.03,0.29,
3.59,1.50,-2.39,9.84,1.06,-0.16,0.30,
3.59,1.50,-2.39,9.84,1.19,-0.41,0.33,
3.59,0.74,-2.35,8.75,1.19,-0.41,0.33,
3.591,0.74,-2.35,8.75,1.31,-0.65,0.36,
3.591,0.74,-2.35,8.75,1.42,-0.88,0.38,
3.591,0.74,-2.35,8.75,1.58,-1.19,0.42,
3.591,0.74,-2.35,8.75,1.62,-1.29,0.43,
3.592,0.74,-2.35,8.75,1.71,-1.47,0.45,
3.592,0.37,-2.33,6.34,1.71,-1.47,0.45,
3.592,0.37,-2.33,6.34,1.80,-1.63,0.47,
3.593,0.37,-2.33,6.34,1.87,-1.78,0.48,
3.593,0.37,-2.33,6.34,1.97,-1.97,0.50,
3.593,0.37,-2.33,6.34,2.00,-2.02,0.50,
3.593,0.37,-2.33,6.34,2.06,-2.13,0.51,
3.594,0.13,-2.21,3.48,2.06,-2.13,0.51,
3.594,0.13,-2.21,3.48,2.10,-2.22,0.52,
3.594,0.13,-2.21,3.48,2.15,-2.30,0.53,
3.594,0.13,-2.21,3.48,2.20,-2.40,0.55,
3.595,0.13,-2.21,3.48,2.22,-2.43,0.55,
3.595,0.13,-2.21,3.48,2.25,-2.47,0.57,
3.596,-0.31,-2.30,1.09,2.25,-2.47,0.57,
3.596,-0.31,-2.30,1.09,2.28,-2.50,0.58,
3.61,-0.31,-2.30,1.09,2.30,-2.51,0.59,
3.61,-0.31,-2.30,1.09,2.33,-2.50,0.62,
3.61,-0.31,-2.30,1.09,2.34,-2.48,0.62,
3.611,-0.31,-2.30,1.09,2.36,-2.45,0.64,
3.611,-0.68,-3.01,-0.63,2.36,-2.45,0.64,
3.611,-0.68,-3.01,-0.63,2.38,-2.39,0.65,
3.611,-0.68,-3.01,-0.63,2.40,-2.32,0.67,
3.612,-0.68,-3.01,-0.63,2.43,-2.17,0.68,
3.612,-0.68,-3.01,-0.63,2.44,-2.11,0.69,
3.617,-0.68,-3.01,-0.63,2.46,-1.98,0.69,
3.618,-0.56,-3.94,-1.50,2.46,-1.98,0.69,
3.618,-0.56,-3.94,-1.50,2.49,-1.83,0.69,
3.619,-0.56,-3.94,-1.50,2.52,-1.66,0.69,
3.629,-0.56,-3.94,-1.50,2.57,-1.36,0.68,
3.63,-0.56,-3.94,-1.50,2.58,-1.26,0.67,
3.63,-0.56,-3.94,-1.50,2.62,-1.04,0.66,
3.63,-0.42,-4.44,-1.65,2.62,-1.04,0.66,
3.63,-0.42,-4.44,-1.65,2.65,-0.81,0.65,
3.631,-0.42,-4.44,-1.65,2.68,-0.58,0.63,
3.631,-0.42,-4.44,-1.65,2.73,-0.24,0.61,
3.631,-0.42,-4.44,-1.65,2.75,-0.12,0.59,
3.633,-0.42,-4.44,-1.65,2.79,0.10,0.57,
3.635,-0.41,-4.68,-1.77,2.79,0.10,0.57,
3.635,-0.41,-4.68,-1.77,2.82,0.31,0.55,
3.639,-0.41,-4.68,-1.77,2.86,0.52,0.53,
3.641,-0.41,-4.68,-1.77,2.92,0.83,0.49,
3.641,-0.41,-4.68,-1.77,2.94,0.92,0.48,
3.643,-0.41,-4.68,-1.77,2.98,1.11,0.46,
3.645,-0.50,-4.93,-1.76,2.98,1.11,0.46,
3.646,-0.50,-4.93,-1.76,3.01,1.28,0.44,
3.647,-0.50,-4.93,-1.76,3.05,1.43,0.42,
3.65,-0.50,-4.93,-1.76,3.09,1.62,0.39,
3.651,-0.50,-4.93,-1.76,3.10,1.67,0.38,
3.655,-0.50,-4.93,-1.76,3.11,1.75,0.37,
3.656,-0.81,-5.25,-2.39,3.11,1.75,0.37,
3.657,-0.81,-5.25,-2.39,3.13,1.81,0.36,
3.657,-0.81,-5.25,-2.39,3.13,1.84,0.34,
3.66,-0.81,-5.25,-2.39,3.13,1.85,0.33,
3.661,-0.81,-5.25,-2.39,3.12,1.84,0.32,
3.663,-0.81,-5.25,-2.39,3.11,1.82,0.31,
3.665,-0.83,-5.41,-3.54,3.11,1.82,0.31,
3.665,-0.83,-5.41,-3.54,3.10,1.77,0.29,
3.667,-0.83,-5.41,-3.54,3.08,1.71,0.28,
3.674,-0.83,-5.41,-3.54,3.04,1.59,0.26,
3.675,-0.83,-5.41,-3.54,3.02,1.55,0.25,
3.675,-0.83,-5.41,-3.54,2.99,1.46,0.23,
3.675,-0.79,-5.43,-4.65,2.99,1.46,0.23,
3.675,-0.79,-5.43,-4.65,2.96,1.36,0.21,
3.677,-0.79,-5.43,-4.65,2.92,1.26,0.19,
3.68,-0.79,-5.43,-4.65,2.86,1.10,0.17,
3.684,-0.79,-5.43,-4.65,2.84,1.05,0.16,
3.685,-0.79,-5.43,-4.65,2.80,0.95,0.14,
3.699,-0.90,-5.17,-5.24,2.80,0.95,0.14,
3.7,-0.90,-5.17,-5.24,2.76,0.85,0.13,
3.7,-0.90,-5.17,-5.24,2.70,0.71,0.11,
3.7,-0.90,-5.17,-5.24,2.66,0.63,0.09,
3.7,-0.90,-5.17,-5.24,2.64,0.59,0.09,
3.7,-0.90,-5.17,-5.24,2.61,0.51,0.09,
3.701,-1.49,-4.99,-5.44,2.61,0.51,0.09,
3.701,-1.49,-4.99,-5.44,2.57,0.44,0.09,
3.701,-1.49,-4.99,-5.44,2.54,0.38,0.10,
3.701,-1.49,-4.99,-5.44,2.50,0.28,0.13,
3.705,-1.49,-4.99,-5.44,2.49,0.26,0.14,
3.705,-1.49,-4.99,-5.44,2.46,0.21,0.17,
3.708,-2.66,-5.02,-5.15,2.46,0.21,0.17,
3.709,-2.66,-5.02,-5.15,2.43,0.16,0.21,
3.709,-2.66,-5.02,-5.15,2.40,0.11,0.25,
3.713,-2.66,-5.02,-5.15,2.36,0.04,0.33,
3.715,-2.66,-5.02,-5.15,2.34,0.02,0.36,
3.715,-2.66,-5.02,-5.15,2.31,-0.02,0.42,
3.737,-4.18,-5.29,-5.24,2.31,-0.02,0.42,
3.737,-4.18,-5.29,-5.24,2.28,-0.06,0.49,
3.738,-4.18,-5.29,-5.24,2.25,-0.09,0.57,
3.738,-4.18,-5.29,-5.24,2.20,-0.14,0.69,
3.738,-4.18,-5.29,-5.24,2.19,-0.16,0.74,
3.739,-4.18,-5.29,-5.24,2.15,-0.19,0.83,
3.739,-5.43,-5.71,-5.28,2.15,-0.19,0.83,
3.739,-5.43,-5.71,-5.28,2.11,-0.21,0.93,
3.74,-5.43,-5.71,-5.28,2.08,-0.23,1.02,
3.74,-5.43,-5.71,-5.28,2.05,-0.22,1.15,
3.74,-5.43,-5.71,-5.28,2.06,-0.19,1.18,
3.741,-5.43,-5.71,-5.28,2.15,-0.06,1.23,
3.741,-4.69,-6.22,-2.44,2.15,-0.06,1.23,
3.741,-4.69,-6.22,-2.44,2.34,0.19,1.25,
3.742,-4.69,-6.22,-2.44,2.59,0.52,1.25,
3.742,-4.69,-6.22,-2.44,3.01,1.06,1.23,
3.742,-4.69,-6.22,-2.44,3.16,1.23,1.23,
3.75,-4.69,-6.22,-2.44,3.45,1.56,1.22,
3.75,-1.25,-7.47,6.18,3.45,1.56,1.22,
3.751,-1.25,-7.47,6.18,3.74,1.85,1.21,
3.751,-1.25,-7.47,6.18,4.02,2.10,1.21,
3.751,-1.25,-7.47,6.18,4.42,2.41,1.21,
3.752,-1.25,-7.47,6.18,4.54,2.50,1.21,
3.756,-1.25,-7.47,6.18,4.78,2.63,1.21,
3.756,-0.06,-8.48,6.42,4.78,2.63,1.21,
3.757,-0.06,-8.48,6.42,4.99,2.72,1.21,
3.757,-0.06,-8.48,6.42,5.18,2.75,1.20,
3.76,-0.06,-8.48,6.42,5.45,2.72,1.18,
3.761,-0.06,-8.48,6.42,5.52,2.70,1.17,
3.763,-0.06,-8.48,6.42,5.67,2.64,1.18,
3.765,0.69,-9.87,3.91,5.67,2.64,1.18,
3.765,0.69,-9.87,3.91,5.82,2.55,1.18,
3.767,0.69,-9.87,3.91,5.96,2.45,1.17,
3.77,0.69,-9.87,3.91,6.14,2.27,1.15,
3.772,0.69,-9.87,3.91,6.19,2.20,1.15,
3.773,0.69,-9.87,3.91,6.27,2.07,1.14,
3.775,1.24,-11.66,1.96,6.27,2.07,1.14,
3.776,1.24,-11.66,1.96,6.31,1.94,1.14,
3.777,1.24,-11.66,1.96,6.34,1.79,1.14,
3.78,1.24,-11.66,1.96,6.32,1.54,1.15,
3.781,1.24,-11.66,1.96,6.31,1.44,1.15,
3.783,1.24,-11.66,1.96,6.27,1.24,1.15,
3.785,0.45,-12.21,-1.34,6.27,1.24,1.15,
3.785,0.45,-12.21,-1.34,6.21,1.05,1.14,
3.787,0.45,-12.21,-1.34,6.14,0.86,1.13,
3.792,0.45,-12.21,-1.34,6.00,0.62,1.08,
3.795,0.45,-12.21,-1.34,5.95,0.55,1.06,
3.797,0.45,-12.21,-1.34,5.85,0.42,1.00,
3.799,0.22,-10.75,-3.35,5.85,0.42,1.00,
3.799,0.22,-10.75,-3.35,5.73,0.30,0.92,
3.8,0.22,-10.75,-3.35,5.60,0.19,0.82,
3.801,0.22,-10.75,-3.35,5.39,0.03,0.65,
3.801,0.22,-10.75,-3.35,5.31,-0.02,0.59,
3.807,0.22,-10.75,-3.35,5.16,-0.11,0.45,
3.807,1.59,-8.90,-4.14,5.16,-0.11,0.45,
3.808,1.59,-8.90,-4.14,5.01,-0.22,0.32,
3.808,1.59,-8.90,-4.14,4.85,-0.34,0.18,
3.81,1.59,-8.90,-4.14,4.60,-0.54,-0.02,
3.813,1.59,-8.90,-4.14,4.52,-0.61,-0.10,
3.814,1.59,-8.90,-4.14,4.35,-0.76,-0.24,
3.817,2.23,-7.05,-5.60,4.35,-0.76,-0.24,
3.817,2.23,-7.05,-5.60,4.20,-0.93,-0.38,
3.818,2.23,-7.05,-5.60,4.04,-1.09,-0.52,
3.838,2.23,-7.05,-5.60,3.83,-1.35,-0.73,
3.839,2.23,-7.05,-5.60,3.77,-1.44,-0.79,
3.839,2.23,-7.05,-5.60,3.64,-1.61,-0.92,
3.839,2.16,-4.99,-6.45,3.64,-1.61,-0.92,
3.84,2.16,-4.99,-6.45,3.52,-1.75,-1.03,
3.84,2.16,-4.99,-6.45,3.42,-1.87,-1.14,
3.84,2.16,-4.99,-6.45,3.29,-1.98,-1.28,
3.84,2.16,-4.99,-6.45,3.25,-2.00,-1.32,
3.84,2.16,-4.99,-6.45,3.18,-2.02,-1.39,
3.841,1.03,-3.28,-6.58,3.18,-2.02,-1.39,
3.841,1.03,-3.28,-6.58,3.12,-2.00,-1.47,
3.841,1.03,-3.28,-6.58,3.06,-1.95,-1.52,
3.841,1.03,-3.28,-6.58,2.96,-1.83,-1.59,
3.842,1.03,-3.28,-6.58,2.93,-1.78,-1.61,
3.843,1.03,-3.28,-6.58,2.87,-1.65,-1.64,
3.846,-0.18,-1.48,-6.72,2.87,-1.65,-1.64,
3.846,-0.18,-1.48,-6.72,2.81,-1.51,-1.66,
3.847,-0.18,-1.48,-6.72,2.76,-1.34,-1.67,
3.85,-0.18,-1.48,-6.72,2.68,-1.05,-1.68,
3.851,-0.18,-1.48,-6.72,2.65,-0.94,-1.68,
3.853,-0.18,-1.48,-6.72,2.60,-0.73,-1.68,
3.857,-1.07,-0.24,-7.59,2.60,-0.73,-1.68,
3.858,-1.07,-0.24,-7.59,2.56,-0.52,-1.67,
3.858,-1.07,-0.24,-7.59,2.53,-0.29,-1.65,
3.86,-1.07,-0.24,-7.59,2.48,0.04,-1.61,
3.863,-1.07,-0.24,-7.59,2.47,0.15,-1.60,
3.864,-1.07,-0.24,-7.59,2.44,0.37,-1.56,
3.866,-1.51,1.17,-7.70,2.44,0.37,-1.56,
3.866,-1.51,1.17,-7.70,2.43,0.58,-1.53,
3.867,-1.51,1.17,-7.70,2.41,0.78,-1.49,
3.87,-1.51,1.17,-7.70,2.41,1.07,-1.43,
3.872,-1.51,1.17,-7.70,2.41,1.16,-1.41,
3.873,-1.51,1.17,-7.70,2.42,1.34,-1.36,
3.876,-1.60,2.72,-7.16,2.42,1.34,-1.36,
3.877,-1.60,2.72,-7.16,2.44,1.52,-1.31,
3.877,-1.60,2.72,-7.16,2.47,1.69,-1.25,
3.88,-1.60,2.72,-7.16,2.52,1.93,-1.13,
3.906,-1.60,2.72,-7.16,2.54,2.01,-1.09,
3.906,-1.60,2.72,-7.16,2.58,2.15,-0.99,
3.907,-1.55,5.17,-6.76,2.58,2.15,-0.99,
3.907,-1.55,5.17,-6.76,2.62,2.27,-0.89,
3.908,-1.55,5.17,-6.76,2.64,2.36,-0.79,
3.908,-1.55,5.17,-6.76,2.64,2.44,-0.64,
3.909,-1.55,5.17,-6.76,2.64,2.46,-0.59,
3.909,-1.55,5.17,-6.76,2.63,2.49,-0.49,
3.909,-0.75,6.43,-7.75,2.63,2.49,-0.49,
3.91,-0.75,6.43,-7.75,2.61,2.50,-0.39,
3.91,-0.75,6.43,-7.75,2.58,2.48,-0.29,
3.91,-0.75,6.43,-7.75,2.54,2.43,-0.14,
3.911,-0.75,6.43,-7.75,2.52,2.41,-0.09,
3.911,-0.75,6.43,-7.75,2.49,2.35,0.00,
3.911,0.58,7.24,-7.94,2.49,2.35,0.00,
3.911,0.58,7.24,-7.94,2.45,2.29,0.10,
3.912,0.58,7.24,-7.94,2.41,2.24,0.19,
3.912,0.58,7.24,-7.94,2.34,2.14,0.31,
3.912,0.58,7.24,-7.94,2.30,2.09,0.39,
3.918,0.58,7.24,-7.94,2.27,2.06,0.43,
3.919,1.52,7.30,-7.55,2.27,2.06,0.43,
3.919,1.52,7.30,-7.55,2.22,2.02,0.50,
3.919,1.52,7.30,-7.55,2.17,1.98,0.56,
3.92,1.52,7.30,-7.55,2.09,1.96,0.64,
3.921,1.52,7.30,-7.55,2.06,1.96,0.66,
3.923,1.52,7.30,-7.55,1.99,1.96,0.70,
3.926,1.98,6.83,-7.37,1.99,1.96,0.70,
3.926,1.98,6.83,-7.37,1.91,1.97,0.73,
3.927,1.98,6.83,-7.37,1.83,1.99,0.76,
3.93,1.98,6.83,-7.37,1.69,2.02,0.79,
3.931,1.98,6.83,-7.37,1.60,2.05,0.81,
3.933,1.98,6.83,-7.37,1.55,2.07,0.82,
3.936,2.34,6.52,-6.69,1.55,2.07,0.82,
3.937,2.34,6.52,-6.69,1.45,2.11,0.83,
3.937,2.34,6.52,-6.69,1.34,2.15,0.85,
3.94,2.34,6.52,-6.69,1.20,2.19,0.87,
3.941,2.34,6.52,-6.69,1.15,2.19,0.88,
3.945,2.34,6.52,-6.69,1.06,2.18,0.89,
3.946,2.60,5.92,-5.60,1.06,2.18,0.89,
3.946,2.60,5.92,-5.60,0.98,2.14,0.90,
3.948,2.60,5.92,-5.60,0.92,2.07,0.91,
3.95,2.60,5.92,-5.60,0.85,1.89,0.90,
3.959,2.60,5.92,-5.60,0.83,1.82,0.89,
3.96,2.60,5.92,-5.60,0.81,1.66,0.87,
3.961,3.93,5.11,-5.12,0.81,1.66,0.87,
3.961,3.93,5.11,-5.12,0.79,1.47,0.83,
3.966,3.93,5.11,-5.12,0.77,1.28,0.78,
3.967,3.93,5.11,-5.12,0.76,0.97,0.70,
3.967,3.93,5.11,-5.12,0.75,0.78,0.63,
3.967,3.93,5.11,-5.12,0.74,0.68,0.59,
3.97,5.11,4.29,-7.03,0.74,0.68,0.59,
3.97,5.11,4.29,-7.03,0.73,0.50,0.50,
3.985,5.11,4.29,-7.03,0.68,0.09,0.21,
3.986,5.11,4.29,-7.03,0.68,0.09,0.21,
3.986,5.11,4.29,-7.03,0.68,0.09,0.21,
3.986,5.11,4.29,-7.03,0.66,0.01,0.11,
3.986,5.28,4.15,-9.13,0.66,0.01,0.11,
3.987,5.28,4.15,-9.13,0.64,-0.03,0.02,
3.987,5.28,4.15,-9.13,0.61,-0.04,-0.07,
3.987,5.28,4.15,-9.13,0.57,-0.00,-0.21,
3.987,5.28,4.15,-9.13,0.56,0.02,-0.24,
3.988,5.28,4.15,-9.13,0.53,0.09,-0.31,
3.988,3.25,5.19,-8.93,0.53,0.09,-0.31,
3.988,3.25,5.19,-8.93,0.49,0.17,-0.37,
3.988,3.25,5.19,-8.93,0.45,0.26,-0.42,
3.99,3.25,5.19,-8.93,0.39,0.42,-0.48,
3.991,3.25,5.19,-8.93,0.37,0.47,-0.49,
3.993,3.25,5.19,-8.93,0.32,0.58,-0.51,
3.995,0.83,5.92,-7.21,0.32,0.58,-0.51,
3.995,0.83,5.92,-7.21,0.27,0.68,-0.53,
3.997,0.83,5.92,-7.21,0.22,0.78,-0.53,
4.0,0.83,5.92,-7.21,0.14,0.91,-0.51,
4.002,0.83,5.92,-7.21,0.12,0.95,-0.50,
4.006,0.83,5.92,-7.21,0.08,1.01,-0.48,
4.006,-1.01,5.78,-5.01,0.08,1.01,-0.48,
4.008,-1.01,5.78,-5.01,0.04,1.07,-0.45,
4.009,-1.01,5.78,-5.01,0.01,1.11,-0.42,
4.01,-1.01,5.78,-5.01,-0.02,1.15,-0.36,
4.012,-1.01,5.78,-5.01,-0.04,1.17,-0.32,
4.013,-1.01,5.78,-5.01,-0.04,1.17,-0.30,
4.019,-2.33,5.48,-2.96,-0.04,1.17,-0.30,
4.019,-2.33,5.48,-2.96,-0.05,1.16,-0.27,
4.02,-2.33,5.48,-2.96,-0.06,1.14,-0.24,
4.021,-2.33,5.48,-2.96,-0.09,1.08,-0.20,
4.022,-2.33,5.48,-2.96,-0.10,1.03,-0.17,
4.023,-2.33,5.48,-2.96,-0.11,1.00,-0.17,
4.026,-2.50,5.49,-2.59,-0.11,1.00,-0.17,
4.026,-2.50,5.49,-2.59,-0.13,0.94,-0.15,
4.027,-2.50,5.49,-2.59,-0.16,0.88,-0.15,
4.03,-2.50,5.49,-2.59,-0.22,0.77,-0.15,
4.031,-2.50,5.49,-2.59,-0.25,0.74,-0.15,
4.033,-2.50,5.49,-2.59,-0.30,0.67,-0.16,
4.036,-2.56,5.97,-3.41,-0.30,0.67,-0.16,
4.037,-2.56,5.97,-3.41,-0.37,0.61,-0.17,
4.038,-2.56,5.97,-3.41,-0.48,0.52,-0.19,
4.04,-2.56,5.97,-3.41,-0.55,0.47,-0.21,
4.042,-2.56,5.97,-3.41,-0.59,0.44,-0.22,
4.043,-2.56,5.97,-3.41,-0.66,0.38,-0.23,
4.045,-2.66,6.19,-3.26,-0.66,0.38,-0.23,
4.045,-2.66,6.19,-3.26,-0.73,0.32,-0.25,
4.065,-2.66,6.19,-3.26,-0.78,0.25,-0.26,
4.065,-2.66,6.19,-3.26,-0.84,0.11,-0.28,
4.066,-2.66,6.19,-3.26,-0.85,0.05,-0.28,
4.066,-2.66,6.19,-3.26,-0.86,-0.08,-0.28,
4.066,-3.48,6.22,0.47,-0.86,-0.08,-0.28,
4.066,-3.48,6.22,0.47,-0.84,-0.23,-0.28,
4.067,-3.48,6.22,0.47,-0.78,-0.39,-0.27,
4.067,-3.48,6.22,0.47,-0.66,-0.66,-0.27,
4.067,-3.48,6.22,0.47,-0.56,-0.84,-0.27,
4.067,-3.48,6.22,0.47,-0.51,-0.93,-0.27,
4.067,-3.99,4.98,6.95,-0.51,-0.93,-0.27,
4.068,-3.99,4.98,6.95,-0.43,-1.09,-0.28,
4.068,-3.99,4.98,6.95,-0.38,-1.24,-0.30,
4.076,-3.99,4.98,6.95,-0.37,-1.40,-0.35,
4.076,-3.99,4.98,6.95,-0.38,-1.43,-0.38,
4.077,-3.99,4.98,6.95,-0.45,-1.45,-0.41,
4.077,-3.36,2.63,5.52,-0.45,-1.45,-0.41,
4.077,-3.36,2.63,5.52,-0.54,-1.40,-0.45,
4.077,-3.36,2.63,5.52,-0.67,-1.29,-0.48,
4.08,-3.36,2.63,5.52,-0.90,-1.00,-0.53,
4.099,-3.36,2.63,5.52,-0.99,-0.87,-0.54,
4.1,-3.36,2.63,5.52,-1.17,-0.58,-0.55,
4.1,-4.19,0.87,-0.14,-1.17,-0.58,-0.55,
4.1,-4.19,0.87,-0.14,-1.36,-0.26,-0.57,
4.1,-4.19,0.87,-0.14,-1.56,0.07,-0.58,
4.101,-4.19,0.87,-0.14,-1.88,0.56,-0.59,
4.101,-4.19,0.87,-0.14,-2.10,0.85,-0.61,
4.101,-4.19,0.87,-0.14,-2.21,0.98,-0.61,
4.101,-4.03,-0.28,-5.14,-2.21,0.98,-0.61,
4.101,-4.03,-0.28,-5.14,-2.44,1.19,-0.63,
4.101,-4.03,-0.28,-5.14,-2.66,1.34,-0.67,
4.101,-4.03,-0.28,-5.14,-2.97,1.42,-0.73,
4.102,-4.03,-0.28,-5.14,-3.13,1.37,-0.79,
4.103,-4.03,-0.28,-5.14,-3.19,1.31,-0.81,
4.106,-1.21,-2.20,-6.22,-3.19,1.31,-0.81,
4.106,-1.21,-2.20,-6.22,-3.27,1.13,-0.87,
4.107,-1.21,-2.20,-6.22,-3.27,0.83,-0.93,
4.11,-1.21,-2.20,-6.22,-3.15,0.20,-1.03,
4.111,-1.21,-2.20,-6.22,-3.01,-0.32,-1.09,
4.113,-1.21,-2.20,-6.22,-2.93,-0.59,-1.13,
4.115,2.08,-5.66,3.80,-2.93,-0.59,-1.13,
4.116,2.08,-5.66,3.80,-2.76,-1.15,-1.19,
4.119,2.08,-5.66,3.80,-2.61,-1.72,-1.24,
4.12,2.08,-5.66,3.80,-2.43,-2.56,-1.31,
4.121,2.08,-5.66,3.80,-2.38,-3.07,-1.33,
4.123,2.08,-5.66,3.80,-2.37,-3.31,-1.34,
4.125,3.26,-10.66,3.93,-2.37,-3.31,-1.34,
4.125,3.26,-10.66,3.93,-2.38,-3.74,-1.34,
4.127,3.26,-10.66,3.93,-2.43,-4.11,-1.32,
4.13,3.26,-10.66,3.93,-2.54,-4.54,-1.28,
4.131,3.26,-10.66,3.93,-2.64,-4.72,-1.23,
4.133,3.26,-10.66,3.93,-2.69,-4.79,-1.20,
4.135,2.09,-14.83,-4.46,-2.69,-4.79,-1.20,
4.136,2.09,-14.83,-4.46,-2.80,-4.86,-1.14,
4.137,2.09,-14.83,-4.46,-2.91,-4.85,-1.07,
4.14,2.09,-14.83,-4.46,-3.03,-4.69,-0.95,
4.141,2.09,-14.83,-4.46,-3.10,-4.49,-0.87,
4.143,2.09,-14.83,-4.46,-3.12,-4.37,-0.83,
4.145,0.79,-16.32,-7.28,-3.12,-4.37,-0.83,
4.145,0.79,-16.32,-7.28,-3.14,-4.09,-0.75,
4.147,0.79,-16.32,-7.28,-3.13,-3.76,-0.68,
4.151,0.79,-16.32,-7.28,-3.07,-3.23,-0.61,
4.152,0.79,-16.32,-7.28,-3.00,-2.86,-0.58,
4.154,0.79,-16.32,-7.28,-2.96,-2.68,-0.57,
4.156,1.71,-14.00,-4.62,-2.96,-2.68,-0.57,
4.156,1.71,-14.00,-4.62,-2.86,-2.33,-0.56,
4.157,1.71,-14.00,-4.62,-2.74,-2.00,-0.57,
4.16,1.71,-14.00,-4.62,-2.54,-1.55,-0.61,
4.161,1.71,-14.00,-4.62,-2.40,-1.28,-0.64,
4.163,1.71,-14.00,-4.62,-2.33,-1.15,-0.66,
4.165,3.33,-9.19,-1.17,-2.33,-1.15,-0.66,
4.166,3.33,-9.19,-1.17,-2.18,-0.92,-0.70,
4.168,3.33,-9.19,-1.17,-2.05,-0.70,-0.74,
4.17,3.33,-9.19,-1.17,-1.86,-0.43,-0.80,
4.171,3.33,-9.19,-1.17,-1.75,-0.27,-0.84,
4.173,3.33,-9.19,-1.17,-1.71,-0.20,-0.86,
4.175,3.73,-4.37,-0.57,-1.71,-0.20,-0.86,
4.176,3.73,-4.37,-0.57,-1.62,-0.07,-0.89,
4.177,3.73,-4.37,-0.57,-1.54,0.04,-0.92,
4.18,3.73,-4.37,-0.57,-1.46,0.18,-0.97,
4.181,3.73,-4.37,-0.57,-1.43,0.24,-0.99,
4.184,3.73,-4.37,-0.57,-1.42,0.27,-1.00,
4.186,3.12,-0.47,-1.60,-1.42,0.27,-1.00,
4.186,3.12,-0.47,-1.60,-1.40,0.32,-1.02,
4.188,3.12,-0.47,-1.60,-1.40,0.36,-1.04,
4.19,3.12,-0.47,-1.60,-1.42,0.39,-1.05,
4.191,3.12,-0.47,-1.60,-1.44,0.40,-1.05,
4.193,3.12,-0.47,-1.60,-1.45,0.41,-1.05,
4.197,2.21,2.25,-2.36,-1.45,0.41,-1.05,
4.197,2.21,2.25,-2.36,-1.49,0.41,-1.04,
4.2,2.21,2.25,-2.36,-1.53,0.40,-1.03,
4.202,2.21,2.25,-2.36,-1.62,0.38,-0.97,
4.203,2.21,2.25,-2.36,-1.65,0.38,-0.95,
4.203,2.21,2.25,-2.36,-1.67,0.37,-0.92,
4.206,0.56,3.55,-2.34,-1.67,0.37,-0.92,
4.206,0.56,3.55,-2.34,-1.73,0.35,-0.87,
4.207,0.56,3.55,-2.34,-1.78,0.33,-0.80,
4.211,0.56,3.55,-2.34,-1.86,0.29,-0.68,
4.212,0.56,3.55,-2.34,-1.92,0.26,-0.59,
4.213,0.56,3.55,-2.34,-1.95,0.25,-0.54,
4.243,-1.45,3.45,-2.15,-1.95,0.25,-0.54,
4.243,-1.45,3.45,-2.15,-2.00,0.21,-0.44,
4.243,-1.45,3.45,-2.15,-2.06,0.17,-0.33,
4.244,-1.45,3.45,-2.15,-2.14,0.10,-0.16,
4.244,-1.45,3.45,-2.15,-2.19,0.04,-0.05,
4.245,-1.45,3.45,-2.15,-2.22,0.01,0.01,
4.245,-2.61,2.64,-2.28,-2.22,0.01,0.01,
4.246,-2.61,2.64,-2.28,-2.27,-0.05,0.13,
4.246,-2.61,2.64,-2.28,-2.32,-0.13,0.25,
4.246,-2.61,2.64,-2.28,-2.39,-0.26,0.42,
4.246,-2.61,2.64,-2.28,-2.44,-0.36,0.53,
4.247,-2.61,2.64,-2.28,-2.46,-0.41,0.58,
4.247,-2.94,1.55,-2.50,-2.46,-0.41,0.58,
4.247,-2.94,1.55,-2.50,-2.50,-0.52,0.68,
4.247,-2.94,1.55,-2.50,-2.53,-0.63,0.78,
4.248,-2.94,1.55,-2.50,-2.57,-0.81,0.91,
4.248,-2.94,1.55,-2.50,-2.58,-0.93,0.99,
4.248,-2.94,1.55,-2.50,-2.59,-0.99,1.02,
4.249,-2.33,0.55,-2.26,-2.59,-0.99,1.02,
4.249,-2.33,0.55,-2.26,-2.60,-1.11,1.09,
4.249,-2.33,0.55,-2.26,-2.60,-1.22,1.15,
4.262,-2.33,0.55,-2.26,-2.60,-1.39,1.23,
4.262,-2.33,0.55,-2.26,-2.59,-1.49,1.27,
4.262,-2.33,0.55,-2.26,-2.59,-1.54,1.29,
4.263,-1.59,-0.23,-1.70,-2.59,-1.54,1.29,
4.263,-1.59,-0.23,-1.70,-2.57,-1.63,1.33,
4.263,-1.59,-0.23,-1.70,-2.55,-1.71,1.36,
4.263,-1.59,-0.23,-1.70,-2.52,-1.84,1.40,
4.264,-1.59,-0.23,-1.70,-2.51,-1.86,1.41,
4.266,-1.59,-0.23,-1.70,-2.50,-1.88,1.41,
4.266,-0.82,-1.08,-1.15,-2.50,-1.88,1.41,
4.267,-0.82,-1.08,-1.15,-2.48,-1.92,1.42,
4.284,-0.82,-1.08,-1.15,-2.46,-1.94,1.42,
4.285,-0.82,-1.08,-1.15,-2.42,-1.93,1.40,
4.285,-0.82,-1.08,-1.15,-2.41,-1.91,1.39,
4.286,-0.82,-1.08,-1.15,-2.39,-1.88,1.38,
4.286,-0.28,-2.08,-0.95,-2.39,-1.88,1.38,
4.286,-0.28,-2.08,-0.95,-2.37,-1.84,1.35,
4.286,-0.28,-2.08,-0.95,-2.36,-1.78,1.33,
4.286,-0.28,-2.08,-0.95,-2.35,-1.72,1.30,
4.287,-0.28,-2.08,-0.95,-2.35,-1.66,1.28,
4.287,-0.28,-2.08,-0.95,-2.34,-1.59,1.25,
4.287,0.07,-2.93,-0.97,-2.34,-1.59,1.25,
4.287,0.07,-2.93,-0.97,-2.34,-1.52,1.21,
4.287,0.07,-2.93,-0.97,-2.34,-1.45,1.17,
4.29,0.07,-2.93,-0.97,-2.35,-1.38,1.13,
4.291,0.07,-2.93,-0.97,-2.36,-1.31,1.08,
4.293,0.07,-2.93,-0.97,-2.37,-1.25,1.04,
4.295,0.49,-3.48,-1.07,-2.37,-1.25,1.04,
4.295,0.49,-3.48,-1.07,-2.39,-1.20,0.99,
4.297,0.49,-3.48,-1.07,-2.40,-1.15,0.94,
4.301,0.49,-3.48,-1.07,-2.41,-1.11,0.89,
4.301,0.49,-3.48,-1.07,-2.42,-1.07,0.84,
4.306,0.49,-3.48,-1.07,-2.43,-1.05,0.79,
4.309,0.80,-3.38,-0.82,-2.43,-1.05,0.79,
4.309,0.80,-3.38,-0.82,-2.44,-1.02,0.74,
4.309,0.80,-3.38,-0.82,-2.45,-1.00,0.69,
4.311,0.80,-3.38,-0.82,-2.45,-0.98,0.61,
4.311,0.80,-3.38,-0.82,-2.45,-0.98,0.58,
4.313,0.80,-3.38,-0.82,-2.46,-0.97,0.53,
4.315,1.11,-2.82,-0.51,-2.46,-0.97,0.53,
4.315,1.11,-2.82,-0.51,-2.46,-0.97,0.48,
4.318,1.11,-2.82,-0.51,-2.46,-0.97,0.43,
4.32,1.11,-2.82,-0.51,-2.45,-0.97,0.38,
4.321,1.11,-2.82,-0.51,-2.44,-0.98,0.33,
4.323,1.11,-2.82,-0.51,-2.43,-0.99,0.29,
4.325,1.19,-1.98,0.00,-2.43,-0.99,0.29,
4.325,1.19,-1.98,0.00,-2.42,-1.00,0.24,
4.327,1.19,-1.98,0.00,-2.41,-1.02,0.20,
4.33,1.19,-1.98,0.00,-2.39,-1.03,0.16,
4.331,1.19,-1.98,0.00,-2.37,-1.05,0.12,
4.334,1.19,-1.98,0.00,-2.35,-1.06,0.09,
4.337,1.22,-0.96,0.52,-2.35,-1.06,0.09,
4.337,1.22,-0.96,0.52,-2.33,-1.08,0.06,
4.337,1.22,-0.96,0.52,-2.31,-1.09,0.03,
4.34,1.22,-0.96,0.52,-2.29,-1.11,0.01,
4.341,1.22,-0.96,0.52,-2.27,-1.12,-0.01,
4.343,1.22,-0.96,0.52,-2.24,-1.13,-0.03,
4.345,1.00,0.09,0.75,-2.24,-1.13,-0.03,
4.346,1.00,0.09,0.75,-2.22,-1.14,-0.04,
4.347,1.00,0.09,0.75,-2.20,-1.14,-0.05,
4.353,1.00,0.09,0.75,-2.17,-1.14,-0.05,
4.354,1.00,0.09,0.75,-2.16,-1.13,-0.05,
4.354,1.00,0.09,0.75,-2.14,-1.12,-0.04,
4.355,0.58,1.03,0.70,-2.14,-1.12,-0.04,
4.356,0.58,1.03,0.70,-2.12,-1.11,-0.04,
4.357,0.58,1.03,0.70,-2.11,-1.09,-0.03,
4.36,0.58,1.03,0.70,-2.09,-1.07,-0.02,
4.362,0.58,1.03,0.70,-2.07,-1.04,-0.01,
4.364,0.58,1.03,0.70,-2.06,-1.02,0.00,
4.375,0.26,1.59,0.54,-2.06,-1.02,0.00,
4.376,0.26,1.59,0.54,-2.04,-0.99,0.01,
4.376,0.26,1.59,0.54,-2.02,-0.95,0.03,
4.376,0.26,1.59,0.54,-2.00,-0.92,0.04,
4.377,0.26,1.59,0.54,-1.98,-0.88,0.05,
4.377,0.26,1.59,0.54,-1.96,-0.85,0.07,
4.377,0.12,1.85,0.57,-1.96,-0.85,0.07,
4.377,0.12,1.85,0.57,-1.94,-0.80,0.08,
4.38,0.12,1.85,0.57,-1.92,-0.76,0.09,
4.38,0.12,1.85,0.57,-1.90,-0.71,0.10,
4.398,0.12,1.85,0.57,-1.88,-0.66,0.10,
4.398,0.12,1.85,0.57,-1.86,-0.62,0.11,
4.398,0.10,1.85,0.54,-1.86,-0.62,0.11,
4.398,0.10,1.85,0.54,-1.83,-0.57,0.12,
4.399,0.10,1.85,0.54,-1.80,-0.52,0.13,
4.399,0.10,1.85,0.54,-1.77,-0.47,0.13,
4.399,0.10,1.85,0.54,-1.75,-0.43,0.14,
4.399,0.10,1.85,0.54,-1.72,-0.39,0.15,
4.399,0.03,1.70,0.70,-1.72,-0.39,0.15,
4.399,0.03,1.70,0.70,-1.69,-0.34,0.16,
4.399,0.03,1.70,0.70,-1.66,-0.30,0.16,
4.402,0.03,1.70,0.70,-1.61,-0.23,0.17,
4.402,0.03,1.70,0.70,-1.60,-0.21,0.17,
4.403,0.03,1.70,0.70,-1.56,-0.17,0.18,
4.406,0.04,1.48,0.98,-1.56,-0.17,0.18,
4.406,0.04,1.48,0.98,-1.52,-0.13,0.19,
4.408,0.04,1.48,0.98,-1.48,-0.10,0.20,
4.41,0.04,1.48,0.98,-1.41,-0.05,0.20,
4.411,0.04,1.48,0.98,-1.39,-0.04,0.20,
4.413,0.04,1.48,0.98,-1.35,-0.01,0.20,
4.415,0.19,1.05,1.34,-1.35,-0.01,0.20,
4.415,0.19,1.05,1.34,-1.31,0.02,0.21,
4.417,0.19,1.05,1.34,-1.26,0.04,0.20,
4.42,0.19,1.05,1.34,-1.21,0.06,0.20,
4.421,0.19,1.05,1.34,-1.16,0.08,0.20,
4.423,0.19,1.05,1.34,-1.10,0.10,0.20,
4.425,0.36,0.61,1.66,-1.10,0.10,0.20,
4.425,0.36,0.61,1.66,-1.05,0.12,0.20,
4.427,0.36,0.61,1.66,-1.00,0.15,0.19,
4.43,0.36,0.61,1.66,-0.94,0.18,0.19,
4.431,0.36,0.61,1.66,-0.88,0.21,0.18,
4.434,0.36,0.61,1.66,-0.81,0.24,0.17,
4.435,0.74,0.05,2.18,-0.81,0.24,0.17,
4.436,0.74,0.05,2.18,-0.74,0.27,0.16,
4.438,0.74,0.05,2.18,-0.68,0.31,0.14,
4.44,0.74,0.05,2.18,-0.61,0.34,0.13,
4.441,0.74,0.05,2.18,-0.54,0.38,0.12,
4.446,0.74,0.05,2.18,-0.47,0.42,0.10,
4.447,1.18,-0.40,2.67,-0.47,0.42,0.10,
4.448,1.18,-0.40,2.67,-0.41,0.46,0.08,
4.449,1.18,-0.40,2.67,-0.34,0.50,0.05,
4.45,1.18,-0.40,2.67,-0.27,0.55,0.03,
4.451,1.18,-0.40,2.67,-0.21,0.60,-0.01,
4.454,1.18,-0.40,2.67,-0.16,0.66,-0.05,
4.455,2.27,-0.57,3.22,-0.16,0.66,-0.05,
4.455,2.27,-0.57,3.22,-0.10,0.72,-0.10,
4.462,2.27,-0.57,3.22,-0.06,0.80,-0.14,
4.463,2.27,-0.57,3.22,0.01,0.96,-0.22,
4.464,2.27,-0.57,3.22,0.03,1.01,-0.24,
4.464,2.27,-0.57,3.22,0.05,1.13,-0.28,
4.466,3.14,-0.63,3.10,0.05,1.13,-0.28,
4.466,3.14,-0.63,3.10,0.05,1.26,-0.32,
4.471,3.14,-0.63,3.10,0.04,1.40,-0.36,
4.472,3.14,-0.63,3.10,-0.00,1.62,-0.39,
4.472,3.14,-0.63,3.10,-0.03,1.70,-0.40,
4.474,3.14,-0.63,3.10,-0.07,1.85,-0.42,
4.475,2.74,-0.45,2.25,-0.07,1.85,-0.42,
4.476,2.74,-0.45,2.25,-0.14,1.99,-0.43,
4.477,2.74,-0.45,2.25,-0.21,2.13,-0.44,
4.48,2.74,-0.45,2.25,-0.32,2.30,-0.45,
4.482,2.74,-0.45,2.25,-0.36,2.35,-0.45,
4.483,2.74,-0.45,2.25,-0.44,2.44,-0.44,
4.486,1.88,0.16,1.64,-0.44,2.44,-0.44,
4.486,1.88,0.16,1.64,-0.52,2.51,-0.43,
4.487,1.88,0.16,1.64,-0.60,2.56,-0.43,
4.49,1.88,0.16,1.64,-0.72,2.59,-0.42,
4.491,1.88,0.16,1.64,-0.77,2.59,-0.41,
4.493,1.88,0.16,1.64,-0.85,2.58,-0.41,
4.495,1.43,0.78,1.65,-0.85,2.58,-0.41,
4.495,1.43,0.78,1.65,-0.93,2.53,-0.40,
4.497,1.43,0.78,1.65,-1.00,2.46,-0.40,
4.506,1.43,0.78,1.65,-1.12,2.30,-0.39,
4.506,1.43,0.78,1.65,-1.15,2.23,-0.39,
4.506,1.43,0.78,1.65,-1.22,2.08,-0.38,
4.507,1.11,1.17,2.04,-1.22,2.08,-0.38,
4.507,1.11,1.17,2.04,-1.29,1.91,-0.37,
4.507,1.11,1.17,2.04,-1.34,1.74,-0.35,
4.51,1.11,1.17,2.04,-1.40,1.48,-0.32,
4.511,1.11,1.17,2.04,-1.42,1.40,-0.31,
4.514,1.11,1.17,2.04,-1.44,1.23,-0.30,
4.527,0.65,1.24,3.40,-1.44,1.23,-0.30,
4.528,0.65,1.24,3.40,-1.46,1.07,-0.29,
4.529,0.65,1.24,3.40,-1.47,0.91,-0.28,
4.529,0.65,1.24,3.40,-1.48,0.67,-0.26,
4.529,0.65,1.24,3.40,-1.48,0.60,-0.26,
4.529,0.65,1.24,3.40,-1.47,0.44,-0.26,
4.53,0.82,0.81,3.86,-1.47,0.44,-0.26,
4.53,0.82,0.81,3.86,-1.47,0.29,-0.26,
4.531,0.82,0.81,3.86,-1.47,0.13,-0.26,
4.54,0.82,0.81,3.86,-1.46,-0.09,-0.27,
4.54,0.82,0.81,3.86,-1.46,-0.16,-0.27,
4.541,0.82,0.81,3.86,-1.45,-0.30,-0.28,
4.541,1.38,0.06,3.36,-1.45,-0.30,-0.28,
4.541,1.38,0.06,3.36,-1.45,-0.43,-0.29,
4.541,1.38,0.06,3.36,-1.44,-0.56,-0.30,
4.541,1.38,0.06,3.36,-1.43,-0.74,-0.33,
4.541,1.38,0.06,3.36,-1.43,-0.79,-0.34,
4.543,1.38,0.06,3.36,-1.42,-0.90,-0.36,
4.545,1.95,-0.62,2.47,-1.42,-0.90,-0.36,
4.545,1.95,-0.62,2.47,-1.41,-1.00,-0.38,
4.564,1.95,-0.62,2.47,-1.40,-1.10,-0.40,
4.564,1.95,-0.62,2.47,-1.39,-1.23,-0.44,
4.565,1.95,-0.62,2.47,-1.39,-1.27,-0.45,
4.565,1.95,-0.62,2.47,-1.38,-1.35,-0.48,
4.565,2.69,-1.17,1.73,-1.38,-1.35,-0.48,
4.566,2.69,-1.17,1.73,-1.37,-1.43,-0.51,
4.566,2.69,-1.17,1.73,-1.36,-1.50,-0.54,
4.566,2.69,-1.17,1.73,-1.34,-1.59,-0.59,
4.566,2.69,-1.17,1.73,-1.34,-1.62,-0.61,
4.567,2.69,-1.17,1.73,-1.33,-1.67,-0.64,
4.567,3.14,-1.49,1.19,-1.33,-1.67,-0.64,
4.567,3.14,-1.49,1.19,-1.32,-1.72,-0.68,
4.567,3.14,-1.49,1.19,-1.31,-1.76,-0.71,
4.572,3.14,-1.49,1.19,-1.29,-1.82,-0.76,
4.572,3.14,-1.49,1.19,-1.29,-1.84,-0.77,
4.573,3.14,-1.49,1.19,-1.28,-1.86,-0.81,
4.575,3.34,-1.73,0.98,-1.28,-1.86,-0.81,
4.576,3.34,-1.73,0.98,-1.27,-1.88,-0.83,
4.577,3.34,-1.73,0.98,-1.26,-1.89,-0.86,
4.58,3.34,-1.73,0.98,-1.24,-1.90,-0.91,
4.581,3.34,-1.73,0.98,-1.24,-1.90,-0.92,
4.583,3.34,-1.73,0.98,-1.23,-1.89,-0.95,
4.586,3.27,-2.04,0.84,-1.23,-1.89,-0.95,
4.587,3.27,-2.04,0.84,-1.22,-1.87,-0.97,
4.587,3.27,-2.04,0.84,-1.22,-1.85,-0.99,
4.59,3.27,-2.04,0.84,-1.21,-1.80,-1.01,
4.591,3.27,-2.04,0.84,-1.21,-1.78,-1.02,
4.593,3.27,-2.04,0.84,-1.21,-1.74,-1.03,
4.595,2.92,-2.27,0.75,-1.21,-1.74,-1.03,
4.595,2.92,-2.27,0.75,-1.21,-1.69,-1.04,
4.597,2.92,-2.27,0.75,-1.21,-1.64,-1.04,
4.602,2.92,-2.27,0.75,-1.21,-1.56,-1.05,
4.602,2.92,-2.27,0.75,-1.22,-1.53,-1.05,
4.605,2.92,-2.27,0.75,-1.22,-1.47,-1.04,
4.605,2.16,-2.49,0.57,-1.22,-1.47,-1.04,
4.605,2.16,-2.49,0.57,-1.23,-1.41,-1.03,
4.607,2.16,-2.49,0.57,-1.24,-1.34,-1.03,
4.61,2.16,-2.49,0.57,-1.26,-1.26,-1.01,
4.611,2.16,-2.49,0.57,-1.26,-1.22,-1.00,
4.613,2.16,-2.49,0.57,-1.27,-1.16,-0.98,
4.62,1.53,-2.82,0.37,-1.27,-1.16,-0.98,
4.621,1.53,-2.82,0.37,-1.29,-1.10,-0.97,
4.621,1.53,-2.82,0.37,-1.30,-1.03,-0.95,
4.622,1.53,-2.82,0.37,-1.32,-0.94,-0.91,
4.622,1.53,-2.82,0.37,-1.33,-0.90,-0.90,
4.623,1.53,-2.82,0.37,-1.35,-0.84,-0.88,
4.625,1.02,-3.18,0.31,-1.35,-0.84,-0.88,
4.626,1.02,-3.18,0.31,-1.37,-0.78,-0.86,
4.627,1.02,-3.18,0.31,-1.39,-0.72,-0.84,
4.63,1.02,-3.18,0.31,-1.41,-0.62,-0.79,
4.645,1.02,-3.18,0.31,-1.42,-0.59,-0.78,
4.646,1.02,-3.18,0.31,-1.44,-0.52,-0.75,
4.646,0.49,-3.64,0.46,-1.44,-0.52,-0.75,
4.647,0.49,-3.64,0.46,-1.45,-0.45,-0.72,
4.647,0.49,-3.64,0.46,-1.47,-0.37,-0.69,
4.647,0.49,-3.64,0.46,-1.48,-0.25,-0.63,
4.647,0.49,-3.64,0.46,-1.49,-0.20,-0.61,
4.647,0.49,-3.64,0.46,-1.50,-0.11,-0.57,
4.648,-0.19,-4.12,0.98,-1.50,-0.11,-0.57,
4.648,-0.19,-4.12,0.98,-1.50,-0.01,-0.53,
4.648,-0.19,-4.12,0.98,-1.50,0.10,-0.49,
4.651,-0.19,-4.12,0.98,-1.50,0.28,-0.42,
4.653,-0.19,-4.12,0.98,-1.49,0.35,-0.40,
4.654,-0.19,-4.12,0.98,-1.49,0.49,-0.36,
4.656,-1.02,-4.66,1.95,-1.49,0.49,-0.36,
4.657,-1.02,-4.66,1.95,-1.47,0.64,-0.31,
4.657,-1.02,-4.66,1.95,-1.45,0.80,-0.27,
4.66,-1.02,-4.66,1.95,-1.42,1.06,-0.21,
4.662,-1.02,-4.66,1.95,-1.40,1.16,-0.19,
4.663,-1.02,-4.66,1.95,-1.36,1.36,-0.14,
4.666,-1.91,-5.02,3.43,-1.36,1.36,-0.14,
4.666,-1.91,-5.02,3.43,-1.32,1.56,-0.10,
4.668,-1.91,-5.02,3.43,-1.27,1.78,-0.05,
4.67,-1.91,-5.02,3.43,-1.17,2.10,0.02,
4.671,-1.91,-5.02,3.43,-1.14,2.21,0.04,
4.673,-1.91,-5.02,3.43,-1.08,2.41,0.09,
4.677,-2.77,-5.13,5.30,-1.08,2.41,0.09,
4.68,-2.77,-5.13,5.30,-1.00,2.61,0.13,
4.682,-2.77,-5.13,5.30,-0.93,2.78,0.18,
4.685,-2.77,-5.13,5.30,-0.82,3.00,0.25,
4.685,-2.77,-5.13,5.30,-0.78,3.07,0.27,
4.69,-2.77,-5.13,5.30,-0.70,3.17,0.31,
4.691,-2.58,-5.11,6.22,-0.70,3.17,0.31,
4.691,-2.58,-5.11,6.22,-0.62,3.27,0.35,
4.692,-2.58,-5.11,6.22,-0.53,3.33,0.38,
4.692,-2.58,-5.11,6.22,-0.40,3.39,0.42,
4.693,-2.58,-5.11,6.22,-0.36,3.39,0.44,
4.693,-2.58,-5.11,6.22,-0.26,3.39,0.46,
4.695,-1.89,-4.86,7.01,-0.26,3.39,0.46,
4.695,-1.89,-4.86,7.01,-0.17,3.36,0.48,
4.697,-1.89,-4.86,7.01,-0.08,3.31,0.50,
4.7,-1.89,-4.86,7.01,0.08,3.19,0.52,
4.702,-1.89,-4.86,7.01,0.13,3.14,0.53,
4.703,-1.89,-4.86,7.01,0.24,3.02,0.54,
4.705,-1.44,-4.31,7.55,0.24,3.02,0.54,
4.705,-1.44,-4.31,7.55,0.35,2.87,0.56,
4.709,-1.44,-4.31,7.55,0.46,2.71,0.57,
4.71,-1.44,-4.31,7.55,0.64,2.42,0.58,
4.711,-1.44,-4.31,7.55,0.71,2.32,0.59,
4.714,-1.44,-4.31,7.55,0.83,2.09,0.59,
4.733,-1.72,-3.82,8.20,0.83,2.09,0.59,
4.733,-1.72,-3.82,8.20,0.96,1.85,0.60,
4.734,-1.72,-3.82,8.20,1.10,1.60,0.62,
4.734,-1.72,-3.82,8.20,1.30,1.20,0.63,
4.734,-1.72,-3.82,8.20,1.36,1.06,0.64,
4.734,-1.72,-3.82,8.20,1.50,0.79,0.65,
4.734,-2.61,-3.48,7.90,1.50,0.79,0.65,
4.735,-2.61,-3.48,7.90,1.63,0.52,0.67,
4.735,-2.61,-3.48,7.90,1.76,0.25,0.69,
4.735,-2.61,-3.48,7.90,1.95,-0.13,0.72,
4.735,-2.61,-3.48,7.90,2.01,-0.24,0.73,
4.735,-2.61,-3.48,7.90,2.14,-0.47,0.76,
4.737,-3.73,-3.29,7.25,2.14,-0.47,0.76,
4.737,-3.73,-3.29,7.25,2.25,-0.67,0.78,
4.743,-3.73,-3.29,7.25,2.37,-0.85,0.81,
4.745,-3.73,-3.29,7.25,2.53,-1.06,0.86,
4.745,-3.73,-3.29,7.25,2.58,-1.11,0.87,
4.746,-3.73,-3.29,7.25,2.69,-1.19,0.91,
4.746,-4.54,-3.41,6.52,2.69,-1.19,0.91,
4.746,-4.54,-3.41,6.52,2.79,-1.22,0.95,
4.747,-4.54,-3.41,6.52,2.89,-1.21,0.99,
4.751,-4.54,-3.41,6.52,3.03,-1.13,1.05,
4.752,-4.54,-3.41,6.52,3.08,-1.08,1.07,
4.753,-4.54,-3.41,6.52,3.17,-0.95,1.11,
4.755,-5.07,-3.66,6.11,3.17,-0.95,1.11,
4.755,-5.07,-3.66,6.11,3.26,-0.77,1.15,
4.757,-5.07,-3.66,6.11,3.35,-0.57,1.18,
4.761,-5.07,-3.66,6.11,3.48,-0.21,1.24,
4.761,-5.07,-3.66,6.11,3.53,-0.07,1.26,
4.763,-5.07,-3.66,6.11,3.62,0.21,1.29,
4.768,-4.62,-3.74,5.76,3.62,0.21,1.29,
4.769,-4.62,-3.74,5.76,3.72,0.51,1.33,
4.769,-4.62,-3.74,5.76,3.82,0.82,1.35,
4.77,-4.62,-3.74,5.76,3.97,1.29,1.39,
4.771,-4.62,-3.74,5.76,4.03,1.44,1.40,
4.773,-4.62,-3.74,5.76,4.13,1.74,1.42,
4.775,-3.10,-3.64,5.75,4.13,1.74,1.42,
4.775,-3.10,-3.64,5.75,4.24,2.03,1.44,
4.777,-3.10,-3.64,5.75,4.34,2.30,1.45,
4.78,-3.10,-3.64,5.75,4.47,2.65,1.45,
4.793,-3.10,-3.64,5.75,4.51,2.75,1.45,
4.793,-3.10,-3.64,5.75,4.58,2.93,1.45,
4.793,-0.77,-3.65,4.29,4.58,2.93,1.45,
4.794,-0.77,-3.65,4.29,4.63,3.08,1.45,
4.794,-0.77,-3.65,4.29,4.66,3.19,1.44,
4.794,-0.77,-3.65,4.29,4.67,3.27,1.43,
4.794,-0.77,-3.65,4.29,4.66,3.28,1.42,
4.795,-0.77,-3.65,4.29,4.63,3.28,1.42,
4.796,1.19,-3.86,0.67,4.63,3.28,1.42,
4.796,1.19,-3.86,0.67,4.57,3.24,1.41,
4.797,1.19,-3.86,0.67,4.50,3.17,1.41,
4.801,1.19,-3.86,0.67,4.34,3.01,1.42,
4.802,1.19,-3.86,0.67,4.28,2.95,1.42,
4.803,1.19,-3.86,0.67,4.15,2.80,1.42,
4.805,2.25,-3.95,-3.77,4.15,2.80,1.42,
4.806,2.25,-3.95,-3.77,3.99,2.63,1.40,
4.807,2.25,-3.95,-3.77,3.82,2.44,1.38,
4.81,2.25,-3.95,-3.77,3.55,2.11,1.31,
4.811,2.25,-3.95,-3.77,3.44,1.99,1.29,
4.813,2.25,-3.95,-3.77,3.23,1.71,1.22,
4.818,4.80,-4.41,-7.58,3.23,1.71,1.22,
4.819,4.80,-4.41,-7.58,3.02,1.42,1.14,
4.819,4.80,-4.41,-7.58,2.83,1.11,1.05,
4.82,4.80,-4.41,-7.58,2.57,0.64,0.93,
4.821,4.80,-4.41,-7.58,2.49,0.47,0.89,
4.823,4.80,-4.41,-7.58,2.34,0.14,0.81,
4.826,6.01,-4.66,-7.45,2.34,0.14,0.81,
4.827,6.01,-4.66,-7.45,2.20,-0.19,0.75,
4.827,6.01,-4.66,-7.45,2.06,-0.52,0.70,
4.831,6.01,-4.66,-7.45,1.87,-1.00,0.63,
4.832,6.01,-4.66,-7.45,1.82,-1.16,0.61,
4.833,6.01,-4.66,-7.45,1.70,-1.46,0.58,
4.836,4.98,-5.06,-7.17,1.70,-1.46,0.58,
4.836,4.98,-5.06,-7.17,1.60,-1.75,0.56,
4.837,4.98,-5.06,-7.17,1.49,-2.02,0.54,
4.84,4.98,-5.06,-7.17,1.36,-2.41,0.54,
4.841,4.98,-5.06,-7.17,1.31,-2.53,0.54,
4.843,4.98,-5.06,-7.17,1.23,-2.76,0.54,
4.845,3.35,-5.16,-7.39,1.23,-2.76,0.54,
4.846,3.35,-5.16,-7.39,1.16,-2.98,0.54,
4.848,3.35,-5.16,-7.39,1.09,-3.20,0.55,
4.85,3.35,-5.16,-7.39,0.98,-3.49,0.55,
4.851,3.35,-5.16,-7.39,0.95,-3.57,0.55,
4.853,3.35,-5.16,-7.39,0.88,-3.74,0.56,
4.855,2.73,-5.52,-8.24,0.88,-3.74,0.56,
4.855,2.73,-5.52,-8.24,0.82,-3.89,0.55,
4.857,2.73,-5.52,-8.24,0.77,-4.02,0.55,
4.86,2.73,-5.52,-8.24,0.71,-4.21,0.54,
4.862,2.73,-5.52,-8.24,0.70,-4.28,0.54,
4.863,2.73,-5.52,-8.24,0.68,-4.40,0.52,
4.865,2.34,-5.40,-8.01,0.68,-4.40,0.52,
4.866,2.34,-5.40,-8.01,0.67,-4.52,0.51,
4.867,2.34,-5.40,-8.01,0.68,-4.63,0.48,
4.87,2.34,-5.40,-8.01,0.74,-4.76,0.44,
4.871,2.34,-5.40,-8.01,0.77,-4.80,0.43,
4.873,2.34,-5.40,-8.01,0.87,-4.84,0.40,
4.876,2.20,-5.55,-5.32,0.87,-4.84,0.40,
4.877,2.20,-5.55,-5.32,1.03,-4.84,0.36,
4.878,2.20,-5.55,-5.32,1.23,-4.82,0.30,
4.88,2.20,-5.55,-5.32,1.64,-4.74,0.20,
4.911,2.20,-5.55,-5.32,1.80,-4.71,0.16,
4.911,2.20,-5.55,-5.32,2.14,-4.61,0.08,
4.912,2.90,-6.73,3.11,2.14,-4.61,0.08,
4.912,2.90,-6.73,3.11,2.50,-4.46,0.00,
4.913,2.90,-6.73,3.11,2.85,-4.28,-0.08,
4.913,2.90,-6.73,3.11,3.35,-3.94,-0.19,
4.914,2.90,-6.73,3.11,3.50,-3.81,-0.22,
4.914,2.90,-6.73,3.11,3.78,-3.53,-0.29,
4.915,2.14,-8.37,4.73,3.78,-3.53,-0.29,
4.915,2.14,-8.37,4.73,4.04,-3.23,-0.35,
4.915,2.14,-8.37,4.73,4.25,-2.91,-0.41,
4.916,2.14,-8.37,4.73,4.49,-2.42,-0.47,
4.916,2.14,-8.37,4.73,4.56,-2.25,-0.49,
4.917,2.14,-8.37,4.73,4.67,-1.92,-0.51,
4.917,0.51,-9.61,-0.46,4.67,-1.92,-0.51,
4.918,0.51,-9.61,-0.46,4.75,-1.60,-0.54,
4.918,0.51,-9.61,-0.46,4.81,-1.27,-0.55,
4.918,0.51,-9.61,-0.46,4.89,-0.81,-0.57,
4.919,0.51,-9.61,-0.46,4.91,-0.66,-0.58,
4.919,0.51,-9.61,-0.46,4.95,-0.36,-0.59,
4.92,-0.35,-10.56,-3.74,4.95,-0.36,-0.59,
4.921,-0.35,-10.56,-3.74,4.98,-0.07,-0.62,
4.921,-0.35,-10.56,-3.74,5.01,0.20,-0.65,
4.921,-0.35,-10.56,-3.74,5.05,0.57,-0.71,
4.922,-0.35,-10.56,-3.74,5.05,0.69,-0.74,
4.933,-0.35,-10.56,-3.74,5.07,0.89,-0.78,
4.933,-0.03,-10.14,-2.91,5.07,0.89,-0.78,
4.934,-0.03,-10.14,-2.91,5.08,1.06,-0.82,
4.934,-0.03,-10.14,-2.91,5.07,1.20,-0.85,
4.934,-0.03,-10.14,-2.91,5.03,1.35,-0.90,
4.934,-0.03,-10.14,-2.91,5.01,1.40,-0.92,
4.934,-0.03,-10.14,-2.91,4.95,1.47,-0.95,
4.935,-0.29,-8.75,-1.96,4.95,1.47,-0.95,
4.936,-0.29,-8.75,-1.96,4.86,1.53,-0.99,
4.937,-0.29,-8.75,-1.96,4.75,1.58,-1.02,
4.94,-0.29,-8.75,-1.96,4.55,1.65,-1.06,
4.941,-0.29,-8.75,-1.96,4.47,1.67,-1.08,
4.943,-0.29,-8.75,-1.96,4.31,1.71,-1.10,
4.945,-0.48,-6.41,-3.20,4.31,1.71,-1.10,
4.946,-0.48,-6.41,-3.20,4.15,1.74,-1.12,
4.953,-0.48,-6.41,-3.20,3.97,1.76,-1.13,
4.954,-0.48,-6.41,-3.20,3.72,1.76,-1.16,
4.954,-0.48,-6.41,-3.20,3.64,1.76,-1.17,
4.954,-0.48,-6.41,-3.20,3.48,1.74,-1.18,
4.955,-0.76,-4.13,-4.94,3.48,1.74,-1.18,
4.961,-0.76,-4.13,-4.94,3.34,1.72,-1.20,
4.962,-0.76,-4.13,-4.94,3.22,1.68,-1.22,
4.962,-0.76,-4.13,-4.94,3.05,1.62,-1.23,
4.977,-0.76,-4.13,-4.94,3.00,1.60,-1.24,
4.978,-0.76,-4.13,-4.94,2.92,1.56,-1.24,
4.978,-1.13,-1.82,-5.73,2.92,1.56,-1.24,
4.979,-1.13,-1.82,-5.73,2.85,1.53,-1.25,
4.979,-1.13,-1.82,-5.73,2.73,1.59,-1.27,
4.979,-1.13,-1.82,-5.73,2.73,1.59,-1.27,
