
time,ax,ay,az,wx,wy,wz,
0.003,-0.18,-0.23,-0.17,-0.27,-0.54,0.12,
0.004,-0.18,-0.23,-0.17,-0.27,-0.55,0.14,
0.004,-0.33,0.06,-0.05,-0.27,-0.55,0.14,
0.007,-0.33,0.06,-0.05,-0.28,-0.60,0.17,
0.008,-0.33,0.06,-0.05,-0.28,-0.60,0.17,
0.008,-0.33,0.06,-0.05,-0.28,-0.60,0.18,
0.008,-0.33,0.06,-0.05,-0.28,-0.60,0.18,
0.008,-0.33,0.06,-0.05,-0.28,-0.60,0.19,
0.009,-0.01,0.29,0.05,-0.28,-0.60,0.19,
0.01,-0.01,0.29,0.05,-0.28,-0.59,0.19,
0.013,-0.01,0.29,0.05,-0.28,-0.58,0.19,
0.014,-0.01,0.29,0.05,-0.28,-0.58,0.19,
0.015,-0.01,0.29,0.05,-0.28,-0.58,0.18,
0.018,-0.01,0.29,0.05,-0.28,-0.57,0.18,
0.02,0.46,0.35,-0.02,-0.28,-0.57,0.18,
0.02,0.46,0.35,-0.02,-0.28,-0.57,0.17,
0.023,0.46,0.35,-0.02,-0.29,-0.58,0.15,
0.023,0.46,0.35,-0.02,-0.29,-0.58,0.14,
0.025,0.46,0.35,-0.02,-0.30,-0.59,0.12,
0.027,0.46,0.35,-0.02,-0.30,-0.60,0.10,
0.03,0.71,0.22,-0.15,-0.30,-0.60,0.10,
0.03,0.71,0.22,-0.15,-0.30,-0.61,0.07,
0.046,0.71,0.22,-0.15,-0.31,-0.64,0.04,
0.047,0.71,0.22,-0.15,-0.32,-0.65,0.03,
0.047,0.71,0.22,-0.15,-0.32,-0.68,0.00,
0.047,0.71,0.22,-0.15,-0.32,-0.72,-0.01,
0.048,0.25,0.14,-0.13,-0.32,-0.72,-0.01,
0.048,0.25,0.14,-0.13,-0.32,-0.75,-0.02,
0.048,0.25,0.14,-0.13,-0.31,-0.81,-0.03,
0.048,0.25,0.14,-0.13,-0.31,-0.82,-0.03,
0.048,0.25,0.14,-0.13,-0.30,-0.86,-0.02,
0.049,0.25,0.14,-0.13,-0.28,-0.89,0.00,
0.051,-0.70,-0.24,-0.27,-0.28,-0.89,0.00,
0.052,-0.70,-0.24,-0.27,-0.26,-0.92,0.02,
0.087,-0.70,-0.24,-0.27,-0.23,-0.95,0.07,
0.088,-0.70,-0.24,-0.27,-0.23,-0.95,0.08,
0.088,-0.70,-0.24,-0.27,-0.22,-0.96,0.12,
0.088,-0.70,-0.24,-0.27,-0.21,-0.96,0.15,
0.089,-1.09,-1.05,-1.07,-0.21,-0.96,0.15,
0.089,-1.09,-1.05,-1.07,-0.21,-0.97,0.18,
0.089,-1.09,-1.05,-1.07,-0.23,-0.99,0.22,
0.089,-1.09,-1.05,-1.07,-0.24,-1.00,0.24,
0.089,-1.09,-1.05,-1.07,-0.26,-1.01,0.27,
0.09,-1.09,-1.05,-1.07,-0.30,-1.03,0.29,
0.09,-0.85,-1.31,-2.16,-0.30,-1.03,0.29,
0.09,-0.85,-1.31,-2.16,-0.34,-1.04,0.31,
0.09,-0.85,-1.31,-2.16,-0.40,-1.05,0.36,
0.09,-0.85,-1.31,-2.16,-0.42,-1.05,0.37,
0.09,-0.85,-1.31,-2.16,-0.47,-1.06,0.40,
0.091,-0.85,-1.31,-2.16,-0.52,-1.06,0.43,
0.091,-0.39,-0.95,-2.55,-0.52,-1.06,0.43,
0.091,-0.39,-0.95,-2.55,-0.57,-1.07,0.45,
0.091,-0.39,-0.95,-2.55,-0.66,-1.09,0.48,
0.091,-0.39,-0.95,-2.55,-0.68,-1.10,0.48,
0.092,-0.39,-0.95,-2.55,-0.74,-1.12,0.50,
0.092,-0.39,-0.95,-2.55,-0.80,-1.14,0.52,
0.092,-0.14,-0.48,-2.33,-0.80,-1.14,0.52,
0.092,-0.14,-0.48,-2.33,-0.85,-1.16,0.54,
0.092,-0.14,-0.48,-2.33,-0.92,-1.20,0.57,
0.098,-0.14,-0.48,-2.33,-0.94,-1.22,0.58,
0.098,-0.14,-0.48,-2.33,-0.98,-1.24,0.60,
0.098,-0.14,-0.48,-2.33,-1.03,-1.27,0.62,
0.1,-0.33,-0.20,-2.02,-1.03,-1.27,0.62,
0.1,-0.33,-0.20,-2.02,-1.07,-1.29,0.64,
0.113,-0.33,-0.20,-2.02,-1.14,-1.32,0.65,
0.114,-0.33,-0.20,-2.02,-1.16,-1.33,0.66,
0.115,-0.33,-0.20,-2.02,-1.20,-1.35,0.67,
0.115,-0.33,-0.20,-2.02,-1.25,-1.37,0.68,
0.116,-0.45,0.05,-1.85,-1.25,-1.37,0.68,
0.117,-0.45,0.05,-1.85,-1.29,-1.39,0.69,
0.118,-0.45,0.05,-1.85,-1.35,-1.44,0.70,
0.118,-0.45,0.05,-1.85,-1.37,-1.45,0.71,
0.118,-0.45,0.05,-1.85,-1.41,-1.49,0.71,
0.118,-0.45,0.05,-1.85,-1.45,-1.52,0.72,
0.127,-0.21,0.05,-1.61,-1.45,-1.52,0.72,
0.128,-0.21,0.05,-1.61,-1.49,-1.54,0.73,
0.129,-0.21,0.05,-1.61,-1.54,-1.59,0.73,
0.129,-0.21,0.05,-1.61,-1.55,-1.60,0.73,
0.129,-0.21,0.05,-1.61,-1.57,-1.63,0.72,
0.13,-0.21,0.05,-1.61,-1.60,-1.66,0.72,
0.13,0.34,-0.30,-1.29,-1.60,-1.66,0.72,
0.131,0.34,-0.30,-1.29,-1.61,-1.68,0.71,
0.133,0.34,-0.30,-1.29,-1.62,-1.69,0.72,
0.134,0.34,-0.30,-1.29,-1.62,-1.69,0.72,
0.144,0.34,-0.30,-1.29,-1.61,-1.70,0.73,
0.146,0.34,-0.30,-1.29,-1.60,-1.71,0.73,
0.146,0.41,-1.07,-0.66,-1.60,-1.71,0.73,
0.146,0.41,-1.07,-0.66,-1.59,-1.72,0.74,
0.146,0.41,-1.07,-0.66,-1.57,-1.72,0.75,
0.146,0.41,-1.07,-0.66,-1.56,-1.73,0.75,
0.147,0.41,-1.07,-0.66,-1.54,-1.74,0.75,
0.148,0.41,-1.07,-0.66,-1.52,-1.76,0.75,
0.18,0.40,-1.32,-0.45,-1.52,-1.76,0.75,
0.182,0.40,-1.32,-0.45,-1.50,-1.77,0.75,
0.189,0.40,-1.32,-0.45,-1.47,-1.82,0.75,
0.19,0.40,-1.32,-0.45,-1.45,-1.83,0.75,
0.191,0.40,-1.32,-0.45,-1.44,-1.86,0.75,
0.191,0.40,-1.32,-0.45,-1.42,-1.89,0.75,
0.191,0.14,-1.04,-0.55,-1.42,-1.89,0.75,
0.192,0.14,-1.04,-0.55,-1.40,-1.93,0.75,
0.192,0.14,-1.04,-0.55,-1.38,-1.98,0.74,
0.192,0.14,-1.04,-0.55,-1.37,-2.00,0.74,
0.193,0.14,-1.04,-0.55,-1.35,-2.02,0.74,
0.194,0.14,-1.04,-0.55,-1.33,-2.03,0.74,
0.198,-0.03,-0.83,-0.71,-1.33,-2.03,0.74,
0.23,-0.03,-0.83,-0.71,-1.31,-2.03,0.74,
0.23,-0.03,-0.83,-0.71,-1.28,-2.02,0.73,
0.23,-0.03,-0.83,-0.71,-1.27,-2.01,0.72,
0.23,-0.03,-0.83,-0.71,-1.26,-2.00,0.72,
0.231,-0.03,-0.83,-0.71,-1.25,-1.98,0.71,
0.231,0.24,-0.85,-0.91,-1.25,-1.98,0.71,
0.231,0.24,-0.85,-0.91,-1.24,-1.97,0.69,
0.231,0.24,-0.85,-0.91,-1.24,-1.94,0.66,
0.231,0.24,-0.85,-0.91,-1.25,-1.93,0.64,
0.232,0.24,-0.85,-0.91,-1.28,-1.90,0.58,
0.232,0.24,-0.85,-0.91,-1.30,-1.89,0.56,
0.232,1.37,-0.85,-1.28,-1.30,-1.89,0.56,
0.232,1.37,-0.85,-1.28,-1.32,-1.86,0.51,
0.232,1.37,-0.85,-1.28,-1.36,-1.82,0.45,
0.233,1.37,-0.85,-1.28,-1.37,-1.80,0.43,
0.233,1.37,-0.85,-1.28,-1.38,-1.77,0.39,
0.233,1.37,-0.85,-1.28,-1.38,-1.73,0.35,
0.233,1.76,-0.82,-0.91,-1.38,-1.73,0.35,
0.234,1.76,-0.82,-0.91,-1.39,-1.69,0.32,
0.234,1.76,-0.82,-0.91,-1.37,-1.63,0.27,
0.234,1.76,-0.82,-0.91,-1.37,-1.62,0.26,
0.234,1.76,-0.82,-0.91,-1.35,-1.59,0.23,
0.234,1.76,-0.82,-0.91,-1.33,-1.57,0.19,
0.235,1.89,-0.75,-0.04,-1.33,-1.57,0.19,
0.235,1.89,-0.75,-0.04,-1.31,-1.56,0.16,
0.235,1.89,-0.75,-0.04,-1.27,-1.56,0.11,
0.235,1.89,-0.75,-0.04,-1.25,-1.56,0.10,
0.235,1.89,-0.75,-0.04,-1.22,-1.57,0.07,
0.236,1.89,-0.75,-0.04,-1.18,-1.59,0.04,
0.236,1.39,-0.44,0.81,-1.18,-1.59,0.04,
0.236,1.39,-0.44,0.81,-1.14,-1.62,0.02,
0.236,1.39,-0.44,0.81,-1.07,-1.68,-0.01,
0.237,1.39,-0.44,0.81,-1.05,-1.70,-0.01,
0.237,1.39,-0.44,0.81,-1.00,-1.75,-0.01,
0.237,1.39,-0.44,0.81,-0.96,-1.82,-0.01,
0.237,-0.05,-0.08,1.53,-0.96,-1.82,-0.01,
0.237,-0.05,-0.08,1.53,-0.91,-1.89,-0.00,
0.238,-0.05,-0.08,1.53,-0.84,-2.02,0.02,
0.238,-0.05,-0.08,1.53,-0.82,-2.06,0.04,
0.238,-0.05,-0.08,1.53,-0.77,-2.15,0.07,
0.238,-0.05,-0.08,1.53,-0.73,-2.24,0.11,
0.248,-1.71,-0.07,1.81,-0.73,-2.24,0.11,
0.248,-1.71,-0.07,1.81,-0.70,-2.34,0.16,
0.249,-1.71,-0.07,1.81,-0.64,-2.49,0.25,
0.249,-1.71,-0.07,1.81,-0.63,-2.54,0.27,
0.249,-1.71,-0.07,1.81,-0.60,-2.64,0.34,
0.249,-1.71,-0.07,1.81,-0.57,-2.73,0.41,
0.25,-3.42,-0.39,1.92,-0.57,-2.73,0.41,
0.25,-3.42,-0.39,1.92,-0.55,-2.83,0.48,
0.256,-3.42,-0.39,1.92,-0.52,-2.97,0.59,
0.257,-3.42,-0.39,1.92,-0.51,-3.02,0.63,
0.257,-3.42,-0.39,1.92,-0.49,-3.11,0.69,
0.258,-3.42,-0.39,1.92,-0.48,-3.20,0.76,
0.26,-3.34,-0.69,1.97,-0.48,-3.20,0.76,
0.26,-3.34,-0.69,1.97,-0.47,-3.28,0.82,
0.265,-3.34,-0.69,1.97,-0.48,-3.40,0.90,
0.265,-3.34,-0.69,1.97,-0.48,-3.44,0.92,
0.278,-3.34,-0.69,1.97,-0.49,-3.50,0.96,
0.278,-3.34,-0.69,1.97,-0.50,-3.56,0.99,
0.278,-1.78,-0.65,1.12,-0.50,-3.56,0.99,
0.278,-1.78,-0.65,1.12,-0.52,-3.61,1.02,
0.278,-1.78,-0.65,1.12,-0.56,-3.67,1.03,
0.279,-1.78,-0.65,1.12,-0.57,-3.68,1.04,
0.279,-1.78,-0.65,1.12,-0.60,-3.71,1.03,
0.279,-1.78,-0.65,1.12,-0.63,-3.72,1.02,
0.279,-0.08,-0.21,-0.38,-0.63,-3.72,1.02,
0.28,-0.08,-0.21,-0.38,-0.65,-3.72,1.01,
0.282,-0.08,-0.21,-0.38,-0.69,-3.72,0.99,
0.283,-0.08,-0.21,-0.38,-0.70,-3.71,0.99,
0.285,-0.08,-0.21,-0.38,-0.72,-3.69,0.98,
0.287,-0.08,-0.21,-0.38,-0.74,-3.64,0.97,
0.289,0.20,0.79,-1.22,-0.74,-3.64,0.97,
0.29,0.20,0.79,-1.22,-0.76,-3.57,0.96,
0.292,0.20,0.79,-1.22,-0.78,-3.44,0.94,
0.293,0.20,0.79,-1.22,-0.79,-3.39,0.94,
0.295,0.20,0.79,-1.22,-0.81,-3.29,0.92,
0.297,0.20,0.79,-1.22,-0.82,-3.18,0.91,
0.306,0.11,1.02,-1.77,-0.82,-3.18,0.91,
0.307,0.11,1.02,-1.77,-0.84,-3.07,0.89,
0.307,0.11,1.02,-1.77,-0.86,-2.88,0.85,
0.307,0.11,1.02,-1.77,-0.87,-2.82,0.83,
0.307,0.11,1.02,-1.77,-0.88,-2.69,0.79,
0.307,0.11,1.02,-1.77,-0.90,-2.56,0.75,
0.309,0.95,0.91,-2.24,-0.90,-2.56,0.75,
0.309,0.95,0.91,-2.24,-0.91,-2.43,0.71,
0.312,0.95,0.91,-2.24,-0.93,-2.23,0.64,
0.313,0.95,0.91,-2.24,-0.93,-2.17,0.61,
0.315,0.95,0.91,-2.24,-0.94,-2.04,0.56,
0.317,0.95,0.91,-2.24,-0.95,-1.92,0.50,
0.319,2.03,0.35,-2.10,-0.95,-1.92,0.50,
0.319,2.03,0.35,-2.10,-0.95,-1.82,0.44,
0.322,2.03,0.35,-2.10,-0.96,-1.67,0.34,
0.323,2.03,0.35,-2.10,-0.96,-1.62,0.30,
0.325,2.03,0.35,-2.10,-0.96,-1.54,0.23,
0.327,2.03,0.35,-2.10,-0.96,-1.45,0.15,
0.33,3.18,-0.40,-1.75,-0.96,-1.45,0.15,
0.33,3.18,-0.40,-1.75,-0.96,-1.37,0.07,
0.336,3.18,-0.40,-1.75,-0.95,-1.26,-0.05,
0.336,3.18,-0.40,-1.75,-0.94,-1.22,-0.09,
0.337,3.18,-0.40,-1.75,-0.93,-1.16,-0.18,
0.347,3.18,-0.40,-1.75,-0.92,-1.09,-0.26,
0.347,3.44,-0.85,-0.90,-0.92,-1.09,-0.26,
0.347,3.44,-0.85,-0.90,-0.89,-1.03,-0.33,
0.347,3.44,-0.85,-0.90,-0.85,-0.95,-0.43,
0.347,3.44,-0.85,-0.90,-0.83,-0.93,-0.45,
0.347,3.44,-0.85,-0.90,-0.79,-0.89,-0.49,
0.347,3.44,-0.85,-0.90,-0.75,-0.87,-0.53,
0.35,2.12,-0.49,0.53,-0.75,-0.87,-0.53,
0.35,2.12,-0.49,0.53,-0.70,-0.85,-0.55,
0.352,2.12,-0.49,0.53,-0.64,-0.85,-0.58,
0.353,2.12,-0.49,0.53,-0.61,-0.85,-0.58,
0.357,2.12,-0.49,0.53,-0.57,-0.86,-0.59,
0.359,2.12,-0.49,0.53,-0.53,-0.88,-0.59,
0.359,0.49,0.40,1.43,-0.53,-0.88,-0.59,
0.359,0.49,0.40,1.43,-0.49,-0.91,-0.59,
0.363,0.49,0.40,1.43,-0.44,-0.95,-0.57,
0.365,0.49,0.40,1.43,-0.42,-0.98,-0.57,
0.365,0.49,0.40,1.43,-0.39,-1.02,-0.55,
0.367,0.49,0.40,1.43,-0.36,-1.06,-0.53,
0.372,-0.88,0.91,1.75,-0.36,-1.06,-0.53,
0.372,-0.88,0.91,1.75,-0.32,-1.11,-0.49,
0.374,-0.88,0.91,1.75,-0.29,-1.17,-0.44,
0.374,-0.88,0.91,1.75,-0.28,-1.20,-0.42,
0.377,-0.88,0.91,1.75,-0.26,-1.24,-0.38,
0.377,-0.88,0.91,1.75,-0.25,-1.27,-0.34,
0.381,-2.04,0.63,1.14,-0.25,-1.27,-0.34,
0.381,-2.04,0.63,1.14,-0.25,-1.30,-0.30,
0.384,-2.04,0.63,1.14,-0.25,-1.33,-0.25,
0.384,-2.04,0.63,1.14,-0.26,-1.34,-0.23,
0.387,-2.04,0.63,1.14,-0.27,-1.36,-0.20,
0.388,-2.04,0.63,1.14,-0.28,-1.37,-0.16,
0.391,-2.66,0.21,-0.09,-0.28,-1.37,-0.16,
0.391,-2.66,0.21,-0.09,-0.30,-1.39,-0.13,
0.394,-2.66,0.21,-0.09,-0.33,-1.40,-0.09,
0.394,-2.66,0.21,-0.09,-0.35,-1.40,-0.08,
0.395,-2.66,0.21,-0.09,-0.38,-1.39,-0.06,
0.398,-2.66,0.21,-0.09,-0.42,-1.38,-0.04,
0.402,-2.01,-0.34,-1.48,-0.42,-1.38,-0.04,
0.402,-2.01,-0.34,-1.48,-0.46,-1.35,-0.04,
0.402,-2.01,-0.34,-1.48,-0.54,-1.26,-0.04,
0.405,-2.01,-0.34,-1.48,-0.56,-1.23,-0.04,
0.405,-2.01,-0.34,-1.48,-0.61,-1.17,-0.04,
0.409,-2.01,-0.34,-1.48,-0.66,-1.11,-0.05,
0.412,-1.41,-0.29,-2.29,-0.66,-1.11,-0.05,
0.412,-1.41,-0.29,-2.29,-0.70,-1.06,-0.04,
0.412,-1.41,-0.29,-2.29,-0.76,-0.96,-0.03,
0.415,-1.41,-0.29,-2.29,-0.78,-0.92,-0.03,
0.415,-1.41,-0.29,-2.29,-0.82,-0.85,-0.01,
0.417,-1.41,-0.29,-2.29,-0.86,-0.79,0.00,
0.419,-0.62,-0.43,-2.43,-0.86,-0.79,0.00,
0.42,-0.62,-0.43,-2.43,-0.90,-0.73,0.02,
0.422,-0.62,-0.43,-2.43,-0.96,-0.68,0.04,
0.423,-0.62,-0.43,-2.43,-0.98,-0.67,0.05,
0.425,-0.62,-0.43,-2.43,-1.01,-0.64,0.06,
0.427,-0.62,-0.43,-2.43,-1.05,-0.61,0.07,
0.429,-0.29,-0.51,-2.08,-1.05,-0.61,0.07,
0.429,-0.29,-0.51,-2.08,-1.10,-0.56,0.07,
0.435,-0.29,-0.51,-2.08,-1.19,-0.45,0.06,
0.435,-0.29,-0.51,-2.08,-1.23,-0.42,0.05,
0.435,-0.29,-0.51,-2.08,-1.30,-0.37,0.03,
0.439,-0.29,-0.51,-2.08,-1.36,-0.34,0.01,
0.439,0.08,-0.87,-2.19,-1.36,-0.34,0.01,
0.44,0.08,-0.87,-2.19,-1.42,-0.30,-0.00,
0.442,0.08,-0.87,-2.19,-1.50,-0.26,-0.03,
0.443,0.08,-0.87,-2.19,-1.52,-0.25,-0.04,
0.447,0.08,-0.87,-2.19,-1.57,-0.22,-0.05,
0.447,0.08,-0.87,-2.19,-1.61,-0.21,-0.06,
0.454,0.04,-0.81,-1.57,-1.61,-0.21,-0.06,
0.454,0.04,-0.81,-1.57,-1.64,-0.20,-0.08,
0.454,0.04,-0.81,-1.57,-1.66,-0.21,-0.09,
0.454,0.04,-0.81,-1.57,-1.67,-0.22,-0.10,
0.457,0.04,-0.81,-1.57,-1.66,-0.25,-0.10,
0.461,0.04,-0.81,-1.57,-1.65,-0.29,-0.11,
0.462,-0.50,-0.44,-0.04,-1.65,-0.29,-0.11,
0.462,-0.50,-0.44,-0.04,-1.63,-0.33,-0.11,
0.462,-0.50,-0.44,-0.04,-1.58,-0.39,-0.12,
0.473,-0.50,-0.44,-0.04,-1.57,-0.41,-0.11,
0.473,-0.50,-0.44,-0.04,-1.52,-0.44,-0.11,
0.473,-0.50,-0.44,-0.04,-1.48,-0.48,-0.10,
0.473,-1.14,-0.32,1.45,-1.48,-0.48,-0.10,
0.473,-1.14,-0.32,1.45,-1.43,-0.51,-0.08,
0.473,-1.14,-0.32,1.45,-1.35,-0.56,-0.05,
0.474,-1.14,-0.32,1.45,-1.32,-0.59,-0.04,
0.477,-1.14,-0.32,1.45,-1.27,-0.64,-0.01,
0.479,-1.14,-0.32,1.45,-1.23,-0.68,0.02,
0.479,-2.12,-0.31,1.83,-1.23,-0.68,0.02,
0.48,-2.12,-0.31,1.83,-1.18,-0.73,0.05,
0.482,-2.12,-0.31,1.83,-1.12,-0.77,0.10,
0.483,-2.12,-0.31,1.83,-1.10,-0.78,0.11,
0.485,-2.12,-0.31,1.83,-1.07,-0.79,0.14,
0.487,-2.12,-0.31,1.83,-1.05,-0.79,0.17,
0.489,-2.66,-0.38,1.14,-1.05,-0.79,0.17,
0.49,-2.66,-0.38,1.14,-1.03,-0.79,0.19,
0.492,-2.66,-0.38,1.14,-1.02,-0.80,0.24,
0.493,-2.66,-0.38,1.14,-1.02,-0.81,0.26,
0.495,-2.66,-0.38,1.14,-1.03,-0.82,0.29,
0.498,-2.66,-0.38,1.14,-1.04,-0.84,0.32,
0.5,-3.02,-1.03,0.05,-1.04,-0.84,0.32,
0.5,-3.02,-1.03,0.05,-1.06,-0.86,0.36,
0.502,-3.02,-1.03,0.05,-1.11,-0.90,0.40,
0.516,-3.02,-1.03,0.05,-1.12,-0.92,0.41,
0.516,-3.02,-1.03,0.05,-1.17,-0.95,0.44,
0.516,-3.02,-1.03,0.05,-1.22,-0.97,0.46,
0.517,-3.01,-1.98,-1.19,-1.22,-0.97,0.46,
0.517,-3.01,-1.98,-1.19,-1.27,-1.00,0.47,
0.517,-3.01,-1.98,-1.19,-1.37,-1.03,0.48,
0.517,-3.01,-1.98,-1.19,-1.40,-1.04,0.48,
0.517,-3.01,-1.98,-1.19,-1.47,-1.06,0.47,
0.517,-3.01,-1.98,-1.19,-1.53,-1.08,0.46,
0.52,-2.53,-2.26,-2.40,-1.53,-1.08,0.46,
0.52,-2.53,-2.26,-2.40,-1.59,-1.10,0.45,
0.522,-2.53,-2.26,-2.40,-1.69,-1.13,0.42,
0.527,-2.53,-2.26,-2.40,-1.72,-1.14,0.41,
0.527,-2.53,-2.26,-2.40,-1.77,-1.15,0.39,
0.528,-2.53,-2.26,-2.40,-1.83,-1.15,0.37,
0.529,-2.56,-2.65,-2.91,-1.83,-1.15,0.37,
0.53,-2.56,-2.65,-2.91,-1.88,-1.14,0.34,
0.532,-2.56,-2.65,-2.91,-1.95,-1.09,0.32,
0.534,-2.56,-2.65,-2.91,-1.98,-1.07,0.31,
0.537,-2.56,-2.65,-2.91,-2.04,-0.99,0.29,
0.537,-2.56,-2.65,-2.91,-2.06,-0.96,0.29,
0.539,-2.79,-2.60,-2.97,-2.06,-0.96,0.29,
0.54,-2.79,-2.60,-2.97,-2.10,-0.89,0.28,
0.542,-2.79,-2.60,-2.97,-2.15,-0.78,0.27,
0.543,-2.79,-2.60,-2.97,-2.17,-0.74,0.26,
0.545,-2.79,-2.60,-2.97,-2.20,-0.66,0.25,
0.548,-2.79,-2.60,-2.97,-2.23,-0.59,0.24,
0.55,-2.95,-2.32,-2.63,-2.23,-0.59,0.24,
0.55,-2.95,-2.32,-2.63,-2.25,-0.52,0.22,
0.552,-2.95,-2.32,-2.63,-2.29,-0.41,0.20,
0.553,-2.95,-2.32,-2.63,-2.30,-0.37,0.18,
0.555,-2.95,-2.32,-2.63,-2.32,-0.29,0.15,
0.557,-2.95,-2.32,-2.63,-2.34,-0.20,0.12,
0.56,-3.12,-1.80,-2.15,-2.34,-0.20,0.12,
0.56,-3.12,-1.80,-2.15,-2.36,-0.13,0.09,
0.562,-3.12,-1.80,-2.15,-2.39,-0.02,0.03,
0.564,-3.12,-1.80,-2.15,-2.39,0.01,-0.01,
0.565,-3.12,-1.80,-2.15,-2.41,0.10,-0.08,
0.567,-3.12,-1.80,-2.15,-2.41,0.20,-0.19,
0.57,-3.23,-1.57,-1.48,-2.41,0.20,-0.19,
0.57,-3.23,-1.57,-1.48,-2.41,0.32,-0.30,
0.572,-3.23,-1.57,-1.48,-2.40,0.55,-0.50,
0.574,-3.23,-1.57,-1.48,-2.39,0.64,-0.57,
0.575,-3.23,-1.57,-1.48,-2.37,0.84,-0.72,
0.577,-3.23,-1.57,-1.48,-2.33,1.06,-0.85,
0.579,-1.62,-1.08,0.62,-2.33,1.06,-0.85,
0.58,-1.62,-1.08,0.62,-2.29,1.27,-0.98,
0.582,-1.62,-1.08,0.62,-2.23,1.53,-1.16,
0.583,-1.62,-1.08,0.62,-2.21,1.59,-1.21,
0.585,-1.62,-1.08,0.62,-2.16,1.68,-1.31,
0.587,-1.62,-1.08,0.62,-2.12,1.71,-1.39,
0.59,-0.88,0.19,2.70,-2.12,1.71,-1.39,
0.59,-0.88,0.19,2.70,-2.08,1.68,-1.45,
0.592,-0.88,0.19,2.70,-2.03,1.57,-1.51,
0.594,-0.88,0.19,2.70,-2.02,1.53,-1.52,
0.595,-0.88,0.19,2.70,-2.01,1.46,-1.54,
0.61,-0.88,0.19,2.70,-2.01,1.43,-1.55,
0.61,-2.23,0.68,0.85,-2.01,1.43,-1.55,
0.611,-2.23,0.68,0.85,-2.03,1.45,-1.56,
0.611,-2.23,0.68,0.85,-2.08,1.58,-1.57,
0.611,-2.23,0.68,0.85,-2.10,1.64,-1.57,
0.611,-2.23,0.68,0.85,-2.13,1.81,-1.59,
0.611,-2.23,0.68,0.85,-2.17,1.99,-1.61,
0.611,-2.87,0.05,-1.88,-2.17,1.99,-1.61,
0.612,-2.87,0.05,-1.88,-2.20,2.17,-1.63,
0.613,-2.87,0.05,-1.88,-2.23,2.38,-1.65,
0.641,-2.87,0.05,-1.88,-2.24,2.43,-1.66,
0.642,-2.87,0.05,-1.88,-2.25,2.49,-1.66,
0.642,-2.87,0.05,-1.88,-2.26,2.51,-1.66,
0.642,-3.19,-0.80,-1.30,-2.26,2.51,-1.66,
0.642,-3.19,-0.80,-1.30,-2.27,2.50,-1.66,
0.642,-3.19,-0.80,-1.30,-2.29,2.44,-1.64,
0.642,-3.19,-0.80,-1.30,-2.30,2.41,-1.63,
0.643,-3.19,-0.80,-1.30,-2.32,2.36,-1.61,
0.643,-3.19,-0.80,-1.30,-2.35,2.30,-1.58,
0.643,-2.93,-1.72,-1.10,-2.35,2.30,-1.58,
0.643,-2.93,-1.72,-1.10,-2.38,2.24,-1.55,
0.643,-2.93,-1.72,-1.10,-2.43,2.16,-1.50,
0.643,-2.93,-1.72,-1.10,-2.46,2.14,-1.49,
0.643,-2.93,-1.72,-1.10,-2.50,2.08,-1.45,
0.643,-2.93,-1.72,-1.10,-2.56,2.03,-1.41,
0.644,-2.24,-2.04,-1.73,-2.56,2.03,-1.41,
0.644,-2.24,-2.04,-1.73,-2.61,1.98,-1.38,
0.645,-2.24,-2.04,-1.73,-2.69,1.92,-1.34,
0.646,-2.24,-2.04,-1.73,-2.72,1.90,-1.33,
0.648,-2.24,-2.04,-1.73,-2.79,1.88,-1.31,
0.649,-2.24,-2.04,-1.73,-2.84,1.86,-1.29,
0.651,-1.03,-2.24,-1.92,-2.84,1.86,-1.29,
0.652,-1.03,-2.24,-1.92,-2.90,1.85,-1.28,
0.652,-1.03,-2.24,-1.92,-2.98,1.84,-1.26,
0.653,-1.03,-2.24,-1.92,-3.01,1.84,-1.26,
0.655,-1.03,-2.24,-1.92,-3.06,1.84,-1.26,
0.657,-1.03,-2.24,-1.92,-3.11,1.84,-1.26,
0.659,0.71,-2.40,-1.64,-3.11,1.84,-1.26,
0.66,0.71,-2.40,-1.64,-3.16,1.82,-1.27,
0.662,0.71,-2.40,-1.64,-3.22,1.80,-1.29,
0.665,0.71,-2.40,-1.64,-3.24,1.79,-1.30,
0.666,0.71,-2.40,-1.64,-3.29,1.77,-1.32,
0.67,0.71,-2.40,-1.64,-3.32,1.74,-1.35,
0.671,2.20,-2.63,-0.86,-3.32,1.74,-1.35,
0.687,2.20,-2.63,-0.86,-3.35,1.72,-1.38,
0.687,2.20,-2.63,-0.86,-3.40,1.67,-1.42,
0.688,2.20,-2.63,-0.86,-3.41,1.65,-1.44,
0.688,2.20,-2.63,-0.86,-3.43,1.61,-1.47,
0.688,2.20,-2.63,-0.86,-3.46,1.57,-1.49,
0.688,2.86,-2.59,0.22,-3.46,1.57,-1.49,
0.688,2.86,-2.59,0.22,-3.49,1.52,-1.52,
0.688,2.86,-2.59,0.22,-3.52,1.42,-1.54,
0.688,2.86,-2.59,0.22,-3.53,1.39,-1.55,
0.689,2.86,-2.59,0.22,-3.56,1.32,-1.56,
0.689,2.86,-2.59,0.22,-3.59,1.25,-1.58,
0.691,3.04,-2.47,0.64,-3.59,1.25,-1.58,
0.691,3.04,-2.47,0.64,-3.62,1.18,-1.59,
0.698,3.04,-2.47,0.64,-3.66,1.08,-1.60,
0.698,3.04,-2.47,0.64,-3.68,1.06,-1.61,
0.698,3.04,-2.47,0.64,-3.71,1.00,-1.63,
0.698,3.04,-2.47,0.64,-3.75,0.95,-1.64,
0.7,3.48,-2.17,0.80,-3.75,0.95,-1.64,
0.7,3.48,-2.17,0.80,-3.78,0.90,-1.65,
0.702,3.48,-2.17,0.80,-3.85,0.82,-1.66,
0.704,3.48,-2.17,0.80,-3.87,0.80,-1.66,
0.705,3.48,-2.17,0.80,-3.91,0.75,-1.65,
0.707,3.48,-2.17,0.80,-3.95,0.71,-1.64,
0.709,3.09,-1.90,0.76,-3.95,0.71,-1.64,
0.71,3.09,-1.90,0.76,-4.00,0.67,-1.63,
0.712,3.09,-1.90,0.76,-4.06,0.61,-1.59,
0.718,3.09,-1.90,0.76,-4.08,0.59,-1.58,
0.718,3.09,-1.90,0.76,-4.12,0.56,-1.54,
0.719,3.09,-1.90,0.76,-4.16,0.53,-1.50,
0.72,2.17,-1.80,1.02,-4.16,0.53,-1.50,
0.72,2.17,-1.80,1.02,-4.20,0.50,-1.47,
0.724,2.17,-1.80,1.02,-4.24,0.47,-1.40,
0.724,2.17,-1.80,1.02,-4.26,0.47,-1.38,
0.726,2.17,-1.80,1.02,-4.28,0.46,-1.33,
0.727,2.17,-1.80,1.02,-4.30,0.45,-1.29,
0.749,1.47,-1.70,1.65,-4.30,0.45,-1.29,
0.75,1.47,-1.70,1.65,-4.31,0.45,-1.24,
0.75,1.47,-1.70,1.65,-4.32,0.46,-1.17,
0.75,1.47,-1.70,1.65,-4.33,0.47,-1.15,
0.75,1.47,-1.70,1.65,-4.33,0.48,-1.10,
0.751,1.47,-1.70,1.65,-4.33,0.49,-1.05,
0.751,1.37,-1.50,2.29,-4.33,0.49,-1.05,
0.751,1.37,-1.50,2.29,-4.34,0.50,-1.01,
0.751,1.37,-1.50,2.29,-4.34,0.51,-0.95,
0.751,1.37,-1.50,2.29,-4.34,0.51,-0.94,
0.752,1.37,-1.50,2.29,-4.35,0.51,-0.90,
0.752,1.37,-1.50,2.29,-4.35,0.50,-0.88,
0.752,1.69,-1.29,2.58,-4.35,0.50,-0.88,
0.752,1.69,-1.29,2.58,-4.36,0.49,-0.86,
0.752,1.69,-1.29,2.58,-4.37,0.47,-0.85,
0.753,1.69,-1.29,2.58,-4.37,0.46,-0.85,
0.755,1.69,-1.29,2.58,-4.38,0.45,-0.85,
0.757,1.69,-1.29,2.58,-4.38,0.43,-0.86,
0.76,2.90,-1.46,3.08,-4.38,0.43,-0.86,
0.761,2.90,-1.46,3.08,-4.39,0.42,-0.89,
0.763,2.90,-1.46,3.08,-4.40,0.40,-0.93,
0.766,2.90,-1.46,3.08,-4.40,0.40,-0.94,
0.767,2.90,-1.46,3.08,-4.40,0.40,-0.98,
0.768,2.90,-1.46,3.08,-4.40,0.39,-1.03,
0.77,4.45,-1.48,3.81,-4.40,0.39,-1.03,
0.771,4.45,-1.48,3.81,-4.40,0.39,-1.08,
0.772,4.45,-1.48,3.81,-4.40,0.38,-1.16,
0.774,4.45,-1.48,3.81,-4.40,0.38,-1.19,
0.775,4.45,-1.48,3.81,-4.40,0.38,-1.25,
0.777,4.45,-1.48,3.81,-4.40,0.38,-1.31,
0.781,5.59,-1.28,4.40,-4.40,0.38,-1.31,
0.781,5.59,-1.28,4.40,-4.40,0.37,-1.38,
0.783,5.59,-1.28,4.40,-4.39,0.37,-1.47,
0.783,5.59,-1.28,4.40,-4.39,0.37,-1.51,
0.786,5.59,-1.28,4.40,-4.39,0.37,-1.57,
0.787,5.59,-1.28,4.40,-4.38,0.36,-1.63,
0.79,5.96,-0.99,4.87,-4.38,0.36,-1.63,
0.79,5.96,-0.99,4.87,-4.38,0.34,-1.69,
0.792,5.96,-0.99,4.87,-4.37,0.31,-1.77,
0.794,5.96,-0.99,4.87,-4.36,0.29,-1.80,
0.797,5.96,-0.99,4.87,-4.36,0.25,-1.84,
0.798,5.96,-0.99,4.87,-4.35,0.22,-1.88,
0.8,5.55,-0.68,5.48,-4.35,0.22,-1.88,
0.801,5.55,-0.68,5.48,-4.34,0.18,-1.91,
0.802,5.55,-0.68,5.48,-4.33,0.12,-1.95,
0.803,5.55,-0.68,5.48,-4.33,0.11,-1.96,
0.805,5.55,-0.68,5.48,-4.33,0.08,-1.97,
0.807,5.55,-0.68,5.48,-4.32,0.04,-1.97,
0.81,4.74,-0.17,5.73,-4.32,0.04,-1.97,
0.81,4.74,-0.17,5.73,-4.31,0.01,-1.97,
0.813,4.74,-0.17,5.73,-4.31,-0.05,-1.96,
0.814,4.74,-0.17,5.73,-4.31,-0.07,-1.95,
0.815,4.74,-0.17,5.73,-4.30,-0.11,-1.93,
0.818,4.74,-0.17,5.73,-4.30,-0.15,-1.91,
0.82,3.81,0.42,5.77,-4.30,-0.15,-1.91,
0.821,3.81,0.42,5.77,-4.29,-0.20,-1.89,
0.822,3.81,0.42,5.77,-4.28,-0.27,-1.84,
0.823,3.81,0.42,5.77,-4.27,-0.30,-1.83,
0.825,3.81,0.42,5.77,-4.26,-0.34,-1.80,
0.827,3.81,0.42,5.77,-4.24,-0.39,-1.77,
0.831,3.47,1.12,6.07,-4.24,-0.39,-1.77,
0.832,3.47,1.12,6.07,-4.22,-0.44,-1.74,
0.833,3.47,1.12,6.07,-4.19,-0.52,-1.69,
0.834,3.47,1.12,6.07,-4.18,-0.55,-1.67,
0.835,3.47,1.12,6.07,-4.16,-0.61,-1.64,
0.867,3.47,1.12,6.07,-4.13,-0.68,-1.60,
0.867,3.56,1.46,6.10,-4.13,-0.68,-1.60,
0.868,3.56,1.46,6.10,-4.11,-0.75,-1.57,
0.868,3.56,1.46,6.10,-4.07,-0.87,-1.52,
0.869,3.56,1.46,6.10,-4.06,-0.91,-1.50,
0.869,3.56,1.46,6.10,-4.04,-0.98,-1.47,
0.869,3.56,1.46,6.10,-4.00,-1.05,-1.45,
0.87,3.59,1.55,6.19,-4.00,-1.05,-1.45,
0.87,3.59,1.55,6.19,-3.97,-1.11,-1.42,
0.871,3.59,1.55,6.19,-3.91,-1.19,-1.38,
0.871,3.59,1.55,6.19,-3.89,-1.22,-1.37,
0.872,3.59,1.55,6.19,-3.84,-1.27,-1.34,
0.872,3.59,1.55,6.19,-3.79,-1.33,-1.32,
0.872,3.36,1.62,6.88,-3.79,-1.33,-1.32,
0.873,3.36,1.62,6.88,-3.73,-1.38,-1.30,
0.873,3.36,1.62,6.88,-3.64,-1.47,-1.26,
0.874,3.36,1.62,6.88,-3.61,-1.50,-1.25,
0.874,3.36,1.62,6.88,-3.55,-1.56,-1.24,
0.874,3.36,1.62,6.88,-3.48,-1.62,-1.23,
0.875,3.09,2.05,7.39,-3.48,-1.62,-1.23,
0.875,3.09,2.05,7.39,-3.42,-1.67,-1.22,
0.876,3.09,2.05,7.39,-3.32,-1.74,-1.21,
0.876,3.09,2.05,7.39,-3.29,-1.76,-1.21,
0.876,3.09,2.05,7.39,-3.23,-1.80,-1.22,
0.899,3.09,2.05,7.39,-3.18,-1.84,-1.23,
0.9,3.33,1.99,7.00,-3.18,-1.84,-1.23,
0.9,3.33,1.99,7.00,-3.13,-1.89,-1.24,
0.901,3.33,1.99,7.00,-3.07,-1.94,-1.26,
0.901,3.33,1.99,7.00,-3.06,-1.95,-1.27,
0.901,3.33,1.99,7.00,-3.01,-1.98,-1.29,
0.901,3.33,1.99,7.00,-3.00,-1.99,-1.30,
0.902,3.40,1.89,5.94,-3.00,-1.99,-1.30,
0.902,3.40,1.89,5.94,-2.98,-1.98,-1.31,
0.902,3.40,1.89,5.94,-2.95,-1.96,-1.33,
0.902,3.40,1.89,5.94,-2.95,-1.95,-1.34,
0.903,3.40,1.89,5.94,-2.94,-1.92,-1.35,
0.903,3.40,1.89,5.94,-2.93,-1.90,-1.36,
0.905,2.78,2.02,5.05,-2.93,-1.90,-1.36,
0.905,2.78,2.02,5.05,-2.92,-1.86,-1.36,
0.906,2.78,2.02,5.05,-2.91,-1.80,-1.37,
0.906,2.78,2.02,5.05,-2.91,-1.78,-1.37,
0.907,2.78,2.02,5.05,-2.90,-1.74,-1.37,
0.908,2.78,2.02,5.05,-2.89,-1.70,-1.37,
0.91,1.59,2.47,4.73,-2.89,-1.70,-1.37,
0.911,1.59,2.47,4.73,-2.89,-1.67,-1.37,
0.932,1.59,2.47,4.73,-2.87,-1.61,-1.36,
0.934,1.59,2.47,4.73,-2.87,-1.59,-1.36,
0.934,1.59,2.47,4.73,-2.85,-1.56,-1.36,
0.934,1.59,2.47,4.73,-2.84,-1.53,-1.35,
0.934,0.66,2.72,4.53,-2.84,-1.53,-1.35,
0.934,0.66,2.72,4.53,-2.82,-1.50,-1.35,
0.935,0.66,2.72,4.53,-2.79,-1.45,-1.34,
0.935,0.66,2.72,4.53,-2.78,-1.44,-1.33,
0.935,0.66,2.72,4.53,-2.76,-1.40,-1.33,
0.936,0.66,2.72,4.53,-2.72,-1.36,-1.32,
0.936,0.10,3.08,4.73,-2.72,-1.36,-1.32,
0.936,0.10,3.08,4.73,-2.69,-1.31,-1.32,
0.936,0.10,3.08,4.73,-2.63,-1.25,-1.31,
0.937,0.10,3.08,4.73,-2.61,-1.22,-1.31,
0.937,0.10,3.08,4.73,-2.56,-1.18,-1.31,
0.939,0.10,3.08,4.73,-2.51,-1.14,-1.31,
0.94,-0.27,3.39,4.70,-2.51,-1.14,-1.31,
0.94,-0.27,3.39,4.70,-2.46,-1.09,-1.31,
0.942,-0.27,3.39,4.70,-2.38,-1.03,-1.31,
0.944,-0.27,3.39,4.70,-2.35,-1.02,-1.30,
0.946,-0.27,3.39,4.70,-2.29,-0.99,-1.30,
0.947,-0.27,3.39,4.70,-2.23,-0.96,-1.30,
0.952,-0.64,3.65,4.60,-2.23,-0.96,-1.30,
0.952,-0.64,3.65,4.60,-2.18,-0.94,-1.30,
0.953,-0.64,3.65,4.60,-2.09,-0.90,-1.30,
0.954,-0.64,3.65,4.60,-2.05,-0.89,-1.30,
0.955,-0.64,3.65,4.60,-1.99,-0.87,-1.30,
0.957,-0.64,3.65,4.60,-1.92,-0.86,-1.30,
0.96,-1.06,3.50,4.55,-1.92,-0.86,-1.30,
0.96,-1.06,3.50,4.55,-1.84,-0.85,-1.30,
0.966,-1.06,3.50,4.55,-1.73,-0.85,-1.29,
0.967,-1.06,3.50,4.55,-1.69,-0.85,-1.29,
0.967,-1.06,3.50,4.55,-1.61,-0.87,-1.29,
0.97,-1.06,3.50,4.55,-1.52,-0.89,-1.29,
0.97,-1.39,3.66,5.21,-1.52,-0.89,-1.29,
0.971,-1.39,3.66,5.21,-1.44,-0.91,-1.30,
0.972,-1.39,3.66,5.21,-1.32,-0.93,-1.30,
0.974,-1.39,3.66,5.21,-1.29,-0.94,-1.30,
0.975,-1.39,3.66,5.21,-1.21,-0.95,-1.31,
0.977,-1.39,3.66,5.21,-1.14,-0.96,-1.32,
0.98,-1.30,3.66,4.80,-1.14,-0.96,-1.32,
0.981,-1.30,3.66,4.80,-1.06,-0.97,-1.33,
0.982,-1.30,3.66,4.80,-0.95,-0.97,-1.33,
0.984,-1.30,3.66,4.80,-0.92,-0.98,-1.33,
0.985,-1.30,3.66,4.80,-0.84,-0.97,-1.33,
0.987,-1.30,3.66,4.80,-0.77,-0.97,-1.33,
0.99,-1.67,3.77,4.67,-0.77,-0.97,-1.33,
0.99,-1.67,3.77,4.67,-0.69,-0.95,-1.32,
0.992,-1.67,3.77,4.67,-0.57,-0.93,-1.30,
0.994,-1.67,3.77,4.67,-0.53,-0.92,-1.30,
1.012,-1.67,3.77,4.67,-0.45,-0.90,-1.28,
1.013,-1.67,3.77,4.67,-0.36,-0.88,-1.26,
1.013,-2.49,3.74,4.61,-0.36,-0.88,-1.26,
1.014,-2.49,3.74,4.61,-0.04,-0.79,-1.13,
1.014,-2.49,3.74,4.61,-0.04,-0.79,-1.13,
1.032,-2.49,3.74,4.61,0.05,-0.80,-1.09,
1.032,-2.49,3.74,4.61,0.05,-0.80,-1.09,
1.033,-2.49,3.74,4.61,0.14,-0.81,-1.05,
1.033,-3.45,3.63,4.52,0.14,-0.81,-1.05,
1.033,-3.45,3.63,4.52,0.22,-0.82,-1.00,
1.033,-3.45,3.63,4.52,0.34,-0.81,-0.93,
1.033,-3.45,3.63,4.52,0.38,-0.81,-0.91,
1.034,-3.45,3.63,4.52,0.46,-0.80,-0.86,
1.034,-3.45,3.63,4.52,0.53,-0.79,-0.81,
1.034,-3.87,3.42,3.51,0.53,-0.79,-0.81,
1.034,-3.87,3.42,3.51,0.60,-0.79,-0.75,
1.034,-3.87,3.42,3.51,0.71,-0.78,-0.66,
1.035,-3.87,3.42,3.51,0.74,-0.78,-0.62,
1.035,-3.87,3.42,3.51,0.80,-0.79,-0.55,
1.035,-3.87,3.42,3.51,0.85,-0.79,-0.48,
1.035,-4.55,3.09,2.87,0.85,-0.79,-0.48,
1.036,-4.55,3.09,2.87,0.90,-0.81,-0.40,
1.037,-4.55,3.09,2.87,0.97,-0.82,-0.28,
1.037,-4.55,3.09,2.87,0.99,-0.82,-0.24,
1.037,-4.55,3.09,2.87,1.03,-0.82,-0.15,
1.043,-4.55,3.09,2.87,1.06,-0.83,-0.08,
1.043,-4.86,2.59,1.81,1.06,-0.83,-0.08,
1.044,-4.86,2.59,1.81,1.09,-0.83,0.00,
1.044,-4.86,2.59,1.81,1.13,-0.83,0.11,
1.05,-4.86,2.59,1.81,1.14,-0.83,0.14,
1.051,-4.86,2.59,1.81,1.16,-0.83,0.20,
1.051,-4.86,2.59,1.81,1.18,-0.84,0.26,
1.053,-4.72,2.25,1.04,1.18,-0.84,0.26,
1.053,-4.72,2.25,1.04,1.19,-0.85,0.31,
1.053,-4.72,2.25,1.04,1.20,-0.85,0.37,
1.054,-4.72,2.25,1.04,1.21,-0.85,0.41,
1.055,-4.72,2.25,1.04,1.21,-0.86,0.43,
1.057,-4.72,2.25,1.04,1.20,-0.87,0.45,
1.059,-4.13,1.82,0.12,1.20,-0.87,0.45,
1.06,-4.13,1.82,0.12,1.20,-0.89,0.47,
1.062,-4.13,1.82,0.12,1.21,-0.88,0.49,
1.064,-4.13,1.82,0.12,1.21,-0.88,0.49,
1.065,-4.13,1.82,0.12,1.20,-0.89,0.49,
1.068,-4.13,1.82,0.12,1.18,-0.91,0.48,
1.069,-3.19,1.39,-0.39,1.18,-0.91,0.48,
1.07,-3.19,1.39,-0.39,1.17,-0.91,0.47,
1.072,-3.19,1.39,-0.39,1.15,-0.89,0.45,
1.073,-3.19,1.39,-0.39,1.14,-0.89,0.44,
1.075,-3.19,1.39,-0.39,1.11,-0.88,0.43,
1.077,-3.19,1.39,-0.39,1.09,-0.87,0.40,
1.079,-3.01,0.84,-1.24,1.09,-0.87,0.40,
1.079,-3.01,0.84,-1.24,1.05,-0.85,0.38,
1.084,-3.01,0.84,-1.24,1.01,-0.82,0.34,
1.085,-3.01,0.84,-1.24,1.00,-0.80,0.33,
1.085,-3.01,0.84,-1.24,0.96,-0.77,0.30,
1.088,-3.01,0.84,-1.24,0.92,-0.72,0.28,
1.09,-3.36,-0.37,-2.16,0.92,-0.72,0.28,
1.09,-3.36,-0.37,-2.16,0.88,-0.66,0.25,
1.092,-3.36,-0.37,-2.16,0.81,-0.54,0.21,
1.094,-3.36,-0.37,-2.16,0.80,-0.49,0.20,
1.096,-3.36,-0.37,-2.16,0.77,-0.39,0.18,
1.099,-3.36,-0.37,-2.16,0.74,-0.28,0.16,
1.1,-4.03,-1.44,-2.22,0.74,-0.28,0.16,
1.101,-4.03,-1.44,-2.22,0.71,-0.19,0.14,
1.102,-4.03,-1.44,-2.22,0.65,-0.07,0.10,
1.104,-4.03,-1.44,-2.22,0.63,-0.03,0.09,
1.105,-4.03,-1.44,-2.22,0.60,0.06,0.06,
1.107,-4.03,-1.44,-2.22,0.57,0.15,0.03,
1.11,-4.35,-2.24,-2.35,0.57,0.15,0.03,
1.111,-4.35,-2.24,-2.35,0.55,0.24,-0.00,
1.113,-4.35,-2.24,-2.35,0.52,0.37,-0.06,
1.115,-4.35,-2.24,-2.35,0.52,0.41,-0.07,
1.116,-4.35,-2.24,-2.35,0.51,0.49,-0.11,
1.118,-4.35,-2.24,-2.35,0.50,0.57,-0.14,
1.12,-3.93,-2.45,-1.78,0.50,0.57,-0.14,
1.12,-3.93,-2.45,-1.78,0.51,0.66,-0.18,
1.122,-3.93,-2.45,-1.78,0.51,0.76,-0.24,
1.124,-3.93,-2.45,-1.78,0.50,0.78,-0.26,
1.126,-3.93,-2.45,-1.78,0.49,0.83,-0.30,
1.146,-3.93,-2.45,-1.78,0.49,0.89,-0.33,
1.146,-3.22,-2.68,-1.69,0.49,0.89,-0.33,
1.147,-3.22,-2.68,-1.69,0.50,0.94,-0.37,
1.147,-3.22,-2.68,-1.69,0.51,1.00,-0.40,
1.147,-3.22,-2.68,-1.69,0.51,1.01,-0.41,
1.147,-3.22,-2.68,-1.69,0.52,1.03,-0.43,
1.148,-3.22,-2.68,-1.69,0.52,1.03,-0.45,
1.148,-2.73,-3.12,-1.34,0.52,1.03,-0.45,
1.148,-2.73,-3.12,-1.34,0.52,0.98,-0.49,
1.149,-2.73,-3.12,-1.34,0.52,0.89,-0.56,
1.149,-2.73,-3.12,-1.34,0.53,0.86,-0.58,
1.149,-2.73,-3.12,-1.34,0.54,0.80,-0.61,
1.15,-2.73,-3.12,-1.34,0.54,0.75,-0.65,
1.153,-1.88,-3.43,-0.61,0.54,0.75,-0.65,
1.153,-1.88,-3.43,-0.61,0.55,0.71,-0.69,
1.153,-1.88,-3.43,-0.61,0.56,0.64,-0.74,
1.154,-1.88,-3.43,-0.61,0.56,0.62,-0.76,
1.158,-1.88,-3.43,-0.61,0.57,0.59,-0.80,
1.158,-1.88,-3.43,-0.61,0.57,0.55,-0.83,
1.162,-1.27,-2.39,-0.47,0.57,0.55,-0.83,
1.162,-1.27,-2.39,-0.47,0.57,0.54,-0.85,
1.178,-1.27,-2.39,-0.47,0.57,0.52,-0.89,
1.178,-1.27,-2.39,-0.47,0.57,0.51,-0.90,
1.179,-1.27,-2.39,-0.47,0.57,0.50,-0.91,
1.179,-1.27,-2.39,-0.47,0.57,0.49,-0.92,
1.179,-0.88,-1.08,-0.39,0.57,0.49,-0.92,
1.209,-0.88,-1.08,-0.39,0.57,0.48,-0.93,
1.21,-0.88,-1.08,-0.39,0.57,0.47,-0.93,
1.211,-0.88,-1.08,-0.39,0.57,0.46,-0.93,
1.212,-0.88,-1.08,-0.39,0.56,0.44,-0.92,
1.213,-0.88,-1.08,-0.39,0.55,0.40,-0.90,
1.214,-0.31,0.50,-0.11,0.55,0.40,-0.90,
1.215,-0.31,0.50,-0.11,0.53,0.36,-0.88,
1.215,-0.31,0.50,-0.11,0.50,0.29,-0.83,
1.215,-0.31,0.50,-0.11,0.48,0.23,-0.79,
1.216,-0.31,0.50,-0.11,0.47,0.20,-0.76,
1.216,-0.31,0.50,-0.11,0.45,0.14,-0.70,
1.217,-0.22,1.76,0.57,0.45,0.14,-0.70,
1.217,-0.22,1.76,0.57,0.44,0.09,-0.63,
1.218,-0.22,1.76,0.57,0.42,-0.00,-0.49,
1.218,-0.22,1.76,0.57,0.41,-0.03,-0.44,
1.218,-0.22,1.76,0.57,0.41,-0.09,-0.33,
1.219,-0.22,1.76,0.57,0.41,-0.15,-0.20,
1.219,-1.21,2.29,1.75,0.41,-0.15,-0.20,
1.22,-1.21,2.29,1.75,0.41,-0.22,-0.06,
1.22,-1.21,2.29,1.75,0.41,-0.36,0.26,
1.221,-1.21,2.29,1.75,0.41,-0.40,0.35,
1.221,-1.21,2.29,1.75,0.41,-0.44,0.44,
1.222,-1.21,2.29,1.75,0.41,-0.52,0.63,
1.222,-2.76,2.67,2.42,0.41,-0.52,0.63,
1.222,-2.76,2.67,2.42,0.42,-0.59,0.83,
1.223,-2.76,2.67,2.42,0.44,-0.72,1.25,
1.223,-2.76,2.67,2.42,0.44,-0.75,1.36,
1.224,-2.76,2.67,2.42,0.44,-0.77,1.47,
1.224,-2.76,2.67,2.42,0.45,-0.82,1.69,
1.224,-3.59,2.58,1.99,0.45,-0.82,1.69,
1.225,-3.59,2.58,1.99,0.45,-0.86,1.91,
1.225,-3.59,2.58,1.99,0.43,-0.88,2.24,
1.225,-3.59,2.58,1.99,0.42,-0.89,2.34,
1.226,-3.59,2.58,1.99,0.40,-0.90,2.53,
1.235,-3.59,2.58,1.99,0.36,-0.90,2.70,
1.236,-3.39,1.86,-0.17,0.36,-0.90,2.70,
1.236,-3.39,1.86,-0.17,0.31,-0.92,2.85,
1.236,-3.39,1.86,-0.17,0.24,-0.95,3.01,
1.237,-3.39,1.86,-0.17,0.21,-0.97,3.06,
1.237,-3.39,1.86,-0.17,0.15,-1.02,3.14,
1.24,-3.39,1.86,-0.17,0.13,-1.04,3.16,
1.24,-1.14,-0.73,-1.68,0.13,-1.04,3.16,
1.24,-1.14,-0.73,-1.68,0.10,-1.07,3.17,
1.243,-1.14,-0.73,-1.68,0.06,-1.08,3.16,
1.256,-1.14,-0.73,-1.68,0.04,-1.07,3.14,
1.257,-1.14,-0.73,-1.68,0.03,-1.04,3.10,
1.257,-1.14,-0.73,-1.68,0.02,-0.98,3.04,
1.258,0.53,-2.10,-2.23,0.02,-0.98,3.04,
1.258,0.53,-2.10,-2.23,0.01,-0.90,2.96,
1.258,0.53,-2.10,-2.23,0.02,-0.74,2.83,
1.258,0.53,-2.10,-2.23,0.03,-0.62,2.73,
1.259,0.53,-2.10,-2.23,0.03,-0.56,2.68,
1.259,0.53,-2.10,-2.23,0.04,-0.44,2.57,
1.27,1.57,-2.50,-2.88,0.04,-0.44,2.57,
1.271,1.57,-2.50,-2.88,0.05,-0.30,2.45,
1.271,1.57,-2.50,-2.88,0.07,-0.11,2.26,
1.271,1.57,-2.50,-2.88,0.08,-0.05,2.20,
1.272,1.57,-2.50,-2.88,0.09,0.07,2.07,
1.272,1.57,-2.50,-2.88,0.11,0.18,1.94,
1.272,2.24,-2.59,-3.12,0.11,0.18,1.94,
1.272,2.24,-2.59,-3.12,0.12,0.29,1.81,
1.273,2.24,-2.59,-3.12,0.14,0.43,1.62,
1.273,2.24,-2.59,-3.12,0.14,0.47,1.56,
1.309,2.24,-2.59,-3.12,0.16,0.55,1.44,
1.31,2.24,-2.59,-3.12,0.17,0.63,1.33,
1.31,2.48,-2.48,-2.79,0.17,0.63,1.33,
1.31,2.48,-2.48,-2.79,0.18,0.69,1.23,
1.31,2.48,-2.48,-2.79,0.20,0.80,1.09,
1.31,2.48,-2.48,-2.79,0.20,0.83,1.06,
1.311,2.48,-2.48,-2.79,0.21,0.90,0.98,
1.311,2.48,-2.48,-2.79,0.22,0.96,0.92,
1.311,2.09,-2.26,-2.68,0.22,0.96,0.92,
1.311,2.09,-2.26,-2.68,0.22,1.01,0.87,
1.311,2.09,-2.26,-2.68,0.21,1.08,0.81,
1.312,2.09,-2.26,-2.68,0.21,1.10,0.80,
1.312,2.09,-2.26,-2.68,0.21,1.14,0.78,
1.312,2.09,-2.26,-2.68,0.21,1.17,0.77,
1.312,1.21,-1.79,-2.23,0.21,1.17,0.77,
1.312,1.21,-1.79,-2.23,0.22,1.19,0.77,
1.313,1.21,-1.79,-2.23,0.24,1.21,0.77,
1.313,1.21,-1.79,-2.23,0.26,1.21,0.77,
1.313,1.21,-1.79,-2.23,0.29,1.20,0.78,
1.313,1.21,-1.79,-2.23,0.34,1.17,0.78,
1.313,0.83,-1.12,-0.15,0.34,1.17,0.78,
1.313,0.83,-1.12,-0.15,0.39,1.12,0.79,
1.314,0.83,-1.12,-0.15,0.47,1.03,0.79,
1.314,0.83,-1.12,-0.15,0.50,1.00,0.79,
1.316,0.83,-1.12,-0.15,0.57,0.94,0.79,
1.32,0.83,-1.12,-0.15,0.64,0.88,0.80,
1.32,1.23,-0.66,1.44,0.64,0.88,0.80,
1.32,1.23,-0.66,1.44,0.71,0.82,0.80,
1.323,1.23,-0.66,1.44,0.81,0.74,0.82,
1.324,1.23,-0.66,1.44,0.85,0.71,0.83,
1.327,1.23,-0.66,1.44,0.92,0.66,0.84,
1.327,1.23,-0.66,1.44,0.99,0.61,0.86,
1.33,1.11,-0.03,1.61,0.99,0.61,0.86,
1.331,1.11,-0.03,1.61,1.06,0.57,0.88,
1.333,1.11,-0.03,1.61,1.15,0.51,0.92,
1.333,1.11,-0.03,1.61,1.20,0.48,0.95,
1.335,1.11,-0.03,1.61,1.23,0.46,0.97,
1.353,1.11,-0.03,1.61,1.28,0.44,1.00,
1.353,0.58,0.51,1.23,1.28,0.44,1.00,
1.353,0.58,0.51,1.23,1.32,0.42,1.05,
1.353,0.58,0.51,1.23,1.38,0.38,1.11,
1.353,0.58,0.51,1.23,1.40,0.36,1.13,
1.354,0.58,0.51,1.23,1.44,0.33,1.18,
1.354,0.58,0.51,1.23,1.48,0.30,1.23,
1.354,-0.05,0.79,1.51,1.48,0.30,1.23,
1.354,-0.05,0.79,1.51,1.51,0.26,1.28,
1.354,-0.05,0.79,1.51,1.56,0.19,1.36,
1.355,-0.05,0.79,1.51,1.58,0.17,1.39,
1.361,-0.05,0.79,1.51,1.61,0.12,1.44,
1.362,-0.05,0.79,1.51,1.63,0.06,1.49,
1.362,-0.28,1.09,1.68,1.63,0.06,1.49,
1.362,-0.28,1.09,1.68,1.65,-0.00,1.54,
1.365,-0.28,1.09,1.68,1.67,-0.12,1.61,
1.365,-0.28,1.09,1.68,1.67,-0.16,1.64,
1.366,-0.28,1.09,1.68,1.67,-0.24,1.68,
1.37,-0.28,1.09,1.68,1.66,-0.33,1.72,
1.37,0.28,1.12,1.35,1.66,-0.33,1.72,
1.37,0.28,1.12,1.35,1.65,-0.41,1.77,
1.374,0.28,1.12,1.35,1.62,-0.53,1.83,
1.375,0.28,1.12,1.35,1.61,-0.57,1.85,
1.375,0.28,1.12,1.35,1.59,-0.65,1.88,
1.379,0.28,1.12,1.35,1.58,-0.72,1.92,
1.383,0.99,0.49,1.38,1.58,-0.72,1.92,
1.383,0.99,0.49,1.38,1.56,-0.80,1.95,
1.384,0.99,0.49,1.38,1.54,-0.92,1.98,
1.384,0.99,0.49,1.38,1.54,-0.96,1.99,
1.387,0.99,0.49,1.38,1.52,-1.05,2.01,
1.388,0.99,0.49,1.38,1.50,-1.14,2.02,
1.391,1.93,-0.47,1.61,1.50,-1.14,2.02,
1.392,1.93,-0.47,1.61,1.47,-1.25,2.03,
1.392,1.93,-0.47,1.61,1.42,-1.41,2.04,
1.394,1.93,-0.47,1.61,1.38,-1.51,2.04,
1.399,1.93,-0.47,1.61,1.36,-1.57,2.04,
1.399,1.93,-0.47,1.61,1.31,-1.67,2.04,
1.4,2.89,-1.00,0.94,1.31,-1.67,2.04,
1.4,2.89,-1.00,0.94,1.26,-1.78,2.03,
1.403,2.89,-1.00,0.94,1.18,-1.94,2.02,
1.404,2.89,-1.00,0.94,1.15,-2.00,2.02,
1.407,2.89,-1.00,0.94,1.09,-2.13,2.01,
1.408,2.89,-1.00,0.94,1.02,-2.26,2.00,
1.411,3.24,-1.79,0.55,1.02,-2.26,2.00,
1.412,3.24,-1.79,0.55,0.95,-2.39,2.00,
1.422,3.24,-1.79,0.55,0.84,-2.58,1.99,
1.423,3.24,-1.79,0.55,0.75,-2.72,1.99,
1.423,3.24,-1.79,0.55,0.71,-2.78,1.99,
1.423,3.24,-1.79,0.55,0.61,-2.90,1.99,
1.423,2.93,-2.87,-0.06,0.61,-2.90,1.99,
1.424,2.93,-2.87,-0.06,0.52,-3.01,1.99,
1.424,2.93,-2.87,-0.06,0.36,-3.15,2.00,
1.424,2.93,-2.87,-0.06,0.26,-3.25,2.00,
1.428,2.93,-2.87,-0.06,0.21,-3.29,2.00,
1.428,2.93,-2.87,-0.06,0.10,-3.38,2.00,
1.461,1.64,-3.39,-1.12,0.10,-3.38,2.00,
1.461,1.64,-3.39,-1.12,0.00,-3.45,1.99,
1.461,1.64,-3.39,-1.12,-0.14,-3.53,1.97,
1.462,1.64,-3.39,-1.12,-0.23,-3.55,1.96,
1.462,1.64,-3.39,-1.12,-0.28,-3.55,1.95,
1.462,1.64,-3.39,-1.12,-0.36,-3.53,1.93,
1.462,0.15,-3.23,-1.77,-0.36,-3.53,1.93,
1.462,0.15,-3.23,-1.77,-0.44,-3.48,1.90,
1.463,0.15,-3.23,-1.77,-0.56,-3.34,1.86,
1.463,0.15,-3.23,-1.77,-0.63,-3.22,1.82,
1.463,0.15,-3.23,-1.77,-0.66,-3.15,1.80,
1.463,0.15,-3.23,-1.77,-0.73,-2.99,1.77,
1.463,-1.27,-2.54,-2.82,-0.73,-2.99,1.77,
1.464,-1.27,-2.54,-2.82,-0.79,-2.81,1.72,
1.464,-1.27,-2.54,-2.82,-0.87,-2.53,1.65,
1.464,-1.27,-2.54,-2.82,-0.92,-2.32,1.60,
1.464,-1.27,-2.54,-2.82,-0.94,-2.21,1.57,
1.464,-1.27,-2.54,-2.82,-0.98,-2.01,1.50,
1.465,-1.79,-1.60,-3.15,-0.98,-2.01,1.50,
1.465,-1.79,-1.60,-3.15,-1.01,-1.83,1.42,
1.465,-1.79,-1.60,-3.15,-1.04,-1.60,1.28,
1.465,-1.79,-1.60,-3.15,-1.05,-1.47,1.18,
1.466,-1.79,-1.60,-3.15,-1.06,-1.41,1.12,
1.468,-1.79,-1.60,-3.15,-1.07,-1.31,1.02,
1.472,-0.70,-0.95,-2.18,-1.07,-1.31,1.02,
1.472,-0.70,-0.95,-2.18,-1.07,-1.21,0.91,
1.472,-0.70,-0.95,-2.18,-1.07,-1.11,0.74,
1.476,-0.70,-0.95,-2.18,-1.06,-1.05,0.63,
1.476,-0.70,-0.95,-2.18,-1.05,-1.01,0.58,
1.478,-0.70,-0.95,-2.18,-1.04,-0.95,0.47,
1.48,0.22,-0.76,-1.10,-1.04,-0.95,0.47,
1.481,0.22,-0.76,-1.10,-1.03,-0.90,0.36,
1.482,0.22,-0.76,-1.10,-1.00,-0.83,0.21,
1.483,0.22,-0.76,-1.10,-0.97,-0.80,0.10,
1.486,0.22,-0.76,-1.10,-0.96,-0.79,0.06,
1.487,0.22,-0.76,-1.10,-0.93,-0.77,-0.04,
1.489,0.83,-1.05,-0.25,-0.93,-0.77,-0.04,
1.49,0.83,-1.05,-0.25,-0.90,-0.77,-0.13,
1.492,0.83,-1.05,-0.25,-0.84,-0.77,-0.25,
1.494,0.83,-1.05,-0.25,-0.80,-0.80,-0.33,
1.495,0.83,-1.05,-0.25,-0.78,-0.81,-0.36,
1.497,0.83,-1.05,-0.25,-0.74,-0.84,-0.42,
1.499,1.21,-0.38,1.04,-0.74,-0.84,-0.42,
1.5,1.21,-0.38,1.04,-0.71,-0.90,-0.47,
1.503,1.21,-0.38,1.04,-0.66,-0.98,-0.52,
1.523,1.21,-0.38,1.04,-0.64,-1.03,-0.55,
1.524,1.21,-0.38,1.04,-0.63,-1.05,-0.56,
1.524,1.21,-0.38,1.04,-0.61,-1.11,-0.57,
1.524,0.84,1.01,1.26,-0.61,-1.11,-0.57,
1.525,0.84,1.01,1.26,-0.61,-1.11,-0.57,
1.525,0.84,1.01,1.26,-0.66,-0.84,-0.54,
1.525,0.84,1.01,1.26,-0.68,-0.89,-0.50,
1.525,0.84,1.01,1.26,-0.69,-1.03,-0.48,
1.526,0.84,1.01,1.26,-0.69,-1.33,-0.41,
1.526,-1.92,1.91,1.14,-0.69,-1.33,-0.41,
1.526,-1.92,1.91,1.14,-0.69,-1.53,-0.34,
1.526,-1.92,1.91,1.14,-0.68,-1.64,-0.20,
1.527,-1.92,1.91,1.14,-0.65,-1.64,-0.07,
1.527,-1.92,1.91,1.14,-0.64,-1.64,0.00,
1.527,-1.92,1.91,1.14,-0.61,-1.64,0.16,
1.532,-5.80,1.65,2.54,-0.61,-1.64,0.16,
1.533,-5.80,1.65,2.54,-0.60,-1.63,0.32,
1.533,-5.80,1.65,2.54,-0.58,-1.63,0.57,
1.533,-5.80,1.65,2.54,-0.58,-1.63,0.75,
1.537,-5.80,1.65,2.54,-0.58,-1.63,0.83,
1.538,-5.80,1.65,2.54,-0.59,-1.62,1.01,
1.542,-6.94,1.93,1.00,-0.59,-1.62,1.01,
1.542,-6.94,1.93,1.00,-0.61,-1.59,1.19,
1.542,-6.94,1.93,1.00,-0.64,-1.51,1.46,
1.548,-6.94,1.93,1.00,-0.67,-1.44,1.63,
1.549,-6.94,1.93,1.00,-0.68,-1.39,1.72,
1.549,-6.94,1.93,1.00,-0.71,-1.30,1.88,
1.55,-6.61,1.96,-0.72,-0.71,-1.30,1.88,
1.55,-6.61,1.96,-0.72,-0.73,-1.22,2.04,
1.554,-6.61,1.96,-0.72,-0.77,-1.17,2.26,
1.554,-6.61,1.96,-0.72,-0.80,-1.17,2.40,
1.557,-6.61,1.96,-0.72,-0.81,-1.17,2.46,
1.558,-6.61,1.96,-0.72,-0.83,-1.20,2.59,
1.562,-4.90,1.87,-0.89,-0.83,-1.20,2.59,
1.562,-4.90,1.87,-0.89,-0.86,-1.24,2.69,
1.574,-4.90,1.87,-0.89,-0.89,-1.32,2.82,
1.575,-4.90,1.87,-0.89,-0.92,-1.34,2.89,
1.575,-4.90,1.87,-0.89,-0.93,-1.34,2.92,
1.575,-4.90,1.87,-0.89,-0.97,-1.31,2.96,
1.575,-2.29,1.20,-1.29,-0.97,-1.31,2.96,
1.575,-2.29,1.20,-1.29,-1.00,-1.25,2.99,
1.575,-2.29,1.20,-1.29,-1.06,-1.11,3.02,
1.576,-2.29,1.20,-1.29,-1.10,-0.98,3.02,
1.608,-2.29,1.20,-1.29,-1.12,-0.91,3.02,
1.609,-2.29,1.20,-1.29,-1.16,-0.75,3.01,
1.609,-1.49,0.93,-2.66,-1.16,-0.75,3.01,
1.609,-1.49,0.93,-2.66,-1.21,-0.58,2.99,
1.61,-1.49,0.93,-2.66,-1.29,-0.28,2.95,
1.61,-1.49,0.93,-2.66,-1.35,-0.07,2.92,
1.61,-1.49,0.93,-2.66,-1.40,0.13,2.87,
1.61,-1.49,0.93,-2.66,-1.47,0.33,2.83,
1.61,-1.41,0.88,-4.49,-1.47,0.33,2.83,
1.611,-1.41,0.88,-4.49,-1.50,0.43,2.81,
1.611,-1.41,0.88,-4.49,-1.59,0.72,2.74,
1.611,-1.41,0.88,-4.49,-1.65,0.90,2.69,
1.611,-1.41,0.88,-4.49,-1.68,0.98,2.67,
1.611,-1.41,0.88,-4.49,-1.74,1.15,2.63,
1.611,-1.24,1.06,-5.01,-1.74,1.15,2.63,
1.612,-1.24,1.06,-5.01,-1.79,1.31,2.59,
1.612,-1.24,1.06,-5.01,-1.86,1.56,2.53,
1.612,-1.24,1.06,-5.01,-1.88,1.64,2.51,
1.612,-1.24,1.06,-5.01,-1.93,1.82,2.48,
1.612,-1.24,1.06,-5.01,-1.97,1.99,2.44,
1.613,-1.55,1.40,-4.95,-1.97,1.99,2.44,
1.613,-1.55,1.40,-4.95,-2.01,2.16,2.41,
1.613,-1.55,1.40,-4.95,-2.08,2.42,2.35,
1.614,-1.55,1.40,-4.95,-2.09,2.47,2.33,
1.615,-1.55,1.40,-4.95,-2.09,2.51,2.31,
1.617,-1.55,1.40,-4.95,-2.10,2.58,2.27,
1.621,-0.91,1.84,-4.34,-2.10,2.58,2.27,
1.622,-0.91,1.84,-4.34,-2.09,2.64,2.23,
1.622,-0.91,1.84,-4.34,-2.06,2.74,2.17,
1.624,-0.91,1.84,-4.34,-2.02,2.79,2.13,
1.626,-0.91,1.84,-4.34,-1.97,2.85,2.08,
1.627,-0.91,1.84,-4.34,-1.90,2.91,2.04,
1.631,-0.15,2.38,-2.81,-1.90,2.91,2.04,
1.632,-0.15,2.38,-2.81,-1.82,2.96,2.00,
1.634,-0.15,2.38,-2.81,-1.68,3.01,1.95,
1.635,-0.15,2.38,-2.81,-1.63,3.01,1.93,
1.637,-0.15,2.38,-2.81,-1.49,3.00,1.91,
1.637,-0.15,2.38,-2.81,-1.32,2.98,1.89,
1.641,0.17,2.50,0.97,-1.32,2.98,1.89,
1.641,0.17,2.50,0.97,-1.09,2.92,1.88,
1.643,0.17,2.50,0.97,-0.81,2.84,1.86,
1.644,0.17,2.50,0.97,-0.49,2.73,1.83,
1.647,0.17,2.50,0.97,-0.14,2.60,1.79,
1.648,0.17,2.50,0.97,0.23,2.47,1.75,
1.65,0.96,1.31,9.13,0.23,2.47,1.75,
1.65,0.96,1.31,9.13,0.61,2.33,1.71,
1.652,0.96,1.31,9.13,0.98,2.19,1.67,
1.653,0.96,1.31,9.13,1.31,2.03,1.63,
1.655,0.96,1.31,9.13,1.59,1.86,1.60,
1.657,0.96,1.31,9.13,1.83,1.69,1.57,
1.66,0.51,0.82,8.72,1.83,1.69,1.57,
1.66,0.51,0.82,8.72,2.03,1.51,1.56,
1.662,0.51,0.82,8.72,2.19,1.34,1.55,
1.663,0.51,0.82,8.72,2.31,1.18,1.54,
1.665,0.51,0.82,8.72,2.40,1.03,1.53,
1.667,0.51,0.82,8.72,2.45,0.91,1.54,
1.669,-0.20,1.40,2.90,2.45,0.91,1.54,
1.69,-0.20,1.40,2.90,2.50,0.81,1.54,
1.69,-0.20,1.40,2.90,2.52,0.71,1.55,
1.69,-0.20,1.40,2.90,2.52,0.68,1.56,
1.69,-0.20,1.40,2.90,2.52,0.64,1.57,
1.69,-0.20,1.40,2.90,2.50,0.63,1.59,
1.69,-0.89,1.85,-0.68,2.50,0.63,1.59,
1.691,-0.89,1.85,-0.68,2.47,0.64,1.61,
1.691,-0.89,1.85,-0.68,2.44,0.67,1.63,
1.691,-0.89,1.85,-0.68,2.41,0.74,1.65,
1.691,-0.89,1.85,-0.68,2.38,0.81,1.67,
1.691,-0.89,1.85,-0.68,2.35,0.89,1.69,
1.691,-1.61,2.61,-1.88,2.35,0.89,1.69,
1.691,-1.61,2.61,-1.88,2.32,0.97,1.70,
1.698,-1.61,2.61,-1.88,2.29,1.09,1.72,
1.698,-1.61,2.61,-1.88,2.28,1.14,1.73,
1.698,-1.61,2.61,-1.88,2.26,1.24,1.74,
1.698,-1.61,2.61,-1.88,2.25,1.35,1.76,
1.699,-2.06,3.78,-1.52,2.25,1.35,1.76,
1.7,-2.06,3.78,-1.52,2.25,1.47,1.77,
1.702,-2.06,3.78,-1.52,2.24,1.61,1.79,
1.703,-2.06,3.78,-1.52,2.24,1.76,1.82,
1.705,-2.06,3.78,-1.52,2.23,1.90,1.85,
1.708,-2.06,3.78,-1.52,2.20,2.00,1.87,
1.724,-2.28,4.53,-0.93,2.20,2.00,1.87,
1.724,-2.28,4.53,-0.93,2.16,2.07,1.89,
1.725,-2.28,4.53,-0.93,2.03,2.10,1.90,
1.725,-2.28,4.53,-0.93,1.97,2.08,1.90,
1.725,-2.28,4.53,-0.93,1.81,1.97,1.88,
1.726,-2.28,4.53,-0.93,1.61,1.77,1.84,
1.726,-1.57,4.06,-1.00,1.61,1.77,1.84,
1.726,-1.57,4.06,-1.00,1.35,1.47,1.78,
1.727,-1.57,4.06,-1.00,1.05,1.09,1.70,
1.727,-1.57,4.06,-1.00,0.71,0.64,1.61,
1.727,-1.57,4.06,-1.00,0.34,0.16,1.50,
1.73,-1.57,4.06,-1.00,-0.02,-0.31,1.39,
1.73,-0.11,2.71,-0.55,-0.02,-0.31,1.39,
1.73,-0.11,2.71,-0.55,-0.34,-0.69,1.29,
1.733,-0.11,2.71,-0.55,-0.60,-0.95,1.21,
1.734,-0.11,2.71,-0.55,-0.80,-1.07,1.16,
1.735,-0.11,2.71,-0.55,-0.94,-1.08,1.12,
1.737,-0.11,2.71,-0.55,-1.01,-0.94,1.09,
1.74,-1.28,3.31,2.14,-1.01,-0.94,1.09,
1.74,-1.28,3.31,2.14,-1.01,-0.65,1.06,
1.743,-1.28,3.31,2.14,-0.94,-0.20,1.02,
1.747,-1.28,3.31,2.14,-0.82,0.37,0.96,
1.748,-1.28,3.31,2.14,-0.68,0.99,0.91,
1.748,-1.28,3.31,2.14,-0.54,1.59,0.88,
1.749,-2.52,4.18,3.03,-0.54,1.59,0.88,
1.75,-2.52,4.18,3.03,-0.39,2.17,0.88,
1.753,-2.52,4.18,3.03,-0.27,2.67,0.90,
1.753,-2.52,4.18,3.03,-0.17,3.11,0.93,
1.756,-2.52,4.18,3.03,-0.10,3.49,0.98,
1.758,-2.52,4.18,3.03,-0.04,3.80,1.03,
1.762,-3.38,5.11,0.93,-0.04,3.80,1.03,
1.764,-3.38,5.11,0.93,0.00,4.03,1.09,
1.765,-3.38,5.11,0.93,0.04,4.22,1.20,
1.765,-3.38,5.11,0.93,0.05,4.25,1.24,
1.766,-3.38,5.11,0.93,0.06,4.22,1.32,
1.768,-3.38,5.11,0.93,0.06,4.13,1.42,
1.77,-3.00,4.94,-1.04,0.06,4.13,1.42,
1.77,-3.00,4.94,-1.04,0.06,3.97,1.51,
1.772,-3.00,4.94,-1.04,0.05,3.76,1.61,
1.773,-3.00,4.94,-1.04,0.05,3.50,1.71,
1.776,-3.00,4.94,-1.04,0.04,3.21,1.81,
1.778,-3.00,4.94,-1.04,0.04,2.90,1.90,
1.78,-2.25,4.14,-1.03,0.04,2.90,1.90,
1.78,-2.25,4.14,-1.03,0.04,2.58,1.98,
1.782,-2.25,4.14,-1.03,0.03,2.27,2.06,
1.783,-2.25,4.14,-1.03,0.02,1.97,2.13,
1.785,-2.25,4.14,-1.03,0.01,1.69,2.18,
1.787,-2.25,4.14,-1.03,-0.01,1.42,2.23,
1.789,-1.74,3.60,-0.20,-0.01,1.42,2.23,
1.79,-1.74,3.60,-0.20,-0.04,1.16,2.27,
1.792,-1.74,3.60,-0.20,-0.06,0.93,2.31,
1.793,-1.74,3.60,-0.20,-0.11,0.71,2.34,
1.797,-1.74,3.60,-0.20,-0.16,0.51,2.37,
1.798,-1.74,3.60,-0.20,-0.22,0.33,2.40,
1.8,-1.49,3.24,-0.46,-0.22,0.33,2.40,
1.8,-1.49,3.24,-0.46,-0.29,0.17,2.43,
1.802,-1.49,3.24,-0.46,-0.38,0.02,2.44,
1.803,-1.49,3.24,-0.46,-0.44,-0.11,2.47,
1.805,-1.49,3.24,-0.46,-0.54,-0.22,2.49,
1.808,-1.49,3.24,-0.46,-0.63,-0.31,2.51,
1.83,-1.56,2.92,-1.19,-0.63,-0.31,2.51,
1.831,-1.56,2.92,-1.19,-0.71,-0.39,2.54,
1.832,-1.56,2.92,-1.19,-0.83,-0.49,2.57,
1.832,-1.56,2.92,-1.19,-0.87,-0.51,2.58,
1.832,-1.56,2.92,-1.19,-0.95,-0.56,2.59,
1.833,-1.56,2.92,-1.19,-1.01,-0.60,2.61,
1.833,-1.69,2.71,-1.01,-1.01,-0.60,2.61,
1.833,-1.69,2.71,-1.01,-1.07,-0.65,2.63,
1.834,-1.69,2.71,-1.01,-1.11,-0.68,2.64,
1.834,-1.69,2.71,-1.01,-1.14,-0.71,2.66,
1.834,-1.69,2.71,-1.01,-1.16,-0.73,2.68,
1.834,-1.69,2.71,-1.01,-1.17,-0.74,2.70,
1.835,-1.98,2.65,0.09,-1.17,-0.74,2.70,
1.835,-1.98,2.65,0.09,-1.17,-0.74,2.73,
1.835,-1.98,2.65,0.09,-1.16,-0.73,2.76,
1.836,-1.98,2.65,0.09,-1.13,-0.72,2.79,
1.885,-1.98,2.65,0.09,-1.08,-0.69,2.84,
1.915,-1.98,2.65,0.09,-1.04,-0.64,2.89,
1.916,-2.33,2.62,1.21,-1.04,-0.64,2.89,
1.916,-2.33,2.62,1.21,-1.00,-0.59,2.94,
1.917,-2.33,2.62,1.21,-0.92,-0.51,3.02,
1.918,-2.33,2.62,1.21,-0.90,-0.48,3.04,
1.918,-2.33,2.62,1.21,-0.85,-0.41,3.10,
1.919,-2.33,2.62,1.21,-0.80,-0.35,3.15,
1.919,-2.53,2.77,1.09,-0.80,-0.35,3.15,
1.919,-2.53,2.77,1.09,-0.75,-0.26,3.20,
1.919,-2.53,2.77,1.09,-0.68,-0.11,3.29,
1.92,-2.53,2.77,1.09,-0.66,-0.06,3.31,
1.92,-2.53,2.77,1.09,-0.62,0.07,3.36,
1.92,-2.53,2.77,1.09,-0.60,0.21,3.40,
1.92,-2.06,2.84,0.32,-0.60,0.21,3.40,
1.921,-2.06,2.84,0.32,-0.59,0.42,3.43,
1.921,-2.06,2.84,0.32,-0.62,0.80,3.44,
1.921,-2.06,2.84,0.32,-0.64,0.94,3.44,
1.922,-2.06,2.84,0.32,-0.69,1.26,3.44,
1.922,-2.06,2.84,0.32,-0.75,1.59,3.44,
1.922,0.95,-2.09,-1.34,-0.75,1.59,3.44,
1.922,0.95,-2.09,-1.34,-0.81,1.91,3.45,
1.923,0.95,-2.09,-1.34,-0.93,2.38,3.48,
1.923,0.95,-2.09,-1.34,-0.96,2.53,3.50,
1.923,0.95,-2.09,-1.34,-1.04,2.84,3.56,
1.924,0.95,-2.09,-1.34,-1.10,3.16,3.65,
1.924,1.27,-9.47,-1.80,-1.10,3.16,3.65,
1.924,1.27,-9.47,-1.80,-1.14,3.48,3.77,
1.925,1.27,-9.47,-1.80,-1.20,3.94,4.01,
1.925,1.27,-9.47,-1.80,-1.21,4.09,4.10,
1.925,1.27,-9.47,-1.80,-1.21,4.35,4.32,
1.925,1.27,-9.47,-1.80,-1.19,4.58,4.58,
1.926,-2.31,-16.67,-0.06,-1.19,4.58,4.58,
1.926,-2.31,-16.67,-0.06,-1.15,4.76,4.86,
1.926,-2.31,-16.67,-0.06,-1.07,4.89,5.33,
1.927,-2.31,-16.67,-0.06,-1.03,4.88,5.50,
1.927,-2.31,-16.67,-0.06,-0.97,4.81,5.83,
1.927,-2.31,-16.67,-0.06,-0.91,4.65,6.18,
1.928,-5.75,-25.29,2.20,-0.91,4.65,6.18,
1.928,-5.75,-25.29,2.20,-0.84,4.45,6.52,
1.928,-5.75,-25.29,2.20,-0.72,4.07,7.01,
1.929,-5.75,-25.29,2.20,-0.68,3.93,7.16,
1.929,-5.75,-25.29,2.20,-0.58,3.63,7.43,
1.929,-5.75,-25.29,2.20,-0.47,3.31,7.63,
1.93,-4.38,-30.37,3.89,-0.47,3.31,7.63,
1.93,-4.38,-30.37,3.89,-0.34,2.99,7.77,
1.93,-4.38,-30.37,3.89,-0.14,2.50,7.84,
1.931,-4.38,-30.37,3.89,-0.07,2.35,7.83,
1.931,-4.38,-30.37,3.89,0.08,2.05,7.76,
1.931,-4.38,-30.37,3.89,0.24,1.74,7.62,
1.932,3.98,-27.02,4.74,0.24,1.74,7.62,
1.932,3.98,-27.02,4.74,0.42,1.43,7.42,
1.932,3.98,-27.02,4.74,0.70,1.00,7.03,
1.933,3.98,-27.02,4.74,0.80,0.87,6.88,
1.933,3.98,-27.02,4.74,1.00,0.66,6.55,
1.933,3.98,-27.02,4.74,1.20,0.49,6.20,
1.933,10.42,-18.71,4.02,1.20,0.49,6.20,
1.934,10.42,-18.71,4.02,1.39,0.37,5.82,
1.934,10.42,-18.71,4.02,1.68,0.27,5.24,
1.935,10.42,-18.71,4.02,1.76,0.25,5.04,
1.946,10.42,-18.71,4.02,2.01,0.26,4.45,
1.947,10.42,-18.71,4.02,2.08,0.28,4.26,
1.947,11.62,-9.86,0.91,2.08,0.28,4.26,
1.948,11.62,-9.86,0.91,2.21,0.32,3.89,
1.948,11.62,-9.86,0.91,2.38,0.42,3.37,
1.948,11.62,-9.86,0.91,2.43,0.45,3.19,
1.948,11.62,-9.86,0.91,2.52,0.53,2.86,
1.948,11.62,-9.86,0.91,2.60,0.62,2.55,
1.95,10.33,-3.36,-1.82,2.60,0.62,2.55,
1.95,10.33,-3.36,-1.82,2.67,0.70,2.25,
1.953,10.33,-3.36,-1.82,2.76,0.83,1.83,
1.954,10.33,-3.36,-1.82,2.79,0.87,1.70,
1.955,10.33,-3.36,-1.82,2.85,0.95,1.45,
1.959,10.33,-3.36,-1.82,2.89,1.02,1.22,
1.959,7.95,0.88,-2.72,2.89,1.02,1.22,
1.96,7.95,0.88,-2.72,2.93,1.08,1.01,
1.963,7.95,0.88,-2.72,2.99,1.18,0.71,
1.963,7.95,0.88,-2.72,3.01,1.21,0.62,
1.965,7.95,0.88,-2.72,3.04,1.28,0.45,
1.967,7.95,0.88,-2.72,3.07,1.36,0.29,
1.97,5.66,3.12,-2.49,3.07,1.36,0.29,
1.97,5.66,3.12,-2.49,3.09,1.45,0.14,
1.972,5.66,3.12,-2.49,3.10,1.58,-0.05,
1.973,5.66,3.12,-2.49,3.10,1.62,-0.11,
1.986,5.66,3.12,-2.49,3.09,1.72,-0.21,
1.986,5.66,3.12,-2.49,3.08,1.82,-0.30,
1.986,2.99,4.09,-2.31,3.08,1.82,-0.30,
1.987,2.99,4.09,-2.31,3.05,1.93,-0.38,
1.987,2.99,4.09,-2.31,2.99,2.10,-0.48,
1.987,2.99,4.09,-2.31,2.97,2.16,-0.50,
1.988,2.99,4.09,-2.31,2.92,2.29,-0.54,
1.989,2.99,4.09,-2.31,2.85,2.41,-0.58,
1.99,0.39,3.82,-2.57,2.85,2.41,-0.58,
1.99,0.39,3.82,-2.57,2.78,2.54,-0.60,
2.025,0.39,3.82,-2.57,2.66,2.71,-0.62,
2.025,0.39,3.82,-2.57,2.61,2.77,-0.63,
2.025,0.39,3.82,-2.57,2.51,2.87,-0.63,
2.026,0.39,3.82,-2.57,2.41,2.96,-0.62,
2.026,-1.34,3.03,-3.03,2.41,2.96,-0.62,
2.026,-1.34,3.03,-3.03,2.09,3.11,-0.57,
2.026,-1.34,3.03,-3.03,2.09,3.11,-0.57,
2.042,-1.34,3.03,-3.03,1.98,3.12,-0.53,
2.042,-1.34,3.03,-3.03,1.98,3.12,-0.53,
2.042,-1.34,3.03,-3.03,1.88,3.11,-0.49,
2.042,-2.73,2.52,-3.20,1.88,3.11,-0.49,
2.042,-2.73,2.52,-3.20,1.77,3.09,-0.45,
2.043,-2.73,2.52,-3.20,1.63,3.02,-0.37,
2.043,-2.73,2.52,-3.20,1.58,2.99,-0.35,
2.043,-2.73,2.52,-3.20,1.49,2.91,-0.29,
2.043,-2.73,2.52,-3.20,1.42,2.81,-0.25,
2.043,-3.28,2.18,-2.14,1.42,2.81,-0.25,
2.043,-3.28,2.18,-2.14,1.34,2.70,-0.20,
2.043,-3.28,2.18,-2.14,1.25,2.50,-0.14,
2.044,-3.28,2.18,-2.14,1.22,2.42,-0.13,
2.044,-3.28,2.18,-2.14,1.17,2.25,-0.11,
2.044,-3.28,2.18,-2.14,1.13,2.08,-0.09,
2.044,-2.40,1.89,-0.48,1.13,2.08,-0.09,
2.044,-2.40,1.89,-0.48,1.08,1.90,-0.09,
2.044,-2.40,1.89,-0.48,1.03,1.60,-0.10,
2.044,-2.40,1.89,-0.48,1.01,1.51,-0.11,
2.045,-2.40,1.89,-0.48,0.97,1.31,-0.14,
2.045,-2.40,1.89,-0.48,0.94,1.12,-0.17,
2.045,-0.84,1.55,0.37,0.94,1.12,-0.17,
2.045,-0.84,1.55,0.37,0.91,0.94,-0.21,
2.045,-0.84,1.55,0.37,0.85,0.70,-0.27,
2.045,-0.84,1.55,0.37,0.83,0.62,-0.29,
2.046,-0.84,1.55,0.37,0.80,0.48,-0.34,
2.048,-0.84,1.55,0.37,0.76,0.36,-0.38,
2.049,-0.19,1.51,0.28,0.76,0.36,-0.38,
2.05,-0.19,1.51,0.28,0.72,0.25,-0.42,
2.052,-0.19,1.51,0.28,0.66,0.13,-0.49,
2.053,-0.19,1.51,0.28,0.64,0.10,-0.50,
2.055,-0.19,1.51,0.28,0.60,0.04,-0.54,
2.057,-0.19,1.51,0.28,0.56,0.00,-0.57,
2.06,0.14,1.59,-0.17,0.56,0.00,-0.57,
2.06,0.14,1.59,-0.17,0.52,-0.03,-0.59,
2.062,0.14,1.59,-0.17,0.47,-0.05,-0.62,
2.063,0.14,1.59,-0.17,0.45,-0.06,-0.63,
2.066,0.14,1.59,-0.17,0.42,-0.06,-0.64,
2.068,0.14,1.59,-0.17,0.39,-0.06,-0.65,
2.069,0.44,1.67,-0.28,0.39,-0.06,-0.65,
2.07,0.44,1.67,-0.28,0.37,-0.06,-0.65,
2.073,0.44,1.67,-0.28,0.33,-0.06,-0.65,
2.073,0.44,1.67,-0.28,0.32,-0.06,-0.65,
2.076,0.44,1.67,-0.28,0.30,-0.05,-0.64,
2.079,0.44,1.67,-0.28,0.28,-0.05,-0.64,
2.08,0.73,1.70,-0.14,0.28,-0.05,-0.64,
2.08,0.73,1.70,-0.14,0.26,-0.05,-0.63,
2.083,0.73,1.70,-0.14,0.24,-0.04,-0.62,
2.083,0.73,1.70,-0.14,0.23,-0.04,-0.62,
2.087,0.73,1.70,-0.14,0.22,-0.04,-0.61,
2.089,0.73,1.70,-0.14,0.20,-0.05,-0.61,
2.089,1.15,1.81,0.11,0.20,-0.05,-0.61,
2.093,1.15,1.81,0.11,0.19,-0.06,-0.60,
2.093,1.15,1.81,0.11,0.16,-0.08,-0.59,
2.094,1.15,1.81,0.11,0.15,-0.09,-0.58,
2.097,1.15,1.81,0.11,0.14,-0.10,-0.57,
2.097,1.15,1.81,0.11,0.12,-0.12,-0.56,
2.101,1.39,1.76,0.15,0.12,-0.12,-0.56,
2.101,1.39,1.76,0.15,0.10,-0.15,-0.55,
2.104,1.39,1.76,0.15,0.09,-0.18,-0.54,
2.104,1.39,1.76,0.15,0.08,-0.19,-0.54,
2.107,1.39,1.76,0.15,0.07,-0.20,-0.53,
2.107,1.39,1.76,0.15,0.06,-0.21,-0.53,
2.114,1.75,1.70,0.41,0.06,-0.21,-0.53,
2.115,1.75,1.70,0.41,0.05,-0.22,-0.53,
2.115,1.75,1.70,0.41,0.04,-0.22,-0.53,
2.115,1.75,1.70,0.41,0.04,-0.22,-0.53,
2.116,1.75,1.70,0.41,0.04,-0.21,-0.53,
2.119,1.75,1.70,0.41,0.03,-0.19,-0.53,
2.12,2.01,1.72,0.58,0.03,-0.19,-0.53,
2.12,2.01,1.72,0.58,0.03,-0.17,-0.53,
2.122,2.01,1.72,0.58,0.02,-0.13,-0.54,
2.136,2.01,1.72,0.58,0.02,-0.11,-0.54,
2.136,2.01,1.72,0.58,0.01,-0.09,-0.54,
2.136,2.01,1.72,0.58,0.01,-0.05,-0.54,
2.137,2.10,1.75,0.61,0.01,-0.05,-0.54,
2.137,2.10,1.75,0.61,0.00,-0.02,-0.54,
2.137,2.10,1.75,0.61,-0.01,0.03,-0.54,
2.137,2.10,1.75,0.61,-0.01,0.04,-0.54,
2.137,2.10,1.75,0.61,-0.02,0.07,-0.54,
2.138,2.10,1.75,0.61,-0.03,0.10,-0.54,
2.142,1.90,1.62,0.41,-0.03,0.10,-0.54,
2.142,1.90,1.62,0.41,-0.04,0.12,-0.54,
2.145,1.90,1.62,0.41,-0.05,0.15,-0.54,
2.146,1.90,1.62,0.41,-0.06,0.16,-0.54,
2.146,1.90,1.62,0.41,-0.07,0.18,-0.54,
2.149,1.90,1.62,0.41,-0.08,0.19,-0.53,
2.15,1.77,1.38,0.40,-0.08,0.19,-0.53,
2.15,1.77,1.38,0.40,-0.08,0.20,-0.53,
2.153,1.77,1.38,0.40,-0.09,0.22,-0.53,
2.153,1.77,1.38,0.40,-0.10,0.22,-0.53,
2.156,1.77,1.38,0.40,-0.10,0.23,-0.52,
2.16,1.77,1.38,0.40,-0.10,0.24,-0.52,
2.16,1.64,1.08,0.57,-0.10,0.24,-0.52,
2.161,1.64,1.08,0.57,-0.11,0.25,-0.52,
2.162,1.64,1.08,0.57,-0.11,0.26,-0.51,
2.163,1.64,1.08,0.57,-0.11,0.26,-0.51,
2.165,1.64,1.08,0.57,-0.11,0.28,-0.51,
2.167,1.64,1.08,0.57,-0.11,0.29,-0.51,
2.17,1.68,0.72,0.89,-0.11,0.29,-0.51,
2.19,1.68,0.72,0.89,-0.11,0.30,-0.51,
2.19,1.68,0.72,0.89,-0.11,0.32,-0.51,
2.19,1.68,0.72,0.89,-0.11,0.33,-0.51,
2.191,1.68,0.72,0.89,-0.11,0.34,-0.52,
2.191,1.68,0.72,0.89,-0.12,0.35,-0.52,
2.191,1.74,0.41,0.97,-0.12,0.35,-0.52,
2.191,1.74,0.41,0.97,-0.12,0.37,-0.52,
2.192,1.74,0.41,0.97,-0.13,0.40,-0.53,
2.192,1.74,0.41,0.97,-0.13,0.41,-0.53,
2.192,1.74,0.41,0.97,-0.14,0.43,-0.54,
2.192,1.74,0.41,0.97,-0.14,0.45,-0.54,
2.193,1.76,0.01,0.98,-0.14,0.45,-0.54,
2.193,1.76,0.01,0.98,-0.15,0.48,-0.55,
2.193,1.76,0.01,0.98,-0.16,0.53,-0.57,
2.198,1.76,0.01,0.98,-0.16,0.55,-0.57,
2.198,1.76,0.01,0.98,-0.17,0.59,-0.58,
2.198,1.76,0.01,0.98,-0.18,0.63,-0.59,
2.2,1.60,-0.41,0.96,-0.18,0.63,-0.59,
2.2,1.60,-0.41,0.96,-0.18,0.68,-0.60,
2.202,1.60,-0.41,0.96,-0.19,0.75,-0.62,
2.206,1.60,-0.41,0.96,-0.19,0.77,-0.62,
2.209,1.60,-0.41,0.96,-0.20,0.82,-0.63,
2.209,1.60,-0.41,0.96,-0.21,0.87,-0.64,
2.22,1.39,-0.75,1.01,-0.21,0.87,-0.64,
2.22,1.39,-0.75,1.01,-0.22,0.92,-0.64,
2.221,1.39,-0.75,1.01,-0.23,0.99,-0.65,
2.221,1.39,-0.75,1.01,-0.24,1.01,-0.65,
2.221,1.39,-0.75,1.01,-0.25,1.05,-0.66,
2.221,1.39,-0.75,1.01,-0.26,1.08,-0.67,
2.222,1.18,-0.91,1.24,-0.26,1.08,-0.67,
2.222,1.18,-0.91,1.24,-0.27,1.12,-0.67,
2.222,1.18,-0.91,1.24,-0.28,1.15,-0.68,
2.236,1.18,-0.91,1.24,-0.29,1.16,-0.69,
2.237,1.18,-0.91,1.24,-0.30,1.18,-0.69,
2.237,1.18,-0.91,1.24,-0.30,1.19,-0.70,
2.237,1.11,-0.93,1.79,-0.30,1.19,-0.70,
2.238,1.11,-0.93,1.79,-0.31,1.20,-0.70,
2.238,1.11,-0.93,1.79,-0.32,1.20,-0.70,
2.256,1.11,-0.93,1.79,-0.32,1.20,-0.70,
2.257,1.11,-0.93,1.79,-0.33,1.19,-0.69,
2.257,1.11,-0.93,1.79,-0.33,1.18,-0.69,
2.257,0.81,-0.75,2.37,-0.33,1.18,-0.69,
2.258,0.81,-0.75,2.37,-0.33,1.16,-0.68,
2.258,0.81,-0.75,2.37,-0.34,1.14,-0.67,
2.258,0.81,-0.75,2.37,-0.34,1.13,-0.67,
2.258,0.81,-0.75,2.37,-0.34,1.11,-0.66,
2.259,0.81,-0.75,2.37,-0.34,1.08,-0.65,
2.259,0.63,-0.35,2.90,-0.34,1.08,-0.65,
2.259,0.63,-0.35,2.90,-0.34,1.06,-0.64,
2.259,0.63,-0.35,2.90,-0.33,1.02,-0.63,
2.259,0.63,-0.35,2.90,-0.33,1.01,-0.63,
2.26,0.63,-0.35,2.90,-0.33,0.98,-0.63,
2.26,0.63,-0.35,2.90,-0.33,0.96,-0.62,
2.287,0.57,0.05,3.19,-0.33,0.96,-0.62,
2.287,0.57,0.05,3.19,-0.33,0.93,-0.62,
2.287,0.57,0.05,3.19,-0.33,0.90,-0.63,
2.287,0.57,0.05,3.19,-0.33,0.89,-0.63,
2.288,0.57,0.05,3.19,-0.33,0.87,-0.63,
2.288,0.57,0.05,3.19,-0.33,0.85,-0.64,
2.288,0.37,0.38,3.25,-0.33,0.85,-0.64,
2.288,0.37,0.38,3.25,-0.33,0.84,-0.64,
2.288,0.37,0.38,3.25,-0.34,0.83,-0.64,
2.288,0.37,0.38,3.25,-0.35,0.83,-0.64,
2.288,0.37,0.38,3.25,-0.36,0.83,-0.64,
2.289,0.37,0.38,3.25,-0.37,0.84,-0.64,
2.289,-0.19,0.50,2.32,-0.37,0.84,-0.64,
2.289,-0.19,0.50,2.32,-0.39,0.84,-0.64,
2.289,-0.19,0.50,2.32,-0.43,0.85,-0.62,
2.289,-0.19,0.50,2.32,-0.44,0.85,-0.62,
2.289,-0.19,0.50,2.32,-0.49,0.86,-0.60,
2.29,-0.19,0.50,2.32,-0.51,0.86,-0.59,
2.29,-1.06,0.29,0.82,-0.51,0.86,-0.59,
2.29,-1.06,0.29,0.82,-0.54,0.86,-0.57,
2.292,-1.06,0.29,0.82,-0.59,0.86,-0.54,
2.294,-1.06,0.29,0.82,-0.60,0.86,-0.53,
2.295,-1.06,0.29,0.82,-0.63,0.87,-0.50,
2.297,-1.06,0.29,0.82,-0.66,0.86,-0.48,
2.299,-1.75,-0.68,0.03,-0.66,0.86,-0.48,
2.3,-1.75,-0.68,0.03,-0.69,0.86,-0.46,
2.302,-1.75,-0.68,0.03,-0.72,0.86,-0.42,
2.303,-1.75,-0.68,0.03,-0.73,0.85,-0.41,
2.306,-1.75,-0.68,0.03,-0.75,0.84,-0.38,
2.309,-1.75,-0.68,0.03,-0.78,0.83,-0.35,
2.311,-2.49,-2.41,-0.45,-0.78,0.83,-0.35,
2.311,-2.49,-2.41,-0.45,-0.79,0.80,-0.32,
2.312,-2.49,-2.41,-0.45,-0.82,0.74,-0.27,
2.313,-2.49,-2.41,-0.45,-0.82,0.71,-0.25,
2.315,-2.49,-2.41,-0.45,-0.84,0.66,-0.21,
2.317,-2.49,-2.41,-0.45,-0.86,0.60,-0.16,
2.32,-3.44,-4.27,-1.75,-0.86,0.60,-0.16,
2.32,-3.44,-4.27,-1.75,-0.89,0.55,-0.12,
2.323,-3.44,-4.27,-1.75,-0.92,0.47,-0.05,
2.324,-3.44,-4.27,-1.75,-0.94,0.44,-0.02,
2.325,-3.44,-4.27,-1.75,-0.97,0.39,0.03,
2.327,-3.44,-4.27,-1.75,-1.00,0.34,0.08,
2.329,-4.73,-5.47,-3.99,-1.00,0.34,0.08,
2.33,-4.73,-5.47,-3.99,-1.02,0.30,0.14,
2.332,-4.73,-5.47,-3.99,-1.06,0.24,0.21,
2.334,-4.73,-5.47,-3.99,-1.07,0.22,0.23,
2.335,-4.73,-5.47,-3.99,-1.10,0.17,0.28,
2.351,-4.73,-5.47,-3.99,-1.11,0.12,0.32,
2.351,-5.20,-5.76,-5.55,-1.11,0.12,0.32,
2.352,-5.20,-5.76,-5.55,-1.12,0.04,0.35,
2.352,-5.20,-5.76,-5.55,-1.13,-0.09,0.39,
2.352,-5.20,-5.76,-5.55,-1.12,-0.14,0.39,
2.352,-5.20,-5.76,-5.55,-1.11,-0.25,0.41,
2.352,-5.20,-5.76,-5.55,-1.09,-0.39,0.42,
2.352,-5.00,-5.61,-5.98,-1.09,-0.39,0.42,
2.353,-5.00,-5.61,-5.98,-1.06,-0.54,0.42,
2.353,-5.00,-5.61,-5.98,-1.00,-0.79,0.41,
2.358,-5.00,-5.61,-5.98,-0.98,-0.88,0.40,
2.358,-5.00,-5.61,-5.98,-0.92,-1.07,0.38,
2.358,-5.00,-5.61,-5.98,-0.85,-1.26,0.35,
2.37,-4.25,-4.71,-4.88,-0.85,-1.26,0.35,
2.37,-4.25,-4.71,-4.88,-0.76,-1.46,0.30,
2.37,-4.25,-4.71,-4.88,-0.59,-1.78,0.22,
2.37,-4.25,-4.71,-4.88,-0.52,-1.89,0.19,
2.37,-4.25,-4.71,-4.88,-0.35,-2.13,0.12,
2.37,-4.25,-4.71,-4.88,-0.15,-2.38,0.04,
2.371,-2.71,-3.35,-0.52,-0.15,-2.38,0.04,
2.371,-2.71,-3.35,-0.52,0.08,-2.63,-0.02,
2.373,-2.71,-3.35,-0.52,0.44,-2.99,-0.08,
2.374,-2.71,-3.35,-0.52,0.57,-3.10,-0.09,
2.38,-2.71,-3.35,-0.52,0.82,-3.30,-0.08,
2.381,-2.71,-3.35,-0.52,1.07,-3.48,-0.05,
2.381,-4.38,-1.66,3.68,1.07,-3.48,-0.05,
2.381,-4.38,-1.66,3.68,1.30,-3.63,-0.00,
2.384,-4.38,-1.66,3.68,1.61,-3.78,0.08,
2.384,-4.38,-1.66,3.68,1.70,-3.80,0.11,
2.387,-4.38,-1.66,3.68,1.84,-3.78,0.17,
2.388,-4.38,-1.66,3.68,1.93,-3.65,0.23,
2.391,-5.93,1.09,2.45,1.93,-3.65,0.23,
2.391,-5.93,1.09,2.45,1.97,-3.42,0.28,
2.402,-5.93,1.09,2.45,1.95,-2.95,0.33,
2.403,-5.93,1.09,2.45,1.93,-2.75,0.34,
2.403,-5.93,1.09,2.45,1.86,-2.33,0.36,
2.403,-5.93,1.09,2.45,1.77,-1.86,0.38,
2.403,-4.80,3.73,-1.51,1.77,-1.86,0.38,
2.404,-4.80,3.73,-1.51,1.64,-1.37,0.38,
2.404,-4.80,3.73,-1.51,1.42,-0.67,0.40,
2.404,-4.80,3.73,-1.51,1.34,-0.46,0.41,
2.414,-4.80,3.73,-1.51,1.16,-0.05,0.43,
2.414,-4.80,3.73,-1.51,0.98,0.31,0.45,
2.414,-3.62,5.23,-5.10,0.98,0.31,0.45,
2.415,-3.62,5.23,-5.10,0.80,0.63,0.47,
2.415,-3.62,5.23,-5.10,0.51,1.04,0.50,
2.415,-3.62,5.23,-5.10,0.41,1.16,0.51,
2.415,-3.62,5.23,-5.10,0.21,1.36,0.53,
2.417,-3.62,5.23,-5.10,0.02,1.53,0.54,
2.419,-2.34,5.66,-6.50,0.02,1.53,0.54,
2.42,-2.34,5.66,-6.50,-0.18,1.67,0.55,
2.422,-2.34,5.66,-6.50,-0.49,1.82,0.55,
2.423,-2.34,5.66,-6.50,-0.60,1.86,0.55,
2.425,-2.34,5.66,-6.50,-0.81,1.92,0.54,
2.427,-2.34,5.66,-6.50,-1.03,1.94,0.52,
2.429,-0.74,5.40,-7.16,-1.03,1.94,0.52,
2.43,-0.74,5.40,-7.16,-1.26,1.94,0.49,
2.432,-0.74,5.40,-7.16,-1.61,1.90,0.43,
2.433,-0.74,5.40,-7.16,-1.73,1.86,0.41,
2.435,-0.74,5.40,-7.16,-1.98,1.78,0.36,
2.437,-0.74,5.40,-7.16,-2.22,1.68,0.30,
2.44,1.50,3.91,-7.82,-2.22,1.68,0.30,
2.441,1.50,3.91,-7.82,-2.47,1.56,0.23,
2.443,1.50,3.91,-7.82,-2.83,1.34,0.13,
2.444,1.50,3.91,-7.82,-2.95,1.27,0.09,
2.445,1.50,3.91,-7.82,-3.17,1.10,0.02,
2.447,1.50,3.91,-7.82,-3.39,0.93,-0.06,
2.45,3.86,0.56,-7.93,-3.39,0.93,-0.06,
2.45,3.86,0.56,-7.93,-3.59,0.74,-0.13,
2.452,3.86,0.56,-7.93,-3.88,0.44,-0.24,
2.454,3.86,0.56,-7.93,-3.96,0.34,-0.29,
2.456,3.86,0.56,-7.93,-4.12,0.11,-0.37,
2.458,3.86,0.56,-7.93,-4.25,-0.15,-0.45,
2.46,5.41,-2.65,-6.72,-4.25,-0.15,-0.45,
2.461,5.41,-2.65,-6.72,-4.36,-0.42,-0.55,
2.463,5.41,-2.65,-6.72,-4.49,-0.85,-0.71,
2.464,5.41,-2.65,-6.72,-4.52,-1.00,-0.76,
2.467,5.41,-2.65,-6.72,-4.56,-1.29,-0.88,
2.467,5.41,-2.65,-6.72,-4.58,-1.60,-1.00,
2.47,6.83,-4.69,-4.96,-4.58,-1.60,-1.00,
2.471,6.83,-4.69,-4.96,-4.58,-1.90,-1.12,
2.475,6.83,-4.69,-4.96,-4.55,-2.33,-1.28,
2.476,6.83,-4.69,-4.96,-4.53,-2.46,-1.34,
2.476,6.83,-4.69,-4.96,-4.49,-2.71,-1.43,
2.477,6.83,-4.69,-4.96,-4.43,-2.94,-1.52,
2.48,6.24,-5.50,-3.85,-4.43,-2.94,-1.52,
2.48,6.24,-5.50,-3.85,-4.37,-3.15,-1.59,
2.483,6.24,-5.50,-3.85,-4.25,-3.43,-1.68,
2.484,6.24,-5.50,-3.85,-4.21,-3.51,-1.70,
2.485,6.24,-5.50,-3.85,-4.11,-3.65,-1.73,
2.487,6.24,-5.50,-3.85,-4.01,-3.77,-1.76,
2.491,4.72,-5.28,-3.04,-4.01,-3.77,-1.76,
2.491,4.72,-5.28,-3.04,-3.90,-3.86,-1.77,
2.493,4.72,-5.28,-3.04,-3.72,-3.95,-1.77,
2.495,4.72,-5.28,-3.04,-3.66,-3.97,-1.77,
2.495,4.72,-5.28,-3.04,-3.54,-4.00,-1.76,
2.497,4.72,-5.28,-3.04,-3.42,-3.99,-1.74,
2.5,3.16,-3.99,-2.53,-3.42,-3.99,-1.74,
2.501,3.16,-3.99,-2.53,-3.29,-3.97,-1.71,
2.503,3.16,-3.99,-2.53,-3.10,-3.90,-1.64,
2.531,3.16,-3.99,-2.53,-3.03,-3.86,-1.61,
2.532,3.16,-3.99,-2.53,-2.90,-3.79,-1.56,
2.532,3.16,-3.99,-2.53,-2.78,-3.70,-1.49,
2.533,1.61,-2.20,-2.48,-2.78,-3.70,-1.49,
2.534,1.61,-2.20,-2.48,-2.65,-3.60,-1.42,
2.534,1.61,-2.20,-2.48,-2.46,-3.44,-1.30,
2.534,1.61,-2.20,-2.48,-2.40,-3.39,-1.25,
2.535,1.61,-2.20,-2.48,-2.28,-3.28,-1.16,
2.535,1.61,-2.20,-2.48,-2.16,-3.18,-1.08,
2.536,0.43,-0.66,-2.00,-2.16,-3.18,-1.08,
2.536,0.43,-0.66,-2.00,-2.04,-3.09,-0.98,
2.537,0.43,-0.66,-2.00,-1.87,-2.95,-0.84,
2.537,0.43,-0.66,-2.00,-1.81,-2.91,-0.80,
2.537,0.43,-0.66,-2.00,-1.70,-2.84,-0.70,
2.538,0.43,-0.66,-2.00,-1.59,-2.78,-0.61,
2.538,0.14,0.50,-1.12,-1.59,-2.78,-0.61,
2.539,0.14,0.50,-1.12,-1.48,-2.73,-0.53,
2.539,0.14,0.50,-1.12,-1.31,-2.67,-0.40,
2.539,0.14,0.50,-1.12,-1.26,-2.66,-0.36,
2.54,0.14,0.50,-1.12,-1.15,-2.63,-0.28,
2.54,0.14,0.50,-1.12,-1.03,-2.61,-0.21,
2.54,0.57,1.21,0.25,-1.03,-2.61,-0.21,
2.541,0.57,1.21,0.25,-0.91,-2.58,-0.15,
2.559,0.57,1.21,0.25,-0.73,-2.56,-0.06,
2.56,0.57,1.21,0.25,-0.68,-2.55,-0.03,
2.56,0.57,1.21,0.25,-0.56,-2.53,0.01,
2.561,0.57,1.21,0.25,-0.46,-2.51,0.05,
2.561,1.60,1.35,1.33,-0.46,-2.51,0.05,
2.561,1.60,1.35,1.33,-0.35,-2.48,0.08,
2.561,1.60,1.35,1.33,-0.21,-2.42,0.11,
2.561,1.60,1.35,1.33,-0.16,-2.40,0.12,
2.562,1.60,1.35,1.33,-0.07,-2.33,0.12,
2.562,1.60,1.35,1.33,0.01,-2.26,0.13,
2.562,2.44,1.00,1.47,0.01,-2.26,0.13,
2.562,2.44,1.00,1.47,0.08,-2.16,0.13,
2.563,2.44,1.00,1.47,0.18,-1.99,0.13,
2.563,2.44,1.00,1.47,0.21,-1.92,0.13,
2.566,2.44,1.00,1.47,0.26,-1.75,0.13,
2.567,2.44,1.00,1.47,0.31,-1.55,0.13,
2.57,2.58,0.52,1.88,0.31,-1.55,0.13,
2.57,2.58,0.52,1.88,0.33,-1.29,0.13,
2.596,2.58,0.52,1.88,0.32,-0.79,0.13,
2.597,2.58,0.52,1.88,0.30,-0.59,0.13,
2.597,2.58,0.52,1.88,0.25,-0.16,0.14,
2.597,2.58,0.52,1.88,0.16,0.29,0.14,
2.597,1.62,-0.19,1.37,0.16,0.29,0.14,
2.598,1.62,-0.19,1.37,0.04,0.77,0.14,
2.598,1.62,-0.19,1.37,-0.21,1.50,0.13,
2.598,1.62,-0.19,1.37,-0.31,1.75,0.12,
2.598,1.62,-0.19,1.37,-0.52,2.20,0.11,
2.598,1.62,-0.19,1.37,-0.69,2.57,0.09,
2.599,0.61,-0.97,-0.07,-0.69,2.57,0.09,
2.599,0.61,-0.97,-0.07,-0.86,2.88,0.07,
2.599,0.61,-0.97,-0.07,-1.07,3.26,0.04,
2.599,0.61,-0.97,-0.07,-1.14,3.36,0.03,
2.6,0.61,-0.97,-0.07,-1.26,3.52,0.01,
2.6,0.61,-0.97,-0.07,-1.35,3.63,-0.00,
2.6,-0.06,-1.29,1.20,-1.35,3.63,-0.00,
2.6,-0.06,-1.29,1.20,-1.42,3.70,-0.01,
2.602,-0.06,-1.29,1.20,-1.49,3.73,-0.02,
2.604,-0.06,-1.29,1.20,-1.51,3.72,-0.03,
2.606,-0.06,-1.29,1.20,-1.51,3.68,-0.03,
2.607,-0.06,-1.29,1.20,-1.51,3.61,-0.03,
2.61,-0.50,-1.23,3.75,-1.51,3.61,-0.03,
2.61,-0.50,-1.23,3.75,-1.48,3.52,-0.03,
2.612,-0.50,-1.23,3.75,-1.42,3.31,-0.03,
2.614,-0.50,-1.23,3.75,-1.40,3.22,-0.03,
2.615,-0.50,-1.23,3.75,-1.36,3.02,-0.03,
2.617,-0.50,-1.23,3.75,-1.33,2.78,-0.02,
2.62,-0.68,-1.17,4.74,-1.33,2.78,-0.02,
2.62,-0.68,-1.17,4.74,-1.29,2.53,-0.02,
2.631,-0.68,-1.17,4.74,-1.22,2.13,-0.01,
2.632,-0.68,-1.17,4.74,-1.19,1.99,-0.01,
2.633,-0.68,-1.17,4.74,-1.14,1.72,-0.01,
2.633,-0.68,-1.17,4.74,-1.09,1.44,-0.00,
2.634,-0.70,-1.07,4.40,-1.09,1.44,-0.00,
2.634,-0.70,-1.07,4.40,-1.03,1.17,0.00,
2.635,-0.70,-1.07,4.40,-0.96,0.75,0.01,
2.637,-0.70,-1.07,4.40,-0.93,0.62,0.01,
2.637,-0.70,-1.07,4.40,-0.86,0.22,0.00,
2.654,-0.70,-1.07,4.40,-0.83,0.09,0.00,
2.655,-0.18,-1.01,3.30,-0.83,0.09,0.00,
2.656,-0.18,-1.01,3.30,-0.78,-0.16,-0.01,
2.656,-0.18,-1.01,3.30,-0.73,-0.52,-0.03,
2.656,-0.18,-1.01,3.30,-0.71,-0.64,-0.04,
2.657,-0.18,-1.01,3.30,-0.68,-0.88,-0.06,
2.658,-0.18,-1.01,3.30,-0.67,-1.11,-0.08,
2.658,0.68,-1.03,1.88,-0.67,-1.11,-0.08,
2.663,0.68,-1.03,1.88,-0.66,-1.34,-0.11,
2.665,0.68,-1.03,1.88,-0.66,-1.67,-0.15,
2.69,0.68,-1.03,1.88,-0.66,-1.78,-0.16,
2.69,0.68,-1.03,1.88,-0.67,-1.98,-0.18,
2.691,0.68,-1.03,1.88,-0.69,-2.19,-0.20,
2.691,1.06,-0.98,0.32,-0.69,-2.19,-0.20,
2.691,1.06,-0.98,0.32,-0.71,-2.38,-0.21,
2.691,1.06,-0.98,0.32,-0.75,-2.66,-0.24,
2.691,1.06,-0.98,0.32,-0.77,-2.76,-0.25,
2.691,1.06,-0.98,0.32,-0.81,-2.94,-0.27,
2.692,1.06,-0.98,0.32,-0.85,-3.13,-0.28,
2.692,1.35,-0.53,-0.99,-0.85,-3.13,-0.28,
2.71,1.35,-0.53,-0.99,-0.91,-3.31,-0.29,
2.71,1.35,-0.53,-0.99,-0.99,-3.57,-0.31,
2.71,1.35,-0.53,-0.99,-1.02,-3.65,-0.31,
2.71,1.35,-0.53,-0.99,-1.08,-3.80,-0.31,
2.71,1.35,-0.53,-0.99,-1.13,-3.94,-0.31,
2.711,1.13,0.07,-1.54,-1.13,-3.94,-0.31,
2.711,1.13,0.07,-1.54,-1.18,-4.05,-0.31,
2.711,1.13,0.07,-1.54,-1.24,-4.20,-0.31,
2.711,1.13,0.07,-1.54,-1.26,-4.24,-0.31,
2.711,1.13,0.07,-1.54,-1.30,-4.31,-0.31,
2.712,1.13,0.07,-1.54,-1.33,-4.37,-0.31,
2.712,1.26,0.60,-1.07,-1.33,-4.37,-0.31,
2.712,1.26,0.60,-1.07,-1.36,-4.43,-0.31,
2.712,1.26,0.60,-1.07,-1.41,-4.50,-0.31,
2.713,1.26,0.60,-1.07,-1.42,-4.52,-0.31,
2.713,1.26,0.60,-1.07,-1.45,-4.56,-0.31,
2.713,1.26,0.60,-1.07,-1.48,-4.59,-0.31,
2.713,1.40,0.98,-0.75,-1.48,-4.59,-0.31,
2.713,1.40,0.98,-0.75,-1.50,-4.62,-0.31,
2.714,1.40,0.98,-0.75,-1.53,-4.63,-0.31,
2.714,1.40,0.98,-0.75,-1.54,-4.63,-0.31,
2.714,1.40,0.98,-0.75,-1.56,-4.62,-0.31,
2.714,1.40,0.98,-0.75,-1.57,-4.60,-0.31,
2.715,1.64,1.27,-0.49,-1.57,-4.60,-0.31,
2.715,1.64,1.27,-0.49,-1.59,-4.57,-0.31,
2.715,1.64,1.27,-0.49,-1.61,-4.51,-0.31,
2.715,1.64,1.27,-0.49,-1.62,-4.49,-0.32,
2.719,1.64,1.27,-0.49,-1.63,-4.44,-0.33,
2.72,1.64,1.27,-0.49,-1.65,-4.38,-0.34,
2.72,1.94,1.53,-0.30,-1.65,-4.38,-0.34,
2.72,1.94,1.53,-0.30,-1.68,-4.31,-0.35,
2.744,1.94,1.53,-0.30,-1.72,-4.19,-0.38,
2.744,1.94,1.53,-0.30,-1.73,-4.14,-0.39,
2.744,1.94,1.53,-0.30,-1.76,-4.03,-0.41,
2.745,1.94,1.53,-0.30,-1.80,-3.92,-0.43,
2.745,2.19,1.55,-0.20,-1.80,-3.92,-0.43,
2.745,2.19,1.55,-0.20,-1.83,-3.79,-0.44,
2.745,2.19,1.55,-0.20,-1.88,-3.57,-0.46,
2.745,2.19,1.55,-0.20,-1.90,-3.49,-0.47,
2.746,2.19,1.55,-0.20,-1.93,-3.32,-0.47,
2.746,2.19,1.55,-0.20,-1.96,-3.14,-0.47,
2.746,1.66,1.29,0.30,-1.96,-3.14,-0.47,
2.746,1.66,1.29,0.30,-1.99,-2.95,-0.47,
2.746,1.66,1.29,0.30,-2.02,-2.65,-0.45,
2.747,1.66,1.29,0.30,-2.02,-2.54,-0.45,
2.747,1.66,1.29,0.30,-2.03,-2.33,-0.43,
2.747,1.66,1.29,0.30,-2.03,-2.11,-0.40,
2.75,0.88,0.85,1.38,-2.03,-2.11,-0.40,
2.75,0.88,0.85,1.38,-2.02,-1.89,-0.37,
2.752,0.88,0.85,1.38,-2.00,-1.57,-0.32,
2.753,0.88,0.85,1.38,-1.99,-1.47,-0.30,
2.756,0.88,0.85,1.38,-1.96,-1.26,-0.27,
2.758,0.88,0.85,1.38,-1.93,-1.07,-0.23,
2.762,0.41,0.21,2.39,-1.93,-1.07,-0.23,
2.762,0.41,0.21,2.39,-1.89,-0.89,-0.19,
2.763,0.41,0.21,2.39,-1.81,-0.63,-0.13,
2.764,0.41,0.21,2.39,-1.79,-0.55,-0.11,
2.766,0.41,0.21,2.39,-1.73,-0.40,-0.07,
2.768,0.41,0.21,2.39,-1.67,-0.26,-0.03,
2.77,0.36,-0.36,3.12,-1.67,-0.26,-0.03,
2.771,0.36,-0.36,3.12,-1.60,-0.13,0.02,
2.776,0.36,-0.36,3.12,-1.49,0.04,0.08,
2.776,0.36,-0.36,3.12,-1.46,0.09,0.10,
2.778,0.36,-0.36,3.12,-1.38,0.19,0.14,
2.778,0.36,-0.36,3.12,-1.31,0.27,0.19,
2.78,0.23,-0.85,3.44,-1.31,0.27,0.19,
2.78,0.23,-0.85,3.44,-1.23,0.34,0.23,
2.782,0.23,-0.85,3.44,-1.12,0.42,0.28,
2.784,0.23,-0.85,3.44,-1.09,0.44,0.30,
2.786,0.23,-0.85,3.44,-1.02,0.47,0.33,
2.797,0.23,-0.85,3.44,-0.96,0.49,0.36,
2.798,0.33,-1.39,3.30,-0.96,0.49,0.36,
2.798,0.33,-1.39,3.30,-0.90,0.50,0.38,
2.798,0.33,-1.39,3.30,-0.83,0.49,0.41,
2.799,0.33,-1.39,3.30,-0.81,0.49,0.42,
2.799,0.33,-1.39,3.30,-0.77,0.47,0.43,
2.799,0.33,-1.39,3.30,-0.73,0.45,0.43,
2.799,0.52,-2.12,2.63,-0.73,0.45,0.43,
2.8,0.52,-2.12,2.63,-0.71,0.41,0.43,
2.833,0.52,-2.12,2.63,-0.68,0.35,0.43,
2.834,0.52,-2.12,2.63,-0.68,0.32,0.43,
2.834,0.52,-2.12,2.63,-0.68,0.28,0.42,
2.834,0.52,-2.12,2.63,-0.67,0.23,0.41,
2.835,0.62,-3.10,2.12,-0.67,0.23,0.41,
2.835,0.62,-3.10,2.12,-0.68,0.18,0.40,
2.835,0.62,-3.10,2.12,-0.69,0.10,0.38,
2.836,0.62,-3.10,2.12,-0.70,0.07,0.38,
2.836,0.62,-3.10,2.12,-0.71,0.03,0.36,
2.836,0.62,-3.10,2.12,-0.73,-0.02,0.35,
2.836,0.32,-4.08,2.23,-0.73,-0.02,0.35,
2.837,0.32,-4.08,2.23,-0.75,-0.06,0.33,
2.837,0.32,-4.08,2.23,-0.77,-0.12,0.32,
2.837,0.32,-4.08,2.23,-0.78,-0.14,0.31,
2.838,0.32,-4.08,2.23,-0.80,-0.18,0.30,
2.838,0.32,-4.08,2.23,-0.81,-0.21,0.29,
2.838,-0.11,-4.93,2.94,-0.81,-0.21,0.29,
2.839,-0.11,-4.93,2.94,-0.82,-0.24,0.27,
2.839,-0.11,-4.93,2.94,-0.82,-0.30,0.26,
2.839,-0.11,-4.93,2.94,-0.82,-0.31,0.26,
2.84,-0.11,-4.93,2.94,-0.81,-0.35,0.25,
2.866,-0.11,-4.93,2.94,-0.79,-0.39,0.24,
2.866,-0.45,-5.42,3.84,-0.79,-0.39,0.24,
2.867,-0.45,-5.42,3.84,-0.77,-0.42,0.23,
2.867,-0.45,-5.42,3.84,-0.71,-0.47,0.22,
2.867,-0.45,-5.42,3.84,-0.69,-0.49,0.22,
2.868,-0.45,-5.42,3.84,-0.64,-0.52,0.22,
2.868,-0.45,-5.42,3.84,-0.58,-0.55,0.21,
2.869,-0.50,-5.61,5.00,-0.58,-0.55,0.21,
2.869,-0.50,-5.61,5.00,-0.52,-0.58,0.21,
2.87,-0.50,-5.61,5.00,-0.41,-0.63,0.21,
2.87,-0.50,-5.61,5.00,-0.37,-0.64,0.20,
2.871,-0.50,-5.61,5.00,-0.29,-0.67,0.20,
2.871,-0.50,-5.61,5.00,-0.21,-0.70,0.20,
2.871,-0.19,-5.70,5.52,-0.21,-0.70,0.20,
2.872,-0.19,-5.70,5.52,-0.12,-0.72,0.20,
2.872,-0.19,-5.70,5.52,0.01,-0.77,0.19,
2.873,-0.19,-5.70,5.52,0.05,-0.79,0.19,
2.873,-0.19,-5.70,5.52,0.14,-0.83,0.18,
2.874,-0.19,-5.70,5.52,0.22,-0.87,0.17,
2.874,0.72,-5.51,5.40,0.22,-0.87,0.17,
2.875,0.72,-5.51,5.40,0.30,-0.91,0.15,
2.875,0.72,-5.51,5.40,0.42,-0.98,0.12,
2.875,0.72,-5.51,5.40,0.46,-1.00,0.11,
2.876,0.72,-5.51,5.40,0.53,-1.04,0.09,
2.886,0.72,-5.51,5.40,0.60,-1.09,0.06,
2.886,1.66,-5.04,4.47,0.60,-1.09,0.06,
2.886,1.66,-5.04,4.47,0.67,-1.13,0.03,
2.887,1.66,-5.04,4.47,0.77,-1.20,-0.01,
2.887,1.66,-5.04,4.47,0.80,-1.22,-0.02,
2.887,1.66,-5.04,4.47,0.85,-1.26,-0.05,
2.889,1.66,-5.04,4.47,0.91,-1.30,-0.08,
2.89,2.15,-4.75,3.41,0.91,-1.30,-0.08,
2.891,2.15,-4.75,3.41,0.96,-1.34,-0.10,
2.893,2.15,-4.75,3.41,1.03,-1.38,-0.14,
2.893,2.15,-4.75,3.41,1.05,-1.39,-0.16,
2.9,2.15,-4.75,3.41,1.10,-1.41,-0.18,
2.9,2.15,-4.75,3.41,1.14,-1.41,-0.20,
2.901,1.99,-4.28,2.38,1.14,-1.41,-0.20,
2.901,1.99,-4.28,2.38,1.17,-1.41,-0.22,
2.902,1.99,-4.28,2.38,1.23,-1.39,-0.24,
2.905,1.99,-4.28,2.38,1.24,-1.37,-0.24,
2.908,1.99,-4.28,2.38,1.28,-1.34,-0.25,
2.911,1.99,-4.28,2.38,1.31,-1.30,-0.25,
2.912,1.25,-3.55,1.88,1.31,-1.30,-0.25,
2.912,1.25,-3.55,1.88,1.34,-1.26,-0.25,
2.912,1.25,-3.55,1.88,1.38,-1.17,-0.24,
2.913,1.25,-3.55,1.88,1.39,-1.14,-0.24,
2.915,1.25,-3.55,1.88,1.42,-1.06,-0.22,
2.917,1.25,-3.55,1.88,1.45,-0.98,-0.20,
2.919,0.06,-2.82,1.88,1.45,-0.98,-0.20,
2.92,0.06,-2.82,1.88,1.47,-0.89,-0.18,
2.93,0.06,-2.82,1.88,1.52,-0.73,-0.14,
2.93,0.06,-2.82,1.88,1.53,-0.68,-0.13,
2.93,0.06,-2.82,1.88,1.56,-0.56,-0.10,
2.931,0.06,-2.82,1.88,1.59,-0.44,-0.07,
2.931,-0.95,-2.28,2.40,1.59,-0.44,-0.07,
2.931,-0.95,-2.28,2.40,1.63,-0.32,-0.04,
2.933,-0.95,-2.28,2.40,1.69,-0.14,0.02,
2.97,-0.95,-2.28,2.40,1.70,-0.08,0.03,
2.97,-0.95,-2.28,2.40,1.74,0.04,0.07,
2.971,-0.95,-2.28,2.40,1.79,0.16,0.10,
2.971,-1.50,-2.18,2.96,1.79,0.16,0.10,
2.971,-1.50,-2.18,2.96,1.84,0.27,0.13,
2.971,-1.50,-2.18,2.96,1.92,0.41,0.18,
2.971,-1.50,-2.18,2.96,1.95,0.46,0.19,
2.971,-1.50,-2.18,2.96,2.00,0.54,0.22,
2.972,-1.50,-2.18,2.96,2.06,0.62,0.25,
2.972,-1.73,-2.44,3.39,2.06,0.62,0.25,
2.972,-1.73,-2.44,3.39,2.13,0.69,0.28,
2.972,-1.73,-2.44,3.39,2.25,0.78,0.33,
2.972,-1.73,-2.44,3.39,2.30,0.81,0.35,
2.973,-1.73,-2.44,3.39,2.40,0.86,0.39,
2.973,-1.73,-2.44,3.39,2.51,0.90,0.42,
2.973,-2.09,-2.89,4.36,2.51,0.90,0.42,
2.973,-2.09,-2.89,4.36,2.63,0.93,0.46,
2.973,-2.09,-2.89,4.36,2.82,0.95,0.52,
2.974,-2.09,-2.89,4.36,2.88,0.95,0.54,
2.974,-2.09,-2.89,4.36,3.00,0.94,0.58,
2.974,-2.09,-2.89,4.36,3.12,0.92,0.62,
2.974,-2.66,-3.30,4.63,3.12,0.92,0.62,
2.974,-2.66,-3.30,4.63,3.24,0.88,0.66,
2.975,-2.66,-3.30,4.63,3.41,0.79,0.71,
2.975,-2.66,-3.30,4.63,3.47,0.75,0.73,
2.976,-2.66,-3.30,4.63,3.58,0.67,0.75,
2.977,-2.66,-3.30,4.63,3.70,0.58,0.78,
2.979,-2.66,-3.94,3.87,3.70,0.58,0.78,
2.98,-2.66,-3.94,3.87,3.80,0.47,0.80,
2.982,-2.66,-3.94,3.87,3.96,0.29,0.81,
2.984,-2.66,-3.94,3.87,4.00,0.22,0.82,
2.988,-2.66,-3.94,3.87,4.11,-0.00,0.82,
2.99,-2.66,-3.94,3.87,4.14,-0.08,0.81,
2.993,-2.12,-4.73,2.12,4.14,-0.08,0.81,
2.993,-2.12,-4.73,2.12,4.18,-0.25,0.80,
2.993,-2.12,-4.73,2.12,4.20,-0.52,0.76,
2.994,-2.12,-4.73,2.12,4.20,-0.61,0.75,
2.997,-2.12,-4.73,2.12,4.17,-0.80,0.71,
2.998,-2.12,-4.73,2.12,4.13,-0.98,0.67,
3.0,-1.27,-4.74,-1.54,4.13,-0.98,0.67,
3.0,-1.27,-4.74,-1.54,4.06,-1.16,0.62,
3.007,-1.27,-4.74,-1.54,3.78,-1.67,0.42,
3.026,-1.27,-4.74,-1.54,3.78,-1.67,0.42,
3.027,-1.27,-4.74,-1.54,3.67,-1.81,0.35,
3.027,-1.27,-4.74,-1.54,3.67,-1.81,0.35,
3.027,-0.33,-4.29,-5.62,3.67,-1.81,0.35,
3.027,-0.33,-4.29,-5.62,3.54,-1.94,0.28,
3.027,-0.33,-4.29,-5.62,3.35,-2.10,0.18,
3.028,-0.33,-4.29,-5.62,3.29,-2.15,0.15,
3.028,-0.33,-4.29,-5.62,3.16,-2.22,0.09,
3.028,-0.33,-4.29,-5.62,3.02,-2.26,0.04,
3.028,-0.62,-3.60,-8.39,3.02,-2.26,0.04,
3.029,-0.62,-3.60,-8.39,2.89,-2.28,0.00,
3.029,-0.62,-3.60,-8.39,2.69,-2.26,-0.04,
3.029,-0.62,-3.60,-8.39,2.63,-2.24,-0.05,
3.029,-0.62,-3.60,-8.39,2.50,-2.20,-0.07,
3.03,-0.62,-3.60,-8.39,2.39,-2.14,-0.08,
3.03,-1.68,-3.28,-9.96,2.39,-2.14,-0.08,
3.03,-1.68,-3.28,-9.96,2.28,-2.08,-0.09,
3.039,-1.68,-3.28,-9.96,2.13,-1.98,-0.10,
3.039,-1.68,-3.28,-9.96,2.09,-1.94,-0.10,
3.039,-1.68,-3.28,-9.96,2.01,-1.88,-0.11,
3.039,-1.68,-3.28,-9.96,1.94,-1.80,-0.11,
3.041,-2.26,-3.68,-9.09,1.94,-1.80,-0.11,
3.041,-2.26,-3.68,-9.09,1.87,-1.73,-0.11,
3.046,-2.26,-3.68,-9.09,1.78,-1.61,-0.10,
3.046,-2.26,-3.68,-9.09,1.75,-1.56,-0.09,
3.047,-2.26,-3.68,-9.09,1.70,-1.49,-0.08,
3.048,-2.26,-3.68,-9.09,1.64,-1.41,-0.07,
3.05,-2.93,-4.27,-8.23,1.64,-1.41,-0.07,
3.05,-2.93,-4.27,-8.23,1.59,-1.33,-0.06,
3.052,-2.93,-4.27,-8.23,1.53,-1.23,-0.04,
3.066,-2.93,-4.27,-8.23,1.51,-1.20,-0.03,
3.067,-2.93,-4.27,-8.23,1.46,-1.15,-0.01,
3.067,-2.93,-4.27,-8.23,1.41,-1.13,0.01,
3.067,-3.54,-4.86,-7.38,1.41,-1.13,0.01,
3.067,-3.54,-4.86,-7.38,1.36,-1.11,0.03,
3.067,-3.54,-4.86,-7.38,1.28,-1.12,0.07,
3.067,-3.54,-4.86,-7.38,1.26,-1.13,0.08,
3.067,-3.54,-4.86,-7.38,1.20,-1.15,0.10,
3.068,-3.54,-4.86,-7.38,1.14,-1.18,0.13,
3.072,-4.09,-5.30,-7.59,1.14,-1.18,0.13,
3.073,-4.09,-5.30,-7.59,1.09,-1.21,0.15,
3.073,-4.09,-5.30,-7.59,1.01,-1.28,0.16,
3.073,-4.09,-5.30,-7.59,0.99,-1.30,0.16,
3.076,-4.09,-5.30,-7.59,1.02,-1.34,0.14,
3.077,-4.09,-5.30,-7.59,1.23,-1.43,0.06,
3.079,-1.22,-6.19,-0.49,1.23,-1.43,0.06,
3.08,-1.22,-6.19,-0.49,1.51,-1.58,-0.08,
3.082,-1.22,-6.19,-0.49,1.98,-1.86,-0.33,
3.083,-1.22,-6.19,-0.49,2.14,-1.97,-0.42,
3.085,-1.22,-6.19,-0.49,2.45,-2.19,-0.60,
3.087,-1.22,-6.19,-0.49,2.74,-2.40,-0.77,
3.091,3.54,-8.58,8.61,2.74,-2.40,-0.77,
3.091,3.54,-8.58,8.61,3.01,-2.60,-0.93,
3.092,3.54,-8.58,8.61,3.38,-2.89,-1.15,
3.093,3.54,-8.58,8.61,3.49,-2.97,-1.21,
3.096,3.54,-8.58,8.61,3.68,-3.10,-1.31,
3.097,3.54,-8.58,8.61,3.84,-3.19,-1.40,
3.099,1.66,-10.19,6.67,3.84,-3.19,-1.40,
3.1,1.66,-10.19,6.67,3.97,-3.22,-1.46,
3.102,1.66,-10.19,6.67,4.10,-3.16,-1.54,
3.104,1.66,-10.19,6.67,4.13,-3.11,-1.56,
3.106,1.66,-10.19,6.67,4.16,-2.97,-1.59,
3.107,1.66,-10.19,6.67,4.15,-2.79,-1.61,
3.11,-1.18,-11.85,1.68,4.15,-2.79,-1.61,
3.11,-1.18,-11.85,1.68,4.13,-2.57,-1.61,
3.112,-1.18,-11.85,1.68,4.06,-2.18,-1.59,
3.113,-1.18,-11.85,1.68,4.03,-2.03,-1.58,
3.115,-1.18,-11.85,1.68,3.96,-1.69,-1.55,
3.117,-1.18,-11.85,1.68,3.88,-1.33,-1.53,
3.121,-4.11,-12.35,-1.94,3.88,-1.33,-1.53,
3.122,-4.11,-12.35,-1.94,3.80,-0.97,-1.52,
3.123,-4.11,-12.35,-1.94,3.68,-0.45,-1.52,
3.124,-4.11,-12.35,-1.94,3.64,-0.29,-1.52,
3.126,-4.11,-12.35,-1.94,3.57,-0.02,-1.54,
3.128,-4.11,-12.35,-1.94,3.51,0.21,-1.56,
3.13,-4.85,-9.98,-3.33,3.51,0.21,-1.56,
3.131,-4.85,-9.98,-3.33,3.47,0.39,-1.58,
3.133,-4.85,-9.98,-3.33,3.41,0.57,-1.62,
3.134,-4.85,-9.98,-3.33,3.38,0.63,-1.65,
3.137,-4.85,-9.98,-3.33,3.37,0.66,-1.67,
3.138,-4.85,-9.98,-3.33,3.36,0.67,-1.70,
3.142,-4.71,-7.23,-3.02,3.36,0.67,-1.70,
3.142,-4.71,-7.23,-3.02,3.36,0.65,-1.74,
3.143,-4.71,-7.23,-3.02,3.36,0.55,-1.79,
3.144,-4.71,-7.23,-3.02,3.36,0.50,-1.81,
3.146,-4.71,-7.23,-3.02,3.37,0.38,-1.84,
3.148,-4.71,-7.23,-3.02,3.39,0.24,-1.86,
3.15,-4.60,-5.29,-2.73,3.39,0.24,-1.86,
3.15,-4.60,-5.29,-2.73,3.40,0.08,-1.88,
3.154,-4.60,-5.29,-2.73,3.42,-0.15,-1.92,
3.155,-4.60,-5.29,-2.73,3.43,-0.23,-1.93,
3.157,-4.60,-5.29,-2.73,3.44,-0.36,-1.97,
3.158,-4.60,-5.29,-2.73,3.45,-0.48,-2.00,
3.16,-4.60,-3.43,-3.84,3.45,-0.48,-2.00,
3.16,-4.60,-3.43,-3.84,3.45,-0.56,-2.03,
3.163,-4.60,-3.43,-3.84,3.44,-0.63,-2.09,
3.164,-4.60,-3.43,-3.84,3.43,-0.63,-2.13,
3.166,-4.60,-3.43,-3.84,3.43,-0.62,-2.16,
3.168,-4.60,-3.43,-3.84,3.42,-0.58,-2.20,
3.173,-4.39,-1.72,-6.42,3.42,-0.58,-2.20,
3.204,-4.39,-1.72,-6.42,3.41,-0.51,-2.24,
3.205,-4.39,-1.72,-6.42,3.40,-0.38,-2.30,
3.205,-4.39,-1.72,-6.42,3.39,-0.32,-2.32,
3.205,-4.39,-1.72,-6.42,3.39,-0.21,-2.36,
3.206,-4.39,-1.72,-6.42,3.38,-0.08,-2.39,
3.206,-3.82,-0.02,-7.54,3.38,-0.08,-2.39,
3.207,-3.82,-0.02,-7.54,3.39,0.05,-2.42,
3.207,-3.82,-0.02,-7.54,3.40,0.24,-2.46,
3.208,-3.82,-0.02,-7.54,3.41,0.31,-2.47,
3.208,-3.82,-0.02,-7.54,3.43,0.42,-2.49,
3.208,-3.82,-0.02,-7.54,3.45,0.54,-2.49,
3.209,-3.57,1.27,-7.26,3.45,0.54,-2.49,
3.209,-3.57,1.27,-7.26,3.48,0.64,-2.50,
3.21,-3.57,1.27,-7.26,3.53,0.79,-2.50,
3.21,-3.57,1.27,-7.26,3.56,0.87,-2.49,
3.21,-3.57,1.27,-7.26,3.58,0.91,-2.49,
3.211,-3.57,1.27,-7.26,3.62,0.96,-2.48,
3.211,-2.69,2.35,-6.06,3.62,0.96,-2.48,
3.211,-2.69,2.35,-6.06,3.65,1.01,-2.46,
3.211,-2.69,2.35,-6.06,3.69,1.06,-2.43,
3.212,-2.69,2.35,-6.06,3.70,1.07,-2.42,
3.212,-2.69,2.35,-6.06,3.72,1.09,-2.40,
3.212,-2.69,2.35,-6.06,3.72,1.11,-2.37,
3.212,-1.89,3.31,-5.76,3.72,1.11,-2.37,
3.213,-1.89,3.31,-5.76,3.72,1.13,-2.34,
3.213,-1.89,3.31,-5.76,3.69,1.16,-2.29,
3.218,-1.89,3.31,-5.76,3.67,1.18,-2.25,
3.218,-1.89,3.31,-5.76,3.65,1.19,-2.23,
3.219,-1.89,3.31,-5.76,3.60,1.22,-2.19,
3.22,-1.07,4.48,-6.21,3.60,1.22,-2.19,
3.221,-1.07,4.48,-6.21,3.54,1.24,-2.15,
3.235,-1.07,4.48,-6.21,3.43,1.27,-2.07,
3.236,-1.07,4.48,-6.21,3.34,1.30,-2.02,
3.236,-1.07,4.48,-6.21,3.29,1.31,-1.99,
3.237,-1.07,4.48,-6.21,3.19,1.33,-1.92,
3.237,-1.09,5.52,-7.29,3.19,1.33,-1.92,
3.237,-1.09,5.52,-7.29,3.08,1.36,-1.85,
3.238,-1.09,5.52,-7.29,2.92,1.39,-1.73,
3.238,-1.09,5.52,-7.29,2.86,1.39,-1.68,
3.238,-1.09,5.52,-7.29,2.76,1.41,-1.60,
3.244,-1.09,5.52,-7.29,2.65,1.42,-1.51,
3.245,-0.94,6.81,-7.59,2.65,1.42,-1.51,
3.245,-0.94,6.81,-7.59,2.55,1.44,-1.42,
3.245,-0.94,6.81,-7.59,2.40,1.46,-1.28,
3.245,-0.94,6.81,-7.59,2.35,1.46,-1.23,
3.246,-0.94,6.81,-7.59,2.25,1.48,-1.13,
3.248,-0.94,6.81,-7.59,2.16,1.50,-1.04,
3.251,-0.92,7.90,-7.34,2.16,1.50,-1.04,
3.251,-0.92,7.90,-7.34,2.08,1.53,-0.94,
3.266,-0.92,7.90,-7.34,1.96,1.57,-0.81,
3.266,-0.92,7.90,-7.34,1.93,1.59,-0.77,
3.267,-0.92,7.90,-7.34,1.86,1.62,-0.68,
3.267,-0.92,7.90,-7.34,1.80,1.64,-0.59,
3.267,-0.14,8.23,-7.08,1.80,1.64,-0.59,
3.268,-0.14,8.23,-7.08,1.74,1.68,-0.51,
3.268,-0.14,8.23,-7.08,1.66,1.74,-0.39,
3.268,-0.14,8.23,-7.08,1.61,1.77,-0.31,
3.275,-0.14,8.23,-7.08,1.59,1.79,-0.27,
3.275,-0.14,8.23,-7.08,1.55,1.82,-0.20,
3.275,0.23,8.43,-6.84,1.55,1.82,-0.20,
3.276,0.23,8.43,-6.84,1.51,1.84,-0.12,
3.276,0.23,8.43,-6.84,1.45,1.86,-0.02,
3.276,0.23,8.43,-6.84,1.44,1.86,0.02,
3.276,0.23,8.43,-6.84,1.40,1.85,0.08,
3.278,0.23,8.43,-6.84,1.37,1.84,0.15,
3.28,0.73,7.93,-7.01,1.37,1.84,0.15,
3.28,0.73,7.93,-7.01,1.33,1.81,0.20,
3.283,0.73,7.93,-7.01,1.27,1.76,0.27,
3.284,0.73,7.93,-7.01,1.25,1.74,0.30,
3.287,0.73,7.93,-7.01,1.21,1.69,0.33,
3.289,0.73,7.93,-7.01,1.17,1.63,0.37,
3.29,1.04,7.46,-7.09,1.17,1.63,0.37,
3.291,1.04,7.46,-7.09,1.12,1.57,0.40,
3.293,1.04,7.46,-7.09,1.06,1.48,0.43,
3.294,1.04,7.46,-7.09,1.04,1.45,0.44,
3.295,1.04,7.46,-7.09,0.99,1.38,0.45,
3.297,1.04,7.46,-7.09,0.95,1.31,0.46,
3.299,1.69,6.50,-6.98,0.95,1.31,0.46,
3.3,1.69,6.50,-6.98,0.90,1.24,0.46,
3.303,1.69,6.50,-6.98,0.84,1.15,0.44,
3.304,1.69,6.50,-6.98,0.82,1.11,0.43,
3.306,1.69,6.50,-6.98,0.78,1.05,0.42,
3.311,1.69,6.50,-6.98,0.74,1.00,0.39,
3.311,2.48,5.73,-6.21,0.74,1.00,0.39,
3.311,2.48,5.73,-6.21,0.70,0.94,0.36,
3.314,2.48,5.73,-6.21,0.65,0.86,0.31,
3.315,2.48,5.73,-6.21,0.63,0.83,0.29,
3.315,2.48,5.73,-6.21,0.59,0.79,0.25,
3.319,2.48,5.73,-6.21,0.55,0.75,0.21,
3.326,3.11,4.65,-5.84,0.55,0.75,0.21,
3.327,3.11,4.65,-5.84,0.52,0.71,0.17,
3.327,3.11,4.65,-5.84,0.45,0.66,0.11,
3.327,3.11,4.65,-5.84,0.44,0.65,0.09,
3.328,3.11,4.65,-5.84,0.39,0.63,0.05,
3.328,3.11,4.65,-5.84,0.35,0.62,0.01,
3.33,3.66,3.88,-5.83,0.35,0.62,0.01,
3.33,3.66,3.88,-5.83,0.31,0.62,-0.03,
3.333,3.66,3.88,-5.83,0.24,0.63,-0.08,
3.334,3.66,3.88,-5.83,0.19,0.64,-0.12,
3.353,3.66,3.88,-5.83,0.15,0.65,-0.15,
3.37,3.66,3.88,-5.83,0.13,0.65,-0.16,
3.37,3.44,3.74,-5.77,0.13,0.65,-0.16,
3.37,3.44,3.74,-5.77,0.08,0.67,-0.19,
3.371,3.44,3.74,-5.77,0.01,0.70,-0.23,
3.371,3.44,3.74,-5.77,-0.01,0.71,-0.24,
3.371,3.44,3.74,-5.77,-0.06,0.73,-0.26,
3.371,3.44,3.74,-5.77,-0.11,0.75,-0.29,
3.371,3.24,3.87,-5.76,-0.11,0.75,-0.29,
3.371,3.24,3.87,-5.76,-0.15,0.77,-0.30,
3.371,3.24,3.87,-5.76,-0.22,0.80,-0.33,
3.372,3.24,3.87,-5.76,-0.25,0.81,-0.33,
3.372,3.24,3.87,-5.76,-0.30,0.82,-0.35,
3.372,3.24,3.87,-5.76,-0.35,0.83,-0.36,
3.372,2.48,4.39,-5.82,-0.35,0.83,-0.36,
3.372,2.48,4.39,-5.82,-0.41,0.83,-0.36,
3.372,2.48,4.39,-5.82,-0.48,0.84,-0.37,
3.373,2.48,4.39,-5.82,-0.53,0.85,-0.36,
3.373,2.48,4.39,-5.82,-0.56,0.85,-0.36,
3.373,2.48,4.39,-5.82,-0.60,0.86,-0.35,
3.373,1.04,5.14,-5.32,-0.60,0.86,-0.35,
3.373,1.04,5.14,-5.32,-0.64,0.87,-0.34,
3.373,1.04,5.14,-5.32,-0.70,0.89,-0.31,
3.374,1.04,5.14,-5.32,-0.73,0.91,-0.29,
3.375,1.04,5.14,-5.32,-0.75,0.91,-0.28,
3.377,1.04,5.14,-5.32,-0.78,0.92,-0.26,
3.379,-0.81,5.68,-3.55,-0.78,0.92,-0.26,
3.38,-0.81,5.68,-3.55,-0.80,0.93,-0.22,
3.382,-0.81,5.68,-3.55,-0.84,0.94,-0.17,
3.383,-0.81,5.68,-3.55,-0.86,0.95,-0.14,
3.386,-0.81,5.68,-3.55,-0.87,0.95,-0.12,
3.387,-0.81,5.68,-3.55,-0.89,0.95,-0.08,
3.39,-2.85,5.98,-1.31,-0.89,0.95,-0.08,
3.39,-2.85,5.98,-1.31,-0.91,0.94,-0.04,
3.393,-2.85,5.98,-1.31,-0.94,0.93,0.01,
3.394,-2.85,5.98,-1.31,-0.97,0.91,0.05,
3.396,-2.85,5.98,-1.31,-0.98,0.90,0.06,
3.398,-2.85,5.98,-1.31,-1.02,0.88,0.09,
3.399,-3.59,5.50,0.52,-1.02,0.88,0.09,
3.4,-3.59,5.50,0.52,-1.06,0.85,0.10,
3.404,-3.59,5.50,0.52,-1.15,0.77,0.12,
3.405,-3.59,5.50,0.52,-1.23,0.71,0.13,
3.407,-3.59,5.50,0.52,-1.27,0.67,0.13,
3.407,-3.59,5.50,0.52,-1.37,0.59,0.14,
3.412,-3.01,4.71,0.82,-1.37,0.59,0.14,
3.412,-3.01,4.71,0.82,-1.48,0.50,0.14,
3.415,-3.01,4.71,0.82,-1.67,0.35,0.15,
3.416,-3.01,4.71,0.82,-1.81,0.24,0.15,
3.416,-3.01,4.71,0.82,-1.88,0.19,0.15,
3.419,-3.01,4.71,0.82,-2.02,0.09,0.15,
3.42,-1.57,4.03,-0.04,-2.02,0.09,0.15,
3.42,-1.57,4.03,-0.04,-2.15,-0.02,0.14,
3.425,-1.57,4.03,-0.04,-2.32,-0.20,0.13,
3.426,-1.57,4.03,-0.04,-2.40,-0.34,0.12,
3.426,-1.57,4.03,-0.04,-2.42,-0.42,0.11,
3.427,-1.57,4.03,-0.04,-2.42,-0.59,0.09,
3.432,0.34,3.69,4.88,-2.42,-0.59,0.09,
3.432,0.34,3.69,4.88,-2.34,-0.78,0.06,
3.434,0.34,3.69,4.88,-2.05,-1.07,0.02,
3.435,0.34,3.69,4.88,-1.77,-1.22,-0.01,
3.436,0.34,3.69,4.88,-1.61,-1.26,-0.03,
3.443,0.34,3.69,4.88,-1.28,-1.26,-0.08,
3.444,1.10,1.84,22.69,-1.28,-1.26,-0.08,
3.445,1.10,1.84,22.69,-0.99,-1.11,-0.15,
3.445,1.10,1.84,22.69,-0.68,-0.66,-0.30,
3.445,1.10,1.84,22.69,-0.58,-0.30,-0.43,
3.445,1.10,1.84,22.69,-0.57,-0.13,-0.50,
3.448,1.10,1.84,22.69,-0.61,0.13,-0.64,
3.45,3.92,-8.09,19.99,-0.61,0.13,-0.64,
3.45,3.92,-8.09,19.99,-0.74,0.23,-0.75,
3.48,3.92,-8.09,19.99,-1.10,-0.01,-0.85,
3.481,3.92,-8.09,19.99,-1.44,-0.43,-0.86,
3.481,3.92,-8.09,19.99,-1.65,-0.69,-0.85,
3.481,3.92,-8.09,19.99,-2.13,-1.28,-0.77,
3.481,2.67,-15.70,-4.19,-2.13,-1.28,-0.77,
3.482,2.67,-15.70,-4.19,-2.64,-1.86,-0.64,
3.482,2.67,-15.70,-4.19,-3.41,-2.60,-0.39,
3.482,2.67,-15.70,-4.19,-3.87,-2.94,-0.18,
3.482,2.67,-15.70,-4.19,-4.08,-3.06,-0.07,
3.482,2.67,-15.70,-4.19,-4.45,-3.20,0.15,
3.482,-4.16,-16.68,-23.11,-4.45,-3.20,0.15,
3.483,-4.16,-16.68,-23.11,-4.73,-3.23,0.40,
3.483,-4.16,-16.68,-23.11,-5.01,-3.09,0.76,
3.483,-4.16,-16.68,-23.11,-5.10,-2.93,0.99,
3.483,-4.16,-16.68,-23.11,-5.11,-2.84,1.10,
3.484,-4.16,-16.68,-23.11,-5.06,-2.63,1.31,
3.484,-7.66,-14.99,-18.46,-5.06,-2.63,1.31,
3.484,-7.66,-14.99,-18.46,-4.96,-2.43,1.49,
3.484,-7.66,-14.99,-18.46,-4.68,-2.18,1.66,
3.485,-7.66,-14.99,-18.46,-4.42,-2.08,1.71,
3.487,-7.66,-14.99,-18.46,-4.27,-2.05,1.71,
3.488,-7.66,-14.99,-18.46,-3.93,-2.03,1.67,
3.491,-4.32,-12.24,-4.63,-3.93,-2.03,1.67,
3.491,-4.32,-12.24,-4.63,-3.55,-2.05,1.58,
3.493,-4.32,-12.24,-4.63,-2.78,-2.03,1.32,
3.494,-4.32,-12.24,-4.63,-2.59,-2.00,1.24,
3.495,-4.32,-12.24,-4.63,-2.42,-1.95,1.15,
3.498,-4.32,-12.24,-4.63,-2.10,-1.81,0.99,
3.5,0.82,-8.15,3.47,-2.10,-1.81,0.99,
3.5,0.82,-8.15,3.47,-1.82,-1.62,0.82,
3.503,0.82,-8.15,3.47,-1.47,-1.25,0.57,
3.524,0.82,-8.15,3.47,-1.29,-0.98,0.41,
3.525,0.82,-8.15,3.47,-1.21,-0.83,0.33,
3.525,0.82,-8.15,3.47,-1.08,-0.54,0.18,
3.525,2.73,-3.30,1.78,-1.08,-0.54,0.18,
3.525,2.73,-3.30,1.78,-0.98,-0.25,0.03,
3.526,2.73,-3.30,1.78,-0.90,0.17,-0.19,
3.526,2.73,-3.30,1.78,-0.89,0.42,-0.33,
3.526,2.73,-3.30,1.78,-0.89,0.54,-0.40,
3.526,2.73,-3.30,1.78,-0.93,0.76,-0.53,
3.527,3.83,0.30,-1.58,-0.93,0.76,-0.53,
3.527,3.83,0.30,-1.58,-1.00,0.96,-0.65,
3.527,3.83,0.30,-1.58,-1.17,1.20,-0.81,
3.527,3.83,0.30,-1.58,-1.23,1.26,-0.86,
3.528,3.83,0.30,-1.58,-1.38,1.36,-0.95,
3.528,3.83,0.30,-1.58,-1.54,1.43,-1.02,
3.531,3.97,1.15,-5.98,-1.54,1.43,-1.02,
3.531,3.97,1.15,-5.98,-1.71,1.46,-1.07,
3.532,3.97,1.15,-5.98,-1.93,1.47,-1.09,
3.533,3.97,1.15,-5.98,-2.00,1.46,-1.09,
3.536,3.97,1.15,-5.98,-2.13,1.43,-1.06,
3.538,3.97,1.15,-5.98,-2.24,1.36,-1.01,
3.541,1.47,0.41,-6.15,-2.24,1.36,-1.01,
3.541,1.47,0.41,-6.15,-2.33,1.27,-0.93,
3.545,1.47,0.41,-6.15,-2.44,1.09,-0.80,
3.545,1.47,0.41,-6.15,-2.49,0.95,-0.69,
3.546,1.47,0.41,-6.15,-2.51,0.87,-0.63,
3.549,1.47,0.41,-6.15,-2.54,0.71,-0.50,
3.55,-1.08,-0.99,-3.10,-2.54,0.71,-0.50,
3.55,-1.08,-0.99,-3.10,-2.55,0.54,-0.37,
3.552,-1.08,-0.99,-3.10,-2.55,0.30,-0.15,
3.554,-1.08,-0.99,-3.10,-2.55,0.22,-0.08,
3.555,-1.08,-0.99,-3.10,-2.53,0.07,0.08,
3.558,-1.08,-0.99,-3.10,-2.51,-0.06,0.23,
3.559,-2.84,-1.89,-0.32,-2.51,-0.06,0.23,
3.56,-2.84,-1.89,-0.32,-2.48,-0.19,0.38,
3.562,-2.84,-1.89,-0.32,-2.41,-0.39,0.67,
3.563,-2.84,-1.89,-0.32,-2.40,-0.43,0.74,
3.565,-2.84,-1.89,-0.32,-2.38,-0.47,0.81,
3.58,-2.84,-1.89,-0.32,-2.35,-0.53,0.93,
3.581,-3.14,-1.82,0.22,-2.35,-0.53,0.93,
3.581,-3.14,-1.82,0.22,-2.32,-0.58,1.04,
3.582,-3.14,-1.82,0.22,-2.28,-0.64,1.19,
3.582,-3.14,-1.82,0.22,-2.26,-0.66,1.27,
3.582,-3.14,-1.82,0.22,-2.25,-0.67,1.30,
3.582,-3.14,-1.82,0.22,-2.23,-0.69,1.37,
3.582,-2.09,-1.25,-0.73,-2.23,-0.69,1.37,
3.583,-2.09,-1.25,-0.73,-2.22,-0.70,1.43,
3.583,-2.09,-1.25,-0.73,-2.21,-0.69,1.49,
3.584,-2.09,-1.25,-0.73,-2.21,-0.69,1.52,
3.612,-2.09,-1.25,-0.73,-2.21,-0.68,1.54,
3.612,-2.09,-1.25,-0.73,-2.20,-0.65,1.57,
3.613,-1.12,-0.69,-1.82,-2.20,-0.65,1.57,
3.613,-1.12,-0.69,-1.82,-2.20,-0.62,1.58,
3.613,-1.12,-0.69,-1.82,-2.20,-0.58,1.59,
3.613,-1.12,-0.69,-1.82,-2.20,-0.54,1.59,
3.613,-1.12,-0.69,-1.82,-2.20,-0.49,1.59,
3.614,-1.12,-0.69,-1.82,-2.19,-0.44,1.58,
3.614,-0.44,-0.40,-2.01,-2.19,-0.44,1.58,
3.614,-0.44,-0.40,-2.01,-2.19,-0.38,1.56,
3.614,-0.44,-0.40,-2.01,-2.17,-0.28,1.54,
3.614,-0.44,-0.40,-2.01,-2.17,-0.25,1.53,
3.614,-0.44,-0.40,-2.01,-2.16,-0.18,1.50,
3.615,-0.44,-0.40,-2.01,-2.14,-0.11,1.47,
3.615,-0.02,-0.41,-1.59,-2.14,-0.11,1.47,
3.615,-0.02,-0.41,-1.59,-2.13,-0.05,1.44,
3.615,-0.02,-0.41,-1.59,-2.10,0.05,1.39,
3.615,-0.02,-0.41,-1.59,-2.09,0.08,1.37,
3.616,-0.02,-0.41,-1.59,-2.07,0.13,1.33,
3.62,-0.02,-0.41,-1.59,-2.05,0.17,1.29,
3.62,0.26,-0.56,-0.95,-2.05,0.17,1.29,
3.62,0.26,-0.56,-0.95,-2.03,0.21,1.25,
3.629,0.26,-0.56,-0.95,-2.00,0.24,1.21,
3.629,0.26,-0.56,-0.95,-1.98,0.27,1.17,
3.629,0.26,-0.56,-0.95,-1.96,0.28,1.12,
3.629,0.26,-0.56,-0.95,-1.94,0.29,1.08,
3.63,0.41,-0.66,-0.48,-1.94,0.29,1.08,
3.63,0.41,-0.66,-0.48,-1.91,0.29,1.04,
3.633,0.41,-0.66,-0.48,-1.89,0.29,1.00,
3.637,0.41,-0.66,-0.48,-1.87,0.28,0.96,
3.639,0.41,-0.66,-0.48,-1.85,0.26,0.91,
3.639,0.41,-0.66,-0.48,-1.83,0.24,0.87,
3.64,0.50,-0.57,-0.14,-1.83,0.24,0.87,
3.64,0.50,-0.57,-0.14,-1.81,0.22,0.82,
3.642,0.50,-0.57,-0.14,-1.79,0.19,0.78,
3.643,0.50,-0.57,-0.14,-1.77,0.17,0.74,
3.645,0.50,-0.57,-0.14,-1.75,0.14,0.69,
3.647,0.50,-0.57,-0.14,-1.74,0.11,0.65,
3.649,0.74,-0.39,0.02,-1.74,0.11,0.65,
3.65,0.74,-0.39,0.02,-1.72,0.08,0.61,
3.653,0.74,-0.39,0.02,-1.71,0.03,0.55,
3.654,0.74,-0.39,0.02,-1.71,0.02,0.53,
3.655,0.74,-0.39,0.02,-1.70,-0.01,0.49,
3.658,0.74,-0.39,0.02,-1.69,-0.04,0.46,
3.659,1.10,-0.08,0.11,-1.69,-0.04,0.46,
3.66,1.10,-0.08,0.11,-1.69,-0.07,0.43,
3.662,1.10,-0.08,0.11,-1.69,-0.11,0.39,
3.663,1.10,-0.08,0.11,-1.69,-0.14,0.37,
3.665,1.10,-0.08,0.11,-1.69,-0.17,0.34,
3.667,1.10,-0.08,0.11,-1.70,-0.20,0.31,
3.67,1.52,0.26,0.14,-1.70,-0.20,0.31,
3.688,1.52,0.26,0.14,-1.71,-0.23,0.29,
3.688,1.52,0.26,0.14,-1.72,-0.25,0.26,
3.688,1.52,0.26,0.14,-1.73,-0.27,0.24,
3.688,1.52,0.26,0.14,-1.75,-0.29,0.23,
3.689,1.52,0.26,0.14,-1.77,-0.32,0.21,
3.689,1.88,0.48,0.08,-1.77,-0.32,0.21,
3.689,1.88,0.48,0.08,-1.79,-0.34,0.20,
3.689,1.88,0.48,0.08,-1.81,-0.35,0.18,
3.689,1.88,0.48,0.08,-1.82,-0.36,0.17,
3.689,1.88,0.48,0.08,-1.86,-0.38,0.16,
3.689,1.88,0.48,0.08,-1.87,-0.38,0.15,
3.69,2.23,0.54,0.10,-1.87,-0.38,0.15,
3.69,2.23,0.54,0.10,-1.89,-0.39,0.15,
3.692,2.23,0.54,0.10,-1.91,-0.39,0.14,
3.693,2.23,0.54,0.10,-1.93,-0.40,0.13,
3.695,2.23,0.54,0.10,-1.95,-0.40,0.13,
3.697,2.23,0.54,0.10,-1.97,-0.40,0.13,
3.699,2.25,0.64,0.10,-1.97,-0.40,0.13,
3.702,2.25,0.64,0.10,-1.99,-0.39,0.13,
3.702,2.25,0.64,0.10,-2.01,-0.39,0.13,
3.703,2.25,0.64,0.10,-2.02,-0.39,0.13,
3.705,2.25,0.64,0.10,-2.03,-0.39,0.14,
3.709,2.25,0.64,0.10,-2.04,-0.38,0.14,
3.711,2.25,0.74,0.08,-2.04,-0.38,0.14,
3.712,2.25,0.74,0.08,-2.05,-0.37,0.14,
3.717,2.25,0.74,0.08,-2.06,-0.37,0.15,
3.717,2.25,0.74,0.08,-2.06,-0.36,0.15,
3.717,2.25,0.74,0.08,-2.07,-0.36,0.16,
3.724,2.25,0.74,0.08,-2.06,-0.35,0.16,
3.724,2.22,0.84,0.14,-2.06,-0.35,0.16,
3.724,2.22,0.84,0.14,-2.06,-0.34,0.17,
3.724,2.22,0.84,0.14,-2.05,-0.33,0.17,
3.724,2.22,0.84,0.14,-2.04,-0.32,0.17,
3.727,2.22,0.84,0.14,-2.03,-0.30,0.18,
3.727,2.22,0.84,0.14,-2.01,-0.29,0.18,
3.731,2.25,0.90,0.19,-2.01,-0.29,0.18,
3.731,2.25,0.90,0.19,-1.99,-0.27,0.19,
3.734,2.25,0.90,0.19,-1.97,-0.24,0.19,
3.735,2.25,0.90,0.19,-1.95,-0.22,0.20,
3.757,2.25,0.90,0.19,-1.92,-0.20,0.21,
3.758,2.25,0.90,0.19,-1.89,-0.18,0.22,
3.758,2.00,0.97,0.25,-1.89,-0.18,0.22,
3.758,2.00,0.97,0.25,-1.86,-0.16,0.24,
3.758,2.00,0.97,0.25,-1.80,-0.13,0.26,
3.758,2.00,0.97,0.25,-1.78,-0.11,0.26,
3.758,2.00,0.97,0.25,-1.74,-0.10,0.28,
3.759,2.00,0.97,0.25,-1.70,-0.08,0.30,
3.759,1.71,1.04,0.42,-1.70,-0.08,0.30,
3.759,1.71,1.04,0.42,-1.65,-0.06,0.32,
3.759,1.71,1.04,0.42,-1.58,-0.03,0.35,
3.759,1.71,1.04,0.42,-1.55,-0.02,0.36,
3.76,1.71,1.04,0.42,-1.50,-0.01,0.38,
3.76,1.71,1.04,0.42,-1.45,0.01,0.39,
3.76,1.57,0.89,0.55,-1.45,0.01,0.39,
3.76,1.57,0.89,0.55,-1.40,0.02,0.41,
3.762,1.57,0.89,0.55,-1.33,0.05,0.43,
3.766,1.57,0.89,0.55,-1.30,0.06,0.44,
3.766,1.57,0.89,0.55,-1.25,0.09,0.45,
3.771,1.57,0.89,0.55,-1.20,0.12,0.46,
3.773,1.70,0.49,0.78,-1.20,0.12,0.46,
3.773,1.70,0.49,0.78,-1.14,0.17,0.46,
3.774,1.70,0.49,0.78,-1.08,0.22,0.47,
3.775,1.70,0.49,0.78,-1.01,0.28,0.47,
3.775,1.70,0.49,0.78,-0.94,0.35,0.46,
3.777,1.70,0.49,0.78,-0.86,0.43,0.46,
3.78,2.04,-0.10,1.23,-0.86,0.43,0.46,
3.78,2.04,-0.10,1.23,-0.78,0.52,0.45,
3.782,2.04,-0.10,1.23,-0.69,0.61,0.44,
3.784,2.04,-0.10,1.23,-0.60,0.71,0.44,
3.786,2.04,-0.10,1.23,-0.51,0.80,0.43,
3.788,2.04,-0.10,1.23,-0.42,0.89,0.42,
3.79,2.54,-0.78,1.97,-0.42,0.89,0.42,
3.79,2.54,-0.78,1.97,-0.33,0.98,0.41,
3.793,2.54,-0.78,1.97,-0.24,1.07,0.39,
3.798,2.54,-0.78,1.97,-0.16,1.16,0.37,
3.798,2.54,-0.78,1.97,-0.08,1.25,0.34,
3.798,2.54,-0.78,1.97,-0.01,1.34,0.31,
3.802,3.35,-1.62,2.51,-0.01,1.34,0.31,
3.802,3.35,-1.62,2.51,0.06,1.44,0.28,
3.802,3.35,-1.62,2.51,0.15,1.60,0.22,
3.804,3.35,-1.62,2.51,0.18,1.66,0.21,
3.806,3.35,-1.62,2.51,0.24,1.79,0.18,
3.807,3.35,-1.62,2.51,0.29,1.93,0.16,
3.81,3.65,-1.94,3.06,0.29,1.93,0.16,
3.81,3.65,-1.94,3.06,0.33,2.08,0.13,
3.812,3.65,-1.94,3.06,0.38,2.31,0.10,
3.814,3.65,-1.94,3.06,0.39,2.39,0.09,
3.815,3.65,-1.94,3.06,0.40,2.54,0.08,
3.818,3.65,-1.94,3.06,0.41,2.69,0.06,
3.82,2.89,-1.37,3.13,0.41,2.69,0.06,
3.821,2.89,-1.37,3.13,0.41,2.84,0.05,
3.823,2.89,-1.37,3.13,0.39,3.04,0.03,
3.823,2.89,-1.37,3.13,0.38,3.10,0.02,
3.825,2.89,-1.37,3.13,0.35,3.21,0.01,
3.827,2.89,-1.37,3.13,0.32,3.30,-0.01,
3.83,2.28,-0.63,2.94,0.32,3.30,-0.01,
3.83,2.28,-0.63,2.94,0.29,3.37,-0.02,
3.833,2.28,-0.63,2.94,0.23,3.41,-0.04,
3.835,2.28,-0.63,2.94,0.21,3.42,-0.04,
3.837,2.28,-0.63,2.94,0.17,3.41,-0.05,
3.861,2.28,-0.63,2.94,0.12,3.38,-0.06,
3.861,1.45,-0.02,2.85,0.12,3.38,-0.06,
3.862,1.45,-0.02,2.85,0.07,3.33,-0.07,
3.862,1.45,-0.02,2.85,-0.00,3.24,-0.08,
3.862,1.45,-0.02,2.85,-0.03,3.20,-0.09,
3.862,1.45,-0.02,2.85,-0.08,3.11,-0.09,
3.863,1.45,-0.02,2.85,-0.13,3.01,-0.10,
3.863,0.76,0.27,2.98,-0.13,3.01,-0.10,
3.863,0.76,0.27,2.98,-0.18,2.91,-0.10,
3.863,0.76,0.27,2.98,-0.26,2.74,-0.11,
3.864,0.76,0.27,2.98,-0.28,2.68,-0.11,
3.864,0.76,0.27,2.98,-0.33,2.55,-0.11,
3.864,0.76,0.27,2.98,-0.39,2.41,-0.10,
3.864,0.08,0.32,2.75,-0.39,2.41,-0.10,
3.865,0.08,0.32,2.75,-0.44,2.26,-0.09,
3.865,0.08,0.32,2.75,-0.52,2.04,-0.08,
3.865,0.08,0.32,2.75,-0.55,1.96,-0.08,
3.866,0.08,0.32,2.75,-0.60,1.79,-0.07,
3.883,0.08,0.32,2.75,-0.66,1.63,-0.06,
3.883,-0.18,0.26,2.33,-0.66,1.63,-0.06,
3.883,-0.18,0.26,2.33,-0.71,1.47,-0.06,
3.884,-0.18,0.26,2.33,-0.79,1.22,-0.05,
3.884,-0.18,0.26,2.33,-0.81,1.14,-0.04,
3.884,-0.18,0.26,2.33,-0.86,0.98,-0.03,
3.885,-0.18,0.26,2.33,-0.90,0.83,-0.02,
3.885,-0.05,0.11,1.85,-0.90,0.83,-0.02,
3.885,-0.05,0.11,1.85,-0.94,0.69,-0.02,
3.885,-0.05,0.11,1.85,-1.00,0.48,-0.01,
3.886,-0.05,0.11,1.85,-1.02,0.42,-0.01,
3.89,-0.05,0.11,1.85,-1.05,0.30,-0.00,
3.891,-0.05,0.11,1.85,-1.09,0.19,0.00,
3.891,0.32,-0.21,1.44,-1.09,0.19,0.00,
3.892,0.32,-0.21,1.44,-1.12,0.08,0.00,
3.893,0.32,-0.21,1.44,-1.16,-0.06,0.00,
3.894,0.32,-0.21,1.44,-1.17,-0.10,-0.00,
3.896,0.32,-0.21,1.44,-1.20,-0.18,-0.00,
3.898,0.32,-0.21,1.44,-1.22,-0.24,-0.01,
3.913,0.77,-0.60,1.09,-1.22,-0.24,-0.01,
3.914,0.77,-0.60,1.09,-1.24,-0.30,-0.01,
3.914,0.77,-0.60,1.09,-1.27,-0.37,-0.02,
3.914,0.77,-0.60,1.09,-1.28,-0.39,-0.03,
3.914,0.77,-0.60,1.09,-1.30,-0.42,-0.03,
3.914,0.77,-0.60,1.09,-1.32,-0.43,-0.04,
3.915,1.34,-1.04,0.74,-1.32,-0.43,-0.04,
3.915,1.34,-1.04,0.74,-1.33,-0.44,-0.05,
3.915,1.34,-1.04,0.74,-1.35,-0.43,-0.07,
3.915,1.34,-1.04,0.74,-1.36,-0.43,-0.07,
3.915,1.34,-1.04,0.74,-1.37,-0.41,-0.08,
3.921,1.34,-1.04,0.74,-1.38,-0.38,-0.09,
3.922,1.69,-1.27,0.59,-1.38,-0.38,-0.09,
3.922,1.69,-1.27,0.59,-1.39,-0.36,-0.11,
3.923,1.69,-1.27,0.59,-1.41,-0.32,-0.12,
3.924,1.69,-1.27,0.59,-1.41,-0.30,-0.13,
3.925,1.69,-1.27,0.59,-1.42,-0.26,-0.13,
3.927,1.69,-1.27,0.59,-1.42,-0.23,-0.14,
3.929,1.95,-1.47,0.52,-1.42,-0.23,-0.14,
3.93,1.95,-1.47,0.52,-1.43,-0.19,-0.15,
3.933,1.95,-1.47,0.52,-1.43,-0.14,-0.16,
3.934,1.95,-1.47,0.52,-1.43,-0.12,-0.16,
3.936,1.95,-1.47,0.52,-1.43,-0.08,-0.16,
3.937,1.95,-1.47,0.52,-1.43,-0.04,-0.16,
3.939,1.85,-1.83,0.51,-1.43,-0.04,-0.16,
3.94,1.85,-1.83,0.51,-1.42,-0.00,-0.16,
3.942,1.85,-1.83,0.51,-1.41,0.05,-0.15,
3.943,1.85,-1.83,0.51,-1.41,0.07,-0.15,
3.945,1.85,-1.83,0.51,-1.40,0.11,-0.14,
3.947,1.85,-1.83,0.51,-1.39,0.15,-0.13,
3.95,1.78,-2.23,0.55,-1.39,0.15,-0.13,
3.95,1.78,-2.23,0.55,-1.39,0.19,-0.12,
3.952,1.78,-2.23,0.55,-1.38,0.25,-0.10,
3.953,1.78,-2.23,0.55,-1.37,0.27,-0.10,
3.955,1.78,-2.23,0.55,-1.37,0.31,-0.09,
3.957,1.78,-2.23,0.55,-1.37,0.35,-0.07,
3.959,1.59,-2.55,0.43,-1.37,0.35,-0.07,
3.959,1.59,-2.55,0.43,-1.37,0.39,-0.05,
3.962,1.59,-2.55,0.43,-1.38,0.45,-0.02,
3.963,1.59,-2.55,0.43,-1.38,0.47,-0.01,
3.965,1.59,-2.55,0.43,-1.39,0.50,0.01,
3.967,1.59,-2.55,0.43,-1.39,0.53,0.03,
3.97,1.45,-2.84,0.58,-1.39,0.53,0.03,
3.97,1.45,-2.84,0.58,-1.40,0.55,0.05,
3.972,1.45,-2.84,0.58,-1.40,0.57,0.09,
3.973,1.45,-2.84,0.58,-1.40,0.58,0.10,
3.975,1.45,-2.84,0.58,-1.39,0.58,0.12,
3.977,1.45,-2.84,0.58,-1.37,0.58,0.13,
3.979,1.52,-3.06,0.98,-1.37,0.58,0.13,
3.98,1.52,-3.06,0.98,-1.36,0.56,0.15,
3.991,1.52,-3.06,0.98,-1.32,0.53,0.16,
3.992,1.52,-3.06,0.98,-1.31,0.52,0.17,
3.992,1.52,-3.06,0.98,-1.28,0.49,0.18,
3.993,1.52,-3.06,0.98,-1.25,0.45,0.18,
3.993,1.97,-3.47,1.25,-1.25,0.45,0.18,
3.994,1.97,-3.47,1.25,-1.22,0.41,0.19,
3.994,1.97,-3.47,1.25,-1.17,0.33,0.20,
3.994,1.97,-3.47,1.25,-1.15,0.30,0.20,
3.997,1.97,-3.47,1.25,-1.11,0.24,0.21,
3.998,1.97,-3.47,1.25,-1.07,0.18,0.21,
4.012,2.10,-4.06,1.20,-1.07,0.18,0.21,
4.012,2.10,-4.06,1.20,-0.95,0.01,0.23,
4.013,2.10,-4.06,1.20,-0.95,0.01,0.23,
4.034,2.10,-4.06,1.20,-0.91,-0.04,0.24,
4.034,2.10,-4.06,1.20,-0.91,-0.04,0.24,
4.034,2.10,-4.06,1.20,-0.87,-0.08,0.24,
4.034,2.10,-4.71,1.21,-0.87,-0.08,0.24,
4.035,2.10,-4.71,1.21,-0.82,-0.12,0.25,
4.035,2.10,-4.71,1.21,-0.76,-0.17,0.24,
4.035,2.10,-4.71,1.21,-0.73,-0.19,0.24,
4.035,2.10,-4.71,1.21,-0.69,-0.21,0.23,
4.035,2.10,-4.71,1.21,-0.65,-0.23,0.22,
4.036,2.03,-5.27,1.21,-0.65,-0.23,0.22,
4.036,2.03,-5.27,1.21,-0.61,-0.24,0.21,
4.036,2.03,-5.27,1.21,-0.54,-0.25,0.19,
4.036,2.03,-5.27,1.21,-0.52,-0.26,0.18,
4.036,2.03,-5.27,1.21,-0.48,-0.26,0.17,
4.036,2.03,-5.27,1.21,-0.43,-0.25,0.15,
4.037,1.72,-5.80,1.27,-0.43,-0.25,0.15,
4.037,1.72,-5.80,1.27,-0.39,-0.24,0.14,
4.037,1.72,-5.80,1.27,-0.31,-0.22,0.11,
4.037,1.72,-5.80,1.27,-0.29,-0.20,0.10,
4.037,1.72,-5.80,1.27,-0.21,-0.16,0.08,
4.038,1.72,-5.80,1.27,-0.19,-0.14,0.07,
4.043,1.27,-6.29,1.39,-0.19,-0.14,0.07,
4.043,1.27,-6.29,1.39,-0.13,-0.11,0.05,
4.043,1.27,-6.29,1.39,-0.04,-0.04,0.03,
4.044,1.27,-6.29,1.39,-0.01,-0.02,0.02,
4.046,1.27,-6.29,1.39,0.04,0.04,-0.00,
4.047,1.27,-6.29,1.39,0.10,0.10,-0.02,
4.057,0.75,-6.58,1.84,0.10,0.10,-0.02,
4.057,0.75,-6.58,1.84,0.16,0.16,-0.05,
4.057,0.75,-6.58,1.84,0.25,0.28,-0.08,
4.058,0.75,-6.58,1.84,0.28,0.32,-0.10,
4.058,0.75,-6.58,1.84,0.34,0.42,-0.12,
4.058,0.75,-6.58,1.84,0.40,0.52,-0.13,
4.06,-0.35,-5.99,2.96,0.40,0.52,-0.13,
4.06,-0.35,-5.99,2.96,0.46,0.63,-0.14,
4.062,-0.35,-5.99,2.96,0.58,0.82,-0.14,
4.063,-0.35,-5.99,2.96,0.63,0.88,-0.14,
4.066,-0.35,-5.99,2.96,0.75,1.00,-0.12,
4.068,-0.35,-5.99,2.96,0.90,1.13,-0.08,
4.071,-3.09,-4.75,7.21,0.90,1.13,-0.08,
4.071,-3.09,-4.75,7.21,1.06,1.26,-0.04,
4.072,-3.09,-4.75,7.21,1.33,1.46,0.05,
4.074,-3.09,-4.75,7.21,1.42,1.53,0.08,
4.075,-3.09,-4.75,7.21,1.62,1.66,0.14,
4.077,-3.09,-4.75,7.21,1.82,1.79,0.21,
4.079,-5.40,-3.35,11.15,1.82,1.79,0.21,
4.08,-5.40,-3.35,11.15,2.02,1.91,0.27,
4.083,-5.40,-3.35,11.15,2.32,2.08,0.36,
4.084,-5.40,-3.35,11.15,2.42,2.13,0.39,
4.085,-5.40,-3.35,11.15,2.62,2.23,0.44,
4.087,-5.40,-3.35,11.15,2.81,2.30,0.49,
4.09,-5.41,-2.43,12.33,2.81,2.30,0.49,
4.09,-5.41,-2.43,12.33,3.00,2.37,0.53,
4.092,-5.41,-2.43,12.33,3.27,2.43,0.59,
4.094,-5.41,-2.43,12.33,3.35,2.44,0.61,
4.095,-5.41,-2.43,12.33,3.52,2.45,0.65,
4.097,-5.41,-2.43,12.33,3.67,2.45,0.68,
4.101,-4.34,-2.48,11.45,3.67,2.45,0.68,
4.102,-4.34,-2.48,11.45,3.82,2.43,0.71,
4.103,-4.34,-2.48,11.45,4.01,2.37,0.76,
4.104,-4.34,-2.48,11.45,4.06,2.34,0.77,
4.106,-4.34,-2.48,11.45,4.16,2.28,0.80,
4.107,-4.34,-2.48,11.45,4.25,2.20,0.83,
4.11,-3.66,-3.16,9.77,4.25,2.20,0.83,
4.111,-3.66,-3.16,9.77,4.31,2.10,0.85,
4.113,-3.66,-3.16,9.77,4.39,1.93,0.88,
4.114,-3.66,-3.16,9.77,4.41,1.87,0.89,
4.124,-3.66,-3.16,9.77,4.44,1.74,0.90,
4.124,-3.66,-3.16,9.77,4.46,1.59,0.90,
4.124,-2.96,-3.91,7.92,4.46,1.59,0.90,
4.125,-2.96,-3.91,7.92,4.47,1.44,0.90,
4.125,-2.96,-3.91,7.92,4.48,1.18,0.90,
4.125,-2.96,-3.91,7.92,4.48,1.09,0.89,
4.126,-2.96,-3.91,7.92,4.48,0.91,0.89,
4.127,-2.96,-3.91,7.92,4.48,0.72,0.88,
4.13,-2.73,-4.04,7.14,4.48,0.72,0.88,
4.131,-2.73,-4.04,7.14,4.46,0.52,0.88,
4.162,-2.73,-4.04,7.14,4.42,0.20,0.87,
4.163,-2.73,-4.04,7.14,4.40,0.09,0.86,
4.163,-2.73,-4.04,7.14,4.36,-0.13,0.85,
4.163,-2.73,-4.04,7.14,4.31,-0.35,0.83,
4.164,-2.52,-3.51,5.24,4.31,-0.35,0.83,
4.164,-2.52,-3.51,5.24,4.25,-0.57,0.80,
4.164,-2.52,-3.51,5.24,4.14,-0.91,0.75,
4.165,-2.52,-3.51,5.24,4.10,-1.02,0.73,
4.165,-2.52,-3.51,5.24,4.02,-1.23,0.69,
4.165,-2.52,-3.51,5.24,3.92,-1.44,0.64,
4.165,-1.28,-3.04,2.18,3.92,-1.44,0.64,
4.166,-1.28,-3.04,2.18,3.82,-1.63,0.58,
4.166,-1.28,-3.04,2.18,3.65,-1.89,0.50,
4.166,-1.28,-3.04,2.18,3.59,-1.97,0.47,
4.167,-1.28,-3.04,2.18,3.46,-2.13,0.41,
4.167,-1.28,-3.04,2.18,3.33,-2.28,0.35,
4.167,-0.29,-3.02,-1.48,3.33,-2.28,0.35,
4.167,-0.29,-3.02,-1.48,3.19,-2.42,0.29,
4.168,-0.29,-3.02,-1.48,2.97,-2.63,0.23,
4.168,-0.29,-3.02,-1.48,2.89,-2.69,0.21,
4.168,-0.29,-3.02,-1.48,2.73,-2.82,0.18,
4.169,-0.29,-3.02,-1.48,2.56,-2.93,0.16,
4.174,-0.33,-3.54,-5.93,2.56,-2.93,0.16,
4.206,-0.33,-3.54,-5.93,2.39,-3.04,0.14,
4.206,-0.33,-3.54,-5.93,2.13,-3.17,0.12,
4.207,-0.33,-3.54,-5.93,2.04,-3.20,0.11,
4.207,-0.33,-3.54,-5.93,1.86,-3.26,0.10,
4.207,-0.33,-3.54,-5.93,1.68,-3.31,0.08,
4.208,0.42,-4.07,-10.26,1.68,-3.31,0.08,
4.209,0.42,-4.07,-10.26,1.51,-3.34,0.07,
4.209,0.42,-4.07,-10.26,1.26,-3.34,0.05,
4.209,0.42,-4.07,-10.26,1.18,-3.34,0.05,
4.21,0.42,-4.07,-10.26,1.04,-3.31,0.04,
4.21,0.42,-4.07,-10.26,0.91,-3.26,0.03,
4.211,1.25,-4.25,-13.00,0.91,-3.26,0.03,
4.211,1.25,-4.25,-13.00,0.80,-3.20,0.03,
4.212,1.25,-4.25,-13.00,0.66,-3.07,0.01,
4.212,1.25,-4.25,-13.00,0.62,-3.02,0.01,
4.212,1.25,-4.25,-13.00,0.55,-2.91,-0.00,
4.213,1.25,-4.25,-13.00,0.49,-2.79,-0.01,
4.213,1.59,-4.55,-12.67,0.49,-2.79,-0.01,
4.214,1.59,-4.55,-12.67,0.44,-2.67,-0.02,
4.214,1.59,-4.55,-12.67,0.37,-2.49,-0.04,
4.214,1.59,-4.55,-12.67,0.36,-2.43,-0.04,
4.215,1.59,-4.55,-12.67,0.32,-2.29,-0.06,
4.215,1.59,-4.55,-12.67,0.31,-2.16,-0.07,
4.215,1.72,-4.95,-11.95,0.31,-2.16,-0.07,
4.216,1.72,-4.95,-11.95,0.30,-2.03,-0.10,
4.216,1.72,-4.95,-11.95,0.29,-1.84,-0.15,
4.216,1.72,-4.95,-11.95,0.29,-1.77,-0.17,
4.223,1.72,-4.95,-11.95,0.29,-1.61,-0.23,
4.223,1.72,-4.95,-11.95,0.28,-1.42,-0.29,
4.224,1.95,-4.93,-11.72,0.28,-1.42,-0.29,
4.224,1.95,-4.93,-11.72,0.27,-1.23,-0.36,
4.224,1.95,-4.93,-11.72,0.26,-0.91,-0.47,
4.224,1.95,-4.93,-11.72,0.25,-0.81,-0.51,
4.226,1.95,-4.93,-11.72,0.24,-0.62,-0.58,
4.228,1.95,-4.93,-11.72,0.23,-0.44,-0.65,
4.23,1.96,-4.64,-12.13,0.23,-0.44,-0.65,
4.231,1.96,-4.64,-12.13,0.23,-0.29,-0.70,
4.238,1.96,-4.64,-12.13,0.23,-0.10,-0.77,
4.238,1.96,-4.64,-12.13,0.23,-0.04,-0.78,
4.238,1.96,-4.64,-12.13,0.25,0.04,-0.81,
4.239,1.96,-4.64,-12.13,0.34,0.06,-0.84,
4.24,1.08,-3.82,-8.35,0.34,0.06,-0.84,
4.241,1.08,-3.82,-8.35,0.56,-0.05,-0.91,
4.243,1.08,-3.82,-8.35,1.16,-0.49,-1.08,
4.243,1.08,-3.82,-8.35,1.40,-0.68,-1.15,
4.245,1.08,-3.82,-8.35,1.92,-1.10,-1.31,
4.247,1.08,-3.82,-8.35,2.44,-1.54,-1.46,
4.258,4.65,-6.75,9.23,2.44,-1.54,-1.46,
4.259,4.65,-6.75,9.23,2.93,-1.96,-1.59,
4.259,4.65,-6.75,9.23,3.58,-2.49,-1.74,
4.26,4.65,-6.75,9.23,3.76,-2.63,-1.78,
4.26,4.65,-6.75,9.23,4.08,-2.88,-1.83,
4.26,4.65,-6.75,9.23,4.36,-3.06,-1.86,
4.26,1.30,-8.95,6.57,4.36,-3.06,-1.86,
4.261,1.30,-8.95,6.57,4.59,-3.18,-1.88,
4.288,1.30,-8.95,6.57,4.89,-3.25,-1.87,
4.288,1.30,-8.95,6.57,4.98,-3.25,-1.87,
4.289,1.30,-8.95,6.57,5.15,-3.18,-1.85,
4.289,1.30,-8.95,6.57,5.33,-3.06,-1.81,
4.289,-2.76,-9.11,1.31,5.33,-3.06,-1.81,
4.29,-2.76,-9.11,1.31,5.50,-2.88,-1.77,
4.29,-2.76,-9.11,1.31,5.76,-2.52,-1.68,
4.29,-2.76,-9.11,1.31,5.85,-2.37,-1.65,
4.291,-2.76,-9.11,1.31,6.02,-1.98,-1.58,
4.291,-2.76,-9.11,1.31,6.20,-1.43,-1.51,
4.291,-5.39,-8.40,2.44,6.20,-1.43,-1.51,
4.291,-5.39,-8.40,2.44,6.35,-0.77,-1.43,
4.292,-5.39,-8.40,2.44,6.45,0.31,-1.33,
4.292,-5.39,-8.40,2.44,6.46,0.68,-1.30,
4.292,-5.39,-8.40,2.44,6.45,1.39,-1.24,
4.292,-5.39,-8.40,2.44,6.40,2.06,-1.19,
4.293,-5.74,-6.97,0.34,6.40,2.06,-1.19,
4.293,-5.74,-6.97,0.34,6.30,2.68,-1.14,
4.293,-5.74,-6.97,0.34,6.10,3.45,-1.07,
4.293,-5.74,-6.97,0.34,6.02,3.66,-1.05,
4.3,-5.74,-6.97,0.34,5.85,4.01,-1.01,
4.3,-5.74,-6.97,0.34,5.66,4.24,-0.99,
4.301,-4.22,-5.29,-1.58,5.66,4.24,-0.99,
4.301,-4.22,-5.29,-1.58,5.49,4.37,-0.98,
4.304,-4.22,-5.29,-1.58,5.23,4.38,-0.98,
4.304,-4.22,-5.29,-1.58,5.14,4.33,-0.98,
4.305,-4.22,-5.29,-1.58,4.99,4.16,-1.00,
4.307,-4.22,-5.29,-1.58,4.85,3.91,-1.02,
4.31,-2.05,-3.96,-1.35,4.85,3.91,-1.02,
4.31,-2.05,-3.96,-1.35,4.72,3.60,-1.06,
4.312,-2.05,-3.96,-1.35,4.54,3.07,-1.13,
4.313,-2.05,-3.96,-1.35,4.48,2.88,-1.16,
4.315,-2.05,-3.96,-1.35,4.37,2.52,-1.23,
4.318,-2.05,-3.96,-1.35,4.26,2.16,-1.29,
4.32,-0.86,-2.58,-3.70,4.26,2.16,-1.29,
4.32,-0.86,-2.58,-3.70,4.14,1.83,-1.35,
4.323,-0.86,-2.58,-3.70,3.96,1.38,-1.43,
4.323,-0.86,-2.58,-3.70,3.90,1.24,-1.45,
4.325,-0.86,-2.58,-3.70,3.76,1.01,-1.49,
4.327,-0.86,-2.58,-3.70,3.64,0.82,-1.52,
4.33,-1.35,-0.26,-7.64,3.64,0.82,-1.52,
4.331,-1.35,-0.26,-7.64,3.51,0.67,-1.56,
4.334,-1.35,-0.26,-7.64,3.35,0.52,-1.60,
4.334,-1.35,-0.26,-7.64,3.30,0.49,-1.61,
4.335,-1.35,-0.26,-7.64,3.21,0.44,-1.62,
4.357,-1.35,-0.26,-7.64,3.15,0.42,-1.62,
4.357,-1.91,2.67,-8.61,3.15,0.42,-1.62,
4.358,-1.91,2.67,-8.61,3.09,0.42,-1.62,
4.358,-1.91,2.67,-8.61,3.04,0.44,-1.60,
4.358,-1.91,2.67,-8.61,3.03,0.45,-1.59,
4.358,-1.91,2.67,-8.61,3.03,0.48,-1.57,
4.359,-1.91,2.67,-8.61,3.04,0.51,-1.54,
4.359,-3.10,5.26,-7.72,3.04,0.51,-1.54,
4.359,-3.10,5.26,-7.72,3.05,0.54,-1.50,
4.359,-3.10,5.26,-7.72,3.09,0.57,-1.44,
4.359,-3.10,5.26,-7.72,3.11,0.57,-1.41,
4.36,-3.10,5.26,-7.72,3.15,0.58,-1.36,
4.36,-3.10,5.26,-7.72,3.20,0.60,-1.32,
4.36,-3.14,7.55,-7.05,3.20,0.60,-1.32,
4.36,-3.14,7.55,-7.05,3.25,0.62,-1.27,
4.364,-3.14,7.55,-7.05,3.33,0.70,-1.19,
4.365,-3.14,7.55,-7.05,3.36,0.73,-1.17,
4.365,-3.14,7.55,-7.05,3.42,0.81,-1.12,
4.368,-3.14,7.55,-7.05,3.48,0.89,-1.06,
4.37,-2.84,9.45,-7.66,3.48,0.89,-1.06,
4.37,-2.84,9.45,-7.66,3.52,0.96,-0.99,
4.373,-2.84,9.45,-7.66,3.56,1.03,-0.88,
4.373,-2.84,9.45,-7.66,3.57,1.05,-0.84,
4.375,-2.84,9.45,-7.66,3.59,1.07,-0.76,
4.377,-2.84,9.45,-7.66,3.59,1.09,-0.67,
4.379,-2.13,9.97,-8.56,3.59,1.09,-0.67,
4.38,-2.13,9.97,-8.56,3.58,1.11,-0.58,
4.382,-2.13,9.97,-8.56,3.55,1.12,-0.45,
4.383,-2.13,9.97,-8.56,3.54,1.12,-0.41,
4.387,-2.13,9.97,-8.56,3.49,1.11,-0.29,
4.388,-2.13,9.97,-8.56,3.47,1.10,-0.25,
4.39,-1.03,9.71,-8.57,3.47,1.10,-0.25,
4.39,-1.03,9.71,-8.57,3.41,1.08,-0.17,
4.392,-1.03,9.71,-8.57,3.30,1.05,-0.07,
4.393,-1.03,9.71,-8.57,3.26,1.04,-0.04,
4.395,-1.03,9.71,-8.57,3.17,1.02,0.03,
4.404,-1.03,9.71,-8.57,3.07,1.00,0.09,
4.404,1.02,8.60,-8.64,3.07,1.00,0.09,
4.405,1.02,8.60,-8.64,2.96,0.98,0.15,
4.405,1.02,8.60,-8.64,2.78,0.98,0.23,
4.405,1.02,8.60,-8.64,2.72,0.98,0.26,
4.405,1.02,8.60,-8.64,2.60,0.98,0.31,
4.407,1.02,8.60,-8.64,2.48,0.98,0.36,
4.411,2.63,7.25,-8.19,2.48,0.98,0.36,
4.411,2.63,7.25,-8.19,2.35,0.99,0.41,
4.413,2.63,7.25,-8.19,2.16,1.00,0.49,
4.413,2.63,7.25,-8.19,2.10,1.01,0.51,
4.436,2.63,7.25,-8.19,1.97,1.01,0.57,
4.437,2.63,7.25,-8.19,1.85,1.01,0.63,
4.437,3.08,5.47,-7.77,1.85,1.01,0.63,
4.437,3.08,5.47,-7.77,1.72,1.01,0.68,
4.438,3.08,5.47,-7.77,1.53,1.00,0.76,
4.438,3.08,5.47,-7.77,1.47,1.00,0.79,
4.438,3.08,5.47,-7.77,1.34,0.99,0.84,
4.438,3.08,5.47,-7.77,1.22,0.98,0.90,
4.438,3.51,4.23,-7.09,1.22,0.98,0.90,
4.438,3.51,4.23,-7.09,1.10,0.96,0.95,
4.439,3.51,4.23,-7.09,0.92,0.94,1.02,
4.439,3.51,4.23,-7.09,0.87,0.94,1.04,
4.439,3.51,4.23,-7.09,0.76,0.93,1.08,
4.441,3.51,4.23,-7.09,0.65,0.91,1.11,
4.444,3.42,3.47,-6.33,0.65,0.91,1.11,
4.444,3.42,3.47,-6.33,0.54,0.91,1.13,
4.445,3.42,3.47,-6.33,0.40,0.89,1.14,
4.445,3.42,3.47,-6.33,0.36,0.88,1.14,
4.445,3.42,3.47,-6.33,0.28,0.87,1.13,
4.449,3.42,3.47,-6.33,0.20,0.86,1.12,
4.455,3.54,2.77,-5.69,0.20,0.86,1.12,
4.455,3.54,2.77,-5.69,0.13,0.85,1.10,
4.456,3.54,2.77,-5.69,0.04,0.80,1.07,
4.456,3.54,2.77,-5.69,0.01,0.78,1.05,
4.456,3.54,2.77,-5.69,-0.04,0.74,1.03,
4.458,3.54,2.77,-5.69,-0.09,0.69,1.00,
4.46,3.19,2.70,-5.66,-0.09,0.69,1.00,
4.46,3.19,2.70,-5.66,-0.13,0.63,0.97,
4.463,3.19,2.70,-5.66,-0.18,0.54,0.91,
4.466,3.19,2.70,-5.66,-0.20,0.51,0.88,
4.468,3.19,2.70,-5.66,-0.23,0.45,0.83,
4.468,3.19,2.70,-5.66,-0.25,0.39,0.77,
4.471,3.28,2.77,-6.30,-0.25,0.39,0.77,
4.471,3.28,2.77,-6.30,-0.27,0.34,0.71,
4.472,3.28,2.77,-6.30,-0.30,0.29,0.60,
4.474,3.28,2.77,-6.30,-0.31,0.27,0.57,
4.475,3.28,2.77,-6.30,-0.32,0.26,0.49,
4.481,3.28,2.77,-6.30,-0.34,0.26,0.41,
4.481,3.16,3.64,-6.55,-0.34,0.26,0.41,
4.482,3.16,3.64,-6.55,-0.36,0.27,0.31,
4.483,3.16,3.64,-6.55,-0.39,0.30,0.17,
4.484,3.16,3.64,-6.55,-0.40,0.31,0.13,
4.486,3.16,3.64,-6.55,-0.43,0.33,0.03,
4.488,3.16,3.64,-6.55,-0.47,0.36,-0.06,
4.49,3.38,4.77,-6.37,-0.47,0.36,-0.06,
4.491,3.38,4.77,-6.37,-0.52,0.39,-0.16,
4.492,3.38,4.77,-6.37,-0.61,0.43,-0.28,
4.494,3.38,4.77,-6.37,-0.65,0.44,-0.32,
4.496,3.38,4.77,-6.37,-0.72,0.46,-0.39,
4.499,3.38,4.77,-6.37,-0.81,0.47,-0.45,
4.501,3.37,4.92,-6.49,-0.81,0.47,-0.45,
4.502,3.37,4.92,-6.49,-0.90,0.48,-0.51,
4.503,3.37,4.92,-6.49,-1.04,0.48,-0.59,
4.528,3.37,4.92,-6.49,-1.09,0.48,-0.62,
4.528,3.37,4.92,-6.49,-1.18,0.48,-0.67,
4.529,3.37,4.92,-6.49,-1.27,0.48,-0.72,
4.529,4.12,4.42,-5.98,-1.27,0.48,-0.72,
4.529,4.12,4.42,-5.98,-1.35,0.48,-0.76,
4.53,4.12,4.42,-5.98,-1.47,0.48,-0.82,
4.53,4.12,4.42,-5.98,-1.50,0.48,-0.84,
4.53,4.12,4.42,-5.98,-1.57,0.49,-0.87,
4.53,4.12,4.42,-5.98,-1.62,0.50,-0.89,
4.531,3.96,4.08,-4.89,-1.62,0.50,-0.89,
4.531,3.96,4.08,-4.89,-1.67,0.52,-0.91,
4.532,3.96,4.08,-4.89,-1.72,0.54,-0.92,
4.532,3.96,4.08,-4.89,-1.73,0.55,-0.92,
4.532,3.96,4.08,-4.89,-1.75,0.57,-0.92,
4.532,3.96,4.08,-4.89,-1.76,0.59,-0.92,
4.533,2.88,4.48,-3.05,-1.76,0.59,-0.92,
4.533,2.88,4.48,-3.05,-1.77,0.61,-0.91,
4.533,2.88,4.48,-3.05,-1.78,0.64,-0.88,
4.533,2.88,4.48,-3.05,-1.78,0.65,-0.87,
4.539,2.88,4.48,-3.05,-1.78,0.67,-0.84,
4.539,2.88,4.48,-3.05,-1.78,0.68,-0.81,
4.54,0.99,4.89,-1.76,-1.78,0.68,-0.81,
4.54,0.99,4.89,-1.76,-1.78,0.70,-0.78,
4.542,0.99,4.89,-1.76,-1.78,0.72,-0.74,
4.543,0.99,4.89,-1.76,-1.77,0.72,-0.72,
4.545,0.99,4.89,-1.76,-1.75,0.72,-0.68,
4.548,0.99,4.89,-1.76,-1.71,0.71,-0.65,
4.553,-0.98,5.43,1.08,-1.71,0.71,-0.65,
4.554,-0.98,5.43,1.08,-1.66,0.68,-0.61,
4.554,-0.98,5.43,1.08,-1.55,0.61,-0.55,
4.554,-0.98,5.43,1.08,-1.50,0.57,-0.52,
4.555,-0.98,5.43,1.08,-1.38,0.47,-0.48,
4.557,-0.98,5.43,1.08,-1.23,0.33,-0.42,
4.559,-3.02,5.47,9.04,-1.23,0.33,-0.42,
4.56,-3.02,5.47,9.04,-1.02,0.16,-0.37,
4.562,-3.02,5.47,9.04,-0.59,-0.19,-0.27,
4.574,-3.02,5.47,9.04,-0.42,-0.31,-0.24,
4.574,-3.02,5.47,9.04,-0.04,-0.57,-0.16,
4.575,-3.02,5.47,9.04,0.36,-0.80,-0.07,
4.575,-6.31,4.40,28.00,0.36,-0.80,-0.07,
4.575,-6.31,4.40,28.00,0.74,-0.99,0.01,
4.576,-6.31,4.40,28.00,1.19,-1.08,0.11,
4.576,-6.31,4.40,28.00,1.29,-1.04,0.13,
4.576,-6.31,4.40,28.00,1.41,-0.85,0.17,
4.578,-6.31,4.40,28.00,1.41,-0.49,0.21,
4.618,-9.56,-2.58,30.69,1.41,-0.49,0.21,
4.619,-9.56,-2.58,30.69,1.30,-0.02,0.26,
4.619,-9.56,-2.58,30.69,0.95,0.85,0.33,
4.619,-9.56,-2.58,30.69,0.79,1.16,0.36,
4.62,-9.56,-2.58,30.69,0.40,1.76,0.42,
4.62,-9.56,-2.58,30.69,-0.05,2.30,0.48,
4.62,-10.69,-9.86,13.16,-0.05,2.30,0.48,
4.621,-10.69,-9.86,13.16,-0.57,2.75,0.54,
4.621,-10.69,-9.86,13.16,-1.43,3.16,0.58,
4.622,-10.69,-9.86,13.16,-1.73,3.20,0.59,
4.622,-10.69,-9.86,13.16,-2.34,3.16,0.58,
4.622,-10.69,-9.86,13.16,-2.92,2.93,0.54,
4.622,-6.29,-13.39,-8.83,-2.92,2.93,0.54,
4.623,-6.29,-13.39,-8.83,-3.45,2.52,0.49,
4.623,-6.29,-13.39,-8.83,-4.08,1.67,0.39,
4.623,-6.29,-13.39,-8.83,-4.25,1.34,0.36,
4.623,-6.29,-13.39,-8.83,-4.49,0.63,0.30,
4.623,-6.29,-13.39,-8.83,-4.65,-0.11,0.24,
4.624,-2.09,-13.22,-13.30,-4.65,-0.11,0.24,
4.624,-2.09,-13.22,-13.30,-4.72,-0.83,0.19,
4.624,-2.09,-13.22,-13.30,-4.68,-1.77,0.10,
4.624,-2.09,-13.22,-13.30,-4.65,-2.03,0.07,
4.624,-2.09,-13.22,-13.30,-4.54,-2.45,0.01,
4.625,-2.09,-13.22,-13.30,-4.39,-2.73,-0.05,
4.625,0.83,-9.76,-10.60,-4.39,-2.73,-0.05,
4.625,0.83,-9.76,-10.60,-4.21,-2.90,-0.12,
4.625,0.83,-9.76,-10.60,-3.87,-3.00,-0.22,
4.626,0.83,-9.76,-10.60,-3.75,-2.99,-0.25,
4.626,0.83,-9.76,-10.60,-3.49,-2.96,-0.32,
4.627,0.83,-9.76,-10.60,-3.22,-2.90,-0.40,
4.63,2.27,-5.72,-6.30,-3.22,-2.90,-0.40,
4.63,2.27,-5.72,-6.30,-2.94,-2.83,-0.48,
4.633,2.27,-5.72,-6.30,-2.53,-2.71,-0.61,
4.633,2.27,-5.72,-6.30,-2.40,-2.66,-0.65,
4.635,2.27,-5.72,-6.30,-2.15,-2.57,-0.74,
4.637,2.27,-5.72,-6.30,-1.91,-2.46,-0.83,
4.64,2.70,-2.53,-2.03,-1.91,-2.46,-0.83,
4.64,2.70,-2.53,-2.03,-1.69,-2.33,-0.91,
4.642,2.70,-2.53,-2.03,-1.39,-2.08,-1.04,
4.643,2.70,-2.53,-2.03,-1.31,-1.98,-1.08,
4.645,2.70,-2.53,-2.03,-1.18,-1.76,-1.17,
4.651,2.70,-2.53,-2.03,-1.11,-1.51,-1.26,
4.651,3.01,-0.22,-0.30,-1.11,-1.51,-1.26,
4.651,3.01,-0.22,-0.30,-1.09,-1.25,-1.33,
4.653,3.01,-0.22,-0.30,-1.17,-0.87,-1.42,
4.654,3.01,-0.22,-0.30,-1.22,-0.76,-1.44,
4.655,3.01,-0.22,-0.30,-1.34,-0.54,-1.47,
4.658,3.01,-0.22,-0.30,-1.49,-0.37,-1.49,
4.659,2.95,0.41,-3.84,-1.49,-0.37,-1.49,
4.66,2.95,0.41,-3.84,-1.65,-0.23,-1.50,
4.662,2.95,0.41,-3.84,-1.90,-0.10,-1.49,
4.667,2.95,0.41,-3.84,-1.99,-0.07,-1.48,
4.667,2.95,0.41,-3.84,-2.15,-0.03,-1.45,
4.668,2.95,0.41,-3.84,-2.30,-0.01,-1.41,
4.669,2.64,0.28,-5.52,-2.30,-0.01,-1.41,
4.682,2.64,0.28,-5.52,-2.44,-0.02,-1.37,
4.682,2.64,0.28,-5.52,-2.60,-0.09,-1.28,
4.682,2.64,0.28,-5.52,-2.64,-0.12,-1.25,
4.682,2.64,0.28,-5.52,-2.70,-0.19,-1.17,
4.682,2.64,0.28,-5.52,-2.74,-0.29,-1.07,
4.682,1.91,-0.23,-3.37,-2.74,-0.29,-1.07,
4.682,1.91,-0.23,-3.37,-2.75,-0.37,-0.96,
4.685,1.91,-0.23,-3.37,-2.75,-0.49,-0.77,
4.685,1.91,-0.23,-3.37,-2.75,-0.53,-0.69,
4.685,1.91,-0.23,-3.37,-2.73,-0.58,-0.53,
4.687,1.91,-0.23,-3.37,-2.70,-0.64,-0.35,
4.689,-1.20,-1.05,-1.52,-2.70,-0.64,-0.35,
4.69,-1.20,-1.05,-1.52,-2.66,-0.70,-0.17,
4.692,-1.20,-1.05,-1.52,-2.60,-0.78,0.11,
4.693,-1.20,-1.05,-1.52,-2.58,-0.81,0.21,
4.695,-1.20,-1.05,-1.52,-2.54,-0.87,0.39,
4.697,-1.20,-1.05,-1.52,-2.49,-0.92,0.57,
4.7,-4.19,-1.86,-0.77,-2.49,-0.92,0.57,
4.7,-4.19,-1.86,-0.77,-2.44,-0.96,0.75,
4.702,-4.19,-1.86,-0.77,-2.38,-1.02,0.99,
4.703,-4.19,-1.86,-0.77,-2.37,-1.03,1.07,
4.705,-4.19,-1.86,-0.77,-2.34,-1.06,1.20,
4.707,-4.19,-1.86,-0.77,-2.32,-1.07,1.32,
4.709,-4.74,-2.43,-1.82,-2.32,-1.07,1.32,
4.71,-4.74,-2.43,-1.82,-2.31,-1.08,1.43,
4.712,-4.74,-2.43,-1.82,-2.29,-1.06,1.55,
4.714,-4.74,-2.43,-1.82,-2.29,-1.05,1.59,
4.715,-4.74,-2.43,-1.82,-2.28,-1.02,1.64,
4.717,-4.74,-2.43,-1.82,-2.27,-0.98,1.68,
4.72,-3.57,-2.81,-2.63,-2.27,-0.98,1.68,
4.72,-3.57,-2.81,-2.63,-2.26,-0.94,1.71,
4.722,-3.57,-2.81,-2.63,-2.25,-0.87,1.72,
4.723,-3.57,-2.81,-2.63,-2.25,-0.85,1.72,
4.725,-3.57,-2.81,-2.63,-2.24,-0.80,1.71,
4.727,-3.57,-2.81,-2.63,-2.24,-0.75,1.70,
4.73,-2.19,-2.80,-2.49,-2.24,-0.75,1.70,
4.731,-2.19,-2.80,-2.49,-2.24,-0.71,1.67,
4.733,-2.19,-2.80,-2.49,-2.24,-0.65,1.62,
4.734,-2.19,-2.80,-2.49,-2.25,-0.62,1.61,
4.736,-2.19,-2.80,-2.49,-2.26,-0.57,1.54,
4.737,-2.19,-2.80,-2.49,-2.27,-0.55,1.51,
4.739,-1.01,-2.47,-1.94,-2.27,-0.55,1.51,
4.739,-1.01,-2.47,-1.94,-2.28,-0.51,1.46,
4.742,-1.01,-2.47,-1.94,-2.30,-0.44,1.38,
4.743,-1.01,-2.47,-1.94,-2.31,-0.41,1.35,
4.745,-1.01,-2.47,-1.94,-2.33,-0.36,1.29,
4.748,-1.01,-2.47,-1.94,-2.35,-0.31,1.24,
4.75,-0.65,-2.29,-1.43,-2.35,-0.31,1.24,
4.751,-0.65,-2.29,-1.43,-2.37,-0.25,1.18,
4.752,-0.65,-2.29,-1.43,-2.40,-0.18,1.09,
4.754,-0.65,-2.29,-1.43,-2.42,-0.15,1.06,
4.755,-0.65,-2.29,-1.43,-2.44,-0.11,1.00,
4.757,-0.65,-2.29,-1.43,-2.46,-0.07,0.94,
4.759,-0.62,-2.02,-0.49,-2.46,-0.07,0.94,
4.76,-0.62,-2.02,-0.49,-2.48,-0.03,0.87,
4.763,-0.62,-2.02,-0.49,-2.51,0.01,0.77,
4.764,-0.62,-2.02,-0.49,-2.52,0.02,0.74,
4.766,-0.62,-2.02,-0.49,-2.54,0.04,0.68,
4.77,-0.62,-2.02,-0.49,-2.56,0.05,0.61,
4.77,-0.62,-1.65,0.22,-2.56,0.05,0.61,
4.77,-0.62,-1.65,0.22,-2.57,0.05,0.54,
4.773,-0.62,-1.65,0.22,-2.59,0.05,0.44,
4.774,-0.62,-1.65,0.22,-2.60,0.04,0.40,
4.775,-0.62,-1.65,0.22,-2.61,0.03,0.34,
4.778,-0.62,-1.65,0.22,-2.62,0.01,0.27,
4.783,-0.31,-1.14,0.67,-2.62,0.01,0.27,
4.784,-0.31,-1.14,0.67,-2.63,-0.03,0.20,
4.784,-0.31,-1.14,0.67,-2.65,-0.08,0.10,
4.784,-0.31,-1.14,0.67,-2.65,-0.11,0.07,
4.786,-0.31,-1.14,0.67,-2.66,-0.16,0.00,
4.788,-0.31,-1.14,0.67,-2.67,-0.21,-0.05,
4.792,-0.06,-0.42,0.81,-2.67,-0.21,-0.05,
4.792,-0.06,-0.42,0.81,-2.68,-0.26,-0.10,
4.792,-0.06,-0.42,0.81,-2.69,-0.34,-0.16,
4.794,-0.06,-0.42,0.81,-2.69,-0.37,-0.18,
4.809,-0.06,-0.42,0.81,-2.70,-0.42,-0.21,
4.81,-0.06,-0.42,0.81,-2.70,-0.46,-0.24,
4.81,0.12,0.39,0.79,-2.70,-0.46,-0.24,
4.811,0.12,0.39,0.79,-2.71,-0.50,-0.26,
4.811,0.12,0.39,0.79,-2.71,-0.55,-0.28,
4.811,0.12,0.39,0.79,-2.71,-0.56,-0.28,
4.812,0.12,0.39,0.79,-2.71,-0.59,-0.29,
4.812,0.12,0.39,0.79,-2.71,-0.61,-0.29,
4.838,0.29,1.04,0.75,-2.71,-0.61,-0.29,
4.839,0.29,1.04,0.75,-2.70,-0.63,-0.30,
4.839,0.29,1.04,0.75,-2.70,-0.65,-0.30,
4.839,0.29,1.04,0.75,-2.69,-0.65,-0.30,
4.84,0.29,1.04,0.75,-2.69,-0.66,-0.30,
4.84,0.29,1.04,0.75,-2.68,-0.67,-0.30,
4.84,0.55,1.58,0.55,-2.68,-0.67,-0.30,
4.841,0.55,1.58,0.55,-2.68,-0.67,-0.31,
4.841,0.55,1.58,0.55,-2.67,-0.66,-0.31,
4.841,0.55,1.58,0.55,-2.66,-0.66,-0.31,
4.841,0.55,1.58,0.55,-2.66,-0.65,-0.32,
4.842,0.55,1.58,0.55,-2.65,-0.65,-0.32,
4.842,0.93,1.93,0.47,-2.65,-0.65,-0.32,
4.842,0.93,1.93,0.47,-2.64,-0.64,-0.32,
4.843,0.93,1.93,0.47,-2.64,-0.63,-0.32,
4.843,0.93,1.93,0.47,-2.63,-0.63,-0.32,
4.843,0.93,1.93,0.47,-2.63,-0.63,-0.32,
4.879,0.93,1.93,0.47,-2.63,-0.63,-0.32,
4.88,0.87,2.03,0.39,-2.63,-0.63,-0.32,
4.88,0.87,2.03,0.39,-2.62,-0.63,-0.31,
4.881,0.87,2.03,0.39,-2.61,-0.64,-0.31,
4.881,0.87,2.03,0.39,-2.61,-0.64,-0.31,
4.881,0.87,2.03,0.39,-2.60,-0.65,-0.30,
4.882,0.87,2.03,0.39,-2.59,-0.65,-0.29,
4.882,0.90,1.94,0.51,-2.59,-0.65,-0.29,
4.883,0.90,1.94,0.51,-2.59,-0.66,-0.29,
4.883,0.90,1.94,0.51,-2.58,-0.67,-0.27,
4.884,0.90,1.94,0.51,-2.57,-0.67,-0.27,
4.884,0.90,1.94,0.51,-2.56,-0.68,-0.26,
4.884,0.90,1.94,0.51,-2.56,-0.68,-0.25,
4.885,0.71,1.74,0.54,-2.56,-0.68,-0.25,
4.885,0.71,1.74,0.54,-2.55,-0.68,-0.23,
4.886,0.71,1.74,0.54,-2.53,-0.68,-0.20,
4.886,0.71,1.74,0.54,-2.53,-0.68,-0.19,
4.888,0.71,1.74,0.54,-2.51,-0.68,-0.18,
4.888,0.71,1.74,0.54,-2.50,-0.68,-0.16,
4.889,0.42,1.38,0.54,-2.50,-0.68,-0.16,
4.889,0.42,1.38,0.54,-2.49,-0.68,-0.14,
4.889,0.42,1.38,0.54,-2.46,-0.67,-0.11,
4.89,0.42,1.38,0.54,-2.46,-0.66,-0.10,
4.89,0.42,1.38,0.54,-2.44,-0.65,-0.08,
4.891,0.42,1.38,0.54,-2.42,-0.63,-0.05,
4.891,0.22,0.99,0.49,-2.42,-0.63,-0.05,
4.891,0.22,0.99,0.49,-2.40,-0.61,-0.03,
4.892,0.22,0.99,0.49,-2.37,-0.57,-0.01,
4.892,0.22,0.99,0.49,-2.36,-0.56,0.00,
4.892,0.22,0.99,0.49,-2.34,-0.52,0.02,
4.893,0.22,0.99,0.49,-2.32,-0.49,0.04,
4.893,0.34,0.54,0.47,-2.32,-0.49,0.04,
4.893,0.34,0.54,0.47,-2.29,-0.45,0.05,
4.894,0.34,0.54,0.47,-2.26,-0.39,0.07,
4.894,0.34,0.54,0.47,-2.25,-0.37,0.08,
4.906,0.34,0.54,0.47,-2.22,-0.33,0.09,
4.906,0.34,0.54,0.47,-2.20,-0.30,0.10,
4.906,0.61,0.10,0.52,-2.20,-0.30,0.10,
4.907,0.61,0.10,0.52,-2.17,-0.27,0.10,
4.907,0.61,0.10,0.52,-2.13,-0.22,0.11,
4.907,0.61,0.10,0.52,-2.12,-0.20,0.12,
4.907,0.61,0.10,0.52,-2.09,-0.16,0.12,
4.907,0.61,0.10,0.52,-2.06,-0.13,0.12,
4.909,0.92,-0.27,0.67,-2.06,-0.13,0.12,
4.91,0.92,-0.27,0.67,-2.03,-0.09,0.13,
4.926,0.92,-0.27,0.67,-1.99,-0.02,0.13,
4.927,0.92,-0.27,0.67,-1.98,-0.00,0.13,
4.927,0.92,-0.27,0.67,-1.95,0.04,0.13,
4.927,0.92,-0.27,0.67,-1.92,0.08,0.13,
4.928,1.14,-0.65,0.77,-1.92,0.08,0.13,
4.928,1.14,-0.65,0.77,-1.90,0.12,0.13,
4.928,1.14,-0.65,0.77,-1.85,0.19,0.12,
4.928,1.14,-0.65,0.77,-1.84,0.21,0.11,
4.928,1.14,-0.65,0.77,-1.80,0.25,0.11,
4.929,1.14,-0.65,0.77,-1.76,0.30,0.10,
4.931,1.53,-1.02,1.10,-1.76,0.30,0.10,
4.931,1.53,-1.02,1.10,-1.72,0.36,0.09,
4.941,1.53,-1.02,1.10,-1.65,0.44,0.09,
4.942,1.53,-1.02,1.10,-1.63,0.47,0.08,
4.942,1.53,-1.02,1.10,-1.57,0.53,0.08,
4.942,1.53,-1.02,1.10,-1.52,0.59,0.08,
4.943,1.51,-1.01,1.63,-1.52,0.59,0.08,
4.943,1.51,-1.01,1.63,-1.46,0.66,0.07,
4.943,1.51,-1.01,1.63,-1.37,0.77,0.07,
4.943,1.51,-1.01,1.63,-1.34,0.81,0.07,
4.984,1.51,-1.01,1.63,-1.27,0.90,0.07,
4.984,1.51,-1.01,1.63,-1.21,0.99,0.07,
4.985,1.58,-0.71,2.08,-1.21,0.99,0.07,
4.985,1.58,-0.71,2.08,-1.14,1.08,0.08,
4.985,1.58,-0.71,2.08,-1.03,1.22,0.08,
4.985,1.58,-0.71,2.08,-0.99,1.27,0.08,
4.985,1.58,-0.71,2.08,-0.92,1.36,0.09,
4.986,1.58,-0.71,2.08,-0.85,1.46,0.10,
4.986,1.60,-0.26,2.23,-0.85,1.46,0.10,
4.986,1.60,-0.26,2.23,-0.79,1.56,0.10,
4.986,1.60,-0.26,2.23,-0.70,1.72,0.11,
4.986,1.60,-0.26,2.23,-0.68,1.77,0.11,
4.987,1.60,-0.26,2.23,-0.64,1.88,0.12,
4.987,1.60,-0.26,2.23,-0.60,1.98,0.12,
4.987,1.68,0.23,2.20,-0.60,1.98,0.12,
4.987,1.68,0.23,2.20,-0.57,2.09,0.13,
4.987,1.68,0.23,2.20,-0.53,2.24,0.14,
4.988,1.68,0.23,2.20,-0.52,2.29,0.15,
4.988,1.68,0.23,2.20,-0.52,2.38,0.16,
4.988,1.68,0.23,2.20,-0.52,2.47,0.17,
