
time,ax,ay,az,wx,wy,wz,
0.002,-1.11,-0.37,-0.60,-0.34,-0.59,0.81,
0.003,-1.11,-0.37,-0.60,-0.34,-0.61,0.83,
0.006,-1.11,-0.37,-0.60,-0.34,-0.62,0.86,
0.013,-1.04,-0.35,-0.58,-0.34,-0.62,0.86,
0.013,-1.04,-0.35,-0.58,-0.35,-0.64,0.88,
0.013,-1.04,-0.35,-0.58,-0.35,-0.65,0.90,
0.013,-1.04,-0.35,-0.58,-0.35,-0.66,0.92,
0.014,-1.04,-0.35,-0.58,-0.35,-0.67,0.93,
0.014,-1.04,-0.35,-0.58,-0.35,-0.69,0.95,
0.014,-0.75,-0.36,-0.45,-0.35,-0.69,0.95,
0.014,-0.75,-0.36,-0.45,-0.35,-0.70,0.96,
0.014,-0.75,-0.36,-0.45,-0.34,-0.72,0.97,
0.015,-0.75,-0.36,-0.45,-0.33,-0.74,0.98,
0.015,-0.75,-0.36,-0.45,-0.32,-0.77,0.99,
0.015,-0.75,-0.36,-0.45,-0.31,-0.79,1.00,
0.017,-0.53,-0.48,-0.24,-0.31,-0.79,1.00,
0.017,-0.53,-0.48,-0.24,-0.30,-0.83,1.01,
0.019,-0.53,-0.48,-0.24,-0.29,-0.86,1.01,
0.021,-0.53,-0.48,-0.24,-0.27,-0.90,1.02,
0.022,-0.53,-0.48,-0.24,-0.25,-0.94,1.02,
0.025,-0.53,-0.48,-0.24,-0.24,-0.98,1.03,
0.027,-0.41,-0.63,-0.13,-0.24,-0.98,1.03,
0.027,-0.41,-0.63,-0.13,-0.22,-1.02,1.03,
0.029,-0.41,-0.63,-0.13,-0.20,-1.06,1.03,
0.032,-0.41,-0.63,-0.13,-0.17,-1.12,1.04,
0.033,-0.41,-0.63,-0.13,-0.16,-1.14,1.04,
0.035,-0.41,-0.63,-0.13,-0.14,-1.18,1.04,
0.037,-0.44,-0.87,-0.39,-0.14,-1.18,1.04,
0.038,-0.44,-0.87,-0.39,-0.12,-1.21,1.04,
0.044,-0.44,-0.87,-0.39,-0.11,-1.26,1.05,
0.044,-0.44,-0.87,-0.39,-0.10,-1.30,1.05,
0.044,-0.44,-0.87,-0.39,-0.09,-1.35,1.05,
0.044,-0.44,-0.87,-0.39,-0.07,-1.40,1.06,
0.05,-0.73,-1.09,-0.80,-0.07,-1.40,1.06,
0.05,-0.73,-1.09,-0.80,-0.06,-1.44,1.08,
0.05,-0.73,-1.09,-0.80,-0.05,-1.48,1.10,
0.051,-0.73,-1.09,-0.80,-0.04,-1.53,1.12,
0.053,-0.73,-1.09,-0.80,-0.03,-1.57,1.15,
0.054,-0.73,-1.09,-0.80,-0.03,-1.61,1.18,
0.058,-1.56,-1.36,-1.11,-0.03,-1.61,1.18,
0.059,-1.56,-1.36,-1.11,-0.03,-1.64,1.20,
0.059,-1.56,-1.36,-1.11,-0.03,-1.66,1.22,
0.062,-1.56,-1.36,-1.11,-0.04,-1.68,1.23,
0.063,-1.56,-1.36,-1.11,-0.05,-1.69,1.25,
0.065,-1.56,-1.36,-1.11,-0.07,-1.70,1.26,
0.067,-1.46,-1.18,-1.62,-0.07,-1.70,1.26,
0.067,-1.46,-1.18,-1.62,-0.08,-1.71,1.28,
0.07,-1.46,-1.18,-1.62,-0.09,-1.71,1.29,
0.071,-1.46,-1.18,-1.62,-0.11,-1.71,1.31,
0.072,-1.46,-1.18,-1.62,-0.13,-1.71,1.32,
0.075,-1.46,-1.18,-1.62,-0.15,-1.70,1.34,
0.081,-1.39,-0.92,-1.81,-0.15,-1.70,1.34,
0.081,-1.39,-0.92,-1.81,-0.17,-1.69,1.36,
0.081,-1.39,-0.92,-1.81,-0.20,-1.68,1.38,
0.081,-1.39,-0.92,-1.81,-0.23,-1.65,1.41,
0.082,-1.39,-0.92,-1.81,-0.24,-1.63,1.42,
0.084,-1.39,-0.92,-1.81,-0.27,-1.60,1.43,
0.091,-1.10,-0.76,-1.75,-0.27,-1.60,1.43,
0.092,-1.10,-0.76,-1.75,-0.30,-1.58,1.45,
0.092,-1.10,-0.76,-1.75,-0.32,-1.55,1.47,
0.092,-1.10,-0.76,-1.75,-0.34,-1.52,1.49,
0.092,-1.10,-0.76,-1.75,-0.37,-1.50,1.50,
0.095,-1.10,-0.76,-1.75,-0.39,-1.48,1.52,
0.098,-0.67,-0.66,-1.40,-0.39,-1.48,1.52,
0.098,-0.67,-0.66,-1.40,-0.41,-1.46,1.53,
0.109,-0.67,-0.66,-1.40,-0.42,-1.45,1.54,
0.11,-0.67,-0.66,-1.40,-0.44,-1.44,1.55,
0.11,-0.67,-0.66,-1.40,-0.45,-1.44,1.55,
0.11,-0.67,-0.66,-1.40,-0.47,-1.44,1.55,
0.111,-0.11,-0.61,-0.99,-0.47,-1.44,1.55,
0.111,-0.11,-0.61,-0.99,-0.48,-1.44,1.55,
0.125,-0.11,-0.61,-0.99,-0.49,-1.44,1.54,
0.126,-0.11,-0.61,-0.99,-0.50,-1.45,1.53,
0.126,-0.11,-0.61,-0.99,-0.50,-1.46,1.52,
0.126,-0.11,-0.61,-0.99,-0.50,-1.47,1.51,
0.127,0.35,-0.64,-0.57,-0.50,-1.47,1.51,
0.127,0.35,-0.64,-0.57,-0.50,-1.48,1.49,
0.127,0.35,-0.64,-0.57,-0.50,-1.50,1.47,
0.127,0.35,-0.64,-0.57,-0.49,-1.52,1.45,
0.128,0.35,-0.64,-0.57,-0.48,-1.55,1.42,
0.128,0.35,-0.64,-0.57,-0.47,-1.57,1.40,
0.128,0.50,-0.65,-0.13,-0.47,-1.57,1.40,
0.128,0.50,-0.65,-0.13,-0.46,-1.60,1.38,
0.147,0.50,-0.65,-0.13,-0.44,-1.63,1.35,
0.147,0.50,-0.65,-0.13,-0.42,-1.67,1.32,
0.147,0.50,-0.65,-0.13,-0.41,-1.68,1.31,
0.147,0.50,-0.65,-0.13,-0.39,-1.71,1.29,
0.147,0.27,-0.71,0.07,-0.39,-1.71,1.29,
0.148,0.27,-0.71,0.07,-0.37,-1.74,1.27,
0.148,0.27,-0.71,0.07,-0.35,-1.77,1.25,
0.148,0.27,-0.71,0.07,-0.33,-1.80,1.24,
0.148,0.27,-0.71,0.07,-0.31,-1.83,1.23,
0.152,0.27,-0.71,0.07,-0.29,-1.86,1.23,
0.152,-0.46,-0.88,0.11,-0.29,-1.86,1.23,
0.153,-0.46,-0.88,0.11,-0.27,-1.89,1.23,
0.155,-0.46,-0.88,0.11,-0.24,-1.92,1.24,
0.155,-0.46,-0.88,0.11,-0.22,-1.94,1.26,
0.171,-0.46,-0.88,0.11,-0.20,-1.97,1.28,
0.171,-0.46,-0.88,0.11,-0.17,-1.99,1.30,
0.171,-1.38,-1.18,0.17,-0.17,-1.99,1.30,
0.172,-1.38,-1.18,0.17,-0.15,-2.02,1.31,
0.172,-1.38,-1.18,0.17,-0.13,-2.05,1.33,
0.172,-1.38,-1.18,0.17,-0.10,-2.08,1.34,
0.172,-1.38,-1.18,0.17,-0.08,-2.11,1.35,
0.172,-1.38,-1.18,0.17,-0.05,-2.14,1.36,
0.172,-1.20,-1.20,0.26,-0.05,-2.14,1.36,
0.173,-1.20,-1.20,0.26,-0.02,-2.17,1.38,
0.173,-1.20,-1.20,0.26,0.00,-2.19,1.39,
0.173,-1.20,-1.20,0.26,0.03,-2.21,1.40,
0.173,-1.20,-1.20,0.26,0.06,-2.23,1.41,
0.185,-1.20,-1.20,0.26,0.09,-2.24,1.42,
0.185,-0.88,-1.18,0.51,0.09,-2.24,1.42,
0.186,-0.88,-1.18,0.51,0.13,-2.24,1.44,
0.186,-0.88,-1.18,0.51,0.16,-2.23,1.45,
0.186,-0.88,-1.18,0.51,0.21,-2.22,1.46,
0.186,-0.88,-1.18,0.51,0.23,-2.22,1.46,
0.186,-0.88,-1.18,0.51,0.25,-2.22,1.47,
0.188,-0.34,-1.15,0.49,0.25,-2.22,1.47,
0.188,-0.34,-1.15,0.49,0.28,-2.23,1.47,
0.202,-0.34,-1.15,0.49,0.30,-2.26,1.47,
0.202,-0.34,-1.15,0.49,0.32,-2.29,1.47,
0.202,-0.34,-1.15,0.49,0.34,-2.32,1.47,
0.202,-0.34,-1.15,0.49,0.37,-2.35,1.47,
0.202,0.40,-1.08,0.71,0.37,-2.35,1.47,
0.203,0.40,-1.08,0.71,0.39,-2.38,1.46,
0.203,0.40,-1.08,0.71,0.42,-2.42,1.46,
0.203,0.40,-1.08,0.71,0.44,-2.45,1.45,
0.203,0.40,-1.08,0.71,0.47,-2.48,1.44,
0.204,0.40,-1.08,0.71,0.48,-2.51,1.42,
0.219,1.14,-0.81,0.57,0.48,-2.51,1.42,
0.219,1.14,-0.81,0.57,0.50,-2.53,1.40,
0.219,1.14,-0.81,0.57,0.51,-2.55,1.38,
0.219,1.14,-0.81,0.57,0.52,-2.57,1.35,
0.219,1.14,-0.81,0.57,0.53,-2.57,1.33,
0.22,1.14,-0.81,0.57,0.54,-2.58,1.30,
0.22,1.52,-0.35,0.08,0.54,-2.58,1.30,
0.22,1.52,-0.35,0.08,0.55,-2.58,1.27,
0.22,1.52,-0.35,0.08,0.56,-2.58,1.24,
0.221,1.52,-0.35,0.08,0.57,-2.58,1.19,
0.233,1.52,-0.35,0.08,0.57,-2.58,1.18,
0.233,1.52,-0.35,0.08,0.57,-2.58,1.16,
0.233,1.25,-0.12,-0.26,0.57,-2.58,1.16,
0.233,1.25,-0.12,-0.26,0.58,-2.59,1.13,
0.233,1.25,-0.12,-0.26,0.58,-2.59,1.11,
0.234,1.25,-0.12,-0.26,0.59,-2.60,1.09,
0.234,1.25,-0.12,-0.26,0.59,-2.61,1.09,
0.234,1.25,-0.12,-0.26,0.60,-2.61,1.09,
0.236,0.39,-0.26,-0.33,0.60,-2.61,1.09,
0.237,0.39,-0.26,-0.33,0.61,-2.61,1.09,
0.238,0.39,-0.26,-0.33,0.63,-2.61,1.10,
0.251,0.39,-0.26,-0.33,0.65,-2.61,1.12,
0.251,0.39,-0.26,-0.33,0.67,-2.61,1.13,
0.251,0.39,-0.26,-0.33,0.69,-2.61,1.15,
0.251,-0.63,-0.53,-0.18,0.69,-2.61,1.15,
0.251,-0.63,-0.53,-0.18,0.71,-2.61,1.18,
0.252,-0.63,-0.53,-0.18,0.73,-2.61,1.20,
0.252,-0.63,-0.53,-0.18,0.74,-2.60,1.22,
0.252,-0.63,-0.53,-0.18,0.76,-2.58,1.25,
0.254,-0.63,-0.53,-0.18,0.77,-2.56,1.27,
0.294,-1.22,-0.75,-0.47,0.77,-2.56,1.27,
0.294,-1.22,-0.75,-0.47,0.78,-2.54,1.30,
0.295,-1.22,-0.75,-0.47,0.79,-2.51,1.32,
0.295,-1.22,-0.75,-0.47,0.80,-2.47,1.36,
0.295,-1.22,-0.75,-0.47,0.80,-2.46,1.38,
0.295,-1.22,-0.75,-0.47,0.80,-2.46,1.39,
0.313,-1.25,-1.06,-1.16,0.80,-2.46,1.39,
0.313,-1.25,-1.06,-1.16,0.78,-2.46,1.41,
0.313,-1.25,-1.06,-1.16,0.74,-2.48,1.42,
0.314,-1.25,-1.06,-1.16,0.66,-2.53,1.43,
0.314,-1.25,-1.06,-1.16,0.63,-2.54,1.43,
0.314,-1.25,-1.06,-1.16,0.56,-2.54,1.43,
0.314,-0.68,-1.33,-3.16,0.56,-2.54,1.43,
0.315,-0.68,-1.33,-3.16,0.50,-2.53,1.44,
0.315,-0.68,-1.33,-3.16,0.44,-2.49,1.44,
0.315,-0.68,-1.33,-3.16,0.36,-2.42,1.44,
0.315,-0.68,-1.33,-3.16,0.34,-2.39,1.44,
0.316,-0.68,-1.33,-3.16,0.29,-2.33,1.45,
0.316,-0.21,-1.22,-3.05,0.29,-2.33,1.45,
0.316,-0.21,-1.22,-3.05,0.24,-2.27,1.45,
0.317,-0.21,-1.22,-3.05,0.19,-2.22,1.45,
0.317,-0.21,-1.22,-3.05,0.12,-2.13,1.45,
0.317,-0.21,-1.22,-3.05,0.09,-2.11,1.45,
0.317,-0.21,-1.22,-3.05,0.03,-2.06,1.46,
0.318,0.60,-0.96,-2.57,0.03,-2.06,1.46,
0.318,0.60,-0.96,-2.57,-0.02,-2.02,1.45,
0.318,0.60,-0.96,-2.57,-0.08,-1.97,1.46,
0.318,0.60,-0.96,-2.57,-0.17,-1.90,1.47,
0.319,0.60,-0.96,-2.57,-0.19,-1.87,1.47,
0.319,0.60,-0.96,-2.57,-0.25,-1.82,1.47,
0.319,1.18,-0.87,-2.28,-0.25,-1.82,1.47,
0.319,1.18,-0.87,-2.28,-0.30,-1.76,1.48,
0.32,1.18,-0.87,-2.28,-0.35,-1.71,1.49,
0.32,1.18,-0.87,-2.28,-0.42,-1.63,1.50,
0.32,1.18,-0.87,-2.28,-0.45,-1.60,1.50,
0.32,1.18,-0.87,-2.28,-0.49,-1.56,1.49,
0.321,1.73,-0.90,-2.03,-0.49,-1.56,1.49,
0.321,1.73,-0.90,-2.03,-0.54,-1.52,1.49,
0.321,1.73,-0.90,-2.03,-0.58,-1.48,1.48,
0.321,1.73,-0.90,-2.03,-0.64,-1.44,1.48,
0.327,1.73,-0.90,-2.03,-0.66,-1.42,1.48,
0.327,1.73,-0.90,-2.03,-0.70,-1.39,1.47,
0.331,1.63,-0.87,-1.77,-0.70,-1.39,1.47,
0.331,1.63,-0.87,-1.77,-0.73,-1.33,1.47,
0.332,1.63,-0.87,-1.77,-0.77,-1.26,1.47,
0.332,1.63,-0.87,-1.77,-0.81,-1.14,1.49,
0.333,1.63,-0.87,-1.77,-0.83,-1.10,1.49,
0.334,1.63,-0.87,-1.77,-0.86,-1.02,1.51,
0.337,0.45,-0.80,-2.55,-0.86,-1.02,1.51,
0.337,0.45,-0.80,-2.55,-0.88,-0.96,1.53,
0.338,0.45,-0.80,-2.55,-0.91,-0.92,1.55,
0.345,0.45,-0.80,-2.55,-0.94,-0.94,1.59,
0.345,0.45,-0.80,-2.55,-0.94,-0.95,1.61,
0.347,0.45,-0.80,-2.55,-0.95,-1.01,1.64,
0.347,0.06,-1.16,-1.93,-0.95,-1.01,1.64,
0.347,0.06,-1.16,-1.93,-0.96,-1.08,1.66,
0.348,0.06,-1.16,-1.93,-0.96,-1.13,1.70,
0.351,0.06,-1.16,-1.93,-0.96,-1.20,1.74,
0.352,0.06,-1.16,-1.93,-0.96,-1.21,1.75,
0.354,0.06,-1.16,-1.93,-0.95,-1.23,1.78,
0.357,-0.13,-1.71,-1.07,-0.95,-1.23,1.78,
0.357,-0.13,-1.71,-1.07,-0.94,-1.24,1.80,
0.358,-0.13,-1.71,-1.07,-0.93,-1.23,1.82,
0.361,-0.13,-1.71,-1.07,-0.91,-1.20,1.86,
0.363,-0.13,-1.71,-1.07,-0.90,-1.19,1.87,
0.364,-0.13,-1.71,-1.07,-0.88,-1.16,1.90,
0.367,-0.33,-1.95,-0.82,-0.88,-1.16,1.90,
0.367,-0.33,-1.95,-0.82,-0.87,-1.12,1.93,
0.368,-0.33,-1.95,-0.82,-0.86,-1.09,1.95,
0.371,-0.33,-1.95,-0.82,-0.86,-1.02,1.97,
0.384,-0.33,-1.95,-0.82,-0.86,-1.00,1.98,
0.385,-0.33,-1.95,-0.82,-0.86,-0.96,1.98,
0.385,0.10,-2.28,-1.17,-0.86,-0.96,1.98,
0.386,0.10,-2.28,-1.17,-0.87,-0.91,1.97,
0.386,0.10,-2.28,-1.17,-0.87,-0.88,1.96,
0.386,0.10,-2.28,-1.17,-0.87,-0.83,1.93,
0.386,0.10,-2.28,-1.17,-0.87,-0.82,1.92,
0.387,0.10,-2.28,-1.17,-0.87,-0.81,1.89,
0.426,0.78,-2.32,-1.05,-0.87,-0.81,1.89,
0.426,0.78,-2.32,-1.05,-0.86,-0.82,1.85,
0.426,0.78,-2.32,-1.05,-0.84,-0.84,1.81,
0.426,0.78,-2.32,-1.05,-0.80,-0.88,1.76,
0.427,0.78,-2.32,-1.05,-0.79,-0.89,1.74,
0.427,0.78,-2.32,-1.05,-0.76,-0.91,1.70,
0.427,1.23,-2.35,0.02,-0.76,-0.91,1.70,
0.427,1.23,-2.35,0.02,-0.71,-0.93,1.67,
0.427,1.23,-2.35,0.02,-0.67,-0.93,1.63,
0.427,1.23,-2.35,0.02,-0.61,-0.92,1.59,
0.427,1.23,-2.35,0.02,-0.59,-0.91,1.57,
0.427,1.23,-2.35,0.02,-0.55,-0.87,1.55,
0.428,1.10,-2.37,0.58,-0.55,-0.87,1.55,
0.428,1.10,-2.37,0.58,-0.51,-0.84,1.52,
0.428,1.10,-2.37,0.58,-0.48,-0.79,1.49,
0.428,1.10,-2.37,0.58,-0.42,-0.72,1.45,
0.428,1.10,-2.37,0.58,-0.41,-0.70,1.44,
0.428,1.10,-2.37,0.58,-0.38,-0.65,1.41,
0.428,0.93,-2.30,0.31,-0.38,-0.65,1.41,
0.428,0.93,-2.30,0.31,-0.35,-0.59,1.38,
0.429,0.93,-2.30,0.31,-0.32,-0.54,1.35,
0.429,0.93,-2.30,0.31,-0.29,-0.46,1.31,
0.429,0.93,-2.30,0.31,-0.28,-0.43,1.29,
0.429,0.93,-2.30,0.31,-0.25,-0.24,1.17,
0.432,0.93,-2.30,0.31,-0.25,-0.24,1.17,
0.433,0.93,-2.30,0.31,-0.25,-0.24,1.17,
0.433,1.52,-1.88,-0.74,-0.25,-0.24,1.17,
0.434,1.52,-1.88,-0.74,-0.24,-0.12,1.09,
0.448,1.52,-1.88,-0.74,-0.25,-0.07,1.04,
0.448,1.52,-1.88,-0.74,-0.26,-0.04,1.02,
0.448,1.71,-1.82,-1.16,-0.26,-0.04,1.02,
0.448,1.71,-1.82,-1.16,-0.26,-0.01,1.00,
0.448,1.71,-1.82,-1.16,-0.27,0.03,0.96,
0.449,1.71,-1.82,-1.16,-0.29,0.10,0.90,
0.449,1.71,-1.82,-1.16,-0.30,0.12,0.88,
0.449,1.71,-1.82,-1.16,-0.33,0.15,0.84,
0.449,1.34,-1.83,-1.33,-0.33,0.15,0.84,
0.449,1.34,-1.83,-1.33,-0.36,0.19,0.81,
0.45,1.34,-1.83,-1.33,-0.40,0.21,0.77,
0.453,1.34,-1.83,-1.33,-0.45,0.26,0.72,
0.453,1.34,-1.83,-1.33,-0.48,0.27,0.71,
0.454,1.34,-1.83,-1.33,-0.53,0.31,0.67,
0.465,0.50,-2.01,-1.40,-0.53,0.31,0.67,
0.465,0.50,-2.01,-1.40,-0.60,0.35,0.63,
0.466,0.50,-2.01,-1.40,-0.66,0.39,0.59,
0.466,0.50,-2.01,-1.40,-0.77,0.43,0.53,
0.466,0.50,-2.01,-1.40,-0.81,0.44,0.51,
0.466,0.50,-2.01,-1.40,-0.88,0.44,0.48,
0.466,-0.20,-2.00,-1.53,-0.88,0.44,0.48,
0.466,-0.20,-2.00,-1.53,-0.94,0.44,0.45,
0.468,-0.20,-2.00,-1.53,-1.01,0.44,0.43,
0.471,-0.20,-2.00,-1.53,-1.09,0.43,0.42,
0.482,-0.20,-2.00,-1.53,-1.11,0.42,0.42,
0.482,-0.20,-2.00,-1.53,-1.16,0.42,0.41,
0.482,-0.95,-2.02,-1.03,-1.16,0.42,0.41,
0.482,-0.95,-2.02,-1.03,-1.20,0.40,0.41,
0.482,-0.95,-2.02,-1.03,-1.24,0.38,0.40,
0.483,-0.95,-2.02,-1.03,-1.30,0.34,0.39,
0.483,-0.95,-2.02,-1.03,-1.32,0.32,0.39,
0.484,-0.95,-2.02,-1.03,-1.35,0.30,0.37,
0.486,-1.02,-2.15,-0.42,-1.35,0.30,0.37,
0.486,-1.02,-2.15,-0.42,-1.39,0.28,0.36,
0.498,-1.02,-2.15,-0.42,-1.42,0.27,0.35,
0.498,-1.02,-2.15,-0.42,-1.47,0.25,0.32,
0.499,-1.02,-2.15,-0.42,-1.49,0.25,0.31,
0.499,-1.02,-2.15,-0.42,-1.53,0.24,0.29,
0.499,-0.45,-2.21,-0.56,-1.53,0.24,0.29,
0.499,-0.45,-2.21,-0.56,-1.56,0.22,0.27,
0.499,-0.45,-2.21,-0.56,-1.60,0.21,0.25,
0.501,-0.45,-2.21,-0.56,-1.65,0.18,0.22,
0.502,-0.45,-2.21,-0.56,-1.67,0.17,0.22,
0.504,-0.45,-2.21,-0.56,-1.70,0.14,0.20,
0.518,-0.37,-2.02,-0.98,-1.70,0.14,0.20,
0.518,-0.37,-2.02,-0.98,-1.74,0.12,0.19,
0.519,-0.37,-2.02,-0.98,-1.77,0.09,0.18,
0.519,-0.37,-2.02,-0.98,-1.82,0.06,0.16,
0.519,-0.37,-2.02,-0.98,-1.84,0.04,0.16,
0.519,-0.37,-2.02,-0.98,-1.86,0.01,0.14,
0.519,-0.49,-1.94,-0.88,-1.86,0.01,0.14,
0.519,-0.49,-1.94,-0.88,-1.89,-0.01,0.13,
0.519,-0.49,-1.94,-0.88,-1.91,-0.04,0.12,
0.535,-0.49,-1.94,-0.88,-1.95,-0.09,0.11,
0.536,-0.49,-1.94,-0.88,-1.96,-0.12,0.10,
0.536,-0.49,-1.94,-0.88,-1.98,-0.18,0.09,
0.536,-1.22,-2.17,-0.15,-1.98,-0.18,0.09,
0.536,-1.22,-2.17,-0.15,-2.00,-0.25,0.07,
0.536,-1.22,-2.17,-0.15,-2.02,-0.32,0.06,
0.536,-1.22,-2.17,-0.15,-2.04,-0.41,0.03,
0.536,-1.22,-2.17,-0.15,-2.05,-0.43,0.02,
0.536,-1.22,-2.17,-0.15,-2.06,-0.46,0.00,
0.537,-1.88,-2.70,0.82,-2.06,-0.46,0.00,
0.537,-1.88,-2.70,0.82,-2.07,-0.47,-0.01,
0.567,-1.88,-2.70,0.82,-2.08,-0.46,-0.02,
0.567,-1.88,-2.70,0.82,-2.10,-0.43,-0.01,
0.567,-1.88,-2.70,0.82,-2.11,-0.41,-0.01,
0.567,-1.88,-2.70,0.82,-2.13,-0.36,0.01,
0.567,-3.03,-2.59,0.07,-2.13,-0.36,0.01,
0.567,-3.03,-2.59,0.07,-2.14,-0.31,0.02,
0.567,-3.03,-2.59,0.07,-2.16,-0.25,0.05,
0.568,-3.03,-2.59,0.07,-2.17,-0.15,0.09,
0.568,-3.03,-2.59,0.07,-2.18,-0.11,0.10,
0.568,-3.03,-2.59,0.07,-2.20,-0.05,0.12,
0.568,-3.85,-2.81,-0.90,-2.20,-0.05,0.12,
0.568,-3.85,-2.81,-0.90,-2.21,0.01,0.15,
0.568,-3.85,-2.81,-0.90,-2.23,0.08,0.17,
0.568,-3.85,-2.81,-0.90,-2.27,0.16,0.20,
0.568,-3.85,-2.81,-0.90,-2.28,0.18,0.20,
0.569,-3.85,-2.81,-0.90,-2.31,0.22,0.21,
0.569,-3.83,-3.31,-1.63,-2.31,0.22,0.21,
0.569,-3.83,-3.31,-1.63,-2.34,0.26,0.22,
0.569,-3.83,-3.31,-1.63,-2.37,0.30,0.22,
0.583,-3.83,-3.31,-1.63,-2.43,0.35,0.22,
0.583,-3.83,-3.31,-1.63,-2.46,0.37,0.21,
0.583,-3.83,-3.31,-1.63,-2.51,0.41,0.20,
0.583,-3.01,-4.08,-1.85,-2.51,0.41,0.20,
0.583,-3.01,-4.08,-1.85,-2.57,0.45,0.19,
0.583,-3.01,-4.08,-1.85,-2.64,0.50,0.18,
0.583,-3.01,-4.08,-1.85,-2.74,0.55,0.17,
0.583,-3.01,-4.08,-1.85,-2.78,0.56,0.17,
0.584,-3.01,-4.08,-1.85,-2.86,0.56,0.17,
0.586,-1.69,-4.11,-2.02,-2.86,0.56,0.17,
0.586,-1.69,-4.11,-2.02,-2.94,0.52,0.16,
0.603,-1.69,-4.11,-2.02,-3.01,0.47,0.16,
0.603,-1.69,-4.11,-2.02,-3.11,0.37,0.14,
0.604,-1.69,-4.11,-2.02,-3.15,0.33,0.14,
0.604,-1.69,-4.11,-2.02,-3.22,0.27,0.13,
0.605,-0.53,-4.29,-2.36,-3.22,0.27,0.13,
0.605,-0.53,-4.29,-2.36,-3.28,0.24,0.12,
0.626,-0.53,-4.29,-2.36,-3.35,0.22,0.10,
0.626,-0.53,-4.29,-2.36,-3.44,0.23,0.09,
0.626,-0.53,-4.29,-2.36,-3.47,0.23,0.09,
0.627,-0.53,-4.29,-2.36,-3.54,0.25,0.08,
0.627,0.40,-4.66,-2.18,-3.54,0.25,0.08,
0.627,0.40,-4.66,-2.18,-3.60,0.25,0.08,
0.627,0.40,-4.66,-2.18,-3.65,0.25,0.08,
0.627,0.40,-4.66,-2.18,-3.73,0.25,0.09,
0.627,0.40,-4.66,-2.18,-3.78,0.25,0.10,
0.628,0.40,-4.66,-2.18,-3.81,0.24,0.11,
0.628,0.69,-4.97,-1.30,-3.81,0.24,0.11,
0.628,0.69,-4.97,-1.30,-3.86,0.23,0.13,
0.628,0.69,-4.97,-1.30,-3.92,0.20,0.16,
0.628,0.69,-4.97,-1.30,-4.00,0.13,0.20,
0.629,0.69,-4.97,-1.30,-4.02,0.10,0.22,
0.629,0.69,-4.97,-1.30,-4.08,0.04,0.25,
0.629,0.58,-4.58,-0.43,-4.08,0.04,0.25,
0.629,0.58,-4.58,-0.43,-4.14,-0.01,0.29,
0.629,0.58,-4.58,-0.43,-4.19,-0.05,0.33,
0.632,0.58,-4.58,-0.43,-4.28,-0.09,0.40,
0.632,0.58,-4.58,-0.43,-4.31,-0.10,0.42,
0.634,0.58,-4.58,-0.43,-4.36,-0.11,0.47,
0.636,0.98,-3.59,-0.48,-4.36,-0.11,0.47,
0.636,0.98,-3.59,-0.48,-4.41,-0.11,0.52,
0.64,0.98,-3.59,-0.48,-4.44,-0.11,0.58,
0.641,0.98,-3.59,-0.48,-4.48,-0.09,0.67,
0.642,0.98,-3.59,-0.48,-4.49,-0.09,0.70,
0.644,0.98,-3.59,-0.48,-4.50,-0.07,0.76,
0.646,1.81,-2.15,-0.16,-4.50,-0.07,0.76,
0.647,1.81,-2.15,-0.16,-4.50,-0.06,0.82,
0.648,1.81,-2.15,-0.16,-4.50,-0.05,0.88,
0.651,1.81,-2.15,-0.16,-4.47,-0.03,0.96,
0.652,1.81,-2.15,-0.16,-4.46,-0.02,0.99,
0.654,1.81,-2.15,-0.16,-4.43,-0.01,1.04,
0.657,2.92,-1.24,0.50,-4.43,-0.01,1.04,
0.657,2.92,-1.24,0.50,-4.40,-0.01,1.07,
0.658,2.92,-1.24,0.50,-4.36,-0.00,1.11,
0.661,2.92,-1.24,0.50,-4.30,-0.00,1.16,
0.662,2.92,-1.24,0.50,-4.28,-0.01,1.17,
0.664,2.92,-1.24,0.50,-4.24,-0.01,1.19,
0.667,3.93,-1.11,0.76,-4.24,-0.01,1.19,
0.667,3.93,-1.11,0.76,-4.20,-0.02,1.21,
0.668,3.93,-1.11,0.76,-4.17,-0.03,1.23,
0.678,3.93,-1.11,0.76,-4.12,-0.04,1.24,
0.679,3.93,-1.11,0.76,-4.10,-0.04,1.24,
0.679,3.93,-1.11,0.76,-4.08,-0.05,1.24,
0.679,5.19,-1.49,0.46,-4.08,-0.05,1.24,
0.68,5.19,-1.49,0.46,-4.05,-0.05,1.24,
0.68,5.19,-1.49,0.46,-4.04,-0.05,1.23,
0.681,5.19,-1.49,0.46,-4.02,-0.05,1.20,
0.682,5.19,-1.49,0.46,-4.02,-0.05,1.19,
0.684,5.19,-1.49,0.46,-4.02,-0.04,1.17,
0.711,6.71,-2.02,-0.18,-4.02,-0.04,1.17,
0.712,6.71,-2.02,-0.18,-4.04,-0.03,1.15,
0.712,6.71,-2.02,-0.18,-4.06,-0.01,1.12,
0.713,6.71,-2.02,-0.18,-4.10,0.01,1.08,
0.713,6.71,-2.02,-0.18,-4.12,0.02,1.06,
0.713,6.71,-2.02,-0.18,-4.16,0.03,1.02,
0.714,8.15,-2.37,-0.99,-4.16,0.03,1.02,
0.715,8.15,-2.37,-0.99,-4.20,0.05,0.97,
0.715,8.15,-2.37,-0.99,-4.25,0.08,0.92,
0.716,8.15,-2.37,-0.99,-4.33,0.11,0.83,
0.717,8.15,-2.37,-0.99,-4.36,0.12,0.80,
0.718,8.15,-2.37,-0.99,-4.42,0.14,0.74,
0.719,9.51,-2.39,-1.01,-4.42,0.14,0.74,
0.719,9.51,-2.39,-1.01,-4.48,0.16,0.67,
0.72,9.51,-2.39,-1.01,-4.54,0.18,0.60,
0.721,9.51,-2.39,-1.01,-4.63,0.20,0.49,
0.722,9.51,-2.39,-1.01,-4.65,0.21,0.45,
0.723,9.51,-2.39,-1.01,-4.71,0.23,0.37,
0.723,10.40,-1.87,-0.60,-4.71,0.23,0.37,
0.724,10.40,-1.87,-0.60,-4.76,0.24,0.30,
0.725,10.40,-1.87,-0.60,-4.80,0.24,0.22,
0.726,10.40,-1.87,-0.60,-4.86,0.24,0.11,
0.726,10.40,-1.87,-0.60,-4.88,0.23,0.07,
0.727,10.40,-1.87,-0.60,-4.90,0.22,0.01,
0.728,10.47,-1.29,0.54,-4.90,0.22,0.01,
0.728,10.47,-1.29,0.54,-4.92,0.20,-0.06,
0.729,10.47,-1.29,0.54,-4.94,0.18,-0.12,
0.74,10.47,-1.29,0.54,-4.96,0.15,-0.20,
0.74,10.47,-1.29,0.54,-4.97,0.13,-0.22,
0.741,10.47,-1.29,0.54,-4.98,0.10,-0.26,
0.741,9.91,-0.72,1.56,-4.98,0.10,-0.26,
0.741,9.91,-0.72,1.56,-4.98,0.08,-0.30,
0.741,9.91,-0.72,1.56,-4.98,0.05,-0.32,
0.741,9.91,-0.72,1.56,-4.97,0.02,-0.34,
0.743,9.91,-0.72,1.56,-4.97,0.01,-0.34,
0.744,9.91,-0.72,1.56,-4.95,-0.01,-0.34,
0.747,8.54,0.06,2.58,-4.95,-0.01,-0.34,
0.747,8.54,0.06,2.58,-4.93,-0.04,-0.34,
0.748,8.54,0.06,2.58,-4.91,-0.07,-0.32,
0.751,8.54,0.06,2.58,-4.86,-0.13,-0.29,
0.752,8.54,0.06,2.58,-4.84,-0.15,-0.28,
0.768,8.54,0.06,2.58,-4.80,-0.19,-0.26,
0.768,7.37,1.13,3.56,-4.80,-0.19,-0.26,
0.77,7.37,1.13,3.56,-4.77,-0.24,-0.24,
0.77,7.37,1.13,3.56,-4.72,-0.28,-0.21,
0.771,7.37,1.13,3.56,-4.65,-0.34,-0.18,
0.771,7.37,1.13,3.56,-4.63,-0.36,-0.17,
0.772,7.37,1.13,3.56,-4.58,-0.40,-0.14,
0.794,6.98,1.95,4.50,-4.58,-0.40,-0.14,
0.795,6.98,1.95,4.50,-4.52,-0.45,-0.12,
0.795,6.98,1.95,4.50,-4.47,-0.49,-0.10,
0.796,6.98,1.95,4.50,-4.38,-0.55,-0.07,
0.796,6.98,1.95,4.50,-4.35,-0.57,-0.06,
0.796,6.98,1.95,4.50,-4.28,-0.60,-0.05,
0.797,6.97,2.64,5.48,-4.28,-0.60,-0.05,
0.797,6.97,2.64,5.48,-4.22,-0.63,-0.04,
0.797,6.97,2.64,5.48,-4.16,-0.65,-0.04,
0.798,6.97,2.64,5.48,-4.07,-0.69,-0.05,
0.798,6.97,2.64,5.48,-4.04,-0.70,-0.05,
0.798,6.97,2.64,5.48,-3.98,-0.72,-0.07,
0.798,7.18,2.95,5.96,-3.98,-0.72,-0.07,
0.799,7.18,2.95,5.96,-3.92,-0.74,-0.08,
0.799,7.18,2.95,5.96,-3.86,-0.76,-0.10,
0.799,7.18,2.95,5.96,-3.77,-0.79,-0.14,
0.799,7.18,2.95,5.96,-3.74,-0.81,-0.15,
0.8,7.18,2.95,5.96,-3.67,-0.84,-0.18,
0.8,7.32,3.43,6.34,-3.67,-0.84,-0.18,
0.8,7.32,3.43,6.34,-3.61,-0.87,-0.20,
0.801,7.32,3.43,6.34,-3.54,-0.91,-0.23,
0.801,7.32,3.43,6.34,-3.45,-0.97,-0.26,
0.808,7.32,3.43,6.34,-3.42,-0.99,-0.27,
0.809,7.32,3.43,6.34,-3.36,-1.03,-0.28,
0.809,6.69,3.62,6.43,-3.36,-1.03,-0.28,
0.809,6.69,3.62,6.43,-3.30,-1.07,-0.29,
0.809,6.69,3.62,6.43,-3.24,-1.11,-0.31,
0.811,6.69,3.62,6.43,-3.16,-1.18,-0.32,
0.812,6.69,3.62,6.43,-3.13,-1.20,-0.32,
0.814,6.69,3.62,6.43,-3.07,-1.23,-0.33,
0.816,5.79,3.88,6.32,-3.07,-1.23,-0.33,
0.817,5.79,3.88,6.32,-3.01,-1.27,-0.33,
0.818,5.79,3.88,6.32,-2.96,-1.30,-0.34,
0.821,5.79,3.88,6.32,-2.87,-1.36,-0.34,
0.822,5.79,3.88,6.32,-2.84,-1.37,-0.34,
0.824,5.79,3.88,6.32,-2.78,-1.41,-0.34,
0.827,4.67,4.03,6.40,-2.78,-1.41,-0.34,
0.827,4.67,4.03,6.40,-2.73,-1.45,-0.35,
0.828,4.67,4.03,6.40,-2.67,-1.49,-0.35,
0.831,4.67,4.03,6.40,-2.58,-1.57,-0.36,
0.832,4.67,4.03,6.40,-2.55,-1.59,-0.36,
0.834,4.67,4.03,6.40,-2.49,-1.65,-0.37,
0.843,3.70,4.19,6.83,-2.49,-1.65,-0.37,
0.843,3.70,4.19,6.83,-2.43,-1.70,-0.38,
0.843,3.70,4.19,6.83,-2.38,-1.75,-0.38,
0.844,3.70,4.19,6.83,-2.31,-1.81,-0.39,
0.844,3.70,4.19,6.83,-2.28,-1.83,-0.39,
0.844,3.70,4.19,6.83,-2.23,-1.86,-0.39,
0.853,2.72,3.90,6.29,-2.23,-1.86,-0.39,
0.853,2.72,3.90,6.29,-2.19,-1.89,-0.39,
0.853,2.72,3.90,6.29,-2.14,-1.91,-0.39,
0.853,2.72,3.90,6.29,-2.07,-1.93,-0.39,
0.853,2.72,3.90,6.29,-2.05,-1.94,-0.39,
0.872,2.72,3.90,6.29,-2.00,-1.94,-0.39,
0.873,2.00,3.39,5.82,-2.00,-1.94,-0.39,
0.873,2.00,3.39,5.82,-1.96,-1.95,-0.39,
0.873,2.00,3.39,5.82,-1.91,-1.96,-0.39,
0.873,2.00,3.39,5.82,-1.85,-1.96,-0.40,
0.873,2.00,3.39,5.82,-1.83,-1.96,-0.41,
0.873,2.00,3.39,5.82,-1.78,-1.95,-0.42,
0.873,1.49,2.67,5.39,-1.78,-1.95,-0.42,
0.874,1.49,2.67,5.39,-1.74,-1.95,-0.43,
0.874,1.49,2.67,5.39,-1.70,-1.93,-0.45,
0.874,1.49,2.67,5.39,-1.65,-1.90,-0.47,
0.874,1.49,2.67,5.39,-1.63,-1.89,-0.48,
0.874,1.49,2.67,5.39,-1.59,-1.86,-0.50,
0.876,0.94,2.43,5.15,-1.59,-1.86,-0.50,
0.876,0.94,2.43,5.15,-1.55,-1.83,-0.52,
0.878,0.94,2.43,5.15,-1.52,-1.80,-0.54,
0.881,0.94,2.43,5.15,-1.47,-1.76,-0.57,
0.882,0.94,2.43,5.15,-1.45,-1.75,-0.59,
0.884,0.94,2.43,5.15,-1.42,-1.72,-0.61,
0.887,0.31,2.53,4.95,-1.42,-1.72,-0.61,
0.887,0.31,2.53,4.95,-1.38,-1.69,-0.64,
0.888,0.31,2.53,4.95,-1.35,-1.66,-0.67,
0.891,0.31,2.53,4.95,-1.30,-1.61,-0.72,
0.892,0.31,2.53,4.95,-1.28,-1.60,-0.73,
0.894,0.31,2.53,4.95,-1.24,-1.57,-0.76,
0.896,-0.06,2.97,5.26,-1.24,-1.57,-0.76,
0.897,-0.06,2.97,5.26,-1.19,-1.54,-0.78,
0.898,-0.06,2.97,5.26,-1.14,-1.50,-0.80,
0.901,-0.06,2.97,5.26,-1.06,-1.45,-0.83,
0.902,-0.06,2.97,5.26,-1.03,-1.44,-0.84,
0.905,-0.06,2.97,5.26,-0.97,-1.41,-0.85,
0.907,-0.74,3.28,5.66,-0.97,-1.41,-0.85,
0.907,-0.74,3.28,5.66,-0.91,-1.38,-0.85,
0.908,-0.74,3.28,5.66,-0.85,-1.35,-0.85,
0.911,-0.74,3.28,5.66,-0.76,-1.31,-0.84,
0.912,-0.74,3.28,5.66,-0.72,-1.30,-0.83,
0.915,-0.74,3.28,5.66,-0.66,-1.27,-0.82,
0.918,-1.68,3.53,5.87,-0.66,-1.27,-0.82,
0.918,-1.68,3.53,5.87,-0.59,-1.23,-0.80,
0.918,-1.68,3.53,5.87,-0.52,-1.20,-0.78,
0.925,-1.68,3.53,5.87,-0.41,-1.18,-0.73,
0.926,-1.68,3.53,5.87,-0.37,-1.18,-0.72,
0.926,-1.68,3.53,5.87,-0.30,-1.17,-0.68,
0.927,-1.68,3.53,5.87,-0.22,-1.17,-0.65,
0.928,-2.45,3.52,5.66,-0.22,-1.17,-0.65,
0.928,-2.45,3.52,5.66,-0.15,-1.17,-0.61,
0.931,-2.45,3.52,5.66,-0.05,-1.20,-0.56,
0.953,-2.45,3.52,5.66,-0.02,-1.21,-0.55,
0.953,-2.45,3.52,5.66,0.04,-1.23,-0.52,
0.953,-2.75,3.09,5.12,0.04,-1.23,-0.52,
0.954,-2.75,3.09,5.12,0.08,-1.27,-0.49,
0.954,-2.75,3.09,5.12,0.13,-1.30,-0.47,
0.954,-2.75,3.09,5.12,0.21,-1.37,-0.44,
0.954,-2.75,3.09,5.12,0.24,-1.40,-0.42,
0.955,-2.75,3.09,5.12,0.30,-1.45,-0.40,
0.955,-3.04,2.26,5.07,0.30,-1.45,-0.40,
0.955,-3.04,2.26,5.07,0.36,-1.51,-0.36,
0.956,-3.04,2.26,5.07,0.44,-1.56,-0.33,
0.956,-3.04,2.26,5.07,0.56,-1.60,-0.28,
0.956,-3.04,2.26,5.07,0.60,-1.61,-0.27,
0.956,-3.04,2.26,5.07,0.68,-1.63,-0.24,
0.957,-3.84,1.64,5.81,0.68,-1.63,-0.24,
0.957,-3.84,1.64,5.81,0.77,-1.63,-0.21,
0.961,-3.84,1.64,5.81,0.86,-1.63,-0.18,
0.962,-3.84,1.64,5.81,0.99,-1.61,-0.14,
0.964,-3.84,1.64,5.81,1.12,-1.57,-0.11,
0.965,-3.84,1.64,5.81,1.12,-1.57,-0.11,
0.966,-4.21,1.15,5.50,1.12,-1.57,-0.11,
0.967,-4.21,1.15,5.50,1.20,-1.53,-0.09,
0.968,-4.21,1.15,5.50,1.29,-1.49,-0.07,
0.971,-4.21,1.15,5.50,1.42,-1.41,-0.05,
0.972,-4.21,1.15,5.50,1.46,-1.38,-0.04,
0.976,-4.21,1.15,5.50,1.56,-1.30,-0.02,
0.979,-4.90,0.73,5.74,1.56,-1.30,-0.02,
0.979,-4.90,0.73,5.74,1.68,-1.20,0.01,
0.979,-4.90,0.73,5.74,1.81,-1.09,0.05,
0.981,-4.90,0.73,5.74,1.96,-0.98,0.09,
0.982,-4.90,0.73,5.74,2.01,-0.95,0.10,
0.984,-4.90,0.73,5.74,2.10,-0.87,0.12,
0.987,-5.38,0.26,5.41,2.10,-0.87,0.12,
0.988,-5.38,0.26,5.41,2.20,-0.77,0.14,
0.988,-5.38,0.26,5.41,2.29,-0.67,0.15,
0.992,-5.38,0.26,5.41,2.40,-0.52,0.16,
0.992,-5.38,0.26,5.41,2.44,-0.47,0.17,
0.994,-5.38,0.26,5.41,2.50,-0.38,0.16,
0.996,-5.13,0.13,4.29,2.50,-0.38,0.16,
0.997,-5.13,0.13,4.29,2.57,-0.29,0.16,
0.998,-5.13,0.13,4.29,2.62,-0.22,0.15,
1.001,-5.13,0.13,4.29,2.69,-0.14,0.14,
1.002,-5.13,0.13,4.29,2.72,-0.12,0.13,
1.012,-5.13,0.13,4.29,2.77,-0.09,0.12,
1.013,-4.63,0.26,3.55,2.77,-0.09,0.12,
1.013,-4.63,0.26,3.55,2.81,-0.07,0.11,
1.013,-4.63,0.26,3.55,2.85,-0.05,0.10,
1.014,-4.63,0.26,3.55,2.91,-0.04,0.08,
1.014,-4.63,0.26,3.55,2.92,-0.04,0.08,
1.014,-4.63,0.26,3.55,2.95,-0.04,0.07,
1.017,-4.51,0.30,3.34,2.95,-0.04,0.07,
1.017,-4.51,0.30,3.34,2.98,-0.05,0.07,
1.018,-4.51,0.30,3.34,3.01,-0.06,0.07,
1.053,-4.51,0.30,3.34,3.02,-0.13,0.09,
1.053,-4.51,0.30,3.34,3.02,-0.15,0.10,
1.053,-4.51,0.30,3.34,3.03,-0.21,0.12,
1.053,-4.66,0.55,2.41,3.03,-0.21,0.12,
1.054,-4.66,0.55,2.41,3.04,-0.26,0.15,
1.054,-4.66,0.55,2.41,3.05,-0.33,0.18,
1.054,-4.66,0.55,2.41,3.05,-0.43,0.23,
1.054,-4.66,0.55,2.41,3.05,-0.47,0.26,
1.054,-4.66,0.55,2.41,3.05,-0.54,0.30,
1.055,-4.80,1.02,1.74,3.05,-0.54,0.30,
1.055,-4.80,1.02,1.74,3.03,-0.61,0.36,
1.055,-4.80,1.02,1.74,3.02,-0.68,0.41,
1.055,-4.80,1.02,1.74,2.99,-0.77,0.50,
1.055,-4.80,1.02,1.74,2.99,-0.80,0.53,
1.056,-4.80,1.02,1.74,2.97,-0.88,0.59,
1.056,-4.27,1.24,1.00,2.97,-0.88,0.59,
1.056,-4.27,1.24,1.00,2.96,-0.96,0.64,
1.056,-4.27,1.24,1.00,2.93,-1.06,0.69,
1.056,-4.27,1.24,1.00,2.89,-1.23,0.74,
1.057,-4.27,1.24,1.00,2.87,-1.28,0.76,
1.057,-4.27,1.24,1.00,2.84,-1.38,0.79,
1.057,-2.63,1.01,0.81,2.84,-1.38,0.79,
1.057,-2.63,1.01,0.81,2.81,-1.46,0.81,
1.059,-2.63,1.01,0.81,2.79,-1.51,0.83,
1.061,-2.63,1.01,0.81,2.77,-1.55,0.86,
1.062,-2.63,1.01,0.81,2.76,-1.56,0.88,
1.064,-2.63,1.01,0.81,2.75,-1.55,0.90,
1.067,-0.63,-0.18,1.09,2.75,-1.55,0.90,
1.068,-0.63,-0.18,1.09,2.73,-1.53,0.92,
1.068,-0.63,-0.18,1.09,2.72,-1.49,0.95,
1.073,-0.63,-0.18,1.09,2.67,-1.43,0.99,
1.074,-0.63,-0.18,1.09,2.65,-1.41,1.01,
1.075,-0.63,-0.18,1.09,2.61,-1.37,1.04,
1.077,0.34,-1.51,-0.14,2.61,-1.37,1.04,
1.077,0.34,-1.51,-0.14,2.57,-1.33,1.07,
1.078,0.34,-1.51,-0.14,2.51,-1.30,1.10,
1.081,0.34,-1.51,-0.14,2.42,-1.26,1.13,
1.082,0.34,-1.51,-0.14,2.39,-1.25,1.14,
1.084,0.34,-1.51,-0.14,2.31,-1.24,1.15,
1.089,1.14,-2.21,-1.86,2.31,-1.24,1.15,
1.091,1.14,-2.21,-1.86,2.24,-1.23,1.16,
1.091,1.14,-2.21,-1.86,2.15,-1.21,1.16,
1.092,1.14,-2.21,-1.86,2.02,-1.18,1.16,
1.093,1.14,-2.21,-1.86,1.97,-1.17,1.15,
1.094,1.14,-2.21,-1.86,1.88,-1.14,1.14,
1.097,1.75,-2.34,-3.35,1.88,-1.14,1.14,
1.097,1.75,-2.34,-3.35,1.79,-1.11,1.13,
1.125,1.75,-2.34,-3.35,1.70,-1.08,1.11,
1.126,1.75,-2.34,-3.35,1.57,-1.03,1.07,
1.127,1.75,-2.34,-3.35,1.52,-1.00,1.06,
1.127,1.75,-2.34,-3.35,1.44,-0.94,1.02,
1.127,1.63,-2.12,-3.56,1.44,-0.94,1.02,
1.128,1.63,-2.12,-3.56,1.37,-0.86,0.99,
1.128,1.63,-2.12,-3.56,1.29,-0.79,0.95,
1.128,1.63,-2.12,-3.56,1.19,-0.70,0.89,
1.128,1.63,-2.12,-3.56,1.16,-0.67,0.86,
1.129,1.63,-2.12,-3.56,1.10,-0.62,0.82,
1.129,1.14,-1.52,-3.60,1.10,-0.62,0.82,
1.129,1.14,-1.52,-3.60,1.05,-0.57,0.78,
1.129,1.14,-1.52,-3.60,1.02,-0.51,0.74,
1.13,1.14,-1.52,-3.60,0.98,-0.40,0.68,
1.13,1.14,-1.52,-3.60,0.98,-0.36,0.67,
1.13,1.14,-1.52,-3.60,0.97,-0.28,0.64,
1.131,-0.28,-0.40,-2.66,0.97,-0.28,0.64,
1.131,-0.28,-0.40,-2.66,0.98,-0.21,0.62,
1.131,-0.28,-0.40,-2.66,0.99,-0.14,0.60,
1.131,-0.28,-0.40,-2.66,1.04,-0.04,0.58,
1.137,-0.28,-0.40,-2.66,1.06,-0.02,0.58,
1.138,-0.28,-0.40,-2.66,1.10,0.03,0.57,
1.139,-1.95,0.56,-1.15,1.10,0.03,0.57,
1.139,-1.95,0.56,-1.15,1.15,0.06,0.57,
1.14,-1.95,0.56,-1.15,1.21,0.08,0.56,
1.141,-1.95,0.56,-1.15,1.30,0.11,0.55,
1.142,-1.95,0.56,-1.15,1.33,0.13,0.55,
1.144,-1.95,0.56,-1.15,1.38,0.15,0.55,
1.147,-2.73,0.78,-0.09,1.38,0.15,0.55,
1.147,-2.73,0.78,-0.09,1.43,0.19,0.55,
1.148,-2.73,0.78,-0.09,1.48,0.23,0.55,
1.151,-2.73,0.78,-0.09,1.55,0.29,0.56,
1.153,-2.73,0.78,-0.09,1.56,0.32,0.56,
1.157,-2.73,0.78,-0.09,1.59,0.36,0.57,
1.158,-2.95,0.54,-0.47,1.59,0.36,0.57,
1.158,-2.95,0.54,-0.47,1.61,0.40,0.58,
1.158,-2.95,0.54,-0.47,1.62,0.44,0.59,
1.161,-2.95,0.54,-0.47,1.63,0.47,0.61,
1.163,-2.95,0.54,-0.47,1.63,0.47,0.62,
1.164,-2.95,0.54,-0.47,1.62,0.48,0.63,
1.167,-2.62,0.18,-1.08,1.62,0.48,0.63,
1.167,-2.62,0.18,-1.08,1.61,0.48,0.65,
1.168,-2.62,0.18,-1.08,1.60,0.48,0.67,
1.177,-2.62,0.18,-1.08,1.58,0.48,0.70,
1.178,-2.62,0.18,-1.08,1.56,0.47,0.71,
1.178,-2.62,0.18,-1.08,1.54,0.47,0.73,
1.178,-2.01,-0.50,-1.05,1.54,0.47,0.73,
1.178,-2.01,-0.50,-1.05,1.52,0.46,0.75,
1.179,-2.01,-0.50,-1.05,1.49,0.44,0.77,
1.183,-2.01,-0.50,-1.05,1.45,0.41,0.82,
1.184,-2.01,-0.50,-1.05,1.44,0.40,0.83,
1.184,-2.01,-0.50,-1.05,1.42,0.37,0.86,
1.229,-1.45,-0.96,-0.58,1.42,0.37,0.86,
1.229,-1.45,-0.96,-0.58,1.40,0.34,0.89,
1.23,-1.45,-0.96,-0.58,1.38,0.32,0.91,
1.23,-1.45,-0.96,-0.58,1.35,0.28,0.95,
1.23,-1.45,-0.96,-0.58,1.34,0.26,0.96,
1.23,-1.45,-0.96,-0.58,1.32,0.24,0.99,
1.231,-0.84,-0.90,-0.32,1.32,0.24,0.99,
1.231,-0.84,-0.90,-0.32,1.30,0.21,1.01,
1.231,-0.84,-0.90,-0.32,1.28,0.19,1.04,
1.231,-0.84,-0.90,-0.32,1.26,0.16,1.08,
1.231,-0.84,-0.90,-0.32,1.26,0.15,1.09,
1.232,-0.84,-0.90,-0.32,1.25,0.13,1.12,
1.232,-0.42,-0.69,-0.30,1.25,0.13,1.12,
1.232,-0.42,-0.69,-0.30,1.25,0.12,1.15,
1.232,-0.42,-0.69,-0.30,1.26,0.10,1.18,
1.233,-0.42,-0.69,-0.30,1.28,0.06,1.24,
1.233,-0.42,-0.69,-0.30,1.29,0.04,1.26,
1.233,-0.42,-0.69,-0.30,1.31,0.01,1.30,
1.233,-0.48,-0.05,0.21,1.31,0.01,1.30,
1.234,-0.48,-0.05,0.21,1.34,-0.04,1.35,
1.234,-0.48,-0.05,0.21,1.37,-0.08,1.41,
1.234,-0.48,-0.05,0.21,1.42,-0.14,1.50,
1.234,-0.48,-0.05,0.21,1.43,-0.16,1.53,
1.235,-0.48,-0.05,0.21,1.47,-0.19,1.60,
1.235,-1.09,0.61,0.53,1.47,-0.19,1.60,
1.235,-1.09,0.61,0.53,1.50,-0.21,1.67,
1.235,-1.09,0.61,0.53,1.54,-0.25,1.75,
1.235,-1.09,0.61,0.53,1.60,-0.30,1.87,
1.236,-1.09,0.61,0.53,1.61,-0.32,1.90,
1.236,-1.09,0.61,0.53,1.65,-0.35,1.98,
1.239,-1.84,0.40,1.11,1.65,-0.35,1.98,
1.24,-1.84,0.40,1.11,1.70,-0.39,2.06,
1.241,-1.84,0.40,1.11,1.73,-0.43,2.12,
1.242,-1.84,0.40,1.11,1.78,-0.52,2.22,
1.243,-1.84,0.40,1.11,1.79,-0.56,2.24,
1.246,-1.84,0.40,1.11,1.81,-0.64,2.29,
1.25,-2.22,-0.73,1.67,1.81,-0.64,2.29,
1.251,-2.22,-0.73,1.67,1.82,-0.72,2.32,
1.252,-2.22,-0.73,1.67,1.83,-0.81,2.35,
1.255,-2.22,-0.73,1.67,1.84,-0.96,2.36,
1.255,-2.22,-0.73,1.67,1.83,-1.01,2.35,
1.256,-2.22,-0.73,1.67,1.81,-1.12,2.33,
1.264,-1.61,-2.62,1.47,1.81,-1.12,2.33,
1.265,-1.61,-2.62,1.47,1.77,-1.23,2.30,
1.266,-1.61,-2.62,1.47,1.73,-1.33,2.27,
1.267,-1.61,-2.62,1.47,1.65,-1.44,2.19,
1.267,-1.61,-2.62,1.47,1.61,-1.47,2.16,
1.267,-1.61,-2.62,1.47,1.53,-1.52,2.10,
1.284,-0.49,-4.18,-0.20,1.53,-1.52,2.10,
1.285,-0.49,-4.18,-0.20,1.45,-1.56,2.04,
1.285,-0.49,-4.18,-0.20,1.35,-1.57,1.97,
1.285,-0.49,-4.18,-0.20,1.21,-1.59,1.87,
1.285,-0.49,-4.18,-0.20,1.15,-1.59,1.83,
1.285,-0.49,-4.18,-0.20,1.05,-1.58,1.77,
1.286,0.12,-4.08,-1.69,1.05,-1.58,1.77,
1.286,0.12,-4.08,-1.69,0.96,-1.55,1.70,
1.286,0.12,-4.08,-1.69,0.86,-1.53,1.64,
1.286,0.12,-4.08,-1.69,0.73,-1.48,1.55,
1.287,0.12,-4.08,-1.69,0.70,-1.46,1.52,
1.287,0.12,-4.08,-1.69,0.62,-1.45,1.47,
1.287,-0.14,-2.89,-1.44,0.62,-1.45,1.47,
1.287,-0.14,-2.89,-1.44,0.55,-1.46,1.42,
1.292,-0.14,-2.89,-1.44,0.49,-1.48,1.39,
1.292,-0.14,-2.89,-1.44,0.41,-1.53,1.34,
1.293,-0.14,-2.89,-1.44,0.39,-1.54,1.33,
1.295,-0.14,-2.89,-1.44,0.34,-1.58,1.32,
1.296,-0.90,-1.31,-0.49,0.34,-1.58,1.32,
1.299,-0.90,-1.31,-0.49,0.31,-1.64,1.31,
1.299,-0.90,-1.31,-0.49,0.29,-1.71,1.32,
1.303,-0.90,-1.31,-0.49,0.29,-1.80,1.35,
1.304,-0.90,-1.31,-0.49,0.29,-1.84,1.36,
1.305,-0.90,-1.31,-0.49,0.30,-1.95,1.40,
1.309,-1.74,0.43,1.06,0.30,-1.95,1.40,
1.309,-1.74,0.43,1.06,0.31,-2.07,1.46,
1.309,-1.74,0.43,1.06,0.32,-2.20,1.52,
1.311,-1.74,0.43,1.06,0.36,-2.41,1.63,
1.314,-1.74,0.43,1.06,0.41,-2.64,1.77,
1.315,-1.74,0.43,1.06,0.43,-2.74,1.83,
1.316,-2.22,1.49,2.18,0.43,-2.74,1.83,
1.317,-2.22,1.49,2.18,0.45,-2.83,1.89,
1.323,-2.22,1.49,2.18,0.50,-3.02,2.04,
1.323,-2.22,1.49,2.18,0.58,-3.30,2.30,
1.326,-2.22,1.49,2.18,0.61,-3.40,2.39,
1.326,-2.22,1.49,2.18,0.65,-3.59,2.60,
1.331,-3.40,1.94,3.17,0.65,-3.59,2.60,
1.331,-3.40,1.94,3.17,0.69,-3.76,2.83,
1.332,-3.40,1.94,3.17,0.75,-3.90,3.07,
1.332,-3.40,1.94,3.17,0.82,-4.09,3.44,
1.332,-3.40,1.94,3.17,0.84,-4.16,3.57,
1.341,-3.40,1.94,3.17,0.87,-4.28,3.83,
1.342,-3.83,2.20,2.48,0.87,-4.28,3.83,
1.342,-3.83,2.20,2.48,0.91,-4.36,4.08,
1.342,-3.83,2.20,2.48,0.93,-4.45,4.32,
1.342,-3.83,2.20,2.48,0.96,-4.58,4.64,
1.343,-3.83,2.20,2.48,0.97,-4.62,4.74,
1.344,-3.83,2.20,2.48,0.97,-4.70,4.92,
1.347,-1.26,1.61,-0.49,0.97,-4.70,4.92,
1.347,-1.26,1.61,-0.49,0.98,-4.77,5.08,
1.348,-1.26,1.61,-0.49,1.00,-4.82,5.21,
1.351,-1.26,1.61,-0.49,1.02,-4.91,5.37,
1.355,-1.26,1.61,-0.49,1.03,-4.93,5.40,
1.355,-1.26,1.61,-0.49,1.06,-4.95,5.46,
1.357,1.74,-0.12,-1.96,1.06,-4.95,5.46,
1.357,1.74,-0.12,-1.96,1.08,-4.96,5.50,
1.358,1.74,-0.12,-1.96,1.10,-4.96,5.52,
1.361,1.74,-0.12,-1.96,1.12,-4.91,5.52,
1.362,1.74,-0.12,-1.96,1.13,-4.90,5.51,
1.364,1.74,-0.12,-1.96,1.15,-4.89,5.48,
1.369,2.49,-1.28,-2.74,1.15,-4.89,5.48,
1.369,2.49,-1.28,-2.74,1.17,-4.84,5.44,
1.37,2.49,-1.28,-2.74,1.20,-4.72,5.37,
1.371,2.49,-1.28,-2.74,1.27,-4.44,5.26,
1.372,2.49,-1.28,-2.74,1.29,-4.34,5.22,
1.374,2.49,-1.28,-2.74,1.32,-4.13,5.13,
1.376,2.74,-1.71,-2.34,1.32,-4.13,5.13,
1.376,2.74,-1.71,-2.34,1.33,-3.92,5.03,
1.378,2.74,-1.71,-2.34,1.33,-3.72,4.92,
1.381,2.74,-1.71,-2.34,1.33,-3.37,4.74,
1.382,2.74,-1.71,-2.34,1.32,-3.26,4.67,
1.384,2.74,-1.71,-2.34,1.29,-3.09,4.52,
1.386,1.82,-2.05,-3.96,1.29,-3.09,4.52,
1.386,1.82,-2.05,-3.96,1.25,-2.90,4.37,
1.388,1.82,-2.05,-3.96,1.22,-2.68,4.22,
1.391,1.82,-2.05,-3.96,1.17,-2.32,3.97,
1.392,1.82,-2.05,-3.96,1.15,-2.19,3.89,
1.394,1.82,-2.05,-3.96,1.12,-1.92,3.73,
1.396,0.53,-1.53,-4.27,1.12,-1.92,3.73,
1.396,0.53,-1.53,-4.27,1.08,-1.65,3.57,
1.398,0.53,-1.53,-4.27,1.05,-1.38,3.40,
1.401,0.53,-1.53,-4.27,0.99,-0.96,3.16,
1.402,0.53,-1.53,-4.27,0.98,-0.82,3.08,
1.404,0.53,-1.53,-4.27,0.94,-0.56,2.92,
1.406,-0.78,-0.26,-3.85,0.94,-0.56,2.92,
1.407,-0.78,-0.26,-3.85,0.90,-0.32,2.76,
1.408,-0.78,-0.26,-3.85,0.85,-0.10,2.60,
1.411,-0.78,-0.26,-3.85,0.76,0.19,2.36,
1.412,-0.78,-0.26,-3.85,0.73,0.28,2.28,
1.414,-0.78,-0.26,-3.85,0.67,0.46,2.13,
1.426,-1.22,1.25,-3.99,0.67,0.46,2.13,
1.427,-1.22,1.25,-3.99,0.60,0.63,1.98,
1.427,-1.22,1.25,-3.99,0.55,0.82,1.83,
1.428,-1.22,1.25,-3.99,0.46,1.11,1.64,
1.428,-1.22,1.25,-3.99,0.44,1.20,1.58,
1.43,-1.22,1.25,-3.99,0.32,1.81,1.24,
1.43,-1.22,1.25,-3.99,0.32,1.81,1.24,
1.43,-1.22,1.25,-3.99,0.32,1.81,1.24,
1.453,-1.50,3.85,-2.75,0.32,1.81,1.24,
1.455,-1.50,3.85,-2.75,0.26,2.21,1.06,
1.483,-1.50,3.85,-2.75,0.24,2.31,1.02,
1.483,-1.50,3.85,-2.75,0.23,2.41,0.98,
1.484,-1.63,4.82,-2.14,0.23,2.41,0.98,
1.484,-1.63,4.82,-2.14,0.19,2.57,0.90,
1.486,-1.63,4.82,-2.14,0.15,2.70,0.83,
1.488,-1.63,4.82,-2.14,0.08,2.88,0.75,
1.489,-1.63,4.82,-2.14,0.06,2.93,0.72,
1.489,-1.63,4.82,-2.14,0.03,3.04,0.68,
1.49,-2.17,5.70,-1.59,0.03,3.04,0.68,
1.491,-2.17,5.70,-1.59,-0.01,3.14,0.65,
1.492,-2.17,5.70,-1.59,-0.06,3.18,0.62,
1.492,-2.17,5.70,-1.59,-0.12,3.22,0.58,
1.493,-2.17,5.70,-1.59,-0.14,3.22,0.57,
1.494,-2.17,5.70,-1.59,-0.16,3.21,0.55,
1.497,-2.18,5.86,-0.34,-0.16,3.21,0.55,
1.497,-2.18,5.86,-0.34,-0.15,3.19,0.53,
1.498,-2.18,5.86,-0.34,-0.09,3.13,0.51,
1.498,-2.18,5.86,-0.34,0.07,2.97,0.47,
1.498,-2.18,5.86,-0.34,0.14,2.88,0.46,
1.499,-2.18,5.86,-0.34,0.29,2.63,0.42,
1.499,-1.05,4.20,6.75,0.29,2.63,0.42,
1.5,-1.05,4.20,6.75,0.45,2.27,0.38,
1.5,-1.05,4.20,6.75,0.57,1.83,0.33,
1.501,-1.05,4.20,6.75,0.70,1.04,0.26,
1.501,-1.05,4.20,6.75,0.72,0.77,0.24,
1.501,-1.05,4.20,6.75,0.72,0.24,0.19,
1.502,0.27,2.34,8.72,0.72,0.24,0.19,
1.502,0.27,2.34,8.72,0.70,-0.25,0.15,
1.503,0.27,2.34,8.72,0.64,-0.69,0.12,
1.503,0.27,2.34,8.72,0.53,-1.24,0.09,
1.503,0.27,2.34,8.72,0.50,-1.39,0.08,
1.504,0.27,2.34,8.72,0.43,-1.64,0.09,
1.504,-0.32,2.32,4.44,0.43,-1.64,0.09,
1.505,-0.32,2.32,4.44,0.36,-1.84,0.11,
1.505,-0.32,2.32,4.44,0.31,-1.98,0.14,
1.506,-0.32,2.32,4.44,0.25,-2.12,0.20,
1.506,-0.32,2.32,4.44,0.24,-2.14,0.22,
1.506,-0.32,2.32,4.44,0.21,-2.18,0.28,
1.507,-1.71,3.25,2.00,0.21,-2.18,0.28,
1.507,-1.71,3.25,2.00,0.20,-2.20,0.35,
1.507,-1.71,3.25,2.00,0.20,-2.20,0.42,
1.508,-1.71,3.25,2.00,0.20,-2.19,0.53,
1.508,-1.71,3.25,2.00,0.20,-2.19,0.56,
1.508,-1.71,3.25,2.00,0.21,-2.19,0.65,
1.509,-2.73,3.99,0.63,0.21,-2.19,0.65,
1.509,-2.73,3.99,0.63,0.21,-2.18,0.72,
1.51,-2.73,3.99,0.63,0.22,-2.18,0.80,
1.522,-2.73,3.99,0.63,0.23,-2.16,0.92,
1.522,-2.73,3.99,0.63,0.23,-2.16,0.96,
1.523,-2.73,3.99,0.63,0.24,-2.14,1.03,
1.523,-3.43,4.52,-0.24,0.24,-2.14,1.03,
1.523,-3.43,4.52,-0.24,0.25,-2.12,1.11,
1.523,-3.43,4.52,-0.24,0.26,-2.09,1.18,
1.523,-3.43,4.52,-0.24,0.28,-2.04,1.27,
1.524,-3.43,4.52,-0.24,0.29,-2.01,1.29,
1.524,-3.43,4.52,-0.24,0.31,-1.95,1.34,
1.527,-3.70,4.78,-0.84,0.31,-1.95,1.34,
1.527,-3.70,4.78,-0.84,0.34,-1.87,1.37,
1.528,-3.70,4.78,-0.84,0.39,-1.78,1.40,
1.531,-3.70,4.78,-0.84,0.46,-1.61,1.43,
1.532,-3.70,4.78,-0.84,0.49,-1.55,1.43,
1.534,-3.70,4.78,-0.84,0.56,-1.43,1.44,
1.537,-3.62,4.62,-0.51,0.56,-1.43,1.44,
1.538,-3.62,4.62,-0.51,0.62,-1.31,1.46,
1.538,-3.62,4.62,-0.51,0.69,-1.19,1.48,
1.541,-3.62,4.62,-0.51,0.77,-1.02,1.51,
1.542,-3.62,4.62,-0.51,0.79,-0.97,1.53,
1.544,-3.62,4.62,-0.51,0.84,-0.87,1.56,
1.546,-3.67,4.28,-0.48,0.84,-0.87,1.56,
1.547,-3.67,4.28,-0.48,0.87,-0.77,1.60,
1.548,-3.67,4.28,-0.48,0.90,-0.68,1.64,
1.551,-3.67,4.28,-0.48,0.93,-0.57,1.72,
1.552,-3.67,4.28,-0.48,0.93,-0.54,1.75,
1.554,-3.67,4.28,-0.48,0.93,-0.49,1.81,
1.557,-4.11,3.99,-0.32,0.93,-0.49,1.81,
1.557,-4.11,3.99,-0.32,0.92,-0.45,1.88,
1.558,-4.11,3.99,-0.32,0.89,-0.42,1.95,
1.561,-4.11,3.99,-0.32,0.81,-0.41,2.07,
1.562,-4.11,3.99,-0.32,0.79,-0.42,2.10,
1.564,-4.11,3.99,-0.32,0.74,-0.44,2.18,
1.579,-4.26,3.70,-0.80,0.74,-0.44,2.18,
1.579,-4.26,3.70,-0.80,0.67,-0.48,2.25,
1.58,-4.26,3.70,-0.80,0.58,-0.53,2.31,
1.58,-4.26,3.70,-0.80,0.46,-0.63,2.38,
1.58,-4.26,3.70,-0.80,0.41,-0.66,2.40,
1.581,-4.26,3.70,-0.80,0.32,-0.72,2.43,
1.581,-4.10,3.61,-1.41,0.32,-0.72,2.43,
1.581,-4.10,3.61,-1.41,0.21,-0.77,2.46,
1.581,-4.10,3.61,-1.41,0.11,-0.81,2.48,
1.582,-4.10,3.61,-1.41,-0.06,-0.85,2.51,
1.584,-4.10,3.61,-1.41,-0.12,-0.86,2.51,
1.621,-4.10,3.61,-1.41,-0.22,-0.85,2.52,
1.622,-3.79,3.77,-2.52,-0.22,-0.85,2.52,
1.622,-3.79,3.77,-2.52,-0.34,-0.82,2.52,
1.622,-3.79,3.77,-2.52,-0.45,-0.78,2.51,
1.623,-3.79,3.77,-2.52,-0.64,-0.68,2.51,
1.623,-3.79,3.77,-2.52,-0.70,-0.64,2.52,
1.623,-3.79,3.77,-2.52,-0.83,-0.55,2.52,
1.623,-3.89,3.87,-3.86,-0.83,-0.55,2.52,
1.623,-3.89,3.87,-3.86,-0.96,-0.45,2.53,
1.643,-3.89,3.87,-3.86,-1.09,-0.33,2.55,
1.643,-3.89,3.87,-3.86,-1.29,-0.15,2.57,
1.643,-3.89,3.87,-3.86,-1.35,-0.09,2.59,
1.643,-3.89,3.87,-3.86,-1.46,0.03,2.62,
1.643,-4.27,3.93,-4.73,-1.46,0.03,2.62,
1.644,-4.27,3.93,-4.73,-1.57,0.14,2.66,
1.644,-4.27,3.93,-4.73,-1.66,0.22,2.72,
1.644,-4.27,3.93,-4.73,-1.75,0.31,2.82,
1.644,-4.27,3.93,-4.73,-1.77,0.33,2.86,
1.645,-4.27,3.93,-4.73,-1.81,0.39,2.94,
1.645,-5.05,3.67,-3.96,-1.81,0.39,2.94,
1.645,-5.05,3.67,-3.96,-1.85,0.48,3.02,
1.645,-5.05,3.67,-3.96,-1.91,0.64,3.09,
1.645,-5.05,3.67,-3.96,-2.06,1.01,3.17,
1.646,-5.05,3.67,-3.96,-2.11,1.16,3.18,
1.646,-5.05,3.67,-3.96,-2.22,1.44,3.22,
1.646,-4.72,4.01,-4.58,-2.22,1.44,3.22,
1.646,-4.72,4.01,-4.58,-2.31,1.72,3.25,
1.646,-4.72,4.01,-4.58,-2.38,2.00,3.29,
1.647,-4.72,4.01,-4.58,-2.46,2.44,3.35,
1.647,-4.72,4.01,-4.58,-2.48,2.60,3.38,
1.647,-4.72,4.01,-4.58,-2.53,2.94,3.44,
1.647,-4.72,4.01,-4.58,-2.60,3.53,3.55,
1.647,-3.51,-2.27,-3.79,-2.60,3.53,3.55,
1.647,-3.51,-2.27,-3.79,-2.61,3.71,3.57,
1.648,-3.51,-2.27,-3.79,-2.59,4.21,3.59,
1.648,-3.51,-2.27,-3.79,-2.58,4.36,3.58,
1.648,-3.51,-2.27,-3.79,-2.55,4.60,3.59,
1.648,-0.82,-12.71,-1.45,-2.55,4.60,3.59,
1.649,-0.82,-12.71,-1.45,-2.51,4.79,3.62,
1.649,-0.82,-12.71,-1.45,-2.47,4.96,3.68,
1.654,-0.82,-12.71,-1.45,-2.43,5.10,3.73,
1.654,-0.82,-12.71,-1.45,-2.42,5.12,3.73,
1.656,-0.82,-12.71,-1.45,-2.39,5.17,3.71,
1.657,0.54,-25.73,-0.31,-2.39,5.17,3.71,
1.657,0.54,-25.73,-0.31,-2.36,5.18,3.66,
1.658,0.54,-25.73,-0.31,-2.30,5.13,3.59,
1.661,0.54,-25.73,-0.31,-2.16,4.94,3.50,
1.664,0.54,-25.73,-0.31,-1.99,4.68,3.42,
1.664,0.54,-25.73,-0.31,-1.92,4.59,3.39,
1.675,2.51,-42.14,1.88,-1.92,4.59,3.39,
1.675,2.51,-42.14,1.88,-1.85,4.49,3.36,
1.675,2.51,-42.14,1.88,-1.69,4.28,3.29,
1.675,2.51,-42.14,1.88,-1.42,3.96,3.15,
1.676,2.51,-42.14,1.88,-1.33,3.85,3.09,
1.676,2.51,-42.14,1.88,-1.14,3.63,2.95,
1.677,3.29,-43.66,3.43,-1.14,3.63,2.95,
1.677,3.29,-43.66,3.43,-0.94,3.44,2.79,
1.678,3.29,-43.66,3.43,-0.74,3.25,2.62,
1.682,3.29,-43.66,3.43,-0.43,2.99,2.36,
1.683,3.29,-43.66,3.43,-0.33,2.90,2.27,
1.684,3.29,-43.66,3.43,-0.13,2.73,2.10,
1.687,3.81,-29.59,4.30,-0.13,2.73,2.10,
1.687,3.81,-29.59,4.30,0.07,2.57,1.93,
1.688,3.81,-29.59,4.30,0.25,2.40,1.79,
1.691,3.81,-29.59,4.30,0.50,2.17,1.59,
1.692,3.81,-29.59,4.30,0.57,2.09,1.53,
1.694,3.81,-29.59,4.30,0.72,1.94,1.41,
1.696,2.47,-15.40,3.73,0.72,1.94,1.41,
1.697,2.47,-15.40,3.73,0.84,1.80,1.31,
1.698,2.47,-15.40,3.73,0.95,1.65,1.21,
1.707,2.47,-15.40,3.73,1.07,1.44,1.07,
1.707,2.47,-15.40,3.73,1.11,1.36,1.03,
1.708,2.47,-15.40,3.73,1.16,1.21,0.95,
1.708,1.31,-4.80,2.16,1.16,1.21,0.95,
1.708,1.31,-4.80,2.16,1.20,1.07,0.88,
1.708,1.31,-4.80,2.16,1.22,0.93,0.80,
1.711,1.31,-4.80,2.16,1.22,0.71,0.70,
1.712,1.31,-4.80,2.16,1.21,0.64,0.67,
1.715,1.31,-4.80,2.16,1.19,0.49,0.61,
1.763,0.85,1.50,0.65,1.19,0.49,0.61,
1.764,0.85,1.50,0.65,1.16,0.34,0.55,
1.764,0.85,1.50,0.65,1.11,0.19,0.50,
1.765,0.85,1.50,0.65,1.04,-0.02,0.44,
1.765,0.85,1.50,0.65,1.02,-0.09,0.42,
1.766,0.85,1.50,0.65,0.97,-0.21,0.38,
1.766,0.24,5.62,-0.41,0.97,-0.21,0.38,
1.766,0.24,5.62,-0.41,0.91,-0.33,0.36,
1.767,0.24,5.62,-0.41,0.85,-0.44,0.33,
1.767,0.24,5.62,-0.41,0.77,-0.59,0.31,
1.767,0.24,5.62,-0.41,0.74,-0.64,0.30,
1.768,0.24,5.62,-0.41,0.68,-0.72,0.29,
1.768,-0.44,8.22,-0.61,0.68,-0.72,0.29,
1.769,-0.44,8.22,-0.61,0.62,-0.80,0.28,
1.769,-0.44,8.22,-0.61,0.57,-0.87,0.28,
1.769,-0.44,8.22,-0.61,0.49,-0.95,0.28,
1.77,-0.44,8.22,-0.61,0.46,-0.98,0.28,
1.77,-0.44,8.22,-0.61,0.41,-1.01,0.28,
1.77,-0.91,9.40,-0.59,0.41,-1.01,0.28,
1.771,-0.91,9.40,-0.59,0.37,-1.05,0.30,
1.771,-0.91,9.40,-0.59,0.32,-1.07,0.31,
1.772,-0.91,9.40,-0.59,0.26,-1.10,0.34,
1.772,-0.91,9.40,-0.59,0.24,-1.10,0.35,
1.772,-0.91,9.40,-0.59,0.20,-1.10,0.37,
1.773,-1.65,9.87,-0.15,0.20,-1.10,0.37,
1.773,-1.65,9.87,-0.15,0.16,-1.10,0.39,
1.773,-1.65,9.87,-0.15,0.13,-1.08,0.42,
1.774,-1.65,9.87,-0.15,0.08,-1.05,0.46,
1.774,-1.65,9.87,-0.15,0.06,-1.04,0.48,
1.774,-1.65,9.87,-0.15,0.03,-1.00,0.50,
1.792,-2.08,9.47,-0.37,0.03,-1.00,0.50,
1.793,-2.08,9.47,-0.37,-0.00,-0.97,0.54,
1.793,-2.08,9.47,-0.37,-0.03,-0.93,0.57,
1.793,-2.08,9.47,-0.37,-0.08,-0.86,0.62,
1.793,-2.08,9.47,-0.37,-0.09,-0.84,0.63,
1.793,-2.08,9.47,-0.37,-0.13,-0.80,0.66,
1.794,-2.58,7.89,-0.65,-0.13,-0.80,0.66,
1.794,-2.58,7.89,-0.65,-0.16,-0.75,0.69,
1.794,-2.58,7.89,-0.65,-0.19,-0.71,0.71,
1.795,-2.58,7.89,-0.65,-0.23,-0.65,0.73,
1.795,-2.58,7.89,-0.65,-0.25,-0.64,0.74,
1.795,-2.58,7.89,-0.65,-0.27,-0.60,0.75,
1.795,-1.73,5.32,-0.92,-0.27,-0.60,0.75,
1.796,-1.73,5.32,-0.92,-0.29,-0.57,0.75,
1.796,-1.73,5.32,-0.92,-0.32,-0.54,0.76,
1.796,-1.73,5.32,-0.92,-0.34,-0.50,0.76,
1.796,-1.73,5.32,-0.92,-0.35,-0.49,0.76,
1.796,-1.73,5.32,-0.92,-0.36,-0.46,0.75,
1.797,-1.02,3.35,-0.99,-0.36,-0.46,0.75,
1.797,-1.02,3.35,-0.99,-0.36,-0.44,0.75,
1.802,-1.02,3.35,-0.99,-0.37,-0.42,0.74,
1.803,-1.02,3.35,-0.99,-0.37,-0.38,0.72,
1.803,-1.02,3.35,-0.99,-0.37,-0.37,0.72,
1.805,-1.02,3.35,-0.99,-0.37,-0.36,0.70,
1.807,-0.60,1.58,-1.08,-0.37,-0.36,0.70,
1.807,-0.60,1.58,-1.08,-0.37,-0.35,0.68,
1.808,-0.60,1.58,-1.08,-0.36,-0.34,0.67,
1.811,-0.60,1.58,-1.08,-0.36,-0.34,0.63,
1.812,-0.60,1.58,-1.08,-0.35,-0.34,0.62,
1.814,-0.60,1.58,-1.08,-0.35,-0.34,0.60,
1.818,-0.35,-0.61,-1.23,-0.35,-0.34,0.60,
1.819,-0.35,-0.61,-1.23,-0.34,-0.34,0.57,
1.82,-0.35,-0.61,-1.23,-0.33,-0.33,0.55,
1.821,-0.35,-0.61,-1.23,-0.31,-0.34,0.50,
1.822,-0.35,-0.61,-1.23,-0.30,-0.34,0.48,
1.824,-0.35,-0.61,-1.23,-0.29,-0.34,0.45,
1.826,-0.15,-2.81,-1.19,-0.29,-0.34,0.45,
1.827,-0.15,-2.81,-1.19,-0.27,-0.35,0.41,
1.828,-0.15,-2.81,-1.19,-0.26,-0.35,0.38,
1.831,-0.15,-2.81,-1.19,-0.23,-0.37,0.32,
1.832,-0.15,-2.81,-1.19,-0.23,-0.37,0.30,
1.839,-0.15,-2.81,-1.19,-0.21,-0.39,0.26,
1.84,0.19,-4.40,-1.38,-0.21,-0.39,0.26,
1.84,0.19,-4.40,-1.38,-0.20,-0.40,0.21,
1.84,0.19,-4.40,-1.38,-0.19,-0.41,0.17,
1.841,0.19,-4.40,-1.38,-0.17,-0.43,0.10,
1.842,0.19,-4.40,-1.38,-0.16,-0.43,0.08,
1.845,0.19,-4.40,-1.38,-0.15,-0.44,0.03,
1.847,0.72,-4.62,-1.48,-0.15,-0.44,0.03,
1.847,0.72,-4.62,-1.48,-0.13,-0.45,-0.01,
1.848,0.72,-4.62,-1.48,-0.12,-0.45,-0.05,
1.873,0.72,-4.62,-1.48,-0.10,-0.45,-0.10,
1.873,0.72,-4.62,-1.48,-0.10,-0.45,-0.12,
1.873,0.72,-4.62,-1.48,-0.08,-0.44,-0.14,
1.874,1.05,-3.36,-1.62,-0.08,-0.44,-0.14,
1.874,1.05,-3.36,-1.62,-0.08,-0.43,-0.17,
1.874,1.05,-3.36,-1.62,-0.06,-0.41,-0.19,
1.874,1.05,-3.36,-1.62,-0.04,-0.38,-0.22,
1.874,1.05,-3.36,-1.62,-0.03,-0.37,-0.23,
1.875,1.05,-3.36,-1.62,-0.01,-0.34,-0.24,
1.875,0.97,-1.96,-1.35,-0.01,-0.34,-0.24,
1.875,0.97,-1.96,-1.35,0.01,-0.31,-0.25,
1.875,0.97,-1.96,-1.35,0.03,-0.27,-0.26,
1.875,0.97,-1.96,-1.35,0.05,-0.21,-0.26,
1.875,0.97,-1.96,-1.35,0.06,-0.19,-0.26,
1.876,0.97,-1.96,-1.35,0.08,-0.15,-0.26,
1.877,0.72,-1.02,-1.13,0.08,-0.15,-0.26,
1.877,0.72,-1.02,-1.13,0.09,-0.11,-0.26,
1.878,0.72,-1.02,-1.13,0.10,-0.07,-0.25,
1.881,0.72,-1.02,-1.13,0.11,-0.02,-0.24,
1.882,0.72,-1.02,-1.13,0.11,-0.00,-0.23,
1.885,0.72,-1.02,-1.13,0.11,0.03,-0.22,
1.887,0.40,-0.51,-1.17,0.11,0.03,-0.22,
1.887,0.40,-0.51,-1.17,0.11,0.05,-0.22,
1.89,0.40,-0.51,-1.17,0.11,0.07,-0.21,
1.891,0.40,-0.51,-1.17,0.09,0.10,-0.19,
1.892,0.40,-0.51,-1.17,0.09,0.11,-0.19,
1.896,0.40,-0.51,-1.17,0.07,0.12,-0.18,
1.897,-0.00,-0.31,-1.50,0.07,0.12,-0.18,
1.897,-0.00,-0.31,-1.50,0.06,0.13,-0.17,
1.898,-0.00,-0.31,-1.50,0.04,0.13,-0.17,
1.904,-0.00,-0.31,-1.50,0.01,0.14,-0.16,
1.904,-0.00,-0.31,-1.50,-0.00,0.14,-0.16,
1.906,-0.00,-0.31,-1.50,-0.02,0.15,-0.15,
1.907,-0.32,-0.35,-1.90,-0.02,0.15,-0.15,
1.907,-0.32,-0.35,-1.90,-0.05,0.15,-0.15,
1.908,-0.32,-0.35,-1.90,-0.07,0.14,-0.15,
1.911,-0.32,-0.35,-1.90,-0.10,0.14,-0.16,
1.912,-0.32,-0.35,-1.90,-0.12,0.14,-0.16,
1.914,-0.32,-0.35,-1.90,-0.13,0.13,-0.17,
1.917,-0.14,-0.52,-1.95,-0.13,0.13,-0.17,
1.917,-0.14,-0.52,-1.95,-0.15,0.12,-0.18,
1.919,-0.14,-0.52,-1.95,-0.16,0.11,-0.19,
1.921,-0.14,-0.52,-1.95,-0.17,0.08,-0.22,
1.922,-0.14,-0.52,-1.95,-0.17,0.07,-0.23,
1.924,-0.14,-0.52,-1.95,-0.17,0.04,-0.25,
1.927,0.21,-0.78,-1.33,-0.17,0.04,-0.25,
1.928,0.21,-0.78,-1.33,-0.17,0.01,-0.27,
1.928,0.21,-0.78,-1.33,-0.16,-0.02,-0.29,
1.932,0.21,-0.78,-1.33,-0.15,-0.09,-0.32,
1.969,0.21,-0.78,-1.33,-0.14,-0.11,-0.33,
1.97,0.21,-0.78,-1.33,-0.13,-0.16,-0.34,
1.971,0.25,-1.13,-0.96,-0.13,-0.16,-0.34,
1.971,0.25,-1.13,-0.96,-0.13,-0.22,-0.36,
1.971,0.25,-1.13,-0.96,-0.12,-0.29,-0.37,
1.971,0.25,-1.13,-0.96,-0.11,-0.40,-0.39,
1.971,0.25,-1.13,-0.96,-0.11,-0.44,-0.39,
1.972,0.25,-1.13,-0.96,-0.10,-0.52,-0.40,
1.972,0.20,-1.43,-1.26,-0.10,-0.52,-0.40,
1.972,0.20,-1.43,-1.26,-0.10,-0.61,-0.41,
1.972,0.20,-1.43,-1.26,-0.11,-0.70,-0.42,
1.972,0.20,-1.43,-1.26,-0.11,-0.86,-0.43,
1.973,0.20,-1.43,-1.26,-0.11,-0.91,-0.44,
1.973,0.20,-1.43,-1.26,-0.12,-1.02,-0.44,
1.973,0.12,-1.57,-1.96,-0.12,-1.02,-0.44,
1.973,0.12,-1.57,-1.96,-0.13,-1.14,-0.45,
1.973,0.12,-1.57,-1.96,-0.14,-1.26,-0.45,
1.974,0.12,-1.57,-1.96,-0.15,-1.44,-0.46,
1.974,0.12,-1.57,-1.96,-0.16,-1.50,-0.46,
1.974,0.12,-1.57,-1.96,-0.17,-1.62,-0.46,
1.974,-0.01,-1.36,-2.54,-0.17,-1.62,-0.46,
1.974,-0.01,-1.36,-2.54,-0.19,-1.73,-0.47,
1.975,-0.01,-1.36,-2.54,-0.20,-1.83,-0.47,
1.975,-0.01,-1.36,-2.54,-0.24,-1.98,-0.47,
1.975,-0.01,-1.36,-2.54,-0.25,-2.03,-0.47,
1.975,-0.01,-1.36,-2.54,-0.28,-2.12,-0.46,
1.983,-0.27,-0.74,-3.17,-0.28,-2.12,-0.46,
1.984,-0.27,-0.74,-3.17,-0.30,-2.20,-0.45,
1.984,-0.27,-0.74,-3.17,-0.33,-2.27,-0.44,
1.984,-0.27,-0.74,-3.17,-0.38,-2.38,-0.42,
1.986,-0.27,-0.74,-3.17,-0.40,-2.41,-0.41,
1.986,-0.27,-0.74,-3.17,-0.43,-2.48,-0.40,
1.987,-0.36,-0.10,-3.47,-0.43,-2.48,-0.40,
1.987,-0.36,-0.10,-3.47,-0.46,-2.54,-0.38,
1.989,-0.36,-0.10,-3.47,-0.49,-2.61,-0.37,
1.992,-0.36,-0.10,-3.47,-0.54,-2.71,-0.36,
1.993,-0.36,-0.10,-3.47,-0.55,-2.74,-0.36,
1.994,-0.36,-0.10,-3.47,-0.58,-2.81,-0.36,
1.997,-0.09,0.30,-3.48,-0.58,-2.81,-0.36,
1.997,-0.09,0.30,-3.48,-0.60,-2.88,-0.36,
2.007,-0.09,0.30,-3.48,-0.63,-2.95,-0.36,
2.01,-0.09,0.30,-3.48,-0.66,-3.05,-0.37,
2.011,-0.09,0.30,-3.48,-0.67,-3.08,-0.37,
2.012,-0.09,0.30,-3.48,-0.69,-3.15,-0.37,
2.013,0.30,0.68,-3.15,-0.69,-3.15,-0.37,
2.013,0.30,0.68,-3.15,-0.71,-3.22,-0.38,
2.013,0.30,0.68,-3.15,-0.73,-3.30,-0.38,
2.025,0.30,0.68,-3.15,-0.75,-3.41,-0.39,
2.026,0.30,0.68,-3.15,-0.78,-3.52,-0.40,
2.026,0.30,0.68,-3.15,-0.79,-3.55,-0.40,
2.028,0.39,0.54,-3.41,-0.79,-3.55,-0.40,
2.029,0.39,0.54,-3.41,-0.80,-3.59,-0.40,
2.029,0.39,0.54,-3.41,-0.82,-3.66,-0.41,
2.029,0.39,0.54,-3.41,-0.85,-3.77,-0.42,
2.03,0.39,0.54,-3.41,-0.86,-3.81,-0.43,
2.03,0.39,0.54,-3.41,-0.88,-3.88,-0.44,
2.03,0.58,0.19,-3.58,-0.88,-3.88,-0.44,
2.03,0.58,0.19,-3.58,-0.89,-3.95,-0.45,
2.031,0.58,0.19,-3.58,-0.90,-4.01,-0.47,
2.033,0.58,0.19,-3.58,-0.91,-4.10,-0.51,
2.055,0.58,0.19,-3.58,-0.91,-4.12,-0.52,
2.056,0.58,0.19,-3.58,-0.91,-4.17,-0.55,
2.056,1.07,-0.51,-3.40,-0.91,-4.17,-0.55,
2.057,1.07,-0.51,-3.40,-0.91,-4.22,-0.59,
2.057,1.07,-0.51,-3.40,-0.90,-4.26,-0.63,
2.057,1.07,-0.51,-3.40,-0.87,-4.31,-0.69,
2.057,1.07,-0.51,-3.40,-0.86,-4.33,-0.72,
2.057,1.07,-0.51,-3.40,-0.83,-4.36,-0.77,
2.06,1.70,-1.36,-2.60,-0.83,-4.36,-0.77,
2.06,1.70,-1.36,-2.60,-0.80,-4.38,-0.83,
2.06,1.70,-1.36,-2.60,-0.77,-4.39,-0.88,
2.06,1.70,-1.36,-2.60,-0.72,-4.41,-0.97,
2.061,1.70,-1.36,-2.60,-0.70,-4.41,-1.00,
2.061,1.70,-1.36,-2.60,-0.66,-4.41,-1.06,
2.061,2.12,-1.94,-2.14,-0.66,-4.41,-1.06,
2.061,2.12,-1.94,-2.14,-0.63,-4.41,-1.12,
2.064,2.12,-1.94,-2.14,-0.59,-4.41,-1.18,
2.069,2.12,-1.94,-2.14,-0.54,-4.39,-1.26,
2.069,2.12,-1.94,-2.14,-0.53,-4.38,-1.29,
2.07,2.12,-1.94,-2.14,-0.49,-4.36,-1.34,
2.07,1.88,-2.17,-2.00,-0.49,-4.36,-1.34,
2.07,1.88,-2.17,-2.00,-0.46,-4.34,-1.38,
2.072,1.88,-2.17,-2.00,-0.44,-4.31,-1.43,
2.073,1.88,-2.17,-2.00,-0.40,-4.27,-1.48,
2.073,1.88,-2.17,-2.00,-0.38,-4.26,-1.49,
2.075,1.88,-2.17,-2.00,-0.35,-4.22,-1.51,
2.078,1.27,-2.17,-1.94,-0.35,-4.22,-1.51,
2.079,1.27,-2.17,-1.94,-0.33,-4.19,-1.53,
2.08,1.27,-2.17,-1.94,-0.29,-4.16,-1.55,
2.088,1.27,-2.17,-1.94,-0.25,-4.11,-1.55,
2.089,1.27,-2.17,-1.94,-0.23,-4.10,-1.55,
2.089,1.27,-2.17,-1.94,-0.20,-4.06,-1.55,
2.09,0.67,-1.95,-1.56,-0.20,-4.06,-1.55,
2.09,0.67,-1.95,-1.56,-0.16,-4.03,-1.54,
2.09,0.67,-1.95,-1.56,-0.13,-4.00,-1.53,
2.093,0.67,-1.95,-1.56,-0.08,-3.94,-1.51,
2.093,0.67,-1.95,-1.56,-0.07,-3.92,-1.49,
2.096,0.67,-1.95,-1.56,-0.05,-3.88,-1.47,
2.097,0.31,-1.46,-1.44,-0.05,-3.88,-1.47,
2.097,0.31,-1.46,-1.44,-0.03,-3.84,-1.44,
2.117,0.31,-1.46,-1.44,-0.02,-3.80,-1.40,
2.118,0.31,-1.46,-1.44,-0.01,-3.73,-1.34,
2.118,0.31,-1.46,-1.44,-0.01,-3.71,-1.32,
2.118,0.31,-1.46,-1.44,-0.02,-3.66,-1.28,
2.119,0.16,-0.78,-1.76,-0.02,-3.66,-1.28,
2.119,0.16,-0.78,-1.76,-0.03,-3.62,-1.24,
2.119,0.16,-0.78,-1.76,-0.05,-3.58,-1.19,
2.12,0.16,-0.78,-1.76,-0.08,-3.52,-1.11,
2.12,0.16,-0.78,-1.76,-0.10,-3.50,-1.09,
2.12,0.16,-0.78,-1.76,-0.12,-3.47,-1.03,
2.12,0.10,-0.12,-2.21,-0.12,-3.47,-1.03,
2.121,0.10,-0.12,-2.21,-0.16,-3.44,-0.97,
2.126,0.10,-0.12,-2.21,-0.20,-3.41,-0.91,
2.126,0.10,-0.12,-2.21,-0.25,-3.38,-0.81,
2.127,0.10,-0.12,-2.21,-0.28,-3.37,-0.78,
2.127,0.10,-0.12,-2.21,-0.32,-3.36,-0.72,
2.127,0.10,0.48,-2.35,-0.32,-3.36,-0.72,
2.128,0.10,0.48,-2.35,-0.36,-3.35,-0.65,
2.128,0.10,0.48,-2.35,-0.41,-3.35,-0.59,
2.131,0.10,0.48,-2.35,-0.47,-3.35,-0.50,
2.141,0.10,0.48,-2.35,-0.50,-3.35,-0.47,
2.142,0.10,0.48,-2.35,-0.54,-3.37,-0.41,
2.143,0.34,0.92,-2.44,-0.54,-3.37,-0.41,
2.143,0.34,0.92,-2.44,-0.58,-3.38,-0.35,
2.143,0.34,0.92,-2.44,-0.62,-3.40,-0.29,
2.143,0.34,0.92,-2.44,-0.68,-3.44,-0.21,
2.144,0.34,0.92,-2.44,-0.70,-3.46,-0.18,
2.148,0.34,0.92,-2.44,-0.73,-3.49,-0.13,
2.149,0.49,1.27,-2.35,-0.73,-3.49,-0.13,
2.149,0.49,1.27,-2.35,-0.77,-3.53,-0.08,
2.149,0.49,1.27,-2.35,-0.80,-3.56,-0.03,
2.167,0.49,1.27,-2.35,-0.84,-3.62,0.03,
2.168,0.49,1.27,-2.35,-0.85,-3.63,0.05,
2.168,0.49,1.27,-2.35,-0.87,-3.67,0.08,
2.169,0.97,1.53,-2.16,-0.87,-3.67,0.08,
2.169,0.97,1.53,-2.16,-0.89,-3.71,0.11,
2.169,0.97,1.53,-2.16,-0.91,-3.74,0.13,
2.169,0.97,1.53,-2.16,-0.93,-3.79,0.16,
2.169,0.97,1.53,-2.16,-0.93,-3.80,0.16,
2.17,0.97,1.53,-2.16,-0.94,-3.83,0.17,
2.17,1.46,1.64,-1.72,-0.94,-3.83,0.17,
2.17,1.46,1.64,-1.72,-0.95,-3.86,0.17,
2.17,1.46,1.64,-1.72,-0.95,-3.88,0.17,
2.174,1.46,1.64,-1.72,-0.95,-3.90,0.17,
2.174,1.46,1.64,-1.72,-0.95,-3.90,0.16,
2.174,1.46,1.64,-1.72,-0.94,-3.91,0.15,
2.178,2.03,1.61,-1.33,-0.94,-3.91,0.15,
2.178,2.03,1.61,-1.33,-0.94,-3.91,0.14,
2.194,2.03,1.61,-1.33,-0.93,-3.91,0.13,
2.194,2.03,1.61,-1.33,-0.91,-3.88,0.10,
2.194,2.03,1.61,-1.33,-0.90,-3.88,0.10,
2.194,2.03,1.61,-1.33,-0.89,-3.85,0.08,
2.195,2.32,1.40,-0.82,-0.89,-3.85,0.08,
2.195,2.32,1.40,-0.82,-0.87,-3.82,0.06,
2.195,2.32,1.40,-0.82,-0.85,-3.79,0.04,
2.195,2.32,1.40,-0.82,-0.82,-3.73,0.00,
2.195,2.32,1.40,-0.82,-0.80,-3.71,-0.01,
2.195,2.32,1.40,-0.82,-0.78,-3.66,-0.03,
2.199,2.61,1.21,-0.22,-0.78,-3.66,-0.03,
2.199,2.61,1.21,-0.22,-0.75,-3.61,-0.05,
2.199,2.61,1.21,-0.22,-0.72,-3.56,-0.07,
2.201,2.61,1.21,-0.22,-0.68,-3.47,-0.11,
2.203,2.61,1.21,-0.22,-0.67,-3.44,-0.12,
2.204,2.61,1.21,-0.22,-0.64,-3.37,-0.14,
2.207,2.60,0.95,0.28,-0.64,-3.37,-0.14,
2.207,2.60,0.95,0.28,-0.61,-3.30,-0.16,
2.209,2.60,0.95,0.28,-0.58,-3.23,-0.18,
2.211,2.60,0.95,0.28,-0.54,-3.12,-0.21,
2.212,2.60,0.95,0.28,-0.53,-3.08,-0.22,
2.216,2.60,0.95,0.28,-0.51,-3.01,-0.23,
2.221,2.54,0.65,0.65,-0.51,-3.01,-0.23,
2.221,2.54,0.65,0.65,-0.48,-2.93,-0.25,
2.221,2.54,0.65,0.65,-0.46,-2.86,-0.26,
2.222,2.54,0.65,0.65,-0.44,-2.74,-0.27,
2.223,2.54,0.65,0.65,-0.44,-2.71,-0.28,
2.225,2.54,0.65,0.65,-0.42,-2.64,-0.28,
2.231,2.14,0.39,0.74,-0.42,-2.64,-0.28,
2.233,2.14,0.39,0.74,-0.42,-2.58,-0.28,
2.234,2.14,0.39,0.74,-0.41,-2.52,-0.27,
2.234,2.14,0.39,0.74,-0.41,-2.44,-0.26,
2.235,2.14,0.39,0.74,-0.41,-2.42,-0.26,
2.235,2.14,0.39,0.74,-0.41,-2.38,-0.25,
2.237,1.73,0.11,0.87,-0.41,-2.38,-0.25,
2.237,1.73,0.11,0.87,-0.42,-2.35,-0.24,
2.238,1.73,0.11,0.87,-0.42,-2.33,-0.23,
2.242,1.73,0.11,0.87,-0.44,-2.30,-0.21,
2.242,1.73,0.11,0.87,-0.44,-2.30,-0.20,
2.244,1.73,0.11,0.87,-0.46,-2.30,-0.19,
2.248,1.43,-0.18,1.07,-0.46,-2.30,-0.19,
2.248,1.43,-0.18,1.07,-0.47,-2.30,-0.18,
2.248,1.43,-0.18,1.07,-0.49,-2.30,-0.17,
2.251,1.43,-0.18,1.07,-0.52,-2.31,-0.16,
2.252,1.43,-0.18,1.07,-0.53,-2.31,-0.16,
2.254,1.43,-0.18,1.07,-0.56,-2.31,-0.16,
2.257,1.53,-0.41,1.15,-0.56,-2.31,-0.16,
2.257,1.53,-0.41,1.15,-0.58,-2.30,-0.16,
2.258,1.53,-0.41,1.15,-0.61,-2.30,-0.17,
2.261,1.53,-0.41,1.15,-0.65,-2.28,-0.18,
2.263,1.53,-0.41,1.15,-0.66,-2.28,-0.18,
2.27,1.53,-0.41,1.15,-0.68,-2.27,-0.20,
2.282,1.54,-0.58,1.31,-0.68,-2.27,-0.20,
2.282,1.54,-0.58,1.31,-0.70,-2.27,-0.21,
2.282,1.54,-0.58,1.31,-0.71,-2.26,-0.23,
2.282,1.54,-0.58,1.31,-0.73,-2.25,-0.26,
2.283,1.54,-0.58,1.31,-0.73,-2.25,-0.27,
2.283,1.54,-0.58,1.31,-0.73,-2.26,-0.29,
2.283,1.47,-0.87,1.82,-0.73,-2.26,-0.29,
2.283,1.47,-0.87,1.82,-0.73,-2.27,-0.32,
2.283,1.47,-0.87,1.82,-0.71,-2.28,-0.34,
2.283,1.47,-0.87,1.82,-0.69,-2.31,-0.39,
2.284,1.47,-0.87,1.82,-0.67,-2.32,-0.40,
2.286,1.47,-0.87,1.82,-0.65,-2.35,-0.42,
2.287,1.01,-1.08,2.45,-0.65,-2.35,-0.42,
2.287,1.01,-1.08,2.45,-0.62,-2.37,-0.45,
2.288,1.01,-1.08,2.45,-0.59,-2.40,-0.48,
2.291,1.01,-1.08,2.45,-0.53,-2.43,-0.51,
2.293,1.01,-1.08,2.45,-0.52,-2.44,-0.51,
2.295,1.01,-1.08,2.45,-0.48,-2.46,-0.53,
2.298,0.25,-0.93,2.69,-0.48,-2.46,-0.53,
2.298,0.25,-0.93,2.69,-0.44,-2.48,-0.55,
2.298,0.25,-0.93,2.69,-0.41,-2.50,-0.56,
2.302,0.25,-0.93,2.69,-0.35,-2.52,-0.58,
2.302,0.25,-0.93,2.69,-0.33,-2.52,-0.59,
2.304,0.25,-0.93,2.69,-0.29,-2.54,-0.60,
2.306,-0.27,-0.67,2.43,-0.29,-2.54,-0.60,
2.307,-0.27,-0.67,2.43,-0.26,-2.54,-0.61,
2.308,-0.27,-0.67,2.43,-0.23,-2.55,-0.62,
2.311,-0.27,-0.67,2.43,-0.17,-2.56,-0.63,
2.312,-0.27,-0.67,2.43,-0.15,-2.56,-0.63,
2.316,-0.27,-0.67,2.43,-0.10,-2.58,-0.63,
2.317,-0.87,-0.32,2.44,-0.10,-2.58,-0.63,
2.317,-0.87,-0.32,2.44,-0.06,-2.60,-0.63,
2.319,-0.87,-0.32,2.44,-0.01,-2.63,-0.63,
2.321,-0.87,-0.32,2.44,0.06,-2.68,-0.62,
2.322,-0.87,-0.32,2.44,0.11,-2.72,-0.62,
2.324,-0.87,-0.32,2.44,0.14,-2.74,-0.62,
2.327,-1.20,-0.08,2.57,0.14,-2.74,-0.62,
2.327,-1.20,-0.08,2.57,0.18,-2.79,-0.62,
2.328,-1.20,-0.08,2.57,0.23,-2.84,-0.61,
2.331,-1.20,-0.08,2.57,0.31,-2.92,-0.60,
2.333,-1.20,-0.08,2.57,0.36,-2.98,-0.59,
2.335,-1.20,-0.08,2.57,0.38,-3.01,-0.59,
2.337,-1.49,0.23,2.69,0.38,-3.01,-0.59,
2.337,-1.49,0.23,2.69,0.43,-3.06,-0.58,
2.338,-1.49,0.23,2.69,0.47,-3.12,-0.58,
2.343,-1.49,0.23,2.69,0.54,-3.22,-0.57,
2.343,-1.49,0.23,2.69,0.57,-3.25,-0.57,
2.344,-1.49,0.23,2.69,0.61,-3.31,-0.56,
2.347,-1.47,0.58,2.56,0.61,-3.31,-0.56,
2.348,-1.47,0.58,2.56,0.65,-3.38,-0.56,
2.348,-1.47,0.58,2.56,0.68,-3.46,-0.56,
2.351,-1.47,0.58,2.56,0.73,-3.57,-0.56,
2.352,-1.47,0.58,2.56,0.76,-3.65,-0.56,
2.354,-1.47,0.58,2.56,0.77,-3.68,-0.56,
2.357,-1.39,0.88,2.37,0.77,-3.68,-0.56,
2.357,-1.39,0.88,2.37,0.79,-3.76,-0.56,
2.358,-1.39,0.88,2.37,0.81,-3.88,-0.57,
2.361,-1.39,0.88,2.37,0.82,-3.96,-0.57,
2.364,-1.39,0.88,2.37,0.83,-4.08,-0.57,
2.366,-1.39,0.88,2.37,0.84,-4.12,-0.57,
2.367,-1.39,1.07,1.93,0.84,-4.12,-0.57,
2.367,-1.39,1.07,1.93,0.84,-4.16,-0.57,
2.368,-1.39,1.07,1.93,0.84,-4.24,-0.57,
2.371,-1.39,1.07,1.93,0.83,-4.35,-0.56,
2.372,-1.39,1.07,1.93,0.83,-4.38,-0.56,
2.374,-1.39,1.07,1.93,0.82,-4.45,-0.56,
2.382,-1.37,1.17,1.31,0.82,-4.45,-0.56,
2.383,-1.37,1.17,1.31,0.80,-4.51,-0.56,
2.383,-1.37,1.17,1.31,0.79,-4.57,-0.55,
2.383,-1.37,1.17,1.31,0.77,-4.64,-0.54,
2.383,-1.37,1.17,1.31,0.75,-4.68,-0.54,
2.384,-1.37,1.17,1.31,0.74,-4.70,-0.53,
2.386,-1.10,1.12,0.50,0.74,-4.70,-0.53,
2.387,-1.10,1.12,0.50,0.72,-4.72,-0.52,
2.388,-1.10,1.12,0.50,0.70,-4.74,-0.51,
2.391,-1.10,1.12,0.50,0.67,-4.76,-0.49,
2.393,-1.10,1.12,0.50,0.66,-4.76,-0.49,
2.394,-1.10,1.12,0.50,0.64,-4.76,-0.48,
2.403,-0.86,0.81,-0.27,0.64,-4.76,-0.48,
2.404,-0.86,0.81,-0.27,0.62,-4.75,-0.46,
2.404,-0.86,0.81,-0.27,0.61,-4.73,-0.44,
2.404,-0.86,0.81,-0.27,0.58,-4.68,-0.40,
2.404,-0.86,0.81,-0.27,0.56,-4.63,-0.38,
2.405,-0.86,0.81,-0.27,0.56,-4.61,-0.36,
2.407,-0.62,0.33,-0.91,0.56,-4.61,-0.36,
2.407,-0.62,0.33,-0.91,0.54,-4.55,-0.34,
2.409,-0.62,0.33,-0.91,0.52,-4.48,-0.32,
2.411,-0.62,0.33,-0.91,0.50,-4.36,-0.28,
2.412,-0.62,0.33,-0.91,0.49,-4.32,-0.27,
2.44,-0.62,0.33,-0.91,0.47,-4.24,-0.25,
2.44,-0.19,-0.14,-1.72,0.47,-4.24,-0.25,
2.44,-0.19,-0.14,-1.72,0.44,-4.16,-0.24,
2.44,-0.19,-0.14,-1.72,0.42,-4.08,-0.22,
2.441,-0.19,-0.14,-1.72,0.37,-3.94,-0.20,
2.441,-0.19,-0.14,-1.72,0.35,-3.89,-0.20,
2.441,-0.19,-0.14,-1.72,0.22,-3.58,-0.17,
2.441,-0.19,-0.14,-1.72,0.22,-3.58,-0.17,
2.441,-0.19,-0.14,-1.72,0.22,-3.58,-0.17,
2.441,0.54,-0.77,-3.08,0.22,-3.58,-0.17,
2.442,0.54,-0.77,-3.08,0.12,-3.35,-0.15,
2.454,0.54,-0.77,-3.08,0.10,-3.29,-0.14,
2.454,0.54,-0.77,-3.08,0.08,-3.22,-0.13,
2.454,0.77,-1.08,-3.32,0.08,-3.22,-0.13,
2.455,0.77,-1.08,-3.32,0.03,-3.09,-0.13,
2.455,0.77,-1.08,-3.32,-0.02,-2.94,-0.12,
2.455,0.77,-1.08,-3.32,-0.08,-2.72,-0.10,
2.455,0.77,-1.08,-3.32,-0.10,-2.64,-0.10,
2.455,0.77,-1.08,-3.32,-0.15,-2.41,-0.09,
2.455,1.25,-1.55,-3.01,-0.15,-2.41,-0.09,
2.456,1.25,-1.55,-3.01,-0.17,-2.33,-0.09,
2.456,1.25,-1.55,-3.01,-0.21,-2.18,-0.08,
2.456,1.25,-1.55,-3.01,-0.28,-1.95,-0.08,
2.456,1.25,-1.55,-3.01,-0.30,-1.88,-0.07,
2.456,1.25,-1.55,-3.01,-0.35,-1.74,-0.06,
2.46,1.74,-2.00,-2.66,-0.35,-1.74,-0.06,
2.461,1.74,-2.00,-2.66,-0.41,-1.61,-0.06,
2.461,1.74,-2.00,-2.66,-0.48,-1.47,-0.04,
2.461,1.74,-2.00,-2.66,-0.60,-1.28,-0.02,
2.462,1.74,-2.00,-2.66,-0.64,-1.22,-0.01,
2.464,1.74,-2.00,-2.66,-0.75,-1.10,0.02,
2.467,2.03,-2.58,-2.42,-0.75,-1.10,0.02,
2.467,2.03,-2.58,-2.42,-0.86,-0.98,0.04,
2.468,2.03,-2.58,-2.42,-0.99,-0.86,0.07,
2.471,2.03,-2.58,-2.42,-1.18,-0.67,0.12,
2.472,2.03,-2.58,-2.42,-1.31,-0.54,0.16,
2.474,2.03,-2.58,-2.42,-1.37,-0.47,0.18,
2.476,2.41,-3.21,-1.48,-1.37,-0.47,0.18,
2.476,2.41,-3.21,-1.48,-1.49,-0.33,0.22,
2.478,2.41,-3.21,-1.48,-1.60,-0.19,0.25,
2.481,2.41,-3.21,-1.48,-1.74,0.05,0.30,
2.482,2.41,-3.21,-1.48,-1.81,0.21,0.33,
2.484,2.41,-3.21,-1.48,-1.85,0.30,0.34,
2.486,2.92,-3.78,0.75,-1.85,0.30,0.34,
2.486,2.92,-3.78,0.75,-1.92,0.56,0.37,
2.488,2.92,-3.78,0.75,-1.93,0.65,0.38,
2.491,2.92,-3.78,0.75,-1.95,0.93,0.40,
2.492,2.92,-3.78,0.75,-1.95,1.11,0.40,
2.494,2.92,-3.78,0.75,-1.92,1.30,0.39,
2.496,3.94,-4.14,3.62,-1.92,1.30,0.39,
2.496,3.94,-4.14,3.62,-1.89,1.47,0.38,
2.498,3.94,-4.14,3.62,-1.87,1.55,0.37,
2.501,3.94,-4.14,3.62,-1.79,1.78,0.34,
2.502,3.94,-4.14,3.62,-1.72,1.91,0.31,
2.504,3.94,-4.14,3.62,-1.64,2.01,0.28,
2.506,4.89,-4.60,6.07,-1.64,2.01,0.28,
2.506,4.89,-4.60,6.07,-1.56,2.09,0.24,
2.508,4.89,-4.60,6.07,-1.51,2.11,0.22,
2.511,4.89,-4.60,6.07,-1.37,2.14,0.15,
2.512,4.89,-4.60,6.07,-1.26,2.12,0.10,
2.514,4.89,-4.60,6.07,-1.16,2.07,0.05,
2.516,5.30,-5.52,8.11,-1.16,2.07,0.05,
2.516,5.30,-5.52,8.11,-1.04,1.98,-0.00,
2.518,5.30,-5.52,8.11,-0.98,1.93,-0.03,
2.521,5.30,-5.52,8.11,-0.80,1.74,-0.10,
2.522,5.30,-5.52,8.11,-0.67,1.58,-0.15,
2.524,5.30,-5.52,8.11,-0.54,1.41,-0.20,
2.526,4.49,-6.09,9.17,-0.54,1.41,-0.20,
2.527,4.49,-6.09,9.17,-0.40,1.22,-0.24,
2.528,4.49,-6.09,9.17,-0.26,1.03,-0.27,
2.542,4.49,-6.09,9.17,-0.12,0.84,-0.30,
2.542,4.49,-6.09,9.17,0.03,0.64,-0.31,
2.543,4.49,-6.09,9.17,0.17,0.45,-0.32,
2.543,2.39,-5.61,9.59,0.17,0.45,-0.32,
2.544,2.39,-5.61,9.59,0.32,0.26,-0.31,
2.544,2.39,-5.61,9.59,0.46,0.09,-0.30,
2.544,2.39,-5.61,9.59,0.60,-0.08,-0.29,
2.545,2.39,-5.61,9.59,0.73,-0.23,-0.26,
2.545,2.39,-5.61,9.59,0.86,-0.36,-0.24,
2.56,0.16,-4.84,8.63,0.86,-0.36,-0.24,
2.561,0.16,-4.84,8.63,0.98,-0.48,-0.21,
2.561,0.16,-4.84,8.63,1.09,-0.58,-0.18,
2.561,0.16,-4.84,8.63,1.20,-0.67,-0.15,
2.561,0.16,-4.84,8.63,1.30,-0.73,-0.12,
2.561,0.16,-4.84,8.63,1.40,-0.79,-0.09,
2.561,-0.73,-4.55,7.00,1.40,-0.79,-0.09,
2.561,-0.73,-4.55,7.00,1.49,-0.83,-0.07,
2.561,-0.73,-4.55,7.00,1.57,-0.86,-0.05,
2.561,-0.73,-4.55,7.00,1.65,-0.88,-0.04,
2.562,-0.73,-4.55,7.00,1.72,-0.89,-0.03,
2.569,-0.73,-4.55,7.00,1.79,-0.90,-0.02,
2.57,-0.59,-4.50,5.11,1.79,-0.90,-0.02,
2.57,-0.59,-4.50,5.11,1.86,-0.90,-0.01,
2.571,-0.59,-4.50,5.11,1.92,-0.91,0.00,
2.571,-0.59,-4.50,5.11,1.98,-0.90,0.02,
2.573,-0.59,-4.50,5.11,2.03,-0.90,0.03,
2.574,-0.59,-4.50,5.11,2.08,-0.90,0.04,
2.577,-1.02,-3.98,3.71,2.08,-0.90,0.04,
2.577,-1.02,-3.98,3.71,2.13,-0.89,0.06,
2.578,-1.02,-3.98,3.71,2.17,-0.88,0.08,
2.581,-1.02,-3.98,3.71,2.21,-0.86,0.09,
2.582,-1.02,-3.98,3.71,2.24,-0.83,0.11,
2.584,-1.02,-3.98,3.71,2.28,-0.79,0.12,
2.587,-1.52,-3.34,2.51,2.28,-0.79,0.12,
2.587,-1.52,-3.34,2.51,2.31,-0.74,0.14,
2.588,-1.52,-3.34,2.51,2.34,-0.68,0.15,
2.591,-1.52,-3.34,2.51,2.36,-0.60,0.16,
2.592,-1.52,-3.34,2.51,2.39,-0.51,0.16,
2.594,-1.52,-3.34,2.51,2.42,-0.41,0.16,
2.597,-1.42,-3.65,1.82,2.42,-0.41,0.16,
2.597,-1.42,-3.65,1.82,2.44,-0.29,0.16,
2.616,-1.42,-3.65,1.82,2.48,-0.17,0.15,
2.616,-1.42,-3.65,1.82,2.51,-0.03,0.16,
2.616,-1.42,-3.65,1.82,2.54,0.13,0.16,
2.617,-1.42,-3.65,1.82,2.56,0.29,0.16,
2.617,-1.42,-4.34,1.28,2.56,0.29,0.16,
2.617,-1.42,-4.34,1.28,2.60,0.45,0.17,
2.618,-1.42,-4.34,1.28,2.63,0.64,0.17,
2.618,-1.42,-4.34,1.28,2.67,0.82,0.18,
2.618,-1.42,-4.34,1.28,2.71,1.02,0.20,
2.619,-1.42,-4.34,1.28,2.76,1.22,0.22,
2.619,-1.94,-5.04,1.08,2.76,1.22,0.22,
2.619,-1.94,-5.04,1.08,2.80,1.42,0.24,
2.619,-1.94,-5.04,1.08,2.86,1.63,0.26,
2.624,-1.94,-5.04,1.08,2.91,1.83,0.29,
2.624,-1.94,-5.04,1.08,2.96,2.02,0.31,
2.625,-1.94,-5.04,1.08,3.02,2.21,0.34,
2.627,-2.44,-5.54,0.87,3.02,2.21,0.34,
2.627,-2.44,-5.54,0.87,3.07,2.37,0.38,
2.628,-2.44,-5.54,0.87,3.13,2.53,0.41,
2.632,-2.44,-5.54,0.87,3.22,2.73,0.47,
2.632,-2.44,-5.54,0.87,3.25,2.79,0.49,
2.634,-2.44,-5.54,0.87,3.30,2.91,0.53,
2.637,-2.78,-5.71,0.36,3.30,2.91,0.53,
2.637,-2.78,-5.71,0.36,3.36,3.02,0.57,
2.638,-2.78,-5.71,0.36,3.42,3.12,0.62,
2.641,-2.78,-5.71,0.36,3.47,3.20,0.67,
2.642,-2.78,-5.71,0.36,3.52,3.27,0.73,
2.644,-2.78,-5.71,0.36,3.57,3.31,0.79,
2.647,-3.07,-5.82,-0.28,3.57,3.31,0.79,
2.648,-3.07,-5.82,-0.28,3.60,3.32,0.85,
2.649,-3.07,-5.82,-0.28,3.63,3.31,0.90,
2.651,-3.07,-5.82,-0.28,3.65,3.27,0.96,
2.652,-3.07,-5.82,-0.28,3.65,3.20,1.01,
2.654,-3.07,-5.82,-0.28,3.64,3.10,1.06,
2.656,-3.08,-5.81,-2.10,3.64,3.10,1.06,
2.657,-3.08,-5.81,-2.10,3.62,2.97,1.11,
2.658,-3.08,-5.81,-2.10,3.58,2.83,1.15,
2.661,-3.08,-5.81,-2.10,3.51,2.57,1.21,
2.662,-3.08,-5.81,-2.10,3.48,2.48,1.23,
2.677,-3.08,-5.81,-2.10,3.42,2.28,1.27,
2.678,-2.60,-5.77,-4.39,3.42,2.28,1.27,
2.679,-2.60,-5.77,-4.39,3.36,2.07,1.30,
2.679,-2.60,-5.77,-4.39,3.29,1.85,1.34,
2.68,-2.60,-5.77,-4.39,3.23,1.63,1.37,
2.68,-2.60,-5.77,-4.39,3.16,1.40,1.41,
2.68,-2.60,-5.77,-4.39,3.09,1.18,1.45,
2.681,-2.87,-5.76,-5.98,3.09,1.18,1.45,
2.682,-2.87,-5.76,-5.98,3.01,0.95,1.50,
2.682,-2.87,-5.76,-5.98,2.95,0.74,1.55,
2.682,-2.87,-5.76,-5.98,2.85,0.45,1.62,
2.683,-2.87,-5.76,-5.98,2.82,0.36,1.64,
2.688,-2.87,-5.76,-5.98,2.76,0.18,1.69,
2.689,-3.42,-5.15,-6.49,2.76,0.18,1.69,
2.689,-3.42,-5.15,-6.49,2.70,0.00,1.73,
2.689,-3.42,-5.15,-6.49,2.64,-0.16,1.77,
2.718,-3.42,-5.15,-6.49,2.55,-0.39,1.81,
2.72,-3.42,-5.15,-6.49,2.52,-0.47,1.83,
2.72,-3.42,-5.15,-6.49,2.45,-0.61,1.84,
2.721,-2.97,-4.55,-7.03,2.45,-0.61,1.84,
2.722,-2.97,-4.55,-7.03,2.39,-0.75,1.84,
2.722,-2.97,-4.55,-7.03,2.31,-0.89,1.83,
2.723,-2.97,-4.55,-7.03,2.23,-1.02,1.80,
2.723,-2.97,-4.55,-7.03,2.14,-1.14,1.76,
2.723,-2.97,-4.55,-7.03,2.05,-1.26,1.71,
2.724,-0.99,-4.29,-8.06,2.05,-1.26,1.71,
2.724,-0.99,-4.29,-8.06,1.95,-1.37,1.64,
2.725,-0.99,-4.29,-8.06,1.85,-1.48,1.56,
2.725,-0.99,-4.29,-8.06,1.76,-1.60,1.47,
2.726,-0.99,-4.29,-8.06,1.65,-1.77,1.29,
2.726,-0.99,-4.29,-8.06,1.65,-1.82,1.21,
2.727,2.15,-3.87,-6.59,1.65,-1.82,1.21,
2.728,2.15,-3.87,-6.59,1.71,-1.87,1.04,
2.728,2.15,-3.87,-6.59,1.84,-1.88,0.83,
2.729,2.15,-3.87,-6.59,2.02,-1.88,0.59,
2.729,2.15,-3.87,-6.59,2.24,-1.86,0.35,
2.73,2.15,-3.87,-6.59,2.49,-1.85,0.10,
2.73,7.34,-4.62,3.37,2.49,-1.85,0.10,
2.731,7.34,-4.62,3.37,2.76,-1.83,-0.16,
2.732,7.34,-4.62,3.37,3.05,-1.84,-0.42,
2.735,7.34,-4.62,3.37,3.49,-1.85,-0.80,
2.735,7.34,-4.62,3.37,3.63,-1.86,-0.91,
2.772,7.34,-4.62,3.37,3.89,-1.87,-1.14,
2.773,8.58,-6.79,6.92,3.89,-1.87,-1.14,
2.773,8.58,-6.79,6.92,4.12,-1.88,-1.36,
2.773,8.58,-6.79,6.92,4.33,-1.88,-1.58,
2.774,8.58,-6.79,6.92,4.51,-1.87,-1.78,
2.774,8.58,-6.79,6.92,4.66,-1.83,-1.97,
2.774,8.58,-6.79,6.92,4.77,-1.76,-2.13,
2.775,6.96,-9.88,3.28,4.77,-1.76,-2.13,
2.775,6.96,-9.88,3.28,4.86,-1.67,-2.28,
2.775,6.96,-9.88,3.28,4.92,-1.55,-2.40,
2.776,6.96,-9.88,3.28,4.97,-1.31,-2.53,
2.776,6.96,-9.88,3.28,4.98,-1.21,-2.57,
2.776,6.96,-9.88,3.28,4.99,-1.00,-2.62,
2.777,3.24,-12.21,-1.09,4.99,-1.00,-2.62,
2.777,3.24,-12.21,-1.09,4.97,-0.75,-2.64,
2.777,3.24,-12.21,-1.09,4.94,-0.45,-2.65,
2.777,3.24,-12.21,-1.09,4.89,-0.13,-2.65,
2.778,3.24,-12.21,-1.09,4.82,0.22,-2.62,
2.778,3.24,-12.21,-1.09,4.74,0.57,-2.57,
2.803,0.48,-13.10,-3.93,4.74,0.57,-2.57,
2.804,0.48,-13.10,-3.93,4.64,0.93,-2.51,
2.804,0.48,-13.10,-3.93,4.53,1.28,-2.44,
2.804,0.48,-13.10,-3.93,4.36,1.75,-2.30,
2.805,0.48,-13.10,-3.93,4.31,1.89,-2.25,
2.805,0.48,-13.10,-3.93,4.19,2.14,-2.15,
2.805,-1.28,-11.32,-4.86,4.19,2.14,-2.15,
2.805,-1.28,-11.32,-4.86,4.08,2.34,-2.06,
2.806,-1.28,-11.32,-4.86,3.99,2.48,-1.97,
2.806,-1.28,-11.32,-4.86,3.87,2.59,-1.86,
2.806,-1.28,-11.32,-4.86,3.84,2.61,-1.83,
2.807,-1.28,-11.32,-4.86,3.80,2.60,-1.77,
2.807,-1.04,-8.14,-3.56,3.80,2.60,-1.77,
2.807,-1.04,-8.14,-3.56,3.77,2.55,-1.72,
2.807,-1.04,-8.14,-3.56,3.75,2.47,-1.69,
2.808,-1.04,-8.14,-3.56,3.73,2.36,-1.65,
2.808,-1.04,-8.14,-3.56,3.71,2.23,-1.63,
2.808,-1.04,-8.14,-3.56,3.69,2.08,-1.61,
2.808,-0.78,-5.98,-3.74,3.69,2.08,-1.61,
2.809,-0.78,-5.98,-3.74,3.67,1.92,-1.59,
2.809,-0.78,-5.98,-3.74,3.65,1.77,-1.58,
2.809,-0.78,-5.98,-3.74,3.60,1.58,-1.58,
2.81,-0.78,-5.98,-3.74,3.57,1.53,-1.58,
2.81,-0.78,-5.98,-3.74,3.53,1.45,-1.59,
2.81,-0.70,-4.07,-5.74,3.53,1.45,-1.59,
2.81,-0.70,-4.07,-5.74,3.48,1.39,-1.60,
2.811,-0.70,-4.07,-5.74,3.44,1.35,-1.62,
2.811,-0.70,-4.07,-5.74,3.37,1.32,-1.64,
2.815,-0.70,-4.07,-5.74,3.35,1.31,-1.64,
2.816,-0.70,-4.07,-5.74,3.31,1.31,-1.65,
2.823,-1.30,-2.69,-7.34,3.31,1.31,-1.65,
2.824,-1.30,-2.69,-7.34,3.28,1.31,-1.65,
2.824,-1.30,-2.69,-7.34,3.25,1.33,-1.64,
2.824,-1.30,-2.69,-7.34,3.22,1.38,-1.63,
2.825,-1.30,-2.69,-7.34,3.21,1.40,-1.62,
2.825,-1.30,-2.69,-7.34,3.19,1.45,-1.60,
2.829,-2.57,-1.05,-7.24,3.19,1.45,-1.60,
2.833,-2.57,-1.05,-7.24,3.17,1.51,-1.57,
2.833,-2.57,-1.05,-7.24,3.15,1.58,-1.53,
2.833,-2.57,-1.05,-7.24,3.12,1.70,-1.48,
2.833,-2.57,-1.05,-7.24,3.11,1.74,-1.45,
2.839,-2.57,-1.05,-7.24,3.10,1.83,-1.41,
2.84,-3.88,0.51,-7.16,3.10,1.83,-1.41,
2.84,-3.88,0.51,-7.16,3.08,1.91,-1.36,
2.84,-3.88,0.51,-7.16,3.07,2.00,-1.30,
2.843,-3.88,0.51,-7.16,3.04,2.14,-1.22,
2.844,-3.88,0.51,-7.16,3.04,2.19,-1.19,
2.844,-3.88,0.51,-7.16,3.01,2.28,-1.13,
2.855,-4.62,2.26,-7.20,3.01,2.28,-1.13,
2.856,-4.62,2.26,-7.20,2.99,2.37,-1.06,
2.856,-4.62,2.26,-7.20,2.97,2.45,-1.00,
2.857,-4.62,2.26,-7.20,2.93,2.57,-0.91,
2.857,-4.62,2.26,-7.20,2.91,2.60,-0.87,
2.857,-4.62,2.26,-7.20,2.86,2.66,-0.81,
2.858,-5.05,4.25,-7.93,2.86,2.66,-0.81,
2.859,-5.05,4.25,-7.93,2.81,2.70,-0.74,
2.859,-5.05,4.25,-7.93,2.74,2.74,-0.67,
2.862,-5.05,4.25,-7.93,2.64,2.77,-0.54,
2.902,-5.05,4.25,-7.93,2.61,2.78,-0.49,
2.903,-5.05,4.25,-7.93,2.54,2.78,-0.40,
2.903,-5.33,6.78,-8.60,2.54,2.78,-0.40,
2.903,-5.33,6.78,-8.60,2.47,2.76,-0.30,
2.904,-5.33,6.78,-8.60,2.39,2.73,-0.19,
2.904,-5.33,6.78,-8.60,2.28,2.67,-0.02,
2.904,-5.33,6.78,-8.60,2.25,2.65,0.03,
2.904,-5.33,6.78,-8.60,2.18,2.62,0.14,
2.904,-5.52,8.11,-8.65,2.18,2.62,0.14,
2.904,-5.52,8.11,-8.65,2.13,2.58,0.25,
2.904,-5.52,8.11,-8.65,2.07,2.54,0.35,
2.905,-5.52,8.11,-8.65,1.98,2.46,0.48,
2.905,-5.52,8.11,-8.65,1.95,2.43,0.52,
2.905,-5.52,8.11,-8.65,1.90,2.37,0.59,
2.905,-3.91,8.52,-8.22,1.90,2.37,0.59,
2.905,-3.91,8.52,-8.22,1.84,2.29,0.64,
2.905,-3.91,8.52,-8.22,1.79,2.22,0.68,
2.906,-3.91,8.52,-8.22,1.70,2.10,0.73,
2.906,-3.91,8.52,-8.22,1.67,2.06,0.74,
2.906,-3.91,8.52,-8.22,1.60,1.98,0.76,
2.906,-2.14,8.51,-7.14,1.60,1.98,0.76,
2.906,-2.14,8.51,-7.14,1.53,1.90,0.77,
2.907,-2.14,8.51,-7.14,1.45,1.83,0.76,
2.907,-2.14,8.51,-7.14,1.32,1.70,0.74,
2.907,-2.14,8.51,-7.14,1.28,1.65,0.73,
2.907,-2.14,8.51,-7.14,1.19,1.57,0.71,
2.907,-0.61,8.47,-6.83,1.19,1.57,0.71,
2.907,-0.61,8.47,-6.83,1.10,1.47,0.68,
2.926,-0.61,8.47,-6.83,1.02,1.37,0.67,
2.926,-0.61,8.47,-6.83,0.90,1.22,0.64,
2.926,-0.61,8.47,-6.83,0.87,1.17,0.63,
2.927,-0.61,8.47,-6.83,0.80,1.05,0.61,
2.927,-0.03,8.27,-6.62,0.80,1.05,0.61,
2.928,-0.03,8.27,-6.62,0.73,0.94,0.60,
2.928,-0.03,8.27,-6.62,0.68,0.82,0.58,
2.928,-0.03,8.27,-6.62,0.60,0.64,0.56,
2.929,-0.03,8.27,-6.62,0.58,0.58,0.55,
2.929,-0.03,8.27,-6.62,0.53,0.47,0.53,
2.929,0.03,6.92,-7.46,0.53,0.47,0.53,
2.93,0.03,6.92,-7.46,0.49,0.37,0.50,
2.93,0.03,6.92,-7.46,0.45,0.28,0.48,
2.932,0.03,6.92,-7.46,0.40,0.17,0.44,
2.951,0.03,6.92,-7.46,0.38,0.14,0.43,
2.951,0.03,6.92,-7.46,0.34,0.09,0.40,
2.951,0.09,5.94,-8.47,0.34,0.09,0.40,
2.952,0.09,5.94,-8.47,0.29,0.05,0.38,
2.952,0.09,5.94,-8.47,0.24,0.03,0.35,
2.952,0.09,5.94,-8.47,0.17,0.02,0.30,
2.952,0.09,5.94,-8.47,0.15,0.02,0.29,
2.952,0.09,5.94,-8.47,0.09,0.04,0.25,
2.953,-0.15,5.72,-8.67,0.09,0.04,0.25,
2.953,-0.15,5.72,-8.67,0.04,0.07,0.22,
2.953,-0.15,5.72,-8.67,-0.02,0.10,0.19,
2.953,-0.15,5.72,-8.67,-0.10,0.16,0.15,
2.953,-0.15,5.72,-8.67,-0.13,0.18,0.13,
2.955,-0.15,5.72,-8.67,-0.19,0.22,0.11,
2.956,-0.39,5.59,-7.98,-0.19,0.22,0.11,
2.957,-0.39,5.59,-7.98,-0.25,0.24,0.08,
2.958,-0.39,5.59,-7.98,-0.31,0.27,0.06,
2.961,-0.39,5.59,-7.98,-0.41,0.27,0.03,
2.962,-0.39,5.59,-7.98,-0.44,0.26,0.02,
2.964,-0.39,5.59,-7.98,-0.50,0.23,-0.00,
2.967,-0.38,5.72,-7.20,-0.50,0.23,-0.00,
2.967,-0.38,5.72,-7.20,-0.57,0.19,-0.02,
2.968,-0.38,5.72,-7.20,-0.63,0.14,-0.03,
2.971,-0.38,5.72,-7.20,-0.73,0.03,-0.06,
2.972,-0.38,5.72,-7.20,-0.77,-0.00,-0.07,
2.974,-0.38,5.72,-7.20,-0.83,-0.08,-0.08,
2.976,-0.49,5.65,-7.04,-0.83,-0.08,-0.08,
2.977,-0.49,5.65,-7.04,-0.90,-0.16,-0.10,
2.984,-0.49,5.65,-7.04,-0.96,-0.24,-0.11,
2.984,-0.49,5.65,-7.04,-1.05,-0.36,-0.13,
2.984,-0.49,5.65,-7.04,-1.08,-0.39,-0.13,
2.984,-0.49,5.65,-7.04,-1.13,-0.46,-0.14,
2.987,-0.85,5.66,-6.71,-1.13,-0.46,-0.14,
2.987,-0.85,5.66,-6.71,-1.18,-0.52,-0.14,
2.988,-0.85,5.66,-6.71,-1.23,-0.58,-0.14,
2.993,-0.85,5.66,-6.71,-1.29,-0.65,-0.12,
2.994,-0.85,5.66,-6.71,-1.31,-0.68,-0.12,
3.03,-0.85,5.66,-6.71,-1.34,-0.72,-0.10,
3.031,-2.15,5.78,-5.42,-1.34,-0.72,-0.10,
3.031,-2.15,5.78,-5.42,-1.37,-0.76,-0.08,
3.031,-2.15,5.78,-5.42,-1.40,-0.79,-0.05,
3.032,-2.15,5.78,-5.42,-1.44,-0.85,-0.00,
3.032,-2.15,5.78,-5.42,-1.45,-0.86,0.01,
3.032,-2.15,5.78,-5.42,-1.48,-0.90,0.05,
3.032,-3.33,5.49,-3.79,-1.48,-0.90,0.05,
3.032,-3.33,5.49,-3.79,-1.51,-0.93,0.09,
3.032,-3.33,5.49,-3.79,-1.54,-0.97,0.14,
3.033,-3.33,5.49,-3.79,-1.58,-1.04,0.20,
3.033,-3.33,5.49,-3.79,-1.59,-1.06,0.21,
3.033,-3.33,5.49,-3.79,-1.60,-1.11,0.25,
3.033,-4.15,4.98,-1.97,-1.60,-1.11,0.25,
3.033,-4.15,4.98,-1.97,-1.61,-1.16,0.29,
3.033,-4.15,4.98,-1.97,-1.61,-1.21,0.32,
3.034,-4.15,4.98,-1.97,-1.59,-1.29,0.36,
3.034,-4.15,4.98,-1.97,-1.57,-1.32,0.37,
3.034,-4.15,4.98,-1.97,-1.53,-1.38,0.39,
3.034,-3.78,4.28,1.08,-1.53,-1.38,0.39,
3.034,-3.78,4.28,1.08,-1.47,-1.44,0.40,
3.034,-3.78,4.28,1.08,-1.40,-1.49,0.41,
3.034,-3.78,4.28,1.08,-1.28,-1.56,0.40,
3.035,-3.78,4.28,1.08,-1.23,-1.57,0.40,
3.035,-3.78,4.28,1.08,-1.15,-1.60,0.38,
3.037,-2.99,3.74,5.10,-1.15,-1.60,0.38,
3.037,-2.99,3.74,5.10,-1.06,-1.61,0.37,
3.038,-2.99,3.74,5.10,-0.97,-1.60,0.35,
3.043,-2.99,3.74,5.10,-0.80,-1.54,0.32,
3.043,-2.99,3.74,5.10,-0.73,-1.51,0.31,
3.047,-2.99,3.74,5.10,-0.59,-1.43,0.28,
3.047,-2.64,2.34,10.92,-0.59,-1.43,0.28,
3.047,-2.64,2.34,10.92,-0.41,-1.32,0.26,
3.052,-2.64,2.34,10.92,-0.21,-1.18,0.24,
3.053,-2.64,2.34,10.92,0.09,-0.91,0.19,
3.053,-2.64,2.34,10.92,0.19,-0.81,0.17,
3.057,-2.64,2.34,10.92,0.33,-0.58,0.10,
3.057,-1.07,-0.85,20.84,0.33,-0.58,0.10,
3.057,-1.07,-0.85,20.84,0.40,-0.32,0.02,
3.06,-1.07,-0.85,20.84,0.38,-0.05,-0.10,
3.061,-1.07,-0.85,20.84,0.16,0.34,-0.33,
3.066,-1.07,-0.85,20.84,-0.09,0.54,-0.49,
3.073,-1.07,-0.85,20.84,-0.23,0.61,-0.57,
3.073,5.53,-8.49,14.76,-0.23,0.61,-0.57,
3.073,5.53,-8.49,14.76,-0.56,0.67,-0.72,
3.073,5.53,-8.49,14.76,-0.95,0.62,-0.85,
3.073,5.53,-8.49,14.76,-1.60,0.32,-0.99,
3.074,5.53,-8.49,14.76,-1.83,0.16,-1.02,
3.077,5.53,-8.49,14.76,-2.30,-0.26,-1.05,
3.077,7.02,-12.37,-3.06,-2.30,-0.26,-1.05,
3.078,7.02,-12.37,-3.06,-2.77,-0.78,-1.05,
3.086,7.02,-12.37,-3.06,-3.21,-1.36,-1.01,
3.086,7.02,-12.37,-3.06,-3.77,-2.23,-0.90,
3.086,7.02,-12.37,-3.06,-3.92,-2.51,-0.85,
3.086,7.02,-12.37,-3.06,-4.18,-3.03,-0.73,
3.089,4.50,-12.42,-17.30,-4.18,-3.03,-0.73,
3.09,4.50,-12.42,-17.30,-4.38,-3.51,-0.59,
3.093,4.50,-12.42,-17.30,-4.51,-3.92,-0.43,
3.093,4.50,-12.42,-17.30,-4.58,-4.42,-0.16,
3.093,4.50,-12.42,-17.30,-4.58,-4.56,-0.07,
3.116,4.50,-12.42,-17.30,-4.53,-4.80,0.11,
3.117,1.27,-10.85,-17.04,-4.53,-4.80,0.11,
3.117,1.27,-10.85,-17.04,-4.43,-5.00,0.29,
3.135,1.27,-10.85,-17.04,-4.29,-5.15,0.46,
3.135,1.27,-10.85,-17.04,-4.04,-5.31,0.66,
3.136,1.27,-10.85,-17.04,-3.95,-5.35,0.71,
3.136,1.27,-10.85,-17.04,-3.75,-5.38,0.80,
3.136,0.33,-7.97,-11.31,-3.75,-5.38,0.80,
3.137,0.33,-7.97,-11.31,-3.53,-5.37,0.87,
3.137,0.33,-7.97,-11.31,-3.30,-5.32,0.91,
3.137,0.33,-7.97,-11.31,-2.93,-5.17,0.96,
3.137,0.33,-7.97,-11.31,-2.79,-5.09,0.96,
3.138,0.33,-7.97,-11.31,-2.51,-4.92,0.97,
3.138,0.35,-4.80,-4.33,-2.51,-4.92,0.97,
3.138,0.35,-4.80,-4.33,-2.22,-4.72,0.98,
3.138,0.35,-4.80,-4.33,-1.92,-4.48,0.97,
3.138,0.35,-4.80,-4.33,-1.48,-4.07,0.95,
3.139,0.35,-4.80,-4.33,-1.33,-3.92,0.95,
3.139,0.35,-4.80,-4.33,-1.05,-3.61,0.93,
3.139,-0.27,-1.99,1.34,-1.05,-3.61,0.93,
3.139,-0.27,-1.99,1.34,-0.77,-3.28,0.91,
3.139,-0.27,-1.99,1.34,-0.52,-2.94,0.87,
3.14,-0.27,-1.99,1.34,-0.18,-2.42,0.81,
3.14,-0.27,-1.99,1.34,-0.09,-2.25,0.78,
3.14,-0.27,-1.99,1.34,0.09,-1.90,0.73,
3.14,-0.21,0.41,1.73,0.09,-1.90,0.73,
3.141,-0.21,0.41,1.73,0.22,-1.56,0.67,
3.141,-0.21,0.41,1.73,0.31,-1.22,0.60,
3.141,-0.21,0.41,1.73,0.38,-0.73,0.48,
3.146,-0.21,0.41,1.73,0.38,-0.58,0.44,
3.147,-0.21,0.41,1.73,0.37,-0.29,0.37,
3.148,0.14,1.35,-1.49,0.37,-0.29,0.37,
3.148,0.14,1.35,-1.49,0.32,-0.01,0.30,
3.148,0.14,1.35,-1.49,0.24,0.24,0.25,
3.152,0.14,1.35,-1.49,0.05,0.58,0.18,
3.152,0.14,1.35,-1.49,-0.03,0.68,0.17,
3.155,0.14,1.35,-1.49,-0.21,0.86,0.16,
3.156,-1.31,0.73,-4.01,-0.21,0.86,0.16,
3.157,-1.31,0.73,-4.01,-0.40,1.01,0.17,
3.158,-1.31,0.73,-4.01,-0.60,1.13,0.20,
3.161,-1.31,0.73,-4.01,-0.91,1.25,0.29,
3.162,-1.31,0.73,-4.01,-1.01,1.26,0.33,
3.164,-1.31,0.73,-4.01,-1.20,1.26,0.42,
3.171,-3.46,-0.69,-3.76,-1.20,1.26,0.42,
3.172,-3.46,-0.69,-3.76,-1.39,1.22,0.52,
3.172,-3.46,-0.69,-3.76,-1.56,1.15,0.63,
3.172,-3.46,-0.69,-3.76,-1.79,1.00,0.80,
3.173,-3.46,-0.69,-3.76,-1.86,0.95,0.85,
3.176,-3.46,-0.69,-3.76,-2.00,0.83,0.95,
3.177,-4.16,-1.83,-2.84,-2.00,0.83,0.95,
3.177,-4.16,-1.83,-2.84,-2.12,0.69,1.05,
3.179,-4.16,-1.83,-2.84,-2.22,0.54,1.14,
3.182,-4.16,-1.83,-2.84,-2.36,0.32,1.24,
3.183,-4.16,-1.83,-2.84,-2.39,0.24,1.26,
3.184,-4.16,-1.83,-2.84,-2.46,0.08,1.30,
3.187,-2.21,-2.23,-2.32,-2.46,0.08,1.30,
3.187,-2.21,-2.23,-2.32,-2.51,-0.07,1.33,
3.188,-2.21,-2.23,-2.32,-2.56,-0.23,1.34,
3.191,-2.21,-2.23,-2.32,-2.60,-0.46,1.33,
3.192,-2.21,-2.23,-2.32,-2.61,-0.54,1.33,
3.198,-2.21,-2.23,-2.32,-2.63,-0.69,1.31,
3.198,0.14,-2.29,-1.98,-2.63,-0.69,1.31,
3.199,0.14,-2.29,-1.98,-2.64,-0.83,1.28,
3.199,0.14,-2.29,-1.98,-2.64,-0.96,1.24,
3.201,0.14,-2.29,-1.98,-2.65,-1.15,1.17,
3.203,0.14,-2.29,-1.98,-2.65,-1.20,1.15,
3.204,0.14,-2.29,-1.98,-2.65,-1.31,1.09,
3.206,1.71,-2.37,-2.17,-2.65,-1.31,1.09,
3.207,1.71,-2.37,-2.17,-2.65,-1.40,1.04,
3.208,1.71,-2.37,-2.17,-2.64,-1.49,0.97,
3.216,1.71,-2.37,-2.17,-2.63,-1.60,0.88,
3.216,1.71,-2.37,-2.17,-2.63,-1.63,0.85,
3.216,1.71,-2.37,-2.17,-2.63,-1.69,0.78,
3.216,2.55,-2.42,-2.47,-2.63,-1.69,0.78,
3.216,2.55,-2.42,-2.47,-2.61,-1.74,0.72,
3.218,2.55,-2.42,-2.47,-2.60,-1.79,0.65,
3.221,2.55,-2.42,-2.47,-2.59,-1.85,0.55,
3.222,2.55,-2.42,-2.47,-2.58,-1.87,0.52,
3.224,2.55,-2.42,-2.47,-2.57,-1.90,0.46,
3.226,2.75,-2.25,-2.39,-2.57,-1.90,0.46,
3.227,2.75,-2.25,-2.39,-2.55,-1.93,0.39,
3.241,2.75,-2.25,-2.39,-2.54,-1.96,0.33,
3.242,2.75,-2.25,-2.39,-2.52,-1.99,0.24,
3.242,2.75,-2.25,-2.39,-2.51,-2.00,0.21,
3.242,2.75,-2.25,-2.39,-2.49,-2.02,0.15,
3.242,2.70,-2.02,-2.17,-2.49,-2.02,0.15,
3.242,2.70,-2.02,-2.17,-2.47,-2.04,0.10,
3.242,2.70,-2.02,-2.17,-2.46,-2.05,0.05,
3.243,2.70,-2.02,-2.17,-2.42,-2.05,-0.02,
3.243,2.70,-2.02,-2.17,-2.41,-2.06,-0.04,
3.25,2.70,-2.02,-2.17,-2.39,-2.06,-0.08,
3.25,2.17,-1.74,-1.68,-2.39,-2.06,-0.08,
3.25,2.17,-1.74,-1.68,-2.36,-2.06,-0.12,
3.25,2.17,-1.74,-1.68,-2.34,-2.05,-0.15,
3.251,2.17,-1.74,-1.68,-2.30,-2.05,-0.18,
3.252,2.17,-1.74,-1.68,-2.28,-2.05,-0.20,
3.254,2.17,-1.74,-1.68,-2.26,-2.04,-0.21,
3.256,1.49,-1.47,-1.09,-2.26,-2.04,-0.21,
3.257,1.49,-1.47,-1.09,-2.23,-2.02,-0.23,
3.258,1.49,-1.47,-1.09,-2.19,-2.01,-0.24,
3.261,1.49,-1.47,-1.09,-2.14,-1.98,-0.26,
3.262,1.49,-1.47,-1.09,-2.12,-1.97,-0.26,
3.265,1.49,-1.47,-1.09,-2.08,-1.94,-0.26,
3.284,0.85,-0.97,-0.41,-2.08,-1.94,-0.26,
3.284,0.85,-0.97,-0.41,-2.05,-1.91,-0.26,
3.284,0.85,-0.97,-0.41,-2.00,-1.89,-0.25,
3.284,0.85,-0.97,-0.41,-1.94,-1.84,-0.23,
3.284,0.85,-0.97,-0.41,-1.92,-1.82,-0.22,
3.284,0.85,-0.97,-0.41,-1.87,-1.79,-0.20,
3.284,0.15,-0.46,0.11,-1.87,-1.79,-0.20,
3.284,0.15,-0.46,0.11,-1.83,-1.76,-0.18,
3.285,0.15,-0.46,0.11,-1.78,-1.73,-0.15,
3.285,0.15,-0.46,0.11,-1.72,-1.67,-0.11,
3.285,0.15,-0.46,0.11,-1.69,-1.66,-0.09,
3.289,0.15,-0.46,0.11,-1.65,-1.62,-0.06,
3.29,-0.34,0.05,0.34,-1.65,-1.62,-0.06,
3.29,-0.34,0.05,0.34,-1.61,-1.59,-0.02,
3.29,-0.34,0.05,0.34,-1.56,-1.55,0.01,
3.293,-0.34,0.05,0.34,-1.51,-1.49,0.07,
3.293,-0.34,0.05,0.34,-1.49,-1.47,0.09,
3.295,-0.34,0.05,0.34,-1.45,-1.44,0.13,
3.298,-0.71,0.65,0.34,-1.45,-1.44,0.13,
3.298,-0.71,0.65,0.34,-1.41,-1.40,0.17,
3.298,-0.71,0.65,0.34,-1.37,-1.36,0.21,
3.304,-0.71,0.65,0.34,-1.33,-1.30,0.28,
3.305,-0.71,0.65,0.34,-1.31,-1.28,0.30,
3.305,-0.71,0.65,0.34,-1.28,-1.23,0.34,
3.307,-0.92,1.17,0.23,-1.28,-1.23,0.34,
3.307,-0.92,1.17,0.23,-1.25,-1.20,0.39,
3.308,-0.92,1.17,0.23,-1.22,-1.16,0.44,
3.313,-0.92,1.17,0.23,-1.18,-1.11,0.51,
3.314,-0.92,1.17,0.23,-1.17,-1.10,0.54,
3.314,-0.92,1.17,0.23,-1.15,-1.07,0.58,
3.317,-1.02,1.60,0.14,-1.15,-1.07,0.58,
3.317,-1.02,1.60,0.14,-1.13,-1.03,0.63,
3.318,-1.02,1.60,0.14,-1.11,-1.00,0.68,
3.321,-1.02,1.60,0.14,-1.08,-0.94,0.74,
3.322,-1.02,1.60,0.14,-1.07,-0.92,0.76,
3.324,-1.02,1.60,0.14,-1.06,-0.88,0.80,
3.329,-0.84,1.62,-0.10,-1.06,-0.88,0.80,
3.33,-0.84,1.62,-0.10,-1.05,-0.84,0.84,
3.33,-0.84,1.62,-0.10,-1.04,-0.81,0.88,
3.334,-0.84,1.62,-0.10,-1.02,-0.76,0.95,
3.334,-0.84,1.62,-0.10,-1.01,-0.74,0.97,
3.334,-0.84,1.62,-0.10,-0.99,-0.72,1.01,
3.338,-0.82,1.66,0.00,-0.99,-0.72,1.01,
3.339,-0.82,1.66,0.00,-0.98,-0.69,1.04,
3.339,-0.82,1.66,0.00,-0.96,-0.67,1.08,
3.341,-0.82,1.66,0.00,-0.93,-0.64,1.14,
3.342,-0.82,1.66,0.00,-0.92,-0.63,1.15,
3.345,-0.82,1.66,0.00,-0.90,-0.60,1.18,
3.349,-0.50,1.64,0.33,-0.90,-0.60,1.18,
3.349,-0.50,1.64,0.33,-0.87,-0.58,1.21,
3.349,-0.50,1.64,0.33,-0.85,-0.56,1.24,
3.352,-0.50,1.64,0.33,-0.81,-0.52,1.27,
3.352,-0.50,1.64,0.33,-0.79,-0.51,1.27,
3.354,-0.50,1.64,0.33,-0.76,-0.47,1.29,
3.356,0.25,1.37,0.79,-0.76,-0.47,1.29,
3.357,0.25,1.37,0.79,-0.73,-0.44,1.29,
3.358,0.25,1.37,0.79,-0.70,-0.39,1.29,
3.371,0.25,1.37,0.79,-0.65,-0.32,1.29,
3.372,0.25,1.37,0.79,-0.64,-0.29,1.28,
3.372,0.25,1.37,0.79,-0.60,-0.22,1.27,
3.372,1.25,0.87,1.07,-0.60,-0.22,1.27,
3.373,1.25,0.87,1.07,-0.56,-0.16,1.25,
3.373,1.25,0.87,1.07,-0.52,-0.11,1.23,
3.373,1.25,0.87,1.07,-0.46,-0.02,1.20,
3.374,1.25,0.87,1.07,-0.44,0.01,1.19,
3.375,1.25,0.87,1.07,-0.39,0.07,1.16,
3.409,2.06,0.44,1.70,-0.39,0.07,1.16,
3.41,2.06,0.44,1.70,-0.35,0.13,1.13,
3.41,2.06,0.44,1.70,-0.30,0.19,1.10,
3.411,2.06,0.44,1.70,-0.23,0.27,1.05,
3.411,2.06,0.44,1.70,-0.21,0.30,1.03,
3.411,2.06,0.44,1.70,-0.16,0.35,1.00,
3.411,2.82,0.12,2.28,-0.16,0.35,1.00,
3.412,2.82,0.12,2.28,-0.12,0.40,0.95,
3.412,2.82,0.12,2.28,-0.08,0.45,0.91,
3.412,2.82,0.12,2.28,-0.03,0.54,0.83,
3.413,2.82,0.12,2.28,-0.02,0.57,0.81,
3.413,2.82,0.12,2.28,-0.00,0.63,0.75,
3.413,3.85,-0.15,2.49,-0.00,0.63,0.75,
3.413,3.85,-0.15,2.49,0.01,0.69,0.70,
3.414,3.85,-0.15,2.49,0.01,0.75,0.64,
3.414,3.85,-0.15,2.49,-0.01,0.82,0.55,
3.414,3.85,-0.15,2.49,-0.02,0.85,0.52,
3.415,3.85,-0.15,2.49,-0.06,0.89,0.46,
3.415,4.15,-0.04,2.29,-0.06,0.89,0.46,
3.415,4.15,-0.04,2.29,-0.10,0.94,0.40,
3.415,4.15,-0.04,2.29,-0.17,0.98,0.34,
3.416,4.15,-0.04,2.29,-0.27,1.03,0.26,
3.416,4.15,-0.04,2.29,-0.35,1.06,0.21,
3.416,4.15,-0.04,2.29,-0.39,1.08,0.19,
3.417,4.01,0.50,1.76,-0.39,1.08,0.19,
3.417,4.01,0.50,1.76,-0.47,1.10,0.14,
3.418,4.01,0.50,1.76,-0.56,1.12,0.09,
3.422,4.01,0.50,1.76,-0.68,1.14,0.03,
3.423,4.01,0.50,1.76,-0.71,1.15,0.02,
3.431,4.01,0.50,1.76,-0.92,1.12,-0.06,
3.433,4.01,0.50,1.76,-0.92,1.12,-0.06,
3.434,4.01,0.50,1.76,-0.92,1.12,-0.06,
3.435,3.17,0.98,2.15,-0.92,1.12,-0.06,
3.435,3.17,0.98,2.15,-1.03,1.05,-0.09,
3.468,3.17,0.98,2.15,-1.05,1.02,-0.09,
3.468,3.17,0.98,2.15,-1.07,0.99,-0.09,
3.469,2.70,1.02,2.67,-1.07,0.99,-0.09,
3.469,2.70,1.02,2.67,-1.11,0.93,-0.10,
3.469,2.70,1.02,2.67,-1.15,0.86,-0.10,
3.47,2.70,1.02,2.67,-1.19,0.74,-0.09,
3.47,2.70,1.02,2.67,-1.21,0.69,-0.08,
3.471,2.70,1.02,2.67,-1.22,0.60,-0.08,
3.471,2.23,0.98,3.08,-1.22,0.60,-0.08,
3.472,2.23,0.98,3.08,-1.24,0.50,-0.07,
3.472,2.23,0.98,3.08,-1.24,0.39,-0.05,
3.473,2.23,0.98,3.08,-1.25,0.23,-0.03,
3.473,2.23,0.98,3.08,-1.25,0.18,-0.02,
3.473,2.23,0.98,3.08,-1.24,0.07,-0.01,
3.474,2.19,0.74,3.29,-1.24,0.07,-0.01,
3.474,2.19,0.74,3.29,-1.24,-0.03,0.01,
3.475,2.19,0.74,3.29,-1.23,-0.14,0.02,
3.475,2.19,0.74,3.29,-1.22,-0.29,0.05,
3.475,2.19,0.74,3.29,-1.21,-0.34,0.06,
3.476,2.19,0.74,3.29,-1.21,-0.44,0.07,
3.476,2.43,0.42,2.62,-1.21,-0.44,0.07,
3.477,2.43,0.42,2.62,-1.20,-0.53,0.08,
3.477,2.43,0.42,2.62,-1.20,-0.62,0.10,
3.478,2.43,0.42,2.62,-1.19,-0.75,0.10,
3.478,2.43,0.42,2.62,-1.19,-0.79,0.11,
3.478,2.43,0.42,2.62,-1.19,-0.87,0.11,
3.479,2.90,0.04,1.66,-1.19,-0.87,0.11,
3.479,2.90,0.04,1.66,-1.19,-0.94,0.12,
3.48,2.90,0.04,1.66,-1.19,-1.01,0.12,
3.499,2.90,0.04,1.66,-1.19,-1.10,0.12,
3.499,2.90,0.04,1.66,-1.19,-1.12,0.12,
3.5,2.90,0.04,1.66,-1.20,-1.17,0.11,
3.5,3.16,-0.52,0.79,-1.20,-1.17,0.11,
3.5,3.16,-0.52,0.79,-1.20,-1.21,0.11,
3.5,3.16,-0.52,0.79,-1.21,-1.24,0.10,
3.501,3.16,-0.52,0.79,-1.22,-1.26,0.08,
3.501,3.16,-0.52,0.79,-1.23,-1.27,0.08,
3.501,3.16,-0.52,0.79,-1.24,-1.27,0.07,
3.501,3.31,-1.07,0.20,-1.24,-1.27,0.07,
3.502,3.31,-1.07,0.20,-1.24,-1.27,0.05,
3.502,3.31,-1.07,0.20,-1.25,-1.27,0.04,
3.502,3.31,-1.07,0.20,-1.27,-1.25,0.02,
3.502,3.31,-1.07,0.20,-1.27,-1.23,0.01,
3.504,3.31,-1.07,0.20,-1.29,-1.21,-0.01,
3.507,3.25,-1.55,-0.11,-1.29,-1.21,-0.01,
3.507,3.25,-1.55,-0.11,-1.29,-1.18,-0.02,
3.508,3.25,-1.55,-0.11,-1.30,-1.14,-0.03,
3.54,3.25,-1.55,-0.11,-1.32,-1.08,-0.06,
3.541,3.25,-1.55,-0.11,-1.32,-1.06,-0.06,
3.541,3.25,-1.55,-0.11,-1.34,-1.01,-0.08,
3.541,3.22,-2.03,-0.23,-1.34,-1.01,-0.08,
3.541,3.22,-2.03,-0.23,-1.35,-0.95,-0.09,
3.541,3.22,-2.03,-0.23,-1.36,-0.89,-0.11,
3.542,3.22,-2.03,-0.23,-1.39,-0.79,-0.12,
3.542,3.22,-2.03,-0.23,-1.39,-0.76,-0.13,
3.542,3.22,-2.03,-0.23,-1.41,-0.68,-0.14,
3.542,3.02,-2.52,-0.18,-1.41,-0.68,-0.14,
3.543,3.02,-2.52,-0.18,-1.42,-0.61,-0.15,
3.543,3.02,-2.52,-0.18,-1.44,-0.52,-0.16,
3.543,3.02,-2.52,-0.18,-1.47,-0.40,-0.17,
3.543,3.02,-2.52,-0.18,-1.48,-0.35,-0.17,
3.544,3.02,-2.52,-0.18,-1.50,-0.27,-0.18,
3.544,2.71,-2.97,0.01,-1.50,-0.27,-0.18,
3.544,2.71,-2.97,0.01,-1.52,-0.18,-0.18,
3.544,2.71,-2.97,0.01,-1.54,-0.09,-0.17,
3.545,2.71,-2.97,0.01,-1.57,0.03,-0.16,
3.545,2.71,-2.97,0.01,-1.58,0.07,-0.16,
3.545,2.71,-2.97,0.01,-1.60,0.16,-0.15,
3.548,2.16,-3.35,0.32,-1.60,0.16,-0.15,
3.548,2.16,-3.35,0.32,-1.62,0.24,-0.14,
3.549,2.16,-3.35,0.32,-1.64,0.31,-0.13,
3.551,2.16,-3.35,0.32,-1.67,0.42,-0.11,
3.552,2.16,-3.35,0.32,-1.67,0.46,-0.10,
3.554,2.16,-3.35,0.32,-1.70,0.52,-0.08,
3.557,1.78,-3.69,0.81,-1.70,0.52,-0.08,
3.557,1.78,-3.69,0.81,-1.71,0.59,-0.07,
3.558,1.78,-3.69,0.81,-1.73,0.64,-0.06,
3.561,1.78,-3.69,0.81,-1.76,0.73,-0.04,
3.562,1.78,-3.69,0.81,-1.77,0.75,-0.03,
3.564,1.78,-3.69,0.81,-1.79,0.80,-0.02,
3.567,1.42,-4.03,1.37,-1.79,0.80,-0.02,
3.567,1.42,-4.03,1.37,-1.81,0.84,-0.01,
3.568,1.42,-4.03,1.37,-1.83,0.87,-0.01,
3.571,1.42,-4.03,1.37,-1.86,0.92,0.00,
3.572,1.42,-4.03,1.37,-1.87,0.93,0.01,
3.575,1.42,-4.03,1.37,-1.89,0.95,0.01,
3.586,1.18,-4.32,2.16,-1.89,0.95,0.01,
3.587,1.18,-4.32,2.16,-1.90,0.97,0.02,
3.587,1.18,-4.32,2.16,-1.92,0.98,0.03,
3.587,1.18,-4.32,2.16,-1.94,0.99,0.04,
3.587,1.18,-4.32,2.16,-1.95,1.00,0.04,
3.588,1.18,-4.32,2.16,-1.95,0.99,0.05,
3.588,0.84,-4.53,3.25,-1.95,0.99,0.05,
3.588,0.84,-4.53,3.25,-1.95,0.98,0.05,
3.588,0.84,-4.53,3.25,-1.95,0.96,0.06,
3.592,0.84,-4.53,3.25,-1.92,0.92,0.07,
3.602,0.84,-4.53,3.25,-1.91,0.91,0.07,
3.603,0.84,-4.53,3.25,-1.88,0.87,0.07,
3.604,0.52,-4.62,5.01,-1.88,0.87,0.07,
3.605,0.52,-4.62,5.01,-1.83,0.84,0.07,
3.632,0.52,-4.62,5.01,-1.78,0.80,0.08,
3.632,0.52,-4.62,5.01,-1.67,0.74,0.09,
3.633,0.52,-4.62,5.01,-1.63,0.72,0.10,
3.633,0.52,-4.62,5.01,-1.54,0.69,0.10,
3.633,0.18,-4.70,6.86,-1.54,0.69,0.10,
3.633,0.18,-4.70,6.86,-1.44,0.66,0.12,
3.633,0.18,-4.70,6.86,-1.32,0.63,0.13,
3.634,0.18,-4.70,6.86,-1.11,0.60,0.16,
3.634,0.18,-4.70,6.86,-1.03,0.60,0.17,
3.634,0.18,-4.70,6.86,-0.87,0.59,0.19,
3.634,-0.30,-4.90,8.95,-0.87,0.59,0.19,
3.635,-0.30,-4.90,8.95,-0.70,0.59,0.22,
3.635,-0.30,-4.90,8.95,-0.50,0.60,0.25,
3.635,-0.30,-4.90,8.95,-0.21,0.62,0.30,
3.635,-0.30,-4.90,8.95,-0.10,0.63,0.32,
3.635,-0.30,-4.90,8.95,0.11,0.67,0.35,
3.636,-0.94,-4.66,10.43,0.11,0.67,0.35,
3.636,-0.94,-4.66,10.43,0.32,0.71,0.39,
3.636,-0.94,-4.66,10.43,0.54,0.77,0.42,
3.636,-0.94,-4.66,10.43,0.87,0.86,0.47,
3.636,-0.94,-4.66,10.43,0.98,0.89,0.48,
3.637,-0.94,-4.66,10.43,1.19,0.97,0.52,
3.637,-1.25,-4.34,11.24,1.19,0.97,0.52,
3.637,-1.25,-4.34,11.24,1.40,1.04,0.54,
3.643,-1.25,-4.34,11.24,1.60,1.12,0.56,
3.643,-1.25,-4.34,11.24,1.90,1.24,0.59,
3.643,-1.25,-4.34,11.24,2.00,1.29,0.60,
3.651,-1.25,-4.34,11.24,2.20,1.38,0.61,
3.651,-1.01,-4.55,11.20,2.20,1.38,0.61,
3.652,-1.01,-4.55,11.20,2.39,1.47,0.62,
3.652,-1.01,-4.55,11.20,2.57,1.56,0.63,
3.652,-1.01,-4.55,11.20,2.84,1.72,0.64,
3.652,-1.01,-4.55,11.20,2.93,1.78,0.64,
3.654,-1.01,-4.55,11.20,3.10,1.89,0.64,
3.659,-0.77,-5.44,11.89,3.10,1.89,0.64,
3.66,-0.77,-5.44,11.89,3.27,2.01,0.65,
3.66,-0.77,-5.44,11.89,3.44,2.14,0.65,
3.696,-0.77,-5.44,11.89,3.69,2.36,0.65,
3.697,-0.77,-5.44,11.89,3.77,2.43,0.65,
3.697,-0.77,-5.44,11.89,3.92,2.58,0.66,
3.698,-0.85,-6.71,12.90,3.92,2.58,0.66,
3.698,-0.85,-6.71,12.90,4.06,2.74,0.66,
3.698,-0.85,-6.71,12.90,4.20,2.89,0.67,
3.699,-0.85,-6.71,12.90,4.37,3.12,0.70,
3.699,-0.85,-6.71,12.90,4.42,3.19,0.71,
3.699,-0.85,-6.71,12.90,4.52,3.32,0.74,
3.7,-1.40,-7.55,13.00,4.52,3.32,0.74,
3.7,-1.40,-7.55,13.00,4.60,3.44,0.78,
3.7,-1.40,-7.55,13.00,4.66,3.53,0.82,
3.7,-1.40,-7.55,13.00,4.74,3.61,0.91,
3.701,-1.40,-7.55,13.00,4.75,3.62,0.94,
3.701,-1.40,-7.55,13.00,4.77,3.62,1.00,
3.701,-2.31,-7.33,10.67,4.77,3.62,1.00,
3.702,-2.31,-7.33,10.67,4.77,3.58,1.08,
3.702,-2.31,-7.33,10.67,4.76,3.51,1.16,
3.702,-2.31,-7.33,10.67,4.70,3.35,1.29,
3.703,-2.31,-7.33,10.67,4.67,3.28,1.33,
3.703,-2.31,-7.33,10.67,4.60,3.12,1.41,
3.703,-3.46,-6.28,6.14,4.60,3.12,1.41,
3.704,-3.46,-6.28,6.14,4.51,2.94,1.49,
3.704,-3.46,-6.28,6.14,4.42,2.73,1.55,
3.704,-3.46,-6.28,6.14,4.25,2.38,1.62,
3.705,-3.46,-6.28,6.14,4.20,2.25,1.63,
3.711,-3.46,-6.28,6.14,4.08,1.98,1.63,
3.711,-2.21,-5.43,1.31,4.08,1.98,1.63,
3.712,-2.21,-5.43,1.31,3.97,1.69,1.62,
3.712,-2.21,-5.43,1.31,3.85,1.38,1.59,
3.717,-2.21,-5.43,1.31,3.69,0.92,1.52,
3.718,-2.21,-5.43,1.31,3.64,0.77,1.49,
3.718,-2.21,-5.43,1.31,3.53,0.47,1.42,
3.718,0.62,-5.19,-3.26,3.53,0.47,1.42,
3.718,0.62,-5.19,-3.26,3.43,0.18,1.34,
3.719,0.62,-5.19,-3.26,3.33,-0.09,1.25,
3.721,0.62,-5.19,-3.26,3.17,-0.45,1.11,
3.722,0.62,-5.19,-3.26,3.12,-0.56,1.07,
3.727,0.62,-5.19,-3.26,3.00,-0.77,0.98,
3.73,2.63,-4.83,-8.23,3.00,-0.77,0.98,
3.731,2.63,-4.83,-8.23,2.88,-0.95,0.88,
3.731,2.63,-4.83,-8.23,2.76,-1.12,0.79,
3.732,2.63,-4.83,-8.23,2.57,-1.37,0.63,
3.737,2.63,-4.83,-8.23,2.51,-1.45,0.58,
3.738,2.63,-4.83,-8.23,2.40,-1.62,0.47,
3.741,4.44,-4.92,-13.11,2.40,-1.62,0.47,
3.742,4.44,-4.92,-13.11,2.30,-1.79,0.37,
3.742,4.44,-4.92,-13.11,2.20,-1.96,0.27,
3.742,4.44,-4.92,-13.11,2.08,-2.23,0.12,
3.755,4.44,-4.92,-13.11,2.05,-2.33,0.07,
3.756,4.44,-4.92,-13.11,1.99,-2.53,-0.02,
3.756,4.58,-5.22,-13.63,1.99,-2.53,-0.02,
3.756,4.58,-5.22,-13.63,1.94,-2.74,-0.10,
3.757,4.58,-5.22,-13.63,1.88,-2.94,-0.17,
3.757,4.58,-5.22,-13.63,1.82,-3.26,-0.28,
3.757,4.58,-5.22,-13.63,1.80,-3.37,-0.32,
3.757,4.58,-5.22,-13.63,1.76,-3.58,-0.39,
3.758,4.13,-5.47,-13.73,1.76,-3.58,-0.39,
3.758,4.13,-5.47,-13.73,1.72,-3.80,-0.46,
3.761,4.13,-5.47,-13.73,1.68,-4.00,-0.53,
3.762,4.13,-5.47,-13.73,1.59,-4.29,-0.64,
3.796,4.13,-5.47,-13.73,1.49,-4.50,-0.74,
3.797,4.13,-5.47,-13.73,1.45,-4.55,-0.77,
3.812,3.85,-5.06,-14.62,1.45,-4.55,-0.77,
3.813,3.85,-5.06,-14.62,1.41,-4.59,-0.80,
3.813,3.85,-5.06,-14.62,1.32,-4.63,-0.85,
3.813,3.85,-5.06,-14.62,1.16,-4.60,-0.91,
3.813,3.85,-5.06,-14.62,1.10,-4.57,-0.92,
3.813,3.85,-5.06,-14.62,0.99,-4.45,-0.95,
3.814,2.87,-4.55,-16.39,0.99,-4.45,-0.95,
3.814,2.87,-4.55,-16.39,0.89,-4.29,-0.97,
3.814,2.87,-4.55,-16.39,0.80,-4.09,-0.99,
3.814,2.87,-4.55,-16.39,0.67,-3.73,-1.02,
3.816,2.87,-4.55,-16.39,0.64,-3.60,-1.03,
3.817,2.87,-4.55,-16.39,0.59,-3.33,-1.04,
3.817,1.66,-3.32,-15.29,0.59,-3.33,-1.04,
3.817,1.66,-3.32,-15.29,0.55,-3.04,-1.04,
3.817,1.66,-3.32,-15.29,0.53,-2.75,-1.03,
3.818,1.66,-3.32,-15.29,0.52,-2.33,-1.00,
3.818,1.66,-3.32,-15.29,0.53,-2.19,-0.98,
3.818,1.66,-3.32,-15.29,0.54,-1.94,-0.96,
3.818,0.11,-2.00,-12.12,0.54,-1.94,-0.96,
3.818,0.11,-2.00,-12.12,0.57,-1.70,-0.93,
3.818,0.11,-2.00,-12.12,0.60,-1.47,-0.90,
3.818,0.11,-2.00,-12.12,0.70,-1.12,-0.87,
3.819,0.11,-2.00,-12.12,0.82,-0.96,-0.87,
3.819,0.11,-2.00,-12.12,1.33,-0.45,-0.92,
3.819,1.43,-1.87,1.81,1.33,-0.45,-0.92,
3.819,1.43,-1.87,1.81,2.09,0.24,-1.04,
3.819,1.43,-1.87,1.81,2.93,0.98,-1.18,
3.819,1.43,-1.87,1.81,4.11,2.04,-1.38,
3.819,1.43,-1.87,1.81,4.46,2.37,-1.44,
3.819,1.43,-1.87,1.81,5.10,2.99,-1.55,
3.82,5.67,-5.87,17.02,5.10,2.99,-1.55,
3.82,5.67,-5.87,17.02,5.64,3.55,-1.62,
3.82,5.67,-5.87,17.02,6.09,4.05,-1.66,
3.825,5.67,-5.87,17.02,6.59,4.68,-1.66,
3.826,5.67,-5.87,17.02,6.71,4.86,-1.66,
3.826,5.67,-5.87,17.02,6.91,5.19,-1.63,
3.826,3.44,-8.75,5.24,6.91,5.19,-1.63,
3.827,3.44,-8.75,5.24,7.05,5.45,-1.60,
3.83,3.44,-8.75,5.24,7.15,5.63,-1.56,
3.833,3.44,-8.75,5.24,7.25,5.77,-1.49,
3.833,3.44,-8.75,5.24,7.27,5.79,-1.47,
3.834,3.44,-8.75,5.24,7.28,5.77,-1.42,
3.839,2.76,-9.52,0.08,7.28,5.77,-1.42,
3.839,2.76,-9.52,0.08,7.25,5.67,-1.38,
3.839,2.76,-9.52,0.08,7.12,5.46,-1.35,
3.847,2.76,-9.52,0.08,6.71,5.01,-1.30,
3.847,2.76,-9.52,0.08,6.53,4.82,-1.29,
3.847,2.76,-9.52,0.08,6.12,4.38,-1.28,
3.851,3.36,-8.28,-1.44,6.12,4.38,-1.28,
3.851,3.36,-8.28,-1.44,5.67,3.88,-1.27,
3.852,3.36,-8.28,-1.44,5.18,3.36,-1.28,
3.852,3.36,-8.28,-1.44,4.43,2.61,-1.31,
3.852,3.36,-8.28,-1.44,4.19,2.40,-1.32,
3.856,3.36,-8.28,-1.44,3.74,2.03,-1.35,
3.856,2.68,-5.50,-5.60,3.74,2.03,-1.35,
3.856,2.68,-5.50,-5.60,3.32,1.75,-1.37,
3.859,2.68,-5.50,-5.60,2.97,1.57,-1.38,
3.866,2.68,-5.50,-5.60,2.53,1.46,-1.38,
3.867,2.68,-5.50,-5.60,2.42,1.46,-1.37,
3.867,2.68,-5.50,-5.60,2.23,1.52,-1.35,
3.867,0.10,-2.94,-5.88,2.23,1.52,-1.35,
3.867,0.10,-2.94,-5.88,2.10,1.64,-1.30,
3.87,0.10,-2.94,-5.88,2.01,1.78,-1.25,
3.873,0.10,-2.94,-5.88,1.96,2.01,-1.15,
3.873,0.10,-2.94,-5.88,1.96,2.09,-1.11,
3.896,0.10,-2.94,-5.88,1.99,2.25,-1.04,
3.897,-2.53,-1.56,-5.82,1.99,2.25,-1.04,
3.897,-2.53,-1.56,-5.82,2.04,2.39,-0.95,
3.897,-2.53,-1.56,-5.82,2.11,2.53,-0.87,
3.897,-2.53,-1.56,-5.82,2.24,2.70,-0.74,
3.897,-2.53,-1.56,-5.82,2.30,2.75,-0.70,
3.897,-2.53,-1.56,-5.82,2.41,2.85,-0.62,
3.897,-3.44,0.09,-6.54,2.41,2.85,-0.62,
3.898,-3.44,0.09,-6.54,2.53,2.92,-0.54,
3.898,-3.44,0.09,-6.54,2.64,2.98,-0.46,
3.898,-3.44,0.09,-6.54,2.82,3.05,-0.36,
3.898,-3.44,0.09,-6.54,2.87,3.08,-0.32,
3.898,-3.44,0.09,-6.54,2.98,3.12,-0.25,
3.898,-3.49,1.98,-8.10,2.98,3.12,-0.25,
3.899,-3.49,1.98,-8.10,3.09,3.16,-0.18,
3.899,-3.49,1.98,-8.10,3.19,3.19,-0.12,
3.903,-3.49,1.98,-8.10,3.32,3.22,-0.02,
3.903,-3.49,1.98,-8.10,3.35,3.22,0.01,
3.904,-3.49,1.98,-8.10,3.42,3.20,0.07,
3.906,-3.27,4.20,-9.57,3.42,3.20,0.07,
3.907,-3.27,4.20,-9.57,3.47,3.17,0.12,
3.908,-3.27,4.20,-9.57,3.50,3.12,0.17,
3.912,-3.27,4.20,-9.57,3.55,3.06,0.24,
3.912,-3.27,4.20,-9.57,3.56,3.04,0.25,
3.914,-3.27,4.20,-9.57,3.57,3.02,0.29,
3.916,-3.34,6.27,-10.37,3.57,3.02,0.29,
3.917,-3.34,6.27,-10.37,3.59,3.03,0.31,
3.918,-3.34,6.27,-10.37,3.60,3.05,0.33,
3.921,-3.34,6.27,-10.37,3.60,3.12,0.36,
3.922,-3.34,6.27,-10.37,3.59,3.15,0.36,
3.925,-3.34,6.27,-10.37,3.58,3.20,0.37,
3.927,-2.77,7.69,-9.78,3.58,3.20,0.37,
3.928,-2.77,7.69,-9.78,3.56,3.27,0.39,
3.928,-2.77,7.69,-9.78,3.53,3.32,0.40,
3.931,-2.77,7.69,-9.78,3.47,3.38,0.42,
3.956,-2.77,7.69,-9.78,3.44,3.40,0.42,
3.956,-2.77,7.69,-9.78,3.38,3.44,0.43,
3.957,-2.39,8.80,-9.54,3.38,3.44,0.43,
3.957,-2.39,8.80,-9.54,3.29,3.46,0.43,
3.958,-2.39,8.80,-9.54,3.20,3.48,0.43,
3.958,-2.39,8.80,-9.54,3.03,3.49,0.42,
3.958,-2.39,8.80,-9.54,2.96,3.49,0.41,
3.958,-2.39,8.80,-9.54,2.83,3.48,0.40,
3.959,-1.05,9.57,-10.03,2.83,3.48,0.40,
3.959,-1.05,9.57,-10.03,2.69,3.45,0.38,
3.959,-1.05,9.57,-10.03,2.54,3.41,0.37,
3.96,-1.05,9.57,-10.03,2.29,3.29,0.36,
3.96,-1.05,9.57,-10.03,2.21,3.24,0.35,
3.96,-1.05,9.57,-10.03,2.04,3.12,0.36,
3.961,-0.10,10.57,-9.60,2.04,3.12,0.36,
3.961,-0.10,10.57,-9.60,1.86,2.97,0.36,
3.961,-0.10,10.57,-9.60,1.70,2.81,0.37,
3.962,-0.10,10.57,-9.60,1.46,2.53,0.40,
3.967,-0.10,10.57,-9.60,1.38,2.43,0.42,
3.968,-0.10,10.57,-9.60,1.23,2.23,0.45,
3.968,0.67,10.90,-8.01,1.23,2.23,0.45,
3.968,0.67,10.90,-8.01,1.09,2.03,0.48,
3.969,0.67,10.90,-8.01,0.95,1.80,0.52,
3.971,0.67,10.90,-8.01,0.76,1.47,0.57,
3.974,0.67,10.90,-8.01,0.70,1.36,0.59,
3.975,0.67,10.90,-8.01,0.59,1.13,0.62,
3.978,1.40,10.46,-6.50,0.59,1.13,0.62,
3.979,1.40,10.46,-6.50,0.49,0.91,0.64,
3.979,1.40,10.46,-6.50,0.39,0.70,0.65,
3.982,1.40,10.46,-6.50,0.26,0.41,0.65,
3.983,1.40,10.46,-6.50,0.22,0.32,0.65,
3.984,1.40,10.46,-6.50,0.14,0.15,0.64,
3.986,1.96,8.29,-6.04,0.14,0.15,0.64,
3.987,1.96,8.29,-6.04,0.07,0.00,0.63,
3.988,1.96,8.29,-6.04,-0.00,-0.12,0.61,
3.997,1.96,8.29,-6.04,-0.11,-0.25,0.59,
3.998,1.96,8.29,-6.04,-0.14,-0.28,0.58,
4.001,1.96,8.29,-6.04,-0.22,-0.33,0.55,
4.001,1.72,6.09,-6.24,-0.22,-0.33,0.55,
4.002,1.72,6.09,-6.24,-0.28,-0.35,0.54,
4.002,1.72,6.09,-6.24,-0.35,-0.36,0.52,
4.002,1.72,6.09,-6.24,-0.45,-0.35,0.48,
4.002,1.72,6.09,-6.24,-0.48,-0.34,0.47,
4.004,1.72,6.09,-6.24,-0.54,-0.32,0.45,
4.033,1.39,4.79,-6.53,-0.54,-0.32,0.45,
4.034,1.39,4.79,-6.53,-0.61,-0.28,0.42,
4.034,1.39,4.79,-6.53,-0.67,-0.24,0.38,
4.035,1.39,4.79,-6.53,-0.77,-0.18,0.32,
4.035,1.39,4.79,-6.53,-0.80,-0.17,0.29,
4.035,1.39,4.79,-6.53,-0.85,-0.14,0.24,
4.035,1.42,4.39,-6.07,-0.85,-0.14,0.24,
4.035,1.42,4.39,-6.07,-0.91,-0.13,0.19,
4.036,1.42,4.39,-6.07,-0.97,-0.13,0.13,
4.036,1.42,4.39,-6.07,-1.06,-0.15,0.04,
4.036,1.42,4.39,-6.07,-1.09,-0.16,0.00,
4.036,1.42,4.39,-6.07,-1.15,-0.18,-0.06,
4.036,1.69,4.63,-5.10,-1.15,-0.18,-0.06,
4.037,1.69,4.63,-5.10,-1.21,-0.21,-0.13,
4.037,1.69,4.63,-5.10,-1.27,-0.24,-0.20,
4.037,1.69,4.63,-5.10,-1.36,-0.29,-0.30,
4.037,1.69,4.63,-5.10,-1.39,-0.30,-0.33,
4.037,1.69,4.63,-5.10,-1.45,-0.33,-0.40,
4.038,2.17,5.34,-3.99,-1.45,-0.33,-0.40,
4.038,2.17,5.34,-3.99,-1.51,-0.35,-0.47,
4.038,2.17,5.34,-3.99,-1.57,-0.37,-0.54,
4.053,2.17,5.34,-3.99,-1.67,-0.39,-0.64,
4.055,2.17,5.34,-3.99,-1.70,-0.39,-0.68,
4.058,2.17,5.34,-3.99,-1.77,-0.39,-0.74,
4.059,2.77,5.67,-3.35,-1.77,-0.39,-0.74,
4.059,2.77,5.67,-3.35,-1.85,-0.39,-0.81,
4.064,2.77,5.67,-3.35,-1.93,-0.40,-0.87,
4.065,2.77,5.67,-3.35,-2.05,-0.40,-0.95,
4.065,2.77,5.67,-3.35,-2.09,-0.40,-0.97,
4.065,2.77,5.67,-3.35,-2.17,-0.41,-1.01,
4.066,2.95,5.67,-3.30,-2.17,-0.41,-1.01,
4.066,2.95,5.67,-3.30,-2.25,-0.41,-1.04,
4.067,2.95,5.67,-3.30,-2.32,-0.42,-1.06,
4.068,2.95,5.67,-3.30,-2.40,-0.43,-1.07,
4.068,2.95,5.67,-3.30,-2.41,-0.43,-1.07,
4.068,2.95,5.67,-3.30,-2.42,-0.44,-1.06,
4.069,1.71,5.38,-1.29,-2.42,-0.44,-1.06,
4.069,1.71,5.38,-1.29,-2.38,-0.46,-1.04,
4.069,1.71,5.38,-1.29,-2.30,-0.48,-1.00,
4.074,1.71,5.38,-1.29,-2.07,-0.55,-0.93,
4.074,1.71,5.38,-1.29,-1.97,-0.57,-0.89,
4.077,1.71,5.38,-1.29,-1.70,-0.64,-0.82,
4.078,-1.25,5.08,10.94,-1.70,-0.64,-0.82,
4.079,-1.25,5.08,10.94,-1.36,-0.71,-0.74,
4.08,-1.25,5.08,10.94,-0.94,-0.80,-0.65,
4.081,-1.25,5.08,10.94,-0.24,-0.93,-0.53,
4.083,-1.25,5.08,10.94,-0.01,-0.97,-0.50,
4.084,-1.25,5.08,10.94,0.41,-1.02,-0.48,
4.087,-2.31,2.14,28.95,0.41,-1.02,-0.48,
4.088,-2.31,2.14,28.95,0.73,-1.01,-0.49,
4.089,-2.31,2.14,28.95,0.92,-0.90,-0.51,
4.092,-2.31,2.14,28.95,0.94,-0.51,-0.55,
4.094,-2.31,2.14,28.95,0.87,-0.32,-0.54,
4.096,-2.31,2.14,28.95,0.66,0.12,-0.52,
4.097,-0.24,-5.29,21.15,0.66,0.12,-0.52,
4.097,-0.24,-5.29,21.15,0.34,0.63,-0.46,
4.124,-0.24,-5.29,21.15,-0.08,1.16,-0.36,
4.125,-0.24,-5.29,21.15,-0.86,1.90,-0.19,
4.125,-0.24,-5.29,21.15,-1.15,2.09,-0.14,
4.126,-0.24,-5.29,21.15,-1.76,2.37,-0.03,
4.126,-0.77,-8.94,-0.66,-1.76,2.37,-0.03,
4.127,-0.77,-8.94,-0.66,-2.36,2.49,0.06,
4.127,-0.77,-8.94,-0.66,-2.91,2.44,0.14,
4.128,-0.77,-8.94,-0.66,-3.58,2.14,0.19,
4.128,-0.77,-8.94,-0.66,-4.02,1.61,0.19,
4.129,-0.77,-8.94,-0.66,-4.10,1.40,0.17,
4.129,3.01,-9.88,-10.06,-4.10,1.40,0.17,
4.129,3.01,-9.88,-10.06,-4.16,1.17,0.15,
4.13,3.01,-9.88,-10.06,-4.20,0.69,0.10,
4.13,3.01,-9.88,-10.06,-4.04,-0.10,-0.02,
4.131,3.01,-9.88,-10.06,-3.95,-0.37,-0.06,
4.131,3.01,-9.88,-10.06,-3.70,-0.91,-0.15,
4.132,5.68,-9.53,-3.79,-3.70,-0.91,-0.15,
4.132,5.68,-9.53,-3.79,-3.42,-1.41,-0.25,
4.133,5.68,-9.53,-3.79,-3.13,-1.85,-0.35,
4.133,5.68,-9.53,-3.79,-2.75,-2.34,-0.50,
4.133,5.68,-9.53,-3.79,-2.64,-2.45,-0.54,
4.134,5.68,-9.53,-3.79,-2.46,-2.63,-0.63,
4.153,6.82,-9.06,-4.43,-2.46,-2.63,-0.63,
4.153,6.82,-9.06,-4.43,-2.31,-2.73,-0.71,
4.154,6.82,-9.06,-4.43,-2.20,-2.78,-0.80,
4.154,6.82,-9.06,-4.43,-2.08,-2.78,-0.92,
4.154,6.82,-9.06,-4.43,-2.05,-2.77,-0.95,
4.154,6.82,-9.06,-4.43,-2.01,-2.73,-1.03,
4.155,5.38,-7.21,-7.18,-2.01,-2.73,-1.03,
4.155,5.38,-7.21,-7.18,-1.99,-2.67,-1.09,
4.155,5.38,-7.21,-7.18,-1.97,-2.60,-1.15,
4.155,5.38,-7.21,-7.18,-1.97,-2.48,-1.24,
4.156,5.38,-7.21,-7.18,-1.97,-2.44,-1.26,
4.156,5.38,-7.21,-7.18,-1.96,-2.35,-1.31,
4.192,3.21,-4.84,-5.44,-1.96,-2.35,-1.31,
4.192,3.21,-4.84,-5.44,-1.96,-2.24,-1.36,
4.193,3.21,-4.84,-5.44,-1.96,-2.13,-1.39,
4.193,3.21,-4.84,-5.44,-1.96,-1.93,-1.45,
4.193,3.21,-4.84,-5.44,-1.97,-1.86,-1.46,
4.193,3.21,-4.84,-5.44,-1.99,-1.71,-1.50,
4.193,1.89,-2.46,-2.62,-1.99,-1.71,-1.50,
4.194,1.89,-2.46,-2.62,-2.02,-1.55,-1.52,
4.194,1.89,-2.46,-2.62,-2.05,-1.40,-1.54,
4.194,1.89,-2.46,-2.62,-2.12,-1.19,-1.56,
4.194,1.89,-2.46,-2.62,-2.14,-1.13,-1.57,
4.195,1.89,-2.46,-2.62,-2.18,-1.01,-1.57,
4.195,1.51,-0.49,-2.32,-2.18,-1.01,-1.57,
4.195,1.51,-0.49,-2.32,-2.23,-0.89,-1.56,
4.195,1.51,-0.49,-2.32,-2.27,-0.79,-1.56,
4.196,1.51,-0.49,-2.32,-2.32,-0.66,-1.53,
4.196,1.51,-0.49,-2.32,-2.34,-0.61,-1.51,
4.196,1.51,-0.49,-2.32,-2.36,-0.53,-1.47,
4.196,1.02,0.94,-1.78,-2.36,-0.53,-1.47,
4.197,1.02,0.94,-1.78,-2.37,-0.45,-1.43,
4.197,1.02,0.94,-1.78,-2.38,-0.38,-1.37,
4.197,1.02,0.94,-1.78,-2.38,-0.28,-1.26,
4.201,1.02,0.94,-1.78,-2.38,-0.26,-1.22,
4.201,1.02,0.94,-1.78,-2.36,-0.22,-1.13,
4.202,-0.17,1.23,-1.54,-2.36,-0.22,-1.13,
4.202,-0.17,1.23,-1.54,-2.35,-0.18,-1.03,
4.202,-0.17,1.23,-1.54,-2.33,-0.17,-0.92,
4.203,-0.17,1.23,-1.54,-2.31,-0.18,-0.73,
4.203,-0.17,1.23,-1.54,-2.30,-0.19,-0.66,
4.204,-0.17,1.23,-1.54,-2.28,-0.23,-0.52,
4.208,-1.60,0.88,-2.00,-2.28,-0.23,-0.52,
4.208,-1.60,0.88,-2.00,-2.27,-0.28,-0.37,
4.208,-1.60,0.88,-2.00,-2.26,-0.34,-0.22,
4.211,-1.60,0.88,-2.00,-2.24,-0.44,0.01,
4.213,-1.60,0.88,-2.00,-2.23,-0.48,0.08,
4.214,-1.60,0.88,-2.00,-2.23,-0.56,0.23,
4.217,-2.91,0.42,-2.59,-2.23,-0.56,0.23,
4.217,-2.91,0.42,-2.59,-2.21,-0.63,0.37,
4.218,-2.91,0.42,-2.59,-2.20,-0.71,0.50,
4.221,-2.91,0.42,-2.59,-2.19,-0.83,0.68,
4.222,-2.91,0.42,-2.59,-2.18,-0.87,0.73,
4.224,-2.91,0.42,-2.59,-2.17,-0.95,0.83,
4.228,-2.49,0.04,-2.63,-2.17,-0.95,0.83,
4.229,-2.49,0.04,-2.63,-2.17,-1.04,0.92,
4.232,-2.49,0.04,-2.63,-2.16,-1.12,1.00,
4.232,-2.49,0.04,-2.63,-2.16,-1.24,1.09,
4.233,-2.49,0.04,-2.63,-2.16,-1.28,1.12,
4.234,-2.49,0.04,-2.63,-2.17,-1.36,1.17,
4.238,-1.53,-0.46,-3.09,-2.17,-1.36,1.17,
4.238,-1.53,-0.46,-3.09,-2.18,-1.42,1.22,
4.24,-1.53,-0.46,-3.09,-2.19,-1.49,1.27,
4.242,-1.53,-0.46,-3.09,-2.22,-1.57,1.32,
4.243,-1.53,-0.46,-3.09,-2.23,-1.60,1.34,
4.245,-1.53,-0.46,-3.09,-2.24,-1.64,1.37,
4.247,-0.86,-1.13,-3.35,-2.24,-1.64,1.37,
4.247,-0.86,-1.13,-3.35,-2.25,-1.68,1.39,
4.248,-0.86,-1.13,-3.35,-2.27,-1.71,1.40,
4.252,-0.86,-1.13,-3.35,-2.29,-1.74,1.42,
4.252,-0.86,-1.13,-3.35,-2.29,-1.74,1.42,
4.254,-0.86,-1.13,-3.35,-2.30,-1.75,1.42,
4.257,-0.28,-2.19,-3.14,-2.30,-1.75,1.42,
4.258,-0.28,-2.19,-3.14,-2.31,-1.75,1.42,
4.259,-0.28,-2.19,-3.14,-2.32,-1.74,1.42,
4.262,-0.28,-2.19,-3.14,-2.33,-1.73,1.40,
4.263,-0.28,-2.19,-3.14,-2.33,-1.72,1.39,
4.265,-0.28,-2.19,-3.14,-2.33,-1.69,1.38,
4.291,0.07,-3.11,-2.39,-2.33,-1.69,1.38,
4.291,0.07,-3.11,-2.39,-2.33,-1.66,1.36,
4.291,0.07,-3.11,-2.39,-2.34,-1.61,1.34,
4.292,0.07,-3.11,-2.39,-2.34,-1.52,1.30,
4.292,0.07,-3.11,-2.39,-2.34,-1.49,1.28,
4.292,0.07,-3.11,-2.39,-2.35,-1.42,1.24,
4.292,0.44,-3.88,-1.83,-2.35,-1.42,1.24,
4.292,0.44,-3.88,-1.83,-2.36,-1.34,1.20,
4.292,0.44,-3.88,-1.83,-2.37,-1.26,1.16,
4.293,0.44,-3.88,-1.83,-2.38,-1.12,1.09,
4.293,0.44,-3.88,-1.83,-2.38,-1.08,1.07,
4.293,0.44,-3.88,-1.83,-2.38,-0.99,1.02,
4.293,0.61,-4.52,-0.82,-2.38,-0.99,1.02,
4.293,0.61,-4.52,-0.82,-2.38,-0.90,0.97,
4.293,0.61,-4.52,-0.82,-2.37,-0.81,0.91,
4.293,0.61,-4.52,-0.82,-2.36,-0.67,0.83,
4.294,0.61,-4.52,-0.82,-2.36,-0.63,0.80,
4.303,0.61,-4.52,-0.82,-2.35,-0.54,0.75,
4.303,0.64,-4.34,0.32,-2.35,-0.54,0.75,
4.303,0.64,-4.34,0.32,-2.34,-0.46,0.70,
4.304,0.64,-4.34,0.32,-2.33,-0.38,0.64,
4.304,0.64,-4.34,0.32,-2.32,-0.27,0.56,
4.304,0.64,-4.34,0.32,-2.32,-0.24,0.54,
4.304,0.64,-4.34,0.32,-2.32,-0.17,0.49,
4.345,0.62,-3.60,0.61,-2.32,-0.17,0.49,
4.346,0.62,-3.60,0.61,-2.32,-0.11,0.44,
4.346,0.62,-3.60,0.61,-2.32,-0.06,0.40,
4.346,0.62,-3.60,0.61,-2.32,-0.01,0.33,
4.347,0.62,-3.60,0.61,-2.33,0.00,0.31,
4.347,0.62,-3.60,0.61,-2.33,0.02,0.26,
4.347,0.71,-2.64,0.04,-2.33,0.02,0.26,
4.347,0.71,-2.64,0.04,-2.34,0.03,0.22,
4.348,0.71,-2.64,0.04,-2.35,0.02,0.18,
4.348,0.71,-2.64,0.04,-2.37,0.01,0.13,
4.348,0.71,-2.64,0.04,-2.37,0.00,0.11,
4.349,0.71,-2.64,0.04,-2.38,-0.01,0.08,
4.349,0.68,-1.74,-0.42,-2.38,-0.01,0.08,
4.349,0.68,-1.74,-0.42,-2.39,-0.03,0.06,
4.349,0.68,-1.74,-0.42,-2.41,-0.05,0.03,
4.35,0.68,-1.74,-0.42,-2.43,-0.07,-0.01,
4.35,0.68,-1.74,-0.42,-2.43,-0.08,-0.02,
4.35,0.68,-1.74,-0.42,-2.44,-0.10,-0.04,
4.351,0.54,-0.99,-0.72,-2.44,-0.10,-0.04,
4.351,0.54,-0.99,-0.72,-2.46,-0.11,-0.06,
4.351,0.54,-0.99,-0.72,-2.47,-0.12,-0.07,
4.352,0.54,-0.99,-0.72,-2.49,-0.14,-0.09,
4.352,0.54,-0.99,-0.72,-2.50,-0.15,-0.10,
4.352,0.54,-0.99,-0.72,-2.51,-0.15,-0.11,
4.352,0.40,-0.53,-0.75,-2.51,-0.15,-0.11,
4.353,0.40,-0.53,-0.75,-2.52,-0.16,-0.12,
4.353,0.40,-0.53,-0.75,-2.54,-0.16,-0.13,
4.353,0.40,-0.53,-0.75,-2.55,-0.15,-0.15,
4.353,0.40,-0.53,-0.75,-2.55,-0.15,-0.15,
4.355,0.40,-0.53,-0.75,-2.56,-0.14,-0.16,
4.357,0.55,-0.23,-0.72,-2.56,-0.14,-0.16,
4.358,0.55,-0.23,-0.72,-2.57,-0.14,-0.17,
4.359,0.55,-0.23,-0.72,-2.58,-0.13,-0.18,
4.364,0.55,-0.23,-0.72,-2.58,-0.11,-0.20,
4.364,0.55,-0.23,-0.72,-2.58,-0.11,-0.20,
4.364,0.55,-0.23,-0.72,-2.58,-0.10,-0.21,
4.367,0.66,0.01,-0.59,-2.58,-0.10,-0.21,
4.367,0.66,0.01,-0.59,-2.58,-0.08,-0.22,
4.368,0.66,0.01,-0.59,-2.57,-0.07,-0.23,
4.372,0.66,0.01,-0.59,-2.56,-0.04,-0.25,
4.374,0.66,0.01,-0.59,-2.55,-0.03,-0.25,
4.375,0.66,0.01,-0.59,-2.54,-0.01,-0.26,
4.378,0.85,0.19,-0.47,-2.54,-0.01,-0.26,
4.378,0.85,0.19,-0.47,-2.52,0.02,-0.27,
4.379,0.85,0.19,-0.47,-2.51,0.05,-0.29,
4.382,0.85,0.19,-0.47,-2.48,0.10,-0.31,
4.384,0.85,0.19,-0.47,-2.47,0.12,-0.31,
4.386,0.85,0.19,-0.47,-2.44,0.16,-0.33,
4.388,1.21,0.30,-0.36,-2.44,0.16,-0.33,
4.389,1.21,0.30,-0.36,-2.41,0.20,-0.34,
4.391,1.21,0.30,-0.36,-2.38,0.24,-0.35,
4.392,1.21,0.30,-0.36,-2.32,0.29,-0.37,
4.394,1.21,0.30,-0.36,-2.30,0.30,-0.38,
4.396,1.21,0.30,-0.36,-2.26,0.33,-0.39,
4.397,1.55,0.32,0.09,-2.26,0.33,-0.39,
4.397,1.55,0.32,0.09,-2.21,0.35,-0.40,
4.401,1.55,0.32,0.09,-2.15,0.36,-0.41,
4.401,1.55,0.32,0.09,-2.07,0.38,-0.42,
4.402,1.55,0.32,0.09,-2.04,0.39,-0.42,
4.405,1.55,0.32,0.09,-1.98,0.39,-0.43,
4.42,1.78,0.19,0.57,-1.98,0.39,-0.43,
4.421,1.78,0.19,0.57,-1.91,0.39,-0.44,
4.421,1.78,0.19,0.57,-1.84,0.39,-0.44,
4.422,1.78,0.19,0.57,-1.73,0.39,-0.44,
4.422,1.78,0.19,0.57,-1.69,0.39,-0.44,
4.423,1.78,0.19,0.57,-1.62,0.39,-0.44,
4.423,2.09,0.09,0.99,-1.62,0.39,-0.44,
4.423,2.09,0.09,0.99,-1.54,0.39,-0.44,
4.424,2.09,0.09,0.99,-1.47,0.38,-0.43,
4.424,2.09,0.09,0.99,-1.36,0.38,-0.43,
4.424,2.09,0.09,0.99,-1.32,0.37,-0.42,
4.46,2.09,0.09,0.99,-1.12,0.36,-0.40,
4.461,2.09,0.09,0.99,-1.12,0.36,-0.40,
4.461,2.09,0.09,0.99,-1.12,0.36,-0.40,
4.461,2.28,0.22,0.99,-1.12,0.36,-0.40,
4.461,2.28,0.22,0.99,-1.00,0.37,-0.38,
4.484,2.28,0.22,0.99,-0.97,0.37,-0.38,
4.484,2.28,0.22,0.99,-0.94,0.37,-0.38,
4.485,2.38,0.35,0.89,-0.94,0.37,-0.38,
4.485,2.38,0.35,0.89,-0.89,0.37,-0.37,
4.485,2.38,0.35,0.89,-0.84,0.38,-0.36,
4.485,2.38,0.35,0.89,-0.78,0.39,-0.35,
4.485,2.38,0.35,0.89,-0.75,0.39,-0.34,
4.486,2.38,0.35,0.89,-0.71,0.40,-0.33,
4.486,2.39,0.71,0.83,-0.71,0.40,-0.33,
4.486,2.39,0.71,0.83,-0.67,0.41,-0.33,
4.486,2.39,0.71,0.83,-0.64,0.42,-0.32,
4.486,2.39,0.71,0.83,-0.59,0.44,-0.31,
4.487,2.39,0.71,0.83,-0.58,0.45,-0.31,
4.487,2.39,0.71,0.83,-0.55,0.46,-0.30,
4.487,2.29,1.33,1.13,-0.55,0.46,-0.30,
4.487,2.29,1.33,1.13,-0.54,0.46,-0.29,
4.487,2.29,1.33,1.13,-0.53,0.46,-0.28,
4.487,2.29,1.33,1.13,-0.55,0.45,-0.26,
4.488,2.29,1.33,1.13,-0.58,0.42,-0.25,
4.488,2.29,1.33,1.13,-0.60,0.41,-0.25,
4.488,1.92,1.99,1.24,-0.60,0.41,-0.25,
4.488,1.92,1.99,1.24,-0.63,0.39,-0.24,
4.488,1.92,1.99,1.24,-0.68,0.34,-0.24,
4.489,1.92,1.99,1.24,-0.77,0.25,-0.23,
4.489,1.92,1.99,1.24,-0.81,0.21,-0.22,
4.489,1.92,1.99,1.24,-0.89,0.13,-0.22,
4.489,1.64,2.49,1.28,-0.89,0.13,-0.22,
4.489,1.64,2.49,1.28,-0.97,0.03,-0.22,
4.489,1.64,2.49,1.28,-1.06,-0.07,-0.22,
4.49,1.64,2.49,1.28,-1.19,-0.23,-0.21,
4.49,1.64,2.49,1.28,-1.24,-0.29,-0.21,
4.49,1.64,2.49,1.28,-1.32,-0.40,-0.22,
4.49,1.45,2.49,1.54,-1.32,-0.40,-0.22,
4.49,1.45,2.49,1.54,-1.40,-0.52,-0.22,
4.491,1.45,2.49,1.54,-1.48,-0.63,-0.22,
4.496,1.45,2.49,1.54,-1.58,-0.80,-0.22,
4.496,1.45,2.49,1.54,-1.60,-0.85,-0.22,
4.496,1.45,2.49,1.54,-1.66,-0.96,-0.22,
4.498,1.27,2.18,2.33,-1.66,-0.96,-0.22,
4.499,1.27,2.18,2.33,-1.71,-1.06,-0.23,
4.499,1.27,2.18,2.33,-1.74,-1.16,-0.23,
4.501,1.27,2.18,2.33,-1.78,-1.30,-0.24,
4.502,1.27,2.18,2.33,-1.79,-1.34,-0.24,
4.504,1.27,2.18,2.33,-1.79,-1.42,-0.24,
4.507,1.26,1.60,3.10,-1.79,-1.42,-0.24,
4.508,1.26,1.60,3.10,-1.80,-1.49,-0.24,
4.508,1.26,1.60,3.10,-1.79,-1.56,-0.25,
4.511,1.26,1.60,3.10,-1.77,-1.63,-0.26,
4.512,1.26,1.60,3.10,-1.76,-1.65,-0.26,
4.514,1.26,1.60,3.10,-1.74,-1.68,-0.27,
4.52,1.68,1.00,3.43,-1.74,-1.68,-0.27,
4.52,1.68,1.00,3.43,-1.71,-1.71,-0.28,
4.521,1.68,1.00,3.43,-1.68,-1.72,-0.28,
4.521,1.68,1.00,3.43,-1.63,-1.72,-0.29,
4.528,1.68,1.00,3.43,-1.61,-1.72,-0.29,
4.529,1.68,1.00,3.43,-1.58,-1.71,-0.29,
4.529,1.77,0.62,2.92,-1.58,-1.71,-0.29,
4.529,1.77,0.62,2.92,-1.54,-1.69,-0.29,
4.529,1.77,0.62,2.92,-1.51,-1.66,-0.29,
4.531,1.77,0.62,2.92,-1.45,-1.62,-0.28,
4.532,1.77,0.62,2.92,-1.43,-1.60,-0.28,
4.534,1.77,0.62,2.92,-1.39,-1.57,-0.27,
4.536,1.68,0.55,2.34,-1.39,-1.57,-0.27,
4.537,1.68,0.55,2.34,-1.35,-1.53,-0.26,
4.553,1.68,0.55,2.34,-1.31,-1.50,-0.24,
4.554,1.68,0.55,2.34,-1.25,-1.45,-0.21,
4.554,1.68,0.55,2.34,-1.24,-1.43,-0.20,
4.554,1.68,0.55,2.34,-1.20,-1.40,-0.18,
4.555,1.36,0.85,1.83,-1.20,-1.40,-0.18,
4.555,1.36,0.85,1.83,-1.16,-1.37,-0.15,
4.555,1.36,0.85,1.83,-1.13,-1.33,-0.13,
4.555,1.36,0.85,1.83,-1.08,-1.27,-0.08,
4.555,1.36,0.85,1.83,-1.06,-1.25,-0.06,
4.556,1.36,0.85,1.83,-1.04,-1.21,-0.03,
4.558,1.27,1.24,1.25,-1.04,-1.21,-0.03,
4.559,1.27,1.24,1.25,-1.02,-1.16,-0.01,
4.559,1.27,1.24,1.25,-1.00,-1.11,0.02,
4.561,1.27,1.24,1.25,-0.97,-1.02,0.06,
4.563,1.27,1.24,1.25,-0.97,-1.00,0.07,
4.564,1.27,1.24,1.25,-0.96,-0.94,0.10,
4.566,1.36,1.48,0.66,-0.96,-0.94,0.10,
4.567,1.36,1.48,0.66,-0.95,-0.89,0.12,
4.568,1.36,1.48,0.66,-0.95,-0.83,0.14,
4.572,1.36,1.48,0.66,-0.94,-0.75,0.17,
4.572,1.36,1.48,0.66,-0.94,-0.72,0.18,
4.574,1.36,1.48,0.66,-0.95,-0.66,0.20,
4.577,1.77,1.74,0.33,-0.95,-0.66,0.20,
4.577,1.77,1.74,0.33,-0.95,-0.60,0.22,
4.578,1.77,1.74,0.33,-0.96,-0.54,0.23,
4.581,1.77,1.74,0.33,-0.97,-0.46,0.25,
4.582,1.77,1.74,0.33,-0.97,-0.43,0.25,
4.584,1.77,1.74,0.33,-0.99,-0.38,0.26,
4.587,2.36,1.78,0.28,-0.99,-0.38,0.26,
4.587,2.36,1.78,0.28,-1.00,-0.32,0.26,
4.591,2.36,1.78,0.28,-1.01,-0.28,0.27,
4.593,2.36,1.78,0.28,-1.03,-0.21,0.27,
4.593,2.36,1.78,0.28,-1.04,-0.19,0.27,
4.596,2.36,1.78,0.28,-1.06,-0.16,0.27,
4.597,3.20,1.62,0.77,-1.06,-0.16,0.27,
4.598,3.20,1.62,0.77,-1.07,-0.13,0.27,
4.613,3.20,1.62,0.77,-1.09,-0.10,0.26,
4.613,3.20,1.62,0.77,-1.11,-0.08,0.25,
4.614,3.20,1.62,0.77,-1.12,-0.08,0.25,
4.614,3.20,1.62,0.77,-1.14,-0.08,0.24,
4.614,3.89,1.25,1.75,-1.14,-0.08,0.24,
4.614,3.89,1.25,1.75,-1.16,-0.09,0.23,
4.614,3.89,1.25,1.75,-1.18,-0.11,0.22,
4.614,3.89,1.25,1.75,-1.21,-0.16,0.20,
4.614,3.89,1.25,1.75,-1.22,-0.18,0.20,
4.615,3.89,1.25,1.75,-1.24,-0.22,0.18,
4.617,4.63,0.75,3.85,-1.24,-0.22,0.18,
4.617,4.63,0.75,3.85,-1.26,-0.26,0.17,
4.618,4.63,0.75,3.85,-1.26,-0.30,0.16,
4.621,4.63,0.75,3.85,-1.24,-0.34,0.15,
4.622,4.63,0.75,3.85,-1.23,-0.35,0.14,
4.624,4.63,0.75,3.85,-1.19,-0.36,0.14,
4.627,4.68,0.09,8.06,-1.19,-0.36,0.14,
4.627,4.68,0.09,8.06,-1.16,-0.35,0.14,
4.628,4.68,0.09,8.06,-1.11,-0.32,0.15,
4.631,4.68,0.09,8.06,-1.03,-0.23,0.16,
4.632,4.68,0.09,8.06,-1.00,-0.20,0.17,
4.634,4.68,0.09,8.06,-0.94,-0.11,0.19,
4.636,4.00,-0.52,11.85,-0.94,-0.11,0.19,
4.637,4.00,-0.52,11.85,-0.89,-0.01,0.21,
4.638,4.00,-0.52,11.85,-0.83,0.10,0.23,
4.641,4.00,-0.52,11.85,-0.77,0.28,0.25,
4.642,4.00,-0.52,11.85,-0.74,0.34,0.25,
4.644,4.00,-0.52,11.85,-0.71,0.47,0.26,
4.646,3.65,-1.23,12.47,-0.71,0.47,0.26,
4.647,3.65,-1.23,12.47,-0.67,0.58,0.26,
4.648,3.65,-1.23,12.47,-0.65,0.70,0.26,
4.651,3.65,-1.23,12.47,-0.60,0.84,0.25,
4.652,3.65,-1.23,12.47,-0.59,0.88,0.25,
4.654,3.65,-1.23,12.47,-0.57,0.96,0.25,
4.657,3.85,-2.00,11.33,-0.57,0.96,0.25,
4.657,3.85,-2.00,11.33,-0.54,1.02,0.23,
4.658,3.85,-2.00,11.33,-0.51,1.07,0.22,
4.661,3.85,-2.00,11.33,-0.46,1.12,0.21,
4.662,3.85,-2.00,11.33,-0.44,1.13,0.21,
4.664,3.85,-2.00,11.33,-0.39,1.14,0.20,
4.666,3.54,-2.44,9.32,-0.39,1.14,0.20,
4.666,3.54,-2.44,9.32,-0.34,1.15,0.19,
4.668,3.54,-2.44,9.32,-0.27,1.15,0.19,
4.671,3.54,-2.44,9.32,-0.17,1.16,0.18,
4.672,3.54,-2.44,9.32,-0.13,1.16,0.18,
4.674,3.54,-2.44,9.32,-0.05,1.18,0.18,
4.676,2.76,-2.65,7.89,-0.05,1.18,0.18,
4.677,2.76,-2.65,7.89,0.04,1.20,0.17,
4.678,2.76,-2.65,7.89,0.15,1.22,0.17,
4.681,2.76,-2.65,7.89,0.31,1.29,0.18,
4.682,2.76,-2.65,7.89,0.37,1.31,0.18,
4.684,2.76,-2.65,7.89,0.50,1.37,0.19,
4.686,1.08,-2.68,7.15,0.50,1.37,0.19,
4.686,1.08,-2.68,7.15,0.65,1.45,0.21,
4.689,1.08,-2.68,7.15,0.80,1.54,0.22,
4.695,1.08,-2.68,7.15,1.03,1.70,0.26,
4.696,1.08,-2.68,7.15,1.11,1.76,0.28,
4.696,1.08,-2.68,7.15,1.28,1.89,0.32,
4.698,-1.34,-2.69,7.59,1.28,1.89,0.32,
4.699,-1.34,-2.69,7.59,1.45,2.03,0.36,
4.699,-1.34,-2.69,7.59,1.62,2.18,0.41,
4.702,-1.34,-2.69,7.59,1.87,2.42,0.49,
4.705,-1.34,-2.69,7.59,1.96,2.50,0.53,
4.706,-1.34,-2.69,7.59,2.12,2.67,0.59,
4.732,-3.09,-3.23,7.10,2.12,2.67,0.59,
4.732,-3.09,-3.23,7.10,2.28,2.84,0.66,
4.733,-3.09,-3.23,7.10,2.42,3.01,0.73,
4.733,-3.09,-3.23,7.10,2.63,3.25,0.84,
4.733,-3.09,-3.23,7.10,2.69,3.33,0.87,
4.733,-3.09,-3.23,7.10,2.81,3.48,0.94,
4.734,-3.23,-4.61,5.55,2.81,3.48,0.94,
4.734,-3.23,-4.61,5.55,2.93,3.62,1.00,
4.734,-3.23,-4.61,5.55,3.04,3.74,1.05,
4.735,-3.23,-4.61,5.55,3.18,3.89,1.13,
4.735,-3.23,-4.61,5.55,3.22,3.92,1.15,
4.735,-3.23,-4.61,5.55,3.30,3.99,1.18,
4.735,-1.77,-6.08,4.18,3.30,3.99,1.18,
4.736,-1.77,-6.08,4.18,3.37,4.02,1.20,
4.736,-1.77,-6.08,4.18,3.42,4.04,1.21,
4.736,-1.77,-6.08,4.18,3.48,4.01,1.20,
4.737,-1.77,-6.08,4.18,3.49,4.00,1.20,
4.737,-1.77,-6.08,4.18,3.52,3.90,1.16,
4.737,0.50,-6.35,2.73,3.52,3.90,1.16,
4.738,0.50,-6.35,2.73,3.52,3.86,1.15,
4.738,0.50,-6.35,2.73,3.52,3.76,1.11,
4.743,0.50,-6.35,2.73,3.53,3.59,1.06,
4.744,0.50,-6.35,2.73,3.53,3.52,1.04,
4.746,0.50,-6.35,2.73,3.52,3.39,1.01,
4.749,2.06,-5.50,1.02,3.52,3.39,1.01,
4.749,2.06,-5.50,1.02,3.52,3.25,0.97,
4.75,2.06,-5.50,1.02,3.51,3.12,0.93,
4.753,2.06,-5.50,1.02,3.51,2.92,0.88,
4.753,2.06,-5.50,1.02,3.51,2.86,0.86,
4.757,2.06,-5.50,1.02,3.50,2.75,0.81,
4.758,3.85,-4.75,-1.37,3.50,2.75,0.81,
4.758,3.85,-4.75,-1.37,3.50,2.66,0.76,
4.759,3.85,-4.75,-1.37,3.49,2.58,0.71,
4.762,3.85,-4.75,-1.37,3.47,2.49,0.61,
4.763,3.85,-4.75,-1.37,3.46,2.47,0.58,
4.764,3.85,-4.75,-1.37,3.44,2.44,0.50,
4.792,6.25,-4.27,-4.44,3.44,2.44,0.50,
4.793,6.25,-4.27,-4.44,3.41,2.43,0.42,
4.793,6.25,-4.27,-4.44,3.37,2.44,0.33,
4.794,6.25,-4.27,-4.44,3.31,2.48,0.19,
4.794,6.25,-4.27,-4.44,3.29,2.49,0.14,
4.795,6.25,-4.27,-4.44,3.24,2.53,0.04,
4.795,8.48,-3.67,-7.53,3.24,2.53,0.04,
4.796,8.48,-3.67,-7.53,3.19,2.59,-0.06,
4.796,8.48,-3.67,-7.53,3.14,2.64,-0.16,
4.797,8.48,-3.67,-7.53,3.09,2.72,-0.32,
4.797,8.48,-3.67,-7.53,3.06,2.76,-0.42,
4.797,8.48,-3.67,-7.53,3.04,2.79,-0.48,
4.798,9.61,-2.97,-8.11,3.04,2.79,-0.48,
4.798,9.61,-2.97,-8.11,3.02,2.82,-0.58,
4.799,9.61,-2.97,-8.11,3.01,2.84,-0.68,
4.799,9.61,-2.97,-8.11,2.99,2.86,-0.83,
4.8,9.61,-2.97,-8.11,2.99,2.87,-0.87,
4.8,9.61,-2.97,-8.11,2.98,2.88,-0.96,
4.8,9.79,-3.05,-7.28,2.98,2.88,-0.96,
4.801,9.79,-3.05,-7.28,2.97,2.89,-1.05,
4.801,9.79,-3.05,-7.28,2.96,2.90,-1.13,
4.802,9.79,-3.05,-7.28,2.94,2.88,-1.24,
4.802,9.79,-3.05,-7.28,2.94,2.87,-1.27,
4.809,9.79,-3.05,-7.28,2.94,2.84,-1.33,
4.81,8.46,-4.04,-6.48,2.94,2.84,-1.33,
4.81,8.46,-4.04,-6.48,2.93,2.80,-1.38,
4.81,8.46,-4.04,-6.48,2.93,2.75,-1.42,
4.811,8.46,-4.04,-6.48,2.93,2.66,-1.46,
4.814,8.46,-4.04,-6.48,2.94,2.56,-1.49,
4.815,8.46,-4.04,-6.48,2.94,2.52,-1.49,
4.816,6.73,-5.42,-6.17,2.94,2.52,-1.49,
4.817,6.73,-5.42,-6.17,2.94,2.47,-1.49,
4.818,6.73,-5.42,-6.17,2.95,2.38,-1.48,
4.821,6.73,-5.42,-6.17,2.96,2.24,-1.45,
4.823,6.73,-5.42,-6.17,2.96,2.19,-1.43,
4.825,6.73,-5.42,-6.17,2.97,2.08,-1.40,
4.826,4.77,-6.58,-6.25,2.97,2.08,-1.40,
4.827,4.77,-6.58,-6.25,2.98,1.97,-1.36,
4.828,4.77,-6.58,-6.25,2.97,1.86,-1.32,
4.831,4.77,-6.58,-6.25,2.96,1.62,-1.22,
4.832,4.77,-6.58,-6.25,2.95,1.55,-1.20,
4.834,4.77,-6.58,-6.25,2.95,1.48,-1.18,
4.836,3.36,-7.16,-7.03,2.95,1.48,-1.18,
4.837,3.36,-7.16,-7.03,2.93,1.32,-1.13,
4.845,3.36,-7.16,-7.03,2.91,1.15,-1.08,
4.846,3.36,-7.16,-7.03,2.87,0.88,-1.01,
4.846,3.36,-7.16,-7.03,2.85,0.78,-0.99,
4.847,3.36,-7.16,-7.03,2.81,0.57,-0.95,
4.847,2.34,-7.00,-7.63,2.81,0.57,-0.95,
4.847,2.34,-7.00,-7.63,2.76,0.37,-0.91,
4.849,2.34,-7.00,-7.63,2.71,0.18,-0.88,
4.852,2.34,-7.00,-7.63,2.62,-0.10,-0.83,
4.853,2.34,-7.00,-7.63,2.58,-0.18,-0.82,
4.898,2.34,-7.00,-7.63,2.50,-0.34,-0.81,
4.898,2.03,-6.14,-8.18,2.50,-0.34,-0.81,
4.899,2.03,-6.14,-8.18,2.39,-0.53,-0.80,
4.899,2.03,-6.14,-8.18,2.27,-0.78,-0.80,
4.899,2.03,-6.14,-8.18,2.04,-1.19,-0.81,
4.899,2.03,-6.14,-8.18,1.97,-1.33,-0.82,
4.899,2.03,-6.14,-8.18,1.81,-1.61,-0.84,
4.899,3.45,-4.98,-4.58,1.81,-1.61,-0.84,
4.9,3.45,-4.98,-4.58,1.67,-1.85,-0.87,
4.9,3.45,-4.98,-4.58,1.56,-2.05,-0.90,
4.9,3.45,-4.98,-4.58,1.46,-2.23,-0.96,
4.9,3.45,-4.98,-4.58,1.44,-2.25,-0.99,
4.9,3.45,-4.98,-4.58,1.42,-2.26,-1.03,
4.901,3.31,-3.19,1.19,1.42,-2.26,-1.03,
4.901,3.31,-3.19,1.19,1.41,-2.20,-1.07,
4.901,3.31,-3.19,1.19,1.42,-2.10,-1.11,
4.901,3.31,-3.19,1.19,1.43,-1.83,-1.16,
4.902,3.31,-3.19,1.19,1.44,-1.72,-1.17,
4.902,3.31,-3.19,1.19,1.45,-1.46,-1.20,
4.902,1.46,-1.89,1.37,1.45,-1.46,-1.20,
4.902,1.46,-1.89,1.37,1.45,-1.16,-1.22,
4.902,1.46,-1.89,1.37,1.44,-0.82,-1.24,
4.903,1.46,-1.89,1.37,1.43,-0.29,-1.26,
4.903,1.46,-1.89,1.37,1.42,-0.10,-1.27,
4.903,1.46,-1.89,1.37,1.40,0.28,-1.28,
4.903,0.16,-1.22,-1.77,1.40,0.28,-1.28,
4.903,0.16,-1.22,-1.77,1.38,0.67,-1.30,
4.903,0.16,-1.22,-1.77,1.35,1.07,-1.32,
4.904,0.16,-1.22,-1.77,1.31,1.67,-1.35,
4.904,0.16,-1.22,-1.77,1.29,1.86,-1.36,
4.907,0.16,-1.22,-1.77,1.26,2.24,-1.38,
4.908,0.05,-0.90,-4.39,1.26,2.24,-1.38,
4.908,0.05,-0.90,-4.39,1.23,2.61,-1.40,
4.908,0.05,-0.90,-4.39,1.20,2.96,-1.42,
4.911,0.05,-0.90,-4.39,1.16,3.44,-1.44,
4.912,0.05,-0.90,-4.39,1.15,3.59,-1.45,
4.914,0.05,-0.90,-4.39,1.13,3.85,-1.46,
4.916,-0.19,-0.90,-5.83,1.13,3.85,-1.46,
4.917,-0.19,-0.90,-5.83,1.12,4.09,-1.46,
4.918,-0.19,-0.90,-5.83,1.11,4.29,-1.46,
4.921,-0.19,-0.90,-5.83,1.10,4.53,-1.45,
4.923,-0.19,-0.90,-5.83,1.10,4.59,-1.45,
4.924,-0.19,-0.90,-5.83,1.10,4.68,-1.43,
4.927,-0.19,-0.90,-5.83,1.11,4.72,-1.41,
4.931,-0.63,-0.71,-6.12,1.11,4.72,-1.41,
4.931,-0.63,-0.71,-6.12,1.12,4.72,-1.38,
4.931,-0.63,-0.71,-6.12,1.16,4.63,-1.30,
4.946,-0.63,-0.71,-6.12,1.17,4.58,-1.28,
4.947,-0.63,-0.71,-6.12,1.18,4.53,-1.25,
4.947,-1.16,-0.44,-5.95,1.18,4.53,-1.25,
4.947,-1.16,-0.44,-5.95,1.21,4.42,-1.21,
4.947,-1.16,-0.44,-5.95,1.23,4.30,-1.16,
4.948,-1.16,-0.44,-5.95,1.27,4.09,-1.09,
4.948,-1.16,-0.44,-5.95,1.28,4.01,-1.07,
4.948,-1.16,-0.44,-5.95,1.30,3.85,-1.02,
4.948,-1.28,0.14,-5.92,1.30,3.85,-1.02,
4.948,-1.28,0.14,-5.92,1.32,3.68,-0.97,
4.948,-1.28,0.14,-5.92,1.33,3.52,-0.92,
4.956,-1.28,0.14,-5.92,1.34,3.26,-0.86,
