
time,ax,ay,az,wx,wy,wz,
0.003,0.73,0.51,-1.39,-0.29,-1.50,-0.55,
0.004,0.73,0.51,-1.39,-0.33,-1.52,-0.56,
0.004,0.73,0.51,-1.39,-0.37,-1.53,-0.56,
0.004,0.73,0.51,-1.39,-0.44,-1.57,-0.57,
0.005,0.73,0.51,-1.39,-0.47,-1.59,-0.57,
0.005,0.73,0.51,-1.39,-0.51,-1.64,-0.58,
0.005,0.89,0.40,-1.86,-0.51,-1.64,-0.58,
0.006,0.89,0.40,-1.86,-0.56,-1.69,-0.58,
0.006,0.89,0.40,-1.86,-0.61,-1.73,-0.58,
0.006,0.89,0.40,-1.86,-0.66,-1.76,-0.58,
0.01,0.89,0.40,-1.86,-0.70,-1.79,-0.58,
0.01,0.89,0.40,-1.86,-0.75,-1.82,-0.58,
0.011,0.27,0.30,-2.36,-0.75,-1.82,-0.58,
0.011,0.27,0.30,-2.36,-0.79,-1.84,-0.58,
0.016,0.27,0.30,-2.36,-0.84,-1.85,-0.57,
0.017,0.27,0.30,-2.36,-0.89,-1.86,-0.55,
0.018,0.27,0.30,-2.36,-0.93,-1.87,-0.54,
0.021,0.27,0.30,-2.36,-0.97,-1.87,-0.53,
0.022,-0.44,0.46,-2.65,-0.97,-1.87,-0.53,
0.022,-0.44,0.46,-2.65,-1.02,-1.87,-0.52,
0.025,-0.44,0.46,-2.65,-1.06,-1.86,-0.51,
0.026,-0.44,0.46,-2.65,-1.10,-1.86,-0.50,
0.027,-0.44,0.46,-2.65,-1.14,-1.86,-0.48,
0.029,-0.44,0.46,-2.65,-1.18,-1.87,-0.48,
0.032,-0.44,0.38,-2.51,-1.18,-1.87,-0.48,
0.032,-0.44,0.38,-2.51,-1.22,-1.90,-0.46,
0.034,-0.44,0.38,-2.51,-1.25,-1.91,-0.45,
0.036,-0.44,0.38,-2.51,-1.27,-1.94,-0.44,
0.038,-0.44,0.38,-2.51,-1.30,-1.97,-0.43,
0.039,-0.44,0.38,-2.51,-1.32,-2.00,-0.41,
0.041,-0.29,-0.01,-1.91,-1.32,-2.00,-0.41,
0.042,-0.29,-0.01,-1.91,-1.34,-2.03,-0.40,
0.043,-0.29,-0.01,-1.91,-1.35,-2.05,-0.38,
0.049,-0.29,-0.01,-1.91,-1.35,-2.08,-0.36,
0.05,-0.29,-0.01,-1.91,-1.35,-2.08,-0.35,
0.05,-0.29,-0.01,-1.91,-1.35,-2.11,-0.34,
0.052,0.13,-0.43,-0.63,-1.35,-2.11,-0.34,
0.052,0.13,-0.43,-0.63,-1.34,-2.14,-0.33,
0.055,0.13,-0.43,-0.63,-1.32,-2.18,-0.32,
0.057,0.13,-0.43,-0.63,-1.31,-2.23,-0.30,
0.06,0.13,-0.43,-0.63,-1.28,-2.34,-0.29,
0.06,0.13,-0.43,-0.63,-1.27,-2.38,-0.28,
0.062,0.68,-0.55,0.93,-1.27,-2.38,-0.28,
0.062,0.68,-0.55,0.93,-1.25,-2.46,-0.27,
0.069,0.68,-0.55,0.93,-1.22,-2.55,-0.26,
0.069,0.68,-0.55,0.93,-1.20,-2.64,-0.25,
0.07,0.68,-0.55,0.93,-1.18,-2.72,-0.24,
0.07,0.68,-0.55,0.93,-1.16,-2.81,-0.23,
0.072,0.80,-0.56,1.19,-1.16,-2.81,-0.23,
0.074,0.80,-0.56,1.19,-1.14,-2.89,-0.23,
0.075,0.80,-0.56,1.19,-1.12,-2.97,-0.23,
0.076,0.80,-0.56,1.19,-1.10,-3.04,-0.22,
0.078,0.80,-0.56,1.19,-1.10,-3.11,-0.22,
0.079,0.80,-0.56,1.19,-1.09,-3.17,-0.22,
0.084,0.46,-0.50,0.26,-1.09,-3.17,-0.22,
0.084,0.46,-0.50,0.26,-1.09,-3.21,-0.23,
0.084,0.46,-0.50,0.26,-1.09,-3.21,-0.23,
0.088,0.46,-0.50,0.26,-1.06,-3.13,-0.23,
0.088,0.46,-0.50,0.26,-1.04,-3.08,-0.24,
0.089,0.46,-0.50,0.26,-0.98,-2.94,-0.25,
0.091,0.56,-0.14,1.17,-0.98,-2.94,-0.25,
0.1,0.56,-0.14,1.17,-0.91,-2.76,-0.26,
0.1,0.56,-0.14,1.17,-0.81,-2.55,-0.28,
0.1,0.56,-0.14,1.17,-0.71,-2.34,-0.30,
0.1,0.56,-0.14,1.17,-0.61,-2.17,-0.31,
0.101,0.56,-0.14,1.17,-0.52,-2.05,-0.31,
0.117,0.45,0.19,3.65,-0.52,-2.05,-0.31,
0.117,0.45,0.19,3.65,-0.45,-1.95,-0.31,
0.117,0.45,0.19,3.65,-0.38,-1.87,-0.31,
0.117,0.45,0.19,3.65,-0.32,-1.81,-0.31,
0.118,0.45,0.19,3.65,-0.27,-1.75,-0.31,
0.118,0.45,0.19,3.65,-0.21,-1.69,-0.32,
0.118,-0.07,0.35,3.23,-0.21,-1.69,-0.32,
0.118,-0.07,0.35,3.23,-0.16,-1.65,-0.33,
0.118,-0.07,0.35,3.23,-0.12,-1.63,-0.33,
0.118,-0.07,0.35,3.23,-0.08,-1.64,-0.35,
0.119,-0.07,0.35,3.23,-0.04,-1.66,-0.37,
0.171,-0.07,0.35,3.23,-0.00,-1.70,-0.39,
0.172,-0.07,-0.12,3.05,-0.00,-1.70,-0.39,
0.172,-0.07,-0.12,3.05,0.02,-1.72,-0.41,
0.172,-0.07,-0.12,3.05,0.05,-1.74,-0.44,
0.173,-0.07,-0.12,3.05,0.07,-1.75,-0.47,
0.173,-0.07,-0.12,3.05,0.07,-1.76,-0.49,
0.173,-0.07,-0.12,3.05,0.08,-1.77,-0.52,
0.173,-0.58,-0.50,0.86,0.08,-1.77,-0.52,
0.174,-0.58,-0.50,0.86,0.07,-1.78,-0.55,
0.174,-0.58,-0.50,0.86,0.05,-1.80,-0.57,
0.174,-0.58,-0.50,0.86,0.03,-1.84,-0.60,
0.174,-0.58,-0.50,0.86,0.01,-1.86,-0.60,
0.174,-0.58,-0.50,0.86,-0.01,-1.89,-0.61,
0.174,-1.37,-0.58,-0.96,-0.01,-1.89,-0.61,
0.175,-1.37,-0.58,-0.96,-0.04,-1.93,-0.61,
0.175,-1.37,-0.58,-0.96,-0.07,-1.97,-0.61,
0.175,-1.37,-0.58,-0.96,-0.12,-2.03,-0.60,
0.175,-1.37,-0.58,-0.96,-0.14,-2.06,-0.59,
0.175,-1.37,-0.58,-0.96,-0.18,-2.11,-0.58,
0.176,-1.77,-0.68,-1.37,-0.18,-2.11,-0.58,
0.176,-1.77,-0.68,-1.37,-0.21,-2.15,-0.57,
0.176,-1.77,-0.68,-1.37,-0.23,-2.18,-0.55,
0.176,-1.77,-0.68,-1.37,-0.26,-2.16,-0.54,
0.176,-1.77,-0.68,-1.37,-0.26,-2.13,-0.53,
0.177,-1.77,-0.68,-1.37,-0.25,-2.07,-0.51,
0.177,-1.36,-0.50,0.59,-0.25,-2.07,-0.51,
0.177,-1.36,-0.50,0.59,-0.23,-1.98,-0.50,
0.177,-1.36,-0.50,0.59,-0.21,-1.87,-0.48,
0.177,-1.36,-0.50,0.59,-0.15,-1.72,-0.45,
0.177,-1.36,-0.50,0.59,-0.13,-1.67,-0.44,
0.178,-1.36,-0.50,0.59,-0.09,-1.59,-0.42,
0.178,-1.14,-0.26,2.71,-0.09,-1.59,-0.42,
0.178,-1.14,-0.26,2.71,-0.05,-1.53,-0.39,
0.178,-1.14,-0.26,2.71,-0.00,-1.48,-0.37,
0.178,-1.14,-0.26,2.71,0.06,-1.43,-0.34,
0.179,-1.14,-0.26,2.71,0.08,-1.42,-0.33,
0.181,-1.14,-0.26,2.71,0.12,-1.40,-0.31,
0.181,-1.13,-0.25,3.20,0.12,-1.40,-0.31,
0.182,-1.13,-0.25,3.20,0.16,-1.39,-0.29,
0.185,-1.13,-0.25,3.20,0.20,-1.37,-0.28,
0.186,-1.13,-0.25,3.20,0.25,-1.36,-0.27,
0.187,-1.13,-0.25,3.20,0.26,-1.35,-0.27,
0.189,-1.13,-0.25,3.20,0.29,-1.34,-0.26,
0.191,-0.98,-0.38,2.38,0.29,-1.34,-0.26,
0.192,-0.98,-0.38,2.38,0.32,-1.33,-0.26,
0.193,-0.98,-0.38,2.38,0.35,-1.32,-0.26,
0.196,-0.98,-0.38,2.38,0.38,-1.32,-0.27,
0.197,-0.98,-0.38,2.38,0.39,-1.32,-0.27,
0.2,-0.98,-0.38,2.38,0.40,-1.32,-0.28,
0.201,-0.58,-0.60,1.27,0.40,-1.32,-0.28,
0.201,-0.58,-0.60,1.27,0.41,-1.31,-0.29,
0.203,-0.58,-0.60,1.27,0.41,-1.31,-0.30,
0.206,-0.58,-0.60,1.27,0.41,-1.30,-0.32,
0.207,-0.58,-0.60,1.27,0.40,-1.29,-0.32,
0.209,-0.58,-0.60,1.27,0.39,-1.27,-0.33,
0.23,0.12,-0.51,0.37,0.39,-1.27,-0.33,
0.233,0.12,-0.51,0.37,0.38,-1.25,-0.34,
0.234,0.12,-0.51,0.37,0.36,-1.22,-0.35,
0.235,0.12,-0.51,0.37,0.32,-1.17,-0.36,
0.237,0.12,-0.51,0.37,0.30,-1.16,-0.37,
0.238,0.12,-0.51,0.37,0.27,-1.13,-0.37,
0.239,0.46,-0.18,-0.49,0.27,-1.13,-0.37,
0.24,0.46,-0.18,-0.49,0.23,-1.09,-0.38,
0.24,0.46,-0.18,-0.49,0.19,-1.06,-0.38,
0.241,0.46,-0.18,-0.49,0.13,-1.01,-0.38,
0.242,0.46,-0.18,-0.49,0.11,-0.99,-0.38,
0.242,0.46,-0.18,-0.49,0.07,-0.96,-0.38,
0.243,0.22,0.22,-1.21,0.07,-0.96,-0.38,
0.244,0.22,0.22,-1.21,0.02,-0.93,-0.37,
0.245,0.22,0.22,-1.21,-0.02,-0.90,-0.37,
0.246,0.22,0.22,-1.21,-0.09,-0.87,-0.35,
0.247,0.22,0.22,-1.21,-0.11,-0.86,-0.34,
0.249,0.22,0.22,-1.21,-0.15,-0.85,-0.33,
0.25,-0.39,0.44,-1.46,-0.15,-0.85,-0.33,
0.25,-0.39,0.44,-1.46,-0.18,-0.84,-0.31,
0.25,-0.39,0.44,-1.46,-0.22,-0.84,-0.29,
0.251,-0.39,0.44,-1.46,-0.26,-0.85,-0.27,
0.251,-0.39,0.44,-1.46,-0.28,-0.86,-0.26,
0.252,-0.39,0.44,-1.46,-0.31,-0.87,-0.24,
0.252,-0.57,0.42,-1.09,-0.31,-0.87,-0.24,
0.253,-0.57,0.42,-1.09,-0.33,-0.88,-0.23,
0.253,-0.57,0.42,-1.09,-0.35,-0.90,-0.22,
0.263,-0.57,0.42,-1.09,-0.37,-0.94,-0.21,
0.263,-0.57,0.42,-1.09,-0.38,-0.95,-0.20,
0.281,-0.57,0.42,-1.09,-0.39,-0.98,-0.20,
0.281,-0.26,0.34,-0.48,-0.39,-0.98,-0.20,
0.282,-0.26,0.34,-0.48,-0.39,-1.02,-0.19,
0.282,-0.26,0.34,-0.48,-0.39,-1.05,-0.19,
0.282,-0.26,0.34,-0.48,-0.39,-1.12,-0.19,
0.282,-0.26,0.34,-0.48,-0.39,-1.14,-0.20,
0.282,-0.26,0.34,-0.48,-0.38,-1.19,-0.20,
0.283,0.41,0.36,0.16,-0.38,-1.19,-0.20,
0.283,0.41,0.36,0.16,-0.36,-1.24,-0.21,
0.283,0.41,0.36,0.16,-0.35,-1.29,-0.22,
0.284,0.41,0.36,0.16,-0.33,-1.38,-0.23,
0.284,0.41,0.36,0.16,-0.32,-1.41,-0.24,
0.284,0.41,0.36,0.16,-0.30,-1.47,-0.26,
0.284,1.12,0.19,0.63,-0.30,-1.47,-0.26,
0.284,1.12,0.19,0.63,-0.29,-1.52,-0.27,
0.285,1.12,0.19,0.63,-0.27,-1.58,-0.29,
0.294,1.12,0.19,0.63,-0.24,-1.66,-0.31,
0.295,1.12,0.19,0.63,-0.22,-1.69,-0.31,
0.295,1.12,0.19,0.63,-0.20,-1.74,-0.33,
0.295,1.40,-0.05,0.76,-0.20,-1.74,-0.33,
0.295,1.40,-0.05,0.76,-0.17,-1.80,-0.34,
0.296,1.40,-0.05,0.76,-0.15,-1.86,-0.35,
0.297,1.40,-0.05,0.76,-0.11,-1.95,-0.37,
0.297,1.40,-0.05,0.76,-0.10,-1.97,-0.38,
0.304,1.40,-0.05,0.76,-0.06,-2.01,-0.39,
0.305,1.42,-0.16,0.90,-0.06,-2.01,-0.39,
0.305,1.42,-0.16,0.90,-0.03,-2.05,-0.41,
0.305,1.42,-0.16,0.90,-0.00,-2.07,-0.42,
0.306,1.42,-0.16,0.90,0.05,-2.09,-0.43,
0.307,1.42,-0.16,0.90,0.06,-2.10,-0.44,
0.309,1.42,-0.16,0.90,0.09,-2.11,-0.44,
0.313,0.94,0.09,0.80,0.09,-2.11,-0.44,
0.313,0.94,0.09,0.80,0.11,-2.13,-0.45,
0.313,0.94,0.09,0.80,0.12,-2.14,-0.45,
0.319,0.94,0.09,0.80,0.14,-2.17,-0.44,
0.32,0.94,0.09,0.80,0.15,-2.18,-0.43,
0.321,0.94,0.09,0.80,0.15,-2.19,-0.42,
0.322,0.22,0.18,0.38,0.15,-2.19,-0.42,
0.322,0.22,0.18,0.38,0.15,-2.20,-0.41,
0.324,0.22,0.18,0.38,0.15,-2.21,-0.39,
0.326,0.22,0.18,0.38,0.14,-2.21,-0.37,
0.327,0.22,0.18,0.38,0.13,-2.21,-0.36,
0.339,0.22,0.18,0.38,0.12,-2.20,-0.34,
0.339,-0.21,0.20,0.05,0.12,-2.20,-0.34,
0.339,-0.21,0.20,0.05,0.10,-2.18,-0.32,
0.34,-0.21,0.20,0.05,0.08,-2.15,-0.31,
0.34,-0.21,0.20,0.05,0.05,-2.10,-0.28,
0.342,-0.21,0.20,0.05,-0.03,-2.02,-0.25,
0.342,-0.21,0.20,0.05,-0.03,-2.02,-0.25,
0.343,-0.21,0.20,0.05,-0.03,-2.02,-0.25,
0.344,-0.19,0.29,-0.51,-0.03,-2.02,-0.25,
0.346,-0.19,0.29,-0.51,-0.06,-1.98,-0.24,
0.347,-0.19,0.29,-0.51,-0.12,-1.91,-0.22,
0.349,-0.19,0.29,-0.51,-0.14,-1.90,-0.22,
0.349,-0.19,0.29,-0.51,-0.18,-1.86,-0.20,
0.354,-0.55,0.12,-0.70,-0.18,-1.86,-0.20,
0.355,-0.55,0.12,-0.70,-0.21,-1.84,-0.18,
0.355,-0.55,0.12,-0.70,-0.24,-1.83,-0.16,
0.356,-0.55,0.12,-0.70,-0.28,-1.83,-0.13,
0.357,-0.55,0.12,-0.70,-0.29,-1.83,-0.13,
0.36,-0.55,0.12,-0.70,-0.30,-1.85,-0.11,
0.368,-1.08,-0.32,-0.82,-0.30,-1.85,-0.11,
0.368,-1.08,-0.32,-0.82,-0.31,-1.89,-0.10,
0.369,-1.08,-0.32,-0.82,-0.32,-1.92,-0.09,
0.369,-1.08,-0.32,-0.82,-0.33,-1.99,-0.08,
0.369,-1.08,-0.32,-0.82,-0.33,-2.02,-0.08,
0.369,-1.08,-0.32,-0.82,-0.33,-2.08,-0.09,
0.371,-0.70,-0.68,-0.57,-0.33,-2.08,-0.09,
0.372,-0.70,-0.68,-0.57,-0.34,-2.14,-0.10,
0.373,-0.70,-0.68,-0.57,-0.34,-2.21,-0.11,
0.376,-0.70,-0.68,-0.57,-0.35,-2.31,-0.15,
0.377,-0.70,-0.68,-0.57,-0.36,-2.35,-0.16,
0.379,-0.70,-0.68,-0.57,-0.37,-2.42,-0.19,
0.384,0.29,-0.79,-0.30,-0.37,-2.42,-0.19,
0.384,0.29,-0.79,-0.30,-0.38,-2.51,-0.22,
0.384,0.29,-0.79,-0.30,-0.40,-2.60,-0.26,
0.386,0.29,-0.79,-0.30,-0.41,-2.72,-0.32,
0.387,0.29,-0.79,-0.30,-0.42,-2.75,-0.33,
0.389,0.29,-0.79,-0.30,-0.42,-2.80,-0.37,
0.392,0.92,-0.62,-0.15,-0.42,-2.80,-0.37,
0.392,0.92,-0.62,-0.15,-0.42,-2.85,-0.40,
0.393,0.92,-0.62,-0.15,-0.41,-2.89,-0.44,
0.396,0.92,-0.62,-0.15,-0.40,-2.93,-0.48,
0.398,0.92,-0.62,-0.15,-0.40,-2.94,-0.49,
0.399,0.92,-0.62,-0.15,-0.39,-2.94,-0.51,
0.401,1.09,-0.54,0.37,-0.39,-2.94,-0.51,
0.401,1.09,-0.54,0.37,-0.37,-2.91,-0.53,
0.403,1.09,-0.54,0.37,-0.36,-2.84,-0.55,
0.406,1.09,-0.54,0.37,-0.33,-2.70,-0.57,
0.409,1.09,-0.54,0.37,-0.32,-2.58,-0.58,
0.41,1.09,-0.54,0.37,-0.31,-2.52,-0.59,
0.413,1.06,-0.60,0.73,-0.31,-2.52,-0.59,
0.413,1.06,-0.60,0.73,-0.30,-2.38,-0.59,
0.414,1.06,-0.60,0.73,-0.30,-2.23,-0.59,
0.417,1.06,-0.60,0.73,-0.30,-2.02,-0.59,
0.417,1.06,-0.60,0.73,-0.30,-1.95,-0.59,
0.419,1.06,-0.60,0.73,-0.31,-1.82,-0.59,
0.421,0.47,-0.27,0.12,-0.31,-1.82,-0.59,
0.424,0.47,-0.27,0.12,-0.33,-1.69,-0.58,
0.431,0.47,-0.27,0.12,-0.36,-1.56,-0.57,
0.458,0.47,-0.27,0.12,-0.41,-1.37,-0.54,
0.458,0.47,-0.27,0.12,-0.42,-1.30,-0.53,
0.458,0.47,-0.27,0.12,-0.46,-1.16,-0.50,
0.458,-1.02,0.34,-1.38,-0.46,-1.16,-0.50,
0.458,-1.02,0.34,-1.38,-0.50,-1.01,-0.47,
0.459,-1.02,0.34,-1.38,-0.55,-0.87,-0.43,
0.459,-1.02,0.34,-1.38,-0.63,-0.66,-0.37,
0.459,-1.02,0.34,-1.38,-0.66,-0.60,-0.35,
0.459,-1.02,0.34,-1.38,-0.72,-0.50,-0.30,
0.46,-2.23,0.47,-2.62,-0.72,-0.50,-0.30,
0.46,-2.23,0.47,-2.62,-0.78,-0.42,-0.26,
0.46,-2.23,0.47,-2.62,-0.84,-0.34,-0.22,
0.46,-2.23,0.47,-2.62,-0.92,-0.26,-0.17,
0.46,-2.23,0.47,-2.62,-0.95,-0.23,-0.15,
0.46,-2.23,0.47,-2.62,-0.99,-0.17,-0.13,
0.461,-1.82,0.05,-2.36,-0.99,-0.17,-0.13,
0.461,-1.82,0.05,-2.36,-1.03,-0.12,-0.11,
0.461,-1.82,0.05,-2.36,-1.06,-0.07,-0.10,
0.461,-1.82,0.05,-2.36,-1.09,0.00,-0.08,
0.461,-1.82,0.05,-2.36,-1.10,0.02,-0.08,
0.462,-1.82,0.05,-2.36,-1.11,0.06,-0.08,
0.462,-1.01,-0.27,-1.59,-1.11,0.06,-0.08,
0.462,-1.01,-0.27,-1.59,-1.12,0.10,-0.09,
0.467,-1.01,-0.27,-1.59,-1.12,0.13,-0.10,
0.467,-1.01,-0.27,-1.59,-1.12,0.17,-0.13,
0.468,-1.01,-0.27,-1.59,-1.12,0.18,-0.15,
0.469,-1.01,-0.27,-1.59,-1.11,0.21,-0.17,
0.471,-0.41,-0.42,-1.09,-1.11,0.21,-0.17,
0.472,-0.41,-0.42,-1.09,-1.10,0.23,-0.19,
0.473,-0.41,-0.42,-1.09,-1.08,0.25,-0.21,
0.476,-0.41,-0.42,-1.09,-1.05,0.28,-0.24,
0.477,-0.41,-0.42,-1.09,-1.04,0.29,-0.25,
0.482,-0.41,-0.42,-1.09,-1.01,0.31,-0.27,
0.483,-0.34,-0.15,-0.64,-1.01,0.31,-0.27,
0.483,-0.34,-0.15,-0.64,-0.98,0.33,-0.29,
0.483,-0.34,-0.15,-0.64,-0.95,0.36,-0.31,
0.486,-0.34,-0.15,-0.64,-0.89,0.38,-0.34,
0.487,-0.34,-0.15,-0.64,-0.87,0.39,-0.35,
0.489,-0.34,-0.15,-0.64,-0.82,0.41,-0.37,
0.491,-0.05,0.08,0.16,-0.82,0.41,-0.37,
0.492,-0.05,0.08,0.16,-0.76,0.42,-0.39,
0.493,-0.05,0.08,0.16,-0.71,0.43,-0.41,
0.509,-0.05,0.08,0.16,-0.61,0.43,-0.45,
0.51,-0.05,0.08,0.16,-0.58,0.44,-0.46,
0.51,-0.05,0.08,0.16,-0.51,0.43,-0.48,
0.51,0.53,0.07,1.56,-0.51,0.43,-0.48,
0.51,0.53,0.07,1.56,-0.44,0.41,-0.51,
0.51,0.53,0.07,1.56,-0.36,0.38,-0.53,
0.511,0.53,0.07,1.56,-0.23,0.31,-0.56,
0.511,0.53,0.07,1.56,-0.18,0.28,-0.57,
0.511,0.53,0.07,1.56,-0.09,0.21,-0.59,
0.517,0.33,-0.32,3.21,-0.09,0.21,-0.59,
0.518,0.33,-0.32,3.21,-0.00,0.14,-0.60,
0.518,0.33,-0.32,3.21,0.09,0.06,-0.61,
0.518,0.33,-0.32,3.21,0.23,-0.04,-0.62,
0.518,0.33,-0.32,3.21,0.27,-0.07,-0.63,
0.519,0.33,-0.32,3.21,0.35,-0.14,-0.63,
0.522,-0.30,-0.92,3.88,0.35,-0.14,-0.63,
0.522,-0.30,-0.92,3.88,0.44,-0.18,-0.63,
0.523,-0.30,-0.92,3.88,0.51,-0.20,-0.63,
0.526,-0.30,-0.92,3.88,0.62,-0.19,-0.62,
0.531,-0.30,-0.92,3.88,0.66,-0.19,-0.61,
0.533,-0.30,-0.92,3.88,0.72,-0.16,-0.60,
0.533,-1.27,-1.01,3.24,0.72,-0.16,-0.60,
0.534,-1.27,-1.01,3.24,0.78,-0.13,-0.58,
0.536,-1.27,-1.01,3.24,0.83,-0.09,-0.56,
0.536,-1.27,-1.01,3.24,0.87,-0.01,-0.52,
0.537,-1.27,-1.01,3.24,0.88,0.01,-0.51,
0.539,-1.27,-1.01,3.24,0.89,0.07,-0.48,
0.542,-2.54,-1.00,1.63,0.89,0.07,-0.48,
0.542,-2.54,-1.00,1.63,0.89,0.12,-0.45,
0.543,-2.54,-1.00,1.63,0.86,0.19,-0.41,
0.547,-2.54,-1.00,1.63,0.79,0.27,-0.36,
0.547,-2.54,-1.00,1.63,0.76,0.30,-0.35,
0.549,-2.54,-1.00,1.63,0.67,0.34,-0.32,
0.551,-3.14,-1.01,-0.73,0.67,0.34,-0.32,
0.552,-3.14,-1.01,-0.73,0.56,0.37,-0.29,
0.553,-3.14,-1.01,-0.73,0.43,0.37,-0.26,
0.556,-3.14,-1.01,-0.73,0.20,0.36,-0.22,
0.56,-3.14,-1.01,-0.73,0.12,0.35,-0.20,
0.56,-3.14,-1.01,-0.73,-0.04,0.33,-0.18,
0.563,-3.41,-0.95,-2.45,-0.04,0.33,-0.18,
0.564,-3.41,-0.95,-2.45,-0.20,0.31,-0.15,
0.565,-3.41,-0.95,-2.45,-0.37,0.30,-0.13,
0.567,-3.41,-0.95,-2.45,-0.61,0.29,-0.09,
0.567,-3.41,-0.95,-2.45,-0.68,0.28,-0.08,
0.573,-3.41,-0.95,-2.45,-0.83,0.28,-0.06,
0.574,-3.33,-0.82,-3.30,-0.83,0.28,-0.06,
0.575,-3.33,-0.82,-3.30,-0.96,0.28,-0.04,
0.575,-3.33,-0.82,-3.30,-1.08,0.28,-0.02,
0.588,-3.33,-0.82,-3.30,-1.24,0.25,0.01,
0.588,-3.33,-0.82,-3.30,-1.28,0.23,0.01,
0.588,-3.33,-0.82,-3.30,-1.36,0.18,0.02,
0.588,-3.00,-1.53,-2.12,-1.36,0.18,0.02,
0.589,-3.00,-1.53,-2.12,-1.43,0.12,0.02,
0.589,-3.00,-1.53,-2.12,-1.48,0.04,0.01,
0.589,-3.00,-1.53,-2.12,-1.54,-0.08,-0.01,
0.589,-3.00,-1.53,-2.12,-1.56,-0.12,-0.02,
0.606,-3.00,-1.53,-2.12,-1.58,-0.19,-0.04,
0.607,-2.34,-2.75,-0.21,-1.58,-0.19,-0.04,
0.625,-2.34,-2.75,-0.21,-1.61,-0.24,-0.07,
0.626,-2.34,-2.75,-0.21,-1.63,-0.29,-0.09,
0.626,-2.34,-2.75,-0.21,-1.64,-0.33,-0.13,
0.626,-2.34,-2.75,-0.21,-1.65,-0.33,-0.14,
0.626,-2.34,-2.75,-0.21,-1.66,-0.33,-0.16,
0.627,-2.08,-2.98,-0.34,-1.66,-0.33,-0.16,
0.627,-2.08,-2.98,-0.34,-1.66,-0.32,-0.19,
0.627,-2.08,-2.98,-0.34,-1.66,-0.30,-0.21,
0.627,-2.08,-2.98,-0.34,-1.66,-0.25,-0.25,
0.628,-2.08,-2.98,-0.34,-1.66,-0.23,-0.26,
0.628,-2.08,-2.98,-0.34,-1.65,-0.19,-0.28,
0.628,-1.86,-2.49,-1.07,-1.65,-0.19,-0.28,
0.628,-1.86,-2.49,-1.07,-1.64,-0.15,-0.31,
0.629,-1.86,-2.49,-1.07,-1.63,-0.10,-0.34,
0.629,-1.86,-2.49,-1.07,-1.62,-0.04,-0.39,
0.629,-1.86,-2.49,-1.07,-1.61,-0.01,-0.40,
0.63,-1.86,-2.49,-1.07,-1.59,0.04,-0.44,
0.63,-1.39,-2.24,-1.31,-1.59,0.04,-0.44,
0.63,-1.39,-2.24,-1.31,-1.58,0.09,-0.48,
0.63,-1.39,-2.24,-1.31,-1.57,0.14,-0.53,
0.631,-1.39,-2.24,-1.31,-1.55,0.21,-0.61,
0.631,-1.39,-2.24,-1.31,-1.55,0.23,-0.64,
0.631,-1.39,-2.24,-1.31,-1.53,0.26,-0.68,
0.631,-0.70,-2.23,-1.52,-1.53,0.26,-0.68,
0.632,-0.70,-2.23,-1.52,-1.53,0.27,-0.73,
0.642,-0.70,-2.23,-1.52,-1.52,0.29,-0.77,
0.642,-0.70,-2.23,-1.52,-1.51,0.29,-0.85,
0.642,-0.70,-2.23,-1.52,-1.50,0.29,-0.88,
0.643,-0.70,-2.23,-1.52,-1.50,0.28,-0.93,
0.643,-0.11,-2.55,-1.68,-1.50,0.28,-0.93,
0.643,-0.11,-2.55,-1.68,-1.49,0.26,-0.99,
0.665,-0.11,-2.55,-1.68,-1.48,0.25,-1.05,
0.666,-0.11,-2.55,-1.68,-1.47,0.22,-1.15,
0.666,-0.11,-2.55,-1.68,-1.47,0.22,-1.18,
0.666,-0.11,-2.55,-1.68,-1.46,0.20,-1.24,
0.666,0.26,-2.97,-1.90,-1.46,0.20,-1.24,
0.667,0.26,-2.97,-1.90,-1.45,0.19,-1.30,
0.667,0.26,-2.97,-1.90,-1.45,0.17,-1.36,
0.667,0.26,-2.97,-1.90,-1.45,0.17,-1.44,
0.667,0.26,-2.97,-1.90,-1.45,0.16,-1.47,
0.667,0.26,-2.97,-1.90,-1.46,0.16,-1.51,
0.668,-0.03,-3.75,-2.33,-1.46,0.16,-1.51,
0.668,-0.03,-3.75,-2.33,-1.47,0.17,-1.55,
0.668,-0.03,-3.75,-2.33,-1.50,0.18,-1.57,
0.67,-0.03,-3.75,-2.33,-1.55,0.19,-1.60,
0.671,-0.03,-3.75,-2.33,-1.57,0.20,-1.60,
0.672,-0.03,-3.75,-2.33,-1.62,0.20,-1.60,
0.675,-1.24,-4.58,-3.53,-1.62,0.20,-1.60,
0.676,-1.24,-4.58,-3.53,-1.68,0.19,-1.60,
0.677,-1.24,-4.58,-3.53,-1.75,0.18,-1.60,
0.681,-1.24,-4.58,-3.53,-1.88,0.15,-1.58,
0.682,-1.24,-4.58,-3.53,-1.93,0.14,-1.57,
0.682,-1.24,-4.58,-3.53,-2.04,0.11,-1.56,
0.683,-2.09,-5.57,-4.90,-2.04,0.11,-1.56,
0.683,-2.09,-5.57,-4.90,-2.16,0.09,-1.54,
0.698,-2.09,-5.57,-4.90,-2.29,0.06,-1.53,
0.7,-2.09,-5.57,-4.90,-2.50,0.04,-1.51,
0.7,-2.09,-5.57,-4.90,-2.57,0.04,-1.50,
0.7,-2.09,-5.57,-4.90,-2.73,0.04,-1.49,
0.702,-2.16,-5.72,-6.43,-2.73,0.04,-1.49,
0.702,-2.16,-5.72,-6.43,-2.89,0.04,-1.48,
0.703,-2.16,-5.72,-6.43,-3.05,0.06,-1.47,
0.705,-2.16,-5.72,-6.43,-3.30,0.09,-1.45,
0.705,-2.16,-5.72,-6.43,-3.38,0.11,-1.44,
0.705,-2.16,-5.72,-6.43,-3.54,0.14,-1.43,
0.705,-1.91,-5.69,-6.72,-3.54,0.14,-1.43,
0.705,-1.91,-5.69,-6.72,-3.70,0.18,-1.41,
0.709,-1.91,-5.69,-6.72,-3.86,0.22,-1.39,
0.711,-1.91,-5.69,-6.72,-4.10,0.26,-1.36,
0.712,-1.91,-5.69,-6.72,-4.17,0.27,-1.35,
0.712,-1.91,-5.69,-6.72,-4.31,0.30,-1.33,
0.713,-1.64,-4.88,-5.59,-4.31,0.30,-1.33,
0.713,-1.64,-4.88,-5.59,-4.44,0.33,-1.32,
0.714,-1.64,-4.88,-5.59,-4.57,0.36,-1.30,
0.716,-1.64,-4.88,-5.59,-4.73,0.39,-1.29,
0.718,-1.64,-4.88,-5.59,-4.78,0.40,-1.29,
0.719,-1.64,-4.88,-5.59,-4.87,0.42,-1.29,
0.728,-0.74,-4.11,-3.29,-4.87,0.42,-1.29,
0.732,-0.74,-4.11,-3.29,-4.95,0.43,-1.29,
0.733,-0.74,-4.11,-3.29,-5.01,0.44,-1.30,
0.733,-0.74,-4.11,-3.29,-5.09,0.45,-1.32,
0.734,-0.74,-4.11,-3.29,-5.11,0.45,-1.32,
0.734,-0.74,-4.11,-3.29,-5.15,0.46,-1.34,
0.734,0.30,-3.40,-1.47,-5.15,0.46,-1.34,
0.734,0.30,-3.40,-1.47,-5.17,0.45,-1.36,
0.735,0.30,-3.40,-1.47,-5.18,0.45,-1.38,
0.736,0.30,-3.40,-1.47,-5.19,0.44,-1.41,
0.737,0.30,-3.40,-1.47,-5.19,0.43,-1.42,
0.739,0.30,-3.40,-1.47,-5.18,0.42,-1.44,
0.742,1.20,-3.19,-0.44,-5.18,0.42,-1.44,
0.742,1.20,-3.19,-0.44,-5.17,0.42,-1.47,
0.747,1.20,-3.19,-0.44,-5.15,0.42,-1.48,
0.747,1.20,-3.19,-0.44,-5.11,0.41,-1.51,
0.748,1.20,-3.19,-0.44,-5.10,0.41,-1.51,
0.756,1.20,-3.19,-0.44,-5.07,0.40,-1.52,
0.757,1.68,-3.32,0.36,-5.07,0.40,-1.52,
0.757,1.68,-3.32,0.36,-5.04,0.39,-1.53,
0.757,1.68,-3.32,0.36,-5.01,0.38,-1.54,
0.757,1.68,-3.32,0.36,-4.96,0.35,-1.55,
0.774,1.68,-3.32,0.36,-4.93,0.32,-1.55,
0.791,1.68,-3.32,0.36,-4.91,0.29,-1.56,
0.792,1.90,-3.70,1.18,-4.91,0.29,-1.56,
0.792,1.90,-3.70,1.18,-4.89,0.28,-1.56,
0.793,1.90,-3.70,1.18,-4.88,0.25,-1.56,
0.793,1.90,-3.70,1.18,-4.85,0.20,-1.55,
0.793,1.90,-3.70,1.18,-4.85,0.18,-1.55,
0.793,1.90,-3.70,1.18,-4.84,0.14,-1.55,
0.793,1.78,-3.39,1.83,-4.84,0.14,-1.55,
0.794,1.78,-3.39,1.83,-4.83,0.10,-1.54,
0.794,1.78,-3.39,1.83,-4.83,0.05,-1.53,
0.794,1.78,-3.39,1.83,-4.84,-0.03,-1.51,
0.794,1.78,-3.39,1.83,-4.84,-0.05,-1.51,
0.795,1.78,-3.39,1.83,-4.86,-0.10,-1.50,
0.795,1.80,-2.80,2.30,-4.86,-0.10,-1.50,
0.795,1.80,-2.80,2.30,-4.88,-0.15,-1.50,
0.795,1.80,-2.80,2.30,-4.90,-0.20,-1.49,
0.795,1.80,-2.80,2.30,-4.94,-0.25,-1.48,
0.796,1.80,-2.80,2.30,-4.95,-0.26,-1.48,
0.796,1.80,-2.80,2.30,-4.98,-0.28,-1.48,
0.796,2.13,-1.88,2.50,-4.98,-0.28,-1.48,
0.796,2.13,-1.88,2.50,-5.01,-0.29,-1.48,
0.796,2.13,-1.88,2.50,-5.04,-0.31,-1.47,
0.797,2.13,-1.88,2.50,-5.09,-0.32,-1.46,
0.801,2.13,-1.88,2.50,-5.10,-0.33,-1.45,
0.801,2.13,-1.88,2.50,-5.13,-0.35,-1.44,
0.801,2.16,-0.94,2.60,-5.13,-0.35,-1.44,
0.801,2.16,-0.94,2.60,-5.17,-0.37,-1.42,
0.803,2.16,-0.94,2.60,-5.20,-0.39,-1.41,
0.806,2.16,-0.94,2.60,-5.25,-0.42,-1.38,
0.807,2.16,-0.94,2.60,-5.27,-0.44,-1.37,
0.809,2.16,-0.94,2.60,-5.30,-0.46,-1.36,
0.813,2.10,-0.33,2.81,-5.30,-0.46,-1.36,
0.813,2.10,-0.33,2.81,-5.32,-0.47,-1.34,
0.815,2.10,-0.33,2.81,-5.35,-0.49,-1.33,
0.816,2.10,-0.33,2.81,-5.38,-0.51,-1.31,
0.817,2.10,-0.33,2.81,-5.39,-0.52,-1.31,
0.819,2.10,-0.33,2.81,-5.40,-0.53,-1.30,
0.821,2.23,0.14,3.18,-5.40,-0.53,-1.30,
0.821,2.23,0.14,3.18,-5.41,-0.54,-1.30,
0.823,2.23,0.14,3.18,-5.41,-0.55,-1.30,
0.827,2.23,0.14,3.18,-5.41,-0.58,-1.31,
0.827,2.23,0.14,3.18,-5.41,-0.60,-1.31,
0.829,2.23,0.14,3.18,-5.39,-0.62,-1.31,
0.832,2.38,0.73,4.08,-5.39,-0.62,-1.31,
0.833,2.38,0.73,4.08,-5.38,-0.65,-1.32,
0.833,2.38,0.73,4.08,-5.35,-0.67,-1.34,
0.836,2.38,0.73,4.08,-5.31,-0.70,-1.35,
0.837,2.38,0.73,4.08,-5.29,-0.71,-1.36,
0.839,2.38,0.73,4.08,-5.25,-0.72,-1.37,
0.841,2.33,1.51,5.07,-5.25,-0.72,-1.37,
0.841,2.33,1.51,5.07,-5.21,-0.74,-1.38,
0.843,2.33,1.51,5.07,-5.16,-0.74,-1.38,
0.847,2.33,1.51,5.07,-5.09,-0.75,-1.39,
0.848,2.33,1.51,5.07,-5.06,-0.76,-1.39,
0.849,2.33,1.51,5.07,-5.00,-0.76,-1.39,
0.851,2.02,2.26,5.92,-5.00,-0.76,-1.39,
0.851,2.02,2.26,5.92,-4.94,-0.77,-1.40,
0.853,2.02,2.26,5.92,-4.87,-0.78,-1.40,
0.856,2.02,2.26,5.92,-4.75,-0.80,-1.39,
0.857,2.02,2.26,5.92,-4.71,-0.81,-1.40,
0.859,2.02,2.26,5.92,-4.63,-0.83,-1.39,
0.861,1.86,3.20,7.22,-4.63,-0.83,-1.39,
0.862,1.86,3.20,7.22,-4.55,-0.85,-1.39,
0.863,1.86,3.20,7.22,-4.47,-0.89,-1.39,
0.866,1.86,3.20,7.22,-4.34,-0.94,-1.38,
0.867,1.86,3.20,7.22,-4.29,-0.95,-1.38,
0.869,1.86,3.20,7.22,-4.21,-0.97,-1.38,
0.871,1.89,3.85,7.92,-4.21,-0.97,-1.38,
0.871,1.89,3.85,7.92,-4.12,-0.99,-1.38,
0.873,1.89,3.85,7.92,-4.03,-1.00,-1.37,
0.876,1.89,3.85,7.92,-3.90,-1.04,-1.36,
0.878,1.89,3.85,7.92,-3.85,-1.05,-1.36,
0.879,1.89,3.85,7.92,-3.77,-1.09,-1.36,
0.881,2.06,4.23,8.59,-3.77,-1.09,-1.36,
0.881,2.06,4.23,8.59,-3.68,-1.14,-1.36,
0.883,2.06,4.23,8.59,-3.59,-1.20,-1.37,
0.886,2.06,4.23,8.59,-3.48,-1.28,-1.39,
0.887,2.06,4.23,8.59,-3.44,-1.31,-1.40,
0.889,2.06,4.23,8.59,-3.37,-1.34,-1.42,
0.891,2.96,3.35,8.95,-3.37,-1.34,-1.42,
0.892,2.96,3.35,8.95,-3.31,-1.37,-1.45,
0.898,2.96,3.35,8.95,-3.26,-1.39,-1.47,
0.898,2.96,3.35,8.95,-3.19,-1.41,-1.51,
0.898,2.96,3.35,8.95,-3.17,-1.41,-1.52,
0.899,2.96,3.35,8.95,-3.14,-1.41,-1.54,
0.901,3.53,2.44,8.33,-3.14,-1.41,-1.54,
0.901,3.53,2.44,8.33,-3.12,-1.43,-1.56,
0.903,3.53,2.44,8.33,-3.11,-1.45,-1.58,
0.906,3.53,2.44,8.33,-3.11,-1.51,-1.62,
0.907,3.53,2.44,8.33,-3.11,-1.54,-1.63,
0.92,3.53,2.44,8.33,-3.12,-1.59,-1.66,
0.92,3.66,1.42,7.70,-3.12,-1.59,-1.66,
0.92,3.66,1.42,7.70,-3.14,-1.64,-1.70,
0.92,3.66,1.42,7.70,-3.17,-1.69,-1.73,
0.921,3.66,1.42,7.70,-3.22,-1.75,-1.79,
0.921,3.66,1.42,7.70,-3.23,-1.77,-1.81,
0.921,3.66,1.42,7.70,-3.27,-1.80,-1.85,
0.922,4.18,1.15,7.14,-3.27,-1.80,-1.85,
0.922,4.18,1.15,7.14,-3.30,-1.83,-1.88,
0.923,4.18,1.15,7.14,-3.33,-1.84,-1.92,
0.933,4.18,1.15,7.14,-3.37,-1.85,-1.98,
0.933,4.18,1.15,7.14,-3.37,-1.86,-2.00,
0.933,4.18,1.15,7.14,-3.39,-1.86,-2.04,
0.934,4.31,1.46,7.21,-3.39,-1.86,-2.04,
0.934,4.31,1.46,7.21,-3.39,-1.86,-2.09,
0.934,4.31,1.46,7.21,-3.40,-1.87,-2.13,
0.936,4.31,1.46,7.21,-3.38,-1.88,-2.19,
0.937,4.31,1.46,7.21,-3.37,-1.89,-2.21,
0.939,4.31,1.46,7.21,-3.36,-1.91,-2.25,
0.941,4.06,1.63,7.98,-3.36,-1.91,-2.25,
0.941,4.06,1.63,7.98,-3.33,-1.94,-2.30,
0.943,4.06,1.63,7.98,-3.31,-1.97,-2.34,
0.946,4.06,1.63,7.98,-3.25,-2.02,-2.39,
0.947,4.06,1.63,7.98,-3.23,-2.03,-2.41,
0.949,4.06,1.63,7.98,-3.19,-2.07,-2.44,
0.951,3.41,1.73,8.78,-3.19,-2.07,-2.44,
0.951,3.41,1.73,8.78,-3.14,-2.12,-2.47,
0.953,3.41,1.73,8.78,-3.08,-2.17,-2.49,
0.956,3.41,1.73,8.78,-3.00,-2.26,-2.52,
0.957,3.41,1.73,8.78,-2.97,-2.28,-2.52,
0.959,3.41,1.73,8.78,-2.91,-2.33,-2.54,
0.961,2.21,2.14,9.54,-2.91,-2.33,-2.54,
0.961,2.21,2.14,9.54,-2.85,-2.37,-2.55,
0.963,2.21,2.14,9.54,-2.78,-2.40,-2.55,
0.966,2.21,2.14,9.54,-2.69,-2.45,-2.55,
0.967,2.21,2.14,9.54,-2.66,-2.46,-2.55,
0.969,2.21,2.14,9.54,-2.60,-2.50,-2.54,
0.971,0.86,2.28,9.32,-2.60,-2.50,-2.54,
0.971,0.86,2.28,9.32,-2.55,-2.52,-2.52,
0.973,0.86,2.28,9.32,-2.49,-2.54,-2.51,
0.976,0.86,2.28,9.32,-2.40,-2.53,-2.47,
0.977,0.86,2.28,9.32,-2.37,-2.52,-2.46,
0.979,0.86,2.28,9.32,-2.32,-2.52,-2.43,
0.981,-0.57,2.35,9.07,-2.32,-2.52,-2.43,
0.981,-0.57,2.35,9.07,-2.27,-2.52,-2.39,
0.983,-0.57,2.35,9.07,-2.22,-2.53,-2.35,
0.986,-0.57,2.35,9.07,-2.16,-2.55,-2.28,
0.987,-0.57,2.35,9.07,-2.14,-2.56,-2.25,
0.99,-0.57,2.35,9.07,-2.10,-2.58,-2.20,
0.991,-2.10,1.85,8.06,-2.10,-2.58,-2.20,
0.991,-2.10,1.85,8.06,-2.07,-2.59,-2.14,
0.993,-2.10,1.85,8.06,-2.04,-2.61,-2.08,
0.998,-2.10,1.85,8.06,-2.01,-2.62,-1.98,
0.999,-2.10,1.85,8.06,-2.00,-2.63,-1.94,
0.999,-2.10,1.85,8.06,-1.99,-2.64,-1.87,
1.001,-3.35,1.63,6.46,-1.99,-2.64,-1.87,
1.001,-3.35,1.63,6.46,-1.98,-2.64,-1.79,
1.003,-3.35,1.63,6.46,-1.97,-2.64,-1.72,
1.006,-3.35,1.63,6.46,-1.97,-2.63,-1.60,
1.007,-3.35,1.63,6.46,-1.97,-2.63,-1.56,
1.01,-3.35,1.63,6.46,-1.97,-2.62,-1.48,
1.012,-3.96,1.65,4.60,-1.97,-2.62,-1.48,
1.012,-3.96,1.65,4.60,-1.98,-2.62,-1.40,
1.013,-3.96,1.65,4.60,-1.99,-2.61,-1.32,
1.016,-3.96,1.65,4.60,-2.02,-2.60,-1.22,
1.017,-3.96,1.65,4.60,-2.04,-2.59,-1.19,
1.019,-3.96,1.65,4.60,-2.06,-2.58,-1.12,
1.022,-4.11,1.34,2.70,-2.06,-2.58,-1.12,
1.023,-4.11,1.34,2.70,-2.09,-2.56,-1.06,
1.023,-4.11,1.34,2.70,-2.12,-2.53,-1.01,
1.027,-4.11,1.34,2.70,-2.17,-2.46,-0.94,
1.028,-4.11,1.34,2.70,-2.18,-2.44,-0.92,
1.029,-4.11,1.34,2.70,-2.21,-2.38,-0.89,
1.032,-3.62,1.18,1.07,-2.21,-2.38,-0.89,
1.032,-3.62,1.18,1.07,-2.23,-2.32,-0.86,
1.037,-3.62,1.18,1.07,-2.26,-2.25,-0.84,
1.038,-3.62,1.18,1.07,-2.29,-2.14,-0.81,
1.038,-3.62,1.18,1.07,-2.29,-2.10,-0.81,
1.04,-3.62,1.18,1.07,-2.30,-2.01,-0.81,
1.043,-2.99,1.26,0.31,-2.30,-2.01,-0.81,
1.043,-2.99,1.26,0.31,-2.31,-1.92,-0.81,
1.043,-2.99,1.26,0.31,-2.31,-1.81,-0.82,
1.046,-2.99,1.26,0.31,-2.29,-1.64,-0.86,
1.047,-2.99,1.26,0.31,-2.29,-1.58,-0.87,
1.049,-2.99,1.26,0.31,-2.27,-1.45,-0.91,
1.053,-2.09,1.21,0.52,-2.27,-1.45,-0.91,
1.054,-2.09,1.21,0.52,-2.25,-1.32,-0.95,
1.054,-2.09,1.21,0.52,-2.23,-1.18,-1.00,
1.059,-2.09,1.21,0.52,-2.19,-0.97,-1.09,
1.059,-2.09,1.21,0.52,-2.17,-0.91,-1.12,
1.059,-2.09,1.21,0.52,-2.14,-0.78,-1.19,
1.062,-1.58,1.23,1.59,-2.14,-0.78,-1.19,
1.063,-1.58,1.23,1.59,-2.10,-0.65,-1.26,
1.063,-1.58,1.23,1.59,-2.07,-0.52,-1.33,
1.067,-1.58,1.23,1.59,-2.00,-0.37,-1.44,
1.067,-1.58,1.23,1.59,-1.97,-0.32,-1.47,
1.069,-1.58,1.23,1.59,-1.91,-0.24,-1.53,
1.072,-1.88,1.50,2.84,-1.91,-0.24,-1.53,
1.072,-1.88,1.50,2.84,-1.85,-0.16,-1.58,
1.074,-1.88,1.50,2.84,-1.77,-0.11,-1.62,
1.076,-1.88,1.50,2.84,-1.63,-0.07,-1.65,
1.08,-1.88,1.50,2.84,-1.57,-0.07,-1.66,
1.08,-1.88,1.50,2.84,-1.43,-0.10,-1.65,
1.083,-3.62,1.96,6.17,-1.43,-0.10,-1.65,
1.084,-3.62,1.96,6.17,-1.25,-0.17,-1.63,
1.084,-3.62,1.96,6.17,-1.04,-0.28,-1.58,
1.086,-3.62,1.96,6.17,-0.65,-0.52,-1.47,
1.087,-3.62,1.96,6.17,-0.51,-0.60,-1.43,
1.089,-3.62,1.96,6.17,-0.23,-0.77,-1.33,
1.091,-6.63,2.03,12.16,-0.23,-0.77,-1.33,
1.105,-6.63,2.03,12.16,0.03,-0.91,-1.22,
1.106,-6.63,2.03,12.16,0.26,-1.00,-1.11,
1.106,-6.63,2.03,12.16,0.54,-1.08,-0.95,
1.106,-6.63,2.03,12.16,0.62,-1.10,-0.90,
1.106,-6.63,2.03,12.16,0.75,-1.10,-0.82,
1.106,-6.71,1.91,9.88,0.75,-1.10,-0.82,
1.107,-6.71,1.91,9.88,0.86,-1.08,-0.74,
1.107,-6.71,1.91,9.88,0.94,-1.05,-0.67,
1.107,-6.71,1.91,9.88,1.02,-0.99,-0.60,
1.111,-6.71,1.91,9.88,1.06,-0.92,-0.55,
1.116,-6.71,1.91,9.88,1.06,-0.89,-0.54,
1.116,-3.86,1.96,5.66,1.06,-0.89,-0.54,
1.116,-3.86,1.96,5.66,1.06,-0.86,-0.54,
1.116,-3.86,1.96,5.66,1.05,-0.81,-0.54,
1.117,-3.86,1.96,5.66,1.01,-0.74,-0.56,
1.117,-3.86,1.96,5.66,0.99,-0.72,-0.57,
1.119,-3.86,1.96,5.66,0.94,-0.69,-0.61,
1.121,-1.50,1.16,3.82,0.94,-0.69,-0.61,
1.122,-1.50,1.16,3.82,0.89,-0.65,-0.64,
1.124,-1.50,1.16,3.82,0.83,-0.61,-0.68,
1.126,-1.50,1.16,3.82,0.72,-0.56,-0.73,
1.127,-1.50,1.16,3.82,0.68,-0.54,-0.75,
1.129,-1.50,1.16,3.82,0.59,-0.50,-0.78,
1.132,-0.04,0.01,2.43,0.59,-0.50,-0.78,
1.132,-0.04,0.01,2.43,0.51,-0.45,-0.81,
1.133,-0.04,0.01,2.43,0.43,-0.42,-0.84,
1.141,-0.04,0.01,2.43,0.31,-0.36,-0.87,
1.142,-0.04,0.01,2.43,0.27,-0.34,-0.88,
1.142,-0.04,0.01,2.43,0.20,-0.31,-0.89,
1.142,0.17,-0.54,1.67,0.20,-0.31,-0.89,
1.142,0.17,-0.54,1.67,0.13,-0.26,-0.90,
1.143,0.17,-0.54,1.67,0.05,-0.22,-0.90,
1.146,0.17,-0.54,1.67,-0.04,-0.16,-0.89,
1.149,0.17,-0.54,1.67,-0.06,-0.14,-0.89,
1.149,0.17,-0.54,1.67,-0.12,-0.09,-0.88,
1.151,-0.13,-0.68,1.11,-0.12,-0.09,-0.88,
1.151,-0.13,-0.68,1.11,-0.16,-0.04,-0.87,
1.153,-0.13,-0.68,1.11,-0.19,0.03,-0.85,
1.156,-0.13,-0.68,1.11,-0.24,0.14,-0.83,
1.159,-0.13,-0.68,1.11,-0.25,0.17,-0.83,
1.16,-0.13,-0.68,1.11,-0.25,0.25,-0.82,
1.162,-0.31,-0.29,1.05,-0.25,0.25,-0.82,
1.162,-0.31,-0.29,1.05,-0.25,0.32,-0.81,
1.164,-0.31,-0.29,1.05,-0.24,0.40,-0.80,
1.167,-0.31,-0.29,1.05,-0.23,0.52,-0.78,
1.17,-0.31,-0.29,1.05,-0.22,0.56,-0.78,
1.17,-0.31,-0.29,1.05,-0.21,0.65,-0.77,
1.172,-0.20,0.26,0.91,-0.21,0.65,-0.77,
1.172,-0.20,0.26,0.91,-0.19,0.73,-0.76,
1.173,-0.20,0.26,0.91,-0.17,0.81,-0.75,
1.177,-0.20,0.26,0.91,-0.14,0.92,-0.73,
1.179,-0.20,0.26,0.91,-0.14,0.96,-0.73,
1.179,-0.20,0.26,0.91,-0.12,1.04,-0.71,
1.181,-0.15,0.36,0.38,-0.12,1.04,-0.71,
1.182,-0.15,0.36,0.38,-0.11,1.10,-0.68,
1.183,-0.15,0.36,0.38,-0.11,1.16,-0.65,
1.186,-0.15,0.36,0.38,-0.12,1.22,-0.61,
1.188,-0.15,0.36,0.38,-0.12,1.23,-0.60,
1.189,-0.15,0.36,0.38,-0.13,1.23,-0.56,
1.197,-0.42,-0.03,-0.59,-0.13,1.23,-0.56,
1.197,-0.42,-0.03,-0.59,-0.16,1.22,-0.53,
1.197,-0.42,-0.03,-0.59,-0.19,1.17,-0.50,
1.197,-0.42,-0.03,-0.59,-0.25,1.07,-0.45,
1.197,-0.42,-0.03,-0.59,-0.27,1.02,-0.44,
1.199,-0.42,-0.03,-0.59,-0.33,0.93,-0.40,
1.201,-0.57,-1.15,-1.80,-0.33,0.93,-0.40,
1.201,-0.57,-1.15,-1.80,-0.40,0.85,-0.37,
1.205,-0.57,-1.15,-1.80,-0.47,0.78,-0.35,
1.206,-0.57,-1.15,-1.80,-0.60,0.71,-0.32,
1.21,-0.57,-1.15,-1.80,-0.65,0.69,-0.32,
1.21,-0.57,-1.15,-1.80,-0.75,0.66,-0.30,
1.211,-0.02,-2.07,-3.88,-0.75,0.66,-0.30,
1.211,-0.02,-2.07,-3.88,-0.85,0.63,-0.30,
1.213,-0.02,-2.07,-3.88,-0.95,0.61,-0.29,
1.216,-0.02,-2.07,-3.88,-1.09,0.60,-0.29,
1.217,-0.02,-2.07,-3.88,-1.14,0.60,-0.29,
1.219,-0.02,-2.07,-3.88,-1.22,0.61,-0.30,
1.221,0.47,-2.42,-5.12,-1.22,0.61,-0.30,
1.221,0.47,-2.42,-5.12,-1.30,0.62,-0.31,
1.223,0.47,-2.42,-5.12,-1.38,0.64,-0.33,
1.227,0.47,-2.42,-5.12,-1.48,0.67,-0.37,
1.228,0.47,-2.42,-5.12,-1.52,0.68,-0.38,
1.229,0.47,-2.42,-5.12,-1.57,0.71,-0.42,
1.231,0.82,-2.34,-5.06,-1.57,0.71,-0.42,
1.232,0.82,-2.34,-5.06,-1.62,0.74,-0.45,
1.233,0.82,-2.34,-5.06,-1.66,0.76,-0.49,
1.236,0.82,-2.34,-5.06,-1.71,0.80,-0.55,
1.24,0.82,-2.34,-5.06,-1.72,0.81,-0.57,
1.24,0.82,-2.34,-5.06,-1.73,0.82,-0.61,
1.242,0.71,-1.87,-4.03,-1.73,0.82,-0.61,
1.242,0.71,-1.87,-4.03,-1.73,0.83,-0.65,
1.243,0.71,-1.87,-4.03,-1.72,0.83,-0.68,
1.246,0.71,-1.87,-4.03,-1.68,0.81,-0.72,
1.247,0.71,-1.87,-4.03,-1.67,0.81,-0.74,
1.249,0.71,-1.87,-4.03,-1.63,0.79,-0.76,
1.251,0.06,-0.61,-1.97,-1.63,0.79,-0.76,
1.251,0.06,-0.61,-1.97,-1.59,0.77,-0.77,
1.253,0.06,-0.61,-1.97,-1.54,0.74,-0.78,
1.256,0.06,-0.61,-1.97,-1.46,0.69,-0.78,
1.257,0.06,-0.61,-1.97,-1.43,0.67,-0.78,
1.28,0.06,-0.61,-1.97,-1.37,0.63,-0.77,
1.28,-1.17,0.48,-0.33,-1.37,0.63,-0.77,
1.28,-1.17,0.48,-0.33,-1.31,0.59,-0.76,
1.281,-1.17,0.48,-0.33,-1.24,0.55,-0.74,
1.281,-1.17,0.48,-0.33,-1.15,0.49,-0.70,
1.281,-1.17,0.48,-0.33,-1.12,0.47,-0.69,
1.281,-1.17,0.48,-0.33,-1.06,0.43,-0.66,
1.282,-2.13,0.96,0.61,-1.06,0.43,-0.66,
1.282,-2.13,0.96,0.61,-1.00,0.39,-0.63,
1.282,-2.13,0.96,0.61,-0.94,0.36,-0.60,
1.282,-2.13,0.96,0.61,-0.87,0.31,-0.55,
1.283,-2.13,0.96,0.61,-0.84,0.30,-0.54,
1.283,-2.13,0.96,0.61,-0.80,0.25,-0.50,
1.283,-2.70,0.87,0.93,-0.80,0.25,-0.50,
1.284,-2.70,0.87,0.93,-0.77,0.21,-0.47,
1.284,-2.70,0.87,0.93,-0.74,0.16,-0.44,
1.294,-2.70,0.87,0.93,-0.71,0.10,-0.39,
1.294,-2.70,0.87,0.93,-0.70,0.08,-0.37,
1.294,-2.70,0.87,0.93,-0.69,0.04,-0.34,
1.295,-2.74,0.37,0.67,-0.69,0.04,-0.34,
1.295,-2.74,0.37,0.67,-0.69,0.01,-0.32,
1.295,-2.74,0.37,0.67,-0.69,-0.01,-0.29,
1.296,-2.74,0.37,0.67,-0.71,-0.05,-0.26,
1.3,-2.74,0.37,0.67,-0.72,-0.06,-0.25,
1.301,-2.74,0.37,0.67,-0.74,-0.08,-0.23,
1.302,-2.31,-0.33,0.12,-0.74,-0.08,-0.23,
1.302,-2.31,-0.33,0.12,-0.76,-0.10,-0.21,
1.303,-2.31,-0.33,0.12,-0.78,-0.11,-0.19,
1.306,-2.31,-0.33,0.12,-0.82,-0.12,-0.17,
1.321,-2.31,-0.33,0.12,-0.84,-0.13,-0.17,
1.322,-2.31,-0.33,0.12,-0.86,-0.14,-0.16,
1.322,-1.72,-0.97,-0.10,-0.86,-0.14,-0.16,
1.322,-1.72,-0.97,-0.10,-0.89,-0.15,-0.16,
1.323,-1.72,-0.97,-0.10,-0.91,-0.17,-0.16,
1.323,-1.72,-0.97,-0.10,-0.94,-0.20,-0.16,
1.323,-1.72,-0.97,-0.10,-0.95,-0.21,-0.16,
1.323,-1.72,-0.97,-0.10,-0.97,-0.23,-0.16,
1.323,-1.11,-1.41,0.19,-0.97,-0.23,-0.16,
1.324,-1.11,-1.41,0.19,-0.98,-0.25,-0.17,
1.324,-1.11,-1.41,0.19,-1.00,-0.28,-0.17,
1.326,-1.11,-1.41,0.19,-1.02,-0.33,-0.17,
1.334,-1.11,-1.41,0.19,-1.02,-0.35,-0.16,
1.335,-1.11,-1.41,0.19,-1.03,-0.39,-0.16,
1.336,-0.88,-1.36,0.74,-1.03,-0.39,-0.16,
1.336,-0.88,-1.36,0.74,-1.04,-0.43,-0.15,
1.336,-0.88,-1.36,0.74,-1.04,-0.46,-0.13,
1.337,-0.88,-1.36,0.74,-1.05,-0.53,-0.10,
1.342,-0.88,-1.36,0.74,-1.06,-0.63,-0.04,
1.342,-0.88,-1.36,0.74,-1.06,-0.63,-0.04,
1.345,-0.88,-1.36,0.74,-1.06,-0.63,-0.04,
1.346,-1.05,-1.13,0.95,-1.06,-0.63,-0.04,
1.346,-1.05,-1.13,0.95,-1.06,-0.71,0.01,
1.346,-1.05,-1.13,0.95,-1.05,-0.79,0.05,
1.347,-1.05,-1.13,0.95,-1.05,-0.84,0.08,
1.349,-1.05,-1.13,0.95,-1.05,-0.92,0.13,
1.351,-1.51,-0.51,1.52,-1.05,-0.92,0.13,
1.352,-1.51,-0.51,1.52,-1.04,-0.99,0.19,
1.353,-1.51,-0.51,1.52,-1.03,-1.05,0.25,
1.356,-1.51,-0.51,1.52,-1.00,-1.11,0.35,
1.357,-1.51,-0.51,1.52,-0.99,-1.13,0.38,
1.359,-1.51,-0.51,1.52,-0.97,-1.16,0.44,
1.362,-2.28,0.74,2.11,-0.97,-1.16,0.44,
1.363,-2.28,0.74,2.11,-0.93,-1.18,0.49,
1.363,-2.28,0.74,2.11,-0.89,-1.20,0.55,
1.366,-2.28,0.74,2.11,-0.83,-1.22,0.62,
1.368,-2.28,0.74,2.11,-0.81,-1.22,0.64,
1.369,-2.28,0.74,2.11,-0.76,-1.22,0.68,
1.371,-2.49,1.63,2.14,-0.76,-1.22,0.68,
1.372,-2.49,1.63,2.14,-0.71,-1.21,0.72,
1.374,-2.49,1.63,2.14,-0.66,-1.21,0.76,
1.376,-2.49,1.63,2.14,-0.56,-1.21,0.82,
1.377,-2.49,1.63,2.14,-0.53,-1.22,0.85,
1.379,-2.49,1.63,2.14,-0.45,-1.22,0.91,
1.381,-3.62,2.52,3.21,-0.45,-1.22,0.91,
1.382,-3.62,2.52,3.21,-0.37,-1.20,0.97,
1.383,-3.62,2.52,3.21,-0.29,-1.13,1.04,
1.386,-3.62,2.52,3.21,-0.16,-0.96,1.16,
1.387,-3.62,2.52,3.21,-0.12,-0.88,1.20,
1.389,-3.62,2.52,3.21,-0.02,-0.71,1.29,
1.393,-4.25,3.82,2.44,-0.02,-0.71,1.29,
1.394,-4.25,3.82,2.44,0.07,-0.53,1.36,
1.395,-4.25,3.82,2.44,0.17,-0.37,1.43,
1.397,-4.25,3.82,2.44,0.31,-0.16,1.51,
1.398,-4.25,3.82,2.44,0.36,-0.11,1.53,
1.399,-4.25,3.82,2.44,0.45,-0.03,1.57,
1.401,-2.88,3.17,1.65,0.45,-0.03,1.57,
1.402,-2.88,3.17,1.65,0.54,0.02,1.59,
1.403,-2.88,3.17,1.65,0.63,0.01,1.62,
1.407,-2.88,3.17,1.65,0.74,-0.07,1.66,
1.408,-2.88,3.17,1.65,0.77,-0.12,1.68,
1.411,-2.88,3.17,1.65,0.84,-0.23,1.73,
1.413,-3.09,2.04,2.23,0.84,-0.23,1.73,
1.413,-3.09,2.04,2.23,0.88,-0.28,1.80,
1.414,-3.09,2.04,2.23,0.91,-0.24,1.88,
1.417,-3.09,2.04,2.23,0.90,-0.06,2.01,
1.418,-3.09,2.04,2.23,0.89,-0.00,2.04,
1.42,-3.09,2.04,2.23,0.85,0.06,2.11,
1.421,-2.26,1.49,-2.11,0.85,0.06,2.11,
1.422,-2.26,1.49,-2.11,0.79,0.09,2.17,
1.427,-2.26,1.49,-2.11,0.71,0.11,2.21,
1.449,-2.26,1.49,-2.11,0.57,0.14,2.24,
1.449,-2.26,1.49,-2.11,0.51,0.15,2.24,
1.449,-2.26,1.49,-2.11,0.38,0.16,2.24,
1.45,0.28,-0.47,-5.35,0.38,0.16,2.24,
1.45,0.28,-0.47,-5.35,0.23,0.17,2.22,
1.45,0.28,-0.47,-5.35,0.08,0.19,2.18,
1.45,0.28,-0.47,-5.35,-0.17,0.19,2.11,
1.451,0.28,-0.47,-5.35,-0.26,0.18,2.08,
1.451,0.28,-0.47,-5.35,-0.43,0.16,2.01,
1.451,2.87,-1.71,-7.56,-0.43,0.16,2.01,
1.451,2.87,-1.71,-7.56,-0.60,0.14,1.94,
1.452,2.87,-1.71,-7.56,-0.77,0.15,1.87,
1.452,2.87,-1.71,-7.56,-1.02,0.19,1.78,
1.452,2.87,-1.71,-7.56,-1.10,0.21,1.74,
1.452,2.87,-1.71,-7.56,-1.26,0.26,1.69,
1.453,3.70,-1.70,-8.33,-1.26,0.26,1.69,
1.453,3.70,-1.70,-8.33,-1.41,0.31,1.63,
1.458,3.70,-1.70,-8.33,-1.56,0.38,1.58,
1.459,3.70,-1.70,-8.33,-1.76,0.49,1.51,
1.471,3.70,-1.70,-8.33,-1.93,0.62,1.45,
1.471,3.70,-1.70,-8.33,-1.98,0.66,1.43,
1.472,4.13,-1.65,-7.95,-1.98,0.66,1.43,
1.472,4.13,-1.65,-7.95,-2.03,0.71,1.41,
1.472,4.13,-1.65,-7.95,-2.13,0.80,1.38,
1.472,4.13,-1.65,-7.95,-2.25,0.92,1.34,
1.473,4.13,-1.65,-7.95,-2.29,0.97,1.32,
1.473,4.13,-1.65,-7.95,-2.34,1.05,1.30,
1.473,3.81,-1.48,-6.10,-2.34,1.05,1.30,
1.473,3.81,-1.48,-6.10,-2.38,1.14,1.28,
1.473,3.81,-1.48,-6.10,-2.41,1.23,1.27,
1.478,3.81,-1.48,-6.10,-2.41,1.36,1.26,
1.479,3.81,-1.48,-6.10,-2.41,1.41,1.26,
1.479,3.81,-1.48,-6.10,-2.38,1.50,1.27,
1.481,2.41,-0.87,-2.91,-2.38,1.50,1.27,
1.481,2.41,-0.87,-2.91,-2.34,1.59,1.28,
1.483,2.41,-0.87,-2.91,-2.29,1.65,1.29,
1.486,2.41,-0.87,-2.91,-2.19,1.72,1.31,
1.487,2.41,-0.87,-2.91,-2.11,1.74,1.32,
1.49,2.41,-0.87,-2.91,-2.06,1.75,1.33,
1.493,0.80,-0.45,0.42,-2.06,1.75,1.33,
1.493,0.80,-0.45,0.42,-1.96,1.75,1.35,
1.494,0.80,-0.45,0.42,-1.84,1.74,1.37,
1.496,0.80,-0.45,0.42,-1.65,1.69,1.40,
1.497,0.80,-0.45,0.42,-1.58,1.67,1.42,
1.499,0.80,-0.45,0.42,-1.44,1.63,1.45,
1.501,0.15,-0.69,3.98,-1.44,1.63,1.45,
1.501,0.15,-0.69,3.98,-1.28,1.59,1.48,
1.503,0.15,-0.69,3.98,-1.12,1.54,1.51,
1.506,0.15,-0.69,3.98,-0.86,1.45,1.57,
1.508,0.15,-0.69,3.98,-0.77,1.42,1.59,
1.509,0.15,-0.69,3.98,-0.59,1.36,1.63,
1.511,0.68,-0.83,6.47,-0.59,1.36,1.63,
1.512,0.68,-0.83,6.47,-0.41,1.28,1.67,
1.513,0.68,-0.83,6.47,-0.24,1.18,1.71,
1.516,0.68,-0.83,6.47,0.00,1.03,1.77,
1.517,0.68,-0.83,6.47,0.07,0.98,1.79,
1.519,0.68,-0.83,6.47,0.21,0.88,1.82,
1.521,1.64,-0.18,6.48,0.21,0.88,1.82,
1.522,1.64,-0.18,6.48,0.32,0.77,1.86,
1.524,1.64,-0.18,6.48,0.40,0.66,1.90,
1.527,1.64,-0.18,6.48,0.49,0.49,1.94,
1.527,1.64,-0.18,6.48,0.51,0.44,1.95,
1.529,1.64,-0.18,6.48,0.54,0.34,1.98,
1.531,2.13,0.44,4.16,0.54,0.34,1.98,
1.531,2.13,0.44,4.16,0.55,0.26,2.01,
1.533,2.13,0.44,4.16,0.55,0.19,2.03,
1.537,2.13,0.44,4.16,0.52,0.11,2.06,
1.537,2.13,0.44,4.16,0.50,0.08,2.08,
1.541,2.13,0.44,4.16,0.48,0.07,2.09,
1.541,1.90,0.29,2.45,0.48,0.07,2.09,
1.542,1.90,0.29,2.45,0.45,0.06,2.11,
1.543,1.90,0.29,2.45,0.41,0.06,2.14,
1.546,1.90,0.29,2.45,0.33,0.06,2.16,
1.548,1.90,0.29,2.45,0.30,0.06,2.17,
1.549,1.90,0.29,2.45,0.23,0.08,2.17,
1.552,1.08,-0.02,0.95,0.23,0.08,2.17,
1.553,1.08,-0.02,0.95,0.17,0.12,2.18,
1.553,1.08,-0.02,0.95,0.11,0.18,2.18,
1.556,1.08,-0.02,0.95,0.01,0.28,2.17,
1.557,1.08,-0.02,0.95,-0.03,0.32,2.16,
1.559,1.08,-0.02,0.95,-0.10,0.40,2.14,
1.561,-0.13,-0.18,-0.08,-0.10,0.40,2.14,
1.562,-0.13,-0.18,-0.08,-0.17,0.49,2.11,
1.563,-0.13,-0.18,-0.08,-0.25,0.59,2.07,
1.566,-0.13,-0.18,-0.08,-0.36,0.74,2.02,
1.568,-0.13,-0.18,-0.08,-0.39,0.80,1.99,
1.569,-0.13,-0.18,-0.08,-0.46,0.92,1.94,
1.571,-1.22,0.03,-0.96,-0.46,0.92,1.94,
1.572,-1.22,0.03,-0.96,-0.52,1.03,1.89,
1.589,-1.22,0.03,-0.96,-0.59,1.16,1.82,
1.59,-1.22,0.03,-0.96,-0.67,1.37,1.71,
1.59,-1.22,0.03,-0.96,-0.69,1.45,1.67,
1.59,-1.22,0.03,-0.96,-0.74,1.58,1.59,
1.591,-2.12,0.59,-1.10,-0.74,1.58,1.59,
1.591,-2.12,0.59,-1.10,-0.78,1.70,1.50,
1.591,-2.12,0.59,-1.10,-0.82,1.81,1.41,
1.592,-2.12,0.59,-1.10,-0.86,1.97,1.25,
1.592,-2.12,0.59,-1.10,-0.88,2.05,1.15,
1.592,-2.12,0.59,-1.10,-0.89,2.08,1.09,
1.595,-2.29,0.95,-0.12,-0.89,2.08,1.09,
1.621,-2.29,0.95,-0.12,-0.91,2.13,0.99,
1.622,-2.29,0.95,-0.12,-0.92,2.17,0.88,
1.622,-2.29,0.95,-0.12,-0.93,2.17,0.72,
1.622,-2.29,0.95,-0.12,-0.93,2.16,0.67,
1.622,-2.29,0.95,-0.12,-0.94,2.11,0.57,
1.623,-1.77,0.67,1.94,-0.94,2.11,0.57,
1.623,-1.77,0.67,1.94,-0.95,2.05,0.48,
1.623,-1.77,0.67,1.94,-0.96,1.97,0.39,
1.624,-1.77,0.67,1.94,-0.99,1.85,0.29,
1.624,-1.77,0.67,1.94,-0.99,1.81,0.26,
1.624,-1.77,0.67,1.94,-1.01,1.74,0.21,
1.624,-1.08,0.20,3.00,-1.01,1.74,0.21,
1.625,-1.08,0.20,3.00,-1.03,1.68,0.17,
1.625,-1.08,0.20,3.00,-1.04,1.64,0.15,
1.625,-1.08,0.20,3.00,-1.05,1.58,0.16,
1.626,-1.08,0.20,3.00,-1.05,1.57,0.16,
1.626,-1.08,0.20,3.00,-1.05,1.53,0.19,
1.626,-1.21,0.65,2.63,-1.05,1.53,0.19,
1.626,-1.21,0.65,2.63,-1.05,1.49,0.22,
1.627,-1.21,0.65,2.63,-1.05,1.45,0.26,
1.627,-1.21,0.65,2.63,-1.04,1.39,0.33,
1.627,-1.21,0.65,2.63,-1.03,1.37,0.36,
1.633,-1.21,0.65,2.63,-1.03,1.33,0.41,
1.634,-1.10,1.20,1.65,-1.03,1.33,0.41,
1.634,-1.10,1.20,1.65,-1.02,1.30,0.47,
1.634,-1.10,1.20,1.65,-1.00,1.26,0.53,
1.636,-1.10,1.20,1.65,-0.98,1.22,0.62,
1.637,-1.10,1.20,1.65,-0.97,1.19,0.68,
1.641,-1.10,1.20,1.65,-0.97,1.17,0.71,
1.642,-0.49,1.64,0.76,-0.97,1.17,0.71,
1.642,-0.49,1.64,0.76,-0.96,1.15,0.77,
1.644,-0.49,1.64,0.76,-0.94,1.13,0.83,
1.646,-0.49,1.64,0.76,-0.93,1.09,0.91,
1.648,-0.49,1.64,0.76,-0.92,1.07,0.96,
1.65,-0.49,1.64,0.76,-0.92,1.06,0.98,
1.657,0.34,1.79,-0.03,-0.92,1.06,0.98,
1.657,0.34,1.79,-0.03,-0.92,1.05,1.02,
1.658,0.34,1.79,-0.03,-0.92,1.03,1.05,
1.658,0.34,1.79,-0.03,-0.92,1.00,1.08,
1.66,0.34,1.79,-0.03,-0.92,0.99,1.08,
1.66,0.34,1.79,-0.03,-0.93,0.97,1.08,
1.663,1.65,1.89,-0.73,-0.93,0.97,1.08,
1.663,1.65,1.89,-0.73,-0.94,0.95,1.07,
1.663,1.65,1.89,-0.73,-0.94,0.93,1.05,
1.666,1.65,1.89,-0.73,-0.96,0.89,1.01,
1.668,1.65,1.89,-0.73,-0.96,0.88,1.00,
1.669,1.65,1.89,-0.73,-0.97,0.87,0.96,
1.674,3.02,1.87,-1.11,-0.97,0.87,0.96,
1.675,3.02,1.87,-1.11,-0.98,0.85,0.92,
1.675,3.02,1.87,-1.11,-1.00,0.83,0.87,
1.677,3.02,1.87,-1.11,-1.01,0.82,0.79,
1.677,3.02,1.87,-1.11,-1.02,0.81,0.77,
1.68,3.02,1.87,-1.11,-1.03,0.80,0.71,
1.681,3.96,1.77,-1.32,-1.03,0.80,0.71,
1.681,3.96,1.77,-1.32,-1.03,0.79,0.65,
1.683,3.96,1.77,-1.32,-1.04,0.78,0.60,
1.689,3.96,1.77,-1.32,-1.05,0.76,0.51,
1.689,3.96,1.77,-1.32,-1.04,0.75,0.49,
1.689,3.96,1.77,-1.32,-1.04,0.75,0.44,
1.693,3.69,1.62,-1.32,-1.04,0.75,0.44,
1.693,3.69,1.62,-1.32,-1.04,0.75,0.40,
1.694,3.69,1.62,-1.32,-1.02,0.75,0.35,
1.697,3.69,1.62,-1.32,-1.00,0.77,0.29,
1.697,3.69,1.62,-1.32,-0.99,0.77,0.28,
1.701,3.69,1.62,-1.32,-0.97,0.79,0.25,
1.701,2.82,1.57,-1.19,-0.97,0.79,0.25,
1.701,2.82,1.57,-1.19,-0.95,0.81,0.22,
1.703,2.82,1.57,-1.19,-0.93,0.84,0.19,
1.71,2.82,1.57,-1.19,-0.89,0.90,0.16,
1.71,2.82,1.57,-1.19,-0.88,0.92,0.15,
1.711,2.82,1.57,-1.19,-0.86,0.98,0.13,
1.714,1.75,1.70,-1.12,-0.86,0.98,0.13,
1.714,1.75,1.70,-1.12,-0.84,1.03,0.13,
1.715,1.75,1.70,-1.12,-0.82,1.09,0.12,
1.716,1.75,1.70,-1.12,-0.79,1.19,0.13,
1.745,1.75,1.70,-1.12,-0.79,1.23,0.13,
1.745,1.75,1.70,-1.12,-0.77,1.31,0.14,
1.746,0.77,2.06,-1.44,-0.77,1.31,0.14,
1.746,0.77,2.06,-1.44,-0.77,1.39,0.16,
1.746,0.77,2.06,-1.44,-0.76,1.47,0.19,
1.746,0.77,2.06,-1.44,-0.75,1.59,0.23,
1.746,0.77,2.06,-1.44,-0.75,1.63,0.25,
1.747,0.77,2.06,-1.44,-0.75,1.70,0.29,
1.747,0.17,2.21,-1.97,-0.75,1.70,0.29,
1.747,0.17,2.21,-1.97,-0.77,1.76,0.33,
1.747,0.17,2.21,-1.97,-0.78,1.82,0.36,
1.747,0.17,2.21,-1.97,-0.82,1.89,0.41,
1.748,0.17,2.21,-1.97,-0.85,1.93,0.44,
1.748,0.17,2.21,-1.97,-0.87,1.94,0.46,
1.748,0.27,2.28,-2.68,-0.87,1.94,0.46,
1.748,0.27,2.28,-2.68,-0.90,1.97,0.49,
1.748,0.27,2.28,-2.68,-0.94,1.98,0.53,
1.748,0.27,2.28,-2.68,-1.00,1.98,0.58,
1.752,0.27,2.28,-2.68,-1.02,1.98,0.60,
1.752,0.27,2.28,-2.68,-1.07,1.97,0.63,
1.755,0.06,2.35,-2.94,-1.07,1.97,0.63,
1.756,0.06,2.35,-2.94,-1.11,1.95,0.67,
1.756,0.06,2.35,-2.94,-1.16,1.93,0.70,
1.756,0.06,2.35,-2.94,-1.22,1.89,0.75,
1.759,0.06,2.35,-2.94,-1.26,1.86,0.78,
1.779,0.06,2.35,-2.94,-1.28,1.84,0.80,
1.78,-0.35,2.41,-2.89,-1.28,1.84,0.80,
1.78,-0.35,2.41,-2.89,-1.32,1.80,0.83,
1.78,-0.35,2.41,-2.89,-1.36,1.76,0.86,
1.78,-0.35,2.41,-2.89,-1.41,1.70,0.89,
1.781,-0.35,2.41,-2.89,-1.43,1.68,0.91,
1.781,-0.35,2.41,-2.89,-1.45,1.64,0.94,
1.781,-0.80,2.63,-2.68,-1.45,1.64,0.94,
1.781,-0.80,2.63,-2.68,-1.47,1.61,0.96,
1.782,-0.80,2.63,-2.68,-1.49,1.59,0.99,
1.782,-0.80,2.63,-2.68,-1.50,1.57,1.04,
1.782,-0.80,2.63,-2.68,-1.50,1.56,1.06,
1.782,-0.80,2.63,-2.68,-1.50,1.56,1.09,
1.783,-1.14,2.83,-2.48,-1.50,1.56,1.09,
1.783,-1.14,2.83,-2.48,-1.50,1.55,1.13,
1.783,-1.14,2.83,-2.48,-1.49,1.54,1.17,
1.787,-1.14,2.83,-2.48,-1.48,1.52,1.23,
1.789,-1.14,2.83,-2.48,-1.47,1.52,1.26,
1.79,-1.14,2.83,-2.48,-1.47,1.51,1.28,
1.791,-1.37,2.93,-2.42,-1.47,1.51,1.28,
1.792,-1.37,2.93,-2.42,-1.46,1.49,1.32,
1.793,-1.37,2.93,-2.42,-1.45,1.48,1.36,
1.796,-1.37,2.93,-2.42,-1.46,1.44,1.43,
1.797,-1.37,2.93,-2.42,-1.47,1.40,1.48,
1.799,-1.37,2.93,-2.42,-1.48,1.38,1.51,
1.801,-1.80,3.20,-3.03,-1.48,1.38,1.51,
1.801,-1.80,3.20,-3.03,-1.51,1.31,1.58,
1.803,-1.80,3.20,-3.03,-1.54,1.22,1.64,
1.806,-1.80,3.20,-3.03,-1.59,1.05,1.75,
1.811,-1.80,3.20,-3.03,-1.64,0.85,1.87,
1.811,-1.80,3.20,-3.03,-1.66,0.78,1.91,
1.816,-2.70,4.40,-3.12,-1.66,0.78,1.91,
1.816,-2.70,4.40,-3.12,-1.68,0.70,1.94,
1.816,-2.70,4.40,-3.12,-1.73,0.56,2.02,
1.817,-2.70,4.40,-3.12,-1.82,0.33,2.13,
1.817,-2.70,4.40,-3.12,-1.89,0.19,2.20,
1.82,-2.70,4.40,-3.12,-1.92,0.12,2.24,
1.822,-3.13,5.09,-3.93,-1.92,0.12,2.24,
1.822,-3.13,5.09,-3.93,-1.99,-0.01,2.30,
1.824,-3.13,5.09,-3.93,-2.05,-0.14,2.36,
1.826,-3.13,5.09,-3.93,-2.15,-0.33,2.44,
1.827,-3.13,5.09,-3.93,-2.22,-0.45,2.49,
1.829,-3.13,5.09,-3.93,-2.25,-0.52,2.51,
1.831,-3.09,5.76,-4.41,-2.25,-0.52,2.51,
1.832,-3.09,5.76,-4.41,-2.32,-0.64,2.56,
1.833,-3.09,5.76,-4.41,-2.38,-0.76,2.60,
1.836,-3.09,5.76,-4.41,-2.48,-0.93,2.67,
1.842,-3.09,5.76,-4.41,-2.54,-1.04,2.71,
1.842,-3.09,5.76,-4.41,-2.57,-1.09,2.73,
1.843,-3.05,6.01,-4.75,-2.57,-1.09,2.73,
1.843,-3.05,6.01,-4.75,-2.63,-1.20,2.77,
1.844,-3.05,6.01,-4.75,-2.69,-1.29,2.81,
1.846,-3.05,6.01,-4.75,-2.78,-1.43,2.87,
1.847,-3.05,6.01,-4.75,-2.84,-1.51,2.91,
1.849,-3.05,6.01,-4.75,-2.87,-1.55,2.93,
1.851,-2.93,6.25,-4.48,-2.87,-1.55,2.93,
1.852,-2.93,6.25,-4.48,-2.93,-1.62,2.97,
1.853,-2.93,6.25,-4.48,-2.98,-1.69,3.01,
1.862,-2.93,6.25,-4.48,-3.06,-1.78,3.07,
1.863,-2.93,6.25,-4.48,-3.11,-1.84,3.12,
1.863,-2.93,6.25,-4.48,-3.13,-1.86,3.14,
1.864,-2.90,6.23,-4.28,-3.13,-1.86,3.14,
1.864,-2.90,6.23,-4.28,-3.18,-1.92,3.18,
1.866,-2.90,6.23,-4.28,-3.22,-1.97,3.22,
1.867,-2.90,6.23,-4.28,-3.27,-2.06,3.29,
1.867,-2.90,6.23,-4.28,-3.30,-2.11,3.33,
1.869,-2.90,6.23,-4.28,-3.32,-2.14,3.35,
1.917,-2.64,6.23,-3.59,-3.32,-2.14,3.35,
1.918,-2.64,6.23,-3.59,-3.34,-2.20,3.39,
1.918,-2.64,6.23,-3.59,-3.37,-2.25,3.44,
1.918,-2.64,6.23,-3.59,-3.39,-2.33,3.49,
1.918,-2.64,6.23,-3.59,-3.40,-2.37,3.52,
1.918,-2.64,6.23,-3.59,-3.40,-2.39,3.53,
1.918,-2.10,6.34,-3.14,-3.40,-2.39,3.53,
1.919,-2.10,6.34,-3.14,-3.41,-2.43,3.56,
1.919,-2.10,6.34,-3.14,-3.41,-2.46,3.57,
1.919,-2.10,6.34,-3.14,-3.40,-2.49,3.60,
1.919,-2.10,6.34,-3.14,-3.38,-2.49,3.61,
1.919,-2.10,6.34,-3.14,-3.36,-2.48,3.62,
1.919,-1.54,6.53,-1.92,-3.36,-2.48,3.62,
1.92,-1.54,6.53,-1.92,-3.32,-2.47,3.63,
1.92,-1.54,6.53,-1.92,-3.28,-2.44,3.64,
1.92,-1.54,6.53,-1.92,-3.21,-2.37,3.65,
1.92,-1.54,6.53,-1.92,-3.18,-2.31,3.65,
1.92,-1.54,6.53,-1.92,-3.16,-2.29,3.65,
1.92,-1.12,6.31,-0.80,-3.16,-2.29,3.65,
1.921,-1.12,6.31,-0.80,-3.14,-2.22,3.65,
1.921,-1.12,6.31,-0.80,-3.11,-2.13,3.65,
1.921,-1.12,6.31,-0.80,-3.07,-1.98,3.66,
1.921,-1.12,6.31,-0.80,-3.08,-1.88,3.66,
1.921,-1.12,6.31,-0.80,-3.08,-1.80,3.66,
1.921,-0.48,4.45,-1.42,-3.08,-1.80,3.66,
1.922,-0.48,4.45,-1.42,-3.11,-1.59,3.67,
1.922,-0.48,4.45,-1.42,-3.17,-1.39,3.70,
1.922,-0.48,4.45,-1.42,-3.24,-1.03,3.65,
1.922,-0.48,4.45,-1.42,-3.26,-0.73,3.61,
1.922,-0.48,4.45,-1.42,-3.26,-0.57,3.60,
1.922,2.65,-8.68,-2.91,-3.26,-0.57,3.60,
1.923,2.65,-8.68,-2.91,-3.19,-0.25,3.57,
1.929,2.65,-8.68,-2.91,-3.08,0.06,3.55,
1.947,2.65,-8.68,-2.91,-2.86,0.54,3.57,
1.948,2.65,-8.68,-2.91,-2.67,0.91,3.60,
1.948,2.65,-8.68,-2.91,-2.57,1.11,3.60,
1.948,0.66,-20.20,0.99,-2.57,1.11,3.60,
1.949,0.66,-20.20,0.99,-2.35,1.52,3.61,
1.949,0.66,-20.20,0.99,-2.11,1.95,3.60,
1.949,0.66,-20.20,0.99,-1.74,2.56,3.58,
1.949,0.66,-20.20,0.99,-1.50,2.90,3.57,
1.95,0.66,-20.20,0.99,-1.38,3.06,3.57,
1.95,0.01,-35.90,1.46,-1.38,3.06,3.57,
1.95,0.01,-35.90,1.46,-1.17,3.31,3.57,
1.95,0.01,-35.90,1.46,-0.99,3.53,3.56,
1.951,0.01,-35.90,1.46,-0.77,3.79,3.50,
1.951,0.01,-35.90,1.46,-0.65,3.97,3.42,
1.951,0.01,-35.90,1.46,-0.59,4.06,3.37,
1.951,-0.04,-42.82,-2.64,-0.59,4.06,3.37,
1.951,-0.04,-42.82,-2.64,-0.49,4.25,3.24,
1.955,-0.04,-42.82,-2.64,-0.41,4.45,3.08,
1.957,-0.04,-42.82,-2.64,-0.31,4.78,2.82,
1.957,-0.04,-42.82,-2.64,-0.26,4.99,2.63,
1.959,-0.04,-42.82,-2.64,-0.24,5.09,2.54,
1.961,2.10,-34.87,-4.36,-0.24,5.09,2.54,
1.961,2.10,-34.87,-4.36,-0.21,5.29,2.35,
1.963,2.10,-34.87,-4.36,-0.18,5.47,2.16,
1.966,2.10,-34.87,-4.36,-0.14,5.70,1.88,
1.967,2.10,-34.87,-4.36,-0.11,5.82,1.69,
1.969,2.10,-34.87,-4.36,-0.09,5.87,1.60,
1.971,3.42,-21.18,-3.26,-0.09,5.87,1.60,
1.972,3.42,-21.18,-3.26,-0.06,5.94,1.42,
1.973,3.42,-21.18,-3.26,-0.03,6.00,1.25,
1.976,3.42,-21.18,-3.26,0.03,6.03,1.00,
1.977,3.42,-21.18,-3.26,0.07,6.03,0.83,
1.979,3.42,-21.18,-3.26,0.08,6.03,0.75,
1.981,3.96,-10.36,-1.21,0.08,6.03,0.75,
1.981,3.96,-10.36,-1.21,0.12,6.00,0.60,
1.983,3.96,-10.36,-1.21,0.15,5.96,0.46,
1.986,3.96,-10.36,-1.21,0.19,5.87,0.25,
1.991,3.96,-10.36,-1.21,0.22,5.80,0.12,
1.992,3.96,-10.36,-1.21,0.23,5.76,0.06,
1.992,3.52,-2.99,-0.01,0.23,5.76,0.06,
1.992,3.52,-2.99,-0.01,0.25,5.68,-0.05,
1.993,3.52,-2.99,-0.01,0.26,5.59,-0.16,
2.002,3.52,-2.99,-0.01,0.29,5.45,-0.31,
2.002,3.52,-2.99,-0.01,0.31,5.35,-0.40,
2.002,3.52,-2.99,-0.01,0.31,5.30,-0.44,
2.002,2.80,1.85,0.87,0.31,5.30,-0.44,
2.002,2.80,1.85,0.87,0.33,5.20,-0.52,
2.019,2.80,1.85,0.87,0.34,5.10,-0.60,
2.02,2.80,1.85,0.87,0.36,4.95,-0.70,
2.02,2.80,1.85,0.87,0.37,4.84,-0.76,
2.02,2.80,1.85,0.87,0.38,4.79,-0.79,
2.02,1.87,4.92,1.33,0.38,4.79,-0.79,
2.02,1.87,4.92,1.33,0.39,4.68,-0.85,
2.02,1.87,4.92,1.33,0.40,4.56,-0.90,
2.021,1.87,4.92,1.33,0.43,4.38,-0.97,
2.021,1.87,4.92,1.33,0.44,4.24,-1.01,
2.021,1.87,4.92,1.33,0.45,4.18,-1.04,
2.021,1.21,6.89,1.53,0.45,4.18,-1.04,
2.021,1.21,6.89,1.53,0.47,4.04,-1.07,
2.024,1.21,6.89,1.53,0.48,3.91,-1.10,
2.028,1.21,6.89,1.53,0.49,3.69,-1.14,
2.028,1.21,6.89,1.53,0.49,3.55,-1.16,
2.029,1.21,6.89,1.53,0.49,3.48,-1.16,
2.032,0.11,8.13,1.31,0.49,3.48,-1.16,
2.033,0.11,8.13,1.31,0.48,3.33,-1.17,
2.033,0.11,8.13,1.31,0.47,3.19,-1.17,
2.037,0.11,8.13,1.31,0.43,2.91,-1.17,
2.038,0.11,8.13,1.31,0.42,2.85,-1.17,
2.039,0.11,8.13,1.31,0.41,2.78,-1.16,
2.041,-0.81,8.77,0.79,0.41,2.78,-1.16,
2.041,-0.81,8.77,0.79,0.38,2.65,-1.15,
2.043,-0.81,8.77,0.79,0.35,2.52,-1.14,
2.047,-0.81,8.77,0.79,0.29,2.33,-1.11,
2.049,-0.81,8.77,0.79,0.25,2.20,-1.09,
2.05,-0.81,8.77,0.79,0.22,2.14,-1.08,
2.051,-1.38,8.84,0.60,0.22,2.14,-1.08,
2.051,-1.38,8.84,0.60,0.17,2.01,-1.06,
2.053,-1.38,8.84,0.60,0.12,1.88,-1.03,
2.057,-1.38,8.84,0.60,0.03,1.68,-0.98,
2.057,-1.38,8.84,0.60,-0.03,1.55,-0.94,
2.059,-1.38,8.84,0.60,-0.07,1.48,-0.93,
2.061,-2.13,8.37,0.16,-0.07,1.48,-0.93,
2.061,-2.13,8.37,0.16,-0.13,1.34,-0.89,
2.063,-2.13,8.37,0.16,-0.20,1.21,-0.85,
2.066,-2.13,8.37,0.16,-0.30,1.00,-0.79,
2.067,-2.13,8.37,0.16,-0.36,0.87,-0.75,
2.069,-2.13,8.37,0.16,-0.39,0.81,-0.74,
2.071,-2.25,7.18,0.39,-0.39,0.81,-0.74,
2.071,-2.25,7.18,0.39,-0.45,0.68,-0.70,
2.073,-2.25,7.18,0.39,-0.51,0.55,-0.66,
2.076,-2.25,7.18,0.39,-0.58,0.37,-0.62,
2.077,-2.25,7.18,0.39,-0.63,0.26,-0.59,
2.079,-2.25,7.18,0.39,-0.65,0.20,-0.57,
2.081,-2.15,5.32,1.17,-0.65,0.20,-0.57,
2.081,-2.15,5.32,1.17,-0.69,0.09,-0.53,
2.083,-2.15,5.32,1.17,-0.70,0.05,-0.50,
2.086,-2.15,5.32,1.17,-0.68,0.04,-0.47,
2.087,-2.15,5.32,1.17,-0.65,0.06,-0.43,
2.09,-2.15,5.32,1.17,-0.62,0.09,-0.39,
2.091,-1.97,2.60,3.98,-0.62,0.09,-0.39,
2.117,-1.97,2.60,3.98,-0.59,0.12,-0.36,
2.117,-1.97,2.60,3.98,-0.56,0.16,-0.32,
2.118,-1.97,2.60,3.98,-0.52,0.19,-0.29,
2.118,-1.97,2.60,3.98,-0.49,0.22,-0.25,
2.119,-1.97,2.60,3.98,-0.46,0.25,-0.22,
2.12,-1.68,-0.49,5.20,-0.46,0.25,-0.22,
2.12,-1.68,-0.49,5.20,-0.43,0.27,-0.19,
2.12,-1.68,-0.49,5.20,-0.41,0.27,-0.16,
2.121,-1.68,-0.49,5.20,-0.39,0.27,-0.13,
2.121,-1.68,-0.49,5.20,-0.38,0.26,-0.10,
2.122,-1.68,-0.49,5.20,-0.37,0.24,-0.07,
2.122,-1.23,-2.68,4.43,-0.37,0.24,-0.07,
2.123,-1.23,-2.68,4.43,-0.37,0.21,-0.05,
2.123,-1.23,-2.68,4.43,-0.38,0.18,-0.02,
2.123,-1.23,-2.68,4.43,-0.39,0.14,-0.00,
2.124,-1.23,-2.68,4.43,-0.41,0.10,0.02,
2.124,-1.23,-2.68,4.43,-0.44,0.06,0.04,
2.125,-0.88,-4.43,3.52,-0.44,0.06,0.04,
2.125,-0.88,-4.43,3.52,-0.46,0.01,0.05,
2.126,-0.88,-4.43,3.52,-0.48,-0.04,0.07,
2.126,-0.88,-4.43,3.52,-0.51,-0.09,0.08,
2.136,-0.88,-4.43,3.52,-0.54,-0.13,0.09,
2.136,-0.88,-4.43,3.52,-0.56,-0.18,0.09,
2.136,-0.42,-5.44,2.92,-0.56,-0.18,0.09,
2.136,-0.42,-5.44,2.92,-0.59,-0.23,0.09,
2.137,-0.42,-5.44,2.92,-0.61,-0.27,0.09,
2.137,-0.42,-5.44,2.92,-0.63,-0.31,0.08,
2.137,-0.42,-5.44,2.92,-0.65,-0.35,0.06,
2.139,-0.42,-5.44,2.92,-0.67,-0.39,0.04,
2.141,0.34,-5.23,2.78,-0.67,-0.39,0.04,
2.141,0.34,-5.23,2.78,-0.69,-0.43,0.01,
2.143,0.34,-5.23,2.78,-0.70,-0.47,-0.02,
2.146,0.34,-5.23,2.78,-0.72,-0.51,-0.05,
2.147,0.34,-5.23,2.78,-0.74,-0.55,-0.09,
2.149,0.34,-5.23,2.78,-0.75,-0.58,-0.12,
2.151,0.86,-3.49,2.47,-0.75,-0.58,-0.12,
2.151,0.86,-3.49,2.47,-0.77,-0.62,-0.16,
2.154,0.86,-3.49,2.47,-0.79,-0.65,-0.19,
2.156,0.86,-3.49,2.47,-0.80,-0.68,-0.22,
2.159,0.86,-3.49,2.47,-0.83,-0.73,-0.26,
2.159,0.86,-3.49,2.47,-0.84,-0.74,-0.27,
2.161,0.73,-1.58,2.29,-0.84,-0.74,-0.27,
2.161,0.73,-1.58,2.29,-0.86,-0.76,-0.30,
2.163,0.73,-1.58,2.29,-0.87,-0.79,-0.32,
2.166,0.73,-1.58,2.29,-0.89,-0.80,-0.34,
2.167,0.73,-1.58,2.29,-0.91,-0.82,-0.36,
2.18,0.73,-1.58,2.29,-0.93,-0.83,-0.37,
2.181,0.31,-0.24,2.22,-0.93,-0.83,-0.37,
2.181,0.31,-0.24,2.22,-0.95,-0.84,-0.39,
2.181,0.31,-0.24,2.22,-0.97,-0.85,-0.40,
2.181,0.31,-0.24,2.22,-0.98,-0.86,-0.41,
2.181,0.31,-0.24,2.22,-1.00,-0.86,-0.41,
2.182,0.31,-0.24,2.22,-1.01,-0.86,-0.42,
2.182,-0.15,0.60,2.32,-1.01,-0.86,-0.42,
2.182,-0.15,0.60,2.32,-1.03,-0.85,-0.43,
2.186,-0.15,0.60,2.32,-1.04,-0.85,-0.43,
2.186,-0.15,0.60,2.32,-1.05,-0.85,-0.43,
2.23,-0.15,0.60,2.32,-1.06,-0.84,-0.43,
2.23,-0.15,0.60,2.32,-1.07,-0.84,-0.42,
2.23,-0.59,1.07,2.42,-1.07,-0.84,-0.42,
2.23,-0.59,1.07,2.42,-1.07,-0.83,-0.41,
2.231,-0.59,1.07,2.42,-1.08,-0.83,-0.40,
2.231,-0.59,1.07,2.42,-1.09,-0.83,-0.37,
2.231,-0.59,1.07,2.42,-1.09,-0.83,-0.36,
2.231,-0.59,1.07,2.42,-1.09,-0.84,-0.33,
2.231,-1.17,1.08,2.59,-1.09,-0.84,-0.33,
2.232,-1.17,1.08,2.59,-1.08,-0.85,-0.31,
2.232,-1.17,1.08,2.59,-1.07,-0.86,-0.28,
2.232,-1.17,1.08,2.59,-1.07,-0.87,-0.25,
2.232,-1.17,1.08,2.59,-1.06,-0.89,-0.21,
2.232,-1.17,1.08,2.59,-1.05,-0.91,-0.18,
2.232,-1.27,0.96,2.55,-1.05,-0.91,-0.18,
2.233,-1.27,0.96,2.55,-1.04,-0.93,-0.15,
2.233,-1.27,0.96,2.55,-1.03,-0.96,-0.12,
2.233,-1.27,0.96,2.55,-1.01,-0.99,-0.09,
2.233,-1.27,0.96,2.55,-1.00,-1.03,-0.07,
2.233,-1.27,0.96,2.55,-0.98,-1.06,-0.04,
2.234,-0.94,0.79,2.58,-0.98,-1.06,-0.04,
2.234,-0.94,0.79,2.58,-0.95,-1.10,-0.01,
2.234,-0.94,0.79,2.58,-0.93,-1.15,0.01,
2.234,-0.94,0.79,2.58,-0.90,-1.19,0.03,
2.234,-0.94,0.79,2.58,-0.88,-1.24,0.04,
2.235,-0.94,0.79,2.58,-0.85,-1.30,0.06,
2.235,-0.38,0.52,2.49,-0.85,-1.30,0.06,
2.235,-0.38,0.52,2.49,-0.82,-1.35,0.07,
2.235,-0.38,0.52,2.49,-0.78,-1.40,0.09,
2.238,-0.38,0.52,2.49,-0.75,-1.45,0.10,
2.238,-0.38,0.52,2.49,-0.72,-1.51,0.10,
2.24,-0.38,0.52,2.49,-0.68,-1.56,0.11,
2.242,0.22,0.14,2.41,-0.68,-1.56,0.11,
2.242,0.22,0.14,2.41,-0.65,-1.61,0.11,
2.243,0.22,0.14,2.41,-0.61,-1.66,0.11,
2.246,0.22,0.14,2.41,-0.58,-1.71,0.11,
2.247,0.22,0.14,2.41,-0.54,-1.75,0.11,
2.249,0.22,0.14,2.41,-0.51,-1.79,0.11,
2.251,0.61,-0.31,2.15,-0.51,-1.79,0.11,
2.252,0.61,-0.31,2.15,-0.48,-1.82,0.11,
2.269,0.61,-0.31,2.15,-0.44,-1.86,0.10,
2.27,0.61,-0.31,2.15,-0.41,-1.88,0.10,
2.27,0.61,-0.31,2.15,-0.38,-1.90,0.10,
2.294,0.61,-0.31,2.15,-0.36,-1.91,0.09,
2.294,0.74,-0.79,1.92,-0.36,-1.91,0.09,
2.295,0.74,-0.79,1.92,-0.33,-1.91,0.09,
2.295,0.74,-0.79,1.92,-0.31,-1.90,0.08,
2.295,0.74,-0.79,1.92,-0.28,-1.87,0.08,
2.296,0.74,-0.79,1.92,-0.27,-1.85,0.07,
2.296,0.74,-0.79,1.92,-0.26,-1.82,0.07,
2.296,0.62,-1.20,1.54,-0.26,-1.82,0.07,
2.296,0.62,-1.20,1.54,-0.24,-1.77,0.07,
2.297,0.62,-1.20,1.54,-0.23,-1.72,0.07,
2.297,0.62,-1.20,1.54,-0.22,-1.65,0.08,
2.297,0.62,-1.20,1.54,-0.22,-1.57,0.08,
2.298,0.62,-1.20,1.54,-0.21,-1.48,0.08,
2.298,0.45,-1.61,1.55,-0.21,-1.48,0.08,
2.298,0.45,-1.61,1.55,-0.20,-1.38,0.08,
2.298,0.45,-1.61,1.55,-0.20,-1.27,0.09,
2.299,0.45,-1.61,1.55,-0.20,-1.08,0.09,
2.299,0.45,-1.61,1.55,-0.19,-1.01,0.10,
2.299,0.45,-1.61,1.55,-0.20,-0.85,0.10,
2.299,0.33,-2.05,2.05,-0.20,-0.85,0.10,
2.3,0.33,-2.05,2.05,-0.21,-0.67,0.11,
2.3,0.33,-2.05,2.05,-0.22,-0.48,0.12,
2.3,0.33,-2.05,2.05,-0.24,-0.27,0.13,
2.3,0.33,-2.05,2.05,-0.27,-0.04,0.14,
2.301,0.33,-2.05,2.05,-0.30,0.21,0.15,
2.301,0.34,-2.64,2.72,-0.30,0.21,0.15,
2.301,0.34,-2.64,2.72,-0.35,0.48,0.16,
2.31,0.34,-2.64,2.72,-0.40,0.76,0.17,
2.311,0.34,-2.64,2.72,-0.46,1.04,0.18,
2.311,0.34,-2.64,2.72,-0.51,1.31,0.20,
2.312,0.34,-2.64,2.72,-0.57,1.59,0.21,
2.312,0.26,-3.28,3.11,-0.57,1.59,0.21,
2.312,0.26,-3.28,3.11,-0.62,1.86,0.22,
2.313,0.26,-3.28,3.11,-0.67,2.12,0.23,
2.316,0.26,-3.28,3.11,-0.72,2.36,0.24,
2.317,0.26,-3.28,3.11,-0.76,2.60,0.25,
2.326,0.26,-3.28,3.11,-0.79,2.83,0.25,
2.327,0.22,-3.71,3.99,-0.79,2.83,0.25,
2.327,0.22,-3.71,3.99,-0.82,3.05,0.26,
2.327,0.22,-3.71,3.99,-0.84,3.26,0.26,
2.327,0.22,-3.71,3.99,-0.85,3.55,0.25,
2.328,0.22,-3.71,3.99,-0.85,3.64,0.25,
2.329,0.22,-3.71,3.99,-0.84,3.82,0.25,
2.381,0.01,-3.61,5.24,-0.84,3.82,0.25,
2.381,0.01,-3.61,5.24,-0.82,3.98,0.24,
2.381,0.01,-3.61,5.24,-0.79,4.13,0.24,
2.381,0.01,-3.61,5.24,-0.72,4.32,0.25,
2.382,0.01,-3.61,5.24,-0.54,4.53,0.28,
2.382,0.01,-3.61,5.24,-0.54,4.53,0.28,
2.382,-1.08,-3.08,7.54,-0.54,4.53,0.28,
2.382,-1.08,-3.08,7.54,-0.54,4.53,0.28,
2.382,-1.08,-3.08,7.54,-0.40,4.59,0.31,
2.382,-1.08,-3.08,7.54,-0.22,4.61,0.35,
2.383,-1.08,-3.08,7.54,-0.16,4.60,0.36,
2.383,-1.08,-3.08,7.54,-0.09,4.59,0.38,
2.383,-2.27,-2.49,8.65,-0.09,4.59,0.38,
2.383,-2.27,-2.49,8.65,0.05,4.55,0.43,
2.383,-2.27,-2.49,8.65,0.19,4.49,0.48,
2.383,-2.27,-2.49,8.65,0.43,4.36,0.57,
2.384,-2.27,-2.49,8.65,0.51,4.30,0.60,
2.384,-2.27,-2.49,8.65,0.67,4.17,0.68,
2.384,-3.97,-1.88,9.22,0.67,4.17,0.68,
2.384,-3.97,-1.88,9.22,0.83,4.01,0.76,
2.384,-3.97,-1.88,9.22,0.99,3.83,0.85,
2.384,-3.97,-1.88,9.22,1.22,3.54,0.99,
2.385,-3.97,-1.88,9.22,1.30,3.44,1.03,
2.385,-3.97,-1.88,9.22,1.44,3.21,1.13,
2.385,-4.95,-1.72,8.08,1.44,3.21,1.13,
2.385,-4.95,-1.72,8.08,1.58,2.98,1.23,
2.385,-4.95,-1.72,8.08,1.72,2.74,1.33,
2.385,-4.95,-1.72,8.08,1.91,2.38,1.49,
2.386,-4.95,-1.72,8.08,1.97,2.25,1.54,
2.386,-4.95,-1.72,8.08,2.08,2.01,1.63,
2.386,-5.28,-2.22,6.65,2.08,2.01,1.63,
2.386,-5.28,-2.22,6.65,2.19,1.77,1.73,
2.386,-5.28,-2.22,6.65,2.30,1.55,1.82,
2.389,-5.28,-2.22,6.65,2.45,1.24,1.95,
2.389,-5.28,-2.22,6.65,2.50,1.14,1.99,
2.39,-5.28,-2.22,6.65,2.59,0.97,2.06,
2.391,-4.77,-2.94,5.51,2.59,0.97,2.06,
2.392,-4.77,-2.94,5.51,2.68,0.81,2.13,
2.393,-4.77,-2.94,5.51,2.77,0.67,2.20,
2.398,-4.77,-2.94,5.51,2.90,0.50,2.29,
2.398,-4.77,-2.94,5.51,2.94,0.44,2.32,
2.399,-4.77,-2.94,5.51,3.02,0.35,2.37,
2.403,-4.20,-3.36,5.22,3.02,0.35,2.37,
2.403,-4.20,-3.36,5.22,3.10,0.27,2.42,
2.404,-4.20,-3.36,5.22,3.17,0.20,2.46,
2.406,-4.20,-3.36,5.22,3.27,0.11,2.52,
2.408,-4.20,-3.36,5.22,3.30,0.08,2.53,
2.411,-4.20,-3.36,5.22,3.35,0.03,2.56,
2.411,-3.28,-3.42,4.36,3.35,0.03,2.56,
2.412,-3.28,-3.42,4.36,3.39,-0.03,2.59,
2.413,-3.28,-3.42,4.36,3.42,-0.09,2.61,
2.416,-3.28,-3.42,4.36,3.44,-0.18,2.63,
2.417,-3.28,-3.42,4.36,3.45,-0.22,2.63,
2.422,-3.28,-3.42,4.36,3.45,-0.28,2.63,
2.422,-2.19,-3.49,2.78,3.45,-0.28,2.63,
2.422,-2.19,-3.49,2.78,3.45,-0.33,2.63,
2.423,-2.19,-3.49,2.78,3.43,-0.39,2.63,
2.439,-2.19,-3.49,2.78,3.40,-0.47,2.61,
2.439,-2.19,-3.49,2.78,3.39,-0.49,2.60,
2.44,-2.19,-3.49,2.78,3.37,-0.53,2.59,
2.44,-0.95,-3.33,1.27,3.37,-0.53,2.59,
2.44,-0.95,-3.33,1.27,3.35,-0.55,2.56,
2.44,-0.95,-3.33,1.27,3.33,-0.56,2.54,
2.471,-0.95,-3.33,1.27,3.33,-0.54,2.50,
2.472,-0.95,-3.33,1.27,3.32,-0.53,2.49,
2.472,-0.95,-3.33,1.27,3.32,-0.49,2.46,
2.472,0.31,-3.17,1.25,3.32,-0.49,2.46,
2.472,0.31,-3.17,1.25,3.33,-0.44,2.43,
2.472,0.31,-3.17,1.25,3.35,-0.38,2.40,
2.473,0.31,-3.17,1.25,3.39,-0.26,2.36,
2.473,0.31,-3.17,1.25,3.40,-0.22,2.34,
2.473,0.31,-3.17,1.25,3.43,-0.13,2.31,
2.473,1.68,-3.54,1.84,3.43,-0.13,2.31,
2.473,1.68,-3.54,1.84,3.46,-0.03,2.27,
2.473,1.68,-3.54,1.84,3.49,0.06,2.22,
2.473,1.68,-3.54,1.84,3.52,0.20,2.14,
2.474,1.68,-3.54,1.84,3.53,0.24,2.11,
2.474,1.68,-3.54,1.84,3.55,0.32,2.05,
2.474,4.19,-4.04,1.58,3.55,0.32,2.05,
2.474,4.19,-4.04,1.58,3.55,0.39,1.98,
2.474,4.19,-4.04,1.58,3.54,0.45,1.90,
2.475,4.19,-4.04,1.58,3.51,0.53,1.77,
2.475,4.19,-4.04,1.58,3.50,0.55,1.73,
2.475,4.19,-4.04,1.58,3.47,0.58,1.64,
2.475,6.45,-4.51,0.27,3.47,0.58,1.64,
2.475,6.45,-4.51,0.27,3.43,0.59,1.55,
2.475,6.45,-4.51,0.27,3.40,0.59,1.46,
2.476,6.45,-4.51,0.27,3.35,0.56,1.33,
2.477,6.45,-4.51,0.27,3.33,0.54,1.28,
2.479,6.45,-4.51,0.27,3.29,0.49,1.20,
2.481,7.63,-4.85,-0.04,3.29,0.49,1.20,
2.481,7.63,-4.85,-0.04,3.26,0.43,1.12,
2.483,7.63,-4.85,-0.04,3.22,0.35,1.04,
2.486,7.63,-4.85,-0.04,3.16,0.21,0.94,
2.487,7.63,-4.85,-0.04,3.14,0.16,0.90,
2.489,7.63,-4.85,-0.04,3.10,0.04,0.84,
2.491,7.54,-4.81,-0.52,3.10,0.04,0.84,
2.491,7.54,-4.81,-0.52,3.05,-0.07,0.79,
2.493,7.54,-4.81,-0.52,3.01,-0.19,0.74,
2.496,7.54,-4.81,-0.52,2.93,-0.37,0.67,
2.497,7.54,-4.81,-0.52,2.91,-0.43,0.65,
2.499,7.54,-4.81,-0.52,2.85,-0.53,0.60,
2.501,7.28,-4.78,-2.01,2.85,-0.53,0.60,
2.501,7.28,-4.78,-2.01,2.79,-0.63,0.57,
2.503,7.28,-4.78,-2.01,2.72,-0.71,0.53,
2.506,7.28,-4.78,-2.01,2.62,-0.81,0.47,
2.508,7.28,-4.78,-2.01,2.55,-0.88,0.44,
2.509,7.28,-4.78,-2.01,2.52,-0.90,0.43,
2.511,6.71,-4.72,-3.67,2.52,-0.90,0.43,
2.511,6.71,-4.72,-3.67,2.46,-0.96,0.39,
2.513,6.71,-4.72,-3.67,2.40,-1.02,0.36,
2.515,6.71,-4.72,-3.67,2.34,-1.10,0.32,
2.517,6.71,-4.72,-3.67,2.33,-1.13,0.31,
2.519,6.71,-4.72,-3.67,2.31,-1.20,0.29,
2.521,6.48,-4.82,-3.33,2.31,-1.20,0.29,
2.521,6.48,-4.82,-3.33,2.31,-1.28,0.26,
2.523,6.48,-4.82,-3.33,2.32,-1.36,0.24,
2.526,6.48,-4.82,-3.33,2.36,-1.50,0.21,
2.527,6.48,-4.82,-3.33,2.38,-1.55,0.20,
2.529,6.48,-4.82,-3.33,2.43,-1.63,0.18,
2.531,6.17,-5.06,-1.42,2.43,-1.63,0.18,
2.531,6.17,-5.06,-1.42,2.49,-1.72,0.16,
2.533,6.17,-5.06,-1.42,2.57,-1.79,0.13,
2.543,6.17,-5.06,-1.42,2.69,-1.89,0.08,
2.543,6.17,-5.06,-1.42,2.74,-1.92,0.07,
2.543,6.17,-5.06,-1.42,2.83,-1.97,0.03,
2.543,6.42,-5.69,0.20,2.83,-1.97,0.03,
2.543,6.42,-5.69,0.20,2.93,-2.02,-0.01,
2.544,6.42,-5.69,0.20,3.03,-2.05,-0.05,
2.546,6.42,-5.69,0.20,3.18,-2.08,-0.12,
2.547,6.42,-5.69,0.20,3.23,-2.08,-0.14,
2.549,6.42,-5.69,0.20,3.33,-2.08,-0.19,
2.568,6.62,-6.49,0.69,3.33,-2.08,-0.19,
2.568,6.62,-6.49,0.69,3.42,-2.05,-0.25,
2.568,6.62,-6.49,0.69,3.52,-2.00,-0.30,
2.569,6.62,-6.49,0.69,3.67,-1.90,-0.38,
2.569,6.62,-6.49,0.69,3.72,-1.86,-0.40,
2.569,6.62,-6.49,0.69,3.81,-1.76,-0.44,
2.569,6.47,-7.43,0.81,3.81,-1.76,-0.44,
2.569,6.47,-7.43,0.81,3.91,-1.65,-0.48,
2.569,6.47,-7.43,0.81,4.01,-1.52,-0.51,
2.569,6.47,-7.43,0.81,4.15,-1.29,-0.55,
2.57,6.47,-7.43,0.81,4.19,-1.21,-0.57,
2.57,6.47,-7.43,0.81,4.28,-1.04,-0.59,
2.571,5.66,-8.18,1.12,4.28,-1.04,-0.59,
2.571,5.66,-8.18,1.12,4.36,-0.87,-0.61,
2.573,5.66,-8.18,1.12,4.43,-0.70,-0.61,
2.576,5.66,-8.18,1.12,4.53,-0.43,-0.61,
2.577,5.66,-8.18,1.12,4.55,-0.34,-0.61,
2.579,5.66,-8.18,1.12,4.58,-0.17,-0.59,
2.581,4.85,-9.05,0.88,4.58,-0.17,-0.59,
2.582,4.85,-9.05,0.88,4.60,0.02,-0.58,
2.583,4.85,-9.05,0.88,4.60,0.22,-0.56,
2.586,4.85,-9.05,0.88,4.58,0.56,-0.53,
2.588,4.85,-9.05,0.88,4.57,0.69,-0.53,
2.59,4.85,-9.05,0.88,4.53,0.95,-0.52,
2.592,4.93,-9.80,-0.38,4.53,0.95,-0.52,
2.61,4.93,-9.80,-0.38,4.49,1.21,-0.53,
2.611,4.93,-9.80,-0.38,4.44,1.47,-0.54,
2.611,4.93,-9.80,-0.38,4.35,1.84,-0.57,
2.612,4.93,-9.80,-0.38,4.32,1.95,-0.58,
2.612,4.93,-9.80,-0.38,4.25,2.15,-0.61,
2.612,6.21,-10.18,-1.85,4.25,2.15,-0.61,
2.613,6.21,-10.18,-1.85,4.19,2.33,-0.65,
2.613,6.21,-10.18,-1.85,4.12,2.48,-0.70,
2.614,6.21,-10.18,-1.85,4.03,2.65,-0.77,
2.614,6.21,-10.18,-1.85,4.00,2.68,-0.79,
2.615,6.21,-10.18,-1.85,3.93,2.72,-0.84,
2.615,6.19,-10.24,-2.92,3.93,2.72,-0.84,
2.616,6.19,-10.24,-2.92,3.88,2.74,-0.88,
2.616,6.19,-10.24,-2.92,3.83,2.73,-0.91,
2.617,6.19,-10.24,-2.92,3.76,2.68,-0.92,
2.617,6.19,-10.24,-2.92,3.74,2.65,-0.91,
2.625,6.19,-10.24,-2.92,3.71,2.58,-0.89,
2.625,2.77,-8.91,-3.61,3.71,2.58,-0.89,
2.626,2.77,-8.91,-3.61,3.70,2.51,-0.85,
2.626,2.77,-8.91,-3.61,3.69,2.44,-0.81,
2.626,2.77,-8.91,-3.61,3.71,2.37,-0.74,
2.627,2.77,-8.91,-3.61,3.72,2.35,-0.72,
2.63,2.77,-8.91,-3.61,3.75,2.34,-0.68,
2.632,0.20,-6.56,-3.44,3.75,2.34,-0.68,
2.632,0.20,-6.56,-3.44,3.79,2.34,-0.64,
2.633,0.20,-6.56,-3.44,3.83,2.35,-0.60,
2.638,0.20,-6.56,-3.44,3.89,2.36,-0.53,
2.638,0.20,-6.56,-3.44,3.90,2.36,-0.51,
2.639,0.20,-6.56,-3.44,3.94,2.36,-0.46,
2.641,-1.14,-5.05,-4.36,3.94,2.36,-0.46,
2.642,-1.14,-5.05,-4.36,3.97,2.35,-0.41,
2.643,-1.14,-5.05,-4.36,4.00,2.36,-0.36,
2.646,-1.14,-5.05,-4.36,4.04,2.37,-0.30,
2.647,-1.14,-5.05,-4.36,4.05,2.37,-0.28,
2.649,-1.14,-5.05,-4.36,4.08,2.38,-0.24,
2.656,-1.96,-3.79,-5.05,4.08,2.38,-0.24,
2.657,-1.96,-3.79,-5.05,4.11,2.37,-0.20,
2.657,-1.96,-3.79,-5.05,4.14,2.35,-0.16,
2.657,-1.96,-3.79,-5.05,4.16,2.32,-0.10,
2.657,-1.96,-3.79,-5.05,4.17,2.30,-0.08,
2.659,-1.96,-3.79,-5.05,4.18,2.28,-0.04,
2.696,-2.49,-2.74,-5.70,4.18,2.28,-0.04,
2.697,-2.49,-2.74,-5.70,4.19,2.26,-0.01,
2.697,-2.49,-2.74,-5.70,4.19,2.26,0.02,
2.698,-2.49,-2.74,-5.70,4.19,2.27,0.05,
2.698,-2.49,-2.74,-5.70,4.18,2.28,0.06,
2.698,-2.49,-2.74,-5.70,4.17,2.29,0.06,
2.698,-2.19,-1.48,-6.54,4.17,2.29,0.06,
2.698,-2.19,-1.48,-6.54,4.16,2.30,0.07,
2.699,-2.19,-1.48,-6.54,4.14,2.30,0.07,
2.699,-2.19,-1.48,-6.54,4.10,2.29,0.07,
2.699,-2.19,-1.48,-6.54,4.08,2.29,0.06,
2.699,-2.19,-1.48,-6.54,4.05,2.28,0.05,
2.7,-2.16,-0.29,-7.08,4.05,2.28,0.05,
2.701,-2.16,-0.29,-7.08,4.01,2.28,0.03,
2.701,-2.16,-0.29,-7.08,3.97,2.28,0.02,
2.702,-2.16,-0.29,-7.08,3.91,2.28,-0.01,
2.702,-2.16,-0.29,-7.08,3.89,2.28,-0.02,
2.702,-2.16,-0.29,-7.08,3.85,2.28,-0.04,
2.702,-2.09,0.96,-6.91,3.85,2.28,-0.04,
2.702,-2.09,0.96,-6.91,3.81,2.28,-0.06,
2.703,-2.09,0.96,-6.91,3.76,2.27,-0.08,
2.703,-2.09,0.96,-6.91,3.69,2.25,-0.11,
2.703,-2.09,0.96,-6.91,3.66,2.25,-0.12,
2.703,-2.09,0.96,-6.91,3.61,2.23,-0.14,
2.703,-1.98,1.66,-6.95,3.61,2.23,-0.14,
2.704,-1.98,1.66,-6.95,3.56,2.22,-0.15,
2.704,-1.98,1.66,-6.95,3.50,2.20,-0.16,
2.707,-1.98,1.66,-6.95,3.42,2.17,-0.17,
2.708,-1.98,1.66,-6.95,3.39,2.15,-0.17,
2.71,-1.98,1.66,-6.95,3.33,2.13,-0.18,
2.711,-1.36,2.01,-6.70,3.33,2.13,-0.18,
2.712,-1.36,2.01,-6.70,3.28,2.09,-0.17,
2.713,-1.36,2.01,-6.70,3.22,2.05,-0.17,
2.719,-1.36,2.01,-6.70,3.14,1.97,-0.15,
2.719,-1.36,2.01,-6.70,3.11,1.94,-0.15,
2.719,-1.36,2.01,-6.70,3.06,1.89,-0.13,
2.722,-1.01,2.12,-6.49,3.06,1.89,-0.13,
2.722,-1.01,2.12,-6.49,3.00,1.83,-0.12,
2.724,-1.01,2.12,-6.49,2.94,1.77,-0.11,
2.726,-1.01,2.12,-6.49,2.85,1.68,-0.08,
2.728,-1.01,2.12,-6.49,2.82,1.65,-0.07,
2.729,-1.01,2.12,-6.49,2.76,1.59,-0.05,
2.732,-0.48,2.33,-6.41,2.76,1.59,-0.05,
2.732,-0.48,2.33,-6.41,2.70,1.54,-0.03,
2.736,-0.48,2.33,-6.41,2.63,1.49,-0.01,
2.737,-0.48,2.33,-6.41,2.52,1.42,0.03,
2.741,-0.48,2.33,-6.41,2.49,1.41,0.04,
2.741,-0.48,2.33,-6.41,2.41,1.37,0.06,
2.742,-0.12,2.44,-6.79,2.41,1.37,0.06,
2.743,-0.12,2.44,-6.79,2.34,1.34,0.08,
2.743,-0.12,2.44,-6.79,2.27,1.31,0.10,
2.746,-0.12,2.44,-6.79,2.16,1.27,0.12,
2.747,-0.12,2.44,-6.79,2.13,1.26,0.12,
2.75,-0.12,2.44,-6.79,2.06,1.24,0.14,
2.751,0.77,2.81,-6.73,2.06,1.24,0.14,
2.752,0.77,2.81,-6.73,1.99,1.22,0.14,
2.753,0.77,2.81,-6.73,1.92,1.21,0.15,
2.756,0.77,2.81,-6.73,1.82,1.18,0.16,
2.757,0.77,2.81,-6.73,1.78,1.17,0.16,
2.782,0.77,2.81,-6.73,1.72,1.16,0.17,
2.782,1.25,3.09,-6.56,1.72,1.16,0.17,
2.782,1.25,3.09,-6.56,1.65,1.16,0.17,
2.782,1.25,3.09,-6.56,1.59,1.16,0.17,
2.783,1.25,3.09,-6.56,1.49,1.17,0.18,
2.783,1.25,3.09,-6.56,1.46,1.17,0.18,
2.783,1.25,3.09,-6.56,1.41,1.17,0.18,
2.784,1.59,3.35,-6.15,1.41,1.17,0.18,
2.784,1.59,3.35,-6.15,1.35,1.17,0.18,
2.784,1.59,3.35,-6.15,1.30,1.16,0.18,
2.784,1.59,3.35,-6.15,1.21,1.16,0.18,
2.785,1.59,3.35,-6.15,1.18,1.15,0.18,
2.785,1.59,3.35,-6.15,1.13,1.14,0.18,
2.785,1.66,3.69,-5.84,1.13,1.14,0.18,
2.785,1.66,3.69,-5.84,1.08,1.14,0.19,
2.786,1.66,3.69,-5.84,1.03,1.13,0.19,
2.786,1.66,3.69,-5.84,0.95,1.12,0.19,
2.791,1.66,3.69,-5.84,0.93,1.11,0.19,
2.792,1.66,3.69,-5.84,0.88,1.10,0.18,
2.792,1.95,4.01,-5.45,0.88,1.10,0.18,
2.792,1.95,4.01,-5.45,0.82,1.10,0.17,
2.793,1.95,4.01,-5.45,0.77,1.08,0.15,
2.796,1.95,4.01,-5.45,0.69,1.08,0.11,
2.797,1.95,4.01,-5.45,0.67,1.08,0.10,
2.8,1.95,4.01,-5.45,0.62,1.08,0.08,
2.802,2.46,4.45,-4.72,0.62,1.08,0.08,
2.802,2.46,4.45,-4.72,0.57,1.09,0.05,
2.803,2.46,4.45,-4.72,0.53,1.11,0.03,
2.806,2.46,4.45,-4.72,0.45,1.14,-0.01,
2.808,2.46,4.45,-4.72,0.43,1.15,-0.02,
2.809,2.46,4.45,-4.72,0.38,1.17,-0.04,
2.811,2.60,4.61,-3.79,0.38,1.17,-0.04,
2.812,2.60,4.61,-3.79,0.34,1.20,-0.05,
2.813,2.60,4.61,-3.79,0.29,1.23,-0.07,
2.822,2.60,4.61,-3.79,0.24,1.27,-0.10,
2.822,2.60,4.61,-3.79,0.22,1.28,-0.11,
2.823,2.60,4.61,-3.79,0.18,1.31,-0.12,
2.823,2.82,4.76,-2.59,0.18,1.31,-0.12,
2.823,2.82,4.76,-2.59,0.15,1.34,-0.14,
2.824,2.82,4.76,-2.59,0.12,1.36,-0.16,
2.827,2.82,4.76,-2.59,0.08,1.40,-0.18,
2.828,2.82,4.76,-2.59,0.07,1.41,-0.19,
2.829,2.82,4.76,-2.59,0.04,1.42,-0.20,
2.853,3.15,4.30,-1.68,0.04,1.42,-0.20,
2.854,3.15,4.30,-1.68,0.02,1.43,-0.21,
2.854,3.15,4.30,-1.68,-0.00,1.43,-0.22,
2.855,3.15,4.30,-1.68,-0.04,1.42,-0.25,
2.855,3.15,4.30,-1.68,-0.05,1.41,-0.25,
2.855,3.15,4.30,-1.68,-0.07,1.39,-0.27,
2.855,3.79,3.69,-1.03,-0.07,1.39,-0.27,
2.855,3.79,3.69,-1.03,-0.09,1.37,-0.29,
2.856,3.79,3.69,-1.03,-0.12,1.33,-0.31,
2.856,3.79,3.69,-1.03,-0.15,1.27,-0.35,
2.856,3.79,3.69,-1.03,-0.16,1.25,-0.36,
2.856,3.79,3.69,-1.03,-0.18,1.20,-0.38,
2.857,4.30,3.16,-0.84,-0.18,1.20,-0.38,
2.857,4.30,3.16,-0.84,-0.21,1.15,-0.40,
2.857,4.30,3.16,-0.84,-0.23,1.10,-0.43,
2.857,4.30,3.16,-0.84,-0.27,1.03,-0.46,
2.86,4.30,3.16,-0.84,-0.30,0.99,-0.48,
2.862,4.30,3.16,-0.84,-0.31,0.97,-0.49,
2.863,4.60,2.99,-0.62,-0.31,0.97,-0.49,
2.863,4.60,2.99,-0.62,-0.34,0.92,-0.51,
2.863,4.60,2.99,-0.62,-0.37,0.88,-0.52,
2.867,4.60,2.99,-0.62,-0.40,0.82,-0.54,
2.869,4.60,2.99,-0.62,-0.42,0.80,-0.55,
2.87,4.60,2.99,-0.62,-0.44,0.75,-0.56,
2.875,4.31,2.94,-0.33,-0.44,0.75,-0.56,
2.876,4.31,2.94,-0.33,-0.46,0.71,-0.57,
2.876,4.31,2.94,-0.33,-0.48,0.65,-0.57,
2.876,4.31,2.94,-0.33,-0.50,0.57,-0.58,
2.877,4.31,2.94,-0.33,-0.51,0.54,-0.58,
2.88,4.31,2.94,-0.33,-0.52,0.47,-0.58,
2.881,3.63,2.88,0.49,-0.52,0.47,-0.58,
2.882,3.63,2.88,0.49,-0.53,0.41,-0.57,
2.885,3.63,2.88,0.49,-0.53,0.34,-0.57,
2.886,3.63,2.88,0.49,-0.54,0.24,-0.57,
2.887,3.63,2.88,0.49,-0.54,0.21,-0.57,
2.889,3.63,2.88,0.49,-0.54,0.15,-0.57,
2.891,2.62,2.49,1.29,-0.54,0.15,-0.57,
2.891,2.62,2.49,1.29,-0.54,0.10,-0.57,
2.893,2.62,2.49,1.29,-0.53,0.06,-0.57,
2.896,2.62,2.49,1.29,-0.52,0.00,-0.58,
2.897,2.62,2.49,1.29,-0.51,-0.01,-0.59,
2.9,2.62,2.49,1.29,-0.51,-0.04,-0.60,
2.902,1.78,1.91,1.97,-0.51,-0.04,-0.60,
2.903,1.78,1.91,1.97,-0.49,-0.06,-0.61,
2.903,1.78,1.91,1.97,-0.49,-0.07,-0.62,
2.906,1.78,1.91,1.97,-0.47,-0.07,-0.65,
2.907,1.78,1.91,1.97,-0.46,-0.07,-0.66,
2.909,1.78,1.91,1.97,-0.46,-0.06,-0.68,
2.911,0.95,1.10,2.11,-0.46,-0.06,-0.68,
2.912,0.95,1.10,2.11,-0.45,-0.05,-0.70,
2.913,0.95,1.10,2.11,-0.45,-0.03,-0.72,
2.917,0.95,1.10,2.11,-0.46,0.01,-0.77,
2.917,0.95,1.10,2.11,-0.46,0.02,-0.78,
2.92,0.95,1.10,2.11,-0.47,0.05,-0.81,
2.921,0.43,0.47,1.67,-0.47,0.05,-0.81,
2.922,0.43,0.47,1.67,-0.49,0.07,-0.85,
2.924,0.43,0.47,1.67,-0.51,0.09,-0.89,
2.942,0.43,0.47,1.67,-0.53,0.10,-0.95,
2.942,0.43,0.47,1.67,-0.54,0.10,-0.97,
2.943,0.43,0.47,1.67,-0.54,0.09,-1.02,
2.943,-0.07,0.20,2.39,-0.54,0.09,-1.02,
2.943,-0.07,0.20,2.39,-0.52,0.06,-1.06,
2.943,-0.07,0.20,2.39,-0.49,0.02,-1.09,
2.943,-0.07,0.20,2.39,-0.40,-0.05,-1.13,
2.944,-0.07,0.20,2.39,-0.36,-0.08,-1.14,
2.944,-0.07,0.20,2.39,-0.24,-0.12,-1.15,
2.944,-1.77,0.01,7.56,-0.24,-0.12,-1.15,
2.945,-1.77,0.01,7.56,-0.10,-0.17,-1.15,
2.945,-1.77,0.01,7.56,0.09,-0.20,-1.14,
2.954,-1.77,0.01,7.56,0.43,-0.23,-1.11,
2.955,-1.77,0.01,7.56,0.56,-0.23,-1.09,
2.955,-1.77,0.01,7.56,0.82,-0.22,-1.05,
2.955,-4.94,-1.48,16.97,0.82,-0.22,-1.05,
2.955,-4.94,-1.48,16.97,1.09,-0.18,-1.00,
2.956,-4.94,-1.48,16.97,1.33,-0.10,-0.94,
2.956,-4.94,-1.48,16.97,1.60,0.14,-0.83,
2.957,-4.94,-1.48,16.97,1.65,0.25,-0.79,
2.963,-4.94,-1.48,16.97,1.70,0.53,-0.70,
2.964,-8.58,-5.82,16.17,1.70,0.53,-0.70,
2.964,-8.58,-5.82,16.17,1.67,0.89,-0.61,
2.964,-8.58,-5.82,16.17,1.56,1.31,-0.50,
2.981,-8.58,-5.82,16.17,1.28,1.99,-0.32,
2.981,-8.58,-5.82,16.17,1.16,2.22,-0.26,
2.981,-8.58,-5.82,16.17,0.90,2.66,-0.14,
2.981,-10.47,-10.49,1.82,0.90,2.66,-0.14,
2.982,-10.47,-10.49,1.82,0.61,3.05,-0.04,
2.982,-10.47,-10.49,1.82,0.32,3.35,0.06,
2.982,-10.47,-10.49,1.82,-0.08,3.56,0.15,
2.983,-10.47,-10.49,1.82,-0.20,3.56,0.17,
2.983,-10.47,-10.49,1.82,-0.41,3.45,0.20,
2.983,-6.15,-11.43,-4.92,-0.41,3.45,0.20,
2.983,-6.15,-11.43,-4.92,-0.57,3.21,0.20,
2.983,-6.15,-11.43,-4.92,-0.69,2.86,0.18,
2.986,-6.15,-11.43,-4.92,-0.81,2.18,0.12,
2.987,-6.15,-11.43,-4.92,-0.84,1.93,0.09,
2.989,-6.15,-11.43,-4.92,-0.87,1.42,0.04,
2.991,0.58,-8.46,-2.80,-0.87,1.42,0.04,
2.991,0.58,-8.46,-2.80,-0.90,0.92,-0.03,
2.993,0.58,-8.46,-2.80,-0.94,0.44,-0.10,
2.996,0.58,-8.46,-2.80,-1.01,-0.18,-0.23,
2.997,0.58,-8.46,-2.80,-1.04,-0.36,-0.27,
2.999,0.58,-8.46,-2.80,-1.11,-0.68,-0.36,
3.001,4.31,-4.30,-3.73,-1.11,-0.68,-0.36,
3.001,4.31,-4.30,-3.73,-1.20,-0.94,-0.44,
3.003,4.31,-4.30,-3.73,-1.30,-1.14,-0.51,
3.006,4.31,-4.30,-3.73,-1.45,-1.34,-0.62,
3.007,4.31,-4.30,-3.73,-1.49,-1.39,-0.65,
3.009,4.31,-4.30,-3.73,-1.58,-1.44,-0.73,
3.011,4.21,-0.27,-5.23,-1.58,-1.44,-0.73,
3.011,4.21,-0.27,-5.23,-1.66,-1.46,-0.80,
3.013,4.21,-0.27,-5.23,-1.73,-1.43,-0.87,
3.016,4.21,-0.27,-5.23,-1.83,-1.34,-0.99,
3.017,4.21,-0.27,-5.23,-1.86,-1.30,-1.03,
3.019,4.21,-0.27,-5.23,-1.92,-1.19,-1.11,
3.021,3.82,2.35,-4.86,-1.92,-1.19,-1.11,
3.021,3.82,2.35,-4.86,-1.97,-1.08,-1.19,
3.023,3.82,2.35,-4.86,-2.02,-0.96,-1.27,
3.025,3.82,2.35,-4.86,-2.07,-0.78,-1.37,
3.027,3.82,2.35,-4.86,-2.08,-0.72,-1.41,
3.029,3.82,2.35,-4.86,-2.09,-0.61,-1.46,
3.031,3.18,3.91,-4.26,-2.09,-0.61,-1.46,
3.032,3.18,3.91,-4.26,-2.09,-0.52,-1.51,
3.033,3.18,3.91,-4.26,-2.07,-0.44,-1.55,
3.036,3.18,3.91,-4.26,-2.03,-0.37,-1.59,
3.037,3.18,3.91,-4.26,-2.01,-0.36,-1.60,
3.039,3.18,3.91,-4.26,-1.97,-0.35,-1.61,
3.041,1.58,4.05,-2.12,-1.97,-0.35,-1.61,
3.041,1.58,4.05,-2.12,-1.92,-0.37,-1.60,
3.043,1.58,4.05,-2.12,-1.86,-0.40,-1.59,
3.046,1.58,4.05,-2.12,-1.78,-0.48,-1.56,
3.047,1.58,4.05,-2.12,-1.75,-0.50,-1.55,
3.049,1.58,4.05,-2.12,-1.69,-0.56,-1.51,
3.051,0.38,1.86,-0.71,-1.69,-0.56,-1.51,
3.052,0.38,1.86,-0.71,-1.63,-0.61,-1.47,
3.053,0.38,1.86,-0.71,-1.57,-0.67,-1.41,
3.056,0.38,1.86,-0.71,-1.49,-0.74,-1.32,
3.057,0.38,1.86,-0.71,-1.47,-0.77,-1.28,
3.059,0.38,1.86,-0.71,-1.42,-0.81,-1.21,
3.061,-0.34,-0.95,-0.80,-1.42,-0.81,-1.21,
3.061,-0.34,-0.95,-0.80,-1.38,-0.85,-1.13,
3.063,-0.34,-0.95,-0.80,-1.35,-0.89,-1.05,
3.073,-0.34,-0.95,-0.80,-1.31,-0.92,-0.93,
3.074,-0.34,-0.95,-0.80,-1.30,-0.93,-0.89,
3.074,-0.34,-0.95,-0.80,-1.28,-0.94,-0.82,
3.074,-0.90,-3.03,-0.83,-1.28,-0.94,-0.82,
3.075,-0.90,-3.03,-0.83,-1.27,-0.94,-0.75,
3.075,-0.90,-3.03,-0.83,-1.26,-0.93,-0.68,
3.076,-0.90,-3.03,-0.83,-1.25,-0.91,-0.59,
3.077,-0.90,-3.03,-0.83,-1.25,-0.90,-0.57,
3.079,-0.90,-3.03,-0.83,-1.25,-0.87,-0.52,
3.102,-0.56,-4.37,0.02,-1.25,-0.87,-0.52,
3.103,-0.56,-4.37,0.02,-1.25,-0.83,-0.48,
3.104,-0.56,-4.37,0.02,-1.27,-0.80,-0.45,
3.104,-0.56,-4.37,0.02,-1.30,-0.76,-0.42,
3.104,-0.56,-4.37,0.02,-1.32,-0.74,-0.41,
3.104,-0.56,-4.37,0.02,-1.36,-0.72,-0.40,
3.105,0.78,-4.98,0.50,-1.36,-0.72,-0.40,
3.128,0.78,-4.98,0.50,-1.41,-0.71,-0.40,
3.129,0.78,-4.98,0.50,-1.47,-0.70,-0.40,
3.129,0.78,-4.98,0.50,-1.56,-0.71,-0.43,
3.129,0.78,-4.98,0.50,-1.59,-0.71,-0.43,
3.13,0.78,-4.98,0.50,-1.65,-0.73,-0.46,
3.13,2.36,-5.08,0.09,-1.65,-0.73,-0.46,
3.131,2.36,-5.08,0.09,-1.72,-0.75,-0.49,
3.131,2.36,-5.08,0.09,-1.78,-0.78,-0.52,
3.132,2.36,-5.08,0.09,-1.86,-0.82,-0.59,
3.132,2.36,-5.08,0.09,-1.89,-0.83,-0.61,
3.133,2.36,-5.08,0.09,-1.93,-0.86,-0.67,
3.133,3.17,-4.50,-0.27,-1.93,-0.86,-0.67,
3.133,3.17,-4.50,-0.27,-1.97,-0.88,-0.72,
3.134,3.17,-4.50,-0.27,-2.00,-0.89,-0.78,
3.134,3.17,-4.50,-0.27,-2.04,-0.90,-0.88,
3.135,3.17,-4.50,-0.27,-2.04,-0.90,-0.91,
3.135,3.17,-4.50,-0.27,-2.05,-0.89,-0.98,
3.136,3.29,-3.46,-0.38,-2.05,-0.89,-0.98,
3.136,3.29,-3.46,-0.38,-2.05,-0.87,-1.04,
3.136,3.29,-3.46,-0.38,-2.05,-0.85,-1.11,
3.137,3.29,-3.46,-0.38,-2.03,-0.81,-1.20,
3.137,3.29,-3.46,-0.38,-2.02,-0.80,-1.23,
3.138,3.29,-3.46,-0.38,-2.00,-0.78,-1.28,
3.138,2.74,-1.91,-0.14,-2.00,-0.78,-1.28,
3.139,2.74,-1.91,-0.14,-1.98,-0.76,-1.33,
3.139,2.74,-1.91,-0.14,-1.95,-0.75,-1.37,
3.139,2.74,-1.91,-0.14,-1.91,-0.74,-1.42,
3.14,2.74,-1.91,-0.14,-1.89,-0.74,-1.44,
3.14,2.74,-1.91,-0.14,-1.86,-0.75,-1.46,
3.147,1.77,-0.39,0.26,-1.86,-0.75,-1.46,
3.148,1.77,-0.39,0.26,-1.83,-0.75,-1.47,
3.148,1.77,-0.39,0.26,-1.80,-0.77,-1.48,
3.148,1.77,-0.39,0.26,-1.76,-0.80,-1.48,
3.148,1.77,-0.39,0.26,-1.75,-0.81,-1.47,
3.149,1.77,-0.39,0.26,-1.73,-0.83,-1.46,
3.151,0.46,0.89,0.41,-1.73,-0.83,-1.46,
3.152,0.46,0.89,0.41,-1.71,-0.86,-1.44,
3.153,0.46,0.89,0.41,-1.70,-0.87,-1.41,
3.156,0.46,0.89,0.41,-1.69,-0.89,-1.36,
3.157,0.46,0.89,0.41,-1.68,-0.90,-1.34,
3.159,0.46,0.89,0.41,-1.68,-0.90,-1.29,
3.161,-0.66,1.59,0.13,-1.68,-0.90,-1.29,
3.161,-0.66,1.59,0.13,-1.69,-0.90,-1.25,
3.163,-0.66,1.59,0.13,-1.70,-0.90,-1.20,
3.166,-0.66,1.59,0.13,-1.71,-0.88,-1.11,
3.167,-0.66,1.59,0.13,-1.72,-0.87,-1.08,
3.169,-0.66,1.59,0.13,-1.74,-0.86,-1.02,
3.171,-1.23,1.67,-0.29,-1.74,-0.86,-1.02,
3.171,-1.23,1.67,-0.29,-1.75,-0.84,-0.96,
3.173,-1.23,1.67,-0.29,-1.77,-0.82,-0.90,
3.176,-1.23,1.67,-0.29,-1.80,-0.80,-0.81,
3.177,-1.23,1.67,-0.29,-1.81,-0.79,-0.78,
3.179,-1.23,1.67,-0.29,-1.83,-0.78,-0.73,
3.183,-1.11,1.49,-0.51,-1.83,-0.78,-0.73,
3.185,-1.11,1.49,-0.51,-1.85,-0.78,-0.67,
3.186,-1.11,1.49,-0.51,-1.88,-0.77,-0.63,
3.187,-1.11,1.49,-0.51,-1.91,-0.78,-0.56,
3.189,-1.11,1.49,-0.51,-1.92,-0.78,-0.54,
3.189,-1.11,1.49,-0.51,-1.94,-0.78,-0.50,
3.195,-0.46,1.15,-0.74,-1.94,-0.78,-0.50,
3.195,-0.46,1.15,-0.74,-1.96,-0.80,-0.46,
3.196,-0.46,1.15,-0.74,-1.98,-0.82,-0.43,
3.198,-0.46,1.15,-0.74,-2.01,-0.85,-0.38,
3.2,-0.46,1.15,-0.74,-2.02,-0.86,-0.36,
3.202,-0.46,1.15,-0.74,-2.03,-0.89,-0.33,
3.203,-0.04,0.84,-0.82,-2.03,-0.89,-0.33,
3.203,-0.04,0.84,-0.82,-2.05,-0.92,-0.30,
3.203,-0.04,0.84,-0.82,-2.06,-0.95,-0.26,
3.207,-0.04,0.84,-0.82,-2.07,-0.99,-0.22,
3.209,-0.04,0.84,-0.82,-2.08,-1.03,-0.17,
3.211,-0.04,0.84,-0.82,-2.08,-1.04,-0.15,
3.213,0.07,0.45,-0.78,-2.08,-1.04,-0.15,
3.214,0.07,0.45,-0.78,-2.08,-1.06,-0.14,
3.218,0.07,0.45,-0.78,-2.08,-1.08,-0.10,
3.222,0.07,0.45,-0.78,-2.08,-1.11,-0.06,
3.223,0.07,0.45,-0.78,-2.08,-1.12,-0.05,
3.223,0.07,0.45,-0.78,-2.07,-1.13,-0.02,
3.224,0.10,0.21,-0.67,-2.07,-1.13,-0.02,
3.224,0.10,0.21,-0.67,-2.07,-1.13,0.00,
3.224,0.10,0.21,-0.67,-2.07,-1.13,0.02,
3.226,0.10,0.21,-0.67,-2.06,-1.13,0.04,
3.229,0.10,0.21,-0.67,-2.06,-1.12,0.05,
3.229,0.10,0.21,-0.67,-2.05,-1.11,0.06,
3.239,0.31,-0.04,-0.67,-2.05,-1.11,0.06,
3.24,0.31,-0.04,-0.67,-2.04,-1.09,0.08,
3.24,0.31,-0.04,-0.67,-2.04,-1.07,0.09,
3.24,0.31,-0.04,-0.67,-2.03,-1.03,0.11,
3.24,0.31,-0.04,-0.67,-2.02,-1.02,0.11,
3.241,0.31,-0.04,-0.67,-2.02,-0.99,0.13,
3.244,0.16,-0.39,-0.80,-2.02,-0.99,0.13,
3.245,0.16,-0.39,-0.80,-2.02,-0.96,0.14,
3.246,0.16,-0.39,-0.80,-2.02,-0.93,0.15,
3.247,0.16,-0.39,-0.80,-2.02,-0.88,0.17,
3.276,0.16,-0.39,-0.80,-2.01,-0.86,0.18,
3.277,0.16,-0.39,-0.80,-2.01,-0.82,0.19,
3.277,-0.05,-0.69,-0.90,-2.01,-0.82,0.19,
3.277,-0.05,-0.69,-0.90,-2.01,-0.78,0.20,
3.277,-0.05,-0.69,-0.90,-2.01,-0.75,0.21,
3.278,-0.05,-0.69,-0.90,-2.02,-0.68,0.22,
3.278,-0.05,-0.69,-0.90,-2.02,-0.66,0.23,
3.303,-0.05,-0.69,-0.90,-2.02,-0.62,0.24,
3.304,-0.26,-0.87,-1.04,-2.02,-0.62,0.24,
3.304,-0.26,-0.87,-1.04,-2.03,-0.58,0.25,
3.304,-0.26,-0.87,-1.04,-2.03,-0.54,0.26,
3.304,-0.26,-0.87,-1.04,-2.03,-0.48,0.27,
3.305,-0.26,-0.87,-1.04,-2.03,-0.46,0.27,
3.305,-0.26,-0.87,-1.04,-2.04,-0.42,0.28,
3.305,-0.32,-0.82,-0.86,-2.04,-0.42,0.28,
3.305,-0.32,-0.82,-0.86,-2.04,-0.38,0.28,
3.306,-0.32,-0.82,-0.86,-2.04,-0.35,0.28,
3.306,-0.32,-0.82,-0.86,-2.03,-0.30,0.28,
3.306,-0.32,-0.82,-0.86,-2.03,-0.28,0.28,
3.306,-0.32,-0.82,-0.86,-2.03,-0.25,0.29,
3.307,-0.31,-0.67,-0.39,-2.03,-0.25,0.29,
3.307,-0.31,-0.67,-0.39,-2.02,-0.23,0.28,
3.307,-0.31,-0.67,-0.39,-2.01,-0.21,0.28,
3.308,-0.31,-0.67,-0.39,-2.00,-0.18,0.28,
3.308,-0.31,-0.67,-0.39,-1.99,-0.17,0.28,
3.308,-0.31,-0.67,-0.39,-1.98,-0.15,0.28,
3.308,-0.40,-0.47,0.23,-1.98,-0.15,0.28,
3.309,-0.40,-0.47,0.23,-1.97,-0.14,0.28,
3.309,-0.40,-0.47,0.23,-1.95,-0.13,0.28,
3.309,-0.40,-0.47,0.23,-1.94,-0.13,0.28,
3.309,-0.40,-0.47,0.23,-1.93,-0.14,0.29,
3.31,-0.40,-0.47,0.23,-1.92,-0.14,0.29,
3.31,-0.67,-0.36,0.71,-1.92,-0.14,0.29,
3.31,-0.67,-0.36,0.71,-1.91,-0.15,0.29,
3.31,-0.67,-0.36,0.71,-1.89,-0.17,0.29,
3.311,-0.67,-0.36,0.71,-1.87,-0.18,0.30,
3.311,-0.67,-0.36,0.71,-1.86,-0.19,0.31,
3.311,-0.67,-0.36,0.71,-1.85,-0.21,0.32,
3.311,-1.07,-0.36,0.87,-1.85,-0.21,0.32,
3.312,-1.07,-0.36,0.87,-1.84,-0.23,0.33,
3.321,-1.07,-0.36,0.87,-1.83,-0.25,0.34,
3.321,-1.07,-0.36,0.87,-1.82,-0.28,0.37,
3.321,-1.07,-0.36,0.87,-1.82,-0.29,0.37,
3.321,-1.07,-0.36,0.87,-1.82,-0.31,0.39,
3.322,-1.53,-0.27,0.57,-1.82,-0.31,0.39,
3.322,-1.53,-0.27,0.57,-1.81,-0.34,0.41,
3.324,-1.53,-0.27,0.57,-1.81,-0.36,0.42,
3.326,-1.53,-0.27,0.57,-1.81,-0.38,0.45,
3.327,-1.53,-0.27,0.57,-1.80,-0.39,0.46,
3.329,-1.53,-0.27,0.57,-1.80,-0.41,0.48,
3.332,-1.71,-0.14,0.26,-1.80,-0.41,0.48,
3.333,-1.71,-0.14,0.26,-1.80,-0.42,0.49,
3.333,-1.71,-0.14,0.26,-1.80,-0.43,0.50,
3.336,-1.71,-0.14,0.26,-1.80,-0.44,0.52,
3.341,-1.71,-0.14,0.26,-1.79,-0.45,0.54,
3.342,-1.71,-0.14,0.26,-1.79,-0.45,0.54,
3.343,-1.51,0.05,0.15,-1.79,-0.45,0.54,
3.344,-1.51,0.05,0.15,-1.79,-0.45,0.54,
3.345,-1.51,0.05,0.15,-1.79,-0.45,0.55,
3.347,-1.51,0.05,0.15,-1.78,-0.45,0.55,
3.348,-1.51,0.05,0.15,-1.78,-0.44,0.55,
3.349,-1.51,0.05,0.15,-1.78,-0.44,0.55,
3.352,-1.20,0.33,0.28,-1.78,-0.44,0.55,
3.352,-1.20,0.33,0.28,-1.77,-0.43,0.54,
3.353,-1.20,0.33,0.28,-1.76,-0.41,0.53,
3.356,-1.20,0.33,0.28,-1.75,-0.38,0.52,
3.357,-1.20,0.33,0.28,-1.75,-0.37,0.51,
3.359,-1.20,0.33,0.28,-1.74,-0.35,0.49,
3.361,-0.64,0.59,0.52,-1.74,-0.35,0.49,
3.361,-0.64,0.59,0.52,-1.73,-0.32,0.46,
3.366,-0.64,0.59,0.52,-1.72,-0.30,0.44,
3.366,-0.64,0.59,0.52,-1.71,-0.27,0.40,
3.367,-0.64,0.59,0.52,-1.71,-0.26,0.39,
3.369,-0.64,0.59,0.52,-1.70,-0.24,0.36,
3.375,-0.17,0.77,0.80,-1.70,-0.24,0.36,
3.375,-0.17,0.77,0.80,-1.69,-0.22,0.33,
3.376,-0.17,0.77,0.80,-1.68,-0.21,0.30,
3.376,-0.17,0.77,0.80,-1.67,-0.18,0.25,
3.377,-0.17,0.77,0.80,-1.67,-0.17,0.23,
3.379,-0.17,0.77,0.80,-1.66,-0.16,0.20,
3.392,0.08,0.82,1.04,-1.66,-0.16,0.20,
3.392,0.08,0.82,1.04,-1.65,-0.15,0.17,
3.392,0.08,0.82,1.04,-1.64,-0.13,0.14,
3.392,0.08,0.82,1.04,-1.62,-0.11,0.08,
3.393,0.08,0.82,1.04,-1.61,-0.10,0.07,
3.393,0.08,0.82,1.04,-1.60,-0.09,0.03,
3.393,0.18,0.71,1.27,-1.60,-0.09,0.03,
3.393,0.18,0.71,1.27,-1.58,-0.09,-0.00,
3.393,0.18,0.71,1.27,-1.57,-0.08,-0.03,
3.396,0.18,0.71,1.27,-1.54,-0.08,-0.07,
3.398,0.18,0.71,1.27,-1.53,-0.08,-0.09,
3.399,0.18,0.71,1.27,-1.50,-0.09,-0.12,
3.402,0.08,0.50,1.73,-1.50,-0.09,-0.12,
3.402,0.08,0.50,1.73,-1.48,-0.09,-0.14,
3.403,0.08,0.50,1.73,-1.46,-0.10,-0.16,
3.406,0.08,0.50,1.73,-1.43,-0.11,-0.19,
3.407,0.08,0.50,1.73,-1.42,-0.12,-0.20,
3.409,0.08,0.50,1.73,-1.39,-0.13,-0.22,
3.411,0.03,0.03,1.91,-1.39,-0.13,-0.22,
3.411,0.03,0.03,1.91,-1.37,-0.14,-0.24,
3.413,0.03,0.03,1.91,-1.35,-0.15,-0.27,
3.416,0.03,0.03,1.91,-1.32,-0.17,-0.30,
3.417,0.03,0.03,1.91,-1.31,-0.19,-0.31,
3.42,0.03,0.03,1.91,-1.30,-0.21,-0.34,
3.421,0.38,-0.33,1.93,-1.30,-0.21,-0.34,
3.421,0.38,-0.33,1.93,-1.29,-0.24,-0.37,
3.423,0.38,-0.33,1.93,-1.28,-0.26,-0.40,
3.435,0.38,-0.33,1.93,-1.27,-0.29,-0.45,
3.435,0.38,-0.33,1.93,-1.26,-0.30,-0.47,
3.435,0.38,-0.33,1.93,-1.26,-0.33,-0.50,
3.436,0.87,-0.26,1.87,-1.26,-0.33,-0.50,
3.436,0.87,-0.26,1.87,-1.26,-0.36,-0.53,
3.436,0.87,-0.26,1.87,-1.26,-0.38,-0.56,
3.436,0.87,-0.26,1.87,-1.28,-0.39,-0.60,
3.439,0.87,-0.26,1.87,-1.28,-0.39,-0.61,
3.439,0.87,-0.26,1.87,-1.29,-0.40,-0.64,
3.441,1.16,-0.25,1.91,-1.29,-0.40,-0.64,
3.442,1.16,-0.25,1.91,-1.29,-0.43,-0.65,
3.443,1.16,-0.25,1.91,-1.27,-0.47,-0.67,
3.446,1.16,-0.25,1.91,-1.23,-0.53,-0.68,
3.447,1.16,-0.25,1.91,-1.22,-0.55,-0.68,
3.449,1.16,-0.25,1.91,-1.19,-0.59,-0.68,
3.451,0.90,-0.42,3.53,-1.19,-0.59,-0.68,
3.452,0.90,-0.42,3.53,-1.15,-0.62,-0.67,
3.453,0.90,-0.42,3.53,-1.11,-0.65,-0.66,
3.456,0.90,-0.42,3.53,-1.05,-0.67,-0.64,
3.457,0.90,-0.42,3.53,-1.02,-0.68,-0.63,
3.459,0.90,-0.42,3.53,-0.98,-0.68,-0.62,
3.461,0.74,-0.21,4.09,-0.98,-0.68,-0.62,
3.462,0.74,-0.21,4.09,-0.95,-0.68,-0.60,
3.464,0.74,-0.21,4.09,-0.92,-0.67,-0.59,
3.466,0.74,-0.21,4.09,-0.89,-0.64,-0.57,
3.467,0.74,-0.21,4.09,-0.88,-0.63,-0.56,
3.469,0.74,-0.21,4.09,-0.87,-0.60,-0.55,
3.471,1.00,-0.08,3.27,-0.87,-0.60,-0.55,
3.472,1.00,-0.08,3.27,-0.86,-0.58,-0.54,
3.473,1.00,-0.08,3.27,-0.86,-0.55,-0.53,
3.476,1.00,-0.08,3.27,-0.87,-0.50,-0.52,
3.477,1.00,-0.08,3.27,-0.88,-0.49,-0.52,
3.479,1.00,-0.08,3.27,-0.90,-0.46,-0.51,
3.485,1.60,0.05,2.18,-0.90,-0.46,-0.51,
3.485,1.60,0.05,2.18,-0.92,-0.44,-0.52,
3.488,1.60,0.05,2.18,-0.95,-0.41,-0.52,
3.489,1.60,0.05,2.18,-1.00,-0.38,-0.53,
3.489,1.60,0.05,2.18,-1.01,-0.37,-0.53,
3.49,1.60,0.05,2.18,-1.04,-0.35,-0.53,
3.491,1.90,0.15,1.36,-1.04,-0.35,-0.53,
3.492,1.90,0.15,1.36,-1.07,-0.34,-0.53,
3.493,1.90,0.15,1.36,-1.11,-0.33,-0.53,
3.496,1.90,0.15,1.36,-1.16,-0.31,-0.53,
3.498,1.90,0.15,1.36,-1.18,-0.30,-0.53,
3.499,1.90,0.15,1.36,-1.21,-0.29,-0.53,
3.501,1.85,0.14,1.19,-1.21,-0.29,-0.53,
3.501,1.85,0.14,1.19,-1.24,-0.28,-0.53,
3.504,1.85,0.14,1.19,-1.27,-0.28,-0.52,
3.506,1.85,0.14,1.19,-1.32,-0.27,-0.52,
3.507,1.85,0.14,1.19,-1.33,-0.27,-0.51,
3.509,1.85,0.14,1.19,-1.36,-0.26,-0.51,
3.511,1.68,0.06,1.14,-1.36,-0.26,-0.51,
3.511,1.68,0.06,1.14,-1.39,-0.26,-0.51,
3.516,1.68,0.06,1.14,-1.41,-0.26,-0.51,
3.517,1.68,0.06,1.14,-1.44,-0.25,-0.51,
3.517,1.68,0.06,1.14,-1.45,-0.25,-0.51,
3.519,1.68,0.06,1.14,-1.47,-0.26,-0.51,
3.524,1.70,-0.06,1.29,-1.47,-0.26,-0.51,
3.525,1.70,-0.06,1.29,-1.48,-0.26,-0.51,
3.525,1.70,-0.06,1.29,-1.49,-0.26,-0.52,
3.526,1.70,-0.06,1.29,-1.51,-0.27,-0.53,
3.527,1.70,-0.06,1.29,-1.51,-0.28,-0.53,
3.575,1.70,-0.06,1.29,-1.52,-0.28,-0.54,
3.576,1.72,-0.15,1.57,-1.52,-0.28,-0.54,
3.577,1.72,-0.15,1.57,-1.52,-0.28,-0.55,
3.578,1.72,-0.15,1.57,-1.52,-0.29,-0.56,
3.578,1.72,-0.15,1.57,-1.51,-0.28,-0.57,
3.578,1.72,-0.15,1.57,-1.51,-0.28,-0.57,
3.579,1.72,-0.15,1.57,-1.50,-0.28,-0.58,
3.58,1.40,-0.41,2.21,-1.50,-0.28,-0.58,
3.58,1.40,-0.41,2.21,-1.48,-0.27,-0.58,
3.582,1.40,-0.41,2.21,-1.46,-0.26,-0.58,
3.583,1.40,-0.41,2.21,-1.43,-0.24,-0.58,
3.585,1.40,-0.41,2.21,-1.42,-0.23,-0.57,
3.585,1.40,-0.41,2.21,-1.40,-0.21,-0.56,
3.586,0.77,-0.85,2.54,-1.40,-0.21,-0.56,
3.586,0.77,-0.85,2.54,-1.38,-0.18,-0.56,
3.586,0.77,-0.85,2.54,-1.37,-0.16,-0.55,
3.587,0.77,-0.85,2.54,-1.35,-0.11,-0.53,
3.587,0.77,-0.85,2.54,-1.33,-0.06,-0.51,
3.587,0.77,-0.85,2.54,-1.32,-0.04,-0.51,
3.587,0.45,-1.53,2.40,-1.32,-0.04,-0.51,
3.588,0.45,-1.53,2.40,-1.32,-0.03,-0.50,
3.588,0.45,-1.53,2.40,-1.31,0.01,-0.49,
3.588,0.45,-1.53,2.40,-1.31,0.05,-0.48,
3.589,0.45,-1.53,2.40,-1.31,0.06,-0.47,
3.589,0.45,-1.53,2.40,-1.32,0.07,-0.46,
3.589,0.29,-2.02,1.89,-1.32,0.07,-0.46,
3.589,0.29,-2.02,1.89,-1.33,0.09,-0.45,
3.59,0.29,-2.02,1.89,-1.35,0.09,-0.44,
3.59,0.29,-2.02,1.89,-1.38,0.09,-0.42,
3.59,0.29,-2.02,1.89,-1.39,0.09,-0.42,
3.591,0.29,-2.02,1.89,-1.42,0.08,-0.41,
3.591,0.29,-2.37,1.26,-1.42,0.08,-0.41,
3.591,0.29,-2.37,1.26,-1.44,0.07,-0.40,
3.591,0.29,-2.37,1.26,-1.47,0.05,-0.40,
3.592,0.29,-2.37,1.26,-1.52,0.01,-0.39,
3.592,0.29,-2.37,1.26,-1.54,-0.01,-0.39,
3.592,0.29,-2.37,1.26,-1.57,-0.04,-0.39,
3.593,0.32,-2.73,0.83,-1.57,-0.04,-0.39,
3.622,0.32,-2.73,0.83,-1.61,-0.07,-0.38,
3.622,0.32,-2.73,0.83,-1.64,-0.11,-0.38,
3.622,0.32,-2.73,0.83,-1.69,-0.17,-0.38,
3.623,0.32,-2.73,0.83,-1.71,-0.19,-0.38,
3.623,0.32,-2.73,0.83,-1.74,-0.24,-0.38,
3.623,0.41,-3.24,0.81,-1.74,-0.24,-0.38,
3.623,0.41,-3.24,0.81,-1.77,-0.28,-0.39,
3.624,0.41,-3.24,0.81,-1.79,-0.32,-0.39,
3.624,0.41,-3.24,0.81,-1.82,-0.38,-0.40,
3.624,0.41,-3.24,0.81,-1.83,-0.40,-0.40,
3.624,0.41,-3.24,0.81,-1.84,-0.43,-0.41,
3.625,0.53,-3.76,1.18,-1.84,-0.43,-0.41,
3.625,0.53,-3.76,1.18,-1.85,-0.47,-0.41,
3.625,0.53,-3.76,1.18,-1.86,-0.49,-0.42,
3.626,0.53,-3.76,1.18,-1.86,-0.53,-0.42,
3.626,0.53,-3.76,1.18,-1.86,-0.54,-0.42,
3.626,0.53,-3.76,1.18,-1.85,-0.56,-0.43,
3.627,0.50,-4.39,1.88,-1.85,-0.56,-0.43,
3.627,0.50,-4.39,1.88,-1.84,-0.57,-0.43,
3.627,0.50,-4.39,1.88,-1.82,-0.58,-0.42,
3.627,0.50,-4.39,1.88,-1.79,-0.60,-0.42,
3.628,0.50,-4.39,1.88,-1.79,-0.60,-0.41,
3.638,0.50,-4.39,1.88,-1.76,-0.61,-0.40,
3.639,0.15,-5.16,2.44,-1.76,-0.61,-0.40,
3.639,0.15,-5.16,2.44,-1.74,-0.62,-0.38,
3.639,0.15,-5.16,2.44,-1.71,-0.62,-0.37,
3.639,0.15,-5.16,2.44,-1.67,-0.63,-0.34,
3.64,0.15,-5.16,2.44,-1.65,-0.63,-0.33,
3.64,0.15,-5.16,2.44,-1.61,-0.62,-0.30,
3.641,0.08,-5.93,3.03,-1.61,-0.62,-0.30,
3.641,0.08,-5.93,3.03,-1.58,-0.62,-0.28,
3.644,0.08,-5.93,3.03,-1.54,-0.60,-0.26,
3.647,0.08,-5.93,3.03,-1.47,-0.58,-0.22,
3.65,0.08,-5.93,3.03,-1.44,-0.57,-0.20,
3.65,0.08,-5.93,3.03,-1.39,-0.55,-0.17,
3.652,0.08,-6.49,3.59,-1.39,-0.55,-0.17,
3.653,0.08,-6.49,3.59,-1.33,-0.53,-0.14,
3.653,0.08,-6.49,3.59,-1.27,-0.52,-0.11,
3.657,0.08,-6.49,3.59,-1.18,-0.49,-0.07,
3.657,0.08,-6.49,3.59,-1.14,-0.49,-0.05,
3.659,0.08,-6.49,3.59,-1.07,-0.48,-0.01,
3.668,-0.09,-7.16,4.08,-1.07,-0.48,-0.01,
3.668,-0.09,-7.16,4.08,-1.00,-0.49,0.03,
3.669,-0.09,-7.16,4.08,-0.92,-0.50,0.08,
3.669,-0.09,-7.16,4.08,-0.81,-0.53,0.15,
3.669,-0.09,-7.16,4.08,-0.77,-0.55,0.18,
3.669,-0.09,-7.16,4.08,-0.68,-0.59,0.23,
3.671,-0.62,-7.86,4.09,-0.68,-0.59,0.23,
3.672,-0.62,-7.86,4.09,-0.60,-0.63,0.28,
3.673,-0.62,-7.86,4.09,-0.50,-0.68,0.33,
3.677,-0.62,-7.86,4.09,-0.36,-0.77,0.41,
3.696,-0.62,-7.86,4.09,-0.31,-0.80,0.43,
3.696,-0.62,-7.86,4.09,-0.21,-0.85,0.47,
3.697,-1.02,-7.89,4.36,-0.21,-0.85,0.47,
3.697,-1.02,-7.89,4.36,-0.10,-0.90,0.50,
3.697,-1.02,-7.89,4.36,0.01,-0.95,0.52,
3.697,-1.02,-7.89,4.36,0.19,-1.00,0.54,
3.698,-1.02,-7.89,4.36,0.25,-1.01,0.54,
3.698,-1.02,-7.89,4.36,0.37,-1.03,0.54,
3.698,-1.09,-6.73,4.97,0.37,-1.03,0.54,
3.698,-1.09,-6.73,4.97,0.50,-1.04,0.53,
3.699,-1.09,-6.73,4.97,0.63,-1.04,0.53,
3.699,-1.09,-6.73,4.97,0.84,-1.01,0.52,
3.699,-1.09,-6.73,4.97,0.92,-0.99,0.52,
3.699,-1.09,-6.73,4.97,1.06,-0.94,0.52,
3.701,-1.88,-5.05,6.13,1.06,-0.94,0.52,
3.702,-1.88,-5.05,6.13,1.21,-0.87,0.52,
3.703,-1.88,-5.05,6.13,1.36,-0.79,0.53,
3.707,-1.88,-5.05,6.13,1.59,-0.62,0.55,
3.707,-1.88,-5.05,6.13,1.67,-0.55,0.55,
3.709,-1.88,-5.05,6.13,1.83,-0.39,0.58,
3.713,-3.23,-3.53,7.25,1.83,-0.39,0.58,
3.713,-3.23,-3.53,7.25,2.00,-0.22,0.60,
3.718,-3.23,-3.53,7.25,2.16,-0.01,0.63,
3.719,-3.23,-3.53,7.25,2.43,0.34,0.68,
3.719,-3.23,-3.53,7.25,2.51,0.47,0.70,
3.719,-3.23,-3.53,7.25,2.69,0.74,0.74,
3.721,-4.43,-2.39,9.10,2.69,0.74,0.74,
3.722,-4.43,-2.39,9.10,2.88,1.04,0.78,
3.725,-4.43,-2.39,9.10,3.07,1.35,0.82,
3.728,-4.43,-2.39,9.10,3.35,1.83,0.89,
3.729,-4.43,-2.39,9.10,3.44,2.00,0.91,
3.731,-4.43,-2.39,9.10,3.63,2.33,0.96,
3.732,-4.52,-1.76,10.56,3.63,2.33,0.96,
3.733,-4.52,-1.76,10.56,3.82,2.65,1.00,
3.733,-4.52,-1.76,10.56,4.01,2.97,1.05,
3.736,-4.52,-1.76,10.56,4.30,3.42,1.11,
3.737,-4.52,-1.76,10.56,4.47,3.70,1.15,
3.739,-4.52,-1.76,10.56,4.56,3.83,1.18,
3.741,-3.69,-1.85,11.84,4.56,3.83,1.18,
3.742,-3.69,-1.85,11.84,4.74,4.09,1.22,
3.743,-3.69,-1.85,11.84,4.90,4.32,1.26,
3.748,-3.69,-1.85,11.84,5.12,4.63,1.32,
3.748,-3.69,-1.85,11.84,5.19,4.72,1.35,
3.75,-3.69,-1.85,11.84,5.31,4.89,1.39,
3.752,-2.61,-2.65,11.90,5.31,4.89,1.39,
3.753,-2.61,-2.65,11.90,5.42,5.04,1.44,
3.755,-2.61,-2.65,11.90,5.50,5.16,1.49,
3.756,-2.61,-2.65,11.90,5.58,5.30,1.57,
3.758,-2.61,-2.65,11.90,5.59,5.33,1.59,
3.779,-2.61,-2.65,11.90,5.59,5.35,1.64,
3.78,-2.06,-3.42,9.82,5.59,5.35,1.64,
3.78,-2.06,-3.42,9.82,5.56,5.33,1.69,
3.78,-2.06,-3.42,9.82,5.51,5.27,1.73,
3.781,-2.06,-3.42,9.82,5.40,5.06,1.77,
3.781,-2.06,-3.42,9.82,5.36,4.97,1.78,
3.781,-2.06,-3.42,9.82,5.26,4.75,1.79,
3.782,-0.82,-3.84,6.17,5.26,4.75,1.79,
3.782,-0.82,-3.84,6.17,5.15,4.47,1.79,
3.782,-0.82,-3.84,6.17,5.02,4.14,1.77,
3.783,-0.82,-3.84,6.17,4.82,3.57,1.72,
3.783,-0.82,-3.84,6.17,4.68,3.13,1.67,
3.783,-0.82,-3.84,6.17,4.61,2.90,1.65,
3.783,1.48,-4.39,2.70,4.61,2.90,1.65,
3.784,1.48,-4.39,2.70,4.45,2.41,1.59,
3.784,1.48,-4.39,2.70,4.28,1.89,1.54,
3.8,1.48,-4.39,2.70,4.00,1.07,1.44,
3.801,1.48,-4.39,2.70,3.91,0.79,1.41,
3.801,1.48,-4.39,2.70,3.72,0.22,1.34,
3.801,3.26,-4.88,-1.39,3.72,0.22,1.34,
3.802,3.26,-4.88,-1.39,3.53,-0.35,1.28,
3.802,3.26,-4.88,-1.39,3.33,-0.92,1.21,
3.802,3.26,-4.88,-1.39,3.02,-1.76,1.10,
3.805,3.26,-4.88,-1.39,2.92,-2.04,1.06,
3.806,3.26,-4.88,-1.39,2.71,-2.57,1.00,
3.806,4.63,-5.04,-5.46,2.71,-2.57,1.00,
3.806,4.63,-5.04,-5.46,2.51,-3.08,0.94,
3.806,4.63,-5.04,-5.46,2.31,-3.58,0.89,
3.807,4.63,-5.04,-5.46,2.02,-4.27,0.83,
3.807,4.63,-5.04,-5.46,1.83,-4.68,0.80,
3.809,4.63,-5.04,-5.46,1.74,-4.88,0.79,
3.835,4.30,-4.48,-8.09,1.74,-4.88,0.79,
3.836,4.30,-4.48,-8.09,1.56,-5.25,0.76,
3.836,4.30,-4.48,-8.09,1.40,-5.58,0.74,
3.836,4.30,-4.48,-8.09,1.16,-6.01,0.71,
3.836,4.30,-4.48,-8.09,1.09,-6.13,0.70,
3.836,4.30,-4.48,-8.09,0.96,-6.35,0.68,
3.837,3.77,-3.85,-9.20,0.96,-6.35,0.68,
3.837,3.77,-3.85,-9.20,0.84,-6.54,0.66,
3.837,3.77,-3.85,-9.20,0.73,-6.68,0.63,
3.837,3.77,-3.85,-9.20,0.61,-6.84,0.57,
3.838,3.77,-3.85,-9.20,0.55,-6.90,0.52,
3.838,3.77,-3.85,-9.20,0.52,-6.92,0.49,
3.838,3.70,-3.54,-8.06,0.52,-6.92,0.49,
3.838,3.70,-3.54,-8.06,0.50,-6.93,0.44,
3.839,3.70,-3.54,-8.06,0.51,-6.90,0.39,
3.839,3.70,-3.54,-8.06,0.59,-6.82,0.31,
3.839,3.70,-3.54,-8.06,0.71,-6.74,0.26,
3.839,3.70,-3.54,-8.06,0.79,-6.70,0.24,
3.841,3.31,-4.51,-3.03,0.79,-6.70,0.24,
3.841,3.31,-4.51,-3.03,0.96,-6.58,0.19,
3.843,3.31,-4.51,-3.03,1.18,-6.41,0.13,
3.846,3.31,-4.51,-3.03,1.55,-6.05,0.05,
3.847,3.31,-4.51,-3.03,1.82,-5.75,-0.01,
3.849,3.31,-4.51,-3.03,1.95,-5.59,-0.04,
3.851,2.76,-6.91,2.40,1.95,-5.59,-0.04,
3.852,2.76,-6.91,2.40,2.23,-5.21,-0.10,
3.853,2.76,-6.91,2.40,2.50,-4.79,-0.17,
3.856,2.76,-6.91,2.40,2.88,-4.08,-0.26,
3.857,2.76,-6.91,2.40,3.00,-3.83,-0.28,
3.859,2.76,-6.91,2.40,3.23,-3.31,-0.33,
3.862,1.72,-9.82,2.28,3.23,-3.31,-0.33,
3.862,1.72,-9.82,2.28,3.44,-2.78,-0.37,
3.863,1.72,-9.82,2.28,3.62,-2.25,-0.40,
3.866,1.72,-9.82,2.28,3.84,-1.47,-0.41,
3.867,1.72,-9.82,2.28,3.91,-1.22,-0.42,
3.869,1.72,-9.82,2.28,4.02,-0.74,-0.41,
3.871,-0.41,-11.95,-1.57,4.02,-0.74,-0.41,
3.871,-0.41,-11.95,-1.57,4.12,-0.28,-0.40,
3.873,-0.41,-11.95,-1.57,4.22,0.16,-0.38,
3.876,-0.41,-11.95,-1.57,4.37,0.77,-0.35,
3.882,-0.41,-11.95,-1.57,4.49,1.13,-0.33,
3.882,-0.41,-11.95,-1.57,4.56,1.29,-0.33,
3.883,-0.96,-13.99,-2.33,4.56,1.29,-0.33,
3.883,-0.96,-13.99,-2.33,4.71,1.57,-0.32,
3.883,-0.96,-13.99,-2.33,4.88,1.79,-0.32,
3.886,-0.96,-13.99,-2.33,5.17,1.98,-0.32,
3.887,-0.96,-13.99,-2.33,5.38,2.02,-0.32,
3.889,-0.96,-13.99,-2.33,5.48,2.02,-0.32,
3.891,0.06,-15.07,2.25,5.48,2.02,-0.32,
3.892,0.06,-15.07,2.25,5.69,1.98,-0.33,
3.932,0.06,-15.07,2.25,5.88,1.89,-0.33,
3.933,0.06,-15.07,2.25,6.14,1.71,-0.34,
3.933,0.06,-15.07,2.25,6.28,1.58,-0.35,
3.933,0.06,-15.07,2.25,6.34,1.51,-0.36,
3.933,-0.14,-13.25,3.10,6.34,1.51,-0.36,
3.934,-0.14,-13.25,3.10,6.43,1.38,-0.38,
3.934,-0.14,-13.25,3.10,6.49,1.27,-0.40,
3.934,-0.14,-13.25,3.10,6.51,1.13,-0.44,
3.934,-0.14,-13.25,3.10,6.46,1.06,-0.49,
3.934,-0.14,-13.25,3.10,6.42,1.05,-0.51,
3.935,-0.26,-10.55,-1.22,6.42,1.05,-0.51,
3.935,-0.26,-10.55,-1.22,6.38,1.04,-0.53,
3.935,-0.26,-10.55,-1.22,6.27,1.06,-0.58,
3.935,-0.26,-10.55,-1.22,6.07,1.11,-0.67,
3.935,-0.26,-10.55,-1.22,5.91,1.15,-0.74,
3.935,-0.26,-10.55,-1.22,5.83,1.17,-0.77,
3.936,0.03,-8.47,-5.26,5.83,1.17,-0.77,
3.936,0.03,-8.47,-5.26,5.68,1.21,-0.85,
3.936,0.03,-8.47,-5.26,5.53,1.24,-0.92,
3.953,0.03,-8.47,-5.26,5.33,1.26,-1.02,
3.953,0.03,-8.47,-5.26,5.28,1.27,-1.06,
3.954,0.03,-8.47,-5.26,5.19,1.27,-1.12,
3.954,-0.06,-6.53,-4.86,5.19,1.27,-1.12,
3.954,-0.06,-6.53,-4.86,5.11,1.26,-1.18,
3.955,-0.06,-6.53,-4.86,5.06,1.24,-1.23,
3.955,-0.06,-6.53,-4.86,5.02,1.21,-1.29,
3.955,-0.06,-6.53,-4.86,5.01,1.20,-1.32,
3.955,-0.06,-6.53,-4.86,5.00,1.19,-1.33,
3.956,-0.85,-5.30,-1.75,5.00,1.19,-1.33,
3.956,-0.85,-5.30,-1.75,5.00,1.18,-1.35,
3.956,-0.85,-5.30,-1.75,4.99,1.19,-1.35,
3.957,-0.85,-5.30,-1.75,4.98,1.21,-1.34,
3.957,-0.85,-5.30,-1.75,4.98,1.22,-1.33,
3.957,-0.85,-5.30,-1.75,4.97,1.24,-1.30,
3.957,-1.94,-4.65,-2.13,4.97,1.24,-1.30,
3.958,-1.94,-4.65,-2.13,4.96,1.27,-1.27,
3.958,-1.94,-4.65,-2.13,4.95,1.32,-1.22,
3.958,-1.94,-4.65,-2.13,4.94,1.40,-1.16,
3.968,-1.94,-4.65,-2.13,4.94,1.47,-1.11,
3.968,-1.94,-4.65,-2.13,4.94,1.50,-1.08,
3.968,-2.72,-4.12,-4.67,4.94,1.50,-1.08,
3.969,-2.72,-4.12,-4.67,4.94,1.58,-1.02,
3.969,-2.72,-4.12,-4.67,4.95,1.66,-0.96,
3.969,-2.72,-4.12,-4.67,4.99,1.77,-0.86,
3.969,-2.72,-4.12,-4.67,5.00,1.80,-0.82,
3.97,-2.72,-4.12,-4.67,5.04,1.87,-0.75,
3.972,-2.84,-2.67,-6.07,5.04,1.87,-0.75,
3.972,-2.84,-2.67,-6.07,5.08,1.94,-0.67,
3.973,-2.84,-2.67,-6.07,5.12,2.01,-0.60,
3.984,-2.84,-2.67,-6.07,5.19,2.11,-0.48,
3.984,-2.84,-2.67,-6.07,5.22,2.17,-0.40,
3.985,-2.84,-2.67,-6.07,5.24,2.20,-0.37,
3.985,-2.19,-0.75,-7.38,5.24,2.20,-0.37,
3.985,-2.19,-0.75,-7.38,5.27,2.26,-0.29,
3.985,-2.19,-0.75,-7.38,5.29,2.32,-0.22,
3.987,-2.19,-0.75,-7.38,5.31,2.39,-0.11,
3.988,-2.19,-0.75,-7.38,5.32,2.44,-0.04,
3.989,-2.19,-0.75,-7.38,5.32,2.46,0.00,
3.991,-0.94,1.75,-8.89,5.32,2.46,0.00,
3.991,-0.94,1.75,-8.89,5.32,2.49,0.08,
3.993,-0.94,1.75,-8.89,5.31,2.50,0.15,
3.996,-0.94,1.75,-8.89,5.29,2.48,0.26,
3.999,-0.94,1.75,-8.89,5.26,2.45,0.35,
3.999,-0.94,1.75,-8.89,5.24,2.42,0.39,
4.001,-0.37,4.29,-9.56,5.24,2.42,0.39,
4.002,-0.37,4.29,-9.56,5.20,2.34,0.47,
4.003,-0.37,4.29,-9.56,5.13,2.25,0.56,
4.006,-0.37,4.29,-9.56,5.02,2.09,0.70,
4.008,-0.37,4.29,-9.56,4.98,2.05,0.75,
4.011,-0.37,4.29,-9.56,4.90,1.96,0.85,
4.013,-0.15,6.32,-9.61,4.90,1.96,0.85,
4.014,-0.15,6.32,-9.61,4.81,1.88,0.95,
4.014,-0.15,6.32,-9.61,4.71,1.79,1.05,
4.017,-0.15,6.32,-9.61,4.58,1.68,1.21,
4.018,-0.15,6.32,-9.61,4.49,1.63,1.31,
4.02,-0.15,6.32,-9.61,4.45,1.61,1.36,
4.021,-0.73,7.01,-8.85,4.45,1.61,1.36,
4.022,-0.73,7.01,-8.85,4.36,1.57,1.46,
4.024,-0.73,7.01,-8.85,4.28,1.52,1.57,
4.032,-0.73,7.01,-8.85,4.16,1.44,1.69,
4.033,-0.73,7.01,-8.85,4.08,1.39,1.76,
4.033,-0.73,7.01,-8.85,4.04,1.37,1.80,
4.033,-0.20,5.20,-8.47,4.04,1.37,1.80,
4.034,-0.20,5.20,-8.47,3.97,1.33,1.85,
4.035,-0.20,5.20,-8.47,3.90,1.29,1.90,
4.037,-0.20,5.20,-8.47,3.81,1.25,1.94,
4.038,-0.20,5.20,-8.47,3.76,1.24,1.97,
4.04,-0.20,5.20,-8.47,3.74,1.24,1.97,
4.042,0.96,2.24,-8.52,3.74,1.24,1.97,
4.043,0.96,2.24,-8.52,3.68,1.23,1.98,
4.043,0.96,2.24,-8.52,3.64,1.21,1.97,
4.072,0.96,2.24,-8.52,3.56,1.19,1.96,
4.072,0.96,2.24,-8.52,3.51,1.18,1.94,
4.073,0.96,2.24,-8.52,3.49,1.18,1.93,
4.073,1.94,-0.14,-8.52,3.49,1.18,1.93,
4.073,1.94,-0.14,-8.52,3.43,1.18,1.91,
4.073,1.94,-0.14,-8.52,3.38,1.18,1.88,
4.073,1.94,-0.14,-8.52,3.30,1.21,1.84,
4.073,1.94,-0.14,-8.52,3.24,1.22,1.81,
4.073,1.94,-0.14,-8.52,3.21,1.23,1.79,
4.074,2.19,-1.70,-8.86,3.21,1.23,1.79,
4.074,2.19,-1.70,-8.86,3.14,1.25,1.75,
4.074,2.19,-1.70,-8.86,3.07,1.27,1.72,
4.074,2.19,-1.70,-8.86,2.96,1.31,1.67,
4.075,2.19,-1.70,-8.86,2.88,1.32,1.63,
4.075,2.19,-1.70,-8.86,2.84,1.32,1.61,
4.075,2.38,-1.95,-9.66,2.84,1.32,1.61,
4.075,2.38,-1.95,-9.66,2.76,1.32,1.58,
4.075,2.38,-1.95,-9.66,2.69,1.32,1.55,
4.077,2.38,-1.95,-9.66,2.57,1.35,1.51,
4.085,2.38,-1.95,-9.66,2.50,1.38,1.49,
4.086,2.38,-1.95,-9.66,2.46,1.40,1.48,
4.086,2.56,-1.27,-10.54,2.46,1.40,1.48,
4.087,2.56,-1.27,-10.54,2.38,1.44,1.47,
4.087,2.56,-1.27,-10.54,2.30,1.47,1.45,
4.087,2.56,-1.27,-10.54,2.17,1.52,1.42,
4.088,2.56,-1.27,-10.54,2.08,1.55,1.40,
4.089,2.56,-1.27,-10.54,2.04,1.56,1.39,
4.091,4.00,0.46,-11.11,2.04,1.56,1.39,
4.112,4.00,0.46,-11.11,1.94,1.58,1.36,
4.112,4.00,0.46,-11.11,1.86,1.59,1.34,
4.112,4.00,0.46,-11.11,1.72,1.58,1.30,
4.112,4.00,0.46,-11.11,1.65,1.57,1.27,
4.113,4.00,0.46,-11.11,1.61,1.56,1.25,
4.113,5.59,2.54,-10.54,1.61,1.56,1.25,
4.113,5.59,2.54,-10.54,1.54,1.53,1.22,
4.113,5.59,2.54,-10.54,1.48,1.49,1.17,
4.113,5.59,2.54,-10.54,1.42,1.43,1.12,
4.114,5.59,2.54,-10.54,1.38,1.38,1.09,
4.114,5.59,2.54,-10.54,1.37,1.35,1.08,
4.114,6.73,3.74,-9.28,1.37,1.35,1.08,
4.115,6.73,3.74,-9.28,1.34,1.29,1.06,
4.115,6.73,3.74,-9.28,1.30,1.23,1.04,
4.119,6.73,3.74,-9.28,1.23,1.13,1.01,
4.12,6.73,3.74,-9.28,1.19,1.05,1.00,
4.12,6.73,3.74,-9.28,1.16,1.02,0.99,
4.122,6.92,4.87,-9.11,1.16,1.02,0.99,
4.122,6.92,4.87,-9.11,1.11,0.93,0.97,
4.123,6.92,4.87,-9.11,1.04,0.85,0.95,
4.128,6.92,4.87,-9.11,0.95,0.72,0.93,
4.129,6.92,4.87,-9.11,0.88,0.63,0.92,
4.13,6.92,4.87,-9.11,0.85,0.59,0.91,
4.133,6.28,5.13,-8.87,0.85,0.59,0.91,
4.134,6.28,5.13,-8.87,0.77,0.50,0.90,
4.134,6.28,5.13,-8.87,0.70,0.40,0.89,
4.136,6.28,5.13,-8.87,0.59,0.27,0.87,
4.137,6.28,5.13,-8.87,0.52,0.18,0.86,
4.139,6.28,5.13,-8.87,0.49,0.13,0.85,
4.141,5.25,5.25,-7.57,0.49,0.13,0.85,
4.141,5.25,5.25,-7.57,0.44,0.06,0.84,
4.143,5.25,5.25,-7.57,0.39,-0.01,0.82,
4.147,5.25,5.25,-7.57,0.32,-0.09,0.81,
4.148,5.25,5.25,-7.57,0.28,-0.12,0.80,
4.149,5.25,5.25,-7.57,0.26,-0.13,0.79,
4.151,4.19,4.05,-6.12,0.26,-0.13,0.79,
4.151,4.19,4.05,-6.12,0.22,-0.14,0.78,
4.153,4.19,4.05,-6.12,0.19,-0.14,0.77,
4.157,4.19,4.05,-6.12,0.14,-0.13,0.75,
4.158,4.19,4.05,-6.12,0.11,-0.11,0.73,
4.162,4.19,4.05,-6.12,0.10,-0.09,0.72,
4.163,3.66,2.87,-5.00,0.10,-0.09,0.72,
4.163,3.66,2.87,-5.00,0.08,-0.06,0.70,
4.163,3.66,2.87,-5.00,0.05,-0.02,0.68,
4.17,3.66,2.87,-5.00,0.01,0.04,0.64,
4.17,3.66,2.87,-5.00,-0.01,0.09,0.62,
4.171,3.66,2.87,-5.00,-0.02,0.11,0.61,
4.174,3.47,2.16,-4.09,-0.02,0.11,0.61,
4.174,3.47,2.16,-4.09,-0.04,0.16,0.59,
4.175,3.47,2.16,-4.09,-0.07,0.21,0.57,
4.18,3.47,2.16,-4.09,-0.10,0.27,0.54,
4.181,3.47,2.16,-4.09,-0.11,0.30,0.52,
4.181,3.47,2.16,-4.09,-0.12,0.31,0.51,
4.181,3.36,2.04,-2.55,-0.12,0.31,0.51,
4.183,3.36,2.04,-2.55,-0.13,0.33,0.49,
4.183,3.36,2.04,-2.55,-0.14,0.33,0.47,
4.187,3.36,2.04,-2.55,-0.14,0.33,0.43,
4.187,3.36,2.04,-2.55,-0.13,0.32,0.41,
4.189,3.36,2.04,-2.55,-0.12,0.32,0.40,
4.191,3.21,1.68,-0.61,-0.12,0.32,0.40,
4.191,3.21,1.68,-0.61,-0.10,0.30,0.38,
4.194,3.21,1.68,-0.61,-0.08,0.28,0.36,
4.196,3.21,1.68,-0.61,-0.04,0.26,0.32,
4.197,3.21,1.68,-0.61,-0.01,0.24,0.30,
4.199,3.21,1.68,-0.61,-0.00,0.23,0.29,
4.201,3.10,1.11,0.70,-0.00,0.23,0.29,
4.201,3.10,1.11,0.70,0.02,0.21,0.27,
4.203,3.10,1.11,0.70,0.04,0.19,0.25,
4.206,3.10,1.11,0.70,0.05,0.17,0.22,
4.207,3.10,1.11,0.70,0.07,0.15,0.20,
4.21,3.10,1.11,0.70,0.07,0.14,0.19,
4.212,2.86,0.62,0.82,0.07,0.14,0.19,
4.212,2.86,0.62,0.82,0.07,0.11,0.16,
4.213,2.86,0.62,0.82,0.07,0.09,0.14,
4.216,2.86,0.62,0.82,0.07,0.04,0.09,
4.217,2.86,0.62,0.82,0.06,0.01,0.06,
4.219,2.86,0.62,0.82,0.06,-0.01,0.05,
4.221,2.95,0.33,1.16,0.06,-0.01,0.05,
4.221,2.95,0.33,1.16,0.05,-0.04,0.01,
4.223,2.95,0.33,1.16,0.05,-0.08,-0.03,
4.226,2.95,0.33,1.16,0.03,-0.12,-0.10,
4.227,2.95,0.33,1.16,0.02,-0.15,-0.15,
4.229,2.95,0.33,1.16,0.01,-0.17,-0.17,
4.231,3.13,0.12,1.99,0.01,-0.17,-0.17,
4.231,3.13,0.12,1.99,0.00,-0.19,-0.22,
4.233,3.13,0.12,1.99,-0.01,-0.22,-0.28,
4.236,3.13,0.12,1.99,-0.04,-0.26,-0.36,
4.237,3.13,0.12,1.99,-0.05,-0.28,-0.42,
4.239,3.13,0.12,1.99,-0.06,-0.29,-0.45,
4.241,3.42,-0.06,3.21,-0.06,-0.29,-0.45,
4.241,3.42,-0.06,3.21,-0.08,-0.30,-0.51,
4.244,3.42,-0.06,3.21,-0.10,-0.30,-0.57,
4.246,3.42,-0.06,3.21,-0.12,-0.30,-0.66,
4.247,3.42,-0.06,3.21,-0.13,-0.30,-0.71,
4.253,3.42,-0.06,3.21,-0.14,-0.30,-0.73,
4.253,2.98,0.18,4.69,-0.14,-0.30,-0.73,
4.254,2.98,0.18,4.69,-0.14,-0.30,-0.78,
4.254,2.98,0.18,4.69,-0.14,-0.29,-0.81,
4.256,2.98,0.18,4.69,-0.11,-0.28,-0.86,
4.259,2.98,0.18,4.69,-0.07,-0.26,-0.89,
4.27,2.98,0.18,4.69,-0.04,-0.25,-0.90,
4.27,0.82,1.48,9.31,-0.04,-0.25,-0.90,
4.27,0.82,1.48,9.31,-0.02,-0.25,-0.90,
4.27,0.82,1.48,9.31,0.05,-0.25,-0.90,
4.27,0.82,1.48,9.31,0.18,-0.26,-0.88,
4.27,0.82,1.48,9.31,0.28,-0.27,-0.85,
4.271,0.82,1.48,9.31,0.34,-0.27,-0.83,
4.271,-1.92,2.16,14.27,0.34,-0.27,-0.83,
4.271,-1.92,2.16,14.27,0.45,-0.28,-0.79,
4.273,-1.92,2.16,14.27,0.56,-0.27,-0.75,
4.277,-1.92,2.16,14.27,0.70,-0.20,-0.68,
4.278,-1.92,2.16,14.27,0.75,-0.11,-0.63,
4.28,-1.92,2.16,14.27,0.76,-0.04,-0.60,
4.282,-5.31,2.16,15.49,0.76,-0.04,-0.60,
4.282,-5.31,2.16,15.49,0.76,0.12,-0.55,
4.283,-5.31,2.16,15.49,0.70,0.34,-0.50,
4.286,-5.31,2.16,15.49,0.51,0.73,-0.42,
4.287,-5.31,2.16,15.49,0.32,1.01,-0.37,
4.29,-5.31,2.16,15.49,0.20,1.16,-0.34,
4.292,-7.08,1.79,5.59,0.20,1.16,-0.34,
4.292,-7.08,1.79,5.59,-0.04,1.43,-0.29,
4.293,-7.08,1.79,5.59,-0.31,1.66,-0.26,
4.296,-7.08,1.79,5.59,-0.71,1.86,-0.23,
4.297,-7.08,1.79,5.59,-0.94,1.88,-0.25,
4.299,-7.08,1.79,5.59,-1.04,1.86,-0.26,
4.301,-5.10,0.61,-0.79,-1.04,1.86,-0.26,
4.301,-5.10,0.61,-0.79,-1.27,1.63,-0.34,
4.303,-5.10,0.61,-0.79,-1.37,1.38,-0.42,
4.306,-5.10,0.61,-0.79,-1.44,1.08,-0.51,
4.311,-5.10,0.61,-0.79,-1.49,0.76,-0.61,
4.312,-5.10,0.61,-0.79,-1.55,0.46,-0.71,
4.312,-0.59,-1.26,2.85,-1.55,0.46,-0.71,
4.312,-0.59,-1.26,2.85,-1.60,0.22,-0.81,
4.313,-0.59,-1.26,2.85,-1.65,0.04,-0.91,
4.316,-0.59,-1.26,2.85,-1.71,-0.09,-1.00,
4.317,-0.59,-1.26,2.85,-1.76,-0.15,-1.08,
4.319,-0.59,-1.26,2.85,-1.82,-0.16,-1.15,
4.321,0.15,-2.12,2.87,-1.82,-0.16,-1.15,
4.321,0.15,-2.12,2.87,-1.87,-0.14,-1.21,
4.323,0.15,-2.12,2.87,-1.92,-0.09,-1.26,
4.327,0.15,-2.12,2.87,-1.97,-0.02,-1.30,
4.327,0.15,-2.12,2.87,-2.02,0.07,-1.33,
4.329,0.15,-2.12,2.87,-2.06,0.15,-1.36,
4.331,-1.44,-1.89,2.40,-2.06,0.15,-1.36,
4.331,-1.44,-1.89,2.40,-2.11,0.24,-1.37,
4.333,-1.44,-1.89,2.40,-2.15,0.33,-1.39,
4.336,-1.44,-1.89,2.40,-2.18,0.40,-1.41,
4.345,-1.44,-1.89,2.40,-2.29,0.59,-1.47,
4.345,-1.44,-1.89,2.40,-2.29,0.59,-1.47,
4.345,-1.71,-2.70,1.58,-2.29,0.59,-1.47,
4.346,-1.71,-2.70,1.58,-2.35,0.65,-1.50,
4.346,-1.71,-2.70,1.58,-2.35,0.65,-1.50,
4.346,-1.71,-2.70,1.58,-2.44,0.69,-1.56,
4.347,-1.71,-2.70,1.58,-2.47,0.69,-1.58,
4.349,-1.71,-2.70,1.58,-2.53,0.67,-1.62,
4.351,0.03,-3.52,-0.50,-2.53,0.67,-1.62,
4.351,0.03,-3.52,-0.50,-2.59,0.63,-1.67,
4.353,0.03,-3.52,-0.50,-2.65,0.56,-1.72,
4.356,0.03,-3.52,-0.50,-2.71,0.44,-1.80,
4.357,0.03,-3.52,-0.50,-2.73,0.39,-1.83,
4.359,0.03,-3.52,-0.50,-2.76,0.29,-1.89,
4.361,2.62,-3.60,-1.10,-2.76,0.29,-1.89,
4.361,2.62,-3.60,-1.10,-2.79,0.20,-1.95,
4.363,2.62,-3.60,-1.10,-2.82,0.11,-2.01,
4.366,2.62,-3.60,-1.10,-2.84,0.04,-2.07,
4.367,2.62,-3.60,-1.10,-2.87,-0.03,-2.13,
4.369,2.62,-3.60,-1.10,-2.89,-0.08,-2.17,
4.371,3.10,-3.33,-1.36,-2.89,-0.08,-2.17,
4.371,3.10,-3.33,-1.36,-2.91,-0.12,-2.21,
4.373,3.10,-3.33,-1.36,-2.94,-0.16,-2.23,
4.376,3.10,-3.33,-1.36,-2.96,-0.19,-2.24,
4.377,3.10,-3.33,-1.36,-2.98,-0.21,-2.24,
4.379,3.10,-3.33,-1.36,-3.01,-0.22,-2.23,
4.381,0.81,-3.75,-2.31,-3.01,-0.22,-2.23,
4.381,0.81,-3.75,-2.31,-3.02,-0.22,-2.20,
4.383,0.81,-3.75,-2.31,-3.03,-0.21,-2.17,
4.386,0.81,-3.75,-2.31,-3.01,-0.17,-2.10,
4.387,0.81,-3.75,-2.31,-3.00,-0.15,-2.08,
4.389,0.81,-3.75,-2.31,-2.97,-0.10,-2.02,
4.391,-2.31,-3.34,-2.01,-2.97,-0.10,-2.02,
4.392,-2.31,-3.34,-2.01,-2.93,-0.06,-1.96,
4.394,-2.31,-3.34,-2.01,-2.89,-0.02,-1.90,
4.396,-2.31,-3.34,-2.01,-2.85,0.00,-1.84,
4.397,-2.31,-3.34,-2.01,-2.82,0.02,-1.77,
4.399,-2.31,-3.34,-2.01,-2.79,0.01,-1.70,
4.401,-3.70,-2.81,-1.56,-2.79,0.01,-1.70,
4.401,-3.70,-2.81,-1.56,-2.76,-0.01,-1.64,
4.403,-3.70,-2.81,-1.56,-2.74,-0.05,-1.58,
4.406,-3.70,-2.81,-1.56,-2.73,-0.10,-1.52,
4.407,-3.70,-2.81,-1.56,-2.72,-0.16,-1.47,
4.409,-3.70,-2.81,-1.56,-2.71,-0.23,-1.42,
4.411,-3.35,-1.92,-1.64,-2.71,-0.23,-1.42,
4.412,-3.35,-1.92,-1.64,-2.71,-0.31,-1.38,
4.413,-3.35,-1.92,-1.64,-2.71,-0.38,-1.34,
4.416,-3.35,-1.92,-1.64,-2.71,-0.45,-1.31,
4.417,-3.35,-1.92,-1.64,-2.71,-0.51,-1.28,
4.419,-3.35,-1.92,-1.64,-2.71,-0.57,-1.25,
4.421,-2.74,-1.03,-1.66,-2.71,-0.57,-1.25,
4.421,-2.74,-1.03,-1.66,-2.71,-0.62,-1.23,
4.423,-2.74,-1.03,-1.66,-2.72,-0.66,-1.21,
4.444,-2.74,-1.03,-1.66,-2.73,-0.69,-1.20,
4.444,-2.74,-1.03,-1.66,-2.74,-0.70,-1.19,
4.444,-2.74,-1.03,-1.66,-2.75,-0.72,-1.19,
4.445,-1.95,-0.33,-1.54,-2.75,-0.72,-1.19,
4.445,-1.95,-0.33,-1.54,-2.77,-0.74,-1.19,
4.446,-1.95,-0.33,-1.54,-2.79,-0.75,-1.18,
4.446,-1.95,-0.33,-1.54,-2.82,-0.78,-1.19,
4.447,-1.95,-0.33,-1.54,-2.83,-0.79,-1.19,
4.447,-1.95,-0.33,-1.54,-2.86,-0.82,-1.20,
4.447,-1.18,0.08,-1.47,-2.86,-0.82,-1.20,
4.448,-1.18,0.08,-1.47,-2.88,-0.84,-1.20,
4.448,-1.18,0.08,-1.47,-2.91,-0.86,-1.21,
4.449,-1.18,0.08,-1.47,-2.93,-0.90,-1.22,
4.449,-1.18,0.08,-1.47,-2.96,-0.93,-1.23,
4.449,-1.18,0.08,-1.47,-2.98,-0.97,-1.24,
4.456,-0.18,0.19,-1.34,-2.98,-0.97,-1.24,
4.457,-0.18,0.19,-1.34,-2.99,-1.01,-1.25,
4.457,-0.18,0.19,-1.34,-3.01,-1.06,-1.26,
4.458,-0.18,0.19,-1.34,-3.02,-1.10,-1.27,
4.464,-0.18,0.19,-1.34,-3.04,-1.15,-1.29,
4.464,-0.18,0.19,-1.34,-3.05,-1.21,-1.30,
4.465,0.79,-0.07,-1.24,-3.05,-1.21,-1.30,
4.465,0.79,-0.07,-1.24,-3.06,-1.27,-1.32,
4.466,0.79,-0.07,-1.24,-3.06,-1.33,-1.33,
4.466,0.79,-0.07,-1.24,-3.07,-1.41,-1.35,
4.467,0.79,-0.07,-1.24,-3.07,-1.44,-1.36,
4.469,0.79,-0.07,-1.24,-3.07,-1.49,-1.37,
4.471,1.61,-0.49,-1.46,-3.07,-1.49,-1.37,
4.472,1.61,-0.49,-1.46,-3.07,-1.55,-1.38,
4.473,1.61,-0.49,-1.46,-3.07,-1.60,-1.39,
4.483,1.61,-0.49,-1.46,-3.07,-1.65,-1.41,
4.483,1.61,-0.49,-1.46,-3.06,-1.69,-1.42,
4.484,1.61,-0.49,-1.46,-3.05,-1.72,-1.43,
4.484,2.19,-1.22,-1.69,-3.05,-1.72,-1.43,
4.485,2.19,-1.22,-1.69,-3.04,-1.75,-1.44,
4.485,2.19,-1.22,-1.69,-3.03,-1.77,-1.45,
4.518,2.19,-1.22,-1.69,-3.01,-1.80,-1.46,
4.519,2.19,-1.22,-1.69,-2.99,-1.82,-1.46,
4.52,2.19,-1.22,-1.69,-2.98,-1.84,-1.46,
4.52,2.32,-1.66,-1.50,-2.98,-1.84,-1.46,
4.52,2.32,-1.66,-1.50,-2.96,-1.85,-1.46,
4.521,2.32,-1.66,-1.50,-2.94,-1.85,-1.46,
4.521,2.32,-1.66,-1.50,-2.91,-1.85,-1.45,
4.521,2.32,-1.66,-1.50,-2.91,-1.85,-1.45,
4.522,2.32,-1.66,-1.50,-2.89,-1.83,-1.43,
4.522,2.15,-2.10,-1.55,-2.89,-1.83,-1.43,
4.522,2.15,-2.10,-1.55,-2.87,-1.82,-1.42,
4.523,2.15,-2.10,-1.55,-2.86,-1.79,-1.40,
4.523,2.15,-2.10,-1.55,-2.84,-1.77,-1.38,
4.524,2.15,-2.10,-1.55,-2.82,-1.74,-1.36,
4.524,2.15,-2.10,-1.55,-2.80,-1.71,-1.34,
4.524,1.72,-2.25,-1.45,-2.80,-1.71,-1.34,
4.525,1.72,-2.25,-1.45,-2.78,-1.68,-1.32,
4.525,1.72,-2.25,-1.45,-2.77,-1.64,-1.30,
4.525,1.72,-2.25,-1.45,-2.75,-1.60,-1.27,
4.526,1.72,-2.25,-1.45,-2.72,-1.56,-1.24,
4.526,1.72,-2.25,-1.45,-2.70,-1.53,-1.22,
4.526,1.31,-2.20,-1.16,-2.70,-1.53,-1.22,
4.527,1.31,-2.20,-1.16,-2.68,-1.49,-1.19,
4.527,1.31,-2.20,-1.16,-2.65,-1.45,-1.16,
4.527,1.31,-2.20,-1.16,-2.63,-1.41,-1.13,
4.528,1.31,-2.20,-1.16,-2.60,-1.37,-1.10,
4.535,1.31,-2.20,-1.16,-2.58,-1.34,-1.07,
4.535,0.93,-1.70,-0.90,-2.58,-1.34,-1.07,
4.535,0.93,-1.70,-0.90,-2.55,-1.31,-1.04,
4.536,0.93,-1.70,-0.90,-2.53,-1.28,-1.00,
4.537,0.93,-1.70,-0.90,-2.49,-1.26,-0.95,
4.539,0.93,-1.70,-0.90,-2.48,-1.25,-0.94,
4.539,0.93,-1.70,-0.90,-2.46,-1.24,-0.90,
4.553,0.73,-1.04,-0.77,-2.46,-1.24,-0.90,
4.554,0.73,-1.04,-0.77,-2.43,-1.23,-0.87,
4.554,0.73,-1.04,-0.77,-2.40,-1.23,-0.83,
4.554,0.73,-1.04,-0.77,-2.38,-1.23,-0.80,
4.555,0.73,-1.04,-0.77,-2.35,-1.22,-0.77,
4.555,0.73,-1.04,-0.77,-2.32,-1.21,-0.73,
4.555,0.62,-0.30,-0.44,-2.32,-1.21,-0.73,
4.555,0.62,-0.30,-0.44,-2.30,-1.19,-0.69,
4.555,0.62,-0.30,-0.44,-2.27,-1.17,-0.65,
4.558,0.62,-0.30,-0.44,-2.24,-1.13,-0.59,
4.558,0.62,-0.30,-0.44,-2.23,-1.11,-0.57,
4.559,0.62,-0.30,-0.44,-2.21,-1.08,-0.52,
4.561,0.42,0.39,-0.29,-2.21,-1.08,-0.52,
4.562,0.42,0.39,-0.29,-2.20,-1.05,-0.48,
4.563,0.42,0.39,-0.29,-2.19,-1.02,-0.43,
4.566,0.42,0.39,-0.29,-2.18,-0.97,-0.37,
4.567,0.42,0.39,-0.29,-2.18,-0.95,-0.35,
4.569,0.42,0.39,-0.29,-2.19,-0.92,-0.30,
4.571,0.41,0.93,-0.50,-2.19,-0.92,-0.30,
4.572,0.41,0.93,-0.50,-2.19,-0.90,-0.26,
4.574,0.41,0.93,-0.50,-2.20,-0.88,-0.22,
4.577,0.41,0.93,-0.50,-2.22,-0.86,-0.16,
4.579,0.41,0.93,-0.50,-2.23,-0.86,-0.14,
4.58,0.41,0.93,-0.50,-2.24,-0.85,-0.10,
4.581,0.40,1.30,-0.69,-2.24,-0.85,-0.10,
4.581,0.40,1.30,-0.69,-2.27,-0.85,-0.06,
4.583,0.40,1.30,-0.69,-2.28,-0.84,-0.02,
4.586,0.40,1.30,-0.69,-2.31,-0.82,0.03,
4.587,0.40,1.30,-0.69,-2.32,-0.82,0.04,
4.589,0.40,1.30,-0.69,-2.34,-0.81,0.08,
4.592,0.37,1.55,-0.92,-2.34,-0.81,0.08,
4.614,0.37,1.55,-0.92,-2.36,-0.81,0.11,
4.614,0.37,1.55,-0.92,-2.38,-0.81,0.15,
4.614,0.37,1.55,-0.92,-2.40,-0.82,0.22,
4.615,0.37,1.55,-0.92,-2.41,-0.82,0.24,
4.615,0.37,1.55,-0.92,-2.42,-0.83,0.28,
4.615,-0.08,1.25,-1.11,-2.42,-0.83,0.28,
4.615,-0.08,1.25,-1.11,-2.43,-0.84,0.33,
4.616,-0.08,1.25,-1.11,-2.44,-0.84,0.37,
4.616,-0.08,1.25,-1.11,-2.47,-0.84,0.43,
4.616,-0.08,1.25,-1.11,-2.48,-0.84,0.46,
4.617,-0.08,1.25,-1.11,-2.49,-0.84,0.48,
4.617,-0.31,0.71,-1.41,-2.49,-0.84,0.48,
4.617,-0.31,0.71,-1.41,-2.51,-0.83,0.52,
4.617,-0.31,0.71,-1.41,-2.52,-0.82,0.55,
4.618,-0.31,0.71,-1.41,-2.54,-0.80,0.61,
4.618,-0.31,0.71,-1.41,-2.54,-0.80,0.62,
4.622,-0.31,0.71,-1.41,-2.54,-0.79,0.66,
4.622,-0.63,0.16,-1.59,-2.54,-0.79,0.66,
4.622,-0.63,0.16,-1.59,-2.55,-0.78,0.70,
4.629,-0.63,0.16,-1.59,-2.55,-0.77,0.73,
4.63,-0.63,0.16,-1.59,-2.56,-0.77,0.78,
4.63,-0.63,0.16,-1.59,-2.56,-0.77,0.79,
4.63,-0.63,0.16,-1.59,-2.56,-0.78,0.82,
4.632,-0.78,-0.38,-1.61,-2.56,-0.78,0.82,
4.632,-0.78,-0.38,-1.61,-2.56,-0.78,0.84,
4.635,-0.78,-0.38,-1.61,-2.55,-0.78,0.86,
4.636,-0.78,-0.38,-1.61,-2.54,-0.77,0.89,
4.668,-0.78,-0.38,-1.61,-2.54,-0.77,0.90,
4.669,-0.78,-0.38,-1.61,-2.53,-0.77,0.91,
4.669,-0.79,-1.17,-1.44,-2.53,-0.77,0.91,
4.669,-0.79,-1.17,-1.44,-2.52,-0.76,0.92,
4.669,-0.79,-1.17,-1.44,-2.52,-0.76,0.93,
4.669,-0.79,-1.17,-1.44,-2.51,-0.75,0.94,
4.67,-0.79,-1.17,-1.44,-2.50,-0.75,0.95,
4.67,-0.79,-1.17,-1.44,-2.50,-0.74,0.96,
4.67,-0.90,-1.99,-1.25,-2.50,-0.74,0.96,
4.67,-0.90,-1.99,-1.25,-2.49,-0.74,0.97,
4.67,-0.90,-1.99,-1.25,-2.49,-0.74,0.99,
4.67,-0.90,-1.99,-1.25,-2.49,-0.74,1.00,
4.671,-0.90,-1.99,-1.25,-2.49,-0.74,1.01,
4.671,-0.90,-1.99,-1.25,-2.50,-0.74,1.02,
4.671,-1.15,-2.66,-1.32,-2.50,-0.74,1.02,
4.671,-1.15,-2.66,-1.32,-2.51,-0.75,1.03,
4.671,-1.15,-2.66,-1.32,-2.51,-0.75,1.04,
4.672,-1.15,-2.66,-1.32,-2.52,-0.74,1.05,
4.672,-1.15,-2.66,-1.32,-2.52,-0.74,1.05,
4.672,-1.15,-2.66,-1.32,-2.53,-0.72,1.05,
4.672,-1.03,-3.19,-1.24,-2.53,-0.72,1.05,
4.672,-1.03,-3.19,-1.24,-2.53,-0.71,1.04,
4.681,-1.03,-3.19,-1.24,-2.53,-0.68,1.03,
4.682,-1.03,-3.19,-1.24,-2.53,-0.64,1.02,
4.682,-1.03,-3.19,-1.24,-2.53,-0.63,1.01,
4.682,-1.03,-3.19,-1.24,-2.53,-0.60,0.99,
4.683,-0.75,-3.45,-0.98,-2.53,-0.60,0.99,
4.683,-0.75,-3.45,-0.98,-2.52,-0.57,0.97,
4.684,-0.75,-3.45,-0.98,-2.52,-0.55,0.95,
4.686,-0.75,-3.45,-0.98,-2.50,-0.50,0.91,
4.687,-0.75,-3.45,-0.98,-2.49,-0.49,0.90,
4.689,-0.75,-3.45,-0.98,-2.47,-0.46,0.86,
4.691,-0.52,-3.26,-0.39,-2.47,-0.46,0.86,
4.691,-0.52,-3.26,-0.39,-2.46,-0.42,0.83,
4.693,-0.52,-3.26,-0.39,-2.44,-0.38,0.79,
4.696,-0.52,-3.26,-0.39,-2.41,-0.31,0.73,
4.697,-0.52,-3.26,-0.39,-2.40,-0.29,0.71,
4.699,-0.52,-3.26,-0.39,-2.37,-0.24,0.67,
4.701,-0.15,-2.87,-0.07,-2.37,-0.24,0.67,
4.701,-0.15,-2.87,-0.07,-2.35,-0.20,0.62,
4.703,-0.15,-2.87,-0.07,-2.33,-0.16,0.57,
4.706,-0.15,-2.87,-0.07,-2.30,-0.10,0.50,
4.707,-0.15,-2.87,-0.07,-2.29,-0.09,0.48,
4.709,-0.15,-2.87,-0.07,-2.27,-0.05,0.43,
4.711,0.04,-2.21,0.01,-2.27,-0.05,0.43,
4.712,0.04,-2.21,0.01,-2.26,-0.03,0.38,
4.713,0.04,-2.21,0.01,-2.24,-0.01,0.34,
4.716,0.04,-2.21,0.01,-2.21,0.02,0.27,
4.717,0.04,-2.21,0.01,-2.20,0.03,0.24,
4.719,0.04,-2.21,0.01,-2.19,0.05,0.20,
4.721,0.04,-1.41,0.12,-2.19,0.05,0.20,
4.721,0.04,-1.41,0.12,-2.17,0.06,0.16,
4.723,0.04,-1.41,0.12,-2.16,0.07,0.11,
4.726,0.04,-1.41,0.12,-2.14,0.10,0.04,
4.729,0.04,-1.41,0.12,-2.13,0.11,0.02,
4.73,0.04,-1.41,0.12,-2.11,0.12,-0.02,
4.731,0.00,-0.57,0.45,-2.11,0.12,-0.02,
4.732,0.00,-0.57,0.45,-2.09,0.14,-0.06,
4.733,0.00,-0.57,0.45,-2.07,0.16,-0.10,
4.736,0.00,-0.57,0.45,-2.04,0.19,-0.15,
4.737,0.00,-0.57,0.45,-2.03,0.19,-0.17,
4.747,0.00,-0.57,0.45,-2.00,0.22,-0.20,
4.748,-0.16,0.22,1.09,-2.00,0.22,-0.20,
4.748,-0.16,0.22,1.09,-1.98,0.23,-0.22,
4.748,-0.16,0.22,1.09,-1.96,0.25,-0.24,
4.749,-0.16,0.22,1.09,-1.93,0.28,-0.26,
4.749,-0.16,0.22,1.09,-1.91,0.29,-0.27,
4.749,-0.16,0.22,1.09,-1.89,0.31,-0.28,
4.753,-0.44,0.81,1.65,-1.89,0.31,-0.28,
4.754,-0.44,0.81,1.65,-1.87,0.33,-0.29,
4.755,-0.44,0.81,1.65,-1.85,0.35,-0.30,
4.769,-0.44,0.81,1.65,-1.82,0.38,-0.30,
4.771,-0.44,0.81,1.65,-1.81,0.39,-0.31,
4.796,-0.44,0.81,1.65,-1.79,0.40,-0.31,
4.797,-0.46,1.23,2.12,-1.79,0.40,-0.31,
4.797,-0.46,1.23,2.12,-1.78,0.42,-0.32,
4.797,-0.46,1.23,2.12,-1.76,0.43,-0.32,
4.797,-0.46,1.23,2.12,-1.74,0.44,-0.32,
4.798,-0.46,1.23,2.12,-1.74,0.45,-0.32,
4.798,-0.46,1.23,2.12,-1.73,0.45,-0.32,
4.798,-0.38,1.40,2.21,-1.73,0.45,-0.32,
4.798,-0.38,1.40,2.21,-1.73,0.46,-0.32,
4.799,-0.38,1.40,2.21,-1.73,0.46,-0.32,
4.799,-0.38,1.40,2.21,-1.72,0.46,-0.31,
4.799,-0.38,1.40,2.21,-1.72,0.46,-0.30,
4.8,-0.38,1.40,2.21,-1.72,0.46,-0.29,
4.8,-0.64,1.63,2.47,-1.72,0.46,-0.29,
4.8,-0.64,1.63,2.47,-1.72,0.45,-0.28,
4.8,-0.64,1.63,2.47,-1.71,0.44,-0.26,
4.801,-0.64,1.63,2.47,-1.72,0.42,-0.24,
4.801,-0.64,1.63,2.47,-1.72,0.41,-0.24,
4.801,-0.64,1.63,2.47,-1.73,0.39,-0.22,
4.801,-0.64,1.81,2.52,-1.73,0.39,-0.22,
4.802,-0.64,1.81,2.52,-1.74,0.37,-0.21,
4.802,-0.64,1.81,2.52,-1.75,0.34,-0.21,
4.802,-0.64,1.81,2.52,-1.78,0.29,-0.20,
4.802,-0.64,1.81,2.52,-1.79,0.27,-0.20,
4.803,-0.64,1.81,2.52,-1.82,0.23,-0.20,
4.803,-0.06,2.02,2.49,-1.82,0.23,-0.20,
4.803,-0.06,2.02,2.49,-1.84,0.17,-0.20,
4.803,-0.06,2.02,2.49,-1.87,0.11,-0.21,
4.809,-0.06,2.02,2.49,-1.91,0.01,-0.22,
4.809,-0.06,2.02,2.49,-1.92,-0.02,-0.22,
4.809,-0.06,2.02,2.49,-1.95,-0.09,-0.23,
4.811,0.66,1.73,2.44,-1.95,-0.09,-0.23,
4.811,0.66,1.73,2.44,-1.98,-0.17,-0.24,
4.813,0.66,1.73,2.44,-2.01,-0.24,-0.25,
4.816,0.66,1.73,2.44,-2.06,-0.38,-0.27,
4.817,0.66,1.73,2.44,-2.07,-0.43,-0.29,
4.819,0.66,1.73,2.44,-2.10,-0.53,-0.31,
4.824,1.61,1.16,2.71,-2.10,-0.53,-0.31,
4.825,1.61,1.16,2.71,-2.13,-0.64,-0.33,
4.825,1.61,1.16,2.71,-2.16,-0.75,-0.36,
4.826,1.61,1.16,2.71,-2.19,-0.92,-0.42,
4.827,1.61,1.16,2.71,-2.20,-0.98,-0.44,
4.83,1.61,1.16,2.71,-2.22,-1.09,-0.48,
4.831,2.62,0.71,3.18,-2.22,-1.09,-0.48,
4.831,2.62,0.71,3.18,-2.23,-1.20,-0.52,
4.834,2.62,0.71,3.18,-2.24,-1.30,-0.56,
4.836,2.62,0.71,3.18,-2.24,-1.42,-0.63,
4.837,2.62,0.71,3.18,-2.24,-1.46,-0.65,
4.84,2.62,0.71,3.18,-2.23,-1.52,-0.69,
4.841,3.32,0.30,3.63,-2.23,-1.52,-0.69,
4.841,3.32,0.30,3.63,-2.22,-1.58,-0.73,
4.843,3.32,0.30,3.63,-2.21,-1.63,-0.77,
4.847,3.32,0.30,3.63,-2.19,-1.68,-0.83,
4.847,3.32,0.30,3.63,-2.18,-1.70,-0.85,
4.849,3.32,0.30,3.63,-2.17,-1.74,-0.89,
4.851,3.27,0.16,3.49,-2.17,-1.74,-0.89,
4.851,3.27,0.16,3.49,-2.15,-1.77,-0.92,
4.853,3.27,0.16,3.49,-2.12,-1.80,-0.96,
4.856,3.27,0.16,3.49,-2.09,-1.85,-1.01,
4.859,3.27,0.16,3.49,-2.08,-1.87,-1.02,
4.859,3.27,0.16,3.49,-2.06,-1.91,-1.05,
4.862,3.29,-0.01,3.32,-2.06,-1.91,-1.05,
4.863,3.29,-0.01,3.32,-2.04,-1.94,-1.09,
4.864,3.29,-0.01,3.32,-2.02,-1.97,-1.12,
4.866,3.29,-0.01,3.32,-1.99,-2.01,-1.17,
4.868,3.29,-0.01,3.32,-1.98,-2.03,-1.18,
4.869,3.29,-0.01,3.32,-1.96,-2.04,-1.21,
4.876,3.27,-0.22,2.93,-1.96,-2.04,-1.21,
4.877,3.27,-0.22,2.93,-1.95,-2.06,-1.25,
4.877,3.27,-0.22,2.93,-1.94,-2.06,-1.28,
4.877,3.27,-0.22,2.93,-1.92,-2.03,-1.32,
4.877,3.27,-0.22,2.93,-1.92,-2.02,-1.34,
4.879,3.27,-0.22,2.93,-1.91,-1.99,-1.37,
4.884,3.47,-0.39,2.51,-1.91,-1.99,-1.37,
4.917,3.47,-0.39,2.51,-1.90,-1.96,-1.41,
4.918,3.47,-0.39,2.51,-1.90,-1.92,-1.44,
4.918,3.47,-0.39,2.51,-1.90,-1.86,-1.49,
4.918,3.47,-0.39,2.51,-1.90,-1.84,-1.51,
4.918,3.47,-0.39,2.51,-1.90,-1.80,-1.55,
4.918,3.72,-0.58,1.93,-1.90,-1.80,-1.55,
4.919,3.72,-0.58,1.93,-1.90,-1.76,-1.59,
4.919,3.72,-0.58,1.93,-1.90,-1.72,-1.63,
4.919,3.72,-0.58,1.93,-1.91,-1.66,-1.69,
4.919,3.72,-0.58,1.93,-1.91,-1.64,-1.71,
4.919,3.72,-0.58,1.93,-1.92,-1.61,-1.74,
4.919,3.73,-0.74,1.31,-1.92,-1.61,-1.74,
4.919,3.73,-0.74,1.31,-1.93,-1.58,-1.77,
4.92,3.73,-0.74,1.31,-1.93,-1.56,-1.80,
4.92,3.73,-0.74,1.31,-1.93,-1.53,-1.84,
4.92,3.73,-0.74,1.31,-1.93,-1.52,-1.85,
4.92,3.73,-0.74,1.31,-1.93,-1.50,-1.87,
4.92,3.11,-0.59,1.13,-1.93,-1.50,-1.87,
4.92,3.11,-0.59,1.13,-1.92,-1.48,-1.88,
4.92,3.11,-0.59,1.13,-1.91,-1.45,-1.89,
4.921,3.11,-0.59,1.13,-1.89,-1.42,-1.90,
4.921,3.11,-0.59,1.13,-1.88,-1.41,-1.90,
4.921,3.11,-0.59,1.13,-1.86,-1.39,-1.90,
4.921,2.41,-0.34,1.53,-1.86,-1.39,-1.90,
4.924,2.41,-0.34,1.53,-1.84,-1.37,-1.90,
4.924,2.41,-0.34,1.53,-1.81,-1.36,-1.88,
4.941,2.41,-0.34,1.53,-1.77,-1.33,-1.86,
4.942,2.41,-0.34,1.53,-1.76,-1.32,-1.85,
4.942,2.41,-0.34,1.53,-1.73,-1.29,-1.83,
4.942,1.60,-0.12,1.95,-1.73,-1.29,-1.83,
4.942,1.60,-0.12,1.95,-1.70,-1.27,-1.80,
4.942,1.60,-0.12,1.95,-1.66,-1.23,-1.77,
4.943,1.60,-0.12,1.95,-1.62,-1.17,-1.71,
4.943,1.60,-0.12,1.95,-1.60,-1.15,-1.68,
4.943,1.60,-0.12,1.95,-1.58,-1.11,-1.63,
