
time,ax,ay,az,wx,wy,wz,
0.002,-0.12,-0.09,-0.74,0.02,-0.87,-0.89,
0.003,-0.12,-0.09,-0.74,0.01,-0.87,-0.88,
0.003,-0.12,-0.09,-0.74,-0.02,-0.87,-0.88,
0.003,-0.19,-0.15,-1.08,-0.02,-0.87,-0.88,
0.003,-0.19,-0.15,-1.08,-0.04,-0.86,-0.87,
0.004,-0.19,-0.15,-1.08,-0.06,-0.86,-0.87,
0.012,-0.19,-0.15,-1.08,-0.08,-0.86,-0.86,
0.012,-0.19,-0.15,-1.08,-0.10,-0.86,-0.86,
0.012,-0.19,-0.15,-1.08,-0.13,-0.86,-0.85,
0.014,0.03,0.02,-1.19,-0.13,-0.86,-0.85,
0.014,0.03,0.02,-1.19,-0.16,-0.86,-0.85,
0.015,0.03,0.02,-1.19,-0.19,-0.86,-0.85,
0.017,0.03,0.02,-1.19,-0.22,-0.86,-0.84,
0.019,0.03,0.02,-1.19,-0.25,-0.85,-0.84,
0.02,0.03,0.02,-1.19,-0.28,-0.84,-0.84,
0.023,0.17,0.09,-1.40,-0.28,-0.84,-0.84,
0.024,0.17,0.09,-1.40,-0.31,-0.83,-0.83,
0.024,0.17,0.09,-1.40,-0.34,-0.82,-0.82,
0.028,0.17,0.09,-1.40,-0.38,-0.80,-0.82,
0.029,0.17,0.09,-1.40,-0.41,-0.79,-0.81,
0.032,0.17,0.09,-1.40,-0.45,-0.78,-0.80,
0.034,0.20,0.08,-1.77,-0.45,-0.78,-0.80,
0.034,0.20,0.08,-1.77,-0.49,-0.76,-0.79,
0.034,0.20,0.08,-1.77,-0.53,-0.76,-0.78,
0.036,0.20,0.08,-1.77,-0.57,-0.75,-0.77,
0.038,0.20,0.08,-1.77,-0.60,-0.75,-0.76,
0.04,0.20,0.08,-1.77,-0.64,-0.74,-0.76,
0.047,0.36,-0.10,-1.93,-0.64,-0.74,-0.76,
0.048,0.36,-0.10,-1.93,-0.69,-0.74,-0.75,
0.048,0.36,-0.10,-1.93,-0.72,-0.74,-0.74,
0.048,0.36,-0.10,-1.93,-0.76,-0.73,-0.73,
0.049,0.36,-0.10,-1.93,-0.80,-0.73,-0.72,
0.054,0.36,-0.10,-1.93,-0.84,-0.73,-0.71,
0.055,0.42,-0.35,-2.01,-0.84,-0.73,-0.71,
0.056,0.42,-0.35,-2.01,-0.88,-0.73,-0.71,
0.058,0.42,-0.35,-2.01,-0.92,-0.73,-0.71,
0.059,0.42,-0.35,-2.01,-0.96,-0.73,-0.71,
0.086,0.42,-0.35,-2.01,-0.99,-0.73,-0.72,
0.089,0.42,-0.35,-2.01,-1.02,-0.73,-0.72,
0.09,0.41,-0.56,-1.92,-1.02,-0.73,-0.72,
0.09,0.41,-0.56,-1.92,-1.06,-0.72,-0.73,
0.091,0.41,-0.56,-1.92,-1.09,-0.72,-0.73,
0.091,0.41,-0.56,-1.92,-1.12,-0.72,-0.74,
0.091,0.41,-0.56,-1.92,-1.14,-0.71,-0.74,
0.092,0.41,-0.56,-1.92,-1.16,-0.71,-0.74,
0.092,0.08,-0.64,-1.49,-1.16,-0.71,-0.74,
0.093,0.08,-0.64,-1.49,-1.18,-0.70,-0.75,
0.094,0.08,-0.64,-1.49,-1.19,-0.70,-0.75,
0.094,0.08,-0.64,-1.49,-1.20,-0.69,-0.75,
0.095,0.08,-0.64,-1.49,-1.19,-0.68,-0.76,
0.096,0.08,-0.64,-1.49,-1.19,-0.67,-0.77,
0.097,-0.18,-0.70,-0.82,-1.19,-0.67,-0.77,
0.098,-0.18,-0.70,-0.82,-1.17,-0.64,-0.78,
0.099,-0.18,-0.70,-0.82,-1.15,-0.62,-0.81,
0.099,-0.18,-0.70,-0.82,-1.13,-0.59,-0.83,
0.1,-0.18,-0.70,-0.82,-1.10,-0.56,-0.87,
0.1,-0.18,-0.70,-0.82,-1.06,-0.53,-0.91,
0.101,-0.07,-0.67,-0.38,-1.06,-0.53,-0.91,
0.102,-0.07,-0.67,-0.38,-1.03,-0.50,-0.95,
0.103,-0.07,-0.67,-0.38,-0.99,-0.48,-1.01,
0.103,-0.07,-0.67,-0.38,-0.94,-0.46,-1.08,
0.103,-0.07,-0.67,-0.38,-0.90,-0.44,-1.15,
0.104,-0.07,-0.67,-0.38,-0.86,-0.42,-1.22,
0.104,0.08,-0.55,-0.01,-0.86,-0.42,-1.22,
0.105,0.08,-0.55,-0.01,-0.81,-0.41,-1.30,
0.125,0.08,-0.55,-0.01,-0.76,-0.41,-1.38,
0.126,0.08,-0.55,-0.01,-0.64,-0.43,-1.52,
0.126,0.08,-0.55,-0.01,-0.60,-0.44,-1.55,
0.126,0.08,-0.55,-0.01,-0.57,-0.45,-1.58,
0.126,-0.62,-0.49,0.31,-0.57,-0.45,-1.58,
0.126,-0.62,-0.49,0.31,-0.50,-0.48,-1.64,
0.127,-0.62,-0.49,0.31,-0.43,-0.52,-1.68,
0.127,-0.62,-0.49,0.31,-0.35,-0.56,-1.73,
0.127,-0.62,-0.49,0.31,-0.27,-0.61,-1.76,
0.127,-0.62,-0.49,0.31,-0.19,-0.67,-1.79,
0.132,-0.96,-0.39,0.36,-0.19,-0.67,-1.79,
0.133,-0.96,-0.39,0.36,-0.10,-0.74,-1.82,
0.133,-0.96,-0.39,0.36,-0.02,-0.81,-1.85,
0.133,-0.96,-0.39,0.36,0.11,-0.91,-1.87,
0.133,-0.96,-0.39,0.36,0.15,-0.94,-1.88,
0.133,-0.96,-0.39,0.36,0.23,-1.00,-1.88,
0.134,-0.79,-0.05,0.44,0.23,-1.00,-1.88,
0.134,-0.79,-0.05,0.44,0.30,-1.05,-1.87,
0.135,-0.79,-0.05,0.44,0.36,-1.09,-1.85,
0.137,-0.79,-0.05,0.44,0.41,-1.12,-1.83,
0.139,-0.79,-0.05,0.44,0.46,-1.13,-1.79,
0.141,-0.79,-0.05,0.44,0.50,-1.14,-1.75,
0.145,-0.79,0.13,-0.06,0.50,-1.14,-1.75,
0.146,-0.79,0.13,-0.06,0.52,-1.13,-1.71,
0.146,-0.79,0.13,-0.06,0.54,-1.12,-1.66,
0.149,-0.79,0.13,-0.06,0.55,-1.07,-1.57,
0.15,-0.79,0.13,-0.06,0.55,-1.06,-1.54,
0.152,-0.79,0.13,-0.06,0.53,-1.02,-1.48,
0.154,-0.94,0.15,-1.48,0.53,-1.02,-1.48,
0.154,-0.94,0.15,-1.48,0.51,-0.97,-1.43,
0.155,-0.94,0.15,-1.48,0.47,-0.91,-1.37,
0.157,-0.94,0.15,-1.48,0.41,-0.82,-1.29,
0.17,-0.94,0.15,-1.48,0.39,-0.78,-1.26,
0.171,-0.94,0.15,-1.48,0.34,-0.72,-1.22,
0.171,-0.73,-0.21,-3.10,0.34,-0.72,-1.22,
0.172,-0.73,-0.21,-3.10,0.28,-0.65,-1.17,
0.172,-0.73,-0.21,-3.10,0.22,-0.58,-1.14,
0.172,-0.73,-0.21,-3.10,0.13,-0.49,-1.10,
0.172,-0.73,-0.21,-3.10,0.10,-0.46,-1.09,
0.173,-0.73,-0.21,-3.10,0.03,-0.40,-1.06,
0.175,-0.37,-0.50,-4.10,0.03,-0.40,-1.06,
0.175,-0.37,-0.50,-4.10,-0.03,-0.34,-1.05,
0.175,-0.37,-0.50,-4.10,-0.10,-0.28,-1.04,
0.177,-0.37,-0.50,-4.10,-0.19,-0.20,-1.03,
0.179,-0.37,-0.50,-4.10,-0.22,-0.18,-1.03,
0.183,-0.37,-0.50,-4.10,-0.27,-0.14,-1.03,
0.186,-0.20,-0.74,-4.08,-0.27,-0.14,-1.03,
0.186,-0.20,-0.74,-4.08,-0.36,-0.08,-1.04,
0.188,-0.20,-0.74,-4.08,-0.41,-0.06,-1.04,
0.188,-0.20,-0.74,-4.08,-0.46,-0.04,-1.06,
0.189,-0.20,-0.74,-4.08,-0.50,-0.03,-1.07,
0.216,-0.20,-0.74,-4.08,-0.53,-0.03,-1.08,
0.216,0.00,-0.77,-3.82,-0.53,-0.03,-1.08,
0.216,0.00,-0.77,-3.82,-0.59,-0.03,-1.11,
0.217,0.00,-0.77,-3.82,-0.61,-0.02,-1.12,
0.217,0.00,-0.77,-3.82,-0.67,-0.03,-1.16,
0.217,0.00,-0.77,-3.82,-0.69,-0.03,-1.17,
0.218,0.00,-0.77,-3.82,-0.72,-0.03,-1.20,
0.218,0.31,-0.93,-3.67,-0.72,-0.03,-1.20,
0.218,0.31,-0.93,-3.67,-0.77,-0.04,-1.24,
0.218,0.31,-0.93,-3.67,-0.79,-0.05,-1.26,
0.219,0.31,-0.93,-3.67,-0.83,-0.05,-1.30,
0.219,0.31,-0.93,-3.67,-0.86,-0.06,-1.33,
0.219,0.31,-0.93,-3.67,-0.88,-0.07,-1.36,
0.219,0.44,-1.01,-3.40,-0.88,-0.07,-1.36,
0.22,0.44,-1.01,-3.40,-0.90,-0.08,-1.38,
0.22,0.44,-1.01,-3.40,-0.91,-0.10,-1.41,
0.22,0.44,-1.01,-3.40,-0.92,-0.11,-1.44,
0.22,0.44,-1.01,-3.40,-0.94,-0.13,-1.46,
0.221,0.44,-1.01,-3.40,-0.95,-0.14,-1.48,
0.226,0.50,-1.07,-2.79,-0.95,-0.14,-1.48,
0.227,0.50,-1.07,-2.79,-0.95,-0.17,-1.50,
0.227,0.50,-1.07,-2.79,-0.96,-0.20,-1.52,
0.227,0.50,-1.07,-2.79,-0.96,-0.24,-1.53,
0.229,0.50,-1.07,-2.79,-0.96,-0.29,-1.55,
0.231,0.50,-1.07,-2.79,-0.96,-0.34,-1.55,
0.233,0.61,-1.17,-1.79,-0.96,-0.34,-1.55,
0.233,0.61,-1.17,-1.79,-0.96,-0.39,-1.56,
0.234,0.61,-1.17,-1.79,-0.97,-0.45,-1.57,
0.237,0.61,-1.17,-1.79,-1.01,-0.66,-1.60,
0.238,0.61,-1.17,-1.79,-1.09,-1.07,-1.63,
0.24,0.61,-1.17,-1.79,-1.18,-1.30,-1.66,
0.243,0.09,-1.55,-0.35,-1.18,-1.30,-1.66,
0.244,0.09,-1.55,-0.35,-1.24,-1.30,-1.67,
0.245,0.09,-1.55,-0.35,-1.28,-1.24,-1.67,
0.247,0.09,-1.55,-0.35,-1.29,-1.16,-1.66,
0.249,0.09,-1.55,-0.35,-1.30,-1.09,-1.66,
0.251,0.09,-1.55,-0.35,-1.29,-1.03,-1.66,
0.255,-0.35,-2.22,-0.42,-1.29,-1.03,-1.66,
0.255,-0.35,-2.22,-0.42,-1.28,-0.98,-1.68,
0.259,-0.35,-2.22,-0.42,-1.27,-0.94,-1.71,
0.259,-0.35,-2.22,-0.42,-1.26,-0.89,-1.75,
0.26,-0.35,-2.22,-0.42,-1.24,-0.83,-1.80,
0.262,-0.35,-2.22,-0.42,-1.21,-0.76,-1.85,
0.264,0.48,-2.46,-0.11,-1.21,-0.76,-1.85,
0.264,0.48,-2.46,-0.11,-1.17,-0.70,-1.90,
0.265,0.48,-2.46,-0.11,-1.12,-0.65,-1.95,
0.267,0.48,-2.46,-0.11,-1.07,-0.62,-2.01,
0.269,0.48,-2.46,-0.11,-1.02,-0.59,-2.07,
0.272,0.48,-2.46,-0.11,-0.95,-0.57,-2.14,
0.274,1.36,-2.13,0.35,-0.95,-0.57,-2.14,
0.276,1.36,-2.13,0.35,-0.89,-0.56,-2.20,
0.276,1.36,-2.13,0.35,-0.83,-0.55,-2.27,
0.278,1.36,-2.13,0.35,-0.76,-0.55,-2.33,
0.279,1.36,-2.13,0.35,-0.70,-0.55,-2.40,
0.282,1.36,-2.13,0.35,-0.64,-0.55,-2.46,
0.284,1.39,-1.91,0.12,-0.64,-0.55,-2.46,
0.284,1.39,-1.91,0.12,-0.57,-0.55,-2.52,
0.285,1.39,-1.91,0.12,-0.51,-0.54,-2.57,
0.289,1.39,-1.91,0.12,-0.44,-0.53,-2.62,
0.29,1.39,-1.91,0.12,-0.39,-0.52,-2.67,
0.295,1.39,-1.91,0.12,-0.33,-0.52,-2.71,
0.295,1.18,-1.87,-0.35,-0.33,-0.52,-2.71,
0.295,1.18,-1.87,-0.35,-0.28,-0.50,-2.74,
0.295,1.18,-1.87,-0.35,-0.24,-0.49,-2.77,
0.298,1.18,-1.87,-0.35,-0.19,-0.47,-2.80,
0.298,1.18,-1.87,-0.35,-0.16,-0.45,-2.83,
0.302,1.18,-1.87,-0.35,-0.13,-0.41,-2.85,
0.305,0.76,-1.72,-1.05,-0.13,-0.41,-2.85,
0.305,0.76,-1.72,-1.05,-0.10,-0.37,-2.87,
0.305,0.76,-1.72,-1.05,-0.07,-0.32,-2.89,
0.307,0.76,-1.72,-1.05,-0.05,-0.26,-2.90,
0.32,0.76,-1.72,-1.05,-0.02,-0.19,-2.91,
0.321,0.76,-1.72,-1.05,-0.00,-0.10,-2.92,
0.321,0.21,-1.77,-1.66,-0.00,-0.10,-2.92,
0.321,0.21,-1.77,-1.66,0.02,-0.02,-2.92,
0.321,0.21,-1.77,-1.66,0.04,0.07,-2.93,
0.321,0.21,-1.77,-1.66,0.06,0.16,-2.93,
0.322,0.21,-1.77,-1.66,0.08,0.25,-2.94,
0.322,0.21,-1.77,-1.66,0.10,0.33,-2.94,
0.348,-0.15,-1.56,-1.98,0.10,0.33,-2.94,
0.349,-0.15,-1.56,-1.98,0.11,0.41,-2.95,
0.349,-0.15,-1.56,-1.98,0.13,0.48,-2.95,
0.349,-0.15,-1.56,-1.98,0.15,0.56,-2.96,
0.349,-0.15,-1.56,-1.98,0.18,0.62,-2.97,
0.349,-0.15,-1.56,-1.98,0.19,0.69,-2.98,
0.349,-0.12,-1.46,-2.30,0.19,0.69,-2.98,
0.349,-0.12,-1.46,-2.30,0.22,0.76,-2.99,
0.35,-0.12,-1.46,-2.30,0.24,0.82,-3.00,
0.35,-0.12,-1.46,-2.30,0.25,0.89,-3.00,
0.35,-0.12,-1.46,-2.30,0.27,0.95,-3.01,
0.35,-0.12,-1.46,-2.30,0.28,1.02,-3.02,
0.35,0.11,-1.20,-2.76,0.28,1.02,-3.02,
0.35,0.11,-1.20,-2.76,0.29,1.08,-3.02,
0.35,0.11,-1.20,-2.76,0.30,1.13,-3.02,
0.35,0.11,-1.20,-2.76,0.31,1.19,-3.01,
0.351,0.11,-1.20,-2.76,0.32,1.25,-3.01,
0.351,0.11,-1.20,-2.76,0.33,1.31,-3.00,
0.373,0.30,-1.01,-3.12,0.33,1.31,-3.00,
0.373,0.30,-1.01,-3.12,0.33,1.37,-3.00,
0.373,0.30,-1.01,-3.12,0.34,1.43,-2.99,
0.384,0.30,-1.01,-3.12,0.34,1.49,-2.99,
0.384,0.30,-1.01,-3.12,0.35,1.56,-2.99,
0.384,0.30,-1.01,-3.12,0.35,1.63,-2.99,
0.384,0.63,-0.93,-3.18,0.35,1.63,-2.99,
0.384,0.63,-0.93,-3.18,0.36,1.70,-2.99,
0.385,0.63,-0.93,-3.18,0.35,1.77,-2.99,
0.385,0.63,-0.93,-3.18,0.35,1.84,-3.00,
0.385,0.63,-0.93,-3.18,0.35,1.91,-3.01,
0.385,0.63,-0.93,-3.18,0.35,1.98,-3.03,
0.385,1.13,-1.17,-3.28,0.35,1.98,-3.03,
0.385,1.13,-1.17,-3.28,0.34,2.05,-3.04,
0.385,1.13,-1.17,-3.28,0.33,2.12,-3.07,
0.385,1.13,-1.17,-3.28,0.32,2.18,-3.09,
0.386,1.13,-1.17,-3.28,0.31,2.24,-3.12,
0.386,1.13,-1.17,-3.28,0.30,2.30,-3.16,
0.386,1.67,-1.56,-3.25,0.30,2.30,-3.16,
0.386,1.67,-1.56,-3.25,0.28,2.36,-3.20,
0.386,1.67,-1.56,-3.25,0.27,2.41,-3.24,
0.388,1.67,-1.56,-3.25,0.25,2.46,-3.30,
0.389,1.67,-1.56,-3.25,0.23,2.50,-3.35,
0.391,1.67,-1.56,-3.25,0.21,2.54,-3.41,
0.393,2.30,-1.95,-2.68,0.21,2.54,-3.41,
0.393,2.30,-1.95,-2.68,0.19,2.57,-3.47,
0.394,2.30,-1.95,-2.68,0.17,2.60,-3.53,
0.398,2.30,-1.95,-2.68,0.15,2.63,-3.60,
0.399,2.30,-1.95,-2.68,0.12,2.65,-3.67,
0.4,2.30,-1.95,-2.68,0.09,2.67,-3.74,
0.403,2.65,-2.25,-2.04,0.09,2.67,-3.74,
0.403,2.65,-2.25,-2.04,0.07,2.69,-3.80,
0.404,2.65,-2.25,-2.04,0.04,2.71,-3.87,
0.407,2.65,-2.25,-2.04,0.01,2.72,-3.94,
0.409,2.65,-2.25,-2.04,-0.01,2.73,-4.00,
0.41,2.65,-2.25,-2.04,-0.04,2.74,-4.06,
0.413,2.45,-2.52,-1.42,-0.04,2.74,-4.06,
0.413,2.45,-2.52,-1.42,-0.07,2.74,-4.11,
0.415,2.45,-2.52,-1.42,-0.09,2.73,-4.15,
0.417,2.45,-2.52,-1.42,-0.11,2.72,-4.19,
0.418,2.45,-2.52,-1.42,-0.13,2.71,-4.23,
0.42,2.45,-2.52,-1.42,-0.15,2.69,-4.26,
0.423,1.45,-2.36,-0.51,-0.15,2.69,-4.26,
0.423,1.45,-2.36,-0.51,-0.16,2.66,-4.29,
0.424,1.45,-2.36,-0.51,-0.16,2.63,-4.32,
0.427,1.45,-2.36,-0.51,-0.16,2.60,-4.35,
0.428,1.45,-2.36,-0.51,-0.16,2.57,-4.37,
0.43,1.45,-2.36,-0.51,-0.16,2.54,-4.40,
0.433,0.73,-2.16,0.40,-0.16,2.54,-4.40,
0.433,0.73,-2.16,0.40,-0.15,2.52,-4.42,
0.434,0.73,-2.16,0.40,-0.14,2.50,-4.45,
0.437,0.73,-2.16,0.40,-0.13,2.48,-4.48,
0.438,0.73,-2.16,0.40,-0.11,2.46,-4.50,
0.443,0.73,-2.16,0.40,-0.09,2.45,-4.53,
0.443,0.38,-1.80,0.94,-0.09,2.45,-4.53,
0.444,0.38,-1.80,0.94,-0.08,2.43,-4.55,
0.445,0.38,-1.80,0.94,-0.06,2.41,-4.58,
0.447,0.38,-1.80,0.94,-0.05,2.40,-4.60,
0.449,0.38,-1.80,0.94,-0.03,2.38,-4.62,
0.451,0.38,-1.80,0.94,-0.03,2.35,-4.64,
0.453,-0.41,-1.53,1.09,-0.03,2.35,-4.64,
0.453,-0.41,-1.53,1.09,-0.02,2.31,-4.65,
0.454,-0.41,-1.53,1.09,-0.03,2.27,-4.66,
0.468,-0.41,-1.53,1.09,-0.04,2.20,-4.67,
0.468,-0.41,-1.53,1.09,-0.05,2.17,-4.68,
0.468,-0.41,-1.53,1.09,-0.06,2.14,-4.68,
0.468,-1.10,-1.36,1.12,-0.06,2.14,-4.68,
0.468,-1.10,-1.36,1.12,-0.10,2.05,-4.68,
0.469,-1.10,-1.36,1.12,-0.14,1.99,-4.67,
0.469,-1.10,-1.36,1.12,-0.19,1.92,-4.67,
0.469,-1.10,-1.36,1.12,-0.25,1.86,-4.66,
0.47,-1.10,-1.36,1.12,-0.31,1.80,-4.65,
0.473,-1.33,-1.14,0.98,-0.31,1.80,-4.65,
0.473,-1.33,-1.14,0.98,-0.37,1.74,-4.64,
0.475,-1.33,-1.14,0.98,-0.44,1.68,-4.62,
0.477,-1.33,-1.14,0.98,-0.51,1.60,-4.61,
0.478,-1.33,-1.14,0.98,-0.59,1.51,-4.59,
0.48,-1.33,-1.14,0.98,-0.67,1.43,-4.57,
0.483,-1.48,-0.67,1.16,-0.67,1.43,-4.57,
0.483,-1.48,-0.67,1.16,-0.74,1.34,-4.55,
0.484,-1.48,-0.67,1.16,-0.82,1.25,-4.54,
0.487,-1.48,-0.67,1.16,-0.90,1.16,-4.52,
0.489,-1.48,-0.67,1.16,-0.97,1.08,-4.50,
0.491,-1.48,-0.67,1.16,-1.05,0.99,-4.48,
0.493,-1.64,-0.12,1.51,-1.05,0.99,-4.48,
0.493,-1.64,-0.12,1.51,-1.12,0.91,-4.46,
0.494,-1.64,-0.12,1.51,-1.18,0.85,-4.45,
0.497,-1.64,-0.12,1.51,-1.23,0.79,-4.43,
0.499,-1.64,-0.12,1.51,-1.28,0.73,-4.42,
0.5,-1.64,-0.12,1.51,-1.32,0.69,-4.40,
0.503,-2.08,0.16,2.19,-1.32,0.69,-4.40,
0.503,-2.08,0.16,2.19,-1.35,0.66,-4.39,
0.505,-2.08,0.16,2.19,-1.38,0.64,-4.37,
0.507,-2.08,0.16,2.19,-1.39,0.64,-4.36,
0.508,-2.08,0.16,2.19,-1.40,0.65,-4.35,
0.51,-2.08,0.16,2.19,-1.39,0.66,-4.34,
0.513,-2.58,0.10,3.44,-1.39,0.66,-4.34,
0.513,-2.58,0.10,3.44,-1.37,0.70,-4.33,
0.514,-2.58,0.10,3.44,-1.34,0.74,-4.32,
0.517,-2.58,0.10,3.44,-1.30,0.79,-4.31,
0.519,-2.58,0.10,3.44,-1.26,0.85,-4.30,
0.521,-2.58,0.10,3.44,-1.20,0.92,-4.29,
0.524,-3.31,-0.18,4.96,-1.20,0.92,-4.29,
0.534,-3.31,-0.18,4.96,-1.14,0.99,-4.28,
0.534,-3.31,-0.18,4.96,-1.06,1.08,-4.27,
0.535,-3.31,-0.18,4.96,-0.99,1.17,-4.25,
0.535,-3.31,-0.18,4.96,-0.90,1.26,-4.23,
0.535,-3.31,-0.18,4.96,-0.82,1.36,-4.22,
0.535,-4.12,-0.26,6.33,-0.82,1.36,-4.22,
0.535,-4.12,-0.26,6.33,-0.72,1.45,-4.20,
0.536,-4.12,-0.26,6.33,-0.62,1.54,-4.18,
0.537,-4.12,-0.26,6.33,-0.52,1.62,-4.16,
0.538,-4.12,-0.26,6.33,-0.41,1.68,-4.14,
0.54,-4.12,-0.26,6.33,-0.30,1.74,-4.12,
0.543,-4.57,-0.37,7.42,-0.30,1.74,-4.12,
0.543,-4.57,-0.37,7.42,-0.19,1.78,-4.10,
0.544,-4.57,-0.37,7.42,-0.08,1.81,-4.09,
0.546,-4.57,-0.37,7.42,0.02,1.82,-4.08,
0.549,-4.57,-0.37,7.42,0.13,1.81,-4.08,
0.55,-4.57,-0.37,7.42,0.24,1.79,-4.08,
0.553,-4.78,-0.66,7.99,0.24,1.79,-4.08,
0.553,-4.78,-0.66,7.99,0.34,1.76,-4.08,
0.554,-4.78,-0.66,7.99,0.44,1.70,-4.09,
0.557,-4.78,-0.66,7.99,0.54,1.63,-4.10,
0.559,-4.78,-0.66,7.99,0.64,1.55,-4.11,
0.56,-4.78,-0.66,7.99,0.73,1.46,-4.12,
0.567,-5.17,-1.05,8.22,0.73,1.46,-4.12,
0.567,-5.17,-1.05,8.22,0.82,1.36,-4.14,
0.568,-5.17,-1.05,8.22,0.90,1.25,-4.16,
0.571,-5.17,-1.05,8.22,0.98,1.14,-4.18,
0.571,-5.17,-1.05,8.22,1.05,1.02,-4.21,
0.572,-5.17,-1.05,8.22,1.12,0.89,-4.23,
0.573,-5.26,-1.30,7.86,1.12,0.89,-4.23,
0.574,-5.26,-1.30,7.86,1.18,0.76,-4.25,
0.575,-5.26,-1.30,7.86,1.23,0.62,-4.27,
0.577,-5.26,-1.30,7.86,1.28,0.49,-4.28,
0.579,-5.26,-1.30,7.86,1.32,0.35,-4.29,
0.58,-5.26,-1.30,7.86,1.35,0.21,-4.30,
0.583,-5.58,-1.01,7.15,1.35,0.21,-4.30,
0.583,-5.58,-1.01,7.15,1.39,0.08,-4.29,
0.584,-5.58,-1.01,7.15,1.41,-0.06,-4.29,
0.587,-5.58,-1.01,7.15,1.43,-0.19,-4.27,
0.589,-5.58,-1.01,7.15,1.45,-0.32,-4.25,
0.59,-5.58,-1.01,7.15,1.45,-0.44,-4.23,
0.593,-6.55,-0.13,6.13,1.45,-0.44,-4.23,
0.593,-6.55,-0.13,6.13,1.45,-0.57,-4.20,
0.594,-6.55,-0.13,6.13,1.45,-0.68,-4.16,
0.597,-6.55,-0.13,6.13,1.45,-0.80,-4.12,
0.598,-6.55,-0.13,6.13,1.44,-0.92,-4.08,
0.6,-6.55,-0.13,6.13,1.42,-1.03,-4.03,
0.603,-7.48,0.54,4.72,1.42,-1.03,-4.03,
0.603,-7.48,0.54,4.72,1.40,-1.15,-3.97,
0.604,-7.48,0.54,4.72,1.38,-1.26,-3.92,
0.609,-7.48,0.54,4.72,1.35,-1.37,-3.86,
0.609,-7.48,0.54,4.72,1.32,-1.48,-3.80,
0.611,-7.48,0.54,4.72,1.28,-1.58,-3.74,
0.613,-8.24,1.03,3.34,1.28,-1.58,-3.74,
0.613,-8.24,1.03,3.34,1.24,-1.68,-3.68,
0.614,-8.24,1.03,3.34,1.20,-1.77,-3.62,
0.617,-8.24,1.03,3.34,1.16,-1.86,-3.56,
0.618,-8.24,1.03,3.34,1.12,-1.94,-3.50,
0.62,-8.24,1.03,3.34,1.08,-2.01,-3.43,
0.636,-8.77,1.34,2.17,1.08,-2.01,-3.43,
0.637,-8.77,1.34,2.17,1.03,-2.08,-3.36,
0.637,-8.77,1.34,2.17,0.99,-2.14,-3.29,
0.637,-8.77,1.34,2.17,0.95,-2.19,-3.22,
0.637,-8.77,1.34,2.17,0.92,-2.23,-3.13,
0.637,-8.77,1.34,2.17,0.89,-2.26,-3.05,
0.637,-9.48,1.88,1.38,0.89,-2.26,-3.05,
0.637,-9.48,1.88,1.38,0.86,-2.28,-2.97,
0.637,-9.48,1.88,1.38,0.83,-2.30,-2.88,
0.638,-9.48,1.88,1.38,0.81,-2.31,-2.80,
0.638,-9.48,1.88,1.38,0.80,-2.31,-2.71,
0.643,-9.48,1.88,1.38,0.79,-2.30,-2.63,
0.644,-9.44,2.47,1.16,0.79,-2.30,-2.63,
0.644,-9.44,2.47,1.16,0.77,-2.29,-2.54,
0.645,-9.44,2.47,1.16,0.77,-2.26,-2.46,
0.651,-9.44,2.47,1.16,0.77,-2.24,-2.37,
0.651,-9.44,2.47,1.16,0.77,-2.21,-2.29,
0.652,-9.44,2.47,1.16,0.77,-2.18,-2.21,
0.653,-9.11,3.05,1.11,0.77,-2.18,-2.21,
0.654,-9.11,3.05,1.11,0.77,-2.15,-2.13,
0.655,-9.11,3.05,1.11,0.78,-2.11,-2.06,
0.657,-9.11,3.05,1.11,0.79,-2.08,-1.98,
0.658,-9.11,3.05,1.11,0.79,-2.04,-1.90,
0.66,-9.11,3.05,1.11,0.79,-2.00,-1.81,
0.663,-8.85,3.19,0.62,0.79,-2.00,-1.81,
0.663,-8.85,3.19,0.62,0.78,-1.96,-1.72,
0.664,-8.85,3.19,0.62,0.78,-1.93,-1.64,
0.666,-8.85,3.19,0.62,0.77,-1.90,-1.57,
0.668,-8.85,3.19,0.62,0.77,-1.86,-1.52,
0.67,-8.85,3.19,0.62,0.76,-1.81,-1.46,
0.676,-8.21,2.93,0.08,0.76,-1.81,-1.46,
0.677,-8.21,2.93,0.08,0.75,-1.75,-1.42,
0.677,-8.21,2.93,0.08,0.75,-1.70,-1.38,
0.677,-8.21,2.93,0.08,0.75,-1.65,-1.36,
0.679,-8.21,2.93,0.08,0.75,-1.60,-1.33,
0.68,-8.21,2.93,0.08,0.74,-1.55,-1.31,
0.683,-7.02,2.26,0.34,0.74,-1.55,-1.31,
0.683,-7.02,2.26,0.34,0.72,-1.51,-1.29,
0.685,-7.02,2.26,0.34,0.70,-1.49,-1.28,
0.687,-7.02,2.26,0.34,0.67,-1.48,-1.27,
0.689,-7.02,2.26,0.34,0.64,-1.48,-1.27,
0.7,-7.02,2.26,0.34,0.60,-1.50,-1.27,
0.701,-5.66,1.46,0.60,0.60,-1.50,-1.27,
0.701,-5.66,1.46,0.60,0.56,-1.53,-1.28,
0.701,-5.66,1.46,0.60,0.51,-1.56,-1.30,
0.701,-5.66,1.46,0.60,0.46,-1.59,-1.31,
0.701,-5.66,1.46,0.60,0.40,-1.63,-1.32,
0.702,-5.66,1.46,0.60,0.34,-1.67,-1.34,
0.704,-4.62,0.91,0.23,0.34,-1.67,-1.34,
0.705,-4.62,0.91,0.23,0.28,-1.71,-1.35,
0.705,-4.62,0.91,0.23,0.23,-1.75,-1.37,
0.707,-4.62,0.91,0.23,0.18,-1.78,-1.38,
0.709,-4.62,0.91,0.23,0.14,-1.81,-1.39,
0.714,-4.62,0.91,0.23,0.11,-1.83,-1.41,
0.714,-4.21,0.56,0.89,0.11,-1.83,-1.41,
0.714,-4.21,0.56,0.89,0.08,-1.85,-1.42,
0.715,-4.21,0.56,0.89,0.07,-1.85,-1.45,
0.721,-4.21,0.56,0.89,0.06,-1.84,-1.47,
0.721,-4.21,0.56,0.89,0.06,-1.83,-1.50,
0.722,-4.21,0.56,0.89,0.07,-1.81,-1.51,
0.724,-4.02,0.07,2.32,0.07,-1.81,-1.51,
0.724,-4.02,0.07,2.32,0.10,-1.81,-1.53,
0.725,-4.02,0.07,2.32,0.14,-1.81,-1.54,
0.727,-4.02,0.07,2.32,0.20,-1.82,-1.55,
0.732,-4.02,0.07,2.32,0.26,-1.84,-1.56,
0.732,-4.02,0.07,2.32,0.34,-1.85,-1.56,
0.733,-4.13,-0.14,4.21,0.34,-1.85,-1.56,
0.733,-4.13,-0.14,4.21,0.43,-1.85,-1.57,
0.735,-4.13,-0.14,4.21,0.52,-1.86,-1.58,
0.738,-4.13,-0.14,4.21,0.62,-1.89,-1.60,
0.744,-4.13,-0.14,4.21,0.72,-1.91,-1.62,
0.745,-4.13,-0.14,4.21,0.82,-1.92,-1.63,
0.745,-3.47,-0.15,5.47,0.82,-1.92,-1.63,
0.745,-3.47,-0.15,5.47,0.91,-1.93,-1.65,
0.745,-3.47,-0.15,5.47,1.00,-1.92,-1.66,
0.747,-3.47,-0.15,5.47,1.08,-1.91,-1.66,
0.749,-3.47,-0.15,5.47,1.15,-1.89,-1.66,
0.751,-3.47,-0.15,5.47,1.20,-1.87,-1.66,
0.753,-4.33,-0.07,4.01,1.20,-1.87,-1.66,
0.753,-4.33,-0.07,4.01,1.25,-1.86,-1.65,
0.754,-4.33,-0.07,4.01,1.28,-1.84,-1.63,
0.766,-4.33,-0.07,4.01,1.30,-1.83,-1.60,
0.766,-4.33,-0.07,4.01,1.30,-1.81,-1.57,
0.767,-4.33,-0.07,4.01,1.30,-1.80,-1.52,
0.767,-5.15,-0.16,1.95,1.30,-1.80,-1.52,
0.767,-5.15,-0.16,1.95,1.30,-1.79,-1.47,
0.767,-5.15,-0.16,1.95,1.28,-1.79,-1.42,
0.767,-5.15,-0.16,1.95,1.25,-1.79,-1.36,
0.769,-5.15,-0.16,1.95,1.22,-1.80,-1.30,
0.77,-5.15,-0.16,1.95,1.19,-1.82,-1.24,
0.773,-5.33,0.24,0.07,1.19,-1.82,-1.24,
0.774,-5.33,0.24,0.07,1.14,-1.85,-1.18,
0.774,-5.33,0.24,0.07,1.09,-1.88,-1.12,
0.777,-5.33,0.24,0.07,1.03,-1.90,-1.06,
0.779,-5.33,0.24,0.07,0.96,-1.92,-1.00,
0.78,-5.33,0.24,0.07,0.88,-1.94,-0.94,
0.783,-4.99,0.54,-1.99,0.88,-1.94,-0.94,
0.783,-4.99,0.54,-1.99,0.80,-1.95,-0.89,
0.785,-4.99,0.54,-1.99,0.72,-1.96,-0.83,
0.787,-4.99,0.54,-1.99,0.64,-1.97,-0.77,
0.789,-4.99,0.54,-1.99,0.55,-1.96,-0.71,
0.791,-4.99,0.54,-1.99,0.47,-1.96,-0.65,
0.793,-4.85,0.47,-3.29,0.47,-1.96,-0.65,
0.794,-4.85,0.47,-3.29,0.39,-1.95,-0.59,
0.794,-4.85,0.47,-3.29,0.32,-1.93,-0.54,
0.797,-4.85,0.47,-3.29,0.24,-1.90,-0.48,
0.798,-4.85,0.47,-3.29,0.17,-1.86,-0.43,
0.8,-4.85,0.47,-3.29,0.09,-1.81,-0.38,
0.803,-4.22,0.18,-3.80,0.09,-1.81,-0.38,
0.803,-4.22,0.18,-3.80,0.02,-1.75,-0.33,
0.805,-4.22,0.18,-3.80,-0.05,-1.70,-0.28,
0.808,-4.22,0.18,-3.80,-0.15,-1.62,-0.23,
0.809,-4.22,0.18,-3.80,-0.18,-1.58,-0.21,
0.811,-4.22,0.18,-3.80,-0.24,-1.51,-0.19,
0.813,-3.28,0.03,-4.22,-0.24,-1.51,-0.19,
0.813,-3.28,0.03,-4.22,-0.30,-1.43,-0.17,
0.815,-3.28,0.03,-4.22,-0.35,-1.34,-0.15,
0.817,-3.28,0.03,-4.22,-0.39,-1.27,-0.14,
0.819,-3.28,0.03,-4.22,-0.42,-1.21,-0.13,
0.822,-3.28,0.03,-4.22,-0.45,-1.18,-0.12,
0.823,-1.56,0.35,-3.48,-0.45,-1.18,-0.12,
0.823,-1.56,0.35,-3.48,-0.48,-1.19,-0.12,
0.825,-1.56,0.35,-3.48,-0.50,-1.23,-0.13,
0.827,-1.56,0.35,-3.48,-0.51,-1.31,-0.14,
0.829,-1.56,0.35,-3.48,-0.52,-1.40,-0.16,
0.831,-1.56,0.35,-3.48,-0.54,-1.51,-0.18,
0.833,-0.64,0.17,-2.26,-0.54,-1.51,-0.18,
0.834,-0.64,0.17,-2.26,-0.55,-1.63,-0.20,
0.834,-0.64,0.17,-2.26,-0.57,-1.76,-0.22,
0.837,-0.64,0.17,-2.26,-0.59,-1.90,-0.25,
0.839,-0.64,0.17,-2.26,-0.60,-2.05,-0.27,
0.841,-0.64,0.17,-2.26,-0.61,-2.21,-0.30,
0.843,-0.70,0.03,-2.14,-0.61,-2.21,-0.30,
0.843,-0.70,0.03,-2.14,-0.61,-2.37,-0.32,
0.845,-0.70,0.03,-2.14,-0.60,-2.52,-0.33,
0.848,-0.70,0.03,-2.14,-0.59,-2.65,-0.35,
0.849,-0.70,0.03,-2.14,-0.58,-2.77,-0.36,
0.852,-0.70,0.03,-2.14,-0.55,-2.88,-0.38,
0.854,-0.27,-0.04,-1.49,-0.55,-2.88,-0.38,
0.855,-0.27,-0.04,-1.49,-0.53,-2.96,-0.39,
0.856,-0.27,-0.04,-1.49,-0.51,-3.04,-0.41,
0.876,-0.27,-0.04,-1.49,-0.49,-3.10,-0.42,
0.876,-0.27,-0.04,-1.49,-0.46,-3.15,-0.45,
0.876,-0.27,-0.04,-1.49,-0.44,-3.20,-0.47,
0.877,0.47,-0.21,-1.53,-0.44,-3.20,-0.47,
0.877,0.47,-0.21,-1.53,-0.41,-3.24,-0.50,
0.877,0.47,-0.21,-1.53,-0.39,-3.26,-0.52,
0.878,0.47,-0.21,-1.53,-0.36,-3.27,-0.55,
0.878,0.47,-0.21,-1.53,-0.35,-3.27,-0.58,
0.878,0.47,-0.21,-1.53,-0.33,-3.25,-0.61,
0.878,0.20,-0.28,-2.31,-0.33,-3.25,-0.61,
0.879,0.20,-0.28,-2.31,-0.32,-3.21,-0.63,
0.879,0.20,-0.28,-2.31,-0.32,-3.16,-0.65,
0.879,0.20,-0.28,-2.31,-0.33,-3.10,-0.67,
0.879,0.20,-0.28,-2.31,-0.33,-3.02,-0.68,
0.883,0.20,-0.28,-2.31,-0.35,-2.94,-0.69,
0.883,-0.22,-0.07,-3.33,-0.35,-2.94,-0.69,
0.884,-0.22,-0.07,-3.33,-0.38,-2.84,-0.69,
0.885,-0.22,-0.07,-3.33,-0.41,-2.72,-0.68,
0.886,-0.22,-0.07,-3.33,-0.44,-2.60,-0.66,
0.89,-0.22,-0.07,-3.33,-0.47,-2.47,-0.64,
0.891,-0.22,-0.07,-3.33,-0.51,-2.33,-0.61,
0.893,-0.48,0.21,-3.86,-0.51,-2.33,-0.61,
0.894,-0.48,0.21,-3.86,-0.54,-2.18,-0.58,
0.896,-0.48,0.21,-3.86,-0.57,-2.02,-0.53,
0.896,-0.48,0.21,-3.86,-0.59,-1.86,-0.48,
0.898,-0.48,0.21,-3.86,-0.61,-1.72,-0.42,
0.9,-0.48,0.21,-3.86,-0.62,-1.59,-0.35,
0.903,-1.01,1.09,-2.32,-0.62,-1.59,-0.35,
0.903,-1.01,1.09,-2.32,-0.61,-1.48,-0.28,
0.91,-1.01,1.09,-2.32,-0.61,-1.39,-0.22,
0.91,-1.01,1.09,-2.32,-0.59,-1.31,-0.15,
0.911,-1.01,1.09,-2.32,-0.57,-1.26,-0.09,
0.911,-1.01,1.09,-2.32,-0.55,-1.23,-0.03,
0.913,-1.50,1.94,0.59,-0.55,-1.23,-0.03,
0.913,-1.50,1.94,0.59,-0.52,-1.23,0.02,
0.915,-1.50,1.94,0.59,-0.49,-1.24,0.06,
0.917,-1.50,1.94,0.59,-0.46,-1.27,0.09,
0.919,-1.50,1.94,0.59,-0.43,-1.31,0.12,
0.921,-1.50,1.94,0.59,-0.40,-1.38,0.15,
0.942,-1.36,1.80,2.53,-0.40,-1.38,0.15,
0.943,-1.36,1.80,2.53,-0.38,-1.46,0.16,
0.943,-1.36,1.80,2.53,-0.38,-1.56,0.18,
0.943,-1.36,1.80,2.53,-0.38,-1.66,0.19,
0.943,-1.36,1.80,2.53,-0.39,-1.77,0.19,
0.943,-1.36,1.80,2.53,-0.41,-1.87,0.20,
0.943,-0.73,0.86,1.65,-0.41,-1.87,0.20,
0.944,-0.73,0.86,1.65,-0.44,-1.96,0.20,
0.944,-0.73,0.86,1.65,-0.48,-2.03,0.19,
0.944,-0.73,0.86,1.65,-0.53,-2.09,0.18,
0.944,-0.73,0.86,1.65,-0.59,-2.15,0.18,
0.944,-0.73,0.86,1.65,-0.67,-2.19,0.17,
0.944,-0.01,-0.23,-1.19,-0.67,-2.19,0.17,
0.944,-0.01,-0.23,-1.19,-0.77,-2.22,0.17,
0.945,-0.01,-0.23,-1.19,-0.87,-2.22,0.16,
0.946,-0.01,-0.23,-1.19,-0.97,-2.18,0.16,
0.949,-0.01,-0.23,-1.19,-1.07,-2.09,0.15,
0.95,-0.01,-0.23,-1.19,-1.15,-1.97,0.14,
0.953,0.47,-0.19,-3.21,-1.15,-1.97,0.14,
0.953,0.47,-0.19,-3.21,-1.23,-1.84,0.13,
0.956,0.47,-0.19,-3.21,-1.30,-1.70,0.12,
0.957,0.47,-0.19,-3.21,-1.36,-1.58,0.11,
0.959,0.47,-0.19,-3.21,-1.41,-1.47,0.10,
0.961,0.47,-0.19,-3.21,-1.45,-1.38,0.08,
0.963,0.98,0.45,-3.25,-1.45,-1.38,0.08,
0.963,0.98,0.45,-3.25,-1.49,-1.31,0.05,
0.964,0.98,0.45,-3.25,-1.53,-1.27,0.02,
0.966,0.98,0.45,-3.25,-1.56,-1.24,-0.03,
0.968,0.98,0.45,-3.25,-1.59,-1.21,-0.09,
0.97,0.98,0.45,-3.25,-1.62,-1.17,-0.14,
0.973,2.06,0.42,-3.04,-1.62,-1.17,-0.14,
0.973,2.06,0.42,-3.04,-1.64,-1.13,-0.20,
0.974,2.06,0.42,-3.04,-1.67,-1.08,-0.25,
0.977,2.06,0.42,-3.04,-1.69,-1.02,-0.29,
0.979,2.06,0.42,-3.04,-1.72,-0.95,-0.32,
0.98,2.06,0.42,-3.04,-1.74,-0.88,-0.34,
0.983,1.31,0.76,-2.50,-1.74,-0.88,-0.34,
0.983,1.31,0.76,-2.50,-1.76,-0.80,-0.35,
0.985,1.31,0.76,-2.50,-1.79,-0.74,-0.35,
0.991,1.31,0.76,-2.50,-1.88,-0.65,-0.32,
0.991,1.31,0.76,-2.50,-1.88,-0.65,-0.32,
0.991,1.31,0.76,-2.50,-1.88,-0.65,-0.32,
0.993,1.31,0.76,-2.50,-1.92,-0.62,-0.30,
0.994,0.54,0.89,-1.71,-1.92,-0.62,-0.30,
0.995,0.54,0.89,-1.71,-1.95,-0.58,-0.27,
0.997,0.54,0.89,-1.71,-1.97,-0.53,-0.24,
0.998,0.54,0.89,-1.71,-1.99,-0.48,-0.21,
1.0,0.54,0.89,-1.71,-1.99,-0.43,-0.17,
1.003,-0.63,0.74,-0.20,-1.99,-0.43,-0.17,
1.003,-0.63,0.74,-0.20,-1.99,-0.37,-0.14,
1.017,-0.63,0.74,-0.20,-1.97,-0.33,-0.11,
1.018,-0.63,0.74,-0.20,-1.94,-0.31,-0.09,
1.018,-0.63,0.74,-0.20,-1.91,-0.31,-0.07,
1.018,-0.63,0.74,-0.20,-1.86,-0.33,-0.05,
1.018,-1.81,0.28,1.59,-1.86,-0.33,-0.05,
1.018,-1.81,0.28,1.59,-1.81,-0.38,-0.05,
1.019,-1.81,0.28,1.59,-1.75,-0.46,-0.04,
1.019,-1.81,0.28,1.59,-1.69,-0.54,-0.05,
1.019,-1.81,0.28,1.59,-1.61,-0.63,-0.06,
1.021,-1.81,0.28,1.59,-1.54,-0.70,-0.07,
1.05,-1.28,-0.51,2.58,-1.54,-0.70,-0.07,
1.07,-1.28,-0.51,2.58,-1.46,-0.74,-0.08,
1.07,-1.28,-0.51,2.58,-1.38,-0.76,-0.10,
1.071,-1.28,-0.51,2.58,-1.30,-0.74,-0.12,
1.071,-1.28,-0.51,2.58,-1.21,-0.70,-0.13,
1.071,-1.28,-0.51,2.58,-1.12,-0.65,-0.15,
1.071,-0.67,-0.78,2.73,-1.12,-0.65,-0.15,
1.071,-0.67,-0.78,2.73,-1.03,-0.58,-0.16,
1.072,-0.67,-0.78,2.73,-0.94,-0.52,-0.18,
1.072,-0.67,-0.78,2.73,-0.85,-0.44,-0.18,
1.072,-0.67,-0.78,2.73,-0.75,-0.35,-0.19,
1.072,-0.67,-0.78,2.73,-0.66,-0.26,-0.18,
1.072,-0.82,-0.65,2.30,-0.66,-0.26,-0.18,
1.073,-0.82,-0.65,2.30,-0.56,-0.15,-0.16,
1.073,-0.82,-0.65,2.30,-0.46,-0.04,-0.14,
1.073,-0.82,-0.65,2.30,-0.36,0.09,-0.11,
1.073,-0.82,-0.65,2.30,-0.27,0.21,-0.07,
1.074,-0.82,-0.65,2.30,-0.17,0.34,-0.03,
1.074,-1.64,-0.40,2.16,-0.17,0.34,-0.03,
1.074,-1.64,-0.40,2.16,-0.08,0.47,0.02,
1.074,-1.64,-0.40,2.16,0.00,0.57,0.06,
1.075,-1.64,-0.40,2.16,0.07,0.67,0.10,
1.075,-1.64,-0.40,2.16,0.13,0.74,0.14,
1.075,-1.64,-0.40,2.16,0.18,0.80,0.16,
1.075,-0.62,-0.10,0.69,0.18,0.80,0.16,
1.075,-0.62,-0.10,0.69,0.20,0.83,0.18,
1.076,-0.62,-0.10,0.69,0.21,0.84,0.18,
1.076,-0.62,-0.10,0.69,0.20,0.83,0.17,
1.076,-0.62,-0.10,0.69,0.17,0.81,0.15,
1.076,-0.62,-0.10,0.69,0.13,0.79,0.13,
1.076,1.32,-0.76,-1.84,0.13,0.79,0.13,
1.077,1.32,-0.76,-1.84,0.08,0.79,0.09,
1.077,1.32,-0.76,-1.84,0.03,0.79,0.05,
1.077,1.32,-0.76,-1.84,-0.03,0.80,0.01,
1.087,1.32,-0.76,-1.84,-0.09,0.80,-0.04,
1.088,1.32,-0.76,-1.84,-0.16,0.82,-0.08,
1.088,1.29,-1.23,-2.42,-0.16,0.82,-0.08,
1.089,1.29,-1.23,-2.42,-0.23,0.82,-0.13,
1.089,1.29,-1.23,-2.42,-0.30,0.82,-0.18,
1.089,1.29,-1.23,-2.42,-0.38,0.81,-0.23,
1.091,1.29,-1.23,-2.42,-0.46,0.78,-0.29,
1.092,1.29,-1.23,-2.42,-0.54,0.73,-0.35,
1.103,1.23,-2.28,-2.40,-0.54,0.73,-0.35,
1.104,1.23,-2.28,-2.40,-0.62,0.66,-0.41,
1.104,1.23,-2.28,-2.40,-0.70,0.59,-0.48,
1.105,1.23,-2.28,-2.40,-0.78,0.51,-0.55,
1.105,1.23,-2.28,-2.40,-0.84,0.44,-0.63,
1.105,1.23,-2.28,-2.40,-0.90,0.36,-0.71,
1.105,1.62,-3.03,-1.46,-0.90,0.36,-0.71,
1.119,1.62,-3.03,-1.46,-0.96,0.30,-0.78,
1.119,1.62,-3.03,-1.46,-1.00,0.24,-0.85,
1.12,1.62,-3.03,-1.46,-1.04,0.20,-0.91,
1.12,1.62,-3.03,-1.46,-1.07,0.16,-0.95,
1.12,1.62,-3.03,-1.46,-1.10,0.12,-0.99,
1.12,0.44,-2.56,-0.53,-1.10,0.12,-0.99,
1.12,0.44,-2.56,-0.53,-1.12,0.09,-1.01,
1.121,0.44,-2.56,-0.53,-1.14,0.06,-1.03,
1.121,0.44,-2.56,-0.53,-1.16,0.02,-1.03,
1.121,0.44,-2.56,-0.53,-1.17,-0.02,-1.03,
1.121,0.44,-2.56,-0.53,-1.17,-0.06,-1.03,
1.136,-0.96,-1.59,-0.12,-1.17,-0.06,-1.03,
1.136,-0.96,-1.59,-0.12,-1.18,-0.11,-1.02,
1.137,-0.96,-1.59,-0.12,-1.19,-0.14,-1.00,
1.137,-0.96,-1.59,-0.12,-1.20,-0.17,-0.98,
1.137,-0.96,-1.59,-0.12,-1.21,-0.20,-0.95,
1.137,-0.96,-1.59,-0.12,-1.22,-0.23,-0.92,
1.137,-1.83,-0.69,-0.27,-1.22,-0.23,-0.92,
1.137,-1.83,-0.69,-0.27,-1.23,-0.27,-0.89,
1.138,-1.83,-0.69,-0.27,-1.24,-0.29,-0.86,
1.138,-1.83,-0.69,-0.27,-1.25,-0.33,-0.83,
1.14,-1.83,-0.69,-0.27,-1.26,-0.36,-0.81,
1.141,-1.83,-0.69,-0.27,-1.27,-0.39,-0.78,
1.143,-1.43,-0.33,-0.41,-1.27,-0.39,-0.78,
1.143,-1.43,-0.33,-0.41,-1.28,-0.41,-0.76,
1.145,-1.43,-0.33,-0.41,-1.29,-0.41,-0.74,
1.147,-1.43,-0.33,-0.41,-1.31,-0.42,-0.72,
1.149,-1.43,-0.33,-0.41,-1.32,-0.42,-0.71,
1.153,-1.43,-0.33,-0.41,-1.33,-0.41,-0.69,
1.153,-0.73,-0.54,-0.80,-1.33,-0.41,-0.69,
1.153,-0.73,-0.54,-0.80,-1.34,-0.39,-0.67,
1.156,-0.73,-0.54,-0.80,-1.35,-0.37,-0.65,
1.159,-0.73,-0.54,-0.80,-1.37,-0.32,-0.62,
1.159,-0.73,-0.54,-0.80,-1.37,-0.30,-0.61,
1.161,-0.73,-0.54,-0.80,-1.37,-0.29,-0.61,
1.163,-0.22,-0.44,-0.51,-1.37,-0.29,-0.61,
1.163,-0.22,-0.44,-0.51,-1.38,-0.25,-0.59,
1.164,-0.22,-0.44,-0.51,-1.38,-0.22,-0.57,
1.167,-0.22,-0.44,-0.51,-1.38,-0.19,-0.55,
1.169,-0.22,-0.44,-0.51,-1.39,-0.17,-0.54,
1.181,-0.22,-0.44,-0.51,-1.39,-0.14,-0.53,
1.181,0.34,-0.58,0.13,-1.39,-0.14,-0.53,
1.182,0.34,-0.58,0.13,-1.39,-0.10,-0.52,
1.182,0.34,-0.58,0.13,-1.39,-0.06,-0.51,
1.182,0.34,-0.58,0.13,-1.39,-0.02,-0.51,
1.182,0.34,-0.58,0.13,-1.38,0.03,-0.51,
1.182,0.34,-0.58,0.13,-1.38,0.08,-0.52,
1.183,0.91,-0.86,1.02,-1.38,0.08,-0.52,
1.183,0.91,-0.86,1.02,-1.37,0.13,-0.52,
1.184,0.91,-0.86,1.02,-1.36,0.18,-0.53,
1.207,0.91,-0.86,1.02,-1.35,0.23,-0.53,
1.207,0.91,-0.86,1.02,-1.33,0.30,-0.53,
1.22,0.91,-0.86,1.02,-1.31,0.36,-0.54,
1.22,0.97,-1.14,2.23,-1.31,0.36,-0.54,
1.22,0.97,-1.14,2.23,-1.29,0.42,-0.55,
1.221,0.97,-1.14,2.23,-1.27,0.46,-0.56,
1.221,0.97,-1.14,2.23,-1.25,0.48,-0.57,
1.221,0.97,-1.14,2.23,-1.24,0.47,-0.60,
1.221,0.97,-1.14,2.23,-1.23,0.44,-0.62,
1.221,1.66,-1.72,2.61,-1.23,0.44,-0.62,
1.222,1.66,-1.72,2.61,-1.22,0.40,-0.65,
1.222,1.66,-1.72,2.61,-1.22,0.36,-0.68,
1.222,1.66,-1.72,2.61,-1.23,0.33,-0.71,
1.222,1.66,-1.72,2.61,-1.24,0.29,-0.73,
1.222,1.66,-1.72,2.61,-1.25,0.25,-0.75,
1.222,0.92,-1.50,1.71,-1.25,0.25,-0.75,
1.223,0.92,-1.50,1.71,-1.27,0.22,-0.77,
1.223,0.92,-1.50,1.71,-1.29,0.16,-0.78,
1.223,0.92,-1.50,1.71,-1.31,0.08,-0.80,
1.223,0.92,-1.50,1.71,-1.32,-0.06,-0.82,
1.223,0.92,-1.50,1.71,-1.32,-0.22,-0.86,
1.223,0.15,-0.53,2.47,-1.32,-0.22,-0.86,
1.224,0.15,-0.53,2.47,-1.33,-0.32,-0.90,
1.229,0.15,-0.53,2.47,-1.36,-0.38,-0.94,
1.23,0.15,-0.53,2.47,-1.40,-0.43,-0.96,
1.23,0.15,-0.53,2.47,-1.45,-0.49,-0.99,
1.23,0.15,-0.53,2.47,-1.49,-0.56,-0.99,
1.233,-0.38,0.31,1.22,-1.49,-0.56,-0.99,
1.233,-0.38,0.31,1.22,-1.51,-0.67,-1.00,
1.235,-0.38,0.31,1.22,-1.51,-0.82,-1.01,
1.237,-0.38,0.31,1.22,-1.51,-0.93,-1.03,
1.239,-0.38,0.31,1.22,-1.52,-0.99,-1.04,
1.241,-0.38,0.31,1.22,-1.53,-1.03,-1.04,
1.243,-0.71,0.70,1.95,-1.53,-1.03,-1.04,
1.243,-0.71,0.70,1.95,-1.54,-1.12,-1.03,
1.246,-0.71,0.70,1.95,-1.54,-1.23,-1.02,
1.247,-0.71,0.70,1.95,-1.54,-1.30,-1.01,
1.249,-0.71,0.70,1.95,-1.55,-1.31,-1.00,
1.251,-0.71,0.70,1.95,-1.55,-1.33,-0.98,
1.257,-0.99,1.28,1.22,-1.55,-1.33,-0.98,
1.257,-0.99,1.28,1.22,-1.55,-1.38,-0.95,
1.258,-0.99,1.28,1.22,-1.53,-1.52,-0.92,
1.258,-0.99,1.28,1.22,-1.48,-1.69,-0.89,
1.258,-0.99,1.28,1.22,-1.42,-1.80,-0.88,
1.261,-0.99,1.28,1.22,-1.35,-1.88,-0.87,
1.263,-1.02,1.56,3.27,-1.35,-1.88,-0.87,
1.263,-1.02,1.56,3.27,-1.29,-1.93,-0.85,
1.265,-1.02,1.56,3.27,-1.22,-1.96,-0.82,
1.267,-1.02,1.56,3.27,-1.15,-1.99,-0.78,
1.269,-1.02,1.56,3.27,-1.07,-2.01,-0.75,
1.276,-1.02,1.56,3.27,-1.00,-2.02,-0.71,
1.276,-0.97,2.45,3.44,-1.00,-2.02,-0.71,
1.277,-0.97,2.45,3.44,-0.91,-2.03,-0.66,
1.277,-0.97,2.45,3.44,-0.82,-2.03,-0.61,
1.277,-0.97,2.45,3.44,-0.73,-2.03,-0.56,
1.279,-0.97,2.45,3.44,-0.63,-2.03,-0.51,
1.281,-0.97,2.45,3.44,-0.53,-2.02,-0.45,
1.283,-0.49,2.22,2.95,-0.53,-2.02,-0.45,
1.283,-0.49,2.22,2.95,-0.44,-2.01,-0.40,
1.285,-0.49,2.22,2.95,-0.36,-1.99,-0.34,
1.292,-0.49,2.22,2.95,-0.27,-1.97,-0.29,
1.293,-0.49,2.22,2.95,-0.19,-1.92,-0.25,
1.293,-0.49,2.22,2.95,-0.12,-1.87,-0.20,
1.293,0.07,1.56,1.61,-0.12,-1.87,-0.20,
1.293,0.07,1.56,1.61,-0.06,-1.81,-0.17,
1.294,0.07,1.56,1.61,0.01,-1.74,-0.15,
1.297,0.07,1.56,1.61,0.06,-1.68,-0.13,
1.298,0.07,1.56,1.61,0.11,-1.61,-0.12,
1.301,0.07,1.56,1.61,0.16,-1.52,-0.12,
1.309,1.05,0.78,0.15,0.16,-1.52,-0.12,
1.309,1.05,0.78,0.15,0.21,-1.44,-0.12,
1.309,1.05,0.78,0.15,0.25,-1.34,-0.13,
1.309,1.05,0.78,0.15,0.29,-1.24,-0.13,
1.309,1.05,0.78,0.15,0.31,-1.14,-0.14,
1.31,1.05,0.78,0.15,0.33,-1.03,-0.14,
1.313,1.33,-0.02,-1.10,0.33,-1.03,-0.14,
1.313,1.33,-0.02,-1.10,0.33,-0.94,-0.14,
1.315,1.33,-0.02,-1.10,0.32,-0.85,-0.13,
1.317,1.33,-0.02,-1.10,0.31,-0.76,-0.12,
1.318,1.33,-0.02,-1.10,0.29,-0.67,-0.09,
1.324,1.33,-0.02,-1.10,0.28,-0.61,-0.07,
1.324,0.93,-0.09,-1.42,0.28,-0.61,-0.07,
1.324,0.93,-0.09,-1.42,0.26,-0.56,-0.04,
1.324,0.93,-0.09,-1.42,0.25,-0.52,-0.02,
1.326,0.93,-0.09,-1.42,0.23,-0.51,-0.01,
1.329,0.93,-0.09,-1.42,0.22,-0.52,-0.02,
1.33,0.93,-0.09,-1.42,0.20,-0.52,-0.02,
1.333,1.23,-0.19,-0.38,0.20,-0.52,-0.02,
1.334,1.23,-0.19,-0.38,0.19,-0.49,-0.03,
1.335,1.23,-0.19,-0.38,0.20,-0.45,-0.04,
1.34,1.23,-0.19,-0.38,0.22,-0.42,-0.06,
1.341,1.23,-0.19,-0.38,0.25,-0.42,-0.09,
1.341,1.23,-0.19,-0.38,0.28,-0.48,-0.15,
1.343,2.88,0.09,2.88,0.28,-0.48,-0.15,
1.343,2.88,0.09,2.88,0.31,-0.61,-0.23,
1.345,2.88,0.09,2.88,0.33,-0.78,-0.35,
1.347,2.88,0.09,2.88,0.32,-0.96,-0.47,
1.349,2.88,0.09,2.88,0.30,-1.13,-0.59,
1.351,2.88,0.09,2.88,0.27,-1.28,-0.68,
1.361,4.17,-0.36,1.78,0.27,-1.28,-0.68,
1.361,4.17,-0.36,1.78,0.24,-1.42,-0.74,
1.362,4.17,-0.36,1.78,0.21,-1.55,-0.77,
1.392,4.17,-0.36,1.78,0.18,-1.67,-0.78,
1.392,4.17,-0.36,1.78,0.16,-1.75,-0.78,
1.393,4.17,-0.36,1.78,0.14,-1.81,-0.76,
1.393,0.52,0.04,1.76,0.14,-1.81,-0.76,
1.393,0.52,0.04,1.76,0.12,-1.86,-0.73,
1.394,0.52,0.04,1.76,0.11,-1.89,-0.70,
1.394,0.52,0.04,1.76,0.10,-1.91,-0.67,
1.395,0.52,0.04,1.76,0.09,-1.93,-0.64,
1.395,0.52,0.04,1.76,0.08,-1.96,-0.60,
1.395,-0.55,0.92,1.54,0.08,-1.96,-0.60,
1.396,-0.55,0.92,1.54,0.08,-1.98,-0.57,
1.396,-0.55,0.92,1.54,0.08,-2.01,-0.54,
1.397,-0.55,0.92,1.54,0.08,-2.04,-0.52,
1.397,-0.55,0.92,1.54,0.08,-2.06,-0.49,
1.397,-0.55,0.92,1.54,0.09,-2.07,-0.47,
1.398,-0.73,1.34,1.19,0.09,-2.07,-0.47,
1.398,-0.73,1.34,1.19,0.10,-2.08,-0.45,
1.399,-0.73,1.34,1.19,0.10,-2.07,-0.43,
1.399,-0.73,1.34,1.19,0.11,-2.05,-0.42,
1.399,-0.73,1.34,1.19,0.12,-2.01,-0.40,
1.4,-0.73,1.34,1.19,0.12,-1.96,-0.37,
1.4,-0.75,1.59,0.18,0.12,-1.96,-0.37,
1.401,-0.75,1.59,0.18,0.13,-1.91,-0.35,
1.401,-0.75,1.59,0.18,0.13,-1.85,-0.32,
1.401,-0.75,1.59,0.18,0.13,-1.78,-0.28,
1.402,-0.75,1.59,0.18,0.13,-1.71,-0.24,
1.402,-0.75,1.59,0.18,0.12,-1.65,-0.20,
1.425,-1.18,2.00,-1.23,0.12,-1.65,-0.20,
1.425,-1.18,2.00,-1.23,0.11,-1.59,-0.16,
1.425,-1.18,2.00,-1.23,0.09,-1.54,-0.12,
1.425,-1.18,2.00,-1.23,0.08,-1.49,-0.08,
1.426,-1.18,2.00,-1.23,0.06,-1.43,-0.05,
1.426,-1.18,2.00,-1.23,0.04,-1.38,-0.02,
1.426,-1.34,1.93,-2.24,0.04,-1.38,-0.02,
1.426,-1.34,1.93,-2.24,0.02,-1.32,0.00,
1.427,-1.34,1.93,-2.24,0.00,-1.26,0.02,
1.427,-1.34,1.93,-2.24,-0.01,-1.21,0.04,
1.427,-1.34,1.93,-2.24,-0.03,-1.16,0.05,
1.427,-1.34,1.93,-2.24,-0.03,-1.12,0.05,
1.428,-1.39,1.67,-2.42,-0.03,-1.12,0.05,
1.428,-1.39,1.67,-2.42,-0.04,-1.08,0.06,
1.443,-1.39,1.67,-2.42,-0.05,-1.05,0.06,
1.444,-1.39,1.67,-2.42,-0.05,-1.03,0.07,
1.444,-1.39,1.67,-2.42,-0.05,-1.02,0.07,
1.444,-1.39,1.67,-2.42,-0.06,-1.02,0.08,
1.444,-1.53,1.29,-2.15,-0.06,-1.02,0.08,
1.445,-1.53,1.29,-2.15,-0.06,-1.03,0.09,
1.445,-1.53,1.29,-2.15,-0.07,-1.05,0.10,
1.445,-1.53,1.29,-2.15,-0.07,-1.08,0.11,
1.445,-1.53,1.29,-2.15,-0.08,-1.10,0.11,
1.445,-1.53,1.29,-2.15,-0.10,-1.12,0.12,
1.446,-1.21,0.98,-1.95,-0.10,-1.12,0.12,
1.446,-1.21,0.98,-1.95,-0.11,-1.14,0.12,
1.446,-1.21,0.98,-1.95,-0.14,-1.16,0.12,
1.45,-1.21,0.98,-1.95,-0.16,-1.17,0.12,
1.45,-1.21,0.98,-1.95,-0.19,-1.18,0.11,
1.459,-1.21,0.98,-1.95,-0.22,-1.18,0.09,
1.46,-0.80,0.36,-2.63,-0.22,-1.18,0.09,
1.46,-0.80,0.36,-2.63,-0.24,-1.18,0.07,
1.46,-0.80,0.36,-2.63,-0.27,-1.18,0.04,
1.46,-0.80,0.36,-2.63,-0.30,-1.18,0.01,
1.46,-0.80,0.36,-2.63,-0.34,-1.16,-0.02,
1.461,-0.80,0.36,-2.63,-0.36,-1.15,-0.05,
1.463,-0.71,-0.03,-2.82,-0.36,-1.15,-0.05,
1.463,-0.71,-0.03,-2.82,-0.39,-1.13,-0.07,
1.465,-0.71,-0.03,-2.82,-0.42,-1.13,-0.08,
1.467,-0.71,-0.03,-2.82,-0.45,-1.12,-0.08,
1.477,-0.71,-0.03,-2.82,-0.47,-1.12,-0.08,
1.477,-0.71,-0.03,-2.82,-0.49,-1.13,-0.07,
1.478,-1.79,-0.71,-2.21,-0.49,-1.13,-0.07,
1.478,-1.79,-0.71,-2.21,-0.51,-1.13,-0.07,
1.478,-1.79,-0.71,-2.21,-0.52,-1.13,-0.07,
1.478,-1.79,-0.71,-2.21,-0.52,-1.14,-0.06,
1.478,-1.79,-0.71,-2.21,-0.53,-1.15,-0.06,
1.481,-1.79,-0.71,-2.21,-0.53,-1.16,-0.05,
1.483,-2.47,-0.96,-0.74,-0.53,-1.16,-0.05,
1.483,-2.47,-0.96,-0.74,-0.52,-1.18,-0.05,
1.507,-2.47,-0.96,-0.74,-0.52,-1.20,-0.05,
1.507,-2.47,-0.96,-0.74,-0.52,-1.22,-0.05,
1.507,-2.47,-0.96,-0.74,-0.52,-1.25,-0.05,
1.507,-2.47,-0.96,-0.74,-0.52,-1.29,-0.05,
1.507,-2.32,-1.43,0.15,-0.52,-1.29,-0.05,
1.508,-2.32,-1.43,0.15,-0.54,-1.33,-0.06,
1.508,-2.32,-1.43,0.15,-0.57,-1.37,-0.07,
1.508,-2.32,-1.43,0.15,-0.60,-1.41,-0.09,
1.508,-2.32,-1.43,0.15,-0.65,-1.44,-0.10,
1.508,-2.32,-1.43,0.15,-0.69,-1.45,-0.13,
1.509,-1.30,-2.38,-0.31,-0.69,-1.45,-0.13,
1.509,-1.30,-2.38,-0.31,-0.74,-1.46,-0.15,
1.509,-1.30,-2.38,-0.31,-0.78,-1.46,-0.18,
1.539,-1.30,-2.38,-0.31,-0.86,-1.44,-0.23,
1.54,-1.30,-2.38,-0.31,-0.87,-1.44,-0.24,
1.54,-1.30,-2.38,-0.31,-0.89,-1.44,-0.26,
1.54,-0.91,-3.92,-0.25,-0.89,-1.44,-0.26,
1.541,-0.91,-3.92,-0.25,-0.91,-1.45,-0.28,
1.541,-0.91,-3.92,-0.25,-0.93,-1.48,-0.31,
1.541,-0.91,-3.92,-0.25,-0.94,-1.53,-0.33,
1.541,-0.91,-3.92,-0.25,-0.94,-1.57,-0.35,
1.542,-0.91,-3.92,-0.25,-0.93,-1.61,-0.36,
1.542,-0.51,-5.39,-0.61,-0.93,-1.61,-0.36,
1.561,-0.51,-5.39,-0.61,-0.92,-1.63,-0.37,
1.561,-0.51,-5.39,-0.61,-0.90,-1.64,-0.38,
1.561,-0.51,-5.39,-0.61,-0.88,-1.65,-0.39,
1.562,-0.51,-5.39,-0.61,-0.84,-1.65,-0.41,
1.562,-0.51,-5.39,-0.61,-0.80,-1.65,-0.42,
1.562,0.28,-6.44,-1.38,-0.80,-1.65,-0.42,
1.562,0.28,-6.44,-1.38,-0.75,-1.66,-0.43,
1.563,0.28,-6.44,-1.38,-0.69,-1.67,-0.43,
1.563,0.28,-6.44,-1.38,-0.64,-1.69,-0.43,
1.563,0.28,-6.44,-1.38,-0.58,-1.70,-0.41,
1.563,0.28,-6.44,-1.38,-0.51,-1.71,-0.38,
1.563,0.53,-5.81,-1.66,-0.51,-1.71,-0.38,
1.564,0.53,-5.81,-1.66,-0.45,-1.71,-0.35,
1.564,0.53,-5.81,-1.66,-0.38,-1.70,-0.30,
1.564,0.53,-5.81,-1.66,-0.32,-1.69,-0.24,
1.564,0.53,-5.81,-1.66,-0.26,-1.65,-0.18,
1.564,0.53,-5.81,-1.66,-0.20,-1.60,-0.11,
1.565,-0.28,-4.87,-2.07,-0.20,-1.60,-0.11,
1.565,-0.28,-4.87,-2.07,-0.14,-1.54,-0.04,
1.565,-0.28,-4.87,-2.07,-0.08,-1.48,0.03,
1.565,-0.28,-4.87,-2.07,-0.04,-1.41,0.10,
1.565,-0.28,-4.87,-2.07,0.00,-1.35,0.17,
1.566,-0.28,-4.87,-2.07,0.03,-1.29,0.23,
1.566,-0.39,-4.22,-2.25,0.03,-1.29,0.23,
1.566,-0.39,-4.22,-2.25,0.05,-1.23,0.28,
1.566,-0.39,-4.22,-2.25,0.06,-1.18,0.32,
1.566,-0.39,-4.22,-2.25,0.07,-1.11,0.36,
1.576,-0.39,-4.22,-2.25,0.08,-1.04,0.38,
1.576,-0.39,-4.22,-2.25,0.08,-0.96,0.40,
1.576,-0.19,-4.67,-1.75,0.08,-0.96,0.40,
1.577,-0.19,-4.67,-1.75,0.09,-0.89,0.42,
1.577,-0.19,-4.67,-1.75,0.09,-0.81,0.42,
1.577,-0.19,-4.67,-1.75,0.10,-0.74,0.42,
1.578,-0.19,-4.67,-1.75,0.10,-0.66,0.41,
1.581,-0.19,-4.67,-1.75,0.11,-0.59,0.39,
1.585,0.46,-4.67,-0.35,0.11,-0.59,0.39,
1.585,0.46,-4.67,-0.35,0.12,-0.50,0.38,
1.585,0.46,-4.67,-0.35,0.13,-0.41,0.35,
1.59,0.46,-4.67,-0.35,0.14,-0.32,0.34,
1.59,0.46,-4.67,-0.35,0.16,-0.23,0.32,
1.591,0.46,-4.67,-0.35,0.19,-0.14,0.31,
1.594,0.48,-3.87,1.28,0.19,-0.14,0.31,
1.594,0.48,-3.87,1.28,0.21,-0.05,0.30,
1.595,0.48,-3.87,1.28,0.23,0.03,0.30,
1.597,0.48,-3.87,1.28,0.26,0.11,0.29,
1.599,0.48,-3.87,1.28,0.29,0.19,0.28,
1.611,0.48,-3.87,1.28,0.31,0.25,0.27,
1.612,0.68,-2.36,2.49,0.31,0.25,0.27,
1.612,0.68,-2.36,2.49,0.33,0.31,0.25,
1.612,0.68,-2.36,2.49,0.34,0.34,0.22,
1.612,0.68,-2.36,2.49,0.35,0.37,0.18,
1.612,0.68,-2.36,2.49,0.36,0.37,0.14,
1.613,0.68,-2.36,2.49,0.36,0.37,0.08,
1.613,2.03,-1.41,2.66,0.36,0.37,0.08,
1.613,2.03,-1.41,2.66,0.35,0.34,0.03,
1.615,2.03,-1.41,2.66,0.33,0.31,-0.03,
1.617,2.03,-1.41,2.66,0.31,0.28,-0.10,
1.634,2.03,-1.41,2.66,0.27,0.23,-0.17,
1.635,2.03,-1.41,2.66,0.24,0.18,-0.25,
1.635,3.58,-0.53,1.80,0.24,0.18,-0.25,
1.636,3.58,-0.53,1.80,0.19,0.12,-0.33,
1.636,3.58,-0.53,1.80,0.14,0.06,-0.40,
1.636,3.58,-0.53,1.80,0.09,0.02,-0.46,
1.636,3.58,-0.53,1.80,0.04,-0.03,-0.53,
1.637,3.58,-0.53,1.80,-0.01,-0.08,-0.58,
1.637,3.84,1.41,1.40,-0.01,-0.08,-0.58,
1.637,3.84,1.41,1.40,-0.05,-0.13,-0.61,
1.637,3.84,1.41,1.40,-0.08,-0.20,-0.63,
1.638,3.84,1.41,1.40,-0.11,-0.28,-0.64,
1.64,3.84,1.41,1.40,-0.12,-0.36,-0.64,
1.642,3.84,1.41,1.40,-0.13,-0.44,-0.64,
1.643,3.05,3.40,1.90,-0.13,-0.44,-0.64,
1.644,3.05,3.40,1.90,-0.13,-0.51,-0.65,
1.645,3.05,3.40,1.90,-0.12,-0.57,-0.65,
1.647,3.05,3.40,1.90,-0.12,-0.61,-0.66,
1.649,3.05,3.40,1.90,-0.10,-0.64,-0.68,
1.652,3.05,3.40,1.90,-0.09,-0.66,-0.71,
1.657,3.39,4.85,1.34,-0.09,-0.66,-0.71,
1.657,3.39,4.85,1.34,-0.08,-0.66,-0.74,
1.658,3.39,4.85,1.34,-0.07,-0.65,-0.77,
1.658,3.39,4.85,1.34,-0.06,-0.62,-0.79,
1.659,3.39,4.85,1.34,-0.05,-0.57,-0.81,
1.661,3.39,4.85,1.34,-0.03,-0.51,-0.81,
1.663,2.80,5.90,0.00,-0.03,-0.51,-0.81,
1.664,2.80,5.90,0.00,-0.02,-0.44,-0.81,
1.665,2.80,5.90,0.00,0.00,-0.37,-0.80,
1.668,2.80,5.90,0.00,0.03,-0.29,-0.78,
1.67,2.80,5.90,0.00,0.05,-0.21,-0.74,
1.671,2.80,5.90,0.00,0.08,-0.12,-0.71,
1.674,1.15,7.13,-0.55,0.08,-0.12,-0.71,
1.674,1.15,7.13,-0.55,0.11,-0.03,-0.66,
1.675,1.15,7.13,-0.55,0.14,0.06,-0.61,
1.679,1.15,7.13,-0.55,0.16,0.15,-0.57,
1.681,1.15,7.13,-0.55,0.18,0.23,-0.52,
1.682,1.15,7.13,-0.55,0.20,0.30,-0.47,
1.683,-0.65,7.61,-0.89,0.20,0.30,-0.47,
1.683,-0.65,7.61,-0.89,0.21,0.35,-0.42,
1.685,-0.65,7.61,-0.89,0.21,0.38,-0.36,
1.687,-0.65,7.61,-0.89,0.20,0.38,-0.31,
1.689,-0.65,7.61,-0.89,0.20,0.38,-0.25,
1.706,-0.65,7.61,-0.89,0.19,0.37,-0.20,
1.706,-1.70,7.66,-0.63,0.19,0.37,-0.20,
1.706,-1.70,7.66,-0.63,0.17,0.34,-0.14,
1.707,-1.70,7.66,-0.63,0.15,0.31,-0.10,
1.707,-1.70,7.66,-0.63,0.13,0.27,-0.07,
1.707,-1.70,7.66,-0.63,0.10,0.21,-0.04,
1.707,-1.70,7.66,-0.63,0.07,0.14,-0.03,
1.707,-2.56,6.32,-0.56,0.07,0.14,-0.03,
1.708,-2.56,6.32,-0.56,0.02,0.06,-0.04,
1.708,-2.56,6.32,-0.56,-0.04,-0.02,-0.06,
1.708,-2.56,6.32,-0.56,-0.11,-0.12,-0.08,
1.717,-2.56,6.32,-0.56,-0.18,-0.22,-0.12,
1.718,-2.56,6.32,-0.56,-0.26,-0.30,-0.15,
1.718,-2.61,4.94,-1.14,-0.26,-0.30,-0.15,
1.718,-2.61,4.94,-1.14,-0.35,-0.39,-0.18,
1.719,-2.61,4.94,-1.14,-0.44,-0.46,-0.21,
1.719,-2.61,4.94,-1.14,-0.52,-0.53,-0.24,
1.722,-2.61,4.94,-1.14,-0.60,-0.58,-0.26,
1.727,-2.61,4.94,-1.14,-0.66,-0.62,-0.28,
1.727,-3.64,3.41,-0.76,-0.66,-0.62,-0.28,
1.727,-3.64,3.41,-0.76,-0.72,-0.66,-0.30,
1.728,-3.64,3.41,-0.76,-0.77,-0.68,-0.32,
1.728,-3.64,3.41,-0.76,-0.82,-0.70,-0.37,
1.729,-3.64,3.41,-0.76,-0.84,-0.70,-0.40,
1.731,-3.64,3.41,-0.76,-0.85,-0.71,-0.42,
1.734,-3.68,1.74,0.67,-0.85,-0.71,-0.42,
1.735,-3.68,1.74,0.67,-0.85,-0.71,-0.44,
1.736,-3.68,1.74,0.67,-0.84,-0.71,-0.46,
1.738,-3.68,1.74,0.67,-0.82,-0.71,-0.45,
1.739,-3.68,1.74,0.67,-0.79,-0.72,-0.44,
1.743,-3.68,1.74,0.67,-0.76,-0.72,-0.43,
1.743,-3.59,1.60,1.93,-0.76,-0.72,-0.43,
1.743,-3.59,1.60,1.93,-0.73,-0.73,-0.42,
1.744,-3.59,1.60,1.93,-0.69,-0.75,-0.41,
1.747,-3.59,1.60,1.93,-0.65,-0.77,-0.40,
1.749,-3.59,1.60,1.93,-0.61,-0.79,-0.40,
1.75,-3.59,1.60,1.93,-0.58,-0.82,-0.40,
1.754,-2.34,0.94,1.96,-0.58,-0.82,-0.40,
1.754,-2.34,0.94,1.96,-0.54,-0.85,-0.41,
1.755,-2.34,0.94,1.96,-0.51,-0.89,-0.42,
1.757,-2.34,0.94,1.96,-0.48,-0.92,-0.43,
1.758,-2.34,0.94,1.96,-0.46,-0.95,-0.45,
1.76,-2.34,0.94,1.96,-0.43,-0.97,-0.46,
1.763,-1.21,0.26,1.20,-0.43,-0.97,-0.46,
1.763,-1.21,0.26,1.20,-0.40,-0.98,-0.47,
1.764,-1.21,0.26,1.20,-0.38,-1.00,-0.48,
1.767,-1.21,0.26,1.20,-0.36,-1.01,-0.50,
1.769,-1.21,0.26,1.20,-0.34,-0.99,-0.51,
1.771,-1.21,0.26,1.20,-0.34,-0.97,-0.52,
1.773,-0.21,-0.09,-0.04,-0.34,-0.97,-0.52,
1.773,-0.21,-0.09,-0.04,-0.33,-0.93,-0.53,
1.774,-0.21,-0.09,-0.04,-0.33,-0.89,-0.54,
1.777,-0.21,-0.09,-0.04,-0.33,-0.85,-0.54,
1.778,-0.21,-0.09,-0.04,-0.34,-0.81,-0.55,
1.78,-0.21,-0.09,-0.04,-0.35,-0.77,-0.55,
1.783,0.31,-0.21,-1.27,-0.35,-0.77,-0.55,
1.784,0.31,-0.21,-1.27,-0.36,-0.74,-0.56,
1.785,0.31,-0.21,-1.27,-0.37,-0.70,-0.56,
1.787,0.31,-0.21,-1.27,-0.39,-0.65,-0.56,
1.789,0.31,-0.21,-1.27,-0.40,-0.59,-0.56,
1.793,0.31,-0.21,-1.27,-0.42,-0.52,-0.56,
1.793,0.77,-0.33,-2.17,-0.42,-0.52,-0.56,
1.793,0.77,-0.33,-2.17,-0.44,-0.45,-0.55,
1.794,0.77,-0.33,-2.17,-0.45,-0.37,-0.54,
1.797,0.77,-0.33,-2.17,-0.46,-0.28,-0.52,
1.798,0.77,-0.33,-2.17,-0.47,-0.19,-0.50,
1.8,0.77,-0.33,-2.17,-0.47,-0.11,-0.48,
1.803,0.58,-0.52,-1.97,-0.47,-0.11,-0.48,
1.803,0.58,-0.52,-1.97,-0.47,-0.04,-0.46,
1.805,0.58,-0.52,-1.97,-0.46,0.03,-0.44,
1.807,0.58,-0.52,-1.97,-0.44,0.09,-0.42,
1.808,0.58,-0.52,-1.97,-0.41,0.15,-0.40,
1.81,0.58,-0.52,-1.97,-0.39,0.22,-0.39,
1.813,0.61,-1.06,-0.57,-0.39,0.22,-0.39,
1.813,0.61,-1.06,-0.57,-0.35,0.27,-0.38,
1.814,0.61,-1.06,-0.57,-0.31,0.32,-0.37,
1.816,0.61,-1.06,-0.57,-0.26,0.36,-0.37,
1.818,0.61,-1.06,-0.57,-0.22,0.39,-0.37,
1.821,0.61,-1.06,-0.57,-0.17,0.42,-0.39,
1.823,1.22,-2.27,0.80,-0.17,0.42,-0.39,
1.823,1.22,-2.27,0.80,-0.12,0.45,-0.40,
1.824,1.22,-2.27,0.80,-0.06,0.48,-0.43,
1.827,1.22,-2.27,0.80,-0.01,0.52,-0.47,
1.828,1.22,-2.27,0.80,0.04,0.57,-0.52,
1.83,1.22,-2.27,0.80,0.09,0.61,-0.56,
1.835,1.50,-3.35,0.97,0.09,0.61,-0.56,
1.836,1.50,-3.35,0.97,0.13,0.66,-0.61,
1.837,1.50,-3.35,0.97,0.18,0.70,-0.66,
1.837,1.50,-3.35,0.97,0.21,0.74,-0.71,
1.839,1.50,-3.35,0.97,0.25,0.78,-0.75,
1.841,1.50,-3.35,0.97,0.27,0.82,-0.79,
1.843,0.94,-3.44,0.54,0.27,0.82,-0.79,
1.844,0.94,-3.44,0.54,0.29,0.86,-0.81,
1.845,0.94,-3.44,0.54,0.30,0.91,-0.83,
1.847,0.94,-3.44,0.54,0.31,0.95,-0.83,
1.849,0.94,-3.44,0.54,0.31,1.01,-0.83,
1.851,0.94,-3.44,0.54,0.32,1.05,-0.81,
1.863,-0.33,-2.91,-0.08,0.32,1.05,-0.81,
1.864,-0.33,-2.91,-0.08,0.32,1.09,-0.78,
1.865,-0.33,-2.91,-0.08,0.33,1.13,-0.76,
1.894,-0.33,-2.91,-0.08,0.33,1.18,-0.69,
1.894,-0.33,-2.91,-0.08,0.33,1.19,-0.68,
1.894,-0.33,-2.91,-0.08,0.33,1.20,-0.66,
1.895,-1.02,-1.97,-0.13,0.33,1.20,-0.66,
1.895,-1.02,-1.97,-0.13,0.33,1.21,-0.62,
1.895,-1.02,-1.97,-0.13,0.33,1.22,-0.58,
1.896,-1.02,-1.97,-0.13,0.33,1.21,-0.54,
1.896,-1.02,-1.97,-0.13,0.33,1.20,-0.50,
1.896,-1.02,-1.97,-0.13,0.33,1.18,-0.46,
1.896,-1.03,-1.15,-0.13,0.33,1.18,-0.46,
1.897,-1.03,-1.15,-0.13,0.33,1.17,-0.42,
1.897,-1.03,-1.15,-0.13,0.32,1.16,-0.38,
1.897,-1.03,-1.15,-0.13,0.31,1.14,-0.35,
1.897,-1.03,-1.15,-0.13,0.30,1.13,-0.31,
1.898,-1.03,-1.15,-0.13,0.28,1.11,-0.28,
1.898,-0.89,-0.99,-0.61,0.28,1.11,-0.28,
1.898,-0.89,-0.99,-0.61,0.27,1.10,-0.25,
1.898,-0.89,-0.99,-0.61,0.25,1.09,-0.22,
1.899,-0.89,-0.99,-0.61,0.24,1.09,-0.19,
1.899,-0.89,-0.99,-0.61,0.23,1.08,-0.17,
1.899,-0.89,-0.99,-0.61,0.22,1.08,-0.16,
1.9,-0.73,-0.96,-0.73,0.22,1.08,-0.16,
1.9,-0.73,-0.96,-0.73,0.22,1.06,-0.14,
1.9,-0.73,-0.96,-0.73,0.22,1.05,-0.13,
1.9,-0.73,-0.96,-0.73,0.22,1.04,-0.12,
1.901,-0.73,-0.96,-0.73,0.22,1.03,-0.11,
1.901,-0.73,-0.96,-0.73,0.22,1.01,-0.11,
1.907,-0.44,-0.80,-0.52,0.22,1.01,-0.11,
1.908,-0.44,-0.80,-0.52,0.23,0.99,-0.10,
1.908,-0.44,-0.80,-0.52,0.23,0.98,-0.10,
1.908,-0.44,-0.80,-0.52,0.24,0.96,-0.10,
1.909,-0.44,-0.80,-0.52,0.25,0.94,-0.09,
1.914,-0.44,-0.80,-0.52,0.26,0.92,-0.09,
1.935,-0.46,-0.94,-0.47,0.26,0.92,-0.09,
1.936,-0.46,-0.94,-0.47,0.27,0.91,-0.08,
1.936,-0.46,-0.94,-0.47,0.29,0.90,-0.08,
1.936,-0.46,-0.94,-0.47,0.31,0.90,-0.09,
1.937,-0.46,-0.94,-0.47,0.33,0.89,-0.09,
1.937,-0.46,-0.94,-0.47,0.35,0.89,-0.10,
1.937,-0.39,-1.03,-0.34,0.35,0.89,-0.10,
1.937,-0.39,-1.03,-0.34,0.38,0.89,-0.11,
1.937,-0.39,-1.03,-0.34,0.41,0.88,-0.11,
1.937,-0.39,-1.03,-0.34,0.43,0.88,-0.12,
1.938,-0.39,-1.03,-0.34,0.46,0.88,-0.13,
1.938,-0.39,-1.03,-0.34,0.49,0.87,-0.14,
1.938,-0.40,-0.71,-0.16,0.49,0.87,-0.14,
1.938,-0.40,-0.71,-0.16,0.51,0.87,-0.14,
1.938,-0.40,-0.71,-0.16,0.54,0.87,-0.14,
1.939,-0.40,-0.71,-0.16,0.56,0.87,-0.13,
1.939,-0.40,-0.71,-0.16,0.59,0.85,-0.12,
1.941,-0.40,-0.71,-0.16,0.61,0.84,-0.10,
1.943,-0.82,-0.29,0.35,0.61,0.84,-0.10,
1.943,-0.82,-0.29,0.35,0.63,0.82,-0.07,
1.945,-0.82,-0.29,0.35,0.65,0.79,-0.04,
1.947,-0.82,-0.29,0.35,0.66,0.76,-0.00,
1.955,-0.82,-0.29,0.35,0.67,0.73,0.03,
1.956,-0.82,-0.29,0.35,0.68,0.71,0.07,
1.956,-0.82,-0.41,0.42,0.68,0.71,0.07,
1.956,-0.82,-0.41,0.42,0.69,0.70,0.10,
1.956,-0.82,-0.41,0.42,0.71,0.69,0.13,
1.959,-0.82,-0.41,0.42,0.72,0.69,0.15,
1.96,-0.82,-0.41,0.42,0.73,0.70,0.17,
1.961,-0.82,-0.41,0.42,0.74,0.71,0.19,
1.963,-0.11,-0.68,0.24,0.74,0.71,0.19,
1.963,-0.11,-0.68,0.24,0.76,0.72,0.20,
1.965,-0.11,-0.68,0.24,0.78,0.73,0.21,
1.967,-0.11,-0.68,0.24,0.80,0.74,0.21,
1.968,-0.11,-0.68,0.24,0.82,0.74,0.21,
1.97,-0.11,-0.68,0.24,0.84,0.73,0.20,
1.973,0.76,-0.80,0.22,0.84,0.73,0.20,
1.973,0.76,-0.80,0.22,0.86,0.71,0.20,
1.974,0.76,-0.80,0.22,0.88,0.68,0.19,
1.977,0.76,-0.80,0.22,0.89,0.64,0.19,
1.978,0.76,-0.80,0.22,0.89,0.60,0.18,
1.98,0.76,-0.80,0.22,0.89,0.55,0.16,
1.991,1.76,-0.73,-0.39,0.89,0.55,0.16,
1.991,1.76,-0.73,-0.39,0.88,0.49,0.15,
1.992,1.76,-0.73,-0.39,0.86,0.44,0.13,
1.992,1.76,-0.73,-0.39,0.77,0.28,0.08,
1.992,1.76,-0.73,-0.39,0.77,0.28,0.08,
1.993,1.76,-0.73,-0.39,0.77,0.28,0.08,
1.994,1.76,-0.73,-0.39,0.72,0.21,0.06,
1.994,2.14,-0.90,-1.33,0.72,0.21,0.06,
1.995,2.14,-0.90,-1.33,0.70,0.19,0.05,
1.997,2.14,-0.90,-1.33,0.67,0.15,0.03,
2.015,2.14,-0.90,-1.33,0.64,0.11,0.02,
2.019,2.14,-0.90,-1.33,0.61,0.08,-0.00,
2.019,2.02,-0.88,-1.40,0.61,0.08,-0.00,
2.019,2.02,-0.88,-1.40,0.59,0.06,-0.02,
2.02,2.02,-0.88,-1.40,0.56,0.04,-0.04,
2.02,2.02,-0.88,-1.40,0.53,0.02,-0.06,
2.02,2.02,-0.88,-1.40,0.51,-0.01,-0.07,
2.02,2.02,-0.88,-1.40,0.50,-0.03,-0.08,
2.02,1.67,-0.83,-1.01,0.50,-0.03,-0.08,
2.02,1.67,-0.83,-1.01,0.48,-0.05,-0.09,
2.02,1.67,-0.83,-1.01,0.48,-0.07,-0.10,
2.02,1.67,-0.83,-1.01,0.47,-0.09,-0.11,
2.021,1.67,-0.83,-1.01,0.46,-0.09,-0.11,
2.021,1.67,-0.83,-1.01,0.46,-0.09,-0.12,
2.023,0.94,-0.66,-0.38,0.46,-0.09,-0.12,
2.035,0.94,-0.66,-0.38,0.47,-0.08,-0.12,
2.036,0.94,-0.66,-0.38,0.47,-0.06,-0.12,
2.036,0.94,-0.66,-0.38,0.47,-0.04,-0.12,
2.036,0.94,-0.66,-0.38,0.48,-0.01,-0.12,
2.036,0.94,-0.66,-0.38,0.50,0.02,-0.12,
2.036,0.00,-0.43,0.25,0.50,0.02,-0.12,
2.036,0.00,-0.43,0.25,0.51,0.05,-0.12,
2.037,0.00,-0.43,0.25,0.52,0.08,-0.11,
2.037,0.00,-0.43,0.25,0.53,0.10,-0.11,
2.039,0.00,-0.43,0.25,0.55,0.11,-0.09,
2.041,0.00,-0.43,0.25,0.56,0.12,-0.08,
2.043,-0.53,-0.19,0.80,0.56,0.12,-0.08,
2.043,-0.53,-0.19,0.80,0.56,0.11,-0.06,
2.044,-0.53,-0.19,0.80,0.57,0.11,-0.04,
2.047,-0.53,-0.19,0.80,0.58,0.08,-0.02,
2.06,-0.53,-0.19,0.80,0.57,0.07,-0.01,
2.061,-0.53,-0.19,0.80,0.57,0.06,-0.00,
2.061,-0.27,-0.20,0.53,0.57,0.06,-0.00,
2.061,-0.27,-0.20,0.53,0.56,0.05,0.01,
2.061,-0.27,-0.20,0.53,0.53,0.03,0.02,
2.061,-0.27,-0.20,0.53,0.51,0.03,0.01,
2.062,-0.27,-0.20,0.53,0.50,0.02,0.01,
2.062,-0.27,-0.20,0.53,0.47,0.02,0.01,
2.063,0.21,-0.34,-0.40,0.47,0.02,0.01,
2.063,0.21,-0.34,-0.40,0.43,0.00,0.00,
2.065,0.21,-0.34,-0.40,0.40,-0.01,0.01,
2.067,0.21,-0.34,-0.40,0.36,-0.02,0.00,
2.07,0.21,-0.34,-0.40,0.32,-0.04,-0.01,
2.07,0.21,-0.34,-0.40,0.28,-0.04,-0.01,
2.073,0.57,-0.21,-1.14,0.28,-0.04,-0.01,
2.073,0.57,-0.21,-1.14,0.24,-0.04,-0.02,
2.074,0.57,-0.21,-1.14,0.21,-0.04,-0.03,
2.077,0.57,-0.21,-1.14,0.16,-0.02,-0.03,
2.078,0.57,-0.21,-1.14,0.15,-0.02,-0.03,
2.08,0.57,-0.21,-1.14,0.13,-0.00,-0.03,
2.083,0.39,-0.12,-1.18,0.13,-0.00,-0.03,
2.083,0.39,-0.12,-1.18,0.11,0.02,-0.03,
2.085,0.39,-0.12,-1.18,0.09,0.04,-0.03,
2.087,0.39,-0.12,-1.18,0.06,0.08,-0.04,
2.089,0.39,-0.12,-1.18,0.05,0.10,-0.04,
2.09,0.39,-0.12,-1.18,0.04,0.13,-0.04,
2.093,0.34,-0.21,-1.12,0.04,0.13,-0.04,
2.093,0.34,-0.21,-1.12,0.03,0.17,-0.05,
2.095,0.34,-0.21,-1.12,0.01,0.21,-0.05,
2.097,0.34,-0.21,-1.12,-0.00,0.28,-0.06,
2.102,0.34,-0.21,-1.12,-0.01,0.31,-0.06,
2.102,0.34,-0.21,-1.12,-0.02,0.37,-0.07,
2.105,-0.08,-0.26,-0.77,-0.02,0.37,-0.07,
2.105,-0.08,-0.26,-0.77,-0.03,0.39,-0.07,
2.105,-0.08,-0.26,-0.77,-0.03,0.42,-0.07,
2.107,-0.08,-0.26,-0.77,-0.04,0.47,-0.08,
2.109,-0.08,-0.26,-0.77,-0.04,0.49,-0.08,
2.11,-0.08,-0.26,-0.77,-0.04,0.51,-0.08,
2.114,-0.57,-0.31,-0.43,-0.04,0.51,-0.08,
2.114,-0.57,-0.31,-0.43,-0.03,0.57,-0.08,
2.119,-0.57,-0.31,-0.43,-0.03,0.59,-0.08,
2.12,-0.57,-0.31,-0.43,-0.03,0.64,-0.08,
2.12,-0.57,-0.31,-0.43,-0.03,0.66,-0.08,
2.12,-0.57,-0.31,-0.43,-0.02,0.70,-0.08,
2.123,-0.98,-0.17,-0.10,-0.02,0.70,-0.08,
2.123,-0.98,-0.17,-0.10,-0.01,0.76,-0.08,
2.124,-0.98,-0.17,-0.10,-0.01,0.78,-0.08,
2.127,-0.98,-0.17,-0.10,0.01,0.83,-0.07,
2.128,-0.98,-0.17,-0.10,0.01,0.84,-0.06,
2.13,-0.98,-0.17,-0.10,0.02,0.86,-0.05,
2.136,-1.22,0.03,0.09,0.02,0.86,-0.05,
2.137,-1.22,0.03,0.09,0.02,0.86,-0.02,
2.137,-1.22,0.03,0.09,0.02,0.86,-0.01,
2.137,-1.22,0.03,0.09,0.02,0.85,0.01,
2.139,-1.22,0.03,0.09,0.01,0.84,0.03,
2.141,-1.22,0.03,0.09,-0.00,0.83,0.04,
2.144,-0.97,0.27,-0.21,-0.00,0.83,0.04,
2.145,-0.97,0.27,-0.21,-0.02,0.82,0.05,
2.146,-0.97,0.27,-0.21,-0.03,0.81,0.06,
2.147,-0.97,0.27,-0.21,-0.05,0.80,0.06,
2.159,-0.97,0.27,-0.21,-0.07,0.79,0.07,
2.159,-0.97,0.27,-0.21,-0.09,0.78,0.07,
2.16,-0.59,0.21,-0.56,-0.09,0.78,0.07,
2.16,-0.59,0.21,-0.56,-0.11,0.76,0.08,
2.16,-0.59,0.21,-0.56,-0.12,0.73,0.08,
2.161,-0.59,0.21,-0.56,-0.14,0.71,0.08,
2.161,-0.59,0.21,-0.56,-0.16,0.67,0.08,
2.162,-0.59,0.21,-0.56,-0.17,0.64,0.08,
2.164,-0.17,0.16,-0.61,-0.17,0.64,0.08,
2.164,-0.17,0.16,-0.61,-0.18,0.62,0.07,
2.179,-0.17,0.16,-0.61,-0.19,0.59,0.07,
2.179,-0.17,0.16,-0.61,-0.20,0.56,0.07,
2.18,-0.17,0.16,-0.61,-0.20,0.53,0.06,
2.18,-0.17,0.16,-0.61,-0.21,0.51,0.06,
2.18,0.31,-0.07,-0.46,-0.21,0.51,0.06,
2.181,0.31,-0.07,-0.46,-0.21,0.48,0.05,
2.181,0.31,-0.07,-0.46,-0.21,0.47,0.04,
2.181,0.31,-0.07,-0.46,-0.21,0.47,0.04,
2.181,0.31,-0.07,-0.46,-0.20,0.49,0.04,
2.187,0.31,-0.07,-0.46,-0.18,0.51,0.04,
2.188,0.59,-0.49,-0.14,-0.18,0.51,0.04,
2.188,0.59,-0.49,-0.14,-0.17,0.53,0.04,
2.189,0.59,-0.49,-0.14,-0.15,0.55,0.04,
2.189,0.59,-0.49,-0.14,-0.14,0.57,0.04,
2.202,0.59,-0.49,-0.14,-0.12,0.58,0.04,
2.22,0.59,-0.49,-0.14,-0.11,0.59,0.04,
2.22,0.68,-0.62,-0.08,-0.11,0.59,0.04,
2.22,0.68,-0.62,-0.08,-0.09,0.61,0.03,
2.22,0.68,-0.62,-0.08,-0.07,0.62,0.02,
2.221,0.68,-0.62,-0.08,-0.05,0.64,0.01,
2.221,0.68,-0.62,-0.08,-0.04,0.65,0.01,
2.221,0.68,-0.62,-0.08,-0.02,0.65,-0.00,
2.221,0.61,-0.31,0.16,-0.02,0.65,-0.00,
2.221,0.61,-0.31,0.16,0.00,0.66,-0.01,
2.222,0.61,-0.31,0.16,0.02,0.66,-0.01,
2.222,0.61,-0.31,0.16,0.04,0.66,-0.01,
2.222,0.61,-0.31,0.16,0.04,0.66,-0.01,
2.222,0.61,-0.31,0.16,0.05,0.67,-0.01,
2.222,0.19,-0.11,0.12,0.05,0.67,-0.01,
2.222,0.19,-0.11,0.12,0.06,0.67,-0.01,
2.223,0.19,-0.11,0.12,0.07,0.67,-0.00,
2.223,0.19,-0.11,0.12,0.08,0.68,0.00,
2.223,0.19,-0.11,0.12,0.09,0.69,0.01,
2.223,0.19,-0.11,0.12,0.09,0.70,0.01,
2.223,-0.25,0.08,0.05,0.09,0.70,0.01,
2.223,-0.25,0.08,0.05,0.10,0.71,0.02,
2.227,-0.25,0.08,0.05,0.10,0.71,0.03,
2.228,-0.25,0.08,0.05,0.10,0.72,0.04,
2.257,-0.25,0.08,0.05,0.10,0.73,0.05,
2.257,-0.25,0.08,0.05,0.10,0.73,0.06,
2.258,-0.54,0.18,-0.05,0.10,0.73,0.06,
2.258,-0.54,0.18,-0.05,0.09,0.73,0.07,
2.258,-0.54,0.18,-0.05,0.09,0.74,0.07,
2.258,-0.54,0.18,-0.05,0.09,0.75,0.08,
2.258,-0.54,0.18,-0.05,0.08,0.76,0.09,
2.259,-0.54,0.18,-0.05,0.08,0.77,0.10,
2.259,-0.71,0.19,-0.12,0.08,0.77,0.10,
2.259,-0.71,0.19,-0.12,0.07,0.78,0.10,
2.259,-0.71,0.19,-0.12,0.07,0.77,0.11,
2.259,-0.71,0.19,-0.12,0.07,0.76,0.12,
2.259,-0.71,0.19,-0.12,0.06,0.75,0.12,
2.26,-0.71,0.19,-0.12,0.06,0.73,0.13,
2.26,-0.61,0.04,0.16,0.06,0.73,0.13,
2.26,-0.61,0.04,0.16,0.06,0.71,0.13,
2.26,-0.61,0.04,0.16,0.06,0.69,0.13,
2.26,-0.61,0.04,0.16,0.07,0.66,0.13,
2.261,-0.61,0.04,0.16,0.07,0.63,0.13,
2.261,-0.61,0.04,0.16,0.07,0.60,0.12,
2.268,-0.23,0.05,0.50,0.07,0.60,0.12,
2.269,-0.23,0.05,0.50,0.07,0.58,0.12,
2.269,-0.23,0.05,0.50,0.07,0.55,0.11,
2.269,-0.23,0.05,0.50,0.07,0.52,0.11,
2.269,-0.23,0.05,0.50,0.06,0.49,0.10,
2.271,-0.23,0.05,0.50,0.07,0.47,0.10,
2.281,-0.19,-0.06,0.38,0.07,0.47,0.10,
2.282,-0.19,-0.06,0.38,0.07,0.44,0.10,
2.282,-0.19,-0.06,0.38,0.07,0.42,0.10,
2.282,-0.19,-0.06,0.38,0.07,0.40,0.10,
2.282,-0.19,-0.06,0.38,0.08,0.38,0.09,
2.282,-0.19,-0.06,0.38,0.09,0.37,0.09,
2.307,0.02,-0.13,0.35,0.09,0.37,0.09,
2.308,0.02,-0.13,0.35,0.11,0.36,0.09,
2.309,0.02,-0.13,0.35,0.12,0.36,0.09,
2.309,0.02,-0.13,0.35,0.14,0.35,0.08,
2.309,0.02,-0.13,0.35,0.16,0.35,0.08,
2.31,0.02,-0.13,0.35,0.18,0.36,0.07,
2.31,0.16,-0.32,0.32,0.18,0.36,0.07,
2.31,0.16,-0.32,0.32,0.20,0.37,0.07,
2.311,0.16,-0.32,0.32,0.22,0.37,0.07,
2.311,0.16,-0.32,0.32,0.23,0.38,0.06,
2.312,0.16,-0.32,0.32,0.25,0.39,0.06,
2.312,0.16,-0.32,0.32,0.27,0.40,0.05,
2.313,0.32,-0.39,0.13,0.27,0.40,0.05,
2.313,0.32,-0.39,0.13,0.28,0.42,0.04,
2.314,0.32,-0.39,0.13,0.30,0.43,0.03,
2.314,0.32,-0.39,0.13,0.31,0.44,0.03,
2.315,0.32,-0.39,0.13,0.32,0.45,0.02,
2.316,0.32,-0.39,0.13,0.32,0.47,0.01,
2.317,0.28,-0.38,-0.18,0.32,0.47,0.01,
2.317,0.28,-0.38,-0.18,0.33,0.47,0.01,
2.317,0.28,-0.38,-0.18,0.34,0.48,-0.00,
2.318,0.28,-0.38,-0.18,0.34,0.49,-0.00,
2.319,0.28,-0.38,-0.18,0.34,0.50,-0.01,
2.32,0.28,-0.38,-0.18,0.35,0.51,-0.01,
2.323,-0.07,-0.13,-0.31,0.35,0.51,-0.01,
2.323,-0.07,-0.13,-0.31,0.35,0.52,-0.00,
2.324,-0.07,-0.13,-0.31,0.35,0.53,-0.00,
2.327,-0.07,-0.13,-0.31,0.35,0.54,0.00,
2.329,-0.07,-0.13,-0.31,0.35,0.55,0.01,
2.333,-0.07,-0.13,-0.31,0.35,0.55,0.02,
2.333,-0.63,0.01,-0.40,0.35,0.55,0.02,
2.333,-0.63,0.01,-0.40,0.35,0.56,0.03,
2.334,-0.63,0.01,-0.40,0.34,0.56,0.04,
2.337,-0.63,0.01,-0.40,0.34,0.55,0.06,
2.338,-0.63,0.01,-0.40,0.33,0.54,0.07,
2.341,-0.63,0.01,-0.40,0.33,0.53,0.08,
2.343,-0.99,-0.05,-0.27,0.33,0.53,0.08,
2.344,-0.99,-0.05,-0.27,0.32,0.52,0.10,
2.345,-0.99,-0.05,-0.27,0.32,0.50,0.10,
2.349,-0.99,-0.05,-0.27,0.31,0.49,0.11,
2.35,-0.99,-0.05,-0.27,0.31,0.48,0.11,
2.351,-0.99,-0.05,-0.27,0.31,0.47,0.10,
2.353,-0.76,-0.38,0.05,0.31,0.47,0.10,
2.354,-0.76,-0.38,0.05,0.31,0.46,0.09,
2.355,-0.76,-0.38,0.05,0.31,0.44,0.08,
2.369,-0.76,-0.38,0.05,0.32,0.42,0.06,
2.369,-0.76,-0.38,0.05,0.32,0.41,0.04,
2.369,-0.76,-0.38,0.05,0.33,0.40,0.03,
2.369,-0.33,-0.59,0.37,0.33,0.40,0.03,
2.37,-0.33,-0.59,0.37,0.33,0.39,0.01,
2.37,-0.33,-0.59,0.37,0.33,0.39,0.00,
2.37,-0.33,-0.59,0.37,0.34,0.39,-0.01,
2.37,-0.33,-0.59,0.37,0.34,0.40,-0.02,
2.37,-0.33,-0.59,0.37,0.34,0.42,-0.02,
2.373,-0.27,-0.70,0.33,0.34,0.42,-0.02,
2.373,-0.27,-0.70,0.33,0.34,0.43,-0.02,
2.374,-0.27,-0.70,0.33,0.34,0.45,-0.02,
2.377,-0.27,-0.70,0.33,0.34,0.47,-0.02,
2.379,-0.27,-0.70,0.33,0.34,0.49,-0.01,
2.391,-0.27,-0.70,0.33,0.35,0.51,0.00,
2.391,-0.36,-0.58,0.20,0.35,0.51,0.00,
2.392,-0.36,-0.58,0.20,0.34,0.53,0.01,
2.392,-0.36,-0.58,0.20,0.34,0.55,0.03,
2.392,-0.36,-0.58,0.20,0.34,0.58,0.04,
2.392,-0.36,-0.58,0.20,0.33,0.60,0.05,
2.392,-0.36,-0.58,0.20,0.33,0.63,0.07,
2.395,-0.61,-0.26,-0.14,0.33,0.63,0.07,
2.395,-0.61,-0.26,-0.14,0.32,0.66,0.09,
2.395,-0.61,-0.26,-0.14,0.31,0.68,0.11,
2.403,-0.61,-0.26,-0.14,0.31,0.71,0.13,
2.403,-0.61,-0.26,-0.14,0.30,0.74,0.15,
2.403,-0.61,-0.26,-0.14,0.29,0.78,0.17,
2.403,-0.96,0.16,-0.46,0.29,0.78,0.17,
2.404,-0.96,0.16,-0.46,0.30,0.81,0.20,
2.405,-0.96,0.16,-0.46,0.29,0.84,0.22,
2.407,-0.96,0.16,-0.46,0.29,0.87,0.25,
2.409,-0.96,0.16,-0.46,0.29,0.89,0.28,
2.411,-0.96,0.16,-0.46,0.29,0.92,0.31,
2.413,-1.33,0.20,-0.55,0.29,0.92,0.31,
2.413,-1.33,0.20,-0.55,0.29,0.94,0.34,
2.415,-1.33,0.20,-0.55,0.29,0.95,0.37,
2.417,-1.33,0.20,-0.55,0.30,0.97,0.40,
2.421,-1.33,0.20,-0.55,0.30,0.99,0.43,
2.421,-1.33,0.20,-0.55,0.31,1.01,0.46,
2.423,-1.09,-0.20,-0.54,0.31,1.01,0.46,
2.423,-1.09,-0.20,-0.54,0.31,1.03,0.48,
2.425,-1.09,-0.20,-0.54,0.32,1.05,0.50,
2.427,-1.09,-0.20,-0.54,0.33,1.07,0.51,
2.428,-1.09,-0.20,-0.54,0.34,1.09,0.51,
2.431,-1.09,-0.20,-0.54,0.35,1.11,0.52,
2.433,-0.41,-1.01,-0.46,0.35,1.11,0.52,
2.434,-0.41,-1.01,-0.46,0.36,1.13,0.52,
2.434,-0.41,-1.01,-0.46,0.38,1.14,0.51,
2.437,-0.41,-1.01,-0.46,0.40,1.16,0.50,
2.438,-0.41,-1.01,-0.46,0.43,1.16,0.49,
2.44,-0.41,-1.01,-0.46,0.44,1.17,0.47,
2.443,0.26,-1.41,0.26,0.44,1.17,0.47,
2.443,0.26,-1.41,0.26,0.47,1.16,0.46,
2.444,0.26,-1.41,0.26,0.50,1.15,0.44,
2.447,0.26,-1.41,0.26,0.53,1.13,0.42,
2.448,0.26,-1.41,0.26,0.56,1.10,0.41,
2.451,0.26,-1.41,0.26,0.59,1.06,0.39,
2.453,0.58,-1.34,1.37,0.59,1.06,0.39,
2.453,0.58,-1.34,1.37,0.62,1.01,0.38,
2.455,0.58,-1.34,1.37,0.64,0.96,0.37,
2.457,0.58,-1.34,1.37,0.67,0.91,0.36,
2.458,0.58,-1.34,1.37,0.69,0.87,0.36,
2.461,0.58,-1.34,1.37,0.71,0.82,0.36,
2.463,0.45,-1.18,1.98,0.71,0.82,0.36,
2.464,0.45,-1.18,1.98,0.72,0.78,0.36,
2.465,0.45,-1.18,1.98,0.73,0.74,0.36,
2.467,0.45,-1.18,1.98,0.73,0.70,0.37,
2.469,0.45,-1.18,1.98,0.73,0.67,0.37,
2.471,0.45,-1.18,1.98,0.73,0.64,0.37,
2.473,0.20,-1.08,1.72,0.73,0.64,0.37,
2.473,0.20,-1.08,1.72,0.72,0.61,0.38,
2.475,0.20,-1.08,1.72,0.71,0.58,0.38,
2.477,0.20,-1.08,1.72,0.70,0.56,0.38,
2.479,0.20,-1.08,1.72,0.68,0.55,0.38,
2.481,0.20,-1.08,1.72,0.67,0.55,0.38,
2.484,0.08,-0.91,1.08,0.67,0.55,0.38,
2.484,0.08,-0.91,1.08,0.65,0.54,0.37,
2.485,0.08,-0.91,1.08,0.64,0.53,0.38,
2.487,0.08,-0.91,1.08,0.63,0.52,0.37,
2.489,0.08,-0.91,1.08,0.61,0.53,0.37,
2.491,0.08,-0.91,1.08,0.60,0.54,0.37,
2.493,0.11,-0.74,0.65,0.60,0.54,0.37,
2.494,0.11,-0.74,0.65,0.59,0.55,0.36,
2.495,0.11,-0.74,0.65,0.59,0.56,0.36,
2.501,0.11,-0.74,0.65,0.58,0.58,0.35,
2.501,0.11,-0.74,0.65,0.58,0.60,0.34,
2.501,0.11,-0.74,0.65,0.58,0.62,0.34,
2.503,0.22,-0.48,0.31,0.58,0.62,0.34,
2.504,0.22,-0.48,0.31,0.57,0.64,0.33,
2.505,0.22,-0.48,0.31,0.57,0.67,0.32,
2.507,0.22,-0.48,0.31,0.57,0.70,0.31,
2.509,0.22,-0.48,0.31,0.58,0.72,0.30,
2.511,0.22,-0.48,0.31,0.58,0.75,0.30,
2.522,0.16,0.02,0.12,0.58,0.75,0.30,
2.524,0.16,0.02,0.12,0.58,0.77,0.29,
2.525,0.16,0.02,0.12,0.58,0.79,0.29,
2.526,0.16,0.02,0.12,0.59,0.81,0.30,
2.527,0.16,0.02,0.12,0.56,0.83,0.29,
2.527,0.16,0.02,0.12,0.57,0.86,0.30,
2.528,0.03,0.67,-0.05,0.57,0.86,0.30,
2.547,0.03,0.67,-0.05,0.57,0.87,0.30,
2.547,0.03,0.67,-0.05,0.57,0.89,0.31,
2.547,0.03,0.67,-0.05,0.55,0.90,0.31,
2.547,0.03,0.67,-0.05,0.57,0.91,0.33,
2.547,0.03,0.67,-0.05,0.55,0.92,0.33,
2.548,-0.06,1.19,-0.04,0.55,0.92,0.33,
2.548,-0.06,1.19,-0.04,0.54,0.92,0.34,
2.548,-0.06,1.19,-0.04,0.54,0.91,0.36,
2.548,-0.06,1.19,-0.04,0.54,0.90,0.37,
2.549,-0.06,1.19,-0.04,0.52,0.88,0.38,
2.549,-0.06,1.19,-0.04,0.52,0.86,0.39,
2.549,-0.02,1.44,0.14,0.52,0.86,0.39,
2.549,-0.02,1.44,0.14,0.51,0.83,0.40,
2.549,-0.02,1.44,0.14,0.50,0.79,0.41,
2.55,-0.02,1.44,0.14,0.49,0.74,0.41,
2.55,-0.02,1.44,0.14,0.48,0.69,0.42,
2.556,-0.02,1.44,0.14,0.47,0.63,0.41,
2.557,0.36,1.42,0.38,0.47,0.63,0.41,
2.557,0.36,1.42,0.38,0.46,0.57,0.41,
2.557,0.36,1.42,0.38,0.44,0.49,0.40,
2.558,0.36,1.42,0.38,0.42,0.39,0.39,
2.559,0.36,1.42,0.38,0.41,0.35,0.38,
2.56,0.36,1.42,0.38,0.38,0.29,0.36,
2.575,0.66,1.24,0.36,0.38,0.29,0.36,
2.575,0.66,1.24,0.36,0.35,0.23,0.35,
2.575,0.66,1.24,0.36,0.33,0.18,0.33,
2.575,0.66,1.24,0.36,0.31,0.14,0.31,
2.576,0.66,1.24,0.36,0.28,0.09,0.29,
2.576,0.66,1.24,0.36,0.26,0.05,0.28,
2.576,0.76,1.08,0.44,0.26,0.05,0.28,
2.576,0.76,1.08,0.44,0.24,0.01,0.26,
2.576,0.76,1.08,0.44,0.22,-0.02,0.25,
2.577,0.76,1.08,0.44,0.20,-0.06,0.24,
2.579,0.76,1.08,0.44,0.17,-0.10,0.23,
2.581,0.76,1.08,0.44,0.17,-0.13,0.23,
2.583,0.62,0.77,0.68,0.17,-0.13,0.23,
2.583,0.62,0.77,0.68,0.16,-0.16,0.22,
2.585,0.62,0.77,0.68,0.15,-0.18,0.22,
2.587,0.62,0.77,0.68,0.15,-0.21,0.21,
2.588,0.62,0.77,0.68,0.15,-0.22,0.20,
2.59,0.62,0.77,0.68,0.14,-0.24,0.19,
2.593,0.80,0.60,0.87,0.14,-0.24,0.19,
2.593,0.80,0.60,0.87,0.15,-0.25,0.18,
2.594,0.80,0.60,0.87,0.15,-0.25,0.17,
2.597,0.80,0.60,0.87,0.16,-0.25,0.16,
2.599,0.80,0.60,0.87,0.16,-0.26,0.16,
2.601,0.80,0.60,0.87,0.16,-0.26,0.15,
2.603,0.83,0.46,0.93,0.16,-0.26,0.15,
2.603,0.83,0.46,0.93,0.17,-0.26,0.14,
2.605,0.83,0.46,0.93,0.17,-0.26,0.13,
2.607,0.83,0.46,0.93,0.17,-0.25,0.13,
2.608,0.83,0.46,0.93,0.17,-0.25,0.12,
2.611,0.83,0.46,0.93,0.17,-0.24,0.12,
2.614,0.65,0.45,0.63,0.17,-0.24,0.12,
2.614,0.65,0.45,0.63,0.16,-0.24,0.12,
2.616,0.65,0.45,0.63,0.16,-0.24,0.11,
2.617,0.65,0.45,0.63,0.16,-0.23,0.11,
2.62,0.65,0.45,0.63,0.15,-0.23,0.11,
2.621,0.65,0.45,0.63,0.15,-0.23,0.11,
2.623,0.46,0.33,0.33,0.15,-0.23,0.11,
2.623,0.46,0.33,0.33,0.14,-0.23,0.11,
2.626,0.46,0.33,0.33,0.13,-0.23,0.10,
2.627,0.46,0.33,0.33,0.12,-0.23,0.09,
2.63,0.46,0.33,0.33,0.10,-0.23,0.09,
2.631,0.46,0.33,0.33,0.09,-0.23,0.08,
2.634,0.31,0.16,-0.03,0.09,-0.23,0.08,
2.634,0.31,0.16,-0.03,0.07,-0.24,0.07,
2.635,0.31,0.16,-0.03,0.05,-0.24,0.06,
2.637,0.31,0.16,-0.03,0.04,-0.24,0.06,
2.639,0.31,0.16,-0.03,0.02,-0.24,0.05,
2.641,0.31,0.16,-0.03,0.00,-0.24,0.05,
2.643,0.04,0.00,-0.10,0.00,-0.24,0.05,
2.644,0.04,0.00,-0.10,-0.01,-0.24,0.04,
2.645,0.04,0.00,-0.10,-0.02,-0.24,0.03,
2.659,0.04,0.00,-0.10,-0.03,-0.24,0.03,
2.659,0.04,0.00,-0.10,-0.03,-0.24,0.02,
2.659,0.04,0.00,-0.10,-0.04,-0.23,0.02,
2.659,-0.21,-0.14,0.03,-0.04,-0.23,0.02,
2.66,-0.21,-0.14,0.03,-0.04,-0.23,0.01,
2.66,-0.21,-0.14,0.03,-0.04,-0.22,0.01,
2.66,-0.21,-0.14,0.03,-0.05,-0.21,0.01,
2.66,-0.21,-0.14,0.03,-0.04,-0.20,0.01,
2.661,-0.21,-0.14,0.03,-0.05,-0.18,-0.00,
2.692,-0.42,-0.34,0.08,-0.05,-0.18,-0.00,
2.692,-0.42,-0.34,0.08,-0.04,-0.18,-0.00,
2.693,-0.42,-0.34,0.08,-0.04,-0.16,-0.01,
2.693,-0.42,-0.34,0.08,-0.03,-0.15,-0.01,
2.693,-0.42,-0.34,0.08,-0.03,-0.14,-0.02,
2.693,-0.42,-0.34,0.08,-0.02,-0.12,-0.02,
2.693,-0.59,-0.54,0.08,-0.02,-0.12,-0.02,
2.693,-0.59,-0.54,0.08,-0.02,-0.11,-0.02,
2.693,-0.59,-0.54,0.08,-0.02,-0.09,-0.02,
2.694,-0.59,-0.54,0.08,-0.01,-0.07,-0.03,
2.694,-0.59,-0.54,0.08,-0.01,-0.05,-0.03,
2.694,-0.59,-0.54,0.08,-0.00,-0.03,-0.03,
2.694,-0.79,-0.60,-0.04,-0.00,-0.03,-0.03,
2.694,-0.79,-0.60,-0.04,0.01,-0.02,-0.03,
2.694,-0.79,-0.60,-0.04,0.01,-0.01,-0.03,
2.694,-0.79,-0.60,-0.04,0.00,0.00,-0.03,
2.695,-0.79,-0.60,-0.04,0.01,0.00,-0.03,
2.711,-0.79,-0.60,-0.04,0.01,0.01,-0.04,
2.711,-0.85,-0.62,-0.06,0.01,0.01,-0.04,
2.711,-0.85,-0.62,-0.06,0.01,0.01,-0.04,
2.712,-0.85,-0.62,-0.06,0.01,0.01,-0.04,
2.712,-0.85,-0.62,-0.06,0.01,0.01,-0.04,
2.712,-0.85,-0.62,-0.06,0.00,0.01,-0.05,
2.712,-0.85,-0.62,-0.06,0.00,0.01,-0.05,
2.713,-0.67,-0.66,-0.19,0.00,0.01,-0.05,
2.713,-0.67,-0.66,-0.19,0.00,0.01,-0.06,
2.713,-0.67,-0.66,-0.19,-0.00,0.01,-0.07,
2.713,-0.67,-0.66,-0.19,-0.01,0.01,-0.08,
2.714,-0.67,-0.66,-0.19,-0.01,0.02,-0.09,
2.714,-0.67,-0.66,-0.19,-0.01,0.02,-0.09,
2.714,-0.49,-0.69,-0.25,-0.01,0.02,-0.09,
2.714,-0.49,-0.69,-0.25,-0.01,0.03,-0.10,
2.714,-0.49,-0.69,-0.25,-0.02,0.03,-0.10,
2.732,-0.49,-0.69,-0.25,-0.02,0.03,-0.11,
2.732,-0.49,-0.69,-0.25,-0.02,0.04,-0.11,
2.733,-0.49,-0.69,-0.25,-0.03,0.05,-0.11,
2.733,-0.38,-0.67,-0.22,-0.03,0.05,-0.11,
2.733,-0.38,-0.67,-0.22,-0.02,0.05,-0.11,
2.733,-0.38,-0.67,-0.22,-0.03,0.06,-0.11,
2.733,-0.38,-0.67,-0.22,-0.03,0.07,-0.11,
2.733,-0.38,-0.67,-0.22,-0.03,0.07,-0.11,
2.734,-0.38,-0.67,-0.22,-0.03,0.07,-0.10,
2.734,-0.32,-0.61,-0.10,-0.03,0.07,-0.10,
2.734,-0.32,-0.61,-0.10,-0.03,0.07,-0.10,
2.735,-0.32,-0.61,-0.10,-0.03,0.08,-0.10,
2.737,-0.32,-0.61,-0.10,-0.03,0.09,-0.09,
2.739,-0.32,-0.61,-0.10,-0.02,0.11,-0.08,
2.741,-0.32,-0.61,-0.10,-0.02,0.11,-0.08,
2.743,-0.29,-0.57,-0.05,-0.02,0.11,-0.08,
2.743,-0.29,-0.57,-0.05,-0.02,0.12,-0.07,
2.759,-0.29,-0.57,-0.05,-0.02,0.13,-0.07,
2.76,-0.29,-0.57,-0.05,-0.02,0.13,-0.06,
2.76,-0.29,-0.57,-0.05,-0.01,0.13,-0.05,
2.76,-0.29,-0.57,-0.05,-0.01,0.13,-0.05,
2.76,-0.21,-0.59,0.19,-0.01,0.13,-0.05,
2.76,-0.21,-0.59,0.19,-0.00,0.12,-0.04,
2.76,-0.21,-0.59,0.19,0.00,0.11,-0.04,
2.761,-0.21,-0.59,0.19,0.00,0.10,-0.03,
2.761,-0.21,-0.59,0.19,0.01,0.10,-0.03,
2.783,-0.21,-0.59,0.19,0.01,0.10,-0.03,
2.783,-0.04,-0.64,0.28,0.01,0.10,-0.03,
2.783,-0.04,-0.64,0.28,0.01,0.10,-0.02,
2.783,-0.04,-0.64,0.28,0.01,0.11,-0.02,
2.783,-0.04,-0.64,0.28,0.01,0.11,-0.02,
2.783,-0.04,-0.64,0.28,0.02,0.11,-0.02,
2.783,-0.04,-0.64,0.28,0.02,0.11,-0.02,
2.783,0.02,-0.71,0.24,0.02,0.11,-0.02,
2.784,0.02,-0.71,0.24,0.01,0.10,-0.02,
2.784,0.02,-0.71,0.24,0.01,0.10,-0.02,
2.784,0.02,-0.71,0.24,0.01,0.10,-0.02,
2.784,0.02,-0.71,0.24,0.01,0.09,-0.02,
2.784,0.02,-0.71,0.24,0.01,0.09,-0.02,
2.784,0.04,-0.66,0.20,0.01,0.09,-0.02,
2.784,0.04,-0.66,0.20,0.00,0.08,-0.02,
2.784,0.04,-0.66,0.20,0.00,0.08,-0.02,
2.805,0.04,-0.66,0.20,-0.00,0.08,-0.02,
2.805,0.04,-0.66,0.20,-0.01,0.08,-0.02,
2.805,0.04,-0.66,0.20,-0.01,0.08,-0.02,
2.805,-0.06,-0.58,0.13,-0.01,0.08,-0.02,
2.805,-0.06,-0.58,0.13,-0.01,0.08,-0.01,
2.805,-0.06,-0.58,0.13,-0.01,0.07,-0.01,
2.805,-0.06,-0.58,0.13,-0.01,0.07,-0.01,
2.805,-0.06,-0.58,0.13,-0.01,0.06,-0.01,
2.806,-0.06,-0.58,0.13,-0.01,0.06,-0.00,
2.806,-0.12,-0.45,0.18,-0.01,0.06,-0.00,
2.806,-0.12,-0.45,0.18,-0.01,0.05,-0.00,
2.806,-0.12,-0.45,0.18,-0.01,0.04,-0.00,
2.825,-0.12,-0.45,0.18,-0.01,0.04,-0.00,
2.826,-0.12,-0.45,0.18,-0.01,0.03,0.00,
2.826,-0.12,-0.45,0.18,-0.01,0.03,0.00,
2.827,-0.14,-0.38,0.19,-0.01,0.03,0.00,
2.828,-0.14,-0.38,0.19,-0.01,0.03,0.00,
2.829,-0.14,-0.38,0.19,-0.01,0.02,0.00,
2.831,-0.14,-0.38,0.19,-0.01,0.02,0.00,
2.831,-0.14,-0.38,0.19,-0.01,0.02,0.01,
2.832,-0.14,-0.38,0.19,-0.01,0.01,0.01,
2.832,-0.16,-0.28,0.19,-0.01,0.01,0.01,
2.832,-0.16,-0.28,0.19,-0.01,0.01,0.01,
2.832,-0.16,-0.28,0.19,-0.01,0.01,0.01,
2.832,-0.16,-0.28,0.19,-0.01,0.00,0.01,
2.832,-0.16,-0.28,0.19,-0.01,0.00,0.01,
2.832,-0.16,-0.28,0.19,-0.00,-0.00,0.01,
2.848,-0.22,-0.20,0.24,-0.00,-0.00,0.01,
2.849,-0.22,-0.20,0.24,-0.00,-0.00,0.01,
2.849,-0.22,-0.20,0.24,-0.00,-0.00,0.01,
2.85,-0.22,-0.20,0.24,0.00,-0.01,0.02,
2.85,-0.22,-0.20,0.24,0.01,-0.01,0.02,
2.85,-0.22,-0.20,0.24,0.01,-0.01,0.03,
2.85,-0.30,-0.09,0.20,0.01,-0.01,0.03,
2.851,-0.30,-0.09,0.20,0.02,-0.01,0.03,
2.851,-0.30,-0.09,0.20,0.02,-0.00,0.03,
2.851,-0.30,-0.09,0.20,0.02,-0.00,0.04,
2.851,-0.30,-0.09,0.20,0.03,0.00,0.04,
2.852,-0.30,-0.09,0.20,0.03,0.00,0.04,
2.869,-0.36,-0.03,0.14,0.03,0.00,0.04,
2.87,-0.36,-0.03,0.14,0.03,0.00,0.04,
2.871,-0.36,-0.03,0.14,0.04,0.00,0.05,
2.892,-0.36,-0.03,0.14,0.03,0.00,0.05,
2.892,-0.36,-0.03,0.14,0.04,0.00,0.05,
2.893,-0.36,-0.03,0.14,0.03,0.00,0.05,
2.893,-0.31,0.02,0.03,0.03,0.00,0.05,
2.894,-0.31,0.02,0.03,0.03,0.01,0.05,
2.894,-0.31,0.02,0.03,0.03,0.01,0.05,
2.894,-0.31,0.02,0.03,0.02,0.00,0.06,
2.894,-0.31,0.02,0.03,0.02,0.00,0.06,
2.895,-0.31,0.02,0.03,0.01,0.00,0.06,
2.895,-0.31,0.03,0.05,0.01,0.00,0.06,
2.895,-0.31,0.03,0.05,0.01,-0.00,0.06,
2.895,-0.31,0.03,0.05,0.00,-0.01,0.06,
2.896,-0.31,0.03,0.05,-0.00,-0.01,0.06,
2.896,-0.31,0.03,0.05,-0.01,-0.01,0.06,
2.896,-0.31,0.03,0.05,-0.01,-0.02,0.06,
2.896,-0.20,-0.05,0.15,-0.01,-0.02,0.06,
2.897,-0.20,-0.05,0.15,-0.01,-0.02,0.06,
2.897,-0.20,-0.05,0.15,-0.02,-0.02,0.06,
2.897,-0.20,-0.05,0.15,-0.02,-0.03,0.05,
2.897,-0.20,-0.05,0.15,-0.02,-0.03,0.05,
2.898,-0.20,-0.05,0.15,-0.02,-0.03,0.05,
2.898,-0.18,-0.09,0.31,-0.02,-0.03,0.05,
2.898,-0.18,-0.09,0.31,-0.03,-0.03,0.05,
2.898,-0.18,-0.09,0.31,-0.02,-0.04,0.05,
2.898,-0.18,-0.09,0.31,-0.02,-0.04,0.04,
2.899,-0.18,-0.09,0.31,-0.02,-0.04,0.04,
2.905,-0.18,-0.09,0.31,-0.02,-0.04,0.04,
2.906,-0.24,-0.11,0.39,-0.02,-0.04,0.04,
2.906,-0.24,-0.11,0.39,-0.02,-0.04,0.04,
2.906,-0.24,-0.11,0.39,-0.01,-0.04,0.04,
2.908,-0.24,-0.11,0.39,-0.01,-0.04,0.04,
2.909,-0.24,-0.11,0.39,-0.01,-0.04,0.03,
2.925,-0.24,-0.11,0.39,-0.01,-0.03,0.03,
2.925,-0.31,-0.08,0.41,-0.01,-0.03,0.03,
2.925,-0.31,-0.08,0.41,-0.00,-0.03,0.03,
2.925,-0.31,-0.08,0.41,0.00,-0.02,0.03,
2.926,-0.31,-0.08,0.41,0.01,-0.02,0.03,
2.926,-0.31,-0.08,0.41,0.01,-0.02,0.03,
2.926,-0.31,-0.08,0.41,0.01,-0.01,0.03,
2.926,-0.34,-0.07,0.39,0.01,-0.01,0.03,
2.927,-0.34,-0.07,0.39,0.02,-0.01,0.03,
2.927,-0.34,-0.07,0.39,0.02,-0.01,0.03,
2.927,-0.34,-0.07,0.39,0.02,-0.01,0.02,
2.957,-0.34,-0.07,0.39,0.02,-0.01,0.02,
2.957,-0.34,-0.07,0.39,0.02,-0.01,0.03,
2.958,-0.43,-0.03,0.35,0.02,-0.01,0.03,
2.958,-0.43,-0.03,0.35,0.02,-0.00,0.03,
2.958,-0.43,-0.03,0.35,0.02,-0.00,0.03,
2.958,-0.43,-0.03,0.35,0.02,-0.00,0.02,
2.958,-0.43,-0.03,0.35,0.02,-0.01,0.02,
2.959,-0.43,-0.03,0.35,0.02,-0.01,0.02,
2.959,-0.34,0.02,0.37,0.02,-0.01,0.02,
2.959,-0.34,0.02,0.37,0.02,-0.01,0.02,
2.959,-0.34,0.02,0.37,0.02,-0.01,0.01,
2.959,-0.34,0.02,0.37,0.02,-0.01,0.01,
2.959,-0.34,0.02,0.37,0.02,-0.02,0.01,
2.96,-0.34,0.02,0.37,0.03,-0.01,0.01,
2.96,-0.38,0.01,0.38,0.03,-0.01,0.01,
2.96,-0.38,0.01,0.38,0.03,-0.01,0.01,
2.96,-0.38,0.01,0.38,0.03,-0.01,0.01,
2.96,-0.38,0.01,0.38,0.04,-0.00,0.01,
2.961,-0.38,0.01,0.38,0.04,-0.00,0.01,
2.961,-0.38,0.01,0.38,0.05,0.00,0.00,
2.99,-0.33,-0.00,0.36,0.05,0.00,0.00,
2.992,-0.33,-0.00,0.36,0.05,0.01,0.00,
2.993,-0.33,-0.00,0.36,0.05,0.01,0.00,
2.996,-0.33,-0.00,0.36,0.06,0.01,0.00,
2.997,-0.33,-0.00,0.36,0.07,0.02,0.00,
2.998,-0.33,-0.00,0.36,0.07,0.02,0.00,
2.999,-0.38,-0.06,0.35,0.07,0.02,0.00,
3.0,-0.38,-0.06,0.35,0.08,0.02,0.00,
3.002,-0.38,-0.06,0.35,0.08,0.02,-0.00,
3.004,-0.38,-0.06,0.35,0.08,0.03,-0.00,
3.004,-0.38,-0.06,0.35,0.08,0.03,-0.01,
3.005,-0.38,-0.06,0.35,0.08,0.03,-0.01,
3.007,-0.35,-0.08,0.22,0.08,0.03,-0.01,
3.008,-0.35,-0.08,0.22,0.09,0.03,-0.01,
3.008,-0.35,-0.08,0.22,0.09,0.04,-0.01,
3.009,-0.35,-0.08,0.22,0.08,0.03,-0.02,
3.009,-0.35,-0.08,0.22,0.08,0.03,-0.02,
3.01,-0.35,-0.08,0.22,0.08,0.03,-0.02,
3.01,-0.35,-0.08,0.22,0.07,0.02,-0.02,
3.01,-0.40,-0.08,0.17,0.07,0.02,-0.02,
3.011,-0.40,-0.08,0.17,0.07,0.02,-0.03,
3.012,-0.40,-0.08,0.17,0.06,0.02,-0.03,
3.013,-0.40,-0.08,0.17,0.06,0.01,-0.03,
3.013,-0.40,-0.08,0.17,0.05,0.01,-0.03,
3.014,-0.39,-0.03,0.15,0.05,0.01,-0.03,
3.014,-0.39,-0.03,0.15,0.04,0.01,-0.03,
3.014,-0.39,-0.03,0.15,0.04,0.01,-0.03,
3.015,-0.39,-0.03,0.15,0.03,0.00,-0.03,
3.015,-0.39,-0.03,0.15,0.03,-0.01,-0.03,
3.015,-0.39,-0.03,0.15,0.02,-0.01,-0.03,
3.015,-0.40,-0.01,0.26,0.02,-0.01,-0.03,
3.016,-0.40,-0.01,0.26,0.02,-0.02,-0.02,
3.016,-0.40,-0.01,0.26,0.02,-0.02,-0.02,
3.039,-0.40,-0.01,0.26,0.01,-0.02,-0.02,
3.04,-0.40,-0.01,0.26,0.01,-0.02,-0.02,
3.041,-0.40,-0.01,0.26,0.01,-0.02,-0.02,
3.041,-0.33,-0.05,0.36,0.01,-0.02,-0.02,
3.078,-0.33,-0.05,0.36,0.01,-0.02,-0.02,
3.079,-0.33,-0.05,0.36,0.01,-0.03,-0.02,
3.079,-0.33,-0.05,0.36,0.01,-0.02,-0.02,
3.079,-0.33,-0.05,0.36,0.01,-0.03,-0.01,
3.08,-0.33,-0.05,0.36,0.00,-0.03,-0.01,
3.08,-0.31,-0.15,0.45,0.00,-0.03,-0.01,
3.081,-0.31,-0.15,0.45,0.00,-0.03,-0.01,
3.081,-0.31,-0.15,0.45,0.00,-0.02,-0.01,
3.082,-0.31,-0.15,0.45,-0.00,-0.02,-0.01,
3.082,-0.31,-0.15,0.45,-0.00,-0.01,-0.01,
3.083,-0.31,-0.15,0.45,-0.00,-0.01,-0.01,
3.083,-0.18,-0.19,0.42,-0.00,-0.01,-0.01,
3.083,-0.18,-0.19,0.42,-0.00,-0.00,-0.01,
3.084,-0.18,-0.19,0.42,-0.00,0.00,-0.01,
3.084,-0.18,-0.19,0.42,-0.01,0.01,-0.01,
3.085,-0.18,-0.19,0.42,-0.01,0.02,-0.02,
3.085,-0.18,-0.19,0.42,-0.01,0.03,-0.02,
3.086,-0.14,-0.22,0.47,-0.01,0.03,-0.02,
3.086,-0.14,-0.22,0.47,-0.01,0.04,-0.02,
3.086,-0.14,-0.22,0.47,-0.01,0.05,-0.02,
3.087,-0.14,-0.22,0.47,-0.01,0.06,-0.02,
3.087,-0.14,-0.22,0.47,-0.01,0.08,-0.02,
3.088,-0.14,-0.22,0.47,-0.02,0.14,-0.01,
3.088,-0.23,-0.18,0.08,-0.02,0.14,-0.01,
3.088,-0.23,-0.18,0.08,-0.02,0.20,-0.01,
3.089,-0.23,-0.18,0.08,-0.01,0.26,-0.01,
3.089,-0.23,-0.18,0.08,-0.01,0.33,-0.01,
3.09,-0.23,-0.18,0.08,0.01,0.39,-0.01,
3.09,-0.23,-0.18,0.08,0.03,0.45,-0.02,
3.091,-0.32,-0.42,-0.53,0.03,0.45,-0.02,
3.091,-0.32,-0.42,-0.53,0.05,0.49,-0.02,
3.091,-0.32,-0.42,-0.53,0.07,0.52,-0.03,
3.092,-0.32,-0.42,-0.53,0.10,0.55,-0.03,
3.092,-0.32,-0.42,-0.53,0.13,0.57,-0.04,
3.093,-0.32,-0.42,-0.53,0.15,0.57,-0.05,
3.093,-0.39,-0.13,-0.18,0.15,0.57,-0.05,
3.093,-0.39,-0.13,-0.18,0.18,0.58,-0.05,
3.094,-0.39,-0.13,-0.18,0.20,0.57,-0.05,
3.094,-0.39,-0.13,-0.18,0.21,0.56,-0.04,
3.095,-0.39,-0.13,-0.18,0.23,0.54,-0.04,
3.095,-0.39,-0.13,-0.18,0.23,0.52,-0.03,
3.095,-0.85,0.03,0.28,0.23,0.52,-0.03,
3.096,-0.85,0.03,0.28,0.23,0.49,-0.02,
3.096,-0.85,0.03,0.28,0.23,0.46,-0.01,
3.106,-0.85,0.03,0.28,0.21,0.43,-0.00,
3.107,-0.85,0.03,0.28,0.20,0.39,0.01,
3.107,-0.85,0.03,0.28,0.17,0.34,0.01,
3.107,-1.10,-0.01,0.40,0.17,0.34,0.01,
3.107,-1.10,-0.01,0.40,0.16,0.32,0.02,
3.108,-1.10,-0.01,0.40,0.14,0.28,0.02,
3.11,-1.10,-0.01,0.40,0.12,0.24,0.02,
3.112,-1.10,-0.01,0.40,0.09,0.20,0.01,
3.112,-1.10,-0.01,0.40,0.07,0.16,0.01,
3.114,-0.84,-0.14,0.46,0.07,0.16,0.01,
3.114,-0.84,-0.14,0.46,0.05,0.12,0.00,
3.115,-0.84,-0.14,0.46,0.03,0.09,-0.00,
3.117,-0.84,-0.14,0.46,0.02,0.06,-0.01,
3.119,-0.84,-0.14,0.46,0.01,0.03,-0.01,
3.121,-0.84,-0.14,0.46,-0.00,-0.00,-0.02,
3.124,-0.46,-0.25,0.65,-0.00,-0.00,-0.02,
3.124,-0.46,-0.25,0.65,-0.00,-0.03,-0.02,
3.125,-0.46,-0.25,0.65,-0.01,-0.06,-0.02,
3.129,-0.46,-0.25,0.65,-0.01,-0.09,-0.02,
3.13,-0.46,-0.25,0.65,-0.01,-0.11,-0.02,
3.131,-0.46,-0.25,0.65,-0.01,-0.13,-0.02,
3.134,-0.11,-0.23,0.85,-0.01,-0.13,-0.02,
3.134,-0.11,-0.23,0.85,-0.01,-0.15,-0.02,
3.135,-0.11,-0.23,0.85,-0.01,-0.17,-0.02,
3.137,-0.11,-0.23,0.85,-0.01,-0.19,-0.01,
3.14,-0.11,-0.23,0.85,-0.02,-0.21,-0.01,
3.141,-0.11,-0.23,0.85,-0.02,-0.22,-0.00,
3.163,0.13,-0.31,0.92,-0.02,-0.22,-0.00,
3.163,0.13,-0.31,0.92,-0.03,-0.24,-0.00,
3.163,0.13,-0.31,0.92,-0.03,-0.25,-0.01,
3.163,0.13,-0.31,0.92,-0.04,-0.25,-0.01,
3.164,0.13,-0.31,0.92,-0.04,-0.26,-0.02,
3.164,0.13,-0.31,0.92,-0.04,-0.27,-0.02,
3.164,0.32,-0.34,0.86,-0.04,-0.27,-0.02,
3.164,0.32,-0.34,0.86,-0.05,-0.27,-0.03,
3.164,0.32,-0.34,0.86,-0.05,-0.28,-0.04,
3.165,0.32,-0.34,0.86,-0.05,-0.28,-0.04,
3.165,0.32,-0.34,0.86,-0.06,-0.27,-0.05,
3.165,0.32,-0.34,0.86,-0.06,-0.27,-0.06,
3.165,0.22,-0.37,0.74,-0.06,-0.27,-0.06,
3.165,0.22,-0.37,0.74,-0.06,-0.26,-0.07,
3.166,0.22,-0.37,0.74,-0.06,-0.24,-0.07,
3.167,0.22,-0.37,0.74,-0.06,-0.22,-0.08,
3.169,0.22,-0.37,0.74,-0.06,-0.21,-0.09,
3.171,0.22,-0.37,0.74,-0.05,-0.19,-0.09,
3.174,-0.02,-0.30,0.45,-0.05,-0.19,-0.09,
3.174,-0.02,-0.30,0.45,-0.05,-0.17,-0.10,
3.179,-0.02,-0.30,0.45,-0.05,-0.14,-0.10,
3.179,-0.02,-0.30,0.45,-0.05,-0.12,-0.10,
3.179,-0.02,-0.30,0.45,-0.05,-0.09,-0.09,
3.181,-0.02,-0.30,0.45,-0.04,-0.06,-0.09,
3.183,-0.28,-0.10,0.16,-0.04,-0.06,-0.09,
3.184,-0.28,-0.10,0.16,-0.04,-0.04,-0.08,
3.184,-0.28,-0.10,0.16,-0.03,-0.01,-0.07,
3.187,-0.28,-0.10,0.16,-0.03,0.01,-0.07,
3.189,-0.28,-0.10,0.16,-0.02,0.03,-0.06,
3.209,-0.28,-0.10,0.16,-0.01,0.05,-0.05,
3.209,-0.58,0.01,0.08,-0.01,0.05,-0.05,
3.21,-0.58,0.01,0.08,-0.01,0.07,-0.04,
3.21,-0.58,0.01,0.08,0.00,0.08,-0.04,
3.21,-0.58,0.01,0.08,0.01,0.10,-0.03,
3.211,-0.58,0.01,0.08,0.01,0.11,-0.02,
3.211,-0.58,0.01,0.08,0.02,0.11,-0.02,
3.211,-0.70,0.06,0.07,0.02,0.11,-0.02,
3.211,-0.70,0.06,0.07,0.02,0.12,-0.01,
3.212,-0.70,0.06,0.07,0.03,0.12,-0.00,
3.212,-0.70,0.06,0.07,0.03,0.12,0.00,
3.212,-0.70,0.06,0.07,0.04,0.13,0.01,
3.212,-0.70,0.06,0.07,0.04,0.13,0.01,
3.214,-0.75,-0.02,0.12,0.04,0.13,0.01,
3.214,-0.75,-0.02,0.12,0.04,0.13,0.02,
3.219,-0.75,-0.02,0.12,0.04,0.12,0.02,
3.219,-0.75,-0.02,0.12,0.04,0.11,0.02,
3.22,-0.75,-0.02,0.12,0.04,0.11,0.03,
3.221,-0.75,-0.02,0.12,0.04,0.10,0.03,
3.224,-0.68,-0.15,0.18,0.04,0.10,0.03,
3.224,-0.68,-0.15,0.18,0.04,0.09,0.03,
3.246,-0.68,-0.15,0.18,0.04,0.09,0.03,
3.246,-0.68,-0.15,0.18,0.04,0.08,0.03,
3.246,-0.68,-0.15,0.18,0.04,0.06,0.03,
3.247,-0.68,-0.15,0.18,0.04,0.05,0.03,
3.247,-0.51,-0.20,0.21,0.04,0.05,0.03,
3.247,-0.51,-0.20,0.21,0.04,0.04,0.02,
3.247,-0.51,-0.20,0.21,0.04,0.03,0.02,
3.247,-0.51,-0.20,0.21,0.04,0.02,0.02,
3.247,-0.51,-0.20,0.21,0.04,0.01,0.02,
3.248,-0.51,-0.20,0.21,0.05,-0.00,0.01,
3.248,-0.32,-0.23,0.17,0.05,-0.00,0.01,
3.248,-0.32,-0.23,0.17,0.05,-0.01,0.01,
3.248,-0.32,-0.23,0.17,0.05,-0.02,0.01,
3.248,-0.32,-0.23,0.17,0.05,-0.02,0.00,
3.249,-0.32,-0.23,0.17,0.05,-0.03,-0.00,
3.272,-0.32,-0.23,0.17,0.05,-0.03,-0.01,
3.272,-0.24,-0.22,0.06,0.05,-0.03,-0.01,
3.272,-0.24,-0.22,0.06,0.05,-0.04,-0.01,
3.272,-0.24,-0.22,0.06,0.06,-0.04,-0.01,
3.272,-0.24,-0.22,0.06,0.06,-0.04,-0.02,
3.273,-0.24,-0.22,0.06,0.06,-0.04,-0.02,
3.273,-0.24,-0.22,0.06,0.06,-0.04,-0.02,
3.273,-0.22,-0.14,-0.04,0.06,-0.04,-0.02,
3.273,-0.22,-0.14,-0.04,0.06,-0.04,-0.02,
3.273,-0.22,-0.14,-0.04,0.06,-0.05,-0.02,
3.273,-0.22,-0.14,-0.04,0.06,-0.05,-0.02,
3.273,-0.22,-0.14,-0.04,0.06,-0.06,-0.02,
3.274,-0.22,-0.14,-0.04,0.07,-0.06,-0.02,
3.274,-0.25,-0.03,-0.01,0.07,-0.06,-0.02,
3.274,-0.25,-0.03,-0.01,0.07,-0.06,-0.02,
3.31,-0.25,-0.03,-0.01,0.07,-0.06,-0.01,
3.31,-0.25,-0.03,-0.01,0.07,-0.06,-0.01,
3.31,-0.25,-0.03,-0.01,0.07,-0.07,-0.01,
3.31,-0.25,-0.03,-0.01,0.08,-0.07,-0.00,
3.311,-0.28,0.02,0.07,0.08,-0.07,-0.00,
3.311,-0.28,0.02,0.07,0.08,-0.07,-0.00,
3.311,-0.28,0.02,0.07,0.08,-0.08,0.00,
3.311,-0.28,0.02,0.07,0.08,-0.08,0.00,
3.311,-0.28,0.02,0.07,0.08,-0.09,0.00,
3.311,-0.28,0.02,0.07,0.07,-0.09,0.01,
3.311,-0.24,0.03,0.12,0.07,-0.09,0.01,
3.312,-0.24,0.03,0.12,0.07,-0.10,0.01,
3.312,-0.24,0.03,0.12,0.07,-0.10,0.01,
3.312,-0.24,0.03,0.12,0.06,-0.10,0.01,
3.312,-0.24,0.03,0.12,0.06,-0.11,0.01,
3.312,-0.24,0.03,0.12,0.06,-0.11,0.01,
3.312,-0.15,0.00,0.20,0.06,-0.11,0.01,
3.312,-0.15,0.00,0.20,0.05,-0.12,0.01,
3.313,-0.15,0.00,0.20,0.04,-0.12,0.01,
3.313,-0.15,0.00,0.20,0.04,-0.12,0.01,
3.313,-0.15,0.00,0.20,0.03,-0.13,0.01,
3.313,-0.15,0.00,0.20,0.02,-0.14,0.01,
3.313,-0.13,-0.04,0.29,0.02,-0.14,0.01,
3.313,-0.13,-0.04,0.29,0.01,-0.14,0.01,
3.32,-0.13,-0.04,0.29,0.01,-0.15,0.00,
3.32,-0.13,-0.04,0.29,0.00,-0.15,0.01,
3.321,-0.13,-0.04,0.29,-0.00,-0.16,0.00,
3.321,-0.13,-0.04,0.29,-0.01,-0.16,0.00,
3.324,-0.06,-0.15,0.42,-0.01,-0.16,0.00,
3.325,-0.06,-0.15,0.42,-0.01,-0.16,0.00,
3.325,-0.06,-0.15,0.42,-0.02,-0.16,0.00,
3.329,-0.06,-0.15,0.42,-0.02,-0.15,-0.00,
3.33,-0.06,-0.15,0.42,-0.02,-0.14,-0.00,
3.33,-0.06,-0.15,0.42,-0.03,-0.14,-0.00,
3.333,-0.15,-0.14,0.45,-0.03,-0.14,-0.00,
3.333,-0.15,-0.14,0.45,-0.03,-0.13,-0.00,
3.335,-0.15,-0.14,0.45,-0.03,-0.12,-0.00,
3.337,-0.15,-0.14,0.45,-0.03,-0.11,-0.01,
3.339,-0.15,-0.14,0.45,-0.03,-0.10,-0.01,
3.348,-0.15,-0.14,0.45,-0.03,-0.09,-0.01,
3.348,-0.21,-0.05,0.44,-0.03,-0.09,-0.01,
3.349,-0.21,-0.05,0.44,-0.02,-0.08,-0.01,
3.349,-0.21,-0.05,0.44,-0.02,-0.08,-0.01,
3.349,-0.21,-0.05,0.44,-0.02,-0.06,-0.01,
3.349,-0.21,-0.05,0.44,-0.01,-0.05,-0.01,
3.351,-0.21,-0.05,0.44,-0.01,-0.05,-0.01,
3.353,-0.30,-0.03,0.46,-0.01,-0.05,-0.01,
3.354,-0.30,-0.03,0.46,-0.01,-0.04,-0.01,
3.354,-0.30,-0.03,0.46,-0.01,-0.03,-0.01,
3.371,-0.30,-0.03,0.46,-0.00,-0.02,-0.01,
3.372,-0.30,-0.03,0.46,-0.00,-0.01,-0.01,
3.372,-0.30,-0.03,0.46,-0.00,0.00,-0.01,
3.372,-0.27,0.05,0.36,-0.00,0.00,-0.01,
3.372,-0.27,0.05,0.36,-0.00,0.00,-0.01,
3.373,-0.27,0.05,0.36,-0.00,0.01,-0.01,
3.373,-0.27,0.05,0.36,-0.00,0.02,-0.02,
3.373,-0.27,0.05,0.36,-0.01,0.02,-0.02,
3.373,-0.27,0.05,0.36,-0.01,0.02,-0.03,
3.373,-0.16,0.08,0.14,-0.01,0.02,-0.03,
3.374,-0.16,0.08,0.14,-0.02,0.01,-0.04,
3.387,-0.16,0.08,0.14,-0.03,0.01,-0.05,
3.388,-0.16,0.08,0.14,-0.03,0.01,-0.07,
3.388,-0.16,0.08,0.14,-0.04,0.01,-0.08,
3.388,-0.16,0.08,0.14,-0.04,-0.00,-0.09,
3.388,-0.01,-0.04,0.03,-0.04,-0.00,-0.09,
3.389,-0.01,-0.04,0.03,-0.05,-0.01,-0.10,
3.389,-0.01,-0.04,0.03,-0.05,-0.02,-0.11,
3.389,-0.01,-0.04,0.03,-0.06,-0.04,-0.11,
3.389,-0.01,-0.04,0.03,-0.07,-0.06,-0.12,
3.392,-0.01,-0.04,0.03,-0.08,-0.08,-0.12,
3.394,-0.13,-0.07,0.00,-0.08,-0.08,-0.12,
3.394,-0.13,-0.07,0.00,-0.08,-0.09,-0.13,
3.394,-0.13,-0.07,0.00,-0.09,-0.10,-0.13,
3.397,-0.13,-0.07,0.00,-0.11,-0.09,-0.13,
3.398,-0.13,-0.07,0.00,-0.12,-0.09,-0.14,
3.401,-0.13,-0.07,0.00,-0.13,-0.08,-0.14,
3.403,-0.43,0.13,-0.12,-0.13,-0.08,-0.14,
3.403,-0.43,0.13,-0.12,-0.14,-0.07,-0.14,
3.404,-0.43,0.13,-0.12,-0.14,-0.07,-0.15,
3.407,-0.43,0.13,-0.12,-0.15,-0.07,-0.15,
3.409,-0.43,0.13,-0.12,-0.16,-0.07,-0.15,
3.411,-0.43,0.13,-0.12,-0.16,-0.07,-0.15,
3.413,-0.52,0.11,-0.07,-0.16,-0.07,-0.15,
3.413,-0.52,0.11,-0.07,-0.17,-0.07,-0.15,
3.414,-0.52,0.11,-0.07,-0.17,-0.08,-0.15,
3.417,-0.52,0.11,-0.07,-0.18,-0.08,-0.15,
3.418,-0.52,0.11,-0.07,-0.18,-0.07,-0.14,
3.42,-0.52,0.11,-0.07,-0.18,-0.06,-0.14,
3.423,-0.54,0.05,-0.05,-0.18,-0.06,-0.14,
3.423,-0.54,0.05,-0.05,-0.18,-0.05,-0.14,
3.425,-0.54,0.05,-0.05,-0.18,-0.04,-0.13,
3.427,-0.54,0.05,-0.05,-0.19,-0.03,-0.13,
3.428,-0.54,0.05,-0.05,-0.19,-0.02,-0.12,
3.43,-0.54,0.05,-0.05,-0.19,-0.01,-0.12,
3.433,-0.39,-0.05,0.00,-0.19,-0.01,-0.12,
3.433,-0.39,-0.05,0.00,-0.19,0.00,-0.12,
3.434,-0.39,-0.05,0.00,-0.19,0.01,-0.11,
3.437,-0.39,-0.05,0.00,-0.19,0.02,-0.10,
3.438,-0.39,-0.05,0.00,-0.18,0.03,-0.10,
3.441,-0.39,-0.05,0.00,-0.18,0.04,-0.09,
3.443,-0.44,0.02,0.13,-0.18,0.04,-0.09,
3.443,-0.44,0.02,0.13,-0.18,0.04,-0.08,
3.445,-0.44,0.02,0.13,-0.18,0.05,-0.08,
3.447,-0.44,0.02,0.13,-0.18,0.05,-0.08,
3.448,-0.44,0.02,0.13,-0.19,0.05,-0.07,
3.45,-0.44,0.02,0.13,-0.18,0.06,-0.07,
3.453,-0.34,-0.02,0.13,-0.18,0.06,-0.07,
3.453,-0.34,-0.02,0.13,-0.18,0.06,-0.06,
3.454,-0.34,-0.02,0.13,-0.18,0.06,-0.06,
3.457,-0.34,-0.02,0.13,-0.19,0.07,-0.05,
3.459,-0.34,-0.02,0.13,-0.19,0.08,-0.05,
3.461,-0.34,-0.02,0.13,-0.18,0.09,-0.04,
3.463,-0.41,-0.03,0.17,-0.18,0.09,-0.04,
3.463,-0.41,-0.03,0.17,-0.18,0.10,-0.04,
3.464,-0.41,-0.03,0.17,-0.18,0.10,-0.04,
3.467,-0.41,-0.03,0.17,-0.18,0.11,-0.04,
3.469,-0.41,-0.03,0.17,-0.17,0.11,-0.04,
3.47,-0.41,-0.03,0.17,-0.17,0.11,-0.04,
3.473,-0.33,-0.13,0.19,-0.17,0.11,-0.04,
3.473,-0.33,-0.13,0.19,-0.17,0.11,-0.04,
3.487,-0.33,-0.13,0.19,-0.17,0.11,-0.04,
3.488,-0.33,-0.13,0.19,-0.17,0.12,-0.05,
3.488,-0.33,-0.13,0.19,-0.17,0.12,-0.05,
3.488,-0.33,-0.13,0.19,-0.16,0.13,-0.04,
3.489,-0.29,-0.21,0.20,-0.16,0.13,-0.04,
3.489,-0.29,-0.21,0.20,-0.16,0.14,-0.04,
3.49,-0.29,-0.21,0.20,-0.15,0.15,-0.04,
3.49,-0.29,-0.21,0.20,-0.15,0.16,-0.04,
3.49,-0.29,-0.21,0.20,-0.14,0.17,-0.03,
3.493,-0.29,-0.21,0.20,-0.14,0.17,-0.03,
3.495,-0.28,-0.27,0.32,-0.14,0.17,-0.03,
3.495,-0.28,-0.27,0.32,-0.13,0.17,-0.02,
3.496,-0.28,-0.27,0.32,-0.12,0.17,-0.02,
3.497,-0.28,-0.27,0.32,-0.11,0.17,-0.02,
3.499,-0.28,-0.27,0.32,-0.11,0.17,-0.02,
3.501,-0.28,-0.27,0.32,-0.11,0.17,-0.02,
3.503,-0.18,-0.29,0.26,-0.11,0.17,-0.02,
3.503,-0.18,-0.29,0.26,-0.10,0.16,-0.01,
3.504,-0.18,-0.29,0.26,-0.11,0.15,-0.02,
3.507,-0.18,-0.29,0.26,-0.11,0.14,-0.02,
3.509,-0.18,-0.29,0.26,-0.11,0.14,-0.02,
3.511,-0.18,-0.29,0.26,-0.12,0.13,-0.02,
3.513,-0.13,-0.31,0.12,-0.12,0.13,-0.02,
3.513,-0.13,-0.31,0.12,-0.13,0.12,-0.02,
3.515,-0.13,-0.31,0.12,-0.13,0.12,-0.02,
3.517,-0.13,-0.31,0.12,-0.14,0.12,-0.02,
3.518,-0.13,-0.31,0.12,-0.15,0.12,-0.01,
3.52,-0.13,-0.31,0.12,-0.15,0.12,-0.01,
3.523,-0.30,-0.26,0.14,-0.15,0.12,-0.01,
3.546,-0.30,-0.26,0.14,-0.16,0.11,-0.00,
3.547,-0.30,-0.26,0.14,-0.17,0.11,-0.00,
3.547,-0.30,-0.26,0.14,-0.17,0.10,0.00,
3.547,-0.30,-0.26,0.14,-0.18,0.10,0.01,
3.548,-0.30,-0.26,0.14,-0.18,0.09,0.01,
3.548,-0.32,-0.23,0.22,-0.18,0.09,0.01,
3.549,-0.32,-0.23,0.22,-0.18,0.09,0.01,
3.549,-0.32,-0.23,0.22,-0.19,0.09,0.01,
3.549,-0.32,-0.23,0.22,-0.19,0.09,0.01,
3.55,-0.32,-0.23,0.22,-0.19,0.09,0.01,
3.55,-0.32,-0.23,0.22,-0.19,0.09,0.01,
3.55,-0.27,-0.21,0.32,-0.19,0.09,0.01,
3.551,-0.27,-0.21,0.32,-0.19,0.08,0.01,
3.551,-0.27,-0.21,0.32,-0.18,0.08,0.01,
3.551,-0.27,-0.21,0.32,-0.18,0.08,0.01,
3.552,-0.27,-0.21,0.32,-0.18,0.08,0.01,
3.552,-0.27,-0.21,0.32,-0.17,0.08,0.01,
3.561,-0.18,-0.26,0.34,-0.17,0.08,0.01,
3.561,-0.18,-0.26,0.34,-0.17,0.07,0.01,
3.561,-0.18,-0.26,0.34,-0.16,0.07,0.00,
3.561,-0.18,-0.26,0.34,-0.16,0.07,0.00,
3.561,-0.18,-0.26,0.34,-0.15,0.08,-0.00,
3.562,-0.18,-0.26,0.34,-0.14,0.08,-0.00,
3.565,-0.07,-0.39,0.34,-0.14,0.08,-0.00,
3.565,-0.07,-0.39,0.34,-0.14,0.08,-0.00,
3.565,-0.07,-0.39,0.34,-0.13,0.09,-0.00,
3.566,-0.07,-0.39,0.34,-0.13,0.09,-0.00,
3.568,-0.07,-0.39,0.34,-0.12,0.10,-0.00,
3.57,-0.07,-0.39,0.34,-0.12,0.10,0.00,
3.573,-0.15,-0.37,0.32,-0.12,0.10,0.00,
3.573,-0.15,-0.37,0.32,-0.11,0.11,0.01,
3.574,-0.15,-0.37,0.32,-0.11,0.12,0.01,
3.577,-0.15,-0.37,0.32,-0.11,0.12,0.02,
3.578,-0.15,-0.37,0.32,-0.11,0.13,0.03,
3.58,-0.15,-0.37,0.32,-0.12,0.13,0.04,
3.583,-0.30,-0.18,0.23,-0.12,0.13,0.04,
3.583,-0.30,-0.18,0.23,-0.12,0.14,0.05,
3.584,-0.30,-0.18,0.23,-0.12,0.14,0.06,
3.587,-0.30,-0.18,0.23,-0.13,0.14,0.08,
3.588,-0.30,-0.18,0.23,-0.13,0.14,0.09,
3.591,-0.30,-0.18,0.23,-0.13,0.14,0.10,
3.593,-0.41,-0.00,0.27,-0.13,0.14,0.10,
3.594,-0.41,-0.00,0.27,-0.13,0.14,0.11,
3.594,-0.41,-0.00,0.27,-0.13,0.14,0.12,
3.599,-0.41,-0.00,0.27,-0.14,0.15,0.13,
3.599,-0.41,-0.00,0.27,-0.14,0.15,0.13,
3.603,-0.41,-0.00,0.27,-0.14,0.15,0.14,
3.603,-0.31,0.04,0.22,-0.14,0.15,0.14,
3.603,-0.31,0.04,0.22,-0.15,0.15,0.15,
3.605,-0.31,0.04,0.22,-0.15,0.15,0.15,
3.624,-0.31,0.04,0.22,-0.15,0.16,0.16,
3.625,-0.31,0.04,0.22,-0.16,0.16,0.17,
3.625,-0.31,0.04,0.22,-0.16,0.15,0.17,
3.626,-0.27,-0.04,0.23,-0.16,0.15,0.17,
3.626,-0.27,-0.04,0.23,-0.16,0.15,0.17,
3.627,-0.27,-0.04,0.23,-0.16,0.14,0.17,
3.627,-0.27,-0.04,0.23,-0.16,0.14,0.18,
3.628,-0.27,-0.04,0.23,-0.16,0.14,0.18,
3.628,-0.27,-0.04,0.23,-0.17,0.15,0.18,
3.63,-0.32,-0.07,0.23,-0.17,0.15,0.18,
3.63,-0.32,-0.07,0.23,-0.17,0.17,0.18,
3.63,-0.32,-0.07,0.23,-0.17,0.18,0.18,
3.63,-0.32,-0.07,0.23,-0.17,0.18,0.18,
3.631,-0.32,-0.07,0.23,-0.17,0.18,0.18,
3.631,-0.32,-0.07,0.23,-0.17,0.18,0.18,
3.649,-0.32,-0.11,0.36,-0.17,0.18,0.18,
3.649,-0.32,-0.11,0.36,-0.17,0.18,0.19,
3.65,-0.32,-0.11,0.36,-0.17,0.19,0.19,
3.65,-0.32,-0.11,0.36,-0.16,0.19,0.19,
3.65,-0.32,-0.11,0.36,-0.16,0.19,0.19,
3.65,-0.32,-0.11,0.36,-0.16,0.18,0.20,
3.65,-0.44,-0.01,0.32,-0.16,0.18,0.20,
3.65,-0.44,-0.01,0.32,-0.16,0.17,0.20,
3.651,-0.44,-0.01,0.32,-0.16,0.16,0.21,
3.651,-0.44,-0.01,0.32,-0.16,0.15,0.21,
3.651,-0.44,-0.01,0.32,-0.16,0.14,0.22,
3.651,-0.44,-0.01,0.32,-0.17,0.12,0.22,
3.656,-0.45,0.12,0.23,-0.17,0.12,0.22,
3.657,-0.45,0.12,0.23,-0.16,0.11,0.22,
3.657,-0.45,0.12,0.23,-0.16,0.11,0.23,
3.658,-0.45,0.12,0.23,-0.17,0.11,0.23,
3.659,-0.45,0.12,0.23,-0.17,0.11,0.23,
3.661,-0.45,0.12,0.23,-0.18,0.11,0.24,
3.663,-0.40,0.00,0.11,-0.18,0.11,0.24,
3.663,-0.40,0.00,0.11,-0.18,0.12,0.25,
3.665,-0.40,0.00,0.11,-0.18,0.12,0.25,
3.667,-0.40,0.00,0.11,-0.18,0.12,0.26,
3.669,-0.40,0.00,0.11,-0.18,0.12,0.26,
3.671,-0.40,0.00,0.11,-0.19,0.12,0.27,
3.673,-0.42,-0.07,0.09,-0.19,0.12,0.27,
3.674,-0.42,-0.07,0.09,-0.19,0.11,0.27,
3.675,-0.42,-0.07,0.09,-0.19,0.10,0.27,
3.677,-0.42,-0.07,0.09,-0.19,0.09,0.26,
3.679,-0.42,-0.07,0.09,-0.19,0.08,0.26,
3.681,-0.42,-0.07,0.09,-0.20,0.07,0.25,
3.683,-0.20,-0.01,0.20,-0.20,0.07,0.25,
3.684,-0.20,-0.01,0.20,-0.19,0.05,0.24,
3.685,-0.20,-0.01,0.20,-0.19,0.04,0.23,
3.687,-0.20,-0.01,0.20,-0.19,0.04,0.21,
3.688,-0.20,-0.01,0.20,-0.19,0.04,0.20,
3.72,-0.20,-0.01,0.20,-0.19,0.04,0.19,
3.726,-0.03,0.04,0.34,-0.19,0.04,0.19,
3.727,-0.03,0.04,0.34,-0.19,0.04,0.17,
3.727,-0.03,0.04,0.34,-0.18,0.03,0.16,
3.728,-0.03,0.04,0.34,-0.19,0.03,0.15,
3.728,-0.03,0.04,0.34,-0.19,0.01,0.13,
3.728,-0.03,0.04,0.34,-0.20,0.01,0.13,
3.729,-0.05,0.06,0.18,-0.20,0.01,0.13,
3.729,-0.05,0.06,0.18,-0.21,0.01,0.12,
3.729,-0.05,0.06,0.18,-0.21,0.01,0.11,
3.729,-0.05,0.06,0.18,-0.22,0.01,0.11,
3.73,-0.05,0.06,0.18,-0.23,0.01,0.10,
3.73,-0.05,0.06,0.18,-0.24,0.01,0.10,
3.73,-0.30,0.10,0.11,-0.24,0.01,0.10,
3.73,-0.30,0.10,0.11,-0.25,0.00,0.10,
3.731,-0.30,0.10,0.11,-0.26,-0.00,0.10,
3.731,-0.30,0.10,0.11,-0.27,0.00,0.11,
3.731,-0.30,0.10,0.11,-0.28,0.02,0.11,
3.731,-0.30,0.10,0.11,-0.29,0.04,0.11,
3.732,-0.41,0.09,0.10,-0.29,0.04,0.11,
3.732,-0.41,0.09,0.10,-0.30,0.05,0.12,
3.732,-0.41,0.09,0.10,-0.31,0.05,0.13,
3.732,-0.41,0.09,0.10,-0.32,0.04,0.13,
3.733,-0.41,0.09,0.10,-0.33,0.02,0.14,
3.733,-0.41,0.09,0.10,-0.34,0.01,0.14,
3.733,-0.44,0.05,0.07,-0.34,0.01,0.14,
3.733,-0.44,0.05,0.07,-0.36,0.00,0.15,
3.743,-0.44,0.05,0.07,-0.36,0.00,0.16,
3.743,-0.44,0.05,0.07,-0.37,0.00,0.17,
3.744,-0.44,0.05,0.07,-0.38,-0.00,0.18,
3.744,-0.44,0.05,0.07,-0.39,-0.01,0.18,
3.744,-0.68,0.23,0.13,-0.39,-0.01,0.18,
3.745,-0.68,0.23,0.13,-0.40,-0.01,0.19,
3.745,-0.68,0.23,0.13,-0.40,-0.01,0.20,
3.75,-0.68,0.23,0.13,-0.41,-0.01,0.21,
3.75,-0.68,0.23,0.13,-0.41,-0.01,0.21,
3.751,-0.68,0.23,0.13,-0.42,0.00,0.22,
3.755,-0.73,0.38,0.21,-0.42,0.00,0.22,
3.756,-0.73,0.38,0.21,-0.43,0.01,0.23,
3.756,-0.73,0.38,0.21,-0.44,0.01,0.24,
3.762,-0.73,0.38,0.21,-0.44,0.01,0.25,
3.762,-0.73,0.38,0.21,-0.46,0.01,0.26,
3.762,-0.73,0.38,0.21,-0.46,-0.00,0.27,
3.763,-0.71,0.57,0.03,-0.46,-0.00,0.27,
3.763,-0.71,0.57,0.03,-0.48,-0.01,0.28,
3.767,-0.71,0.57,0.03,-0.49,-0.02,0.30,
3.767,-0.71,0.57,0.03,-0.51,-0.04,0.31,
3.772,-0.71,0.57,0.03,-0.54,-0.05,0.32,
3.772,-0.71,0.57,0.03,-0.56,-0.05,0.34,
3.78,-0.80,0.73,-0.35,-0.56,-0.05,0.34,
3.78,-0.80,0.73,-0.35,-0.58,-0.06,0.35,
3.781,-0.80,0.73,-0.35,-0.61,-0.08,0.36,
3.781,-0.80,0.73,-0.35,-0.64,-0.10,0.37,
3.781,-0.80,0.73,-0.35,-0.67,-0.12,0.39,
3.781,-0.80,0.73,-0.35,-0.70,-0.13,0.40,
3.783,-1.03,0.73,-0.63,-0.70,-0.13,0.40,
3.783,-1.03,0.73,-0.63,-0.73,-0.15,0.41,
3.785,-1.03,0.73,-0.63,-0.76,-0.18,0.42,
3.787,-1.03,0.73,-0.63,-0.80,-0.20,0.43,
3.824,-1.03,0.73,-0.63,-0.83,-0.23,0.44,
3.825,-1.03,0.73,-0.63,-0.87,-0.27,0.45,
3.825,-1.12,0.50,-0.74,-0.87,-0.27,0.45,
3.825,-1.12,0.50,-0.74,-0.90,-0.30,0.45,
3.825,-1.12,0.50,-0.74,-0.93,-0.32,0.45,
3.825,-1.12,0.50,-0.74,-0.97,-0.34,0.45,
3.825,-1.12,0.50,-0.74,-1.00,-0.36,0.45,
3.826,-1.12,0.50,-0.74,-1.03,-0.38,0.45,
3.826,-1.10,0.32,-0.78,-1.03,-0.38,0.45,
3.827,-1.10,0.32,-0.78,-1.06,-0.39,0.46,
3.827,-1.10,0.32,-0.78,-1.09,-0.39,0.46,
3.827,-1.10,0.32,-0.78,-1.12,-0.40,0.46,
3.828,-1.10,0.32,-0.78,-1.14,-0.41,0.47,
3.828,-1.10,0.32,-0.78,-1.16,-0.42,0.46,
3.828,-0.78,0.12,-0.54,-1.16,-0.42,0.46,
3.829,-0.78,0.12,-0.54,-1.18,-0.41,0.46,
3.829,-0.78,0.12,-0.54,-1.19,-0.41,0.46,
3.83,-0.78,0.12,-0.54,-1.19,-0.42,0.44,
3.83,-0.78,0.12,-0.54,-1.20,-0.41,0.43,
3.83,-0.78,0.12,-0.54,-1.21,-0.41,0.41,
3.831,0.13,-0.06,-0.24,-1.21,-0.41,0.41,
3.831,0.13,-0.06,-0.24,-1.21,-0.41,0.40,
3.831,0.13,-0.06,-0.24,-1.20,-0.42,0.39,
3.831,0.13,-0.06,-0.24,-1.20,-0.42,0.38,
3.832,0.13,-0.06,-0.24,-1.19,-0.42,0.38,
3.832,0.13,-0.06,-0.24,-1.18,-0.42,0.37,
3.835,0.02,0.02,0.10,-1.18,-0.42,0.37,
3.835,0.02,0.02,0.10,-1.17,-0.42,0.37,
3.835,0.02,0.02,0.10,-1.15,-0.40,0.38,
3.837,0.02,0.02,0.10,-1.14,-0.38,0.38,
3.839,0.02,0.02,0.10,-1.13,-0.36,0.39,
3.841,0.02,0.02,0.10,-1.12,-0.34,0.41,
3.845,-0.33,0.03,0.33,-1.12,-0.34,0.41,
3.845,-0.33,0.03,0.33,-1.11,-0.31,0.42,
3.846,-0.33,0.03,0.33,-1.10,-0.27,0.43,
3.847,-0.33,0.03,0.33,-1.09,-0.23,0.44,
3.849,-0.33,0.03,0.33,-1.08,-0.19,0.45,
3.851,-0.33,0.03,0.33,-1.07,-0.15,0.46,
3.853,-0.13,-0.07,0.40,-1.07,-0.15,0.46,
3.854,-0.13,-0.07,0.40,-1.07,-0.11,0.47,
3.855,-0.13,-0.07,0.40,-1.06,-0.06,0.48,
3.874,-0.13,-0.07,0.40,-1.05,-0.04,0.49,
3.874,-0.13,-0.07,0.40,-1.05,-0.02,0.50,
3.875,-0.13,-0.07,0.40,-1.05,-0.00,0.51,
3.875,-0.21,-0.09,0.47,-1.05,-0.00,0.51,
3.875,-0.21,-0.09,0.47,-1.05,0.01,0.51,
3.875,-0.21,-0.09,0.47,-1.04,0.02,0.52,
3.875,-0.21,-0.09,0.47,-1.04,0.03,0.54,
3.876,-0.21,-0.09,0.47,-1.04,0.04,0.55,
3.876,-0.21,-0.09,0.47,-1.04,0.06,0.56,
3.876,-0.71,-0.03,0.44,-1.04,0.06,0.56,
3.876,-0.71,-0.03,0.44,-1.05,0.06,0.57,
3.877,-0.71,-0.03,0.44,-1.06,0.07,0.58,
3.877,-0.71,-0.03,0.44,-1.07,0.07,0.59,
3.881,-0.71,-0.03,0.44,-1.07,0.07,0.61,
3.881,-0.71,-0.03,0.44,-1.08,0.07,0.63,
3.883,-1.09,0.32,0.51,-1.08,0.07,0.63,
3.883,-1.09,0.32,0.51,-1.08,0.06,0.64,
3.885,-1.09,0.32,0.51,-1.08,0.05,0.66,
3.887,-1.09,0.32,0.51,-1.08,0.05,0.68,
3.895,-1.09,0.32,0.51,-1.08,0.04,0.70,
3.895,-1.09,0.32,0.51,-1.08,0.04,0.72,
3.895,-1.13,0.71,0.39,-1.08,0.04,0.72,
3.895,-1.13,0.71,0.39,-1.09,0.03,0.73,
3.896,-1.13,0.71,0.39,-1.09,0.04,0.75,
3.897,-1.13,0.71,0.39,-1.10,0.04,0.76,
3.899,-1.13,0.71,0.39,-1.11,0.04,0.78,
3.901,-1.13,0.71,0.39,-1.13,0.03,0.79,
3.903,-0.69,1.26,-0.29,-1.13,0.03,0.79,
3.904,-0.69,1.26,-0.29,-1.15,0.02,0.80,
3.938,-0.69,1.26,-0.29,-1.18,0.01,0.81,
3.938,-0.69,1.26,-0.29,-1.20,-0.01,0.82,
3.938,-0.69,1.26,-0.29,-1.24,-0.02,0.82,
3.938,-0.69,1.26,-0.29,-1.27,-0.03,0.83,
3.938,-0.61,2.01,-0.68,-1.27,-0.03,0.83,
3.939,-0.61,2.01,-0.68,-1.29,-0.04,0.84,
3.939,-0.61,2.01,-0.68,-1.31,-0.05,0.84,
3.939,-0.61,2.01,-0.68,-1.34,-0.07,0.85,
3.939,-0.61,2.01,-0.68,-1.37,-0.09,0.85,
3.939,-0.61,2.01,-0.68,-1.39,-0.12,0.84,
3.939,-0.26,2.35,-0.66,-1.39,-0.12,0.84,
3.939,-0.26,2.35,-0.66,-1.41,-0.15,0.82,
3.939,-0.26,2.35,-0.66,-1.42,-0.17,0.79,
3.94,-0.26,2.35,-0.66,-1.42,-0.18,0.77,
3.94,-0.26,2.35,-0.66,-1.43,-0.19,0.75,
3.94,-0.26,2.35,-0.66,-1.43,-0.21,0.73,
3.94,-0.03,2.14,0.04,-1.43,-0.21,0.73,
3.94,-0.03,2.14,0.04,-1.43,-0.21,0.70,
3.94,-0.03,2.14,0.04,-1.40,-0.20,0.67,
3.94,-0.03,2.14,0.04,-1.37,-0.19,0.65,
3.94,-0.03,2.14,0.04,-1.34,-0.17,0.63,
3.943,-0.03,2.14,0.04,-1.29,-0.15,0.62,
3.943,-0.21,0.76,1.59,-1.29,-0.15,0.62,
3.943,-0.21,0.76,1.59,-1.24,-0.13,0.60,
3.946,-0.21,0.76,1.59,-1.18,-0.11,0.58,
3.947,-0.21,0.76,1.59,-1.12,-0.09,0.56,
3.95,-0.21,0.76,1.59,-1.07,-0.07,0.53,
3.951,-0.21,0.76,1.59,-1.00,-0.06,0.50,
3.954,0.62,-0.89,1.79,-1.00,-0.06,0.50,
3.955,0.62,-0.89,1.79,-0.94,-0.06,0.47,
3.955,0.62,-0.89,1.79,-0.89,-0.05,0.45,
3.972,0.62,-0.89,1.79,-0.79,-0.02,0.39,
3.974,0.62,-0.89,1.79,-0.77,-0.01,0.38,
3.975,0.62,-0.89,1.79,-0.74,-0.00,0.37,
3.976,1.25,-2.15,1.12,-0.74,-0.00,0.37,
3.976,1.25,-2.15,1.12,-0.69,0.01,0.35,
3.977,1.25,-2.15,1.12,-0.64,0.01,0.35,
3.977,1.25,-2.15,1.12,-0.59,0.01,0.34,
3.978,1.25,-2.15,1.12,-0.55,-0.01,0.35,
3.978,1.25,-2.15,1.12,-0.51,-0.04,0.36,
3.98,0.70,-2.33,1.09,-0.51,-0.04,0.36,
3.981,0.70,-2.33,1.09,-0.46,-0.06,0.38,
3.981,0.70,-2.33,1.09,-0.43,-0.09,0.40,
3.981,0.70,-2.33,1.09,-0.40,-0.12,0.42,
3.982,0.70,-2.33,1.09,-0.37,-0.14,0.46,
3.982,0.70,-2.33,1.09,-0.36,-0.17,0.48,
3.983,-0.11,-1.66,0.60,-0.36,-0.17,0.48,
3.983,-0.11,-1.66,0.60,-0.35,-0.19,0.52,
3.989,-0.11,-1.66,0.60,-0.35,-0.22,0.56,
3.993,-0.11,-1.66,0.60,-0.37,-0.27,0.68,
3.993,-0.11,-1.66,0.60,-0.37,-0.27,0.68,
3.993,-0.11,-1.66,0.60,-0.37,-0.27,0.68,
3.993,-0.11,-1.66,0.60,-0.40,-0.31,0.74,
3.996,-0.75,-0.63,-0.07,-0.40,-0.31,0.74,
3.997,-0.75,-0.63,-0.07,-0.41,-0.32,0.76,
3.997,-0.75,-0.63,-0.07,-0.45,-0.35,0.81,
3.999,-0.75,-0.63,-0.07,-0.46,-0.37,0.84,
4.001,-0.75,-0.63,-0.07,-0.49,-0.39,0.88,
4.004,-0.74,0.39,-0.26,-0.49,-0.39,0.88,
4.005,-0.74,0.39,-0.26,-0.52,-0.40,0.91,
4.009,-0.74,0.39,-0.26,-0.56,-0.42,0.94,
4.009,-0.74,0.39,-0.26,-0.60,-0.44,0.98,
4.009,-0.74,0.39,-0.26,-0.64,-0.45,1.01,
4.013,-0.74,0.39,-0.26,-0.69,-0.46,1.03,
4.013,-0.60,1.07,-0.54,-0.69,-0.46,1.03,
4.013,-0.60,1.07,-0.54,-0.74,-0.46,1.06,
4.016,-0.60,1.07,-0.54,-0.79,-0.47,1.07,
4.016,-0.60,1.07,-0.54,-0.87,-0.47,1.10,
4.02,-0.60,1.07,-0.54,-0.90,-0.47,1.10,
4.02,-0.60,1.07,-0.54,-0.96,-0.48,1.11,
4.027,-0.27,1.33,-0.84,-0.96,-0.48,1.11,
4.047,-0.27,1.33,-0.84,-1.02,-0.49,1.13,
4.047,-0.27,1.33,-0.84,-1.09,-0.49,1.14,
4.047,-0.27,1.33,-0.84,-1.18,-0.49,1.15,
4.047,-0.27,1.33,-0.84,-1.21,-0.49,1.16,
4.048,-0.27,1.33,-0.84,-1.27,-0.50,1.16,
4.048,-0.03,1.31,-0.78,-1.27,-0.50,1.16,
4.048,-0.03,1.31,-0.78,-1.33,-0.50,1.16,
4.049,-0.03,1.31,-0.78,-1.39,-0.52,1.16,
4.049,-0.03,1.31,-0.78,-1.45,-0.53,1.16,
4.049,-0.03,1.31,-0.78,-1.51,-0.56,1.15,
4.049,-0.03,1.31,-0.78,-1.58,-0.60,1.14,
4.05,0.27,1.31,-0.82,-1.58,-0.60,1.14,
4.05,0.27,1.31,-0.82,-1.63,-0.66,1.13,
4.05,0.27,1.31,-0.82,-1.69,-0.73,1.12,
4.05,0.27,1.31,-0.82,-1.75,-0.81,1.10,
4.051,0.27,1.31,-0.82,-1.80,-0.89,1.09,
4.051,0.27,1.31,-0.82,-1.85,-0.99,1.07,
4.054,0.39,1.39,-0.32,-1.85,-0.99,1.07,
4.054,0.39,1.39,-0.32,-1.88,-1.08,1.06,
4.061,0.39,1.39,-0.32,-1.92,-1.17,1.05,
4.062,0.39,1.39,-0.32,-1.96,-1.30,1.05,
4.062,0.39,1.39,-0.32,-1.97,-1.35,1.05,
4.062,0.39,1.39,-0.32,-1.99,-1.44,1.05,
4.063,0.15,1.58,0.55,-1.99,-1.44,1.05,
4.064,0.15,1.58,0.55,-2.00,-1.54,1.05,
4.064,0.15,1.58,0.55,-2.00,-1.65,1.04,
4.066,0.15,1.58,0.55,-2.00,-1.81,1.03,
4.069,0.15,1.58,0.55,-2.00,-1.87,1.03,
4.071,0.15,1.58,0.55,-2.00,-1.97,1.01,
4.073,0.97,1.96,0.90,-2.00,-1.97,1.01,
4.074,0.97,1.96,0.90,-1.98,-2.05,1.00,
4.075,0.97,1.96,0.90,-1.98,-2.12,0.98,
4.077,0.97,1.96,0.90,-1.97,-2.20,0.95,
4.078,0.97,1.96,0.90,-1.97,-2.23,0.94,
4.081,0.97,1.96,0.90,-1.96,-2.25,0.91,
4.083,1.43,2.42,0.07,-1.96,-2.25,0.91,
4.083,1.43,2.42,0.07,-1.95,-2.27,0.89,
4.084,1.43,2.42,0.07,-1.95,-2.28,0.87,
4.086,1.43,2.42,0.07,-1.94,-2.29,0.84,
4.089,1.43,2.42,0.07,-1.92,-2.30,0.83,
4.091,1.43,2.42,0.07,-1.90,-2.29,0.82,
4.093,0.76,3.01,-0.44,-1.90,-2.29,0.82,
4.093,0.76,3.01,-0.44,-1.86,-2.25,0.80,
4.095,0.76,3.01,-0.44,-1.84,-2.22,0.80,
4.096,0.76,3.01,-0.44,-1.77,-2.07,0.78,
4.098,0.76,3.01,-0.44,-1.74,-2.00,0.77,
4.103,0.76,3.01,-0.44,-1.69,-1.84,0.76,
4.103,0.01,3.42,-0.22,-1.69,-1.84,0.76,
4.103,0.01,3.42,-0.22,-1.58,-1.55,0.74,
4.108,0.01,3.42,-0.22,-1.55,-1.44,0.74,
4.108,0.01,3.42,-0.22,-1.45,-1.11,0.71,
4.108,0.01,3.42,-0.22,-1.41,-1.00,0.70,
4.113,0.01,3.42,-0.22,-1.33,-0.78,0.68,
4.113,-0.50,3.89,-0.40,-1.33,-0.78,0.68,
4.114,-0.50,3.89,-0.40,-1.21,-0.47,0.65,
4.117,-0.50,3.89,-0.40,-1.16,-0.38,0.63,
4.117,-0.50,3.89,-0.40,-1.03,-0.10,0.59,
4.121,-0.50,3.89,-0.40,-0.99,-0.02,0.57,
4.122,-0.50,3.89,-0.40,-0.84,0.22,0.54,
4.126,-1.14,4.44,-0.24,-0.84,0.22,0.54,
4.129,-1.14,4.44,-0.24,-0.73,0.37,0.52,
4.13,-1.14,4.44,-0.24,-0.62,0.49,0.49,
4.131,-1.14,4.44,-0.24,-0.50,0.60,0.47,
4.132,-1.14,4.44,-0.24,-0.39,0.68,0.45,
4.132,-1.14,4.44,-0.24,-0.26,0.74,0.43,
4.136,-1.64,4.47,1.40,-0.26,0.74,0.43,
4.136,-1.64,4.47,1.40,-0.13,0.77,0.41,
4.138,-1.64,4.47,1.40,0.01,0.77,0.38,
4.138,-1.64,4.47,1.40,0.14,0.74,0.36,
4.141,-1.64,4.47,1.40,0.27,0.69,0.34,
4.141,-1.64,4.47,1.40,0.38,0.61,0.32,
4.143,-1.42,4.15,2.76,0.38,0.61,0.32,
4.144,-1.42,4.15,2.76,0.48,0.52,0.31,
4.145,-1.42,4.15,2.76,0.56,0.42,0.29,
4.147,-1.42,4.15,2.76,0.65,0.31,0.27,
4.149,-1.42,4.15,2.76,0.73,0.21,0.26,
4.151,-1.42,4.15,2.76,0.80,0.11,0.24,
4.172,-0.94,4.17,2.78,0.80,0.11,0.24,
4.173,-0.94,4.17,2.78,0.86,0.01,0.22,
4.173,-0.94,4.17,2.78,0.90,-0.08,0.21,
4.174,-0.94,4.17,2.78,0.94,-0.16,0.20,
4.174,-0.94,4.17,2.78,0.96,-0.24,0.20,
4.174,-0.94,4.17,2.78,0.99,-0.30,0.20,
4.175,-1.16,4.13,2.02,0.99,-0.30,0.20,
4.175,-1.16,4.13,2.02,0.98,-0.35,0.21,
4.175,-1.16,4.13,2.02,0.97,-0.40,0.22,
4.175,-1.16,4.13,2.02,0.95,-0.44,0.23,
4.176,-1.16,4.13,2.02,0.90,-0.48,0.24,
4.176,-1.16,4.13,2.02,0.84,-0.52,0.25,
4.176,-1.29,3.81,0.98,0.84,-0.52,0.25,
4.177,-1.29,3.81,0.98,0.79,-0.55,0.27,
4.177,-1.29,3.81,0.98,0.72,-0.58,0.29,
4.177,-1.29,3.81,0.98,0.65,-0.60,0.30,
4.18,-1.29,3.81,0.98,0.56,-0.61,0.32,
4.225,-1.29,3.81,0.98,0.45,-0.62,0.34,
4.225,-1.22,3.53,-0.51,0.45,-0.62,0.34,
4.226,-1.22,3.53,-0.51,0.34,-0.62,0.37,
4.226,-1.22,3.53,-0.51,0.20,-0.62,0.39,
4.226,-1.22,3.53,-0.51,0.06,-0.60,0.41,
4.227,-1.22,3.53,-0.51,-0.08,-0.60,0.44,
4.251,-1.22,3.53,-0.51,-0.24,-0.59,0.46,
4.251,-1.38,3.53,-2.37,-0.24,-0.59,0.46,
4.251,-1.38,3.53,-2.37,-0.39,-0.57,0.49,
4.251,-1.38,3.53,-2.37,-0.57,-0.56,0.52,
4.252,-1.38,3.53,-2.37,-0.74,-0.55,0.55,
4.252,-1.38,3.53,-2.37,-0.91,-0.55,0.58,
4.252,-1.38,3.53,-2.37,-1.11,-0.56,0.60,
4.252,-1.65,3.93,-4.05,-1.11,-0.56,0.60,
4.253,-1.65,3.93,-4.05,-1.28,-0.57,0.63,
4.253,-1.65,3.93,-4.05,-1.46,-0.58,0.65,
4.253,-1.65,3.93,-4.05,-1.67,-0.62,0.67,
4.254,-1.65,3.93,-4.05,-1.84,-0.65,0.68,
4.254,-1.65,3.93,-4.05,-2.01,-0.70,0.70,
4.254,-1.70,4.63,-5.45,-2.01,-0.70,0.70,
4.254,-1.70,4.63,-5.45,-2.20,-0.74,0.71,
4.255,-1.70,4.63,-5.45,-2.37,-0.78,0.72,
4.255,-1.70,4.63,-5.45,-2.51,-0.84,0.73,
4.255,-1.70,4.63,-5.45,-2.65,-0.89,0.74,
4.255,-1.70,4.63,-5.45,-2.79,-0.95,0.75,
4.256,-1.81,5.56,-5.67,-2.79,-0.95,0.75,
4.256,-1.81,5.56,-5.67,-2.92,-1.01,0.76,
4.257,-1.81,5.56,-5.67,-3.04,-1.08,0.77,
4.257,-1.81,5.56,-5.67,-3.14,-1.14,0.78,
4.257,-1.81,5.56,-5.67,-3.24,-1.21,0.80,
4.257,-1.81,5.56,-5.67,-3.29,-1.29,0.82,
4.258,-2.09,6.23,-5.35,-3.29,-1.29,0.82,
4.258,-2.09,6.23,-5.35,-3.36,-1.37,0.85,
4.258,-2.09,6.23,-5.35,-3.44,-1.47,0.87,
4.259,-2.09,6.23,-5.35,-3.48,-1.57,0.89,
4.259,-2.09,6.23,-5.35,-3.52,-1.68,0.92,
4.259,-2.09,6.23,-5.35,-3.55,-1.80,0.94,
4.259,-2.26,6.72,-4.25,-3.55,-1.80,0.94,
4.26,-2.26,6.72,-4.25,-3.58,-1.93,0.97,
4.26,-2.26,6.72,-4.25,-3.61,-2.06,1.00,
4.26,-2.26,6.72,-4.25,-3.63,-2.19,1.03,
4.26,-2.26,6.72,-4.25,-3.65,-2.33,1.05,
4.261,-2.26,6.72,-4.25,-3.67,-2.48,1.09,
4.261,-2.33,7.01,-3.57,-3.67,-2.48,1.09,
4.261,-2.33,7.01,-3.57,-3.67,-2.63,1.12,
4.262,-2.33,7.01,-3.57,-3.67,-2.78,1.15,
4.262,-2.33,7.01,-3.57,-3.65,-2.92,1.19,
4.262,-2.33,7.01,-3.57,-3.64,-3.07,1.23,
4.262,-2.33,7.01,-3.57,-3.61,-3.21,1.27,
4.269,-2.40,7.40,-2.42,-3.61,-3.21,1.27,
4.269,-2.40,7.40,-2.42,-3.58,-3.34,1.30,
4.269,-2.40,7.40,-2.42,-3.56,-3.48,1.34,
4.269,-2.40,7.40,-2.42,-3.53,-3.62,1.39,
4.27,-2.40,7.40,-2.42,-3.49,-3.74,1.43,
4.273,-2.40,7.40,-2.42,-3.47,-3.85,1.48,
4.273,-2.49,7.37,-2.42,-3.47,-3.85,1.48,
4.274,-2.49,7.37,-2.42,-3.46,-3.96,1.52,
4.274,-2.49,7.37,-2.42,-3.45,-4.07,1.58,
4.277,-2.49,7.37,-2.42,-3.44,-4.15,1.63,
4.282,-2.49,7.37,-2.42,-3.43,-4.19,1.70,
4.282,-2.49,7.37,-2.42,-3.44,-4.20,1.80,
4.295,-2.96,3.60,-3.71,-3.44,-4.20,1.80,
4.295,-2.96,3.60,-3.71,-3.46,-4.15,1.94,
4.296,-2.96,3.60,-3.71,-3.48,-4.05,2.07,
4.296,-2.96,3.60,-3.71,-3.52,-3.94,2.16,
4.296,-2.96,3.60,-3.71,-3.58,-3.85,2.25,
4.296,-2.96,3.60,-3.71,-3.57,-3.80,2.35,
4.297,-1.93,-11.31,-5.48,-3.57,-3.80,2.35,
4.297,-1.93,-11.31,-5.48,-3.53,-3.76,2.48,
4.297,-1.93,-11.31,-5.48,-3.45,-3.69,2.65,
4.297,-1.93,-11.31,-5.48,-3.34,-3.59,2.85,
4.299,-1.93,-11.31,-5.48,-3.19,-3.42,3.06,
4.302,-1.93,-11.31,-5.48,-3.03,-3.20,3.27,
4.338,-4.09,-29.54,-3.59,-3.03,-3.20,3.27,
4.339,-4.09,-29.54,-3.59,-2.84,-2.93,3.47,
4.339,-4.09,-29.54,-3.59,-2.62,-2.58,3.64,
4.339,-4.09,-29.54,-3.59,-2.23,-1.94,3.85,
4.34,-4.09,-29.54,-3.59,-2.09,-1.71,3.90,
4.34,-4.09,-29.54,-3.59,-1.93,-1.46,3.94,
4.34,-1.86,-45.92,-0.78,-1.93,-1.46,3.94,
4.34,-1.86,-45.92,-0.78,-1.43,-0.65,3.96,
4.341,-1.86,-45.92,-0.78,-1.09,-0.06,3.88,
4.341,-1.86,-45.92,-0.78,-0.76,0.53,3.73,
4.341,-1.86,-45.92,-0.78,-0.45,1.09,3.52,
4.341,-1.86,-45.92,-0.78,-0.18,1.61,3.26,
4.341,5.39,-42.88,0.35,-0.18,1.61,3.26,
4.342,5.39,-42.88,0.35,0.04,2.08,2.99,
4.342,5.39,-42.88,0.35,0.23,2.50,2.73,
4.342,5.39,-42.88,0.35,0.39,2.86,2.50,
4.342,5.39,-42.88,0.35,0.53,3.19,2.29,
4.342,5.39,-42.88,0.35,0.64,3.48,2.10,
4.342,5.57,-27.55,-0.82,0.64,3.48,2.10,
4.343,5.57,-27.55,-0.82,0.73,3.74,1.94,
4.343,5.57,-27.55,-0.82,0.81,3.97,1.79,
4.343,5.57,-27.55,-0.82,0.87,4.17,1.66,
4.343,5.57,-27.55,-0.82,0.91,4.34,1.53,
4.343,5.57,-27.55,-0.82,0.94,4.48,1.42,
4.345,3.64,-14.55,-1.57,0.94,4.48,1.42,
4.345,3.64,-14.55,-1.57,0.96,4.60,1.31,
4.345,3.64,-14.55,-1.57,0.96,4.69,1.21,
4.347,3.64,-14.55,-1.57,0.96,4.75,1.11,
4.349,3.64,-14.55,-1.57,0.95,4.79,1.03,
4.351,3.64,-14.55,-1.57,0.94,4.82,0.94,
4.354,2.94,-5.46,-1.73,0.94,4.82,0.94,
4.354,2.94,-5.46,-1.73,0.92,4.84,0.86,
4.355,2.94,-5.46,-1.73,0.90,4.84,0.78,
4.374,2.94,-5.46,-1.73,0.88,4.84,0.70,
4.375,2.94,-5.46,-1.73,0.86,4.82,0.62,
4.375,2.94,-5.46,-1.73,0.84,4.81,0.55,
4.375,2.74,0.88,-1.10,0.84,4.81,0.55,
4.376,2.74,0.88,-1.10,0.82,4.78,0.48,
4.376,2.74,0.88,-1.10,0.79,4.78,0.41,
4.376,2.74,0.88,-1.10,0.68,4.92,0.39,
4.377,2.74,0.88,-1.10,0.45,5.27,0.43,
4.377,2.74,0.88,-1.10,0.15,5.74,0.51,
4.377,2.47,8.33,-3.89,0.15,5.74,0.51,
4.378,2.47,8.33,-3.89,-0.12,6.17,0.56,
4.378,2.47,8.33,-3.89,-0.35,6.52,0.60,
4.378,2.47,8.33,-3.89,-0.54,6.79,0.61,
4.379,2.47,8.33,-3.89,-0.69,6.97,0.62,
4.384,2.47,8.33,-3.89,-0.81,7.11,0.61,
4.384,1.61,9.83,-2.46,-0.81,7.11,0.61,
4.385,1.61,9.83,-2.46,-0.91,7.20,0.59,
4.385,1.61,9.83,-2.46,-0.99,7.26,0.56,
4.391,1.61,9.83,-2.46,-1.07,7.31,0.53,
4.392,1.61,9.83,-2.46,-1.13,7.34,0.50,
4.392,1.61,9.83,-2.46,-1.19,7.35,0.46,
4.393,0.99,9.57,-0.64,-1.19,7.35,0.46,
4.394,0.99,9.57,-0.64,-1.23,7.33,0.42,
4.395,0.99,9.57,-0.64,-1.26,7.30,0.38,
4.397,0.99,9.57,-0.64,-1.29,7.24,0.34,
4.398,0.99,9.57,-0.64,-1.31,7.17,0.30,
4.4,0.99,9.57,-0.64,-1.32,7.08,0.25,
4.403,0.21,9.09,0.50,-1.32,7.08,0.25,
4.404,0.21,9.09,0.50,-1.32,6.97,0.21,
4.405,0.21,9.09,0.50,-1.33,6.86,0.17,
4.407,0.21,9.09,0.50,-1.33,6.74,0.13,
4.409,0.21,9.09,0.50,-1.32,6.61,0.09,
4.411,0.21,9.09,0.50,-1.32,6.47,0.06,
4.414,-0.39,8.53,0.88,-1.32,6.47,0.06,
4.414,-0.39,8.53,0.88,-1.32,6.32,0.03,
4.415,-0.39,8.53,0.88,-1.31,6.16,0.00,
4.417,-0.39,8.53,0.88,-1.31,6.00,-0.02,
4.42,-0.39,8.53,0.88,-1.30,5.83,-0.04,
4.421,-0.39,8.53,0.88,-1.30,5.65,-0.06,
4.425,-1.01,7.45,0.91,-1.30,5.65,-0.06,
4.425,-1.01,7.45,0.91,-1.29,5.46,-0.07,
4.425,-1.01,7.45,0.91,-1.27,5.27,-0.09,
4.428,-1.01,7.45,0.91,-1.26,5.08,-0.09,
4.428,-1.01,7.45,0.91,-1.23,4.89,-0.09,
4.43,-1.01,7.45,0.91,-1.19,4.70,-0.09,
4.433,-1.56,5.66,1.65,-1.19,4.70,-0.09,
4.433,-1.56,5.66,1.65,-1.14,4.52,-0.08,
4.434,-1.56,5.66,1.65,-1.06,4.37,-0.06,
4.439,-1.56,5.66,1.65,-0.94,4.25,-0.02,
4.439,-1.56,5.66,1.65,-0.80,4.14,0.02,
4.44,-1.56,5.66,1.65,-0.63,4.04,0.08,
4.444,-3.02,2.98,5.31,-0.63,4.04,0.08,
4.444,-3.02,2.98,5.31,-0.46,3.94,0.14,
4.445,-3.02,2.98,5.31,-0.28,3.84,0.21,
4.447,-3.02,2.98,5.31,-0.09,3.75,0.28,
4.449,-3.02,2.98,5.31,0.09,3.65,0.35,
4.451,-3.02,2.98,5.31,0.26,3.54,0.42,
4.463,-3.99,-0.16,7.64,0.26,3.54,0.42,
4.463,-3.99,-0.16,7.64,0.43,3.41,0.49,
4.464,-3.99,-0.16,7.64,0.59,3.27,0.56,
4.464,-3.99,-0.16,7.64,0.74,3.10,0.63,
4.464,-3.99,-0.16,7.64,0.87,2.92,0.69,
4.464,-3.99,-0.16,7.64,0.99,2.73,0.75,
4.464,-3.54,-2.75,6.64,0.99,2.73,0.75,
4.464,-3.54,-2.75,6.64,1.10,2.52,0.80,
4.464,-3.54,-2.75,6.64,1.19,2.29,0.85,
4.475,-3.54,-2.75,6.64,1.27,2.05,0.89,
4.476,-3.54,-2.75,6.64,1.34,1.80,0.93,
4.476,-3.54,-2.75,6.64,1.38,1.52,0.95,
4.476,-2.58,-4.50,4.90,1.38,1.52,0.95,
4.476,-2.58,-4.50,4.90,1.40,1.19,0.96,
4.476,-2.58,-4.50,4.90,1.37,0.81,0.95,
4.477,-2.58,-4.50,4.90,1.32,0.40,0.92,
4.479,-2.58,-4.50,4.90,1.25,-0.03,0.86,
4.481,-2.58,-4.50,4.90,1.17,-0.44,0.80,
4.484,-0.66,-5.45,3.29,1.17,-0.44,0.80,
4.484,-0.66,-5.45,3.29,1.08,-0.81,0.71,
4.485,-0.66,-5.45,3.29,1.01,-1.14,0.62,
4.487,-0.66,-5.45,3.29,0.94,-1.42,0.52,
4.489,-0.66,-5.45,3.29,0.88,-1.66,0.42,
4.491,-0.66,-5.45,3.29,0.83,-1.86,0.32,
4.493,0.61,-4.38,2.67,0.83,-1.86,0.32,
4.493,0.61,-4.38,2.67,0.78,-2.03,0.22,
4.494,0.61,-4.38,2.67,0.74,-2.17,0.12,
4.497,0.61,-4.38,2.67,0.70,-2.29,0.03,
4.498,0.61,-4.38,2.67,0.66,-2.38,-0.06,
4.5,0.61,-4.38,2.67,0.63,-2.47,-0.13,
4.503,0.75,-2.39,2.25,0.63,-2.47,-0.13,
4.503,0.75,-2.39,2.25,0.59,-2.53,-0.19,
4.505,0.75,-2.39,2.25,0.56,-2.58,-0.24,
4.507,0.75,-2.39,2.25,0.53,-2.62,-0.28,
4.508,0.75,-2.39,2.25,0.50,-2.64,-0.31,
4.51,0.75,-2.39,2.25,0.48,-2.64,-0.34,
4.513,0.18,-0.90,1.89,0.48,-2.64,-0.34,
4.513,0.18,-0.90,1.89,0.45,-2.63,-0.36,
4.514,0.18,-0.90,1.89,0.42,-2.61,-0.37,
4.517,0.18,-0.90,1.89,0.40,-2.59,-0.38,
4.519,0.18,-0.90,1.89,0.37,-2.55,-0.38,
4.521,0.18,-0.90,1.89,0.34,-2.51,-0.38,
4.523,-0.28,-0.16,1.33,0.34,-2.51,-0.38,
4.534,-0.28,-0.16,1.33,0.31,-2.47,-0.38,
4.534,-0.28,-0.16,1.33,0.28,-2.42,-0.38,
4.535,-0.28,-0.16,1.33,0.25,-2.36,-0.37,
4.535,-0.28,-0.16,1.33,0.21,-2.31,-0.36,
4.535,-0.28,-0.16,1.33,0.18,-2.25,-0.36,
4.535,-0.54,0.20,0.77,0.18,-2.25,-0.36,
4.535,-0.54,0.20,0.77,0.15,-2.19,-0.35,
4.535,-0.54,0.20,0.77,0.12,-2.14,-0.34,
4.537,-0.54,0.20,0.77,0.09,-2.08,-0.33,
4.538,-0.54,0.20,0.77,0.07,-2.02,-0.33,
4.541,-0.54,0.20,0.77,0.04,-1.96,-0.32,
4.544,-0.56,0.38,0.43,0.04,-1.96,-0.32,
4.545,-0.56,0.38,0.43,0.02,-1.90,-0.31,
4.545,-0.56,0.38,0.43,-0.00,-1.85,-0.31,
4.549,-0.56,0.38,0.43,-0.03,-1.80,-0.30,
4.549,-0.56,0.38,0.43,-0.04,-1.75,-0.30,
4.55,-0.56,0.38,0.43,-0.06,-1.70,-0.29,
4.554,-0.46,0.37,0.25,-0.06,-1.70,-0.29,
4.554,-0.46,0.37,0.25,-0.08,-1.65,-0.29,
4.555,-0.46,0.37,0.25,-0.10,-1.61,-0.29,
4.556,-0.46,0.37,0.25,-0.11,-1.56,-0.29,
4.559,-0.46,0.37,0.25,-0.13,-1.52,-0.29,
4.56,-0.46,0.37,0.25,-0.14,-1.49,-0.30,
4.563,-0.28,0.23,0.05,-0.14,-1.49,-0.30,
4.563,-0.28,0.23,0.05,-0.16,-1.45,-0.30,
4.565,-0.28,0.23,0.05,-0.17,-1.42,-0.31,
4.567,-0.28,0.23,0.05,-0.19,-1.39,-0.31,
4.577,-0.28,0.23,0.05,-0.20,-1.36,-0.32,
4.578,-0.28,0.23,0.05,-0.22,-1.33,-0.33,
4.578,-0.05,0.09,-0.14,-0.22,-1.33,-0.33,
4.579,-0.05,0.09,-0.14,-0.23,-1.31,-0.34,
4.579,-0.05,0.09,-0.14,-0.24,-1.29,-0.35,
4.579,-0.05,0.09,-0.14,-0.26,-1.26,-0.36,
4.58,-0.05,0.09,-0.14,-0.27,-1.24,-0.37,
4.581,-0.05,0.09,-0.14,-0.28,-1.22,-0.38,
4.618,0.10,-0.04,-0.29,-0.28,-1.22,-0.38,
4.618,0.10,-0.04,-0.29,-0.29,-1.20,-0.38,
4.619,0.10,-0.04,-0.29,-0.31,-1.18,-0.39,
4.619,0.10,-0.04,-0.29,-0.32,-1.17,-0.40,
4.619,0.10,-0.04,-0.29,-0.33,-1.15,-0.41,
4.62,0.10,-0.04,-0.29,-0.34,-1.13,-0.42,
4.62,0.21,-0.11,-0.40,-0.34,-1.13,-0.42,
4.621,0.21,-0.11,-0.40,-0.35,-1.12,-0.43,
4.621,0.21,-0.11,-0.40,-0.36,-1.11,-0.44,
4.621,0.21,-0.11,-0.40,-0.37,-1.09,-0.45,
4.622,0.21,-0.11,-0.40,-0.38,-1.08,-0.46,
4.622,0.21,-0.11,-0.40,-0.39,-1.07,-0.47,
4.622,0.32,-0.08,-0.49,-0.39,-1.07,-0.47,
4.623,0.32,-0.08,-0.49,-0.40,-1.06,-0.47,
4.623,0.32,-0.08,-0.49,-0.41,-1.05,-0.48,
4.623,0.32,-0.08,-0.49,-0.42,-1.04,-0.49,
4.624,0.32,-0.08,-0.49,-0.43,-1.03,-0.50,
4.624,0.32,-0.08,-0.49,-0.44,-1.02,-0.51,
4.624,0.48,0.02,-0.55,-0.44,-1.02,-0.51,
4.625,0.48,0.02,-0.55,-0.45,-1.01,-0.52,
4.625,0.48,0.02,-0.55,-0.45,-1.00,-0.53,
4.626,0.48,0.02,-0.55,-0.46,-0.99,-0.54,
4.626,0.48,0.02,-0.55,-0.46,-0.98,-0.54,
4.626,0.48,0.02,-0.55,-0.47,-0.97,-0.55,
4.627,0.57,0.12,-0.54,-0.47,-0.97,-0.55,
4.627,0.57,0.12,-0.54,-0.48,-0.96,-0.55,
4.627,0.57,0.12,-0.54,-0.48,-0.95,-0.56,
4.628,0.57,0.12,-0.54,-0.49,-0.94,-0.57,
4.632,0.57,0.12,-0.54,-0.49,-0.92,-0.57,
4.633,0.57,0.12,-0.54,-0.50,-0.90,-0.58,
4.633,0.69,0.20,-0.56,-0.50,-0.90,-0.58,
4.633,0.69,0.20,-0.56,-0.50,-0.89,-0.59,
4.636,0.69,0.20,-0.56,-0.51,-0.87,-0.59,
4.637,0.69,0.20,-0.56,-0.51,-0.85,-0.59,
4.64,0.69,0.20,-0.56,-0.51,-0.83,-0.59,
4.641,0.69,0.20,-0.56,-0.52,-0.81,-0.59,
4.643,0.64,0.24,-0.53,-0.52,-0.81,-0.59,
4.644,0.64,0.24,-0.53,-0.52,-0.78,-0.59,
4.645,0.64,0.24,-0.53,-0.53,-0.76,-0.59,
4.647,0.64,0.24,-0.53,-0.53,-0.73,-0.59,
4.649,0.64,0.24,-0.53,-0.54,-0.71,-0.59,
4.651,0.64,0.24,-0.53,-0.54,-0.68,-0.58,
4.655,0.57,0.23,-0.54,-0.54,-0.68,-0.58,
4.656,0.57,0.23,-0.54,-0.55,-0.65,-0.58,
4.657,0.57,0.23,-0.54,-0.55,-0.62,-0.57,
4.659,0.57,0.23,-0.54,-0.56,-0.57,-0.56,
4.659,0.57,0.23,-0.54,-0.56,-0.55,-0.56,
4.66,0.57,0.23,-0.54,-0.57,-0.51,-0.55,
4.663,0.49,0.28,-0.58,-0.57,-0.51,-0.55,
4.663,0.49,0.28,-0.58,-0.58,-0.47,-0.54,
4.665,0.49,0.28,-0.58,-0.59,-0.43,-0.53,
4.667,0.49,0.28,-0.58,-0.59,-0.39,-0.51,
4.669,0.49,0.28,-0.58,-0.60,-0.34,-0.50,
4.672,0.49,0.28,-0.58,-0.61,-0.30,-0.49,
4.674,0.44,0.31,-0.62,-0.61,-0.30,-0.49,
4.674,0.44,0.31,-0.62,-0.61,-0.25,-0.47,
4.675,0.44,0.31,-0.62,-0.62,-0.20,-0.46,
4.677,0.44,0.31,-0.62,-0.63,-0.14,-0.45,
4.679,0.44,0.31,-0.62,-0.64,-0.09,-0.43,
4.681,0.44,0.31,-0.62,-0.65,-0.03,-0.41,
4.683,0.45,0.35,-0.62,-0.65,-0.03,-0.41,
4.684,0.45,0.35,-0.62,-0.66,0.04,-0.40,
4.686,0.45,0.35,-0.62,-0.67,0.10,-0.38,
4.688,0.45,0.35,-0.62,-0.68,0.17,-0.36,
4.69,0.45,0.35,-0.62,-0.69,0.24,-0.34,
4.713,0.45,0.35,-0.62,-0.71,0.31,-0.32,
4.714,0.37,0.20,-0.62,-0.71,0.31,-0.32,
4.714,0.37,0.20,-0.62,-0.72,0.38,-0.30,
4.714,0.37,0.20,-0.62,-0.73,0.46,-0.27,
4.715,0.37,0.20,-0.62,-0.75,0.53,-0.24,
4.715,0.37,0.20,-0.62,-0.76,0.61,-0.21,
4.715,0.37,0.20,-0.62,-0.77,0.69,-0.18,
4.715,0.09,-0.16,-0.58,-0.77,0.69,-0.18,
4.716,0.09,-0.16,-0.58,-0.78,0.77,-0.15,
4.716,0.09,-0.16,-0.58,-0.80,0.86,-0.12,
4.716,0.09,-0.16,-0.58,-0.81,0.94,-0.09,
4.717,0.09,-0.16,-0.58,-0.82,1.03,-0.06,
4.717,0.09,-0.16,-0.58,-0.84,1.12,-0.04,
4.717,0.29,0.14,-0.47,-0.84,1.12,-0.04,
4.717,0.29,0.14,-0.47,-0.86,1.20,-0.02,
4.718,0.29,0.14,-0.47,-0.88,1.29,-0.01,
4.729,0.29,0.14,-0.47,-0.90,1.38,0.00,
4.729,0.29,0.14,-0.47,-0.92,1.46,0.01,
4.73,0.29,0.14,-0.47,-0.94,1.55,0.02,
4.73,0.68,0.72,-0.46,-0.94,1.55,0.02,
4.73,0.68,0.72,-0.46,-0.97,1.63,0.02,
4.73,0.68,0.72,-0.46,-1.00,1.71,0.02,
4.73,0.68,0.72,-0.46,-1.02,1.79,0.02,
4.731,0.68,0.72,-0.46,-1.05,1.86,0.02,
4.731,0.68,0.72,-0.46,-1.08,1.92,0.02,
4.766,0.82,1.04,-0.48,-1.08,1.92,0.02,
4.767,0.82,1.04,-0.48,-1.11,1.98,0.01,
4.767,0.82,1.04,-0.48,-1.14,2.03,0.01,
4.767,0.82,1.04,-0.48,-1.17,2.07,0.00,
4.767,0.82,1.04,-0.48,-1.20,2.10,-0.01,
4.767,0.82,1.04,-0.48,-1.23,2.12,-0.01,
4.767,0.67,0.68,-0.44,-1.23,2.12,-0.01,
4.767,0.67,0.68,-0.44,-1.26,2.14,-0.02,
4.767,0.67,0.68,-0.44,-1.28,2.14,-0.02,
4.768,0.67,0.68,-0.44,-1.31,2.14,-0.03,
4.768,0.67,0.68,-0.44,-1.34,2.13,-0.04,
4.768,0.67,0.68,-0.44,-1.36,2.12,-0.04,
4.768,0.45,0.31,-0.33,-1.36,2.12,-0.04,
4.768,0.45,0.31,-0.33,-1.39,2.09,-0.05,
4.768,0.45,0.31,-0.33,-1.41,2.06,-0.05,
4.768,0.45,0.31,-0.33,-1.43,2.03,-0.05,
4.769,0.45,0.31,-0.33,-1.45,1.99,-0.05,
4.769,0.45,0.31,-0.33,-1.47,1.95,-0.05,
4.769,0.20,-0.06,-0.13,-1.47,1.95,-0.05,
4.769,0.20,-0.06,-0.13,-1.48,1.90,-0.05,
4.769,0.20,-0.06,-0.13,-1.50,1.85,-0.05,
4.769,0.20,-0.06,-0.13,-1.51,1.79,-0.04,
4.769,0.20,-0.06,-0.13,-1.52,1.74,-0.04,
4.772,0.20,-0.06,-0.13,-1.53,1.68,-0.04,
4.773,0.01,-0.44,0.20,-1.53,1.68,-0.04,
4.773,0.01,-0.44,0.20,-1.53,1.62,-0.04,
4.775,0.01,-0.44,0.20,-1.53,1.56,-0.04,
4.777,0.01,-0.44,0.20,-1.53,1.51,-0.03,
4.778,0.01,-0.44,0.20,-1.53,1.45,-0.03,
4.78,0.01,-0.44,0.20,-1.52,1.39,-0.03,
4.783,-0.09,-0.63,0.62,-1.52,1.39,-0.03,
4.783,-0.09,-0.63,0.62,-1.51,1.34,-0.03,
4.785,-0.09,-0.63,0.62,-1.50,1.30,-0.02,
4.787,-0.09,-0.63,0.62,-1.49,1.25,-0.02,
4.789,-0.09,-0.63,0.62,-1.48,1.21,-0.02,
4.79,-0.09,-0.63,0.62,-1.46,1.17,-0.01,
4.793,-0.08,-0.61,1.11,-1.46,1.17,-0.01,
4.795,-0.08,-0.61,1.11,-1.44,1.14,-0.01,
4.795,-0.08,-0.61,1.11,-1.42,1.11,-0.01,
4.797,-0.08,-0.61,1.11,-1.40,1.09,0.00,
4.798,-0.08,-0.61,1.11,-1.38,1.06,0.01,
4.81,-0.08,-0.61,1.11,-1.36,1.04,0.01,
4.81,-0.02,-0.54,1.47,-1.36,1.04,0.01,
4.81,-0.02,-0.54,1.47,-1.33,1.01,0.02,
4.81,-0.02,-0.54,1.47,-1.30,0.99,0.03,
4.811,-0.02,-0.54,1.47,-1.28,0.97,0.04,
4.811,-0.02,-0.54,1.47,-1.25,0.94,0.05,
4.811,-0.02,-0.54,1.47,-1.22,0.91,0.05,
4.813,-0.01,-0.62,1.83,-1.22,0.91,0.05,
4.813,-0.01,-0.62,1.83,-1.19,0.88,0.06,
4.814,-0.01,-0.62,1.83,-1.15,0.85,0.07,
4.837,-0.01,-0.62,1.83,-1.12,0.81,0.08,
4.838,-0.01,-0.62,1.83,-1.09,0.77,0.09,
4.838,-0.01,-0.62,1.83,-1.06,0.73,0.09,
4.838,0.01,-0.64,1.94,-1.06,0.73,0.09,
4.838,0.01,-0.64,1.94,-1.03,0.69,0.10,
4.838,0.01,-0.64,1.94,-1.00,0.66,0.10,
4.838,0.01,-0.64,1.94,-0.97,0.62,0.11,
4.838,0.01,-0.64,1.94,-0.94,0.59,0.11,
4.839,0.01,-0.64,1.94,-0.92,0.56,0.11,
4.839,-0.00,-0.49,2.02,-0.92,0.56,0.11,
4.839,-0.00,-0.49,2.02,-0.90,0.53,0.11,
4.839,-0.00,-0.49,2.02,-0.88,0.51,0.11,
4.839,-0.00,-0.49,2.02,-0.86,0.50,0.11,
4.839,-0.00,-0.49,2.02,-0.84,0.50,0.11,
4.841,-0.00,-0.49,2.02,-0.83,0.51,0.12,
4.843,-0.14,-0.40,2.04,-0.83,0.51,0.12,
4.844,-0.14,-0.40,2.04,-0.82,0.52,0.12,
4.845,-0.14,-0.40,2.04,-0.81,0.54,0.13,
4.847,-0.14,-0.40,2.04,-0.80,0.58,0.14,
4.848,-0.14,-0.40,2.04,-0.79,0.62,0.16,
4.851,-0.14,-0.40,2.04,-0.79,0.68,0.17,
4.853,-0.44,-0.67,2.33,-0.79,0.68,0.17,
4.853,-0.44,-0.67,2.33,-0.79,0.75,0.19,
4.855,-0.44,-0.67,2.33,-0.78,0.83,0.21,
4.881,-0.44,-0.67,2.33,-0.78,0.93,0.23,
4.881,-0.44,-0.67,2.33,-0.78,1.04,0.25,
4.882,-0.44,-0.67,2.33,-0.78,1.16,0.28,
4.882,-0.71,-1.00,2.82,-0.78,1.16,0.28,
4.882,-0.71,-1.00,2.82,-0.77,1.30,0.30,
4.883,-0.71,-1.00,2.82,-0.77,1.45,0.33,
4.884,-0.71,-1.00,2.82,-0.76,1.61,0.36,
4.884,-0.71,-1.00,2.82,-0.75,1.78,0.39,
4.885,-0.71,-1.00,2.82,-0.74,1.95,0.41,
4.885,-0.91,-1.37,3.72,-0.74,1.95,0.41,
4.886,-0.91,-1.37,3.72,-0.73,2.12,0.44,
4.887,-0.91,-1.37,3.72,-0.72,2.29,0.47,
4.887,-0.91,-1.37,3.72,-0.71,2.45,0.50,
4.888,-0.91,-1.37,3.72,-0.70,2.61,0.52,
4.888,-0.91,-1.37,3.72,-0.69,2.76,0.54,
4.889,-0.81,-1.58,4.27,-0.69,2.76,0.54,
4.889,-0.81,-1.58,4.27,-0.68,2.90,0.56,
4.89,-0.81,-1.58,4.27,-0.67,3.03,0.58,
4.89,-0.81,-1.58,4.27,-0.66,3.14,0.60,
4.891,-0.81,-1.58,4.27,-0.65,3.25,0.62,
4.891,-0.81,-1.58,4.27,-0.63,3.34,0.63,
4.899,-0.74,-1.80,4.85,-0.63,3.34,0.63,
4.9,-0.74,-1.80,4.85,-0.62,3.41,0.65,
4.901,-0.74,-1.80,4.85,-0.60,3.48,0.67,
4.901,-0.74,-1.80,4.85,-0.58,3.52,0.68,
4.901,-0.74,-1.80,4.85,-0.56,3.56,0.70,
4.902,-0.74,-1.80,4.85,-0.53,3.58,0.72,
4.903,-0.90,-2.23,5.23,-0.53,3.58,0.72,
4.904,-0.90,-2.23,5.23,-0.50,3.58,0.74,
4.905,-0.90,-2.23,5.23,-0.47,3.57,0.76,
4.907,-0.90,-2.23,5.23,-0.43,3.54,0.78,
4.909,-0.90,-2.23,5.23,-0.39,3.50,0.81,
4.911,-0.90,-2.23,5.23,-0.34,3.45,0.83,
4.913,-1.24,-2.97,5.61,-0.34,3.45,0.83,
4.913,-1.24,-2.97,5.61,-0.30,3.37,0.85,
4.914,-1.24,-2.97,5.61,-0.25,3.29,0.88,
4.917,-1.24,-2.97,5.61,-0.20,3.18,0.90,
4.919,-1.24,-2.97,5.61,-0.14,3.07,0.92,
4.921,-1.24,-2.97,5.61,-0.08,2.94,0.95,
4.923,-1.32,-3.71,5.41,-0.08,2.94,0.95,
4.924,-1.32,-3.71,5.41,-0.03,2.80,0.97,
4.925,-1.32,-3.71,5.41,0.03,2.65,0.99,
4.927,-1.32,-3.71,5.41,0.09,2.49,1.01,
4.929,-1.32,-3.71,5.41,0.16,2.33,1.02,
4.931,-1.32,-3.71,5.41,0.22,2.17,1.04,
4.943,-1.10,-4.24,5.36,0.22,2.17,1.04,
4.943,-1.10,-4.24,5.36,0.29,2.00,1.05,
4.944,-1.10,-4.24,5.36,0.35,1.84,1.06,
4.944,-1.10,-4.24,5.36,0.42,1.69,1.07,
4.944,-1.10,-4.24,5.36,0.49,1.54,1.08,
4.944,-1.10,-4.24,5.36,0.57,1.40,1.09,
4.945,-0.62,-4.29,5.36,0.57,1.40,1.09,
4.945,-0.62,-4.29,5.36,0.63,1.27,1.09,
4.945,-0.62,-4.29,5.36,0.71,1.16,1.10,
4.947,-0.62,-4.29,5.36,0.78,1.07,1.10,
4.998,-0.62,-4.29,5.36,0.85,0.99,1.11,
4.999,-0.62,-4.29,5.36,0.93,0.93,1.12,
4.999,-0.35,-3.98,5.72,0.93,0.93,1.12,
4.999,-0.35,-3.98,5.72,1.01,0.89,1.13,
5.0,-0.35,-3.98,5.72,1.08,0.87,1.14,
