
time,ax,ay,az,wx,wy,wz,
0.002,-0.67,-0.54,-0.48,-0.42,0.15,0.74,
0.003,-0.67,-0.54,-0.48,-0.43,0.15,0.75,
0.003,-0.73,-0.84,-0.89,-0.43,0.15,0.75,
0.003,-0.73,-0.84,-0.89,-0.44,0.14,0.77,
0.003,-0.73,-0.84,-0.89,-0.44,0.12,0.79,
0.003,-0.73,-0.84,-0.89,-0.45,0.11,0.81,
0.005,-0.73,-0.84,-0.89,-0.45,0.11,0.82,
0.007,-0.73,-0.84,-0.89,-0.45,0.10,0.84,
0.009,-0.63,-0.92,-0.97,-0.45,0.10,0.84,
0.009,-0.63,-0.92,-0.97,-0.45,0.11,0.86,
0.013,-0.63,-0.92,-0.97,-0.45,0.11,0.87,
0.015,-0.63,-0.92,-0.97,-0.45,0.11,0.89,
0.015,-0.63,-0.92,-0.97,-0.45,0.12,0.90,
0.017,-0.63,-0.92,-0.97,-0.44,0.14,0.92,
0.02,-0.45,-0.97,-0.97,-0.44,0.14,0.92,
0.02,-0.45,-0.97,-0.97,-0.44,0.15,0.93,
0.038,-0.45,-0.97,-0.97,-0.44,0.17,0.94,
0.038,-0.45,-0.97,-0.97,-0.44,0.18,0.95,
0.04,-0.45,-0.97,-0.97,-0.43,0.20,0.96,
0.041,-0.45,-0.97,-0.97,-0.42,0.21,0.96,
0.041,-0.26,-1.23,-0.92,-0.42,0.21,0.96,
0.041,-0.26,-1.23,-0.92,-0.41,0.23,0.97,
0.042,-0.26,-1.23,-0.92,-0.39,0.24,0.98,
0.042,-0.26,-1.23,-0.92,-0.39,0.25,0.98,
0.043,-0.26,-1.23,-0.92,-0.37,0.26,0.98,
0.043,-0.26,-1.23,-0.92,-0.35,0.29,0.97,
0.043,-0.10,-1.47,-0.81,-0.35,0.29,0.97,
0.044,-0.10,-1.47,-0.81,-0.34,0.32,0.95,
0.044,-0.10,-1.47,-0.81,-0.33,0.34,0.93,
0.052,-0.10,-1.47,-0.81,-0.30,0.37,0.90,
0.053,-0.10,-1.47,-0.81,-0.27,0.41,0.88,
0.054,-0.10,-1.47,-0.81,-0.23,0.44,0.84,
0.057,-0.06,-1.79,-0.66,-0.23,0.44,0.84,
0.059,-0.06,-1.79,-0.66,-0.19,0.47,0.80,
0.06,-0.06,-1.79,-0.66,-0.14,0.50,0.77,
0.061,-0.06,-1.79,-0.66,-0.09,0.53,0.73,
0.063,-0.06,-1.79,-0.66,-0.04,0.55,0.70,
0.064,-0.06,-1.79,-0.66,0.02,0.56,0.67,
0.073,-0.22,-1.83,-0.40,0.02,0.56,0.67,
0.073,-0.22,-1.83,-0.40,0.07,0.57,0.64,
0.073,-0.22,-1.83,-0.40,0.15,0.56,0.61,
0.074,-0.22,-1.83,-0.40,0.17,0.56,0.60,
0.074,-0.22,-1.83,-0.40,0.22,0.56,0.58,
0.074,-0.22,-1.83,-0.40,0.26,0.56,0.57,
0.075,-0.44,-1.72,-0.63,0.26,0.56,0.57,
0.075,-0.44,-1.72,-0.63,0.29,0.56,0.55,
0.075,-0.44,-1.72,-0.63,0.31,0.57,0.54,
0.075,-0.44,-1.72,-0.63,0.33,0.57,0.52,
0.076,-0.44,-1.72,-0.63,0.33,0.58,0.51,
0.08,-0.44,-1.72,-0.63,0.33,0.58,0.49,
0.081,-0.47,-1.85,-1.40,0.33,0.58,0.49,
0.081,-0.47,-1.85,-1.40,0.33,0.59,0.46,
0.103,-0.47,-1.85,-1.40,0.32,0.61,0.44,
0.104,-0.47,-1.85,-1.40,0.31,0.62,0.41,
0.104,-0.47,-1.85,-1.40,0.29,0.62,0.38,
0.104,-0.47,-1.85,-1.40,0.28,0.61,0.36,
0.104,-0.13,-2.33,-1.92,0.28,0.61,0.36,
0.104,-0.13,-2.33,-1.92,0.27,0.61,0.33,
0.105,-0.13,-2.33,-1.92,0.25,0.60,0.30,
0.105,-0.13,-2.33,-1.92,0.24,0.60,0.28,
0.105,-0.13,-2.33,-1.92,0.23,0.59,0.25,
0.105,-0.13,-2.33,-1.92,0.21,0.58,0.23,
0.108,0.31,-2.41,-2.07,0.21,0.58,0.23,
0.108,0.31,-2.41,-2.07,0.19,0.57,0.20,
0.108,0.31,-2.41,-2.07,0.16,0.57,0.17,
0.108,0.31,-2.41,-2.07,0.13,0.57,0.15,
0.109,0.31,-2.41,-2.07,0.10,0.57,0.13,
0.109,0.31,-2.41,-2.07,0.06,0.58,0.10,
0.11,0.61,-2.54,-2.63,0.06,0.58,0.10,
0.112,0.61,-2.54,-2.63,0.02,0.59,0.08,
0.114,0.61,-2.54,-2.63,-0.03,0.61,0.06,
0.115,0.61,-2.54,-2.63,-0.08,0.63,0.03,
0.116,0.61,-2.54,-2.63,-0.13,0.64,0.01,
0.117,0.61,-2.54,-2.63,-0.18,0.67,-0.02,
0.119,1.05,-2.84,-3.32,-0.18,0.67,-0.02,
0.12,1.05,-2.84,-3.32,-0.23,0.69,-0.04,
0.122,1.05,-2.84,-3.32,-0.28,0.71,-0.06,
0.123,1.05,-2.84,-3.32,-0.32,0.73,-0.07,
0.126,1.05,-2.84,-3.32,-0.37,0.74,-0.08,
0.129,1.05,-2.84,-3.32,-0.42,0.76,-0.09,
0.13,1.37,-2.83,-3.79,-0.42,0.76,-0.09,
0.13,1.37,-2.83,-3.79,-0.46,0.78,-0.10,
0.137,1.37,-2.83,-3.79,-0.51,0.80,-0.11,
0.137,1.37,-2.83,-3.79,-0.54,0.81,-0.11,
0.139,1.37,-2.83,-3.79,-0.58,0.83,-0.12,
0.139,1.37,-2.83,-3.79,-0.61,0.86,-0.12,
0.14,1.66,-2.78,-3.81,-0.61,0.86,-0.12,
0.14,1.66,-2.78,-3.81,-0.64,0.89,-0.12,
0.142,1.66,-2.78,-3.81,-0.66,0.93,-0.13,
0.144,1.66,-2.78,-3.81,-0.68,0.97,-0.13,
0.145,1.66,-2.78,-3.81,-0.69,1.02,-0.14,
0.147,1.66,-2.78,-3.81,-0.70,1.07,-0.14,
0.149,1.60,-2.95,-3.22,-0.70,1.07,-0.14,
0.149,1.60,-2.95,-3.22,-0.70,1.13,-0.15,
0.152,1.60,-2.95,-3.22,-0.70,1.22,-0.18,
0.153,1.60,-2.95,-3.22,-0.69,1.25,-0.19,
0.155,1.60,-2.95,-3.22,-0.67,1.31,-0.21,
0.157,1.60,-2.95,-3.22,-0.65,1.37,-0.25,
0.164,1.79,-3.35,-2.36,-0.65,1.37,-0.25,
0.165,1.79,-3.35,-2.36,-0.62,1.43,-0.29,
0.165,1.79,-3.35,-2.36,-0.57,1.51,-0.38,
0.165,1.79,-3.35,-2.36,-0.55,1.53,-0.41,
0.166,1.79,-3.35,-2.36,-0.51,1.58,-0.49,
0.167,1.79,-3.35,-2.36,-0.46,1.62,-0.57,
0.169,2.93,-4.03,-1.57,-0.46,1.62,-0.57,
0.169,2.93,-4.03,-1.57,-0.42,1.65,-0.66,
0.172,2.93,-4.03,-1.57,-0.34,1.71,-0.80,
0.173,2.93,-4.03,-1.57,-0.32,1.72,-0.85,
0.175,2.93,-4.03,-1.57,-0.27,1.75,-0.95,
0.19,2.93,-4.03,-1.57,-0.22,1.78,-1.06,
0.19,3.68,-4.21,-1.47,-0.22,1.78,-1.06,
0.19,3.68,-4.21,-1.47,-0.18,1.79,-1.15,
0.19,3.68,-4.21,-1.47,-0.11,1.82,-1.29,
0.191,3.68,-4.21,-1.47,-0.09,1.82,-1.34,
0.191,3.68,-4.21,-1.47,-0.06,1.83,-1.42,
0.191,3.68,-4.21,-1.47,-0.03,1.84,-1.50,
0.191,3.55,-4.17,-1.67,-0.03,1.84,-1.50,
0.191,3.55,-4.17,-1.67,-0.00,1.84,-1.57,
0.207,3.55,-4.17,-1.67,0.03,1.85,-1.65,
0.208,3.55,-4.17,-1.67,0.04,1.85,-1.67,
0.208,3.55,-4.17,-1.67,0.06,1.87,-1.71,
0.208,3.55,-4.17,-1.67,0.08,1.89,-1.74,
0.208,2.44,-3.78,-1.92,0.08,1.89,-1.74,
0.209,2.44,-3.78,-1.92,0.09,1.91,-1.75,
0.209,2.44,-3.78,-1.92,0.10,1.96,-1.76,
0.209,2.44,-3.78,-1.92,0.10,1.98,-1.75,
0.209,2.44,-3.78,-1.92,0.09,2.02,-1.74,
0.21,2.44,-3.78,-1.92,0.08,2.06,-1.72,
0.21,1.14,-3.24,-2.21,0.08,2.06,-1.72,
0.24,1.14,-3.24,-2.21,0.06,2.09,-1.69,
0.241,1.14,-3.24,-2.21,0.03,2.14,-1.64,
0.241,1.14,-3.24,-2.21,0.01,2.16,-1.62,
0.241,1.14,-3.24,-2.21,-0.03,2.21,-1.59,
0.242,1.14,-3.24,-2.21,-0.08,2.26,-1.54,
0.242,0.48,-2.56,-2.64,-0.08,2.26,-1.54,
0.242,0.48,-2.56,-2.64,-0.13,2.31,-1.50,
0.242,0.48,-2.56,-2.64,-0.21,2.40,-1.43,
0.243,0.48,-2.56,-2.64,-0.24,2.43,-1.41,
0.243,0.05,-2.26,-2.52,-0.24,2.43,-1.41,
0.243,0.05,-2.26,-2.52,-0.43,2.56,-1.26,
0.243,0.05,-2.26,-2.52,-0.43,2.56,-1.26,
0.244,0.05,-2.26,-2.52,-0.43,2.56,-1.26,
0.244,0.05,-2.26,-2.52,-0.53,2.59,-1.18,
0.244,0.05,-2.26,-2.52,-0.56,2.60,-1.16,
0.244,0.05,-2.26,-2.52,-0.63,2.60,-1.11,
0.245,0.05,-2.26,-2.52,-0.69,2.59,-1.07,
0.245,0.15,-2.05,-1.74,-0.69,2.59,-1.07,
0.245,0.15,-2.05,-1.74,-0.76,2.56,-1.02,
0.245,0.15,-2.05,-1.74,-0.86,2.50,-0.97,
0.246,0.15,-2.05,-1.74,-0.90,2.47,-0.95,
0.248,0.15,-2.05,-1.74,-0.97,2.41,-0.92,
0.249,0.15,-2.05,-1.74,-1.04,2.36,-0.89,
0.249,0.75,-2.14,-0.66,-1.04,2.36,-0.89,
0.25,0.75,-2.14,-0.66,-1.11,2.30,-0.88,
0.252,0.75,-2.14,-0.66,-1.23,2.22,-0.85,
0.253,0.75,-2.14,-0.66,-1.27,2.19,-0.85,
0.255,0.75,-2.14,-0.66,-1.35,2.11,-0.83,
0.257,0.75,-2.14,-0.66,-1.46,1.90,-0.86,
0.26,0.61,-2.21,0.14,-1.46,1.90,-0.86,
0.261,0.61,-2.21,0.14,-1.61,1.63,-0.91,
0.262,0.61,-2.21,0.14,-1.82,1.43,-0.97,
0.263,0.61,-2.21,0.14,-1.89,1.41,-0.98,
0.266,0.61,-2.21,0.14,-2.00,1.39,-0.99,
0.267,0.61,-2.21,0.14,-2.10,1.38,-0.99,
0.269,0.59,-2.57,-0.23,-2.10,1.38,-0.99,
0.269,0.59,-2.57,-0.23,-2.19,1.35,-0.99,
0.272,0.59,-2.57,-0.23,-2.31,1.27,-1.00,
0.273,0.59,-2.57,-0.23,-2.35,1.23,-1.00,
0.278,0.59,-2.57,-0.23,-2.43,1.14,-1.02,
0.279,0.59,-2.57,-0.23,-2.52,1.04,-1.06,
0.28,1.62,-2.85,0.16,-2.52,1.04,-1.06,
0.281,1.62,-2.85,0.16,-2.60,0.95,-1.10,
0.282,1.62,-2.85,0.16,-2.72,0.82,-1.16,
0.283,1.62,-2.85,0.16,-2.76,0.77,-1.18,
0.285,1.62,-2.85,0.16,-2.84,0.69,-1.22,
0.287,1.62,-2.85,0.16,-2.92,0.61,-1.26,
0.289,2.27,-2.86,0.80,-2.92,0.61,-1.26,
0.29,2.27,-2.86,0.80,-2.99,0.52,-1.29,
0.295,2.27,-2.86,0.80,-3.09,0.38,-1.34,
0.296,2.27,-2.86,0.80,-3.13,0.34,-1.35,
0.296,2.27,-2.86,0.80,-3.19,0.26,-1.38,
0.297,2.27,-2.86,0.80,-3.24,0.18,-1.40,
0.299,1.90,-2.37,1.93,-3.24,0.18,-1.40,
0.3,1.90,-2.37,1.93,-3.29,0.11,-1.41,
0.302,1.90,-2.37,1.93,-3.35,0.04,-1.41,
0.303,1.90,-2.37,1.93,-3.36,0.02,-1.41,
0.305,1.90,-2.37,1.93,-3.39,-0.00,-1.40,
0.307,1.90,-2.37,1.93,-3.40,-0.01,-1.38,
0.327,1.05,-2.06,3.24,-3.40,-0.01,-1.38,
0.328,1.05,-2.06,3.24,-3.41,-0.01,-1.36,
0.328,1.05,-2.06,3.24,-3.41,-0.00,-1.33,
0.328,1.05,-2.06,3.24,-3.40,0.01,-1.32,
0.328,1.05,-2.06,3.24,-3.39,0.02,-1.29,
0.328,1.05,-2.06,3.24,-3.36,0.04,-1.26,
0.329,0.35,-1.90,4.39,-3.36,0.04,-1.26,
0.329,0.35,-1.90,4.39,-3.33,0.07,-1.24,
0.329,0.35,-1.90,4.39,-3.27,0.11,-1.20,
0.329,0.35,-1.90,4.39,-3.25,0.13,-1.18,
0.329,0.35,-1.90,4.39,-3.20,0.17,-1.16,
0.33,0.35,-1.90,4.39,-3.16,0.20,-1.14,
0.33,0.31,-1.59,5.47,-3.16,0.20,-1.14,
0.33,0.31,-1.59,5.47,-3.10,0.23,-1.12,
0.373,0.31,-1.59,5.47,-3.02,0.26,-1.10,
0.374,0.31,-1.59,5.47,-2.99,0.27,-1.10,
0.374,0.31,-1.59,5.47,-2.94,0.29,-1.09,
0.374,0.31,-1.59,5.47,-2.89,0.31,-1.08,
0.374,0.55,-1.10,5.98,-2.89,0.31,-1.08,
0.374,0.55,-1.10,5.98,-2.84,0.33,-1.07,
0.375,0.55,-1.10,5.98,-2.76,0.36,-1.06,
0.375,0.55,-1.10,5.98,-2.74,0.37,-1.06,
0.375,0.55,-1.10,5.98,-2.69,0.39,-1.05,
0.375,0.55,-1.10,5.98,-2.64,0.41,-1.04,
0.375,0.93,-0.70,6.08,-2.64,0.41,-1.04,
0.376,0.93,-0.70,6.08,-2.60,0.43,-1.03,
0.376,0.93,-0.70,6.08,-2.54,0.46,-1.01,
0.376,0.93,-0.70,6.08,-2.53,0.47,-1.01,
0.376,0.93,-0.70,6.08,-2.49,0.49,-1.00,
0.376,0.93,-0.70,6.08,-2.46,0.51,-0.99,
0.394,1.13,-0.48,5.70,-2.46,0.51,-0.99,
0.394,1.13,-0.48,5.70,-2.44,0.53,-0.97,
0.394,1.13,-0.48,5.70,-2.40,0.55,-0.96,
0.394,1.13,-0.48,5.70,-2.39,0.56,-0.95,
0.395,1.13,-0.48,5.70,-2.37,0.57,-0.94,
0.395,1.13,-0.48,5.70,-2.35,0.58,-0.93,
0.395,1.33,-0.37,5.36,-2.35,0.58,-0.93,
0.395,1.33,-0.37,5.36,-2.34,0.59,-0.92,
0.395,1.33,-0.37,5.36,-2.32,0.60,-0.92,
0.396,1.33,-0.37,5.36,-2.31,0.60,-0.91,
0.396,1.33,-0.37,5.36,-2.29,0.60,-0.91,
0.396,1.33,-0.37,5.36,-2.28,0.60,-0.91,
0.396,1.32,-0.30,4.99,-2.28,0.60,-0.91,
0.396,1.32,-0.30,4.99,-2.27,0.60,-0.91,
0.396,1.32,-0.30,4.99,-2.25,0.60,-0.92,
0.397,1.32,-0.30,4.99,-2.24,0.59,-0.92,
0.397,1.32,-0.30,4.99,-2.23,0.58,-0.93,
0.397,1.32,-0.30,4.99,-2.22,0.56,-0.94,
0.397,1.22,-0.27,5.14,-2.22,0.56,-0.94,
0.397,1.22,-0.27,5.14,-2.21,0.54,-0.96,
0.397,1.22,-0.27,5.14,-2.19,0.51,-0.99,
0.397,1.22,-0.27,5.14,-2.19,0.50,-0.99,
0.398,1.22,-0.27,5.14,-2.19,0.48,-1.01,
0.398,1.22,-0.27,5.14,-2.18,0.47,-1.03,
0.407,0.94,-0.07,5.67,-2.18,0.47,-1.03,
0.408,0.94,-0.07,5.67,-2.18,0.45,-1.05,
0.408,0.94,-0.07,5.67,-2.18,0.42,-1.07,
0.411,0.94,-0.07,5.67,-2.18,0.41,-1.08,
0.412,0.94,-0.07,5.67,-2.18,0.39,-1.09,
0.412,0.94,-0.07,5.67,-2.19,0.37,-1.09,
0.413,0.74,0.50,6.34,-2.19,0.37,-1.09,
0.413,0.74,0.50,6.34,-2.19,0.34,-1.10,
0.413,0.74,0.50,6.34,-2.20,0.30,-1.09,
0.413,0.74,0.50,6.34,-2.20,0.28,-1.09,
0.415,0.74,0.50,6.34,-2.21,0.24,-1.08,
0.417,0.74,0.50,6.34,-2.22,0.19,-1.07,
0.421,0.20,1.22,6.79,-2.22,0.19,-1.07,
0.421,0.20,1.22,6.79,-2.23,0.13,-1.05,
0.422,0.20,1.22,6.79,-2.24,0.03,-1.03,
0.423,0.20,1.22,6.79,-2.25,-0.00,-1.02,
0.427,0.20,1.22,6.79,-2.27,-0.08,-0.99,
0.428,0.20,1.22,6.79,-2.28,-0.16,-0.97,
0.43,-0.61,1.82,7.26,-2.28,-0.16,-0.97,
0.43,-0.61,1.82,7.26,-2.29,-0.25,-0.94,
0.432,-0.61,1.82,7.26,-2.31,-0.38,-0.90,
0.433,-0.61,1.82,7.26,-2.32,-0.43,-0.88,
0.436,-0.61,1.82,7.26,-2.33,-0.52,-0.85,
0.437,-0.61,1.82,7.26,-2.35,-0.61,-0.82,
0.439,-1.30,1.99,7.49,-2.35,-0.61,-0.82,
0.44,-1.30,1.99,7.49,-2.36,-0.70,-0.79,
0.445,-1.30,1.99,7.49,-2.38,-0.82,-0.74,
0.446,-1.30,1.99,7.49,-2.38,-0.85,-0.72,
0.446,-1.30,1.99,7.49,-2.39,-0.93,-0.68,
0.447,-1.30,1.99,7.49,-2.40,-0.99,-0.64,
0.449,-1.40,2.35,7.64,-2.40,-0.99,-0.64,
0.449,-1.40,2.35,7.64,-2.40,-1.06,-0.61,
0.452,-1.40,2.35,7.64,-2.41,-1.14,-0.54,
0.454,-1.40,2.35,7.64,-2.41,-1.16,-0.52,
0.455,-1.40,2.35,7.64,-2.40,-1.21,-0.48,
0.457,-1.40,2.35,7.64,-2.40,-1.26,-0.43,
0.468,-1.33,2.83,7.52,-2.40,-1.26,-0.43,
0.468,-1.33,2.83,7.52,-2.39,-1.31,-0.39,
0.468,-1.33,2.83,7.52,-2.38,-1.37,-0.32,
0.468,-1.33,2.83,7.52,-2.37,-1.39,-0.29,
0.468,-1.33,2.83,7.52,-2.36,-1.43,-0.25,
0.469,-1.33,2.83,7.52,-2.34,-1.47,-0.20,
0.471,-1.07,3.30,7.33,-2.34,-1.47,-0.20,
0.471,-1.07,3.30,7.33,-2.33,-1.50,-0.16,
0.472,-1.07,3.30,7.33,-2.30,-1.56,-0.10,
0.473,-1.07,3.30,7.33,-2.29,-1.57,-0.07,
0.475,-1.07,3.30,7.33,-2.27,-1.61,-0.04,
0.478,-1.07,3.30,7.33,-2.24,-1.66,-0.00,
0.479,-0.77,3.54,7.04,-2.24,-1.66,-0.00,
0.479,-0.77,3.54,7.04,-2.22,-1.71,0.03,
0.482,-0.77,3.54,7.04,-2.19,-1.80,0.08,
0.483,-0.77,3.54,7.04,-2.18,-1.83,0.09,
0.485,-0.77,3.54,7.04,-2.16,-1.89,0.12,
0.487,-0.77,3.54,7.04,-2.14,-1.95,0.14,
0.489,-0.54,3.67,6.78,-2.14,-1.95,0.14,
0.489,-0.54,3.67,6.78,-2.12,-2.02,0.16,
0.492,-0.54,3.67,6.78,-2.09,-2.11,0.19,
0.493,-0.54,3.67,6.78,-2.09,-2.15,0.20,
0.495,-0.54,3.67,6.78,-2.07,-2.21,0.22,
0.497,-0.54,3.67,6.78,-2.06,-2.28,0.24,
0.499,-0.44,3.52,6.30,-2.06,-2.28,0.24,
0.499,-0.44,3.52,6.30,-2.05,-2.35,0.26,
0.502,-0.44,3.52,6.30,-2.04,-2.44,0.29,
0.503,-0.44,3.52,6.30,-2.03,-2.48,0.29,
0.505,-0.44,3.52,6.30,-2.02,-2.54,0.31,
0.507,-0.44,3.52,6.30,-2.01,-2.60,0.33,
0.509,-0.51,3.55,5.67,-2.01,-2.60,0.33,
0.509,-0.51,3.55,5.67,-2.00,-2.66,0.35,
0.512,-0.51,3.55,5.67,-1.99,-2.75,0.38,
0.513,-0.51,3.55,5.67,-1.98,-2.78,0.39,
0.515,-0.51,3.55,5.67,-1.97,-2.84,0.41,
0.517,-0.51,3.55,5.67,-1.96,-2.89,0.44,
0.519,-0.81,3.48,4.66,-1.96,-2.89,0.44,
0.519,-0.81,3.48,4.66,-1.95,-2.94,0.46,
0.522,-0.81,3.48,4.66,-1.94,-3.00,0.50,
0.523,-0.81,3.48,4.66,-1.93,-3.02,0.51,
0.532,-0.81,3.48,4.66,-1.92,-3.07,0.54,
0.533,-0.81,3.48,4.66,-1.91,-3.11,0.57,
0.533,-0.84,3.37,3.71,-1.91,-3.11,0.57,
0.533,-0.84,3.37,3.71,-1.90,-3.16,0.59,
0.533,-0.84,3.37,3.71,-1.88,-3.22,0.62,
0.533,-0.84,3.37,3.71,-1.87,-3.23,0.63,
0.535,-0.84,3.37,3.71,-1.85,-3.26,0.65,
0.537,-0.84,3.37,3.71,-1.83,-3.28,0.66,
0.539,-0.58,2.87,3.05,-1.83,-3.28,0.66,
0.539,-0.58,2.87,3.05,-1.80,-3.29,0.67,
0.542,-0.58,2.87,3.05,-1.76,-3.28,0.68,
0.543,-0.58,2.87,3.05,-1.74,-3.27,0.68,
0.545,-0.58,2.87,3.05,-1.71,-3.26,0.68,
0.547,-0.58,2.87,3.05,-1.68,-3.23,0.68,
0.549,-0.02,2.53,2.81,-1.68,-3.23,0.68,
0.549,-0.02,2.53,2.81,-1.64,-3.21,0.68,
0.552,-0.02,2.53,2.81,-1.57,-3.17,0.67,
0.553,-0.02,2.53,2.81,-1.55,-3.16,0.67,
0.555,-0.02,2.53,2.81,-1.51,-3.15,0.66,
0.557,-0.02,2.53,2.81,-1.46,-3.14,0.65,
0.559,0.40,2.24,2.64,-1.46,-3.14,0.65,
0.559,0.40,2.24,2.64,-1.42,-3.13,0.65,
0.562,0.40,2.24,2.64,-1.36,-3.11,0.63,
0.563,0.40,2.24,2.64,-1.34,-3.11,0.62,
0.565,0.40,2.24,2.64,-1.30,-3.09,0.61,
0.567,0.40,2.24,2.64,-1.25,-3.06,0.59,
0.569,0.64,1.93,2.27,-1.25,-3.06,0.59,
0.569,0.64,1.93,2.27,-1.22,-3.02,0.57,
0.571,0.64,1.93,2.27,-1.16,-2.94,0.53,
0.573,0.64,1.93,2.27,-1.13,-2.91,0.52,
0.576,0.64,1.93,2.27,-1.10,-2.84,0.49,
0.577,0.64,1.93,2.27,-1.05,-2.77,0.46,
0.579,0.90,1.34,2.35,-1.05,-2.77,0.46,
0.579,0.90,1.34,2.35,-1.01,-2.69,0.43,
0.585,0.90,1.34,2.35,-0.94,-2.58,0.38,
0.586,0.90,1.34,2.35,-0.92,-2.55,0.36,
0.586,0.90,1.34,2.35,-0.87,-2.48,0.32,
0.587,0.90,1.34,2.35,-0.82,-2.41,0.29,
0.589,0.98,1.08,2.70,-0.82,-2.41,0.29,
0.589,0.98,1.08,2.70,-0.77,-2.35,0.25,
0.61,0.98,1.08,2.70,-0.69,-2.26,0.20,
0.611,0.98,1.08,2.70,-0.66,-2.23,0.18,
0.611,0.98,1.08,2.70,-0.61,-2.17,0.15,
0.611,0.98,1.08,2.70,-0.55,-2.11,0.12,
0.611,0.74,1.06,2.72,-0.55,-2.11,0.12,
0.611,0.74,1.06,2.72,-0.49,-2.05,0.10,
0.611,0.74,1.06,2.72,-0.41,-1.96,0.07,
0.611,0.74,1.06,2.72,-0.38,-1.93,0.06,
0.612,0.74,1.06,2.72,-0.33,-1.87,0.05,
0.612,0.74,1.06,2.72,-0.27,-1.82,0.04,
0.612,0.47,1.27,2.68,-0.27,-1.82,0.04,
0.612,0.47,1.27,2.68,-0.22,-1.77,0.03,
0.612,0.47,1.27,2.68,-0.15,-1.72,0.02,
0.617,0.47,1.27,2.68,-0.12,-1.70,0.02,
0.618,0.47,1.27,2.68,-0.08,-1.66,0.02,
0.618,0.47,1.27,2.68,-0.03,-1.63,0.03,
0.619,-0.06,1.45,2.41,-0.03,-1.63,0.03,
0.619,-0.06,1.45,2.41,0.01,-1.60,0.03,
0.622,-0.06,1.45,2.41,0.06,-1.55,0.04,
0.623,-0.06,1.45,2.41,0.07,-1.53,0.05,
0.627,-0.06,1.45,2.41,0.10,-1.50,0.06,
0.628,-0.06,1.45,2.41,0.11,-1.46,0.07,
0.631,-0.28,1.44,1.60,0.11,-1.46,0.07,
0.631,-0.28,1.44,1.60,0.13,-1.43,0.08,
0.632,-0.28,1.44,1.60,0.13,-1.39,0.08,
0.633,-0.28,1.44,1.60,0.13,-1.39,0.08,
0.636,-0.28,1.44,1.60,0.12,-1.39,0.07,
0.637,-0.28,1.44,1.60,0.10,-1.41,0.06,
0.64,0.24,1.28,0.66,0.10,-1.41,0.06,
0.64,0.24,1.28,0.66,0.08,-1.44,0.04,
0.644,0.24,1.28,0.66,0.03,-1.49,0.01,
0.644,0.24,1.28,0.66,0.01,-1.50,-0.01,
0.645,0.24,1.28,0.66,-0.02,-1.53,-0.03,
0.647,0.24,1.28,0.66,-0.06,-1.56,-0.06,
0.65,0.41,1.16,0.00,-0.06,-1.56,-0.06,
0.65,0.41,1.16,0.00,-0.10,-1.58,-0.09,
0.654,0.41,1.16,0.00,-0.16,-1.60,-0.13,
0.654,0.41,1.16,0.00,-0.18,-1.61,-0.14,
0.657,0.41,1.16,0.00,-0.21,-1.61,-0.17,
0.657,0.41,1.16,0.00,-0.25,-1.61,-0.19,
0.66,-0.03,0.88,0.11,-0.25,-1.61,-0.19,
0.66,-0.03,0.88,0.11,-0.27,-1.62,-0.22,
0.664,-0.03,0.88,0.11,-0.30,-1.62,-0.24,
0.664,-0.03,0.88,0.11,-0.31,-1.63,-0.25,
0.665,-0.03,0.88,0.11,-0.32,-1.65,-0.26,
0.667,-0.03,0.88,0.11,-0.33,-1.67,-0.28,
0.669,-0.38,0.67,0.98,-0.33,-1.67,-0.28,
0.67,-0.38,0.67,0.98,-0.33,-1.71,-0.30,
0.672,-0.38,0.67,0.98,-0.32,-1.77,-0.33,
0.674,-0.38,0.67,0.98,-0.32,-1.79,-0.33,
0.675,-0.38,0.67,0.98,-0.30,-1.83,-0.36,
0.679,-0.38,0.67,0.98,-0.28,-1.88,-0.38,
0.679,-0.33,0.28,1.82,-0.28,-1.88,-0.38,
0.679,-0.33,0.28,1.82,-0.26,-1.92,-0.40,
0.682,-0.33,0.28,1.82,-0.21,-1.97,-0.44,
0.684,-0.33,0.28,1.82,-0.20,-1.98,-0.46,
0.685,-0.33,0.28,1.82,-0.16,-2.00,-0.48,
0.688,-0.33,0.28,1.82,-0.12,-2.01,-0.51,
0.691,-0.55,0.06,2.33,-0.12,-2.01,-0.51,
0.691,-0.55,0.06,2.33,-0.07,-2.01,-0.52,
0.701,-0.55,0.06,2.33,-0.00,-1.99,-0.54,
0.701,-0.55,0.06,2.33,0.02,-1.98,-0.55,
0.701,-0.55,0.06,2.33,0.06,-1.96,-0.56,
0.701,-0.55,0.06,2.33,0.11,-1.93,-0.56,
0.702,-0.97,0.16,2.33,0.11,-1.93,-0.56,
0.702,-0.97,0.16,2.33,0.16,-1.90,-0.56,
0.702,-0.97,0.16,2.33,0.23,-1.85,-0.54,
0.704,-0.97,0.16,2.33,0.26,-1.83,-0.54,
0.705,-0.97,0.16,2.33,0.30,-1.79,-0.52,
0.707,-0.97,0.16,2.33,0.34,-1.74,-0.50,
0.709,-1.43,0.48,1.71,0.34,-1.74,-0.50,
0.709,-1.43,0.48,1.71,0.38,-1.68,-0.48,
0.712,-1.43,0.48,1.71,0.44,-1.59,-0.44,
0.713,-1.43,0.48,1.71,0.46,-1.56,-0.42,
0.715,-1.43,0.48,1.71,0.50,-1.51,-0.39,
0.719,-1.43,0.48,1.71,0.53,-1.45,-0.35,
0.719,-1.73,0.75,1.20,0.53,-1.45,-0.35,
0.72,-1.73,0.75,1.20,0.56,-1.40,-0.32,
0.722,-1.73,0.75,1.20,0.58,-1.34,-0.27,
0.726,-1.73,0.75,1.20,0.59,-1.32,-0.26,
0.726,-1.73,0.75,1.20,0.59,-1.28,-0.24,
0.727,-1.73,0.75,1.20,0.59,-1.26,-0.23,
0.729,-1.24,0.66,0.32,0.59,-1.26,-0.23,
0.73,-1.24,0.66,0.32,0.58,-1.24,-0.23,
0.732,-1.24,0.66,0.32,0.56,-1.22,-0.24,
0.733,-1.24,0.66,0.32,0.55,-1.21,-0.25,
0.735,-1.24,0.66,0.32,0.52,-1.19,-0.26,
0.737,-1.24,0.66,0.32,0.49,-1.17,-0.28,
0.739,-0.53,0.23,-0.66,0.49,-1.17,-0.28,
0.741,-0.53,0.23,-0.66,0.46,-1.15,-0.30,
0.749,-0.53,0.23,-0.66,0.40,-1.10,-0.33,
0.751,-0.53,0.23,-0.66,0.39,-1.09,-0.35,
0.751,-0.53,0.23,-0.66,0.35,-1.06,-0.36,
0.751,-0.53,0.23,-0.66,0.31,-1.04,-0.38,
0.751,-0.50,0.09,-0.90,0.31,-1.04,-0.38,
0.751,-0.50,0.09,-0.90,0.27,-1.02,-0.40,
0.752,-0.50,0.09,-0.90,0.22,-1.00,-0.42,
0.753,-0.50,0.09,-0.90,0.20,-1.00,-0.43,
0.758,-0.50,0.09,-0.90,0.17,-0.99,-0.44,
0.759,-0.50,0.09,-0.90,0.14,-0.98,-0.46,
0.759,-0.80,0.19,-0.82,0.14,-0.98,-0.46,
0.759,-0.80,0.19,-0.82,0.12,-0.98,-0.46,
0.763,-0.80,0.19,-0.82,0.09,-0.96,-0.47,
0.763,-0.80,0.19,-0.82,0.08,-0.95,-0.47,
0.765,-0.80,0.19,-0.82,0.07,-0.93,-0.47,
0.767,-0.80,0.19,-0.82,0.06,-0.90,-0.47,
0.769,-1.33,0.15,-0.46,0.06,-0.90,-0.47,
0.77,-1.33,0.15,-0.46,0.05,-0.88,-0.47,
0.772,-1.33,0.15,-0.46,0.05,-0.83,-0.45,
0.773,-1.33,0.15,-0.46,0.06,-0.81,-0.45,
0.775,-1.33,0.15,-0.46,0.07,-0.78,-0.43,
0.777,-1.33,0.15,-0.46,0.08,-0.74,-0.42,
0.779,-1.58,0.10,0.15,0.08,-0.74,-0.42,
0.779,-1.58,0.10,0.15,0.10,-0.71,-0.41,
0.782,-1.58,0.10,0.15,0.13,-0.66,-0.39,
0.786,-1.58,0.10,0.15,0.14,-0.65,-0.38,
0.786,-1.58,0.10,0.15,0.17,-0.62,-0.37,
0.787,-1.58,0.10,0.15,0.20,-0.58,-0.36,
0.79,-1.56,0.14,0.59,0.20,-0.58,-0.36,
0.791,-1.56,0.14,0.59,0.23,-0.55,-0.34,
0.792,-1.56,0.14,0.59,0.27,-0.50,-0.32,
0.796,-1.56,0.14,0.59,0.29,-0.49,-0.31,
0.797,-1.56,0.14,0.59,0.31,-0.45,-0.29,
0.798,-1.56,0.14,0.59,0.34,-0.42,-0.26,
0.799,-1.93,0.38,0.76,0.34,-0.42,-0.26,
0.799,-1.93,0.38,0.76,0.36,-0.39,-0.23,
0.802,-1.93,0.38,0.76,0.38,-0.35,-0.17,
0.803,-1.93,0.38,0.76,0.39,-0.34,-0.15,
0.805,-1.93,0.38,0.76,0.40,-0.32,-0.10,
0.807,-1.93,0.38,0.76,0.40,-0.30,-0.05,
0.809,-2.82,0.81,0.28,0.40,-0.30,-0.05,
0.809,-2.82,0.81,0.28,0.41,-0.29,0.01,
0.812,-2.82,0.81,0.28,0.40,-0.28,0.09,
0.813,-2.82,0.81,0.28,0.40,-0.27,0.12,
0.815,-2.82,0.81,0.28,0.40,-0.27,0.18,
0.817,-2.82,0.81,0.28,0.39,-0.26,0.23,
0.819,-3.10,1.38,-0.37,0.39,-0.26,0.23,
0.819,-3.10,1.38,-0.37,0.38,-0.25,0.28,
0.822,-3.10,1.38,-0.37,0.36,-0.24,0.34,
0.823,-3.10,1.38,-0.37,0.35,-0.24,0.36,
0.825,-3.10,1.38,-0.37,0.33,-0.24,0.40,
0.827,-3.10,1.38,-0.37,0.31,-0.24,0.43,
0.829,-2.67,1.25,-1.06,0.31,-0.24,0.43,
0.83,-2.67,1.25,-1.06,0.28,-0.25,0.47,
0.832,-2.67,1.25,-1.06,0.24,-0.25,0.53,
0.833,-2.67,1.25,-1.06,0.22,-0.25,0.55,
0.835,-2.67,1.25,-1.06,0.19,-0.25,0.59,
0.837,-2.67,1.25,-1.06,0.16,-0.24,0.63,
0.84,-2.48,1.07,-1.52,0.16,-0.24,0.63,
0.84,-2.48,1.07,-1.52,0.14,-0.23,0.68,
0.842,-2.48,1.07,-1.52,0.10,-0.21,0.74,
0.843,-2.48,1.07,-1.52,0.09,-0.20,0.76,
0.845,-2.48,1.07,-1.52,0.07,-0.17,0.79,
0.847,-2.48,1.07,-1.52,0.05,-0.15,0.83,
0.849,-2.33,1.10,-1.51,0.05,-0.15,0.83,
0.849,-2.33,1.10,-1.51,0.03,-0.13,0.86,
0.852,-2.33,1.10,-1.51,0.01,-0.09,0.90,
0.853,-2.33,1.10,-1.51,0.00,-0.07,0.92,
0.855,-2.33,1.10,-1.51,-0.01,-0.05,0.95,
0.858,-2.33,1.10,-1.51,-0.03,-0.04,0.97,
0.869,-1.78,0.95,-1.30,-0.03,-0.04,0.97,
0.87,-1.78,0.95,-1.30,-0.05,-0.03,0.98,
0.87,-1.78,0.95,-1.30,-0.10,-0.06,0.97,
0.87,-1.78,0.95,-1.30,-0.13,-0.09,0.95,
0.87,-1.78,0.95,-1.30,-0.22,-0.18,0.88,
0.87,-1.78,0.95,-1.30,-0.34,-0.29,0.78,
0.87,2.50,-0.61,-3.75,-0.34,-0.29,0.78,
0.871,2.50,-0.61,-3.75,-0.46,-0.37,0.67,
0.873,2.50,-0.61,-3.75,-0.61,-0.36,0.54,
0.874,2.50,-0.61,-3.75,-0.65,-0.34,0.51,
0.875,2.50,-0.61,-3.75,-0.69,-0.29,0.46,
0.877,2.50,-0.61,-3.75,-0.71,-0.25,0.44,
0.879,1.10,-1.53,-2.58,-0.71,-0.25,0.44,
0.879,1.10,-1.53,-2.58,-0.71,-0.21,0.43,
0.882,1.10,-1.53,-2.58,-0.69,-0.17,0.44,
0.883,1.10,-1.53,-2.58,-0.67,-0.15,0.44,
0.885,1.10,-1.53,-2.58,-0.64,-0.12,0.45,
0.887,1.10,-1.53,-2.58,-0.60,-0.09,0.46,
0.889,-0.44,-1.09,-0.18,-0.60,-0.09,0.46,
0.89,-0.44,-1.09,-0.18,-0.55,-0.07,0.46,
0.892,-0.44,-1.09,-0.18,-0.45,-0.04,0.47,
0.893,-0.44,-1.09,-0.18,-0.41,-0.04,0.47,
0.895,-0.44,-1.09,-0.18,-0.33,-0.02,0.47,
0.897,-0.44,-1.09,-0.18,-0.25,-0.02,0.48,
0.901,-0.36,-1.11,1.02,-0.25,-0.02,0.48,
0.901,-0.36,-1.11,1.02,-0.18,-0.02,0.49,
0.902,-0.36,-1.11,1.02,-0.07,-0.01,0.50,
0.903,-0.36,-1.11,1.02,-0.04,-0.00,0.51,
0.905,-0.36,-1.11,1.02,0.01,0.01,0.52,
0.908,-0.36,-1.11,1.02,0.05,0.02,0.53,
0.909,-0.62,-0.59,0.65,0.05,0.02,0.53,
0.909,-0.62,-0.59,0.65,0.08,0.03,0.54,
0.912,-0.62,-0.59,0.65,0.12,0.05,0.55,
0.913,-0.62,-0.59,0.65,0.12,0.06,0.56,
0.915,-0.62,-0.59,0.65,0.14,0.07,0.58,
0.917,-0.62,-0.59,0.65,0.15,0.09,0.61,
0.919,-1.08,-0.18,-0.37,0.15,0.09,0.61,
0.919,-1.08,-0.18,-0.37,0.15,0.10,0.64,
0.926,-1.08,-0.18,-0.37,0.15,0.12,0.70,
0.926,-1.08,-0.18,-0.37,0.15,0.12,0.73,
0.926,-1.08,-0.18,-0.37,0.15,0.13,0.78,
0.927,-1.08,-0.18,-0.37,0.15,0.13,0.84,
0.93,-2.77,0.49,-0.71,0.15,0.13,0.84,
0.93,-2.77,0.49,-0.71,0.15,0.13,0.90,
0.932,-2.77,0.49,-0.71,0.15,0.11,0.99,
0.933,-2.77,0.49,-0.71,0.15,0.10,1.02,
0.935,-2.77,0.49,-0.71,0.15,0.09,1.07,
0.937,-2.77,0.49,-0.71,0.16,0.07,1.12,
0.939,-2.90,1.03,-0.28,0.16,0.07,1.12,
0.939,-2.90,1.03,-0.28,0.16,0.06,1.16,
0.942,-2.90,1.03,-0.28,0.17,0.05,1.20,
0.943,-2.90,1.03,-0.28,0.18,0.06,1.21,
0.945,-2.90,1.03,-0.28,0.18,0.07,1.24,
0.947,-2.90,1.03,-0.28,0.19,0.09,1.26,
0.949,-1.85,0.90,-0.14,0.19,0.09,1.26,
0.949,-1.85,0.90,-0.14,0.20,0.11,1.29,
0.952,-1.85,0.90,-0.14,0.20,0.15,1.32,
0.953,-1.85,0.90,-0.14,0.21,0.16,1.32,
0.955,-1.85,0.90,-0.14,0.21,0.18,1.34,
0.957,-1.85,0.90,-0.14,0.22,0.19,1.34,
0.959,-0.58,0.10,-0.20,0.22,0.19,1.34,
0.96,-0.58,0.10,-0.20,0.22,0.19,1.35,
0.962,-0.58,0.10,-0.20,0.23,0.18,1.35,
0.963,-0.58,0.10,-0.20,0.23,0.17,1.35,
0.965,-0.58,0.10,-0.20,0.22,0.15,1.36,
0.967,-0.58,0.10,-0.20,0.22,0.13,1.35,
0.969,0.36,-0.65,0.11,0.22,0.13,1.35,
0.969,0.36,-0.65,0.11,0.21,0.10,1.34,
0.972,0.36,-0.65,0.11,0.20,0.06,1.33,
0.973,0.36,-0.65,0.11,0.20,0.04,1.32,
0.975,0.36,-0.65,0.11,0.19,0.02,1.31,
0.978,0.36,-0.65,0.11,0.18,-0.01,1.29,
0.981,0.46,-0.95,0.42,0.18,-0.01,1.29,
0.981,0.46,-0.95,0.42,0.17,-0.04,1.28,
0.982,0.46,-0.95,0.42,0.13,-0.10,1.26,
0.984,0.46,-0.95,0.42,0.12,-0.12,1.25,
0.985,0.46,-0.95,0.42,0.08,-0.16,1.23,
0.987,0.46,-0.95,0.42,0.05,-0.19,1.21,
0.991,0.65,-0.99,-0.00,0.05,-0.19,1.21,
0.992,0.65,-0.99,-0.00,0.01,-0.24,1.18,
0.995,0.65,-0.99,-0.00,-0.06,-0.32,1.14,
0.995,0.65,-0.99,-0.00,-0.08,-0.35,1.13,
0.999,0.65,-0.99,-0.00,-0.16,-0.44,1.08,
0.999,0.65,-0.99,-0.00,-0.18,-0.47,1.07,
0.999,0.82,-0.70,-0.22,-0.18,-0.47,1.07,
0.999,0.82,-0.70,-0.22,-0.23,-0.53,1.03,
1.002,0.82,-0.70,-0.22,-0.31,-0.62,0.98,
1.005,0.82,-0.70,-0.22,-0.33,-0.64,0.97,
1.005,0.82,-0.70,-0.22,-0.36,-0.69,0.94,
1.011,0.82,-0.70,-0.22,-0.40,-0.73,0.92,
1.012,0.72,-0.32,0.01,-0.40,-0.73,0.92,
1.012,0.72,-0.32,0.01,-0.41,-0.75,0.91,
1.012,0.72,-0.32,0.01,-0.42,-0.78,0.90,
1.013,0.72,-0.32,0.01,-0.42,-0.79,0.90,
1.017,0.72,-0.32,0.01,-0.41,-0.79,0.90,
1.017,0.72,-0.32,0.01,-0.39,-0.79,0.91,
1.019,0.17,0.14,0.71,-0.39,-0.79,0.91,
1.02,0.17,0.14,0.71,-0.36,-0.78,0.92,
1.022,0.17,0.14,0.71,-0.32,-0.75,0.96,
1.046,0.17,0.14,0.71,-0.30,-0.73,0.97,
1.064,0.17,0.14,0.71,-0.27,-0.69,0.99,
1.064,0.17,0.14,0.71,-0.24,-0.64,1.01,
1.064,-0.17,0.49,0.73,-0.24,-0.64,1.01,
1.065,-0.17,0.49,0.73,-0.20,-0.58,1.02,
1.065,-0.17,0.49,0.73,-0.13,-0.48,1.06,
1.065,-0.17,0.49,0.73,-0.11,-0.45,1.07,
1.066,-0.17,0.49,0.73,-0.06,-0.37,1.10,
1.066,-0.17,0.49,0.73,-0.01,-0.29,1.12,
1.066,-0.37,0.63,0.69,-0.01,-0.29,1.12,
1.066,-0.37,0.63,0.69,0.03,-0.21,1.15,
1.067,-0.37,0.63,0.69,0.09,-0.10,1.19,
1.067,-0.37,0.63,0.69,0.11,-0.07,1.20,
1.067,-0.37,0.63,0.69,0.15,-0.01,1.22,
1.067,-0.37,0.63,0.69,0.18,0.04,1.23,
1.068,-0.03,0.53,0.54,0.18,0.04,1.23,
1.068,-0.03,0.53,0.54,0.20,0.07,1.24,
1.068,-0.03,0.53,0.54,0.23,0.10,1.25,
1.068,-0.03,0.53,0.54,0.24,0.10,1.25,
1.069,-0.03,0.53,0.54,0.25,0.10,1.24,
1.069,-0.03,0.53,0.54,0.26,0.10,1.23,
1.069,0.69,0.24,0.49,0.26,0.10,1.23,
1.069,0.69,0.24,0.49,0.26,0.10,1.23,
1.07,0.69,0.24,0.49,0.25,0.09,1.21,
1.07,0.69,0.24,0.49,0.25,0.08,1.20,
1.07,0.69,0.24,0.49,0.24,0.06,1.18,
1.071,0.69,0.24,0.49,0.22,0.04,1.15,
1.071,1.22,0.05,0.46,0.22,0.04,1.15,
1.071,1.22,0.05,0.46,0.20,0.01,1.13,
1.078,1.22,0.05,0.46,0.16,-0.05,1.08,
1.078,1.22,0.05,0.46,0.15,-0.07,1.06,
1.079,1.22,0.05,0.46,0.11,-0.12,1.02,
1.079,1.22,0.05,0.46,0.08,-0.17,0.98,
1.079,1.73,-0.03,0.38,0.08,-0.17,0.98,
1.08,1.73,-0.03,0.38,0.04,-0.21,0.94,
1.082,1.73,-0.03,0.38,-0.02,-0.27,0.88,
1.083,1.73,-0.03,0.38,-0.04,-0.28,0.86,
1.087,1.73,-0.03,0.38,-0.08,-0.32,0.83,
1.088,1.73,-0.03,0.38,-0.12,-0.34,0.79,
1.093,1.43,0.05,0.18,-0.12,-0.34,0.79,
1.093,1.43,0.05,0.18,-0.16,-0.37,0.77,
1.093,1.43,0.05,0.18,-0.22,-0.40,0.74,
1.094,1.43,0.05,0.18,-0.23,-0.41,0.73,
1.095,1.43,0.05,0.18,-0.26,-0.42,0.71,
1.097,1.43,0.05,0.18,-0.28,-0.44,0.70,
1.099,0.66,0.20,0.34,-0.28,-0.44,0.70,
1.099,0.66,0.20,0.34,-0.30,-0.45,0.70,
1.102,0.66,0.20,0.34,-0.30,-0.46,0.70,
1.103,0.66,0.20,0.34,-0.30,-0.46,0.71,
1.106,0.66,0.20,0.34,-0.29,-0.46,0.71,
1.108,0.66,0.20,0.34,-0.28,-0.46,0.73,
1.109,0.05,0.46,0.97,-0.28,-0.46,0.73,
1.109,0.05,0.46,0.97,-0.25,-0.45,0.74,
1.112,0.05,0.46,0.97,-0.21,-0.42,0.77,
1.113,0.05,0.46,0.97,-0.20,-0.41,0.78,
1.115,0.05,0.46,0.97,-0.16,-0.38,0.80,
1.117,0.05,0.46,0.97,-0.11,-0.34,0.82,
1.119,-0.32,0.63,1.49,-0.11,-0.34,0.82,
1.119,-0.32,0.63,1.49,-0.07,-0.30,0.85,
1.127,-0.32,0.63,1.49,-0.01,-0.23,0.89,
1.128,-0.32,0.63,1.49,0.01,-0.21,0.90,
1.128,-0.32,0.63,1.49,0.05,-0.17,0.92,
1.129,-0.32,0.63,1.49,0.08,-0.14,0.94,
1.129,-0.49,0.66,1.57,0.08,-0.14,0.94,
1.136,-0.49,0.66,1.57,0.10,-0.10,0.96,
1.136,-0.49,0.66,1.57,0.13,-0.07,0.97,
1.136,-0.49,0.66,1.57,0.14,-0.06,0.98,
1.137,-0.49,0.66,1.57,0.15,-0.04,0.97,
1.137,-0.49,0.66,1.57,0.15,-0.03,0.97,
1.17,-0.04,0.50,0.95,0.15,-0.03,0.97,
1.171,-0.04,0.50,0.95,0.16,-0.03,0.96,
1.171,-0.04,0.50,0.95,0.15,-0.03,0.94,
1.171,-0.04,0.50,0.95,0.15,-0.03,0.93,
1.171,-0.04,0.50,0.95,0.15,-0.04,0.91,
1.173,-0.04,0.50,0.95,0.14,-0.06,0.89,
1.173,0.34,0.34,0.49,0.14,-0.06,0.89,
1.173,0.34,0.34,0.49,0.14,-0.08,0.87,
1.173,0.34,0.34,0.49,0.13,-0.11,0.84,
1.174,0.34,0.34,0.49,0.13,-0.12,0.83,
1.174,0.34,0.34,0.49,0.12,-0.14,0.81,
1.174,0.34,0.34,0.49,0.12,-0.16,0.79,
1.174,0.38,0.14,0.13,0.12,-0.16,0.79,
1.174,0.38,0.14,0.13,0.11,-0.18,0.76,
1.174,0.38,0.14,0.13,0.11,-0.20,0.73,
1.175,0.38,0.14,0.13,0.11,-0.20,0.71,
1.175,0.38,0.14,0.13,0.11,-0.21,0.69,
1.175,0.38,0.14,0.13,0.11,-0.21,0.66,
1.175,0.55,0.02,-0.03,0.11,-0.21,0.66,
1.175,0.55,0.02,-0.03,0.11,-0.21,0.63,
1.176,0.55,0.02,-0.03,0.11,-0.20,0.59,
1.176,0.55,0.02,-0.03,0.12,-0.19,0.58,
1.176,0.55,0.02,-0.03,0.12,-0.18,0.55,
1.177,0.55,0.02,-0.03,0.12,-0.17,0.53,
1.181,0.51,0.11,-0.25,0.12,-0.17,0.53,
1.181,0.51,0.11,-0.25,0.12,-0.16,0.51,
1.182,0.51,0.11,-0.25,0.12,-0.14,0.49,
1.185,0.51,0.11,-0.25,0.12,-0.13,0.48,
1.185,0.51,0.11,-0.25,0.12,-0.11,0.46,
1.187,0.51,0.11,-0.25,0.12,-0.08,0.45,
1.192,0.31,0.19,-0.76,0.12,-0.08,0.45,
1.192,0.31,0.19,-0.76,0.11,-0.06,0.44,
1.211,0.31,0.19,-0.76,0.11,-0.02,0.42,
1.211,0.31,0.19,-0.76,0.10,-0.01,0.42,
1.211,0.31,0.19,-0.76,0.10,0.02,0.41,
1.212,0.31,0.19,-0.76,0.09,0.04,0.40,
1.212,0.14,0.34,-1.25,0.09,0.04,0.40,
1.212,0.14,0.34,-1.25,0.08,0.07,0.40,
1.212,0.14,0.34,-1.25,0.06,0.10,0.39,
1.213,0.14,0.34,-1.25,0.05,0.10,0.38,
1.213,0.14,0.34,-1.25,0.03,0.11,0.38,
1.213,0.14,0.34,-1.25,0.01,0.11,0.37,
1.213,0.02,0.73,-1.67,0.01,0.11,0.37,
1.214,0.02,0.73,-1.67,-0.02,0.11,0.37,
1.214,0.02,0.73,-1.67,-0.05,0.12,0.37,
1.214,0.02,0.73,-1.67,-0.06,0.12,0.36,
1.219,0.02,0.73,-1.67,-0.09,0.12,0.36,
1.219,0.02,0.73,-1.67,-0.12,0.12,0.36,
1.22,-0.20,1.14,-1.47,-0.12,0.12,0.36,
1.22,-0.20,1.14,-1.47,-0.14,0.10,0.36,
1.225,-0.20,1.14,-1.47,-0.19,0.05,0.36,
1.225,-0.20,1.14,-1.47,-0.21,0.02,0.36,
1.23,0.13,1.55,-1.17,-0.21,0.02,0.36,
1.23,0.13,1.55,-1.17,-0.32,-0.14,0.33,
1.231,0.13,1.55,-1.17,-0.32,-0.14,0.33,
1.232,0.13,1.55,-1.17,-0.32,-0.14,0.33,
1.232,0.13,1.55,-1.17,-0.37,-0.22,0.29,
1.233,0.13,1.55,-1.17,-0.41,-0.28,0.26,
1.235,0.13,1.55,-1.17,-0.43,-0.30,0.24,
1.237,0.13,1.55,-1.17,-0.47,-0.35,0.21,
1.239,0.52,1.84,-1.38,-0.47,-0.35,0.21,
1.24,0.52,1.84,-1.38,-0.51,-0.40,0.17,
1.242,0.52,1.84,-1.38,-0.56,-0.45,0.12,
1.247,0.52,1.84,-1.38,-0.58,-0.46,0.10,
1.247,0.52,1.84,-1.38,-0.61,-0.49,0.07,
1.247,0.52,1.84,-1.38,-0.65,-0.50,0.04,
1.249,0.52,1.11,-1.06,-0.65,-0.50,0.04,
1.249,0.52,1.11,-1.06,-0.68,-0.50,0.02,
1.252,0.52,1.11,-1.06,-0.73,-0.50,-0.03,
1.253,0.52,1.11,-1.06,-0.74,-0.50,-0.04,
1.259,0.52,1.11,-1.06,-0.76,-0.49,-0.07,
1.259,0.52,1.11,-1.06,-0.77,-0.49,-0.10,
1.259,0.77,0.23,-0.52,-0.77,-0.49,-0.10,
1.259,0.77,0.23,-0.52,-0.79,-0.49,-0.13,
1.262,0.77,0.23,-0.52,-0.80,-0.50,-0.18,
1.263,0.77,0.23,-0.52,-0.80,-0.51,-0.20,
1.265,0.77,0.23,-0.52,-0.80,-0.53,-0.23,
1.267,0.77,0.23,-0.52,-0.81,-0.55,-0.26,
1.269,1.16,-0.08,-0.21,-0.81,-0.55,-0.26,
1.269,1.16,-0.08,-0.21,-0.81,-0.58,-0.30,
1.287,1.16,-0.08,-0.21,-0.81,-0.62,-0.36,
1.287,1.16,-0.08,-0.21,-0.81,-0.63,-0.39,
1.287,1.16,-0.08,-0.21,-0.81,-0.67,-0.44,
1.288,1.16,-0.08,-0.21,-0.82,-0.71,-0.50,
1.288,1.86,-0.10,-0.30,-0.82,-0.71,-0.50,
1.288,1.86,-0.10,-0.30,-0.83,-0.74,-0.54,
1.288,1.86,-0.10,-0.30,-0.83,-0.76,-0.58,
1.288,1.86,-0.10,-0.30,-0.84,-0.76,-0.58,
1.288,1.86,-0.10,-0.30,-0.84,-0.76,-0.58,
1.288,1.86,-0.10,-0.30,-0.85,-0.75,-0.58,
1.289,0.27,0.23,-0.60,-0.85,-0.75,-0.58,
1.289,0.27,0.23,-0.60,-0.85,-0.76,-0.58,
1.292,0.27,0.23,-0.60,-0.86,-0.78,-0.57,
1.293,0.27,0.23,-0.60,-0.87,-0.79,-0.56,
1.295,0.27,0.23,-0.60,-0.88,-0.80,-0.56,
1.297,0.27,0.23,-0.60,-0.89,-0.82,-0.55,
1.299,-0.45,0.69,-0.69,-0.89,-0.82,-0.55,
1.299,-0.45,0.69,-0.69,-0.90,-0.85,-0.55,
1.302,-0.45,0.69,-0.69,-0.92,-0.86,-0.55,
1.303,-0.45,0.69,-0.69,-0.92,-0.86,-0.55,
1.305,-0.45,0.69,-0.69,-0.93,-0.85,-0.56,
1.307,-0.45,0.69,-0.69,-0.94,-0.83,-0.56,
1.309,-0.50,0.70,-0.45,-0.94,-0.83,-0.56,
1.31,-0.50,0.70,-0.45,-0.95,-0.81,-0.57,
1.312,-0.50,0.70,-0.45,-0.95,-0.76,-0.58,
1.313,-0.50,0.70,-0.45,-0.95,-0.75,-0.59,
1.315,-0.50,0.70,-0.45,-0.96,-0.72,-0.60,
1.317,-0.50,0.70,-0.45,-0.97,-0.69,-0.61,
1.319,-0.58,0.43,-0.10,-0.97,-0.69,-0.61,
1.319,-0.58,0.43,-0.10,-0.97,-0.66,-0.62,
1.322,-0.58,0.43,-0.10,-0.99,-0.61,-0.63,
1.324,-0.58,0.43,-0.10,-0.99,-0.59,-0.63,
1.325,-0.58,0.43,-0.10,-1.00,-0.55,-0.64,
1.327,-0.58,0.43,-0.10,-1.01,-0.52,-0.64,
1.329,-0.85,0.16,0.14,-1.01,-0.52,-0.64,
1.329,-0.85,0.16,0.14,-1.01,-0.50,-0.65,
1.332,-0.85,0.16,0.14,-1.02,-0.46,-0.65,
1.333,-0.85,0.16,0.14,-1.02,-0.44,-0.65,
1.335,-0.85,0.16,0.14,-1.02,-0.41,-0.64,
1.337,-0.85,0.16,0.14,-1.01,-0.39,-0.64,
1.34,-1.05,0.05,0.54,-1.01,-0.39,-0.64,
1.341,-1.05,0.05,0.54,-1.01,-0.36,-0.64,
1.342,-1.05,0.05,0.54,-1.00,-0.31,-0.63,
1.343,-1.05,0.05,0.54,-1.00,-0.30,-0.63,
1.345,-1.05,0.05,0.54,-0.98,-0.27,-0.63,
1.347,-1.05,0.05,0.54,-0.98,-0.26,-0.63,
1.349,-0.76,-0.05,0.77,-0.98,-0.26,-0.63,
1.349,-0.76,-0.05,0.77,-0.98,-0.25,-0.64,
1.352,-0.76,-0.05,0.77,-0.97,-0.26,-0.66,
1.354,-0.76,-0.05,0.77,-0.96,-0.27,-0.67,
1.357,-0.76,-0.05,0.77,-0.96,-0.28,-0.68,
1.357,-0.76,-0.05,0.77,-0.95,-0.31,-0.70,
1.372,-0.08,-0.24,0.71,-0.95,-0.31,-0.70,
1.373,-0.08,-0.24,0.71,-0.94,-0.33,-0.71,
1.373,-0.08,-0.24,0.71,-0.94,-0.37,-0.73,
1.373,-0.08,-0.24,0.71,-0.94,-0.39,-0.74,
1.374,-0.08,-0.24,0.71,-0.93,-0.42,-0.75,
1.374,-0.08,-0.24,0.71,-0.93,-0.45,-0.76,
1.375,0.24,-0.48,0.52,-0.93,-0.45,-0.76,
1.375,0.24,-0.48,0.52,-0.93,-0.48,-0.76,
1.376,0.24,-0.48,0.52,-0.92,-0.53,-0.77,
1.376,0.24,-0.48,0.52,-0.92,-0.54,-0.77,
1.376,0.24,-0.48,0.52,-0.92,-0.56,-0.77,
1.381,0.24,-0.48,0.52,-0.91,-0.59,-0.77,
1.381,0.29,-0.39,0.25,-0.91,-0.59,-0.77,
1.381,0.29,-0.39,0.25,-0.91,-0.61,-0.76,
1.382,0.29,-0.39,0.25,-0.89,-0.64,-0.76,
1.389,0.29,-0.39,0.25,-0.89,-0.65,-0.75,
1.39,0.29,-0.39,0.25,-0.88,-0.69,-0.75,
1.39,0.29,-0.39,0.25,-0.88,-0.74,-0.74,
1.39,0.47,-0.13,0.07,-0.88,-0.74,-0.74,
1.391,0.47,-0.13,0.07,-0.88,-0.80,-0.73,
1.393,0.47,-0.13,0.07,-0.88,-0.90,-0.71,
1.393,0.47,-0.13,0.07,-0.88,-0.93,-0.70,
1.395,0.47,-0.13,0.07,-0.88,-1.00,-0.69,
1.397,0.47,-0.13,0.07,-0.88,-1.08,-0.68,
1.399,0.25,0.03,0.05,-0.88,-1.08,-0.68,
1.399,0.25,0.03,0.05,-0.87,-1.15,-0.66,
1.403,0.25,0.03,0.05,-0.87,-1.24,-0.64,
1.43,0.25,0.03,0.05,-0.87,-1.27,-0.63,
1.43,0.25,0.03,0.05,-0.87,-1.32,-0.61,
1.431,0.25,0.03,0.05,-0.87,-1.36,-0.60,
1.431,-0.14,-0.16,-0.13,-0.87,-1.36,-0.60,
1.431,-0.14,-0.16,-0.13,-0.87,-1.39,-0.58,
1.431,-0.14,-0.16,-0.13,-0.87,-1.41,-0.55,
1.431,-0.14,-0.16,-0.13,-0.87,-1.41,-0.53,
1.432,-0.14,-0.16,-0.13,-0.86,-1.40,-0.51,
1.432,-0.14,-0.16,-0.13,-0.84,-1.39,-0.49,
1.432,-0.76,-0.39,-0.21,-0.84,-1.39,-0.49,
1.432,-0.76,-0.39,-0.21,-0.82,-1.36,-0.46,
1.433,-0.76,-0.39,-0.21,-0.79,-1.29,-0.42,
1.433,-0.76,-0.39,-0.21,-0.78,-1.27,-0.41,
1.433,-0.76,-0.39,-0.21,-0.74,-1.22,-0.38,
1.433,-0.76,-0.39,-0.21,-0.72,-1.16,-0.36,
1.433,-1.11,-0.46,-0.02,-0.72,-1.16,-0.36,
1.434,-1.11,-0.46,-0.02,-0.69,-1.09,-0.33,
1.434,-1.11,-0.46,-0.02,-0.65,-1.00,-0.29,
1.437,-1.11,-0.46,-0.02,-0.64,-0.96,-0.28,
1.438,-1.11,-0.46,-0.02,-0.62,-0.89,-0.25,
1.439,-1.11,-0.46,-0.02,-0.60,-0.82,-0.22,
1.441,-1.15,-0.56,-0.03,-0.60,-0.82,-0.22,
1.441,-1.15,-0.56,-0.03,-0.58,-0.76,-0.19,
1.444,-1.15,-0.56,-0.03,-0.57,-0.66,-0.14,
1.444,-1.15,-0.56,-0.03,-0.56,-0.63,-0.12,
1.446,-1.15,-0.56,-0.03,-0.55,-0.57,-0.09,
1.447,-1.15,-0.56,-0.03,-0.54,-0.52,-0.06,
1.449,-1.07,-0.68,-0.05,-0.54,-0.52,-0.06,
1.45,-1.07,-0.68,-0.05,-0.53,-0.46,-0.03,
1.452,-1.07,-0.68,-0.05,-0.51,-0.38,0.01,
1.455,-1.07,-0.68,-0.05,-0.50,-0.36,0.02,
1.456,-1.07,-0.68,-0.05,-0.48,-0.32,0.03,
1.457,-1.07,-0.68,-0.05,-0.46,-0.28,0.03,
1.459,-0.37,-0.66,0.34,-0.46,-0.28,0.03,
1.46,-0.37,-0.66,0.34,-0.43,-0.24,0.03,
1.462,-0.37,-0.66,0.34,-0.37,-0.20,0.02,
1.463,-0.37,-0.66,0.34,-0.36,-0.19,0.01,
1.465,-0.37,-0.66,0.34,-0.31,-0.19,-0.00,
1.467,-0.37,-0.66,0.34,-0.27,-0.19,-0.02,
1.469,0.51,-0.66,0.84,-0.27,-0.19,-0.02,
1.469,0.51,-0.66,0.84,-0.22,-0.21,-0.05,
1.473,0.51,-0.66,0.84,-0.15,-0.24,-0.09,
1.474,0.51,-0.66,0.84,-0.13,-0.25,-0.11,
1.475,0.51,-0.66,0.84,-0.08,-0.28,-0.15,
1.477,0.51,-0.66,0.84,-0.02,-0.31,-0.19,
1.479,1.26,-0.92,1.19,-0.02,-0.31,-0.19,
1.48,1.26,-0.92,1.19,0.03,-0.34,-0.23,
1.482,1.26,-0.92,1.19,0.12,-0.38,-0.30,
1.484,1.26,-0.92,1.19,0.15,-0.39,-0.32,
1.485,1.26,-0.92,1.19,0.21,-0.42,-0.36,
1.503,1.26,-0.92,1.19,0.26,-0.46,-0.39,
1.504,1.26,-1.27,1.51,0.26,-0.46,-0.39,
1.504,1.26,-1.27,1.51,0.32,-0.50,-0.43,
1.505,1.26,-1.27,1.51,0.39,-0.59,-0.46,
1.505,1.26,-1.27,1.51,0.44,-0.65,-0.48,
1.506,1.26,-1.27,1.51,0.46,-0.68,-0.49,
1.507,1.26,-1.27,1.51,0.50,-0.74,-0.50,
1.51,0.11,-1.68,1.39,0.50,-0.74,-0.50,
1.511,0.11,-1.68,1.39,0.54,-0.80,-0.50,
1.512,0.11,-1.68,1.39,0.59,-0.88,-0.49,
1.513,0.11,-1.68,1.39,0.60,-0.91,-0.49,
1.515,0.11,-1.68,1.39,0.64,-0.96,-0.48,
1.516,0.11,-1.68,1.39,0.68,-1.01,-0.47,
1.516,-1.00,-1.68,0.90,0.68,-1.01,-0.47,
1.516,-1.00,-1.68,0.90,0.71,-1.06,-0.47,
1.517,-1.00,-1.68,0.90,0.76,-1.12,-0.45,
1.517,-1.00,-1.68,0.90,0.77,-1.14,-0.45,
1.517,-1.00,-1.68,0.90,0.80,-1.18,-0.45,
1.517,-1.00,-1.68,0.90,0.83,-1.21,-0.45,
1.527,-1.02,-1.41,0.65,0.83,-1.21,-0.45,
1.528,-1.02,-1.41,0.65,0.86,-1.23,-0.44,
1.528,-1.02,-1.41,0.65,0.91,-1.25,-0.44,
1.528,-1.02,-1.41,0.65,0.92,-1.26,-0.43,
1.548,-1.02,-1.41,0.65,0.95,-1.27,-0.43,
1.548,-1.02,-1.41,0.65,0.99,-1.29,-0.42,
1.549,-0.82,-1.08,0.58,0.99,-1.29,-0.42,
1.549,-0.82,-1.08,0.58,1.02,-1.31,-0.40,
1.549,-0.82,-1.08,0.58,1.07,-1.35,-0.37,
1.549,-0.82,-1.08,0.58,1.09,-1.37,-0.36,
1.55,-0.82,-1.08,0.58,1.13,-1.41,-0.34,
1.55,-0.82,-1.08,0.58,1.17,-1.45,-0.31,
1.55,-0.89,-0.70,0.46,1.17,-1.45,-0.31,
1.55,-0.89,-0.70,0.46,1.21,-1.51,-0.28,
1.551,-0.89,-0.70,0.46,1.28,-1.58,-0.24,
1.551,-0.89,-0.70,0.46,1.31,-1.61,-0.23,
1.551,-0.89,-0.70,0.46,1.37,-1.66,-0.20,
1.552,-0.89,-0.70,0.46,1.43,-1.71,-0.19,
1.552,-0.80,-0.47,0.74,1.43,-1.71,-0.19,
1.552,-0.80,-0.47,0.74,1.50,-1.77,-0.18,
1.556,-0.80,-0.47,0.74,1.63,-1.86,-0.17,
1.556,-0.80,-0.47,0.74,1.72,-1.92,-0.18,
1.556,-0.80,-0.47,0.74,1.77,-1.94,-0.18,
1.558,-0.80,-0.47,0.74,1.87,-1.99,-0.20,
1.559,-0.36,-0.50,1.81,1.87,-1.99,-0.20,
1.56,-0.36,-0.50,1.81,1.98,-2.04,-0.22,
1.564,-0.36,-0.50,1.81,2.14,-2.12,-0.27,
1.566,-0.36,-0.50,1.81,2.20,-2.14,-0.28,
1.567,-0.36,-0.50,1.81,2.31,-2.18,-0.33,
1.567,-0.36,-0.50,1.81,2.42,-2.20,-0.37,
1.572,0.55,-0.74,2.93,2.42,-2.20,-0.37,
1.573,0.55,-0.74,2.93,2.53,-2.23,-0.42,
1.573,0.55,-0.74,2.93,2.70,-2.24,-0.49,
1.573,0.55,-0.74,2.93,2.75,-2.25,-0.51,
1.576,0.55,-0.74,2.93,2.85,-2.25,-0.55,
1.577,0.55,-0.74,2.93,2.94,-2.26,-0.59,
1.579,0.91,-1.00,3.56,2.94,-2.26,-0.59,
1.579,0.91,-1.00,3.56,3.03,-2.28,-0.63,
1.582,0.91,-1.00,3.56,3.16,-2.34,-0.68,
1.583,0.91,-1.00,3.56,3.21,-2.38,-0.70,
1.585,0.91,-1.00,3.56,3.30,-2.45,-0.73,
1.587,0.91,-1.00,3.56,3.39,-2.53,-0.76,
1.59,0.35,-1.17,3.27,3.39,-2.53,-0.76,
1.59,0.35,-1.17,3.27,3.48,-2.58,-0.80,
1.592,0.35,-1.17,3.27,3.58,-2.56,-0.85,
1.593,0.35,-1.17,3.27,3.59,-2.43,-0.89,
1.595,0.35,-1.17,3.27,3.58,-2.33,-0.91,
1.597,0.35,-1.17,3.27,3.51,-2.03,-0.92,
1.599,-0.32,-1.51,2.14,3.51,-2.03,-0.92,
1.599,-0.32,-1.51,2.14,3.39,-1.63,-0.91,
1.603,-0.32,-1.51,2.14,3.13,-0.99,-0.83,
1.603,-0.32,-1.51,2.14,2.94,-0.66,-0.76,
1.606,-0.32,-1.51,2.14,2.84,-0.55,-0.72,
1.607,-0.32,-1.51,2.14,2.66,-0.41,-0.64,
1.61,-0.77,-0.76,0.48,2.66,-0.41,-0.64,
1.61,-0.77,-0.76,0.48,2.50,-0.35,-0.57,
1.617,-0.77,-0.76,0.48,2.26,-0.37,-0.47,
1.617,-0.77,-0.76,0.48,2.18,-0.39,-0.43,
1.617,-0.77,-0.76,0.48,2.01,-0.45,-0.37,
1.617,-0.77,-0.76,0.48,1.85,-0.53,-0.30,
1.62,0.69,0.45,-0.55,1.85,-0.53,-0.30,
1.621,0.69,0.45,-0.55,1.68,-0.61,-0.23,
1.625,0.69,0.45,-0.55,1.45,-0.74,-0.14,
1.625,0.69,0.45,-0.55,1.37,-0.78,-0.11,
1.625,0.69,0.45,-0.55,1.23,-0.87,-0.05,
1.627,0.69,0.45,-0.55,1.10,-0.96,-0.00,
1.629,1.50,0.41,-1.13,1.10,-0.96,-0.00,
1.629,1.50,0.41,-1.13,0.97,-1.05,0.05,
1.632,1.50,0.41,-1.13,0.79,-1.18,0.11,
1.633,1.50,0.41,-1.13,0.73,-1.22,0.13,
1.635,1.50,0.41,-1.13,0.62,-1.30,0.17,
1.638,1.50,0.41,-1.13,0.52,-1.37,0.21,
1.64,1.11,-0.22,-1.85,0.52,-1.37,0.21,
1.64,1.11,-0.22,-1.85,0.43,-1.45,0.25,
1.642,1.11,-0.22,-1.85,0.30,-1.54,0.29,
1.643,1.11,-0.22,-1.85,0.24,-1.60,0.31,
1.646,1.11,-0.22,-1.85,0.20,-1.63,0.32,
1.647,1.11,-0.22,-1.85,0.15,-1.69,0.34,
1.65,0.76,-0.92,-2.07,0.15,-1.69,0.34,
1.65,0.76,-0.92,-2.07,0.10,-1.75,0.35,
1.655,0.76,-0.92,-2.07,0.04,-1.81,0.36,
1.656,0.76,-0.92,-2.07,0.01,-1.84,0.36,
1.656,0.76,-0.92,-2.07,-0.00,-1.84,0.36,
1.657,0.76,-0.92,-2.07,-0.01,-1.85,0.36,
1.659,0.48,-1.19,-1.90,-0.01,-1.85,0.36,
1.659,0.48,-1.19,-1.90,-0.02,-1.84,0.36,
1.661,0.48,-1.19,-1.90,-0.01,-1.81,0.34,
1.663,0.48,-1.19,-1.90,-0.01,-1.79,0.34,
1.664,0.48,-1.19,-1.90,0.00,-1.75,0.32,
1.667,0.48,-1.19,-1.90,0.02,-1.70,0.31,
1.669,0.09,-0.85,-1.39,0.02,-1.70,0.31,
1.669,0.09,-0.85,-1.39,0.04,-1.64,0.30,
1.672,0.09,-0.85,-1.39,0.08,-1.55,0.27,
1.674,0.09,-0.85,-1.39,0.10,-1.51,0.26,
1.675,0.09,-0.85,-1.39,0.12,-1.43,0.25,
1.677,0.09,-0.85,-1.39,0.15,-1.35,0.23,
1.679,-0.52,-0.35,-1.14,0.15,-1.35,0.23,
1.679,-0.52,-0.35,-1.14,0.18,-1.27,0.21,
1.682,-0.52,-0.35,-1.14,0.21,-1.16,0.18,
1.683,-0.52,-0.35,-1.14,0.23,-1.12,0.16,
1.685,-0.52,-0.35,-1.14,0.25,-1.04,0.14,
1.687,-0.52,-0.35,-1.14,0.27,-0.96,0.12,
1.689,-0.90,-0.19,-1.28,0.27,-0.96,0.12,
1.689,-0.90,-0.19,-1.28,0.29,-0.88,0.10,
1.705,-0.90,-0.19,-1.28,0.32,-0.74,0.08,
1.706,-0.90,-0.19,-1.28,0.33,-0.68,0.07,
1.706,-0.90,-0.19,-1.28,0.37,-0.51,0.06,
1.706,-0.90,-0.19,-1.28,0.38,-0.44,0.05,
1.706,-1.31,-0.19,-1.50,0.38,-0.44,0.05,
1.706,-1.31,-0.19,-1.50,0.42,-0.29,0.04,
1.707,-1.31,-0.19,-1.50,0.48,-0.05,0.02,
1.707,-1.31,-0.19,-1.50,0.50,0.03,0.02,
1.707,-1.31,-0.19,-1.50,0.55,0.20,0.01,
1.707,-1.31,-0.19,-1.50,0.60,0.35,0.01,
1.71,-1.75,0.04,-1.61,0.60,0.35,0.01,
1.71,-1.75,0.04,-1.61,0.65,0.49,0.02,
1.712,-1.75,0.04,-1.61,0.71,0.63,0.04,
1.713,-1.75,0.04,-1.61,0.72,0.67,0.05,
1.715,-1.75,0.04,-1.61,0.74,0.72,0.07,
1.717,-1.75,0.04,-1.61,0.75,0.73,0.10,
1.719,-1.48,0.21,-1.46,0.75,0.73,0.10,
1.719,-1.48,0.21,-1.46,0.74,0.74,0.12,
1.722,-1.48,0.21,-1.46,0.71,0.71,0.17,
1.723,-1.48,0.21,-1.46,0.70,0.70,0.18,
1.729,-1.48,0.21,-1.46,0.67,0.66,0.21,
1.729,-1.48,0.21,-1.46,0.63,0.61,0.24,
1.73,-0.39,-0.31,-1.36,0.63,0.61,0.24,
1.73,-0.39,-0.31,-1.36,0.58,0.56,0.26,
1.732,-0.39,-0.31,-1.36,0.51,0.46,0.30,
1.733,-0.39,-0.31,-1.36,0.48,0.43,0.31,
1.735,-0.39,-0.31,-1.36,0.43,0.36,0.33,
1.737,-0.39,-0.31,-1.36,0.39,0.29,0.34,
1.739,0.10,-1.02,-1.58,0.39,0.29,0.34,
1.739,0.10,-1.02,-1.58,0.35,0.21,0.36,
1.742,0.10,-1.02,-1.58,0.28,0.09,0.38,
1.743,0.10,-1.02,-1.58,0.26,0.05,0.39,
1.745,0.10,-1.02,-1.58,0.23,-0.03,0.40,
1.747,0.10,-1.02,-1.58,0.19,-0.12,0.42,
1.749,-0.04,-1.42,-2.08,0.19,-0.12,0.42,
1.749,-0.04,-1.42,-2.08,0.15,-0.20,0.44,
1.752,-0.04,-1.42,-2.08,0.09,-0.33,0.47,
1.753,-0.04,-1.42,-2.08,0.06,-0.42,0.50,
1.755,-0.04,-1.42,-2.08,0.05,-0.46,0.51,
1.757,-0.04,-1.42,-2.08,0.01,-0.53,0.54,
1.76,-0.50,-1.28,-2.47,0.01,-0.53,0.54,
1.76,-0.50,-1.28,-2.47,-0.02,-0.59,0.58,
1.762,-0.50,-1.28,-2.47,-0.07,-0.68,0.63,
1.763,-0.50,-1.28,-2.47,-0.11,-0.74,0.67,
1.765,-0.50,-1.28,-2.47,-0.13,-0.77,0.69,
1.767,-0.50,-1.28,-2.47,-0.16,-0.83,0.73,
1.777,-1.01,-1.36,-2.65,-0.16,-0.83,0.73,
1.778,-1.01,-1.36,-2.65,-0.20,-0.89,0.77,
1.778,-1.01,-1.36,-2.65,-0.26,-0.96,0.83,
1.778,-1.01,-1.36,-2.65,-0.28,-0.99,0.85,
1.778,-1.01,-1.36,-2.65,-0.32,-1.03,0.88,
1.778,-1.01,-1.36,-2.65,-0.36,-1.08,0.91,
1.783,-1.20,-1.49,-2.57,-0.36,-1.08,0.91,
1.784,-1.20,-1.49,-2.57,-0.39,-1.12,0.94,
1.784,-1.20,-1.49,-2.57,-0.45,-1.17,0.98,
1.784,-1.20,-1.49,-2.57,-0.48,-1.20,1.01,
1.812,-1.20,-1.49,-2.57,-0.50,-1.22,1.03,
1.813,-1.20,-1.49,-2.57,-0.53,-1.24,1.07,
1.813,-1.84,-2.18,-2.39,-0.53,-1.24,1.07,
1.813,-1.84,-2.18,-2.39,-0.56,-1.25,1.12,
1.813,-1.84,-2.18,-2.39,-0.59,-1.24,1.19,
1.813,-1.84,-2.18,-2.39,-0.61,-1.24,1.22,
1.814,-1.84,-2.18,-2.39,-0.61,-1.23,1.24,
1.814,-1.84,-2.18,-2.39,-0.62,-1.22,1.26,
1.814,-2.07,-2.85,-2.03,-0.62,-1.22,1.26,
1.814,-2.07,-2.85,-2.03,-0.61,-1.19,1.26,
1.814,-2.07,-2.85,-2.03,-0.60,-1.12,1.26,
1.815,-2.07,-2.85,-2.03,-0.59,-1.08,1.26,
1.815,-2.07,-2.85,-2.03,-0.59,-1.05,1.25,
1.815,-2.07,-2.85,-2.03,-0.58,-1.02,1.24,
1.815,-1.22,-3.24,-1.70,-0.58,-1.02,1.24,
1.815,-1.22,-3.24,-1.70,-0.57,-0.98,1.22,
1.816,-1.22,-3.24,-1.70,-0.56,-0.94,1.18,
1.816,-1.22,-3.24,-1.70,-0.54,-0.90,1.15,
1.816,-1.22,-3.24,-1.70,-0.54,-0.89,1.13,
1.848,-1.22,-3.24,-1.70,-0.52,-0.86,1.09,
1.848,-0.44,-3.15,-1.87,-0.52,-0.86,1.09,
1.848,-0.44,-3.15,-1.87,-0.51,-0.82,1.06,
1.849,-0.44,-3.15,-1.87,-0.49,-0.77,1.01,
1.849,-0.44,-3.15,-1.87,-0.47,-0.73,0.98,
1.849,-0.44,-3.15,-1.87,-0.46,-0.70,0.96,
1.849,-0.44,-3.15,-1.87,-0.44,-0.65,0.94,
1.849,-0.59,-2.92,-1.91,-0.44,-0.65,0.94,
1.85,-0.59,-2.92,-1.91,-0.42,-0.60,0.93,
1.85,-0.59,-2.92,-1.91,-0.39,-0.52,0.91,
1.85,-0.59,-2.92,-1.91,-0.38,-0.46,0.90,
1.85,-0.59,-2.92,-1.91,-0.37,-0.43,0.89,
1.85,-0.59,-2.92,-1.91,-0.36,-0.37,0.89,
1.851,-1.01,-2.56,-2.14,-0.36,-0.37,0.89,
1.851,-1.01,-2.56,-2.14,-0.34,-0.32,0.89,
1.851,-1.01,-2.56,-2.14,-0.33,-0.24,0.89,
1.851,-1.01,-2.56,-2.14,-0.33,-0.20,0.90,
1.851,-1.01,-2.56,-2.14,-0.32,-0.18,0.90,
1.852,-1.01,-2.56,-2.14,-0.32,-0.13,0.91,
1.852,-1.28,-2.44,-2.48,-0.32,-0.13,0.91,
1.852,-1.28,-2.44,-2.48,-0.32,-0.09,0.92,
1.852,-1.28,-2.44,-2.48,-0.33,-0.04,0.94,
1.854,-1.28,-2.44,-2.48,-0.34,-0.00,0.96,
1.855,-1.28,-2.44,-2.48,-0.34,0.01,0.97,
1.861,-1.28,-2.44,-2.48,-0.36,0.04,0.98,
1.882,-1.27,-1.99,-2.79,-0.36,0.04,0.98,
1.882,-1.27,-1.99,-2.79,-0.37,0.07,1.00,
1.883,-1.27,-1.99,-2.79,-0.40,0.10,1.02,
1.883,-1.27,-1.99,-2.79,-0.42,0.11,1.03,
1.883,-1.27,-1.99,-2.79,-0.43,0.12,1.04,
1.884,-1.27,-1.99,-2.79,-0.46,0.14,1.04,
1.884,-0.67,-1.56,-3.11,-0.46,0.14,1.04,
1.884,-0.67,-1.56,-3.11,-0.48,0.15,1.05,
1.884,-0.67,-1.56,-3.11,-0.52,0.17,1.05,
1.885,-0.67,-1.56,-3.11,-0.54,0.17,1.04,
1.885,-0.67,-1.56,-3.11,-0.55,0.18,1.04,
1.885,-0.67,-1.56,-3.11,-0.58,0.18,1.04,
1.885,0.00,-1.04,-2.94,-0.58,0.18,1.04,
1.886,0.00,-1.04,-2.94,-0.60,0.18,1.03,
1.886,0.00,-1.04,-2.94,-0.63,0.18,1.02,
1.886,0.00,-1.04,-2.94,-0.65,0.17,1.02,
1.886,0.00,-1.04,-2.94,-0.66,0.17,1.02,
1.895,0.00,-1.04,-2.94,-0.68,0.15,1.01,
1.896,0.46,-0.77,-2.63,-0.68,0.15,1.01,
1.896,0.46,-0.77,-2.63,-0.70,0.14,1.01,
1.897,0.46,-0.77,-2.63,-0.73,0.11,1.00,
1.897,0.46,-0.77,-2.63,-0.74,0.09,1.00,
1.898,0.46,-0.77,-2.63,-0.75,0.08,1.00,
1.898,0.46,-0.77,-2.63,-0.77,0.06,0.99,
1.9,0.67,-0.46,-2.30,-0.77,0.06,0.99,
1.9,0.67,-0.46,-2.30,-0.78,0.04,0.99,
1.918,0.67,-0.46,-2.30,-0.79,-0.00,0.99,
1.918,0.67,-0.46,-2.30,-0.80,-0.04,0.99,
1.918,0.67,-0.46,-2.30,-0.81,-0.06,0.99,
1.919,0.67,-0.46,-2.30,-0.82,-0.10,0.99,
1.919,0.90,-0.20,-2.12,-0.82,-0.10,0.99,
1.919,0.90,-0.20,-2.12,-0.83,-0.15,0.99,
1.919,0.90,-0.20,-2.12,-0.84,-0.22,0.98,
1.92,0.90,-0.20,-2.12,-0.86,-0.27,0.98,
1.92,0.90,-0.20,-2.12,-0.86,-0.29,0.98,
1.922,0.90,-0.20,-2.12,-0.87,-0.33,0.99,
1.922,1.05,0.06,-2.00,-0.87,-0.33,0.99,
1.922,1.05,0.06,-2.00,-0.88,-0.38,0.99,
1.923,1.05,0.06,-2.00,-0.89,-0.44,0.99,
1.926,1.05,0.06,-2.00,-0.90,-0.49,1.00,
1.927,1.05,0.06,-2.00,-0.91,-0.51,1.00,
1.936,1.05,0.06,-2.00,-0.91,-0.56,1.01,
1.936,1.26,0.03,-1.87,-0.91,-0.56,1.01,
1.936,1.26,0.03,-1.87,-0.92,-0.61,1.01,
1.937,1.26,0.03,-1.87,-0.92,-0.68,1.01,
1.937,1.26,0.03,-1.87,-0.93,-0.73,1.01,
1.937,1.26,0.03,-1.87,-0.93,-0.75,1.01,
1.961,1.26,0.03,-1.87,-0.93,-0.80,1.02,
1.962,1.50,0.08,-1.65,-0.93,-0.80,1.02,
1.962,1.50,0.08,-1.65,-0.94,-0.85,1.02,
1.962,1.50,0.08,-1.65,-0.94,-0.92,1.02,
1.962,1.50,0.08,-1.65,-0.94,-0.96,1.02,
1.962,1.50,0.08,-1.65,-0.94,-0.98,1.02,
1.963,1.50,0.08,-1.65,-0.94,-1.03,1.03,
1.963,1.71,0.19,-1.44,-0.94,-1.03,1.03,
1.963,1.71,0.19,-1.44,-0.94,-1.07,1.03,
1.963,1.71,0.19,-1.44,-0.94,-1.12,1.05,
1.963,1.71,0.19,-1.44,-0.94,-1.15,1.06,
1.964,1.71,0.19,-1.44,-0.94,-1.17,1.06,
1.964,1.71,0.19,-1.44,-0.94,-1.20,1.08,
1.964,1.61,0.49,-1.12,-0.94,-1.20,1.08,
1.964,1.61,0.49,-1.12,-0.94,-1.22,1.10,
1.964,1.61,0.49,-1.12,-0.93,-1.26,1.12,
1.964,1.61,0.49,-1.12,-0.92,-1.28,1.14,
1.979,1.61,0.49,-1.12,-0.92,-1.29,1.14,
1.979,1.61,0.49,-1.12,-0.92,-1.31,1.16,
1.979,1.61,0.75,-0.89,-0.92,-1.31,1.16,
1.979,1.61,0.75,-0.89,-0.91,-1.32,1.18,
1.98,1.61,0.75,-0.89,-0.91,-1.35,1.20,
1.98,1.61,0.75,-0.89,-0.91,-1.36,1.22,
1.98,1.61,0.75,-0.89,-0.91,-1.37,1.23,
1.98,1.61,0.75,-0.89,-0.91,-1.39,1.24,
1.98,1.64,0.86,-0.84,-0.91,-1.39,1.24,
1.98,1.64,0.86,-0.84,-0.91,-1.41,1.26,
1.982,1.64,0.86,-0.84,-0.92,-1.45,1.28,
1.983,1.64,0.86,-0.84,-0.92,-1.47,1.29,
1.985,1.64,0.86,-0.84,-0.92,-1.48,1.30,
1.987,1.64,0.86,-0.84,-0.93,-1.50,1.31,
1.989,1.97,0.85,-0.82,-0.93,-1.50,1.31,
1.989,1.97,0.85,-0.82,-0.94,-1.51,1.31,
1.992,1.97,0.85,-0.82,-0.96,-1.54,1.32,
1.993,1.97,0.85,-0.82,-0.97,-1.55,1.32,
1.995,1.97,0.85,-0.82,-0.98,-1.57,1.32,
1.997,1.97,0.85,-0.82,-0.99,-1.57,1.32,
1.999,2.52,0.65,-0.88,-0.99,-1.57,1.32,
1.999,2.52,0.65,-0.88,-1.01,-1.57,1.31,
2.004,2.52,0.65,-0.88,-1.02,-1.57,1.30,
2.005,2.52,0.65,-0.88,-1.03,-1.56,1.29,
2.006,2.52,0.65,-0.88,-1.04,-1.56,1.28,
2.008,2.52,0.65,-0.88,-1.05,-1.55,1.27,
2.009,3.15,0.68,-0.81,-1.05,-1.55,1.27,
2.01,3.15,0.68,-0.81,-1.05,-1.53,1.25,
2.012,3.15,0.68,-0.81,-1.06,-1.51,1.22,
2.013,3.15,0.68,-0.81,-1.07,-1.49,1.20,
2.015,3.15,0.68,-0.81,-1.08,-1.46,1.18,
2.027,3.15,0.68,-0.81,-1.09,-1.42,1.15,
2.027,3.52,0.73,-0.58,-1.09,-1.42,1.15,
2.027,3.52,0.73,-0.58,-1.10,-1.38,1.13,
2.027,3.52,0.73,-0.58,-1.11,-1.33,1.10,
2.027,3.52,0.73,-0.58,-1.12,-1.28,1.07,
2.04,3.52,0.73,-0.58,-1.13,-1.23,1.03,
2.04,3.52,0.73,-0.58,-1.15,-1.18,1.00,
2.04,4.19,0.79,-0.30,-1.15,-1.18,1.00,
2.04,4.19,0.79,-0.30,-1.17,-1.13,0.95,
2.041,4.19,0.79,-0.30,-1.18,-1.08,0.91,
2.041,4.19,0.79,-0.30,-1.20,-1.03,0.87,
2.041,4.19,0.79,-0.30,-1.22,-0.98,0.83,
2.041,4.19,0.79,-0.30,-1.24,-0.93,0.78,
2.041,4.82,0.80,0.24,-1.24,-0.93,0.78,
2.042,4.82,0.80,0.24,-1.26,-0.88,0.73,
2.042,4.82,0.80,0.24,-1.28,-0.83,0.66,
2.043,4.82,0.80,0.24,-1.29,-0.81,0.63,
2.047,4.82,0.80,0.24,-1.31,-0.78,0.58,
2.048,4.82,0.80,0.24,-1.32,-0.75,0.53,
2.049,5.40,0.96,0.83,-1.32,-0.75,0.53,
2.05,5.40,0.96,0.83,-1.33,-0.73,0.48,
2.057,5.40,0.96,0.83,-1.34,-0.72,0.43,
2.058,5.40,0.96,0.83,-1.35,-0.71,0.37,
2.058,5.40,0.96,0.83,-1.36,-0.70,0.33,
2.058,5.40,0.96,0.83,-1.37,-0.70,0.28,
2.06,5.35,0.98,1.47,-1.37,-0.70,0.28,
2.06,5.35,0.98,1.47,-1.38,-0.71,0.24,
2.062,5.35,0.98,1.47,-1.38,-0.71,0.20,
2.063,5.35,0.98,1.47,-1.38,-0.73,0.16,
2.065,5.35,0.98,1.47,-1.38,-0.74,0.13,
2.075,5.35,0.98,1.47,-1.38,-0.76,0.10,
2.075,4.99,0.91,2.13,-1.38,-0.76,0.10,
2.076,4.99,0.91,2.13,-1.38,-0.78,0.07,
2.076,4.99,0.91,2.13,-1.37,-0.80,0.05,
2.076,4.99,0.91,2.13,-1.36,-0.82,0.02,
2.076,4.99,0.91,2.13,-1.36,-0.85,-0.01,
2.077,4.99,0.91,2.13,-1.35,-0.87,-0.03,
2.079,4.62,0.83,2.61,-1.35,-0.87,-0.03,
2.079,4.62,0.83,2.61,-1.34,-0.89,-0.05,
2.082,4.62,0.83,2.61,-1.33,-0.93,-0.08,
2.086,4.62,0.83,2.61,-1.30,-0.98,-0.10,
2.086,4.62,0.83,2.61,-1.28,-1.02,-0.12,
2.087,4.62,0.83,2.61,-1.26,-1.06,-0.14,
2.089,4.57,1.04,3.59,-1.26,-1.06,-0.14,
2.089,4.57,1.04,3.59,-1.24,-1.11,-0.16,
2.092,4.57,1.04,3.59,-1.22,-1.16,-0.18,
2.093,4.57,1.04,3.59,-1.20,-1.21,-0.20,
2.095,4.57,1.04,3.59,-1.18,-1.27,-0.21,
2.097,4.57,1.04,3.59,-1.16,-1.35,-0.23,
2.102,4.62,1.31,4.12,-1.16,-1.35,-0.23,
2.103,4.62,1.31,4.12,-1.15,-1.44,-0.25,
2.103,4.62,1.31,4.12,-1.13,-1.52,-0.27,
2.103,4.62,1.31,4.12,-1.12,-1.61,-0.28,
2.105,4.62,1.31,4.12,-1.11,-1.69,-0.30,
2.107,4.62,1.31,4.12,-1.09,-1.77,-0.32,
2.109,4.46,1.52,4.69,-1.09,-1.77,-0.32,
2.109,4.46,1.52,4.69,-1.07,-1.84,-0.33,
2.112,4.46,1.52,4.69,-1.04,-1.94,-0.35,
2.113,4.46,1.52,4.69,-1.03,-1.97,-0.35,
2.115,4.46,1.52,4.69,-1.01,-2.03,-0.36,
2.119,4.46,1.52,4.69,-0.98,-2.08,-0.36,
2.119,3.89,1.50,5.16,-0.98,-2.08,-0.36,
2.12,3.89,1.50,5.16,-0.94,-2.13,-0.37,
2.122,3.89,1.50,5.16,-0.91,-2.17,-0.37,
2.123,3.89,1.50,5.16,-0.88,-2.20,-0.37,
2.125,3.89,1.50,5.16,-0.84,-2.22,-0.37,
2.127,3.89,1.50,5.16,-0.81,-2.25,-0.37,
2.129,3.09,1.71,5.37,-0.81,-2.25,-0.37,
2.13,3.09,1.71,5.37,-0.77,-2.27,-0.36,
2.132,3.09,1.71,5.37,-0.73,-2.29,-0.35,
2.135,3.09,1.71,5.37,-0.69,-2.30,-0.35,
2.135,3.09,1.71,5.37,-0.64,-2.32,-0.34,
2.137,3.09,1.71,5.37,-0.60,-2.33,-0.33,
2.139,2.29,1.64,5.45,-0.60,-2.33,-0.33,
2.139,2.29,1.64,5.45,-0.56,-2.34,-0.32,
2.142,2.29,1.64,5.45,-0.51,-2.35,-0.30,
2.143,2.29,1.64,5.45,-0.47,-2.36,-0.29,
2.145,2.29,1.64,5.45,-0.42,-2.38,-0.28,
2.147,2.29,1.64,5.45,-0.38,-2.39,-0.26,
2.152,1.76,1.40,5.50,-0.38,-2.39,-0.26,
2.152,1.76,1.40,5.50,-0.33,-2.41,-0.25,
2.152,1.76,1.40,5.50,-0.25,-2.46,-0.23,
2.153,1.76,1.40,5.50,-0.23,-2.48,-0.22,
2.155,1.76,1.40,5.50,-0.18,-2.52,-0.21,
2.157,1.76,1.40,5.50,-0.13,-2.56,-0.20,
2.159,1.46,1.09,5.60,-0.13,-2.56,-0.20,
2.159,1.46,1.09,5.60,-0.08,-2.60,-0.18,
2.163,1.46,1.09,5.60,-0.02,-2.65,-0.17,
2.163,1.46,1.09,5.60,0.03,-2.70,-0.15,
2.165,1.46,1.09,5.60,0.08,-2.74,-0.14,
2.168,1.46,1.09,5.60,0.12,-2.77,-0.14,
2.169,1.34,0.77,5.70,0.12,-2.77,-0.14,
2.169,1.34,0.77,5.70,0.16,-2.81,-0.13,
2.172,1.34,0.77,5.70,0.20,-2.85,-0.13,
2.173,1.34,0.77,5.70,0.24,-2.88,-0.13,
2.175,1.34,0.77,5.70,0.27,-2.91,-0.13,
2.177,1.34,0.77,5.70,0.31,-2.94,-0.14,
2.179,1.49,0.36,5.23,0.31,-2.94,-0.14,
2.18,1.49,0.36,5.23,0.34,-2.95,-0.15,
2.182,1.49,0.36,5.23,0.36,-2.96,-0.16,
2.186,1.49,0.36,5.23,0.39,-2.97,-0.18,
2.186,1.49,0.36,5.23,0.41,-2.98,-0.20,
2.19,1.49,0.36,5.23,0.43,-2.98,-0.22,
2.19,1.70,0.26,4.79,0.43,-2.98,-0.22,
2.191,1.70,0.26,4.79,0.45,-2.98,-0.25,
2.205,1.70,0.26,4.79,0.47,-2.99,-0.30,
2.207,1.70,0.26,4.79,0.48,-2.99,-0.31,
2.207,1.70,0.26,4.79,0.49,-3.00,-0.34,
2.207,1.70,0.26,4.79,0.50,-3.01,-0.38,
2.207,1.99,0.22,4.48,0.50,-3.01,-0.38,
2.207,1.99,0.22,4.48,0.51,-3.02,-0.41,
2.208,1.99,0.22,4.48,0.52,-3.03,-0.44,
2.208,1.99,0.22,4.48,0.53,-3.04,-0.48,
2.208,1.99,0.22,4.48,0.55,-3.05,-0.51,
2.208,1.99,0.22,4.48,0.56,-3.06,-0.54,
2.215,1.82,0.44,4.33,0.56,-3.06,-0.54,
2.215,1.82,0.44,4.33,0.57,-3.07,-0.57,
2.215,1.82,0.44,4.33,0.59,-3.09,-0.60,
2.216,1.82,0.44,4.33,0.61,-3.09,-0.62,
2.216,1.82,0.44,4.33,0.63,-3.10,-0.66,
2.229,1.82,0.44,4.33,0.65,-3.11,-0.69,
2.23,1.48,0.67,4.11,0.65,-3.11,-0.69,
2.23,1.48,0.67,4.11,0.67,-3.11,-0.72,
2.23,1.48,0.67,4.11,0.71,-3.11,-0.75,
2.23,1.48,0.67,4.11,0.72,-3.11,-0.77,
2.23,1.03,0.90,3.53,0.72,-3.11,-0.77,
2.231,1.03,0.90,3.53,0.76,-3.02,-0.84,
2.231,1.03,0.90,3.53,0.76,-3.02,-0.84,
2.231,1.03,0.90,3.53,0.76,-3.02,-0.84,
2.241,1.03,0.90,3.53,0.76,-2.95,-0.87,
2.241,1.03,0.90,3.53,0.76,-2.93,-0.88,
2.242,1.03,0.90,3.53,0.76,-2.88,-0.90,
2.242,1.03,0.90,3.53,0.75,-2.84,-0.91,
2.242,0.34,0.97,2.19,0.75,-2.84,-0.91,
2.242,0.34,0.97,2.19,0.74,-2.81,-0.92,
2.242,0.34,0.97,2.19,0.73,-2.76,-0.92,
2.244,0.34,0.97,2.19,0.73,-2.75,-0.92,
2.245,0.34,0.97,2.19,0.72,-2.74,-0.92,
2.247,0.34,0.97,2.19,0.70,-2.73,-0.91,
2.261,-0.36,1.04,1.58,0.70,-2.73,-0.91,
2.262,-0.36,1.04,1.58,0.69,-2.72,-0.90,
2.263,-0.36,1.04,1.58,0.66,-2.72,-0.88,
2.263,-0.36,1.04,1.58,0.66,-2.73,-0.88,
2.263,-0.36,1.04,1.58,0.64,-2.73,-0.86,
2.263,-0.36,1.04,1.58,0.62,-2.74,-0.85,
2.263,-0.76,1.32,1.19,0.62,-2.74,-0.85,
2.263,-0.76,1.32,1.19,0.61,-2.75,-0.84,
2.264,-0.76,1.32,1.19,0.58,-2.76,-0.82,
2.264,-0.76,1.32,1.19,0.58,-2.76,-0.81,
2.265,-0.76,1.32,1.19,0.56,-2.76,-0.80,
2.274,-0.76,1.32,1.19,0.55,-2.76,-0.79,
2.275,-0.98,1.62,0.79,0.55,-2.76,-0.79,
2.275,-0.98,1.62,0.79,0.54,-2.74,-0.78,
2.275,-0.98,1.62,0.79,0.52,-2.72,-0.76,
2.275,-0.98,1.62,0.79,0.52,-2.70,-0.75,
2.275,-0.98,1.62,0.79,0.50,-2.68,-0.74,
2.277,-0.98,1.62,0.79,0.49,-2.64,-0.73,
2.279,-1.10,1.58,0.24,0.49,-2.64,-0.73,
2.279,-1.10,1.58,0.24,0.47,-2.60,-0.72,
2.284,-1.10,1.58,0.24,0.45,-2.54,-0.70,
2.284,-1.10,1.58,0.24,0.44,-2.52,-0.69,
2.285,-1.10,1.58,0.24,0.42,-2.48,-0.68,
2.287,-1.10,1.58,0.24,0.39,-2.43,-0.68,
2.289,-0.90,1.52,-0.37,0.39,-2.43,-0.68,
2.289,-0.90,1.52,-0.37,0.37,-2.39,-0.68,
2.292,-0.90,1.52,-0.37,0.32,-2.32,-0.70,
2.293,-0.90,1.52,-0.37,0.31,-2.30,-0.71,
2.295,-0.90,1.52,-0.37,0.28,-2.25,-0.73,
2.297,-0.90,1.52,-0.37,0.24,-2.21,-0.76,
2.301,0.31,1.31,-0.87,0.24,-2.21,-0.76,
2.301,0.31,1.31,-0.87,0.20,-2.17,-0.79,
2.302,0.31,1.31,-0.87,0.14,-2.13,-0.84,
2.303,0.31,1.31,-0.87,0.12,-2.11,-0.85,
2.305,0.31,1.31,-0.87,0.08,-2.09,-0.89,
2.308,0.31,1.31,-0.87,0.05,-2.08,-0.92,
2.311,1.24,1.18,-0.69,0.05,-2.08,-0.92,
2.311,1.24,1.18,-0.69,0.02,-2.07,-0.94,
2.312,1.24,1.18,-0.69,-0.03,-2.05,-0.99,
2.314,1.24,1.18,-0.69,-0.04,-2.05,-1.00,
2.317,1.24,1.18,-0.69,-0.06,-2.04,-1.02,
2.317,1.24,1.18,-0.69,-0.08,-2.04,-1.04,
2.319,0.81,1.32,-0.10,-0.08,-2.04,-1.04,
2.319,0.81,1.32,-0.10,-0.10,-2.03,-1.05,
2.322,0.81,1.32,-0.10,-0.11,-2.02,-1.07,
2.323,0.81,1.32,-0.10,-0.11,-2.01,-1.07,
2.325,0.81,1.32,-0.10,-0.11,-2.00,-1.08,
2.327,0.81,1.32,-0.10,-0.11,-1.99,-1.08,
2.329,-0.26,1.70,0.86,-0.11,-1.99,-1.08,
2.329,-0.26,1.70,0.86,-0.10,-1.98,-1.07,
2.335,-0.26,1.70,0.86,-0.08,-1.97,-1.02,
2.335,-0.26,1.70,0.86,-0.07,-1.96,-0.99,
2.335,-0.26,1.70,0.86,-0.05,-1.94,-0.91,
2.337,-0.26,1.70,0.86,-0.04,-1.92,-0.80,
2.339,-4.53,2.36,1.32,-0.04,-1.92,-0.80,
2.34,-4.53,2.36,1.32,-0.03,-1.90,-0.68,
2.342,-4.53,2.36,1.32,-0.01,-1.88,-0.48,
2.344,-4.53,2.36,1.32,-0.00,-1.88,-0.40,
2.345,-4.53,2.36,1.32,0.01,-1.87,-0.26,
2.347,-4.53,2.36,1.32,0.03,-1.87,-0.13,
2.353,-8.22,2.71,1.62,0.03,-1.87,-0.13,
2.354,-8.22,2.71,1.62,0.05,-1.87,0.00,
2.354,-8.22,2.71,1.62,0.09,-1.88,0.18,
2.354,-8.22,2.71,1.62,0.11,-1.88,0.23,
2.355,-8.22,2.71,1.62,0.15,-1.89,0.32,
2.357,-8.22,2.71,1.62,0.20,-1.89,0.41,
2.373,-7.97,2.63,2.53,0.20,-1.89,0.41,
2.374,-7.97,2.63,2.53,0.26,-1.90,0.48,
2.374,-7.97,2.63,2.53,0.35,-1.88,0.56,
2.374,-7.97,2.63,2.53,0.39,-1.87,0.58,
2.374,-7.97,2.63,2.53,0.46,-1.84,0.60,
2.375,-7.97,2.63,2.53,0.54,-1.79,0.61,
2.375,-5.32,3.03,3.39,0.54,-1.79,0.61,
2.375,-5.32,3.03,3.39,0.61,-1.72,0.60,
2.376,-5.32,3.03,3.39,0.70,-1.59,0.56,
2.376,-5.32,3.03,3.39,0.73,-1.54,0.54,
2.376,-5.32,3.03,3.39,0.79,-1.43,0.49,
2.385,-5.32,3.03,3.39,0.84,-1.31,0.43,
2.385,-1.77,2.90,2.52,0.84,-1.31,0.43,
2.385,-1.77,2.90,2.52,0.88,-1.19,0.37,
2.385,-1.77,2.90,2.52,0.95,-1.01,0.26,
2.386,-1.77,2.90,2.52,0.97,-0.94,0.22,
2.386,-1.77,2.90,2.52,1.01,-0.82,0.14,
2.398,-1.77,2.90,2.52,1.04,-0.70,0.06,
2.399,0.38,2.08,1.49,1.04,-0.70,0.06,
2.399,0.38,2.08,1.49,1.08,-0.59,-0.01,
2.399,0.38,2.08,1.49,1.13,-0.46,-0.12,
2.4,0.38,2.08,1.49,1.15,-0.42,-0.16,
2.4,0.38,2.08,1.49,1.18,-0.35,-0.23,
2.4,0.38,2.08,1.49,1.21,-0.28,-0.29,
2.4,1.10,0.96,0.51,1.21,-0.28,-0.29,
2.4,1.10,0.96,0.51,1.23,-0.22,-0.35,
2.415,1.10,0.96,0.51,1.26,-0.15,-0.42,
2.416,1.10,0.96,0.51,1.27,-0.14,-0.44,
2.416,1.10,0.96,0.51,1.28,-0.11,-0.48,
2.416,1.10,0.96,0.51,1.29,-0.11,-0.51,
2.417,1.00,-0.11,-0.25,1.29,-0.11,-0.51,
2.417,1.00,-0.11,-0.25,1.30,-0.11,-0.53,
2.417,1.00,-0.11,-0.25,1.30,-0.13,-0.56,
2.417,1.00,-0.11,-0.25,1.30,-0.14,-0.57,
2.418,1.00,-0.11,-0.25,1.29,-0.17,-0.57,
2.418,1.00,-0.11,-0.25,1.27,-0.20,-0.57,
2.427,0.45,-0.53,-0.98,1.27,-0.20,-0.57,
2.428,0.45,-0.53,-0.98,1.25,-0.26,-0.57,
2.428,0.45,-0.53,-0.98,1.21,-0.35,-0.56,
2.428,0.45,-0.53,-0.98,1.19,-0.38,-0.56,
2.429,0.45,-0.53,-0.98,1.14,-0.43,-0.54,
2.429,0.45,-0.53,-0.98,1.09,-0.48,-0.52,
2.429,-0.02,-0.67,-2.27,1.09,-0.48,-0.52,
2.43,-0.02,-0.67,-2.27,1.03,-0.54,-0.50,
2.443,-0.02,-0.67,-2.27,0.92,-0.61,-0.46,
2.443,-0.02,-0.67,-2.27,0.89,-0.64,-0.44,
2.443,-0.02,-0.67,-2.27,0.81,-0.69,-0.42,
2.444,-0.02,-0.67,-2.27,0.73,-0.74,-0.39,
2.444,-0.41,-0.75,-3.17,0.73,-0.74,-0.39,
2.444,-0.41,-0.75,-3.17,0.66,-0.78,-0.38,
2.444,-0.41,-0.75,-3.17,0.54,-0.84,-0.34,
2.445,-0.41,-0.75,-3.17,0.50,-0.85,-0.33,
2.446,-0.41,-0.75,-3.17,0.42,-0.88,-0.30,
2.447,-0.41,-0.75,-3.17,0.34,-0.90,-0.28,
2.462,-0.67,-0.78,-3.54,0.34,-0.90,-0.28,
2.463,-0.67,-0.78,-3.54,0.27,-0.92,-0.26,
2.463,-0.67,-0.78,-3.54,0.17,-0.94,-0.23,
2.463,-0.67,-0.78,-3.54,0.13,-0.95,-0.22,
2.463,-0.67,-0.78,-3.54,0.07,-0.95,-0.20,
2.463,-0.67,-0.78,-3.54,0.01,-0.95,-0.19,
2.464,-0.98,-0.61,-3.08,0.01,-0.95,-0.19,
2.464,-0.98,-0.61,-3.08,-0.04,-0.96,-0.17,
2.464,-0.98,-0.61,-3.08,-0.12,-0.96,-0.16,
2.464,-0.98,-0.61,-3.08,-0.14,-0.95,-0.15,
2.481,-0.98,-0.61,-3.08,-0.18,-0.95,-0.14,
2.482,-0.98,-0.61,-3.08,-0.21,-0.95,-0.13,
2.482,-1.32,-0.38,-2.38,-0.21,-0.95,-0.13,
2.482,-1.32,-0.38,-2.38,-0.24,-0.95,-0.12,
2.482,-1.32,-0.38,-2.38,-0.26,-0.94,-0.11,
2.483,-1.32,-0.38,-2.38,-0.27,-0.94,-0.10,
2.483,-1.32,-0.38,-2.38,-0.27,-0.93,-0.08,
2.483,-1.32,-0.38,-2.38,-0.27,-0.93,-0.07,
2.483,-2.04,-0.14,-1.52,-0.27,-0.93,-0.07,
2.483,-2.04,-0.14,-1.52,-0.27,-0.93,-0.05,
2.484,-2.04,-0.14,-1.52,-0.25,-0.92,-0.01,
2.484,-2.04,-0.14,-1.52,-0.24,-0.92,0.01,
2.494,-2.04,-0.14,-1.52,-0.23,-0.91,0.04,
2.495,-2.04,-0.14,-1.52,-0.21,-0.90,0.08,
2.495,-3.13,-0.19,-0.97,-0.21,-0.90,0.08,
2.495,-3.13,-0.19,-0.97,-0.19,-0.88,0.11,
2.495,-3.13,-0.19,-0.97,-0.16,-0.86,0.17,
2.495,-3.13,-0.19,-0.97,-0.15,-0.85,0.20,
2.496,-3.13,-0.19,-0.97,-0.12,-0.83,0.24,
2.497,-3.13,-0.19,-0.97,-0.09,-0.82,0.28,
2.511,-3.93,-0.14,-0.62,-0.09,-0.82,0.28,
2.512,-3.93,-0.14,-0.62,-0.07,-0.81,0.33,
2.512,-3.93,-0.14,-0.62,-0.03,-0.80,0.40,
2.512,-3.93,-0.14,-0.62,-0.02,-0.80,0.42,
2.512,-3.93,-0.14,-0.62,0.01,-0.80,0.46,
2.513,-3.93,-0.14,-0.62,0.04,-0.80,0.51,
2.513,-4.37,0.02,-0.38,0.04,-0.80,0.51,
2.513,-4.37,0.02,-0.38,0.07,-0.81,0.55,
2.513,-4.37,0.02,-0.38,0.11,-0.82,0.62,
2.526,-4.37,0.02,-0.38,0.13,-0.83,0.64,
2.527,-4.37,0.02,-0.38,0.16,-0.84,0.69,
2.527,-4.37,0.02,-0.38,0.20,-0.85,0.73,
2.527,-4.54,0.10,-0.03,0.20,-0.85,0.73,
2.527,-4.54,0.10,-0.03,0.24,-0.86,0.78,
2.527,-4.54,0.10,-0.03,0.29,-0.88,0.85,
2.528,-4.54,0.10,-0.03,0.31,-0.89,0.87,
2.544,-4.54,0.10,-0.03,0.34,-0.90,0.91,
2.544,-4.54,0.10,-0.03,0.39,-0.91,0.96,
2.544,-4.42,-0.08,0.57,0.39,-0.91,0.96,
2.545,-4.42,-0.08,0.57,0.44,-0.92,1.00,
2.545,-4.42,-0.08,0.57,0.52,-0.93,1.07,
2.545,-4.42,-0.08,0.57,0.56,-0.92,1.09,
2.545,-4.42,-0.08,0.57,0.63,-0.92,1.13,
2.545,-4.42,-0.08,0.57,0.70,-0.91,1.17,
2.545,-4.01,-0.60,2.07,0.70,-0.91,1.17,
2.546,-4.01,-0.60,2.07,0.77,-0.89,1.20,
2.546,-4.01,-0.60,2.07,0.88,-0.83,1.23,
2.546,-4.01,-0.60,2.07,0.92,-0.81,1.24,
2.546,-4.01,-0.60,2.07,0.99,-0.76,1.24,
2.552,-4.01,-0.60,2.07,1.05,-0.72,1.25,
2.552,-3.07,-1.42,2.40,1.05,-0.72,1.25,
2.552,-3.07,-1.42,2.40,1.11,-0.67,1.25,
2.552,-3.07,-1.42,2.40,1.18,-0.56,1.25,
2.553,-3.07,-1.42,2.40,1.21,-0.52,1.25,
2.555,-3.07,-1.42,2.40,1.25,-0.43,1.25,
2.557,-3.07,-1.42,2.40,1.29,-0.34,1.25,
2.559,-2.08,-1.24,2.31,1.29,-0.34,1.25,
2.559,-2.08,-1.24,2.31,1.33,-0.25,1.25,
2.562,-2.08,-1.24,2.31,1.37,-0.12,1.26,
2.563,-2.08,-1.24,2.31,1.38,-0.08,1.26,
2.572,-2.08,-1.24,2.31,1.40,-0.00,1.27,
2.572,-2.08,-1.24,2.31,1.42,0.07,1.28,
2.572,-1.50,-0.99,2.18,1.42,0.07,1.28,
2.573,-1.50,-0.99,2.18,1.43,0.12,1.29,
2.573,-1.50,-0.99,2.18,1.43,0.19,1.32,
2.573,-1.50,-0.99,2.18,1.43,0.21,1.33,
2.575,-1.50,-0.99,2.18,1.43,0.25,1.35,
2.58,-1.50,-0.99,2.18,1.42,0.27,1.38,
2.595,-0.92,-1.08,1.63,1.42,0.27,1.38,
2.595,-0.92,-1.08,1.63,1.40,0.27,1.41,
2.595,-0.92,-1.08,1.63,1.37,0.25,1.46,
2.596,-0.92,-1.08,1.63,1.36,0.24,1.47,
2.596,-0.92,-1.08,1.63,1.33,0.21,1.49,
2.596,-0.92,-1.08,1.63,1.31,0.16,1.51,
2.596,0.62,-1.69,1.59,1.31,0.16,1.51,
2.596,0.62,-1.69,1.59,1.29,0.09,1.51,
2.596,0.62,-1.69,1.59,1.26,-0.05,1.51,
2.596,0.62,-1.69,1.59,1.26,-0.10,1.51,
2.597,0.62,-1.69,1.59,1.25,-0.20,1.50,
2.618,0.62,-1.69,1.59,1.25,-0.33,1.48,
2.619,2.76,-2.06,2.02,1.25,-0.33,1.48,
2.619,2.76,-2.06,2.02,1.25,-0.49,1.47,
2.619,2.76,-2.06,2.02,1.26,-0.74,1.46,
2.619,2.76,-2.06,2.02,1.26,-0.82,1.46,
2.619,2.76,-2.06,2.02,1.27,-0.97,1.46,
2.619,2.76,-2.06,2.02,1.29,-1.14,1.46,
2.62,3.63,-1.64,2.01,1.29,-1.14,1.46,
2.62,3.63,-1.64,2.01,1.32,-1.31,1.47,
2.62,3.63,-1.64,2.01,1.36,-1.56,1.50,
2.62,3.63,-1.64,2.01,1.37,-1.64,1.51,
2.62,3.63,-1.64,2.01,1.40,-1.81,1.52,
2.62,3.63,-1.64,2.01,1.43,-1.94,1.55,
2.62,3.09,-1.01,1.49,1.43,-1.94,1.55,
2.62,3.09,-1.01,1.49,1.45,-2.05,1.57,
2.622,3.09,-1.01,1.49,1.48,-2.21,1.60,
2.639,3.09,-1.01,1.49,1.49,-2.26,1.61,
2.64,3.09,-1.01,1.49,1.50,-2.38,1.63,
2.64,3.09,-1.01,1.49,1.50,-2.50,1.63,
2.64,3.17,-1.48,0.66,1.50,-2.50,1.63,
2.64,3.17,-1.48,0.66,1.50,-2.60,1.61,
2.64,3.17,-1.48,0.66,1.51,-2.74,1.57,
2.64,3.17,-1.48,0.66,1.51,-2.78,1.56,
2.64,3.17,-1.48,0.66,1.51,-2.85,1.52,
2.64,3.17,-1.48,0.66,1.51,-2.92,1.48,
2.641,2.99,-2.44,-0.11,1.51,-2.92,1.48,
2.641,2.99,-2.44,-0.11,1.51,-2.97,1.45,
2.659,2.99,-2.44,-0.11,1.49,-3.02,1.41,
2.66,2.99,-2.44,-0.11,1.49,-3.04,1.41,
2.66,2.99,-2.44,-0.11,1.48,-3.05,1.39,
2.66,2.99,-2.44,-0.11,1.46,-3.04,1.38,
2.66,1.45,-2.11,-0.56,1.46,-3.04,1.38,
2.66,1.45,-2.11,-0.56,1.45,-3.00,1.38,
2.66,1.45,-2.11,-0.56,1.43,-2.91,1.39,
2.661,1.45,-2.11,-0.56,1.42,-2.87,1.40,
2.661,1.45,-2.11,-0.56,1.40,-2.78,1.41,
2.661,1.45,-2.11,-0.56,1.38,-2.69,1.41,
2.661,0.21,-1.16,-0.82,1.38,-2.69,1.41,
2.661,0.21,-1.16,-0.82,1.36,-2.61,1.42,
2.662,0.21,-1.16,-0.82,1.32,-2.46,1.42,
2.673,0.21,-1.16,-0.82,1.30,-2.40,1.42,
2.674,0.21,-1.16,-0.82,1.27,-2.29,1.42,
2.674,0.21,-1.16,-0.82,1.24,-2.16,1.41,
2.674,-0.18,-0.98,-0.94,1.24,-2.16,1.41,
2.674,-0.18,-0.98,-0.94,1.20,-2.02,1.41,
2.674,-0.18,-0.98,-0.94,1.15,-1.80,1.40,
2.674,-0.18,-0.98,-0.94,1.14,-1.74,1.40,
2.675,-0.18,-0.98,-0.94,1.10,-1.62,1.40,
2.677,-0.18,-0.98,-0.94,1.06,-1.50,1.40,
2.679,-0.56,-0.67,-1.18,1.06,-1.50,1.40,
2.679,-0.56,-0.67,-1.18,1.03,-1.38,1.41,
2.687,-0.56,-0.67,-1.18,0.98,-1.22,1.42,
2.687,-0.56,-0.67,-1.18,0.96,-1.17,1.42,
2.687,-0.56,-0.67,-1.18,0.94,-1.07,1.43,
2.687,-0.56,-0.67,-1.18,0.91,-1.00,1.44,
2.689,-0.68,-0.49,-1.27,0.91,-1.00,1.44,
2.689,-0.68,-0.49,-1.27,0.89,-0.93,1.45,
2.699,-0.68,-0.49,-1.27,0.87,-0.81,1.47,
2.699,-0.68,-0.49,-1.27,0.87,-0.78,1.48,
2.699,-0.68,-0.49,-1.27,0.87,-0.73,1.49,
2.699,-0.68,-0.49,-1.27,0.87,-0.68,1.51,
2.7,-0.74,-0.63,-0.64,0.87,-0.68,1.51,
2.7,-0.74,-0.63,-0.64,0.87,-0.63,1.52,
2.706,-0.74,-0.63,-0.64,0.89,-0.54,1.54,
2.706,-0.74,-0.63,-0.64,0.89,-0.51,1.55,
2.706,-0.74,-0.63,-0.64,0.90,-0.46,1.57,
2.707,-0.74,-0.63,-0.64,0.91,-0.40,1.59,
2.709,-0.79,-1.14,-0.64,0.91,-0.40,1.59,
2.71,-0.79,-1.14,-0.64,0.91,-0.35,1.60,
2.712,-0.79,-1.14,-0.64,0.90,-0.27,1.63,
2.731,-0.79,-1.14,-0.64,0.89,-0.25,1.63,
2.732,-0.79,-1.14,-0.64,0.87,-0.19,1.65,
2.732,-0.79,-1.14,-0.64,0.85,-0.14,1.66,
2.732,-0.74,-1.29,-1.31,0.85,-0.14,1.66,
2.732,-0.74,-1.29,-1.31,0.82,-0.07,1.67,
2.732,-0.74,-1.29,-1.31,0.76,0.05,1.68,
2.732,-0.74,-1.29,-1.31,0.74,0.10,1.69,
2.732,-0.74,-1.29,-1.31,0.69,0.19,1.70,
2.733,-0.74,-1.29,-1.31,0.64,0.29,1.71,
2.733,-0.35,-0.60,-1.88,0.64,0.29,1.71,
2.733,-0.35,-0.60,-1.88,0.59,0.39,1.72,
2.733,-0.35,-0.60,-1.88,0.51,0.55,1.75,
2.742,-0.35,-0.60,-1.88,0.48,0.59,1.76,
2.742,-0.35,-0.60,-1.88,0.42,0.68,1.77,
2.742,-0.35,-0.60,-1.88,0.36,0.76,1.79,
2.742,0.01,0.20,-1.99,0.36,0.76,1.79,
2.742,0.01,0.20,-1.99,0.30,0.85,1.80,
2.742,0.01,0.20,-1.99,0.21,0.99,1.82,
2.743,0.01,0.20,-1.99,0.19,1.04,1.82,
2.746,0.01,0.20,-1.99,0.11,1.18,1.84,
2.75,0.01,0.20,-1.99,0.08,1.22,1.84,
2.75,-0.09,0.57,-1.67,0.08,1.22,1.84,
2.75,-0.09,0.57,-1.67,0.04,1.32,1.85,
2.752,-0.09,0.57,-1.67,-0.02,1.46,1.87,
2.753,-0.09,0.57,-1.67,-0.03,1.51,1.88,
2.755,-0.09,0.57,-1.67,-0.06,1.60,1.91,
2.757,-0.09,0.57,-1.67,-0.08,1.68,1.94,
2.759,-0.70,0.87,-1.18,-0.08,1.68,1.94,
2.759,-0.70,0.87,-1.18,-0.10,1.76,1.98,
2.762,-0.70,0.87,-1.18,-0.12,1.88,2.03,
2.764,-0.70,0.87,-1.18,-0.13,1.93,2.06,
2.765,-0.70,0.87,-1.18,-0.14,2.02,2.10,
2.767,-0.70,0.87,-1.18,-0.15,2.12,2.15,
2.769,-1.14,1.13,-1.07,-0.15,2.12,2.15,
2.769,-1.14,1.13,-1.07,-0.16,2.23,2.20,
2.772,-1.14,1.13,-1.07,-0.17,2.38,2.27,
2.773,-1.14,1.13,-1.07,-0.17,2.44,2.30,
2.775,-1.14,1.13,-1.07,-0.18,2.55,2.35,
2.777,-1.14,1.13,-1.07,-0.19,2.66,2.41,
2.781,-1.96,1.49,-0.81,-0.19,2.66,2.41,
2.781,-1.96,1.49,-0.81,-0.20,2.76,2.47,
2.782,-1.96,1.49,-0.81,-0.23,2.91,2.56,
2.783,-1.96,1.49,-0.81,-0.24,2.95,2.59,
2.787,-1.96,1.49,-0.81,-0.26,3.02,2.65,
2.787,-1.96,1.49,-0.81,-0.29,3.06,2.71,
2.789,-2.79,1.85,-0.75,-0.29,3.06,2.71,
2.789,-2.79,1.85,-0.75,-0.32,3.10,2.77,
2.792,-2.79,1.85,-0.75,-0.40,3.11,2.84,
2.793,-2.79,1.85,-0.75,-0.42,3.11,2.87,
2.795,-2.79,1.85,-0.75,-0.48,3.09,2.91,
2.797,-2.79,1.85,-0.75,-0.55,3.05,2.95,
2.799,-3.11,2.10,-0.92,-0.55,3.05,2.95,
2.799,-3.11,2.10,-0.92,-0.61,3.00,2.98,
2.802,-3.11,2.10,-0.92,-0.68,2.89,3.02,
2.803,-3.11,2.10,-0.92,-0.69,2.84,3.03,
2.805,-3.11,2.10,-0.92,-0.71,2.71,3.04,
2.807,-3.11,2.10,-0.92,-0.69,2.51,3.05,
2.809,-2.57,1.80,1.87,-0.69,2.51,3.05,
2.809,-2.57,1.80,1.87,-0.63,2.21,3.04,
2.812,-2.57,1.80,1.87,-0.51,1.66,3.01,
2.814,-2.57,1.80,1.87,-0.47,1.47,3.01,
2.815,-2.57,1.80,1.87,-0.39,1.09,2.98,
2.817,-2.57,1.80,1.87,-0.31,0.71,2.96,
2.819,-1.58,1.02,6.40,-0.31,0.71,2.96,
2.819,-1.58,1.02,6.40,-0.24,0.34,2.94,
2.822,-1.58,1.02,6.40,-0.17,-0.17,2.90,
2.823,-1.58,1.02,6.40,-0.15,-0.31,2.89,
2.825,-1.58,1.02,6.40,-0.12,-0.55,2.88,
2.827,-1.58,1.02,6.40,-0.11,-0.69,2.86,
2.83,-1.55,1.08,5.23,-0.11,-0.69,2.86,
2.83,-1.55,1.08,5.23,-0.12,-0.76,2.86,
2.832,-1.55,1.08,5.23,-0.16,-0.78,2.86,
2.833,-1.55,1.08,5.23,-0.17,-0.77,2.87,
2.835,-1.55,1.08,5.23,-0.22,-0.74,2.88,
2.837,-1.55,1.08,5.23,-0.28,-0.70,2.91,
2.839,-1.93,1.34,1.86,-0.28,-0.70,2.91,
2.839,-1.93,1.34,1.86,-0.35,-0.63,2.93,
2.842,-1.93,1.34,1.86,-0.46,-0.51,2.98,
2.843,-1.93,1.34,1.86,-0.50,-0.47,3.00,
2.845,-1.93,1.34,1.86,-0.58,-0.40,3.05,
2.849,-1.93,1.34,1.86,-0.67,-0.34,3.09,
2.85,-2.59,2.01,-0.98,-0.67,-0.34,3.09,
2.85,-2.59,2.01,-0.98,-0.75,-0.29,3.14,
2.852,-2.59,2.01,-0.98,-0.87,-0.27,3.22,
2.853,-2.59,2.01,-0.98,-0.91,-0.26,3.25,
2.855,-2.59,2.01,-0.98,-1.00,-0.26,3.30,
2.857,-2.59,2.01,-0.98,-1.09,-0.25,3.36,
2.872,-2.80,2.75,-2.80,-1.09,-0.25,3.36,
2.872,-2.80,2.75,-2.80,-1.18,-0.26,3.41,
2.873,-2.80,2.75,-2.80,-1.30,-0.28,3.49,
2.873,-2.80,2.75,-2.80,-1.33,-0.27,3.51,
2.873,-2.80,2.75,-2.80,-1.37,-0.21,3.51,
2.873,-2.80,2.75,-2.80,-1.35,-0.09,3.48,
2.873,-2.02,2.55,-3.76,-1.35,-0.09,3.48,
2.874,-2.02,2.55,-3.76,-1.30,0.08,3.41,
2.874,-2.02,2.55,-3.76,-1.19,0.34,3.29,
2.874,-2.02,2.55,-3.76,-1.15,0.41,3.25,
2.88,-2.02,2.55,-3.76,-1.09,0.51,3.18,
2.881,-2.02,2.55,-3.76,-1.03,0.56,3.12,
2.881,-0.47,1.97,-3.36,-1.03,0.56,3.12,
2.881,-0.47,1.97,-3.36,-0.98,0.60,3.06,
2.882,-0.47,1.97,-3.36,-0.90,0.64,2.97,
2.883,-0.47,1.97,-3.36,-0.87,0.65,2.94,
2.885,-0.47,1.97,-3.36,-0.81,0.67,2.88,
2.887,-0.47,1.97,-3.36,-0.74,0.69,2.82,
2.889,-0.12,1.78,-2.50,-0.74,0.69,2.82,
2.889,-0.12,1.78,-2.50,-0.67,0.69,2.76,
2.891,-0.12,1.78,-2.50,-0.57,0.63,2.66,
2.893,-0.12,1.78,-2.50,-0.53,0.59,2.63,
2.895,-0.12,1.78,-2.50,-0.46,0.49,2.57,
2.897,-0.12,1.78,-2.50,-0.38,0.36,2.51,
2.899,-0.11,1.41,-0.51,-0.38,0.36,2.51,
2.899,-0.11,1.41,-0.51,-0.31,0.20,2.45,
2.902,-0.11,1.41,-0.51,-0.20,-0.08,2.37,
2.903,-0.11,1.41,-0.51,-0.16,-0.18,2.35,
2.905,-0.11,1.41,-0.51,-0.10,-0.40,2.31,
2.907,-0.11,1.41,-0.51,-0.04,-0.63,2.27,
2.909,-0.64,1.01,1.47,-0.04,-0.63,2.27,
2.909,-0.64,1.01,1.47,0.01,-0.86,2.25,
2.912,-0.64,1.01,1.47,0.07,-1.23,2.23,
2.913,-0.64,1.01,1.47,0.08,-1.35,2.23,
2.915,-0.64,1.01,1.47,0.10,-1.60,2.23,
2.917,-0.64,1.01,1.47,0.11,-1.84,2.24,
2.919,-1.83,1.59,1.78,0.11,-1.84,2.24,
2.919,-1.83,1.59,1.78,0.11,-2.07,2.26,
2.922,-1.83,1.59,1.78,0.09,-2.38,2.29,
2.923,-1.83,1.59,1.78,0.08,-2.48,2.31,
2.925,-1.83,1.59,1.78,0.05,-2.67,2.34,
2.927,-1.83,1.59,1.78,0.04,-2.83,2.37,
2.929,-2.93,2.40,1.05,0.04,-2.83,2.37,
2.929,-2.93,2.40,1.05,-0.01,-3.00,2.42,
2.932,-2.93,2.40,1.05,-0.09,-3.23,2.48,
2.933,-2.93,2.40,1.05,-0.12,-3.30,2.50,
2.935,-2.93,2.40,1.05,-0.18,-3.42,2.55,
2.937,-2.93,2.40,1.05,-0.24,-3.51,2.59,
2.939,-3.35,3.13,-0.26,-0.24,-3.51,2.59,
2.939,-3.35,3.13,-0.26,-0.31,-3.58,2.62,
2.941,-3.35,3.13,-0.26,-0.39,-3.64,2.68,
2.943,-3.35,3.13,-0.26,-0.42,-3.66,2.69,
2.945,-3.35,3.13,-0.26,-0.48,-3.67,2.72,
2.947,-3.35,3.13,-0.26,-0.55,-3.65,2.76,
2.949,-3.42,3.76,-1.04,-0.55,-3.65,2.76,
2.949,-3.42,3.76,-1.04,-0.60,-3.63,2.78,
2.952,-3.42,3.76,-1.04,-0.69,-3.55,2.81,
2.953,-3.42,3.76,-1.04,-0.72,-3.51,2.83,
2.955,-3.42,3.76,-1.04,-0.77,-3.45,2.85,
2.957,-3.42,3.76,-1.04,-0.83,-3.37,2.87,
2.959,-3.22,4.50,-1.26,-0.83,-3.37,2.87,
2.96,-3.22,4.50,-1.26,-0.89,-3.30,2.88,
2.962,-3.22,4.50,-1.26,-0.97,-3.14,2.91,
2.964,-3.22,4.50,-1.26,-1.00,-3.09,2.92,
2.966,-3.22,4.50,-1.26,-1.03,-2.98,2.94,
2.967,-3.22,4.50,-1.26,-1.07,-2.86,2.95,
2.969,-3.21,4.79,-1.07,-1.07,-2.86,2.95,
2.97,-3.21,4.79,-1.07,-1.09,-2.73,2.97,
2.972,-3.21,4.79,-1.07,-1.10,-2.50,2.99,
2.973,-3.21,4.79,-1.07,-1.09,-2.41,3.00,
2.975,-3.21,4.79,-1.07,-1.07,-2.23,3.02,
2.977,-3.21,4.79,-1.07,-1.04,-2.04,3.04,
2.996,-3.00,5.02,0.63,-1.04,-2.04,3.04,
2.997,-3.00,5.02,0.63,-1.00,-1.85,3.05,
2.998,-3.00,5.02,0.63,-0.91,-1.50,3.08,
2.998,-3.00,5.02,0.63,-0.86,-1.36,3.09,
2.999,-3.00,5.02,0.63,-0.75,-1.05,3.12,
2.999,-3.00,5.02,0.63,-0.62,-0.72,3.15,
3.0,-3.13,4.91,3.90,-0.62,-0.72,3.15,
3.001,-3.13,4.91,3.90,-0.47,-0.36,3.17,
3.001,-3.13,4.91,3.90,-0.21,0.24,3.22,
3.002,-3.13,4.91,3.90,-0.12,0.45,3.24,
3.002,-3.13,4.91,3.90,0.05,0.87,3.28,
3.003,-3.13,4.91,3.90,0.21,1.30,3.32,
3.003,-3.13,4.97,5.93,0.21,1.30,3.32,
3.004,-3.13,4.97,5.93,0.37,1.72,3.36,
3.005,-3.13,4.97,5.93,0.57,2.38,3.43,
3.005,-3.13,4.97,5.93,0.63,2.60,3.45,
3.006,-3.13,4.97,5.93,0.75,3.01,3.50,
3.009,-3.13,4.97,5.93,0.83,3.41,3.56,
3.01,-2.75,3.70,5.05,0.83,3.41,3.56,
3.01,-2.75,3.70,5.05,0.93,3.84,3.64,
3.031,-2.75,3.70,5.05,1.09,4.52,3.82,
3.031,-2.75,3.70,5.05,1.14,4.73,3.89,
3.032,-2.75,3.70,5.05,1.24,5.13,4.07,
3.032,-2.75,3.70,5.05,1.32,5.51,4.30,
3.032,-3.80,-5.62,4.38,1.32,5.51,4.30,
3.032,-3.80,-5.62,4.38,1.37,5.85,4.57,
3.033,-3.80,-5.62,4.38,1.44,6.30,5.07,
3.033,-3.80,-5.62,4.38,1.46,6.41,5.26,
3.066,-3.80,-5.62,4.38,1.51,6.60,5.67,
3.068,-3.80,-5.62,4.38,1.57,6.75,6.11,
3.07,-9.66,-20.13,3.48,1.57,6.75,6.11,
3.072,-9.66,-20.13,3.48,1.64,6.84,6.57,
3.074,-9.66,-20.13,3.48,1.76,6.85,7.31,
3.075,-9.66,-20.13,3.48,1.79,6.81,7.56,
3.076,-9.66,-20.13,3.48,1.85,6.68,8.06,
3.078,-9.66,-20.13,3.48,1.91,6.45,8.55,
3.079,-15.22,-33.67,4.69,1.91,6.45,8.55,
3.081,-15.22,-33.67,4.69,1.97,6.15,9.03,
3.083,-15.22,-33.67,4.69,2.06,5.57,9.67,
3.084,-15.22,-33.67,4.69,2.09,5.35,9.85,
3.086,-15.22,-33.67,4.69,2.14,4.86,10.16,
3.088,-15.22,-33.67,4.69,2.19,4.34,10.40,
3.089,-12.42,-39.24,5.98,2.19,4.34,10.40,
3.093,-12.42,-39.24,5.98,2.24,3.78,10.57,
3.093,-12.42,-39.24,5.98,2.31,2.89,10.69,
3.094,-12.42,-39.24,5.98,2.34,2.59,10.70,
3.094,-12.42,-39.24,5.98,2.38,1.98,10.68,
3.095,-12.42,-39.24,5.98,2.43,1.35,10.60,
3.095,-4.10,-33.02,5.45,2.43,1.35,10.60,
3.095,-4.10,-33.02,5.45,2.49,0.72,10.50,
3.096,-4.10,-33.02,5.45,2.59,-0.13,10.32,
3.096,-4.10,-33.02,5.45,2.63,-0.39,10.25,
3.096,-4.10,-33.02,5.45,2.70,-0.86,10.09,
3.096,-4.10,-33.02,5.45,2.76,-1.27,9.90,
3.097,1.10,-21.93,2.18,2.76,-1.27,9.90,
3.097,1.10,-21.93,2.18,2.80,-1.64,9.65,
3.097,1.10,-21.93,2.18,2.82,-2.12,9.15,
3.098,1.10,-21.93,2.18,2.83,-2.28,8.97,
3.098,1.10,-21.93,2.18,2.83,-2.58,8.57,
3.098,1.10,-21.93,2.18,2.83,-2.87,8.13,
3.098,5.24,-12.86,-2.27,2.83,-2.87,8.13,
3.099,5.24,-12.86,-2.27,2.81,-3.14,7.67,
3.099,5.24,-12.86,-2.27,2.78,-3.45,6.92,
3.099,5.24,-12.86,-2.27,2.76,-3.51,6.65,
3.1,5.24,-12.86,-2.27,2.73,-3.61,6.09,
3.1,5.24,-12.86,-2.27,2.69,-3.68,5.51,
3.1,8.77,-6.52,-5.08,2.69,-3.68,5.51,
3.1,8.77,-6.52,-5.08,2.64,-3.76,4.91,
3.101,8.77,-6.52,-5.08,2.55,-3.81,4.02,
3.101,8.77,-6.52,-5.08,2.52,-3.81,3.73,
3.101,8.77,-6.52,-5.08,2.44,-3.75,2.90,
3.101,8.77,-6.52,-5.08,2.41,-3.71,2.64,
3.102,8.61,-0.28,-5.32,2.41,-3.71,2.64,
3.102,8.61,-0.28,-5.32,2.36,-3.62,2.14,
3.102,8.61,-0.28,-5.32,2.27,-3.50,1.46,
3.116,8.61,-0.28,-5.32,2.24,-3.45,1.25,
3.117,8.61,-0.28,-5.32,2.17,-3.31,0.86,
3.117,8.61,-0.28,-5.32,2.10,-3.14,0.51,
3.117,6.38,3.20,-4.75,2.10,-3.14,0.51,
3.117,6.38,3.20,-4.75,2.03,-2.97,0.22,
3.118,6.38,3.20,-4.75,1.92,-2.71,-0.12,
3.118,6.38,3.20,-4.75,1.88,-2.62,-0.20,
3.118,6.38,3.20,-4.75,1.80,-2.44,-0.35,
3.118,6.38,3.20,-4.75,1.72,-2.26,-0.45,
3.12,1.33,4.06,-4.72,1.72,-2.26,-0.45,
3.121,1.33,4.06,-4.72,1.63,-2.09,-0.51,
3.124,1.33,4.06,-4.72,1.49,-1.84,-0.53,
3.124,1.33,4.06,-4.72,1.45,-1.76,-0.53,
3.125,1.33,4.06,-4.72,1.36,-1.60,-0.49,
3.127,1.33,4.06,-4.72,1.26,-1.44,-0.43,
3.137,-2.55,3.26,-5.21,1.26,-1.44,-0.43,
3.137,-2.55,3.26,-5.21,1.17,-1.30,-0.35,
3.137,-2.55,3.26,-5.21,1.04,-1.08,-0.20,
3.138,-2.55,3.26,-5.21,1.00,-1.01,-0.15,
3.138,-2.55,3.26,-5.21,0.92,-0.87,-0.03,
3.138,-2.55,3.26,-5.21,0.85,-0.75,0.09,
3.139,-3.62,2.23,-5.06,0.85,-0.75,0.09,
3.14,-3.62,2.23,-5.06,0.78,-0.63,0.22,
3.142,-3.62,2.23,-5.06,0.69,-0.47,0.41,
3.144,-3.62,2.23,-5.06,0.67,-0.42,0.47,
3.151,-3.62,2.23,-5.06,0.63,-0.33,0.59,
3.154,-3.62,2.23,-5.06,0.60,-0.25,0.71,
3.157,-2.99,1.39,-3.90,0.60,-0.25,0.71,
3.157,-2.99,1.39,-3.90,0.59,-0.18,0.83,
3.157,-2.99,1.39,-3.90,0.60,-0.08,0.99,
3.158,-2.99,1.39,-3.90,0.62,-0.06,1.04,
3.158,-2.99,1.39,-3.90,0.66,-0.01,1.13,
3.158,-2.99,1.39,-3.90,0.71,0.03,1.22,
3.159,-1.41,0.48,-0.96,0.71,0.03,1.22,
3.16,-1.41,0.48,-0.96,0.79,0.05,1.30,
3.2,-1.41,0.48,-0.96,0.93,0.05,1.41,
3.2,-1.41,0.48,-0.96,0.99,0.04,1.45,
3.2,-1.41,0.48,-0.96,1.11,0.00,1.51,
3.201,-1.41,0.48,-0.96,1.25,-0.05,1.57,
3.201,-0.08,-0.73,2.40,1.25,-0.05,1.57,
3.201,-0.08,-0.73,2.40,1.41,-0.12,1.63,
3.201,-0.08,-0.73,2.40,1.65,-0.24,1.71,
3.201,-0.08,-0.73,2.40,1.73,-0.29,1.74,
3.201,-0.08,-0.73,2.40,1.90,-0.38,1.80,
3.202,-0.08,-0.73,2.40,2.06,-0.47,1.86,
3.202,-0.22,-2.14,3.89,2.06,-0.47,1.86,
3.202,-0.22,-2.14,3.89,2.22,-0.57,1.92,
3.202,-0.22,-2.14,3.89,2.45,-0.71,2.02,
3.202,-0.22,-2.14,3.89,2.53,-0.75,2.04,
3.202,-0.22,-2.14,3.89,2.67,-0.82,2.11,
3.203,-0.22,-2.14,3.89,2.80,-0.89,2.17,
3.203,-1.14,-3.70,3.33,2.80,-0.89,2.17,
3.203,-1.14,-3.70,3.33,2.92,-0.94,2.24,
3.224,-1.14,-3.70,3.33,3.08,-0.99,2.35,
3.224,-1.14,-3.70,3.33,3.13,-0.99,2.39,
3.224,-1.14,-3.70,3.33,3.21,-1.00,2.46,
3.224,-1.14,-3.70,3.33,3.28,-0.98,2.53,
3.225,-2.55,-4.91,1.77,3.28,-0.98,2.53,
3.225,-2.55,-4.91,1.77,3.34,-0.94,2.59,
3.225,-2.55,-4.91,1.77,3.40,-0.86,2.66,
3.225,-2.55,-4.91,1.77,3.41,-0.83,2.67,
3.226,-2.55,-4.91,1.77,3.42,-0.76,2.70,
3.226,-2.55,-4.91,1.77,3.42,-0.68,2.72,
3.226,-2.54,-4.96,-0.36,3.42,-0.68,2.72,
3.226,-2.54,-4.96,-0.36,3.41,-0.60,2.72,
3.227,-2.54,-4.96,-0.36,3.38,-0.48,2.71,
3.227,-2.54,-4.96,-0.36,3.37,-0.45,2.71,
3.227,-2.54,-4.96,-0.36,3.33,-0.38,2.69,
3.227,-2.54,-4.96,-0.36,3.30,-0.32,2.68,
3.228,-2.10,-3.97,-1.32,3.30,-0.32,2.68,
3.228,-2.10,-3.97,-1.32,3.25,-0.27,2.67,
3.228,-2.10,-3.97,-1.32,3.19,-0.23,2.64,
3.228,-2.10,-3.97,-1.32,3.16,-0.22,2.64,
3.236,-2.10,-3.97,-1.32,3.01,-0.21,2.60,
3.236,-2.10,-3.97,-1.32,3.01,-0.21,2.60,
3.237,-2.10,-3.97,-1.32,3.01,-0.21,2.60,
3.237,-2.06,-2.51,-1.43,3.01,-0.21,2.60,
3.237,-2.06,-2.51,-1.43,2.85,-0.26,2.57,
3.237,-2.06,-2.51,-1.43,2.85,-0.26,2.57,
3.237,-2.06,-2.51,-1.43,2.82,-0.28,2.56,
3.238,-2.06,-2.51,-1.43,2.76,-0.31,2.55,
3.241,-1.79,-1.70,-1.27,2.76,-0.31,2.55,
3.242,-1.79,-1.70,-1.27,2.69,-0.35,2.53,
3.242,-1.79,-1.70,-1.27,2.57,-0.43,2.50,
3.243,-1.79,-1.70,-1.27,2.53,-0.45,2.49,
3.246,-1.79,-1.70,-1.27,2.44,-0.50,2.46,
3.247,-1.79,-1.70,-1.27,2.36,-0.56,2.43,
3.249,-1.12,-0.91,-1.22,2.36,-0.56,2.43,
3.25,-1.12,-0.91,-1.22,2.26,-0.62,2.40,
3.252,-1.12,-0.91,-1.22,2.14,-0.73,2.34,
3.253,-1.12,-0.91,-1.22,2.09,-0.77,2.32,
3.255,-1.12,-0.91,-1.22,2.01,-0.85,2.28,
3.257,-1.12,-0.91,-1.22,1.93,-0.94,2.24,
3.261,-0.27,-0.52,-0.84,1.93,-0.94,2.24,
3.262,-0.27,-0.52,-0.84,1.84,-1.03,2.20,
3.262,-0.27,-0.52,-0.84,1.72,-1.16,2.14,
3.271,-0.27,-0.52,-0.84,1.68,-1.20,2.11,
3.272,-0.27,-0.52,-0.84,1.59,-1.29,2.07,
3.272,-0.27,-0.52,-0.84,1.51,-1.38,2.02,
3.273,0.63,-0.67,-0.55,1.51,-1.38,2.02,
3.273,0.63,-0.67,-0.55,1.42,-1.46,1.97,
3.273,0.63,-0.67,-0.55,1.30,-1.58,1.91,
3.273,0.63,-0.67,-0.55,1.25,-1.62,1.88,
3.277,0.63,-0.67,-0.55,1.17,-1.69,1.85,
3.277,0.63,-0.67,-0.55,1.09,-1.76,1.81,
3.314,1.36,-1.25,-0.64,1.09,-1.76,1.81,
3.315,1.36,-1.25,-0.64,1.02,-1.81,1.78,
3.315,1.36,-1.25,-0.64,0.91,-1.87,1.74,
3.315,1.36,-1.25,-0.64,0.88,-1.89,1.73,
3.315,1.36,-1.25,-0.64,0.82,-1.92,1.71,
3.315,1.36,-1.25,-0.64,0.77,-1.94,1.69,
3.315,1.86,-1.87,-0.75,0.77,-1.94,1.69,
3.315,1.86,-1.87,-0.75,0.72,-1.95,1.67,
3.316,1.86,-1.87,-0.75,0.66,-1.97,1.65,
3.316,1.86,-1.87,-0.75,0.65,-1.97,1.65,
3.316,1.86,-1.87,-0.75,0.62,-1.97,1.63,
3.316,1.86,-1.87,-0.75,0.60,-1.97,1.62,
3.316,2.16,-2.14,-0.98,0.60,-1.97,1.62,
3.316,2.16,-2.14,-0.98,0.58,-1.96,1.61,
3.316,2.16,-2.14,-0.98,0.57,-1.94,1.59,
3.316,2.16,-2.14,-0.98,0.57,-1.93,1.58,
3.317,2.16,-2.14,-0.98,0.57,-1.92,1.57,
3.317,2.16,-2.14,-0.98,0.58,-1.89,1.56,
3.317,2.30,-2.40,-1.26,0.58,-1.89,1.56,
3.317,2.30,-2.40,-1.26,0.59,-1.85,1.54,
3.317,2.30,-2.40,-1.26,0.62,-1.77,1.53,
3.317,2.30,-2.40,-1.26,0.64,-1.74,1.52,
3.317,2.30,-2.40,-1.26,0.67,-1.68,1.51,
3.317,2.30,-2.40,-1.26,0.70,-1.62,1.50,
3.32,2.23,-2.36,-1.35,0.70,-1.62,1.50,
3.32,2.23,-2.36,-1.35,0.73,-1.56,1.50,
3.323,2.23,-2.36,-1.35,0.79,-1.46,1.49,
3.323,2.23,-2.36,-1.35,0.82,-1.43,1.49,
3.326,2.23,-2.36,-1.35,0.86,-1.35,1.49,
3.33,2.23,-2.36,-1.35,0.91,-1.28,1.48,
3.33,2.23,-1.96,-1.31,0.91,-1.28,1.48,
3.33,2.23,-1.96,-1.31,0.95,-1.20,1.48,
3.334,2.23,-1.96,-1.31,1.03,-1.09,1.47,
3.334,2.23,-1.96,-1.31,1.05,-1.05,1.46,
3.337,2.23,-1.96,-1.31,1.10,-0.98,1.45,
3.337,2.23,-1.96,-1.31,1.14,-0.91,1.44,
3.34,2.46,-1.40,-1.40,1.14,-0.91,1.44,
3.341,2.46,-1.40,-1.40,1.19,-0.84,1.42,
3.342,2.46,-1.40,-1.40,1.26,-0.73,1.41,
3.345,2.46,-1.40,-1.40,1.28,-0.70,1.40,
3.345,2.46,-1.40,-1.40,1.32,-0.64,1.38,
3.348,2.46,-1.40,-1.40,1.35,-0.58,1.38,
3.351,2.51,-0.94,-1.49,1.35,-0.58,1.38,
3.351,2.51,-0.94,-1.49,1.38,-0.52,1.37,
3.352,2.51,-0.94,-1.49,1.42,-0.44,1.35,
3.355,2.51,-0.94,-1.49,1.43,-0.41,1.35,
3.355,2.51,-0.94,-1.49,1.45,-0.36,1.34,
3.359,2.51,-0.94,-1.49,1.46,-0.30,1.33,
3.371,2.38,-0.28,-1.74,1.46,-0.30,1.33,
3.372,2.38,-0.28,-1.74,1.46,-0.24,1.32,
3.372,2.38,-0.28,-1.74,1.46,-0.17,1.31,
3.372,2.38,-0.28,-1.74,1.45,-0.14,1.30,
3.372,2.38,-0.28,-1.74,1.43,-0.10,1.30,
3.372,2.38,-0.28,-1.74,1.42,-0.05,1.29,
3.372,2.29,0.27,-1.99,1.42,-0.05,1.29,
3.373,2.29,0.27,-1.99,1.39,-0.02,1.28,
3.375,2.29,0.27,-1.99,1.35,0.02,1.28,
3.375,2.29,0.27,-1.99,1.33,0.03,1.28,
3.376,2.29,0.27,-1.99,1.30,0.05,1.27,
3.377,2.29,0.27,-1.99,1.27,0.06,1.27,
3.379,2.42,0.81,-2.02,1.27,0.06,1.27,
3.38,2.42,0.81,-2.02,1.23,0.06,1.26,
3.382,2.42,0.81,-2.02,1.16,0.06,1.25,
3.383,2.42,0.81,-2.02,1.14,0.05,1.25,
3.385,2.42,0.81,-2.02,1.09,0.04,1.24,
3.387,2.42,0.81,-2.02,1.05,0.03,1.24,
3.389,2.66,1.23,-1.90,1.05,0.03,1.24,
3.389,2.66,1.23,-1.90,1.00,0.01,1.23,
3.392,2.66,1.23,-1.90,0.94,-0.01,1.22,
3.393,2.66,1.23,-1.90,0.91,-0.02,1.21,
3.395,2.66,1.23,-1.90,0.87,-0.04,1.20,
3.397,2.66,1.23,-1.90,0.82,-0.05,1.19,
3.399,2.90,1.60,-1.87,0.82,-0.05,1.19,
3.399,2.90,1.60,-1.87,0.78,-0.07,1.18,
3.402,2.90,1.60,-1.87,0.71,-0.10,1.16,
3.403,2.90,1.60,-1.87,0.69,-0.11,1.15,
3.405,2.90,1.60,-1.87,0.66,-0.13,1.15,
3.407,2.90,1.60,-1.87,0.62,-0.14,1.14,
3.409,2.99,1.96,-1.75,0.62,-0.14,1.14,
3.409,2.99,1.96,-1.75,0.58,-0.15,1.14,
3.415,2.99,1.96,-1.75,0.54,-0.17,1.13,
3.415,2.99,1.96,-1.75,0.52,-0.17,1.13,
3.415,2.99,1.96,-1.75,0.49,-0.18,1.12,
3.417,2.99,1.96,-1.75,0.47,-0.18,1.12,
3.425,3.02,2.19,-1.55,0.47,-0.18,1.12,
3.426,3.02,2.19,-1.55,0.45,-0.18,1.11,
3.426,3.02,2.19,-1.55,0.42,-0.18,1.10,
3.426,3.02,2.19,-1.55,0.41,-0.18,1.09,
3.426,3.02,2.19,-1.55,0.40,-0.18,1.08,
3.427,3.02,2.19,-1.55,0.39,-0.18,1.07,
3.45,3.08,2.46,-1.13,0.39,-0.18,1.07,
3.451,3.08,2.46,-1.13,0.38,-0.18,1.06,
3.451,3.08,2.46,-1.13,0.36,-0.16,1.04,
3.451,3.08,2.46,-1.13,0.36,-0.16,1.03,
3.451,3.08,2.46,-1.13,0.35,-0.15,1.02,
3.451,3.08,2.46,-1.13,0.35,-0.14,1.00,
3.452,3.00,2.44,-0.92,0.35,-0.14,1.00,
3.452,3.00,2.44,-0.92,0.34,-0.14,0.99,
3.452,3.00,2.44,-0.92,0.34,-0.12,0.96,
3.452,3.00,2.44,-0.92,0.34,-0.11,0.95,
3.452,3.00,2.44,-0.92,0.34,-0.10,0.93,
3.452,3.00,2.44,-0.92,0.34,-0.09,0.92,
3.453,2.82,2.39,-0.59,0.34,-0.09,0.92,
3.453,2.82,2.39,-0.59,0.34,-0.08,0.90,
3.453,2.82,2.39,-0.59,0.34,-0.07,0.87,
3.453,2.82,2.39,-0.59,0.34,-0.06,0.87,
3.455,2.82,2.39,-0.59,0.34,-0.06,0.85,
3.457,2.82,2.39,-0.59,0.34,-0.05,0.83,
3.46,2.51,2.10,-0.46,0.34,-0.05,0.83,
3.461,2.51,2.10,-0.46,0.33,-0.04,0.81,
3.463,2.51,2.10,-0.46,0.32,-0.04,0.79,
3.464,2.51,2.10,-0.46,0.32,-0.04,0.78,
3.465,2.51,2.10,-0.46,0.31,-0.03,0.76,
3.467,2.51,2.10,-0.46,0.30,-0.03,0.75,
3.469,2.05,1.83,-0.38,0.30,-0.03,0.75,
3.47,2.05,1.83,-0.38,0.29,-0.03,0.74,
3.472,2.05,1.83,-0.38,0.28,-0.03,0.73,
3.474,2.05,1.83,-0.38,0.27,-0.03,0.73,
3.475,2.05,1.83,-0.38,0.25,-0.03,0.72,
3.48,2.05,1.83,-0.38,0.24,-0.03,0.71,
3.48,1.62,1.52,-0.38,0.24,-0.03,0.71,
3.481,1.62,1.52,-0.38,0.23,-0.03,0.71,
3.482,1.62,1.52,-0.38,0.20,-0.04,0.69,
3.484,1.62,1.52,-0.38,0.19,-0.04,0.68,
3.486,1.62,1.52,-0.38,0.17,-0.04,0.67,
3.49,1.62,1.52,-0.38,0.15,-0.05,0.66,
3.49,1.67,1.47,-0.42,0.15,-0.05,0.66,
3.49,1.67,1.47,-0.42,0.13,-0.05,0.64,
3.492,1.67,1.47,-0.42,0.10,-0.07,0.62,
3.494,1.67,1.47,-0.42,0.09,-0.07,0.61,
3.495,1.67,1.47,-0.42,0.07,-0.09,0.60,
3.497,1.67,1.47,-0.42,0.05,-0.10,0.58,
3.499,1.77,1.39,-0.40,0.05,-0.10,0.58,
3.5,1.77,1.39,-0.40,0.03,-0.11,0.56,
3.502,1.77,1.39,-0.40,-0.00,-0.12,0.54,
3.504,1.77,1.39,-0.40,-0.01,-0.13,0.52,
3.505,1.77,1.39,-0.40,-0.03,-0.14,0.51,
3.507,1.77,1.39,-0.40,-0.04,-0.14,0.49,
3.513,1.98,1.29,-0.20,-0.04,-0.14,0.49,
3.516,1.98,1.29,-0.20,-0.05,-0.14,0.47,
3.517,1.98,1.29,-0.20,-0.07,-0.14,0.44,
3.518,1.98,1.29,-0.20,-0.07,-0.13,0.43,
3.519,1.98,1.29,-0.20,-0.08,-0.12,0.40,
3.52,1.98,1.29,-0.20,-0.08,-0.11,0.37,
3.521,2.19,1.25,0.01,-0.08,-0.11,0.37,
3.521,2.19,1.25,0.01,-0.09,-0.09,0.34,
3.523,2.19,1.25,0.01,-0.09,-0.06,0.30,
3.524,2.19,1.25,0.01,-0.09,-0.04,0.28,
3.562,2.19,1.25,0.01,-0.08,-0.01,0.26,
3.563,2.19,1.25,0.01,-0.08,0.02,0.23,
3.563,2.42,1.34,0.16,-0.08,0.02,0.23,
3.564,2.42,1.34,0.16,-0.08,0.06,0.20,
3.564,2.42,1.34,0.16,-0.07,0.12,0.16,
3.565,2.42,1.34,0.16,-0.07,0.14,0.15,
3.565,2.42,1.34,0.16,-0.07,0.18,0.13,
3.566,2.42,1.34,0.16,-0.06,0.22,0.11,
3.567,2.30,1.41,0.16,-0.06,0.22,0.11,
3.567,2.30,1.41,0.16,-0.05,0.25,0.09,
3.568,2.30,1.41,0.16,-0.05,0.30,0.06,
3.568,2.30,1.41,0.16,-0.04,0.33,0.03,
3.569,2.30,1.41,0.16,-0.03,0.34,0.03,
3.569,2.30,1.41,0.16,-0.03,0.36,0.01,
3.57,2.19,1.50,0.17,-0.03,0.36,0.01,
3.571,2.19,1.50,0.17,-0.02,0.37,-0.02,
3.571,2.19,1.50,0.17,-0.02,0.39,-0.05,
3.572,2.19,1.50,0.17,-0.02,0.40,-0.07,
3.572,2.19,1.50,0.17,-0.02,0.41,-0.09,
3.573,2.19,1.50,0.17,-0.02,0.41,-0.12,
3.573,2.02,1.47,-0.07,-0.02,0.41,-0.12,
3.574,2.02,1.47,-0.07,-0.02,0.41,-0.14,
3.575,2.02,1.47,-0.07,-0.03,0.41,-0.18,
3.576,2.02,1.47,-0.07,-0.04,0.41,-0.20,
3.576,2.02,1.47,-0.07,-0.05,0.41,-0.22,
3.576,2.02,1.47,-0.07,-0.07,0.41,-0.25,
3.576,1.89,1.48,-0.53,-0.07,0.41,-0.25,
3.576,1.89,1.48,-0.53,-0.08,0.40,-0.28,
3.577,1.89,1.48,-0.53,-0.11,0.39,-0.32,
3.577,1.89,1.48,-0.53,-0.12,0.38,-0.34,
3.577,1.89,1.48,-0.53,-0.15,0.37,-0.36,
3.577,1.89,1.48,-0.53,-0.17,0.35,-0.39,
3.595,1.58,1.48,-1.09,-0.17,0.35,-0.39,
3.596,1.58,1.48,-1.09,-0.21,0.34,-0.41,
3.596,1.58,1.48,-1.09,-0.25,0.31,-0.46,
3.596,1.58,1.48,-1.09,-0.27,0.30,-0.47,
3.597,1.58,1.48,-1.09,-0.31,0.28,-0.50,
3.597,1.58,1.48,-1.09,-0.35,0.26,-0.53,
3.597,1.43,1.55,-1.73,-0.35,0.26,-0.53,
3.597,1.43,1.55,-1.73,-0.39,0.23,-0.56,
3.598,1.43,1.55,-1.73,-0.46,0.20,-0.61,
3.598,1.43,1.55,-1.73,-0.48,0.19,-0.63,
3.598,1.43,1.55,-1.73,-0.53,0.17,-0.66,
3.598,1.43,1.55,-1.73,-0.57,0.16,-0.69,
3.603,1.35,1.62,-2.27,-0.57,0.16,-0.69,
3.604,1.35,1.62,-2.27,-0.61,0.14,-0.73,
3.604,1.35,1.62,-2.27,-0.66,0.11,-0.77,
3.604,1.35,1.62,-2.27,-0.69,0.09,-0.80,
3.605,1.35,1.62,-2.27,-0.70,0.08,-0.81,
3.608,1.35,1.62,-2.27,-0.71,0.04,-0.83,
3.648,0.50,2.02,-1.53,-0.71,0.04,-0.83,
3.648,0.50,2.02,-1.53,-0.71,0.01,-0.84,
3.649,0.50,2.02,-1.53,-0.68,-0.06,-0.84,
3.649,0.50,2.02,-1.53,-0.66,-0.09,-0.83,
3.649,0.50,2.02,-1.53,-0.60,-0.15,-0.81,
3.649,0.50,2.02,-1.53,-0.52,-0.21,-0.77,
3.649,-2.21,2.37,2.43,-0.52,-0.21,-0.77,
3.649,-2.21,2.37,2.43,-0.42,-0.29,-0.72,
3.65,-2.21,2.37,2.43,-0.23,-0.41,-0.61,
3.65,-2.21,2.37,2.43,-0.15,-0.45,-0.57,
3.65,-2.21,2.37,2.43,0.01,-0.52,-0.47,
3.65,-2.21,2.37,2.43,0.19,-0.56,-0.35,
3.65,-7.07,2.03,8.46,0.19,-0.56,-0.35,
3.651,-7.07,2.03,8.46,0.37,-0.57,-0.22,
3.651,-7.07,2.03,8.46,0.61,-0.46,0.01,
3.651,-7.07,2.03,8.46,0.68,-0.39,0.09,
3.651,-7.07,2.03,8.46,0.77,-0.19,0.25,
3.651,-7.07,2.03,8.46,0.80,0.07,0.42,
3.652,-12.66,0.05,6.93,0.80,0.07,0.42,
3.652,-12.66,0.05,6.93,0.78,0.37,0.58,
3.653,-12.66,0.05,6.93,0.66,0.84,0.81,
3.653,-12.66,0.05,6.93,0.59,1.00,0.89,
3.653,-12.66,0.05,6.93,0.45,1.27,1.02,
3.653,-12.66,0.05,6.93,0.29,1.50,1.14,
3.654,-15.04,-2.33,-2.62,0.29,1.50,1.14,
3.654,-15.04,-2.33,-2.62,0.13,1.68,1.24,
3.654,-15.04,-2.33,-2.62,-0.05,1.83,1.30,
3.655,-15.04,-2.33,-2.62,-0.12,1.85,1.29,
3.655,-15.04,-2.33,-2.62,-0.14,1.84,1.28,
3.659,-15.04,-2.33,-2.62,-0.16,1.74,1.21,
3.66,-10.00,-3.23,-2.35,-0.16,1.74,1.21,
3.661,-10.00,-3.23,-2.35,-0.16,1.58,1.11,
3.665,-10.00,-3.23,-2.35,-0.12,1.20,0.92,
3.667,-10.00,-3.23,-2.35,-0.10,1.05,0.85,
3.667,-10.00,-3.23,-2.35,-0.09,0.73,0.70,
3.667,-10.00,-3.23,-2.35,-0.09,0.42,0.55,
3.671,-4.10,-2.31,0.87,-0.09,0.42,0.55,
3.672,-4.10,-2.31,0.87,-0.12,0.14,0.40,
3.672,-4.10,-2.31,0.87,-0.23,-0.19,0.17,
3.675,-4.10,-2.31,0.87,-0.29,-0.26,0.09,
3.676,-4.10,-2.31,0.87,-0.43,-0.35,-0.05,
3.684,-4.10,-2.31,0.87,-0.60,-0.36,-0.19,
3.685,-1.22,-0.71,-1.11,-0.60,-0.36,-0.19,
3.685,-1.22,-0.71,-1.11,-0.79,-0.30,-0.31,
3.685,-1.22,-0.71,-1.11,-1.09,-0.14,-0.47,
3.686,-1.22,-0.71,-1.11,-1.19,-0.07,-0.52,
3.686,-1.22,-0.71,-1.11,-1.38,0.05,-0.60,
3.694,-1.22,-0.71,-1.11,-1.56,0.14,-0.67,
3.694,-1.14,0.78,-1.81,-1.56,0.14,-0.67,
3.734,-1.14,0.78,-1.81,-1.72,0.20,-0.74,
3.768,-1.14,0.78,-1.81,-1.94,0.24,-0.83,
3.768,-1.14,0.78,-1.81,-2.01,0.23,-0.86,
3.768,-1.14,0.78,-1.81,-2.13,0.20,-0.92,
3.768,-1.14,0.78,-1.81,-2.24,0.14,-0.98,
3.769,0.06,0.85,-2.43,-2.24,0.14,-0.98,
3.769,0.06,0.85,-2.43,-2.34,0.06,-1.04,
3.769,0.06,0.85,-2.43,-2.46,-0.09,-1.13,
3.77,0.06,0.85,-2.43,-2.49,-0.14,-1.16,
3.77,0.06,0.85,-2.43,-2.55,-0.25,-1.22,
3.77,0.06,0.85,-2.43,-2.58,-0.35,-1.27,
3.77,2.02,0.06,-2.89,-2.58,-0.35,-1.27,
3.771,2.02,0.06,-2.89,-2.61,-0.46,-1.32,
3.771,2.02,0.06,-2.89,-2.61,-0.62,-1.38,
3.771,2.02,0.06,-2.89,-2.60,-0.73,-1.42,
3.771,2.02,0.06,-2.89,-2.58,-0.78,-1.43,
3.772,2.02,0.06,-2.89,-2.55,-0.86,-1.45,
3.772,2.48,-0.81,-2.13,-2.55,-0.86,-1.45,
3.772,2.48,-0.81,-2.13,-2.50,-0.93,-1.46,
3.772,2.48,-0.81,-2.13,-2.42,-1.01,-1.45,
3.773,2.48,-0.81,-2.13,-2.39,-1.02,-1.44,
3.773,2.48,-0.81,-2.13,-2.34,-1.03,-1.41,
3.773,2.48,-0.81,-2.13,-2.29,-1.04,-1.37,
3.774,1.38,-1.92,-1.74,-2.29,-1.04,-1.37,
3.774,1.38,-1.92,-1.74,-2.23,-1.03,-1.33,
3.774,1.38,-1.92,-1.74,-2.17,-1.01,-1.26,
3.774,1.38,-1.92,-1.74,-2.15,-1.01,-1.23,
3.775,1.38,-1.92,-1.74,-2.12,-0.99,-1.18,
3.775,1.38,-1.92,-1.74,-2.11,-0.98,-1.12,
3.775,0.38,-3.38,-2.30,-2.11,-0.98,-1.12,
3.775,0.38,-3.38,-2.30,-2.09,-0.98,-1.07,
3.776,0.38,-3.38,-2.30,-2.08,-0.98,-0.99,
3.776,0.38,-3.38,-2.30,-2.08,-0.99,-0.97,
3.776,0.38,-3.38,-2.30,-2.08,-1.00,-0.91,
3.776,0.38,-3.38,-2.30,-2.08,-1.01,-0.84,
3.777,-0.40,-5.13,-2.49,-2.08,-1.01,-0.84,
3.777,-0.40,-5.13,-2.49,-2.08,-1.02,-0.79,
3.777,-0.40,-5.13,-2.49,-2.07,-1.01,-0.70,
3.777,-0.40,-5.13,-2.49,-2.07,-1.01,-0.64,
3.778,-0.40,-5.13,-2.49,-2.07,-1.00,-0.62,
3.778,-0.40,-5.13,-2.49,-2.08,-0.98,-0.57,
3.778,-1.14,-6.11,-1.98,-2.08,-0.98,-0.57,
3.779,-1.14,-6.11,-1.98,-2.09,-0.96,-0.53,
3.779,-1.14,-6.11,-1.98,-2.10,-0.92,-0.46,
3.779,-1.14,-6.11,-1.98,-2.11,-0.91,-0.44,
3.779,-1.14,-6.11,-1.98,-2.12,-0.89,-0.40,
3.78,-1.14,-6.11,-1.98,-2.14,-0.87,-0.37,
3.78,-1.62,-6.47,-2.22,-2.14,-0.87,-0.37,
3.78,-1.62,-6.47,-2.22,-2.16,-0.85,-0.33,
3.78,-1.62,-6.47,-2.22,-2.19,-0.80,-0.28,
3.781,-1.62,-6.47,-2.22,-2.19,-0.79,-0.27,
3.781,-1.62,-6.47,-2.22,-2.21,-0.75,-0.25,
3.781,-1.62,-6.47,-2.22,-2.23,-0.70,-0.23,
3.781,-1.67,-6.17,-2.07,-2.23,-0.70,-0.23,
3.782,-1.67,-6.17,-2.07,-2.25,-0.65,-0.21,
3.782,-1.67,-6.17,-2.07,-2.29,-0.58,-0.19,
3.793,-1.67,-6.17,-2.07,-2.30,-0.56,-0.18,
3.796,-1.67,-6.17,-2.07,-2.33,-0.51,-0.17,
3.797,-1.67,-6.17,-2.07,-2.36,-0.47,-0.18,
3.797,-1.11,-5.95,-2.29,-2.36,-0.47,-0.18,
3.798,-1.11,-5.95,-2.29,-2.39,-0.43,-0.19,
3.798,-1.11,-5.95,-2.29,-2.43,-0.38,-0.21,
3.798,-1.11,-5.95,-2.29,-2.46,-0.35,-0.24,
3.798,-1.11,-5.95,-2.29,-2.48,-0.33,-0.27,
3.799,-1.11,-5.95,-2.29,-2.49,-0.33,-0.29,
3.8,0.07,-5.19,-2.20,-2.49,-0.33,-0.29,
3.8,0.07,-5.19,-2.20,-2.51,-0.33,-0.33,
3.804,0.07,-5.19,-2.20,-2.53,-0.33,-0.40,
3.805,0.07,-5.19,-2.20,-2.54,-0.34,-0.45,
3.805,0.07,-5.19,-2.20,-2.54,-0.35,-0.48,
3.809,0.07,-5.19,-2.20,-2.55,-0.37,-0.55,
3.81,0.83,-4.30,-1.64,-2.55,-0.37,-0.55,
3.81,0.83,-4.30,-1.64,-2.55,-0.39,-0.60,
3.815,0.83,-4.30,-1.64,-2.54,-0.43,-0.69,
3.815,0.83,-4.30,-1.64,-2.54,-0.44,-0.72,
3.816,0.83,-4.30,-1.64,-2.54,-0.46,-0.78,
3.819,0.83,-4.30,-1.64,-2.53,-0.48,-0.83,
3.82,0.82,-3.18,-1.11,-2.53,-0.48,-0.83,
3.82,0.82,-3.18,-1.11,-2.53,-0.51,-0.89,
3.822,0.82,-3.18,-1.11,-2.51,-0.53,-0.97,
3.825,0.82,-3.18,-1.11,-2.50,-0.54,-0.99,
3.826,0.82,-3.18,-1.11,-2.50,-0.55,-1.03,
3.836,0.82,-3.18,-1.11,-2.48,-0.57,-1.06,
3.837,0.19,-2.09,-0.83,-2.48,-0.57,-1.06,
3.837,0.19,-2.09,-0.83,-2.46,-0.57,-1.09,
3.837,0.19,-2.09,-0.83,-2.44,-0.59,-1.12,
3.837,0.19,-2.09,-0.83,-2.42,-0.59,-1.13,
3.838,0.19,-2.09,-0.83,-2.41,-0.60,-1.14,
3.838,0.19,-2.09,-0.83,-2.39,-0.60,-1.14,
3.879,-0.52,-0.98,-0.60,-2.39,-0.60,-1.14,
3.879,-0.52,-0.98,-0.60,-2.37,-0.61,-1.14,
3.879,-0.52,-0.98,-0.60,-2.33,-0.61,-1.13,
3.88,-0.52,-0.98,-0.60,-2.32,-0.61,-1.12,
3.88,-0.52,-0.98,-0.60,-2.29,-0.61,-1.11,
3.88,-0.52,-0.98,-0.60,-2.27,-0.60,-1.09,
3.88,-0.78,-0.03,-0.55,-2.27,-0.60,-1.09,
3.88,-0.78,-0.03,-0.55,-2.25,-0.58,-1.07,
3.88,-0.78,-0.03,-0.55,-2.21,-0.54,-1.03,
3.881,-0.78,-0.03,-0.55,-2.20,-0.53,-1.02,
3.881,-0.78,-0.03,-0.55,-2.18,-0.50,-0.99,
3.881,-0.78,-0.03,-0.55,-2.16,-0.47,-0.97,
3.898,-0.60,0.55,-0.68,-2.16,-0.47,-0.97,
3.898,-0.60,0.55,-0.68,-2.14,-0.44,-0.95,
3.899,-0.60,0.55,-0.68,-2.11,-0.40,-0.91,
3.899,-0.60,0.55,-0.68,-2.10,-0.39,-0.90,
3.899,-0.60,0.55,-0.68,-2.08,-0.36,-0.88,
3.899,-0.60,0.55,-0.68,-2.06,-0.34,-0.86,
3.9,-0.18,0.67,-0.64,-2.06,-0.34,-0.86,
3.9,-0.18,0.67,-0.64,-2.04,-0.31,-0.84,
3.9,-0.18,0.67,-0.64,-2.01,-0.28,-0.81,
3.9,-0.18,0.67,-0.64,-1.99,-0.27,-0.80,
3.9,-0.18,0.67,-0.64,-1.98,-0.26,-0.79,
3.901,-0.18,0.67,-0.64,-1.96,-0.25,-0.78,
3.901,0.21,0.42,-0.37,-1.96,-0.25,-0.78,
3.901,0.21,0.42,-0.37,-1.94,-0.23,-0.76,
3.901,0.21,0.42,-0.37,-1.92,-0.23,-0.75,
3.901,0.21,0.42,-0.37,-1.90,-0.22,-0.75,
3.902,0.21,0.42,-0.37,-1.90,-0.22,-0.74,
3.902,0.21,0.42,-0.37,-1.89,-0.22,-0.74,
3.902,0.70,0.05,-0.25,-1.89,-0.22,-0.74,
3.902,0.70,0.05,-0.25,-1.88,-0.22,-0.74,
3.903,0.70,0.05,-0.25,-1.87,-0.23,-0.73,
3.903,0.70,0.05,-0.25,-1.87,-0.24,-0.73,
3.903,0.70,0.05,-0.25,-1.88,-0.24,-0.73,
3.903,0.70,0.05,-0.25,-1.88,-0.25,-0.73,
3.903,0.89,-0.35,-0.32,-1.88,-0.25,-0.73,
3.904,0.89,-0.35,-0.32,-1.89,-0.26,-0.73,
3.904,0.89,-0.35,-0.32,-1.90,-0.27,-0.72,
3.904,0.89,-0.35,-0.32,-1.91,-0.28,-0.72,
3.908,0.89,-0.35,-0.32,-1.93,-0.29,-0.72,
3.908,0.89,-0.35,-0.32,-1.94,-0.30,-0.72,
3.909,0.86,-0.69,-0.39,-1.94,-0.30,-0.72,
3.909,0.86,-0.69,-0.39,-1.96,-0.31,-0.72,
3.912,0.86,-0.69,-0.39,-1.99,-0.34,-0.72,
3.913,0.86,-0.69,-0.39,-2.01,-0.36,-0.72,
3.915,0.86,-0.69,-0.39,-2.02,-0.37,-0.72,
3.917,0.86,-0.69,-0.39,-2.05,-0.39,-0.72,
3.92,0.74,-0.89,-0.35,-2.05,-0.39,-0.72,
3.92,0.74,-0.89,-0.35,-2.07,-0.41,-0.73,
3.922,0.74,-0.89,-0.35,-2.11,-0.44,-0.73,
3.924,0.74,-0.89,-0.35,-2.13,-0.47,-0.74,
3.925,0.74,-0.89,-0.35,-2.15,-0.48,-0.74,
3.927,0.74,-0.89,-0.35,-2.18,-0.50,-0.75,
3.929,0.50,-0.99,-0.29,-2.18,-0.50,-0.75,
3.929,0.50,-0.99,-0.29,-2.21,-0.52,-0.75,
3.932,0.50,-0.99,-0.29,-2.25,-0.56,-0.77,
3.933,0.50,-0.99,-0.29,-2.28,-0.58,-0.78,
3.935,0.50,-0.99,-0.29,-2.30,-0.60,-0.79,
3.937,0.50,-0.99,-0.29,-2.33,-0.62,-0.80,
3.943,0.31,-1.02,-0.24,-2.33,-0.62,-0.80,
3.944,0.31,-1.02,-0.24,-2.36,-0.65,-0.81,
3.944,0.31,-1.02,-0.24,-2.40,-0.69,-0.83,
3.944,0.31,-1.02,-0.24,-2.43,-0.71,-0.85,
3.945,0.31,-1.02,-0.24,-2.45,-0.72,-0.85,
3.95,0.31,-1.02,-0.24,-2.47,-0.74,-0.87,
3.95,0.25,-0.89,-0.16,-2.47,-0.74,-0.87,
3.95,0.25,-0.89,-0.16,-2.49,-0.76,-0.89,
3.952,0.25,-0.89,-0.16,-2.53,-0.80,-0.91,
3.953,0.25,-0.89,-0.16,-2.55,-0.82,-0.94,
3.955,0.25,-0.89,-0.16,-2.55,-0.83,-0.95,
3.97,0.25,-0.89,-0.16,-2.57,-0.86,-0.97,
3.971,0.42,-0.61,-0.00,-2.57,-0.86,-0.97,
3.971,0.42,-0.61,-0.00,-2.59,-0.88,-1.00,
3.971,0.42,-0.61,-0.00,-2.60,-0.92,-1.03,
3.971,0.42,-0.61,-0.00,-2.62,-0.94,-1.06,
3.971,0.42,-0.61,-0.00,-2.62,-0.96,-1.07,
3.971,0.42,-0.61,-0.00,-2.63,-0.99,-1.09,
3.971,0.52,-0.31,0.18,-2.63,-0.99,-1.09,
3.971,0.52,-0.31,0.18,-2.63,-1.01,-1.11,
3.972,0.52,-0.31,0.18,-2.63,-1.05,-1.13,
3.977,0.52,-0.31,0.18,-2.63,-1.08,-1.14,
3.977,0.52,-0.31,0.18,-2.63,-1.09,-1.14,
3.977,0.52,-0.31,0.18,-2.63,-1.11,-1.15,
3.979,0.34,0.14,0.36,-2.63,-1.11,-1.15,
3.979,0.34,0.14,0.36,-2.62,-1.14,-1.16,
3.982,0.34,0.14,0.36,-2.61,-1.17,-1.17,
3.983,0.34,0.14,0.36,-2.60,-1.18,-1.17,
3.985,0.34,0.14,0.36,-2.60,-1.19,-1.16,
3.987,0.34,0.14,0.36,-2.59,-1.20,-1.16,
3.989,0.08,0.56,0.46,-2.59,-1.20,-1.16,
3.989,0.08,0.56,0.46,-2.58,-1.20,-1.15,
3.992,0.08,0.56,0.46,-2.56,-1.21,-1.15,
3.993,0.08,0.56,0.46,-2.56,-1.21,-1.14,
3.995,0.08,0.56,0.46,-2.55,-1.21,-1.13,
3.997,0.08,0.56,0.46,-2.54,-1.21,-1.12,
3.999,-0.20,0.89,0.48,-2.54,-1.21,-1.12,
4.0,-0.20,0.89,0.48,-2.52,-1.21,-1.10,
4.002,-0.20,0.89,0.48,-2.50,-1.20,-1.07,
4.003,-0.20,0.89,0.48,-2.49,-1.20,-1.04,
4.005,-0.20,0.89,0.48,-2.49,-1.19,-1.03,
4.008,-0.20,0.89,0.48,-2.47,-1.17,-1.01,
4.01,-0.54,1.29,0.41,-2.47,-1.17,-1.01,
4.011,-0.54,1.29,0.41,-2.46,-1.15,-0.98,
4.013,-0.54,1.29,0.41,-2.44,-1.11,-0.94,
4.013,-0.54,1.29,0.41,-2.42,-1.08,-0.90,
4.016,-0.54,1.29,0.41,-2.41,-1.06,-0.89,
4.018,-0.54,1.29,0.41,-2.39,-1.01,-0.86,
4.019,-0.64,1.63,0.30,-2.39,-1.01,-0.86,
4.019,-0.64,1.63,0.30,-2.37,-0.96,-0.83,
4.022,-0.64,1.63,0.30,-2.34,-0.88,-0.77,
4.026,-0.64,1.63,0.30,-2.31,-0.82,-0.74,
4.056,-0.64,1.63,0.30,-2.30,-0.79,-0.72,
4.056,-0.64,1.63,0.30,-2.28,-0.74,-0.68,
4.057,-0.70,1.87,0.27,-2.28,-0.74,-0.68,
4.057,-0.70,1.87,0.27,-2.26,-0.69,-0.65,
4.058,-0.70,1.87,0.27,-2.23,-0.64,-0.61,
4.058,-0.70,1.87,0.27,-2.22,-0.62,-0.58,
4.058,-0.70,1.87,0.27,-2.21,-0.61,-0.57,
4.059,-0.70,1.87,0.27,-2.20,-0.59,-0.55,
4.059,-0.38,1.89,0.28,-2.20,-0.59,-0.55,
4.06,-0.38,1.89,0.28,-2.19,-0.58,-0.54,
4.06,-0.38,1.89,0.28,-2.17,-0.59,-0.54,
4.06,-0.38,1.89,0.28,-2.17,-0.61,-0.54,
4.061,-0.38,1.89,0.28,-2.17,-0.63,-0.55,
4.061,-0.38,1.89,0.28,-2.19,-0.68,-0.56,
4.062,-0.05,1.77,0.49,-2.19,-0.68,-0.56,
4.062,-0.05,1.77,0.49,-2.21,-0.74,-0.57,
4.062,-0.05,1.77,0.49,-2.26,-0.86,-0.60,
4.063,-0.05,1.77,0.49,-2.29,-0.95,-0.61,
4.063,-0.05,1.77,0.49,-2.31,-0.99,-0.63,
4.064,-0.05,1.77,0.49,-2.34,-1.07,-0.65,
4.064,0.21,1.54,0.96,-2.34,-1.07,-0.65,
4.064,0.21,1.54,0.96,-2.38,-1.15,-0.67,
4.065,0.21,1.54,0.96,-2.42,-1.26,-0.70,
4.065,0.21,1.54,0.96,-2.45,-1.33,-0.72,
4.066,0.21,1.54,0.96,-2.46,-1.36,-0.73,
4.073,0.21,1.54,0.96,-2.48,-1.42,-0.74,
4.074,0.04,1.28,1.66,-2.48,-1.42,-0.74,
4.074,0.04,1.28,1.66,-2.50,-1.47,-0.75,
4.074,0.04,1.28,1.66,-2.52,-1.53,-0.75,
4.075,0.04,1.28,1.66,-2.53,-1.56,-0.75,
4.075,0.04,1.28,1.66,-2.52,-1.57,-0.75,
4.077,0.04,1.28,1.66,-2.52,-1.59,-0.74,
4.079,-0.53,1.24,2.12,-2.52,-1.59,-0.74,
4.08,-0.53,1.24,2.12,-2.52,-1.60,-0.73,
4.082,-0.53,1.24,2.12,-2.50,-1.60,-0.71,
4.083,-0.53,1.24,2.12,-2.49,-1.60,-0.69,
4.085,-0.53,1.24,2.12,-2.48,-1.60,-0.67,
4.087,-0.53,1.24,2.12,-2.46,-1.59,-0.65,
4.097,-1.02,1.17,2.43,-2.46,-1.59,-0.65,
4.097,-1.02,1.17,2.43,-2.44,-1.58,-0.62,
4.098,-1.02,1.17,2.43,-2.40,-1.55,-0.58,
4.098,-1.02,1.17,2.43,-2.37,-1.53,-0.55,
4.098,-1.02,1.17,2.43,-2.35,-1.52,-0.53,
4.099,-1.02,1.17,2.43,-2.33,-1.49,-0.49,
4.099,-1.13,1.22,2.27,-2.33,-1.49,-0.49,
4.1,-1.13,1.22,2.27,-2.30,-1.46,-0.46,
4.129,-1.13,1.22,2.27,-2.24,-1.41,-0.38,
4.13,-1.13,1.22,2.27,-2.23,-1.40,-0.36,
4.131,-1.13,1.22,2.27,-2.21,-1.40,-0.34,
4.131,-1.13,1.22,2.27,-2.18,-1.38,-0.29,
4.131,-1.28,1.29,2.10,-2.18,-1.38,-0.29,
4.132,-1.28,1.29,2.10,-2.15,-1.37,-0.26,
4.132,-1.28,1.29,2.10,-2.11,-1.35,-0.20,
4.132,-1.28,1.29,2.10,-2.09,-1.33,-0.17,
4.133,-1.28,1.29,2.10,-2.08,-1.32,-0.15,
4.133,-1.28,1.29,2.10,-2.05,-1.31,-0.12,
4.133,-0.89,1.41,1.84,-2.05,-1.31,-0.12,
4.134,-0.89,1.41,1.84,-2.02,-1.29,-0.09,
4.134,-0.89,1.41,1.84,-1.98,-1.27,-0.05,
4.135,-0.89,1.41,1.84,-1.97,-1.26,-0.05,
4.135,-0.89,1.41,1.84,-1.95,-1.25,-0.03,
4.135,-0.89,1.41,1.84,-1.92,-1.23,-0.01,
4.135,-0.31,1.44,2.00,-1.92,-1.23,-0.01,
4.136,-0.31,1.44,2.00,-1.90,-1.20,0.00,
4.136,-0.31,1.44,2.00,-1.87,-1.17,0.02,
4.136,-0.31,1.44,2.00,-1.84,-1.14,0.03,
4.136,-0.31,1.44,2.00,-1.81,-1.10,0.04,
4.139,-0.31,1.44,2.00,-1.78,-1.06,0.06,
4.14,0.11,1.19,2.44,-1.78,-1.06,0.06,
4.14,0.11,1.19,2.44,-1.75,-1.02,0.06,
4.142,0.11,1.19,2.44,-1.73,-0.98,0.08,
4.143,0.11,1.19,2.44,-1.70,-0.92,0.09,
4.158,0.11,1.19,2.44,-1.67,-0.86,0.10,
4.159,0.11,1.19,2.44,-1.64,-0.78,0.11,
4.159,0.24,0.87,2.54,-1.64,-0.78,0.11,
4.16,0.24,0.87,2.54,-1.62,-0.70,0.12,
4.16,0.24,0.87,2.54,-1.60,-0.60,0.13,
4.161,0.24,0.87,2.54,-1.57,-0.52,0.14,
4.165,0.24,0.87,2.54,-1.55,-0.45,0.15,
4.167,0.24,0.87,2.54,-1.52,-0.37,0.15,
4.168,0.37,0.58,2.26,-1.52,-0.37,0.15,
4.168,0.37,0.58,2.26,-1.49,-0.31,0.15,
4.169,0.37,0.58,2.26,-1.46,-0.24,0.15,
4.169,0.37,0.58,2.26,-1.43,-0.19,0.15,
4.176,0.37,0.58,2.26,-1.40,-0.14,0.15,
4.176,0.37,0.58,2.26,-1.38,-0.10,0.15,
4.176,0.64,0.43,2.24,-1.38,-0.10,0.15,
4.177,0.64,0.43,2.24,-1.35,-0.07,0.15,
4.177,0.64,0.43,2.24,-1.33,-0.04,0.15,
4.177,0.64,0.43,2.24,-1.32,-0.01,0.14,
4.177,0.64,0.43,2.24,-1.30,0.01,0.14,
4.177,0.64,0.43,2.24,-1.29,0.03,0.13,
4.182,0.80,0.02,1.68,-1.29,0.03,0.13,
4.183,0.80,0.02,1.68,-1.29,0.04,0.12,
4.183,0.80,0.02,1.68,-1.29,0.05,0.10,
4.183,0.80,0.02,1.68,-1.29,0.05,0.09,
4.187,0.80,0.02,1.68,-1.30,0.06,0.06,
4.188,0.80,0.02,1.68,-1.31,0.06,0.04,
4.191,1.21,-0.50,0.99,-1.31,0.06,0.04,
4.191,1.21,-0.50,0.99,-1.32,0.06,0.02,
4.21,1.21,-0.50,0.99,-1.33,0.07,-0.01,
4.21,1.21,-0.50,0.99,-1.35,0.07,-0.04,
4.21,1.21,-0.50,0.99,-1.36,0.08,-0.08,
4.211,1.21,-0.50,0.99,-1.38,0.09,-0.11,
4.211,1.61,-1.09,0.51,-1.38,0.09,-0.11,
4.211,1.61,-1.09,0.51,-1.40,0.10,-0.15,
4.212,1.61,-1.09,0.51,-1.42,0.11,-0.19,
4.212,1.61,-1.09,0.51,-1.45,0.12,-0.23,
4.212,1.61,-1.09,0.51,-1.47,0.14,-0.27,
4.212,1.61,-1.09,0.51,-1.49,0.16,-0.31,
4.213,2.05,-1.78,0.26,-1.49,0.16,-0.31,
4.213,2.05,-1.78,0.26,-1.51,0.18,-0.35,
4.217,2.05,-1.78,0.26,-1.54,0.21,-0.40,
4.218,2.05,-1.78,0.26,-1.56,0.23,-0.44,
4.218,2.05,-1.78,0.26,-1.58,0.26,-0.49,
4.219,2.05,-1.78,0.26,-1.60,0.29,-0.53,
4.22,2.22,-2.48,0.22,-1.60,0.29,-0.53,
4.22,2.22,-2.48,0.22,-1.62,0.32,-0.57,
4.225,2.22,-2.48,0.22,-1.64,0.34,-0.62,
4.225,2.22,-2.48,0.22,-1.66,0.36,-0.66,
4.23,2.22,-2.48,0.22,-1.71,0.42,-0.77,
4.23,2.22,-2.48,0.22,-1.71,0.42,-0.77,
4.231,2.22,-2.48,0.22,-1.71,0.42,-0.77,
4.232,2.08,-3.33,0.18,-1.71,0.42,-0.77,
4.233,2.08,-3.33,0.18,-1.75,0.45,-0.83,
4.235,2.08,-3.33,0.18,-1.75,0.45,-0.83,
4.235,2.08,-3.33,0.18,-1.76,0.45,-0.86,
4.237,2.08,-3.33,0.18,-1.77,0.46,-0.89,
4.239,1.84,-3.85,0.24,-1.77,0.46,-0.89,
4.239,1.84,-3.85,0.24,-1.78,0.46,-0.93,
4.245,1.84,-3.85,0.24,-1.79,0.45,-0.97,
4.246,1.84,-3.85,0.24,-1.79,0.45,-0.99,
4.247,1.84,-3.85,0.24,-1.79,0.45,-1.02,
4.251,1.84,-3.85,0.24,-1.79,0.44,-1.05,
4.252,1.66,-4.50,0.39,-1.79,0.44,-1.05,
4.253,1.66,-4.50,0.39,-1.80,0.44,-1.08,
4.253,1.66,-4.50,0.39,-1.80,0.42,-1.12,
4.254,1.66,-4.50,0.39,-1.79,0.42,-1.13,
4.255,1.66,-4.50,0.39,-1.79,0.40,-1.16,
4.291,1.66,-4.50,0.39,-1.78,0.38,-1.18,
4.291,1.33,-5.03,0.55,-1.78,0.38,-1.18,
4.291,1.33,-5.03,0.55,-1.78,0.36,-1.20,
4.291,1.33,-5.03,0.55,-1.77,0.32,-1.22,
4.292,1.33,-5.03,0.55,-1.76,0.29,-1.23,
4.292,1.33,-5.03,0.55,-1.75,0.25,-1.25,
4.292,1.33,-5.03,0.55,-1.73,0.21,-1.26,
4.292,0.91,-5.47,0.77,-1.73,0.21,-1.26,
4.292,0.91,-5.47,0.77,-1.72,0.16,-1.27,
4.292,0.91,-5.47,0.77,-1.71,0.10,-1.27,
4.292,0.91,-5.47,0.77,-1.69,0.04,-1.28,
4.292,0.91,-5.47,0.77,-1.68,-0.01,-1.28,
4.293,0.91,-5.47,0.77,-1.66,-0.07,-1.28,
4.293,0.32,-5.73,0.95,-1.66,-0.07,-1.28,
4.293,0.32,-5.73,0.95,-1.65,-0.12,-1.27,
4.293,0.32,-5.73,0.95,-1.63,-0.18,-1.26,
4.293,0.32,-5.73,0.95,-1.62,-0.23,-1.25,
4.293,0.32,-5.73,0.95,-1.60,-0.29,-1.23,
4.293,0.32,-5.73,0.95,-1.59,-0.35,-1.21,
4.294,-0.31,-5.87,1.06,-1.59,-0.35,-1.21,
4.294,-0.31,-5.87,1.06,-1.58,-0.40,-1.19,
4.294,-0.31,-5.87,1.06,-1.57,-0.46,-1.17,
4.294,-0.31,-5.87,1.06,-1.56,-0.51,-1.14,
4.297,-0.31,-5.87,1.06,-1.55,-0.57,-1.10,
4.297,-0.31,-5.87,1.06,-1.54,-0.62,-1.06,
4.299,-1.14,-5.80,0.99,-1.54,-0.62,-1.06,
4.299,-1.14,-5.80,0.99,-1.54,-0.67,-1.03,
4.302,-1.14,-5.80,0.99,-1.53,-0.75,-0.96,
4.303,-1.14,-5.80,0.99,-1.53,-0.78,-0.94,
4.306,-1.14,-5.80,0.99,-1.53,-0.83,-0.89,
4.307,-1.14,-5.80,0.99,-1.53,-0.88,-0.85,
4.309,-2.11,-5.66,0.93,-1.53,-0.88,-0.85,
4.309,-2.11,-5.66,0.93,-1.53,-0.94,-0.80,
4.312,-2.11,-5.66,0.93,-1.54,-0.99,-0.75,
4.313,-2.11,-5.66,0.93,-1.54,-1.05,-0.71,
4.315,-2.11,-5.66,0.93,-1.55,-1.10,-0.66,
4.317,-2.11,-5.66,0.93,-1.56,-1.14,-0.61,
4.319,-2.76,-5.37,0.79,-1.56,-1.14,-0.61,
4.319,-2.76,-5.37,0.79,-1.57,-1.19,-0.57,
4.323,-2.76,-5.37,0.79,-1.57,-1.23,-0.53,
4.324,-2.76,-5.37,0.79,-1.58,-1.26,-0.49,
4.325,-2.76,-5.37,0.79,-1.58,-1.30,-0.45,
4.327,-2.76,-5.37,0.79,-1.58,-1.32,-0.41,
4.329,-2.96,-4.81,1.01,-1.58,-1.32,-0.41,
4.329,-2.96,-4.81,1.01,-1.57,-1.35,-0.38,
4.332,-2.96,-4.81,1.01,-1.56,-1.37,-0.35,
4.333,-2.96,-4.81,1.01,-1.54,-1.38,-0.33,
4.335,-2.96,-4.81,1.01,-1.52,-1.39,-0.30,
4.337,-2.96,-4.81,1.01,-1.50,-1.39,-0.28,
4.339,-2.88,-4.01,1.59,-1.50,-1.39,-0.28,
4.339,-2.88,-4.01,1.59,-1.47,-1.39,-0.26,
4.342,-2.88,-4.01,1.59,-1.43,-1.37,-0.24,
4.343,-2.88,-4.01,1.59,-1.38,-1.35,-0.21,
4.345,-2.88,-4.01,1.59,-1.34,-1.32,-0.19,
4.347,-2.88,-4.01,1.59,-1.28,-1.29,-0.17,
4.349,-3.21,-3.07,2.57,-1.28,-1.29,-0.17,
4.349,-3.21,-3.07,2.57,-1.21,-1.24,-0.14,
4.352,-3.21,-3.07,2.57,-1.09,-1.16,-0.09,
4.353,-3.21,-3.07,2.57,-1.05,-1.12,-0.07,
4.363,-3.21,-3.07,2.57,-0.94,-1.04,-0.03,
4.364,-3.21,-3.07,2.57,-0.82,-0.95,0.02,
4.393,-4.25,-1.95,4.36,-0.82,-0.95,0.02,
4.394,-4.25,-1.95,4.36,-0.68,-0.84,0.08,
4.394,-4.25,-1.95,4.36,-0.44,-0.67,0.18,
4.395,-4.25,-1.95,4.36,-0.35,-0.60,0.21,
4.395,-4.25,-1.95,4.36,-0.17,-0.46,0.29,
4.396,-4.25,-1.95,4.36,0.03,-0.32,0.37,
4.396,-5.83,-0.85,7.12,0.03,-0.32,0.37,
4.397,-5.83,-0.85,7.12,0.24,-0.16,0.46,
4.397,-5.83,-0.85,7.12,0.58,0.09,0.59,
4.398,-5.83,-0.85,7.12,0.70,0.17,0.64,
4.398,-5.83,-0.85,7.12,0.94,0.35,0.74,
4.398,-5.83,-0.85,7.12,1.18,0.53,0.84,
4.399,-6.74,-0.26,8.97,1.18,0.53,0.84,
4.399,-6.74,-0.26,8.97,1.44,0.71,0.94,
4.4,-6.74,-0.26,8.97,1.83,0.98,1.09,
4.4,-6.74,-0.26,8.97,1.96,1.07,1.14,
4.401,-6.74,-0.26,8.97,2.22,1.24,1.23,
4.401,-6.74,-0.26,8.97,2.49,1.40,1.32,
4.401,-6.53,-0.61,10.24,2.49,1.40,1.32,
4.402,-6.53,-0.61,10.24,2.76,1.55,1.41,
4.402,-6.53,-0.61,10.24,3.16,1.76,1.52,
4.403,-6.53,-0.61,10.24,3.30,1.82,1.56,
4.403,-6.53,-0.61,10.24,3.58,1.93,1.62,
4.404,-6.53,-0.61,10.24,3.87,2.03,1.68,
4.404,-4.79,-2.13,11.26,3.87,2.03,1.68,
4.405,-4.79,-2.13,11.26,4.16,2.11,1.74,
4.405,-4.79,-2.13,11.26,4.62,2.20,1.82,
4.405,-4.79,-2.13,11.26,4.78,2.23,1.84,
4.406,-4.79,-2.13,11.26,5.10,2.26,1.89,
4.418,-4.79,-2.13,11.26,5.44,2.27,1.93,
4.418,-3.01,-4.16,13.73,5.44,2.27,1.93,
4.419,-3.01,-4.16,13.73,5.77,2.26,1.97,
4.419,-3.01,-4.16,13.73,6.28,2.22,2.02,
4.42,-3.01,-4.16,13.73,6.45,2.20,2.03,
4.42,-3.01,-4.16,13.73,6.77,2.16,2.07,
4.42,-3.01,-4.16,13.73,7.08,2.15,2.10,
4.421,-2.25,-6.29,15.01,7.08,2.15,2.10,
4.421,-2.25,-6.29,15.01,7.36,2.17,2.13,
4.423,-2.25,-6.29,15.01,7.74,2.30,2.20,
4.424,-2.25,-6.29,15.01,7.84,2.38,2.22,
4.426,-2.25,-6.29,15.01,8.02,2.57,2.26,
4.427,-2.25,-6.29,15.01,8.15,2.83,2.31,
4.429,-2.82,-7.88,12.35,8.15,2.83,2.31,
4.429,-2.82,-7.88,12.35,8.22,3.15,2.35,
4.432,-2.82,-7.88,12.35,8.26,3.67,2.41,
4.434,-2.82,-7.88,12.35,8.25,3.84,2.43,
4.435,-2.82,-7.88,12.35,8.22,4.16,2.46,
4.437,-2.82,-7.88,12.35,8.17,4.45,2.48,
4.441,-2.49,-8.28,7.24,8.17,4.45,2.48,
4.441,-2.49,-8.28,7.24,8.08,4.70,2.50,
4.442,-2.49,-8.28,7.24,7.89,4.97,2.52,
4.444,-2.49,-8.28,7.24,7.81,5.03,2.52,
4.447,-2.49,-8.28,7.24,7.63,5.11,2.51,
4.447,-2.49,-8.28,7.24,7.40,5.13,2.50,
4.454,-0.85,-7.76,1.33,7.40,5.13,2.50,
4.454,-0.85,-7.76,1.33,7.12,5.10,2.48,
4.454,-0.85,-7.76,1.33,6.63,4.93,2.44,
4.455,-0.85,-7.76,1.33,6.45,4.84,2.42,
4.457,-0.85,-7.76,1.33,6.07,4.61,2.37,
4.459,-0.85,-7.76,1.33,5.67,4.32,2.33,
4.459,0.64,-6.98,-5.69,5.67,4.32,2.33,
4.464,0.64,-6.98,-5.69,5.26,3.99,2.28,
4.465,0.64,-6.98,-5.69,4.62,3.40,2.23,
4.465,0.64,-6.98,-5.69,4.40,3.18,2.21,
4.465,0.64,-6.98,-5.69,3.97,2.71,2.17,
4.467,0.64,-6.98,-5.69,3.53,2.22,2.15,
4.469,0.99,-6.47,-10.52,3.53,2.22,2.15,
4.47,0.99,-6.47,-10.52,3.09,1.69,2.13,
4.474,0.99,-6.47,-10.52,2.45,0.84,2.11,
4.474,0.99,-6.47,-10.52,2.25,0.55,2.11,
4.476,0.99,-6.47,-10.52,1.85,-0.04,2.10,
4.478,0.99,-6.47,-10.52,1.47,-0.63,2.08,
4.48,1.34,-5.65,-12.76,1.47,-0.63,2.08,
4.48,1.34,-5.65,-12.76,1.11,-1.22,2.07,
4.482,1.34,-5.65,-12.76,0.60,-2.09,2.05,
4.483,1.34,-5.65,-12.76,0.44,-2.38,2.04,
4.485,1.34,-5.65,-12.76,0.13,-2.95,2.02,
4.487,1.34,-5.65,-12.76,-0.16,-3.51,2.00,
4.493,2.59,-4.56,-13.96,-0.16,-3.51,2.00,
4.494,2.59,-4.56,-13.96,-0.43,-4.06,1.97,
4.494,2.59,-4.56,-13.96,-0.81,-4.83,1.93,
4.494,2.59,-4.56,-13.96,-0.92,-5.07,1.92,
4.497,2.59,-4.56,-13.96,-1.15,-5.54,1.89,
4.498,2.59,-4.56,-13.96,-1.35,-5.96,1.86,
4.499,3.09,-3.40,-13.51,-1.35,-5.96,1.86,
4.499,3.09,-3.40,-13.51,-1.54,-6.35,1.83,
4.504,3.09,-3.40,-13.51,-1.82,-6.87,1.77,
4.505,3.09,-3.40,-13.51,-1.91,-7.03,1.75,
4.547,3.09,-3.40,-13.51,-2.09,-7.31,1.70,
4.548,3.09,-3.40,-13.51,-2.25,-7.57,1.65,
4.549,3.62,-3.23,-13.10,-2.25,-7.57,1.65,
4.549,3.62,-3.23,-13.10,-2.40,-7.81,1.59,
4.549,3.62,-3.23,-13.10,-2.60,-8.11,1.48,
4.55,3.62,-3.23,-13.10,-2.65,-8.21,1.45,
4.55,3.62,-3.23,-13.10,-2.74,-8.37,1.38,
4.55,3.62,-3.23,-13.10,-2.81,-8.51,1.30,
4.551,3.46,-3.49,-10.65,-2.81,-8.51,1.30,
4.551,3.46,-3.49,-10.65,-2.85,-8.61,1.22,
4.552,3.46,-3.49,-10.65,-2.84,-8.67,1.06,
4.552,3.46,-3.49,-10.65,-2.81,-8.69,0.99,
4.576,3.46,-3.49,-10.65,-2.63,-8.76,0.82,
4.576,3.46,-3.49,-10.65,-2.31,-8.87,0.60,
4.577,4.91,-5.75,-0.17,-2.31,-8.87,0.60,
4.577,4.91,-5.75,-0.17,-1.84,-8.99,0.34,
4.577,4.91,-5.75,-0.17,-0.92,-9.08,-0.08,
4.578,4.91,-5.75,-0.17,-0.58,-9.06,-0.23,
4.578,4.91,-5.75,-0.17,0.13,-8.94,-0.52,
4.579,4.91,-5.75,-0.17,0.82,-8.69,-0.78,
4.579,5.65,-9.62,17.15,0.82,-8.69,-0.78,
4.579,5.65,-9.62,17.15,1.45,-8.31,-1.02,
4.579,5.65,-9.62,17.15,2.24,-7.50,-1.29,
4.58,5.65,-9.62,17.15,2.46,-7.17,-1.36,
4.58,5.65,-9.62,17.15,2.83,-6.47,-1.48,
4.58,5.65,-9.62,17.15,3.12,-5.71,-1.55,
4.581,-0.22,-11.49,9.83,3.12,-5.71,-1.55,
4.581,-0.22,-11.49,9.83,3.34,-4.91,-1.60,
4.581,-0.22,-11.49,9.83,3.54,-3.69,-1.60,
4.582,-0.22,-11.49,9.83,3.58,-3.28,-1.58,
4.582,-0.22,-11.49,9.83,3.62,-2.49,-1.53,
4.582,-0.22,-11.49,9.83,3.62,-1.75,-1.46,
4.582,-5.22,-11.54,-1.84,3.62,-1.75,-1.46,
4.583,-5.22,-11.54,-1.84,3.59,-1.07,-1.36,
4.583,-5.22,-11.54,-1.84,3.52,-0.21,-1.21,
4.583,-5.22,-11.54,-1.84,3.51,0.04,-1.16,
4.584,-5.22,-11.54,-1.84,3.48,0.45,-1.07,
4.584,-5.22,-11.54,-1.84,3.46,0.75,-0.99,
4.584,-5.94,-10.72,-6.10,3.46,0.75,-0.99,
4.585,-5.94,-10.72,-6.10,3.48,0.95,-0.92,
4.585,-5.94,-10.72,-6.10,3.55,1.08,-0.86,
4.585,-5.94,-10.72,-6.10,3.59,1.09,-0.84,
4.585,-5.94,-10.72,-6.10,3.69,1.04,-0.82,
4.586,-5.94,-10.72,-6.10,3.80,0.95,-0.81,
4.586,-3.08,-8.51,-2.68,3.80,0.95,-0.81,
4.586,-3.08,-8.51,-2.68,3.94,0.83,-0.82,
4.586,-3.08,-8.51,-2.68,4.14,0.61,-0.83,
4.587,-3.08,-8.51,-2.68,4.21,0.53,-0.84,
4.587,-3.08,-8.51,-2.68,4.34,0.39,-0.85,
4.587,-3.08,-8.51,-2.68,4.46,0.26,-0.86,
4.595,-1.34,-6.09,-1.25,4.46,0.26,-0.86,
4.596,-1.34,-6.09,-1.25,4.56,0.16,-0.86,
4.596,-1.34,-6.09,-1.25,4.67,0.09,-0.85,
4.597,-1.34,-6.09,-1.25,4.69,0.09,-0.85,
4.602,-1.34,-6.09,-1.25,4.73,0.12,-0.84,
4.602,-1.34,-6.09,-1.25,4.76,0.19,-0.82,
4.603,-1.28,-3.73,-3.33,4.76,0.19,-0.82,
4.603,-1.28,-3.73,-3.33,4.77,0.31,-0.79,
4.603,-1.28,-3.73,-3.33,4.76,0.55,-0.75,
4.605,-1.28,-3.73,-3.33,4.75,0.65,-0.73,
4.606,-1.28,-3.73,-3.33,4.73,0.85,-0.70,
4.607,-1.28,-3.73,-3.33,4.71,1.06,-0.66,
4.61,-1.77,-1.66,-5.48,4.71,1.06,-0.66,
4.611,-1.77,-1.66,-5.48,4.69,1.26,-0.62,
4.612,-1.77,-1.66,-5.48,4.65,1.55,-0.56,
4.613,-1.77,-1.66,-5.48,4.64,1.63,-0.54,
4.615,-1.77,-1.66,-5.48,4.62,1.79,-0.51,
4.617,-1.77,-1.66,-5.48,4.59,1.91,-0.48,
4.62,-1.36,0.43,-6.34,4.59,1.91,-0.48,
4.62,-1.36,0.43,-6.34,4.57,2.00,-0.45,
4.628,-1.36,0.43,-6.34,4.54,2.07,-0.41,
4.629,-1.36,0.43,-6.34,4.53,2.09,-0.40,
4.629,-1.36,0.43,-6.34,4.51,2.09,-0.38,
4.629,-1.36,0.43,-6.34,4.49,2.06,-0.36,
4.629,-0.58,2.56,-7.22,4.49,2.06,-0.36,
4.63,-0.58,2.56,-7.22,4.48,2.01,-0.35,
4.633,-0.58,2.56,-7.22,4.44,1.88,-0.33,
4.637,-0.58,2.56,-7.22,4.43,1.83,-0.32,
4.638,-0.58,2.56,-7.22,4.40,1.73,-0.31,
4.668,-0.58,2.56,-7.22,4.36,1.61,-0.29,
4.669,0.31,4.63,-8.01,4.36,1.61,-0.29,
4.67,0.31,4.63,-8.01,4.33,1.49,-0.28,
4.67,0.31,4.63,-8.01,4.27,1.29,-0.26,
4.67,0.31,4.63,-8.01,4.25,1.23,-0.25,
4.67,0.31,4.63,-8.01,4.21,1.11,-0.22,
4.671,0.31,4.63,-8.01,4.17,1.02,-0.19,
4.671,0.70,6.84,-8.48,4.17,1.02,-0.19,
4.671,0.70,6.84,-8.48,4.12,0.94,-0.16,
4.671,0.70,6.84,-8.48,4.03,0.84,-0.09,
4.671,0.70,6.84,-8.48,4.00,0.81,-0.07,
4.672,0.70,6.84,-8.48,3.92,0.77,-0.02,
4.672,0.70,6.84,-8.48,3.83,0.74,0.02,
4.672,1.03,8.10,-8.68,3.83,0.74,0.02,
4.672,1.03,8.10,-8.68,3.75,0.72,0.08,
4.673,1.03,8.10,-8.68,3.61,0.72,0.16,
4.673,1.03,8.10,-8.68,3.56,0.72,0.19,
4.673,1.03,8.10,-8.68,3.47,0.74,0.25,
4.673,1.03,8.10,-8.68,3.38,0.75,0.31,
4.673,1.14,8.77,-8.40,3.38,0.75,0.31,
4.673,1.14,8.77,-8.40,3.28,0.77,0.36,
4.674,1.14,8.77,-8.40,3.15,0.80,0.46,
4.674,1.14,8.77,-8.40,3.10,0.81,0.49,
4.676,1.14,8.77,-8.40,3.02,0.82,0.55,
4.684,1.14,8.77,-8.40,2.94,0.82,0.61,
4.685,1.89,8.49,-7.79,2.94,0.82,0.61,
4.685,1.89,8.49,-7.79,2.86,0.83,0.67,
4.685,1.89,8.49,-7.79,2.76,0.82,0.75,
4.685,1.89,8.49,-7.79,2.73,0.82,0.78,
4.685,1.89,8.49,-7.79,2.67,0.82,0.83,
4.702,1.89,8.49,-7.79,2.61,0.82,0.88,
4.702,2.50,8.17,-7.03,2.61,0.82,0.88,
4.702,2.50,8.17,-7.03,2.55,0.84,0.92,
4.722,2.50,8.17,-7.03,2.47,0.87,0.99,
4.722,2.50,8.17,-7.03,2.43,0.89,1.01,
4.722,2.50,8.17,-7.03,2.37,0.92,1.05,
4.723,2.50,8.17,-7.03,2.31,0.96,1.09,
4.723,3.20,7.17,-6.64,2.31,0.96,1.09,
4.724,3.20,7.17,-6.64,2.25,1.01,1.12,
4.724,3.20,7.17,-6.64,2.15,1.10,1.16,
4.724,3.20,7.17,-6.64,2.11,1.13,1.18,
4.724,3.20,7.17,-6.64,2.05,1.20,1.20,
4.724,3.20,7.17,-6.64,1.97,1.28,1.23,
4.725,3.59,5.98,-5.93,1.97,1.28,1.23,
4.725,3.59,5.98,-5.93,1.89,1.36,1.25,
4.725,3.59,5.98,-5.93,1.78,1.48,1.27,
4.725,3.59,5.98,-5.93,1.74,1.52,1.28,
4.725,3.59,5.98,-5.93,1.65,1.58,1.30,
4.726,3.59,5.98,-5.93,1.57,1.64,1.31,
4.726,3.71,4.02,-5.16,1.57,1.64,1.31,
4.726,3.71,4.02,-5.16,1.48,1.67,1.32,
4.726,3.71,4.02,-5.16,1.34,1.67,1.33,
4.727,3.71,4.02,-5.16,1.29,1.67,1.34,
4.727,3.71,4.02,-5.16,1.19,1.64,1.34,
4.727,3.71,4.02,-5.16,1.09,1.60,1.34,
4.731,3.76,2.22,-4.68,1.09,1.60,1.34,
4.731,3.76,2.22,-4.68,0.99,1.55,1.34,
4.733,3.76,2.22,-4.68,0.84,1.43,1.33,
4.734,3.76,2.22,-4.68,0.79,1.38,1.33,
4.735,3.76,2.22,-4.68,0.70,1.28,1.31,
4.738,3.76,2.22,-4.68,0.60,1.16,1.29,
4.74,3.98,0.86,-4.66,0.60,1.16,1.29,
4.741,3.98,0.86,-4.66,0.51,1.03,1.26,
4.742,3.98,0.86,-4.66,0.37,0.82,1.21,
4.743,3.98,0.86,-4.66,0.32,0.76,1.19,
4.745,3.98,0.86,-4.66,0.24,0.63,1.14,
4.747,3.98,0.86,-4.66,0.15,0.51,1.09,
4.749,4.66,-0.34,-5.54,0.15,0.51,1.09,
4.749,4.66,-0.34,-5.54,0.08,0.41,1.03,
4.752,4.66,-0.34,-5.54,-0.02,0.29,0.93,
4.754,4.66,-0.34,-5.54,-0.05,0.26,0.90,
4.756,4.66,-0.34,-5.54,-0.10,0.22,0.82,
4.757,4.66,-0.34,-5.54,-0.14,0.19,0.73,
4.76,5.29,-0.38,-5.99,-0.14,0.19,0.73,
4.761,5.29,-0.38,-5.99,-0.17,0.19,0.64,
4.762,5.29,-0.38,-5.99,-0.20,0.21,0.50,
4.763,5.29,-0.38,-5.99,-0.20,0.22,0.45,
4.765,5.29,-0.38,-5.99,-0.21,0.26,0.35,
4.767,5.29,-0.38,-5.99,-0.21,0.30,0.25,
4.769,6.09,-0.06,-5.51,-0.21,0.30,0.25,
4.769,6.09,-0.06,-5.51,-0.21,0.35,0.15,
4.772,6.09,-0.06,-5.51,-0.21,0.45,0.01,
4.774,6.09,-0.06,-5.51,-0.22,0.48,-0.03,
4.776,6.09,-0.06,-5.51,-0.23,0.55,-0.11,
4.777,6.09,-0.06,-5.51,-0.24,0.63,-0.17,
4.779,5.71,0.95,-4.90,-0.24,0.63,-0.17,
4.78,5.71,0.95,-4.90,-0.26,0.72,-0.23,
4.782,5.71,0.95,-4.90,-0.28,0.84,-0.31,
4.783,5.71,0.95,-4.90,-0.28,0.88,-0.33,
4.785,5.71,0.95,-4.90,-0.31,0.96,-0.36,
4.793,5.71,0.95,-4.90,-0.32,1.03,-0.39,
4.793,5.13,1.65,-3.83,-0.32,1.03,-0.39,
4.794,5.13,1.65,-3.83,-0.33,1.08,-0.41,
4.794,5.13,1.65,-3.83,-0.34,1.13,-0.44,
4.794,5.13,1.65,-3.83,-0.34,1.14,-0.45,
4.795,5.13,1.65,-3.83,-0.34,1.13,-0.46,
4.797,5.13,1.65,-3.83,-0.33,1.11,-0.47,
4.799,4.45,2.04,-2.44,-0.33,1.11,-0.47,
4.8,4.45,2.04,-2.44,-0.31,1.08,-0.48,
4.803,4.45,2.04,-2.44,-0.28,1.00,-0.49,
4.838,4.45,2.04,-2.44,-0.27,0.96,-0.50,
4.839,4.45,2.04,-2.44,-0.24,0.88,-0.51,
4.839,4.45,2.04,-2.44,-0.21,0.80,-0.52,
4.839,3.74,2.28,-1.06,-0.21,0.80,-0.52,
4.839,3.74,2.28,-1.06,-0.18,0.72,-0.53,
4.84,3.74,2.28,-1.06,-0.13,0.60,-0.55,
4.84,3.74,2.28,-1.06,-0.12,0.57,-0.55,
4.84,3.74,2.28,-1.06,-0.10,0.51,-0.56,
4.84,3.74,2.28,-1.06,-0.09,0.46,-0.57,
4.84,2.57,2.41,-0.68,-0.09,0.46,-0.57,
4.84,2.57,2.41,-0.68,-0.08,0.42,-0.57,
4.84,2.57,2.41,-0.68,-0.10,0.39,-0.59,
4.841,2.57,2.41,-0.68,-0.11,0.39,-0.59,
4.841,2.57,2.41,-0.68,-0.13,0.37,-0.60,
4.841,2.57,2.41,-0.68,-0.17,0.36,-0.61,
4.841,1.42,2.55,-1.12,-0.17,0.36,-0.61,
4.841,1.42,2.55,-1.12,-0.22,0.34,-0.62,
4.841,1.42,2.55,-1.12,-0.31,0.28,-0.64,
4.841,1.42,2.55,-1.12,-0.34,0.25,-0.64,
4.842,1.42,2.55,-1.12,-0.42,0.19,-0.66,
4.842,1.42,2.55,-1.12,-0.50,0.10,-0.68,
4.842,0.60,2.69,-1.50,-0.50,0.10,-0.68,
4.842,0.60,2.69,-1.50,-0.58,-0.01,-0.69,
4.842,0.60,2.69,-1.50,-0.72,-0.20,-0.72,
4.846,0.60,2.69,-1.50,-0.76,-0.28,-0.73,
4.846,0.60,2.69,-1.50,-0.86,-0.43,-0.76,
4.849,0.60,2.69,-1.50,-0.95,-0.58,-0.79,
4.849,-0.48,3.25,-1.45,-0.95,-0.58,-0.79,
4.849,-0.48,3.25,-1.45,-1.05,-0.72,-0.81,
4.852,-0.48,3.25,-1.45,-1.19,-0.92,-0.85,
4.853,-0.48,3.25,-1.45,-1.24,-0.98,-0.86,
4.855,-0.48,3.25,-1.45,-1.34,-1.08,-0.89,
4.857,-0.48,3.25,-1.45,-1.43,-1.15,-0.91,
4.873,-1.93,3.68,-0.75,-1.43,-1.15,-0.91,
4.874,-1.93,3.68,-0.75,-1.52,-1.20,-0.93,
4.874,-1.93,3.68,-0.75,-1.61,-1.27,-0.95,
4.874,-1.93,3.68,-0.75,-1.63,-1.29,-0.95,
4.874,-1.93,3.68,-0.75,-1.63,-1.33,-0.95,
4.874,-1.93,3.68,-0.75,-1.57,-1.36,-0.95,
4.875,-4.34,4.20,5.66,-1.57,-1.36,-0.95,
4.875,-4.34,4.20,5.66,-1.44,-1.39,-0.93,
4.875,-4.34,4.20,5.66,-1.12,-1.40,-0.88,
4.876,-4.34,4.20,5.66,-0.99,-1.38,-0.85,
4.876,-4.34,4.20,5.66,-0.71,-1.29,-0.80,
4.88,-4.34,4.20,5.66,-0.43,-1.11,-0.74,
4.88,-8.41,3.67,20.80,-0.43,-1.11,-0.74,
4.88,-8.41,3.67,20.80,-0.21,-0.79,-0.69,
4.882,-8.41,3.67,20.80,-0.06,-0.07,-0.63,
4.883,-8.41,3.67,20.80,-0.07,0.22,-0.61,
4.885,-8.41,3.67,20.80,-0.17,0.85,-0.59,
4.894,-8.41,3.67,20.80,-0.38,1.48,-0.58,
4.895,-9.38,-1.73,11.27,-0.38,1.48,-0.58,
4.895,-9.38,-1.73,11.27,-0.67,2.07,-0.58,
4.896,-9.38,-1.73,11.27,-1.21,2.74,-0.58,
4.896,-9.38,-1.73,11.27,-1.40,2.88,-0.58,
4.896,-9.38,-1.73,11.27,-1.77,3.02,-0.59,
4.898,-9.38,-1.73,11.27,-2.12,2.97,-0.61,
4.899,-4.99,-7.60,-5.66,-2.12,2.97,-0.61,
4.899,-4.99,-7.60,-5.66,-2.43,2.73,-0.63,
4.909,-4.99,-7.60,-5.66,-2.79,2.05,-0.66,
4.91,-4.99,-7.60,-5.66,-2.87,1.75,-0.67,
4.91,-4.99,-7.60,-5.66,-3.00,1.09,-0.68,
4.911,-4.99,-7.60,-5.66,-3.07,0.36,-0.68,
4.911,-0.59,-10.06,-3.60,-3.07,0.36,-0.68,
4.911,-0.59,-10.06,-3.60,-3.09,-0.39,-0.67,
4.913,-0.59,-10.06,-3.60,-3.10,-1.46,-0.62,
4.913,-0.59,-10.06,-3.60,-3.10,-1.78,-0.61,
4.915,-0.59,-10.06,-3.60,-3.10,-2.33,-0.57,
4.917,-0.59,-10.06,-3.60,-3.12,-2.76,-0.53,
4.927,1.17,-10.22,-1.90,-3.12,-2.76,-0.53,
4.928,1.17,-10.22,-1.90,-3.16,-3.04,-0.49,
4.928,1.17,-10.22,-1.90,-3.23,-3.25,-0.45,
4.928,1.17,-10.22,-1.90,-3.25,-3.26,-0.44,
4.928,1.17,-10.22,-1.90,-3.29,-3.21,-0.43,
4.928,1.17,-10.22,-1.90,-3.32,-3.08,-0.43,
4.929,2.46,-9.27,-6.10,-3.32,-3.08,-0.43,
4.929,2.46,-9.27,-6.10,-3.32,-2.89,-0.44,
4.932,2.46,-9.27,-6.10,-3.28,-2.55,-0.49,
4.933,2.46,-9.27,-6.10,-3.25,-2.41,-0.51,
4.935,2.46,-9.27,-6.10,-3.19,-2.14,-0.56,
4.971,2.46,-9.27,-6.10,-3.11,-1.86,-0.63,
4.972,3.48,-7.17,-3.77,-3.11,-1.86,-0.63,
4.972,3.48,-7.17,-3.77,-3.02,-1.57,-0.70,
4.972,3.48,-7.17,-3.77,-2.88,-1.12,-0.83,
4.972,3.48,-7.17,-3.77,-2.83,-0.98,-0.87,
4.973,3.48,-7.17,-3.77,-2.75,-0.69,-0.96,
4.973,3.48,-7.17,-3.77,-2.67,-0.42,-1.06,
4.973,4.00,-5.15,-1.44,-2.67,-0.42,-1.06,
4.973,4.00,-5.15,-1.44,-2.59,-0.17,-1.16,
4.974,4.00,-5.15,-1.44,-2.48,0.15,-1.31,
4.974,4.00,-5.15,-1.44,-2.45,0.24,-1.37,
4.974,4.00,-5.15,-1.44,-2.38,0.39,-1.47,
4.974,4.00,-5.15,-1.44,-2.32,0.51,-1.56,
4.974,4.16,-3.80,-0.39,-2.32,0.51,-1.56,
4.975,4.16,-3.80,-0.39,-2.26,0.58,-1.65,
4.975,4.16,-3.80,-0.39,-2.18,0.64,-1.75,
4.975,4.16,-3.80,-0.39,-2.15,0.65,-1.78,
4.975,4.16,-3.80,-0.39,-2.11,0.65,-1.82,
