
time,ax,ay,az,wx,wy,wz,
0.002,-0.62,-0.31,-1.06,-0.20,-2.14,0.37,
0.002,-0.58,-0.55,-1.26,-0.20,-2.14,0.37,
0.003,-0.58,-0.55,-1.26,-0.20,-2.21,0.38,
0.003,-0.58,-0.55,-1.26,-0.21,-2.28,0.40,
0.004,-0.58,-0.55,-1.26,-0.21,-2.39,0.41,
0.015,-0.58,-0.55,-1.26,-0.21,-2.43,0.42,
0.015,-0.58,-0.55,-1.26,-0.22,-2.49,0.43,
0.016,-0.55,-0.80,-1.33,-0.22,-2.49,0.43,
0.016,-0.55,-0.80,-1.33,-0.22,-2.55,0.44,
0.016,-0.55,-0.80,-1.33,-0.22,-2.61,0.45,
0.017,-0.55,-0.80,-1.33,-0.23,-2.68,0.46,
0.017,-0.55,-0.80,-1.33,-0.23,-2.70,0.46,
0.017,-0.55,-0.80,-1.33,-0.22,-2.74,0.47,
0.019,-0.35,-0.98,-1.05,-0.22,-2.74,0.47,
0.019,-0.35,-0.98,-1.05,-0.22,-2.78,0.48,
0.02,-0.35,-0.98,-1.05,-0.22,-2.82,0.48,
0.026,-0.35,-0.98,-1.05,-0.21,-2.88,0.49,
0.031,-0.35,-0.98,-1.05,-0.21,-2.90,0.50,
0.04,-0.35,-0.98,-1.05,-0.20,-2.95,0.50,
0.043,-0.09,-1.07,-0.56,-0.20,-2.95,0.50,
0.043,-0.09,-1.07,-0.56,-0.19,-3.01,0.50,
0.077,-0.09,-1.07,-0.56,-0.18,-3.06,0.51,
0.078,-0.09,-1.07,-0.56,-0.16,-3.14,0.51,
0.078,-0.09,-1.07,-0.56,-0.16,-3.17,0.51,
0.078,-0.09,-1.07,-0.56,-0.14,-3.22,0.51,
0.079,0.08,-1.05,-0.29,-0.14,-3.22,0.51,
0.079,0.08,-1.05,-0.29,-0.13,-3.27,0.51,
0.079,0.08,-1.05,-0.29,-0.12,-3.32,0.50,
0.079,0.08,-1.05,-0.29,-0.10,-3.37,0.50,
0.08,0.08,-1.05,-0.29,-0.09,-3.38,0.50,
0.08,0.08,-1.05,-0.29,-0.08,-3.41,0.49,
0.08,0.07,-1.09,-0.43,-0.08,-3.41,0.49,
0.081,0.07,-1.09,-0.43,-0.07,-3.43,0.49,
0.081,0.07,-1.09,-0.43,-0.05,-3.45,0.48,
0.081,0.07,-1.09,-0.43,-0.04,-3.47,0.48,
0.081,0.07,-1.09,-0.43,-0.04,-3.47,0.48,
0.082,0.07,-1.09,-0.43,-0.03,-3.48,0.47,
0.082,0.00,-1.12,-0.67,-0.03,-3.48,0.47,
0.082,0.00,-1.12,-0.67,-0.02,-3.47,0.46,
0.083,0.00,-1.12,-0.67,-0.01,-3.44,0.46,
0.083,0.00,-1.12,-0.67,-0.00,-3.36,0.45,
0.083,0.00,-1.12,-0.67,-0.00,-3.32,0.45,
0.083,0.00,-1.12,-0.67,0.01,-3.25,0.45,
0.084,-0.35,-1.02,-0.85,0.01,-3.25,0.45,
0.084,-0.35,-1.02,-0.85,0.01,-3.19,0.45,
0.084,-0.35,-1.02,-0.85,0.01,-3.12,0.45,
0.085,-0.35,-1.02,-0.85,0.02,-3.05,0.45,
0.085,-0.35,-1.02,-0.85,0.02,-3.03,0.45,
0.085,-0.35,-1.02,-0.85,0.01,-2.99,0.46,
0.086,-0.40,-0.69,-1.47,0.01,-2.99,0.46,
0.086,-0.40,-0.69,-1.47,0.01,-2.96,0.46,
0.086,-0.40,-0.69,-1.47,-0.01,-2.95,0.47,
0.086,-0.40,-0.69,-1.47,-0.03,-2.95,0.48,
0.087,-0.40,-0.69,-1.47,-0.05,-2.95,0.48,
0.087,-0.40,-0.69,-1.47,-0.08,-2.96,0.48,
0.091,-0.51,-0.71,-1.51,-0.08,-2.96,0.48,
0.091,-0.51,-0.71,-1.51,-0.10,-2.97,0.48,
0.097,-0.51,-0.71,-1.51,-0.13,-2.98,0.47,
0.098,-0.51,-0.71,-1.51,-0.17,-2.99,0.47,
0.101,-0.51,-0.71,-1.51,-0.19,-2.98,0.47,
0.102,-0.51,-0.71,-1.51,-0.22,-2.98,0.47,
0.115,-0.57,-0.95,-1.42,-0.22,-2.98,0.47,
0.115,-0.57,-0.95,-1.42,-0.24,-2.98,0.47,
0.116,-0.57,-0.95,-1.42,-0.27,-2.97,0.47,
0.116,-0.57,-0.95,-1.42,-0.30,-2.94,0.47,
0.116,-0.57,-0.95,-1.42,-0.32,-2.93,0.47,
0.116,-0.57,-0.95,-1.42,-0.34,-2.91,0.47,
0.117,-0.51,-1.09,-1.28,-0.34,-2.91,0.47,
0.117,-0.51,-1.09,-1.28,-0.36,-2.88,0.47,
0.117,-0.51,-1.09,-1.28,-0.39,-2.85,0.47,
0.118,-0.51,-1.09,-1.28,-0.43,-2.81,0.48,
0.118,-0.51,-1.09,-1.28,-0.44,-2.80,0.48,
0.118,-0.51,-1.09,-1.28,-0.46,-2.77,0.49,
0.119,-0.39,-1.00,-0.90,-0.46,-2.77,0.49,
0.119,-0.39,-1.00,-0.90,-0.48,-2.74,0.50,
0.145,-0.39,-1.00,-0.90,-0.53,-2.68,0.53,
0.145,-0.39,-1.00,-0.90,-0.53,-2.68,0.53,
0.146,-0.39,-1.00,-0.90,-0.53,-2.68,0.53,
0.146,-0.39,-1.00,-0.90,-0.55,-2.66,0.54,
0.147,-0.18,-0.79,-0.39,-0.55,-2.66,0.54,
0.147,-0.18,-0.79,-0.39,-0.56,-2.66,0.55,
0.147,-0.18,-0.79,-0.39,-0.58,-2.65,0.56,
0.148,-0.18,-0.79,-0.39,-0.60,-2.64,0.57,
0.149,-0.18,-0.79,-0.39,-0.60,-2.64,0.57,
0.149,-0.18,-0.79,-0.39,-0.62,-2.64,0.57,
0.149,0.23,-0.73,-0.14,-0.62,-2.64,0.57,
0.15,0.23,-0.73,-0.14,-0.63,-2.64,0.57,
0.15,0.23,-0.73,-0.14,-0.64,-2.64,0.57,
0.151,0.23,-0.73,-0.14,-0.66,-2.65,0.56,
0.151,0.23,-0.73,-0.14,-0.67,-2.65,0.56,
0.151,0.23,-0.73,-0.14,-0.68,-2.66,0.55,
0.152,0.50,-0.80,-0.11,-0.68,-2.66,0.55,
0.152,0.50,-0.80,-0.11,-0.69,-2.67,0.54,
0.153,0.50,-0.80,-0.11,-0.70,-2.67,0.53,
0.153,0.50,-0.80,-0.11,-0.72,-2.67,0.52,
0.154,0.50,-0.80,-0.11,-0.72,-2.67,0.52,
0.173,0.50,-0.80,-0.11,-0.73,-2.66,0.51,
0.173,0.28,-0.81,-0.17,-0.73,-2.66,0.51,
0.174,0.28,-0.81,-0.17,-0.74,-2.65,0.51,
0.174,0.28,-0.81,-0.17,-0.75,-2.62,0.51,
0.174,0.28,-0.81,-0.17,-0.77,-2.58,0.50,
0.174,0.28,-0.81,-0.17,-0.78,-2.57,0.50,
0.175,0.28,-0.81,-0.17,-0.79,-2.54,0.50,
0.175,-0.08,-0.65,-0.59,-0.79,-2.54,0.50,
0.175,-0.08,-0.65,-0.59,-0.81,-2.51,0.51,
0.197,-0.08,-0.65,-0.59,-0.82,-2.49,0.51,
0.198,-0.08,-0.65,-0.59,-0.84,-2.46,0.51,
0.199,-0.08,-0.65,-0.59,-0.85,-2.46,0.51,
0.199,-0.08,-0.65,-0.59,-0.87,-2.45,0.51,
0.199,-0.29,-0.51,-1.05,-0.87,-2.45,0.51,
0.199,-0.29,-0.51,-1.05,-0.89,-2.44,0.52,
0.2,-0.29,-0.51,-1.05,-0.91,-2.44,0.52,
0.2,-0.29,-0.51,-1.05,-0.94,-2.45,0.53,
0.2,-0.29,-0.51,-1.05,-0.95,-2.46,0.53,
0.2,-0.29,-0.51,-1.05,-0.97,-2.47,0.54,
0.201,-0.41,-0.63,-1.16,-0.97,-2.47,0.54,
0.201,-0.41,-0.63,-1.16,-0.98,-2.49,0.54,
0.201,-0.41,-0.63,-1.16,-1.00,-2.52,0.54,
0.201,-0.41,-0.63,-1.16,-1.02,-2.56,0.54,
0.202,-0.41,-0.63,-1.16,-1.03,-2.58,0.54,
0.202,-0.41,-0.63,-1.16,-1.04,-2.61,0.54,
0.202,-0.23,-0.88,-0.98,-1.04,-2.61,0.54,
0.231,-0.23,-0.88,-0.98,-1.05,-2.63,0.54,
0.232,-0.23,-0.88,-0.98,-1.06,-2.66,0.54,
0.232,-0.23,-0.88,-0.98,-1.06,-2.68,0.53,
0.233,-0.23,-0.88,-0.98,-1.07,-2.68,0.53,
0.233,-0.23,-0.88,-0.98,-1.07,-2.69,0.52,
0.233,0.09,-1.12,-0.61,-1.07,-2.69,0.52,
0.233,0.09,-1.12,-0.61,-1.06,-2.68,0.51,
0.234,0.09,-1.12,-0.61,-1.06,-2.68,0.51,
0.234,0.09,-1.12,-0.61,-1.05,-2.67,0.49,
0.234,0.09,-1.12,-0.61,-1.04,-2.66,0.49,
0.234,0.09,-1.12,-0.61,-1.03,-2.65,0.48,
0.235,0.50,-0.95,-0.12,-1.03,-2.65,0.48,
0.235,0.50,-0.95,-0.12,-1.02,-2.64,0.47,
0.235,0.50,-0.95,-0.12,-1.01,-2.63,0.46,
0.235,0.50,-0.95,-0.12,-0.98,-2.60,0.44,
0.236,0.50,-0.95,-0.12,-0.98,-2.59,0.43,
0.236,0.50,-0.95,-0.12,-0.96,-2.57,0.42,
0.236,0.85,-0.59,0.22,-0.96,-2.57,0.42,
0.236,0.85,-0.59,0.22,-0.95,-2.54,0.41,
0.237,0.85,-0.59,0.22,-0.93,-2.51,0.39,
0.237,0.85,-0.59,0.22,-0.90,-2.45,0.36,
0.242,0.85,-0.59,0.22,-0.89,-2.43,0.34,
0.243,0.85,-0.59,0.22,-0.86,-2.37,0.32,
0.243,1.16,-0.15,0.27,-0.86,-2.37,0.32,
0.243,1.16,-0.15,0.27,-0.85,-2.32,0.29,
0.244,1.16,-0.15,0.27,-0.83,-2.26,0.27,
0.244,1.16,-0.15,0.27,-0.82,-2.20,0.23,
0.251,1.16,-0.15,0.27,-0.82,-2.18,0.22,
0.252,1.16,-0.15,0.27,-0.82,-2.15,0.20,
0.252,1.27,0.34,-0.01,-0.82,-2.15,0.20,
0.252,1.27,0.34,-0.01,-0.82,-2.10,0.18,
0.253,1.27,0.34,-0.01,-0.82,-2.05,0.17,
0.265,1.27,0.34,-0.01,-0.83,-1.96,0.18,
0.265,1.27,0.34,-0.01,-0.83,-1.93,0.18,
0.266,1.27,0.34,-0.01,-0.84,-1.83,0.21,
0.266,0.60,0.55,-0.46,-0.84,-1.83,0.21,
0.266,0.60,0.55,-0.46,-0.84,-1.79,0.22,
0.266,0.60,0.55,-0.46,-0.84,-1.71,0.24,
0.266,0.60,0.55,-0.46,-0.85,-1.58,0.27,
0.266,0.60,0.55,-0.46,-0.85,-1.53,0.28,
0.267,0.60,0.55,-0.46,-0.87,-1.43,0.31,
0.285,-0.29,0.39,-1.21,-0.87,-1.43,0.31,
0.285,-0.29,0.39,-1.21,-0.88,-1.32,0.34,
0.286,-0.29,0.39,-1.21,-0.90,-1.20,0.37,
0.286,-0.29,0.39,-1.21,-0.93,-1.00,0.41,
0.286,-0.29,0.39,-1.21,-0.94,-0.94,0.43,
0.286,-0.29,0.39,-1.21,-0.97,-0.84,0.46,
0.286,-1.19,0.44,-2.14,-0.97,-0.84,0.46,
0.287,-1.19,0.44,-2.14,-0.99,-0.75,0.50,
0.287,-1.19,0.44,-2.14,-1.02,-0.68,0.54,
0.287,-1.19,0.44,-2.14,-1.06,-0.61,0.60,
0.287,-1.19,0.44,-2.14,-1.08,-0.59,0.61,
0.287,-1.19,0.44,-2.14,-1.10,-0.54,0.65,
0.309,-1.74,0.53,-1.75,-1.10,-0.54,0.65,
0.309,-1.74,0.53,-1.75,-1.11,-0.50,0.68,
0.309,-1.74,0.53,-1.75,-1.12,-0.48,0.72,
0.309,-1.74,0.53,-1.75,-1.13,-0.47,0.77,
0.309,-1.74,0.53,-1.75,-1.13,-0.46,0.79,
0.31,-1.74,0.53,-1.75,-1.13,-0.46,0.82,
0.31,-1.90,0.34,-0.81,-1.13,-0.46,0.82,
0.31,-1.90,0.34,-0.81,-1.13,-0.44,0.85,
0.31,-1.90,0.34,-0.81,-1.11,-0.42,0.87,
0.31,-1.90,0.34,-0.81,-1.09,-0.42,0.91,
0.31,-1.90,0.34,-0.81,-1.09,-0.42,0.91,
0.311,-1.90,0.34,-0.81,-1.07,-0.42,0.93,
0.311,-1.58,-0.13,0.07,-1.07,-0.42,0.93,
0.311,-1.58,-0.13,0.07,-1.05,-0.42,0.94,
0.311,-1.58,-0.13,0.07,-1.02,-0.42,0.94,
0.314,-1.58,-0.13,0.07,-0.97,-0.43,0.93,
0.314,-1.58,-0.13,0.07,-0.95,-0.44,0.92,
0.317,-1.58,-0.13,0.07,-0.91,-0.45,0.91,
0.318,-1.05,-0.59,1.35,-0.91,-0.45,0.91,
0.318,-1.05,-0.59,1.35,-0.86,-0.48,0.89,
0.324,-1.05,-0.59,1.35,-0.81,-0.52,0.86,
0.324,-1.05,-0.59,1.35,-0.72,-0.56,0.82,
0.324,-1.05,-0.59,1.35,-0.70,-0.57,0.81,
0.326,-1.05,-0.59,1.35,-0.64,-0.60,0.76,
0.327,-0.10,-1.02,2.73,-0.64,-0.60,0.76,
0.328,-0.10,-1.02,2.73,-0.58,-0.62,0.72,
0.329,-0.10,-1.02,2.73,-0.53,-0.63,0.66,
0.332,-0.10,-1.02,2.73,-0.46,-0.64,0.57,
0.333,-0.10,-1.02,2.73,-0.44,-0.63,0.53,
0.335,-0.10,-1.02,2.73,-0.40,-0.62,0.45,
0.342,1.07,-1.10,2.90,-0.40,-0.62,0.45,
0.342,1.07,-1.10,2.90,-0.37,-0.60,0.37,
0.342,1.07,-1.10,2.90,-0.35,-0.57,0.27,
0.343,1.07,-1.10,2.90,-0.34,-0.52,0.12,
0.343,1.07,-1.10,2.90,-0.34,-0.50,0.07,
0.345,1.07,-1.10,2.90,-0.33,-0.45,-0.05,
0.347,1.66,-1.27,2.18,-0.33,-0.45,-0.05,
0.347,1.66,-1.27,2.18,-0.34,-0.41,-0.16,
0.349,1.66,-1.27,2.18,-0.35,-0.38,-0.29,
0.357,1.66,-1.27,2.18,-0.36,-0.37,-0.48,
0.357,1.66,-1.27,2.18,-0.36,-0.37,-0.54,
0.357,1.66,-1.27,2.18,-0.38,-0.37,-0.68,
0.358,1.32,-1.25,2.01,-0.38,-0.37,-0.68,
0.358,1.32,-1.25,2.01,-0.39,-0.38,-0.81,
0.359,1.32,-1.25,2.01,-0.40,-0.39,-0.94,
0.362,1.32,-1.25,2.01,-0.43,-0.39,-1.11,
0.363,1.32,-1.25,2.01,-0.44,-0.38,-1.16,
0.365,1.32,-1.25,2.01,-0.48,-0.35,-1.26,
0.367,0.37,-1.28,1.84,-0.48,-0.35,-1.26,
0.367,0.37,-1.28,1.84,-0.52,-0.31,-1.35,
0.374,0.37,-1.28,1.84,-0.56,-0.25,-1.43,
0.374,0.37,-1.28,1.84,-0.64,-0.12,-1.54,
0.374,0.37,-1.28,1.84,-0.67,-0.07,-1.57,
0.375,0.37,-1.28,1.84,-0.73,0.06,-1.65,
0.377,-1.06,-0.94,0.20,-0.73,0.06,-1.65,
0.378,-1.06,-0.94,0.20,-0.80,0.21,-1.73,
0.379,-1.06,-0.94,0.20,-0.88,0.39,-1.82,
0.383,-1.06,-0.94,0.20,-1.02,0.69,-1.97,
0.384,-1.06,-0.94,0.20,-1.07,0.78,-2.02,
0.392,-1.06,-0.94,0.20,-1.16,0.96,-2.10,
0.393,-2.23,-0.44,-1.93,-1.16,0.96,-2.10,
0.393,-2.23,-0.44,-1.93,-1.25,1.12,-2.16,
0.393,-2.23,-0.44,-1.93,-1.33,1.26,-2.20,
0.393,-2.23,-0.44,-1.93,-1.43,1.44,-2.21,
0.394,-2.23,-0.44,-1.93,-1.46,1.49,-2.20,
0.395,-2.23,-0.44,-1.93,-1.51,1.59,-2.19,
0.397,-3.79,-0.22,-2.14,-1.51,1.59,-2.19,
0.398,-3.79,-0.22,-2.14,-1.55,1.67,-2.16,
0.399,-3.79,-0.22,-2.14,-1.58,1.76,-2.12,
0.439,-3.79,-0.22,-2.14,-1.61,1.87,-2.06,
0.439,-3.79,-0.22,-2.14,-1.61,1.91,-2.04,
0.439,-3.79,-0.22,-2.14,-1.61,1.98,-2.00,
0.439,-5.31,0.27,-0.93,-1.61,1.98,-2.00,
0.44,-5.31,0.27,-0.93,-1.60,2.05,-1.96,
0.44,-5.31,0.27,-0.93,-1.59,2.09,-1.91,
0.44,-5.31,0.27,-0.93,-1.56,2.13,-1.84,
0.44,-5.31,0.27,-0.93,-1.54,2.14,-1.82,
0.44,-5.31,0.27,-0.93,-1.51,2.13,-1.78,
0.441,-5.57,0.03,0.26,-1.51,2.13,-1.78,
0.441,-5.57,0.03,0.26,-1.47,2.11,-1.74,
0.441,-5.57,0.03,0.26,-1.43,2.07,-1.70,
0.441,-5.57,0.03,0.26,-1.36,1.99,-1.65,
0.441,-5.57,0.03,0.26,-1.34,1.96,-1.63,
0.441,-5.57,0.03,0.26,-1.30,1.89,-1.61,
0.442,-5.08,-0.60,0.95,-1.30,1.89,-1.61,
0.442,-5.08,-0.60,0.95,-1.26,1.82,-1.58,
0.442,-5.08,-0.60,0.95,-1.22,1.75,-1.57,
0.442,-5.08,-0.60,0.95,-1.18,1.65,-1.54,
0.442,-5.08,-0.60,0.95,-1.17,1.62,-1.54,
0.442,-5.08,-0.60,0.95,-1.15,1.57,-1.52,
0.443,-4.15,-1.27,0.36,-1.15,1.57,-1.52,
0.443,-4.15,-1.27,0.36,-1.14,1.53,-1.51,
0.443,-4.15,-1.27,0.36,-1.14,1.50,-1.50,
0.443,-4.15,-1.27,0.36,-1.16,1.46,-1.48,
0.449,-4.15,-1.27,0.36,-1.17,1.44,-1.47,
0.449,-4.15,-1.27,0.36,-1.20,1.42,-1.45,
0.449,-3.24,-1.87,-1.18,-1.20,1.42,-1.45,
0.449,-3.24,-1.87,-1.18,-1.23,1.40,-1.44,
0.45,-3.24,-1.87,-1.18,-1.27,1.37,-1.43,
0.474,-3.24,-1.87,-1.18,-1.35,1.32,-1.41,
0.496,-3.24,-1.87,-1.18,-1.38,1.30,-1.41,
0.496,-3.24,-1.87,-1.18,-1.44,1.27,-1.40,
0.496,-2.78,-2.24,-3.08,-1.44,1.27,-1.40,
0.497,-2.78,-2.24,-3.08,-1.51,1.23,-1.40,
0.497,-2.78,-2.24,-3.08,-1.59,1.19,-1.39,
0.497,-2.78,-2.24,-3.08,-1.71,1.12,-1.38,
0.497,-2.78,-2.24,-3.08,-1.75,1.09,-1.37,
0.497,-2.78,-2.24,-3.08,-1.84,1.02,-1.36,
0.498,-3.07,-2.82,-4.63,-1.84,1.02,-1.36,
0.498,-3.07,-2.82,-4.63,-1.94,0.95,-1.35,
0.498,-3.07,-2.82,-4.63,-2.03,0.88,-1.34,
0.499,-3.07,-2.82,-4.63,-2.18,0.77,-1.32,
0.499,-3.07,-2.82,-4.63,-2.23,0.73,-1.32,
0.499,-3.07,-2.82,-4.63,-2.33,0.66,-1.30,
0.499,-3.72,-3.31,-5.50,-2.33,0.66,-1.30,
0.499,-3.72,-3.31,-5.50,-2.43,0.59,-1.29,
0.5,-3.72,-3.31,-5.50,-2.54,0.52,-1.27,
0.5,-3.72,-3.31,-5.50,-2.69,0.42,-1.23,
0.5,-3.72,-3.31,-5.50,-2.74,0.40,-1.22,
0.5,-3.72,-3.31,-5.50,-2.84,0.35,-1.19,
0.5,-4.64,-3.66,-6.08,-2.84,0.35,-1.19,
0.501,-4.64,-3.66,-6.08,-2.94,0.32,-1.17,
0.501,-4.64,-3.66,-6.08,-3.03,0.30,-1.14,
0.501,-4.64,-3.66,-6.08,-3.16,0.30,-1.10,
0.501,-4.64,-3.66,-6.08,-3.21,0.32,-1.09,
0.502,-4.64,-3.66,-6.08,-3.29,0.34,-1.07,
0.502,-4.46,-3.64,-6.80,-3.29,0.34,-1.07,
0.502,-4.46,-3.64,-6.80,-3.36,0.38,-1.05,
0.502,-4.46,-3.64,-6.80,-3.44,0.42,-1.02,
0.503,-4.46,-3.64,-6.80,-3.54,0.47,-1.00,
0.509,-4.46,-3.64,-6.80,-3.58,0.49,-0.99,
0.51,-4.46,-3.64,-6.80,-3.64,0.52,-0.97,
0.51,-4.02,-3.90,-6.73,-3.64,0.52,-0.97,
0.51,-4.02,-3.90,-6.73,-3.68,0.56,-0.96,
0.51,-4.02,-3.90,-6.73,-3.71,0.63,-0.97,
0.512,-4.02,-3.90,-6.73,-3.69,0.76,-1.04,
0.513,-4.02,-3.90,-6.73,-3.68,0.78,-1.06,
0.516,-4.02,-3.90,-6.73,-3.67,0.79,-1.10,
0.518,-1.54,-3.83,-4.16,-3.67,0.79,-1.10,
0.518,-1.54,-3.83,-4.16,-3.65,0.77,-1.15,
0.52,-1.54,-3.83,-4.16,-3.64,0.72,-1.20,
0.523,-1.54,-3.83,-4.16,-3.63,0.62,-1.27,
0.525,-1.54,-3.83,-4.16,-3.63,0.58,-1.29,
0.526,-1.54,-3.83,-4.16,-3.64,0.48,-1.34,
0.528,-0.54,-4.25,-2.99,-3.64,0.48,-1.34,
0.528,-0.54,-4.25,-2.99,-3.65,0.39,-1.39,
0.53,-0.54,-4.25,-2.99,-3.66,0.29,-1.43,
0.532,-0.54,-4.25,-2.99,-3.70,0.17,-1.49,
0.533,-0.54,-4.25,-2.99,-3.71,0.13,-1.51,
0.546,-0.54,-4.25,-2.99,-3.74,0.07,-1.54,
0.546,0.68,-4.33,-3.09,-3.74,0.07,-1.54,
0.547,0.68,-4.33,-3.09,-3.78,0.02,-1.57,
0.547,0.68,-4.33,-3.09,-3.82,-0.03,-1.60,
0.547,0.68,-4.33,-3.09,-3.88,-0.06,-1.65,
0.547,0.68,-4.33,-3.09,-3.90,-0.07,-1.66,
0.548,0.68,-4.33,-3.09,-3.95,-0.07,-1.69,
0.553,1.87,-4.91,-3.39,-3.95,-0.07,-1.69,
0.554,1.87,-4.91,-3.39,-4.00,-0.06,-1.73,
0.554,1.87,-4.91,-3.39,-4.05,-0.04,-1.76,
0.555,1.87,-4.91,-3.39,-4.13,-0.00,-1.83,
0.555,1.87,-4.91,-3.39,-4.16,0.01,-1.86,
0.556,1.87,-4.91,-3.39,-4.22,0.04,-1.92,
0.583,3.15,-5.04,-2.87,-4.22,0.04,-1.92,
0.584,3.15,-5.04,-2.87,-4.28,0.06,-1.99,
0.584,3.15,-5.04,-2.87,-4.34,0.08,-2.06,
0.585,3.15,-5.04,-2.87,-4.43,0.09,-2.19,
0.585,3.15,-5.04,-2.87,-4.47,0.09,-2.25,
0.585,3.15,-5.04,-2.87,-4.54,0.08,-2.36,
0.585,5.26,-4.83,-1.60,-4.54,0.08,-2.36,
0.585,5.26,-4.83,-1.60,-4.62,0.07,-2.50,
0.586,5.26,-4.83,-1.60,-4.71,0.04,-2.65,
0.586,5.26,-4.83,-1.60,-4.85,0.01,-2.90,
0.586,5.26,-4.83,-1.60,-4.90,0.01,-2.99,
0.586,5.26,-4.83,-1.60,-4.99,0.01,-3.16,
0.586,7.27,-4.36,-0.76,-4.99,0.01,-3.16,
0.587,7.27,-4.36,-0.76,-5.08,0.04,-3.31,
0.587,7.27,-4.36,-0.76,-5.17,0.08,-3.46,
0.587,7.27,-4.36,-0.76,-5.30,0.13,-3.65,
0.587,7.27,-4.36,-0.76,-5.34,0.15,-3.71,
0.587,7.27,-4.36,-0.76,-5.42,0.17,-3.81,
0.588,5.82,-4.34,0.34,-5.42,0.17,-3.81,
0.588,5.82,-4.34,0.34,-5.51,0.19,-3.92,
0.592,5.82,-4.34,0.34,-5.59,0.18,-4.01,
0.592,5.82,-4.34,0.34,-5.72,0.16,-4.15,
0.593,5.82,-4.34,0.34,-5.76,0.15,-4.19,
0.595,5.82,-4.34,0.34,-5.84,0.12,-4.27,
0.598,4.75,-4.63,1.37,-5.84,0.12,-4.27,
0.598,4.75,-4.63,1.37,-5.92,0.10,-4.35,
0.599,4.75,-4.63,1.37,-6.00,0.09,-4.41,
0.603,4.75,-4.63,1.37,-6.10,0.06,-4.49,
0.603,4.75,-4.63,1.37,-6.14,0.04,-4.51,
0.608,4.75,-4.63,1.37,-6.24,-0.01,-4.56,
0.608,3.59,-5.19,2.49,-6.24,-0.01,-4.56,
0.608,3.59,-5.19,2.49,-6.27,-0.03,-4.57,
0.609,3.59,-5.19,2.49,-6.34,-0.08,-4.59,
0.612,3.59,-5.19,2.49,-6.43,-0.16,-4.60,
0.614,3.59,-5.19,2.49,-6.46,-0.19,-4.60,
0.615,3.59,-5.19,2.49,-6.53,-0.24,-4.59,
0.623,2.43,-5.17,3.02,-6.53,-0.24,-4.59,
0.624,2.43,-5.17,3.02,-6.59,-0.30,-4.56,
0.638,2.43,-5.17,3.02,-6.66,-0.38,-4.54,
0.639,2.43,-5.17,3.02,-6.75,-0.52,-4.48,
0.639,2.43,-5.17,3.02,-6.78,-0.58,-4.46,
0.639,2.43,-5.17,3.02,-6.85,-0.70,-4.42,
0.639,1.83,-5.03,3.73,-6.85,-0.70,-4.42,
0.639,1.83,-5.03,3.73,-6.91,-0.82,-4.37,
0.639,1.83,-5.03,3.73,-6.98,-0.94,-4.33,
0.64,1.83,-5.03,3.73,-7.08,-1.11,-4.25,
0.64,1.83,-5.03,3.73,-7.11,-1.17,-4.23,
0.64,1.83,-5.03,3.73,-7.18,-1.28,-4.18,
0.64,2.34,-4.74,4.66,-7.18,-1.28,-4.18,
0.64,2.34,-4.74,4.66,-7.24,-1.38,-4.13,
0.64,2.34,-4.74,4.66,-7.31,-1.47,-4.08,
0.65,2.34,-4.74,4.66,-7.40,-1.61,-4.00,
0.651,2.34,-4.74,4.66,-7.42,-1.65,-3.97,
0.651,2.34,-4.74,4.66,-7.48,-1.74,-3.93,
0.651,3.21,-4.35,5.62,-7.48,-1.74,-3.93,
0.652,3.21,-4.35,5.62,-7.53,-1.83,-3.88,
0.652,3.21,-4.35,5.62,-7.57,-1.89,-3.84,
0.653,3.21,-4.35,5.62,-7.62,-1.96,-3.78,
0.653,3.21,-4.35,5.62,-7.63,-1.98,-3.76,
0.655,3.21,-4.35,5.62,-7.66,-2.00,-3.72,
0.657,4.39,-3.67,7.09,-7.66,-2.00,-3.72,
0.658,4.39,-3.67,7.09,-7.67,-2.01,-3.69,
0.659,4.39,-3.67,7.09,-7.68,-2.00,-3.65,
0.662,4.39,-3.67,7.09,-7.68,-1.98,-3.61,
0.663,4.39,-3.67,7.09,-7.67,-1.97,-3.60,
0.665,4.39,-3.67,7.09,-7.65,-1.95,-3.57,
0.668,5.14,-2.45,8.22,-7.65,-1.95,-3.57,
0.668,5.14,-2.45,8.22,-7.63,-1.94,-3.54,
0.669,5.14,-2.45,8.22,-7.60,-1.93,-3.52,
0.672,5.14,-2.45,8.22,-7.54,-1.92,-3.50,
0.673,5.14,-2.45,8.22,-7.51,-1.91,-3.49,
0.675,5.14,-2.45,8.22,-7.45,-1.90,-3.48,
0.677,5.27,-1.28,9.35,-7.45,-1.90,-3.48,
0.677,5.27,-1.28,9.35,-7.39,-1.90,-3.47,
0.679,5.27,-1.28,9.35,-7.32,-1.89,-3.47,
0.682,5.27,-1.28,9.35,-7.20,-1.89,-3.46,
0.683,5.27,-1.28,9.35,-7.16,-1.89,-3.47,
0.685,5.27,-1.28,9.35,-7.06,-1.90,-3.47,
0.687,4.96,-0.29,10.97,-7.06,-1.90,-3.47,
0.688,4.96,-0.29,10.97,-6.97,-1.91,-3.47,
0.689,4.96,-0.29,10.97,-6.86,-1.93,-3.48,
0.692,4.96,-0.29,10.97,-6.70,-1.97,-3.49,
0.693,4.96,-0.29,10.97,-6.64,-1.98,-3.50,
0.697,4.96,-0.29,10.97,-6.53,-2.01,-3.51,
0.697,4.63,0.18,12.34,-6.53,-2.01,-3.51,
0.698,4.63,0.18,12.34,-6.41,-2.03,-3.53,
0.699,4.63,0.18,12.34,-6.29,-2.05,-3.54,
0.703,4.63,0.18,12.34,-6.11,-2.07,-3.55,
0.703,4.63,0.18,12.34,-6.05,-2.08,-3.55,
0.705,4.63,0.18,12.34,-5.92,-2.08,-3.56,
0.707,3.99,0.83,12.75,-5.92,-2.08,-3.56,
0.707,3.99,0.83,12.75,-5.80,-2.08,-3.56,
0.709,3.99,0.83,12.75,-5.67,-2.07,-3.55,
0.712,3.99,0.83,12.75,-5.48,-2.06,-3.55,
0.713,3.99,0.83,12.75,-5.42,-2.05,-3.54,
0.716,3.99,0.83,12.75,-5.30,-2.04,-3.54,
0.718,3.37,1.28,12.39,-5.30,-2.04,-3.54,
0.718,3.37,1.28,12.39,-5.17,-2.03,-3.53,
0.72,3.37,1.28,12.39,-5.05,-2.01,-3.52,
0.722,3.37,1.28,12.39,-4.87,-2.01,-3.51,
0.723,3.37,1.28,12.39,-4.82,-2.01,-3.50,
0.725,3.37,1.28,12.39,-4.70,-2.03,-3.49,
0.727,3.05,1.48,12.05,-4.70,-2.03,-3.49,
0.728,3.05,1.48,12.05,-4.60,-2.06,-3.47,
0.729,3.05,1.48,12.05,-4.49,-2.09,-3.46,
0.732,3.05,1.48,12.05,-4.35,-2.16,-3.44,
0.734,3.05,1.48,12.05,-4.30,-2.19,-3.43,
0.738,3.05,1.48,12.05,-4.21,-2.24,-3.42,
0.739,2.84,1.33,11.62,-4.21,-2.24,-3.42,
0.74,2.84,1.33,11.62,-4.13,-2.29,-3.42,
0.74,2.84,1.33,11.62,-4.05,-2.34,-3.41,
0.742,2.84,1.33,11.62,-3.95,-2.41,-3.40,
0.744,2.84,1.33,11.62,-3.92,-2.43,-3.40,
0.746,2.84,1.33,11.62,-3.86,-2.45,-3.40,
0.748,3.11,1.46,10.64,-3.86,-2.45,-3.40,
0.748,3.11,1.46,10.64,-3.80,-2.46,-3.40,
0.75,3.11,1.46,10.64,-3.74,-2.46,-3.40,
0.754,3.11,1.46,10.64,-3.65,-2.43,-3.39,
0.755,3.11,1.46,10.64,-3.62,-2.42,-3.39,
0.756,3.11,1.46,10.64,-3.55,-2.40,-3.38,
0.757,2.83,1.77,10.15,-3.55,-2.40,-3.38,
0.758,2.83,1.77,10.15,-3.47,-2.37,-3.37,
0.759,2.83,1.77,10.15,-3.39,-2.34,-3.36,
0.762,2.83,1.77,10.15,-3.26,-2.31,-3.33,
0.763,2.83,1.77,10.15,-3.21,-2.31,-3.32,
0.765,2.83,1.77,10.15,-3.12,-2.31,-3.30,
0.778,1.72,2.45,10.92,-3.12,-2.31,-3.30,
0.778,1.72,2.45,10.92,-3.02,-2.31,-3.28,
0.779,1.72,2.45,10.92,-2.92,-2.33,-3.25,
0.779,1.72,2.45,10.92,-2.76,-2.36,-3.21,
0.779,1.72,2.45,10.92,-2.71,-2.37,-3.20,
0.779,1.72,2.45,10.92,-2.60,-2.39,-3.17,
0.78,0.44,2.71,11.13,-2.60,-2.39,-3.17,
0.78,0.44,2.71,11.13,-2.49,-2.41,-3.13,
0.78,0.44,2.71,11.13,-2.38,-2.43,-3.10,
0.782,0.44,2.71,11.13,-2.22,-2.45,-3.04,
0.815,0.44,2.71,11.13,-2.16,-2.45,-3.02,
0.816,0.44,2.71,11.13,-2.05,-2.45,-2.98,
0.844,-0.83,3.14,11.29,-2.05,-2.45,-2.98,
0.848,-0.83,3.14,11.29,-1.94,-2.45,-2.93,
0.848,-0.83,3.14,11.29,-1.82,-2.45,-2.89,
0.848,-0.83,3.14,11.29,-1.66,-2.45,-2.82,
0.849,-0.83,3.14,11.29,-1.60,-2.45,-2.80,
0.849,-0.83,3.14,11.29,-1.49,-2.47,-2.76,
0.849,-1.74,3.41,10.90,-1.49,-2.47,-2.76,
0.85,-1.74,3.41,10.90,-1.38,-2.49,-2.73,
0.85,-1.74,3.41,10.90,-1.27,-2.52,-2.69,
0.85,-1.74,3.41,10.90,-1.11,-2.57,-2.64,
0.85,-1.74,3.41,10.90,-1.06,-2.58,-2.62,
0.851,-1.74,3.41,10.90,-0.96,-2.61,-2.59,
0.851,-2.23,3.07,10.56,-0.96,-2.61,-2.59,
0.851,-2.23,3.07,10.56,-0.87,-2.63,-2.55,
0.852,-2.23,3.07,10.56,-0.78,-2.65,-2.52,
0.852,-2.23,3.07,10.56,-0.65,-2.67,-2.46,
0.852,-2.23,3.07,10.56,-0.60,-2.67,-2.45,
0.852,-2.23,3.07,10.56,-0.52,-2.67,-2.41,
0.853,-2.71,2.57,9.17,-0.52,-2.67,-2.41,
0.853,-2.71,2.57,9.17,-0.45,-2.66,-2.37,
0.853,-2.71,2.57,9.17,-0.37,-2.65,-2.33,
0.854,-2.71,2.57,9.17,-0.26,-2.62,-2.27,
0.854,-2.71,2.57,9.17,-0.23,-2.61,-2.25,
0.854,-2.71,2.57,9.17,-0.17,-2.59,-2.21,
0.854,-3.36,2.33,7.98,-0.17,-2.59,-2.21,
0.855,-3.36,2.33,7.98,-0.11,-2.57,-2.17,
0.855,-3.36,2.33,7.98,-0.05,-2.55,-2.13,
0.855,-3.36,2.33,7.98,0.03,-2.53,-2.04,
0.856,-3.36,2.33,7.98,0.06,-2.52,-1.99,
0.856,-3.36,2.33,7.98,0.11,-2.52,-1.90,
0.856,-5.45,2.06,7.03,0.11,-2.52,-1.90,
0.856,-5.45,2.06,7.03,0.16,-2.50,-1.79,
0.857,-5.45,2.06,7.03,0.21,-2.49,-1.67,
0.857,-5.45,2.06,7.03,0.26,-2.45,-1.48,
0.857,-5.45,2.06,7.03,0.28,-2.44,-1.41,
0.858,-5.45,2.06,7.03,0.31,-2.40,-1.27,
0.858,-8.71,1.59,6.02,0.31,-2.40,-1.27,
0.858,-8.71,1.59,6.02,0.32,-2.35,-1.13,
0.858,-8.71,1.59,6.02,0.34,-2.30,-0.99,
0.859,-8.71,1.59,6.02,0.36,-2.22,-0.78,
0.859,-8.71,1.59,6.02,0.37,-2.20,-0.71,
0.859,-8.71,1.59,6.02,0.39,-2.15,-0.57,
0.859,-10.69,0.84,4.84,0.39,-2.15,-0.57,
0.86,-10.69,0.84,4.84,0.42,-2.11,-0.45,
0.861,-10.69,0.84,4.84,0.46,-2.07,-0.32,
0.87,-10.69,0.84,4.84,0.53,-1.99,-0.17,
0.871,-10.69,0.84,4.84,0.56,-1.95,-0.13,
0.872,-10.69,0.84,4.84,0.62,-1.86,-0.06,
0.872,-10.59,0.30,5.66,0.62,-1.86,-0.06,
0.873,-10.59,0.30,5.66,0.69,-1.76,-0.01,
0.873,-10.59,0.30,5.66,0.76,-1.65,0.03,
0.873,-10.59,0.30,5.66,0.87,-1.48,0.05,
0.874,-10.59,0.30,5.66,0.90,-1.42,0.04,
0.877,-10.59,0.30,5.66,0.96,-1.28,0.02,
0.878,-7.62,1.79,4.80,0.96,-1.28,0.02,
0.879,-7.62,1.79,4.80,1.01,-1.12,-0.01,
0.879,-7.62,1.79,4.80,1.06,-0.95,-0.06,
0.883,-7.62,1.79,4.80,1.12,-0.66,-0.14,
0.884,-7.62,1.79,4.80,1.13,-0.56,-0.18,
0.896,-7.62,1.79,4.80,1.15,-0.36,-0.25,
0.897,-4.26,4.41,3.02,1.15,-0.36,-0.25,
0.897,-4.26,4.41,3.02,1.15,-0.14,-0.33,
0.898,-4.26,4.41,3.02,1.14,0.07,-0.42,
0.898,-4.26,4.41,3.02,1.10,0.33,-0.56,
0.898,-4.26,4.41,3.02,1.08,0.40,-0.61,
0.898,-4.26,4.41,3.02,1.05,0.50,-0.72,
0.899,-1.55,4.27,1.42,1.05,0.50,-0.72,
0.899,-1.55,4.27,1.42,1.02,0.57,-0.82,
0.899,-1.55,4.27,1.42,1.00,0.61,-0.92,
0.909,-1.55,4.27,1.42,0.97,0.62,-1.06,
0.91,-1.55,4.27,1.42,0.97,0.61,-1.10,
0.91,-1.55,4.27,1.42,0.98,0.57,-1.17,
0.91,-0.68,1.78,2.92,0.98,0.57,-1.17,
0.911,-0.68,1.78,2.92,0.99,0.50,-1.22,
0.911,-0.68,1.78,2.92,1.01,0.41,-1.26,
0.912,-0.68,1.78,2.92,1.07,0.27,-1.28,
0.913,-0.68,1.78,2.92,1.09,0.23,-1.28,
0.915,-0.68,1.78,2.92,1.14,0.14,-1.26,
0.956,-1.67,0.95,3.58,1.14,0.14,-1.26,
0.957,-1.67,0.95,3.58,1.19,0.05,-1.21,
0.958,-1.67,0.95,3.58,1.24,-0.03,-1.15,
0.959,-1.67,0.95,3.58,1.31,-0.13,-1.01,
0.96,-1.67,0.95,3.58,1.33,-0.16,-0.95,
0.96,-1.67,0.95,3.58,1.37,-0.21,-0.82,
0.961,-3.03,2.57,2.27,1.37,-0.21,-0.82,
0.961,-3.03,2.57,2.27,1.40,-0.25,-0.68,
0.961,-3.03,2.57,2.27,1.43,-0.28,-0.52,
0.962,-3.03,2.57,2.27,1.44,-0.31,-0.27,
0.962,-3.03,2.57,2.27,1.44,-0.32,-0.18,
0.962,-3.03,2.57,2.27,1.42,-0.33,0.00,
0.963,-3.48,3.77,0.09,1.42,-0.33,0.00,
0.963,-3.48,3.77,0.09,1.38,-0.35,0.17,
0.963,-3.48,3.77,0.09,1.32,-0.39,0.33,
0.964,-3.48,3.77,0.09,1.21,-0.44,0.58,
0.964,-3.48,3.77,0.09,1.17,-0.45,0.66,
0.964,-3.48,3.77,0.09,1.09,-0.47,0.80,
0.965,-2.38,3.53,-2.02,1.09,-0.47,0.80,
0.965,-2.38,3.53,-2.02,1.00,-0.49,0.91,
0.965,-2.38,3.53,-2.02,0.92,-0.51,1.01,
0.966,-2.38,3.53,-2.02,0.80,-0.55,1.12,
0.987,-2.38,3.53,-2.02,0.76,-0.56,1.14,
0.987,-2.38,3.53,-2.02,0.63,-0.59,1.19,
0.987,0.16,2.97,-2.70,0.63,-0.59,1.19,
0.988,0.16,2.97,-2.70,0.59,-0.60,1.20,
0.988,0.16,2.97,-2.70,0.50,-0.62,1.20,
0.988,0.16,2.97,-2.70,0.38,-0.64,1.17,
0.988,0.16,2.97,-2.70,0.34,-0.65,1.15,
0.988,0.16,2.97,-2.70,0.26,-0.65,1.11,
0.988,3.00,1.82,-3.39,0.26,-0.65,1.11,
0.989,3.00,1.82,-3.39,0.18,-0.67,1.04,
0.989,3.00,1.82,-3.39,0.10,-0.68,0.96,
0.989,3.00,1.82,-3.39,-0.04,-0.68,0.81,
0.989,3.00,1.82,-3.39,-0.08,-0.67,0.76,
0.989,3.00,1.82,-3.39,-0.17,-0.65,0.64,
0.99,5.78,0.54,-4.26,-0.17,-0.65,0.64,
0.99,5.78,0.54,-4.26,-0.27,-0.62,0.52,
0.99,5.78,0.54,-4.26,-0.36,-0.58,0.39,
0.99,5.78,0.54,-4.26,-0.52,-0.50,0.20,
0.99,5.78,0.54,-4.26,-0.57,-0.47,0.13,
0.99,5.78,0.54,-4.26,-0.67,-0.40,0.00,
0.991,7.29,-0.25,-5.68,-0.67,-0.40,0.00,
0.991,7.29,-0.25,-5.68,-0.77,-0.32,-0.13,
0.991,7.29,-0.25,-5.68,-0.86,-0.25,-0.25,
0.995,7.29,-0.25,-5.68,-0.97,-0.15,-0.43,
0.996,7.29,-0.25,-5.68,-1.00,-0.11,-0.49,
0.996,7.29,-0.25,-5.68,-1.05,-0.04,-0.59,
0.998,7.03,-0.40,-4.86,-1.05,-0.04,-0.59,
0.998,7.03,-0.40,-4.86,-1.10,0.02,-0.69,
1.001,7.03,-0.40,-4.86,-1.14,0.08,-0.78,
1.002,7.03,-0.40,-4.86,-1.21,0.18,-0.90,
1.003,7.03,-0.40,-4.86,-1.23,0.21,-0.94,
1.005,7.03,-0.40,-4.86,-1.27,0.26,-1.01,
1.007,5.83,-0.07,-4.43,-1.27,0.26,-1.01,
1.008,5.83,-0.07,-4.43,-1.31,0.30,-1.08,
1.009,5.83,-0.07,-4.43,-1.36,0.34,-1.12,
1.013,5.83,-0.07,-4.43,-1.42,0.39,-1.18,
1.013,5.83,-0.07,-4.43,-1.43,0.40,-1.21,
1.015,5.83,-0.07,-4.43,-1.47,0.43,-1.25,
1.022,4.10,0.02,-3.58,-1.47,0.43,-1.25,
1.022,4.10,0.02,-3.58,-1.51,0.44,-1.29,
1.022,4.10,0.02,-3.58,-1.55,0.45,-1.31,
1.023,4.10,0.02,-3.58,-1.61,0.46,-1.34,
1.023,4.10,0.02,-3.58,-1.63,0.47,-1.34,
1.025,4.10,0.02,-3.58,-1.67,0.47,-1.34,
1.028,2.14,-0.29,-3.04,-1.67,0.47,-1.34,
1.028,2.14,-0.29,-3.04,-1.70,0.48,-1.33,
1.03,2.14,-0.29,-3.04,-1.73,0.49,-1.31,
1.042,2.14,-0.29,-3.04,-1.75,0.52,-1.26,
1.043,2.14,-0.29,-3.04,-1.76,0.54,-1.24,
1.043,2.14,-0.29,-3.04,-1.76,0.56,-1.19,
1.043,0.29,-0.34,-1.90,-1.76,0.56,-1.19,
1.043,0.29,-0.34,-1.90,-1.76,0.57,-1.13,
1.043,0.29,-0.34,-1.90,-1.75,0.56,-1.06,
1.043,0.29,-0.34,-1.90,-1.72,0.51,-0.96,
1.043,0.29,-0.34,-1.90,-1.72,0.49,-0.92,
1.047,0.29,-0.34,-1.90,-1.68,0.43,-0.85,
1.049,-0.64,-0.47,-0.12,-1.68,0.43,-0.85,
1.049,-0.64,-0.47,-0.12,-1.65,0.37,-0.76,
1.054,-0.64,-0.47,-0.12,-1.62,0.29,-0.68,
1.054,-0.64,-0.47,-0.12,-1.57,0.17,-0.55,
1.054,-0.64,-0.47,-0.12,-1.55,0.13,-0.51,
1.057,-0.64,-0.47,-0.12,-1.53,0.04,-0.42,
1.057,-0.40,-1.07,1.07,-1.53,0.04,-0.42,
1.058,-0.40,-1.07,1.07,-1.51,-0.07,-0.34,
1.061,-0.40,-1.07,1.07,-1.50,-0.17,-0.26,
1.064,-0.40,-1.07,1.07,-1.49,-0.32,-0.16,
1.064,-0.40,-1.07,1.07,-1.50,-0.36,-0.13,
1.067,-0.40,-1.07,1.07,-1.53,-0.44,-0.07,
1.068,0.92,-2.49,0.55,-1.53,-0.44,-0.07,
1.068,0.92,-2.49,0.55,-1.55,-0.52,-0.01,
1.071,0.92,-2.49,0.55,-1.58,-0.59,0.05,
1.074,0.92,-2.49,0.55,-1.65,-0.66,0.13,
1.074,0.92,-2.49,0.55,-1.67,-0.68,0.16,
1.077,0.92,-2.49,0.55,-1.73,-0.72,0.21,
1.077,1.36,-4.06,-0.45,-1.73,-0.72,0.21,
1.078,1.36,-4.06,-0.45,-1.79,-0.75,0.25,
1.081,1.36,-4.06,-0.45,-1.85,-0.76,0.29,
1.084,1.36,-4.06,-0.45,-1.94,-0.77,0.33,
1.084,1.36,-4.06,-0.45,-1.98,-0.76,0.34,
1.086,1.36,-4.06,-0.45,-2.03,-0.74,0.34,
1.087,1.50,-4.84,-0.81,-2.03,-0.74,0.34,
1.088,1.50,-4.84,-0.81,-2.10,-0.72,0.34,
1.089,1.50,-4.84,-0.81,-2.15,-0.68,0.32,
1.092,1.50,-4.84,-0.81,-2.23,-0.61,0.29,
1.093,1.50,-4.84,-0.81,-2.25,-0.58,0.28,
1.095,1.50,-4.84,-0.81,-2.30,-0.52,0.25,
1.097,1.10,-4.75,-0.59,-2.30,-0.52,0.25,
1.098,1.10,-4.75,-0.59,-2.34,-0.46,0.21,
1.1,1.10,-4.75,-0.59,-2.37,-0.40,0.17,
1.102,1.10,-4.75,-0.59,-2.43,-0.30,0.10,
1.104,1.10,-4.75,-0.59,-2.44,-0.27,0.07,
1.105,1.10,-4.75,-0.59,-2.47,-0.22,0.01,
1.107,0.48,-4.41,-0.20,-2.47,-0.22,0.01,
1.108,0.48,-4.41,-0.20,-2.50,-0.16,-0.05,
1.109,0.48,-4.41,-0.20,-2.52,-0.11,-0.11,
1.112,0.48,-4.41,-0.20,-2.55,-0.02,-0.18,
1.113,0.48,-4.41,-0.20,-2.56,0.01,-0.20,
1.115,0.48,-4.41,-0.20,-2.57,0.07,-0.24,
1.117,-0.27,-4.02,-0.33,-2.57,0.07,-0.24,
1.118,-0.27,-4.02,-0.33,-2.56,0.14,-0.27,
1.133,-0.27,-4.02,-0.33,-2.49,0.32,-0.33,
1.134,-0.27,-4.02,-0.33,-2.49,0.32,-0.33,
1.134,-0.27,-4.02,-0.33,-2.49,0.32,-0.33,
1.134,-0.27,-4.02,-0.33,-2.43,0.38,-0.35,
1.135,-1.69,-3.44,0.25,-2.43,0.38,-0.35,
1.135,-1.69,-3.44,0.25,-2.41,0.40,-0.35,
1.136,-1.69,-3.44,0.25,-2.36,0.43,-0.35,
1.136,-1.69,-3.44,0.25,-2.29,0.49,-0.35,
1.136,-1.69,-3.44,0.25,-2.27,0.50,-0.34,
1.137,-1.69,-3.44,0.25,-2.23,0.54,-0.34,
1.137,-2.08,-2.47,0.24,-2.23,0.54,-0.34,
1.138,-2.08,-2.47,0.24,-2.19,0.57,-0.33,
1.153,-2.08,-2.47,0.24,-2.16,0.59,-0.32,
1.154,-2.08,-2.47,0.24,-2.13,0.62,-0.28,
1.154,-2.08,-2.47,0.24,-2.13,0.62,-0.26,
1.154,-2.08,-2.47,0.24,-2.14,0.63,-0.23,
1.154,-2.37,-2.36,-0.94,-2.14,0.63,-0.23,
1.155,-2.37,-2.36,-0.94,-2.15,0.63,-0.19,
1.155,-2.37,-2.36,-0.94,-2.18,0.64,-0.15,
1.155,-2.37,-2.36,-0.94,-2.24,0.66,-0.08,
1.155,-2.37,-2.36,-0.94,-2.27,0.68,-0.06,
1.156,-2.37,-2.36,-0.94,-2.33,0.71,-0.01,
1.158,-2.08,-2.46,-2.52,-2.33,0.71,-0.01,
1.158,-2.08,-2.46,-2.52,-2.40,0.74,0.03,
1.161,-2.08,-2.46,-2.52,-2.48,0.78,0.08,
1.164,-2.08,-2.46,-2.52,-2.62,0.84,0.15,
1.165,-2.08,-2.46,-2.52,-2.66,0.86,0.17,
1.165,-2.08,-2.46,-2.52,-2.76,0.91,0.22,
1.19,-1.43,-2.32,-4.14,-2.76,0.91,0.22,
1.191,-1.43,-2.32,-4.14,-2.87,0.96,0.26,
1.191,-1.43,-2.32,-4.14,-2.97,1.02,0.29,
1.191,-1.43,-2.32,-4.14,-3.13,1.12,0.32,
1.192,-1.43,-2.32,-4.14,-3.18,1.15,0.33,
1.192,-1.43,-2.32,-4.14,-3.29,1.22,0.33,
1.192,0.10,-1.66,-4.53,-3.29,1.22,0.33,
1.193,0.10,-1.66,-4.53,-3.39,1.28,0.33,
1.193,0.10,-1.66,-4.53,-3.49,1.36,0.32,
1.193,0.10,-1.66,-4.53,-3.64,1.46,0.29,
1.193,0.10,-1.66,-4.53,-3.68,1.49,0.27,
1.194,0.10,-1.66,-4.53,-3.77,1.54,0.24,
1.194,1.88,-0.82,-4.05,-3.77,1.54,0.24,
1.194,1.88,-0.82,-4.05,-3.85,1.58,0.20,
1.194,1.88,-0.82,-4.05,-3.92,1.60,0.14,
1.194,1.88,-0.82,-4.05,-3.98,1.63,0.03,
1.195,1.88,-0.82,-4.05,-3.99,1.64,0.01,
1.198,1.88,-0.82,-4.05,-3.96,1.67,-0.03,
1.198,2.75,0.56,-0.58,-3.96,1.67,-0.03,
1.198,2.75,0.56,-0.58,-3.90,1.69,-0.07,
1.2,2.75,0.56,-0.58,-3.81,1.68,-0.10,
1.202,2.75,0.56,-0.58,-3.62,1.64,-0.15,
1.203,2.75,0.56,-0.58,-3.54,1.62,-0.16,
1.205,2.75,0.56,-0.58,-3.38,1.57,-0.19,
1.208,2.48,2.94,5.01,-3.38,1.57,-0.19,
1.208,2.48,2.94,5.01,-3.21,1.50,-0.21,
1.21,2.48,2.94,5.01,-3.02,1.42,-0.24,
1.212,2.48,2.94,5.01,-2.72,1.29,-0.27,
1.214,2.48,2.94,5.01,-2.62,1.24,-0.27,
1.217,2.48,2.94,5.01,-2.42,1.14,-0.28,
1.218,2.22,5.50,8.07,-2.42,1.14,-0.28,
1.22,2.22,5.50,8.07,-2.22,1.04,-0.28,
1.22,2.22,5.50,8.07,-2.02,0.94,-0.27,
1.223,2.22,5.50,8.07,-1.74,0.80,-0.25,
1.224,2.22,5.50,8.07,-1.66,0.76,-0.24,
1.225,2.22,5.50,8.07,-1.49,0.68,-0.21,
1.228,1.08,7.80,8.53,-1.49,0.68,-0.21,
1.229,1.08,7.80,8.53,-1.34,0.60,-0.18,
1.23,1.08,7.80,8.53,-1.20,0.52,-0.15,
1.234,1.08,7.80,8.53,-1.04,0.41,-0.10,
1.235,1.08,7.80,8.53,-0.99,0.39,-0.08,
1.236,1.08,7.80,8.53,-0.91,0.33,-0.05,
1.239,0.27,8.57,6.13,-0.91,0.33,-0.05,
1.239,0.27,8.57,6.13,-0.85,0.29,-0.02,
1.239,0.27,8.57,6.13,-0.81,0.26,0.00,
1.243,0.27,8.57,6.13,-0.76,0.21,0.04,
1.246,0.27,8.57,6.13,-0.75,0.19,0.05,
1.247,0.27,8.57,6.13,-0.74,0.17,0.07,
1.248,0.40,7.84,3.72,-0.74,0.17,0.07,
1.25,0.40,7.84,3.72,-0.73,0.13,0.08,
1.251,0.40,7.84,3.72,-0.73,0.09,0.10,
1.256,0.40,7.84,3.72,-0.73,0.04,0.14,
1.257,0.40,7.84,3.72,-0.73,0.02,0.15,
1.257,0.40,7.84,3.72,-0.71,-0.00,0.16,
1.26,-0.10,5.74,2.45,-0.71,-0.00,0.16,
1.261,-0.10,5.74,2.45,-0.69,-0.03,0.17,
1.261,-0.10,5.74,2.45,-0.67,-0.07,0.18,
1.264,-0.10,5.74,2.45,-0.63,-0.15,0.19,
1.265,-0.10,5.74,2.45,-0.61,-0.18,0.19,
1.272,-0.10,5.74,2.45,-0.58,-0.24,0.19,
1.273,-0.38,4.33,2.08,-0.58,-0.24,0.19,
1.273,-0.38,4.33,2.08,-0.55,-0.30,0.19,
1.273,-0.38,4.33,2.08,-0.52,-0.35,0.20,
1.273,-0.38,4.33,2.08,-0.48,-0.38,0.20,
1.274,-0.38,4.33,2.08,-0.47,-0.38,0.20,
1.275,-0.38,4.33,2.08,-0.46,-0.39,0.21,
1.284,-1.19,3.56,0.83,-0.46,-0.39,0.21,
1.284,-1.19,3.56,0.83,-0.44,-0.41,0.23,
1.284,-1.19,3.56,0.83,-0.43,-0.43,0.24,
1.284,-1.19,3.56,0.83,-0.42,-0.46,0.28,
1.285,-1.19,3.56,0.83,-0.41,-0.46,0.29,
1.309,-1.19,3.56,0.83,-0.40,-0.47,0.32,
1.327,-2.06,3.33,0.09,-0.40,-0.47,0.32,
1.327,-2.06,3.33,0.09,-0.39,-0.47,0.35,
1.328,-2.06,3.33,0.09,-0.39,-0.46,0.38,
1.328,-2.06,3.33,0.09,-0.38,-0.44,0.43,
1.328,-2.06,3.33,0.09,-0.38,-0.43,0.45,
1.328,-2.06,3.33,0.09,-0.39,-0.40,0.48,
1.328,-3.00,3.35,-0.48,-0.39,-0.40,0.48,
1.329,-3.00,3.35,-0.48,-0.39,-0.37,0.51,
1.329,-3.00,3.35,-0.48,-0.40,-0.33,0.55,
1.329,-3.00,3.35,-0.48,-0.40,-0.28,0.60,
1.329,-3.00,3.35,-0.48,-0.40,-0.26,0.62,
1.329,-3.00,3.35,-0.48,-0.40,-0.21,0.67,
1.33,-3.67,3.79,-0.56,-0.40,-0.21,0.67,
1.33,-3.67,3.79,-0.56,-0.40,-0.19,0.69,
1.33,-3.67,3.79,-0.56,-0.40,-0.16,0.72,
1.33,-3.67,3.79,-0.56,-0.39,-0.11,0.78,
1.33,-3.67,3.79,-0.56,-0.39,-0.10,0.80,
1.331,-3.67,3.79,-0.56,-0.37,-0.07,0.83,
1.331,-4.09,3.79,-0.55,-0.37,-0.07,0.83,
1.331,-4.09,3.79,-0.55,-0.36,-0.04,0.88,
1.331,-4.09,3.79,-0.55,-0.34,-0.00,0.94,
1.331,-4.09,3.79,-0.55,-0.30,0.06,1.03,
1.332,-4.09,3.79,-0.55,-0.28,0.08,1.06,
1.332,-4.09,3.79,-0.55,-0.23,0.13,1.14,
1.332,-5.26,3.96,-0.01,-0.23,0.13,1.14,
1.332,-5.26,3.96,-0.01,-0.18,0.17,1.22,
1.337,-5.26,3.96,-0.01,-0.12,0.22,1.30,
1.337,-5.26,3.96,-0.01,-0.02,0.30,1.44,
1.337,-5.26,3.96,-0.01,0.06,0.37,1.52,
1.338,-5.26,3.96,-0.01,0.09,0.40,1.57,
1.339,-6.06,4.31,0.63,0.09,0.40,1.57,
1.34,-6.06,4.31,0.63,0.17,0.47,1.66,
1.34,-6.06,4.31,0.63,0.25,0.55,1.75,
1.343,-6.06,4.31,0.63,0.37,0.67,1.88,
1.345,-6.06,4.31,0.63,0.41,0.70,1.93,
1.346,-6.06,4.31,0.63,0.49,0.78,2.01,
1.347,-5.85,4.58,0.83,0.49,0.78,2.01,
1.348,-5.85,4.58,0.83,0.57,0.85,2.09,
1.35,-5.85,4.58,0.83,0.64,0.92,2.17,
1.353,-5.85,4.58,0.83,0.73,1.02,2.29,
1.354,-5.85,4.58,0.83,0.76,1.06,2.32,
1.355,-5.85,4.58,0.83,0.81,1.14,2.40,
1.358,-5.25,4.09,0.07,0.81,1.14,2.40,
1.358,-5.25,4.09,0.07,0.86,1.23,2.46,
1.359,-5.25,4.09,0.07,0.90,1.33,2.52,
1.363,-5.25,4.09,0.07,0.95,1.51,2.60,
1.363,-5.25,4.09,0.07,0.97,1.58,2.62,
1.366,-5.25,4.09,0.07,0.99,1.72,2.66,
1.368,-3.23,3.19,-1.22,0.99,1.72,2.66,
1.368,-3.23,3.19,-1.22,1.01,1.87,2.69,
1.37,-3.23,3.19,-1.22,1.02,2.01,2.72,
1.372,-3.23,3.19,-1.22,1.02,2.21,2.74,
1.373,-3.23,3.19,-1.22,1.02,2.27,2.75,
1.376,-3.23,3.19,-1.22,1.01,2.37,2.76,
1.378,-1.78,1.19,-2.60,1.01,2.37,2.76,
1.378,-1.78,1.19,-2.60,1.00,2.46,2.76,
1.38,-1.78,1.19,-2.60,0.98,2.52,2.75,
1.383,-1.78,1.19,-2.60,0.94,2.60,2.72,
1.383,-1.78,1.19,-2.60,0.93,2.62,2.71,
1.386,-1.78,1.19,-2.60,0.88,2.65,2.67,
1.388,-0.22,-0.98,-3.34,0.88,2.65,2.67,
1.389,-0.22,-0.98,-3.34,0.84,2.68,2.62,
1.389,-0.22,-0.98,-3.34,0.78,2.69,2.57,
1.392,-0.22,-0.98,-3.34,0.68,2.70,2.48,
1.394,-0.22,-0.98,-3.34,0.64,2.70,2.44,
1.395,-0.22,-0.98,-3.34,0.55,2.71,2.36,
1.398,1.86,-3.00,-4.50,0.55,2.71,2.36,
1.398,1.86,-3.00,-4.50,0.45,2.70,2.27,
1.399,1.86,-3.00,-4.50,0.35,2.67,2.18,
1.403,1.86,-3.00,-4.50,0.19,2.64,2.00,
1.403,1.86,-3.00,-4.50,0.13,2.62,1.94,
1.405,1.86,-3.00,-4.50,0.02,2.58,1.81,
1.408,3.94,-5.03,-5.31,0.02,2.58,1.81,
1.408,3.94,-5.03,-5.31,-0.10,2.53,1.68,
1.409,3.94,-5.03,-5.31,-0.21,2.46,1.53,
1.412,3.94,-5.03,-5.31,-0.37,2.35,1.33,
1.413,3.94,-5.03,-5.31,-0.42,2.30,1.26,
1.419,3.94,-5.03,-5.31,-0.51,2.20,1.14,
1.419,4.96,-5.84,-4.64,-0.51,2.20,1.14,
1.42,4.96,-5.84,-4.64,-0.59,2.08,1.03,
1.42,4.96,-5.84,-4.64,-0.66,1.92,0.93,
1.422,4.96,-5.84,-4.64,-0.74,1.69,0.83,
1.429,4.96,-5.84,-4.64,-0.75,1.62,0.81,
1.429,4.96,-5.84,-4.64,-0.78,1.45,0.79,
1.429,3.00,-4.31,-2.46,-0.78,1.45,0.79,
1.429,3.00,-4.31,-2.46,-0.79,1.28,0.78,
1.429,3.00,-4.31,-2.46,-0.80,1.11,0.81,
1.443,3.00,-4.31,-2.46,-0.80,0.88,0.89,
1.443,3.00,-4.31,-2.46,-0.80,0.83,0.94,
1.443,3.00,-4.31,-2.46,-0.78,0.75,1.04,
1.443,-1.19,-1.08,-0.67,-0.78,0.75,1.04,
1.444,-1.19,-1.08,-0.67,-0.76,0.71,1.17,
1.444,-1.19,-1.08,-0.67,-0.73,0.68,1.31,
1.444,-1.19,-1.08,-0.67,-0.70,0.66,1.52,
1.446,-1.19,-1.08,-0.67,-0.69,0.66,1.59,
1.446,-1.19,-1.08,-0.67,-0.68,0.66,1.72,
1.449,-2.11,0.25,-0.93,-0.68,0.66,1.72,
1.449,-2.11,0.25,-0.93,-0.67,0.65,1.84,
1.449,-2.11,0.25,-0.93,-0.66,0.64,1.96,
1.452,-2.11,0.25,-0.93,-0.65,0.60,2.11,
1.464,-2.11,0.25,-0.93,-0.65,0.58,2.16,
1.464,-2.11,0.25,-0.93,-0.64,0.53,2.24,
1.465,-0.90,-0.44,-0.52,-0.64,0.53,2.24,
1.465,-0.90,-0.44,-0.52,-0.64,0.49,2.32,
1.465,-0.90,-0.44,-0.52,-0.63,0.44,2.39,
1.465,-0.90,-0.44,-0.52,-0.62,0.38,2.49,
1.465,-0.90,-0.44,-0.52,-0.61,0.35,2.52,
1.468,-0.90,-0.44,-0.52,-0.60,0.30,2.58,
1.468,0.09,-1.14,0.04,-0.60,0.30,2.58,
1.469,0.09,-1.14,0.04,-0.59,0.24,2.63,
1.47,0.09,-1.14,0.04,-0.59,0.18,2.67,
1.472,0.09,-1.14,0.04,-0.59,0.10,2.73,
1.474,0.09,-1.14,0.04,-0.59,0.07,2.75,
1.475,0.09,-1.14,0.04,-0.59,0.02,2.78,
1.478,0.88,-1.43,-0.59,-0.59,0.02,2.78,
1.478,0.88,-1.43,-0.59,-0.60,-0.01,2.81,
1.48,0.88,-1.43,-0.59,-0.62,-0.02,2.83,
1.482,0.88,-1.43,-0.59,-0.65,-0.01,2.87,
1.484,0.88,-1.43,-0.59,-0.66,0.01,2.87,
1.487,0.88,-1.43,-0.59,-0.68,0.05,2.89,
1.488,0.88,-1.69,-1.93,-0.68,0.05,2.89,
1.488,0.88,-1.69,-1.93,-0.71,0.12,2.90,
1.489,0.88,-1.69,-1.93,-0.74,0.22,2.91,
1.492,0.88,-1.69,-1.93,-0.77,0.41,2.92,
1.493,0.88,-1.69,-1.93,-0.79,0.56,2.91,
1.495,0.88,-1.69,-1.93,-0.80,0.64,2.91,
1.498,0.25,-1.82,-1.90,-0.80,0.64,2.91,
1.498,0.25,-1.82,-1.90,-0.82,0.81,2.90,
1.499,0.25,-1.82,-1.90,-0.83,0.99,2.87,
1.502,0.25,-1.82,-1.90,-0.87,1.25,2.83,
1.504,0.25,-1.82,-1.90,-0.88,1.33,2.81,
1.506,0.25,-1.82,-1.90,-0.91,1.46,2.78,
1.509,0.72,-1.86,-1.42,-0.91,1.46,2.78,
1.509,0.72,-1.86,-1.42,-0.95,1.57,2.74,
1.509,0.72,-1.86,-1.42,-0.98,1.68,2.70,
1.512,0.72,-1.86,-1.42,-1.04,1.85,2.63,
1.515,0.72,-1.86,-1.42,-1.06,1.90,2.61,
1.515,0.72,-1.86,-1.42,-1.09,2.02,2.56,
1.518,0.80,-1.39,-1.18,-1.09,2.02,2.56,
1.519,0.80,-1.39,-1.18,-1.12,2.13,2.52,
1.522,0.80,-1.39,-1.18,-1.16,2.25,2.47,
1.523,0.80,-1.39,-1.18,-1.22,2.40,2.39,
1.524,0.80,-1.39,-1.18,-1.23,2.45,2.36,
1.525,0.80,-1.39,-1.18,-1.27,2.53,2.29,
1.528,0.66,-0.60,-0.80,-1.27,2.53,2.29,
1.528,0.66,-0.60,-0.80,-1.30,2.59,2.22,
1.529,0.66,-0.60,-0.80,-1.34,2.63,2.12,
1.532,0.66,-0.60,-0.80,-1.40,2.64,1.94,
1.534,0.66,-0.60,-0.80,-1.42,2.63,1.87,
1.535,0.66,-0.60,-0.80,-1.45,2.58,1.74,
1.538,1.71,-0.37,0.42,-1.45,2.58,1.74,
1.538,1.71,-0.37,0.42,-1.49,2.50,1.60,
1.539,1.71,-0.37,0.42,-1.52,2.40,1.45,
1.543,1.71,-0.37,0.42,-1.56,2.21,1.24,
1.543,1.71,-0.37,0.42,-1.58,2.07,1.10,
1.545,1.71,-0.37,0.42,-1.59,1.99,1.03,
1.552,1.78,-0.42,1.56,-1.59,1.99,1.03,
1.552,1.78,-0.42,1.56,-1.62,1.83,0.90,
1.552,1.78,-0.42,1.56,-1.64,1.67,0.79,
1.552,1.78,-0.42,1.56,-1.66,1.47,0.63,
1.553,1.78,-0.42,1.56,-1.67,1.41,0.58,
1.56,1.78,-0.42,1.56,-1.68,1.30,0.49,
1.56,0.94,-0.09,1.52,-1.68,1.30,0.49,
1.56,0.94,-0.09,1.52,-1.69,1.20,0.42,
1.56,0.94,-0.09,1.52,-1.70,1.11,0.36,
1.562,0.94,-0.09,1.52,-1.70,1.02,0.28,
1.564,0.94,-0.09,1.52,-1.71,1.00,0.26,
1.574,0.94,-0.09,1.52,-1.71,0.97,0.23,
1.574,0.04,0.42,0.63,-1.71,0.97,0.23,
1.574,0.04,0.42,0.63,-1.70,0.96,0.20,
1.574,0.04,0.42,0.63,-1.70,0.98,0.19,
1.574,0.04,0.42,0.63,-1.69,1.02,0.17,
1.575,0.04,0.42,0.63,-1.69,1.03,0.16,
1.575,0.04,0.42,0.63,-1.69,1.06,0.15,
1.578,-0.15,0.72,-0.34,-1.69,1.06,0.15,
1.578,-0.15,0.72,-0.34,-1.69,1.08,0.15,
1.579,-0.15,0.72,-0.34,-1.69,1.09,0.15,
1.582,-0.15,0.72,-0.34,-1.71,1.10,0.16,
1.584,-0.15,0.72,-0.34,-1.72,1.11,0.16,
1.585,-0.15,0.72,-0.34,-1.74,1.15,0.18,
1.587,0.68,0.59,-0.77,-1.74,1.15,0.18,
1.588,0.68,0.59,-0.77,-1.76,1.21,0.20,
1.589,0.68,0.59,-0.77,-1.78,1.31,0.22,
1.592,0.68,0.59,-0.77,-1.81,1.44,0.26,
1.594,0.68,0.59,-0.77,-1.84,1.52,0.29,
1.595,0.68,0.59,-0.77,-1.85,1.56,0.31,
1.598,1.95,-0.24,-1.39,-1.85,1.56,0.31,
1.598,1.95,-0.24,-1.39,-1.88,1.63,0.34,
1.599,1.95,-0.24,-1.39,-1.90,1.69,0.37,
1.602,1.95,-0.24,-1.39,-1.94,1.78,0.41,
1.604,1.95,-0.24,-1.39,-1.96,1.84,0.43,
1.605,1.95,-0.24,-1.39,-1.97,1.88,0.44,
1.608,2.66,-0.63,-1.47,-1.97,1.88,0.44,
1.608,2.66,-0.63,-1.47,-1.98,1.94,0.45,
1.609,2.66,-0.63,-1.47,-1.99,2.00,0.47,
1.612,2.66,-0.63,-1.47,-2.00,2.08,0.49,
1.614,2.66,-0.63,-1.47,-2.01,2.10,0.49,
1.616,2.66,-0.63,-1.47,-2.01,2.15,0.50,
1.618,2.58,-0.59,-1.31,-2.01,2.15,0.50,
1.618,2.58,-0.59,-1.31,-2.01,2.19,0.52,
1.638,2.58,-0.59,-1.31,-2.01,2.23,0.53,
1.639,2.58,-0.59,-1.31,-2.01,2.25,0.53,
1.639,2.58,-0.59,-1.31,-2.00,2.25,0.53,
1.64,2.58,-0.59,-1.31,-1.99,2.24,0.53,
1.64,2.43,-0.49,-0.86,-1.99,2.24,0.53,
1.64,2.43,-0.49,-0.86,-1.97,2.21,0.53,
1.641,2.43,-0.49,-0.86,-1.94,2.17,0.53,
1.641,2.43,-0.49,-0.86,-1.90,2.09,0.53,
1.642,2.43,-0.49,-0.86,-1.88,2.06,0.53,
1.642,2.43,-0.49,-0.86,-1.85,2.00,0.53,
1.642,2.08,-0.40,-0.31,-1.85,2.00,0.53,
1.643,2.08,-0.40,-0.31,-1.81,1.95,0.52,
1.643,2.08,-0.40,-0.31,-1.77,1.90,0.51,
1.644,2.08,-0.40,-0.31,-1.70,1.85,0.51,
1.644,2.08,-0.40,-0.31,-1.68,1.83,0.51,
1.65,2.08,-0.40,-0.31,-1.62,1.80,0.50,
1.651,1.49,-0.29,-0.01,-1.62,1.80,0.50,
1.652,1.49,-0.29,-0.01,-1.57,1.77,0.50,
1.652,1.49,-0.29,-0.01,-1.50,1.74,0.49,
1.652,1.49,-0.29,-0.01,-1.41,1.72,0.49,
1.654,1.49,-0.29,-0.01,-1.35,1.72,0.49,
1.657,1.49,-0.29,-0.01,-1.29,1.72,0.50,
1.659,0.86,-0.12,0.06,-1.29,1.72,0.50,
1.659,0.86,-0.12,0.06,-1.25,1.72,0.50,
1.659,0.86,-0.12,0.06,-1.19,1.72,0.50,
1.662,0.86,-0.12,0.06,-1.11,1.72,0.51,
1.665,0.86,-0.12,0.06,-1.08,1.72,0.52,
1.666,0.86,-0.12,0.06,-1.03,1.72,0.53,
1.669,0.54,0.06,-0.01,-1.03,1.72,0.53,
1.669,0.54,0.06,-0.01,-0.98,1.72,0.54,
1.67,0.54,0.06,-0.01,-0.93,1.71,0.55,
1.674,0.54,0.06,-0.01,-0.87,1.70,0.57,
1.674,0.54,0.06,-0.01,-0.86,1.69,0.58,
1.675,0.54,0.06,-0.01,-0.83,1.69,0.60,
1.678,0.56,0.32,-0.05,-0.83,1.69,0.60,
1.678,0.56,0.32,-0.05,-0.80,1.69,0.62,
1.679,0.56,0.32,-0.05,-0.78,1.70,0.64,
1.689,0.56,0.32,-0.05,-0.76,1.70,0.67,
1.69,0.56,0.32,-0.05,-0.75,1.71,0.68,
1.69,0.56,0.32,-0.05,-0.75,1.72,0.70,
1.69,0.65,0.71,-0.00,-0.75,1.72,0.70,
1.69,0.65,0.71,-0.00,-0.74,1.73,0.72,
1.691,0.65,0.71,-0.00,-0.74,1.74,0.74,
1.696,0.65,0.71,-0.00,-0.75,1.76,0.76,
1.718,0.65,0.71,-0.00,-0.76,1.78,0.77,
1.719,0.65,0.71,-0.00,-0.76,1.79,0.78,
1.719,1.01,1.02,0.07,-0.76,1.79,0.78,
1.719,1.01,1.02,0.07,-0.78,1.81,0.78,
1.72,1.01,1.02,0.07,-0.79,1.84,0.78,
1.72,1.01,1.02,0.07,-0.81,1.88,0.77,
1.72,1.01,1.02,0.07,-0.82,1.89,0.77,
1.72,1.01,1.02,0.07,-0.84,1.92,0.76,
1.72,1.34,1.20,0.08,-0.84,1.92,0.76,
1.721,1.34,1.20,0.08,-0.87,1.95,0.75,
1.721,1.34,1.20,0.08,-0.89,1.99,0.73,
1.721,1.34,1.20,0.08,-0.93,2.02,0.71,
1.721,1.34,1.20,0.08,-0.96,2.04,0.69,
1.722,1.34,1.20,0.08,-0.97,2.04,0.68,
1.722,1.34,1.11,-0.10,-0.97,2.04,0.68,
1.722,1.34,1.11,-0.10,-0.99,2.06,0.66,
1.722,1.34,1.11,-0.10,-1.02,2.07,0.64,
1.723,1.34,1.11,-0.10,-1.05,2.08,0.60,
1.726,1.34,1.11,-0.10,-1.06,2.08,0.58,
1.726,1.34,1.11,-0.10,-1.07,2.08,0.56,
1.728,0.97,1.11,-0.08,-1.07,2.08,0.56,
1.728,0.97,1.11,-0.08,-1.08,2.08,0.53,
1.731,0.97,1.11,-0.08,-1.09,2.08,0.50,
1.733,0.97,1.11,-0.08,-1.10,2.08,0.45,
1.734,0.97,1.11,-0.08,-1.10,2.08,0.44,
1.735,0.97,1.11,-0.08,-1.10,2.07,0.41,
1.738,0.62,1.03,0.15,-1.10,2.07,0.41,
1.738,0.62,1.03,0.15,-1.09,2.07,0.39,
1.739,0.62,1.03,0.15,-1.08,2.07,0.37,
1.742,0.62,1.03,0.15,-1.05,2.06,0.34,
1.744,0.62,1.03,0.15,-1.04,2.06,0.34,
1.746,0.62,1.03,0.15,-1.02,2.05,0.33,
1.751,0.13,1.08,0.47,-1.02,2.05,0.33,
1.752,0.13,1.08,0.47,-0.99,2.04,0.33,
1.752,0.13,1.08,0.47,-0.96,2.03,0.33,
1.752,0.13,1.08,0.47,-0.92,2.01,0.34,
1.754,0.13,1.08,0.47,-0.90,2.00,0.35,
1.755,0.13,1.08,0.47,-0.87,1.99,0.37,
1.758,-0.59,1.16,0.84,-0.87,1.99,0.37,
1.759,-0.59,1.16,0.84,-0.83,1.98,0.39,
1.759,-0.59,1.16,0.84,-0.79,1.96,0.43,
1.763,-0.59,1.16,0.84,-0.74,1.95,0.48,
1.768,-0.59,1.16,0.84,-0.71,1.94,0.52,
1.768,-0.59,1.16,0.84,-0.70,1.94,0.54,
1.768,-1.23,1.24,1.09,-0.70,1.94,0.54,
1.768,-1.23,1.24,1.09,-0.67,1.95,0.58,
1.77,-1.23,1.24,1.09,-0.65,1.97,0.62,
1.773,-1.23,1.24,1.09,-0.62,2.01,0.69,
1.774,-1.23,1.24,1.09,-0.61,2.03,0.70,
1.775,-1.23,1.24,1.09,-0.60,2.08,0.74,
1.778,-1.39,1.43,1.07,-0.60,2.08,0.74,
1.779,-1.39,1.43,1.07,-0.59,2.13,0.77,
1.78,-1.39,1.43,1.07,-0.59,2.19,0.79,
1.787,-1.39,1.43,1.07,-0.60,2.29,0.82,
1.788,-1.39,1.43,1.07,-0.60,2.33,0.82,
1.788,-1.39,1.43,1.07,-0.61,2.40,0.83,
1.809,-0.92,1.73,0.91,-0.61,2.40,0.83,
1.809,-0.92,1.73,0.91,-0.63,2.48,0.82,
1.811,-0.92,1.73,0.91,-0.64,2.55,0.80,
1.811,-0.92,1.73,0.91,-0.68,2.67,0.77,
1.811,-0.92,1.73,0.91,-0.70,2.74,0.74,
1.812,-0.92,1.73,0.91,-0.71,2.78,0.72,
1.812,-0.31,2.18,0.61,-0.71,2.78,0.72,
1.812,-0.31,2.18,0.61,-0.74,2.85,0.69,
1.812,-0.31,2.18,0.61,-0.76,2.91,0.65,
1.813,-0.31,2.18,0.61,-0.78,3.00,0.60,
1.813,-0.31,2.18,0.61,-0.79,3.06,0.57,
1.813,-0.31,2.18,0.61,-0.79,3.09,0.56,
1.813,-0.10,2.59,0.83,-0.79,3.09,0.56,
1.814,-0.10,2.59,0.83,-0.79,3.15,0.54,
1.814,-0.10,2.59,0.83,-0.77,3.20,0.53,
1.814,-0.10,2.59,0.83,-0.73,3.24,0.53,
1.814,-0.10,2.59,0.83,-0.71,3.23,0.54,
1.82,-0.10,2.59,0.83,-0.66,3.21,0.57,
1.82,-0.57,2.68,1.49,-0.66,3.21,0.57,
1.821,-0.57,2.68,1.49,-0.58,3.17,0.61,
1.821,-0.57,2.68,1.49,-0.50,3.12,0.66,
1.823,-0.57,2.68,1.49,-0.35,3.02,0.75,
1.823,-0.57,2.68,1.49,-0.30,2.99,0.78,
1.826,-0.57,2.68,1.49,-0.21,2.90,0.85,
1.828,-1.25,2.47,2.21,-0.21,2.90,0.85,
1.828,-1.25,2.47,2.21,-0.13,2.80,0.93,
1.839,-1.25,2.47,2.21,-0.05,2.69,1.02,
1.839,-1.25,2.47,2.21,0.04,2.54,1.17,
1.839,-1.25,2.47,2.21,0.07,2.44,1.28,
1.84,-1.25,2.47,2.21,0.08,2.40,1.33,
1.84,-2.14,2.70,1.43,0.08,2.40,1.33,
1.84,-2.14,2.70,1.43,0.10,2.32,1.44,
1.84,-2.14,2.70,1.43,0.10,2.26,1.55,
1.843,-2.14,2.70,1.43,0.09,2.23,1.71,
1.843,-2.14,2.70,1.43,0.07,2.25,1.81,
1.886,-2.14,2.70,1.43,0.06,2.26,1.86,
1.888,-2.71,3.08,0.42,0.06,2.26,1.86,
1.889,-2.71,3.08,0.42,0.03,2.31,1.96,
1.89,-2.71,3.08,0.42,-0.01,2.37,2.05,
1.89,-2.71,3.08,0.42,-0.07,2.46,2.16,
1.89,-2.71,3.08,0.42,-0.12,2.53,2.23,
1.89,-2.71,3.08,0.42,-0.15,2.56,2.27,
1.891,-2.31,3.34,-0.47,-0.15,2.56,2.27,
1.891,-2.31,3.34,-0.47,-0.21,2.61,2.32,
1.891,-2.31,3.34,-0.47,-0.27,2.65,2.37,
1.891,-2.31,3.34,-0.47,-0.38,2.69,2.43,
1.892,-2.31,3.34,-0.47,-0.45,2.69,2.45,
1.892,-2.31,3.34,-0.47,-0.49,2.69,2.47,
1.892,-1.62,4.05,-1.28,-0.49,2.69,2.47,
1.892,-1.62,4.05,-1.28,-0.57,2.68,2.48,
1.892,-1.62,4.05,-1.28,-0.65,2.65,2.50,
1.893,-1.62,4.05,-1.28,-0.78,2.60,2.50,
1.893,-1.62,4.05,-1.28,-0.86,2.55,2.50,
1.893,-1.62,4.05,-1.28,-0.91,2.52,2.50,
1.893,-1.13,5.11,-2.27,-0.91,2.52,2.50,
1.894,-1.13,5.11,-2.27,-1.00,2.47,2.49,
1.894,-1.13,5.11,-2.27,-1.08,2.42,2.48,
1.894,-1.13,5.11,-2.27,-1.21,2.37,2.48,
1.894,-1.13,5.11,-2.27,-1.29,2.36,2.47,
1.895,-1.13,5.11,-2.27,-1.33,2.36,2.47,
1.895,-1.14,6.02,-3.05,-1.33,2.36,2.47,
1.895,-1.14,6.02,-3.05,-1.41,2.38,2.47,
1.895,-1.14,6.02,-3.05,-1.49,2.42,2.48,
1.895,-1.14,6.02,-3.05,-1.61,2.50,2.48,
1.896,-1.14,6.02,-3.05,-1.69,2.56,2.48,
1.896,-1.14,6.02,-3.05,-1.73,2.58,2.48,
1.899,-1.12,6.70,-3.60,-1.73,2.58,2.48,
1.9,-1.12,6.70,-3.60,-1.82,2.64,2.48,
1.901,-1.12,6.70,-3.60,-1.90,2.71,2.48,
1.902,-1.12,6.70,-3.60,-2.01,2.79,2.48,
1.906,-1.12,6.70,-3.60,-2.08,2.83,2.48,
1.906,-1.12,6.70,-3.60,-2.11,2.84,2.48,
1.908,-1.00,7.21,-4.02,-2.11,2.84,2.48,
1.908,-1.00,7.21,-4.02,-2.18,2.86,2.47,
1.909,-1.00,7.21,-4.02,-2.25,2.87,2.46,
1.923,-1.00,7.21,-4.02,-2.33,2.86,2.44,
1.923,-1.00,7.21,-4.02,-2.39,2.85,2.43,
1.923,-1.00,7.21,-4.02,-2.41,2.85,2.42,
1.923,-0.69,7.84,-3.55,-2.41,2.85,2.42,
1.923,-0.69,7.84,-3.55,-2.46,2.84,2.40,
1.924,-0.69,7.84,-3.55,-2.51,2.82,2.39,
1.924,-0.69,7.84,-3.55,-2.59,2.80,2.37,
1.924,-0.69,7.84,-3.55,-2.64,2.79,2.35,
1.925,-0.69,7.84,-3.55,-2.66,2.79,2.35,
1.927,-0.53,8.02,-3.26,-2.66,2.79,2.35,
1.928,-0.53,8.02,-3.26,-2.71,2.79,2.34,
1.952,-0.53,8.02,-3.26,-2.76,2.79,2.32,
1.952,-0.53,8.02,-3.26,-2.84,2.79,2.31,
1.952,-0.53,8.02,-3.26,-2.89,2.79,2.29,
1.952,-0.53,8.02,-3.26,-2.92,2.79,2.29,
1.952,-0.29,7.99,-2.99,-2.92,2.79,2.29,
1.953,-0.29,7.99,-2.99,-2.97,2.79,2.27,
1.953,-0.29,7.99,-2.99,-3.00,2.79,2.26,
1.953,-0.29,7.99,-2.99,-3.02,2.79,2.23,
1.953,-0.29,7.99,-2.99,-3.03,2.76,2.22,
1.953,-0.29,7.99,-2.99,-3.02,2.74,2.21,
1.953,-0.02,7.90,-1.94,-3.02,2.74,2.21,
1.954,-0.02,7.90,-1.94,-3.01,2.70,2.20,
1.954,-0.02,7.90,-1.94,-2.98,2.65,2.18,
1.954,-0.02,7.90,-1.94,-2.79,2.47,2.15,
1.965,-0.02,7.90,-1.94,-2.39,2.21,2.10,
1.966,-0.02,7.90,-1.94,-2.17,2.09,2.06,
1.966,1.30,6.17,9.80,-2.17,2.09,2.06,
1.966,1.30,6.17,9.80,-1.72,1.87,2.00,
1.967,1.30,6.17,9.80,-1.25,1.66,1.92,
1.967,1.30,6.17,9.80,-0.56,1.35,1.81,
1.967,1.30,6.17,9.80,-0.14,1.19,1.75,
1.967,1.30,6.17,9.80,0.07,1.12,1.73,
1.967,2.68,2.86,16.09,0.07,1.12,1.73,
1.968,2.68,2.86,16.09,0.48,0.95,1.72,
1.97,2.68,2.86,16.09,0.83,0.74,1.75,
1.972,2.68,2.86,16.09,1.27,0.40,1.86,
1.973,2.68,2.86,16.09,1.54,0.14,1.99,
1.975,2.68,2.86,16.09,1.67,0.00,2.06,
1.987,0.75,-8.55,10.64,1.67,0.00,2.06,
1.988,0.75,-8.55,10.64,1.88,-0.32,2.24,
1.988,0.75,-8.55,10.64,2.05,-0.70,2.48,
1.988,0.75,-8.55,10.64,2.22,-1.44,2.97,
1.989,0.75,-8.55,10.64,2.30,-2.00,3.37,
1.989,0.75,-8.55,10.64,2.33,-2.30,3.60,
1.989,-9.29,-26.13,2.45,2.33,-2.30,3.60,
1.989,-9.29,-26.13,2.45,2.37,-2.93,4.07,
1.989,-9.29,-26.13,2.45,2.39,-3.54,4.58,
1.992,-9.29,-26.13,2.45,2.45,-4.55,5.68,
1.993,-9.29,-26.13,2.45,2.48,-4.76,5.95,
1.997,-9.29,-26.13,2.45,2.50,-4.95,6.21,
1.998,-18.09,-41.51,-2.23,2.50,-4.95,6.21,
1.998,-18.09,-41.51,-2.23,2.54,-5.28,6.68,
1.999,-18.09,-41.51,-2.23,2.60,-5.55,7.11,
2.002,-18.09,-41.51,-2.23,2.69,-5.80,7.63,
2.003,-18.09,-41.51,-2.23,2.75,-5.88,7.89,
2.006,-18.09,-41.51,-2.23,2.81,-5.86,8.07,
2.008,-15.59,-44.00,-2.39,2.81,-5.86,8.07,
2.008,-15.59,-44.00,-2.39,2.87,-5.70,8.16,
2.009,-15.59,-44.00,-2.39,2.91,-5.55,8.17,
2.014,-15.59,-44.00,-2.39,3.04,-4.85,8.02,
2.015,-15.59,-44.00,-2.39,3.13,-4.21,7.78,
2.016,-15.59,-44.00,-2.39,3.18,-3.86,7.63,
2.017,-6.61,-33.42,-2.23,3.18,-3.86,7.63,
2.018,-6.61,-33.42,-2.23,3.24,-3.16,7.29,
2.019,-6.61,-33.42,-2.23,3.27,-2.46,6.92,
2.022,-6.61,-33.42,-2.23,3.29,-1.44,6.33,
2.023,-6.61,-33.42,-2.23,3.28,-0.74,5.93,
2.025,-6.61,-33.42,-2.23,3.28,-0.39,5.73,
2.027,1.49,-18.82,-3.15,3.28,-0.39,5.73,
2.028,1.49,-18.82,-3.15,3.27,0.31,5.33,
2.032,1.49,-18.82,-3.15,3.27,0.99,4.93,
2.032,1.49,-18.82,-3.15,3.27,1.91,4.35,
2.033,1.49,-18.82,-3.15,3.26,2.45,3.96,
2.035,1.49,-18.82,-3.15,3.25,2.69,3.77,
2.037,6.03,-7.62,-3.95,3.25,2.69,3.77,
2.037,6.03,-7.62,-3.95,3.23,3.12,3.38,
2.039,6.03,-7.62,-3.95,3.23,3.50,3.00,
2.042,6.03,-7.62,-3.95,3.24,3.99,2.42,
2.043,6.03,-7.62,-3.95,3.27,4.25,2.05,
2.046,6.03,-7.62,-3.95,3.29,4.37,1.86,
2.048,9.50,-0.62,-2.90,3.29,4.37,1.86,
2.048,9.50,-0.62,-2.90,3.35,4.57,1.50,
2.049,9.50,-0.62,-2.90,3.42,4.74,1.16,
2.052,9.50,-0.62,-2.90,3.57,4.90,0.68,
2.053,9.50,-0.62,-2.90,3.67,4.95,0.38,
2.055,9.50,-0.62,-2.90,3.73,4.96,0.24,
2.057,9.72,3.67,-0.24,3.73,4.96,0.24,
2.058,9.72,3.67,-0.24,3.84,4.93,-0.03,
2.059,9.72,3.67,-0.24,3.96,4.86,-0.27,
2.071,9.72,3.67,-0.24,4.14,4.65,-0.57,
2.071,9.72,3.67,-0.24,4.26,4.45,-0.72,
2.071,9.72,3.67,-0.24,4.33,4.34,-0.79,
2.071,6.54,5.04,1.52,4.33,4.34,-0.79,
2.072,6.54,5.04,1.52,4.45,4.10,-0.88,
2.072,6.54,5.04,1.52,4.57,3.84,-0.94,
2.072,6.54,5.04,1.52,4.74,3.44,-0.97,
2.073,6.54,5.04,1.52,4.84,3.17,-0.97,
2.075,6.54,5.04,1.52,4.89,3.04,-0.96,
2.077,1.47,4.09,1.37,4.89,3.04,-0.96,
2.078,1.47,4.09,1.37,4.97,2.78,-0.94,
2.102,1.47,4.09,1.37,5.03,2.53,-0.90,
2.103,1.47,4.09,1.37,5.08,2.18,-0.82,
2.103,1.47,4.09,1.37,5.10,1.96,-0.75,
2.104,1.47,4.09,1.37,5.10,1.86,-0.72,
2.104,-2.15,2.59,-1.06,5.10,1.86,-0.72,
2.104,-2.15,2.59,-1.06,5.08,1.67,-0.64,
2.105,-2.15,2.59,-1.06,5.04,1.51,-0.55,
2.105,-2.15,2.59,-1.06,4.92,1.29,-0.37,
2.105,-2.15,2.59,-1.06,4.87,1.25,-0.33,
2.106,-2.15,2.59,-1.06,4.83,1.23,-0.28,
2.106,-4.45,0.63,-3.65,4.83,1.23,-0.28,
2.107,-4.45,0.63,-3.65,4.73,1.20,-0.18,
2.107,-4.45,0.63,-3.65,4.61,1.20,-0.09,
2.107,-4.45,0.63,-3.65,4.42,1.25,0.06,
2.108,-4.45,0.63,-3.65,4.28,1.30,0.15,
2.108,-4.45,0.63,-3.65,4.21,1.33,0.20,
2.108,-6.04,-0.93,-4.78,4.21,1.33,0.20,
2.109,-6.04,-0.93,-4.78,4.07,1.39,0.27,
2.11,-6.04,-0.93,-4.78,3.93,1.45,0.34,
2.113,-6.04,-0.93,-4.78,3.72,1.53,0.41,
2.115,-6.04,-0.93,-4.78,3.60,1.57,0.43,
2.116,-6.04,-0.93,-4.78,3.49,1.58,0.43,
2.119,-4.70,-1.74,-3.30,3.49,1.58,0.43,
2.119,-4.70,-1.74,-3.30,3.40,1.57,0.41,
2.151,-4.70,-1.74,-3.30,3.17,1.33,0.28,
2.151,-4.70,-1.74,-3.30,3.17,1.33,0.28,
2.151,-4.70,-1.74,-3.30,3.17,1.33,0.28,
2.152,-4.70,-1.74,-3.30,3.11,1.20,0.22,
2.152,-2.00,-2.30,-0.46,3.11,1.20,0.22,
2.153,-2.00,-2.30,-0.46,3.07,1.05,0.17,
2.153,-2.00,-2.30,-0.46,3.02,0.90,0.12,
2.154,-2.00,-2.30,-0.46,2.98,0.73,0.07,
2.154,-2.00,-2.30,-0.46,2.95,0.57,0.02,
2.155,-2.00,-2.30,-0.46,2.91,0.42,-0.01,
2.155,-1.28,-2.39,0.83,2.91,0.42,-0.01,
2.155,-1.28,-2.39,0.83,2.88,0.27,-0.05,
2.156,-1.28,-2.39,0.83,2.85,0.12,-0.09,
2.156,-1.28,-2.39,0.83,2.83,-0.01,-0.12,
2.157,-1.28,-2.39,0.83,2.81,-0.12,-0.15,
2.157,-1.28,-2.39,0.83,2.79,-0.21,-0.17,
2.157,-1.22,-2.18,0.96,2.79,-0.21,-0.17,
2.158,-1.22,-2.18,0.96,2.78,-0.29,-0.19,
2.158,-1.22,-2.18,0.96,2.78,-0.35,-0.22,
2.159,-1.22,-2.18,0.96,2.78,-0.40,-0.24,
2.159,-1.22,-2.18,0.96,2.78,-0.43,-0.26,
2.159,-1.22,-2.18,0.96,2.78,-0.45,-0.27,
2.16,-0.98,-1.83,0.56,2.78,-0.45,-0.27,
2.16,-0.98,-1.83,0.56,2.78,-0.46,-0.29,
2.161,-0.98,-1.83,0.56,2.79,-0.47,-0.31,
2.167,-0.98,-1.83,0.56,2.80,-0.47,-0.32,
2.168,-0.98,-1.83,0.56,2.81,-0.46,-0.33,
2.168,-0.98,-1.83,0.56,2.83,-0.45,-0.33,
2.168,-0.72,-1.25,-0.18,2.83,-0.45,-0.33,
2.168,-0.72,-1.25,-0.18,2.84,-0.43,-0.33,
2.169,-0.72,-1.25,-0.18,2.86,-0.42,-0.33,
2.172,-0.72,-1.25,-0.18,2.88,-0.42,-0.34,
2.173,-0.72,-1.25,-0.18,2.89,-0.40,-0.34,
2.175,-0.72,-1.25,-0.18,2.91,-0.39,-0.34,
2.177,-0.55,-0.67,-0.82,2.91,-0.39,-0.34,
2.178,-0.55,-0.67,-0.82,2.93,-0.37,-0.34,
2.179,-0.55,-0.67,-0.82,2.95,-0.34,-0.33,
2.182,-0.55,-0.67,-0.82,2.98,-0.30,-0.33,
2.183,-0.55,-0.67,-0.82,3.00,-0.27,-0.32,
2.185,-0.55,-0.67,-0.82,3.03,-0.23,-0.31,
2.187,-0.56,-0.32,-1.19,3.03,-0.23,-0.31,
2.188,-0.56,-0.32,-1.19,3.05,-0.20,-0.29,
2.19,-0.56,-0.32,-1.19,3.07,-0.16,-0.28,
2.193,-0.56,-0.32,-1.19,3.09,-0.13,-0.26,
2.193,-0.56,-0.32,-1.19,3.10,-0.08,-0.24,
2.21,-0.56,-0.32,-1.19,3.12,-0.04,-0.23,
2.211,-0.58,0.02,-1.71,3.12,-0.04,-0.23,
2.211,-0.58,0.02,-1.71,3.13,0.01,-0.21,
2.211,-0.58,0.02,-1.71,3.14,0.06,-0.19,
2.212,-0.58,0.02,-1.71,3.14,0.11,-0.18,
2.212,-0.58,0.02,-1.71,3.14,0.17,-0.16,
2.212,-0.58,0.02,-1.71,3.15,0.23,-0.14,
2.212,-0.50,0.42,-2.35,3.15,0.23,-0.14,
2.213,-0.50,0.42,-2.35,3.15,0.28,-0.13,
2.213,-0.50,0.42,-2.35,3.14,0.34,-0.12,
2.254,-0.50,0.42,-2.35,3.14,0.38,-0.11,
2.255,-0.50,0.42,-2.35,3.13,0.42,-0.10,
2.255,-0.50,0.42,-2.35,3.12,0.46,-0.09,
2.256,-0.17,0.84,-2.70,3.12,0.46,-0.09,
2.256,-0.17,0.84,-2.70,3.11,0.48,-0.08,
2.256,-0.17,0.84,-2.70,3.09,0.50,-0.07,
2.257,-0.17,0.84,-2.70,3.08,0.52,-0.07,
2.257,-0.17,0.84,-2.70,3.06,0.53,-0.06,
2.258,-0.17,0.84,-2.70,3.03,0.53,-0.05,
2.258,0.13,1.18,-2.99,3.03,0.53,-0.05,
2.258,0.13,1.18,-2.99,3.01,0.53,-0.04,
2.259,0.13,1.18,-2.99,2.97,0.52,-0.03,
2.259,0.13,1.18,-2.99,2.94,0.51,-0.02,
2.259,0.13,1.18,-2.99,2.90,0.49,-0.00,
2.26,0.13,1.18,-2.99,2.86,0.47,0.01,
2.26,0.47,1.51,-3.13,2.86,0.47,0.01,
2.26,0.47,1.51,-3.13,2.82,0.45,0.03,
2.261,0.47,1.51,-3.13,2.78,0.42,0.05,
2.261,0.47,1.51,-3.13,2.74,0.38,0.07,
2.261,0.47,1.51,-3.13,2.70,0.35,0.10,
2.262,0.47,1.51,-3.13,2.66,0.31,0.12,
2.263,0.87,1.71,-3.03,2.66,0.31,0.12,
2.264,0.87,1.71,-3.03,2.61,0.27,0.15,
2.265,0.87,1.71,-3.03,2.57,0.22,0.19,
2.266,0.87,1.71,-3.03,2.52,0.17,0.22,
2.266,0.87,1.71,-3.03,2.46,0.10,0.24,
2.266,0.87,1.71,-3.03,2.42,0.04,0.27,
2.266,1.45,1.92,-2.90,2.42,0.04,0.27,
2.267,1.45,1.92,-2.90,2.37,-0.01,0.29,
2.267,1.45,1.92,-2.90,2.32,-0.06,0.31,
2.267,1.45,1.92,-2.90,2.27,-0.11,0.32,
2.267,1.45,1.92,-2.90,2.23,-0.14,0.34,
2.267,1.45,1.92,-2.90,2.18,-0.17,0.35,
2.268,2.00,2.06,-2.73,2.18,-0.17,0.35,
2.268,2.00,2.06,-2.73,2.14,-0.19,0.36,
2.276,2.00,2.06,-2.73,2.10,-0.21,0.36,
2.277,2.00,2.06,-2.73,2.05,-0.22,0.36,
2.277,2.00,2.06,-2.73,2.02,-0.23,0.36,
2.277,2.00,2.06,-2.73,1.98,-0.23,0.36,
2.278,2.02,2.05,-2.60,1.98,-0.23,0.36,
2.278,2.02,2.05,-2.60,1.94,-0.22,0.35,
2.283,2.02,2.05,-2.60,1.91,-0.20,0.34,
2.284,2.02,2.05,-2.60,1.89,-0.17,0.33,
2.284,2.02,2.05,-2.60,1.86,-0.14,0.32,
2.286,2.02,2.05,-2.60,1.84,-0.11,0.30,
2.309,1.94,2.13,-2.27,1.84,-0.11,0.30,
2.309,1.94,2.13,-2.27,1.82,-0.08,0.29,
2.31,1.94,2.13,-2.27,1.80,-0.04,0.28,
2.31,1.94,2.13,-2.27,1.77,0.00,0.26,
2.31,1.94,2.13,-2.27,1.76,0.01,0.26,
2.31,1.94,2.13,-2.27,1.74,0.04,0.25,
2.31,1.66,2.26,-2.14,1.74,0.04,0.25,
2.311,1.66,2.26,-2.14,1.72,0.05,0.24,
2.311,1.66,2.26,-2.14,1.70,0.07,0.23,
2.311,1.66,2.26,-2.14,1.68,0.08,0.23,
2.311,1.66,2.26,-2.14,1.65,0.08,0.23,
2.311,1.66,2.26,-2.14,1.63,0.08,0.22,
2.311,1.34,2.46,-2.25,1.63,0.08,0.22,
2.312,1.34,2.46,-2.25,1.60,0.07,0.22,
2.312,1.34,2.46,-2.25,1.58,0.05,0.21,
2.316,1.34,2.46,-2.25,1.55,0.02,0.20,
2.316,1.34,2.46,-2.25,1.52,-0.01,0.19,
2.317,1.34,2.46,-2.25,1.50,-0.06,0.18,
2.321,1.25,2.45,-2.35,1.50,-0.06,0.18,
2.321,1.25,2.45,-2.35,1.46,-0.10,0.17,
2.321,1.25,2.45,-2.35,1.44,-0.14,0.15,
2.322,1.25,2.45,-2.35,1.41,-0.17,0.14,
2.323,1.25,2.45,-2.35,1.38,-0.21,0.13,
2.326,1.25,2.45,-2.35,1.35,-0.23,0.12,
2.329,1.00,2.36,-2.36,1.35,-0.23,0.12,
2.33,1.00,2.36,-2.36,1.33,-0.25,0.11,
2.33,1.00,2.36,-2.36,1.31,-0.26,0.10,
2.333,1.00,2.36,-2.36,1.29,-0.26,0.08,
2.333,1.00,2.36,-2.36,1.27,-0.26,0.06,
2.335,1.00,2.36,-2.36,1.26,-0.26,0.04,
2.337,1.03,2.05,-2.06,1.26,-0.26,0.04,
2.338,1.03,2.05,-2.06,1.24,-0.25,0.03,
2.339,1.03,2.05,-2.06,1.23,-0.24,0.02,
2.342,1.03,2.05,-2.06,1.21,-0.23,0.00,
2.351,1.03,2.05,-2.06,1.20,-0.21,-0.01,
2.351,1.03,2.05,-2.06,1.19,-0.18,-0.03,
2.351,1.01,1.68,-1.63,1.19,-0.18,-0.03,
2.351,1.01,1.68,-1.63,1.18,-0.15,-0.05,
2.352,1.01,1.68,-1.63,1.17,-0.12,-0.06,
2.352,1.01,1.68,-1.63,1.17,-0.08,-0.08,
2.353,1.01,1.68,-1.63,1.16,-0.05,-0.10,
2.357,1.01,1.68,-1.63,1.16,0.01,-0.14,
2.359,1.34,1.23,-1.22,1.16,0.01,-0.14,
2.359,1.34,1.23,-1.22,1.15,0.03,-0.15,
2.359,1.34,1.23,-1.22,1.15,0.06,-0.17,
2.395,1.34,1.23,-1.22,1.14,0.10,-0.19,
2.395,1.34,1.23,-1.22,1.13,0.14,-0.20,
2.396,1.34,1.23,-1.22,1.12,0.18,-0.22,
2.396,1.83,0.55,-0.89,1.12,0.18,-0.22,
2.396,1.83,0.55,-0.89,1.12,0.23,-0.25,
2.396,1.83,0.55,-0.89,1.11,0.29,-0.28,
2.396,1.83,0.55,-0.89,1.11,0.34,-0.31,
2.396,1.83,0.55,-0.89,1.11,0.40,-0.34,
2.397,1.83,0.55,-0.89,1.11,0.47,-0.37,
2.397,2.42,0.24,-0.31,1.11,0.47,-0.37,
2.397,2.42,0.24,-0.31,1.10,0.54,-0.40,
2.397,2.42,0.24,-0.31,1.10,0.61,-0.44,
2.397,2.42,0.24,-0.31,1.09,0.67,-0.47,
2.398,2.42,0.24,-0.31,1.08,0.73,-0.50,
2.398,2.42,0.24,-0.31,1.08,0.79,-0.53,
2.398,2.89,0.02,0.33,1.08,0.79,-0.53,
2.398,2.89,0.02,0.33,1.07,0.85,-0.56,
2.399,2.89,0.02,0.33,1.05,0.90,-0.58,
2.399,2.89,0.02,0.33,1.03,0.98,-0.63,
2.399,2.89,0.02,0.33,1.02,1.01,-0.64,
2.399,2.89,0.02,0.33,1.00,1.04,-0.67,
2.419,3.24,0.51,0.87,1.00,1.04,-0.67,
2.42,3.24,0.51,0.87,0.98,1.07,-0.70,
2.421,3.24,0.51,0.87,0.95,1.10,-0.72,
2.422,3.24,0.51,0.87,0.93,1.11,-0.74,
2.423,3.24,0.51,0.87,0.90,1.11,-0.76,
2.425,3.24,0.51,0.87,0.88,1.11,-0.77,
2.425,3.04,1.44,1.55,0.88,1.11,-0.77,
2.426,3.04,1.44,1.55,0.85,1.09,-0.78,
2.426,3.04,1.44,1.55,0.83,1.07,-0.78,
2.426,3.04,1.44,1.55,0.81,1.04,-0.78,
2.427,3.04,1.44,1.55,0.79,1.00,-0.78,
2.427,3.04,1.44,1.55,0.78,0.96,-0.77,
2.427,2.35,2.12,2.85,0.78,0.96,-0.77,
2.427,2.35,2.12,2.85,0.77,0.91,-0.76,
2.428,2.35,2.12,2.85,0.76,0.85,-0.75,
2.428,2.35,2.12,2.85,0.77,0.76,-0.73,
2.428,2.35,2.12,2.85,0.77,0.73,-0.72,
2.428,2.35,2.12,2.85,0.77,0.66,-0.70,
2.433,1.25,2.49,5.43,0.77,0.66,-0.70,
2.433,1.25,2.49,5.43,0.79,0.60,-0.68,
2.434,1.25,2.49,5.43,0.81,0.54,-0.65,
2.434,1.25,2.49,5.43,0.85,0.48,-0.61,
2.436,1.25,2.49,5.43,0.87,0.47,-0.59,
2.436,1.25,2.49,5.43,0.90,0.45,-0.56,
2.437,-0.65,2.24,8.49,0.90,0.45,-0.56,
2.438,-0.65,2.24,8.49,0.93,0.44,-0.52,
2.439,-0.65,2.24,8.49,0.97,0.46,-0.47,
2.445,-0.65,2.24,8.49,1.01,0.53,-0.41,
2.445,-0.65,2.24,8.49,1.03,0.56,-0.40,
2.447,-0.65,2.24,8.49,1.05,0.64,-0.36,
2.448,-2.66,1.35,9.72,1.05,0.64,-0.36,
2.448,-2.66,1.35,9.72,1.07,0.74,-0.32,
2.449,-2.66,1.35,9.72,1.08,0.86,-0.29,
2.452,-2.66,1.35,9.72,1.09,1.04,-0.23,
2.47,-2.66,1.35,9.72,1.09,1.10,-0.21,
2.47,-2.66,1.35,9.72,1.08,1.22,-0.17,
2.47,-4.67,-0.10,7.70,1.08,1.22,-0.17,
2.471,-4.67,-0.10,7.70,1.06,1.33,-0.13,
2.471,-4.67,-0.10,7.70,1.03,1.43,-0.10,
2.471,-4.67,-0.10,7.70,0.96,1.58,-0.06,
2.472,-4.67,-0.10,7.70,0.92,1.63,-0.06,
2.472,-4.67,-0.10,7.70,0.83,1.72,-0.05,
2.472,-5.26,-1.78,2.57,0.83,1.72,-0.05,
2.472,-5.26,-1.78,2.57,0.71,1.79,-0.05,
2.473,-5.26,-1.78,2.57,0.57,1.86,-0.06,
2.473,-5.26,-1.78,2.57,0.32,1.91,-0.09,
2.473,-5.26,-1.78,2.57,0.23,1.91,-0.10,
2.477,-5.26,-1.78,2.57,0.06,1.91,-0.13,
2.478,-4.63,-2.46,-3.64,0.06,1.91,-0.13,
2.478,-4.63,-2.46,-3.64,-0.11,1.90,-0.16,
2.479,-4.63,-2.46,-3.64,-0.27,1.90,-0.20,
2.482,-4.63,-2.46,-3.64,-0.47,1.92,-0.27,
2.484,-4.63,-2.46,-3.64,-0.54,1.93,-0.29,
2.485,-4.63,-2.46,-3.64,-0.66,1.95,-0.35,
2.487,-3.04,-2.36,-5.97,-0.66,1.95,-0.35,
2.488,-3.04,-2.36,-5.97,-0.78,1.96,-0.41,
2.489,-3.04,-2.36,-5.97,-0.90,1.97,-0.47,
2.492,-3.04,-2.36,-5.97,-1.07,1.93,-0.57,
2.504,-3.04,-2.36,-5.97,-1.12,1.90,-0.61,
2.505,-3.04,-2.36,-5.97,-1.22,1.82,-0.67,
2.505,-0.67,-1.59,-6.34,-1.22,1.82,-0.67,
2.505,-0.67,-1.59,-6.34,-1.30,1.70,-0.73,
2.506,-0.67,-1.59,-6.34,-1.37,1.56,-0.80,
2.506,-0.67,-1.59,-6.34,-1.44,1.27,-0.89,
2.506,-0.67,-1.59,-6.34,-1.46,1.17,-0.92,
2.506,-0.67,-1.59,-6.34,-1.48,0.94,-0.98,
2.543,1.16,-0.50,-4.22,-1.48,0.94,-0.98,
2.543,1.16,-0.50,-4.22,-1.48,0.72,-1.03,
2.543,1.16,-0.50,-4.22,-1.48,0.50,-1.08,
2.543,1.16,-0.50,-4.22,-1.47,0.21,-1.13,
2.543,1.16,-0.50,-4.22,-1.46,0.13,-1.15,
2.544,1.16,-0.50,-4.22,-1.45,0.01,-1.18,
2.544,1.58,1.10,-2.53,-1.45,0.01,-1.18,
2.544,1.58,1.10,-2.53,-1.45,-0.08,-1.20,
2.544,1.58,1.10,-2.53,-1.44,-0.13,-1.21,
2.544,1.58,1.10,-2.53,-1.45,-0.16,-1.21,
2.544,1.58,1.10,-2.53,-1.46,-0.16,-1.21,
2.544,1.58,1.10,-2.53,-1.45,-0.15,-1.19,
2.544,0.66,1.72,-3.09,-1.45,-0.15,-1.19,
2.545,0.66,1.72,-3.09,-1.45,-0.15,-1.16,
2.545,0.66,1.72,-3.09,-1.44,-0.14,-1.13,
2.545,0.66,1.72,-3.09,-1.41,-0.14,-1.05,
2.545,0.66,1.72,-3.09,-1.40,-0.15,-1.03,
2.545,0.66,1.72,-3.09,-1.37,-0.17,-0.99,
2.545,-0.96,0.71,-2.60,-1.37,-0.17,-0.99,
2.545,-0.96,0.71,-2.60,-1.35,-0.20,-0.96,
2.545,-0.96,0.71,-2.60,-1.32,-0.23,-0.92,
2.546,-0.96,0.71,-2.60,-1.29,-0.29,-0.88,
2.546,-0.96,0.71,-2.60,-1.28,-0.32,-0.87,
2.546,-0.96,0.71,-2.60,-1.26,-0.37,-0.84,
2.548,-0.68,-2.53,-2.72,-1.26,-0.37,-0.84,
2.548,-0.68,-2.53,-2.72,-1.25,-0.42,-0.80,
2.549,-0.68,-2.53,-2.72,-1.24,-0.48,-0.77,
2.552,-0.68,-2.53,-2.72,-1.25,-0.57,-0.71,
2.553,-0.68,-2.53,-2.72,-1.26,-0.61,-0.68,
2.555,-0.68,-2.53,-2.72,-1.27,-0.68,-0.64,
2.557,-0.86,-4.86,-2.94,-1.27,-0.68,-0.64,
2.558,-0.86,-4.86,-2.94,-1.30,-0.76,-0.59,
2.559,-0.86,-4.86,-2.94,-1.35,-0.84,-0.54,
2.562,-0.86,-4.86,-2.94,-1.44,-0.94,-0.47,
2.564,-0.86,-4.86,-2.94,-1.47,-0.97,-0.45,
2.565,-0.86,-4.86,-2.94,-1.55,-1.03,-0.41,
2.567,-1.54,-6.20,-3.95,-1.55,-1.03,-0.41,
2.568,-1.54,-6.20,-3.95,-1.64,-1.08,-0.36,
2.569,-1.54,-6.20,-3.95,-1.73,-1.13,-0.32,
2.572,-1.54,-6.20,-3.95,-1.89,-1.18,-0.27,
2.573,-1.54,-6.20,-3.95,-1.94,-1.20,-0.25,
2.575,-1.54,-6.20,-3.95,-2.04,-1.23,-0.22,
2.578,-2.12,-6.36,-4.73,-2.04,-1.23,-0.22,
2.579,-2.12,-6.36,-4.73,-2.13,-1.26,-0.20,
2.581,-2.12,-6.36,-4.73,-2.21,-1.28,-0.18,
2.582,-2.12,-6.36,-4.73,-2.32,-1.31,-0.17,
2.583,-2.12,-6.36,-4.73,-2.35,-1.32,-0.18,
2.585,-2.12,-6.36,-4.73,-2.40,-1.32,-0.18,
2.587,-2.21,-6.05,-3.72,-2.40,-1.32,-0.18,
2.588,-2.21,-6.05,-3.72,-2.43,-1.32,-0.20,
2.589,-2.21,-6.05,-3.72,-2.46,-1.31,-0.22,
2.592,-2.21,-6.05,-3.72,-2.50,-1.28,-0.27,
2.594,-2.21,-6.05,-3.72,-2.51,-1.27,-0.29,
2.595,-2.21,-6.05,-3.72,-2.53,-1.25,-0.32,
2.598,-1.59,-5.14,-2.78,-2.53,-1.25,-0.32,
2.598,-1.59,-5.14,-2.78,-2.54,-1.24,-0.37,
2.599,-1.59,-5.14,-2.78,-2.56,-1.21,-0.42,
2.602,-1.59,-5.14,-2.78,-2.58,-1.18,-0.50,
2.603,-1.59,-5.14,-2.78,-2.59,-1.17,-0.53,
2.605,-1.59,-5.14,-2.78,-2.60,-1.16,-0.59,
2.607,-0.65,-4.16,-3.04,-2.60,-1.16,-0.59,
2.608,-0.65,-4.16,-3.04,-2.61,-1.15,-0.64,
2.611,-0.65,-4.16,-3.04,-2.63,-1.15,-0.70,
2.613,-0.65,-4.16,-3.04,-2.65,-1.16,-0.77,
2.614,-0.65,-4.16,-3.04,-2.66,-1.16,-0.79,
2.616,-0.65,-4.16,-3.04,-2.67,-1.17,-0.84,
2.618,-0.30,-3.04,-3.23,-2.67,-1.17,-0.84,
2.618,-0.30,-3.04,-3.23,-2.67,-1.19,-0.87,
2.642,-0.30,-3.04,-3.23,-2.68,-1.21,-0.89,
2.642,-0.30,-3.04,-3.23,-2.69,-1.24,-0.90,
2.643,-0.30,-3.04,-3.23,-2.69,-1.26,-0.91,
2.643,-0.30,-3.04,-3.23,-2.69,-1.28,-0.90,
2.644,-1.11,-1.85,-3.11,-2.69,-1.28,-0.90,
2.644,-1.11,-1.85,-3.11,-2.68,-1.31,-0.89,
2.644,-1.11,-1.85,-3.11,-2.67,-1.33,-0.87,
2.645,-1.11,-1.85,-3.11,-2.66,-1.35,-0.82,
2.645,-1.11,-1.85,-3.11,-2.65,-1.36,-0.80,
2.646,-1.11,-1.85,-3.11,-2.64,-1.36,-0.76,
2.646,-2.07,-0.63,-2.59,-2.64,-1.36,-0.76,
2.646,-2.07,-0.63,-2.59,-2.62,-1.35,-0.71,
2.646,-2.07,-0.63,-2.59,-2.59,-1.34,-0.66,
2.647,-2.07,-0.63,-2.59,-2.55,-1.31,-0.57,
2.647,-2.07,-0.63,-2.59,-2.54,-1.30,-0.54,
2.648,-2.07,-0.63,-2.59,-2.51,-1.27,-0.48,
2.648,-2.84,0.47,-2.12,-2.51,-1.27,-0.48,
2.648,-2.84,0.47,-2.12,-2.48,-1.24,-0.41,
2.666,-2.84,0.47,-2.12,-2.45,-1.20,-0.34,
2.667,-2.84,0.47,-2.12,-2.40,-1.13,-0.25,
2.667,-2.84,0.47,-2.12,-2.39,-1.11,-0.21,
2.667,-2.84,0.47,-2.12,-2.36,-1.05,-0.15,
2.668,-2.93,1.10,-1.93,-2.36,-1.05,-0.15,
2.668,-2.93,1.10,-1.93,-2.34,-0.98,-0.09,
2.668,-2.93,1.10,-1.93,-2.32,-0.91,-0.03,
2.668,-2.93,1.10,-1.93,-2.28,-0.79,0.05,
2.669,-2.93,1.10,-1.93,-2.27,-0.75,0.07,
2.669,-2.93,1.10,-1.93,-2.25,-0.66,0.12,
2.669,-2.63,1.31,-1.97,-2.25,-0.66,0.12,
2.67,-2.63,1.31,-1.97,-2.23,-0.58,0.16,
2.67,-2.63,1.31,-1.97,-2.21,-0.50,0.20,
2.674,-2.63,1.31,-1.97,-2.18,-0.38,0.26,
2.675,-2.63,1.31,-1.97,-2.18,-0.34,0.27,
2.675,-2.63,1.31,-1.97,-2.17,-0.28,0.30,
2.696,-2.12,1.12,-1.69,-2.17,-0.28,0.30,
2.697,-2.12,1.12,-1.69,-2.15,-0.22,0.33,
2.697,-2.12,1.12,-1.69,-2.14,-0.17,0.34,
2.697,-2.12,1.12,-1.69,-2.13,-0.12,0.36,
2.698,-2.12,1.12,-1.69,-2.12,-0.11,0.36,
2.698,-2.12,1.12,-1.69,-2.12,-0.10,0.37,
2.698,-1.54,0.70,-1.37,-2.12,-0.10,0.37,
2.698,-1.54,0.70,-1.37,-2.11,-0.10,0.36,
2.699,-1.54,0.70,-1.37,-2.10,-0.10,0.35,
2.699,-1.54,0.70,-1.37,-2.10,-0.13,0.33,
2.699,-1.54,0.70,-1.37,-2.10,-0.14,0.33,
2.7,-1.54,0.70,-1.37,-2.10,-0.16,0.30,
2.7,-0.82,0.12,-0.92,-2.10,-0.16,0.30,
2.7,-0.82,0.12,-0.92,-2.11,-0.20,0.28,
2.7,-0.82,0.12,-0.92,-2.11,-0.24,0.25,
2.704,-0.82,0.12,-0.92,-2.12,-0.30,0.20,
2.704,-0.82,0.12,-0.92,-2.12,-0.32,0.18,
2.707,-0.82,0.12,-0.92,-2.14,-0.39,0.13,
2.708,-0.28,-0.47,-0.58,-2.14,-0.39,0.13,
2.709,-0.28,-0.47,-0.58,-2.14,-0.41,0.11,
2.712,-0.28,-0.47,-0.58,-2.16,-0.46,0.08,
2.714,-0.28,-0.47,-0.58,-2.19,-0.53,0.04,
2.716,-0.28,-0.47,-0.58,-2.20,-0.56,0.02,
2.716,-0.28,-0.47,-0.58,-2.22,-0.60,0.00,
2.718,0.08,-0.86,-0.34,-2.22,-0.60,0.00,
2.719,0.08,-0.86,-0.34,-2.24,-0.65,-0.02,
2.72,0.08,-0.86,-0.34,-2.27,-0.70,-0.03,
2.723,0.08,-0.86,-0.34,-2.30,-0.76,-0.04,
2.724,0.08,-0.86,-0.34,-2.31,-0.78,-0.04,
2.728,0.08,-0.86,-0.34,-2.34,-0.81,-0.05,
2.728,0.45,-1.19,-0.22,-2.34,-0.81,-0.05,
2.73,0.45,-1.19,-0.22,-2.37,-0.85,-0.05,
2.731,0.45,-1.19,-0.22,-2.40,-0.88,-0.05,
2.733,0.45,-1.19,-0.22,-2.44,-0.91,-0.04,
2.734,0.45,-1.19,-0.22,-2.45,-0.93,-0.04,
2.735,0.45,-1.19,-0.22,-2.48,-0.95,-0.04,
2.738,0.94,-1.23,-0.07,-2.48,-0.95,-0.04,
2.738,0.94,-1.23,-0.07,-2.51,-0.97,-0.04,
2.739,0.94,-1.23,-0.07,-2.53,-0.99,-0.04,
2.746,0.94,-1.23,-0.07,-2.56,-1.03,-0.03,
2.748,0.94,-1.23,-0.07,-2.57,-1.04,-0.03,
2.748,0.94,-1.23,-0.07,-2.59,-1.07,-0.04,
2.748,1.66,-1.19,0.26,-2.59,-1.07,-0.04,
2.749,1.66,-1.19,0.26,-2.60,-1.10,-0.04,
2.75,1.66,-1.19,0.26,-2.61,-1.13,-0.05,
2.752,1.66,-1.19,0.26,-2.64,-1.17,-0.06,
2.754,1.66,-1.19,0.26,-2.64,-1.19,-0.07,
2.755,1.66,-1.19,0.26,-2.65,-1.21,-0.08,
2.758,2.17,-0.95,0.55,-2.65,-1.21,-0.08,
2.782,2.17,-0.95,0.55,-2.66,-1.24,-0.09,
2.784,2.17,-0.95,0.55,-2.67,-1.26,-0.10,
2.784,2.17,-0.95,0.55,-2.68,-1.28,-0.13,
2.785,2.17,-0.95,0.55,-2.68,-1.28,-0.13,
2.786,2.17,-0.95,0.55,-2.68,-1.29,-0.15,
2.786,2.52,-0.75,1.02,-2.68,-1.29,-0.15,
2.787,2.52,-0.75,1.02,-2.68,-1.29,-0.16,
2.788,2.52,-0.75,1.02,-2.67,-1.28,-0.18,
2.788,2.52,-0.75,1.02,-2.66,-1.26,-0.21,
2.791,2.52,-0.75,1.02,-2.66,-1.25,-0.22,
2.792,2.52,-0.75,1.02,-2.65,-1.22,-0.24,
2.792,2.56,-0.55,1.38,-2.65,-1.22,-0.24,
2.793,2.56,-0.55,1.38,-2.64,-1.20,-0.26,
2.793,2.56,-0.55,1.38,-2.63,-1.18,-0.28,
2.793,2.56,-0.55,1.38,-2.61,-1.14,-0.31,
2.794,2.56,-0.55,1.38,-2.61,-1.13,-0.32,
2.794,2.56,-0.55,1.38,-2.60,-1.10,-0.34,
2.821,2.74,-0.35,1.60,-2.60,-1.10,-0.34,
2.822,2.74,-0.35,1.60,-2.59,-1.08,-0.37,
2.822,2.74,-0.35,1.60,-2.58,-1.06,-0.38,
2.823,2.74,-0.35,1.60,-2.56,-1.03,-0.42,
2.823,2.74,-0.35,1.60,-2.56,-1.02,-0.43,
2.823,2.74,-0.35,1.60,-2.56,-1.01,-0.45,
2.824,2.79,-0.13,1.65,-2.56,-1.01,-0.45,
2.824,2.79,-0.13,1.65,-2.55,-0.99,-0.47,
2.825,2.79,-0.13,1.65,-2.54,-0.97,-0.49,
2.825,2.79,-0.13,1.65,-2.54,-0.94,-0.52,
2.826,2.79,-0.13,1.65,-2.54,-0.93,-0.53,
2.826,2.79,-0.13,1.65,-2.53,-0.91,-0.55,
2.826,2.84,-0.06,1.61,-2.53,-0.91,-0.55,
2.827,2.84,-0.06,1.61,-2.52,-0.90,-0.57,
2.827,2.84,-0.06,1.61,-2.50,-0.89,-0.58,
2.828,2.84,-0.06,1.61,-2.47,-0.88,-0.60,
2.828,2.84,-0.06,1.61,-2.45,-0.88,-0.61,
2.828,2.84,-0.06,1.61,-2.42,-0.88,-0.62,
2.829,2.71,0.08,2.52,-2.42,-0.88,-0.62,
2.829,2.71,0.08,2.52,-2.38,-0.87,-0.62,
2.83,2.71,0.08,2.52,-2.33,-0.88,-0.62,
2.83,2.71,0.08,2.52,-2.26,-0.87,-0.61,
2.83,2.71,0.08,2.52,-2.24,-0.87,-0.61,
2.831,2.71,0.08,2.52,-2.20,-0.87,-0.60,
2.832,2.26,0.27,3.18,-2.20,-0.87,-0.60,
2.833,2.26,0.27,3.18,-2.16,-0.87,-0.58,
2.841,2.26,0.27,3.18,-2.12,-0.87,-0.55,
2.841,2.26,0.27,3.18,-2.07,-0.86,-0.51,
2.842,2.26,0.27,3.18,-2.06,-0.85,-0.50,
2.842,2.26,0.27,3.18,-2.03,-0.83,-0.46,
2.842,1.21,0.22,2.73,-2.03,-0.83,-0.46,
2.842,1.21,0.22,2.73,-2.00,-0.81,-0.42,
2.843,1.21,0.22,2.73,-1.97,-0.77,-0.39,
2.843,1.21,0.22,2.73,-1.94,-0.71,-0.33,
2.848,1.21,0.22,2.73,-1.92,-0.69,-0.31,
2.849,1.21,0.22,2.73,-1.90,-0.64,-0.27,
2.849,0.40,0.71,2.20,-1.90,-0.64,-0.27,
2.849,0.40,0.71,2.20,-1.88,-0.58,-0.24,
2.85,0.40,0.71,2.20,-1.86,-0.52,-0.20,
2.854,0.40,0.71,2.20,-1.84,-0.44,-0.15,
2.854,0.40,0.71,2.20,-1.83,-0.40,-0.14,
2.855,0.40,0.71,2.20,-1.81,-0.34,-0.11,
2.857,0.00,1.26,1.57,-1.81,-0.34,-0.11,
2.858,0.00,1.26,1.57,-1.79,-0.27,-0.08,
2.86,0.00,1.26,1.57,-1.77,-0.19,-0.05,
2.863,0.00,1.26,1.57,-1.73,-0.09,-0.01,
2.863,0.00,1.26,1.57,-1.72,-0.06,-0.00,
2.865,0.00,1.26,1.57,-1.70,0.02,0.02,
2.867,-0.16,1.56,1.19,-1.70,0.02,0.02,
2.868,-0.16,1.56,1.19,-1.68,0.09,0.04,
2.869,-0.16,1.56,1.19,-1.66,0.16,0.05,
2.872,-0.16,1.56,1.19,-1.64,0.24,0.05,
2.873,-0.16,1.56,1.19,-1.63,0.26,0.05,
2.876,-0.16,1.56,1.19,-1.63,0.32,0.04,
2.878,0.41,1.20,0.12,-1.63,0.32,0.04,
2.878,0.41,1.20,0.12,-1.64,0.36,0.03,
2.879,0.41,1.20,0.12,-1.65,0.39,0.02,
2.883,0.41,1.20,0.12,-1.65,0.41,0.01,
2.883,0.41,1.20,0.12,-1.65,0.41,0.00,
2.885,0.41,1.20,0.12,-1.65,0.40,-0.01,
2.887,1.11,1.14,-0.23,-1.65,0.40,-0.01,
2.888,1.11,1.14,-0.23,-1.64,0.39,-0.03,
2.889,1.11,1.14,-0.23,-1.62,0.37,-0.05,
2.893,1.11,1.14,-0.23,-1.59,0.32,-0.07,
2.894,1.11,1.14,-0.23,-1.57,0.30,-0.08,
2.896,1.11,1.14,-0.23,-1.54,0.27,-0.10,
2.898,1.76,1.40,0.96,-1.54,0.27,-0.10,
2.899,1.76,1.40,0.96,-1.50,0.23,-0.11,
2.9,1.76,1.40,0.96,-1.46,0.19,-0.13,
2.902,1.76,1.40,0.96,-1.39,0.13,-0.14,
2.903,1.76,1.40,0.96,-1.37,0.12,-0.14,
2.905,1.76,1.40,0.96,-1.33,0.08,-0.13,
2.908,1.49,1.57,1.95,-1.33,0.08,-0.13,
2.908,1.49,1.57,1.95,-1.28,0.05,-0.11,
2.917,1.49,1.57,1.95,-1.23,0.02,-0.09,
2.918,1.49,1.57,1.95,-1.16,0.00,-0.04,
2.918,1.49,1.57,1.95,-1.14,-0.00,-0.03,
2.918,1.49,1.57,1.95,-1.09,0.00,0.01,
2.919,0.21,1.59,2.33,-1.09,0.00,0.01,
2.919,0.21,1.59,2.33,-1.05,0.01,0.05,
2.92,0.21,1.59,2.33,-1.00,0.03,0.08,
2.923,0.21,1.59,2.33,-0.94,0.07,0.11,
2.923,0.21,1.59,2.33,-0.92,0.09,0.13,
2.955,0.21,1.59,2.33,-0.89,0.12,0.15,
2.955,-0.02,1.62,2.27,-0.89,0.12,0.15,
2.956,-0.02,1.62,2.27,-0.86,0.16,0.16,
2.956,-0.02,1.62,2.27,-0.83,0.20,0.17,
2.956,-0.02,1.62,2.27,-0.80,0.26,0.18,
2.956,-0.02,1.62,2.27,-0.78,0.28,0.18,
2.956,-0.02,1.62,2.27,-0.76,0.32,0.18,
2.956,0.17,1.53,1.91,-0.76,0.32,0.18,
2.956,0.17,1.53,1.91,-0.75,0.36,0.17,
2.957,0.17,1.53,1.91,-0.73,0.39,0.17,
2.957,0.17,1.53,1.91,-0.72,0.44,0.17,
2.957,0.17,1.53,1.91,-0.72,0.45,0.17,
2.957,0.17,1.53,1.91,-0.71,0.47,0.18,
2.957,-0.43,1.58,1.75,-0.71,0.47,0.18,
2.957,-0.43,1.58,1.75,-0.71,0.50,0.20,
2.958,-0.43,1.58,1.75,-0.71,0.52,0.21,
2.958,-0.43,1.58,1.75,-0.71,0.56,0.24,
2.973,-0.43,1.58,1.75,-0.72,0.57,0.24,
2.974,-0.43,1.58,1.75,-0.72,0.60,0.26,
2.974,-1.28,1.90,1.75,-0.72,0.60,0.26,
2.974,-1.28,1.90,1.75,-0.73,0.63,0.27,
2.974,-1.28,1.90,1.75,-0.74,0.65,0.29,
2.974,-1.28,1.90,1.75,-0.75,0.68,0.30,
2.974,-1.28,1.90,1.75,-0.76,0.69,0.30,
2.974,-1.28,1.90,1.75,-0.77,0.70,0.31,
2.975,-1.55,2.37,1.89,-0.77,0.70,0.31,
2.975,-1.55,2.37,1.89,-0.79,0.71,0.31,
2.975,-1.55,2.37,1.89,-0.81,0.71,0.31,
2.975,-1.55,2.37,1.89,-0.86,0.70,0.31,
2.975,-1.55,2.37,1.89,-0.87,0.69,0.30,
2.975,-1.55,2.37,1.89,-0.91,0.67,0.30,
2.978,-1.49,2.69,1.76,-0.91,0.67,0.30,
2.978,-1.49,2.69,1.76,-0.95,0.63,0.30,
2.979,-1.49,2.69,1.76,-1.00,0.60,0.29,
2.982,-1.49,2.69,1.76,-1.07,0.55,0.28,
2.983,-1.49,2.69,1.76,-1.10,0.53,0.28,
2.985,-1.49,2.69,1.76,-1.16,0.48,0.28,
2.988,-1.59,2.88,1.78,-1.16,0.48,0.28,
2.988,-1.59,2.88,1.78,-1.22,0.43,0.27,
2.989,-1.59,2.88,1.78,-1.29,0.38,0.27,
2.993,-1.59,2.88,1.78,-1.40,0.28,0.26,
2.994,-1.59,2.88,1.78,-1.43,0.25,0.25,
2.996,-1.59,2.88,1.78,-1.52,0.17,0.24,
2.998,-1.32,2.49,1.26,-1.52,0.17,0.24,
2.998,-1.32,2.49,1.26,-1.60,0.08,0.23,
2.999,-1.32,2.49,1.26,-1.70,-0.01,0.22,
3.002,-1.32,2.49,1.26,-1.84,-0.16,0.20,
3.003,-1.32,2.49,1.26,-1.90,-0.22,0.20,
3.005,-1.32,2.49,1.26,-2.00,-0.33,0.19,
3.007,-1.10,1.51,0.20,-2.00,-0.33,0.19,
3.008,-1.10,1.51,0.20,-2.11,-0.45,0.18,
3.013,-1.10,1.51,0.20,-2.23,-0.57,0.16,
3.014,-1.10,1.51,0.20,-2.41,-0.76,0.15,
3.014,-1.10,1.51,0.20,-2.47,-0.82,0.14,
3.018,-1.10,1.51,0.20,-2.59,-0.94,0.14,
3.018,-0.81,0.02,-1.09,-2.59,-0.94,0.14,
3.018,-0.81,0.02,-1.09,-2.70,-1.06,0.12,
3.019,-0.81,0.02,-1.09,-2.81,-1.16,0.12,
3.022,-0.81,0.02,-1.09,-2.97,-1.32,0.10,
3.023,-0.81,0.02,-1.09,-3.02,-1.37,0.10,
3.053,-0.81,0.02,-1.09,-3.11,-1.48,0.09,
3.054,-0.64,-1.69,-1.69,-3.11,-1.48,0.09,
3.054,-0.64,-1.69,-1.69,-3.20,-1.59,0.08,
3.054,-0.64,-1.69,-1.69,-3.29,-1.71,0.08,
3.055,-0.64,-1.69,-1.69,-3.42,-1.90,0.08,
3.055,-0.64,-1.69,-1.69,-3.46,-1.97,0.08,
3.055,-0.64,-1.69,-1.69,-3.54,-2.12,0.09,
3.055,-0.65,-3.72,-2.43,-3.54,-2.12,0.09,
3.056,-0.65,-3.72,-2.43,-3.62,-2.27,0.10,
3.056,-0.65,-3.72,-2.43,-3.69,-2.42,0.12,
3.056,-0.65,-3.72,-2.43,-3.79,-2.66,0.15,
3.057,-0.65,-3.72,-2.43,-3.82,-2.74,0.17,
3.057,-0.65,-3.72,-2.43,-3.86,-2.89,0.19,
3.057,-1.00,-5.97,-2.87,-3.86,-2.89,0.19,
3.057,-1.00,-5.97,-2.87,-3.90,-3.04,0.23,
3.058,-1.00,-5.97,-2.87,-3.93,-3.17,0.27,
3.058,-1.00,-5.97,-2.87,-3.95,-3.34,0.33,
3.058,-1.00,-5.97,-2.87,-3.94,-3.38,0.35,
3.059,-1.00,-5.97,-2.87,-3.91,-3.49,0.42,
3.059,-1.82,-8.10,-2.19,-3.91,-3.49,0.42,
3.059,-1.82,-8.10,-2.19,-3.90,-3.51,0.45,
3.067,-1.82,-8.10,-2.19,-3.85,-3.54,0.49,
3.067,-1.82,-8.10,-2.19,-3.76,-3.54,0.56,
3.068,-1.82,-8.10,-2.19,-3.72,-3.52,0.58,
3.068,-1.82,-8.10,-2.19,-3.63,-3.47,0.62,
3.068,-2.46,-10.04,-0.87,-3.63,-3.47,0.62,
3.069,-2.46,-10.04,-0.87,-3.53,-3.40,0.65,
3.069,-2.46,-10.04,-0.87,-3.42,-3.31,0.67,
3.072,-2.46,-10.04,-0.87,-3.24,-3.13,0.69,
3.074,-2.46,-10.04,-0.87,-3.18,-3.06,0.69,
3.077,-2.46,-10.04,-0.87,-3.04,-2.89,0.70,
3.078,-2.44,-11.34,0.11,-3.04,-2.89,0.70,
3.078,-2.44,-11.34,0.11,-2.90,-2.70,0.69,
3.08,-2.44,-11.34,0.11,-2.75,-2.48,0.68,
3.083,-2.44,-11.34,0.11,-2.50,-2.11,0.66,
3.084,-2.44,-11.34,0.11,-2.42,-1.98,0.65,
3.087,-2.44,-11.34,0.11,-2.25,-1.70,0.62,
3.089,-2.02,-11.73,1.11,-2.25,-1.70,0.62,
3.09,-2.02,-11.73,1.11,-2.08,-1.40,0.59,
3.09,-2.02,-11.73,1.11,-1.92,-1.09,0.56,
3.093,-2.02,-11.73,1.11,-1.68,-0.63,0.51,
3.096,-2.02,-11.73,1.11,-1.60,-0.47,0.50,
3.096,-2.02,-11.73,1.11,-1.46,-0.16,0.47,
3.099,-1.24,-11.04,0.99,-1.46,-0.16,0.47,
3.099,-1.24,-11.04,0.99,-1.32,0.14,0.44,
3.1,-1.24,-11.04,0.99,-1.20,0.43,0.42,
3.102,-1.24,-11.04,0.99,-1.05,0.83,0.41,
3.104,-1.24,-11.04,0.99,-1.01,0.96,0.41,
3.106,-1.24,-11.04,0.99,-0.93,1.19,0.41,
3.108,-1.16,-9.34,-0.23,-0.93,1.19,0.41,
3.108,-1.16,-9.34,-0.23,-0.86,1.40,0.42,
3.112,-1.16,-9.34,-0.23,-0.80,1.60,0.43,
3.114,-1.16,-9.34,-0.23,-0.73,1.87,0.46,
3.115,-1.16,-9.34,-0.23,-0.71,1.96,0.47,
3.116,-1.16,-9.34,-0.23,-0.68,2.13,0.49,
3.118,-1.31,-7.61,-0.83,-0.68,2.13,0.49,
3.119,-1.31,-7.61,-0.83,-0.63,2.29,0.51,
3.15,-1.31,-7.61,-0.83,-0.52,2.73,0.57,
3.15,-1.31,-7.61,-0.83,-0.52,2.73,0.57,
3.151,-1.31,-7.61,-0.83,-0.52,2.73,0.57,
3.151,-1.31,-7.61,-0.83,-0.48,2.87,0.59,
3.151,-1.45,-6.44,0.10,-0.48,2.87,0.59,
3.152,-1.45,-6.44,0.10,-0.44,3.00,0.62,
3.153,-1.45,-6.44,0.10,-0.39,3.12,0.64,
3.153,-1.45,-6.44,0.10,-0.31,3.27,0.69,
3.153,-1.45,-6.44,0.10,-0.29,3.32,0.70,
3.154,-1.45,-6.44,0.10,-0.23,3.40,0.73,
3.154,-1.97,-5.30,1.77,-0.23,3.40,0.73,
3.155,-1.97,-5.30,1.77,-0.17,3.47,0.77,
3.155,-1.97,-5.30,1.77,-0.11,3.52,0.79,
3.156,-1.97,-5.30,1.77,-0.01,3.57,0.83,
3.156,-1.97,-5.30,1.77,0.02,3.58,0.84,
3.156,-1.97,-5.30,1.77,0.09,3.58,0.87,
3.157,-2.32,-3.72,3.68,0.09,3.58,0.87,
3.157,-2.32,-3.72,3.68,0.16,3.58,0.88,
3.158,-2.32,-3.72,3.68,0.23,3.56,0.90,
3.158,-2.32,-3.72,3.68,0.35,3.50,0.92,
3.158,-2.32,-3.72,3.68,0.38,3.48,0.93,
3.159,-2.32,-3.72,3.68,0.46,3.43,0.93,
3.159,-2.09,-2.06,5.50,0.46,3.43,0.93,
3.16,-2.09,-2.06,5.50,0.53,3.37,0.93,
3.16,-2.09,-2.06,5.50,0.59,3.31,0.91,
3.17,-2.09,-2.06,5.50,0.67,3.22,0.88,
3.171,-2.09,-2.06,5.50,0.69,3.19,0.87,
3.171,-2.09,-2.06,5.50,0.71,3.13,0.83,
3.171,-1.04,-0.94,6.38,0.71,3.13,0.83,
3.172,-1.04,-0.94,6.38,0.72,3.07,0.79,
3.172,-1.04,-0.94,6.38,0.72,3.00,0.75,
3.172,-1.04,-0.94,6.38,0.69,2.87,0.68,
3.175,-1.04,-0.94,6.38,0.67,2.82,0.65,
3.176,-1.04,-0.94,6.38,0.62,2.71,0.59,
3.178,0.20,-0.36,6.30,0.62,2.71,0.59,
3.178,0.20,-0.36,6.30,0.57,2.59,0.53,
3.179,0.20,-0.36,6.30,0.51,2.44,0.47,
3.182,0.20,-0.36,6.30,0.41,2.16,0.36,
3.183,0.20,-0.36,6.30,0.37,2.06,0.33,
3.185,0.20,-0.36,6.30,0.30,1.85,0.26,
3.187,1.42,-0.03,7.38,0.30,1.85,0.26,
3.188,1.42,-0.03,7.38,0.22,1.64,0.19,
3.189,1.42,-0.03,7.38,0.16,1.42,0.12,
3.2,1.42,-0.03,7.38,0.06,1.10,0.02,
3.201,1.42,-0.03,7.38,0.04,0.99,-0.01,
3.201,1.42,-0.03,7.38,0.00,0.78,-0.07,
3.202,2.20,-0.01,8.65,0.00,0.78,-0.07,
3.202,2.20,-0.01,8.65,-0.02,0.57,-0.13,
3.202,2.20,-0.01,8.65,-0.03,0.37,-0.19,
3.202,2.20,-0.01,8.65,-0.01,0.10,-0.28,
3.203,2.20,-0.01,8.65,0.01,0.02,-0.30,
3.205,2.20,-0.01,8.65,0.05,-0.13,-0.36,
3.244,2.62,-0.58,11.03,0.05,-0.13,-0.36,
3.245,2.62,-0.58,11.03,0.12,-0.25,-0.41,
3.245,2.62,-0.58,11.03,0.20,-0.36,-0.45,
3.245,2.62,-0.58,11.03,0.34,-0.47,-0.51,
3.245,2.62,-0.58,11.03,0.40,-0.50,-0.53,
3.246,2.62,-0.58,11.03,0.51,-0.56,-0.57,
3.246,2.64,-1.28,12.41,0.51,-0.56,-0.57,
3.246,2.64,-1.28,12.41,0.64,-0.59,-0.60,
3.246,2.64,-1.28,12.41,0.77,-0.62,-0.62,
3.247,2.64,-1.28,12.41,0.98,-0.64,-0.64,
3.247,2.64,-1.28,12.41,1.06,-0.64,-0.64,
3.247,2.64,-1.28,12.41,1.21,-0.65,-0.64,
3.247,2.27,-1.96,12.60,1.21,-0.65,-0.64,
3.248,2.27,-1.96,12.60,1.38,-0.66,-0.64,
3.248,2.27,-1.96,12.60,1.55,-0.68,-0.63,
3.248,2.27,-1.96,12.60,1.80,-0.70,-0.62,
3.248,2.27,-1.96,12.60,1.89,-0.71,-0.62,
3.248,2.27,-1.96,12.60,2.06,-0.74,-0.61,
3.249,2.13,-2.55,11.24,2.06,-0.74,-0.61,
3.249,2.13,-2.55,11.24,2.24,-0.78,-0.61,
3.249,2.13,-2.55,11.24,2.41,-0.85,-0.59,
3.249,2.13,-2.55,11.24,2.65,-0.98,-0.56,
3.25,2.13,-2.55,11.24,2.73,-1.03,-0.55,
3.25,2.13,-2.55,11.24,2.88,-1.15,-0.52,
3.25,1.07,-2.85,8.74,2.88,-1.15,-0.52,
3.25,1.07,-2.85,8.74,3.01,-1.29,-0.48,
3.251,1.07,-2.85,8.74,3.14,-1.44,-0.44,
3.253,1.07,-2.85,8.74,3.29,-1.67,-0.37,
3.254,1.07,-2.85,8.74,3.34,-1.76,-0.34,
3.256,1.07,-2.85,8.74,3.41,-1.93,-0.29,
3.259,-0.54,-3.00,4.56,3.41,-1.93,-0.29,
3.259,-0.54,-3.00,4.56,3.47,-2.11,-0.23,
3.26,-0.54,-3.00,4.56,3.51,-2.28,-0.16,
3.263,-0.54,-3.00,4.56,3.56,-2.55,-0.07,
3.263,-0.54,-3.00,4.56,3.57,-2.63,-0.04,
3.265,-0.54,-3.00,4.56,3.57,-2.80,0.03,
3.268,-2.11,-3.32,0.33,3.57,-2.80,0.03,
3.268,-2.11,-3.32,0.33,3.56,-2.96,0.10,
3.27,-2.11,-3.32,0.33,3.54,-3.11,0.16,
3.273,-2.11,-3.32,0.33,3.50,-3.32,0.27,
3.275,-2.11,-3.32,0.33,3.47,-3.38,0.30,
3.276,-2.11,-3.32,0.33,3.42,-3.50,0.37,
3.278,-3.49,-3.79,-3.02,3.42,-3.50,0.37,
3.279,-3.49,-3.79,-3.02,3.36,-3.60,0.43,
3.28,-3.49,-3.79,-3.02,3.30,-3.68,0.50,
3.282,-3.49,-3.79,-3.02,3.19,-3.76,0.59,
3.284,-3.49,-3.79,-3.02,3.15,-3.78,0.62,
3.285,-3.49,-3.79,-3.02,3.07,-3.79,0.67,
3.304,-4.49,-4.27,-5.28,3.07,-3.79,0.67,
3.304,-4.49,-4.27,-5.28,2.99,-3.77,0.70,
3.305,-4.49,-4.27,-5.28,2.90,-3.74,0.73,
3.305,-4.49,-4.27,-5.28,2.76,-3.64,0.74,
3.305,-4.49,-4.27,-5.28,2.72,-3.60,0.74,
3.305,-4.49,-4.27,-5.28,2.63,-3.51,0.74,
3.305,-4.34,-4.65,-6.24,2.63,-3.51,0.74,
3.306,-4.34,-4.65,-6.24,2.53,-3.40,0.72,
3.306,-4.34,-4.65,-6.24,2.43,-3.28,0.70,
3.306,-4.34,-4.65,-6.24,2.28,-3.09,0.66,
3.306,-4.34,-4.65,-6.24,2.23,-3.02,0.64,
3.306,-4.34,-4.65,-6.24,2.12,-2.87,0.60,
3.311,-4.30,-4.86,-7.03,2.12,-2.87,0.60,
3.312,-4.30,-4.86,-7.03,2.02,-2.74,0.55,
3.312,-4.30,-4.86,-7.03,1.91,-2.60,0.51,
3.313,-4.30,-4.86,-7.03,1.76,-2.41,0.44,
3.313,-4.30,-4.86,-7.03,1.71,-2.35,0.42,
3.315,-4.30,-4.86,-7.03,1.61,-2.25,0.37,
3.318,-4.70,-4.57,-7.40,1.61,-2.25,0.37,
3.318,-4.70,-4.57,-7.40,1.51,-2.15,0.33,
3.319,-4.70,-4.57,-7.40,1.42,-2.08,0.28,
3.322,-4.70,-4.57,-7.40,1.29,-2.00,0.22,
3.329,-4.70,-4.57,-7.40,1.25,-1.98,0.20,
3.329,-4.70,-4.57,-7.40,1.17,-1.95,0.16,
3.329,-5.18,-3.90,-7.90,1.17,-1.95,0.16,
3.33,-5.18,-3.90,-7.90,1.09,-1.94,0.13,
3.33,-5.18,-3.90,-7.90,1.01,-1.94,0.10,
3.333,-5.18,-3.90,-7.90,0.90,-1.94,0.06,
3.335,-5.18,-3.90,-7.90,0.87,-1.94,0.05,
3.371,-5.18,-3.90,-7.90,0.80,-1.94,0.02,
3.372,-5.63,-3.14,-7.86,0.80,-1.94,0.02,
3.372,-5.63,-3.14,-7.86,0.74,-1.93,0.00,
3.372,-5.63,-3.14,-7.86,0.68,-1.91,-0.01,
3.372,-5.63,-3.14,-7.86,0.60,-1.88,-0.04,
3.372,-5.63,-3.14,-7.86,0.57,-1.87,-0.05,
3.372,-5.63,-3.14,-7.86,0.51,-1.85,-0.06,
3.373,-6.16,-2.48,-8.23,0.51,-1.85,-0.06,
3.373,-6.16,-2.48,-8.23,0.45,-1.83,-0.07,
3.373,-6.16,-2.48,-8.23,0.40,-1.80,-0.08,
3.373,-6.16,-2.48,-8.23,0.33,-1.75,-0.10,
3.373,-6.16,-2.48,-8.23,0.30,-1.73,-0.10,
3.373,-6.16,-2.48,-8.23,0.26,-1.68,-0.11,
3.374,-6.33,-2.31,-8.34,0.26,-1.68,-0.11,
3.374,-6.33,-2.31,-8.34,0.22,-1.62,-0.12,
3.374,-6.33,-2.31,-8.34,0.18,-1.57,-0.13,
3.374,-6.33,-2.31,-8.34,0.13,-1.48,-0.15,
3.374,-6.33,-2.31,-8.34,0.12,-1.46,-0.16,
3.374,-6.33,-2.31,-8.34,0.09,-1.40,-0.17,
3.375,-6.07,-2.21,-8.54,0.09,-1.40,-0.17,
3.375,-6.07,-2.21,-8.54,0.07,-1.34,-0.18,
3.375,-6.07,-2.21,-8.54,0.06,-1.29,-0.19,
3.375,-6.07,-2.21,-8.54,0.05,-1.20,-0.20,
3.375,-6.07,-2.21,-8.54,0.05,-1.16,-0.20,
3.375,-6.07,-2.21,-8.54,0.05,-1.10,-0.19,
3.384,-5.74,-1.96,-8.03,0.05,-1.10,-0.19,
3.384,-5.74,-1.96,-8.03,0.05,-1.04,-0.19,
3.384,-5.74,-1.96,-8.03,0.06,-0.98,-0.20,
3.384,-5.74,-1.96,-8.03,0.26,-1.02,-0.24,
3.385,-5.74,-1.96,-8.03,0.44,-1.13,-0.30,
3.386,-5.74,-1.96,-8.03,0.96,-1.46,-0.47,
3.388,-0.91,-3.73,5.78,0.96,-1.46,-0.47,
3.388,-0.91,-3.73,5.78,1.61,-1.90,-0.70,
3.392,-0.91,-3.73,5.78,2.30,-2.42,-0.94,
3.394,-0.91,-3.73,5.78,3.32,-3.24,-1.29,
3.394,-0.91,-3.73,5.78,3.63,-3.51,-1.40,
3.396,-0.91,-3.73,5.78,4.20,-4.01,-1.59,
3.398,2.56,-8.74,18.08,4.20,-4.01,-1.59,
3.399,2.56,-8.74,18.08,4.67,-4.44,-1.74,
3.4,2.56,-8.74,18.08,5.07,-4.79,-1.86,
3.402,2.56,-8.74,18.08,5.55,-5.15,-1.98,
3.404,2.56,-8.74,18.08,5.68,-5.23,-2.01,
3.407,2.56,-8.74,18.08,6.04,-5.13,-2.07,
3.41,-2.43,-10.70,9.29,6.04,-5.13,-2.07,
3.411,-2.43,-10.70,9.29,6.15,-4.89,-2.07,
3.412,-2.43,-10.70,9.29,6.33,-4.20,-2.04,
3.414,-2.43,-10.70,9.29,6.46,-2.93,-1.92,
3.415,-2.43,-10.70,9.29,6.46,-2.45,-1.87,
3.415,-2.43,-10.70,9.29,6.42,-1.45,-1.74,
3.418,-5.03,-11.96,3.34,6.42,-1.45,-1.74,
3.419,-5.03,-11.96,3.34,6.32,-0.44,-1.59,
3.419,-5.03,-11.96,3.34,6.16,0.53,-1.44,
3.422,-5.03,-11.96,3.34,5.84,1.81,-1.23,
3.438,-5.03,-11.96,3.34,5.71,2.16,-1.16,
3.438,-5.03,-11.96,3.34,5.47,2.76,-1.05,
3.439,-2.91,-10.86,-4.16,5.47,2.76,-1.05,
3.439,-2.91,-10.86,-4.16,5.22,3.18,-0.97,
3.439,-2.91,-10.86,-4.16,4.99,3.43,-0.93,
3.44,-2.91,-10.86,-4.16,4.71,3.49,-0.91,
3.44,-2.91,-10.86,-4.16,4.63,3.42,-0.92,
3.44,-2.91,-10.86,-4.16,4.49,3.18,-0.93,
3.449,2.25,-8.62,-2.65,4.49,3.18,-0.93,
3.45,2.25,-8.62,-2.65,4.36,2.81,-0.94,
3.451,2.25,-8.62,-2.65,4.25,2.34,-0.96,
3.451,2.25,-8.62,-2.65,4.07,1.51,-0.96,
3.451,2.25,-8.62,-2.65,4.00,1.21,-0.96,
3.452,2.25,-8.62,-2.65,3.86,0.63,-0.95,
3.452,2.44,-5.82,-2.51,3.86,0.63,-0.95,
3.452,2.44,-5.82,-2.51,3.71,0.07,-0.94,
3.453,2.44,-5.82,-2.51,3.55,-0.43,-0.91,
3.453,2.44,-5.82,-2.51,3.31,-1.03,-0.88,
3.478,2.44,-5.82,-2.51,3.23,-1.19,-0.87,
3.478,2.44,-5.82,-2.51,3.08,-1.43,-0.85,
3.478,0.67,-2.56,-5.78,3.08,-1.43,-0.85,
3.479,0.67,-2.56,-5.78,2.95,-1.59,-0.84,
3.479,0.67,-2.56,-5.78,2.83,-1.67,-0.82,
3.479,0.67,-2.56,-5.78,2.68,-1.68,-0.81,
3.479,0.67,-2.56,-5.78,2.64,-1.65,-0.80,
3.48,0.67,-2.56,-5.78,2.57,-1.57,-0.80,
3.48,-0.45,0.22,-6.58,2.57,-1.57,-0.80,
3.48,-0.45,0.22,-6.58,2.54,-1.45,-0.79,
3.481,-0.45,0.22,-6.58,2.52,-1.30,-0.79,
3.481,-0.45,0.22,-6.58,2.53,-1.04,-0.79,
3.481,-0.45,0.22,-6.58,2.54,-0.95,-0.79,
3.481,-0.45,0.22,-6.58,2.58,-0.77,-0.78,
3.482,-1.40,2.45,-5.66,2.58,-0.77,-0.78,
3.482,-1.40,2.45,-5.66,2.63,-0.60,-0.78,
3.482,-1.40,2.45,-5.66,2.70,-0.43,-0.76,
3.49,-1.40,2.45,-5.66,2.82,-0.21,-0.74,
3.49,-1.40,2.45,-5.66,2.87,-0.14,-0.73,
3.491,-1.40,2.45,-5.66,2.96,-0.02,-0.70,
3.491,-2.34,4.13,-5.60,2.96,-0.02,-0.70,
3.491,-2.34,4.13,-5.60,3.05,0.09,-0.68,
3.491,-2.34,4.13,-5.60,3.14,0.18,-0.65,
3.493,-2.34,4.13,-5.60,3.27,0.30,-0.61,
3.494,-2.34,4.13,-5.60,3.31,0.33,-0.59,
3.495,-2.34,4.13,-5.60,3.39,0.39,-0.56,
3.498,-1.75,5.57,-6.52,3.39,0.39,-0.56,
3.498,-1.75,5.57,-6.52,3.45,0.43,-0.53,
3.499,-1.75,5.57,-6.52,3.50,0.46,-0.51,
3.503,-1.75,5.57,-6.52,3.55,0.49,-0.47,
3.503,-1.75,5.57,-6.52,3.56,0.50,-0.46,
3.505,-1.75,5.57,-6.52,3.58,0.51,-0.44,
3.508,-0.70,6.82,-8.16,3.58,0.51,-0.44,
3.508,-0.70,6.82,-8.16,3.58,0.51,-0.42,
3.511,-0.70,6.82,-8.16,3.58,0.50,-0.40,
3.512,-0.70,6.82,-8.16,3.57,0.50,-0.36,
3.514,-0.70,6.82,-8.16,3.56,0.51,-0.35,
3.515,-0.70,6.82,-8.16,3.54,0.51,-0.31,
3.517,0.16,8.00,-8.95,3.54,0.51,-0.31,
3.518,0.16,8.00,-8.95,3.53,0.52,-0.27,
3.519,0.16,8.00,-8.95,3.51,0.54,-0.23,
3.522,0.16,8.00,-8.95,3.47,0.58,-0.16,
3.524,0.16,8.00,-8.95,3.46,0.60,-0.13,
3.525,0.16,8.00,-8.95,3.44,0.64,-0.08,
3.528,0.34,9.01,-8.80,3.44,0.64,-0.08,
3.528,0.34,9.01,-8.80,3.42,0.68,-0.02,
3.529,0.34,9.01,-8.80,3.40,0.72,0.04,
3.532,0.34,9.01,-8.80,3.37,0.81,0.15,
3.533,0.34,9.01,-8.80,3.36,0.85,0.19,
3.535,0.34,9.01,-8.80,3.35,0.91,0.26,
3.538,0.79,9.28,-8.54,3.35,0.91,0.26,
3.538,0.79,9.28,-8.54,3.32,0.99,0.34,
3.54,0.79,9.28,-8.54,3.30,1.06,0.42,
3.543,0.79,9.28,-8.54,3.26,1.16,0.55,
3.544,0.79,9.28,-8.54,3.25,1.18,0.59,
3.546,0.79,9.28,-8.54,3.21,1.24,0.68,
3.548,1.25,9.15,-8.07,3.21,1.24,0.68,
3.548,1.25,9.15,-8.07,3.17,1.29,0.77,
3.549,1.25,9.15,-8.07,3.12,1.34,0.86,
3.552,1.25,9.15,-8.07,3.03,1.40,1.00,
3.553,1.25,9.15,-8.07,3.00,1.42,1.05,
3.555,1.25,9.15,-8.07,2.92,1.46,1.15,
3.558,2.29,7.88,-7.85,2.92,1.46,1.15,
3.559,2.29,7.88,-7.85,2.83,1.49,1.24,
3.56,2.29,7.88,-7.85,2.73,1.49,1.33,
3.563,2.29,7.88,-7.85,2.55,1.49,1.46,
3.564,2.29,7.88,-7.85,2.49,1.48,1.50,
3.565,2.29,7.88,-7.85,2.36,1.46,1.57,
3.568,3.52,6.00,-8.04,2.36,1.46,1.57,
3.569,3.52,6.00,-8.04,2.21,1.42,1.63,
3.57,3.52,6.00,-8.04,2.07,1.39,1.68,
3.59,3.52,6.00,-8.04,1.85,1.32,1.75,
3.59,3.52,6.00,-8.04,1.77,1.29,1.77,
3.591,3.52,6.00,-8.04,1.63,1.22,1.80,
3.591,4.55,4.32,-8.12,1.63,1.22,1.80,
3.591,4.55,4.32,-8.12,1.48,1.15,1.83,
3.592,4.55,4.32,-8.12,1.34,1.07,1.85,
3.592,4.55,4.32,-8.12,1.15,0.93,1.87,
3.592,4.55,4.32,-8.12,1.09,0.88,1.87,
3.592,4.55,4.32,-8.12,0.98,0.77,1.86,
3.592,5.41,2.46,-8.16,0.98,0.77,1.86,
3.593,5.41,2.46,-8.16,0.88,0.66,1.85,
3.593,5.41,2.46,-8.16,0.79,0.54,1.83,
3.593,5.41,2.46,-8.16,0.69,0.39,1.78,
3.595,5.41,2.46,-8.16,0.66,0.34,1.76,
3.609,5.41,2.46,-8.16,0.61,0.26,1.71,
3.609,5.83,1.95,-8.30,0.61,0.26,1.71,
3.609,5.83,1.95,-8.30,0.57,0.18,1.66,
3.61,5.83,1.95,-8.30,0.55,0.12,1.60,
3.61,5.83,1.95,-8.30,0.52,0.08,1.51,
3.61,5.83,1.95,-8.30,0.51,0.07,1.47,
3.61,5.83,1.95,-8.30,0.50,0.07,1.40,
3.611,5.88,1.69,-9.39,0.50,0.07,1.40,
3.612,5.88,1.69,-9.39,0.50,0.09,1.32,
3.612,5.88,1.69,-9.39,0.50,0.13,1.24,
3.622,5.88,1.69,-9.39,0.52,0.21,1.11,
3.622,5.88,1.69,-9.39,0.52,0.25,1.06,
3.623,5.88,1.69,-9.39,0.53,0.33,0.98,
3.623,5.36,2.36,-9.89,0.53,0.33,0.98,
3.623,5.36,2.36,-9.89,0.54,0.42,0.89,
3.635,5.36,2.36,-9.89,0.55,0.51,0.81,
3.635,5.36,2.36,-9.89,0.56,0.64,0.70,
3.635,5.36,2.36,-9.89,0.56,0.69,0.67,
3.635,5.36,2.36,-9.89,0.56,0.75,0.61,
3.635,4.21,3.44,-9.19,0.56,0.75,0.61,
3.636,4.21,3.44,-9.19,0.55,0.81,0.55,
3.636,4.21,3.44,-9.19,0.53,0.85,0.51,
3.636,4.21,3.44,-9.19,0.49,0.88,0.46,
3.636,4.21,3.44,-9.19,0.47,0.89,0.44,
3.636,4.21,3.44,-9.19,0.43,0.89,0.42,
3.638,3.40,4.50,-7.33,0.43,0.89,0.42,
3.638,3.40,4.50,-7.33,0.39,0.88,0.39,
3.639,3.40,4.50,-7.33,0.34,0.85,0.36,
3.643,3.40,4.50,-7.33,0.27,0.80,0.32,
3.643,3.40,4.50,-7.33,0.24,0.78,0.31,
3.645,3.40,4.50,-7.33,0.18,0.72,0.28,
3.647,3.82,4.99,-5.53,0.18,0.72,0.28,
3.648,3.82,4.99,-5.53,0.12,0.65,0.25,
3.649,3.82,4.99,-5.53,0.06,0.57,0.21,
3.652,3.82,4.99,-5.53,0.00,0.49,0.12,
3.653,3.82,4.99,-5.53,-0.01,0.47,0.09,
3.655,3.82,4.99,-5.53,-0.03,0.44,0.04,
3.658,5.27,4.28,-3.80,-0.03,0.44,0.04,
3.659,5.27,4.28,-3.80,-0.07,0.38,-0.01,
3.659,5.27,4.28,-3.80,-0.11,0.33,-0.06,
3.662,5.27,4.28,-3.80,-0.16,0.27,-0.14,
3.663,5.27,4.28,-3.80,-0.18,0.26,-0.17,
3.665,5.27,4.28,-3.80,-0.21,0.24,-0.22,
3.667,6.11,3.95,-2.42,-0.21,0.24,-0.22,
3.667,6.11,3.95,-2.42,-0.25,0.24,-0.28,
3.669,6.11,3.95,-2.42,-0.28,0.26,-0.33,
3.672,6.11,3.95,-2.42,-0.33,0.32,-0.40,
3.673,6.11,3.95,-2.42,-0.35,0.35,-0.43,
3.675,6.11,3.95,-2.42,-0.38,0.42,-0.47,
3.677,5.69,3.68,-0.96,-0.38,0.42,-0.47,
3.678,5.69,3.68,-0.96,-0.40,0.50,-0.50,
3.679,5.69,3.68,-0.96,-0.43,0.59,-0.53,
3.682,5.69,3.68,-0.96,-0.46,0.73,-0.57,
3.683,5.69,3.68,-0.96,-0.47,0.78,-0.58,
3.685,5.69,3.68,-0.96,-0.49,0.87,-0.60,
3.687,5.14,3.43,1.33,-0.49,0.87,-0.60,
3.688,5.14,3.43,1.33,-0.51,0.95,-0.61,
3.689,5.14,3.43,1.33,-0.52,1.01,-0.61,
3.692,5.14,3.43,1.33,-0.55,1.08,-0.61,
3.693,5.14,3.43,1.33,-0.56,1.10,-0.61,
3.695,5.14,3.43,1.33,-0.58,1.13,-0.60,
3.697,4.44,2.85,2.43,-0.58,1.13,-0.60,
3.698,4.44,2.85,2.43,-0.61,1.13,-0.60,
3.699,4.44,2.85,2.43,-0.63,1.13,-0.59,
3.704,4.44,2.85,2.43,-0.66,1.09,-0.58,
3.704,4.44,2.85,2.43,-0.67,1.06,-0.58,
3.709,4.44,2.85,2.43,-0.69,1.00,-0.57,
3.709,4.05,2.71,2.67,-0.69,1.00,-0.57,
3.709,4.05,2.71,2.67,-0.72,0.93,-0.57,
3.71,4.05,2.71,2.67,-0.74,0.84,-0.56,
3.712,4.05,2.71,2.67,-0.79,0.67,-0.56,
3.713,4.05,2.71,2.67,-0.80,0.61,-0.56,
3.715,4.05,2.71,2.67,-0.83,0.47,-0.55,
3.718,3.23,2.68,1.88,-0.83,0.47,-0.55,
3.718,3.23,2.68,1.88,-0.87,0.33,-0.55,
3.719,3.23,2.68,1.88,-0.90,0.17,-0.55,
3.737,3.23,2.68,1.88,-0.96,-0.06,-0.57,
3.739,3.23,2.68,1.88,-0.98,-0.14,-0.57,
3.74,3.23,2.68,1.88,-1.02,-0.29,-0.58,
3.741,2.14,3.07,0.84,-1.02,-0.29,-0.58,
3.742,2.14,3.07,0.84,-1.05,-0.44,-0.60,
3.743,2.14,3.07,0.84,-1.09,-0.58,-0.62,
3.744,2.14,3.07,0.84,-1.13,-0.77,-0.64,
3.744,2.14,3.07,0.84,-1.15,-0.82,-0.65,
3.745,2.14,3.07,0.84,-1.17,-0.90,-0.67,
3.746,-0.18,3.74,0.65,-1.17,-0.90,-0.67,
3.747,-0.18,3.74,0.65,-1.19,-0.97,-0.68,
3.747,-0.18,3.74,0.65,-1.19,-1.02,-0.68,
3.749,-0.18,3.74,0.65,-1.19,-1.05,-0.66,
3.75,-0.18,3.74,0.65,-1.18,-1.05,-0.65,
3.751,-0.18,3.74,0.65,-1.14,-1.05,-0.63,
3.751,-4.60,4.82,3.41,-1.14,-1.05,-0.63,
3.752,-4.60,4.82,3.41,-1.08,-1.05,-0.59,
3.753,-4.60,4.82,3.41,-1.00,-1.04,-0.54,
3.754,-4.60,4.82,3.41,-0.84,-1.01,-0.45,
3.754,-4.60,4.82,3.41,-0.77,-1.00,-0.41,
3.766,-4.60,4.82,3.41,-0.53,-0.93,-0.29,
3.766,-10.11,4.63,11.35,-0.53,-0.93,-0.29,
3.767,-10.11,4.63,11.35,-0.44,-0.90,-0.25,
3.768,-10.11,4.63,11.35,-0.26,-0.80,-0.16,
3.769,-10.11,4.63,11.35,0.01,-0.58,-0.03,
3.77,-10.11,4.63,11.35,0.09,-0.50,0.02,
3.77,-10.11,4.63,11.35,0.24,-0.30,0.10,
3.771,-14.96,2.15,18.22,0.24,-0.30,0.10,
3.772,-14.96,2.15,18.22,0.37,-0.08,0.17,
3.773,-14.96,2.15,18.22,0.45,0.17,0.24,
3.774,-14.96,2.15,18.22,0.51,0.57,0.34,
3.775,-14.96,2.15,18.22,0.51,0.70,0.37,
3.775,-14.96,2.15,18.22,0.47,0.99,0.41,
3.786,-16.75,-1.38,14.42,0.47,0.99,0.41,
3.789,-16.75,-1.38,14.42,0.38,1.28,0.45,
3.79,-16.75,-1.38,14.42,0.22,1.59,0.47,
3.79,-16.75,-1.38,14.42,-0.10,2.04,0.46,
3.791,-16.75,-1.38,14.42,-0.24,2.18,0.45,
3.791,-16.75,-1.38,14.42,-0.53,2.42,0.42,
3.82,-12.20,-4.69,0.68,-0.53,2.42,0.42,
3.821,-12.20,-4.69,0.68,-0.85,2.62,0.37,
3.821,-12.20,-4.69,0.68,-1.17,2.76,0.31,
3.822,-12.20,-4.69,0.68,-1.63,2.84,0.20,
3.822,-12.20,-4.69,0.68,-1.77,2.84,0.15,
3.823,-12.20,-4.69,0.68,-2.03,2.78,0.05,
3.823,-3.73,-6.15,-7.69,-2.03,2.78,0.05,
3.824,-3.73,-6.15,-7.69,-2.24,2.68,-0.06,
3.824,-3.73,-6.15,-7.69,-2.42,2.54,-0.18,
3.825,-3.73,-6.15,-7.69,-2.59,2.24,-0.38,
3.825,-3.73,-6.15,-7.69,-2.62,2.12,-0.45,
3.826,-3.73,-6.15,-7.69,-2.67,1.83,-0.60,
3.826,2.80,-5.91,-3.84,-2.67,1.83,-0.60,
3.827,2.80,-5.91,-3.84,-2.70,1.50,-0.75,
3.827,2.80,-5.91,-3.84,-2.71,1.13,-0.92,
3.827,2.80,-5.91,-3.84,-2.74,0.56,-1.16,
3.828,2.80,-5.91,-3.84,-2.75,0.38,-1.24,
3.828,2.80,-5.91,-3.84,-2.78,0.03,-1.40,
3.829,7.35,-5.77,-2.26,-2.78,0.03,-1.40,
3.829,7.35,-5.77,-2.26,-2.83,-0.28,-1.55,
3.83,7.35,-5.77,-2.26,-2.90,-0.53,-1.69,
3.83,7.35,-5.77,-2.26,-3.02,-0.83,-1.88,
3.831,7.35,-5.77,-2.26,-3.07,-0.92,-1.94,
3.831,7.35,-5.77,-2.26,-3.17,-1.07,-2.05,
3.831,9.88,-5.40,-5.91,-3.17,-1.07,-2.05,
3.832,9.88,-5.40,-5.91,-3.26,-1.20,-2.14,
3.832,9.88,-5.40,-5.91,-3.36,-1.33,-2.21,
3.833,9.88,-5.40,-5.91,-3.47,-1.52,-2.30,
3.842,9.88,-5.40,-5.91,-3.50,-1.59,-2.33,
3.842,9.88,-5.40,-5.91,-3.55,-1.73,-2.36,
3.842,9.71,-3.25,-6.88,-3.55,-1.73,-2.36,
3.843,9.71,-3.25,-6.88,-3.57,-1.87,-2.39,
3.843,9.71,-3.25,-6.88,-3.57,-2.02,-2.41,
3.843,9.71,-3.25,-6.88,-3.53,-2.24,-2.43,
3.843,9.71,-3.25,-6.88,-3.50,-2.31,-2.43,
3.846,9.71,-3.25,-6.88,-3.42,-2.47,-2.44,
3.848,9.04,-0.07,-2.86,-3.42,-2.47,-2.44,
3.848,9.04,-0.07,-2.86,-3.31,-2.62,-2.44,
3.849,9.04,-0.07,-2.86,-3.17,-2.77,-2.42,
3.852,9.04,-0.07,-2.86,-2.92,-2.98,-2.39,
3.853,9.04,-0.07,-2.86,-2.83,-3.05,-2.37,
3.856,9.04,-0.07,-2.86,-2.63,-3.16,-2.33,
3.858,6.36,2.86,3.56,-2.63,-3.16,-2.33,
3.858,6.36,2.86,3.56,-2.42,-3.24,-2.27,
3.86,6.36,2.86,3.56,-2.21,-3.26,-2.19,
3.863,6.36,2.86,3.56,-1.93,-3.15,-2.03,
3.863,6.36,2.86,3.56,-1.84,-3.07,-1.96,
3.865,6.36,2.86,3.56,-1.70,-2.85,-1.81,
3.868,1.13,2.48,5.28,-1.70,-2.85,-1.81,
3.868,1.13,2.48,5.28,-1.59,-2.57,-1.64,
3.869,1.13,2.48,5.28,-1.52,-2.25,-1.45,
3.884,1.13,2.48,5.28,-1.47,-1.74,-1.14,
3.884,1.13,2.48,5.28,-1.46,-1.56,-1.03,
3.885,1.13,2.48,5.28,-1.47,-1.23,-0.81,
3.885,-4.10,0.04,-0.10,-1.47,-1.23,-0.81,
3.885,-4.10,0.04,-0.10,-1.49,-0.93,-0.58,
3.886,-4.10,0.04,-0.10,-1.54,-0.64,-0.35,
3.886,-4.10,0.04,-0.10,-1.63,-0.29,-0.02,
3.886,-4.10,0.04,-0.10,-1.66,-0.19,0.09,
3.886,-4.10,0.04,-0.10,-1.73,-0.03,0.30,
3.922,-7.32,-1.04,-4.34,-1.73,-0.03,0.30,
3.924,-7.32,-1.04,-4.34,-1.80,0.09,0.51,
3.925,-7.32,-1.04,-4.34,-1.87,0.17,0.71,
3.925,-7.32,-1.04,-4.34,-1.94,0.23,0.98,
3.925,-7.32,-1.04,-4.34,-1.96,0.23,1.07,
3.925,-7.32,-1.04,-4.34,-1.99,0.22,1.23,
3.925,-8.42,-1.37,-3.64,-1.99,0.22,1.23,
3.926,-8.42,-1.37,-3.64,-2.01,0.19,1.37,
3.926,-8.42,-1.37,-3.64,-2.02,0.14,1.50,
3.926,-8.42,-1.37,-3.64,-2.02,0.07,1.66,
3.927,-8.42,-1.37,-3.64,-2.02,0.05,1.71,
3.927,-8.42,-1.37,-3.64,-2.02,0.01,1.78,
3.927,-7.71,-1.87,-1.54,-2.02,0.01,1.78,
3.927,-7.71,-1.87,-1.54,-2.01,-0.03,1.84,
3.927,-7.71,-1.87,-1.54,-2.01,-0.06,1.87,
3.928,-7.71,-1.87,-1.54,-2.03,-0.10,1.88,
3.928,-7.71,-1.87,-1.54,-2.04,-0.11,1.87,
3.928,-7.71,-1.87,-1.54,-2.06,-0.14,1.84,
3.928,-4.73,-2.35,-1.41,-2.06,-0.14,1.84,
3.928,-4.73,-2.35,-1.41,-2.09,-0.16,1.79,
3.929,-4.73,-2.35,-1.41,-2.12,-0.18,1.73,
3.929,-4.73,-2.35,-1.41,-2.18,-0.21,1.61,
3.929,-4.73,-2.35,-1.41,-2.21,-0.22,1.56,
3.93,-4.73,-2.35,-1.41,-2.26,-0.24,1.46,
3.93,-1.64,-2.79,-1.99,-2.26,-0.24,1.46,
3.931,-1.64,-2.79,-1.99,-2.31,-0.26,1.35,
3.931,-1.64,-2.79,-1.99,-2.37,-0.28,1.24,
3.946,-1.64,-2.79,-1.99,-2.46,-0.33,1.04,
3.946,-1.64,-2.79,-1.99,-2.48,-0.35,0.98,
3.946,-1.64,-2.79,-1.99,-2.55,-0.38,0.84,
3.946,0.44,-3.16,-2.04,-2.55,-0.38,0.84,
3.946,0.44,-3.16,-2.04,-2.60,-0.43,0.71,
3.947,0.44,-3.16,-2.04,-2.66,-0.47,0.57,
3.947,0.44,-3.16,-2.04,-2.72,-0.55,0.37,
3.947,0.44,-3.16,-2.04,-2.75,-0.58,0.30,
3.947,0.44,-3.16,-2.04,-2.79,-0.63,0.16,
3.947,1.35,-3.40,-1.38,-2.79,-0.63,0.16,
3.948,1.35,-3.40,-1.38,-2.82,-0.69,0.02,
3.95,1.35,-3.40,-1.38,-2.86,-0.75,-0.11,
3.953,1.35,-3.40,-1.38,-2.91,-0.85,-0.29,
3.975,1.35,-3.40,-1.38,-2.92,-0.89,-0.34,
3.975,1.35,-3.40,-1.38,-2.95,-0.96,-0.45,
3.975,1.06,-3.38,-0.38,-2.95,-0.96,-0.45,
3.976,1.06,-3.38,-0.38,-2.98,-1.03,-0.55,
3.976,1.06,-3.38,-0.38,-3.01,-1.11,-0.65,
3.976,1.06,-3.38,-0.38,-3.05,-1.22,-0.78,
3.976,1.06,-3.38,-0.38,-3.07,-1.25,-0.83,
3.976,1.06,-3.38,-0.38,-3.10,-1.32,-0.90,
3.977,0.34,-3.14,0.42,-3.10,-1.32,-0.90,
3.977,0.34,-3.14,0.42,-3.12,-1.38,-0.97,
3.977,0.34,-3.14,0.42,-3.15,-1.42,-1.03,
3.977,0.34,-3.14,0.42,-3.20,-1.47,-1.10,
3.977,0.34,-3.14,0.42,-3.21,-1.48,-1.12,
3.978,0.34,-3.14,0.42,-3.25,-1.50,-1.14,
3.978,-0.40,-2.42,0.75,-3.25,-1.50,-1.14,
3.978,-0.40,-2.42,0.75,-3.28,-1.51,-1.15,
3.982,-0.40,-2.42,0.75,-3.31,-1.50,-1.15,
3.983,-0.40,-2.42,0.75,-3.35,-1.49,-1.13,
3.983,-0.40,-2.42,0.75,-3.36,-1.48,-1.13,
3.985,-0.40,-2.42,0.75,-3.39,-1.47,-1.10,
3.99,-0.64,-1.23,0.82,-3.39,-1.47,-1.10,
3.991,-0.64,-1.23,0.82,-3.41,-1.44,-1.07,
3.991,-0.64,-1.23,0.82,-3.42,-1.42,-1.04,
3.993,-0.64,-1.23,0.82,-3.44,-1.38,-0.98,
3.994,-0.64,-1.23,0.82,-3.45,-1.36,-0.96,
3.995,-0.64,-1.23,0.82,-3.46,-1.34,-0.92,
3.998,-0.41,-0.11,0.82,-3.46,-1.34,-0.92,
3.998,-0.41,-0.11,0.82,-3.46,-1.31,-0.88,
3.999,-0.41,-0.11,0.82,-3.46,-1.28,-0.84,
4.002,-0.41,-0.11,0.82,-3.46,-1.26,-0.78,
4.003,-0.41,-0.11,0.82,-3.46,-1.25,-0.77,
4.01,-0.41,-0.11,0.82,-3.46,-1.23,-0.74,
4.011,0.03,0.68,0.89,-3.46,-1.23,-0.74,
4.011,0.03,0.68,0.89,-3.45,-1.22,-0.71,
4.011,0.03,0.68,0.89,-3.44,-1.22,-0.68,
4.013,0.03,0.68,0.89,-3.42,-1.22,-0.65,
4.014,0.03,0.68,0.89,-3.42,-1.23,-0.64,
4.052,0.03,0.68,0.89,-3.41,-1.24,-0.63,
4.053,0.51,1.07,0.94,-3.41,-1.24,-0.63,
4.053,0.51,1.07,0.94,-3.39,-1.26,-0.61,
4.053,0.51,1.07,0.94,-3.38,-1.27,-0.60,
4.054,0.51,1.07,0.94,-3.36,-1.30,-0.59,
4.054,0.51,1.07,0.94,-3.35,-1.31,-0.59,
4.054,0.51,1.07,0.94,-3.33,-1.33,-0.59,
4.054,1.08,1.39,0.76,-3.33,-1.33,-0.59,
4.054,1.08,1.39,0.76,-3.32,-1.34,-0.59,
4.055,1.08,1.39,0.76,-3.30,-1.35,-0.60,
4.055,1.08,1.39,0.76,-3.27,-1.36,-0.60,
4.055,1.08,1.39,0.76,-3.26,-1.36,-0.60,
4.055,1.08,1.39,0.76,-3.24,-1.36,-0.60,
4.055,1.13,1.63,0.19,-3.24,-1.36,-0.60,
4.056,1.13,1.63,0.19,-3.22,-1.36,-0.61,
4.056,1.13,1.63,0.19,-3.21,-1.35,-0.61,
4.056,1.13,1.63,0.19,-3.19,-1.35,-0.61,
4.056,1.13,1.63,0.19,-3.18,-1.35,-0.61,
4.056,1.13,1.63,0.19,-3.18,-1.36,-0.61,
4.056,0.69,1.71,-0.52,-3.18,-1.36,-0.61,
4.057,0.69,1.71,-0.52,-3.17,-1.36,-0.61,
4.057,0.69,1.71,-0.52,-3.16,-1.37,-0.60,
4.057,0.69,1.71,-0.52,-3.15,-1.39,-0.59,
4.057,0.69,1.71,-0.52,-3.15,-1.39,-0.59,
4.057,0.69,1.71,-0.52,-3.14,-1.41,-0.57,
4.058,0.07,1.71,-0.65,-3.14,-1.41,-0.57,
4.058,0.07,1.71,-0.65,-3.13,-1.42,-0.56,
4.061,0.07,1.71,-0.65,-3.12,-1.44,-0.54,
4.067,0.07,1.71,-0.65,-3.10,-1.46,-0.52,
4.068,0.07,1.71,-0.65,-3.10,-1.47,-0.51,
4.069,0.07,1.71,-0.65,-3.08,-1.48,-0.49,
4.07,-0.47,1.64,-0.46,-3.08,-1.48,-0.49,
4.07,-0.47,1.64,-0.46,-3.07,-1.49,-0.48,
4.071,-0.47,1.64,-0.46,-3.06,-1.50,-0.46,
4.074,-0.47,1.64,-0.46,-3.03,-1.49,-0.44,
4.075,-0.47,1.64,-0.46,-3.02,-1.50,-0.43,
4.079,-0.47,1.64,-0.46,-3.00,-1.49,-0.41,
4.08,-0.75,1.31,-0.03,-3.00,-1.49,-0.41,
4.081,-0.75,1.31,-0.03,-2.98,-1.49,-0.40,
4.082,-0.75,1.31,-0.03,-2.96,-1.49,-0.39,
4.083,-0.75,1.31,-0.03,-2.93,-1.49,-0.36,
4.084,-0.75,1.31,-0.03,-2.92,-1.49,-0.36,
4.09,-0.75,1.31,-0.03,-2.90,-1.48,-0.34,
4.09,-0.87,0.85,0.42,-2.90,-1.48,-0.34,
4.091,-0.87,0.85,0.42,-2.87,-1.49,-0.33,
4.091,-0.87,0.85,0.42,-2.85,-1.49,-0.31,
4.093,-0.87,0.85,0.42,-2.82,-1.49,-0.29,
4.094,-0.87,0.85,0.42,-2.80,-1.49,-0.28,
4.096,-0.87,0.85,0.42,-2.77,-1.48,-0.26,
4.098,-1.08,0.15,0.61,-2.77,-1.48,-0.26,
4.098,-1.08,0.15,0.61,-2.75,-1.47,-0.25,
4.1,-1.08,0.15,0.61,-2.73,-1.45,-0.23,
4.103,-1.08,0.15,0.61,-2.70,-1.41,-0.21,
4.105,-1.08,0.15,0.61,-2.69,-1.40,-0.20,
4.107,-1.08,0.15,0.61,-2.67,-1.36,-0.18,
4.108,-1.21,-0.74,0.43,-2.67,-1.36,-0.18,
4.108,-1.21,-0.74,0.43,-2.66,-1.34,-0.17,
4.11,-1.21,-0.74,0.43,-2.65,-1.31,-0.16,
4.113,-1.21,-0.74,0.43,-2.64,-1.25,-0.15,
4.114,-1.21,-0.74,0.43,-2.64,-1.22,-0.14,
4.116,-1.21,-0.74,0.43,-2.63,-1.17,-0.13,
4.119,-1.10,-1.50,0.17,-2.63,-1.17,-0.13,
4.119,-1.10,-1.50,0.17,-2.63,-1.12,-0.13,
4.142,-1.10,-1.50,0.17,-2.60,-0.95,-0.13,
4.142,-1.10,-1.50,0.17,-2.60,-0.95,-0.13,
4.143,-1.10,-1.50,0.17,-2.59,-0.87,-0.13,
4.143,-1.10,-1.50,0.17,-2.59,-0.87,-0.13,
4.143,-0.81,-1.87,0.20,-2.59,-0.87,-0.13,
4.143,-0.81,-1.87,0.20,-2.58,-0.84,-0.13,
4.144,-0.81,-1.87,0.20,-2.56,-0.78,-0.14,
4.144,-0.81,-1.87,0.20,-2.54,-0.70,-0.15,
4.144,-0.81,-1.87,0.20,-2.53,-0.67,-0.16,
4.145,-0.81,-1.87,0.20,-2.50,-0.62,-0.17,
4.145,-0.32,-1.90,0.37,-2.50,-0.62,-0.17,
4.145,-0.32,-1.90,0.37,-2.47,-0.59,-0.18,
4.145,-0.32,-1.90,0.37,-2.44,-0.55,-0.19,
4.146,-0.32,-1.90,0.37,-2.39,-0.51,-0.21,
4.146,-0.32,-1.90,0.37,-2.37,-0.50,-0.21,
4.146,-0.32,-1.90,0.37,-2.33,-0.47,-0.22,
4.152,-0.12,-1.87,0.70,-2.33,-0.47,-0.22,
4.152,-0.12,-1.87,0.70,-2.28,-0.45,-0.23,
4.153,-0.12,-1.87,0.70,-2.24,-0.43,-0.24,
4.153,-0.12,-1.87,0.70,-2.17,-0.41,-0.25,
4.155,-0.12,-1.87,0.70,-2.15,-0.40,-0.26,
4.163,-0.12,-1.87,0.70,-2.10,-0.39,-0.27,
4.164,0.01,-1.69,0.76,-2.10,-0.39,-0.27,
4.164,0.01,-1.69,0.76,-2.05,-0.38,-0.28,
4.164,0.01,-1.69,0.76,-2.01,-0.37,-0.29,
4.165,0.01,-1.69,0.76,-1.94,-0.37,-0.31,
4.165,0.01,-1.69,0.76,-1.91,-0.36,-0.32,
4.166,0.01,-1.69,0.76,-1.86,-0.37,-0.33,
4.169,0.45,-1.42,0.86,-1.86,-0.37,-0.33,
4.169,0.45,-1.42,0.86,-1.82,-0.37,-0.35,
4.169,0.45,-1.42,0.86,-1.77,-0.38,-0.37,
4.192,0.45,-1.42,0.86,-1.71,-0.40,-0.41,
4.192,0.45,-1.42,0.86,-1.69,-0.40,-0.43,
4.192,0.45,-1.42,0.86,-1.65,-0.42,-0.45,
4.193,0.94,-1.18,1.05,-1.65,-0.42,-0.45,
4.193,0.94,-1.18,1.05,-1.61,-0.43,-0.48,
4.193,0.94,-1.18,1.05,-1.57,-0.44,-0.51,
4.193,0.94,-1.18,1.05,-1.51,-0.47,-0.55,
4.193,0.94,-1.18,1.05,-1.49,-0.48,-0.56,
4.194,0.94,-1.18,1.05,-1.45,-0.49,-0.59,
4.195,1.17,-0.92,1.63,-1.45,-0.49,-0.59,
4.195,1.17,-0.92,1.63,-1.41,-0.50,-0.61,
4.196,1.17,-0.92,1.63,-1.37,-0.50,-0.64,
4.196,1.17,-0.92,1.63,-1.32,-0.48,-0.67,
4.196,1.17,-0.92,1.63,-1.31,-0.47,-0.68,
4.196,1.17,-0.92,1.63,-1.29,-0.44,-0.71,
4.198,1.56,-0.41,2.01,-1.29,-0.44,-0.71,
4.199,1.56,-0.41,2.01,-1.28,-0.40,-0.74,
4.199,1.56,-0.41,2.01,-1.27,-0.34,-0.76,
4.203,1.56,-0.41,2.01,-1.27,-0.23,-0.80,
4.204,1.56,-0.41,2.01,-1.27,-0.19,-0.82,
4.206,1.56,-0.41,2.01,-1.27,-0.13,-0.84,
4.208,2.25,0.09,2.20,-1.27,-0.13,-0.84,
4.208,2.25,0.09,2.20,-1.28,-0.08,-0.85,
4.211,2.25,0.09,2.20,-1.30,-0.06,-0.86,
4.212,2.25,0.09,2.20,-1.33,-0.04,-0.87,
4.214,2.25,0.09,2.20,-1.35,-0.04,-0.87,
4.217,2.25,0.09,2.20,-1.38,-0.04,-0.87,
4.217,2.11,0.16,2.21,-1.38,-0.04,-0.87,
4.218,2.11,0.16,2.21,-1.42,-0.05,-0.86,
4.219,2.11,0.16,2.21,-1.46,-0.07,-0.86,
4.223,2.11,0.16,2.21,-1.52,-0.11,-0.85,
4.224,2.11,0.16,2.21,-1.54,-0.13,-0.85,
4.226,2.11,0.16,2.21,-1.58,-0.19,-0.84,
4.227,2.27,0.32,1.98,-1.58,-0.19,-0.84,
4.228,2.27,0.32,1.98,-1.62,-0.26,-0.83,
4.229,2.27,0.32,1.98,-1.64,-0.34,-0.81,
4.232,2.27,0.32,1.98,-1.68,-0.47,-0.79,
4.233,2.27,0.32,1.98,-1.70,-0.51,-0.78,
4.235,2.27,0.32,1.98,-1.71,-0.60,-0.75,
4.238,2.03,0.28,1.81,-1.71,-0.60,-0.75,
4.238,2.03,0.28,1.81,-1.72,-0.68,-0.73,
4.24,2.03,0.28,1.81,-1.73,-0.77,-0.71,
4.243,2.03,0.28,1.81,-1.72,-0.89,-0.67,
4.243,2.03,0.28,1.81,-1.72,-0.97,-0.65,
4.245,2.03,0.28,1.81,-1.71,-1.01,-0.64,
4.247,2.02,0.17,1.59,-1.71,-1.01,-0.64,
4.247,2.02,0.17,1.59,-1.69,-1.09,-0.62,
4.249,2.02,0.17,1.59,-1.67,-1.16,-0.60,
4.252,2.02,0.17,1.59,-1.64,-1.27,-0.58,
4.259,2.02,0.17,1.59,-1.62,-1.30,-0.57,
4.259,2.02,0.17,1.59,-1.60,-1.35,-0.56,
4.259,2.22,0.14,1.16,-1.60,-1.35,-0.56,
4.26,2.22,0.14,1.16,-1.57,-1.39,-0.55,
4.26,2.22,0.14,1.16,-1.54,-1.42,-0.55,
4.262,2.22,0.14,1.16,-1.50,-1.45,-0.55,
4.263,2.22,0.14,1.16,-1.49,-1.45,-0.55,
4.266,2.22,0.14,1.16,-1.47,-1.44,-0.56,
4.268,2.80,0.07,0.37,-1.47,-1.44,-0.56,
4.268,2.80,0.07,0.37,-1.45,-1.41,-0.57,
4.289,2.80,0.07,0.37,-1.43,-1.38,-0.57,
4.289,2.80,0.07,0.37,-1.41,-1.30,-0.58,
4.289,2.80,0.07,0.37,-1.40,-1.27,-0.59,
4.289,2.80,0.07,0.37,-1.39,-1.20,-0.59,
4.289,2.91,0.12,-0.44,-1.39,-1.20,-0.59,
4.29,2.91,0.12,-0.44,-1.39,-1.13,-0.60,
4.29,2.91,0.12,-0.44,-1.38,-1.06,-0.60,
4.29,2.91,0.12,-0.44,-1.37,-0.96,-0.61,
4.29,2.91,0.12,-0.44,-1.37,-0.93,-0.61,
4.29,2.91,0.12,-0.44,-1.37,-0.87,-0.61,
4.301,3.08,0.27,-0.61,-1.37,-0.87,-0.61,
4.301,3.08,0.27,-0.61,-1.37,-0.81,-0.61,
4.301,3.08,0.27,-0.61,-1.37,-0.77,-0.60,
4.301,3.08,0.27,-0.61,-1.38,-0.72,-0.59,
4.301,3.08,0.27,-0.61,-1.38,-0.72,-0.59,
4.301,3.08,0.27,-0.61,-1.40,-0.72,-0.57,
4.301,2.95,0.62,-0.12,-1.40,-0.72,-0.57,
4.302,2.95,0.62,-0.12,-1.42,-0.75,-0.55,
4.302,2.95,0.62,-0.12,-1.44,-0.79,-0.53,
4.303,2.95,0.62,-0.12,-1.49,-0.90,-0.49,
4.304,2.95,0.62,-0.12,-1.51,-0.95,-0.48,
4.305,2.95,0.62,-0.12,-1.56,-1.06,-0.44,
4.307,2.94,1.16,0.81,-1.56,-1.06,-0.44,
4.307,2.94,1.16,0.81,-1.61,-1.18,-0.40,
4.309,2.94,1.16,0.81,-1.67,-1.32,-0.37,
4.312,2.94,1.16,0.81,-1.76,-1.55,-0.31,
4.313,2.94,1.16,0.81,-1.80,-1.64,-0.29,
4.315,2.94,1.16,0.81,-1.86,-1.80,-0.24,
4.317,2.73,1.79,1.87,-1.86,-1.80,-0.24,
4.317,2.73,1.79,1.87,-1.92,-1.98,-0.20,
4.319,2.73,1.79,1.87,-1.98,-2.15,-0.16,
4.322,2.73,1.79,1.87,-2.08,-2.42,-0.11,
4.323,2.73,1.79,1.87,-2.10,-2.51,-0.09,
4.325,2.73,1.79,1.87,-2.15,-2.69,-0.06,
4.327,2.62,2.17,3.28,-2.15,-2.69,-0.06,
4.327,2.62,2.17,3.28,-2.20,-2.86,-0.04,
4.329,2.62,2.17,3.28,-2.24,-3.03,-0.02,
4.333,2.62,2.17,3.28,-2.30,-3.34,-0.01,
4.334,2.62,2.17,3.28,-2.31,-3.42,-0.02,
4.335,2.62,2.17,3.28,-2.32,-3.49,-0.02,
4.337,2.63,2.06,5.10,-2.32,-3.49,-0.02,
4.337,2.63,2.06,5.10,-2.34,-3.63,-0.04,
4.339,2.63,2.06,5.10,-2.35,-3.77,-0.06,
4.342,2.63,2.06,5.10,-2.35,-3.94,-0.11,
4.343,2.63,2.06,5.10,-2.34,-4.03,-0.15,
4.345,2.63,2.06,5.10,-2.33,-4.07,-0.17,
4.347,2.45,1.44,8.64,-2.33,-4.07,-0.17,
4.348,2.45,1.44,8.64,-2.29,-4.14,-0.22,
4.349,2.45,1.44,8.64,-2.22,-4.18,-0.26,
4.352,2.45,1.44,8.64,-2.07,-4.18,-0.32,
4.353,2.45,1.44,8.64,-2.01,-4.16,-0.34,
4.356,2.45,1.44,8.64,-1.87,-4.09,-0.38,
4.357,1.03,-0.02,13.71,-1.87,-4.09,-0.38,
4.358,1.03,-0.02,13.71,-1.72,-3.97,-0.41,
4.36,1.03,-0.02,13.71,-1.57,-3.82,-0.44,
4.362,1.03,-0.02,13.71,-1.31,-3.52,-0.49,
4.363,1.03,-0.02,13.71,-1.14,-3.28,-0.52,
4.365,1.03,-0.02,13.71,-1.06,-3.14,-0.54,
4.367,-0.21,-1.59,15.32,-1.06,-3.14,-0.54,
4.368,-0.21,-1.59,15.32,-0.89,-2.86,-0.56,
4.37,-0.21,-1.59,15.32,-0.73,-2.56,-0.59,
4.373,-0.21,-1.59,15.32,-0.49,-2.09,-0.62,
4.373,-0.21,-1.59,15.32,-0.42,-1.93,-0.64,
4.376,-0.21,-1.59,15.32,-0.27,-1.62,-0.65,
4.377,-0.70,-2.37,12.53,-0.27,-1.62,-0.65,
4.378,-0.70,-2.37,12.53,-0.14,-1.33,-0.66,
4.379,-0.70,-2.37,12.53,-0.01,-1.05,-0.67,
4.382,-0.70,-2.37,12.53,0.16,-0.66,-0.67,
4.384,-0.70,-2.37,12.53,0.21,-0.55,-0.66,
4.388,-0.70,-2.37,12.53,0.30,-0.35,-0.65,
4.391,-1.15,-2.27,8.73,0.30,-0.35,-0.65,
4.391,-1.15,-2.27,8.73,0.38,-0.17,-0.63,
4.392,-1.15,-2.27,8.73,0.46,-0.03,-0.61,
4.392,-1.15,-2.27,8.73,0.55,0.13,-0.57,
4.399,-1.15,-2.27,8.73,0.58,0.16,-0.55,
4.399,-1.15,-2.27,8.73,0.62,0.22,-0.52,
4.399,-1.34,-2.00,5.48,0.62,0.22,-0.52,
4.4,-1.34,-2.00,5.48,0.66,0.25,-0.49,
4.4,-1.34,-2.00,5.48,0.70,0.25,-0.46,
4.406,-1.34,-2.00,5.48,0.72,0.22,-0.40,
4.406,-1.34,-2.00,5.48,0.73,0.20,-0.39,
4.406,-1.34,-2.00,5.48,0.73,0.14,-0.35,
4.407,-1.25,-2.03,3.53,0.73,0.14,-0.35,
4.407,-1.25,-2.03,3.53,0.73,0.07,-0.31,
4.409,-1.25,-2.03,3.53,0.72,-0.01,-0.28,
4.414,-1.25,-2.03,3.53,0.69,-0.15,-0.22,
4.414,-1.25,-2.03,3.53,0.68,-0.20,-0.21,
4.415,-1.25,-2.03,3.53,0.65,-0.29,-0.17,
4.419,-1.19,-2.25,2.47,0.65,-0.29,-0.17,
4.419,-1.19,-2.25,2.47,0.64,-0.37,-0.14,
4.433,-1.19,-2.25,2.47,0.62,-0.44,-0.11,
4.433,-1.19,-2.25,2.47,0.62,-0.53,-0.06,
4.434,-1.19,-2.25,2.47,0.62,-0.56,-0.05,
4.434,-1.19,-2.25,2.47,0.63,-0.59,-0.02,
4.434,-1.14,-2.62,2.90,0.63,-0.59,-0.02,
4.435,-1.14,-2.62,2.90,0.66,-0.61,0.01,
4.435,-1.14,-2.62,2.90,0.69,-0.62,0.03,
4.435,-1.14,-2.62,2.90,0.77,-0.60,0.07,
4.435,-1.14,-2.62,2.90,0.80,-0.59,0.09,
4.438,-1.14,-2.62,2.90,0.88,-0.55,0.11,
4.442,-0.81,-3.22,3.35,0.88,-0.55,0.11,
4.443,-0.81,-3.22,3.35,0.96,-0.50,0.13,
4.444,-0.81,-3.22,3.35,1.04,-0.44,0.14,
4.446,-0.81,-3.22,3.35,1.19,-0.32,0.16,
4.447,-0.81,-3.22,3.35,1.24,-0.28,0.16,
4.448,-0.81,-3.22,3.35,1.34,-0.20,0.16,
4.448,0.14,-4.29,3.05,1.34,-0.20,0.16,
4.45,0.14,-4.29,3.05,1.45,-0.11,0.16,
4.45,0.14,-4.29,3.05,1.55,-0.02,0.15,
4.456,0.14,-4.29,3.05,1.71,0.11,0.14,
4.481,0.14,-4.29,3.05,1.76,0.15,0.13,
4.481,0.14,-4.29,3.05,1.91,0.26,0.10,
4.482,0.93,-5.52,2.49,1.91,0.26,0.10,
4.482,0.93,-5.52,2.49,1.95,0.29,0.09,
4.483,0.93,-5.52,2.49,2.04,0.34,0.07,
4.483,0.93,-5.52,2.49,2.15,0.41,0.03,
4.484,0.93,-5.52,2.49,2.19,0.42,0.02,
4.484,0.93,-5.52,2.49,2.26,0.44,-0.01,
4.485,1.21,-6.12,2.71,2.26,0.44,-0.01,
4.485,1.21,-6.12,2.71,2.32,0.44,-0.03,
4.485,1.21,-6.12,2.71,2.39,0.44,-0.06,
4.486,1.21,-6.12,2.71,2.51,0.39,-0.08,
4.486,1.21,-6.12,2.71,2.63,0.33,-0.09,
4.487,1.21,-6.12,2.71,2.71,0.30,-0.09,
4.487,0.63,-4.88,5.96,2.71,0.30,-0.09,
4.488,0.63,-4.88,5.96,2.87,0.23,-0.09,
4.488,0.63,-4.88,5.96,3.06,0.16,-0.08,
4.488,0.63,-4.88,5.96,3.37,0.06,-0.07,
4.489,0.63,-4.88,5.96,3.47,0.03,-0.07,
4.489,0.63,-4.88,5.96,3.67,-0.02,-0.06,
4.49,-0.13,-3.16,10.05,3.67,-0.02,-0.06,
4.49,-0.13,-3.16,10.05,3.85,-0.05,-0.06,
4.491,-0.13,-3.16,10.05,4.01,-0.07,-0.06,
4.495,-0.13,-3.16,10.05,4.21,-0.07,-0.07,
4.496,-0.13,-3.16,10.05,4.26,-0.06,-0.07,
4.496,-0.13,-3.16,10.05,4.34,-0.02,-0.09,
4.502,-0.22,-2.86,6.12,4.34,-0.02,-0.09,
4.502,-0.22,-2.86,6.12,4.39,0.03,-0.10,
4.503,-0.22,-2.86,6.12,4.41,0.11,-0.12,
4.503,-0.22,-2.86,6.12,4.40,0.24,-0.15,
4.504,-0.22,-2.86,6.12,4.36,0.34,-0.17,
4.508,-0.22,-2.86,6.12,4.33,0.40,-0.18,
4.508,-0.41,-3.35,-0.12,4.33,0.40,-0.18,
4.508,-0.41,-3.35,-0.12,4.27,0.51,-0.20,
4.509,-0.41,-3.35,-0.12,4.19,0.63,-0.22,
4.512,-0.41,-3.35,-0.12,4.04,0.81,-0.27,
4.513,-0.41,-3.35,-0.12,3.99,0.87,-0.29,
4.515,-0.41,-3.35,-0.12,3.88,0.99,-0.33,
4.517,0.64,-3.79,-5.21,3.88,0.99,-0.33,
4.518,0.64,-3.79,-5.21,3.78,1.11,-0.37,
4.519,0.64,-3.79,-5.21,3.67,1.21,-0.42,
4.522,0.64,-3.79,-5.21,3.52,1.35,-0.49,
4.524,0.64,-3.79,-5.21,3.47,1.39,-0.52,
4.525,0.64,-3.79,-5.21,3.37,1.46,-0.57,
4.527,1.79,-3.79,-8.05,3.37,1.46,-0.57,
4.528,1.79,-3.79,-8.05,3.28,1.52,-0.63,
4.529,1.79,-3.79,-8.05,3.19,1.57,-0.68,
4.532,1.79,-3.79,-8.05,3.07,1.62,-0.75,
4.533,1.79,-3.79,-8.05,3.00,1.63,-0.78,
4.544,1.79,-3.79,-8.05,2.97,1.63,-0.80,
4.545,1.53,-4.02,-7.99,2.97,1.63,-0.80,
4.545,1.53,-4.02,-7.99,2.90,1.63,-0.82,
4.545,1.53,-4.02,-7.99,2.84,1.61,-0.83,
4.546,1.53,-4.02,-7.99,2.76,1.56,-0.83,
4.546,1.53,-4.02,-7.99,2.70,1.52,-0.82,
4.546,1.53,-4.02,-7.99,2.68,1.49,-0.81,
4.579,-0.18,-4.66,-7.39,2.68,1.49,-0.81,
4.58,-0.18,-4.66,-7.39,2.62,1.44,-0.79,
4.58,-0.18,-4.66,-7.39,2.56,1.38,-0.76,
4.581,-0.18,-4.66,-7.39,2.48,1.28,-0.71,
4.581,-0.18,-4.66,-7.39,2.46,1.24,-0.69,
4.581,-0.18,-4.66,-7.39,2.40,1.17,-0.65,
4.583,-1.79,-5.34,-7.04,2.40,1.17,-0.65,
4.583,-1.79,-5.34,-7.04,2.35,1.10,-0.61,
4.583,-1.79,-5.34,-7.04,2.30,1.02,-0.57,
4.583,-1.79,-5.34,-7.04,2.22,0.89,-0.49,
4.584,-1.79,-5.34,-7.04,2.20,0.85,-0.46,
4.584,-1.79,-5.34,-7.04,2.15,0.75,-0.40,
4.584,-3.28,-5.96,-7.04,2.15,0.75,-0.40,
4.584,-3.28,-5.96,-7.04,2.11,0.66,-0.34,
4.584,-3.28,-5.96,-7.04,2.06,0.56,-0.27,
4.585,-3.28,-5.96,-7.04,1.99,0.40,-0.16,
4.585,-3.28,-5.96,-7.04,1.95,0.29,-0.09,
4.59,-3.28,-5.96,-7.04,1.93,0.23,-0.05,
4.59,-4.56,-6.48,-6.68,1.93,0.23,-0.05,
4.591,-4.56,-6.48,-6.68,1.89,0.11,0.03,
4.592,-4.56,-6.48,-6.68,1.85,-0.01,0.12,
4.593,-4.56,-6.48,-6.68,1.80,-0.20,0.25,
4.595,-4.56,-6.48,-6.68,1.78,-0.26,0.30,
4.596,-4.56,-6.48,-6.68,1.75,-0.39,0.38,
4.596,-5.80,-6.63,-6.39,1.75,-0.39,0.38,
4.596,-5.80,-6.63,-6.39,1.72,-0.52,0.47,
4.597,-5.80,-6.63,-6.39,1.69,-0.65,0.56,
4.597,-5.80,-6.63,-6.39,1.66,-0.86,0.69,
4.597,-5.80,-6.63,-6.39,1.64,-0.99,0.78,
4.597,-5.80,-6.63,-6.39,1.63,-1.06,0.82,
4.598,-6.26,-6.04,-5.61,1.63,-1.06,0.82,
4.598,-6.26,-6.04,-5.61,1.63,-1.19,0.90,
4.602,-6.26,-6.04,-5.61,1.63,-1.30,0.97,
4.603,-6.26,-6.04,-5.61,1.77,-1.40,1.07,
4.607,-6.26,-6.04,-5.61,1.98,-1.39,1.12,
4.607,-6.26,-6.04,-5.61,2.10,-1.36,1.14,
4.609,-5.58,-4.83,1.36,2.10,-1.36,1.14,
4.609,-5.58,-4.83,1.36,2.34,-1.30,1.17,
4.61,-5.58,-4.83,1.36,2.57,-1.23,1.19,
4.612,-5.58,-4.83,1.36,2.91,-1.11,1.22,
4.613,-5.58,-4.83,1.36,3.11,-1.03,1.24,
4.615,-5.58,-4.83,1.36,3.20,-0.99,1.24,
4.618,-4.17,-3.68,4.58,3.20,-0.99,1.24,
4.618,-4.17,-3.68,4.58,3.37,-0.92,1.25,
4.635,-4.17,-3.68,4.58,3.51,-0.85,1.25,
4.635,-4.17,-3.68,4.58,3.66,-0.74,1.25,
4.636,-4.17,-3.68,4.58,3.73,-0.67,1.25,
4.636,-4.17,-3.68,4.58,3.76,-0.64,1.25,
4.636,-3.54,-2.71,1.21,3.76,-0.64,1.25,
4.636,-3.54,-2.71,1.21,3.79,-0.56,1.24,
4.637,-3.54,-2.71,1.21,3.81,-0.48,1.24,
4.637,-3.54,-2.71,1.21,3.80,-0.34,1.22,
4.637,-3.54,-2.71,1.21,3.76,-0.25,1.20,
4.637,-3.54,-2.71,1.21,3.74,-0.21,1.19,
4.637,-2.82,-1.88,-2.66,3.74,-0.21,1.19,
4.638,-2.82,-1.88,-2.66,3.69,-0.12,1.17,
4.642,-2.82,-1.88,-2.66,3.62,-0.03,1.15,
4.645,-2.82,-1.88,-2.66,3.51,0.11,1.12,
4.645,-2.82,-1.88,-2.66,3.42,0.20,1.09,
4.645,-2.82,-1.88,-2.66,3.37,0.25,1.08,
4.649,-2.37,-0.93,-5.29,3.37,0.25,1.08,
4.649,-2.37,-0.93,-5.29,3.27,0.35,1.05,
4.649,-2.37,-0.93,-5.29,3.16,0.45,1.03,
4.655,-2.37,-0.93,-5.29,3.00,0.61,0.99,
4.655,-2.37,-0.93,-5.29,2.89,0.71,0.96,
4.656,-2.37,-0.93,-5.29,2.83,0.76,0.95,
4.659,-1.73,0.37,-6.64,2.83,0.76,0.95,
4.659,-1.73,0.37,-6.64,2.71,0.86,0.91,
4.659,-1.73,0.37,-6.64,2.60,0.94,0.88,
4.662,-1.73,0.37,-6.64,2.42,1.04,0.84,
4.663,-1.73,0.37,-6.64,2.31,1.08,0.81,
4.666,-1.73,0.37,-6.64,2.25,1.10,0.79,
4.668,-0.69,1.39,-7.16,2.25,1.10,0.79,
4.669,-0.69,1.39,-7.16,2.15,1.12,0.75,
4.67,-0.69,1.39,-7.16,2.05,1.13,0.71,
4.672,-0.69,1.39,-7.16,1.92,1.13,0.65,
4.673,-0.69,1.39,-7.16,1.85,1.11,0.60,
4.675,-0.69,1.39,-7.16,1.81,1.10,0.58,
4.678,0.68,2.31,-6.03,1.81,1.10,0.58,
4.678,0.68,2.31,-6.03,1.75,1.05,0.52,
4.679,0.68,2.31,-6.03,1.71,1.00,0.46,
4.691,0.68,2.31,-6.03,1.65,0.89,0.37,
4.691,0.68,2.31,-6.03,1.62,0.80,0.30,
4.693,0.68,2.31,-6.03,1.61,0.76,0.27,
4.693,1.92,2.94,-4.71,1.61,0.76,0.27,
4.694,1.92,2.94,-4.71,1.58,0.67,0.21,
4.694,1.92,2.94,-4.71,1.56,0.58,0.15,
4.694,1.92,2.94,-4.71,1.53,0.45,0.07,
4.695,1.92,2.94,-4.71,1.52,0.35,0.02,
4.711,1.92,2.94,-4.71,1.52,0.29,0.00,
4.712,1.84,3.43,-4.00,1.52,0.29,0.00,
4.712,1.84,3.43,-4.00,1.51,0.19,-0.04,
4.712,1.84,3.43,-4.00,1.50,0.08,-0.06,
4.713,1.84,3.43,-4.00,1.49,-0.08,-0.09,
4.713,1.84,3.43,-4.00,1.48,-0.19,-0.11,
4.713,1.84,3.43,-4.00,1.47,-0.23,-0.11,
4.713,1.04,3.75,-4.16,1.47,-0.23,-0.11,
4.713,1.04,3.75,-4.16,1.46,-0.32,-0.12,
4.714,1.04,3.75,-4.16,1.44,-0.40,-0.12,
4.714,1.04,3.75,-4.16,1.42,-0.49,-0.12,
4.715,1.04,3.75,-4.16,1.40,-0.54,-0.12,
4.716,1.04,3.75,-4.16,1.39,-0.56,-0.12,
4.719,0.72,4.21,-4.60,1.39,-0.56,-0.12,
4.719,0.72,4.21,-4.60,1.37,-0.60,-0.11,
4.721,0.72,4.21,-4.60,1.35,-0.62,-0.11,
4.723,0.72,4.21,-4.60,1.31,-0.63,-0.11,
4.723,0.72,4.21,-4.60,1.29,-0.63,-0.10,
4.726,0.72,4.21,-4.60,1.27,-0.62,-0.11,
4.728,0.92,4.56,-5.21,1.27,-0.62,-0.11,
4.728,0.92,4.56,-5.21,1.24,-0.61,-0.11,
4.729,0.92,4.56,-5.21,1.20,-0.58,-0.11,
4.732,0.92,4.56,-5.21,1.14,-0.53,-0.11,
4.733,0.92,4.56,-5.21,1.09,-0.49,-0.11,
4.736,0.92,4.56,-5.21,1.06,-0.48,-0.11,
4.738,1.29,4.89,-5.73,1.06,-0.48,-0.11,
4.738,1.29,4.89,-5.73,1.01,-0.44,-0.11,
4.739,1.29,4.89,-5.73,0.96,-0.40,-0.11,
4.742,1.29,4.89,-5.73,0.87,-0.34,-0.10,
4.745,1.29,4.89,-5.73,0.81,-0.29,-0.09,
4.746,1.29,4.89,-5.73,0.79,-0.27,-0.09,
4.747,1.22,5.12,-6.26,0.79,-0.27,-0.09,
4.748,1.22,5.12,-6.26,0.73,-0.23,-0.07,
4.751,1.22,5.12,-6.26,0.67,-0.19,-0.06,
4.753,1.22,5.12,-6.26,0.57,-0.14,-0.03,
4.754,1.22,5.12,-6.26,0.51,-0.11,-0.01,
4.758,1.22,5.12,-6.26,0.48,-0.10,-0.01,
4.759,1.15,5.39,-6.13,0.48,-0.10,-0.01,
4.759,1.15,5.39,-6.13,0.41,-0.07,0.01,
4.759,1.15,5.39,-6.13,0.35,-0.06,0.03,
4.763,1.15,5.39,-6.13,0.25,-0.04,0.06,
4.766,1.15,5.39,-6.13,0.18,-0.03,0.08,
4.766,1.15,5.39,-6.13,0.15,-0.02,0.08,
4.768,1.33,5.41,-6.12,0.15,-0.02,0.08,
4.769,1.33,5.41,-6.12,0.08,-0.02,0.09,
4.77,1.33,5.41,-6.12,0.02,-0.02,0.10,
4.772,1.33,5.41,-6.12,-0.08,-0.04,0.12,
4.774,1.33,5.41,-6.12,-0.15,-0.05,0.12,
4.776,1.33,5.41,-6.12,-0.18,-0.06,0.12,
4.779,1.54,5.36,-5.74,-0.18,-0.06,0.12,
4.78,1.54,5.36,-5.74,-0.24,-0.07,0.11,
4.78,1.54,5.36,-5.74,-0.30,-0.09,0.10,
4.783,1.54,5.36,-5.74,-0.39,-0.10,0.08,
4.784,1.54,5.36,-5.74,-0.45,-0.11,0.07,
4.786,1.54,5.36,-5.74,-0.48,-0.12,0.06,
4.803,1.68,5.15,-5.87,-0.48,-0.12,0.06,
4.803,1.68,5.15,-5.87,-0.54,-0.12,0.04,
4.804,1.68,5.15,-5.87,-0.60,-0.13,0.03,
4.804,1.68,5.15,-5.87,-0.68,-0.14,-0.01,
4.804,1.68,5.15,-5.87,-0.74,-0.15,-0.03,
4.804,1.68,5.15,-5.87,-0.76,-0.16,-0.04,
4.804,1.36,5.11,-5.74,-0.76,-0.16,-0.04,
4.805,1.36,5.11,-5.74,-0.82,-0.17,-0.05,
4.805,1.36,5.11,-5.74,-0.87,-0.19,-0.07,
4.805,1.36,5.11,-5.74,-0.95,-0.22,-0.10,
4.805,1.36,5.11,-5.74,-1.01,-0.24,-0.11,
4.807,1.36,5.11,-5.74,-1.06,-0.26,-0.12,
4.808,0.86,5.02,-5.67,-1.06,-0.26,-0.12,
4.808,0.86,5.02,-5.67,-1.11,-0.28,-0.14,
4.809,0.86,5.02,-5.67,-1.14,-0.29,-0.15,
4.812,0.86,5.02,-5.67,-1.22,-0.32,-0.16,
4.814,0.86,5.02,-5.67,-1.28,-0.35,-0.18,
4.815,0.86,5.02,-5.67,-1.31,-0.36,-0.18,
4.818,0.36,5.11,-5.26,-1.31,-0.36,-0.18,
4.818,0.36,5.11,-5.26,-1.36,-0.38,-0.19,
4.819,0.36,5.11,-5.26,-1.42,-0.40,-0.20,
4.822,0.36,5.11,-5.26,-1.52,-0.43,-0.21,
4.823,0.36,5.11,-5.26,-1.58,-0.45,-0.21,
4.825,0.36,5.11,-5.26,-1.61,-0.45,-0.21,
4.827,-0.37,5.16,-5.03,-1.61,-0.45,-0.21,
4.827,-0.37,5.16,-5.03,-1.68,-0.47,-0.21,
4.829,-0.37,5.16,-5.03,-1.75,-0.47,-0.21,
4.832,-0.37,5.16,-5.03,-1.87,-0.47,-0.22,
4.833,-0.37,5.16,-5.03,-1.95,-0.47,-0.22,
4.839,-0.37,5.16,-5.03,-1.99,-0.46,-0.22,
4.84,-0.79,5.16,-4.64,-1.99,-0.46,-0.22,
4.84,-0.79,5.16,-4.64,-2.08,-0.44,-0.22,
4.84,-0.79,5.16,-4.64,-2.17,-0.43,-0.22,
4.85,-0.79,5.16,-4.64,-2.32,-0.40,-0.23,
4.85,-0.79,5.16,-4.64,-2.43,-0.39,-0.24,
4.85,-0.79,5.16,-4.64,-2.49,-0.38,-0.24,
4.869,-0.96,4.67,-4.47,-2.49,-0.38,-0.24,
4.869,-0.96,4.67,-4.47,-2.60,-0.36,-0.25,
4.869,-0.96,4.67,-4.47,-2.72,-0.35,-0.27,
4.869,-0.96,4.67,-4.47,-2.90,-0.34,-0.29,
4.869,-0.96,4.67,-4.47,-3.01,-0.35,-0.32,
4.87,-0.96,4.67,-4.47,-3.07,-0.35,-0.33,
4.87,-0.47,3.51,-3.53,-3.07,-0.35,-0.33,
4.87,-0.47,3.51,-3.53,-3.19,-0.37,-0.36,
4.87,-0.47,3.51,-3.53,-3.36,-0.41,-0.40,
4.87,-0.47,3.51,-3.53,-3.46,-0.45,-0.44,
4.87,-0.47,3.51,-3.53,-3.55,-0.51,-0.47,
4.87,-0.47,3.51,-3.53,-3.60,-0.55,-0.49,
4.874,0.43,1.78,-1.12,-3.60,-0.55,-0.49,
4.874,0.43,1.78,-1.12,-3.67,-0.62,-0.52,
4.874,0.43,1.78,-1.12,-3.74,-0.72,-0.56,
4.874,0.43,1.78,-1.12,-3.80,-0.89,-0.61,
4.875,0.43,1.78,-1.12,-3.83,-1.03,-0.65,
4.875,0.43,1.78,-1.12,-3.83,-1.11,-0.67,
4.877,1.33,-0.31,3.77,-3.83,-1.11,-0.67,
4.878,1.33,-0.31,3.77,-3.83,-1.28,-0.71,
4.879,1.33,-0.31,3.77,-3.82,-1.48,-0.75,
4.882,1.33,-0.31,3.77,-3.76,-1.82,-0.82,
4.884,1.33,-0.31,3.77,-3.70,-2.06,-0.87,
4.885,1.33,-0.31,3.77,-3.66,-2.19,-0.90,
4.887,2.18,-2.88,11.20,-3.66,-2.19,-0.90,
4.888,2.18,-2.88,11.20,-3.53,-2.57,-0.96,
4.889,2.18,-2.88,11.20,-3.40,-2.80,-1.00,
4.892,2.18,-2.88,11.20,-3.23,-2.98,-1.03,
4.893,2.18,-2.88,11.20,-3.02,-3.08,-1.05,
4.895,2.18,-2.88,11.20,-2.73,-3.04,-1.07,
4.897,1.65,-6.24,22.36,-2.73,-3.04,-1.07,
4.897,1.65,-6.24,22.36,-2.38,-2.81,-1.08,
4.899,1.65,-6.24,22.36,-1.99,-2.39,-1.09,
4.902,1.65,-6.24,22.36,-1.40,-1.55,-1.10,
4.904,1.65,-6.24,22.36,-1.21,-1.26,-1.11,
4.905,1.65,-6.24,22.36,-0.88,-0.71,-1.12,
4.907,2.05,-10.60,32.82,-0.88,-0.71,-1.12,
4.908,2.05,-10.60,32.82,-0.59,-0.25,-1.12,
4.909,2.05,-10.60,32.82,-0.37,0.09,-1.13,
4.912,2.05,-10.60,32.82,-0.20,0.30,-1.14,
4.913,2.05,-10.60,32.82,-0.09,0.37,-1.15,
4.915,2.05,-10.60,32.82,-0.03,0.31,-1.17,
4.918,4.27,-10.91,24.57,-0.03,0.31,-1.17,
4.918,4.27,-10.91,24.57,-0.02,0.14,-1.19,
4.919,4.27,-10.91,24.57,-0.06,-0.13,-1.21,
4.922,4.27,-10.91,24.57,-0.13,-0.46,-1.24,
4.923,4.27,-10.91,24.57,-0.23,-0.84,-1.26,
4.925,4.27,-10.91,24.57,-0.35,-1.25,-1.29,
4.927,6.22,-7.85,12.86,-0.35,-1.25,-1.29,
4.928,6.22,-7.85,12.86,-0.49,-1.67,-1.31,
4.929,6.22,-7.85,12.86,-0.63,-2.07,-1.33,
4.932,6.22,-7.85,12.86,-0.78,-2.45,-1.34,
4.934,6.22,-7.85,12.86,-0.92,-2.77,-1.34,
4.935,6.22,-7.85,12.86,-1.05,-3.02,-1.33,
4.938,5.54,-3.97,4.65,-1.05,-3.02,-1.33,
4.938,5.54,-3.97,4.65,-1.16,-3.20,-1.30,
4.939,5.54,-3.97,4.65,-1.26,-3.31,-1.27,
4.942,5.54,-3.97,4.65,-1.37,-3.37,-1.20,
4.943,5.54,-3.97,4.65,-1.40,-3.36,-1.17,
4.945,5.54,-3.97,4.65,-1.45,-3.32,-1.11,
4.947,2.96,-0.73,0.91,-1.45,-3.32,-1.11,
4.948,2.96,-0.73,0.91,-1.49,-3.23,-1.03,
4.949,2.96,-0.73,0.91,-1.50,-3.10,-0.95,
