
time,ax,ay,az,wx,wy,wz,
0.004,-0.27,0.13,-0.51,0.01,0.07,0.04,
0.004,-0.27,0.13,-0.51,-0.01,0.08,0.04,
0.004,-0.27,0.13,-0.51,-0.04,0.08,0.05,
0.004,-0.46,0.17,-0.91,-0.04,0.08,0.05,
0.005,-0.46,0.17,-0.91,-0.07,0.09,0.06,
0.005,-0.46,0.17,-0.91,-0.09,0.09,0.06,
0.005,-0.46,0.17,-0.91,-0.12,0.10,0.07,
0.006,-0.46,0.17,-0.91,-0.15,0.11,0.07,
0.006,-0.46,0.17,-0.91,-0.18,0.12,0.08,
0.006,-0.48,0.22,-1.11,-0.18,0.12,0.08,
0.006,-0.48,0.22,-1.11,-0.20,0.14,0.08,
0.007,-0.48,0.22,-1.11,-0.22,0.15,0.08,
0.021,-0.48,0.22,-1.11,-0.24,0.17,0.08,
0.022,-0.48,0.22,-1.11,-0.27,0.19,0.08,
0.022,-0.48,0.22,-1.11,-0.28,0.21,0.08,
0.022,-0.19,0.31,-1.02,-0.28,0.21,0.08,
0.023,-0.19,0.31,-1.02,-0.30,0.23,0.07,
0.023,-0.19,0.31,-1.02,-0.31,0.25,0.07,
0.023,-0.19,0.31,-1.02,-0.33,0.27,0.06,
0.024,-0.19,0.31,-1.02,-0.34,0.28,0.06,
0.024,-0.19,0.31,-1.02,-0.36,0.30,0.05,
0.026,0.09,0.52,-0.94,-0.36,0.30,0.05,
0.027,0.09,0.52,-0.94,-0.37,0.31,0.04,
0.027,0.09,0.52,-0.94,-0.39,0.33,0.03,
0.055,0.09,0.52,-0.94,-0.41,0.35,0.02,
0.056,0.09,0.52,-0.94,-0.42,0.37,0.01,
0.056,0.09,0.52,-0.94,-0.44,0.39,0.01,
0.056,0.29,0.61,-0.89,-0.44,0.39,0.01,
0.057,0.29,0.61,-0.89,-0.45,0.41,-0.00,
0.057,0.29,0.61,-0.89,-0.46,0.43,-0.01,
0.057,0.29,0.61,-0.89,-0.47,0.46,-0.02,
0.058,0.29,0.61,-0.89,-0.49,0.48,-0.02,
0.058,0.29,0.61,-0.89,-0.50,0.50,-0.02,
0.058,0.23,0.58,-0.91,-0.50,0.50,-0.02,
0.058,0.23,0.58,-0.91,-0.52,0.52,-0.03,
0.058,0.23,0.58,-0.91,-0.53,0.54,-0.03,
0.059,0.23,0.58,-0.91,-0.55,0.56,-0.03,
0.059,0.23,0.58,-0.91,-0.56,0.57,-0.03,
0.059,0.23,0.58,-0.91,-0.58,0.59,-0.03,
0.059,0.24,0.42,-0.89,-0.58,0.59,-0.03,
0.059,0.24,0.42,-0.89,-0.59,0.61,-0.03,
0.06,0.24,0.42,-0.89,-0.61,0.63,-0.03,
0.06,0.24,0.42,-0.89,-0.62,0.65,-0.03,
0.062,0.24,0.42,-0.89,-0.64,0.67,-0.03,
0.064,0.24,0.42,-0.89,-0.65,0.69,-0.03,
0.065,0.06,0.32,-0.77,-0.65,0.69,-0.03,
0.065,0.06,0.32,-0.77,-0.66,0.70,-0.03,
0.066,0.06,0.32,-0.77,-0.67,0.71,-0.03,
0.071,0.06,0.32,-0.77,-0.68,0.72,-0.03,
0.072,0.06,0.32,-0.77,-0.69,0.73,-0.03,
0.073,0.06,0.32,-0.77,-0.70,0.73,-0.03,
0.075,-0.11,0.18,-0.52,-0.70,0.73,-0.03,
0.076,-0.11,0.18,-0.52,-0.71,0.74,-0.03,
0.078,-0.11,0.18,-0.52,-0.72,0.74,-0.02,
0.079,-0.11,0.18,-0.52,-0.72,0.73,-0.02,
0.081,-0.11,0.18,-0.52,-0.73,0.73,-0.02,
0.082,-0.11,0.18,-0.52,-0.73,0.72,-0.01,
0.085,-0.41,0.02,-0.26,-0.73,0.72,-0.01,
0.085,-0.41,0.02,-0.26,-0.74,0.71,-0.01,
0.086,-0.41,0.02,-0.26,-0.74,0.70,0.00,
0.088,-0.41,0.02,-0.26,-0.74,0.69,0.01,
0.092,-0.41,0.02,-0.26,-0.74,0.68,0.02,
0.093,-0.41,0.02,-0.26,-0.74,0.66,0.03,
0.095,-0.76,-0.18,0.02,-0.74,0.66,0.03,
0.095,-0.76,-0.18,0.02,-0.73,0.65,0.04,
0.097,-0.76,-0.18,0.02,-0.73,0.64,0.05,
0.103,-0.76,-0.18,0.02,-0.70,0.60,0.10,
0.103,-0.76,-0.18,0.02,-0.70,0.60,0.10,
0.103,-0.76,-0.18,0.02,-0.70,0.60,0.10,
0.105,-0.76,-0.18,0.02,-0.67,0.58,0.12,
0.105,-1.07,-0.39,0.55,-0.67,0.58,0.12,
0.106,-1.07,-0.39,0.55,-0.66,0.57,0.13,
0.108,-1.07,-0.39,0.55,-0.64,0.55,0.14,
0.11,-1.07,-0.39,0.55,-0.62,0.54,0.16,
0.113,-1.07,-0.39,0.55,-0.60,0.52,0.17,
0.114,-1.22,-0.47,1.06,-0.60,0.52,0.17,
0.114,-1.22,-0.47,1.06,-0.57,0.50,0.19,
0.116,-1.22,-0.47,1.06,-0.55,0.48,0.20,
0.118,-1.22,-0.47,1.06,-0.53,0.46,0.21,
0.122,-1.22,-0.47,1.06,-0.50,0.43,0.22,
0.123,-1.22,-0.47,1.06,-0.48,0.42,0.23,
0.136,-1.07,-0.51,1.24,-0.48,0.42,0.23,
0.136,-1.07,-0.51,1.24,-0.46,0.40,0.23,
0.137,-1.07,-0.51,1.24,-0.43,0.38,0.23,
0.137,-1.07,-0.51,1.24,-0.41,0.37,0.23,
0.137,-1.07,-0.51,1.24,-0.39,0.35,0.23,
0.138,-1.07,-0.51,1.24,-0.36,0.34,0.22,
0.138,-0.67,-0.41,1.24,-0.36,0.34,0.22,
0.138,-0.67,-0.41,1.24,-0.34,0.33,0.21,
0.138,-0.67,-0.41,1.24,-0.32,0.32,0.20,
0.139,-0.67,-0.41,1.24,-0.29,0.31,0.19,
0.143,-0.67,-0.41,1.24,-0.27,0.30,0.18,
0.143,-0.67,-0.41,1.24,-0.25,0.29,0.16,
0.145,-0.29,-0.25,1.30,-0.25,0.29,0.16,
0.145,-0.29,-0.25,1.30,-0.22,0.28,0.15,
0.146,-0.29,-0.25,1.30,-0.20,0.27,0.13,
0.149,-0.29,-0.25,1.30,-0.18,0.27,0.11,
0.15,-0.29,-0.25,1.30,-0.16,0.26,0.09,
0.152,-0.29,-0.25,1.30,-0.14,0.26,0.07,
0.154,0.02,-0.05,1.29,-0.14,0.26,0.07,
0.155,0.02,-0.05,1.29,-0.11,0.25,0.04,
0.156,0.02,-0.05,1.29,-0.09,0.25,0.02,
0.173,0.02,-0.05,1.29,-0.07,0.25,0.00,
0.174,0.02,-0.05,1.29,-0.06,0.25,-0.02,
0.174,0.02,-0.05,1.29,-0.04,0.25,-0.04,
0.174,0.11,0.04,1.20,-0.04,0.25,-0.04,
0.174,0.11,0.04,1.20,-0.02,0.25,-0.06,
0.174,0.11,0.04,1.20,-0.00,0.25,-0.08,
0.175,0.11,0.04,1.20,0.01,0.25,-0.09,
0.175,0.11,0.04,1.20,0.02,0.25,-0.11,
0.175,0.11,0.04,1.20,0.04,0.26,-0.13,
0.175,0.03,0.07,1.05,0.04,0.26,-0.13,
0.175,0.03,0.07,1.05,0.05,0.26,-0.14,
0.178,0.03,0.07,1.05,0.06,0.26,-0.15,
0.178,0.03,0.07,1.05,0.07,0.26,-0.16,
0.181,0.03,0.07,1.05,0.07,0.27,-0.17,
0.182,0.03,0.07,1.05,0.09,0.27,-0.17,
0.186,-0.21,0.07,0.85,0.09,0.27,-0.17,
0.187,-0.21,0.07,0.85,0.09,0.28,-0.18,
0.19,-0.21,0.07,0.85,0.10,0.29,-0.18,
0.19,-0.21,0.07,0.85,0.11,0.30,-0.18,
0.197,-0.21,0.07,0.85,0.11,0.31,-0.18,
0.197,-0.21,0.07,0.85,0.11,0.32,-0.18,
0.197,-0.54,0.04,0.62,0.11,0.32,-0.18,
0.198,-0.54,0.04,0.62,0.12,0.33,-0.18,
0.198,-0.54,0.04,0.62,0.12,0.34,-0.17,
0.198,-0.54,0.04,0.62,0.12,0.35,-0.16,
0.201,-0.54,0.04,0.62,0.12,0.36,-0.16,
0.203,-0.54,0.04,0.62,0.12,0.37,-0.15,
0.207,-0.86,-0.04,0.36,0.12,0.37,-0.15,
0.207,-0.86,-0.04,0.36,0.12,0.37,-0.13,
0.208,-0.86,-0.04,0.36,0.11,0.39,-0.12,
0.209,-0.86,-0.04,0.36,0.11,0.39,-0.11,
0.21,-0.86,-0.04,0.36,0.10,0.40,-0.10,
0.213,-0.86,-0.04,0.36,0.09,0.41,-0.08,
0.214,-1.02,-0.15,0.05,0.09,0.41,-0.08,
0.216,-1.02,-0.15,0.05,0.09,0.41,-0.06,
0.216,-1.02,-0.15,0.05,0.08,0.42,-0.05,
0.218,-1.02,-0.15,0.05,0.07,0.42,-0.04,
0.22,-1.02,-0.15,0.05,0.06,0.43,-0.02,
0.222,-1.02,-0.15,0.05,0.05,0.43,-0.01,
0.224,-1.03,-0.15,-0.14,0.05,0.43,-0.01,
0.225,-1.03,-0.15,-0.14,0.04,0.44,0.01,
0.226,-1.03,-0.15,-0.14,0.04,0.44,0.02,
0.228,-1.03,-0.15,-0.14,0.03,0.45,0.03,
0.23,-1.03,-0.15,-0.14,0.02,0.45,0.04,
0.232,-1.03,-0.15,-0.14,0.01,0.45,0.05,
0.234,-0.86,-0.09,-0.20,0.01,0.45,0.05,
0.234,-0.86,-0.09,-0.20,0.01,0.46,0.06,
0.236,-0.86,-0.09,-0.20,-0.00,0.46,0.07,
0.238,-0.86,-0.09,-0.20,-0.00,0.46,0.08,
0.24,-0.86,-0.09,-0.20,-0.01,0.47,0.09,
0.242,-0.86,-0.09,-0.20,-0.01,0.47,0.09,
0.244,-0.67,0.04,-0.16,-0.01,0.47,0.09,
0.244,-0.67,0.04,-0.16,-0.02,0.47,0.09,
0.246,-0.67,0.04,-0.16,-0.02,0.47,0.10,
0.248,-0.67,0.04,-0.16,-0.02,0.47,0.09,
0.25,-0.67,0.04,-0.16,-0.02,0.47,0.10,
0.252,-0.67,0.04,-0.16,-0.02,0.47,0.09,
0.258,-0.34,0.12,-0.05,-0.02,0.47,0.09,
0.259,-0.34,0.12,-0.05,-0.02,0.47,0.09,
0.259,-0.34,0.12,-0.05,-0.02,0.47,0.08,
0.259,-0.34,0.12,-0.05,-0.02,0.48,0.07,
0.26,-0.34,0.12,-0.05,-0.01,0.48,0.06,
0.263,-0.34,0.12,-0.05,-0.00,0.48,0.05,
0.264,0.02,0.19,0.14,-0.00,0.48,0.05,
0.265,0.02,0.19,0.14,0.00,0.48,0.04,
0.266,0.02,0.19,0.14,0.01,0.48,0.03,
0.268,0.02,0.19,0.14,0.02,0.48,0.02,
0.27,0.02,0.19,0.14,0.03,0.48,0.00,
0.272,0.02,0.19,0.14,0.03,0.49,-0.01,
0.274,0.15,0.29,0.21,0.03,0.49,-0.01,
0.275,0.15,0.29,0.21,0.04,0.49,-0.02,
0.276,0.15,0.29,0.21,0.04,0.49,-0.03,
0.278,0.15,0.29,0.21,0.05,0.49,-0.04,
0.28,0.15,0.29,0.21,0.05,0.49,-0.05,
0.282,0.15,0.29,0.21,0.06,0.49,-0.05,
0.284,0.04,0.30,0.07,0.06,0.49,-0.05,
0.285,0.04,0.30,0.07,0.06,0.49,-0.06,
0.286,0.04,0.30,0.07,0.06,0.49,-0.06,
0.288,0.04,0.30,0.07,0.05,0.49,-0.07,
0.303,0.04,0.30,0.07,0.05,0.49,-0.07,
0.303,0.04,0.30,0.07,0.05,0.49,-0.08,
0.303,-0.10,0.22,-0.26,0.05,0.49,-0.08,
0.303,-0.10,0.22,-0.26,0.04,0.49,-0.08,
0.304,-0.10,0.22,-0.26,0.03,0.49,-0.08,
0.304,-0.10,0.22,-0.26,0.03,0.49,-0.08,
0.304,-0.10,0.22,-0.26,0.02,0.49,-0.09,
0.304,-0.10,0.22,-0.26,0.01,0.50,-0.09,
0.304,-0.19,0.15,-0.46,0.01,0.50,-0.09,
0.305,-0.19,0.15,-0.46,0.01,0.50,-0.09,
0.323,-0.19,0.15,-0.46,0.00,0.50,-0.09,
0.323,-0.19,0.15,-0.46,-0.01,0.50,-0.09,
0.323,-0.19,0.15,-0.46,-0.01,0.49,-0.09,
0.323,-0.19,0.15,-0.46,-0.02,0.49,-0.09,
0.323,-0.31,0.05,-0.44,-0.02,0.49,-0.09,
0.324,-0.31,0.05,-0.44,-0.02,0.49,-0.09,
0.324,-0.31,0.05,-0.44,-0.03,0.49,-0.08,
0.324,-0.31,0.05,-0.44,-0.04,0.48,-0.08,
0.324,-0.31,0.05,-0.44,-0.05,0.48,-0.08,
0.324,-0.31,0.05,-0.44,-0.05,0.47,-0.08,
0.325,-0.46,0.04,-0.48,-0.05,0.47,-0.08,
0.325,-0.46,0.04,-0.48,-0.06,0.46,-0.07,
0.328,-0.46,0.04,-0.48,-0.06,0.46,-0.06,
0.329,-0.46,0.04,-0.48,-0.07,0.45,-0.05,
0.33,-0.46,0.04,-0.48,-0.07,0.44,-0.05,
0.333,-0.46,0.04,-0.48,-0.07,0.44,-0.04,
0.334,-0.57,0.05,-0.35,-0.07,0.44,-0.04,
0.335,-0.57,0.05,-0.35,-0.08,0.44,-0.03,
0.336,-0.57,0.05,-0.35,-0.08,0.44,-0.03,
0.338,-0.57,0.05,-0.35,-0.08,0.44,-0.02,
0.358,-0.57,0.05,-0.35,-0.08,0.44,-0.01,
0.358,-0.57,0.05,-0.35,-0.08,0.44,-0.00,
0.358,-0.63,-0.00,-0.19,-0.08,0.44,-0.00,
0.359,-0.63,-0.00,-0.19,-0.08,0.44,0.00,
0.359,-0.63,-0.00,-0.19,-0.07,0.44,0.01,
0.359,-0.63,-0.00,-0.19,-0.07,0.45,0.02,
0.359,-0.63,-0.00,-0.19,-0.07,0.44,0.02,
0.359,-0.63,-0.00,-0.19,-0.06,0.45,0.03,
0.36,-0.56,-0.11,0.00,-0.06,0.45,0.03,
0.36,-0.56,-0.11,0.00,-0.06,0.45,0.03,
0.36,-0.56,-0.11,0.00,-0.05,0.45,0.04,
0.36,-0.56,-0.11,0.00,-0.05,0.45,0.04,
0.36,-0.56,-0.11,0.00,-0.04,0.45,0.04,
0.362,-0.56,-0.11,0.00,-0.04,0.46,0.05,
0.365,-0.46,-0.18,0.13,-0.04,0.46,0.05,
0.365,-0.46,-0.18,0.13,-0.03,0.46,0.05,
0.366,-0.46,-0.18,0.13,-0.03,0.46,0.05,
0.368,-0.46,-0.18,0.13,-0.02,0.47,0.05,
0.37,-0.46,-0.18,0.13,-0.02,0.48,0.06,
0.373,-0.46,-0.18,0.13,-0.01,0.48,0.06,
0.375,-0.35,-0.17,0.19,-0.01,0.48,0.06,
0.375,-0.35,-0.17,0.19,-0.01,0.49,0.06,
0.376,-0.35,-0.17,0.19,-0.00,0.49,0.06,
0.378,-0.35,-0.17,0.19,0.00,0.49,0.06,
0.38,-0.35,-0.17,0.19,0.00,0.49,0.05,
0.382,-0.35,-0.17,0.19,0.00,0.50,0.05,
0.384,-0.27,-0.08,0.14,0.00,0.50,0.05,
0.385,-0.27,-0.08,0.14,0.01,0.50,0.05,
0.386,-0.27,-0.08,0.14,0.01,0.50,0.05,
0.388,-0.27,-0.08,0.14,0.01,0.50,0.04,
0.39,-0.27,-0.08,0.14,0.01,0.50,0.04,
0.392,-0.27,-0.08,0.14,0.01,0.50,0.04,
0.396,-0.15,-0.03,0.08,0.01,0.50,0.04,
0.396,-0.15,-0.03,0.08,0.01,0.50,0.03,
0.397,-0.15,-0.03,0.08,0.01,0.50,0.03,
0.398,-0.15,-0.03,0.08,0.02,0.50,0.02,
0.4,-0.15,-0.03,0.08,0.01,0.50,0.02,
0.403,-0.15,-0.03,0.08,0.02,0.49,0.02,
0.405,-0.19,-0.01,0.04,0.02,0.49,0.02,
0.406,-0.19,-0.01,0.04,0.02,0.50,0.02,
0.41,-0.19,-0.01,0.04,0.02,0.50,0.01,
0.41,-0.19,-0.01,0.04,0.02,0.50,0.01,
0.41,-0.19,-0.01,0.04,0.02,0.49,0.01,
0.413,-0.19,-0.01,0.04,0.02,0.49,0.01,
0.415,-0.22,-0.01,-0.04,0.02,0.49,0.01,
0.415,-0.22,-0.01,-0.04,0.02,0.48,0.00,
0.416,-0.22,-0.01,-0.04,0.01,0.47,0.00,
0.418,-0.22,-0.01,-0.04,0.01,0.47,-0.00,
0.423,-0.22,-0.01,-0.04,0.01,0.46,-0.00,
0.423,-0.22,-0.01,-0.04,0.01,0.46,-0.01,
0.426,-0.28,-0.03,-0.13,0.01,0.46,-0.01,
0.427,-0.28,-0.03,-0.13,0.01,0.45,-0.01,
0.427,-0.28,-0.03,-0.13,0.00,0.44,-0.02,
0.429,-0.28,-0.03,-0.13,0.00,0.43,-0.02,
0.43,-0.28,-0.03,-0.13,0.00,0.42,-0.03,
0.432,-0.28,-0.03,-0.13,-0.00,0.41,-0.03,
0.435,-0.34,-0.07,-0.18,-0.00,0.41,-0.03,
0.435,-0.34,-0.07,-0.18,-0.00,0.41,-0.03,
0.436,-0.34,-0.07,-0.18,-0.01,0.39,-0.04,
0.439,-0.34,-0.07,-0.18,-0.01,0.38,-0.04,
0.445,-0.34,-0.07,-0.18,-0.01,0.37,-0.04,
0.446,-0.34,-0.07,-0.18,-0.01,0.36,-0.04,
0.446,-0.43,-0.08,-0.17,-0.01,0.36,-0.04,
0.446,-0.43,-0.08,-0.17,-0.01,0.35,-0.04,
0.446,-0.43,-0.08,-0.17,-0.01,0.34,-0.04,
0.448,-0.43,-0.08,-0.17,-0.01,0.33,-0.04,
0.452,-0.43,-0.08,-0.17,-0.01,0.32,-0.04,
0.453,-0.43,-0.08,-0.17,-0.01,0.32,-0.03,
0.454,-0.40,-0.06,-0.18,-0.01,0.32,-0.03,
0.455,-0.40,-0.06,-0.18,-0.01,0.31,-0.03,
0.474,-0.40,-0.06,-0.18,-0.01,0.30,-0.03,
0.474,-0.40,-0.06,-0.18,-0.01,0.30,-0.03,
0.474,-0.40,-0.06,-0.18,-0.01,0.30,-0.03,
0.475,-0.40,-0.06,-0.18,-0.01,0.30,-0.02,
0.475,-0.38,-0.08,-0.16,-0.01,0.30,-0.02,
0.475,-0.38,-0.08,-0.16,-0.02,0.31,-0.02,
0.475,-0.38,-0.08,-0.16,-0.02,0.31,-0.02,
0.475,-0.38,-0.08,-0.16,-0.02,0.31,-0.01,
0.476,-0.38,-0.08,-0.16,-0.02,0.31,-0.01,
0.476,-0.38,-0.08,-0.16,-0.02,0.30,-0.01,
0.476,-0.38,-0.05,-0.07,-0.02,0.30,-0.01,
0.476,-0.38,-0.05,-0.07,-0.02,0.30,-0.00,
0.477,-0.38,-0.05,-0.07,-0.02,0.30,0.00,
0.481,-0.38,-0.05,-0.07,-0.02,0.30,0.01,
0.481,-0.38,-0.05,-0.07,-0.02,0.29,0.01,
0.482,-0.38,-0.05,-0.07,-0.02,0.30,0.02,
0.484,-0.41,-0.02,-0.07,-0.02,0.30,0.02,
0.484,-0.41,-0.02,-0.07,-0.02,0.30,0.02,
0.486,-0.41,-0.02,-0.07,-0.02,0.30,0.03,
0.49,-0.41,-0.02,-0.07,-0.02,0.30,0.03,
0.49,-0.41,-0.02,-0.07,-0.02,0.30,0.03,
0.492,-0.41,-0.02,-0.07,-0.02,0.30,0.03,
0.495,-0.32,-0.02,-0.13,-0.02,0.30,0.03,
0.495,-0.32,-0.02,-0.13,-0.02,0.30,0.04,
0.496,-0.32,-0.02,-0.13,-0.02,0.30,0.04,
0.498,-0.32,-0.02,-0.13,-0.02,0.31,0.04,
0.5,-0.32,-0.02,-0.13,-0.02,0.31,0.04,
0.502,-0.32,-0.02,-0.13,-0.03,0.31,0.04,
0.504,-0.21,-0.04,-0.16,-0.03,0.31,0.04,
0.504,-0.21,-0.04,-0.16,-0.03,0.32,0.04,
0.506,-0.21,-0.04,-0.16,-0.03,0.32,0.04,
0.508,-0.21,-0.04,-0.16,-0.03,0.32,0.04,
0.51,-0.21,-0.04,-0.16,-0.03,0.32,0.03,
0.512,-0.21,-0.04,-0.16,-0.03,0.32,0.03,
0.515,-0.07,-0.01,-0.17,-0.03,0.32,0.03,
0.515,-0.07,-0.01,-0.17,-0.03,0.32,0.03,
0.516,-0.07,-0.01,-0.17,-0.04,0.32,0.02,
0.518,-0.07,-0.01,-0.17,-0.04,0.32,0.02,
0.52,-0.07,-0.01,-0.17,-0.04,0.32,0.02,
0.523,-0.07,-0.01,-0.17,-0.04,0.32,0.01,
0.525,-0.06,0.05,-0.20,-0.04,0.32,0.01,
0.525,-0.06,0.05,-0.20,-0.04,0.31,0.01,
0.526,-0.06,0.05,-0.20,-0.05,0.31,0.01,
0.528,-0.06,0.05,-0.20,-0.05,0.30,0.00,
0.53,-0.06,0.05,-0.20,-0.05,0.30,0.00,
0.532,-0.06,0.05,-0.20,-0.06,0.29,0.00,
0.534,-0.13,0.04,-0.23,-0.06,0.29,0.00,
0.534,-0.13,0.04,-0.23,-0.06,0.29,-0.00,
0.536,-0.13,0.04,-0.23,-0.06,0.28,-0.01,
0.541,-0.13,0.04,-0.23,-0.07,0.27,-0.01,
0.541,-0.13,0.04,-0.23,-0.07,0.26,-0.01,
0.542,-0.13,0.04,-0.23,-0.07,0.25,-0.01,
0.544,-0.20,-0.03,-0.27,-0.07,0.25,-0.01,
0.544,-0.20,-0.03,-0.27,-0.08,0.24,-0.02,
0.546,-0.20,-0.03,-0.27,-0.08,0.24,-0.02,
0.548,-0.20,-0.03,-0.27,-0.08,0.23,-0.02,
0.55,-0.20,-0.03,-0.27,-0.08,0.22,-0.02,
0.552,-0.20,-0.03,-0.27,-0.08,0.21,-0.03,
0.554,-0.25,-0.06,-0.16,-0.08,0.21,-0.03,
0.555,-0.25,-0.06,-0.16,-0.08,0.20,-0.03,
0.566,-0.25,-0.06,-0.16,-0.08,0.20,-0.03,
0.566,-0.25,-0.06,-0.16,-0.07,0.19,-0.03,
0.566,-0.25,-0.06,-0.16,-0.07,0.18,-0.02,
0.566,-0.25,-0.06,-0.16,-0.07,0.17,-0.02,
0.567,-0.27,-0.06,-0.04,-0.07,0.17,-0.02,
0.567,-0.27,-0.06,-0.04,-0.06,0.16,-0.02,
0.567,-0.27,-0.06,-0.04,-0.06,0.16,-0.02,
0.568,-0.27,-0.06,-0.04,-0.06,0.14,-0.02,
0.57,-0.27,-0.06,-0.04,-0.06,0.13,-0.02,
0.59,-0.27,-0.06,-0.04,-0.05,0.12,-0.01,
0.59,-0.27,-0.06,0.06,-0.05,0.12,-0.01,
0.591,-0.27,-0.06,0.06,-0.05,0.11,-0.01,
0.591,-0.27,-0.06,0.06,-0.04,0.10,-0.01,
0.591,-0.27,-0.06,0.06,-0.03,0.08,-0.01,
0.591,-0.27,-0.06,0.06,-0.03,0.08,-0.01,
0.591,-0.27,-0.06,0.06,-0.03,0.07,-0.01,
0.591,-0.23,-0.04,0.10,-0.03,0.07,-0.01,
0.591,-0.23,-0.04,0.10,-0.02,0.05,-0.01,
0.591,-0.23,-0.04,0.10,-0.02,0.04,-0.01,
0.591,-0.23,-0.04,0.10,-0.02,0.04,-0.01,
0.592,-0.23,-0.04,0.10,-0.01,0.02,-0.00,
0.592,-0.23,-0.04,0.10,-0.01,0.01,-0.00,
0.595,-0.19,-0.06,0.02,-0.01,0.01,-0.00,
0.596,-0.19,-0.06,0.02,-0.01,0.01,-0.00,
0.596,-0.19,-0.06,0.02,-0.01,-0.00,-0.01,
0.598,-0.19,-0.06,0.02,-0.01,-0.01,-0.01,
0.6,-0.19,-0.06,0.02,-0.01,-0.01,-0.01,
0.602,-0.19,-0.06,0.02,-0.01,-0.02,-0.01,
0.604,-0.21,-0.06,-0.05,-0.01,-0.02,-0.01,
0.604,-0.21,-0.06,-0.05,-0.01,-0.03,-0.01,
0.615,-0.21,-0.06,-0.05,-0.01,-0.03,-0.01,
0.615,-0.21,-0.06,-0.05,-0.01,-0.04,-0.01,
0.616,-0.21,-0.06,-0.05,-0.01,-0.04,-0.00,
0.616,-0.21,-0.06,-0.05,-0.01,-0.04,-0.00,
0.617,-0.29,-0.04,-0.04,-0.01,-0.04,-0.00,
0.617,-0.29,-0.04,-0.04,-0.01,-0.04,-0.00,
0.617,-0.29,-0.04,-0.04,-0.01,-0.04,0.00,
0.618,-0.29,-0.04,-0.04,-0.01,-0.05,-0.00,
0.62,-0.29,-0.04,-0.04,-0.01,-0.05,-0.00,
0.647,-0.29,-0.04,-0.04,-0.00,-0.05,-0.00,
0.672,-0.27,-0.08,-0.00,-0.00,-0.05,-0.00,
0.673,-0.27,-0.08,-0.00,-0.00,-0.05,-0.00,
0.673,-0.27,-0.08,-0.00,-0.00,-0.05,-0.00,
0.674,-0.27,-0.08,-0.00,-0.00,-0.05,-0.00,
0.674,-0.27,-0.08,-0.00,0.00,-0.05,-0.00,
0.674,-0.27,-0.08,-0.00,0.00,-0.04,-0.01,
0.675,-0.17,-0.12,0.02,0.00,-0.04,-0.01,
0.675,-0.17,-0.12,0.02,0.01,-0.04,-0.01,
0.676,-0.17,-0.12,0.02,0.01,-0.04,-0.01,
0.676,-0.17,-0.12,0.02,0.01,-0.04,-0.01,
0.677,-0.17,-0.12,0.02,0.01,-0.04,-0.02,
0.677,-0.17,-0.12,0.02,0.01,-0.04,-0.02,
0.678,-0.17,-0.10,0.02,0.01,-0.04,-0.02,
0.678,-0.17,-0.10,0.02,0.01,-0.04,-0.02,
0.679,-0.17,-0.10,0.02,0.02,-0.04,-0.03,
0.679,-0.17,-0.10,0.02,0.02,-0.05,-0.03,
0.679,-0.17,-0.10,0.02,0.02,-0.05,-0.03,
0.68,-0.17,-0.10,0.02,0.02,-0.05,-0.04,
0.68,-0.13,-0.03,0.02,0.02,-0.05,-0.04,
0.681,-0.13,-0.03,0.02,0.03,-0.06,-0.05,
0.681,-0.13,-0.03,0.02,0.03,-0.06,-0.05,
0.681,-0.13,-0.03,0.02,0.04,-0.07,-0.06,
0.682,-0.13,-0.03,0.02,0.04,-0.07,-0.06,
0.682,-0.13,-0.03,0.02,0.05,-0.07,-0.06,
0.683,-0.14,0.02,-0.01,0.05,-0.07,-0.06,
0.683,-0.14,0.02,-0.01,0.05,-0.09,-0.06,
0.683,-0.14,0.02,-0.01,0.06,-0.09,-0.06,
0.683,-0.14,0.02,-0.01,0.06,-0.10,-0.06,
0.684,-0.14,0.02,-0.01,0.06,-0.10,-0.06,
0.684,-0.14,0.02,-0.01,0.06,-0.11,-0.07,
0.685,-0.11,0.03,-0.09,0.06,-0.11,-0.07,
0.685,-0.11,0.03,-0.09,0.07,-0.13,-0.07,
0.685,-0.11,0.03,-0.09,0.07,-0.14,-0.07,
0.686,-0.11,0.03,-0.09,0.07,-0.16,-0.07,
0.686,-0.11,0.03,-0.09,0.07,-0.16,-0.07,
0.686,-0.11,0.03,-0.09,0.08,-0.18,-0.07,
0.687,-0.16,0.03,-0.13,0.08,-0.18,-0.07,
0.687,-0.16,0.03,-0.13,0.08,-0.20,-0.07,
0.687,-0.16,0.03,-0.13,0.08,-0.21,-0.07,
0.699,-0.16,0.03,-0.13,0.08,-0.22,-0.07,
0.7,-0.16,0.03,-0.13,0.08,-0.23,-0.07,
0.701,-0.16,0.03,-0.13,0.08,-0.24,-0.07,
0.701,-0.20,0.03,-0.14,0.08,-0.24,-0.07,
0.702,-0.20,0.03,-0.14,0.09,-0.25,-0.07,
0.702,-0.20,0.03,-0.14,0.09,-0.26,-0.07,
0.702,-0.20,0.03,-0.14,0.09,-0.26,-0.07,
0.703,-0.20,0.03,-0.14,0.09,-0.27,-0.07,
0.703,-0.20,0.03,-0.14,0.09,-0.27,-0.07,
0.707,-0.21,0.04,-0.18,0.09,-0.27,-0.07,
0.707,-0.21,0.04,-0.18,0.09,-0.27,-0.07,
0.708,-0.21,0.04,-0.18,0.08,-0.27,-0.07,
0.708,-0.21,0.04,-0.18,0.08,-0.27,-0.07,
0.721,-0.21,0.04,-0.18,0.07,-0.27,-0.07,
0.723,-0.21,0.04,-0.18,0.07,-0.27,-0.07,
0.723,-0.18,0.03,-0.24,0.07,-0.27,-0.07,
0.724,-0.18,0.03,-0.24,0.06,-0.26,-0.08,
0.724,-0.18,0.03,-0.24,0.05,-0.26,-0.08,
0.725,-0.18,0.03,-0.24,0.05,-0.25,-0.08,
0.725,-0.18,0.03,-0.24,0.04,-0.24,-0.08,
0.726,-0.18,0.03,-0.24,0.03,-0.23,-0.08,
0.731,-0.19,0.01,-0.33,0.03,-0.23,-0.08,
0.732,-0.19,0.01,-0.33,0.02,-0.23,-0.08,
0.732,-0.19,0.01,-0.33,0.01,-0.22,-0.08,
0.732,-0.19,0.01,-0.33,0.01,-0.21,-0.08,
0.733,-0.19,0.01,-0.33,-0.00,-0.21,-0.08,
0.733,-0.19,0.01,-0.33,-0.01,-0.20,-0.08,
0.738,-0.18,0.02,-0.37,-0.01,-0.20,-0.08,
0.738,-0.18,0.02,-0.37,-0.01,-0.20,-0.08,
0.739,-0.18,0.02,-0.37,-0.02,-0.20,-0.09,
0.739,-0.18,0.02,-0.37,-0.03,-0.20,-0.09,
0.761,-0.18,0.02,-0.37,-0.03,-0.20,-0.09,
0.762,-0.18,0.02,-0.37,-0.04,-0.20,-0.09,
0.762,-0.21,0.02,-0.40,-0.04,-0.20,-0.09,
0.762,-0.21,0.02,-0.40,-0.04,-0.20,-0.09,
0.763,-0.21,0.02,-0.40,-0.04,-0.20,-0.09,
0.763,-0.21,0.02,-0.40,-0.05,-0.21,-0.10,
0.763,-0.21,0.02,-0.40,-0.05,-0.21,-0.10,
0.763,-0.21,0.02,-0.40,-0.06,-0.20,-0.10,
0.764,-0.22,0.04,-0.44,-0.06,-0.20,-0.10,
0.764,-0.22,0.04,-0.44,-0.06,-0.20,-0.10,
0.764,-0.22,0.04,-0.44,-0.06,-0.21,-0.10,
0.765,-0.22,0.04,-0.44,-0.06,-0.21,-0.10,
0.765,-0.22,0.04,-0.44,-0.06,-0.22,-0.10,
0.765,-0.22,0.04,-0.44,-0.06,-0.23,-0.10,
0.765,-0.19,0.08,-0.38,-0.06,-0.23,-0.10,
0.766,-0.19,0.08,-0.38,-0.06,-0.24,-0.10,
0.766,-0.19,0.08,-0.38,-0.06,-0.25,-0.11,
0.772,-0.19,0.08,-0.38,-0.06,-0.26,-0.11,
0.773,-0.19,0.08,-0.38,-0.05,-0.27,-0.11,
0.777,-0.19,0.08,-0.38,-0.05,-0.27,-0.11,
0.777,-0.13,0.07,-0.21,-0.05,-0.27,-0.11,
0.778,-0.13,0.07,-0.21,-0.04,-0.28,-0.11,
0.78,-0.13,0.07,-0.21,-0.03,-0.28,-0.11,
0.781,-0.13,0.07,-0.21,-0.03,-0.28,-0.11,
0.782,-0.13,0.07,-0.21,-0.02,-0.29,-0.11,
0.782,-0.13,0.07,-0.21,-0.01,-0.30,-0.11,
0.784,-0.10,0.03,0.02,-0.01,-0.30,-0.11,
0.785,-0.10,0.03,0.02,-0.00,-0.30,-0.11,
0.786,-0.10,0.03,0.02,0.01,-0.31,-0.11,
0.789,-0.10,0.03,0.02,0.01,-0.32,-0.10,
0.82,-0.10,0.03,0.02,0.02,-0.33,-0.10,
0.82,-0.10,0.03,0.02,0.03,-0.34,-0.10,
0.821,-0.05,0.02,0.15,0.03,-0.34,-0.10,
0.821,-0.05,0.02,0.15,0.04,-0.35,-0.10,
0.821,-0.05,0.02,0.15,0.05,-0.36,-0.11,
0.822,-0.05,0.02,0.15,0.05,-0.37,-0.11,
0.822,-0.05,0.02,0.15,0.06,-0.38,-0.11,
0.823,-0.05,0.02,0.15,0.06,-0.40,-0.12,
0.823,-0.05,-0.01,0.05,0.06,-0.40,-0.12,
0.823,-0.05,-0.01,0.05,0.07,-0.42,-0.12,
0.824,-0.05,-0.01,0.05,0.07,-0.43,-0.13,
0.824,-0.05,-0.01,0.05,0.07,-0.46,-0.14,
0.825,-0.05,-0.01,0.05,0.07,-0.48,-0.15,
0.825,-0.05,-0.01,0.05,0.07,-0.50,-0.16,
0.825,-0.12,-0.03,-0.27,0.07,-0.50,-0.16,
0.826,-0.12,-0.03,-0.27,0.06,-0.52,-0.16,
0.826,-0.12,-0.03,-0.27,0.06,-0.54,-0.17,
0.827,-0.12,-0.03,-0.27,0.05,-0.56,-0.18,
0.827,-0.12,-0.03,-0.27,0.05,-0.59,-0.18,
0.827,-0.12,-0.03,-0.27,0.04,-0.61,-0.19,
0.828,-0.24,0.08,-0.61,0.04,-0.61,-0.19,
0.828,-0.24,0.08,-0.61,0.03,-0.63,-0.20,
0.829,-0.24,0.08,-0.61,0.03,-0.65,-0.21,
0.829,-0.24,0.08,-0.61,0.02,-0.67,-0.21,
0.842,-0.24,0.08,-0.61,0.01,-0.69,-0.22,
0.842,-0.24,0.08,-0.61,0.00,-0.70,-0.23,
0.843,-0.17,0.05,-0.65,0.00,-0.70,-0.23,
0.843,-0.17,0.05,-0.65,-0.00,-0.71,-0.24,
0.843,-0.17,0.05,-0.65,-0.01,-0.72,-0.24,
0.844,-0.17,0.05,-0.65,-0.01,-0.72,-0.25,
0.844,-0.17,0.05,-0.65,-0.02,-0.72,-0.26,
0.844,-0.17,0.05,-0.65,-0.02,-0.72,-0.27,
0.845,-0.02,0.03,-0.34,-0.02,-0.72,-0.27,
0.845,-0.02,0.03,-0.34,-0.02,-0.72,-0.27,
0.846,-0.02,0.03,-0.34,-0.02,-0.72,-0.28,
0.848,-0.02,0.03,-0.34,-0.02,-0.70,-0.29,
0.85,-0.02,0.03,-0.34,-0.01,-0.69,-0.30,
0.853,-0.02,0.03,-0.34,-0.01,-0.68,-0.30,
0.865,0.11,0.02,-0.05,-0.01,-0.68,-0.30,
0.866,0.11,0.02,-0.05,-0.01,-0.66,-0.31,
0.866,0.11,0.02,-0.05,-0.01,-0.64,-0.31,
0.866,0.11,0.02,-0.05,-0.01,-0.62,-0.32,
0.866,0.11,0.02,-0.05,-0.01,-0.61,-0.32,
0.866,0.11,0.02,-0.05,-0.00,-0.60,-0.32,
0.867,-0.01,-0.01,-0.02,-0.00,-0.60,-0.32,
0.867,-0.01,-0.01,-0.02,-0.01,-0.59,-0.32,
0.867,-0.01,-0.01,-0.02,-0.01,-0.58,-0.32,
0.87,-0.01,-0.01,-0.02,-0.01,-0.58,-0.32,
0.911,-0.01,-0.01,-0.02,-0.01,-0.58,-0.31,
0.911,-0.01,-0.01,-0.02,-0.01,-0.58,-0.31,
0.912,-0.28,-0.04,-0.27,-0.01,-0.58,-0.31,
0.912,-0.28,-0.04,-0.27,-0.02,-0.58,-0.31,
0.912,-0.28,-0.04,-0.27,-0.02,-0.59,-0.31,
0.912,-0.28,-0.04,-0.27,-0.03,-0.60,-0.31,
0.912,-0.28,-0.04,-0.27,-0.03,-0.61,-0.30,
0.913,-0.28,-0.04,-0.27,-0.04,-0.63,-0.30,
0.913,-0.61,-0.03,-0.75,-0.04,-0.63,-0.30,
0.913,-0.61,-0.03,-0.75,-0.06,-0.65,-0.29,
0.913,-0.61,-0.03,-0.75,-0.06,-0.67,-0.29,
0.913,-0.61,-0.03,-0.75,-0.08,-0.69,-0.28,
0.913,-0.61,-0.03,-0.75,-0.09,-0.72,-0.27,
0.914,-0.61,-0.03,-0.75,-0.10,-0.75,-0.26,
0.914,-0.82,-0.07,-1.19,-0.10,-0.75,-0.26,
0.914,-0.82,-0.07,-1.19,-0.12,-0.78,-0.26,
0.914,-0.82,-0.07,-1.19,-0.13,-0.81,-0.25,
0.914,-0.82,-0.07,-1.19,-0.14,-0.85,-0.25,
0.915,-0.82,-0.07,-1.19,-0.15,-0.89,-0.25,
0.915,-0.82,-0.07,-1.19,-0.16,-0.93,-0.25,
0.915,-0.65,-0.01,-1.32,-0.16,-0.93,-0.25,
0.915,-0.65,-0.01,-1.32,-0.17,-0.98,-0.25,
0.915,-0.65,-0.01,-1.32,-0.17,-1.03,-0.26,
0.916,-0.65,-0.01,-1.32,-0.17,-1.08,-0.26,
0.916,-0.65,-0.01,-1.32,-0.18,-1.12,-0.27,
0.916,-0.65,-0.01,-1.32,-0.18,-1.17,-0.27,
0.916,-0.39,0.07,-1.05,-0.18,-1.17,-0.27,
0.916,-0.39,0.07,-1.05,-0.18,-1.21,-0.29,
0.916,-0.39,0.07,-1.05,-0.18,-1.25,-0.29,
0.918,-0.39,0.07,-1.05,-0.17,-1.30,-0.30,
0.921,-0.39,0.07,-1.05,-0.17,-1.34,-0.32,
0.923,-0.39,0.07,-1.05,-0.16,-1.38,-0.33,
0.925,-0.21,0.16,-0.56,-0.16,-1.38,-0.33,
0.925,-0.21,0.16,-0.56,-0.14,-1.42,-0.34,
0.927,-0.21,0.16,-0.56,-0.14,-1.47,-0.35,
0.928,-0.21,0.16,-0.56,-0.12,-1.51,-0.36,
0.93,-0.21,0.16,-0.56,-0.10,-1.54,-0.38,
0.932,-0.21,0.16,-0.56,-0.08,-1.58,-0.39,
0.935,-0.12,0.13,0.05,-0.08,-1.58,-0.39,
0.935,-0.12,0.13,0.05,-0.07,-1.61,-0.40,
0.936,-0.12,0.13,0.05,-0.04,-1.64,-0.42,
0.938,-0.12,0.13,0.05,-0.02,-1.67,-0.43,
0.941,-0.12,0.13,0.05,0.01,-1.69,-0.44,
0.942,-0.12,0.13,0.05,0.03,-1.72,-0.46,
0.945,-0.02,0.04,0.61,0.03,-1.72,-0.46,
0.945,-0.02,0.04,0.61,0.06,-1.74,-0.48,
0.946,-0.02,0.04,0.61,0.08,-1.76,-0.49,
0.948,-0.02,0.04,0.61,0.10,-1.78,-0.51,
0.95,-0.02,0.04,0.61,0.12,-1.80,-0.52,
0.953,-0.02,0.04,0.61,0.13,-1.81,-0.53,
0.966,-0.12,-0.01,0.61,0.13,-1.81,-0.53,
0.967,-0.12,-0.01,0.61,0.15,-1.82,-0.54,
0.99,-0.12,-0.01,0.61,0.17,-1.82,-0.56,
0.99,-0.12,-0.01,0.61,0.18,-1.83,-0.57,
0.99,-0.12,-0.01,0.61,0.20,-1.84,-0.57,
0.99,-0.12,-0.01,0.61,0.21,-1.85,-0.58,
0.99,-0.46,-0.03,0.47,0.21,-1.85,-0.58,
0.991,-0.46,-0.03,0.47,0.22,-1.86,-0.58,
0.991,-0.46,-0.03,0.47,0.24,-1.88,-0.59,
0.991,-0.46,-0.03,0.47,0.25,-1.90,-0.59,
0.991,-0.46,-0.03,0.47,0.25,-1.93,-0.59,
0.991,-0.46,-0.03,0.47,0.26,-1.96,-0.59,
0.991,-0.64,-0.10,0.13,0.26,-1.96,-0.59,
0.992,-0.64,-0.10,0.13,0.26,-2.00,-0.59,
0.992,-0.64,-0.10,0.13,0.26,-2.05,-0.61,
0.992,-0.64,-0.10,0.13,0.25,-2.11,-0.62,
0.992,-0.64,-0.10,0.13,0.25,-2.16,-0.64,
0.992,-0.64,-0.10,0.13,0.25,-2.20,-0.65,
0.993,-0.38,-0.52,-0.10,0.25,-2.20,-0.65,
0.993,-0.38,-0.52,-0.10,0.25,-2.25,-0.65,
0.993,-0.38,-0.52,-0.10,0.25,-2.28,-0.66,
0.993,-0.38,-0.52,-0.10,0.25,-2.31,-0.67,
0.993,-0.38,-0.52,-0.10,0.25,-2.35,-0.67,
0.994,-0.38,-0.52,-0.10,0.25,-2.37,-0.67,
1.01,-0.90,-0.36,-0.46,0.25,-2.37,-0.67,
1.01,-0.90,-0.36,-0.46,0.25,-2.40,-0.68,
1.011,-0.90,-0.36,-0.46,0.25,-2.42,-0.68,
1.011,-0.90,-0.36,-0.46,0.25,-2.45,-0.67,
1.011,-0.90,-0.36,-0.46,0.25,-2.48,-0.67,
1.011,-0.90,-0.36,-0.46,0.26,-2.51,-0.67,
1.011,-1.37,-0.06,-0.67,0.26,-2.51,-0.67,
1.011,-1.37,-0.06,-0.67,0.26,-2.54,-0.67,
1.012,-1.37,-0.06,-0.67,0.26,-2.58,-0.66,
1.016,-1.37,-0.06,-0.67,0.27,-2.62,-0.67,
1.016,-1.37,-0.06,-0.67,0.27,-2.66,-0.67,
1.016,-1.37,-0.06,-0.67,0.28,-2.69,-0.68,
1.016,-1.18,-0.00,-0.67,0.28,-2.69,-0.68,
1.017,-1.18,-0.00,-0.67,0.29,-2.72,-0.68,
1.017,-1.18,-0.00,-0.67,0.30,-2.76,-0.69,
1.021,-1.18,-0.00,-0.67,0.32,-2.80,-0.69,
1.021,-1.18,-0.00,-0.67,0.33,-2.84,-0.70,
1.027,-1.18,-0.00,-0.67,0.35,-2.88,-0.71,
1.028,-0.88,-0.01,-0.29,0.35,-2.88,-0.71,
1.028,-0.88,-0.01,-0.29,0.37,-2.92,-0.72,
1.028,-0.88,-0.01,-0.29,0.39,-2.96,-0.74,
1.028,-0.88,-0.01,-0.29,0.42,-3.01,-0.75,
1.03,-0.88,-0.01,-0.29,0.44,-3.05,-0.77,
1.034,-0.88,-0.01,-0.29,0.47,-3.10,-0.79,
1.034,-0.39,0.05,0.20,0.47,-3.10,-0.79,
1.035,-0.39,0.05,0.20,0.49,-3.14,-0.81,
1.039,-0.39,0.05,0.20,0.52,-3.19,-0.83,
1.04,-0.39,0.05,0.20,0.54,-3.24,-0.85,
1.04,-0.39,0.05,0.20,0.57,-3.29,-0.87,
1.045,-0.39,0.05,0.20,0.59,-3.35,-0.90,
1.045,-0.07,0.01,0.70,0.59,-3.35,-0.90,
1.045,-0.07,0.01,0.70,0.61,-3.40,-0.91,
1.048,-0.07,0.01,0.70,0.63,-3.45,-0.94,
1.049,-0.07,0.01,0.70,0.65,-3.50,-0.96,
1.052,-0.07,0.01,0.70,0.67,-3.56,-0.98,
1.053,-0.07,0.01,0.70,0.69,-3.62,-1.00,
1.057,-0.07,-0.08,0.92,0.69,-3.62,-1.00,
1.058,-0.07,-0.08,0.92,0.70,-3.68,-1.02,
1.058,-0.07,-0.08,0.92,0.71,-3.73,-1.03,
1.058,-0.07,-0.08,0.92,0.72,-3.80,-1.05,
1.063,-0.07,-0.08,0.92,0.74,-3.85,-1.06,
1.063,-0.07,-0.08,0.92,0.75,-3.91,-1.07,
1.068,-0.41,-0.25,1.12,0.75,-3.91,-1.07,
1.069,-0.41,-0.25,1.12,0.77,-3.96,-1.08,
1.069,-0.41,-0.25,1.12,0.78,-3.99,-1.09,
1.069,-0.41,-0.25,1.12,0.80,-4.03,-1.09,
1.071,-0.41,-0.25,1.12,0.82,-4.05,-1.09,
1.073,-0.41,-0.25,1.12,0.83,-4.07,-1.09,
1.075,-0.79,-0.45,1.19,0.83,-4.07,-1.09,
1.075,-0.79,-0.45,1.19,0.84,-4.08,-1.09,
1.076,-0.79,-0.45,1.19,0.86,-4.08,-1.09,
1.081,-0.79,-0.45,1.19,0.87,-4.07,-1.09,
1.082,-0.79,-0.45,1.19,0.88,-4.06,-1.08,
1.082,-0.79,-0.45,1.19,0.89,-4.04,-1.07,
1.087,-1.02,-0.62,0.96,0.89,-4.04,-1.07,
1.087,-1.02,-0.62,0.96,0.90,-4.01,-1.06,
1.091,-1.02,-0.62,0.96,0.90,-3.98,-1.06,
1.092,-1.02,-0.62,0.96,0.91,-3.96,-1.05,
1.093,-1.02,-0.62,0.96,0.91,-3.93,-1.04,
1.093,-1.02,-0.62,0.96,0.91,-3.90,-1.04,
1.097,-0.83,-0.65,0.66,0.91,-3.90,-1.04,
1.098,-0.83,-0.65,0.66,0.91,-3.87,-1.03,
1.098,-0.83,-0.65,0.66,0.91,-3.84,-1.03,
1.104,-0.83,-0.65,0.66,0.89,-3.73,-1.01,
1.105,-0.83,-0.65,0.66,0.89,-3.73,-1.01,
1.105,-0.83,-0.65,0.66,0.89,-3.73,-1.01,
1.106,-0.83,-0.65,0.66,0.89,-3.70,-1.00,
1.106,-0.65,-0.62,0.44,0.89,-3.70,-1.00,
1.116,-0.65,-0.62,0.44,0.88,-3.66,-0.99,
1.118,-0.65,-0.62,0.44,0.86,-3.62,-0.98,
1.119,-0.65,-0.62,0.44,0.85,-3.58,-0.96,
1.12,-0.65,-0.62,0.44,0.82,-3.52,-0.95,
1.121,-0.69,-0.46,-0.07,0.82,-3.52,-0.95,
1.121,-0.69,-0.46,-0.07,0.80,-3.47,-0.92,
1.122,-0.69,-0.46,-0.07,0.77,-3.41,-0.90,
1.123,-0.69,-0.46,-0.07,0.74,-3.35,-0.87,
1.159,-0.69,-0.46,-0.07,0.71,-3.29,-0.84,
1.162,-0.69,-0.46,-0.07,0.68,-3.24,-0.81,
1.193,-0.94,-0.39,-0.54,0.68,-3.24,-0.81,
1.193,-0.94,-0.39,-0.54,0.65,-3.19,-0.78,
1.193,-0.94,-0.39,-0.54,0.61,-3.13,-0.74,
1.194,-0.94,-0.39,-0.54,0.58,-3.08,-0.71,
1.194,-0.94,-0.39,-0.54,0.54,-3.04,-0.68,
1.195,-0.94,-0.39,-0.54,0.50,-2.99,-0.64,
1.195,-0.84,-0.36,-0.75,0.50,-2.99,-0.64,
1.195,-0.84,-0.36,-0.75,0.47,-2.95,-0.61,
1.196,-0.84,-0.36,-0.75,0.43,-2.91,-0.58,
1.196,-0.84,-0.36,-0.75,0.39,-2.87,-0.55,
1.197,-0.84,-0.36,-0.75,0.36,-2.83,-0.52,
1.197,-0.84,-0.36,-0.75,0.33,-2.80,-0.49,
1.198,-0.54,-0.02,-0.88,0.33,-2.80,-0.49,
1.198,-0.54,-0.02,-0.88,0.29,-2.76,-0.46,
1.198,-0.54,-0.02,-0.88,0.26,-2.73,-0.44,
1.199,-0.54,-0.02,-0.88,0.24,-2.69,-0.42,
1.199,-0.54,-0.02,-0.88,0.21,-2.66,-0.40,
1.2,-0.54,-0.02,-0.88,0.19,-2.62,-0.39,
1.2,-0.03,0.31,-0.89,0.19,-2.62,-0.39,
1.201,-0.03,0.31,-0.89,0.16,-2.58,-0.38,
1.201,-0.03,0.31,-0.89,0.14,-2.54,-0.36,
1.201,-0.03,0.31,-0.89,0.13,-2.50,-0.35,
1.202,-0.03,0.31,-0.89,0.11,-2.45,-0.34,
1.203,-0.03,0.31,-0.89,0.10,-2.41,-0.34,
1.204,0.30,0.42,-0.74,0.10,-2.41,-0.34,
1.206,0.30,0.42,-0.74,0.09,-2.36,-0.33,
1.207,0.30,0.42,-0.74,0.08,-2.32,-0.32,
1.207,0.30,0.42,-0.74,0.06,-2.28,-0.31,
1.208,0.30,0.42,-0.74,0.06,-2.23,-0.30,
1.208,0.30,0.42,-0.74,0.04,-2.19,-0.29,
1.209,0.32,0.32,-0.61,0.04,-2.19,-0.29,
1.21,0.32,0.32,-0.61,0.03,-2.15,-0.29,
1.21,0.32,0.32,-0.61,0.02,-2.10,-0.28,
1.211,0.32,0.32,-0.61,0.01,-2.05,-0.26,
1.211,0.32,0.32,-0.61,-0.00,-2.01,-0.25,
1.212,0.32,0.32,-0.61,-0.01,-1.97,-0.24,
1.212,-0.27,-0.06,-0.94,-0.01,-1.97,-0.24,
1.213,-0.27,-0.06,-0.94,-0.02,-1.93,-0.23,
1.213,-0.27,-0.06,-0.94,-0.03,-1.90,-0.22,
1.214,-0.27,-0.06,-0.94,-0.05,-1.88,-0.21,
1.214,-0.27,-0.06,-0.94,-0.06,-1.87,-0.21,
1.215,-0.27,-0.06,-0.94,-0.07,-1.86,-0.21,
1.215,-0.06,-0.54,-1.07,-0.07,-1.86,-0.21,
1.218,-0.06,-0.54,-1.07,-0.08,-1.83,-0.21,
1.219,-0.06,-0.54,-1.07,-0.09,-1.79,-0.22,
1.219,-0.06,-0.54,-1.07,-0.09,-1.75,-0.22,
1.22,-0.06,-0.54,-1.07,-0.10,-1.69,-0.22,
1.22,-0.06,-0.54,-1.07,-0.10,-1.63,-0.21,
1.22,-0.80,-0.66,-1.20,-0.10,-1.63,-0.21,
1.221,-0.80,-0.66,-1.20,-0.11,-1.57,-0.21,
1.221,-0.80,-0.66,-1.20,-0.11,-1.52,-0.20,
1.222,-0.80,-0.66,-1.20,-0.11,-1.47,-0.19,
1.222,-0.80,-0.66,-1.20,-0.11,-1.43,-0.19,
1.222,-0.80,-0.66,-1.20,-0.11,-1.40,-0.18,
1.223,-1.21,-0.55,-1.14,-0.11,-1.40,-0.18,
1.223,-1.21,-0.55,-1.14,-0.12,-1.37,-0.18,
1.223,-1.21,-0.55,-1.14,-0.12,-1.35,-0.18,
1.224,-1.21,-0.55,-1.14,-0.13,-1.34,-0.17,
1.224,-1.21,-0.55,-1.14,-0.13,-1.34,-0.16,
1.225,-1.21,-0.55,-1.14,-0.14,-1.34,-0.14,
1.225,-1.05,-0.38,-1.01,-0.14,-1.34,-0.14,
1.225,-1.05,-0.38,-1.01,-0.14,-1.33,-0.12,
1.243,-1.05,-0.38,-1.01,-0.15,-1.32,-0.11,
1.244,-1.05,-0.38,-1.01,-0.16,-1.31,-0.09,
1.244,-1.05,-0.38,-1.01,-0.17,-1.29,-0.07,
1.244,-1.05,-0.38,-1.01,-0.19,-1.27,-0.05,
1.245,-0.79,-0.32,-0.84,-0.19,-1.27,-0.05,
1.245,-0.79,-0.32,-0.84,-0.19,-1.26,-0.03,
1.245,-0.79,-0.32,-0.84,-0.20,-1.25,-0.02,
1.245,-0.79,-0.32,-0.84,-0.22,-1.24,-0.01,
1.246,-0.79,-0.32,-0.84,-0.23,-1.23,0.00,
1.246,-0.79,-0.32,-0.84,-0.24,-1.21,0.01,
1.246,-1.17,-0.23,-0.52,-0.24,-1.21,0.01,
1.246,-1.17,-0.23,-0.52,-0.26,-1.18,0.02,
1.247,-1.17,-0.23,-0.52,-0.28,-1.16,0.04,
1.248,-1.17,-0.23,-0.52,-0.30,-1.13,0.07,
1.25,-1.17,-0.23,-0.52,-0.32,-1.10,0.09,
1.258,-1.17,-0.23,-0.52,-0.34,-1.05,0.11,
1.259,-1.87,-0.53,-0.41,-0.34,-1.05,0.11,
1.259,-1.87,-0.53,-0.41,-0.37,-1.00,0.14,
1.26,-1.87,-0.53,-0.41,-0.39,-0.94,0.16,
1.261,-1.87,-0.53,-0.41,-0.42,-0.88,0.19,
1.261,-1.87,-0.53,-0.41,-0.45,-0.82,0.22,
1.262,-1.87,-0.53,-0.41,-0.49,-0.76,0.24,
1.265,-2.48,-1.09,-0.27,-0.49,-0.76,0.24,
1.265,-2.48,-1.09,-0.27,-0.52,-0.70,0.26,
1.266,-2.48,-1.09,-0.27,-0.56,-0.66,0.28,
1.277,-2.48,-1.09,-0.27,-0.60,-0.61,0.29,
1.278,-2.48,-1.09,-0.27,-0.65,-0.57,0.30,
1.278,-2.48,-1.09,-0.27,-0.70,-0.53,0.29,
1.278,-2.44,-1.36,-0.36,-0.70,-0.53,0.29,
1.278,-2.44,-1.36,-0.36,-0.77,-0.49,0.27,
1.279,-2.44,-1.36,-0.36,-0.84,-0.45,0.25,
1.279,-2.44,-1.36,-0.36,-0.92,-0.40,0.21,
1.28,-2.44,-1.36,-0.36,-1.01,-0.34,0.17,
1.327,-2.44,-1.36,-0.36,-1.10,-0.29,0.12,
1.327,-1.92,-1.64,-0.91,-1.10,-0.29,0.12,
1.328,-1.92,-1.64,-0.91,-1.21,-0.22,0.06,
1.328,-1.92,-1.64,-0.91,-1.32,-0.17,0.00,
1.328,-1.92,-1.64,-0.91,-1.44,-0.11,-0.06,
1.347,-1.92,-1.64,-0.91,-1.56,-0.05,-0.12,
1.347,-1.92,-1.64,-0.91,-1.67,0.01,-0.17,
1.347,-1.78,-2.14,-1.72,-1.67,0.01,-0.17,
1.348,-1.78,-2.14,-1.72,-1.79,0.06,-0.22,
1.348,-1.78,-2.14,-1.72,-1.90,0.11,-0.27,
1.348,-1.78,-2.14,-1.72,-2.02,0.16,-0.31,
1.348,-1.78,-2.14,-1.72,-2.12,0.21,-0.36,
1.349,-1.78,-2.14,-1.72,-2.22,0.27,-0.39,
1.349,-2.54,-1.87,-1.49,-2.22,0.27,-0.39,
1.349,-2.54,-1.87,-1.49,-2.32,0.32,-0.43,
1.349,-2.54,-1.87,-1.49,-2.41,0.35,-0.46,
1.349,-2.54,-1.87,-1.49,-2.50,0.37,-0.49,
1.349,-2.54,-1.87,-1.49,-2.58,0.39,-0.52,
1.349,-2.54,-1.87,-1.49,-2.65,0.41,-0.54,
1.35,-2.94,-1.51,-1.09,-2.65,0.41,-0.54,
1.35,-2.94,-1.51,-1.09,-2.72,0.43,-0.57,
1.35,-2.94,-1.51,-1.09,-2.79,0.44,-0.59,
1.35,-2.94,-1.51,-1.09,-2.85,0.44,-0.62,
1.35,-2.94,-1.51,-1.09,-2.90,0.44,-0.64,
1.35,-2.94,-1.51,-1.09,-2.94,0.43,-0.67,
1.351,-3.12,-1.25,-0.41,-2.94,0.43,-0.67,
1.351,-3.12,-1.25,-0.41,-2.98,0.42,-0.69,
1.351,-3.12,-1.25,-0.41,-3.01,0.42,-0.72,
1.351,-3.12,-1.25,-0.41,-3.04,0.41,-0.75,
1.351,-3.12,-1.25,-0.41,-3.05,0.41,-0.78,
1.351,-3.12,-1.25,-0.41,-3.07,0.41,-0.81,
1.351,-2.90,-1.09,0.18,-3.07,0.41,-0.81,
1.352,-2.90,-1.09,0.18,-3.08,0.41,-0.85,
1.352,-2.90,-1.09,0.18,-3.08,0.42,-0.88,
1.352,-2.90,-1.09,0.18,-3.08,0.43,-0.91,
1.352,-2.90,-1.09,0.18,-3.07,0.44,-0.94,
1.352,-2.90,-1.09,0.18,-3.06,0.45,-0.98,
1.352,-2.91,-1.42,0.44,-3.06,0.45,-0.98,
1.352,-2.91,-1.42,0.44,-3.04,0.45,-1.01,
1.353,-2.91,-1.42,0.44,-3.02,0.44,-1.05,
1.353,-2.91,-1.42,0.44,-2.99,0.44,-1.08,
1.353,-2.91,-1.42,0.44,-2.96,0.44,-1.12,
1.353,-2.91,-1.42,0.44,-2.92,0.45,-1.15,
1.357,-2.90,-2.06,0.96,-2.92,0.45,-1.15,
1.357,-2.90,-2.06,0.96,-2.88,0.47,-1.19,
1.357,-2.90,-2.06,0.96,-2.84,0.50,-1.22,
1.359,-2.90,-2.06,0.96,-2.79,0.53,-1.24,
1.36,-2.90,-2.06,0.96,-2.74,0.57,-1.26,
1.362,-2.90,-2.06,0.96,-2.70,0.61,-1.27,
1.365,-3.64,-2.30,0.78,-2.70,0.61,-1.27,
1.365,-3.64,-2.30,0.78,-2.65,0.64,-1.27,
1.366,-3.64,-2.30,0.78,-2.61,0.66,-1.26,
1.37,-3.64,-2.30,0.78,-2.56,0.67,-1.25,
1.371,-3.64,-2.30,0.78,-2.52,0.67,-1.23,
1.373,-3.64,-2.30,0.78,-2.48,0.66,-1.21,
1.376,-4.43,-1.98,0.11,-2.48,0.66,-1.21,
1.376,-4.43,-1.98,0.11,-2.44,0.65,-1.19,
1.376,-4.43,-1.98,0.11,-2.41,0.64,-1.18,
1.378,-4.43,-1.98,0.11,-2.38,0.61,-1.16,
1.38,-4.43,-1.98,0.11,-2.36,0.57,-1.14,
1.382,-4.43,-1.98,0.11,-2.34,0.53,-1.12,
1.396,-4.51,-1.70,-0.80,-2.34,0.53,-1.12,
1.397,-4.51,-1.70,-0.80,-2.32,0.50,-1.10,
1.397,-4.51,-1.70,-0.80,-2.30,0.47,-1.07,
1.397,-4.51,-1.70,-0.80,-2.29,0.45,-1.04,
1.397,-4.51,-1.70,-0.80,-2.28,0.43,-1.01,
1.397,-4.51,-1.70,-0.80,-2.27,0.43,-0.98,
1.397,-4.27,-1.94,-1.85,-2.27,0.43,-0.98,
1.397,-4.27,-1.94,-1.85,-2.27,0.42,-0.96,
1.398,-4.27,-1.94,-1.85,-2.27,0.43,-0.94,
1.399,-4.27,-1.94,-1.85,-2.27,0.44,-0.92,
1.4,-4.27,-1.94,-1.85,-2.27,0.45,-0.90,
1.44,-4.27,-1.94,-1.85,-2.28,0.45,-0.88,
1.44,-3.75,-2.53,-2.71,-2.28,0.45,-0.88,
1.44,-3.75,-2.53,-2.71,-2.29,0.45,-0.87,
1.441,-3.75,-2.53,-2.71,-2.30,0.44,-0.86,
1.441,-3.75,-2.53,-2.71,-2.31,0.44,-0.85,
1.441,-3.75,-2.53,-2.71,-2.33,0.43,-0.83,
1.441,-3.75,-2.53,-2.71,-2.36,0.40,-0.81,
1.441,-3.50,-3.17,-2.99,-2.36,0.40,-0.81,
1.441,-3.50,-3.17,-2.99,-2.38,0.37,-0.79,
1.442,-3.50,-3.17,-2.99,-2.41,0.34,-0.77,
1.442,-3.50,-3.17,-2.99,-2.45,0.31,-0.75,
1.442,-3.50,-3.17,-2.99,-2.48,0.29,-0.72,
1.442,-3.50,-3.17,-2.99,-2.53,0.27,-0.70,
1.443,-3.27,-4.00,-3.18,-2.53,0.27,-0.70,
1.443,-3.27,-4.00,-3.18,-2.58,0.25,-0.69,
1.443,-3.27,-4.00,-3.18,-2.64,0.23,-0.67,
1.444,-3.27,-4.00,-3.18,-2.69,0.21,-0.65,
1.444,-3.27,-4.00,-3.18,-2.75,0.20,-0.64,
1.444,-3.27,-4.00,-3.18,-2.81,0.20,-0.64,
1.445,-2.53,-4.10,-3.26,-2.81,0.20,-0.64,
1.445,-2.53,-4.10,-3.26,-2.87,0.20,-0.64,
1.445,-2.53,-4.10,-3.26,-2.93,0.22,-0.64,
1.445,-2.53,-4.10,-3.26,-3.00,0.23,-0.65,
1.446,-2.53,-4.10,-3.26,-3.07,0.24,-0.66,
1.446,-2.53,-4.10,-3.26,-3.13,0.26,-0.67,
1.446,-1.67,-3.83,-3.19,-3.13,0.26,-0.67,
1.447,-1.67,-3.83,-3.19,-3.20,0.26,-0.68,
1.447,-1.67,-3.83,-3.19,-3.28,0.27,-0.70,
1.448,-1.67,-3.83,-3.19,-3.35,0.27,-0.71,
1.45,-1.67,-3.83,-3.19,-3.43,0.27,-0.73,
1.454,-1.67,-3.83,-3.19,-3.50,0.28,-0.75,
1.457,-1.09,-3.60,-3.03,-3.50,0.28,-0.75,
1.457,-1.09,-3.60,-3.03,-3.58,0.29,-0.77,
1.485,-1.09,-3.60,-3.03,-3.65,0.30,-0.79,
1.486,-1.09,-3.60,-3.03,-3.72,0.33,-0.82,
1.486,-1.09,-3.60,-3.03,-3.79,0.36,-0.85,
1.487,-1.09,-3.60,-3.03,-3.87,0.41,-0.88,
1.487,-0.03,-3.84,-2.51,-3.87,0.41,-0.88,
1.488,-0.03,-3.84,-2.51,-3.94,0.46,-0.92,
1.488,-0.03,-3.84,-2.51,-4.01,0.52,-0.96,
1.489,-0.03,-3.84,-2.51,-4.07,0.59,-1.01,
1.489,-0.03,-3.84,-2.51,-4.14,0.67,-1.07,
1.49,-0.03,-3.84,-2.51,-4.20,0.74,-1.13,
1.49,1.24,-3.66,-1.97,-4.20,0.74,-1.13,
1.491,1.24,-3.66,-1.97,-4.26,0.82,-1.20,
1.491,1.24,-3.66,-1.97,-4.33,0.90,-1.28,
1.491,1.24,-3.66,-1.97,-4.38,0.98,-1.36,
1.492,1.24,-3.66,-1.97,-4.44,1.05,-1.44,
1.492,1.24,-3.66,-1.97,-4.50,1.11,-1.52,
1.493,2.30,-3.56,-1.48,-4.50,1.11,-1.52,
1.493,2.30,-3.56,-1.48,-4.55,1.17,-1.60,
1.494,2.30,-3.56,-1.48,-4.61,1.22,-1.68,
1.494,2.30,-3.56,-1.48,-4.67,1.28,-1.75,
1.495,2.30,-3.56,-1.48,-4.73,1.32,-1.82,
1.495,2.30,-3.56,-1.48,-4.80,1.37,-1.88,
1.495,2.33,-3.55,-1.43,-4.80,1.37,-1.88,
1.496,2.33,-3.55,-1.43,-4.86,1.42,-1.94,
1.496,2.33,-3.55,-1.43,-4.93,1.47,-1.99,
1.507,2.33,-3.55,-1.43,-4.99,1.52,-2.04,
1.507,2.33,-3.55,-1.43,-5.06,1.55,-2.09,
1.508,2.33,-3.55,-1.43,-5.13,1.58,-2.14,
1.511,1.99,-3.59,-1.44,-5.13,1.58,-2.14,
1.512,1.99,-3.59,-1.44,-5.20,1.60,-2.17,
1.512,1.99,-3.59,-1.44,-5.26,1.61,-2.20,
1.512,1.99,-3.59,-1.44,-5.33,1.61,-2.23,
1.513,1.99,-3.59,-1.44,-5.40,1.60,-2.25,
1.513,1.99,-3.59,-1.44,-5.47,1.58,-2.26,
1.517,1.45,-3.16,-1.18,-5.47,1.58,-2.26,
1.518,1.45,-3.16,-1.18,-5.53,1.55,-2.26,
1.518,1.45,-3.16,-1.18,-5.59,1.51,-2.26,
1.518,1.45,-3.16,-1.18,-5.65,1.46,-2.25,
1.521,1.45,-3.16,-1.18,-5.70,1.40,-2.23,
1.522,1.45,-3.16,-1.18,-5.75,1.34,-2.21,
1.525,1.05,-2.45,-0.45,-5.75,1.34,-2.21,
1.525,1.05,-2.45,-0.45,-5.80,1.26,-2.17,
1.526,1.05,-2.45,-0.45,-5.85,1.18,-2.14,
1.528,1.05,-2.45,-0.45,-5.89,1.10,-2.09,
1.53,1.05,-2.45,-0.45,-5.93,1.01,-2.03,
1.532,1.05,-2.45,-0.45,-5.96,0.93,-1.96,
1.548,0.68,-1.69,0.41,-5.96,0.93,-1.96,
1.548,0.68,-1.69,0.41,-5.99,0.84,-1.89,
1.549,0.68,-1.69,0.41,-6.01,0.75,-1.81,
1.549,0.68,-1.69,0.41,-6.02,0.66,-1.72,
1.549,0.68,-1.69,0.41,-6.04,0.57,-1.62,
1.55,0.68,-1.69,0.41,-6.05,0.47,-1.52,
1.55,0.39,-1.06,1.20,-6.05,0.47,-1.52,
1.55,0.39,-1.06,1.20,-6.05,0.37,-1.41,
1.551,0.39,-1.06,1.20,-6.05,0.27,-1.30,
1.551,0.39,-1.06,1.20,-6.05,0.18,-1.19,
1.591,0.39,-1.06,1.20,-6.04,0.09,-1.08,
1.592,0.39,-1.06,1.20,-6.03,0.01,-0.98,
1.592,0.74,-0.83,1.84,-6.03,0.01,-0.98,
1.593,0.74,-0.83,1.84,-6.01,-0.08,-0.87,
1.593,0.74,-0.83,1.84,-5.98,-0.16,-0.77,
1.593,0.74,-0.83,1.84,-5.95,-0.23,-0.68,
1.593,0.74,-0.83,1.84,-5.91,-0.29,-0.59,
1.593,0.74,-0.83,1.84,-5.86,-0.35,-0.51,
1.594,1.95,-1.02,3.02,-5.86,-0.35,-0.51,
1.594,1.95,-1.02,3.02,-5.80,-0.40,-0.45,
1.594,1.95,-1.02,3.02,-5.74,-0.44,-0.39,
1.595,1.95,-1.02,3.02,-5.68,-0.48,-0.34,
1.595,1.95,-1.02,3.02,-5.61,-0.51,-0.30,
1.595,1.95,-1.02,3.02,-5.55,-0.54,-0.28,
1.595,3.54,-1.03,4.13,-5.55,-0.54,-0.28,
1.596,3.54,-1.03,4.13,-5.48,-0.57,-0.26,
1.596,3.54,-1.03,4.13,-5.42,-0.61,-0.26,
1.596,3.54,-1.03,4.13,-5.36,-0.65,-0.27,
1.596,3.54,-1.03,4.13,-5.31,-0.69,-0.29,
1.597,3.54,-1.03,4.13,-5.26,-0.73,-0.32,
1.597,5.05,-0.79,4.44,-5.26,-0.73,-0.32,
1.597,5.05,-0.79,4.44,-5.21,-0.77,-0.36,
1.597,5.05,-0.79,4.44,-5.18,-0.80,-0.41,
1.598,5.05,-0.79,4.44,-5.15,-0.82,-0.46,
1.598,5.05,-0.79,4.44,-5.13,-0.84,-0.52,
1.598,5.05,-0.79,4.44,-5.11,-0.85,-0.58,
1.598,6.14,-0.72,3.99,-5.11,-0.85,-0.58,
1.599,6.14,-0.72,3.99,-5.10,-0.87,-0.65,
1.599,6.14,-0.72,3.99,-5.10,-0.88,-0.72,
1.599,6.14,-0.72,3.99,-5.10,-0.90,-0.78,
1.602,6.14,-0.72,3.99,-5.10,-0.91,-0.85,
1.602,6.14,-0.72,3.99,-5.11,-0.93,-0.92,
1.606,6.62,-0.69,3.67,-5.11,-0.93,-0.92,
1.606,6.62,-0.69,3.67,-5.12,-0.95,-0.99,
1.607,6.62,-0.69,3.67,-5.14,-0.97,-1.06,
1.608,6.62,-0.69,3.67,-5.15,-0.98,-1.13,
1.612,6.62,-0.69,3.67,-5.16,-0.99,-1.20,
1.612,6.62,-0.69,3.67,-5.18,-1.00,-1.27,
1.615,6.59,-0.59,3.93,-5.18,-1.00,-1.27,
1.615,6.59,-0.59,3.93,-5.20,-1.00,-1.33,
1.616,6.59,-0.59,3.93,-5.21,-1.00,-1.40,
1.621,6.59,-0.59,3.93,-5.22,-1.01,-1.46,
1.624,6.59,-0.59,3.93,-5.24,-1.02,-1.52,
1.625,6.59,-0.59,3.93,-5.26,-1.03,-1.57,
1.642,6.18,-0.46,4.36,-5.26,-1.03,-1.57,
1.643,6.18,-0.46,4.36,-5.27,-1.05,-1.63,
1.643,6.18,-0.46,4.36,-5.29,-1.07,-1.68,
1.643,6.18,-0.46,4.36,-5.30,-1.10,-1.73,
1.643,6.18,-0.46,4.36,-5.31,-1.13,-1.78,
1.643,6.18,-0.46,4.36,-5.31,-1.15,-1.83,
1.644,5.68,-0.52,4.79,-5.31,-1.15,-1.83,
1.644,5.68,-0.52,4.79,-5.31,-1.16,-1.87,
1.644,5.68,-0.52,4.79,-5.31,-1.18,-1.91,
1.644,5.68,-0.52,4.79,-5.31,-1.19,-1.95,
1.645,5.68,-0.52,4.79,-5.29,-1.19,-1.99,
1.645,5.68,-0.52,4.79,-5.27,-1.20,-2.02,
1.645,5.05,-0.47,5.95,-5.27,-1.20,-2.02,
1.645,5.05,-0.47,5.95,-5.25,-1.20,-2.04,
1.652,5.05,-0.47,5.95,-5.21,-1.20,-2.07,
1.653,5.05,-0.47,5.95,-5.16,-1.20,-2.09,
1.653,5.05,-0.47,5.95,-5.11,-1.20,-2.10,
1.653,5.05,-0.47,5.95,-5.05,-1.20,-2.12,
1.655,4.20,-0.44,7.54,-5.05,-1.20,-2.12,
1.655,4.20,-0.44,7.54,-4.98,-1.20,-2.13,
1.659,4.20,-0.44,7.54,-4.91,-1.18,-2.15,
1.659,4.20,-0.44,7.54,-4.83,-1.16,-2.16,
1.662,4.20,-0.44,7.54,-4.74,-1.15,-2.16,
1.663,4.20,-0.44,7.54,-4.66,-1.16,-2.17,
1.667,3.47,-0.12,8.60,-4.66,-1.16,-2.17,
1.667,3.47,-0.12,8.60,-4.59,-1.19,-2.17,
1.668,3.47,-0.12,8.60,-4.52,-1.22,-2.17,
1.678,3.47,-0.12,8.60,-4.45,-1.24,-2.16,
1.679,3.47,-0.12,8.60,-4.38,-1.27,-2.16,
1.679,3.47,-0.12,8.60,-4.31,-1.30,-2.15,
1.679,2.66,0.32,8.39,-4.31,-1.30,-2.15,
1.679,2.66,0.32,8.39,-4.24,-1.32,-2.14,
1.68,2.66,0.32,8.39,-4.16,-1.35,-2.12,
1.68,2.66,0.32,8.39,-4.08,-1.38,-2.11,
1.726,2.66,0.32,8.39,-4.00,-1.41,-2.09,
1.727,2.66,0.32,8.39,-3.93,-1.44,-2.07,
1.727,1.78,0.96,8.69,-3.93,-1.44,-2.07,
1.727,1.78,0.96,8.69,-3.85,-1.48,-2.05,
1.727,1.78,0.96,8.69,-3.78,-1.52,-2.03,
1.728,1.78,0.96,8.69,-3.71,-1.54,-2.00,
1.728,1.78,0.96,8.69,-3.64,-1.57,-1.98,
1.728,1.78,0.96,8.69,-3.57,-1.60,-1.95,
1.728,1.08,1.48,8.42,-3.57,-1.60,-1.95,
1.728,1.08,1.48,8.42,-3.51,-1.64,-1.93,
1.729,1.08,1.48,8.42,-3.46,-1.67,-1.90,
1.729,1.08,1.48,8.42,-3.40,-1.70,-1.87,
1.729,1.08,1.48,8.42,-3.35,-1.74,-1.85,
1.729,1.08,1.48,8.42,-3.30,-1.77,-1.82,
1.729,0.76,1.81,7.95,-3.30,-1.77,-1.82,
1.73,0.76,1.81,7.95,-3.26,-1.80,-1.79,
1.73,0.76,1.81,7.95,-3.22,-1.83,-1.77,
1.73,0.76,1.81,7.95,-3.19,-1.85,-1.74,
1.73,0.76,1.81,7.95,-3.16,-1.88,-1.72,
1.73,0.76,1.81,7.95,-3.13,-1.91,-1.69,
1.731,0.87,1.87,7.47,-3.13,-1.91,-1.69,
1.731,0.87,1.87,7.47,-3.10,-1.93,-1.66,
1.731,0.87,1.87,7.47,-3.08,-1.96,-1.64,
1.731,0.87,1.87,7.47,-3.06,-1.99,-1.61,
1.731,0.87,1.87,7.47,-3.03,-2.01,-1.58,
1.732,0.87,1.87,7.47,-3.01,-2.04,-1.56,
1.732,0.80,2.04,7.41,-3.01,-2.04,-1.56,
1.732,0.80,2.04,7.41,-2.99,-2.07,-1.55,
1.732,0.80,2.04,7.41,-2.97,-2.09,-1.53,
1.732,0.80,2.04,7.41,-2.95,-2.11,-1.52,
1.733,0.80,2.04,7.41,-2.93,-2.13,-1.50,
1.733,0.80,2.04,7.41,-2.91,-2.13,-1.49,
1.735,0.89,1.96,7.08,-2.91,-2.13,-1.49,
1.735,0.89,1.96,7.08,-2.88,-2.13,-1.48,
1.737,0.89,1.96,7.08,-2.86,-2.13,-1.46,
1.738,0.89,1.96,7.08,-2.83,-2.13,-1.45,
1.74,0.89,1.96,7.08,-2.80,-2.12,-1.43,
1.742,0.89,1.96,7.08,-2.77,-2.11,-1.41,
1.744,0.42,1.98,7.20,-2.77,-2.11,-1.41,
1.745,0.42,1.98,7.20,-2.73,-2.11,-1.39,
1.746,0.42,1.98,7.20,-2.69,-2.11,-1.37,
1.748,0.42,1.98,7.20,-2.65,-2.11,-1.35,
1.751,0.42,1.98,7.20,-2.60,-2.11,-1.33,
1.754,0.42,1.98,7.20,-2.55,-2.11,-1.30,
1.755,-0.33,2.11,7.14,-2.55,-2.11,-1.30,
1.756,-0.33,2.11,7.14,-2.50,-2.11,-1.28,
1.756,-0.33,2.11,7.14,-2.45,-2.09,-1.26,
1.758,-0.33,2.11,7.14,-2.40,-2.07,-1.24,
1.76,-0.33,2.11,7.14,-2.34,-2.04,-1.21,
1.762,-0.33,2.11,7.14,-2.28,-2.00,-1.19,
1.765,-0.98,2.40,7.12,-2.28,-2.00,-1.19,
1.765,-0.98,2.40,7.12,-2.22,-1.95,-1.17,
1.766,-0.98,2.40,7.12,-2.17,-1.90,-1.14,
1.77,-0.98,2.40,7.12,-2.10,-1.84,-1.12,
1.77,-0.98,2.40,7.12,-2.05,-1.78,-1.10,
1.773,-0.98,2.40,7.12,-1.99,-1.73,-1.09,
1.775,-1.31,2.62,6.68,-1.99,-1.73,-1.09,
1.775,-1.31,2.62,6.68,-1.93,-1.67,-1.08,
1.776,-1.31,2.62,6.68,-1.88,-1.63,-1.06,
1.78,-1.31,2.62,6.68,-1.82,-1.58,-1.04,
1.782,-1.31,2.62,6.68,-1.77,-1.54,-1.02,
1.81,-1.31,2.62,6.68,-1.72,-1.50,-1.01,
1.811,-1.96,2.89,6.19,-1.72,-1.50,-1.01,
1.811,-1.96,2.89,6.19,-1.68,-1.46,-1.00,
1.812,-1.96,2.89,6.19,-1.63,-1.42,-0.99,
1.812,-1.96,2.89,6.19,-1.59,-1.38,-0.98,
1.835,-1.96,2.89,6.19,-1.54,-1.34,-0.98,
1.835,-1.96,2.89,6.19,-1.50,-1.30,-0.98,
1.835,-1.70,3.11,5.19,-1.50,-1.30,-0.98,
1.836,-1.70,3.11,5.19,-1.46,-1.25,-0.98,
1.836,-1.70,3.11,5.19,-1.42,-1.21,-0.98,
1.836,-1.70,3.11,5.19,-1.38,-1.16,-0.98,
1.836,-1.70,3.11,5.19,-1.34,-1.11,-0.98,
1.836,-1.70,3.11,5.19,-1.30,-1.07,-0.99,
1.837,-1.39,3.23,4.61,-1.30,-1.07,-0.99,
1.837,-1.39,3.23,4.61,-1.27,-1.04,-0.99,
1.837,-1.39,3.23,4.61,-1.23,-1.00,-0.99,
1.838,-1.39,3.23,4.61,-1.19,-0.98,-0.99,
1.838,-1.39,3.23,4.61,-1.15,-0.95,-0.99,
1.838,-1.39,3.23,4.61,-1.11,-0.92,-0.99,
1.838,-1.55,2.94,4.18,-1.11,-0.92,-0.99,
1.838,-1.55,2.94,4.18,-1.06,-0.90,-0.98,
1.839,-1.55,2.94,4.18,-1.02,-0.87,-0.98,
1.839,-1.55,2.94,4.18,-0.96,-0.84,-0.98,
1.839,-1.55,2.94,4.18,-0.91,-0.82,-0.97,
1.839,-1.55,2.94,4.18,-0.85,-0.79,-0.97,
1.839,-1.71,2.71,4.49,-0.85,-0.79,-0.97,
1.84,-1.71,2.71,4.49,-0.79,-0.77,-0.97,
1.84,-1.71,2.71,4.49,-0.73,-0.76,-0.97,
1.84,-1.71,2.71,4.49,-0.66,-0.73,-0.97,
1.84,-1.71,2.71,4.49,-0.60,-0.71,-0.97,
1.841,-1.71,2.71,4.49,-0.54,-0.70,-0.96,
1.841,-1.74,2.40,4.38,-0.54,-0.70,-0.96,
1.841,-1.74,2.40,4.38,-0.48,-0.70,-0.95,
1.841,-1.74,2.40,4.38,-0.42,-0.70,-0.95,
1.841,-1.74,2.40,4.38,-0.36,-0.69,-0.94,
1.842,-1.74,2.40,4.38,-0.29,-0.69,-0.92,
1.848,-1.74,2.40,4.38,-0.23,-0.68,-0.91,
1.849,-1.93,2.07,3.86,-0.23,-0.68,-0.91,
1.849,-1.93,2.07,3.86,-0.17,-0.66,-0.89,
1.849,-1.93,2.07,3.86,-0.11,-0.65,-0.87,
1.85,-1.93,2.07,3.86,-0.04,-0.63,-0.84,
1.854,-1.93,2.07,3.86,0.02,-0.61,-0.82,
1.854,-1.93,2.07,3.86,0.09,-0.59,-0.80,
1.855,-2.09,1.92,3.54,0.09,-0.59,-0.80,
1.855,-2.09,1.92,3.54,0.16,-0.57,-0.76,
1.856,-2.09,1.92,3.54,0.21,-0.53,-0.71,
1.858,-2.09,1.92,3.54,0.26,-0.47,-0.65,
1.86,-2.09,1.92,3.54,0.29,-0.43,-0.59,
1.862,-2.09,1.92,3.54,0.34,-0.39,-0.53,
1.865,-3.36,1.55,2.47,0.34,-0.39,-0.53,
1.865,-3.36,1.55,2.47,0.38,-0.37,-0.48,
1.869,-3.36,1.55,2.47,0.43,-0.35,-0.43,
1.869,-3.36,1.55,2.47,0.47,-0.33,-0.39,
1.87,-3.36,1.55,2.47,0.52,-0.32,-0.35,
1.873,-3.36,1.55,2.47,0.57,-0.30,-0.32,
1.875,-3.03,1.28,2.43,0.57,-0.30,-0.32,
1.875,-3.03,1.28,2.43,0.62,-0.29,-0.30,
1.876,-3.03,1.28,2.43,0.67,-0.27,-0.28,
1.878,-3.03,1.28,2.43,0.72,-0.26,-0.27,
1.88,-3.03,1.28,2.43,0.77,-0.25,-0.26,
1.882,-3.03,1.28,2.43,0.82,-0.23,-0.26,
1.886,-2.10,0.88,2.23,0.82,-0.23,-0.26,
1.886,-2.10,0.88,2.23,0.86,-0.22,-0.27,
1.886,-2.10,0.88,2.23,0.90,-0.20,-0.28,
1.889,-2.10,0.88,2.23,0.93,-0.18,-0.29,
1.89,-2.10,0.88,2.23,0.97,-0.16,-0.31,
1.892,-2.10,0.88,2.23,0.99,-0.14,-0.33,
1.894,-1.04,0.14,1.42,0.99,-0.14,-0.33,
1.894,-1.04,0.14,1.42,1.01,-0.12,-0.36,
1.896,-1.04,0.14,1.42,1.03,-0.10,-0.39,
1.898,-1.04,0.14,1.42,1.04,-0.09,-0.42,
1.908,-1.04,0.14,1.42,1.05,-0.08,-0.46,
1.908,-1.04,0.14,1.42,1.07,-0.08,-0.49,
1.909,-0.56,-1.40,1.01,1.07,-0.08,-0.49,
1.909,-0.56,-1.40,1.01,1.08,-0.08,-0.53,
1.909,-0.56,-1.40,1.01,1.10,-0.09,-0.57,
1.909,-0.56,-1.40,1.01,1.12,-0.10,-0.61,
1.91,-0.56,-1.40,1.01,1.15,-0.12,-0.66,
1.912,-0.56,-1.40,1.01,1.18,-0.13,-0.70,
1.914,-0.80,-2.79,1.22,1.18,-0.13,-0.70,
1.914,-0.80,-2.79,1.22,1.22,-0.14,-0.74,
1.933,-0.80,-2.79,1.22,1.26,-0.14,-0.77,
1.933,-0.80,-2.79,1.22,1.32,-0.14,-0.80,
1.933,-0.80,-2.79,1.22,1.38,-0.14,-0.82,
1.934,-0.80,-2.79,1.22,1.46,-0.14,-0.85,
1.934,-1.65,-2.88,1.72,1.46,-0.14,-0.85,
1.934,-1.65,-2.88,1.72,1.54,-0.13,-0.86,
1.934,-1.65,-2.88,1.72,1.61,-0.10,-0.87,
1.934,-1.65,-2.88,1.72,1.69,-0.05,-0.87,
1.934,-1.65,-2.88,1.72,1.76,0.01,-0.87,
1.934,-1.65,-2.88,1.72,1.82,0.08,-0.86,
1.935,-2.34,-1.68,0.89,1.82,0.08,-0.86,
1.936,-2.34,-1.68,0.89,1.88,0.14,-0.85,
1.936,-2.34,-1.68,0.89,1.93,0.16,-0.83,
1.938,-2.34,-1.68,0.89,1.99,0.16,-0.81,
1.94,-2.34,-1.68,0.89,2.04,0.14,-0.78,
1.942,-2.34,-1.68,0.89,2.10,0.11,-0.75,
1.944,-2.73,-0.05,0.69,2.10,0.11,-0.75,
1.944,-2.73,-0.05,0.69,2.15,0.09,-0.72,
1.946,-2.73,-0.05,0.69,2.21,0.06,-0.69,
1.948,-2.73,-0.05,0.69,2.25,0.03,-0.65,
1.95,-2.73,-0.05,0.69,2.29,-0.03,-0.62,
1.952,-2.73,-0.05,0.69,2.30,-0.09,-0.58,
1.954,-2.03,1.20,0.40,2.30,-0.09,-0.58,
1.955,-2.03,1.20,0.40,2.30,-0.16,-0.53,
1.969,-2.03,1.20,0.40,2.27,-0.21,-0.49,
1.969,-2.03,1.20,0.40,2.22,-0.23,-0.44,
1.969,-2.03,1.20,0.40,2.16,-0.21,-0.38,
1.969,-2.03,1.20,0.40,2.08,-0.16,-0.33,
1.969,-1.18,1.61,-2.02,2.08,-0.16,-0.33,
1.97,-1.18,1.61,-2.02,2.00,-0.10,-0.28,
1.97,-1.18,1.61,-2.02,1.92,-0.05,-0.23,
1.97,-1.18,1.61,-2.02,1.84,-0.03,-0.18,
1.97,-1.18,1.61,-2.02,1.76,-0.03,-0.13,
1.972,-1.18,1.61,-2.02,1.69,-0.06,-0.08,
1.974,-0.62,0.84,-1.63,1.69,-0.06,-0.08,
1.974,-0.62,0.84,-1.63,1.61,-0.10,-0.03,
1.976,-0.62,0.84,-1.63,1.54,-0.15,0.03,
1.978,-0.62,0.84,-1.63,1.47,-0.20,0.09,
1.98,-0.62,0.84,-1.63,1.40,-0.24,0.14,
1.982,-0.62,0.84,-1.63,1.32,-0.28,0.20,
1.987,-0.20,-0.04,-1.39,1.32,-0.28,0.20,
1.987,-0.20,-0.04,-1.39,1.26,-0.31,0.25,
1.987,-0.20,-0.04,-1.39,1.20,-0.34,0.31,
1.988,-0.20,-0.04,-1.39,1.15,-0.37,0.37,
1.99,-0.20,-0.04,-1.39,1.11,-0.39,0.43,
1.992,-0.20,-0.04,-1.39,1.08,-0.40,0.49,
1.994,-0.11,-0.43,-1.50,1.08,-0.40,0.49,
1.994,-0.11,-0.43,-1.50,1.05,-0.40,0.54,
1.996,-0.11,-0.43,-1.50,1.03,-0.41,0.60,
1.998,-0.11,-0.43,-1.50,1.02,-0.40,0.65,
2.0,-0.11,-0.43,-1.50,1.01,-0.39,0.70,
2.002,-0.11,-0.43,-1.50,1.00,-0.39,0.74,
2.004,0.01,-0.68,-1.38,1.00,-0.39,0.74,
2.005,0.01,-0.68,-1.38,0.99,-0.39,0.78,
2.007,0.01,-0.68,-1.38,0.99,-0.39,0.81,
2.008,0.01,-0.68,-1.38,0.98,-0.40,0.84,
2.01,0.01,-0.68,-1.38,0.98,-0.39,0.86,
2.012,0.01,-0.68,-1.38,0.97,-0.38,0.88,
2.014,0.24,-1.17,-1.54,0.97,-0.38,0.88,
2.015,0.24,-1.17,-1.54,0.95,-0.37,0.89,
2.016,0.24,-1.17,-1.54,0.94,-0.37,0.89,
2.02,0.24,-1.17,-1.54,0.92,-0.35,0.89,
2.021,0.24,-1.17,-1.54,0.89,-0.34,0.88,
2.023,0.24,-1.17,-1.54,0.87,-0.31,0.87,
2.024,0.22,-1.40,-2.12,0.87,-0.31,0.87,
2.025,0.22,-1.40,-2.12,0.84,-0.28,0.86,
2.026,0.22,-1.40,-2.12,0.82,-0.25,0.85,
2.028,0.22,-1.40,-2.12,0.79,-0.22,0.83,
2.03,0.22,-1.40,-2.12,0.77,-0.18,0.82,
2.035,0.22,-1.40,-2.12,0.74,-0.14,0.81,
2.037,-0.41,-1.07,-2.33,0.74,-0.14,0.81,
2.037,-0.41,-1.07,-2.33,0.71,-0.09,0.78,
2.039,-0.41,-1.07,-2.33,0.66,0.01,0.75,
2.04,-0.41,-1.07,-2.33,0.63,0.08,0.73,
2.04,-0.41,-1.07,-2.33,0.61,0.12,0.72,
2.042,-0.41,-1.07,-2.33,0.59,0.20,0.70,
2.045,-0.88,-0.84,-2.56,0.59,0.20,0.70,
2.045,-0.88,-0.84,-2.56,0.56,0.28,0.68,
2.046,-0.88,-0.84,-2.56,0.54,0.36,0.66,
2.049,-0.88,-0.84,-2.56,0.53,0.45,0.65,
2.051,-0.88,-0.84,-2.56,0.51,0.54,0.64,
2.053,-0.88,-0.84,-2.56,0.49,0.64,0.64,
2.055,-1.79,-0.45,-2.11,0.49,0.64,0.64,
2.055,-1.79,-0.45,-2.11,0.48,0.72,0.64,
2.057,-1.79,-0.45,-2.11,0.48,0.80,0.65,
2.058,-1.79,-0.45,-2.11,0.47,0.87,0.67,
2.06,-1.79,-0.45,-2.11,0.47,0.93,0.69,
2.062,-1.79,-0.45,-2.11,0.47,1.00,0.72,
2.064,-2.89,0.22,-1.51,0.47,1.00,0.72,
2.065,-2.89,0.22,-1.51,0.47,1.06,0.76,
2.082,-2.89,0.22,-1.51,0.47,1.11,0.79,
2.082,-2.89,0.22,-1.51,0.48,1.17,0.83,
2.083,-2.89,0.22,-1.51,0.48,1.24,0.88,
2.083,-2.89,0.22,-1.51,0.50,1.32,0.91,
2.083,-2.81,1.63,-0.89,0.50,1.32,0.91,
2.083,-2.81,1.63,-0.89,0.52,1.40,0.94,
2.083,-2.81,1.63,-0.89,0.54,1.46,0.96,
2.083,-2.81,1.63,-0.89,0.56,1.50,0.98,
2.084,-2.81,1.63,-0.89,0.58,1.51,1.01,
2.084,-2.81,1.63,-0.89,0.59,1.52,1.04,
2.089,-1.85,1.38,0.08,0.59,1.52,1.04,
2.089,-1.85,1.38,0.08,0.60,1.54,1.07,
2.089,-1.85,1.38,0.08,0.60,1.58,1.10,
2.089,-1.85,1.38,0.08,0.60,1.61,1.14,
2.09,-1.85,1.38,0.08,0.60,1.65,1.17,
2.092,-1.85,1.38,0.08,0.58,1.69,1.20,
2.097,-1.22,0.20,-0.12,0.58,1.69,1.20,
2.097,-1.22,0.20,-0.12,0.57,1.72,1.23,
2.097,-1.22,0.20,-0.12,0.54,1.73,1.24,
2.115,-1.22,0.20,-0.12,0.43,1.71,1.26,
2.116,-1.22,0.20,-0.12,0.43,1.71,1.26,
2.116,-1.22,0.20,-0.12,0.43,1.71,1.26,
2.116,-1.22,0.20,-0.12,0.38,1.67,1.26,
2.117,0.44,-0.21,-1.03,0.38,1.67,1.26,
2.117,0.44,-0.21,-1.03,0.33,1.63,1.25,
2.117,0.44,-0.21,-1.03,0.27,1.57,1.24,
2.118,0.44,-0.21,-1.03,0.20,1.50,1.22,
2.118,0.44,-0.21,-1.03,0.14,1.42,1.19,
2.118,2.13,-1.15,-1.62,0.14,1.42,1.19,
2.118,2.13,-1.15,-1.62,0.06,1.34,1.15,
2.119,2.13,-1.15,-1.62,-0.01,1.25,1.10,
2.119,2.13,-1.15,-1.62,-0.08,1.17,1.04,
2.122,2.13,-1.15,-1.62,-0.14,1.10,0.97,
2.122,2.13,-1.15,-1.62,-0.21,1.03,0.90,
2.155,4.24,-2.86,-2.04,-0.21,1.03,0.90,
2.156,4.24,-2.86,-2.04,-0.28,0.98,0.82,
2.157,4.24,-2.86,-2.04,-0.34,0.93,0.74,
2.157,4.24,-2.86,-2.04,-0.40,0.88,0.65,
2.158,4.24,-2.86,-2.04,-0.46,0.82,0.57,
2.158,4.24,-2.86,-2.04,-0.51,0.75,0.50,
2.159,4.65,-3.40,-2.06,-0.51,0.75,0.50,
2.159,4.65,-3.40,-2.06,-0.56,0.67,0.43,
2.16,4.65,-3.40,-2.06,-0.61,0.59,0.37,
2.161,4.65,-3.40,-2.06,-0.65,0.50,0.32,
2.161,4.65,-3.40,-2.06,-0.69,0.42,0.29,
2.162,4.65,-3.40,-2.06,-0.73,0.34,0.27,
2.162,2.88,-2.98,-1.63,-0.73,0.34,0.27,
2.163,2.88,-2.98,-1.63,-0.76,0.26,0.26,
2.163,2.88,-2.98,-1.63,-0.78,0.19,0.27,
2.164,2.88,-2.98,-1.63,-0.80,0.12,0.29,
2.165,2.88,-2.98,-1.63,-0.82,0.06,0.33,
2.166,2.88,-2.98,-1.63,-0.83,-0.00,0.38,
2.166,0.50,-1.89,-0.87,-0.83,-0.00,0.38,
2.166,0.50,-1.89,-0.87,-0.84,-0.06,0.44,
2.167,0.50,-1.89,-0.87,-0.84,-0.12,0.51,
2.167,0.50,-1.89,-0.87,-0.85,-0.18,0.58,
2.168,0.50,-1.89,-0.87,-0.87,-0.24,0.66,
2.168,0.50,-1.89,-0.87,-0.88,-0.29,0.74,
2.169,-0.69,-0.64,-0.54,-0.88,-0.29,0.74,
2.169,-0.69,-0.64,-0.54,-0.88,-0.32,0.81,
2.169,-0.69,-0.64,-0.54,-0.87,-0.35,0.89,
2.17,-0.69,-0.64,-0.54,-0.87,-0.39,0.96,
2.17,-0.69,-0.64,-0.54,-0.86,-0.44,1.03,
2.185,-0.69,-0.64,-0.54,-0.85,-0.49,1.10,
2.186,-0.98,0.53,0.42,-0.85,-0.49,1.10,
2.186,-0.98,0.53,0.42,-0.84,-0.52,1.18,
2.187,-0.98,0.53,0.42,-0.84,-0.54,1.26,
2.187,-0.98,0.53,0.42,-0.83,-0.55,1.34,
2.187,-0.98,0.53,0.42,-0.83,-0.56,1.42,
2.188,-0.98,0.53,0.42,-0.83,-0.57,1.49,
2.188,-0.98,1.41,0.38,-0.83,-0.57,1.49,
2.188,-0.98,1.41,0.38,-0.83,-0.58,1.56,
2.189,-0.98,1.41,0.38,-0.83,-0.60,1.62,
2.189,-0.98,1.41,0.38,-0.83,-0.62,1.68,
2.191,-0.98,1.41,0.38,-0.83,-0.65,1.72,
2.193,-0.98,1.41,0.38,-0.83,-0.68,1.76,
2.195,0.21,1.46,0.49,-0.83,-0.68,1.76,
2.195,0.21,1.46,0.49,-0.84,-0.71,1.79,
2.196,0.21,1.46,0.49,-0.84,-0.74,1.80,
2.199,0.21,1.46,0.49,-0.86,-0.79,1.80,
2.201,0.21,1.46,0.49,-0.89,-0.84,1.79,
2.202,0.21,1.46,0.49,-0.93,-0.89,1.77,
2.206,2.23,0.83,0.28,-0.93,-0.89,1.77,
2.206,2.23,0.83,0.28,-0.97,-0.93,1.75,
2.206,2.23,0.83,0.28,-1.01,-0.97,1.73,
2.208,2.23,0.83,0.28,-1.07,-1.00,1.70,
2.21,2.23,0.83,0.28,-1.13,-1.02,1.68,
2.212,2.23,0.83,0.28,-1.19,-1.05,1.66,
2.217,3.24,-0.55,-0.37,-1.19,-1.05,1.66,
2.217,3.24,-0.55,-0.37,-1.26,-1.08,1.64,
2.217,3.24,-0.55,-0.37,-1.32,-1.12,1.63,
2.229,3.24,-0.55,-0.37,-1.39,-1.15,1.62,
2.229,3.24,-0.55,-0.37,-1.45,-1.18,1.63,
2.23,3.24,-0.55,-0.37,-1.51,-1.21,1.65,
2.23,2.78,-1.57,-0.36,-1.51,-1.21,1.65,
2.23,2.78,-1.57,-0.36,-1.56,-1.24,1.66,
2.23,2.78,-1.57,-0.36,-1.61,-1.28,1.68,
2.231,2.78,-1.57,-0.36,-1.66,-1.31,1.71,
2.231,2.78,-1.57,-0.36,-1.70,-1.34,1.75,
2.258,2.78,-1.57,-0.36,-1.75,-1.36,1.79,
2.259,1.61,-1.08,0.01,-1.75,-1.36,1.79,
2.259,1.61,-1.08,0.01,-1.78,-1.38,1.85,
2.259,1.61,-1.08,0.01,-1.82,-1.40,1.91,
2.26,1.61,-1.08,0.01,-1.85,-1.43,1.98,
2.26,1.61,-1.08,0.01,-1.87,-1.45,2.05,
2.26,1.61,-1.08,0.01,-1.90,-1.44,2.13,
2.26,0.05,-0.19,0.16,-1.90,-1.44,2.13,
2.261,0.05,-0.19,0.16,-1.93,-1.43,2.21,
2.261,0.05,-0.19,0.16,-1.95,-1.44,2.30,
2.261,0.05,-0.19,0.16,-1.97,-1.45,2.38,
2.261,0.05,-0.19,0.16,-1.99,-1.46,2.46,
2.261,0.05,-0.19,0.16,-2.01,-1.46,2.54,
2.262,-0.84,0.42,0.09,-2.01,-1.46,2.54,
2.262,-0.84,0.42,0.09,-2.04,-1.43,2.61,
2.262,-0.84,0.42,0.09,-2.07,-1.44,2.67,
2.262,-0.84,0.42,0.09,-2.09,-1.49,2.72,
2.263,-0.84,0.42,0.09,-2.10,-1.57,2.75,
2.263,-0.84,0.42,0.09,-2.12,-1.63,2.76,
2.273,-1.14,-0.23,0.30,-2.12,-1.63,2.76,
2.273,-1.14,-0.23,0.30,-2.14,-1.67,2.76,
2.274,-1.14,-0.23,0.30,-2.17,-1.72,2.75,
2.274,-1.14,-0.23,0.30,-2.20,-1.75,2.72,
2.274,-1.14,-0.23,0.30,-2.23,-1.76,2.67,
2.274,-1.14,-0.23,0.30,-2.26,-1.73,2.61,
2.275,-1.14,-1.21,-1.08,-2.26,-1.73,2.61,
2.275,-1.14,-1.21,-1.08,-2.29,-1.63,2.53,
2.289,-1.14,-1.21,-1.08,-2.33,-1.51,2.45,
2.289,-1.14,-1.21,-1.08,-2.38,-1.39,2.36,
2.289,-1.14,-1.21,-1.08,-2.42,-1.24,2.27,
2.289,-1.14,-1.21,-1.08,-2.46,-1.09,2.16,
2.29,-1.18,-1.55,-3.38,-2.46,-1.09,2.16,
2.29,-1.18,-1.55,-3.38,-2.50,-0.94,2.05,
2.29,-1.18,-1.55,-3.38,-2.54,-0.79,1.93,
2.29,-1.18,-1.55,-3.38,-2.57,-0.64,1.81,
2.309,-1.18,-1.55,-3.38,-2.60,-0.50,1.69,
2.309,-1.18,-1.55,-3.38,-2.63,-0.38,1.57,
2.309,-1.30,-1.58,-3.70,-2.63,-0.38,1.57,
2.309,-1.30,-1.58,-3.70,-2.64,-0.25,1.46,
2.309,-1.30,-1.58,-3.70,-2.64,-0.11,1.34,
2.31,-1.30,-1.58,-3.70,-2.64,0.10,1.18,
2.31,-1.30,-1.58,-3.70,-2.64,0.17,1.13,
2.31,-1.30,-1.58,-3.70,-2.62,0.31,1.03,
2.31,-1.94,-1.01,-3.37,-2.62,0.31,1.03,
2.31,-1.94,-1.01,-3.37,-2.60,0.43,0.95,
2.311,-1.94,-1.01,-3.37,-2.57,0.55,0.87,
2.311,-1.94,-1.01,-3.37,-2.50,0.73,0.76,
2.311,-1.94,-1.01,-3.37,-2.47,0.78,0.73,
2.315,-1.94,-1.01,-3.37,-2.42,0.89,0.68,
2.316,-2.00,0.08,-2.46,-2.42,0.89,0.68,
2.316,-2.00,0.08,-2.46,-2.36,1.00,0.64,
2.316,-2.00,0.08,-2.46,-2.30,1.09,0.60,
2.329,-2.00,0.08,-2.46,-2.23,1.17,0.57,
2.329,-2.00,0.08,-2.46,-2.15,1.25,0.55,
2.33,-2.00,0.08,-2.46,-2.07,1.34,0.53,
2.33,-1.38,1.34,-1.63,-2.07,1.34,0.53,
2.33,-1.38,1.34,-1.63,-1.98,1.40,0.52,
2.33,-1.38,1.34,-1.63,-1.89,1.46,0.51,
2.33,-1.38,1.34,-1.63,-1.80,1.50,0.51,
2.331,-1.38,1.34,-1.63,-1.70,1.52,0.52,
2.347,-1.38,1.34,-1.63,-1.60,1.53,0.52,
2.348,-0.73,1.94,-0.62,-1.60,1.53,0.52,
2.348,-0.73,1.94,-0.62,-1.49,1.51,0.54,
2.348,-0.73,1.94,-0.62,-1.39,1.48,0.56,
2.348,-0.73,1.94,-0.62,-1.29,1.44,0.59,
2.348,-0.73,1.94,-0.62,-1.18,1.40,0.63,
2.349,-0.73,1.94,-0.62,-1.08,1.36,0.67,
2.349,-0.61,1.73,-0.17,-1.08,1.36,0.67,
2.349,-0.61,1.73,-0.17,-0.98,1.33,0.72,
2.349,-0.61,1.73,-0.17,-0.88,1.30,0.77,
2.349,-0.61,1.73,-0.17,-0.79,1.28,0.83,
2.376,-0.61,1.73,-0.17,-0.69,1.27,0.88,
2.376,-0.61,1.73,-0.17,-0.60,1.26,0.94,
2.377,-0.26,1.19,0.07,-0.60,1.26,0.94,
2.377,-0.26,1.19,0.07,-0.50,1.27,1.00,
2.377,-0.26,1.19,0.07,-0.42,1.27,1.06,
2.377,-0.26,1.19,0.07,-0.33,1.28,1.12,
2.377,-0.26,1.19,0.07,-0.25,1.29,1.17,
2.377,-0.26,1.19,0.07,-0.17,1.30,1.24,
2.378,0.43,0.55,0.17,-0.17,1.30,1.24,
2.378,0.43,0.55,0.17,-0.10,1.31,1.29,
2.378,0.43,0.55,0.17,-0.03,1.31,1.36,
2.378,0.43,0.55,0.17,0.03,1.32,1.42,
2.378,0.43,0.55,0.17,0.08,1.33,1.48,
2.379,0.43,0.55,0.17,0.13,1.34,1.54,
2.383,0.85,-0.05,-0.13,0.13,1.34,1.54,
2.383,0.85,-0.05,-0.13,0.18,1.35,1.59,
2.384,0.85,-0.05,-0.13,0.21,1.36,1.63,
2.384,0.85,-0.05,-0.13,0.24,1.37,1.67,
2.385,0.85,-0.05,-0.13,0.25,1.38,1.70,
2.385,0.85,-0.05,-0.13,0.26,1.39,1.73,
2.398,1.89,-0.32,-1.11,0.26,1.39,1.73,
2.401,1.89,-0.32,-1.11,0.27,1.42,1.74,
2.402,1.89,-0.32,-1.11,0.27,1.49,1.75,
2.403,1.89,-0.32,-1.11,0.27,1.54,1.74,
2.404,1.89,-0.32,-1.11,0.26,1.56,1.74,
2.405,1.89,-0.32,-1.11,0.24,1.60,1.73,
2.406,2.35,0.19,-1.54,0.24,1.60,1.73,
2.407,2.35,0.19,-1.54,0.23,1.63,1.71,
2.407,2.35,0.19,-1.54,0.21,1.67,1.69,
2.408,2.35,0.19,-1.54,0.17,1.72,1.66,
2.409,2.35,0.19,-1.54,0.16,1.74,1.65,
2.41,2.35,0.19,-1.54,0.13,1.79,1.63,
2.41,1.41,0.77,-1.43,0.13,1.79,1.63,
2.41,1.41,0.77,-1.43,0.11,1.84,1.62,
2.411,1.41,0.77,-1.43,0.08,1.88,1.61,
2.412,1.41,0.77,-1.43,0.05,1.93,1.61,
2.412,1.41,0.77,-1.43,0.03,1.99,1.61,
2.425,1.41,0.77,-1.43,0.01,2.04,1.60,
2.426,0.09,0.84,-0.84,0.01,2.04,1.60,
2.427,0.09,0.84,-0.84,-0.02,2.08,1.60,
2.427,0.09,0.84,-0.84,-0.04,2.12,1.60,
2.428,0.09,0.84,-0.84,-0.07,2.16,1.60,
2.428,0.09,0.84,-0.84,-0.11,2.20,1.59,
2.429,0.09,0.84,-0.84,-0.14,2.25,1.58,
2.429,-0.42,1.07,-0.98,-0.14,2.25,1.58,
2.429,-0.42,1.07,-0.98,-0.18,2.30,1.57,
2.43,-0.42,1.07,-0.98,-0.22,2.36,1.57,
2.43,-0.42,1.07,-0.98,-0.26,2.42,1.56,
2.431,-0.42,1.07,-0.98,-0.29,2.49,1.55,
2.44,-0.42,1.07,-0.98,-0.32,2.55,1.55,
2.441,-0.94,1.35,-0.84,-0.32,2.55,1.55,
2.441,-0.94,1.35,-0.84,-0.34,2.62,1.54,
2.441,-0.94,1.35,-0.84,-0.36,2.69,1.54,
2.441,-0.94,1.35,-0.84,-0.37,2.76,1.54,
2.441,-0.94,1.35,-0.84,-0.37,2.83,1.53,
2.442,-0.94,1.35,-0.84,-0.36,2.89,1.52,
2.445,-0.70,1.55,0.62,-0.36,2.89,1.52,
2.445,-0.70,1.55,0.62,-0.33,2.93,1.51,
2.446,-0.70,1.55,0.62,-0.29,2.95,1.50,
2.454,-0.70,1.55,0.62,-0.24,2.96,1.48,
2.454,-0.70,1.55,0.62,-0.18,2.94,1.46,
2.454,-0.70,1.55,0.62,-0.12,2.91,1.45,
2.455,0.05,1.61,2.57,-0.12,2.91,1.45,
2.455,0.05,1.61,2.57,-0.05,2.85,1.43,
2.475,0.05,1.61,2.57,0.03,2.77,1.42,
2.476,0.05,1.61,2.57,0.11,2.68,1.41,
2.476,0.05,1.61,2.57,0.19,2.57,1.41,
2.476,0.05,1.61,2.57,0.26,2.45,1.41,
2.477,0.21,1.65,3.66,0.26,2.45,1.41,
2.477,0.21,1.65,3.66,0.33,2.33,1.41,
2.477,0.21,1.65,3.66,0.39,2.20,1.42,
2.477,0.21,1.65,3.66,0.44,2.07,1.43,
2.478,0.21,1.65,3.66,0.49,1.95,1.44,
2.478,0.21,1.65,3.66,0.53,1.82,1.45,
2.478,-0.06,1.67,2.68,0.53,1.82,1.45,
2.478,-0.06,1.67,2.68,0.56,1.70,1.46,
2.49,-0.06,1.67,2.68,0.57,1.58,1.47,
2.491,-0.06,1.67,2.68,0.59,1.47,1.49,
2.491,-0.06,1.67,2.68,0.60,1.36,1.50,
2.491,-0.06,1.67,2.68,0.59,1.26,1.51,
2.491,0.01,1.91,1.14,0.59,1.26,1.51,
2.491,0.01,1.91,1.14,0.58,1.15,1.51,
2.492,0.01,1.91,1.14,0.56,1.04,1.52,
2.492,0.01,1.91,1.14,0.53,0.93,1.52,
2.492,0.01,1.91,1.14,0.49,0.82,1.53,
2.492,0.01,1.91,1.14,0.45,0.72,1.53,
2.495,0.31,1.84,-0.70,0.45,0.72,1.53,
2.495,0.31,1.84,-0.70,0.40,0.62,1.53,
2.496,0.31,1.84,-0.70,0.35,0.53,1.53,
2.498,0.31,1.84,-0.70,0.29,0.45,1.52,
2.5,0.31,1.84,-0.70,0.23,0.37,1.51,
2.502,0.31,1.84,-0.70,0.18,0.30,1.50,
2.504,0.57,1.78,-1.58,0.18,0.30,1.50,
2.505,0.57,1.78,-1.58,0.12,0.24,1.49,
2.506,0.57,1.78,-1.58,0.06,0.20,1.47,
2.509,0.57,1.78,-1.58,0.00,0.18,1.44,
2.511,0.57,1.78,-1.58,-0.05,0.17,1.42,
2.512,0.57,1.78,-1.58,-0.10,0.19,1.38,
2.515,0.42,1.86,-1.53,-0.10,0.19,1.38,
2.515,0.42,1.86,-1.53,-0.15,0.22,1.35,
2.517,0.42,1.86,-1.53,-0.20,0.26,1.31,
2.519,0.42,1.86,-1.53,-0.25,0.32,1.26,
2.52,0.42,1.86,-1.53,-0.30,0.38,1.21,
2.522,0.42,1.86,-1.53,-0.34,0.46,1.16,
2.526,0.46,1.82,-1.20,-0.34,0.46,1.16,
2.526,0.46,1.82,-1.20,-0.39,0.54,1.09,
2.526,0.46,1.82,-1.20,-0.44,0.62,1.02,
2.528,0.46,1.82,-1.20,-0.49,0.70,0.94,
2.531,0.46,1.82,-1.20,-0.53,0.78,0.86,
2.532,0.46,1.82,-1.20,-0.58,0.86,0.78,
2.534,0.77,1.36,-0.71,-0.58,0.86,0.78,
2.535,0.77,1.36,-0.71,-0.62,0.96,0.69,
2.536,0.77,1.36,-0.71,-0.65,1.05,0.60,
2.538,0.77,1.36,-0.71,-0.69,1.13,0.52,
2.54,0.77,1.36,-0.71,-0.72,1.21,0.43,
2.542,0.77,1.36,-0.71,-0.74,1.28,0.35,
2.545,0.89,0.70,0.25,-0.74,1.28,0.35,
2.545,0.89,0.70,0.25,-0.76,1.34,0.27,
2.546,0.89,0.70,0.25,-0.77,1.39,0.20,
2.548,0.89,0.70,0.25,-0.78,1.44,0.13,
2.55,0.89,0.70,0.25,-0.78,1.49,0.08,
2.552,0.89,0.70,0.25,-0.78,1.54,0.03,
2.555,0.88,-0.10,1.22,-0.78,1.54,0.03,
2.555,0.88,-0.10,1.22,-0.77,1.60,0.00,
2.556,0.88,-0.10,1.22,-0.75,1.65,-0.01,
2.559,0.88,-0.10,1.22,-0.74,1.70,-0.02,
2.561,0.88,-0.10,1.22,-0.72,1.73,-0.01,
2.562,0.88,-0.10,1.22,-0.69,1.76,0.00,
2.566,0.97,-0.65,1.98,-0.69,1.76,0.00,
2.567,0.97,-0.65,1.98,-0.67,1.77,0.02,
2.567,0.97,-0.65,1.98,-0.65,1.77,0.05,
2.569,0.97,-0.65,1.98,-0.63,1.76,0.09,
2.57,0.97,-0.65,1.98,-0.60,1.74,0.14,
2.572,0.97,-0.65,1.98,-0.58,1.72,0.18,
2.575,1.08,-1.15,2.11,-0.58,1.72,0.18,
2.575,1.08,-1.15,2.11,-0.56,1.68,0.23,
2.576,1.08,-1.15,2.11,-0.55,1.65,0.28,
2.578,1.08,-1.15,2.11,-0.54,1.61,0.33,
2.598,1.08,-1.15,2.11,-0.53,1.58,0.38,
2.599,1.08,-1.15,2.11,-0.53,1.54,0.43,
2.599,1.03,-1.57,1.71,-0.53,1.54,0.43,
2.599,1.03,-1.57,1.71,-0.53,1.51,0.46,
2.6,1.03,-1.57,1.71,-0.53,1.49,0.50,
2.6,1.03,-1.57,1.71,-0.53,1.45,0.52,
2.6,1.03,-1.57,1.71,-0.53,1.42,0.55,
2.6,1.03,-1.57,1.71,-0.53,1.40,0.56,
2.6,1.10,-1.70,1.17,-0.53,1.40,0.56,
2.601,1.10,-1.70,1.17,-0.53,1.38,0.56,
2.601,1.10,-1.70,1.17,-0.53,1.37,0.57,
2.601,1.10,-1.70,1.17,-0.52,1.36,0.57,
2.601,1.10,-1.70,1.17,-0.52,1.37,0.56,
2.603,1.10,-1.70,1.17,-0.51,1.38,0.54,
2.605,1.16,-1.49,0.88,-0.51,1.38,0.54,
2.612,1.16,-1.49,0.88,-0.49,1.39,0.52,
2.641,1.16,-1.49,0.88,-0.48,1.41,0.50,
2.642,1.16,-1.49,0.88,-0.47,1.43,0.46,
2.642,1.16,-1.49,0.88,-0.45,1.45,0.43,
2.642,1.16,-1.49,0.88,-0.43,1.47,0.39,
2.642,1.13,-1.21,0.83,-0.43,1.47,0.39,
2.642,1.13,-1.21,0.83,-0.41,1.49,0.35,
2.643,1.13,-1.21,0.83,-0.39,1.52,0.30,
2.643,1.13,-1.21,0.83,-0.38,1.55,0.26,
2.643,1.13,-1.21,0.83,-0.36,1.58,0.20,
2.643,1.13,-1.21,0.83,-0.34,1.60,0.15,
2.666,0.93,-0.91,0.83,-0.34,1.60,0.15,
2.667,0.93,-0.91,0.83,-0.32,1.63,0.10,
2.668,0.93,-0.91,0.83,-0.30,1.65,0.05,
2.669,0.93,-0.91,0.83,-0.29,1.67,0.01,
2.669,0.93,-0.91,0.83,-0.27,1.69,-0.04,
2.669,0.93,-0.91,0.83,-0.26,1.71,-0.08,
2.67,0.48,-0.61,0.84,-0.26,1.71,-0.08,
2.67,0.48,-0.61,0.84,-0.25,1.72,-0.11,
2.67,0.48,-0.61,0.84,-0.24,1.73,-0.14,
2.67,0.48,-0.61,0.84,-0.23,1.74,-0.16,
2.671,0.48,-0.61,0.84,-0.22,1.74,-0.19,
2.671,0.48,-0.61,0.84,-0.22,1.74,-0.20,
2.671,-0.03,-0.42,0.80,-0.22,1.74,-0.20,
2.671,-0.03,-0.42,0.80,-0.21,1.74,-0.22,
2.671,-0.03,-0.42,0.80,-0.20,1.74,-0.23,
2.672,-0.03,-0.42,0.80,-0.20,1.74,-0.23,
2.672,-0.03,-0.42,0.80,-0.20,1.75,-0.23,
2.672,-0.03,-0.42,0.80,-0.19,1.76,-0.23,
2.672,-0.21,-0.29,0.84,-0.19,1.76,-0.23,
2.672,-0.21,-0.29,0.84,-0.19,1.76,-0.23,
2.673,-0.21,-0.29,0.84,-0.19,1.77,-0.22,
2.673,-0.21,-0.29,0.84,-0.19,1.79,-0.21,
2.673,-0.21,-0.29,0.84,-0.19,1.80,-0.19,
2.673,-0.21,-0.29,0.84,-0.20,1.79,-0.18,
2.673,-0.38,-0.01,0.91,-0.20,1.79,-0.18,
2.673,-0.38,-0.01,0.91,-0.21,1.79,-0.16,
2.674,-0.38,-0.01,0.91,-0.21,1.80,-0.14,
2.674,-0.38,-0.01,0.91,-0.21,1.83,-0.12,
2.674,-0.38,-0.01,0.91,-0.21,1.86,-0.11,
2.674,-0.38,-0.01,0.91,-0.20,1.89,-0.10,
2.674,-0.06,0.21,1.07,-0.20,1.89,-0.10,
2.675,-0.06,0.21,1.07,-0.20,1.92,-0.09,
2.679,-0.06,0.21,1.07,-0.19,1.94,-0.08,
2.68,-0.06,0.21,1.07,-0.18,1.97,-0.08,
2.681,-0.06,0.21,1.07,-0.17,1.99,-0.08,
2.682,-0.06,0.21,1.07,-0.15,2.01,-0.08,
2.684,0.77,0.37,1.20,-0.15,2.01,-0.08,
2.685,0.77,0.37,1.20,-0.14,2.03,-0.08,
2.686,0.77,0.37,1.20,-0.13,2.05,-0.08,
2.688,0.77,0.37,1.20,-0.11,2.07,-0.09,
2.69,0.77,0.37,1.20,-0.09,2.08,-0.10,
2.692,0.77,0.37,1.20,-0.07,2.10,-0.12,
2.694,1.60,0.51,1.21,-0.07,2.10,-0.12,
2.695,1.60,0.51,1.21,-0.05,2.12,-0.13,
2.697,1.60,0.51,1.21,-0.04,2.13,-0.14,
2.7,1.60,0.51,1.21,-0.02,2.15,-0.16,
2.7,1.60,0.51,1.21,-0.01,2.17,-0.17,
2.702,1.60,0.51,1.21,0.00,2.18,-0.18,
2.705,2.04,0.66,1.04,0.00,2.18,-0.18,
2.705,2.04,0.66,1.04,0.01,2.20,-0.19,
2.706,2.04,0.66,1.04,0.02,2.21,-0.21,
2.708,2.04,0.66,1.04,0.03,2.23,-0.22,
2.712,2.04,0.66,1.04,0.03,2.24,-0.23,
2.714,2.04,0.66,1.04,0.03,2.25,-0.25,
2.715,2.01,0.67,0.68,0.03,2.25,-0.25,
2.716,2.01,0.67,0.68,0.03,2.26,-0.26,
2.719,2.01,0.67,0.68,0.02,2.26,-0.27,
2.72,2.01,0.67,0.68,0.01,2.27,-0.27,
2.72,2.01,0.67,0.68,-0.00,2.27,-0.27,
2.722,2.01,0.67,0.68,-0.01,2.26,-0.25,
2.725,1.31,0.83,0.27,-0.01,2.26,-0.25,
2.725,1.31,0.83,0.27,-0.03,2.24,-0.23,
2.726,1.31,0.83,0.27,-0.04,2.23,-0.20,
2.73,1.31,0.83,0.27,-0.04,2.22,-0.16,
2.733,1.31,0.83,0.27,-0.05,2.22,-0.11,
2.735,1.31,0.83,0.27,-0.05,2.22,-0.06,
2.736,0.12,1.11,0.27,-0.05,2.22,-0.06,
2.736,0.12,1.11,0.27,-0.05,2.20,-0.01,
2.737,0.12,1.11,0.27,-0.05,2.18,0.09,
2.74,0.12,1.11,0.27,-0.05,2.16,0.16,
2.74,0.12,1.11,0.27,-0.05,2.15,0.20,
2.742,0.12,1.11,0.27,-0.04,2.12,0.28,
2.745,-1.00,1.64,0.27,-0.04,2.12,0.28,
2.759,-1.00,1.64,0.27,-0.04,2.10,0.37,
2.759,-1.00,1.64,0.27,-0.04,2.07,0.44,
2.759,-1.00,1.64,0.27,-0.04,2.04,0.52,
2.76,-1.00,1.64,0.27,-0.03,2.02,0.59,
2.76,-1.00,1.64,0.27,-0.02,2.00,0.65,
2.76,-1.32,2.12,0.10,-0.02,2.00,0.65,
2.76,-1.32,2.12,0.10,-0.02,1.98,0.71,
2.76,-1.32,2.12,0.10,-0.02,1.96,0.76,
2.761,-1.32,2.12,0.10,-0.03,1.93,0.81,
2.761,-1.32,2.12,0.10,-0.06,1.90,0.86,
2.762,-1.32,2.12,0.10,-0.08,1.86,0.90,
2.789,-1.14,2.43,-0.46,-0.08,1.86,0.90,
2.79,-1.14,2.43,-0.46,-0.11,1.82,0.92,
2.79,-1.14,2.43,-0.46,-0.14,1.78,0.95,
2.79,-1.14,2.43,-0.46,-0.19,1.73,0.97,
2.791,-1.14,2.43,-0.46,-0.23,1.70,0.99,
2.791,-1.14,2.43,-0.46,-0.27,1.67,0.99,
2.791,-0.86,2.80,-1.01,-0.27,1.67,0.99,
2.791,-0.86,2.80,-1.01,-0.33,1.64,1.00,
2.791,-0.86,2.80,-1.01,-0.38,1.63,1.00,
2.792,-0.86,2.80,-1.01,-0.44,1.60,1.00,
2.792,-0.86,2.80,-1.01,-0.51,1.58,0.99,
2.792,-0.86,2.80,-1.01,-0.58,1.56,0.98,
2.792,-0.78,3.20,-1.44,-0.58,1.56,0.98,
2.792,-0.78,3.20,-1.44,-0.65,1.54,0.97,
2.793,-0.78,3.20,-1.44,-0.72,1.51,0.96,
2.793,-0.78,3.20,-1.44,-0.80,1.48,0.95,
2.812,-0.78,3.20,-1.44,-0.88,1.44,0.94,
2.812,-0.78,3.20,-1.44,-0.96,1.39,0.94,
2.813,-1.14,4.07,-1.82,-0.96,1.39,0.94,
2.813,-1.14,4.07,-1.82,-1.05,1.31,0.93,
2.813,-1.14,4.07,-1.82,-1.15,1.22,0.93,
2.813,-1.14,4.07,-1.82,-1.25,1.13,0.94,
2.814,-1.14,4.07,-1.82,-1.37,1.02,0.94,
2.814,-1.14,4.07,-1.82,-1.50,0.92,0.95,
2.814,-1.68,5.24,-2.71,-1.50,0.92,0.95,
2.814,-1.68,5.24,-2.71,-1.63,0.82,0.96,
2.815,-1.68,5.24,-2.71,-1.76,0.76,0.97,
2.815,-1.68,5.24,-2.71,-1.89,0.73,0.99,
2.815,-1.68,5.24,-2.71,-2.00,0.73,1.01,
2.815,-1.68,5.24,-2.71,-2.10,0.74,1.03,
2.816,-2.08,6.14,-2.98,-2.10,0.74,1.03,
2.816,-2.08,6.14,-2.98,-2.19,0.77,1.05,
2.822,-2.08,6.14,-2.98,-2.28,0.81,1.08,
2.822,-2.08,6.14,-2.98,-2.37,0.86,1.10,
2.823,-2.08,6.14,-2.98,-2.45,0.90,1.13,
2.831,-2.08,6.14,-2.98,-2.54,0.95,1.16,
2.832,-2.20,6.72,-2.89,-2.54,0.95,1.16,
2.833,-2.20,6.72,-2.89,-2.61,1.00,1.18,
2.833,-2.20,6.72,-2.89,-2.69,1.06,1.21,
2.834,-2.20,6.72,-2.89,-2.77,1.11,1.23,
2.834,-2.20,6.72,-2.89,-2.84,1.16,1.26,
2.84,-2.20,6.72,-2.89,-2.91,1.21,1.28,
2.841,-2.02,7.16,-2.71,-2.91,1.21,1.28,
2.842,-2.02,7.16,-2.71,-2.96,1.25,1.31,
2.842,-2.02,7.16,-2.71,-2.99,1.28,1.33,
2.842,-2.02,7.16,-2.71,-2.97,1.27,1.35,
2.842,-2.02,7.16,-2.71,-2.88,1.24,1.36,
2.843,-2.02,7.16,-2.71,-2.75,1.22,1.37,
2.845,-1.33,6.85,3.62,-2.75,1.22,1.37,
2.845,-1.33,6.85,3.62,-2.58,1.21,1.38,
2.847,-1.33,6.85,3.62,-2.38,1.21,1.39,
2.848,-1.33,6.85,3.62,-2.16,1.21,1.40,
2.851,-1.33,6.85,3.62,-1.92,1.23,1.41,
2.853,-1.33,6.85,3.62,-1.69,1.24,1.42,
2.855,-0.82,6.61,7.66,-1.69,1.24,1.42,
2.855,-0.82,6.61,7.66,-1.45,1.26,1.43,
2.856,-0.82,6.61,7.66,-1.23,1.28,1.44,
2.858,-0.82,6.61,7.66,-1.02,1.29,1.46,
2.861,-0.82,6.61,7.66,-0.81,1.29,1.48,
2.864,-0.82,6.61,7.66,-0.62,1.29,1.51,
2.865,-0.78,6.89,6.53,-0.62,1.29,1.51,
2.866,-0.78,6.89,6.53,-0.44,1.26,1.54,
2.873,-0.78,6.89,6.53,-0.26,1.23,1.58,
2.873,-0.78,6.89,6.53,-0.09,1.19,1.62,
2.873,-0.78,6.89,6.53,0.07,1.13,1.67,
2.874,-0.78,6.89,6.53,0.20,1.05,1.71,
2.874,-0.94,6.96,3.71,0.20,1.05,1.71,
2.875,-0.94,6.96,3.71,0.34,0.95,1.75,
2.876,-0.94,6.96,3.71,0.47,0.85,1.79,
2.884,-0.94,6.96,3.71,0.58,0.74,1.83,
2.885,-0.94,6.96,3.71,0.68,0.64,1.86,
2.885,-0.94,6.96,3.71,0.77,0.54,1.88,
2.885,-0.76,7.17,1.21,0.77,0.54,1.88,
2.885,-0.76,7.17,1.21,0.84,0.45,1.90,
2.886,-0.76,7.17,1.21,0.90,0.37,1.91,
2.889,-0.76,7.17,1.21,0.95,0.31,1.92,
2.89,-0.76,7.17,1.21,0.98,0.25,1.92,
2.892,-0.76,7.17,1.21,0.99,0.21,1.91,
2.895,-0.23,7.09,-1.50,0.99,0.21,1.91,
2.895,-0.23,7.09,-1.50,0.99,0.19,1.90,
2.916,-0.23,7.09,-1.50,0.98,0.18,1.88,
2.917,-0.23,7.09,-1.50,0.92,0.15,1.83,
2.917,-0.23,7.09,-1.50,0.89,0.15,1.82,
2.917,-0.23,7.09,-1.50,0.85,0.21,1.78,
2.917,1.94,4.20,-3.89,0.85,0.21,1.78,
2.917,1.94,4.20,-3.89,0.80,0.29,1.75,
2.917,1.94,4.20,-3.89,0.74,0.38,1.72,
2.917,1.94,4.20,-3.89,0.68,0.48,1.71,
2.917,1.94,4.20,-3.89,0.60,0.57,1.71,
2.918,1.94,4.20,-3.89,0.52,0.68,1.74,
2.918,3.22,-5.12,-4.67,0.52,0.68,1.74,
2.918,3.22,-5.12,-4.67,0.43,0.79,1.80,
2.918,3.22,-5.12,-4.67,0.29,0.93,1.96,
2.918,3.22,-5.12,-4.67,0.21,0.99,2.11,
2.92,3.22,-5.12,-4.67,0.17,1.00,2.20,
2.922,3.22,-5.12,-4.67,0.13,0.98,2.39,
2.924,0.69,-17.26,-2.88,0.13,0.98,2.39,
2.925,0.69,-17.26,-2.88,0.11,0.92,2.60,
2.926,0.69,-17.26,-2.88,0.09,0.80,2.81,
2.929,0.69,-17.26,-2.88,0.07,0.59,3.01,
2.93,0.69,-17.26,-2.88,0.06,0.32,3.22,
2.932,0.69,-17.26,-2.88,0.05,-0.00,3.43,
2.934,-0.39,-30.58,-1.13,0.05,-0.00,3.43,
2.935,-0.39,-30.58,-1.13,0.07,-0.34,3.65,
2.936,-0.39,-30.58,-1.13,0.11,-0.71,3.86,
2.938,-0.39,-30.58,-1.13,0.16,-1.11,4.08,
2.94,-0.39,-30.58,-1.13,0.21,-1.54,4.28,
2.942,-0.39,-30.58,-1.13,0.26,-1.96,4.45,
2.944,-0.26,-37.22,-0.74,0.26,-1.96,4.45,
2.945,-0.26,-37.22,-0.74,0.31,-2.33,4.58,
2.946,-0.26,-37.22,-0.74,0.36,-2.65,4.65,
2.948,-0.26,-37.22,-0.74,0.42,-2.89,4.68,
2.95,-0.26,-37.22,-0.74,0.47,-3.05,4.65,
2.952,-0.26,-37.22,-0.74,0.51,-3.17,4.59,
2.954,3.60,-33.68,-0.17,0.51,-3.17,4.59,
2.954,3.60,-33.68,-0.17,0.54,-3.23,4.48,
2.965,3.60,-33.68,-0.17,0.57,-3.24,4.32,
2.966,3.60,-33.68,-0.17,0.60,-3.19,4.12,
2.966,3.60,-33.68,-0.17,0.64,-3.09,3.88,
2.966,3.60,-33.68,-0.17,0.67,-2.96,3.61,
2.966,9.20,-21.87,1.39,0.67,-2.96,3.61,
2.966,9.20,-21.87,1.39,0.70,-2.79,3.34,
2.966,9.20,-21.87,1.39,0.72,-2.57,3.05,
2.969,9.20,-21.87,1.39,0.75,-2.31,2.76,
2.97,9.20,-21.87,1.39,0.79,-1.99,2.44,
2.972,9.20,-21.87,1.39,0.85,-1.60,2.11,
2.974,11.06,-9.80,2.58,0.85,-1.60,2.11,
2.975,11.06,-9.80,2.58,0.93,-1.16,1.79,
2.976,11.06,-9.80,2.58,1.01,-0.68,1.46,
2.979,11.06,-9.80,2.58,1.11,-0.19,1.13,
2.98,11.06,-9.80,2.58,1.21,0.31,0.81,
2.982,11.06,-9.80,2.58,1.31,0.80,0.50,
2.985,10.32,-1.76,2.48,1.31,0.80,0.50,
2.985,10.32,-1.76,2.48,1.42,1.28,0.20,
2.986,10.32,-1.76,2.48,1.53,1.74,-0.09,
2.988,10.32,-1.76,2.48,1.64,2.17,-0.36,
2.99,10.32,-1.76,2.48,1.76,2.57,-0.60,
2.992,10.32,-1.76,2.48,1.88,2.95,-0.83,
2.995,6.98,2.58,1.46,1.88,2.95,-0.83,
2.995,6.98,2.58,1.46,2.00,3.31,-1.03,
2.996,6.98,2.58,1.46,2.12,3.64,-1.21,
2.998,6.98,2.58,1.46,2.23,3.93,-1.36,
3.001,6.98,2.58,1.46,2.35,4.19,-1.49,
3.002,6.98,2.58,1.46,2.46,4.42,-1.60,
3.005,2.72,3.93,0.25,2.46,4.42,-1.60,
3.005,2.72,3.93,0.25,2.56,4.59,-1.68,
3.006,2.72,3.93,0.25,2.66,4.74,-1.74,
3.008,2.72,3.93,0.25,2.76,4.84,-1.77,
3.01,2.72,3.93,0.25,2.86,4.92,-1.78,
3.012,2.72,3.93,0.25,2.95,4.98,-1.77,
3.015,-1.36,2.85,-0.51,2.95,4.98,-1.77,
3.015,-1.36,2.85,-0.51,3.04,5.01,-1.74,
3.016,-1.36,2.85,-0.51,3.13,5.02,-1.70,
3.018,-1.36,2.85,-0.51,3.21,5.01,-1.65,
3.02,-1.36,2.85,-0.51,3.28,4.98,-1.59,
3.022,-1.36,2.85,-0.51,3.34,4.93,-1.52,
3.024,-3.85,0.74,-1.30,3.34,4.93,-1.52,
3.025,-3.85,0.74,-1.30,3.40,4.85,-1.44,
3.026,-3.85,0.74,-1.30,3.46,4.76,-1.36,
3.05,-3.85,0.74,-1.30,3.50,4.64,-1.28,
3.05,-3.85,0.74,-1.30,3.53,4.51,-1.19,
3.051,-3.85,0.74,-1.30,3.55,4.35,-1.10,
3.051,-4.51,-1.41,-2.30,3.55,4.35,-1.10,
3.051,-4.51,-1.41,-2.30,3.57,4.17,-1.02,
3.051,-4.51,-1.41,-2.30,3.57,3.98,-0.94,
3.052,-4.51,-1.41,-2.30,3.55,3.68,-0.83,
3.052,-4.51,-1.41,-2.30,3.54,3.58,-0.80,
3.052,-4.51,-1.41,-2.30,3.51,3.37,-0.74,
3.052,-3.83,-2.97,-3.39,3.51,3.37,-0.74,
3.053,-3.83,-2.97,-3.39,3.47,3.17,-0.69,
3.053,-3.83,-2.97,-3.39,3.42,2.97,-0.66,
3.053,-3.83,-2.97,-3.39,3.33,2.69,-0.62,
3.053,-3.83,-2.97,-3.39,3.29,2.59,-0.61,
3.053,-3.83,-2.97,-3.39,3.22,2.42,-0.61,
3.056,-2.21,-3.48,-3.98,3.22,2.42,-0.61,
3.056,-2.21,-3.48,-3.98,3.13,2.24,-0.62,
3.056,-2.21,-3.48,-3.98,3.04,2.08,-0.64,
3.063,-2.21,-3.48,-3.98,2.95,1.93,-0.67,
3.064,-2.21,-3.48,-3.98,2.81,1.73,-0.72,
3.065,-2.21,-3.48,-3.98,2.76,1.67,-0.75,
3.065,-0.58,-3.38,-3.98,2.76,1.67,-0.75,
3.066,-0.58,-3.38,-3.98,2.66,1.55,-0.80,
3.066,-0.58,-3.38,-3.98,2.56,1.44,-0.85,
3.069,-0.58,-3.38,-3.98,2.41,1.28,-0.93,
3.07,-0.58,-3.38,-3.98,2.36,1.22,-0.96,
3.072,-0.58,-3.38,-3.98,2.26,1.11,-1.02,
3.075,0.56,-2.91,-3.30,2.26,1.11,-1.02,
3.075,0.56,-2.91,-3.30,2.16,1.00,-1.09,
3.076,0.56,-2.91,-3.30,2.07,0.90,-1.15,
3.078,0.56,-2.91,-3.30,1.98,0.79,-1.21,
3.08,0.56,-2.91,-3.30,1.91,0.69,-1.27,
3.082,0.56,-2.91,-3.30,1.84,0.60,-1.33,
3.085,0.98,-2.74,-2.25,1.84,0.60,-1.33,
3.086,0.98,-2.74,-2.25,1.79,0.52,-1.38,
3.088,0.98,-2.74,-2.25,1.72,0.42,-1.45,
3.089,0.98,-2.74,-2.25,1.69,0.37,-1.49,
3.09,0.98,-2.74,-2.25,1.69,0.36,-1.51,
3.092,0.98,-2.74,-2.25,1.67,0.32,-1.55,
3.095,0.75,-2.63,-0.96,1.67,0.32,-1.55,
3.096,0.75,-2.63,-0.96,1.67,0.29,-1.57,
3.096,0.75,-2.63,-0.96,1.69,0.27,-1.60,
3.103,0.75,-2.63,-0.96,1.76,0.24,-1.64,
3.103,0.75,-2.63,-0.96,1.76,0.24,-1.64,
3.104,0.75,-2.63,-0.96,1.76,0.24,-1.64,
3.105,0.75,-2.63,-0.96,1.82,0.24,-1.66,
3.107,0.57,-2.70,-0.15,1.82,0.24,-1.66,
3.107,0.57,-2.70,-0.15,1.87,0.26,-1.67,
3.109,0.57,-2.70,-0.15,1.92,0.28,-1.67,
3.11,0.57,-2.70,-0.15,1.94,0.29,-1.68,
3.113,0.57,-2.70,-0.15,2.00,0.32,-1.68,
3.115,0.49,-2.70,0.04,2.00,0.32,-1.68,
3.116,0.49,-2.70,0.04,2.07,0.36,-1.68,
3.116,0.49,-2.70,0.04,2.13,0.41,-1.68,
3.119,0.49,-2.70,0.04,2.23,0.50,-1.67,
3.12,0.49,-2.70,0.04,2.26,0.53,-1.67,
3.122,0.49,-2.70,0.04,2.33,0.59,-1.66,
3.149,0.20,-2.68,-0.05,2.33,0.59,-1.66,
3.149,0.20,-2.68,-0.05,2.39,0.66,-1.65,
3.149,0.20,-2.68,-0.05,2.45,0.73,-1.65,
3.149,0.20,-2.68,-0.05,2.53,0.84,-1.63,
3.15,0.20,-2.68,-0.05,2.56,0.88,-1.63,
3.15,0.20,-2.68,-0.05,2.60,0.98,-1.62,
3.15,-0.14,-2.43,-0.50,2.60,0.98,-1.62,
3.15,-0.14,-2.43,-0.50,2.64,1.07,-1.62,
3.151,-0.14,-2.43,-0.50,2.68,1.16,-1.61,
3.151,-0.14,-2.43,-0.50,2.72,1.30,-1.61,
3.151,-0.14,-2.43,-0.50,2.73,1.35,-1.61,
3.152,-0.14,-2.43,-0.50,2.75,1.44,-1.61,
3.152,-0.33,-2.05,-1.28,2.75,1.44,-1.61,
3.152,-0.33,-2.05,-1.28,2.76,1.52,-1.61,
3.152,-0.33,-2.05,-1.28,2.76,1.61,-1.61,
3.153,-0.33,-2.05,-1.28,2.77,1.72,-1.61,
3.153,-0.33,-2.05,-1.28,2.76,1.76,-1.61,
3.153,-0.33,-2.05,-1.28,2.75,1.82,-1.61,
3.159,-0.53,-1.49,-1.90,2.75,1.82,-1.61,
3.159,-0.53,-1.49,-1.90,2.74,1.92,-1.60,
3.16,-0.53,-1.49,-1.90,2.73,1.94,-1.60,
3.16,-0.53,-1.49,-1.90,2.71,2.02,-1.59,
3.16,-0.53,-1.49,-1.90,2.71,2.04,-1.59,
3.165,-0.53,-1.49,-1.90,2.69,2.08,-1.59,
3.165,-0.62,-1.02,-2.36,2.69,2.08,-1.59,
3.165,-0.62,-1.02,-2.36,2.66,2.12,-1.58,
3.166,-0.62,-1.02,-2.36,2.64,2.13,-1.58,
3.169,-0.62,-1.02,-2.36,2.61,2.16,-1.57,
3.17,-0.62,-1.02,-2.36,2.60,2.17,-1.57,
3.172,-0.62,-1.02,-2.36,2.58,2.18,-1.56,
3.174,-0.58,-0.50,-2.54,2.58,2.18,-1.56,
3.175,-0.58,-0.50,-2.54,2.54,2.18,-1.55,
3.176,-0.58,-0.50,-2.54,2.53,2.18,-1.55,
3.188,-0.58,-0.50,-2.54,2.49,2.16,-1.54,
3.189,-0.58,-0.50,-2.54,2.48,2.15,-1.53,
3.189,-0.58,-0.50,-2.54,2.46,2.13,-1.53,
3.189,-0.52,-0.07,-2.85,2.46,2.13,-1.53,
3.189,-0.52,-0.07,-2.85,2.43,2.09,-1.52,
3.19,-0.52,-0.07,-2.85,2.42,2.08,-1.51,
3.19,-0.52,-0.07,-2.85,2.40,2.03,-1.50,
3.19,-0.52,-0.07,-2.85,2.38,1.99,-1.49,
3.192,-0.52,-0.07,-2.85,2.37,1.95,-1.48,
3.231,-0.55,0.50,-3.05,2.37,1.95,-1.48,
3.231,-0.55,0.50,-3.05,2.36,1.91,-1.46,
3.232,-0.55,0.50,-3.05,2.35,1.87,-1.45,
3.232,-0.55,0.50,-3.05,2.34,1.83,-1.43,
3.232,-0.55,0.50,-3.05,2.33,1.79,-1.42,
3.232,-0.55,0.50,-3.05,2.32,1.75,-1.41,
3.232,-0.68,0.99,-3.30,2.32,1.75,-1.41,
3.233,-0.68,0.99,-3.30,2.31,1.72,-1.39,
3.233,-0.68,0.99,-3.30,2.30,1.69,-1.37,
3.233,-0.68,0.99,-3.30,2.29,1.67,-1.36,
3.233,-0.68,0.99,-3.30,2.27,1.64,-1.34,
3.233,-0.68,0.99,-3.30,2.26,1.62,-1.33,
3.234,-0.71,1.49,-3.35,2.26,1.62,-1.33,
3.234,-0.71,1.49,-3.35,2.24,1.61,-1.31,
3.234,-0.71,1.49,-3.35,2.23,1.60,-1.30,
3.234,-0.71,1.49,-3.35,2.21,1.60,-1.28,
3.234,-0.71,1.49,-3.35,2.19,1.60,-1.27,
3.234,-0.71,1.49,-3.35,2.16,1.60,-1.26,
3.235,-0.81,1.84,-3.40,2.16,1.60,-1.26,
3.235,-0.81,1.84,-3.40,2.14,1.61,-1.24,
3.235,-0.81,1.84,-3.40,2.12,1.62,-1.23,
3.235,-0.81,1.84,-3.40,2.09,1.62,-1.22,
3.235,-0.81,1.84,-3.40,2.06,1.63,-1.21,
3.235,-0.81,1.84,-3.40,2.03,1.64,-1.20,
3.236,-0.81,2.13,-3.41,2.03,1.64,-1.20,
3.236,-0.81,2.13,-3.41,1.99,1.65,-1.19,
3.236,-0.81,2.13,-3.41,1.96,1.65,-1.18,
3.245,-0.81,2.13,-3.41,1.92,1.66,-1.17,
3.246,-0.81,2.13,-3.41,1.88,1.66,-1.15,
3.247,-0.81,2.13,-3.41,1.84,1.66,-1.14,
3.247,-0.86,2.41,-3.29,1.84,1.66,-1.14,
3.248,-0.86,2.41,-3.29,1.80,1.66,-1.13,
3.248,-0.86,2.41,-3.29,1.76,1.65,-1.12,
3.249,-0.86,2.41,-3.29,1.72,1.64,-1.10,
3.251,-0.86,2.41,-3.29,1.67,1.63,-1.09,
3.252,-0.86,2.41,-3.29,1.63,1.62,-1.07,
3.257,-0.74,2.59,-3.05,1.63,1.62,-1.07,
3.257,-0.74,2.59,-3.05,1.59,1.59,-1.06,
3.257,-0.74,2.59,-3.05,1.55,1.56,-1.04,
3.258,-0.74,2.59,-3.05,1.51,1.53,-1.02,
3.266,-0.74,2.59,-3.05,1.46,1.49,-1.00,
3.266,-0.74,2.59,-3.05,1.42,1.45,-0.99,
3.266,-0.61,2.65,-2.88,1.42,1.45,-0.99,
3.267,-0.61,2.65,-2.88,1.38,1.41,-0.97,
3.267,-0.61,2.65,-2.88,1.34,1.35,-0.95,
3.269,-0.61,2.65,-2.88,1.30,1.30,-0.94,
3.27,-0.61,2.65,-2.88,1.26,1.24,-0.93,
3.272,-0.61,2.65,-2.88,1.22,1.18,-0.92,
3.275,-0.34,2.58,-2.79,1.22,1.18,-0.92,
3.275,-0.34,2.58,-2.79,1.18,1.13,-0.90,
3.276,-0.34,2.58,-2.79,1.14,1.07,-0.89,
3.308,-0.34,2.58,-2.79,1.10,1.01,-0.88,
3.309,-0.34,2.58,-2.79,1.07,0.96,-0.86,
3.309,-0.34,2.58,-2.79,1.03,0.90,-0.85,
3.309,-0.24,2.49,-2.61,1.03,0.90,-0.85,
3.309,-0.24,2.49,-2.61,0.99,0.86,-0.84,
3.309,-0.24,2.49,-2.61,0.96,0.82,-0.83,
3.309,-0.24,2.49,-2.61,0.92,0.78,-0.83,
3.325,-0.24,2.49,-2.61,0.89,0.75,-0.82,
3.325,-0.24,2.49,-2.61,0.85,0.72,-0.81,
3.325,0.07,2.26,-2.39,0.85,0.72,-0.81,
3.325,0.07,2.26,-2.39,0.81,0.70,-0.81,
3.325,0.07,2.26,-2.39,0.78,0.68,-0.81,
3.326,0.07,2.26,-2.39,0.74,0.66,-0.81,
3.326,0.07,2.26,-2.39,0.70,0.63,-0.81,
3.326,0.07,2.26,-2.39,0.66,0.62,-0.82,
3.326,0.48,1.94,-2.04,0.66,0.62,-0.82,
3.326,0.48,1.94,-2.04,0.63,0.61,-0.82,
3.326,0.48,1.94,-2.04,0.60,0.60,-0.83,
3.326,0.48,1.94,-2.04,0.56,0.60,-0.84,
3.327,0.48,1.94,-2.04,0.54,0.60,-0.84,
3.327,0.48,1.94,-2.04,0.51,0.60,-0.85,
3.327,0.89,1.61,-1.62,0.51,0.60,-0.85,
3.327,0.89,1.61,-1.62,0.48,0.60,-0.86,
3.327,0.89,1.61,-1.62,0.46,0.60,-0.86,
3.327,0.89,1.61,-1.62,0.43,0.60,-0.87,
3.328,0.89,1.61,-1.62,0.41,0.60,-0.87,
3.328,0.89,1.61,-1.62,0.39,0.60,-0.88,
3.328,1.28,1.28,-1.50,0.39,0.60,-0.88,
3.328,1.28,1.28,-1.50,0.37,0.61,-0.89,
3.328,1.28,1.28,-1.50,0.35,0.62,-0.90,
3.331,1.28,1.28,-1.50,0.33,0.63,-0.91,
3.332,1.28,1.28,-1.50,0.32,0.65,-0.92,
3.334,1.28,1.28,-1.50,0.30,0.68,-0.93,
3.335,1.72,1.03,-1.60,0.30,0.68,-0.93,
3.335,1.72,1.03,-1.60,0.28,0.70,-0.94,
3.336,1.72,1.03,-1.60,0.26,0.74,-0.95,
3.338,1.72,1.03,-1.60,0.25,0.77,-0.96,
3.34,1.72,1.03,-1.60,0.23,0.81,-0.97,
3.342,1.72,1.03,-1.60,0.22,0.86,-0.97,
3.344,1.95,0.95,-1.74,0.22,0.86,-0.97,
3.345,1.95,0.95,-1.74,0.20,0.90,-0.98,
3.346,1.95,0.95,-1.74,0.18,0.94,-0.98,
3.349,1.95,0.95,-1.74,0.17,0.99,-0.99,
3.35,1.95,0.95,-1.74,0.15,1.03,-0.99,
3.352,1.95,0.95,-1.74,0.13,1.08,-1.00,
3.354,2.16,1.16,-1.97,0.13,1.08,-1.00,
3.355,2.16,1.16,-1.97,0.11,1.13,-1.00,
3.356,2.16,1.16,-1.97,0.10,1.17,-1.01,
3.358,2.16,1.16,-1.97,0.08,1.21,-1.02,
3.36,2.16,1.16,-1.97,0.06,1.25,-1.02,
3.364,2.16,1.16,-1.97,0.04,1.29,-1.02,
3.365,2.18,1.66,-2.16,0.04,1.29,-1.02,
3.365,2.18,1.66,-2.16,0.02,1.32,-1.03,
3.366,2.18,1.66,-2.16,0.00,1.35,-1.03,
3.368,2.18,1.66,-2.16,-0.02,1.36,-1.03,
3.37,2.18,1.66,-2.16,-0.04,1.38,-1.03,
3.372,2.18,1.66,-2.16,-0.07,1.38,-1.02,
3.374,1.76,2.03,-2.19,-0.07,1.38,-1.02,
3.375,1.76,2.03,-2.19,-0.09,1.38,-1.01,
3.376,1.76,2.03,-2.19,-0.12,1.37,-1.00,
3.378,1.76,2.03,-2.19,-0.15,1.36,-0.99,
3.381,1.76,2.03,-2.19,-0.18,1.35,-0.99,
3.383,1.76,2.03,-2.19,-0.21,1.33,-0.99,
3.385,1.38,2.32,-1.95,-0.21,1.33,-0.99,
3.385,1.38,2.32,-1.95,-0.25,1.30,-1.00,
3.386,1.38,2.32,-1.95,-0.29,1.28,-1.01,
3.388,1.38,2.32,-1.95,-0.33,1.26,-1.02,
3.39,1.38,2.32,-1.95,-0.36,1.24,-1.04,
3.393,1.38,2.32,-1.95,-0.40,1.22,-1.06,
3.412,1.00,3.22,-1.18,-0.40,1.22,-1.06,
3.413,1.00,3.22,-1.18,-0.44,1.21,-1.08,
3.414,1.00,3.22,-1.18,-0.49,1.21,-1.10,
3.414,1.00,3.22,-1.18,-0.54,1.22,-1.12,
3.415,1.00,3.22,-1.18,-0.60,1.23,-1.13,
3.415,1.00,3.22,-1.18,-0.65,1.26,-1.13,
3.415,-0.12,3.48,-1.25,-0.65,1.26,-1.13,
3.416,-0.12,3.48,-1.25,-0.71,1.31,-1.13,
3.417,-0.12,3.48,-1.25,-0.77,1.35,-1.13,
3.417,-0.12,3.48,-1.25,-0.82,1.40,-1.12,
3.417,-0.12,3.48,-1.25,-0.86,1.45,-1.11,
3.417,-0.12,3.48,-1.25,-0.90,1.49,-1.10,
3.419,-1.60,3.44,-2.06,-0.90,1.49,-1.10,
3.419,-1.60,3.44,-2.06,-0.93,1.53,-1.08,
3.419,-1.60,3.44,-2.06,-0.96,1.56,-1.05,
3.422,-1.60,3.44,-2.06,-0.98,1.57,-1.03,
3.423,-1.60,3.44,-2.06,-0.98,1.55,-1.00,
3.426,-1.60,3.44,-2.06,-0.98,1.50,-0.98,
3.455,-2.30,3.66,-0.54,-0.98,1.50,-0.98,
3.456,-2.30,3.66,-0.54,-0.96,1.41,-0.95,
3.456,-2.30,3.66,-0.54,-0.92,1.29,-0.93,
3.456,-2.30,3.66,-0.54,-0.85,1.15,-0.91,
3.457,-2.30,3.66,-0.54,-0.76,0.97,-0.89,
3.457,-2.30,3.66,-0.54,-0.65,0.77,-0.87,
3.457,-1.67,2.69,5.33,-0.65,0.77,-0.87,
3.458,-1.67,2.69,5.33,-0.51,0.55,-0.85,
3.458,-1.67,2.69,5.33,-0.35,0.32,-0.83,
3.458,-1.67,2.69,5.33,-0.18,0.07,-0.81,
3.458,-1.67,2.69,5.33,-0.01,-0.18,-0.79,
3.459,-1.67,2.69,5.33,0.16,-0.42,-0.77,
3.459,-1.42,0.07,14.04,0.16,-0.42,-0.77,
3.459,-1.42,0.07,14.04,0.32,-0.63,-0.76,
3.46,-1.42,0.07,14.04,0.44,-0.80,-0.76,
3.46,-1.42,0.07,14.04,0.53,-0.92,-0.76,
3.46,-1.42,0.07,14.04,0.58,-0.98,-0.77,
3.461,-1.42,0.07,14.04,0.56,-0.96,-0.78,
3.461,-1.33,-4.67,15.42,0.56,-0.96,-0.78,
3.461,-1.33,-4.67,15.42,0.48,-0.86,-0.77,
3.494,-1.33,-4.67,15.42,0.34,-0.70,-0.76,
3.495,-1.33,-4.67,15.42,0.13,-0.49,-0.73,
3.496,-1.33,-4.67,15.42,-0.12,-0.27,-0.68,
3.498,-1.33,-4.67,15.42,-0.41,-0.06,-0.61,
3.499,-2.64,-9.07,5.55,-0.41,-0.06,-0.61,
3.5,-2.64,-9.07,5.55,-0.73,0.11,-0.52,
3.5,-2.64,-9.07,5.55,-1.06,0.24,-0.41,
3.501,-2.64,-9.07,5.55,-1.38,0.31,-0.30,
3.501,-2.64,-9.07,5.55,-1.69,0.32,-0.18,
3.502,-2.64,-9.07,5.55,-1.96,0.26,-0.07,
3.502,-2.71,-9.39,-5.68,-1.96,0.26,-0.07,
3.503,-2.71,-9.39,-5.68,-2.19,0.15,0.02,
3.503,-2.71,-9.39,-5.68,-2.37,0.01,0.11,
3.503,-2.71,-9.39,-5.68,-2.49,-0.17,0.17,
3.504,-2.71,-9.39,-5.68,-2.56,-0.38,0.22,
3.504,-2.71,-9.39,-5.68,-2.58,-0.60,0.25,
3.505,0.36,-6.60,-7.85,-2.58,-0.60,0.25,
3.505,0.36,-6.60,-7.85,-2.55,-0.84,0.27,
3.506,0.36,-6.60,-7.85,-2.50,-1.08,0.28,
3.506,0.36,-6.60,-7.85,-2.42,-1.32,0.29,
3.506,0.36,-6.60,-7.85,-2.33,-1.54,0.28,
3.507,0.36,-6.60,-7.85,-2.23,-1.74,0.28,
3.507,1.96,-3.38,-6.80,-2.23,-1.74,0.28,
3.508,1.96,-3.38,-6.80,-2.13,-1.90,0.26,
3.508,1.96,-3.38,-6.80,-2.03,-2.00,0.24,
3.509,1.96,-3.38,-6.80,-1.94,-2.05,0.21,
3.509,1.96,-3.38,-6.80,-1.87,-2.02,0.17,
3.509,1.96,-3.38,-6.80,-1.81,-1.94,0.13,
3.51,1.64,-1.33,-5.97,-1.81,-1.94,0.13,
3.51,1.64,-1.33,-5.97,-1.77,-1.78,0.08,
3.511,1.64,-1.33,-5.97,-1.75,-1.57,0.03,
3.511,1.64,-1.33,-5.97,-1.75,-1.29,-0.03,
3.512,1.64,-1.33,-5.97,-1.78,-0.97,-0.10,
3.512,1.64,-1.33,-5.97,-1.82,-0.63,-0.17,
3.529,0.63,0.42,-4.37,-1.82,-0.63,-0.17,
3.53,0.63,0.42,-4.37,-1.87,-0.29,-0.24,
3.53,0.63,0.42,-4.37,-1.92,0.03,-0.31,
3.53,0.63,0.42,-4.37,-1.98,0.32,-0.38,
3.53,0.63,0.42,-4.37,-2.04,0.55,-0.45,
3.531,0.63,0.42,-4.37,-2.08,0.71,-0.52,
3.531,0.03,1.35,-2.10,-2.08,0.71,-0.52,
3.531,0.03,1.35,-2.10,-2.12,0.80,-0.58,
3.531,0.03,1.35,-2.10,-2.16,0.82,-0.65,
3.532,0.03,1.35,-2.10,-2.19,0.79,-0.71,
3.532,0.03,1.35,-2.10,-2.22,0.72,-0.78,
3.535,0.03,1.35,-2.10,-2.24,0.62,-0.84,
3.536,0.45,1.13,-1.24,-2.24,0.62,-0.84,
3.536,0.45,1.13,-1.24,-2.26,0.50,-0.90,
3.536,0.45,1.13,-1.24,-2.28,0.36,-0.95,
3.541,0.45,1.13,-1.24,-2.28,0.22,-0.98,
3.541,0.45,1.13,-1.24,-2.28,0.07,-0.99,
3.545,0.45,1.13,-1.24,-2.27,-0.06,-0.99,
3.545,0.32,0.23,-2.67,-2.27,-0.06,-0.99,
3.545,0.32,0.23,-2.67,-2.24,-0.19,-0.97,
3.55,0.32,0.23,-2.67,-2.20,-0.30,-0.93,
3.551,0.32,0.23,-2.67,-2.15,-0.40,-0.88,
3.551,0.32,0.23,-2.67,-2.08,-0.48,-0.82,
3.554,0.32,0.23,-2.67,-2.01,-0.55,-0.74,
3.555,-1.50,-0.03,-1.93,-2.01,-0.55,-0.74,
3.555,-1.50,-0.03,-1.93,-1.93,-0.59,-0.67,
3.556,-1.50,-0.03,-1.93,-1.85,-0.62,-0.58,
3.56,-1.50,-0.03,-1.93,-1.77,-0.64,-0.50,
3.561,-1.50,-0.03,-1.93,-1.70,-0.64,-0.42,
3.572,-1.50,-0.03,-1.93,-1.64,-0.64,-0.34,
3.573,-2.75,-0.26,-0.46,-1.64,-0.64,-0.34,
3.573,-2.75,-0.26,-0.46,-1.58,-0.63,-0.26,
3.573,-2.75,-0.26,-0.46,-1.54,-0.61,-0.18,
3.573,-2.75,-0.26,-0.46,-1.52,-0.61,-0.11,
3.574,-2.75,-0.26,-0.46,-1.49,-0.60,-0.04,
3.574,-2.75,-0.26,-0.46,-1.48,-0.61,0.02,
3.575,-2.53,-0.67,0.12,-1.48,-0.61,0.02,
3.575,-2.53,-0.67,0.12,-1.48,-0.62,0.08,
3.613,-2.53,-0.67,0.12,-1.48,-0.64,0.13,
3.613,-2.53,-0.67,0.12,-1.49,-0.67,0.18,
3.613,-2.53,-0.67,0.12,-1.51,-0.71,0.22,
3.614,-2.53,-0.67,0.12,-1.54,-0.76,0.26,
3.614,-1.74,-1.07,0.11,-1.54,-0.76,0.26,
3.614,-1.74,-1.07,0.11,-1.56,-0.82,0.29,
3.614,-1.74,-1.07,0.11,-1.59,-0.89,0.33,
3.615,-1.74,-1.07,0.11,-1.63,-0.95,0.35,
3.615,-1.74,-1.07,0.11,-1.66,-1.03,0.37,
3.616,-1.74,-1.07,0.11,-1.70,-1.09,0.39,
3.617,-1.02,-1.32,-0.08,-1.70,-1.09,0.39,
3.618,-1.02,-1.32,-0.08,-1.74,-1.16,0.41,
3.619,-1.02,-1.32,-0.08,-1.78,-1.22,0.42,
3.619,-1.02,-1.32,-0.08,-1.81,-1.26,0.42,
3.62,-1.02,-1.32,-0.08,-1.85,-1.30,0.42,
3.621,-1.02,-1.32,-0.08,-1.88,-1.33,0.41,
3.621,-0.30,-1.52,-0.21,-1.88,-1.33,0.41,
3.623,-0.30,-1.52,-0.21,-1.92,-1.35,0.40,
3.623,-0.30,-1.52,-0.21,-1.95,-1.35,0.38,
3.625,-0.30,-1.52,-0.21,-1.98,-1.34,0.35,
3.626,-0.30,-1.52,-0.21,-2.00,-1.32,0.32,
3.626,-0.30,-1.52,-0.21,-2.01,-1.29,0.29,
3.628,0.67,-1.54,-0.16,-2.01,-1.29,0.29,
3.629,0.67,-1.54,-0.16,-2.03,-1.26,0.24,
3.63,0.67,-1.54,-0.16,-2.04,-1.23,0.20,
3.63,0.67,-1.54,-0.16,-2.05,-1.21,0.15,
3.631,0.67,-1.54,-0.16,-2.06,-1.19,0.09,
3.631,0.67,-1.54,-0.16,-2.06,-1.18,0.04,
3.655,1.66,-1.32,-0.19,-2.06,-1.18,0.04,
3.655,1.66,-1.32,-0.19,-2.06,-1.18,-0.01,
3.655,1.66,-1.32,-0.19,-2.05,-1.18,-0.06,
3.655,1.66,-1.32,-0.19,-2.05,-1.19,-0.11,
3.655,1.66,-1.32,-0.19,-2.04,-1.21,-0.15,
3.655,1.66,-1.32,-0.19,-2.02,-1.22,-0.19,
3.656,1.94,-0.67,-0.01,-2.02,-1.22,-0.19,
3.656,1.94,-0.67,-0.01,-2.03,-1.24,-0.22,
3.656,1.94,-0.67,-0.01,-2.02,-1.25,-0.25,
3.656,1.94,-0.67,-0.01,-2.02,-1.26,-0.27,
3.656,1.94,-0.67,-0.01,-2.02,-1.26,-0.29,
3.657,1.94,-0.67,-0.01,-2.02,-1.26,-0.30,
3.657,1.84,0.07,-0.49,-2.02,-1.26,-0.30,
3.657,1.84,0.07,-0.49,-2.02,-1.26,-0.31,
3.657,1.84,0.07,-0.49,-2.02,-1.25,-0.31,
3.657,1.84,0.07,-0.49,-2.01,-1.23,-0.31,
3.657,1.84,0.07,-0.49,-2.01,-1.21,-0.30,
3.658,1.84,0.07,-0.49,-2.01,-1.17,-0.29,
3.658,1.29,0.59,-0.55,-2.01,-1.17,-0.29,
3.658,1.29,0.59,-0.55,-2.00,-1.13,-0.28,
3.658,1.29,0.59,-0.55,-1.99,-1.08,-0.26,
3.658,1.29,0.59,-0.55,-1.98,-1.03,-0.24,
3.667,1.29,0.59,-0.55,-1.97,-0.97,-0.22,
3.668,1.29,0.59,-0.55,-1.96,-0.91,-0.20,
3.668,0.91,0.79,-0.14,-1.96,-0.91,-0.20,
3.668,0.91,0.79,-0.14,-1.94,-0.85,-0.18,
3.668,0.91,0.79,-0.14,-1.92,-0.78,-0.15,
3.668,0.91,0.79,-0.14,-1.90,-0.72,-0.13,
3.673,0.91,0.79,-0.14,-1.88,-0.65,-0.10,
3.673,0.91,0.79,-0.14,-1.86,-0.58,-0.07,
3.677,0.60,0.73,0.33,-1.86,-0.58,-0.07,
3.677,0.60,0.73,0.33,-1.83,-0.51,-0.05,
3.677,0.60,0.73,0.33,-1.81,-0.44,-0.02,
3.682,0.60,0.73,0.33,-1.78,-0.38,0.01,
3.683,0.60,0.73,0.33,-1.76,-0.32,0.04,
3.683,0.60,0.73,0.33,-1.74,-0.25,0.07,
3.686,0.34,0.61,0.38,-1.74,-0.25,0.07,
3.687,0.34,0.61,0.38,-1.71,-0.19,0.10,
3.687,0.34,0.61,0.38,-1.70,-0.13,0.12,
3.691,0.34,0.61,0.38,-1.66,-0.08,0.15,
3.691,0.34,0.61,0.38,-1.64,-0.03,0.18,
3.7,0.34,0.61,0.38,-1.64,0.03,0.21,
3.7,0.15,0.54,0.07,-1.64,0.03,0.21,
3.701,0.15,0.54,0.07,-1.62,0.07,0.24,
3.701,0.15,0.54,0.07,-1.61,0.12,0.27,
3.701,0.15,0.54,0.07,-1.59,0.17,0.29,
3.701,0.15,0.54,0.07,-1.58,0.21,0.32,
3.702,0.15,0.54,0.07,-1.57,0.25,0.36,
3.708,-0.09,0.51,-0.12,-1.57,0.25,0.36,
3.708,-0.09,0.51,-0.12,-1.55,0.27,0.39,
3.709,-0.09,0.51,-0.12,-1.54,0.29,0.42,
3.742,-0.09,0.51,-0.12,-1.53,0.32,0.46,
3.743,-0.09,0.51,-0.12,-1.52,0.33,0.49,
3.743,-0.09,0.51,-0.12,-1.51,0.34,0.53,
3.743,-0.35,0.49,-0.11,-1.51,0.34,0.53,
3.743,-0.35,0.49,-0.11,-1.50,0.35,0.56,
3.743,-0.35,0.49,-0.11,-1.49,0.35,0.60,
3.743,-0.35,0.49,-0.11,-1.48,0.34,0.63,
3.744,-0.35,0.49,-0.11,-1.47,0.34,0.66,
3.744,-0.35,0.49,-0.11,-1.46,0.33,0.70,
3.744,-0.43,0.41,-0.03,-1.46,0.33,0.70,
3.744,-0.43,0.41,-0.03,-1.46,0.32,0.73,
3.744,-0.43,0.41,-0.03,-1.45,0.30,0.76,
3.745,-0.43,0.41,-0.03,-1.44,0.29,0.78,
3.745,-0.43,0.41,-0.03,-1.44,0.27,0.81,
3.745,-0.43,0.41,-0.03,-1.44,0.25,0.84,
3.745,-0.37,0.29,-0.18,-1.44,0.25,0.84,
3.745,-0.37,0.29,-0.18,-1.44,0.24,0.86,
3.745,-0.37,0.29,-0.18,-1.44,0.22,0.88,
3.746,-0.37,0.29,-0.18,-1.44,0.21,0.90,
3.746,-0.37,0.29,-0.18,-1.44,0.20,0.92,
3.746,-0.37,0.29,-0.18,-1.43,0.20,0.94,
3.746,-0.38,0.13,-0.35,-1.43,0.20,0.94,
3.746,-0.38,0.13,-0.35,-1.43,0.20,0.95,
3.747,-0.38,0.13,-0.35,-1.43,0.20,0.97,
3.749,-0.38,0.13,-0.35,-1.42,0.20,0.98,
3.75,-0.38,0.13,-0.35,-1.43,0.21,1.00,
3.754,-0.38,0.13,-0.35,-1.42,0.22,1.01,
3.755,-0.55,0.15,-0.33,-1.42,0.22,1.01,
3.755,-0.55,0.15,-0.33,-1.41,0.23,1.02,
3.757,-0.55,0.15,-0.33,-1.40,0.25,1.03,
3.759,-0.55,0.15,-0.33,-1.39,0.27,1.04,
3.76,-0.55,0.15,-0.33,-1.38,0.30,1.04,
3.762,-0.55,0.15,-0.33,-1.36,0.34,1.03,
3.764,-0.49,0.18,-0.25,-1.36,0.34,1.03,
3.765,-0.49,0.18,-0.25,-1.34,0.38,1.02,
3.766,-0.49,0.18,-0.25,-1.32,0.42,1.02,
3.768,-0.49,0.18,-0.25,-1.29,0.46,1.01,
3.772,-0.49,0.18,-0.25,-1.26,0.50,1.00,
3.772,-0.49,0.18,-0.25,-1.23,0.55,0.98,
3.776,-0.37,0.06,0.07,-1.23,0.55,0.98,
3.776,-0.37,0.06,0.07,-1.19,0.60,0.96,
3.776,-0.37,0.06,0.07,-1.15,0.65,0.95,
3.778,-0.37,0.06,0.07,-1.11,0.71,0.93,
3.78,-0.37,0.06,0.07,-1.07,0.76,0.91,
3.782,-0.37,0.06,0.07,-1.03,0.82,0.89,
3.785,-0.38,-0.27,0.41,-1.03,0.82,0.89,
3.785,-0.38,-0.27,0.41,-0.99,0.88,0.87,
3.789,-0.38,-0.27,0.41,-0.95,0.93,0.85,
3.789,-0.38,-0.27,0.41,-0.92,0.99,0.83,
3.801,-0.38,-0.27,0.41,-0.88,1.05,0.81,
3.801,-0.38,-0.27,0.41,-0.84,1.11,0.79,
3.802,-0.49,-0.90,0.51,-0.84,1.11,0.79,
3.802,-0.49,-0.90,0.51,-0.81,1.17,0.76,
3.802,-0.49,-0.90,0.51,-0.78,1.23,0.74,
3.802,-0.49,-0.90,0.51,-0.75,1.28,0.71,
3.802,-0.49,-0.90,0.51,-0.73,1.32,0.69,
3.803,-0.49,-0.90,0.51,-0.70,1.35,0.66,
3.812,-0.37,-1.70,0.92,-0.70,1.35,0.66,
3.812,-0.37,-1.70,0.92,-0.68,1.37,0.63,
3.812,-0.37,-1.70,0.92,-0.66,1.39,0.60,
3.813,-0.37,-1.70,0.92,-0.66,1.39,0.56,
3.813,-0.37,-1.70,0.92,-0.65,1.39,0.52,
3.813,-0.37,-1.70,0.92,-0.65,1.40,0.47,
3.814,0.32,-2.21,1.44,-0.65,1.40,0.47,
3.814,0.32,-2.21,1.44,-0.64,1.39,0.42,
3.816,0.32,-2.21,1.44,-0.64,1.40,0.36,
3.818,0.32,-2.21,1.44,-0.62,1.42,0.29,
3.82,0.32,-2.21,1.44,-0.59,1.44,0.22,
3.822,0.32,-2.21,1.44,-0.53,1.45,0.15,
3.835,1.43,-1.60,3.07,-0.53,1.45,0.15,
3.835,1.43,-1.60,3.07,-0.53,1.45,0.08,
3.836,1.43,-1.60,3.07,-0.49,1.44,0.02,
3.836,1.43,-1.60,3.07,-0.46,1.40,-0.04,
3.836,1.43,-1.60,3.07,-0.46,1.35,-0.09,
3.836,1.43,-1.60,3.07,-0.45,1.29,-0.13,
3.836,1.33,-0.94,3.53,-0.45,1.29,-0.13,
3.836,1.33,-0.94,3.53,-0.44,1.20,-0.16,
3.837,1.33,-0.94,3.53,-0.45,1.10,-0.19,
3.838,1.33,-0.94,3.53,-0.44,1.01,-0.21,
3.84,1.33,-0.94,3.53,-0.44,0.92,-0.23,
3.843,1.33,-0.94,3.53,-0.45,0.85,-0.25,
3.845,1.10,-0.17,3.61,-0.45,0.85,-0.25,
3.846,1.10,-0.17,3.61,-0.45,0.79,-0.26,
3.846,1.10,-0.17,3.61,-0.45,0.75,-0.27,
3.85,1.10,-0.17,3.61,-0.45,0.73,-0.27,
3.85,1.10,-0.17,3.61,-0.44,0.72,-0.27,
3.854,1.10,-0.17,3.61,-0.44,0.73,-0.26,
3.856,1.26,0.68,3.59,-0.44,0.73,-0.26,
3.857,1.26,0.68,3.59,-0.44,0.76,-0.25,
3.857,1.26,0.68,3.59,-0.44,0.79,-0.24,
3.858,1.26,0.68,3.59,-0.45,0.83,-0.22,
3.86,1.26,0.68,3.59,-0.46,0.86,-0.20,
3.862,1.26,0.68,3.59,-0.48,0.86,-0.19,
3.865,1.55,1.29,2.61,-0.48,0.86,-0.19,
3.865,1.55,1.29,2.61,-0.53,0.82,-0.18,
3.866,1.55,1.29,2.61,-0.58,0.73,-0.18,
3.868,1.55,1.29,2.61,-0.66,0.60,-0.20,
3.872,1.55,1.29,2.61,-0.75,0.43,-0.21,
3.872,1.55,1.29,2.61,-0.85,0.24,-0.24,
3.875,3.15,1.45,0.19,-0.85,0.24,-0.24,
3.875,3.15,1.45,0.19,-0.96,0.01,-0.27,
3.876,3.15,1.45,0.19,-1.07,-0.22,-0.30,
3.878,3.15,1.45,0.19,-1.18,-0.46,-0.32,
3.88,3.15,1.45,0.19,-1.28,-0.70,-0.33,
3.882,3.15,1.45,0.19,-1.37,-0.93,-0.34,
3.884,3.37,1.96,0.09,-1.37,-0.93,-0.34,
3.884,3.37,1.96,0.09,-1.44,-1.15,-0.34,
3.886,3.37,1.96,0.09,-1.50,-1.34,-0.35,
3.888,3.37,1.96,0.09,-1.53,-1.49,-0.36,
3.892,3.37,1.96,0.09,-1.55,-1.61,-0.37,
3.892,3.37,1.96,0.09,-1.54,-1.70,-0.38,
3.895,2.97,2.29,2.55,-1.54,-1.70,-0.38,
3.895,2.97,2.29,2.55,-1.52,-1.77,-0.40,
3.898,2.97,2.29,2.55,-1.49,-1.83,-0.41,
3.898,2.97,2.29,2.55,-1.45,-1.86,-0.42,
3.902,2.97,2.29,2.55,-1.41,-1.88,-0.42,
3.902,2.97,2.29,2.55,-1.35,-1.88,-0.43,
3.906,2.61,2.23,4.32,-1.35,-1.88,-0.43,
3.906,2.61,2.23,4.32,-1.30,-1.85,-0.42,
3.906,2.61,2.23,4.32,-1.25,-1.81,-0.42,
3.909,2.61,2.23,4.32,-1.20,-1.75,-0.40,
3.912,2.61,2.23,4.32,-1.16,-1.68,-0.39,
3.912,2.61,2.23,4.32,-1.11,-1.60,-0.37,
3.916,1.52,1.92,3.97,-1.11,-1.60,-0.37,
3.916,1.52,1.92,3.97,-1.07,-1.51,-0.34,
3.916,1.52,1.92,3.97,-1.03,-1.41,-0.31,
3.92,1.52,1.92,3.97,-0.99,-1.31,-0.28,
3.92,1.52,1.92,3.97,-0.96,-1.20,-0.24,
3.923,1.52,1.92,3.97,-0.92,-1.10,-0.21,
3.927,1.05,1.65,3.16,-0.92,-1.10,-0.21,
3.927,1.05,1.65,3.16,-0.89,-1.00,-0.18,
3.928,1.05,1.65,3.16,-0.87,-0.90,-0.14,
3.928,1.05,1.65,3.16,-0.84,-0.80,-0.10,
3.932,1.05,1.65,3.16,-0.82,-0.72,-0.07,
3.932,1.05,1.65,3.16,-0.80,-0.63,-0.03,
3.936,0.81,1.49,1.99,-0.80,-0.63,-0.03,
3.936,0.81,1.49,1.99,-0.79,-0.54,0.01,
3.936,0.81,1.49,1.99,-0.77,-0.46,0.05,
3.94,0.81,1.49,1.99,-0.76,-0.38,0.09,
3.94,0.81,1.49,1.99,-0.75,-0.31,0.12,
3.964,0.81,1.49,1.99,-0.74,-0.25,0.15,
3.964,0.99,1.38,1.24,-0.74,-0.25,0.15,
3.964,0.99,1.38,1.24,-0.73,-0.18,0.18,
3.965,0.99,1.38,1.24,-0.72,-0.13,0.21,
3.965,0.99,1.38,1.24,-0.72,-0.08,0.24,
3.965,0.99,1.38,1.24,-0.71,-0.04,0.26,
3.965,0.99,1.38,1.24,-0.70,-0.01,0.29,
3.965,1.20,1.24,0.63,-0.70,-0.01,0.29,
3.965,1.20,1.24,0.63,-0.68,0.01,0.31,
3.979,1.20,1.24,0.63,-0.67,0.03,0.34,
3.979,1.20,1.24,0.63,-0.65,0.04,0.36,
3.979,1.20,1.24,0.63,-0.63,0.05,0.39,
3.98,1.20,1.24,0.63,-0.60,0.05,0.41,
3.98,1.10,1.27,0.94,-0.60,0.05,0.41,
3.98,1.10,1.27,0.94,-0.59,0.05,0.43,
3.98,1.10,1.27,0.94,-0.56,0.05,0.45,
3.98,1.10,1.27,0.94,-0.55,0.05,0.47,
3.98,1.10,1.27,0.94,-0.54,0.05,0.48,
3.981,1.10,1.27,0.94,-0.54,0.05,0.49,
3.981,1.01,1.31,0.63,-0.54,0.05,0.49,
3.981,1.01,1.31,0.63,-0.55,0.06,0.50,
3.981,1.01,1.31,0.63,-0.57,0.06,0.51,
3.981,1.01,1.31,0.63,-0.60,0.06,0.50,
3.981,1.01,1.31,0.63,-0.64,0.07,0.50,
3.986,1.01,1.31,0.63,-0.68,0.08,0.50,
3.986,1.21,1.22,-0.30,-0.68,0.08,0.50,
3.986,1.21,1.22,-0.30,-0.73,0.10,0.50,
3.986,1.21,1.22,-0.30,-0.79,0.12,0.49,
3.99,1.21,1.22,-0.30,-0.85,0.15,0.48,
3.99,1.21,1.22,-0.30,-0.91,0.18,0.48,
3.995,1.21,1.22,-0.30,-0.98,0.22,0.48,
3.995,0.77,1.01,-0.85,-0.98,0.22,0.48,
3.995,0.77,1.01,-0.85,-1.04,0.26,0.48,
3.998,0.77,1.01,-0.85,-1.11,0.29,0.48,
3.998,0.77,1.01,-0.85,-1.18,0.32,0.48,
4.002,0.77,1.01,-0.85,-1.25,0.35,0.48,
4.002,0.77,1.01,-0.85,-1.32,0.37,0.48,
4.004,0.17,0.26,-1.12,-1.32,0.37,0.48,
4.004,0.17,0.26,-1.12,-1.39,0.37,0.49,
4.008,0.17,0.26,-1.12,-1.47,0.37,0.49,
4.011,0.17,0.26,-1.12,-1.54,0.35,0.50,
4.016,0.17,0.26,-1.12,-1.63,0.32,0.50,
4.016,0.17,0.26,-1.12,-1.71,0.27,0.50,
4.017,0.08,-1.32,-2.40,-1.71,0.27,0.50,
4.017,0.08,-1.32,-2.40,-1.80,0.22,0.50,
4.017,0.08,-1.32,-2.40,-1.89,0.15,0.50,
4.019,0.08,-1.32,-2.40,-1.98,0.09,0.49,
4.02,0.08,-1.32,-2.40,-2.06,0.03,0.48,
4.024,0.08,-1.32,-2.40,-2.14,-0.02,0.48,
4.024,0.78,-3.53,-4.05,-2.14,-0.02,0.48,
4.025,0.78,-3.53,-4.05,-2.22,-0.06,0.47,
4.027,0.78,-3.53,-4.05,-2.30,-0.09,0.46,
4.03,0.78,-3.53,-4.05,-2.37,-0.11,0.45,
4.03,0.78,-3.53,-4.05,-2.45,-0.11,0.44,
4.036,0.78,-3.53,-4.05,-2.52,-0.12,0.44,
4.036,0.98,-5.69,-4.95,-2.52,-0.12,0.44,
4.037,0.98,-5.69,-4.95,-2.59,-0.11,0.43,
4.037,0.98,-5.69,-4.95,-2.67,-0.11,0.44,
4.039,0.98,-5.69,-4.95,-2.75,-0.11,0.45,
4.04,0.98,-5.69,-4.95,-2.83,-0.11,0.46,
4.042,0.98,-5.69,-4.95,-2.91,-0.12,0.47,
4.044,0.54,-7.53,-6.47,-2.91,-0.12,0.47,
4.045,0.54,-7.53,-6.47,-2.99,-0.12,0.50,
4.046,0.54,-7.53,-6.47,-3.07,-0.13,0.52,
4.048,0.54,-7.53,-6.47,-3.14,-0.14,0.55,
4.05,0.54,-7.53,-6.47,-3.22,-0.14,0.59,
4.052,0.54,-7.53,-6.47,-3.29,-0.14,0.63,
4.054,-0.33,-9.26,-7.65,-3.29,-0.14,0.63,
4.055,-0.33,-9.26,-7.65,-3.36,-0.13,0.67,
4.056,-0.33,-9.26,-7.65,-3.42,-0.12,0.71,
4.085,-0.33,-9.26,-7.65,-3.48,-0.08,0.76,
4.086,-0.33,-9.26,-7.65,-3.53,-0.03,0.81,
4.086,-0.33,-9.26,-7.65,-3.56,0.05,0.86,
4.086,-1.40,-11.00,-7.46,-3.56,0.05,0.86,
4.087,-1.40,-11.00,-7.46,-3.58,0.15,0.91,
4.087,-1.40,-11.00,-7.46,-3.59,0.29,0.97,
4.088,-1.40,-11.00,-7.46,-3.58,0.47,1.03,
4.088,-1.40,-11.00,-7.46,-3.55,0.69,1.09,
4.088,-1.40,-11.00,-7.46,-3.50,0.96,1.14,
4.089,-3.47,-12.47,-3.91,-3.50,0.96,1.14,
4.089,-3.47,-12.47,-3.91,-3.43,1.27,1.21,
4.089,-3.47,-12.47,-3.91,-3.32,1.63,1.27,
4.089,-3.47,-12.47,-3.91,-3.21,2.02,1.32,
4.09,-3.47,-12.47,-3.91,-3.07,2.42,1.36,
4.09,-3.47,-12.47,-3.91,-2.92,2.84,1.39,
4.09,-5.06,-13.49,2.62,-2.92,2.84,1.39,
4.09,-5.06,-13.49,2.62,-2.76,3.24,1.41,
4.091,-5.06,-13.49,2.62,-2.60,3.62,1.41,
4.091,-5.06,-13.49,2.62,-2.43,3.96,1.39,
4.091,-5.06,-13.49,2.62,-2.27,4.26,1.35,
4.108,-5.06,-13.49,2.62,-2.12,4.50,1.30,
4.109,-3.09,-13.75,7.30,-2.12,4.50,1.30,
4.109,-3.09,-13.75,7.30,-1.98,4.68,1.24,
4.11,-3.09,-13.75,7.30,-1.84,4.80,1.17,
4.11,-3.09,-13.75,7.30,-1.49,4.80,0.95,
4.11,-3.09,-13.75,7.30,-1.49,4.80,0.95,
4.11,-3.09,-13.75,7.30,-1.49,4.80,0.95,
4.11,-3.09,-13.75,7.30,-1.39,4.68,0.88,
4.111,-0.29,-12.66,9.88,-1.39,4.68,0.88,
4.111,-0.29,-12.66,9.88,-1.31,4.50,0.83,
4.111,-0.29,-12.66,9.88,-1.24,4.27,0.79,
4.111,-0.29,-12.66,9.88,-1.20,3.99,0.76,
4.112,-0.29,-12.66,9.88,-1.17,3.68,0.74,
4.115,0.26,-10.16,10.08,-1.17,3.68,0.74,
4.115,0.26,-10.16,10.08,-1.15,3.33,0.73,
4.118,0.26,-10.16,10.08,-1.14,2.97,0.74,
4.118,0.26,-10.16,10.08,-1.14,2.61,0.75,
4.12,0.26,-10.16,10.08,-1.13,2.25,0.78,
4.122,0.26,-10.16,10.08,-1.13,1.90,0.81,
4.14,-0.54,-7.19,10.04,-1.13,1.90,0.81,
4.141,-0.54,-7.19,10.04,-1.12,1.57,0.85,
4.141,-0.54,-7.19,10.04,-1.11,1.25,0.89,
4.141,-0.54,-7.19,10.04,-1.09,0.96,0.94,
4.142,-0.54,-7.19,10.04,-1.07,0.68,0.98,
4.142,-0.54,-7.19,10.04,-1.04,0.42,1.01,
4.142,-0.93,-4.79,10.27,-1.04,0.42,1.01,
4.143,-0.93,-4.79,10.27,-1.01,0.19,1.05,
4.143,-0.93,-4.79,10.27,-0.97,-0.02,1.07,
4.143,-0.93,-4.79,10.27,-0.92,-0.21,1.09,
4.144,-0.93,-4.79,10.27,-0.87,-0.37,1.10,
4.144,-0.93,-4.79,10.27,-0.81,-0.52,1.09,
4.149,0.02,-3.29,10.15,-0.81,-0.52,1.09,
4.15,0.02,-3.29,10.15,-0.74,-0.65,1.08,
4.15,0.02,-3.29,10.15,-0.67,-0.76,1.06,
4.15,0.02,-3.29,10.15,-0.59,-0.85,1.03,
4.15,0.02,-3.29,10.15,-0.51,-0.92,0.99,
4.152,0.02,-3.29,10.15,-0.42,-0.98,0.94,
4.154,1.60,-2.14,9.61,-0.42,-0.98,0.94,
4.155,1.60,-2.14,9.61,-0.32,-1.03,0.89,
4.156,1.60,-2.14,9.61,-0.22,-1.05,0.83,
4.169,1.60,-2.14,9.61,-0.12,-1.06,0.77,
4.169,1.60,-2.14,9.61,-0.01,-1.05,0.70,
4.17,1.60,-2.14,9.61,0.11,-1.02,0.64,
4.17,2.93,-1.62,10.33,0.11,-1.02,0.64,
4.17,2.93,-1.62,10.33,0.23,-0.97,0.58,
4.17,2.93,-1.62,10.33,0.37,-0.88,0.52,
4.171,2.93,-1.62,10.33,0.51,-0.77,0.45,
4.171,2.93,-1.62,10.33,0.67,-0.63,0.39,
4.173,2.93,-1.62,10.33,0.83,-0.45,0.32,
4.176,4.04,-1.37,12.44,0.83,-0.45,0.32,
4.176,4.04,-1.37,12.44,1.00,-0.24,0.26,
4.177,4.04,-1.37,12.44,1.17,-0.00,0.20,
4.179,4.04,-1.37,12.44,1.35,0.27,0.13,
4.18,4.04,-1.37,12.44,1.53,0.56,0.07,
4.182,4.04,-1.37,12.44,1.72,0.87,0.01,
4.185,5.15,-1.66,15.60,1.72,0.87,0.01,
4.185,5.15,-1.66,15.60,1.91,1.18,-0.04,
4.186,5.15,-1.66,15.60,2.10,1.50,-0.08,
4.188,5.15,-1.66,15.60,2.29,1.81,-0.12,
4.199,5.15,-1.66,15.60,2.49,2.11,-0.16,
4.199,5.15,-1.66,15.60,2.70,2.38,-0.19,
4.199,4.97,-2.23,18.00,2.70,2.38,-0.19,
4.2,4.97,-2.23,18.00,2.92,2.62,-0.23,
4.2,4.97,-2.23,18.00,3.17,2.82,-0.26,
4.2,4.97,-2.23,18.00,3.43,2.98,-0.30,
4.2,4.97,-2.23,18.00,3.70,3.08,-0.34,
4.202,4.97,-2.23,18.00,3.97,3.12,-0.38,
4.205,5.35,-3.13,20.50,3.97,3.12,-0.38,
4.205,5.35,-3.13,20.50,4.24,3.10,-0.43,
4.237,5.35,-3.13,20.50,4.49,3.00,-0.47,
4.238,5.35,-3.13,20.50,4.72,2.84,-0.52,
4.238,5.35,-3.13,20.50,4.92,2.62,-0.57,
4.238,5.35,-3.13,20.50,5.08,2.34,-0.61,
4.238,6.36,-4.06,16.85,5.08,2.34,-0.61,
4.238,6.36,-4.06,16.85,5.19,2.01,-0.66,
4.238,6.36,-4.06,16.85,5.27,1.62,-0.70,
4.238,6.36,-4.06,16.85,5.30,1.20,-0.73,
4.239,6.36,-4.06,16.85,5.29,0.74,-0.76,
4.239,6.36,-4.06,16.85,5.23,0.24,-0.79,
4.239,6.71,-4.44,7.94,5.23,0.24,-0.79,
4.239,6.71,-4.44,7.94,5.13,-0.29,-0.81,
4.239,6.71,-4.44,7.94,5.00,-0.84,-0.82,
4.239,6.71,-4.44,7.94,4.83,-1.41,-0.82,
4.24,6.71,-4.44,7.94,4.63,-1.98,-0.81,
4.24,6.71,-4.44,7.94,4.41,-2.54,-0.80,
4.24,4.73,-4.04,-1.93,4.41,-2.54,-0.80,
4.24,4.73,-4.04,-1.93,4.18,-3.07,-0.78,
4.24,4.73,-4.04,-1.93,3.94,-3.55,-0.75,
4.24,4.73,-4.04,-1.93,3.70,-3.99,-0.72,
4.24,4.73,-4.04,-1.93,3.48,-4.37,-0.68,
4.246,4.73,-4.04,-1.93,3.25,-4.70,-0.64,
4.247,2.14,-3.65,-8.75,3.25,-4.70,-0.64,
4.247,2.14,-3.65,-8.75,3.04,-4.96,-0.61,
4.247,2.14,-3.65,-8.75,2.85,-5.16,-0.57,
4.248,2.14,-3.65,-8.75,2.65,-5.29,-0.54,
4.251,2.14,-3.65,-8.75,2.48,-5.36,-0.54,
4.252,2.14,-3.65,-8.75,2.32,-5.38,-0.54,
4.254,1.20,-3.34,-11.42,2.32,-5.38,-0.54,
4.255,1.20,-3.34,-11.42,2.18,-5.36,-0.54,
4.257,1.20,-3.34,-11.42,2.06,-5.29,-0.53,
4.26,1.20,-3.34,-11.42,1.94,-5.16,-0.52,
4.261,1.20,-3.34,-11.42,1.83,-5.00,-0.51,
4.262,1.20,-3.34,-11.42,1.74,-4.80,-0.50,
4.264,-0.07,-2.59,-11.47,1.74,-4.80,-0.50,
4.264,-0.07,-2.59,-11.47,1.66,-4.56,-0.48,
4.266,-0.07,-2.59,-11.47,1.60,-4.31,-0.48,
4.268,-0.07,-2.59,-11.47,1.55,-4.03,-0.47,
4.272,-0.07,-2.59,-11.47,1.51,-3.74,-0.47,
4.272,-0.07,-2.59,-11.47,1.49,-3.43,-0.47,
4.275,-0.50,-2.33,-9.30,1.49,-3.43,-0.47,
4.276,-0.50,-2.33,-9.30,1.49,-3.10,-0.48,
4.276,-0.50,-2.33,-9.30,1.49,-2.76,-0.49,
4.28,-0.50,-2.33,-9.30,1.51,-2.41,-0.50,
4.28,-0.50,-2.33,-9.30,1.54,-2.06,-0.52,
4.284,-0.50,-2.33,-9.30,1.57,-1.71,-0.54,
4.284,-0.41,-2.52,-7.42,1.57,-1.71,-0.54,
4.284,-0.41,-2.52,-7.42,1.61,-1.37,-0.57,
4.286,-0.41,-2.52,-7.42,1.65,-1.03,-0.60,
4.288,-0.41,-2.52,-7.42,1.70,-0.71,-0.63,
4.315,-0.41,-2.52,-7.42,1.75,-0.41,-0.67,
4.316,-0.41,-2.52,-7.42,1.80,-0.13,-0.70,
4.316,-0.20,-2.65,-6.22,1.80,-0.13,-0.70,
4.317,-0.20,-2.65,-6.22,1.85,0.13,-0.73,
4.317,-0.20,-2.65,-6.22,1.90,0.36,-0.77,
4.318,-0.20,-2.65,-6.22,1.95,0.57,-0.80,
4.318,-0.20,-2.65,-6.22,2.00,0.76,-0.84,
4.319,-0.20,-2.65,-6.22,2.04,0.93,-0.87,
4.319,-0.44,-2.66,-5.94,2.04,0.93,-0.87,
4.32,-0.44,-2.66,-5.94,2.08,1.08,-0.89,
4.32,-0.44,-2.66,-5.94,2.12,1.21,-0.91,
4.32,-0.44,-2.66,-5.94,2.16,1.33,-0.93,
4.321,-0.44,-2.66,-5.94,2.19,1.43,-0.93,
4.321,-0.44,-2.66,-5.94,2.22,1.51,-0.93,
4.322,-1.48,-2.56,-5.94,2.22,1.51,-0.93,
4.322,-1.48,-2.56,-5.94,2.25,1.58,-0.93,
4.322,-1.48,-2.56,-5.94,2.27,1.63,-0.92,
4.323,-1.48,-2.56,-5.94,2.29,1.66,-0.91,
4.323,-1.48,-2.56,-5.94,2.30,1.67,-0.89,
4.323,-1.48,-2.56,-5.94,2.30,1.66,-0.87,
4.331,-2.92,-3.31,-6.72,2.30,1.66,-0.87,
4.331,-2.92,-3.31,-6.72,2.30,1.62,-0.85,
4.332,-2.92,-3.31,-6.72,2.28,1.57,-0.82,
4.332,-2.92,-3.31,-6.72,2.25,1.48,-0.79,
4.332,-2.92,-3.31,-6.72,2.22,1.36,-0.75,
4.333,-2.92,-3.31,-6.72,2.17,1.23,-0.70,
4.334,-4.08,-4.02,-8.26,2.17,1.23,-0.70,
4.335,-4.08,-4.02,-8.26,2.10,1.08,-0.66,
4.336,-4.08,-4.02,-8.26,2.03,0.92,-0.60,
4.338,-4.08,-4.02,-8.26,1.96,0.74,-0.55,
4.34,-4.08,-4.02,-8.26,1.87,0.56,-0.50,
4.342,-4.08,-4.02,-8.26,1.77,0.38,-0.45,
4.345,-5.07,-4.64,-10.11,1.77,0.38,-0.45,
4.345,-5.07,-4.64,-10.11,1.67,0.20,-0.41,
4.346,-5.07,-4.64,-10.11,1.57,0.02,-0.38,
4.348,-5.07,-4.64,-10.11,1.47,-0.15,-0.36,
4.35,-5.07,-4.64,-10.11,1.37,-0.31,-0.34,
4.352,-5.07,-4.64,-10.11,1.27,-0.47,-0.34,
4.356,-4.22,-5.08,-10.05,1.27,-0.47,-0.34,
4.357,-4.22,-5.08,-10.05,1.18,-0.62,-0.37,
4.357,-4.22,-5.08,-10.05,1.09,-0.78,-0.42,
4.372,-4.22,-5.08,-10.05,1.01,-0.95,-0.49,
4.372,-4.22,-5.08,-10.05,1.08,-1.21,-0.60,
4.372,-4.22,-5.08,-10.05,1.62,-1.85,-0.85,
4.373,2.93,-6.81,7.77,1.62,-1.85,-0.85,
4.373,2.93,-6.81,7.77,2.61,-2.78,-1.26,
4.373,2.93,-6.81,7.77,3.66,-3.70,-1.71,
4.373,2.93,-6.81,7.77,4.61,-4.53,-2.14,
4.374,2.93,-6.81,7.77,5.45,-5.26,-2.54,
4.374,2.93,-6.81,7.77,6.17,-5.82,-2.90,
4.375,9.09,-14.13,31.01,6.17,-5.82,-2.90,
4.375,9.09,-14.13,31.01,6.78,-6.16,-3.22,
4.376,9.09,-14.13,31.01,7.23,-6.10,-3.49,
4.379,9.09,-14.13,31.01,7.48,-5.57,-3.69,
4.381,9.09,-14.13,31.01,7.50,-4.69,-3.81,
4.382,9.09,-14.13,31.01,7.32,-3.66,-3.85,
4.387,1.82,-17.97,15.67,7.32,-3.66,-3.85,
4.388,1.82,-17.97,15.67,7.00,-2.61,-3.83,
4.388,1.82,-17.97,15.67,6.58,-1.59,-3.76,
4.389,1.82,-17.97,15.67,6.09,-0.60,-3.68,
4.414,1.82,-17.97,15.67,5.58,0.30,-3.58,
4.415,1.82,-17.97,15.67,5.07,1.06,-3.48,
4.415,-1.43,-16.80,-1.75,5.07,1.06,-3.48,
4.416,-1.43,-16.80,-1.75,4.58,1.64,-3.39,
4.416,-1.43,-16.80,-1.75,4.14,2.06,-3.32,
4.416,-1.43,-16.80,-1.75,3.74,2.33,-3.27,
4.417,-1.43,-16.80,-1.75,3.39,2.46,-3.23,
4.417,-1.43,-16.80,-1.75,3.09,2.48,-3.19,
4.417,-0.01,-13.55,-4.31,3.09,2.48,-3.19,
4.417,-0.01,-13.55,-4.31,2.84,2.40,-3.16,
4.418,-0.01,-13.55,-4.31,2.62,2.24,-3.12,
4.418,-0.01,-13.55,-4.31,2.44,2.02,-3.07,
4.418,-0.01,-13.55,-4.31,2.28,1.74,-3.02,
4.418,-0.01,-13.55,-4.31,2.16,1.43,-2.97,
4.419,-0.72,-10.08,-2.59,2.16,1.43,-2.97,
4.419,-0.72,-10.08,-2.59,2.07,1.11,-2.93,
4.419,-0.72,-10.08,-2.59,2.00,0.81,-2.89,
4.419,-0.72,-10.08,-2.59,1.95,0.55,-2.86,
4.424,-0.72,-10.08,-2.59,1.92,0.32,-2.83,
4.424,-0.72,-10.08,-2.59,1.92,0.17,-2.82,
4.428,-1.64,-6.48,-2.69,1.92,0.17,-2.82,
4.429,-1.64,-6.48,-2.69,1.95,0.09,-2.81,
4.436,-1.64,-6.48,-2.69,2.00,0.08,-2.80,
4.436,-1.64,-6.48,-2.69,2.08,0.14,-2.80,
4.437,-1.64,-6.48,-2.69,2.19,0.28,-2.79,
4.437,-1.64,-6.48,-2.69,2.31,0.45,-2.78,
4.437,-3.33,-3.26,-3.91,2.31,0.45,-2.78,
4.437,-3.33,-3.26,-3.91,2.43,0.65,-2.76,
4.438,-3.33,-3.26,-3.91,2.56,0.88,-2.73,
4.438,-3.33,-3.26,-3.91,2.69,1.10,-2.69,
4.457,-3.33,-3.26,-3.91,2.81,1.33,-2.63,
4.458,-3.33,-3.26,-3.91,2.92,1.55,-2.57,
4.458,-5.91,-0.54,-6.83,2.92,1.55,-2.57,
4.458,-5.91,-0.54,-6.83,3.02,1.75,-2.50,
4.459,-5.91,-0.54,-6.83,3.11,1.94,-2.42,
4.459,-5.91,-0.54,-6.83,3.19,2.12,-2.33,
4.459,-5.91,-0.54,-6.83,3.26,2.27,-2.24,
4.459,-5.91,-0.54,-6.83,3.32,2.41,-2.15,
4.459,-6.60,1.67,-9.35,3.32,2.41,-2.15,
4.459,-6.60,1.67,-9.35,3.38,2.51,-2.07,
4.48,-6.60,1.67,-9.35,3.43,2.60,-1.97,
4.48,-6.60,1.67,-9.35,3.46,2.67,-1.88,
4.481,-6.60,1.67,-9.35,3.49,2.71,-1.79,
4.481,-6.60,1.67,-9.35,3.51,2.74,-1.70,
4.481,-6.14,3.78,-11.02,3.51,2.74,-1.70,
4.482,-6.14,3.78,-11.02,3.51,2.74,-1.61,
4.482,-6.14,3.78,-11.02,3.51,2.72,-1.53,
4.482,-6.14,3.78,-11.02,3.50,2.68,-1.46,
4.482,-6.14,3.78,-11.02,3.48,2.63,-1.39,
4.482,-6.14,3.78,-11.02,3.45,2.57,-1.31,
4.483,-4.93,6.31,-10.72,3.45,2.57,-1.31,
4.483,-4.93,6.31,-10.72,3.42,2.49,-1.25,
4.483,-4.93,6.31,-10.72,3.39,2.43,-1.19,
4.483,-4.93,6.31,-10.72,3.35,2.37,-1.13,
4.484,-4.93,6.31,-10.72,3.29,2.32,-1.07,
4.484,-4.93,6.31,-10.72,3.23,2.29,-1.00,
4.488,-4.37,8.90,-8.84,3.23,2.29,-1.00,
4.489,-4.37,8.90,-8.84,3.17,2.28,-0.94,
4.489,-4.37,8.90,-8.84,3.04,2.31,-0.83,
4.489,-4.37,8.90,-8.84,2.96,2.36,-0.75,
4.491,-4.37,8.90,-8.84,2.90,2.40,-0.72,
4.5,-4.37,8.90,-8.84,2.79,2.48,-0.64,
4.501,-4.05,11.20,-7.36,2.79,2.48,-0.64,
4.501,-4.05,11.20,-7.36,2.67,2.57,-0.56,
4.501,-4.05,11.20,-7.36,2.55,2.66,-0.48,
4.501,-4.05,11.20,-7.36,2.42,2.75,-0.40,
4.502,-4.05,11.20,-7.36,2.28,2.82,-0.31,
4.502,-4.05,11.20,-7.36,2.13,2.87,-0.23,
4.504,-4.21,12.54,-6.44,2.13,2.87,-0.23,
4.505,-4.21,12.54,-6.44,1.98,2.91,-0.14,
4.511,-4.21,12.54,-6.44,1.83,2.94,-0.06,
4.512,-4.21,12.54,-6.44,1.68,2.94,0.01,
4.512,-4.21,12.54,-6.44,1.53,2.93,0.08,
4.512,-4.21,12.54,-6.44,1.38,2.89,0.14,
4.514,-3.29,12.35,-6.27,1.38,2.89,0.14,
4.515,-3.29,12.35,-6.27,1.23,2.82,0.20,
4.539,-3.29,12.35,-6.27,1.08,2.73,0.24,
4.54,-3.29,12.35,-6.27,0.93,2.63,0.28,
4.54,-3.29,12.35,-6.27,0.78,2.51,0.32,
4.54,-3.29,12.35,-6.27,0.63,2.38,0.35,
4.54,-2.20,11.40,-7.13,0.63,2.38,0.35,
4.54,-2.20,11.40,-7.13,0.49,2.25,0.37,
4.541,-2.20,11.40,-7.13,0.35,2.12,0.39,
4.541,-2.20,11.40,-7.13,0.21,1.97,0.41,
4.541,-2.20,11.40,-7.13,0.10,1.83,0.43,
4.541,-2.20,11.40,-7.13,-0.01,1.70,0.44,
4.541,-1.08,9.82,-8.43,-0.01,1.70,0.44,
4.541,-1.08,9.82,-8.43,-0.10,1.57,0.45,
4.541,-1.08,9.82,-8.43,-0.19,1.44,0.46,
4.541,-1.08,9.82,-8.43,-0.26,1.32,0.46,
4.542,-1.08,9.82,-8.43,-0.33,1.21,0.46,
4.543,-1.08,9.82,-8.43,-0.39,1.12,0.46,
4.545,-0.17,8.67,-9.46,-0.39,1.12,0.46,
4.545,-0.17,8.67,-9.46,-0.44,1.05,0.45,
4.546,-0.17,8.67,-9.46,-0.49,0.99,0.44,
4.548,-0.17,8.67,-9.46,-0.55,0.95,0.42,
4.55,-0.17,8.67,-9.46,-0.60,0.93,0.39,
4.552,-0.17,8.67,-9.46,-0.65,0.92,0.36,
4.554,1.25,8.13,-10.34,-0.65,0.92,0.36,
4.555,1.25,8.13,-10.34,-0.71,0.92,0.33,
4.556,1.25,8.13,-10.34,-0.76,0.93,0.28,
4.558,1.25,8.13,-10.34,-0.82,0.94,0.24,
4.56,1.25,8.13,-10.34,-0.88,0.95,0.19,
4.562,1.25,8.13,-10.34,-0.94,0.95,0.14,
4.565,2.53,8.10,-10.34,-0.94,0.95,0.14,
4.565,2.53,8.10,-10.34,-1.01,0.95,0.09,
4.566,2.53,8.10,-10.34,-1.09,0.94,0.03,
4.568,2.53,8.10,-10.34,-1.17,0.93,-0.03,
4.57,2.53,8.10,-10.34,-1.26,0.91,-0.09,
4.572,2.53,8.10,-10.34,-1.34,0.88,-0.15,
4.575,3.38,8.45,-9.46,-1.34,0.88,-0.15,
4.575,3.38,8.45,-9.46,-1.42,0.86,-0.21,
4.576,3.38,8.45,-9.46,-1.51,0.83,-0.27,
4.578,3.38,8.45,-9.46,-1.59,0.79,-0.34,
4.58,3.38,8.45,-9.46,-1.68,0.75,-0.40,
4.582,3.38,8.45,-9.46,-1.76,0.70,-0.46,
4.584,4.00,8.99,-8.01,-1.76,0.70,-0.46,
4.585,4.00,8.99,-8.01,-1.83,0.65,-0.52,
4.586,4.00,8.99,-8.01,-1.89,0.60,-0.58,
4.588,4.00,8.99,-8.01,-1.95,0.56,-0.63,
4.59,4.00,8.99,-8.01,-1.99,0.51,-0.69,
4.592,4.00,8.99,-8.01,-2.01,0.47,-0.75,
4.594,3.82,9.43,-5.51,-2.01,0.47,-0.75,
4.595,3.82,9.43,-5.51,-2.02,0.44,-0.81,
4.596,3.82,9.43,-5.51,-2.00,0.41,-0.87,
4.598,3.82,9.43,-5.51,-1.97,0.38,-0.94,
4.6,3.82,9.43,-5.51,-1.91,0.35,-1.00,
4.602,3.82,9.43,-5.51,-1.83,0.32,-1.06,
4.605,3.92,9.88,-0.23,-1.83,0.32,-1.06,
4.606,3.92,9.88,-0.23,-1.73,0.30,-1.13,
4.606,3.92,9.88,-0.23,-1.62,0.28,-1.18,
4.608,3.92,9.88,-0.23,-1.49,0.26,-1.24,
4.61,3.92,9.88,-0.23,-1.34,0.23,-1.28,
4.612,3.92,9.88,-0.23,-1.17,0.19,-1.33,
4.614,3.46,9.14,7.11,-1.17,0.19,-1.33,
4.615,3.46,9.14,7.11,-0.98,0.14,-1.36,
4.616,3.46,9.14,7.11,-0.77,0.07,-1.38,
4.618,3.46,9.14,7.11,-0.57,0.00,-1.39,
4.62,3.46,9.14,7.11,-0.39,-0.05,-1.39,
4.623,3.46,9.14,7.11,-0.25,-0.06,-1.38,
4.658,2.99,7.18,14.73,-0.25,-0.06,-1.38,
4.659,2.99,7.18,14.73,-0.17,-0.04,-1.36,
4.659,2.99,7.18,14.73,-0.18,0.04,-1.32,
4.66,2.99,7.18,14.73,-0.28,0.17,-1.26,
4.66,2.99,7.18,14.73,-0.46,0.34,-1.18,
4.661,2.99,7.18,14.73,-0.71,0.52,-1.08,
4.661,2.64,4.34,6.51,-0.71,0.52,-1.08,
4.662,2.64,4.34,6.51,-1.02,0.69,-0.96,
4.663,2.64,4.34,6.51,-1.36,0.82,-0.82,
4.663,2.64,4.34,6.51,-1.71,0.91,-0.68,
4.663,2.64,4.34,6.51,-2.07,0.97,-0.52,
4.664,2.64,4.34,6.51,-2.41,0.98,-0.38,
4.665,0.04,4.15,-5.75,-2.41,0.98,-0.38,
4.665,0.04,4.15,-5.75,-2.73,0.98,-0.23,
4.666,0.04,4.15,-5.75,-3.02,0.97,-0.09,
4.666,0.04,4.15,-5.75,-3.26,0.94,0.04,
4.667,0.04,4.15,-5.75,-3.46,0.91,0.16,
4.667,0.04,4.15,-5.75,-3.61,0.88,0.28,
4.668,-1.76,5.30,-7.92,-3.61,0.88,0.28,
4.668,-1.76,5.30,-7.92,-3.72,0.82,0.37,
4.669,-1.76,5.30,-7.92,-3.78,0.73,0.46,
4.669,-1.76,5.30,-7.92,-3.81,0.62,0.53,
4.67,-1.76,5.30,-7.92,-3.81,0.47,0.58,
4.67,-1.76,5.30,-7.92,-3.79,0.28,0.61,
4.671,-1.69,4.97,-5.03,-3.79,0.28,0.61,
4.671,-1.69,4.97,-5.03,-3.77,0.06,0.61,
4.672,-1.69,4.97,-5.03,-3.75,-0.18,0.60,
4.673,-1.69,4.97,-5.03,-3.73,-0.47,0.58,
4.673,-1.69,4.97,-5.03,-3.71,-0.78,0.54,
4.674,-1.69,4.97,-5.03,-3.69,-1.10,0.50,
4.675,0.18,2.38,-6.05,-3.69,-1.10,0.50,
4.675,0.18,2.38,-6.05,-3.67,-1.43,0.47,
4.715,0.18,2.38,-6.05,-3.66,-1.75,0.44,
4.716,0.18,2.38,-6.05,-3.65,-2.06,0.42,
4.716,0.18,2.38,-6.05,-3.65,-2.35,0.41,
4.717,0.18,2.38,-6.05,-3.65,-2.63,0.41,
4.717,-0.84,0.22,-8.20,-3.65,-2.63,0.41,
4.717,-0.84,0.22,-8.20,-3.65,-2.89,0.42,
4.718,-0.84,0.22,-8.20,-3.66,-3.14,0.45,
4.718,-0.84,0.22,-8.20,-3.66,-3.37,0.49,
4.718,-0.84,0.22,-8.20,-3.65,-3.58,0.55,
4.719,-0.84,0.22,-8.20,-3.63,-3.77,0.62,
4.719,-3.93,-2.48,-7.65,-3.63,-3.77,0.62,
4.719,-3.93,-2.48,-7.65,-3.58,-3.94,0.70,
4.72,-3.93,-2.48,-7.65,-3.51,-4.08,0.78,
4.72,-3.93,-2.48,-7.65,-3.41,-4.21,0.87,
4.721,-3.93,-2.48,-7.65,-3.29,-4.30,0.96,
4.721,-3.93,-2.48,-7.65,-3.14,-4.37,1.04,
4.721,-6.95,-6.91,-2.12,-3.14,-4.37,1.04,
4.722,-6.95,-6.91,-2.12,-2.98,-4.40,1.12,
4.722,-6.95,-6.91,-2.12,-2.82,-4.39,1.18,
4.723,-6.95,-6.91,-2.12,-2.65,-4.34,1.23,
4.723,-6.95,-6.91,-2.12,-2.49,-4.25,1.27,
4.723,-6.95,-6.91,-2.12,-2.34,-4.11,1.28,
4.724,-6.69,-10.74,1.52,-2.34,-4.11,1.28,
4.724,-6.69,-10.74,1.52,-2.21,-3.91,1.28,
4.725,-6.69,-10.74,1.52,-2.10,-3.68,1.26,
4.725,-6.69,-10.74,1.52,-2.02,-3.40,1.24,
4.725,-6.69,-10.74,1.52,-1.96,-3.09,1.20,
4.726,-6.69,-10.74,1.52,-1.92,-2.76,1.17,
4.726,-4.24,-11.74,0.22,-1.92,-2.76,1.17,
4.726,-4.24,-11.74,0.22,-1.89,-2.40,1.12,
4.727,-4.24,-11.74,0.22,-1.87,-2.04,1.08,
4.75,-4.24,-11.74,0.22,-1.86,-1.67,1.03,
4.75,-4.24,-11.74,0.22,-1.87,-1.30,0.97,
4.751,-4.24,-11.74,0.22,-1.87,-0.96,0.92,
4.751,-1.26,-10.07,-0.74,-1.87,-0.96,0.92,
4.751,-1.26,-10.07,-0.74,-1.89,-0.64,0.85,
4.751,-1.26,-10.07,-0.74,-1.90,-0.34,0.79,
4.752,-1.26,-10.07,-0.74,-1.92,-0.08,0.72,
4.752,-1.26,-10.07,-0.74,-1.93,0.14,0.65,
4.752,-1.26,-10.07,-0.74,-1.95,0.33,0.58,
4.752,1.11,-7.65,-1.32,-1.95,0.33,0.58,
4.753,1.11,-7.65,-1.32,-1.97,0.49,0.51,
4.753,1.11,-7.65,-1.32,-1.98,0.61,0.46,
4.753,1.11,-7.65,-1.32,-2.01,0.73,0.38,
4.753,1.11,-7.65,-1.32,-2.02,0.76,0.36,
4.753,1.11,-7.65,-1.32,-2.04,0.79,0.33,
4.755,1.53,-5.41,-1.36,-2.04,0.79,0.33,
4.755,1.53,-5.41,-1.36,-2.06,0.79,0.30,
4.756,1.53,-5.41,-1.36,-2.07,0.78,0.27,
4.761,1.53,-5.41,-1.36,-2.08,0.75,0.26,
4.762,1.53,-5.41,-1.36,-2.10,0.71,0.24,
4.763,1.53,-5.41,-1.36,-2.11,0.67,0.23,
4.765,1.33,-3.75,-1.12,-2.11,0.67,0.23,
4.765,1.33,-3.75,-1.12,-2.12,0.63,0.22,
4.766,1.33,-3.75,-1.12,-2.13,0.59,0.21,
4.768,1.33,-3.75,-1.12,-2.15,0.56,0.20,
4.778,1.33,-3.75,-1.12,-2.17,0.53,0.19,
4.779,1.33,-3.75,-1.12,-2.19,0.52,0.18,
4.779,1.26,-2.88,-1.85,-2.19,0.52,0.18,
4.78,1.26,-2.88,-1.85,-2.20,0.52,0.18,
4.78,1.26,-2.88,-1.85,-2.22,0.52,0.17,
4.781,1.26,-2.88,-1.85,-2.25,0.54,0.17,
4.781,1.26,-2.88,-1.85,-2.27,0.56,0.16,
4.782,1.26,-2.88,-1.85,-2.30,0.59,0.16,
4.784,0.97,-2.59,-3.00,-2.30,0.59,0.16,
4.785,0.97,-2.59,-3.00,-2.33,0.62,0.17,
4.786,0.97,-2.59,-3.00,-2.35,0.65,0.17,
4.829,0.97,-2.59,-3.00,-2.38,0.68,0.18,
4.853,0.97,-2.59,-3.00,-2.39,0.70,0.20,
4.854,0.97,-2.59,-3.00,-2.41,0.72,0.21,
4.855,-0.02,-2.65,-3.22,-2.41,0.72,0.21,
4.856,-0.02,-2.65,-3.22,-2.41,0.73,0.23,
4.857,-0.02,-2.65,-3.22,-2.41,0.74,0.25,
4.857,-0.02,-2.65,-3.22,-2.40,0.74,0.28,
4.857,-0.02,-2.65,-3.22,-2.38,0.74,0.31,
4.858,-0.02,-2.65,-3.22,-2.34,0.73,0.34,
4.858,-0.58,-3.15,-1.66,-2.34,0.73,0.34,
4.858,-0.58,-3.15,-1.66,-2.30,0.72,0.37,
4.859,-0.58,-3.15,-1.66,-2.24,0.71,0.39,
4.859,-0.58,-3.15,-1.66,-2.18,0.68,0.41,
4.859,-0.58,-3.15,-1.66,-2.12,0.66,0.43,
4.859,-0.58,-3.15,-1.66,-2.05,0.63,0.45,
4.86,-0.16,-3.57,0.34,-2.05,0.63,0.45,
4.86,-0.16,-3.57,0.34,-1.98,0.59,0.47,
4.86,-0.16,-3.57,0.34,-1.91,0.56,0.48,
4.861,-0.16,-3.57,0.34,-1.84,0.52,0.50,
4.861,-0.16,-3.57,0.34,-1.78,0.49,0.52,
4.861,-0.16,-3.57,0.34,-1.72,0.45,0.54,
4.861,0.16,-3.46,0.75,-1.72,0.45,0.54,
4.862,0.16,-3.46,0.75,-1.67,0.41,0.56,
4.862,0.16,-3.46,0.75,-1.62,0.37,0.57,
4.862,0.16,-3.46,0.75,-1.58,0.33,0.59,
4.862,0.16,-3.46,0.75,-1.55,0.29,0.60,
4.863,0.16,-3.46,0.75,-1.53,0.26,0.61,
4.863,0.35,-2.91,0.11,-1.53,0.26,0.61,
4.863,0.35,-2.91,0.11,-1.50,0.22,0.62,
4.863,0.35,-2.91,0.11,-1.48,0.18,0.64,
4.864,0.35,-2.91,0.11,-1.46,0.15,0.65,
4.864,0.35,-2.91,0.11,-1.46,0.14,0.65,
4.864,0.35,-2.91,0.11,-1.44,0.12,0.66,
4.864,0.48,-2.23,-0.16,-1.44,0.12,0.66,
4.865,0.48,-2.23,-0.16,-1.43,0.10,0.67,
4.865,0.48,-2.23,-0.16,-1.42,0.08,0.67,
4.865,0.48,-2.23,-0.16,-1.41,0.07,0.68,
4.865,0.48,-2.23,-0.16,-1.39,0.07,0.67,
4.866,0.48,-2.23,-0.16,-1.38,0.07,0.67,
4.866,0.68,-1.52,0.09,-1.38,0.07,0.67,
4.866,0.68,-1.52,0.09,-1.37,0.07,0.67,
4.867,0.68,-1.52,0.09,-1.36,0.08,0.66,
4.867,0.68,-1.52,0.09,-1.35,0.09,0.65,
4.867,0.68,-1.52,0.09,-1.34,0.11,0.64,
4.867,0.68,-1.52,0.09,-1.34,0.14,0.63,
4.868,1.05,-0.73,0.45,-1.34,0.14,0.63,
4.868,1.05,-0.73,0.45,-1.33,0.17,0.61,
4.868,1.05,-0.73,0.45,-1.32,0.20,0.60,
4.876,1.05,-0.73,0.45,-1.32,0.27,0.58,
4.876,1.05,-0.73,0.45,-1.32,0.29,0.58,
4.877,1.05,-0.73,0.45,-1.32,0.34,0.56,
4.877,1.29,0.05,0.77,-1.32,0.34,0.56,
4.877,1.29,0.05,0.77,-1.32,0.40,0.54,
4.877,1.29,0.05,0.77,-1.33,0.46,0.53,
4.879,1.29,0.05,0.77,-1.34,0.52,0.52,
4.88,1.29,0.05,0.77,-1.36,0.59,0.51,
4.882,1.29,0.05,0.77,-1.38,0.67,0.49,
4.885,1.69,0.73,1.02,-1.38,0.67,0.49,
4.887,1.69,0.73,1.02,-1.41,0.75,0.47,
4.893,1.69,0.73,1.02,-1.44,0.83,0.46,
4.893,1.69,0.73,1.02,-1.49,0.96,0.43,
4.893,1.69,0.73,1.02,-1.52,1.00,0.42,
4.894,1.69,0.73,1.02,-1.56,1.08,0.40,
4.895,2.15,1.18,0.94,-1.56,1.08,0.40,
4.895,2.15,1.18,0.94,-1.61,1.16,0.38,
4.896,2.15,1.18,0.94,-1.66,1.24,0.36,
4.898,2.15,1.18,0.94,-1.71,1.31,0.34,
4.9,2.15,1.18,0.94,-1.75,1.37,0.32,
4.902,2.15,1.18,0.94,-1.80,1.43,0.29,
4.914,2.76,1.24,0.96,-1.80,1.43,0.29,
4.915,2.76,1.24,0.96,-1.85,1.49,0.27,
4.915,2.76,1.24,0.96,-1.89,1.53,0.24,
4.915,2.76,1.24,0.96,-1.93,1.58,0.22,
4.915,2.76,1.24,0.96,-1.96,1.61,0.19,
4.916,2.76,1.24,0.96,-1.99,1.63,0.17,
4.916,3.01,1.15,1.19,-1.99,1.63,0.17,
4.916,3.01,1.15,1.19,-2.02,1.65,0.14,
4.916,3.01,1.15,1.19,-2.04,1.66,0.12,
4.918,3.01,1.15,1.19,-2.05,1.66,0.09,
4.948,3.01,1.15,1.19,-2.06,1.65,0.07,
4.948,3.01,1.15,1.19,-2.06,1.64,0.04,
4.948,3.21,1.19,1.89,-2.06,1.64,0.04,
4.949,3.21,1.19,1.89,-2.06,1.62,0.02,
4.949,3.21,1.19,1.89,-2.05,1.60,0.00,
4.949,3.21,1.19,1.89,-2.04,1.57,-0.02,
4.949,3.21,1.19,1.89,-2.02,1.54,-0.04,
4.949,3.21,1.19,1.89,-2.00,1.50,-0.06,
4.95,3.13,1.45,2.50,-2.00,1.50,-0.06,
4.95,3.13,1.45,2.50,-1.98,1.46,-0.08,
4.95,3.13,1.45,2.50,-1.95,1.42,-0.09,
4.95,3.13,1.45,2.50,-1.93,1.37,-0.11,
4.95,3.13,1.45,2.50,-1.90,1.33,-0.12,
4.951,3.13,1.45,2.50,-1.87,1.28,-0.13,
4.951,3.08,1.65,2.94,-1.87,1.28,-0.13,
4.951,3.08,1.65,2.94,-1.84,1.25,-0.14,
4.951,3.08,1.65,2.94,-1.80,1.22,-0.15,
4.951,3.08,1.65,2.94,-1.76,1.19,-0.16,
