
time,ax,ay,az,wx,wy,wz,
0.002,-0.63,-0.05,-1.69,-0.25,0.07,0.22,
0.002,-0.63,-0.05,-1.69,-0.26,0.07,0.22,
0.003,-0.63,-0.05,-1.69,-0.28,0.07,0.22,
0.003,-0.61,-0.01,-1.51,-0.28,0.07,0.22,
0.003,-0.61,-0.01,-1.51,-0.31,0.08,0.23,
0.003,-0.61,-0.01,-1.51,-0.33,0.08,0.23,
0.006,-0.61,-0.01,-1.51,-0.36,0.08,0.22,
0.009,-0.61,-0.01,-1.51,-0.37,0.08,0.22,
0.01,-0.61,-0.01,-1.51,-0.37,0.07,0.22,
0.011,-0.45,0.07,-1.25,-0.37,0.07,0.22,
0.012,-0.45,0.07,-1.25,-0.38,0.07,0.21,
0.014,-0.45,0.07,-1.25,-0.39,0.07,0.20,
0.015,-0.45,0.07,-1.25,-0.39,0.07,0.18,
0.015,-0.45,0.07,-1.25,-0.39,0.07,0.18,
0.015,-0.45,0.07,-1.25,-0.39,0.07,0.17,
0.016,-0.27,0.04,-0.88,-0.39,0.07,0.17,
0.016,-0.27,0.04,-0.88,-0.39,0.06,0.17,
0.016,-0.27,0.04,-0.88,-0.39,0.05,0.16,
0.016,-0.27,0.04,-0.88,-0.39,0.03,0.16,
0.017,-0.27,0.04,-0.88,-0.38,0.02,0.16,
0.022,-0.27,0.04,-0.88,-0.37,0.00,0.15,
0.025,-0.42,-0.04,-0.61,-0.37,0.00,0.15,
0.026,-0.42,-0.04,-0.61,-0.36,-0.02,0.15,
0.027,-0.42,-0.04,-0.61,-0.35,-0.04,0.15,
0.027,-0.42,-0.04,-0.61,-0.34,-0.08,0.15,
0.027,-0.42,-0.04,-0.61,-0.33,-0.09,0.15,
0.029,-0.42,-0.04,-0.61,-0.32,-0.13,0.14,
0.031,-0.47,-0.09,-0.43,-0.32,-0.13,0.14,
0.031,-0.47,-0.09,-0.43,-0.31,-0.16,0.15,
0.032,-0.47,-0.09,-0.43,-0.29,-0.21,0.15,
0.041,-0.47,-0.09,-0.43,-0.27,-0.29,0.15,
0.043,-0.47,-0.09,-0.43,-0.26,-0.32,0.15,
0.043,-0.47,-0.09,-0.43,-0.24,-0.38,0.16,
0.043,-0.69,-0.08,-0.41,-0.24,-0.38,0.16,
0.043,-0.69,-0.08,-0.41,-0.21,-0.44,0.16,
0.044,-0.69,-0.08,-0.41,-0.19,-0.52,0.16,
0.046,-0.69,-0.08,-0.41,-0.15,-0.63,0.16,
0.048,-0.69,-0.08,-0.41,-0.14,-0.68,0.16,
0.048,-0.69,-0.08,-0.41,-0.11,-0.77,0.17,
0.051,-0.91,-0.13,-0.45,-0.11,-0.77,0.17,
0.051,-0.91,-0.13,-0.45,-0.08,-0.86,0.17,
0.052,-0.91,-0.13,-0.45,-0.05,-0.96,0.17,
0.055,-0.91,-0.13,-0.45,-0.00,-1.11,0.17,
0.067,-0.91,-0.13,-0.45,0.01,-1.15,0.18,
0.068,-0.91,-0.13,-0.45,0.05,-1.25,0.18,
0.072,-1.31,-0.19,-0.48,0.05,-1.25,0.18,
0.072,-1.31,-0.19,-0.48,0.09,-1.35,0.18,
0.073,-1.31,-0.19,-0.48,0.12,-1.44,0.18,
0.073,-1.31,-0.19,-0.48,0.18,-1.58,0.18,
0.073,-1.31,-0.19,-0.48,0.19,-1.63,0.18,
0.073,-1.31,-0.19,-0.48,0.23,-1.72,0.18,
0.073,-1.42,-0.44,-0.62,0.23,-1.72,0.18,
0.073,-1.42,-0.44,-0.62,0.26,-1.82,0.18,
0.074,-1.42,-0.44,-0.62,0.29,-1.91,0.18,
0.102,-1.42,-0.44,-0.62,0.32,-2.05,0.18,
0.103,-1.42,-0.44,-0.62,0.34,-2.10,0.19,
0.104,-1.42,-0.44,-0.62,0.36,-2.18,0.19,
0.104,-1.60,-0.54,-0.91,0.36,-2.18,0.19,
0.104,-1.60,-0.54,-0.91,0.38,-2.26,0.19,
0.104,-1.60,-0.54,-0.91,0.41,-2.33,0.18,
0.104,-1.60,-0.54,-0.91,0.45,-2.42,0.19,
0.105,-1.60,-0.54,-0.91,0.46,-2.44,0.19,
0.105,-1.60,-0.54,-0.91,0.49,-2.48,0.19,
0.105,-1.61,-0.62,-0.91,0.49,-2.48,0.19,
0.105,-1.61,-0.62,-0.91,0.52,-2.51,0.19,
0.105,-1.61,-0.62,-0.91,0.54,-2.53,0.19,
0.105,-1.61,-0.62,-0.91,0.58,-2.56,0.20,
0.106,-1.61,-0.62,-0.91,0.58,-2.56,0.20,
0.106,-1.61,-0.62,-0.91,0.60,-2.57,0.21,
0.106,-1.58,-0.82,-0.77,0.60,-2.57,0.21,
0.106,-1.58,-0.82,-0.77,0.61,-2.58,0.21,
0.106,-1.58,-0.82,-0.77,0.63,-2.58,0.21,
0.107,-1.58,-0.82,-0.77,0.64,-2.57,0.22,
0.111,-1.58,-0.82,-0.77,0.64,-2.57,0.22,
0.111,-1.58,-0.82,-0.77,0.64,-2.55,0.24,
0.112,-1.53,-0.99,-0.88,0.64,-2.55,0.24,
0.112,-1.53,-0.99,-0.88,0.64,-2.55,0.25,
0.112,-1.53,-0.99,-0.88,0.64,-2.53,0.27,
0.12,-1.53,-0.99,-0.88,0.62,-2.51,0.31,
0.121,-1.53,-0.99,-0.88,0.62,-2.50,0.32,
0.121,-1.53,-0.99,-0.88,0.61,-2.48,0.35,
0.121,-1.73,-1.18,-0.96,0.61,-2.48,0.35,
0.121,-1.73,-1.18,-0.96,0.60,-2.45,0.38,
0.123,-1.73,-1.18,-0.96,0.59,-2.42,0.42,
0.126,-1.73,-1.18,-0.96,0.57,-2.36,0.47,
0.127,-1.73,-1.18,-0.96,0.56,-2.35,0.49,
0.128,-1.73,-1.18,-0.96,0.55,-2.31,0.52,
0.13,-1.84,-1.22,-0.99,0.55,-2.31,0.52,
0.131,-1.84,-1.22,-0.99,0.54,-2.28,0.56,
0.133,-1.84,-1.22,-0.99,0.53,-2.25,0.60,
0.135,-1.84,-1.22,-0.99,0.52,-2.20,0.64,
0.137,-1.84,-1.22,-0.99,0.51,-2.18,0.66,
0.139,-1.84,-1.22,-0.99,0.50,-2.14,0.68,
0.141,-1.60,-1.16,-0.84,0.50,-2.14,0.68,
0.141,-1.60,-1.16,-0.84,0.50,-2.11,0.71,
0.142,-1.60,-1.16,-0.84,0.49,-2.08,0.73,
0.146,-1.60,-1.16,-0.84,0.49,-2.04,0.76,
0.146,-1.60,-1.16,-0.84,0.49,-2.03,0.77,
0.148,-1.60,-1.16,-0.84,0.49,-2.02,0.78,
0.151,-0.96,-1.06,-0.35,0.49,-2.02,0.78,
0.151,-0.96,-1.06,-0.35,0.49,-2.01,0.78,
0.152,-0.96,-1.06,-0.35,0.49,-2.00,0.78,
0.155,-0.96,-1.06,-0.35,0.49,-1.99,0.77,
0.157,-0.96,-1.06,-0.35,0.49,-2.00,0.77,
0.158,-0.96,-1.06,-0.35,0.48,-2.02,0.76,
0.162,-0.28,-0.97,-0.23,0.48,-2.02,0.76,
0.162,-0.28,-0.97,-0.23,0.47,-2.04,0.75,
0.162,-0.28,-0.97,-0.23,0.45,-2.07,0.73,
0.165,-0.28,-0.97,-0.23,0.44,-2.11,0.71,
0.166,-0.28,-0.97,-0.23,0.44,-2.12,0.70,
0.168,-0.28,-0.97,-0.23,0.44,-2.14,0.68,
0.171,0.11,-0.73,0.23,0.44,-2.14,0.68,
0.171,0.11,-0.73,0.23,0.44,-2.15,0.67,
0.173,0.11,-0.73,0.23,0.44,-2.14,0.65,
0.175,0.11,-0.73,0.23,0.46,-2.12,0.62,
0.189,0.11,-0.73,0.23,0.46,-2.11,0.61,
0.19,0.11,-0.73,0.23,0.47,-2.09,0.60,
0.21,0.36,-0.41,0.98,0.47,-2.09,0.60,
0.211,0.36,-0.41,0.98,0.48,-2.06,0.59,
0.211,0.36,-0.41,0.98,0.49,-2.03,0.58,
0.211,0.36,-0.41,0.98,0.49,-1.98,0.56,
0.211,0.36,-0.41,0.98,0.49,-1.96,0.55,
0.212,0.36,-0.41,0.98,0.49,-1.93,0.54,
0.212,0.38,-0.32,1.19,0.49,-1.93,0.54,
0.212,0.38,-0.32,1.19,0.48,-1.89,0.53,
0.212,0.38,-0.32,1.19,0.47,-1.86,0.53,
0.212,0.38,-0.32,1.19,0.46,-1.80,0.53,
0.212,0.38,-0.32,1.19,0.45,-1.79,0.53,
0.213,0.38,-0.32,1.19,0.44,-1.76,0.53,
0.213,-0.09,-0.35,0.75,0.44,-1.76,0.53,
0.213,-0.09,-0.35,0.75,0.43,-1.73,0.54,
0.213,-0.09,-0.35,0.75,0.41,-1.71,0.55,
0.213,-0.09,-0.35,0.75,0.38,-1.67,0.58,
0.214,-0.09,-0.35,0.75,0.37,-1.66,0.59,
0.214,-0.09,-0.35,0.75,0.36,-1.65,0.61,
0.214,-1.17,0.01,0.05,0.36,-1.65,0.61,
0.214,-1.17,0.01,0.05,0.34,-1.63,0.63,
0.214,-1.17,0.01,0.05,0.32,-1.61,0.66,
0.219,-1.17,0.01,0.05,0.28,-1.61,0.70,
0.221,-1.17,0.01,0.05,0.26,-1.61,0.72,
0.221,-1.17,0.01,0.05,0.23,-1.62,0.75,
0.247,-1.67,0.15,-0.68,0.23,-1.62,0.75,
0.247,-1.67,0.15,-0.68,0.20,-1.64,0.78,
0.248,-1.67,0.15,-0.68,0.17,-1.66,0.81,
0.248,-1.67,0.15,-0.68,0.12,-1.70,0.85,
0.267,-1.67,0.15,-0.68,0.10,-1.72,0.87,
0.267,-1.67,0.15,-0.68,0.06,-1.75,0.89,
0.267,-1.54,-0.14,-1.14,0.06,-1.75,0.89,
0.267,-1.54,-0.14,-1.14,0.02,-1.79,0.92,
0.267,-1.54,-0.14,-1.14,-0.01,-1.81,0.94,
0.268,-1.54,-0.14,-1.14,-0.06,-1.85,0.97,
0.268,-1.54,-0.14,-1.14,-0.08,-1.86,0.99,
0.268,-1.54,-0.14,-1.14,-0.11,-1.88,1.01,
0.268,-1.33,-0.53,-1.17,-0.11,-1.88,1.01,
0.269,-1.33,-0.53,-1.17,-0.13,-1.89,1.03,
0.269,-1.33,-0.53,-1.17,-0.15,-1.89,1.05,
0.269,-1.33,-0.53,-1.17,-0.17,-1.87,1.07,
0.269,-1.33,-0.53,-1.17,-0.17,-1.86,1.08,
0.27,-1.33,-0.53,-1.17,-0.18,-1.83,1.09,
0.27,-0.99,-0.78,-1.05,-0.18,-1.83,1.09,
0.27,-0.99,-0.78,-1.05,-0.19,-1.81,1.10,
0.27,-0.99,-0.78,-1.05,-0.18,-1.79,1.11,
0.27,-0.99,-0.78,-1.05,-0.17,-1.74,1.12,
0.271,-0.99,-0.78,-1.05,-0.17,-1.73,1.13,
0.271,-0.99,-0.78,-1.05,-0.17,-1.69,1.13,
0.271,-0.53,-0.98,-0.90,-0.17,-1.69,1.13,
0.271,-0.53,-0.98,-0.90,-0.16,-1.65,1.14,
0.272,-0.53,-0.98,-0.90,-0.15,-1.61,1.15,
0.272,-0.53,-0.98,-0.90,-0.13,-1.55,1.16,
0.272,-0.53,-0.98,-0.90,-0.13,-1.53,1.16,
0.295,-0.71,-0.99,-1.00,-0.13,-1.53,1.16,
0.295,-0.71,-0.99,-1.00,-0.12,-1.41,1.20,
0.296,-0.71,-0.99,-1.00,-0.12,-1.41,1.20,
0.296,-0.71,-0.99,-1.00,-0.12,-1.41,1.20,
0.296,-0.71,-0.99,-1.00,-0.12,-1.32,1.24,
0.296,-0.71,-0.99,-1.00,-0.12,-1.29,1.25,
0.297,-0.71,-0.99,-1.00,-0.13,-1.23,1.28,
0.297,-1.65,-0.92,-1.39,-0.13,-1.23,1.28,
0.297,-1.65,-0.92,-1.39,-0.12,-1.18,1.29,
0.297,-1.65,-0.92,-1.39,-0.12,-1.13,1.30,
0.297,-1.65,-0.92,-1.39,-0.11,-1.06,1.30,
0.298,-1.65,-0.92,-1.39,-0.11,-1.04,1.31,
0.298,-1.65,-0.92,-1.39,-0.10,-1.00,1.31,
0.298,-0.87,-1.27,-1.16,-0.10,-1.00,1.31,
0.298,-0.87,-1.27,-1.16,-0.09,-0.95,1.32,
0.299,-0.87,-1.27,-1.16,-0.09,-0.91,1.32,
0.299,-0.87,-1.27,-1.16,-0.07,-0.84,1.35,
0.299,-0.87,-1.27,-1.16,-0.06,-0.83,1.36,
0.299,-0.87,-1.27,-1.16,-0.04,-0.80,1.38,
0.304,-1.80,-1.41,-0.55,-0.04,-0.80,1.38,
0.304,-1.80,-1.41,-0.55,-0.03,-0.78,1.41,
0.304,-1.80,-1.41,-0.55,-0.01,-0.77,1.44,
0.306,-1.80,-1.41,-0.55,0.02,-0.77,1.47,
0.307,-1.80,-1.41,-0.55,0.03,-0.77,1.49,
0.308,-1.80,-1.41,-0.55,0.06,-0.78,1.52,
0.311,-2.19,-1.58,0.19,0.06,-0.78,1.52,
0.311,-2.19,-1.58,0.19,0.08,-0.79,1.54,
0.313,-2.19,-1.58,0.19,0.11,-0.81,1.56,
0.315,-2.19,-1.58,0.19,0.15,-0.83,1.60,
0.316,-2.19,-1.58,0.19,0.17,-0.84,1.61,
0.318,-2.19,-1.58,0.19,0.20,-0.86,1.62,
0.32,-1.86,-1.86,0.91,0.20,-0.86,1.62,
0.321,-1.86,-1.86,0.91,0.24,-0.88,1.65,
0.326,-1.86,-1.86,0.91,0.27,-0.91,1.66,
0.327,-1.86,-1.86,0.91,0.32,-0.95,1.69,
0.328,-1.86,-1.86,0.91,0.34,-0.95,1.69,
0.328,-1.86,-1.86,0.91,0.37,-0.97,1.70,
0.331,-1.24,-1.90,1.29,0.37,-0.97,1.70,
0.331,-1.24,-1.90,1.29,0.40,-0.99,1.72,
0.333,-1.24,-1.90,1.29,0.44,-1.00,1.73,
0.336,-1.24,-1.90,1.29,0.48,-1.01,1.74,
0.336,-1.24,-1.90,1.29,0.49,-1.01,1.74,
0.338,-1.24,-1.90,1.29,0.52,-1.00,1.75,
0.355,-0.51,-1.68,1.17,0.52,-1.00,1.75,
0.355,-0.51,-1.68,1.17,0.55,-0.99,1.75,
0.355,-0.51,-1.68,1.17,0.58,-0.97,1.75,
0.356,-0.51,-1.68,1.17,0.62,-0.93,1.75,
0.356,-0.51,-1.68,1.17,0.63,-0.92,1.76,
0.356,-0.51,-1.68,1.17,0.64,-0.89,1.76,
0.356,-0.12,-1.27,0.80,0.64,-0.89,1.76,
0.356,-0.12,-1.27,0.80,0.66,-0.86,1.76,
0.356,-0.12,-1.27,0.80,0.68,-0.82,1.76,
0.356,-0.12,-1.27,0.80,0.71,-0.77,1.77,
0.357,-0.12,-1.27,0.80,0.72,-0.76,1.77,
0.358,-0.12,-1.27,0.80,0.73,-0.73,1.77,
0.361,0.18,-0.87,0.65,0.73,-0.73,1.77,
0.361,0.18,-0.87,0.65,0.75,-0.71,1.78,
0.362,0.18,-0.87,0.65,0.76,-0.70,1.78,
0.365,0.18,-0.87,0.65,0.77,-0.68,1.78,
0.366,0.18,-0.87,0.65,0.78,-0.67,1.78,
0.368,0.18,-0.87,0.65,0.79,-0.66,1.79,
0.371,0.41,-0.49,0.70,0.79,-0.66,1.79,
0.372,0.41,-0.49,0.70,0.81,-0.64,1.79,
0.392,0.41,-0.49,0.70,0.83,-0.62,1.80,
0.392,0.41,-0.49,0.70,0.85,-0.61,1.81,
0.392,0.41,-0.49,0.70,0.85,-0.61,1.81,
0.392,0.41,-0.49,0.70,0.87,-0.61,1.82,
0.393,0.25,-0.35,0.96,0.87,-0.61,1.82,
0.393,0.25,-0.35,0.96,0.89,-0.61,1.82,
0.393,0.25,-0.35,0.96,0.90,-0.62,1.82,
0.393,0.25,-0.35,0.96,0.92,-0.65,1.83,
0.393,0.25,-0.35,0.96,0.93,-0.66,1.83,
0.393,0.25,-0.35,0.96,0.95,-0.68,1.84,
0.393,-0.14,-0.40,1.23,0.95,-0.68,1.84,
0.394,-0.14,-0.40,1.23,0.96,-0.70,1.85,
0.409,-0.14,-0.40,1.23,0.98,-0.73,1.86,
0.409,-0.14,-0.40,1.23,1.01,-0.77,1.89,
0.409,-0.14,-0.40,1.23,1.03,-0.79,1.90,
0.41,-0.14,-0.40,1.23,1.05,-0.83,1.92,
0.41,-1.15,-0.44,1.79,1.05,-0.83,1.92,
0.41,-1.15,-0.44,1.79,1.07,-0.88,1.95,
0.41,-1.15,-0.44,1.79,1.09,-0.92,1.99,
0.41,-1.15,-0.44,1.79,1.11,-0.97,2.05,
0.41,-1.15,-0.44,1.79,1.12,-0.98,2.08,
0.411,-1.15,-0.44,1.79,1.13,-0.98,2.13,
0.411,-2.60,-0.14,1.60,1.13,-0.98,2.13,
0.411,-2.60,-0.14,1.60,1.13,-0.98,2.19,
0.419,-2.60,-0.14,1.60,1.10,-0.98,2.24,
0.419,-2.60,-0.14,1.60,1.03,-0.96,2.34,
0.419,-2.60,-0.14,1.60,1.01,-0.94,2.37,
0.42,-2.60,-0.14,1.60,0.95,-0.92,2.44,
0.42,-3.21,-0.31,-0.14,0.95,-0.92,2.44,
0.421,-3.21,-0.31,-0.14,0.89,-0.91,2.51,
0.423,-3.21,-0.31,-0.14,0.82,-0.90,2.58,
0.426,-3.21,-0.31,-0.14,0.72,-0.90,2.69,
0.426,-3.21,-0.31,-0.14,0.69,-0.89,2.73,
0.428,-3.21,-0.31,-0.14,0.63,-0.89,2.79,
0.43,-3.20,-0.75,-0.45,0.63,-0.89,2.79,
0.43,-3.20,-0.75,-0.45,0.58,-0.88,2.85,
0.432,-3.20,-0.75,-0.45,0.52,-0.86,2.90,
0.435,-3.20,-0.75,-0.45,0.43,-0.80,2.96,
0.437,-3.20,-0.75,-0.45,0.40,-0.76,2.97,
0.438,-3.20,-0.75,-0.45,0.32,-0.69,2.97,
0.441,-2.98,-1.03,0.02,0.32,-0.69,2.97,
0.441,-2.98,-1.03,0.02,0.23,-0.59,2.96,
0.443,-2.98,-1.03,0.02,0.12,-0.49,2.93,
0.446,-2.98,-1.03,0.02,-0.08,-0.32,2.86,
0.446,-2.98,-1.03,0.02,-0.15,-0.26,2.83,
0.448,-2.98,-1.03,0.02,-0.30,-0.16,2.77,
0.45,-2.39,-1.54,-0.71,-0.30,-0.16,2.77,
0.451,-2.39,-1.54,-0.71,-0.45,-0.07,2.72,
0.452,-2.39,-1.54,-0.71,-0.58,0.00,2.67,
0.456,-2.39,-1.54,-0.71,-0.77,0.11,2.60,
0.457,-2.39,-1.54,-0.71,-0.83,0.15,2.58,
0.459,-2.39,-1.54,-0.71,-0.94,0.24,2.54,
0.461,-2.40,-1.81,-0.92,-0.94,0.24,2.54,
0.461,-2.40,-1.81,-0.92,-1.04,0.32,2.51,
0.462,-2.40,-1.81,-0.92,-1.13,0.40,2.48,
0.465,-2.40,-1.81,-0.92,-1.26,0.51,2.42,
0.466,-2.40,-1.81,-0.92,-1.30,0.55,2.41,
0.468,-2.40,-1.81,-0.92,-1.36,0.63,2.37,
0.471,-2.32,-1.47,-0.88,-1.36,0.63,2.37,
0.471,-2.32,-1.47,-0.88,-1.42,0.71,2.34,
0.473,-2.32,-1.47,-0.88,-1.46,0.80,2.29,
0.476,-2.32,-1.47,-0.88,-1.52,0.92,2.22,
0.476,-2.32,-1.47,-0.88,-1.53,0.95,2.19,
0.483,-2.32,-1.47,-0.88,-1.55,1.02,2.14,
0.483,-1.49,-1.54,-0.22,-1.55,1.02,2.14,
0.483,-1.49,-1.54,-0.22,-1.57,1.08,2.07,
0.484,-1.49,-1.54,-0.22,-1.58,1.12,2.00,
0.486,-1.49,-1.54,-0.22,-1.59,1.19,1.89,
0.487,-1.49,-1.54,-0.22,-1.59,1.21,1.85,
0.498,-1.49,-1.54,-0.22,-1.59,1.24,1.78,
0.499,-0.40,-1.54,0.32,-1.59,1.24,1.78,
0.499,-0.40,-1.54,0.32,-1.58,1.26,1.70,
0.499,-0.40,-1.54,0.32,-1.58,1.28,1.62,
0.499,-0.40,-1.54,0.32,-1.56,1.30,1.51,
0.499,-0.40,-1.54,0.32,-1.55,1.30,1.47,
0.5,-0.40,-1.54,0.32,-1.54,1.30,1.39,
0.502,0.02,-1.67,0.53,-1.54,1.30,1.39,
0.502,0.02,-1.67,0.53,-1.53,1.30,1.32,
0.54,0.02,-1.67,0.53,-1.51,1.31,1.24,
0.54,0.02,-1.67,0.53,-1.49,1.32,1.14,
0.54,0.02,-1.67,0.53,-1.49,1.33,1.10,
0.541,0.02,-1.67,0.53,-1.48,1.35,1.03,
0.541,-0.14,-1.79,0.29,-1.48,1.35,1.03,
0.541,-0.14,-1.79,0.29,-1.48,1.37,0.96,
0.541,-0.14,-1.79,0.29,-1.48,1.40,0.88,
0.541,-0.14,-1.79,0.29,-1.49,1.45,0.77,
0.541,-0.14,-1.79,0.29,-1.49,1.47,0.74,
0.542,-0.14,-1.79,0.29,-1.50,1.51,0.67,
0.542,-0.20,-2.01,0.05,-1.50,1.51,0.67,
0.542,-0.20,-2.01,0.05,-1.51,1.56,0.60,
0.542,-0.20,-2.01,0.05,-1.53,1.60,0.53,
0.542,-0.20,-2.01,0.05,-1.56,1.65,0.44,
0.542,-0.20,-2.01,0.05,-1.58,1.66,0.42,
0.542,-0.20,-2.01,0.05,-1.62,1.67,0.37,
0.543,-0.32,-2.46,-0.49,-1.62,1.67,0.37,
0.543,-0.32,-2.46,-0.49,-1.67,1.66,0.33,
0.543,-0.32,-2.46,-0.49,-1.72,1.64,0.29,
0.543,-0.32,-2.46,-0.49,-1.82,1.61,0.24,
0.543,-0.32,-2.46,-0.49,-1.86,1.60,0.22,
0.543,-0.32,-2.46,-0.49,-1.93,1.59,0.20,
0.544,-0.89,-2.77,-1.91,-1.93,1.59,0.20,
0.544,-0.89,-2.77,-1.91,-2.01,1.59,0.17,
0.544,-0.89,-2.77,-1.91,-2.09,1.61,0.15,
0.548,-0.89,-2.77,-1.91,-2.20,1.65,0.12,
0.548,-0.89,-2.77,-1.91,-2.25,1.67,0.11,
0.548,-0.89,-2.77,-1.91,-2.33,1.70,0.10,
0.551,-1.19,-2.86,-2.57,-2.33,1.70,0.10,
0.551,-1.19,-2.86,-2.57,-2.41,1.74,0.09,
0.552,-1.19,-2.86,-2.57,-2.49,1.77,0.09,
0.561,-1.19,-2.86,-2.57,-2.66,1.84,0.08,
0.561,-1.19,-2.86,-2.57,-2.70,1.85,0.08,
0.565,-1.19,-2.86,-2.57,-2.74,1.87,0.08,
0.586,-1.21,-3.58,-2.85,-2.74,1.87,0.08,
0.586,-1.21,-3.58,-2.85,-2.83,1.90,0.08,
0.587,-1.21,-3.58,-2.85,-2.92,1.92,0.07,
0.587,-1.21,-3.58,-2.85,-3.04,1.96,0.06,
0.587,-1.21,-3.58,-2.85,-3.08,1.97,0.05,
0.587,-1.21,-3.58,-2.85,-3.17,1.98,0.04,
0.588,-0.85,-3.82,-2.79,-3.17,1.98,0.04,
0.588,-0.85,-3.82,-2.79,-3.24,2.00,0.04,
0.588,-0.85,-3.82,-2.79,-3.31,2.02,0.03,
0.588,-0.85,-3.82,-2.79,-3.40,2.06,0.02,
0.589,-0.85,-3.82,-2.79,-3.43,2.07,0.02,
0.589,-0.85,-3.82,-2.79,-3.48,2.10,0.01,
0.589,-0.54,-3.71,-2.02,-3.48,2.10,0.01,
0.589,-0.54,-3.71,-2.02,-3.53,2.14,0.00,
0.589,-0.54,-3.71,-2.02,-3.57,2.17,-0.01,
0.59,-0.54,-3.71,-2.02,-3.63,2.22,-0.02,
0.59,-0.54,-3.71,-2.02,-3.65,2.23,-0.02,
0.59,-0.54,-3.71,-2.02,-3.69,2.25,-0.03,
0.597,0.20,-3.29,-1.87,-3.69,2.25,-0.03,
0.598,0.20,-3.29,-1.87,-3.73,2.25,-0.03,
0.598,0.20,-3.29,-1.87,-3.76,2.24,-0.04,
0.599,0.20,-3.29,-1.87,-3.80,2.20,-0.05,
0.599,0.20,-3.29,-1.87,-3.82,2.19,-0.05,
0.599,0.20,-3.29,-1.87,-3.85,2.16,-0.06,
0.603,1.23,-3.06,-1.77,-3.85,2.16,-0.06,
0.603,1.23,-3.06,-1.77,-3.87,2.13,-0.07,
0.604,1.23,-3.06,-1.77,-3.90,2.12,-0.08,
0.607,1.23,-3.06,-1.77,-3.93,2.10,-0.10,
0.608,1.23,-3.06,-1.77,-3.94,2.09,-0.11,
0.609,1.23,-3.06,-1.77,-3.96,2.09,-0.11,
0.614,2.88,-2.93,-1.48,-3.96,2.09,-0.11,
0.614,2.88,-2.93,-1.48,-3.97,2.08,-0.12,
0.615,2.88,-2.93,-1.48,-3.99,2.05,-0.13,
0.615,2.88,-2.93,-1.48,-4.03,1.99,-0.14,
0.617,2.88,-2.93,-1.48,-4.04,1.97,-0.15,
0.619,2.88,-2.93,-1.48,-4.08,1.91,-0.16,
0.621,4.46,-2.87,-1.64,-4.08,1.91,-0.16,
0.622,4.46,-2.87,-1.64,-4.11,1.85,-0.17,
0.632,4.46,-2.87,-1.64,-4.16,1.79,-0.18,
0.633,4.46,-2.87,-1.64,-4.24,1.70,-0.21,
0.633,4.46,-2.87,-1.64,-4.27,1.67,-0.22,
0.633,4.46,-2.87,-1.64,-4.33,1.61,-0.25,
0.634,5.53,-3.52,-2.03,-4.33,1.61,-0.25,
0.634,5.53,-3.52,-2.03,-4.39,1.55,-0.28,
0.637,5.53,-3.52,-2.03,-4.46,1.49,-0.31,
0.638,5.53,-3.52,-2.03,-4.58,1.39,-0.36,
0.656,5.53,-3.52,-2.03,-4.62,1.36,-0.38,
0.656,5.53,-3.52,-2.03,-4.71,1.27,-0.41,
0.657,6.05,-3.99,-2.42,-4.71,1.27,-0.41,
0.657,6.05,-3.99,-2.42,-4.81,1.18,-0.45,
0.657,6.05,-3.99,-2.42,-4.91,1.09,-0.49,
0.657,6.05,-3.99,-2.42,-5.07,0.97,-0.54,
0.658,6.05,-3.99,-2.42,-5.12,0.93,-0.55,
0.658,6.05,-3.99,-2.42,-5.23,0.87,-0.57,
0.658,5.93,-3.67,-2.54,-5.23,0.87,-0.57,
0.659,5.93,-3.67,-2.54,-5.33,0.82,-0.60,
0.659,5.93,-3.67,-2.54,-5.44,0.79,-0.61,
0.659,5.93,-3.67,-2.54,-5.59,0.75,-0.63,
0.659,5.93,-3.67,-2.54,-5.64,0.74,-0.63,
0.66,5.93,-3.67,-2.54,-5.73,0.73,-0.63,
0.662,5.29,-2.89,-2.03,-5.73,0.73,-0.63,
0.662,5.29,-2.89,-2.03,-5.82,0.71,-0.63,
0.663,5.29,-2.89,-2.03,-5.90,0.69,-0.63,
0.667,5.29,-2.89,-2.03,-6.01,0.66,-0.62,
0.667,5.29,-2.89,-2.03,-6.04,0.65,-0.62,
0.669,5.29,-2.89,-2.03,-6.09,0.63,-0.63,
0.671,4.74,-1.93,-0.52,-6.09,0.63,-0.63,
0.671,4.74,-1.93,-0.52,-6.13,0.60,-0.63,
0.673,4.74,-1.93,-0.52,-6.16,0.57,-0.65,
0.676,4.74,-1.93,-0.52,-6.18,0.52,-0.67,
0.678,4.74,-1.93,-0.52,-6.18,0.50,-0.68,
0.679,4.74,-1.93,-0.52,-6.18,0.46,-0.70,
0.68,4.90,-0.65,1.43,-6.18,0.46,-0.70,
0.681,4.90,-0.65,1.43,-6.16,0.41,-0.72,
0.682,4.90,-0.65,1.43,-6.14,0.36,-0.74,
0.687,4.90,-0.65,1.43,-6.10,0.27,-0.77,
0.687,4.90,-0.65,1.43,-6.08,0.24,-0.78,
0.689,4.90,-0.65,1.43,-6.03,0.19,-0.80,
0.691,4.68,0.38,2.82,-6.03,0.19,-0.80,
0.691,4.68,0.38,2.82,-5.98,0.15,-0.82,
0.693,4.68,0.38,2.82,-5.92,0.13,-0.83,
0.695,4.68,0.38,2.82,-5.81,0.11,-0.84,
0.696,4.68,0.38,2.82,-5.78,0.12,-0.84,
0.698,4.68,0.38,2.82,-5.70,0.14,-0.83,
0.701,4.09,0.77,3.46,-5.70,0.14,-0.83,
0.701,4.09,0.77,3.46,-5.62,0.16,-0.82,
0.702,4.09,0.77,3.46,-5.54,0.19,-0.80,
0.706,4.09,0.77,3.46,-5.41,0.24,-0.76,
0.709,4.09,0.77,3.46,-5.37,0.26,-0.74,
0.709,4.09,0.77,3.46,-5.29,0.29,-0.71,
0.711,3.20,0.67,3.53,-5.29,0.29,-0.71,
0.711,3.20,0.67,3.53,-5.21,0.32,-0.68,
0.716,3.20,0.67,3.53,-5.13,0.34,-0.65,
0.716,3.20,0.67,3.53,-5.02,0.38,-0.60,
0.716,3.20,0.67,3.53,-4.99,0.39,-0.58,
0.719,3.20,0.67,3.53,-4.93,0.42,-0.54,
0.721,2.93,0.19,3.51,-4.93,0.42,-0.54,
0.721,2.93,0.19,3.51,-4.87,0.45,-0.51,
0.724,2.93,0.19,3.51,-4.82,0.47,-0.48,
0.726,2.93,0.19,3.51,-4.76,0.51,-0.43,
0.742,2.93,0.19,3.51,-4.75,0.52,-0.41,
0.743,2.93,0.19,3.51,-4.73,0.54,-0.38,
0.743,3.02,-0.22,2.76,-4.73,0.54,-0.38,
0.744,3.02,-0.22,2.76,-4.71,0.55,-0.35,
0.744,3.02,-0.22,2.76,-4.71,0.57,-0.33,
0.744,3.02,-0.22,2.76,-4.72,0.60,-0.31,
0.745,3.02,-0.22,2.76,-4.72,0.61,-0.30,
0.745,3.02,-0.22,2.76,-4.74,0.63,-0.30,
0.745,3.84,-0.24,2.05,-4.74,0.63,-0.30,
0.745,3.84,-0.24,2.05,-4.76,0.66,-0.30,
0.745,3.84,-0.24,2.05,-4.78,0.69,-0.31,
0.746,3.84,-0.24,2.05,-4.81,0.74,-0.35,
0.75,3.84,-0.24,2.05,-4.83,0.76,-0.37,
0.75,3.84,-0.24,2.05,-4.85,0.79,-0.41,
0.751,5.32,0.16,2.13,-4.85,0.79,-0.41,
0.751,5.32,0.16,2.13,-4.87,0.81,-0.46,
0.753,5.32,0.16,2.13,-4.89,0.82,-0.52,
0.763,5.32,0.16,2.13,-4.92,0.84,-0.62,
0.763,5.32,0.16,2.13,-4.93,0.84,-0.65,
0.764,5.32,0.16,2.13,-4.95,0.84,-0.72,
0.764,6.39,0.75,2.64,-4.95,0.84,-0.72,
0.764,6.39,0.75,2.64,-4.96,0.83,-0.80,
0.764,6.39,0.75,2.64,-4.97,0.82,-0.88,
0.766,6.39,0.75,2.64,-4.98,0.81,-1.00,
0.766,6.39,0.75,2.64,-4.98,0.80,-1.04,
0.769,6.39,0.75,2.64,-4.97,0.79,-1.12,
0.788,6.39,0.75,2.64,-4.95,0.76,-1.20,
0.788,6.46,1.03,3.53,-4.95,0.76,-1.20,
0.788,6.46,1.03,3.53,-4.94,0.74,-1.29,
0.788,6.46,1.03,3.53,-4.90,0.69,-1.40,
0.789,6.46,1.03,3.53,-4.89,0.67,-1.44,
0.789,6.46,1.03,3.53,-4.86,0.62,-1.51,
0.789,6.17,1.53,4.51,-4.86,0.62,-1.51,
0.789,6.17,1.53,4.51,-4.83,0.57,-1.58,
0.789,6.17,1.53,4.51,-4.80,0.51,-1.65,
0.789,6.17,1.53,4.51,-4.76,0.42,-1.74,
0.79,6.17,1.53,4.51,-4.74,0.38,-1.77,
0.79,6.17,1.53,4.51,-4.71,0.32,-1.83,
0.792,5.65,1.71,4.83,-4.71,0.32,-1.83,
0.792,5.65,1.71,4.83,-4.68,0.26,-1.88,
0.792,5.65,1.71,4.83,-4.65,0.21,-1.94,
0.795,5.65,1.71,4.83,-4.60,0.14,-2.02,
0.796,5.65,1.71,4.83,-4.57,0.12,-2.04,
0.798,5.65,1.71,4.83,-4.53,0.09,-2.09,
0.801,5.37,2.09,5.50,-4.53,0.09,-2.09,
0.801,5.37,2.09,5.50,-4.47,0.05,-2.14,
0.802,5.37,2.09,5.50,-4.42,0.01,-2.18,
0.805,5.37,2.09,5.50,-4.32,-0.05,-2.24,
0.806,5.37,2.09,5.50,-4.29,-0.07,-2.26,
0.808,5.37,2.09,5.50,-4.22,-0.11,-2.29,
0.81,4.83,2.58,6.44,-4.22,-0.11,-2.29,
0.81,4.83,2.58,6.44,-4.14,-0.16,-2.32,
0.812,4.83,2.58,6.44,-4.07,-0.20,-2.34,
0.815,4.83,2.58,6.44,-3.95,-0.26,-2.37,
0.816,4.83,2.58,6.44,-3.91,-0.28,-2.37,
0.818,4.83,2.58,6.44,-3.82,-0.32,-2.37,
0.821,3.75,2.83,7.03,-3.82,-0.32,-2.37,
0.821,3.75,2.83,7.03,-3.74,-0.37,-2.37,
0.823,3.75,2.83,7.03,-3.65,-0.42,-2.36,
0.825,3.75,2.83,7.03,-3.51,-0.47,-2.34,
0.826,3.75,2.83,7.03,-3.47,-0.48,-2.33,
0.828,3.75,2.83,7.03,-3.38,-0.50,-2.30,
0.83,2.56,2.68,7.18,-3.38,-0.50,-2.30,
0.831,2.56,2.68,7.18,-3.29,-0.51,-2.26,
0.832,2.56,2.68,7.18,-3.21,-0.52,-2.21,
0.835,2.56,2.68,7.18,-3.08,-0.53,-2.13,
0.836,2.56,2.68,7.18,-3.04,-0.54,-2.10,
0.838,2.56,2.68,7.18,-2.97,-0.55,-2.03,
0.84,1.28,2.78,6.73,-2.97,-0.55,-2.03,
0.841,1.28,2.78,6.73,-2.89,-0.56,-1.96,
0.842,1.28,2.78,6.73,-2.81,-0.58,-1.89,
0.845,1.28,2.78,6.73,-2.71,-0.60,-1.77,
0.846,1.28,2.78,6.73,-2.67,-0.61,-1.73,
0.849,1.28,2.78,6.73,-2.60,-0.62,-1.66,
0.852,0.30,2.96,6.26,-2.60,-0.62,-1.66,
0.853,0.30,2.96,6.26,-2.53,-0.63,-1.58,
0.853,0.30,2.96,6.26,-2.45,-0.65,-1.51,
0.856,0.30,2.96,6.26,-2.34,-0.66,-1.40,
0.857,0.30,2.96,6.26,-2.30,-0.67,-1.37,
0.858,0.30,2.96,6.26,-2.22,-0.67,-1.31,
0.86,-0.21,3.50,6.69,-2.22,-0.67,-1.31,
0.861,-0.21,3.50,6.69,-2.14,-0.68,-1.25,
0.862,-0.21,3.50,6.69,-2.06,-0.68,-1.19,
0.866,-0.21,3.50,6.69,-1.93,-0.68,-1.12,
0.867,-0.21,3.50,6.69,-1.89,-0.68,-1.10,
0.868,-0.21,3.50,6.69,-1.80,-0.67,-1.06,
0.871,-0.39,3.95,7.02,-1.80,-0.67,-1.06,
0.873,-0.39,3.95,7.02,-1.71,-0.66,-1.03,
0.873,-0.39,3.95,7.02,-1.62,-0.65,-1.00,
0.876,-0.39,3.95,7.02,-1.48,-0.63,-0.97,
0.877,-0.39,3.95,7.02,-1.43,-0.62,-0.96,
0.879,-0.39,3.95,7.02,-1.34,-0.60,-0.94,
0.88,-0.39,4.37,7.39,-1.34,-0.60,-0.94,
0.881,-0.39,4.37,7.39,-1.24,-0.58,-0.93,
0.882,-0.39,4.37,7.39,-1.15,-0.55,-0.92,
0.885,-0.39,4.37,7.39,-1.00,-0.50,-0.91,
0.89,-0.39,4.37,7.39,-0.95,-0.49,-0.90,
0.891,-0.39,4.37,7.39,-0.85,-0.47,-0.90,
0.891,-0.49,4.34,7.25,-0.85,-0.47,-0.90,
0.891,-0.49,4.34,7.25,-0.75,-0.45,-0.90,
0.903,-0.49,4.34,7.25,-0.64,-0.45,-0.90,
0.903,-0.49,4.34,7.25,-0.49,-0.46,-0.91,
0.903,-0.49,4.34,7.25,-0.44,-0.46,-0.91,
0.903,-0.49,4.34,7.25,-0.34,-0.48,-0.91,
0.903,-0.63,3.82,7.20,-0.34,-0.48,-0.91,
0.904,-0.63,3.82,7.20,-0.24,-0.50,-0.92,
0.904,-0.63,3.82,7.20,-0.13,-0.53,-0.93,
0.915,-0.63,3.82,7.20,0.07,-0.57,-0.97,
0.915,-0.63,3.82,7.20,0.12,-0.59,-0.98,
0.915,-0.63,3.82,7.20,0.17,-0.61,-0.99,
0.916,-0.74,3.18,6.97,0.17,-0.61,-0.99,
0.916,-0.74,3.18,6.97,0.28,-0.67,-1.01,
0.916,-0.74,3.18,6.97,0.38,-0.72,-1.03,
0.916,-0.74,3.18,6.97,0.54,-0.79,-1.05,
0.916,-0.74,3.18,6.97,0.59,-0.81,-1.06,
0.918,-0.74,3.18,6.97,0.68,-0.84,-1.08,
0.924,-0.94,2.33,6.66,0.68,-0.84,-1.08,
0.924,-0.94,2.33,6.66,0.77,-0.86,-1.09,
0.924,-0.94,2.33,6.66,0.86,-0.87,-1.10,
0.925,-0.94,2.33,6.66,0.98,-0.87,-1.10,
0.926,-0.94,2.33,6.66,1.02,-0.86,-1.10,
0.928,-0.94,2.33,6.66,1.10,-0.85,-1.10,
0.93,-1.29,1.56,5.39,1.10,-0.85,-1.10,
0.93,-1.29,1.56,5.39,1.17,-0.83,-1.10,
0.932,-1.29,1.56,5.39,1.25,-0.80,-1.09,
0.935,-1.29,1.56,5.39,1.36,-0.75,-1.08,
0.937,-1.29,1.56,5.39,1.39,-0.74,-1.07,
0.938,-1.29,1.56,5.39,1.46,-0.72,-1.06,
0.94,-1.77,1.32,4.65,1.46,-0.72,-1.06,
0.94,-1.77,1.32,4.65,1.51,-0.70,-1.05,
0.942,-1.77,1.32,4.65,1.55,-0.68,-1.03,
0.945,-1.77,1.32,4.65,1.61,-0.66,-1.00,
0.946,-1.77,1.32,4.65,1.63,-0.65,-0.99,
0.948,-1.77,1.32,4.65,1.67,-0.63,-0.97,
0.951,-2.23,1.01,3.32,1.67,-0.63,-0.97,
0.951,-2.23,1.01,3.32,1.71,-0.61,-0.94,
0.952,-2.23,1.01,3.32,1.75,-0.60,-0.91,
0.955,-2.23,1.01,3.32,1.80,-0.57,-0.87,
0.956,-2.23,1.01,3.32,1.82,-0.57,-0.86,
0.958,-2.23,1.01,3.32,1.85,-0.56,-0.84,
0.96,-2.33,0.70,2.56,1.85,-0.56,-0.84,
0.96,-2.33,0.70,2.56,1.88,-0.54,-0.81,
0.962,-2.33,0.70,2.56,1.90,-0.52,-0.77,
0.965,-2.33,0.70,2.56,1.93,-0.49,-0.73,
0.966,-2.33,0.70,2.56,1.93,-0.47,-0.71,
0.968,-2.33,0.70,2.56,1.94,-0.44,-0.67,
0.97,-2.41,0.45,1.24,1.94,-0.44,-0.67,
0.97,-2.41,0.45,1.24,1.95,-0.42,-0.64,
0.972,-2.41,0.45,1.24,1.95,-0.40,-0.60,
0.975,-2.41,0.45,1.24,1.96,-0.39,-0.54,
0.977,-2.41,0.45,1.24,1.96,-0.39,-0.52,
0.978,-2.41,0.45,1.24,1.96,-0.41,-0.48,
0.98,-2.51,0.13,0.54,1.96,-0.41,-0.48,
0.981,-2.51,0.13,0.54,1.95,-0.42,-0.45,
0.982,-2.51,0.13,0.54,1.94,-0.44,-0.41,
0.985,-2.51,0.13,0.54,1.91,-0.48,-0.37,
0.987,-2.51,0.13,0.54,1.89,-0.49,-0.35,
0.988,-2.51,0.13,0.54,1.87,-0.51,-0.33,
0.99,-2.31,-0.11,-0.47,1.87,-0.51,-0.33,
0.991,-2.31,-0.11,-0.47,1.83,-0.52,-0.30,
0.992,-2.31,-0.11,-0.47,1.80,-0.54,-0.27,
0.995,-2.31,-0.11,-0.47,1.75,-0.57,-0.22,
0.996,-2.31,-0.11,-0.47,1.73,-0.58,-0.21,
0.998,-2.31,-0.11,-0.47,1.70,-0.60,-0.18,
1.001,-2.69,-0.47,-0.95,1.70,-0.60,-0.18,
1.001,-2.69,-0.47,-0.95,1.67,-0.62,-0.15,
1.002,-2.69,-0.47,-0.95,1.63,-0.63,-0.12,
1.005,-2.69,-0.47,-0.95,1.59,-0.65,-0.07,
1.007,-2.69,-0.47,-0.95,1.58,-0.66,-0.05,
1.01,-2.69,-0.47,-0.95,1.54,-0.66,-0.02,
1.011,-3.12,-0.85,-1.34,1.54,-0.66,-0.02,
1.011,-3.12,-0.85,-1.34,1.52,-0.65,0.01,
1.012,-3.12,-0.85,-1.34,1.49,-0.64,0.04,
1.015,-3.12,-0.85,-1.34,1.46,-0.60,0.09,
1.018,-3.12,-0.85,-1.34,1.45,-0.58,0.10,
1.018,-3.12,-0.85,-1.34,1.44,-0.55,0.12,
1.023,-3.48,-1.19,-1.58,1.44,-0.55,0.12,
1.023,-3.48,-1.19,-1.58,1.44,-0.50,0.15,
1.023,-3.48,-1.19,-1.58,1.44,-0.46,0.17,
1.029,-3.48,-1.19,-1.58,1.46,-0.39,0.18,
1.029,-3.48,-1.19,-1.58,1.47,-0.36,0.18,
1.029,-3.48,-1.19,-1.58,1.49,-0.32,0.18,
1.031,-3.01,-0.71,-1.03,1.49,-0.32,0.18,
1.031,-3.01,-0.71,-1.03,1.52,-0.27,0.16,
1.032,-3.01,-0.71,-1.03,1.56,-0.23,0.15,
1.035,-3.01,-0.71,-1.03,1.63,-0.17,0.12,
1.045,-3.01,-0.71,-1.03,1.67,-0.15,0.11,
1.045,-3.01,-0.71,-1.03,1.75,-0.10,0.10,
1.045,-2.29,0.64,0.85,1.75,-0.10,0.10,
1.046,-2.29,0.64,0.85,1.86,-0.07,0.08,
1.046,-2.29,0.64,0.85,1.95,-0.06,0.05,
1.046,-2.29,0.64,0.85,2.03,-0.08,-0.03,
1.047,-2.29,0.64,0.85,2.05,-0.09,-0.06,
1.048,-2.29,0.64,0.85,2.06,-0.11,-0.12,
1.051,0.27,0.61,-0.47,2.06,-0.11,-0.12,
1.051,0.27,0.61,-0.47,2.06,-0.11,-0.17,
1.053,0.27,0.61,-0.47,2.05,-0.11,-0.20,
1.056,0.27,0.61,-0.47,2.03,-0.10,-0.20,
1.057,0.27,0.61,-0.47,2.03,-0.10,-0.20,
1.059,0.27,0.61,-0.47,2.03,-0.11,-0.18,
1.085,-0.77,-0.06,-1.09,2.03,-0.11,-0.18,
1.086,-0.77,-0.06,-1.09,2.03,-0.13,-0.15,
1.086,-0.77,-0.06,-1.09,2.03,-0.17,-0.12,
1.087,-0.77,-0.06,-1.09,1.99,-0.23,-0.08,
1.087,-0.77,-0.06,-1.09,1.98,-0.25,-0.06,
1.088,-0.77,-0.06,-1.09,1.94,-0.27,-0.03,
1.088,-0.70,-1.05,-1.95,1.94,-0.27,-0.03,
1.089,-0.70,-1.05,-1.95,1.89,-0.29,0.00,
1.089,-0.70,-1.05,-1.95,1.84,-0.30,0.04,
1.089,-0.70,-1.05,-1.95,1.75,-0.31,0.08,
1.09,-0.70,-1.05,-1.95,1.72,-0.32,0.10,
1.09,-0.70,-1.05,-1.95,1.66,-0.33,0.13,
1.091,-0.41,-1.72,-3.13,1.66,-0.33,0.13,
1.091,-0.41,-1.72,-3.13,1.59,-0.34,0.16,
1.092,-0.41,-1.72,-3.13,1.53,-0.36,0.18,
1.092,-0.41,-1.72,-3.13,1.43,-0.38,0.22,
1.092,-0.41,-1.72,-3.13,1.40,-0.39,0.23,
1.093,-0.41,-1.72,-3.13,1.33,-0.40,0.25,
1.093,-0.00,-1.98,-3.18,1.33,-0.40,0.25,
1.094,-0.00,-1.98,-3.18,1.26,-0.41,0.26,
1.094,-0.00,-1.98,-3.18,1.19,-0.42,0.27,
1.103,-0.00,-1.98,-3.18,1.10,-0.41,0.29,
1.103,-0.00,-1.98,-3.18,1.06,-0.40,0.29,
1.103,-0.00,-1.98,-3.18,1.00,-0.38,0.29,
1.104,0.56,-2.60,-3.33,1.00,-0.38,0.29,
1.105,0.56,-2.60,-3.33,0.94,-0.36,0.30,
1.105,0.56,-2.60,-3.33,0.89,-0.33,0.30,
1.106,0.56,-2.60,-3.33,0.82,-0.29,0.30,
1.107,0.56,-2.60,-3.33,0.80,-0.28,0.31,
1.108,0.56,-2.60,-3.33,0.76,-0.26,0.31,
1.11,0.42,-2.86,-2.84,0.76,-0.26,0.31,
1.111,0.42,-2.86,-2.84,0.73,-0.24,0.32,
1.112,0.42,-2.86,-2.84,0.70,-0.23,0.33,
1.115,0.42,-2.86,-2.84,0.68,-0.21,0.35,
1.116,0.42,-2.86,-2.84,0.67,-0.20,0.35,
1.118,0.42,-2.86,-2.84,0.66,-0.19,0.36,
1.121,-0.24,-2.87,-1.90,0.66,-0.19,0.36,
1.121,-0.24,-2.87,-1.90,0.65,-0.17,0.37,
1.122,-0.24,-2.87,-1.90,0.64,-0.16,0.37,
1.125,-0.24,-2.87,-1.90,0.63,-0.15,0.38,
1.127,-0.24,-2.87,-1.90,0.63,-0.16,0.38,
1.128,-0.24,-2.87,-1.90,0.62,-0.17,0.38,
1.131,-0.64,-3.00,-1.08,0.62,-0.17,0.38,
1.131,-0.64,-3.00,-1.08,0.61,-0.18,0.38,
1.132,-0.64,-3.00,-1.08,0.60,-0.19,0.38,
1.136,-0.64,-3.00,-1.08,0.58,-0.17,0.38,
1.139,-0.64,-3.00,-1.08,0.58,-0.16,0.37,
1.143,-0.64,-3.00,-1.08,0.56,-0.15,0.36,
1.143,-0.42,-3.41,-0.35,0.56,-0.15,0.36,
1.143,-0.42,-3.41,-0.35,0.55,-0.14,0.36,
1.143,-0.42,-3.41,-0.35,0.54,-0.13,0.36,
1.145,-0.42,-3.41,-0.35,0.52,-0.13,0.37,
1.146,-0.42,-3.41,-0.35,0.51,-0.13,0.37,
1.148,-0.42,-3.41,-0.35,0.49,-0.13,0.38,
1.151,-0.62,-3.47,0.42,0.49,-0.13,0.38,
1.151,-0.62,-3.47,0.42,0.48,-0.13,0.39,
1.153,-0.62,-3.47,0.42,0.46,-0.14,0.40,
1.156,-0.62,-3.47,0.42,0.44,-0.14,0.43,
1.162,-0.62,-3.47,0.42,0.43,-0.15,0.45,
1.162,-0.62,-3.47,0.42,0.42,-0.16,0.47,
1.164,-1.26,-3.81,1.34,0.42,-0.16,0.47,
1.164,-1.26,-3.81,1.34,0.42,-0.18,0.50,
1.165,-1.26,-3.81,1.34,0.41,-0.20,0.54,
1.166,-1.26,-3.81,1.34,0.39,-0.23,0.60,
1.167,-1.26,-3.81,1.34,0.39,-0.24,0.62,
1.168,-1.26,-3.81,1.34,0.38,-0.26,0.67,
1.173,-1.75,-3.76,1.95,0.38,-0.26,0.67,
1.174,-1.75,-3.76,1.95,0.37,-0.27,0.72,
1.174,-1.75,-3.76,1.95,0.36,-0.27,0.77,
1.176,-1.75,-3.76,1.95,0.33,-0.28,0.86,
1.176,-1.75,-3.76,1.95,0.32,-0.28,0.89,
1.181,-1.75,-3.76,1.95,0.29,-0.28,0.95,
1.181,-2.47,-3.85,1.73,0.29,-0.28,0.95,
1.182,-2.47,-3.85,1.73,0.26,-0.28,1.01,
1.186,-2.47,-3.85,1.73,0.23,-0.27,1.07,
1.186,-2.47,-3.85,1.73,0.16,-0.27,1.16,
1.187,-2.47,-3.85,1.73,0.14,-0.27,1.20,
1.196,-2.47,-3.85,1.73,0.09,-0.29,1.27,
1.197,-2.79,-3.85,1.05,0.09,-0.29,1.27,
1.197,-2.79,-3.85,1.05,0.04,-0.30,1.35,
1.198,-2.79,-3.85,1.05,-0.01,-0.32,1.43,
1.198,-2.79,-3.85,1.05,-0.09,-0.35,1.55,
1.198,-2.79,-3.85,1.05,-0.11,-0.36,1.59,
1.198,-2.79,-3.85,1.05,-0.17,-0.38,1.68,
1.202,-3.40,-3.60,0.70,-0.17,-0.38,1.68,
1.203,-3.40,-3.60,0.70,-0.22,-0.40,1.78,
1.249,-3.40,-3.60,0.70,-0.27,-0.41,1.88,
1.25,-3.40,-3.60,0.70,-0.35,-0.41,2.03,
1.25,-3.40,-3.60,0.70,-0.37,-0.40,2.08,
1.25,-3.40,-3.60,0.70,-0.41,-0.39,2.19,
1.25,-3.94,-3.08,0.13,-0.41,-0.39,2.19,
1.251,-3.94,-3.08,0.13,-0.43,-0.37,2.31,
1.251,-3.94,-3.08,0.13,-0.46,-0.35,2.44,
1.251,-3.94,-3.08,0.13,-0.47,-0.33,2.63,
1.251,-3.94,-3.08,0.13,-0.48,-0.32,2.76,
1.251,-3.94,-3.08,0.13,-0.48,-0.32,2.82,
1.252,-4.43,-2.64,0.09,-0.48,-0.32,2.82,
1.252,-4.43,-2.64,0.09,-0.48,-0.32,2.94,
1.252,-4.43,-2.64,0.09,-0.48,-0.32,3.05,
1.252,-4.43,-2.64,0.09,-0.46,-0.30,3.20,
1.273,-4.43,-2.64,0.09,-0.45,-0.30,3.25,
1.273,-4.43,-2.64,0.09,-0.42,-0.30,3.33,
1.273,-3.63,-1.74,-0.06,-0.42,-0.30,3.33,
1.273,-3.63,-1.74,-0.06,-0.39,-0.30,3.39,
1.274,-3.63,-1.74,-0.06,-0.36,-0.32,3.44,
1.274,-3.63,-1.74,-0.06,-0.31,-0.36,3.52,
1.274,-3.63,-1.74,-0.06,-0.29,-0.37,3.54,
1.274,-3.63,-1.74,-0.06,-0.26,-0.38,3.57,
1.274,-2.73,-0.78,-0.17,-0.26,-0.38,3.57,
1.275,-2.73,-0.78,-0.17,-0.23,-0.39,3.60,
1.275,-2.73,-0.78,-0.17,-0.21,-0.39,3.61,
1.275,-2.73,-0.78,-0.17,-0.18,-0.37,3.61,
1.276,-2.73,-0.78,-0.17,-0.17,-0.36,3.60,
1.276,-2.73,-0.78,-0.17,-0.14,-0.35,3.58,
1.276,-1.18,-0.03,-0.98,-0.14,-0.35,3.58,
1.276,-1.18,-0.03,-0.98,-0.12,-0.32,3.54,
1.276,-1.18,-0.03,-0.98,-0.09,-0.30,3.50,
1.277,-1.18,-0.03,-0.98,-0.06,-0.24,3.36,
1.277,-1.18,-0.03,-0.98,-0.04,-0.19,3.26,
1.277,-1.18,-0.03,-0.98,-0.03,-0.16,3.21,
1.277,1.10,0.43,-1.73,-0.03,-0.16,3.21,
1.277,1.10,0.43,-1.73,-0.02,-0.13,3.16,
1.278,1.10,0.43,-1.73,0.00,-0.07,3.04,
1.278,1.10,0.43,-1.73,0.02,0.02,2.84,
1.278,1.10,0.43,-1.73,0.03,0.09,2.70,
1.278,3.01,1.05,-2.24,0.03,0.09,2.70,
1.279,3.01,1.05,-2.24,0.05,0.27,2.31,
1.279,3.01,1.05,-2.24,0.05,0.27,2.31,
1.279,3.01,1.05,-2.24,0.05,0.27,2.31,
1.279,3.01,1.05,-2.24,0.05,0.36,2.05,
1.279,3.01,1.05,-2.24,0.06,0.41,1.87,
1.28,3.01,1.05,-2.24,0.06,0.43,1.78,
1.285,4.16,1.09,-2.44,0.06,0.43,1.78,
1.285,4.16,1.09,-2.44,0.06,0.47,1.59,
1.285,4.16,1.09,-2.44,0.06,0.50,1.40,
1.29,4.16,1.09,-2.44,0.07,0.53,1.12,
1.291,4.16,1.09,-2.44,0.07,0.53,1.03,
1.291,4.16,1.09,-2.44,0.07,0.55,0.85,
1.291,5.29,0.88,-2.20,0.07,0.55,0.85,
1.291,5.29,0.88,-2.20,0.07,0.54,0.68,
1.292,5.29,0.88,-2.20,0.07,0.53,0.52,
1.296,5.29,0.88,-2.20,0.09,0.50,0.29,
1.297,5.29,0.88,-2.20,0.09,0.49,0.23,
1.298,5.29,0.88,-2.20,0.10,0.46,0.10,
1.3,5.20,0.80,-1.65,0.10,0.46,0.10,
1.301,5.20,0.80,-1.65,0.11,0.43,-0.01,
1.309,5.20,0.80,-1.65,0.11,0.38,-0.10,
1.31,5.20,0.80,-1.65,0.12,0.28,-0.21,
1.31,5.20,0.80,-1.65,0.12,0.25,-0.24,
1.311,5.20,0.80,-1.65,0.11,0.19,-0.28,
1.311,4.05,0.51,-1.20,0.11,0.19,-0.28,
1.312,4.05,0.51,-1.20,0.11,0.14,-0.31,
1.313,4.05,0.51,-1.20,0.09,0.10,-0.31,
1.317,4.05,0.51,-1.20,0.06,0.05,-0.28,
1.317,4.05,0.51,-1.20,0.03,0.02,-0.23,
1.329,4.05,0.51,-1.20,0.02,0.01,-0.20,
1.329,2.26,0.47,-1.67,0.02,0.01,-0.20,
1.33,2.26,0.47,-1.67,-0.01,-0.01,-0.13,
1.33,2.26,0.47,-1.67,-0.05,-0.02,-0.03,
1.33,2.26,0.47,-1.67,-0.10,-0.04,0.16,
1.33,2.26,0.47,-1.67,-0.12,-0.04,0.23,
1.33,2.26,0.47,-1.67,-0.17,-0.04,0.38,
1.332,-0.92,0.08,-2.11,-0.17,-0.04,0.38,
1.333,-0.92,0.08,-2.11,-0.21,-0.02,0.55,
1.334,-0.92,0.08,-2.11,-0.26,-0.00,0.73,
1.373,-0.92,0.08,-2.11,-0.32,0.03,1.02,
1.375,-0.92,0.08,-2.11,-0.35,0.04,1.11,
1.375,-0.92,0.08,-2.11,-0.39,0.08,1.30,
1.376,-3.09,-0.81,-2.64,-0.39,0.08,1.30,
1.376,-3.09,-0.81,-2.64,-0.44,0.12,1.47,
1.376,-3.09,-0.81,-2.64,-0.48,0.16,1.63,
1.376,-3.09,-0.81,-2.64,-0.52,0.21,1.85,
1.376,-3.09,-0.81,-2.64,-0.55,0.25,1.98,
1.376,-3.09,-0.81,-2.64,-0.56,0.27,2.03,
1.376,-2.48,-1.02,-2.28,-0.56,0.27,2.03,
1.376,-2.48,-1.02,-2.28,-0.57,0.31,2.13,
1.377,-2.48,-1.02,-2.28,-0.57,0.35,2.20,
1.377,-2.48,-1.02,-2.28,-0.56,0.42,2.27,
1.377,-2.48,-1.02,-2.28,-0.56,0.44,2.28,
1.377,-2.48,-1.02,-2.28,-0.55,0.51,2.28,
1.377,-0.27,-0.76,-1.59,-0.55,0.51,2.28,
1.377,-0.27,-0.76,-1.59,-0.53,0.58,2.25,
1.377,-0.27,-0.76,-1.59,-0.51,0.64,2.20,
1.377,-0.27,-0.76,-1.59,-0.46,0.74,2.07,
1.378,-0.27,-0.76,-1.59,-0.42,0.79,1.96,
1.378,-0.27,-0.76,-1.59,-0.39,0.81,1.90,
1.378,2.60,-0.65,-0.56,-0.39,0.81,1.90,
1.378,2.60,-0.65,-0.56,-0.34,0.83,1.76,
1.378,2.60,-0.65,-0.56,-0.27,0.85,1.61,
1.378,2.60,-0.65,-0.56,-0.16,0.85,1.36,
1.378,2.60,-0.65,-0.56,-0.06,0.84,1.18,
1.379,2.60,-0.65,-0.56,-0.01,0.84,1.10,
1.381,4.66,0.39,1.92,-0.01,0.84,1.10,
1.381,4.66,0.39,1.92,0.09,0.83,0.92,
1.384,4.66,0.39,1.92,0.20,0.82,0.74,
1.385,4.66,0.39,1.92,0.34,0.76,0.46,
1.389,4.66,0.39,1.92,0.38,0.74,0.36,
1.389,4.66,0.39,1.92,0.44,0.67,0.18,
1.395,5.57,1.09,3.12,0.44,0.67,0.18,
1.395,5.57,1.09,3.12,0.48,0.61,0.01,
1.407,5.57,1.09,3.12,0.50,0.55,-0.16,
1.407,5.57,1.09,3.12,0.52,0.46,-0.38,
1.408,5.57,1.09,3.12,0.51,0.44,-0.44,
1.408,5.57,1.09,3.12,0.50,0.39,-0.56,
1.408,4.29,1.07,2.17,0.50,0.39,-0.56,
1.408,4.29,1.07,2.17,0.49,0.35,-0.65,
1.408,4.29,1.07,2.17,0.47,0.33,-0.73,
1.409,4.29,1.07,2.17,0.43,0.31,-0.81,
1.409,4.29,1.07,2.17,0.42,0.30,-0.82,
1.409,4.29,1.07,2.17,0.39,0.30,-0.85,
1.412,1.58,-0.00,2.30,0.39,0.30,-0.85,
1.412,1.58,-0.00,2.30,0.36,0.30,-0.86,
1.412,1.58,-0.00,2.30,0.33,0.30,-0.86,
1.416,1.58,-0.00,2.30,0.28,0.29,-0.84,
1.416,1.58,-0.00,2.30,0.25,0.28,-0.82,
1.418,1.58,-0.00,2.30,0.24,0.27,-0.81,
1.42,-0.87,-0.74,2.09,0.24,0.27,-0.81,
1.421,-0.87,-0.74,2.09,0.22,0.25,-0.78,
1.423,-0.87,-0.74,2.09,0.21,0.23,-0.74,
1.425,-0.87,-0.74,2.09,0.20,0.20,-0.68,
1.426,-0.87,-0.74,2.09,0.20,0.18,-0.66,
1.428,-0.87,-0.74,2.09,0.20,0.15,-0.62,
1.431,-1.87,-1.14,1.93,0.20,0.15,-0.62,
1.431,-1.87,-1.14,1.93,0.20,0.11,-0.58,
1.432,-1.87,-1.14,1.93,0.20,0.08,-0.54,
1.439,-1.87,-1.14,1.93,0.21,0.02,-0.47,
1.439,-1.87,-1.14,1.93,0.22,0.00,-0.46,
1.44,-1.87,-1.14,1.93,0.23,-0.04,-0.42,
1.441,-1.95,-1.21,1.39,0.23,-0.04,-0.42,
1.441,-1.95,-1.21,1.39,0.23,-0.08,-0.39,
1.442,-1.95,-1.21,1.39,0.24,-0.11,-0.37,
1.445,-1.95,-1.21,1.39,0.25,-0.17,-0.36,
1.447,-1.95,-1.21,1.39,0.26,-0.19,-0.36,
1.448,-1.95,-1.21,1.39,0.27,-0.22,-0.36,
1.451,-1.05,-1.04,0.79,0.27,-0.22,-0.36,
1.451,-1.05,-1.04,0.79,0.28,-0.24,-0.38,
1.465,-1.05,-1.04,0.79,0.29,-0.27,-0.41,
1.465,-1.05,-1.04,0.79,0.32,-0.30,-0.47,
1.465,-1.05,-1.04,0.79,0.33,-0.31,-0.50,
1.466,-1.05,-1.04,0.79,0.34,-0.34,-0.56,
1.466,0.47,-0.90,0.69,0.34,-0.34,-0.56,
1.466,0.47,-0.90,0.69,0.33,-0.38,-0.64,
1.466,0.47,-0.90,0.69,0.30,-0.44,-0.75,
1.466,0.47,-0.90,0.69,0.22,-0.48,-0.95,
1.467,0.47,-0.90,0.69,0.16,-0.47,-1.10,
1.474,0.47,-0.90,0.69,0.13,-0.46,-1.18,
1.475,2.85,-2.10,-1.89,0.13,-0.46,-1.18,
1.475,2.85,-2.10,-1.89,0.06,-0.40,-1.35,
1.475,2.85,-2.10,-1.89,-0.01,-0.33,-1.53,
1.475,2.85,-2.10,-1.89,-0.12,-0.19,-1.79,
1.478,2.85,-2.10,-1.89,-0.16,-0.13,-1.88,
1.478,2.85,-2.10,-1.89,-0.24,-0.02,-2.04,
1.482,3.57,-4.15,-2.81,-0.24,-0.02,-2.04,
1.482,3.57,-4.15,-2.81,-0.33,0.11,-2.19,
1.482,3.57,-4.15,-2.81,-0.42,0.26,-2.33,
1.486,3.57,-4.15,-2.81,-0.59,0.50,-2.48,
1.489,3.57,-4.15,-2.81,-0.65,0.58,-2.51,
1.489,3.57,-4.15,-2.81,-0.79,0.73,-2.56,
1.492,0.05,-4.31,-3.45,-0.79,0.73,-2.56,
1.492,0.05,-4.31,-3.45,-0.93,0.86,-2.59,
1.492,0.05,-4.31,-3.45,-1.07,0.98,-2.59,
1.495,0.05,-4.31,-3.45,-1.27,1.15,-2.56,
1.498,0.05,-4.31,-3.45,-1.40,1.28,-2.52,
1.498,0.05,-4.31,-3.45,-1.46,1.34,-2.49,
1.502,-4.84,-3.27,-3.19,-1.46,1.34,-2.49,
1.502,-4.84,-3.27,-3.19,-1.56,1.47,-2.44,
1.505,-4.84,-3.27,-3.19,-1.65,1.60,-2.38,
1.505,-4.84,-3.27,-3.19,-1.76,1.80,-2.28,
1.506,-4.84,-3.27,-3.19,-1.79,1.87,-2.24,
1.508,-4.84,-3.27,-3.19,-1.85,2.00,-2.17,
1.51,-6.51,-2.59,-2.14,-1.85,2.00,-2.17,
1.511,-6.51,-2.59,-2.14,-1.90,2.13,-2.09,
1.512,-6.51,-2.59,-2.14,-1.94,2.27,-2.00,
1.515,-6.51,-2.59,-2.14,-2.01,2.51,-1.86,
1.516,-6.51,-2.59,-2.14,-2.06,2.72,-1.77,
1.518,-6.51,-2.59,-2.14,-2.10,2.83,-1.72,
1.521,-6.81,-1.81,-2.96,-2.10,2.83,-1.72,
1.521,-6.81,-1.81,-2.96,-2.17,3.08,-1.63,
1.522,-6.81,-1.81,-2.96,-2.25,3.33,-1.55,
1.525,-6.81,-1.81,-2.96,-2.41,3.73,-1.44,
1.527,-6.81,-1.81,-2.96,-2.47,3.86,-1.41,
1.528,-6.81,-1.81,-2.96,-2.62,4.13,-1.36,
1.53,-4.71,-0.08,-5.31,-2.62,4.13,-1.36,
1.531,-4.71,-0.08,-5.31,-2.80,4.42,-1.33,
1.532,-4.71,-0.08,-5.31,-2.99,4.68,-1.32,
1.535,-4.71,-0.08,-5.31,-3.17,4.80,-1.31,
1.537,-4.71,-0.08,-5.31,-3.20,4.72,-1.30,
1.538,-4.71,-0.08,-5.31,-3.20,4.65,-1.30,
1.541,-1.28,1.58,-2.21,-3.20,4.65,-1.30,
1.541,-1.28,1.58,-2.21,-3.18,4.46,-1.30,
1.542,-1.28,1.58,-2.21,-3.13,4.23,-1.31,
1.545,-1.28,1.58,-2.21,-3.02,3.84,-1.33,
1.547,-1.28,1.58,-2.21,-2.97,3.70,-1.34,
1.548,-1.28,1.58,-2.21,-2.87,3.42,-1.35,
1.563,2.62,3.45,2.93,-2.87,3.42,-1.35,
1.564,2.62,3.45,2.93,-2.74,3.12,-1.35,
1.565,2.62,3.45,2.93,-2.60,2.82,-1.35,
1.566,2.62,3.45,2.93,-2.35,2.35,-1.32,
1.566,2.62,3.45,2.93,-2.26,2.18,-1.30,
1.567,2.62,3.45,2.93,-2.08,1.85,-1.27,
1.59,4.53,6.54,5.73,-2.08,1.85,-1.27,
1.591,4.53,6.54,5.73,-1.88,1.50,-1.21,
1.591,4.53,6.54,5.73,-1.68,1.13,-1.15,
1.592,4.53,6.54,5.73,-1.36,0.58,-1.03,
1.592,4.53,6.54,5.73,-1.12,0.22,-0.94,
1.593,4.53,6.54,5.73,-1.00,0.05,-0.89,
1.593,4.11,8.61,7.52,-1.00,0.05,-0.89,
1.594,4.11,8.61,7.52,-0.75,-0.29,-0.79,
1.594,4.11,8.61,7.52,-0.48,-0.61,-0.69,
1.594,4.11,8.61,7.52,-0.05,-1.06,-0.53,
1.595,4.11,8.61,7.52,0.25,-1.33,-0.41,
1.595,4.11,8.61,7.52,0.41,-1.45,-0.36,
1.596,3.72,9.58,10.33,0.41,-1.45,-0.36,
1.596,3.72,9.58,10.33,0.72,-1.69,-0.25,
1.597,3.72,9.58,10.33,1.03,-1.90,-0.13,
1.597,3.72,9.58,10.33,1.50,-2.22,0.04,
1.597,3.72,9.58,10.33,1.81,-2.42,0.16,
1.598,3.72,9.58,10.33,1.96,-2.53,0.22,
1.598,2.95,8.31,10.85,1.96,-2.53,0.22,
1.599,2.95,8.31,10.85,2.25,-2.74,0.33,
1.599,2.95,8.31,10.85,2.53,-2.95,0.44,
1.6,2.95,8.31,10.85,2.93,-3.26,0.60,
1.6,2.95,8.31,10.85,3.18,-3.45,0.70,
1.601,2.95,8.31,10.85,3.30,-3.55,0.75,
1.601,2.11,5.71,9.28,3.30,-3.55,0.75,
1.602,2.11,5.71,9.28,3.52,-3.72,0.83,
1.607,2.11,5.71,9.28,3.73,-3.87,0.91,
1.607,2.11,5.71,9.28,4.10,-4.13,1.04,
1.608,2.11,5.71,9.28,4.25,-4.24,1.10,
1.609,2.11,5.71,9.28,4.32,-4.29,1.12,
1.61,1.58,2.76,6.09,4.32,-4.29,1.12,
1.611,1.58,2.76,6.09,4.37,-4.33,1.15,
1.612,1.58,2.76,6.09,4.44,-4.43,1.19,
1.615,1.58,2.76,6.09,4.44,-4.58,1.25,
1.621,1.58,2.76,6.09,4.38,-4.67,1.28,
1.621,1.58,2.76,6.09,4.33,-4.69,1.30,
1.622,0.73,0.80,-0.06,4.33,-4.69,1.30,
1.622,0.73,0.80,-0.06,4.24,-4.69,1.32,
1.622,0.73,0.80,-0.06,4.16,-4.62,1.34,
1.627,0.73,0.80,-0.06,4.04,-4.43,1.36,
1.627,0.73,0.80,-0.06,3.96,-4.27,1.37,
1.629,0.73,0.80,-0.06,3.90,-4.19,1.38,
1.631,-0.81,-0.17,-1.08,3.90,-4.19,1.38,
1.631,-0.81,-0.17,-1.08,3.78,-4.02,1.39,
1.632,-0.81,-0.17,-1.08,3.62,-3.84,1.40,
1.638,-0.81,-0.17,-1.08,3.33,-3.54,1.41,
1.639,-0.81,-0.17,-1.08,3.11,-3.31,1.40,
1.639,-0.81,-0.17,-1.08,3.00,-3.19,1.40,
1.64,-2.21,-0.19,-3.97,3.00,-3.19,1.40,
1.641,-2.21,-0.19,-3.97,2.77,-2.94,1.37,
1.642,-2.21,-0.19,-3.97,2.55,-2.67,1.34,
1.645,-2.21,-0.19,-3.97,2.21,-2.29,1.25,
1.647,-2.21,-0.19,-3.97,2.00,-2.05,1.17,
1.648,-2.21,-0.19,-3.97,1.90,-1.94,1.12,
1.652,-1.54,0.71,-3.79,1.90,-1.94,1.12,
1.654,-1.54,0.71,-3.79,1.70,-1.72,1.03,
1.654,-1.54,0.71,-3.79,1.51,-1.53,0.93,
1.657,-1.54,0.71,-3.79,1.27,-1.27,0.76,
1.657,-1.54,0.71,-3.79,1.13,-1.10,0.64,
1.659,-1.54,0.71,-3.79,1.07,-1.02,0.58,
1.661,-0.14,1.45,-1.57,1.07,-1.02,0.58,
1.661,-0.14,1.45,-1.57,0.97,-0.87,0.47,
1.662,-0.14,1.45,-1.57,0.89,-0.73,0.35,
1.666,-0.14,1.45,-1.57,0.79,-0.52,0.18,
1.671,-0.14,1.45,-1.57,0.74,-0.39,0.08,
1.671,-0.14,1.45,-1.57,0.72,-0.33,0.02,
1.672,0.63,2.28,0.25,0.72,-0.33,0.02,
1.672,0.63,2.28,0.25,0.70,-0.21,-0.07,
1.673,0.63,2.28,0.25,0.69,-0.11,-0.17,
1.677,0.63,2.28,0.25,0.72,0.02,-0.28,
1.677,0.63,2.28,0.25,0.77,0.08,-0.35,
1.678,0.63,2.28,0.25,0.79,0.09,-0.38,
1.681,0.31,2.60,2.81,0.79,0.09,-0.38,
1.681,0.31,2.60,2.81,0.86,0.10,-0.43,
1.684,0.31,2.60,2.81,0.95,0.09,-0.47,
1.686,0.31,2.60,2.81,1.08,0.03,-0.50,
1.687,0.31,2.60,2.81,1.18,-0.03,-0.50,
1.69,0.31,2.60,2.81,1.23,-0.05,-0.49,
1.691,-1.08,2.00,4.68,1.23,-0.05,-0.49,
1.691,-1.08,2.00,4.68,1.32,-0.11,-0.48,
1.692,-1.08,2.00,4.68,1.42,-0.18,-0.44,
1.696,-1.08,2.00,4.68,1.55,-0.26,-0.36,
1.697,-1.08,2.00,4.68,1.63,-0.30,-0.29,
1.699,-1.08,2.00,4.68,1.67,-0.31,-0.25,
1.711,-2.66,1.36,4.18,1.67,-0.31,-0.25,
1.712,-2.66,1.36,4.18,1.73,-0.33,-0.15,
1.712,-2.66,1.36,4.18,1.78,-0.36,-0.05,
1.712,-2.66,1.36,4.18,1.83,-0.39,0.14,
1.713,-2.66,1.36,4.18,1.85,-0.41,0.27,
1.713,-2.66,1.36,4.18,1.86,-0.42,0.34,
1.713,-3.95,0.68,2.05,1.86,-0.42,0.34,
1.714,-3.95,0.68,2.05,1.85,-0.46,0.47,
1.716,-3.95,0.68,2.05,1.84,-0.52,0.61,
1.717,-3.95,0.68,2.05,1.79,-0.67,0.87,
1.717,-3.95,0.68,2.05,1.77,-0.72,0.94,
1.759,-3.95,0.68,2.05,1.75,-0.77,1.00,
1.76,-4.00,-0.08,0.62,1.75,-0.77,1.00,
1.76,-4.00,-0.08,0.62,1.70,-0.87,1.12,
1.76,-4.00,-0.08,0.62,1.63,-0.98,1.24,
1.76,-4.00,-0.08,0.62,1.51,-1.13,1.42,
1.793,-4.00,-0.08,0.62,1.42,-1.23,1.54,
1.793,-4.00,-0.08,0.62,1.38,-1.27,1.60,
1.794,-3.16,-0.90,-1.73,1.38,-1.27,1.60,
1.794,-3.16,-0.90,-1.73,1.29,-1.37,1.71,
1.795,-3.16,-0.90,-1.73,1.19,-1.48,1.80,
1.795,-3.16,-0.90,-1.73,1.04,-1.65,1.92,
1.795,-3.16,-0.90,-1.73,0.93,-1.77,1.98,
1.795,-3.16,-0.90,-1.73,0.88,-1.84,2.00,
1.796,-0.82,-2.01,-3.51,0.88,-1.84,2.00,
1.796,-0.82,-2.01,-3.51,0.79,-1.97,2.03,
1.796,-0.82,-2.01,-3.51,0.70,-2.13,2.05,
1.796,-0.82,-2.01,-3.51,0.60,-2.44,2.05,
1.797,-0.82,-2.01,-3.51,0.54,-2.65,2.03,
1.797,-0.82,-2.01,-3.51,0.51,-2.76,2.01,
1.797,1.14,-3.25,-2.53,0.51,-2.76,2.01,
1.798,1.14,-3.25,-2.53,0.47,-2.95,1.97,
1.798,1.14,-3.25,-2.53,0.43,-3.12,1.92,
1.798,1.14,-3.25,-2.53,0.39,-3.30,1.82,
1.798,1.14,-3.25,-2.53,0.36,-3.38,1.75,
1.799,1.14,-3.25,-2.53,0.35,-3.41,1.72,
1.799,0.76,-4.06,-2.42,0.35,-3.41,1.72,
1.799,0.76,-4.06,-2.42,0.34,-3.45,1.65,
1.799,0.76,-4.06,-2.42,0.33,-3.46,1.59,
1.8,0.76,-4.06,-2.42,0.35,-3.43,1.48,
1.8,0.76,-4.06,-2.42,0.37,-3.41,1.46,
1.8,0.76,-4.06,-2.42,0.39,-3.39,1.43,
1.8,0.76,-4.06,-2.42,0.44,-3.35,1.40,
1.801,-1.10,-3.47,-2.19,0.44,-3.35,1.40,
1.801,-1.10,-3.47,-2.19,0.50,-3.27,1.36,
1.801,-1.10,-3.47,-2.19,0.62,-3.12,1.31,
1.801,-1.10,-3.47,-2.19,0.70,-3.02,1.28,
1.802,-1.10,-3.47,-2.19,0.75,-2.96,1.26,
1.802,-2.83,-3.24,-0.82,0.75,-2.96,1.26,
1.802,-2.83,-3.24,-0.82,0.85,-2.85,1.22,
1.803,-2.83,-3.24,-0.82,0.95,-2.76,1.18,
1.803,-2.83,-3.24,-0.82,1.11,-2.64,1.12,
1.803,-2.83,-3.24,-0.82,1.22,-2.58,1.08,
1.803,-2.83,-3.24,-0.82,1.27,-2.56,1.06,
1.804,-3.28,-2.89,0.42,1.27,-2.56,1.06,
1.804,-3.28,-2.89,0.42,1.37,-2.52,1.01,
1.804,-3.28,-2.89,0.42,1.47,-2.48,0.98,
1.804,-3.28,-2.89,0.42,1.62,-2.44,0.94,
1.805,-3.28,-2.89,0.42,1.72,-2.41,0.93,
1.805,-3.28,-2.89,0.42,1.76,-2.40,0.92,
1.805,-3.10,-2.28,1.34,1.76,-2.40,0.92,
1.805,-3.10,-2.28,1.34,1.84,-2.38,0.92,
1.806,-3.10,-2.28,1.34,1.92,-2.37,0.94,
1.806,-3.10,-2.28,1.34,2.04,-2.35,0.98,
1.811,-3.10,-2.28,1.34,2.11,-2.34,1.02,
1.811,-3.10,-2.28,1.34,2.14,-2.33,1.04,
1.811,-2.94,-1.11,1.61,2.14,-2.33,1.04,
1.812,-2.94,-1.11,1.61,2.21,-2.31,1.10,
1.816,-2.94,-1.11,1.61,2.27,-2.29,1.17,
1.817,-2.94,-1.11,1.61,2.36,-2.32,1.32,
1.817,-2.94,-1.11,1.61,2.37,-2.34,1.36,
1.82,-2.94,-1.11,1.61,2.38,-2.36,1.40,
1.821,-2.88,-1.05,1.22,2.38,-2.36,1.40,
1.821,-2.88,-1.05,1.22,2.41,-2.39,1.47,
1.825,-2.88,-1.05,1.22,2.43,-2.44,1.55,
1.825,-2.88,-1.05,1.22,2.46,-2.50,1.64,
1.829,-2.88,-1.05,1.22,2.49,-2.55,1.69,
1.829,-2.88,-1.05,1.22,2.51,-2.59,1.72,
1.833,-1.86,-1.47,1.12,2.51,-2.59,1.72,
1.833,-1.86,-1.47,1.12,2.52,-2.66,1.76,
1.834,-1.86,-1.47,1.12,2.55,-2.70,1.80,
1.84,-1.86,-1.47,1.12,2.57,-2.77,1.86,
1.841,-1.86,-1.47,1.12,2.58,-2.81,1.89,
1.841,-1.86,-1.47,1.12,2.58,-2.83,1.90,
1.842,-1.30,-1.84,0.83,2.58,-2.83,1.90,
1.842,-1.30,-1.84,0.83,2.58,-2.88,1.92,
1.844,-1.30,-1.84,0.83,2.58,-2.89,1.93,
1.848,-1.30,-1.84,0.83,2.57,-2.91,1.94,
1.848,-1.30,-1.84,0.83,2.55,-2.92,1.94,
1.849,-1.30,-1.84,0.83,2.53,-2.93,1.93,
1.862,-0.51,-2.11,0.30,2.53,-2.93,1.93,
1.863,-0.51,-2.11,0.30,2.50,-2.93,1.93,
1.863,-0.51,-2.11,0.30,2.47,-2.92,1.91,
1.863,-0.51,-2.11,0.30,2.41,-2.90,1.90,
1.864,-0.51,-2.11,0.30,2.40,-2.87,1.89,
1.864,-0.51,-2.11,0.30,2.37,-2.81,1.88,
1.864,-0.05,-1.86,-0.30,2.37,-2.81,1.88,
1.864,-0.05,-1.86,-0.30,2.33,-2.74,1.88,
1.864,-0.05,-1.86,-0.30,2.29,-2.69,1.88,
1.895,-0.05,-1.86,-0.30,2.23,-2.57,1.87,
1.896,-0.05,-1.86,-0.30,2.21,-2.52,1.86,
1.896,-0.05,-1.86,-0.30,2.17,-2.43,1.86,
1.896,-0.00,-1.30,-0.62,2.17,-2.43,1.86,
1.896,-0.00,-1.30,-0.62,2.11,-2.36,1.85,
1.897,-0.00,-1.30,-0.62,2.06,-2.25,1.84,
1.897,-0.00,-1.30,-0.62,2.02,-2.10,1.83,
1.897,-0.00,-1.30,-0.62,1.96,-1.96,1.83,
1.897,-0.00,-1.30,-0.62,1.90,-1.79,1.83,
1.897,-0.34,-0.67,-1.07,1.90,-1.79,1.83,
1.897,-0.34,-0.67,-1.07,1.84,-1.60,1.83,
1.897,-0.34,-0.67,-1.07,1.76,-1.42,1.83,
1.897,-0.34,-0.67,-1.07,1.67,-1.24,1.83,
1.898,-0.34,-0.67,-1.07,1.58,-1.03,1.83,
1.898,-0.34,-0.67,-1.07,1.49,-0.81,1.82,
1.898,-0.41,-0.12,-2.66,1.49,-0.81,1.82,
1.898,-0.41,-0.12,-2.66,1.38,-0.63,1.81,
1.91,-0.41,-0.12,-2.66,1.28,-0.44,1.78,
1.91,-0.41,-0.12,-2.66,1.18,-0.26,1.74,
1.911,-0.41,-0.12,-2.66,1.09,-0.09,1.69,
1.911,-0.41,-0.12,-2.66,1.00,0.06,1.64,
1.911,0.93,-0.01,-3.12,1.00,0.06,1.64,
1.911,0.93,-0.01,-3.12,0.91,0.19,1.59,
1.911,0.93,-0.01,-3.12,0.83,0.31,1.52,
1.912,0.93,-0.01,-3.12,0.73,0.47,1.41,
1.912,0.93,-0.01,-3.12,0.69,0.52,1.37,
1.912,0.93,-0.01,-3.12,0.63,0.65,1.30,
1.912,1.67,0.37,-2.54,0.63,0.65,1.30,
1.912,1.67,0.37,-2.54,0.59,0.77,1.22,
1.912,1.67,0.37,-2.54,0.53,0.85,1.15,
1.916,1.67,0.37,-2.54,0.48,0.93,1.03,
1.916,1.67,0.37,-2.54,0.47,0.95,0.99,
1.918,1.67,0.37,-2.54,0.46,0.99,0.93,
1.92,1.78,0.46,-1.09,0.46,0.99,0.93,
1.921,1.78,0.46,-1.09,0.46,0.99,0.87,
1.922,1.78,0.46,-1.09,0.44,0.92,0.81,
1.925,1.78,0.46,-1.09,0.43,0.82,0.75,
1.926,1.78,0.46,-1.09,0.42,0.71,0.68,
1.928,1.78,0.46,-1.09,0.42,0.63,0.62,
1.93,1.83,0.87,-0.02,0.42,0.63,0.62,
1.93,1.83,0.87,-0.02,0.43,0.57,0.56,
1.934,1.83,0.87,-0.02,0.44,0.52,0.51,
1.938,1.83,0.87,-0.02,0.46,0.47,0.46,
1.939,1.83,0.87,-0.02,0.47,0.45,0.42,
1.939,1.83,0.87,-0.02,0.49,0.43,0.39,
1.94,1.36,1.87,0.60,0.49,0.43,0.39,
1.94,1.36,1.87,0.60,0.51,0.41,0.37,
1.942,1.36,1.87,0.60,0.53,0.40,0.34,
1.945,1.36,1.87,0.60,0.55,0.40,0.33,
1.946,1.36,1.87,0.60,0.57,0.41,0.33,
1.948,1.36,1.87,0.60,0.59,0.43,0.34,
1.951,0.43,2.82,0.36,0.59,0.43,0.34,
1.951,0.43,2.82,0.36,0.61,0.45,0.36,
1.952,0.43,2.82,0.36,0.63,0.47,0.38,
1.956,0.43,2.82,0.36,0.66,0.49,0.42,
1.958,0.43,2.82,0.36,0.68,0.51,0.46,
1.96,0.43,2.82,0.36,0.69,0.52,0.47,
1.962,-0.41,3.62,-0.13,0.69,0.52,0.47,
1.962,-0.41,3.62,-0.13,0.70,0.54,0.51,
1.962,-0.41,3.62,-0.13,0.71,0.56,0.55,
1.965,-0.41,3.62,-0.13,0.72,0.59,0.62,
1.97,-0.41,3.62,-0.13,0.72,0.60,0.64,
1.97,-0.41,3.62,-0.13,0.71,0.62,0.69,
1.972,-1.20,3.93,-0.94,0.71,0.62,0.69,
1.973,-1.20,3.93,-0.94,0.71,0.64,0.73,
1.973,-1.20,3.93,-0.94,0.69,0.67,0.78,
1.98,-1.20,3.93,-0.94,0.68,0.69,0.83,
1.98,-1.20,3.93,-0.94,0.65,0.72,0.88,
1.98,-1.20,3.93,-0.94,0.62,0.74,0.93,
1.98,-1.55,4.10,-2.05,0.62,0.74,0.93,
1.981,-1.55,4.10,-2.05,0.58,0.77,0.98,
1.99,-1.55,4.10,-2.05,0.54,0.79,1.03,
1.99,-1.55,4.10,-2.05,0.50,0.82,1.08,
1.991,-1.55,4.10,-2.05,0.44,0.85,1.12,
1.991,-1.55,4.10,-2.05,0.39,0.87,1.17,
1.991,-1.77,4.07,-2.89,0.39,0.87,1.17,
1.991,-1.77,4.07,-2.89,0.33,0.90,1.22,
1.992,-1.77,4.07,-2.89,0.27,0.93,1.26,
1.995,-1.77,4.07,-2.89,0.21,0.96,1.30,
1.996,-1.77,4.07,-2.89,0.14,0.98,1.34,
1.998,-1.77,4.07,-2.89,0.08,1.00,1.38,
2.001,-1.56,4.00,-3.19,0.08,1.00,1.38,
2.001,-1.56,4.00,-3.19,0.01,1.02,1.41,
2.002,-1.56,4.00,-3.19,-0.07,1.03,1.44,
2.005,-1.56,4.00,-3.19,-0.14,1.04,1.47,
2.006,-1.56,4.00,-3.19,-0.21,1.04,1.50,
2.008,-1.56,4.00,-3.19,-0.28,1.05,1.52,
2.01,-1.28,3.96,-2.92,-0.28,1.05,1.52,
2.01,-1.28,3.96,-2.92,-0.35,1.06,1.53,
2.012,-1.28,3.96,-2.92,-0.43,1.06,1.55,
2.016,-1.28,3.96,-2.92,-0.53,1.06,1.56,
2.017,-1.28,3.96,-2.92,-0.57,1.05,1.56,
2.018,-1.28,3.96,-2.92,-0.65,1.03,1.57,
2.021,-0.94,4.10,-2.54,-0.65,1.03,1.57,
2.021,-0.94,4.10,-2.54,-0.72,1.01,1.56,
2.022,-0.94,4.10,-2.54,-0.79,0.97,1.56,
2.025,-0.94,4.10,-2.54,-0.87,0.93,1.55,
2.026,-0.94,4.10,-2.54,-0.94,0.88,1.54,
2.028,-0.94,4.10,-2.54,-1.00,0.83,1.52,
2.03,-0.80,4.20,-2.05,-1.00,0.83,1.52,
2.031,-0.80,4.20,-2.05,-1.07,0.77,1.51,
2.033,-0.80,4.20,-2.05,-1.14,0.71,1.49,
2.035,-0.80,4.20,-2.05,-1.21,0.64,1.48,
2.037,-0.80,4.20,-2.05,-1.27,0.58,1.47,
2.038,-0.80,4.20,-2.05,-1.33,0.52,1.46,
2.04,-0.88,4.36,-1.69,-1.33,0.52,1.46,
2.041,-0.88,4.36,-1.69,-1.38,0.47,1.45,
2.046,-0.88,4.36,-1.69,-1.43,0.42,1.46,
2.049,-0.88,4.36,-1.69,-1.48,0.38,1.46,
2.049,-0.88,4.36,-1.69,-1.52,0.34,1.47,
2.049,-0.88,4.36,-1.69,-1.56,0.32,1.49,
2.05,-1.39,4.51,-1.37,-1.56,0.32,1.49,
2.051,-1.39,4.51,-1.37,-1.59,0.29,1.52,
2.053,-1.39,4.51,-1.37,-1.63,0.27,1.54,
2.055,-1.39,4.51,-1.37,-1.66,0.25,1.57,
2.056,-1.39,4.51,-1.37,-1.69,0.24,1.60,
2.058,-1.39,4.51,-1.37,-1.71,0.23,1.63,
2.072,-2.01,4.92,-1.26,-1.71,0.23,1.63,
2.072,-2.01,4.92,-1.26,-1.73,0.22,1.67,
2.072,-2.01,4.92,-1.26,-1.74,0.20,1.70,
2.072,-2.01,4.92,-1.26,-1.73,0.15,1.76,
2.073,-2.01,4.92,-1.26,-1.72,0.12,1.78,
2.073,-2.01,4.92,-1.26,-1.68,0.04,1.82,
2.073,-2.54,5.13,-0.00,-1.68,0.04,1.82,
2.073,-2.54,5.13,-0.00,-1.66,-0.06,1.85,
2.073,-2.54,5.13,-0.00,-1.62,-0.18,1.88,
2.083,-2.54,5.13,-0.00,-1.55,-0.39,1.89,
2.084,-2.54,5.13,-0.00,-1.53,-0.47,1.89,
2.084,-2.54,5.13,-0.00,-1.47,-0.63,1.89,
2.084,-2.33,4.95,1.84,-1.47,-0.63,1.89,
2.084,-2.33,4.95,1.84,-1.41,-0.79,1.87,
2.084,-2.33,4.95,1.84,-1.35,-0.93,1.85,
2.085,-2.33,4.95,1.84,-1.28,-1.06,1.81,
2.087,-2.33,4.95,1.84,-1.20,-1.19,1.76,
2.088,-2.33,4.95,1.84,-1.12,-1.30,1.70,
2.091,-1.68,4.35,2.18,-1.12,-1.30,1.70,
2.091,-1.68,4.35,2.18,-1.05,-1.40,1.62,
2.092,-1.68,4.35,2.18,-0.97,-1.49,1.53,
2.095,-1.68,4.35,2.18,-0.84,-1.62,1.39,
2.096,-1.68,4.35,2.18,-0.81,-1.66,1.33,
2.099,-1.68,4.35,2.18,-0.74,-1.73,1.23,
2.102,-0.95,3.89,1.81,-0.74,-1.73,1.23,
2.102,-0.95,3.89,1.81,-0.67,-1.78,1.14,
2.102,-0.95,3.89,1.81,-0.61,-1.82,1.06,
2.105,-0.95,3.89,1.81,-0.55,-1.86,0.98,
2.106,-0.95,3.89,1.81,-0.54,-1.88,0.97,
2.108,-0.95,3.89,1.81,-0.53,-1.92,0.97,
2.11,-1.48,3.44,0.46,-0.53,-1.92,0.97,
2.11,-1.48,3.44,0.46,-0.54,-1.95,1.00,
2.112,-1.48,3.44,0.46,-0.57,-2.01,1.05,
2.115,-1.48,3.44,0.46,-0.63,-2.13,1.17,
2.116,-1.48,3.44,0.46,-0.67,-2.18,1.22,
2.118,-1.48,3.44,0.46,-0.74,-2.30,1.32,
2.12,-3.06,3.83,-1.40,-0.74,-2.30,1.32,
2.12,-3.06,3.83,-1.40,-0.82,-2.45,1.43,
2.122,-3.06,3.83,-1.40,-0.91,-2.61,1.55,
2.126,-3.06,3.83,-1.40,-1.05,-2.85,1.72,
2.126,-3.06,3.83,-1.40,-1.09,-2.93,1.78,
2.128,-3.06,3.83,-1.40,-1.17,-3.07,1.88,
2.13,-4.03,4.84,-2.61,-1.17,-3.07,1.88,
2.13,-4.03,4.84,-2.61,-1.24,-3.20,1.97,
2.132,-4.03,4.84,-2.61,-1.31,-3.32,2.04,
2.135,-4.03,4.84,-2.61,-1.40,-3.48,2.13,
2.136,-4.03,4.84,-2.61,-1.43,-3.52,2.15,
2.138,-4.03,4.84,-2.61,-1.48,-3.59,2.19,
2.14,-3.96,5.49,-2.86,-1.48,-3.59,2.19,
2.141,-3.96,5.49,-2.86,-1.52,-3.65,2.21,
2.142,-3.96,5.49,-2.86,-1.57,-3.70,2.23,
2.145,-3.96,5.49,-2.86,-1.63,-3.73,2.26,
2.146,-3.96,5.49,-2.86,-1.64,-3.73,2.27,
2.149,-3.96,5.49,-2.86,-1.67,-3.71,2.29,
2.15,-3.76,5.84,-2.50,-1.67,-3.71,2.29,
2.151,-3.76,5.84,-2.50,-1.69,-3.68,2.32,
2.152,-3.76,5.84,-2.50,-1.71,-3.62,2.35,
2.157,-3.76,5.84,-2.50,-1.71,-3.52,2.40,
2.157,-3.76,5.84,-2.50,-1.70,-3.48,2.42,
2.158,-3.76,5.84,-2.50,-1.70,-3.39,2.47,
2.16,-4.21,5.76,-1.47,-1.70,-3.39,2.47,
2.161,-4.21,5.76,-1.47,-1.67,-3.30,2.51,
2.162,-4.21,5.76,-1.47,-1.64,-3.20,2.57,
2.165,-4.21,5.76,-1.47,-1.60,-3.01,2.65,
2.166,-4.21,5.76,-1.47,-1.59,-2.94,2.67,
2.168,-4.21,5.76,-1.47,-1.55,-2.77,2.73,
2.17,-4.33,5.70,-0.54,-1.55,-2.77,2.73,
2.171,-4.33,5.70,-0.54,-1.52,-2.57,2.77,
2.172,-4.33,5.70,-0.54,-1.52,-2.31,2.81,
2.175,-4.33,5.70,-0.54,-1.55,-1.87,2.85,
2.176,-4.33,5.70,-0.54,-1.56,-1.72,2.86,
2.178,-4.33,5.70,-0.54,-1.59,-1.42,2.88,
2.18,-3.98,5.85,-1.53,-1.59,-1.42,2.88,
2.18,-3.98,5.85,-1.53,-1.61,-1.13,2.90,
2.182,-3.98,5.85,-1.53,-1.63,-0.85,2.92,
2.185,-3.98,5.85,-1.53,-1.68,-0.48,2.94,
2.187,-3.98,5.85,-1.53,-1.71,-0.35,2.95,
2.188,-3.98,5.85,-1.53,-1.76,-0.08,2.98,
2.191,-2.40,2.53,-2.83,-1.76,-0.08,2.98,
2.191,-2.40,2.53,-2.83,-1.83,0.22,3.01,
2.193,-2.40,2.53,-2.83,-1.94,0.56,3.04,
2.195,-2.40,2.53,-2.83,-2.12,1.07,3.05,
2.196,-2.40,2.53,-2.83,-2.15,1.24,3.05,
2.2,-2.40,2.53,-2.83,-2.20,1.55,3.05,
2.201,1.35,-10.49,-4.52,-2.20,1.55,3.05,
2.201,1.35,-10.49,-4.52,-2.25,1.87,3.07,
2.204,1.35,-10.49,-4.52,-2.28,2.17,3.11,
2.206,1.35,-10.49,-4.52,-2.31,2.56,3.24,
2.208,1.35,-10.49,-4.52,-2.32,2.68,3.30,
2.213,1.35,-10.49,-4.52,-2.32,2.91,3.41,
2.214,-0.16,-26.68,-3.86,-2.32,2.91,3.41,
2.215,-0.16,-26.68,-3.86,-2.33,3.13,3.51,
2.216,-0.16,-26.68,-3.86,-2.32,3.30,3.59,
2.216,-0.16,-26.68,-3.86,-2.32,3.44,3.68,
2.243,-0.16,-26.68,-3.86,-2.31,3.47,3.71,
2.244,-0.16,-26.68,-3.86,-2.27,3.54,3.76,
2.244,0.75,-41.59,-3.92,-2.27,3.54,3.76,
2.244,0.75,-41.59,-3.92,-2.21,3.59,3.80,
2.245,0.75,-41.59,-3.92,-2.12,3.62,3.80,
2.245,0.75,-41.59,-3.92,-1.95,3.61,3.72,
2.275,0.75,-41.59,-3.92,-1.87,3.60,3.67,
2.275,0.75,-41.59,-3.92,-1.70,3.55,3.52,
2.276,3.95,-42.95,-0.53,-1.70,3.55,3.52,
2.276,3.95,-42.95,-0.53,-1.50,3.49,3.34,
2.277,3.95,-42.95,-0.53,-1.29,3.40,3.13,
2.277,3.95,-42.95,-0.53,-0.97,3.24,2.81,
2.278,3.95,-42.95,-0.53,-0.86,3.18,2.71,
2.278,3.95,-42.95,-0.53,-0.67,3.05,2.52,
2.278,5.72,-29.83,2.45,-0.67,3.05,2.52,
2.279,5.72,-29.83,2.45,-0.49,2.92,2.34,
2.279,5.72,-29.83,2.45,-0.32,2.79,2.18,
2.28,5.72,-29.83,2.45,-0.09,2.58,1.95,
2.28,5.72,-29.83,2.45,-0.02,2.52,1.88,
2.281,5.72,-29.83,2.45,0.11,2.38,1.73,
2.281,4.52,-16.00,2.38,0.11,2.38,1.73,
2.282,4.52,-16.00,2.38,0.24,2.26,1.59,
2.282,4.52,-16.00,2.38,0.36,2.13,1.45,
2.282,4.52,-16.00,2.38,0.52,1.95,1.25,
2.283,4.52,-16.00,2.38,0.57,1.89,1.18,
2.283,4.52,-16.00,2.38,0.67,1.78,1.05,
2.284,4.38,-5.99,1.81,0.67,1.78,1.05,
2.284,4.38,-5.99,1.81,0.75,1.67,0.92,
2.285,4.38,-5.99,1.81,0.83,1.57,0.80,
2.285,4.38,-5.99,1.81,0.93,1.42,0.62,
2.285,4.38,-5.99,1.81,0.96,1.38,0.56,
2.286,3.69,1.57,0.89,0.96,1.38,0.56,
2.286,3.69,1.57,0.89,1.10,1.09,0.23,
2.287,3.69,1.57,0.89,1.10,1.09,0.23,
2.287,3.69,1.57,0.89,1.10,1.09,0.23,
2.287,3.69,1.57,0.89,1.14,0.94,0.08,
2.288,3.69,1.57,0.89,1.15,0.89,0.04,
2.288,3.69,1.57,0.89,1.18,0.79,-0.06,
2.289,3.25,4.60,0.35,1.18,0.79,-0.06,
2.289,3.25,4.60,0.35,1.19,0.69,-0.15,
2.289,3.25,4.60,0.35,1.20,0.59,-0.24,
2.29,3.25,4.60,0.35,1.22,0.43,-0.36,
2.29,3.25,4.60,0.35,1.23,0.39,-0.39,
2.291,3.25,4.60,0.35,1.23,0.29,-0.46,
2.291,2.22,7.09,-0.08,1.23,0.29,-0.46,
2.292,2.22,7.09,-0.08,1.23,0.20,-0.53,
2.292,2.22,7.09,-0.08,1.23,0.12,-0.59,
2.306,2.22,7.09,-0.08,1.22,0.01,-0.67,
2.306,2.22,7.09,-0.08,1.21,-0.02,-0.70,
2.307,2.22,7.09,-0.08,1.19,-0.09,-0.74,
2.308,1.12,8.73,-0.61,1.19,-0.09,-0.74,
2.308,1.12,8.73,-0.61,1.17,-0.15,-0.78,
2.308,1.12,8.73,-0.61,1.14,-0.22,-0.81,
2.309,1.12,8.73,-0.61,1.09,-0.35,-0.87,
2.309,1.12,8.73,-0.61,1.07,-0.38,-0.88,
2.309,1.12,8.73,-0.61,1.05,-0.42,-0.89,
2.313,-0.10,9.48,-0.84,1.05,-0.42,-0.89,
2.313,-0.10,9.48,-0.84,1.01,-0.49,-0.91,
2.315,-0.10,9.48,-0.84,0.98,-0.56,-0.93,
2.321,-0.10,9.48,-0.84,0.91,-0.67,-0.96,
2.322,-0.10,9.48,-0.84,0.88,-0.70,-0.97,
2.322,-0.10,9.48,-0.84,0.83,-0.78,-0.97,
2.323,-0.72,9.34,-1.22,0.83,-0.78,-0.97,
2.323,-0.72,9.34,-1.22,0.78,-0.86,-0.98,
2.324,-0.72,9.34,-1.22,0.72,-0.95,-0.98,
2.327,-0.72,9.34,-1.22,0.61,-1.09,-0.98,
2.328,-0.72,9.34,-1.22,0.58,-1.15,-0.98,
2.329,-0.72,9.34,-1.22,0.50,-1.25,-0.98,
2.332,-1.29,8.09,-0.95,0.50,-1.25,-0.98,
2.333,-1.29,8.09,-0.95,0.43,-1.35,-0.98,
2.336,-1.29,8.09,-0.95,0.35,-1.46,-0.97,
2.336,-1.29,8.09,-0.95,0.23,-1.61,-0.97,
2.337,-1.29,8.09,-0.95,0.19,-1.66,-0.96,
2.344,-1.29,8.09,-0.95,0.11,-1.76,-0.95,
2.345,-1.54,6.15,-0.61,0.11,-1.76,-0.95,
2.346,-1.54,6.15,-0.61,0.02,-1.85,-0.94,
2.346,-1.54,6.15,-0.61,-0.05,-1.95,-0.93,
2.346,-1.54,6.15,-0.61,-0.16,-2.07,-0.91,
2.347,-1.54,6.15,-0.61,-0.20,-2.11,-0.91,
2.358,-1.54,6.15,-0.61,-0.26,-2.18,-0.89,
2.359,-1.62,3.72,-0.05,-0.26,-2.18,-0.89,
2.359,-1.62,3.72,-0.05,-0.32,-2.25,-0.88,
2.359,-1.62,3.72,-0.05,-0.37,-2.32,-0.86,
2.36,-1.62,3.72,-0.05,-0.42,-2.41,-0.83,
2.36,-1.62,3.72,-0.05,-0.44,-2.44,-0.82,
2.36,-1.62,3.72,-0.05,-0.47,-2.49,-0.80,
2.364,-1.88,0.92,0.80,-0.47,-2.49,-0.80,
2.364,-1.88,0.92,0.80,-0.49,-2.55,-0.78,
2.364,-1.88,0.92,0.80,-0.50,-2.60,-0.76,
2.4,-1.88,0.92,0.80,-0.50,-2.67,-0.72,
2.4,-1.88,0.92,0.80,-0.51,-2.70,-0.70,
2.4,-1.88,0.92,0.80,-0.50,-2.74,-0.67,
2.401,-2.12,-1.72,1.48,-0.50,-2.74,-0.67,
2.401,-2.12,-1.72,1.48,-0.49,-2.77,-0.64,
2.401,-2.12,-1.72,1.48,-0.47,-2.81,-0.62,
2.401,-2.12,-1.72,1.48,-0.43,-2.86,-0.57,
2.401,-2.12,-1.72,1.48,-0.41,-2.87,-0.56,
2.402,-2.12,-1.72,1.48,-0.38,-2.90,-0.53,
2.402,-2.27,-3.83,1.88,-0.38,-2.90,-0.53,
2.402,-2.27,-3.83,1.88,-0.35,-2.92,-0.50,
2.402,-2.27,-3.83,1.88,-0.31,-2.94,-0.48,
2.402,-2.27,-3.83,1.88,-0.25,-2.98,-0.45,
2.403,-2.27,-3.83,1.88,-0.23,-2.98,-0.44,
2.403,-2.27,-3.83,1.88,-0.19,-3.00,-0.42,
2.403,-2.08,-5.07,1.75,-0.19,-3.00,-0.42,
2.403,-2.08,-5.07,1.75,-0.15,-3.02,-0.41,
2.423,-2.08,-5.07,1.75,-0.10,-3.03,-0.41,
2.423,-2.08,-5.07,1.75,-0.05,-3.04,-0.40,
2.423,-2.08,-5.07,1.75,-0.03,-3.05,-0.41,
2.424,-2.08,-5.07,1.75,0.00,-3.05,-0.42,
2.424,-1.66,-5.14,1.26,0.00,-3.05,-0.42,
2.424,-1.66,-5.14,1.26,0.03,-3.05,-0.43,
2.425,-1.66,-5.14,1.26,0.06,-3.04,-0.45,
2.425,-1.66,-5.14,1.26,0.09,-3.03,-0.48,
2.425,-1.66,-5.14,1.26,0.10,-3.03,-0.49,
2.425,-1.66,-5.14,1.26,0.12,-3.01,-0.51,
2.426,-1.29,-3.62,0.60,0.12,-3.01,-0.51,
2.426,-1.29,-3.62,0.60,0.13,-2.99,-0.53,
2.426,-1.29,-3.62,0.60,0.14,-2.97,-0.55,
2.426,-1.29,-3.62,0.60,0.14,-2.93,-0.57,
2.427,-1.29,-3.62,0.60,0.14,-2.92,-0.58,
2.427,-1.29,-3.62,0.60,0.13,-2.88,-0.59,
2.427,-1.66,-1.77,-0.09,0.13,-2.88,-0.59,
2.427,-1.66,-1.77,-0.09,0.12,-2.85,-0.60,
2.427,-1.66,-1.77,-0.09,0.11,-2.81,-0.60,
2.428,-1.66,-1.77,-0.09,0.08,-2.75,-0.60,
2.428,-1.66,-1.77,-0.09,0.07,-2.72,-0.59,
2.437,-1.66,-1.77,-0.09,0.05,-2.68,-0.59,
2.437,-1.89,-0.41,-0.57,0.05,-2.68,-0.59,
2.438,-1.89,-0.41,-0.57,0.03,-2.64,-0.58,
2.438,-1.89,-0.41,-0.57,0.00,-2.59,-0.57,
2.438,-1.89,-0.41,-0.57,-0.04,-2.53,-0.55,
2.438,-1.89,-0.41,-0.57,-0.05,-2.51,-0.55,
2.439,-1.89,-0.41,-0.57,-0.08,-2.47,-0.53,
2.441,-1.95,0.49,-0.57,-0.08,-2.47,-0.53,
2.441,-1.95,0.49,-0.57,-0.10,-2.43,-0.51,
2.442,-1.95,0.49,-0.57,-0.12,-2.39,-0.49,
2.448,-1.95,0.49,-0.57,-0.15,-2.33,-0.47,
2.449,-1.95,0.49,-0.57,-0.16,-2.31,-0.46,
2.449,-1.95,0.49,-0.57,-0.17,-2.28,-0.44,
2.451,-1.69,0.80,-0.19,-0.17,-2.28,-0.44,
2.451,-1.69,0.80,-0.19,-0.19,-2.25,-0.42,
2.453,-1.69,0.80,-0.19,-0.20,-2.22,-0.40,
2.457,-1.69,0.80,-0.19,-0.21,-2.18,-0.36,
2.457,-1.69,0.80,-0.19,-0.21,-2.18,-0.35,
2.458,-1.69,0.80,-0.19,-0.22,-2.16,-0.33,
2.46,-1.53,0.64,0.19,-0.22,-2.16,-0.33,
2.46,-1.53,0.64,0.19,-0.22,-2.15,-0.31,
2.462,-1.53,0.64,0.19,-0.22,-2.14,-0.29,
2.465,-1.53,0.64,0.19,-0.22,-2.13,-0.26,
2.468,-1.53,0.64,0.19,-0.22,-2.14,-0.26,
2.468,-1.53,0.64,0.19,-0.21,-2.14,-0.25,
2.47,-1.04,0.40,0.44,-0.21,-2.14,-0.25,
2.471,-1.04,0.40,0.44,-0.21,-2.15,-0.23,
2.472,-1.04,0.40,0.44,-0.20,-2.16,-0.22,
2.475,-1.04,0.40,0.44,-0.18,-2.18,-0.21,
2.477,-1.04,0.40,0.44,-0.17,-2.19,-0.21,
2.478,-1.04,0.40,0.44,-0.16,-2.20,-0.21,
2.481,-0.53,0.28,0.63,-0.16,-2.20,-0.21,
2.481,-0.53,0.28,0.63,-0.14,-2.23,-0.21,
2.483,-0.53,0.28,0.63,-0.13,-2.25,-0.21,
2.486,-0.53,0.28,0.63,-0.10,-2.28,-0.21,
2.489,-0.53,0.28,0.63,-0.10,-2.29,-0.22,
2.489,-0.53,0.28,0.63,-0.08,-2.32,-0.22,
2.49,-0.10,0.46,0.49,-0.08,-2.32,-0.22,
2.491,-0.10,0.46,0.49,-0.07,-2.33,-0.23,
2.492,-0.10,0.46,0.49,-0.06,-2.35,-0.24,
2.495,-0.10,0.46,0.49,-0.04,-2.38,-0.25,
2.497,-0.10,0.46,0.49,-0.04,-2.39,-0.26,
2.498,-0.10,0.46,0.49,-0.03,-2.41,-0.27,
2.5,0.27,0.66,0.23,-0.03,-2.41,-0.27,
2.501,0.27,0.66,0.23,-0.02,-2.42,-0.28,
2.502,0.27,0.66,0.23,-0.01,-2.43,-0.29,
2.505,0.27,0.66,0.23,-0.01,-2.45,-0.31,
2.506,0.27,0.66,0.23,-0.00,-2.45,-0.32,
2.508,0.27,0.66,0.23,-0.00,-2.46,-0.33,
2.51,0.49,0.81,-0.02,-0.00,-2.46,-0.33,
2.511,0.49,0.81,-0.02,0.00,-2.47,-0.34,
2.512,0.49,0.81,-0.02,0.00,-2.48,-0.35,
2.516,0.49,0.81,-0.02,-0.00,-2.49,-0.37,
2.517,0.49,0.81,-0.02,-0.00,-2.49,-0.37,
2.518,0.49,0.81,-0.02,-0.01,-2.50,-0.38,
2.52,0.70,0.90,-0.15,-0.01,-2.50,-0.38,
2.52,0.70,0.90,-0.15,-0.02,-2.51,-0.39,
2.522,0.70,0.90,-0.15,-0.02,-2.51,-0.40,
2.525,0.70,0.90,-0.15,-0.03,-2.53,-0.42,
2.526,0.70,0.90,-0.15,-0.04,-2.53,-0.42,
2.529,0.70,0.90,-0.15,-0.05,-2.55,-0.43,
2.536,0.87,0.89,-0.15,-0.05,-2.55,-0.43,
2.536,0.87,0.89,-0.15,-0.06,-2.56,-0.45,
2.536,0.87,0.89,-0.15,-0.06,-2.58,-0.46,
2.537,0.87,0.89,-0.15,-0.08,-2.61,-0.48,
2.537,0.87,0.89,-0.15,-0.08,-2.63,-0.48,
2.538,0.87,0.89,-0.15,-0.09,-2.65,-0.50,
2.54,1.16,0.87,-0.02,-0.09,-2.65,-0.50,
2.54,1.16,0.87,-0.02,-0.09,-2.68,-0.52,
2.542,1.16,0.87,-0.02,-0.10,-2.71,-0.53,
2.545,1.16,0.87,-0.02,-0.11,-2.77,-0.56,
2.547,1.16,0.87,-0.02,-0.11,-2.79,-0.57,
2.548,1.16,0.87,-0.02,-0.11,-2.84,-0.59,
2.551,1.45,0.88,0.26,-0.11,-2.84,-0.59,
2.551,1.45,0.88,0.26,-0.10,-2.92,-0.61,
2.552,1.45,0.88,0.26,-0.08,-3.02,-0.62,
2.555,1.45,0.88,0.26,-0.05,-3.18,-0.62,
2.556,1.45,0.88,0.26,-0.04,-3.23,-0.62,
2.558,1.45,0.88,0.26,-0.04,-3.31,-0.61,
2.571,1.28,0.51,0.55,-0.04,-3.31,-0.61,
2.571,1.28,0.51,0.55,-0.05,-3.37,-0.60,
2.572,1.28,0.51,0.55,-0.08,-3.43,-0.59,
2.572,1.28,0.51,0.55,-0.12,-3.48,-0.58,
2.573,1.28,0.51,0.55,-0.14,-3.49,-0.57,
2.573,1.28,0.51,0.55,-0.17,-3.51,-0.56,
2.574,1.16,0.37,0.01,-0.17,-3.51,-0.56,
2.574,1.16,0.37,0.01,-0.21,-3.52,-0.55,
2.574,1.16,0.37,0.01,-0.24,-3.51,-0.55,
2.577,1.16,0.37,0.01,-0.30,-3.50,-0.54,
2.578,1.16,0.37,0.01,-0.31,-3.49,-0.54,
2.578,1.16,0.37,0.01,-0.34,-3.47,-0.53,
2.581,1.32,0.19,0.05,-0.34,-3.47,-0.53,
2.581,1.32,0.19,0.05,-0.37,-3.44,-0.53,
2.588,1.32,0.19,0.05,-0.39,-3.41,-0.53,
2.588,1.32,0.19,0.05,-0.41,-3.37,-0.53,
2.589,1.32,0.19,0.05,-0.42,-3.35,-0.52,
2.589,1.32,0.19,0.05,-0.43,-3.32,-0.52,
2.591,1.39,-0.07,0.52,-0.43,-3.32,-0.52,
2.591,1.39,-0.07,0.52,-0.42,-3.28,-0.52,
2.593,1.39,-0.07,0.52,-0.42,-3.25,-0.52,
2.595,1.39,-0.07,0.52,-0.40,-3.21,-0.52,
2.597,1.39,-0.07,0.52,-0.39,-3.19,-0.52,
2.599,1.39,-0.07,0.52,-0.37,-3.17,-0.53,
2.6,1.49,-0.12,1.22,-0.37,-3.17,-0.53,
2.601,1.49,-0.12,1.22,-0.34,-3.15,-0.53,
2.602,1.49,-0.12,1.22,-0.31,-3.13,-0.54,
2.606,1.49,-0.12,1.22,-0.25,-3.12,-0.55,
2.606,1.49,-0.12,1.22,-0.23,-3.11,-0.55,
2.608,1.49,-0.12,1.22,-0.18,-3.11,-0.56,
2.611,1.49,0.01,1.80,-0.18,-3.11,-0.56,
2.611,1.49,0.01,1.80,-0.13,-3.12,-0.57,
2.612,1.49,0.01,1.80,-0.08,-3.13,-0.58,
2.616,1.49,0.01,1.80,-0.00,-3.17,-0.59,
2.616,1.49,0.01,1.80,0.03,-3.18,-0.60,
2.618,1.49,0.01,1.80,0.08,-3.21,-0.62,
2.621,1.39,0.16,2.32,0.08,-3.21,-0.62,
2.621,1.39,0.16,2.32,0.13,-3.22,-0.64,
2.622,1.39,0.16,2.32,0.17,-3.23,-0.66,
2.625,1.39,0.16,2.32,0.21,-3.25,-0.68,
2.626,1.39,0.16,2.32,0.22,-3.26,-0.69,
2.628,1.39,0.16,2.32,0.24,-3.27,-0.70,
2.637,0.85,0.29,2.01,0.24,-3.27,-0.70,
2.638,0.85,0.29,2.01,0.25,-3.28,-0.71,
2.638,0.85,0.29,2.01,0.25,-3.29,-0.71,
2.638,0.85,0.29,2.01,0.25,-3.32,-0.70,
2.638,0.85,0.29,2.01,0.24,-3.34,-0.70,
2.638,0.85,0.29,2.01,0.24,-3.37,-0.69,
2.641,0.01,0.40,1.70,0.24,-3.37,-0.69,
2.641,0.01,0.40,1.70,0.23,-3.41,-0.69,
2.645,0.01,0.40,1.70,0.22,-3.45,-0.69,
2.645,0.01,0.40,1.70,0.23,-3.51,-0.69,
2.673,0.01,0.40,1.70,0.23,-3.52,-0.70,
2.673,0.01,0.40,1.70,0.21,-3.51,-0.72,
2.673,-0.22,0.31,1.74,0.21,-3.51,-0.72,
2.674,-0.22,0.31,1.74,0.19,-3.47,-0.75,
2.674,-0.22,0.31,1.74,0.16,-3.42,-0.75,
2.674,-0.22,0.31,1.74,0.08,-3.27,-0.69,
2.674,-0.22,0.31,1.74,0.05,-3.22,-0.66,
2.674,-0.22,0.31,1.74,0.03,-3.17,-0.64,
2.675,-0.90,0.44,1.29,0.03,-3.17,-0.64,
2.675,-0.90,0.44,1.29,-0.02,-3.08,-0.58,
2.675,-0.90,0.44,1.29,-0.05,-3.00,-0.53,
2.675,-0.90,0.44,1.29,-0.09,-2.88,-0.46,
2.675,-0.90,0.44,1.29,-0.10,-2.85,-0.44,
2.675,-0.90,0.44,1.29,-0.11,-2.78,-0.40,
2.676,-0.77,-0.07,1.49,-0.11,-2.78,-0.40,
2.676,-0.77,-0.07,1.49,-0.12,-2.71,-0.36,
2.676,-0.77,-0.07,1.49,-0.12,-2.65,-0.33,
2.676,-0.77,-0.07,1.49,-0.12,-2.56,-0.28,
2.677,-0.77,-0.07,1.49,-0.11,-2.52,-0.27,
2.679,-0.77,-0.07,1.49,-0.10,-2.46,-0.25,
2.681,-0.34,-0.34,1.68,-0.10,-2.46,-0.25,
2.681,-0.34,-0.34,1.68,-0.09,-2.39,-0.24,
2.682,-0.34,-0.34,1.68,-0.07,-2.32,-0.23,
2.685,-0.34,-0.34,1.68,-0.04,-2.21,-0.23,
2.686,-0.34,-0.34,1.68,-0.03,-2.17,-0.23,
2.688,-0.34,-0.34,1.68,-0.01,-2.09,-0.24,
2.69,0.19,-0.26,1.71,-0.01,-2.09,-0.24,
2.691,0.19,-0.26,1.71,0.01,-2.00,-0.24,
2.693,0.19,-0.26,1.71,0.02,-1.92,-0.25,
2.695,0.19,-0.26,1.71,0.04,-1.79,-0.25,
2.698,0.19,-0.26,1.71,0.04,-1.74,-0.26,
2.699,0.19,-0.26,1.71,0.05,-1.67,-0.26,
2.701,0.38,-0.21,1.49,0.05,-1.67,-0.26,
2.701,0.38,-0.21,1.49,0.05,-1.59,-0.26,
2.703,0.38,-0.21,1.49,0.04,-1.52,-0.26,
2.706,0.38,-0.21,1.49,0.03,-1.43,-0.26,
2.707,0.38,-0.21,1.49,0.02,-1.40,-0.26,
2.708,0.38,-0.21,1.49,0.01,-1.34,-0.26,
2.711,0.30,-0.32,1.12,0.01,-1.34,-0.26,
2.712,0.30,-0.32,1.12,-0.02,-1.29,-0.26,
2.712,0.30,-0.32,1.12,-0.04,-1.24,-0.25,
2.716,0.30,-0.32,1.12,-0.07,-1.18,-0.25,
2.718,0.30,-0.32,1.12,-0.08,-1.16,-0.25,
2.72,0.30,-0.32,1.12,-0.10,-1.12,-0.24,
2.722,0.19,-0.42,0.98,-0.10,-1.12,-0.24,
2.723,0.19,-0.42,0.98,-0.12,-1.09,-0.24,
2.723,0.19,-0.42,0.98,-0.14,-1.06,-0.23,
2.726,0.19,-0.42,0.98,-0.17,-1.02,-0.22,
2.754,0.19,-0.42,0.98,-0.18,-1.01,-0.21,
2.755,0.19,-0.42,0.98,-0.20,-1.00,-0.21,
2.755,0.13,-0.45,1.06,-0.20,-1.00,-0.21,
2.755,0.13,-0.45,1.06,-0.21,-0.98,-0.21,
2.755,0.13,-0.45,1.06,-0.22,-0.97,-0.20,
2.756,0.13,-0.45,1.06,-0.24,-0.96,-0.20,
2.756,0.13,-0.45,1.06,-0.25,-0.96,-0.21,
2.756,0.13,-0.45,1.06,-0.26,-0.96,-0.21,
2.757,0.16,-0.44,1.32,-0.26,-0.96,-0.21,
2.757,0.16,-0.44,1.32,-0.26,-0.96,-0.21,
2.757,0.16,-0.44,1.32,-0.27,-0.96,-0.22,
2.757,0.16,-0.44,1.32,-0.28,-0.97,-0.24,
2.758,0.16,-0.44,1.32,-0.28,-0.97,-0.24,
2.758,0.16,-0.44,1.32,-0.28,-0.98,-0.25,
2.758,0.08,-0.45,1.55,-0.28,-0.98,-0.25,
2.759,0.08,-0.45,1.55,-0.28,-0.99,-0.26,
2.759,0.08,-0.45,1.55,-0.29,-1.00,-0.28,
2.759,0.08,-0.45,1.55,-0.29,-1.03,-0.30,
2.759,0.08,-0.45,1.55,-0.28,-1.03,-0.30,
2.76,0.08,-0.45,1.55,-0.28,-1.05,-0.32,
2.766,-0.18,-0.57,1.73,-0.28,-1.05,-0.32,
2.767,-0.18,-0.57,1.73,-0.28,-1.07,-0.33,
2.767,-0.18,-0.57,1.73,-0.28,-1.09,-0.34,
2.767,-0.18,-0.57,1.73,-0.28,-1.13,-0.36,
2.768,-0.18,-0.57,1.73,-0.28,-1.14,-0.37,
2.77,-0.18,-0.57,1.73,-0.28,-1.16,-0.38,
2.771,-0.57,-0.89,1.79,-0.28,-1.16,-0.38,
2.772,-0.57,-0.89,1.79,-0.28,-1.19,-0.39,
2.772,-0.57,-0.89,1.79,-0.28,-1.21,-0.40,
2.775,-0.57,-0.89,1.79,-0.28,-1.25,-0.41,
2.776,-0.57,-0.89,1.79,-0.28,-1.26,-0.41,
2.778,-0.57,-0.89,1.79,-0.29,-1.29,-0.42,
2.781,-1.04,-1.23,1.92,-0.29,-1.29,-0.42,
2.781,-1.04,-1.23,1.92,-0.29,-1.31,-0.43,
2.782,-1.04,-1.23,1.92,-0.29,-1.34,-0.43,
2.786,-1.04,-1.23,1.92,-0.30,-1.38,-0.44,
2.787,-1.04,-1.23,1.92,-0.30,-1.39,-0.44,
2.788,-1.04,-1.23,1.92,-0.31,-1.42,-0.44,
2.791,-1.39,-1.51,2.09,-0.31,-1.42,-0.44,
2.791,-1.39,-1.51,2.09,-0.31,-1.45,-0.44,
2.793,-1.39,-1.51,2.09,-0.31,-1.48,-0.44,
2.81,-1.39,-1.51,2.09,-0.32,-1.52,-0.45,
2.812,-1.39,-1.51,2.09,-0.32,-1.54,-0.44,
2.813,-1.39,-1.51,2.09,-0.32,-1.57,-0.44,
2.813,-1.81,-1.63,2.62,-0.32,-1.57,-0.44,
2.814,-1.81,-1.63,2.62,-0.31,-1.60,-0.44,
2.815,-1.81,-1.63,2.62,-0.31,-1.63,-0.43,
2.816,-1.81,-1.63,2.62,-0.29,-1.68,-0.42,
2.818,-1.81,-1.63,2.62,-0.29,-1.69,-0.41,
2.819,-1.81,-1.63,2.62,-0.28,-1.72,-0.40,
2.82,-2.11,-1.55,3.11,-0.28,-1.72,-0.40,
2.821,-2.11,-1.55,3.11,-0.27,-1.74,-0.39,
2.822,-2.11,-1.55,3.11,-0.25,-1.77,-0.38,
2.823,-2.11,-1.55,3.11,-0.22,-1.80,-0.37,
2.824,-2.11,-1.55,3.11,-0.21,-1.81,-0.36,
2.824,-2.11,-1.55,3.11,-0.19,-1.83,-0.35,
2.825,-2.26,-1.42,3.75,-0.19,-1.83,-0.35,
2.825,-2.26,-1.42,3.75,-0.16,-1.85,-0.34,
2.826,-2.26,-1.42,3.75,-0.13,-1.87,-0.33,
2.826,-2.26,-1.42,3.75,-0.09,-1.89,-0.31,
2.832,-2.26,-1.42,3.75,-0.07,-1.90,-0.31,
2.832,-2.26,-1.42,3.75,-0.04,-1.91,-0.30,
2.833,-2.28,-1.26,4.11,-0.04,-1.91,-0.30,
2.833,-2.28,-1.26,4.11,-0.00,-1.92,-0.29,
2.834,-2.28,-1.26,4.11,0.03,-1.93,-0.28,
2.845,-2.28,-1.26,4.11,0.09,-1.94,-0.27,
2.846,-2.28,-1.26,4.11,0.11,-1.95,-0.26,
2.846,-2.28,-1.26,4.11,0.15,-1.95,-0.25,
2.847,-2.39,-1.21,4.40,0.15,-1.95,-0.25,
2.847,-2.39,-1.21,4.40,0.19,-1.96,-0.24,
2.847,-2.39,-1.21,4.40,0.22,-1.96,-0.23,
2.848,-2.39,-1.21,4.40,0.28,-1.97,-0.21,
2.848,-2.39,-1.21,4.40,0.30,-1.97,-0.21,
2.853,-2.39,-1.21,4.40,0.34,-1.97,-0.20,
2.853,-2.48,-1.30,4.34,0.34,-1.97,-0.20,
2.853,-2.48,-1.30,4.34,0.38,-1.97,-0.18,
2.854,-2.48,-1.30,4.34,0.43,-1.98,-0.17,
2.855,-2.48,-1.30,4.34,0.49,-1.98,-0.15,
2.856,-2.48,-1.30,4.34,0.52,-1.98,-0.14,
2.858,-2.48,-1.30,4.34,0.57,-1.97,-0.13,
2.86,-2.69,-1.77,4.40,0.57,-1.97,-0.13,
2.861,-2.69,-1.77,4.40,0.62,-1.96,-0.12,
2.863,-2.69,-1.77,4.40,0.67,-1.95,-0.10,
2.866,-2.69,-1.77,4.40,0.76,-1.92,-0.07,
2.866,-2.69,-1.77,4.40,0.79,-1.91,-0.06,
2.869,-2.69,-1.77,4.40,0.85,-1.88,-0.04,
2.876,-2.65,-2.55,3.97,0.85,-1.88,-0.04,
2.877,-2.65,-2.55,3.97,0.91,-1.85,-0.02,
2.877,-2.65,-2.55,3.97,0.98,-1.82,-0.01,
2.878,-2.65,-2.55,3.97,1.09,-1.77,0.02,
2.878,-2.65,-2.55,3.97,1.12,-1.76,0.03,
2.881,-2.65,-2.55,3.97,1.19,-1.72,0.04,
2.882,-2.29,-3.38,3.32,1.19,-1.72,0.04,
2.882,-2.29,-3.38,3.32,1.26,-1.68,0.05,
2.885,-2.29,-3.38,3.32,1.33,-1.65,0.06,
2.885,-2.29,-3.38,3.32,1.43,-1.60,0.08,
2.887,-2.29,-3.38,3.32,1.46,-1.58,0.08,
2.889,-2.29,-3.38,3.32,1.52,-1.56,0.09,
2.891,-1.68,-3.55,2.58,1.52,-1.56,0.09,
2.892,-1.68,-3.55,2.58,1.58,-1.53,0.10,
2.916,-1.68,-3.55,2.58,1.62,-1.52,0.11,
2.917,-1.68,-3.55,2.58,1.69,-1.52,0.13,
2.917,-1.68,-3.55,2.58,1.71,-1.52,0.14,
2.917,-1.68,-3.55,2.58,1.75,-1.53,0.16,
2.917,-1.62,-2.70,2.52,1.75,-1.53,0.16,
2.917,-1.62,-2.70,2.52,1.78,-1.55,0.18,
2.918,-1.62,-2.70,2.52,1.82,-1.57,0.21,
2.918,-1.62,-2.70,2.52,1.88,-1.59,0.25,
2.918,-1.62,-2.70,2.52,1.90,-1.60,0.27,
2.918,-1.62,-2.70,2.52,1.94,-1.61,0.30,
2.919,-1.76,-1.62,2.91,1.94,-1.61,0.30,
2.919,-1.76,-1.62,2.91,1.99,-1.62,0.33,
2.919,-1.76,-1.62,2.91,2.04,-1.62,0.37,
2.919,-1.76,-1.62,2.91,2.12,-1.60,0.43,
2.92,-1.76,-1.62,2.91,2.15,-1.58,0.45,
2.92,-1.76,-1.62,2.91,2.22,-1.55,0.49,
2.924,-1.93,-0.96,3.20,2.22,-1.55,0.49,
2.925,-1.93,-0.96,3.20,2.29,-1.51,0.52,
2.925,-1.93,-0.96,3.20,2.37,-1.45,0.56,
2.925,-1.93,-0.96,3.20,2.50,-1.36,0.61,
2.927,-1.93,-0.96,3.20,2.54,-1.32,0.62,
2.931,-1.93,-0.96,3.20,2.63,-1.25,0.66,
2.931,-1.70,-0.70,3.08,2.63,-1.25,0.66,
2.932,-1.70,-0.70,3.08,2.72,-1.16,0.69,
2.933,-1.70,-0.70,3.08,2.82,-1.07,0.72,
2.936,-1.70,-0.70,3.08,2.98,-0.92,0.76,
2.937,-1.70,-0.70,3.08,3.04,-0.86,0.78,
2.939,-1.70,-0.70,3.08,3.15,-0.76,0.81,
2.94,-1.52,-0.78,3.33,3.15,-0.76,0.81,
2.941,-1.52,-0.78,3.33,3.26,-0.65,0.83,
2.942,-1.52,-0.78,3.33,3.36,-0.54,0.86,
2.951,-1.52,-0.78,3.33,3.51,-0.38,0.88,
2.952,-1.52,-0.78,3.33,3.55,-0.33,0.89,
2.952,-1.52,-0.78,3.33,3.62,-0.25,0.90,
2.952,-0.94,-1.20,2.08,3.62,-0.25,0.90,
2.952,-0.94,-1.20,2.08,3.67,-0.17,0.91,
2.952,-0.94,-1.20,2.08,3.71,-0.11,0.91,
2.958,-0.94,-1.20,2.08,3.73,-0.05,0.90,
2.96,-0.94,-1.20,2.08,3.73,-0.03,0.90,
2.961,-0.94,-1.20,2.08,3.72,-0.01,0.88,
2.989,0.18,-2.16,-1.14,3.72,-0.01,0.88,
2.99,0.18,-2.16,-1.14,3.69,0.00,0.86,
2.99,0.18,-2.16,-1.14,3.65,0.01,0.84,
2.99,0.18,-2.16,-1.14,3.56,0.01,0.80,
2.99,0.18,-2.16,-1.14,3.52,0.01,0.78,
2.99,0.18,-2.16,-1.14,3.45,0.00,0.74,
2.991,1.66,-3.12,-4.55,3.45,0.00,0.74,
2.991,1.66,-3.12,-4.55,3.36,-0.00,0.70,
2.991,1.66,-3.12,-4.55,3.27,-0.01,0.65,
2.991,1.66,-3.12,-4.55,3.12,-0.03,0.59,
2.991,1.66,-3.12,-4.55,3.07,-0.03,0.57,
2.992,1.66,-3.12,-4.55,2.97,-0.05,0.52,
2.992,2.81,-3.17,-7.06,2.97,-0.05,0.52,
2.992,2.81,-3.17,-7.06,2.88,-0.07,0.48,
2.992,2.81,-3.17,-7.06,2.79,-0.10,0.44,
2.992,2.81,-3.17,-7.06,2.66,-0.14,0.38,
2.993,2.81,-3.17,-7.06,2.62,-0.16,0.37,
2.993,2.81,-3.17,-7.06,2.55,-0.19,0.34,
2.993,2.75,-3.44,-7.42,2.55,-0.19,0.34,
2.993,2.75,-3.44,-7.42,2.48,-0.24,0.31,
2.993,2.75,-3.44,-7.42,2.41,-0.29,0.28,
2.996,2.75,-3.44,-7.42,2.32,-0.38,0.25,
2.997,2.75,-3.44,-7.42,2.29,-0.41,0.24,
2.998,2.75,-3.44,-7.42,2.24,-0.47,0.22,
3.002,2.33,-4.13,-7.00,2.24,-0.47,0.22,
3.002,2.33,-4.13,-7.00,2.19,-0.54,0.21,
3.004,2.33,-4.13,-7.00,2.14,-0.62,0.19,
3.018,2.33,-4.13,-7.00,2.06,-0.77,0.18,
3.019,2.33,-4.13,-7.00,2.05,-0.81,0.17,
3.02,2.33,-4.13,-7.00,2.03,-0.85,0.17,
3.02,1.67,-4.74,-6.25,2.03,-0.85,0.17,
3.02,1.67,-4.74,-6.25,2.00,-0.95,0.17,
3.021,1.67,-4.74,-6.25,1.97,-1.04,0.17,
3.021,1.67,-4.74,-6.25,1.93,-1.18,0.17,
3.021,1.67,-4.74,-6.25,1.92,-1.23,0.17,
3.022,1.67,-4.74,-6.25,1.90,-1.33,0.17,
3.022,1.15,-4.86,-5.84,1.90,-1.33,0.17,
3.023,1.15,-4.86,-5.84,1.89,-1.43,0.17,
3.027,1.15,-4.86,-5.84,1.87,-1.53,0.17,
3.028,1.15,-4.86,-5.84,1.85,-1.67,0.17,
3.029,1.15,-4.86,-5.84,1.85,-1.72,0.18,
3.031,1.15,-4.86,-5.84,1.83,-1.80,0.18,
3.032,0.60,-4.61,-5.23,1.83,-1.80,0.18,
3.032,0.60,-4.61,-5.23,1.82,-1.89,0.18,
3.033,0.60,-4.61,-5.23,1.83,-1.96,0.19,
3.035,0.60,-4.61,-5.23,1.95,-2.09,0.17,
3.038,0.60,-4.61,-5.23,2.02,-2.12,0.16,
3.039,0.60,-4.61,-5.23,2.18,-2.17,0.13,
3.04,1.29,-4.68,1.02,2.18,-2.17,0.13,
3.041,1.29,-4.68,1.02,2.36,-2.20,0.10,
3.042,1.29,-4.68,1.02,2.54,-2.21,0.06,
3.045,1.29,-4.68,1.02,2.81,-2.18,0.01,
3.047,1.29,-4.68,1.02,2.90,-2.17,-0.01,
3.049,1.29,-4.68,1.02,3.05,-2.13,-0.04,
3.052,2.03,-4.60,4.68,3.05,-2.13,-0.04,
3.052,2.03,-4.60,4.68,3.18,-2.07,-0.06,
3.053,2.03,-4.60,4.68,3.28,-2.00,-0.08,
3.056,2.03,-4.60,4.68,3.38,-1.88,-0.11,
3.057,2.03,-4.60,4.68,3.40,-1.83,-0.12,
3.06,2.03,-4.60,4.68,3.42,-1.74,-0.13,
3.09,1.80,-3.52,1.52,3.42,-1.74,-0.13,
3.091,1.80,-3.52,1.52,3.41,-1.62,-0.13,
3.091,1.80,-3.52,1.52,3.37,-1.50,-0.13,
3.091,1.80,-3.52,1.52,3.28,-1.31,-0.13,
3.091,1.80,-3.52,1.52,3.24,-1.25,-0.13,
3.092,1.80,-3.52,1.52,3.15,-1.11,-0.11,
3.092,1.18,-2.43,-2.76,3.15,-1.11,-0.11,
3.092,1.18,-2.43,-2.76,3.04,-0.97,-0.10,
3.093,1.18,-2.43,-2.76,2.92,-0.82,-0.08,
3.093,1.18,-2.43,-2.76,2.73,-0.58,-0.04,
3.093,1.18,-2.43,-2.76,2.66,-0.50,-0.03,
3.093,1.18,-2.43,-2.76,2.51,-0.33,-0.00,
3.094,0.48,-1.78,-5.69,2.51,-0.33,-0.00,
3.094,0.48,-1.78,-5.69,2.37,-0.15,0.03,
3.094,0.48,-1.78,-5.69,2.23,0.03,0.06,
3.095,0.48,-1.78,-5.69,2.02,0.28,0.10,
3.095,0.48,-1.78,-5.69,1.95,0.36,0.12,
3.095,0.48,-1.78,-5.69,1.82,0.52,0.15,
3.096,0.03,-1.07,-6.35,1.82,0.52,0.15,
3.096,0.03,-1.07,-6.35,1.71,0.67,0.18,
3.096,0.03,-1.07,-6.35,1.60,0.80,0.22,
3.097,0.03,-1.07,-6.35,1.47,0.98,0.27,
3.097,0.03,-1.07,-6.35,1.44,1.04,0.28,
3.111,0.03,-1.07,-6.35,1.37,1.13,0.32,
3.112,-0.44,-0.21,-5.26,1.37,1.13,0.32,
3.112,-0.44,-0.21,-5.26,1.32,1.21,0.35,
3.113,-0.44,-0.21,-5.26,1.28,1.28,0.39,
3.113,-0.44,-0.21,-5.26,1.25,1.37,0.44,
3.113,-0.44,-0.21,-5.26,1.24,1.39,0.45,
3.113,-0.44,-0.21,-5.26,1.23,1.43,0.49,
3.114,-0.89,0.62,-3.82,1.23,1.43,0.49,
3.114,-0.89,0.62,-3.82,1.23,1.47,0.52,
3.114,-0.89,0.62,-3.82,1.23,1.50,0.55,
3.118,-0.89,0.62,-3.82,1.24,1.54,0.59,
3.118,-0.89,0.62,-3.82,1.25,1.55,0.60,
3.127,-0.89,0.62,-3.82,1.27,1.58,0.63,
3.149,-1.08,1.02,-3.21,1.27,1.58,0.63,
3.15,-1.08,1.02,-3.21,1.29,1.60,0.66,
3.15,-1.08,1.02,-3.21,1.31,1.62,0.68,
3.151,-1.08,1.02,-3.21,1.35,1.65,0.72,
3.151,-1.08,1.02,-3.21,1.36,1.66,0.73,
3.151,-1.08,1.02,-3.21,1.38,1.69,0.76,
3.151,-1.09,1.17,-3.02,1.38,1.69,0.76,
3.151,-1.09,1.17,-3.02,1.40,1.71,0.78,
3.152,-1.09,1.17,-3.02,1.43,1.73,0.80,
3.152,-1.09,1.17,-3.02,1.47,1.77,0.83,
3.152,-1.09,1.17,-3.02,1.48,1.78,0.84,
3.152,-1.09,1.17,-3.02,1.51,1.80,0.86,
3.152,-0.99,1.13,-2.91,1.51,1.80,0.86,
3.152,-0.99,1.13,-2.91,1.54,1.81,0.87,
3.153,-0.99,1.13,-2.91,1.57,1.81,0.88,
3.153,-0.99,1.13,-2.91,1.63,1.80,0.91,
3.153,-0.99,1.13,-2.91,1.65,1.79,0.91,
3.153,-0.99,1.13,-2.91,1.68,1.77,0.93,
3.153,-0.96,1.02,-2.48,1.68,1.77,0.93,
3.154,-0.96,1.02,-2.48,1.72,1.75,0.94,
3.154,-0.96,1.02,-2.48,1.76,1.72,0.96,
3.157,-0.96,1.02,-2.48,1.81,1.66,0.98,
3.157,-0.96,1.02,-2.48,1.83,1.64,0.99,
3.16,-0.96,1.02,-2.48,1.87,1.59,1.00,
3.163,-1.16,0.79,-2.42,1.87,1.59,1.00,
3.163,-1.16,0.79,-2.42,1.90,1.53,1.01,
3.167,-1.16,0.79,-2.42,1.93,1.47,1.03,
3.167,-1.16,0.79,-2.42,1.98,1.38,1.04,
3.168,-1.16,0.79,-2.42,1.99,1.34,1.05,
3.17,-1.16,0.79,-2.42,2.01,1.28,1.06,
3.173,-1.27,0.76,-2.68,2.01,1.28,1.06,
3.173,-1.27,0.76,-2.68,2.03,1.21,1.08,
3.173,-1.27,0.76,-2.68,2.04,1.14,1.09,
3.175,-1.27,0.76,-2.68,2.06,1.03,1.10,
3.176,-1.27,0.76,-2.68,2.06,1.00,1.10,
3.179,-1.27,0.76,-2.68,2.06,0.93,1.11,
3.181,-1.31,0.77,-3.41,2.06,0.93,1.11,
3.181,-1.31,0.77,-3.41,2.05,0.86,1.11,
3.183,-1.31,0.77,-3.41,2.05,0.80,1.12,
3.186,-1.31,0.77,-3.41,2.03,0.72,1.12,
3.186,-1.31,0.77,-3.41,2.02,0.70,1.12,
3.188,-1.31,0.77,-3.41,1.99,0.65,1.11,
3.191,-1.14,0.88,-4.05,1.99,0.65,1.11,
3.191,-1.14,0.88,-4.05,1.97,0.62,1.11,
3.192,-1.14,0.88,-4.05,1.94,0.59,1.10,
3.196,-1.14,0.88,-4.05,1.88,0.55,1.09,
3.198,-1.14,0.88,-4.05,1.86,0.54,1.08,
3.2,-1.14,0.88,-4.05,1.82,0.51,1.06,
3.201,-0.99,1.20,-4.72,1.82,0.51,1.06,
3.201,-0.99,1.20,-4.72,1.77,0.50,1.05,
3.202,-0.99,1.20,-4.72,1.72,0.48,1.03,
3.206,-0.99,1.20,-4.72,1.63,0.45,0.99,
3.207,-0.99,1.20,-4.72,1.60,0.44,0.98,
3.209,-0.99,1.20,-4.72,1.54,0.41,0.95,
3.227,-0.65,1.73,-4.84,1.54,0.41,0.95,
3.227,-0.65,1.73,-4.84,1.47,0.39,0.92,
3.227,-0.65,1.73,-4.84,1.40,0.36,0.88,
3.228,-0.65,1.73,-4.84,1.29,0.31,0.82,
3.228,-0.65,1.73,-4.84,1.25,0.29,0.80,
3.228,-0.65,1.73,-4.84,1.18,0.26,0.76,
3.228,-0.27,2.30,-4.89,1.18,0.26,0.76,
3.228,-0.27,2.30,-4.89,1.10,0.22,0.71,
3.228,-0.27,2.30,-4.89,1.02,0.17,0.67,
3.229,-0.27,2.30,-4.89,0.90,0.11,0.59,
3.249,-0.27,2.30,-4.89,0.86,0.08,0.57,
3.25,-0.27,2.30,-4.89,0.78,0.03,0.52,
3.25,0.01,2.80,-4.62,0.78,0.03,0.52,
3.25,0.01,2.80,-4.62,0.71,-0.02,0.47,
3.25,0.01,2.80,-4.62,0.63,-0.07,0.41,
3.25,0.01,2.80,-4.62,0.51,-0.16,0.34,
3.251,0.01,2.80,-4.62,0.47,-0.19,0.31,
3.254,0.01,2.80,-4.62,0.40,-0.25,0.26,
3.255,0.17,3.07,-4.55,0.40,-0.25,0.26,
3.255,0.17,3.07,-4.55,0.33,-0.31,0.21,
3.256,0.17,3.07,-4.55,0.26,-0.38,0.16,
3.256,0.17,3.07,-4.55,0.15,-0.48,0.09,
3.257,0.17,3.07,-4.55,0.11,-0.51,0.06,
3.257,0.17,3.07,-4.55,0.05,-0.57,0.02,
3.258,0.22,3.30,-4.28,0.05,-0.57,0.02,
3.258,0.22,3.30,-4.28,-0.01,-0.62,-0.02,
3.258,0.22,3.30,-4.28,-0.08,-0.67,-0.06,
3.259,0.22,3.30,-4.28,-0.17,-0.74,-0.11,
3.259,0.22,3.30,-4.28,-0.20,-0.76,-0.12,
3.269,0.22,3.30,-4.28,-0.26,-0.79,-0.14,
3.27,-0.01,3.45,-4.13,-0.26,-0.79,-0.14,
3.27,-0.01,3.45,-4.13,-0.31,-0.82,-0.16,
3.271,-0.01,3.45,-4.13,-0.36,-0.84,-0.18,
3.271,-0.01,3.45,-4.13,-0.43,-0.86,-0.19,
3.271,-0.01,3.45,-4.13,-0.46,-0.87,-0.19,
3.274,-0.20,3.66,-3.86,-0.46,-0.87,-0.19,
3.274,-0.20,3.66,-3.86,-0.58,-0.91,-0.21,
3.275,-0.20,3.66,-3.86,-0.58,-0.91,-0.21,
3.275,-0.20,3.66,-3.86,-0.58,-0.91,-0.21,
3.276,-0.20,3.66,-3.86,-0.64,-0.94,-0.21,
3.285,-0.20,3.66,-3.86,-0.65,-0.95,-0.21,
3.285,-0.20,3.66,-3.86,-0.69,-0.96,-0.20,
3.285,-0.29,3.75,-3.72,-0.69,-0.96,-0.20,
3.286,-0.29,3.75,-3.72,-0.72,-0.99,-0.19,
3.286,-0.29,3.75,-3.72,-0.75,-1.01,-0.19,
3.288,-0.29,3.75,-3.72,-0.81,-1.05,-0.18,
3.288,-0.29,3.75,-3.72,-0.82,-1.07,-0.17,
3.288,-0.29,3.75,-3.72,-0.86,-1.10,-0.17,
3.291,-0.19,3.91,-3.47,-0.86,-1.10,-0.17,
3.291,-0.19,3.91,-3.47,-0.90,-1.13,-0.16,
3.292,-0.19,3.91,-3.47,-0.93,-1.16,-0.16,
3.303,-0.19,3.91,-3.47,-0.99,-1.21,-0.15,
3.304,-0.19,3.91,-3.47,-1.01,-1.22,-0.15,
3.304,-0.19,3.91,-3.47,-1.05,-1.25,-0.15,
3.304,-0.02,4.02,-3.40,-1.05,-1.25,-0.15,
3.306,-0.02,4.02,-3.40,-1.09,-1.28,-0.14,
3.306,-0.02,4.02,-3.40,-1.14,-1.32,-0.14,
3.307,-0.02,4.02,-3.40,-1.20,-1.37,-0.13,
3.307,-0.02,4.02,-3.40,-1.22,-1.39,-0.13,
3.309,-0.02,4.02,-3.40,-1.27,-1.42,-0.13,
3.312,0.07,4.20,-3.14,-1.27,-1.42,-0.13,
3.312,0.07,4.20,-3.14,-1.32,-1.45,-0.13,
3.315,0.07,4.20,-3.14,-1.37,-1.49,-0.14,
3.315,0.07,4.20,-3.14,-1.45,-1.54,-0.14,
3.317,0.07,4.20,-3.14,-1.47,-1.55,-0.14,
3.318,0.07,4.20,-3.14,-1.52,-1.59,-0.15,
3.321,0.23,4.35,-2.87,-1.52,-1.59,-0.15,
3.321,0.23,4.35,-2.87,-1.58,-1.62,-0.15,
3.322,0.23,4.35,-2.87,-1.63,-1.66,-0.16,
3.326,0.23,4.35,-2.87,-1.72,-1.71,-0.17,
3.327,0.23,4.35,-2.87,-1.75,-1.72,-0.18,
3.338,0.23,4.35,-2.87,-1.81,-1.76,-0.19,
3.338,0.32,4.46,-2.34,-1.81,-1.76,-0.19,
3.339,0.32,4.46,-2.34,-1.87,-1.78,-0.20,
3.339,0.32,4.46,-2.34,-1.93,-1.82,-0.21,
3.339,0.32,4.46,-2.34,-2.03,-1.85,-0.23,
3.339,0.32,4.46,-2.34,-2.06,-1.87,-0.24,
3.361,0.32,4.46,-2.34,-2.13,-1.89,-0.26,
3.362,0.82,4.29,-1.79,-2.13,-1.89,-0.26,
3.362,0.82,4.29,-1.79,-2.20,-1.91,-0.28,
3.362,0.82,4.29,-1.79,-2.27,-1.93,-0.31,
3.362,0.82,4.29,-1.79,-2.38,-1.95,-0.35,
3.363,0.82,4.29,-1.79,-2.42,-1.95,-0.37,
3.363,0.82,4.29,-1.79,-2.49,-1.96,-0.40,
3.363,1.74,3.79,-1.12,-2.49,-1.96,-0.40,
3.363,1.74,3.79,-1.12,-2.56,-1.96,-0.43,
3.364,1.74,3.79,-1.12,-2.64,-1.96,-0.47,
3.364,1.74,3.79,-1.12,-2.77,-1.95,-0.56,
3.364,1.74,3.79,-1.12,-2.80,-1.94,-0.58,
3.364,1.74,3.79,-1.12,-2.83,-1.94,-0.61,
3.365,3.45,2.83,0.51,-2.83,-1.94,-0.61,
3.365,3.45,2.83,0.51,-2.89,-1.92,-0.66,
3.365,3.45,2.83,0.51,-2.93,-1.90,-0.72,
3.367,3.45,2.83,0.51,-2.98,-1.85,-0.81,
3.367,3.45,2.83,0.51,-2.99,-1.83,-0.84,
3.369,3.45,2.83,0.51,-3.00,-1.78,-0.90,
3.371,4.66,1.46,3.26,-3.00,-1.78,-0.90,
3.371,4.66,1.46,3.26,-3.00,-1.72,-0.95,
3.372,4.66,1.46,3.26,-2.97,-1.64,-1.01,
3.375,4.66,1.46,3.26,-2.89,-1.50,-1.09,
3.378,4.66,1.46,3.26,-2.86,-1.45,-1.11,
3.38,4.66,1.46,3.26,-2.76,-1.33,-1.16,
3.385,5.43,-0.88,8.70,-2.76,-1.33,-1.16,
3.386,5.43,-0.88,8.70,-2.64,-1.19,-1.20,
3.387,5.43,-0.88,8.70,-2.51,-1.04,-1.24,
3.387,5.43,-0.88,8.70,-2.31,-0.80,-1.29,
3.388,5.43,-0.88,8.70,-2.23,-0.72,-1.31,
3.388,5.43,-0.88,8.70,-2.08,-0.56,-1.34,
3.391,5.82,-3.28,13.24,-2.08,-0.56,-1.34,
3.391,5.82,-3.28,13.24,-1.93,-0.41,-1.38,
3.407,5.82,-3.28,13.24,-1.78,-0.28,-1.42,
3.407,5.82,-3.28,13.24,-1.56,-0.14,-1.46,
3.408,5.82,-3.28,13.24,-1.48,-0.11,-1.48,
3.408,5.82,-3.28,13.24,-1.33,-0.08,-1.50,
3.408,6.52,-5.03,15.35,-1.33,-0.08,-1.50,
3.408,6.52,-5.03,15.35,-1.18,-0.08,-1.53,
3.408,6.52,-5.03,15.35,-1.04,-0.12,-1.55,
3.409,6.52,-5.03,15.35,-0.81,-0.25,-1.58,
3.409,6.52,-5.03,15.35,-0.74,-0.30,-1.58,
3.409,6.52,-5.03,15.35,-0.59,-0.44,-1.60,
3.413,6.83,-6.01,15.71,-0.59,-0.44,-1.60,
3.414,6.83,-6.01,15.71,-0.43,-0.59,-1.60,
3.414,6.83,-6.01,15.71,-0.28,-0.77,-1.60,
3.417,6.83,-6.01,15.71,-0.06,-1.04,-1.58,
3.417,6.83,-6.01,15.71,0.01,-1.13,-1.57,
3.419,6.83,-6.01,15.71,0.14,-1.31,-1.54,
3.421,5.42,-5.71,14.47,0.14,-1.31,-1.54,
3.421,5.42,-5.71,14.47,0.27,-1.49,-1.50,
3.423,5.42,-5.71,14.47,0.38,-1.66,-1.44,
3.425,5.42,-5.71,14.47,0.53,-1.89,-1.35,
3.427,5.42,-5.71,14.47,0.57,-1.95,-1.32,
3.429,5.42,-5.71,14.47,0.65,-2.07,-1.25,
3.432,2.88,-4.45,10.78,0.65,-2.07,-1.25,
3.432,2.88,-4.45,10.78,0.71,-2.16,-1.17,
3.434,2.88,-4.45,10.78,0.75,-2.22,-1.08,
3.436,2.88,-4.45,10.78,0.79,-2.27,-0.96,
3.437,2.88,-4.45,10.78,0.80,-2.28,-0.92,
3.439,2.88,-4.45,10.78,0.79,-2.27,-0.84,
3.441,0.89,-2.52,6.88,0.79,-2.27,-0.84,
3.441,0.89,-2.52,6.88,0.78,-2.25,-0.77,
3.443,0.89,-2.52,6.88,0.75,-2.21,-0.70,
3.445,0.89,-2.52,6.88,0.70,-2.10,-0.61,
3.447,0.89,-2.52,6.88,0.67,-2.06,-0.58,
3.449,0.89,-2.52,6.88,0.61,-1.95,-0.53,
3.451,0.01,-1.06,4.16,0.61,-1.95,-0.53,
3.451,0.01,-1.06,4.16,0.54,-1.83,-0.49,
3.453,0.01,-1.06,4.16,0.46,-1.69,-0.45,
3.455,0.01,-1.06,4.16,0.33,-1.45,-0.40,
3.456,0.01,-1.06,4.16,0.28,-1.36,-0.39,
3.458,0.01,-1.06,4.16,0.18,-1.18,-0.35,
3.461,-1.20,-0.29,2.55,0.18,-1.18,-0.35,
3.461,-1.20,-0.29,2.55,0.08,-1.00,-0.31,
3.463,-1.20,-0.29,2.55,-0.04,-0.81,-0.27,
3.466,-1.20,-0.29,2.55,-0.21,-0.52,-0.20,
3.466,-1.20,-0.29,2.55,-0.26,-0.43,-0.17,
3.468,-1.20,-0.29,2.55,-0.37,-0.26,-0.12,
3.471,-2.98,-1.09,1.69,-0.37,-0.26,-0.12,
3.471,-2.98,-1.09,1.69,-0.48,-0.10,-0.05,
3.472,-2.98,-1.09,1.69,-0.58,0.05,0.02,
3.475,-2.98,-1.09,1.69,-0.72,0.22,0.14,
3.482,-2.98,-1.09,1.69,-0.76,0.27,0.18,
3.483,-2.98,-1.09,1.69,-0.84,0.34,0.27,
3.483,-4.75,-3.36,1.44,-0.84,0.34,0.27,
3.483,-4.75,-3.36,1.44,-0.92,0.38,0.36,
3.483,-4.75,-3.36,1.44,-1.00,0.39,0.46,
3.487,-4.75,-3.36,1.44,-1.10,0.34,0.61,
3.487,-4.75,-3.36,1.44,-1.14,0.31,0.66,
3.488,-4.75,-3.36,1.44,-1.21,0.22,0.76,
3.491,-5.49,-5.30,-0.25,-1.21,0.22,0.76,
3.491,-5.49,-5.30,-0.25,-1.29,0.11,0.85,
3.522,-5.49,-5.30,-0.25,-1.35,-0.01,0.94,
3.523,-5.49,-5.30,-0.25,-1.44,-0.21,1.06,
3.523,-5.49,-5.30,-0.25,-1.47,-0.28,1.10,
3.523,-5.49,-5.30,-0.25,-1.51,-0.41,1.18,
3.523,-5.17,-6.97,-3.01,-1.51,-0.41,1.18,
3.524,-5.17,-6.97,-3.01,-1.54,-0.54,1.24,
3.524,-5.17,-6.97,-3.01,-1.56,-0.66,1.31,
3.524,-5.17,-6.97,-3.01,-1.56,-0.83,1.39,
3.524,-5.17,-6.97,-3.01,-1.55,-0.89,1.41,
3.524,-5.17,-6.97,-3.01,-1.51,-0.98,1.45,
3.524,-4.48,-7.93,-4.43,-1.51,-0.98,1.45,
3.525,-4.48,-7.93,-4.43,-1.46,-1.06,1.48,
3.525,-4.48,-7.93,-4.43,-1.40,-1.13,1.50,
3.525,-4.48,-7.93,-4.43,-1.27,-1.20,1.51,
3.525,-4.48,-7.93,-4.43,-1.22,-1.21,1.51,
3.525,-4.48,-7.93,-4.43,-1.11,-1.23,1.51,
3.526,-4.13,-7.72,-4.77,-1.11,-1.23,1.51,
3.526,-4.13,-7.72,-4.77,-0.99,-1.24,1.50,
3.526,-4.13,-7.72,-4.77,-0.87,-1.24,1.48,
3.526,-4.13,-7.72,-4.77,-0.69,-1.22,1.44,
3.529,-4.13,-7.72,-4.77,-0.63,-1.21,1.43,
3.529,-4.13,-7.72,-4.77,-0.50,-1.19,1.39,
3.531,-4.13,-6.18,-4.36,-0.50,-1.19,1.39,
3.531,-4.13,-6.18,-4.36,-0.38,-1.16,1.35,
3.533,-4.13,-6.18,-4.36,-0.25,-1.13,1.31,
3.535,-4.13,-6.18,-4.36,-0.07,-1.08,1.24,
3.536,-4.13,-6.18,-4.36,-0.00,-1.06,1.22,
3.538,-4.13,-6.18,-4.36,0.11,-1.03,1.18,
3.541,-4.45,-3.43,-3.60,0.11,-1.03,1.18,
3.541,-4.45,-3.43,-3.60,0.22,-1.00,1.14,
3.543,-4.45,-3.43,-3.60,0.34,-0.97,1.10,
3.546,-4.45,-3.43,-3.60,0.49,-0.93,1.06,
3.547,-4.45,-3.43,-3.60,0.54,-0.92,1.04,
3.549,-4.45,-3.43,-3.60,0.63,-0.89,1.02,
3.551,-4.88,-0.44,-2.98,0.63,-0.89,1.02,
3.552,-4.88,-0.44,-2.98,0.71,-0.85,1.00,
3.552,-4.88,-0.44,-2.98,0.79,-0.80,0.99,
3.555,-4.88,-0.44,-2.98,0.88,-0.72,0.97,
3.557,-4.88,-0.44,-2.98,0.90,-0.69,0.97,
3.559,-4.88,-0.44,-2.98,0.95,-0.63,0.96,
3.58,-4.94,2.01,-2.98,0.95,-0.63,0.96,
3.58,-4.94,2.01,-2.98,0.99,-0.56,0.96,
3.58,-4.94,2.01,-2.98,1.02,-0.49,0.96,
3.581,-4.94,2.01,-2.98,1.05,-0.38,0.96,
3.581,-4.94,2.01,-2.98,1.06,-0.34,0.96,
3.581,-4.94,2.01,-2.98,1.07,-0.26,0.96,
3.581,-4.03,4.07,-2.90,1.07,-0.26,0.96,
3.581,-4.03,4.07,-2.90,1.08,-0.18,0.97,
3.582,-4.03,4.07,-2.90,1.07,-0.10,0.97,
3.582,-4.03,4.07,-2.90,1.06,0.02,0.98,
3.582,-4.03,4.07,-2.90,1.06,0.07,0.99,
3.582,-4.03,4.07,-2.90,1.04,0.17,1.00,
3.583,-3.31,5.60,-3.09,1.04,0.17,1.00,
3.583,-3.31,5.60,-3.09,1.03,0.26,1.01,
3.59,-3.31,5.60,-3.09,1.00,0.36,1.02,
3.59,-3.31,5.60,-3.09,0.96,0.52,1.03,
3.59,-3.31,5.60,-3.09,0.95,0.58,1.04,
3.591,-3.31,5.60,-3.09,0.91,0.70,1.04,
3.591,-2.23,6.72,-3.08,0.91,0.70,1.04,
3.591,-2.23,6.72,-3.08,0.87,0.85,1.04,
3.6,-2.23,6.72,-3.08,0.82,1.12,1.04,
3.601,-2.23,6.72,-3.08,0.73,1.78,1.02,
3.601,-2.23,6.72,-3.08,0.69,2.03,1.01,
3.602,-2.23,6.72,-3.08,0.62,2.54,0.98,
3.602,-1.04,7.94,-2.35,0.62,2.54,0.98,
3.602,-1.04,7.94,-2.35,0.53,3.02,0.95,
3.603,-1.04,7.94,-2.35,0.44,3.44,0.92,
3.606,-1.04,7.94,-2.35,0.30,3.91,0.89,
3.607,-1.04,7.94,-2.35,0.25,4.04,0.88,
3.622,-1.04,7.94,-2.35,0.16,4.22,0.86,
3.623,-0.03,7.13,-2.87,0.16,4.22,0.86,
3.623,-0.03,7.13,-2.87,0.07,4.33,0.85,
3.623,-0.03,7.13,-2.87,-0.03,4.38,0.83,
3.623,-0.03,7.13,-2.87,-0.17,4.37,0.81,
3.623,-0.03,7.13,-2.87,-0.21,4.34,0.80,
3.623,-0.03,7.13,-2.87,-0.30,4.27,0.77,
3.624,0.62,4.58,-3.97,-0.30,4.27,0.77,
3.624,0.62,4.58,-3.97,-0.39,4.16,0.73,
3.624,0.62,4.58,-3.97,-0.48,4.03,0.68,
3.627,0.62,4.58,-3.97,-0.60,3.80,0.59,
3.627,0.62,4.58,-3.97,-0.64,3.72,0.55,
3.629,0.62,4.58,-3.97,-0.72,3.54,0.48,
3.632,2.00,1.55,-4.52,-0.72,3.54,0.48,
3.632,2.00,1.55,-4.52,-0.80,3.36,0.40,
3.632,2.00,1.55,-4.52,-0.87,3.18,0.32,
3.635,2.00,1.55,-4.52,-0.97,2.90,0.19,
3.637,2.00,1.55,-4.52,-1.00,2.81,0.15,
3.639,2.00,1.55,-4.52,-1.05,2.64,0.07,
3.641,2.90,-1.71,-4.37,-1.05,2.64,0.07,
3.641,2.90,-1.71,-4.37,-1.10,2.46,-0.01,
3.643,2.90,-1.71,-4.37,-1.13,2.29,-0.08,
3.645,2.90,-1.71,-4.37,-1.17,2.04,-0.20,
3.646,2.90,-1.71,-4.37,-1.18,1.95,-0.24,
3.649,2.90,-1.71,-4.37,-1.21,1.77,-0.31,
3.651,2.99,-4.17,-3.31,-1.21,1.77,-0.31,
3.651,2.99,-4.17,-3.31,-1.22,1.60,-0.38,
3.652,2.99,-4.17,-3.31,-1.23,1.43,-0.45,
3.655,2.99,-4.17,-3.31,-1.22,1.19,-0.55,
3.656,2.99,-4.17,-3.31,-1.22,1.11,-0.58,
3.659,2.99,-4.17,-3.31,-1.21,0.96,-0.65,
3.661,3.05,-5.60,-2.22,-1.21,0.96,-0.65,
3.662,3.05,-5.60,-2.22,-1.20,0.81,-0.71,
3.662,3.05,-5.60,-2.22,-1.18,0.67,-0.77,
3.665,3.05,-5.60,-2.22,-1.14,0.48,-0.86,
3.667,3.05,-5.60,-2.22,-1.12,0.42,-0.88,
3.668,3.05,-5.60,-2.22,-1.09,0.30,-0.94,
3.67,3.10,-5.89,-1.24,-1.09,0.30,-0.94,
3.671,3.10,-5.89,-1.24,-1.05,0.18,-0.99,
3.672,3.10,-5.89,-1.24,-1.02,0.07,-1.05,
3.678,3.10,-5.89,-1.24,-0.97,-0.07,-1.11,
3.678,3.10,-5.89,-1.24,-0.95,-0.12,-1.13,
3.679,3.10,-5.89,-1.24,-0.92,-0.21,-1.18,
3.68,3.12,-5.05,-0.71,-0.92,-0.21,-1.18,
3.681,3.12,-5.05,-0.71,-0.90,-0.28,-1.21,
3.682,3.12,-5.05,-0.71,-0.87,-0.35,-1.24,
3.685,3.12,-5.05,-0.71,-0.84,-0.45,-1.29,
3.686,3.12,-5.05,-0.71,-0.83,-0.47,-1.30,
3.688,3.12,-5.05,-0.71,-0.81,-0.52,-1.32,
3.69,2.74,-3.69,-0.50,-0.81,-0.52,-1.32,
3.691,2.74,-3.69,-0.50,-0.79,-0.56,-1.34,
3.693,2.74,-3.69,-0.50,-0.78,-0.60,-1.36,
3.695,2.74,-3.69,-0.50,-0.76,-0.64,-1.39,
3.696,2.74,-3.69,-0.50,-0.75,-0.65,-1.39,
3.699,2.74,-3.69,-0.50,-0.74,-0.68,-1.41,
3.7,2.45,-2.32,-0.22,-0.74,-0.68,-1.41,
3.7,2.45,-2.32,-0.22,-0.73,-0.70,-1.42,
3.702,2.45,-2.32,-0.22,-0.72,-0.72,-1.43,
3.706,2.45,-2.32,-0.22,-0.70,-0.78,-1.45,
3.707,2.45,-2.32,-0.22,-0.69,-0.81,-1.46,
3.708,2.45,-2.32,-0.22,-0.67,-0.84,-1.46,
3.71,2.23,-0.88,1.68,-0.67,-0.84,-1.46,
3.71,2.23,-0.88,1.68,-0.62,-0.89,-1.46,
3.712,2.23,-0.88,1.68,-0.33,-1.12,-1.46,
3.715,2.23,-0.88,1.68,0.04,-1.59,-1.40,
3.716,2.23,-0.88,1.68,0.10,-1.75,-1.36,
3.718,2.23,-0.88,1.68,0.18,-2.06,-1.29,
3.72,0.63,1.77,13.20,0.18,-2.06,-1.29,
3.721,0.63,1.77,13.20,0.24,-2.34,-1.20,
3.722,0.63,1.77,13.20,0.27,-2.57,-1.11,
3.735,0.63,1.77,13.20,0.25,-2.85,-0.96,
3.75,0.63,1.77,13.20,0.23,-2.92,-0.92,
3.75,0.63,1.77,13.20,0.18,-3.04,-0.82,
3.75,-0.57,2.66,8.87,0.18,-3.04,-0.82,
3.75,-0.57,2.66,8.87,0.11,-3.12,-0.73,
3.751,-0.57,2.66,8.87,0.02,-3.17,-0.66,
3.751,-0.57,2.66,8.87,-0.12,-3.19,-0.55,
3.751,-0.57,2.66,8.87,-0.21,-3.17,-0.50,
3.751,-0.57,2.66,8.87,-0.26,-3.16,-0.48,
3.751,-0.41,2.39,4.21,-0.26,-3.16,-0.48,
3.751,-0.41,2.39,4.21,-0.36,-3.11,-0.44,
3.751,-0.41,2.39,4.21,-0.46,-3.05,-0.40,
3.751,-0.41,2.39,4.21,-0.60,-2.92,-0.36,
3.751,-0.41,2.39,4.21,-0.64,-2.87,-0.35,
3.752,-0.41,2.39,4.21,-0.73,-2.77,-0.33,
3.752,0.02,1.92,1.60,-0.73,-2.77,-0.33,
3.752,0.02,1.92,1.60,-0.81,-2.67,-0.31,
3.754,0.02,1.92,1.60,-0.88,-2.55,-0.30,
3.758,0.02,1.92,1.60,-0.98,-2.38,-0.28,
3.759,0.02,1.92,1.60,-1.01,-2.32,-0.27,
3.759,0.02,1.92,1.60,-1.05,-2.20,-0.25,
3.772,0.08,1.56,0.69,-1.05,-2.20,-0.25,
3.773,0.08,1.56,0.69,-1.09,-2.08,-0.23,
3.773,0.08,1.56,0.69,-1.12,-1.97,-0.21,
3.773,0.08,1.56,0.69,-1.15,-1.82,-0.18,
3.773,0.08,1.56,0.69,-1.16,-1.73,-0.15,
3.773,0.08,1.56,0.69,-1.16,-1.68,-0.14,
3.773,0.06,1.25,0.66,-1.16,-1.68,-0.14,
3.773,0.06,1.25,0.66,-1.16,-1.60,-0.12,
3.774,0.06,1.25,0.66,-1.15,-1.53,-0.09,
3.777,0.06,1.25,0.66,-1.13,-1.43,-0.05,
3.777,0.06,1.25,0.66,-1.11,-1.37,-0.02,
3.781,0.06,1.25,0.66,-1.10,-1.34,-0.01,
3.781,0.13,1.03,0.93,-1.10,-1.34,-0.01,
3.782,0.13,1.03,0.93,-1.07,-1.28,0.02,
3.783,0.13,1.03,0.93,-1.04,-1.23,0.04,
3.785,0.13,1.03,0.93,-1.00,-1.15,0.07,
3.786,0.13,1.03,0.93,-0.98,-1.13,0.08,
3.789,0.13,1.03,0.93,-0.95,-1.08,0.10,
3.791,0.26,0.79,1.01,-0.95,-1.08,0.10,
3.791,0.26,0.79,1.01,-0.92,-1.03,0.10,
3.792,0.26,0.79,1.01,-0.88,-0.98,0.11,
3.795,0.26,0.79,1.01,-0.83,-0.91,0.12,
3.797,0.26,0.79,1.01,-0.82,-0.88,0.12,
3.8,0.26,0.79,1.01,-0.78,-0.83,0.13,
3.801,0.37,0.56,1.08,-0.78,-0.83,0.13,
3.801,0.37,0.56,1.08,-0.74,-0.78,0.13,
3.802,0.37,0.56,1.08,-0.71,-0.73,0.13,
3.805,0.37,0.56,1.08,-0.65,-0.65,0.13,
3.806,0.37,0.56,1.08,-0.63,-0.62,0.13,
3.809,0.37,0.56,1.08,-0.58,-0.57,0.13,
3.811,0.24,0.47,1.25,-0.58,-0.57,0.13,
3.811,0.24,0.47,1.25,-0.54,-0.51,0.13,
3.813,0.24,0.47,1.25,-0.50,-0.46,0.13,
3.815,0.24,0.47,1.25,-0.44,-0.37,0.13,
3.817,0.24,0.47,1.25,-0.42,-0.34,0.13,
3.818,0.24,0.47,1.25,-0.37,-0.28,0.13,
3.82,-0.05,0.44,1.77,-0.37,-0.28,0.13,
3.821,-0.05,0.44,1.77,-0.33,-0.22,0.13,
3.823,-0.05,0.44,1.77,-0.29,-0.16,0.13,
3.825,-0.05,0.44,1.77,-0.23,-0.07,0.14,
3.827,-0.05,0.44,1.77,-0.21,-0.04,0.14,
3.828,-0.05,0.44,1.77,-0.16,0.01,0.14,
3.831,0.21,0.70,2.66,-0.16,0.01,0.14,
3.831,0.21,0.70,2.66,-0.12,0.06,0.15,
3.833,0.21,0.70,2.66,-0.06,0.11,0.15,
3.835,0.21,0.70,2.66,0.01,0.18,0.15,
3.837,0.21,0.70,2.66,0.04,0.20,0.15,
3.838,0.21,0.70,2.66,0.10,0.24,0.15,
3.841,1.23,1.14,4.39,0.10,0.24,0.15,
3.841,1.23,1.14,4.39,0.16,0.28,0.15,
3.843,1.23,1.14,4.39,0.22,0.31,0.15,
3.845,1.23,1.14,4.39,0.32,0.35,0.13,
3.847,1.23,1.14,4.39,0.35,0.36,0.13,
3.85,1.23,1.14,4.39,0.42,0.38,0.12,
3.851,2.33,1.53,5.63,0.42,0.38,0.12,
3.851,2.33,1.53,5.63,0.48,0.39,0.11,
3.852,2.33,1.53,5.63,0.53,0.40,0.09,
3.856,2.33,1.53,5.63,0.62,0.41,0.08,
3.856,2.33,1.53,5.63,0.65,0.41,0.07,
3.867,2.33,1.53,5.63,0.70,0.41,0.06,
3.868,3.03,1.84,6.50,0.70,0.41,0.06,
3.869,3.03,1.84,6.50,0.76,0.40,0.04,
3.869,3.03,1.84,6.50,0.81,0.40,0.03,
3.869,3.03,1.84,6.50,0.90,0.39,0.01,
3.87,3.03,1.84,6.50,0.93,0.39,0.01,
3.871,3.03,1.84,6.50,0.99,0.38,-0.01,
3.872,3.20,2.10,7.16,0.99,0.38,-0.01,
3.872,3.20,2.10,7.16,1.05,0.38,-0.02,
3.915,3.20,2.10,7.16,1.11,0.38,-0.03,
3.916,3.20,2.10,7.16,1.22,0.39,-0.05,
3.916,3.20,2.10,7.16,1.26,0.40,-0.05,
3.917,3.20,2.10,7.16,1.35,0.43,-0.06,
3.917,2.97,2.35,9.08,1.35,0.43,-0.06,
3.917,2.97,2.35,9.08,1.45,0.46,-0.05,
3.918,2.97,2.35,9.08,1.55,0.52,-0.05,
3.918,2.97,2.35,9.08,1.72,0.61,-0.03,
3.918,2.97,2.35,9.08,1.78,0.65,-0.02,
3.919,2.97,2.35,9.08,1.90,0.74,0.00,
3.919,1.63,2.66,11.51,1.90,0.74,0.00,
3.919,1.63,2.66,11.51,2.02,0.83,0.04,
3.95,1.63,2.66,11.51,2.13,0.93,0.08,
3.95,1.63,2.66,11.51,2.29,1.09,0.15,
3.951,1.63,2.66,11.51,2.33,1.15,0.18,
3.951,1.63,2.66,11.51,2.40,1.26,0.25,
3.952,-0.56,3.34,12.28,2.40,1.26,0.25,
3.952,-0.56,3.34,12.28,2.44,1.37,0.32,
3.953,-0.56,3.34,12.28,2.46,1.47,0.39,
3.953,-0.56,3.34,12.28,2.42,1.60,0.50,
3.953,-0.56,3.34,12.28,2.38,1.64,0.54,
3.954,-0.56,3.34,12.28,2.29,1.71,0.62,
3.954,-2.64,4.08,7.70,2.29,1.71,0.62,
3.955,-2.64,4.08,7.70,2.17,1.75,0.69,
3.955,-2.64,4.08,7.70,2.02,1.78,0.77,
3.956,-2.64,4.08,7.70,1.75,1.78,0.87,
3.956,-2.64,4.08,7.70,1.65,1.77,0.90,
3.956,-2.64,4.08,7.70,1.45,1.73,0.96,
3.957,-4.15,4.28,0.72,1.45,1.73,0.96,
3.957,-4.15,4.28,0.72,1.25,1.65,1.00,
3.958,-4.15,4.28,0.72,1.05,1.55,1.04,
3.958,-4.15,4.28,0.72,0.78,1.35,1.08,
3.958,-4.15,4.28,0.72,0.62,1.19,1.09,
3.959,-4.15,4.28,0.72,0.55,1.10,1.10,
3.959,-3.47,3.12,-3.37,0.55,1.10,1.10,
3.959,-3.47,3.12,-3.37,0.43,0.91,1.11,
3.96,-3.47,3.12,-3.37,0.33,0.70,1.11,
3.96,-3.47,3.12,-3.37,0.22,0.36,1.11,
3.96,-3.47,3.12,-3.37,0.17,0.12,1.11,
3.96,-3.47,3.12,-3.37,0.16,-0.01,1.11,
3.961,-2.26,2.20,-4.70,0.16,-0.01,1.11,
3.961,-2.26,2.20,-4.70,0.13,-0.25,1.11,
3.961,-2.26,2.20,-4.70,0.13,-0.50,1.11,
3.961,-2.26,2.20,-4.70,0.14,-0.87,1.10,
3.962,-2.26,2.20,-4.70,0.15,-0.99,1.10,
3.962,-2.26,2.20,-4.70,0.17,-1.22,1.09,
3.962,-1.45,2.46,-4.94,0.17,-1.22,1.09,
3.962,-1.45,2.46,-4.94,0.19,-1.45,1.08,
3.963,-1.45,2.46,-4.94,0.21,-1.67,1.08,
3.963,-1.45,2.46,-4.94,0.25,-1.97,1.07,
3.963,-1.45,2.46,-4.94,0.26,-2.07,1.07,
3.964,-1.45,2.46,-4.94,0.29,-2.26,1.06,
3.964,-1.18,3.51,-5.46,0.29,-2.26,1.06,
3.964,-1.18,3.51,-5.46,0.32,-2.43,1.06,
3.964,-1.18,3.51,-5.46,0.35,-2.60,1.05,
3.971,-1.18,3.51,-5.46,0.38,-2.81,1.04,
3.972,-1.18,3.51,-5.46,0.41,-2.94,1.04,
3.972,-1.18,3.51,-5.46,0.42,-2.99,1.04,
3.972,-1.12,5.08,-5.23,0.42,-2.99,1.04,
3.972,-1.12,5.08,-5.23,0.43,-3.09,1.03,
3.973,-1.12,5.08,-5.23,0.45,-3.16,1.03,
3.975,-1.12,5.08,-5.23,0.46,-3.23,1.01,
3.977,-1.12,5.08,-5.23,0.47,-3.25,0.99,
3.98,-1.12,5.08,-5.23,0.47,-3.25,0.99,
3.983,-0.75,6.42,-5.57,0.47,-3.25,0.99,
3.983,-0.75,6.42,-5.57,0.47,-3.25,0.97,
3.983,-0.75,6.42,-5.57,0.47,-3.23,0.94,
3.986,-0.75,6.42,-5.57,0.46,-3.16,0.90,
3.988,-0.75,6.42,-5.57,0.46,-3.08,0.86,
3.988,-0.75,6.42,-5.57,0.45,-3.04,0.84,
4.001,0.19,7.34,-5.44,0.45,-3.04,0.84,
4.002,0.19,7.34,-5.44,0.44,-2.94,0.80,
4.003,0.19,7.34,-5.44,0.43,-2.82,0.75,
4.003,0.19,7.34,-5.44,0.41,-2.61,0.67,
4.003,0.19,7.34,-5.44,0.39,-2.44,0.61,
4.003,0.19,7.34,-5.44,0.38,-2.36,0.58,
4.004,1.50,7.61,-5.77,0.38,-2.36,0.58,
4.004,1.50,7.61,-5.77,0.36,-2.17,0.52,
4.004,1.50,7.61,-5.77,0.35,-1.97,0.46,
4.006,1.50,7.61,-5.77,0.33,-1.65,0.37,
4.006,1.50,7.61,-5.77,0.31,-1.43,0.32,
4.044,1.50,7.61,-5.77,0.31,-1.31,0.29,
4.044,2.27,7.45,-5.26,0.31,-1.31,0.29,
4.045,2.27,7.45,-5.26,0.30,-1.09,0.24,
4.045,2.27,7.45,-5.26,0.31,-0.86,0.18,
4.045,2.27,7.45,-5.26,0.37,-0.52,0.09,
4.045,2.27,7.45,-5.26,0.45,-0.28,0.03,
4.045,2.27,7.45,-5.26,0.50,-0.15,-0.01,
4.046,3.72,6.62,-2.02,0.50,-0.15,-0.01,
4.046,3.72,6.62,-2.02,0.62,0.08,-0.09,
4.046,3.72,6.62,-2.02,0.76,0.32,-0.19,
4.046,3.72,6.62,-2.02,1.05,0.68,-0.34,
4.047,3.72,6.62,-2.02,1.26,0.92,-0.44,
4.047,3.72,6.62,-2.02,1.37,1.04,-0.50,
4.047,5.69,4.65,4.15,1.37,1.04,-0.50,
4.047,5.69,4.65,4.15,1.59,1.27,-0.60,
4.047,5.69,4.65,4.15,1.82,1.50,-0.70,
4.047,5.69,4.65,4.15,2.13,1.81,-0.83,
4.048,5.69,4.65,4.15,2.32,2.01,-0.90,
4.048,5.69,4.65,4.15,2.40,2.10,-0.92,
4.048,5.75,1.72,6.96,2.40,2.10,-0.92,
4.048,5.75,1.72,6.96,2.54,2.27,-0.97,
4.049,5.75,1.72,6.96,2.64,2.41,-0.99,
4.049,5.75,1.72,6.96,2.70,2.58,-1.00,
4.049,5.75,1.72,6.96,2.68,2.64,-0.98,
4.049,5.75,1.72,6.96,2.65,2.66,-0.96,
4.052,4.01,-1.03,4.98,2.65,2.66,-0.96,
4.052,4.01,-1.03,4.98,2.56,2.66,-0.92,
4.053,4.01,-1.03,4.98,2.41,2.61,-0.86,
4.057,4.01,-1.03,4.98,2.02,2.40,-0.69,
4.059,4.01,-1.03,4.98,1.79,2.23,-0.59,
4.059,4.01,-1.03,4.98,1.67,2.14,-0.54,
4.077,2.18,-2.74,2.04,1.67,2.14,-0.54,
4.077,2.18,-2.74,2.04,1.55,2.05,-0.48,
4.077,2.18,-2.74,2.04,1.30,1.84,-0.37,
4.077,2.18,-2.74,2.04,0.95,1.50,-0.19,
4.077,2.18,-2.74,2.04,0.77,1.28,-0.06,
4.078,2.18,-2.74,2.04,0.68,1.17,-0.00,
4.078,0.89,-2.81,0.84,0.68,1.17,-0.00,
4.078,0.89,-2.81,0.84,0.52,0.96,0.11,
4.078,0.89,-2.81,0.84,0.41,0.74,0.23,
4.078,0.89,-2.81,0.84,0.32,0.44,0.38,
4.079,0.89,-2.81,0.84,0.30,0.25,0.46,
4.082,0.89,-2.81,0.84,0.31,0.15,0.49,
4.083,0.67,-2.16,2.97,0.31,0.15,0.49,
4.083,0.67,-2.16,2.97,0.36,-0.03,0.55,
4.083,0.67,-2.16,2.97,0.45,-0.19,0.59,
4.086,0.67,-2.16,2.97,0.63,-0.43,0.64,
4.087,0.67,-2.16,2.97,0.79,-0.56,0.65,
4.088,0.67,-2.16,2.97,0.87,-0.63,0.66,
4.093,1.21,-1.93,7.10,0.87,-0.63,0.66,
4.093,1.21,-1.93,7.10,1.04,-0.74,0.66,
4.093,1.21,-1.93,7.10,1.22,-0.84,0.66,
4.096,1.21,-1.93,7.10,1.48,-0.97,0.66,
4.097,1.21,-1.93,7.10,1.65,-1.03,0.65,
4.099,1.21,-1.93,7.10,1.73,-1.06,0.65,
4.101,1.22,-3.10,8.35,1.73,-1.06,0.65,
4.101,1.22,-3.10,8.35,1.89,-1.12,0.63,
4.103,1.22,-3.10,8.35,2.04,-1.16,0.62,
4.107,1.22,-3.10,8.35,2.24,-1.20,0.59,
4.108,1.22,-3.10,8.35,2.37,-1.22,0.58,
4.109,1.22,-3.10,8.35,2.43,-1.22,0.57,
4.112,0.95,-5.28,7.18,2.43,-1.22,0.57,
4.112,0.95,-5.28,7.18,2.54,-1.22,0.55,
4.113,0.95,-5.28,7.18,2.64,-1.20,0.54,
4.116,0.95,-5.28,7.18,2.78,-1.15,0.51,
4.116,0.95,-5.28,7.18,2.86,-1.10,0.49,
4.118,0.95,-5.28,7.18,2.89,-1.06,0.48,
4.122,0.42,-7.96,6.41,2.89,-1.06,0.48,
4.122,0.42,-7.96,6.41,2.95,-0.99,0.47,
4.122,0.42,-7.96,6.41,3.00,-0.90,0.45,
4.13,0.42,-7.96,6.41,3.04,-0.73,0.44,
4.13,0.42,-7.96,6.41,3.05,-0.60,0.42,
4.131,0.42,-7.96,6.41,3.05,-0.53,0.42,
4.131,-0.20,-10.62,5.75,3.05,-0.53,0.42,
4.131,-0.20,-10.62,5.75,3.04,-0.38,0.41,
4.132,-0.20,-10.62,5.75,3.01,-0.22,0.41,
4.136,-0.20,-10.62,5.75,2.94,0.04,0.40,
4.137,-0.20,-10.62,5.75,2.88,0.22,0.40,
4.14,-0.20,-10.62,5.75,2.85,0.31,0.40,
4.155,-0.70,-12.20,3.25,2.85,0.31,0.40,
4.156,-0.70,-12.20,3.25,2.78,0.49,0.40,
4.156,-0.70,-12.20,3.25,2.70,0.66,0.40,
4.156,-0.70,-12.20,3.25,2.59,0.91,0.40,
4.156,-0.70,-12.20,3.25,2.52,1.06,0.40,
4.156,-0.70,-12.20,3.25,2.48,1.13,0.40,
4.156,-0.88,-12.80,-0.13,2.48,1.13,0.40,
4.157,-0.88,-12.80,-0.13,2.42,1.26,0.41,
4.157,-0.88,-12.80,-0.13,2.35,1.38,0.41,
4.157,-0.88,-12.80,-0.13,2.26,1.52,0.42,
4.157,-0.88,-12.80,-0.13,2.20,1.60,0.42,
4.159,-0.88,-12.80,-0.13,2.17,1.63,0.43,
4.162,-1.29,-13.27,-2.95,2.17,1.63,0.43,
4.162,-1.29,-13.27,-2.95,2.11,1.68,0.45,
4.163,-1.29,-13.27,-2.95,2.05,1.71,0.47,
4.167,-1.29,-13.27,-2.95,1.92,1.70,0.53,
4.169,-1.29,-13.27,-2.95,1.89,1.68,0.55,
4.172,-1.29,-13.27,-2.95,1.85,1.67,0.58,
4.173,-2.96,-13.37,-4.34,1.85,1.67,0.58,
4.174,-2.96,-13.37,-4.34,1.79,1.63,0.63,
4.175,-2.96,-13.37,-4.34,1.73,1.60,0.71,
4.176,-2.96,-13.37,-4.34,1.64,1.56,0.84,
4.177,-2.96,-13.37,-4.34,1.60,1.54,0.94,
4.179,-2.96,-13.37,-4.34,1.58,1.54,0.99,
4.181,-6.30,-12.29,-3.50,1.58,1.54,0.99,
4.181,-6.30,-12.29,-3.50,1.55,1.55,1.11,
4.183,-6.30,-12.29,-3.50,1.52,1.57,1.23,
4.186,-6.30,-12.29,-3.50,1.50,1.63,1.41,
4.187,-6.30,-12.29,-3.50,1.49,1.68,1.53,
4.192,-6.30,-12.29,-3.50,1.49,1.71,1.59,
4.197,-8.52,-9.41,-1.58,1.49,1.71,1.59,
4.199,-8.52,-9.41,-1.58,1.49,1.76,1.71,
4.199,-8.52,-9.41,-1.58,1.49,1.81,1.82,
4.202,-8.52,-9.41,-1.58,1.48,1.86,1.98,
4.209,-8.52,-9.41,-1.58,1.47,1.89,2.08,
4.209,-8.52,-9.41,-1.58,1.46,1.89,2.12,
4.212,-9.02,-6.68,-0.64,1.46,1.89,2.12,
4.212,-9.02,-6.68,-0.64,1.44,1.90,2.21,
4.214,-9.02,-6.68,-0.64,1.42,1.89,2.28,
4.215,-9.02,-6.68,-0.64,1.36,1.88,2.36,
4.215,-9.02,-6.68,-0.64,1.31,1.87,2.39,
4.216,-9.02,-6.68,-0.64,1.28,1.86,2.40,
4.216,-7.46,-4.94,-0.60,1.28,1.86,2.40,
4.216,-7.46,-4.94,-0.60,1.22,1.83,2.41,
4.217,-7.46,-4.94,-0.60,1.11,1.76,2.39,
4.219,-7.46,-4.94,-0.60,0.99,1.64,2.33,
4.222,-7.46,-4.94,-0.60,0.95,1.58,2.30,
4.223,-7.46,-4.94,-0.60,0.90,1.52,2.27,
4.225,-4.81,-4.72,-1.08,0.90,1.52,2.27,
4.225,-4.81,-4.72,-1.08,0.80,1.38,2.18,
4.225,-4.81,-4.72,-1.08,0.69,1.20,2.08,
4.233,-4.81,-4.72,-1.08,0.52,0.88,1.88,
4.247,-4.81,-4.72,-1.08,0.41,0.64,1.74,
4.248,-4.81,-4.72,-1.08,0.35,0.52,1.66,
4.248,-0.75,-4.99,-2.14,0.35,0.52,1.66,
4.248,-0.75,-4.99,-2.14,0.17,0.14,1.41,
4.248,-0.75,-4.99,-2.14,0.05,-0.13,1.23,
4.248,-0.75,-4.99,-2.14,-0.07,-0.39,1.05,
4.249,-0.75,-4.99,-2.14,-0.18,-0.64,0.87,
4.249,-0.75,-4.99,-2.14,-0.28,-0.86,0.70,
4.249,2.04,-5.12,-3.32,-0.28,-0.86,0.70,
4.249,2.04,-5.12,-3.32,-0.38,-1.05,0.55,
4.249,2.04,-5.12,-3.32,-0.47,-1.21,0.42,
4.249,2.04,-5.12,-3.32,-0.55,-1.33,0.30,
4.25,2.04,-5.12,-3.32,-0.62,-1.41,0.20,
4.25,2.04,-5.12,-3.32,-0.67,-1.46,0.11,
4.269,1.66,-4.26,-3.12,-0.67,-1.46,0.11,
4.27,1.66,-4.26,-3.12,-0.72,-1.47,0.04,
4.27,1.66,-4.26,-3.12,-0.76,-1.45,-0.02,
4.27,1.66,-4.26,-3.12,-0.79,-1.40,-0.07,
4.27,1.66,-4.26,-3.12,-0.81,-1.33,-0.10,
4.272,1.66,-4.26,-3.12,-0.82,-1.24,-0.13,
4.272,0.17,-2.96,-2.59,-0.82,-1.24,-0.13,
4.272,0.17,-2.96,-2.59,-0.83,-1.13,-0.14,
4.272,0.17,-2.96,-2.59,-0.83,-1.00,-0.15,
4.272,0.17,-2.96,-2.59,-0.83,-0.86,-0.16,
4.272,0.17,-2.96,-2.59,-0.83,-0.70,-0.16,
4.274,-0.79,-1.00,-2.58,-0.83,-0.70,-0.16,
4.275,-0.79,-1.00,-2.58,-0.82,-0.16,-0.14,
4.276,-0.79,-1.00,-2.58,-0.82,-0.16,-0.14,
4.276,-0.79,-1.00,-2.58,-0.82,-0.16,-0.14,
4.276,-0.79,-1.00,-2.58,-0.82,0.12,-0.12,
4.277,-0.79,-1.00,-2.58,-0.83,0.22,-0.11,
4.279,-0.79,-1.00,-2.58,-0.83,0.41,-0.10,
4.281,-0.92,0.42,-3.27,-0.83,0.41,-0.10,
4.281,-0.92,0.42,-3.27,-0.85,0.60,-0.08,
4.282,-0.92,0.42,-3.27,-0.86,0.79,-0.06,
4.287,-0.92,0.42,-3.27,-0.87,0.96,-0.04,
4.288,-0.92,0.42,-3.27,-0.89,1.12,-0.02,
4.288,-0.92,0.42,-3.27,-0.91,1.27,0.00,
4.292,-0.62,1.91,-3.99,-0.91,1.27,0.00,
4.292,-0.62,1.91,-3.99,-0.93,1.40,0.03,
4.292,-0.62,1.91,-3.99,-0.94,1.52,0.05,
4.295,-0.62,1.91,-3.99,-0.95,1.61,0.08,
4.296,-0.62,1.91,-3.99,-0.96,1.69,0.11,
4.299,-0.62,1.91,-3.99,-0.97,1.74,0.14,
4.301,-0.12,3.23,-4.11,-0.97,1.74,0.14,
4.301,-0.12,3.23,-4.11,-0.97,1.77,0.16,
4.303,-0.12,3.23,-4.11,-0.97,1.77,0.19,
4.305,-0.12,3.23,-4.11,-0.98,1.75,0.21,
4.307,-0.12,3.23,-4.11,-0.98,1.72,0.23,
4.311,-0.12,3.23,-4.11,-0.98,1.68,0.25,
4.312,0.74,4.55,-3.83,-0.98,1.68,0.25,
4.312,0.74,4.55,-3.83,-0.98,1.63,0.27,
4.313,0.74,4.55,-3.83,-0.98,1.58,0.28,
4.315,0.74,4.55,-3.83,-0.98,1.49,0.30,
4.317,0.74,4.55,-3.83,-0.98,1.46,0.31,
4.318,0.74,4.55,-3.83,-0.99,1.39,0.32,
4.321,1.52,5.54,-3.99,-0.99,1.39,0.32,
4.321,1.52,5.54,-3.99,-0.99,1.32,0.32,
4.322,1.52,5.54,-3.99,-1.00,1.24,0.32,
4.325,1.52,5.54,-3.99,-1.01,1.16,0.32,
4.326,1.52,5.54,-3.99,-1.02,1.07,0.32,
4.328,1.52,5.54,-3.99,-1.03,0.98,0.32,
4.33,2.09,6.35,-3.98,-1.03,0.98,0.32,
4.33,2.09,6.35,-3.98,-1.05,0.90,0.31,
4.332,2.09,6.35,-3.98,-1.06,0.81,0.31,
4.335,2.09,6.35,-3.98,-1.07,0.72,0.30,
4.336,2.09,6.35,-3.98,-1.09,0.63,0.29,
4.338,2.09,6.35,-3.98,-1.10,0.54,0.28,
4.34,2.36,6.97,-3.95,-1.10,0.54,0.28,
4.34,2.36,6.97,-3.95,-1.11,0.45,0.27,
4.343,2.36,6.97,-3.95,-1.12,0.35,0.27,
4.345,2.36,6.97,-3.95,-1.14,0.21,0.25,
4.346,2.36,6.97,-3.95,-1.15,0.16,0.25,
4.348,2.36,6.97,-3.95,-1.16,0.07,0.24,
4.35,2.28,7.64,-3.32,-1.16,0.07,0.24,
4.351,2.28,7.64,-3.32,-1.17,-0.04,0.23,
4.352,2.28,7.64,-3.32,-1.18,-0.14,0.22,
4.355,2.28,7.64,-3.32,-1.19,-0.25,0.21,
4.356,2.28,7.64,-3.32,-1.21,-0.37,0.20,
4.358,2.28,7.64,-3.32,-1.23,-0.48,0.19,
4.36,2.32,8.12,-3.10,-1.23,-0.48,0.19,
4.361,2.32,8.12,-3.10,-1.25,-0.58,0.18,
4.362,2.32,8.12,-3.10,-1.26,-0.68,0.16,
4.365,2.32,8.12,-3.10,-1.28,-0.77,0.15,
4.366,2.32,8.12,-3.10,-1.30,-0.85,0.13,
4.377,2.32,8.12,-3.10,-1.32,-0.92,0.11,
4.377,2.33,8.47,-2.75,-1.32,-0.92,0.11,
4.378,2.33,8.47,-2.75,-1.35,-0.98,0.09,
4.379,2.33,8.47,-2.75,-1.37,-1.04,0.07,
4.379,2.33,8.47,-2.75,-1.40,-1.08,0.05,
4.379,2.33,8.47,-2.75,-1.43,-1.12,0.03,
4.38,2.33,8.47,-2.75,-1.46,-1.14,0.00,
4.381,2.66,8.56,-2.81,-1.46,-1.14,0.00,
4.381,2.66,8.56,-2.81,-1.49,-1.16,-0.03,
4.382,2.66,8.56,-2.81,-1.52,-1.18,-0.06,
4.387,2.66,8.56,-2.81,-1.56,-1.19,-0.09,
4.388,2.66,8.56,-2.81,-1.59,-1.20,-0.12,
4.39,2.66,8.56,-2.81,-1.63,-1.21,-0.16,
4.395,2.75,8.51,-2.71,-1.63,-1.21,-0.16,
4.395,2.75,8.51,-2.71,-1.67,-1.21,-0.20,
4.417,2.75,8.51,-2.71,-1.71,-1.22,-0.24,
4.417,2.75,8.51,-2.71,-1.76,-1.22,-0.29,
4.418,2.75,8.51,-2.71,-1.80,-1.22,-0.33,
4.418,2.75,8.51,-2.71,-1.85,-1.22,-0.38,
4.418,3.18,8.05,-2.91,-1.85,-1.22,-0.38,
4.419,3.18,8.05,-2.91,-1.90,-1.22,-0.42,
4.419,3.18,8.05,-2.91,-1.95,-1.21,-0.47,
4.419,3.18,8.05,-2.91,-2.05,-1.20,-0.57,
4.42,3.18,8.05,-2.91,-2.08,-1.20,-0.59,
4.42,3.18,8.05,-2.91,-2.11,-1.20,-0.62,
4.42,3.20,7.41,-2.83,-2.11,-1.20,-0.62,
4.42,3.20,7.41,-2.83,-2.16,-1.19,-0.67,
4.421,3.20,7.41,-2.83,-2.21,-1.19,-0.73,
4.421,3.20,7.41,-2.83,-2.26,-1.18,-0.79,
4.421,3.20,7.41,-2.83,-2.31,-1.18,-0.85,
4.421,3.20,7.41,-2.83,-2.37,-1.17,-0.91,
4.422,3.41,6.55,-2.73,-2.37,-1.17,-0.91,
4.422,3.41,6.55,-2.73,-2.42,-1.17,-0.97,
4.427,3.41,6.55,-2.73,-2.48,-1.18,-1.04,
4.428,3.41,6.55,-2.73,-2.53,-1.17,-1.10,
4.428,3.41,6.55,-2.73,-2.58,-1.17,-1.17,
4.428,3.41,6.55,-2.73,-2.64,-1.17,-1.25,
4.431,3.42,5.60,-2.38,-2.64,-1.17,-1.25,
4.431,3.42,5.60,-2.38,-2.69,-1.17,-1.32,
4.432,3.42,5.60,-2.38,-2.73,-1.17,-1.40,
4.435,3.42,5.60,-2.38,-2.78,-1.16,-1.48,
4.437,3.42,5.60,-2.38,-2.82,-1.15,-1.56,
4.444,3.42,5.60,-2.38,-2.86,-1.13,-1.64,
4.444,3.72,4.52,-1.80,-2.86,-1.13,-1.64,
4.445,3.72,4.52,-1.80,-2.89,-1.11,-1.73,
4.445,3.72,4.52,-1.80,-2.92,-1.09,-1.81,
4.445,3.72,4.52,-1.80,-2.95,-1.05,-1.94,
4.447,3.72,4.52,-1.80,-2.95,-1.03,-1.98,
4.452,3.72,4.52,-1.80,-2.97,-1.01,-2.06,
4.454,3.55,3.41,-0.92,-2.97,-1.01,-2.06,
4.454,3.55,3.41,-0.92,-2.98,-0.98,-2.14,
4.455,3.55,3.41,-0.92,-2.98,-0.95,-2.21,
4.462,3.55,3.41,-0.92,-2.99,-0.92,-2.29,
4.463,3.55,3.41,-0.92,-2.99,-0.89,-2.36,
4.463,3.55,3.41,-0.92,-2.98,-0.86,-2.43,
4.464,3.20,2.31,-0.03,-2.98,-0.86,-2.43,
4.464,3.20,2.31,-0.03,-2.98,-0.83,-2.49,
4.464,3.20,2.31,-0.03,-2.97,-0.81,-2.56,
4.468,3.20,2.31,-0.03,-2.95,-0.77,-2.65,
4.469,3.20,2.31,-0.03,-2.95,-0.76,-2.68,
4.469,3.20,2.31,-0.03,-2.94,-0.73,-2.74,
4.473,2.63,1.29,0.60,-2.94,-0.73,-2.74,
4.474,2.63,1.29,0.60,-2.92,-0.70,-2.79,
4.474,2.63,1.29,0.60,-2.90,-0.68,-2.84,
4.476,2.63,1.29,0.60,-2.88,-0.63,-2.91,
4.478,2.63,1.29,0.60,-2.87,-0.61,-2.94,
4.48,2.63,1.29,0.60,-2.85,-0.58,-2.98,
4.483,2.26,0.29,1.15,-2.85,-0.58,-2.98,
4.484,2.26,0.29,1.15,-2.83,-0.54,-3.03,
4.485,2.26,0.29,1.15,-2.81,-0.50,-3.07,
4.486,2.26,0.29,1.15,-2.78,-0.44,-3.13,
4.486,2.26,0.29,1.15,-2.77,-0.41,-3.14,
4.489,2.26,0.29,1.15,-2.74,-0.36,-3.18,
4.491,1.91,-0.63,1.82,-2.74,-0.36,-3.18,
4.492,1.91,-0.63,1.82,-2.71,-0.31,-3.21,
4.493,1.91,-0.63,1.82,-2.64,-0.23,-3.24,
4.495,1.91,-0.63,1.82,-2.17,0.12,-3.21,
4.499,1.91,-0.63,1.82,-1.84,0.32,-3.17,
4.499,1.91,-0.63,1.82,-1.04,0.69,-3.06,
4.515,-2.34,-1.58,22.75,-1.04,0.69,-3.06,
4.516,-2.34,-1.58,22.75,-0.17,0.92,-2.92,
4.516,-2.34,-1.58,22.75,0.66,0.99,-2.78,
4.516,-2.34,-1.58,22.75,1.71,0.80,-2.55,
4.518,-2.34,-1.58,22.75,1.95,0.60,-2.48,
4.518,-2.34,-1.58,22.75,2.13,-0.19,-2.33,
4.518,-5.12,-3.48,33.69,2.13,-0.19,-2.33,
4.519,-5.12,-3.48,33.69,1.95,-1.32,-2.20,
4.519,-5.12,-3.48,33.69,1.59,-2.41,-2.07,
4.52,-5.12,-3.48,33.69,1.22,-3.42,-1.89,
4.532,-5.12,-3.48,33.69,1.16,-3.63,-1.84,
4.532,-5.12,-3.48,33.69,1.03,-4.00,-1.74,
4.532,-5.08,-4.74,19.32,1.03,-4.00,-1.74,
4.533,-5.08,-4.74,19.32,0.92,-4.28,-1.66,
4.533,-5.08,-4.74,19.32,0.84,-4.44,-1.57,
4.533,-5.08,-4.74,19.32,0.79,-4.49,-1.45,
4.533,-5.08,-4.74,19.32,0.79,-4.45,-1.41,
4.533,-5.08,-4.74,19.32,0.79,-4.33,-1.33,
4.552,-4.89,-3.61,15.88,0.79,-4.33,-1.33,
4.553,-4.89,-3.61,15.88,0.81,-4.12,-1.25,
4.557,-4.89,-3.61,15.88,0.84,-3.86,-1.18,
4.558,-4.89,-3.61,15.88,0.89,-3.34,-1.09,
4.559,-4.89,-3.61,15.88,0.90,-3.14,-1.06,
4.559,-4.89,-3.61,15.88,0.92,-2.70,-1.00,
4.56,-4.97,-1.71,12.56,0.92,-2.70,-1.00,
4.56,-4.97,-1.71,12.56,0.93,-2.21,-0.94,
4.56,-4.97,-1.71,12.56,0.92,-1.69,-0.89,
4.56,-4.97,-1.71,12.56,0.88,-0.88,-0.82,
4.56,-4.97,-1.71,12.56,0.86,-0.60,-0.80,
4.56,-4.97,-1.71,12.56,0.80,-0.04,-0.74,
4.561,-5.06,0.85,6.94,0.80,-0.04,-0.74,
4.561,-5.06,0.85,6.94,0.73,0.51,-0.70,
4.561,-5.06,0.85,6.94,0.65,1.06,-0.64,
4.561,-5.06,0.85,6.94,0.51,1.84,-0.56,
4.564,-5.06,0.85,6.94,0.46,2.09,-0.53,
4.564,-5.06,0.85,6.94,0.37,2.56,-0.46,
4.578,-5.83,3.11,2.56,0.37,2.56,-0.46,
4.579,-5.83,3.11,2.56,0.28,3.01,-0.39,
4.579,-5.83,3.11,2.56,0.20,3.41,-0.31,
4.579,-5.83,3.11,2.56,0.08,3.95,-0.18,
4.579,-5.83,3.11,2.56,0.05,4.11,-0.14,
4.579,-5.83,3.11,2.56,-0.02,4.40,-0.05,
4.579,-6.37,3.99,0.71,-0.02,4.40,-0.05,
4.58,-6.37,3.99,0.71,-0.08,4.65,0.04,
4.58,-6.37,3.99,0.71,-0.13,4.86,0.13,
4.58,-6.37,3.99,0.71,-0.20,5.12,0.27,
4.58,-6.37,3.99,0.71,-0.22,5.19,0.32,
4.581,-6.37,3.99,0.71,-0.26,5.30,0.42,
4.581,-6.67,3.91,0.15,-0.26,5.30,0.42,
4.581,-6.67,3.91,0.15,-0.30,5.40,0.51,
4.59,-6.67,3.91,0.15,-0.33,5.47,0.61,
4.59,-6.67,3.91,0.15,-0.39,5.52,0.75,
4.591,-6.67,3.91,0.15,-0.41,5.53,0.80,
4.591,-6.67,3.91,0.15,-0.44,5.53,0.89,
4.591,-6.70,3.26,0.08,-0.44,5.53,0.89,
4.591,-6.70,3.26,0.08,-0.47,5.50,0.98,
4.592,-6.70,3.26,0.08,-0.48,5.45,1.08,
4.597,-6.70,3.26,0.08,-0.50,5.32,1.23,
4.597,-6.70,3.26,0.08,-0.50,5.25,1.28,
4.601,-6.70,3.26,0.08,-0.50,5.10,1.38,
4.601,-7.27,1.59,0.73,-0.50,5.10,1.38,
4.601,-7.27,1.59,0.73,-0.50,4.89,1.48,
4.602,-7.27,1.59,0.73,-0.50,4.63,1.58,
4.606,-7.27,1.59,0.73,-0.50,4.15,1.71,
4.607,-7.27,1.59,0.73,-0.51,3.96,1.75,
4.608,-7.27,1.59,0.73,-0.53,3.55,1.82,
4.61,-5.99,-0.52,-1.33,-0.53,3.55,1.82,
4.612,-5.99,-0.52,-1.33,-0.56,3.09,1.88,
4.612,-5.99,-0.52,-1.33,-0.59,2.58,1.92,
4.616,-5.99,-0.52,-1.33,-0.65,1.75,1.96,
4.616,-5.99,-0.52,-1.33,-0.67,1.47,1.97,
4.618,-5.99,-0.52,-1.33,-0.71,0.90,1.97,
4.62,-3.01,-3.13,-4.53,-0.71,0.90,1.97,
4.621,-3.01,-3.13,-4.53,-0.75,0.36,1.95,
4.625,-3.01,-3.13,-4.53,-0.77,-0.16,1.92,
4.626,-3.01,-3.13,-4.53,-0.79,-0.89,1.85,
4.627,-3.01,-3.13,-4.53,-0.80,-1.11,1.81,
4.628,-3.01,-3.13,-4.53,-0.80,-1.54,1.74,
4.63,-0.39,-5.67,-4.02,-0.80,-1.54,1.74,
4.63,-0.39,-5.67,-4.02,-0.79,-1.93,1.66,
4.632,-0.39,-5.67,-4.02,-0.77,-2.29,1.57,
4.635,-0.39,-5.67,-4.02,-0.73,-2.76,1.42,
4.636,-0.39,-5.67,-4.02,-0.71,-2.91,1.38,
4.642,-0.39,-5.67,-4.02,-0.68,-3.17,1.28,
4.643,0.51,-8.01,-2.70,-0.68,-3.17,1.28,
4.643,0.51,-8.01,-2.70,-0.63,-3.39,1.19,
4.643,0.51,-8.01,-2.70,-0.57,-3.59,1.11,
4.645,0.51,-8.01,-2.70,-0.48,-3.79,0.99,
4.646,0.51,-8.01,-2.70,-0.45,-3.81,0.95,
4.648,0.51,-8.01,-2.70,-0.36,-3.73,0.89,
4.65,-0.83,-10.15,0.18,-0.36,-3.73,0.89,
4.65,-0.83,-10.15,0.18,-0.26,-3.55,0.84,
4.652,-0.83,-10.15,0.18,-0.18,-3.32,0.80,
4.655,-0.83,-10.15,0.18,-0.09,-2.92,0.74,
4.657,-0.83,-10.15,0.18,-0.07,-2.78,0.72,
4.658,-0.83,-10.15,0.18,-0.03,-2.48,0.68,
4.66,-2.67,-12.18,2.27,-0.03,-2.48,0.68,
4.66,-2.67,-12.18,2.27,0.01,-2.20,0.63,
4.662,-2.67,-12.18,2.27,0.06,-1.96,0.59,
4.665,-2.67,-12.18,2.27,0.15,-1.73,0.53,
4.666,-2.67,-12.18,2.27,0.18,-1.69,0.52,
4.668,-2.67,-12.18,2.27,0.25,-1.63,0.48,
4.67,-0.79,-12.83,2.16,0.25,-1.63,0.48,
4.67,-0.79,-12.83,2.16,0.32,-1.62,0.45,
4.672,-0.79,-12.83,2.16,0.38,-1.62,0.41,
4.678,-0.79,-12.83,2.16,0.45,-1.63,0.36,
4.679,-0.79,-12.83,2.16,0.47,-1.63,0.34,
4.679,-0.79,-12.83,2.16,0.51,-1.61,0.30,
4.68,1.25,-12.82,-0.29,0.51,-1.61,0.30,
4.68,1.25,-12.82,-0.29,0.53,-1.57,0.25,
4.682,1.25,-12.82,-0.29,0.55,-1.52,0.20,
4.685,1.25,-12.82,-0.29,0.55,-1.42,0.11,
4.686,1.25,-12.82,-0.29,0.55,-1.37,0.08,
4.692,1.25,-12.82,-0.29,0.54,-1.22,0.03,
4.692,3.07,-12.53,-0.63,0.54,-1.22,0.03,
4.692,3.07,-12.53,-0.63,0.52,-0.98,-0.03,
4.692,3.07,-12.53,-0.63,0.50,-0.60,-0.10,
4.696,3.07,-12.53,-0.63,0.48,0.20,-0.21,
4.696,3.07,-12.53,-0.63,0.47,0.50,-0.25,
4.698,3.07,-12.53,-0.63,0.46,1.08,-0.31,
4.7,7.27,-11.15,6.52,0.46,1.08,-0.31,
4.7,7.27,-11.15,6.52,0.44,1.59,-0.37,
4.702,7.27,-11.15,6.52,0.43,1.99,-0.43,
4.714,7.27,-11.15,6.52,0.40,2.39,-0.48,
4.714,7.27,-11.15,6.52,0.39,2.47,-0.49,
4.714,7.27,-11.15,6.52,0.35,2.56,-0.50,
4.714,6.52,-7.86,4.03,0.35,2.56,-0.50,
4.714,6.52,-7.86,4.03,0.31,2.56,-0.51,
4.715,6.52,-7.86,4.03,0.26,2.50,-0.50,
4.715,6.52,-7.86,4.03,0.19,2.32,-0.49,
4.716,6.52,-7.86,4.03,0.17,2.24,-0.49,
4.718,6.52,-7.86,4.03,0.12,2.08,-0.49,
4.72,4.53,-4.88,-0.87,0.12,2.08,-0.49,
4.721,4.53,-4.88,-0.87,0.07,1.90,-0.48,
4.722,4.53,-4.88,-0.87,0.03,1.73,-0.48,
4.725,4.53,-4.88,-0.87,-0.03,1.47,-0.48,
4.735,4.53,-4.88,-0.87,-0.05,1.39,-0.48,
4.735,4.53,-4.88,-0.87,-0.09,1.22,-0.48,
4.735,3.69,-2.69,-2.59,-0.09,1.22,-0.48,
4.735,3.69,-2.69,-2.59,-0.12,1.07,-0.48,
4.735,3.69,-2.69,-2.59,-0.16,0.91,-0.48,
4.735,3.69,-2.69,-2.59,-0.21,0.69,-0.49,
4.737,3.69,-2.69,-2.59,-0.23,0.62,-0.49,
4.745,3.69,-2.69,-2.59,-0.27,0.49,-0.49,
4.745,3.32,-1.45,-3.17,-0.27,0.49,-0.49,
4.746,3.32,-1.45,-3.17,-0.31,0.36,-0.50,
4.746,3.32,-1.45,-3.17,-0.35,0.24,-0.50,
4.746,3.32,-1.45,-3.17,-0.43,0.07,-0.52,
4.746,3.32,-1.45,-3.17,-0.45,0.02,-0.52,
4.748,3.32,-1.45,-3.17,-0.51,-0.09,-0.53,
4.75,3.25,-1.21,-3.35,-0.51,-0.09,-0.53,
4.75,3.25,-1.21,-3.35,-0.57,-0.20,-0.55,
4.752,3.25,-1.21,-3.35,-0.63,-0.31,-0.57,
4.758,3.25,-1.21,-3.35,-0.76,-0.54,-0.61,
4.761,3.25,-1.21,-3.35,-0.79,-0.60,-0.62,
4.762,3.25,-1.21,-3.35,-0.82,-0.66,-0.63,
4.763,3.66,-1.41,-3.21,-0.82,-0.66,-0.63,
4.763,3.66,-1.41,-3.21,-0.90,-0.78,-0.65,
4.763,3.66,-1.41,-3.21,-0.97,-0.91,-0.67,
4.765,3.66,-1.41,-3.21,-1.09,-1.11,-0.69,
4.766,3.66,-1.41,-3.21,-1.12,-1.17,-0.70,
4.768,3.66,-1.41,-3.21,-1.20,-1.31,-0.71,
4.77,3.42,-1.43,-2.80,-1.20,-1.31,-0.71,
4.771,3.42,-1.43,-2.80,-1.28,-1.43,-0.71,
4.773,3.42,-1.43,-2.80,-1.35,-1.56,-0.71,
4.775,3.42,-1.43,-2.80,-1.45,-1.73,-0.71,
4.776,3.42,-1.43,-2.80,-1.49,-1.78,-0.71,
4.778,3.42,-1.43,-2.80,-1.54,-1.89,-0.70,
4.78,2.88,-1.20,-2.25,-1.54,-1.89,-0.70,
4.78,2.88,-1.20,-2.25,-1.59,-1.98,-0.69,
4.782,2.88,-1.20,-2.25,-1.64,-2.07,-0.68,
4.785,2.88,-1.20,-2.25,-1.69,-2.18,-0.67,
4.786,2.88,-1.20,-2.25,-1.70,-2.21,-0.67,
4.789,2.88,-1.20,-2.25,-1.72,-2.27,-0.66,
4.792,2.44,-0.93,-1.30,-1.72,-2.27,-0.66,
4.792,2.44,-0.93,-1.30,-1.74,-2.33,-0.65,
4.792,2.44,-0.93,-1.30,-1.75,-2.37,-0.64,
4.795,2.44,-0.93,-1.30,-1.75,-2.43,-0.63,
4.796,2.44,-0.93,-1.30,-1.75,-2.45,-0.63,
4.798,2.44,-0.93,-1.30,-1.74,-2.47,-0.62,
4.8,1.99,-0.35,-0.33,-1.74,-2.47,-0.62,
4.801,1.99,-0.35,-0.33,-1.73,-2.50,-0.61,
4.803,1.99,-0.35,-0.33,-1.72,-2.52,-0.61,
4.806,1.99,-0.35,-0.33,-1.69,-2.53,-0.60,
4.806,1.99,-0.35,-0.33,-1.69,-2.53,-0.60,
4.808,1.99,-0.35,-0.33,-1.67,-2.53,-0.60,
4.81,1.47,0.44,0.54,-1.67,-2.53,-0.60,
4.81,1.47,0.44,0.54,-1.65,-2.53,-0.60,
4.812,1.47,0.44,0.54,-1.64,-2.52,-0.60,
4.815,1.47,0.44,0.54,-1.60,-2.49,-0.60,
4.816,1.47,0.44,0.54,-1.59,-2.48,-0.60,
4.818,1.47,0.44,0.54,-1.57,-2.45,-0.60,
4.822,0.83,1.34,1.60,-1.57,-2.45,-0.60,
4.823,0.83,1.34,1.60,-1.55,-2.41,-0.60,
4.823,0.83,1.34,1.60,-1.52,-2.36,-0.60,
4.825,0.83,1.34,1.60,-1.48,-2.26,-0.59,
4.826,0.83,1.34,1.60,-1.46,-2.21,-0.58,
4.828,0.83,1.34,1.60,-1.41,-2.11,-0.57,
4.83,-0.45,2.25,3.38,-1.41,-2.11,-0.57,
4.83,-0.45,2.25,3.38,-1.34,-1.98,-0.55,
4.832,-0.45,2.25,3.38,-1.24,-1.80,-0.51,
4.835,-0.45,2.25,3.38,-1.04,-1.47,-0.43,
4.837,-0.45,2.25,3.38,-0.98,-1.35,-0.40,
4.848,-0.45,2.25,3.38,-0.84,-1.10,-0.33,
4.848,-3.38,2.97,7.47,-0.84,-1.10,-0.33,
4.849,-3.38,2.97,7.47,-0.70,-0.85,-0.26,
4.849,-3.38,2.97,7.47,-0.57,-0.60,-0.19,
4.849,-3.38,2.97,7.47,-0.41,-0.24,-0.10,
4.849,-3.38,2.97,7.47,-0.36,-0.13,-0.07,
4.85,-3.38,2.97,7.47,-0.27,0.08,-0.02,
4.852,-4.28,3.15,6.75,-0.27,0.08,-0.02,
4.852,-4.28,3.15,6.75,-0.21,0.28,0.03,
4.853,-4.28,3.15,6.75,-0.15,0.45,0.07,
4.877,-4.28,3.15,6.75,-0.10,0.69,0.13,
4.878,-4.28,3.15,6.75,-0.09,0.76,0.14,
4.879,-4.28,3.15,6.75,-0.08,0.88,0.17,
4.879,-3.78,3.01,4.50,-0.08,0.88,0.17,
4.879,-3.78,3.01,4.50,-0.09,0.99,0.19,
4.88,-3.78,3.01,4.50,-0.09,1.08,0.21,
4.88,-3.78,3.01,4.50,-0.12,1.20,0.24,
4.881,-3.78,3.01,4.50,-0.13,1.23,0.25,
4.881,-3.78,3.01,4.50,-0.16,1.28,0.26,
4.881,-3.09,3.05,3.05,-0.16,1.28,0.26,
4.882,-3.09,3.05,3.05,-0.18,1.32,0.27,
4.882,-3.09,3.05,3.05,-0.21,1.34,0.28,
4.883,-3.09,3.05,3.05,-0.23,1.38,0.30,
4.883,-3.09,3.05,3.05,-0.24,1.38,0.30,
4.883,-3.09,3.05,3.05,-0.25,1.39,0.31,
4.884,-2.83,3.35,3.31,-0.25,1.39,0.31,
4.884,-2.83,3.35,3.31,-0.25,1.39,0.31,
4.884,-2.83,3.35,3.31,-0.25,1.39,0.32,
4.887,-2.83,3.35,3.31,-0.23,1.38,0.32,
4.887,-2.83,3.35,3.31,-0.22,1.37,0.32,
4.892,-2.83,3.35,3.31,-0.21,1.36,0.32,
4.892,-2.37,4.03,4.16,-0.21,1.36,0.32,
4.892,-2.37,4.03,4.16,-0.18,1.33,0.31,
4.905,-2.37,4.03,4.16,-0.15,1.30,0.31,
4.905,-2.37,4.03,4.16,-0.10,1.24,0.29,
4.905,-2.37,4.03,4.16,-0.08,1.22,0.28,
4.905,-2.37,4.03,4.16,-0.05,1.17,0.27,
4.905,-1.83,4.98,5.50,-0.05,1.17,0.27,
4.905,-1.83,4.98,5.50,-0.00,1.11,0.25,
4.906,-1.83,4.98,5.50,0.04,1.05,0.23,
4.906,-1.83,4.98,5.50,0.11,0.95,0.20,
4.912,-1.83,4.98,5.50,0.13,0.91,0.19,
4.913,-1.83,4.98,5.50,0.18,0.83,0.16,
4.913,-1.15,6.01,6.69,0.18,0.83,0.16,
4.913,-1.15,6.01,6.69,0.22,0.74,0.14,
4.913,-1.15,6.01,6.69,0.27,0.64,0.11,
4.919,-1.15,6.01,6.69,0.34,0.48,0.07,
4.919,-1.15,6.01,6.69,0.36,0.43,0.06,
4.92,-1.15,6.01,6.69,0.41,0.31,0.04,
4.923,-0.69,6.64,7.97,0.41,0.31,0.04,
4.923,-0.69,6.64,7.97,0.45,0.19,0.02,
4.923,-0.69,6.64,7.97,0.49,0.07,0.01,
4.925,-0.69,6.64,7.97,0.55,-0.10,0.00,
4.926,-0.69,6.64,7.97,0.57,-0.16,-0.00,
4.928,-0.69,6.64,7.97,0.60,-0.27,-0.01,
4.93,-0.50,6.64,7.72,0.60,-0.27,-0.01,
4.93,-0.50,6.64,7.72,0.63,-0.38,-0.00,
4.932,-0.50,6.64,7.72,0.66,-0.48,-0.00,
4.936,-0.50,6.64,7.72,0.70,-0.61,0.00,
4.937,-0.50,6.64,7.72,0.72,-0.65,0.01,
4.939,-0.50,6.64,7.72,0.75,-0.73,0.01,
4.94,-0.38,6.29,7.00,0.75,-0.73,0.01,
4.941,-0.38,6.29,7.00,0.78,-0.81,0.02,
4.943,-0.38,6.29,7.00,0.81,-0.87,0.03,
4.945,-0.38,6.29,7.00,0.85,-0.96,0.04,
4.946,-0.38,6.29,7.00,0.87,-0.99,0.04,
4.948,-0.38,6.29,7.00,0.90,-1.04,0.05,
4.95,-0.34,5.61,5.55,0.90,-1.04,0.05,
4.95,-0.34,5.61,5.55,0.92,-1.09,0.06,
4.952,-0.34,5.61,5.55,0.94,-1.14,0.07,
4.955,-0.34,5.61,5.55,0.96,-1.22,0.09,
4.958,-0.34,5.61,5.55,0.96,-1.25,0.10,
4.958,-0.34,5.61,5.55,0.96,-1.31,0.11,
4.96,-0.26,4.75,3.73,0.96,-1.31,0.11,
