
time,ax,ay,az,wx,wy,wz,
0.002,-0.60,-0.48,-2.17,-0.13,-1.52,-0.36,
0.002,-0.60,-0.48,-2.17,-0.19,-1.56,-0.35,
0.005,-0.60,-0.48,-2.17,-0.24,-1.58,-0.33,
0.006,-0.60,-0.48,-2.17,-0.30,-1.59,-0.32,
0.007,-0.60,-0.48,-2.17,-0.35,-1.60,-0.30,
0.007,-0.60,-0.48,-2.17,-0.40,-1.61,-0.28,
0.009,-0.85,-0.97,-2.45,-0.40,-1.61,-0.28,
0.009,-0.85,-0.97,-2.45,-0.45,-1.62,-0.26,
0.009,-0.85,-0.97,-2.45,-0.49,-1.63,-0.24,
0.01,-0.85,-0.97,-2.45,-0.53,-1.63,-0.22,
0.011,-0.85,-0.97,-2.45,-0.57,-1.64,-0.21,
0.013,-0.85,-0.97,-2.45,-0.60,-1.64,-0.20,
0.018,-0.79,-0.91,-2.39,-0.60,-1.64,-0.20,
0.018,-0.79,-0.91,-2.39,-0.63,-1.64,-0.18,
0.018,-0.79,-0.91,-2.39,-0.66,-1.65,-0.17,
0.033,-0.79,-0.91,-2.39,-0.68,-1.67,-0.16,
0.033,-0.79,-0.91,-2.39,-0.70,-1.70,-0.16,
0.037,-0.79,-0.91,-2.39,-0.71,-1.73,-0.15,
0.037,-0.48,-0.84,-1.87,-0.71,-1.73,-0.15,
0.038,-0.48,-0.84,-1.87,-0.72,-1.75,-0.14,
0.038,-0.48,-0.84,-1.87,-0.73,-1.78,-0.14,
0.038,-0.48,-0.84,-1.87,-0.73,-1.81,-0.14,
0.038,-0.48,-0.84,-1.87,-0.72,-1.84,-0.14,
0.039,-0.48,-0.84,-1.87,-0.70,-1.87,-0.15,
0.039,-0.16,-1.07,-1.38,-0.70,-1.87,-0.15,
0.04,-0.16,-1.07,-1.38,-0.69,-1.90,-0.15,
0.04,-0.16,-1.07,-1.38,-0.67,-1.93,-0.16,
0.046,-0.16,-1.07,-1.38,-0.64,-1.98,-0.17,
0.047,-0.16,-1.07,-1.38,-0.60,-2.02,-0.18,
0.049,-0.16,-1.07,-1.38,-0.57,-2.07,-0.20,
0.053,0.20,-1.24,-0.82,-0.57,-2.07,-0.20,
0.053,0.20,-1.24,-0.82,-0.53,-2.12,-0.21,
0.054,0.20,-1.24,-0.82,-0.49,-2.18,-0.22,
0.064,0.20,-1.24,-0.82,-0.44,-2.24,-0.24,
0.065,0.20,-1.24,-0.82,-0.39,-2.29,-0.25,
0.065,0.20,-1.24,-0.82,-0.34,-2.34,-0.26,
0.065,0.19,-1.29,-0.27,-0.34,-2.34,-0.26,
0.065,0.19,-1.29,-0.27,-0.29,-2.39,-0.28,
0.066,0.19,-1.29,-0.27,-0.23,-2.43,-0.29,
0.066,0.19,-1.29,-0.27,-0.18,-2.47,-0.30,
0.066,0.19,-1.29,-0.27,-0.13,-2.50,-0.31,
0.066,0.19,-1.29,-0.27,-0.09,-2.53,-0.31,
0.066,-0.17,-1.16,-0.16,-0.09,-2.53,-0.31,
0.067,-0.17,-1.16,-0.16,-0.04,-2.56,-0.31,
0.069,-0.17,-1.16,-0.16,-0.00,-2.59,-0.31,
0.077,-0.17,-1.16,-0.16,0.03,-2.62,-0.31,
0.078,-0.17,-1.16,-0.16,0.06,-2.64,-0.31,
0.078,-0.17,-1.16,-0.16,0.09,-2.66,-0.31,
0.079,-0.70,-1.11,-0.22,0.09,-2.66,-0.31,
0.079,-0.70,-1.11,-0.22,0.12,-2.68,-0.30,
0.079,-0.70,-1.11,-0.22,0.14,-2.70,-0.29,
0.081,-0.70,-1.11,-0.22,0.16,-2.73,-0.29,
0.084,-0.70,-1.11,-0.22,0.18,-2.75,-0.28,
0.084,-0.70,-1.11,-0.22,0.20,-2.76,-0.26,
0.092,-1.12,-1.16,-0.29,0.20,-2.76,-0.26,
0.093,-1.12,-1.16,-0.29,0.21,-2.78,-0.25,
0.093,-1.12,-1.16,-0.29,0.22,-2.79,-0.24,
0.093,-1.12,-1.16,-0.29,0.22,-2.79,-0.23,
0.094,-1.12,-1.16,-0.29,0.22,-2.80,-0.22,
0.094,-1.12,-1.16,-0.29,0.22,-2.81,-0.22,
0.095,-1.20,-1.16,-0.55,0.22,-2.81,-0.22,
0.095,-1.20,-1.16,-0.55,0.22,-2.81,-0.21,
0.097,-1.20,-1.16,-0.55,0.21,-2.81,-0.22,
0.113,-1.20,-1.16,-0.55,0.20,-2.81,-0.22,
0.113,-1.20,-1.16,-0.55,0.19,-2.81,-0.22,
0.114,-1.20,-1.16,-0.55,0.19,-2.81,-0.22,
0.114,-1.20,-1.16,-0.55,0.18,-2.81,-0.21,
0.124,-0.98,-0.80,-0.78,0.18,-2.81,-0.21,
0.125,-0.98,-0.80,-0.78,0.17,-2.82,-0.20,
0.125,-0.98,-0.80,-0.78,0.16,-2.83,-0.19,
0.125,-0.98,-0.80,-0.78,0.15,-2.85,-0.18,
0.126,-0.98,-0.80,-0.78,0.14,-2.87,-0.16,
0.126,-1.45,-0.71,-1.00,0.14,-2.87,-0.16,
0.126,-1.45,-0.71,-1.00,0.12,-2.89,-0.15,
0.126,-1.45,-0.71,-1.00,0.11,-2.92,-0.13,
0.127,-1.45,-0.71,-1.00,0.10,-2.95,-0.10,
0.127,-1.45,-0.71,-1.00,0.09,-2.97,-0.08,
0.127,-1.45,-0.71,-1.00,0.07,-3.00,-0.07,
0.128,-1.78,-0.83,-0.89,0.07,-3.00,-0.07,
0.128,-1.78,-0.83,-0.89,0.06,-3.02,-0.04,
0.128,-1.78,-0.83,-0.89,0.06,-3.03,-0.02,
0.134,-1.78,-0.83,-0.89,0.05,-3.05,0.00,
0.134,-1.78,-0.83,-0.89,0.05,-3.07,0.02,
0.134,-1.78,-0.83,-0.89,0.04,-3.09,0.03,
0.136,-1.61,-1.02,-0.37,0.04,-3.09,0.03,
0.147,-1.61,-1.02,-0.37,0.04,-3.11,0.04,
0.148,-1.61,-1.02,-0.37,0.03,-3.13,0.04,
0.148,-1.61,-1.02,-0.37,0.03,-3.15,0.04,
0.148,-1.61,-1.02,-0.37,0.02,-3.17,0.04,
0.149,-1.61,-1.02,-0.37,0.01,-3.19,0.04,
0.149,-0.75,-0.97,0.00,0.01,-3.19,0.04,
0.149,-0.75,-0.97,0.00,0.01,-3.21,0.02,
0.149,-0.75,-0.97,0.00,0.01,-3.23,0.01,
0.15,-0.75,-0.97,0.00,0.01,-3.25,-0.00,
0.152,-0.75,-0.97,0.00,0.00,-3.27,-0.02,
0.178,-0.75,-0.97,0.00,-0.01,-3.29,-0.03,
0.179,-0.22,-0.78,0.14,-0.01,-3.29,-0.03,
0.179,-0.22,-0.78,0.14,-0.01,-3.30,-0.05,
0.18,-0.22,-0.78,0.14,-0.02,-3.32,-0.06,
0.18,-0.22,-0.78,0.14,-0.03,-3.34,-0.07,
0.18,-0.22,-0.78,0.14,-0.05,-3.35,-0.09,
0.18,-0.22,-0.78,0.14,-0.06,-3.36,-0.10,
0.18,-0.09,-0.59,0.09,-0.06,-3.36,-0.10,
0.181,-0.09,-0.59,0.09,-0.08,-3.37,-0.11,
0.181,-0.09,-0.59,0.09,-0.10,-3.37,-0.12,
0.181,-0.09,-0.59,0.09,-0.12,-3.38,-0.13,
0.181,-0.09,-0.59,0.09,-0.14,-3.38,-0.13,
0.181,-0.09,-0.59,0.09,-0.17,-3.38,-0.14,
0.182,-0.04,-0.55,-0.10,-0.17,-3.38,-0.14,
0.182,-0.04,-0.55,-0.10,-0.21,-3.37,-0.14,
0.182,-0.04,-0.55,-0.10,-0.25,-3.36,-0.15,
0.182,-0.04,-0.55,-0.10,-0.29,-3.35,-0.14,
0.182,-0.04,-0.55,-0.10,-0.34,-3.34,-0.13,
0.187,-0.04,-0.55,-0.10,-0.39,-3.32,-0.12,
0.188,-0.26,-0.54,-0.61,-0.39,-3.32,-0.12,
0.188,-0.26,-0.54,-0.61,-0.44,-3.31,-0.10,
0.188,-0.26,-0.54,-0.61,-0.49,-3.29,-0.07,
0.189,-0.26,-0.54,-0.61,-0.54,-3.27,-0.04,
0.194,-0.26,-0.54,-0.61,-0.59,-3.25,-0.00,
0.194,-0.26,-0.54,-0.61,-0.63,-3.24,0.04,
0.195,-1.02,-0.54,-0.84,-0.63,-3.24,0.04,
0.195,-1.02,-0.54,-0.84,-0.68,-3.22,0.09,
0.197,-1.02,-0.54,-0.84,-0.73,-3.20,0.14,
0.199,-1.02,-0.54,-0.84,-0.78,-3.19,0.19,
0.201,-1.02,-0.54,-0.84,-0.82,-3.18,0.23,
0.206,-1.02,-0.54,-0.84,-0.87,-3.17,0.27,
0.206,-1.26,-0.65,-1.00,-0.87,-3.17,0.27,
0.207,-1.26,-0.65,-1.00,-0.91,-3.16,0.30,
0.207,-1.26,-0.65,-1.00,-0.95,-3.16,0.32,
0.209,-1.26,-0.65,-1.00,-0.99,-3.16,0.34,
0.211,-1.26,-0.65,-1.00,-1.02,-3.16,0.34,
0.213,-1.26,-0.65,-1.00,-1.05,-3.18,0.33,
0.215,-0.15,-0.57,-1.12,-1.05,-3.18,0.33,
0.215,-0.15,-0.57,-1.12,-1.09,-3.19,0.32,
0.217,-0.15,-0.57,-1.12,-1.11,-3.21,0.29,
0.222,-0.15,-0.57,-1.12,-1.14,-3.22,0.27,
0.222,-0.15,-0.57,-1.12,-1.17,-3.23,0.23,
0.223,-0.15,-0.57,-1.12,-1.20,-3.24,0.20,
0.225,0.90,-0.62,-1.21,-1.20,-3.24,0.20,
0.225,0.90,-0.62,-1.21,-1.23,-3.25,0.16,
0.227,0.90,-0.62,-1.21,-1.26,-3.26,0.12,
0.229,0.90,-0.62,-1.21,-1.29,-3.26,0.08,
0.231,0.90,-0.62,-1.21,-1.32,-3.27,0.04,
0.233,0.90,-0.62,-1.21,-1.34,-3.29,0.00,
0.238,1.37,-0.91,-1.28,-1.34,-3.29,0.00,
0.238,1.37,-0.91,-1.28,-1.37,-3.31,-0.04,
0.238,1.37,-0.91,-1.28,-1.39,-3.34,-0.07,
0.239,1.37,-0.91,-1.28,-1.41,-3.37,-0.10,
0.241,1.37,-0.91,-1.28,-1.42,-3.39,-0.13,
0.243,1.37,-0.91,-1.28,-1.44,-3.42,-0.16,
0.245,1.56,-0.88,-1.07,-1.44,-3.42,-0.16,
0.246,1.56,-0.88,-1.07,-1.44,-3.43,-0.19,
0.247,1.56,-0.88,-1.07,-1.44,-3.45,-0.21,
0.249,1.56,-0.88,-1.07,-1.44,-3.45,-0.24,
0.251,1.56,-0.88,-1.07,-1.42,-3.45,-0.27,
0.26,1.56,-0.88,-1.07,-1.40,-3.43,-0.30,
0.26,1.80,-0.70,-0.16,-1.40,-3.43,-0.30,
0.26,1.80,-0.70,-0.16,-1.38,-3.42,-0.33,
0.26,1.80,-0.70,-0.16,-1.36,-3.40,-0.36,
0.261,1.80,-0.70,-0.16,-1.34,-3.38,-0.41,
0.261,1.80,-0.70,-0.16,-1.32,-3.36,-0.45,
0.263,1.80,-0.70,-0.16,-1.29,-3.34,-0.49,
0.265,2.16,-0.53,0.46,-1.29,-3.34,-0.49,
0.266,2.16,-0.53,0.46,-1.26,-3.32,-0.55,
0.267,2.16,-0.53,0.46,-1.23,-3.31,-0.60,
0.276,2.16,-0.53,0.46,-1.21,-3.30,-0.66,
0.276,2.16,-0.53,0.46,-1.18,-3.29,-0.73,
0.288,2.16,-0.53,0.46,-1.16,-3.28,-0.80,
0.288,2.61,-0.53,0.52,-1.16,-3.28,-0.80,
0.289,2.61,-0.53,0.52,-1.14,-3.27,-0.87,
0.289,2.61,-0.53,0.52,-1.12,-3.26,-0.94,
0.289,2.61,-0.53,0.52,-1.11,-3.26,-1.00,
0.289,2.61,-0.53,0.52,-1.11,-3.25,-1.07,
0.289,2.61,-0.53,0.52,-1.11,-3.24,-1.13,
0.29,2.45,-0.37,-0.06,-1.11,-3.24,-1.13,
0.29,2.45,-0.37,-0.06,-1.12,-3.23,-1.19,
0.291,2.45,-0.37,-0.06,-1.13,-3.22,-1.25,
0.291,2.45,-0.37,-0.06,-1.15,-3.21,-1.30,
0.292,2.45,-0.37,-0.06,-1.18,-3.19,-1.34,
0.315,2.45,-0.37,-0.06,-1.21,-3.17,-1.37,
0.316,1.72,-0.16,-0.65,-1.21,-3.17,-1.37,
0.316,1.72,-0.16,-0.65,-1.23,-3.15,-1.40,
0.316,1.72,-0.16,-0.65,-1.26,-3.13,-1.42,
0.317,1.72,-0.16,-0.65,-1.29,-3.12,-1.45,
0.317,1.72,-0.16,-0.65,-1.33,-3.11,-1.46,
0.317,1.72,-0.16,-0.65,-1.35,-3.11,-1.47,
0.317,0.97,-0.07,-0.59,-1.35,-3.11,-1.47,
0.318,0.97,-0.07,-0.59,-1.38,-3.10,-1.49,
0.318,0.97,-0.07,-0.59,-1.41,-3.10,-1.49,
0.318,0.97,-0.07,-0.59,-1.42,-3.11,-1.50,
0.318,0.97,-0.07,-0.59,-1.44,-3.11,-1.49,
0.318,0.97,-0.07,-0.59,-1.44,-3.11,-1.49,
0.319,0.25,-0.27,0.27,-1.44,-3.11,-1.49,
0.319,0.25,-0.27,0.27,-1.44,-3.12,-1.48,
0.319,0.25,-0.27,0.27,-1.44,-3.13,-1.46,
0.319,0.25,-0.27,0.27,-1.44,-3.12,-1.43,
0.326,0.25,-0.27,0.27,-1.43,-3.09,-1.41,
0.326,0.25,-0.27,0.27,-1.44,-3.02,-1.37,
0.327,-1.15,-0.62,0.23,-1.44,-3.02,-1.37,
0.327,-1.15,-0.62,0.23,-1.45,-2.91,-1.32,
0.327,-1.15,-0.62,0.23,-1.47,-2.79,-1.27,
0.329,-1.15,-0.62,0.23,-1.50,-2.70,-1.21,
0.331,-1.15,-0.62,0.23,-1.52,-2.66,-1.14,
0.333,-1.15,-0.62,0.23,-1.55,-2.68,-1.08,
0.338,-2.32,-0.75,-0.80,-1.55,-2.68,-1.08,
0.338,-2.32,-0.75,-0.80,-1.57,-2.74,-1.02,
0.339,-2.32,-0.75,-0.80,-1.58,-2.82,-0.97,
0.341,-2.32,-0.75,-0.80,-1.60,-2.89,-0.93,
0.341,-2.32,-0.75,-0.80,-1.61,-2.94,-0.90,
0.345,-2.32,-0.75,-0.80,-1.61,-2.95,-0.87,
0.346,-0.73,-1.02,-0.02,-1.61,-2.95,-0.87,
0.346,-0.73,-1.02,-0.02,-1.62,-2.94,-0.85,
0.347,-0.73,-1.02,-0.02,-1.64,-2.90,-0.83,
0.349,-0.73,-1.02,-0.02,-1.65,-2.86,-0.82,
0.351,-0.73,-1.02,-0.02,-1.66,-2.81,-0.82,
0.354,-0.73,-1.02,-0.02,-1.69,-2.76,-0.82,
0.356,0.45,-0.96,-0.73,-1.69,-2.76,-0.82,
0.356,0.45,-0.96,-0.73,-1.71,-2.71,-0.82,
0.357,0.45,-0.96,-0.73,-1.73,-2.67,-0.82,
0.359,0.45,-0.96,-0.73,-1.75,-2.63,-0.81,
0.361,0.45,-0.96,-0.73,-1.78,-2.58,-0.81,
0.364,0.45,-0.96,-0.73,-1.81,-2.53,-0.80,
0.367,0.51,-0.52,-1.19,-1.81,-2.53,-0.80,
0.368,0.51,-0.52,-1.19,-1.84,-2.49,-0.79,
0.368,0.51,-0.52,-1.19,-1.86,-2.46,-0.77,
0.372,0.51,-0.52,-1.19,-1.89,-2.40,-0.75,
0.372,0.51,-0.52,-1.19,-1.91,-2.34,-0.73,
0.374,0.51,-0.52,-1.19,-1.92,-2.29,-0.71,
0.38,-0.24,-0.24,-0.97,-1.92,-2.29,-0.71,
0.38,-0.24,-0.24,-0.97,-1.95,-2.25,-0.69,
0.381,-0.24,-0.24,-0.97,-1.97,-2.21,-0.67,
0.381,-0.24,-0.24,-0.97,-1.98,-2.17,-0.65,
0.383,-0.24,-0.24,-0.97,-2.00,-2.13,-0.63,
0.383,-0.24,-0.24,-0.97,-2.02,-2.10,-0.62,
0.397,-0.27,-0.05,-0.35,-2.02,-2.10,-0.62,
0.397,-0.27,-0.05,-0.35,-2.03,-2.09,-0.60,
0.397,-0.27,-0.05,-0.35,-2.04,-2.09,-0.59,
0.398,-0.27,-0.05,-0.35,-2.05,-2.11,-0.59,
0.398,-0.27,-0.05,-0.35,-2.05,-2.14,-0.58,
0.398,-0.27,-0.05,-0.35,-2.05,-2.16,-0.58,
0.399,0.25,-0.56,1.01,-2.05,-2.16,-0.58,
0.399,0.25,-0.56,1.01,-2.04,-2.18,-0.59,
0.399,0.25,-0.56,1.01,-2.03,-2.17,-0.60,
0.399,0.25,-0.56,1.01,-2.01,-2.15,-0.61,
0.447,0.25,-0.56,1.01,-1.98,-2.13,-0.62,
0.448,0.25,-0.56,1.01,-1.97,-2.09,-0.63,
0.448,0.42,-1.49,2.10,-1.97,-2.09,-0.63,
0.448,0.42,-1.49,2.10,-1.94,-2.03,-0.63,
0.449,0.42,-1.49,2.10,-1.92,-1.98,-0.63,
0.449,0.42,-1.49,2.10,-1.89,-1.92,-0.63,
0.45,0.42,-1.49,2.10,-1.87,-1.87,-0.62,
0.45,0.42,-1.49,2.10,-1.85,-1.83,-0.60,
0.45,-0.80,-1.70,2.51,-1.85,-1.83,-0.60,
0.45,-0.80,-1.70,2.51,-1.82,-1.79,-0.58,
0.451,-0.80,-1.70,2.51,-1.80,-1.75,-0.56,
0.451,-0.80,-1.70,2.51,-1.77,-1.72,-0.53,
0.451,-0.80,-1.70,2.51,-1.75,-1.70,-0.51,
0.452,-0.80,-1.70,2.51,-1.73,-1.68,-0.48,
0.452,-1.75,-1.24,2.24,-1.73,-1.68,-0.48,
0.452,-1.75,-1.24,2.24,-1.71,-1.67,-0.46,
0.452,-1.75,-1.24,2.24,-1.69,-1.65,-0.43,
0.453,-1.75,-1.24,2.24,-1.67,-1.64,-0.41,
0.453,-1.75,-1.24,2.24,-1.66,-1.63,-0.38,
0.453,-1.75,-1.24,2.24,-1.65,-1.62,-0.36,
0.454,-1.99,-1.16,1.68,-1.65,-1.62,-0.36,
0.454,-1.99,-1.16,1.68,-1.64,-1.61,-0.33,
0.454,-1.99,-1.16,1.68,-1.64,-1.59,-0.31,
0.491,-1.99,-1.16,1.68,-1.64,-1.56,-0.28,
0.492,-1.99,-1.16,1.68,-1.64,-1.52,-0.24,
0.492,-1.99,-1.16,1.68,-1.64,-1.51,-0.23,
0.494,-2.36,-0.79,1.00,-1.64,-1.51,-0.23,
0.496,-2.36,-0.79,1.00,-1.65,-1.50,-0.21,
0.497,-2.36,-0.79,1.00,-1.66,-1.49,-0.18,
0.498,-2.36,-0.79,1.00,-1.66,-1.50,-0.16,
0.499,-2.36,-0.79,1.00,-1.66,-1.52,-0.15,
0.5,-2.36,-0.79,1.00,-1.67,-1.55,-0.13,
0.501,-2.32,-0.97,1.22,-1.67,-1.55,-0.13,
0.503,-2.32,-0.97,1.22,-1.67,-1.59,-0.13,
0.504,-2.32,-0.97,1.22,-1.68,-1.63,-0.13,
0.507,-2.32,-0.97,1.22,-1.70,-1.67,-0.13,
0.508,-2.32,-0.97,1.22,-1.71,-1.71,-0.14,
0.509,-2.32,-0.97,1.22,-1.72,-1.74,-0.15,
0.509,-1.88,-1.32,1.35,-1.72,-1.74,-0.15,
0.509,-1.88,-1.32,1.35,-1.74,-1.77,-0.16,
0.51,-1.88,-1.32,1.35,-1.76,-1.79,-0.18,
0.51,-1.88,-1.32,1.35,-1.78,-1.80,-0.21,
0.511,-1.88,-1.32,1.35,-1.81,-1.80,-0.23,
0.511,-1.88,-1.32,1.35,-1.83,-1.80,-0.26,
0.511,-1.60,-1.32,0.72,-1.83,-1.80,-0.26,
0.512,-1.60,-1.32,0.72,-1.86,-1.80,-0.28,
0.512,-1.60,-1.32,0.72,-1.90,-1.80,-0.31,
0.513,-1.60,-1.32,0.72,-1.94,-1.79,-0.34,
0.513,-1.60,-1.32,0.72,-1.98,-1.78,-0.37,
0.514,-1.60,-1.32,0.72,-2.03,-1.77,-0.40,
0.514,-1.69,-1.12,0.05,-2.03,-1.77,-0.40,
0.517,-1.69,-1.12,0.05,-2.08,-1.75,-0.42,
0.518,-1.69,-1.12,0.05,-2.13,-1.73,-0.44,
0.518,-1.69,-1.12,0.05,-2.19,-1.68,-0.46,
0.518,-1.69,-1.12,0.05,-2.26,-1.61,-0.49,
0.519,-1.69,-1.12,0.05,-2.34,-1.54,-0.52,
0.519,-2.45,-0.94,-0.79,-2.34,-1.54,-0.52,
0.519,-2.45,-0.94,-0.79,-2.43,-1.47,-0.55,
0.52,-2.45,-0.94,-0.79,-2.51,-1.42,-0.57,
0.52,-2.45,-0.94,-0.79,-2.59,-1.38,-0.58,
0.521,-2.45,-0.94,-0.79,-2.67,-1.34,-0.59,
0.521,-2.45,-0.94,-0.79,-2.74,-1.30,-0.59,
0.521,-3.41,-1.15,-1.35,-2.74,-1.30,-0.59,
0.522,-3.41,-1.15,-1.35,-2.81,-1.27,-0.59,
0.522,-3.41,-1.15,-1.35,-2.86,-1.23,-0.58,
0.522,-3.41,-1.15,-1.35,-2.92,-1.19,-0.57,
0.523,-3.41,-1.15,-1.35,-2.96,-1.16,-0.56,
0.523,-3.41,-1.15,-1.35,-2.99,-1.13,-0.55,
0.523,-4.09,-1.31,-1.17,-2.99,-1.13,-0.55,
0.524,-4.09,-1.31,-1.17,-3.02,-1.11,-0.54,
0.524,-4.09,-1.31,-1.17,-3.04,-1.09,-0.53,
0.525,-4.09,-1.31,-1.17,-3.05,-1.08,-0.52,
0.525,-4.09,-1.31,-1.17,-3.05,-1.08,-0.51,
0.526,-4.09,-1.31,-1.17,-3.05,-1.08,-0.51,
0.542,-4.00,-1.49,-0.98,-3.05,-1.08,-0.51,
0.542,-4.00,-1.49,-0.98,-3.05,-1.07,-0.51,
0.542,-4.00,-1.49,-0.98,-3.04,-1.07,-0.50,
0.543,-4.00,-1.49,-0.98,-3.02,-1.06,-0.50,
0.543,-4.00,-1.49,-0.98,-3.01,-1.05,-0.50,
0.543,-4.00,-1.49,-0.98,-2.99,-1.03,-0.49,
0.543,-3.58,-1.92,-0.79,-2.99,-1.03,-0.49,
0.544,-3.58,-1.92,-0.79,-2.96,-1.01,-0.49,
0.544,-3.58,-1.92,-0.79,-2.94,-0.99,-0.48,
0.544,-3.58,-1.92,-0.79,-2.91,-0.97,-0.47,
0.544,-3.58,-1.92,-0.79,-2.89,-0.96,-0.46,
0.546,-3.58,-1.92,-0.79,-2.86,-0.95,-0.46,
0.546,-3.36,-2.10,-0.85,-2.86,-0.95,-0.46,
0.546,-3.36,-2.10,-0.85,-2.84,-0.94,-0.45,
0.549,-3.36,-2.10,-0.85,-2.82,-0.94,-0.43,
0.552,-3.36,-2.10,-0.85,-2.80,-0.93,-0.42,
0.552,-3.36,-2.10,-0.85,-2.78,-0.93,-0.41,
0.554,-3.36,-2.10,-0.85,-2.77,-0.93,-0.41,
0.557,-3.09,-2.36,-1.05,-2.77,-0.93,-0.41,
0.557,-3.09,-2.36,-1.05,-2.77,-0.93,-0.40,
0.558,-3.09,-2.36,-1.05,-2.76,-0.94,-0.40,
0.559,-3.09,-2.36,-1.05,-2.77,-0.95,-0.40,
0.562,-3.09,-2.36,-1.05,-2.79,-0.96,-0.40,
0.567,-3.09,-2.36,-1.05,-2.81,-0.97,-0.41,
0.578,-2.53,-2.77,-1.61,-2.81,-0.97,-0.41,
0.579,-2.53,-2.77,-1.61,-2.85,-0.98,-0.43,
0.579,-2.53,-2.77,-1.61,-2.89,-0.99,-0.44,
0.58,-2.53,-2.77,-1.61,-2.97,-0.99,-0.47,
0.58,-2.53,-2.77,-1.61,-3.01,-0.99,-0.48,
0.58,-2.53,-2.77,-1.61,-3.08,-1.00,-0.50,
0.58,-2.24,-3.18,-2.62,-3.08,-1.00,-0.50,
0.58,-2.24,-3.18,-2.62,-3.16,-1.00,-0.53,
0.582,-2.24,-3.18,-2.62,-3.24,-0.99,-0.56,
0.584,-2.24,-3.18,-2.62,-3.33,-0.96,-0.60,
0.624,-2.24,-3.18,-2.62,-3.42,-0.93,-0.64,
0.625,-2.24,-3.18,-2.62,-3.52,-0.86,-0.68,
0.626,-1.90,-3.45,-3.19,-3.52,-0.86,-0.68,
0.626,-1.90,-3.45,-3.19,-3.63,-0.77,-0.72,
0.626,-1.90,-3.45,-3.19,-3.74,-0.66,-0.75,
0.626,-1.90,-3.45,-3.19,-3.93,-0.45,-0.79,
0.626,-1.90,-3.45,-3.19,-4.00,-0.38,-0.79,
0.627,-1.90,-3.45,-3.19,-4.14,-0.24,-0.79,
0.627,-1.57,-3.81,-3.54,-4.14,-0.24,-0.79,
0.627,-1.57,-3.81,-3.54,-4.29,-0.15,-0.78,
0.627,-1.57,-3.81,-3.54,-4.43,-0.12,-0.78,
0.627,-1.57,-3.81,-3.54,-4.57,-0.14,-0.79,
0.628,-1.57,-3.81,-3.54,-4.71,-0.20,-0.80,
0.628,-1.57,-3.81,-3.54,-5.05,-0.44,-0.87,
0.628,-1.57,-3.81,-3.54,-5.05,-0.44,-0.87,
0.648,-1.57,-3.81,-3.54,-5.05,-0.44,-0.87,
0.648,-1.30,-3.37,-3.43,-5.05,-0.44,-0.87,
0.648,-1.30,-3.37,-3.43,-5.30,-0.47,-0.95,
0.649,-1.30,-3.37,-3.43,-5.33,-0.45,-0.97,
0.649,-1.09,-3.47,-3.04,-5.33,-0.45,-0.97,
0.65,-1.09,-3.47,-3.04,-5.36,-0.43,-0.98,
0.65,-1.09,-3.47,-3.04,-5.36,-0.43,-0.98,
0.65,-1.09,-3.47,-3.04,-5.42,-0.39,-1.00,
0.65,-1.09,-3.47,-3.04,-5.50,-0.34,-1.01,
0.651,-1.09,-3.47,-3.04,-5.52,-0.32,-1.02,
0.651,-1.09,-3.47,-3.04,-5.55,-0.31,-1.02,
0.651,-1.22,-3.73,-2.33,-5.55,-0.31,-1.02,
0.651,-1.22,-3.73,-2.33,-5.59,-0.31,-1.02,
0.652,-1.22,-3.73,-2.33,-5.62,-0.32,-1.03,
0.652,-1.22,-3.73,-2.33,-5.65,-0.34,-1.02,
0.652,-1.22,-3.73,-2.33,-5.68,-0.35,-1.02,
0.652,-1.22,-3.73,-2.33,-5.71,-0.37,-1.03,
0.653,-1.32,-4.18,-1.32,-5.71,-0.37,-1.03,
0.653,-1.32,-4.18,-1.32,-5.74,-0.38,-1.03,
0.653,-1.32,-4.18,-1.32,-5.77,-0.39,-1.03,
0.653,-1.32,-4.18,-1.32,-5.83,-0.39,-1.04,
0.653,-1.32,-4.18,-1.32,-5.85,-0.39,-1.04,
0.654,-1.32,-4.18,-1.32,-5.90,-0.38,-1.05,
0.654,-1.24,-4.11,-1.27,-5.90,-0.38,-1.05,
0.654,-1.24,-4.11,-1.27,-5.96,-0.36,-1.05,
0.654,-1.24,-4.11,-1.27,-6.02,-0.34,-1.05,
0.655,-1.24,-4.11,-1.27,-6.08,-0.32,-1.06,
0.655,-1.24,-4.11,-1.27,-6.15,-0.30,-1.06,
0.655,-1.24,-4.11,-1.27,-6.22,-0.28,-1.07,
0.663,-1.08,-4.36,-1.48,-6.22,-0.28,-1.07,
0.664,-1.08,-4.36,-1.48,-6.29,-0.27,-1.08,
0.664,-1.08,-4.36,-1.48,-6.36,-0.26,-1.09,
0.664,-1.08,-4.36,-1.48,-6.44,-0.25,-1.10,
0.665,-1.08,-4.36,-1.48,-6.51,-0.25,-1.11,
0.665,-1.08,-4.36,-1.48,-6.59,-0.25,-1.12,
0.666,-0.68,-4.79,-0.92,-6.59,-0.25,-1.12,
0.666,-0.68,-4.79,-0.92,-6.66,-0.25,-1.14,
0.671,-0.68,-4.79,-0.92,-6.73,-0.24,-1.16,
0.671,-0.68,-4.79,-0.92,-6.80,-0.22,-1.19,
0.671,-0.68,-4.79,-0.92,-6.87,-0.21,-1.21,
0.673,-0.68,-4.79,-0.92,-6.93,-0.18,-1.24,
0.675,0.17,-5.32,-0.13,-6.93,-0.18,-1.24,
0.675,0.17,-5.32,-0.13,-6.99,-0.17,-1.27,
0.677,0.17,-5.32,-0.13,-7.04,-0.16,-1.31,
0.679,0.17,-5.32,-0.13,-7.09,-0.15,-1.34,
0.681,0.17,-5.32,-0.13,-7.14,-0.15,-1.38,
0.689,0.17,-5.32,-0.13,-7.18,-0.14,-1.42,
0.69,1.22,-5.64,1.52,-7.18,-0.14,-1.42,
0.69,1.22,-5.64,1.52,-7.22,-0.14,-1.46,
0.69,1.22,-5.64,1.52,-7.25,-0.14,-1.50,
0.69,1.22,-5.64,1.52,-7.29,-0.16,-1.54,
0.691,1.22,-5.64,1.52,-7.32,-0.18,-1.58,
0.693,1.22,-5.64,1.52,-7.36,-0.20,-1.62,
0.696,2.28,-5.70,2.91,-7.36,-0.20,-1.62,
0.696,2.28,-5.70,2.91,-7.39,-0.21,-1.67,
0.698,2.28,-5.70,2.91,-7.42,-0.22,-1.71,
0.713,2.28,-5.70,2.91,-7.45,-0.22,-1.75,
0.714,2.28,-5.70,2.91,-7.48,-0.22,-1.79,
0.714,2.28,-5.70,2.91,-7.51,-0.21,-1.83,
0.714,3.12,-4.81,3.32,-7.51,-0.21,-1.83,
0.714,3.12,-4.81,3.32,-7.54,-0.20,-1.87,
0.714,3.12,-4.81,3.32,-7.57,-0.17,-1.90,
0.714,3.12,-4.81,3.32,-7.59,-0.15,-1.94,
0.715,3.12,-4.81,3.32,-7.61,-0.12,-1.97,
0.715,3.12,-4.81,3.32,-7.63,-0.09,-2.01,
0.716,3.32,-4.04,3.74,-7.63,-0.09,-2.01,
0.716,3.32,-4.04,3.74,-7.64,-0.06,-2.04,
0.717,3.32,-4.04,3.74,-7.65,-0.03,-2.08,
0.719,3.32,-4.04,3.74,-7.66,0.00,-2.11,
0.721,3.32,-4.04,3.74,-7.66,0.03,-2.15,
0.723,3.32,-4.04,3.74,-7.66,0.07,-2.18,
0.725,3.15,-3.45,4.67,-7.66,0.07,-2.18,
0.725,3.15,-3.45,4.67,-7.65,0.10,-2.21,
0.727,3.15,-3.45,4.67,-7.65,0.14,-2.23,
0.729,3.15,-3.45,4.67,-7.63,0.17,-2.25,
0.731,3.15,-3.45,4.67,-7.61,0.20,-2.28,
0.733,3.15,-3.45,4.67,-7.59,0.22,-2.29,
0.736,2.58,-2.89,5.78,-7.59,0.22,-2.29,
0.736,2.58,-2.89,5.78,-7.56,0.23,-2.31,
0.737,2.58,-2.89,5.78,-7.53,0.24,-2.32,
0.741,2.58,-2.89,5.78,-7.49,0.24,-2.32,
0.742,2.58,-2.89,5.78,-7.45,0.24,-2.32,
0.744,2.58,-2.89,5.78,-7.40,0.23,-2.31,
0.745,1.84,-2.31,7.18,-7.40,0.23,-2.31,
0.745,1.84,-2.31,7.18,-7.36,0.22,-2.30,
0.747,1.84,-2.31,7.18,-7.31,0.20,-2.28,
0.75,1.84,-2.31,7.18,-7.27,0.17,-2.26,
0.751,1.84,-2.31,7.18,-7.23,0.14,-2.22,
0.753,1.84,-2.31,7.18,-7.19,0.11,-2.19,
0.756,0.92,-1.46,8.17,-7.19,0.11,-2.19,
0.756,0.92,-1.46,8.17,-7.14,0.08,-2.15,
0.757,0.92,-1.46,8.17,-7.09,0.05,-2.11,
0.759,0.92,-1.46,8.17,-7.04,0.02,-2.07,
0.761,0.92,-1.46,8.17,-6.99,-0.00,-2.02,
0.763,0.92,-1.46,8.17,-6.94,-0.02,-1.97,
0.765,0.58,-0.81,8.88,-6.94,-0.02,-1.97,
0.765,0.58,-0.81,8.88,-6.89,-0.04,-1.92,
0.767,0.58,-0.81,8.88,-6.83,-0.06,-1.87,
0.769,0.58,-0.81,8.88,-6.78,-0.07,-1.82,
0.771,0.58,-0.81,8.88,-6.73,-0.10,-1.77,
0.783,0.58,-0.81,8.88,-6.68,-0.12,-1.72,
0.784,0.33,0.17,8.94,-6.68,-0.12,-1.72,
0.784,0.33,0.17,8.94,-6.62,-0.14,-1.66,
0.784,0.33,0.17,8.94,-6.57,-0.16,-1.61,
0.785,0.33,0.17,8.94,-6.52,-0.18,-1.55,
0.785,0.33,0.17,8.94,-6.46,-0.20,-1.49,
0.785,0.33,0.17,8.94,-6.39,-0.22,-1.42,
0.786,0.37,0.71,9.15,-6.39,-0.22,-1.42,
0.786,0.37,0.71,9.15,-6.33,-0.26,-1.36,
0.789,0.37,0.71,9.15,-6.26,-0.30,-1.31,
0.79,0.37,0.71,9.15,-6.19,-0.34,-1.25,
0.792,0.37,0.71,9.15,-6.09,-0.41,-1.18,
0.793,0.37,0.71,9.15,-6.05,-0.43,-1.16,
0.795,0.93,1.07,9.99,-6.05,-0.43,-1.16,
0.796,0.93,1.07,9.99,-5.98,-0.47,-1.12,
0.797,0.93,1.07,9.99,-5.91,-0.52,-1.09,
0.8,0.93,1.07,9.99,-5.85,-0.57,-1.06,
0.801,0.93,1.07,9.99,-5.78,-0.61,-1.04,
0.803,0.93,1.07,9.99,-5.72,-0.65,-1.03,
0.805,2.11,1.54,9.83,-5.72,-0.65,-1.03,
0.806,2.11,1.54,9.83,-5.67,-0.68,-1.03,
0.807,2.11,1.54,9.83,-5.62,-0.70,-1.02,
0.809,2.11,1.54,9.83,-5.57,-0.70,-1.03,
0.811,2.11,1.54,9.83,-5.53,-0.70,-1.03,
0.813,2.11,1.54,9.83,-5.49,-0.69,-1.04,
0.815,3.12,1.82,9.05,-5.49,-0.69,-1.04,
0.816,3.12,1.82,9.05,-5.45,-0.66,-1.05,
0.817,3.12,1.82,9.05,-5.41,-0.63,-1.06,
0.819,3.12,1.82,9.05,-5.37,-0.59,-1.08,
0.822,3.12,1.82,9.05,-5.33,-0.54,-1.10,
0.823,3.12,1.82,9.05,-5.29,-0.49,-1.13,
0.826,3.80,1.53,8.74,-5.29,-0.49,-1.13,
0.826,3.80,1.53,8.74,-5.24,-0.44,-1.16,
0.827,3.80,1.53,8.74,-5.20,-0.39,-1.20,
0.829,3.80,1.53,8.74,-5.15,-0.34,-1.24,
0.831,3.80,1.53,8.74,-5.11,-0.30,-1.29,
0.841,3.80,1.53,8.74,-5.07,-0.26,-1.34,
0.842,4.39,0.83,9.22,-5.07,-0.26,-1.34,
0.842,4.39,0.83,9.22,-5.02,-0.23,-1.40,
0.842,4.39,0.83,9.22,-4.98,-0.19,-1.47,
0.842,4.39,0.83,9.22,-4.94,-0.16,-1.53,
0.843,4.39,0.83,9.22,-4.91,-0.12,-1.60,
0.843,4.39,0.83,9.22,-4.88,-0.09,-1.67,
0.846,4.91,0.22,9.30,-4.88,-0.09,-1.67,
0.846,4.91,0.22,9.30,-4.84,-0.05,-1.74,
0.847,4.91,0.22,9.30,-4.81,-0.01,-1.82,
0.873,4.91,0.22,9.30,-4.78,0.02,-1.89,
0.873,4.91,0.22,9.30,-4.75,0.05,-1.96,
0.873,4.91,0.22,9.30,-4.72,0.07,-2.03,
0.873,5.04,0.38,9.58,-4.72,0.07,-2.03,
0.874,5.04,0.38,9.58,-4.69,0.09,-2.10,
0.874,5.04,0.38,9.58,-4.66,0.09,-2.17,
0.874,5.04,0.38,9.58,-4.62,0.09,-2.23,
0.874,5.04,0.38,9.58,-4.59,0.09,-2.29,
0.874,5.04,0.38,9.58,-4.55,0.08,-2.34,
0.875,4.81,0.90,9.69,-4.55,0.08,-2.34,
0.875,4.81,0.90,9.69,-4.51,0.07,-2.39,
0.875,4.81,0.90,9.69,-4.47,0.06,-2.44,
0.875,4.81,0.90,9.69,-4.42,0.05,-2.48,
0.875,4.81,0.90,9.69,-4.37,0.03,-2.51,
0.875,4.81,0.90,9.69,-4.31,0.01,-2.54,
0.875,4.18,1.67,10.09,-4.31,0.01,-2.54,
0.876,4.18,1.67,10.09,-4.25,-0.01,-2.56,
0.877,4.18,1.67,10.09,-4.18,-0.05,-2.58,
0.879,4.18,1.67,10.09,-4.10,-0.09,-2.59,
0.881,4.18,1.67,10.09,-4.03,-0.14,-2.58,
0.884,4.18,1.67,10.09,-3.95,-0.20,-2.58,
0.887,3.27,2.09,10.20,-3.95,-0.20,-2.58,
0.887,3.27,2.09,10.20,-3.86,-0.26,-2.56,
0.887,3.27,2.09,10.20,-3.78,-0.33,-2.53,
0.889,3.27,2.09,10.20,-3.70,-0.40,-2.49,
0.891,3.27,2.09,10.20,-3.61,-0.48,-2.44,
0.893,3.27,2.09,10.20,-3.53,-0.55,-2.39,
0.896,1.84,2.39,10.09,-3.53,-0.55,-2.39,
0.896,1.84,2.39,10.09,-3.43,-0.62,-2.33,
0.897,1.84,2.39,10.09,-3.35,-0.69,-2.26,
0.901,1.84,2.39,10.09,-3.25,-0.76,-2.19,
0.902,1.84,2.39,10.09,-3.16,-0.84,-2.11,
0.904,1.84,2.39,10.09,-3.06,-0.92,-2.03,
0.907,0.37,2.88,9.83,-3.06,-0.92,-2.03,
0.908,0.37,2.88,9.83,-2.95,-1.00,-1.95,
0.908,0.37,2.88,9.83,-2.85,-1.08,-1.86,
0.909,0.37,2.88,9.83,-2.75,-1.15,-1.76,
0.911,0.37,2.88,9.83,-2.65,-1.22,-1.67,
0.913,0.37,2.88,9.83,-2.55,-1.28,-1.56,
0.916,-1.56,3.83,9.40,-2.55,-1.28,-1.56,
0.918,-1.56,3.83,9.40,-2.44,-1.36,-1.43,
0.918,-1.56,3.83,9.40,-2.32,-1.46,-1.29,
0.919,-1.56,3.83,9.40,-2.18,-1.55,-1.15,
0.921,-1.56,3.83,9.40,-2.03,-1.64,-1.00,
0.923,-1.56,3.83,9.40,-1.88,-1.72,-0.86,
0.926,-3.80,4.99,10.12,-1.88,-1.72,-0.86,
0.927,-3.80,4.99,10.12,-1.72,-1.80,-0.72,
0.927,-3.80,4.99,10.12,-1.57,-1.85,-0.58,
0.929,-3.80,4.99,10.12,-1.42,-1.87,-0.45,
0.931,-3.80,4.99,10.12,-1.29,-1.87,-0.32,
0.933,-3.80,4.99,10.12,-1.17,-1.84,-0.20,
0.936,-4.94,5.54,8.46,-1.17,-1.84,-0.20,
0.937,-4.94,5.54,8.46,-1.06,-1.81,-0.08,
0.937,-4.94,5.54,8.46,-0.95,-1.78,0.02,
0.957,-4.94,5.54,8.46,-0.85,-1.75,0.12,
0.957,-4.94,5.54,8.46,-0.76,-1.71,0.20,
0.957,-4.94,5.54,8.46,-0.67,-1.66,0.27,
0.958,-4.93,5.37,5.97,-0.67,-1.66,0.27,
0.958,-4.93,5.37,5.97,-0.59,-1.61,0.33,
0.958,-4.93,5.37,5.97,-0.52,-1.54,0.38,
0.958,-4.93,5.37,5.97,-0.46,-1.46,0.41,
0.958,-4.93,5.37,5.97,-0.41,-1.38,0.44,
0.959,-4.93,5.37,5.97,-0.37,-1.30,0.44,
0.959,-4.19,4.62,3.75,-0.37,-1.30,0.44,
0.959,-4.19,4.62,3.75,-0.33,-1.21,0.44,
0.959,-4.19,4.62,3.75,-0.29,-1.11,0.43,
0.959,-4.19,4.62,3.75,-0.25,-1.01,0.42,
0.968,-4.19,4.62,3.75,-0.20,-0.88,0.40,
0.969,-4.19,4.62,3.75,-0.15,-0.74,0.39,
0.969,-4.03,3.27,2.75,-0.15,-0.74,0.39,
0.969,-4.03,3.27,2.75,-0.08,-0.60,0.37,
0.97,-4.03,3.27,2.75,-0.03,-0.48,0.35,
0.97,-4.03,3.27,2.75,0.00,-0.38,0.31,
0.971,-4.03,3.27,2.75,0.03,-0.29,0.27,
0.974,-4.03,3.27,2.75,0.06,-0.19,0.22,
0.976,-2.98,2.04,0.95,0.06,-0.19,0.22,
0.976,-2.98,2.04,0.95,0.08,-0.07,0.17,
0.977,-2.98,2.04,0.95,0.09,0.04,0.10,
0.98,-2.98,2.04,0.95,0.10,0.14,0.02,
0.981,-2.98,2.04,0.95,0.10,0.24,-0.05,
1.002,-2.98,2.04,0.95,0.09,0.33,-0.13,
1.002,-1.74,1.34,-0.91,0.09,0.33,-0.13,
1.002,-1.74,1.34,-0.91,0.07,0.40,-0.21,
1.002,-1.74,1.34,-0.91,0.04,0.46,-0.29,
1.003,-1.74,1.34,-0.91,0.03,0.53,-0.36,
1.003,-1.74,1.34,-0.91,0.02,0.60,-0.43,
1.003,-1.74,1.34,-0.91,0.02,0.66,-0.49,
1.003,-1.95,0.97,-0.71,0.02,0.66,-0.49,
1.004,-1.95,0.97,-0.71,0.02,0.69,-0.54,
1.004,-1.95,0.97,-0.71,0.03,0.72,-0.60,
1.004,-1.95,0.97,-0.71,0.03,0.74,-0.66,
1.004,-1.95,0.97,-0.71,0.03,0.75,-0.71,
1.004,-1.95,0.97,-0.71,0.03,0.76,-0.77,
1.005,-1.55,0.80,-0.38,0.03,0.76,-0.77,
1.006,-1.55,0.80,-0.38,0.02,0.78,-0.83,
1.007,-1.55,0.80,-0.38,-0.01,0.80,-0.88,
1.009,-1.55,0.80,-0.38,-0.04,0.82,-0.94,
1.011,-1.55,0.80,-0.38,-0.07,0.85,-0.99,
1.013,-1.55,0.80,-0.38,-0.12,0.89,-1.04,
1.016,-1.08,1.04,-2.25,-0.12,0.89,-1.04,
1.016,-1.08,1.04,-2.25,-0.18,0.92,-1.09,
1.018,-1.08,1.04,-2.25,-0.24,0.95,-1.13,
1.02,-1.08,1.04,-2.25,-0.30,0.98,-1.17,
1.021,-1.08,1.04,-2.25,-0.36,1.00,-1.21,
1.023,-1.08,1.04,-2.25,-0.43,1.03,-1.24,
1.026,-0.97,0.79,-3.41,-0.43,1.03,-1.24,
1.026,-0.97,0.79,-3.41,-0.50,1.04,-1.26,
1.027,-0.97,0.79,-3.41,-0.57,1.06,-1.28,
1.03,-0.97,0.79,-3.41,-0.65,1.07,-1.29,
1.031,-0.97,0.79,-3.41,-0.74,1.07,-1.30,
1.033,-0.97,0.79,-3.41,-0.82,1.09,-1.30,
1.036,-1.28,0.42,-4.16,-0.82,1.09,-1.30,
1.037,-1.28,0.42,-4.16,-0.91,1.11,-1.29,
1.037,-1.28,0.42,-4.16,-0.99,1.13,-1.28,
1.039,-1.28,0.42,-4.16,-1.07,1.16,-1.26,
1.041,-1.28,0.42,-4.16,-1.14,1.18,-1.24,
1.043,-1.28,0.42,-4.16,-1.21,1.19,-1.22,
1.046,-1.80,0.37,-3.66,-1.21,1.19,-1.22,
1.046,-1.80,0.37,-3.66,-1.28,1.19,-1.20,
1.047,-1.80,0.37,-3.66,-1.34,1.19,-1.17,
1.05,-1.80,0.37,-3.66,-1.38,1.19,-1.14,
1.052,-1.80,0.37,-3.66,-1.42,1.18,-1.12,
1.055,-1.80,0.37,-3.66,-1.46,1.17,-1.09,
1.056,-1.57,0.79,-2.69,-1.46,1.17,-1.09,
1.057,-1.57,0.79,-2.69,-1.48,1.16,-1.07,
1.058,-1.57,0.79,-2.69,-1.49,1.14,-1.04,
1.062,-1.57,0.79,-2.69,-1.49,1.13,-1.02,
1.062,-1.57,0.79,-2.69,-1.49,1.12,-0.99,
1.063,-1.57,0.79,-2.69,-1.47,1.10,-0.97,
1.067,-1.21,1.49,-1.47,-1.47,1.10,-0.97,
1.067,-1.21,1.49,-1.47,-1.45,1.08,-0.94,
1.067,-1.21,1.49,-1.47,-1.42,1.06,-0.92,
1.069,-1.21,1.49,-1.47,-1.39,1.04,-0.89,
1.071,-1.21,1.49,-1.47,-1.35,1.01,-0.87,
1.073,-1.21,1.49,-1.47,-1.31,0.97,-0.84,
1.076,-0.98,2.24,-0.52,-1.31,0.97,-0.84,
1.076,-0.98,2.24,-0.52,-1.27,0.93,-0.81,
1.078,-0.98,2.24,-0.52,-1.24,0.89,-0.78,
1.08,-0.98,2.24,-0.52,-1.20,0.84,-0.75,
1.082,-0.98,2.24,-0.52,-1.17,0.79,-0.72,
1.084,-0.98,2.24,-0.52,-1.15,0.73,-0.69,
1.086,-0.62,2.21,-0.46,-1.15,0.73,-0.69,
1.086,-0.62,2.21,-0.46,-1.13,0.68,-0.65,
1.087,-0.62,2.21,-0.46,-1.12,0.62,-0.62,
1.089,-0.62,2.21,-0.46,-1.11,0.58,-0.59,
1.091,-0.62,2.21,-0.46,-1.11,0.55,-0.57,
1.094,-0.62,2.21,-0.46,-1.10,0.51,-0.54,
1.098,0.32,1.86,-0.90,-1.10,0.51,-0.54,
1.098,0.32,1.86,-0.90,-1.10,0.49,-0.51,
1.118,0.32,1.86,-0.90,-1.10,0.47,-0.48,
1.118,0.32,1.86,-0.90,-1.11,0.44,-0.45,
1.119,0.32,1.86,-0.90,-1.13,0.42,-0.41,
1.119,0.32,1.86,-0.90,-1.15,0.39,-0.36,
1.12,0.32,1.86,-0.90,-1.18,0.36,-0.32,
1.14,0.86,0.82,-1.40,-1.18,0.36,-0.32,
1.14,0.86,0.82,-1.40,-1.21,0.33,-0.27,
1.14,0.86,0.82,-1.40,-1.23,0.29,-0.21,
1.14,0.86,0.82,-1.40,-1.26,0.24,-0.15,
1.141,0.86,0.82,-1.40,-1.28,0.20,-0.09,
1.141,0.93,-0.46,-1.52,-1.28,0.20,-0.09,
1.141,0.93,-0.46,-1.52,-1.31,0.15,-0.02,
1.141,0.93,-0.46,-1.52,-1.33,0.09,0.04,
1.142,0.93,-0.46,-1.52,-1.36,0.03,0.10,
1.142,0.93,-0.46,-1.52,-1.38,-0.04,0.15,
1.142,0.93,-0.46,-1.52,-1.40,-0.10,0.19,
1.142,1.53,-1.23,-1.63,-1.40,-0.10,0.19,
1.142,1.53,-1.23,-1.63,-1.42,-0.16,0.22,
1.143,1.53,-1.23,-1.63,-1.45,-0.22,0.25,
1.143,1.53,-1.23,-1.63,-1.48,-0.30,0.28,
1.143,1.53,-1.23,-1.63,-1.49,-0.32,0.28,
1.143,1.53,-1.23,-1.63,-1.52,-0.37,0.29,
1.143,2.13,-1.32,-2.05,-1.52,-0.37,0.29,
1.144,2.13,-1.32,-2.05,-1.54,-0.41,0.29,
1.144,2.13,-1.32,-2.05,-1.57,-0.44,0.28,
1.144,2.13,-1.32,-2.05,-1.58,-0.47,0.27,
1.144,2.13,-1.32,-2.05,-1.61,-0.51,0.25,
1.144,2.13,-1.32,-2.05,-1.61,-0.53,0.24,
1.162,1.76,-1.16,-1.84,-1.61,-0.53,0.24,
1.163,1.76,-1.16,-1.84,-1.63,-0.55,0.22,
1.163,1.76,-1.16,-1.84,-1.63,-0.57,0.20,
1.163,1.76,-1.16,-1.84,-1.64,-0.59,0.17,
1.163,1.76,-1.16,-1.84,-1.63,-0.61,0.13,
1.164,1.76,-1.16,-1.84,-1.62,-0.63,0.10,
1.164,1.05,-1.18,-0.91,-1.62,-0.63,0.10,
1.164,1.05,-1.18,-0.91,-1.60,-0.66,0.07,
1.164,1.05,-1.18,-0.91,-1.58,-0.69,0.03,
1.164,1.05,-1.18,-0.91,-1.55,-0.74,0.00,
1.164,1.05,-1.18,-0.91,-1.52,-0.79,-0.03,
1.165,1.05,-1.18,-0.91,-1.47,-0.82,-0.05,
1.167,-0.01,-1.44,0.49,-1.47,-0.82,-0.05,
1.167,-0.01,-1.44,0.49,-1.43,-0.85,-0.07,
1.173,-0.01,-1.44,0.49,-1.38,-0.87,-0.09,
1.174,-0.01,-1.44,0.49,-1.34,-0.88,-0.10,
1.174,-0.01,-1.44,0.49,-1.28,-0.89,-0.10,
1.174,-0.01,-1.44,0.49,-1.23,-0.88,-0.10,
1.175,-1.52,-1.96,1.44,-1.23,-0.88,-0.10,
1.176,-1.52,-1.96,1.44,-1.18,-0.88,-0.09,
1.177,-1.52,-1.96,1.44,-1.13,-0.86,-0.07,
1.179,-1.52,-1.96,1.44,-1.10,-0.85,-0.04,
1.182,-1.52,-1.96,1.44,-1.07,-0.83,-0.00,
1.183,-1.52,-1.96,1.44,-1.06,-0.81,0.04,
1.186,-2.94,-1.96,0.85,-1.06,-0.81,0.04,
1.186,-2.94,-1.96,0.85,-1.04,-0.78,0.09,
1.187,-2.94,-1.96,0.85,-1.03,-0.76,0.14,
1.189,-2.94,-1.96,0.85,-1.02,-0.73,0.20,
1.191,-2.94,-1.96,0.85,-1.01,-0.70,0.26,
1.194,-2.94,-1.96,0.85,-1.00,-0.67,0.32,
1.196,-3.14,-2.40,0.81,-1.00,-0.67,0.32,
1.196,-3.14,-2.40,0.81,-1.00,-0.65,0.39,
1.197,-3.14,-2.40,0.81,-1.00,-0.64,0.45,
1.201,-3.14,-2.40,0.81,-1.00,-0.62,0.52,
1.202,-3.14,-2.40,0.81,-1.00,-0.60,0.60,
1.205,-3.14,-2.40,0.81,-1.01,-0.58,0.69,
1.205,-2.53,-2.95,1.05,-1.01,-0.58,0.69,
1.206,-2.53,-2.95,1.05,-1.01,-0.56,0.79,
1.207,-2.53,-2.95,1.05,-1.02,-0.53,0.89,
1.209,-2.53,-2.95,1.05,-1.05,-0.52,1.00,
1.211,-2.53,-2.95,1.05,-1.07,-0.51,1.12,
1.213,-2.53,-2.95,1.05,-1.11,-0.51,1.25,
1.234,-1.98,-3.76,1.02,-1.11,-0.51,1.25,
1.234,-1.98,-3.76,1.02,-1.16,-0.53,1.38,
1.234,-1.98,-3.76,1.02,-1.22,-0.55,1.52,
1.234,-1.98,-3.76,1.02,-1.28,-0.56,1.66,
1.234,-1.98,-3.76,1.02,-1.34,-0.57,1.80,
1.235,-1.98,-3.76,1.02,-1.42,-0.57,1.93,
1.235,-1.45,-3.90,0.87,-1.42,-0.57,1.93,
1.235,-1.45,-3.90,0.87,-1.50,-0.57,2.06,
1.235,-1.45,-3.90,0.87,-1.59,-0.56,2.18,
1.235,-1.45,-3.90,0.87,-1.69,-0.56,2.28,
1.235,-1.45,-3.90,0.87,-1.79,-0.57,2.37,
1.235,-1.45,-3.90,0.87,-1.89,-0.58,2.43,
1.235,-0.06,-2.98,0.49,-1.89,-0.58,2.43,
1.236,-0.06,-2.98,0.49,-1.99,-0.60,2.48,
1.237,-0.06,-2.98,0.49,-2.09,-0.61,2.51,
1.239,-0.06,-2.98,0.49,-2.18,-0.61,2.52,
1.241,-0.06,-2.98,0.49,-2.28,-0.59,2.52,
1.243,-0.06,-2.98,0.49,-2.36,-0.57,2.50,
1.245,1.23,-1.55,0.38,-2.36,-0.57,2.50,
1.246,1.23,-1.55,0.38,-2.43,-0.53,2.47,
1.248,1.23,-1.55,0.38,-2.49,-0.47,2.44,
1.249,1.23,-1.55,0.38,-2.54,-0.42,2.39,
1.251,1.23,-1.55,0.38,-2.59,-0.37,2.32,
1.253,1.23,-1.55,0.38,-2.63,-0.33,2.26,
1.255,2.03,-0.41,0.49,-2.63,-0.33,2.26,
1.256,2.03,-0.41,0.49,-2.68,-0.30,2.19,
1.257,2.03,-0.41,0.49,-2.73,-0.28,2.11,
1.259,2.03,-0.41,0.49,-2.78,-0.26,2.04,
1.261,2.03,-0.41,0.49,-2.82,-0.24,1.98,
1.263,2.03,-0.41,0.49,-2.88,-0.23,1.92,
1.265,1.48,0.30,-0.76,-2.88,-0.23,1.92,
1.266,1.48,0.30,-0.76,-2.94,-0.24,1.87,
1.267,1.48,0.30,-0.76,-2.99,-0.24,1.83,
1.269,1.48,0.30,-0.76,-3.04,-0.24,1.79,
1.271,1.48,0.30,-0.76,-3.08,-0.24,1.76,
1.292,1.48,0.30,-0.76,-3.13,-0.24,1.74,
1.292,0.21,0.50,-1.39,-3.13,-0.24,1.74,
1.293,0.21,0.50,-1.39,-3.17,-0.25,1.72,
1.293,0.21,0.50,-1.39,-3.20,-0.26,1.72,
1.294,0.21,0.50,-1.39,-3.24,-0.28,1.72,
1.294,0.21,0.50,-1.39,-3.27,-0.30,1.72,
1.295,0.21,0.50,-1.39,-3.30,-0.33,1.74,
1.295,-1.02,-0.05,-1.52,-3.30,-0.33,1.74,
1.296,-1.02,-0.05,-1.52,-3.33,-0.37,1.77,
1.296,-1.02,-0.05,-1.52,-3.36,-0.42,1.81,
1.297,-1.02,-0.05,-1.52,-3.39,-0.47,1.86,
1.297,-1.02,-0.05,-1.52,-3.41,-0.53,1.92,
1.298,-1.02,-0.05,-1.52,-3.43,-0.59,1.98,
1.298,-1.63,-1.15,-1.87,-3.43,-0.59,1.98,
1.299,-1.63,-1.15,-1.87,-3.45,-0.66,2.03,
1.3,-1.63,-1.15,-1.87,-3.47,-0.72,2.10,
1.3,-1.63,-1.15,-1.87,-3.48,-0.78,2.17,
1.309,-1.63,-1.15,-1.87,-3.49,-0.83,2.23,
1.31,-1.63,-1.15,-1.87,-3.50,-0.87,2.29,
1.311,-1.43,-1.45,-2.16,-3.50,-0.87,2.29,
1.311,-1.43,-1.45,-2.16,-3.50,-0.91,2.34,
1.311,-1.43,-1.45,-2.16,-3.50,-0.94,2.39,
1.312,-1.43,-1.45,-2.16,-3.49,-0.97,2.43,
1.312,-1.43,-1.45,-2.16,-3.47,-0.99,2.45,
1.314,-1.43,-1.45,-2.16,-3.44,-0.99,2.46,
1.316,-0.22,-0.61,-1.63,-3.44,-0.99,2.46,
1.316,-0.22,-0.61,-1.63,-3.39,-0.98,2.46,
1.317,-0.22,-0.61,-1.63,-3.33,-0.97,2.45,
1.319,-0.22,-0.61,-1.63,-3.26,-0.95,2.43,
1.321,-0.22,-0.61,-1.63,-3.18,-0.93,2.40,
1.323,-0.22,-0.61,-1.63,-3.09,-0.91,2.36,
1.325,1.04,0.73,0.00,-3.09,-0.91,2.36,
1.326,1.04,0.73,0.00,-2.99,-0.88,2.31,
1.327,1.04,0.73,0.00,-2.88,-0.83,2.25,
1.329,1.04,0.73,0.00,-2.77,-0.77,2.17,
1.35,1.04,0.73,0.00,-2.64,-0.71,2.09,
1.35,1.04,0.73,0.00,-2.51,-0.63,1.99,
1.35,2.39,1.96,1.68,-2.51,-0.63,1.99,
1.351,2.39,1.96,1.68,-2.37,-0.54,1.88,
1.351,2.39,1.96,1.68,-2.23,-0.45,1.76,
1.351,2.39,1.96,1.68,-2.09,-0.35,1.63,
1.351,2.39,1.96,1.68,-1.94,-0.25,1.50,
1.351,2.39,1.96,1.68,-1.80,-0.15,1.36,
1.352,3.18,2.75,2.83,-1.80,-0.15,1.36,
1.352,3.18,2.75,2.83,-1.65,-0.05,1.23,
1.352,3.18,2.75,2.83,-1.49,0.04,1.09,
1.352,3.18,2.75,2.83,-1.34,0.13,0.97,
1.353,3.18,2.75,2.83,-1.18,0.22,0.85,
1.353,3.18,2.75,2.83,-1.03,0.31,0.74,
1.356,2.67,2.99,3.95,-1.03,0.31,0.74,
1.356,2.67,2.99,3.95,-0.88,0.40,0.64,
1.357,2.67,2.99,3.95,-0.73,0.48,0.54,
1.359,2.67,2.99,3.95,-0.59,0.56,0.45,
1.361,2.67,2.99,3.95,-0.46,0.64,0.36,
1.387,2.67,2.99,3.95,-0.33,0.72,0.28,
1.388,1.30,2.97,3.74,-0.33,0.72,0.28,
1.388,1.30,2.97,3.74,-0.22,0.79,0.21,
1.388,1.30,2.97,3.74,-0.13,0.86,0.15,
1.388,1.30,2.97,3.74,-0.03,0.91,0.08,
1.388,1.30,2.97,3.74,0.06,0.96,0.02,
1.389,1.30,2.97,3.74,0.16,1.00,-0.03,
1.389,0.29,2.98,3.55,0.16,1.00,-0.03,
1.389,0.29,2.98,3.55,0.25,1.03,-0.09,
1.389,0.29,2.98,3.55,0.34,1.06,-0.15,
1.389,0.29,2.98,3.55,0.43,1.08,-0.20,
1.39,0.29,2.98,3.55,0.53,1.11,-0.26,
1.39,0.29,2.98,3.55,0.67,1.16,-0.34,
1.39,0.20,2.42,3.58,0.67,1.16,-0.34,
1.39,0.20,2.42,3.58,0.77,1.19,-0.40,
1.39,0.20,2.42,3.58,0.87,1.22,-0.46,
1.39,0.20,2.42,3.58,0.92,1.23,-0.49,
1.391,0.20,2.42,3.58,1.02,1.26,-0.54,
1.394,0.20,2.42,3.58,1.13,1.28,-0.60,
1.396,0.42,1.66,3.78,1.13,1.28,-0.60,
1.396,0.42,1.66,3.78,1.24,1.30,-0.65,
1.408,0.42,1.66,3.78,1.35,1.32,-0.70,
1.409,0.42,1.66,3.78,1.45,1.34,-0.75,
1.409,0.42,1.66,3.78,1.55,1.35,-0.79,
1.41,0.42,1.66,3.78,1.64,1.36,-0.82,
1.41,0.17,0.96,3.06,1.64,1.36,-0.82,
1.411,0.17,0.96,3.06,1.72,1.36,-0.85,
1.411,0.17,0.96,3.06,1.79,1.36,-0.86,
1.412,0.17,0.96,3.06,1.86,1.37,-0.87,
1.412,0.17,0.96,3.06,1.92,1.39,-0.86,
1.418,0.17,0.96,3.06,1.98,1.41,-0.85,
1.419,-1.07,0.34,2.42,1.98,1.41,-0.85,
1.419,-1.07,0.34,2.42,2.04,1.41,-0.84,
1.419,-1.07,0.34,2.42,2.10,1.42,-0.82,
1.419,-1.07,0.34,2.42,2.15,1.43,-0.80,
1.421,-1.07,0.34,2.42,2.19,1.44,-0.78,
1.427,-1.07,0.34,2.42,2.22,1.44,-0.75,
1.427,-1.67,-0.16,1.42,2.22,1.44,-0.75,
1.427,-1.67,-0.16,1.42,2.23,1.45,-0.72,
1.428,-1.67,-0.16,1.42,2.24,1.46,-0.68,
1.43,-1.67,-0.16,1.42,2.23,1.49,-0.63,
1.433,-1.67,-0.16,1.42,2.22,1.49,-0.61,
1.434,-1.67,-0.16,1.42,2.19,1.50,-0.57,
1.439,-2.05,-0.79,-0.45,2.19,1.50,-0.57,
1.439,-2.05,-0.79,-0.45,2.15,1.50,-0.53,
1.439,-2.05,-0.79,-0.45,2.10,1.49,-0.49,
1.465,-2.05,-0.79,-0.45,2.05,1.48,-0.45,
1.467,-2.05,-0.79,-0.45,1.99,1.46,-0.42,
1.467,-2.05,-0.79,-0.45,1.92,1.43,-0.40,
1.468,-1.80,-1.30,-1.55,1.92,1.43,-0.40,
1.468,-1.80,-1.30,-1.55,1.84,1.40,-0.38,
1.469,-1.80,-1.30,-1.55,1.75,1.35,-0.36,
1.469,-1.80,-1.30,-1.55,1.64,1.28,-0.35,
1.469,-1.80,-1.30,-1.55,1.52,1.21,-0.35,
1.47,-1.80,-1.30,-1.55,1.40,1.15,-0.36,
1.47,-0.97,-2.01,-3.07,1.40,1.15,-0.36,
1.47,-0.97,-2.01,-3.07,1.27,1.11,-0.37,
1.471,-0.97,-2.01,-3.07,1.15,1.09,-0.40,
1.471,-0.97,-2.01,-3.07,1.05,1.09,-0.43,
1.471,-0.97,-2.01,-3.07,0.95,1.09,-0.47,
1.471,-0.97,-2.01,-3.07,0.87,1.09,-0.51,
1.472,0.50,-3.03,-2.55,0.87,1.09,-0.51,
1.472,0.50,-3.03,-2.55,0.79,1.08,-0.55,
1.472,0.50,-3.03,-2.55,0.72,1.07,-0.59,
1.472,0.50,-3.03,-2.55,0.65,1.06,-0.64,
1.473,0.50,-3.03,-2.55,0.60,1.04,-0.69,
1.48,0.50,-3.03,-2.55,0.54,1.04,-0.74,
1.48,1.15,-3.30,-2.43,0.54,1.04,-0.74,
1.481,1.15,-3.30,-2.43,0.49,1.05,-0.79,
1.481,1.15,-3.30,-2.43,0.45,1.06,-0.85,
1.482,1.15,-3.30,-2.43,0.40,1.09,-0.91,
1.482,1.15,-3.30,-2.43,0.36,1.11,-0.96,
1.486,1.15,-3.30,-2.43,0.32,1.13,-1.02,
1.487,1.69,-2.98,-2.62,0.32,1.13,-1.02,
1.487,1.69,-2.98,-2.62,0.28,1.16,-1.08,
1.487,1.69,-2.98,-2.62,0.24,1.16,-1.12,
1.489,1.69,-2.98,-2.62,0.21,1.12,-1.17,
1.492,1.69,-2.98,-2.62,0.18,1.10,-1.19,
1.493,1.69,-2.98,-2.62,0.17,1.10,-1.20,
1.496,1.24,-2.76,-2.01,0.17,1.10,-1.20,
1.496,1.24,-2.76,-2.01,0.14,1.11,-1.21,
1.499,1.24,-2.76,-2.01,0.11,1.12,-1.21,
1.501,1.24,-2.76,-2.01,0.07,1.14,-1.19,
1.504,1.24,-2.76,-2.01,0.05,1.14,-1.18,
1.504,1.24,-2.76,-2.01,0.03,1.15,-1.16,
1.506,1.04,-2.26,-1.53,0.03,1.15,-1.16,
1.506,1.04,-2.26,-1.53,0.02,1.15,-1.14,
1.507,1.04,-2.26,-1.53,0.01,1.14,-1.13,
1.509,1.04,-2.26,-1.53,0.00,1.11,-1.09,
1.511,1.04,-2.26,-1.53,-0.00,1.09,-1.08,
1.523,1.04,-2.26,-1.53,-0.00,1.04,-1.04,
1.524,1.02,-1.38,-0.53,-0.00,1.04,-1.04,
1.524,1.02,-1.38,-0.53,0.00,0.99,-1.00,
1.524,1.02,-1.38,-0.53,0.01,0.97,-0.98,
1.524,1.02,-1.38,-0.53,0.02,0.89,-0.92,
1.525,1.02,-1.38,-0.53,0.03,0.86,-0.90,
1.525,1.02,-1.38,-0.53,0.05,0.77,-0.83,
1.526,1.10,-0.86,0.36,0.05,0.77,-0.83,
1.526,1.10,-0.86,0.36,0.07,0.71,-0.78,
1.527,1.10,-0.86,0.36,0.08,0.68,-0.76,
1.576,1.10,-0.86,0.36,0.11,0.59,-0.69,
1.576,1.10,-0.86,0.36,0.11,0.55,-0.67,
1.576,1.10,-0.86,0.36,0.14,0.47,-0.59,
1.576,1.58,-0.73,0.51,0.14,0.47,-0.59,
1.577,1.58,-0.73,0.51,0.15,0.42,-0.55,
1.577,1.58,-0.73,0.51,0.16,0.39,-0.53,
1.577,1.58,-0.73,0.51,0.17,0.33,-0.47,
1.577,1.58,-0.73,0.51,0.17,0.30,-0.44,
1.578,1.58,-0.73,0.51,0.17,0.28,-0.41,
1.578,2.69,-1.16,-0.54,0.17,0.28,-0.41,
1.578,2.69,-1.16,-0.54,0.16,0.28,-0.39,
1.578,2.69,-1.16,-0.54,0.15,0.32,-0.37,
1.578,2.69,-1.16,-0.54,0.14,0.42,-0.35,
1.578,2.69,-1.16,-0.54,0.12,0.52,-0.34,
1.579,2.69,-1.16,-0.54,0.10,0.58,-0.34,
1.579,3.91,-2.16,-2.38,0.10,0.58,-0.34,
1.579,3.91,-2.16,-2.38,0.09,0.60,-0.36,
1.579,3.91,-2.16,-2.38,0.09,0.61,-0.39,
1.579,3.91,-2.16,-2.38,0.08,0.61,-0.43,
1.58,3.91,-2.16,-2.38,0.07,0.58,-0.48,
1.58,3.91,-2.16,-2.38,0.07,0.53,-0.53,
1.58,4.21,-3.53,-1.47,0.07,0.53,-0.53,
1.58,4.21,-3.53,-1.47,0.07,0.48,-0.60,
1.58,4.21,-3.53,-1.47,0.08,0.44,-0.68,
1.58,4.21,-3.53,-1.47,0.08,0.40,-0.77,
1.581,4.21,-3.53,-1.47,0.08,0.37,-0.85,
1.581,4.21,-3.53,-1.47,0.09,0.32,-0.94,
1.581,3.99,-3.40,-0.25,0.09,0.32,-0.94,
1.581,3.99,-3.40,-0.25,0.09,0.25,-1.02,
1.581,3.99,-3.40,-0.25,0.09,0.17,-1.10,
1.582,3.99,-3.40,-0.25,0.09,0.11,-1.19,
1.585,3.99,-3.40,-0.25,0.08,0.08,-1.26,
1.585,3.99,-3.40,-0.25,0.08,0.07,-1.34,
1.586,2.91,-2.63,-0.17,0.08,0.07,-1.34,
1.586,2.91,-2.63,-0.17,0.06,0.08,-1.40,
1.587,2.91,-2.63,-0.17,0.05,0.11,-1.45,
1.59,2.91,-2.63,-0.17,0.03,0.15,-1.49,
1.591,2.91,-2.63,-0.17,0.00,0.19,-1.52,
1.593,2.91,-2.63,-0.17,-0.02,0.26,-1.56,
1.605,1.32,-2.22,-1.44,-0.02,0.26,-1.56,
1.606,1.32,-2.22,-1.44,-0.05,0.34,-1.58,
1.606,1.32,-2.22,-1.44,-0.09,0.41,-1.59,
1.606,1.32,-2.22,-1.44,-0.12,0.49,-1.59,
1.607,1.32,-2.22,-1.44,-0.16,0.57,-1.58,
1.61,1.32,-2.22,-1.44,-0.30,0.79,-1.52,
1.61,1.32,-2.22,-1.44,-0.30,0.79,-1.52,
1.646,1.32,-2.22,-1.44,-0.30,0.79,-1.52,
1.647,-2.60,-2.27,-2.25,-0.30,0.79,-1.52,
1.647,-2.60,-2.27,-2.25,-0.41,0.97,-1.45,
1.648,-2.60,-2.27,-2.25,-0.41,0.97,-1.45,
1.648,-2.60,-2.27,-2.25,-0.48,1.07,-1.41,
1.649,-4.25,-2.34,-2.79,-0.48,1.07,-1.41,
1.649,-4.25,-2.34,-2.79,-0.54,1.18,-1.36,
1.649,-4.25,-2.34,-2.79,-0.61,1.31,-1.30,
1.65,-4.25,-2.34,-2.79,-0.67,1.44,-1.24,
1.65,-4.25,-2.34,-2.79,-0.74,1.55,-1.19,
1.651,-4.25,-2.34,-2.79,-0.80,1.67,-1.12,
1.651,-6.02,-1.84,-2.96,-0.80,1.67,-1.12,
1.652,-6.02,-1.84,-2.96,-0.85,1.80,-1.06,
1.652,-6.02,-1.84,-2.96,-0.89,1.93,-1.01,
1.652,-6.02,-1.84,-2.96,-0.93,2.04,-0.96,
1.653,-6.02,-1.84,-2.96,-0.97,2.15,-0.92,
1.653,-6.02,-1.84,-2.96,-1.00,2.23,-0.89,
1.654,-5.87,-1.37,-2.05,-1.00,2.23,-0.89,
1.655,-5.87,-1.37,-2.05,-1.02,2.31,-0.86,
1.655,-5.87,-1.37,-2.05,-1.04,2.37,-0.83,
1.655,-5.87,-1.37,-2.05,-1.05,2.43,-0.80,
1.656,-5.87,-1.37,-2.05,-1.06,2.48,-0.77,
1.656,-5.87,-1.37,-2.05,-1.06,2.53,-0.74,
1.657,-4.90,-0.82,-0.69,-1.06,2.53,-0.74,
1.657,-4.90,-0.82,-0.69,-1.05,2.57,-0.71,
1.658,-4.90,-0.82,-0.69,-1.04,2.59,-0.68,
1.658,-4.90,-0.82,-0.69,-1.03,2.60,-0.64,
1.658,-4.90,-0.82,-0.69,-1.01,2.60,-0.60,
1.659,-4.90,-0.82,-0.69,-0.98,2.58,-0.56,
1.659,-4.08,-0.30,0.61,-0.98,2.58,-0.56,
1.66,-4.08,-0.30,0.61,-0.95,2.56,-0.52,
1.66,-4.08,-0.30,0.61,-0.92,2.54,-0.47,
1.66,-4.08,-0.30,0.61,-0.88,2.51,-0.42,
1.661,-4.08,-0.30,0.61,-0.85,2.48,-0.37,
1.683,-4.08,-0.30,0.61,-0.80,2.45,-0.31,
1.684,-3.19,0.11,1.43,-0.80,2.45,-0.31,
1.684,-3.19,0.11,1.43,-0.75,2.41,-0.25,
1.684,-3.19,0.11,1.43,-0.70,2.38,-0.19,
1.685,-3.19,0.11,1.43,-0.64,2.34,-0.13,
1.685,-3.19,0.11,1.43,-0.57,2.29,-0.06,
1.685,-3.19,0.11,1.43,-0.50,2.23,0.00,
1.686,-2.75,0.38,2.42,-0.50,2.23,0.00,
1.686,-2.75,0.38,2.42,-0.43,2.16,0.06,
1.686,-2.75,0.38,2.42,-0.36,2.08,0.13,
1.686,-2.75,0.38,2.42,-0.29,2.01,0.20,
1.686,-2.75,0.38,2.42,-0.23,1.94,0.26,
1.687,-2.75,0.38,2.42,-0.18,1.87,0.32,
1.687,-2.47,0.48,2.42,-0.18,1.87,0.32,
1.687,-2.47,0.48,2.42,-0.13,1.80,0.38,
1.692,-2.47,0.48,2.42,-0.09,1.75,0.43,
1.694,-2.47,0.48,2.42,-0.06,1.70,0.48,
1.695,-2.47,0.48,2.42,-0.03,1.64,0.53,
1.705,-2.47,0.48,2.42,-0.01,1.59,0.58,
1.705,-2.32,0.48,1.63,-0.01,1.59,0.58,
1.706,-2.32,0.48,1.63,-0.00,1.55,0.62,
1.706,-2.32,0.48,1.63,0.01,1.49,0.66,
1.706,-2.32,0.48,1.63,0.02,1.43,0.69,
1.706,-2.32,0.48,1.63,0.03,1.36,0.73,
1.707,-2.32,0.48,1.63,0.03,1.28,0.76,
1.707,-2.22,0.73,0.93,0.03,1.28,0.76,
1.707,-2.22,0.73,0.93,0.02,1.20,0.80,
1.707,-2.22,0.73,0.93,0.01,1.13,0.84,
1.711,-2.22,0.73,0.93,-0.01,1.05,0.87,
1.711,-2.22,0.73,0.93,-0.02,0.96,0.91,
1.722,-2.22,0.73,0.93,-0.05,0.88,0.96,
1.723,-2.27,0.64,0.27,-0.05,0.88,0.96,
1.723,-2.27,0.64,0.27,-0.07,0.78,1.00,
1.723,-2.27,0.64,0.27,-0.10,0.68,1.05,
1.723,-2.27,0.64,0.27,-0.13,0.58,1.09,
1.724,-2.27,0.64,0.27,-0.15,0.47,1.14,
1.724,-2.27,0.64,0.27,-0.18,0.36,1.20,
1.726,-1.78,0.68,0.02,-0.18,0.36,1.20,
1.726,-1.78,0.68,0.02,-0.20,0.24,1.26,
1.727,-1.78,0.68,0.02,-0.23,0.12,1.32,
1.736,-1.78,0.68,0.02,-0.24,0.01,1.38,
1.737,-1.78,0.68,0.02,-0.25,-0.11,1.45,
1.737,-1.78,0.68,0.02,-0.25,-0.23,1.52,
1.738,-1.55,1.43,0.29,-0.25,-0.23,1.52,
1.738,-1.55,1.43,0.29,-0.26,-0.36,1.60,
1.739,-1.55,1.43,0.29,-0.26,-0.50,1.68,
1.741,-1.55,1.43,0.29,-0.26,-0.63,1.78,
1.742,-1.55,1.43,0.29,-0.25,-0.76,1.87,
1.744,-1.55,1.43,0.29,-0.25,-0.88,1.98,
1.755,-2.08,2.68,0.05,-0.25,-0.88,1.98,
1.756,-2.08,2.68,0.05,-0.24,-1.00,2.09,
1.756,-2.08,2.68,0.05,-0.24,-1.10,2.21,
1.756,-2.08,2.68,0.05,-0.25,-1.18,2.33,
1.756,-2.08,2.68,0.05,-0.26,-1.23,2.46,
1.757,-2.08,2.68,0.05,-0.28,-1.27,2.57,
1.757,-1.99,3.40,-1.94,-0.28,-1.27,2.57,
1.757,-1.99,3.40,-1.94,-0.31,-1.28,2.67,
1.757,-1.99,3.40,-1.94,-0.34,-1.27,2.76,
1.76,-1.99,3.40,-1.94,-0.38,-1.27,2.83,
1.761,-1.99,3.40,-1.94,-0.42,-1.23,2.88,
1.788,-1.99,3.40,-1.94,-0.45,-1.15,2.91,
1.789,-0.43,2.11,-4.35,-0.45,-1.15,2.91,
1.789,-0.43,2.11,-4.35,-0.50,-1.03,2.93,
1.79,-0.43,2.11,-4.35,-0.53,-0.89,2.93,
1.79,-0.43,2.11,-4.35,-0.56,-0.76,2.91,
1.79,-0.43,2.11,-4.35,-0.59,-0.65,2.88,
1.813,-0.43,2.11,-4.35,-0.61,-0.55,2.84,
1.814,0.79,0.93,-5.73,-0.61,-0.55,2.84,
1.814,0.79,0.93,-5.73,-0.62,-0.47,2.80,
1.815,0.79,0.93,-5.73,-0.62,-0.40,2.75,
1.815,0.79,0.93,-5.73,-0.62,-0.31,2.71,
1.815,0.79,0.93,-5.73,-0.62,-0.22,2.66,
1.816,0.79,0.93,-5.73,-0.63,-0.11,2.63,
1.816,-0.37,0.65,-5.11,-0.63,-0.11,2.63,
1.816,-0.37,0.65,-5.11,-0.64,0.01,2.60,
1.816,-0.37,0.65,-5.11,-0.65,0.12,2.58,
1.817,-0.37,0.65,-5.11,-0.67,0.22,2.55,
1.817,-0.37,0.65,-5.11,-0.68,0.32,2.53,
1.817,-0.37,0.65,-5.11,-0.70,0.41,2.51,
1.817,-1.83,1.04,-4.81,-0.70,0.41,2.51,
1.818,-1.83,1.04,-4.81,-0.71,0.51,2.50,
1.818,-1.83,1.04,-4.81,-0.72,0.59,2.48,
1.818,-1.83,1.04,-4.81,-0.73,0.67,2.46,
1.818,-1.83,1.04,-4.81,-0.74,0.74,2.44,
1.819,-1.83,1.04,-4.81,-0.75,0.79,2.42,
1.819,-2.17,1.05,-3.21,-0.75,0.79,2.42,
1.819,-2.17,1.05,-3.21,-0.76,0.86,2.41,
1.82,-2.17,1.05,-3.21,-0.77,0.93,2.39,
1.82,-2.17,1.05,-3.21,-0.78,1.00,2.37,
1.82,-2.17,1.05,-3.21,-0.80,1.08,2.35,
1.82,-2.17,1.05,-3.21,-0.81,1.16,2.34,
1.821,-2.17,1.05,-3.21,-0.85,1.28,2.33,
1.821,-1.68,0.55,-2.42,-0.85,1.28,2.33,
1.821,-1.68,0.55,-2.42,-0.86,1.33,2.32,
1.821,-1.68,0.55,-2.42,-0.88,1.44,2.32,
1.822,-1.68,0.55,-2.42,-0.92,1.56,2.32,
1.829,-1.68,0.55,-2.42,-0.96,1.65,2.31,
1.829,-1.06,0.75,-2.67,-0.96,1.65,2.31,
1.829,-1.06,0.75,-2.67,-1.01,1.76,2.30,
1.83,-1.06,0.75,-2.67,-1.05,1.88,2.30,
1.83,-1.06,0.75,-2.67,-1.10,1.98,2.31,
1.832,-1.06,0.75,-2.67,-1.15,2.06,2.32,
1.833,-1.06,0.75,-2.67,-1.20,2.12,2.33,
1.836,-1.01,1.60,-2.14,-1.20,2.12,2.33,
1.836,-1.01,1.60,-2.14,-1.25,2.16,2.35,
1.837,-1.01,1.60,-2.14,-1.29,2.19,2.37,
1.84,-1.01,1.60,-2.14,-1.33,2.18,2.39,
1.842,-1.01,1.60,-2.14,-1.37,2.17,2.42,
1.843,-1.01,1.60,-2.14,-1.40,2.15,2.45,
1.846,-0.11,1.95,-0.48,-1.40,2.15,2.45,
1.847,-0.11,1.95,-0.48,-1.43,2.13,2.48,
1.848,-0.11,1.95,-0.48,-1.45,2.09,2.51,
1.849,-0.11,1.95,-0.48,-1.47,2.06,2.54,
1.851,-0.11,1.95,-0.48,-1.48,2.02,2.57,
1.853,-0.11,1.95,-0.48,-1.48,1.97,2.60,
1.856,0.56,2.06,1.19,-1.48,1.97,2.60,
1.856,0.56,2.06,1.19,-1.48,1.91,2.62,
1.857,0.56,2.06,1.19,-1.48,1.85,2.63,
1.859,0.56,2.06,1.19,-1.48,1.77,2.64,
1.863,0.56,2.06,1.19,-1.47,1.67,2.64,
1.863,0.56,2.06,1.19,-1.47,1.55,2.63,
1.868,1.01,1.85,2.42,-1.47,1.55,2.63,
1.868,1.01,1.85,2.42,-1.46,1.43,2.62,
1.868,1.01,1.85,2.42,-1.44,1.28,2.59,
1.87,1.01,1.85,2.42,-1.41,1.10,2.55,
1.873,1.01,1.85,2.42,-1.35,0.89,2.49,
1.882,1.01,1.85,2.42,-1.25,0.63,2.42,
1.883,2.21,1.27,6.64,-1.25,0.63,2.42,
1.883,2.21,1.27,6.64,-1.09,0.33,2.32,
1.883,2.21,1.27,6.64,-0.90,-0.01,2.21,
1.884,2.21,1.27,6.64,-0.69,-0.36,2.09,
1.884,2.21,1.27,6.64,-0.49,-0.69,1.95,
1.887,2.21,1.27,6.64,-0.31,-0.98,1.81,
1.888,3.18,0.02,12.19,-0.31,-0.98,1.81,
1.889,3.18,0.02,12.19,-0.15,-1.23,1.66,
1.89,3.18,0.02,12.19,-0.02,-1.44,1.51,
1.89,3.18,0.02,12.19,0.09,-1.59,1.36,
1.891,3.18,0.02,12.19,0.18,-1.70,1.21,
1.894,3.18,0.02,12.19,0.25,-1.76,1.06,
1.903,2.61,0.15,8.64,0.25,-1.76,1.06,
1.904,2.61,0.15,8.64,0.30,-1.80,0.92,
1.904,2.61,0.15,8.64,0.33,-1.82,0.80,
1.904,2.61,0.15,8.64,0.35,-1.82,0.67,
1.904,2.61,0.15,8.64,0.36,-1.81,0.56,
1.905,2.61,0.15,8.64,0.37,-1.78,0.45,
1.906,1.58,1.16,4.89,0.37,-1.78,0.45,
1.907,1.58,1.16,4.89,0.37,-1.73,0.36,
1.924,1.58,1.16,4.89,0.37,-1.67,0.28,
1.924,1.58,1.16,4.89,0.37,-1.58,0.21,
1.924,1.58,1.16,4.89,0.36,-1.47,0.15,
1.925,1.58,1.16,4.89,0.35,-1.36,0.10,
1.925,0.85,1.98,3.20,0.35,-1.36,0.10,
1.925,0.85,1.98,3.20,0.34,-1.24,0.07,
1.925,0.85,1.98,3.20,0.33,-1.12,0.03,
1.925,0.85,1.98,3.20,0.32,-0.99,0.01,
1.925,0.85,1.98,3.20,0.31,-0.86,-0.01,
1.925,0.85,1.98,3.20,0.30,-0.74,-0.02,
1.926,0.06,2.59,1.90,0.30,-0.74,-0.02,
1.927,0.06,2.59,1.90,0.29,-0.61,-0.02,
1.927,0.06,2.59,1.90,0.27,-0.49,-0.01,
1.93,0.06,2.59,1.90,0.26,-0.38,-0.01,
1.932,0.06,2.59,1.90,0.24,-0.29,0.01,
1.935,0.06,2.59,1.90,0.22,-0.21,0.02,
1.936,-0.67,3.19,1.02,0.22,-0.21,0.02,
1.936,-0.67,3.19,1.02,0.20,-0.14,0.04,
1.937,-0.67,3.19,1.02,0.18,-0.08,0.05,
1.949,-0.67,3.19,1.02,0.15,-0.03,0.07,
1.95,-0.67,3.19,1.02,0.12,0.01,0.09,
1.95,-0.67,3.19,1.02,0.09,0.05,0.11,
1.95,-1.27,3.72,0.20,0.09,0.05,0.11,
1.95,-1.27,3.72,0.20,0.06,0.08,0.12,
1.95,-1.27,3.72,0.20,0.03,0.10,0.14,
1.95,-1.27,3.72,0.20,-0.00,0.13,0.15,
1.953,-1.27,3.72,0.20,-0.03,0.15,0.17,
1.954,-1.27,3.72,0.20,-0.06,0.18,0.18,
1.956,-1.41,4.15,-0.24,-0.06,0.18,0.18,
1.956,-1.41,4.15,-0.24,-0.09,0.21,0.18,
1.957,-1.41,4.15,-0.24,-0.12,0.25,0.20,
1.959,-1.41,4.15,-0.24,-0.15,0.29,0.21,
1.961,-1.41,4.15,-0.24,-0.18,0.34,0.22,
1.964,-1.41,4.15,-0.24,-0.20,0.38,0.24,
1.965,-1.17,4.37,-0.44,-0.20,0.38,0.24,
1.966,-1.17,4.37,-0.44,-0.23,0.44,0.25,
1.967,-1.17,4.37,-0.44,-0.26,0.49,0.27,
1.969,-1.17,4.37,-0.44,-0.28,0.55,0.29,
1.972,-1.17,4.37,-0.44,-0.31,0.62,0.32,
1.973,-1.17,4.37,-0.44,-0.34,0.69,0.34,
1.976,-0.85,4.55,-0.37,-0.34,0.69,0.34,
1.976,-0.85,4.55,-0.37,-0.37,0.76,0.37,
1.978,-0.85,4.55,-0.37,-0.40,0.83,0.40,
1.98,-0.85,4.55,-0.37,-0.43,0.90,0.43,
1.981,-0.85,4.55,-0.37,-0.47,0.96,0.46,
1.984,-0.85,4.55,-0.37,-0.50,1.01,0.50,
1.986,-0.95,4.72,-0.42,-0.50,1.01,0.50,
1.986,-0.95,4.72,-0.42,-0.54,1.06,0.55,
1.987,-0.95,4.72,-0.42,-0.58,1.11,0.60,
1.989,-0.95,4.72,-0.42,-0.62,1.15,0.65,
1.991,-0.95,4.72,-0.42,-0.66,1.19,0.71,
1.995,-0.95,4.72,-0.42,-0.69,1.21,0.76,
1.997,-1.29,4.79,-0.55,-0.69,1.21,0.76,
1.997,-1.29,4.79,-0.55,-0.73,1.24,0.82,
1.998,-1.29,4.79,-0.55,-0.77,1.25,0.88,
1.999,-1.29,4.79,-0.55,-0.80,1.27,0.93,
2.001,-1.29,4.79,-0.55,-0.84,1.28,0.99,
2.003,-1.29,4.79,-0.55,-0.87,1.29,1.05,
2.008,-1.57,4.74,-0.46,-0.87,1.29,1.05,
2.008,-1.57,4.74,-0.46,-0.90,1.29,1.11,
2.008,-1.57,4.74,-0.46,-0.93,1.29,1.16,
2.009,-1.57,4.74,-0.46,-0.95,1.29,1.22,
2.011,-1.57,4.74,-0.46,-0.98,1.28,1.28,
2.014,-1.57,4.74,-0.46,-1.01,1.27,1.34,
2.016,-1.56,4.70,-0.35,-1.01,1.27,1.34,
2.016,-1.56,4.70,-0.35,-1.04,1.25,1.40,
2.017,-1.56,4.70,-0.35,-1.08,1.23,1.45,
2.022,-1.56,4.70,-0.35,-1.11,1.21,1.52,
2.022,-1.56,4.70,-0.35,-1.14,1.18,1.58,
2.023,-1.56,4.70,-0.35,-1.17,1.16,1.65,
2.026,-1.59,4.77,-0.73,-1.17,1.16,1.65,
2.026,-1.59,4.77,-0.73,-1.19,1.14,1.72,
2.031,-1.59,4.77,-0.73,-1.21,1.11,1.80,
2.031,-1.59,4.77,-0.73,-1.24,1.08,1.86,
2.031,-1.59,4.77,-0.73,-1.27,1.05,1.92,
2.039,-1.59,4.77,-0.73,-1.29,1.03,1.97,
2.039,-1.49,4.83,-1.34,-1.29,1.03,1.97,
2.039,-1.49,4.83,-1.34,-1.30,1.03,2.01,
2.04,-1.49,4.83,-1.34,-1.29,1.05,2.05,
2.04,-1.49,4.83,-1.34,-1.28,1.08,2.08,
2.045,-1.49,4.83,-1.34,-1.25,1.12,2.10,
2.045,-1.49,4.83,-1.34,-1.23,1.16,2.11,
2.046,-1.10,4.59,-1.79,-1.23,1.16,2.11,
2.047,-1.10,4.59,-1.79,-1.20,1.19,2.14,
2.047,-1.10,4.59,-1.79,-1.19,1.19,2.17,
2.049,-1.10,4.59,-1.79,-1.20,1.15,2.21,
2.051,-1.10,4.59,-1.79,-1.23,1.08,2.28,
2.057,-1.10,4.59,-1.79,-1.27,1.00,2.35,
2.058,-1.66,4.60,-2.90,-1.27,1.00,2.35,
2.058,-1.66,4.60,-2.90,-1.32,0.91,2.43,
2.058,-1.66,4.60,-2.90,-1.38,0.82,2.52,
2.059,-1.66,4.60,-2.90,-1.45,0.72,2.60,
2.061,-1.66,4.60,-2.90,-1.52,0.60,2.69,
2.063,-1.66,4.60,-2.90,-1.60,0.49,2.77,
2.067,-2.66,5.04,-3.64,-1.60,0.49,2.77,
2.068,-2.66,5.04,-3.64,-1.68,0.37,2.85,
2.068,-2.66,5.04,-3.64,-1.76,0.25,2.92,
2.069,-2.66,5.04,-3.64,-1.84,0.14,2.97,
2.071,-2.66,5.04,-3.64,-1.91,0.04,3.02,
2.073,-2.66,5.04,-3.64,-1.98,-0.06,3.06,
2.077,-3.07,5.42,-4.17,-1.98,-0.06,3.06,
2.078,-3.07,5.42,-4.17,-2.04,-0.16,3.09,
2.078,-3.07,5.42,-4.17,-2.11,-0.25,3.12,
2.079,-3.07,5.42,-4.17,-2.17,-0.30,3.15,
2.081,-3.07,5.42,-4.17,-2.23,-0.34,3.17,
2.083,-3.07,5.42,-4.17,-2.29,-0.35,3.19,
2.085,-2.96,5.87,-3.83,-2.29,-0.35,3.19,
2.086,-2.96,5.87,-3.83,-2.34,-0.35,3.21,
2.088,-2.96,5.87,-3.83,-2.39,-0.34,3.22,
2.089,-2.96,5.87,-3.83,-2.43,-0.31,3.24,
2.091,-2.96,5.87,-3.83,-2.46,-0.27,3.26,
2.093,-2.96,5.87,-3.83,-2.48,-0.24,3.28,
2.096,-3.00,5.92,-2.72,-2.48,-0.24,3.28,
2.096,-3.00,5.92,-2.72,-2.49,-0.22,3.30,
2.097,-3.00,5.92,-2.72,-2.48,-0.20,3.33,
2.099,-3.00,5.92,-2.72,-2.46,-0.21,3.36,
2.101,-3.00,5.92,-2.72,-2.43,-0.21,3.38,
2.103,-3.00,5.92,-2.72,-2.39,-0.22,3.42,
2.106,-2.91,5.98,-0.81,-2.39,-0.22,3.42,
2.121,-2.91,5.98,-0.81,-2.34,-0.24,3.46,
2.122,-2.91,5.98,-0.81,-2.28,-0.27,3.50,
2.122,-2.91,5.98,-0.81,-2.22,-0.31,3.54,
2.122,-2.91,5.98,-0.81,-2.16,-0.32,3.58,
2.123,-2.91,5.98,-0.81,-2.12,-0.31,3.62,
2.123,-3.03,6.16,-0.47,-2.12,-0.31,3.62,
2.123,-3.03,6.16,-0.47,-2.10,-0.26,3.66,
2.123,-3.03,6.16,-0.47,-2.10,-0.16,3.70,
2.124,-3.03,6.16,-0.47,-2.12,-0.02,3.73,
2.124,-3.03,6.16,-0.47,-2.16,0.14,3.75,
2.124,-3.03,6.16,-0.47,-2.20,0.33,3.77,
2.128,-2.59,6.31,-2.09,-2.20,0.33,3.77,
2.129,-2.59,6.31,-2.09,-2.25,0.52,3.79,
2.129,-2.59,6.31,-2.09,-2.29,0.70,3.79,
2.129,-2.59,6.31,-2.09,-2.33,0.88,3.80,
2.132,-2.59,6.31,-2.09,-2.38,1.08,3.81,
2.134,-2.59,6.31,-2.09,-2.46,1.33,3.83,
2.136,-1.20,2.77,-3.58,-2.46,1.33,3.83,
2.136,-1.20,2.77,-3.58,-2.54,1.62,3.85,
2.137,-1.20,2.77,-3.58,-2.65,1.95,3.88,
2.139,-1.20,2.77,-3.58,-2.78,2.29,3.90,
2.141,-1.20,2.77,-3.58,-2.88,2.62,3.95,
2.144,-1.20,2.77,-3.58,-2.94,2.91,4.01,
2.146,-0.73,-7.41,-5.63,-2.94,2.91,4.01,
2.146,-0.73,-7.41,-5.63,-2.97,3.16,4.10,
2.147,-0.73,-7.41,-5.63,-3.00,3.37,4.20,
2.149,-0.73,-7.41,-5.63,-3.01,3.52,4.34,
2.151,-0.73,-7.41,-5.63,-3.03,3.65,4.50,
2.153,-0.73,-7.41,-5.63,-3.03,3.78,4.66,
2.155,-4.95,-20.39,-4.85,-3.03,3.78,4.66,
2.156,-4.95,-20.39,-4.85,-3.02,3.95,4.83,
2.157,-4.95,-20.39,-4.85,-3.00,4.12,5.02,
2.159,-4.95,-20.39,-4.85,-2.98,4.29,5.21,
2.162,-4.95,-20.39,-4.85,-2.94,4.48,5.41,
2.164,-4.95,-20.39,-4.85,-2.88,4.72,5.60,
2.166,-8.69,-36.43,-4.70,-2.88,4.72,5.60,
2.166,-8.69,-36.43,-4.70,-2.81,4.96,5.79,
2.167,-8.69,-36.43,-4.70,-2.74,5.17,5.96,
2.169,-8.69,-36.43,-4.70,-2.65,5.34,6.09,
2.175,-8.69,-36.43,-4.70,-2.55,5.49,6.19,
2.175,-8.69,-36.43,-4.70,-2.42,5.63,6.23,
2.176,-8.67,-43.54,-3.49,-2.42,5.63,6.23,
2.176,-8.67,-43.54,-3.49,-2.28,5.75,6.22,
2.183,-8.67,-43.54,-3.49,-2.14,5.84,6.15,
2.184,-8.67,-43.54,-3.49,-1.97,5.92,6.04,
2.184,-8.67,-43.54,-3.49,-1.79,5.97,5.89,
2.184,-8.67,-43.54,-3.49,-1.60,6.01,5.71,
2.186,-3.29,-35.09,-0.39,-1.60,6.01,5.71,
2.187,-3.29,-35.09,-0.39,-1.40,6.03,5.51,
2.187,-3.29,-35.09,-0.39,-1.18,6.05,5.30,
2.191,-3.29,-35.09,-0.39,-0.95,6.10,5.08,
2.193,-3.29,-35.09,-0.39,-0.72,6.15,4.83,
2.199,-3.29,-35.09,-0.39,-0.47,6.20,4.58,
2.199,1.51,-20.68,3.43,-0.47,6.20,4.58,
2.199,1.51,-20.68,3.43,-0.21,6.24,4.32,
2.2,1.51,-20.68,3.43,0.05,6.26,4.05,
2.2,1.51,-20.68,3.43,0.32,6.26,3.79,
2.202,1.51,-20.68,3.43,0.58,6.25,3.53,
2.203,1.51,-20.68,3.43,0.83,6.20,3.27,
2.206,4.88,-9.40,6.44,0.83,6.20,3.27,
2.206,4.88,-9.40,6.44,1.08,6.13,3.02,
2.207,4.88,-9.40,6.44,1.31,6.03,2.79,
2.209,4.88,-9.40,6.44,1.52,5.90,2.56,
2.211,4.88,-9.40,6.44,1.71,5.75,2.35,
2.213,4.88,-9.40,6.44,1.88,5.57,2.14,
2.217,6.46,-2.50,6.77,1.88,5.57,2.14,
2.217,6.46,-2.50,6.77,2.04,5.39,1.95,
2.218,6.46,-2.50,6.77,2.19,5.20,1.77,
2.223,6.46,-2.50,6.77,2.33,5.00,1.60,
2.224,6.46,-2.50,6.77,2.45,4.81,1.44,
2.225,6.46,-2.50,6.77,2.56,4.62,1.28,
2.226,6.31,1.48,5.33,2.56,4.62,1.28,
2.227,6.31,1.48,5.33,2.66,4.43,1.14,
2.228,6.31,1.48,5.33,2.74,4.25,1.00,
2.23,6.31,1.48,5.33,2.81,4.08,0.86,
2.231,6.31,1.48,5.33,2.87,3.92,0.74,
2.234,6.31,1.48,5.33,2.91,3.76,0.62,
2.236,5.86,3.82,3.44,2.91,3.76,0.62,
2.236,5.86,3.82,3.44,2.95,3.62,0.51,
2.237,5.86,3.82,3.44,2.97,3.48,0.40,
2.239,5.86,3.82,3.44,2.99,3.35,0.30,
2.242,5.86,3.82,3.44,3.00,3.22,0.21,
2.244,5.86,3.82,3.44,3.01,3.10,0.11,
2.246,4.93,5.37,1.83,3.01,3.10,0.11,
2.246,4.93,5.37,1.83,3.00,2.97,0.02,
2.248,4.93,5.37,1.83,3.00,2.85,-0.06,
2.25,4.93,5.37,1.83,2.99,2.71,-0.15,
2.251,4.93,5.37,1.83,2.97,2.57,-0.23,
2.253,4.93,5.37,1.83,2.95,2.42,-0.31,
2.257,4.65,6.20,0.79,2.95,2.42,-0.31,
2.257,4.65,6.20,0.79,2.92,2.26,-0.39,
2.258,4.65,6.20,0.79,2.88,2.06,-0.47,
2.261,4.65,6.20,0.79,2.83,1.78,-0.55,
2.262,4.65,6.20,0.79,2.75,1.43,-0.61,
2.265,4.65,6.20,0.79,2.63,1.04,-0.67,
2.268,3.80,7.25,1.02,2.63,1.04,-0.67,
2.269,3.80,7.25,1.02,2.49,0.66,-0.72,
2.269,3.80,7.25,1.02,2.31,0.27,-0.76,
2.27,3.80,7.25,1.02,2.10,-0.11,-0.79,
2.274,3.80,7.25,1.02,1.83,-0.48,-0.81,
2.29,3.80,7.25,1.02,1.52,-0.83,-0.82,
2.291,2.59,7.43,-1.63,1.52,-0.83,-0.82,
2.291,2.59,7.43,-1.63,1.24,-1.13,-0.83,
2.291,2.59,7.43,-1.63,0.98,-1.39,-0.83,
2.292,2.59,7.43,-1.63,0.75,-1.61,-0.84,
2.293,2.59,7.43,-1.63,0.53,-1.80,-0.85,
2.293,2.59,7.43,-1.63,0.32,-1.97,-0.86,
2.293,1.63,5.84,-2.26,0.32,-1.97,-0.86,
2.293,1.63,5.84,-2.26,0.13,-2.12,-0.88,
2.294,1.63,5.84,-2.26,-0.05,-2.24,-0.90,
2.294,1.63,5.84,-2.26,-0.21,-2.35,-0.92,
2.294,1.63,5.84,-2.26,-0.35,-2.44,-0.95,
2.294,1.63,5.84,-2.26,-0.48,-2.52,-0.98,
2.298,1.28,4.01,-1.75,-0.48,-2.52,-0.98,
2.298,1.28,4.01,-1.75,-0.59,-2.59,-1.02,
2.299,1.28,4.01,-1.75,-0.70,-2.65,-1.05,
2.3,1.28,4.01,-1.75,-0.78,-2.71,-1.09,
2.301,1.28,4.01,-1.75,-0.86,-2.76,-1.12,
2.303,1.28,4.01,-1.75,-0.92,-2.81,-1.15,
2.305,0.78,2.73,-0.79,-0.92,-2.81,-1.15,
2.306,0.78,2.73,-0.79,-0.98,-2.85,-1.18,
2.307,0.78,2.73,-0.79,-1.03,-2.89,-1.21,
2.31,0.78,2.73,-0.79,-1.07,-2.92,-1.24,
2.311,0.78,2.73,-0.79,-1.11,-2.95,-1.27,
2.313,0.78,2.73,-0.79,-1.14,-2.98,-1.29,
2.316,0.25,1.44,-0.16,-1.14,-2.98,-1.29,
2.316,0.25,1.44,-0.16,-1.17,-3.01,-1.32,
2.317,0.25,1.44,-0.16,-1.19,-3.04,-1.34,
2.319,0.25,1.44,-0.16,-1.20,-3.07,-1.35,
2.321,0.25,1.44,-0.16,-1.22,-3.09,-1.36,
2.323,0.25,1.44,-0.16,-1.23,-3.12,-1.38,
2.325,-0.53,0.04,0.17,-1.23,-3.12,-1.38,
2.326,-0.53,0.04,0.17,-1.24,-3.14,-1.38,
2.334,-0.53,0.04,0.17,-1.25,-3.17,-1.38,
2.335,-0.53,0.04,0.17,-1.26,-3.19,-1.37,
2.335,-0.53,0.04,0.17,-1.27,-3.20,-1.37,
2.335,-0.53,0.04,0.17,-1.28,-3.22,-1.35,
2.335,-1.50,-1.24,0.31,-1.28,-3.22,-1.35,
2.336,-1.50,-1.24,0.31,-1.29,-3.23,-1.33,
2.337,-1.50,-1.24,0.31,-1.30,-3.23,-1.31,
2.339,-1.50,-1.24,0.31,-1.31,-3.22,-1.28,
2.342,-1.50,-1.24,0.31,-1.31,-3.21,-1.25,
2.375,-1.50,-1.24,0.31,-1.32,-3.19,-1.20,
2.375,-2.70,-2.21,0.49,-1.32,-3.19,-1.20,
2.375,-2.70,-2.21,0.49,-1.33,-3.15,-1.15,
2.375,-2.70,-2.21,0.49,-1.33,-3.09,-1.10,
2.375,-2.70,-2.21,0.49,-1.33,-3.02,-1.04,
2.375,-2.70,-2.21,0.49,-1.33,-2.92,-0.98,
2.376,-2.70,-2.21,0.49,-1.32,-2.79,-0.91,
2.376,-4.05,-2.68,1.42,-1.32,-2.79,-0.91,
2.376,-4.05,-2.68,1.42,-1.31,-2.65,-0.85,
2.376,-4.05,-2.68,1.42,-1.29,-2.48,-0.78,
2.376,-4.05,-2.68,1.42,-1.26,-2.29,-0.70,
2.376,-4.05,-2.68,1.42,-1.22,-2.08,-0.63,
2.376,-4.05,-2.68,1.42,-1.18,-1.87,-0.56,
2.376,-4.73,-2.39,2.68,-1.18,-1.87,-0.56,
2.377,-4.73,-2.39,2.68,-1.14,-1.64,-0.49,
2.377,-4.73,-2.39,2.68,-1.09,-1.41,-0.42,
2.377,-4.73,-2.39,2.68,-1.03,-1.17,-0.36,
2.377,-4.73,-2.39,2.68,-0.98,-0.94,-0.30,
2.377,-4.73,-2.39,2.68,-0.91,-0.71,-0.25,
2.377,-4.49,-1.40,3.42,-0.91,-0.71,-0.25,
2.378,-4.49,-1.40,3.42,-0.85,-0.49,-0.20,
2.378,-4.49,-1.40,3.42,-0.79,-0.27,-0.16,
2.379,-4.49,-1.40,3.42,-0.73,-0.07,-0.12,
2.381,-4.49,-1.40,3.42,-0.67,0.13,-0.09,
2.383,-4.49,-1.40,3.42,-0.61,0.31,-0.07,
2.385,-3.18,-0.41,3.16,-0.61,0.31,-0.07,
2.385,-3.18,-0.41,3.16,-0.55,0.48,-0.05,
2.387,-3.18,-0.41,3.16,-0.49,0.64,-0.04,
2.389,-3.18,-0.41,3.16,-0.44,0.78,-0.03,
2.391,-3.18,-0.41,3.16,-0.38,0.91,-0.02,
2.393,-3.18,-0.41,3.16,-0.33,1.02,-0.02,
2.395,-2.12,-0.02,2.68,-0.33,1.02,-0.02,
2.395,-2.12,-0.02,2.68,-0.27,1.12,-0.01,
2.397,-2.12,-0.02,2.68,-0.23,1.21,-0.01,
2.399,-2.12,-0.02,2.68,-0.19,1.28,0.00,
2.401,-2.12,-0.02,2.68,-0.16,1.35,0.02,
2.403,-2.12,-0.02,2.68,-0.13,1.40,0.02,
2.405,-1.69,0.22,1.86,-0.13,1.40,0.02,
2.405,-1.69,0.22,1.86,-0.10,1.44,0.03,
2.407,-1.69,0.22,1.86,-0.08,1.48,0.04,
2.41,-1.69,0.22,1.86,-0.06,1.51,0.05,
2.411,-1.69,0.22,1.86,-0.05,1.52,0.05,
2.413,-1.69,0.22,1.86,-0.04,1.54,0.05,
2.415,-1.17,0.58,1.25,-0.04,1.54,0.05,
2.416,-1.17,0.58,1.25,-0.04,1.55,0.05,
2.417,-1.17,0.58,1.25,-0.04,1.55,0.05,
2.419,-1.17,0.58,1.25,-0.04,1.55,0.04,
2.421,-1.17,0.58,1.25,-0.04,1.54,0.04,
2.423,-1.17,0.58,1.25,-0.05,1.52,0.04,
2.426,-0.63,0.77,0.84,-0.05,1.52,0.04,
2.426,-0.63,0.77,0.84,-0.05,1.50,0.04,
2.427,-0.63,0.77,0.84,-0.06,1.47,0.03,
2.429,-0.63,0.77,0.84,-0.07,1.44,0.03,
2.431,-0.63,0.77,0.84,-0.08,1.40,0.03,
2.433,-0.63,0.77,0.84,-0.10,1.36,0.03,
2.436,-0.30,0.68,0.70,-0.10,1.36,0.03,
2.436,-0.30,0.68,0.70,-0.11,1.31,0.02,
2.437,-0.30,0.68,0.70,-0.13,1.27,0.02,
2.459,-0.30,0.68,0.70,-0.15,1.23,0.01,
2.461,-0.30,0.68,0.70,-0.17,1.18,-0.01,
2.461,-0.30,0.68,0.70,-0.20,1.13,-0.03,
2.462,0.35,0.43,0.61,-0.20,1.13,-0.03,
2.463,0.35,0.43,0.61,-0.22,1.09,-0.05,
2.463,0.35,0.43,0.61,-0.24,1.03,-0.08,
2.464,0.35,0.43,0.61,-0.25,0.98,-0.11,
2.464,0.35,0.43,0.61,-0.27,0.91,-0.15,
2.464,0.35,0.43,0.61,-0.28,0.84,-0.19,
2.465,0.97,-0.11,0.78,-0.28,0.84,-0.19,
2.465,0.97,-0.11,0.78,-0.30,0.76,-0.22,
2.466,0.97,-0.11,0.78,-0.32,0.67,-0.25,
2.466,0.97,-0.11,0.78,-0.34,0.58,-0.28,
2.466,0.97,-0.11,0.78,-0.36,0.48,-0.31,
2.466,0.97,-0.11,0.78,-0.39,0.37,-0.33,
2.466,0.82,-0.26,0.57,-0.39,0.37,-0.33,
2.467,0.82,-0.26,0.57,-0.42,0.26,-0.35,
2.47,0.82,-0.26,0.57,-0.45,0.15,-0.37,
2.47,0.82,-0.26,0.57,-0.48,0.04,-0.39,
2.471,0.82,-0.26,0.57,-0.52,-0.08,-0.41,
2.473,0.82,-0.26,0.57,-0.55,-0.21,-0.44,
2.491,0.83,-0.21,0.37,-0.55,-0.21,-0.44,
2.491,0.83,-0.21,0.37,-0.59,-0.35,-0.46,
2.492,0.83,-0.21,0.37,-0.62,-0.51,-0.48,
2.492,0.83,-0.21,0.37,-0.65,-0.70,-0.50,
2.493,0.83,-0.21,0.37,-0.66,-0.92,-0.51,
2.493,0.83,-0.21,0.37,-0.67,-1.17,-0.53,
2.493,0.68,0.07,1.04,-0.67,-1.17,-0.53,
2.494,0.68,0.07,1.04,-0.66,-1.40,-0.56,
2.494,0.68,0.07,1.04,-0.67,-1.59,-0.58,
2.494,0.68,0.07,1.04,-0.69,-1.71,-0.58,
2.495,0.68,0.07,1.04,-0.73,-1.79,-0.58,
2.495,0.68,0.07,1.04,-0.76,-1.85,-0.57,
2.495,0.36,0.57,1.64,-0.76,-1.85,-0.57,
2.498,0.36,0.57,1.64,-0.80,-1.90,-0.56,
2.498,0.36,0.57,1.64,-0.84,-1.92,-0.55,
2.5,0.36,0.57,1.64,-0.87,-1.94,-0.55,
2.502,0.36,0.57,1.64,-0.89,-1.93,-0.55,
2.503,0.36,0.57,1.64,-0.92,-1.92,-0.55,
2.507,0.79,0.66,2.32,-0.92,-1.92,-0.55,
2.507,0.79,0.66,2.32,-0.94,-1.90,-0.54,
2.507,0.79,0.66,2.32,-0.95,-1.88,-0.53,
2.523,0.79,0.66,2.32,-0.95,-1.87,-0.52,
2.523,0.79,0.66,2.32,-0.95,-1.85,-0.51,
2.524,0.79,0.66,2.32,-0.94,-1.83,-0.49,
2.524,0.51,0.60,3.23,-0.94,-1.83,-0.49,
2.525,0.51,0.60,3.23,-0.93,-1.82,-0.46,
2.525,0.51,0.60,3.23,-0.91,-1.80,-0.44,
2.525,0.51,0.60,3.23,-0.88,-1.78,-0.42,
2.526,0.51,0.60,3.23,-0.85,-1.76,-0.40,
2.536,0.51,0.60,3.23,-0.82,-1.73,-0.38,
2.537,-0.08,0.32,3.85,-0.82,-1.73,-0.38,
2.538,-0.08,0.32,3.85,-0.78,-1.69,-0.36,
2.538,-0.08,0.32,3.85,-0.75,-1.64,-0.35,
2.539,-0.08,0.32,3.85,-0.71,-1.59,-0.34,
2.539,-0.08,0.32,3.85,-0.68,-1.53,-0.33,
2.54,-0.08,0.32,3.85,-0.65,-1.47,-0.32,
2.54,-0.42,-0.10,4.02,-0.65,-1.47,-0.32,
2.541,-0.42,-0.10,4.02,-0.62,-1.41,-0.31,
2.542,-0.42,-0.10,4.02,-0.60,-1.34,-0.30,
2.542,-0.42,-0.10,4.02,-0.57,-1.28,-0.29,
2.543,-0.42,-0.10,4.02,-0.55,-1.22,-0.28,
2.546,-0.42,-0.10,4.02,-0.53,-1.16,-0.27,
2.547,-0.90,-0.48,3.52,-0.53,-1.16,-0.27,
2.548,-0.90,-0.48,3.52,-0.52,-1.10,-0.26,
2.548,-0.90,-0.48,3.52,-0.50,-1.05,-0.24,
2.553,-0.90,-0.48,3.52,-0.50,-1.00,-0.22,
2.553,-0.90,-0.48,3.52,-0.49,-0.95,-0.20,
2.554,-0.90,-0.48,3.52,-0.49,-0.90,-0.18,
2.556,-1.37,-0.61,2.89,-0.49,-0.90,-0.18,
2.556,-1.37,-0.61,2.89,-0.50,-0.86,-0.17,
2.557,-1.37,-0.61,2.89,-0.50,-0.83,-0.15,
2.559,-1.37,-0.61,2.89,-0.51,-0.80,-0.13,
2.562,-1.37,-0.61,2.89,-0.51,-0.78,-0.11,
2.563,-1.37,-0.61,2.89,-0.52,-0.77,-0.10,
2.566,-1.41,-0.66,2.20,-0.52,-0.77,-0.10,
2.567,-1.41,-0.66,2.20,-0.54,-0.77,-0.08,
2.568,-1.41,-0.66,2.20,-0.55,-0.77,-0.07,
2.57,-1.41,-0.66,2.20,-0.57,-0.78,-0.06,
2.573,-1.41,-0.66,2.20,-0.58,-0.81,-0.04,
2.576,-1.41,-0.66,2.20,-0.60,-0.84,-0.03,
2.576,-1.38,-0.69,1.74,-0.60,-0.84,-0.03,
2.577,-1.38,-0.69,1.74,-0.62,-0.88,-0.02,
2.58,-1.38,-0.69,1.74,-0.63,-0.92,-0.00,
2.581,-1.38,-0.69,1.74,-0.65,-0.97,0.01,
2.581,-1.38,-0.69,1.74,-0.67,-1.03,0.02,
2.586,-1.38,-0.69,1.74,-0.69,-1.09,0.03,
2.589,-1.18,-0.68,1.38,-0.69,-1.09,0.03,
2.59,-1.18,-0.68,1.38,-0.70,-1.15,0.04,
2.59,-1.18,-0.68,1.38,-0.72,-1.22,0.05,
2.591,-1.18,-0.68,1.38,-0.73,-1.29,0.06,
2.592,-1.18,-0.68,1.38,-0.74,-1.36,0.07,
2.599,-1.18,-0.68,1.38,-0.75,-1.43,0.08,
2.599,-0.91,-0.72,1.24,-0.75,-1.43,0.08,
2.599,-0.91,-0.72,1.24,-0.76,-1.51,0.09,
2.599,-0.91,-0.72,1.24,-0.77,-1.58,0.10,
2.6,-0.91,-0.72,1.24,-0.77,-1.66,0.11,
2.603,-0.91,-0.72,1.24,-0.77,-1.73,0.12,
2.61,-0.91,-0.72,1.24,-0.76,-1.94,0.15,
2.61,-0.91,-0.72,1.24,-0.76,-1.94,0.15,
2.628,-0.91,-0.72,1.24,-0.76,-1.94,0.15,
2.628,-0.49,-1.09,1.14,-0.76,-1.94,0.15,
2.629,-0.49,-1.09,1.14,-0.73,-2.07,0.17,
2.629,-0.49,-1.09,1.14,-0.73,-2.07,0.17,
2.629,-0.49,-1.09,1.14,-0.71,-2.12,0.18,
2.63,-0.35,-1.39,1.15,-0.71,-2.12,0.18,
2.63,-0.35,-1.39,1.15,-0.69,-2.17,0.19,
2.63,-0.35,-1.39,1.15,-0.66,-2.21,0.20,
2.63,-0.35,-1.39,1.15,-0.64,-2.24,0.21,
2.631,-0.35,-1.39,1.15,-0.60,-2.27,0.22,
2.631,-0.35,-1.39,1.15,-0.57,-2.28,0.22,
2.631,-0.14,-2.14,1.16,-0.57,-2.28,0.22,
2.632,-0.14,-2.14,1.16,-0.53,-2.28,0.23,
2.632,-0.14,-2.14,1.16,-0.49,-2.27,0.24,
2.632,-0.14,-2.14,1.16,-0.45,-2.25,0.25,
2.632,-0.14,-2.14,1.16,-0.40,-2.22,0.26,
2.646,-0.14,-2.14,1.16,-0.36,-2.18,0.27,
2.646,0.11,-3.08,1.17,-0.36,-2.18,0.27,
2.647,0.11,-3.08,1.17,-0.32,-2.12,0.27,
2.647,0.11,-3.08,1.17,-0.28,-2.06,0.27,
2.647,0.11,-3.08,1.17,-0.24,-1.98,0.28,
2.647,0.11,-3.08,1.17,-0.20,-1.90,0.28,
2.647,0.11,-3.08,1.17,-0.17,-1.81,0.28,
2.648,0.29,-3.94,1.00,-0.17,-1.81,0.28,
2.648,0.29,-3.94,1.00,-0.14,-1.71,0.29,
2.648,0.29,-3.94,1.00,-0.11,-1.59,0.28,
2.65,0.29,-3.94,1.00,-0.07,-1.48,0.28,
2.651,0.29,-3.94,1.00,-0.05,-1.35,0.28,
2.654,0.29,-3.94,1.00,-0.02,-1.22,0.28,
2.656,0.45,-4.89,0.93,-0.02,-1.22,0.28,
2.656,0.45,-4.89,0.93,0.01,-1.08,0.27,
2.657,0.45,-4.89,0.93,0.04,-0.94,0.27,
2.671,0.45,-4.89,0.93,0.06,-0.80,0.26,
2.672,0.45,-4.89,0.93,0.09,-0.65,0.25,
2.672,0.45,-4.89,0.93,0.11,-0.49,0.25,
2.672,0.66,-5.87,0.99,0.11,-0.49,0.25,
2.672,0.66,-5.87,0.99,0.14,-0.34,0.24,
2.673,0.66,-5.87,0.99,0.16,-0.18,0.24,
2.673,0.66,-5.87,0.99,0.19,-0.02,0.23,
2.673,0.66,-5.87,0.99,0.21,0.14,0.23,
2.675,0.66,-5.87,0.99,0.24,0.29,0.22,
2.682,0.99,-6.51,1.31,0.24,0.29,0.22,
2.682,0.99,-6.51,1.31,0.26,0.45,0.22,
2.683,0.99,-6.51,1.31,0.28,0.61,0.21,
2.683,0.99,-6.51,1.31,0.31,0.77,0.21,
2.683,0.99,-6.51,1.31,0.33,0.92,0.20,
2.683,0.99,-6.51,1.31,0.35,1.07,0.20,
2.686,1.52,-6.56,1.70,0.35,1.07,0.20,
2.686,1.52,-6.56,1.70,0.38,1.22,0.20,
2.687,1.52,-6.56,1.70,0.40,1.37,0.19,
2.689,1.52,-6.56,1.70,0.42,1.51,0.19,
2.693,1.52,-6.56,1.70,0.44,1.64,0.18,
2.694,1.52,-6.56,1.70,0.46,1.77,0.18,
2.696,2.19,-6.11,2.23,0.46,1.77,0.18,
2.696,2.19,-6.11,2.23,0.48,1.90,0.18,
2.697,2.19,-6.11,2.23,0.49,2.01,0.18,
2.699,2.19,-6.11,2.23,0.51,2.12,0.19,
2.701,2.19,-6.11,2.23,0.53,2.21,0.19,
2.703,2.19,-6.11,2.23,0.55,2.30,0.20,
2.705,2.45,-5.53,2.74,0.55,2.30,0.20,
2.705,2.45,-5.53,2.74,0.57,2.38,0.22,
2.709,2.45,-5.53,2.74,0.59,2.44,0.23,
2.709,2.45,-5.53,2.74,0.61,2.50,0.25,
2.711,2.45,-5.53,2.74,0.64,2.54,0.28,
2.713,2.45,-5.53,2.74,0.67,2.57,0.31,
2.716,2.32,-4.90,3.71,0.67,2.57,0.31,
2.716,2.32,-4.90,3.71,0.70,2.58,0.34,
2.717,2.32,-4.90,3.71,0.75,2.58,0.38,
2.719,2.32,-4.90,3.71,0.80,2.57,0.41,
2.721,2.32,-4.90,3.71,0.85,2.54,0.45,
2.723,2.32,-4.90,3.71,0.92,2.50,0.49,
2.725,1.78,-4.30,5.00,0.92,2.50,0.49,
2.726,1.78,-4.30,5.00,1.00,2.45,0.52,
2.727,1.78,-4.30,5.00,1.08,2.39,0.55,
2.729,1.78,-4.30,5.00,1.17,2.32,0.58,
2.731,1.78,-4.30,5.00,1.27,2.24,0.61,
2.733,1.78,-4.30,5.00,1.37,2.17,0.64,
2.735,0.74,-3.57,6.24,1.37,2.17,0.64,
2.735,0.74,-3.57,6.24,1.48,2.09,0.66,
2.737,0.74,-3.57,6.24,1.59,2.01,0.69,
2.739,0.74,-3.57,6.24,1.70,1.94,0.72,
2.751,0.74,-3.57,6.24,1.81,1.86,0.76,
2.751,0.74,-3.57,6.24,1.93,1.80,0.79,
2.751,-1.05,-2.74,6.10,1.93,1.80,0.79,
2.751,-1.05,-2.74,6.10,2.04,1.73,0.84,
2.751,-1.05,-2.74,6.10,2.16,1.67,0.88,
2.752,-1.05,-2.74,6.10,2.27,1.61,0.93,
2.752,-1.05,-2.74,6.10,2.39,1.56,0.98,
2.753,-1.05,-2.74,6.10,2.51,1.51,1.04,
2.756,-3.15,-2.19,5.71,2.51,1.51,1.04,
2.756,-3.15,-2.19,5.71,2.62,1.46,1.10,
2.777,-3.15,-2.19,5.71,2.74,1.42,1.16,
2.777,-3.15,-2.19,5.71,2.86,1.38,1.23,
2.777,-3.15,-2.19,5.71,2.97,1.34,1.30,
2.778,-3.15,-2.19,5.71,3.09,1.31,1.37,
2.778,-4.70,-2.12,5.09,3.09,1.31,1.37,
2.778,-4.70,-2.12,5.09,3.20,1.28,1.45,
2.778,-4.70,-2.12,5.09,3.32,1.24,1.52,
2.778,-4.70,-2.12,5.09,3.43,1.20,1.59,
2.778,-4.70,-2.12,5.09,3.53,1.16,1.67,
2.789,-4.70,-2.12,5.09,3.64,1.11,1.74,
2.789,-5.26,-2.53,4.48,3.64,1.11,1.74,
2.79,-5.26,-2.53,4.48,3.74,1.05,1.80,
2.79,-5.26,-2.53,4.48,3.83,0.99,1.86,
2.79,-5.26,-2.53,4.48,3.91,0.92,1.91,
2.79,-5.26,-2.53,4.48,3.99,0.84,1.95,
2.79,-5.26,-2.53,4.48,4.07,0.76,1.99,
2.79,-4.39,-3.29,3.27,4.07,0.76,1.99,
2.791,-4.39,-3.29,3.27,4.13,0.65,2.02,
2.791,-4.39,-3.29,3.27,4.19,0.55,2.04,
2.791,-4.39,-3.29,3.27,4.24,0.44,2.05,
2.791,-4.39,-3.29,3.27,4.27,0.32,2.06,
2.794,-4.39,-3.29,3.27,4.30,0.20,2.05,
2.795,-2.99,-4.03,1.65,4.30,0.20,2.05,
2.796,-2.99,-4.03,1.65,4.33,0.08,2.04,
2.797,-2.99,-4.03,1.65,4.34,-0.04,2.02,
2.799,-2.99,-4.03,1.65,4.34,-0.15,1.99,
2.801,-2.99,-4.03,1.65,4.34,-0.26,1.95,
2.803,-2.99,-4.03,1.65,4.31,-0.36,1.90,
2.805,-1.27,-4.41,-0.34,4.31,-0.36,1.90,
2.805,-1.27,-4.41,-0.34,4.28,-0.43,1.85,
2.808,-1.27,-4.41,-0.34,4.22,-0.49,1.78,
2.809,-1.27,-4.41,-0.34,4.15,-0.53,1.71,
2.811,-1.27,-4.41,-0.34,4.06,-0.56,1.63,
2.813,-1.27,-4.41,-0.34,3.96,-0.59,1.57,
2.815,0.06,-4.25,-3.67,3.96,-0.59,1.57,
2.815,0.06,-4.25,-3.67,3.85,-0.64,1.50,
2.817,0.06,-4.25,-3.67,3.73,-0.70,1.43,
2.819,0.06,-4.25,-3.67,3.60,-0.77,1.36,
2.821,0.06,-4.25,-3.67,3.46,-0.87,1.29,
2.823,0.06,-4.25,-3.67,3.33,-0.97,1.23,
2.826,0.95,-3.73,-6.04,3.33,-0.97,1.23,
2.827,0.95,-3.73,-6.04,3.19,-1.09,1.16,
2.827,0.95,-3.73,-6.04,3.05,-1.21,1.09,
2.829,0.95,-3.73,-6.04,2.92,-1.34,1.03,
2.831,0.95,-3.73,-6.04,2.79,-1.47,0.97,
2.833,0.95,-3.73,-6.04,2.66,-1.60,0.92,
2.835,1.74,-3.08,-7.38,2.66,-1.60,0.92,
2.835,1.74,-3.08,-7.38,2.54,-1.73,0.87,
2.837,1.74,-3.08,-7.38,2.41,-1.86,0.82,
2.839,1.74,-3.08,-7.38,2.30,-1.99,0.78,
2.841,1.74,-3.08,-7.38,2.18,-2.12,0.73,
2.843,1.74,-3.08,-7.38,2.07,-2.25,0.69,
2.845,2.03,-2.52,-7.77,2.07,-2.25,0.69,
2.845,2.03,-2.52,-7.77,1.96,-2.37,0.64,
2.847,2.03,-2.52,-7.77,1.85,-2.49,0.58,
2.849,2.03,-2.52,-7.77,1.75,-2.61,0.53,
2.851,2.03,-2.52,-7.77,1.64,-2.71,0.46,
2.853,2.03,-2.52,-7.77,1.54,-2.82,0.39,
2.855,3.01,-2.44,-8.12,1.54,-2.82,0.39,
2.856,3.01,-2.44,-8.12,1.44,-2.91,0.32,
2.864,3.01,-2.44,-8.12,1.33,-3.01,0.23,
2.864,3.01,-2.44,-8.12,1.23,-3.09,0.14,
2.864,3.01,-2.44,-8.12,1.12,-3.17,0.04,
2.864,3.01,-2.44,-8.12,1.03,-3.23,-0.06,
2.865,4.55,-2.63,-7.93,1.03,-3.23,-0.06,
2.866,4.55,-2.63,-7.93,0.94,-3.30,-0.18,
2.867,4.55,-2.63,-7.93,0.89,-3.36,-0.31,
2.869,4.55,-2.63,-7.93,0.88,-3.44,-0.45,
2.871,4.55,-2.63,-7.93,0.90,-3.54,-0.60,
2.889,4.55,-2.63,-7.93,0.96,-3.66,-0.76,
2.889,7.27,-3.58,-2.48,0.96,-3.66,-0.76,
2.889,7.27,-3.58,-2.48,1.05,-3.79,-0.93,
2.889,7.27,-3.58,-2.48,1.18,-3.94,-1.11,
2.889,7.27,-3.58,-2.48,1.33,-4.09,-1.28,
2.89,7.27,-3.58,-2.48,1.51,-4.23,-1.46,
2.89,7.27,-3.58,-2.48,1.70,-4.36,-1.62,
2.89,8.46,-5.08,4.27,1.70,-4.36,-1.62,
2.89,8.46,-5.08,4.27,1.89,-4.48,-1.78,
2.89,8.46,-5.08,4.27,2.08,-4.57,-1.94,
2.89,8.46,-5.08,4.27,2.28,-4.65,-2.08,
2.896,8.46,-5.08,4.27,2.56,-4.70,-2.26,
2.897,8.46,-5.08,4.27,2.65,-4.69,-2.32,
2.901,6.90,-6.91,6.19,2.65,-4.69,-2.32,
2.901,6.90,-6.91,6.19,2.81,-4.64,-2.42,
2.902,6.90,-6.91,6.19,2.95,-4.54,-2.50,
2.902,6.90,-6.91,6.19,3.07,-4.39,-2.58,
2.903,6.90,-6.91,6.19,3.19,-4.20,-2.63,
2.904,6.90,-6.91,6.19,3.28,-3.96,-2.67,
2.906,3.73,-8.42,3.75,3.28,-3.96,-2.67,
2.906,3.73,-8.42,3.75,3.36,-3.67,-2.70,
2.91,3.73,-8.42,3.75,3.42,-3.34,-2.70,
2.911,3.73,-8.42,3.75,3.48,-2.97,-2.69,
2.914,3.73,-8.42,3.75,3.53,-2.56,-2.66,
2.915,3.73,-8.42,3.75,3.56,-2.13,-2.61,
2.916,0.23,-9.62,1.10,3.56,-2.13,-2.61,
2.916,0.23,-9.62,1.10,3.58,-1.67,-2.54,
2.917,0.23,-9.62,1.10,3.60,-1.19,-2.45,
2.919,0.23,-9.62,1.10,3.60,-0.70,-2.35,
2.921,0.23,-9.62,1.10,3.59,-0.21,-2.23,
2.924,0.23,-9.62,1.10,3.57,0.28,-2.10,
2.926,-2.90,-10.18,-1.53,3.57,0.28,-2.10,
2.927,-2.90,-10.18,-1.53,3.54,0.75,-1.96,
2.927,-2.90,-10.18,-1.53,3.51,1.18,-1.81,
2.929,-2.90,-10.18,-1.53,3.47,1.57,-1.65,
2.931,-2.90,-10.18,-1.53,3.44,1.89,-1.50,
2.933,-2.90,-10.18,-1.53,3.40,2.15,-1.36,
2.935,-5.03,-9.64,-3.60,3.40,2.15,-1.36,
2.936,-5.03,-9.64,-3.60,3.36,2.34,-1.22,
2.937,-5.03,-9.64,-3.60,3.32,2.46,-1.09,
2.962,-5.03,-9.64,-3.60,3.29,2.53,-0.97,
2.962,-5.03,-9.64,-3.60,3.26,2.54,-0.86,
2.963,-5.03,-9.64,-3.60,3.24,2.49,-0.77,
2.963,-4.86,-7.79,-3.66,3.24,2.49,-0.77,
2.964,-4.86,-7.79,-3.66,3.24,2.38,-0.69,
2.964,-4.86,-7.79,-3.66,3.24,2.22,-0.63,
2.964,-4.86,-7.79,-3.66,3.26,2.01,-0.58,
2.965,-4.86,-7.79,-3.66,3.28,1.76,-0.55,
2.965,-4.86,-7.79,-3.66,3.32,1.48,-0.54,
2.966,-3.01,-6.29,-2.58,3.32,1.48,-0.54,
2.966,-3.01,-6.29,-2.58,3.36,1.17,-0.54,
2.966,-3.01,-6.29,-2.58,3.40,0.84,-0.55,
2.967,-3.01,-6.29,-2.58,3.45,0.52,-0.58,
2.967,-3.01,-6.29,-2.58,3.49,0.20,-0.62,
2.968,-3.01,-6.29,-2.58,3.54,-0.10,-0.66,
2.968,-1.54,-4.99,-2.40,3.54,-0.10,-0.66,
2.969,-1.54,-4.99,-2.40,3.59,-0.37,-0.71,
2.969,-1.54,-4.99,-2.40,3.63,-0.63,-0.77,
2.978,-1.54,-4.99,-2.40,3.66,-0.86,-0.82,
2.979,-1.54,-4.99,-2.40,3.69,-1.06,-0.88,
2.979,-1.54,-4.99,-2.40,3.70,-1.22,-0.94,
2.979,-1.79,-3.76,-3.69,3.70,-1.22,-0.94,
2.98,-1.79,-3.76,-3.69,3.71,-1.34,-0.99,
2.98,-1.79,-3.76,-3.69,3.71,-1.41,-1.04,
2.98,-1.79,-3.76,-3.69,3.70,-1.42,-1.09,
2.982,-1.79,-3.76,-3.69,3.68,-1.39,-1.13,
2.983,-1.79,-3.76,-3.69,3.65,-1.31,-1.17,
2.986,-2.89,-2.27,-5.56,3.65,-1.31,-1.17,
2.986,-2.89,-2.27,-5.56,3.62,-1.19,-1.20,
2.988,-2.89,-2.27,-5.56,3.57,-1.04,-1.23,
2.99,-2.89,-2.27,-5.56,3.52,-0.88,-1.26,
2.991,-2.89,-2.27,-5.56,3.46,-0.70,-1.29,
2.993,-2.89,-2.27,-5.56,3.39,-0.53,-1.32,
2.995,-3.64,-1.24,-7.03,3.39,-0.53,-1.32,
2.995,-3.64,-1.24,-7.03,3.32,-0.36,-1.35,
2.997,-3.64,-1.24,-7.03,3.25,-0.18,-1.39,
2.999,-3.64,-1.24,-7.03,3.18,-0.00,-1.43,
3.001,-3.64,-1.24,-7.03,3.12,0.19,-1.47,
3.003,-3.64,-1.24,-7.03,3.07,0.38,-1.51,
3.006,-3.49,0.18,-6.60,3.07,0.38,-1.51,
3.006,-3.49,0.18,-6.60,3.03,0.57,-1.54,
3.017,-3.49,0.18,-6.60,3.00,0.76,-1.58,
3.017,-3.49,0.18,-6.60,2.98,0.95,-1.61,
3.018,-3.49,0.18,-6.60,2.96,1.12,-1.65,
3.018,-3.49,0.18,-6.60,2.95,1.28,-1.67,
3.018,-3.28,1.09,-5.66,2.95,1.28,-1.67,
3.018,-3.28,1.09,-5.66,2.94,1.42,-1.69,
3.019,-3.28,1.09,-5.66,2.92,1.53,-1.71,
3.02,-3.28,1.09,-5.66,2.91,1.63,-1.72,
3.052,-3.28,1.09,-5.66,2.89,1.71,-1.72,
3.052,-3.28,1.09,-5.66,2.88,1.78,-1.73,
3.052,-2.97,1.87,-5.22,2.88,1.78,-1.73,
3.053,-2.97,1.87,-5.22,2.86,1.83,-1.72,
3.053,-2.97,1.87,-5.22,2.84,1.88,-1.71,
3.053,-2.97,1.87,-5.22,2.83,1.92,-1.70,
3.053,-2.97,1.87,-5.22,2.81,1.96,-1.68,
3.054,-2.97,1.87,-5.22,2.80,2.02,-1.67,
3.054,-2.88,2.47,-5.61,2.80,2.02,-1.67,
3.054,-2.88,2.47,-5.61,2.79,2.08,-1.65,
3.055,-2.88,2.47,-5.61,2.79,2.14,-1.62,
3.055,-2.88,2.47,-5.61,2.80,2.19,-1.59,
3.055,-2.88,2.47,-5.61,2.80,2.24,-1.56,
3.055,-2.88,2.47,-5.61,2.79,2.28,-1.52,
3.055,-2.43,3.43,-5.65,2.79,2.28,-1.52,
3.056,-2.43,3.43,-5.65,2.78,2.30,-1.49,
3.056,-2.43,3.43,-5.65,2.76,2.31,-1.44,
3.056,-2.43,3.43,-5.65,2.73,2.30,-1.40,
3.056,-2.43,3.43,-5.65,2.70,2.28,-1.35,
3.057,-2.43,3.43,-5.65,2.65,2.26,-1.30,
3.057,-1.99,4.15,-6.11,2.65,2.26,-1.30,
3.062,-1.99,4.15,-6.11,2.59,2.23,-1.25,
3.062,-1.99,4.15,-6.11,2.53,2.20,-1.20,
3.062,-1.99,4.15,-6.11,2.46,2.17,-1.15,
3.063,-1.99,4.15,-6.11,2.38,2.13,-1.09,
3.063,-1.99,4.15,-6.11,2.30,2.10,-1.04,
3.065,-1.64,4.96,-6.53,2.30,2.10,-1.04,
3.066,-1.64,4.96,-6.53,2.22,2.07,-0.98,
3.067,-1.64,4.96,-6.53,2.14,2.05,-0.93,
3.069,-1.64,4.96,-6.53,2.05,2.04,-0.87,
3.072,-1.64,4.96,-6.53,1.97,2.04,-0.81,
3.076,-1.64,4.96,-6.53,1.89,2.04,-0.76,
3.077,-1.68,5.40,-6.47,1.89,2.04,-0.76,
3.077,-1.68,5.40,-6.47,1.81,2.04,-0.70,
3.078,-1.68,5.40,-6.47,1.73,2.05,-0.65,
3.079,-1.68,5.40,-6.47,1.65,2.06,-0.59,
3.082,-1.68,5.40,-6.47,1.57,2.07,-0.54,
3.084,-1.68,5.40,-6.47,1.49,2.08,-0.49,
3.086,-1.22,5.48,-5.96,1.49,2.08,-0.49,
3.086,-1.22,5.48,-5.96,1.41,2.09,-0.44,
3.087,-1.22,5.48,-5.96,1.34,2.10,-0.39,
3.092,-1.22,5.48,-5.96,1.26,2.10,-0.35,
3.093,-1.22,5.48,-5.96,1.19,2.11,-0.30,
3.094,-1.22,5.48,-5.96,1.12,2.12,-0.26,
3.099,-0.80,5.26,-5.35,1.12,2.12,-0.26,
3.1,-0.80,5.26,-5.35,1.05,2.14,-0.22,
3.103,-0.80,5.26,-5.35,0.98,2.16,-0.18,
3.104,-0.80,5.26,-5.35,0.90,2.19,-0.15,
3.104,-0.80,5.26,-5.35,0.83,2.23,-0.12,
3.105,-0.80,5.26,-5.35,0.76,2.27,-0.10,
3.105,-0.80,5.26,-5.35,0.68,2.33,-0.08,
3.128,0.27,4.99,-4.80,0.68,2.33,-0.08,
3.129,0.27,4.99,-4.80,0.61,2.38,-0.06,
3.129,0.27,4.99,-4.80,0.53,2.43,-0.04,
3.129,0.27,4.99,-4.80,0.46,2.47,-0.03,
3.13,0.27,4.99,-4.80,0.39,2.50,-0.01,
3.13,1.57,5.02,-3.95,0.39,2.50,-0.01,
3.13,1.57,5.02,-3.95,0.32,2.52,-0.00,
3.131,1.57,5.02,-3.95,0.26,2.52,0.00,
3.131,1.57,5.02,-3.95,0.21,2.50,0.00,
3.131,1.57,5.02,-3.95,0.16,2.45,-0.00,
3.131,1.57,5.02,-3.95,0.12,2.38,-0.01,
3.132,3.28,5.06,-3.00,0.12,2.38,-0.01,
3.132,3.28,5.06,-3.00,0.08,2.27,-0.02,
3.132,3.28,5.06,-3.00,0.04,2.14,-0.04,
3.132,3.28,5.06,-3.00,0.02,1.98,-0.07,
3.146,3.28,5.06,-3.00,-0.01,1.80,-0.10,
3.147,3.28,5.06,-3.00,-0.03,1.60,-0.13,
3.147,5.34,4.97,-2.77,-0.03,1.60,-0.13,
3.148,5.34,4.97,-2.77,-0.05,1.40,-0.17,
3.148,5.34,4.97,-2.77,-0.06,1.19,-0.20,
3.148,5.34,4.97,-2.77,-0.08,0.99,-0.24,
3.148,5.34,4.97,-2.77,-0.09,0.80,-0.29,
3.148,5.34,4.97,-2.77,-0.10,0.63,-0.33,
3.149,5.94,4.70,-3.95,-0.10,0.63,-0.33,
3.149,5.94,4.70,-3.95,-0.11,0.48,-0.38,
3.149,5.94,4.70,-3.95,-0.11,0.36,-0.44,
3.151,5.94,4.70,-3.95,-0.11,0.27,-0.49,
3.152,5.94,4.70,-3.95,-0.11,0.20,-0.54,
3.154,5.94,4.70,-3.95,-0.11,0.17,-0.59,
3.178,5.28,4.63,-5.39,-0.11,0.17,-0.59,
3.179,5.28,4.63,-5.39,-0.11,0.16,-0.63,
3.179,5.28,4.63,-5.39,-0.11,0.18,-0.67,
3.179,5.28,4.63,-5.39,-0.11,0.22,-0.70,
3.179,5.28,4.63,-5.39,-0.12,0.28,-0.73,
3.18,5.28,4.63,-5.39,-0.13,0.36,-0.75,
3.18,2.71,4.89,-6.56,-0.13,0.36,-0.75,
3.18,2.71,4.89,-6.56,-0.14,0.44,-0.77,
3.18,2.71,4.89,-6.56,-0.15,0.54,-0.79,
3.18,2.71,4.89,-6.56,-0.18,0.63,-0.80,
3.181,2.71,4.89,-6.56,-0.20,0.74,-0.80,
3.181,2.71,4.89,-6.56,-0.23,0.83,-0.81,
3.181,0.49,5.12,-6.98,-0.23,0.83,-0.81,
3.181,0.49,5.12,-6.98,-0.26,0.93,-0.81,
3.181,0.49,5.12,-6.98,-0.29,1.02,-0.80,
3.182,0.49,5.12,-6.98,-0.32,1.09,-0.79,
3.182,0.49,5.12,-6.98,-0.35,1.16,-0.78,
3.184,0.49,5.12,-6.98,-0.37,1.22,-0.76,
3.186,-1.14,5.38,-6.28,-0.37,1.22,-0.76,
3.186,-1.14,5.38,-6.28,-0.39,1.26,-0.74,
3.187,-1.14,5.38,-6.28,-0.40,1.29,-0.72,
3.19,-1.14,5.38,-6.28,-0.40,1.31,-0.70,
3.192,-1.14,5.38,-6.28,-0.40,1.33,-0.67,
3.194,-1.14,5.38,-6.28,-0.38,1.34,-0.65,
3.196,-2.99,5.66,-3.93,-0.38,1.34,-0.65,
3.196,-2.99,5.66,-3.93,-0.36,1.36,-0.62,
3.197,-2.99,5.66,-3.93,-0.33,1.38,-0.60,
3.199,-2.99,5.66,-3.93,-0.30,1.40,-0.57,
3.201,-2.99,5.66,-3.93,-0.26,1.42,-0.55,
3.203,-2.99,5.66,-3.93,-0.22,1.45,-0.52,
3.209,-4.16,5.64,-0.55,-0.22,1.45,-0.52,
3.21,-4.16,5.64,-0.55,-0.18,1.48,-0.49,
3.21,-4.16,5.64,-0.55,-0.14,1.50,-0.47,
3.21,-4.16,5.64,-0.55,-0.12,1.50,-0.44,
3.211,-4.16,5.64,-0.55,-0.12,1.49,-0.43,
3.213,-4.16,5.64,-0.55,-0.12,1.46,-0.42,
3.215,-4.36,4.51,1.08,-0.12,1.46,-0.42,
3.216,-4.36,4.51,1.08,-0.16,1.39,-0.41,
3.217,-4.36,4.51,1.08,-0.21,1.30,-0.42,
3.219,-4.36,4.51,1.08,-0.27,1.18,-0.44,
3.221,-4.36,4.51,1.08,-0.36,1.04,-0.46,
3.223,-4.36,4.51,1.08,-0.47,0.88,-0.49,
3.226,-3.11,3.01,-0.07,-0.47,0.88,-0.49,
3.226,-3.11,3.01,-0.07,-0.59,0.72,-0.53,
3.227,-3.11,3.01,-0.07,-0.72,0.56,-0.57,
3.229,-3.11,3.01,-0.07,-0.86,0.41,-0.60,
3.231,-3.11,3.01,-0.07,-1.01,0.27,-0.64,
3.233,-3.11,3.01,-0.07,-1.16,0.15,-0.67,
3.235,-2.65,2.70,-1.88,-1.16,0.15,-0.67,
3.236,-2.65,2.70,-1.88,-1.31,0.05,-0.71,
3.237,-2.65,2.70,-1.88,-1.47,-0.04,-0.74,
3.242,-2.65,2.70,-1.88,-1.63,-0.11,-0.77,
3.243,-2.65,2.70,-1.88,-1.86,-0.21,-0.80,
3.243,-2.65,2.70,-1.88,-1.94,-0.25,-0.81,
3.246,-2.05,2.87,-3.14,-1.94,-0.25,-0.81,
3.246,-2.05,2.87,-3.14,-2.09,-0.32,-0.82,
3.247,-2.05,2.87,-3.14,-2.23,-0.41,-0.84,
3.249,-2.05,2.87,-3.14,-2.36,-0.52,-0.85,
3.252,-2.05,2.87,-3.14,-2.48,-0.64,-0.86,
3.253,-2.05,2.87,-3.14,-2.59,-0.77,-0.86,
3.269,-1.00,2.96,-3.23,-2.59,-0.77,-0.86,
3.27,-1.00,2.96,-3.23,-2.69,-0.92,-0.87,
3.27,-1.00,2.96,-3.23,-2.78,-1.09,-0.88,
3.27,-1.00,2.96,-3.23,-2.87,-1.27,-0.89,
3.27,-1.00,2.96,-3.23,-2.93,-1.45,-0.91,
3.27,-1.00,2.96,-3.23,-2.97,-1.66,-0.92,
3.27,0.67,2.93,-1.63,-2.97,-1.66,-0.92,
3.271,0.67,2.93,-1.63,-3.00,-1.87,-0.94,
3.271,0.67,2.93,-1.63,-2.98,-2.10,-0.97,
3.271,0.67,2.93,-1.63,-2.92,-2.35,-1.01,
3.271,0.67,2.93,-1.63,-2.79,-2.61,-1.06,
3.283,0.67,2.93,-1.63,-2.61,-2.89,-1.12,
3.283,2.88,2.15,9.34,-2.61,-2.89,-1.12,
3.284,2.88,2.15,9.34,-2.34,-3.18,-1.19,
3.284,2.88,2.15,9.34,-2.01,-3.45,-1.27,
3.284,2.88,2.15,9.34,-1.66,-3.66,-1.34,
3.284,2.88,2.15,9.34,-1.31,-3.80,-1.41,
3.285,2.88,2.15,9.34,-1.00,-3.81,-1.46,
3.288,2.89,-1.18,22.10,-1.00,-3.81,-1.46,
3.288,2.89,-1.18,22.10,-0.76,-3.73,-1.50,
3.288,2.89,-1.18,22.10,-0.58,-3.57,-1.52,
3.289,2.89,-1.18,22.10,-0.46,-3.37,-1.52,
3.291,2.89,-1.18,22.10,-0.38,-3.16,-1.47,
3.293,2.89,-1.18,22.10,-0.36,-2.98,-1.38,
3.295,-0.24,-9.76,14.62,-0.36,-2.98,-1.38,
3.296,-0.24,-9.76,14.62,-0.41,-2.84,-1.24,
3.297,-0.24,-9.76,14.62,-0.54,-2.74,-1.05,
3.299,-0.24,-9.76,14.62,-0.77,-2.65,-0.83,
3.301,-0.24,-9.76,14.62,-1.09,-2.58,-0.59,
3.303,-0.24,-9.76,14.62,-1.47,-2.48,-0.34,
3.306,-4.87,-13.49,-7.95,-1.47,-2.48,-0.34,
3.307,-4.87,-13.49,-7.95,-1.88,-2.36,-0.07,
3.307,-4.87,-13.49,-7.95,-2.31,-2.21,0.20,
3.31,-4.87,-13.49,-7.95,-2.70,-2.02,0.48,
3.311,-4.87,-13.49,-7.95,-3.05,-1.79,0.75,
3.313,-4.87,-13.49,-7.95,-3.33,-1.55,1.00,
3.316,-6.68,-13.07,-17.34,-3.33,-1.55,1.00,
3.316,-6.68,-13.07,-17.34,-3.54,-1.33,1.24,
3.317,-6.68,-13.07,-17.34,-3.68,-1.15,1.42,
3.319,-6.68,-13.07,-17.34,-3.73,-1.03,1.56,
3.321,-6.68,-13.07,-17.34,-3.71,-0.98,1.64,
3.323,-6.68,-13.07,-17.34,-3.60,-1.00,1.66,
3.326,-2.12,-9.20,-5.82,-3.60,-1.00,1.66,
3.327,-2.12,-9.20,-5.82,-3.40,-1.07,1.63,
3.327,-2.12,-9.20,-5.82,-3.12,-1.19,1.56,
3.329,-2.12,-9.20,-5.82,-2.79,-1.35,1.44,
3.331,-2.12,-9.20,-5.82,-2.40,-1.50,1.30,
3.333,-2.12,-9.20,-5.82,-2.01,-1.63,1.14,
3.335,2.97,-5.43,8.55,-2.01,-1.63,1.14,
3.336,2.97,-5.43,8.55,-1.64,-1.70,0.99,
3.337,2.97,-5.43,8.55,-1.31,-1.69,0.83,
3.339,2.97,-5.43,8.55,-1.03,-1.60,0.68,
3.344,2.97,-5.43,8.55,-0.82,-1.45,0.54,
3.344,2.97,-5.43,8.55,-0.67,-1.25,0.39,
3.345,2.88,-1.83,5.80,-0.67,-1.25,0.39,
3.346,2.88,-1.83,5.80,-0.59,-1.03,0.26,
3.347,2.88,-1.83,5.80,-0.55,-0.78,0.13,
3.349,2.88,-1.83,5.80,-0.57,-0.52,0.02,
3.351,2.88,-1.83,5.80,-0.62,-0.27,-0.09,
3.353,2.88,-1.83,5.80,-0.70,-0.02,-0.19,
3.356,1.58,1.52,-1.88,-0.70,-0.02,-0.19,
3.357,1.58,1.52,-1.88,-0.80,0.22,-0.28,
3.359,1.58,1.52,-1.88,-0.92,0.45,-0.36,
3.36,1.58,1.52,-1.88,-1.05,0.66,-0.42,
3.362,1.58,1.52,-1.88,-1.19,0.85,-0.49,
3.363,1.58,1.52,-1.88,-1.34,1.02,-0.55,
3.366,0.58,3.95,-5.37,-1.34,1.02,-0.55,
3.367,0.58,3.95,-5.37,-1.49,1.16,-0.60,
3.367,0.58,3.95,-5.37,-1.64,1.28,-0.65,
3.37,0.58,3.95,-5.37,-1.78,1.38,-0.69,
3.381,0.58,3.95,-5.37,-1.90,1.45,-0.73,
3.381,0.58,3.95,-5.37,-2.02,1.49,-0.75,
3.381,0.35,4.66,-5.69,-2.02,1.49,-0.75,
3.382,0.35,4.66,-5.69,-2.12,1.50,-0.77,
3.382,0.35,4.66,-5.69,-2.20,1.47,-0.77,
3.384,0.35,4.66,-5.69,-2.25,1.41,-0.75,
3.386,0.35,4.66,-5.69,-2.27,1.31,-0.72,
3.386,0.35,4.66,-5.69,-2.26,1.17,-0.67,
3.387,-0.63,4.38,-1.76,-2.26,1.17,-0.67,
3.387,-0.63,4.38,-1.76,-2.23,1.00,-0.60,
3.387,-0.63,4.38,-1.76,-2.17,0.80,-0.52,
3.42,-0.63,4.38,-1.76,-2.10,0.59,-0.42,
3.42,-0.63,4.38,-1.76,-2.01,0.37,-0.31,
3.421,-0.63,4.38,-1.76,-1.93,0.15,-0.19,
3.421,-2.44,3.85,2.08,-1.93,0.15,-0.19,
3.421,-2.44,3.85,2.08,-1.83,-0.06,-0.06,
3.421,-2.44,3.85,2.08,-1.75,-0.25,0.08,
3.421,-2.44,3.85,2.08,-1.67,-0.42,0.22,
3.421,-2.44,3.85,2.08,-1.60,-0.57,0.36,
3.422,-2.44,3.85,2.08,-1.54,-0.70,0.48,
3.422,-2.94,2.44,1.45,-1.54,-0.70,0.48,
3.422,-2.94,2.44,1.45,-1.49,-0.81,0.60,
3.422,-2.94,2.44,1.45,-1.45,-0.90,0.69,
3.422,-2.94,2.44,1.45,-1.42,-0.96,0.78,
3.423,-2.94,2.44,1.45,-1.40,-1.02,0.85,
3.423,-2.94,2.44,1.45,-1.40,-1.05,0.91,
3.423,-1.79,0.90,-0.93,-1.40,-1.05,0.91,
3.423,-1.79,0.90,-0.93,-1.40,-1.08,0.96,
3.423,-1.79,0.90,-0.93,-1.41,-1.09,1.00,
3.424,-1.79,0.90,-0.93,-1.43,-1.10,1.03,
3.424,-1.79,0.90,-0.93,-1.45,-1.10,1.04,
3.424,-1.79,0.90,-0.93,-1.48,-1.10,1.05,
3.429,-0.51,-0.39,-2.63,-1.48,-1.10,1.05,
3.43,-0.51,-0.39,-2.63,-1.51,-1.10,1.06,
3.43,-0.51,-0.39,-2.63,-1.54,-1.10,1.05,
3.431,-0.51,-0.39,-2.63,-1.58,-1.10,1.05,
3.432,-0.51,-0.39,-2.63,-1.61,-1.10,1.03,
3.433,-0.51,-0.39,-2.63,-1.63,-1.09,1.01,
3.44,0.20,-1.65,-3.22,-1.63,-1.09,1.01,
3.442,0.20,-1.65,-3.22,-1.66,-1.09,1.00,
3.442,0.20,-1.65,-3.22,-1.69,-1.09,0.98,
3.464,0.20,-1.65,-3.22,-1.73,-1.10,0.94,
3.464,0.20,-1.65,-3.22,-1.75,-1.11,0.91,
3.464,0.20,-1.65,-3.22,-1.76,-1.11,0.90,
3.464,0.49,-2.88,-2.88,-1.76,-1.11,0.90,
3.465,0.49,-2.88,-2.88,-1.77,-1.12,0.86,
3.465,0.49,-2.88,-2.88,-1.79,-1.13,0.83,
3.465,0.49,-2.88,-2.88,-1.80,-1.14,0.80,
3.466,0.49,-2.88,-2.88,-1.80,-1.16,0.76,
3.466,0.49,-2.88,-2.88,-1.81,-1.18,0.73,
3.466,0.73,-3.97,-2.00,-1.81,-1.18,0.73,
3.466,0.73,-3.97,-2.00,-1.80,-1.20,0.69,
3.467,0.73,-3.97,-2.00,-1.80,-1.22,0.66,
3.467,0.73,-3.97,-2.00,-1.79,-1.23,0.63,
3.467,0.73,-3.97,-2.00,-1.78,-1.25,0.59,
3.467,0.73,-3.97,-2.00,-1.77,-1.27,0.56,
3.468,0.75,-4.44,-1.07,-1.77,-1.27,0.56,
3.468,0.75,-4.44,-1.07,-1.76,-1.28,0.53,
3.468,0.75,-4.44,-1.07,-1.75,-1.28,0.50,
3.474,0.75,-4.44,-1.07,-1.74,-1.29,0.47,
3.475,0.75,-4.44,-1.07,-1.73,-1.29,0.44,
3.475,0.75,-4.44,-1.07,-1.72,-1.29,0.42,
3.476,0.71,-4.38,-0.79,-1.72,-1.29,0.42,
3.476,0.71,-4.38,-0.79,-1.72,-1.29,0.39,
3.478,0.71,-4.38,-0.79,-1.71,-1.28,0.37,
3.479,0.71,-4.38,-0.79,-1.71,-1.27,0.35,
3.481,0.71,-4.38,-0.79,-1.71,-1.26,0.33,
3.483,0.71,-4.38,-0.79,-1.71,-1.24,0.32,
3.486,0.50,-3.77,-0.79,-1.71,-1.24,0.32,
3.486,0.50,-3.77,-0.79,-1.70,-1.22,0.31,
3.487,0.50,-3.77,-0.79,-1.71,-1.19,0.30,
3.489,0.50,-3.77,-0.79,-1.71,-1.17,0.30,
3.492,0.50,-3.77,-0.79,-1.72,-1.14,0.30,
3.494,0.50,-3.77,-0.79,-1.72,-1.11,0.30,
3.495,0.24,-3.06,-0.78,-1.72,-1.11,0.30,
3.496,0.24,-3.06,-0.78,-1.72,-1.08,0.30,
3.497,0.24,-3.06,-0.78,-1.71,-1.06,0.30,
3.499,0.24,-3.06,-0.78,-1.71,-1.03,0.31,
3.501,0.24,-3.06,-0.78,-1.70,-1.00,0.31,
3.503,0.24,-3.06,-0.78,-1.69,-0.98,0.32,
3.512,0.17,-2.35,-0.30,-1.69,-0.98,0.32,
3.513,0.17,-2.35,-0.30,-1.67,-0.95,0.32,
3.513,0.17,-2.35,-0.30,-1.66,-0.92,0.32,
3.513,0.17,-2.35,-0.30,-1.64,-0.90,0.33,
3.514,0.17,-2.35,-0.30,-1.63,-0.87,0.33,
3.514,0.17,-2.35,-0.30,-1.60,-0.85,0.34,
3.516,0.09,-1.72,0.13,-1.60,-0.85,0.34,
3.516,0.09,-1.72,0.13,-1.58,-0.82,0.35,
3.518,0.09,-1.72,0.13,-1.56,-0.79,0.35,
3.52,0.09,-1.72,0.13,-1.54,-0.75,0.36,
3.546,0.09,-1.72,0.13,-1.52,-0.72,0.38,
3.546,0.09,-1.72,0.13,-1.49,-0.68,0.39,
3.546,-0.25,-1.21,0.27,-1.49,-0.68,0.39,
3.547,-0.25,-1.21,0.27,-1.47,-0.64,0.40,
3.547,-0.25,-1.21,0.27,-1.45,-0.61,0.42,
3.547,-0.25,-1.21,0.27,-1.44,-0.57,0.44,
3.547,-0.25,-1.21,0.27,-1.42,-0.53,0.45,
3.547,-0.25,-1.21,0.27,-1.41,-0.50,0.47,
3.547,-0.60,-0.79,0.01,-1.41,-0.50,0.47,
3.547,-0.60,-0.79,0.01,-1.39,-0.46,0.49,
3.547,-0.60,-0.79,0.01,-1.38,-0.43,0.52,
3.548,-0.60,-0.79,0.01,-1.37,-0.40,0.54,
3.548,-0.60,-0.79,0.01,-1.36,-0.37,0.56,
3.548,-0.60,-0.79,0.01,-1.36,-0.35,0.58,
3.548,-0.75,-0.39,-0.21,-1.36,-0.35,0.58,
3.548,-0.75,-0.39,-0.21,-1.35,-0.33,0.60,
3.548,-0.75,-0.39,-0.21,-1.35,-0.31,0.62,
3.549,-0.75,-0.39,-0.21,-1.34,-0.29,0.64,
3.551,-0.75,-0.39,-0.21,-1.34,-0.27,0.66,
3.553,-0.75,-0.39,-0.21,-1.34,-0.26,0.68,
3.556,-0.71,-0.14,-0.43,-1.34,-0.26,0.68,
3.556,-0.71,-0.14,-0.43,-1.34,-0.24,0.70,
3.557,-0.71,-0.14,-0.43,-1.34,-0.23,0.71,
3.56,-0.71,-0.14,-0.43,-1.34,-0.22,0.73,
3.562,-0.71,-0.14,-0.43,-1.34,-0.21,0.74,
3.563,-0.71,-0.14,-0.43,-1.34,-0.20,0.75,
3.565,-0.50,0.03,-0.52,-1.34,-0.20,0.75,
3.565,-0.50,0.03,-0.52,-1.34,-0.19,0.76,
3.567,-0.50,0.03,-0.52,-1.34,-0.19,0.77,
3.569,-0.50,0.03,-0.52,-1.34,-0.19,0.78,
3.571,-0.50,0.03,-0.52,-1.33,-0.19,0.79,
3.573,-0.50,0.03,-0.52,-1.33,-0.18,0.80,
3.576,-0.29,0.11,-0.37,-1.33,-0.18,0.80,
3.576,-0.29,0.11,-0.37,-1.32,-0.18,0.80,
3.577,-0.29,0.11,-0.37,-1.31,-0.18,0.81,
3.579,-0.29,0.11,-0.37,-1.30,-0.17,0.81,
3.581,-0.29,0.11,-0.37,-1.29,-0.16,0.81,
3.583,-0.29,0.11,-0.37,-1.28,-0.16,0.81,
3.585,-0.05,0.03,-0.04,-1.28,-0.16,0.81,
3.585,-0.05,0.03,-0.04,-1.26,-0.14,0.81,
3.588,-0.05,0.03,-0.04,-1.25,-0.13,0.81,
3.589,-0.05,0.03,-0.04,-1.23,-0.12,0.81,
3.592,-0.05,0.03,-0.04,-1.21,-0.11,0.81,
3.593,-0.05,0.03,-0.04,-1.21,-0.11,0.81,
3.596,0.19,-0.11,0.21,-1.21,-0.11,0.81,
3.596,0.19,-0.11,0.21,-1.19,-0.10,0.80,
3.597,0.19,-0.11,0.21,-1.18,-0.10,0.79,
3.599,0.19,-0.11,0.21,-1.18,-0.09,0.79,
3.601,0.19,-0.11,0.21,-1.18,-0.09,0.78,
3.609,0.19,-0.11,0.21,-1.19,-0.11,0.76,
3.61,0.19,-0.11,0.21,-1.19,-0.11,0.76,
3.623,0.19,-0.11,0.21,-1.19,-0.11,0.76,
3.623,0.84,-0.43,0.16,-1.19,-0.11,0.76,
3.623,0.84,-0.43,0.16,-1.22,-0.14,0.72,
3.623,0.84,-0.43,0.16,-1.24,-0.15,0.70,
3.623,0.84,-0.43,0.16,-1.24,-0.15,0.70,
3.624,1.25,-0.56,0.10,-1.24,-0.15,0.70,
3.624,1.25,-0.56,0.10,-1.25,-0.15,0.69,
3.624,1.25,-0.56,0.10,-1.28,-0.16,0.66,
3.624,1.25,-0.56,0.10,-1.30,-0.16,0.64,
3.624,1.25,-0.56,0.10,-1.31,-0.16,0.61,
3.624,1.25,-0.56,0.10,-1.33,-0.15,0.59,
3.627,1.80,-0.63,0.29,-1.33,-0.15,0.59,
3.628,1.80,-0.63,0.29,-1.34,-0.14,0.56,
3.628,1.80,-0.63,0.29,-1.35,-0.12,0.53,
3.629,1.80,-0.63,0.29,-1.35,-0.09,0.50,
3.631,1.80,-0.63,0.29,-1.35,-0.06,0.48,
3.633,1.80,-0.63,0.29,-1.35,-0.03,0.45,
3.636,2.36,-0.62,0.93,-1.35,-0.03,0.45,
3.636,2.36,-0.62,0.93,-1.34,0.01,0.42,
3.638,2.36,-0.62,0.93,-1.33,0.05,0.39,
3.64,2.36,-0.62,0.93,-1.31,0.09,0.36,
3.641,2.36,-0.62,0.93,-1.29,0.14,0.33,
3.643,2.36,-0.62,0.93,-1.27,0.18,0.30,
3.645,2.89,-0.57,1.73,-1.27,0.18,0.30,
3.646,2.89,-0.57,1.73,-1.25,0.22,0.27,
3.647,2.89,-0.57,1.73,-1.23,0.27,0.23,
3.649,2.89,-0.57,1.73,-1.20,0.32,0.19,
3.651,2.89,-0.57,1.73,-1.18,0.36,0.16,
3.653,2.89,-0.57,1.73,-1.15,0.40,0.12,
3.662,3.55,-0.33,2.45,-1.15,0.40,0.12,
3.662,3.55,-0.33,2.45,-1.13,0.44,0.09,
3.663,3.55,-0.33,2.45,-1.11,0.48,0.05,
3.663,3.55,-0.33,2.45,-1.08,0.52,0.02,
3.663,3.55,-0.33,2.45,-1.06,0.56,-0.01,
3.663,3.55,-0.33,2.45,-1.04,0.60,-0.04,
3.665,3.52,0.21,3.00,-1.04,0.60,-0.04,
3.666,3.52,0.21,3.00,-1.01,0.63,-0.07,
3.667,3.52,0.21,3.00,-0.98,0.67,-0.09,
3.67,3.52,0.21,3.00,-0.94,0.70,-0.11,
3.693,3.52,0.21,3.00,-0.91,0.74,-0.12,
3.694,3.52,0.21,3.00,-0.87,0.78,-0.13,
3.694,3.16,0.91,3.91,-0.87,0.78,-0.13,
3.694,3.16,0.91,3.91,-0.83,0.81,-0.14,
3.694,3.16,0.91,3.91,-0.79,0.85,-0.15,
3.694,3.16,0.91,3.91,-0.75,0.89,-0.15,
3.695,3.16,0.91,3.91,-0.71,0.93,-0.15,
3.695,3.16,0.91,3.91,-0.68,0.97,-0.15,
3.695,2.60,1.55,4.17,-0.68,0.97,-0.15,
3.695,2.60,1.55,4.17,-0.65,1.01,-0.15,
3.696,2.60,1.55,4.17,-0.62,1.05,-0.14,
3.696,2.60,1.55,4.17,-0.60,1.09,-0.14,
3.696,2.60,1.55,4.17,-0.58,1.12,-0.13,
3.696,2.60,1.55,4.17,-0.56,1.16,-0.12,
3.697,2.32,2.21,4.22,-0.56,1.16,-0.12,
3.697,2.32,2.21,4.22,-0.55,1.18,-0.11,
3.697,2.32,2.21,4.22,-0.54,1.20,-0.11,
3.699,2.32,2.21,4.22,-0.53,1.22,-0.10,
3.701,2.32,2.21,4.22,-0.53,1.22,-0.09,
3.703,2.32,2.21,4.22,-0.53,1.21,-0.08,
3.706,2.02,2.73,3.93,-0.53,1.21,-0.08,
3.706,2.02,2.73,3.93,-0.54,1.20,-0.07,
3.707,2.02,2.73,3.93,-0.55,1.18,-0.06,
3.709,2.02,2.73,3.93,-0.56,1.15,-0.05,
3.711,2.02,2.73,3.93,-0.58,1.11,-0.03,
3.713,2.02,2.73,3.93,-0.60,1.06,-0.02,
3.716,1.63,2.90,3.91,-0.60,1.06,-0.02,
3.716,1.63,2.90,3.91,-0.62,1.01,-0.01,
3.718,1.63,2.90,3.91,-0.64,0.94,0.01,
3.719,1.63,2.90,3.91,-0.67,0.87,0.02,
3.723,1.63,2.90,3.91,-0.70,0.79,0.03,
3.724,1.63,2.90,3.91,-0.73,0.71,0.05,
3.727,1.23,2.67,3.71,-0.73,0.71,0.05,
3.727,1.23,2.67,3.71,-0.76,0.63,0.06,
3.728,1.23,2.67,3.71,-0.79,0.55,0.07,
3.729,1.23,2.67,3.71,-0.81,0.48,0.08,
3.731,1.23,2.67,3.71,-0.83,0.41,0.08,
3.733,1.23,2.67,3.71,-0.86,0.35,0.08,
3.736,1.30,2.18,3.87,-0.86,0.35,0.08,
3.737,1.30,2.18,3.87,-0.88,0.29,0.08,
3.74,1.30,2.18,3.87,-0.89,0.23,0.08,
3.74,1.30,2.18,3.87,-0.91,0.16,0.08,
3.742,1.30,2.18,3.87,-0.92,0.13,0.07,
3.744,1.30,2.18,3.87,-0.94,0.09,0.07,
3.746,1.42,1.67,3.37,-0.94,0.09,0.07,
3.747,1.42,1.67,3.37,-0.95,0.04,0.06,
3.748,1.42,1.67,3.37,-0.97,-0.00,0.05,
3.749,1.42,1.67,3.37,-0.98,-0.05,0.04,
3.751,1.42,1.67,3.37,-0.99,-0.10,0.04,
3.754,1.42,1.67,3.37,-1.01,-0.14,0.02,
3.756,1.56,1.19,2.61,-1.01,-0.14,0.02,
3.756,1.56,1.19,2.61,-1.03,-0.19,0.01,
3.757,1.56,1.19,2.61,-1.04,-0.23,-0.00,
3.76,1.56,1.19,2.61,-1.06,-0.28,-0.02,
3.762,1.56,1.19,2.61,-1.07,-0.32,-0.04,
3.764,1.56,1.19,2.61,-1.09,-0.35,-0.06,
3.766,1.81,0.66,1.76,-1.09,-0.35,-0.06,
3.766,1.81,0.66,1.76,-1.10,-0.39,-0.08,
3.767,1.81,0.66,1.76,-1.12,-0.43,-0.10,
3.769,1.81,0.66,1.76,-1.13,-0.46,-0.12,
3.782,1.81,0.66,1.76,-1.14,-0.48,-0.15,
3.803,1.81,0.66,1.76,-1.16,-0.51,-0.17,
3.804,2.03,0.22,1.28,-1.16,-0.51,-0.17,
3.804,2.03,0.22,1.28,-1.17,-0.53,-0.19,
3.804,2.03,0.22,1.28,-1.18,-0.54,-0.21,
3.805,2.03,0.22,1.28,-1.19,-0.56,-0.23,
3.805,2.03,0.22,1.28,-1.20,-0.56,-0.26,
3.805,2.03,0.22,1.28,-1.21,-0.56,-0.27,
3.805,1.94,-0.10,1.09,-1.21,-0.56,-0.27,
3.806,1.94,-0.10,1.09,-1.22,-0.56,-0.29,
3.806,1.94,-0.10,1.09,-1.22,-0.55,-0.31,
3.806,1.94,-0.10,1.09,-1.24,-0.53,-0.33,
3.806,1.94,-0.10,1.09,-1.25,-0.52,-0.34,
3.807,1.94,-0.10,1.09,-1.26,-0.50,-0.35,
3.807,1.76,-0.53,1.08,-1.26,-0.50,-0.35,
3.807,1.76,-0.53,1.08,-1.26,-0.48,-0.36,
3.807,1.76,-0.53,1.08,-1.27,-0.45,-0.36,
3.808,1.76,-0.53,1.08,-1.28,-0.42,-0.36,
3.808,1.76,-0.53,1.08,-1.29,-0.38,-0.36,
3.808,1.76,-0.53,1.08,-1.30,-0.35,-0.36,
3.808,1.40,-1.07,1.11,-1.30,-0.35,-0.36,
3.809,1.40,-1.07,1.11,-1.30,-0.32,-0.35,
3.813,1.40,-1.07,1.11,-1.30,-0.28,-0.35,
3.813,1.40,-1.07,1.11,-1.30,-0.25,-0.34,
3.814,1.40,-1.07,1.11,-1.30,-0.21,-0.33,
3.818,1.40,-1.07,1.11,-1.30,-0.18,-0.32,
3.818,1.25,-1.76,1.38,-1.30,-0.18,-0.32,
3.818,1.25,-1.76,1.38,-1.29,-0.15,-0.30,
3.819,1.25,-1.76,1.38,-1.28,-0.12,-0.29,
3.819,1.25,-1.76,1.38,-1.27,-0.09,-0.28,
3.825,1.25,-1.76,1.38,-1.25,-0.06,-0.26,
3.826,1.25,-1.76,1.38,-1.23,-0.03,-0.24,
3.826,1.10,-2.65,1.64,-1.23,-0.03,-0.24,
3.826,1.10,-2.65,1.64,-1.21,0.00,-0.22,
3.827,1.10,-2.65,1.64,-1.19,0.03,-0.21,
3.829,1.10,-2.65,1.64,-1.17,0.05,-0.19,
3.831,1.10,-2.65,1.64,-1.14,0.08,-0.17,
3.833,1.10,-2.65,1.64,-1.11,0.10,-0.15,
3.836,1.02,-3.61,1.96,-1.11,0.10,-0.15,
3.836,1.02,-3.61,1.96,-1.09,0.12,-0.13,
3.839,1.02,-3.61,1.96,-1.06,0.14,-0.11,
3.84,1.02,-3.61,1.96,-1.03,0.16,-0.10,
3.842,1.02,-3.61,1.96,-0.99,0.18,-0.08,
3.844,1.02,-3.61,1.96,-0.97,0.19,-0.07,
3.846,1.01,-4.44,2.04,-0.97,0.19,-0.07,
3.846,1.01,-4.44,2.04,-0.93,0.19,-0.06,
3.847,1.01,-4.44,2.04,-0.90,0.20,-0.05,
3.853,1.01,-4.44,2.04,-0.88,0.19,-0.04,
3.853,1.01,-4.44,2.04,-0.86,0.19,-0.04,
3.855,1.01,-4.44,2.04,-0.84,0.18,-0.04,
3.86,1.16,-4.90,1.98,-0.84,0.18,-0.04,
3.861,1.16,-4.90,1.98,-0.82,0.17,-0.05,
3.861,1.16,-4.90,1.98,-0.81,0.15,-0.06,
3.862,1.16,-4.90,1.98,-0.80,0.12,-0.07,
3.862,1.16,-4.90,1.98,-0.80,0.10,-0.09,
3.863,1.16,-4.90,1.98,-0.80,0.07,-0.12,
3.868,1.03,-5.04,1.95,-0.80,0.07,-0.12,
3.869,1.03,-5.04,1.95,-0.80,0.04,-0.14,
3.869,1.03,-5.04,1.95,-0.82,0.01,-0.17,
3.869,1.03,-5.04,1.95,-0.84,-0.02,-0.21,
3.872,1.03,-5.04,1.95,-0.88,-0.04,-0.25,
3.874,1.03,-5.04,1.95,-0.92,-0.06,-0.28,
3.876,0.53,-5.05,1.98,-0.92,-0.06,-0.28,
3.876,0.53,-5.05,1.98,-0.97,-0.08,-0.32,
3.877,0.53,-5.05,1.98,-1.04,-0.10,-0.36,
3.879,0.53,-5.05,1.98,-1.15,-0.12,-0.41,
3.881,0.53,-5.05,1.98,-1.19,-0.12,-0.42,
3.883,0.53,-5.05,1.98,-1.33,-0.12,-0.46,
3.886,-0.65,-5.47,1.88,-1.33,-0.12,-0.46,
3.886,-0.65,-5.47,1.88,-1.37,-0.12,-0.47,
3.89,-0.65,-5.47,1.88,-1.46,-0.10,-0.48,
3.89,-0.65,-5.47,1.88,-1.58,-0.07,-0.49,
3.891,-0.65,-5.47,1.88,-1.61,-0.06,-0.48,
3.893,-0.65,-5.47,1.88,-1.66,-0.02,-0.47,
3.895,-2.33,-6.39,2.89,-1.66,-0.02,-0.47,
3.895,-2.33,-6.39,2.89,-1.68,0.01,-0.45,
3.897,-2.33,-6.39,2.89,-1.68,0.06,-0.41,
3.899,-2.33,-6.39,2.89,-1.62,0.12,-0.35,
3.901,-2.33,-6.39,2.89,-1.58,0.14,-0.32,
3.911,-2.33,-6.39,2.89,-1.47,0.19,-0.25,
3.912,-4.07,-7.00,6.11,-1.47,0.19,-0.25,
3.913,-4.07,-7.00,6.11,-1.34,0.22,-0.18,
3.913,-4.07,-7.00,6.11,-1.16,0.25,-0.10,
3.914,-4.07,-7.00,6.11,-0.85,0.27,0.04,
3.914,-4.07,-7.00,6.11,-0.73,0.27,0.08,
3.914,-4.07,-7.00,6.11,-0.36,0.25,0.22,
3.916,-5.12,-7.22,9.34,-0.36,0.25,0.22,
3.916,-5.12,-7.22,9.34,-0.10,0.22,0.32,
3.918,-5.12,-7.22,9.34,0.04,0.20,0.36,
3.919,-5.12,-7.22,9.34,0.46,0.12,0.49,
3.924,-5.12,-7.22,9.34,0.60,0.09,0.53,
3.924,-5.12,-7.22,9.34,1.01,0.00,0.64,
3.925,-4.27,-6.75,9.50,1.01,0.00,0.64,
3.926,-4.27,-6.75,9.50,1.27,-0.05,0.71,
3.934,-4.27,-6.75,9.50,1.40,-0.08,0.74,
3.934,-4.27,-6.75,9.50,1.76,-0.14,0.83,
3.934,-4.27,-6.75,9.50,1.87,-0.15,0.85,
3.934,-4.27,-6.75,9.50,2.17,-0.18,0.92,
3.935,-2.94,-5.75,7.44,2.17,-0.18,0.92,
3.936,-2.94,-5.75,7.44,2.36,-0.18,0.96,
3.948,-2.94,-5.75,7.44,2.44,-0.18,0.98,
3.96,-2.94,-5.75,7.44,2.67,-0.15,1.02,
3.961,-2.94,-5.75,7.44,2.81,-0.12,1.05,
3.961,-2.94,-5.75,7.44,2.93,-0.08,1.08,
3.961,-1.83,-4.80,5.05,2.93,-0.08,1.08,
3.961,-1.83,-4.80,5.05,3.03,-0.02,1.10,
3.961,-1.83,-4.80,5.05,3.08,0.01,1.11,
3.962,-1.83,-4.80,5.05,3.21,0.12,1.13,
3.962,-1.83,-4.80,5.05,3.28,0.22,1.15,
3.962,-1.83,-4.80,5.05,3.33,0.34,1.16,
3.962,-1.65,-4.10,4.39,3.33,0.34,1.16,
3.962,-1.65,-4.10,4.39,3.37,0.46,1.16,
3.962,-1.65,-4.10,4.39,3.40,0.61,1.16,
3.963,-1.65,-4.10,4.39,3.40,0.77,1.16,
3.963,-1.65,-4.10,4.39,3.40,0.94,1.15,
3.963,-1.65,-4.10,4.39,3.38,1.11,1.14,
3.966,-1.76,-3.49,4.85,3.38,1.11,1.14,
3.966,-1.76,-3.49,4.85,3.35,1.30,1.13,
3.967,-1.76,-3.49,4.85,3.32,1.47,1.11,
3.97,-1.76,-3.49,4.85,3.28,1.64,1.10,
3.971,-1.76,-3.49,4.85,3.25,1.79,1.08,
3.973,-1.76,-3.49,4.85,3.21,1.91,1.05,
3.975,-1.24,-2.81,6.50,3.21,1.91,1.05,
3.976,-1.24,-2.81,6.50,3.19,2.00,1.03,
3.977,-1.24,-2.81,6.50,3.17,2.05,0.99,
3.979,-1.24,-2.81,6.50,3.16,2.06,0.95,
3.981,-1.24,-2.81,6.50,3.16,2.04,0.90,
3.983,-1.24,-2.81,6.50,3.16,1.97,0.84,
3.985,2.04,-2.97,8.28,3.16,1.97,0.84,
3.986,2.04,-2.97,8.28,3.17,1.88,0.77,
3.987,2.04,-2.97,8.28,3.19,1.74,0.70,
3.99,2.04,-2.97,8.28,3.20,1.58,0.61,
3.991,2.04,-2.97,8.28,3.22,1.39,0.53,
3.993,2.04,-2.97,8.28,3.24,1.18,0.43,
3.995,5.90,-3.18,8.41,3.24,1.18,0.43,
3.996,5.90,-3.18,8.41,3.25,0.96,0.33,
3.997,5.90,-3.18,8.41,3.26,0.72,0.23,
3.999,5.90,-3.18,8.41,3.26,0.47,0.12,
4.001,5.90,-3.18,8.41,3.26,0.21,0.02,
4.003,5.90,-3.18,8.41,3.24,-0.05,-0.09,
4.006,8.17,-3.58,6.11,3.24,-0.05,-0.09,
4.006,8.17,-3.58,6.11,3.23,-0.30,-0.20,
4.007,8.17,-3.58,6.11,3.21,-0.56,-0.29,
4.009,8.17,-3.58,6.11,3.18,-0.80,-0.39,
4.011,8.17,-3.58,6.11,3.14,-1.04,-0.48,
4.013,8.17,-3.58,6.11,3.09,-1.26,-0.56,
4.016,8.19,-4.14,2.75,3.09,-1.26,-0.56,
4.016,8.19,-4.14,2.75,3.04,-1.47,-0.63,
4.018,8.19,-4.14,2.75,2.97,-1.67,-0.69,
4.019,8.19,-4.14,2.75,2.90,-1.87,-0.75,
4.021,8.19,-4.14,2.75,2.82,-2.05,-0.79,
4.024,8.19,-4.14,2.75,2.73,-2.23,-0.82,
4.025,6.44,-4.63,-1.23,2.73,-2.23,-0.82,
4.025,6.44,-4.63,-1.23,2.64,-2.39,-0.84,
4.027,6.44,-4.63,-1.23,2.53,-2.54,-0.85,
4.029,6.44,-4.63,-1.23,2.43,-2.69,-0.85,
4.031,6.44,-4.63,-1.23,2.31,-2.82,-0.84,
4.033,6.44,-4.63,-1.23,2.19,-2.94,-0.82,
4.036,4.26,-4.71,-5.57,2.19,-2.94,-0.82,
4.036,4.26,-4.71,-5.57,2.06,-3.04,-0.80,
4.037,4.26,-4.71,-5.57,1.92,-3.12,-0.76,
4.039,4.26,-4.71,-5.57,1.78,-3.19,-0.71,
4.041,4.26,-4.71,-5.57,1.62,-3.25,-0.65,
4.043,4.26,-4.71,-5.57,1.47,-3.29,-0.59,
4.045,1.81,-3.90,-10.03,1.47,-3.29,-0.59,
4.046,1.81,-3.90,-10.03,1.31,-3.31,-0.53,
4.047,1.81,-3.90,-10.03,1.16,-3.33,-0.46,
4.049,1.81,-3.90,-10.03,1.01,-3.33,-0.41,
4.051,1.81,-3.90,-10.03,0.86,-3.33,-0.36,
4.065,1.81,-3.90,-10.03,0.72,-3.32,-0.33,
4.067,0.57,-3.59,-12.92,0.72,-3.32,-0.33,
4.067,0.57,-3.59,-12.92,0.57,-3.30,-0.32,
4.068,0.57,-3.59,-12.92,0.45,-3.26,-0.32,
4.068,0.57,-3.59,-12.92,0.34,-3.22,-0.33,
4.068,0.57,-3.59,-12.92,0.24,-3.17,-0.36,
4.068,0.57,-3.59,-12.92,0.16,-3.10,-0.39,
4.068,1.33,-3.18,-12.45,0.16,-3.10,-0.39,
4.068,1.33,-3.18,-12.45,0.09,-3.02,-0.44,
4.068,1.33,-3.18,-12.45,0.03,-2.92,-0.50,
4.097,1.33,-3.18,-12.45,-0.03,-2.80,-0.57,
4.098,1.33,-3.18,-12.45,-0.07,-2.66,-0.64,
4.098,1.33,-3.18,-12.45,-0.10,-2.48,-0.73,
4.099,2.34,-2.88,-11.67,-0.10,-2.48,-0.73,
4.099,2.34,-2.88,-11.67,-0.11,-2.27,-0.82,
4.099,2.34,-2.88,-11.67,-0.11,-2.04,-0.91,
4.099,2.34,-2.88,-11.67,-0.07,-1.79,-1.01,
4.1,2.34,-2.88,-11.67,-0.01,-1.53,-1.12,
4.1,2.34,-2.88,-11.67,0.09,-1.25,-1.22,
4.1,2.91,-2.62,-8.01,0.09,-1.25,-1.22,
4.101,2.91,-2.62,-8.01,0.24,-0.97,-1.32,
4.101,2.91,-2.62,-8.01,0.43,-0.67,-1.42,
4.101,2.91,-2.62,-8.01,0.66,-0.36,-1.52,
4.102,2.91,-2.62,-8.01,0.92,-0.05,-1.61,
4.102,2.91,-2.62,-8.01,1.21,0.26,-1.69,
4.102,2.88,-3.08,-0.72,1.21,0.26,-1.69,
4.102,2.88,-3.08,-0.72,1.50,0.57,-1.76,
4.103,2.88,-3.08,-0.72,1.79,0.86,-1.81,
4.103,2.88,-3.08,-0.72,2.08,1.13,-1.85,
4.103,2.88,-3.08,-0.72,2.36,1.39,-1.87,
4.103,2.88,-3.08,-0.72,2.62,1.63,-1.88,
4.107,2.88,-3.08,-0.72,2.87,1.85,-1.88,
4.136,1.14,-4.09,1.80,2.87,1.85,-1.88,
4.136,1.14,-4.09,1.80,3.09,2.03,-1.87,
4.137,1.14,-4.09,1.80,3.29,2.20,-1.86,
4.137,1.14,-4.09,1.80,3.48,2.34,-1.84,
4.137,1.14,-4.09,1.80,3.65,2.46,-1.82,
4.138,-0.11,-4.63,0.17,3.65,2.46,-1.82,
4.138,-0.11,-4.63,0.17,3.80,2.54,-1.80,
4.139,-0.11,-4.63,0.17,3.94,2.59,-1.77,
4.139,-0.11,-4.63,0.17,4.07,2.61,-1.74,
4.139,-0.11,-4.63,0.17,4.20,2.61,-1.71,
4.14,-0.11,-4.63,0.17,4.31,2.59,-1.68,
4.14,-0.29,-4.95,-1.33,4.31,2.59,-1.68,
4.141,-0.29,-4.95,-1.33,4.42,2.57,-1.65,
4.141,-0.29,-4.95,-1.33,4.53,2.54,-1.61,
4.141,-0.29,-4.95,-1.33,4.63,2.50,-1.58,
4.142,-0.29,-4.95,-1.33,4.73,2.46,-1.54,
4.142,-0.29,-4.95,-1.33,4.82,2.40,-1.51,
4.143,-0.37,-4.73,-1.68,4.82,2.40,-1.51,
4.143,-0.37,-4.73,-1.68,4.92,2.34,-1.48,
4.143,-0.37,-4.73,-1.68,5.01,2.29,-1.44,
4.144,-0.37,-4.73,-1.68,5.10,2.23,-1.41,
4.145,-0.37,-4.73,-1.68,5.18,2.17,-1.38,
4.145,-0.37,-4.73,-1.68,5.26,2.13,-1.34,
4.146,-0.54,-4.12,-1.20,5.26,2.13,-1.34,
4.146,-0.54,-4.12,-1.20,5.34,2.10,-1.31,
4.148,-0.54,-4.12,-1.20,5.40,2.11,-1.27,
4.155,-0.54,-4.12,-1.20,5.43,2.16,-1.24,
4.155,-0.54,-4.12,-1.20,5.44,2.25,-1.21,
4.156,-0.54,-4.12,-1.20,5.41,2.37,-1.19,
4.156,-0.73,-2.94,-0.90,5.41,2.37,-1.19,
4.156,-0.73,-2.94,-0.90,5.35,2.52,-1.16,
4.158,-0.73,-2.94,-0.90,5.24,2.70,-1.14,
4.159,-0.73,-2.94,-0.90,5.10,2.89,-1.11,
4.161,-0.73,-2.94,-0.90,4.94,3.10,-1.09,
4.163,-0.73,-2.94,-0.90,4.74,3.30,-1.07,
4.167,-0.98,-1.17,-2.82,4.74,3.30,-1.07,
4.168,-0.98,-1.17,-2.82,4.52,3.49,-1.04,
4.168,-0.98,-1.17,-2.82,4.29,3.65,-1.01,
4.172,-0.98,-1.17,-2.82,4.04,3.77,-0.98,
4.176,-0.98,-1.17,-2.82,3.80,3.85,-0.95,
4.177,-0.98,-1.17,-2.82,3.55,3.90,-0.92,
4.177,-1.58,0.48,-5.20,3.55,3.90,-0.92,
4.177,-1.58,0.48,-5.20,3.32,3.89,-0.89,
4.178,-1.58,0.48,-5.20,3.10,3.85,-0.87,
4.181,-1.58,0.48,-5.20,2.91,3.78,-0.84,
4.181,-1.58,0.48,-5.20,2.74,3.67,-0.81,
4.185,-1.58,0.48,-5.20,2.59,3.53,-0.79,
4.194,-1.98,1.80,-5.69,2.59,3.53,-0.79,
4.194,-1.98,1.80,-5.69,2.46,3.37,-0.76,
4.195,-1.98,1.80,-5.69,2.35,3.18,-0.74,
4.195,-1.98,1.80,-5.69,2.27,2.98,-0.72,
4.195,-1.98,1.80,-5.69,2.20,2.76,-0.71,
4.195,-1.98,1.80,-5.69,2.16,2.55,-0.69,
4.196,-2.16,2.37,-5.88,2.16,2.55,-0.69,
4.196,-2.16,2.37,-5.88,2.14,2.35,-0.68,
4.197,-2.16,2.37,-5.88,2.15,2.16,-0.67,
4.23,-2.16,2.37,-5.88,2.17,1.99,-0.67,
4.231,-2.16,2.37,-5.88,2.21,1.84,-0.66,
4.231,-2.16,2.37,-5.88,2.27,1.71,-0.66,
4.231,-2.24,3.35,-5.94,2.27,1.71,-0.66,
4.231,-2.24,3.35,-5.94,2.34,1.60,-0.65,
4.231,-2.24,3.35,-5.94,2.42,1.51,-0.65,
4.232,-2.24,3.35,-5.94,2.49,1.44,-0.65,
4.233,-2.24,3.35,-5.94,2.57,1.40,-0.66,
4.234,-2.24,3.35,-5.94,2.66,1.38,-0.65,
4.235,-2.92,4.50,-6.67,2.66,1.38,-0.65,
4.24,-2.92,4.50,-6.67,2.75,1.39,-0.64,
4.241,-2.92,4.50,-6.67,2.84,1.40,-0.63,
4.246,-2.92,4.50,-6.67,2.93,1.43,-0.60,
4.247,-2.92,4.50,-6.67,3.02,1.48,-0.57,
4.247,-2.92,4.50,-6.67,3.10,1.52,-0.54,
4.248,-3.82,5.82,-6.98,3.10,1.52,-0.54,
4.248,-3.82,5.82,-6.98,3.18,1.58,-0.49,
4.249,-3.82,5.82,-6.98,3.25,1.65,-0.45,
4.25,-3.82,5.82,-6.98,3.32,1.73,-0.40,
4.25,-3.82,5.82,-6.98,3.37,1.81,-0.35,
4.25,-3.82,5.82,-6.98,3.41,1.89,-0.30,
4.251,-4.50,6.75,-7.13,3.41,1.89,-0.30,
4.252,-4.50,6.75,-7.13,3.44,1.97,-0.25,
4.253,-4.50,6.75,-7.13,3.45,2.05,-0.20,
4.254,-4.50,6.75,-7.13,3.45,2.12,-0.15,
4.255,-4.50,6.75,-7.13,3.43,2.18,-0.11,
4.255,-4.50,6.75,-7.13,3.40,2.24,-0.06,
4.256,-3.74,6.88,-7.37,3.40,2.24,-0.06,
4.258,-3.74,6.88,-7.37,3.36,2.28,-0.01,
4.259,-3.74,6.88,-7.37,3.30,2.30,0.03,
4.259,-3.74,6.88,-7.37,3.24,2.31,0.06,
4.26,-3.74,6.88,-7.37,3.17,2.31,0.09,
4.26,-3.74,6.88,-7.37,3.10,2.29,0.12,
4.26,-2.59,6.48,-7.38,3.10,2.29,0.12,
4.261,-2.59,6.48,-7.38,3.02,2.25,0.15,
4.262,-2.59,6.48,-7.38,2.94,2.20,0.17,
4.262,-2.59,6.48,-7.38,2.86,2.12,0.19,
4.262,-2.59,6.48,-7.38,2.77,2.03,0.20,
4.273,-2.59,6.48,-7.38,2.68,1.91,0.21,
4.274,-0.83,5.82,-6.68,2.68,1.91,0.21,
4.274,-0.83,5.82,-6.68,2.60,1.79,0.23,
4.274,-0.83,5.82,-6.68,2.51,1.66,0.24,
4.275,-0.83,5.82,-6.68,2.41,1.52,0.24,
4.275,-0.83,5.82,-6.68,2.32,1.38,0.25,
4.299,-0.83,5.82,-6.68,2.22,1.25,0.25,
4.3,0.25,4.95,-6.00,2.22,1.25,0.25,
4.3,0.25,4.95,-6.00,2.11,1.12,0.24,
4.301,0.25,4.95,-6.00,2.01,1.00,0.24,
4.301,0.25,4.95,-6.00,1.89,0.89,0.23,
4.301,0.25,4.95,-6.00,1.77,0.79,0.22,
4.302,0.25,4.95,-6.00,1.65,0.71,0.20,
4.302,1.13,4.19,-5.67,1.65,0.71,0.20,
4.302,1.13,4.19,-5.67,1.52,0.65,0.19,
4.302,1.13,4.19,-5.67,1.39,0.62,0.18,
4.303,1.13,4.19,-5.67,1.26,0.60,0.17,
4.303,1.13,4.19,-5.67,1.12,0.60,0.15,
4.303,1.13,4.19,-5.67,0.98,0.62,0.13,
4.304,1.42,3.55,-5.50,0.98,0.62,0.13,
4.304,1.42,3.55,-5.50,0.84,0.65,0.11,
4.304,1.42,3.55,-5.50,0.70,0.70,0.09,
4.304,1.42,3.55,-5.50,0.56,0.75,0.06,
4.305,1.42,3.55,-5.50,0.42,0.82,0.04,
4.305,1.42,3.55,-5.50,0.28,0.90,0.01,
4.31,1.68,3.06,-5.06,0.28,0.90,0.01,
4.311,1.68,3.06,-5.06,0.15,0.98,-0.03,
4.311,1.68,3.06,-5.06,0.02,1.06,-0.06,
4.311,1.68,3.06,-5.06,-0.11,1.13,-0.10,
4.312,1.68,3.06,-5.06,-0.23,1.21,-0.14,
4.314,1.68,3.06,-5.06,-0.34,1.28,-0.18,
4.316,2.31,2.49,-3.95,-0.34,1.28,-0.18,
4.316,2.31,2.49,-3.95,-0.44,1.34,-0.22,
4.317,2.31,2.49,-3.95,-0.53,1.39,-0.26,
4.319,2.31,2.49,-3.95,-0.62,1.42,-0.31,
4.322,2.31,2.49,-3.95,-0.69,1.44,-0.35,
4.323,2.31,2.49,-3.95,-0.76,1.44,-0.40,
4.326,3.07,2.10,-1.87,-0.76,1.44,-0.40,
4.326,3.07,2.10,-1.87,-0.81,1.41,-0.44,
4.327,3.07,2.10,-1.87,-0.85,1.37,-0.49,
4.329,3.07,2.10,-1.87,-0.88,1.30,-0.53,
4.331,3.07,2.10,-1.87,-0.90,1.22,-0.58,
4.333,3.07,2.10,-1.87,-0.91,1.11,-0.62,
4.345,4.12,1.98,0.54,-0.91,1.11,-0.62,
4.346,4.12,1.98,0.54,-0.91,0.98,-0.67,
4.346,4.12,1.98,0.54,-0.91,0.84,-0.71,
4.346,4.12,1.98,0.54,-0.91,0.69,-0.76,
4.346,4.12,1.98,0.54,-0.91,0.53,-0.80,
4.346,4.12,1.98,0.54,-0.91,0.36,-0.84,
4.347,4.76,2.15,1.13,-0.91,0.36,-0.84,
4.347,4.76,2.15,1.13,-0.92,0.20,-0.87,
4.347,4.76,2.15,1.13,-0.94,0.05,-0.91,
4.349,4.76,2.15,1.13,-0.97,-0.09,-0.94,
4.392,4.76,2.15,1.13,-1.01,-0.22,-0.96,
4.393,4.76,2.15,1.13,-1.06,-0.32,-0.99,
4.393,5.03,2.75,-0.86,-1.06,-0.32,-0.99,
4.393,5.03,2.75,-0.86,-1.11,-0.40,-1.01,
4.393,5.03,2.75,-0.86,-1.17,-0.46,-1.02,
4.393,5.03,2.75,-0.86,-1.23,-0.49,-1.03,
4.394,5.03,2.75,-0.86,-1.29,-0.50,-1.04,
4.394,5.03,2.75,-0.86,-1.35,-0.49,-1.04,
4.394,4.34,3.70,-3.30,-1.35,-0.49,-1.04,
4.394,4.34,3.70,-3.30,-1.42,-0.46,-1.04,
4.394,4.34,3.70,-3.30,-1.48,-0.43,-1.03,
4.394,4.34,3.70,-3.30,-1.54,-0.39,-1.02,
4.394,4.34,3.70,-3.30,-1.59,-0.35,-1.00,
4.394,4.34,3.70,-3.30,-1.64,-0.30,-0.99,
4.394,3.51,4.69,-4.56,-1.64,-0.30,-0.99,
4.395,3.51,4.69,-4.56,-1.69,-0.25,-0.97,
4.395,3.51,4.69,-4.56,-1.72,-0.21,-0.96,
4.395,3.51,4.69,-4.56,-1.75,-0.17,-0.95,
4.395,3.51,4.69,-4.56,-1.77,-0.13,-0.93,
4.395,3.51,4.69,-4.56,-1.78,-0.09,-0.92,
4.395,2.67,5.54,-4.17,-1.78,-0.09,-0.92,
4.395,2.67,5.54,-4.17,-1.78,-0.06,-0.91,
4.395,2.67,5.54,-4.17,-1.77,-0.04,-0.90,
4.396,2.67,5.54,-4.17,-1.75,-0.02,-0.90,
4.396,2.67,5.54,-4.17,-1.72,-0.01,-0.89,
4.396,2.67,5.54,-4.17,-1.68,0.00,-0.88,
4.396,1.80,6.17,-1.83,-1.68,0.00,-0.88,
4.396,1.80,6.17,-1.83,-1.65,-0.00,-0.86,
4.398,1.80,6.17,-1.83,-1.61,-0.00,-0.85,
4.399,1.80,6.17,-1.83,-1.57,-0.01,-0.83,
4.403,1.80,6.17,-1.83,-1.53,-0.01,-0.80,
4.403,1.80,6.17,-1.83,-1.49,-0.02,-0.77,
4.407,0.16,6.27,0.51,-1.49,-0.02,-0.77,
4.407,0.16,6.27,0.51,-1.47,-0.03,-0.73,
4.407,0.16,6.27,0.51,-1.44,-0.03,-0.69,
4.409,0.16,6.27,0.51,-1.42,-0.04,-0.63,
4.411,0.16,6.27,0.51,-1.41,-0.04,-0.57,
4.413,0.16,6.27,0.51,-1.42,-0.05,-0.51,
4.415,-2.75,6.27,2.15,-1.42,-0.05,-0.51,
4.416,-2.75,6.27,2.15,-1.42,-0.06,-0.45,
4.417,-2.75,6.27,2.15,-1.44,-0.07,-0.39,
4.419,-2.75,6.27,2.15,-1.44,-0.09,-0.33,
4.422,-2.75,6.27,2.15,-1.42,-0.12,-0.27,
4.423,-2.75,6.27,2.15,-1.37,-0.15,-0.21,
4.426,-5.62,5.51,6.03,-1.37,-0.15,-0.21,
4.426,-5.62,5.51,6.03,-1.28,-0.17,-0.16,
4.427,-5.62,5.51,6.03,-1.13,-0.19,-0.12,
4.429,-5.62,5.51,6.03,-0.93,-0.18,-0.10,
4.431,-5.62,5.51,6.03,-0.67,-0.13,-0.08,
4.433,-5.62,5.51,6.03,-0.40,-0.04,-0.06,
4.441,-6.93,3.12,20.28,-0.40,-0.04,-0.06,
4.441,-6.93,3.12,20.28,-0.14,0.10,-0.07,
4.441,-6.93,3.12,20.28,0.07,0.29,-0.09,
4.453,-6.93,3.12,20.28,0.21,0.51,-0.12,
4.453,-6.93,3.12,20.28,0.24,0.75,-0.16,
4.454,-6.93,3.12,20.28,0.17,0.99,-0.20,
4.454,-4.66,-4.05,18.28,0.17,0.99,-0.20,
4.454,-4.66,-4.05,18.28,0.00,1.19,-0.23,
4.454,-4.66,-4.05,18.28,-0.26,1.36,-0.24,
4.454,-4.66,-4.05,18.28,-0.60,1.45,-0.24,
4.455,-4.66,-4.05,18.28,-1.01,1.46,-0.23,
4.455,-4.66,-4.05,18.28,-1.46,1.37,-0.21,
4.458,-3.53,-9.13,-1.24,-1.46,1.37,-0.21,
4.459,-3.53,-9.13,-1.24,-1.94,1.18,-0.19,
4.459,-3.53,-9.13,-1.24,-2.41,0.90,-0.16,
4.459,-3.53,-9.13,-1.24,-2.84,0.56,-0.14,
4.461,-3.53,-9.13,-1.24,-3.21,0.19,-0.11,
4.463,-3.53,-9.13,-1.24,-3.51,-0.21,-0.08,
4.465,-1.96,-9.21,-11.48,-3.51,-0.21,-0.08,
4.466,-1.96,-9.21,-11.48,-3.73,-0.61,-0.04,
4.468,-1.96,-9.21,-11.48,-3.87,-1.01,-0.01,
4.469,-1.96,-9.21,-11.48,-3.92,-1.40,0.01,
4.471,-1.96,-9.21,-11.48,-3.90,-1.77,0.03,
4.473,-1.96,-9.21,-11.48,-3.81,-2.12,0.03,
4.476,0.07,-6.74,-6.32,-3.81,-2.12,0.03,
4.476,0.07,-6.74,-6.32,-3.66,-2.44,0.02,
4.477,0.07,-6.74,-6.32,-3.47,-2.72,-0.00,
4.479,0.07,-6.74,-6.32,-3.26,-2.97,-0.04,
4.481,0.07,-6.74,-6.32,-3.04,-3.17,-0.09,
4.483,0.07,-6.74,-6.32,-2.82,-3.30,-0.15,
4.486,2.89,-4.00,0.54,-2.82,-3.30,-0.15,
4.487,2.89,-4.00,0.54,-2.62,-3.39,-0.22,
4.488,2.89,-4.00,0.54,-2.46,-3.43,-0.29,
4.489,2.89,-4.00,0.54,-2.32,-3.43,-0.37,
4.491,2.89,-4.00,0.54,-2.22,-3.37,-0.45,
4.493,2.89,-4.00,0.54,-2.15,-3.28,-0.52,
4.495,4.37,-2.41,0.30,-2.15,-3.28,-0.52,
4.495,4.37,-2.41,0.30,-2.12,-3.16,-0.60,
4.497,4.37,-2.41,0.30,-2.12,-3.02,-0.66,
4.499,4.37,-2.41,0.30,-2.14,-2.85,-0.71,
4.501,4.37,-2.41,0.30,-2.19,-2.66,-0.75,
4.503,4.37,-2.41,0.30,-2.25,-2.47,-0.79,
4.505,3.79,-1.29,-3.10,-2.25,-2.47,-0.79,
4.506,3.79,-1.29,-3.10,-2.32,-2.27,-0.81,
4.507,3.79,-1.29,-3.10,-2.40,-2.07,-0.83,
4.509,3.79,-1.29,-3.10,-2.47,-1.88,-0.84,
4.511,3.79,-1.29,-3.10,-2.54,-1.70,-0.84,
4.513,3.79,-1.29,-3.10,-2.61,-1.52,-0.85,
4.515,2.96,-0.34,-4.38,-2.61,-1.52,-0.85,
4.516,2.96,-0.34,-4.38,-2.67,-1.35,-0.85,
4.517,2.96,-0.34,-4.38,-2.71,-1.19,-0.85,
4.519,2.96,-0.34,-4.38,-2.73,-1.04,-0.85,
4.521,2.96,-0.34,-4.38,-2.74,-0.91,-0.85,
4.523,2.96,-0.34,-4.38,-2.73,-0.79,-0.84,
4.525,2.81,0.40,-1.99,-2.73,-0.79,-0.84,
4.526,2.81,0.40,-1.99,-2.70,-0.69,-0.83,
4.527,2.81,0.40,-1.99,-2.64,-0.61,-0.81,
4.529,2.81,0.40,-1.99,-2.57,-0.54,-0.79,
4.532,2.81,0.40,-1.99,-2.49,-0.48,-0.75,
4.533,2.81,0.40,-1.99,-2.41,-0.44,-0.70,
4.535,1.85,0.10,0.86,-2.41,-0.44,-0.70,
4.536,1.85,0.10,0.86,-2.33,-0.40,-0.64,
4.537,1.85,0.10,0.86,-2.26,-0.37,-0.56,
4.539,1.85,0.10,0.86,-2.20,-0.34,-0.48,
4.541,1.85,0.10,0.86,-2.14,-0.31,-0.39,
4.544,1.85,0.10,0.86,-2.10,-0.28,-0.29,
4.545,-0.38,-0.91,0.27,-2.10,-0.28,-0.29,
4.546,-0.38,-0.91,0.27,-2.06,-0.25,-0.19,
4.547,-0.38,-0.91,0.27,-2.03,-0.21,-0.09,
4.549,-0.38,-0.91,0.27,-2.00,-0.18,0.01,
4.551,-0.38,-0.91,0.27,-1.98,-0.14,0.09,
4.553,-0.38,-0.91,0.27,-1.97,-0.10,0.18,
4.556,-1.88,-1.47,-1.09,-1.97,-0.10,0.18,
4.556,-1.88,-1.47,-1.09,-1.95,-0.07,0.27,
4.557,-1.88,-1.47,-1.09,-1.94,-0.03,0.34,
4.559,-1.88,-1.47,-1.09,-1.92,-0.00,0.42,
4.561,-1.88,-1.47,-1.09,-1.91,0.02,0.48,
4.563,-1.88,-1.47,-1.09,-1.89,0.04,0.54,
4.566,-2.35,-1.57,-1.38,-1.89,0.04,0.54,
4.566,-2.35,-1.57,-1.38,-1.86,0.06,0.59,
4.578,-2.35,-1.57,-1.38,-1.84,0.07,0.64,
4.579,-2.35,-1.57,-1.38,-1.81,0.07,0.68,
4.579,-2.35,-1.57,-1.38,-1.79,0.07,0.71,
4.58,-2.35,-1.57,-1.38,-1.76,0.07,0.74,
4.58,-2.35,-1.64,-1.03,-1.76,0.07,0.74,
4.58,-2.35,-1.64,-1.03,-1.74,0.07,0.76,
4.58,-2.35,-1.64,-1.03,-1.73,0.07,0.78,
4.582,-2.35,-1.64,-1.03,-1.72,0.07,0.79,
4.582,-2.35,-1.64,-1.03,-1.71,0.08,0.80,
4.601,-2.35,-1.64,-1.03,-1.71,0.09,0.81,
4.602,-2.03,-1.88,-1.26,-1.71,0.09,0.81,
4.602,-2.03,-1.88,-1.26,-1.72,0.11,0.81,
4.602,-2.03,-1.88,-1.26,-1.73,0.12,0.80,
4.602,-2.03,-1.88,-1.26,-1.74,0.14,0.80,
4.602,-2.03,-1.88,-1.26,-1.76,0.16,0.79,
4.602,-2.03,-1.88,-1.26,-1.79,0.18,0.78,
4.602,-1.70,-2.10,-1.40,-1.79,0.18,0.78,
4.602,-1.70,-2.10,-1.40,-1.81,0.20,0.77,
4.603,-1.70,-2.10,-1.40,-1.84,0.22,0.75,
4.603,-1.70,-2.10,-1.40,-1.87,0.24,0.72,
4.603,-1.70,-2.10,-1.40,-1.89,0.27,0.69,
4.608,-1.70,-2.10,-1.40,-1.97,0.33,0.57,
4.609,-1.70,-2.10,-1.40,-1.97,0.33,0.57,
4.621,-1.70,-2.10,-1.40,-1.97,0.33,0.57,
4.621,-0.48,-2.04,-0.48,-1.97,0.33,0.57,
4.622,-0.48,-2.04,-0.48,-2.02,0.35,0.48,
4.622,-0.48,-2.04,-0.48,-2.02,0.35,0.48,
4.622,-0.48,-2.04,-0.48,-2.05,0.35,0.43,
4.622,-0.05,-1.80,-0.19,-2.05,0.35,0.43,
4.622,-0.05,-1.80,-0.19,-2.08,0.35,0.38,
4.622,-0.05,-1.80,-0.19,-2.10,0.35,0.32,
4.622,-0.05,-1.80,-0.19,-2.12,0.34,0.27,
4.623,-0.05,-1.80,-0.19,-2.15,0.33,0.22,
4.623,-0.05,-1.80,-0.19,-2.17,0.31,0.17,
4.625,0.31,-1.29,0.08,-2.17,0.31,0.17,
4.625,0.31,-1.29,0.08,-2.19,0.29,0.13,
4.627,0.31,-1.29,0.08,-2.21,0.26,0.08,
4.629,0.31,-1.29,0.08,-2.23,0.23,0.04,
4.631,0.31,-1.29,0.08,-2.25,0.21,0.00,
4.634,0.31,-1.29,0.08,-2.28,0.18,-0.03,
4.636,0.17,-0.67,0.08,-2.28,0.18,-0.03,
4.637,0.17,-0.67,0.08,-2.30,0.14,-0.05,
4.637,0.17,-0.67,0.08,-2.32,0.11,-0.07,
4.639,0.17,-0.67,0.08,-2.35,0.08,-0.08,
4.641,0.17,-0.67,0.08,-2.37,0.05,-0.09,
4.643,0.17,-0.67,0.08,-2.40,0.01,-0.08,
4.645,-0.54,-0.24,-0.11,-2.40,0.01,-0.08,
4.645,-0.54,-0.24,-0.11,-2.43,-0.02,-0.08,
4.647,-0.54,-0.24,-0.11,-2.45,-0.06,-0.07,
4.649,-0.54,-0.24,-0.11,-2.47,-0.09,-0.06,
4.651,-0.54,-0.24,-0.11,-2.49,-0.13,-0.04,
4.655,-0.54,-0.24,-0.11,-2.51,-0.16,-0.03,
4.656,-1.20,0.06,-0.12,-2.51,-0.16,-0.03,
4.656,-1.20,0.06,-0.12,-2.53,-0.19,-0.01,
4.657,-1.20,0.06,-0.12,-2.54,-0.22,0.01,
4.659,-1.20,0.06,-0.12,-2.55,-0.25,0.04,
4.661,-1.20,0.06,-0.12,-2.55,-0.27,0.07,
4.663,-1.20,0.06,-0.12,-2.55,-0.30,0.10,
4.665,-1.48,0.29,0.14,-2.55,-0.30,0.10,
4.665,-1.48,0.29,0.14,-2.55,-0.32,0.12,
4.668,-1.48,0.29,0.14,-2.54,-0.34,0.15,
4.669,-1.48,0.29,0.14,-2.53,-0.35,0.18,
4.671,-1.48,0.29,0.14,-2.52,-0.37,0.20,
4.673,-1.48,0.29,0.14,-2.50,-0.38,0.22,
4.675,-1.33,0.22,0.38,-2.50,-0.38,0.22,
4.675,-1.33,0.22,0.38,-2.49,-0.39,0.24,
4.677,-1.33,0.22,0.38,-2.47,-0.39,0.26,
4.679,-1.33,0.22,0.38,-2.46,-0.40,0.27,
4.681,-1.33,0.22,0.38,-2.43,-0.40,0.29,
4.686,-1.33,0.22,0.38,-2.42,-0.40,0.30,
4.686,-1.06,0.06,0.23,-2.42,-0.40,0.30,
4.686,-1.06,0.06,0.23,-2.40,-0.39,0.32,
4.689,-1.06,0.06,0.23,-2.38,-0.39,0.33,
4.69,-1.06,0.06,0.23,-2.37,-0.38,0.35,
4.693,-1.06,0.06,0.23,-2.36,-0.37,0.36,
4.693,-1.06,0.06,0.23,-2.34,-0.37,0.38,
4.697,-0.98,-0.07,-0.21,-2.34,-0.37,0.38,
4.697,-0.98,-0.07,-0.21,-2.33,-0.35,0.40,
4.698,-0.98,-0.07,-0.21,-2.32,-0.34,0.41,
4.701,-0.98,-0.07,-0.21,-2.31,-0.33,0.43,
4.705,-0.98,-0.07,-0.21,-2.30,-0.32,0.45,
4.705,-0.98,-0.07,-0.21,-2.30,-0.30,0.46,
4.707,-0.77,-0.23,-0.58,-2.30,-0.30,0.46,
4.707,-0.77,-0.23,-0.58,-2.29,-0.28,0.48,
4.708,-0.77,-0.23,-0.58,-2.29,-0.26,0.49,
4.711,-0.77,-0.23,-0.58,-2.28,-0.24,0.50,
4.715,-0.77,-0.23,-0.58,-2.28,-0.22,0.51,
4.715,-0.77,-0.23,-0.58,-2.28,-0.20,0.52,
4.715,-0.31,-0.38,-0.84,-2.28,-0.20,0.52,
4.716,-0.31,-0.38,-0.84,-2.28,-0.18,0.52,
4.731,-0.31,-0.38,-0.84,-2.28,-0.16,0.53,
4.731,-0.31,-0.38,-0.84,-2.28,-0.14,0.53,
4.732,-0.31,-0.38,-0.84,-2.29,-0.12,0.53,
4.732,-0.31,-0.38,-0.84,-2.29,-0.11,0.52,
4.732,0.39,-0.56,-0.71,-2.29,-0.11,0.52,
4.732,0.39,-0.56,-0.71,-2.28,-0.09,0.52,
4.732,0.39,-0.56,-0.71,-2.28,-0.08,0.51,
4.732,0.39,-0.56,-0.71,-2.27,-0.06,0.50,
4.732,0.39,-0.56,-0.71,-2.26,-0.05,0.48,
4.742,0.39,-0.56,-0.71,-2.25,-0.04,0.47,
4.742,1.14,-0.69,-0.06,-2.25,-0.04,0.47,
4.742,1.14,-0.69,-0.06,-2.23,-0.02,0.46,
4.742,1.14,-0.69,-0.06,-2.21,-0.02,0.44,
4.742,1.14,-0.69,-0.06,-2.19,-0.01,0.42,
4.742,1.14,-0.69,-0.06,-2.16,0.01,0.40,
4.745,1.14,-0.69,-0.06,-2.13,0.02,0.38,
4.748,1.67,-0.68,0.66,-2.13,0.02,0.38,
4.748,1.67,-0.68,0.66,-2.10,0.04,0.35,
4.748,1.67,-0.68,0.66,-2.07,0.06,0.32,
4.749,1.67,-0.68,0.66,-2.03,0.07,0.30,
4.753,1.67,-0.68,0.66,-1.99,0.09,0.27,
4.753,1.67,-0.68,0.66,-1.95,0.12,0.24,
4.757,2.14,-0.68,1.31,-1.95,0.12,0.24,
4.757,2.14,-0.68,1.31,-1.90,0.14,0.22,
4.758,2.14,-0.68,1.31,-1.85,0.17,0.19,
4.759,2.14,-0.68,1.31,-1.80,0.19,0.16,
4.763,2.14,-0.68,1.31,-1.75,0.22,0.14,
4.763,2.14,-0.68,1.31,-1.70,0.25,0.11,
4.765,2.32,-0.65,1.78,-1.70,0.25,0.11,
4.766,2.32,-0.65,1.78,-1.65,0.28,0.09,
4.767,2.32,-0.65,1.78,-1.59,0.32,0.06,
4.769,2.32,-0.65,1.78,-1.53,0.36,0.04,
4.772,2.32,-0.65,1.78,-1.48,0.39,0.02,
4.79,2.32,-0.65,1.78,-1.41,0.43,-0.00,
4.79,2.52,-0.53,2.38,-1.41,0.43,-0.00,
4.79,2.52,-0.53,2.38,-1.35,0.46,-0.02,
4.79,2.52,-0.53,2.38,-1.28,0.48,-0.03,
4.79,2.52,-0.53,2.38,-1.21,0.50,-0.04,
4.79,2.52,-0.53,2.38,-1.14,0.53,-0.05,
4.791,2.52,-0.53,2.38,-1.06,0.55,-0.05,
4.791,2.43,-0.20,3.07,-1.06,0.55,-0.05,
4.791,2.43,-0.20,3.07,-0.98,0.57,-0.06,
4.791,2.43,-0.20,3.07,-0.91,0.59,-0.06,
4.791,2.43,-0.20,3.07,-0.83,0.62,-0.07,
4.791,2.43,-0.20,3.07,-0.75,0.64,-0.07,
4.794,2.43,-0.20,3.07,-0.68,0.68,-0.07,
4.795,2.54,0.09,3.50,-0.68,0.68,-0.07,
4.796,2.54,0.09,3.50,-0.61,0.70,-0.07,
4.797,2.54,0.09,3.50,-0.54,0.74,-0.07,
4.799,2.54,0.09,3.50,-0.48,0.77,-0.06,
4.801,2.54,0.09,3.50,-0.42,0.81,-0.06,
4.803,2.54,0.09,3.50,-0.37,0.85,-0.05,
4.805,2.49,0.52,3.33,-0.37,0.85,-0.05,
4.806,2.49,0.52,3.33,-0.33,0.88,-0.04,
4.807,2.49,0.52,3.33,-0.30,0.92,-0.02,
4.809,2.49,0.52,3.33,-0.28,0.97,-0.00,
4.811,2.49,0.52,3.33,-0.27,1.01,0.02,
4.813,2.49,0.52,3.33,-0.27,1.06,0.04,
4.816,2.32,1.12,3.01,-0.27,1.06,0.04,
4.816,2.32,1.12,3.01,-0.28,1.10,0.07,
4.817,2.32,1.12,3.01,-0.30,1.15,0.09,
4.819,2.32,1.12,3.01,-0.32,1.19,0.11,
4.821,2.32,1.12,3.01,-0.36,1.24,0.14,
4.823,2.32,1.12,3.01,-0.41,1.28,0.16,
4.825,2.03,1.66,2.64,-0.41,1.28,0.16,
4.825,2.03,1.66,2.64,-0.45,1.31,0.18,
4.827,2.03,1.66,2.64,-0.51,1.34,0.20,
4.829,2.03,1.66,2.64,-0.57,1.35,0.22,
4.831,2.03,1.66,2.64,-0.63,1.36,0.23,
4.837,2.03,1.66,2.64,-0.70,1.37,0.24,
4.837,1.85,2.01,2.52,-0.70,1.37,0.24,
4.837,1.85,2.01,2.52,-0.77,1.36,0.25,
4.837,1.85,2.01,2.52,-0.85,1.35,0.26,
4.839,1.85,2.01,2.52,-0.92,1.33,0.26,
4.842,1.85,2.01,2.52,-1.00,1.31,0.25,
4.843,1.85,2.01,2.52,-1.07,1.28,0.25,
4.846,1.75,1.99,2.12,-1.07,1.28,0.25,
4.846,1.75,1.99,2.12,-1.14,1.24,0.24,
4.847,1.75,1.99,2.12,-1.21,1.20,0.22,
4.86,1.75,1.99,2.12,-1.28,1.16,0.20,
4.86,1.75,1.99,2.12,-1.34,1.12,0.18,
4.86,1.75,1.99,2.12,-1.40,1.07,0.16,
4.86,1.96,1.77,1.87,-1.40,1.07,0.16,
4.86,1.96,1.77,1.87,-1.45,1.02,0.13,
4.861,1.96,1.77,1.87,-1.49,0.98,0.10,
4.861,1.96,1.77,1.87,-1.53,0.93,0.06,
4.861,1.96,1.77,1.87,-1.56,0.89,0.03,
4.863,1.96,1.77,1.87,-1.58,0.85,0.00,
4.867,2.13,1.44,1.88,-1.58,0.85,0.00,
4.867,2.13,1.44,1.88,-1.60,0.81,-0.03,
4.867,2.13,1.44,1.88,-1.61,0.77,-0.06,
4.869,2.13,1.44,1.88,-1.61,0.74,-0.08,
4.871,2.13,1.44,1.88,-1.61,0.70,-0.11,
4.873,2.13,1.44,1.88,-1.60,0.66,-0.13,
4.875,2.23,1.15,2.13,-1.60,0.66,-0.13,
4.875,2.23,1.15,2.13,-1.59,0.63,-0.16,
4.877,2.23,1.15,2.13,-1.57,0.59,-0.18,
4.879,2.23,1.15,2.13,-1.55,0.56,-0.19,
4.881,2.23,1.15,2.13,-1.52,0.52,-0.20,
4.883,2.23,1.15,2.13,-1.49,0.49,-0.21,
4.885,2.06,0.98,2.21,-1.49,0.49,-0.21,
4.886,2.06,0.98,2.21,-1.46,0.46,-0.22,
4.887,2.06,0.98,2.21,-1.42,0.42,-0.22,
4.89,2.06,0.98,2.21,-1.39,0.40,-0.22,
4.891,2.06,0.98,2.21,-1.35,0.37,-0.22,
4.893,2.06,0.98,2.21,-1.30,0.34,-0.21,
4.895,1.92,0.90,2.26,-1.30,0.34,-0.21,
4.896,1.92,0.90,2.26,-1.26,0.32,-0.20,
4.897,1.92,0.90,2.26,-1.22,0.30,-0.19,
4.899,1.92,0.90,2.26,-1.18,0.28,-0.17,
4.901,1.92,0.90,2.26,-1.14,0.27,-0.15,
4.903,1.92,0.90,2.26,-1.10,0.26,-0.13,
4.906,1.78,1.01,1.86,-1.10,0.26,-0.13,
4.906,1.78,1.01,1.86,-1.06,0.26,-0.11,
4.907,1.78,1.01,1.86,-1.03,0.26,-0.09,
4.909,1.78,1.01,1.86,-1.01,0.26,-0.07,
4.911,1.78,1.01,1.86,-0.98,0.27,-0.05,
4.913,1.78,1.01,1.86,-0.96,0.27,-0.03,
4.916,1.92,1.19,1.30,-0.96,0.27,-0.03,
4.917,1.92,1.19,1.30,-0.95,0.29,-0.01,
4.918,1.92,1.19,1.30,-0.93,0.29,0.02,
4.919,1.92,1.19,1.30,-0.92,0.30,0.04,
4.921,1.92,1.19,1.30,-0.92,0.31,0.06,
4.923,1.92,1.19,1.30,-0.92,0.32,0.07,
4.925,2.10,1.37,0.81,-0.92,0.32,0.07,
4.926,2.10,1.37,0.81,-0.92,0.32,0.09,
4.927,2.10,1.37,0.81,-0.93,0.33,0.11,
4.929,2.10,1.37,0.81,-0.94,0.33,0.13,
4.931,2.10,1.37,0.81,-0.96,0.33,0.15,
4.933,2.10,1.37,0.81,-0.97,0.33,0.16,
4.938,2.36,1.45,0.51,-0.97,0.33,0.16,
4.939,2.36,1.45,0.51,-1.00,0.33,0.17,
4.939,2.36,1.45,0.51,-1.03,0.33,0.19,
4.961,2.36,1.45,0.51,-1.06,0.33,0.20,
