
time,ax,ay,az,wx,wy,wz,
0.002,-1.32,-0.77,0.21,-0.17,-1.85,0.49,
0.002,-1.17,-0.34,-0.51,-0.17,-1.85,0.49,
0.003,-1.17,-0.34,-0.51,-0.18,-1.86,0.51,
0.003,-1.17,-0.34,-0.51,-0.18,-1.88,0.53,
0.003,-1.17,-0.34,-0.51,-0.20,-1.89,0.56,
0.003,-1.17,-0.34,-0.51,-0.22,-1.90,0.58,
0.003,-1.17,-0.34,-0.51,-0.24,-1.91,0.59,
0.004,-1.09,-0.09,-1.34,-0.24,-1.91,0.59,
0.004,-1.09,-0.09,-1.34,-0.28,-1.92,0.61,
0.004,-1.09,-0.09,-1.34,-0.31,-1.93,0.62,
0.004,-1.09,-0.09,-1.34,-0.35,-1.93,0.63,
0.004,-1.09,-0.09,-1.34,-0.39,-1.94,0.64,
0.008,-1.09,-0.09,-1.34,-0.43,-1.94,0.64,
0.01,-0.83,-0.06,-1.91,-0.43,-1.94,0.64,
0.01,-0.83,-0.06,-1.91,-0.48,-1.94,0.65,
0.011,-0.83,-0.06,-1.91,-0.52,-1.93,0.65,
0.013,-0.83,-0.06,-1.91,-0.57,-1.93,0.65,
0.016,-0.83,-0.06,-1.91,-0.60,-1.92,0.64,
0.017,-0.83,-0.06,-1.91,-0.62,-1.92,0.64,
0.019,-0.50,-0.23,-1.82,-0.62,-1.92,0.64,
0.02,-0.50,-0.23,-1.82,-0.63,-1.92,0.63,
0.021,-0.50,-0.23,-1.82,-0.67,-1.93,0.61,
0.025,-0.50,-0.23,-1.82,-0.69,-1.94,0.59,
0.026,-0.50,-0.23,-1.82,-0.71,-1.95,0.58,
0.026,-0.50,-0.23,-1.82,-0.73,-1.97,0.55,
0.029,-0.01,-0.47,-1.10,-0.73,-1.97,0.55,
0.029,-0.01,-0.47,-1.10,-0.74,-1.99,0.53,
0.03,-0.01,-0.47,-1.10,-0.74,-2.00,0.51,
0.033,-0.01,-0.47,-1.10,-0.74,-2.02,0.49,
0.035,-0.01,-0.47,-1.10,-0.73,-2.02,0.47,
0.036,-0.01,-0.47,-1.10,-0.72,-2.03,0.45,
0.039,0.46,-0.64,0.18,-0.72,-2.03,0.45,
0.039,0.46,-0.64,0.18,-0.70,-2.04,0.43,
0.058,0.46,-0.64,0.18,-0.68,-2.03,0.40,
0.059,0.46,-0.64,0.18,-0.66,-2.03,0.37,
0.059,0.46,-0.64,0.18,-0.64,-2.01,0.34,
0.059,0.46,-0.64,0.18,-0.62,-2.00,0.31,
0.059,0.86,-0.51,0.79,-0.62,-2.00,0.31,
0.06,0.86,-0.51,0.79,-0.60,-1.97,0.27,
0.06,0.86,-0.51,0.79,-0.57,-1.95,0.24,
0.06,0.86,-0.51,0.79,-0.55,-1.92,0.20,
0.06,0.86,-0.51,0.79,-0.54,-1.90,0.17,
0.06,0.86,-0.51,0.79,-0.52,-1.86,0.14,
0.06,0.96,-0.30,0.81,-0.52,-1.86,0.14,
0.061,0.96,-0.30,0.81,-0.50,-1.83,0.11,
0.061,0.96,-0.30,0.81,-0.48,-1.79,0.09,
0.093,0.96,-0.30,0.81,-0.45,-1.72,0.07,
0.093,0.96,-0.30,0.81,-0.44,-1.71,0.06,
0.094,0.96,-0.30,0.81,-0.42,-1.67,0.06,
0.094,-0.14,-0.23,0.63,-0.42,-1.67,0.06,
0.094,-0.14,-0.23,0.63,-0.40,-1.64,0.07,
0.094,-0.14,-0.23,0.63,-0.37,-1.63,0.07,
0.094,-0.14,-0.23,0.63,-0.36,-1.62,0.09,
0.104,-0.14,-0.23,0.63,-0.33,-1.61,0.10,
0.105,-0.14,-0.23,0.63,-0.27,-1.63,0.18,
0.107,-0.14,-0.23,0.63,-0.27,-1.63,0.18,
0.107,-0.14,-0.23,0.63,-0.27,-1.63,0.18,
0.108,-1.91,-0.36,-0.01,-0.27,-1.63,0.18,
0.109,-1.91,-0.36,-0.01,-0.24,-1.66,0.22,
0.111,-1.91,-0.36,-0.01,-0.23,-1.67,0.24,
0.111,-1.91,-0.36,-0.01,-0.22,-1.70,0.26,
0.112,-2.05,-0.51,-0.24,-0.22,-1.70,0.26,
0.112,-2.05,-0.51,-0.24,-0.20,-1.74,0.29,
0.112,-2.05,-0.51,-0.24,-0.19,-1.78,0.31,
0.112,-2.05,-0.51,-0.24,-0.18,-1.83,0.32,
0.113,-2.05,-0.51,-0.24,-0.17,-1.87,0.33,
0.113,-2.05,-0.51,-0.24,-0.15,-1.92,0.34,
0.113,-1.58,-0.66,-0.46,-0.15,-1.92,0.34,
0.113,-1.58,-0.66,-0.46,-0.14,-1.96,0.35,
0.114,-1.58,-0.66,-0.46,-0.13,-2.01,0.35,
0.114,-1.58,-0.66,-0.46,-0.12,-2.06,0.35,
0.114,-1.58,-0.66,-0.46,-0.11,-2.11,0.34,
0.115,-1.58,-0.66,-0.46,-0.10,-2.15,0.34,
0.115,-0.48,-0.63,-0.51,-0.10,-2.15,0.34,
0.115,-0.48,-0.63,-0.51,-0.09,-2.21,0.33,
0.115,-0.48,-0.63,-0.51,-0.09,-2.26,0.32,
0.116,-0.48,-0.63,-0.51,-0.09,-2.34,0.30,
0.116,-0.48,-0.63,-0.51,-0.09,-2.37,0.30,
0.116,-0.48,-0.63,-0.51,-0.10,-2.42,0.29,
0.131,0.18,-0.54,-0.95,-0.10,-2.42,0.29,
0.132,0.18,-0.54,-0.95,-0.11,-2.46,0.28,
0.132,0.18,-0.54,-0.95,-0.12,-2.51,0.27,
0.133,0.18,-0.54,-0.95,-0.14,-2.55,0.27,
0.133,0.18,-0.54,-0.95,-0.16,-2.58,0.27,
0.133,0.18,-0.54,-0.95,-0.18,-2.60,0.27,
0.134,0.24,-0.57,-1.29,-0.18,-2.60,0.27,
0.134,0.24,-0.57,-1.29,-0.20,-2.62,0.27,
0.135,0.24,-0.57,-1.29,-0.23,-2.62,0.27,
0.135,0.24,-0.57,-1.29,-0.25,-2.62,0.27,
0.135,0.24,-0.57,-1.29,-0.28,-2.61,0.27,
0.138,0.24,-0.57,-1.29,-0.32,-2.60,0.27,
0.139,0.39,-0.52,-1.53,-0.32,-2.60,0.27,
0.139,0.39,-0.52,-1.53,-0.35,-2.57,0.27,
0.146,0.39,-0.52,-1.53,-0.39,-2.54,0.27,
0.147,0.39,-0.52,-1.53,-0.44,-2.50,0.27,
0.147,0.39,-0.52,-1.53,-0.48,-2.45,0.28,
0.148,0.39,-0.52,-1.53,-0.53,-2.39,0.29,
0.149,0.57,-0.20,-1.91,-0.53,-2.39,0.29,
0.149,0.57,-0.20,-1.91,-0.58,-2.32,0.29,
0.15,0.57,-0.20,-1.91,-0.63,-2.24,0.30,
0.153,0.57,-0.20,-1.91,-0.71,-2.11,0.30,
0.154,0.57,-0.20,-1.91,-0.73,-2.07,0.30,
0.159,0.57,-0.20,-1.91,-0.78,-1.98,0.30,
0.159,0.58,-0.01,-2.18,-0.78,-1.98,0.30,
0.159,0.58,-0.01,-2.18,-0.83,-1.90,0.30,
0.16,0.58,-0.01,-2.18,-0.87,-1.81,0.30,
0.164,0.58,-0.01,-2.18,-0.92,-1.71,0.29,
0.164,0.58,-0.01,-2.18,-0.94,-1.68,0.28,
0.167,0.58,-0.01,-2.18,-0.97,-1.62,0.27,
0.169,0.42,-0.13,-1.61,-0.97,-1.62,0.27,
0.169,0.42,-0.13,-1.61,-0.99,-1.56,0.26,
0.173,0.42,-0.13,-1.61,-1.01,-1.51,0.24,
0.174,0.42,-0.13,-1.61,-1.02,-1.46,0.23,
0.191,0.42,-0.13,-1.61,-1.03,-1.40,0.22,
0.191,0.42,-0.13,-1.61,-1.04,-1.36,0.21,
0.191,0.11,-0.48,-0.57,-1.04,-1.36,0.21,
0.192,0.11,-0.48,-0.57,-1.04,-1.31,0.21,
0.192,0.11,-0.48,-0.57,-1.04,-1.28,0.20,
0.192,0.11,-0.48,-0.57,-1.03,-1.24,0.20,
0.192,0.11,-0.48,-0.57,-1.03,-1.23,0.20,
0.193,0.11,-0.48,-0.57,-1.02,-1.21,0.20,
0.193,-0.53,-0.59,0.05,-1.02,-1.21,0.20,
0.193,-0.53,-0.59,0.05,-1.01,-1.20,0.20,
0.193,-0.53,-0.59,0.05,-1.00,-1.19,0.20,
0.235,-0.53,-0.59,0.05,-0.97,-1.19,0.21,
0.236,-0.53,-0.59,0.05,-0.96,-1.19,0.22,
0.236,-0.53,-0.59,0.05,-0.93,-1.20,0.22,
0.236,-1.29,-0.48,0.59,-0.93,-1.20,0.22,
0.236,-1.29,-0.48,0.59,-0.91,-1.21,0.24,
0.237,-1.29,-0.48,0.59,-0.89,-1.19,0.26,
0.237,-1.29,-0.48,0.59,-0.87,-1.10,0.30,
0.237,-1.29,-0.48,0.59,-0.87,-1.06,0.32,
0.237,-1.29,-0.48,0.59,-0.86,-0.98,0.36,
0.237,-2.79,-0.46,-0.78,-0.86,-0.98,0.36,
0.237,-2.79,-0.46,-0.78,-0.87,-0.94,0.41,
0.238,-2.79,-0.46,-0.78,-0.87,-0.94,0.46,
0.238,-2.79,-0.46,-0.78,-0.87,-1.04,0.53,
0.238,-2.79,-0.46,-0.78,-0.87,-1.09,0.55,
0.238,-2.79,-0.46,-0.78,-0.86,-1.22,0.59,
0.238,-1.89,-0.64,-0.49,-0.86,-1.22,0.59,
0.239,-1.89,-0.64,-0.49,-0.86,-1.35,0.62,
0.239,-1.89,-0.64,-0.49,-0.85,-1.47,0.64,
0.239,-1.89,-0.64,-0.49,-0.84,-1.60,0.68,
0.239,-1.89,-0.64,-0.49,-0.84,-1.64,0.69,
0.239,-1.89,-0.64,-0.49,-0.83,-1.70,0.70,
0.24,-0.70,-1.12,0.01,-0.83,-1.70,0.70,
0.24,-0.70,-1.12,0.01,-0.82,-1.75,0.71,
0.24,-0.70,-1.12,0.01,-0.81,-1.78,0.71,
0.24,-0.70,-1.12,0.01,-0.80,-1.80,0.70,
0.24,-0.70,-1.12,0.01,-0.80,-1.81,0.70,
0.245,-0.70,-1.12,0.01,-0.80,-1.82,0.68,
0.246,0.33,-0.83,-0.19,-0.80,-1.82,0.68,
0.246,0.33,-0.83,-0.19,-0.80,-1.85,0.67,
0.265,0.33,-0.83,-0.19,-0.80,-1.87,0.65,
0.265,0.33,-0.83,-0.19,-0.81,-1.89,0.62,
0.265,0.33,-0.83,-0.19,-0.82,-1.90,0.61,
0.266,0.33,-0.83,-0.19,-0.83,-1.93,0.59,
0.266,0.85,-0.19,-0.28,-0.83,-1.93,0.59,
0.266,0.85,-0.19,-0.28,-0.84,-1.97,0.56,
0.267,0.85,-0.19,-0.28,-0.86,-2.00,0.53,
0.267,0.85,-0.19,-0.28,-0.89,-2.03,0.49,
0.267,0.85,-0.19,-0.28,-0.91,-2.04,0.47,
0.267,0.85,-0.19,-0.28,-0.93,-2.04,0.43,
0.268,1.36,0.01,-0.40,-0.93,-2.04,0.43,
0.268,1.36,0.01,-0.40,-0.94,-2.03,0.40,
0.268,1.36,0.01,-0.40,-0.96,-2.03,0.36,
0.268,1.36,0.01,-0.40,-0.98,-2.00,0.29,
0.269,1.36,0.01,-0.40,-0.99,-2.00,0.27,
0.269,1.36,0.01,-0.40,-1.01,-1.98,0.23,
0.274,1.59,-0.21,-0.35,-1.01,-1.98,0.23,
0.274,1.59,-0.21,-0.35,-1.02,-1.95,0.20,
0.274,1.59,-0.21,-0.35,-1.03,-1.93,0.17,
0.274,1.59,-0.21,-0.35,-1.03,-1.87,0.13,
0.288,1.59,-0.21,-0.35,-1.03,-1.85,0.12,
0.288,1.59,-0.21,-0.35,-1.03,-1.80,0.10,
0.289,1.11,-0.50,0.12,-1.03,-1.80,0.10,
0.289,1.11,-0.50,0.12,-1.03,-1.74,0.08,
0.289,1.11,-0.50,0.12,-1.02,-1.70,0.07,
0.289,1.11,-0.50,0.12,-1.01,-1.58,0.08,
0.289,1.11,-0.50,0.12,-1.00,-1.55,0.08,
0.291,1.11,-0.50,0.12,-0.97,-1.48,0.09,
0.291,0.06,-0.07,0.60,-0.97,-1.48,0.09,
0.291,0.06,-0.07,0.60,-0.95,-1.42,0.10,
0.303,0.06,-0.07,0.60,-0.92,-1.35,0.11,
0.303,0.06,-0.07,0.60,-0.88,-1.25,0.12,
0.304,0.06,-0.07,0.60,-0.87,-1.23,0.12,
0.304,0.06,-0.07,0.60,-0.84,-1.18,0.13,
0.304,-0.65,0.45,0.45,-0.84,-1.18,0.13,
0.304,-0.65,0.45,0.45,-0.81,-1.14,0.13,
0.304,-0.65,0.45,0.45,-0.79,-1.08,0.14,
0.304,-0.65,0.45,0.45,-0.77,-0.99,0.14,
0.304,-0.65,0.45,0.45,-0.76,-0.96,0.14,
0.332,-0.65,0.45,0.45,-0.75,-0.90,0.15,
0.332,-1.11,0.57,-0.28,-0.75,-0.90,0.15,
0.332,-1.11,0.57,-0.28,-0.75,-0.85,0.15,
0.333,-1.11,0.57,-0.28,-0.75,-0.79,0.16,
0.333,-1.11,0.57,-0.28,-0.76,-0.71,0.18,
0.333,-1.11,0.57,-0.28,-0.76,-0.69,0.18,
0.333,-1.11,0.57,-0.28,-0.77,-0.65,0.20,
0.333,-1.74,0.21,-0.55,-0.77,-0.65,0.20,
0.333,-1.74,0.21,-0.55,-0.80,-0.62,0.21,
0.333,-1.74,0.21,-0.55,-0.83,-0.60,0.22,
0.333,-1.74,0.21,-0.55,-0.88,-0.59,0.25,
0.334,-1.74,0.21,-0.55,-0.90,-0.60,0.26,
0.334,-1.74,0.21,-0.55,-0.95,-0.60,0.29,
0.334,-1.83,-0.15,-0.91,-0.95,-0.60,0.29,
0.334,-1.83,-0.15,-0.91,-0.99,-0.62,0.31,
0.334,-1.83,-0.15,-0.91,-1.04,-0.64,0.34,
0.334,-1.83,-0.15,-0.91,-1.10,-0.67,0.38,
0.334,-1.83,-0.15,-0.91,-1.12,-0.68,0.39,
0.336,-1.83,-0.15,-0.91,-1.15,-0.71,0.42,
0.339,-2.20,-0.49,-0.48,-1.15,-0.71,0.42,
0.339,-2.20,-0.49,-0.48,-1.18,-0.73,0.45,
0.34,-2.20,-0.49,-0.48,-1.21,-0.75,0.48,
0.343,-2.20,-0.49,-0.48,-1.24,-0.78,0.53,
0.344,-2.20,-0.49,-0.48,-1.25,-0.78,0.55,
0.346,-2.20,-0.49,-0.48,-1.26,-0.80,0.59,
0.348,-2.73,-1.01,0.28,-1.26,-0.80,0.59,
0.348,-2.73,-1.01,0.28,-1.28,-0.82,0.62,
0.35,-2.73,-1.01,0.28,-1.28,-0.84,0.66,
0.353,-2.73,-1.01,0.28,-1.29,-0.87,0.71,
0.354,-2.73,-1.01,0.28,-1.29,-0.87,0.73,
0.356,-2.73,-1.01,0.28,-1.29,-0.88,0.77,
0.358,-2.99,-1.17,0.83,-1.29,-0.88,0.77,
0.359,-2.99,-1.17,0.83,-1.30,-0.87,0.80,
0.36,-2.99,-1.17,0.83,-1.30,-0.87,0.84,
0.363,-2.99,-1.17,0.83,-1.30,-0.84,0.91,
0.366,-2.99,-1.17,0.83,-1.30,-0.81,0.96,
0.367,-2.99,-1.17,0.83,-1.31,-0.80,0.98,
0.368,-3.02,-1.17,0.73,-1.31,-0.80,0.98,
0.368,-3.02,-1.17,0.73,-1.31,-0.79,1.00,
0.37,-3.02,-1.17,0.73,-1.31,-0.78,1.03,
0.373,-3.02,-1.17,0.73,-1.32,-0.78,1.07,
0.374,-3.02,-1.17,0.73,-1.33,-0.79,1.07,
0.376,-3.02,-1.17,0.73,-1.34,-0.81,1.09,
0.378,-2.72,-1.23,0.74,-1.34,-0.81,1.09,
0.379,-2.72,-1.23,0.74,-1.36,-0.84,1.09,
0.38,-2.72,-1.23,0.74,-1.38,-0.88,1.09,
0.383,-2.72,-1.23,0.74,-1.43,-0.96,1.08,
0.384,-2.72,-1.23,0.74,-1.45,-0.99,1.08,
0.386,-2.72,-1.23,0.74,-1.49,-1.04,1.08,
0.399,-2.21,-1.29,0.24,-1.49,-1.04,1.08,
0.399,-2.21,-1.29,0.24,-1.52,-1.08,1.07,
0.399,-2.21,-1.29,0.24,-1.56,-1.12,1.07,
0.399,-2.21,-1.29,0.24,-1.62,-1.16,1.07,
0.399,-2.21,-1.29,0.24,-1.64,-1.17,1.07,
0.399,-2.21,-1.29,0.24,-1.68,-1.19,1.08,
0.399,-2.68,-1.13,-0.38,-1.68,-1.19,1.08,
0.4,-2.68,-1.13,-0.38,-1.71,-1.19,1.08,
0.4,-2.68,-1.13,-0.38,-1.75,-1.17,1.09,
0.403,-2.68,-1.13,-0.38,-1.82,-1.11,1.09,
0.419,-2.68,-1.13,-0.38,-1.85,-1.08,1.09,
0.419,-2.68,-1.13,-0.38,-1.90,-1.02,1.09,
0.44,-3.41,-1.08,-1.06,-1.90,-1.02,1.09,
0.44,-3.41,-1.08,-1.06,-1.95,-0.97,1.09,
0.44,-3.41,-1.08,-1.06,-2.01,-0.92,1.09,
0.441,-3.41,-1.08,-1.06,-2.08,-0.86,1.10,
0.441,-3.41,-1.08,-1.06,-2.10,-0.85,1.10,
0.442,-3.41,-1.08,-1.06,-2.15,-0.82,1.10,
0.442,-3.82,-1.42,-1.56,-2.15,-0.82,1.10,
0.442,-3.82,-1.42,-1.56,-2.19,-0.80,1.10,
0.443,-3.82,-1.42,-1.56,-2.22,-0.77,1.10,
0.443,-3.82,-1.42,-1.56,-2.26,-0.74,1.10,
0.444,-3.82,-1.42,-1.56,-2.27,-0.72,1.10,
0.444,-3.82,-1.42,-1.56,-2.29,-0.69,1.09,
0.444,-3.86,-1.93,-1.51,-2.29,-0.69,1.09,
0.445,-3.86,-1.93,-1.51,-2.31,-0.66,1.08,
0.445,-3.86,-1.93,-1.51,-2.31,-0.62,1.07,
0.446,-3.86,-1.93,-1.51,-2.32,-0.57,1.06,
0.446,-3.86,-1.93,-1.51,-2.32,-0.56,1.05,
0.446,-3.86,-1.93,-1.51,-2.32,-0.52,1.04,
0.447,-3.96,-2.21,-1.41,-2.32,-0.52,1.04,
0.447,-3.96,-2.21,-1.41,-2.32,-0.49,1.02,
0.448,-3.96,-2.21,-1.41,-2.32,-0.46,1.00,
0.448,-3.96,-2.21,-1.41,-2.31,-0.42,0.97,
0.448,-3.96,-2.21,-1.41,-2.30,-0.41,0.96,
0.449,-3.96,-2.21,-1.41,-2.30,-0.39,0.94,
0.449,-3.56,-2.30,-1.56,-2.30,-0.39,0.94,
0.45,-3.56,-2.30,-1.56,-2.28,-0.38,0.92,
0.45,-3.56,-2.30,-1.56,-2.28,-0.37,0.90,
0.458,-3.56,-2.30,-1.56,-2.26,-0.36,0.88,
0.458,-3.56,-2.30,-1.56,-2.26,-0.36,0.87,
0.459,-3.56,-2.30,-1.56,-2.25,-0.36,0.86,
0.461,-3.43,-2.52,-1.44,-2.25,-0.36,0.86,
0.461,-3.43,-2.52,-1.44,-2.25,-0.35,0.85,
0.462,-3.43,-2.52,-1.44,-2.24,-0.35,0.84,
0.464,-3.43,-2.52,-1.44,-2.25,-0.34,0.83,
0.465,-3.43,-2.52,-1.44,-2.25,-0.34,0.82,
0.466,-3.43,-2.52,-1.44,-2.26,-0.33,0.81,
0.469,-3.08,-2.67,-1.58,-2.26,-0.33,0.81,
0.469,-3.08,-2.67,-1.58,-2.27,-0.32,0.79,
0.47,-3.08,-2.67,-1.58,-2.28,-0.30,0.77,
0.473,-3.08,-2.67,-1.58,-2.31,-0.27,0.73,
0.474,-3.08,-2.67,-1.58,-2.31,-0.26,0.72,
0.476,-3.08,-2.67,-1.58,-2.33,-0.24,0.69,
0.478,-2.33,-3.36,-1.33,-2.33,-0.24,0.69,
0.479,-2.33,-3.36,-1.33,-2.36,-0.23,0.66,
0.48,-2.33,-3.36,-1.33,-2.39,-0.21,0.62,
0.483,-2.33,-3.36,-1.33,-2.44,-0.18,0.57,
0.484,-2.33,-3.36,-1.33,-2.46,-0.16,0.55,
0.486,-2.33,-3.36,-1.33,-2.51,-0.14,0.51,
0.489,-1.83,-3.67,-1.75,-2.51,-0.14,0.51,
0.489,-1.83,-3.67,-1.75,-2.56,-0.12,0.46,
0.49,-1.83,-3.67,-1.75,-2.62,-0.09,0.40,
0.493,-1.83,-3.67,-1.75,-2.72,-0.04,0.31,
0.494,-1.83,-3.67,-1.75,-2.76,-0.02,0.27,
0.496,-1.83,-3.67,-1.75,-2.83,0.03,0.20,
0.499,-0.92,-3.78,-2.61,-2.83,0.03,0.20,
0.499,-0.92,-3.78,-2.61,-2.90,0.09,0.11,
0.5,-0.92,-3.78,-2.61,-2.98,0.16,0.02,
0.503,-0.92,-3.78,-2.61,-3.10,0.28,-0.13,
0.505,-0.92,-3.78,-2.61,-3.14,0.33,-0.18,
0.507,-0.92,-3.78,-2.61,-3.22,0.45,-0.27,
0.509,-0.17,-3.25,-2.50,-3.22,0.45,-0.27,
0.509,-0.17,-3.25,-2.50,-3.29,0.57,-0.36,
0.511,-0.17,-3.25,-2.50,-3.38,0.71,-0.43,
0.515,-0.17,-3.25,-2.50,-3.52,0.93,-0.51,
0.516,-0.17,-3.25,-2.50,-3.57,0.99,-0.53,
0.517,-0.17,-3.25,-2.50,-3.69,1.10,-0.54,
0.519,0.69,-2.62,-1.65,-3.69,1.10,-0.54,
0.519,0.69,-2.62,-1.65,-3.83,1.13,-0.56,
0.523,0.69,-2.62,-1.65,-3.97,1.07,-0.58,
0.524,0.69,-2.62,-1.65,-4.18,0.87,-0.62,
0.524,0.69,-2.62,-1.65,-4.24,0.80,-0.64,
0.526,0.69,-2.62,-1.65,-4.36,0.66,-0.67,
0.53,0.72,-2.23,-2.54,-4.36,0.66,-0.67,
0.53,0.72,-2.23,-2.54,-4.46,0.54,-0.70,
0.53,0.72,-2.23,-2.54,-4.55,0.46,-0.73,
0.533,0.72,-2.23,-2.54,-4.64,0.41,-0.77,
0.534,0.72,-2.23,-2.54,-4.66,0.41,-0.77,
0.536,0.72,-2.23,-2.54,-4.69,0.44,-0.79,
0.549,0.62,-2.66,-2.10,-4.69,0.44,-0.79,
0.55,0.62,-2.66,-2.10,-4.70,0.47,-0.80,
0.55,0.62,-2.66,-2.10,-4.70,0.51,-0.81,
0.55,0.62,-2.66,-2.10,-4.67,0.56,-0.81,
0.551,0.62,-2.66,-2.10,-4.66,0.58,-0.80,
0.551,0.62,-2.66,-2.10,-4.63,0.59,-0.79,
0.551,0.12,-3.02,-0.06,-4.63,0.59,-0.79,
0.551,0.12,-3.02,-0.06,-4.60,0.58,-0.78,
0.551,0.12,-3.02,-0.06,-4.56,0.56,-0.77,
0.568,0.12,-3.02,-0.06,-4.49,0.51,-0.74,
0.569,0.12,-3.02,-0.06,-4.46,0.49,-0.73,
0.569,0.12,-3.02,-0.06,-4.41,0.44,-0.70,
0.569,-0.11,-2.78,1.24,-4.41,0.44,-0.70,
0.57,-0.11,-2.78,1.24,-4.36,0.39,-0.67,
0.57,-0.11,-2.78,1.24,-4.31,0.33,-0.64,
0.57,-0.11,-2.78,1.24,-4.23,0.23,-0.59,
0.57,-0.11,-2.78,1.24,-4.21,0.20,-0.57,
0.57,-0.11,-2.78,1.24,-4.15,0.14,-0.54,
0.571,-0.32,-2.31,1.59,-4.15,0.14,-0.54,
0.571,-0.32,-2.31,1.59,-4.10,0.08,-0.51,
0.571,-0.32,-2.31,1.59,-4.06,0.02,-0.48,
0.574,-0.32,-2.31,1.59,-3.99,-0.07,-0.45,
0.594,-0.32,-2.31,1.59,-3.98,-0.10,-0.45,
0.595,-0.32,-2.31,1.59,-3.95,-0.15,-0.44,
0.595,-0.32,-2.31,1.59,-3.92,-0.20,-0.44,
0.595,0.44,-2.10,1.41,-3.92,-0.20,-0.44,
0.595,0.44,-2.10,1.41,-3.91,-0.25,-0.44,
0.596,0.44,-2.10,1.41,-3.89,-0.31,-0.44,
0.596,0.44,-2.10,1.41,-3.89,-0.33,-0.45,
0.596,0.44,-2.10,1.41,-3.89,-0.36,-0.45,
0.596,1.44,-2.33,0.90,-3.89,-0.36,-0.45,
0.597,1.44,-2.33,0.90,-3.89,-0.38,-0.46,
0.597,1.44,-2.33,0.90,-3.90,-0.39,-0.46,
0.597,1.44,-2.33,0.90,-3.93,-0.37,-0.47,
0.598,1.44,-2.33,0.90,-3.94,-0.36,-0.47,
0.598,1.44,-2.33,0.90,-3.97,-0.33,-0.47,
0.603,1.89,-3.07,0.23,-3.97,-0.33,-0.47,
0.604,1.89,-3.07,0.23,-4.00,-0.30,-0.48,
0.604,1.89,-3.07,0.23,-4.04,-0.26,-0.47,
0.604,1.89,-3.07,0.23,-4.10,-0.21,-0.47,
0.605,1.89,-3.07,0.23,-4.12,-0.20,-0.47,
0.607,1.89,-3.07,0.23,-4.18,-0.18,-0.47,
0.609,1.87,-3.66,-0.02,-4.18,-0.18,-0.47,
0.609,1.87,-3.66,-0.02,-4.23,-0.17,-0.47,
0.62,1.87,-3.66,-0.02,-4.29,-0.16,-0.47,
0.621,1.87,-3.66,-0.02,-4.39,-0.15,-0.48,
0.621,1.87,-3.66,-0.02,-4.42,-0.14,-0.48,
0.621,1.87,-3.66,-0.02,-4.50,-0.12,-0.49,
0.621,2.07,-3.62,-0.06,-4.50,-0.12,-0.49,
0.621,2.07,-3.62,-0.06,-4.57,-0.10,-0.49,
0.622,2.07,-3.62,-0.06,-4.64,-0.07,-0.49,
0.626,2.07,-3.62,-0.06,-4.75,-0.02,-0.50,
0.629,2.07,-3.62,-0.06,-4.79,0.01,-0.50,
0.63,2.07,-3.62,-0.06,-4.86,0.05,-0.50,
0.63,2.07,-3.14,0.18,-4.86,0.05,-0.50,
0.63,2.07,-3.14,0.18,-4.92,0.10,-0.50,
0.631,2.07,-3.14,0.18,-4.99,0.16,-0.49,
0.634,2.07,-3.14,0.18,-5.08,0.24,-0.48,
0.635,2.07,-3.14,0.18,-5.11,0.27,-0.47,
0.636,2.07,-3.14,0.18,-5.16,0.33,-0.45,
0.64,1.58,-2.60,0.72,-5.16,0.33,-0.45,
0.641,1.58,-2.60,0.72,-5.22,0.40,-0.44,
0.641,1.58,-2.60,0.72,-5.27,0.48,-0.43,
0.646,1.58,-2.60,0.72,-5.34,0.59,-0.40,
0.646,1.58,-2.60,0.72,-5.36,0.63,-0.40,
0.648,1.58,-2.60,0.72,-5.39,0.70,-0.39,
0.649,1.36,-2.06,1.33,-5.39,0.70,-0.39,
0.649,1.36,-2.06,1.33,-5.43,0.78,-0.38,
0.651,1.36,-2.06,1.33,-5.46,0.85,-0.38,
0.66,1.36,-2.06,1.33,-5.49,0.96,-0.38,
0.66,1.36,-2.06,1.33,-5.50,0.99,-0.39,
0.66,1.36,-2.06,1.33,-5.51,1.06,-0.40,
0.66,2.14,-1.77,2.12,-5.51,1.06,-0.40,
0.661,2.14,-1.77,2.12,-5.52,1.13,-0.41,
0.661,2.14,-1.77,2.12,-5.52,1.19,-0.44,
0.663,2.14,-1.77,2.12,-5.52,1.27,-0.49,
0.665,2.14,-1.77,2.12,-5.52,1.30,-0.51,
0.666,2.14,-1.77,2.12,-5.51,1.34,-0.55,
0.668,3.33,-1.88,2.78,-5.51,1.34,-0.55,
0.669,3.33,-1.88,2.78,-5.51,1.38,-0.60,
0.674,3.33,-1.88,2.78,-5.51,1.42,-0.65,
0.674,3.33,-1.88,2.78,-5.50,1.47,-0.74,
0.676,3.33,-1.88,2.78,-5.49,1.49,-0.77,
0.678,3.33,-1.88,2.78,-5.49,1.51,-0.83,
0.679,4.50,-2.22,3.28,-5.49,1.51,-0.83,
0.679,4.50,-2.22,3.28,-5.48,1.54,-0.90,
0.68,4.50,-2.22,3.28,-5.48,1.57,-0.96,
0.683,4.50,-2.22,3.28,-5.49,1.60,-1.06,
0.684,4.50,-2.22,3.28,-5.49,1.61,-1.10,
0.687,4.50,-2.22,3.28,-5.49,1.63,-1.16,
0.689,5.41,-2.20,3.45,-5.49,1.63,-1.16,
0.689,5.41,-2.20,3.45,-5.50,1.64,-1.23,
0.69,5.41,-2.20,3.45,-5.50,1.65,-1.29,
0.693,5.41,-2.20,3.45,-5.51,1.66,-1.37,
0.694,5.41,-2.20,3.45,-5.52,1.67,-1.40,
0.696,5.41,-2.20,3.45,-5.53,1.67,-1.46,
0.699,5.73,-1.76,3.73,-5.53,1.67,-1.46,
0.699,5.73,-1.76,3.73,-5.53,1.66,-1.51,
0.7,5.73,-1.76,3.73,-5.54,1.65,-1.55,
0.704,5.73,-1.76,3.73,-5.55,1.63,-1.62,
0.704,5.73,-1.76,3.73,-5.55,1.63,-1.64,
0.706,5.73,-1.76,3.73,-5.56,1.61,-1.67,
0.708,5.50,-1.42,4.01,-5.56,1.61,-1.67,
0.708,5.50,-1.42,4.01,-5.56,1.59,-1.71,
0.71,5.50,-1.42,4.01,-5.57,1.57,-1.74,
0.713,5.50,-1.42,4.01,-5.57,1.54,-1.77,
0.716,5.50,-1.42,4.01,-5.56,1.49,-1.80,
0.717,5.50,-1.42,4.01,-5.56,1.47,-1.81,
0.718,5.04,-1.02,4.42,-5.56,1.47,-1.81,
0.719,5.04,-1.02,4.42,-5.55,1.45,-1.81,
0.72,5.04,-1.02,4.42,-5.54,1.41,-1.83,
0.723,5.04,-1.02,4.42,-5.51,1.34,-1.83,
0.725,5.04,-1.02,4.42,-5.50,1.31,-1.83,
0.728,5.04,-1.02,4.42,-5.48,1.26,-1.83,
0.728,4.64,-0.51,5.09,-5.48,1.26,-1.83,
0.728,4.64,-0.51,5.09,-5.46,1.20,-1.83,
0.732,4.64,-0.51,5.09,-5.43,1.13,-1.82,
0.733,4.64,-0.51,5.09,-5.39,1.03,-1.80,
0.734,4.64,-0.51,5.09,-5.38,1.00,-1.79,
0.737,4.64,-0.51,5.09,-5.35,0.94,-1.78,
0.738,4.31,0.12,5.72,-5.35,0.94,-1.78,
0.739,4.31,0.12,5.72,-5.32,0.88,-1.76,
0.758,4.31,0.12,5.72,-5.29,0.81,-1.74,
0.758,4.31,0.12,5.72,-5.24,0.72,-1.72,
0.758,4.31,0.12,5.72,-5.22,0.68,-1.71,
0.758,4.31,0.12,5.72,-5.18,0.60,-1.69,
0.759,4.14,0.66,6.14,-5.18,0.60,-1.69,
0.759,4.14,0.66,6.14,-5.14,0.53,-1.68,
0.759,4.14,0.66,6.14,-5.10,0.45,-1.67,
0.76,4.14,0.66,6.14,-5.03,0.33,-1.66,
0.76,4.14,0.66,6.14,-5.00,0.29,-1.65,
0.76,4.14,0.66,6.14,-4.95,0.22,-1.65,
0.76,4.05,1.12,7.06,-4.95,0.22,-1.65,
0.761,4.05,1.12,7.06,-4.89,0.15,-1.65,
0.761,4.05,1.12,7.06,-4.83,0.10,-1.65,
0.765,4.05,1.12,7.06,-4.75,0.02,-1.66,
0.768,4.05,1.12,7.06,-4.71,0.00,-1.66,
0.768,4.05,1.12,7.06,-4.65,-0.04,-1.68,
0.769,4.21,1.51,7.36,-4.65,-0.04,-1.68,
0.769,4.21,1.51,7.36,-4.60,-0.08,-1.70,
0.77,4.21,1.51,7.36,-4.54,-0.11,-1.72,
0.774,4.21,1.51,7.36,-4.45,-0.15,-1.75,
0.774,4.21,1.51,7.36,-4.42,-0.16,-1.76,
0.776,4.21,1.51,7.36,-4.36,-0.19,-1.79,
0.779,4.31,1.87,7.31,-4.36,-0.19,-1.79,
0.779,4.31,1.87,7.31,-4.30,-0.21,-1.82,
0.78,4.31,1.87,7.31,-4.23,-0.23,-1.85,
0.783,4.31,1.87,7.31,-4.14,-0.27,-1.90,
0.784,4.31,1.87,7.31,-4.10,-0.29,-1.91,
0.787,4.31,1.87,7.31,-4.04,-0.31,-1.94,
0.79,4.20,1.62,7.45,-4.04,-0.31,-1.94,
0.791,4.20,1.62,7.45,-3.98,-0.34,-1.97,
0.791,4.20,1.62,7.45,-3.91,-0.35,-2.00,
0.794,4.20,1.62,7.45,-3.82,-0.38,-2.04,
0.794,4.20,1.62,7.45,-3.79,-0.38,-2.04,
0.797,4.20,1.62,7.45,-3.73,-0.39,-2.06,
0.799,3.56,1.67,7.56,-3.73,-0.39,-2.06,
0.799,3.56,1.67,7.56,-3.66,-0.40,-2.07,
0.801,3.56,1.67,7.56,-3.60,-0.41,-2.08,
0.803,3.56,1.67,7.56,-3.51,-0.41,-2.08,
0.805,3.56,1.67,7.56,-3.48,-0.42,-2.08,
0.806,3.56,1.67,7.56,-3.43,-0.42,-2.08,
0.809,2.50,2.16,7.14,-3.43,-0.42,-2.08,
0.81,2.50,2.16,7.14,-3.37,-0.42,-2.07,
0.81,2.50,2.16,7.14,-3.31,-0.42,-2.05,
0.813,2.50,2.16,7.14,-3.23,-0.43,-2.03,
0.814,2.50,2.16,7.14,-3.20,-0.43,-2.01,
0.816,2.50,2.16,7.14,-3.14,-0.43,-1.99,
0.819,1.51,2.55,7.06,-3.14,-0.43,-1.99,
0.819,1.51,2.55,7.06,-3.08,-0.44,-1.96,
0.828,1.51,2.55,7.06,-3.02,-0.45,-1.93,
0.829,1.51,2.55,7.06,-2.94,-0.48,-1.88,
0.829,1.51,2.55,7.06,-2.91,-0.49,-1.86,
0.829,1.51,2.55,7.06,-2.85,-0.52,-1.83,
0.829,0.72,2.60,6.92,-2.85,-0.52,-1.83,
0.83,0.72,2.60,6.92,-2.80,-0.54,-1.79,
0.831,0.72,2.60,6.92,-2.75,-0.57,-1.75,
0.834,0.72,2.60,6.92,-2.67,-0.60,-1.70,
0.835,0.72,2.60,6.92,-2.65,-0.61,-1.69,
0.852,0.72,2.60,6.92,-2.60,-0.62,-1.65,
0.852,0.38,2.61,6.48,-2.60,-0.62,-1.65,
0.853,0.38,2.61,6.48,-2.56,-0.64,-1.62,
0.853,0.38,2.61,6.48,-2.51,-0.65,-1.58,
0.853,0.38,2.61,6.48,-2.45,-0.67,-1.53,
0.853,0.38,2.61,6.48,-2.43,-0.67,-1.52,
0.853,0.38,2.61,6.48,-2.38,-0.67,-1.49,
0.854,0.16,2.37,5.90,-2.38,-0.67,-1.49,
0.854,0.16,2.37,5.90,-2.34,-0.67,-1.47,
0.854,0.16,2.37,5.90,-2.29,-0.67,-1.45,
0.854,0.16,2.37,5.90,-2.21,-0.66,-1.43,
0.855,0.16,2.37,5.90,-2.19,-0.65,-1.42,
0.858,0.16,2.37,5.90,-2.13,-0.65,-1.42,
0.859,0.16,2.47,6.16,-2.13,-0.65,-1.42,
0.859,0.16,2.47,6.16,-2.08,-0.64,-1.41,
0.86,0.16,2.47,6.16,-2.02,-0.63,-1.42,
0.863,0.16,2.47,6.16,-1.93,-0.62,-1.44,
0.864,0.16,2.47,6.16,-1.90,-0.61,-1.45,
0.866,0.16,2.47,6.16,-1.84,-0.61,-1.47,
0.869,0.28,2.39,6.35,-1.84,-0.61,-1.47,
0.869,0.28,2.39,6.35,-1.78,-0.61,-1.49,
0.871,0.28,2.39,6.35,-1.72,-0.62,-1.53,
0.873,0.28,2.39,6.35,-1.63,-0.66,-1.58,
0.874,0.28,2.39,6.35,-1.61,-0.67,-1.60,
0.876,0.28,2.39,6.35,-1.56,-0.70,-1.64,
0.879,0.63,1.92,6.37,-1.56,-0.70,-1.64,
0.879,0.63,1.92,6.37,-1.50,-0.72,-1.69,
0.88,0.63,1.92,6.37,-1.46,-0.74,-1.73,
0.883,0.63,1.92,6.37,-1.40,-0.76,-1.80,
0.884,0.63,1.92,6.37,-1.38,-0.75,-1.81,
0.887,0.63,1.92,6.37,-1.35,-0.75,-1.85,
0.889,0.55,1.26,5.61,-1.35,-0.75,-1.85,
0.889,0.55,1.26,5.61,-1.32,-0.73,-1.88,
0.891,0.55,1.26,5.61,-1.30,-0.71,-1.90,
0.893,0.55,1.26,5.61,-1.27,-0.67,-1.93,
0.894,0.55,1.26,5.61,-1.26,-0.66,-1.93,
0.896,0.55,1.26,5.61,-1.24,-0.64,-1.94,
0.899,-0.23,0.83,4.71,-1.24,-0.64,-1.94,
0.9,-0.23,0.83,4.71,-1.23,-0.61,-1.93,
0.9,-0.23,0.83,4.71,-1.22,-0.59,-1.92,
0.905,-0.23,0.83,4.71,-1.20,-0.56,-1.90,
0.906,-0.23,0.83,4.71,-1.20,-0.55,-1.89,
0.907,-0.23,0.83,4.71,-1.19,-0.53,-1.86,
0.924,-1.57,0.81,3.93,-1.19,-0.53,-1.86,
0.925,-1.57,0.81,3.93,-1.18,-0.52,-1.82,
0.925,-1.57,0.81,3.93,-1.18,-0.50,-1.79,
0.925,-1.57,0.81,3.93,-1.16,-0.48,-1.72,
0.925,-1.57,0.81,3.93,-1.16,-0.48,-1.69,
0.926,-1.57,0.81,3.93,-1.14,-0.47,-1.64,
0.927,-3.10,1.11,3.59,-1.14,-0.47,-1.64,
0.927,-3.10,1.11,3.59,-1.13,-0.46,-1.58,
0.927,-3.10,1.11,3.59,-1.12,-0.45,-1.52,
0.927,-3.10,1.11,3.59,-1.09,-0.43,-1.43,
0.928,-3.10,1.11,3.59,-1.08,-0.43,-1.39,
0.928,-3.10,1.11,3.59,-1.05,-0.41,-1.32,
0.932,-4.43,1.52,3.20,-1.05,-0.41,-1.32,
0.933,-4.43,1.52,3.20,-1.02,-0.39,-1.25,
0.933,-4.43,1.52,3.20,-0.99,-0.37,-1.17,
0.935,-4.43,1.52,3.20,-0.92,-0.34,-1.06,
0.94,-4.43,1.52,3.20,-0.89,-0.34,-1.02,
0.94,-4.43,1.52,3.20,-0.84,-0.32,-0.93,
0.941,-5.73,1.82,3.64,-0.84,-0.32,-0.93,
0.941,-5.73,1.82,3.64,-0.77,-0.31,-0.85,
0.941,-5.73,1.82,3.64,-0.70,-0.31,-0.77,
0.943,-5.73,1.82,3.64,-0.59,-0.29,-0.64,
0.944,-5.73,1.82,3.64,-0.55,-0.28,-0.60,
0.946,-5.73,1.82,3.64,-0.47,-0.26,-0.52,
0.949,-6.63,1.92,3.70,-0.47,-0.26,-0.52,
0.949,-6.63,1.92,3.70,-0.38,-0.23,-0.44,
0.951,-6.63,1.92,3.70,-0.30,-0.20,-0.35,
0.96,-6.63,1.92,3.70,-0.17,-0.14,-0.22,
0.961,-6.63,1.92,3.70,-0.13,-0.13,-0.18,
0.961,-6.63,1.92,3.70,-0.04,-0.09,-0.10,
0.961,-7.60,1.51,3.54,-0.04,-0.09,-0.10,
0.962,-7.60,1.51,3.54,0.05,-0.06,-0.02,
0.962,-7.60,1.51,3.54,0.13,-0.03,0.06,
0.989,-7.60,1.51,3.54,0.24,0.02,0.16,
0.989,-7.60,1.51,3.54,0.28,0.04,0.18,
0.989,-7.60,1.51,3.54,0.35,0.06,0.23,
0.989,-7.62,0.72,2.81,0.35,0.06,0.23,
0.99,-7.62,0.72,2.81,0.42,0.09,0.27,
0.99,-7.62,0.72,2.81,0.49,0.11,0.29,
0.99,-7.62,0.72,2.81,0.58,0.14,0.31,
0.99,-7.62,0.72,2.81,0.61,0.15,0.31,
0.99,-7.62,0.72,2.81,0.67,0.17,0.31,
0.99,-6.75,-0.16,2.46,0.67,0.17,0.31,
0.991,-6.75,-0.16,2.46,0.73,0.21,0.30,
0.991,-6.75,-0.16,2.46,0.78,0.25,0.30,
0.991,-6.75,-0.16,2.46,0.85,0.32,0.27,
0.991,-6.75,-0.16,2.46,0.87,0.35,0.26,
0.992,-6.75,-0.16,2.46,0.91,0.43,0.24,
0.992,-5.81,0.25,1.25,0.91,0.43,0.24,
0.992,-5.81,0.25,1.25,0.94,0.53,0.22,
0.992,-5.81,0.25,1.25,0.95,0.64,0.20,
0.994,-5.81,0.25,1.25,0.98,0.83,0.15,
0.994,-5.81,0.25,1.25,0.98,0.90,0.14,
0.996,-5.81,0.25,1.25,0.98,1.01,0.10,
0.998,-4.91,0.64,-0.59,0.98,1.01,0.10,
0.999,-4.91,0.64,-0.59,0.97,1.10,0.06,
1.0,-4.91,0.64,-0.59,0.95,1.18,0.01,
1.003,-4.91,0.64,-0.59,0.91,1.28,-0.08,
1.004,-4.91,0.64,-0.59,0.89,1.31,-0.11,
1.006,-4.91,0.64,-0.59,0.85,1.37,-0.18,
1.008,-3.07,0.42,-2.08,0.85,1.37,-0.18,
1.008,-3.07,0.42,-2.08,0.81,1.40,-0.25,
1.01,-3.07,0.42,-2.08,0.77,1.42,-0.31,
1.013,-3.07,0.42,-2.08,0.71,1.45,-0.41,
1.014,-3.07,0.42,-2.08,0.69,1.46,-0.44,
1.016,-3.07,0.42,-2.08,0.65,1.51,-0.49,
1.018,-1.82,-0.32,-2.65,0.65,1.51,-0.49,
1.019,-1.82,-0.32,-2.65,0.61,1.55,-0.54,
1.02,-1.82,-0.32,-2.65,0.57,1.59,-0.59,
1.023,-1.82,-0.32,-2.65,0.51,1.64,-0.64,
1.024,-1.82,-0.32,-2.65,0.49,1.65,-0.66,
1.026,-1.82,-0.32,-2.65,0.45,1.66,-0.69,
1.028,-1.01,-1.16,-3.20,0.45,1.66,-0.69,
1.029,-1.01,-1.16,-3.20,0.41,1.67,-0.72,
1.03,-1.01,-1.16,-3.20,0.37,1.66,-0.74,
1.033,-1.01,-1.16,-3.20,0.30,1.64,-0.76,
1.034,-1.01,-1.16,-3.20,0.28,1.63,-0.77,
1.036,-1.01,-1.16,-3.20,0.24,1.61,-0.77,
1.038,-0.38,-1.55,-3.69,0.24,1.61,-0.77,
1.038,-0.38,-1.55,-3.69,0.21,1.60,-0.77,
1.04,-0.38,-1.55,-3.69,0.18,1.58,-0.77,
1.043,-0.38,-1.55,-3.69,0.13,1.55,-0.74,
1.044,-0.38,-1.55,-3.69,0.12,1.53,-0.73,
1.046,-0.38,-1.55,-3.69,0.08,1.49,-0.69,
1.048,-0.20,-1.53,-3.36,0.08,1.49,-0.69,
1.049,-0.20,-1.53,-3.36,0.05,1.45,-0.65,
1.05,-0.20,-1.53,-3.36,-0.00,1.40,-0.61,
1.053,-0.20,-1.53,-3.36,-0.08,1.34,-0.53,
1.055,-0.20,-1.53,-3.36,-0.10,1.32,-0.50,
1.056,-0.20,-1.53,-3.36,-0.16,1.29,-0.45,
1.058,0.05,-1.09,-3.81,-0.16,1.29,-0.45,
1.059,0.05,-1.09,-3.81,-0.21,1.26,-0.38,
1.06,0.05,-1.09,-3.81,-0.26,1.24,-0.32,
1.063,0.05,-1.09,-3.81,-0.35,1.18,-0.22,
1.068,0.05,-1.09,-3.81,-0.43,1.10,-0.12,
1.07,0.05,-1.09,-3.81,-0.46,1.06,-0.09,
1.071,0.49,-0.43,-3.42,-0.46,1.06,-0.09,
1.071,0.49,-0.43,-3.42,-0.49,1.02,-0.06,
1.071,0.49,-0.43,-3.42,-0.55,0.93,-0.01,
1.073,0.49,-0.43,-3.42,-0.63,0.80,0.06,
1.09,0.49,-0.43,-3.42,-0.65,0.75,0.08,
1.091,0.49,-0.43,-3.42,-0.79,0.49,0.17,
1.091,0.49,-0.43,-3.42,-0.79,0.49,0.17,
1.092,0.49,-0.43,-3.42,-0.79,0.49,0.17,
1.092,2.33,0.39,-2.60,-0.79,0.49,0.17,
1.092,2.33,0.39,-2.60,-0.89,0.33,0.20,
1.093,2.33,0.39,-2.60,-0.91,0.30,0.20,
1.093,2.33,0.39,-2.60,-0.93,0.27,0.20,
1.094,3.09,0.73,-2.27,-0.93,0.27,0.20,
1.094,3.09,0.73,-2.27,-0.97,0.21,0.20,
1.094,3.09,0.73,-2.27,-1.01,0.15,0.19,
1.095,3.09,0.73,-2.27,-1.04,0.09,0.17,
1.095,3.09,0.73,-2.27,-1.05,0.07,0.16,
1.103,3.09,0.73,-2.27,-1.06,0.03,0.13,
1.104,3.62,1.07,-1.42,-1.06,0.03,0.13,
1.104,3.62,1.07,-1.42,-1.07,-0.00,0.10,
1.105,3.62,1.07,-1.42,-1.06,-0.03,0.07,
1.105,3.62,1.07,-1.42,-1.04,-0.08,0.01,
1.105,3.62,1.07,-1.42,-1.03,-0.09,-0.01,
1.106,3.62,1.07,-1.42,-1.00,-0.11,-0.06,
1.108,3.77,1.02,-0.25,-1.00,-0.11,-0.06,
1.109,3.77,1.02,-0.25,-0.96,-0.13,-0.10,
1.11,3.77,1.02,-0.25,-0.92,-0.13,-0.14,
1.113,3.77,1.02,-0.25,-0.85,-0.11,-0.21,
1.114,3.77,1.02,-0.25,-0.82,-0.10,-0.24,
1.116,3.77,1.02,-0.25,-0.76,-0.07,-0.28,
1.127,3.34,1.06,0.75,-0.76,-0.07,-0.28,
1.128,3.34,1.06,0.75,-0.69,-0.03,-0.33,
1.128,3.34,1.06,0.75,-0.62,0.01,-0.37,
1.128,3.34,1.06,0.75,-0.51,0.08,-0.43,
1.128,3.34,1.06,0.75,-0.47,0.11,-0.45,
1.129,3.34,1.06,0.75,-0.39,0.15,-0.49,
1.129,2.88,0.73,1.62,-0.39,0.15,-0.49,
1.129,2.88,0.73,1.62,-0.32,0.17,-0.53,
1.161,2.88,0.73,1.62,-0.24,0.19,-0.56,
1.161,2.88,0.73,1.62,-0.15,0.23,-0.60,
1.162,2.88,0.73,1.62,-0.12,0.24,-0.61,
1.162,2.88,0.73,1.62,-0.06,0.27,-0.63,
1.162,1.92,-0.18,1.74,-0.06,0.27,-0.63,
1.162,1.92,-0.18,1.74,-0.02,0.31,-0.63,
1.163,1.92,-0.18,1.74,0.02,0.34,-0.64,
1.163,1.92,-0.18,1.74,0.05,0.37,-0.63,
1.163,1.92,-0.18,1.74,0.06,0.39,-0.63,
1.163,1.92,-0.18,1.74,0.07,0.41,-0.62,
1.163,0.64,-0.27,0.68,0.07,0.41,-0.62,
1.164,0.64,-0.27,0.68,0.08,0.43,-0.60,
1.164,0.64,-0.27,0.68,0.07,0.45,-0.59,
1.164,0.64,-0.27,0.68,0.05,0.46,-0.55,
1.164,0.64,-0.27,0.68,0.04,0.47,-0.54,
1.165,0.64,-0.27,0.68,0.01,0.48,-0.52,
1.165,-0.27,-0.22,-0.32,0.01,0.48,-0.52,
1.165,-0.27,-0.22,-0.32,-0.02,0.48,-0.50,
1.165,-0.27,-0.22,-0.32,-0.06,0.48,-0.48,
1.166,-0.27,-0.22,-0.32,-0.11,0.47,-0.44,
1.166,-0.27,-0.22,-0.32,-0.12,0.47,-0.43,
1.167,-0.27,-0.22,-0.32,-0.16,0.44,-0.40,
1.172,-0.72,0.06,-0.66,-0.16,0.44,-0.40,
1.173,-0.72,0.06,-0.66,-0.20,0.42,-0.38,
1.174,-0.72,0.06,-0.66,-0.24,0.39,-0.35,
1.174,-0.72,0.06,-0.66,-0.30,0.35,-0.31,
1.175,-0.72,0.06,-0.66,-0.32,0.34,-0.30,
1.177,-0.72,0.06,-0.66,-0.36,0.30,-0.27,
1.18,-0.93,0.42,-1.08,-0.36,0.30,-0.27,
1.18,-0.93,0.42,-1.08,-0.40,0.27,-0.25,
1.18,-0.93,0.42,-1.08,-0.44,0.23,-0.22,
1.183,-0.93,0.42,-1.08,-0.50,0.17,-0.17,
1.184,-0.93,0.42,-1.08,-0.51,0.15,-0.16,
1.186,-0.93,0.42,-1.08,-0.54,0.11,-0.13,
1.191,-1.07,0.64,-1.17,-0.54,0.11,-0.13,
1.191,-1.07,0.64,-1.17,-0.57,0.08,-0.09,
1.191,-1.07,0.64,-1.17,-0.58,0.06,-0.05,
1.195,-1.07,0.64,-1.17,-0.60,0.02,0.02,
1.195,-1.07,0.64,-1.17,-0.60,0.01,0.05,
1.199,-1.07,0.64,-1.17,-0.60,-0.03,0.12,
1.199,-1.64,1.08,-0.84,-0.60,-0.03,0.12,
1.199,-1.64,1.08,-0.84,-0.60,-0.07,0.19,
1.2,-1.64,1.08,-0.84,-0.59,-0.11,0.27,
1.205,-1.64,1.08,-0.84,-0.56,-0.18,0.41,
1.209,-1.64,1.08,-0.84,-0.55,-0.20,0.46,
1.209,-1.64,1.08,-0.84,-0.52,-0.26,0.56,
1.209,-2.59,1.46,-0.27,-0.52,-0.26,0.56,
1.209,-2.59,1.46,-0.27,-0.48,-0.33,0.66,
1.213,-2.59,1.46,-0.27,-0.45,-0.39,0.77,
1.228,-2.59,1.46,-0.27,-0.39,-0.49,0.95,
1.229,-2.59,1.46,-0.27,-0.38,-0.52,1.01,
1.229,-2.59,1.46,-0.27,-0.35,-0.58,1.12,
1.229,-2.80,1.83,-0.24,-0.35,-0.58,1.12,
1.229,-2.80,1.83,-0.24,-0.33,-0.64,1.24,
1.23,-2.80,1.83,-0.24,-0.31,-0.70,1.35,
1.23,-2.80,1.83,-0.24,-0.29,-0.79,1.50,
1.23,-2.80,1.83,-0.24,-0.29,-0.82,1.55,
1.23,-2.80,1.83,-0.24,-0.26,-0.91,1.63,
1.23,-1.75,2.43,-0.45,-0.26,-0.91,1.63,
1.231,-1.75,2.43,-0.45,-0.22,-1.02,1.70,
1.231,-1.75,2.43,-0.45,-0.18,-1.14,1.75,
1.233,-1.75,2.43,-0.45,-0.13,-1.28,1.80,
1.253,-1.75,2.43,-0.45,-0.11,-1.32,1.80,
1.253,-1.75,2.43,-0.45,-0.09,-1.38,1.82,
1.254,0.86,1.92,0.08,-0.09,-1.38,1.82,
1.254,0.86,1.92,0.08,-0.06,-1.44,1.81,
1.279,0.86,1.92,0.08,-0.02,-1.49,1.80,
1.279,0.86,1.92,0.08,0.03,-1.55,1.77,
1.28,0.86,1.92,0.08,0.05,-1.57,1.76,
1.28,0.86,1.92,0.08,0.09,-1.59,1.72,
1.28,2.52,0.47,0.12,0.09,-1.59,1.72,
1.281,2.52,0.47,0.12,0.13,-1.62,1.69,
1.281,2.52,0.47,0.12,0.17,-1.63,1.64,
1.281,2.52,0.47,0.12,0.23,-1.65,1.58,
1.281,2.52,0.47,0.12,0.25,-1.65,1.56,
1.282,2.52,0.47,0.12,0.28,-1.65,1.51,
1.282,3.12,-0.06,-0.26,0.28,-1.65,1.51,
1.282,3.12,-0.06,-0.26,0.30,-1.64,1.46,
1.283,3.12,-0.06,-0.26,0.32,-1.62,1.42,
1.283,3.12,-0.06,-0.26,0.34,-1.58,1.34,
1.283,3.12,-0.06,-0.26,0.34,-1.56,1.32,
1.283,3.12,-0.06,-0.26,0.33,-1.52,1.26,
1.284,2.99,-0.20,-1.53,0.33,-1.52,1.26,
1.284,2.99,-0.20,-1.53,0.32,-1.47,1.21,
1.284,2.99,-0.20,-1.53,0.30,-1.41,1.15,
1.284,2.99,-0.20,-1.53,0.25,-1.33,1.06,
1.285,2.99,-0.20,-1.53,0.23,-1.29,1.03,
1.285,2.99,-0.20,-1.53,0.18,-1.22,0.98,
1.285,2.58,0.27,-3.05,0.18,-1.22,0.98,
1.285,2.58,0.27,-3.05,0.13,-1.14,0.92,
1.286,2.58,0.27,-3.05,0.07,-1.05,0.87,
1.286,2.58,0.27,-3.05,-0.02,-0.89,0.79,
1.286,2.58,0.27,-3.05,-0.05,-0.84,0.77,
1.287,2.58,0.27,-3.05,-0.11,-0.73,0.72,
1.293,1.66,0.68,-3.76,-0.11,-0.73,0.72,
1.294,1.66,0.68,-3.76,-0.17,-0.63,0.67,
1.295,1.66,0.68,-3.76,-0.22,-0.52,0.62,
1.295,1.66,0.68,-3.76,-0.30,-0.37,0.55,
1.295,1.66,0.68,-3.76,-0.33,-0.32,0.53,
1.296,1.66,0.68,-3.76,-0.37,-0.23,0.48,
1.299,1.02,0.89,-3.73,-0.37,-0.23,0.48,
1.299,1.02,0.89,-3.73,-0.41,-0.14,0.43,
1.301,1.02,0.89,-3.73,-0.44,-0.05,0.39,
1.303,1.02,0.89,-3.73,-0.48,0.06,0.32,
1.304,1.02,0.89,-3.73,-0.49,0.09,0.30,
1.307,1.02,0.89,-3.73,-0.51,0.16,0.26,
1.308,0.75,1.35,-3.02,-0.51,0.16,0.26,
1.309,0.75,1.35,-3.02,-0.52,0.22,0.23,
1.31,0.75,1.35,-3.02,-0.52,0.29,0.20,
1.313,0.75,1.35,-3.02,-0.52,0.37,0.17,
1.315,0.75,1.35,-3.02,-0.52,0.40,0.17,
1.316,0.75,1.35,-3.02,-0.51,0.45,0.16,
1.321,0.50,1.87,-2.37,-0.51,0.45,0.16,
1.322,0.50,1.87,-2.37,-0.51,0.51,0.16,
1.322,0.50,1.87,-2.37,-0.50,0.55,0.16,
1.323,0.50,1.87,-2.37,-0.47,0.61,0.18,
1.324,0.50,1.87,-2.37,-0.47,0.63,0.19,
1.326,0.50,1.87,-2.37,-0.45,0.66,0.20,
1.329,0.13,1.82,-1.86,-0.45,0.66,0.20,
1.329,0.13,1.82,-1.86,-0.43,0.69,0.22,
1.33,0.13,1.82,-1.86,-0.41,0.72,0.25,
1.333,0.13,1.82,-1.86,-0.39,0.75,0.29,
1.335,0.13,1.82,-1.86,-0.38,0.76,0.30,
1.337,0.13,1.82,-1.86,-0.36,0.77,0.33,
1.339,0.13,1.45,-1.58,-0.36,0.77,0.33,
1.339,0.13,1.45,-1.58,-0.34,0.78,0.37,
1.341,0.13,1.45,-1.58,-0.33,0.79,0.40,
1.343,0.13,1.45,-1.58,-0.31,0.80,0.45,
1.344,0.13,1.45,-1.58,-0.30,0.80,0.46,
1.347,0.13,1.45,-1.58,-0.29,0.80,0.50,
1.349,0.43,0.88,-1.54,-0.29,0.80,0.50,
1.349,0.43,0.88,-1.54,-0.28,0.81,0.53,
1.35,0.43,0.88,-1.54,-0.27,0.80,0.57,
1.354,0.43,0.88,-1.54,-0.27,0.80,0.62,
1.354,0.43,0.88,-1.54,-0.27,0.80,0.63,
1.356,0.43,0.88,-1.54,-0.27,0.80,0.67,
1.359,1.09,0.30,-1.85,-0.27,0.80,0.67,
1.359,1.09,0.30,-1.85,-0.27,0.80,0.70,
1.36,1.09,0.30,-1.85,-0.27,0.78,0.73,
1.363,1.09,0.30,-1.85,-0.29,0.74,0.78,
1.364,1.09,0.30,-1.85,-0.29,0.73,0.80,
1.366,1.09,0.30,-1.85,-0.30,0.70,0.82,
1.377,1.65,-0.42,-1.80,-0.30,0.70,0.82,
1.377,1.65,-0.42,-1.80,-0.32,0.67,0.85,
1.377,1.65,-0.42,-1.80,-0.34,0.63,0.88,
1.378,1.65,-0.42,-1.80,-0.36,0.56,0.91,
1.378,1.65,-0.42,-1.80,-0.37,0.54,0.92,
1.378,1.65,-0.42,-1.80,-0.40,0.50,0.93,
1.38,1.91,-1.39,-1.85,-0.40,0.50,0.93,
1.381,1.91,-1.39,-1.85,-0.42,0.45,0.95,
1.416,1.91,-1.39,-1.85,-0.44,0.41,0.96,
1.417,1.91,-1.39,-1.85,-0.47,0.35,0.97,
1.417,1.91,-1.39,-1.85,-0.48,0.33,0.98,
1.417,1.91,-1.39,-1.85,-0.49,0.29,0.98,
1.417,1.79,-2.02,-1.66,-0.49,0.29,0.98,
1.417,1.79,-2.02,-1.66,-0.51,0.25,0.98,
1.417,1.79,-2.02,-1.66,-0.52,0.21,0.99,
1.417,1.79,-2.02,-1.66,-0.52,0.15,0.99,
1.417,1.79,-2.02,-1.66,-0.53,0.13,0.99,
1.418,1.79,-2.02,-1.66,-0.53,0.08,0.99,
1.418,0.99,-2.24,-1.06,-0.53,0.08,0.99,
1.418,0.99,-2.24,-1.06,-0.53,0.03,0.99,
1.418,0.99,-2.24,-1.06,-0.52,-0.01,0.99,
1.418,0.99,-2.24,-1.06,-0.52,-0.05,0.97,
1.418,0.99,-2.24,-1.06,-0.52,-0.06,0.97,
1.418,0.99,-2.24,-1.06,-0.52,-0.05,0.95,
1.433,0.17,-2.53,-0.41,-0.52,-0.05,0.95,
1.433,0.17,-2.53,-0.41,-0.51,-0.04,0.92,
1.433,0.17,-2.53,-0.41,-0.51,-0.01,0.90,
1.433,0.17,-2.53,-0.41,-0.51,0.04,0.85,
1.433,0.17,-2.53,-0.41,-0.50,0.09,0.80,
1.434,0.17,-2.53,-0.41,-0.50,0.11,0.78,
1.434,-0.55,-2.57,-0.07,-0.50,0.11,0.78,
1.434,-0.55,-2.57,-0.07,-0.49,0.13,0.76,
1.434,-0.55,-2.57,-0.07,-0.48,0.17,0.73,
1.434,-0.55,-2.57,-0.07,-0.47,0.21,0.67,
1.435,-0.55,-2.57,-0.07,-0.46,0.23,0.65,
1.435,-0.55,-2.57,-0.07,-0.45,0.25,0.61,
1.435,-0.96,-2.35,0.64,-0.45,0.25,0.61,
1.435,-0.96,-2.35,0.64,-0.44,0.27,0.58,
1.435,-0.96,-2.35,0.64,-0.42,0.28,0.54,
1.435,-0.96,-2.35,0.64,-0.41,0.30,0.50,
1.436,-0.96,-2.35,0.64,-0.41,0.31,0.48,
1.44,-0.96,-2.35,0.64,-0.41,0.33,0.46,
1.44,-1.18,-2.43,0.92,-0.41,0.33,0.46,
1.44,-1.18,-2.43,0.92,-0.41,0.36,0.44,
1.44,-1.18,-2.43,0.92,-0.42,0.39,0.42,
1.443,-1.18,-2.43,0.92,-0.44,0.44,0.40,
1.444,-1.18,-2.43,0.92,-0.45,0.46,0.40,
1.446,-1.18,-2.43,0.92,-0.46,0.49,0.40,
1.451,-1.63,-2.45,0.63,-0.46,0.49,0.40,
1.452,-1.63,-2.45,0.63,-0.49,0.53,0.40,
1.452,-1.63,-2.45,0.63,-0.52,0.56,0.41,
1.453,-1.63,-2.45,0.63,-0.56,0.59,0.42,
1.454,-1.63,-2.45,0.63,-0.58,0.60,0.43,
1.456,-1.63,-2.45,0.63,-0.62,0.62,0.45,
1.459,-2.22,-2.87,0.15,-0.62,0.62,0.45,
1.459,-2.22,-2.87,0.15,-0.66,0.63,0.46,
1.46,-2.22,-2.87,0.15,-0.70,0.65,0.48,
1.463,-2.22,-2.87,0.15,-0.75,0.66,0.50,
1.464,-2.22,-2.87,0.15,-0.77,0.67,0.51,
1.467,-2.22,-2.87,0.15,-0.81,0.68,0.53,
1.469,-1.91,-2.94,-0.23,-0.81,0.68,0.53,
1.469,-1.91,-2.94,-0.23,-0.86,0.69,0.54,
1.47,-1.91,-2.94,-0.23,-0.89,0.70,0.55,
1.473,-1.91,-2.94,-0.23,-0.95,0.71,0.56,
1.474,-1.91,-2.94,-0.23,-0.96,0.71,0.57,
1.476,-1.91,-2.94,-0.23,-0.99,0.71,0.58,
1.478,-1.24,-2.70,-0.56,-0.99,0.71,0.58,
1.479,-1.24,-2.70,-0.56,-1.02,0.70,0.58,
1.48,-1.24,-2.70,-0.56,-1.04,0.70,0.58,
1.484,-1.24,-2.70,-0.56,-1.07,0.68,0.58,
1.484,-1.24,-2.70,-0.56,-1.08,0.67,0.58,
1.486,-1.24,-2.70,-0.56,-1.09,0.65,0.58,
1.488,-0.44,-2.02,-0.42,-1.09,0.65,0.58,
1.488,-0.44,-2.02,-0.42,-1.09,0.63,0.58,
1.49,-0.44,-2.02,-0.42,-1.09,0.59,0.58,
1.493,-0.44,-2.02,-0.42,-1.07,0.52,0.60,
1.494,-0.44,-2.02,-0.42,-1.06,0.49,0.60,
1.496,-0.44,-2.02,-0.42,-1.03,0.42,0.62,
1.498,0.07,-0.99,0.41,-1.03,0.42,0.62,
1.499,0.07,-0.99,0.41,-1.00,0.34,0.65,
1.508,0.07,-0.99,0.41,-0.96,0.26,0.68,
1.508,0.07,-0.99,0.41,-0.89,0.14,0.75,
1.51,0.07,-0.99,0.41,-0.86,0.10,0.77,
1.511,0.07,-0.99,0.41,-0.80,0.02,0.83,
1.511,0.24,0.18,1.24,-0.80,0.02,0.83,
1.511,0.24,0.18,1.24,-0.74,-0.06,0.89,
1.511,0.24,0.18,1.24,-0.69,-0.15,0.95,
1.517,0.24,0.18,1.24,-0.60,-0.28,1.06,
1.517,0.24,0.18,1.24,-0.57,-0.32,1.09,
1.518,0.24,0.18,1.24,-0.51,-0.39,1.17,
1.545,0.27,0.93,1.66,-0.51,-0.39,1.17,
1.546,0.27,0.93,1.66,-0.45,-0.47,1.25,
1.546,0.27,0.93,1.66,-0.39,-0.55,1.32,
1.546,0.27,0.93,1.66,-0.31,-0.66,1.44,
1.547,0.27,0.93,1.66,-0.29,-0.69,1.48,
1.547,0.27,0.93,1.66,-0.24,-0.76,1.56,
1.547,0.47,0.95,1.37,-0.24,-0.76,1.56,
1.547,0.47,0.95,1.37,-0.20,-0.82,1.63,
1.547,0.47,0.95,1.37,-0.16,-0.88,1.70,
1.548,0.47,0.95,1.37,-0.12,-0.97,1.80,
1.548,0.47,0.95,1.37,-0.11,-1.00,1.83,
1.548,0.47,0.95,1.37,-0.08,-1.06,1.89,
1.548,0.99,0.89,0.59,-0.08,-1.06,1.89,
1.548,0.99,0.89,0.59,-0.07,-1.11,1.95,
1.549,0.99,0.89,0.59,-0.05,-1.17,2.00,
1.549,0.99,0.89,0.59,-0.04,-1.25,2.07,
1.549,0.99,0.89,0.59,-0.04,-1.27,2.09,
1.549,0.99,0.89,0.59,-0.04,-1.32,2.12,
1.549,1.65,0.83,-0.20,-0.04,-1.32,2.12,
1.55,1.65,0.83,-0.20,-0.04,-1.36,2.15,
1.564,1.65,0.83,-0.20,-0.05,-1.40,2.17,
1.564,1.65,0.83,-0.20,-0.07,-1.45,2.18,
1.564,1.65,0.83,-0.20,-0.07,-1.47,2.18,
1.564,1.65,0.83,-0.20,-0.09,-1.50,2.18,
1.565,2.42,0.82,-0.80,-0.09,-1.50,2.18,
1.565,2.42,0.82,-0.80,-0.11,-1.52,2.18,
1.565,2.42,0.82,-0.80,-0.13,-1.54,2.17,
1.565,2.42,0.82,-0.80,-0.16,-1.57,2.13,
1.567,2.42,0.82,-0.80,-0.17,-1.57,2.12,
1.567,2.42,0.82,-0.80,-0.19,-1.57,2.09,
1.58,2.83,1.00,-1.09,-0.19,-1.57,2.09,
1.581,2.83,1.00,-1.09,-0.21,-1.59,2.06,
1.581,2.83,1.00,-1.09,-0.22,-1.62,2.03,
1.581,2.83,1.00,-1.09,-0.25,-1.63,1.98,
1.599,2.83,1.00,-1.09,-0.25,-1.62,1.95,
1.6,2.83,1.00,-1.09,-0.26,-1.64,1.92,
1.6,2.83,1.00,-1.09,-0.25,-1.69,1.88,
1.6,2.65,1.42,-0.50,-0.25,-1.69,1.88,
1.604,2.65,1.42,-0.50,-0.25,-1.73,1.84,
1.604,2.65,1.42,-0.50,-0.24,-1.69,1.78,
1.604,2.65,1.42,-0.50,-0.23,-1.67,1.76,
1.605,2.65,1.42,-0.50,-0.22,-1.61,1.72,
1.605,1.95,1.94,-0.00,-0.22,-1.61,1.72,
1.605,1.95,1.94,-0.00,-0.21,-1.54,1.69,
1.605,1.95,1.94,-0.00,-0.19,-1.50,1.65,
1.606,1.95,1.94,-0.00,-0.16,-1.44,1.60,
1.606,1.95,1.94,-0.00,-0.15,-1.41,1.58,
1.606,1.95,1.94,-0.00,-0.13,-1.32,1.54,
1.607,1.03,2.98,0.16,-0.13,-1.32,1.54,
1.607,1.03,2.98,0.16,-0.11,-1.21,1.50,
1.607,1.03,2.98,0.16,-0.09,-1.11,1.47,
1.607,1.03,2.98,0.16,-0.05,-1.02,1.43,
1.608,1.03,2.98,0.16,-0.04,-0.98,1.41,
1.608,1.03,2.98,0.16,-0.01,-0.88,1.37,
1.614,-0.09,3.63,0.34,-0.01,-0.88,1.37,
1.614,-0.09,3.63,0.34,0.02,-0.75,1.34,
1.615,-0.09,3.63,0.34,0.04,-0.60,1.31,
1.615,-0.09,3.63,0.34,0.09,-0.45,1.26,
1.615,-0.09,3.63,0.34,0.11,-0.43,1.25,
1.62,-0.09,3.63,0.34,0.15,-0.37,1.22,
1.62,-1.35,3.46,1.03,0.15,-0.37,1.22,
1.62,-1.35,3.46,1.03,0.18,-0.27,1.18,
1.621,-1.35,3.46,1.03,0.21,-0.15,1.15,
1.625,-1.35,3.46,1.03,0.25,0.05,1.09,
1.63,-1.35,3.46,1.03,0.26,0.12,1.07,
1.631,-1.35,3.46,1.03,0.28,0.28,1.04,
1.631,-1.78,2.41,0.35,0.28,0.28,1.04,
1.631,-1.78,2.41,0.35,0.29,0.45,1.00,
1.631,-1.78,2.41,0.35,0.30,0.63,0.95,
1.637,-1.78,2.41,0.35,0.31,0.88,0.88,
1.638,-1.78,2.41,0.35,0.32,0.97,0.86,
1.638,-1.78,2.41,0.35,0.32,1.16,0.80,
1.639,-1.74,1.33,-0.59,0.32,1.16,0.80,
1.639,-1.74,1.33,-0.59,0.31,1.35,0.75,
1.643,-1.74,1.33,-0.59,0.31,1.54,0.70,
1.644,-1.74,1.33,-0.59,0.29,1.84,0.62,
1.648,-1.74,1.33,-0.59,0.29,1.94,0.59,
1.648,-1.74,1.33,-0.59,0.27,2.13,0.55,
1.66,-1.59,1.02,-1.26,0.27,2.13,0.55,
1.661,-1.59,1.02,-1.26,0.26,2.31,0.50,
1.661,-1.59,1.02,-1.26,0.25,2.47,0.46,
1.661,-1.59,1.02,-1.26,0.22,2.69,0.39,
1.662,-1.59,1.02,-1.26,0.22,2.75,0.37,
1.662,-1.59,1.02,-1.26,0.20,2.87,0.32,
1.668,-0.82,1.09,-0.86,0.20,2.87,0.32,
1.669,-0.82,1.09,-0.86,0.17,2.97,0.27,
1.669,-0.82,1.09,-0.86,0.14,3.05,0.22,
1.669,-0.82,1.09,-0.86,0.09,3.12,0.15,
1.67,-0.82,1.09,-0.86,0.07,3.14,0.13,
1.67,-0.82,1.09,-0.86,0.02,3.16,0.09,
1.67,0.48,1.16,-0.37,0.02,3.16,0.09,
1.67,0.48,1.16,-0.37,-0.03,3.17,0.05,
1.681,0.48,1.16,-0.37,-0.09,3.18,0.01,
1.69,0.48,1.16,-0.37,-0.19,3.19,-0.03,
1.691,0.48,1.16,-0.37,-0.22,3.19,-0.05,
1.691,0.48,1.16,-0.37,-0.29,3.17,-0.07,
1.691,1.57,1.40,0.11,-0.29,3.17,-0.07,
1.692,1.57,1.40,0.11,-0.37,3.13,-0.10,
1.692,1.57,1.40,0.11,-0.44,3.07,-0.12,
1.692,1.57,1.40,0.11,-0.56,2.99,-0.15,
1.692,1.57,1.40,0.11,-0.61,2.95,-0.17,
1.693,1.57,1.40,0.11,-0.69,2.88,-0.18,
1.693,2.21,1.77,0.22,-0.69,2.88,-0.18,
1.693,2.21,1.77,0.22,-0.78,2.80,-0.20,
1.693,2.21,1.77,0.22,-0.86,2.71,-0.21,
1.693,2.21,1.77,0.22,-0.97,2.57,-0.22,
1.696,2.21,1.77,0.22,-1.01,2.53,-0.23,
1.697,2.21,1.77,0.22,-1.07,2.45,-0.23,
1.7,2.04,2.12,0.44,-1.07,2.45,-0.23,
1.7,2.04,2.12,0.44,-1.14,2.39,-0.23,
1.701,2.04,2.12,0.44,-1.20,2.34,-0.22,
1.703,2.04,2.12,0.44,-1.28,2.23,-0.20,
1.712,2.04,2.12,0.44,-1.30,2.18,-0.19,
1.712,2.04,2.12,0.44,-1.34,2.12,-0.17,
1.713,0.73,2.32,0.57,-1.34,2.12,-0.17,
1.713,0.73,2.32,0.57,-1.38,2.08,-0.15,
1.713,0.73,2.32,0.57,-1.42,2.05,-0.13,
1.713,0.73,2.32,0.57,-1.47,1.99,-0.09,
1.714,0.73,2.32,0.57,-1.49,1.97,-0.08,
1.721,0.73,2.32,0.57,-1.51,1.90,-0.05,
1.722,-0.50,1.86,0.45,-1.51,1.90,-0.05,
1.722,-0.50,1.86,0.45,-1.53,1.82,-0.02,
1.723,-0.50,1.86,0.45,-1.53,1.74,0.00,
1.723,-0.50,1.86,0.45,-1.51,1.63,0.05,
1.724,-0.50,1.86,0.45,-1.50,1.60,0.06,
1.726,-0.50,1.86,0.45,-1.46,1.55,0.09,
1.728,-1.35,1.07,1.56,-1.46,1.55,0.09,
1.729,-1.35,1.07,1.56,-1.43,1.50,0.11,
1.73,-1.35,1.07,1.56,-1.38,1.47,0.14,
1.733,-1.35,1.07,1.56,-1.31,1.44,0.18,
1.734,-1.35,1.07,1.56,-1.29,1.43,0.19,
1.736,-1.35,1.07,1.56,-1.25,1.43,0.21,
1.739,-1.51,0.59,1.66,-1.25,1.43,0.21,
1.739,-1.51,0.59,1.66,-1.20,1.43,0.23,
1.755,-1.51,0.59,1.66,-1.16,1.43,0.24,
1.755,-1.51,0.59,1.66,-1.09,1.44,0.25,
1.755,-1.51,0.59,1.66,-1.08,1.45,0.25,
1.755,-1.51,0.59,1.66,-1.05,1.47,0.25,
1.755,-1.06,0.08,0.70,-1.05,1.47,0.25,
1.756,-1.06,0.08,0.70,-1.02,1.50,0.24,
1.756,-1.06,0.08,0.70,-0.99,1.54,0.22,
1.756,-1.06,0.08,0.70,-0.96,1.64,0.18,
1.756,-1.06,0.08,0.70,-0.95,1.67,0.17,
1.757,-1.06,0.08,0.70,-0.94,1.72,0.14,
1.76,0.06,-0.38,-0.42,-0.94,1.72,0.14,
1.761,0.06,-0.38,-0.42,-0.93,1.78,0.10,
1.761,0.06,-0.38,-0.42,-0.94,1.84,0.06,
1.764,0.06,-0.38,-0.42,-0.95,1.91,-0.00,
1.767,0.06,-0.38,-0.42,-0.99,1.98,-0.07,
1.768,0.06,-0.38,-0.42,-1.00,2.00,-0.10,
1.776,1.05,-0.41,-1.69,-1.00,2.00,-0.10,
1.777,1.05,-0.41,-1.69,-1.02,2.02,-0.12,
1.777,1.05,-0.41,-1.69,-1.05,2.05,-0.17,
1.777,1.05,-0.41,-1.69,-1.12,2.08,-0.23,
1.777,1.05,-0.41,-1.69,-1.14,2.09,-0.25,
1.777,1.05,-0.41,-1.69,-1.19,2.09,-0.29,
1.779,1.34,-0.72,-2.56,-1.19,2.09,-0.29,
1.781,1.34,-0.72,-2.56,-1.24,2.08,-0.33,
1.781,1.34,-0.72,-2.56,-1.30,2.08,-0.36,
1.789,1.34,-0.72,-2.56,-1.36,2.08,-0.43,
1.79,1.34,-0.72,-2.56,-1.39,2.08,-0.45,
1.79,1.34,-0.72,-2.56,-1.43,2.08,-0.49,
1.792,0.92,0.09,-2.20,-1.43,2.08,-0.49,
1.792,0.92,0.09,-2.20,-1.47,2.08,-0.52,
1.792,0.92,0.09,-2.20,-1.51,2.08,-0.55,
1.793,0.92,0.09,-2.20,-1.55,2.08,-0.59,
1.794,0.92,0.09,-2.20,-1.56,2.08,-0.60,
1.823,0.92,0.09,-2.20,-1.58,2.09,-0.61,
1.823,-0.19,1.04,-1.52,-1.58,2.09,-0.61,
1.823,-0.19,1.04,-1.52,-1.60,2.10,-0.61,
1.824,-0.19,1.04,-1.52,-1.62,2.12,-0.61,
1.824,-0.19,1.04,-1.52,-1.63,2.17,-0.59,
1.824,-0.19,1.04,-1.52,-1.64,2.19,-0.58,
1.824,-0.19,1.04,-1.52,-1.64,2.24,-0.57,
1.824,-1.25,1.91,-1.04,-1.64,2.24,-0.57,
1.824,-1.25,1.91,-1.04,-1.65,2.31,-0.55,
1.824,-1.25,1.91,-1.04,-1.65,2.39,-0.52,
1.824,-1.25,1.91,-1.04,-1.67,2.53,-0.47,
1.825,-1.25,1.91,-1.04,-1.67,2.58,-0.46,
1.825,-1.25,1.91,-1.04,-1.68,2.69,-0.43,
1.825,-2.06,2.71,-0.80,-1.68,2.69,-0.43,
1.825,-2.06,2.71,-0.80,-1.69,2.80,-0.39,
1.825,-2.06,2.71,-0.80,-1.69,2.92,-0.35,
1.825,-2.06,2.71,-0.80,-1.71,3.10,-0.29,
1.827,-2.06,2.71,-0.80,-1.71,3.16,-0.27,
1.827,-2.06,2.71,-0.80,-1.71,3.29,-0.23,
1.828,-2.69,3.37,-0.54,-1.71,3.29,-0.23,
1.829,-2.69,3.37,-0.54,-1.70,3.42,-0.18,
1.83,-2.69,3.37,-0.54,-1.68,3.57,-0.13,
1.833,-2.69,3.37,-0.54,-1.64,3.78,-0.06,
1.834,-2.69,3.37,-0.54,-1.62,3.86,-0.03,
1.836,-2.69,3.37,-0.54,-1.57,4.01,0.02,
1.839,-2.90,3.96,0.40,-1.57,4.01,0.02,
1.839,-2.90,3.96,0.40,-1.51,4.16,0.09,
1.84,-2.90,3.96,0.40,-1.44,4.32,0.15,
1.843,-2.90,3.96,0.40,-1.32,4.54,0.25,
1.844,-2.90,3.96,0.40,-1.28,4.61,0.28,
1.846,-2.90,3.96,0.40,-1.19,4.75,0.35,
1.849,-2.75,4.39,0.72,-1.19,4.75,0.35,
1.849,-2.75,4.39,0.72,-1.10,4.87,0.41,
1.85,-2.75,4.39,0.72,-1.01,4.97,0.48,
1.853,-2.75,4.39,0.72,-0.89,5.09,0.57,
1.854,-2.75,4.39,0.72,-0.86,5.12,0.59,
1.856,-2.75,4.39,0.72,-0.78,5.16,0.65,
1.858,-2.00,4.51,0.27,-0.78,5.16,0.65,
1.859,-2.00,4.51,0.27,-0.71,5.17,0.69,
1.86,-2.00,4.51,0.27,-0.64,5.17,0.74,
1.863,-2.00,4.51,0.27,-0.54,5.13,0.80,
1.864,-2.00,4.51,0.27,-0.50,5.10,0.82,
1.866,-2.00,4.51,0.27,-0.43,5.04,0.85,
1.869,-0.94,4.27,0.31,-0.43,5.04,0.85,
1.869,-0.94,4.27,0.31,-0.35,4.96,0.87,
1.87,-0.94,4.27,0.31,-0.27,4.85,0.89,
1.873,-0.94,4.27,0.31,-0.13,4.64,0.90,
1.874,-0.94,4.27,0.31,-0.09,4.55,0.90,
1.876,-0.94,4.27,0.31,0.01,4.36,0.90,
1.878,0.41,3.82,1.99,0.01,4.36,0.90,
1.879,0.41,3.82,1.99,0.11,4.15,0.89,
1.88,0.41,3.82,1.99,0.21,3.92,0.88,
1.883,0.41,3.82,1.99,0.35,3.54,0.87,
1.884,0.41,3.82,1.99,0.40,3.40,0.86,
1.886,0.41,3.82,1.99,0.48,3.13,0.84,
1.888,1.22,2.99,3.71,0.48,3.13,0.84,
1.889,1.22,2.99,3.71,0.55,2.82,0.82,
1.89,1.22,2.99,3.71,0.61,2.50,0.80,
1.893,1.22,2.99,3.71,0.65,2.00,0.76,
1.894,1.22,2.99,3.71,0.65,1.82,0.75,
1.896,1.22,2.99,3.71,0.63,1.48,0.72,
1.91,1.36,2.16,3.49,0.63,1.48,0.72,
1.911,1.36,2.16,3.49,0.58,1.14,0.70,
1.911,1.36,2.16,3.49,0.51,0.82,0.67,
1.912,1.36,2.16,3.49,0.34,0.38,0.65,
1.912,1.36,2.16,3.49,0.28,0.25,0.64,
1.912,1.36,2.16,3.49,0.14,0.03,0.63,
1.93,0.28,1.94,0.85,0.14,0.03,0.63,
1.93,0.28,1.94,0.85,0.01,-0.14,0.63,
1.93,0.28,1.94,0.85,-0.12,-0.27,0.63,
1.931,0.28,1.94,0.85,-0.32,-0.39,0.65,
1.931,0.28,1.94,0.85,-0.38,-0.42,0.65,
1.932,0.28,1.94,0.85,-0.50,-0.44,0.67,
1.932,-1.08,2.54,-1.54,-0.50,-0.44,0.67,
1.933,-1.08,2.54,-1.54,-0.61,-0.45,0.70,
1.933,-1.08,2.54,-1.54,-0.71,-0.43,0.74,
1.933,-1.08,2.54,-1.54,-0.85,-0.39,0.80,
1.934,-1.08,2.54,-1.54,-0.89,-0.37,0.82,
1.934,-1.08,2.54,-1.54,-0.97,-0.33,0.87,
1.935,-2.09,3.18,-2.98,-0.97,-0.33,0.87,
1.935,-2.09,3.18,-2.98,-1.04,-0.28,0.91,
1.935,-2.09,3.18,-2.98,-1.09,-0.21,0.95,
1.936,-2.09,3.18,-2.98,-1.14,-0.06,0.99,
1.936,-2.09,3.18,-2.98,-1.15,0.00,0.99,
1.937,-2.09,3.18,-2.98,-1.17,0.13,1.01,
1.945,-2.11,3.20,-3.73,-1.17,0.13,1.01,
1.946,-2.11,3.20,-3.73,-1.19,0.25,1.02,
1.946,-2.11,3.20,-3.73,-1.23,0.34,1.05,
1.947,-2.11,3.20,-3.73,-1.31,0.42,1.12,
1.947,-2.11,3.20,-3.73,-1.34,0.43,1.15,
1.947,-2.11,3.20,-3.73,-1.42,0.44,1.22,
1.96,-2.79,3.44,-4.82,-1.42,0.44,1.22,
1.961,-2.79,3.44,-4.82,-1.51,0.43,1.30,
1.961,-2.79,3.44,-4.82,-1.59,0.43,1.38,
1.961,-2.79,3.44,-4.82,-1.72,0.43,1.51,
1.962,-2.79,3.44,-4.82,-1.77,0.43,1.55,
1.962,-2.79,3.44,-4.82,-1.86,0.43,1.62,
1.962,-3.55,3.64,-5.61,-1.86,0.43,1.62,
1.962,-3.55,3.64,-5.61,-1.94,0.42,1.70,
1.962,-3.55,3.64,-5.61,-2.02,0.42,1.76,
1.963,-3.55,3.64,-5.61,-2.13,0.41,1.85,
1.966,-3.55,3.64,-5.61,-2.16,0.40,1.88,
1.966,-3.55,3.64,-5.61,-2.23,0.38,1.93,
1.97,-3.71,4.05,-5.46,-2.23,0.38,1.93,
1.971,-3.71,4.05,-5.46,-2.29,0.37,1.98,
1.971,-3.71,4.05,-5.46,-2.34,0.35,2.02,
1.973,-3.71,4.05,-5.46,-2.41,0.33,2.07,
1.974,-3.71,4.05,-5.46,-2.43,0.32,2.09,
1.976,-3.71,4.05,-5.46,-2.47,0.32,2.13,
1.978,-3.83,4.18,-5.22,-2.47,0.32,2.13,
1.979,-3.83,4.18,-5.22,-2.51,0.32,2.16,
1.98,-3.83,4.18,-5.22,-2.54,0.33,2.20,
1.983,-3.83,4.18,-5.22,-2.60,0.36,2.26,
1.984,-3.83,4.18,-5.22,-2.63,0.37,2.28,
1.986,-3.83,4.18,-5.22,-2.66,0.41,2.33,
1.989,-3.93,4.35,-4.76,-2.66,0.41,2.33,
1.99,-3.93,4.35,-4.76,-2.70,0.44,2.37,
1.99,-3.93,4.35,-4.76,-2.73,0.49,2.42,
1.993,-3.93,4.35,-4.76,-2.76,0.56,2.50,
1.994,-3.93,4.35,-4.76,-2.77,0.58,2.53,
1.996,-3.93,4.35,-4.76,-2.79,0.63,2.59,
1.999,-4.25,4.36,-3.92,-2.79,0.63,2.59,
2.0,-4.25,4.36,-3.92,-2.79,0.68,2.64,
2.001,-4.25,4.36,-3.92,-2.79,0.72,2.70,
2.003,-4.25,4.36,-3.92,-2.78,0.79,2.78,
2.004,-4.25,4.36,-3.92,-2.77,0.81,2.81,
2.008,-4.25,4.36,-3.92,-2.74,0.86,2.87,
2.009,-4.06,4.52,-2.40,-2.74,0.86,2.87,
2.009,-4.06,4.52,-2.40,-2.71,0.91,2.93,
2.01,-4.06,4.52,-2.40,-2.68,0.96,2.99,
2.013,-4.06,4.52,-2.40,-2.64,1.07,3.07,
2.017,-4.06,4.52,-2.40,-2.62,1.11,3.10,
2.018,-4.06,4.52,-2.40,-2.60,1.21,3.15,
2.021,-3.82,4.80,-1.67,-2.60,1.21,3.15,
2.022,-3.82,4.80,-1.67,-2.59,1.31,3.20,
2.022,-3.82,4.80,-1.67,-2.59,1.42,3.24,
2.024,-3.82,4.80,-1.67,-2.60,1.64,3.29,
2.025,-3.82,4.80,-1.67,-2.61,1.72,3.29,
2.027,-3.82,4.80,-1.67,-2.66,1.89,3.30,
2.029,-2.13,4.21,-2.23,-2.66,1.89,3.30,
2.029,-2.13,4.21,-2.23,-2.71,2.03,3.30,
2.03,-2.13,4.21,-2.23,-2.77,2.11,3.29,
2.034,-2.13,4.21,-2.23,-2.84,2.27,3.28,
2.035,-2.13,4.21,-2.23,-2.89,2.39,3.28,
2.036,-2.13,4.21,-2.23,-2.92,2.46,3.29,
2.041,0.46,-1.71,-3.05,-2.92,2.46,3.29,
2.041,0.46,-1.71,-3.05,-3.00,2.64,3.30,
2.041,0.46,-1.71,-3.05,-3.08,2.86,3.33,
2.046,0.46,-1.71,-3.05,-3.20,3.27,3.43,
2.046,0.46,-1.71,-3.05,-3.24,3.41,3.47,
2.046,0.46,-1.71,-3.05,-3.31,3.70,3.58,
2.051,-0.32,-11.19,-4.48,-3.31,3.70,3.58,
2.052,-0.32,-11.19,-4.48,-3.35,3.99,3.72,
2.052,-0.32,-11.19,-4.48,-3.39,4.27,3.90,
2.055,-0.32,-11.19,-4.48,-3.43,4.69,4.24,
2.056,-0.32,-11.19,-4.48,-3.43,4.82,4.37,
2.057,-0.32,-11.19,-4.48,-3.40,5.07,4.65,
2.062,-4.65,-21.53,-2.70,-3.40,5.07,4.65,
2.062,-4.65,-21.53,-2.70,-3.35,5.29,4.95,
2.062,-4.65,-21.53,-2.70,-3.27,5.47,5.25,
2.063,-4.65,-21.53,-2.70,-3.09,5.63,5.71,
2.066,-4.65,-21.53,-2.70,-2.94,5.67,6.00,
2.078,-4.65,-21.53,-2.70,-2.85,5.67,6.14,
2.079,-6.30,-31.21,2.86,-2.85,5.67,6.14,
2.079,-6.30,-31.21,2.86,-2.66,5.63,6.40,
2.08,-6.30,-31.21,2.86,-2.46,5.54,6.61,
2.08,-6.30,-31.21,2.86,-2.12,5.32,6.84,
2.099,-6.30,-31.21,2.86,-2.00,5.24,6.88,
2.099,-6.30,-31.21,2.86,-1.23,4.68,6.84,
2.099,-6.30,-31.21,2.86,-1.23,4.68,6.84,
2.1,-6.30,-31.21,2.86,-1.23,4.68,6.84,
2.1,2.51,-28.80,8.39,-1.23,4.68,6.84,
2.1,2.51,-28.80,8.39,-0.70,4.27,6.58,
2.1,2.51,-28.80,8.39,-0.58,4.17,6.49,
2.101,2.51,-28.80,8.39,-0.45,4.07,6.40,
2.101,6.09,-22.96,8.75,-0.45,4.07,6.40,
2.104,6.09,-22.96,8.75,-0.21,3.88,6.21,
2.104,6.09,-22.96,8.75,0.02,3.71,6.00,
2.104,6.09,-22.96,8.75,0.34,3.48,5.67,
2.104,6.09,-22.96,8.75,0.44,3.41,5.56,
2.105,6.09,-22.96,8.75,0.64,3.28,5.34,
2.12,8.40,-12.36,6.90,0.64,3.28,5.34,
2.121,8.40,-12.36,6.90,0.82,3.16,5.11,
2.121,8.40,-12.36,6.90,0.98,3.05,4.88,
2.121,8.40,-12.36,6.90,1.20,2.90,4.53,
2.121,8.40,-12.36,6.90,1.33,2.82,4.30,
2.121,8.40,-12.36,6.90,1.39,2.79,4.19,
2.122,8.49,-4.12,4.49,1.39,2.79,4.19,
2.122,8.49,-4.12,4.49,1.50,2.73,3.96,
2.122,8.49,-4.12,4.49,1.61,2.69,3.75,
2.122,8.49,-4.12,4.49,1.75,2.64,3.43,
2.122,8.49,-4.12,4.49,1.86,2.62,3.14,
2.123,8.49,-4.12,4.49,1.89,2.62,3.04,
2.123,7.87,1.02,3.06,1.89,2.62,3.04,
2.123,7.87,1.02,3.06,1.92,2.62,2.94,
2.123,7.87,1.02,3.06,1.97,2.62,2.75,
2.123,7.87,1.02,3.06,2.03,2.64,2.47,
2.124,7.87,1.02,3.06,2.04,2.65,2.38,
2.126,7.87,1.02,3.06,2.05,2.71,2.11,
2.128,6.96,4.41,1.87,2.05,2.71,2.11,
2.129,6.96,4.41,1.87,2.05,2.73,2.02,
2.132,6.96,4.41,1.87,2.03,2.79,1.85,
2.138,6.96,4.41,1.87,1.97,2.89,1.58,
2.138,6.96,4.41,1.87,1.95,2.93,1.50,
2.138,6.96,4.41,1.87,1.89,3.03,1.32,
2.139,6.49,6.54,0.96,1.89,3.03,1.32,
2.14,6.49,6.54,0.96,1.81,3.14,1.15,
2.14,6.49,6.54,0.96,1.72,3.27,0.97,
2.143,6.49,6.54,0.96,1.57,3.47,0.71,
2.144,6.49,6.54,0.96,1.46,3.60,0.53,
2.148,6.49,6.54,0.96,1.41,3.66,0.44,
2.149,5.63,7.31,-0.24,1.41,3.66,0.44,
2.149,5.63,7.31,-0.24,1.30,3.78,0.27,
2.15,5.63,7.31,-0.24,1.19,3.87,0.10,
2.153,5.63,7.31,-0.24,1.05,3.97,-0.13,
2.154,5.63,7.31,-0.24,1.00,4.00,-0.20,
2.157,5.63,7.31,-0.24,0.87,4.05,-0.40,
2.158,4.01,6.27,-0.67,0.87,4.05,-0.40,
2.159,4.01,6.27,-0.67,0.79,4.06,-0.52,
2.16,4.01,6.27,-0.67,0.76,4.06,-0.57,
2.166,4.01,6.27,-0.67,0.65,4.05,-0.72,
2.166,4.01,6.27,-0.67,0.59,4.03,-0.80,
2.166,4.01,6.27,-0.67,0.53,4.01,-0.87,
2.17,1.71,4.36,-0.65,0.53,4.01,-0.87,
2.17,1.71,4.36,-0.65,0.48,3.99,-0.93,
2.17,1.71,4.36,-0.65,0.45,3.97,-0.95,
2.173,1.71,4.36,-0.65,0.39,3.93,-1.02,
2.174,1.71,4.36,-0.65,0.35,3.89,-1.04,
2.176,1.71,4.36,-0.65,0.31,3.85,-1.05,
2.178,-0.69,2.15,-0.67,0.31,3.85,-1.05,
2.179,-0.69,2.15,-0.67,0.28,3.81,-1.06,
2.181,-0.69,2.15,-0.67,0.26,3.79,-1.05,
2.183,-0.69,2.15,-0.67,0.23,3.73,-1.02,
2.184,-0.69,2.15,-0.67,0.21,3.68,-0.99,
2.186,-0.69,2.15,-0.67,0.19,3.62,-0.95,
2.188,-3.02,-0.36,-0.87,0.19,3.62,-0.95,
2.188,-3.02,-0.36,-0.87,0.17,3.57,-0.90,
2.19,-3.02,-0.36,-0.87,0.16,3.50,-0.84,
2.193,-3.02,-0.36,-0.87,0.16,3.42,-0.76,
2.194,-3.02,-0.36,-0.87,0.16,3.33,-0.68,
2.2,-3.02,-0.36,-0.87,0.17,3.24,-0.60,
2.201,-5.30,-2.92,-0.82,0.17,3.24,-0.60,
2.201,-5.30,-2.92,-0.82,0.19,3.13,-0.50,
2.201,-5.30,-2.92,-0.82,0.21,3.01,-0.40,
2.203,-5.30,-2.92,-0.82,0.25,2.88,-0.29,
2.204,-5.30,-2.92,-0.82,0.30,2.75,-0.17,
2.206,-5.30,-2.92,-0.82,0.35,2.61,-0.05,
2.208,-6.99,-5.10,-0.16,0.35,2.61,-0.05,
2.208,-6.99,-5.10,-0.16,0.40,2.46,0.07,
2.21,-6.99,-5.10,-0.16,0.46,2.32,0.19,
2.227,-6.99,-5.10,-0.16,0.51,2.18,0.32,
2.227,-6.99,-5.10,-0.16,0.56,2.04,0.44,
2.227,-6.99,-5.10,-0.16,0.60,1.92,0.56,
2.227,-7.66,-5.97,-0.78,0.60,1.92,0.56,
2.228,-7.66,-5.97,-0.78,0.65,1.80,0.67,
2.228,-7.66,-5.97,-0.78,0.68,1.70,0.77,
2.228,-7.66,-5.97,-0.78,0.72,1.60,0.85,
2.228,-7.66,-5.97,-0.78,0.75,1.52,0.92,
2.228,-7.66,-5.97,-0.78,0.78,1.46,0.98,
2.228,-5.93,-4.99,-1.83,0.78,1.46,0.98,
2.228,-5.93,-4.99,-1.83,0.81,1.40,1.03,
2.231,-5.93,-4.99,-1.83,0.84,1.36,1.07,
2.233,-5.93,-4.99,-1.83,0.87,1.33,1.10,
2.234,-5.93,-4.99,-1.83,0.89,1.30,1.11,
2.236,-5.93,-4.99,-1.83,0.92,1.29,1.13,
2.238,-3.45,-2.50,-2.25,0.92,1.29,1.13,
2.238,-3.45,-2.50,-2.25,0.95,1.28,1.13,
2.25,-3.45,-2.50,-2.25,0.97,1.28,1.13,
2.25,-3.45,-2.50,-2.25,1.00,1.29,1.13,
2.25,-3.45,-2.50,-2.25,1.03,1.30,1.12,
2.251,-3.45,-2.50,-2.25,1.05,1.31,1.10,
2.251,-1.31,0.01,-2.18,1.05,1.31,1.10,
2.251,-1.31,0.01,-2.18,1.07,1.33,1.09,
2.251,-1.31,0.01,-2.18,1.09,1.35,1.06,
2.254,-1.31,0.01,-2.18,1.11,1.37,1.04,
2.255,-1.31,0.01,-2.18,1.12,1.39,1.01,
2.256,-1.31,0.01,-2.18,1.13,1.41,0.98,
2.258,0.32,2.12,-2.50,1.13,1.41,0.98,
2.259,0.32,2.12,-2.50,1.14,1.42,0.94,
2.26,0.32,2.12,-2.50,1.14,1.43,0.91,
2.264,0.32,2.12,-2.50,1.13,1.44,0.85,
2.264,0.32,2.12,-2.50,1.12,1.45,0.83,
2.267,0.32,2.12,-2.50,1.11,1.45,0.78,
2.272,1.48,3.63,-3.01,1.11,1.45,0.78,
2.272,1.48,3.63,-3.01,1.09,1.45,0.74,
2.272,1.48,3.63,-3.01,1.07,1.46,0.69,
2.273,1.48,3.63,-3.01,1.04,1.45,0.65,
2.274,1.48,3.63,-3.01,1.01,1.45,0.60,
2.277,1.48,3.63,-3.01,0.97,1.44,0.56,
2.28,2.27,4.50,-3.69,0.97,1.44,0.56,
2.281,2.27,4.50,-3.69,0.93,1.44,0.51,
2.281,2.27,4.50,-3.69,0.88,1.43,0.46,
2.283,2.27,4.50,-3.69,0.82,1.42,0.42,
2.284,2.27,4.50,-3.69,0.76,1.40,0.38,
2.286,2.27,4.50,-3.69,0.70,1.38,0.34,
2.288,2.60,4.79,-4.10,0.70,1.38,0.34,
2.289,2.60,4.79,-4.10,0.63,1.36,0.30,
2.29,2.60,4.79,-4.10,0.56,1.35,0.26,
2.293,2.60,4.79,-4.10,0.49,1.33,0.22,
2.294,2.60,4.79,-4.10,0.42,1.32,0.18,
2.297,2.60,4.79,-4.10,0.35,1.31,0.14,
2.299,2.44,3.95,-4.29,0.35,1.31,0.14,
2.299,2.44,3.95,-4.29,0.28,1.30,0.11,
2.3,2.44,3.95,-4.29,0.21,1.29,0.08,
2.303,2.44,3.95,-4.29,0.14,1.27,0.06,
2.304,2.44,3.95,-4.29,0.08,1.26,0.04,
2.306,2.44,3.95,-4.29,0.01,1.24,0.02,
2.308,1.46,2.25,-3.87,0.01,1.24,0.02,
2.309,1.46,2.25,-3.87,-0.05,1.22,0.01,
2.31,1.46,2.25,-3.87,-0.11,1.19,0.00,
2.313,1.46,2.25,-3.87,-0.17,1.17,-0.01,
2.314,1.46,2.25,-3.87,-0.23,1.14,-0.02,
2.316,1.46,2.25,-3.87,-0.28,1.11,-0.03,
2.319,0.69,0.27,-3.38,-0.28,1.11,-0.03,
2.319,0.69,0.27,-3.38,-0.33,1.07,-0.03,
2.32,0.69,0.27,-3.38,-0.38,1.03,-0.04,
2.323,0.69,0.27,-3.38,-0.42,0.98,-0.06,
2.324,0.69,0.27,-3.38,-0.47,0.94,-0.07,
2.329,0.69,0.27,-3.38,-0.51,0.89,-0.08,
2.331,0.33,-1.66,-2.55,-0.51,0.89,-0.08,
2.331,0.33,-1.66,-2.55,-0.55,0.84,-0.09,
2.331,0.33,-1.66,-2.55,-0.59,0.78,-0.11,
2.334,0.33,-1.66,-2.55,-0.63,0.71,-0.13,
2.334,0.33,-1.66,-2.55,-0.67,0.64,-0.15,
2.336,0.33,-1.66,-2.55,-0.70,0.57,-0.18,
2.339,0.58,-3.26,-1.79,-0.70,0.57,-0.18,
2.34,0.58,-3.26,-1.79,-0.73,0.48,-0.21,
2.34,0.58,-3.26,-1.79,-0.76,0.40,-0.24,
2.343,0.58,-3.26,-1.79,-0.80,0.27,-0.30,
2.344,0.58,-3.26,-1.79,-0.81,0.22,-0.32,
2.359,0.58,-3.26,-1.79,-0.83,0.14,-0.36,
2.359,1.19,-4.20,-0.88,-0.83,0.14,-0.36,
2.36,1.19,-4.20,-0.88,-0.85,0.05,-0.40,
2.36,1.19,-4.20,-0.88,-0.87,-0.04,-0.44,
2.36,1.19,-4.20,-0.88,-0.89,-0.12,-0.48,
2.36,1.19,-4.20,-0.88,-0.90,-0.20,-0.52,
2.36,1.19,-4.20,-0.88,-0.91,-0.28,-0.56,
2.36,1.78,-4.31,-0.27,-0.91,-0.28,-0.56,
2.36,1.78,-4.31,-0.27,-0.92,-0.35,-0.60,
2.361,1.78,-4.31,-0.27,-0.93,-0.42,-0.64,
2.378,1.78,-4.31,-0.27,-0.93,-0.52,-0.71,
2.378,1.78,-4.31,-0.27,-0.93,-0.55,-0.73,
2.378,1.78,-4.31,-0.27,-0.93,-0.61,-0.77,
2.378,2.13,-3.51,0.16,-0.93,-0.61,-0.77,
2.378,2.13,-3.51,0.16,-0.93,-0.66,-0.81,
2.379,2.13,-3.51,0.16,-0.92,-0.71,-0.86,
2.379,2.13,-3.51,0.16,-0.92,-0.75,-0.90,
2.379,2.13,-3.51,0.16,-0.91,-0.79,-0.93,
2.379,2.13,-3.51,0.16,-0.90,-0.83,-0.97,
2.379,2.29,-2.46,0.49,-0.90,-0.83,-0.97,
2.379,2.29,-2.46,0.49,-0.89,-0.86,-1.01,
2.38,2.29,-2.46,0.49,-0.89,-0.88,-1.04,
2.383,2.29,-2.46,0.49,-0.88,-0.90,-1.07,
2.384,2.29,-2.46,0.49,-0.87,-0.92,-1.10,
2.386,2.29,-2.46,0.49,-0.87,-0.93,-1.13,
2.388,2.06,-1.33,0.75,-0.87,-0.93,-1.13,
2.388,2.06,-1.33,0.75,-0.86,-0.93,-1.17,
2.39,2.06,-1.33,0.75,-0.86,-0.91,-1.19,
2.393,2.06,-1.33,0.75,-0.87,-0.87,-1.22,
2.394,2.06,-1.33,0.75,-0.88,-0.73,-1.24,
2.396,2.06,-1.33,0.75,-0.91,-0.48,-1.26,
2.399,1.49,-0.12,2.90,-0.91,-0.48,-1.26,
2.399,1.49,-0.12,2.90,-0.92,-0.19,-1.27,
2.4,1.49,-0.12,2.90,-0.92,0.13,-1.27,
2.403,1.49,-0.12,2.90,-0.91,0.48,-1.26,
2.404,1.49,-0.12,2.90,-0.90,0.83,-1.24,
2.407,1.49,-0.12,2.90,-0.86,1.19,-1.21,
2.418,-0.55,1.12,6.22,-0.86,1.19,-1.21,
2.418,-0.55,1.12,6.22,-0.82,1.53,-1.18,
2.418,-0.55,1.12,6.22,-0.77,1.86,-1.15,
2.419,-0.55,1.12,6.22,-0.71,2.16,-1.13,
2.419,-0.55,1.12,6.22,-0.65,2.43,-1.11,
2.419,-0.55,1.12,6.22,-0.59,2.68,-1.08,
2.419,-1.35,0.89,6.50,-0.59,2.68,-1.08,
2.419,-1.35,0.89,6.50,-0.54,2.91,-1.07,
2.422,-1.35,0.89,6.50,-0.48,3.11,-1.05,
2.423,-1.35,0.89,6.50,-0.42,3.29,-1.04,
2.424,-1.35,0.89,6.50,-0.37,3.43,-1.02,
2.427,-1.35,0.89,6.50,-0.32,3.54,-1.00,
2.43,-1.45,0.26,4.67,-0.32,3.54,-1.00,
2.43,-1.45,0.26,4.67,-0.27,3.63,-0.98,
2.431,-1.45,0.26,4.67,-0.23,3.70,-0.96,
2.435,-1.45,0.26,4.67,-0.19,3.73,-0.92,
2.435,-1.45,0.26,4.67,-0.16,3.73,-0.89,
2.436,-1.45,0.26,4.67,-0.15,3.70,-0.85,
2.439,-1.67,-0.05,2.57,-0.15,3.70,-0.85,
2.439,-1.67,-0.05,2.57,-0.15,3.63,-0.81,
2.44,-1.67,-0.05,2.57,-0.16,3.52,-0.78,
2.443,-1.67,-0.05,2.57,-0.21,3.28,-0.73,
2.444,-1.67,-0.05,2.57,-0.24,3.18,-0.72,
2.446,-1.67,-0.05,2.57,-0.29,2.97,-0.70,
2.449,-1.24,0.06,-0.04,-0.29,2.97,-0.70,
2.449,-1.24,0.06,-0.04,-0.33,2.75,-0.68,
2.45,-1.24,0.06,-0.04,-0.38,2.53,-0.66,
2.453,-1.24,0.06,-0.04,-0.45,2.18,-0.62,
2.454,-1.24,0.06,-0.04,-0.47,2.06,-0.61,
2.456,-1.24,0.06,-0.04,-0.51,1.82,-0.59,
2.458,-1.03,0.45,-0.65,-0.51,1.82,-0.59,
2.459,-1.03,0.45,-0.65,-0.53,1.57,-0.57,
2.46,-1.03,0.45,-0.65,-0.55,1.35,-0.55,
2.47,-1.03,0.45,-0.65,-0.56,1.05,-0.52,
2.471,-1.03,0.45,-0.65,-0.56,0.88,-0.50,
2.471,-1.03,0.45,-0.65,-0.56,0.80,-0.49,
2.471,-0.26,1.02,0.30,-0.56,0.80,-0.49,
2.471,-0.26,1.02,0.30,-0.56,0.67,-0.47,
2.471,-0.26,1.02,0.30,-0.55,0.54,-0.45,
2.477,-0.26,1.02,0.30,-0.54,0.38,-0.43,
2.477,-0.26,1.02,0.30,-0.54,0.33,-0.42,
2.477,-0.26,1.02,0.30,-0.53,0.24,-0.41,
2.494,0.53,1.09,0.89,-0.53,0.24,-0.41,
2.494,0.53,1.09,0.89,-0.51,0.15,-0.41,
2.494,0.53,1.09,0.89,-0.49,0.06,-0.40,
2.495,0.53,1.09,0.89,-0.47,-0.07,-0.40,
2.495,0.53,1.09,0.89,-0.46,-0.12,-0.39,
2.495,0.53,1.09,0.89,-0.45,-0.21,-0.40,
2.495,1.23,0.83,1.00,-0.45,-0.21,-0.40,
2.495,1.23,0.83,1.00,-0.43,-0.30,-0.40,
2.495,1.23,0.83,1.00,-0.42,-0.40,-0.41,
2.495,1.23,0.83,1.00,-0.41,-0.53,-0.43,
2.495,1.23,0.83,1.00,-0.41,-0.58,-0.43,
2.499,1.23,0.83,1.00,-0.40,-0.67,-0.45,
2.499,1.88,0.52,0.66,-0.40,-0.67,-0.45,
2.499,1.88,0.52,0.66,-0.40,-0.75,-0.46,
2.501,1.88,0.52,0.66,-0.41,-0.82,-0.48,
2.503,1.88,0.52,0.66,-0.42,-0.92,-0.51,
2.504,1.88,0.52,0.66,-0.42,-0.94,-0.52,
2.506,1.88,0.52,0.66,-0.44,-0.99,-0.54,
2.508,1.84,0.15,0.38,-0.44,-0.99,-0.54,
2.508,1.84,0.15,0.38,-0.45,-1.02,-0.56,
2.51,1.84,0.15,0.38,-0.48,-1.04,-0.59,
2.513,1.84,0.15,0.38,-0.51,-1.06,-0.63,
2.514,1.84,0.15,0.38,-0.53,-1.07,-0.64,
2.516,1.84,0.15,0.38,-0.56,-1.07,-0.68,
2.518,1.85,-0.13,0.28,-0.56,-1.07,-0.68,
2.519,1.85,-0.13,0.28,-0.60,-1.06,-0.71,
2.52,1.85,-0.13,0.28,-0.64,-1.04,-0.74,
2.523,1.85,-0.13,0.28,-0.70,-0.99,-0.78,
2.524,1.85,-0.13,0.28,-0.73,-0.97,-0.79,
2.526,1.85,-0.13,0.28,-0.77,-0.92,-0.81,
2.529,1.15,-0.44,0.34,-0.77,-0.92,-0.81,
2.53,1.15,-0.44,0.34,-0.82,-0.85,-0.81,
2.531,1.15,-0.44,0.34,-0.86,-0.76,-0.82,
2.533,1.15,-0.44,0.34,-0.93,-0.62,-0.81,
2.535,1.15,-0.44,0.34,-0.95,-0.57,-0.81,
2.536,1.15,-0.44,0.34,-1.00,-0.46,-0.79,
2.538,-0.35,-0.55,0.82,-1.00,-0.46,-0.79,
2.539,-0.35,-0.55,0.82,-1.04,-0.35,-0.78,
2.54,-0.35,-0.55,0.82,-1.08,-0.24,-0.76,
2.543,-0.35,-0.55,0.82,-1.14,-0.06,-0.72,
2.544,-0.35,-0.55,0.82,-1.16,-0.00,-0.71,
2.546,-0.35,-0.55,0.82,-1.18,0.12,-0.68,
2.548,-1.52,-0.45,1.45,-1.18,0.12,-0.68,
2.549,-1.52,-0.45,1.45,-1.21,0.23,-0.65,
2.55,-1.52,-0.45,1.45,-1.22,0.35,-0.62,
2.553,-1.52,-0.45,1.45,-1.24,0.50,-0.57,
2.554,-1.52,-0.45,1.45,-1.24,0.55,-0.56,
2.556,-1.52,-0.45,1.45,-1.24,0.64,-0.52,
2.558,-2.21,-0.14,2.50,-1.24,0.64,-0.52,
2.559,-2.21,-0.14,2.50,-1.24,0.71,-0.49,
2.56,-2.21,-0.14,2.50,-1.23,0.77,-0.46,
2.563,-2.21,-0.14,2.50,-1.22,0.84,-0.41,
2.564,-2.21,-0.14,2.50,-1.21,0.86,-0.40,
2.566,-2.21,-0.14,2.50,-1.19,0.88,-0.37,
2.568,-2.21,0.36,3.01,-1.19,0.88,-0.37,
2.569,-2.21,0.36,3.01,-1.17,0.88,-0.34,
2.57,-2.21,0.36,3.01,-1.15,0.88,-0.31,
2.573,-2.21,0.36,3.01,-1.12,0.86,-0.26,
2.595,-2.21,0.36,3.01,-1.10,0.84,-0.24,
2.595,-2.21,0.36,3.01,-1.07,0.80,-0.21,
2.597,-2.21,0.36,3.01,-1.04,0.74,-0.18,
2.598,-2.34,0.77,3.34,-1.04,0.74,-0.18,
2.598,-2.34,0.77,3.34,-1.01,0.68,-0.15,
2.599,-2.34,0.77,3.34,-0.96,0.56,-0.10,
2.599,-2.34,0.77,3.34,-0.94,0.51,-0.09,
2.6,-2.34,0.77,3.34,-0.92,0.41,-0.06,
2.6,-2.05,0.97,3.21,-0.92,0.41,-0.06,
2.601,-2.05,0.97,3.21,-0.88,0.30,-0.04,
2.601,-2.05,0.97,3.21,-0.86,0.19,-0.02,
2.601,-2.05,0.97,3.21,-0.82,0.00,0.01,
2.602,-2.05,0.97,3.21,-0.80,-0.06,0.02,
2.602,-2.05,0.97,3.21,-0.78,-0.18,0.04,
2.603,-1.42,1.07,2.78,-0.78,-0.18,0.04,
2.603,-1.42,1.07,2.78,-0.77,-0.31,0.06,
2.603,-1.42,1.07,2.78,-0.75,-0.44,0.07,
2.604,-1.42,1.07,2.78,-0.73,-0.64,0.09,
2.604,-1.42,1.07,2.78,-0.73,-0.70,0.10,
2.611,-1.42,1.07,2.78,-0.72,-0.83,0.12,
2.612,-0.76,0.93,1.83,-0.72,-0.83,0.12,
2.612,-0.76,0.93,1.83,-0.72,-0.96,0.13,
2.613,-0.76,0.93,1.83,-0.72,-1.08,0.14,
2.613,-0.76,0.93,1.83,-0.72,-1.25,0.16,
2.614,-0.76,0.93,1.83,-0.72,-1.30,0.17,
2.616,-0.76,0.93,1.83,-0.72,-1.41,0.17,
2.618,-0.04,0.63,0.95,-0.72,-1.41,0.17,
2.619,-0.04,0.63,0.95,-0.73,-1.50,0.18,
2.62,-0.04,0.63,0.95,-0.74,-1.59,0.18,
2.623,-0.04,0.63,0.95,-0.74,-1.70,0.18,
2.624,-0.04,0.63,0.95,-0.75,-1.73,0.18,
2.626,-0.04,0.63,0.95,-0.76,-1.78,0.18,
2.629,0.64,0.20,0.23,-0.76,-1.78,0.18,
2.629,0.64,0.20,0.23,-0.76,-1.82,0.18,
2.63,0.64,0.20,0.23,-0.76,-1.85,0.18,
2.633,0.64,0.20,0.23,-0.77,-1.86,0.17,
2.634,0.64,0.20,0.23,-0.77,-1.86,0.17,
2.637,0.64,0.20,0.23,-0.77,-1.84,0.17,
2.639,1.12,-0.32,-0.22,-0.77,-1.84,0.17,
2.639,1.12,-0.32,-0.22,-0.77,-1.81,0.17,
2.64,1.12,-0.32,-0.22,-0.77,-1.77,0.17,
2.643,1.12,-0.32,-0.22,-0.77,-1.69,0.16,
2.644,1.12,-0.32,-0.22,-0.77,-1.65,0.16,
2.67,1.12,-0.32,-0.22,-0.76,-1.57,0.16,
2.671,1.33,-0.70,-0.41,-0.76,-1.57,0.16,
2.671,1.33,-0.70,-0.41,-0.75,-1.48,0.16,
2.671,1.33,-0.70,-0.41,-0.74,-1.38,0.16,
2.672,1.33,-0.70,-0.41,-0.73,-1.22,0.17,
2.672,1.33,-0.70,-0.41,-0.72,-1.16,0.17,
2.672,1.33,-0.70,-0.41,-0.71,-1.04,0.18,
2.673,1.35,-0.88,-0.45,-0.71,-1.04,0.18,
2.673,1.35,-0.88,-0.45,-0.69,-0.91,0.19,
2.674,1.35,-0.88,-0.45,-0.68,-0.77,0.20,
2.674,1.35,-0.88,-0.45,-0.65,-0.56,0.22,
2.674,1.35,-0.88,-0.45,-0.64,-0.49,0.23,
2.675,1.35,-0.88,-0.45,-0.63,-0.35,0.25,
2.675,1.06,-0.96,-0.41,-0.63,-0.35,0.25,
2.675,1.06,-0.96,-0.41,-0.61,-0.20,0.27,
2.676,1.06,-0.96,-0.41,-0.60,-0.06,0.29,
2.676,1.06,-0.96,-0.41,-0.58,0.15,0.32,
2.676,1.06,-0.96,-0.41,-0.57,0.22,0.34,
2.677,1.06,-0.96,-0.41,-0.56,0.35,0.36,
2.696,0.70,-1.13,-0.41,-0.56,0.35,0.36,
2.697,0.70,-1.13,-0.41,-0.55,0.49,0.39,
2.697,0.70,-1.13,-0.41,-0.54,0.61,0.42,
2.697,0.70,-1.13,-0.41,-0.52,0.78,0.46,
2.698,0.70,-1.13,-0.41,-0.52,0.83,0.47,
2.698,0.70,-1.13,-0.41,-0.51,0.93,0.49,
2.698,0.54,-1.81,-0.28,-0.51,0.93,0.49,
2.698,0.54,-1.81,-0.28,-0.50,1.03,0.51,
2.698,0.54,-1.81,-0.28,-0.49,1.11,0.52,
2.699,0.54,-1.81,-0.28,-0.48,1.23,0.54,
2.699,0.54,-1.81,-0.28,-0.48,1.27,0.54,
2.699,0.54,-1.81,-0.28,-0.47,1.34,0.54,
2.699,0.85,-2.91,0.19,-0.47,1.34,0.54,
2.7,0.85,-2.91,0.19,-0.47,1.40,0.54,
2.701,0.85,-2.91,0.19,-0.45,1.45,0.53,
2.703,0.85,-2.91,0.19,-0.45,1.53,0.52,
2.704,0.85,-2.91,0.19,-0.45,1.55,0.52,
2.706,0.85,-2.91,0.19,-0.44,1.59,0.51,
2.708,1.02,-4.03,0.82,-0.44,1.59,0.51,
2.709,1.02,-4.03,0.82,-0.43,1.62,0.50,
2.71,1.02,-4.03,0.82,-0.43,1.65,0.49,
2.714,1.02,-4.03,0.82,-0.42,1.68,0.47,
2.718,1.02,-4.03,0.82,-0.42,1.69,0.47,
2.718,1.02,-4.03,0.82,-0.42,1.70,0.46,
2.718,1.09,-4.97,1.56,-0.42,1.70,0.46,
2.719,1.09,-4.97,1.56,-0.42,1.71,0.45,
2.72,1.09,-4.97,1.56,-0.41,1.71,0.43,
2.723,1.09,-4.97,1.56,-0.41,1.70,0.41,
2.724,1.09,-4.97,1.56,-0.41,1.70,0.41,
2.727,1.09,-4.97,1.56,-0.40,1.68,0.39,
2.73,1.11,-5.59,2.27,-0.40,1.68,0.39,
2.732,1.11,-5.59,2.27,-0.40,1.66,0.38,
2.733,1.11,-5.59,2.27,-0.40,1.64,0.37,
2.734,1.11,-5.59,2.27,-0.39,1.59,0.35,
2.735,1.11,-5.59,2.27,-0.38,1.57,0.35,
2.736,1.11,-5.59,2.27,-0.37,1.53,0.34,
2.738,1.09,-5.99,3.23,-0.37,1.53,0.34,
2.739,1.09,-5.99,3.23,-0.35,1.48,0.33,
2.759,1.09,-5.99,3.23,-0.33,1.42,0.32,
2.759,1.09,-5.99,3.23,-0.30,1.33,0.32,
2.759,1.09,-5.99,3.23,-0.28,1.30,0.31,
2.76,1.09,-5.99,3.23,-0.25,1.23,0.31,
2.76,1.06,-6.04,4.11,-0.25,1.23,0.31,
2.76,1.06,-6.04,4.11,-0.21,1.15,0.31,
2.76,1.06,-6.04,4.11,-0.16,1.08,0.32,
2.761,1.06,-6.04,4.11,-0.09,0.95,0.32,
2.761,1.06,-6.04,4.11,-0.06,0.91,0.32,
2.761,1.06,-6.04,4.11,0.00,0.82,0.33,
2.761,1.30,-5.82,4.81,0.00,0.82,0.33,
2.762,1.30,-5.82,4.81,0.06,0.74,0.34,
2.762,1.30,-5.82,4.81,0.13,0.65,0.35,
2.777,1.30,-5.82,4.81,0.23,0.54,0.36,
2.778,1.30,-5.82,4.81,0.26,0.50,0.36,
2.778,1.30,-5.82,4.81,0.33,0.43,0.37,
2.779,1.39,-5.70,4.70,0.33,0.43,0.37,
2.779,1.39,-5.70,4.70,0.40,0.37,0.37,
2.779,1.39,-5.70,4.70,0.47,0.32,0.38,
2.779,1.39,-5.70,4.70,0.58,0.27,0.38,
2.78,1.39,-5.70,4.70,0.61,0.26,0.38,
2.78,1.39,-5.70,4.70,0.68,0.25,0.39,
2.78,1.16,-5.97,4.46,0.68,0.25,0.39,
2.78,1.16,-5.97,4.46,0.76,0.25,0.39,
2.783,1.16,-5.97,4.46,0.83,0.27,0.39,
2.784,1.16,-5.97,4.46,0.94,0.32,0.40,
2.784,1.16,-5.97,4.46,0.98,0.34,0.40,
2.787,1.16,-5.97,4.46,1.05,0.40,0.41,
2.789,0.59,-6.27,4.10,1.05,0.40,0.41,
2.79,0.59,-6.27,4.10,1.12,0.47,0.41,
2.79,0.59,-6.27,4.10,1.19,0.54,0.42,
2.793,0.59,-6.27,4.10,1.30,0.67,0.43,
2.813,0.59,-6.27,4.10,1.34,0.72,0.44,
2.814,0.59,-6.27,4.10,1.41,0.81,0.45,
2.814,-0.34,-6.10,4.00,1.41,0.81,0.45,
2.814,-0.34,-6.10,4.00,1.49,0.91,0.47,
2.815,-0.34,-6.10,4.00,1.56,1.01,0.49,
2.815,-0.34,-6.10,4.00,1.67,1.16,0.52,
2.815,-0.34,-6.10,4.00,1.71,1.21,0.53,
2.815,-0.34,-6.10,4.00,1.79,1.31,0.56,
2.815,-1.48,-5.41,3.96,1.79,1.31,0.56,
2.816,-1.48,-5.41,3.96,1.87,1.41,0.59,
2.816,-1.48,-5.41,3.96,1.95,1.50,0.63,
2.816,-1.48,-5.41,3.96,2.08,1.64,0.68,
2.821,-1.48,-5.41,3.96,2.17,1.73,0.72,
2.821,-1.48,-5.41,3.96,2.22,1.77,0.74,
2.821,-2.37,-4.40,4.38,2.22,1.77,0.74,
2.822,-2.37,-4.40,4.38,2.32,1.86,0.78,
2.822,-2.37,-4.40,4.38,2.41,1.94,0.82,
2.824,-2.37,-4.40,4.38,2.57,2.07,0.89,
2.824,-2.37,-4.40,4.38,2.62,2.11,0.91,
2.826,-2.37,-4.40,4.38,2.74,2.20,0.96,
2.829,-2.94,-3.77,4.85,2.74,2.20,0.96,
2.83,-2.94,-3.77,4.85,2.86,2.28,1.01,
2.83,-2.94,-3.77,4.85,2.98,2.38,1.06,
2.833,-2.94,-3.77,4.85,3.17,2.51,1.15,
2.834,-2.94,-3.77,4.85,3.24,2.55,1.18,
2.837,-2.94,-3.77,4.85,3.39,2.63,1.24,
2.838,-3.67,-3.29,6.04,3.39,2.63,1.24,
2.839,-3.67,-3.29,6.04,3.53,2.71,1.29,
2.84,-3.67,-3.29,6.04,3.67,2.77,1.35,
2.843,-3.67,-3.29,6.04,3.88,2.83,1.43,
2.844,-3.67,-3.29,6.04,3.95,2.84,1.45,
2.846,-3.67,-3.29,6.04,4.08,2.84,1.50,
2.849,-3.78,-3.26,6.19,4.08,2.84,1.50,
2.849,-3.78,-3.26,6.19,4.20,2.81,1.55,
2.85,-3.78,-3.26,6.19,4.32,2.77,1.59,
2.853,-3.78,-3.26,6.19,4.47,2.66,1.64,
2.854,-3.78,-3.26,6.19,4.51,2.61,1.66,
2.856,-3.78,-3.26,6.19,4.59,2.50,1.69,
2.858,-3.34,-3.81,4.90,4.59,2.50,1.69,
2.859,-3.34,-3.81,4.90,4.66,2.37,1.71,
2.861,-3.34,-3.81,4.90,4.72,2.22,1.73,
2.863,-3.34,-3.81,4.90,4.78,1.98,1.76,
2.865,-3.34,-3.81,4.90,4.80,1.89,1.77,
2.866,-3.34,-3.81,4.90,4.82,1.71,1.78,
2.868,-2.91,-4.85,2.97,4.82,1.71,1.78,
2.869,-2.91,-4.85,2.97,4.83,1.53,1.79,
2.87,-2.91,-4.85,2.97,4.84,1.36,1.80,
2.873,-2.91,-4.85,2.97,4.83,1.10,1.80,
2.874,-2.91,-4.85,2.97,4.82,1.01,1.80,
2.876,-2.91,-4.85,2.97,4.80,0.85,1.79,
2.88,-2.47,-5.71,1.20,4.80,0.85,1.79,
2.88,-2.47,-5.71,1.20,4.76,0.71,1.78,
2.881,-2.47,-5.71,1.20,4.71,0.57,1.77,
2.883,-2.47,-5.71,1.20,4.62,0.38,1.73,
2.884,-2.47,-5.71,1.20,4.59,0.33,1.72,
2.886,-2.47,-5.71,1.20,4.52,0.21,1.69,
2.888,-1.70,-5.86,-0.70,4.52,0.21,1.69,
2.889,-1.70,-5.86,-0.70,4.44,0.09,1.65,
2.89,-1.70,-5.86,-0.70,4.35,-0.03,1.61,
2.893,-1.70,-5.86,-0.70,4.20,-0.23,1.54,
2.913,-1.70,-5.86,-0.70,4.15,-0.30,1.52,
2.915,-1.70,-5.86,-0.70,4.05,-0.45,1.47,
2.915,-0.73,-5.46,-2.80,4.05,-0.45,1.47,
2.916,-0.73,-5.46,-2.80,3.95,-0.61,1.43,
2.916,-0.73,-5.46,-2.80,3.85,-0.78,1.39,
2.916,-0.73,-5.46,-2.80,3.69,-1.05,1.34,
2.917,-0.73,-5.46,-2.80,3.64,-1.14,1.32,
2.918,-0.73,-5.46,-2.80,3.53,-1.32,1.29,
2.933,-0.34,-4.80,-4.49,3.53,-1.32,1.29,
2.933,-0.34,-4.80,-4.49,3.43,-1.51,1.27,
2.933,-0.34,-4.80,-4.49,3.33,-1.70,1.24,
2.934,-0.34,-4.80,-4.49,3.18,-1.97,1.21,
2.934,-0.34,-4.80,-4.49,3.13,-2.05,1.20,
2.934,-0.34,-4.80,-4.49,3.04,-2.21,1.18,
2.934,-0.01,-3.92,-6.02,3.04,-2.21,1.18,
2.934,-0.01,-3.92,-6.02,2.95,-2.36,1.17,
2.935,-0.01,-3.92,-6.02,2.86,-2.49,1.16,
2.935,-0.01,-3.92,-6.02,2.72,-2.66,1.15,
2.935,-0.01,-3.92,-6.02,2.67,-2.71,1.15,
2.935,-0.01,-3.92,-6.02,2.56,-2.80,1.14,
2.935,-0.41,-3.47,-7.26,2.56,-2.80,1.14,
2.936,-0.41,-3.47,-7.26,2.46,-2.89,1.13,
2.936,-0.41,-3.47,-7.26,2.37,-2.99,1.11,
2.936,-0.41,-3.47,-7.26,2.23,-3.16,1.05,
2.936,-0.41,-3.47,-7.26,2.19,-3.22,1.02,
2.937,-0.41,-3.47,-7.26,2.12,-3.34,0.95,
2.944,1.08,-4.18,-7.03,2.12,-3.34,0.95,
2.944,1.08,-4.18,-7.03,2.06,-3.47,0.87,
2.944,1.08,-4.18,-7.03,2.03,-3.60,0.78,
2.945,1.08,-4.18,-7.03,2.02,-3.80,0.61,
2.945,1.08,-4.18,-7.03,2.03,-3.87,0.55,
2.946,1.08,-4.18,-7.03,2.06,-4.01,0.44,
2.948,3.25,-5.46,-2.82,2.06,-4.01,0.44,
2.949,3.25,-5.46,-2.82,2.12,-4.15,0.32,
2.952,3.25,-5.46,-2.82,2.21,-4.28,0.20,
2.953,3.25,-5.46,-2.82,2.36,-4.47,0.04,
2.956,3.25,-5.46,-2.82,2.42,-4.53,-0.01,
2.957,3.25,-5.46,-2.82,2.54,-4.62,-0.11,
2.963,3.17,-7.14,2.20,2.54,-4.62,-0.11,
2.963,3.17,-7.14,2.20,2.67,-4.68,-0.20,
2.963,3.17,-7.14,2.20,2.78,-4.72,-0.29,
2.964,3.17,-7.14,2.20,2.94,-4.72,-0.43,
2.966,3.17,-7.14,2.20,2.98,-4.71,-0.48,
2.969,3.17,-7.14,2.20,3.05,-4.68,-0.58,
2.97,2.48,-8.94,2.84,3.05,-4.68,-0.58,
2.97,2.48,-8.94,2.84,3.12,-4.62,-0.67,
2.97,2.48,-8.94,2.84,3.18,-4.53,-0.74,
2.975,2.48,-8.94,2.84,3.26,-4.34,-0.84,
2.975,2.48,-8.94,2.84,3.28,-4.26,-0.87,
2.978,2.48,-8.94,2.84,3.30,-4.08,-0.93,
2.979,0.83,-11.38,1.53,3.30,-4.08,-0.93,
2.979,0.83,-11.38,1.53,3.32,-3.87,-1.00,
2.983,0.83,-11.38,1.53,3.34,-3.64,-1.06,
2.983,0.83,-11.38,1.53,3.36,-3.29,-1.13,
2.984,0.83,-11.38,1.53,3.36,-3.18,-1.15,
2.988,0.83,-11.38,1.53,3.37,-2.96,-1.19,
2.989,-0.99,-13.61,0.21,3.37,-2.96,-1.19,
2.989,-0.99,-13.61,0.21,3.38,-2.74,-1.23,
2.992,-0.99,-13.61,0.21,3.39,-2.53,-1.27,
2.996,-0.99,-13.61,0.21,3.42,-2.20,-1.32,
2.997,-0.99,-13.61,0.21,3.44,-2.09,-1.35,
2.997,-0.99,-13.61,0.21,3.46,-1.87,-1.39,
3.002,-2.05,-15.23,-0.16,3.46,-1.87,-1.39,
3.002,-2.05,-15.23,-0.16,3.49,-1.66,-1.44,
3.002,-2.05,-15.23,-0.16,3.52,-1.47,-1.48,
3.003,-2.05,-15.23,-0.16,3.57,-1.21,-1.56,
3.006,-2.05,-15.23,-0.16,3.59,-1.13,-1.59,
3.007,-2.05,-15.23,-0.16,3.63,-0.99,-1.66,
3.01,-2.49,-14.56,-0.61,3.63,-0.99,-1.66,
3.011,-2.49,-14.56,-0.61,3.68,-0.88,-1.73,
3.012,-2.49,-14.56,-0.61,3.73,-0.80,-1.81,
3.022,-2.49,-14.56,-0.61,3.81,-0.74,-1.90,
3.023,-2.49,-14.56,-0.61,3.84,-0.73,-1.93,
3.023,-2.49,-14.56,-0.61,3.89,-0.74,-1.98,
3.024,-2.99,-11.54,-0.66,3.89,-0.74,-1.98,
3.024,-2.99,-11.54,-0.66,3.95,-0.76,-2.04,
3.024,-2.99,-11.54,-0.66,4.02,-0.79,-2.09,
3.025,-2.99,-11.54,-0.66,4.13,-0.85,-2.17,
3.025,-2.99,-11.54,-0.66,4.16,-0.87,-2.20,
3.028,-2.99,-11.54,-0.66,4.24,-0.92,-2.25,
3.071,-3.30,-8.96,-0.38,4.24,-0.92,-2.25,
3.072,-3.30,-8.96,-0.38,4.32,-0.97,-2.31,
3.072,-3.30,-8.96,-0.38,4.40,-1.03,-2.37,
3.072,-3.30,-8.96,-0.38,4.49,-1.13,-2.45,
3.072,-3.30,-8.96,-0.38,4.52,-1.16,-2.48,
3.072,-3.30,-8.96,-0.38,4.55,-1.21,-2.53,
3.073,-3.10,-7.09,-1.24,4.55,-1.21,-2.53,
3.073,-3.10,-7.09,-1.24,4.57,-1.25,-2.59,
3.073,-3.10,-7.09,-1.24,4.57,-1.25,-2.64,
3.073,-3.10,-7.09,-1.24,4.54,-1.20,-2.71,
3.073,-3.10,-7.09,-1.24,4.52,-1.16,-2.74,
3.073,-3.10,-7.09,-1.24,4.47,-1.06,-2.79,
3.074,-2.58,-5.60,-5.14,4.47,-1.06,-2.79,
3.074,-2.58,-5.60,-5.14,4.40,-0.91,-2.84,
3.074,-2.58,-5.60,-5.14,4.33,-0.72,-2.88,
3.074,-2.58,-5.60,-5.14,4.22,-0.40,-2.95,
3.074,-2.58,-5.60,-5.14,4.19,-0.28,-2.97,
3.074,-2.58,-5.60,-5.14,4.13,-0.03,-3.00,
3.075,-1.96,-4.46,-8.33,4.13,-0.03,-3.00,
3.075,-1.96,-4.46,-8.33,4.07,0.21,-3.04,
3.075,-1.96,-4.46,-8.33,4.03,0.45,-3.07,
3.075,-1.96,-4.46,-8.33,3.99,0.79,-3.11,
3.075,-1.96,-4.46,-8.33,3.98,0.89,-3.13,
3.075,-1.96,-4.46,-8.33,3.98,1.10,-3.16,
3.076,-0.93,-3.10,-7.98,3.98,1.10,-3.16,
3.076,-0.93,-3.10,-7.98,4.00,1.29,-3.18,
3.076,-0.93,-3.10,-7.98,4.03,1.45,-3.19,
3.076,-0.93,-3.10,-7.98,4.08,1.66,-3.20,
3.094,-0.93,-3.10,-7.98,4.11,1.72,-3.20,
3.095,-0.93,-3.10,-7.98,4.28,1.96,-3.17,
3.095,-0.93,-3.10,-7.98,4.28,1.96,-3.17,
3.095,-0.93,-3.10,-7.98,4.28,1.96,-3.17,
3.095,-0.29,-1.63,-6.50,4.28,1.96,-3.17,
3.095,-0.29,-1.63,-6.50,4.37,2.04,-3.13,
3.096,-0.29,-1.63,-6.50,4.40,2.06,-3.11,
3.096,-0.29,-1.63,-6.50,4.46,2.10,-3.08,
3.096,-0.17,-0.87,-6.10,4.46,2.10,-3.08,
3.096,-0.17,-0.87,-6.10,4.52,2.14,-3.03,
3.096,-0.17,-0.87,-6.10,4.57,2.19,-2.99,
3.097,-0.17,-0.87,-6.10,4.63,2.27,-2.91,
3.097,-0.17,-0.87,-6.10,4.65,2.31,-2.88,
3.097,-0.17,-0.87,-6.10,4.68,2.39,-2.82,
3.104,-0.09,-0.05,-6.81,4.68,2.39,-2.82,
3.105,-0.09,-0.05,-6.81,4.71,2.49,-2.76,
3.105,-0.09,-0.05,-6.81,4.74,2.60,-2.70,
3.105,-0.09,-0.05,-6.81,4.77,2.76,-2.60,
3.105,-0.09,-0.05,-6.81,4.78,2.81,-2.56,
3.107,-0.09,-0.05,-6.81,4.78,2.90,-2.49,
3.109,-0.10,1.19,-8.23,4.78,2.90,-2.49,
3.109,-0.10,1.19,-8.23,4.78,2.97,-2.40,
3.126,-0.10,1.19,-8.23,4.75,3.01,-2.31,
3.127,-0.10,1.19,-8.23,4.70,3.04,-2.17,
3.127,-0.10,1.19,-8.23,4.67,3.04,-2.12,
3.127,-0.10,1.19,-8.23,4.62,3.04,-2.01,
3.127,-0.85,2.82,-10.05,4.62,3.04,-2.01,
3.128,-0.85,2.82,-10.05,4.56,3.02,-1.90,
3.128,-0.85,2.82,-10.05,4.50,3.00,-1.78,
3.128,-0.85,2.82,-10.05,4.41,2.96,-1.61,
3.128,-0.85,2.82,-10.05,4.38,2.95,-1.56,
3.129,-0.85,2.82,-10.05,4.31,2.93,-1.44,
3.129,-1.47,4.92,-10.78,4.31,2.93,-1.44,
3.129,-1.47,4.92,-10.78,4.25,2.91,-1.32,
3.131,-1.47,4.92,-10.78,4.19,2.89,-1.20,
3.133,-1.47,4.92,-10.78,4.10,2.85,-1.01,
3.134,-1.47,4.92,-10.78,4.08,2.84,-0.94,
3.136,-1.47,4.92,-10.78,4.02,2.81,-0.82,
3.139,-2.77,6.42,-10.88,4.02,2.81,-0.82,
3.139,-2.77,6.42,-10.88,3.97,2.77,-0.69,
3.14,-2.77,6.42,-10.88,3.91,2.73,-0.56,
3.143,-2.77,6.42,-10.88,3.82,2.64,-0.39,
3.144,-2.77,6.42,-10.88,3.80,2.61,-0.33,
3.147,-2.77,6.42,-10.88,3.74,2.54,-0.23,
3.149,-3.06,6.93,-10.58,3.74,2.54,-0.23,
3.149,-3.06,6.93,-10.58,3.69,2.47,-0.13,
3.15,-3.06,6.93,-10.58,3.63,2.40,-0.03,
3.153,-3.06,6.93,-10.58,3.53,2.28,0.09,
3.154,-3.06,6.93,-10.58,3.50,2.25,0.13,
3.158,-3.06,6.93,-10.58,3.44,2.17,0.20,
3.158,-3.20,6.89,-10.26,3.44,2.17,0.20,
3.159,-3.20,6.89,-10.26,3.38,2.10,0.26,
3.166,-3.20,6.89,-10.26,3.31,2.03,0.31,
3.166,-3.20,6.89,-10.26,3.21,1.95,0.38,
3.177,-3.20,6.89,-10.26,3.10,1.86,0.43,
3.177,-3.20,6.89,-10.26,3.07,1.84,0.45,
3.177,-2.80,6.28,-10.02,3.07,1.84,0.45,
3.178,-2.80,6.28,-10.02,3.03,1.81,0.46,
3.178,-2.80,6.28,-10.02,2.96,1.76,0.49,
3.178,-2.80,6.28,-10.02,2.85,1.68,0.53,
3.178,-2.80,6.28,-10.02,2.82,1.66,0.55,
3.178,-2.80,6.28,-10.02,2.74,1.62,0.56,
3.203,-3.00,5.65,-10.06,2.74,1.62,0.56,
3.204,-3.00,5.65,-10.06,2.67,1.59,0.58,
3.204,-3.00,5.65,-10.06,2.60,1.56,0.59,
3.204,-3.00,5.65,-10.06,2.50,1.53,0.61,
3.204,-3.00,5.65,-10.06,2.47,1.52,0.61,
3.204,-3.00,5.65,-10.06,2.40,1.50,0.62,
3.204,-2.46,4.60,-10.12,2.40,1.50,0.62,
3.204,-2.46,4.60,-10.12,2.33,1.49,0.63,
3.205,-2.46,4.60,-10.12,2.27,1.48,0.65,
3.205,-2.46,4.60,-10.12,2.17,1.48,0.66,
3.205,-2.46,4.60,-10.12,2.15,1.48,0.66,
3.205,-2.46,4.60,-10.12,2.09,1.48,0.68,
3.205,-2.01,3.75,-10.21,2.09,1.48,0.68,
3.205,-2.01,3.75,-10.21,2.04,1.48,0.69,
3.205,-2.01,3.75,-10.21,1.98,1.48,0.70,
3.205,-2.01,3.75,-10.21,1.90,1.47,0.71,
3.206,-2.01,3.75,-10.21,1.87,1.47,0.72,
3.207,-2.01,3.75,-10.21,1.80,1.46,0.72,
3.21,-0.59,3.24,-10.05,1.80,1.46,0.72,
3.21,-0.59,3.24,-10.05,1.77,1.46,0.73,
3.213,-0.59,3.24,-10.05,1.71,1.47,0.73,
3.214,-0.59,3.24,-10.05,1.61,1.47,0.73,
3.214,-0.59,3.24,-10.05,1.57,1.48,0.73,
3.216,-0.59,3.24,-10.05,1.52,1.49,0.73,
3.218,1.08,3.13,-9.62,1.52,1.49,0.73,
3.219,1.08,3.13,-9.62,1.46,1.49,0.73,
3.22,1.08,3.13,-9.62,1.40,1.50,0.72,
3.223,1.08,3.13,-9.62,1.30,1.49,0.71,
3.224,1.08,3.13,-9.62,1.27,1.49,0.71,
3.227,1.08,3.13,-9.62,1.21,1.48,0.71,
3.229,3.18,3.09,-8.12,1.21,1.48,0.71,
3.229,3.18,3.09,-8.12,1.14,1.46,0.70,
3.23,3.18,3.09,-8.12,1.08,1.42,0.69,
3.233,3.18,3.09,-8.12,0.99,1.33,0.67,
3.234,3.18,3.09,-8.12,0.96,1.30,0.66,
3.236,3.18,3.09,-8.12,0.90,1.21,0.65,
3.238,4.73,3.25,-6.03,0.90,1.21,0.65,
3.239,4.73,3.25,-6.03,0.85,1.12,0.63,
3.263,4.73,3.25,-6.03,0.81,1.02,0.61,
3.264,4.73,3.25,-6.03,0.76,0.84,0.57,
3.264,4.73,3.25,-6.03,0.75,0.78,0.55,
3.264,4.73,3.25,-6.03,0.72,0.66,0.52,
3.265,5.45,2.90,-3.70,0.72,0.66,0.52,
3.266,5.45,2.90,-3.70,0.71,0.55,0.48,
3.266,5.45,2.90,-3.70,0.71,0.43,0.44,
3.266,5.45,2.90,-3.70,0.71,0.28,0.36,
3.267,5.45,2.90,-3.70,0.72,0.24,0.33,
3.267,5.45,2.90,-3.70,0.72,0.16,0.27,
3.268,5.88,2.33,-1.91,0.72,0.16,0.27,
3.268,5.88,2.33,-1.91,0.72,0.10,0.21,
3.269,5.88,2.33,-1.91,0.74,0.06,0.15,
3.269,5.88,2.33,-1.91,0.74,0.03,0.05,
3.269,5.88,2.33,-1.91,0.74,0.02,0.02,
3.27,5.88,2.33,-1.91,0.73,0.02,-0.04,
3.27,5.52,1.55,-1.66,0.73,0.02,-0.04,
3.271,5.52,1.55,-1.66,0.72,0.04,-0.10,
3.271,5.52,1.55,-1.66,0.71,0.08,-0.16,
3.279,5.52,1.55,-1.66,0.67,0.16,-0.25,
3.279,5.52,1.55,-1.66,0.66,0.19,-0.28,
3.28,5.52,1.55,-1.66,0.62,0.27,-0.34,
3.28,5.30,1.32,-2.18,0.62,0.27,-0.34,
3.28,5.30,1.32,-2.18,0.58,0.36,-0.39,
3.281,5.30,1.32,-2.18,0.52,0.46,-0.44,
3.283,5.30,1.32,-2.18,0.44,0.61,-0.51,
3.284,5.30,1.32,-2.18,0.41,0.66,-0.53,
3.286,5.30,1.32,-2.18,0.34,0.75,-0.57,
3.289,4.74,1.84,-2.74,0.34,0.75,-0.57,
3.289,4.74,1.84,-2.74,0.27,0.83,-0.60,
3.29,4.74,1.84,-2.74,0.20,0.91,-0.64,
3.293,4.74,1.84,-2.74,0.09,0.99,-0.69,
3.295,4.74,1.84,-2.74,0.06,1.00,-0.70,
3.297,4.74,1.84,-2.74,-0.00,1.02,-0.73,
3.299,4.48,2.66,-2.06,-0.00,1.02,-0.73,
3.299,4.48,2.66,-2.06,-0.07,1.02,-0.76,
3.3,4.48,2.66,-2.06,-0.12,1.01,-0.78,
3.303,4.48,2.66,-2.06,-0.18,0.95,-0.81,
3.304,4.48,2.66,-2.06,-0.19,0.93,-0.82,
3.319,4.48,2.66,-2.06,-0.21,0.86,-0.84,
3.319,3.78,3.07,0.14,-0.21,0.86,-0.84,
3.32,3.78,3.07,0.14,-0.22,0.78,-0.85,
3.32,3.78,3.07,0.14,-0.22,0.70,-0.86,
3.32,3.78,3.07,0.14,-0.20,0.55,-0.87,
3.32,3.78,3.07,0.14,-0.19,0.49,-0.87,
3.321,3.78,3.07,0.14,-0.16,0.38,-0.87,
3.321,2.63,3.22,2.47,-0.16,0.38,-0.87,
3.321,2.63,3.22,2.47,-0.14,0.26,-0.88,
3.321,2.63,3.22,2.47,-0.12,0.15,-0.88,
3.325,2.63,3.22,2.47,-0.10,-0.01,-0.89,
3.325,2.63,3.22,2.47,-0.10,-0.06,-0.89,
3.357,2.63,3.22,2.47,-0.11,-0.14,-0.89,
3.357,1.18,3.39,2.12,-0.11,-0.14,-0.89,
3.357,1.18,3.39,2.12,-0.13,-0.20,-0.90,
3.358,1.18,3.39,2.12,-0.17,-0.25,-0.91,
3.358,1.18,3.39,2.12,-0.23,-0.29,-0.92,
3.358,1.18,3.39,2.12,-0.25,-0.30,-0.92,
3.358,1.18,3.39,2.12,-0.29,-0.31,-0.92,
3.359,-0.90,4.37,1.41,-0.29,-0.31,-0.92,
3.359,-0.90,4.37,1.41,-0.32,-0.32,-0.91,
3.359,-0.90,4.37,1.41,-0.34,-0.33,-0.89,
3.359,-0.90,4.37,1.41,-0.33,-0.36,-0.83,
3.36,-0.90,4.37,1.41,-0.31,-0.39,-0.80,
3.36,-0.90,4.37,1.41,-0.24,-0.46,-0.74,
3.36,-5.03,5.27,6.94,-0.24,-0.46,-0.74,
3.36,-5.03,5.27,6.94,-0.16,-0.54,-0.66,
3.361,-5.03,5.27,6.94,-0.06,-0.63,-0.59,
3.361,-5.03,5.27,6.94,0.07,-0.73,-0.50,
3.361,-5.03,5.27,6.94,0.09,-0.74,-0.48,
3.361,-5.03,5.27,6.94,0.12,-0.72,-0.45,
3.361,-7.73,3.65,12.33,0.12,-0.72,-0.45,
3.362,-7.73,3.65,12.33,0.09,-0.63,-0.43,
3.362,-7.73,3.65,12.33,0.01,-0.48,-0.40,
3.366,-7.73,3.65,12.33,-0.17,-0.11,-0.35,
3.366,-7.73,3.65,12.33,-0.25,0.04,-0.33,
3.367,-7.73,3.65,12.33,-0.41,0.41,-0.28,
3.369,-8.72,1.21,6.07,-0.41,0.41,-0.28,
3.369,-8.72,1.21,6.07,-0.60,0.83,-0.23,
3.37,-8.72,1.21,6.07,-0.79,1.27,-0.20,
3.373,-8.72,1.21,6.07,-1.08,1.89,-0.18,
3.377,-8.72,1.21,6.07,-1.18,2.07,-0.18,
3.377,-8.72,1.21,6.07,-1.36,2.37,-0.20,
3.381,-6.23,-0.29,1.16,-1.36,2.37,-0.20,
3.381,-6.23,-0.29,1.16,-1.51,2.57,-0.25,
3.381,-6.23,-0.29,1.16,-1.64,2.66,-0.32,
3.385,-6.23,-0.29,1.16,-1.79,2.60,-0.47,
3.387,-6.23,-0.29,1.16,-1.83,2.52,-0.52,
3.387,-6.23,-0.29,1.16,-1.89,2.31,-0.63,
3.391,-0.81,-2.50,3.59,-1.89,2.31,-0.63,
3.391,-0.81,-2.50,3.59,-1.95,2.02,-0.74,
3.391,-0.81,-2.50,3.59,-2.00,1.67,-0.85,
3.394,-0.81,-2.50,3.59,-2.07,1.07,-0.99,
3.395,-0.81,-2.50,3.59,-2.10,0.86,-1.03,
3.397,-0.81,-2.50,3.59,-2.15,0.45,-1.10,
3.399,3.60,-5.91,4.18,-2.15,0.45,-1.10,
3.4,3.60,-5.91,4.18,-2.23,0.07,-1.16,
3.4,3.60,-5.91,4.18,-2.31,-0.26,-1.20,
3.403,3.60,-5.91,4.18,-2.43,-0.65,-1.26,
3.404,3.60,-5.91,4.18,-2.46,-0.75,-1.27,
3.412,3.60,-5.91,4.18,-2.52,-0.91,-1.31,
3.427,5.77,-7.46,0.51,-2.52,-0.91,-1.31,
3.427,5.77,-7.46,0.51,-2.56,-1.02,-1.34,
3.427,5.77,-7.46,0.51,-2.59,-1.07,-1.36,
3.428,5.77,-7.46,0.51,-2.63,-1.05,-1.39,
3.428,5.77,-7.46,0.51,-2.64,-1.02,-1.39,
3.428,5.77,-7.46,0.51,-2.65,-0.92,-1.39,
3.428,4.49,-6.21,-2.60,-2.65,-0.92,-1.39,
3.428,4.49,-6.21,-2.60,-2.66,-0.78,-1.38,
3.428,4.49,-6.21,-2.60,-2.66,-0.61,-1.36,
3.429,4.49,-6.21,-2.60,-2.65,-0.33,-1.33,
3.429,4.49,-6.21,-2.60,-2.65,-0.23,-1.32,
3.429,4.49,-6.21,-2.60,-2.63,-0.04,-1.30,
3.429,2.54,-3.26,-4.33,-2.63,-0.04,-1.30,
3.439,2.54,-3.26,-4.33,-2.62,0.12,-1.29,
3.44,2.54,-3.26,-4.33,-2.60,0.26,-1.28,
3.44,2.54,-3.26,-4.33,-2.58,0.38,-1.28,
3.44,2.54,-3.26,-4.33,-2.56,0.39,-1.29,
3.44,2.54,-3.26,-4.33,-2.54,0.38,-1.30,
3.441,2.83,-0.47,-3.87,-2.54,0.38,-1.30,
3.441,2.83,-0.47,-3.87,-2.52,0.32,-1.31,
3.441,2.83,-0.47,-3.87,-2.50,0.23,-1.32,
3.459,2.83,-0.47,-3.87,-2.46,0.07,-1.32,
3.46,2.83,-0.47,-3.87,-2.46,0.01,-1.32,
3.46,2.83,-0.47,-3.87,-2.44,-0.09,-1.30,
3.46,2.20,1.32,-3.21,-2.44,-0.09,-1.30,
3.46,2.20,1.32,-3.21,-2.44,-0.19,-1.27,
3.46,2.20,1.32,-3.21,-2.44,-0.26,-1.24,
3.461,2.20,1.32,-3.21,-2.43,-0.32,-1.16,
3.461,2.20,1.32,-3.21,-2.43,-0.32,-1.12,
3.461,2.20,1.32,-3.21,-2.43,-0.32,-1.05,
3.461,-0.27,1.44,-3.68,-2.43,-0.32,-1.05,
3.462,-0.27,1.44,-3.68,-2.42,-0.30,-0.98,
3.462,-0.27,1.44,-3.68,-2.42,-0.26,-0.89,
3.463,-0.27,1.44,-3.68,-2.41,-0.19,-0.76,
3.465,-0.27,1.44,-3.68,-2.41,-0.16,-0.72,
3.467,-0.27,1.44,-3.68,-2.40,-0.11,-0.63,
3.469,-2.94,0.73,-3.34,-2.40,-0.11,-0.63,
3.469,-2.94,0.73,-3.34,-2.38,-0.06,-0.54,
3.47,-2.94,0.73,-3.34,-2.36,-0.03,-0.46,
3.475,-2.94,0.73,-3.34,-2.33,0.00,-0.35,
3.476,-2.94,0.73,-3.34,-2.32,0.01,-0.32,
3.477,-2.94,0.73,-3.34,-2.30,0.01,-0.26,
3.48,-4.22,-0.46,-1.74,-2.30,0.01,-0.26,
3.481,-4.22,-0.46,-1.74,-2.28,-0.00,-0.21,
3.481,-4.22,-0.46,-1.74,-2.26,-0.02,-0.18,
3.483,-4.22,-0.46,-1.74,-2.26,-0.07,-0.16,
3.484,-4.22,-0.46,-1.74,-2.26,-0.09,-0.15,
3.486,-4.22,-0.46,-1.74,-2.26,-0.15,-0.15,
3.494,-3.17,-2.29,-0.57,-2.26,-0.15,-0.15,
3.495,-3.17,-2.29,-0.57,-2.28,-0.21,-0.16,
3.495,-3.17,-2.29,-0.57,-2.30,-0.29,-0.18,
3.495,-3.17,-2.29,-0.57,-2.35,-0.44,-0.20,
3.495,-3.17,-2.29,-0.57,-2.37,-0.49,-0.21,
3.496,-3.17,-2.29,-0.57,-2.41,-0.61,-0.24,
3.499,-2.13,-4.08,-0.58,-2.41,-0.61,-0.24,
3.499,-2.13,-4.08,-0.58,-2.46,-0.73,-0.26,
3.503,-2.13,-4.08,-0.58,-2.53,-0.85,-0.29,
3.503,-2.13,-4.08,-0.58,-2.64,-1.04,-0.32,
3.505,-2.13,-4.08,-0.58,-2.68,-1.10,-0.33,
3.506,-2.13,-4.08,-0.58,-2.76,-1.23,-0.34,
3.509,-1.55,-5.13,-1.63,-2.76,-1.23,-0.34,
3.509,-1.55,-5.13,-1.63,-2.84,-1.35,-0.36,
3.511,-1.55,-5.13,-1.63,-2.93,-1.47,-0.38,
3.514,-1.55,-5.13,-1.63,-3.06,-1.64,-0.40,
3.516,-1.55,-5.13,-1.63,-3.19,-1.79,-0.43,
3.517,-1.55,-5.13,-1.63,-3.23,-1.83,-0.44,
3.52,-1.04,-5.42,-2.63,-3.23,-1.83,-0.44,
3.52,-1.04,-5.42,-2.63,-3.27,-1.87,-0.45,
3.521,-1.04,-5.42,-2.63,-3.34,-1.94,-0.47,
3.524,-1.04,-5.42,-2.63,-3.44,-2.03,-0.50,
3.525,-1.04,-5.42,-2.63,-3.47,-2.05,-0.52,
3.528,-1.04,-5.42,-2.63,-3.52,-2.10,-0.55,
3.528,-0.51,-4.90,-2.21,-3.52,-2.10,-0.55,
3.529,-0.51,-4.90,-2.21,-3.56,-2.13,-0.58,
3.53,-0.51,-4.90,-2.21,-3.60,-2.15,-0.61,
3.533,-0.51,-4.90,-2.21,-3.63,-2.17,-0.67,
3.534,-0.51,-4.90,-2.21,-3.64,-2.18,-0.69,
3.536,-0.51,-4.90,-2.21,-3.65,-2.18,-0.73,
3.539,0.34,-4.31,-1.11,-3.65,-2.18,-0.73,
3.539,0.34,-4.31,-1.11,-3.66,-2.18,-0.77,
3.54,0.34,-4.31,-1.11,-3.66,-2.17,-0.81,
3.543,0.34,-4.31,-1.11,-3.66,-2.15,-0.87,
3.544,0.34,-4.31,-1.11,-3.66,-2.14,-0.89,
3.546,0.34,-4.31,-1.11,-3.66,-2.12,-0.92,
3.548,0.84,-3.72,-0.46,-3.66,-2.12,-0.92,
3.548,0.84,-3.72,-0.46,-3.65,-2.10,-0.95,
3.55,0.84,-3.72,-0.46,-3.65,-2.07,-0.98,
3.553,0.84,-3.72,-0.46,-3.64,-2.02,-1.01,
3.554,0.84,-3.72,-0.46,-3.64,-2.01,-1.02,
3.556,0.84,-3.72,-0.46,-3.64,-1.97,-1.03,
3.561,0.98,-3.24,-0.76,-3.64,-1.97,-1.03,
3.561,0.98,-3.24,-0.76,-3.64,-1.93,-1.04,
3.562,0.98,-3.24,-0.76,-3.64,-1.89,-1.05,
3.563,0.98,-3.24,-0.76,-3.65,-1.82,-1.05,
3.564,0.98,-3.24,-0.76,-3.65,-1.79,-1.05,
3.567,0.98,-3.24,-0.76,-3.66,-1.74,-1.03,
3.569,0.80,-2.48,-1.16,-3.66,-1.74,-1.03,
3.569,0.80,-2.48,-1.16,-3.66,-1.71,-1.01,
3.57,0.80,-2.48,-1.16,-3.65,-1.69,-0.98,
3.573,0.80,-2.48,-1.16,-3.62,-1.68,-0.93,
3.587,0.80,-2.48,-1.16,-3.61,-1.68,-0.91,
3.587,0.80,-2.48,-1.16,-3.58,-1.69,-0.87,
3.588,0.24,-2.06,-0.61,-3.58,-1.69,-0.87,
3.588,0.24,-2.06,-0.61,-3.55,-1.69,-0.83,
3.588,0.24,-2.06,-0.61,-3.51,-1.70,-0.78,
3.588,0.24,-2.06,-0.61,-3.45,-1.70,-0.71,
3.589,0.24,-2.06,-0.61,-3.43,-1.69,-0.69,
3.589,0.24,-2.06,-0.61,-3.38,-1.68,-0.64,
3.589,-0.01,-1.39,0.12,-3.38,-1.68,-0.64,
3.589,-0.01,-1.39,0.12,-3.33,-1.67,-0.59,
3.593,-0.01,-1.39,0.12,-3.29,-1.65,-0.53,
3.593,-0.01,-1.39,0.12,-3.22,-1.61,-0.45,
3.594,-0.01,-1.39,0.12,-3.20,-1.59,-0.42,
3.596,-0.01,-1.39,0.12,-3.16,-1.56,-0.36,
3.598,-0.25,-0.77,0.47,-3.16,-1.56,-0.36,
3.599,-0.25,-0.77,0.47,-3.12,-1.53,-0.30,
3.6,-0.25,-0.77,0.47,-3.08,-1.49,-0.24,
3.603,-0.25,-0.77,0.47,-3.05,-1.44,-0.14,
3.604,-0.25,-0.77,0.47,-3.04,-1.42,-0.10,
3.606,-0.25,-0.77,0.47,-3.02,-1.37,-0.04,
3.609,-0.66,-0.45,0.38,-3.02,-1.37,-0.04,
3.609,-0.66,-0.45,0.38,-3.01,-1.33,0.03,
3.616,-0.66,-0.45,0.38,-3.01,-1.29,0.10,
3.616,-0.66,-0.45,0.38,-3.01,-1.23,0.19,
3.619,-0.66,-0.45,0.38,-3.01,-1.20,0.22,
3.619,-0.66,-0.45,0.38,-3.03,-1.15,0.29,
3.619,-0.98,-0.27,-0.19,-3.03,-1.15,0.29,
3.619,-0.98,-0.27,-0.19,-3.04,-1.10,0.35,
3.62,-0.98,-0.27,-0.19,-3.05,-1.04,0.41,
3.623,-0.98,-0.27,-0.19,-3.08,-0.97,0.49,
3.625,-0.98,-0.27,-0.19,-3.08,-0.95,0.52,
3.627,-0.98,-0.27,-0.19,-3.10,-0.91,0.58,
3.629,-1.01,-0.08,-0.48,-3.10,-0.91,0.58,
3.63,-1.01,-0.08,-0.48,-3.11,-0.88,0.63,
3.63,-1.01,-0.08,-0.48,-3.12,-0.85,0.67,
3.633,-1.01,-0.08,-0.48,-3.12,-0.82,0.73,
3.634,-1.01,-0.08,-0.48,-3.11,-0.81,0.75,
3.636,-1.01,-0.08,-0.48,-3.10,-0.80,0.79,
3.639,-0.89,0.29,-0.14,-3.10,-0.80,0.79,
3.639,-0.89,0.29,-0.14,-3.09,-0.79,0.83,
3.642,-0.89,0.29,-0.14,-3.07,-0.77,0.87,
3.643,-0.89,0.29,-0.14,-3.04,-0.75,0.91,
3.645,-0.89,0.29,-0.14,-3.02,-0.74,0.92,
3.646,-0.89,0.29,-0.14,-3.00,-0.73,0.95,
3.649,-0.51,0.59,0.20,-3.00,-0.73,0.95,
3.649,-0.51,0.59,0.20,-2.97,-0.71,0.97,
3.65,-0.51,0.59,0.20,-2.94,-0.68,0.99,
3.653,-0.51,0.59,0.20,-2.89,-0.66,1.03,
3.654,-0.51,0.59,0.20,-2.88,-0.65,1.04,
3.656,-0.51,0.59,0.20,-2.84,-0.63,1.06,
3.659,-0.30,0.85,0.43,-2.84,-0.63,1.06,
3.659,-0.30,0.85,0.43,-2.81,-0.61,1.09,
3.66,-0.30,0.85,0.43,-2.78,-0.59,1.11,
3.663,-0.30,0.85,0.43,-2.74,-0.57,1.15,
3.664,-0.30,0.85,0.43,-2.73,-0.56,1.16,
3.666,-0.30,0.85,0.43,-2.70,-0.53,1.18,
3.668,-0.23,1.04,0.37,-2.70,-0.53,1.18,
3.668,-0.23,1.04,0.37,-2.68,-0.51,1.21,
3.67,-0.23,1.04,0.37,-2.66,-0.49,1.24,
3.673,-0.23,1.04,0.37,-2.63,-0.45,1.27,
3.676,-0.23,1.04,0.37,-2.62,-0.43,1.28,
3.677,-0.23,1.04,0.37,-2.59,-0.40,1.31,
3.679,-0.13,1.06,0.43,-2.59,-0.40,1.31,
3.679,-0.13,1.06,0.43,-2.58,-0.37,1.33,
3.68,-0.13,1.06,0.43,-2.56,-0.34,1.35,
3.683,-0.13,1.06,0.43,-2.53,-0.30,1.38,
3.684,-0.13,1.06,0.43,-2.52,-0.28,1.39,
3.686,-0.13,1.06,0.43,-2.51,-0.25,1.41,
3.688,0.08,0.99,0.42,-2.51,-0.25,1.41,
3.689,0.08,0.99,0.42,-2.50,-0.22,1.42,
3.69,0.08,0.99,0.42,-2.50,-0.19,1.43,
3.707,0.08,0.99,0.42,-2.48,-0.14,1.44,
3.708,0.08,0.99,0.42,-2.48,-0.13,1.44,
3.709,0.08,0.99,0.42,-2.48,-0.10,1.45,
3.709,0.37,0.77,0.28,-2.48,-0.10,1.45,
3.709,0.37,0.77,0.28,-2.48,-0.07,1.45,
3.71,0.37,0.77,0.28,-2.48,-0.05,1.45,
3.71,0.37,0.77,0.28,-2.48,-0.01,1.45,
3.711,0.37,0.77,0.28,-2.48,-0.00,1.44,
3.711,0.37,0.77,0.28,-2.49,0.02,1.44,
3.711,0.47,0.50,0.09,-2.49,0.02,1.44,
3.712,0.47,0.50,0.09,-2.49,0.03,1.43,
3.712,0.47,0.50,0.09,-2.49,0.05,1.42,
3.715,0.47,0.50,0.09,-2.49,0.07,1.41,
3.715,0.47,0.50,0.09,-2.49,0.08,1.40,
3.717,0.47,0.50,0.09,-2.49,0.09,1.39,
3.719,0.47,0.30,0.09,-2.49,0.09,1.39,
3.719,0.47,0.30,0.09,-2.49,0.10,1.38,
3.72,0.47,0.30,0.09,-2.48,0.10,1.37,
3.723,0.47,0.30,0.09,-2.46,0.11,1.34,
3.762,0.47,0.30,0.09,-2.46,0.12,1.33,
3.763,0.47,0.30,0.09,-2.44,0.13,1.32,
3.763,0.41,0.16,0.25,-2.44,0.13,1.32,
3.763,0.41,0.16,0.25,-2.42,0.13,1.30,
3.763,0.41,0.16,0.25,-2.41,0.14,1.28,
3.764,0.41,0.16,0.25,-2.38,0.15,1.25,
3.764,0.41,0.16,0.25,-2.37,0.15,1.24,
3.764,0.41,0.16,0.25,-2.35,0.16,1.21,
3.764,0.51,-0.01,0.35,-2.35,0.16,1.21,
3.764,0.51,-0.01,0.35,-2.32,0.17,1.19,
3.787,0.51,-0.01,0.35,-2.29,0.18,1.16,
3.787,0.51,-0.01,0.35,-2.24,0.20,1.12,
3.788,0.51,-0.01,0.35,-2.23,0.21,1.10,
3.788,0.51,-0.01,0.35,-2.20,0.24,1.07,
3.788,0.85,-0.19,0.48,-2.20,0.24,1.07,
3.789,0.85,-0.19,0.48,-2.16,0.26,1.03,
3.789,0.85,-0.19,0.48,-2.13,0.29,0.99,
3.789,0.85,-0.19,0.48,-2.06,0.33,0.93,
3.789,0.85,-0.19,0.48,-2.04,0.34,0.91,
3.79,0.85,-0.19,0.48,-2.01,0.37,0.86,
3.79,1.42,-0.50,0.96,-2.01,0.37,0.86,
3.79,1.42,-0.50,0.96,-1.96,0.40,0.82,
3.79,1.42,-0.50,0.96,-1.92,0.42,0.77,
3.791,1.42,-0.50,0.96,-1.84,0.44,0.70,
3.791,1.42,-0.50,0.96,-1.82,0.44,0.68,
3.791,1.42,-0.50,0.96,-1.76,0.44,0.63,
3.792,1.70,-0.84,1.95,-1.76,0.44,0.63,
3.792,1.70,-0.84,1.95,-1.70,0.44,0.58,
3.792,1.70,-0.84,1.95,-1.64,0.42,0.54,
3.792,1.70,-0.84,1.95,-1.53,0.41,0.48,
3.793,1.70,-0.84,1.95,-1.50,0.40,0.46,
3.793,1.70,-0.84,1.95,-1.42,0.38,0.41,
3.793,1.92,-1.21,3.15,-1.42,0.38,0.41,
3.793,1.92,-1.21,3.15,-1.35,0.37,0.37,
3.794,1.92,-1.21,3.15,-1.28,0.36,0.34,
3.794,1.92,-1.21,3.15,-1.16,0.34,0.28,
3.794,1.92,-1.21,3.15,-1.13,0.33,0.26,
3.794,1.92,-1.21,3.15,-1.05,0.32,0.22,
3.795,2.15,-1.77,3.92,-1.05,0.32,0.22,
3.795,2.15,-1.77,3.92,-0.97,0.30,0.19,
3.795,2.15,-1.77,3.92,-0.89,0.29,0.16,
3.796,2.15,-1.77,3.92,-0.77,0.27,0.11,
3.796,2.15,-1.77,3.92,-0.73,0.26,0.10,
3.796,2.15,-1.77,3.92,-0.64,0.27,0.07,
3.803,2.37,-2.13,4.80,-0.64,0.27,0.07,
3.803,2.37,-2.13,4.80,-0.56,0.28,0.04,
3.803,2.37,-2.13,4.80,-0.48,0.31,0.02,
3.804,2.37,-2.13,4.80,-0.37,0.34,-0.02,
3.804,2.37,-2.13,4.80,-0.34,0.36,-0.03,
3.806,2.37,-2.13,4.80,-0.29,0.38,-0.05,
3.811,2.88,-1.99,4.82,-0.29,0.38,-0.05,
3.812,2.88,-1.99,4.82,-0.25,0.41,-0.07,
3.812,2.88,-1.99,4.82,-0.21,0.45,-0.09,
3.813,2.88,-1.99,4.82,-0.18,0.52,-0.11,
3.814,2.88,-1.99,4.82,-0.18,0.56,-0.12,
3.816,2.88,-1.99,4.82,-0.18,0.64,-0.13,
3.819,3.61,-1.06,4.36,-0.18,0.64,-0.13,
3.819,3.61,-1.06,4.36,-0.19,0.73,-0.15,
3.82,3.61,-1.06,4.36,-0.21,0.83,-0.17,
3.833,3.61,-1.06,4.36,-0.27,1.00,-0.18,
3.833,3.61,-1.06,4.36,-0.30,1.06,-0.19,
3.834,3.61,-1.06,4.36,-0.35,1.18,-0.19,
3.834,3.88,0.11,3.18,-0.35,1.18,-0.19,
3.834,3.88,0.11,3.18,-0.41,1.29,-0.20,
3.834,3.88,0.11,3.18,-0.47,1.40,-0.21,
3.835,3.88,0.11,3.18,-0.57,1.52,-0.21,
3.835,3.88,0.11,3.18,-0.60,1.55,-0.21,
3.836,3.88,0.11,3.18,-0.67,1.61,-0.22,
3.839,3.94,1.12,2.89,-0.67,1.61,-0.22,
3.839,3.94,1.12,2.89,-0.73,1.66,-0.23,
3.865,3.94,1.12,2.89,-0.79,1.69,-0.24,
3.866,3.94,1.12,2.89,-0.87,1.74,-0.26,
3.866,3.94,1.12,2.89,-0.89,1.75,-0.26,
3.866,3.94,1.12,2.89,-0.93,1.75,-0.28,
3.866,3.88,2.22,3.26,-0.93,1.75,-0.28,
3.867,3.88,2.22,3.26,-0.97,1.74,-0.30,
3.867,3.88,2.22,3.26,-1.00,1.72,-0.32,
3.867,3.88,2.22,3.26,-1.04,1.67,-0.34,
3.867,3.88,2.22,3.26,-1.04,1.65,-0.35,
3.868,3.88,2.22,3.26,-1.06,1.60,-0.37,
3.868,3.73,3.13,3.90,-1.06,1.60,-0.37,
3.868,3.73,3.13,3.90,-1.07,1.56,-0.39,
3.868,3.73,3.13,3.90,-1.08,1.50,-0.40,
3.869,3.73,3.13,3.90,-1.11,1.41,-0.42,
3.871,3.73,3.13,3.90,-1.14,1.30,-0.43,
3.871,3.73,3.13,3.90,-1.15,1.27,-0.44,
3.871,3.41,3.35,3.01,-1.15,1.27,-0.44,
3.872,3.41,3.35,3.01,-1.16,1.23,-0.44,
3.872,3.41,3.35,3.01,-1.19,1.16,-0.45,
3.874,3.41,3.35,3.01,-1.23,1.06,-0.47,
3.875,3.41,3.35,3.01,-1.25,1.03,-0.48,
3.876,3.41,3.35,3.01,-1.28,0.96,-0.50,
3.88,3.74,2.97,1.70,-1.28,0.96,-0.50,
3.881,3.74,2.97,1.70,-1.32,0.89,-0.52,
3.881,3.74,2.97,1.70,-1.36,0.81,-0.54,
3.883,3.74,2.97,1.70,-1.42,0.70,-0.57,
3.884,3.74,2.97,1.70,-1.44,0.66,-0.58,
3.886,3.74,2.97,1.70,-1.49,0.57,-0.60,
3.888,3.79,2.62,0.54,-1.49,0.57,-0.60,
3.889,3.79,2.62,0.54,-1.53,0.48,-0.62,
3.891,3.79,2.62,0.54,-1.58,0.38,-0.63,
3.894,3.79,2.62,0.54,-1.64,0.22,-0.65,
3.895,3.79,2.62,0.54,-1.66,0.16,-0.66,
3.896,3.79,2.62,0.54,-1.71,0.05,-0.67,
3.899,3.76,2.10,-0.05,-1.71,0.05,-0.67,
3.899,3.76,2.10,-0.05,-1.74,-0.07,-0.67,
3.901,3.76,2.10,-0.05,-1.78,-0.19,-0.68,
3.903,3.76,2.10,-0.05,-1.84,-0.35,-0.68,
3.904,3.76,2.10,-0.05,-1.86,-0.41,-0.68,
3.907,3.76,2.10,-0.05,-1.89,-0.51,-0.68,
3.923,3.51,1.65,-0.24,-1.89,-0.51,-0.68,
3.924,3.51,1.65,-0.24,-1.92,-0.60,-0.68,
3.924,3.51,1.65,-0.24,-1.94,-0.68,-0.68,
3.924,3.51,1.65,-0.24,-1.97,-0.79,-0.68,
3.924,3.51,1.65,-0.24,-1.98,-0.82,-0.67,
3.924,3.51,1.65,-0.24,-1.98,-0.88,-0.67,
3.925,3.23,1.21,0.02,-1.98,-0.88,-0.67,
3.925,3.23,1.21,0.02,-1.99,-0.92,-0.66,
3.925,3.23,1.21,0.02,-2.00,-0.96,-0.65,
3.925,3.23,1.21,0.02,-1.99,-1.00,-0.63,
3.926,3.23,1.21,0.02,-1.99,-1.01,-0.62,
3.928,3.23,1.21,0.02,-1.98,-1.02,-0.61,
3.93,2.62,0.90,0.35,-1.98,-1.02,-0.61,
3.93,2.62,0.90,0.35,-1.97,-1.01,-0.59,
3.93,2.62,0.90,0.35,-1.95,-1.00,-0.57,
3.933,2.62,0.90,0.35,-1.92,-0.97,-0.55,
3.934,2.62,0.90,0.35,-1.91,-0.96,-0.54,
3.936,2.62,0.90,0.35,-1.89,-0.92,-0.52,
3.939,2.05,0.60,0.84,-1.89,-0.92,-0.52,
3.939,2.05,0.60,0.84,-1.86,-0.88,-0.51,
3.941,2.05,0.60,0.84,-1.83,-0.83,-0.49,
3.944,2.05,0.60,0.84,-1.78,-0.74,-0.47,
3.945,2.05,0.60,0.84,-1.76,-0.71,-0.46,
3.946,2.05,0.60,0.84,-1.73,-0.64,-0.45,
3.948,1.56,0.21,1.23,-1.73,-0.64,-0.45,
3.949,1.56,0.21,1.23,-1.69,-0.57,-0.44,
3.95,1.56,0.21,1.23,-1.66,-0.49,-0.42,
3.953,1.56,0.21,1.23,-1.60,-0.38,-0.41,
3.954,1.56,0.21,1.23,-1.58,-0.35,-0.41,
3.957,1.56,0.21,1.23,-1.55,-0.27,-0.39,
3.958,1.19,-0.42,1.46,-1.55,-0.27,-0.39,
3.958,1.19,-0.42,1.46,-1.52,-0.20,-0.39,
3.96,1.19,-0.42,1.46,-1.48,-0.14,-0.38,
3.963,1.19,-0.42,1.46,-1.44,-0.04,-0.37,
3.964,1.19,-0.42,1.46,-1.43,-0.02,-0.37,
3.966,1.19,-0.42,1.46,-1.41,0.03,-0.36,
3.968,0.83,-1.22,1.25,-1.41,0.03,-0.36,
3.968,0.83,-1.22,1.25,-1.39,0.08,-0.36,
3.97,0.83,-1.22,1.25,-1.37,0.11,-0.36,
3.973,0.83,-1.22,1.25,-1.35,0.15,-0.35,
3.974,0.83,-1.22,1.25,-1.35,0.16,-0.34,
3.977,0.83,-1.22,1.25,-1.34,0.17,-0.34,
3.978,0.25,-2.21,0.80,-1.34,0.17,-0.34,
3.978,0.25,-2.21,0.80,-1.34,0.17,-0.33,
3.98,0.25,-2.21,0.80,-1.35,0.17,-0.33,
3.983,0.25,-2.21,0.80,-1.37,0.16,-0.32,
3.984,0.25,-2.21,0.80,-1.38,0.16,-0.31,
3.986,0.25,-2.21,0.80,-1.40,0.14,-0.31,
3.988,-0.36,-3.22,0.18,-1.40,0.14,-0.31,
3.988,-0.36,-3.22,0.18,-1.42,0.13,-0.30,
3.994,-0.36,-3.22,0.18,-1.45,0.12,-0.30,
3.995,-0.36,-3.22,0.18,-1.50,0.11,-0.29,
3.995,-0.36,-3.22,0.18,-1.52,0.11,-0.29,
3.996,-0.36,-3.22,0.18,-1.56,0.11,-0.28,
3.999,-1.04,-4.35,-0.18,-1.56,0.11,-0.28,
3.999,-1.04,-4.35,-0.18,-1.60,0.12,-0.28,
4.002,-1.04,-4.35,-0.18,-1.65,0.14,-0.28,
4.003,-1.04,-4.35,-0.18,-1.72,0.19,-0.28,
4.004,-1.04,-4.35,-0.18,-1.74,0.21,-0.28,
4.023,-1.04,-4.35,-0.18,-1.79,0.27,-0.28,
4.023,-1.99,-5.56,-0.02,-1.79,0.27,-0.28,
4.024,-1.99,-5.56,-0.02,-1.84,0.34,-0.28,
4.024,-1.99,-5.56,-0.02,-1.89,0.43,-0.28,
4.024,-1.99,-5.56,-0.02,-1.97,0.59,-0.27,
4.024,-1.99,-5.56,-0.02,-2.00,0.66,-0.27,
4.024,-1.99,-5.56,-0.02,-2.04,0.80,-0.27,
4.024,-3.28,-6.82,0.81,-2.04,0.80,-0.27,
4.024,-3.28,-6.82,0.81,-2.09,0.95,-0.27,
4.024,-3.28,-6.82,0.81,-2.13,1.12,-0.26,
4.024,-3.28,-6.82,0.81,-2.19,1.40,-0.24,
4.025,-3.28,-6.82,0.81,-2.21,1.50,-0.24,
4.026,-3.28,-6.82,0.81,-2.23,1.71,-0.22,
4.028,-4.87,-7.86,2.22,-2.23,1.71,-0.22,
4.029,-4.87,-7.86,2.22,-2.26,1.93,-0.21,
4.03,-4.87,-7.86,2.22,-2.27,2.16,-0.18,
4.033,-4.87,-7.86,2.22,-2.27,2.49,-0.15,
4.034,-4.87,-7.86,2.22,-2.27,2.61,-0.14,
4.036,-4.87,-7.86,2.22,-2.26,2.83,-0.11,
4.038,-6.41,-8.39,4.36,-2.26,2.83,-0.11,
4.039,-6.41,-8.39,4.36,-2.23,3.05,-0.08,
4.041,-6.41,-8.39,4.36,-2.20,3.25,-0.05,
4.043,-6.41,-8.39,4.36,-2.13,3.54,-0.01,
4.044,-6.41,-8.39,4.36,-2.10,3.62,0.00,
4.047,-6.41,-8.39,4.36,-2.03,3.76,0.03,
4.049,-6.64,-7.48,7.01,-2.03,3.76,0.03,
4.05,-6.64,-7.48,7.01,-1.95,3.87,0.07,
4.05,-6.64,-7.48,7.01,-1.86,3.95,0.11,
4.053,-6.64,-7.48,7.01,-1.69,3.99,0.17,
4.054,-6.64,-7.48,7.01,-1.63,3.99,0.19,
4.059,-6.64,-7.48,7.01,-1.50,3.93,0.24,
4.059,-5.96,-5.55,10.66,-1.50,3.93,0.24,
4.059,-5.96,-5.55,10.66,-1.36,3.83,0.29,
4.06,-5.96,-5.55,10.66,-1.20,3.66,0.34,
4.063,-5.96,-5.55,10.66,-0.96,3.33,0.42,
4.064,-5.96,-5.55,10.66,-0.88,3.19,0.45,
4.066,-5.96,-5.55,10.66,-0.71,2.87,0.50,
4.068,-4.58,-4.22,13.06,-0.71,2.87,0.50,
4.069,-4.58,-4.22,13.06,-0.53,2.52,0.56,
4.07,-4.58,-4.22,13.06,-0.36,2.12,0.61,
4.073,-4.58,-4.22,13.06,-0.09,1.48,0.69,
4.095,-4.58,-4.22,13.06,-0.00,1.26,0.71,
4.096,-4.58,-4.22,13.06,0.53,-0.11,0.87,
4.096,-4.58,-4.22,13.06,0.53,-0.11,0.87,
4.097,-4.58,-4.22,13.06,0.53,-0.11,0.87,
4.097,-3.31,-3.96,13.38,0.53,-0.11,0.87,
4.098,-3.31,-3.96,13.38,0.87,-0.96,0.96,
4.098,-3.31,-3.96,13.38,0.95,-1.15,0.97,
4.099,-3.31,-3.96,13.38,1.04,-1.33,0.99,
4.099,-2.80,-3.92,12.26,1.04,-1.33,0.99,
4.099,-2.80,-3.92,12.26,1.20,-1.66,1.02,
4.1,-2.80,-3.92,12.26,1.36,-1.94,1.04,
4.1,-2.80,-3.92,12.26,1.59,-2.25,1.05,
4.101,-2.80,-3.92,12.26,1.67,-2.33,1.06,
4.101,-2.80,-3.92,12.26,1.82,-2.45,1.06,
4.101,-2.15,-4.07,10.86,1.82,-2.45,1.06,
4.101,-2.15,-4.07,10.86,1.98,-2.51,1.05,
4.102,-2.15,-4.07,10.86,2.12,-2.51,1.04,
4.103,-2.15,-4.07,10.86,2.34,-2.42,1.03,
4.107,-2.15,-4.07,10.86,2.40,-2.36,1.02,
4.108,-2.15,-4.07,10.86,2.54,-2.20,1.01,
4.109,-1.96,-4.08,9.28,2.54,-2.20,1.01,
4.11,-1.96,-4.08,9.28,2.67,-2.01,0.99,
4.11,-1.96,-4.08,9.28,2.79,-1.78,0.98,
4.113,-1.96,-4.08,9.28,2.97,-1.37,0.96,
4.114,-1.96,-4.08,9.28,3.03,-1.22,0.96,
4.119,-1.96,-4.08,9.28,3.15,-0.91,0.95,
4.119,-1.82,-3.85,8.54,3.15,-0.91,0.95,
4.12,-1.82,-3.85,8.54,3.26,-0.59,0.94,
4.12,-1.82,-3.85,8.54,3.37,-0.26,0.93,
4.131,-1.82,-3.85,8.54,3.53,0.22,0.92,
4.132,-1.82,-3.85,8.54,3.59,0.38,0.91,
4.132,-1.82,-3.85,8.54,3.69,0.67,0.91,
4.132,-0.91,-3.81,7.84,3.69,0.67,0.91,
4.132,-0.91,-3.81,7.84,3.80,0.94,0.90,
4.133,-0.91,-3.81,7.84,3.91,1.17,0.89,
4.148,-0.91,-3.81,7.84,4.07,1.46,0.87,
4.148,-0.91,-3.81,7.84,4.13,1.54,0.86,
4.149,-0.91,-3.81,7.84,4.24,1.66,0.84,
4.149,1.02,-3.98,7.43,4.24,1.66,0.84,
4.149,1.02,-3.98,7.43,4.34,1.73,0.81,
4.149,1.02,-3.98,7.43,4.45,1.75,0.78,
4.149,1.02,-3.98,7.43,4.58,1.69,0.71,
4.15,1.02,-3.98,7.43,4.61,1.64,0.68,
4.15,1.02,-3.98,7.43,4.66,1.50,0.62,
4.15,3.53,-4.53,4.77,4.66,1.50,0.62,
4.15,3.53,-4.53,4.77,4.67,1.30,0.56,
4.151,3.53,-4.53,4.77,4.66,1.05,0.48,
4.153,3.53,-4.53,4.77,4.57,0.58,0.36,
4.154,3.53,-4.53,4.77,4.52,0.40,0.32,
4.158,3.53,-4.53,4.77,4.41,0.02,0.24,
4.158,5.26,-5.21,-1.78,4.41,0.02,0.24,
4.159,5.26,-5.21,-1.78,4.26,-0.38,0.15,
4.161,5.26,-5.21,-1.78,4.08,-0.77,0.07,
4.163,5.26,-5.21,-1.78,3.78,-1.32,-0.05,
4.164,5.26,-5.21,-1.78,3.67,-1.49,-0.09,
4.166,5.26,-5.21,-1.78,3.44,-1.79,-0.16,
4.168,4.62,-4.92,-8.35,3.44,-1.79,-0.16,
4.169,4.62,-4.92,-8.35,3.19,-2.05,-0.24,
4.17,4.62,-4.92,-8.35,2.94,-2.26,-0.31,
4.173,4.62,-4.92,-8.35,2.54,-2.49,-0.40,
4.174,4.62,-4.92,-8.35,2.41,-2.54,-0.43,
4.176,4.62,-4.92,-8.35,2.15,-2.60,-0.50,
4.178,3.93,-4.36,-12.67,2.15,-2.60,-0.50,
4.179,3.93,-4.36,-12.67,1.91,-2.61,-0.55,
4.18,3.93,-4.36,-12.67,1.67,-2.59,-0.60,
4.183,3.93,-4.36,-12.67,1.35,-2.52,-0.65,
4.184,3.93,-4.36,-12.67,1.26,-2.49,-0.67,
4.187,3.93,-4.36,-12.67,1.07,-2.43,-0.70,
4.189,2.90,-4.00,-11.97,1.07,-2.43,-0.70,
4.19,2.90,-4.00,-11.97,0.91,-2.37,-0.72,
4.19,2.90,-4.00,-11.97,0.76,-2.30,-0.75,
4.193,2.90,-4.00,-11.97,0.56,-2.19,-0.78,
4.195,2.90,-4.00,-11.97,0.51,-2.15,-0.78,
4.196,2.90,-4.00,-11.97,0.40,-2.05,-0.79,
4.199,2.25,-3.78,-10.36,0.40,-2.05,-0.79,
4.199,2.25,-3.78,-10.36,0.31,-1.94,-0.79,
4.2,2.25,-3.78,-10.36,0.22,-1.82,-0.78,
4.203,2.25,-3.78,-10.36,0.11,-1.62,-0.76,
4.204,2.25,-3.78,-10.36,0.08,-1.55,-0.75,
4.208,2.25,-3.78,-10.36,0.04,-1.40,-0.72,
4.212,1.48,-3.58,-8.99,0.04,-1.40,-0.72,
4.213,1.48,-3.58,-8.99,-0.00,-1.25,-0.70,
4.214,1.48,-3.58,-8.99,-0.03,-1.09,-0.67,
4.214,1.48,-3.58,-8.99,-0.04,-0.86,-0.62,
4.216,1.48,-3.58,-8.99,-0.02,-0.63,-0.57,
4.22,1.48,-3.58,-8.99,-0.00,-0.56,-0.55,
4.221,1.14,-3.54,-7.67,-0.00,-0.56,-0.55,
4.221,1.14,-3.54,-7.67,0.02,-0.50,-0.54,
4.221,1.14,-3.54,-7.67,0.06,-0.37,-0.50,
4.223,1.14,-3.54,-7.67,0.15,-0.22,-0.44,
4.224,1.14,-3.54,-7.67,0.19,-0.17,-0.43,
4.226,1.14,-3.54,-7.67,0.26,-0.10,-0.39,
4.229,1.04,-3.08,-5.96,0.26,-0.10,-0.39,
4.229,1.04,-3.08,-5.96,0.34,-0.04,-0.36,
4.231,1.04,-3.08,-5.96,0.42,0.01,-0.33,
4.233,1.04,-3.08,-5.96,0.53,0.05,-0.29,
4.234,1.04,-3.08,-5.96,0.57,0.06,-0.29,
4.236,1.04,-3.08,-5.96,0.64,0.07,-0.27,
4.239,1.54,-2.25,-5.84,0.64,0.07,-0.27,
4.239,1.54,-2.25,-5.84,0.71,0.09,-0.27,
4.257,1.54,-2.25,-5.84,0.76,0.11,-0.27,
4.257,1.54,-2.25,-5.84,0.83,0.17,-0.29,
4.257,1.54,-2.25,-5.84,0.85,0.20,-0.29,
4.258,1.54,-2.25,-5.84,0.89,0.26,-0.30,
4.258,2.04,-1.74,-6.49,0.89,0.26,-0.30,
4.258,2.04,-1.74,-6.49,0.92,0.33,-0.32,
4.259,2.04,-1.74,-6.49,0.96,0.39,-0.34,
4.259,2.04,-1.74,-6.49,0.99,0.49,-0.37,
4.259,2.04,-1.74,-6.49,1.00,0.52,-0.38,
4.259,2.04,-1.74,-6.49,1.01,0.58,-0.40,
4.259,2.10,-1.28,-7.23,1.01,0.58,-0.40,
4.26,2.10,-1.28,-7.23,1.02,0.64,-0.43,
4.264,2.10,-1.28,-7.23,1.01,0.71,-0.46,
4.265,2.10,-1.28,-7.23,0.99,0.83,-0.52,
4.265,2.10,-1.28,-7.23,0.98,0.86,-0.54,
4.266,2.10,-1.28,-7.23,0.95,0.94,-0.58,
4.268,2.09,-0.83,-8.10,0.95,0.94,-0.58,
4.269,2.09,-0.83,-8.10,0.93,1.02,-0.62,
4.27,2.09,-0.83,-8.10,0.90,1.09,-0.65,
4.283,2.09,-0.83,-8.10,0.85,1.20,-0.70,
4.283,2.09,-0.83,-8.10,0.83,1.23,-0.71,
4.284,2.09,-0.83,-8.10,0.79,1.27,-0.74,
4.284,1.40,-0.18,-8.34,0.79,1.27,-0.74,
4.284,1.40,-0.18,-8.34,0.75,1.31,-0.76,
4.284,1.40,-0.18,-8.34,0.72,1.32,-0.77,
4.286,1.40,-0.18,-8.34,0.66,1.30,-0.78,
4.287,1.40,-0.18,-8.34,0.64,1.29,-0.78,
4.317,1.40,-0.18,-8.34,0.60,1.24,-0.78,
4.318,0.36,0.62,-7.25,0.60,1.24,-0.78,
4.318,0.36,0.62,-7.25,0.56,1.18,-0.78,
4.318,0.36,0.62,-7.25,0.52,1.11,-0.77,
4.318,0.36,0.62,-7.25,0.45,0.98,-0.75,
4.318,0.36,0.62,-7.25,0.44,0.93,-0.74,
4.319,0.36,0.62,-7.25,0.40,0.83,-0.73,
4.319,-0.53,1.49,-5.53,0.40,0.83,-0.73,
4.319,-0.53,1.49,-5.53,0.40,0.73,-0.72,
4.319,-0.53,1.49,-5.53,0.54,0.56,-0.73,
4.319,-0.53,1.49,-5.53,1.20,0.09,-0.79,
4.32,-0.53,1.49,-5.53,1.52,-0.11,-0.82,
4.32,-0.53,1.49,-5.53,2.17,-0.52,-0.89,
4.32,1.31,0.45,17.21,2.17,-0.52,-0.89,
4.32,1.31,0.45,17.21,2.81,-0.91,-0.95,
4.32,1.31,0.45,17.21,3.42,-1.28,-1.00,
4.321,1.31,0.45,17.21,4.18,-1.73,-1.04,
4.321,1.31,0.45,17.21,4.60,-1.96,-1.06,
4.321,1.31,0.45,17.21,4.79,-2.05,-1.07,
4.324,0.04,-1.22,15.29,4.79,-2.05,-1.07,
4.325,0.04,-1.22,15.29,5.11,-2.19,-1.08,
4.325,0.04,-1.22,15.29,5.37,-2.28,-1.09,
4.325,0.04,-1.22,15.29,5.67,-2.34,-1.09,
4.325,0.04,-1.22,15.29,5.74,-2.34,-1.09,
4.328,0.04,-1.22,15.29,5.87,-2.32,-1.08,
4.329,-1.26,-1.30,5.59,5.87,-2.32,-1.08,
4.329,-1.26,-1.30,5.59,5.97,-2.26,-1.08,
4.33,-1.26,-1.30,5.59,6.05,-2.14,-1.07,
4.333,-1.26,-1.30,5.59,6.12,-1.81,-1.06,
4.334,-1.26,-1.30,5.59,6.12,-1.67,-1.05,
4.336,-1.26,-1.30,5.59,6.09,-1.33,-1.04,
4.34,-2.24,-0.49,0.95,6.09,-1.33,-1.04,
4.341,-2.24,-0.49,0.95,6.01,-0.91,-1.03,
4.341,-2.24,-0.49,0.95,5.87,-0.43,-1.02,
4.343,-2.24,-0.49,0.95,5.58,0.37,-1.01,
4.344,-2.24,-0.49,0.95,5.46,0.64,-1.01,
4.35,-2.24,-0.49,0.95,5.18,1.18,-1.00,
4.351,-2.17,1.22,-4.77,5.18,1.18,-1.00,
4.351,-2.17,1.22,-4.77,4.69,1.94,-0.99,
4.351,-2.17,1.22,-4.77,4.52,2.18,-0.99,
4.353,-2.17,1.22,-4.77,3.98,2.80,-0.98,
4.355,-2.17,1.22,-4.77,3.61,3.14,-0.98,
4.356,-2.17,1.22,-4.77,3.42,3.28,-0.98,
4.36,-1.84,3.12,-9.21,3.42,3.28,-0.98,
4.36,-1.84,3.12,-9.21,3.06,3.54,-0.98,
4.36,-1.84,3.12,-9.21,2.71,3.75,-0.98,
4.363,-1.84,3.12,-9.21,2.22,3.99,-1.00,
4.364,-1.84,3.12,-9.21,2.07,4.06,-1.01,
4.366,-1.84,3.12,-9.21,1.79,4.17,-1.02,
4.368,-0.99,4.43,-8.63,1.79,4.17,-1.02,
4.369,-0.99,4.43,-8.63,1.54,4.26,-1.04,
4.37,-0.99,4.43,-8.63,1.31,4.32,-1.06,
4.373,-0.99,4.43,-8.63,1.03,4.33,-1.08,
4.374,-0.99,4.43,-8.63,0.95,4.31,-1.08,
4.376,-0.99,4.43,-8.63,0.81,4.25,-1.09,
4.379,-0.49,4.63,-5.86,0.81,4.25,-1.09,
4.379,-0.49,4.63,-5.86,0.70,4.14,-1.10,
4.38,-0.49,4.63,-5.86,0.61,3.98,-1.11,
4.383,-0.49,4.63,-5.86,0.52,3.67,-1.13,
4.384,-0.49,4.63,-5.86,0.49,3.42,-1.14,
4.386,-0.49,4.63,-5.86,0.48,3.28,-1.14,
4.391,0.31,4.75,-3.00,0.48,3.28,-1.14,
4.391,0.31,4.75,-3.00,0.48,2.97,-1.15,
4.392,0.31,4.75,-3.00,0.49,2.65,-1.16,
4.393,0.31,4.75,-3.00,0.53,2.15,-1.18,
4.399,0.31,4.75,-3.00,0.55,1.99,-1.18,
4.399,0.31,4.75,-3.00,0.60,1.66,-1.19,
4.399,0.89,4.94,-1.69,0.60,1.66,-1.19,
4.399,0.89,4.94,-1.69,0.65,1.36,-1.20,
4.4,0.89,4.94,-1.69,0.71,1.07,-1.20,
4.403,0.89,4.94,-1.69,0.78,0.71,-1.20,
4.416,0.89,4.94,-1.69,0.81,0.60,-1.20,
4.416,0.89,4.94,-1.69,0.85,0.42,-1.20,
4.426,0.96,5.31,-2.53,0.85,0.42,-1.20,
4.426,0.96,5.31,-2.53,0.89,0.26,-1.20,
4.426,0.96,5.31,-2.53,0.93,0.14,-1.19,
4.427,0.96,5.31,-2.53,0.98,0.01,-1.18,
4.427,0.96,5.31,-2.53,1.00,-0.04,-1.17,
4.427,0.96,5.31,-2.53,1.01,-0.06,-1.16,
4.427,0.74,5.46,-3.99,1.01,-0.06,-1.16,
4.427,0.74,5.46,-3.99,1.03,-0.08,-1.15,
4.427,0.74,5.46,-3.99,1.05,-0.06,-1.12,
4.428,0.74,5.46,-3.99,1.07,-0.01,-1.08,
4.428,0.74,5.46,-3.99,1.08,0.01,-1.06,
4.428,0.74,5.46,-3.99,1.09,0.07,-1.03,
4.43,-0.01,5.56,-4.49,1.09,0.07,-1.03,
4.43,-0.01,5.56,-4.49,1.10,0.14,-0.98,
4.43,-0.01,5.56,-4.49,1.11,0.22,-0.93,
4.433,-0.01,5.56,-4.49,1.11,0.34,-0.84,
4.434,-0.01,5.56,-4.49,1.12,0.38,-0.81,
4.439,-0.01,5.56,-4.49,1.11,0.51,-0.72,
4.439,-1.10,5.35,-4.73,1.11,0.51,-0.72,
4.44,-1.10,5.35,-4.73,1.11,0.55,-0.68,
4.44,-1.10,5.35,-4.73,1.10,0.64,-0.61,
4.443,-1.10,5.35,-4.73,1.07,0.76,-0.51,
4.444,-1.10,5.35,-4.73,1.06,0.80,-0.48,
4.446,-1.10,5.35,-4.73,1.04,0.88,-0.41,
4.448,-1.53,5.11,-4.78,1.04,0.88,-0.41,
4.448,-1.53,5.11,-4.78,1.01,0.95,-0.34,
4.45,-1.53,5.11,-4.78,0.98,1.02,-0.29,
4.453,-1.53,5.11,-4.78,0.92,1.11,-0.20,
4.455,-1.53,5.11,-4.78,0.90,1.13,-0.18,
4.456,-1.53,5.11,-4.78,0.86,1.18,-0.14,
4.458,-1.45,4.82,-4.99,0.86,1.18,-0.14,
4.459,-1.45,4.82,-4.99,0.82,1.21,-0.11,
4.461,-1.45,4.82,-4.99,0.77,1.24,-0.08,
4.463,-1.45,4.82,-4.99,0.69,1.28,-0.05,
4.464,-1.45,4.82,-4.99,0.65,1.29,-0.03,
4.466,-1.45,4.82,-4.99,0.62,1.30,-0.02,
4.468,-0.93,4.59,-4.96,0.62,1.30,-0.02,
4.469,-0.93,4.59,-4.96,0.54,1.32,-0.01,
4.47,-0.93,4.59,-4.96,0.51,1.32,-0.01,
4.475,-0.93,4.59,-4.96,0.43,1.33,-0.01,
4.475,-0.93,4.59,-4.96,0.37,1.34,-0.01,
4.478,-0.93,4.59,-4.96,0.31,1.36,-0.01,
4.479,-0.74,4.41,-5.24,0.31,1.36,-0.01,
4.479,-0.74,4.41,-5.24,0.25,1.37,-0.01,
4.48,-0.74,4.41,-5.24,0.19,1.39,-0.01,
4.483,-0.74,4.41,-5.24,0.13,1.41,-0.02,
4.484,-0.74,4.41,-5.24,0.07,1.44,-0.02,
4.486,-0.74,4.41,-5.24,-0.00,1.48,-0.03,
4.488,-0.76,4.46,-5.52,-0.00,1.48,-0.03,
4.489,-0.76,4.46,-5.52,-0.07,1.52,-0.03,
4.49,-0.76,4.46,-5.52,-0.10,1.55,-0.03,
4.495,-0.76,4.46,-5.52,-0.21,1.62,-0.03,
4.496,-0.76,4.46,-5.52,-0.29,1.67,-0.03,
4.496,-0.76,4.46,-5.52,-0.36,1.71,-0.03,
4.498,-1.06,4.53,-6.22,-0.36,1.71,-0.03,
4.499,-1.06,4.53,-6.22,-0.45,1.77,-0.03,
4.5,-1.06,4.53,-6.22,-0.49,1.79,-0.04,
4.503,-1.06,4.53,-6.22,-0.62,1.87,-0.04,
4.504,-1.06,4.53,-6.22,-0.71,1.92,-0.04,
4.506,-1.06,4.53,-6.22,-0.81,1.96,-0.05,
4.509,-1.15,4.66,-6.67,-0.81,1.96,-0.05,
4.509,-1.15,4.66,-6.67,-0.90,2.00,-0.05,
4.51,-1.15,4.66,-6.67,-1.00,2.04,-0.06,
4.513,-1.15,4.66,-6.67,-1.10,2.08,-0.06,
4.514,-1.15,4.66,-6.67,-1.20,2.11,-0.07,
4.516,-1.15,4.66,-6.67,-1.31,2.14,-0.07,
4.519,-1.37,4.65,-7.08,-1.31,2.14,-0.07,
4.519,-1.37,4.65,-7.08,-1.40,2.18,-0.07,
4.536,-1.37,4.65,-7.08,-1.50,2.21,-0.07,
4.537,-1.37,4.65,-7.08,-1.60,2.25,-0.08,
4.538,-1.37,4.65,-7.08,-1.69,2.29,-0.08,
4.539,-1.37,4.65,-7.08,-1.79,2.33,-0.08,
4.539,-1.49,4.57,-6.75,-1.79,2.33,-0.08,
4.539,-1.49,4.57,-6.75,-1.88,2.38,-0.08,
4.54,-1.49,4.57,-6.75,-1.97,2.44,-0.09,
4.541,-1.49,4.57,-6.75,-2.05,2.49,-0.09,
4.541,-1.49,4.57,-6.75,-2.13,2.55,-0.09,
4.541,-1.49,4.57,-6.75,-2.21,2.61,-0.09,
4.542,-1.61,4.33,-6.30,-2.21,2.61,-0.09,
4.542,-1.61,4.33,-6.30,-2.29,2.66,-0.10,
4.543,-1.61,4.33,-6.30,-2.36,2.71,-0.10,
4.543,-1.61,4.33,-6.30,-2.43,2.75,-0.11,
4.544,-1.61,4.33,-6.30,-2.50,2.79,-0.11,
4.548,-1.61,4.33,-6.30,-2.57,2.83,-0.12,
4.549,-1.14,3.91,-4.86,-2.57,2.83,-0.12,
4.549,-1.14,3.91,-4.86,-2.63,2.86,-0.13,
4.55,-1.14,3.91,-4.86,-2.68,2.88,-0.13,
4.553,-1.14,3.91,-4.86,-2.74,2.90,-0.14,
4.562,-1.14,3.91,-4.86,-2.79,2.92,-0.15,
4.563,-1.14,3.91,-4.86,-2.84,2.93,-0.16,
4.563,-0.18,3.21,-2.91,-2.84,2.93,-0.16,
4.563,-0.18,3.21,-2.91,-2.89,2.94,-0.17,
4.563,-0.18,3.21,-2.91,-2.94,2.95,-0.19,
4.563,-0.18,3.21,-2.91,-2.99,2.96,-0.21,
4.567,-0.18,3.21,-2.91,-3.06,2.96,-0.23,
4.567,-0.18,3.21,-2.91,-3.09,2.96,-0.24,
4.571,1.11,2.27,-0.70,-3.09,2.96,-0.24,
4.571,1.11,2.27,-0.70,-3.14,2.95,-0.27,
4.571,1.11,2.27,-0.70,-3.19,2.94,-0.29,
4.573,1.11,2.27,-0.70,-3.23,2.92,-0.32,
4.595,1.11,2.27,-0.70,-3.27,2.88,-0.35,
4.595,1.11,2.27,-0.70,-3.30,2.83,-0.39,
4.596,1.11,2.27,-0.70,-3.31,2.75,-0.42,
4.596,2.15,1.24,2.28,-3.31,2.75,-0.42,
4.596,2.15,1.24,2.28,-3.32,2.65,-0.46,
4.597,2.15,1.24,2.28,-3.32,2.51,-0.50,
4.597,2.15,1.24,2.28,-3.29,2.35,-0.54,
4.597,2.15,1.24,2.28,-3.25,2.13,-0.58,
4.597,2.84,0.21,7.20,-3.25,2.13,-0.58,
4.598,2.84,0.21,7.20,-3.18,1.88,-0.62,
4.598,2.84,0.21,7.20,-3.08,1.58,-0.64,
4.598,2.84,0.21,7.20,-2.94,1.24,-0.65,
4.599,2.84,0.21,7.20,-2.78,0.87,-0.65,
4.599,2.84,0.21,7.20,-2.59,0.49,-0.64,
4.599,1.02,-1.76,16.14,-2.59,0.49,-0.64,
4.599,1.02,-1.76,16.14,-2.38,0.10,-0.62,
4.605,1.02,-1.76,16.14,-2.18,-0.27,-0.59,
4.605,1.02,-1.76,16.14,-1.97,-0.63,-0.57,
4.606,1.02,-1.76,16.14,-1.77,-0.97,-0.56,
4.608,1.02,-1.76,16.14,-1.60,-1.25,-0.57,
4.609,-1.10,-4.11,21.26,-1.60,-1.25,-0.57,
4.609,-1.10,-4.11,21.26,-1.45,-1.50,-0.58,
4.61,-1.10,-4.11,21.26,-1.34,-1.69,-0.60,
4.615,-1.10,-4.11,21.26,-1.22,-1.88,-0.64,
4.616,-1.10,-4.11,21.26,-1.20,-1.92,-0.66,
4.616,-1.10,-4.11,21.26,-1.17,-1.94,-0.70,
4.618,-1.69,-5.83,19.28,-1.17,-1.94,-0.70,
4.619,-1.69,-5.83,19.28,-1.15,-1.90,-0.73,
4.621,-1.69,-5.83,19.28,-1.16,-1.81,-0.75,
4.623,-1.69,-5.83,19.28,-1.18,-1.68,-0.77,
4.625,-1.69,-5.83,19.28,-1.20,-1.52,-0.80,
4.626,-1.69,-5.83,19.28,-1.23,-1.35,-0.82,
4.629,-1.93,-5.92,14.98,-1.23,-1.35,-0.82,
4.629,-1.93,-5.92,14.98,-1.26,-1.18,-0.85,
4.63,-1.93,-5.92,14.98,-1.29,-1.03,-0.87,
4.633,-1.93,-5.92,14.98,-1.31,-0.89,-0.90,
4.634,-1.93,-5.92,14.98,-1.32,-0.77,-0.91,
4.637,-1.93,-5.92,14.98,-1.31,-0.67,-0.93,
4.639,-1.18,-5.18,12.66,-1.31,-0.67,-0.93,
4.639,-1.18,-5.18,12.66,-1.28,-0.58,-0.94,
4.641,-1.18,-5.18,12.66,-1.23,-0.51,-0.95,
4.643,-1.18,-5.18,12.66,-1.16,-0.46,-0.95,
4.645,-1.18,-5.18,12.66,-1.06,-0.42,-0.94,
4.646,-1.18,-5.18,12.66,-0.95,-0.40,-0.92,
4.648,-0.25,-4.23,11.71,-0.95,-0.40,-0.92,
4.648,-0.25,-4.23,11.71,-0.83,-0.39,-0.89,
4.65,-0.25,-4.23,11.71,-0.70,-0.40,-0.85,
4.654,-0.25,-4.23,11.71,-0.57,-0.44,-0.80,
4.655,-0.25,-4.23,11.71,-0.44,-0.49,-0.74,
4.657,-0.25,-4.23,11.71,-0.31,-0.57,-0.68,
4.659,-0.55,-3.65,8.61,-0.31,-0.57,-0.68,
4.659,-0.55,-3.65,8.61,-0.18,-0.65,-0.61,
4.66,-0.55,-3.65,8.61,-0.07,-0.76,-0.54,
4.663,-0.55,-3.65,8.61,0.09,-0.91,-0.44,
4.664,-0.55,-3.65,8.61,0.14,-0.97,-0.41,
4.666,-0.55,-3.65,8.61,0.23,-1.07,-0.34,
4.668,-0.73,-4.32,3.64,0.23,-1.07,-0.34,
4.669,-0.73,-4.32,3.64,0.31,-1.17,-0.28,
4.689,-0.73,-4.32,3.64,0.37,-1.27,-0.22,
4.69,-0.73,-4.32,3.64,0.42,-1.36,-0.16,
4.69,-0.73,-4.32,3.64,0.46,-1.46,-0.11,
4.691,-0.73,-4.32,3.64,0.48,-1.55,-0.06,
4.691,-0.90,-6.07,-1.04,0.48,-1.55,-0.06,
4.691,-0.90,-6.07,-1.04,0.49,-1.64,-0.01,
4.691,-0.90,-6.07,-1.04,0.50,-1.73,0.03,
4.692,-0.90,-6.07,-1.04,0.50,-1.81,0.08,
4.692,-0.90,-6.07,-1.04,0.50,-1.89,0.11,
4.692,-0.90,-6.07,-1.04,0.49,-1.95,0.15,
4.692,-1.53,-8.27,-3.31,0.49,-1.95,0.15,
4.693,-1.53,-8.27,-3.31,0.47,-1.99,0.18,
4.693,-1.53,-8.27,-3.31,0.45,-2.00,0.21,
4.693,-1.53,-8.27,-3.31,0.43,-1.99,0.25,
4.694,-1.53,-8.27,-3.31,0.42,-1.97,0.26,
4.697,-1.53,-8.27,-3.31,0.41,-1.91,0.28,
4.699,-2.19,-9.65,-4.67,0.41,-1.91,0.28,
4.7,-2.19,-9.65,-4.67,0.41,-1.83,0.28,
4.7,-2.19,-9.65,-4.67,0.42,-1.73,0.28,
4.721,-2.19,-9.65,-4.67,0.43,-1.61,0.27,
4.721,-2.19,-9.65,-4.67,0.46,-1.50,0.25,
4.721,-2.19,-9.65,-4.67,0.51,-1.39,0.24,
4.721,-2.22,-7.27,-4.44,0.51,-1.39,0.24,
4.722,-2.22,-7.27,-4.44,0.57,-1.30,0.22,
4.722,-2.22,-7.27,-4.44,0.65,-1.23,0.21,
4.722,-2.22,-7.27,-4.44,0.80,-1.14,0.20,
4.722,-2.22,-7.27,-4.44,0.85,-1.11,0.19,
4.722,-2.22,-7.27,-4.44,0.96,-1.07,0.18,
4.722,-1.74,-3.12,-1.46,0.96,-1.07,0.18,
4.723,-1.74,-3.12,-1.46,1.05,-1.03,0.17,
4.723,-1.74,-3.12,-1.46,1.13,-0.99,0.16,
4.724,-1.74,-3.12,-1.46,1.19,-0.96,0.16,
4.724,-1.74,-3.12,-1.46,1.22,-0.92,0.16,
4.726,-1.74,-3.12,-1.46,1.23,-0.87,0.16,
4.728,-0.97,0.86,-3.01,1.23,-0.87,0.16,
4.728,-0.97,0.86,-3.01,1.21,-0.81,0.17,
4.73,-0.97,0.86,-3.01,1.18,-0.74,0.18,
4.733,-0.97,0.86,-3.01,1.14,-0.65,0.19,
4.734,-0.97,0.86,-3.01,1.10,-0.56,0.20,
4.737,-0.97,0.86,-3.01,1.05,-0.45,0.21,
4.738,-0.65,3.93,-5.38,1.05,-0.45,0.21,
4.738,-0.65,3.93,-5.38,1.01,-0.35,0.22,
4.752,-0.65,3.93,-5.38,0.96,-0.24,0.23,
4.752,-0.65,3.93,-5.38,0.92,-0.13,0.24,
4.752,-0.65,3.93,-5.38,0.87,-0.03,0.25,
4.752,-0.65,3.93,-5.38,0.83,0.09,0.25,
4.752,0.13,5.87,-4.50,0.83,0.09,0.25,
4.752,0.13,5.87,-4.50,0.79,0.20,0.25,
4.753,0.13,5.87,-4.50,0.76,0.34,0.25,
4.753,0.13,5.87,-4.50,0.74,0.50,0.25,
4.756,0.13,5.87,-4.50,0.71,0.70,0.24,
4.756,0.13,5.87,-4.50,0.67,0.92,0.24,
4.758,0.82,7.88,-1.78,0.67,0.92,0.24,
4.759,0.82,7.88,-1.78,0.62,1.16,0.23,
4.76,0.82,7.88,-1.78,0.55,1.39,0.23,
4.763,0.82,7.88,-1.78,0.42,1.72,0.24,
4.764,0.82,7.88,-1.78,0.36,1.82,0.25,
4.766,0.82,7.88,-1.78,0.24,2.02,0.26,
4.768,1.24,8.47,-2.34,0.24,2.02,0.26,
4.768,1.24,8.47,-2.34,0.12,2.20,0.28,
4.77,1.24,8.47,-2.34,-0.01,2.36,0.30,
4.773,1.24,8.47,-2.34,-0.22,2.57,0.34,
4.774,1.24,8.47,-2.34,-0.29,2.63,0.35,
4.776,1.24,8.47,-2.34,-0.43,2.73,0.36,
4.778,1.18,5.36,-5.07,-0.43,2.73,0.36,
4.778,1.18,5.36,-5.07,-0.57,2.81,0.38,
4.78,1.18,5.36,-5.07,-0.72,2.87,0.39,
4.783,1.18,5.36,-5.07,-0.92,2.91,0.40,
4.784,1.18,5.36,-5.07,-0.98,2.91,0.40,
4.786,1.18,5.36,-5.07,-1.12,2.91,0.40,
4.788,1.16,1.63,-6.41,-1.12,2.91,0.40,
4.788,1.16,1.63,-6.41,-1.24,2.88,0.40,
4.79,1.16,1.63,-6.41,-1.36,2.84,0.40,
4.793,1.16,1.63,-6.41,-1.53,2.77,0.40,
4.794,1.16,1.63,-6.41,-1.58,2.74,0.40,
4.796,1.16,1.63,-6.41,-1.67,2.68,0.39,
4.798,1.15,-2.42,-6.57,-1.67,2.68,0.39,
4.798,1.15,-2.42,-6.57,-1.76,2.61,0.38,
4.8,1.15,-2.42,-6.57,-1.84,2.53,0.38,
4.805,1.15,-2.42,-6.57,-1.94,2.39,0.36,
4.806,1.15,-2.42,-6.57,-1.96,2.33,0.36,
4.807,1.15,-2.42,-6.57,-2.00,2.22,0.35,
4.811,1.44,-6.07,-5.12,-2.00,2.22,0.35,
4.811,1.44,-6.07,-5.12,-2.02,2.09,0.34,
4.811,1.44,-6.07,-5.12,-2.03,1.94,0.33,
4.813,1.44,-6.07,-5.12,-2.03,1.71,0.32,
4.814,1.44,-6.07,-5.12,-2.02,1.63,0.32,
4.816,1.44,-6.07,-5.12,-2.01,1.47,0.31,
4.818,1.68,-8.76,-3.79,-2.01,1.47,0.31,
4.818,1.68,-8.76,-3.79,-1.99,1.31,0.30,
4.822,1.68,-8.76,-3.79,-1.97,1.15,0.28,
4.823,1.68,-8.76,-3.79,-1.92,0.93,0.25,
4.824,1.68,-8.76,-3.79,-1.90,0.86,0.23,
4.826,1.68,-8.76,-3.79,-1.85,0.73,0.20,
4.828,2.21,-9.66,-3.14,-1.85,0.73,0.20,
4.828,2.21,-9.66,-3.14,-1.81,0.61,0.16,
4.83,2.21,-9.66,-3.14,-1.77,0.50,0.11,
4.833,2.21,-9.66,-3.14,-1.69,0.35,0.03,
4.834,2.21,-9.66,-3.14,-1.66,0.31,-0.01,
4.847,2.21,-9.66,-3.14,-1.61,0.24,-0.07,
4.848,3.02,-8.57,-2.63,-1.61,0.24,-0.07,
4.848,3.02,-8.57,-2.63,-1.55,0.18,-0.15,
4.848,3.02,-8.57,-2.63,-1.50,0.14,-0.22,
4.848,3.02,-8.57,-2.63,-1.44,0.11,-0.33,
4.848,3.02,-8.57,-2.63,-1.41,0.10,-0.36,
4.848,3.02,-8.57,-2.63,-1.37,0.09,-0.42,
4.848,2.81,-6.06,-2.22,-1.37,0.09,-0.42,
4.848,2.81,-6.06,-2.22,-1.34,0.09,-0.48,
4.85,2.81,-6.06,-2.22,-1.31,0.09,-0.53,
4.855,2.81,-6.06,-2.22,-1.26,0.10,-0.59,
4.855,2.81,-6.06,-2.22,-1.25,0.11,-0.62,
4.856,2.81,-6.06,-2.22,-1.22,0.12,-0.65,
4.859,1.87,-3.75,-1.72,-1.22,0.12,-0.65,
4.859,1.87,-3.75,-1.72,-1.21,0.13,-0.69,
4.86,1.87,-3.75,-1.72,-1.19,0.14,-0.72,
4.863,1.87,-3.75,-1.72,-1.16,0.16,-0.76,
4.864,1.87,-3.75,-1.72,-1.15,0.17,-0.77,
4.866,1.87,-3.75,-1.72,-1.14,0.18,-0.80,
4.869,1.09,-2.09,-1.09,-1.14,0.18,-0.80,
4.869,1.09,-2.09,-1.09,-1.13,0.20,-0.82,
4.87,1.09,-2.09,-1.09,-1.12,0.21,-0.84,
4.876,1.09,-2.09,-1.09,-1.11,0.23,-0.86,
4.876,1.09,-2.09,-1.09,-1.10,0.24,-0.86,
4.877,1.09,-2.09,-1.09,-1.10,0.26,-0.87,
4.878,0.35,-0.98,-0.52,-1.10,0.26,-0.87,
4.879,0.35,-0.98,-0.52,-1.10,0.27,-0.88,
4.88,0.35,-0.98,-0.52,-1.10,0.29,-0.89,
4.883,0.35,-0.98,-0.52,-1.11,0.31,-0.89,
4.884,0.35,-0.98,-0.52,-1.11,0.31,-0.89,
4.887,0.35,-0.98,-0.52,-1.13,0.32,-0.89,
4.889,-0.18,-0.22,-0.10,-1.13,0.32,-0.89,
4.889,-0.18,-0.22,-0.10,-1.14,0.33,-0.89,
4.89,-0.18,-0.22,-0.10,-1.16,0.34,-0.89,
4.893,-0.18,-0.22,-0.10,-1.18,0.35,-0.88,
4.894,-0.18,-0.22,-0.10,-1.19,0.36,-0.88,
4.896,-0.18,-0.22,-0.10,-1.21,0.37,-0.87,
4.898,-0.69,0.41,0.43,-1.21,0.37,-0.87,
4.899,-0.69,0.41,0.43,-1.23,0.38,-0.86,
4.901,-0.69,0.41,0.43,-1.25,0.39,-0.85,
4.904,-0.69,0.41,0.43,-1.27,0.43,-0.82,
4.905,-0.69,0.41,0.43,-1.29,0.48,-0.81,
4.907,-0.69,0.41,0.43,-1.34,0.65,-0.80,
4.931,-1.87,1.41,3.71,-1.34,0.65,-0.80,
4.932,-1.87,1.41,3.71,-1.35,0.86,-0.79,
4.932,-1.87,1.41,3.71,-1.32,1.08,-0.76,
4.932,-1.87,1.41,3.71,-1.26,1.40,-0.69,
4.932,-1.87,1.41,3.71,-1.22,1.60,-0.63,
4.933,-1.87,1.41,3.71,-1.21,1.69,-0.60,
4.933,-5.33,3.22,10.17,-1.21,1.69,-0.60,
4.933,-5.33,3.22,10.17,-1.19,1.84,-0.54,
4.934,-5.33,3.22,10.17,-1.18,1.96,-0.48,
4.934,-5.33,3.22,10.17,-1.19,2.08,-0.40,
4.934,-5.33,3.22,10.17,-1.19,2.10,-0.37,
4.935,-5.33,3.22,10.17,-1.19,2.13,-0.32,
4.935,-5.33,3.51,8.63,-1.19,2.13,-0.32,
4.935,-5.33,3.51,8.63,-1.19,2.14,-0.28,
4.935,-5.33,3.51,8.63,-1.20,2.12,-0.24,
4.936,-5.33,3.51,8.63,-1.20,2.07,-0.18,
4.936,-5.33,3.51,8.63,-1.21,2.04,-0.16,
4.943,-5.33,3.51,8.63,-1.21,1.97,-0.13,
4.944,-4.57,3.38,7.31,-1.21,1.97,-0.13,
4.944,-4.57,3.38,7.31,-1.21,1.89,-0.10,
4.944,-4.57,3.38,7.31,-1.22,1.79,-0.07,
4.944,-4.57,3.38,7.31,-1.22,1.60,-0.02,
4.945,-4.57,3.38,7.31,-1.23,1.53,-0.01,
4.949,-4.57,3.38,7.31,-1.23,1.39,0.01,
4.949,-3.40,3.14,6.08,-1.23,1.39,0.01,
4.949,-3.40,3.14,6.08,-1.23,1.24,0.04,
4.95,-3.40,3.14,6.08,-1.23,1.08,0.06,
4.954,-3.40,3.14,6.08,-1.22,0.83,0.09,
4.971,-3.40,3.14,6.08,-1.21,0.74,0.10,
4.972,-3.40,3.14,6.08,-1.20,0.58,0.11,
4.972,-2.27,2.78,5.46,-1.20,0.58,0.11,
4.972,-2.27,2.78,5.46,-1.18,0.41,0.13,
4.973,-2.27,2.78,5.46,-1.16,0.25,0.14,
4.973,-2.27,2.78,5.46,-1.12,0.02,0.16,
4.973,-2.27,2.78,5.46,-1.11,-0.05,0.16,
4.973,-2.27,2.78,5.46,-1.07,-0.20,0.17,
