
time,ax,ay,az,wx,wy,wz,
0.004,-1.04,-0.23,-1.49,-0.11,-1.09,-0.15,
0.004,-1.04,-0.24,-1.70,-0.11,-1.09,-0.15,
0.005,-1.04,-0.24,-1.70,-0.16,-1.11,-0.14,
0.005,-1.04,-0.24,-1.70,-0.20,-1.14,-0.12,
0.005,-1.04,-0.24,-1.70,-0.28,-1.19,-0.09,
0.005,-1.04,-0.24,-1.70,-0.30,-1.21,-0.08,
0.006,-1.04,-0.24,-1.70,-0.35,-1.26,-0.06,
0.017,-1.09,-0.34,-1.72,-0.35,-1.26,-0.06,
0.018,-1.09,-0.34,-1.72,-0.41,-1.30,-0.03,
0.018,-1.09,-0.34,-1.72,-0.46,-1.35,-0.01,
0.018,-1.09,-0.34,-1.72,-0.53,-1.41,0.03,
0.019,-1.09,-0.34,-1.72,-0.56,-1.43,0.04,
0.019,-1.09,-0.34,-1.72,-0.61,-1.46,0.06,
0.019,-0.63,-0.12,-1.76,-0.61,-1.46,0.06,
0.019,-0.63,-0.12,-1.76,-0.66,-1.48,0.08,
0.054,-0.63,-0.12,-1.76,-0.71,-1.49,0.10,
0.054,-0.63,-0.12,-1.76,-0.79,-1.51,0.12,
0.054,-0.63,-0.12,-1.76,-0.81,-1.51,0.13,
0.054,-0.63,-0.12,-1.76,-0.87,-1.52,0.15,
0.055,-0.34,-0.16,-1.83,-0.87,-1.52,0.15,
0.055,-0.34,-0.16,-1.83,-0.92,-1.53,0.17,
0.055,-0.34,-0.16,-1.83,-0.97,-1.53,0.19,
0.055,-0.34,-0.16,-1.83,-1.04,-1.54,0.21,
0.055,-0.34,-0.16,-1.83,-1.06,-1.54,0.21,
0.056,-0.34,-0.16,-1.83,-1.10,-1.54,0.22,
0.056,-0.10,-0.21,-1.99,-1.10,-1.54,0.22,
0.056,-0.10,-0.21,-1.99,-1.15,-1.54,0.23,
0.056,-0.10,-0.21,-1.99,-1.19,-1.54,0.24,
0.056,-0.10,-0.21,-1.99,-1.25,-1.54,0.25,
0.056,-0.10,-0.21,-1.99,-1.27,-1.54,0.26,
0.057,-0.10,-0.21,-1.99,-1.30,-1.55,0.26,
0.057,0.05,-0.44,-1.95,-1.30,-1.55,0.26,
0.057,0.05,-0.44,-1.95,-1.33,-1.56,0.28,
0.057,0.05,-0.44,-1.95,-1.36,-1.58,0.28,
0.057,0.05,-0.44,-1.95,-1.41,-1.60,0.29,
0.058,0.05,-0.44,-1.95,-1.43,-1.61,0.29,
0.058,0.05,-0.44,-1.95,-1.46,-1.61,0.29,
0.058,0.21,-0.71,-1.79,-1.46,-1.61,0.29,
0.058,0.21,-0.71,-1.79,-1.49,-1.61,0.29,
0.061,0.21,-0.71,-1.79,-1.52,-1.61,0.29,
0.091,0.21,-0.71,-1.79,-1.57,-1.62,0.28,
0.092,0.21,-0.71,-1.79,-1.58,-1.63,0.28,
0.092,0.21,-0.71,-1.79,-1.61,-1.65,0.28,
0.092,0.33,-0.96,-1.54,-1.61,-1.65,0.28,
0.092,0.33,-0.96,-1.54,-1.63,-1.68,0.28,
0.092,0.33,-0.96,-1.54,-1.65,-1.71,0.27,
0.093,0.33,-0.96,-1.54,-1.68,-1.77,0.27,
0.093,0.33,-0.96,-1.54,-1.69,-1.79,0.26,
0.093,0.33,-0.96,-1.54,-1.71,-1.83,0.26,
0.093,0.47,-1.13,-1.07,-1.71,-1.83,0.26,
0.093,0.47,-1.13,-1.07,-1.72,-1.88,0.25,
0.103,0.47,-1.13,-1.07,-1.73,-1.92,0.24,
0.104,0.47,-1.13,-1.07,-1.74,-1.97,0.23,
0.105,0.47,-1.13,-1.07,-1.74,-1.99,0.22,
0.105,0.47,-1.13,-1.07,-1.73,-2.01,0.21,
0.106,0.54,-1.16,-0.57,-1.73,-2.01,0.21,
0.107,0.54,-1.16,-0.57,-1.73,-2.03,0.20,
0.108,0.54,-1.16,-0.57,-1.72,-2.04,0.19,
0.109,0.54,-1.16,-0.57,-1.69,-2.06,0.17,
0.11,0.54,-1.16,-0.57,-1.67,-2.06,0.17,
0.11,0.54,-1.16,-0.57,-1.65,-2.06,0.15,
0.11,0.59,-1.04,0.14,-1.65,-2.06,0.15,
0.111,0.59,-1.04,0.14,-1.62,-2.07,0.14,
0.112,0.59,-1.04,0.14,-1.59,-2.08,0.13,
0.113,0.59,-1.04,0.14,-1.54,-2.12,0.12,
0.114,0.59,-1.04,0.14,-1.52,-2.14,0.12,
0.114,0.59,-1.04,0.14,-1.49,-2.17,0.11,
0.116,0.65,-0.86,0.65,-1.49,-2.17,0.11,
0.117,0.65,-0.86,0.65,-1.45,-2.20,0.11,
0.118,0.65,-0.86,0.65,-1.42,-2.22,0.10,
0.12,0.65,-0.86,0.65,-1.37,-2.24,0.09,
0.121,0.65,-0.86,0.65,-1.35,-2.25,0.08,
0.123,0.65,-0.86,0.65,-1.32,-2.25,0.07,
0.123,0.78,-0.76,0.98,-1.32,-2.25,0.07,
0.123,0.78,-0.76,0.98,-1.28,-2.25,0.06,
0.124,0.78,-0.76,0.98,-1.24,-2.23,0.05,
0.124,0.78,-0.76,0.98,-1.18,-2.19,0.03,
0.124,0.78,-0.76,0.98,-1.15,-2.17,0.03,
0.132,0.78,-0.76,0.98,-1.10,-2.12,0.01,
0.132,0.93,-0.64,1.33,-1.10,-2.12,0.01,
0.132,0.93,-0.64,1.33,-1.05,-2.06,-0.00,
0.133,0.93,-0.64,1.33,-1.00,-2.00,-0.02,
0.133,0.93,-0.64,1.33,-0.91,-1.90,-0.06,
0.133,0.93,-0.64,1.33,-0.88,-1.87,-0.07,
0.136,0.93,-0.64,1.33,-0.82,-1.81,-0.09,
0.138,1.07,-0.73,1.63,-0.82,-1.81,-0.09,
0.138,1.07,-0.73,1.63,-0.76,-1.77,-0.12,
0.139,1.07,-0.73,1.63,-0.70,-1.73,-0.15,
0.142,1.07,-0.73,1.63,-0.62,-1.69,-0.19,
0.143,1.07,-0.73,1.63,-0.59,-1.69,-0.21,
0.145,1.07,-0.73,1.63,-0.54,-1.69,-0.24,
0.166,1.19,-0.81,1.55,-0.54,-1.69,-0.24,
0.167,1.19,-0.81,1.55,-0.48,-1.70,-0.27,
0.167,1.19,-0.81,1.55,-0.44,-1.72,-0.29,
0.167,1.19,-0.81,1.55,-0.37,-1.76,-0.33,
0.167,1.19,-0.81,1.55,-0.35,-1.78,-0.34,
0.168,1.19,-0.81,1.55,-0.32,-1.82,-0.36,
0.168,0.79,-0.83,1.21,-0.32,-1.82,-0.36,
0.168,0.79,-0.83,1.21,-0.29,-1.86,-0.37,
0.168,0.79,-0.83,1.21,-0.25,-1.90,-0.38,
0.169,0.79,-0.83,1.21,-0.20,-1.97,-0.39,
0.169,0.79,-0.83,1.21,-0.19,-1.99,-0.39,
0.169,0.79,-0.83,1.21,-0.16,-2.04,-0.39,
0.203,-0.17,-0.62,0.65,-0.16,-2.04,-0.39,
0.204,-0.17,-0.62,0.65,-0.14,-2.09,-0.38,
0.204,-0.17,-0.62,0.65,-0.11,-2.14,-0.38,
0.204,-0.17,-0.62,0.65,-0.07,-2.21,-0.36,
0.204,-0.17,-0.62,0.65,-0.06,-2.24,-0.36,
0.205,-0.17,-0.62,0.65,-0.04,-2.28,-0.34,
0.205,-0.91,-0.42,0.07,-0.04,-2.28,-0.34,
0.205,-0.91,-0.42,0.07,-0.01,-2.33,-0.33,
0.205,-0.91,-0.42,0.07,0.01,-2.38,-0.31,
0.205,-0.91,-0.42,0.07,0.05,-2.45,-0.29,
0.206,-0.91,-0.42,0.07,0.06,-2.47,-0.29,
0.206,-0.91,-0.42,0.07,0.08,-2.52,-0.28,
0.206,-1.08,-0.38,-0.11,0.08,-2.52,-0.28,
0.206,-1.08,-0.38,-0.11,0.10,-2.57,-0.28,
0.206,-1.08,-0.38,-0.11,0.12,-2.62,-0.27,
0.207,-1.08,-0.38,-0.11,0.15,-2.70,-0.28,
0.207,-1.08,-0.38,-0.11,0.16,-2.72,-0.28,
0.207,-1.08,-0.38,-0.11,0.18,-2.77,-0.28,
0.207,-0.73,-0.56,0.10,0.18,-2.77,-0.28,
0.207,-0.73,-0.56,0.10,0.20,-2.82,-0.28,
0.207,-0.73,-0.56,0.10,0.22,-2.87,-0.28,
0.208,-0.73,-0.56,0.10,0.25,-2.94,-0.28,
0.208,-0.73,-0.56,0.10,0.26,-2.96,-0.28,
0.208,-0.73,-0.56,0.10,0.28,-3.00,-0.28,
0.208,-0.36,-0.85,0.40,0.28,-3.00,-0.28,
0.208,-0.36,-0.85,0.40,0.31,-3.05,-0.28,
0.213,-0.36,-0.85,0.40,0.32,-3.07,-0.28,
0.213,-0.36,-0.85,0.40,0.34,-3.12,-0.29,
0.214,-0.36,-0.85,0.40,0.35,-3.13,-0.29,
0.229,-0.36,-0.85,0.40,0.36,-3.16,-0.31,
0.229,0.22,-0.82,0.15,0.36,-3.16,-0.31,
0.23,0.22,-0.82,0.15,0.37,-3.19,-0.32,
0.23,0.22,-0.82,0.15,0.38,-3.22,-0.34,
0.23,0.22,-0.82,0.15,0.39,-3.26,-0.38,
0.23,0.22,-0.82,0.15,0.39,-3.27,-0.39,
0.23,0.22,-0.82,0.15,0.40,-3.29,-0.41,
0.231,0.67,-0.50,-0.16,0.40,-3.29,-0.41,
0.231,0.67,-0.50,-0.16,0.40,-3.30,-0.44,
0.231,0.67,-0.50,-0.16,0.40,-3.30,-0.47,
0.232,0.67,-0.50,-0.16,0.39,-3.30,-0.51,
0.243,0.67,-0.50,-0.16,0.39,-3.30,-0.52,
0.243,0.67,-0.50,-0.16,0.39,-3.29,-0.54,
0.243,0.58,-0.42,-0.59,0.39,-3.29,-0.54,
0.243,0.58,-0.42,-0.59,0.37,-3.28,-0.56,
0.244,0.58,-0.42,-0.59,0.36,-3.26,-0.57,
0.244,0.58,-0.42,-0.59,0.34,-3.23,-0.58,
0.244,0.58,-0.42,-0.59,0.33,-3.22,-0.58,
0.245,0.58,-0.42,-0.59,0.32,-3.20,-0.58,
0.263,0.20,-0.34,-0.78,0.32,-3.20,-0.58,
0.263,0.20,-0.34,-0.78,0.29,-3.18,-0.58,
0.264,0.20,-0.34,-0.78,0.28,-3.15,-0.58,
0.265,0.20,-0.34,-0.78,0.24,-3.09,-0.57,
0.265,0.20,-0.34,-0.78,0.23,-3.07,-0.57,
0.265,0.20,-0.34,-0.78,0.21,-3.03,-0.56,
0.266,-0.18,-0.25,-0.73,0.21,-3.03,-0.56,
0.266,-0.18,-0.25,-0.73,0.19,-2.99,-0.55,
0.266,-0.18,-0.25,-0.73,0.16,-2.93,-0.53,
0.266,-0.18,-0.25,-0.73,0.13,-2.85,-0.50,
0.267,-0.18,-0.25,-0.73,0.12,-2.82,-0.49,
0.267,-0.18,-0.25,-0.73,0.10,-2.77,-0.47,
0.272,-0.56,-0.21,-0.70,0.10,-2.77,-0.47,
0.272,-0.56,-0.21,-0.70,0.08,-2.72,-0.46,
0.273,-0.56,-0.21,-0.70,0.06,-2.68,-0.44,
0.273,-0.56,-0.21,-0.70,0.04,-2.62,-0.42,
0.274,-0.56,-0.21,-0.70,0.03,-2.60,-0.41,
0.275,-0.56,-0.21,-0.70,0.01,-2.58,-0.40,
0.278,-0.73,-0.28,-0.64,0.01,-2.58,-0.40,
0.278,-0.73,-0.28,-0.64,-0.00,-2.55,-0.39,
0.279,-0.73,-0.28,-0.64,-0.01,-2.53,-0.39,
0.29,-0.73,-0.28,-0.64,-0.03,-2.52,-0.37,
0.29,-0.73,-0.28,-0.64,-0.03,-2.51,-0.37,
0.29,-0.73,-0.28,-0.64,-0.04,-2.49,-0.36,
0.29,-1.08,-0.54,-0.56,-0.04,-2.49,-0.36,
0.291,-1.08,-0.54,-0.56,-0.04,-2.46,-0.35,
0.291,-1.08,-0.54,-0.56,-0.05,-2.42,-0.34,
0.292,-1.08,-0.54,-0.56,-0.05,-2.33,-0.32,
0.293,-1.08,-0.54,-0.56,-0.06,-2.29,-0.32,
0.296,-1.08,-0.54,-0.56,-0.07,-2.20,-0.31,
0.32,-1.61,-0.59,-1.21,-0.07,-2.20,-0.31,
0.321,-1.61,-0.59,-1.21,-0.08,-2.11,-0.30,
0.321,-1.61,-0.59,-1.21,-0.09,-2.00,-0.29,
0.321,-1.61,-0.59,-1.21,-0.11,-1.83,-0.28,
0.321,-1.61,-0.59,-1.21,-0.12,-1.78,-0.27,
0.321,-1.61,-0.59,-1.21,-0.14,-1.68,-0.26,
0.322,-1.63,-0.51,-1.99,-0.14,-1.68,-0.26,
0.322,-1.63,-0.51,-1.99,-0.15,-1.61,-0.24,
0.322,-1.63,-0.51,-1.99,-0.18,-1.55,-0.23,
0.322,-1.63,-0.51,-1.99,-0.21,-1.50,-0.21,
0.322,-1.63,-0.51,-1.99,-0.23,-1.50,-0.20,
0.323,-1.63,-0.51,-1.99,-0.26,-1.49,-0.19,
0.323,-1.17,-0.60,-1.97,-0.26,-1.49,-0.19,
0.323,-1.17,-0.60,-1.97,-0.28,-1.50,-0.18,
0.323,-1.17,-0.60,-1.97,-0.31,-1.52,-0.17,
0.323,-1.17,-0.60,-1.97,-0.34,-1.55,-0.16,
0.324,-1.17,-0.60,-1.97,-0.35,-1.56,-0.16,
0.326,-1.17,-0.60,-1.97,-0.37,-1.59,-0.16,
0.328,-0.69,-0.57,-1.38,-0.37,-1.59,-0.16,
0.328,-0.69,-0.57,-1.38,-0.39,-1.61,-0.16,
0.329,-0.69,-0.57,-1.38,-0.40,-1.63,-0.16,
0.34,-0.69,-0.57,-1.38,-0.40,-1.65,-0.17,
0.34,-0.69,-0.57,-1.38,-0.40,-1.64,-0.18,
0.34,-0.69,-0.57,-1.38,-0.40,-1.64,-0.19,
0.341,-0.06,-0.17,-0.58,-0.40,-1.64,-0.19,
0.341,-0.06,-0.17,-0.58,-0.39,-1.63,-0.20,
0.341,-0.06,-0.17,-0.58,-0.39,-1.61,-0.22,
0.342,-0.06,-0.17,-0.58,-0.37,-1.58,-0.25,
0.343,-0.06,-0.17,-0.58,-0.37,-1.57,-0.26,
0.345,-0.06,-0.17,-0.58,-0.36,-1.56,-0.29,
0.357,0.52,0.31,-0.18,-0.36,-1.56,-0.29,
0.357,0.52,0.31,-0.18,-0.36,-1.54,-0.32,
0.357,0.52,0.31,-0.18,-0.35,-1.52,-0.35,
0.357,0.52,0.31,-0.18,-0.35,-1.50,-0.41,
0.358,0.52,0.31,-0.18,-0.36,-1.49,-0.43,
0.358,0.52,0.31,-0.18,-0.36,-1.48,-0.48,
0.358,1.13,0.65,-0.18,-0.36,-1.48,-0.48,
0.358,1.13,0.65,-0.18,-0.37,-1.47,-0.51,
0.36,1.13,0.65,-0.18,-0.37,-1.46,-0.54,
0.372,1.13,0.65,-0.18,-0.39,-1.46,-0.57,
0.372,1.13,0.65,-0.18,-0.40,-1.45,-0.58,
0.372,1.13,0.65,-0.18,-0.40,-1.44,-0.60,
0.373,0.83,0.83,0.14,-0.40,-1.44,-0.60,
0.373,0.83,0.83,0.14,-0.40,-1.42,-0.61,
0.373,0.83,0.83,0.14,-0.40,-1.39,-0.61,
0.373,0.83,0.83,0.14,-0.41,-1.36,-0.61,
0.375,0.83,0.83,0.14,-0.41,-1.35,-0.61,
0.375,0.83,0.83,0.14,-0.42,-1.35,-0.60,
0.378,0.15,0.83,0.53,-0.42,-1.35,-0.60,
0.378,0.15,0.83,0.53,-0.43,-1.34,-0.59,
0.388,0.15,0.83,0.53,-0.43,-1.33,-0.58,
0.388,0.15,0.83,0.53,-0.44,-1.31,-0.55,
0.388,0.15,0.83,0.53,-0.44,-1.31,-0.54,
0.388,0.15,0.83,0.53,-0.45,-1.30,-0.51,
0.388,-0.84,0.71,0.79,-0.45,-1.30,-0.51,
0.389,-0.84,0.71,0.79,-0.45,-1.29,-0.48,
0.389,-0.84,0.71,0.79,-0.45,-1.28,-0.44,
0.392,-0.84,0.71,0.79,-0.45,-1.26,-0.38,
0.393,-0.84,0.71,0.79,-0.45,-1.26,-0.36,
0.395,-0.84,0.71,0.79,-0.45,-1.25,-0.32,
0.409,-1.74,0.54,0.92,-0.45,-1.25,-0.32,
0.41,-1.74,0.54,0.92,-0.45,-1.24,-0.28,
0.41,-1.74,0.54,0.92,-0.45,-1.24,-0.24,
0.41,-1.74,0.54,0.92,-0.46,-1.23,-0.18,
0.41,-1.74,0.54,0.92,-0.46,-1.23,-0.16,
0.41,-1.74,0.54,0.92,-0.47,-1.22,-0.13,
0.41,-1.74,0.17,0.42,-0.47,-1.22,-0.13,
0.41,-1.74,0.17,0.42,-0.49,-1.21,-0.10,
0.411,-1.74,0.17,0.42,-0.50,-1.21,-0.07,
0.412,-1.74,0.17,0.42,-0.52,-1.19,-0.03,
0.429,-1.74,0.17,0.42,-0.53,-1.19,-0.01,
0.43,-1.74,0.17,0.42,-0.55,-1.18,0.01,
0.43,-1.27,-0.08,-0.03,-0.55,-1.18,0.01,
0.43,-1.27,-0.08,-0.03,-0.57,-1.18,0.04,
0.43,-1.27,-0.08,-0.03,-0.59,-1.17,0.06,
0.431,-1.27,-0.08,-0.03,-0.61,-1.16,0.07,
0.431,-1.27,-0.08,-0.03,-0.62,-1.15,0.08,
0.431,-1.27,-0.08,-0.03,-0.64,-1.13,0.09,
0.432,-0.54,-0.19,-0.15,-0.64,-1.13,0.09,
0.432,-0.54,-0.19,-0.15,-0.65,-1.11,0.09,
0.432,-0.54,-0.19,-0.15,-0.66,-1.08,0.10,
0.436,-0.54,-0.19,-0.15,-0.68,-1.04,0.10,
0.436,-0.54,-0.19,-0.15,-0.68,-1.03,0.10,
0.437,-0.54,-0.19,-0.15,-0.70,-1.01,0.11,
0.437,0.05,-0.30,-0.08,-0.70,-1.01,0.11,
0.438,0.05,-0.30,-0.08,-0.71,-0.99,0.11,
0.439,0.05,-0.30,-0.08,-0.72,-0.98,0.11,
0.442,0.05,-0.30,-0.08,-0.74,-0.98,0.10,
0.443,0.05,-0.30,-0.08,-0.74,-0.98,0.10,
0.445,0.05,-0.30,-0.08,-0.75,-0.98,0.10,
0.447,0.21,-0.39,0.27,-0.75,-0.98,0.10,
0.448,0.21,-0.39,0.27,-0.75,-0.99,0.10,
0.449,0.21,-0.39,0.27,-0.75,-1.00,0.09,
0.452,0.21,-0.39,0.27,-0.74,-1.02,0.10,
0.453,0.21,-0.39,0.27,-0.73,-1.02,0.10,
0.455,0.21,-0.39,0.27,-0.72,-1.04,0.10,
0.457,-0.35,-0.33,0.82,-0.72,-1.04,0.10,
0.458,-0.35,-0.33,0.82,-0.71,-1.06,0.11,
0.459,-0.35,-0.33,0.82,-0.70,-1.08,0.11,
0.462,-0.35,-0.33,0.82,-0.68,-1.10,0.12,
0.463,-0.35,-0.33,0.82,-0.67,-1.11,0.12,
0.465,-0.35,-0.33,0.82,-0.66,-1.12,0.12,
0.468,-0.69,-0.25,0.80,-0.66,-1.12,0.12,
0.468,-0.69,-0.25,0.80,-0.65,-1.13,0.12,
0.469,-0.69,-0.25,0.80,-0.64,-1.15,0.11,
0.472,-0.69,-0.25,0.80,-0.63,-1.17,0.10,
0.473,-0.69,-0.25,0.80,-0.62,-1.18,0.10,
0.475,-0.69,-0.25,0.80,-0.61,-1.19,0.10,
0.477,-0.96,-0.21,0.43,-0.61,-1.19,0.10,
0.478,-0.96,-0.21,0.43,-0.60,-1.22,0.10,
0.48,-0.96,-0.21,0.43,-0.59,-1.23,0.11,
0.482,-0.96,-0.21,0.43,-0.58,-1.24,0.11,
0.483,-0.96,-0.21,0.43,-0.58,-1.24,0.12,
0.485,-0.96,-0.21,0.43,-0.58,-1.26,0.12,
0.488,-1.25,-0.25,0.05,-0.58,-1.26,0.12,
0.488,-1.25,-0.25,0.05,-0.57,-1.28,0.12,
0.489,-1.25,-0.25,0.05,-0.57,-1.29,0.13,
0.492,-1.25,-0.25,0.05,-0.57,-1.31,0.14,
0.493,-1.25,-0.25,0.05,-0.57,-1.32,0.15,
0.495,-1.25,-0.25,0.05,-0.57,-1.33,0.16,
0.498,-1.43,-0.36,-0.17,-0.57,-1.33,0.16,
0.499,-1.43,-0.36,-0.17,-0.57,-1.34,0.16,
0.5,-1.43,-0.36,-0.17,-0.58,-1.34,0.16,
0.502,-1.43,-0.36,-0.17,-0.60,-1.35,0.15,
0.503,-1.43,-0.36,-0.17,-0.60,-1.35,0.15,
0.505,-1.43,-0.36,-0.17,-0.61,-1.36,0.13,
0.508,-1.25,-0.68,-0.37,-0.61,-1.36,0.13,
0.508,-1.25,-0.68,-0.37,-0.63,-1.35,0.12,
0.509,-1.25,-0.68,-0.37,-0.65,-1.34,0.10,
0.513,-1.25,-0.68,-0.37,-0.67,-1.31,0.08,
0.514,-1.25,-0.68,-0.37,-0.68,-1.30,0.07,
0.517,-1.25,-0.68,-0.37,-0.70,-1.26,0.04,
0.518,-1.19,-0.88,-0.41,-0.70,-1.26,0.04,
0.518,-1.19,-0.88,-0.41,-0.72,-1.22,0.02,
0.519,-1.19,-0.88,-0.41,-0.75,-1.16,-0.00,
0.522,-1.19,-0.88,-0.41,-0.80,-1.06,-0.04,
0.523,-1.19,-0.88,-0.41,-0.82,-1.03,-0.06,
0.525,-1.19,-0.88,-0.41,-0.86,-0.96,-0.09,
0.527,-1.28,-0.98,-0.84,-0.86,-0.96,-0.09,
0.528,-1.28,-0.98,-0.84,-0.90,-0.88,-0.13,
0.53,-1.28,-0.98,-0.84,-0.96,-0.80,-0.17,
0.535,-1.28,-0.98,-0.84,-1.06,-0.69,-0.26,
0.535,-1.28,-0.98,-0.84,-1.10,-0.65,-0.29,
0.538,-1.28,-0.98,-0.84,-1.17,-0.59,-0.36,
0.538,-1.06,-1.05,-1.59,-1.17,-0.59,-0.36,
0.538,-1.06,-1.05,-1.59,-1.25,-0.53,-0.43,
0.539,-1.06,-1.05,-1.59,-1.33,-0.49,-0.49,
0.542,-1.06,-1.05,-1.59,-1.45,-0.44,-0.60,
0.543,-1.06,-1.05,-1.59,-1.49,-0.42,-0.64,
0.545,-1.06,-1.05,-1.59,-1.56,-0.39,-0.70,
0.556,-0.92,-1.32,-1.66,-1.56,-0.39,-0.70,
0.557,-0.92,-1.32,-1.66,-1.63,-0.35,-0.76,
0.557,-0.92,-1.32,-1.66,-1.69,-0.31,-0.82,
0.557,-0.92,-1.32,-1.66,-1.77,-0.26,-0.92,
0.558,-0.92,-1.32,-1.66,-1.80,-0.25,-0.95,
0.558,-0.92,-1.32,-1.66,-1.85,-0.21,-1.01,
0.558,-0.82,-1.54,-1.73,-1.85,-0.21,-1.01,
0.558,-0.82,-1.54,-1.73,-1.93,-0.16,-1.09,
0.56,-0.82,-1.54,-1.73,-1.96,-0.14,-1.12,
0.58,-0.82,-1.54,-1.73,-2.03,-0.08,-1.21,
0.58,-0.82,-1.54,-1.73,-2.05,-0.05,-1.24,
0.581,-0.82,-1.54,-1.73,-2.10,-0.01,-1.29,
0.581,-0.74,-1.81,-1.86,-2.10,-0.01,-1.29,
0.581,-0.74,-1.81,-1.86,-2.13,0.03,-1.35,
0.581,-0.74,-1.81,-1.86,-2.17,0.06,-1.40,
0.581,-0.74,-1.81,-1.86,-2.22,0.10,-1.47,
0.581,-0.74,-1.81,-1.86,-2.24,0.11,-1.52,
0.581,-0.74,-1.81,-1.86,-2.25,0.12,-1.55,
0.581,-0.81,-2.13,-1.44,-2.25,0.12,-1.55,
0.581,-0.81,-2.13,-1.44,-2.26,0.12,-1.59,
0.592,-0.81,-2.13,-1.44,-2.27,0.12,-1.64,
0.592,-0.81,-2.13,-1.44,-2.28,0.11,-1.70,
0.593,-0.81,-2.13,-1.44,-2.27,0.11,-1.73,
0.593,-0.81,-2.13,-1.44,-2.27,0.10,-1.76,
0.593,-0.91,-2.22,-0.82,-2.27,0.10,-1.76,
0.593,-0.91,-2.22,-0.82,-2.27,0.09,-1.80,
0.593,-0.91,-2.22,-0.82,-2.26,0.09,-1.84,
0.593,-0.91,-2.22,-0.82,-2.24,0.08,-1.88,
0.594,-0.91,-2.22,-0.82,-2.23,0.08,-1.90,
0.597,-0.91,-2.22,-0.82,-2.21,0.08,-1.92,
0.597,-1.46,-2.06,-0.29,-2.21,0.08,-1.92,
0.598,-1.46,-2.06,-0.29,-2.19,0.09,-1.93,
0.599,-1.46,-2.06,-0.29,-2.17,0.09,-1.94,
0.602,-1.46,-2.06,-0.29,-2.13,0.11,-1.95,
0.603,-1.46,-2.06,-0.29,-2.11,0.11,-1.95,
0.605,-1.46,-2.06,-0.29,-2.09,0.12,-1.94,
0.607,-2.25,-1.61,0.01,-2.09,0.12,-1.94,
0.607,-2.25,-1.61,0.01,-2.06,0.14,-1.93,
0.609,-2.25,-1.61,0.01,-2.03,0.15,-1.92,
0.612,-2.25,-1.61,0.01,-1.99,0.16,-1.89,
0.613,-2.25,-1.61,0.01,-1.97,0.16,-1.88,
0.615,-2.25,-1.61,0.01,-1.94,0.16,-1.86,
0.617,-2.91,-1.28,0.30,-1.94,0.16,-1.86,
0.618,-2.91,-1.28,0.30,-1.91,0.16,-1.84,
0.619,-2.91,-1.28,0.30,-1.88,0.14,-1.82,
0.622,-2.91,-1.28,0.30,-1.85,0.12,-1.79,
0.623,-2.91,-1.28,0.30,-1.83,0.11,-1.78,
0.625,-2.91,-1.28,0.30,-1.82,0.10,-1.77,
0.627,-2.82,-1.31,0.42,-1.82,0.10,-1.77,
0.628,-2.82,-1.31,0.42,-1.81,0.09,-1.77,
0.629,-2.82,-1.31,0.42,-1.80,0.08,-1.77,
0.632,-2.82,-1.31,0.42,-1.80,0.08,-1.77,
0.633,-2.82,-1.31,0.42,-1.80,0.08,-1.78,
0.635,-2.82,-1.31,0.42,-1.81,0.09,-1.78,
0.638,-2.21,-1.65,0.18,-1.81,0.09,-1.78,
0.638,-2.21,-1.65,0.18,-1.82,0.10,-1.79,
0.639,-2.21,-1.65,0.18,-1.83,0.12,-1.81,
0.642,-2.21,-1.65,0.18,-1.86,0.14,-1.83,
0.643,-2.21,-1.65,0.18,-1.87,0.15,-1.83,
0.646,-2.21,-1.65,0.18,-1.90,0.18,-1.85,
0.65,-1.61,-1.79,-0.61,-1.90,0.18,-1.85,
0.65,-1.61,-1.79,-0.61,-1.94,0.20,-1.87,
0.651,-1.61,-1.79,-0.61,-1.99,0.22,-1.88,
0.652,-1.61,-1.79,-0.61,-2.07,0.24,-1.91,
0.653,-1.61,-1.79,-0.61,-2.10,0.24,-1.91,
0.655,-1.61,-1.79,-0.61,-2.16,0.25,-1.93,
0.658,-1.15,-2.11,-1.46,-2.16,0.25,-1.93,
0.658,-1.15,-2.11,-1.46,-2.23,0.24,-1.94,
0.659,-1.15,-2.11,-1.46,-2.30,0.21,-1.95,
0.662,-1.15,-2.11,-1.46,-2.41,0.16,-1.97,
0.665,-1.15,-2.11,-1.46,-2.45,0.13,-1.98,
0.667,-1.15,-2.11,-1.46,-2.52,0.09,-1.99,
0.67,-0.81,-2.42,-2.00,-2.52,0.09,-1.99,
0.67,-0.81,-2.42,-2.00,-2.60,0.05,-2.01,
0.671,-0.81,-2.42,-2.00,-2.68,0.01,-2.02,
0.672,-0.81,-2.42,-2.00,-2.79,-0.03,-2.04,
0.673,-0.81,-2.42,-2.00,-2.87,-0.05,-2.06,
0.676,-0.81,-2.42,-2.00,-2.91,-0.05,-2.06,
0.677,-0.45,-2.78,-2.47,-2.91,-0.05,-2.06,
0.678,-0.45,-2.78,-2.47,-2.99,-0.05,-2.08,
0.693,-0.45,-2.78,-2.47,-3.06,-0.04,-2.09,
0.693,-0.45,-2.78,-2.47,-3.15,-0.03,-2.12,
0.693,-0.45,-2.78,-2.47,-3.18,-0.02,-2.12,
0.693,-0.45,-2.78,-2.47,-3.24,0.00,-2.14,
0.693,-0.23,-2.70,-1.85,-3.24,0.00,-2.14,
0.694,-0.23,-2.70,-1.85,-3.28,0.02,-2.16,
0.694,-0.23,-2.70,-1.85,-3.32,0.03,-2.19,
0.694,-0.23,-2.70,-1.85,-3.36,0.04,-2.22,
0.694,-0.23,-2.70,-1.85,-3.37,0.04,-2.22,
0.718,-0.23,-2.70,-1.85,-3.38,0.03,-2.24,
0.719,-0.39,-2.20,-0.76,-3.38,0.03,-2.24,
0.719,-0.39,-2.20,-0.76,-3.39,0.02,-2.25,
0.719,-0.39,-2.20,-0.76,-3.40,-0.00,-2.26,
0.719,-0.39,-2.20,-0.76,-3.40,-0.04,-2.26,
0.719,-0.39,-2.20,-0.76,-3.39,-0.06,-2.25,
0.719,-0.39,-2.20,-0.76,-3.39,-0.08,-2.25,
0.72,-0.99,-1.54,-0.13,-3.39,-0.08,-2.25,
0.72,-0.99,-1.54,-0.13,-3.38,-0.10,-2.24,
0.72,-0.99,-1.54,-0.13,-3.38,-0.13,-2.22,
0.72,-0.99,-1.54,-0.13,-3.36,-0.17,-2.18,
0.72,-0.99,-1.54,-0.13,-3.35,-0.18,-2.17,
0.72,-0.99,-1.54,-0.13,-3.34,-0.21,-2.14,
0.72,-1.72,-1.38,0.07,-3.34,-0.21,-2.14,
0.72,-1.72,-1.38,0.07,-3.32,-0.24,-2.10,
0.72,-1.72,-1.38,0.07,-3.30,-0.27,-2.07,
0.722,-1.72,-1.38,0.07,-3.27,-0.32,-2.03,
0.723,-1.72,-1.38,0.07,-3.26,-0.35,-2.01,
0.725,-1.72,-1.38,0.07,-3.25,-0.36,-2.00,
0.728,-1.47,-1.65,-0.15,-3.25,-0.36,-2.00,
0.728,-1.47,-1.65,-0.15,-3.23,-0.39,-1.98,
0.729,-1.47,-1.65,-0.15,-3.22,-0.42,-1.97,
0.732,-1.47,-1.65,-0.15,-3.21,-0.46,-1.95,
0.733,-1.47,-1.65,-0.15,-3.20,-0.49,-1.95,
0.735,-1.47,-1.65,-0.15,-3.20,-0.50,-1.95,
0.738,-0.66,-2.14,-0.80,-3.20,-0.50,-1.95,
0.738,-0.66,-2.14,-0.80,-3.19,-0.52,-1.96,
0.739,-0.66,-2.14,-0.80,-3.19,-0.54,-1.97,
0.742,-0.66,-2.14,-0.80,-3.20,-0.57,-1.99,
0.743,-0.66,-2.14,-0.80,-3.20,-0.58,-2.00,
0.745,-0.66,-2.14,-0.80,-3.22,-0.60,-2.03,
0.76,-0.05,-2.58,-1.56,-3.22,-0.60,-2.03,
0.76,-0.05,-2.58,-1.56,-3.23,-0.63,-2.06,
0.76,-0.05,-2.58,-1.56,-3.25,-0.65,-2.08,
0.76,-0.05,-2.58,-1.56,-3.30,-0.69,-2.13,
0.761,-0.05,-2.58,-1.56,-3.31,-0.70,-2.15,
0.761,-0.05,-2.58,-1.56,-3.35,-0.73,-2.19,
0.761,0.38,-3.28,-2.12,-3.35,-0.73,-2.19,
0.761,0.38,-3.28,-2.12,-3.40,-0.77,-2.22,
0.761,0.38,-3.28,-2.12,-3.44,-0.81,-2.26,
0.764,0.38,-3.28,-2.12,-3.52,-0.88,-2.32,
0.764,0.38,-3.28,-2.12,-3.59,-0.93,-2.37,
0.765,0.38,-3.28,-2.12,-3.62,-0.95,-2.39,
0.768,0.54,-3.87,-2.41,-3.62,-0.95,-2.39,
0.768,0.54,-3.87,-2.41,-3.69,-1.00,-2.43,
0.774,0.54,-3.87,-2.41,-3.96,-1.18,-2.60,
0.774,0.54,-3.87,-2.41,-3.96,-1.18,-2.60,
0.775,0.54,-3.87,-2.41,-3.96,-1.18,-2.60,
0.776,0.54,-3.87,-2.41,-4.05,-1.21,-2.65,
0.778,0.89,-4.52,-2.59,-4.05,-1.21,-2.65,
0.779,0.89,-4.52,-2.59,-4.10,-1.22,-2.68,
0.779,0.89,-4.52,-2.59,-4.24,-1.24,-2.75,
0.782,0.89,-4.52,-2.59,-4.33,-1.24,-2.80,
0.783,0.89,-4.52,-2.59,-4.42,-1.23,-2.84,
0.785,0.89,-4.52,-2.59,-4.47,-1.23,-2.86,
0.787,0.93,-4.32,-3.01,-4.47,-1.23,-2.86,
0.788,0.93,-4.32,-3.01,-4.57,-1.20,-2.90,
0.789,0.93,-4.32,-3.01,-4.71,-1.16,-2.95,
0.792,0.93,-4.32,-3.01,-4.80,-1.11,-2.99,
0.793,0.93,-4.32,-3.01,-4.89,-1.06,-3.02,
0.802,0.93,-4.32,-3.01,-4.94,-1.03,-3.04,
0.803,0.79,-4.07,-3.14,-4.94,-1.03,-3.04,
0.803,0.79,-4.07,-3.14,-5.05,-0.94,-3.08,
0.804,0.79,-4.07,-3.14,-5.12,-0.88,-3.11,
0.804,0.79,-4.07,-3.14,-5.18,-0.82,-3.13,
0.804,0.79,-4.07,-3.14,-5.23,-0.76,-3.16,
0.805,0.79,-4.07,-3.14,-5.25,-0.74,-3.17,
0.807,0.55,-3.74,-1.58,-5.25,-0.74,-3.17,
0.808,0.55,-3.74,-1.58,-5.30,-0.66,-3.20,
0.809,0.55,-3.74,-1.58,-5.32,-0.61,-3.22,
0.834,0.55,-3.74,-1.58,-5.34,-0.57,-3.24,
0.835,0.55,-3.74,-1.58,-5.35,-0.53,-3.26,
0.835,0.55,-3.74,-1.58,-5.35,-0.51,-3.27,
0.835,0.26,-3.38,0.14,-5.35,-0.51,-3.27,
0.836,0.26,-3.38,0.14,-5.36,-0.47,-3.30,
0.836,0.26,-3.38,0.14,-5.36,-0.45,-3.32,
0.836,0.26,-3.38,0.14,-5.36,-0.44,-3.33,
0.836,0.26,-3.38,0.14,-5.35,-0.44,-3.35,
0.837,0.26,-3.38,0.14,-5.35,-0.44,-3.36,
0.837,-0.06,-2.80,1.45,-5.35,-0.44,-3.36,
0.837,-0.06,-2.80,1.45,-5.35,-0.46,-3.38,
0.837,-0.06,-2.80,1.45,-5.35,-0.48,-3.39,
0.838,-0.06,-2.80,1.45,-5.35,-0.49,-3.40,
0.838,-0.06,-2.80,1.45,-5.36,-0.50,-3.40,
0.838,-0.06,-2.80,1.45,-5.37,-0.51,-3.41,
0.838,-0.43,-2.50,1.70,-5.37,-0.51,-3.41,
0.838,-0.43,-2.50,1.70,-5.38,-0.52,-3.40,
0.839,-0.43,-2.50,1.70,-5.40,-0.53,-3.40,
0.842,-0.43,-2.50,1.70,-5.42,-0.54,-3.39,
0.843,-0.43,-2.50,1.70,-5.44,-0.55,-3.37,
0.845,-0.43,-2.50,1.70,-5.46,-0.58,-3.35,
0.848,-0.98,-2.07,1.71,-5.46,-0.58,-3.35,
0.848,-0.98,-2.07,1.71,-5.49,-0.61,-3.33,
0.849,-0.98,-2.07,1.71,-5.51,-0.64,-3.30,
0.852,-0.98,-2.07,1.71,-5.54,-0.66,-3.27,
0.853,-0.98,-2.07,1.71,-5.56,-0.68,-3.24,
0.855,-0.98,-2.07,1.71,-5.59,-0.70,-3.20,
0.858,-1.19,-2.01,2.18,-5.59,-0.70,-3.20,
0.858,-1.19,-2.01,2.18,-5.62,-0.72,-3.17,
0.859,-1.19,-2.01,2.18,-5.64,-0.74,-3.13,
0.863,-1.19,-2.01,2.18,-5.67,-0.76,-3.09,
0.863,-1.19,-2.01,2.18,-5.71,-0.78,-3.05,
0.865,-1.19,-2.01,2.18,-5.74,-0.79,-3.01,
0.868,-0.71,-1.97,2.37,-5.74,-0.79,-3.01,
0.868,-0.71,-1.97,2.37,-5.77,-0.80,-2.97,
0.869,-0.71,-1.97,2.37,-5.81,-0.79,-2.92,
0.872,-0.71,-1.97,2.37,-5.86,-0.76,-2.86,
0.873,-0.71,-1.97,2.37,-5.88,-0.75,-2.83,
0.875,-0.71,-1.97,2.37,-5.92,-0.73,-2.79,
0.878,-0.13,-1.78,2.16,-5.92,-0.73,-2.79,
0.879,-0.13,-1.78,2.16,-5.95,-0.70,-2.75,
0.88,-0.13,-1.78,2.16,-5.98,-0.67,-2.71,
0.883,-0.13,-1.78,2.16,-6.01,-0.66,-2.68,
0.884,-0.13,-1.78,2.16,-6.04,-0.64,-2.65,
0.886,-0.13,-1.78,2.16,-6.07,-0.64,-2.63,
0.889,0.56,-1.34,2.42,-6.07,-0.64,-2.63,
0.89,0.56,-1.34,2.42,-6.09,-0.64,-2.61,
0.891,0.56,-1.34,2.42,-6.11,-0.65,-2.60,
0.894,0.56,-1.34,2.42,-6.12,-0.66,-2.59,
0.895,0.56,-1.34,2.42,-6.12,-0.67,-2.58,
0.898,0.56,-1.34,2.42,-6.12,-0.69,-2.57,
0.9,0.89,-1.07,3.68,-6.12,-0.69,-2.57,
0.901,0.89,-1.07,3.68,-6.12,-0.71,-2.57,
0.901,0.89,-1.07,3.68,-6.11,-0.73,-2.56,
0.907,0.89,-1.07,3.68,-6.11,-0.76,-2.56,
0.907,0.89,-1.07,3.68,-6.09,-0.78,-2.56,
0.907,0.89,-1.07,3.68,-6.08,-0.80,-2.56,
0.911,0.96,-1.00,5.00,-6.08,-0.80,-2.56,
0.911,0.96,-1.00,5.00,-6.06,-0.82,-2.56,
0.911,0.96,-1.00,5.00,-6.04,-0.85,-2.56,
0.915,0.96,-1.00,5.00,-6.02,-0.87,-2.55,
0.935,0.96,-1.00,5.00,-6.01,-0.90,-2.55,
0.936,0.96,-1.00,5.00,-5.98,-0.93,-2.55,
0.936,0.81,-0.99,6.24,-5.98,-0.93,-2.55,
0.936,0.81,-0.99,6.24,-5.96,-0.95,-2.55,
0.936,0.81,-0.99,6.24,-5.94,-0.97,-2.55,
0.937,0.81,-0.99,6.24,-5.91,-0.98,-2.55,
0.937,0.81,-0.99,6.24,-5.89,-0.97,-2.55,
0.937,0.81,-0.99,6.24,-5.87,-0.97,-2.55,
0.937,0.89,-0.59,6.99,-5.87,-0.97,-2.55,
0.938,0.89,-0.59,6.99,-5.84,-0.96,-2.56,
0.938,0.89,-0.59,6.99,-5.81,-0.95,-2.56,
0.938,0.89,-0.59,6.99,-5.78,-0.95,-2.57,
0.938,0.89,-0.59,6.99,-5.75,-0.95,-2.58,
0.938,0.89,-0.59,6.99,-5.72,-0.95,-2.59,
0.939,1.27,-0.22,7.72,-5.72,-0.95,-2.59,
0.939,1.27,-0.22,7.72,-5.69,-0.95,-2.60,
0.939,1.27,-0.22,7.72,-5.66,-0.97,-2.62,
0.943,1.27,-0.22,7.72,-5.63,-0.99,-2.63,
0.943,1.27,-0.22,7.72,-5.60,-1.01,-2.64,
0.946,1.27,-0.22,7.72,-5.56,-1.03,-2.65,
0.949,1.64,-0.38,8.30,-5.56,-1.03,-2.65,
0.949,1.64,-0.38,8.30,-5.53,-1.05,-2.67,
0.951,1.64,-0.38,8.30,-5.50,-1.06,-2.68,
0.952,1.64,-0.38,8.30,-5.46,-1.10,-2.70,
0.953,1.64,-0.38,8.30,-5.44,-1.11,-2.71,
0.956,1.64,-0.38,8.30,-5.42,-1.16,-2.72,
0.958,1.98,-1.10,8.79,-5.42,-1.16,-2.72,
0.958,1.98,-1.10,8.79,-5.40,-1.22,-2.74,
0.959,1.98,-1.10,8.79,-5.38,-1.28,-2.75,
0.97,1.98,-1.10,8.79,-5.37,-1.34,-2.78,
0.971,1.98,-1.10,8.79,-5.37,-1.39,-2.79,
0.971,1.98,-1.10,8.79,-5.38,-1.42,-2.81,
0.971,2.52,-2.02,8.43,-5.38,-1.42,-2.81,
0.971,2.52,-2.02,8.43,-5.39,-1.44,-2.83,
0.972,2.52,-2.02,8.43,-5.41,-1.44,-2.84,
0.972,2.52,-2.02,8.43,-5.45,-1.41,-2.86,
0.973,2.52,-2.02,8.43,-5.46,-1.39,-2.87,
0.999,2.52,-2.02,8.43,-5.49,-1.35,-2.88,
1.0,2.70,-1.78,7.40,-5.49,-1.35,-2.88,
1.0,2.70,-1.78,7.40,-5.52,-1.31,-2.89,
1.0,2.70,-1.78,7.40,-5.55,-1.26,-2.90,
1.0,2.70,-1.78,7.40,-5.60,-1.18,-2.92,
1.0,2.70,-1.78,7.40,-5.61,-1.15,-2.92,
1.001,2.70,-1.78,7.40,-5.62,-1.12,-2.93,
1.001,2.44,-1.21,7.09,-5.62,-1.12,-2.93,
1.001,2.44,-1.21,7.09,-5.65,-1.04,-2.94,
1.001,2.44,-1.21,7.09,-5.66,-0.99,-2.95,
1.001,2.44,-1.21,7.09,-5.66,-0.94,-2.97,
1.001,2.44,-1.21,7.09,-5.65,-0.93,-2.97,
1.002,2.44,-1.21,7.09,-5.63,-0.92,-2.99,
1.002,2.04,-0.66,8.50,-5.63,-0.92,-2.99,
1.002,2.04,-0.66,8.50,-5.60,-0.94,-3.01,
1.002,2.04,-0.66,8.50,-5.57,-0.95,-3.02,
1.002,2.04,-0.66,8.50,-5.54,-0.96,-3.04,
1.003,2.04,-0.66,8.50,-5.50,-0.97,-3.06,
1.005,2.04,-0.66,8.50,-5.46,-0.98,-3.08,
1.008,2.04,0.11,9.38,-5.46,-0.98,-3.08,
1.008,2.04,0.11,9.38,-5.41,-1.00,-3.10,
1.009,2.04,0.11,9.38,-5.36,-1.04,-3.13,
1.012,2.04,0.11,9.38,-5.28,-1.11,-3.16,
1.014,2.04,0.11,9.38,-5.25,-1.14,-3.17,
1.015,2.04,0.11,9.38,-5.19,-1.18,-3.19,
1.017,2.11,0.58,10.24,-5.19,-1.18,-3.19,
1.018,2.11,0.58,10.24,-5.12,-1.23,-3.20,
1.019,2.11,0.58,10.24,-5.04,-1.28,-3.21,
1.022,2.11,0.58,10.24,-4.92,-1.35,-3.22,
1.023,2.11,0.58,10.24,-4.88,-1.38,-3.22,
1.025,2.11,0.58,10.24,-4.79,-1.43,-3.22,
1.027,1.56,0.67,11.00,-4.79,-1.43,-3.22,
1.028,1.56,0.67,11.00,-4.70,-1.47,-3.21,
1.029,1.56,0.67,11.00,-4.60,-1.51,-3.20,
1.032,1.56,0.67,11.00,-4.46,-1.57,-3.18,
1.033,1.56,0.67,11.00,-4.41,-1.59,-3.17,
1.035,1.56,0.67,11.00,-4.31,-1.62,-3.14,
1.037,0.39,1.03,11.35,-4.31,-1.62,-3.14,
1.038,0.39,1.03,11.35,-4.21,-1.65,-3.12,
1.039,0.39,1.03,11.35,-4.11,-1.68,-3.09,
1.042,0.39,1.03,11.35,-4.01,-1.69,-3.05,
1.044,0.39,1.03,11.35,-3.91,-1.70,-3.02,
1.045,0.39,1.03,11.35,-3.82,-1.70,-2.98,
1.047,-0.61,1.69,10.69,-3.82,-1.70,-2.98,
1.048,-0.61,1.69,10.69,-3.72,-1.69,-2.94,
1.049,-0.61,1.69,10.69,-3.62,-1.67,-2.90,
1.052,-0.61,1.69,10.69,-3.52,-1.66,-2.86,
1.053,-0.61,1.69,10.69,-3.42,-1.64,-2.82,
1.055,-0.61,1.69,10.69,-3.31,-1.62,-2.78,
1.059,-1.66,2.50,10.39,-3.31,-1.62,-2.78,
1.059,-1.66,2.50,10.39,-3.21,-1.59,-2.73,
1.06,-1.66,2.50,10.39,-3.10,-1.57,-2.69,
1.063,-1.66,2.50,10.39,-2.94,-1.55,-2.61,
1.063,-1.66,2.50,10.39,-2.89,-1.54,-2.59,
1.067,-1.66,2.50,10.39,-2.78,-1.52,-2.53,
1.069,-2.78,2.90,9.89,-2.78,-1.52,-2.53,
1.069,-2.78,2.90,9.89,-2.67,-1.50,-2.48,
1.07,-2.78,2.90,9.89,-2.56,-1.49,-2.42,
1.072,-2.78,2.90,9.89,-2.39,-1.46,-2.32,
1.075,-2.78,2.90,9.89,-2.33,-1.44,-2.29,
1.075,-2.78,2.90,9.89,-2.22,-1.42,-2.22,
1.085,-3.74,3.12,9.73,-2.22,-1.42,-2.22,
1.085,-3.74,3.12,9.73,-2.10,-1.38,-2.16,
1.098,-3.74,3.12,9.73,-1.98,-1.35,-2.09,
1.098,-3.74,3.12,9.73,-1.87,-1.31,-2.02,
1.098,-3.74,3.12,9.73,-1.76,-1.28,-1.94,
1.099,-3.74,3.12,9.73,-1.65,-1.24,-1.87,
1.099,-4.30,3.12,8.82,-1.65,-1.24,-1.87,
1.099,-4.30,3.12,8.82,-1.53,-1.21,-1.79,
1.099,-4.30,3.12,8.82,-1.43,-1.17,-1.71,
1.099,-4.30,3.12,8.82,-1.32,-1.13,-1.64,
1.1,-4.30,3.12,8.82,-1.22,-1.10,-1.56,
1.1,-4.30,3.12,8.82,-1.12,-1.06,-1.49,
1.1,-4.49,2.90,8.17,-1.12,-1.06,-1.49,
1.1,-4.49,2.90,8.17,-1.02,-1.03,-1.42,
1.1,-4.49,2.90,8.17,-0.92,-1.00,-1.35,
1.114,-4.49,2.90,8.17,-0.83,-0.97,-1.28,
1.115,-4.49,2.90,8.17,-0.74,-0.94,-1.22,
1.115,-4.49,2.90,8.17,-0.65,-0.90,-1.15,
1.115,-4.09,2.53,6.95,-0.65,-0.90,-1.15,
1.115,-4.09,2.53,6.95,-0.57,-0.87,-1.09,
1.115,-4.09,2.53,6.95,-0.50,-0.83,-1.03,
1.116,-4.09,2.53,6.95,-0.40,-0.76,-0.95,
1.116,-4.09,2.53,6.95,-0.37,-0.74,-0.92,
1.116,-4.09,2.53,6.95,-0.31,-0.69,-0.87,
1.119,-3.61,2.39,5.39,-0.31,-0.69,-0.87,
1.119,-3.61,2.39,5.39,-0.26,-0.64,-0.83,
1.121,-3.61,2.39,5.39,-0.21,-0.59,-0.80,
1.124,-3.61,2.39,5.39,-0.16,-0.53,-0.75,
1.124,-3.61,2.39,5.39,-0.14,-0.52,-0.74,
1.127,-3.61,2.39,5.39,-0.11,-0.50,-0.72,
1.128,-2.67,2.10,3.82,-0.11,-0.50,-0.72,
1.128,-2.67,2.10,3.82,-0.08,-0.49,-0.71,
1.129,-2.67,2.10,3.82,-0.05,-0.49,-0.71,
1.132,-2.67,2.10,3.82,-0.01,-0.50,-0.71,
1.133,-2.67,2.10,3.82,0.00,-0.50,-0.72,
1.135,-2.67,2.10,3.82,0.01,-0.49,-0.72,
1.137,-1.45,1.62,2.55,0.01,-0.49,-0.72,
1.137,-1.45,1.62,2.55,0.01,-0.48,-0.72,
1.139,-1.45,1.62,2.55,0.01,-0.46,-0.72,
1.142,-1.45,1.62,2.55,-0.01,-0.41,-0.73,
1.143,-1.45,1.62,2.55,-0.02,-0.39,-0.73,
1.145,-1.45,1.62,2.55,-0.04,-0.36,-0.73,
1.147,-1.08,1.31,0.48,-0.04,-0.36,-0.73,
1.147,-1.08,1.31,0.48,-0.07,-0.30,-0.74,
1.149,-1.08,1.31,0.48,-0.11,-0.23,-0.74,
1.152,-1.08,1.31,0.48,-0.20,-0.08,-0.73,
1.153,-1.08,1.31,0.48,-0.24,-0.02,-0.73,
1.155,-1.08,1.31,0.48,-0.30,0.07,-0.72,
1.157,-1.76,0.98,-2.19,-0.30,0.07,-0.72,
1.157,-1.76,0.98,-2.19,-0.37,0.15,-0.72,
1.16,-1.76,0.98,-2.19,-0.43,0.21,-0.72,
1.162,-1.76,0.98,-2.19,-0.51,0.28,-0.72,
1.163,-1.76,0.98,-2.19,-0.54,0.30,-0.73,
1.165,-1.76,0.98,-2.19,-0.59,0.33,-0.73,
1.167,-2.43,0.43,-2.63,-0.59,0.33,-0.73,
1.168,-2.43,0.43,-2.63,-0.64,0.36,-0.73,
1.169,-2.43,0.43,-2.63,-0.68,0.39,-0.74,
1.172,-2.43,0.43,-2.63,-0.75,0.45,-0.74,
1.173,-2.43,0.43,-2.63,-0.78,0.48,-0.74,
1.175,-2.43,0.43,-2.63,-0.82,0.53,-0.74,
1.178,-3.25,-0.23,-3.17,-0.82,0.53,-0.74,
1.178,-3.25,-0.23,-3.17,-0.86,0.59,-0.73,
1.18,-3.25,-0.23,-3.17,-0.90,0.67,-0.72,
1.182,-3.25,-0.23,-3.17,-0.96,0.78,-0.70,
1.183,-3.25,-0.23,-3.17,-0.97,0.81,-0.70,
1.185,-3.25,-0.23,-3.17,-1.00,0.89,-0.68,
1.188,-3.89,-0.37,-3.33,-1.00,0.89,-0.68,
1.188,-3.89,-0.37,-3.33,-1.02,0.97,-0.67,
1.189,-3.89,-0.37,-3.33,-1.03,1.03,-0.66,
1.192,-3.89,-0.37,-3.33,-1.04,1.12,-0.65,
1.195,-3.89,-0.37,-3.33,-1.03,1.14,-0.65,
1.197,-3.89,-0.37,-3.33,-1.03,1.18,-0.65,
1.198,-3.60,-0.64,-2.67,-1.03,1.18,-0.65,
1.198,-3.60,-0.64,-2.67,-1.01,1.22,-0.66,
1.199,-3.60,-0.64,-2.67,-0.99,1.26,-0.67,
1.203,-3.60,-0.64,-2.67,-0.95,1.32,-0.68,
1.203,-3.60,-0.64,-2.67,-0.93,1.34,-0.69,
1.205,-3.60,-0.64,-2.67,-0.89,1.38,-0.70,
1.207,-2.89,-0.51,-1.39,-0.89,1.38,-0.70,
1.208,-2.89,-0.51,-1.39,-0.86,1.41,-0.71,
1.21,-2.89,-0.51,-1.39,-0.82,1.43,-0.72,
1.214,-2.89,-0.51,-1.39,-0.77,1.46,-0.73,
1.214,-2.89,-0.51,-1.39,-0.76,1.46,-0.73,
1.217,-2.89,-0.51,-1.39,-0.74,1.46,-0.73,
1.217,-2.54,-0.17,-0.67,-0.74,1.46,-0.73,
1.217,-2.54,-0.17,-0.67,-0.72,1.46,-0.72,
1.221,-2.54,-0.17,-0.67,-0.70,1.45,-0.71,
1.222,-2.54,-0.17,-0.67,-0.69,1.42,-0.69,
1.225,-2.54,-0.17,-0.67,-0.69,1.41,-0.69,
1.225,-2.54,-0.17,-0.67,-0.69,1.39,-0.67,
1.232,-2.17,0.33,-0.64,-0.69,1.39,-0.67,
1.233,-2.17,0.33,-0.64,-0.70,1.36,-0.65,
1.233,-2.17,0.33,-0.64,-0.70,1.33,-0.63,
1.233,-2.17,0.33,-0.64,-0.73,1.27,-0.60,
1.233,-2.17,0.33,-0.64,-0.74,1.25,-0.58,
1.241,-2.17,0.33,-0.64,-0.75,1.21,-0.56,
1.241,-1.70,0.78,-0.87,-0.75,1.21,-0.56,
1.241,-1.70,0.78,-0.87,-0.77,1.17,-0.53,
1.241,-1.70,0.78,-0.87,-0.80,1.13,-0.49,
1.256,-1.70,0.78,-0.87,-0.83,1.05,-0.44,
1.257,-1.70,0.78,-0.87,-0.84,1.03,-0.42,
1.257,-1.70,0.78,-0.87,-0.86,0.98,-0.38,
1.271,-1.41,1.21,-0.79,-0.86,0.98,-0.38,
1.271,-1.41,1.21,-0.79,-0.88,0.92,-0.34,
1.271,-1.41,1.21,-0.79,-0.89,0.87,-0.30,
1.271,-1.41,1.21,-0.79,-0.90,0.78,-0.25,
1.271,-1.41,1.21,-0.79,-0.90,0.75,-0.23,
1.272,-1.41,1.21,-0.79,-0.91,0.70,-0.19,
1.272,-0.79,1.53,-0.16,-0.91,0.70,-0.19,
1.272,-0.79,1.53,-0.16,-0.91,0.65,-0.16,
1.272,-0.79,1.53,-0.16,-0.90,0.60,-0.12,
1.272,-0.79,1.53,-0.16,-0.88,0.54,-0.07,
1.272,-0.79,1.53,-0.16,-0.87,0.52,-0.06,
1.273,-0.79,1.53,-0.16,-0.84,0.48,-0.03,
1.273,-0.33,1.77,0.71,-0.84,0.48,-0.03,
1.273,-0.33,1.77,0.71,-0.81,0.45,0.00,
1.273,-0.33,1.77,0.71,-0.78,0.42,0.03,
1.273,-0.33,1.77,0.71,-0.73,0.38,0.07,
1.273,-0.33,1.77,0.71,-0.71,0.37,0.08,
1.275,-0.33,1.77,0.71,-0.67,0.35,0.11,
1.278,-0.20,1.77,1.33,-0.67,0.35,0.11,
1.278,-0.20,1.77,1.33,-0.63,0.33,0.13,
1.279,-0.20,1.77,1.33,-0.59,0.32,0.15,
1.282,-0.20,1.77,1.33,-0.53,0.29,0.18,
1.283,-0.20,1.77,1.33,-0.51,0.28,0.19,
1.285,-0.20,1.77,1.33,-0.47,0.26,0.20,
1.287,0.21,1.34,1.75,-0.47,0.26,0.20,
1.288,0.21,1.34,1.75,-0.43,0.24,0.21,
1.289,0.21,1.34,1.75,-0.39,0.23,0.21,
1.294,0.21,1.34,1.75,-0.35,0.20,0.22,
1.295,0.21,1.34,1.75,-0.34,0.19,0.22,
1.295,0.21,1.34,1.75,-0.32,0.16,0.22,
1.297,0.91,0.91,1.55,-0.32,0.16,0.22,
1.297,0.91,0.91,1.55,-0.32,0.13,0.22,
1.299,0.91,0.91,1.55,-0.32,0.11,0.21,
1.302,0.91,0.91,1.55,-0.33,0.08,0.21,
1.303,0.91,0.91,1.55,-0.34,0.07,0.21,
1.305,0.91,0.91,1.55,-0.35,0.05,0.22,
1.307,0.96,0.69,0.90,-0.35,0.05,0.22,
1.308,0.96,0.69,0.90,-0.37,0.03,0.22,
1.309,0.96,0.69,0.90,-0.40,0.02,0.22,
1.312,0.96,0.69,0.90,-0.44,0.01,0.22,
1.313,0.96,0.69,0.90,-0.45,0.01,0.21,
1.315,0.96,0.69,0.90,-0.48,0.01,0.20,
1.317,1.36,0.99,0.71,-0.48,0.01,0.20,
1.317,1.36,0.99,0.71,-0.50,0.01,0.18,
1.319,1.36,0.99,0.71,-0.52,0.01,0.15,
1.322,1.36,0.99,0.71,-0.54,0.00,0.11,
1.323,1.36,0.99,0.71,-0.55,-0.00,0.09,
1.325,1.36,0.99,0.71,-0.56,-0.01,0.05,
1.327,2.28,0.89,0.99,-0.56,-0.01,0.05,
1.328,2.28,0.89,0.99,-0.57,-0.01,0.00,
1.329,2.28,0.89,0.99,-0.58,-0.01,-0.04,
1.332,2.28,0.89,0.99,-0.59,0.01,-0.13,
1.333,2.28,0.89,0.99,-0.59,0.01,-0.15,
1.335,2.28,0.89,0.99,-0.60,0.03,-0.21,
1.337,3.03,0.36,0.76,-0.60,0.03,-0.21,
1.338,3.03,0.36,0.76,-0.61,0.05,-0.28,
1.339,3.03,0.36,0.76,-0.61,0.06,-0.34,
1.343,3.03,0.36,0.76,-0.61,0.10,-0.42,
1.344,3.03,0.36,0.76,-0.61,0.12,-0.45,
1.345,3.03,0.36,0.76,-0.61,0.16,-0.51,
1.347,3.12,-0.28,0.44,-0.61,0.16,-0.51,
1.348,3.12,-0.28,0.44,-0.61,0.19,-0.56,
1.349,3.12,-0.28,0.44,-0.61,0.23,-0.61,
1.352,3.12,-0.28,0.44,-0.60,0.28,-0.67,
1.353,3.12,-0.28,0.44,-0.60,0.30,-0.69,
1.355,3.12,-0.28,0.44,-0.60,0.34,-0.72,
1.357,2.42,-0.49,-0.07,-0.60,0.34,-0.72,
1.358,2.42,-0.49,-0.07,-0.60,0.37,-0.74,
1.373,2.42,-0.49,-0.07,-0.60,0.40,-0.76,
1.373,2.42,-0.49,-0.07,-0.60,0.42,-0.77,
1.374,2.42,-0.49,-0.07,-0.60,0.42,-0.76,
1.374,2.42,-0.49,-0.07,-0.60,0.43,-0.75,
1.374,0.92,-0.25,-0.08,-0.60,0.43,-0.75,
1.374,0.92,-0.25,-0.08,-0.60,0.44,-0.74,
1.374,0.92,-0.25,-0.08,-0.61,0.45,-0.72,
1.374,0.92,-0.25,-0.08,-0.62,0.47,-0.68,
1.374,0.92,-0.25,-0.08,-0.63,0.48,-0.66,
1.4,0.92,-0.25,-0.08,-0.63,0.47,-0.63,
1.4,-0.35,0.21,-0.02,-0.63,0.47,-0.63,
1.4,-0.35,0.21,-0.02,-0.64,0.47,-0.60,
1.4,-0.35,0.21,-0.02,-0.64,0.47,-0.57,
1.4,-0.35,0.21,-0.02,-0.64,0.47,-0.52,
1.4,-0.35,0.21,-0.02,-0.64,0.47,-0.50,
1.401,-0.35,0.21,-0.02,-0.63,0.47,-0.47,
1.401,-0.92,0.81,0.66,-0.63,0.47,-0.47,
1.401,-0.92,0.81,0.66,-0.60,0.46,-0.43,
1.401,-0.92,0.81,0.66,-0.57,0.45,-0.39,
1.401,-0.92,0.81,0.66,-0.50,0.43,-0.33,
1.401,-0.92,0.81,0.66,-0.48,0.42,-0.31,
1.401,-0.92,0.81,0.66,-0.42,0.40,-0.27,
1.401,-1.32,1.57,2.21,-0.42,0.40,-0.27,
1.401,-1.32,1.57,2.21,-0.35,0.37,-0.22,
1.402,-1.32,1.57,2.21,-0.28,0.34,-0.18,
1.402,-1.32,1.57,2.21,-0.16,0.30,-0.10,
1.404,-1.32,1.57,2.21,-0.13,0.29,-0.08,
1.405,-1.32,1.57,2.21,-0.05,0.27,-0.02,
1.408,-1.44,2.43,3.20,-0.05,0.27,-0.02,
1.408,-1.44,2.43,3.20,0.04,0.23,0.03,
1.41,-1.44,2.43,3.20,0.13,0.19,0.10,
1.412,-1.44,2.43,3.20,0.27,0.09,0.20,
1.435,-1.44,2.43,3.20,0.32,0.06,0.23,
1.435,-1.44,2.43,3.20,0.42,-0.01,0.29,
1.435,-0.94,4.49,4.30,0.42,-0.01,0.29,
1.435,-0.94,4.49,4.30,0.50,-0.05,0.35,
1.435,-0.94,4.49,4.30,0.56,-0.08,0.41,
1.436,-0.94,4.49,4.30,0.62,-0.09,0.47,
1.436,-0.94,4.49,4.30,0.63,-0.10,0.49,
1.436,-0.94,4.49,4.30,0.66,-0.12,0.52,
1.436,0.69,5.10,2.95,0.66,-0.12,0.52,
1.436,0.69,5.10,2.95,0.70,-0.16,0.55,
1.436,0.69,5.10,2.95,0.74,-0.23,0.56,
1.437,0.69,5.10,2.95,0.83,-0.36,0.57,
1.437,0.69,5.10,2.95,0.86,-0.41,0.57,
1.437,0.69,5.10,2.95,0.93,-0.52,0.56,
1.442,2.28,2.96,4.21,0.93,-0.52,0.56,
1.443,2.28,2.96,4.21,0.99,-0.64,0.55,
1.443,2.28,2.96,4.21,1.05,-0.76,0.52,
1.443,2.28,2.96,4.21,1.13,-0.94,0.48,
1.443,2.28,2.96,4.21,1.15,-1.00,0.46,
1.448,2.28,2.96,4.21,1.19,-1.10,0.43,
1.448,3.70,1.09,3.27,1.19,-1.10,0.43,
1.448,3.70,1.09,3.27,1.23,-1.19,0.39,
1.451,3.70,1.09,3.27,1.26,-1.26,0.36,
1.454,3.70,1.09,3.27,1.29,-1.35,0.30,
1.454,3.70,1.09,3.27,1.30,-1.38,0.29,
1.457,3.70,1.09,3.27,1.30,-1.45,0.25,
1.459,4.10,-0.02,1.48,1.30,-1.45,0.25,
1.459,4.10,-0.02,1.48,1.29,-1.51,0.22,
1.46,4.10,-0.02,1.48,1.27,-1.57,0.19,
1.462,4.10,-0.02,1.48,1.22,-1.64,0.14,
1.463,4.10,-0.02,1.48,1.20,-1.66,0.13,
1.467,4.10,-0.02,1.48,1.14,-1.71,0.10,
1.467,3.89,-0.95,-0.56,1.14,-1.71,0.10,
1.467,3.89,-0.95,-0.56,1.07,-1.75,0.07,
1.469,3.89,-0.95,-0.56,1.00,-1.78,0.05,
1.473,3.89,-0.95,-0.56,0.89,-1.83,0.02,
1.473,3.89,-0.95,-0.56,0.84,-1.84,0.01,
1.476,3.89,-0.95,-0.56,0.76,-1.87,-0.01,
1.478,2.92,-1.50,-2.59,0.76,-1.87,-0.01,
1.478,2.92,-1.50,-2.59,0.67,-1.89,-0.03,
1.479,2.92,-1.50,-2.59,0.58,-1.90,-0.05,
1.482,2.92,-1.50,-2.59,0.44,-1.90,-0.06,
1.483,2.92,-1.50,-2.59,0.39,-1.90,-0.06,
1.485,2.92,-1.50,-2.59,0.29,-1.88,-0.06,
1.487,1.08,-1.44,-4.21,0.29,-1.88,-0.06,
1.488,1.08,-1.44,-4.21,0.19,-1.85,-0.06,
1.489,1.08,-1.44,-4.21,0.08,-1.81,-0.05,
1.496,1.08,-1.44,-4.21,-0.08,-1.72,-0.04,
1.497,1.08,-1.44,-4.21,-0.13,-1.68,-0.03,
1.497,1.08,-1.44,-4.21,-0.24,-1.60,-0.02,
1.498,-1.07,-1.36,-6.13,-0.24,-1.60,-0.02,
1.498,-1.07,-1.36,-6.13,-0.35,-1.51,-0.00,
1.504,-1.07,-1.36,-6.13,-0.45,-1.41,0.01,
1.504,-1.07,-1.36,-6.13,-0.61,-1.24,0.03,
1.505,-1.07,-1.36,-6.13,-0.66,-1.17,0.04,
1.505,-1.07,-1.36,-6.13,-0.76,-1.04,0.06,
1.519,-2.71,-1.22,-7.14,-0.76,-1.04,0.06,
1.519,-2.71,-1.22,-7.14,-0.86,-0.91,0.07,
1.519,-2.71,-1.22,-7.14,-0.96,-0.77,0.09,
1.52,-2.71,-1.22,-7.14,-1.10,-0.51,0.10,
1.52,-2.71,-1.22,-7.14,-1.14,-0.43,0.11,
1.52,-2.71,-1.22,-7.14,-1.23,-0.28,0.12,
1.52,-3.56,-1.20,-7.73,-1.23,-0.28,0.12,
1.52,-3.56,-1.20,-7.73,-1.30,-0.14,0.12,
1.52,-3.56,-1.20,-7.73,-1.38,0.01,0.13,
1.524,-3.56,-1.20,-7.73,-1.48,0.21,0.13,
1.524,-3.56,-1.20,-7.73,-1.51,0.27,0.13,
1.529,-3.56,-1.20,-7.73,-1.57,0.39,0.13,
1.529,-3.66,-1.11,-6.92,-1.57,0.39,0.13,
1.529,-3.66,-1.11,-6.92,-1.62,0.50,0.13,
1.529,-3.66,-1.11,-6.92,-1.67,0.60,0.12,
1.533,-3.66,-1.11,-6.92,-1.72,0.74,0.12,
1.533,-3.66,-1.11,-6.92,-1.73,0.78,0.11,
1.537,-3.66,-1.11,-6.92,-1.76,0.85,0.10,
1.539,-3.03,-1.11,-5.38,-1.76,0.85,0.10,
1.539,-3.03,-1.11,-5.38,-1.79,0.91,0.09,
1.539,-3.03,-1.11,-5.38,-1.80,0.97,0.08,
1.543,-3.03,-1.11,-5.38,-1.82,1.06,0.07,
1.546,-3.03,-1.11,-5.38,-1.82,1.08,0.07,
1.548,-3.03,-1.11,-5.38,-1.83,1.12,0.07,
1.549,-2.20,-0.81,-3.54,-1.83,1.12,0.07,
1.549,-2.20,-0.81,-3.54,-1.84,1.16,0.06,
1.55,-2.20,-0.81,-3.54,-1.85,1.20,0.07,
1.553,-2.20,-0.81,-3.54,-1.85,1.25,0.07,
1.553,-2.20,-0.81,-3.54,-1.84,1.27,0.08,
1.557,-2.20,-0.81,-3.54,-1.83,1.29,0.09,
1.559,-1.64,-0.49,-2.04,-1.83,1.29,0.09,
1.56,-1.64,-0.49,-2.04,-1.81,1.31,0.10,
1.56,-1.64,-0.49,-2.04,-1.79,1.32,0.11,
1.563,-1.64,-0.49,-2.04,-1.73,1.34,0.12,
1.563,-1.64,-0.49,-2.04,-1.71,1.34,0.13,
1.567,-1.64,-0.49,-2.04,-1.66,1.34,0.12,
1.567,-0.62,0.23,0.12,-1.66,1.34,0.12,
1.568,-0.62,0.23,0.12,-1.59,1.34,0.11,
1.571,-0.62,0.23,0.12,-1.52,1.32,0.09,
1.573,-0.62,0.23,0.12,-1.39,1.27,0.06,
1.573,-0.62,0.23,0.12,-1.35,1.24,0.05,
1.576,-0.62,0.23,0.12,-1.27,1.16,0.03,
1.578,1.14,0.97,2.28,-1.27,1.16,0.03,
1.578,1.14,0.97,2.28,-1.19,1.08,0.02,
1.59,1.14,0.97,2.28,-1.10,1.00,0.01,
1.591,1.14,0.97,2.28,-0.99,0.86,-0.02,
1.591,1.14,0.97,2.28,-0.95,0.80,-0.03,
1.591,1.14,0.97,2.28,-0.88,0.68,-0.06,
1.591,3.42,0.72,2.97,-0.88,0.68,-0.06,
1.591,3.42,0.72,2.97,-0.83,0.54,-0.08,
1.592,3.42,0.72,2.97,-0.80,0.39,-0.11,
1.592,3.42,0.72,2.97,-0.78,0.17,-0.16,
1.594,3.42,0.72,2.97,-0.77,0.10,-0.17,
1.595,3.42,0.72,2.97,-0.77,-0.04,-0.19,
1.599,5.34,-0.38,1.65,-0.77,-0.04,-0.19,
1.599,5.34,-0.38,1.65,-0.78,-0.17,-0.22,
1.599,5.34,-0.38,1.65,-0.79,-0.30,-0.24,
1.603,5.34,-0.38,1.65,-0.82,-0.49,-0.28,
1.603,5.34,-0.38,1.65,-0.83,-0.55,-0.30,
1.607,5.34,-0.38,1.65,-0.85,-0.66,-0.34,
1.609,5.50,-1.63,1.13,-0.85,-0.66,-0.34,
1.609,5.50,-1.63,1.13,-0.87,-0.77,-0.38,
1.609,5.50,-1.63,1.13,-0.90,-0.86,-0.42,
1.612,5.50,-1.63,1.13,-0.93,-0.98,-0.48,
1.613,5.50,-1.63,1.13,-0.94,-1.02,-0.51,
1.615,5.50,-1.63,1.13,-0.96,-1.09,-0.55,
1.617,4.54,-1.73,1.13,-0.96,-1.09,-0.55,
1.617,4.54,-1.73,1.13,-0.98,-1.15,-0.60,
1.619,4.54,-1.73,1.13,-0.99,-1.20,-0.64,
1.622,4.54,-1.73,1.13,-1.00,-1.25,-0.71,
1.623,4.54,-1.73,1.13,-1.00,-1.26,-0.74,
1.625,4.54,-1.73,1.13,-0.99,-1.27,-0.78,
1.628,2.83,-1.19,1.68,-0.99,-1.27,-0.78,
1.628,2.83,-1.19,1.68,-0.98,-1.28,-0.83,
1.629,2.83,-1.19,1.68,-0.95,-1.26,-0.87,
1.632,2.83,-1.19,1.68,-0.90,-1.23,-0.93,
1.633,2.83,-1.19,1.68,-0.88,-1.21,-0.95,
1.635,2.83,-1.19,1.68,-0.83,-1.18,-0.99,
1.637,0.88,-0.31,2.70,-0.83,-1.18,-0.99,
1.637,0.88,-0.31,2.70,-0.78,-1.14,-1.00,
1.639,0.88,-0.31,2.70,-0.71,-1.09,-1.02,
1.646,0.88,-0.31,2.70,-0.59,-1.02,-1.02,
1.646,0.88,-0.31,2.70,-0.55,-1.00,-1.01,
1.646,0.88,-0.31,2.70,-0.45,-0.96,-0.99,
1.647,-1.53,0.88,3.51,-0.45,-0.96,-0.99,
1.648,-1.53,0.88,3.51,-0.35,-0.93,-0.95,
1.649,-1.53,0.88,3.51,-0.25,-0.90,-0.90,
1.652,-1.53,0.88,3.51,-0.09,-0.88,-0.80,
1.653,-1.53,0.88,3.51,-0.05,-0.88,-0.76,
1.655,-1.53,0.88,3.51,0.05,-0.87,-0.67,
1.671,-3.93,1.59,3.78,0.05,-0.87,-0.67,
1.671,-3.93,1.59,3.78,0.14,-0.86,-0.59,
1.672,-3.93,1.59,3.78,0.22,-0.86,-0.51,
1.672,-3.93,1.59,3.78,0.33,-0.88,-0.38,
1.672,-3.93,1.59,3.78,0.36,-0.89,-0.33,
1.672,-3.93,1.59,3.78,0.42,-0.92,-0.24,
1.672,-5.10,1.59,3.06,0.42,-0.92,-0.24,
1.672,-5.10,1.59,3.06,0.47,-0.94,-0.14,
1.672,-5.10,1.59,3.06,0.51,-0.95,-0.04,
1.672,-5.10,1.59,3.06,0.54,-0.94,0.10,
1.673,-5.10,1.59,3.06,0.54,-0.94,0.15,
1.681,-5.10,1.59,3.06,0.55,-0.94,0.25,
1.681,-5.73,1.33,1.39,0.55,-0.94,0.25,
1.681,-5.73,1.33,1.39,0.55,-0.95,0.34,
1.682,-5.73,1.33,1.39,0.54,-0.95,0.43,
1.682,-5.73,1.33,1.39,0.52,-0.96,0.55,
1.683,-5.73,1.33,1.39,0.51,-0.96,0.59,
1.685,-5.73,1.33,1.39,0.48,-0.94,0.66,
1.687,-4.81,1.12,-0.21,0.48,-0.94,0.66,
1.688,-4.81,1.12,-0.21,0.44,-0.91,0.70,
1.689,-4.81,1.12,-0.21,0.40,-0.89,0.74,
1.693,-4.81,1.12,-0.21,0.33,-0.85,0.78,
1.694,-4.81,1.12,-0.21,0.31,-0.84,0.78,
1.695,-4.81,1.12,-0.21,0.26,-0.81,0.79,
1.697,-2.84,0.43,-1.60,0.26,-0.81,0.79,
1.698,-2.84,0.43,-1.60,0.21,-0.77,0.78,
1.699,-2.84,0.43,-1.60,0.16,-0.73,0.77,
1.702,-2.84,0.43,-1.60,0.07,-0.66,0.75,
1.703,-2.84,0.43,-1.60,0.04,-0.62,0.74,
1.705,-2.84,0.43,-1.60,-0.02,-0.54,0.72,
1.708,-1.71,-0.38,-2.52,-0.02,-0.54,0.72,
1.708,-1.71,-0.38,-2.52,-0.08,-0.47,0.70,
1.71,-1.71,-0.38,-2.52,-0.15,-0.39,0.68,
1.712,-1.71,-0.38,-2.52,-0.24,-0.28,0.64,
1.714,-1.71,-0.38,-2.52,-0.27,-0.25,0.63,
1.715,-1.71,-0.38,-2.52,-0.34,-0.17,0.61,
1.717,-1.32,-1.15,-3.25,-0.34,-0.17,0.61,
1.718,-1.32,-1.15,-3.25,-0.41,-0.08,0.59,
1.719,-1.32,-1.15,-3.25,-0.47,0.02,0.57,
1.722,-1.32,-1.15,-3.25,-0.58,0.15,0.53,
1.723,-1.32,-1.15,-3.25,-0.61,0.19,0.53,
1.725,-1.32,-1.15,-3.25,-0.68,0.29,0.51,
1.727,-1.75,-1.68,-4.05,-0.68,0.29,0.51,
1.728,-1.75,-1.68,-4.05,-0.75,0.38,0.50,
1.729,-1.75,-1.68,-4.05,-0.81,0.46,0.49,
1.732,-1.75,-1.68,-4.05,-0.90,0.59,0.49,
1.733,-1.75,-1.68,-4.05,-0.93,0.63,0.50,
1.735,-1.75,-1.68,-4.05,-0.98,0.71,0.51,
1.738,-2.70,-1.90,-4.05,-0.98,0.71,0.51,
1.738,-2.70,-1.90,-4.05,-1.03,0.79,0.52,
1.739,-2.70,-1.90,-4.05,-1.07,0.86,0.54,
1.742,-2.70,-1.90,-4.05,-1.12,0.97,0.60,
1.745,-2.70,-1.90,-4.05,-1.14,1.01,0.62,
1.746,-2.70,-1.90,-4.05,-1.17,1.07,0.66,
1.766,-3.60,-1.44,-3.36,-1.17,1.07,0.66,
1.766,-3.60,-1.44,-3.36,-1.19,1.13,0.72,
1.766,-3.60,-1.44,-3.36,-1.22,1.18,0.77,
1.767,-3.60,-1.44,-3.36,-1.26,1.25,0.86,
1.767,-3.60,-1.44,-3.36,-1.28,1.28,0.89,
1.768,-3.60,-1.44,-3.36,-1.31,1.33,0.95,
1.768,-4.04,-1.69,-3.03,-1.31,1.33,0.95,
1.769,-4.04,-1.69,-3.03,-1.34,1.39,1.01,
1.769,-4.04,-1.69,-3.03,-1.37,1.45,1.07,
1.77,-4.04,-1.69,-3.03,-1.41,1.54,1.15,
1.77,-4.04,-1.69,-3.03,-1.43,1.57,1.17,
1.77,-4.04,-1.69,-3.03,-1.46,1.62,1.22,
1.771,-3.44,-1.90,-2.45,-1.46,1.62,1.22,
1.772,-3.44,-1.90,-2.45,-1.50,1.67,1.26,
1.785,-3.44,-1.90,-2.45,-1.61,1.79,1.36,
1.786,-3.44,-1.90,-2.45,-1.61,1.79,1.36,
1.786,-3.44,-1.90,-2.45,-1.65,1.83,1.38,
1.787,-2.84,-1.79,-1.89,-1.65,1.83,1.38,
1.787,-2.84,-1.79,-1.89,-1.69,1.86,1.41,
1.788,-2.84,-1.79,-1.89,-1.69,1.86,1.41,
1.788,-2.84,-1.79,-1.89,-1.73,1.87,1.43,
1.788,-2.84,-1.79,-1.89,-1.80,1.89,1.46,
1.789,-2.84,-1.79,-1.89,-1.82,1.90,1.47,
1.789,-2.84,-1.79,-1.89,-1.86,1.90,1.48,
1.804,-2.21,-1.28,-1.17,-1.86,1.90,1.48,
1.805,-2.21,-1.28,-1.17,-1.90,1.90,1.49,
1.805,-2.21,-1.28,-1.17,-1.94,1.91,1.49,
1.806,-2.21,-1.28,-1.17,-2.00,1.92,1.49,
1.806,-2.21,-1.28,-1.17,-2.02,1.92,1.49,
1.806,-2.21,-1.28,-1.17,-2.06,1.93,1.49,
1.807,-1.80,-0.76,-0.58,-2.06,1.93,1.49,
1.807,-1.80,-0.76,-0.58,-2.10,1.94,1.49,
1.807,-1.80,-0.76,-0.58,-2.15,1.95,1.49,
1.808,-1.80,-0.76,-0.58,-2.21,1.95,1.51,
1.808,-1.80,-0.76,-0.58,-2.23,1.95,1.51,
1.808,-1.80,-0.76,-0.58,-2.28,1.95,1.53,
1.809,-1.91,-0.05,-0.46,-2.28,1.95,1.53,
1.809,-1.91,-0.05,-0.46,-2.32,1.98,1.55,
1.809,-1.91,-0.05,-0.46,-2.36,1.99,1.58,
1.813,-1.91,-0.05,-0.46,-2.40,2.00,1.63,
1.813,-1.91,-0.05,-0.46,-2.41,2.01,1.65,
1.832,-1.91,-0.05,-0.46,-2.42,2.01,1.70,
1.833,-1.72,0.05,0.57,-2.42,2.01,1.70,
1.834,-1.72,0.05,0.57,-2.42,1.99,1.74,
1.834,-1.72,0.05,0.57,-2.41,1.95,1.79,
1.835,-1.72,0.05,0.57,-2.35,1.82,1.88,
1.835,-1.72,0.05,0.57,-2.32,1.76,1.91,
1.836,-1.72,0.05,0.57,-2.23,1.64,1.96,
1.836,-1.09,-0.22,3.52,-2.23,1.64,1.96,
1.836,-1.09,-0.22,3.52,-2.12,1.50,2.02,
1.837,-1.09,-0.22,3.52,-1.99,1.35,2.08,
1.837,-1.09,-0.22,3.52,-1.77,1.15,2.17,
1.837,-1.09,-0.22,3.52,-1.70,1.09,2.20,
1.838,-1.09,-0.22,3.52,-1.55,0.97,2.26,
1.838,-0.06,0.23,6.38,-1.55,0.97,2.26,
1.839,-0.06,0.23,6.38,-1.40,0.86,2.32,
1.839,-0.06,0.23,6.38,-1.26,0.78,2.37,
1.847,-0.06,0.23,6.38,-1.07,0.66,2.44,
1.847,-0.06,0.23,6.38,-1.01,0.63,2.45,
1.848,-0.06,0.23,6.38,-0.90,0.58,2.48,
1.849,1.81,1.02,5.30,-0.90,0.58,2.48,
1.849,1.81,1.02,5.30,-0.81,0.54,2.49,
1.85,1.81,1.02,5.30,-0.72,0.50,2.51,
1.854,1.81,1.02,5.30,-0.61,0.42,2.51,
1.855,1.81,1.02,5.30,-0.58,0.40,2.51,
1.856,1.81,1.02,5.30,-0.52,0.35,2.50,
1.864,3.22,1.54,3.66,-0.52,0.35,2.50,
1.865,3.22,1.54,3.66,-0.47,0.29,2.47,
1.865,3.22,1.54,3.66,-0.44,0.23,2.44,
1.865,3.22,1.54,3.66,-0.40,0.12,2.40,
1.865,3.22,1.54,3.66,-0.39,0.09,2.38,
1.866,3.22,1.54,3.66,-0.38,0.02,2.35,
1.868,3.37,1.46,2.38,-0.38,0.02,2.35,
1.868,3.37,1.46,2.38,-0.38,-0.03,2.32,
1.869,3.37,1.46,2.38,-0.39,-0.07,2.30,
1.872,3.37,1.46,2.38,-0.42,-0.11,2.27,
1.876,3.37,1.46,2.38,-0.43,-0.12,2.26,
1.876,3.37,1.46,2.38,-0.46,-0.15,2.24,
1.878,2.65,1.10,1.01,-0.46,-0.15,2.24,
1.878,2.65,1.10,1.01,-0.49,-0.17,2.24,
1.879,2.65,1.10,1.01,-0.53,-0.20,2.24,
1.882,2.65,1.10,1.01,-0.57,-0.27,2.26,
1.883,2.65,1.10,1.01,-0.59,-0.30,2.27,
1.886,2.65,1.10,1.01,-0.61,-0.36,2.29,
1.888,1.15,1.08,0.48,-0.61,-0.36,2.29,
1.888,1.15,1.08,0.48,-0.64,-0.43,2.31,
1.889,1.15,1.08,0.48,-0.67,-0.50,2.34,
1.896,1.15,1.08,0.48,-0.71,-0.61,2.39,
1.897,1.15,1.08,0.48,-0.72,-0.65,2.40,
1.897,1.15,1.08,0.48,-0.74,-0.73,2.44,
1.898,-0.23,0.89,0.56,-0.74,-0.73,2.44,
1.899,-0.23,0.89,0.56,-0.77,-0.80,2.47,
1.901,-0.23,0.89,0.56,-0.79,-0.86,2.50,
1.904,-0.23,0.89,0.56,-0.82,-0.93,2.54,
1.908,-0.23,0.89,0.56,-0.83,-0.94,2.55,
1.908,-0.23,0.89,0.56,-0.84,-0.95,2.57,
1.908,-0.68,0.68,0.51,-0.84,-0.95,2.57,
1.909,-0.68,0.68,0.51,-0.86,-0.97,2.59,
1.916,-0.68,0.68,0.51,-0.86,-0.97,2.61,
1.917,-0.68,0.68,0.51,-0.87,-0.97,2.61,
1.936,-0.68,0.68,0.51,-0.87,-0.96,2.61,
1.936,-0.68,0.68,0.51,-0.87,-0.95,2.60,
1.937,-0.24,0.80,0.62,-0.87,-0.95,2.60,
1.937,-0.24,0.80,0.62,-0.86,-0.94,2.59,
1.937,-0.24,0.80,0.62,-0.85,-0.93,2.57,
1.937,-0.24,0.80,0.62,-0.83,-0.92,2.55,
1.938,-0.24,0.80,0.62,-0.82,-0.92,2.54,
1.938,-0.24,0.80,0.62,-0.79,-0.92,2.53,
1.938,-0.14,1.17,1.10,-0.79,-0.92,2.53,
1.938,-0.14,1.17,1.10,-0.76,-0.95,2.51,
1.939,-0.14,1.17,1.10,-0.71,-1.00,2.49,
1.939,-0.14,1.17,1.10,-0.64,-1.13,2.46,
1.939,-0.14,1.17,1.10,-0.62,-1.18,2.45,
1.94,-0.14,1.17,1.10,-0.57,-1.29,2.44,
1.94,0.21,1.37,1.99,-0.57,-1.29,2.44,
1.94,0.21,1.37,1.99,-0.52,-1.39,2.43,
1.94,0.21,1.37,1.99,-0.46,-1.49,2.42,
1.962,0.21,1.37,1.99,-0.37,-1.61,2.41,
1.962,0.21,1.37,1.99,-0.34,-1.64,2.41,
1.963,0.21,1.37,1.99,-0.27,-1.69,2.40,
1.963,0.62,1.08,2.47,-0.27,-1.69,2.40,
1.963,0.62,1.08,2.47,-0.21,-1.74,2.40,
1.963,0.62,1.08,2.47,-0.14,-1.79,2.40,
1.963,0.62,1.08,2.47,-0.04,-1.88,2.41,
1.964,0.62,1.08,2.47,-0.01,-1.92,2.41,
1.964,0.62,1.08,2.47,0.04,-2.00,2.41,
1.964,0.41,-0.22,2.44,0.04,-2.00,2.41,
1.964,0.41,-0.22,2.44,0.08,-2.08,2.42,
1.964,0.41,-0.22,2.44,0.12,-2.14,2.42,
1.964,0.41,-0.22,2.44,0.18,-2.17,2.42,
1.965,0.41,-0.22,2.44,0.19,-2.16,2.43,
1.965,0.41,-0.22,2.44,0.22,-2.13,2.42,
1.968,0.28,-1.88,1.47,0.22,-2.13,2.42,
1.968,0.28,-1.88,1.47,0.25,-2.07,2.42,
1.969,0.28,-1.88,1.47,0.27,-1.99,2.42,
1.972,0.28,-1.88,1.47,0.31,-1.85,2.41,
1.976,0.28,-1.88,1.47,0.32,-1.80,2.40,
1.977,0.28,-1.88,1.47,0.34,-1.71,2.39,
1.979,0.18,-2.98,0.72,0.34,-1.71,2.39,
1.979,0.18,-2.98,0.72,0.36,-1.61,2.37,
1.979,0.18,-2.98,0.72,0.38,-1.50,2.34,
1.982,0.18,-2.98,0.72,0.41,-1.31,2.30,
1.983,0.18,-2.98,0.72,0.42,-1.26,2.29,
1.985,0.18,-2.98,0.72,0.44,-1.15,2.26,
1.988,0.51,-2.94,-0.11,0.44,-1.15,2.26,
1.988,0.51,-2.94,-0.11,0.45,-1.05,2.24,
1.992,0.51,-2.94,-0.11,0.47,-0.95,2.21,
1.993,0.51,-2.94,-0.11,0.50,-0.81,2.18,
1.993,0.51,-2.94,-0.11,0.50,-0.76,2.16,
1.995,0.51,-2.94,-0.11,0.52,-0.67,2.14,
1.997,0.55,-2.07,-0.64,0.52,-0.67,2.14,
1.998,0.55,-2.07,-0.64,0.53,-0.59,2.13,
1.999,0.55,-2.07,-0.64,0.53,-0.52,2.11,
2.002,0.55,-2.07,-0.64,0.53,-0.42,2.09,
2.003,0.55,-2.07,-0.64,0.53,-0.38,2.09,
2.005,0.55,-2.07,-0.64,0.53,-0.31,2.08,
2.008,0.38,-0.74,-0.97,0.53,-0.31,2.08,
2.009,0.38,-0.74,-0.97,0.52,-0.22,2.08,
2.009,0.38,-0.74,-0.97,0.52,-0.13,2.08,
2.012,0.38,-0.74,-0.97,0.49,0.04,2.09,
2.013,0.38,-0.74,-0.97,0.49,0.10,2.10,
2.015,0.38,-0.74,-0.97,0.47,0.23,2.11,
2.017,-0.18,0.43,-1.55,0.47,0.23,2.11,
2.018,-0.18,0.43,-1.55,0.45,0.36,2.12,
2.019,-0.18,0.43,-1.55,0.42,0.50,2.14,
2.022,-0.18,0.43,-1.55,0.38,0.73,2.16,
2.031,-0.18,0.43,-1.55,0.37,0.81,2.18,
2.031,-0.18,0.43,-1.55,0.33,0.97,2.20,
2.031,-0.96,1.32,-2.22,0.33,0.97,2.20,
2.031,-0.96,1.32,-2.22,0.30,1.15,2.22,
2.031,-0.96,1.32,-2.22,0.27,1.33,2.25,
2.032,-0.96,1.32,-2.22,0.22,1.59,2.29,
2.033,-0.96,1.32,-2.22,0.20,1.68,2.31,
2.035,-0.96,1.32,-2.22,0.16,1.83,2.34,
2.037,-0.96,2.31,-2.31,0.16,1.83,2.34,
2.038,-0.96,2.31,-2.31,0.12,1.98,2.39,
2.059,-0.96,2.31,-2.31,0.08,2.08,2.44,
2.059,-0.96,2.31,-2.31,-0.01,2.11,2.54,
2.06,-0.96,2.31,-2.31,-0.04,2.10,2.58,
2.06,-0.96,2.31,-2.31,-0.11,2.04,2.62,
2.06,-0.25,3.71,-1.89,-0.11,2.04,2.62,
2.06,-0.25,3.71,-1.89,-0.19,1.97,2.65,
2.06,-0.25,3.71,-1.89,-0.27,1.88,2.68,
2.06,-0.25,3.71,-1.89,-0.39,1.76,2.68,
2.06,-0.25,3.71,-1.89,-0.42,1.72,2.67,
2.06,-0.25,3.71,-1.89,-0.50,1.64,2.64,
2.06,-0.18,4.11,-1.00,-0.50,1.64,2.64,
2.061,-0.18,4.11,-1.00,-0.57,1.58,2.60,
2.061,-0.18,4.11,-1.00,-0.64,1.53,2.54,
2.062,-0.18,4.11,-1.00,-0.74,1.45,2.44,
2.063,-0.18,4.11,-1.00,-0.78,1.43,2.40,
2.065,-0.18,4.11,-1.00,-0.86,1.39,2.30,
2.068,0.08,4.13,0.23,-0.86,1.39,2.30,
2.068,0.08,4.13,0.23,-0.94,1.34,2.19,
2.069,0.08,4.13,0.23,-1.01,1.30,2.07,
2.073,0.08,4.13,0.23,-1.14,1.24,1.87,
2.073,0.08,4.13,0.23,-1.18,1.22,1.80,
2.075,0.08,4.13,0.23,-1.27,1.18,1.65,
2.077,0.51,3.96,1.03,-1.27,1.18,1.65,
2.078,0.51,3.96,1.03,-1.36,1.14,1.50,
2.097,0.51,3.96,1.03,-1.44,1.11,1.34,
2.097,0.51,3.96,1.03,-1.57,1.07,1.11,
2.097,0.51,3.96,1.03,-1.61,1.06,1.03,
2.098,0.51,3.96,1.03,-1.69,1.06,0.88,
2.098,0.56,3.83,1.38,-1.69,1.06,0.88,
2.099,0.56,3.83,1.38,-1.77,1.06,0.73,
2.099,0.56,3.83,1.38,-1.83,1.09,0.60,
2.1,0.56,3.83,1.38,-1.92,1.17,0.43,
2.1,0.56,3.83,1.38,-1.95,1.20,0.38,
2.1,0.56,3.83,1.38,-2.00,1.28,0.29,
2.101,0.15,3.89,1.48,-2.00,1.28,0.29,
2.101,0.15,3.89,1.48,-2.04,1.36,0.22,
2.102,0.15,3.89,1.48,-2.08,1.46,0.16,
2.102,0.15,3.89,1.48,-2.13,1.62,0.12,
2.109,0.15,3.89,1.48,-2.14,1.67,0.12,
2.11,0.15,3.89,1.48,-2.17,1.78,0.11,
2.11,-0.91,4.20,1.00,-2.17,1.78,0.11,
2.111,-0.91,4.20,1.00,-2.21,1.88,0.12,
2.111,-0.91,4.20,1.00,-2.23,1.98,0.15,
2.112,-0.91,4.20,1.00,-2.23,2.00,0.23,
2.114,-0.91,4.20,1.00,-2.21,1.97,0.27,
2.115,-0.91,4.20,1.00,-2.13,1.82,0.37,
2.117,-2.18,4.60,1.54,-2.13,1.82,0.37,
2.118,-2.18,4.60,1.54,-2.02,1.61,0.50,
2.119,-2.18,4.60,1.54,-1.87,1.34,0.65,
2.123,-2.18,4.60,1.54,-1.54,1.06,0.88,
2.124,-2.18,4.60,1.54,-1.39,1.05,0.95,
2.126,-2.18,4.60,1.54,-1.04,1.18,1.06,
2.128,-3.05,3.99,4.44,-1.04,1.18,1.06,
2.129,-3.05,3.99,4.44,-0.67,1.43,1.14,
2.129,-3.05,3.99,4.44,-0.32,1.69,1.22,
2.132,-3.05,3.99,4.44,0.07,2.05,1.34,
2.133,-3.05,3.99,4.44,0.18,2.15,1.38,
2.135,-3.05,3.99,4.44,0.34,2.38,1.45,
2.138,-2.39,3.33,4.15,0.34,2.38,1.45,
2.139,-2.39,3.33,4.15,0.46,2.61,1.52,
2.142,-2.39,3.33,4.15,0.54,2.83,1.58,
2.144,-2.39,3.33,4.15,0.60,3.15,1.66,
2.144,-2.39,3.33,4.15,0.60,3.26,1.69,
2.146,-2.39,3.33,4.15,0.58,3.44,1.74,
2.148,-1.49,3.54,1.04,0.58,3.44,1.74,
2.149,-1.49,3.54,1.04,0.53,3.57,1.79,
2.149,-1.49,3.54,1.04,0.46,3.67,1.86,
2.152,-1.49,3.54,1.04,0.34,3.80,1.99,
2.153,-1.49,3.54,1.04,0.29,3.83,2.04,
2.155,-1.49,3.54,1.04,0.20,3.89,2.15,
2.158,-1.78,4.48,-1.33,0.20,3.89,2.15,
2.158,-1.78,4.48,-1.33,0.10,3.94,2.25,
2.16,-1.78,4.48,-1.33,-0.01,3.97,2.35,
2.162,-1.78,4.48,-1.33,-0.15,3.90,2.48,
2.163,-1.78,4.48,-1.33,-0.20,3.84,2.52,
2.165,-1.78,4.48,-1.33,-0.27,3.69,2.60,
2.168,-1.18,4.28,-0.59,-0.27,3.69,2.60,
2.168,-1.18,4.28,-0.59,-0.33,3.49,2.68,
2.169,-1.18,4.28,-0.59,-0.39,3.23,2.75,
2.182,-1.18,4.28,-0.59,-0.47,2.76,2.85,
2.183,-1.18,4.28,-0.59,-0.50,2.59,2.88,
2.183,-1.18,4.28,-0.59,-0.53,2.25,2.93,
2.183,-0.69,4.25,1.14,-0.53,2.25,2.93,
2.183,-0.69,4.25,1.14,-0.58,1.92,2.98,
2.184,-0.69,4.25,1.14,-0.62,1.59,3.03,
2.184,-0.69,4.25,1.14,-0.68,1.14,3.08,
2.184,-0.69,4.25,1.14,-0.71,1.00,3.10,
2.185,-0.69,4.25,1.14,-0.76,0.72,3.13,
2.214,-0.80,4.81,1.30,-0.76,0.72,3.13,
2.214,-0.80,4.81,1.30,-0.81,0.47,3.14,
2.215,-0.80,4.81,1.30,-0.86,0.25,3.16,
2.215,-0.80,4.81,1.30,-0.94,-0.04,3.17,
2.215,-0.80,4.81,1.30,-0.97,-0.13,3.17,
2.216,-0.80,4.81,1.30,-1.03,-0.30,3.17,
2.216,-0.82,5.82,0.45,-1.03,-0.30,3.17,
2.216,-0.82,5.82,0.45,-1.08,-0.44,3.16,
2.217,-0.82,5.82,0.45,-1.13,-0.57,3.16,
2.217,-0.82,5.82,0.45,-1.20,-0.75,3.15,
2.217,-0.82,5.82,0.45,-1.22,-0.81,3.14,
2.217,-0.82,5.82,0.45,-1.25,-0.91,3.13,
2.218,-0.64,6.69,-0.39,-1.25,-0.91,3.13,
2.218,-0.64,6.69,-0.39,-1.28,-1.00,3.12,
2.218,-0.64,6.69,-0.39,-1.30,-1.10,3.10,
2.219,-0.64,6.69,-0.39,-1.33,-1.23,3.08,
2.219,-0.64,6.69,-0.39,-1.33,-1.28,3.07,
2.219,-0.64,6.69,-0.39,-1.33,-1.37,3.06,
2.22,-0.40,7.39,-0.41,-1.33,-1.37,3.06,
2.22,-0.40,7.39,-0.41,-1.32,-1.44,3.05,
2.22,-0.40,7.39,-0.41,-1.30,-1.51,3.04,
2.23,-0.40,7.39,-0.41,-1.27,-1.60,3.02,
2.231,-0.40,7.39,-0.41,-1.26,-1.63,3.01,
2.231,-0.40,7.39,-0.41,-1.22,-1.67,3.00,
2.232,-0.35,7.60,0.29,-1.22,-1.67,3.00,
2.233,-0.35,7.60,0.29,-1.16,-1.69,3.00,
2.234,-0.35,7.60,0.29,-1.10,-1.71,2.99,
2.234,-0.35,7.60,0.29,-1.01,-1.73,2.98,
2.235,-0.35,7.60,0.29,-0.97,-1.73,2.97,
2.236,-0.35,7.60,0.29,-0.89,-1.70,2.96,
2.24,-0.28,7.28,2.26,-0.89,-1.70,2.96,
2.241,-0.28,7.28,2.26,-0.78,-1.65,2.96,
2.242,-0.28,7.28,2.26,-0.66,-1.58,2.95,
2.247,-0.28,7.28,2.26,-0.48,-1.42,2.95,
2.248,-0.28,7.28,2.26,-0.42,-1.35,2.95,
2.249,-0.28,7.28,2.26,-0.32,-1.21,2.95,
2.282,-0.46,6.79,3.44,-0.32,-1.21,2.95,
2.282,-0.46,6.79,3.44,-0.23,-1.04,2.95,
2.283,-0.46,6.79,3.44,-0.15,-0.86,2.96,
2.283,-0.46,6.79,3.44,-0.05,-0.55,2.97,
2.283,-0.46,6.79,3.44,-0.02,-0.43,2.97,
2.284,-0.46,6.79,3.44,0.04,-0.17,2.97,
2.284,-0.24,4.99,1.75,0.04,-0.17,2.97,
2.284,-0.24,4.99,1.75,0.06,0.09,2.99,
2.285,-0.24,4.99,1.75,0.06,0.36,3.02,
2.285,-0.24,4.99,1.75,0.01,0.81,3.11,
2.285,-0.24,4.99,1.75,-0.01,0.97,3.16,
2.285,-0.24,4.99,1.75,-0.07,1.29,3.28,
2.286,-0.46,-4.05,-2.17,-0.07,1.29,3.28,
2.286,-0.46,-4.05,-2.17,-0.14,1.64,3.43,
2.286,-0.46,-4.05,-2.17,-0.23,1.97,3.63,
2.287,-0.46,-4.05,-2.17,-0.35,2.38,4.03,
2.287,-0.46,-4.05,-2.17,-0.39,2.49,4.20,
2.287,-0.46,-4.05,-2.17,-0.46,2.69,4.58,
2.288,-6.66,-17.93,-4.34,-0.46,2.69,4.58,
2.288,-6.66,-17.93,-4.34,-0.52,2.79,5.01,
2.288,-6.66,-17.93,-4.34,-0.55,2.79,5.48,
2.289,-6.66,-17.93,-4.34,-0.58,2.71,6.23,
2.289,-6.66,-17.93,-4.34,-0.58,2.66,6.48,
2.289,-6.66,-17.93,-4.34,-0.57,2.51,6.97,
2.29,-14.55,-33.03,-2.83,-0.57,2.51,6.97,
2.291,-14.55,-33.03,-2.83,-0.56,2.31,7.45,
2.291,-14.55,-33.03,-2.83,-0.53,2.09,7.89,
2.3,-14.55,-33.03,-2.83,-0.46,1.72,8.45,
2.301,-14.55,-33.03,-2.83,-0.43,1.59,8.60,
2.301,-14.55,-33.03,-2.83,-0.33,1.31,8.85,
2.301,-12.75,-43.55,-0.19,-0.33,1.31,8.85,
2.302,-12.75,-43.55,-0.19,-0.20,1.03,9.00,
2.302,-12.75,-43.55,-0.19,-0.03,0.77,9.06,
2.302,-12.75,-43.55,-0.19,0.30,0.42,9.00,
2.307,-12.75,-43.55,-0.19,0.42,0.33,8.95,
2.308,-12.75,-43.55,-0.19,0.67,0.20,8.78,
2.327,-3.32,-40.03,3.63,0.67,0.20,8.78,
2.327,-3.32,-40.03,3.63,1.11,0.15,8.39,
2.327,-3.32,-40.03,3.63,1.26,0.18,8.23,
2.328,-3.32,-40.03,3.63,1.73,0.36,7.68,
2.328,-3.32,-40.03,3.63,1.89,0.44,7.48,
2.328,-3.32,-40.03,3.63,2.20,0.60,7.06,
2.328,4.27,-27.96,3.63,2.20,0.60,7.06,
2.328,4.27,-27.96,3.63,2.49,0.76,6.61,
2.329,4.27,-27.96,3.63,2.78,0.95,6.15,
2.329,4.27,-27.96,3.63,3.18,1.24,5.42,
2.329,4.27,-27.96,3.63,3.31,1.32,5.18,
2.329,4.27,-27.96,3.63,3.53,1.49,4.68,
2.329,8.37,-15.79,1.27,3.53,1.49,4.68,
2.33,8.37,-15.79,1.27,3.74,1.65,4.18,
2.33,8.37,-15.79,1.27,3.92,1.81,3.68,
2.345,8.37,-15.79,1.27,4.14,1.98,2.93,
2.346,8.37,-15.79,1.27,4.20,2.02,2.69,
2.347,8.37,-15.79,1.27,4.30,2.09,2.21,
2.347,11.97,-7.09,-1.58,4.30,2.09,2.21,
2.348,11.97,-7.09,-1.58,4.38,2.13,1.74,
2.348,11.97,-7.09,-1.58,4.45,2.16,1.30,
2.348,11.97,-7.09,-1.58,4.52,2.21,0.68,
2.348,11.97,-7.09,-1.58,4.54,2.24,0.48,
2.349,11.97,-7.09,-1.58,4.58,2.31,0.11,
2.388,12.38,-0.69,-2.03,4.58,2.31,0.11,
2.389,12.38,-0.69,-2.03,4.61,2.39,-0.24,
2.389,12.38,-0.69,-2.03,4.63,2.48,-0.56,
2.389,12.38,-0.69,-2.03,4.64,2.64,-0.98,
2.389,12.38,-0.69,-2.03,4.64,2.69,-1.10,
2.39,12.38,-0.69,-2.03,4.63,2.80,-1.33,
2.39,9.53,3.05,-2.01,4.63,2.80,-1.33,
2.39,9.53,3.05,-2.01,4.61,2.91,-1.52,
2.391,9.53,3.05,-2.01,4.58,3.02,-1.68,
2.391,9.53,3.05,-2.01,4.52,3.17,-1.84,
2.391,9.53,3.05,-2.01,4.50,3.21,-1.88,
2.391,9.53,3.05,-2.01,4.44,3.30,-1.94,
2.391,4.02,4.23,-2.63,4.44,3.30,-1.94,
2.392,4.02,4.23,-2.63,4.38,3.37,-1.98,
2.392,4.02,4.23,-2.63,4.31,3.42,-1.99,
2.392,4.02,4.23,-2.63,4.19,3.46,-1.97,
2.393,4.02,4.23,-2.63,4.15,3.46,-1.95,
2.393,4.02,4.23,-2.63,4.06,3.45,-1.91,
2.393,-0.33,3.87,-3.74,4.06,3.45,-1.91,
2.393,-0.33,3.87,-3.74,3.97,3.41,-1.84,
2.394,-0.33,3.87,-3.74,3.87,3.34,-1.77,
2.394,-0.33,3.87,-3.74,3.71,3.18,-1.63,
2.394,-0.33,3.87,-3.74,3.66,3.11,-1.57,
2.394,-0.33,3.87,-3.74,3.55,2.96,-1.45,
2.394,-3.78,2.97,-4.09,3.55,2.96,-1.45,
2.395,-3.78,2.97,-4.09,3.45,2.78,-1.33,
2.395,-3.78,2.97,-4.09,3.35,2.58,-1.19,
2.395,-3.78,2.97,-4.09,3.22,2.27,-0.98,
2.396,-3.78,2.97,-4.09,3.18,2.16,-0.90,
2.396,-3.78,2.97,-4.09,3.11,1.94,-0.76,
2.406,-6.66,1.83,-2.91,3.11,1.94,-0.76,
2.407,-6.66,1.83,-2.91,3.05,1.72,-0.60,
2.407,-6.66,1.83,-2.91,2.99,1.49,-0.45,
2.407,-6.66,1.83,-2.91,2.92,1.17,-0.23,
2.408,-6.66,1.83,-2.91,2.90,1.06,-0.16,
2.408,-6.66,1.83,-2.91,2.87,0.86,-0.01,
2.408,-7.96,0.26,-1.01,2.87,0.86,-0.01,
2.409,-7.96,0.26,-1.01,2.85,0.68,0.12,
2.415,-7.96,0.26,-1.01,2.84,0.51,0.24,
2.416,-7.96,0.26,-1.01,2.83,0.28,0.40,
2.432,-7.96,0.26,-1.01,2.82,0.21,0.45,
2.432,-7.96,0.26,-1.01,2.83,0.10,0.52,
2.432,-7.51,-1.09,0.50,2.83,0.10,0.52,
2.432,-7.51,-1.09,0.50,2.84,0.00,0.58,
2.433,-7.51,-1.09,0.50,2.85,-0.07,0.63,
2.433,-7.51,-1.09,0.50,2.87,-0.14,0.66,
2.433,-7.51,-1.09,0.50,2.88,-0.16,0.66,
2.433,-7.51,-1.09,0.50,2.90,-0.18,0.66,
2.433,-5.65,-1.89,1.29,2.90,-0.18,0.66,
2.433,-5.65,-1.89,1.29,2.92,-0.20,0.65,
2.434,-5.65,-1.89,1.29,2.94,-0.22,0.63,
2.434,-5.65,-1.89,1.29,2.97,-0.24,0.58,
2.434,-5.65,-1.89,1.29,2.98,-0.24,0.56,
2.436,-5.65,-1.89,1.29,3.00,-0.26,0.51,
2.438,-4.24,-2.41,1.56,3.00,-0.26,0.51,
2.438,-4.24,-2.41,1.56,3.02,-0.28,0.47,
2.439,-4.24,-2.41,1.56,3.03,-0.30,0.43,
2.442,-4.24,-2.41,1.56,3.04,-0.35,0.35,
2.443,-4.24,-2.41,1.56,3.05,-0.37,0.32,
2.445,-4.24,-2.41,1.56,3.05,-0.41,0.27,
2.447,-3.52,-2.97,1.08,3.05,-0.41,0.27,
2.447,-3.52,-2.97,1.08,3.04,-0.46,0.22,
2.449,-3.52,-2.97,1.08,3.04,-0.51,0.16,
2.452,-3.52,-2.97,1.08,3.02,-0.59,0.07,
2.453,-3.52,-2.97,1.08,3.02,-0.61,0.04,
2.455,-3.52,-2.97,1.08,3.00,-0.67,-0.02,
2.458,-2.86,-3.29,0.44,3.00,-0.67,-0.02,
2.458,-2.86,-3.29,0.44,2.99,-0.72,-0.07,
2.459,-2.86,-3.29,0.44,2.96,-0.79,-0.13,
2.462,-2.86,-3.29,0.44,2.91,-0.89,-0.20,
2.463,-2.86,-3.29,0.44,2.90,-0.93,-0.22,
2.467,-2.86,-3.29,0.44,2.86,-1.00,-0.26,
2.467,-2.02,-3.32,-0.58,2.86,-1.00,-0.26,
2.468,-2.02,-3.32,-0.58,2.82,-1.06,-0.29,
2.471,-2.02,-3.32,-0.58,2.78,-1.11,-0.32,
2.48,-2.02,-3.32,-0.58,2.73,-1.18,-0.36,
2.48,-2.02,-3.32,-0.58,2.72,-1.19,-0.37,
2.481,-2.02,-3.32,-0.58,2.69,-1.22,-0.40,
2.481,-1.41,-3.15,-1.32,2.69,-1.22,-0.40,
2.481,-1.41,-3.15,-1.32,2.66,-1.23,-0.42,
2.481,-1.41,-3.15,-1.32,2.65,-1.23,-0.44,
2.489,-1.41,-3.15,-1.32,2.63,-1.24,-0.46,
2.489,-1.41,-3.15,-1.32,2.63,-1.24,-0.47,
2.489,-1.41,-3.15,-1.32,2.63,-1.24,-0.48,
2.489,-0.88,-2.82,-1.50,2.63,-1.24,-0.48,
2.489,-0.88,-2.82,-1.50,2.64,-1.24,-0.48,
2.489,-0.88,-2.82,-1.50,2.66,-1.24,-0.49,
2.507,-0.88,-2.82,-1.50,2.69,-1.23,-0.49,
2.507,-0.88,-2.82,-1.50,2.70,-1.22,-0.49,
2.507,-0.88,-2.82,-1.50,2.73,-1.21,-0.49,
2.507,-0.55,-2.44,-1.58,2.73,-1.21,-0.49,
2.508,-0.55,-2.44,-1.58,2.76,-1.19,-0.49,
2.508,-0.55,-2.44,-1.58,2.79,-1.16,-0.48,
2.508,-0.55,-2.44,-1.58,2.83,-1.12,-0.48,
2.508,-0.55,-2.44,-1.58,2.85,-1.10,-0.47,
2.508,-0.55,-2.44,-1.58,2.89,-1.06,-0.47,
2.508,-0.20,-2.10,-1.41,2.89,-1.06,-0.47,
2.508,-0.20,-2.10,-1.41,2.92,-1.02,-0.46,
2.509,-0.20,-2.10,-1.41,2.97,-0.98,-0.46,
2.512,-0.20,-2.10,-1.41,3.04,-0.91,-0.45,
2.513,-0.20,-2.10,-1.41,3.06,-0.89,-0.45,
2.515,-0.20,-2.10,-1.41,3.11,-0.83,-0.45,
2.517,0.08,-2.10,-0.98,3.11,-0.83,-0.45,
2.517,0.08,-2.10,-0.98,3.16,-0.77,-0.44,
2.519,0.08,-2.10,-0.98,3.20,-0.71,-0.44,
2.522,0.08,-2.10,-0.98,3.25,-0.63,-0.43,
2.523,0.08,-2.10,-0.98,3.26,-0.61,-0.43,
2.525,0.08,-2.10,-0.98,3.29,-0.56,-0.42,
2.527,0.18,-2.11,-0.84,3.29,-0.56,-0.42,
2.528,0.18,-2.11,-0.84,3.32,-0.51,-0.41,
2.529,0.18,-2.11,-0.84,3.35,-0.46,-0.40,
2.532,0.18,-2.11,-0.84,3.38,-0.39,-0.38,
2.533,0.18,-2.11,-0.84,3.39,-0.37,-0.38,
2.535,0.18,-2.11,-0.84,3.41,-0.34,-0.36,
2.555,0.19,-2.15,-0.87,3.41,-0.34,-0.36,
2.556,0.19,-2.15,-0.87,3.43,-0.31,-0.34,
2.557,0.19,-2.15,-0.87,3.44,-0.30,-0.32,
2.557,0.19,-2.15,-0.87,3.45,-0.29,-0.29,
2.558,0.19,-2.15,-0.87,3.45,-0.29,-0.29,
2.558,0.19,-2.15,-0.87,3.45,-0.30,-0.27,
2.559,0.27,-2.06,-1.30,3.45,-0.30,-0.27,
2.56,0.27,-2.06,-1.30,3.44,-0.31,-0.26,
2.56,0.27,-2.06,-1.30,3.43,-0.33,-0.24,
2.56,0.27,-2.06,-1.30,3.41,-0.35,-0.23,
2.561,0.27,-2.06,-1.30,3.40,-0.36,-0.23,
2.561,0.27,-2.06,-1.30,3.39,-0.37,-0.22,
2.561,0.59,-1.92,-2.12,3.39,-0.37,-0.22,
2.562,0.59,-1.92,-2.12,3.36,-0.38,-0.21,
2.562,0.59,-1.92,-2.12,3.34,-0.39,-0.21,
2.562,0.59,-1.92,-2.12,3.29,-0.40,-0.21,
2.564,0.59,-1.92,-2.12,3.28,-0.40,-0.21,
2.565,0.59,-1.92,-2.12,3.26,-0.40,-0.21,
2.568,0.76,-1.45,-2.71,3.26,-0.40,-0.21,
2.568,0.76,-1.45,-2.71,3.23,-0.39,-0.21,
2.569,0.76,-1.45,-2.71,3.21,-0.37,-0.21,
2.584,0.76,-1.45,-2.71,3.17,-0.34,-0.21,
2.585,0.76,-1.45,-2.71,3.16,-0.33,-0.21,
2.585,0.76,-1.45,-2.71,3.14,-0.30,-0.21,
2.586,0.79,-1.08,-3.05,3.14,-0.30,-0.21,
2.586,0.79,-1.08,-3.05,3.12,-0.26,-0.22,
2.611,0.79,-1.08,-3.05,3.10,-0.22,-0.22,
2.611,0.79,-1.08,-3.05,3.07,-0.15,-0.24,
2.612,0.79,-1.08,-3.05,3.07,-0.13,-0.24,
2.612,0.79,-1.08,-3.05,3.04,-0.08,-0.25,
2.612,1.17,-0.46,-3.06,3.04,-0.08,-0.25,
2.613,1.17,-0.46,-3.06,3.02,-0.04,-0.25,
2.613,1.17,-0.46,-3.06,3.00,0.00,-0.26,
2.613,1.17,-0.46,-3.06,2.97,0.06,-0.27,
2.613,1.17,-0.46,-3.06,2.96,0.08,-0.27,
2.614,1.17,-0.46,-3.06,2.94,0.11,-0.27,
2.614,1.48,0.14,-3.21,2.94,0.11,-0.27,
2.614,1.48,0.14,-3.21,2.92,0.13,-0.27,
2.615,1.48,0.14,-3.21,2.91,0.16,-0.28,
2.615,1.48,0.14,-3.21,2.89,0.20,-0.28,
2.615,1.48,0.14,-3.21,2.89,0.21,-0.28,
2.615,1.48,0.14,-3.21,2.87,0.23,-0.28,
2.616,1.57,0.80,-3.30,2.87,0.23,-0.28,
2.616,1.57,0.80,-3.30,2.86,0.26,-0.27,
2.616,1.57,0.80,-3.30,2.85,0.28,-0.27,
2.616,1.57,0.80,-3.30,2.83,0.32,-0.27,
2.616,1.57,0.80,-3.30,2.82,0.33,-0.26,
2.617,1.57,0.80,-3.30,2.80,0.34,-0.26,
2.624,1.71,1.55,-3.78,2.80,0.34,-0.26,
2.624,1.71,1.55,-3.78,2.78,0.36,-0.26,
2.625,1.71,1.55,-3.78,2.76,0.38,-0.25,
2.625,1.71,1.55,-3.78,2.72,0.39,-0.25,
2.625,1.71,1.55,-3.78,2.71,0.40,-0.25,
2.625,1.71,1.55,-3.78,2.68,0.41,-0.24,
2.63,1.74,2.34,-4.27,2.68,0.41,-0.24,
2.63,1.74,2.34,-4.27,2.65,0.42,-0.24,
2.63,1.74,2.34,-4.27,2.62,0.44,-0.23,
2.635,1.74,2.34,-4.27,2.57,0.47,-0.22,
2.635,1.74,2.34,-4.27,2.56,0.48,-0.21,
2.636,1.74,2.34,-4.27,2.52,0.49,-0.20,
2.638,1.69,2.97,-4.54,2.52,0.49,-0.20,
2.639,1.69,2.97,-4.54,2.48,0.51,-0.19,
2.64,1.69,2.97,-4.54,2.45,0.53,-0.18,
2.643,1.69,2.97,-4.54,2.39,0.55,-0.15,
2.643,1.69,2.97,-4.54,2.37,0.56,-0.14,
2.645,1.69,2.97,-4.54,2.33,0.57,-0.12,
2.648,1.74,3.48,-4.42,2.33,0.57,-0.12,
2.648,1.74,3.48,-4.42,2.29,0.56,-0.10,
2.649,1.74,3.48,-4.42,2.25,0.55,-0.08,
2.652,1.74,3.48,-4.42,2.19,0.53,-0.04,
2.654,1.74,3.48,-4.42,2.17,0.52,-0.03,
2.656,1.74,3.48,-4.42,2.12,0.50,-0.01,
2.659,1.73,3.72,-4.14,2.12,0.50,-0.01,
2.66,1.73,3.72,-4.14,2.06,0.47,0.02,
2.66,1.73,3.72,-4.14,2.04,0.45,0.03,
2.663,1.73,3.72,-4.14,1.97,0.42,0.06,
2.665,1.73,3.72,-4.14,1.95,0.40,0.06,
2.665,1.73,3.72,-4.14,1.91,0.38,0.08,
2.668,1.84,3.59,-3.86,1.91,0.38,0.08,
2.668,1.84,3.59,-3.86,1.87,0.37,0.09,
2.671,1.84,3.59,-3.86,1.83,0.36,0.10,
2.672,1.84,3.59,-3.86,1.77,0.35,0.10,
2.678,1.84,3.59,-3.86,1.75,0.35,0.10,
2.678,1.84,3.59,-3.86,1.72,0.36,0.11,
2.678,1.88,3.38,-3.28,1.72,0.36,0.11,
2.678,1.88,3.38,-3.28,1.68,0.37,0.11,
2.679,1.88,3.38,-3.28,1.64,0.39,0.10,
2.682,1.88,3.38,-3.28,1.59,0.43,0.09,
2.683,1.88,3.38,-3.28,1.57,0.44,0.09,
2.686,1.88,3.38,-3.28,1.54,0.48,0.07,
2.694,1.99,3.03,-2.66,1.54,0.48,0.07,
2.696,1.99,3.03,-2.66,1.51,0.51,0.06,
2.696,1.99,3.03,-2.66,1.47,0.56,0.05,
2.697,1.99,3.03,-2.66,1.42,0.62,0.03,
2.697,1.99,3.03,-2.66,1.41,0.65,0.03,
2.698,1.99,3.03,-2.66,1.37,0.70,0.01,
2.698,2.11,2.84,-1.69,1.37,0.70,0.01,
2.698,2.11,2.84,-1.69,1.34,0.74,-0.01,
2.701,2.11,2.84,-1.69,1.30,0.78,-0.02,
2.703,2.11,2.84,-1.69,1.25,0.82,-0.05,
2.733,2.11,2.84,-1.69,1.23,0.84,-0.06,
2.734,2.11,2.84,-1.69,1.19,0.86,-0.08,
2.734,2.43,2.57,-0.73,1.19,0.86,-0.08,
2.735,2.43,2.57,-0.73,1.15,0.88,-0.10,
2.735,2.43,2.57,-0.73,1.11,0.90,-0.12,
2.735,2.43,2.57,-0.73,1.05,0.92,-0.16,
2.735,2.43,2.57,-0.73,1.03,0.93,-0.17,
2.735,2.43,2.57,-0.73,0.98,0.94,-0.19,
2.735,2.54,2.42,0.30,0.98,0.94,-0.19,
2.736,2.54,2.42,0.30,0.93,0.94,-0.21,
2.736,2.54,2.42,0.30,0.89,0.95,-0.23,
2.736,2.54,2.42,0.30,0.80,0.96,-0.27,
2.736,2.54,2.42,0.30,0.77,0.97,-0.28,
2.736,2.54,2.42,0.30,0.70,0.98,-0.30,
2.736,2.82,2.65,0.95,0.70,0.98,-0.30,
2.736,2.82,2.65,0.95,0.63,0.99,-0.32,
2.736,2.82,2.65,0.95,0.55,1.00,-0.34,
2.737,2.82,2.65,0.95,0.43,1.02,-0.37,
2.737,2.82,2.65,0.95,0.39,1.02,-0.38,
2.737,2.82,2.65,0.95,0.29,1.04,-0.40,
2.744,3.29,3.72,1.39,0.29,1.04,-0.40,
2.744,3.29,3.72,1.39,0.20,1.04,-0.41,
2.744,3.29,3.72,1.39,0.10,1.04,-0.43,
2.745,3.29,3.72,1.39,-0.05,1.02,-0.44,
2.745,3.29,3.72,1.39,-0.10,1.01,-0.43,
2.745,3.29,3.72,1.39,-0.20,0.98,-0.42,
2.758,2.87,4.65,2.35,-0.20,0.98,-0.42,
2.758,2.87,4.65,2.35,-0.29,0.95,-0.39,
2.758,2.87,4.65,2.35,-0.37,0.90,-0.36,
2.758,2.87,4.65,2.35,-0.47,0.82,-0.31,
2.758,2.87,4.65,2.35,-0.50,0.78,-0.30,
2.759,2.87,4.65,2.35,-0.55,0.70,-0.26,
2.759,1.59,4.84,4.59,-0.55,0.70,-0.26,
2.759,1.59,4.84,4.59,-0.58,0.62,-0.23,
2.759,1.59,4.84,4.59,-0.60,0.53,-0.19,
2.762,1.59,4.84,4.59,-0.61,0.39,-0.13,
2.763,1.59,4.84,4.59,-0.61,0.34,-0.10,
2.765,1.59,4.84,4.59,-0.59,0.25,-0.06,
2.768,-0.77,4.32,7.03,-0.59,0.25,-0.06,
2.768,-0.77,4.32,7.03,-0.58,0.18,-0.02,
2.775,-0.77,4.32,7.03,-0.54,0.07,0.11,
2.775,-0.77,4.32,7.03,-0.54,0.07,0.11,
2.776,-0.77,4.32,7.03,-0.54,0.11,0.17,
2.778,-3.84,3.21,5.41,-0.54,0.11,0.17,
2.778,-3.84,3.21,5.41,-0.54,0.13,0.19,
2.779,-3.84,3.21,5.41,-0.54,0.13,0.19,
2.779,-3.84,3.21,5.41,-0.56,0.20,0.22,
2.782,-3.84,3.21,5.41,-0.60,0.36,0.26,
2.783,-3.84,3.21,5.41,-0.61,0.42,0.27,
2.785,-3.84,3.21,5.41,-0.65,0.56,0.29,
2.787,-6.42,1.60,1.77,-0.65,0.56,0.29,
2.788,-6.42,1.60,1.77,-0.70,0.72,0.31,
2.789,-6.42,1.60,1.77,-0.76,0.88,0.33,
2.792,-6.42,1.60,1.77,-0.86,1.13,0.34,
2.794,-6.42,1.60,1.77,-0.89,1.20,0.34,
2.795,-6.42,1.60,1.77,-0.95,1.34,0.34,
2.797,-7.11,-0.24,0.38,-0.95,1.34,0.34,
2.798,-7.11,-0.24,0.38,-1.02,1.44,0.32,
2.799,-7.11,-0.24,0.38,-1.07,1.49,0.31,
2.802,-7.11,-0.24,0.38,-1.14,1.44,0.27,
2.803,-7.11,-0.24,0.38,-1.16,1.39,0.25,
2.805,-7.11,-0.24,0.38,-1.19,1.23,0.20,
2.807,-5.21,-2.89,2.86,-1.19,1.23,0.20,
2.808,-5.21,-2.89,2.86,-1.21,1.03,0.15,
2.809,-5.21,-2.89,2.86,-1.25,0.80,0.08,
2.812,-5.21,-2.89,2.86,-1.35,0.43,-0.04,
2.814,-5.21,-2.89,2.86,-1.40,0.31,-0.07,
2.817,-5.21,-2.89,2.86,-1.51,0.08,-0.14,
2.817,-1.53,-6.43,-0.80,-1.51,0.08,-0.14,
2.818,-1.53,-6.43,-0.80,-1.66,-0.14,-0.21,
2.821,-1.53,-6.43,-0.80,-1.82,-0.35,-0.27,
2.824,-1.53,-6.43,-0.80,-2.10,-0.63,-0.36,
2.825,-1.53,-6.43,-0.80,-2.20,-0.72,-0.39,
2.825,-1.53,-6.43,-0.80,-2.39,-0.88,-0.44,
2.829,1.14,-7.35,-9.35,-2.39,-0.88,-0.44,
2.829,1.14,-7.35,-9.35,-2.56,-1.01,-0.49,
2.829,1.14,-7.35,-9.35,-2.73,-1.12,-0.53,
2.833,1.14,-7.35,-9.35,-2.94,-1.24,-0.59,
2.833,1.14,-7.35,-9.35,-3.00,-1.28,-0.61,
2.837,1.14,-7.35,-9.35,-3.09,-1.33,-0.66,
2.843,2.64,-6.01,-11.60,-3.09,-1.33,-0.66,
2.844,2.64,-6.01,-11.60,-3.14,-1.37,-0.70,
2.844,2.64,-6.01,-11.60,-3.17,-1.40,-0.75,
2.844,2.64,-6.01,-11.60,-3.17,-1.43,-0.84,
2.844,2.64,-6.01,-11.60,-3.16,-1.44,-0.86,
2.847,2.64,-6.01,-11.60,-3.12,-1.45,-0.92,
2.851,3.09,-3.68,-7.91,-3.12,-1.45,-0.92,
2.852,3.09,-3.68,-7.91,-3.06,-1.44,-0.97,
2.852,3.09,-3.68,-7.91,-2.99,-1.43,-1.01,
2.865,3.09,-3.68,-7.91,-2.87,-1.36,-1.07,
2.865,3.09,-3.68,-7.91,-2.83,-1.34,-1.08,
2.865,3.09,-3.68,-7.91,-2.74,-1.27,-1.11,
2.866,2.32,-2.93,-4.87,-2.74,-1.27,-1.11,
2.866,2.32,-2.93,-4.87,-2.66,-1.19,-1.12,
2.866,2.32,-2.93,-4.87,-2.58,-1.10,-1.13,
2.866,2.32,-2.93,-4.87,-2.46,-0.95,-1.11,
2.866,2.32,-2.93,-4.87,-2.42,-0.89,-1.11,
2.866,2.32,-2.93,-4.87,-2.35,-0.78,-1.09,
2.869,1.09,-3.28,-3.51,-2.35,-0.78,-1.09,
2.87,1.09,-3.28,-3.51,-2.29,-0.68,-1.06,
2.87,1.09,-3.28,-3.51,-2.23,-0.59,-1.03,
2.877,1.09,-3.28,-3.51,-2.14,-0.48,-0.97,
2.877,1.09,-3.28,-3.51,-2.12,-0.45,-0.95,
2.881,1.09,-3.28,-3.51,-2.07,-0.39,-0.90,
2.881,-0.55,-4.01,-2.55,-2.07,-0.39,-0.90,
2.882,-0.55,-4.01,-2.55,-2.04,-0.36,-0.84,
2.882,-0.55,-4.01,-2.55,-2.01,-0.33,-0.78,
2.884,-0.55,-4.01,-2.55,-1.98,-0.31,-0.68,
2.884,-0.55,-4.01,-2.55,-1.97,-0.31,-0.64,
2.887,-0.55,-4.01,-2.55,-1.96,-0.31,-0.57,
2.888,-2.18,-4.79,-2.02,-1.96,-0.31,-0.57,
2.889,-2.18,-4.79,-2.02,-1.96,-0.31,-0.49,
2.889,-2.18,-4.79,-2.02,-1.96,-0.31,-0.42,
2.892,-2.18,-4.79,-2.02,-1.97,-0.32,-0.29,
2.893,-2.18,-4.79,-2.02,-1.98,-0.33,-0.24,
2.895,-2.18,-4.79,-2.02,-2.00,-0.33,-0.16,
2.897,-3.65,-5.26,-2.25,-2.00,-0.33,-0.16,
2.897,-3.65,-5.26,-2.25,-2.03,-0.34,-0.07,
2.899,-3.65,-5.26,-2.25,-2.07,-0.35,0.01,
2.902,-3.65,-5.26,-2.25,-2.13,-0.37,0.13,
2.903,-3.65,-5.26,-2.25,-2.15,-0.37,0.17,
2.905,-3.65,-5.26,-2.25,-2.20,-0.39,0.24,
2.907,-4.02,-4.80,-2.96,-2.20,-0.39,0.24,
2.908,-4.02,-4.80,-2.96,-2.25,-0.39,0.31,
2.909,-4.02,-4.80,-2.96,-2.30,-0.41,0.36,
2.912,-4.02,-4.80,-2.96,-2.38,-0.42,0.43,
2.925,-4.02,-4.80,-2.96,-2.41,-0.42,0.45,
2.925,-4.02,-4.80,-2.96,-2.46,-0.44,0.48,
2.925,-3.44,-3.90,-3.48,-2.46,-0.44,0.48,
2.925,-3.44,-3.90,-3.48,-2.50,-0.44,0.51,
2.926,-3.44,-3.90,-3.48,-2.54,-0.45,0.52,
2.926,-3.44,-3.90,-3.48,-2.60,-0.46,0.53,
2.926,-3.44,-3.90,-3.48,-2.61,-0.46,0.53,
2.926,-3.44,-3.90,-3.48,-2.64,-0.47,0.52,
2.93,-2.35,-2.83,-3.04,-2.64,-0.47,0.52,
2.93,-2.35,-2.83,-3.04,-2.67,-0.47,0.50,
2.93,-2.35,-2.83,-3.04,-2.69,-0.49,0.48,
2.933,-2.35,-2.83,-3.04,-2.73,-0.51,0.44,
2.933,-2.35,-2.83,-3.04,-2.74,-0.52,0.43,
2.936,-2.35,-2.83,-3.04,-2.76,-0.54,0.39,
2.938,-1.22,-2.10,-2.59,-2.76,-0.54,0.39,
2.938,-1.22,-2.10,-2.59,-2.78,-0.56,0.35,
2.939,-1.22,-2.10,-2.59,-2.80,-0.58,0.31,
2.942,-1.22,-2.10,-2.59,-2.83,-0.61,0.25,
2.944,-1.22,-2.10,-2.59,-2.84,-0.62,0.23,
2.945,-1.22,-2.10,-2.59,-2.86,-0.64,0.19,
2.949,-0.27,-1.60,-2.28,-2.86,-0.64,0.19,
2.949,-0.27,-1.60,-2.28,-2.89,-0.66,0.14,
2.949,-0.27,-1.60,-2.28,-2.91,-0.68,0.10,
2.953,-0.27,-1.60,-2.28,-2.95,-0.71,0.04,
2.956,-0.27,-1.60,-2.28,-2.96,-0.72,0.01,
2.956,-0.27,-1.60,-2.28,-2.99,-0.74,-0.03,
2.959,0.51,-1.45,-2.24,-2.99,-0.74,-0.03,
2.959,0.51,-1.45,-2.24,-3.02,-0.75,-0.07,
2.959,0.51,-1.45,-2.24,-3.04,-0.77,-0.12,
2.963,0.51,-1.45,-2.24,-3.08,-0.79,-0.18,
2.965,0.51,-1.45,-2.24,-3.09,-0.79,-0.20,
2.965,0.51,-1.45,-2.24,-3.10,-0.80,-0.24,
2.969,1.15,-1.39,-1.76,-3.10,-0.80,-0.24,
2.969,1.15,-1.39,-1.76,-3.12,-0.82,-0.28,
2.969,1.15,-1.39,-1.76,-3.13,-0.83,-0.31,
2.973,1.15,-1.39,-1.76,-3.15,-0.85,-0.36,
2.973,1.15,-1.39,-1.76,-3.15,-0.86,-0.38,
2.977,1.15,-1.39,-1.76,-3.15,-0.87,-0.41,
2.98,1.58,-1.40,-0.96,-3.15,-0.87,-0.41,
2.98,1.58,-1.40,-0.96,-3.16,-0.88,-0.44,
2.98,1.58,-1.40,-0.96,-3.16,-0.88,-0.46,
2.983,1.58,-1.40,-0.96,-3.15,-0.88,-0.50,
2.983,1.58,-1.40,-0.96,-3.15,-0.88,-0.51,
2.993,1.58,-1.40,-0.96,-3.14,-0.87,-0.53,
2.993,1.88,-1.25,-0.11,-3.14,-0.87,-0.53,
2.994,1.88,-1.25,-0.11,-3.12,-0.86,-0.55,
2.994,1.88,-1.25,-0.11,-3.11,-0.85,-0.56,
2.994,1.88,-1.25,-0.11,-3.08,-0.83,-0.58,
2.994,1.88,-1.25,-0.11,-3.07,-0.83,-0.58,
2.995,1.88,-1.25,-0.11,-3.05,-0.81,-0.59,
2.999,1.99,-1.04,0.73,-3.05,-0.81,-0.59,
2.999,1.99,-1.04,0.73,-3.02,-0.79,-0.59,
3.0,1.99,-1.04,0.73,-2.99,-0.77,-0.59,
3.016,1.99,-1.04,0.73,-2.95,-0.74,-0.59,
3.016,1.99,-1.04,0.73,-2.94,-0.73,-0.58,
3.017,1.99,-1.04,0.73,-2.91,-0.71,-0.58,
3.017,1.83,-0.68,1.18,-2.91,-0.71,-0.58,
3.017,1.83,-0.68,1.18,-2.88,-0.67,-0.56,
3.017,1.83,-0.68,1.18,-2.87,-0.66,-0.55,
3.017,1.83,-0.68,1.18,-2.84,-0.62,-0.53,
3.017,1.83,-0.68,1.18,-2.83,-0.60,-0.52,
3.018,1.83,-0.68,1.18,-2.82,-0.58,-0.49,
3.018,1.53,-0.08,0.90,-2.82,-0.58,-0.49,
3.018,1.53,-0.08,0.90,-2.81,-0.54,-0.47,
3.026,1.53,-0.08,0.90,-2.81,-0.50,-0.45,
3.026,1.53,-0.08,0.90,-2.81,-0.44,-0.41,
3.026,1.53,-0.08,0.90,-2.81,-0.42,-0.39,
3.026,1.53,-0.08,0.90,-2.81,-0.39,-0.36,
3.027,1.19,0.64,0.14,-2.81,-0.39,-0.36,
3.028,1.19,0.64,0.14,-2.82,-0.35,-0.34,
3.029,1.19,0.64,0.14,-2.83,-0.32,-0.31,
3.032,1.19,0.64,0.14,-2.84,-0.27,-0.26,
3.033,1.19,0.64,0.14,-2.84,-0.25,-0.25,
3.035,1.19,0.64,0.14,-2.85,-0.22,-0.22,
3.038,1.01,1.20,-0.21,-2.85,-0.22,-0.22,
3.038,1.01,1.20,-0.21,-2.85,-0.19,-0.19,
3.039,1.01,1.20,-0.21,-2.86,-0.17,-0.16,
3.042,1.01,1.20,-0.21,-2.86,-0.14,-0.12,
3.043,1.01,1.20,-0.21,-2.86,-0.14,-0.11,
3.045,1.01,1.20,-0.21,-2.86,-0.12,-0.08,
3.047,0.84,1.69,-0.22,-2.86,-0.12,-0.08,
3.048,0.84,1.69,-0.22,-2.85,-0.11,-0.05,
3.049,0.84,1.69,-0.22,-2.85,-0.10,-0.03,
3.053,0.84,1.69,-0.22,-2.84,-0.10,0.01,
3.055,0.84,1.69,-0.22,-2.84,-0.10,0.03,
3.056,0.84,1.69,-0.22,-2.84,-0.11,0.05,
3.059,0.64,2.02,-0.23,-2.84,-0.11,0.05,
3.06,0.64,2.02,-0.23,-2.83,-0.13,0.08,
3.06,0.64,2.02,-0.23,-2.83,-0.14,0.10,
3.062,0.64,2.02,-0.23,-2.81,-0.17,0.14,
3.063,0.64,2.02,-0.23,-2.81,-0.18,0.15,
3.065,0.64,2.02,-0.23,-2.80,-0.19,0.18,
3.069,0.33,2.14,-0.26,-2.80,-0.19,0.18,
3.07,0.33,2.14,-0.26,-2.79,-0.21,0.20,
3.071,0.33,2.14,-0.26,-2.77,-0.22,0.22,
3.073,0.33,2.14,-0.26,-2.74,-0.23,0.26,
3.074,0.33,2.14,-0.26,-2.73,-0.23,0.27,
3.075,0.33,2.14,-0.26,-2.70,-0.24,0.29,
3.077,-0.10,2.17,0.02,-2.70,-0.24,0.29,
3.078,-0.10,2.17,0.02,-2.67,-0.24,0.31,
3.1,-0.10,2.17,0.02,-2.63,-0.24,0.34,
3.1,-0.10,2.17,0.02,-2.57,-0.23,0.38,
3.101,-0.10,2.17,0.02,-2.55,-0.23,0.39,
3.101,-0.10,2.17,0.02,-2.51,-0.22,0.41,
3.101,-0.51,2.15,0.46,-2.51,-0.22,0.41,
3.101,-0.51,2.15,0.46,-2.47,-0.22,0.44,
3.102,-0.51,2.15,0.46,-2.42,-0.21,0.46,
3.102,-0.51,2.15,0.46,-2.35,-0.20,0.50,
3.102,-0.51,2.15,0.46,-2.33,-0.20,0.52,
3.102,-0.51,2.15,0.46,-2.29,-0.19,0.54,
3.103,-0.80,2.09,0.68,-2.29,-0.19,0.54,
3.103,-0.80,2.09,0.68,-2.25,-0.17,0.57,
3.103,-0.80,2.09,0.68,-2.20,-0.15,0.60,
3.103,-0.80,2.09,0.68,-2.14,-0.11,0.64,
3.107,-0.80,2.09,0.68,-2.11,-0.09,0.65,
3.108,-0.80,2.09,0.68,-2.07,-0.05,0.67,
3.108,-0.82,1.82,0.88,-2.07,-0.05,0.67,
3.108,-0.82,1.82,0.88,-2.02,0.00,0.69,
3.109,-0.82,1.82,0.88,-1.97,0.05,0.71,
3.113,-0.82,1.82,0.88,-1.87,0.13,0.74,
3.113,-0.82,1.82,0.88,-1.84,0.17,0.75,
3.115,-0.82,1.82,0.88,-1.78,0.23,0.77,
3.119,-0.91,1.32,1.51,-1.78,0.23,0.77,
3.12,-0.91,1.32,1.51,-1.72,0.31,0.78,
3.12,-0.91,1.32,1.51,-1.64,0.40,0.78,
3.124,-0.91,1.32,1.51,-1.52,0.57,0.76,
3.125,-0.91,1.32,1.51,-1.48,0.64,0.75,
3.125,-0.91,1.32,1.51,-1.39,0.78,0.72,
3.13,-0.06,0.11,1.94,-1.39,0.78,0.72,
3.13,-0.06,0.11,1.94,-1.30,0.92,0.69,
3.13,-0.06,0.11,1.94,-1.22,1.05,0.66,
3.134,-0.06,0.11,1.94,-1.10,1.21,0.60,
3.134,-0.06,0.11,1.94,-1.06,1.25,0.57,
3.145,-0.06,0.11,1.94,-0.98,1.32,0.53,
3.145,0.78,-1.68,2.71,-0.98,1.32,0.53,
3.145,0.78,-1.68,2.71,-0.91,1.38,0.48,
3.146,0.78,-1.68,2.71,-0.84,1.42,0.44,
3.146,0.78,-1.68,2.71,-0.72,1.45,0.38,
3.146,0.78,-1.68,2.71,-0.68,1.46,0.36,
3.146,0.78,-1.68,2.71,-0.59,1.48,0.32,
3.15,0.88,-2.83,4.18,-0.59,1.48,0.32,
3.15,0.88,-2.83,4.18,-0.50,1.50,0.29,
3.15,0.88,-2.83,4.18,-0.41,1.51,0.25,
3.188,0.88,-2.83,4.18,-0.26,1.54,0.20,
3.188,0.88,-2.83,4.18,-0.21,1.55,0.18,
3.188,0.88,-2.83,4.18,-0.12,1.57,0.14,
3.189,0.94,-3.61,5.35,-0.12,1.57,0.14,
3.189,0.94,-3.61,5.35,-0.03,1.62,0.11,
3.189,0.94,-3.61,5.35,0.06,1.67,0.07,
3.189,0.94,-3.61,5.35,0.19,1.78,0.01,
3.189,0.94,-3.61,5.35,0.23,1.83,-0.02,
3.19,0.94,-3.61,5.35,0.30,1.92,-0.07,
3.19,1.46,-3.28,5.08,0.30,1.92,-0.07,
3.19,1.46,-3.28,5.08,0.36,2.00,-0.11,
3.19,1.46,-3.28,5.08,0.41,2.07,-0.16,
3.191,1.46,-3.28,5.08,0.47,2.14,-0.22,
3.191,1.46,-3.28,5.08,0.48,2.15,-0.24,
3.191,1.46,-3.28,5.08,0.49,2.15,-0.29,
3.191,2.15,-2.42,3.54,0.49,2.15,-0.29,
3.191,2.15,-2.42,3.54,0.47,2.10,-0.32,
3.192,2.15,-2.42,3.54,0.44,2.03,-0.36,
3.192,2.15,-2.42,3.54,0.36,1.86,-0.39,
3.192,2.15,-2.42,3.54,0.32,1.79,-0.41,
3.192,2.15,-2.42,3.54,0.24,1.64,-0.44,
3.192,2.45,-1.10,1.66,0.24,1.64,-0.44,
3.192,2.45,-1.10,1.66,0.15,1.46,-0.46,
3.193,2.45,-1.10,1.66,0.05,1.29,-0.49,
3.193,2.45,-1.10,1.66,-0.10,1.00,-0.52,
3.195,2.45,-1.10,1.66,-0.16,0.90,-0.53,
3.196,2.45,-1.10,1.66,-0.27,0.71,-0.55,
3.202,2.52,0.77,1.59,-0.27,0.71,-0.55,
3.203,2.52,0.77,1.59,-0.38,0.52,-0.57,
3.203,2.52,0.77,1.59,-0.49,0.35,-0.58,
3.205,2.52,0.77,1.59,-0.64,0.13,-0.58,
3.206,2.52,0.77,1.59,-0.68,0.07,-0.58,
3.208,2.52,0.77,1.59,-0.75,-0.04,-0.57,
3.208,1.43,1.99,2.71,-0.75,-0.04,-0.57,
3.209,1.43,1.99,2.71,-0.82,-0.13,-0.56,
3.21,1.43,1.99,2.71,-0.87,-0.20,-0.53,
3.214,1.43,1.99,2.71,-0.92,-0.29,-0.47,
3.214,1.43,1.99,2.71,-0.94,-0.32,-0.45,
3.216,1.43,1.99,2.71,-0.96,-0.36,-0.40,
3.223,-0.61,2.80,4.12,-0.96,-0.36,-0.40,
3.223,-0.61,2.80,4.12,-0.97,-0.40,-0.34,
3.224,-0.61,2.80,4.12,-0.98,-0.45,-0.28,
3.225,-0.61,2.80,4.12,-0.96,-0.52,-0.17,
3.225,-0.61,2.80,4.12,-0.95,-0.54,-0.14,
3.231,-0.61,2.80,4.12,-0.93,-0.59,-0.07,
3.231,-1.80,3.39,4.79,-0.93,-0.59,-0.07,
3.232,-1.80,3.39,4.79,-0.91,-0.64,-0.01,
3.232,-1.80,3.39,4.79,-0.88,-0.70,0.05,
3.241,-1.80,3.39,4.79,-0.84,-0.77,0.14,
3.241,-1.80,3.39,4.79,-0.83,-0.80,0.16,
3.242,-1.80,3.39,4.79,-0.80,-0.85,0.21,
3.242,-1.52,3.48,4.28,-0.80,-0.85,0.21,
3.242,-1.52,3.48,4.28,-0.78,-0.91,0.26,
3.242,-1.52,3.48,4.28,-0.75,-0.96,0.31,
3.242,-1.52,3.48,4.28,-0.73,-1.04,0.37,
3.247,-1.52,3.48,4.28,-0.72,-1.07,0.39,
3.248,-1.52,3.48,4.28,-0.72,-1.12,0.43,
3.267,-0.87,3.00,2.56,-0.72,-1.12,0.43,
3.267,-0.87,3.00,2.56,-0.72,-1.18,0.46,
3.267,-0.87,3.00,2.56,-0.73,-1.22,0.48,
3.267,-0.87,3.00,2.56,-0.77,-1.29,0.51,
3.268,-0.87,3.00,2.56,-0.79,-1.31,0.51,
3.268,-0.87,3.00,2.56,-0.85,-1.35,0.52,
3.268,-0.08,2.42,0.29,-0.85,-1.35,0.52,
3.268,-0.08,2.42,0.29,-0.87,-1.37,0.52,
3.268,-0.08,2.42,0.29,-0.92,-1.39,0.52,
3.269,-0.08,2.42,0.29,-1.01,-1.40,0.51,
3.269,-0.08,2.42,0.29,-1.05,-1.41,0.51,
3.269,-0.08,2.42,0.29,-1.12,-1.41,0.50,
3.274,0.47,1.89,-1.82,-1.12,-1.41,0.50,
3.275,0.47,1.89,-1.82,-1.20,-1.41,0.48,
3.275,0.47,1.89,-1.82,-1.29,-1.41,0.46,
3.275,0.47,1.89,-1.82,-1.43,-1.41,0.42,
3.275,0.47,1.89,-1.82,-1.48,-1.41,0.41,
3.276,0.47,1.89,-1.82,-1.58,-1.42,0.38,
3.278,1.11,1.31,-4.11,-1.58,-1.42,0.38,
3.278,1.11,1.31,-4.11,-1.69,-1.43,0.35,
3.279,1.11,1.31,-4.11,-1.80,-1.44,0.31,
3.282,1.11,1.31,-4.11,-1.95,-1.44,0.26,
3.283,1.11,1.31,-4.11,-2.00,-1.44,0.25,
3.286,1.11,1.31,-4.11,-2.11,-1.44,0.22,
3.288,1.41,0.81,-5.34,-2.11,-1.44,0.22,
3.288,1.41,0.81,-5.34,-2.20,-1.43,0.18,
3.29,1.41,0.81,-5.34,-2.30,-1.41,0.15,
3.292,1.41,0.81,-5.34,-2.42,-1.36,0.11,
3.293,1.41,0.81,-5.34,-2.51,-1.31,0.08,
3.295,1.41,0.81,-5.34,-2.54,-1.28,0.07,
3.298,1.38,0.49,-5.60,-2.54,-1.28,0.07,
3.298,1.38,0.49,-5.60,-2.61,-1.21,0.06,
3.299,1.38,0.49,-5.60,-2.67,-1.13,0.04,
3.302,1.38,0.49,-5.60,-2.75,-0.98,0.04,
3.303,1.38,0.49,-5.60,-2.77,-0.92,0.04,
3.305,1.38,0.49,-5.60,-2.80,-0.80,0.05,
3.307,0.58,0.34,-4.89,-2.80,-0.80,0.05,
3.308,0.58,0.34,-4.89,-2.82,-0.68,0.07,
3.309,0.58,0.34,-4.89,-2.83,-0.54,0.08,
3.312,0.58,0.34,-4.89,-2.82,-0.33,0.12,
3.313,0.58,0.34,-4.89,-2.81,-0.27,0.13,
3.315,0.58,0.34,-4.89,-2.78,-0.13,0.17,
3.318,-0.31,-0.15,-3.68,-2.78,-0.13,0.17,
3.318,-0.31,-0.15,-3.68,-2.73,0.00,0.20,
3.32,-0.31,-0.15,-3.68,-2.66,0.12,0.25,
3.322,-0.31,-0.15,-3.68,-2.54,0.27,0.30,
3.323,-0.31,-0.15,-3.68,-2.50,0.31,0.33,
3.325,-0.31,-0.15,-3.68,-2.41,0.38,0.37,
3.327,-0.83,-1.34,-2.57,-2.41,0.38,0.37,
3.327,-0.83,-1.34,-2.57,-2.30,0.44,0.42,
3.329,-0.83,-1.34,-2.57,-2.18,0.48,0.46,
3.332,-0.83,-1.34,-2.57,-2.00,0.54,0.52,
3.334,-0.83,-1.34,-2.57,-1.87,0.57,0.56,
3.335,-0.83,-1.34,-2.57,-1.80,0.58,0.58,
3.339,-1.14,-3.49,-1.90,-1.80,0.58,0.58,
3.339,-1.14,-3.49,-1.90,-1.67,0.61,0.62,
3.34,-1.14,-3.49,-1.90,-1.47,0.65,0.67,
3.342,-1.14,-3.49,-1.90,-1.33,0.69,0.71,
3.343,-1.14,-3.49,-1.90,-1.27,0.71,0.73,
3.345,-1.14,-3.49,-1.90,-1.15,0.75,0.77,
3.347,-2.01,-5.88,-1.64,-1.15,0.75,0.77,
3.348,-2.01,-5.88,-1.64,-1.03,0.81,0.81,
3.349,-2.01,-5.88,-1.64,-0.93,0.87,0.85,
3.354,-2.01,-5.88,-1.64,-0.80,0.99,0.91,
3.354,-2.01,-5.88,-1.64,-0.77,1.04,0.92,
3.355,-2.01,-5.88,-1.64,-0.71,1.15,0.96,
3.361,-3.25,-7.89,-2.27,-0.71,1.15,0.96,
3.361,-3.25,-7.89,-2.27,-0.65,1.34,1.00,
3.364,-3.25,-7.89,-2.27,-0.64,1.41,1.01,
3.366,-3.25,-7.89,-2.27,-0.65,1.63,1.03,
3.366,-3.25,-7.89,-2.27,-0.68,1.80,1.05,
3.366,-3.25,-7.89,-2.27,-0.72,1.97,1.06,
3.379,-4.12,-9.01,-3.35,-0.72,1.97,1.06,
3.38,-4.12,-9.01,-3.35,-0.75,2.07,1.06,
3.38,-4.12,-9.01,-3.35,-0.85,2.35,1.07,
3.382,-4.12,-9.01,-3.35,-0.97,2.64,1.07,
3.382,-4.12,-9.01,-3.35,-1.02,2.74,1.08,
3.382,-4.12,-9.01,-3.35,-1.06,2.83,1.07,
3.382,-5.16,-9.36,-3.40,-1.06,2.83,1.07,
3.382,-5.16,-9.36,-3.40,-1.15,3.02,1.07,
3.383,-5.16,-9.36,-3.40,-1.23,3.20,1.07,
3.383,-5.16,-9.36,-3.40,-1.32,3.46,1.06,
3.383,-5.16,-9.36,-3.40,-1.35,3.54,1.05,
3.391,-5.16,-9.36,-3.40,-1.39,3.69,1.03,
3.391,-5.75,-9.41,-0.30,-1.39,3.69,1.03,
3.392,-5.75,-9.41,-0.30,-1.41,3.81,1.01,
3.392,-5.75,-9.41,-0.30,-1.40,3.97,0.96,
3.396,-5.75,-9.41,-0.30,-1.36,4.04,0.92,
3.396,-5.75,-9.41,-0.30,-1.31,4.08,0.87,
3.397,-5.75,-9.41,-0.30,-1.28,4.09,0.85,
3.399,-5.45,-9.78,5.22,-1.28,4.09,0.85,
3.399,-5.45,-9.78,5.22,-1.19,4.08,0.80,
3.412,-5.45,-9.78,5.22,-1.08,4.03,0.74,
3.412,-5.45,-9.78,5.22,-0.91,3.90,0.66,
3.412,-5.45,-9.78,5.22,-0.84,3.83,0.64,
3.412,-5.45,-9.78,5.22,-0.72,3.68,0.58,
3.413,-4.91,-10.23,9.63,-0.72,3.68,0.58,
3.413,-4.91,-10.23,9.63,-0.60,3.48,0.54,
3.413,-4.91,-10.23,9.63,-0.43,3.12,0.47,
3.413,-4.91,-10.23,9.63,-0.34,2.83,0.43,
3.432,-4.91,-10.23,9.63,-0.30,2.69,0.41,
3.432,-4.91,-10.23,9.63,-0.25,2.38,0.38,
3.433,-4.00,-9.02,9.94,-0.25,2.38,0.38,
3.433,-4.00,-9.02,9.94,-0.22,2.07,0.37,
3.433,-4.00,-9.02,9.94,-0.23,1.75,0.36,
3.434,-4.00,-9.02,9.94,-0.32,1.12,0.36,
3.434,-4.00,-9.02,9.94,-0.36,0.97,0.37,
3.434,-4.00,-9.02,9.94,-0.40,0.82,0.38,
3.434,-2.91,-7.36,6.19,-0.40,0.82,0.38,
3.435,-2.91,-7.36,6.19,-0.50,0.51,0.39,
3.435,-2.91,-7.36,6.19,-0.61,0.22,0.41,
3.435,-2.91,-7.36,6.19,-0.78,-0.19,0.44,
3.436,-2.91,-7.36,6.19,-0.84,-0.32,0.45,
3.436,-2.91,-7.36,6.19,-0.95,-0.56,0.47,
3.442,-1.59,-6.14,3.71,-0.95,-0.56,0.47,
3.443,-1.59,-6.14,3.71,-1.05,-0.77,0.48,
3.443,-1.59,-6.14,3.71,-1.18,-1.06,0.50,
3.443,-1.59,-6.14,3.71,-1.25,-1.22,0.51,
3.444,-1.59,-6.14,3.71,-1.29,-1.29,0.51,
3.445,-1.59,-6.14,3.71,-1.34,-1.42,0.50,
3.447,-0.51,-4.50,3.13,-1.34,-1.42,0.50,
3.448,-0.51,-4.50,3.13,-1.38,-1.54,0.50,
3.45,-0.51,-4.50,3.13,-1.41,-1.64,0.48,
3.453,-0.51,-4.50,3.13,-1.43,-1.77,0.45,
3.453,-0.51,-4.50,3.13,-1.43,-1.81,0.44,
3.456,-0.51,-4.50,3.13,-1.42,-1.88,0.41,
3.458,0.26,-2.56,3.24,-1.42,-1.88,0.41,
3.458,0.26,-2.56,3.24,-1.40,-1.93,0.39,
3.459,0.26,-2.56,3.24,-1.37,-1.97,0.36,
3.462,0.26,-2.56,3.24,-1.30,-2.00,0.32,
3.463,0.26,-2.56,3.24,-1.24,-2.01,0.29,
3.465,0.26,-2.56,3.24,-1.21,-2.01,0.27,
3.468,0.62,-1.35,3.33,-1.21,-2.01,0.27,
3.468,0.62,-1.35,3.33,-1.15,-2.00,0.25,
3.469,0.62,-1.35,3.33,-1.07,-1.98,0.22,
3.473,0.62,-1.35,3.33,-0.95,-1.92,0.18,
3.473,0.62,-1.35,3.33,-0.86,-1.87,0.16,
3.476,0.62,-1.35,3.33,-0.82,-1.83,0.15,
3.477,0.67,-0.99,3.65,-0.82,-1.83,0.15,
3.478,0.67,-0.99,3.65,-0.67,-1.72,0.12,
3.483,0.67,-0.99,3.65,-0.57,-1.62,0.10,
3.483,0.67,-0.99,3.65,-0.46,-1.50,0.08,
3.483,0.67,-0.99,3.65,-0.34,-1.37,0.07,
3.489,0.67,-0.99,3.65,-0.28,-1.30,0.07,
3.489,0.32,-0.58,4.28,-0.28,-1.30,0.07,
3.489,0.32,-0.58,4.28,-0.10,-1.07,0.06,
3.49,0.32,-0.58,4.28,0.04,-0.90,0.05,
3.493,0.32,-0.58,4.28,0.18,-0.71,0.04,
3.493,0.32,-0.58,4.28,0.32,-0.51,0.04,
3.495,0.32,-0.58,4.28,0.40,-0.40,0.03,
3.499,0.47,-0.54,5.99,0.40,-0.40,0.03,
3.499,0.47,-0.54,5.99,0.63,-0.05,0.02,
3.499,0.47,-0.54,5.99,0.79,0.22,0.01,
3.513,0.47,-0.54,5.99,0.95,0.51,-0.01,
3.513,0.47,-0.54,5.99,1.12,0.83,-0.03,
3.513,0.47,-0.54,5.99,1.21,0.99,-0.05,
3.513,1.53,-0.97,8.43,1.21,0.99,-0.05,
3.513,1.53,-0.97,8.43,1.48,1.49,-0.09,
3.514,1.53,-0.97,8.43,1.68,1.81,-0.13,
3.514,1.53,-0.97,8.43,1.88,2.11,-0.17,
3.514,1.53,-0.97,8.43,2.10,2.40,-0.22,
3.515,1.53,-0.97,8.43,2.21,2.53,-0.25,
3.522,3.82,-2.00,12.73,2.21,2.53,-0.25,
3.523,3.82,-2.00,12.73,2.56,2.86,-0.35,
3.523,3.82,-2.00,12.73,2.81,3.03,-0.41,
3.523,3.82,-2.00,12.73,3.05,3.16,-0.49,
3.523,3.82,-2.00,12.73,3.29,3.24,-0.56,
3.525,3.82,-2.00,12.73,3.52,3.28,-0.63,
3.527,5.74,-3.36,15.55,3.52,3.28,-0.63,
3.528,5.74,-3.36,15.55,3.73,3.29,-0.70,
3.529,5.74,-3.36,15.55,3.93,3.24,-0.76,
3.532,5.74,-3.36,15.55,4.13,3.15,-0.82,
3.533,5.74,-3.36,15.55,4.31,3.02,-0.88,
3.535,5.74,-3.36,15.55,4.47,2.85,-0.92,
3.542,6.02,-4.52,14.82,4.47,2.85,-0.92,
3.542,6.02,-4.52,14.82,4.62,2.63,-0.96,
3.543,6.02,-4.52,14.82,4.76,2.37,-1.00,
3.543,6.02,-4.52,14.82,4.87,2.07,-1.02,
3.543,6.02,-4.52,14.82,4.97,1.75,-1.04,
3.545,6.02,-4.52,14.82,5.04,1.40,-1.05,
3.547,4.68,-5.05,11.19,5.04,1.40,-1.05,
3.548,4.68,-5.05,11.19,5.09,1.04,-1.06,
3.55,4.68,-5.05,11.19,5.10,0.66,-1.05,
3.552,4.68,-5.05,11.19,5.10,0.28,-1.04,
3.553,4.68,-5.05,11.19,5.06,-0.11,-1.02,
3.555,4.68,-5.05,11.19,5.00,-0.49,-0.99,
3.557,2.64,-4.84,5.34,5.00,-0.49,-0.99,
3.558,2.64,-4.84,5.34,4.91,-0.87,-0.95,
3.559,2.64,-4.84,5.34,4.80,-1.23,-0.91,
3.562,2.64,-4.84,5.34,4.67,-1.58,-0.86,
3.563,2.64,-4.84,5.34,4.51,-1.93,-0.80,
3.565,2.64,-4.84,5.34,4.34,-2.26,-0.74,
3.567,0.21,-4.06,-0.52,4.34,-2.26,-0.74,
3.568,0.21,-4.06,-0.52,4.16,-2.58,-0.67,
3.57,0.21,-4.06,-0.52,3.96,-2.88,-0.59,
3.572,0.21,-4.06,-0.52,3.66,-3.31,-0.47,
3.573,0.21,-4.06,-0.52,3.55,-3.45,-0.42,
3.575,0.21,-4.06,-0.52,3.33,-3.72,-0.33,
3.578,-2.22,-3.39,-5.13,3.33,-3.72,-0.33,
3.578,-2.22,-3.39,-5.13,3.10,-3.97,-0.24,
3.6,-2.22,-3.39,-5.13,2.87,-4.22,-0.16,
3.6,-2.22,-3.39,-5.13,2.64,-4.44,-0.08,
3.6,-2.22,-3.39,-5.13,2.41,-4.64,-0.01,
3.6,-2.22,-3.39,-5.13,2.19,-4.81,0.05,
3.6,-3.19,-3.18,-8.11,2.19,-4.81,0.05,
3.601,-3.19,-3.18,-8.11,1.98,-4.96,0.10,
3.601,-3.19,-3.18,-8.11,1.77,-5.07,0.14,
3.601,-3.19,-3.18,-8.11,1.58,-5.16,0.18,
3.601,-3.19,-3.18,-8.11,1.39,-5.21,0.20,
3.601,-3.19,-3.18,-8.11,1.23,-5.24,0.23,
3.601,-3.51,-2.82,-9.43,1.23,-5.24,0.23,
3.601,-3.51,-2.82,-9.43,1.08,-5.23,0.24,
3.601,-3.51,-2.82,-9.43,0.94,-5.20,0.24,
3.604,-3.51,-2.82,-9.43,0.82,-5.13,0.23,
3.604,-3.51,-2.82,-9.43,0.71,-5.04,0.22,
3.605,-3.51,-2.82,-9.43,0.62,-4.92,0.20,
3.607,-3.64,-2.30,-8.69,0.62,-4.92,0.20,
3.607,-3.64,-2.30,-8.69,0.54,-4.79,0.17,
3.609,-3.64,-2.30,-8.69,0.48,-4.65,0.13,
3.614,-3.64,-2.30,-8.69,0.43,-4.50,0.09,
3.614,-3.64,-2.30,-8.69,0.39,-4.34,0.04,
3.615,-3.64,-2.30,-8.69,0.36,-4.17,-0.02,
3.618,-3.76,-2.62,-7.78,0.36,-4.17,-0.02,
3.619,-3.76,-2.62,-7.78,0.33,-4.00,-0.07,
3.619,-3.76,-2.62,-7.78,0.32,-3.80,-0.13,
3.622,-3.76,-2.62,-7.78,0.30,-3.47,-0.22,
3.623,-3.76,-2.62,-7.78,0.30,-3.36,-0.25,
3.625,-3.76,-2.62,-7.78,0.30,-3.12,-0.31,
3.627,-4.47,-3.21,-6.90,0.30,-3.12,-0.31,
3.628,-4.47,-3.21,-6.90,0.31,-2.86,-0.38,
3.629,-4.47,-3.21,-6.90,0.33,-2.60,-0.45,
3.642,-4.47,-3.21,-6.90,0.36,-2.33,-0.52,
3.643,-4.47,-3.21,-6.90,0.40,-2.06,-0.59,
3.643,-4.47,-3.21,-6.90,0.46,-1.77,-0.66,
3.643,-5.78,-3.65,-6.26,0.46,-1.77,-0.66,
3.643,-5.78,-3.65,-6.26,0.53,-1.46,-0.73,
3.643,-5.78,-3.65,-6.26,0.60,-1.16,-0.80,
3.644,-5.78,-3.65,-6.26,0.68,-0.86,-0.86,
3.644,-5.78,-3.65,-6.26,0.75,-0.58,-0.90,
3.645,-5.78,-3.65,-6.26,0.83,-0.31,-0.94,
3.648,-7.77,-3.63,-6.65,0.83,-0.31,-0.94,
3.648,-7.77,-3.63,-6.65,0.90,-0.06,-0.97,
3.677,-7.77,-3.63,-6.65,0.96,0.15,-0.98,
3.677,-7.77,-3.63,-6.65,1.03,0.33,-0.98,
3.678,-7.77,-3.63,-6.65,1.08,0.47,-0.97,
3.678,-7.77,-3.63,-6.65,1.13,0.59,-0.96,
3.678,-9.57,-3.41,-7.79,1.13,0.59,-0.96,
3.678,-9.57,-3.41,-7.79,1.17,0.69,-0.94,
3.679,-9.57,-3.41,-7.79,1.20,0.76,-0.92,
3.679,-9.57,-3.41,-7.79,1.22,0.79,-0.89,
3.679,-9.57,-3.41,-7.79,1.23,0.78,-0.85,
3.679,-9.57,-3.41,-7.79,1.23,0.75,-0.82,
3.679,-9.96,-3.19,-8.85,1.23,0.75,-0.82,
3.68,-9.96,-3.19,-8.85,1.22,0.69,-0.78,
3.68,-9.96,-3.19,-8.85,1.19,0.59,-0.75,
3.68,-9.96,-3.19,-8.85,1.12,0.38,-0.71,
3.68,-9.96,-3.19,-8.85,1.09,0.31,-0.70,
3.68,-9.96,-3.19,-8.85,1.03,0.15,-0.68,
3.68,-9.17,-2.72,-10.92,1.03,0.15,-0.68,
3.681,-9.17,-2.72,-10.92,0.96,-0.01,-0.67,
3.681,-9.17,-2.72,-10.92,0.90,-0.15,-0.67,
3.684,-9.17,-2.72,-10.92,0.84,-0.25,-0.67,
3.686,-9.17,-2.72,-10.92,0.80,-0.32,-0.68,
3.687,-9.17,-2.72,-10.92,0.75,-0.35,-0.69,
3.688,-7.30,-1.93,-10.89,0.75,-0.35,-0.69,
3.688,-7.30,-1.93,-10.89,0.73,-0.33,-0.70,
3.689,-7.30,-1.93,-10.89,0.71,-0.28,-0.72,
3.692,-7.30,-1.93,-10.89,0.74,-0.25,-0.76,
3.693,-7.30,-1.93,-10.89,0.93,-0.40,-0.83,
3.695,-7.30,-1.93,-10.89,1.42,-0.91,-1.01,
3.698,-1.73,-2.99,3.74,1.42,-0.91,-1.01,
3.698,-1.73,-2.99,3.74,2.13,-1.69,-1.29,
3.7,-1.73,-2.99,3.74,2.93,-2.59,-1.60,
3.702,-1.73,-2.99,3.74,4.14,-3.95,-2.05,
3.703,-1.73,-2.99,3.74,4.51,-4.37,-2.18,
3.706,-1.73,-2.99,3.74,5.18,-5.11,-2.42,
3.708,3.42,-8.87,22.93,5.18,-5.11,-2.42,
3.708,3.42,-8.87,22.93,5.74,-5.70,-2.62,
3.709,3.42,-8.87,22.93,6.22,-6.12,-2.79,
3.712,3.42,-8.87,22.93,6.63,-6.17,-2.91,
3.713,3.42,-8.87,22.93,6.96,-5.74,-2.97,
3.715,3.42,-8.87,22.93,7.14,-5.04,-2.97,
3.718,-2.06,-10.94,15.25,7.14,-5.04,-2.97,
3.72,-2.06,-10.94,15.25,7.20,-4.17,-2.92,
3.721,-2.06,-10.94,15.25,7.14,-3.16,-2.82,
3.723,-2.06,-10.94,15.25,6.88,-1.51,-2.63,
3.724,-2.06,-10.94,15.25,6.75,-0.96,-2.56,
3.725,-2.06,-10.94,15.25,6.46,0.08,-2.41,
3.728,-3.61,-10.53,2.13,6.46,0.08,-2.41,
3.728,-3.61,-10.53,2.13,6.10,0.98,-2.27,
3.729,-3.61,-10.53,2.13,5.72,1.69,-2.14,
3.732,-3.61,-10.53,2.13,5.32,2.20,-2.03,
3.734,-3.61,-10.53,2.13,4.91,2.51,-1.92,
3.736,-3.61,-10.53,2.13,4.49,2.64,-1.83,
3.737,-0.78,-8.28,-4.84,4.49,2.64,-1.83,
3.738,-0.78,-8.28,-4.84,4.10,2.61,-1.76,
3.739,-0.78,-8.28,-4.84,3.72,2.43,-1.69,
3.742,-0.78,-8.28,-4.84,3.22,1.91,-1.61,
3.743,-0.78,-8.28,-4.84,3.07,1.68,-1.59,
3.745,-0.78,-8.28,-4.84,2.79,1.17,-1.55,
3.771,0.20,-5.19,-4.61,2.79,1.17,-1.55,
3.772,0.20,-5.19,-4.61,2.54,0.59,-1.51,
3.772,0.20,-5.19,-4.61,2.30,-0.01,-1.47,
3.772,0.20,-5.19,-4.61,2.09,-0.58,-1.44,
3.773,0.20,-5.19,-4.61,1.90,-1.10,-1.41,
3.773,0.20,-5.19,-4.61,1.74,-1.55,-1.40,
3.774,-0.14,-2.16,-4.71,1.74,-1.55,-1.40,
3.774,-0.14,-2.16,-4.71,1.60,-1.92,-1.39,
3.775,-0.14,-2.16,-4.71,1.49,-2.20,-1.40,
3.775,-0.14,-2.16,-4.71,1.42,-2.40,-1.41,
3.775,-0.14,-2.16,-4.71,1.38,-2.50,-1.43,
3.776,-0.14,-2.16,-4.71,1.38,-2.52,-1.46,
3.776,-0.73,0.49,-4.42,1.38,-2.52,-1.46,
3.777,-0.73,0.49,-4.42,1.42,-2.45,-1.50,
3.777,-0.73,0.49,-4.42,1.72,-1.92,-1.62,
3.778,-0.73,0.49,-4.42,1.72,-1.92,-1.62,
3.778,-0.73,0.49,-4.42,1.87,-1.68,-1.66,
3.778,-2.09,2.41,-3.93,1.87,-1.68,-1.66,
3.779,-2.09,2.41,-3.93,2.02,-1.43,-1.70,
3.779,-2.09,2.41,-3.93,2.02,-1.43,-1.70,
3.779,-2.09,2.41,-3.93,2.19,-1.17,-1.74,
3.787,-2.09,2.41,-3.93,2.35,-0.91,-1.77,
3.787,-2.09,2.41,-3.93,2.53,-0.66,-1.79,
3.787,-2.09,2.41,-3.93,2.70,-0.42,-1.81,
3.787,-3.06,3.85,-5.36,2.70,-0.42,-1.81,
3.788,-3.06,3.85,-5.36,2.86,-0.20,-1.83,
3.789,-3.06,3.85,-5.36,3.02,-0.00,-1.83,
3.792,-3.06,3.85,-5.36,3.24,0.26,-1.83,
3.793,-3.06,3.85,-5.36,3.31,0.34,-1.83,
3.795,-3.06,3.85,-5.36,3.45,0.49,-1.82,
3.797,-2.94,5.30,-6.80,3.45,0.49,-1.82,
3.798,-2.94,5.30,-6.80,3.57,0.61,-1.81,
3.802,-2.94,5.30,-6.80,3.68,0.72,-1.80,
3.804,-2.94,5.30,-6.80,3.77,0.80,-1.78,
3.804,-2.94,5.30,-6.80,3.84,0.87,-1.76,
3.805,-2.94,5.30,-6.80,3.89,0.93,-1.74,
3.808,-1.74,6.70,-7.12,3.89,0.93,-1.74,
3.809,-1.74,6.70,-7.12,3.93,0.98,-1.70,
3.809,-1.74,6.70,-7.12,3.96,1.03,-1.67,
3.812,-1.74,6.70,-7.12,3.97,1.08,-1.63,
3.813,-1.74,6.70,-7.12,3.97,1.13,-1.58,
3.825,-1.74,6.70,-7.12,3.95,1.18,-1.54,
3.826,-1.25,7.80,-6.96,3.95,1.18,-1.54,
3.827,-1.25,7.80,-6.96,3.92,1.21,-1.48,
3.827,-1.25,7.80,-6.96,3.89,1.23,-1.42,
3.827,-1.25,7.80,-6.96,3.83,1.26,-1.32,
3.827,-1.25,7.80,-6.96,3.80,1.26,-1.29,
3.827,-1.25,7.80,-6.96,3.75,1.26,-1.22,
3.829,-0.72,8.58,-7.02,3.75,1.26,-1.22,
3.829,-0.72,8.58,-7.02,3.69,1.25,-1.14,
3.83,-0.72,8.58,-7.02,3.62,1.24,-1.05,
3.86,-0.72,8.58,-7.02,3.52,1.21,-0.92,
3.861,-0.72,8.58,-7.02,3.48,1.19,-0.87,
3.861,-0.72,8.58,-7.02,3.40,1.16,-0.77,
3.861,-0.80,9.32,-7.38,3.40,1.16,-0.77,
3.862,-0.80,9.32,-7.38,3.33,1.13,-0.67,
3.862,-0.80,9.32,-7.38,3.26,1.10,-0.57,
3.862,-0.80,9.32,-7.38,3.14,1.04,-0.41,
3.863,-0.80,9.32,-7.38,3.11,1.02,-0.36,
3.863,-0.80,9.32,-7.38,3.03,0.99,-0.25,
3.863,-0.69,9.41,-7.63,3.03,0.99,-0.25,
3.864,-0.69,9.41,-7.63,2.96,0.96,-0.13,
3.864,-0.69,9.41,-7.63,2.89,0.94,-0.02,
3.864,-0.69,9.41,-7.63,2.78,0.92,0.16,
3.864,-0.69,9.41,-7.63,2.74,0.92,0.22,
3.865,-0.69,9.41,-7.63,2.67,0.92,0.34,
3.865,-1.01,9.14,-7.83,2.67,0.92,0.34,
3.865,-1.01,9.14,-7.83,2.59,0.92,0.45,
3.865,-1.01,9.14,-7.83,2.52,0.92,0.56,
3.866,-1.01,9.14,-7.83,2.41,0.93,0.72,
3.866,-1.01,9.14,-7.83,2.38,0.94,0.77,
3.871,-1.01,9.14,-7.83,2.30,0.94,0.86,
3.871,-0.45,8.05,-8.15,2.30,0.94,0.86,
3.872,-0.45,8.05,-8.15,2.23,0.93,0.95,
3.872,-0.45,8.05,-8.15,2.15,0.92,1.03,
3.875,-0.45,8.05,-8.15,2.03,0.90,1.14,
3.875,-0.45,8.05,-8.15,1.99,0.88,1.17,
3.875,-0.45,8.05,-8.15,1.92,0.86,1.22,
3.877,0.17,6.85,-8.67,1.92,0.86,1.22,
3.878,0.17,6.85,-8.67,1.84,0.83,1.28,
3.879,0.17,6.85,-8.67,1.76,0.81,1.32,
3.884,0.17,6.85,-8.67,1.65,0.78,1.38,
3.885,0.17,6.85,-8.67,1.61,0.77,1.39,
3.885,0.17,6.85,-8.67,1.53,0.76,1.42,
3.891,1.04,5.77,-9.07,1.53,0.76,1.42,
3.892,1.04,5.77,-9.07,1.46,0.75,1.44,
3.892,1.04,5.77,-9.07,1.38,0.74,1.45,
3.892,1.04,5.77,-9.07,1.28,0.74,1.45,
3.893,1.04,5.77,-9.07,1.24,0.74,1.45,
3.895,1.04,5.77,-9.07,1.17,0.75,1.45,
3.898,1.57,5.06,-9.33,1.17,0.75,1.45,
3.898,1.57,5.06,-9.33,1.10,0.75,1.44,
3.9,1.57,5.06,-9.33,1.04,0.76,1.43,
3.902,1.57,5.06,-9.33,0.95,0.78,1.41,
3.903,1.57,5.06,-9.33,0.92,0.78,1.40,
3.905,1.57,5.06,-9.33,0.86,0.79,1.38,
3.908,2.19,4.95,-8.57,0.86,0.79,1.38,
3.908,2.19,4.95,-8.57,0.81,0.80,1.37,
3.909,2.19,4.95,-8.57,0.76,0.81,1.35,
3.912,2.19,4.95,-8.57,0.69,0.80,1.32,
3.939,2.19,4.95,-8.57,0.66,0.80,1.31,
3.939,2.19,4.95,-8.57,0.62,0.79,1.29,
3.94,2.49,4.82,-7.60,0.62,0.79,1.29,
3.94,2.49,4.82,-7.60,0.57,0.77,1.27,
3.94,2.49,4.82,-7.60,0.53,0.75,1.25,
3.941,2.49,4.82,-7.60,0.48,0.70,1.22,
3.941,2.49,4.82,-7.60,0.46,0.68,1.21,
3.941,2.49,4.82,-7.60,0.44,0.65,1.19,
3.942,3.09,4.46,-6.17,0.44,0.65,1.19,
3.942,3.09,4.46,-6.17,0.41,0.61,1.17,
3.942,3.09,4.46,-6.17,0.39,0.56,1.14,
3.942,3.09,4.46,-6.17,0.37,0.48,1.09,
3.943,3.09,4.46,-6.17,0.36,0.45,1.06,
3.943,3.09,4.46,-6.17,0.36,0.38,1.02,
3.943,4.36,3.78,-4.62,0.36,0.38,1.02,
3.944,4.36,3.78,-4.62,0.35,0.31,0.97,
3.944,4.36,3.78,-4.62,0.35,0.23,0.92,
3.944,4.36,3.78,-4.62,0.35,0.12,0.82,
3.945,4.36,3.78,-4.62,0.35,0.08,0.79,
3.945,4.36,3.78,-4.62,0.35,-0.00,0.72,
3.959,5.57,2.90,-3.48,0.35,-0.00,0.72,
3.96,5.57,2.90,-3.48,0.36,-0.08,0.65,
3.96,5.57,2.90,-3.48,0.36,-0.16,0.58,
3.96,5.57,2.90,-3.48,0.35,-0.26,0.48,
3.96,5.57,2.90,-3.48,0.35,-0.30,0.44,
3.96,5.57,2.90,-3.48,0.34,-0.35,0.37,
3.96,6.60,1.90,-2.61,0.34,-0.35,0.37,
3.961,6.60,1.90,-2.61,0.33,-0.39,0.30,
3.961,6.60,1.90,-2.61,0.31,-0.42,0.23,
3.962,6.60,1.90,-2.61,0.28,-0.42,0.14,
3.963,6.60,1.90,-2.61,0.27,-0.41,0.11,
4.001,6.60,1.90,-2.61,0.24,-0.38,0.05,
4.001,6.55,1.13,-1.91,0.24,-0.38,0.05,
4.002,6.55,1.13,-1.91,0.22,-0.33,-0.01,
4.002,6.55,1.13,-1.91,0.18,-0.27,-0.06,
4.002,6.55,1.13,-1.91,0.13,-0.14,-0.12,
4.002,6.55,1.13,-1.91,0.11,-0.10,-0.13,
4.002,6.55,1.13,-1.91,0.07,-0.00,-0.17,
4.003,6.51,0.56,-1.09,0.07,-0.00,-0.17,
4.003,6.51,0.56,-1.09,0.02,0.10,-0.19,
4.004,6.51,0.56,-1.09,-0.02,0.21,-0.21,
4.004,6.51,0.56,-1.09,-0.10,0.37,-0.22,
4.004,6.51,0.56,-1.09,-0.12,0.42,-0.22,
4.004,6.51,0.56,-1.09,-0.17,0.53,-0.22,
4.004,6.43,0.33,-0.53,-0.17,0.53,-0.22,
4.004,6.43,0.33,-0.53,-0.22,0.62,-0.22,
4.005,6.43,0.33,-0.53,-0.27,0.69,-0.21,
4.005,6.43,0.33,-0.53,-0.34,0.77,-0.20,
4.005,6.43,0.33,-0.53,-0.37,0.79,-0.20,
4.005,6.43,0.33,-0.53,-0.41,0.81,-0.19,
4.005,6.69,0.45,-0.24,-0.41,0.81,-0.19,
4.006,6.69,0.45,-0.24,-0.46,0.81,-0.19,
4.006,6.69,0.45,-0.24,-0.50,0.80,-0.20,
4.006,6.69,0.45,-0.24,-0.55,0.76,-0.21,
4.006,6.69,0.45,-0.24,-0.57,0.74,-0.22,
4.007,6.69,0.45,-0.24,-0.60,0.70,-0.23,
4.008,6.30,0.91,-0.18,-0.60,0.70,-0.23,
4.008,6.30,0.91,-0.18,-0.62,0.65,-0.25,
4.01,6.30,0.91,-0.18,-0.64,0.60,-0.26,
4.012,6.30,0.91,-0.18,-0.66,0.52,-0.29,
4.013,6.30,0.91,-0.18,-0.66,0.49,-0.29,
4.015,6.30,0.91,-0.18,-0.67,0.43,-0.31,
4.02,5.27,1.32,0.13,-0.67,0.43,-0.31,
4.02,5.27,1.32,0.13,-0.68,0.37,-0.32,
4.02,5.27,1.32,0.13,-0.68,0.31,-0.34,
4.022,5.27,1.32,0.13,-0.69,0.21,-0.36,
4.026,5.27,1.32,0.13,-0.69,0.18,-0.37,
4.027,5.27,1.32,0.13,-0.69,0.13,-0.38,
4.028,3.56,1.57,0.27,-0.69,0.13,-0.38,
4.028,3.56,1.57,0.27,-0.70,0.07,-0.39,
4.03,3.56,1.57,0.27,-0.70,0.01,-0.41,
4.035,3.56,1.57,0.27,-0.72,-0.06,-0.41,
4.035,3.56,1.57,0.27,-0.73,-0.08,-0.42,
4.035,3.56,1.57,0.27,-0.74,-0.12,-0.42,
4.04,1.74,1.68,0.31,-0.74,-0.12,-0.42,
4.041,1.74,1.68,0.31,-0.75,-0.16,-0.43,
4.046,1.74,1.68,0.31,-0.77,-0.19,-0.43,
4.046,1.74,1.68,0.31,-0.79,-0.23,-0.42,
4.046,1.74,1.68,0.31,-0.80,-0.24,-0.42,
4.057,1.74,1.68,0.31,-0.82,-0.27,-0.41,
4.058,-0.37,1.65,0.41,-0.82,-0.27,-0.41,
4.058,-0.37,1.65,0.41,-0.83,-0.28,-0.39,
4.058,-0.37,1.65,0.41,-0.85,-0.30,-0.37,
4.059,-0.37,1.65,0.41,-0.87,-0.32,-0.34,
4.059,-0.37,1.65,0.41,-0.88,-0.33,-0.32,
4.059,-0.37,1.65,0.41,-0.90,-0.33,-0.29,
4.06,-2.51,1.94,0.72,-0.90,-0.33,-0.29,
4.06,-2.51,1.94,0.72,-0.92,-0.33,-0.26,
4.06,-2.51,1.94,0.72,-0.94,-0.33,-0.23,
4.062,-2.51,1.94,0.72,-0.98,-0.31,-0.17,
4.063,-2.51,1.94,0.72,-0.99,-0.31,-0.16,
4.093,-2.51,1.94,0.72,-1.00,-0.29,-0.12,
4.094,-4.20,2.46,1.20,-1.00,-0.29,-0.12,
4.095,-4.20,2.46,1.20,-1.02,-0.28,-0.08,
4.095,-4.20,2.46,1.20,-1.02,-0.26,-0.04,
4.095,-4.20,2.46,1.20,-1.02,-0.24,0.02,
4.095,-4.20,2.46,1.20,-1.01,-0.24,0.04,
4.095,-4.20,2.46,1.20,-0.98,-0.23,0.09,
4.096,-5.96,3.16,3.98,-0.98,-0.23,0.09,
4.096,-5.96,3.16,3.98,-0.95,-0.23,0.14,
4.114,-5.96,3.16,3.98,-0.91,-0.23,0.19,
4.114,-5.96,3.16,3.98,-0.82,-0.23,0.27,
4.114,-5.96,3.16,3.98,-0.79,-0.23,0.29,
4.115,-5.96,3.16,3.98,-0.72,-0.22,0.35,
4.115,-7.26,2.94,9.41,-0.72,-0.22,0.35,
4.116,-7.26,2.94,9.41,-0.64,-0.21,0.39,
4.116,-7.26,2.94,9.41,-0.57,-0.20,0.44,
4.116,-7.26,2.94,9.41,-0.47,-0.18,0.49,
4.116,-7.26,2.94,9.41,-0.45,-0.18,0.50,
4.117,-7.26,2.94,9.41,-0.41,-0.15,0.53,
4.117,-7.15,1.00,13.66,-0.41,-0.15,0.53,
4.117,-7.15,1.00,13.66,-0.39,-0.12,0.55,
4.118,-7.15,1.00,13.66,-0.38,-0.08,0.57,
4.118,-7.15,1.00,13.66,-0.41,0.02,0.58,
4.118,-7.15,1.00,13.66,-0.43,0.06,0.58,
4.118,-7.15,1.00,13.66,-0.48,0.14,0.59,
4.119,-5.63,-1.96,13.68,-0.48,0.14,0.59,
4.119,-5.63,-1.96,13.68,-0.55,0.24,0.59,
4.119,-5.63,-1.96,13.68,-0.65,0.33,0.59,
4.119,-5.63,-1.96,13.68,-0.84,0.48,0.59,
4.12,-5.63,-1.96,13.68,-0.91,0.53,0.59,
4.12,-5.63,-1.96,13.68,-1.08,0.62,0.58,
4.12,-3.16,-4.15,7.72,-1.08,0.62,0.58,
4.121,-3.16,-4.15,7.72,-1.26,0.73,0.57,
4.121,-3.16,-4.15,7.72,-1.45,0.83,0.54,
4.128,-3.16,-4.15,7.72,-1.75,1.01,0.49,
4.129,-3.16,-4.15,7.72,-1.85,1.07,0.47,
4.129,-3.16,-4.15,7.72,-2.06,1.19,0.41,
4.129,0.16,-4.06,-0.93,-2.06,1.19,0.41,
4.129,0.16,-4.06,-0.93,-2.25,1.31,0.34,
4.129,0.16,-4.06,-0.93,-2.43,1.42,0.26,
4.132,0.16,-4.06,-0.93,-2.67,1.55,0.12,
4.133,0.16,-4.06,-0.93,-2.74,1.57,0.07,
4.135,0.16,-4.06,-0.93,-2.85,1.59,-0.04,
4.137,3.67,-2.80,-4.79,-2.85,1.59,-0.04,
4.138,3.67,-2.80,-4.79,-2.93,1.57,-0.14,
4.14,3.67,-2.80,-4.79,-2.98,1.49,-0.25,
4.142,3.67,-2.80,-4.79,-2.99,1.27,-0.39,
4.146,3.67,-2.80,-4.79,-2.97,1.18,-0.44,
4.146,3.67,-2.80,-4.79,-2.94,0.95,-0.52,
4.148,5.41,-2.01,-2.17,-2.94,0.95,-0.52,
4.148,5.41,-2.01,-2.17,-2.88,0.68,-0.59,
4.15,5.41,-2.01,-2.17,-2.82,0.40,-0.66,
4.152,5.41,-2.01,-2.17,-2.71,-0.03,-0.76,
4.153,5.41,-2.01,-2.17,-2.67,-0.17,-0.79,
4.155,5.41,-2.01,-2.17,-2.61,-0.42,-0.84,
4.158,6.29,-2.08,0.58,-2.61,-0.42,-0.84,
4.158,6.29,-2.08,0.58,-2.56,-0.65,-0.90,
4.16,6.29,-2.08,0.58,-2.51,-0.85,-0.95,
4.162,6.29,-2.08,0.58,-2.47,-1.10,-1.01,
4.165,6.29,-2.08,0.58,-2.46,-1.17,-1.03,
4.165,6.29,-2.08,0.58,-2.45,-1.30,-1.06,
4.169,5.88,-1.87,0.55,-2.45,-1.30,-1.06,
4.169,5.88,-1.87,0.55,-2.46,-1.41,-1.09,
4.169,5.88,-1.87,0.55,-2.47,-1.51,-1.10,
4.173,5.88,-1.87,0.55,-2.51,-1.62,-1.11,
4.173,5.88,-1.87,0.55,-2.53,-1.64,-1.11,
4.176,5.88,-1.87,0.55,-2.56,-1.66,-1.09,
4.178,4.38,-1.65,-1.34,-2.56,-1.66,-1.09,
4.178,4.38,-1.65,-1.34,-2.59,-1.65,-1.07,
4.179,4.38,-1.65,-1.34,-2.62,-1.63,-1.03,
4.19,4.38,-1.65,-1.34,-2.66,-1.55,-0.96,
4.19,4.38,-1.65,-1.34,-2.68,-1.51,-0.93,
4.191,4.38,-1.65,-1.34,-2.70,-1.42,-0.86,
4.191,1.62,-0.96,-3.21,-2.70,-1.42,-0.86,
4.191,1.62,-0.96,-3.21,-2.71,-1.32,-0.78,
4.191,1.62,-0.96,-3.21,-2.72,-1.21,-0.70,
4.192,1.62,-0.96,-3.21,-2.71,-1.07,-0.57,
4.193,1.62,-0.96,-3.21,-2.70,-1.03,-0.53,
4.196,1.62,-0.96,-3.21,-2.68,-0.95,-0.43,
4.241,-0.98,-0.25,-3.58,-2.68,-0.95,-0.43,
4.241,-0.98,-0.25,-3.58,-2.64,-0.89,-0.34,
4.241,-0.98,-0.25,-3.58,-2.59,-0.83,-0.25,
4.241,-0.98,-0.25,-3.58,-2.52,-0.75,-0.11,
4.242,-0.98,-0.25,-3.58,-2.49,-0.73,-0.07,
4.242,-0.98,-0.25,-3.58,-2.43,-0.70,0.01,
4.242,-2.34,0.16,-2.20,-2.43,-0.70,0.01,
4.242,-2.34,0.16,-2.20,-2.36,-0.67,0.09,
4.242,-2.34,0.16,-2.20,-2.30,-0.64,0.15,
4.242,-2.34,0.16,-2.20,-2.19,-0.60,0.24,
4.242,-2.34,0.16,-2.20,-2.16,-0.59,0.27,
4.243,-2.34,0.16,-2.20,-2.09,-0.55,0.31,
4.243,-2.63,0.12,-0.78,-2.09,-0.55,0.31,
4.243,-2.63,0.12,-0.78,-2.02,-0.52,0.35,
4.243,-2.63,0.12,-0.78,-1.96,-0.48,0.38,
4.243,-2.63,0.12,-0.78,-1.88,-0.41,0.42,
4.243,-2.63,0.12,-0.78,-1.86,-0.39,0.43,
4.243,-2.63,0.12,-0.78,-1.83,-0.34,0.44,
4.244,-2.12,-0.27,-0.46,-1.83,-0.34,0.44,
4.244,-2.12,-0.27,-0.46,-1.81,-0.28,0.46,
4.244,-2.12,-0.27,-0.46,-1.81,-0.23,0.47,
4.244,-2.12,-0.27,-0.46,-1.82,-0.15,0.49,
4.244,-2.12,-0.27,-0.46,-1.84,-0.12,0.49,
4.244,-2.12,-0.27,-0.46,-1.86,-0.08,0.49,
4.245,-1.73,-0.79,-1.92,-1.86,-0.08,0.49,
4.245,-1.73,-0.79,-1.92,-1.90,-0.04,0.50,
4.245,-1.73,-0.79,-1.92,-1.95,-0.01,0.50,
4.245,-1.73,-0.79,-1.92,-2.03,0.02,0.50,
4.245,-1.73,-0.79,-1.92,-2.06,0.02,0.50,
4.245,-1.73,-0.79,-1.92,-2.12,0.01,0.50,
4.261,-1.63,-0.95,-3.22,-2.12,0.01,0.50,
4.261,-1.63,-0.95,-3.22,-2.17,-0.00,0.50,
4.262,-1.63,-0.95,-3.22,-2.23,-0.03,0.50,
4.262,-1.63,-0.95,-3.22,-2.32,-0.09,0.50,
4.262,-1.63,-0.95,-3.22,-2.35,-0.11,0.49,
4.262,-1.63,-0.95,-3.22,-2.40,-0.16,0.49,
4.262,-1.88,-1.21,-3.21,-2.40,-0.16,0.49,
4.262,-1.88,-1.21,-3.21,-2.45,-0.21,0.48,
4.262,-1.88,-1.21,-3.21,-2.50,-0.27,0.46,
4.262,-1.88,-1.21,-3.21,-2.56,-0.36,0.45,
4.265,-1.88,-1.21,-3.21,-2.58,-0.40,0.44,
4.265,-1.88,-1.21,-3.21,-2.62,-0.47,0.43,
4.268,-2.04,-1.51,-2.41,-2.62,-0.47,0.43,
4.268,-2.04,-1.51,-2.41,-2.66,-0.54,0.41,
4.269,-2.04,-1.51,-2.41,-2.70,-0.62,0.40,
4.272,-2.04,-1.51,-2.41,-2.76,-0.72,0.39,
4.274,-2.04,-1.51,-2.41,-2.79,-0.76,0.38,
4.275,-2.04,-1.51,-2.41,-2.83,-0.82,0.37,
4.277,-2.11,-1.79,-2.13,-2.83,-0.82,0.37,
4.277,-2.11,-1.79,-2.13,-2.88,-0.88,0.36,
4.28,-2.11,-1.79,-2.13,-2.92,-0.94,0.35,
4.282,-2.11,-1.79,-2.13,-3.00,-1.02,0.34,
4.283,-2.11,-1.79,-2.13,-3.02,-1.04,0.34,
4.285,-2.11,-1.79,-2.13,-3.07,-1.09,0.33,
4.287,-1.98,-1.74,-2.21,-3.07,-1.09,0.33,
4.288,-1.98,-1.74,-2.21,-3.11,-1.13,0.33,
4.289,-1.98,-1.74,-2.21,-3.16,-1.17,0.33,
4.292,-1.98,-1.74,-2.21,-3.22,-1.23,0.33,
4.293,-1.98,-1.74,-2.21,-3.25,-1.25,0.33,
4.295,-1.98,-1.74,-2.21,-3.29,-1.29,0.33,
4.298,-1.90,-1.66,-2.14,-3.29,-1.29,0.33,
4.298,-1.90,-1.66,-2.14,-3.33,-1.33,0.33,
4.3,-1.90,-1.66,-2.14,-3.37,-1.38,0.34,
4.302,-1.90,-1.66,-2.14,-3.42,-1.44,0.34,
4.303,-1.90,-1.66,-2.14,-3.44,-1.45,0.34,
4.305,-1.90,-1.66,-2.14,-3.47,-1.49,0.34,
4.307,-1.55,-1.57,-1.56,-3.47,-1.49,0.34,
4.308,-1.55,-1.57,-1.56,-3.49,-1.52,0.34,
4.309,-1.55,-1.57,-1.56,-3.52,-1.55,0.34,
4.312,-1.55,-1.57,-1.56,-3.54,-1.59,0.34,
4.318,-1.55,-1.57,-1.56,-3.55,-1.60,0.33,
4.318,-1.55,-1.57,-1.56,-3.56,-1.62,0.33,
4.319,-1.01,-1.48,-0.68,-3.56,-1.62,0.33,
4.319,-1.01,-1.48,-0.68,-3.57,-1.63,0.32,
4.319,-1.01,-1.48,-0.68,-3.57,-1.63,0.31,
4.322,-1.01,-1.48,-0.68,-3.57,-1.64,0.30,
4.323,-1.01,-1.48,-0.68,-3.57,-1.64,0.29,
4.325,-1.01,-1.48,-0.68,-3.56,-1.64,0.28,
4.328,-0.34,-1.37,0.20,-3.56,-1.64,0.28,
4.328,-0.34,-1.37,0.20,-3.55,-1.64,0.26,
4.339,-0.34,-1.37,0.20,-3.53,-1.63,0.24,
4.34,-0.34,-1.37,0.20,-3.51,-1.61,0.20,
4.34,-0.34,-1.37,0.20,-3.50,-1.60,0.19,
4.34,-0.34,-1.37,0.20,-3.48,-1.59,0.17,
4.34,0.40,-1.07,0.71,-3.48,-1.59,0.17,
4.34,0.40,-1.07,0.71,-3.45,-1.56,0.14,
4.34,0.40,-1.07,0.71,-3.43,-1.54,0.12,
4.342,0.40,-1.07,0.71,-3.39,-1.49,0.08,
4.343,0.40,-1.07,0.71,-3.38,-1.47,0.07,
4.345,0.40,-1.07,0.71,-3.35,-1.44,0.05,
4.348,0.77,-0.68,0.67,-3.35,-1.44,0.05,
4.348,0.77,-0.68,0.67,-3.32,-1.41,0.03,
4.351,0.77,-0.68,0.67,-3.30,-1.38,0.01,
4.352,0.77,-0.68,0.67,-3.25,-1.33,-0.02,
4.353,0.77,-0.68,0.67,-3.24,-1.32,-0.02,
4.355,0.77,-0.68,0.67,-3.21,-1.30,-0.04,
4.359,0.91,-0.31,0.42,-3.21,-1.30,-0.04,
4.36,0.91,-0.31,0.42,-3.18,-1.28,-0.06,
4.36,0.91,-0.31,0.42,-3.16,-1.26,-0.08,
4.362,0.91,-0.31,0.42,-3.12,-1.24,-0.10,
4.363,0.91,-0.31,0.42,-3.10,-1.24,-0.11,
4.365,0.91,-0.31,0.42,-3.08,-1.23,-0.13,
4.368,0.96,-0.16,0.29,-3.08,-1.23,-0.13,
4.368,0.96,-0.16,0.29,-3.06,-1.24,-0.14,
4.369,0.96,-0.16,0.29,-3.04,-1.24,-0.16,
4.372,0.96,-0.16,0.29,-3.01,-1.25,-0.19,
4.373,0.96,-0.16,0.29,-3.01,-1.26,-0.20,
4.375,0.96,-0.16,0.29,-2.99,-1.26,-0.21,
4.378,1.01,-0.14,0.12,-2.99,-1.26,-0.21,
4.379,1.01,-0.14,0.12,-2.98,-1.26,-0.23,
4.381,1.01,-0.14,0.12,-2.96,-1.27,-0.25,
4.384,1.01,-0.14,0.12,-2.92,-1.28,-0.27,
4.384,1.01,-0.14,0.12,-2.91,-1.29,-0.28,
4.385,1.01,-0.14,0.12,-2.89,-1.30,-0.29,
4.388,1.03,-0.10,0.22,-2.89,-1.30,-0.29,
4.388,1.03,-0.10,0.22,-2.87,-1.32,-0.31,
4.389,1.03,-0.10,0.22,-2.84,-1.34,-0.32,
4.393,1.03,-0.10,0.22,-2.81,-1.38,-0.32,
4.393,1.03,-0.10,0.22,-2.80,-1.39,-0.32,
4.395,1.03,-0.10,0.22,-2.78,-1.42,-0.32,
4.397,0.56,-0.21,0.29,-2.78,-1.42,-0.32,
4.398,0.56,-0.21,0.29,-2.76,-1.45,-0.31,
4.399,0.56,-0.21,0.29,-2.74,-1.47,-0.30,
4.402,0.56,-0.21,0.29,-2.71,-1.50,-0.28,
4.403,0.56,-0.21,0.29,-2.70,-1.51,-0.27,
4.405,0.56,-0.21,0.29,-2.68,-1.52,-0.26,
4.408,0.03,-0.26,0.29,-2.68,-1.52,-0.26,
4.409,0.03,-0.26,0.29,-2.66,-1.54,-0.24,
4.409,0.03,-0.26,0.29,-2.64,-1.54,-0.22,
4.413,0.03,-0.26,0.29,-2.60,-1.56,-0.19,
4.431,0.03,-0.26,0.29,-2.59,-1.56,-0.18,
4.431,0.03,-0.26,0.29,-2.56,-1.56,-0.16,
4.432,-0.38,-0.20,0.41,-2.56,-1.56,-0.16,
4.432,-0.38,-0.20,0.41,-2.54,-1.55,-0.13,
4.432,-0.38,-0.20,0.41,-2.51,-1.54,-0.11,
4.432,-0.38,-0.20,0.41,-2.48,-1.50,-0.06,
4.432,-0.38,-0.20,0.41,-2.47,-1.48,-0.05,
4.432,-0.38,-0.20,0.41,-2.44,-1.43,-0.03,
4.432,-0.41,-0.20,0.14,-2.44,-1.43,-0.03,
4.433,-0.41,-0.20,0.14,-2.42,-1.37,-0.01,
4.433,-0.41,-0.20,0.14,-2.41,-1.28,0.01,
4.433,-0.41,-0.20,0.14,-2.38,-1.13,0.03,
4.433,-0.41,-0.20,0.14,-2.37,-1.08,0.03,
4.435,-0.41,-0.20,0.14,-2.35,-0.97,0.04,
4.437,0.19,-0.31,-0.37,-2.35,-0.97,0.04,
4.437,0.19,-0.31,-0.37,-2.34,-0.85,0.04,
4.439,0.19,-0.31,-0.37,-2.33,-0.73,0.05,
4.442,0.19,-0.31,-0.37,-2.31,-0.56,0.05,
4.443,0.19,-0.31,-0.37,-2.31,-0.50,0.05,
4.445,0.19,-0.31,-0.37,-2.29,-0.39,0.05,
4.449,0.68,-0.57,-0.55,-2.29,-0.39,0.05,
4.449,0.68,-0.57,-0.55,-2.28,-0.29,0.04,
4.449,0.68,-0.57,-0.55,-2.25,-0.21,0.04,
4.452,0.68,-0.57,-0.55,-2.22,-0.10,0.03,
4.453,0.68,-0.57,-0.55,-2.20,-0.07,0.03,
4.455,0.68,-0.57,-0.55,-2.17,-0.03,0.02,
4.457,0.80,-0.64,0.04,-2.17,-0.03,0.02,
4.457,0.80,-0.64,0.04,-2.13,0.01,0.03,
4.459,0.80,-0.64,0.04,-2.10,0.04,0.03,
4.466,0.80,-0.64,0.04,-2.03,0.08,0.03,
4.467,0.80,-0.64,0.04,-2.01,0.10,0.03,
4.467,0.80,-0.64,0.04,-1.96,0.14,0.03,
4.468,0.88,-0.77,0.70,-1.96,0.14,0.03,
4.468,0.88,-0.77,0.70,-1.91,0.19,0.02,
4.469,0.88,-0.77,0.70,-1.86,0.23,0.02,
4.472,0.88,-0.77,0.70,-1.78,0.28,0.01,
4.473,0.88,-0.77,0.70,-1.76,0.30,0.00,
4.475,0.88,-0.77,0.70,-1.70,0.33,-0.01,
4.478,1.17,-1.13,0.93,-1.70,0.33,-0.01,
4.478,1.17,-1.13,0.93,-1.65,0.35,-0.01,
4.486,1.17,-1.13,0.93,-1.61,0.37,-0.02,
4.487,1.17,-1.13,0.93,-1.53,0.41,-0.03,
4.487,1.17,-1.13,0.93,-1.51,0.42,-0.04,
4.487,1.17,-1.13,0.93,-1.46,0.44,-0.05,
4.487,1.39,-1.41,0.97,-1.46,0.44,-0.05,
4.487,1.39,-1.41,0.97,-1.41,0.46,-0.06,
4.489,1.39,-1.41,0.97,-1.37,0.49,-0.07,
4.492,1.39,-1.41,0.97,-1.30,0.54,-0.10,
4.493,1.39,-1.41,0.97,-1.27,0.55,-0.10,
4.495,1.39,-1.41,0.97,-1.22,0.58,-0.12,
4.497,1.66,-1.42,1.07,-1.22,0.58,-0.12,
4.497,1.66,-1.42,1.07,-1.18,0.62,-0.14,
4.499,1.66,-1.42,1.07,-1.14,0.65,-0.16,
4.502,1.66,-1.42,1.07,-1.07,0.69,-0.20,
4.503,1.66,-1.42,1.07,-1.05,0.71,-0.21,
4.505,1.66,-1.42,1.07,-1.02,0.75,-0.24,
4.507,1.82,-1.26,1.22,-1.02,0.75,-0.24,
4.508,1.82,-1.26,1.22,-0.98,0.78,-0.26,
4.509,1.82,-1.26,1.22,-0.95,0.82,-0.29,
4.512,1.82,-1.26,1.22,-0.91,0.87,-0.33,
4.513,1.82,-1.26,1.22,-0.89,0.89,-0.35,
4.515,1.82,-1.26,1.22,-0.87,0.92,-0.37,
4.518,1.97,-1.02,1.46,-0.87,0.92,-0.37,
4.518,1.97,-1.02,1.46,-0.85,0.94,-0.40,
4.519,1.97,-1.02,1.46,-0.85,0.97,-0.42,
4.522,1.97,-1.02,1.46,-0.84,1.01,-0.44,
4.523,1.97,-1.02,1.46,-0.84,1.02,-0.44,
4.525,1.97,-1.02,1.46,-0.85,1.04,-0.45,
4.528,1.84,-0.77,1.59,-0.85,1.04,-0.45,
4.528,1.84,-0.77,1.59,-0.87,1.06,-0.46,
4.529,1.84,-0.77,1.59,-0.90,1.08,-0.46,
4.536,1.84,-0.77,1.59,-0.95,1.09,-0.45,
4.537,1.84,-0.77,1.59,-0.97,1.09,-0.45,
4.538,1.84,-0.77,1.59,-1.01,1.08,-0.44,
4.538,1.73,-0.41,1.71,-1.01,1.08,-0.44,
4.539,1.73,-0.41,1.71,-1.06,1.05,-0.43,
4.54,1.73,-0.41,1.71,-1.11,1.02,-0.43,
4.542,1.73,-0.41,1.71,-1.20,0.96,-0.41,
4.544,1.73,-0.41,1.71,-1.22,0.94,-0.41,
4.546,1.73,-0.41,1.71,-1.28,0.90,-0.41,
4.549,1.91,-0.01,1.62,-1.28,0.90,-0.41,
4.55,1.91,-0.01,1.62,-1.34,0.85,-0.40,
4.55,1.91,-0.01,1.62,-1.39,0.80,-0.40,
4.552,1.91,-0.01,1.62,-1.47,0.71,-0.40,
4.553,1.91,-0.01,1.62,-1.49,0.67,-0.40,
4.555,1.91,-0.01,1.62,-1.53,0.59,-0.40,
4.557,2.18,0.17,1.83,-1.53,0.59,-0.40,
4.558,2.18,0.17,1.83,-1.57,0.51,-0.39,
4.559,2.18,0.17,1.83,-1.60,0.42,-0.38,
4.562,2.18,0.17,1.83,-1.63,0.27,-0.37,
4.564,2.18,0.17,1.83,-1.64,0.22,-0.36,
4.568,2.18,0.17,1.83,-1.66,0.12,-0.35,
4.568,1.83,0.27,2.04,-1.66,0.12,-0.35,
4.568,1.83,0.27,2.04,-1.67,0.02,-0.34,
4.569,1.83,0.27,2.04,-1.67,-0.09,-0.33,
4.572,1.83,0.27,2.04,-1.66,-0.24,-0.31,
4.573,1.83,0.27,2.04,-1.65,-0.29,-0.30,
4.575,1.83,0.27,2.04,-1.64,-0.38,-0.29,
4.59,1.79,0.30,1.96,-1.64,-0.38,-0.29,
4.591,1.79,0.30,1.96,-1.62,-0.46,-0.28,
4.606,1.79,0.30,1.96,-1.60,-0.54,-0.27,
4.606,1.79,0.30,1.96,-1.57,-0.65,-0.26,
4.606,1.79,0.30,1.96,-1.56,-0.69,-0.25,
4.606,1.79,0.30,1.96,-1.53,-0.76,-0.25,
4.606,1.94,0.22,1.32,-1.53,-0.76,-0.25,
4.607,1.94,0.22,1.32,-1.50,-0.83,-0.25,
4.607,1.94,0.22,1.32,-1.47,-0.88,-0.25,
4.607,1.94,0.22,1.32,-1.42,-0.94,-0.26,
4.607,1.94,0.22,1.32,-1.40,-0.95,-0.27,
4.607,1.94,0.22,1.32,-1.36,-0.98,-0.28,
4.607,2.34,0.19,0.72,-1.36,-0.98,-0.28,
4.607,2.34,0.19,0.72,-1.32,-0.99,-0.29,
4.608,2.34,0.19,0.72,-1.28,-1.00,-0.31,
4.608,2.34,0.19,0.72,-1.21,-1.01,-0.34,
4.608,2.34,0.19,0.72,-1.19,-1.02,-0.35,
4.608,2.34,0.19,0.72,-1.14,-1.03,-0.37,
4.608,2.55,0.25,0.36,-1.14,-1.03,-0.37,
4.608,2.55,0.25,0.36,-1.10,-1.04,-0.39,
4.61,2.55,0.25,0.36,-1.05,-1.06,-0.41,
4.612,2.55,0.25,0.36,-0.98,-1.10,-0.44,
4.613,2.55,0.25,0.36,-0.96,-1.11,-0.45,
4.615,2.55,0.25,0.36,-0.92,-1.15,-0.47,
4.617,2.63,0.31,0.39,-0.92,-1.15,-0.47,
4.617,2.63,0.31,0.39,-0.87,-1.18,-0.48,
4.619,2.63,0.31,0.39,-0.83,-1.21,-0.50,
4.622,2.63,0.31,0.39,-0.77,-1.26,-0.52,
4.623,2.63,0.31,0.39,-0.75,-1.28,-0.52,
4.625,2.63,0.31,0.39,-0.71,-1.31,-0.53,
4.628,2.31,0.41,0.51,-0.71,-1.31,-0.53,
4.628,2.31,0.41,0.51,-0.68,-1.34,-0.54,
4.629,2.31,0.41,0.51,-0.65,-1.37,-0.55,
4.632,2.31,0.41,0.51,-0.62,-1.42,-0.55,
4.633,2.31,0.41,0.51,-0.62,-1.43,-0.55,
4.635,2.31,0.41,0.51,-0.61,-1.46,-0.55,
4.637,2.03,0.50,0.42,-0.61,-1.46,-0.55,
4.638,2.03,0.50,0.42,-0.61,-1.49,-0.55,
4.639,2.03,0.50,0.42,-0.62,-1.53,-0.54,
4.642,2.03,0.50,0.42,-0.66,-1.59,-0.52,
4.643,2.03,0.50,0.42,-0.68,-1.61,-0.51,
4.645,2.03,0.50,0.42,-0.74,-1.66,-0.49,
4.648,1.61,0.78,0.12,-0.74,-1.66,-0.49,
4.648,1.61,0.78,0.12,-0.81,-1.72,-0.47,
4.649,1.61,0.78,0.12,-0.90,-1.78,-0.45,
4.652,1.61,0.78,0.12,-1.06,-1.87,-0.41,
4.653,1.61,0.78,0.12,-1.12,-1.90,-0.39,
4.655,1.61,0.78,0.12,-1.24,-1.96,-0.36,
4.659,1.33,1.21,-0.17,-1.24,-1.96,-0.36,
4.659,1.33,1.21,-0.17,-1.38,-2.01,-0.33,
4.659,1.33,1.21,-0.17,-1.52,-2.06,-0.29,
4.663,1.33,1.21,-0.17,-1.72,-2.11,-0.24,
4.664,1.33,1.21,-0.17,-1.79,-2.13,-0.22,
4.665,1.33,1.21,-0.17,-1.92,-2.15,-0.19,
4.668,1.14,1.34,0.31,-1.92,-2.15,-0.19,
4.668,1.14,1.34,0.31,-2.04,-2.16,-0.15,
4.669,1.14,1.34,0.31,-2.16,-2.15,-0.12,
4.672,1.14,1.34,0.31,-2.31,-2.14,-0.08,
4.673,1.14,1.34,0.31,-2.36,-2.13,-0.06,
4.675,1.14,1.34,0.31,-2.44,-2.10,-0.04,
4.678,1.23,1.16,1.83,-2.44,-2.10,-0.04,
4.679,1.23,1.16,1.83,-2.52,-2.07,-0.02,
4.679,1.23,1.16,1.83,-2.58,-2.04,-0.00,
4.682,1.23,1.16,1.83,-2.66,-1.97,0.02,
4.683,1.23,1.16,1.83,-2.68,-1.95,0.02,
4.685,1.23,1.16,1.83,-2.71,-1.89,0.03,
4.687,1.28,1.05,4.10,-2.71,-1.89,0.03,
4.688,1.28,1.05,4.10,-2.73,-1.83,0.04,
4.69,1.28,1.05,4.10,-2.74,-1.77,0.04,
4.692,1.28,1.05,4.10,-2.71,-1.67,0.04,
4.693,1.28,1.05,4.10,-2.69,-1.64,0.04,
4.695,1.28,1.05,4.10,-2.64,-1.57,0.04,
4.698,1.29,0.78,8.11,-2.64,-1.57,0.04,
4.699,1.29,0.78,8.11,-2.56,-1.49,0.04,
4.7,1.29,0.78,8.11,-2.46,-1.42,0.03,
4.702,1.29,0.78,8.11,-2.26,-1.31,0.02,
4.703,1.29,0.78,8.11,-2.19,-1.28,0.02,
4.705,1.29,0.78,8.11,-2.02,-1.21,0.02,
4.708,1.34,-0.02,12.24,-2.02,-1.21,0.02,
4.708,1.34,-0.02,12.24,-1.84,-1.13,0.01,
4.709,1.34,-0.02,12.24,-1.66,-1.07,0.00,
4.723,1.34,-0.02,12.24,-1.38,-0.97,-0.01,
4.724,1.34,-0.02,12.24,-1.28,-0.94,-0.01,
4.724,1.34,-0.02,12.24,-1.10,-0.88,-0.01,
4.725,1.29,-1.10,13.25,-1.10,-0.88,-0.01,
4.725,1.29,-1.10,13.25,-0.93,-0.83,-0.02,
4.726,1.29,-1.10,13.25,-0.76,-0.78,-0.03,
4.726,1.29,-1.10,13.25,-0.54,-0.71,-0.03,
4.726,1.29,-1.10,13.25,-0.47,-0.69,-0.04,
4.727,1.29,-1.10,13.25,-0.34,-0.65,-0.05,
4.746,1.24,-2.02,10.76,-0.34,-0.65,-0.05,
4.746,1.24,-2.02,10.76,-0.22,-0.61,-0.06,
4.746,1.24,-2.02,10.76,-0.11,-0.57,-0.07,
4.746,1.24,-2.02,10.76,0.04,-0.53,-0.08,
4.746,1.24,-2.02,10.76,0.08,-0.52,-0.09,
4.747,1.24,-2.02,10.76,0.15,-0.50,-0.10,
4.747,1.17,-2.64,7.95,0.15,-0.50,-0.10,
4.747,1.17,-2.64,7.95,0.21,-0.48,-0.11,
4.747,1.17,-2.64,7.95,0.27,-0.46,-0.11,
4.747,1.17,-2.64,7.95,0.34,-0.44,-0.13,
4.747,1.17,-2.64,7.95,0.36,-0.44,-0.13,
4.747,1.17,-2.64,7.95,0.39,-0.43,-0.13,
4.762,0.84,-2.69,5.33,0.39,-0.43,-0.13,
4.762,0.84,-2.69,5.33,0.41,-0.42,-0.13,
4.762,0.84,-2.69,5.33,0.43,-0.42,-0.14,
4.762,0.84,-2.69,5.33,0.44,-0.42,-0.14,
4.763,0.84,-2.69,5.33,0.45,-0.42,-0.14,
4.763,0.84,-2.69,5.33,0.45,-0.42,-0.14,
4.763,0.52,-2.66,3.67,0.45,-0.42,-0.14,
4.763,0.52,-2.66,3.67,0.44,-0.41,-0.14,
4.763,0.52,-2.66,3.67,0.44,-0.41,-0.14,
4.763,0.52,-2.66,3.67,0.42,-0.41,-0.14,
4.764,0.52,-2.66,3.67,0.42,-0.41,-0.14,
4.768,0.52,-2.66,3.67,0.40,-0.41,-0.14,
4.768,0.29,-2.57,2.62,0.40,-0.41,-0.14,
4.768,0.29,-2.57,2.62,0.38,-0.41,-0.14,
4.775,0.29,-2.57,2.62,0.32,-0.39,-0.15,
4.776,0.29,-2.57,2.62,0.32,-0.39,-0.15,
4.776,0.29,-2.57,2.62,0.30,-0.37,-0.16,
4.781,0.18,-2.30,2.48,0.30,-0.37,-0.16,
4.781,0.18,-2.30,2.48,0.29,-0.37,-0.16,
4.782,0.18,-2.30,2.48,0.29,-0.37,-0.16,
4.782,0.18,-2.30,2.48,0.28,-0.35,-0.17,
4.782,0.18,-2.30,2.48,0.27,-0.33,-0.18,
4.785,0.18,-2.30,2.48,0.27,-0.32,-0.18,
4.785,0.18,-2.30,2.48,0.28,-0.29,-0.19,
4.79,-0.01,-2.00,2.92,0.28,-0.29,-0.19,
4.79,-0.01,-2.00,2.92,0.28,-0.27,-0.19,
4.79,-0.01,-2.00,2.92,0.29,-0.25,-0.19,
4.793,-0.01,-2.00,2.92,0.32,-0.22,-0.19,
4.793,-0.01,-2.00,2.92,0.34,-0.21,-0.19,
4.795,-0.01,-2.00,2.92,0.37,-0.19,-0.19,
4.797,-0.37,-1.92,3.98,0.37,-0.19,-0.19,
4.798,-0.37,-1.92,3.98,0.41,-0.18,-0.19,
4.799,-0.37,-1.92,3.98,0.47,-0.16,-0.19,
4.802,-0.37,-1.92,3.98,0.56,-0.14,-0.19,
4.803,-0.37,-1.92,3.98,0.60,-0.13,-0.18,
4.805,-0.37,-1.92,3.98,0.68,-0.12,-0.18,
4.807,-0.78,-2.20,5.16,0.68,-0.12,-0.18,
4.807,-0.78,-2.20,5.16,0.78,-0.11,-0.18,
4.809,-0.78,-2.20,5.16,0.88,-0.09,-0.18,
4.812,-0.78,-2.20,5.16,1.05,-0.08,-0.18,
4.813,-0.78,-2.20,5.16,1.10,-0.07,-0.19,
4.815,-0.78,-2.20,5.16,1.22,-0.07,-0.19,
4.817,-0.91,-3.25,6.12,1.22,-0.07,-0.19,
4.818,-0.91,-3.25,6.12,1.34,-0.06,-0.20,
4.819,-0.91,-3.25,6.12,1.47,-0.06,-0.21,
4.822,-0.91,-3.25,6.12,1.65,-0.06,-0.23,
4.823,-0.91,-3.25,6.12,1.72,-0.06,-0.24,
4.825,-0.91,-3.25,6.12,1.84,-0.07,-0.25,
4.828,-0.85,-4.47,6.09,1.84,-0.07,-0.25,
4.829,-0.85,-4.47,6.09,1.96,-0.07,-0.27,
4.829,-0.85,-4.47,6.09,2.08,-0.09,-0.28,
4.832,-0.85,-4.47,6.09,2.27,-0.11,-0.30,
4.833,-0.85,-4.47,6.09,2.33,-0.12,-0.30,
4.835,-0.85,-4.47,6.09,2.48,-0.14,-0.30,
4.837,-1.70,-4.53,7.57,2.48,-0.14,-0.30,
4.837,-1.70,-4.53,7.57,2.63,-0.18,-0.29,
4.839,-1.70,-4.53,7.57,2.79,-0.21,-0.27,
4.842,-1.70,-4.53,7.57,3.04,-0.27,-0.24,
4.843,-1.70,-4.53,7.57,3.13,-0.29,-0.22,
4.848,-1.70,-4.53,7.57,3.30,-0.33,-0.19,
4.848,-3.32,-3.09,9.75,3.30,-0.33,-0.19,
4.848,-3.32,-3.09,9.75,3.47,-0.36,-0.15,
4.849,-3.32,-3.09,9.75,3.64,-0.39,-0.11,
4.854,-3.32,-3.09,9.75,3.85,-0.42,-0.05,
4.854,-3.32,-3.09,9.75,3.91,-0.42,-0.03,
4.855,-3.32,-3.09,9.75,4.02,-0.43,-0.00,
4.857,-3.79,-2.40,8.10,4.02,-0.43,-0.00,
4.858,-3.79,-2.40,8.10,4.10,-0.44,0.02,
4.859,-3.79,-2.40,8.10,4.15,-0.44,0.04,
4.869,-3.79,-2.40,8.10,4.16,-0.43,0.06,
4.869,-3.79,-2.40,8.10,4.16,-0.42,0.06,
4.869,-3.79,-2.40,8.10,4.11,-0.39,0.05,
4.869,-2.41,-3.17,1.74,4.11,-0.39,0.05,
4.869,-2.41,-3.17,1.74,4.05,-0.35,0.03,
4.87,-2.41,-3.17,1.74,3.96,-0.29,0.01,
4.872,-2.41,-3.17,1.74,3.80,-0.18,-0.02,
4.873,-2.41,-3.17,1.74,3.74,-0.14,-0.03,
4.877,-2.41,-3.17,1.74,3.62,-0.05,-0.06,
4.878,-0.43,-3.99,-4.89,3.62,-0.05,-0.06,
4.878,-0.43,-3.99,-4.89,3.50,0.04,-0.08,
4.881,-0.43,-3.99,-4.89,3.38,0.13,-0.10,
4.884,-0.43,-3.99,-4.89,3.22,0.26,-0.14,
4.884,-0.43,-3.99,-4.89,3.17,0.30,-0.16,
4.887,-0.43,-3.99,-4.89,3.07,0.39,-0.20,
4.887,1.12,-4.36,-8.02,3.07,0.39,-0.20,
4.888,1.12,-4.36,-8.02,2.97,0.48,-0.24,
4.891,1.12,-4.36,-8.02,2.89,0.58,-0.28,
4.894,1.12,-4.36,-8.02,2.78,0.72,-0.35,
4.894,1.12,-4.36,-8.02,2.74,0.77,-0.38,
4.895,1.12,-4.36,-8.02,2.68,0.85,-0.42,
4.9,2.38,-4.76,-9.01,2.68,0.85,-0.42,
4.9,2.38,-4.76,-9.01,2.64,0.91,-0.47,
4.9,2.38,-4.76,-9.01,2.60,0.97,-0.51,
4.903,2.38,-4.76,-9.01,2.55,1.01,-0.55,
4.903,2.38,-4.76,-9.01,2.54,1.02,-0.57,
4.907,2.38,-4.76,-9.01,2.52,1.03,-0.58,
4.909,2.15,-5.24,-7.85,2.52,1.03,-0.58,
4.909,2.15,-5.24,-7.85,2.51,1.02,-0.59,
4.909,2.15,-5.24,-7.85,2.49,1.00,-0.60,
4.913,2.15,-5.24,-7.85,2.48,0.96,-0.61,
4.926,2.15,-5.24,-7.85,2.47,0.94,-0.60,
4.926,2.15,-5.24,-7.85,2.47,0.90,-0.60,
4.927,0.94,-5.93,-7.01,2.47,0.90,-0.60,
4.927,0.94,-5.93,-7.01,2.45,0.86,-0.59,
4.927,0.94,-5.93,-7.01,2.44,0.81,-0.58,
4.928,0.94,-5.93,-7.01,2.43,0.75,-0.55,
4.928,0.94,-5.93,-7.01,2.42,0.72,-0.54,
4.928,0.94,-5.93,-7.01,2.41,0.68,-0.52,
4.928,-0.42,-6.61,-6.54,2.41,0.68,-0.52,
4.929,-0.42,-6.61,-6.54,2.41,0.63,-0.49,
4.931,-0.42,-6.61,-6.54,2.40,0.58,-0.46,
4.933,-0.42,-6.61,-6.54,2.39,0.49,-0.41,
