
time,ax,ay,az,wx,wy,wz,
0.002,-0.96,-0.31,0.05,0.10,-0.86,-0.42,
0.003,-0.96,-0.31,0.05,0.10,-0.89,-0.41,
0.003,-0.96,-0.31,0.05,0.09,-0.93,-0.40,
0.003,-0.96,-0.31,0.05,0.09,-0.96,-0.40,
0.003,-0.96,-0.31,0.05,0.09,-0.99,-0.39,
0.003,-0.96,-0.31,0.05,0.08,-1.01,-0.38,
0.004,-0.99,-0.49,-0.20,0.08,-1.01,-0.38,
0.005,-0.99,-0.49,-0.20,0.08,-1.03,-0.37,
0.005,-0.99,-0.49,-0.20,0.07,-1.05,-0.37,
0.024,-0.99,-0.49,-0.20,0.06,-1.07,-0.36,
0.024,-0.99,-0.49,-0.20,0.05,-1.09,-0.36,
0.024,-0.99,-0.49,-0.20,0.04,-1.11,-0.35,
0.025,-0.94,-0.54,-0.57,0.04,-1.11,-0.35,
0.025,-0.94,-0.54,-0.57,0.02,-1.13,-0.35,
0.025,-0.94,-0.54,-0.57,0.01,-1.14,-0.35,
0.025,-0.94,-0.54,-0.57,-0.01,-1.16,-0.34,
0.025,-0.94,-0.54,-0.57,-0.03,-1.17,-0.34,
0.026,-0.94,-0.54,-0.57,-0.05,-1.19,-0.34,
0.026,-0.88,-0.48,-0.91,-0.05,-1.19,-0.34,
0.026,-0.88,-0.48,-0.91,-0.07,-1.19,-0.33,
0.026,-0.88,-0.48,-0.91,-0.09,-1.19,-0.33,
0.072,-0.88,-0.48,-0.91,-0.11,-1.19,-0.32,
0.073,-0.88,-0.48,-0.91,-0.14,-1.20,-0.31,
0.073,-0.88,-0.48,-0.91,-0.16,-1.20,-0.31,
0.073,-0.92,-0.56,-1.20,-0.16,-1.20,-0.31,
0.073,-0.92,-0.56,-1.20,-0.19,-1.20,-0.30,
0.073,-0.92,-0.56,-1.20,-0.21,-1.20,-0.29,
0.073,-0.92,-0.56,-1.20,-0.23,-1.21,-0.28,
0.074,-0.92,-0.56,-1.20,-0.26,-1.22,-0.27,
0.074,-0.92,-0.56,-1.20,-0.28,-1.22,-0.26,
0.074,-0.83,-0.75,-1.15,-0.28,-1.22,-0.26,
0.074,-0.83,-0.75,-1.15,-0.30,-1.22,-0.25,
0.074,-0.83,-0.75,-1.15,-0.32,-1.22,-0.25,
0.075,-0.83,-0.75,-1.15,-0.33,-1.22,-0.25,
0.075,-0.83,-0.75,-1.15,-0.35,-1.21,-0.25,
0.075,-0.83,-0.75,-1.15,-0.36,-1.20,-0.25,
0.075,-0.58,-0.88,-0.98,-0.36,-1.20,-0.25,
0.075,-0.58,-0.88,-0.98,-0.37,-1.19,-0.25,
0.076,-0.58,-0.88,-0.98,-0.38,-1.18,-0.26,
0.076,-0.58,-0.88,-0.98,-0.39,-1.18,-0.27,
0.076,-0.58,-0.88,-0.98,-0.39,-1.18,-0.27,
0.076,-0.58,-0.88,-0.98,-0.39,-1.18,-0.28,
0.076,-0.33,-0.89,-0.71,-0.39,-1.18,-0.28,
0.076,-0.33,-0.89,-0.71,-0.40,-1.19,-0.29,
0.077,-0.33,-0.89,-0.71,-0.39,-1.20,-0.30,
0.077,-0.33,-0.89,-0.71,-0.39,-1.21,-0.31,
0.077,-0.33,-0.89,-0.71,-0.39,-1.22,-0.32,
0.077,-0.33,-0.89,-0.71,-0.38,-1.24,-0.33,
0.077,-0.36,-0.94,-0.44,-0.38,-1.24,-0.33,
0.077,-0.36,-0.94,-0.44,-0.38,-1.26,-0.34,
0.078,-0.36,-0.94,-0.44,-0.37,-1.28,-0.35,
0.078,-0.36,-0.94,-0.44,-0.36,-1.31,-0.35,
0.095,-0.36,-0.94,-0.44,-0.35,-1.35,-0.36,
0.096,-0.36,-0.94,-0.44,-0.34,-1.38,-0.36,
0.096,-0.68,-0.97,-0.32,-0.34,-1.38,-0.36,
0.096,-0.68,-0.97,-0.32,-0.32,-1.42,-0.36,
0.096,-0.68,-0.97,-0.32,-0.31,-1.47,-0.36,
0.097,-0.68,-0.97,-0.32,-0.29,-1.51,-0.35,
0.097,-0.68,-0.97,-0.32,-0.27,-1.56,-0.33,
0.097,-0.68,-0.97,-0.32,-0.25,-1.61,-0.32,
0.098,-1.48,-1.20,-0.08,-0.25,-1.61,-0.32,
0.098,-1.48,-1.20,-0.08,-0.22,-1.67,-0.30,
0.098,-1.48,-1.20,-0.08,-0.20,-1.73,-0.28,
0.098,-1.48,-1.20,-0.08,-0.17,-1.79,-0.25,
0.112,-1.48,-1.20,-0.08,-0.14,-1.85,-0.23,
0.112,-1.48,-1.20,-0.08,-0.11,-1.91,-0.20,
0.113,-1.96,-1.25,0.23,-0.11,-1.91,-0.20,
0.113,-1.96,-1.25,0.23,-0.08,-1.98,-0.18,
0.113,-1.96,-1.25,0.23,-0.05,-2.04,-0.15,
0.114,-1.96,-1.25,0.23,-0.01,-2.10,-0.12,
0.114,-1.96,-1.25,0.23,0.02,-2.15,-0.10,
0.137,-1.96,-1.25,0.23,0.05,-2.20,-0.07,
0.138,-1.90,-1.25,0.31,0.05,-2.20,-0.07,
0.138,-1.90,-1.25,0.31,0.13,-2.30,-0.02,
0.138,-1.90,-1.25,0.31,0.13,-2.30,-0.02,
0.138,-1.90,-1.25,0.31,0.15,-2.33,-0.01,
0.156,-1.90,-1.25,0.31,0.15,-2.33,-0.01,
0.157,-1.90,-1.25,0.31,0.18,-2.36,0.01,
0.157,-1.48,-1.12,-0.06,0.18,-2.36,0.01,
0.158,-1.48,-1.12,-0.06,0.20,-2.39,0.01,
0.158,-1.48,-1.12,-0.06,0.22,-2.42,0.02,
0.158,-1.48,-1.12,-0.06,0.24,-2.45,0.03,
0.159,-1.48,-1.12,-0.06,0.27,-2.48,0.03,
0.159,-1.48,-1.12,-0.06,0.29,-2.52,0.03,
0.16,-1.12,-1.02,-0.09,0.29,-2.52,0.03,
0.16,-1.12,-1.02,-0.09,0.31,-2.55,0.03,
0.16,-1.12,-1.02,-0.09,0.33,-2.58,0.03,
0.161,-1.12,-1.02,-0.09,0.35,-2.61,0.03,
0.161,-1.12,-1.02,-0.09,0.36,-2.63,0.02,
0.161,-1.12,-1.02,-0.09,0.37,-2.64,0.00,
0.162,-0.46,-0.78,-0.35,0.37,-2.64,0.00,
0.162,-0.46,-0.78,-0.35,0.38,-2.64,-0.02,
0.162,-0.46,-0.78,-0.35,0.38,-2.65,-0.03,
0.162,-0.46,-0.78,-0.35,0.39,-2.64,-0.06,
0.163,-0.46,-0.78,-0.35,0.39,-2.64,-0.08,
0.163,-0.46,-0.78,-0.35,0.39,-2.63,-0.10,
0.163,0.24,-0.46,-0.66,0.39,-2.63,-0.10,
0.163,0.24,-0.46,-0.66,0.38,-2.63,-0.12,
0.171,0.24,-0.46,-0.66,0.38,-2.62,-0.15,
0.171,0.24,-0.46,-0.66,0.38,-2.61,-0.18,
0.172,0.24,-0.46,-0.66,0.38,-2.59,-0.20,
0.172,0.24,-0.46,-0.66,0.37,-2.58,-0.23,
0.172,0.78,-0.23,-0.74,0.37,-2.58,-0.23,
0.173,0.78,-0.23,-0.74,0.37,-2.56,-0.26,
0.173,0.78,-0.23,-0.74,0.36,-2.55,-0.29,
0.173,0.78,-0.23,-0.74,0.35,-2.53,-0.32,
0.173,0.78,-0.23,-0.74,0.33,-2.52,-0.35,
0.174,0.78,-0.23,-0.74,0.31,-2.52,-0.39,
0.18,1.06,-0.09,-1.05,0.31,-2.52,-0.39,
0.18,1.06,-0.09,-1.05,0.29,-2.51,-0.42,
0.18,1.06,-0.09,-1.05,0.27,-2.51,-0.45,
0.181,1.06,-0.09,-1.05,0.25,-2.51,-0.47,
0.181,1.06,-0.09,-1.05,0.22,-2.51,-0.50,
0.182,1.06,-0.09,-1.05,0.19,-2.52,-0.52,
0.186,0.72,-0.01,-1.33,0.19,-2.52,-0.52,
0.186,0.72,-0.01,-1.33,0.17,-2.53,-0.53,
0.187,0.72,-0.01,-1.33,0.13,-2.55,-0.55,
0.188,0.72,-0.01,-1.33,0.10,-2.56,-0.56,
0.203,0.72,-0.01,-1.33,0.07,-2.57,-0.56,
0.204,0.72,-0.01,-1.33,0.03,-2.57,-0.57,
0.204,-0.00,0.17,-1.69,0.03,-2.57,-0.57,
0.204,-0.00,0.17,-1.69,-0.01,-2.58,-0.57,
0.204,-0.00,0.17,-1.69,-0.04,-2.58,-0.56,
0.204,-0.00,0.17,-1.69,-0.08,-2.58,-0.55,
0.205,-0.00,0.17,-1.69,-0.13,-2.58,-0.54,
0.205,-0.00,0.17,-1.69,-0.17,-2.57,-0.53,
0.205,-0.66,0.35,-2.03,-0.17,-2.57,-0.53,
0.205,-0.66,0.35,-2.03,-0.22,-2.56,-0.51,
0.206,-0.66,0.35,-2.03,-0.26,-2.55,-0.50,
0.209,-0.66,0.35,-2.03,-0.31,-2.53,-0.48,
0.21,-0.66,0.35,-2.03,-0.36,-2.52,-0.45,
0.212,-0.66,0.35,-2.03,-0.41,-2.50,-0.43,
0.217,-1.05,0.52,-2.20,-0.41,-2.50,-0.43,
0.217,-1.05,0.52,-2.20,-0.47,-2.48,-0.41,
0.217,-1.05,0.52,-2.20,-0.52,-2.46,-0.38,
0.218,-1.05,0.52,-2.20,-0.57,-2.44,-0.36,
0.22,-1.05,0.52,-2.20,-0.62,-2.41,-0.33,
0.222,-1.05,0.52,-2.20,-0.67,-2.37,-0.30,
0.263,-1.01,0.52,-2.27,-0.67,-2.37,-0.30,
0.264,-1.01,0.52,-2.27,-0.71,-2.33,-0.28,
0.264,-1.01,0.52,-2.27,-0.76,-2.28,-0.26,
0.264,-1.01,0.52,-2.27,-0.80,-2.23,-0.24,
0.264,-1.01,0.52,-2.27,-0.84,-2.18,-0.22,
0.264,-1.01,0.52,-2.27,-0.87,-2.14,-0.21,
0.265,-0.26,0.32,-1.68,-0.87,-2.14,-0.21,
0.265,-0.26,0.32,-1.68,-0.91,-2.10,-0.20,
0.265,-0.26,0.32,-1.68,-0.93,-2.05,-0.20,
0.265,-0.26,0.32,-1.68,-0.96,-2.02,-0.20,
0.265,-0.26,0.32,-1.68,-0.99,-1.98,-0.20,
0.265,-0.26,0.32,-1.68,-1.01,-1.94,-0.21,
0.266,0.79,-0.06,-0.92,-1.01,-1.94,-0.21,
0.266,0.79,-0.06,-0.92,-1.03,-1.90,-0.22,
0.266,0.79,-0.06,-0.92,-1.05,-1.86,-0.22,
0.266,0.79,-0.06,-0.92,-1.06,-1.83,-0.24,
0.266,0.79,-0.06,-0.92,-1.08,-1.80,-0.25,
0.267,0.79,-0.06,-0.92,-1.09,-1.76,-0.26,
0.267,1.48,-0.28,-0.26,-1.09,-1.76,-0.26,
0.267,1.48,-0.28,-0.26,-1.10,-1.73,-0.28,
0.267,1.48,-0.28,-0.26,-1.11,-1.71,-0.29,
0.267,1.48,-0.28,-0.26,-1.12,-1.68,-0.31,
0.268,1.48,-0.28,-0.26,-1.13,-1.66,-0.32,
0.268,1.48,-0.28,-0.26,-1.13,-1.64,-0.34,
0.268,1.67,-0.30,0.10,-1.13,-1.64,-0.34,
0.268,1.67,-0.30,0.10,-1.14,-1.63,-0.35,
0.268,1.67,-0.30,0.10,-1.14,-1.61,-0.36,
0.269,1.67,-0.30,0.10,-1.14,-1.60,-0.38,
0.272,1.67,-0.30,0.10,-1.15,-1.61,-0.39,
0.273,1.67,-0.30,0.10,-1.15,-1.63,-0.40,
0.276,2.20,-0.10,0.23,-1.15,-1.63,-0.40,
0.279,2.20,-0.10,0.23,-1.15,-1.65,-0.42,
0.28,2.20,-0.10,0.23,-1.15,-1.65,-0.44,
0.281,2.20,-0.10,0.23,-1.15,-1.65,-0.46,
0.281,2.20,-0.10,0.23,-1.15,-1.63,-0.48,
0.283,2.20,-0.10,0.23,-1.15,-1.62,-0.50,
0.284,2.06,-0.05,0.27,-1.15,-1.62,-0.50,
0.285,2.06,-0.05,0.27,-1.15,-1.61,-0.52,
0.305,2.06,-0.05,0.27,-1.15,-1.61,-0.54,
0.305,2.06,-0.05,0.27,-1.15,-1.61,-0.56,
0.305,2.06,-0.05,0.27,-1.15,-1.62,-0.57,
0.306,2.06,-0.05,0.27,-1.16,-1.63,-0.59,
0.306,1.49,0.11,-0.20,-1.16,-1.63,-0.59,
0.306,1.49,0.11,-0.20,-1.16,-1.65,-0.60,
0.306,1.49,0.11,-0.20,-1.16,-1.66,-0.60,
0.307,1.49,0.11,-0.20,-1.16,-1.67,-0.61,
0.307,1.49,0.11,-0.20,-1.15,-1.68,-0.61,
0.307,1.49,0.11,-0.20,-1.15,-1.69,-0.61,
0.308,0.74,0.24,-0.44,-1.15,-1.69,-0.61,
0.308,0.74,0.24,-0.44,-1.15,-1.71,-0.61,
0.308,0.74,0.24,-0.44,-1.14,-1.71,-0.61,
0.308,0.74,0.24,-0.44,-1.13,-1.71,-0.60,
0.323,0.74,0.24,-0.44,-1.13,-1.70,-0.59,
0.324,0.74,0.24,-0.44,-1.12,-1.68,-0.58,
0.324,0.14,0.31,-0.52,-1.12,-1.68,-0.58,
0.324,0.14,0.31,-0.52,-1.11,-1.66,-0.57,
0.324,0.14,0.31,-0.52,-1.11,-1.63,-0.56,
0.325,0.14,0.31,-0.52,-1.10,-1.61,-0.55,
0.325,0.14,0.31,-0.52,-1.09,-1.58,-0.53,
0.325,0.14,0.31,-0.52,-1.08,-1.56,-0.51,
0.325,-0.24,0.20,-0.74,-1.08,-1.56,-0.51,
0.325,-0.24,0.20,-0.74,-1.07,-1.54,-0.49,
0.327,-0.24,0.20,-0.74,-1.07,-1.53,-0.48,
0.328,-0.24,0.20,-0.74,-1.07,-1.51,-0.46,
0.332,-0.24,0.20,-0.74,-1.06,-1.49,-0.44,
0.332,-0.24,0.20,-0.74,-1.06,-1.48,-0.42,
0.334,-0.13,0.06,-1.21,-1.06,-1.48,-0.42,
0.334,-0.13,0.06,-1.21,-1.06,-1.47,-0.41,
0.336,-0.13,0.06,-1.21,-1.06,-1.46,-0.40,
0.339,-0.13,0.06,-1.21,-1.06,-1.46,-0.39,
0.34,-0.13,0.06,-1.21,-1.07,-1.46,-0.39,
0.356,-0.13,0.06,-1.21,-1.07,-1.46,-0.39,
0.357,0.58,-0.01,-1.50,-1.07,-1.46,-0.39,
0.357,0.58,-0.01,-1.50,-1.08,-1.45,-0.39,
0.357,0.58,-0.01,-1.50,-1.09,-1.45,-0.40,
0.357,0.58,-0.01,-1.50,-1.10,-1.44,-0.41,
0.357,0.58,-0.01,-1.50,-1.11,-1.42,-0.42,
0.358,0.58,-0.01,-1.50,-1.12,-1.40,-0.44,
0.358,1.39,0.03,-1.70,-1.12,-1.40,-0.44,
0.358,1.39,0.03,-1.70,-1.14,-1.39,-0.45,
0.358,1.39,0.03,-1.70,-1.16,-1.38,-0.46,
0.358,1.39,0.03,-1.70,-1.17,-1.36,-0.48,
0.36,1.39,0.03,-1.70,-1.19,-1.34,-0.49,
0.361,1.39,0.03,-1.70,-1.21,-1.33,-0.51,
0.364,1.76,0.17,-1.67,-1.21,-1.33,-0.51,
0.364,1.76,0.17,-1.67,-1.22,-1.32,-0.51,
0.365,1.76,0.17,-1.67,-1.24,-1.31,-0.52,
0.368,1.76,0.17,-1.67,-1.26,-1.30,-0.53,
0.369,1.76,0.17,-1.67,-1.28,-1.30,-0.53,
0.372,1.76,0.17,-1.67,-1.30,-1.30,-0.53,
0.374,1.67,0.32,-1.49,-1.30,-1.30,-0.53,
0.374,1.67,0.32,-1.49,-1.32,-1.30,-0.53,
0.376,1.67,0.32,-1.49,-1.34,-1.29,-0.52,
0.377,1.67,0.32,-1.49,-1.36,-1.28,-0.51,
0.379,1.67,0.32,-1.49,-1.39,-1.27,-0.50,
0.381,1.67,0.32,-1.49,-1.41,-1.26,-0.49,
0.384,1.13,0.33,-1.22,-1.41,-1.26,-0.49,
0.384,1.13,0.33,-1.22,-1.44,-1.25,-0.47,
0.386,1.13,0.33,-1.22,-1.47,-1.23,-0.45,
0.387,1.13,0.33,-1.22,-1.50,-1.21,-0.43,
0.391,1.13,0.33,-1.22,-1.53,-1.20,-0.40,
0.392,1.13,0.33,-1.22,-1.56,-1.19,-0.38,
0.395,0.56,0.43,-1.06,-1.56,-1.19,-0.38,
0.395,0.56,0.43,-1.06,-1.59,-1.18,-0.35,
0.396,0.56,0.43,-1.06,-1.62,-1.17,-0.33,
0.397,0.56,0.43,-1.06,-1.65,-1.16,-0.30,
0.399,0.56,0.43,-1.06,-1.68,-1.16,-0.28,
0.401,0.56,0.43,-1.06,-1.70,-1.15,-0.25,
0.408,0.08,0.72,-0.85,-1.70,-1.15,-0.25,
0.408,0.08,0.72,-0.85,-1.73,-1.14,-0.23,
0.41,0.08,0.72,-0.85,-1.75,-1.13,-0.20,
0.411,0.08,0.72,-0.85,-1.77,-1.13,-0.18,
0.411,0.08,0.72,-0.85,-1.78,-1.13,-0.16,
0.42,0.08,0.72,-0.85,-1.80,-1.12,-0.13,
0.421,-0.17,1.04,-0.56,-1.80,-1.12,-0.13,
0.421,-0.17,1.04,-0.56,-1.81,-1.11,-0.11,
0.422,-0.17,1.04,-0.56,-1.81,-1.10,-0.10,
0.422,-0.17,1.04,-0.56,-1.81,-1.09,-0.08,
0.423,-0.17,1.04,-0.56,-1.82,-1.08,-0.07,
0.424,-0.17,1.04,-0.56,-1.82,-1.06,-0.06,
0.426,-0.09,1.08,-0.31,-1.82,-1.06,-0.06,
0.427,-0.09,1.08,-0.31,-1.82,-1.04,-0.05,
0.428,-0.09,1.08,-0.31,-1.81,-1.03,-0.05,
0.428,-0.09,1.08,-0.31,-1.81,-1.02,-0.05,
0.43,-0.09,1.08,-0.31,-1.80,-0.99,-0.05,
0.431,-0.09,1.08,-0.31,-1.79,-0.95,-0.06,
0.434,0.11,1.00,-0.04,-1.79,-0.95,-0.06,
0.434,0.11,1.00,-0.04,-1.77,-0.92,-0.08,
0.436,0.11,1.00,-0.04,-1.76,-0.88,-0.10,
0.438,0.11,1.00,-0.04,-1.75,-0.85,-0.11,
0.44,0.11,1.00,-0.04,-1.74,-0.82,-0.13,
0.443,0.11,1.00,-0.04,-1.71,-0.78,-0.15,
0.444,0.12,1.00,0.20,-1.71,-0.78,-0.15,
0.444,0.12,1.00,0.20,-1.69,-0.74,-0.16,
0.445,0.12,1.00,0.20,-1.67,-0.70,-0.18,
0.448,0.12,1.00,0.20,-1.65,-0.66,-0.19,
0.45,0.12,1.00,0.20,-1.63,-0.62,-0.21,
0.452,0.12,1.00,0.20,-1.60,-0.60,-0.23,
0.468,-0.23,0.84,0.52,-1.60,-0.60,-0.23,
0.468,-0.23,0.84,0.52,-1.57,-0.59,-0.25,
0.468,-0.23,0.84,0.52,-1.55,-0.59,-0.27,
0.469,-0.23,0.84,0.52,-1.52,-0.60,-0.30,
0.469,-0.23,0.84,0.52,-1.48,-0.62,-0.32,
0.469,-0.23,0.84,0.52,-1.45,-0.64,-0.36,
0.469,-0.37,0.23,1.21,-1.45,-0.64,-0.36,
0.47,-0.37,0.23,1.21,-1.42,-0.65,-0.40,
0.47,-0.37,0.23,1.21,-1.39,-0.66,-0.44,
0.47,-0.37,0.23,1.21,-1.37,-0.66,-0.49,
0.47,-0.37,0.23,1.21,-1.35,-0.66,-0.54,
0.475,-0.37,0.23,1.21,-1.34,-0.65,-0.60,
0.475,-0.35,-0.17,0.80,-1.34,-0.65,-0.60,
0.476,-0.35,-0.17,0.80,-1.34,-0.64,-0.66,
0.477,-0.35,-0.17,0.80,-1.34,-0.61,-0.73,
0.478,-0.35,-0.17,0.80,-1.35,-0.57,-0.80,
0.479,-0.35,-0.17,0.80,-1.36,-0.53,-0.86,
0.481,-0.35,-0.17,0.80,-1.38,-0.48,-0.94,
0.486,-0.45,-0.29,-0.17,-1.38,-0.48,-0.94,
0.486,-0.45,-0.29,-0.17,-1.40,-0.43,-1.01,
0.487,-0.45,-0.29,-0.17,-1.43,-0.36,-1.09,
0.49,-0.45,-0.29,-0.17,-1.46,-0.29,-1.17,
0.49,-0.45,-0.29,-0.17,-1.49,-0.22,-1.25,
0.492,-0.45,-0.29,-0.17,-1.52,-0.14,-1.33,
0.495,-0.71,-0.36,-0.95,-1.52,-0.14,-1.33,
0.496,-0.71,-0.36,-0.95,-1.56,-0.07,-1.40,
0.501,-0.71,-0.36,-0.95,-1.59,0.01,-1.48,
0.501,-0.71,-0.36,-0.95,-1.62,0.07,-1.55,
0.501,-0.71,-0.36,-0.95,-1.65,0.14,-1.61,
0.502,-0.71,-0.36,-0.95,-1.67,0.22,-1.65,
0.504,-0.83,-0.43,-1.18,-1.67,0.22,-1.65,
0.505,-0.83,-0.43,-1.18,-1.69,0.29,-1.69,
0.506,-0.83,-0.43,-1.18,-1.70,0.35,-1.71,
0.508,-0.83,-0.43,-1.18,-1.71,0.41,-1.73,
0.511,-0.83,-0.43,-1.18,-1.71,0.46,-1.73,
0.513,-0.83,-0.43,-1.18,-1.71,0.51,-1.73,
0.515,-1.46,-0.27,-0.76,-1.71,0.51,-1.73,
0.515,-1.46,-0.27,-0.76,-1.71,0.55,-1.72,
0.516,-1.46,-0.27,-0.76,-1.70,0.58,-1.71,
0.518,-1.46,-0.27,-0.76,-1.69,0.61,-1.70,
0.52,-1.46,-0.27,-0.76,-1.67,0.64,-1.70,
0.528,-1.46,-0.27,-0.76,-1.65,0.66,-1.69,
0.528,-2.64,-0.03,0.01,-1.65,0.66,-1.69,
0.529,-2.64,-0.03,0.01,-1.63,0.67,-1.68,
0.529,-2.64,-0.03,0.01,-1.60,0.68,-1.67,
0.529,-2.64,-0.03,0.01,-1.56,0.68,-1.66,
0.532,-2.64,-0.03,0.01,-1.53,0.67,-1.65,
0.532,-2.64,-0.03,0.01,-1.49,0.66,-1.64,
0.535,-2.95,-0.07,0.67,-1.49,0.66,-1.64,
0.535,-2.95,-0.07,0.67,-1.45,0.65,-1.62,
0.536,-2.95,-0.07,0.67,-1.41,0.62,-1.61,
0.538,-2.95,-0.07,0.67,-1.37,0.60,-1.59,
0.541,-2.95,-0.07,0.67,-1.33,0.57,-1.57,
0.544,-2.95,-0.07,0.67,-1.29,0.53,-1.55,
0.546,-2.84,-0.32,0.81,-1.29,0.53,-1.55,
0.546,-2.84,-0.32,0.81,-1.26,0.49,-1.52,
0.547,-2.84,-0.32,0.81,-1.22,0.44,-1.49,
0.548,-2.84,-0.32,0.81,-1.18,0.36,-1.47,
0.551,-2.84,-0.32,0.81,-1.15,0.27,-1.45,
0.554,-2.84,-0.32,0.81,-1.12,0.18,-1.42,
0.554,-2.68,-0.77,1.46,-1.12,0.18,-1.42,
0.555,-2.68,-0.77,1.46,-1.10,0.08,-1.40,
0.556,-2.68,-0.77,1.46,-1.08,-0.01,-1.39,
0.558,-2.68,-0.77,1.46,-1.07,-0.10,-1.37,
0.561,-2.68,-0.77,1.46,-1.07,-0.18,-1.35,
0.563,-2.68,-0.77,1.46,-1.09,-0.24,-1.33,
0.564,-2.32,-1.16,0.76,-1.09,-0.24,-1.33,
0.565,-2.32,-1.16,0.76,-1.11,-0.28,-1.30,
0.565,-2.32,-1.16,0.76,-1.14,-0.32,-1.28,
0.568,-2.32,-1.16,0.76,-1.17,-0.34,-1.25,
0.57,-2.32,-1.16,0.76,-1.22,-0.36,-1.22,
0.572,-2.32,-1.16,0.76,-1.27,-0.36,-1.19,
0.578,-2.36,-1.27,-1.21,-1.27,-0.36,-1.19,
0.578,-2.36,-1.27,-1.21,-1.33,-0.35,-1.15,
0.579,-2.36,-1.27,-1.21,-1.39,-0.34,-1.11,
0.579,-2.36,-1.27,-1.21,-1.46,-0.33,-1.08,
0.58,-2.36,-1.27,-1.21,-1.53,-0.31,-1.04,
0.588,-2.36,-1.27,-1.21,-1.60,-0.28,-1.00,
0.589,-2.38,-1.45,-2.93,-1.60,-0.28,-1.00,
0.589,-2.38,-1.45,-2.93,-1.71,-0.24,-0.95,
0.589,-2.38,-1.45,-2.93,-1.75,-0.23,-0.94,
0.607,-2.38,-1.45,-2.93,-1.83,-0.20,-0.91,
0.607,-2.38,-1.45,-2.93,-1.91,-0.17,-0.88,
0.608,-2.38,-1.45,-2.93,-1.99,-0.15,-0.86,
0.608,-1.98,-1.97,-3.90,-1.99,-0.15,-0.86,
0.608,-1.98,-1.97,-3.90,-2.07,-0.13,-0.85,
0.608,-1.98,-1.97,-3.90,-2.15,-0.12,-0.83,
0.608,-1.98,-1.97,-3.90,-2.22,-0.11,-0.82,
0.609,-1.98,-1.97,-3.90,-2.30,-0.11,-0.82,
0.609,-1.98,-1.97,-3.90,-2.37,-0.11,-0.82,
0.609,-1.29,-2.71,-4.10,-2.37,-0.11,-0.82,
0.609,-1.29,-2.71,-4.10,-2.45,-0.12,-0.83,
0.61,-1.29,-2.71,-4.10,-2.52,-0.13,-0.83,
0.61,-1.29,-2.71,-4.10,-2.60,-0.14,-0.85,
0.611,-1.29,-2.71,-4.10,-2.67,-0.15,-0.86,
0.612,-1.29,-2.71,-4.10,-2.75,-0.16,-0.87,
0.616,-0.54,-3.17,-4.25,-2.75,-0.16,-0.87,
0.616,-0.54,-3.17,-4.25,-2.83,-0.17,-0.89,
0.616,-0.54,-3.17,-4.25,-2.92,-0.19,-0.90,
0.618,-0.54,-3.17,-4.25,-3.00,-0.20,-0.91,
0.637,-0.54,-3.17,-4.25,-3.09,-0.22,-0.93,
0.638,-0.54,-3.17,-4.25,-3.18,-0.24,-0.94,
0.638,-0.34,-3.33,-4.45,-3.18,-0.24,-0.94,
0.639,-0.34,-3.33,-4.45,-3.26,-0.26,-0.96,
0.639,-0.34,-3.33,-4.45,-3.34,-0.27,-0.97,
0.639,-0.34,-3.33,-4.45,-3.42,-0.29,-0.99,
0.639,-0.34,-3.33,-4.45,-3.49,-0.30,-1.00,
0.64,-0.34,-3.33,-4.45,-3.57,-0.30,-1.01,
0.64,-0.37,-3.53,-3.94,-3.57,-0.30,-1.01,
0.64,-0.37,-3.53,-3.94,-3.64,-0.30,-1.01,
0.64,-0.37,-3.53,-3.94,-3.70,-0.29,-1.02,
0.641,-0.37,-3.53,-3.94,-3.77,-0.29,-1.01,
0.645,-0.37,-3.53,-3.94,-3.84,-0.29,-1.01,
0.646,-0.37,-3.53,-3.94,-3.89,-0.29,-1.01,
0.647,-0.87,-3.51,-3.24,-3.89,-0.29,-1.01,
0.647,-0.87,-3.51,-3.24,-3.95,-0.30,-1.01,
0.654,-0.87,-3.51,-3.24,-4.01,-0.31,-1.01,
0.654,-0.87,-3.51,-3.24,-4.07,-0.31,-1.02,
0.654,-0.87,-3.51,-3.24,-4.13,-0.30,-1.04,
0.655,-0.87,-3.51,-3.24,-4.19,-0.28,-1.06,
0.656,-0.38,-3.78,-2.42,-4.19,-0.28,-1.06,
0.656,-0.38,-3.78,-2.42,-4.26,-0.25,-1.09,
0.657,-0.38,-3.78,-2.42,-4.33,-0.22,-1.12,
0.659,-0.38,-3.78,-2.42,-4.41,-0.18,-1.16,
0.66,-0.38,-3.78,-2.42,-4.49,-0.14,-1.21,
0.666,-0.38,-3.78,-2.42,-4.58,-0.09,-1.26,
0.666,0.74,-3.94,-2.45,-4.58,-0.09,-1.26,
0.666,0.74,-3.94,-2.45,-4.66,-0.03,-1.32,
0.667,0.74,-3.94,-2.45,-4.75,0.02,-1.39,
0.671,0.74,-3.94,-2.45,-4.84,0.07,-1.46,
0.671,0.74,-3.94,-2.45,-4.93,0.13,-1.54,
0.674,0.74,-3.94,-2.45,-5.02,0.18,-1.62,
0.68,1.92,-4.62,-2.18,-5.02,0.18,-1.62,
0.68,1.92,-4.62,-2.18,-5.10,0.22,-1.70,
0.68,1.92,-4.62,-2.18,-5.17,0.26,-1.79,
0.68,1.92,-4.62,-2.18,-5.24,0.28,-1.88,
0.681,1.92,-4.62,-2.18,-5.31,0.29,-1.97,
0.681,1.92,-4.62,-2.18,-5.37,0.29,-2.05,
0.684,2.31,-4.70,-0.89,-5.37,0.29,-2.05,
0.684,2.31,-4.70,-0.89,-5.42,0.28,-2.13,
0.685,2.31,-4.70,-0.89,-5.47,0.26,-2.19,
0.689,2.31,-4.70,-0.89,-5.51,0.24,-2.25,
0.69,2.31,-4.70,-0.89,-5.54,0.22,-2.30,
0.691,2.31,-4.70,-0.89,-5.56,0.19,-2.34,
0.694,1.39,-3.99,0.57,-5.56,0.19,-2.34,
0.695,1.39,-3.99,0.57,-5.57,0.14,-2.37,
0.696,1.39,-3.99,0.57,-5.58,0.06,-2.40,
0.697,1.39,-3.99,0.57,-5.59,-0.02,-2.42,
0.699,1.39,-3.99,0.57,-5.60,-0.11,-2.44,
0.701,1.39,-3.99,0.57,-5.59,-0.19,-2.45,
0.704,1.08,-2.90,1.60,-5.59,-0.19,-2.45,
0.704,1.08,-2.90,1.60,-5.58,-0.25,-2.47,
0.706,1.08,-2.90,1.60,-5.57,-0.32,-2.47,
0.708,1.08,-2.90,1.60,-5.55,-0.38,-2.48,
0.709,1.08,-2.90,1.60,-5.53,-0.43,-2.47,
0.711,1.08,-2.90,1.60,-5.50,-0.47,-2.47,
0.714,1.14,-2.23,2.19,-5.50,-0.47,-2.47,
0.714,1.14,-2.23,2.19,-5.48,-0.51,-2.46,
0.716,1.14,-2.23,2.19,-5.44,-0.55,-2.44,
0.718,1.14,-2.23,2.19,-5.40,-0.58,-2.42,
0.719,1.14,-2.23,2.19,-5.36,-0.61,-2.39,
0.721,1.14,-2.23,2.19,-5.31,-0.64,-2.37,
0.725,0.99,-2.40,3.16,-5.31,-0.64,-2.37,
0.725,0.99,-2.40,3.16,-5.27,-0.68,-2.34,
0.725,0.99,-2.40,3.16,-5.22,-0.71,-2.32,
0.728,0.99,-2.40,3.16,-5.18,-0.74,-2.30,
0.73,0.99,-2.40,3.16,-5.14,-0.77,-2.28,
0.732,0.99,-2.40,3.16,-5.10,-0.79,-2.26,
0.734,1.31,-2.95,4.31,-5.10,-0.79,-2.26,
0.734,1.31,-2.95,4.31,-5.07,-0.81,-2.25,
0.736,1.31,-2.95,4.31,-5.04,-0.83,-2.24,
0.737,1.31,-2.95,4.31,-5.01,-0.85,-2.23,
0.74,1.31,-2.95,4.31,-4.99,-0.88,-2.22,
0.742,1.31,-2.95,4.31,-4.98,-0.91,-2.21,
0.744,1.87,-2.77,4.92,-4.98,-0.91,-2.21,
0.744,1.87,-2.77,4.92,-4.97,-0.93,-2.20,
0.745,1.87,-2.77,4.92,-4.97,-0.96,-2.18,
0.747,1.87,-2.77,4.92,-4.97,-0.98,-2.16,
0.749,1.87,-2.77,4.92,-4.98,-0.99,-2.14,
0.751,1.87,-2.77,4.92,-4.99,-0.99,-2.11,
0.754,1.89,-2.05,4.97,-4.99,-0.99,-2.11,
0.754,1.89,-2.05,4.97,-5.01,-0.99,-2.09,
0.757,1.89,-2.05,4.97,-5.02,-0.97,-2.06,
0.759,1.89,-2.05,4.97,-5.04,-0.94,-2.03,
0.76,1.89,-2.05,4.97,-5.07,-0.91,-2.00,
0.761,1.89,-2.05,4.97,-5.10,-0.88,-1.97,
0.764,1.93,-1.33,4.79,-5.10,-0.88,-1.97,
0.764,1.93,-1.33,4.79,-5.12,-0.84,-1.94,
0.766,1.93,-1.33,4.79,-5.14,-0.81,-1.91,
0.768,1.93,-1.33,4.79,-5.17,-0.78,-1.89,
0.769,1.93,-1.33,4.79,-5.19,-0.75,-1.87,
0.772,1.93,-1.33,4.79,-5.21,-0.73,-1.85,
0.775,1.92,-0.88,4.80,-5.21,-0.73,-1.85,
0.775,1.92,-0.88,4.80,-5.23,-0.72,-1.83,
0.776,1.92,-0.88,4.80,-5.24,-0.71,-1.81,
0.778,1.92,-0.88,4.80,-5.24,-0.70,-1.79,
0.779,1.92,-0.88,4.80,-5.25,-0.70,-1.77,
0.781,1.92,-0.88,4.80,-5.25,-0.71,-1.75,
0.784,1.59,-1.08,5.20,-5.25,-0.71,-1.75,
0.784,1.59,-1.08,5.20,-5.24,-0.72,-1.72,
0.801,1.59,-1.08,5.20,-5.23,-0.73,-1.70,
0.801,1.59,-1.08,5.20,-5.22,-0.74,-1.67,
0.801,1.59,-1.08,5.20,-5.21,-0.75,-1.65,
0.802,1.59,-1.08,5.20,-5.19,-0.77,-1.62,
0.802,1.32,-1.00,5.76,-5.19,-0.77,-1.62,
0.802,1.32,-1.00,5.76,-5.18,-0.79,-1.60,
0.802,1.32,-1.00,5.76,-5.16,-0.81,-1.57,
0.803,1.32,-1.00,5.76,-5.14,-0.83,-1.56,
0.803,1.32,-1.00,5.76,-5.12,-0.84,-1.55,
0.803,1.32,-1.00,5.76,-5.08,-0.85,-1.54,
0.807,1.87,-1.09,6.68,-5.08,-0.85,-1.54,
0.808,1.87,-1.09,6.68,-5.05,-0.85,-1.54,
0.808,1.87,-1.09,6.68,-5.02,-0.84,-1.55,
0.808,1.87,-1.09,6.68,-4.99,-0.83,-1.57,
0.809,1.87,-1.09,6.68,-4.97,-0.81,-1.58,
0.812,1.87,-1.09,6.68,-4.94,-0.78,-1.61,
0.814,2.93,-0.31,6.97,-4.94,-0.78,-1.61,
0.814,2.93,-0.31,6.97,-4.91,-0.75,-1.64,
0.815,2.93,-0.31,6.97,-4.88,-0.72,-1.66,
0.818,2.93,-0.31,6.97,-4.85,-0.68,-1.69,
0.819,2.93,-0.31,6.97,-4.82,-0.64,-1.72,
0.823,2.93,-0.31,6.97,-4.79,-0.60,-1.75,
0.825,3.27,0.49,6.65,-4.79,-0.60,-1.75,
0.826,3.27,0.49,6.65,-4.74,-0.55,-1.78,
0.827,3.27,0.49,6.65,-4.70,-0.51,-1.80,
0.828,3.27,0.49,6.65,-4.65,-0.47,-1.83,
0.829,3.27,0.49,6.65,-4.61,-0.44,-1.85,
0.831,3.27,0.49,6.65,-4.55,-0.42,-1.86,
0.834,3.14,0.70,6.90,-4.55,-0.42,-1.86,
0.834,3.14,0.70,6.90,-4.50,-0.41,-1.88,
0.835,3.14,0.70,6.90,-4.44,-0.40,-1.89,
0.837,3.14,0.70,6.90,-4.39,-0.41,-1.89,
0.84,3.14,0.70,6.90,-4.33,-0.43,-1.90,
0.841,3.14,0.70,6.90,-4.28,-0.45,-1.91,
0.844,3.18,0.55,6.88,-4.28,-0.45,-1.91,
0.845,3.18,0.55,6.88,-4.23,-0.49,-1.91,
0.846,3.18,0.55,6.88,-4.19,-0.53,-1.92,
0.848,3.18,0.55,6.88,-4.14,-0.57,-1.93,
0.849,3.18,0.55,6.88,-4.10,-0.61,-1.93,
0.851,3.18,0.55,6.88,-4.07,-0.66,-1.93,
0.854,3.42,-0.02,6.90,-4.07,-0.66,-1.93,
0.854,3.42,-0.02,6.90,-4.04,-0.71,-1.94,
0.861,3.42,-0.02,6.90,-4.02,-0.77,-1.94,
0.862,3.42,-0.02,6.90,-4.00,-0.83,-1.95,
0.862,3.42,-0.02,6.90,-3.99,-0.88,-1.96,
0.862,3.42,-0.02,6.90,-3.99,-0.93,-1.98,
0.868,3.68,-0.23,6.25,-3.99,-0.93,-1.98,
0.869,3.68,-0.23,6.25,-3.99,-0.98,-1.99,
0.869,3.68,-0.23,6.25,-4.00,-1.01,-2.01,
0.869,3.68,-0.23,6.25,-4.02,-1.03,-2.03,
0.87,3.68,-0.23,6.25,-4.03,-1.03,-2.05,
0.893,3.68,-0.23,6.25,-4.04,-1.03,-2.06,
0.893,3.85,0.21,5.43,-4.04,-1.03,-2.06,
0.893,3.85,0.21,5.43,-4.05,-1.02,-2.07,
0.893,3.85,0.21,5.43,-4.07,-1.00,-2.09,
0.893,3.85,0.21,5.43,-4.07,-0.99,-2.10,
0.894,3.85,0.21,5.43,-4.08,-0.98,-2.11,
0.894,3.85,0.21,5.43,-4.09,-0.96,-2.12,
0.894,3.25,0.63,5.17,-4.09,-0.96,-2.12,
0.894,3.25,0.63,5.17,-4.09,-0.95,-2.12,
0.894,3.25,0.63,5.17,-4.09,-0.94,-2.13,
0.894,3.25,0.63,5.17,-4.09,-0.93,-2.13,
0.894,3.25,0.63,5.17,-4.09,-0.93,-2.13,
0.895,3.25,0.63,5.17,-4.08,-0.92,-2.13,
0.895,2.65,1.07,5.22,-4.08,-0.92,-2.13,
0.895,2.65,1.07,5.22,-4.07,-0.92,-2.12,
0.895,2.65,1.07,5.22,-4.04,-0.90,-2.12,
0.898,2.65,1.07,5.22,-4.02,-0.89,-2.12,
0.899,2.65,1.07,5.22,-3.98,-0.88,-2.11,
0.901,2.65,1.07,5.22,-3.94,-0.88,-2.11,
0.904,2.14,1.68,5.80,-3.94,-0.88,-2.11,
0.904,2.14,1.68,5.80,-3.90,-0.90,-2.10,
0.906,2.14,1.68,5.80,-3.85,-0.93,-2.09,
0.908,2.14,1.68,5.80,-3.79,-0.97,-2.08,
0.909,2.14,1.68,5.80,-3.74,-1.01,-2.07,
0.912,2.14,1.68,5.80,-3.68,-1.04,-2.06,
0.914,1.30,2.60,6.82,-3.68,-1.04,-2.06,
0.914,1.30,2.60,6.82,-3.61,-1.07,-2.05,
0.916,1.30,2.60,6.82,-3.55,-1.10,-2.03,
0.918,1.30,2.60,6.82,-3.45,-1.13,-2.01,
0.919,1.30,2.60,6.82,-3.42,-1.14,-2.00,
0.921,1.30,2.60,6.82,-3.36,-1.15,-1.97,
0.924,0.56,3.24,6.35,-3.36,-1.15,-1.97,
0.925,0.56,3.24,6.35,-3.30,-1.15,-1.95,
0.926,0.56,3.24,6.35,-3.25,-1.15,-1.92,
0.928,0.56,3.24,6.35,-3.19,-1.14,-1.89,
0.929,0.56,3.24,6.35,-3.13,-1.12,-1.85,
0.931,0.56,3.24,6.35,-3.08,-1.10,-1.81,
0.935,-0.25,3.52,5.50,-3.08,-1.10,-1.81,
0.935,-0.25,3.52,5.50,-2.99,-1.06,-1.75,
0.936,-0.25,3.52,5.50,-2.96,-1.04,-1.73,
0.94,-0.25,3.52,5.50,-2.90,-1.01,-1.68,
0.94,-0.25,3.52,5.50,-2.84,-0.98,-1.63,
0.942,-0.25,3.52,5.50,-2.79,-0.96,-1.58,
0.944,-1.13,3.53,4.89,-2.79,-0.96,-1.58,
0.945,-1.13,3.53,4.89,-2.73,-0.94,-1.54,
0.946,-1.13,3.53,4.89,-2.67,-0.93,-1.49,
0.948,-1.13,3.53,4.89,-2.61,-0.91,-1.45,
0.949,-1.13,3.53,4.89,-2.55,-0.89,-1.41,
0.951,-1.13,3.53,4.89,-2.49,-0.87,-1.37,
0.979,-1.56,3.66,4.60,-2.49,-0.87,-1.37,
0.979,-1.56,3.66,4.60,-2.43,-0.84,-1.33,
0.98,-1.56,3.66,4.60,-2.37,-0.80,-1.29,
0.981,-1.56,3.66,4.60,-2.31,-0.77,-1.26,
0.981,-1.56,3.66,4.60,-2.24,-0.73,-1.24,
0.981,-1.56,3.66,4.60,-2.17,-0.70,-1.22,
0.982,-1.57,4.00,4.57,-2.17,-0.70,-1.22,
0.982,-1.57,4.00,4.57,-2.10,-0.66,-1.20,
0.983,-1.57,4.00,4.57,-2.03,-0.63,-1.19,
0.983,-1.57,4.00,4.57,-1.96,-0.59,-1.18,
0.983,-1.57,4.00,4.57,-1.88,-0.54,-1.18,
0.984,-1.57,4.00,4.57,-1.80,-0.49,-1.17,
0.984,-1.61,4.66,4.87,-1.80,-0.49,-1.17,
0.985,-1.61,4.66,4.87,-1.72,-0.44,-1.17,
0.985,-1.61,4.66,4.87,-1.64,-0.39,-1.17,
0.986,-1.61,4.66,4.87,-1.57,-0.36,-1.17,
0.986,-1.61,4.66,4.87,-1.50,-0.34,-1.16,
0.986,-1.61,4.66,4.87,-1.42,-0.32,-1.15,
0.987,-1.89,4.41,4.45,-1.42,-0.32,-1.15,
0.987,-1.89,4.41,4.45,-1.35,-0.29,-1.14,
0.988,-1.89,4.41,4.45,-1.28,-0.26,-1.11,
0.988,-1.89,4.41,4.45,-1.20,-0.23,-1.08,
0.996,-1.89,4.41,4.45,-1.12,-0.21,-1.04,
0.997,-1.89,4.41,4.45,-1.04,-0.19,-1.00,
0.997,-3.08,4.27,4.74,-1.04,-0.19,-1.00,
0.997,-3.08,4.27,4.74,-0.96,-0.17,-0.94,
0.998,-3.08,4.27,4.74,-0.86,-0.15,-0.87,
0.998,-3.08,4.27,4.74,-0.77,-0.14,-0.81,
1.0,-3.08,4.27,4.74,-0.70,-0.15,-0.76,
1.002,-3.08,4.27,4.74,-0.64,-0.15,-0.71,
1.004,-3.07,3.76,3.89,-0.64,-0.15,-0.71,
1.005,-3.07,3.76,3.89,-0.57,-0.14,-0.67,
1.006,-3.07,3.76,3.89,-0.51,-0.13,-0.63,
1.008,-3.07,3.76,3.89,-0.47,-0.13,-0.60,
1.01,-3.07,3.76,3.89,-0.43,-0.11,-0.57,
1.012,-3.07,3.76,3.89,-0.39,-0.09,-0.54,
1.014,-2.64,3.21,2.66,-0.39,-0.09,-0.54,
1.014,-2.64,3.21,2.66,-0.36,-0.06,-0.51,
1.015,-2.64,3.21,2.66,-0.32,-0.03,-0.47,
1.017,-2.64,3.21,2.66,-0.30,-0.01,-0.45,
1.019,-2.64,3.21,2.66,-0.29,0.02,-0.42,
1.031,-2.64,3.21,2.66,-0.29,0.06,-0.40,
1.032,-2.62,2.50,1.84,-0.29,0.06,-0.40,
1.033,-2.62,2.50,1.84,-0.28,0.10,-0.38,
1.033,-2.62,2.50,1.84,-0.28,0.15,-0.36,
1.034,-2.62,2.50,1.84,-0.29,0.19,-0.35,
1.034,-2.62,2.50,1.84,-0.31,0.22,-0.35,
1.038,-2.62,2.50,1.84,-0.34,0.26,-0.36,
1.038,-2.09,2.00,0.72,-0.34,0.26,-0.36,
1.039,-2.09,2.00,0.72,-0.36,0.30,-0.38,
1.039,-2.09,2.00,0.72,-0.40,0.35,-0.39,
1.039,-2.09,2.00,0.72,-0.44,0.39,-0.41,
1.04,-2.09,2.00,0.72,-0.48,0.44,-0.43,
1.061,-2.09,2.00,0.72,-0.52,0.49,-0.46,
1.062,-1.79,1.64,-0.12,-0.52,0.49,-0.46,
1.062,-1.79,1.64,-0.12,-0.56,0.54,-0.48,
1.063,-1.79,1.64,-0.12,-0.61,0.60,-0.51,
1.063,-1.79,1.64,-0.12,-0.65,0.65,-0.53,
1.063,-1.79,1.64,-0.12,-0.69,0.71,-0.54,
1.063,-1.79,1.64,-0.12,-0.73,0.76,-0.56,
1.064,-2.09,1.35,-0.56,-0.73,0.76,-0.56,
1.064,-2.09,1.35,-0.56,-0.76,0.81,-0.57,
1.064,-2.09,1.35,-0.56,-0.80,0.87,-0.58,
1.064,-2.09,1.35,-0.56,-0.83,0.92,-0.58,
1.065,-2.09,1.35,-0.56,-0.86,0.99,-0.58,
1.065,-2.09,1.35,-0.56,-0.88,1.05,-0.57,
1.065,-2.75,1.03,-0.70,-0.88,1.05,-0.57,
1.065,-2.75,1.03,-0.70,-0.89,1.12,-0.56,
1.071,-2.75,1.03,-0.70,-0.90,1.19,-0.55,
1.071,-2.75,1.03,-0.70,-0.90,1.26,-0.53,
1.071,-2.75,1.03,-0.70,-0.89,1.33,-0.50,
1.072,-2.75,1.03,-0.70,-0.87,1.38,-0.48,
1.076,-3.78,1.12,-0.21,-0.87,1.38,-0.48,
1.076,-3.78,1.12,-0.21,-0.85,1.44,-0.44,
1.077,-3.78,1.12,-0.21,-0.82,1.49,-0.41,
1.078,-3.78,1.12,-0.21,-0.79,1.53,-0.37,
1.08,-3.78,1.12,-0.21,-0.75,1.58,-0.33,
1.082,-3.78,1.12,-0.21,-0.72,1.62,-0.28,
1.085,-4.46,1.25,-0.08,-0.72,1.62,-0.28,
1.085,-4.46,1.25,-0.08,-0.67,1.66,-0.24,
1.086,-4.46,1.25,-0.08,-0.64,1.70,-0.19,
1.088,-4.46,1.25,-0.08,-0.59,1.75,-0.15,
1.09,-4.46,1.25,-0.08,-0.54,1.80,-0.11,
1.094,-4.46,1.25,-0.08,-0.49,1.85,-0.07,
1.095,-4.41,1.02,0.17,-0.49,1.85,-0.07,
1.095,-4.41,1.02,0.17,-0.44,1.89,-0.03,
1.097,-4.41,1.02,0.17,-0.38,1.94,0.00,
1.099,-4.41,1.02,0.17,-0.33,1.97,0.04,
1.1,-4.41,1.02,0.17,-0.28,2.00,0.07,
1.102,-4.41,1.02,0.17,-0.22,2.02,0.11,
1.105,-3.90,0.67,0.41,-0.22,2.02,0.11,
1.105,-3.90,0.67,0.41,-0.17,2.04,0.13,
1.106,-3.90,0.67,0.41,-0.11,2.05,0.16,
1.109,-3.90,0.67,0.41,-0.06,2.06,0.18,
1.11,-3.90,0.67,0.41,-0.02,2.05,0.21,
1.112,-3.90,0.67,0.41,0.03,2.04,0.22,
1.114,-2.67,0.14,0.51,0.03,2.04,0.22,
1.119,-2.67,0.14,0.51,0.23,1.99,0.27,
1.12,-2.67,0.14,0.51,0.23,1.99,0.27,
1.121,-2.67,0.14,0.51,0.32,1.92,0.29,
1.149,-2.67,0.14,0.51,0.32,1.92,0.29,
1.149,-2.67,0.14,0.51,0.34,1.88,0.29,
1.15,-0.55,-0.39,0.75,0.34,1.88,0.29,
1.15,-0.55,-0.39,0.75,0.36,1.77,0.29,
1.151,-0.55,-0.39,0.75,0.35,1.64,0.28,
1.151,-0.55,-0.39,0.75,0.33,1.52,0.27,
1.152,-0.55,-0.39,0.75,0.30,1.40,0.25,
1.152,-0.55,-0.39,0.75,0.26,1.30,0.23,
1.152,1.54,-1.65,-1.27,0.26,1.30,0.23,
1.153,1.54,-1.65,-1.27,0.22,1.21,0.22,
1.153,1.54,-1.65,-1.27,0.18,1.12,0.20,
1.154,1.54,-1.65,-1.27,0.13,1.04,0.19,
1.154,1.54,-1.65,-1.27,0.07,0.94,0.17,
1.154,1.54,-1.65,-1.27,0.01,0.83,0.15,
1.155,2.34,-2.88,-2.05,0.01,0.83,0.15,
1.155,2.34,-2.88,-2.05,-0.06,0.73,0.14,
1.156,2.34,-2.88,-2.05,-0.13,0.62,0.12,
1.156,2.34,-2.88,-2.05,-0.21,0.52,0.09,
1.157,2.34,-2.88,-2.05,-0.29,0.43,0.07,
1.157,2.34,-2.88,-2.05,-0.37,0.35,0.05,
1.157,2.56,-3.67,-3.19,-0.37,0.35,0.05,
1.158,2.56,-3.67,-3.19,-0.46,0.28,0.02,
1.158,2.56,-3.67,-3.19,-0.53,0.21,-0.01,
1.159,2.56,-3.67,-3.19,-0.61,0.16,-0.03,
1.166,2.56,-3.67,-3.19,-0.68,0.11,-0.06,
1.166,2.56,-3.67,-3.19,-0.74,0.07,-0.09,
1.166,2.00,-3.55,-3.37,-0.74,0.07,-0.09,
1.166,2.00,-3.55,-3.37,-0.79,0.04,-0.11,
1.167,2.00,-3.55,-3.37,-0.84,0.01,-0.13,
1.169,2.00,-3.55,-3.37,-0.89,-0.02,-0.16,
1.17,2.00,-3.55,-3.37,-0.93,-0.03,-0.18,
1.177,2.00,-3.55,-3.37,-0.97,-0.03,-0.20,
1.177,1.16,-3.06,-3.33,-0.97,-0.03,-0.20,
1.178,1.16,-3.06,-3.33,-0.99,-0.03,-0.21,
1.178,1.16,-3.06,-3.33,-1.02,-0.02,-0.23,
1.178,1.16,-3.06,-3.33,-1.04,-0.00,-0.24,
1.179,1.16,-3.06,-3.33,-1.05,0.02,-0.24,
1.182,1.16,-3.06,-3.33,-1.06,0.04,-0.24,
1.222,0.23,-2.22,-2.94,-1.06,0.04,-0.24,
1.223,0.23,-2.22,-2.94,-1.06,0.08,-0.24,
1.223,0.23,-2.22,-2.94,-1.05,0.13,-0.24,
1.224,0.23,-2.22,-2.94,-1.04,0.17,-0.23,
1.224,0.23,-2.22,-2.94,-1.01,0.23,-0.22,
1.226,0.23,-2.22,-2.94,-0.99,0.29,-0.20,
1.226,-0.74,-0.87,-2.17,-0.99,0.29,-0.20,
1.227,-0.74,-0.87,-2.17,-0.95,0.36,-0.18,
1.227,-0.74,-0.87,-2.17,-0.91,0.42,-0.16,
1.228,-0.74,-0.87,-2.17,-0.87,0.50,-0.14,
1.228,-0.74,-0.87,-2.17,-0.82,0.57,-0.11,
1.229,-0.74,-0.87,-2.17,-0.76,0.65,-0.07,
1.229,-1.30,0.31,-1.29,-0.76,0.65,-0.07,
1.23,-1.30,0.31,-1.29,-0.71,0.73,-0.04,
1.23,-1.30,0.31,-1.29,-0.65,0.80,-0.01,
1.23,-1.30,0.31,-1.29,-0.59,0.86,0.02,
1.231,-1.30,0.31,-1.29,-0.53,0.90,0.06,
1.232,-1.30,0.31,-1.29,-0.46,0.93,0.08,
1.232,-1.20,0.76,-0.35,-0.46,0.93,0.08,
1.232,-1.20,0.76,-0.35,-0.40,0.95,0.11,
1.233,-1.20,0.76,-0.35,-0.34,0.97,0.14,
1.234,-1.20,0.76,-0.35,-0.28,0.96,0.16,
1.235,-1.20,0.76,-0.35,-0.21,0.95,0.18,
1.235,-1.20,0.76,-0.35,-0.16,0.93,0.20,
1.236,-0.28,0.53,0.39,-0.16,0.93,0.20,
1.236,-0.28,0.53,0.39,-0.11,0.91,0.21,
1.236,-0.28,0.53,0.39,-0.07,0.87,0.23,
1.236,-0.28,0.53,0.39,-0.04,0.84,0.25,
1.237,-0.28,0.53,0.39,-0.01,0.81,0.26,
1.237,-0.28,0.53,0.39,0.01,0.79,0.26,
1.237,1.03,-0.54,-0.26,0.01,0.79,0.26,
1.237,1.03,-0.54,-0.26,0.01,0.78,0.27,
1.237,1.03,-0.54,-0.26,0.01,0.77,0.28,
1.242,1.03,-0.54,-0.26,0.00,0.76,0.28,
1.242,1.03,-0.54,-0.26,-0.02,0.75,0.28,
1.242,1.03,-0.54,-0.26,-0.05,0.74,0.28,
1.244,1.99,-1.87,-1.23,-0.05,0.74,0.28,
1.244,1.99,-1.87,-1.23,-0.08,0.73,0.29,
1.246,1.99,-1.87,-1.23,-0.11,0.70,0.29,
1.248,1.99,-1.87,-1.23,-0.16,0.68,0.29,
1.25,1.99,-1.87,-1.23,-0.21,0.64,0.28,
1.252,1.99,-1.87,-1.23,-0.26,0.60,0.28,
1.257,2.42,-2.45,-1.50,-0.26,0.60,0.28,
1.258,2.42,-2.45,-1.50,-0.31,0.57,0.29,
1.258,2.42,-2.45,-1.50,-0.37,0.52,0.28,
1.259,2.42,-2.45,-1.50,-0.43,0.48,0.27,
1.26,2.42,-2.45,-1.50,-0.48,0.43,0.26,
1.262,2.42,-2.45,-1.50,-0.54,0.38,0.25,
1.264,2.64,-2.47,-1.25,-0.54,0.38,0.25,
1.265,2.64,-2.47,-1.25,-0.59,0.33,0.24,
1.266,2.64,-2.47,-1.25,-0.64,0.28,0.22,
1.268,2.64,-2.47,-1.25,-0.68,0.24,0.20,
1.27,2.64,-2.47,-1.25,-0.71,0.20,0.17,
1.272,2.64,-2.47,-1.25,-0.73,0.17,0.14,
1.274,3.26,-2.05,-0.22,-0.73,0.17,0.14,
1.274,3.26,-2.05,-0.22,-0.74,0.13,0.10,
1.276,3.26,-2.05,-0.22,-0.75,0.10,0.06,
1.278,3.26,-2.05,-0.22,-0.75,0.06,0.03,
1.28,3.26,-2.05,-0.22,-0.74,0.02,-0.00,
1.282,3.26,-2.05,-0.22,-0.73,-0.04,-0.03,
1.285,3.23,-1.50,1.15,-0.73,-0.04,-0.03,
1.286,3.23,-1.50,1.15,-0.71,-0.15,-0.07,
1.317,3.23,-1.50,1.15,-0.68,-0.25,-0.10,
1.317,3.23,-1.50,1.15,-0.67,-0.32,-0.12,
1.318,3.23,-1.50,1.15,-0.64,-0.45,-0.14,
1.318,3.23,-1.50,1.15,-0.61,-0.60,-0.16,
1.319,2.02,-1.82,2.88,-0.61,-0.60,-0.16,
1.319,2.02,-1.82,2.88,-0.58,-0.75,-0.18,
1.32,2.02,-1.82,2.88,-0.55,-0.92,-0.19,
1.32,2.02,-1.82,2.88,-0.52,-1.08,-0.21,
1.32,2.02,-1.82,2.88,-0.50,-1.23,-0.22,
1.321,2.02,-1.82,2.88,-0.48,-1.36,-0.23,
1.321,0.57,-2.42,3.43,-0.48,-1.36,-0.23,
1.322,0.57,-2.42,3.43,-0.47,-1.48,-0.24,
1.322,0.57,-2.42,3.43,-0.46,-1.58,-0.24,
1.322,0.57,-2.42,3.43,-0.47,-1.66,-0.24,
1.323,0.57,-2.42,3.43,-0.47,-1.72,-0.24,
1.323,0.57,-2.42,3.43,-0.49,-1.76,-0.24,
1.324,-0.79,-2.32,2.17,-0.49,-1.76,-0.24,
1.324,-0.79,-2.32,2.17,-0.51,-1.79,-0.23,
1.324,-0.79,-2.32,2.17,-0.53,-1.81,-0.22,
1.325,-0.79,-2.32,2.17,-0.56,-1.81,-0.21,
1.325,-0.79,-2.32,2.17,-0.58,-1.80,-0.19,
1.325,-0.79,-2.32,2.17,-0.61,-1.79,-0.18,
1.325,-1.94,-2.11,0.91,-0.61,-1.79,-0.18,
1.326,-1.94,-2.11,0.91,-0.65,-1.76,-0.16,
1.326,-1.94,-2.11,0.91,-0.68,-1.73,-0.15,
1.338,-1.94,-2.11,0.91,-0.71,-1.69,-0.14,
1.339,-1.94,-2.11,0.91,-0.75,-1.65,-0.12,
1.339,-1.94,-2.11,0.91,-0.79,-1.60,-0.11,
1.339,-2.43,-2.13,0.04,-0.79,-1.60,-0.11,
1.34,-2.43,-2.13,0.04,-0.82,-1.56,-0.10,
1.34,-2.43,-2.13,0.04,-0.85,-1.53,-0.09,
1.34,-2.43,-2.13,0.04,-0.88,-1.52,-0.08,
1.341,-2.43,-2.13,0.04,-0.92,-1.54,-0.08,
1.349,-2.43,-2.13,0.04,-0.94,-1.58,-0.09,
1.349,-1.38,-2.57,0.58,-0.94,-1.58,-0.09,
1.35,-1.38,-2.57,0.58,-0.97,-1.64,-0.12,
1.35,-1.38,-2.57,0.58,-1.00,-1.70,-0.15,
1.35,-1.38,-2.57,0.58,-1.04,-1.78,-0.19,
1.35,-1.38,-2.57,0.58,-1.08,-1.86,-0.24,
1.352,-1.38,-2.57,0.58,-1.14,-1.94,-0.28,
1.376,0.83,-3.84,0.33,-1.14,-1.94,-0.28,
1.377,0.83,-3.84,0.33,-1.20,-2.00,-0.32,
1.377,0.83,-3.84,0.33,-1.28,-2.06,-0.35,
1.377,0.83,-3.84,0.33,-1.36,-2.09,-0.38,
1.377,0.83,-3.84,0.33,-1.44,-2.11,-0.40,
1.377,0.83,-3.84,0.33,-1.53,-2.10,-0.42,
1.378,1.58,-4.37,-1.16,-1.53,-2.10,-0.42,
1.378,1.58,-4.37,-1.16,-1.62,-2.09,-0.43,
1.378,1.58,-4.37,-1.16,-1.71,-2.07,-0.44,
1.378,1.58,-4.37,-1.16,-1.79,-2.04,-0.45,
1.379,1.58,-4.37,-1.16,-1.88,-2.00,-0.45,
1.379,1.58,-4.37,-1.16,-1.96,-1.96,-0.45,
1.379,1.63,-4.00,-1.87,-1.96,-1.96,-0.45,
1.379,1.63,-4.00,-1.87,-2.04,-1.91,-0.45,
1.38,1.63,-4.00,-1.87,-2.12,-1.87,-0.45,
1.38,1.63,-4.00,-1.87,-2.19,-1.82,-0.46,
1.38,1.63,-4.00,-1.87,-2.25,-1.77,-0.48,
1.381,1.63,-4.00,-1.87,-2.30,-1.73,-0.48,
1.384,1.88,-2.83,-0.95,-2.30,-1.73,-0.48,
1.384,1.88,-2.83,-0.95,-2.34,-1.68,-0.49,
1.387,1.88,-2.83,-0.95,-2.37,-1.64,-0.50,
1.388,1.88,-2.83,-0.95,-2.39,-1.59,-0.50,
1.39,1.88,-2.83,-0.95,-2.40,-1.53,-0.49,
1.392,1.88,-2.83,-0.95,-2.40,-1.46,-0.49,
1.394,1.22,-1.51,0.98,-2.40,-1.46,-0.49,
1.394,1.22,-1.51,0.98,-2.39,-1.40,-0.50,
1.395,1.22,-1.51,0.98,-2.36,-1.32,-0.51,
1.398,1.22,-1.51,0.98,-2.33,-1.24,-0.52,
1.401,1.22,-1.51,0.98,-2.29,-1.16,-0.54,
1.402,1.22,-1.51,0.98,-2.24,-1.07,-0.56,
1.404,0.96,0.38,2.56,-2.24,-1.07,-0.56,
1.405,0.96,0.38,2.56,-2.19,-0.99,-0.58,
1.406,0.96,0.38,2.56,-2.13,-0.91,-0.60,
1.408,0.96,0.38,2.56,-2.06,-0.85,-0.61,
1.41,0.96,0.38,2.56,-2.00,-0.78,-0.63,
1.412,0.96,0.38,2.56,-1.94,-0.72,-0.64,
1.414,-0.02,2.18,2.98,-1.94,-0.72,-0.64,
1.415,-0.02,2.18,2.98,-1.88,-0.66,-0.65,
1.417,-0.02,2.18,2.98,-1.82,-0.59,-0.66,
1.419,-0.02,2.18,2.98,-1.77,-0.52,-0.65,
1.425,-0.02,2.18,2.98,-1.71,-0.45,-0.63,
1.426,-0.02,2.18,2.98,-1.66,-0.38,-0.61,
1.426,-1.72,3.14,2.41,-1.66,-0.38,-0.61,
1.426,-1.72,3.14,2.41,-1.61,-0.30,-0.59,
1.427,-1.72,3.14,2.41,-1.56,-0.22,-0.55,
1.428,-1.72,3.14,2.41,-1.51,-0.14,-0.51,
1.429,-1.72,3.14,2.41,-1.46,-0.05,-0.47,
1.431,-1.72,3.14,2.41,-1.42,0.04,-0.42,
1.435,-3.01,3.48,1.70,-1.42,0.04,-0.42,
1.435,-3.01,3.48,1.70,-1.38,0.12,-0.36,
1.49,-3.01,3.48,1.70,-1.35,0.18,-0.30,
1.491,-3.01,3.48,1.70,-1.32,0.24,-0.24,
1.491,-3.01,3.48,1.70,-1.29,0.30,-0.17,
1.491,-3.01,3.48,1.70,-1.27,0.36,-0.10,
1.491,-3.80,2.81,0.34,-1.27,0.36,-0.10,
1.492,-3.80,2.81,0.34,-1.25,0.40,-0.03,
1.492,-3.80,2.81,0.34,-1.23,0.42,0.05,
1.492,-3.80,2.81,0.34,-1.22,0.45,0.12,
1.492,-3.80,2.81,0.34,-1.21,0.48,0.19,
1.492,-3.80,2.81,0.34,-1.20,0.53,0.28,
1.511,-4.23,1.15,-0.72,-1.20,0.53,0.28,
1.512,-4.23,1.15,-0.72,-1.19,0.57,0.36,
1.512,-4.23,1.15,-0.72,-1.18,0.62,0.44,
1.512,-4.23,1.15,-0.72,-1.17,0.67,0.53,
1.513,-4.23,1.15,-0.72,-1.16,0.73,0.62,
1.513,-4.23,1.15,-0.72,-1.15,0.80,0.70,
1.513,-4.09,-0.46,-1.44,-1.15,0.80,0.70,
1.513,-4.09,-0.46,-1.44,-1.14,0.88,0.78,
1.514,-4.09,-0.46,-1.44,-1.12,0.97,0.86,
1.514,-4.09,-0.46,-1.44,-1.11,1.12,0.96,
1.514,-4.09,-0.46,-1.44,-1.10,1.17,0.99,
1.515,-4.09,-0.46,-1.44,-1.09,1.28,1.03,
1.515,-3.38,-1.75,-2.12,-1.09,1.28,1.03,
1.515,-3.38,-1.75,-2.12,-1.08,1.39,1.07,
1.515,-3.38,-1.75,-2.12,-1.07,1.51,1.10,
1.516,-3.38,-1.75,-2.12,-1.05,1.62,1.12,
1.516,-3.38,-1.75,-2.12,-1.04,1.73,1.12,
1.516,-3.38,-1.75,-2.12,-1.02,1.84,1.11,
1.516,-2.22,-2.25,-2.08,-1.02,1.84,1.11,
1.517,-2.22,-2.25,-2.08,-1.01,1.95,1.10,
1.517,-2.22,-2.25,-2.08,-1.00,2.05,1.08,
1.517,-2.22,-2.25,-2.08,-0.98,2.15,1.04,
1.517,-2.22,-2.25,-2.08,-0.97,2.24,1.00,
1.518,-2.22,-2.25,-2.08,-0.96,2.32,0.96,
1.518,-1.51,-2.44,-1.62,-0.96,2.32,0.96,
1.518,-1.51,-2.44,-1.62,-0.95,2.41,0.91,
1.519,-1.51,-2.44,-1.62,-0.93,2.48,0.85,
1.519,-1.51,-2.44,-1.62,-0.91,2.56,0.79,
1.519,-1.51,-2.44,-1.62,-0.89,2.63,0.74,
1.519,-1.51,-2.44,-1.62,-0.88,2.70,0.68,
1.52,-0.76,-2.00,-0.72,-0.88,2.70,0.68,
1.52,-0.76,-2.00,-0.72,-0.86,2.77,0.62,
1.52,-0.76,-2.00,-0.72,-0.84,2.84,0.56,
1.521,-0.76,-2.00,-0.72,-0.80,2.93,0.47,
1.521,-0.76,-2.00,-0.72,-0.79,2.95,0.44,
1.521,-0.76,-2.00,-0.72,-0.77,3.00,0.39,
1.521,-0.05,-1.32,0.03,-0.77,3.00,0.39,
1.521,-0.05,-1.32,0.03,-0.75,3.04,0.35,
1.522,-0.05,-1.32,0.03,-0.74,3.07,0.31,
1.522,-0.05,-1.32,0.03,-0.72,3.09,0.27,
1.522,-0.05,-1.32,0.03,-0.72,3.08,0.25,
1.522,-0.05,-1.32,0.03,-0.72,3.06,0.23,
1.528,-0.48,-0.84,0.35,-0.72,3.06,0.23,
1.529,-0.48,-0.84,0.35,-0.72,3.00,0.22,
1.529,-0.48,-0.84,0.35,-0.74,2.92,0.22,
1.529,-0.48,-0.84,0.35,-0.75,2.83,0.23,
1.53,-0.48,-0.84,0.35,-0.78,2.74,0.25,
1.532,-0.48,-0.84,0.35,-0.81,2.64,0.28,
1.534,-0.89,-1.36,0.54,-0.81,2.64,0.28,
1.534,-0.89,-1.36,0.54,-0.85,2.56,0.31,
1.544,-0.89,-1.36,0.54,-0.89,2.49,0.35,
1.545,-0.89,-1.36,0.54,-0.95,2.42,0.40,
1.545,-0.89,-1.36,0.54,-1.01,2.36,0.46,
1.547,-0.89,-1.36,0.54,-1.07,2.30,0.53,
1.547,-1.27,-1.82,0.12,-1.07,2.30,0.53,
1.548,-1.27,-1.82,0.12,-1.14,2.25,0.60,
1.549,-1.27,-1.82,0.12,-1.21,2.20,0.68,
1.549,-1.27,-1.82,0.12,-1.28,2.16,0.75,
1.55,-1.27,-1.82,0.12,-1.35,2.13,0.83,
1.558,-1.27,-1.82,0.12,-1.42,2.11,0.91,
1.559,-1.42,-1.77,-0.30,-1.42,2.11,0.91,
1.559,-1.42,-1.77,-0.30,-1.49,2.09,0.98,
1.559,-1.42,-1.77,-0.30,-1.55,2.05,1.05,
1.559,-1.42,-1.77,-0.30,-1.61,2.02,1.12,
1.56,-1.42,-1.77,-0.30,-1.66,2.02,1.17,
1.562,-1.42,-1.77,-0.30,-1.71,2.01,1.22,
1.58,-1.23,-1.24,-0.05,-1.71,2.01,1.22,
1.58,-1.23,-1.24,-0.05,-1.74,2.01,1.27,
1.58,-1.23,-1.24,-0.05,-1.77,2.01,1.30,
1.581,-1.23,-1.24,-0.05,-1.79,2.00,1.34,
1.581,-1.23,-1.24,-0.05,-1.80,2.01,1.36,
1.581,-1.23,-1.24,-0.05,-1.81,2.04,1.38,
1.581,-1.07,-0.49,0.64,-1.81,2.04,1.38,
1.581,-1.07,-0.49,0.64,-1.81,2.07,1.39,
1.581,-1.07,-0.49,0.64,-1.80,2.08,1.41,
1.581,-1.07,-0.49,0.64,-1.79,2.10,1.42,
1.581,-1.07,-0.49,0.64,-1.78,2.15,1.43,
1.582,-1.07,-0.49,0.64,-1.76,2.17,1.43,
1.585,-1.40,0.33,0.96,-1.76,2.17,1.43,
1.585,-1.40,0.33,0.96,-1.74,2.18,1.44,
1.59,-1.40,0.33,0.96,-1.72,2.21,1.44,
1.591,-1.40,0.33,0.96,-1.70,2.24,1.44,
1.591,-1.40,0.33,0.96,-1.68,2.27,1.44,
1.592,-1.40,0.33,0.96,-1.66,2.30,1.45,
1.594,-1.33,0.75,0.50,-1.66,2.30,1.45,
1.594,-1.33,0.75,0.50,-1.64,2.34,1.46,
1.595,-1.33,0.75,0.50,-1.62,2.37,1.48,
1.598,-1.33,0.75,0.50,-1.60,2.36,1.51,
1.599,-1.33,0.75,0.50,-1.58,2.37,1.54,
1.602,-1.33,0.75,0.50,-1.56,2.39,1.58,
1.604,-2.25,1.08,0.18,-1.56,2.39,1.58,
1.604,-2.25,1.08,0.18,-1.54,2.38,1.61,
1.606,-2.25,1.08,0.18,-1.52,2.37,1.65,
1.607,-2.25,1.08,0.18,-1.48,2.33,1.71,
1.61,-2.25,1.08,0.18,-1.47,2.32,1.73,
1.611,-2.25,1.08,0.18,-1.45,2.33,1.76,
1.614,-1.82,1.30,-0.25,-1.45,2.33,1.76,
1.614,-1.82,1.30,-0.25,-1.42,2.33,1.79,
1.616,-1.82,1.30,-0.25,-1.41,2.31,1.80,
1.618,-1.82,1.30,-0.25,-1.37,2.26,1.81,
1.631,-1.82,1.30,-0.25,-1.36,2.25,1.80,
1.631,-1.82,1.30,-0.25,-1.33,2.22,1.79,
1.631,0.27,1.25,-0.33,-1.33,2.22,1.79,
1.631,0.27,1.25,-0.33,-1.27,2.13,1.76,
1.631,0.27,1.25,-0.33,-1.25,2.10,1.74,
1.632,0.27,1.25,-0.33,-1.22,2.04,1.69,
1.632,0.27,1.25,-0.33,-1.17,1.99,1.64,
1.632,0.27,1.25,-0.33,-1.13,1.93,1.57,
1.636,3.58,1.25,-0.62,-1.13,1.93,1.57,
1.637,3.58,1.25,-0.62,-1.07,1.82,1.46,
1.637,3.58,1.25,-0.62,-1.02,1.71,1.38,
1.638,3.58,1.25,-0.62,-0.97,1.59,1.29,
1.64,3.58,1.25,-0.62,-0.94,1.55,1.24,
1.641,3.58,1.25,-0.62,-0.89,1.46,1.13,
1.644,5.81,0.94,-0.51,-0.89,1.46,1.13,
1.644,5.81,0.94,-0.51,-0.81,1.33,0.97,
1.646,5.81,0.94,-0.51,-0.79,1.29,0.92,
1.647,5.81,0.94,-0.51,-0.74,1.22,0.82,
1.649,5.81,0.94,-0.51,-0.69,1.15,0.73,
1.652,5.81,0.94,-0.51,-0.65,1.09,0.65,
1.654,6.13,0.84,-0.95,-0.65,1.09,0.65,
1.654,6.13,0.84,-0.95,-0.58,1.02,0.53,
1.656,6.13,0.84,-0.95,-0.56,1.00,0.49,
1.657,6.13,0.84,-0.95,-0.49,0.93,0.39,
1.66,6.13,0.84,-0.95,-0.47,0.91,0.36,
1.661,6.13,0.84,-0.95,-0.43,0.86,0.29,
1.664,5.60,0.99,-1.14,-0.43,0.86,0.29,
1.665,5.60,0.99,-1.14,-0.38,0.80,0.21,
1.666,5.60,0.99,-1.14,-0.36,0.78,0.18,
1.669,5.60,0.99,-1.14,-0.30,0.71,0.11,
1.67,5.60,0.99,-1.14,-0.28,0.68,0.09,
1.672,5.60,0.99,-1.14,-0.25,0.63,0.06,
1.674,4.25,1.36,-0.77,-0.25,0.63,0.06,
1.674,4.25,1.36,-0.77,-0.20,0.54,0.02,
1.676,4.25,1.36,-0.77,-0.18,0.51,0.02,
1.677,4.25,1.36,-0.77,-0.13,0.44,0.00,
1.679,4.25,1.36,-0.77,-0.12,0.41,0.00,
1.681,4.25,1.36,-0.77,-0.09,0.36,0.01,
1.684,2.39,1.93,-0.14,-0.09,0.36,0.01,
1.684,2.39,1.93,-0.14,-0.04,0.28,0.02,
1.693,2.39,1.93,-0.14,-0.02,0.26,0.02,
1.694,2.39,1.93,-0.14,0.02,0.19,0.05,
1.695,2.39,1.93,-0.14,0.04,0.17,0.06,
1.695,2.39,1.93,-0.14,0.07,0.14,0.08,
1.695,1.21,2.54,0.70,0.07,0.14,0.08,
1.696,1.21,2.54,0.70,0.10,0.10,0.10,
1.699,1.21,2.54,0.70,0.12,0.08,0.11,
1.7,1.21,2.54,0.70,0.15,0.06,0.12,
1.736,1.21,2.54,0.70,0.17,0.03,0.13,
1.736,1.21,2.54,0.70,0.20,0.01,0.14,
1.736,0.76,2.62,1.39,0.20,0.01,0.14,
1.737,0.76,2.62,1.39,0.22,-0.01,0.14,
1.737,0.76,2.62,1.39,0.25,-0.04,0.14,
1.737,0.76,2.62,1.39,0.27,-0.07,0.14,
1.737,0.76,2.62,1.39,0.29,-0.10,0.14,
1.737,0.76,2.62,1.39,0.31,-0.14,0.14,
1.738,0.44,2.25,1.89,0.31,-0.14,0.14,
1.738,0.44,2.25,1.89,0.32,-0.18,0.14,
1.738,0.44,2.25,1.89,0.34,-0.21,0.13,
1.738,0.44,2.25,1.89,0.36,-0.24,0.13,
1.738,0.44,2.25,1.89,0.37,-0.28,0.12,
1.739,0.44,2.25,1.89,0.38,-0.31,0.11,
1.739,0.27,1.53,1.77,0.38,-0.31,0.11,
1.739,0.27,1.53,1.77,0.39,-0.35,0.10,
1.739,0.27,1.53,1.77,0.40,-0.39,0.09,
1.739,0.27,1.53,1.77,0.41,-0.42,0.08,
1.739,0.27,1.53,1.77,0.42,-0.46,0.06,
1.74,0.27,1.53,1.77,0.43,-0.50,0.04,
1.74,-0.07,0.89,1.69,0.43,-0.50,0.04,
1.74,-0.07,0.89,1.69,0.44,-0.55,0.03,
1.74,-0.07,0.89,1.69,0.45,-0.59,0.01,
1.74,-0.07,0.89,1.69,0.46,-0.63,0.00,
1.741,-0.07,0.89,1.69,0.47,-0.67,-0.01,
1.744,-0.07,0.89,1.69,0.47,-0.72,-0.02,
1.744,-0.49,0.42,1.37,0.47,-0.72,-0.02,
1.745,-0.49,0.42,1.37,0.47,-0.77,-0.02,
1.747,-0.49,0.42,1.37,0.47,-0.81,-0.01,
1.748,-0.49,0.42,1.37,0.46,-0.85,-0.01,
1.75,-0.49,0.42,1.37,0.46,-0.88,0.00,
1.752,-0.49,0.42,1.37,0.45,-0.91,0.02,
1.754,-1.24,0.17,0.69,0.45,-0.91,0.02,
1.755,-1.24,0.17,0.69,0.44,-0.93,0.03,
1.758,-1.24,0.17,0.69,0.43,-0.95,0.05,
1.759,-1.24,0.17,0.69,0.42,-0.97,0.07,
1.76,-1.24,0.17,0.69,0.41,-0.97,0.10,
1.763,-1.24,0.17,0.69,0.40,-0.97,0.13,
1.766,-2.01,0.13,0.33,0.40,-0.97,0.13,
1.766,-2.01,0.13,0.33,0.40,-0.97,0.15,
1.766,-2.01,0.13,0.33,0.40,-0.96,0.17,
1.77,-2.01,0.13,0.33,0.40,-0.94,0.19,
1.77,-2.01,0.13,0.33,0.40,-0.93,0.20,
1.774,-2.01,0.13,0.33,0.41,-0.93,0.22,
1.775,-2.43,0.23,0.40,0.41,-0.93,0.22,
1.775,-2.43,0.23,0.40,0.42,-0.92,0.24,
1.776,-2.43,0.23,0.40,0.44,-0.91,0.26,
1.78,-2.43,0.23,0.40,0.46,-0.88,0.28,
1.781,-2.43,0.23,0.40,0.48,-0.85,0.30,
1.784,-2.43,0.23,0.40,0.50,-0.82,0.32,
1.784,-2.69,0.44,0.50,0.50,-0.82,0.32,
1.784,-2.69,0.44,0.50,0.52,-0.77,0.34,
1.808,-2.69,0.44,0.50,0.56,-0.73,0.37,
1.808,-2.69,0.44,0.50,0.60,-0.68,0.39,
1.808,-2.69,0.44,0.50,0.64,-0.64,0.42,
1.809,-2.69,0.44,0.50,0.69,-0.59,0.44,
1.809,-2.96,0.95,0.91,0.69,-0.59,0.44,
1.809,-2.96,0.95,0.91,0.74,-0.55,0.46,
1.809,-2.96,0.95,0.91,0.79,-0.51,0.48,
1.81,-2.96,0.95,0.91,0.83,-0.46,0.50,
1.81,-2.96,0.95,0.91,0.87,-0.42,0.51,
1.81,-2.96,0.95,0.91,0.91,-0.40,0.53,
1.81,-2.47,0.99,0.59,0.91,-0.40,0.53,
1.811,-2.47,0.99,0.59,0.94,-0.39,0.54,
1.811,-2.47,0.99,0.59,0.96,-0.39,0.56,
1.811,-2.47,0.99,0.59,0.98,-0.40,0.57,
1.812,-2.47,0.99,0.59,0.99,-0.40,0.59,
1.812,-2.47,0.99,0.59,0.98,-0.40,0.60,
1.817,-1.91,0.64,-0.15,0.98,-0.40,0.60,
1.818,-1.91,0.64,-0.15,0.97,-0.39,0.62,
1.818,-1.91,0.64,-0.15,0.95,-0.39,0.63,
1.82,-1.91,0.64,-0.15,0.93,-0.40,0.65,
1.823,-1.91,0.64,-0.15,0.89,-0.41,0.68,
1.824,-1.91,0.64,-0.15,0.84,-0.41,0.70,
1.825,-1.48,0.25,-1.23,0.84,-0.41,0.70,
1.825,-1.48,0.25,-1.23,0.78,-0.40,0.73,
1.826,-1.48,0.25,-1.23,0.71,-0.38,0.77,
1.828,-1.48,0.25,-1.23,0.62,-0.31,0.79,
1.83,-1.48,0.25,-1.23,0.52,-0.21,0.81,
1.832,-1.48,0.25,-1.23,0.43,-0.08,0.82,
1.835,-0.53,-0.48,-3.68,0.43,-0.08,0.82,
1.836,-0.53,-0.48,-3.68,0.33,0.06,0.82,
1.836,-0.53,-0.48,-3.68,0.22,0.23,0.81,
1.839,-0.53,-0.48,-3.68,0.11,0.48,0.80,
1.84,-0.53,-0.48,-3.68,-0.01,0.80,0.78,
1.842,-0.53,-0.48,-3.68,-0.13,1.09,0.72,
1.844,0.95,-1.54,-6.45,-0.13,1.09,0.72,
1.845,0.95,-1.54,-6.45,-0.24,1.32,0.63,
1.846,0.95,-1.54,-6.45,-0.33,1.49,0.52,
1.848,0.95,-1.54,-6.45,-0.40,1.61,0.39,
1.849,0.95,-1.54,-6.45,-0.45,1.70,0.25,
1.858,0.95,-1.54,-6.45,-0.49,1.77,0.11,
1.858,3.46,-3.04,-3.85,-0.49,1.77,0.11,
1.859,3.46,-3.04,-3.85,-0.52,1.81,-0.04,
1.859,3.46,-3.04,-3.85,-0.53,1.84,-0.18,
1.859,3.46,-3.04,-3.85,-0.53,1.85,-0.31,
1.86,3.46,-3.04,-3.85,-0.52,1.86,-0.43,
1.898,3.46,-3.04,-3.85,-0.51,1.85,-0.53,
1.899,3.58,-2.35,-0.67,-0.51,1.85,-0.53,
1.899,3.58,-2.35,-0.67,-0.49,1.84,-0.63,
1.899,3.58,-2.35,-0.67,-0.48,1.83,-0.71,
1.899,3.58,-2.35,-0.67,-0.46,1.82,-0.78,
1.899,3.58,-2.35,-0.67,-0.43,1.81,-0.83,
1.899,3.58,-2.35,-0.67,-0.41,1.80,-0.87,
1.899,2.98,-0.51,1.00,-0.41,1.80,-0.87,
1.899,2.98,-0.51,1.00,-0.38,1.77,-0.89,
1.9,2.98,-0.51,1.00,-0.34,1.73,-0.89,
1.9,2.98,-0.51,1.00,-0.30,1.68,-0.87,
1.9,2.98,-0.51,1.00,-0.26,1.61,-0.85,
1.9,2.98,-0.51,1.00,-0.22,1.51,-0.80,
1.9,1.46,1.31,2.79,-0.22,1.51,-0.80,
1.9,1.46,1.31,2.79,-0.18,1.40,-0.75,
1.9,1.46,1.31,2.79,-0.15,1.26,-0.70,
1.9,1.46,1.31,2.79,-0.11,1.11,-0.63,
1.901,1.46,1.31,2.79,-0.07,0.95,-0.56,
1.901,1.46,1.31,2.79,-0.03,0.79,-0.48,
1.901,0.55,1.98,4.21,-0.03,0.79,-0.48,
1.901,0.55,1.98,4.21,-0.00,0.64,-0.40,
1.901,0.55,1.98,4.21,0.02,0.49,-0.31,
1.901,0.55,1.98,4.21,0.04,0.36,-0.23,
1.901,0.55,1.98,4.21,0.05,0.25,-0.14,
1.902,0.55,1.98,4.21,0.05,0.15,-0.06,
1.905,0.49,1.97,3.34,0.05,0.15,-0.06,
1.905,0.49,1.97,3.34,0.06,0.06,0.01,
1.906,0.49,1.97,3.34,0.05,-0.02,0.09,
1.907,0.49,1.97,3.34,0.05,-0.09,0.15,
1.909,0.49,1.97,3.34,0.03,-0.16,0.20,
1.912,0.49,1.97,3.34,0.02,-0.22,0.25,
1.914,0.73,1.66,1.78,0.02,-0.22,0.25,
1.914,0.73,1.66,1.78,0.00,-0.27,0.29,
1.915,0.73,1.66,1.78,-0.02,-0.32,0.32,
1.918,0.73,1.66,1.78,-0.03,-0.35,0.34,
1.919,0.73,1.66,1.78,-0.05,-0.38,0.36,
1.923,0.73,1.66,1.78,-0.07,-0.40,0.38,
1.924,0.68,1.02,0.54,-0.07,-0.40,0.38,
1.924,0.68,1.02,0.54,-0.09,-0.42,0.40,
1.925,0.68,1.02,0.54,-0.12,-0.44,0.41,
1.928,0.68,1.02,0.54,-0.14,-0.44,0.42,
1.93,0.68,1.02,0.54,-0.16,-0.43,0.43,
1.932,0.68,1.02,0.54,-0.19,-0.42,0.44,
1.934,0.28,0.81,-0.39,-0.19,-0.42,0.44,
1.935,0.28,0.81,-0.39,-0.21,-0.40,0.45,
1.937,0.28,0.81,-0.39,-0.24,-0.37,0.46,
1.939,0.28,0.81,-0.39,-0.26,-0.34,0.47,
1.94,0.28,0.81,-0.39,-0.29,-0.31,0.48,
1.942,0.28,0.81,-0.39,-0.31,-0.28,0.48,
1.944,-0.19,0.85,-0.94,-0.31,-0.28,0.48,
1.945,-0.19,0.85,-0.94,-0.34,-0.24,0.49,
1.946,-0.19,0.85,-0.94,-0.36,-0.19,0.50,
1.949,-0.19,0.85,-0.94,-0.38,-0.14,0.51,
1.95,-0.19,0.85,-0.94,-0.40,-0.09,0.52,
1.954,-0.19,0.85,-0.94,-0.43,-0.03,0.53,
1.973,-0.32,0.83,-1.05,-0.43,-0.03,0.53,
1.973,-0.32,0.83,-1.05,-0.44,0.02,0.53,
1.974,-0.32,0.83,-1.05,-0.46,0.08,0.54,
1.974,-0.32,0.83,-1.05,-0.48,0.14,0.54,
1.974,-0.32,0.83,-1.05,-0.49,0.20,0.54,
1.974,-0.32,0.83,-1.05,-0.50,0.26,0.55,
1.974,-0.14,0.94,-0.84,-0.50,0.26,0.55,
1.974,-0.14,0.94,-0.84,-0.51,0.32,0.55,
1.975,-0.14,0.94,-0.84,-0.52,0.37,0.56,
1.975,-0.14,0.94,-0.84,-0.52,0.42,0.58,
1.975,-0.14,0.94,-0.84,-0.51,0.48,0.60,
1.975,-0.14,0.94,-0.84,-0.50,0.53,0.62,
1.975,-0.44,1.23,-0.34,-0.50,0.53,0.62,
1.976,-0.44,1.23,-0.34,-0.49,0.59,0.65,
1.976,-0.44,1.23,-0.34,-0.48,0.66,0.68,
1.985,-0.44,1.23,-0.34,-0.46,0.73,0.71,
1.985,-0.44,1.23,-0.34,-0.44,0.78,0.74,
1.985,-0.44,1.23,-0.34,-0.42,0.83,0.78,
1.985,-0.65,1.71,0.40,-0.42,0.83,0.78,
1.986,-0.65,1.71,0.40,-0.40,0.85,0.81,
1.986,-0.65,1.71,0.40,-0.38,0.83,0.83,
1.99,-0.65,1.71,0.40,-0.36,0.78,0.86,
1.99,-0.65,1.71,0.40,-0.33,0.70,0.87,
1.992,-0.65,1.71,0.40,-0.31,0.59,0.88,
1.994,-0.05,1.35,1.81,-0.31,0.59,0.88,
1.994,-0.05,1.35,1.81,-0.28,0.46,0.88,
1.996,-0.05,1.35,1.81,-0.26,0.32,0.87,
2.0,-0.05,1.35,1.81,-0.25,0.20,0.86,
2.0,-0.05,1.35,1.81,-0.24,0.08,0.85,
2.017,-0.05,1.35,1.81,-0.23,-0.02,0.84,
2.018,0.82,0.17,2.17,-0.23,-0.02,0.84,
2.018,0.82,0.17,2.17,-0.22,-0.11,0.82,
2.018,0.82,0.17,2.17,-0.23,-0.18,0.81,
2.018,0.82,0.17,2.17,-0.23,-0.24,0.80,
2.018,0.82,0.17,2.17,-0.23,-0.27,0.79,
2.019,0.82,0.17,2.17,-0.24,-0.30,0.78,
2.019,0.85,-0.29,1.06,-0.24,-0.30,0.78,
2.019,0.85,-0.29,1.06,-0.24,-0.32,0.77,
2.019,0.85,-0.29,1.06,-0.25,-0.32,0.76,
2.019,0.85,-0.29,1.06,-0.26,-0.32,0.75,
2.02,0.85,-0.29,1.06,-0.26,-0.31,0.74,
2.021,0.85,-0.29,1.06,-0.27,-0.29,0.73,
2.024,0.60,-0.18,0.41,-0.27,-0.29,0.73,
2.024,0.60,-0.18,0.41,-0.27,-0.28,0.71,
2.026,0.60,-0.18,0.41,-0.27,-0.25,0.70,
2.028,0.60,-0.18,0.41,-0.26,-0.23,0.69,
2.029,0.60,-0.18,0.41,-0.25,-0.21,0.68,
2.031,0.60,-0.18,0.41,-0.24,-0.19,0.66,
2.034,0.49,0.32,0.62,-0.24,-0.19,0.66,
2.035,0.49,0.32,0.62,-0.23,-0.18,0.64,
2.037,0.49,0.32,0.62,-0.21,-0.16,0.62,
2.038,0.49,0.32,0.62,-0.20,-0.15,0.59,
2.04,0.49,0.32,0.62,-0.18,-0.14,0.56,
2.042,0.49,0.32,0.62,-0.17,-0.12,0.53,
2.045,0.56,0.80,0.99,-0.17,-0.12,0.53,
2.045,0.56,0.80,0.99,-0.15,-0.10,0.49,
2.046,0.56,0.80,0.99,-0.14,-0.07,0.46,
2.05,0.56,0.80,0.99,-0.12,-0.04,0.42,
2.05,0.56,0.80,0.99,-0.11,0.01,0.38,
2.055,0.56,0.80,0.99,-0.10,0.05,0.35,
2.055,0.36,0.96,1.11,-0.10,0.05,0.35,
2.056,0.36,0.96,1.11,-0.09,0.10,0.32,
2.056,0.36,0.96,1.11,-0.09,0.15,0.29,
2.058,0.36,0.96,1.11,-0.09,0.22,0.26,
2.06,0.36,0.96,1.11,-0.09,0.29,0.24,
2.062,0.36,0.96,1.11,-0.10,0.34,0.22,
2.064,-0.15,1.02,0.55,-0.10,0.34,0.22,
2.065,-0.15,1.02,0.55,-0.12,0.41,0.20,
2.067,-0.15,1.02,0.55,-0.14,0.48,0.19,
2.068,-0.15,1.02,0.55,-0.17,0.56,0.18,
2.074,-0.15,1.02,0.55,-0.21,0.64,0.17,
2.074,-0.15,1.02,0.55,-0.25,0.73,0.16,
2.075,-0.51,0.83,-0.55,-0.25,0.73,0.16,
2.075,-0.51,0.83,-0.55,-0.30,0.81,0.15,
2.077,-0.51,0.83,-0.55,-0.36,0.90,0.15,
2.078,-0.51,0.83,-0.55,-0.41,0.99,0.14,
2.08,-0.51,0.83,-0.55,-0.47,1.07,0.14,
2.082,-0.51,0.83,-0.55,-0.53,1.16,0.13,
2.085,-0.26,0.87,-1.78,-0.53,1.16,0.13,
2.085,-0.26,0.87,-1.78,-0.59,1.25,0.12,
2.086,-0.26,0.87,-1.78,-0.64,1.36,0.11,
2.089,-0.26,0.87,-1.78,-0.70,1.48,0.10,
2.09,-0.26,0.87,-1.78,-0.75,1.58,0.09,
2.092,-0.26,0.87,-1.78,-0.81,1.64,0.08,
2.094,0.32,0.90,-2.63,-0.81,1.64,0.08,
2.095,0.32,0.90,-2.63,-0.88,1.68,0.05,
2.096,0.32,0.90,-2.63,-0.94,1.72,0.03,
2.098,0.32,0.90,-2.63,-1.01,1.77,-0.01,
2.101,0.32,0.90,-2.63,-1.06,1.82,-0.04,
2.104,0.32,0.90,-2.63,-1.12,1.88,-0.07,
2.105,0.85,1.69,-3.14,-1.12,1.88,-0.07,
2.106,0.85,1.69,-3.14,-1.17,1.94,-0.10,
2.106,0.85,1.69,-3.14,-1.22,2.01,-0.13,
2.108,0.85,1.69,-3.14,-1.27,2.08,-0.16,
2.11,0.85,1.69,-3.14,-1.32,2.17,-0.18,
2.112,0.85,1.69,-3.14,-1.36,2.26,-0.20,
2.114,0.85,2.56,-3.41,-1.36,2.26,-0.20,
2.124,0.85,2.56,-3.41,-1.46,2.54,-0.22,
2.124,0.85,2.56,-3.41,-1.46,2.54,-0.22,
2.124,0.85,2.56,-3.41,-1.48,2.64,-0.23,
2.142,0.85,2.56,-3.41,-1.48,2.64,-0.23,
2.142,0.85,2.56,-3.41,-1.50,2.73,-0.23,
2.142,0.55,3.33,-3.00,-1.50,2.73,-0.23,
2.142,0.55,3.33,-3.00,-1.51,2.82,-0.23,
2.143,0.55,3.33,-3.00,-1.52,2.90,-0.22,
2.143,0.55,3.33,-3.00,-1.52,2.98,-0.22,
2.143,0.55,3.33,-3.00,-1.52,3.04,-0.21,
2.143,0.55,3.33,-3.00,-1.51,3.10,-0.20,
2.144,0.53,3.63,-2.47,-1.51,3.10,-0.20,
2.144,0.53,3.63,-2.47,-1.50,3.15,-0.18,
2.144,0.53,3.63,-2.47,-1.48,3.19,-0.15,
2.144,0.53,3.63,-2.47,-1.45,3.24,-0.13,
2.144,0.53,3.63,-2.47,-1.43,3.28,-0.10,
2.145,0.53,3.63,-2.47,-1.40,3.33,-0.06,
2.149,0.35,3.59,-1.92,-1.40,3.33,-0.06,
2.149,0.35,3.59,-1.92,-1.37,3.37,-0.03,
2.149,0.35,3.59,-1.92,-1.33,3.42,0.02,
2.169,0.35,3.59,-1.92,-1.29,3.47,0.06,
2.169,0.35,3.59,-1.92,-1.25,3.51,0.11,
2.17,0.35,3.59,-1.92,-1.20,3.56,0.16,
2.17,0.11,3.82,-1.69,-1.20,3.56,0.16,
2.17,0.11,3.82,-1.69,-1.16,3.61,0.21,
2.17,0.11,3.82,-1.69,-1.11,3.65,0.26,
2.17,0.11,3.82,-1.69,-1.07,3.70,0.31,
2.17,0.11,3.82,-1.69,-1.04,3.74,0.36,
2.171,0.11,3.82,-1.69,-1.00,3.77,0.41,
2.171,-0.29,4.13,-1.84,-1.00,3.77,0.41,
2.171,-0.29,4.13,-1.84,-0.98,3.81,0.45,
2.171,-0.29,4.13,-1.84,-0.95,3.85,0.50,
2.171,-0.29,4.13,-1.84,-0.93,3.88,0.54,
2.172,-0.29,4.13,-1.84,-0.91,3.90,0.58,
2.172,-0.29,4.13,-1.84,-0.89,3.91,0.62,
2.174,-0.54,4.43,-1.85,-0.89,3.91,0.62,
2.175,-0.54,4.43,-1.85,-0.87,3.88,0.66,
2.178,-0.54,4.43,-1.85,-0.83,3.80,0.69,
2.178,-0.54,4.43,-1.85,-0.78,3.65,0.72,
2.179,-0.54,4.43,-1.85,-0.70,3.41,0.74,
2.193,-0.54,4.43,-1.85,-0.61,3.13,0.76,
2.193,-0.39,3.80,1.96,-0.61,3.13,0.76,
2.193,-0.39,3.80,1.96,-0.52,2.82,0.77,
2.193,-0.39,3.80,1.96,-0.44,2.51,0.78,
2.193,-0.39,3.80,1.96,-0.36,2.19,0.79,
2.193,-0.39,3.80,1.96,-0.31,1.86,0.80,
2.193,-0.39,3.80,1.96,-0.26,1.54,0.80,
2.194,-0.34,3.33,3.96,-0.26,1.54,0.80,
2.194,-0.34,3.33,3.96,-0.24,1.22,0.80,
2.196,-0.34,3.33,3.96,-0.24,0.91,0.79,
2.197,-0.34,3.33,3.96,-0.26,0.63,0.78,
2.208,-0.34,3.33,3.96,-0.29,0.35,0.77,
2.208,-0.34,3.33,3.96,-0.34,0.10,0.76,
2.208,-0.75,3.39,1.55,-0.34,0.10,0.76,
2.208,-0.75,3.39,1.55,-0.41,-0.14,0.75,
2.208,-0.75,3.39,1.55,-0.49,-0.35,0.74,
2.208,-0.75,3.39,1.55,-0.58,-0.55,0.73,
2.209,-0.75,3.39,1.55,-0.67,-0.71,0.73,
2.211,-0.75,3.39,1.55,-0.78,-0.86,0.73,
2.214,-1.16,3.86,-1.88,-0.78,-0.86,0.73,
2.214,-1.16,3.86,-1.88,-0.89,-0.99,0.74,
2.224,-1.16,3.86,-1.88,-1.01,-1.10,0.75,
2.224,-1.16,3.86,-1.88,-1.13,-1.18,0.76,
2.224,-1.16,3.86,-1.88,-1.25,-1.24,0.78,
2.225,-1.16,3.86,-1.88,-1.37,-1.29,0.81,
2.225,-1.77,4.49,-4.50,-1.37,-1.29,0.81,
2.225,-1.77,4.49,-4.50,-1.48,-1.33,0.84,
2.225,-1.77,4.49,-4.50,-1.59,-1.35,0.88,
2.227,-1.77,4.49,-4.50,-1.70,-1.37,0.92,
2.229,-1.77,4.49,-4.50,-1.81,-1.39,0.97,
2.231,-1.77,4.49,-4.50,-1.91,-1.41,1.01,
2.239,-2.41,5.01,-6.12,-1.91,-1.41,1.01,
2.24,-2.41,5.01,-6.12,-2.01,-1.43,1.06,
2.24,-2.41,5.01,-6.12,-2.11,-1.46,1.11,
2.24,-2.41,5.01,-6.12,-2.22,-1.50,1.15,
2.24,-2.41,5.01,-6.12,-2.32,-1.55,1.20,
2.241,-2.41,5.01,-6.12,-2.43,-1.61,1.24,
2.244,-2.58,5.31,-6.60,-2.43,-1.61,1.24,
2.244,-2.58,5.31,-6.60,-2.53,-1.66,1.29,
2.246,-2.58,5.31,-6.60,-2.62,-1.71,1.32,
2.248,-2.58,5.31,-6.60,-2.72,-1.76,1.37,
2.256,-2.58,5.31,-6.60,-2.81,-1.82,1.41,
2.256,-2.58,5.31,-6.60,-2.90,-1.89,1.45,
2.256,-2.75,5.35,-6.62,-2.90,-1.89,1.45,
2.256,-2.75,5.35,-6.62,-2.99,-1.96,1.50,
2.256,-2.75,5.35,-6.62,-3.07,-2.03,1.55,
2.257,-2.75,5.35,-6.62,-3.15,-2.10,1.60,
2.259,-2.75,5.35,-6.62,-3.22,-2.17,1.65,
2.261,-2.75,5.35,-6.62,-3.30,-2.24,1.70,
2.264,-2.94,5.44,-5.95,-3.30,-2.24,1.70,
2.264,-2.94,5.44,-5.95,-3.38,-2.32,1.75,
2.282,-2.94,5.44,-5.95,-3.45,-2.40,1.80,
2.282,-2.94,5.44,-5.95,-3.52,-2.48,1.85,
2.283,-2.94,5.44,-5.95,-3.57,-2.57,1.91,
2.283,-2.94,5.44,-5.95,-3.62,-2.66,1.97,
2.283,-3.17,5.37,-5.48,-3.62,-2.66,1.97,
2.283,-3.17,5.37,-5.48,-3.66,-2.76,2.03,
2.283,-3.17,5.37,-5.48,-3.70,-2.88,2.10,
2.284,-3.17,5.37,-5.48,-3.73,-3.02,2.18,
2.284,-3.17,5.37,-5.48,-3.75,-3.15,2.26,
2.284,-3.17,5.37,-5.48,-3.77,-3.29,2.34,
2.284,-3.44,5.28,-4.34,-3.77,-3.29,2.34,
2.284,-3.44,5.28,-4.34,-3.77,-3.43,2.42,
2.298,-3.44,5.28,-4.34,-3.77,-3.58,2.51,
2.298,-3.44,5.28,-4.34,-3.75,-3.73,2.61,
2.298,-3.44,5.28,-4.34,-3.72,-3.86,2.71,
2.298,-3.44,5.28,-4.34,-3.68,-3.99,2.81,
2.299,-3.77,5.00,-3.23,-3.68,-3.99,2.81,
2.299,-3.77,5.00,-3.23,-3.63,-4.09,2.90,
2.299,-3.77,5.00,-3.23,-3.55,-4.17,2.99,
2.3,-3.77,5.00,-3.23,-3.45,-4.25,3.08,
2.3,-3.77,5.00,-3.23,-3.36,-4.32,3.16,
2.303,-3.77,5.00,-3.23,-3.26,-4.38,3.24,
2.304,-3.64,5.00,-1.82,-3.26,-4.38,3.24,
2.304,-3.64,5.00,-1.82,-3.16,-4.41,3.31,
2.305,-3.64,5.00,-1.82,-3.07,-4.40,3.38,
2.308,-3.64,5.00,-1.82,-2.99,-4.37,3.43,
2.31,-3.64,5.00,-1.82,-2.92,-4.30,3.49,
2.311,-3.64,5.00,-1.82,-2.86,-4.19,3.53,
2.314,-3.26,5.51,-1.84,-2.86,-4.19,3.53,
2.314,-3.26,5.51,-1.84,-2.81,-4.05,3.56,
2.316,-3.26,5.51,-1.84,-2.78,-3.85,3.58,
2.319,-3.26,5.51,-1.84,-2.78,-3.62,3.60,
2.32,-3.26,5.51,-1.84,-2.78,-3.36,3.59,
2.321,-3.26,5.51,-1.84,-2.81,-3.11,3.57,
2.324,-1.30,4.41,-2.81,-2.81,-3.11,3.57,
2.324,-1.30,4.41,-2.81,-2.85,-2.84,3.54,
2.325,-1.30,4.41,-2.81,-2.91,-2.53,3.51,
2.327,-1.30,4.41,-2.81,-2.99,-2.16,3.48,
2.329,-1.30,4.41,-2.81,-3.10,-1.73,3.45,
2.332,-1.30,4.41,-2.81,-3.22,-1.25,3.44,
2.334,2.05,-4.56,-6.21,-3.22,-1.25,3.44,
2.335,2.05,-4.56,-6.21,-3.34,-0.73,3.44,
2.336,2.05,-4.56,-6.21,-3.42,-0.24,3.48,
2.338,2.05,-4.56,-6.21,-3.45,0.19,3.58,
2.339,2.05,-4.56,-6.21,-3.46,0.53,3.73,
2.341,2.05,-4.56,-6.21,-3.48,0.83,3.91,
2.344,-1.21,-18.23,-5.17,-3.48,0.83,3.91,
2.344,-1.21,-18.23,-5.17,-3.47,1.12,4.10,
2.345,-1.21,-18.23,-5.17,-3.43,1.43,4.29,
2.347,-1.21,-18.23,-5.17,-3.37,1.76,4.47,
2.349,-1.21,-18.23,-5.17,-3.29,2.12,4.65,
2.352,-1.21,-18.23,-5.17,-3.20,2.50,4.81,
2.354,-2.82,-35.82,-3.89,-3.20,2.50,4.81,
2.354,-2.82,-35.82,-3.89,-3.07,2.88,4.95,
2.355,-2.82,-35.82,-3.89,-2.92,3.25,5.07,
2.357,-2.82,-35.82,-3.89,-2.75,3.60,5.18,
2.359,-2.82,-35.82,-3.89,-2.57,3.92,5.26,
2.361,-2.82,-35.82,-3.89,-2.38,4.23,5.31,
2.364,-2.43,-44.52,-2.68,-2.38,4.23,5.31,
2.364,-2.43,-44.52,-2.68,-2.19,4.52,5.31,
2.369,-2.43,-44.52,-2.68,-2.01,4.81,5.25,
2.37,-2.43,-44.52,-2.68,-1.83,5.09,5.14,
2.37,-2.43,-44.52,-2.68,-1.67,5.34,5.00,
2.372,-2.43,-44.52,-2.68,-1.52,5.57,4.83,
2.374,1.33,-37.57,-2.07,-1.52,5.57,4.83,
2.374,1.33,-37.57,-2.07,-1.38,5.78,4.66,
2.376,1.33,-37.57,-2.07,-1.25,5.96,4.48,
2.378,1.33,-37.57,-2.07,-1.13,6.13,4.29,
2.38,1.33,-37.57,-2.07,-1.02,6.28,4.10,
2.398,1.33,-37.57,-2.07,-0.91,6.42,3.91,
2.398,2.97,-23.26,-0.94,-0.91,6.42,3.91,
2.399,2.97,-23.26,-0.94,-0.82,6.54,3.72,
2.399,2.97,-23.26,-0.94,-0.72,6.64,3.53,
2.399,2.97,-23.26,-0.94,-0.63,6.74,3.34,
2.399,2.97,-23.26,-0.94,-0.55,6.81,3.15,
2.4,2.97,-23.26,-0.94,-0.47,6.88,2.97,
2.4,4.00,-11.09,0.49,-0.47,6.88,2.97,
2.4,4.00,-11.09,0.49,-0.39,6.92,2.78,
2.4,4.00,-11.09,0.49,-0.33,6.97,2.60,
2.4,4.00,-11.09,0.49,-0.26,7.00,2.42,
2.401,4.00,-11.09,0.49,-0.20,7.02,2.25,
2.404,4.00,-11.09,0.49,-0.14,7.03,2.08,
2.404,4.53,-2.43,1.74,-0.14,7.03,2.08,
2.405,4.53,-2.43,1.74,-0.08,7.02,1.92,
2.406,4.53,-2.43,1.74,-0.03,7.00,1.77,
2.407,4.53,-2.43,1.74,0.03,6.98,1.63,
2.41,4.53,-2.43,1.74,0.09,6.94,1.49,
2.412,4.53,-2.43,1.74,0.15,6.90,1.36,
2.417,4.11,2.92,2.95,0.15,6.90,1.36,
2.417,4.11,2.92,2.95,0.22,6.85,1.24,
2.418,4.11,2.92,2.95,0.29,6.79,1.13,
2.418,4.11,2.92,2.95,0.37,6.72,1.02,
2.421,4.11,2.92,2.95,0.46,6.63,0.92,
2.421,4.11,2.92,2.95,0.56,6.53,0.83,
2.424,2.98,6.35,4.23,0.56,6.53,0.83,
2.425,2.98,6.35,4.23,0.66,6.43,0.75,
2.426,2.98,6.35,4.23,0.77,6.33,0.68,
2.428,2.98,6.35,4.23,0.87,6.22,0.62,
2.43,2.98,6.35,4.23,0.98,6.11,0.56,
2.433,2.98,6.35,4.23,1.08,5.99,0.52,
2.434,1.67,8.25,5.29,1.08,5.99,0.52,
2.434,1.67,8.25,5.29,1.18,5.87,0.48,
2.436,1.67,8.25,5.29,1.27,5.74,0.45,
2.438,1.67,8.25,5.29,1.35,5.61,0.43,
2.439,1.67,8.25,5.29,1.43,5.47,0.41,
2.441,1.67,8.25,5.29,1.50,5.34,0.40,
2.444,0.35,9.05,4.49,1.50,5.34,0.40,
2.445,0.35,9.05,4.49,1.56,5.21,0.39,
2.446,0.35,9.05,4.49,1.61,5.08,0.39,
2.449,0.35,9.05,4.49,1.64,4.95,0.39,
2.45,0.35,9.05,4.49,1.67,4.83,0.40,
2.452,0.35,9.05,4.49,1.68,4.70,0.40,
2.469,-0.58,8.97,3.02,1.68,4.70,0.40,
2.469,-0.58,8.97,3.02,1.69,4.57,0.41,
2.47,-0.58,8.97,3.02,1.68,4.44,0.42,
2.47,-0.58,8.97,3.02,1.68,4.31,0.44,
2.47,-0.58,8.97,3.02,1.66,4.18,0.46,
2.471,-0.58,8.97,3.02,1.65,4.04,0.48,
2.471,-1.31,8.41,2.15,1.65,4.04,0.48,
2.471,-1.31,8.41,2.15,1.63,3.90,0.50,
2.471,-1.31,8.41,2.15,1.61,3.74,0.53,
2.472,-1.31,8.41,2.15,1.57,3.55,0.55,
2.472,-1.31,8.41,2.15,1.50,3.29,0.56,
2.472,-1.31,8.41,2.15,1.40,2.96,0.57,
2.476,-2.38,6.98,3.34,1.40,2.96,0.57,
2.477,-2.38,6.98,3.34,1.26,2.59,0.56,
2.477,-2.38,6.98,3.34,1.06,2.20,0.54,
2.477,-2.38,6.98,3.34,0.80,1.81,0.51,
2.48,-2.38,6.98,3.34,0.52,1.44,0.47,
2.481,-2.38,6.98,3.34,0.27,1.09,0.42,
2.484,-2.44,4.53,1.25,0.27,1.09,0.42,
2.485,-2.44,4.53,1.25,0.04,0.78,0.38,
2.487,-2.44,4.53,1.25,-0.16,0.51,0.34,
2.488,-2.44,4.53,1.25,-0.34,0.28,0.31,
2.49,-2.44,4.53,1.25,-0.50,0.07,0.27,
2.492,-2.44,4.53,1.25,-0.63,-0.11,0.24,
2.494,-2.36,2.99,0.88,-0.63,-0.11,0.24,
2.494,-2.36,2.99,0.88,-0.75,-0.27,0.21,
2.495,-2.36,2.99,0.88,-0.85,-0.42,0.19,
2.498,-2.36,2.99,0.88,-0.95,-0.55,0.16,
2.5,-2.36,2.99,0.88,-1.02,-0.65,0.14,
2.502,-2.36,2.99,0.88,-1.07,-0.74,0.12,
2.504,-2.32,1.28,1.52,-1.07,-0.74,0.12,
2.504,-2.32,1.28,1.52,-1.12,-0.83,0.10,
2.506,-2.32,1.28,1.52,-1.15,-0.91,0.08,
2.507,-2.32,1.28,1.52,-1.17,-0.98,0.06,
2.509,-2.32,1.28,1.52,-1.18,-1.06,0.04,
2.511,-2.32,1.28,1.52,-1.18,-1.13,0.02,
2.516,-2.36,-0.87,2.70,-1.18,-1.13,0.02,
2.517,-2.36,-0.87,2.70,-1.18,-1.20,-0.00,
2.517,-2.36,-0.87,2.70,-1.17,-1.26,-0.02,
2.519,-2.36,-0.87,2.70,-1.15,-1.32,-0.04,
2.52,-2.36,-0.87,2.70,-1.12,-1.37,-0.06,
2.522,-2.36,-0.87,2.70,-1.09,-1.42,-0.08,
2.526,-2.11,-2.95,3.31,-1.09,-1.42,-0.08,
2.526,-2.11,-2.95,3.31,-1.05,-1.46,-0.11,
2.528,-2.11,-2.95,3.31,-1.01,-1.50,-0.13,
2.529,-2.11,-2.95,3.31,-0.96,-1.53,-0.16,
2.53,-2.11,-2.95,3.31,-0.91,-1.55,-0.19,
2.546,-2.11,-2.95,3.31,-0.86,-1.57,-0.22,
2.547,-1.98,-4.54,3.64,-0.86,-1.57,-0.22,
2.547,-1.98,-4.54,3.64,-0.81,-1.58,-0.25,
2.548,-1.98,-4.54,3.64,-0.76,-1.58,-0.28,
2.548,-1.98,-4.54,3.64,-0.71,-1.58,-0.31,
2.548,-1.98,-4.54,3.64,-0.66,-1.57,-0.34,
2.548,-1.98,-4.54,3.64,-0.61,-1.55,-0.36,
2.549,-1.90,-5.48,3.47,-0.61,-1.55,-0.36,
2.549,-1.90,-5.48,3.47,-0.56,-1.53,-0.39,
2.549,-1.90,-5.48,3.47,-0.52,-1.49,-0.42,
2.549,-1.90,-5.48,3.47,-0.47,-1.45,-0.44,
2.552,-1.90,-5.48,3.47,-0.43,-1.40,-0.46,
2.552,-1.90,-5.48,3.47,-0.39,-1.35,-0.47,
2.555,-1.85,-5.11,3.24,-0.39,-1.35,-0.47,
2.555,-1.85,-5.11,3.24,-0.36,-1.28,-0.48,
2.556,-1.85,-5.11,3.24,-0.32,-1.22,-0.48,
2.558,-1.85,-5.11,3.24,-0.30,-1.14,-0.49,
2.56,-1.85,-5.11,3.24,-0.27,-1.06,-0.48,
2.562,-1.85,-5.11,3.24,-0.25,-0.98,-0.48,
2.587,-1.76,-3.21,2.85,-0.25,-0.98,-0.48,
2.588,-1.76,-3.21,2.85,-0.23,-0.89,-0.47,
2.588,-1.76,-3.21,2.85,-0.21,-0.79,-0.46,
2.588,-1.76,-3.21,2.85,-0.20,-0.69,-0.45,
2.588,-1.76,-3.21,2.85,-0.19,-0.57,-0.43,
2.588,-1.76,-3.21,2.85,-0.18,-0.45,-0.41,
2.589,-1.87,-1.52,2.84,-0.18,-0.45,-0.41,
2.589,-1.87,-1.52,2.84,-0.17,-0.32,-0.39,
2.589,-1.87,-1.52,2.84,-0.16,-0.19,-0.36,
2.589,-1.87,-1.52,2.84,-0.15,-0.04,-0.34,
2.589,-1.87,-1.52,2.84,-0.14,0.10,-0.31,
2.589,-1.87,-1.52,2.84,-0.13,0.26,-0.28,
2.589,-1.82,-0.40,3.14,-0.13,0.26,-0.28,
2.59,-1.82,-0.40,3.14,-0.11,0.42,-0.25,
2.59,-1.82,-0.40,3.14,-0.10,0.59,-0.21,
2.59,-1.82,-0.40,3.14,-0.08,0.76,-0.18,
2.59,-1.82,-0.40,3.14,-0.05,0.93,-0.14,
2.592,-1.82,-0.40,3.14,-0.02,1.09,-0.11,
2.595,-1.76,0.21,4.03,-0.02,1.09,-0.11,
2.595,-1.76,0.21,4.03,0.01,1.26,-0.07,
2.595,-1.76,0.21,4.03,0.05,1.42,-0.04,
2.598,-1.76,0.21,4.03,0.09,1.58,-0.00,
2.6,-1.76,0.21,4.03,0.14,1.73,0.04,
2.602,-1.76,0.21,4.03,0.19,1.87,0.08,
2.605,-1.64,0.17,4.93,0.19,1.87,0.08,
2.605,-1.64,0.17,4.93,0.25,2.00,0.12,
2.606,-1.64,0.17,4.93,0.31,2.11,0.16,
2.607,-1.64,0.17,4.93,0.37,2.21,0.21,
2.61,-1.64,0.17,4.93,0.44,2.29,0.25,
2.612,-1.64,0.17,4.93,0.51,2.36,0.30,
2.616,-1.86,-0.55,5.80,0.51,2.36,0.30,
2.616,-1.86,-0.55,5.80,0.59,2.40,0.35,
2.616,-1.86,-0.55,5.80,0.66,2.43,0.40,
2.619,-1.86,-0.55,5.80,0.74,2.44,0.45,
2.636,-1.86,-0.55,5.80,0.82,2.43,0.51,
2.636,-1.86,-0.55,5.80,0.90,2.41,0.56,
2.636,-2.32,-1.52,5.74,0.90,2.41,0.56,
2.637,-2.32,-1.52,5.74,0.97,2.37,0.62,
2.637,-2.32,-1.52,5.74,1.04,2.31,0.68,
2.637,-2.32,-1.52,5.74,1.12,2.24,0.74,
2.637,-2.32,-1.52,5.74,1.19,2.16,0.80,
2.637,-2.32,-1.52,5.74,1.25,2.07,0.86,
2.638,-3.07,-2.45,5.12,1.25,2.07,0.86,
2.638,-3.07,-2.45,5.12,1.32,1.96,0.92,
2.638,-3.07,-2.45,5.12,1.39,1.85,0.99,
2.638,-3.07,-2.45,5.12,1.45,1.72,1.05,
2.642,-3.07,-2.45,5.12,1.50,1.59,1.11,
2.645,-3.07,-2.45,5.12,1.56,1.45,1.18,
2.645,-3.81,-3.16,3.86,1.56,1.45,1.18,
2.646,-3.81,-3.16,3.86,1.62,1.30,1.24,
2.646,-3.81,-3.16,3.86,1.67,1.15,1.31,
2.65,-3.81,-3.16,3.86,1.72,1.00,1.37,
2.65,-3.81,-3.16,3.86,1.77,0.85,1.44,
2.653,-3.81,-3.16,3.86,1.82,0.70,1.50,
2.655,-4.65,-3.67,2.62,1.82,0.70,1.50,
2.655,-4.65,-3.67,2.62,1.87,0.55,1.57,
2.656,-4.65,-3.67,2.62,1.92,0.42,1.63,
2.658,-4.65,-3.67,2.62,1.98,0.29,1.70,
2.66,-4.65,-3.67,2.62,2.05,0.17,1.76,
2.661,-4.65,-3.67,2.62,2.12,0.07,1.83,
2.669,-5.07,-4.14,2.24,2.12,0.07,1.83,
2.669,-5.07,-4.14,2.24,2.20,-0.03,1.89,
2.67,-5.07,-4.14,2.24,2.28,-0.11,1.96,
2.67,-5.07,-4.14,2.24,2.37,-0.17,2.02,
2.67,-5.07,-4.14,2.24,2.47,-0.22,2.08,
2.681,-5.07,-4.14,2.24,2.57,-0.25,2.13,
2.713,-5.08,-4.49,2.82,2.57,-0.25,2.13,
2.714,-5.08,-4.49,2.82,2.68,-0.27,2.18,
2.714,-5.08,-4.49,2.82,2.78,-0.28,2.22,
2.715,-5.08,-4.49,2.82,3.06,-0.30,2.30,
2.715,-5.08,-4.49,2.82,3.16,-0.31,2.32,
2.715,-5.08,-4.49,2.82,3.21,-0.32,2.33,
2.715,-5.08,-4.49,2.82,3.30,-0.32,2.35,
2.715,-3.58,-4.32,2.42,3.30,-0.32,2.35,
2.716,-3.58,-4.32,2.42,3.38,-0.32,2.36,
2.716,-3.58,-4.32,2.42,3.45,-0.31,2.38,
2.716,-3.58,-4.32,2.42,3.48,-0.31,2.38,
2.716,-3.58,-4.32,2.42,3.51,-0.30,2.39,
2.716,-2.96,-4.10,1.39,3.51,-0.30,2.39,
2.717,-2.96,-4.10,1.39,3.56,-0.29,2.40,
2.717,-2.96,-4.10,1.39,3.61,-0.27,2.40,
2.717,-2.96,-4.10,1.39,3.65,-0.25,2.40,
2.717,-2.96,-4.10,1.39,3.68,-0.22,2.40,
2.717,-2.96,-4.10,1.39,3.71,-0.18,2.39,
2.717,-1.65,-3.78,0.09,3.71,-0.18,2.39,
2.718,-1.65,-3.78,0.09,3.74,-0.13,2.38,
2.718,-1.65,-3.78,0.09,3.76,-0.07,2.37,
2.718,-1.65,-3.78,0.09,3.78,-0.00,2.35,
2.718,-1.65,-3.78,0.09,3.79,0.07,2.34,
2.718,-1.65,-3.78,0.09,3.81,0.15,2.32,
2.719,-0.56,-3.76,-0.65,3.81,0.15,2.32,
2.719,-0.56,-3.76,-0.65,3.83,0.23,2.31,
2.719,-0.56,-3.76,-0.65,3.86,0.31,2.29,
2.723,-0.56,-3.76,-0.65,3.89,0.39,2.28,
2.723,-0.56,-3.76,-0.65,3.92,0.46,2.27,
2.723,-0.56,-3.76,-0.65,3.95,0.53,2.26,
2.725,0.16,-4.08,-0.26,3.95,0.53,2.26,
2.725,0.16,-4.08,-0.26,3.99,0.60,2.25,
2.726,0.16,-4.08,-0.26,4.03,0.66,2.24,
2.73,0.16,-4.08,-0.26,4.07,0.70,2.24,
2.731,0.16,-4.08,-0.26,4.10,0.75,2.23,
2.732,0.16,-4.08,-0.26,4.14,0.78,2.23,
2.735,0.57,-4.69,0.07,4.14,0.78,2.23,
2.735,0.57,-4.69,0.07,4.18,0.81,2.23,
2.736,0.57,-4.69,0.07,4.21,0.83,2.23,
2.738,0.57,-4.69,0.07,4.24,0.84,2.24,
2.742,0.57,-4.69,0.07,4.27,0.84,2.24,
2.742,0.57,-4.69,0.07,4.29,0.82,2.25,
2.744,0.72,-5.53,0.06,4.29,0.82,2.25,
2.744,0.72,-5.53,0.06,4.31,0.80,2.26,
2.746,0.72,-5.53,0.06,4.33,0.77,2.27,
2.748,0.72,-5.53,0.06,4.33,0.73,2.28,
2.75,0.72,-5.53,0.06,4.33,0.68,2.28,
2.752,0.72,-5.53,0.06,4.33,0.63,2.29,
2.754,1.34,-6.55,-0.46,4.33,0.63,2.29,
2.755,1.34,-6.55,-0.46,4.30,0.57,2.28,
2.755,1.34,-6.55,-0.46,4.28,0.52,2.28,
2.757,1.34,-6.55,-0.46,4.23,0.46,2.27,
2.759,1.34,-6.55,-0.46,4.17,0.40,2.26,
2.761,1.34,-6.55,-0.46,4.11,0.34,2.25,
2.764,2.30,-7.53,-1.31,4.11,0.34,2.25,
2.764,2.30,-7.53,-1.31,4.02,0.27,2.24,
2.766,2.30,-7.53,-1.31,3.92,0.20,2.23,
2.768,2.30,-7.53,-1.31,3.81,0.12,2.22,
2.769,2.30,-7.53,-1.31,3.69,0.03,2.21,
2.771,2.30,-7.53,-1.31,3.55,-0.07,2.19,
2.774,3.30,-8.23,-2.71,3.55,-0.07,2.19,
2.774,3.30,-8.23,-2.71,3.41,-0.19,2.17,
2.776,3.30,-8.23,-2.71,3.27,-0.33,2.15,
2.779,3.30,-8.23,-2.71,3.14,-0.49,2.12,
2.783,3.30,-8.23,-2.71,3.01,-0.67,2.08,
2.784,3.30,-8.23,-2.71,2.89,-0.86,2.04,
2.785,4.63,-8.10,-3.01,2.89,-0.86,2.04,
2.785,4.63,-8.10,-3.01,2.78,-1.07,1.98,
2.798,4.63,-8.10,-3.01,2.67,-1.29,1.92,
2.798,4.63,-8.10,-3.01,2.58,-1.51,1.84,
2.799,4.63,-8.10,-3.01,2.50,-1.74,1.76,
2.799,4.63,-8.10,-3.01,2.43,-1.97,1.66,
2.799,6.75,-7.76,-2.41,2.43,-1.97,1.66,
2.799,6.75,-7.76,-2.41,2.37,-2.19,1.56,
2.8,6.75,-7.76,-2.41,2.32,-2.40,1.45,
2.8,6.75,-7.76,-2.41,2.27,-2.60,1.34,
2.8,6.75,-7.76,-2.41,2.24,-2.77,1.23,
2.806,6.75,-7.76,-2.41,2.22,-2.92,1.12,
2.807,7.66,-7.70,-1.39,2.22,-2.92,1.12,
2.807,7.66,-7.70,-1.39,2.21,-3.04,1.01,
2.807,7.66,-7.70,-1.39,2.21,-3.13,0.91,
2.807,7.66,-7.70,-1.39,2.22,-3.20,0.80,
2.809,7.66,-7.70,-1.39,2.25,-3.23,0.70,
2.812,7.66,-7.70,-1.39,2.28,-3.24,0.59,
2.814,7.68,-8.00,0.10,2.28,-3.24,0.59,
2.814,7.68,-8.00,0.10,2.33,-3.22,0.48,
2.816,7.68,-8.00,0.10,2.39,-3.19,0.37,
2.818,7.68,-8.00,0.10,2.46,-3.13,0.25,
2.819,7.68,-8.00,0.10,2.54,-3.06,0.14,
2.822,7.68,-8.00,0.10,2.63,-2.97,0.04,
2.824,7.65,-8.63,1.83,2.63,-2.97,0.04,
2.824,7.65,-8.63,1.83,2.73,-2.86,-0.07,
2.825,7.65,-8.63,1.83,2.84,-2.72,-0.17,
2.827,7.65,-8.63,1.83,2.96,-2.56,-0.26,
2.83,7.65,-8.63,1.83,3.07,-2.38,-0.35,
2.831,7.65,-8.63,1.83,3.19,-2.18,-0.43,
2.835,7.00,-9.39,2.42,3.19,-2.18,-0.43,
2.835,7.00,-9.39,2.42,3.30,-1.94,-0.50,
2.836,7.00,-9.39,2.42,3.40,-1.68,-0.56,
2.838,7.00,-9.39,2.42,3.51,-1.39,-0.63,
2.839,7.00,-9.39,2.42,3.61,-1.08,-0.70,
2.841,7.00,-9.39,2.42,3.70,-0.76,-0.76,
2.844,6.32,-10.44,0.76,3.70,-0.76,-0.76,
2.844,6.32,-10.44,0.76,3.80,-0.43,-0.81,
2.847,6.32,-10.44,0.76,3.90,-0.08,-0.83,
2.847,6.32,-10.44,0.76,3.99,0.27,-0.85,
2.849,6.32,-10.44,0.76,4.06,0.60,-0.84,
2.852,6.32,-10.44,0.76,4.11,0.91,-0.83,
2.855,4.35,-10.73,-2.24,4.11,0.91,-0.83,
2.855,4.35,-10.73,-2.24,4.14,1.20,-0.80,
2.855,4.35,-10.73,-2.24,4.16,1.47,-0.77,
2.857,4.35,-10.73,-2.24,4.16,1.72,-0.73,
2.859,4.35,-10.73,-2.24,4.16,1.96,-0.69,
2.861,4.35,-10.73,-2.24,4.14,2.19,-0.65,
2.865,2.91,-9.79,-5.39,4.14,2.19,-0.65,
2.865,2.91,-9.79,-5.39,4.13,2.41,-0.61,
2.866,2.91,-9.79,-5.39,4.11,2.61,-0.56,
2.867,2.91,-9.79,-5.39,4.09,2.80,-0.50,
2.87,2.91,-9.79,-5.39,4.08,2.98,-0.43,
2.871,2.91,-9.79,-5.39,4.07,3.14,-0.36,
2.874,1.27,-7.31,-6.94,4.07,3.14,-0.36,
2.875,1.27,-7.31,-6.94,4.06,3.29,-0.28,
2.876,1.27,-7.31,-6.94,4.05,3.43,-0.20,
2.877,1.27,-7.31,-6.94,4.03,3.56,-0.11,
2.88,1.27,-7.31,-6.94,4.02,3.66,-0.02,
2.882,1.27,-7.31,-6.94,4.02,3.74,0.07,
2.884,-0.39,-4.53,-7.49,4.02,3.74,0.07,
2.885,-0.39,-4.53,-7.49,4.02,3.78,0.16,
2.885,-0.39,-4.53,-7.49,4.02,3.80,0.24,
2.888,-0.39,-4.53,-7.49,4.03,3.78,0.33,
2.889,-0.39,-4.53,-7.49,4.04,3.74,0.41,
2.891,-0.39,-4.53,-7.49,4.06,3.68,0.49,
2.894,-1.12,-2.19,-6.98,4.06,3.68,0.49,
2.895,-1.12,-2.19,-6.98,4.08,3.59,0.57,
2.896,-1.12,-2.19,-6.98,4.11,3.49,0.63,
2.898,-1.12,-2.19,-6.98,4.13,3.38,0.69,
2.9,-1.12,-2.19,-6.98,4.15,3.25,0.74,
2.902,-1.12,-2.19,-6.98,4.17,3.11,0.79,
2.904,-0.93,0.01,-6.26,4.17,3.11,0.79,
2.905,-0.93,0.01,-6.26,4.19,2.97,0.84,
2.905,-0.93,0.01,-6.26,4.21,2.82,0.88,
2.908,-0.93,0.01,-6.26,4.23,2.67,0.92,
2.909,-0.93,0.01,-6.26,4.25,2.53,0.96,
2.912,-0.93,0.01,-6.26,4.25,2.40,1.00,
2.915,-1.66,1.82,-5.73,4.25,2.40,1.00,
2.917,-1.66,1.82,-5.73,4.25,2.28,1.04,
2.917,-1.66,1.82,-5.73,4.24,2.19,1.08,
2.92,-1.66,1.82,-5.73,4.22,2.11,1.12,
2.92,-1.66,1.82,-5.73,4.19,2.06,1.15,
2.922,-1.66,1.82,-5.73,4.15,2.02,1.18,
2.924,-2.19,2.91,-6.08,4.15,2.02,1.18,
2.925,-2.19,2.91,-6.08,4.10,2.00,1.20,
2.926,-2.19,2.91,-6.08,4.04,1.98,1.23,
2.928,-2.19,2.91,-6.08,3.97,1.99,1.25,
2.931,-2.19,2.91,-6.08,3.89,2.00,1.28,
2.932,-2.19,2.91,-6.08,3.81,2.03,1.30,
2.934,-2.57,3.68,-6.94,3.81,2.03,1.30,
2.935,-2.57,3.68,-6.94,3.72,2.06,1.31,
2.936,-2.57,3.68,-6.94,3.63,2.09,1.33,
2.938,-2.57,3.68,-6.94,3.53,2.12,1.34,
2.94,-2.57,3.68,-6.94,3.44,2.14,1.34,
2.942,-2.57,3.68,-6.94,3.34,2.15,1.34,
2.944,-1.66,4.07,-6.89,3.34,2.15,1.34,
2.945,-1.66,4.07,-6.89,3.24,2.17,1.33,
2.957,-1.66,4.07,-6.89,3.15,2.17,1.30,
2.958,-1.66,4.07,-6.89,3.05,2.16,1.28,
2.958,-1.66,4.07,-6.89,2.97,2.13,1.24,
2.958,-1.66,4.07,-6.89,2.88,2.08,1.20,
2.99,-0.41,4.53,-6.24,2.88,2.08,1.20,
2.991,-0.41,4.53,-6.24,2.80,2.01,1.16,
2.991,-0.41,4.53,-6.24,2.72,1.92,1.11,
2.991,-0.41,4.53,-6.24,2.64,1.81,1.06,
2.991,-0.41,4.53,-6.24,2.55,1.70,1.01,
2.992,-0.41,4.53,-6.24,2.48,1.58,0.95,
2.992,0.93,4.37,-5.47,2.48,1.58,0.95,
2.992,0.93,4.37,-5.47,2.40,1.45,0.89,
2.993,0.93,4.37,-5.47,2.32,1.32,0.84,
2.993,0.93,4.37,-5.47,2.24,1.19,0.80,
2.993,0.93,4.37,-5.47,2.17,1.06,0.76,
2.993,0.93,4.37,-5.47,2.09,0.95,0.72,
2.994,1.31,3.81,-5.29,2.09,0.95,0.72,
2.994,1.31,3.81,-5.29,2.02,0.83,0.69,
2.994,1.31,3.81,-5.29,1.94,0.74,0.67,
2.995,1.31,3.81,-5.29,1.87,0.65,0.64,
2.995,1.31,3.81,-5.29,1.80,0.58,0.63,
2.995,1.31,3.81,-5.29,1.73,0.51,0.61,
2.995,1.71,2.95,-5.14,1.73,0.51,0.61,
2.996,1.71,2.95,-5.14,1.66,0.45,0.60,
2.996,1.71,2.95,-5.14,1.59,0.39,0.59,
2.996,1.71,2.95,-5.14,1.52,0.34,0.58,
2.996,1.71,2.95,-5.14,1.46,0.30,0.57,
2.997,1.71,2.95,-5.14,1.40,0.26,0.56,
2.997,2.29,1.90,-4.65,1.40,0.26,0.56,
2.997,2.29,1.90,-4.65,1.34,0.22,0.55,
2.997,2.29,1.90,-4.65,1.29,0.19,0.54,
3.006,2.29,1.90,-4.65,1.23,0.16,0.54,
3.006,2.29,1.90,-4.65,1.18,0.14,0.53,
3.006,2.29,1.90,-4.65,1.13,0.12,0.52,
3.007,2.90,1.14,-3.99,1.13,0.12,0.52,
3.007,2.90,1.14,-3.99,1.08,0.11,0.51,
3.007,2.90,1.14,-3.99,1.03,0.10,0.51,
3.008,2.90,1.14,-3.99,0.98,0.09,0.50,
3.012,2.90,1.14,-3.99,0.93,0.10,0.49,
3.012,2.90,1.14,-3.99,0.88,0.10,0.48,
3.019,3.41,0.38,-3.72,0.88,0.10,0.48,
3.02,3.41,0.38,-3.72,0.83,0.11,0.46,
3.02,3.41,0.38,-3.72,0.78,0.12,0.45,
3.02,3.41,0.38,-3.72,0.73,0.15,0.43,
3.02,3.41,0.38,-3.72,0.68,0.18,0.42,
3.022,3.41,0.38,-3.72,0.64,0.21,0.40,
3.025,3.63,-0.06,-3.43,0.64,0.21,0.40,
3.025,3.63,-0.06,-3.43,0.60,0.24,0.39,
3.025,3.63,-0.06,-3.43,0.56,0.28,0.38,
3.028,3.63,-0.06,-3.43,0.52,0.30,0.36,
3.03,3.63,-0.06,-3.43,0.49,0.33,0.35,
3.032,3.63,-0.06,-3.43,0.46,0.35,0.34,
3.036,3.75,-0.25,-2.69,0.46,0.35,0.34,
3.036,3.75,-0.25,-2.69,0.42,0.36,0.32,
3.037,3.75,-0.25,-2.69,0.40,0.37,0.31,
3.038,3.75,-0.25,-2.69,0.38,0.37,0.30,
3.041,3.75,-0.25,-2.69,0.37,0.37,0.28,
3.047,3.75,-0.25,-2.69,0.35,0.37,0.26,
3.047,3.88,-0.05,-1.59,0.35,0.37,0.26,
3.047,3.88,-0.05,-1.59,0.34,0.36,0.24,
3.048,3.88,-0.05,-1.59,0.34,0.36,0.22,
3.05,3.88,-0.05,-1.59,0.34,0.36,0.19,
3.05,3.88,-0.05,-1.59,0.34,0.37,0.15,
3.054,3.88,-0.05,-1.59,0.34,0.38,0.12,
3.055,4.45,0.38,-0.66,0.34,0.38,0.12,
3.055,4.45,0.38,-0.66,0.34,0.41,0.08,
3.056,4.45,0.38,-0.66,0.35,0.44,0.03,
3.058,4.45,0.38,-0.66,0.35,0.49,-0.02,
3.06,4.45,0.38,-0.66,0.36,0.54,-0.07,
3.064,4.45,0.38,-0.66,0.37,0.61,-0.13,
3.066,5.12,1.00,-0.45,0.37,0.61,-0.13,
3.066,5.12,1.00,-0.45,0.38,0.69,-0.19,
3.067,5.12,1.00,-0.45,0.38,0.78,-0.26,
3.07,5.12,1.00,-0.45,0.39,0.87,-0.32,
3.07,5.12,1.00,-0.45,0.39,0.98,-0.39,
3.072,5.12,1.00,-0.45,0.40,1.09,-0.45,
3.077,5.94,1.56,-0.41,0.40,1.09,-0.45,
3.077,5.94,1.56,-0.41,0.40,1.20,-0.52,
3.077,5.94,1.56,-0.41,0.39,1.30,-0.58,
3.083,5.94,1.56,-0.41,0.38,1.40,-0.64,
3.083,5.94,1.56,-0.41,0.37,1.50,-0.70,
3.084,5.94,1.56,-0.41,0.35,1.59,-0.75,
3.085,6.15,1.94,-0.67,0.35,1.59,-0.75,
3.085,6.15,1.94,-0.67,0.33,1.68,-0.80,
3.089,6.15,1.94,-0.67,0.31,1.76,-0.85,
3.089,6.15,1.94,-0.67,0.29,1.82,-0.90,
3.089,6.15,1.94,-0.67,0.26,1.88,-0.94,
3.092,6.15,1.94,-0.67,0.24,1.92,-0.97,
3.121,6.01,2.37,-0.36,0.24,1.92,-0.97,
3.122,6.01,2.37,-0.36,0.22,1.95,-1.00,
3.122,6.01,2.37,-0.36,0.20,1.97,-1.03,
3.122,6.01,2.37,-0.36,0.18,1.97,-1.05,
3.123,6.01,2.37,-0.36,0.16,1.95,-1.06,
3.123,6.01,2.37,-0.36,0.15,1.92,-1.07,
3.123,5.16,2.77,0.51,0.15,1.92,-1.07,
3.123,5.16,2.77,0.51,0.15,1.87,-1.07,
3.123,5.16,2.77,0.51,0.14,1.81,-1.07,
3.124,5.16,2.77,0.51,0.14,1.74,-1.06,
3.124,5.16,2.77,0.51,0.15,1.65,-1.05,
3.124,5.16,2.77,0.51,0.15,1.56,-1.03,
3.124,3.88,3.10,1.74,0.15,1.56,-1.03,
3.124,3.88,3.10,1.74,0.18,1.24,-0.94,
3.125,3.88,3.10,1.74,0.19,1.14,-0.90,
3.125,3.88,3.10,1.74,0.19,1.14,-0.90,
3.161,3.88,3.10,1.74,0.19,1.14,-0.90,
3.161,3.88,3.10,1.74,0.20,1.04,-0.86,
3.161,1.85,3.06,2.00,0.20,1.04,-0.86,
3.161,1.85,3.06,2.00,0.20,0.94,-0.82,
3.162,1.85,3.06,2.00,0.20,0.85,-0.78,
3.162,1.85,3.06,2.00,0.19,0.77,-0.73,
3.162,1.85,3.06,2.00,0.16,0.69,-0.69,
3.163,1.85,3.06,2.00,0.13,0.63,-0.64,
3.163,-0.37,2.94,0.85,0.13,0.63,-0.64,
3.163,-0.37,2.94,0.85,0.10,0.57,-0.61,
3.163,-0.37,2.94,0.85,0.05,0.53,-0.58,
3.164,-0.37,2.94,0.85,-0.01,0.49,-0.56,
3.164,-0.37,2.94,0.85,-0.08,0.46,-0.54,
3.164,-0.37,2.94,0.85,-0.16,0.45,-0.54,
3.164,-2.00,2.79,-1.58,-0.16,0.45,-0.54,
3.165,-2.00,2.79,-1.58,-0.25,0.44,-0.54,
3.165,-2.00,2.79,-1.58,-0.34,0.45,-0.56,
3.165,-2.00,2.79,-1.58,-0.44,0.46,-0.59,
3.165,-2.00,2.79,-1.58,-0.55,0.48,-0.64,
3.166,-2.00,2.79,-1.58,-0.66,0.51,-0.70,
3.166,-2.50,2.98,-4.23,-0.66,0.51,-0.70,
3.166,-2.50,2.98,-4.23,-0.77,0.54,-0.78,
3.166,-2.50,2.98,-4.23,-0.89,0.58,-0.87,
3.167,-2.50,2.98,-4.23,-1.02,0.61,-0.97,
3.167,-2.50,2.98,-4.23,-1.14,0.64,-1.08,
3.167,-2.50,2.98,-4.23,-1.28,0.66,-1.19,
3.167,-1.48,2.94,-6.72,-1.28,0.66,-1.19,
3.168,-1.48,2.94,-6.72,-1.40,0.65,-1.31,
3.168,-1.48,2.94,-6.72,-1.52,0.63,-1.44,
3.169,-1.48,2.94,-6.72,-1.61,0.57,-1.56,
3.177,-1.48,2.94,-6.72,-1.68,0.48,-1.68,
3.177,-1.48,2.94,-6.72,-1.71,0.34,-1.79,
3.177,-1.03,3.50,-4.77,-1.71,0.34,-1.79,
3.177,-1.03,3.50,-4.77,-1.66,0.13,-1.88,
3.178,-1.03,3.50,-4.77,-1.54,-0.15,-1.95,
3.182,-1.03,3.50,-4.77,-1.30,-0.50,-1.99,
3.183,-1.03,3.50,-4.77,-0.92,-0.92,-2.00,
3.183,-1.03,3.50,-4.77,-0.39,-1.39,-1.96,
3.185,-5.59,4.27,16.90,-0.39,-1.39,-1.96,
3.188,-5.59,4.27,16.90,0.25,-1.86,-1.87,
3.189,-5.59,4.27,16.90,0.94,-2.25,-1.73,
3.189,-5.59,4.27,16.90,1.52,-2.42,-1.56,
3.194,-5.59,4.27,16.90,1.90,-2.30,-1.36,
3.194,-5.59,4.27,16.90,2.02,-1.87,-1.15,
3.2,-16.47,2.01,22.53,2.02,-1.87,-1.15,
3.202,-16.47,2.01,22.53,1.91,-1.21,-0.94,
3.202,-16.47,2.01,22.53,1.62,-0.39,-0.74,
3.202,-16.47,2.01,22.53,1.21,0.48,-0.56,
3.203,-16.47,2.01,22.53,0.76,1.28,-0.42,
3.203,-16.47,2.01,22.53,0.34,1.90,-0.32,
3.205,-16.46,-5.63,-1.71,0.34,1.90,-0.32,
3.205,-16.46,-5.63,-1.71,0.03,2.26,-0.26,
3.206,-16.46,-5.63,-1.71,-0.18,2.32,-0.21,
3.207,-16.46,-5.63,-1.71,-0.27,2.07,-0.18,
3.209,-16.46,-5.63,-1.71,-0.31,1.61,-0.16,
3.218,-16.46,-5.63,-1.71,-0.34,1.01,-0.15,
3.219,-7.24,-13.07,3.55,-0.34,1.01,-0.15,
3.22,-7.24,-13.07,3.55,-0.41,0.38,-0.14,
3.22,-7.24,-13.07,3.55,-0.56,-0.20,-0.15,
3.22,-7.24,-13.07,3.55,-0.79,-0.67,-0.16,
3.22,-7.24,-13.07,3.55,-1.08,-1.00,-0.19,
3.263,-7.24,-13.07,3.55,-1.38,-1.19,-0.23,
3.263,-0.07,-14.02,-6.26,-1.38,-1.19,-0.23,
3.264,-0.07,-14.02,-6.26,-1.65,-1.27,-0.27,
3.264,-0.07,-14.02,-6.26,-1.88,-1.29,-0.31,
3.264,-0.07,-14.02,-6.26,-2.07,-1.28,-0.35,
3.264,-0.07,-14.02,-6.26,-2.23,-1.28,-0.41,
3.264,-0.07,-14.02,-6.26,-2.38,-1.29,-0.47,
3.264,3.89,-10.91,-6.65,-2.38,-1.29,-0.47,
3.264,3.89,-10.91,-6.65,-2.52,-1.29,-0.55,
3.265,3.89,-10.91,-6.65,-2.67,-1.29,-0.63,
3.265,3.89,-10.91,-6.65,-2.89,-1.25,-0.79,
3.265,3.89,-10.91,-6.65,-2.96,-1.24,-0.85,
3.265,3.89,-10.91,-6.65,-3.07,-1.19,-0.96,
3.265,7.06,-6.70,-8.15,-3.07,-1.19,-0.96,
3.265,7.06,-6.70,-8.15,-3.16,-1.13,-1.09,
3.265,7.06,-6.70,-8.15,-3.23,-1.05,-1.22,
3.266,7.06,-6.70,-8.15,-3.26,-0.98,-1.35,
3.266,7.06,-6.70,-8.15,-3.25,-0.90,-1.49,
3.266,7.06,-6.70,-8.15,-3.21,-0.82,-1.63,
3.266,8.63,-2.93,-5.11,-3.21,-0.82,-1.63,
3.266,8.63,-2.93,-5.11,-3.14,-0.75,-1.77,
3.266,8.63,-2.93,-5.11,-3.05,-0.69,-1.90,
3.266,8.63,-2.93,-5.11,-2.92,-0.65,-2.03,
3.266,8.63,-2.93,-5.11,-2.78,-0.61,-2.15,
3.267,8.63,-2.93,-5.11,-2.62,-0.59,-2.25,
3.267,7.39,0.14,-1.19,-2.62,-0.59,-2.25,
3.267,7.39,0.14,-1.19,-2.46,-0.57,-2.33,
3.267,7.39,0.14,-1.19,-2.29,-0.57,-2.40,
3.27,7.39,0.14,-1.19,-2.12,-0.55,-2.44,
3.27,7.39,0.14,-1.19,-1.96,-0.53,-2.46,
3.273,7.39,0.14,-1.19,-1.79,-0.50,-2.46,
3.276,3.87,1.08,0.09,-1.79,-0.50,-2.46,
3.276,3.87,1.08,0.09,-1.64,-0.45,-2.43,
3.276,3.87,1.08,0.09,-1.50,-0.39,-2.38,
3.28,3.87,1.08,0.09,-1.38,-0.33,-2.31,
3.28,3.87,1.08,0.09,-1.28,-0.26,-2.22,
3.281,3.87,1.08,0.09,-1.20,-0.21,-2.11,
3.288,0.12,0.74,-0.82,-1.20,-0.21,-2.11,
3.288,0.12,0.74,-0.82,-1.14,-0.17,-1.99,
3.3,0.12,0.74,-0.82,-1.10,-0.15,-1.86,
3.3,0.12,0.74,-0.82,-1.08,-0.14,-1.72,
3.3,0.12,0.74,-0.82,-1.08,-0.15,-1.57,
3.3,0.12,0.74,-0.82,-1.08,-0.17,-1.42,
3.3,-2.47,0.11,-2.83,-1.08,-0.17,-1.42,
3.301,-2.47,0.11,-2.83,-1.10,-0.18,-1.26,
3.301,-2.47,0.11,-2.83,-1.12,-0.20,-1.10,
3.301,-2.47,0.11,-2.83,-1.14,-0.22,-0.93,
3.301,-2.47,0.11,-2.83,-1.16,-0.24,-0.76,
3.301,-2.47,0.11,-2.83,-1.18,-0.24,-0.60,
3.305,-3.70,-0.61,-3.03,-1.18,-0.24,-0.60,
3.305,-3.70,-0.61,-3.03,-1.21,-0.25,-0.44,
3.305,-3.70,-0.61,-3.03,-1.23,-0.25,-0.28,
3.308,-3.70,-0.61,-3.03,-1.26,-0.24,-0.12,
3.311,-3.70,-0.61,-3.03,-1.29,-0.23,0.02,
3.312,-3.70,-0.61,-3.03,-1.33,-0.22,0.16,
3.314,-3.53,-1.62,-2.56,-1.33,-0.22,0.16,
3.314,-3.53,-1.62,-2.56,-1.37,-0.20,0.28,
3.315,-3.53,-1.62,-2.56,-1.41,-0.19,0.39,
3.317,-3.53,-1.62,-2.56,-1.45,-0.18,0.49,
3.319,-3.53,-1.62,-2.56,-1.50,-0.18,0.57,
3.321,-3.53,-1.62,-2.56,-1.55,-0.19,0.64,
3.324,-2.04,-2.66,-2.09,-1.55,-0.19,0.64,
3.324,-2.04,-2.66,-2.09,-1.61,-0.20,0.69,
3.325,-2.04,-2.66,-2.09,-1.66,-0.23,0.74,
3.33,-2.04,-2.66,-2.09,-1.72,-0.26,0.77,
3.331,-2.04,-2.66,-2.09,-1.77,-0.31,0.79,
3.331,-2.04,-2.66,-2.09,-1.83,-0.36,0.80,
3.334,-0.56,-3.62,-1.71,-1.83,-0.36,0.80,
3.334,-0.56,-3.62,-1.71,-1.88,-0.43,0.80,
3.336,-0.56,-3.62,-1.71,-1.93,-0.50,0.80,
3.338,-0.56,-3.62,-1.71,-1.99,-0.59,0.79,
3.339,-0.56,-3.62,-1.71,-2.04,-0.67,0.77,
3.341,-0.56,-3.62,-1.71,-2.09,-0.76,0.75,
3.35,0.24,-4.07,-1.25,-2.09,-0.76,0.75,
3.35,0.24,-4.07,-1.25,-2.14,-0.84,0.72,
3.35,0.24,-4.07,-1.25,-2.19,-0.92,0.70,
3.35,0.24,-4.07,-1.25,-2.24,-0.99,0.68,
3.351,0.24,-4.07,-1.25,-2.29,-1.05,0.65,
3.351,0.24,-4.07,-1.25,-2.34,-1.10,0.62,
3.355,0.45,-4.48,-1.27,-2.34,-1.10,0.62,
3.355,0.45,-4.48,-1.27,-2.39,-1.14,0.58,
3.356,0.45,-4.48,-1.27,-2.44,-1.17,0.55,
3.359,0.45,-4.48,-1.27,-2.48,-1.20,0.51,
3.359,0.45,-4.48,-1.27,-2.52,-1.22,0.47,
3.362,0.45,-4.48,-1.27,-2.55,-1.24,0.42,
3.366,0.45,-4.42,-1.13,-2.55,-1.24,0.42,
3.366,0.45,-4.42,-1.13,-2.57,-1.25,0.37,
3.366,0.45,-4.42,-1.13,-2.59,-1.25,0.32,
3.37,0.45,-4.42,-1.13,-2.61,-1.25,0.27,
3.37,0.45,-4.42,-1.13,-2.62,-1.25,0.22,
3.373,0.45,-4.42,-1.13,-2.62,-1.24,0.16,
3.376,0.52,-3.96,-0.91,-2.62,-1.24,0.16,
3.376,0.52,-3.96,-0.91,-2.62,-1.23,0.10,
3.376,0.52,-3.96,-0.91,-2.61,-1.21,0.04,
3.379,0.52,-3.96,-0.91,-2.60,-1.19,-0.02,
3.38,0.52,-3.96,-0.91,-2.58,-1.17,-0.08,
3.383,0.52,-3.96,-0.91,-2.56,-1.15,-0.14,
3.386,0.66,-3.21,-0.62,-2.56,-1.15,-0.14,
3.386,0.66,-3.21,-0.62,-2.52,-1.11,-0.24,
3.387,0.66,-3.21,-0.62,-2.51,-1.10,-0.27,
3.389,0.66,-3.21,-0.62,-2.48,-1.07,-0.33,
3.389,0.66,-3.21,-0.62,-2.46,-1.05,-0.40,
3.393,0.66,-3.21,-0.62,-2.42,-1.02,-0.47,
3.396,0.97,-2.51,-0.31,-2.42,-1.02,-0.47,
3.396,0.97,-2.51,-0.31,-2.40,-1.00,-0.53,
3.397,0.97,-2.51,-0.31,-2.37,-0.97,-0.60,
3.399,0.97,-2.51,-0.31,-2.34,-0.95,-0.66,
3.402,0.97,-2.51,-0.31,-2.31,-0.93,-0.72,
3.402,0.97,-2.51,-0.31,-2.27,-0.90,-0.77,
3.406,1.00,-1.77,-0.10,-2.27,-0.90,-0.77,
3.406,1.00,-1.77,-0.10,-2.25,-0.88,-0.83,
3.406,1.00,-1.77,-0.10,-2.22,-0.86,-0.88,
3.407,1.00,-1.77,-0.10,-2.20,-0.83,-0.92,
3.41,1.00,-1.77,-0.10,-2.17,-0.81,-0.96,
3.411,1.00,-1.77,-0.10,-2.15,-0.78,-0.99,
3.414,0.84,-1.31,-0.30,-2.15,-0.78,-0.99,
3.414,0.84,-1.31,-0.30,-2.13,-0.75,-1.01,
3.416,0.84,-1.31,-0.30,-2.12,-0.71,-1.03,
3.417,0.84,-1.31,-0.30,-2.10,-0.68,-1.04,
3.419,0.84,-1.31,-0.30,-2.09,-0.64,-1.04,
3.421,0.84,-1.31,-0.30,-2.08,-0.61,-1.04,
3.424,0.45,-0.87,-0.52,-2.08,-0.61,-1.04,
3.424,0.45,-0.87,-0.52,-2.08,-0.57,-1.03,
3.426,0.45,-0.87,-0.52,-2.07,-0.54,-1.02,
3.428,0.45,-0.87,-0.52,-2.06,-0.51,-1.01,
3.431,0.45,-0.87,-0.52,-2.05,-0.48,-1.00,
3.432,0.45,-0.87,-0.52,-2.04,-0.45,-0.98,
3.434,0.34,-0.43,-0.52,-2.04,-0.45,-0.98,
3.434,0.34,-0.43,-0.52,-2.04,-0.43,-0.97,
3.436,0.34,-0.43,-0.52,-2.03,-0.40,-0.95,
3.438,0.34,-0.43,-0.52,-2.03,-0.38,-0.93,
3.44,0.34,-0.43,-0.52,-2.02,-0.36,-0.91,
3.442,0.34,-0.43,-0.52,-2.02,-0.35,-0.90,
3.445,0.40,-0.00,-0.34,-2.02,-0.35,-0.90,
3.445,0.40,-0.00,-0.34,-2.01,-0.33,-0.87,
3.446,0.40,-0.00,-0.34,-2.01,-0.32,-0.85,
3.449,0.40,-0.00,-0.34,-2.00,-0.31,-0.83,
3.45,0.40,-0.00,-0.34,-2.00,-0.31,-0.81,
3.452,0.40,-0.00,-0.34,-1.99,-0.30,-0.78,
3.485,0.36,0.40,-0.08,-1.99,-0.30,-0.78,
3.486,0.36,0.40,-0.08,-1.99,-0.30,-0.76,
3.486,0.36,0.40,-0.08,-1.99,-0.30,-0.74,
3.487,0.36,0.40,-0.08,-1.98,-0.30,-0.71,
3.487,0.36,0.40,-0.08,-1.98,-0.31,-0.69,
3.49,0.36,0.40,-0.08,-1.98,-0.31,-0.66,
3.49,0.39,0.66,0.05,-1.98,-0.31,-0.66,
3.491,0.39,0.66,0.05,-1.97,-0.31,-0.64,
3.491,0.39,0.66,0.05,-1.98,-0.31,-0.62,
3.492,0.39,0.66,0.05,-1.97,-0.30,-0.59,
3.492,0.39,0.66,0.05,-1.97,-0.31,-0.57,
3.492,0.39,0.66,0.05,-1.98,-0.31,-0.54,
3.493,0.31,0.89,0.12,-1.98,-0.31,-0.54,
3.493,0.31,0.89,0.12,-1.97,-0.30,-0.52,
3.494,0.31,0.89,0.12,-1.97,-0.30,-0.50,
3.494,0.31,0.89,0.12,-1.97,-0.29,-0.48,
3.494,0.31,0.89,0.12,-1.97,-0.29,-0.45,
3.495,0.31,0.89,0.12,-1.97,-0.28,-0.43,
3.495,0.38,0.98,0.19,-1.97,-0.28,-0.43,
3.496,0.38,0.98,0.19,-1.96,-0.28,-0.41,
3.496,0.38,0.98,0.19,-1.97,-0.28,-0.39,
3.496,0.38,0.98,0.19,-1.97,-0.28,-0.38,
3.497,0.38,0.98,0.19,-1.97,-0.28,-0.37,
3.497,0.38,0.98,0.19,-1.98,-0.28,-0.35,
3.498,0.37,0.95,0.28,-1.98,-0.28,-0.35,
3.498,0.37,0.95,0.28,-1.98,-0.28,-0.34,
3.498,0.37,0.95,0.28,-1.99,-0.29,-0.32,
3.499,0.37,0.95,0.28,-1.99,-0.29,-0.30,
3.52,0.37,0.95,0.28,-1.99,-0.29,-0.29,
3.521,0.37,0.95,0.28,-1.99,-0.30,-0.27,
3.521,0.28,1.09,0.51,-1.99,-0.30,-0.27,
3.521,0.28,1.09,0.51,-1.99,-0.31,-0.26,
3.522,0.28,1.09,0.51,-1.99,-0.32,-0.25,
3.522,0.28,1.09,0.51,-1.99,-0.33,-0.23,
3.522,0.28,1.09,0.51,-1.99,-0.34,-0.22,
3.522,0.28,1.09,0.51,-1.99,-0.36,-0.21,
3.522,0.22,1.12,0.81,-1.99,-0.36,-0.21,
3.523,0.22,1.12,0.81,-1.98,-0.37,-0.20,
3.523,0.22,1.12,0.81,-1.98,-0.39,-0.19,
3.523,0.22,1.12,0.81,-1.98,-0.42,-0.19,
3.523,0.22,1.12,0.81,-1.97,-0.44,-0.19,
3.524,0.22,1.12,0.81,-1.97,-0.47,-0.18,
3.564,0.17,1.00,1.14,-1.97,-0.47,-0.18,
3.565,0.17,1.00,1.14,-1.96,-0.50,-0.18,
3.565,0.17,1.00,1.14,-1.95,-0.52,-0.18,
3.565,0.17,1.00,1.14,-1.95,-0.55,-0.19,
3.565,0.17,1.00,1.14,-1.94,-0.58,-0.20,
3.566,0.17,1.00,1.14,-1.93,-0.60,-0.20,
3.566,0.12,0.91,1.55,-1.93,-0.60,-0.20,
3.566,0.12,0.91,1.55,-1.93,-0.62,-0.21,
3.566,0.12,0.91,1.55,-1.92,-0.65,-0.22,
3.567,0.12,0.91,1.55,-1.90,-0.66,-0.22,
3.567,0.12,0.91,1.55,-1.90,-0.67,-0.23,
3.567,0.12,0.91,1.55,-1.89,-0.68,-0.24,
3.567,0.01,0.93,1.75,-1.89,-0.68,-0.24,
3.568,0.01,0.93,1.75,-1.88,-0.68,-0.25,
3.568,0.01,0.93,1.75,-1.86,-0.67,-0.27,
3.568,0.01,0.93,1.75,-1.85,-0.66,-0.29,
3.568,0.01,0.93,1.75,-1.84,-0.65,-0.31,
3.568,0.01,0.93,1.75,-1.83,-0.63,-0.33,
3.569,0.28,1.00,2.00,-1.83,-0.63,-0.33,
3.569,0.28,1.00,2.00,-1.82,-0.62,-0.36,
3.569,0.28,1.00,2.00,-1.80,-0.61,-0.40,
3.569,0.28,1.00,2.00,-1.78,-0.60,-0.43,
3.57,0.28,1.00,2.00,-1.77,-0.58,-0.46,
3.57,0.28,1.00,2.00,-1.75,-0.56,-0.49,
3.57,0.26,1.14,2.33,-1.75,-0.56,-0.49,
3.57,0.26,1.14,2.33,-1.73,-0.54,-0.51,
3.57,0.26,1.14,2.33,-1.72,-0.52,-0.54,
3.571,0.26,1.14,2.33,-1.71,-0.49,-0.56,
3.571,0.26,1.14,2.33,-1.69,-0.47,-0.58,
3.572,0.26,1.14,2.33,-1.68,-0.43,-0.60,
3.576,-0.02,1.27,2.64,-1.68,-0.43,-0.60,
3.576,-0.02,1.27,2.64,-1.67,-0.40,-0.62,
3.577,-0.02,1.27,2.64,-1.66,-0.37,-0.64,
3.578,-0.02,1.27,2.64,-1.65,-0.34,-0.66,
3.581,-0.02,1.27,2.64,-1.64,-0.31,-0.69,
3.582,-0.02,1.27,2.64,-1.63,-0.28,-0.70,
3.586,-0.20,1.08,2.83,-1.63,-0.28,-0.70,
3.586,-0.20,1.08,2.83,-1.63,-0.26,-0.72,
3.586,-0.20,1.08,2.83,-1.62,-0.24,-0.74,
3.588,-0.20,1.08,2.83,-1.61,-0.22,-0.76,
3.59,-0.20,1.08,2.83,-1.61,-0.20,-0.78,
3.592,-0.20,1.08,2.83,-1.60,-0.17,-0.80,
3.597,-0.24,1.16,3.23,-1.60,-0.17,-0.80,
3.597,-0.24,1.16,3.23,-1.60,-0.15,-0.82,
3.597,-0.24,1.16,3.23,-1.59,-0.13,-0.83,
3.597,-0.24,1.16,3.23,-1.59,-0.12,-0.84,
3.6,-0.24,1.16,3.23,-1.58,-0.11,-0.85,
3.602,-0.24,1.16,3.23,-1.58,-0.11,-0.85,
3.604,-0.59,1.36,3.27,-1.58,-0.11,-0.85,
3.605,-0.59,1.36,3.27,-1.58,-0.12,-0.86,
3.606,-0.59,1.36,3.27,-1.59,-0.13,-0.85,
3.616,-0.59,1.36,3.27,-1.59,-0.15,-0.85,
3.616,-0.59,1.36,3.27,-1.59,-0.17,-0.84,
3.616,-0.59,1.36,3.27,-1.59,-0.19,-0.83,
3.617,-1.00,1.48,3.47,-1.59,-0.19,-0.83,
3.617,-1.00,1.48,3.47,-1.59,-0.22,-0.82,
3.617,-1.00,1.48,3.47,-1.58,-0.24,-0.80,
3.618,-1.00,1.48,3.47,-1.57,-0.28,-0.77,
3.642,-1.00,1.48,3.47,-1.57,-0.29,-0.76,
3.643,-1.00,1.48,3.47,-1.56,-0.30,-0.73,
3.643,-1.24,1.50,3.74,-1.56,-0.30,-0.73,
3.643,-1.24,1.50,3.74,-1.54,-0.31,-0.70,
3.644,-1.24,1.50,3.74,-1.53,-0.32,-0.67,
3.644,-1.24,1.50,3.74,-1.51,-0.32,-0.64,
3.644,-1.24,1.50,3.74,-1.49,-0.32,-0.61,
3.645,-1.24,1.50,3.74,-1.48,-0.32,-0.58,
3.645,-1.37,1.53,3.98,-1.48,-0.32,-0.58,
3.645,-1.37,1.53,3.98,-1.47,-0.32,-0.55,
3.645,-1.37,1.53,3.98,-1.45,-0.32,-0.52,
3.646,-1.37,1.53,3.98,-1.44,-0.32,-0.49,
3.646,-1.37,1.53,3.98,-1.43,-0.32,-0.47,
3.646,-1.37,1.53,3.98,-1.43,-0.32,-0.45,
3.647,-0.98,1.34,3.37,-1.43,-0.32,-0.45,
3.647,-0.98,1.34,3.37,-1.42,-0.32,-0.43,
3.647,-0.98,1.34,3.37,-1.42,-0.32,-0.42,
3.653,-0.98,1.34,3.37,-1.42,-0.33,-0.40,
3.654,-0.98,1.34,3.37,-1.42,-0.34,-0.39,
3.654,-0.98,1.34,3.37,-1.43,-0.35,-0.39,
3.654,-0.26,0.88,2.60,-1.43,-0.35,-0.39,
3.655,-0.26,0.88,2.60,-1.44,-0.37,-0.39,
3.656,-0.26,0.88,2.60,-1.45,-0.39,-0.39,
3.658,-0.26,0.88,2.60,-1.47,-0.42,-0.40,
3.66,-0.26,0.88,2.60,-1.48,-0.45,-0.41,
3.664,-0.26,0.88,2.60,-1.50,-0.47,-0.42,
3.665,0.55,0.20,1.82,-1.50,-0.47,-0.42,
3.665,0.55,0.20,1.82,-1.52,-0.50,-0.44,
3.666,0.55,0.20,1.82,-1.53,-0.52,-0.45,
3.668,0.55,0.20,1.82,-1.54,-0.54,-0.46,
3.67,0.55,0.20,1.82,-1.56,-0.56,-0.48,
3.672,0.55,0.20,1.82,-1.57,-0.58,-0.49,
3.674,0.86,-0.40,1.70,-1.57,-0.58,-0.49,
3.674,0.86,-0.40,1.70,-1.58,-0.59,-0.50,
3.677,0.86,-0.40,1.70,-1.59,-0.60,-0.52,
3.68,0.86,-0.40,1.70,-1.60,-0.61,-0.53,
3.681,0.86,-0.40,1.70,-1.60,-0.62,-0.55,
3.682,0.86,-0.40,1.70,-1.61,-0.62,-0.56,
3.689,0.91,-0.91,1.70,-1.61,-0.62,-0.56,
3.69,0.91,-0.91,1.70,-1.62,-0.63,-0.58,
3.69,0.91,-0.91,1.70,-1.62,-0.63,-0.60,
3.69,0.91,-0.91,1.70,-1.62,-0.63,-0.63,
3.69,0.91,-0.91,1.70,-1.62,-0.63,-0.65,
3.693,0.91,-0.91,1.70,-1.62,-0.63,-0.68,
3.696,1.16,-1.33,1.81,-1.62,-0.63,-0.68,
3.697,1.16,-1.33,1.81,-1.61,-0.63,-0.71,
3.697,1.16,-1.33,1.81,-1.61,-0.63,-0.74,
3.698,1.16,-1.33,1.81,-1.60,-0.63,-0.78,
3.7,1.16,-1.33,1.81,-1.59,-0.63,-0.81,
3.702,1.16,-1.33,1.81,-1.58,-0.64,-0.85,
3.704,1.35,-1.81,1.89,-1.58,-0.64,-0.85,
3.704,1.35,-1.81,1.89,-1.57,-0.64,-0.89,
3.705,1.35,-1.81,1.89,-1.56,-0.65,-0.94,
3.708,1.35,-1.81,1.89,-1.54,-0.65,-0.98,
3.711,1.35,-1.81,1.89,-1.53,-0.65,-1.02,
3.712,1.35,-1.81,1.89,-1.52,-0.66,-1.06,
3.715,1.45,-2.52,2.04,-1.52,-0.66,-1.06,
3.715,1.45,-2.52,2.04,-1.50,-0.66,-1.10,
3.717,1.45,-2.52,2.04,-1.48,-0.66,-1.15,
3.718,1.45,-2.52,2.04,-1.46,-0.66,-1.21,
3.72,1.45,-2.52,2.04,-1.45,-0.66,-1.23,
3.722,1.45,-2.52,2.04,-1.44,-0.66,-1.27,
3.724,1.26,-3.35,1.96,-1.44,-0.66,-1.27,
3.725,1.26,-3.35,1.96,-1.42,-0.66,-1.31,
3.726,1.26,-3.35,1.96,-1.41,-0.65,-1.34,
3.728,1.26,-3.35,1.96,-1.40,-0.65,-1.37,
3.73,1.26,-3.35,1.96,-1.39,-0.64,-1.41,
3.732,1.26,-3.35,1.96,-1.37,-0.62,-1.43,
3.736,0.82,-4.20,1.96,-1.37,-0.62,-1.43,
3.737,0.82,-4.20,1.96,-1.35,-0.60,-1.47,
3.737,0.82,-4.20,1.96,-1.35,-0.59,-1.48,
3.739,0.82,-4.20,1.96,-1.32,-0.56,-1.51,
3.74,0.82,-4.20,1.96,-1.32,-0.54,-1.51,
3.744,0.82,-4.20,1.96,-1.30,-0.52,-1.52,
3.747,0.08,-4.95,2.20,-1.30,-0.52,-1.52,
3.747,0.08,-4.95,2.20,-1.28,-0.48,-1.53,
3.756,0.08,-4.95,2.20,-1.26,-0.43,-1.53,
3.756,0.08,-4.95,2.20,-1.24,-0.39,-1.52,
3.756,0.08,-4.95,2.20,-1.22,-0.34,-1.51,
3.757,0.08,-4.95,2.20,-1.21,-0.32,-1.50,
3.757,-0.76,-5.58,2.57,-1.21,-0.32,-1.50,
3.757,-0.76,-5.58,2.57,-1.19,-0.28,-1.48,
3.757,-0.76,-5.58,2.57,-1.17,-0.23,-1.46,
3.758,-0.76,-5.58,2.57,-1.14,-0.18,-1.43,
3.764,-0.76,-5.58,2.57,-1.12,-0.14,-1.40,
3.765,-0.76,-5.58,2.57,-1.09,-0.09,-1.36,
3.765,-1.59,-5.99,2.91,-1.09,-0.09,-1.36,
3.765,-1.59,-5.99,2.91,-1.07,-0.05,-1.32,
3.765,-1.59,-5.99,2.91,-1.04,-0.00,-1.28,
3.768,-1.59,-5.99,2.91,-1.00,0.04,-1.22,
3.77,-1.59,-5.99,2.91,-0.96,0.08,-1.17,
3.773,-1.59,-5.99,2.91,-0.92,0.12,-1.10,
3.813,-2.60,-5.94,3.69,-0.92,0.12,-1.10,
3.814,-2.60,-5.94,3.69,-0.87,0.16,-1.03,
3.814,-2.60,-5.94,3.69,-0.81,0.20,-0.96,
3.814,-2.60,-5.94,3.69,-0.76,0.24,-0.88,
3.814,-2.60,-5.94,3.69,-0.70,0.28,-0.79,
3.814,-2.60,-5.94,3.69,-0.63,0.32,-0.71,
3.814,-3.39,-5.51,4.61,-0.63,0.32,-0.71,
3.815,-3.39,-5.51,4.61,-0.57,0.37,-0.62,
3.832,-3.39,-5.51,4.61,-0.50,0.42,-0.52,
3.832,-3.39,-5.51,4.61,-0.43,0.47,-0.43,
3.832,-3.39,-5.51,4.61,-0.36,0.52,-0.33,
3.833,-3.39,-5.51,4.61,-0.29,0.57,-0.23,
3.833,-3.89,-5.11,5.40,-0.29,0.57,-0.23,
3.833,-3.89,-5.11,5.40,-0.22,0.61,-0.14,
3.833,-3.89,-5.11,5.40,-0.15,0.66,-0.05,
3.834,-3.89,-5.11,5.40,-0.08,0.69,0.04,
3.834,-3.89,-5.11,5.40,-0.01,0.72,0.13,
3.834,-3.89,-5.11,5.40,0.07,0.74,0.20,
3.834,-3.58,-4.68,5.63,0.07,0.74,0.20,
3.835,-3.58,-4.68,5.63,0.14,0.75,0.27,
3.835,-3.58,-4.68,5.63,0.21,0.75,0.32,
3.835,-3.58,-4.68,5.63,0.28,0.73,0.38,
3.835,-3.58,-4.68,5.63,0.35,0.71,0.42,
3.835,-3.58,-4.68,5.63,0.42,0.68,0.46,
3.836,-2.78,-3.96,5.63,0.42,0.68,0.46,
3.836,-2.78,-3.96,5.63,0.49,0.64,0.49,
3.836,-2.78,-3.96,5.63,0.56,0.58,0.51,
3.836,-2.78,-3.96,5.63,0.62,0.52,0.53,
3.837,-2.78,-3.96,5.63,0.68,0.44,0.55,
3.837,-2.78,-3.96,5.63,0.74,0.36,0.57,
3.837,-2.21,-3.30,5.01,0.74,0.36,0.57,
3.837,-2.21,-3.30,5.01,0.79,0.27,0.59,
3.837,-2.21,-3.30,5.01,0.84,0.17,0.60,
3.838,-2.21,-3.30,5.01,0.91,0.01,0.62,
3.838,-2.21,-3.30,5.01,0.94,-0.04,0.62,
3.838,-2.21,-3.30,5.01,0.98,-0.15,0.63,
3.838,-2.00,-2.79,4.22,0.98,-0.15,0.63,
3.838,-2.00,-2.79,4.22,1.02,-0.27,0.64,
3.839,-2.00,-2.79,4.22,1.06,-0.39,0.65,
3.839,-2.00,-2.79,4.22,1.10,-0.51,0.67,
3.843,-2.00,-2.79,4.22,1.14,-0.63,0.68,
3.844,-2.00,-2.79,4.22,1.18,-0.76,0.69,
3.846,-2.16,-2.38,3.61,1.18,-0.76,0.69,
3.846,-2.16,-2.38,3.61,1.23,-0.88,0.71,
3.846,-2.16,-2.38,3.61,1.28,-0.99,0.73,
3.848,-2.16,-2.38,3.61,1.34,-1.09,0.75,
3.849,-2.16,-2.38,3.61,1.40,-1.19,0.78,
3.852,-2.16,-2.38,3.61,1.47,-1.27,0.81,
3.854,-3.08,-2.25,4.01,1.47,-1.27,0.81,
3.854,-3.08,-2.25,4.01,1.55,-1.34,0.84,
3.856,-3.08,-2.25,4.01,1.63,-1.38,0.87,
3.858,-3.08,-2.25,4.01,1.71,-1.41,0.90,
3.86,-3.08,-2.25,4.01,1.79,-1.41,0.93,
3.862,-3.08,-2.25,4.01,1.88,-1.39,0.97,
3.864,-3.74,-2.57,4.15,1.88,-1.39,0.97,
3.864,-3.74,-2.57,4.15,1.96,-1.35,1.00,
3.865,-3.74,-2.57,4.15,2.04,-1.28,1.03,
3.867,-3.74,-2.57,4.15,2.12,-1.19,1.06,
3.869,-3.74,-2.57,4.15,2.20,-1.07,1.10,
3.871,-3.74,-2.57,4.15,2.29,-0.95,1.13,
3.874,-4.16,-2.79,3.99,2.29,-0.95,1.13,
3.875,-4.16,-2.79,3.99,2.37,-0.80,1.16,
3.877,-4.16,-2.79,3.99,2.46,-0.65,1.20,
3.878,-4.16,-2.79,3.99,2.55,-0.48,1.24,
3.88,-4.16,-2.79,3.99,2.64,-0.31,1.28,
3.881,-4.16,-2.79,3.99,2.74,-0.14,1.31,
3.884,-4.10,-2.81,4.10,2.74,-0.14,1.31,
3.884,-4.10,-2.81,4.10,2.84,0.04,1.35,
3.885,-4.10,-2.81,4.10,2.94,0.22,1.38,
3.887,-4.10,-2.81,4.10,3.04,0.40,1.40,
3.889,-4.10,-2.81,4.10,3.15,0.57,1.42,
3.893,-4.10,-2.81,4.10,3.26,0.73,1.43,
3.894,-2.82,-2.56,3.94,3.26,0.73,1.43,
3.894,-2.82,-2.56,3.94,3.36,0.88,1.44,
3.895,-2.82,-2.56,3.94,3.45,1.02,1.45,
3.897,-2.82,-2.56,3.94,3.59,1.21,1.45,
3.9,-2.82,-2.56,3.94,3.63,1.27,1.45,
3.901,-2.82,-2.56,3.94,3.70,1.37,1.44,
3.905,-0.71,-2.57,2.45,3.70,1.37,1.44,
3.906,-0.71,-2.57,2.45,3.77,1.45,1.44,
3.906,-0.71,-2.57,2.45,3.82,1.52,1.43,
3.92,-0.71,-2.57,2.45,3.86,1.58,1.42,
3.92,-0.71,-2.57,2.45,3.89,1.62,1.41,
3.92,-0.71,-2.57,2.45,3.89,1.64,1.38,
3.92,1.50,-3.05,-0.18,3.89,1.64,1.38,
3.92,1.50,-3.05,-0.18,3.89,1.65,1.35,
3.92,1.50,-3.05,-0.18,3.87,1.64,1.31,
3.92,1.50,-3.05,-0.18,3.82,1.60,1.24,
3.921,1.50,-3.05,-0.18,3.79,1.58,1.21,
3.921,1.50,-3.05,-0.18,3.74,1.53,1.15,
3.927,3.62,-3.47,-2.45,3.74,1.53,1.15,
3.927,3.62,-3.47,-2.45,3.64,1.45,1.05,
3.927,3.62,-3.47,-2.45,3.61,1.42,1.02,
3.928,3.62,-3.47,-2.45,3.50,1.33,0.93,
3.931,3.62,-3.47,-2.45,3.47,1.29,0.89,
3.932,3.62,-3.47,-2.45,3.39,1.22,0.82,
3.934,5.07,-4.25,-2.61,3.39,1.22,0.82,
3.934,5.07,-4.25,-2.61,3.27,1.08,0.72,
3.936,5.07,-4.25,-2.61,3.22,1.02,0.69,
3.937,5.07,-4.25,-2.61,3.14,0.89,0.63,
3.939,5.07,-4.25,-2.61,3.06,0.74,0.57,
3.942,5.07,-4.25,-2.61,2.99,0.57,0.52,
3.944,5.31,-5.20,-2.12,2.99,0.57,0.52,
3.944,5.31,-5.20,-2.12,2.88,0.25,0.45,
3.946,5.31,-5.20,-2.12,2.84,0.13,0.43,
3.948,5.31,-5.20,-2.12,2.77,-0.12,0.39,
3.95,5.31,-5.20,-2.12,2.70,-0.40,0.36,
3.951,5.31,-5.20,-2.12,2.63,-0.70,0.34,
3.966,4.45,-5.54,-2.82,2.63,-0.70,0.34,
3.966,4.45,-5.54,-2.82,2.51,-1.13,0.33,
3.966,4.45,-5.54,-2.82,2.47,-1.27,0.33,
3.966,4.45,-5.54,-2.82,2.32,-1.67,0.36,
3.967,4.45,-5.54,-2.82,2.26,-1.79,0.37,
3.967,4.45,-5.54,-2.82,2.14,-2.02,0.41,
3.967,1.81,-5.14,-6.09,2.14,-2.02,0.41,
3.967,1.81,-5.14,-6.09,1.95,-2.32,0.47,
3.967,1.81,-5.14,-6.09,1.88,-2.41,0.49,
3.968,1.81,-5.14,-6.09,1.69,-2.65,0.57,
3.971,1.81,-5.14,-6.09,1.62,-2.72,0.59,
3.972,1.81,-5.14,-6.09,1.48,-2.85,0.64,
3.974,-0.09,-4.86,-8.66,1.48,-2.85,0.64,
3.975,-0.09,-4.86,-8.66,1.29,-2.99,0.72,
3.976,-0.09,-4.86,-8.66,1.17,-3.07,0.77,
3.978,-0.09,-4.86,-8.66,1.07,-3.14,0.81,
3.98,-0.09,-4.86,-8.66,1.03,-3.16,0.83,
3.981,-0.09,-4.86,-8.66,0.96,-3.22,0.87,
3.984,-0.51,-5.03,-6.82,0.96,-3.22,0.87,
3.984,-0.51,-5.03,-6.82,0.93,-3.28,0.92,
3.985,-0.51,-5.03,-6.82,0.93,-3.30,0.93,
3.987,-0.51,-5.03,-6.82,0.97,-3.33,0.96,
3.989,-0.51,-5.03,-6.82,1.00,-3.34,0.97,
3.992,-0.51,-5.03,-6.82,1.06,-3.33,0.98,
3.994,-0.46,-5.92,-2.29,1.06,-3.33,0.98,
3.995,-0.46,-5.92,-2.29,1.19,-3.31,1.00,
3.999,-0.46,-5.92,-2.29,1.30,-3.28,1.01,
3.999,-0.46,-5.92,-2.29,1.43,-3.25,1.02,
4.0,-0.46,-5.92,-2.29,1.57,-3.22,1.04,
4.002,-0.46,-5.92,-2.29,1.73,-3.17,1.06,
4.004,-1.15,-6.43,0.77,1.73,-3.17,1.06,
4.004,-1.15,-6.43,0.77,1.89,-3.12,1.07,
4.006,-1.15,-6.43,0.77,2.06,-3.06,1.08,
4.008,-1.15,-6.43,0.77,2.23,-2.98,1.09,
4.01,-1.15,-6.43,0.77,2.41,-2.90,1.09,
4.012,-1.15,-6.43,0.77,2.58,-2.81,1.09,
4.014,-1.58,-7.14,1.69,2.58,-2.81,1.09,
4.014,-1.58,-7.14,1.69,2.75,-2.72,1.09,
4.016,-1.58,-7.14,1.69,2.90,-2.61,1.09,
4.018,-1.58,-7.14,1.69,3.05,-2.49,1.08,
4.019,-1.58,-7.14,1.69,3.18,-2.35,1.06,
4.022,-1.58,-7.14,1.69,3.28,-2.19,1.03,
4.04,-1.64,-7.55,-0.23,3.28,-2.19,1.03,
4.041,-1.64,-7.55,-0.23,3.36,-2.04,0.98,
4.041,-1.64,-7.55,-0.23,3.42,-1.90,0.93,
4.041,-1.64,-7.55,-0.23,3.46,-1.76,0.88,
4.041,-1.64,-7.55,-0.23,3.49,-1.63,0.81,
4.042,-1.64,-7.55,-0.23,3.51,-1.51,0.74,
4.042,-0.86,-7.80,-3.72,3.51,-1.51,0.74,
4.042,-0.86,-7.80,-3.72,3.52,-1.40,0.65,
4.042,-0.86,-7.80,-3.72,3.53,-1.30,0.56,
4.043,-0.86,-7.80,-3.72,3.53,-1.21,0.46,
4.043,-0.86,-7.80,-3.72,3.54,-1.11,0.34,
4.043,-0.86,-7.80,-3.72,3.55,-1.03,0.22,
4.046,0.46,-7.97,-3.63,3.55,-1.03,0.22,
4.046,0.46,-7.97,-3.63,3.56,-0.94,0.10,
4.046,0.46,-7.97,-3.63,3.57,-0.85,-0.02,
4.048,0.46,-7.97,-3.63,3.58,-0.75,-0.14,
4.05,0.46,-7.97,-3.63,3.59,-0.65,-0.26,
4.052,0.46,-7.97,-3.63,3.59,-0.54,-0.38,
4.054,0.92,-7.44,-2.43,3.59,-0.54,-0.38,
4.054,0.92,-7.44,-2.43,3.58,-0.43,-0.48,
4.056,0.92,-7.44,-2.43,3.57,-0.30,-0.57,
4.077,0.92,-7.44,-2.43,3.54,-0.18,-0.64,
4.077,0.92,-7.44,-2.43,3.51,-0.07,-0.70,
4.078,0.92,-7.44,-2.43,3.47,0.05,-0.75,
4.078,-0.20,-5.86,-2.80,3.47,0.05,-0.75,
4.078,-0.20,-5.86,-2.80,3.43,0.16,-0.78,
4.079,-0.20,-5.86,-2.80,3.40,0.27,-0.81,
4.079,-0.20,-5.86,-2.80,3.38,0.37,-0.83,
4.08,-0.20,-5.86,-2.80,3.36,0.45,-0.84,
4.08,-0.20,-5.86,-2.80,3.34,0.52,-0.86,
4.08,-1.28,-4.02,-3.44,3.34,0.52,-0.86,
4.08,-1.28,-4.02,-3.44,3.32,0.58,-0.87,
4.081,-1.28,-4.02,-3.44,3.31,0.64,-0.87,
4.081,-1.28,-4.02,-3.44,3.30,0.69,-0.88,
4.083,-1.28,-4.02,-3.44,3.30,0.73,-0.88,
4.083,-1.28,-4.02,-3.44,3.31,0.78,-0.89,
4.084,-1.58,-2.28,-4.30,3.31,0.78,-0.89,
4.085,-1.58,-2.28,-4.30,3.31,0.81,-0.89,
4.086,-1.58,-2.28,-4.30,3.31,0.84,-0.89,
4.088,-1.58,-2.28,-4.30,3.31,0.87,-0.89,
4.09,-1.58,-2.28,-4.30,3.31,0.90,-0.89,
4.093,-1.58,-2.28,-4.30,3.31,0.94,-0.89,
4.095,-1.46,-0.70,-6.22,3.31,0.94,-0.89,
4.095,-1.46,-0.70,-6.22,3.31,0.98,-0.89,
4.097,-1.46,-0.70,-6.22,3.30,1.02,-0.90,
4.098,-1.46,-0.70,-6.22,3.30,1.06,-0.90,
4.1,-1.46,-0.70,-6.22,3.30,1.10,-0.90,
4.102,-1.46,-0.70,-6.22,3.30,1.15,-0.91,
4.104,-0.92,1.13,-7.59,3.30,1.15,-0.91,
4.105,-0.92,1.13,-7.59,3.30,1.20,-0.90,
4.105,-0.92,1.13,-7.59,3.31,1.24,-0.90,
4.109,-0.92,1.13,-7.59,3.33,1.28,-0.89,
4.11,-0.92,1.13,-7.59,3.35,1.31,-0.88,
4.116,-0.92,1.13,-7.59,3.36,1.34,-0.86,
4.116,-0.65,3.17,-7.84,3.36,1.34,-0.86,
4.119,-0.65,3.17,-7.84,3.41,1.36,-0.80,
4.12,-0.65,3.17,-7.84,3.41,1.35,-0.77,
4.12,-0.65,3.17,-7.84,3.41,1.35,-0.77,
4.143,-0.65,3.17,-7.84,3.42,1.35,-0.75,
4.144,-0.65,3.17,-7.84,3.42,1.35,-0.75,
4.144,0.03,5.28,-7.82,3.42,1.35,-0.75,
4.144,0.03,5.28,-7.82,3.43,1.35,-0.72,
4.145,0.03,5.28,-7.82,3.43,1.35,-0.68,
4.145,0.03,5.28,-7.82,3.43,1.36,-0.65,
4.145,0.03,5.28,-7.82,3.43,1.37,-0.60,
4.145,0.03,5.28,-7.82,3.42,1.40,-0.54,
4.146,0.12,7.24,-8.30,3.42,1.40,-0.54,
4.146,0.12,7.24,-8.30,3.40,1.43,-0.48,
4.146,0.12,7.24,-8.30,3.37,1.47,-0.42,
4.147,0.12,7.24,-8.30,3.32,1.52,-0.34,
4.147,0.12,7.24,-8.30,3.26,1.57,-0.27,
4.147,0.12,7.24,-8.30,3.20,1.63,-0.18,
4.147,0.43,8.91,-9.12,3.20,1.63,-0.18,
4.148,0.43,8.91,-9.12,3.13,1.68,-0.09,
4.148,0.43,8.91,-9.12,3.05,1.74,-0.00,
4.148,0.43,8.91,-9.12,2.96,1.80,0.09,
4.154,0.43,8.91,-9.12,2.88,1.85,0.19,
4.154,0.43,8.91,-9.12,2.80,1.90,0.28,
4.155,0.76,9.70,-8.61,2.80,1.90,0.28,
4.155,0.76,9.70,-8.61,2.72,1.96,0.37,
4.156,0.76,9.70,-8.61,2.64,2.01,0.46,
4.166,0.76,9.70,-8.61,2.57,2.07,0.55,
4.167,0.76,9.70,-8.61,2.50,2.13,0.63,
4.167,0.76,9.70,-8.61,2.43,2.19,0.72,
4.167,1.70,9.63,-7.19,2.43,2.19,0.72,
4.167,1.70,9.63,-7.19,2.36,2.24,0.80,
4.168,1.70,9.63,-7.19,2.28,2.28,0.87,
4.168,1.70,9.63,-7.19,2.20,2.32,0.94,
4.171,1.70,9.63,-7.19,2.12,2.33,1.00,
4.172,1.70,9.63,-7.19,2.03,2.34,1.05,
4.182,2.84,9.48,-5.62,2.03,2.34,1.05,
4.183,2.84,9.48,-5.62,1.93,2.32,1.10,
4.183,2.84,9.48,-5.62,1.83,2.30,1.14,
4.183,2.84,9.48,-5.62,1.72,2.26,1.16,
4.184,2.84,9.48,-5.62,1.61,2.21,1.18,
4.184,2.84,9.48,-5.62,1.48,2.16,1.19,
4.184,4.07,7.87,-4.82,1.48,2.16,1.19,
4.185,4.07,7.87,-4.82,1.35,2.09,1.19,
4.189,4.07,7.87,-4.82,1.21,2.02,1.19,
4.189,4.07,7.87,-4.82,1.07,1.92,1.18,
4.19,4.07,7.87,-4.82,0.92,1.80,1.16,
4.218,4.07,7.87,-4.82,0.78,1.66,1.13,
4.219,5.07,5.70,-4.50,0.78,1.66,1.13,
4.219,5.07,5.70,-4.50,0.64,1.49,1.10,
4.219,5.07,5.70,-4.50,0.51,1.31,1.07,
4.219,5.07,5.70,-4.50,0.37,1.10,1.03,
4.22,5.07,5.70,-4.50,0.24,0.89,0.98,
4.22,5.07,5.70,-4.50,0.12,0.69,0.93,
4.22,5.26,3.86,-5.27,0.12,0.69,0.93,
4.22,5.26,3.86,-5.27,-0.01,0.48,0.87,
4.22,5.26,3.86,-5.27,-0.13,0.30,0.82,
4.221,5.26,3.86,-5.27,-0.24,0.14,0.75,
4.221,5.26,3.86,-5.27,-0.36,0.01,0.69,
4.221,5.26,3.86,-5.27,-0.45,-0.10,0.62,
4.221,5.44,2.79,-6.47,-0.45,-0.10,0.62,
4.222,5.44,2.79,-6.47,-0.55,-0.17,0.55,
4.222,5.44,2.79,-6.47,-0.64,-0.21,0.48,
4.222,5.44,2.79,-6.47,-0.71,-0.22,0.40,
4.222,5.44,2.79,-6.47,-0.78,-0.20,0.33,
4.222,5.44,2.79,-6.47,-0.84,-0.15,0.26,
4.225,4.77,2.78,-6.81,-0.84,-0.15,0.26,
4.225,4.77,2.78,-6.81,-0.88,-0.09,0.20,
4.226,4.77,2.78,-6.81,-0.92,0.00,0.13,
4.23,4.77,2.78,-6.81,-0.95,0.10,0.07,
4.231,4.77,2.78,-6.81,-0.97,0.20,0.02,
4.232,4.77,2.78,-6.81,-1.00,0.31,-0.04,
4.234,3.95,3.04,-6.32,-1.00,0.31,-0.04,
4.234,3.95,3.04,-6.32,-1.02,0.41,-0.10,
4.236,3.95,3.04,-6.32,-1.04,0.50,-0.15,
4.238,3.95,3.04,-6.32,-1.06,0.58,-0.20,
4.24,3.95,3.04,-6.32,-1.08,0.63,-0.26,
4.242,3.95,3.04,-6.32,-1.10,0.66,-0.31,
4.245,3.49,3.30,-5.65,-1.10,0.66,-0.31,
4.245,3.49,3.30,-5.65,-1.12,0.67,-0.36,
4.246,3.49,3.30,-5.65,-1.15,0.66,-0.41,
4.248,3.49,3.30,-5.65,-1.17,0.61,-0.46,
4.253,3.49,3.30,-5.65,-1.20,0.55,-0.51,
4.256,3.49,3.30,-5.65,-1.22,0.45,-0.56,
4.259,3.57,3.32,-5.21,-1.22,0.45,-0.56,
4.262,3.57,3.32,-5.21,-1.25,0.34,-0.61,
4.262,3.57,3.32,-5.21,-1.28,0.20,-0.66,
4.262,3.57,3.32,-5.21,-1.30,0.05,-0.71,
4.262,3.57,3.32,-5.21,-1.32,-0.11,-0.76,
4.263,3.57,3.32,-5.21,-1.33,-0.28,-0.81,
4.266,2.97,3.63,-4.77,-1.33,-0.28,-0.81,
4.266,2.97,3.63,-4.77,-1.34,-0.44,-0.86,
4.266,2.97,3.63,-4.77,-1.35,-0.60,-0.90,
4.268,2.97,3.63,-4.77,-1.35,-0.75,-0.95,
4.27,2.97,3.63,-4.77,-1.36,-0.89,-0.99,
4.272,2.97,3.63,-4.77,-1.38,-1.02,-1.02,
4.279,1.22,4.10,-4.46,-1.38,-1.02,-1.02,
4.28,1.22,4.10,-4.46,-1.39,-1.14,-1.05,
4.28,1.22,4.10,-4.46,-1.40,-1.25,-1.07,
4.28,1.22,4.10,-4.46,-1.42,-1.35,-1.09,
4.281,1.22,4.10,-4.46,-1.42,-1.44,-1.10,
4.282,1.22,4.10,-4.46,-1.43,-1.53,-1.11,
4.286,-0.89,4.76,-3.34,-1.43,-1.53,-1.11,
4.286,-0.89,4.76,-3.34,-1.41,-1.62,-1.11,
4.304,-0.89,4.76,-3.34,-1.35,-1.72,-1.10,
4.304,-0.89,4.76,-3.34,-1.25,-1.82,-1.07,
4.304,-0.89,4.76,-3.34,-1.07,-1.92,-1.02,
4.305,-0.89,4.76,-3.34,-0.80,-2.00,-0.93,
4.305,-5.43,6.30,7.87,-0.80,-2.00,-0.93,
4.305,-5.43,6.30,7.87,-0.42,-2.05,-0.81,
4.306,-5.43,6.30,7.87,0.06,-2.03,-0.65,
4.306,-5.43,6.30,7.87,0.62,-1.91,-0.45,
4.306,-5.43,6.30,7.87,1.19,-1.62,-0.23,
4.306,-5.43,6.30,7.87,1.66,-1.13,0.00,
4.306,-15.00,6.69,28.37,1.66,-1.13,0.00,
4.307,-15.00,6.69,28.37,1.96,-0.39,0.23,
4.308,-15.00,6.69,28.37,2.06,0.55,0.42,
4.308,-15.00,6.69,28.37,1.96,1.58,0.57,
4.314,-15.00,6.69,28.37,1.67,2.62,0.69,
4.315,-15.00,6.69,28.37,1.22,3.60,0.76,
4.315,-15.78,-0.46,10.42,1.22,3.60,0.76,
4.316,-15.78,-0.46,10.42,0.62,4.48,0.79,
4.316,-15.78,-0.46,10.42,-0.07,5.17,0.78,
4.318,-15.78,-0.46,10.42,-0.78,5.62,0.73,
4.319,-15.78,-0.46,10.42,-1.42,5.78,0.64,
4.322,-15.78,-0.46,10.42,-1.92,5.61,0.53,
4.327,-6.10,-5.97,-7.89,-1.92,5.61,0.53,
4.328,-6.10,-5.97,-7.89,-2.26,5.12,0.39,
4.328,-6.10,-5.97,-7.89,-2.45,4.37,0.23,
4.328,-6.10,-5.97,-7.89,-2.52,3.41,0.07,
4.331,-6.10,-5.97,-7.89,-2.52,2.29,-0.08,
4.332,-6.10,-5.97,-7.89,-2.51,1.13,-0.22,
4.334,0.57,-9.19,7.69,-2.51,1.13,-0.22,
4.335,0.57,-9.19,7.69,-2.52,-0.00,-0.33,
4.335,0.57,-9.19,7.69,-2.59,-1.05,-0.42,
4.337,0.57,-9.19,7.69,-2.72,-1.99,-0.47,
4.34,0.57,-9.19,7.69,-2.92,-2.81,-0.50,
4.344,0.57,-9.19,7.69,-3.16,-3.49,-0.52,
4.348,1.97,-10.67,1.09,-3.16,-3.49,-0.52,
4.348,1.97,-10.67,1.09,-3.44,-4.04,-0.54,
4.348,1.97,-10.67,1.09,-3.72,-4.49,-0.56,
4.348,1.97,-10.67,1.09,-3.99,-4.83,-0.59,
4.35,1.97,-10.67,1.09,-4.22,-5.10,-0.63,
4.351,1.97,-10.67,1.09,-4.42,-5.28,-0.67,
4.354,5.08,-10.91,-9.77,-4.42,-5.28,-0.67,
4.354,5.08,-10.91,-9.77,-4.57,-5.39,-0.71,
4.356,5.08,-10.91,-9.77,-4.70,-5.43,-0.76,
4.358,5.08,-10.91,-9.77,-4.79,-5.40,-0.81,
4.36,5.08,-10.91,-9.77,-4.84,-5.31,-0.86,
4.362,5.08,-10.91,-9.77,-4.88,-5.16,-0.92,
4.364,6.26,-9.14,-9.72,-4.88,-5.16,-0.92,
4.364,6.26,-9.14,-9.72,-4.88,-4.97,-0.98,
4.365,6.26,-9.14,-9.72,-4.86,-4.74,-1.04,
4.367,6.26,-9.14,-9.72,-4.83,-4.47,-1.09,
4.369,6.26,-9.14,-9.72,-4.76,-4.18,-1.15,
4.372,6.26,-9.14,-9.72,-4.67,-3.86,-1.20,
4.374,5.30,-6.46,-7.31,-4.67,-3.86,-1.20,
4.374,5.30,-6.46,-7.31,-4.54,-3.54,-1.26,
4.376,5.30,-6.46,-7.31,-4.38,-3.20,-1.34,
4.378,5.30,-6.46,-7.31,-4.18,-2.84,-1.42,
4.379,5.30,-6.46,-7.31,-3.94,-2.49,-1.52,
4.381,5.30,-6.46,-7.31,-3.67,-2.15,-1.62,
4.384,5.32,-3.92,0.01,-3.67,-2.15,-1.62,
4.384,5.32,-3.92,0.01,-3.39,-1.84,-1.73,
4.385,5.32,-3.92,0.01,-3.10,-1.56,-1.82,
4.387,5.32,-3.92,0.01,-2.82,-1.31,-1.90,
4.389,5.32,-3.92,0.01,-2.56,-1.10,-1.95,
4.391,5.32,-3.92,0.01,-2.31,-0.92,-1.98,
4.394,4.32,-2.84,4.16,-2.31,-0.92,-1.98,
4.394,4.32,-2.84,4.16,-2.08,-0.78,-1.99,
4.395,4.32,-2.84,4.16,-1.88,-0.65,-1.96,
4.397,4.32,-2.84,4.16,-1.71,-0.53,-1.91,
4.399,4.32,-2.84,4.16,-1.58,-0.42,-1.83,
4.401,4.32,-2.84,4.16,-1.47,-0.31,-1.73,
4.404,0.31,-2.00,1.92,-1.47,-0.31,-1.73,
4.404,0.31,-2.00,1.92,-1.39,-0.20,-1.60,
4.413,0.31,-2.00,1.92,-1.35,-0.09,-1.47,
4.414,0.31,-2.00,1.92,-1.33,0.01,-1.33,
4.414,0.31,-2.00,1.92,-1.34,0.13,-1.18,
4.414,0.31,-2.00,1.92,-1.36,0.25,-1.04,
4.415,-2.78,-0.90,-2.08,-1.36,0.25,-1.04,
4.415,-2.78,-0.90,-2.08,-1.39,0.37,-0.89,
4.416,-2.78,-0.90,-2.08,-1.42,0.50,-0.75,
4.418,-2.78,-0.90,-2.08,-1.47,0.63,-0.61,
4.42,-2.78,-0.90,-2.08,-1.51,0.75,-0.48,
4.438,-2.78,-0.90,-2.08,-1.55,0.87,-0.34,
4.438,-3.55,0.20,-3.03,-1.55,0.87,-0.34,
4.438,-3.55,0.20,-3.03,-1.58,0.98,-0.22,
4.438,-3.55,0.20,-3.03,-1.61,1.07,-0.10,
4.438,-3.55,0.20,-3.03,-1.64,1.16,0.02,
4.438,-3.55,0.20,-3.03,-1.66,1.23,0.13,
4.439,-3.55,0.20,-3.03,-1.67,1.28,0.24,
4.439,-3.30,0.66,-1.75,-1.67,1.28,0.24,
4.439,-3.30,0.66,-1.75,-1.68,1.31,0.34,
4.439,-3.30,0.66,-1.75,-1.69,1.33,0.43,
4.439,-3.30,0.66,-1.75,-1.71,1.32,0.52,
4.439,-3.30,0.66,-1.75,-1.71,1.30,0.59,
4.442,-3.30,0.66,-1.75,-1.73,1.27,0.66,
4.444,-2.19,0.34,-0.70,-1.73,1.27,0.66,
4.444,-2.19,0.34,-0.70,-1.74,1.22,0.72,
4.445,-2.19,0.34,-0.70,-1.76,1.16,0.77,
4.447,-2.19,0.34,-0.70,-1.78,1.10,0.81,
4.449,-2.19,0.34,-0.70,-1.80,1.02,0.84,
4.452,-2.19,0.34,-0.70,-1.83,0.94,0.86,
4.476,-0.96,-0.39,-0.91,-1.83,0.94,0.86,
4.476,-0.96,-0.39,-0.91,-1.85,0.85,0.88,
4.477,-0.96,-0.39,-0.91,-1.88,0.77,0.89,
4.477,-0.96,-0.39,-0.91,-1.91,0.68,0.90,
4.478,-0.96,-0.39,-0.91,-1.94,0.59,0.91,
4.478,-0.96,-0.39,-0.91,-1.96,0.51,0.91,
4.478,-0.39,-0.93,-1.28,-1.96,0.51,0.91,
4.479,-0.39,-0.93,-1.28,-1.99,0.42,0.91,
4.479,-0.39,-0.93,-1.28,-2.01,0.33,0.90,
4.48,-0.39,-0.93,-1.28,-2.03,0.25,0.90,
4.48,-0.39,-0.93,-1.28,-2.05,0.18,0.89,
4.48,-0.39,-0.93,-1.28,-2.06,0.11,0.88,
4.481,-0.42,-1.30,-1.21,-2.06,0.11,0.88,
4.481,-0.42,-1.30,-1.21,-2.08,0.04,0.87,
4.482,-0.42,-1.30,-1.21,-2.09,-0.03,0.86,
4.482,-0.42,-1.30,-1.21,-2.10,-0.09,0.85,
4.482,-0.42,-1.30,-1.21,-2.11,-0.14,0.84,
4.483,-0.42,-1.30,-1.21,-2.12,-0.20,0.82,
4.494,-0.63,-1.60,-0.98,-2.12,-0.20,0.82,
4.495,-0.63,-1.60,-0.98,-2.13,-0.24,0.80,
4.495,-0.63,-1.60,-0.98,-2.14,-0.28,0.78,
4.496,-0.63,-1.60,-0.98,-2.15,-0.31,0.75,
4.496,-0.63,-1.60,-0.98,-2.16,-0.33,0.73,
4.496,-0.63,-1.60,-0.98,-2.17,-0.35,0.70,
4.497,-0.79,-1.77,-0.83,-2.17,-0.35,0.70,
4.497,-0.79,-1.77,-0.83,-2.18,-0.36,0.67,
4.498,-0.79,-1.77,-0.83,-2.19,-0.36,0.63,
4.498,-0.79,-1.77,-0.83,-2.20,-0.36,0.60,
4.5,-0.79,-1.77,-0.83,-2.22,-0.35,0.56,
4.501,-0.79,-1.77,-0.83,-2.23,-0.33,0.52,
4.504,-0.73,-1.79,-0.65,-2.23,-0.33,0.52,
4.504,-0.73,-1.79,-0.65,-2.24,-0.31,0.48,
4.506,-0.73,-1.79,-0.65,-2.26,-0.29,0.44,
4.508,-0.73,-1.79,-0.65,-2.28,-0.27,0.39,
4.51,-0.73,-1.79,-0.65,-2.30,-0.24,0.35,
4.511,-0.73,-1.79,-0.65,-2.31,-0.21,0.31,
4.514,-0.66,-1.71,-0.45,-2.31,-0.21,0.31,
4.514,-0.66,-1.71,-0.45,-2.34,-0.18,0.26,
4.516,-0.66,-1.71,-0.45,-2.35,-0.16,0.22,
4.517,-0.66,-1.71,-0.45,-2.38,-0.14,0.17,
4.519,-0.66,-1.71,-0.45,-2.40,-0.11,0.12,
4.522,-0.66,-1.71,-0.45,-2.42,-0.10,0.08,
4.525,-0.52,-1.53,-0.04,-2.42,-0.10,0.08,
4.525,-0.52,-1.53,-0.04,-2.44,-0.09,0.03,
4.526,-0.52,-1.53,-0.04,-2.45,-0.08,-0.02,
4.528,-0.52,-1.53,-0.04,-2.47,-0.09,-0.07,
4.53,-0.52,-1.53,-0.04,-2.49,-0.10,-0.12,
4.532,-0.52,-1.53,-0.04,-2.51,-0.12,-0.17,
4.534,-0.24,-1.16,0.42,-2.51,-0.12,-0.17,
4.535,-0.24,-1.16,0.42,-2.52,-0.15,-0.22,
4.536,-0.24,-1.16,0.42,-2.54,-0.19,-0.26,
4.54,-0.24,-1.16,0.42,-2.56,-0.24,-0.31,
4.541,-0.24,-1.16,0.42,-2.57,-0.30,-0.35,
4.542,-0.24,-1.16,0.42,-2.58,-0.36,-0.39,
4.545,-0.03,-0.66,0.70,-2.58,-0.36,-0.39,
4.545,-0.03,-0.66,0.70,-2.59,-0.43,-0.43,
4.547,-0.03,-0.66,0.70,-2.60,-0.49,-0.46,
4.548,-0.03,-0.66,0.70,-2.61,-0.56,-0.48,
4.55,-0.03,-0.66,0.70,-2.62,-0.64,-0.51,
4.552,-0.03,-0.66,0.70,-2.62,-0.71,-0.53,
4.569,-0.10,-0.17,0.81,-2.62,-0.71,-0.53,
4.57,-0.10,-0.17,0.81,-2.63,-0.78,-0.53,
4.57,-0.10,-0.17,0.81,-2.63,-0.85,-0.54,
4.57,-0.10,-0.17,0.81,-2.63,-0.92,-0.55,
4.57,-0.10,-0.17,0.81,-2.63,-0.99,-0.56,
4.57,-0.10,-0.17,0.81,-2.63,-1.06,-0.56,
4.57,-0.08,0.48,0.86,-2.63,-1.06,-0.56,
4.571,-0.08,0.48,0.86,-2.63,-1.12,-0.56,
4.571,-0.08,0.48,0.86,-2.63,-1.17,-0.55,
4.571,-0.08,0.48,0.86,-2.63,-1.21,-0.55,
4.615,-0.08,0.48,0.86,-2.63,-1.24,-0.54,
4.615,-0.08,0.48,0.86,-2.63,-1.26,-0.53,
4.615,0.01,1.19,0.77,-2.63,-1.26,-0.53,
4.616,0.01,1.19,0.77,-2.62,-1.27,-0.52,
4.616,0.01,1.19,0.77,-2.62,-1.28,-0.51,
4.616,0.01,1.19,0.77,-2.61,-1.28,-0.50,
4.616,0.01,1.19,0.77,-2.59,-1.27,-0.49,
4.617,0.01,1.19,0.77,-2.58,-1.26,-0.47,
4.617,0.17,1.85,0.74,-2.58,-1.26,-0.47,
4.617,0.17,1.85,0.74,-2.57,-1.25,-0.46,
4.617,0.17,1.85,0.74,-2.55,-1.23,-0.45,
4.617,0.17,1.85,0.74,-2.54,-1.22,-0.43,
4.617,0.17,1.85,0.74,-2.52,-1.19,-0.43,
4.618,0.17,1.85,0.74,-2.50,-1.17,-0.42,
4.618,0.61,2.30,0.77,-2.50,-1.17,-0.42,
4.618,0.61,2.30,0.77,-2.48,-1.14,-0.42,
4.618,0.61,2.30,0.77,-2.47,-1.12,-0.42,
4.618,0.61,2.30,0.77,-2.45,-1.08,-0.42,
4.619,0.61,2.30,0.77,-2.42,-1.05,-0.42,
4.619,0.61,2.30,0.77,-2.40,-1.03,-0.42,
4.619,1.11,2.55,0.85,-2.40,-1.03,-0.42,
4.619,1.11,2.55,0.85,-2.37,-1.00,-0.43,
4.619,1.11,2.55,0.85,-2.34,-0.98,-0.44,
4.62,1.11,2.55,0.85,-2.31,-0.95,-0.44,
4.62,1.11,2.55,0.85,-2.28,-0.93,-0.45,
4.62,1.11,2.55,0.85,-2.24,-0.91,-0.46,
4.62,1.38,2.68,1.28,-2.24,-0.91,-0.46,
4.62,1.38,2.68,1.28,-2.21,-0.88,-0.47,
4.62,1.38,2.68,1.28,-2.18,-0.86,-0.48,
4.621,1.38,2.68,1.28,-2.14,-0.84,-0.49,
4.64,1.38,2.68,1.28,-2.10,-0.82,-0.50,
4.64,1.38,2.68,1.28,-2.07,-0.80,-0.51,
4.641,1.36,2.46,1.50,-2.07,-0.80,-0.51,
4.641,1.36,2.46,1.50,-2.02,-0.78,-0.52,
4.641,1.36,2.46,1.50,-1.98,-0.77,-0.52,
4.641,1.36,2.46,1.50,-1.94,-0.77,-0.53,
4.642,1.36,2.46,1.50,-1.89,-0.76,-0.53,
4.642,1.36,2.46,1.50,-1.85,-0.76,-0.53,
4.642,1.03,1.92,1.91,-1.85,-0.76,-0.53,
4.642,1.03,1.92,1.91,-1.80,-0.76,-0.53,
4.643,1.03,1.92,1.91,-1.75,-0.76,-0.53,
4.643,1.03,1.92,1.91,-1.70,-0.77,-0.53,
4.643,1.03,1.92,1.91,-1.65,-0.78,-0.53,
4.644,1.03,1.92,1.91,-1.59,-0.78,-0.53,
4.652,0.73,1.43,2.19,-1.59,-0.78,-0.53,
4.652,0.73,1.43,2.19,-1.54,-0.78,-0.53,
4.653,0.73,1.43,2.19,-1.48,-0.78,-0.53,
4.653,0.73,1.43,2.19,-1.43,-0.77,-0.54,
4.653,0.73,1.43,2.19,-1.37,-0.76,-0.55,
4.653,0.73,1.43,2.19,-1.32,-0.75,-0.56,
4.655,1.10,0.84,2.29,-1.32,-0.75,-0.56,
4.656,1.10,0.84,2.29,-1.27,-0.74,-0.57,
4.658,1.10,0.84,2.29,-1.21,-0.73,-0.58,
4.658,1.10,0.84,2.29,-1.15,-0.72,-0.59,
4.66,1.10,0.84,2.29,-1.08,-0.71,-0.60,
4.662,1.10,0.84,2.29,-1.02,-0.70,-0.61,
4.664,1.03,0.13,2.71,-1.02,-0.70,-0.61,
4.664,1.03,0.13,2.71,-0.96,-0.68,-0.62,
4.665,1.03,0.13,2.71,-0.89,-0.66,-0.62,
4.668,1.03,0.13,2.71,-0.82,-0.63,-0.62,
4.669,1.03,0.13,2.71,-0.76,-0.60,-0.63,
4.672,1.03,0.13,2.71,-0.70,-0.56,-0.63,
4.675,0.83,-0.18,3.43,-0.70,-0.56,-0.63,
4.675,0.83,-0.18,3.43,-0.64,-0.50,-0.63,
4.676,0.83,-0.18,3.43,-0.59,-0.43,-0.63,
4.678,0.83,-0.18,3.43,-0.54,-0.34,-0.62,
4.679,0.83,-0.18,3.43,-0.50,-0.24,-0.62,
4.681,0.83,-0.18,3.43,-0.47,-0.11,-0.61,
4.684,0.84,-0.40,3.47,-0.47,-0.11,-0.61,
4.684,0.84,-0.40,3.47,-0.45,0.03,-0.60,
4.685,0.84,-0.40,3.47,-0.44,0.19,-0.59,
4.689,0.84,-0.40,3.47,-0.43,0.36,-0.58,
4.69,0.84,-0.40,3.47,-0.43,0.54,-0.57,
4.691,0.84,-0.40,3.47,-0.44,0.72,-0.56,
4.694,1.11,-0.15,3.01,-0.44,0.72,-0.56,
4.694,1.11,-0.15,3.01,-0.44,0.90,-0.56,
4.696,1.11,-0.15,3.01,-0.46,1.06,-0.55,
4.697,1.11,-0.15,3.01,-0.47,1.22,-0.54,
4.699,1.11,-0.15,3.01,-0.48,1.36,-0.54,
4.701,1.11,-0.15,3.01,-0.50,1.49,-0.53,
4.707,1.20,0.46,2.50,-0.50,1.49,-0.53,
4.707,1.20,0.46,2.50,-0.52,1.59,-0.52,
4.707,1.20,0.46,2.50,-0.53,1.68,-0.51,
4.707,1.20,0.46,2.50,-0.54,1.76,-0.50,
4.709,1.20,0.46,2.50,-0.56,1.82,-0.48,
4.715,1.20,0.46,2.50,-0.58,1.87,-0.46,
4.715,0.80,1.07,2.63,-0.58,1.87,-0.46,
4.715,0.80,1.07,2.63,-0.60,1.90,-0.44,
4.716,0.80,1.07,2.63,-0.61,1.93,-0.42,
4.717,0.80,1.07,2.63,-0.63,1.94,-0.40,
4.719,0.80,1.07,2.63,-0.65,1.95,-0.38,
4.732,0.80,1.07,2.63,-0.66,1.95,-0.35,
4.732,0.02,1.36,2.97,-0.66,1.95,-0.35,
4.733,0.02,1.36,2.97,-0.68,1.95,-0.32,
4.733,0.02,1.36,2.97,-0.69,1.94,-0.30,
4.733,0.02,1.36,2.97,-0.70,1.92,-0.26,
4.733,0.02,1.36,2.97,-0.70,1.90,-0.23,
4.733,0.02,1.36,2.97,-0.71,1.87,-0.20,
4.734,-1.03,1.25,3.97,-0.71,1.87,-0.20,
4.734,-1.03,1.25,3.97,-0.70,1.83,-0.17,
4.735,-1.03,1.25,3.97,-0.69,1.80,-0.14,
4.738,-1.03,1.25,3.97,-0.69,1.75,-0.11,
4.739,-1.03,1.25,3.97,-0.68,1.69,-0.08,
4.742,-1.03,1.25,3.97,-0.67,1.62,-0.05,
4.744,-1.46,0.85,4.58,-0.67,1.62,-0.05,
4.744,-1.46,0.85,4.58,-0.66,1.55,-0.03,
4.745,-1.46,0.85,4.58,-0.66,1.46,-0.01,
4.748,-1.46,0.85,4.58,-0.65,1.37,0.01,
4.749,-1.46,0.85,4.58,-0.65,1.27,0.01,
4.752,-1.46,0.85,4.58,-0.65,1.17,0.02,
4.754,-1.07,0.30,4.35,-0.65,1.17,0.02,
4.755,-1.07,0.30,4.35,-0.66,1.06,0.02,
4.756,-1.07,0.30,4.35,-0.67,0.96,0.02,
4.758,-1.07,0.30,4.35,-0.68,0.85,0.01,
4.76,-1.07,0.30,4.35,-0.69,0.75,-0.00,
4.761,-1.07,0.30,4.35,-0.71,0.65,-0.02,
4.765,-0.23,-0.51,3.25,-0.71,0.65,-0.02,
4.766,-0.23,-0.51,3.25,-0.73,0.54,-0.04,
4.767,-0.23,-0.51,3.25,-0.75,0.45,-0.06,
4.769,-0.23,-0.51,3.25,-0.78,0.36,-0.08,
4.771,-0.23,-0.51,3.25,-0.80,0.27,-0.10,
4.772,-0.23,-0.51,3.25,-0.83,0.19,-0.13,
4.774,0.64,-1.34,2.10,-0.83,0.19,-0.13,
4.775,0.64,-1.34,2.10,-0.86,0.10,-0.16,
4.776,0.64,-1.34,2.10,-0.89,0.02,-0.19,
4.778,0.64,-1.34,2.10,-0.92,-0.05,-0.22,
4.779,0.64,-1.34,2.10,-0.95,-0.13,-0.26,
4.781,0.64,-1.34,2.10,-0.98,-0.20,-0.30,
4.785,1.45,-2.05,1.09,-0.98,-0.20,-0.30,
4.785,1.45,-2.05,1.09,-1.02,-0.27,-0.34,
4.809,1.45,-2.05,1.09,-1.05,-0.34,-0.38,
4.809,1.45,-2.05,1.09,-1.09,-0.41,-0.43,
4.81,1.45,-2.05,1.09,-1.12,-0.47,-0.47,
4.81,1.45,-2.05,1.09,-1.16,-0.53,-0.52,
4.81,2.43,-2.68,0.29,-1.16,-0.53,-0.52,
4.811,2.43,-2.68,0.29,-1.19,-0.59,-0.57,
4.811,2.43,-2.68,0.29,-1.23,-0.65,-0.62,
4.812,2.43,-2.68,0.29,-1.26,-0.70,-0.66,
4.813,2.43,-2.68,0.29,-1.29,-0.75,-0.71,
4.813,2.43,-2.68,0.29,-1.32,-0.80,-0.76,
4.814,2.89,-3.18,-0.04,-1.32,-0.80,-0.76,
4.814,2.89,-3.18,-0.04,-1.35,-0.84,-0.80,
4.814,2.89,-3.18,-0.04,-1.38,-0.88,-0.84,
4.815,2.89,-3.18,-0.04,-1.40,-0.93,-0.89,
4.815,2.89,-3.18,-0.04,-1.43,-0.97,-0.93,
4.816,2.89,-3.18,-0.04,-1.46,-1.00,-0.97,
4.816,3.17,-3.61,-0.19,-1.46,-1.00,-0.97,
4.816,3.17,-3.61,-0.19,-1.48,-1.03,-1.01,
4.817,3.17,-3.61,-0.19,-1.50,-1.06,-1.05,
4.825,3.17,-3.61,-0.19,-1.52,-1.08,-1.09,
4.825,3.17,-3.61,-0.19,-1.53,-1.11,-1.13,
4.826,3.17,-3.61,-0.19,-1.55,-1.14,-1.18,
4.826,3.25,-3.95,-0.27,-1.55,-1.14,-1.18,
4.826,3.25,-3.95,-0.27,-1.57,-1.18,-1.22,
4.826,3.25,-3.95,-0.27,-1.59,-1.21,-1.27,
4.828,3.25,-3.95,-0.27,-1.60,-1.26,-1.32,
4.83,3.25,-3.95,-0.27,-1.61,-1.30,-1.36,
4.831,3.25,-3.95,-0.27,-1.63,-1.34,-1.41,
4.834,3.45,-4.25,-0.26,-1.63,-1.34,-1.41,
4.834,3.45,-4.25,-0.26,-1.64,-1.39,-1.45,
4.835,3.45,-4.25,-0.26,-1.66,-1.43,-1.49,
4.838,3.45,-4.25,-0.26,-1.67,-1.49,-1.53,
4.84,3.45,-4.25,-0.26,-1.68,-1.54,-1.56,
4.842,3.45,-4.25,-0.26,-1.69,-1.59,-1.59,
4.844,3.05,-4.55,-0.22,-1.69,-1.59,-1.59,
4.844,3.05,-4.55,-0.22,-1.70,-1.64,-1.62,
4.846,3.05,-4.55,-0.22,-1.71,-1.70,-1.64,
4.848,3.05,-4.55,-0.22,-1.72,-1.75,-1.66,
4.85,3.05,-4.55,-0.22,-1.73,-1.80,-1.68,
4.852,3.05,-4.55,-0.22,-1.73,-1.86,-1.69,
4.864,2.49,-4.77,-0.09,-1.73,-1.86,-1.69,
4.864,2.49,-4.77,-0.09,-1.74,-1.91,-1.70,
4.865,2.49,-4.77,-0.09,-1.75,-1.96,-1.70,
4.865,2.49,-4.77,-0.09,-1.75,-2.02,-1.69,
4.865,2.49,-4.77,-0.09,-1.76,-2.07,-1.68,
4.866,2.49,-4.77,-0.09,-1.77,-2.11,-1.66,
4.866,1.57,-5.06,0.06,-1.77,-2.11,-1.66,
4.866,1.57,-5.06,0.06,-1.78,-2.15,-1.64,
4.867,1.57,-5.06,0.06,-1.79,-2.18,-1.61,
4.9,1.57,-5.06,0.06,-1.80,-2.20,-1.58,
4.9,1.57,-5.06,0.06,-1.80,-2.21,-1.53,
4.9,1.57,-5.06,0.06,-1.81,-2.21,-1.48,
4.901,0.37,-5.45,0.37,-1.81,-2.21,-1.48,
4.901,0.37,-5.45,0.37,-1.83,-2.20,-1.42,
4.901,0.37,-5.45,0.37,-1.84,-2.16,-1.36,
4.901,0.37,-5.45,0.37,-1.85,-2.10,-1.29,
4.901,0.37,-5.45,0.37,-1.86,-2.02,-1.22,
4.901,0.37,-5.45,0.37,-1.88,-1.93,-1.14,
4.902,-1.02,-5.78,0.87,-1.88,-1.93,-1.14,
4.902,-1.02,-5.78,0.87,-1.89,-1.81,-1.05,
4.902,-1.02,-5.78,0.87,-1.89,-1.68,-0.97,
4.902,-1.02,-5.78,0.87,-1.89,-1.53,-0.88,
4.902,-1.02,-5.78,0.87,-1.88,-1.36,-0.79,
4.903,-1.02,-5.78,0.87,-1.87,-1.19,-0.69,
4.903,-2.81,-6.33,2.05,-1.87,-1.19,-0.69,
4.903,-2.81,-6.33,2.05,-1.84,-1.00,-0.60,
4.903,-2.81,-6.33,2.05,-1.80,-0.81,-0.50,
4.903,-2.81,-6.33,2.05,-1.76,-0.62,-0.41,
4.904,-2.81,-6.33,2.05,-1.69,-0.41,-0.33,
4.904,-2.81,-6.33,2.05,-1.62,-0.21,-0.24,
4.906,-4.30,-6.97,3.78,-1.62,-0.21,-0.24,
4.906,-4.30,-6.97,3.78,-1.53,0.00,-0.15,
4.906,-4.30,-6.97,3.78,-1.43,0.21,-0.07,
4.908,-4.30,-6.97,3.78,-1.32,0.42,0.01,
4.91,-4.30,-6.97,3.78,-1.19,0.62,0.09,
4.912,-4.30,-6.97,3.78,-1.05,0.83,0.17,
4.914,-5.36,-6.58,5.85,-1.05,0.83,0.17,
4.914,-5.36,-6.58,5.85,-0.90,1.03,0.24,
4.916,-5.36,-6.58,5.85,-0.74,1.23,0.31,
4.918,-5.36,-6.58,5.85,-0.59,1.41,0.37,
4.921,-5.36,-6.58,5.85,-0.42,1.59,0.44,
4.922,-5.36,-6.58,5.85,-0.26,1.76,0.51,
4.925,-5.73,-5.19,7.16,-0.26,1.76,0.51,
4.925,-5.73,-5.19,7.16,-0.08,1.92,0.57,
4.928,-5.73,-5.19,7.16,0.10,2.06,0.62,
4.93,-5.73,-5.19,7.16,0.28,2.19,0.68,
4.931,-5.73,-5.19,7.16,0.45,2.30,0.74,
4.932,-5.73,-5.19,7.16,0.64,2.41,0.79,
4.935,-5.82,-3.84,8.42,0.64,2.41,0.79,
4.936,-5.82,-3.84,8.42,0.82,2.50,0.85,
4.943,-5.82,-3.84,8.42,1.00,2.57,0.90,
4.944,-5.82,-3.84,8.42,1.18,2.63,0.95,
4.945,-5.82,-3.84,8.42,1.35,2.67,0.99,
4.945,-5.82,-3.84,8.42,1.52,2.70,1.04,
4.946,-5.48,-2.82,8.94,1.52,2.70,1.04,
4.947,-5.48,-2.82,8.94,1.68,2.72,1.08,
4.948,-5.48,-2.82,8.94,1.84,2.72,1.13,
