
time,ax,ay,az,wx,wy,wz,
0.003,0.62,0.42,-0.11,0.12,0.11,0.85,
0.004,-0.01,-0.13,-0.06,0.12,0.11,0.85,
0.004,-0.01,-0.13,-0.06,0.12,0.06,0.87,
0.004,-0.01,-0.13,-0.06,0.12,0.02,0.89,
0.004,-0.01,-0.13,-0.06,0.11,-0.03,0.91,
0.005,-0.01,-0.13,-0.06,0.11,-0.07,0.93,
0.005,-0.01,-0.13,-0.06,0.10,-0.12,0.95,
0.008,-0.24,-0.49,-0.28,0.10,-0.12,0.95,
0.008,-0.24,-0.49,-0.28,0.08,-0.17,0.97,
0.009,-0.24,-0.49,-0.28,0.07,-0.22,0.98,
0.01,-0.24,-0.49,-0.28,0.05,-0.26,1.00,
0.012,-0.24,-0.49,-0.28,0.03,-0.30,1.02,
0.014,-0.24,-0.49,-0.28,0.01,-0.33,1.03,
0.018,-0.25,-0.34,-0.63,0.01,-0.33,1.03,
0.018,-0.25,-0.34,-0.63,-0.00,-0.36,1.05,
0.018,-0.25,-0.34,-0.63,-0.03,-0.38,1.06,
0.02,-0.25,-0.34,-0.63,-0.05,-0.39,1.08,
0.022,-0.25,-0.34,-0.63,-0.08,-0.40,1.09,
0.024,-0.25,-0.34,-0.63,-0.11,-0.40,1.10,
0.026,-0.19,-0.17,-1.16,-0.11,-0.40,1.10,
0.026,-0.19,-0.17,-1.16,-0.14,-0.40,1.11,
0.028,-0.19,-0.17,-1.16,-0.17,-0.39,1.13,
0.03,-0.19,-0.17,-1.16,-0.20,-0.38,1.14,
0.032,-0.19,-0.17,-1.16,-0.23,-0.36,1.15,
0.067,-0.19,-0.17,-1.16,-0.26,-0.34,1.16,
0.067,-0.28,-0.21,-1.62,-0.26,-0.34,1.16,
0.067,-0.28,-0.21,-1.62,-0.29,-0.32,1.17,
0.068,-0.28,-0.21,-1.62,-0.31,-0.30,1.19,
0.068,-0.28,-0.21,-1.62,-0.34,-0.29,1.21,
0.068,-0.28,-0.21,-1.62,-0.36,-0.27,1.23,
0.068,-0.28,-0.21,-1.62,-0.38,-0.26,1.25,
0.068,-0.59,-0.53,-1.47,-0.38,-0.26,1.25,
0.069,-0.59,-0.53,-1.47,-0.40,-0.25,1.27,
0.069,-0.59,-0.53,-1.47,-0.42,-0.24,1.29,
0.069,-0.59,-0.53,-1.47,-0.43,-0.23,1.31,
0.069,-0.59,-0.53,-1.47,-0.44,-0.23,1.34,
0.069,-0.59,-0.53,-1.47,-0.45,-0.23,1.36,
0.07,-0.74,-0.82,-1.00,-0.45,-0.23,1.36,
0.07,-0.74,-0.82,-1.00,-0.46,-0.23,1.38,
0.07,-0.74,-0.82,-1.00,-0.46,-0.23,1.40,
0.07,-0.74,-0.82,-1.00,-0.46,-0.23,1.42,
0.071,-0.74,-0.82,-1.00,-0.46,-0.24,1.43,
0.071,-0.74,-0.82,-1.00,-0.46,-0.25,1.45,
0.071,-0.63,-1.04,-0.50,-0.46,-0.25,1.45,
0.071,-0.63,-1.04,-0.50,-0.45,-0.26,1.47,
0.071,-0.63,-1.04,-0.50,-0.44,-0.27,1.48,
0.072,-0.63,-1.04,-0.50,-0.43,-0.29,1.49,
0.09,-0.63,-1.04,-0.50,-0.42,-0.31,1.50,
0.092,-0.63,-1.04,-0.50,-0.40,-0.34,1.51,
0.093,-0.58,-1.08,-0.05,-0.40,-0.34,1.51,
0.093,-0.58,-1.08,-0.05,-0.38,-0.37,1.52,
0.094,-0.58,-1.08,-0.05,-0.36,-0.40,1.52,
0.095,-0.58,-1.08,-0.05,-0.34,-0.44,1.53,
0.095,-0.58,-1.08,-0.05,-0.32,-0.48,1.54,
0.096,-0.58,-1.08,-0.05,-0.29,-0.52,1.55,
0.096,-0.54,-0.89,0.26,-0.29,-0.52,1.55,
0.097,-0.54,-0.89,0.26,-0.27,-0.57,1.55,
0.098,-0.54,-0.89,0.26,-0.25,-0.62,1.56,
0.099,-0.54,-0.89,0.26,-0.22,-0.67,1.58,
0.1,-0.54,-0.89,0.26,-0.20,-0.73,1.59,
0.101,-0.54,-0.89,0.26,-0.18,-0.79,1.60,
0.102,-0.86,-0.76,0.31,-0.18,-0.79,1.60,
0.103,-0.86,-0.76,0.31,-0.16,-0.85,1.62,
0.105,-0.86,-0.76,0.31,-0.14,-0.90,1.64,
0.105,-0.86,-0.76,0.31,-0.11,-0.96,1.66,
0.105,-0.86,-0.76,0.31,-0.09,-1.02,1.67,
0.106,-0.86,-0.76,0.31,-0.07,-1.06,1.69,
0.111,-1.04,-0.75,0.08,-0.07,-1.06,1.69,
0.112,-1.04,-0.75,0.08,-0.05,-1.11,1.71,
0.112,-1.04,-0.75,0.08,-0.04,-1.15,1.73,
0.112,-1.04,-0.75,0.08,-0.03,-1.18,1.74,
0.112,-1.04,-0.75,0.08,-0.01,-1.22,1.76,
0.114,-1.04,-0.75,0.08,-0.01,-1.25,1.77,
0.119,-0.78,-0.73,-0.42,-0.01,-1.25,1.77,
0.119,-0.78,-0.73,-0.42,0.00,-1.28,1.78,
0.119,-0.78,-0.73,-0.42,0.01,-1.31,1.80,
0.12,-0.78,-0.73,-0.42,0.01,-1.35,1.81,
0.123,-0.78,-0.73,-0.42,0.02,-1.38,1.83,
0.124,-0.78,-0.73,-0.42,0.02,-1.42,1.84,
0.126,-0.70,-0.57,-0.64,0.02,-1.42,1.84,
0.127,-0.70,-0.57,-0.64,0.03,-1.45,1.86,
0.128,-0.70,-0.57,-0.64,0.04,-1.48,1.87,
0.13,-0.70,-0.57,-0.64,0.05,-1.52,1.89,
0.134,-0.70,-0.57,-0.64,0.06,-1.54,1.90,
0.135,-0.70,-0.57,-0.64,0.07,-1.57,1.91,
0.138,-0.83,-0.49,-0.55,0.07,-1.57,1.91,
0.156,-0.83,-0.49,-0.55,0.09,-1.61,1.92,
0.156,-0.83,-0.49,-0.55,0.10,-1.64,1.93,
0.156,-0.83,-0.49,-0.55,0.12,-1.68,1.93,
0.157,-0.83,-0.49,-0.55,0.14,-1.71,1.94,
0.157,-0.83,-0.49,-0.55,0.16,-1.75,1.94,
0.157,-0.90,-0.64,-0.07,0.16,-1.75,1.94,
0.157,-0.90,-0.64,-0.07,0.18,-1.80,1.94,
0.158,-0.90,-0.64,-0.07,0.21,-1.84,1.94,
0.158,-0.90,-0.64,-0.07,0.24,-1.89,1.95,
0.158,-0.90,-0.64,-0.07,0.28,-1.94,1.94,
0.159,-0.90,-0.64,-0.07,0.32,-1.99,1.94,
0.159,-0.82,-0.83,0.78,0.32,-1.99,1.94,
0.159,-0.82,-0.83,0.78,0.35,-2.03,1.94,
0.159,-0.82,-0.83,0.78,0.39,-2.06,1.94,
0.17,-0.82,-0.83,0.78,0.44,-2.10,1.94,
0.171,-0.82,-0.83,0.78,0.47,-2.13,1.93,
0.171,-0.82,-0.83,0.78,0.51,-2.15,1.93,
0.171,-0.67,-0.91,1.24,0.51,-2.15,1.93,
0.171,-0.67,-0.91,1.24,0.55,-2.17,1.92,
0.172,-0.67,-0.91,1.24,0.59,-2.19,1.91,
0.172,-0.67,-0.91,1.24,0.62,-2.20,1.90,
0.172,-0.67,-0.91,1.24,0.65,-2.21,1.89,
0.177,-0.67,-0.91,1.24,0.68,-2.22,1.88,
0.177,-0.47,-1.04,1.11,0.68,-2.22,1.88,
0.177,-0.47,-1.04,1.11,0.71,-2.23,1.87,
0.178,-0.47,-1.04,1.11,0.73,-2.24,1.86,
0.18,-0.47,-1.04,1.11,0.75,-2.25,1.86,
0.2,-0.47,-1.04,1.11,0.77,-2.25,1.85,
0.2,-0.47,-1.04,1.11,0.78,-2.25,1.84,
0.201,-0.31,-1.21,0.69,0.78,-2.25,1.84,
0.201,-0.31,-1.21,0.69,0.79,-2.25,1.84,
0.201,-0.31,-1.21,0.69,0.80,-2.24,1.83,
0.201,-0.31,-1.21,0.69,0.81,-2.22,1.82,
0.201,-0.31,-1.21,0.69,0.83,-2.19,1.82,
0.202,-0.31,-1.21,0.69,0.84,-2.16,1.82,
0.202,-0.25,-1.26,0.35,0.84,-2.16,1.82,
0.202,-0.25,-1.26,0.35,0.85,-2.13,1.81,
0.202,-0.25,-1.26,0.35,0.87,-2.10,1.81,
0.203,-0.25,-1.26,0.35,0.88,-2.06,1.82,
0.203,-0.25,-1.26,0.35,0.90,-2.03,1.82,
0.254,-0.25,-1.26,0.35,0.92,-1.99,1.83,
0.255,-0.53,-1.28,0.34,0.92,-1.99,1.83,
0.255,-0.53,-1.28,0.34,0.94,-1.96,1.84,
0.255,-0.53,-1.28,0.34,0.95,-1.92,1.85,
0.255,-0.53,-1.28,0.34,0.97,-1.88,1.87,
0.256,-0.53,-1.28,0.34,0.99,-1.85,1.88,
0.256,-0.53,-1.28,0.34,1.00,-1.82,1.90,
0.256,-0.80,-1.45,0.40,1.00,-1.82,1.90,
0.256,-0.80,-1.45,0.40,1.01,-1.80,1.92,
0.257,-0.80,-1.45,0.40,1.03,-1.78,1.94,
0.257,-0.80,-1.45,0.40,1.04,-1.76,1.96,
0.257,-0.80,-1.45,0.40,1.05,-1.75,1.98,
0.257,-0.80,-1.45,0.40,1.05,-1.74,1.99,
0.258,-0.78,-1.47,0.38,1.05,-1.74,1.99,
0.258,-0.78,-1.47,0.38,1.07,-1.74,2.01,
0.258,-0.78,-1.47,0.38,1.08,-1.74,2.02,
0.258,-0.78,-1.47,0.38,1.08,-1.75,2.03,
0.258,-0.78,-1.47,0.38,1.09,-1.76,2.03,
0.259,-0.78,-1.47,0.38,1.09,-1.77,2.03,
0.259,-0.51,-1.40,0.13,1.09,-1.77,2.03,
0.259,-0.51,-1.40,0.13,1.10,-1.79,2.03,
0.259,-0.51,-1.40,0.13,1.11,-1.80,2.02,
0.26,-0.51,-1.40,0.13,1.13,-1.83,2.00,
0.26,-0.51,-1.40,0.13,1.13,-1.84,1.99,
0.26,-0.51,-1.40,0.13,1.14,-1.85,1.98,
0.26,0.04,-1.30,0.02,1.14,-1.85,1.98,
0.261,0.04,-1.30,0.02,1.15,-1.86,1.97,
0.261,0.04,-1.30,0.02,1.17,-1.87,1.95,
0.261,0.04,-1.30,0.02,1.19,-1.88,1.93,
0.261,0.04,-1.30,0.02,1.20,-1.89,1.92,
0.261,0.04,-1.30,0.02,1.21,-1.90,1.90,
0.262,0.52,-1.32,-0.07,1.21,-1.90,1.90,
0.262,0.52,-1.32,-0.07,1.23,-1.91,1.88,
0.262,0.52,-1.32,-0.07,1.24,-1.91,1.85,
0.262,0.52,-1.32,-0.07,1.25,-1.91,1.83,
0.263,0.52,-1.32,-0.07,1.26,-1.92,1.81,
0.28,0.52,-1.32,-0.07,1.26,-1.92,1.79,
0.28,0.81,-1.38,-0.37,1.26,-1.92,1.79,
0.281,0.81,-1.38,-0.37,1.27,-1.92,1.76,
0.281,0.81,-1.38,-0.37,1.27,-1.92,1.73,
0.281,0.81,-1.38,-0.37,1.27,-1.91,1.70,
0.281,0.81,-1.38,-0.37,1.27,-1.91,1.67,
0.281,0.81,-1.38,-0.37,1.27,-1.91,1.63,
0.282,1.12,-1.45,-0.60,1.27,-1.91,1.63,
0.282,1.12,-1.45,-0.60,1.27,-1.91,1.60,
0.282,1.12,-1.45,-0.60,1.28,-1.90,1.56,
0.282,1.12,-1.45,-0.60,1.27,-1.90,1.52,
0.286,1.12,-1.45,-0.60,1.27,-1.89,1.48,
0.286,1.12,-1.45,-0.60,1.26,-1.88,1.43,
0.287,1.36,-1.40,-0.76,1.26,-1.88,1.43,
0.288,1.36,-1.40,-0.76,1.26,-1.86,1.39,
0.289,1.36,-1.40,-0.76,1.24,-1.83,1.33,
0.308,1.36,-1.40,-0.76,1.23,-1.80,1.28,
0.308,1.36,-1.40,-0.76,1.21,-1.75,1.22,
0.309,1.36,-1.40,-0.76,1.18,-1.71,1.16,
0.309,1.55,-1.58,-1.29,1.18,-1.71,1.16,
0.309,1.55,-1.58,-1.29,1.16,-1.66,1.10,
0.309,1.55,-1.58,-1.29,1.12,-1.61,1.05,
0.309,1.55,-1.58,-1.29,1.08,-1.55,1.00,
0.309,1.55,-1.58,-1.29,1.04,-1.50,0.95,
0.324,1.55,-1.58,-1.29,1.00,-1.45,0.91,
0.325,1.18,-1.55,-1.70,1.00,-1.45,0.91,
0.325,1.18,-1.55,-1.70,0.95,-1.40,0.88,
0.325,1.18,-1.55,-1.70,0.91,-1.37,0.85,
0.325,1.18,-1.55,-1.70,0.86,-1.34,0.82,
0.325,1.18,-1.55,-1.70,0.82,-1.32,0.81,
0.325,1.18,-1.55,-1.70,0.77,-1.31,0.79,
0.326,0.85,-1.31,-1.55,0.77,-1.31,0.79,
0.326,0.85,-1.31,-1.55,0.72,-1.30,0.77,
0.326,0.85,-1.31,-1.55,0.67,-1.29,0.76,
0.326,0.85,-1.31,-1.55,0.62,-1.29,0.75,
0.326,0.85,-1.31,-1.55,0.57,-1.27,0.73,
0.326,0.85,-1.31,-1.55,0.51,-1.26,0.71,
0.326,0.88,-1.00,-1.23,0.51,-1.26,0.71,
0.327,0.88,-1.00,-1.23,0.46,-1.25,0.69,
0.33,0.88,-1.00,-1.23,0.41,-1.23,0.67,
0.33,0.88,-1.00,-1.23,0.37,-1.21,0.65,
0.341,0.88,-1.00,-1.23,0.33,-1.18,0.62,
0.341,0.88,-1.00,-1.23,0.31,-1.15,0.61,
0.341,1.05,-0.94,-0.90,0.31,-1.15,0.61,
0.341,1.05,-0.94,-0.90,0.28,-1.12,0.59,
0.341,1.05,-0.94,-0.90,0.26,-1.08,0.58,
0.341,1.05,-0.94,-0.90,0.24,-1.04,0.57,
0.342,1.05,-0.94,-0.90,0.23,-1.00,0.56,
0.344,1.05,-0.94,-0.90,0.21,-0.94,0.55,
0.346,0.84,-1.20,-0.83,0.21,-0.94,0.55,
0.347,0.84,-1.20,-0.83,0.19,-0.87,0.55,
0.356,0.84,-1.20,-0.83,0.17,-0.78,0.55,
0.356,0.84,-1.20,-0.83,0.16,-0.68,0.55,
0.356,0.84,-1.20,-0.83,0.14,-0.58,0.55,
0.356,0.84,-1.20,-0.83,0.11,-0.48,0.55,
0.356,-0.01,-1.57,-1.94,0.11,-0.48,0.55,
0.357,-0.01,-1.57,-1.94,0.08,-0.39,0.56,
0.358,-0.01,-1.57,-1.94,0.06,-0.31,0.56,
0.36,-0.01,-1.57,-1.94,0.02,-0.25,0.57,
0.362,-0.01,-1.57,-1.94,-0.01,-0.20,0.57,
0.364,-0.01,-1.57,-1.94,-0.04,-0.15,0.56,
0.368,-0.19,-1.45,-2.61,-0.04,-0.15,0.56,
0.368,-0.19,-1.45,-2.61,-0.07,-0.09,0.55,
0.368,-0.19,-1.45,-2.61,-0.09,-0.02,0.56,
0.37,-0.19,-1.45,-2.61,-0.12,0.03,0.58,
0.372,-0.19,-1.45,-2.61,-0.14,0.09,0.61,
0.374,-0.19,-1.45,-2.61,-0.16,0.13,0.65,
0.376,-0.60,-1.52,-2.80,-0.16,0.13,0.65,
0.376,-0.60,-1.52,-2.80,-0.18,0.19,0.69,
0.38,-0.60,-1.52,-2.80,-0.21,0.25,0.73,
0.38,-0.60,-1.52,-2.80,-0.24,0.31,0.78,
0.382,-0.60,-1.52,-2.80,-0.27,0.37,0.83,
0.384,-0.60,-1.52,-2.80,-0.29,0.41,0.89,
0.386,-1.22,-1.83,-2.54,-0.29,0.41,0.89,
0.387,-1.22,-1.83,-2.54,-0.32,0.45,0.95,
0.388,-1.22,-1.83,-2.54,-0.34,0.48,1.01,
0.393,-1.22,-1.83,-2.54,-0.36,0.51,1.07,
0.394,-1.22,-1.83,-2.54,-0.37,0.53,1.14,
0.394,-1.22,-1.83,-2.54,-0.38,0.53,1.21,
0.396,-2.23,-2.16,-1.28,-0.38,0.53,1.21,
0.396,-2.23,-2.16,-1.28,-0.38,0.51,1.28,
0.398,-2.23,-2.16,-1.28,-0.38,0.47,1.35,
0.4,-2.23,-2.16,-1.28,-0.37,0.43,1.43,
0.402,-2.23,-2.16,-1.28,-0.36,0.37,1.51,
0.404,-2.23,-2.16,-1.28,-0.33,0.32,1.59,
0.406,-2.78,-2.35,0.34,-0.33,0.32,1.59,
0.406,-2.78,-2.35,0.34,-0.31,0.27,1.67,
0.408,-2.78,-2.35,0.34,-0.27,0.21,1.74,
0.41,-2.78,-2.35,0.34,-0.24,0.16,1.81,
0.412,-2.78,-2.35,0.34,-0.20,0.11,1.88,
0.427,-2.78,-2.35,0.34,-0.15,0.06,1.94,
0.428,-2.22,-2.56,1.28,-0.15,0.06,1.94,
0.428,-2.22,-2.56,1.28,-0.11,0.02,1.99,
0.429,-2.22,-2.56,1.28,-0.07,-0.02,2.03,
0.429,-2.22,-2.56,1.28,-0.03,-0.06,2.06,
0.43,-2.22,-2.56,1.28,0.01,-0.09,2.08,
0.43,-2.22,-2.56,1.28,0.04,-0.12,2.10,
0.43,-0.45,-2.70,0.85,0.04,-0.12,2.10,
0.431,-0.45,-2.70,0.85,0.07,-0.14,2.12,
0.431,-0.45,-2.70,0.85,0.10,-0.16,2.13,
0.46,-0.45,-2.70,0.85,0.13,-0.17,2.14,
0.461,-0.45,-2.70,0.85,0.15,-0.17,2.15,
0.461,-0.45,-2.70,0.85,0.16,-0.17,2.15,
0.461,0.90,-2.83,-0.07,0.16,-0.17,2.15,
0.462,0.90,-2.83,-0.07,0.18,-0.16,2.16,
0.462,0.90,-2.83,-0.07,0.19,-0.15,2.16,
0.462,0.90,-2.83,-0.07,0.20,-0.14,2.16,
0.462,0.90,-2.83,-0.07,0.21,-0.12,2.15,
0.462,0.90,-2.83,-0.07,0.21,-0.11,2.14,
0.463,1.58,-2.80,-0.58,0.21,-0.11,2.14,
0.463,1.58,-2.80,-0.58,0.22,-0.09,2.14,
0.463,1.58,-2.80,-0.58,0.22,-0.07,2.12,
0.463,1.58,-2.80,-0.58,0.22,-0.04,2.11,
0.464,1.58,-2.80,-0.58,0.23,-0.00,2.09,
0.464,1.58,-2.80,-0.58,0.23,0.04,2.08,
0.464,2.13,-2.87,-0.56,0.23,0.04,2.08,
0.464,2.13,-2.87,-0.56,0.23,0.07,2.05,
0.465,2.13,-2.87,-0.56,0.24,0.10,2.03,
0.465,2.13,-2.87,-0.56,0.24,0.13,2.00,
0.465,2.13,-2.87,-0.56,0.25,0.15,1.98,
0.465,2.13,-2.87,-0.56,0.27,0.17,1.94,
0.467,2.20,-2.70,-0.02,0.27,0.17,1.94,
0.467,2.20,-2.70,-0.02,0.28,0.16,1.91,
0.468,2.20,-2.70,-0.02,0.29,0.15,1.87,
0.484,2.20,-2.70,-0.02,0.31,0.13,1.82,
0.484,2.20,-2.70,-0.02,0.32,0.10,1.76,
0.484,2.20,-2.70,-0.02,0.33,0.07,1.70,
0.484,2.33,-2.70,0.71,0.33,0.07,1.70,
0.485,2.33,-2.70,0.71,0.34,0.06,1.64,
0.485,2.33,-2.70,0.71,0.35,0.04,1.57,
0.485,2.33,-2.70,0.71,0.34,0.03,1.51,
0.485,2.33,-2.70,0.71,0.33,0.04,1.45,
0.486,2.33,-2.70,0.71,0.32,0.06,1.39,
0.489,1.88,-2.57,0.50,0.32,0.06,1.39,
0.489,1.88,-2.57,0.50,0.30,0.08,1.33,
0.489,1.88,-2.57,0.50,0.26,0.10,1.27,
0.49,1.88,-2.57,0.50,0.22,0.13,1.22,
0.492,1.88,-2.57,0.50,0.17,0.17,1.17,
0.494,1.88,-2.57,0.50,0.11,0.20,1.13,
0.496,0.92,-2.40,-0.33,0.11,0.20,1.13,
0.496,0.92,-2.40,-0.33,0.05,0.23,1.09,
0.499,0.92,-2.40,-0.33,-0.02,0.26,1.06,
0.5,0.92,-2.40,-0.33,-0.10,0.28,1.03,
0.504,0.92,-2.40,-0.33,-0.19,0.31,1.01,
0.504,0.92,-2.40,-0.33,-0.29,0.34,0.99,
0.506,-0.11,-2.28,-1.11,-0.29,0.34,0.99,
0.507,-0.11,-2.28,-1.11,-0.39,0.37,0.97,
0.508,-0.11,-2.28,-1.11,-0.49,0.39,0.96,
0.51,-0.11,-2.28,-1.11,-0.58,0.42,0.96,
0.512,-0.11,-2.28,-1.11,-0.68,0.45,0.96,
0.515,-0.11,-2.28,-1.11,-0.76,0.48,0.96,
0.517,-0.67,-2.35,-1.23,-0.76,0.48,0.96,
0.518,-0.67,-2.35,-1.23,-0.84,0.51,0.97,
0.518,-0.67,-2.35,-1.23,-0.91,0.54,0.98,
0.52,-0.67,-2.35,-1.23,-0.97,0.58,0.99,
0.522,-0.67,-2.35,-1.23,-1.02,0.60,0.99,
0.524,-0.67,-2.35,-1.23,-1.06,0.63,1.01,
0.526,-0.84,-2.32,-0.73,-1.06,0.63,1.01,
0.527,-0.84,-2.32,-0.73,-1.09,0.65,1.01,
0.528,-0.84,-2.32,-0.73,-1.11,0.67,1.02,
0.53,-0.84,-2.32,-0.73,-1.12,0.68,1.03,
0.532,-0.84,-2.32,-0.73,-1.13,0.69,1.04,
0.534,-0.84,-2.32,-0.73,-1.13,0.68,1.04,
0.537,-0.63,-2.76,0.05,-1.13,0.68,1.04,
0.537,-0.63,-2.76,0.05,-1.12,0.66,1.04,
0.538,-0.63,-2.76,0.05,-1.11,0.63,1.04,
0.54,-0.63,-2.76,0.05,-1.10,0.59,1.04,
0.542,-0.63,-2.76,0.05,-1.08,0.55,1.03,
0.544,-0.63,-2.76,0.05,-1.07,0.51,1.02,
0.547,-0.14,-3.18,0.53,-1.07,0.51,1.02,
0.562,-0.14,-3.18,0.53,-1.06,0.48,1.01,
0.563,-0.14,-3.18,0.53,-1.04,0.43,1.01,
0.563,-0.14,-3.18,0.53,-1.03,0.40,1.00,
0.563,-0.14,-3.18,0.53,-1.02,0.38,1.00,
0.563,-0.14,-3.18,0.53,-1.01,0.36,1.00,
0.563,-0.02,-3.34,0.17,-1.01,0.36,1.00,
0.564,-0.02,-3.34,0.17,-1.01,0.35,1.00,
0.564,-0.02,-3.34,0.17,-1.01,0.35,1.00,
0.564,-0.02,-3.34,0.17,-1.02,0.35,1.01,
0.564,-0.02,-3.34,0.17,-1.04,0.36,1.01,
0.564,-0.02,-3.34,0.17,-1.06,0.37,1.02,
0.601,-0.34,-2.93,-1.25,-1.06,0.37,1.02,
0.602,-0.34,-2.93,-1.25,-1.08,0.38,1.03,
0.602,-0.34,-2.93,-1.25,-1.10,0.41,1.04,
0.602,-0.34,-2.93,-1.25,-1.13,0.44,1.05,
0.602,-0.34,-2.93,-1.25,-1.17,0.48,1.05,
0.602,-0.34,-2.93,-1.25,-1.21,0.52,1.05,
0.602,-0.59,-2.92,-2.51,-1.21,0.52,1.05,
0.603,-0.59,-2.92,-2.51,-1.25,0.57,1.05,
0.603,-0.59,-2.92,-2.51,-1.30,0.63,1.05,
0.603,-0.59,-2.92,-2.51,-1.34,0.70,1.04,
0.603,-0.59,-2.92,-2.51,-1.40,0.77,1.02,
0.603,-0.59,-2.92,-2.51,-1.45,0.85,1.01,
0.604,-0.62,-3.22,-2.78,-1.45,0.85,1.01,
0.604,-0.62,-3.22,-2.78,-1.51,0.93,0.99,
0.604,-0.62,-3.22,-2.78,-1.57,1.03,0.98,
0.604,-0.62,-3.22,-2.78,-1.71,1.23,0.97,
0.604,-0.62,-3.22,-2.78,-1.75,1.28,0.97,
0.605,-0.62,-3.22,-2.78,-1.79,1.32,0.97,
0.605,-0.48,-3.68,-2.77,-1.79,1.32,0.97,
0.605,-0.48,-3.68,-2.77,-1.88,1.41,0.98,
0.605,-0.48,-3.68,-2.77,-1.97,1.46,0.99,
0.605,-0.48,-3.68,-2.77,-2.06,1.50,0.99,
0.606,-0.48,-3.68,-2.77,-2.15,1.51,0.97,
0.606,-0.48,-3.68,-2.77,-2.23,1.50,0.95,
0.608,-0.13,-3.41,-2.72,-2.23,1.50,0.95,
0.609,-0.13,-3.41,-2.72,-2.30,1.48,0.92,
0.609,-0.13,-3.41,-2.72,-2.36,1.47,0.89,
0.61,-0.13,-3.41,-2.72,-2.41,1.47,0.84,
0.612,-0.13,-3.41,-2.72,-2.46,1.48,0.80,
0.638,-0.13,-3.41,-2.72,-2.50,1.51,0.75,
0.638,0.70,-3.37,-2.23,-2.50,1.51,0.75,
0.639,0.70,-3.37,-2.23,-2.54,1.55,0.71,
0.639,0.70,-3.37,-2.23,-2.58,1.59,0.66,
0.639,0.70,-3.37,-2.23,-2.61,1.64,0.62,
0.639,0.70,-3.37,-2.23,-2.64,1.68,0.57,
0.639,0.70,-3.37,-2.23,-2.67,1.71,0.52,
0.64,1.50,-3.30,-1.94,-2.67,1.71,0.52,
0.64,1.50,-3.30,-1.94,-2.69,1.75,0.47,
0.64,1.50,-3.30,-1.94,-2.72,1.77,0.42,
0.64,1.50,-3.30,-1.94,-2.74,1.80,0.36,
0.64,1.50,-3.30,-1.94,-2.76,1.81,0.30,
0.64,1.50,-3.30,-1.94,-2.77,1.82,0.24,
0.641,2.52,-2.91,-1.64,-2.77,1.82,0.24,
0.658,2.52,-2.91,-1.64,-2.79,1.83,0.18,
0.658,2.52,-2.91,-1.64,-2.80,1.83,0.12,
0.659,2.52,-2.91,-1.64,-2.82,1.82,0.07,
0.659,2.52,-2.91,-1.64,-2.84,1.80,0.01,
0.659,2.52,-2.91,-1.64,-2.86,1.77,-0.05,
0.659,3.25,-2.59,-1.67,-2.86,1.77,-0.05,
0.659,3.25,-2.59,-1.67,-2.88,1.73,-0.10,
0.66,3.25,-2.59,-1.67,-2.90,1.69,-0.16,
0.66,3.25,-2.59,-1.67,-2.92,1.63,-0.20,
0.66,3.25,-2.59,-1.67,-2.94,1.56,-0.25,
0.66,3.25,-2.59,-1.67,-2.97,1.49,-0.30,
0.66,3.94,-2.95,-1.97,-2.97,1.49,-0.30,
0.661,3.94,-2.95,-1.97,-3.00,1.41,-0.34,
0.661,3.94,-2.95,-1.97,-3.03,1.32,-0.38,
0.661,3.94,-2.95,-1.97,-3.06,1.22,-0.41,
0.665,3.94,-2.95,-1.97,-3.10,1.11,-0.45,
0.666,3.94,-2.95,-1.97,-3.14,0.99,-0.48,
0.668,4.39,-3.55,-1.89,-3.14,0.99,-0.48,
0.669,4.39,-3.55,-1.89,-3.19,0.87,-0.51,
0.669,4.39,-3.55,-1.89,-3.24,0.74,-0.54,
0.67,4.39,-3.55,-1.89,-3.30,0.62,-0.57,
0.672,4.39,-3.55,-1.89,-3.37,0.49,-0.60,
0.674,4.39,-3.55,-1.89,-3.44,0.37,-0.63,
0.677,5.13,-4.04,-2.35,-3.44,0.37,-0.63,
0.677,5.13,-4.04,-2.35,-3.52,0.26,-0.66,
0.678,5.13,-4.04,-2.35,-3.60,0.15,-0.68,
0.682,5.13,-4.04,-2.35,-3.68,0.05,-0.70,
0.685,5.13,-4.04,-2.35,-3.78,-0.04,-0.72,
0.686,5.13,-4.04,-2.35,-3.87,-0.13,-0.72,
0.687,4.90,-3.80,-2.92,-3.87,-0.13,-0.72,
0.687,4.90,-3.80,-2.92,-3.96,-0.20,-0.72,
0.689,4.90,-3.80,-2.92,-4.06,-0.27,-0.70,
0.69,4.90,-3.80,-2.92,-4.15,-0.33,-0.67,
0.692,4.90,-3.80,-2.92,-4.23,-0.39,-0.63,
0.694,4.90,-3.80,-2.92,-4.31,-0.43,-0.57,
0.703,3.33,-3.06,-2.57,-4.31,-0.43,-0.57,
0.704,3.33,-3.06,-2.57,-4.38,-0.47,-0.51,
0.704,3.33,-3.06,-2.57,-4.44,-0.51,-0.44,
0.704,3.33,-3.06,-2.57,-4.50,-0.54,-0.36,
0.705,3.33,-3.06,-2.57,-4.55,-0.57,-0.28,
0.705,3.33,-3.06,-2.57,-4.59,-0.61,-0.20,
0.707,2.06,-1.94,-1.45,-4.59,-0.61,-0.20,
0.707,2.06,-1.94,-1.45,-4.64,-0.65,-0.13,
0.708,2.06,-1.94,-1.45,-4.67,-0.69,-0.06,
0.711,2.06,-1.94,-1.45,-4.71,-0.72,0.01,
0.736,2.06,-1.94,-1.45,-4.74,-0.76,0.07,
0.737,2.06,-1.94,-1.45,-4.77,-0.79,0.12,
0.737,2.55,-1.19,-0.43,-4.77,-0.79,0.12,
0.738,2.55,-1.19,-0.43,-4.79,-0.83,0.17,
0.738,2.55,-1.19,-0.43,-4.81,-0.87,0.20,
0.738,2.55,-1.19,-0.43,-4.83,-0.90,0.24,
0.738,2.55,-1.19,-0.43,-4.84,-0.93,0.27,
0.739,2.55,-1.19,-0.43,-4.85,-0.96,0.29,
0.739,3.56,-0.73,0.50,-4.85,-0.96,0.29,
0.739,3.56,-0.73,0.50,-4.85,-0.99,0.30,
0.739,3.56,-0.73,0.50,-4.85,-1.01,0.31,
0.739,3.56,-0.73,0.50,-4.85,-1.03,0.31,
0.74,3.56,-0.73,0.50,-4.85,-1.04,0.30,
0.74,3.56,-0.73,0.50,-4.84,-1.05,0.29,
0.74,4.90,-0.27,1.07,-4.84,-1.05,0.29,
0.74,4.90,-0.27,1.07,-4.82,-1.05,0.27,
0.74,4.90,-0.27,1.07,-4.80,-1.06,0.23,
0.741,4.90,-0.27,1.07,-4.78,-1.06,0.19,
0.743,4.90,-0.27,1.07,-4.75,-1.06,0.14,
0.744,4.90,-0.27,1.07,-4.71,-1.05,0.08,
0.748,6.26,0.23,2.06,-4.71,-1.05,0.08,
0.749,6.26,0.23,2.06,-4.66,-1.03,0.03,
0.751,6.26,0.23,2.06,-4.62,-1.01,-0.04,
0.753,6.26,0.23,2.06,-4.57,-0.98,-0.10,
0.753,6.26,0.23,2.06,-4.51,-0.96,-0.16,
0.757,6.26,0.23,2.06,-4.45,-0.93,-0.23,
0.758,6.62,0.95,2.65,-4.45,-0.93,-0.23,
0.758,6.62,0.95,2.65,-4.39,-0.90,-0.29,
0.762,6.62,0.95,2.65,-4.34,-0.87,-0.35,
0.763,6.62,0.95,2.65,-4.28,-0.84,-0.41,
0.763,6.62,0.95,2.65,-4.22,-0.81,-0.46,
0.77,6.62,0.95,2.65,-4.17,-0.79,-0.51,
0.77,6.15,1.40,2.57,-4.17,-0.79,-0.51,
0.771,6.15,1.40,2.57,-4.11,-0.79,-0.56,
0.772,6.15,1.40,2.57,-4.06,-0.79,-0.60,
0.772,6.15,1.40,2.57,-4.02,-0.79,-0.63,
0.775,6.15,1.40,2.57,-3.97,-0.80,-0.65,
0.775,6.15,1.40,2.57,-3.94,-0.80,-0.66,
0.777,5.13,1.66,2.23,-3.94,-0.80,-0.66,
0.777,5.13,1.66,2.23,-3.90,-0.81,-0.67,
0.778,5.13,1.66,2.23,-3.87,-0.82,-0.66,
0.781,5.13,1.66,2.23,-3.84,-0.84,-0.64,
0.783,5.13,1.66,2.23,-3.82,-0.87,-0.62,
0.784,5.13,1.66,2.23,-3.80,-0.89,-0.59,
0.787,3.94,1.65,1.76,-3.80,-0.89,-0.59,
0.788,3.94,1.65,1.76,-3.78,-0.90,-0.55,
0.788,3.94,1.65,1.76,-3.77,-0.92,-0.51,
0.79,3.94,1.65,1.76,-3.77,-0.93,-0.47,
0.792,3.94,1.65,1.76,-3.76,-0.95,-0.42,
0.794,3.94,1.65,1.76,-3.76,-0.97,-0.37,
0.798,3.40,1.84,1.00,-3.76,-0.97,-0.37,
0.798,3.40,1.84,1.00,-3.77,-0.98,-0.33,
0.798,3.40,1.84,1.00,-3.78,-0.98,-0.28,
0.8,3.40,1.84,1.00,-3.78,-0.98,-0.23,
0.806,3.40,1.84,1.00,-3.81,-0.93,-0.12,
0.831,3.40,1.84,1.00,-3.81,-0.93,-0.12,
0.832,3.40,1.84,1.00,-3.81,-0.93,-0.12,
0.832,3.36,2.09,1.04,-3.81,-0.93,-0.12,
0.832,3.36,2.09,1.04,-3.83,-0.88,-0.08,
0.832,3.36,2.09,1.04,-3.83,-0.85,-0.06,
0.833,3.36,2.09,1.04,-3.83,-0.82,-0.05,
0.833,3.36,2.09,1.04,-3.84,-0.78,-0.05,
0.833,4.06,2.12,1.43,-3.84,-0.78,-0.05,
0.834,4.06,2.12,1.43,-3.85,-0.73,-0.05,
0.834,4.06,2.12,1.43,-3.86,-0.68,-0.07,
0.834,4.06,2.12,1.43,-3.87,-0.63,-0.10,
0.835,4.06,2.12,1.43,-3.88,-0.58,-0.13,
0.835,4.06,2.12,1.43,-3.88,-0.53,-0.17,
0.835,5.25,1.87,1.76,-3.88,-0.53,-0.17,
0.835,5.25,1.87,1.76,-3.89,-0.49,-0.22,
0.836,5.25,1.87,1.76,-3.89,-0.46,-0.28,
0.836,5.25,1.87,1.76,-3.90,-0.44,-0.33,
0.836,5.25,1.87,1.76,-3.90,-0.42,-0.39,
0.837,5.25,1.87,1.76,-3.89,-0.41,-0.46,
0.851,5.95,1.91,2.66,-3.89,-0.41,-0.46,
0.852,5.95,1.91,2.66,-3.89,-0.41,-0.52,
0.852,5.95,1.91,2.66,-3.89,-0.41,-0.59,
0.853,5.95,1.91,2.66,-3.88,-0.43,-0.66,
0.853,5.95,1.91,2.66,-3.87,-0.45,-0.73,
0.853,5.95,1.91,2.66,-3.87,-0.47,-0.80,
0.853,6.15,1.84,3.51,-3.87,-0.47,-0.80,
0.854,6.15,1.84,3.51,-3.86,-0.50,-0.86,
0.854,6.15,1.84,3.51,-3.85,-0.54,-0.93,
0.854,6.15,1.84,3.51,-3.84,-0.57,-0.98,
0.855,6.15,1.84,3.51,-3.82,-0.60,-1.03,
0.856,6.15,1.84,3.51,-3.81,-0.63,-1.08,
0.857,5.86,1.95,4.16,-3.81,-0.63,-1.08,
0.857,5.86,1.95,4.16,-3.79,-0.65,-1.11,
0.858,5.86,1.95,4.16,-3.78,-0.68,-1.13,
0.861,5.86,1.95,4.16,-3.76,-0.71,-1.15,
0.875,5.86,1.95,4.16,-3.73,-0.75,-1.16,
0.876,5.86,1.95,4.16,-3.71,-0.79,-1.16,
0.876,5.02,2.05,4.56,-3.71,-0.79,-1.16,
0.877,5.02,2.05,4.56,-3.69,-0.83,-1.15,
0.877,5.02,2.05,4.56,-3.67,-0.87,-1.14,
0.877,5.02,2.05,4.56,-3.64,-0.91,-1.12,
0.877,5.02,2.05,4.56,-3.61,-0.96,-1.10,
0.878,5.02,2.05,4.56,-3.58,-1.01,-1.07,
0.878,4.34,2.24,4.99,-3.58,-1.01,-1.07,
0.878,4.34,2.24,4.99,-3.56,-1.06,-1.04,
0.878,4.34,2.24,4.99,-3.52,-1.11,-1.01,
0.884,4.34,2.24,4.99,-3.49,-1.16,-0.98,
0.885,4.34,2.24,4.99,-3.46,-1.21,-0.95,
0.885,4.34,2.24,4.99,-3.43,-1.26,-0.93,
0.889,3.82,2.54,5.17,-3.43,-1.26,-0.93,
0.89,3.82,2.54,5.17,-3.40,-1.32,-0.90,
0.89,3.82,2.54,5.17,-3.37,-1.38,-0.88,
0.891,3.82,2.54,5.17,-3.33,-1.43,-0.86,
0.893,3.82,2.54,5.17,-3.30,-1.47,-0.85,
0.895,3.82,2.54,5.17,-3.26,-1.51,-0.83,
0.898,3.66,2.97,5.51,-3.26,-1.51,-0.83,
0.898,3.66,2.97,5.51,-3.22,-1.54,-0.82,
0.898,3.66,2.97,5.51,-3.18,-1.56,-0.81,
0.902,3.66,2.97,5.51,-3.14,-1.58,-0.80,
0.904,3.66,2.97,5.51,-3.09,-1.61,-0.79,
0.905,3.66,2.97,5.51,-3.04,-1.64,-0.79,
0.906,3.36,3.44,5.97,-3.04,-1.64,-0.79,
0.907,3.36,3.44,5.97,-2.98,-1.69,-0.79,
0.908,3.36,3.44,5.97,-2.92,-1.74,-0.79,
0.914,3.36,3.44,5.97,-2.87,-1.79,-0.79,
0.915,3.36,3.44,5.97,-2.80,-1.83,-0.80,
0.915,3.36,3.44,5.97,-2.74,-1.86,-0.81,
0.917,3.09,3.72,6.60,-2.74,-1.86,-0.81,
0.917,3.09,3.72,6.60,-2.67,-1.90,-0.82,
0.92,3.09,3.72,6.60,-2.60,-1.93,-0.82,
0.921,3.09,3.72,6.60,-2.54,-1.97,-0.83,
0.922,3.09,3.72,6.60,-2.46,-2.00,-0.84,
0.924,3.09,3.72,6.60,-2.39,-2.04,-0.85,
0.927,2.47,3.69,6.92,-2.39,-2.04,-0.85,
0.927,2.47,3.69,6.92,-2.31,-2.08,-0.85,
0.929,2.47,3.69,6.92,-2.24,-2.11,-0.86,
0.931,2.47,3.69,6.92,-2.17,-2.14,-0.86,
0.932,2.47,3.69,6.92,-2.10,-2.18,-0.87,
0.936,2.47,3.69,6.92,-2.03,-2.23,-0.87,
0.937,1.81,3.91,7.13,-2.03,-2.23,-0.87,
0.937,1.81,3.91,7.13,-1.97,-2.28,-0.88,
0.939,1.81,3.91,7.13,-1.90,-2.32,-0.88,
0.942,1.81,3.91,7.13,-1.76,-2.38,-0.89,
0.943,1.81,3.91,7.13,-1.72,-2.38,-0.89,
0.947,1.81,3.91,7.13,-1.69,-2.39,-0.89,
0.949,1.27,3.63,7.51,-1.69,-2.39,-0.89,
0.949,1.27,3.63,7.51,-1.61,-2.39,-0.89,
0.949,1.27,3.63,7.51,-1.53,-2.39,-0.88,
0.95,1.27,3.63,7.51,-1.45,-2.40,-0.88,
0.952,1.27,3.63,7.51,-1.36,-2.41,-0.87,
0.957,1.27,3.63,7.51,-1.28,-2.44,-0.86,
0.958,0.75,3.84,8.40,-1.28,-2.44,-0.86,
0.958,0.75,3.84,8.40,-1.20,-2.47,-0.85,
0.959,0.75,3.84,8.40,-1.11,-2.49,-0.85,
0.961,0.75,3.84,8.40,-1.02,-2.52,-0.83,
0.969,0.75,3.84,8.40,-0.94,-2.54,-0.82,
0.969,0.75,3.84,8.40,-0.85,-2.56,-0.80,
0.97,-0.17,4.41,8.54,-0.85,-2.56,-0.80,
0.97,-0.17,4.41,8.54,-0.77,-2.57,-0.77,
0.97,-0.17,4.41,8.54,-0.69,-2.59,-0.74,
0.989,-0.17,4.41,8.54,-0.61,-2.62,-0.70,
0.99,-0.17,4.41,8.54,-0.52,-2.65,-0.66,
0.99,-0.17,4.41,8.54,-0.43,-2.67,-0.61,
0.99,-1.66,4.90,8.44,-0.43,-2.67,-0.61,
0.99,-1.66,4.90,8.44,-0.34,-2.69,-0.55,
0.99,-1.66,4.90,8.44,-0.25,-2.69,-0.49,
0.99,-1.66,4.90,8.44,-0.16,-2.70,-0.41,
0.991,-1.66,4.90,8.44,-0.06,-2.69,-0.34,
0.991,-1.66,4.90,8.44,0.04,-2.69,-0.25,
0.991,-3.25,5.17,8.41,0.04,-2.69,-0.25,
0.992,-3.25,5.17,8.41,0.13,-2.69,-0.17,
0.992,-3.25,5.17,8.41,0.23,-2.72,-0.09,
0.992,-3.25,5.17,8.41,0.32,-2.77,-0.00,
0.996,-3.25,5.17,8.41,0.41,-2.82,0.07,
0.996,-3.25,5.17,8.41,0.49,-2.87,0.15,
0.997,-3.80,5.27,8.09,0.49,-2.87,0.15,
0.998,-3.80,5.27,8.09,0.58,-2.92,0.22,
0.998,-3.80,5.27,8.09,0.67,-2.96,0.29,
1.0,-3.80,5.27,8.09,0.78,-2.99,0.36,
1.013,-3.80,5.27,8.09,0.89,-3.01,0.43,
1.014,-3.80,5.27,8.09,1.00,-3.03,0.51,
1.014,-4.23,4.76,8.39,1.00,-3.03,0.51,
1.014,-4.23,4.76,8.39,1.13,-3.04,0.59,
1.015,-4.23,4.76,8.39,1.27,-3.04,0.68,
1.015,-4.23,4.76,8.39,1.42,-3.03,0.76,
1.015,-4.23,4.76,8.39,1.57,-3.01,0.84,
1.015,-4.23,4.76,8.39,1.72,-2.99,0.90,
1.017,-3.93,4.21,9.29,1.72,-2.99,0.90,
1.017,-3.93,4.21,9.29,1.87,-2.98,0.94,
1.019,-3.93,4.21,9.29,2.01,-2.99,0.96,
1.021,-3.93,4.21,9.29,2.16,-3.01,0.97,
1.023,-3.93,4.21,9.29,2.30,-3.02,0.97,
1.025,-3.93,4.21,9.29,2.44,-3.04,0.96,
1.027,-2.44,4.20,8.44,2.44,-3.04,0.96,
1.027,-2.44,4.20,8.44,2.58,-3.06,0.94,
1.028,-2.44,4.20,8.44,2.71,-3.06,0.91,
1.03,-2.44,4.20,8.44,2.84,-3.06,0.88,
1.034,-2.44,4.20,8.44,2.96,-3.05,0.86,
1.035,-2.44,4.20,8.44,3.07,-3.04,0.84,
1.037,-3.15,4.37,7.53,3.07,-3.04,0.84,
1.037,-3.15,4.37,7.53,3.18,-3.02,0.82,
1.038,-3.15,4.37,7.53,3.28,-2.99,0.81,
1.04,-3.15,4.37,7.53,3.37,-2.97,0.81,
1.043,-3.15,4.37,7.53,3.46,-2.94,0.81,
1.046,-3.15,4.37,7.53,3.53,-2.91,0.81,
1.047,-4.81,3.70,5.98,3.53,-2.91,0.81,
1.048,-4.81,3.70,5.98,3.60,-2.87,0.82,
1.048,-4.81,3.70,5.98,3.67,-2.82,0.83,
1.05,-4.81,3.70,5.98,3.73,-2.77,0.85,
1.052,-4.81,3.70,5.98,3.78,-2.71,0.86,
1.054,-4.81,3.70,5.98,3.82,-2.64,0.88,
1.057,-5.80,2.52,4.80,3.82,-2.64,0.88,
1.057,-5.80,2.52,4.80,3.86,-2.57,0.90,
1.058,-5.80,2.52,4.80,3.90,-2.48,0.92,
1.06,-5.80,2.52,4.80,3.93,-2.38,0.94,
1.063,-5.80,2.52,4.80,3.96,-2.28,0.97,
1.064,-5.80,2.52,4.80,3.98,-2.16,0.99,
1.068,-6.27,1.49,3.32,3.98,-2.16,0.99,
1.069,-6.27,1.49,3.32,3.99,-2.03,1.02,
1.069,-6.27,1.49,3.32,4.00,-1.88,1.05,
1.07,-6.27,1.49,3.32,4.01,-1.73,1.08,
1.072,-6.27,1.49,3.32,4.00,-1.58,1.11,
1.074,-6.27,1.49,3.32,3.99,-1.42,1.14,
1.077,-6.57,0.07,1.75,3.99,-1.42,1.14,
1.077,-6.57,0.07,1.75,3.97,-1.26,1.17,
1.079,-6.57,0.07,1.75,3.95,-1.10,1.19,
1.08,-6.57,0.07,1.75,3.92,-0.95,1.22,
1.082,-6.57,0.07,1.75,3.88,-0.80,1.23,
1.084,-6.57,0.07,1.75,3.84,-0.65,1.24,
1.087,-5.77,-1.02,-0.33,3.84,-0.65,1.24,
1.087,-5.77,-1.02,-0.33,3.79,-0.50,1.25,
1.088,-5.77,-1.02,-0.33,3.73,-0.35,1.24,
1.09,-5.77,-1.02,-0.33,3.67,-0.21,1.23,
1.092,-5.77,-1.02,-0.33,3.60,-0.07,1.22,
1.094,-5.77,-1.02,-0.33,3.53,0.07,1.20,
1.097,-4.35,-1.61,-2.43,3.53,0.07,1.20,
1.097,-4.35,-1.61,-2.43,3.45,0.21,1.17,
1.099,-4.35,-1.61,-2.43,3.37,0.35,1.14,
1.1,-4.35,-1.61,-2.43,3.29,0.48,1.09,
1.102,-4.35,-1.61,-2.43,3.19,0.57,1.05,
1.104,-4.35,-1.61,-2.43,3.06,0.62,0.99,
1.107,-2.46,-1.99,-4.76,3.06,0.62,0.99,
1.107,-2.46,-1.99,-4.76,2.89,0.62,0.92,
1.108,-2.46,-1.99,-4.76,2.70,0.62,0.84,
1.11,-2.46,-1.99,-4.76,2.40,0.63,0.72,
1.118,-2.46,-1.99,-4.76,2.30,0.65,0.68,
1.119,-2.46,-1.99,-4.76,2.10,0.71,0.60,
1.119,-1.02,-2.48,-6.78,2.10,0.71,0.60,
1.119,-1.02,-2.48,-6.78,1.92,0.78,0.52,
1.12,-1.02,-2.48,-6.78,1.75,0.85,0.45,
1.12,-1.02,-2.48,-6.78,1.60,0.90,0.37,
1.123,-1.02,-2.48,-6.78,1.45,0.93,0.29,
1.125,-1.02,-2.48,-6.78,1.31,0.94,0.21,
1.127,-0.25,-2.49,-4.25,1.31,0.94,0.21,
1.127,-0.25,-2.49,-4.25,1.17,0.94,0.13,
1.14,-0.25,-2.49,-4.25,1.05,0.94,0.05,
1.141,-0.25,-2.49,-4.25,0.93,0.93,-0.02,
1.141,-0.25,-2.49,-4.25,0.83,0.93,-0.10,
1.142,-0.25,-2.49,-4.25,0.75,0.92,-0.17,
1.142,0.04,-3.02,-2.06,0.75,0.92,-0.17,
1.16,0.04,-3.02,-2.06,0.70,0.91,-0.24,
1.161,0.04,-3.02,-2.06,0.66,0.89,-0.30,
1.161,0.04,-3.02,-2.06,0.64,0.86,-0.35,
1.161,0.04,-3.02,-2.06,0.63,0.83,-0.40,
1.161,0.04,-3.02,-2.06,0.64,0.79,-0.44,
1.161,-0.44,-3.07,0.37,0.64,0.79,-0.44,
1.162,-0.44,-3.07,0.37,0.67,0.76,-0.47,
1.162,-0.44,-3.07,0.37,0.70,0.74,-0.50,
1.162,-0.44,-3.07,0.37,0.75,0.73,-0.52,
1.162,-0.44,-3.07,0.37,0.80,0.73,-0.54,
1.163,-0.44,-3.07,0.37,0.87,0.73,-0.56,
1.163,-1.12,-3.08,1.57,0.87,0.73,-0.56,
1.163,-1.12,-3.08,1.57,0.93,0.73,-0.58,
1.163,-1.12,-3.08,1.57,1.00,0.72,-0.59,
1.164,-1.12,-3.08,1.57,1.10,0.72,-0.62,
1.164,-1.12,-3.08,1.57,1.13,0.71,-0.63,
1.168,-1.12,-3.08,1.57,1.19,0.70,-0.65,
1.168,-1.33,-2.93,1.22,1.19,0.70,-0.65,
1.168,-1.33,-2.93,1.22,1.25,0.68,-0.66,
1.169,-1.33,-2.93,1.22,1.32,0.66,-0.68,
1.171,-1.33,-2.93,1.22,1.38,0.65,-0.70,
1.173,-1.33,-2.93,1.22,1.45,0.65,-0.71,
1.175,-1.33,-2.93,1.22,1.52,0.65,-0.73,
1.177,-1.51,-2.62,1.32,1.52,0.65,-0.73,
1.177,-1.51,-2.62,1.32,1.58,0.63,-0.74,
1.179,-1.51,-2.62,1.32,1.64,0.61,-0.76,
1.181,-1.51,-2.62,1.32,1.70,0.60,-0.77,
1.182,-1.51,-2.62,1.32,1.77,0.57,-0.78,
1.184,-1.51,-2.62,1.32,1.84,0.55,-0.79,
1.186,-1.46,-1.91,1.85,1.84,0.55,-0.79,
1.186,-1.46,-1.91,1.85,1.89,0.53,-0.78,
1.188,-1.46,-1.91,1.85,1.95,0.49,-0.78,
1.19,-1.46,-1.91,1.85,2.00,0.44,-0.77,
1.192,-1.46,-1.91,1.85,2.04,0.39,-0.74,
1.194,-1.46,-1.91,1.85,2.08,0.34,-0.72,
1.197,-2.04,-0.85,1.94,2.08,0.34,-0.72,
1.197,-2.04,-0.85,1.94,2.11,0.30,-0.68,
1.198,-2.04,-0.85,1.94,2.15,0.27,-0.64,
1.2,-2.04,-0.85,1.94,2.17,0.24,-0.59,
1.203,-2.04,-0.85,1.94,2.18,0.21,-0.53,
1.205,-2.04,-0.85,1.94,2.19,0.17,-0.46,
1.206,-2.44,0.14,1.56,2.19,0.17,-0.46,
1.206,-2.44,0.14,1.56,2.18,0.14,-0.39,
1.208,-2.44,0.14,1.56,2.18,0.12,-0.32,
1.21,-2.44,0.14,1.56,2.16,0.09,-0.23,
1.212,-2.44,0.14,1.56,2.13,0.04,-0.13,
1.214,-2.44,0.14,1.56,2.09,-0.01,-0.02,
1.217,-2.52,0.74,0.82,2.09,-0.01,-0.02,
1.217,-2.52,0.74,0.82,2.04,-0.07,0.10,
1.218,-2.52,0.74,0.82,1.99,-0.12,0.22,
1.22,-2.52,0.74,0.82,1.93,-0.16,0.36,
1.222,-2.52,0.74,0.82,1.85,-0.22,0.51,
1.224,-2.52,0.74,0.82,1.77,-0.27,0.66,
1.226,-3.02,1.07,-0.77,1.77,-0.27,0.66,
1.226,-3.02,1.07,-0.77,1.67,-0.32,0.83,
1.232,-3.02,1.07,-0.77,1.57,-0.35,0.99,
1.232,-3.02,1.07,-0.77,1.49,-0.37,1.14,
1.232,-3.02,1.07,-0.77,1.41,-0.40,1.28,
1.234,-3.02,1.07,-0.77,1.33,-0.43,1.42,
1.236,-2.26,-0.15,-1.28,1.33,-0.43,1.42,
1.237,-2.26,-0.15,-1.28,1.27,-0.47,1.56,
1.241,-2.26,-0.15,-1.28,1.20,-0.52,1.69,
1.241,-2.26,-0.15,-1.28,1.14,-0.56,1.82,
1.242,-2.26,-0.15,-1.28,1.06,-0.60,1.95,
1.244,-2.26,-0.15,-1.28,0.97,-0.64,2.06,
1.254,-1.83,-0.92,-2.18,0.97,-0.64,2.06,
1.254,-1.83,-0.92,-2.18,0.87,-0.67,2.18,
1.254,-1.83,-0.92,-2.18,0.76,-0.70,2.28,
1.254,-1.83,-0.92,-2.18,0.64,-0.72,2.38,
1.255,-1.83,-0.92,-2.18,0.51,-0.74,2.46,
1.255,-1.83,-0.92,-2.18,0.37,-0.76,2.54,
1.256,-1.35,-1.60,-4.01,0.37,-0.76,2.54,
1.257,-1.35,-1.60,-4.01,0.22,-0.77,2.59,
1.26,-1.35,-1.60,-4.01,0.07,-0.77,2.63,
1.26,-1.35,-1.60,-4.01,-0.15,-0.77,2.67,
1.262,-1.35,-1.60,-4.01,-0.22,-0.77,2.67,
1.264,-1.35,-1.60,-4.01,-0.37,-0.77,2.67,
1.266,-0.16,-2.59,-4.58,-0.37,-0.77,2.67,
1.267,-0.16,-2.59,-4.58,-0.51,-0.76,2.65,
1.268,-0.16,-2.59,-4.58,-0.65,-0.74,2.61,
1.27,-0.16,-2.59,-4.58,-0.78,-0.72,2.55,
1.273,-0.16,-2.59,-4.58,-0.90,-0.69,2.48,
1.274,-0.16,-2.59,-4.58,-1.01,-0.65,2.39,
1.276,1.52,-3.26,-3.85,-1.01,-0.65,2.39,
1.277,1.52,-3.26,-3.85,-1.10,-0.59,2.29,
1.279,1.52,-3.26,-3.85,-1.18,-0.53,2.18,
1.281,1.52,-3.26,-3.85,-1.24,-0.47,2.07,
1.282,1.52,-3.26,-3.85,-1.30,-0.40,1.95,
1.285,1.52,-3.26,-3.85,-1.33,-0.32,1.83,
1.287,2.05,-3.03,-2.54,-1.33,-0.32,1.83,
1.287,2.05,-3.03,-2.54,-1.35,-0.24,1.71,
1.289,2.05,-3.03,-2.54,-1.36,-0.16,1.58,
1.291,2.05,-3.03,-2.54,-1.33,0.01,1.34,
1.292,2.05,-3.03,-2.54,-1.32,0.05,1.28,
1.295,2.05,-3.03,-2.54,-1.31,0.09,1.22,
1.297,1.87,-2.35,-1.41,-1.31,0.09,1.22,
1.297,1.87,-2.35,-1.41,-1.27,0.17,1.11,
1.299,1.87,-2.35,-1.41,-1.23,0.25,1.01,
1.3,1.87,-2.35,-1.41,-1.18,0.33,0.91,
1.302,1.87,-2.35,-1.41,-1.12,0.40,0.81,
1.324,1.87,-2.35,-1.41,-1.05,0.47,0.73,
1.324,1.06,-1.60,-0.50,-1.05,0.47,0.73,
1.324,1.06,-1.60,-0.50,-0.98,0.54,0.64,
1.324,1.06,-1.60,-0.50,-0.90,0.60,0.56,
1.324,1.06,-1.60,-0.50,-0.81,0.65,0.49,
1.324,1.06,-1.60,-0.50,-0.71,0.70,0.43,
1.325,1.06,-1.60,-0.50,-0.60,0.74,0.36,
1.325,0.34,-1.09,1.02,-0.60,0.74,0.36,
1.325,0.34,-1.09,1.02,-0.47,0.77,0.31,
1.326,0.34,-1.09,1.02,-0.35,0.80,0.25,
1.326,0.34,-1.09,1.02,-0.21,0.82,0.20,
1.326,0.34,-1.09,1.02,-0.07,0.82,0.16,
1.326,0.34,-1.09,1.02,0.06,0.82,0.12,
1.327,0.39,-0.46,2.39,0.06,0.82,0.12,
1.327,0.39,-0.46,2.39,0.20,0.81,0.08,
1.334,0.39,-0.46,2.39,0.33,0.79,0.05,
1.334,0.39,-0.46,2.39,0.44,0.76,0.02,
1.335,0.39,-0.46,2.39,0.54,0.74,-0.01,
1.335,0.39,-0.46,2.39,0.63,0.73,-0.04,
1.339,0.52,0.15,1.92,0.63,0.73,-0.04,
1.339,0.52,0.15,1.92,0.71,0.73,-0.06,
1.339,0.52,0.15,1.92,0.78,0.73,-0.07,
1.34,0.52,0.15,1.92,0.85,0.73,-0.08,
1.344,0.52,0.15,1.92,0.90,0.73,-0.09,
1.344,0.52,0.15,1.92,0.95,0.71,-0.09,
1.347,0.67,0.44,1.42,0.95,0.71,-0.09,
1.347,0.67,0.44,1.42,0.99,0.69,-0.09,
1.349,0.67,0.44,1.42,1.02,0.66,-0.08,
1.35,0.67,0.44,1.42,1.05,0.63,-0.06,
1.352,0.67,0.44,1.42,1.08,0.60,-0.04,
1.354,0.67,0.44,1.42,1.10,0.55,-0.01,
1.356,0.46,0.77,1.60,1.10,0.55,-0.01,
1.357,0.46,0.77,1.60,1.12,0.50,0.02,
1.358,0.46,0.77,1.60,1.14,0.45,0.06,
1.36,0.46,0.77,1.60,1.15,0.39,0.10,
1.363,0.46,0.77,1.60,1.17,0.32,0.15,
1.365,0.46,0.77,1.60,1.19,0.25,0.20,
1.367,0.02,1.12,1.89,1.19,0.25,0.20,
1.367,0.02,1.12,1.89,1.21,0.18,0.26,
1.368,0.02,1.12,1.89,1.24,0.12,0.32,
1.37,0.02,1.12,1.89,1.26,0.06,0.38,
1.372,0.02,1.12,1.89,1.29,0.01,0.45,
1.377,0.02,1.12,1.89,1.31,-0.02,0.52,
1.377,0.10,1.15,1.98,1.31,-0.02,0.52,
1.377,0.10,1.15,1.98,1.33,-0.06,0.59,
1.401,0.10,1.15,1.98,1.34,-0.09,0.67,
1.403,0.10,1.15,1.98,1.34,-0.12,0.76,
1.403,0.10,1.15,1.98,1.33,-0.15,0.84,
1.404,0.10,1.15,1.98,1.32,-0.18,0.93,
1.405,0.21,0.68,0.96,1.32,-0.18,0.93,
1.405,0.21,0.68,0.96,1.31,-0.22,1.02,
1.406,0.21,0.68,0.96,1.29,-0.26,1.11,
1.406,0.21,0.68,0.96,1.26,-0.31,1.19,
1.406,0.21,0.68,0.96,1.23,-0.36,1.27,
1.406,0.21,0.68,0.96,1.18,-0.40,1.34,
1.407,0.88,0.45,-0.22,1.18,-0.40,1.34,
1.407,0.88,0.45,-0.22,1.13,-0.45,1.42,
1.407,0.88,0.45,-0.22,1.07,-0.50,1.48,
1.408,0.88,0.45,-0.22,0.99,-0.55,1.54,
1.408,0.88,0.45,-0.22,0.91,-0.62,1.59,
1.408,0.88,0.45,-0.22,0.83,-0.69,1.63,
1.409,1.94,0.03,-1.46,0.83,-0.69,1.63,
1.409,1.94,0.03,-1.46,0.74,-0.78,1.66,
1.427,1.94,0.03,-1.46,0.65,-0.88,1.67,
1.427,1.94,0.03,-1.46,0.53,-1.05,1.67,
1.428,1.94,0.03,-1.46,0.49,-1.11,1.66,
1.428,1.94,0.03,-1.46,0.41,-1.25,1.64,
1.428,4.08,-0.80,-1.21,0.41,-1.25,1.64,
1.428,4.08,-0.80,-1.21,0.34,-1.40,1.61,
1.429,4.08,-0.80,-1.21,0.27,-1.56,1.58,
1.429,4.08,-0.80,-1.21,0.21,-1.74,1.55,
1.429,4.08,-0.80,-1.21,0.15,-1.95,1.50,
1.43,4.08,-0.80,-1.21,0.10,-2.16,1.46,
1.43,5.21,-0.86,-0.07,0.10,-2.16,1.46,
1.431,5.21,-0.86,-0.07,0.06,-2.38,1.42,
1.431,5.21,-0.86,-0.07,0.01,-2.61,1.38,
1.431,5.21,-0.86,-0.07,-0.02,-2.84,1.34,
1.433,5.21,-0.86,-0.07,-0.05,-3.05,1.30,
1.435,5.21,-0.86,-0.07,-0.08,-3.26,1.27,
1.439,4.64,-0.14,0.68,-0.08,-3.26,1.27,
1.439,4.64,-0.14,0.68,-0.11,-3.45,1.24,
1.439,4.64,-0.14,0.68,-0.14,-3.62,1.22,
1.441,4.64,-0.14,0.68,-0.15,-3.77,1.21,
1.443,4.64,-0.14,0.68,-0.17,-3.91,1.21,
1.445,4.64,-0.14,0.68,-0.17,-4.05,1.22,
1.451,2.14,0.32,1.17,-0.17,-4.05,1.22,
1.452,2.14,0.32,1.17,-0.16,-4.18,1.23,
1.452,2.14,0.32,1.17,-0.15,-4.29,1.26,
1.453,2.14,0.32,1.17,-0.13,-4.37,1.29,
1.453,2.14,0.32,1.17,-0.09,-4.44,1.32,
1.454,2.14,0.32,1.17,-0.05,-4.48,1.37,
1.46,-1.07,-0.39,2.26,-0.05,-4.48,1.37,
1.461,-1.07,-0.39,2.26,-0.01,-4.51,1.41,
1.464,-1.07,-0.39,2.26,0.04,-4.52,1.46,
1.466,-1.07,-0.39,2.26,0.12,-4.49,1.52,
1.469,-1.07,-0.39,2.26,0.15,-4.47,1.54,
1.471,-1.07,-0.39,2.26,0.21,-4.39,1.57,
1.471,-3.31,-1.79,2.22,0.21,-4.39,1.57,
1.471,-3.31,-1.79,2.22,0.26,-4.31,1.61,
1.475,-3.31,-1.79,2.22,0.32,-4.19,1.65,
1.5,-3.31,-1.79,2.22,0.37,-4.04,1.68,
1.501,-3.31,-1.79,2.22,0.42,-3.88,1.71,
1.501,-3.31,-1.79,2.22,0.45,-3.72,1.74,
1.501,-5.02,-2.60,0.46,0.45,-3.72,1.74,
1.502,-5.02,-2.60,0.46,0.49,-3.56,1.77,
1.502,-5.02,-2.60,0.46,0.52,-3.40,1.80,
1.502,-5.02,-2.60,0.46,0.54,-3.25,1.81,
1.502,-5.02,-2.60,0.46,0.56,-3.11,1.82,
1.503,-5.02,-2.60,0.46,0.57,-2.96,1.83,
1.503,-5.40,-2.34,-1.03,0.57,-2.96,1.83,
1.503,-5.40,-2.34,-1.03,0.59,-2.80,1.83,
1.504,-5.40,-2.34,-1.03,0.60,-2.65,1.83,
1.504,-5.40,-2.34,-1.03,0.59,-2.41,1.82,
1.504,-5.40,-2.34,-1.03,0.59,-2.33,1.82,
1.504,-5.40,-2.34,-1.03,0.58,-2.17,1.81,
1.505,-5.49,-1.92,-1.87,0.58,-2.17,1.81,
1.505,-5.49,-1.92,-1.87,0.57,-2.01,1.80,
1.505,-5.49,-1.92,-1.87,0.56,-1.85,1.79,
1.506,-5.49,-1.92,-1.87,0.55,-1.71,1.78,
1.506,-5.49,-1.92,-1.87,0.54,-1.57,1.76,
1.506,-5.49,-1.92,-1.87,0.52,-1.42,1.75,
1.506,-5.12,-1.01,-1.76,0.52,-1.42,1.75,
1.507,-5.12,-1.01,-1.76,0.51,-1.28,1.74,
1.514,-5.12,-1.01,-1.76,0.49,-1.14,1.74,
1.515,-5.12,-1.01,-1.76,0.47,-0.94,1.73,
1.516,-5.12,-1.01,-1.76,0.46,-0.82,1.72,
1.518,-5.12,-1.01,-1.76,0.45,-0.76,1.72,
1.52,-4.05,-0.29,-1.50,0.45,-0.76,1.72,
1.52,-4.05,-0.29,-1.50,0.44,-0.66,1.71,
1.521,-4.05,-0.29,-1.50,0.43,-0.51,1.70,
1.521,-4.05,-0.29,-1.50,0.42,-0.42,1.70,
1.523,-4.05,-0.29,-1.50,0.42,-0.38,1.69,
1.524,-4.05,-0.29,-1.50,0.42,-0.32,1.69,
1.527,-2.24,0.15,-0.93,0.42,-0.32,1.69,
1.528,-2.24,0.15,-0.93,0.42,-0.28,1.68,
1.528,-2.24,0.15,-0.93,0.42,-0.24,1.68,
1.531,-2.24,0.15,-0.93,0.42,-0.22,1.68,
1.532,-2.24,0.15,-0.93,0.43,-0.23,1.68,
1.537,-2.24,0.15,-0.93,0.43,-0.26,1.68,
1.538,-1.27,0.12,-0.22,0.43,-0.26,1.68,
1.538,-1.27,0.12,-0.22,0.44,-0.34,1.69,
1.539,-1.27,0.12,-0.22,0.45,-0.36,1.69,
1.54,-1.27,0.12,-0.22,0.46,-0.45,1.70,
1.542,-1.27,0.12,-0.22,0.47,-0.52,1.70,
1.553,-1.27,0.12,-0.22,0.48,-0.56,1.70,
1.553,-1.04,-0.44,0.52,0.48,-0.56,1.70,
1.553,-1.04,-0.44,0.52,0.50,-0.68,1.70,
1.554,-1.04,-0.44,0.52,0.51,-0.73,1.70,
1.554,-1.04,-0.44,0.52,0.55,-0.89,1.69,
1.554,-1.04,-0.44,0.52,0.57,-0.97,1.68,
1.554,-1.04,-0.44,0.52,0.58,-1.00,1.67,
1.557,-1.03,-0.90,1.31,0.58,-1.00,1.67,
1.557,-1.03,-0.90,1.31,0.62,-1.09,1.66,
1.558,-1.03,-0.90,1.31,0.64,-1.14,1.66,
1.593,-1.03,-0.90,1.31,0.67,-1.18,1.66,
1.594,-1.03,-0.90,1.31,0.69,-1.19,1.66,
1.594,-1.03,-0.90,1.31,0.70,-1.20,1.67,
1.594,-1.74,-0.54,1.12,0.70,-1.20,1.67,
1.595,-1.74,-0.54,1.12,0.73,-1.22,1.68,
1.595,-1.74,-0.54,1.12,0.74,-1.22,1.69,
1.595,-1.74,-0.54,1.12,0.77,-1.20,1.71,
1.595,-1.74,-0.54,1.12,0.78,-1.15,1.73,
1.595,-1.74,-0.54,1.12,0.79,-1.08,1.75,
1.596,-2.64,-0.04,0.12,0.79,-1.08,1.75,
1.596,-2.64,-0.04,0.12,0.80,-0.98,1.77,
1.596,-2.64,-0.04,0.12,0.80,-0.85,1.79,
1.596,-2.64,-0.04,0.12,0.79,-0.69,1.82,
1.597,-2.64,-0.04,0.12,0.78,-0.52,1.84,
1.597,-2.64,-0.04,0.12,0.77,-0.37,1.86,
1.597,-2.41,0.52,-1.48,0.77,-0.37,1.86,
1.597,-2.41,0.52,-1.48,0.76,-0.22,1.87,
1.598,-2.41,0.52,-1.48,0.75,-0.06,1.88,
1.598,-2.41,0.52,-1.48,0.73,0.10,1.88,
1.598,-2.41,0.52,-1.48,0.71,0.25,1.88,
1.598,-2.41,0.52,-1.48,0.69,0.40,1.87,
1.598,-1.43,0.46,-2.05,0.69,0.40,1.87,
1.599,-1.43,0.46,-2.05,0.68,0.56,1.87,
1.599,-1.43,0.46,-2.05,0.66,0.71,1.86,
1.601,-1.43,0.46,-2.05,0.65,0.86,1.85,
1.603,-1.43,0.46,-2.05,0.63,1.01,1.84,
1.605,-1.43,0.46,-2.05,0.62,1.15,1.83,
1.607,-0.51,0.57,-1.71,0.62,1.15,1.83,
1.607,-0.51,0.57,-1.71,0.61,1.28,1.83,
1.609,-0.51,0.57,-1.71,0.61,1.39,1.83,
1.612,-0.51,0.57,-1.71,0.60,1.49,1.83,
1.613,-0.51,0.57,-1.71,0.60,1.58,1.83,
1.614,-0.51,0.57,-1.71,0.59,1.67,1.84,
1.617,-0.19,0.67,-1.07,0.59,1.67,1.84,
1.617,-0.19,0.67,-1.07,0.59,1.76,1.85,
1.618,-0.19,0.67,-1.07,0.58,1.84,1.87,
1.621,-0.19,0.67,-1.07,0.58,1.90,1.89,
1.623,-0.19,0.67,-1.07,0.57,1.96,1.92,
1.625,-0.19,0.67,-1.07,0.57,2.01,1.95,
1.63,-0.18,0.70,-0.75,0.57,2.01,1.95,
1.631,-0.18,0.70,-0.75,0.56,2.06,1.98,
1.631,-0.18,0.70,-0.75,0.55,2.10,2.01,
1.631,-0.18,0.70,-0.75,0.55,2.14,2.05,
1.632,-0.18,0.70,-0.75,0.53,2.17,2.10,
1.636,-0.18,0.70,-0.75,0.52,2.20,2.15,
1.637,-0.94,0.64,-0.92,0.52,2.20,2.15,
1.655,-0.94,0.64,-0.92,0.51,2.22,2.20,
1.655,-0.94,0.64,-0.92,0.50,2.25,2.26,
1.655,-0.94,0.64,-0.92,0.49,2.29,2.36,
1.655,-0.94,0.64,-0.92,0.48,2.31,2.40,
1.655,-0.94,0.64,-0.92,0.47,2.34,2.47,
1.655,-1.81,1.06,-1.06,0.47,2.34,2.47,
1.656,-1.81,1.06,-1.06,0.46,2.38,2.55,
1.656,-1.81,1.06,-1.06,0.45,2.42,2.63,
1.656,-1.81,1.06,-1.06,0.44,2.47,2.71,
1.656,-1.81,1.06,-1.06,0.43,2.53,2.80,
1.656,-1.81,1.06,-1.06,0.42,2.60,2.89,
1.656,-2.39,1.84,-1.23,0.42,2.60,2.89,
1.657,-2.39,1.84,-1.23,0.40,2.68,2.97,
1.662,-2.39,1.84,-1.23,0.39,2.78,3.07,
1.663,-2.39,1.84,-1.23,0.38,2.88,3.16,
1.663,-2.39,1.84,-1.23,0.36,2.99,3.25,
1.664,-2.39,1.84,-1.23,0.34,3.10,3.33,
1.667,-2.97,2.88,-1.45,0.34,3.10,3.33,
1.667,-2.97,2.88,-1.45,0.33,3.21,3.43,
1.668,-2.97,2.88,-1.45,0.31,3.31,3.51,
1.67,-2.97,2.88,-1.45,0.28,3.41,3.60,
1.672,-2.97,2.88,-1.45,0.25,3.50,3.69,
1.674,-2.97,2.88,-1.45,0.22,3.58,3.77,
1.682,-3.28,3.83,-1.64,0.22,3.58,3.77,
1.682,-3.28,3.83,-1.64,0.19,3.64,3.85,
1.682,-3.28,3.83,-1.64,0.16,3.67,3.93,
1.683,-3.28,3.83,-1.64,0.09,3.63,3.97,
1.683,-3.28,3.83,-1.64,0.02,3.56,4.01,
1.684,-3.28,3.83,-1.64,-0.06,3.45,4.04,
1.689,-2.92,4.24,-1.49,-0.06,3.45,4.04,
1.689,-2.92,4.24,-1.49,-0.16,3.26,4.05,
1.69,-2.92,4.24,-1.49,-0.28,3.00,4.03,
1.69,-2.92,4.24,-1.49,-0.41,2.68,4.00,
1.717,-2.92,4.24,-1.49,-0.55,2.29,3.94,
1.717,-2.92,4.24,-1.49,-0.70,1.87,3.85,
1.718,-1.84,3.71,-0.70,-0.70,1.87,3.85,
1.718,-1.84,3.71,-0.70,-0.84,1.40,3.74,
1.718,-1.84,3.71,-0.70,-0.97,0.89,3.60,
1.718,-1.84,3.71,-0.70,-1.07,0.34,3.45,
1.718,-1.84,3.71,-0.70,-1.15,-0.23,3.27,
1.718,-1.84,3.71,-0.70,-1.20,-0.78,3.09,
1.718,0.31,2.40,3.50,-1.20,-0.78,3.09,
1.719,0.31,2.40,3.50,-1.24,-1.28,2.91,
1.719,0.31,2.40,3.50,-1.27,-1.71,2.76,
1.719,0.31,2.40,3.50,-1.30,-2.05,2.62,
1.719,0.31,2.40,3.50,-1.31,-2.32,2.50,
1.719,0.31,2.40,3.50,-1.30,-2.52,2.40,
1.719,0.50,2.39,5.03,-1.30,-2.52,2.40,
1.72,0.50,2.39,5.03,-1.29,-2.67,2.32,
1.72,0.50,2.39,5.03,-1.25,-2.77,2.26,
1.72,0.50,2.39,5.03,-1.22,-2.83,2.22,
1.724,0.50,2.39,5.03,-1.18,-2.85,2.19,
1.725,0.50,2.39,5.03,-1.12,-2.86,2.17,
1.728,-0.63,3.49,3.90,-1.12,-2.86,2.17,
1.728,-0.63,3.49,3.90,-1.07,-2.85,2.16,
1.731,-0.63,3.49,3.90,-0.99,-2.76,2.15,
1.731,-0.63,3.49,3.90,-0.83,-2.46,2.09,
1.732,-0.63,3.49,3.90,-0.57,-1.89,1.98,
1.734,-0.63,3.49,3.90,-0.22,-1.13,1.83,
1.737,-0.27,3.58,3.61,-0.22,-1.13,1.83,
1.737,-0.27,3.58,3.61,0.12,-0.40,1.66,
1.738,-0.27,3.58,3.61,0.41,0.20,1.52,
1.741,-0.27,3.58,3.61,0.65,0.66,1.40,
1.745,-0.27,3.58,3.61,0.84,1.02,1.30,
1.745,-0.27,3.58,3.61,1.00,1.33,1.21,
1.747,-0.08,4.09,1.87,1.00,1.33,1.21,
1.747,-0.08,4.09,1.87,1.14,1.59,1.14,
1.749,-0.08,4.09,1.87,1.25,1.80,1.08,
1.75,-0.08,4.09,1.87,1.34,1.96,1.04,
1.752,-0.08,4.09,1.87,1.41,2.08,1.03,
1.754,-0.08,4.09,1.87,1.45,2.16,1.04,
1.757,-0.72,4.72,-0.10,1.45,2.16,1.04,
1.757,-0.72,4.72,-0.10,1.49,2.20,1.07,
1.758,-0.72,4.72,-0.10,1.52,2.20,1.12,
1.761,-0.72,4.72,-0.10,1.55,2.16,1.17,
1.763,-0.72,4.72,-0.10,1.58,2.09,1.23,
1.765,-0.72,4.72,-0.10,1.61,1.97,1.30,
1.778,-1.48,5.33,-0.92,1.61,1.97,1.30,
1.779,-1.48,5.33,-0.92,1.64,1.83,1.36,
1.78,-1.48,5.33,-0.92,1.67,1.65,1.43,
1.781,-1.48,5.33,-0.92,1.70,1.46,1.48,
1.782,-1.48,5.33,-0.92,1.74,1.27,1.53,
1.782,-1.48,5.33,-0.92,1.77,1.08,1.58,
1.783,-1.70,5.43,0.06,1.77,1.08,1.58,
1.784,-1.70,5.43,0.06,1.81,0.91,1.63,
1.785,-1.70,5.43,0.06,1.85,0.75,1.67,
1.786,-1.70,5.43,0.06,1.88,0.60,1.72,
1.786,-1.70,5.43,0.06,1.91,0.45,1.76,
1.787,-1.70,5.43,0.06,1.93,0.32,1.80,
1.787,-1.76,4.60,1.51,1.93,0.32,1.80,
1.788,-1.76,4.60,1.51,1.96,0.19,1.85,
1.795,-1.76,4.60,1.51,1.96,0.06,1.90,
1.797,-1.76,4.60,1.51,1.95,-0.08,1.94,
1.798,-1.76,4.60,1.51,1.94,-0.23,1.99,
1.804,-1.76,4.60,1.51,1.91,-0.38,2.03,
1.805,-1.83,3.38,2.41,1.91,-0.38,2.03,
1.805,-1.83,3.38,2.41,1.86,-0.54,2.07,
1.805,-1.83,3.38,2.41,1.80,-0.70,2.10,
1.805,-1.83,3.38,2.41,1.73,-0.87,2.13,
1.807,-1.83,3.38,2.41,1.45,-1.39,2.20,
1.83,-1.83,3.38,2.41,1.45,-1.39,2.20,
1.831,-1.83,3.38,2.41,1.45,-1.39,2.20,
1.831,-1.67,1.78,1.93,1.45,-1.39,2.20,
1.831,-1.67,1.78,1.93,1.33,-1.55,2.22,
1.831,-1.67,1.78,1.93,1.14,-1.75,2.24,
1.832,-1.67,1.78,1.93,1.07,-1.80,2.24,
1.832,-1.67,1.78,1.93,0.92,-1.90,2.24,
1.832,-1.86,0.85,1.25,0.92,-1.90,2.24,
1.832,-1.86,0.85,1.25,0.78,-1.95,2.25,
1.833,-1.86,0.85,1.25,0.65,-1.97,2.24,
1.833,-1.86,0.85,1.25,0.52,-1.96,2.24,
1.833,-1.86,0.85,1.25,0.38,-1.92,2.22,
1.834,-1.86,0.85,1.25,0.24,-1.82,2.21,
1.834,-1.73,-0.01,0.89,0.24,-1.82,2.21,
1.834,-1.73,-0.01,0.89,0.11,-1.69,2.19,
1.834,-1.73,-0.01,0.89,-0.01,-1.51,2.19,
1.835,-1.73,-0.01,0.89,-0.15,-1.30,2.18,
1.835,-1.73,-0.01,0.89,-0.28,-1.04,2.19,
1.835,-1.73,-0.01,0.89,-0.42,-0.74,2.20,
1.853,-2.19,-0.87,0.38,-0.42,-0.74,2.20,
1.854,-2.19,-0.87,0.38,-0.55,-0.40,2.21,
1.854,-2.19,-0.87,0.38,-0.68,-0.04,2.23,
1.854,-2.19,-0.87,0.38,-0.82,0.34,2.25,
1.854,-2.19,-0.87,0.38,-0.96,0.71,2.28,
1.855,-2.19,-0.87,0.38,-1.07,1.07,2.33,
1.855,-2.73,-1.68,-0.35,-1.07,1.07,2.33,
1.855,-2.73,-1.68,-0.35,-1.16,1.40,2.39,
1.855,-2.73,-1.68,-0.35,-1.22,1.68,2.47,
1.856,-2.73,-1.68,-0.35,-1.21,1.90,2.57,
1.856,-2.73,-1.68,-0.35,-1.17,2.11,2.68,
1.862,-2.73,-1.68,-0.35,-1.12,2.35,2.78,
1.863,-3.11,-2.18,2.73,-1.12,2.35,2.78,
1.863,-3.11,-2.18,2.73,-1.07,2.63,2.85,
1.865,-3.11,-2.18,2.73,-1.02,2.92,2.91,
1.865,-3.11,-2.18,2.73,-0.96,3.19,2.96,
1.865,-3.11,-2.18,2.73,-0.88,3.42,3.01,
1.866,-3.11,-2.18,2.73,-0.81,3.63,3.06,
1.869,-1.88,-2.57,4.18,-0.81,3.63,3.06,
1.869,-1.88,-2.57,4.18,-0.74,3.81,3.11,
1.87,-1.88,-2.57,4.18,-0.66,3.98,3.15,
1.871,-1.88,-2.57,4.18,-0.56,4.14,3.21,
1.874,-1.88,-2.57,4.18,-0.47,4.29,3.25,
1.887,-1.88,-2.57,4.18,-0.35,4.45,3.28,
1.888,-0.53,-4.40,5.19,-0.35,4.45,3.28,
1.888,-0.53,-4.40,5.19,-0.21,4.65,3.33,
1.889,-0.53,-4.40,5.19,-0.08,4.89,3.39,
1.889,-0.53,-4.40,5.19,0.04,5.11,3.48,
1.889,-0.53,-4.40,5.19,0.14,5.31,3.58,
1.889,-0.53,-4.40,5.19,0.22,5.43,3.63,
1.89,0.05,-11.25,3.96,0.22,5.43,3.63,
1.89,0.05,-11.25,3.96,0.28,5.47,3.68,
1.89,0.05,-11.25,3.96,0.32,5.48,3.74,
1.89,0.05,-11.25,3.96,0.37,5.42,3.82,
1.905,0.05,-11.25,3.96,0.45,5.31,3.92,
1.905,0.05,-11.25,3.96,0.57,5.15,4.02,
1.906,-1.80,-19.12,2.14,0.57,5.15,4.02,
1.906,-1.80,-19.12,2.14,0.71,4.95,4.12,
1.906,-1.80,-19.12,2.14,0.87,4.70,4.22,
1.906,-1.80,-19.12,2.14,1.03,4.37,4.31,
1.907,-1.80,-19.12,2.14,1.21,3.94,4.40,
1.907,-1.80,-19.12,2.14,1.38,3.44,4.49,
1.907,-2.55,-27.93,3.73,1.38,3.44,4.49,
1.908,-2.55,-27.93,3.73,1.56,2.87,4.58,
1.909,-2.55,-27.93,3.73,1.73,2.27,4.65,
1.921,-2.55,-27.93,3.73,1.87,1.65,4.72,
1.921,-2.55,-27.93,3.73,2.00,1.05,4.78,
1.922,-2.55,-27.93,3.73,2.14,0.48,4.80,
1.922,-2.72,-34.35,4.22,2.14,0.48,4.80,
1.922,-2.72,-34.35,4.22,2.26,-0.07,4.78,
1.922,-2.72,-34.35,4.22,2.38,-0.57,4.70,
1.923,-2.72,-34.35,4.22,2.49,-0.98,4.59,
1.923,-2.72,-34.35,4.22,2.59,-1.29,4.45,
1.924,-2.72,-34.35,4.22,2.68,-1.51,4.28,
1.934,0.19,-27.12,3.26,2.68,-1.51,4.28,
1.934,0.19,-27.12,3.26,2.74,-1.64,4.10,
1.935,0.19,-27.12,3.26,2.78,-1.69,3.92,
1.935,0.19,-27.12,3.26,2.82,-1.69,3.75,
1.935,0.19,-27.12,3.26,2.83,-1.64,3.58,
1.937,0.19,-27.12,3.26,2.83,-1.53,3.43,
1.937,1.23,-14.74,0.34,2.83,-1.53,3.43,
1.937,1.23,-14.74,0.34,2.82,-1.39,3.29,
1.943,1.23,-14.74,0.34,2.79,-1.21,3.16,
1.943,1.23,-14.74,0.34,2.76,-1.02,3.03,
1.964,1.23,-14.74,0.34,2.71,-0.81,2.92,
1.965,1.23,-14.74,0.34,2.66,-0.61,2.81,
1.965,0.77,-5.86,-2.23,2.66,-0.61,2.81,
1.965,0.77,-5.86,-2.23,2.60,-0.40,2.71,
1.965,0.77,-5.86,-2.23,2.53,-0.21,2.62,
1.965,0.77,-5.86,-2.23,2.46,-0.01,2.53,
1.965,0.77,-5.86,-2.23,2.38,0.18,2.44,
1.966,0.77,-5.86,-2.23,2.31,0.36,2.35,
1.966,0.90,-0.75,-4.11,2.31,0.36,2.35,
1.966,0.90,-0.75,-4.11,2.23,0.52,2.27,
1.966,0.90,-0.75,-4.11,2.16,0.67,2.20,
1.966,0.90,-0.75,-4.11,2.08,0.80,2.13,
1.966,0.90,-0.75,-4.11,2.02,0.91,2.05,
1.966,0.90,-0.75,-4.11,1.97,1.01,1.98,
1.967,1.25,2.05,-4.32,1.97,1.01,1.98,
1.967,1.25,2.05,-4.32,1.94,1.11,1.91,
1.969,1.25,2.05,-4.32,1.92,1.20,1.84,
1.984,1.25,2.05,-4.32,1.91,1.27,1.78,
1.984,1.25,2.05,-4.32,1.91,1.33,1.73,
1.984,1.25,2.05,-4.32,1.92,1.37,1.68,
1.984,1.05,3.56,-2.71,1.92,1.37,1.68,
1.985,1.05,3.56,-2.71,1.95,1.40,1.63,
1.985,1.05,3.56,-2.71,1.98,1.41,1.59,
1.985,1.05,3.56,-2.71,2.02,1.41,1.55,
1.985,1.05,3.56,-2.71,2.06,1.39,1.51,
1.985,1.05,3.56,-2.71,2.11,1.35,1.48,
1.989,0.68,4.02,-1.23,2.11,1.35,1.48,
1.989,0.68,4.02,-1.23,2.14,1.32,1.44,
1.989,0.68,4.02,-1.23,2.17,1.29,1.41,
1.992,0.68,4.02,-1.23,2.21,1.26,1.37,
1.994,0.68,4.02,-1.23,2.22,1.26,1.36,
1.994,0.68,4.02,-1.23,2.23,1.24,1.34,
1.997,-0.12,3.66,-1.11,2.23,1.24,1.34,
1.997,-0.12,3.66,-1.11,2.23,1.24,1.33,
1.998,-0.12,3.66,-1.11,2.21,1.24,1.32,
2.0,-0.12,3.66,-1.11,2.18,1.22,1.32,
2.002,-0.12,3.66,-1.11,2.13,1.20,1.32,
2.004,-0.12,3.66,-1.11,2.08,1.17,1.32,
2.006,-0.58,2.39,-1.61,2.08,1.17,1.32,
2.006,-0.58,2.39,-1.61,2.01,1.13,1.33,
2.008,-0.58,2.39,-1.61,1.94,1.09,1.34,
2.011,-0.58,2.39,-1.61,1.86,1.03,1.35,
2.012,-0.58,2.39,-1.61,1.78,0.97,1.35,
2.014,-0.58,2.39,-1.61,1.70,0.90,1.36,
2.016,-0.27,0.74,-1.53,1.70,0.90,1.36,
2.016,-0.27,0.74,-1.53,1.62,0.82,1.37,
2.018,-0.27,0.74,-1.53,1.55,0.75,1.38,
2.02,-0.27,0.74,-1.53,1.48,0.67,1.38,
2.022,-0.27,0.74,-1.53,1.42,0.59,1.38,
2.024,-0.27,0.74,-1.53,1.37,0.52,1.38,
2.027,0.31,-0.31,-0.58,1.37,0.52,1.38,
2.027,0.31,-0.31,-0.58,1.32,0.45,1.38,
2.028,0.31,-0.31,-0.58,1.28,0.38,1.38,
2.03,0.31,-0.31,-0.58,1.25,0.31,1.37,
2.032,0.31,-0.31,-0.58,1.23,0.24,1.36,
2.034,0.31,-0.31,-0.58,1.20,0.19,1.35,
2.036,0.98,-1.12,-0.22,1.20,0.19,1.35,
2.036,0.98,-1.12,-0.22,1.18,0.13,1.34,
2.038,0.98,-1.12,-0.22,1.17,0.08,1.33,
2.04,0.98,-1.12,-0.22,1.15,0.03,1.32,
2.048,0.98,-1.12,-0.22,1.14,-0.01,1.31,
2.048,0.98,-1.12,-0.22,1.13,-0.05,1.30,
2.048,1.36,-1.47,-0.59,1.13,-0.05,1.30,
2.048,1.36,-1.47,-0.59,1.12,-0.08,1.29,
2.049,1.36,-1.47,-0.59,1.11,-0.10,1.28,
2.053,1.36,-1.47,-0.59,1.10,-0.12,1.28,
2.053,1.36,-1.47,-0.59,1.10,-0.13,1.28,
2.054,1.36,-1.47,-0.59,1.09,-0.13,1.28,
2.057,1.23,-1.38,-1.24,1.09,-0.13,1.28,
2.057,1.23,-1.38,-1.24,1.09,-0.11,1.28,
2.069,1.23,-1.38,-1.24,1.09,-0.09,1.28,
2.069,1.23,-1.38,-1.24,1.08,-0.06,1.28,
2.069,1.23,-1.38,-1.24,1.08,-0.03,1.28,
2.069,1.23,-1.38,-1.24,1.08,0.02,1.27,
2.069,1.29,-1.06,-1.55,1.08,0.02,1.27,
2.07,1.29,-1.06,-1.55,1.08,0.07,1.27,
2.07,1.29,-1.06,-1.55,1.08,0.13,1.26,
2.07,1.29,-1.06,-1.55,1.08,0.19,1.26,
2.072,1.29,-1.06,-1.55,1.08,0.26,1.25,
2.074,1.29,-1.06,-1.55,1.08,0.33,1.25,
2.078,1.55,-0.56,-1.49,1.08,0.33,1.25,
2.079,1.55,-0.56,-1.49,1.07,0.40,1.25,
2.079,1.55,-0.56,-1.49,1.06,0.46,1.25,
2.08,1.55,-0.56,-1.49,1.05,0.51,1.24,
2.082,1.55,-0.56,-1.49,1.04,0.56,1.24,
2.084,1.55,-0.56,-1.49,1.03,0.59,1.24,
2.087,1.69,0.10,-1.36,1.03,0.59,1.24,
2.087,1.69,0.10,-1.36,1.02,0.62,1.24,
2.088,1.69,0.10,-1.36,1.00,0.63,1.23,
2.09,1.69,0.10,-1.36,0.98,0.62,1.22,
2.092,1.69,0.10,-1.36,0.97,0.61,1.21,
2.094,1.69,0.10,-1.36,0.95,0.59,1.20,
2.096,1.95,0.62,-1.57,0.95,0.59,1.20,
2.097,1.95,0.62,-1.57,0.93,0.56,1.19,
2.098,1.95,0.62,-1.57,0.91,0.52,1.18,
2.1,1.95,0.62,-1.57,0.89,0.48,1.17,
2.102,1.95,0.62,-1.57,0.87,0.45,1.16,
2.104,1.95,0.62,-1.57,0.85,0.41,1.15,
2.106,1.88,0.90,-1.85,0.85,0.41,1.15,
2.107,1.88,0.90,-1.85,0.83,0.38,1.14,
2.108,1.88,0.90,-1.85,0.81,0.35,1.13,
2.111,1.88,0.90,-1.85,0.78,0.33,1.12,
2.112,1.88,0.90,-1.85,0.76,0.31,1.10,
2.114,1.88,0.90,-1.85,0.73,0.30,1.09,
2.116,1.72,1.15,-1.96,0.73,0.30,1.09,
2.117,1.72,1.15,-1.96,0.71,0.30,1.08,
2.118,1.72,1.15,-1.96,0.69,0.29,1.07,
2.12,1.72,1.15,-1.96,0.66,0.30,1.07,
2.122,1.72,1.15,-1.96,0.64,0.30,1.07,
2.125,1.72,1.15,-1.96,0.62,0.31,1.07,
2.127,1.29,1.54,-1.81,0.62,0.31,1.07,
2.127,1.29,1.54,-1.81,0.60,0.31,1.07,
2.128,1.29,1.54,-1.81,0.58,0.32,1.08,
2.13,1.29,1.54,-1.81,0.57,0.32,1.08,
2.132,1.29,1.54,-1.81,0.55,0.32,1.09,
2.134,1.29,1.54,-1.81,0.53,0.33,1.09,
2.136,1.10,1.77,-1.52,0.53,0.33,1.09,
2.159,1.10,1.77,-1.52,0.51,0.32,1.10,
2.161,1.10,1.77,-1.52,0.50,0.31,1.10,
2.161,1.10,1.77,-1.52,0.48,0.29,1.11,
2.161,1.10,1.77,-1.52,0.46,0.27,1.12,
2.162,1.10,1.77,-1.52,0.45,0.24,1.12,
2.162,0.99,1.82,-1.27,0.45,0.24,1.12,
2.163,0.99,1.82,-1.27,0.43,0.21,1.13,
2.163,0.99,1.82,-1.27,0.41,0.18,1.14,
2.163,0.99,1.82,-1.27,0.40,0.14,1.14,
2.164,0.99,1.82,-1.27,0.38,0.11,1.15,
2.164,0.99,1.82,-1.27,0.37,0.07,1.15,
2.165,1.04,1.82,-1.19,0.37,0.07,1.15,
2.165,1.04,1.82,-1.19,0.35,0.03,1.15,
2.166,1.04,1.82,-1.19,0.34,-0.02,1.14,
2.166,1.04,1.82,-1.19,0.32,-0.06,1.14,
2.166,1.04,1.82,-1.19,0.32,-0.11,1.14,
2.167,1.04,1.82,-1.19,0.31,-0.15,1.14,
2.167,1.25,1.79,-1.08,0.31,-0.15,1.14,
2.168,1.25,1.79,-1.08,0.29,-0.19,1.13,
2.168,1.25,1.79,-1.08,0.28,-0.23,1.11,
2.178,1.25,1.79,-1.08,0.27,-0.27,1.10,
2.179,1.25,1.79,-1.08,0.26,-0.31,1.08,
2.179,1.25,1.79,-1.08,0.25,-0.34,1.07,
2.179,1.38,1.89,-1.01,0.25,-0.34,1.07,
2.18,1.38,1.89,-1.01,0.24,-0.37,1.05,
2.18,1.38,1.89,-1.01,0.22,-0.41,1.03,
2.181,1.38,1.89,-1.01,0.21,-0.44,1.01,
2.182,1.38,1.89,-1.01,0.19,-0.47,1.00,
2.186,1.38,1.89,-1.01,0.17,-0.51,0.98,
2.187,1.34,2.12,-1.00,0.17,-0.51,0.98,
2.187,1.34,2.12,-1.00,0.15,-0.54,0.97,
2.188,1.34,2.12,-1.00,0.13,-0.57,0.96,
2.192,1.34,2.12,-1.00,0.11,-0.62,0.95,
2.193,1.34,2.12,-1.00,0.10,-0.68,0.94,
2.197,1.34,2.12,-1.00,0.08,-0.72,0.94,
2.198,1.15,2.44,-0.83,0.08,-0.72,0.94,
2.198,1.15,2.44,-0.83,0.05,-0.77,0.93,
2.199,1.15,2.44,-0.83,0.03,-0.81,0.92,
2.201,1.15,2.44,-0.83,0.02,-0.84,0.91,
2.202,1.15,2.44,-0.83,-0.01,-0.86,0.89,
2.204,1.15,2.44,-0.83,-0.04,-0.87,0.86,
2.206,1.44,2.54,-0.87,-0.04,-0.87,0.86,
2.207,1.44,2.54,-0.87,-0.07,-0.87,0.84,
2.23,1.44,2.54,-0.87,-0.10,-0.86,0.81,
2.231,1.44,2.54,-0.87,-0.14,-0.85,0.79,
2.231,1.44,2.54,-0.87,-0.18,-0.85,0.77,
2.232,1.44,2.54,-0.87,-0.22,-0.85,0.75,
2.232,1.75,2.78,-0.96,-0.22,-0.85,0.75,
2.233,1.75,2.78,-0.96,-0.26,-0.85,0.74,
2.233,1.75,2.78,-0.96,-0.30,-0.86,0.73,
2.233,1.75,2.78,-0.96,-0.33,-0.86,0.73,
2.234,1.75,2.78,-0.96,-0.37,-0.87,0.74,
2.234,1.75,2.78,-0.96,-0.40,-0.88,0.74,
2.234,1.76,2.65,-0.80,-0.40,-0.88,0.74,
2.235,1.76,2.65,-0.80,-0.43,-0.89,0.74,
2.235,1.76,2.65,-0.80,-0.45,-0.90,0.73,
2.235,1.76,2.65,-0.80,-0.47,-0.91,0.73,
2.236,1.76,2.65,-0.80,-0.49,-0.91,0.72,
2.236,1.76,2.65,-0.80,-0.51,-0.92,0.71,
2.236,2.17,2.53,-0.38,-0.51,-0.92,0.71,
2.237,2.17,2.53,-0.38,-0.51,-0.93,0.69,
2.268,2.17,2.53,-0.38,-0.51,-0.94,0.68,
2.269,2.17,2.53,-0.38,-0.50,-0.96,0.66,
2.269,2.17,2.53,-0.38,-0.48,-0.98,0.63,
2.269,2.17,2.53,-0.38,-0.46,-1.01,0.61,
2.269,1.87,2.64,0.88,-0.46,-1.01,0.61,
2.27,1.87,2.64,0.88,-0.43,-1.05,0.58,
2.27,1.87,2.64,0.88,-0.39,-1.09,0.56,
2.27,1.87,2.64,0.88,-0.35,-1.13,0.55,
2.27,1.87,2.64,0.88,-0.30,-1.18,0.55,
2.271,1.87,2.64,0.88,-0.23,-1.23,0.55,
2.271,0.14,3.16,3.14,-0.23,-1.23,0.55,
2.271,0.14,3.16,3.14,-0.16,-1.28,0.56,
2.271,0.14,3.16,3.14,-0.08,-1.32,0.58,
2.271,0.14,3.16,3.14,0.01,-1.36,0.60,
2.272,0.14,3.16,3.14,0.11,-1.40,0.64,
2.272,0.14,3.16,3.14,0.21,-1.41,0.68,
2.272,-2.47,2.42,5.51,0.21,-1.41,0.68,
2.272,-2.47,2.42,5.51,0.31,-1.43,0.72,
2.273,-2.47,2.42,5.51,0.42,-1.43,0.77,
2.273,-2.47,2.42,5.51,0.52,-1.42,0.83,
2.273,-2.47,2.42,5.51,0.60,-1.41,0.88,
2.276,-2.47,2.42,5.51,0.67,-1.38,0.93,
2.277,-4.56,0.93,6.31,0.67,-1.38,0.93,
2.278,-4.56,0.93,6.31,0.71,-1.34,0.96,
2.278,-4.56,0.93,6.31,0.72,-1.29,0.99,
2.28,-4.56,0.93,6.31,0.69,-1.20,0.99,
2.284,-4.56,0.93,6.31,0.64,-1.08,0.98,
2.285,-4.56,0.93,6.31,0.56,-0.92,0.95,
2.286,-4.13,-0.47,2.71,0.56,-0.92,0.95,
2.287,-4.13,-0.47,2.71,0.46,-0.73,0.91,
2.288,-4.13,-0.47,2.71,0.34,-0.51,0.86,
2.31,-4.13,-0.47,2.71,0.21,-0.25,0.79,
2.311,-4.13,-0.47,2.71,0.06,0.03,0.73,
2.311,-4.13,-0.47,2.71,-0.09,0.33,0.65,
2.311,-2.44,-1.36,-2.58,-0.09,0.33,0.65,
2.311,-2.44,-1.36,-2.58,-0.24,0.62,0.56,
2.312,-2.44,-1.36,-2.58,-0.39,0.89,0.47,
2.312,-2.44,-1.36,-2.58,-0.53,1.13,0.38,
2.312,-2.44,-1.36,-2.58,-0.65,1.32,0.29,
2.33,-2.44,-1.36,-2.58,-0.75,1.45,0.20,
2.33,-0.84,-1.45,-5.83,-0.75,1.45,0.20,
2.331,-0.84,-1.45,-5.83,-0.84,1.50,0.12,
2.331,-0.84,-1.45,-5.83,-0.90,1.47,0.04,
2.331,-0.84,-1.45,-5.83,-0.92,1.36,-0.04,
2.331,-0.84,-1.45,-5.83,-0.92,1.17,-0.12,
2.332,-0.84,-1.45,-5.83,-0.88,0.91,-0.19,
2.332,-0.21,-1.04,-3.15,-0.88,0.91,-0.19,
2.332,-0.21,-1.04,-3.15,-0.81,0.61,-0.27,
2.332,-0.21,-1.04,-3.15,-0.72,0.29,-0.35,
2.332,-0.21,-1.04,-3.15,-0.61,-0.02,-0.44,
2.333,-0.21,-1.04,-3.15,-0.50,-0.31,-0.54,
2.333,-0.21,-1.04,-3.15,-0.40,-0.54,-0.64,
2.333,-0.12,-0.71,3.38,-0.40,-0.54,-0.64,
2.333,-0.12,-0.71,3.38,-0.32,-0.69,-0.74,
2.333,-0.12,-0.71,3.38,-0.28,-0.77,-0.85,
2.334,-0.12,-0.71,3.38,-0.26,-0.80,-0.94,
2.334,-0.12,-0.71,3.38,-0.30,-0.76,-1.03,
2.334,-0.12,-0.71,3.38,-0.38,-0.70,-1.10,
2.341,-1.69,-1.76,3.66,-0.38,-0.70,-1.10,
2.341,-1.69,-1.76,3.66,-0.50,-0.60,-1.15,
2.341,-1.69,-1.76,3.66,-0.66,-0.50,-1.19,
2.357,-1.69,-1.76,3.66,-0.96,-0.40,-1.22,
2.358,-1.69,-1.76,3.66,-1.07,-0.38,-1.23,
2.358,-1.69,-1.76,3.66,-1.30,-0.38,-1.22,
2.358,-1.11,-3.97,-2.45,-1.30,-0.38,-1.22,
2.359,-1.11,-3.97,-2.45,-1.54,-0.42,-1.20,
2.359,-1.11,-3.97,-2.45,-1.75,-0.49,-1.18,
2.359,-1.11,-3.97,-2.45,-1.93,-0.59,-1.14,
2.359,-1.11,-3.97,-2.45,-2.09,-0.71,-1.10,
2.359,-1.11,-3.97,-2.45,-2.21,-0.84,-1.05,
2.36,1.59,-5.25,-5.28,-2.21,-0.84,-1.05,
2.36,1.59,-5.25,-5.28,-2.30,-0.99,-1.01,
2.36,1.59,-5.25,-5.28,-2.35,-1.13,-0.96,
2.36,1.59,-5.25,-5.28,-2.38,-1.27,-0.92,
2.383,1.59,-5.25,-5.28,-2.38,-1.41,-0.88,
2.384,1.59,-5.25,-5.28,-2.37,-1.53,-0.85,
2.384,3.01,-4.22,-3.72,-2.37,-1.53,-0.85,
2.385,3.01,-4.22,-3.72,-2.35,-1.64,-0.82,
2.385,3.01,-4.22,-3.72,-2.32,-1.72,-0.79,
2.385,3.01,-4.22,-3.72,-2.30,-1.78,-0.76,
2.385,3.01,-4.22,-3.72,-2.28,-1.82,-0.73,
2.385,3.01,-4.22,-3.72,-2.26,-1.83,-0.70,
2.385,2.98,-3.07,-4.06,-2.26,-1.83,-0.70,
2.386,2.98,-3.07,-4.06,-2.24,-1.82,-0.68,
2.386,2.98,-3.07,-4.06,-2.22,-1.80,-0.66,
2.386,2.98,-3.07,-4.06,-2.20,-1.77,-0.64,
2.386,2.98,-3.07,-4.06,-2.17,-1.73,-0.62,
2.386,2.98,-3.07,-4.06,-2.12,-1.68,-0.60,
2.387,2.53,-2.40,-4.00,-2.12,-1.68,-0.60,
2.387,2.53,-2.40,-4.00,-2.07,-1.63,-0.58,
2.391,2.53,-2.40,-4.00,-2.02,-1.58,-0.57,
2.392,2.53,-2.40,-4.00,-1.96,-1.53,-0.56,
2.393,2.53,-2.40,-4.00,-1.90,-1.49,-0.54,
2.396,2.53,-2.40,-4.00,-1.83,-1.45,-0.53,
2.397,1.97,-2.54,-2.21,-1.83,-1.45,-0.53,
2.397,1.97,-2.54,-2.21,-1.78,-1.41,-0.52,
2.398,1.97,-2.54,-2.21,-1.73,-1.39,-0.51,
2.4,1.97,-2.54,-2.21,-1.68,-1.37,-0.50,
2.403,1.97,-2.54,-2.21,-1.65,-1.36,-0.49,
2.404,1.97,-2.54,-2.21,-1.62,-1.36,-0.48,
2.408,1.30,-2.65,-1.56,-1.62,-1.36,-0.48,
2.408,1.30,-2.65,-1.56,-1.61,-1.36,-0.47,
2.409,1.30,-2.65,-1.56,-1.60,-1.38,-0.47,
2.411,1.30,-2.65,-1.56,-1.60,-1.40,-0.46,
2.412,1.30,-2.65,-1.56,-1.60,-1.42,-0.46,
2.414,1.30,-2.65,-1.56,-1.61,-1.44,-0.45,
2.417,0.79,-2.83,-1.61,-1.61,-1.44,-0.45,
2.417,0.79,-2.83,-1.61,-1.63,-1.46,-0.44,
2.418,0.79,-2.83,-1.61,-1.64,-1.48,-0.43,
2.421,0.79,-2.83,-1.61,-1.65,-1.49,-0.42,
2.423,0.79,-2.83,-1.61,-1.68,-1.51,-0.40,
2.425,0.79,-2.83,-1.61,-1.70,-1.52,-0.38,
2.427,0.16,-3.09,-1.31,-1.70,-1.52,-0.38,
2.428,0.16,-3.09,-1.31,-1.72,-1.53,-0.36,
2.429,0.16,-3.09,-1.31,-1.75,-1.54,-0.33,
2.43,0.16,-3.09,-1.31,-1.79,-1.55,-0.30,
2.435,0.16,-3.09,-1.31,-1.82,-1.57,-0.27,
2.435,0.16,-3.09,-1.31,-1.86,-1.59,-0.24,
2.437,-0.16,-3.60,-1.57,-1.86,-1.59,-0.24,
2.437,-0.16,-3.60,-1.57,-1.91,-1.62,-0.22,
2.438,-0.16,-3.60,-1.57,-1.95,-1.66,-0.19,
2.448,-0.16,-3.60,-1.57,-2.00,-1.70,-0.16,
2.449,-0.16,-3.60,-1.57,-2.04,-1.74,-0.14,
2.449,-0.16,-3.60,-1.57,-2.07,-1.79,-0.12,
2.45,0.20,-3.84,-1.92,-2.07,-1.79,-0.12,
2.45,0.20,-3.84,-1.92,-2.11,-1.84,-0.11,
2.451,0.20,-3.84,-1.92,-2.14,-1.89,-0.10,
2.451,0.20,-3.84,-1.92,-2.17,-1.94,-0.11,
2.453,0.20,-3.84,-1.92,-2.19,-1.98,-0.11,
2.455,0.20,-3.84,-1.92,-2.21,-2.02,-0.12,
2.488,1.18,-3.82,-1.73,-2.21,-2.02,-0.12,
2.488,1.18,-3.82,-1.73,-2.23,-2.05,-0.14,
2.489,1.18,-3.82,-1.73,-2.23,-2.08,-0.16,
2.489,1.18,-3.82,-1.73,-2.24,-2.11,-0.18,
2.489,1.18,-3.82,-1.73,-2.24,-2.13,-0.21,
2.489,1.18,-3.82,-1.73,-2.24,-2.15,-0.24,
2.489,1.85,-3.44,-1.08,-2.24,-2.15,-0.24,
2.49,1.85,-3.44,-1.08,-2.24,-2.16,-0.27,
2.49,1.85,-3.44,-1.08,-2.23,-2.17,-0.30,
2.52,1.85,-3.44,-1.08,-2.22,-2.18,-0.34,
2.52,1.85,-3.44,-1.08,-2.21,-2.18,-0.38,
2.521,1.85,-3.44,-1.08,-2.20,-2.19,-0.42,
2.521,2.40,-3.01,-0.53,-2.20,-2.19,-0.42,
2.521,2.40,-3.01,-0.53,-2.19,-2.19,-0.46,
2.521,2.40,-3.01,-0.53,-2.17,-2.20,-0.51,
2.522,2.40,-3.01,-0.53,-2.16,-2.20,-0.55,
2.522,2.40,-3.01,-0.53,-2.14,-2.21,-0.59,
2.522,2.40,-3.01,-0.53,-2.13,-2.21,-0.63,
2.522,2.47,-2.40,-0.15,-2.13,-2.21,-0.63,
2.523,2.47,-2.40,-0.15,-2.12,-2.21,-0.67,
2.523,2.47,-2.40,-0.15,-2.11,-2.21,-0.71,
2.523,2.47,-2.40,-0.15,-2.10,-2.21,-0.73,
2.523,2.47,-2.40,-0.15,-2.09,-2.21,-0.76,
2.524,2.47,-2.40,-0.15,-2.08,-2.21,-0.78,
2.524,2.39,-1.85,0.03,-2.08,-2.21,-0.78,
2.524,2.39,-1.85,0.03,-2.08,-2.20,-0.80,
2.525,2.39,-1.85,0.03,-2.08,-2.20,-0.81,
2.525,2.39,-1.85,0.03,-2.07,-2.19,-0.82,
2.525,2.39,-1.85,0.03,-2.07,-2.18,-0.82,
2.525,2.39,-1.85,0.03,-2.07,-2.18,-0.82,
2.526,2.13,-1.22,0.09,-2.07,-2.18,-0.82,
2.526,2.13,-1.22,0.09,-2.07,-2.17,-0.82,
2.526,2.13,-1.22,0.09,-2.07,-2.17,-0.82,
2.526,2.13,-1.22,0.09,-2.07,-2.16,-0.81,
2.527,2.13,-1.22,0.09,-2.07,-2.15,-0.81,
2.527,2.13,-1.22,0.09,-2.08,-2.15,-0.81,
2.527,2.30,-0.78,-0.07,-2.08,-2.15,-0.81,
2.527,2.30,-0.78,-0.07,-2.08,-2.14,-0.80,
2.528,2.30,-0.78,-0.07,-2.09,-2.13,-0.80,
2.528,2.30,-0.78,-0.07,-2.09,-2.12,-0.80,
2.528,2.30,-0.78,-0.07,-2.10,-2.12,-0.81,
2.528,2.30,-0.78,-0.07,-2.10,-2.10,-0.81,
2.529,2.66,-0.56,-0.29,-2.10,-2.10,-0.81,
2.529,2.66,-0.56,-0.29,-2.10,-2.09,-0.82,
2.529,2.66,-0.56,-0.29,-2.11,-2.08,-0.83,
2.537,2.66,-0.56,-0.29,-2.12,-2.07,-0.84,
2.537,2.66,-0.56,-0.29,-2.12,-2.06,-0.86,
2.538,2.66,-0.56,-0.29,-2.13,-2.05,-0.88,
2.538,3.14,-0.51,-0.55,-2.13,-2.05,-0.88,
2.538,3.14,-0.51,-0.55,-2.13,-2.05,-0.90,
2.538,3.14,-0.51,-0.55,-2.14,-2.04,-0.91,
2.548,3.14,-0.51,-0.55,-2.14,-2.03,-0.93,
2.548,3.14,-0.51,-0.55,-2.15,-2.03,-0.95,
2.548,3.14,-0.51,-0.55,-2.15,-2.03,-0.97,
2.548,3.21,-0.43,-0.70,-2.15,-2.03,-0.97,
2.549,3.21,-0.43,-0.70,-2.15,-2.03,-0.99,
2.549,3.21,-0.43,-0.70,-2.15,-2.03,-1.01,
2.55,3.21,-0.43,-0.70,-2.15,-2.04,-1.03,
2.56,3.21,-0.43,-0.70,-2.15,-2.05,-1.05,
2.56,3.21,-0.43,-0.70,-2.15,-2.07,-1.06,
2.561,2.94,-0.42,-0.58,-2.15,-2.07,-1.06,
2.561,2.94,-0.42,-0.58,-2.15,-2.08,-1.07,
2.561,2.94,-0.42,-0.58,-2.14,-2.10,-1.07,
2.561,2.94,-0.42,-0.58,-2.14,-2.11,-1.08,
2.563,2.94,-0.42,-0.58,-2.13,-2.12,-1.09,
2.564,2.94,-0.42,-0.58,-2.13,-2.13,-1.09,
2.567,2.28,-0.39,-0.36,-2.13,-2.13,-1.09,
2.567,2.28,-0.39,-0.36,-2.12,-2.14,-1.09,
2.568,2.28,-0.39,-0.36,-2.10,-2.14,-1.09,
2.57,2.28,-0.39,-0.36,-2.09,-2.14,-1.09,
2.572,2.28,-0.39,-0.36,-2.08,-2.13,-1.09,
2.58,2.28,-0.39,-0.36,-2.06,-2.13,-1.08,
2.581,1.50,-0.43,-0.13,-2.06,-2.13,-1.08,
2.581,1.50,-0.43,-0.13,-2.05,-2.12,-1.07,
2.581,1.50,-0.43,-0.13,-2.04,-2.11,-1.06,
2.581,1.50,-0.43,-0.13,-2.02,-2.10,-1.04,
2.582,1.50,-0.43,-0.13,-2.02,-2.09,-1.02,
2.585,1.50,-0.43,-0.13,-2.00,-2.08,-0.99,
2.587,0.50,-0.34,-0.21,-2.00,-2.08,-0.99,
2.588,0.50,-0.34,-0.21,-2.00,-2.07,-0.97,
2.588,0.50,-0.34,-0.21,-1.99,-2.06,-0.94,
2.601,0.50,-0.34,-0.21,-1.99,-2.05,-0.91,
2.601,0.50,-0.34,-0.21,-1.99,-2.04,-0.88,
2.602,0.50,-0.34,-0.21,-1.99,-2.04,-0.85,
2.602,-0.40,-0.18,-0.49,-1.99,-2.04,-0.85,
2.602,-0.40,-0.18,-0.49,-2.00,-2.03,-0.81,
2.602,-0.40,-0.18,-0.49,-2.01,-2.02,-0.76,
2.602,-0.40,-0.18,-0.49,-2.01,-2.02,-0.72,
2.602,-0.40,-0.18,-0.49,-2.01,-2.00,-0.67,
2.604,-0.40,-0.18,-0.49,-2.02,-1.98,-0.62,
2.606,-1.27,0.07,-0.62,-2.02,-1.98,-0.62,
2.607,-1.27,0.07,-0.62,-2.03,-1.96,-0.58,
2.608,-1.27,0.07,-0.62,-2.03,-1.93,-0.53,
2.61,-1.27,0.07,-0.62,-2.04,-1.90,-0.48,
2.612,-1.27,0.07,-0.62,-2.04,-1.87,-0.43,
2.614,-1.27,0.07,-0.62,-2.03,-1.83,-0.38,
2.617,-1.80,0.39,-0.38,-2.03,-1.83,-0.38,
2.617,-1.80,0.39,-0.38,-2.02,-1.79,-0.34,
2.618,-1.80,0.39,-0.38,-2.01,-1.75,-0.29,
2.62,-1.80,0.39,-0.38,-1.99,-1.70,-0.25,
2.623,-1.80,0.39,-0.38,-1.97,-1.66,-0.21,
2.625,-1.80,0.39,-0.38,-1.95,-1.61,-0.18,
2.626,-1.93,0.65,0.28,-1.95,-1.61,-0.18,
2.627,-1.93,0.65,0.28,-1.92,-1.56,-0.14,
2.628,-1.93,0.65,0.28,-1.90,-1.51,-0.11,
2.63,-1.93,0.65,0.28,-1.88,-1.46,-0.09,
2.632,-1.93,0.65,0.28,-1.85,-1.41,-0.06,
2.634,-1.93,0.65,0.28,-1.83,-1.35,-0.04,
2.636,-1.91,0.82,0.71,-1.83,-1.35,-0.04,
2.647,-1.91,0.82,0.71,-1.81,-1.28,-0.02,
2.647,-1.91,0.82,0.71,-1.79,-1.22,0.00,
2.647,-1.91,0.82,0.71,-1.77,-1.15,0.02,
2.647,-1.91,0.82,0.71,-1.75,-1.09,0.03,
2.647,-1.91,0.82,0.71,-1.74,-1.02,0.05,
2.647,-1.85,0.81,0.78,-1.74,-1.02,0.05,
2.648,-1.85,0.81,0.78,-1.73,-0.96,0.06,
2.648,-1.85,0.81,0.78,-1.71,-0.90,0.07,
2.65,-1.85,0.81,0.78,-1.70,-0.83,0.07,
2.652,-1.85,0.81,0.78,-1.70,-0.78,0.08,
2.654,-1.85,0.81,0.78,-1.69,-0.72,0.07,
2.656,-1.84,0.85,0.80,-1.69,-0.72,0.07,
2.657,-1.84,0.85,0.80,-1.68,-0.67,0.07,
2.658,-1.84,0.85,0.80,-1.68,-0.62,0.07,
2.66,-1.84,0.85,0.80,-1.67,-0.57,0.06,
2.662,-1.84,0.85,0.80,-1.67,-0.54,0.05,
2.664,-1.84,0.85,0.80,-1.66,-0.51,0.04,
2.666,-1.66,0.84,0.88,-1.66,-0.51,0.04,
2.666,-1.66,0.84,0.88,-1.66,-0.48,0.04,
2.668,-1.66,0.84,0.88,-1.66,-0.46,0.03,
2.67,-1.66,0.84,0.88,-1.65,-0.44,0.02,
2.672,-1.66,0.84,0.88,-1.65,-0.43,0.01,
2.674,-1.66,0.84,0.88,-1.64,-0.42,0.00,
2.677,-1.53,0.81,1.15,-1.64,-0.42,0.00,
2.677,-1.53,0.81,1.15,-1.64,-0.42,-0.01,
2.678,-1.53,0.81,1.15,-1.63,-0.42,-0.01,
2.68,-1.53,0.81,1.15,-1.63,-0.43,-0.02,
2.682,-1.53,0.81,1.15,-1.62,-0.44,-0.03,
2.684,-1.53,0.81,1.15,-1.61,-0.45,-0.03,
2.686,-1.24,0.70,1.48,-1.61,-0.45,-0.03,
2.687,-1.24,0.70,1.48,-1.61,-0.47,-0.04,
2.688,-1.24,0.70,1.48,-1.59,-0.49,-0.04,
2.692,-1.24,0.70,1.48,-1.57,-0.53,-0.06,
2.693,-1.24,0.70,1.48,-1.57,-0.55,-0.06,
2.694,-1.24,0.70,1.48,-1.56,-0.55,-0.07,
2.696,-0.67,0.66,1.96,-1.56,-0.55,-0.07,
2.697,-0.67,0.66,1.96,-1.55,-0.57,-0.08,
2.698,-0.67,0.66,1.96,-1.53,-0.58,-0.09,
2.7,-0.67,0.66,1.96,-1.52,-0.60,-0.09,
2.702,-0.67,0.66,1.96,-1.50,-0.62,-0.10,
2.704,-0.67,0.66,1.96,-1.49,-0.64,-0.11,
2.711,-0.31,0.62,2.38,-1.49,-0.64,-0.11,
2.712,-0.31,0.62,2.38,-1.47,-0.67,-0.11,
2.713,-0.31,0.62,2.38,-1.45,-0.69,-0.11,
2.713,-0.31,0.62,2.38,-1.43,-0.72,-0.11,
2.713,-0.31,0.62,2.38,-1.42,-0.75,-0.11,
2.714,-0.31,0.62,2.38,-1.40,-0.79,-0.11,
2.717,-0.09,0.65,2.80,-1.40,-0.79,-0.11,
2.717,-0.09,0.65,2.80,-1.38,-0.83,-0.12,
2.718,-0.09,0.65,2.80,-1.37,-0.88,-0.12,
2.72,-0.09,0.65,2.80,-1.35,-0.93,-0.13,
2.745,-0.09,0.65,2.80,-1.35,-1.00,-0.14,
2.745,-0.09,0.65,2.80,-1.34,-1.07,-0.15,
2.745,0.40,0.65,2.69,-1.34,-1.07,-0.15,
2.746,0.40,0.65,2.69,-1.34,-1.16,-0.15,
2.746,0.40,0.65,2.69,-1.35,-1.25,-0.16,
2.746,0.40,0.65,2.69,-1.36,-1.34,-0.17,
2.747,0.40,0.65,2.69,-1.36,-1.44,-0.18,
2.747,0.40,0.65,2.69,-1.37,-1.54,-0.19,
2.747,0.72,0.56,2.40,-1.37,-1.54,-0.19,
2.747,0.72,0.56,2.40,-1.39,-1.64,-0.20,
2.748,0.72,0.56,2.40,-1.40,-1.74,-0.21,
2.748,0.72,0.56,2.40,-1.41,-1.84,-0.22,
2.748,0.72,0.56,2.40,-1.42,-1.93,-0.22,
2.749,0.72,0.56,2.40,-1.43,-2.01,-0.23,
2.749,0.76,0.44,2.26,-1.43,-2.01,-0.23,
2.749,0.76,0.44,2.26,-1.44,-2.09,-0.23,
2.749,0.76,0.44,2.26,-1.45,-2.16,-0.24,
2.75,0.76,0.44,2.26,-1.45,-2.23,-0.25,
2.753,0.76,0.44,2.26,-1.46,-2.28,-0.25,
2.754,0.76,0.44,2.26,-1.46,-2.34,-0.26,
2.757,0.95,0.23,2.46,-1.46,-2.34,-0.26,
2.758,0.95,0.23,2.46,-1.46,-2.38,-0.27,
2.758,0.95,0.23,2.46,-1.47,-2.43,-0.27,
2.761,0.95,0.23,2.46,-1.47,-2.46,-0.28,
2.762,0.95,0.23,2.46,-1.47,-2.50,-0.28,
2.764,0.95,0.23,2.46,-1.47,-2.52,-0.30,
2.767,1.10,0.04,2.41,-1.47,-2.52,-0.30,
2.768,1.10,0.04,2.41,-1.47,-2.54,-0.31,
2.768,1.10,0.04,2.41,-1.47,-2.55,-0.32,
2.771,1.10,0.04,2.41,-1.46,-2.56,-0.34,
2.774,1.10,0.04,2.41,-1.46,-2.57,-0.37,
2.777,1.10,0.04,2.41,-1.46,-2.58,-0.39,
2.778,1.78,-0.18,2.25,-1.46,-2.58,-0.39,
2.779,1.78,-0.18,2.25,-1.45,-2.58,-0.42,
2.779,1.78,-0.18,2.25,-1.45,-2.59,-0.44,
2.782,1.78,-0.18,2.25,-1.44,-2.59,-0.46,
2.784,1.78,-0.18,2.25,-1.44,-2.59,-0.48,
2.786,1.78,-0.18,2.25,-1.43,-2.58,-0.50,
2.789,1.69,-0.37,1.80,-1.43,-2.58,-0.50,
2.789,1.69,-0.37,1.80,-1.43,-2.58,-0.53,
2.79,1.69,-0.37,1.80,-1.43,-2.57,-0.55,
2.791,1.69,-0.37,1.80,-1.43,-2.56,-0.58,
2.795,1.69,-0.37,1.80,-1.44,-2.55,-0.61,
2.797,1.69,-0.37,1.80,-1.45,-2.55,-0.63,
2.799,1.81,-0.46,0.97,-1.45,-2.55,-0.63,
2.799,1.81,-0.46,0.97,-1.46,-2.54,-0.67,
2.8,1.81,-0.46,0.97,-1.48,-2.53,-0.70,
2.804,1.81,-0.46,0.97,-1.49,-2.53,-0.74,
2.807,1.81,-0.46,0.97,-1.50,-2.48,-0.88,
2.83,1.81,-0.46,0.97,-1.50,-2.48,-0.88,
2.83,1.81,-0.46,0.97,-1.50,-2.48,-0.88,
2.831,2.39,-0.73,0.42,-1.50,-2.48,-0.88,
2.831,2.39,-0.73,0.42,-1.50,-2.45,-0.93,
2.831,2.39,-0.73,0.42,-1.50,-2.41,-1.00,
2.831,2.39,-0.73,0.42,-1.50,-2.39,-1.03,
2.832,2.39,-0.73,0.42,-1.50,-2.37,-1.08,
2.832,2.85,-0.92,0.35,-1.50,-2.37,-1.08,
2.832,2.85,-0.92,0.35,-1.50,-2.34,-1.14,
2.833,2.85,-0.92,0.35,-1.51,-2.30,-1.19,
2.833,2.85,-0.92,0.35,-1.51,-2.27,-1.25,
2.833,2.85,-0.92,0.35,-1.52,-2.24,-1.31,
2.833,2.85,-0.92,0.35,-1.52,-2.21,-1.37,
2.834,3.21,-1.19,0.24,-1.52,-2.21,-1.37,
2.834,3.21,-1.19,0.24,-1.52,-2.17,-1.42,
2.834,3.21,-1.19,0.24,-1.52,-2.13,-1.48,
2.835,3.21,-1.19,0.24,-1.53,-2.09,-1.54,
2.835,3.21,-1.19,0.24,-1.52,-2.05,-1.59,
2.835,3.21,-1.19,0.24,-1.52,-2.00,-1.64,
2.839,3.35,-1.41,0.45,-1.52,-2.00,-1.64,
2.84,3.35,-1.41,0.45,-1.52,-1.96,-1.69,
2.84,3.35,-1.41,0.45,-1.52,-1.91,-1.74,
2.842,3.35,-1.41,0.45,-1.51,-1.85,-1.78,
2.843,3.35,-1.41,0.45,-1.51,-1.79,-1.82,
2.846,3.35,-1.41,0.45,-1.50,-1.73,-1.86,
2.847,2.94,-1.57,0.77,-1.50,-1.73,-1.86,
2.847,2.94,-1.57,0.77,-1.49,-1.67,-1.89,
2.848,2.94,-1.57,0.77,-1.49,-1.60,-1.92,
2.851,2.94,-1.57,0.77,-1.49,-1.53,-1.94,
2.852,2.94,-1.57,0.77,-1.48,-1.46,-1.96,
2.865,2.94,-1.57,0.77,-1.48,-1.40,-1.97,
2.865,2.39,-1.82,1.10,-1.48,-1.40,-1.97,
2.866,2.39,-1.82,1.10,-1.47,-1.33,-1.98,
2.866,2.39,-1.82,1.10,-1.47,-1.27,-1.98,
2.866,2.39,-1.82,1.10,-1.46,-1.21,-1.97,
2.866,2.39,-1.82,1.10,-1.46,-1.15,-1.96,
2.867,2.39,-1.82,1.10,-1.45,-1.09,-1.94,
2.897,1.54,-2.26,1.38,-1.45,-1.09,-1.94,
2.898,1.54,-2.26,1.38,-1.44,-1.03,-1.92,
2.898,1.54,-2.26,1.38,-1.44,-0.97,-1.89,
2.898,1.54,-2.26,1.38,-1.43,-0.91,-1.85,
2.898,1.54,-2.26,1.38,-1.42,-0.85,-1.80,
2.899,1.54,-2.26,1.38,-1.41,-0.79,-1.75,
2.899,0.59,-2.72,1.65,-1.41,-0.79,-1.75,
2.899,0.59,-2.72,1.65,-1.41,-0.74,-1.69,
2.899,0.59,-2.72,1.65,-1.39,-0.69,-1.61,
2.899,0.59,-2.72,1.65,-1.38,-0.64,-1.54,
2.9,0.59,-2.72,1.65,-1.37,-0.60,-1.46,
2.9,0.59,-2.72,1.65,-1.37,-0.56,-1.37,
2.9,-0.30,-3.16,1.82,-1.37,-0.56,-1.37,
2.9,-0.30,-3.16,1.82,-1.36,-0.53,-1.28,
2.901,-0.30,-3.16,1.82,-1.35,-0.49,-1.18,
2.901,-0.30,-3.16,1.82,-1.34,-0.47,-1.08,
2.901,-0.30,-3.16,1.82,-1.34,-0.44,-0.98,
2.901,-0.30,-3.16,1.82,-1.33,-0.43,-0.87,
2.902,-0.77,-3.47,2.06,-1.33,-0.43,-0.87,
2.902,-0.77,-3.47,2.06,-1.33,-0.41,-0.76,
2.902,-0.77,-3.47,2.06,-1.33,-0.39,-0.65,
2.902,-0.77,-3.47,2.06,-1.34,-0.38,-0.54,
2.903,-0.77,-3.47,2.06,-1.35,-0.37,-0.43,
2.904,-0.77,-3.47,2.06,-1.35,-0.37,-0.32,
2.907,-0.84,-3.64,2.40,-1.35,-0.37,-0.32,
2.907,-0.84,-3.64,2.40,-1.36,-0.37,-0.21,
2.909,-0.84,-3.64,2.40,-1.38,-0.37,-0.10,
2.91,-0.84,-3.64,2.40,-1.39,-0.37,0.00,
2.913,-0.84,-3.64,2.40,-1.40,-0.37,0.09,
2.914,-0.84,-3.64,2.40,-1.41,-0.37,0.17,
2.917,-0.82,-3.80,3.08,-1.41,-0.37,0.17,
2.917,-0.82,-3.80,3.08,-1.42,-0.37,0.23,
2.918,-0.82,-3.80,3.08,-1.42,-0.36,0.27,
2.92,-0.82,-3.80,3.08,-1.42,-0.35,0.31,
2.925,-0.82,-3.80,3.08,-1.42,-0.34,0.34,
2.925,-0.82,-3.80,3.08,-1.41,-0.32,0.37,
2.927,-0.71,-4.36,4.08,-1.41,-0.32,0.37,
2.928,-0.71,-4.36,4.08,-1.38,-0.29,0.38,
2.928,-0.71,-4.36,4.08,-1.36,-0.26,0.39,
2.93,-0.71,-4.36,4.08,-1.32,-0.22,0.40,
2.932,-0.71,-4.36,4.08,-1.28,-0.18,0.40,
2.934,-0.71,-4.36,4.08,-1.23,-0.14,0.40,
2.938,-0.97,-5.18,5.64,-1.23,-0.14,0.40,
2.938,-0.97,-5.18,5.64,-1.16,-0.09,0.40,
2.938,-0.97,-5.18,5.64,-1.09,-0.04,0.40,
2.942,-0.97,-5.18,5.64,-1.01,-0.01,0.40,
2.944,-0.97,-5.18,5.64,-0.91,0.03,0.40,
2.944,-0.97,-5.18,5.64,-0.80,0.05,0.39,
2.947,-1.22,-4.97,7.14,-0.80,0.05,0.39,
2.947,-1.22,-4.97,7.14,-0.68,0.07,0.39,
2.948,-1.22,-4.97,7.14,-0.56,0.09,0.38,
2.95,-1.22,-4.97,7.14,-0.42,0.09,0.38,
2.952,-1.22,-4.97,7.14,-0.28,0.08,0.37,
2.954,-1.22,-4.97,7.14,-0.13,0.07,0.36,
2.956,-0.97,-4.25,8.13,-0.13,0.07,0.36,
2.957,-0.97,-4.25,8.13,0.02,0.04,0.35,
2.959,-0.97,-4.25,8.13,0.17,0.02,0.35,
2.961,-0.97,-4.25,8.13,0.32,-0.02,0.33,
2.962,-0.97,-4.25,8.13,0.47,-0.06,0.32,
2.964,-0.97,-4.25,8.13,0.62,-0.10,0.30,
2.967,-0.52,-3.41,7.89,0.62,-0.10,0.30,
2.967,-0.52,-3.41,7.89,0.77,-0.15,0.29,
2.968,-0.52,-3.41,7.89,0.92,-0.19,0.27,
2.988,-0.52,-3.41,7.89,1.07,-0.22,0.26,
2.988,-0.52,-3.41,7.89,1.22,-0.25,0.26,
2.988,-0.52,-3.41,7.89,1.38,-0.27,0.26,
2.988,-1.01,-2.70,7.75,1.38,-0.27,0.26,
2.989,-1.01,-2.70,7.75,1.54,-0.27,0.26,
2.989,-1.01,-2.70,7.75,1.69,-0.26,0.27,
2.989,-1.01,-2.70,7.75,1.84,-0.23,0.29,
2.989,-1.01,-2.70,7.75,1.99,-0.19,0.31,
2.99,-1.01,-2.70,7.75,2.14,-0.14,0.33,
2.99,-2.16,-2.87,7.28,2.14,-0.14,0.33,
2.99,-2.16,-2.87,7.28,2.28,-0.09,0.35,
2.99,-2.16,-2.87,7.28,2.41,-0.03,0.38,
2.99,-2.16,-2.87,7.28,2.54,0.03,0.41,
2.994,-2.16,-2.87,7.28,2.66,0.10,0.44,
2.994,-2.16,-2.87,7.28,2.78,0.17,0.48,
2.997,-3.31,-4.04,6.28,2.78,0.17,0.48,
2.997,-3.31,-4.04,6.28,2.89,0.26,0.52,
2.998,-3.31,-4.04,6.28,3.00,0.36,0.56,
3.0,-3.31,-4.04,6.28,3.11,0.47,0.61,
3.002,-3.31,-4.04,6.28,3.22,0.60,0.67,
3.005,-3.31,-4.04,6.28,3.33,0.74,0.74,
3.007,-4.63,-5.42,5.75,3.33,0.74,0.74,
3.007,-4.63,-5.42,5.75,3.44,0.90,0.81,
3.008,-4.63,-5.42,5.75,3.54,1.07,0.89,
3.01,-4.63,-5.42,5.75,3.64,1.26,0.97,
3.012,-4.63,-5.42,5.75,3.74,1.46,1.05,
3.014,-4.63,-5.42,5.75,3.82,1.67,1.14,
3.017,-6.08,-6.12,5.52,3.82,1.67,1.14,
3.017,-6.08,-6.12,5.52,3.90,1.89,1.23,
3.018,-6.08,-6.12,5.52,3.96,2.11,1.32,
3.02,-6.08,-6.12,5.52,4.01,2.33,1.40,
3.026,-6.08,-6.12,5.52,4.05,2.53,1.49,
3.027,-6.08,-6.12,5.52,4.08,2.73,1.57,
3.027,-6.22,-5.71,4.00,4.08,2.73,1.57,
3.027,-6.22,-5.71,4.00,4.08,2.91,1.64,
3.028,-6.22,-5.71,4.00,4.07,3.07,1.71,
3.03,-6.22,-5.71,4.00,4.04,3.21,1.76,
3.032,-6.22,-5.71,4.00,4.00,3.32,1.79,
3.034,-6.22,-5.71,4.00,3.94,3.39,1.81,
3.037,-4.44,-4.83,1.53,3.94,3.39,1.81,
3.037,-4.44,-4.83,1.53,3.87,3.43,1.82,
3.067,-4.44,-4.83,1.53,3.80,3.43,1.82,
3.068,-4.44,-4.83,1.53,3.63,3.30,1.76,
3.068,-4.44,-4.83,1.53,3.59,3.24,1.74,
3.069,-4.44,-4.83,1.53,3.55,3.18,1.72,
3.069,-1.37,-4.25,-0.63,3.55,3.18,1.72,
3.069,-1.37,-4.25,-0.63,3.47,3.02,1.67,
3.069,-1.37,-4.25,-0.63,3.39,2.81,1.62,
3.069,-1.37,-4.25,-0.63,3.31,2.57,1.55,
3.069,-1.37,-4.25,-0.63,3.24,2.30,1.49,
3.069,-1.37,-4.25,-0.63,3.18,2.01,1.42,
3.07,0.88,-3.72,-2.24,3.18,2.01,1.42,
3.07,0.88,-3.72,-2.24,3.12,1.70,1.35,
3.07,0.88,-3.72,-2.24,3.06,1.38,1.27,
3.07,0.88,-3.72,-2.24,2.99,1.04,1.19,
3.07,0.88,-3.72,-2.24,2.93,0.69,1.11,
3.07,0.88,-3.72,-2.24,2.86,0.35,1.02,
3.07,2.47,-3.09,-4.03,2.86,0.35,1.02,
3.071,2.47,-3.09,-4.03,2.79,-0.00,0.94,
3.071,2.47,-3.09,-4.03,2.72,-0.35,0.86,
3.071,2.47,-3.09,-4.03,2.64,-0.70,0.78,
3.075,2.47,-3.09,-4.03,2.56,-1.05,0.70,
3.075,2.47,-3.09,-4.03,2.47,-1.39,0.63,
3.077,3.49,-2.83,-6.35,2.47,-1.39,0.63,
3.077,3.49,-2.83,-6.35,2.38,-1.72,0.55,
3.078,3.49,-2.83,-6.35,2.29,-2.04,0.47,
3.08,3.49,-2.83,-6.35,2.20,-2.34,0.40,
3.082,3.49,-2.83,-6.35,2.10,-2.63,0.31,
3.084,3.49,-2.83,-6.35,2.00,-2.91,0.23,
3.086,4.72,-2.32,-8.38,2.00,-2.91,0.23,
3.087,4.72,-2.32,-8.38,1.90,-3.18,0.16,
3.092,4.72,-2.32,-8.38,1.81,-3.43,0.08,
3.093,4.72,-2.32,-8.38,1.72,-3.66,0.01,
3.093,4.72,-2.32,-8.38,1.63,-3.87,-0.05,
3.094,4.72,-2.32,-8.38,1.55,-4.06,-0.11,
3.096,5.09,-1.57,-9.96,1.55,-4.06,-0.11,
3.097,5.09,-1.57,-9.96,1.47,-4.23,-0.17,
3.098,5.09,-1.57,-9.96,1.39,-4.38,-0.22,
3.101,5.09,-1.57,-9.96,1.32,-4.52,-0.27,
3.102,5.09,-1.57,-9.96,1.25,-4.64,-0.32,
3.123,5.09,-1.57,-9.96,1.18,-4.74,-0.37,
3.124,4.70,-0.86,-10.18,1.18,-4.74,-0.37,
3.124,4.70,-0.86,-10.18,1.11,-4.84,-0.42,
3.124,4.70,-0.86,-10.18,1.05,-4.92,-0.46,
3.124,4.70,-0.86,-10.18,0.97,-4.98,-0.51,
3.124,4.70,-0.86,-10.18,0.90,-5.02,-0.57,
3.124,4.70,-0.86,-10.18,0.82,-5.04,-0.63,
3.125,4.36,-0.92,-10.51,0.82,-5.04,-0.63,
3.125,4.36,-0.92,-10.51,0.75,-5.04,-0.69,
3.125,4.36,-0.92,-10.51,0.68,-5.02,-0.74,
3.125,4.36,-0.92,-10.51,0.62,-4.98,-0.80,
3.125,4.36,-0.92,-10.51,0.56,-4.90,-0.84,
3.126,4.36,-0.92,-10.51,0.52,-4.80,-0.89,
3.127,3.41,-1.00,-9.84,0.52,-4.80,-0.89,
3.127,3.41,-1.00,-9.84,0.48,-4.66,-0.92,
3.128,3.41,-1.00,-9.84,0.46,-4.49,-0.95,
3.13,3.41,-1.00,-9.84,0.44,-4.29,-0.98,
3.132,3.41,-1.00,-9.84,0.48,-4.04,-1.00,
3.134,3.41,-1.00,-9.84,0.60,-3.73,-1.04,
3.138,2.91,-1.38,-5.54,0.60,-3.73,-1.04,
3.155,2.91,-1.38,-5.54,0.83,-3.36,-1.11,
3.156,2.91,-1.38,-5.54,1.15,-2.93,-1.19,
3.156,2.91,-1.38,-5.54,1.52,-2.45,-1.29,
3.156,2.91,-1.38,-5.54,1.92,-1.94,-1.40,
3.156,2.91,-1.38,-5.54,2.34,-1.40,-1.51,
3.157,5.40,-3.41,6.25,2.34,-1.40,-1.51,
3.157,5.40,-3.41,6.25,2.73,-0.86,-1.61,
3.157,5.40,-3.41,6.25,3.10,-0.32,-1.71,
3.157,5.40,-3.41,6.25,3.42,0.20,-1.78,
3.158,5.40,-3.41,6.25,3.68,0.70,-1.83,
3.158,5.40,-3.41,6.25,3.91,1.17,-1.87,
3.158,4.04,-5.43,4.24,3.91,1.17,-1.87,
3.158,4.04,-5.43,4.24,4.09,1.61,-1.89,
3.158,4.04,-5.43,4.24,4.23,2.00,-1.89,
3.161,4.04,-5.43,4.24,4.35,2.36,-1.89,
3.162,4.04,-5.43,4.24,4.43,2.68,-1.88,
3.164,4.04,-5.43,4.24,4.51,2.96,-1.86,
3.167,2.03,-6.68,-0.77,4.51,2.96,-1.86,
3.167,2.03,-6.68,-0.77,4.57,3.22,-1.83,
3.168,2.03,-6.68,-0.77,4.62,3.44,-1.80,
3.172,2.03,-6.68,-0.77,4.66,3.62,-1.76,
3.173,2.03,-6.68,-0.77,4.69,3.76,-1.73,
3.174,2.03,-6.68,-0.77,4.69,3.86,-1.69,
3.177,1.74,-7.75,-1.81,4.69,3.86,-1.69,
3.177,1.74,-7.75,-1.81,4.65,3.92,-1.65,
3.178,1.74,-7.75,-1.81,4.60,3.93,-1.61,
3.18,1.74,-7.75,-1.81,4.52,3.90,-1.56,
3.182,1.74,-7.75,-1.81,4.42,3.83,-1.52,
3.184,1.74,-7.75,-1.81,4.30,3.70,-1.47,
3.187,0.91,-7.58,-2.97,4.30,3.70,-1.47,
3.187,0.91,-7.58,-2.97,4.16,3.53,-1.42,
3.188,0.91,-7.58,-2.97,4.01,3.32,-1.38,
3.191,0.91,-7.58,-2.97,3.84,3.07,-1.34,
3.193,0.91,-7.58,-2.97,3.67,2.79,-1.30,
3.194,0.91,-7.58,-2.97,3.50,2.48,-1.26,
3.196,0.00,-6.44,-2.86,3.50,2.48,-1.26,
3.197,0.00,-6.44,-2.86,3.31,2.16,-1.23,
3.198,0.00,-6.44,-2.86,3.13,1.82,-1.20,
3.2,0.00,-6.44,-2.86,2.95,1.48,-1.17,
3.202,0.00,-6.44,-2.86,2.78,1.18,-1.14,
3.205,0.00,-6.44,-2.86,2.64,0.94,-1.11,
3.206,-0.83,-4.52,-2.61,2.64,0.94,-1.11,
3.207,-0.83,-4.52,-2.61,2.51,0.76,-1.09,
3.208,-0.83,-4.52,-2.61,2.40,0.64,-1.07,
3.211,-0.83,-4.52,-2.61,2.30,0.56,-1.04,
3.212,-0.83,-4.52,-2.61,2.23,0.54,-1.02,
3.214,-0.83,-4.52,-2.61,2.17,0.55,-0.99,
3.217,-1.76,-2.61,-2.60,2.17,0.55,-0.99,
3.217,-1.76,-2.61,-2.60,2.12,0.60,-0.96,
3.218,-1.76,-2.61,-2.60,2.08,0.67,-0.92,
3.221,-1.76,-2.61,-2.60,2.06,0.75,-0.88,
3.223,-1.76,-2.61,-2.60,2.05,0.85,-0.84,
3.225,-1.76,-2.61,-2.60,2.04,0.96,-0.79,
3.227,-2.94,-1.26,-3.56,2.04,0.96,-0.79,
3.228,-2.94,-1.26,-3.56,2.04,1.06,-0.74,
3.228,-2.94,-1.26,-3.56,2.05,1.16,-0.68,
3.23,-2.94,-1.26,-3.56,2.07,1.27,-0.62,
3.233,-2.94,-1.26,-3.56,2.10,1.37,-0.56,
3.235,-2.94,-1.26,-3.56,2.13,1.47,-0.49,
3.239,-4.20,-0.33,-4.54,2.13,1.47,-0.49,
3.24,-4.20,-0.33,-4.54,2.17,1.57,-0.42,
3.24,-4.20,-0.33,-4.54,2.22,1.65,-0.36,
3.241,-4.20,-0.33,-4.54,2.27,1.73,-0.29,
3.243,-4.20,-0.33,-4.54,2.33,1.80,-0.23,
3.244,-4.20,-0.33,-4.54,2.38,1.86,-0.17,
3.246,-4.51,0.66,-4.73,2.38,1.86,-0.17,
3.247,-4.51,0.66,-4.73,2.44,1.91,-0.11,
3.248,-4.51,0.66,-4.73,2.49,1.96,-0.06,
3.25,-4.51,0.66,-4.73,2.54,2.00,-0.01,
3.252,-4.51,0.66,-4.73,2.59,2.05,0.02,
3.262,-4.51,0.66,-4.73,2.63,2.10,0.06,
3.262,-4.44,1.40,-5.19,2.63,2.10,0.06,
3.262,-4.44,1.40,-5.19,2.67,2.15,0.09,
3.262,-4.44,1.40,-5.19,2.71,2.20,0.12,
3.263,-4.44,1.40,-5.19,2.73,2.26,0.14,
3.263,-4.44,1.40,-5.19,2.76,2.31,0.16,
3.264,-4.44,1.40,-5.19,2.77,2.37,0.17,
3.266,-3.90,2.26,-5.87,2.77,2.37,0.17,
3.267,-3.90,2.26,-5.87,2.78,2.42,0.18,
3.268,-3.90,2.26,-5.87,2.78,2.47,0.18,
3.277,-3.90,2.26,-5.87,2.77,2.52,0.17,
3.277,-3.90,2.26,-5.87,2.74,2.57,0.16,
3.277,-3.90,2.26,-5.87,2.72,2.60,0.15,
3.277,-3.45,3.03,-6.91,2.72,2.60,0.15,
3.277,-3.45,3.03,-6.91,2.68,2.62,0.13,
3.278,-3.45,3.03,-6.91,2.64,2.63,0.10,
3.28,-3.45,3.03,-6.91,2.59,2.63,0.08,
3.282,-3.45,3.03,-6.91,2.54,2.62,0.05,
3.284,-3.45,3.03,-6.91,2.47,2.61,0.03,
3.287,-2.75,4.35,-7.53,2.47,2.61,0.03,
3.287,-2.75,4.35,-7.53,2.41,2.58,0.00,
3.289,-2.75,4.35,-7.53,2.35,2.55,-0.02,
3.294,-2.75,4.35,-7.53,2.29,2.50,-0.04,
3.297,-2.75,4.35,-7.53,2.22,2.46,-0.06,
3.297,-2.75,4.35,-7.53,2.16,2.40,-0.07,
3.297,-2.63,6.05,-7.59,2.16,2.40,-0.07,
3.298,-2.63,6.05,-7.59,2.09,2.33,-0.08,
3.299,-2.63,6.05,-7.59,2.02,2.27,-0.09,
3.3,-2.63,6.05,-7.59,1.95,2.19,-0.08,
3.302,-2.63,6.05,-7.59,1.87,2.10,-0.07,
3.313,-2.63,6.05,-7.59,1.78,2.02,-0.05,
3.313,-2.44,7.70,-7.36,1.78,2.02,-0.05,
3.314,-2.44,7.70,-7.36,1.68,1.93,-0.03,
3.314,-2.44,7.70,-7.36,1.59,1.84,0.00,
3.314,-2.44,7.70,-7.36,1.49,1.75,0.04,
3.314,-2.44,7.70,-7.36,1.38,1.66,0.09,
3.314,-2.44,7.70,-7.36,1.26,1.58,0.14,
3.317,-2.64,8.79,-6.83,1.26,1.58,0.14,
3.317,-2.64,8.79,-6.83,1.15,1.49,0.20,
3.318,-2.64,8.79,-6.83,1.03,1.41,0.26,
3.32,-2.64,8.79,-6.83,0.91,1.33,0.32,
3.322,-2.64,8.79,-6.83,0.80,1.26,0.39,
3.324,-2.64,8.79,-6.83,0.68,1.19,0.46,
3.327,-2.16,9.01,-6.03,0.68,1.19,0.46,
3.327,-2.16,9.01,-6.03,0.56,1.12,0.53,
3.328,-2.16,9.01,-6.03,0.44,1.05,0.60,
3.33,-2.16,9.01,-6.03,0.33,0.98,0.67,
3.332,-2.16,9.01,-6.03,0.23,0.90,0.75,
3.334,-2.16,9.01,-6.03,0.15,0.83,0.83,
3.336,-1.66,8.92,-4.94,0.15,0.83,0.83,
3.337,-1.66,8.92,-4.94,0.07,0.73,0.90,
3.338,-1.66,8.92,-4.94,0.01,0.63,0.98,
3.34,-1.66,8.92,-4.94,-0.04,0.52,1.04,
3.342,-1.66,8.92,-4.94,-0.08,0.40,1.10,
3.344,-1.66,8.92,-4.94,-0.11,0.28,1.14,
3.346,-0.46,7.66,-4.35,-0.11,0.28,1.14,
3.346,-0.46,7.66,-4.35,-0.13,0.16,1.18,
3.348,-0.46,7.66,-4.35,-0.15,0.04,1.21,
3.35,-0.46,7.66,-4.35,-0.16,-0.07,1.22,
3.352,-0.46,7.66,-4.35,-0.17,-0.18,1.23,
3.357,-0.46,7.66,-4.35,-0.18,-0.29,1.22,
3.357,0.94,6.22,-4.72,-0.18,-0.29,1.22,
3.358,0.94,6.22,-4.72,-0.18,-0.38,1.21,
3.358,0.94,6.22,-4.72,-0.18,-0.47,1.19,
3.36,0.94,6.22,-4.72,-0.17,-0.55,1.15,
3.362,0.94,6.22,-4.72,-0.16,-0.61,1.10,
3.364,0.94,6.22,-4.72,-0.15,-0.67,1.05,
3.367,1.98,4.90,-4.69,-0.15,-0.67,1.05,
3.367,1.98,4.90,-4.69,-0.14,-0.71,0.98,
3.368,1.98,4.90,-4.69,-0.13,-0.74,0.90,
3.39,1.98,4.90,-4.69,-0.12,-0.76,0.82,
3.391,1.98,4.90,-4.69,-0.11,-0.77,0.73,
3.391,1.98,4.90,-4.69,-0.10,-0.78,0.63,
3.392,2.91,4.09,-3.96,-0.10,-0.78,0.63,
3.392,2.91,4.09,-3.96,-0.10,-0.78,0.53,
3.392,2.91,4.09,-3.96,-0.12,-0.77,0.43,
3.392,2.91,4.09,-3.96,-0.14,-0.76,0.33,
3.393,2.91,4.09,-3.96,-0.18,-0.75,0.23,
3.393,2.91,4.09,-3.96,-0.23,-0.73,0.13,
3.393,3.19,3.34,-4.35,-0.23,-0.73,0.13,
3.394,3.19,3.34,-4.35,-0.29,-0.72,0.05,
3.394,3.19,3.34,-4.35,-0.36,-0.71,-0.03,
3.394,3.19,3.34,-4.35,-0.52,-0.67,-0.16,
3.394,3.19,3.34,-4.35,-0.56,-0.66,-0.18,
3.395,3.19,3.34,-4.35,-0.60,-0.65,-0.21,
3.397,3.17,2.90,-5.10,-0.60,-0.65,-0.21,
3.397,3.17,2.90,-5.10,-0.69,-0.62,-0.25,
3.398,3.17,2.90,-5.10,-0.78,-0.59,-0.28,
3.4,3.17,2.90,-5.10,-0.86,-0.55,-0.31,
3.402,3.17,2.90,-5.10,-0.94,-0.50,-0.33,
3.404,3.17,2.90,-5.10,-1.02,-0.45,-0.35,
3.407,2.54,3.22,-5.15,-1.02,-0.45,-0.35,
3.408,2.54,3.22,-5.15,-1.10,-0.40,-0.35,
3.408,2.54,3.22,-5.15,-1.17,-0.34,-0.36,
3.41,2.54,3.22,-5.15,-1.23,-0.28,-0.36,
3.412,2.54,3.22,-5.15,-1.29,-0.22,-0.35,
3.415,2.54,3.22,-5.15,-1.33,-0.16,-0.34,
3.419,1.93,3.59,-4.11,-1.33,-0.16,-0.34,
3.419,1.93,3.59,-4.11,-1.36,-0.10,-0.32,
3.419,1.93,3.59,-4.11,-1.38,-0.04,-0.31,
3.422,1.93,3.59,-4.11,-1.38,0.00,-0.29,
3.423,1.93,3.59,-4.11,-1.37,0.04,-0.27,
3.425,1.93,3.59,-4.11,-1.35,0.06,-0.25,
3.426,1.52,3.60,-1.61,-1.35,0.06,-0.25,
3.427,1.52,3.60,-1.61,-1.31,0.07,-0.24,
3.428,1.52,3.60,-1.61,-1.27,0.06,-0.23,
3.43,1.52,3.60,-1.61,-1.22,0.04,-0.22,
3.432,1.52,3.60,-1.61,-1.17,-0.01,-0.21,
3.434,1.52,3.60,-1.61,-1.12,-0.08,-0.21,
3.438,1.95,3.20,0.42,-1.12,-0.08,-0.21,
3.44,1.95,3.20,0.42,-1.08,-0.18,-0.21,
3.441,1.95,3.20,0.42,-1.04,-0.31,-0.21,
3.443,1.95,3.20,0.42,-1.01,-0.46,-0.22,
3.444,1.95,3.20,0.42,-0.99,-0.63,-0.23,
3.445,1.95,3.20,0.42,-0.97,-0.82,-0.23,
3.447,1.38,2.55,0.50,-0.97,-0.82,-0.23,
3.448,1.38,2.55,0.50,-0.96,-1.01,-0.24,
3.448,1.38,2.55,0.50,-0.96,-1.20,-0.24,
3.451,1.38,2.55,0.50,-0.96,-1.38,-0.24,
3.457,1.38,2.55,0.50,-0.98,-1.56,-0.23,
3.458,1.38,2.55,0.50,-1.00,-1.71,-0.22,
3.458,-1.25,2.05,0.66,-1.00,-1.71,-0.22,
3.459,-1.25,2.05,0.66,-1.03,-1.84,-0.20,
3.459,-1.25,2.05,0.66,-1.06,-1.95,-0.17,
3.462,-1.25,2.05,0.66,-1.07,-2.05,-0.15,
3.463,-1.25,2.05,0.66,-1.07,-2.12,-0.12,
3.465,-1.25,2.05,0.66,-1.03,-2.18,-0.09,
3.467,-4.33,1.29,5.30,-1.03,-2.18,-0.09,
3.468,-4.33,1.29,5.30,-0.97,-2.21,-0.07,
3.468,-4.33,1.29,5.30,-0.86,-2.23,-0.06,
3.497,-4.33,1.29,5.30,-0.73,-2.22,-0.05,
3.497,-4.33,1.29,5.30,-0.57,-2.17,-0.05,
3.498,-4.33,1.29,5.30,-0.42,-2.08,-0.06,
3.498,-5.95,-0.78,16.27,-0.42,-2.08,-0.06,
3.499,-5.95,-0.78,16.27,-0.28,-1.93,-0.09,
3.499,-5.95,-0.78,16.27,-0.17,-1.72,-0.14,
3.5,-5.95,-0.78,16.27,-0.09,-1.44,-0.20,
3.5,-5.95,-0.78,16.27,-0.07,-1.10,-0.27,
3.501,-5.95,-0.78,16.27,-0.09,-0.72,-0.35,
3.501,-3.78,-6.22,19.27,-0.09,-0.72,-0.35,
3.501,-3.78,-6.22,19.27,-0.18,-0.31,-0.43,
3.502,-3.78,-6.22,19.27,-0.35,0.10,-0.50,
3.502,-3.78,-6.22,19.27,-0.61,0.48,-0.57,
3.503,-3.78,-6.22,19.27,-0.96,0.78,-0.63,
3.503,-3.78,-6.22,19.27,-1.39,0.96,-0.67,
3.503,0.47,-11.19,6.44,-1.39,0.96,-0.67,
3.504,0.47,-11.19,6.44,-1.88,0.98,-0.70,
3.504,0.47,-11.19,6.44,-2.38,0.84,-0.72,
3.505,0.47,-11.19,6.44,-2.85,0.54,-0.72,
3.505,0.47,-11.19,6.44,-3.28,0.11,-0.70,
3.505,0.47,-11.19,6.44,-3.63,-0.42,-0.67,
3.517,2.36,-12.16,-8.37,-3.63,-0.42,-0.67,
3.518,2.36,-12.16,-8.37,-3.90,-1.02,-0.61,
3.518,2.36,-12.16,-8.37,-4.07,-1.64,-0.54,
3.519,2.36,-12.16,-8.37,-4.15,-2.27,-0.45,
3.519,2.36,-12.16,-8.37,-4.17,-2.86,-0.34,
3.519,2.36,-12.16,-8.37,-4.12,-3.42,-0.22,
3.523,2.47,-10.13,-10.87,-4.12,-3.42,-0.22,
3.524,2.47,-10.13,-10.87,-4.02,-3.92,-0.10,
3.524,2.47,-10.13,-10.87,-3.89,-4.34,0.03,
3.524,2.47,-10.13,-10.87,-3.73,-4.69,0.14,
3.525,2.47,-10.13,-10.87,-3.56,-4.96,0.24,
3.525,2.47,-10.13,-10.87,-3.39,-5.16,0.32,
3.529,2.81,-6.61,-8.94,-3.39,-5.16,0.32,
3.53,2.81,-6.61,-8.94,-3.23,-5.30,0.38,
3.53,2.81,-6.61,-8.94,-3.06,-5.38,0.41,
3.53,2.81,-6.61,-8.94,-2.91,-5.41,0.42,
3.535,2.81,-6.61,-8.94,-2.75,-5.40,0.41,
3.535,2.81,-6.61,-8.94,-2.60,-5.34,0.37,
3.546,4.26,-3.93,-6.29,-2.60,-5.34,0.37,
3.547,4.26,-3.93,-6.29,-2.43,-5.26,0.31,
3.547,4.26,-3.93,-6.29,-2.26,-5.14,0.24,
3.55,4.26,-3.93,-6.29,-2.09,-4.99,0.16,
3.551,4.26,-3.93,-6.29,-1.92,-4.82,0.07,
3.568,4.26,-3.93,-6.29,-1.67,-4.51,-0.06,
3.568,4.27,-1.67,-1.31,-1.67,-4.51,-0.06,
3.569,4.27,-1.67,-1.31,-1.58,-4.40,-0.10,
3.569,4.27,-1.67,-1.31,-1.42,-4.17,-0.19,
3.569,4.27,-1.67,-1.31,-1.27,-3.91,-0.27,
3.569,4.27,-1.67,-1.31,-1.13,-3.64,-0.36,
3.57,4.27,-1.67,-1.31,-1.03,-3.36,-0.44,
3.57,3.48,-0.50,1.52,-1.03,-3.36,-0.44,
3.57,3.48,-0.50,1.52,-0.95,-3.06,-0.52,
3.57,3.48,-0.50,1.52,-0.92,-2.75,-0.59,
3.571,3.48,-0.50,1.52,-0.94,-2.42,-0.66,
3.571,3.48,-0.50,1.52,-0.99,-2.08,-0.73,
3.571,3.48,-0.50,1.52,-1.07,-1.74,-0.78,
3.571,2.89,-0.38,-0.95,-1.07,-1.74,-0.78,
3.571,2.89,-0.38,-0.95,-1.17,-1.40,-0.83,
3.572,2.89,-0.38,-0.95,-1.29,-1.07,-0.86,
3.572,2.89,-0.38,-0.95,-1.42,-0.76,-0.87,
3.576,2.89,-0.38,-0.95,-1.54,-0.47,-0.87,
3.576,2.89,-0.38,-0.95,-1.66,-0.20,-0.86,
3.577,1.26,-0.17,-2.45,-1.66,-0.20,-0.86,
3.577,1.26,-0.17,-2.45,-1.77,0.06,-0.83,
3.578,1.26,-0.17,-2.45,-1.86,0.30,-0.79,
3.581,1.26,-0.17,-2.45,-1.93,0.52,-0.74,
3.582,1.26,-0.17,-2.45,-1.99,0.72,-0.68,
3.585,1.26,-0.17,-2.45,-2.02,0.90,-0.60,
3.606,-1.01,0.10,-0.86,-2.02,0.90,-0.60,
3.607,-1.01,0.10,-0.86,-2.04,1.05,-0.52,
3.607,-1.01,0.10,-0.86,-2.05,1.16,-0.42,
3.607,-1.01,0.10,-0.86,-2.04,1.25,-0.31,
3.607,-1.01,0.10,-0.86,-2.03,1.30,-0.20,
3.609,-1.01,0.10,-0.86,-2.01,1.33,-0.08,
3.61,-3.37,0.15,0.55,-2.01,1.33,-0.08,
3.61,-3.37,0.15,0.55,-1.98,1.32,0.05,
3.61,-3.37,0.15,0.55,-1.96,1.30,0.17,
3.61,-3.37,0.15,0.55,-1.93,1.25,0.30,
3.611,-3.37,0.15,0.55,-1.90,1.19,0.43,
3.611,-3.37,0.15,0.55,-1.87,1.11,0.55,
3.611,-4.35,0.22,0.43,-1.87,1.11,0.55,
3.611,-4.35,0.22,0.43,-1.85,1.02,0.67,
3.611,-4.35,0.22,0.43,-1.83,0.92,0.78,
3.612,-4.35,0.22,0.43,-1.81,0.82,0.88,
3.612,-4.35,0.22,0.43,-1.80,0.71,0.98,
3.614,-4.35,0.22,0.43,-1.80,0.60,1.07,
3.618,-4.03,0.28,-0.58,-1.80,0.60,1.07,
3.618,-4.03,0.28,-0.58,-1.80,0.49,1.15,
3.618,-4.03,0.28,-0.58,-1.80,0.37,1.21,
3.624,-4.03,0.28,-0.58,-1.80,0.26,1.27,
3.625,-4.03,0.28,-0.58,-1.81,0.16,1.31,
3.625,-4.03,0.28,-0.58,-1.82,0.06,1.35,
3.629,-2.60,0.21,-1.38,-1.82,0.06,1.35,
3.629,-2.60,0.21,-1.38,-1.82,-0.03,1.38,
3.629,-2.60,0.21,-1.38,-1.83,-0.12,1.40,
3.631,-2.60,0.21,-1.38,-1.84,-0.19,1.41,
3.634,-2.60,0.21,-1.38,-1.84,-0.25,1.42,
3.634,-2.60,0.21,-1.38,-1.85,-0.31,1.43,
3.644,-1.41,-0.37,-1.92,-1.85,-0.31,1.43,
3.662,-1.41,-0.37,-1.92,-1.86,-0.37,1.42,
3.662,-1.41,-0.37,-1.92,-1.87,-0.42,1.42,
3.663,-1.41,-0.37,-1.92,-1.88,-0.46,1.41,
3.663,-1.41,-0.37,-1.92,-1.90,-0.51,1.39,
3.663,-1.41,-0.37,-1.92,-1.90,-0.55,1.38,
3.663,-0.52,-0.95,-1.91,-1.90,-0.55,1.38,
3.663,-0.52,-0.95,-1.91,-1.91,-0.58,1.35,
3.663,-0.52,-0.95,-1.91,-1.91,-0.61,1.32,
3.663,-0.52,-0.95,-1.91,-1.91,-0.63,1.28,
3.664,-0.52,-0.95,-1.91,-1.91,-0.66,1.24,
3.664,-0.52,-0.95,-1.91,-1.91,-0.67,1.20,
3.664,0.30,-1.33,-1.39,-1.91,-0.67,1.20,
3.664,0.30,-1.33,-1.39,-1.90,-0.69,1.15,
3.664,0.30,-1.33,-1.39,-1.90,-0.70,1.10,
3.664,0.30,-1.33,-1.39,-1.90,-0.72,1.05,
3.665,0.30,-1.33,-1.39,-1.89,-0.73,1.00,
3.665,0.30,-1.33,-1.39,-1.89,-0.75,0.94,
3.666,0.62,-1.45,-0.62,-1.89,-0.75,0.94,
3.667,0.62,-1.45,-0.62,-1.88,-0.76,0.88,
3.681,0.62,-1.45,-0.62,-1.88,-0.77,0.83,
3.682,0.62,-1.45,-0.62,-1.87,-0.78,0.77,
3.682,0.62,-1.45,-0.62,-1.87,-0.79,0.72,
3.682,0.62,-1.45,-0.62,-1.87,-0.81,0.67,
3.682,0.73,-1.38,-0.25,-1.87,-0.81,0.67,
3.683,0.73,-1.38,-0.25,-1.88,-0.82,0.62,
3.683,0.73,-1.38,-0.25,-1.88,-0.83,0.57,
3.683,0.73,-1.38,-0.25,-1.89,-0.84,0.53,
3.683,0.73,-1.38,-0.25,-1.90,-0.85,0.49,
3.684,0.73,-1.38,-0.25,-1.91,-0.87,0.45,
3.687,0.52,-1.09,-0.24,-1.91,-0.87,0.45,
3.687,0.52,-1.09,-0.24,-1.93,-0.89,0.42,
3.689,0.52,-1.09,-0.24,-1.94,-0.92,0.39,
3.691,0.52,-1.09,-0.24,-1.97,-0.95,0.37,
3.692,0.52,-1.09,-0.24,-1.99,-0.99,0.35,
3.694,0.52,-1.09,-0.24,-2.02,-1.02,0.33,
3.697,0.34,-0.75,-0.37,-2.02,-1.02,0.33,
3.697,0.34,-0.75,-0.37,-2.04,-1.05,0.32,
3.698,0.34,-0.75,-0.37,-2.06,-1.08,0.30,
3.7,0.34,-0.75,-0.37,-2.09,-1.11,0.30,
3.703,0.34,-0.75,-0.37,-2.11,-1.13,0.29,
3.704,0.34,-0.75,-0.37,-2.13,-1.16,0.28,
3.707,0.20,-0.32,-0.29,-2.13,-1.16,0.28,
3.707,0.20,-0.32,-0.29,-2.15,-1.17,0.27,
3.708,0.20,-0.32,-0.29,-2.16,-1.19,0.26,
3.711,0.20,-0.32,-0.29,-2.17,-1.20,0.26,
3.712,0.20,-0.32,-0.29,-2.17,-1.21,0.26,
3.714,0.20,-0.32,-0.29,-2.18,-1.23,0.25,
3.717,0.15,0.35,0.18,-2.18,-1.23,0.25,
3.717,0.15,0.35,0.18,-2.17,-1.24,0.25,
3.719,0.15,0.35,0.18,-2.17,-1.25,0.24,
3.72,0.15,0.35,0.18,-2.16,-1.26,0.25,
3.722,0.15,0.35,0.18,-2.15,-1.26,0.25,
3.724,0.15,0.35,0.18,-2.14,-1.26,0.25,
3.727,-0.04,1.06,0.53,-2.14,-1.26,0.25,
3.727,-0.04,1.06,0.53,-2.13,-1.26,0.26,
3.728,-0.04,1.06,0.53,-2.11,-1.26,0.26,
3.73,-0.04,1.06,0.53,-2.09,-1.25,0.27,
3.732,-0.04,1.06,0.53,-2.07,-1.24,0.28,
3.734,-0.04,1.06,0.53,-2.05,-1.23,0.28,
3.739,-0.20,1.72,0.68,-2.05,-1.23,0.28,
3.74,-0.20,1.72,0.68,-2.03,-1.21,0.29,
3.74,-0.20,1.72,0.68,-2.00,-1.19,0.31,
3.744,-0.20,1.72,0.68,-1.95,-1.13,0.34,
3.745,-0.20,1.72,0.68,-1.94,-1.11,0.35,
3.745,-0.20,1.72,0.68,-1.92,-1.10,0.36,
3.749,-0.58,2.05,0.41,-1.92,-1.10,0.36,
3.749,-0.58,2.05,0.41,-1.90,-1.07,0.39,
3.749,-0.58,2.05,0.41,-1.88,-1.04,0.41,
3.752,-0.58,2.05,0.41,-1.86,-1.01,0.44,
3.753,-0.58,2.05,0.41,-1.83,-0.98,0.46,
3.76,-0.58,2.05,0.41,-1.82,-0.95,0.49,
3.76,-0.90,2.14,-0.08,-1.82,-0.95,0.49,
3.76,-0.90,2.14,-0.08,-1.81,-0.92,0.52,
3.761,-0.90,2.14,-0.08,-1.80,-0.89,0.55,
3.761,-0.90,2.14,-0.08,-1.79,-0.87,0.58,
3.765,-0.90,2.14,-0.08,-1.78,-0.84,0.61,
3.765,-0.90,2.14,-0.08,-1.78,-0.82,0.64,
3.769,-0.97,1.92,-0.61,-1.78,-0.82,0.64,
3.769,-0.97,1.92,-0.61,-1.77,-0.80,0.67,
3.77,-0.97,1.92,-0.61,-1.77,-0.78,0.69,
3.773,-0.97,1.92,-0.61,-1.77,-0.76,0.72,
3.773,-0.97,1.92,-0.61,-1.77,-0.75,0.74,
3.774,-0.97,1.92,-0.61,-1.78,-0.73,0.76,
3.777,-0.74,1.52,-0.95,-1.78,-0.73,0.76,
3.778,-0.74,1.52,-0.95,-1.78,-0.70,0.78,
3.778,-0.74,1.52,-0.95,-1.78,-0.68,0.79,
3.78,-0.74,1.52,-0.95,-1.78,-0.66,0.80,
3.783,-0.74,1.52,-0.95,-1.78,-0.64,0.81,
3.79,-0.74,1.52,-0.95,-1.78,-0.61,0.82,
3.79,-0.30,1.04,-1.01,-1.78,-0.61,0.82,
3.79,-0.30,1.04,-1.01,-1.79,-0.58,0.82,
3.794,-0.30,1.04,-1.01,-1.79,-0.55,0.82,
3.794,-0.30,1.04,-1.01,-1.79,-0.50,0.82,
3.794,-0.30,1.04,-1.01,-1.79,-0.48,0.82,
3.794,-0.30,1.04,-1.01,-1.79,-0.45,0.81,
3.798,0.18,0.57,-0.86,-1.79,-0.45,0.81,
3.798,0.18,0.57,-0.86,-1.78,-0.42,0.80,
3.799,0.18,0.57,-0.86,-1.77,-0.38,0.79,
3.815,0.18,0.57,-0.86,-1.76,-0.35,0.78,
3.815,0.18,0.57,-0.86,-1.71,-0.22,0.72,
3.835,0.18,0.57,-0.86,-1.71,-0.22,0.72,
3.835,0.18,0.57,-0.86,-1.71,-0.22,0.72,
3.836,0.93,-0.05,-0.37,-1.71,-0.22,0.72,
3.836,0.93,-0.05,-0.37,-1.67,-0.15,0.68,
3.836,0.93,-0.05,-0.37,-1.64,-0.10,0.65,
3.836,0.93,-0.05,-0.37,-1.62,-0.08,0.64,
3.837,0.93,-0.05,-0.37,-1.58,-0.03,0.60,
3.837,1.54,-0.58,0.28,-1.58,-0.03,0.60,
3.837,1.54,-0.58,0.28,-1.53,0.01,0.57,
3.838,1.54,-0.58,0.28,-1.48,0.05,0.53,
3.838,1.54,-0.58,0.28,-1.42,0.09,0.50,
3.838,1.54,-0.58,0.28,-1.36,0.13,0.45,
3.838,1.54,-0.58,0.28,-1.29,0.16,0.41,
3.839,2.43,-1.18,1.28,-1.29,0.16,0.41,
3.839,2.43,-1.18,1.28,-1.22,0.20,0.36,
3.839,2.43,-1.18,1.28,-1.15,0.23,0.30,
3.839,2.43,-1.18,1.28,-1.08,0.26,0.25,
3.84,2.43,-1.18,1.28,-1.00,0.29,0.19,
3.84,2.43,-1.18,1.28,-0.93,0.31,0.13,
3.84,3.41,-1.55,2.05,-0.93,0.31,0.13,
3.841,3.41,-1.55,2.05,-0.85,0.33,0.07,
3.841,3.41,-1.55,2.05,-0.77,0.35,0.02,
3.841,3.41,-1.55,2.05,-0.69,0.38,-0.04,
3.846,3.41,-1.55,2.05,-0.62,0.41,-0.10,
3.847,3.41,-1.55,2.05,-0.54,0.45,-0.16,
3.847,3.64,-1.61,2.51,-0.54,0.45,-0.16,
3.847,3.64,-1.61,2.51,-0.47,0.49,-0.21,
3.849,3.64,-1.61,2.51,-0.40,0.52,-0.27,
3.85,3.64,-1.61,2.51,-0.33,0.55,-0.31,
3.856,3.64,-1.61,2.51,-0.26,0.57,-0.36,
3.857,3.64,-1.61,2.51,-0.20,0.59,-0.40,
3.857,3.41,-1.08,2.80,-0.20,0.59,-0.40,
3.858,3.41,-1.08,2.80,-0.14,0.60,-0.44,
3.859,3.41,-1.08,2.80,-0.08,0.61,-0.46,
3.86,3.41,-1.08,2.80,-0.02,0.62,-0.49,
3.862,3.41,-1.08,2.80,0.03,0.62,-0.51,
3.864,3.41,-1.08,2.80,0.08,0.63,-0.53,
3.866,2.77,-0.20,3.11,0.08,0.63,-0.53,
3.867,2.77,-0.20,3.11,0.12,0.64,-0.54,
3.868,2.77,-0.20,3.11,0.16,0.66,-0.55,
3.871,2.77,-0.20,3.11,0.17,0.67,-0.55,
3.872,2.77,-0.20,3.11,0.16,0.67,-0.54,
3.874,2.77,-0.20,3.11,0.14,0.67,-0.53,
3.877,2.18,0.70,2.85,0.14,0.67,-0.53,
3.877,2.18,0.70,2.85,0.09,0.66,-0.51,
3.878,2.18,0.70,2.85,0.03,0.64,-0.50,
3.88,2.18,0.70,2.85,-0.05,0.60,-0.47,
3.882,2.18,0.70,2.85,-0.15,0.55,-0.45,
3.885,2.18,0.70,2.85,-0.25,0.49,-0.42,
3.887,1.67,1.26,1.96,-0.25,0.49,-0.42,
3.887,1.67,1.26,1.96,-0.35,0.43,-0.39,
3.888,1.67,1.26,1.96,-0.46,0.36,-0.35,
3.89,1.67,1.26,1.96,-0.56,0.28,-0.32,
3.892,1.67,1.26,1.96,-0.66,0.21,-0.29,
3.894,1.67,1.26,1.96,-0.75,0.13,-0.26,
3.897,1.37,1.41,1.96,-0.75,0.13,-0.26,
3.897,1.37,1.41,1.96,-0.84,0.06,-0.23,
3.898,1.37,1.41,1.96,-0.91,-0.02,-0.20,
3.901,1.37,1.41,1.96,-0.98,-0.09,-0.18,
3.902,1.37,1.41,1.96,-1.03,-0.17,-0.15,
3.904,1.37,1.41,1.96,-1.07,-0.24,-0.13,
3.907,1.10,1.24,2.44,-1.07,-0.24,-0.13,
3.907,1.10,1.24,2.44,-1.11,-0.32,-0.11,
3.908,1.10,1.24,2.44,-1.13,-0.39,-0.09,
3.91,1.10,1.24,2.44,-1.15,-0.46,-0.08,
3.912,1.10,1.24,2.44,-1.17,-0.54,-0.07,
3.914,1.10,1.24,2.44,-1.18,-0.60,-0.06,
3.917,1.17,1.00,2.80,-1.18,-0.60,-0.06,
3.917,1.17,1.00,2.80,-1.18,-0.67,-0.05,
3.919,1.17,1.00,2.80,-1.18,-0.72,-0.05,
3.921,1.17,1.00,2.80,-1.17,-0.78,-0.04,
3.923,1.17,1.00,2.80,-1.16,-0.82,-0.04,
3.925,1.17,1.00,2.80,-1.15,-0.86,-0.05,
3.927,1.50,0.79,2.70,-1.15,-0.86,-0.05,
3.928,1.50,0.79,2.70,-1.13,-0.89,-0.05,
3.928,1.50,0.79,2.70,-1.11,-0.92,-0.06,
3.93,1.50,0.79,2.70,-1.08,-0.95,-0.07,
3.932,1.50,0.79,2.70,-1.05,-0.96,-0.08,
3.943,1.50,0.79,2.70,-1.02,-0.98,-0.09,
3.944,2.01,0.54,2.61,-1.02,-0.98,-0.09,
3.944,2.01,0.54,2.61,-0.98,-0.98,-0.11,
3.944,2.01,0.54,2.61,-0.95,-0.99,-0.12,
3.944,2.01,0.54,2.61,-0.91,-0.99,-0.13,
3.944,2.01,0.54,2.61,-0.87,-0.99,-0.15,
3.945,2.01,0.54,2.61,-0.83,-0.98,-0.16,
3.947,2.30,0.26,2.20,-0.83,-0.98,-0.16,
3.947,2.30,0.26,2.20,-0.80,-0.97,-0.17,
3.949,2.30,0.26,2.20,-0.76,-0.95,-0.19,
3.978,2.30,0.26,2.20,-0.72,-0.93,-0.20,
3.978,2.30,0.26,2.20,-0.68,-0.90,-0.21,
3.979,2.30,0.26,2.20,-0.65,-0.88,-0.22,
3.979,2.43,0.13,1.80,-0.65,-0.88,-0.22,
3.979,2.43,0.13,1.80,-0.61,-0.84,-0.23,
3.979,2.43,0.13,1.80,-0.58,-0.81,-0.24,
3.979,2.43,0.13,1.80,-0.54,-0.77,-0.24,
3.979,2.43,0.13,1.80,-0.51,-0.74,-0.25,
3.979,2.43,0.13,1.80,-0.47,-0.70,-0.25,
3.979,2.33,0.13,1.46,-0.47,-0.70,-0.25,
3.98,2.33,0.13,1.46,-0.44,-0.67,-0.26,
3.98,2.33,0.13,1.46,-0.40,-0.63,-0.25,
3.991,2.33,0.13,1.46,-0.37,-0.59,-0.26,
3.991,2.33,0.13,1.46,-0.33,-0.55,-0.25,
3.991,2.33,0.13,1.46,-0.30,-0.52,-0.25,
3.992,2.27,0.11,1.29,-0.30,-0.52,-0.25,
3.992,2.27,0.11,1.29,-0.27,-0.48,-0.25,
3.992,2.27,0.11,1.29,-0.24,-0.44,-0.24,
3.992,2.27,0.11,1.29,-0.21,-0.41,-0.24,
3.992,2.27,0.11,1.29,-0.18,-0.37,-0.23,
3.992,2.27,0.11,1.29,-0.16,-0.33,-0.23,
3.992,2.24,0.16,0.83,-0.16,-0.33,-0.23,
3.993,2.24,0.16,0.83,-0.14,-0.30,-0.23,
3.993,2.24,0.16,0.83,-0.13,-0.27,-0.23,
3.993,2.24,0.16,0.83,-0.12,-0.24,-0.22,
3.993,2.24,0.16,0.83,-0.12,-0.22,-0.22,
3.995,2.24,0.16,0.83,-0.12,-0.20,-0.21,
3.996,2.09,0.34,0.08,-0.12,-0.20,-0.21,
3.996,2.09,0.34,0.08,-0.13,-0.19,-0.20,
3.998,2.09,0.34,0.08,-0.14,-0.19,-0.19,
4.001,2.09,0.34,0.08,-0.16,-0.19,-0.18,
4.003,2.09,0.34,0.08,-0.19,-0.19,-0.17,
4.004,2.09,0.34,0.08,-0.22,-0.20,-0.16,
4.006,1.56,0.38,-0.60,-0.22,-0.20,-0.16,
4.007,1.56,0.38,-0.60,-0.26,-0.22,-0.15,
4.008,1.56,0.38,-0.60,-0.34,-0.24,-0.14,
4.01,1.56,0.38,-0.60,-0.36,-0.26,-0.14,
4.012,1.56,0.38,-0.60,-0.42,-0.28,-0.14,
4.014,1.56,0.38,-0.60,-0.53,-0.32,-0.14,
4.016,1.26,0.32,-1.26,-0.53,-0.32,-0.14,
4.016,1.26,0.32,-1.26,-0.57,-0.33,-0.14,
4.018,1.26,0.32,-1.26,-0.65,-0.35,-0.14,
4.021,1.26,0.32,-1.26,-0.74,-0.37,-0.14,
4.022,1.26,0.32,-1.26,-0.83,-0.38,-0.14,
4.024,1.26,0.32,-1.26,-0.93,-0.39,-0.15,
4.026,0.97,0.06,-1.70,-0.93,-0.39,-0.15,
4.026,0.97,0.06,-1.70,-1.03,-0.40,-0.16,
4.028,0.97,0.06,-1.70,-1.14,-0.41,-0.17,
4.03,0.97,0.06,-1.70,-1.25,-0.41,-0.17,
4.032,0.97,0.06,-1.70,-1.36,-0.41,-0.18,
4.034,0.97,0.06,-1.70,-1.46,-0.40,-0.19,
4.038,0.60,-0.45,-1.67,-1.46,-0.40,-0.19,
4.038,0.60,-0.45,-1.67,-1.57,-0.38,-0.20,
4.04,0.60,-0.45,-1.67,-1.67,-0.37,-0.20,
4.04,0.60,-0.45,-1.67,-1.77,-0.34,-0.20,
4.042,0.60,-0.45,-1.67,-1.86,-0.31,-0.20,
4.044,0.60,-0.45,-1.67,-1.94,-0.28,-0.20,
4.046,0.14,-1.27,-0.91,-1.94,-0.28,-0.20,
4.047,0.14,-1.27,-0.91,-2.02,-0.24,-0.19,
4.048,0.14,-1.27,-0.91,-2.09,-0.21,-0.18,
4.056,0.14,-1.27,-0.91,-2.16,-0.17,-0.18,
4.056,0.14,-1.27,-0.91,-2.22,-0.13,-0.17,
4.056,0.14,-1.27,-0.91,-2.28,-0.09,-0.16,
4.057,-0.29,-2.35,0.20,-2.28,-0.09,-0.16,
4.057,-0.29,-2.35,0.20,-2.32,-0.04,-0.15,
4.059,-0.29,-2.35,0.20,-2.36,0.00,-0.13,
4.06,-0.29,-2.35,0.20,-2.40,0.04,-0.12,
4.062,-0.29,-2.35,0.20,-2.42,0.08,-0.10,
4.064,-0.29,-2.35,0.20,-2.45,0.12,-0.08,
4.085,-0.75,-3.73,1.23,-2.45,0.12,-0.08,
4.086,-0.75,-3.73,1.23,-2.46,0.15,-0.05,
4.086,-0.75,-3.73,1.23,-2.47,0.18,-0.03,
4.087,-0.75,-3.73,1.23,-2.47,0.21,0.01,
4.087,-0.75,-3.73,1.23,-2.46,0.23,0.04,
4.087,-0.75,-3.73,1.23,-2.45,0.25,0.07,
4.088,-1.27,-5.66,2.23,-2.45,0.25,0.07,
4.088,-1.27,-5.66,2.23,-2.43,0.27,0.11,
4.088,-1.27,-5.66,2.23,-2.41,0.28,0.15,
4.089,-1.27,-5.66,2.23,-2.38,0.28,0.19,
4.089,-1.27,-5.66,2.23,-2.34,0.28,0.23,
4.089,-1.27,-5.66,2.23,-2.30,0.27,0.27,
4.09,-1.46,-7.63,3.11,-2.30,0.27,0.27,
4.09,-1.46,-7.63,3.11,-2.24,0.26,0.31,
4.09,-1.46,-7.63,3.11,-2.18,0.24,0.35,
4.095,-1.46,-7.63,3.11,-2.05,0.18,0.42,
4.095,-1.46,-7.63,3.11,-2.01,0.16,0.44,
4.095,-1.46,-7.63,3.11,-1.98,0.15,0.45,
4.097,-1.34,-8.98,4.09,-1.98,0.15,0.45,
4.098,-1.34,-8.98,4.09,-1.89,0.11,0.48,
4.099,-1.34,-8.98,4.09,-1.79,0.07,0.51,
4.103,-1.34,-8.98,4.09,-1.69,0.03,0.53,
4.105,-1.34,-8.98,4.09,-1.57,-0.01,0.55,
4.106,-1.34,-8.98,4.09,-1.45,-0.04,0.57,
4.111,-1.24,-9.55,5.29,-1.45,-0.04,0.57,
4.112,-1.24,-9.55,5.29,-1.31,-0.07,0.59,
4.113,-1.24,-9.55,5.29,-1.17,-0.09,0.60,
4.113,-1.24,-9.55,5.29,-0.94,-0.09,0.63,
4.114,-1.24,-9.55,5.29,-0.86,-0.09,0.63,
4.114,-1.24,-9.55,5.29,-0.70,-0.09,0.65,
4.119,-1.49,-9.70,6.68,-0.70,-0.09,0.65,
4.12,-1.49,-9.70,6.68,-0.54,-0.08,0.66,
4.12,-1.49,-9.70,6.68,-0.37,-0.06,0.67,
4.12,-1.49,-9.70,6.68,-0.20,-0.04,0.68,
4.124,-1.49,-9.70,6.68,-0.03,-0.02,0.69,
4.125,-1.49,-9.70,6.68,0.14,0.01,0.70,
4.127,-1.91,-9.30,7.42,0.14,0.01,0.70,
4.128,-1.91,-9.30,7.42,0.30,0.04,0.71,
4.129,-1.91,-9.30,7.42,0.46,0.08,0.71,
4.131,-1.91,-9.30,7.42,0.62,0.12,0.71,
4.133,-1.91,-9.30,7.42,0.76,0.17,0.70,
4.137,-1.91,-9.30,7.42,0.90,0.22,0.69,
4.138,-2.17,-8.33,7.51,0.90,0.22,0.69,
4.164,-2.17,-8.33,7.51,1.02,0.27,0.68,
4.165,-2.17,-8.33,7.51,1.13,0.34,0.67,
4.165,-2.17,-8.33,7.51,1.23,0.41,0.65,
4.165,-2.17,-8.33,7.51,1.32,0.48,0.63,
4.165,-2.17,-8.33,7.51,1.40,0.55,0.60,
4.166,-1.71,-6.74,6.75,1.40,0.55,0.60,
4.166,-1.71,-6.74,6.75,1.46,0.63,0.57,
4.166,-1.71,-6.74,6.75,1.50,0.71,0.54,
4.167,-1.71,-6.74,6.75,1.54,0.80,0.51,
4.167,-1.71,-6.74,6.75,1.56,0.88,0.48,
4.167,-1.71,-6.74,6.75,1.58,0.97,0.46,
4.167,-0.72,-4.93,6.28,1.58,0.97,0.46,
4.168,-0.72,-4.93,6.28,1.59,1.07,0.43,
4.168,-0.72,-4.93,6.28,1.59,1.16,0.41,
4.168,-0.72,-4.93,6.28,1.59,1.32,0.39,
4.169,-0.72,-4.93,6.28,1.58,1.38,0.38,
4.169,-0.72,-4.93,6.28,1.58,1.50,0.37,
4.169,0.47,-3.47,6.43,1.58,1.50,0.37,
4.169,0.47,-3.47,6.43,1.59,1.62,0.37,
4.17,0.47,-3.47,6.43,1.59,1.76,0.37,
4.175,0.47,-3.47,6.43,1.61,1.90,0.37,
4.176,0.47,-3.47,6.43,1.64,2.13,0.38,
4.176,0.47,-3.47,6.43,1.66,2.21,0.39,
4.181,1.78,-2.57,7.59,1.66,2.21,0.39,
4.182,1.78,-2.57,7.59,1.70,2.38,0.40,
4.182,1.78,-2.57,7.59,1.75,2.56,0.41,
4.182,1.78,-2.57,7.59,1.84,2.84,0.43,
4.182,1.78,-2.57,7.59,1.88,2.94,0.44,
4.186,1.78,-2.57,7.59,1.95,3.14,0.45,
4.188,3.02,-2.13,8.95,1.95,3.14,0.45,
4.188,3.02,-2.13,8.95,2.04,3.35,0.46,
4.188,3.02,-2.13,8.95,2.13,3.57,0.47,
4.19,3.02,-2.13,8.95,2.28,3.92,0.48,
4.192,3.02,-2.13,8.95,2.39,4.16,0.48,
4.194,3.02,-2.13,8.95,2.45,4.29,0.48,
4.197,4.35,-1.96,11.49,2.45,4.29,0.48,
4.197,4.35,-1.96,11.49,2.66,4.69,0.48,
4.198,4.35,-1.96,11.49,2.74,4.83,0.47,
4.209,4.35,-1.96,11.49,3.00,5.28,0.45,
4.21,4.35,-1.96,11.49,3.18,5.59,0.43,
4.21,4.35,-1.96,11.49,3.28,5.74,0.42,
4.211,5.94,-2.07,14.98,3.28,5.74,0.42,
4.211,5.94,-2.07,14.98,3.57,6.14,0.39,
4.211,5.94,-2.07,14.98,3.66,6.25,0.38,
4.212,5.94,-2.07,14.98,3.91,6.45,0.36,
4.243,5.94,-2.07,14.98,4.04,6.46,0.36,
4.244,5.94,-2.07,14.98,4.11,6.44,0.37,
4.244,6.61,-2.21,15.35,4.11,6.44,0.37,
4.245,6.61,-2.21,15.35,4.25,6.24,0.39,
4.245,6.61,-2.21,15.35,4.28,6.14,0.40,
4.245,6.61,-2.21,15.35,4.34,5.75,0.46,
4.245,6.61,-2.21,15.35,4.34,5.40,0.52,
4.246,6.61,-2.21,15.35,4.32,5.20,0.55,
4.246,4.58,-2.12,9.57,4.32,5.20,0.55,
4.246,4.58,-2.12,9.57,4.22,4.50,0.63,
4.247,4.58,-2.12,9.57,4.17,4.24,0.66,
4.247,4.58,-2.12,9.57,3.99,3.35,0.72,
4.247,4.58,-2.12,9.57,3.83,2.71,0.74,
4.247,4.58,-2.12,9.57,3.75,2.37,0.75,
4.247,3.92,-1.40,0.33,3.75,2.37,0.75,
4.248,3.92,-1.40,0.33,3.47,1.36,0.73,
4.248,3.92,-1.40,0.33,3.27,0.69,0.71,
4.248,3.92,-1.40,0.33,3.06,0.03,0.68,
4.248,3.92,-1.40,0.33,2.85,-0.60,0.64,
4.249,3.92,-1.40,0.33,2.66,-1.18,0.61,
4.249,4.15,-1.65,-7.94,2.66,-1.18,0.61,
4.249,4.15,-1.65,-7.94,2.47,-1.70,0.59,
4.249,4.15,-1.65,-7.94,2.28,-2.15,0.57,
4.254,4.15,-1.65,-7.94,2.10,-2.53,0.56,
4.254,4.15,-1.65,-7.94,1.94,-2.86,0.55,
4.255,4.15,-1.65,-7.94,1.78,-3.15,0.55,
4.257,3.36,-2.89,-13.47,1.78,-3.15,0.55,
4.257,3.36,-2.89,-13.47,1.63,-3.41,0.55,
4.258,3.36,-2.89,-13.47,1.50,-3.64,0.55,
4.26,3.36,-2.89,-13.47,1.36,-3.84,0.55,
4.262,3.36,-2.89,-13.47,1.24,-4.00,0.54,
4.264,3.36,-2.89,-13.47,1.12,-4.12,0.54,
4.267,2.88,-3.39,-14.77,1.12,-4.12,0.54,
4.268,2.88,-3.39,-14.77,1.00,-4.21,0.53,
4.27,2.88,-3.39,-14.77,0.88,-4.26,0.53,
4.27,2.88,-3.39,-14.77,0.77,-4.30,0.52,
4.272,2.88,-3.39,-14.77,0.67,-4.31,0.51,
4.274,2.88,-3.39,-14.77,0.58,-4.30,0.49,
4.277,2.25,-3.21,-15.88,0.58,-4.30,0.49,
4.277,2.25,-3.21,-15.88,0.50,-4.27,0.46,
4.278,2.25,-3.21,-15.88,0.43,-4.22,0.42,
4.28,2.25,-3.21,-15.88,0.38,-4.17,0.38,
4.283,2.25,-3.21,-15.88,0.35,-4.10,0.32,
4.284,2.25,-3.21,-15.88,0.32,-4.02,0.26,
4.286,2.50,-2.43,-15.16,0.32,-4.02,0.26,
4.287,2.50,-2.43,-15.16,0.31,-3.93,0.19,
4.288,2.50,-2.43,-15.16,0.31,-3.84,0.12,
4.29,2.50,-2.43,-15.16,0.30,-3.74,0.04,
4.292,2.50,-2.43,-15.16,0.30,-3.62,-0.03,
4.294,2.50,-2.43,-15.16,0.30,-3.48,-0.12,
4.297,2.25,-1.88,-14.40,0.30,-3.48,-0.12,
4.297,2.25,-1.88,-14.40,0.30,-3.33,-0.21,
4.299,2.25,-1.88,-14.40,0.30,-3.15,-0.29,
4.302,2.25,-1.88,-14.40,0.30,-2.97,-0.38,
4.304,2.25,-1.88,-14.40,0.30,-2.78,-0.46,
4.32,2.25,-1.88,-14.40,0.30,-2.58,-0.53,
4.321,1.34,-0.49,-13.94,0.30,-2.58,-0.53,
4.321,1.34,-0.49,-13.94,0.30,-2.37,-0.61,
4.321,1.34,-0.49,-13.94,0.29,-2.14,-0.68,
4.321,1.34,-0.49,-13.94,0.28,-1.90,-0.74,
4.321,1.34,-0.49,-13.94,0.26,-1.65,-0.81,
4.322,1.34,-0.49,-13.94,0.23,-1.39,-0.87,
4.322,0.29,0.84,-13.78,0.23,-1.39,-0.87,
4.322,0.29,0.84,-13.78,0.20,-1.12,-0.91,
4.322,0.29,0.84,-13.78,0.16,-0.86,-0.96,
4.322,0.29,0.84,-13.78,0.12,-0.60,-1.00,
4.323,0.29,0.84,-13.78,0.09,-0.36,-1.03,
4.325,0.29,0.84,-13.78,0.06,-0.12,-1.06,
4.332,-0.87,1.98,-12.58,0.06,-0.12,-1.06,
4.334,-0.87,1.98,-12.58,0.03,0.11,-1.08,
4.334,-0.87,1.98,-12.58,-0.00,0.32,-1.09,
4.335,-0.87,1.98,-12.58,-0.02,0.50,-1.10,
4.335,-0.87,1.98,-12.58,-0.04,0.65,-1.10,
4.337,-0.87,1.98,-12.58,-0.04,0.76,-1.09,
4.339,-2.13,2.96,-10.05,-0.04,0.76,-1.09,
4.339,-2.13,2.96,-10.05,-0.04,0.84,-1.07,
4.339,-2.13,2.96,-10.05,-0.03,0.89,-1.04,
4.341,-2.13,2.96,-10.05,-0.02,0.92,-1.01,
4.342,-2.13,2.96,-10.05,-0.01,0.93,-0.98,
4.344,-2.13,2.96,-10.05,0.01,0.93,-0.94,
4.346,-3.16,3.91,-6.60,0.01,0.93,-0.94,
4.347,-3.16,3.91,-6.60,0.03,0.91,-0.90,
4.348,-3.16,3.91,-6.60,0.05,0.87,-0.86,
4.354,-3.16,3.91,-6.60,0.08,0.82,-0.82,
4.354,-3.16,3.91,-6.60,0.10,0.77,-0.77,
4.355,-3.16,3.91,-6.60,0.13,0.70,-0.73,
4.356,-3.72,4.36,-4.32,0.13,0.70,-0.73,
4.357,-3.72,4.36,-4.32,0.17,0.65,-0.68,
4.358,-3.72,4.36,-4.32,0.28,0.71,-0.63,
4.36,-3.72,4.36,-4.32,0.58,1.06,-0.60,
4.363,-3.72,4.36,-4.32,1.16,1.78,-0.59,
4.364,-3.72,4.36,-4.32,1.89,2.71,-0.59,
4.385,-2.16,2.81,14.09,1.89,2.71,-0.59,
4.386,-2.16,2.81,14.09,2.65,3.65,-0.59,
4.386,-2.16,2.81,14.09,3.38,4.52,-0.56,
4.386,-2.16,2.81,14.09,4.07,5.32,-0.52,
4.386,-2.16,2.81,14.09,4.68,6.00,-0.45,
4.386,-2.16,2.81,14.09,5.20,6.56,-0.36,
4.387,-1.90,0.06,18.01,5.20,6.56,-0.36,
4.387,-1.90,0.06,18.01,5.63,7.00,-0.26,
4.387,-1.90,0.06,18.01,5.97,7.32,-0.15,
4.387,-1.90,0.06,18.01,6.24,7.51,-0.02,
4.387,-1.90,0.06,18.01,6.45,7.63,0.11,
4.388,-1.90,0.06,18.01,6.61,7.68,0.24,
4.388,-2.63,-1.34,7.06,6.61,7.68,0.24,
4.388,-2.63,-1.34,7.06,6.73,7.67,0.38,
4.389,-2.63,-1.34,7.06,6.83,7.62,0.51,
4.39,-2.63,-1.34,7.06,6.91,7.53,0.64,
4.392,-2.63,-1.34,7.06,6.99,7.42,0.77,
4.394,-2.63,-1.34,7.06,7.06,7.31,0.90,
4.397,-2.69,-1.91,3.01,7.06,7.31,0.90,
4.397,-2.69,-1.91,3.01,7.12,7.21,1.02,
4.399,-2.69,-1.91,3.01,7.15,7.12,1.14,
4.401,-2.69,-1.91,3.01,7.13,7.04,1.25,
4.403,-2.69,-1.91,3.01,7.04,6.96,1.34,
4.405,-2.69,-1.91,3.01,6.87,6.87,1.42,
4.407,-2.45,-1.69,2.78,6.87,6.87,1.42,
4.407,-2.45,-1.69,2.78,6.61,6.77,1.46,
4.408,-2.45,-1.69,2.78,6.24,6.63,1.49,
4.41,-2.45,-1.69,2.78,5.79,6.42,1.48,
4.412,-2.45,-1.69,2.78,5.28,6.15,1.45,
4.414,-2.45,-1.69,2.78,4.73,5.81,1.40,
4.417,-1.18,-0.38,-3.44,4.73,5.81,1.40,
4.417,-1.18,-0.38,-3.44,4.17,5.41,1.33,
4.419,-1.18,-0.38,-3.44,3.61,4.97,1.24,
4.42,-1.18,-0.38,-3.44,3.07,4.50,1.14,
4.422,-1.18,-0.38,-3.44,2.57,4.02,1.03,
4.424,-1.18,-0.38,-3.44,2.12,3.55,0.92,
4.427,0.53,1.25,-6.74,2.12,3.55,0.92,
4.427,0.53,1.25,-6.74,1.72,3.07,0.81,
4.428,0.53,1.25,-6.74,1.37,2.58,0.71,
4.43,0.53,1.25,-6.74,1.09,2.10,0.60,
4.434,0.53,1.25,-6.74,0.85,1.63,0.49,
4.435,0.53,1.25,-6.74,0.67,1.16,0.39,
4.437,1.67,2.05,-4.92,0.67,1.16,0.39,
4.437,1.67,2.05,-4.92,0.54,0.71,0.29,
4.438,1.67,2.05,-4.92,0.45,0.26,0.19,
4.445,1.67,2.05,-4.92,0.37,-0.36,0.06,
4.446,1.67,2.05,-4.92,0.36,-0.55,0.01,
4.446,1.67,2.05,-4.92,0.35,-0.90,-0.07,
4.447,1.85,2.65,-2.68,0.35,-0.90,-0.07,
4.447,1.85,2.65,-2.68,0.36,-1.21,-0.15,
4.449,1.85,2.65,-2.68,0.37,-1.48,-0.23,
4.45,1.85,2.65,-2.68,0.40,-1.70,-0.30,
4.453,1.85,2.65,-2.68,0.43,-1.87,-0.37,
4.455,1.85,2.65,-2.68,0.47,-2.00,-0.43,
4.457,1.57,3.41,-3.03,0.47,-2.00,-0.43,
4.457,1.57,3.41,-3.03,0.51,-2.08,-0.49,
4.458,1.57,3.41,-3.03,0.55,-2.11,-0.55,
4.46,1.57,3.41,-3.03,0.59,-2.09,-0.59,
4.462,1.57,3.41,-3.03,0.62,-2.03,-0.64,
4.465,1.57,3.41,-3.03,0.65,-1.94,-0.66,
4.467,0.62,4.29,-4.63,0.65,-1.94,-0.66,
4.468,0.62,4.29,-4.63,0.67,-1.81,-0.68,
4.469,0.62,4.29,-4.63,0.70,-1.65,-0.69,
4.488,0.62,4.29,-4.63,0.73,-1.47,-0.69,
4.488,0.62,4.29,-4.63,0.76,-1.28,-0.68,
4.489,0.62,4.29,-4.63,0.80,-1.07,-0.67,
4.489,-0.40,4.88,-5.61,0.80,-1.07,-0.67,
4.489,-0.40,4.88,-5.61,0.83,-0.84,-0.66,
4.49,-0.40,4.88,-5.61,0.86,-0.60,-0.64,
4.49,-0.40,4.88,-5.61,0.89,-0.35,-0.62,
4.49,-0.40,4.88,-5.61,0.92,-0.09,-0.59,
4.49,-0.40,4.88,-5.61,0.95,0.18,-0.55,
4.491,-0.93,4.84,-5.83,0.95,0.18,-0.55,
4.491,-0.93,4.84,-5.83,0.98,0.46,-0.51,
4.491,-0.93,4.84,-5.83,1.00,0.73,-0.46,
4.492,-0.93,4.84,-5.83,1.03,1.00,-0.41,
4.492,-0.93,4.84,-5.83,1.05,1.27,-0.36,
4.505,-0.93,4.84,-5.83,1.07,1.52,-0.30,
4.506,-1.37,4.12,-5.92,1.07,1.52,-0.30,
4.506,-1.37,4.12,-5.92,1.08,1.75,-0.23,
4.506,-1.37,4.12,-5.92,1.09,1.97,-0.16,
4.507,-1.37,4.12,-5.92,1.09,2.17,-0.09,
4.507,-1.37,4.12,-5.92,1.09,2.34,-0.01,
4.507,-1.37,4.12,-5.92,1.08,2.49,0.07,
4.507,-1.33,3.52,-5.39,1.08,2.49,0.07,
4.508,-1.33,3.52,-5.39,1.07,2.62,0.14,
4.51,-1.33,3.52,-5.39,1.05,2.72,0.21,
4.514,-1.33,3.52,-5.39,1.02,2.79,0.27,
4.514,-1.33,3.52,-5.39,1.00,2.84,0.33,
4.515,-1.33,3.52,-5.39,0.96,2.87,0.38,
4.53,-0.59,3.16,-4.81,0.96,2.87,0.38,
4.531,-0.59,3.16,-4.81,0.92,2.87,0.43,
4.532,-0.59,3.16,-4.81,0.88,2.85,0.46,
4.532,-0.59,3.16,-4.81,0.83,2.81,0.49,
4.532,-0.59,3.16,-4.81,0.77,2.74,0.50,
4.532,-0.59,3.16,-4.81,0.71,2.66,0.52,
4.532,0.58,2.98,-4.17,0.71,2.66,0.52,
4.533,0.58,2.98,-4.17,0.64,2.55,0.52,
4.533,0.58,2.98,-4.17,0.56,2.42,0.51,
4.533,0.58,2.98,-4.17,0.48,2.28,0.50,
4.533,0.58,2.98,-4.17,0.39,2.13,0.49,
4.535,0.58,2.98,-4.17,0.31,1.97,0.46,
4.537,1.29,2.70,-3.99,0.31,1.97,0.46,
4.537,1.29,2.70,-3.99,0.22,1.80,0.44,
4.538,1.29,2.70,-3.99,0.12,1.63,0.41,
4.54,1.29,2.70,-3.99,0.03,1.46,0.38,
4.542,1.29,2.70,-3.99,-0.07,1.30,0.34,
4.544,1.29,2.70,-3.99,-0.18,1.14,0.31,
4.546,1.14,2.65,-4.13,-0.18,1.14,0.31,
4.547,1.14,2.65,-4.13,-0.28,0.99,0.27,
4.548,1.14,2.65,-4.13,-0.38,0.85,0.24,
4.55,1.14,2.65,-4.13,-0.49,0.72,0.20,
4.552,1.14,2.65,-4.13,-0.59,0.61,0.17,
4.554,1.14,2.65,-4.13,-0.69,0.51,0.14,
4.556,0.68,2.72,-4.85,-0.69,0.51,0.14,
4.557,0.68,2.72,-4.85,-0.79,0.42,0.11,
4.558,0.68,2.72,-4.85,-0.89,0.34,0.08,
4.56,0.68,2.72,-4.85,-0.99,0.28,0.05,
4.562,0.68,2.72,-4.85,-1.08,0.22,0.02,
4.564,0.68,2.72,-4.85,-1.18,0.18,-0.01,
4.567,0.24,2.93,-5.36,-1.18,0.18,-0.01,
4.567,0.24,2.93,-5.36,-1.27,0.14,-0.03,
4.568,0.24,2.93,-5.36,-1.36,0.10,-0.06,
4.571,0.24,2.93,-5.36,-1.45,0.07,-0.09,
4.572,0.24,2.93,-5.36,-1.53,0.05,-0.11,
4.574,0.24,2.93,-5.36,-1.61,0.03,-0.13,
4.577,-0.23,3.09,-5.89,-1.61,0.03,-0.13,
4.577,-0.23,3.09,-5.89,-1.69,0.01,-0.16,
4.578,-0.23,3.09,-5.89,-1.76,-0.01,-0.18,
4.58,-0.23,3.09,-5.89,-1.83,-0.02,-0.20,
4.582,-0.23,3.09,-5.89,-1.90,-0.04,-0.22,
4.585,-0.23,3.09,-5.89,-1.96,-0.05,-0.24,
4.586,-0.43,3.44,-5.87,-1.96,-0.05,-0.24,
4.586,-0.43,3.44,-5.87,-2.02,-0.06,-0.25,
4.588,-0.43,3.44,-5.87,-2.08,-0.07,-0.27,
4.59,-0.43,3.44,-5.87,-2.14,-0.08,-0.30,
4.592,-0.43,3.44,-5.87,-2.19,-0.08,-0.31,
4.594,-0.43,3.44,-5.87,-2.24,-0.08,-0.33,
4.597,-0.41,3.64,-5.99,-2.24,-0.08,-0.33,
4.597,-0.41,3.64,-5.99,-2.30,-0.07,-0.35,
4.599,-0.41,3.64,-5.99,-2.35,-0.07,-0.38,
4.601,-0.41,3.64,-5.99,-2.39,-0.06,-0.40,
4.602,-0.41,3.64,-5.99,-2.44,-0.06,-0.42,
4.605,-0.41,3.64,-5.99,-2.49,-0.05,-0.45,
4.607,-0.23,3.88,-5.62,-2.49,-0.05,-0.45,
4.607,-0.23,3.88,-5.62,-2.53,-0.04,-0.47,
4.608,-0.23,3.88,-5.62,-2.58,-0.04,-0.50,
4.61,-0.23,3.88,-5.62,-2.62,-0.05,-0.53,
4.612,-0.23,3.88,-5.62,-2.67,-0.05,-0.57,
4.617,-0.23,3.88,-5.62,-2.71,-0.07,-0.61,
4.617,0.46,3.94,-5.00,-2.71,-0.07,-0.61,
4.618,0.46,3.94,-5.00,-2.76,-0.08,-0.66,
4.619,0.46,3.94,-5.00,-2.80,-0.10,-0.70,
4.621,0.46,3.94,-5.00,-2.85,-0.13,-0.74,
4.622,0.46,3.94,-5.00,-2.90,-0.15,-0.77,
4.624,0.46,3.94,-5.00,-2.96,-0.18,-0.80,
4.626,1.27,3.84,-3.90,-2.96,-0.18,-0.80,
4.626,1.27,3.84,-3.90,-3.01,-0.20,-0.83,
4.628,1.27,3.84,-3.90,-3.06,-0.22,-0.85,
4.63,1.27,3.84,-3.90,-3.12,-0.23,-0.87,
4.634,1.27,3.84,-3.90,-3.18,-0.24,-0.88,
4.634,1.27,3.84,-3.90,-3.23,-0.25,-0.89,
4.636,1.57,3.48,-2.59,-3.23,-0.25,-0.89,
4.646,1.57,3.48,-2.59,-3.29,-0.27,-0.90,
4.646,1.57,3.48,-2.59,-3.35,-0.29,-0.91,
4.646,1.57,3.48,-2.59,-3.40,-0.32,-0.92,
4.646,1.57,3.48,-2.59,-3.46,-0.35,-0.92,
4.646,1.57,3.48,-2.59,-3.51,-0.39,-0.93,
4.647,1.78,2.87,-0.55,-3.51,-0.39,-0.93,
4.647,1.78,2.87,-0.55,-3.57,-0.43,-0.93,
4.648,1.78,2.87,-0.55,-3.63,-0.49,-0.94,
4.65,1.78,2.87,-0.55,-3.69,-0.55,-0.95,
4.652,1.78,2.87,-0.55,-3.75,-0.63,-0.96,
4.654,1.78,2.87,-0.55,-3.81,-0.70,-0.97,
4.656,2.50,1.72,2.02,-3.81,-0.70,-0.97,
4.656,2.50,1.72,2.02,-3.87,-0.78,-0.98,
4.658,2.50,1.72,2.02,-3.92,-0.87,-0.99,
4.66,2.50,1.72,2.02,-3.98,-0.96,-1.00,
4.662,2.50,1.72,2.02,-4.02,-1.05,-1.01,
4.664,2.50,1.72,2.02,-4.05,-1.15,-1.01,
4.666,3.20,-0.08,5.11,-4.05,-1.15,-1.01,
4.666,3.20,-0.08,5.11,-4.07,-1.25,-1.02,
4.668,3.20,-0.08,5.11,-4.07,-1.35,-1.03,
4.67,3.20,-0.08,5.11,-4.04,-1.45,-1.03,
4.672,3.20,-0.08,5.11,-3.98,-1.54,-1.02,
4.674,3.20,-0.08,5.11,-3.88,-1.61,-0.99,
4.676,2.90,-2.58,11.59,-3.88,-1.61,-0.99,
4.676,2.90,-2.58,11.59,-3.72,-1.62,-0.95,
4.678,2.90,-2.58,11.59,-3.51,-1.55,-0.90,
4.68,2.90,-2.58,11.59,-3.23,-1.40,-0.83,
4.682,2.90,-2.58,11.59,-2.94,-1.18,-0.76,
4.684,2.90,-2.58,11.59,-2.63,-0.93,-0.69,
4.687,0.41,-5.41,20.90,-2.63,-0.93,-0.69,
4.687,0.41,-5.41,20.90,-2.34,-0.66,-0.63,
4.688,0.41,-5.41,20.90,-2.07,-0.40,-0.57,
4.69,0.41,-5.41,20.90,-1.82,-0.14,-0.53,
4.692,0.41,-5.41,20.90,-1.60,0.08,-0.50,
4.694,0.41,-5.41,20.90,-1.41,0.28,-0.48,
4.696,0.40,-7.36,20.77,-1.41,0.28,-0.48,
4.697,0.40,-7.36,20.77,-1.25,0.46,-0.47,
4.699,0.40,-7.36,20.77,-1.11,0.62,-0.47,
4.701,0.40,-7.36,20.77,-1.00,0.74,-0.47,
4.702,0.40,-7.36,20.77,-0.92,0.84,-0.48,
4.704,0.40,-7.36,20.77,-0.85,0.91,-0.49,
4.706,0.99,-7.56,15.76,-0.85,0.91,-0.49,
4.707,0.99,-7.56,15.76,-0.80,0.96,-0.50,
4.708,0.99,-7.56,15.76,-0.76,0.98,-0.51,
4.71,0.99,-7.56,15.76,-0.72,0.98,-0.52,
4.713,0.99,-7.56,15.76,-0.69,0.95,-0.52,
4.714,0.99,-7.56,15.76,-0.65,0.91,-0.52,
4.716,0.56,-6.01,11.45,-0.65,0.91,-0.52,
4.717,0.56,-6.01,11.45,-0.62,0.85,-0.52,
4.718,0.56,-6.01,11.45,-0.58,0.77,-0.51,
4.72,0.56,-6.01,11.45,-0.54,0.69,-0.49,
4.722,0.56,-6.01,11.45,-0.50,0.60,-0.48,
4.724,0.56,-6.01,11.45,-0.45,0.50,-0.46,
4.726,-0.78,-4.22,8.74,-0.45,0.50,-0.46,
4.727,-0.78,-4.22,8.74,-0.40,0.40,-0.43,
4.728,-0.78,-4.22,8.74,-0.36,0.30,-0.40,
4.731,-0.78,-4.22,8.74,-0.30,0.21,-0.37,
4.733,-0.78,-4.22,8.74,-0.25,0.13,-0.33,
4.734,-0.78,-4.22,8.74,-0.20,0.05,-0.29,
4.737,-2.51,-2.93,7.11,-0.20,0.05,-0.29,
4.737,-2.51,-2.93,7.11,-0.15,-0.03,-0.25,
4.738,-2.51,-2.93,7.11,-0.11,-0.10,-0.21,
4.74,-2.51,-2.93,7.11,-0.08,-0.16,-0.17,
4.742,-2.51,-2.93,7.11,-0.06,-0.21,-0.14,
4.744,-2.51,-2.93,7.11,-0.04,-0.25,-0.10,
4.747,-3.48,-2.36,5.10,-0.04,-0.25,-0.10,
4.748,-3.48,-2.36,5.10,-0.03,-0.27,-0.07,
4.748,-3.48,-2.36,5.10,-0.02,-0.29,-0.03,
4.753,-3.48,-2.36,5.10,-0.01,-0.29,-0.00,
4.754,-3.48,-2.36,5.10,-0.02,-0.27,0.03,
4.755,-3.48,-2.36,5.10,-0.02,-0.24,0.06,
4.757,-4.20,-3.27,4.55,-0.02,-0.24,0.06,
4.758,-4.20,-3.27,4.55,-0.02,-0.21,0.09,
4.758,-4.20,-3.27,4.55,-0.01,-0.17,0.12,
4.761,-4.20,-3.27,4.55,-0.00,-0.13,0.14,
4.763,-4.20,-3.27,4.55,0.01,-0.11,0.16,
4.766,-4.20,-3.27,4.55,0.02,-0.11,0.18,
4.779,-4.24,-4.42,4.55,0.02,-0.11,0.18,
4.783,-4.24,-4.42,4.55,0.04,-0.12,0.20,
4.783,-4.24,-4.42,4.55,0.06,-0.17,0.21,
4.783,-4.24,-4.42,4.55,0.08,-0.24,0.22,
4.783,-4.24,-4.42,4.55,0.10,-0.33,0.23,
4.784,-4.24,-4.42,4.55,0.13,-0.44,0.24,
4.784,-3.81,-4.98,3.51,0.13,-0.44,0.24,
4.784,-3.81,-4.98,3.51,0.15,-0.56,0.25,
4.785,-3.81,-4.98,3.51,0.19,-0.71,0.25,
4.785,-3.81,-4.98,3.51,0.22,-0.86,0.25,
4.785,-3.81,-4.98,3.51,0.25,-1.02,0.24,
4.786,-3.81,-4.98,3.51,0.29,-1.19,0.24,
4.787,-3.18,-4.67,2.07,0.29,-1.19,0.24,
4.787,-3.18,-4.67,2.07,0.32,-1.36,0.22,
4.788,-3.18,-4.67,2.07,0.35,-1.51,0.21,
4.796,-3.18,-4.67,2.07,0.40,-1.71,0.19,
4.796,-3.18,-4.67,2.07,0.42,-1.75,0.19,
4.796,-3.18,-4.67,2.07,0.46,-1.82,0.17,
4.815,-2.41,-3.07,0.17,0.46,-1.82,0.17,
4.818,-2.41,-3.07,0.17,0.49,-1.87,0.16,
4.819,-2.41,-3.07,0.17,0.52,-1.89,0.15,
4.82,-2.41,-3.07,0.17,0.55,-1.88,0.14,
4.82,-2.41,-3.07,0.17,0.62,-1.77,0.13,
4.851,-2.41,-3.07,0.17,0.62,-1.77,0.13,
4.852,-2.41,-3.07,0.17,0.62,-1.77,0.13,
4.853,-1.35,-0.19,-2.13,0.62,-1.77,0.13,
4.853,-1.35,-0.19,-2.13,0.64,-1.66,0.14,
4.854,-1.35,-0.19,-2.13,0.66,-1.58,0.14,
4.854,-1.35,-0.19,-2.13,0.66,-1.53,0.15,
4.855,-1.35,-0.19,-2.13,0.68,-1.45,0.16,
4.855,-0.94,1.19,-3.11,0.68,-1.45,0.16,
4.855,-0.94,1.19,-3.11,0.69,-1.36,0.18,
4.856,-0.94,1.19,-3.11,0.70,-1.26,0.20,
4.856,-0.94,1.19,-3.11,0.70,-1.16,0.22,
4.857,-0.94,1.19,-3.11,0.70,-1.06,0.24,
4.857,-0.94,1.19,-3.11,0.69,-0.95,0.27,
4.858,-0.67,2.70,-3.30,0.69,-0.95,0.27,
4.859,-0.67,2.70,-3.30,0.68,-0.84,0.30,
4.859,-0.67,2.70,-3.30,0.66,-0.73,0.33,
4.86,-0.67,2.70,-3.30,0.63,-0.63,0.37,
4.861,-0.67,2.70,-3.30,0.60,-0.53,0.41,
4.861,-0.67,2.70,-3.30,0.56,-0.43,0.45,
4.861,-0.32,3.75,-3.00,0.56,-0.43,0.45,
4.862,-0.32,3.75,-3.00,0.50,-0.34,0.50,
4.862,-0.32,3.75,-3.00,0.45,-0.24,0.55,
4.862,-0.32,3.75,-3.00,0.39,-0.14,0.60,
4.862,-0.32,3.75,-3.00,0.32,-0.04,0.65,
4.863,-0.32,3.75,-3.00,0.24,0.07,0.70,
4.863,0.14,4.22,-2.51,0.24,0.07,0.70,
4.863,0.14,4.22,-2.51,0.17,0.19,0.75,
4.863,0.14,4.22,-2.51,0.09,0.32,0.80,
4.864,0.14,4.22,-2.51,0.02,0.47,0.85,
4.864,0.14,4.22,-2.51,-0.05,0.62,0.90,
4.864,0.14,4.22,-2.51,-0.12,0.77,0.94,
4.864,1.08,4.39,-2.00,-0.12,0.77,0.94,
4.865,1.08,4.39,-2.00,-0.19,0.93,0.98,
4.865,1.08,4.39,-2.00,-0.24,1.08,1.02,
4.865,1.08,4.39,-2.00,-0.29,1.23,1.05,
4.865,1.08,4.39,-2.00,-0.34,1.37,1.08,
4.865,1.08,4.39,-2.00,-0.39,1.50,1.09,
4.872,2.49,4.00,-2.10,-0.39,1.50,1.09,
4.873,2.49,4.00,-2.10,-0.43,1.63,1.09,
4.873,2.49,4.00,-2.10,-0.47,1.75,1.09,
4.873,2.49,4.00,-2.10,-0.51,1.87,1.06,
4.874,2.49,4.00,-2.10,-0.55,1.99,1.03,
4.874,2.49,4.00,-2.10,-0.60,2.11,0.99,
4.877,5.12,2.46,-3.75,-0.60,2.11,0.99,
4.877,5.12,2.46,-3.75,-0.64,2.23,0.93,
4.879,5.12,2.46,-3.75,-0.68,2.35,0.87,
4.889,5.12,2.46,-3.75,-0.73,2.47,0.79,
4.89,5.12,2.46,-3.75,-0.78,2.59,0.71,
4.89,5.12,2.46,-3.75,-0.83,2.71,0.62,
4.891,7.60,0.54,-5.59,-0.83,2.71,0.62,
4.891,7.60,0.54,-5.59,-0.89,2.83,0.51,
4.891,7.60,0.54,-5.59,-0.95,2.95,0.40,
4.893,7.60,0.54,-5.59,-1.00,3.07,0.28,
4.894,7.60,0.54,-5.59,-1.05,3.18,0.15,
4.894,7.60,0.54,-5.59,-1.09,3.28,0.02,
4.905,10.01,-1.18,-6.77,-1.09,3.28,0.02,
4.906,10.01,-1.18,-6.77,-1.13,3.38,-0.12,
4.906,10.01,-1.18,-6.77,-1.17,3.47,-0.26,
4.906,10.01,-1.18,-6.77,-1.21,3.56,-0.41,
4.907,10.01,-1.18,-6.77,-1.23,3.64,-0.55,
4.907,10.01,-1.18,-6.77,-1.26,3.71,-0.70,
4.907,11.26,-2.59,-6.49,-1.26,3.71,-0.70,
4.907,11.26,-2.59,-6.49,-1.28,3.77,-0.83,
4.909,11.26,-2.59,-6.49,-1.29,3.83,-0.97,
4.911,11.26,-2.59,-6.49,-1.30,3.88,-1.10,
4.944,11.26,-2.59,-6.49,-1.30,3.92,-1.22,
4.945,11.26,-2.59,-6.49,-1.30,3.96,-1.33,
4.945,11.26,-3.42,-5.54,-1.30,3.96,-1.33,
4.945,11.26,-3.42,-5.54,-1.29,3.99,-1.43,
4.945,11.26,-3.42,-5.54,-1.27,4.01,-1.52,
4.946,11.26,-3.42,-5.54,-1.26,4.02,-1.59,
4.946,11.26,-3.42,-5.54,-1.24,4.01,-1.64,
4.946,11.26,-3.42,-5.54,-1.21,3.98,-1.68,
4.946,9.12,-3.68,-3.82,-1.21,3.98,-1.68,
4.946,9.12,-3.68,-3.82,-1.19,3.94,-1.70,
4.947,9.12,-3.68,-3.82,-1.16,3.87,-1.71,
4.947,9.12,-3.68,-3.82,-1.15,3.77,-1.71,
4.947,9.12,-3.68,-3.82,-1.14,3.66,-1.70,
4.947,9.12,-3.68,-3.82,-1.14,3.53,-1.68,
4.947,6.92,-3.53,-2.45,-1.14,3.53,-1.68,
4.948,6.92,-3.53,-2.45,-1.14,3.39,-1.65,
4.948,6.92,-3.53,-2.45,-1.15,3.24,-1.62,
4.948,6.92,-3.53,-2.45,-1.16,3.08,-1.59,
4.948,6.92,-3.53,-2.45,-1.19,2.91,-1.55,
4.948,6.92,-3.53,-2.45,-1.21,2.74,-1.51,
4.949,5.28,-3.12,-1.66,-1.21,2.74,-1.51,
4.949,5.28,-3.12,-1.66,-1.25,2.57,-1.48,
4.957,5.28,-3.12,-1.66,-1.29,2.39,-1.44,
4.957,5.28,-3.12,-1.66,-1.33,2.22,-1.40,
4.957,5.28,-3.12,-1.66,-1.38,2.06,-1.36,
4.957,5.28,-3.12,-1.66,-1.43,1.89,-1.32,
4.958,4.06,-2.22,-1.27,-1.43,1.89,-1.32,
4.958,4.06,-2.22,-1.27,-1.48,1.73,-1.28,
4.958,4.06,-2.22,-1.27,-1.53,1.58,-1.25,
4.96,4.06,-2.22,-1.27,-1.58,1.43,-1.22,
4.962,4.06,-2.22,-1.27,-1.62,1.28,-1.19,
4.971,4.06,-2.22,-1.27,-1.67,1.13,-1.18,
4.972,2.89,-1.25,-0.53,-1.67,1.13,-1.18,
4.972,2.89,-1.25,-0.53,-1.71,0.98,-1.17,
4.972,2.89,-1.25,-0.53,-1.75,0.84,-1.17,
4.99,2.89,-1.25,-0.53,-1.78,0.69,-1.19,
4.99,2.89,-1.25,-0.53,-1.81,0.55,-1.22,
4.991,2.89,-1.25,-0.53,-1.83,0.39,-1.25,
4.991,2.39,-0.64,0.46,-1.83,0.39,-1.25,
4.991,2.39,-0.64,0.46,-1.86,0.23,-1.29,
