
time,ax,ay,az,wx,wy,wz,
0.004,-1.32,-0.21,-2.09,-0.41,-0.92,0.35,
0.005,-1.32,-0.21,-2.09,-0.43,-0.92,0.36,
0.005,-1.32,-0.21,-2.09,-0.47,-0.92,0.39,
0.005,-1.14,-0.38,-2.12,-0.47,-0.92,0.39,
0.005,-1.14,-0.38,-2.12,-0.51,-0.92,0.41,
0.005,-1.14,-0.38,-2.12,-0.56,-0.92,0.43,
0.005,-1.14,-0.38,-2.12,-0.62,-0.93,0.46,
0.008,-1.14,-0.38,-2.12,-0.64,-0.94,0.47,
0.009,-1.14,-0.38,-2.12,-0.67,-0.95,0.48,
0.015,-0.65,-0.52,-1.87,-0.67,-0.95,0.48,
0.016,-0.65,-0.52,-1.87,-0.71,-0.98,0.49,
0.016,-0.65,-0.52,-1.87,-0.74,-1.00,0.51,
0.016,-0.65,-0.52,-1.87,-0.78,-1.04,0.52,
0.017,-0.65,-0.52,-1.87,-0.79,-1.06,0.52,
0.018,-0.65,-0.52,-1.87,-0.81,-1.09,0.53,
0.019,-0.36,-0.72,-1.34,-0.81,-1.09,0.53,
0.019,-0.36,-0.72,-1.34,-0.83,-1.13,0.54,
0.021,-0.36,-0.72,-1.34,-0.84,-1.16,0.55,
0.024,-0.36,-0.72,-1.34,-0.85,-1.22,0.55,
0.024,-0.36,-0.72,-1.34,-0.85,-1.24,0.55,
0.027,-0.36,-0.72,-1.34,-0.85,-1.27,0.56,
0.028,-0.28,-0.92,-0.89,-0.85,-1.27,0.56,
0.028,-0.28,-0.92,-0.89,-0.85,-1.30,0.56,
0.032,-0.28,-0.92,-0.89,-0.84,-1.34,0.56,
0.034,-0.28,-0.92,-0.89,-0.83,-1.38,0.55,
0.034,-0.28,-0.92,-0.89,-0.82,-1.39,0.55,
0.036,-0.28,-0.92,-0.89,-0.81,-1.42,0.55,
0.041,-0.39,-0.96,-0.63,-0.81,-1.42,0.55,
0.042,-0.39,-0.96,-0.63,-0.80,-1.44,0.55,
0.044,-0.39,-0.96,-0.63,-0.78,-1.47,0.55,
0.045,-0.39,-0.96,-0.63,-0.76,-1.50,0.55,
0.046,-0.39,-0.96,-0.63,-0.75,-1.51,0.55,
0.047,-0.39,-0.96,-0.63,-0.73,-1.53,0.55,
0.049,-0.56,-0.91,-0.27,-0.73,-1.53,0.55,
0.049,-0.56,-0.91,-0.27,-0.70,-1.55,0.56,
0.051,-0.56,-0.91,-0.27,-0.68,-1.55,0.56,
0.053,-0.56,-0.91,-0.27,-0.64,-1.56,0.57,
0.054,-0.56,-0.91,-0.27,-0.62,-1.56,0.57,
0.056,-0.56,-0.91,-0.27,-0.59,-1.56,0.58,
0.059,-0.67,-0.87,0.39,-0.59,-1.56,0.58,
0.06,-0.67,-0.87,0.39,-0.55,-1.55,0.58,
0.062,-0.67,-0.87,0.39,-0.52,-1.55,0.59,
0.064,-0.67,-0.87,0.39,-0.46,-1.53,0.60,
0.066,-0.67,-0.87,0.39,-0.43,-1.52,0.61,
0.067,-0.67,-0.87,0.39,-0.39,-1.52,0.61,
0.069,-0.67,-0.83,1.03,-0.39,-1.52,0.61,
0.069,-0.67,-0.83,1.03,-0.36,-1.51,0.62,
0.07,-0.67,-0.83,1.03,-0.32,-1.52,0.62,
0.074,-0.67,-0.83,1.03,-0.26,-1.54,0.63,
0.074,-0.67,-0.83,1.03,-0.24,-1.55,0.63,
0.078,-0.67,-0.83,1.03,-0.19,-1.59,0.63,
0.08,-0.55,-0.80,1.30,-0.19,-1.59,0.63,
0.081,-0.55,-0.80,1.30,-0.17,-1.60,0.63,
0.081,-0.55,-0.80,1.30,-0.14,-1.62,0.62,
0.083,-0.55,-0.80,1.30,-0.09,-1.63,0.61,
0.085,-0.55,-0.80,1.30,-0.08,-1.64,0.60,
0.086,-0.55,-0.80,1.30,-0.05,-1.64,0.59,
0.089,-0.27,-0.67,0.99,-0.05,-1.64,0.59,
0.089,-0.27,-0.67,0.99,-0.03,-1.64,0.58,
0.09,-0.27,-0.67,0.99,-0.01,-1.64,0.57,
0.093,-0.27,-0.67,0.99,0.01,-1.65,0.56,
0.095,-0.27,-0.67,0.99,0.01,-1.66,0.55,
0.097,-0.27,-0.67,0.99,0.02,-1.67,0.55,
0.1,-0.08,-0.51,0.24,0.02,-1.67,0.55,
0.1,-0.08,-0.51,0.24,0.02,-1.68,0.54,
0.104,-0.08,-0.51,0.24,0.03,-1.69,0.53,
0.104,-0.08,-0.51,0.24,0.02,-1.70,0.53,
0.105,-0.08,-0.51,0.24,0.02,-1.71,0.53,
0.107,-0.08,-0.51,0.24,0.01,-1.71,0.53,
0.109,-0.15,-0.35,-0.48,0.01,-1.71,0.53,
0.109,-0.15,-0.35,-0.48,0.00,-1.72,0.53,
0.112,-0.15,-0.35,-0.48,-0.01,-1.72,0.53,
0.115,-0.15,-0.35,-0.48,-0.04,-1.74,0.53,
0.116,-0.15,-0.35,-0.48,-0.05,-1.74,0.53,
0.116,-0.15,-0.35,-0.48,-0.08,-1.76,0.54,
0.119,-0.36,-0.30,-1.13,-0.08,-1.76,0.54,
0.119,-0.36,-0.30,-1.13,-0.10,-1.77,0.54,
0.122,-0.36,-0.30,-1.13,-0.13,-1.78,0.55,
0.123,-0.36,-0.30,-1.13,-0.17,-1.81,0.57,
0.125,-0.36,-0.30,-1.13,-0.19,-1.82,0.57,
0.129,-0.36,-0.30,-1.13,-0.21,-1.84,0.58,
0.129,-0.58,-0.42,-1.54,-0.21,-1.84,0.58,
0.13,-0.58,-0.42,-1.54,-0.24,-1.86,0.59,
0.131,-0.58,-0.42,-1.54,-0.27,-1.88,0.60,
0.134,-0.58,-0.42,-1.54,-0.30,-1.92,0.61,
0.135,-0.58,-0.42,-1.54,-0.31,-1.93,0.62,
0.137,-0.58,-0.42,-1.54,-0.33,-1.97,0.63,
0.139,-0.75,-0.54,-1.47,-0.33,-1.97,0.63,
0.139,-0.75,-0.54,-1.47,-0.35,-2.01,0.64,
0.141,-0.75,-0.54,-1.47,-0.37,-2.05,0.65,
0.152,-0.75,-0.54,-1.47,-0.39,-2.12,0.66,
0.153,-0.75,-0.54,-1.47,-0.40,-2.15,0.66,
0.154,-0.75,-0.54,-1.47,-0.41,-2.20,0.68,
0.154,-0.74,-0.70,-1.07,-0.41,-2.20,0.68,
0.154,-0.74,-0.70,-1.07,-0.42,-2.26,0.69,
0.155,-0.74,-0.70,-1.07,-0.44,-2.31,0.70,
0.155,-0.74,-0.70,-1.07,-0.45,-2.38,0.71,
0.156,-0.74,-0.70,-1.07,-0.45,-2.39,0.71,
0.158,-0.74,-0.70,-1.07,-0.45,-2.43,0.72,
0.161,-0.75,-0.86,-0.58,-0.45,-2.43,0.72,
0.162,-0.75,-0.86,-0.58,-0.46,-2.45,0.73,
0.162,-0.75,-0.86,-0.58,-0.45,-2.47,0.74,
0.206,-0.75,-0.86,-0.58,-0.45,-2.47,0.75,
0.207,-0.75,-0.86,-0.58,-0.45,-2.47,0.76,
0.207,-0.75,-0.86,-0.58,-0.44,-2.46,0.77,
0.208,-1.11,-0.78,-0.11,-0.44,-2.46,0.77,
0.208,-1.11,-0.78,-0.11,-0.43,-2.45,0.79,
0.208,-1.11,-0.78,-0.11,-0.42,-2.44,0.81,
0.209,-1.11,-0.78,-0.11,-0.40,-2.42,0.84,
0.209,-1.11,-0.78,-0.11,-0.39,-2.42,0.86,
0.209,-1.11,-0.78,-0.11,-0.38,-2.42,0.87,
0.209,-1.41,-0.55,-0.02,-0.38,-2.42,0.87,
0.21,-1.41,-0.55,-0.02,-0.36,-2.41,0.89,
0.21,-1.41,-0.55,-0.02,-0.34,-2.41,0.91,
0.21,-1.41,-0.55,-0.02,-0.31,-2.41,0.92,
0.211,-1.41,-0.55,-0.02,-0.31,-2.41,0.93,
0.211,-1.41,-0.55,-0.02,-0.30,-2.41,0.93,
0.211,-0.92,-0.54,0.01,-0.30,-2.41,0.93,
0.212,-0.92,-0.54,0.01,-0.28,-2.40,0.94,
0.212,-0.92,-0.54,0.01,-0.27,-2.33,0.93,
0.212,-0.92,-0.54,0.01,-0.27,-2.33,0.93,
0.212,-0.92,-0.54,0.01,-0.27,-2.33,0.93,
0.213,-0.92,-0.54,0.01,-0.26,-2.30,0.92,
0.213,-0.27,-0.87,0.02,-0.26,-2.30,0.92,
0.213,-0.27,-0.87,0.02,-0.27,-2.25,0.91,
0.214,-0.27,-0.87,0.02,-0.27,-2.19,0.90,
0.214,-0.27,-0.87,0.02,-0.28,-2.10,0.89,
0.214,-0.27,-0.87,0.02,-0.28,-2.08,0.88,
0.214,-0.27,-0.87,0.02,-0.29,-2.02,0.88,
0.215,0.06,-1.35,0.07,-0.29,-2.02,0.88,
0.215,0.06,-1.35,0.07,-0.30,-1.97,0.88,
0.215,0.06,-1.35,0.07,-0.31,-1.93,0.87,
0.246,0.06,-1.35,0.07,-0.31,-1.87,0.87,
0.247,0.06,-1.35,0.07,-0.31,-1.86,0.86,
0.247,0.06,-1.35,0.07,-0.30,-1.84,0.86,
0.247,0.42,-1.24,0.52,-0.30,-1.84,0.86,
0.248,0.42,-1.24,0.52,-0.30,-1.83,0.85,
0.248,0.42,-1.24,0.52,-0.29,-1.82,0.84,
0.249,0.42,-1.24,0.52,-0.26,-1.82,0.83,
0.249,0.42,-1.24,0.52,-0.25,-1.83,0.82,
0.25,0.42,-1.24,0.52,-0.22,-1.83,0.81,
0.25,0.48,-0.74,1.10,-0.22,-1.83,0.81,
0.25,0.48,-0.74,1.10,-0.18,-1.83,0.79,
0.251,0.48,-0.74,1.10,-0.14,-1.83,0.78,
0.251,0.48,-0.74,1.10,-0.08,-1.83,0.76,
0.252,0.48,-0.74,1.10,-0.06,-1.83,0.76,
0.252,0.48,-0.74,1.10,-0.02,-1.83,0.74,
0.253,0.30,-0.54,1.55,-0.02,-1.83,0.74,
0.253,0.30,-0.54,1.55,0.02,-1.84,0.72,
0.253,0.30,-0.54,1.55,0.06,-1.85,0.71,
0.254,0.30,-0.54,1.55,0.12,-1.87,0.68,
0.254,0.30,-0.54,1.55,0.14,-1.88,0.67,
0.254,0.30,-0.54,1.55,0.18,-1.91,0.65,
0.255,0.19,-0.70,1.53,0.18,-1.91,0.65,
0.255,0.19,-0.70,1.53,0.21,-1.93,0.63,
0.255,0.19,-0.70,1.53,0.24,-1.95,0.61,
0.256,0.19,-0.70,1.53,0.28,-1.99,0.58,
0.256,0.19,-0.70,1.53,0.30,-2.00,0.57,
0.271,0.19,-0.70,1.53,0.33,-2.03,0.56,
0.272,0.05,-0.97,1.45,0.33,-2.03,0.56,
0.272,0.05,-0.97,1.45,0.36,-2.05,0.54,
0.272,0.05,-0.97,1.45,0.39,-2.07,0.53,
0.273,0.05,-0.97,1.45,0.45,-2.10,0.51,
0.273,0.05,-0.97,1.45,0.47,-2.12,0.51,
0.273,0.05,-0.97,1.45,0.51,-2.14,0.50,
0.273,-0.27,-1.18,1.49,0.51,-2.14,0.50,
0.274,-0.27,-1.18,1.49,0.55,-2.16,0.50,
0.274,-0.27,-1.18,1.49,0.59,-2.19,0.50,
0.274,-0.27,-1.18,1.49,0.66,-2.23,0.50,
0.274,-0.27,-1.18,1.49,0.68,-2.25,0.50,
0.277,-0.27,-1.18,1.49,0.72,-2.28,0.49,
0.287,-0.54,-1.27,1.37,0.72,-2.28,0.49,
0.288,-0.54,-1.27,1.37,0.77,-2.31,0.48,
0.288,-0.54,-1.27,1.37,0.81,-2.35,0.47,
0.289,-0.54,-1.27,1.37,0.87,-2.39,0.46,
0.289,-0.54,-1.27,1.37,0.88,-2.41,0.46,
0.289,-0.54,-1.27,1.37,0.92,-2.46,0.45,
0.289,-0.53,-1.12,0.74,0.92,-2.46,0.45,
0.29,-0.53,-1.12,0.74,0.95,-2.49,0.45,
0.291,-0.53,-1.12,0.74,0.98,-2.52,0.44,
0.306,-0.53,-1.12,0.74,1.02,-2.57,0.43,
0.307,-0.53,-1.12,0.74,1.03,-2.59,0.43,
0.307,-0.53,-1.12,0.74,1.04,-2.64,0.42,
0.307,-0.20,-1.08,0.20,1.04,-2.64,0.42,
0.308,-0.20,-1.08,0.20,1.05,-2.68,0.41,
0.308,-0.20,-1.08,0.20,1.07,-2.72,0.41,
0.308,-0.20,-1.08,0.20,1.09,-2.76,0.40,
0.308,-0.20,-1.08,0.20,1.09,-2.77,0.40,
0.309,-0.20,-1.08,0.20,1.10,-2.80,0.39,
0.309,0.44,-1.12,-0.05,1.10,-2.80,0.39,
0.309,0.44,-1.12,-0.05,1.10,-2.84,0.37,
0.312,0.44,-1.12,-0.05,1.10,-2.88,0.35,
0.354,0.44,-1.12,-0.05,1.09,-2.94,0.32,
0.355,0.44,-1.12,-0.05,1.08,-2.95,0.31,
0.355,0.44,-1.12,-0.05,1.07,-2.96,0.28,
0.355,0.81,-0.96,-0.74,1.07,-2.96,0.28,
0.355,0.81,-0.96,-0.74,1.06,-2.97,0.27,
0.355,0.81,-0.96,-0.74,1.05,-2.96,0.25,
0.355,0.81,-0.96,-0.74,1.03,-2.94,0.24,
0.356,0.81,-0.96,-0.74,1.03,-2.93,0.23,
0.356,0.81,-0.96,-0.74,1.02,-2.91,0.23,
0.356,0.15,-0.47,-0.77,1.02,-2.91,0.23,
0.357,0.15,-0.47,-0.77,1.01,-2.89,0.24,
0.357,0.15,-0.47,-0.77,1.00,-2.87,0.24,
0.357,0.15,-0.47,-0.77,0.99,-2.84,0.26,
0.357,0.15,-0.47,-0.77,0.99,-2.84,0.27,
0.357,0.15,-0.47,-0.77,0.98,-2.82,0.29,
0.357,-0.73,0.13,-0.70,0.98,-2.82,0.29,
0.358,-0.73,0.13,-0.70,0.97,-2.79,0.30,
0.358,-0.73,0.13,-0.70,0.96,-2.76,0.32,
0.358,-0.73,0.13,-0.70,0.94,-2.70,0.36,
0.358,-0.73,0.13,-0.70,0.94,-2.68,0.37,
0.358,-0.73,0.13,-0.70,0.92,-2.61,0.39,
0.359,-1.30,0.51,-0.88,0.92,-2.61,0.39,
0.359,-1.30,0.51,-0.88,0.91,-2.53,0.42,
0.359,-1.30,0.51,-0.88,0.88,-2.44,0.45,
0.359,-1.30,0.51,-0.88,0.84,-2.30,0.49,
0.359,-1.30,0.51,-0.88,0.82,-2.25,0.51,
0.36,-1.30,0.51,-0.88,0.78,-2.13,0.54,
0.36,-1.53,0.69,-1.51,0.78,-2.13,0.54,
0.36,-1.53,0.69,-1.51,0.75,-2.00,0.58,
0.365,-1.53,0.69,-1.51,0.71,-1.87,0.61,
0.366,-1.53,0.69,-1.51,0.63,-1.69,0.65,
0.366,-1.53,0.69,-1.51,0.60,-1.64,0.67,
0.369,-1.53,0.69,-1.51,0.54,-1.53,0.70,
0.371,-1.21,0.40,-2.20,0.54,-1.53,0.70,
0.371,-1.21,0.40,-2.20,0.49,-1.43,0.72,
0.372,-1.21,0.40,-2.20,0.42,-1.32,0.74,
0.373,-1.21,0.40,-2.20,0.33,-1.17,0.77,
0.374,-1.21,0.40,-2.20,0.30,-1.12,0.77,
0.377,-1.21,0.40,-2.20,0.23,-1.02,0.79,
0.379,-0.75,-0.16,-2.53,0.23,-1.02,0.79,
0.396,-0.75,-0.16,-2.53,0.17,-0.91,0.80,
0.397,-0.75,-0.16,-2.53,0.10,-0.81,0.81,
0.397,-0.75,-0.16,-2.53,0.01,-0.67,0.83,
0.397,-0.75,-0.16,-2.53,-0.03,-0.63,0.84,
0.397,-0.75,-0.16,-2.53,-0.09,-0.56,0.85,
0.397,-0.77,-0.67,-2.42,-0.09,-0.56,0.85,
0.398,-0.77,-0.67,-2.42,-0.15,-0.49,0.87,
0.398,-0.77,-0.67,-2.42,-0.22,-0.44,0.90,
0.398,-0.77,-0.67,-2.42,-0.31,-0.39,0.94,
0.398,-0.77,-0.67,-2.42,-0.34,-0.38,0.96,
0.398,-0.77,-0.67,-2.42,-0.39,-0.37,1.00,
0.399,-1.62,-1.04,-1.87,-0.39,-0.37,1.00,
0.399,-1.62,-1.04,-1.87,-0.44,-0.37,1.04,
0.402,-1.62,-1.04,-1.87,-0.49,-0.38,1.09,
0.403,-1.62,-1.04,-1.87,-0.55,-0.39,1.17,
0.404,-1.62,-1.04,-1.87,-0.57,-0.40,1.20,
0.407,-1.62,-1.04,-1.87,-0.61,-0.40,1.25,
0.409,-2.70,-1.39,-0.93,-0.61,-0.40,1.25,
0.409,-2.70,-1.39,-0.93,-0.65,-0.40,1.31,
0.416,-2.70,-1.39,-0.93,-0.69,-0.40,1.37,
0.417,-2.70,-1.39,-0.93,-0.73,-0.39,1.45,
0.417,-2.70,-1.39,-0.93,-0.75,-0.39,1.47,
0.417,-2.70,-1.39,-0.93,-0.77,-0.37,1.52,
0.419,-3.10,-1.67,0.02,-0.77,-0.37,1.52,
0.419,-3.10,-1.67,0.02,-0.79,-0.35,1.57,
0.421,-3.10,-1.67,0.02,-0.80,-0.32,1.61,
0.457,-3.10,-1.67,0.02,-0.82,-0.28,1.67,
0.457,-3.10,-1.67,0.02,-0.82,-0.26,1.68,
0.458,-3.10,-1.67,0.02,-0.81,-0.21,1.74,
0.458,-3.17,-1.73,0.98,-0.81,-0.21,1.74,
0.458,-3.17,-1.73,0.98,-0.81,-0.19,1.76,
0.458,-3.17,-1.73,0.98,-0.80,-0.16,1.80,
0.458,-3.17,-1.73,0.98,-0.78,-0.09,1.84,
0.459,-3.17,-1.73,0.98,-0.78,-0.08,1.85,
0.459,-3.17,-1.73,0.98,-0.76,-0.05,1.88,
0.459,-3.48,-1.57,1.93,-0.76,-0.05,1.88,
0.459,-3.48,-1.57,1.93,-0.75,-0.03,1.90,
0.459,-3.48,-1.57,1.93,-0.74,-0.00,1.90,
0.459,-3.48,-1.57,1.93,-0.73,0.02,1.91,
0.46,-3.48,-1.57,1.93,-0.73,0.03,1.91,
0.46,-3.48,-1.57,1.93,-0.74,0.03,1.90,
0.46,-2.75,-1.68,2.17,-0.74,0.03,1.90,
0.46,-2.75,-1.68,2.17,-0.75,0.03,1.90,
0.46,-2.75,-1.68,2.17,-0.77,0.01,1.88,
0.461,-2.75,-1.68,2.17,-0.83,-0.02,1.84,
0.461,-2.75,-1.68,2.17,-0.86,-0.03,1.82,
0.461,-2.75,-1.68,2.17,-0.90,-0.06,1.78,
0.461,-1.62,-2.27,1.96,-0.90,-0.06,1.78,
0.461,-1.62,-2.27,1.96,-0.96,-0.08,1.73,
0.461,-1.62,-2.27,1.96,-1.03,-0.12,1.68,
0.465,-1.62,-2.27,1.96,-1.13,-0.19,1.62,
0.465,-1.62,-2.27,1.96,-1.17,-0.21,1.60,
0.466,-1.62,-2.27,1.96,-1.24,-0.25,1.55,
0.469,-1.14,-2.73,1.53,-1.24,-0.25,1.55,
0.469,-1.14,-2.73,1.53,-1.32,-0.28,1.51,
0.47,-1.14,-2.73,1.53,-1.40,-0.29,1.48,
0.474,-1.14,-2.73,1.53,-1.53,-0.24,1.41,
0.479,-1.14,-2.73,1.53,-1.57,-0.21,1.39,
0.48,-1.14,-2.73,1.53,-1.67,-0.13,1.34,
0.48,-1.14,-2.69,0.56,-1.67,-0.13,1.34,
0.48,-1.14,-2.69,0.56,-1.76,-0.04,1.29,
0.481,-1.14,-2.69,0.56,-1.85,0.05,1.25,
0.483,-1.14,-2.69,0.56,-1.98,0.19,1.20,
0.484,-1.14,-2.69,0.56,-2.02,0.23,1.19,
0.486,-1.14,-2.69,0.56,-2.10,0.32,1.17,
0.491,-1.54,-2.97,-0.16,-2.10,0.32,1.17,
0.491,-1.54,-2.97,-0.16,-2.17,0.41,1.15,
0.491,-1.54,-2.97,-0.16,-2.24,0.49,1.13,
0.494,-1.54,-2.97,-0.16,-2.32,0.61,1.09,
0.495,-1.54,-2.97,-0.16,-2.35,0.64,1.08,
0.496,-1.54,-2.97,-0.16,-2.39,0.71,1.05,
0.502,-1.58,-3.06,0.05,-2.39,0.71,1.05,
0.502,-1.58,-3.06,0.05,-2.43,0.77,1.03,
0.502,-1.58,-3.06,0.05,-2.45,0.83,0.99,
0.504,-1.58,-3.06,0.05,-2.47,0.90,0.95,
0.506,-1.58,-3.06,0.05,-2.48,0.92,0.93,
0.507,-1.58,-3.06,0.05,-2.47,0.95,0.90,
0.512,-1.40,-2.83,0.82,-2.47,0.95,0.90,
0.513,-1.40,-2.83,0.82,-2.46,0.98,0.87,
0.513,-1.40,-2.83,0.82,-2.44,0.99,0.85,
0.515,-1.40,-2.83,0.82,-2.41,0.98,0.81,
0.515,-1.40,-2.83,0.82,-2.39,0.97,0.80,
0.517,-1.40,-2.83,0.82,-2.36,0.95,0.78,
0.519,-1.43,-2.98,1.38,-2.36,0.95,0.78,
0.519,-1.43,-2.98,1.38,-2.32,0.92,0.77,
0.521,-1.43,-2.98,1.38,-2.28,0.90,0.76,
0.523,-1.43,-2.98,1.38,-2.21,0.85,0.74,
0.525,-1.43,-2.98,1.38,-2.19,0.84,0.73,
0.53,-1.43,-2.98,1.38,-2.15,0.81,0.73,
0.53,-1.22,-3.12,1.18,-2.15,0.81,0.73,
0.531,-1.22,-3.12,1.18,-2.11,0.79,0.72,
0.531,-1.22,-3.12,1.18,-2.08,0.76,0.72,
0.536,-1.22,-3.12,1.18,-2.02,0.73,0.72,
0.537,-1.22,-3.12,1.18,-2.01,0.73,0.72,
0.537,-1.22,-3.12,1.18,-1.98,0.71,0.73,
0.539,-1.13,-3.54,0.38,-1.98,0.71,0.73,
0.539,-1.13,-3.54,0.38,-1.95,0.70,0.74,
0.54,-1.13,-3.54,0.38,-1.94,0.68,0.75,
0.547,-1.13,-3.54,0.38,-1.92,0.65,0.77,
0.547,-1.13,-3.54,0.38,-1.92,0.65,0.78,
0.566,-1.13,-3.54,0.38,-1.92,0.64,0.80,
0.566,-1.22,-4.09,-0.84,-1.92,0.64,0.80,
0.567,-1.22,-4.09,-0.84,-1.93,0.64,0.81,
0.567,-1.22,-4.09,-0.84,-1.95,0.63,0.83,
0.567,-1.22,-4.09,-0.84,-2.01,0.63,0.85,
0.567,-1.22,-4.09,-0.84,-2.04,0.63,0.86,
0.568,-1.22,-4.09,-0.84,-2.09,0.63,0.87,
0.568,-1.06,-4.81,-2.02,-2.09,0.63,0.87,
0.568,-1.06,-4.81,-2.02,-2.16,0.65,0.89,
0.569,-1.06,-4.81,-2.02,-2.24,0.67,0.91,
0.569,-1.06,-4.81,-2.02,-2.37,0.71,0.94,
0.569,-1.06,-4.81,-2.02,-2.42,0.72,0.95,
0.569,-1.06,-4.81,-2.02,-2.51,0.74,0.97,
0.584,-1.15,-4.89,-2.64,-2.51,0.74,0.97,
0.585,-1.15,-4.89,-2.64,-2.61,0.76,0.99,
0.585,-1.15,-4.89,-2.64,-2.72,0.78,1.01,
0.585,-1.15,-4.89,-2.64,-2.89,0.79,1.04,
0.586,-1.15,-4.89,-2.64,-2.95,0.79,1.06,
0.586,-1.15,-4.89,-2.64,-3.07,0.78,1.08,
0.586,-0.73,-5.01,-3.12,-3.07,0.78,1.08,
0.586,-0.73,-5.01,-3.12,-3.19,0.76,1.10,
0.587,-0.73,-5.01,-3.12,-3.30,0.75,1.12,
0.587,-0.73,-5.01,-3.12,-3.46,0.72,1.14,
0.587,-0.73,-5.01,-3.12,-3.50,0.72,1.15,
0.589,-0.73,-5.01,-3.12,-3.59,0.72,1.15,
0.589,-0.14,-4.24,-2.82,-3.59,0.72,1.15,
0.589,-0.14,-4.24,-2.82,-3.67,0.72,1.15,
0.623,-0.14,-4.24,-2.82,-3.74,0.74,1.15,
0.623,-0.14,-4.24,-2.82,-3.83,0.78,1.14,
0.623,-0.14,-4.24,-2.82,-3.86,0.80,1.13,
0.623,-0.14,-4.24,-2.82,-3.91,0.83,1.12,
0.623,0.94,-3.76,-1.93,-3.91,0.83,1.12,
0.624,0.94,-3.76,-1.93,-3.95,0.87,1.10,
0.624,0.94,-3.76,-1.93,-3.98,0.90,1.09,
0.624,0.94,-3.76,-1.93,-4.03,0.93,1.06,
0.624,0.94,-3.76,-1.93,-4.04,0.94,1.05,
0.624,0.94,-3.76,-1.93,-4.07,0.95,1.02,
0.625,1.69,-3.84,-1.33,-4.07,0.95,1.02,
0.625,1.69,-3.84,-1.33,-4.09,0.96,1.00,
0.625,1.69,-3.84,-1.33,-4.10,0.96,0.97,
0.625,1.69,-3.84,-1.33,-4.13,0.96,0.93,
0.625,1.69,-3.84,-1.33,-4.14,0.95,0.91,
0.625,1.69,-3.84,-1.33,-4.15,0.93,0.88,
0.626,2.28,-3.91,-1.19,-4.15,0.93,0.88,
0.626,2.28,-3.91,-1.19,-4.17,0.92,0.84,
0.626,2.28,-3.91,-1.19,-4.19,0.89,0.81,
0.626,2.28,-3.91,-1.19,-4.23,0.85,0.75,
0.626,2.28,-3.91,-1.19,-4.24,0.83,0.73,
0.626,2.28,-3.91,-1.19,-4.27,0.80,0.68,
0.631,2.64,-3.64,-1.67,-4.27,0.80,0.68,
0.631,2.64,-3.64,-1.67,-4.30,0.77,0.64,
0.631,2.64,-3.64,-1.67,-4.33,0.73,0.60,
0.634,2.64,-3.64,-1.67,-4.37,0.68,0.54,
0.634,2.64,-3.64,-1.67,-4.39,0.66,0.53,
0.636,2.64,-3.64,-1.67,-4.43,0.62,0.49,
0.638,2.86,-3.72,-2.09,-4.43,0.62,0.49,
0.639,2.86,-3.72,-2.09,-4.46,0.58,0.45,
0.64,2.86,-3.72,-2.09,-4.48,0.54,0.42,
0.644,2.86,-3.72,-2.09,-4.52,0.49,0.37,
0.644,2.86,-3.72,-2.09,-4.53,0.47,0.35,
0.646,2.86,-3.72,-2.09,-4.56,0.44,0.32,
0.649,3.14,-3.57,-1.45,-4.56,0.44,0.32,
0.649,3.14,-3.57,-1.45,-4.58,0.41,0.29,
0.65,3.14,-3.57,-1.45,-4.60,0.38,0.26,
0.653,3.14,-3.57,-1.45,-4.64,0.33,0.23,
0.654,3.14,-3.57,-1.45,-4.65,0.32,0.22,
0.656,3.14,-3.57,-1.45,-4.67,0.29,0.20,
0.662,3.36,-2.84,-1.36,-4.67,0.29,0.20,
0.662,3.36,-2.84,-1.36,-4.69,0.27,0.18,
0.662,3.36,-2.84,-1.36,-4.71,0.25,0.17,
0.663,3.36,-2.84,-1.36,-4.74,0.23,0.17,
0.664,3.36,-2.84,-1.36,-4.74,0.22,0.17,
0.666,3.36,-2.84,-1.36,-4.76,0.21,0.17,
0.669,2.91,-1.85,-1.10,-4.76,0.21,0.17,
0.669,2.91,-1.85,-1.10,-4.77,0.18,0.18,
0.67,2.91,-1.85,-1.10,-4.78,0.16,0.19,
0.673,2.91,-1.85,-1.10,-4.78,0.13,0.22,
0.68,2.91,-1.85,-1.10,-4.78,0.12,0.23,
0.68,2.91,-1.85,-1.10,-4.78,0.11,0.25,
0.68,2.68,-1.22,-0.48,-4.78,0.11,0.25,
0.681,2.68,-1.22,-0.48,-4.77,0.09,0.27,
0.681,2.68,-1.22,-0.48,-4.75,0.07,0.30,
0.683,2.68,-1.22,-0.48,-4.72,0.04,0.34,
0.684,2.68,-1.22,-0.48,-4.71,0.03,0.36,
0.686,2.68,-1.22,-0.48,-4.69,0.00,0.39,
0.688,2.54,-0.79,0.24,-4.69,0.00,0.39,
0.689,2.54,-0.79,0.24,-4.66,-0.02,0.42,
0.691,2.54,-0.79,0.24,-4.64,-0.05,0.45,
0.693,2.54,-0.79,0.24,-4.60,-0.11,0.51,
0.696,2.54,-0.79,0.24,-4.58,-0.13,0.53,
0.697,2.54,-0.79,0.24,-4.55,-0.17,0.56,
0.698,2.61,-0.60,0.47,-4.55,-0.17,0.56,
0.698,2.61,-0.60,0.47,-4.52,-0.21,0.60,
0.7,2.61,-0.60,0.47,-4.50,-0.26,0.64,
0.703,2.61,-0.60,0.47,-4.46,-0.32,0.69,
0.704,2.61,-0.60,0.47,-4.44,-0.34,0.71,
0.706,2.61,-0.60,0.47,-4.42,-0.39,0.75,
0.708,2.83,-0.58,0.67,-4.42,-0.39,0.75,
0.709,2.83,-0.58,0.67,-4.40,-0.42,0.78,
0.71,2.83,-0.58,0.67,-4.39,-0.46,0.82,
0.727,2.83,-0.58,0.67,-4.38,-0.51,0.86,
0.727,2.83,-0.58,0.67,-4.38,-0.52,0.88,
0.727,2.83,-0.58,0.67,-4.38,-0.55,0.90,
0.727,3.22,-0.51,0.29,-4.38,-0.55,0.90,
0.727,3.22,-0.51,0.29,-4.38,-0.57,0.93,
0.727,3.22,-0.51,0.29,-4.39,-0.59,0.96,
0.728,3.22,-0.51,0.29,-4.40,-0.60,0.98,
0.728,3.22,-0.51,0.29,-4.41,-0.61,0.99,
0.728,3.22,-0.51,0.29,-4.42,-0.61,1.01,
0.73,3.74,-0.37,0.27,-4.42,-0.61,1.01,
0.73,3.74,-0.37,0.27,-4.42,-0.60,1.03,
0.73,3.74,-0.37,0.27,-4.43,-0.60,1.04,
0.733,3.74,-0.37,0.27,-4.45,-0.59,1.06,
0.734,3.74,-0.37,0.27,-4.46,-0.59,1.06,
0.736,3.74,-0.37,0.27,-4.46,-0.59,1.07,
0.738,4.39,-0.32,0.81,-4.46,-0.59,1.07,
0.739,4.39,-0.32,0.81,-4.48,-0.60,1.07,
0.741,4.39,-0.32,0.81,-4.49,-0.61,1.07,
0.744,4.39,-0.32,0.81,-4.51,-0.63,1.07,
0.745,4.39,-0.32,0.81,-4.52,-0.64,1.06,
0.75,4.39,-0.32,0.81,-4.53,-0.65,1.05,
0.75,4.91,-0.10,1.23,-4.53,-0.65,1.05,
0.751,4.91,-0.10,1.23,-4.55,-0.66,1.04,
0.751,4.91,-0.10,1.23,-4.57,-0.66,1.02,
0.754,4.91,-0.10,1.23,-4.60,-0.65,0.98,
0.755,4.91,-0.10,1.23,-4.60,-0.65,0.97,
0.758,4.91,-0.10,1.23,-4.62,-0.65,0.94,
0.759,5.52,0.35,1.40,-4.62,-0.65,0.94,
0.759,5.52,0.35,1.40,-4.64,-0.64,0.91,
0.76,5.52,0.35,1.40,-4.65,-0.62,0.87,
0.763,5.52,0.35,1.40,-4.66,-0.60,0.81,
0.765,5.52,0.35,1.40,-4.67,-0.60,0.79,
0.766,5.52,0.35,1.40,-4.67,-0.58,0.74,
0.769,5.85,0.78,1.97,-4.67,-0.58,0.74,
0.769,5.85,0.78,1.97,-4.68,-0.56,0.70,
0.77,5.85,0.78,1.97,-4.67,-0.55,0.65,
0.773,5.85,0.78,1.97,-4.67,-0.54,0.58,
0.776,5.85,0.78,1.97,-4.67,-0.54,0.55,
0.778,5.85,0.78,1.97,-4.66,-0.54,0.47,
0.779,6.08,1.29,2.66,-4.66,-0.54,0.47,
0.779,6.08,1.29,2.66,-4.65,-0.55,0.45,
0.78,6.08,1.29,2.66,-4.64,-0.56,0.39,
0.783,6.08,1.29,2.66,-4.62,-0.57,0.31,
0.784,6.08,1.29,2.66,-4.61,-0.57,0.29,
0.786,6.08,1.29,2.66,-4.59,-0.57,0.24,
0.789,6.00,1.49,3.46,-4.59,-0.57,0.24,
0.789,6.00,1.49,3.46,-4.57,-0.58,0.19,
0.791,6.00,1.49,3.46,-4.54,-0.58,0.13,
0.794,6.00,1.49,3.46,-4.50,-0.58,0.06,
0.795,6.00,1.49,3.46,-4.48,-0.58,0.03,
0.797,6.00,1.49,3.46,-4.45,-0.58,-0.02,
0.799,5.84,1.75,4.22,-4.45,-0.58,-0.02,
0.799,5.84,1.75,4.22,-4.42,-0.58,-0.06,
0.8,5.84,1.75,4.22,-4.39,-0.58,-0.11,
0.803,5.84,1.75,4.22,-4.35,-0.57,-0.17,
0.805,5.84,1.75,4.22,-4.33,-0.57,-0.19,
0.806,5.84,1.75,4.22,-4.30,-0.57,-0.23,
0.817,5.31,2.08,4.61,-4.30,-0.57,-0.23,
0.819,5.31,2.08,4.61,-4.27,-0.57,-0.26,
0.819,5.31,2.08,4.61,-4.24,-0.58,-0.30,
0.82,5.31,2.08,4.61,-4.19,-0.58,-0.35,
0.82,5.31,2.08,4.61,-4.17,-0.59,-0.37,
0.821,5.31,2.08,4.61,-4.14,-0.60,-0.40,
0.821,4.69,2.71,5.07,-4.14,-0.60,-0.40,
0.822,4.69,2.71,5.07,-4.10,-0.61,-0.43,
0.822,4.69,2.71,5.07,-4.06,-0.62,-0.46,
0.827,4.69,2.71,5.07,-4.01,-0.64,-0.51,
0.828,4.69,2.71,5.07,-3.99,-0.64,-0.52,
0.829,4.69,2.71,5.07,-3.95,-0.66,-0.55,
0.829,4.17,3.00,5.52,-3.95,-0.66,-0.55,
0.83,4.17,3.00,5.52,-3.91,-0.68,-0.57,
0.845,4.17,3.00,5.52,-3.87,-0.69,-0.59,
0.847,4.17,3.00,5.52,-3.80,-0.71,-0.62,
0.847,4.17,3.00,5.52,-3.78,-0.72,-0.63,
0.848,4.17,3.00,5.52,-3.73,-0.73,-0.65,
0.848,3.76,3.33,6.07,-3.73,-0.73,-0.65,
0.849,3.76,3.33,6.07,-3.68,-0.75,-0.66,
0.85,3.76,3.33,6.07,-3.63,-0.76,-0.68,
0.851,3.76,3.33,6.07,-3.56,-0.79,-0.70,
0.851,3.76,3.33,6.07,-3.53,-0.80,-0.70,
0.852,3.76,3.33,6.07,-3.48,-0.81,-0.72,
0.852,3.51,3.56,6.32,-3.48,-0.81,-0.72,
0.853,3.51,3.56,6.32,-3.44,-0.83,-0.73,
0.853,3.51,3.56,6.32,-3.38,-0.85,-0.74,
0.854,3.51,3.56,6.32,-3.31,-0.87,-0.76,
0.86,3.51,3.56,6.32,-3.29,-0.88,-0.76,
0.86,3.51,3.56,6.32,-3.24,-0.90,-0.77,
0.861,3.35,3.75,6.44,-3.24,-0.90,-0.77,
0.861,3.35,3.75,6.44,-3.18,-0.92,-0.78,
0.861,3.35,3.75,6.44,-3.13,-0.93,-0.79,
0.864,3.35,3.75,6.44,-3.05,-0.95,-0.79,
0.865,3.35,3.75,6.44,-3.02,-0.96,-0.80,
0.867,3.35,3.75,6.44,-2.96,-0.97,-0.80,
0.869,3.11,3.83,6.72,-2.96,-0.97,-0.80,
0.869,3.11,3.83,6.72,-2.90,-0.99,-0.81,
0.87,3.11,3.83,6.72,-2.84,-1.00,-0.82,
0.874,3.11,3.83,6.72,-2.75,-1.04,-0.84,
0.875,3.11,3.83,6.72,-2.72,-1.05,-0.85,
0.877,3.11,3.83,6.72,-2.66,-1.07,-0.87,
0.88,3.19,3.84,7.11,-2.66,-1.07,-0.87,
0.904,3.19,3.84,7.11,-2.60,-1.08,-0.88,
0.905,3.19,3.84,7.11,-2.53,-1.10,-0.90,
0.905,3.19,3.84,7.11,-2.43,-1.12,-0.93,
0.905,3.19,3.84,7.11,-2.40,-1.13,-0.94,
0.906,3.19,3.84,7.11,-2.33,-1.13,-0.96,
0.906,2.91,3.81,7.43,-2.33,-1.13,-0.96,
0.906,2.91,3.81,7.43,-2.26,-1.13,-0.98,
0.907,2.91,3.81,7.43,-2.18,-1.13,-1.00,
0.907,2.91,3.81,7.43,-2.07,-1.12,-1.03,
0.907,2.91,3.81,7.43,-2.03,-1.12,-1.05,
0.907,2.91,3.81,7.43,-1.95,-1.11,-1.07,
0.908,2.43,4.27,8.09,-1.95,-1.11,-1.07,
0.908,2.43,4.27,8.09,-1.87,-1.10,-1.10,
0.908,2.43,4.27,8.09,-1.79,-1.09,-1.13,
0.909,2.43,4.27,8.09,-1.66,-1.08,-1.18,
0.909,2.43,4.27,8.09,-1.62,-1.07,-1.19,
0.909,2.43,4.27,8.09,-1.53,-1.08,-1.23,
0.915,2.36,4.42,8.48,-1.53,-1.08,-1.23,
0.916,2.36,4.42,8.48,-1.44,-1.08,-1.27,
0.916,2.36,4.42,8.48,-1.34,-1.09,-1.31,
0.916,2.36,4.42,8.48,-1.20,-1.12,-1.37,
0.916,2.36,4.42,8.48,-1.15,-1.13,-1.39,
0.917,2.36,4.42,8.48,-1.06,-1.17,-1.43,
0.919,2.45,4.36,9.18,-1.06,-1.17,-1.43,
0.92,2.45,4.36,9.18,-0.96,-1.22,-1.47,
0.921,2.45,4.36,9.18,-0.87,-1.27,-1.51,
0.924,2.45,4.36,9.18,-0.74,-1.36,-1.57,
0.925,2.45,4.36,9.18,-0.70,-1.39,-1.59,
0.927,2.45,4.36,9.18,-0.62,-1.45,-1.62,
0.931,2.17,3.69,8.88,-0.62,-1.45,-1.62,
0.932,2.17,3.69,8.88,-0.54,-1.50,-1.64,
0.932,2.17,3.69,8.88,-0.46,-1.54,-1.65,
0.933,2.17,3.69,8.88,-0.36,-1.60,-1.65,
0.935,2.17,3.69,8.88,-0.32,-1.62,-1.65,
0.937,2.17,3.69,8.88,-0.26,-1.65,-1.64,
0.939,0.89,3.22,8.01,-0.26,-1.65,-1.64,
0.939,0.89,3.22,8.01,-0.21,-1.67,-1.62,
0.941,0.89,3.22,8.01,-0.16,-1.71,-1.61,
0.945,0.89,3.22,8.01,-0.10,-1.75,-1.57,
0.95,0.89,3.22,8.01,-0.08,-1.77,-1.56,
0.95,0.89,3.22,8.01,-0.05,-1.79,-1.53,
0.951,-0.03,2.75,6.27,-0.05,-1.79,-1.53,
0.951,-0.03,2.75,6.27,-0.02,-1.81,-1.50,
0.951,-0.03,2.75,6.27,0.01,-1.83,-1.46,
0.954,-0.03,2.75,6.27,0.04,-1.84,-1.41,
0.955,-0.03,2.75,6.27,0.06,-1.84,-1.38,
0.966,-0.03,2.75,6.27,0.08,-1.83,-1.34,
0.967,-0.87,2.59,4.88,0.08,-1.83,-1.34,
0.967,-0.87,2.59,4.88,0.10,-1.82,-1.30,
0.967,-0.87,2.59,4.88,0.12,-1.81,-1.26,
0.968,-0.87,2.59,4.88,0.15,-1.79,-1.20,
0.971,-0.87,2.59,4.88,0.17,-1.78,-1.18,
0.971,-0.87,2.59,4.88,0.19,-1.76,-1.14,
0.972,-1.44,2.47,3.77,0.19,-1.76,-1.14,
0.972,-1.44,2.47,3.77,0.21,-1.74,-1.10,
0.972,-1.44,2.47,3.77,0.24,-1.72,-1.06,
0.997,-1.44,2.47,3.77,0.28,-1.69,-1.00,
0.998,-1.44,2.47,3.77,0.30,-1.67,-0.98,
0.998,-1.44,2.47,3.77,0.33,-1.65,-0.94,
0.998,-1.94,2.44,3.32,0.33,-1.65,-0.94,
0.998,-1.94,2.44,3.32,0.36,-1.62,-0.91,
0.998,-1.94,2.44,3.32,0.40,-1.59,-0.87,
0.999,-1.94,2.44,3.32,0.46,-1.52,-0.83,
0.999,-1.94,2.44,3.32,0.48,-1.50,-0.81,
0.999,-1.94,2.44,3.32,0.53,-1.45,-0.79,
0.999,-2.14,2.26,3.24,0.53,-1.45,-0.79,
0.999,-2.14,2.26,3.24,0.58,-1.41,-0.77,
0.999,-2.14,2.26,3.24,0.63,-1.36,-0.74,
1.0,-2.14,2.26,3.24,0.71,-1.31,-0.71,
1.0,-2.14,2.26,3.24,0.74,-1.29,-0.70,
1.0,-2.14,2.26,3.24,0.80,-1.26,-0.68,
1.0,-2.43,2.17,3.64,0.80,-1.26,-0.68,
1.001,-2.43,2.17,3.64,0.86,-1.23,-0.66,
1.001,-2.43,2.17,3.64,0.92,-1.21,-0.64,
1.003,-2.43,2.17,3.64,1.01,-1.19,-0.61,
1.005,-2.43,2.17,3.64,1.04,-1.19,-0.61,
1.008,-2.43,2.17,3.64,1.10,-1.18,-0.60,
1.009,-2.41,2.01,3.81,1.10,-1.18,-0.60,
1.009,-2.41,2.01,3.81,1.16,-1.17,-0.59,
1.011,-2.41,2.01,3.81,1.22,-1.16,-0.58,
1.014,-2.41,2.01,3.81,1.31,-1.14,-0.58,
1.015,-2.41,2.01,3.81,1.33,-1.13,-0.57,
1.017,-2.41,2.01,3.81,1.39,-1.12,-0.57,
1.019,-2.36,1.60,4.00,1.39,-1.12,-0.57,
1.019,-2.36,1.60,4.00,1.44,-1.11,-0.57,
1.021,-2.36,1.60,4.00,1.50,-1.10,-0.56,
1.024,-2.36,1.60,4.00,1.57,-1.10,-0.55,
1.028,-2.36,1.60,4.00,1.59,-1.10,-0.54,
1.029,-2.36,1.60,4.00,1.64,-1.10,-0.53,
1.031,-2.51,1.07,3.92,1.64,-1.10,-0.53,
1.032,-2.51,1.07,3.92,1.69,-1.12,-0.52,
1.033,-2.51,1.07,3.92,1.73,-1.13,-0.51,
1.035,-2.51,1.07,3.92,1.78,-1.16,-0.49,
1.036,-2.51,1.07,3.92,1.80,-1.17,-0.48,
1.037,-2.51,1.07,3.92,1.83,-1.19,-0.46,
1.041,-2.80,0.31,3.81,1.83,-1.19,-0.46,
1.042,-2.80,0.31,3.81,1.86,-1.22,-0.43,
1.042,-2.80,0.31,3.81,1.90,-1.25,-0.41,
1.045,-2.80,0.31,3.81,1.96,-1.30,-0.36,
1.046,-2.80,0.31,3.81,1.98,-1.31,-0.34,
1.064,-2.80,0.31,3.81,2.02,-1.34,-0.31,
1.064,-3.32,-0.80,3.88,2.02,-1.34,-0.31,
1.064,-3.32,-0.80,3.88,2.06,-1.36,-0.27,
1.065,-3.32,-0.80,3.88,2.11,-1.38,-0.23,
1.065,-3.32,-0.80,3.88,2.19,-1.39,-0.17,
1.065,-3.32,-0.80,3.88,2.22,-1.39,-0.15,
1.065,-3.32,-0.80,3.88,2.27,-1.39,-0.11,
1.065,-3.69,-1.28,4.30,2.27,-1.39,-0.11,
1.066,-3.69,-1.28,4.30,2.33,-1.40,-0.08,
1.066,-3.69,-1.28,4.30,2.38,-1.40,-0.04,
1.066,-3.69,-1.28,4.30,2.47,-1.40,0.02,
1.066,-3.69,-1.28,4.30,2.50,-1.39,0.04,
1.07,-3.69,-1.28,4.30,2.56,-1.38,0.07,
1.074,-3.55,-1.10,4.06,2.56,-1.38,0.07,
1.075,-3.55,-1.10,4.06,2.61,-1.35,0.11,
1.075,-3.55,-1.10,4.06,2.66,-1.32,0.15,
1.075,-3.55,-1.10,4.06,2.72,-1.24,0.22,
1.075,-3.55,-1.10,4.06,2.74,-1.21,0.24,
1.076,-3.55,-1.10,4.06,2.76,-1.15,0.28,
1.079,-3.72,-1.11,3.14,2.76,-1.15,0.28,
1.079,-3.72,-1.11,3.14,2.77,-1.08,0.32,
1.083,-3.72,-1.11,3.14,2.77,-1.02,0.35,
1.084,-3.72,-1.11,3.14,2.76,-0.92,0.39,
1.084,-3.72,-1.11,3.14,2.76,-0.89,0.40,
1.088,-3.72,-1.11,3.14,2.76,-0.84,0.42,
1.096,-3.38,-1.43,1.86,2.76,-0.84,0.42,
1.096,-3.38,-1.43,1.86,2.76,-0.78,0.43,
1.096,-3.38,-1.43,1.86,2.76,-0.75,0.44,
1.097,-3.38,-1.43,1.86,2.74,-0.76,0.44,
1.097,-3.38,-1.43,1.86,2.73,-0.78,0.43,
1.1,-3.38,-1.43,1.86,2.70,-0.80,0.42,
1.103,-2.83,-1.78,1.25,2.70,-0.80,0.42,
1.118,-2.83,-1.78,1.25,2.68,-0.79,0.41,
1.119,-2.83,-1.78,1.25,2.67,-0.77,0.39,
1.119,-2.83,-1.78,1.25,2.66,-0.73,0.38,
1.119,-2.83,-1.78,1.25,2.66,-0.72,0.37,
1.119,-2.83,-1.78,1.25,2.63,-0.74,0.34,
1.12,-2.71,-1.62,0.69,2.63,-0.74,0.34,
1.12,-2.71,-1.62,0.69,2.61,-0.77,0.32,
1.12,-2.71,-1.62,0.69,2.58,-0.77,0.29,
1.12,-2.71,-1.62,0.69,2.55,-0.76,0.25,
1.12,-2.71,-1.62,0.69,2.53,-0.76,0.23,
1.123,-2.71,-1.62,0.69,2.50,-0.77,0.20,
1.123,-2.66,-1.21,-0.35,2.50,-0.77,0.20,
1.123,-2.66,-1.21,-0.35,2.46,-0.77,0.16,
1.124,-2.66,-1.21,-0.35,2.42,-0.75,0.12,
1.124,-2.66,-1.21,-0.35,2.35,-0.71,0.06,
1.131,-2.66,-1.21,-0.35,2.33,-0.69,0.04,
1.131,-2.66,-1.21,-0.35,2.27,-0.60,-0.01,
1.131,-2.11,-1.39,-1.37,2.27,-0.60,-0.01,
1.132,-2.11,-1.39,-1.37,2.25,-0.57,-0.03,
1.132,-2.11,-1.39,-1.37,2.21,-0.50,-0.06,
1.133,-2.11,-1.39,-1.37,2.14,-0.38,-0.12,
1.134,-2.11,-1.39,-1.37,2.12,-0.34,-0.13,
1.138,-2.11,-1.39,-1.37,2.07,-0.26,-0.16,
1.14,-1.57,-2.38,-1.69,2.07,-0.26,-0.16,
1.14,-1.57,-2.38,-1.69,2.03,-0.19,-0.18,
1.142,-1.57,-2.38,-1.69,1.98,-0.13,-0.21,
1.144,-1.57,-2.38,-1.69,1.93,-0.04,-0.22,
1.145,-1.57,-2.38,-1.69,1.91,-0.01,-0.22,
1.146,-1.57,-2.38,-1.69,1.88,0.03,-0.23,
1.149,-1.52,-2.81,-1.32,1.88,0.03,-0.23,
1.15,-1.52,-2.81,-1.32,1.85,0.08,-0.22,
1.15,-1.52,-2.81,-1.32,1.82,0.12,-0.20,
1.153,-1.52,-2.81,-1.32,1.80,0.19,-0.16,
1.155,-1.52,-2.81,-1.32,1.80,0.22,-0.15,
1.156,-1.52,-2.81,-1.32,1.79,0.26,-0.11,
1.159,-1.67,-2.93,-0.53,1.79,0.26,-0.11,
1.159,-1.67,-2.93,-0.53,1.79,0.29,-0.06,
1.16,-1.67,-2.93,-0.53,1.79,0.31,0.00,
1.164,-1.67,-2.93,-0.53,1.80,0.33,0.10,
1.165,-1.67,-2.93,-0.53,1.80,0.34,0.14,
1.166,-1.67,-2.93,-0.53,1.80,0.33,0.21,
1.169,-1.65,-2.55,-0.18,1.80,0.33,0.21,
1.169,-1.65,-2.55,-0.18,1.80,0.31,0.29,
1.17,-1.65,-2.55,-0.18,1.80,0.28,0.37,
1.174,-1.65,-2.55,-0.18,1.79,0.23,0.49,
1.174,-1.65,-2.55,-0.18,1.79,0.21,0.53,
1.177,-1.65,-2.55,-0.18,1.76,0.17,0.61,
1.178,-1.35,-2.12,-0.67,1.76,0.17,0.61,
1.179,-1.35,-2.12,-0.67,1.73,0.12,0.70,
1.18,-1.35,-2.12,-0.67,1.69,0.07,0.78,
1.183,-1.35,-2.12,-0.67,1.62,-0.01,0.89,
1.184,-1.35,-2.12,-0.67,1.60,-0.03,0.92,
1.187,-1.35,-2.12,-0.67,1.55,-0.09,0.98,
1.189,-0.14,-1.61,-1.34,1.55,-0.09,0.98,
1.19,-0.14,-1.61,-1.34,1.50,-0.16,1.03,
1.195,-0.14,-1.61,-1.34,1.33,-0.48,1.10,
1.195,-0.14,-1.61,-1.34,1.33,-0.48,1.10,
1.196,-0.14,-1.61,-1.34,1.33,-0.48,1.10,
1.197,-0.14,-1.61,-1.34,1.26,-0.62,1.09,
1.199,3.22,-1.42,-1.19,1.26,-0.62,1.09,
1.199,3.22,-1.42,-1.19,1.20,-0.75,1.07,
1.2,3.22,-1.42,-1.19,1.13,-0.91,1.05,
1.204,3.22,-1.42,-1.19,1.02,-1.15,0.99,
1.205,3.22,-1.42,-1.19,0.99,-1.22,0.96,
1.206,3.22,-1.42,-1.19,0.91,-1.37,0.91,
1.209,6.75,-2.04,-0.69,0.91,-1.37,0.91,
1.209,6.75,-2.04,-0.69,0.82,-1.49,0.84,
1.211,6.75,-2.04,-0.69,0.74,-1.60,0.78,
1.229,6.75,-2.04,-0.69,0.62,-1.74,0.68,
1.229,6.75,-2.04,-0.69,0.58,-1.78,0.65,
1.229,6.75,-2.04,-0.69,0.51,-1.86,0.59,
1.23,7.82,-2.86,-0.30,0.51,-1.86,0.59,
1.23,7.82,-2.86,-0.30,0.43,-1.94,0.54,
1.23,7.82,-2.86,-0.30,0.35,-2.00,0.50,
1.231,7.82,-2.86,-0.30,0.25,-2.10,0.47,
1.231,7.82,-2.86,-0.30,0.22,-2.13,0.47,
1.231,7.82,-2.86,-0.30,0.16,-2.19,0.47,
1.232,5.92,-3.62,-0.15,0.16,-2.19,0.47,
1.232,5.92,-3.62,-0.15,0.10,-2.25,0.49,
1.232,5.92,-3.62,-0.15,0.05,-2.30,0.53,
1.247,5.92,-3.62,-0.15,-0.00,-2.39,0.60,
1.248,5.92,-3.62,-0.15,-0.02,-2.42,0.62,
1.248,5.92,-3.62,-0.15,-0.05,-2.49,0.68,
1.248,3.44,-3.59,0.77,-0.05,-2.49,0.68,
1.249,3.44,-3.59,0.77,-0.08,-2.56,0.73,
1.249,3.44,-3.59,0.77,-0.10,-2.63,0.78,
1.249,3.44,-3.59,0.77,-0.13,-2.69,0.86,
1.249,3.44,-3.59,0.77,-0.15,-2.70,0.89,
1.249,3.44,-3.59,0.77,-0.17,-2.72,0.94,
1.25,1.83,-3.08,0.91,-0.17,-2.72,0.94,
1.25,1.83,-3.08,0.91,-0.19,-2.73,0.99,
1.253,1.83,-3.08,0.91,-0.21,-2.74,1.03,
1.255,1.83,-3.08,0.91,-0.22,-2.72,1.11,
1.255,1.83,-3.08,0.91,-0.23,-2.72,1.13,
1.272,1.83,-3.08,0.91,-0.25,-2.71,1.17,
1.272,0.47,-2.58,0.57,-0.25,-2.71,1.17,
1.273,0.47,-2.58,0.57,-0.26,-2.69,1.22,
1.273,0.47,-2.58,0.57,-0.27,-2.66,1.25,
1.273,0.47,-2.58,0.57,-0.28,-2.61,1.29,
1.273,0.47,-2.58,0.57,-0.28,-2.60,1.31,
1.273,0.47,-2.58,0.57,-0.29,-2.57,1.32,
1.274,-0.25,-2.04,0.62,-0.29,-2.57,1.32,
1.274,-0.25,-2.04,0.62,-0.29,-2.53,1.33,
1.274,-0.25,-2.04,0.62,-0.30,-2.49,1.34,
1.274,-0.25,-2.04,0.62,-0.32,-2.43,1.34,
1.279,-0.25,-2.04,0.62,-0.32,-2.40,1.34,
1.28,-0.25,-2.04,0.62,-0.33,-2.34,1.33,
1.28,-0.52,-1.57,0.57,-0.33,-2.34,1.33,
1.28,-0.52,-1.57,0.57,-0.34,-2.28,1.32,
1.281,-0.52,-1.57,0.57,-0.36,-2.19,1.30,
1.284,-0.52,-1.57,0.57,-0.38,-2.13,1.28,
1.284,-0.52,-1.57,0.57,-0.39,-2.10,1.27,
1.286,-0.52,-1.57,0.57,-0.42,-2.03,1.25,
1.29,-0.55,-1.48,0.05,-0.42,-2.03,1.25,
1.29,-0.55,-1.48,0.05,-0.44,-1.97,1.23,
1.291,-0.55,-1.48,0.05,-0.46,-1.91,1.21,
1.293,-0.55,-1.48,0.05,-0.50,-1.82,1.17,
1.294,-0.55,-1.48,0.05,-0.52,-1.79,1.16,
1.296,-0.55,-1.48,0.05,-0.55,-1.73,1.14,
1.298,-0.36,-1.86,-0.62,-0.55,-1.73,1.14,
1.299,-0.36,-1.86,-0.62,-0.58,-1.68,1.11,
1.3,-0.36,-1.86,-0.62,-0.62,-1.62,1.09,
1.303,-0.36,-1.86,-0.62,-0.68,-1.54,1.05,
1.305,-0.36,-1.86,-0.62,-0.71,-1.50,1.04,
1.307,-0.36,-1.86,-0.62,-0.76,-1.44,1.01,
1.309,-0.14,-2.16,-1.39,-0.76,-1.44,1.01,
1.309,-0.14,-2.16,-1.39,-0.82,-1.37,0.98,
1.31,-0.14,-2.16,-1.39,-0.89,-1.31,0.95,
1.313,-0.14,-2.16,-1.39,-1.00,-1.23,0.90,
1.314,-0.14,-2.16,-1.39,-1.04,-1.20,0.88,
1.316,-0.14,-2.16,-1.39,-1.12,-1.14,0.85,
1.319,0.10,-2.49,-2.30,-1.12,-1.14,0.85,
1.319,0.10,-2.49,-2.30,-1.22,-1.10,0.81,
1.32,0.10,-2.49,-2.30,-1.36,-1.11,0.76,
1.323,0.10,-2.49,-2.30,-1.56,-1.08,0.68,
1.324,0.10,-2.49,-2.30,-1.63,-1.05,0.65,
1.326,0.10,-2.49,-2.30,-1.79,-1.03,0.58,
1.328,0.87,-3.08,-4.70,-1.79,-1.03,0.58,
1.329,0.87,-3.08,-4.70,-1.98,-1.03,0.50,
1.33,0.87,-3.08,-4.70,-2.19,-1.01,0.41,
1.333,0.87,-3.08,-4.70,-2.51,-0.94,0.23,
1.334,0.87,-3.08,-4.70,-2.60,-0.89,0.16,
1.336,0.87,-3.08,-4.70,-2.76,-0.78,0.03,
1.339,2.73,-2.80,-6.42,-2.76,-0.78,0.03,
1.339,2.73,-2.80,-6.42,-2.90,-0.67,-0.10,
1.34,2.73,-2.80,-6.42,-3.03,-0.57,-0.21,
1.343,2.73,-2.80,-6.42,-3.18,-0.45,-0.34,
1.344,2.73,-2.80,-6.42,-3.22,-0.42,-0.38,
1.346,2.73,-2.80,-6.42,-3.29,-0.37,-0.44,
1.348,1.29,-1.98,-4.47,-3.29,-0.37,-0.44,
1.348,1.29,-1.98,-4.47,-3.34,-0.33,-0.48,
1.35,1.29,-1.98,-4.47,-3.37,-0.32,-0.51,
1.353,1.29,-1.98,-4.47,-3.39,-0.32,-0.53,
1.355,1.29,-1.98,-4.47,-3.39,-0.32,-0.53,
1.357,1.29,-1.98,-4.47,-3.36,-0.33,-0.52,
1.359,-1.36,-0.67,-1.67,-3.36,-0.33,-0.52,
1.36,-1.36,-0.67,-1.67,-3.31,-0.34,-0.50,
1.36,-1.36,-0.67,-1.67,-3.24,-0.34,-0.47,
1.363,-1.36,-0.67,-1.67,-3.10,-0.35,-0.41,
1.364,-1.36,-0.67,-1.67,-3.05,-0.35,-0.38,
1.366,-1.36,-0.67,-1.67,-2.92,-0.35,-0.33,
1.368,-3.52,2.09,1.43,-2.92,-0.35,-0.33,
1.369,-3.52,2.09,1.43,-2.78,-0.33,-0.26,
1.37,-3.52,2.09,1.43,-2.62,-0.30,-0.19,
1.373,-3.52,2.09,1.43,-2.36,-0.26,-0.08,
1.375,-3.52,2.09,1.43,-2.26,-0.25,-0.04,
1.376,-3.52,2.09,1.43,-2.08,-0.22,0.04,
1.378,-5.21,5.11,3.68,-2.08,-0.22,0.04,
1.396,-5.21,5.11,3.68,-1.88,-0.18,0.12,
1.396,-5.21,5.11,3.68,-1.68,-0.15,0.20,
1.396,-5.21,5.11,3.68,-1.36,-0.11,0.30,
1.396,-5.21,5.11,3.68,-1.26,-0.10,0.33,
1.396,-5.21,5.11,3.68,-1.05,-0.09,0.39,
1.396,-5.64,7.13,5.01,-1.05,-0.09,0.39,
1.397,-5.64,7.13,5.01,-0.83,-0.08,0.44,
1.397,-5.64,7.13,5.01,-0.62,-0.07,0.48,
1.397,-5.64,7.13,5.01,-0.31,-0.06,0.53,
1.397,-5.64,7.13,5.01,-0.21,-0.05,0.55,
1.397,-5.64,7.13,5.01,-0.02,-0.03,0.57,
1.405,-4.91,8.18,5.33,-0.02,-0.03,0.57,
1.406,-4.91,8.18,5.33,0.15,-0.01,0.59,
1.406,-4.91,8.18,5.33,0.32,0.02,0.60,
1.406,-4.91,8.18,5.33,0.55,0.05,0.61,
1.406,-4.91,8.18,5.33,0.63,0.07,0.61,
1.406,-4.91,8.18,5.33,0.76,0.09,0.60,
1.415,-4.02,7.81,3.95,0.76,0.09,0.60,
1.415,-4.02,7.81,3.95,0.89,0.12,0.59,
1.415,-4.02,7.81,3.95,1.00,0.14,0.58,
1.416,-4.02,7.81,3.95,1.14,0.19,0.55,
1.416,-4.02,7.81,3.95,1.18,0.20,0.54,
1.418,-4.02,7.81,3.95,1.26,0.23,0.52,
1.419,-3.40,7.29,2.51,1.26,0.23,0.52,
1.419,-3.40,7.29,2.51,1.34,0.26,0.49,
1.422,-3.40,7.29,2.51,1.40,0.27,0.47,
1.436,-3.40,7.29,2.51,1.49,0.28,0.43,
1.436,-3.40,7.29,2.51,1.52,0.28,0.42,
1.436,-3.40,7.29,2.51,1.58,0.29,0.39,
1.436,-3.13,6.68,1.61,1.58,0.29,0.39,
1.437,-3.13,6.68,1.61,1.63,0.29,0.37,
1.437,-3.13,6.68,1.61,1.69,0.30,0.35,
1.437,-3.13,6.68,1.61,1.77,0.32,0.33,
1.437,-3.13,6.68,1.61,1.79,0.33,0.33,
1.437,-3.13,6.68,1.61,1.86,0.35,0.32,
1.445,-3.07,5.38,1.51,1.86,0.35,0.32,
1.445,-3.07,5.38,1.51,1.92,0.38,0.32,
1.446,-3.07,5.38,1.51,1.98,0.40,0.32,
1.446,-3.07,5.38,1.51,2.09,0.44,0.32,
1.446,-3.07,5.38,1.51,2.13,0.45,0.32,
1.446,-3.07,5.38,1.51,2.20,0.47,0.32,
1.45,-2.64,3.92,1.43,2.20,0.47,0.32,
1.45,-2.64,3.92,1.43,2.28,0.50,0.32,
1.45,-2.64,3.92,1.43,2.35,0.52,0.31,
1.454,-2.64,3.92,1.43,2.46,0.55,0.30,
1.455,-2.64,3.92,1.43,2.49,0.57,0.30,
1.457,-2.64,3.92,1.43,2.56,0.59,0.29,
1.46,-1.98,3.15,0.98,2.56,0.59,0.29,
1.46,-1.98,3.15,0.98,2.63,0.62,0.28,
1.46,-1.98,3.15,0.98,2.68,0.65,0.27,
1.463,-1.98,3.15,0.98,2.77,0.69,0.27,
1.464,-1.98,3.15,0.98,2.80,0.70,0.26,
1.466,-1.98,3.15,0.98,2.84,0.73,0.26,
1.471,-1.54,2.37,0.18,2.84,0.73,0.26,
1.471,-1.54,2.37,0.18,2.89,0.76,0.25,
1.471,-1.54,2.37,0.18,2.92,0.80,0.24,
1.473,-1.54,2.37,0.18,2.95,0.84,0.22,
1.476,-1.54,2.37,0.18,2.96,0.86,0.21,
1.478,-1.54,2.37,0.18,2.93,0.88,0.17,
1.479,-0.41,1.06,-1.53,2.93,0.88,0.17,
1.479,-0.41,1.06,-1.53,2.89,0.88,0.14,
1.48,-0.41,1.06,-1.53,2.85,0.87,0.12,
1.483,-0.41,1.06,-1.53,2.74,0.86,0.06,
1.487,-0.41,1.06,-1.53,2.69,0.86,0.03,
1.488,-0.41,1.06,-1.53,2.61,0.86,-0.02,
1.489,0.97,-0.56,-3.58,2.61,0.86,-0.02,
1.49,0.97,-0.56,-3.58,2.54,0.87,-0.08,
1.49,0.97,-0.56,-3.58,2.47,0.87,-0.14,
1.493,0.97,-0.56,-3.58,2.39,0.85,-0.24,
1.495,0.97,-0.56,-3.58,2.36,0.83,-0.27,
1.497,0.97,-0.56,-3.58,2.31,0.79,-0.35,
1.499,1.94,-1.57,-2.65,2.31,0.79,-0.35,
1.499,1.94,-1.57,-2.65,2.26,0.76,-0.42,
1.502,1.94,-1.57,-2.65,2.20,0.74,-0.50,
1.504,1.94,-1.57,-2.65,2.11,0.72,-0.62,
1.508,1.94,-1.57,-2.65,2.07,0.72,-0.66,
1.509,1.94,-1.57,-2.65,2.01,0.74,-0.74,
1.511,2.93,-1.98,-2.85,2.01,0.74,-0.74,
1.512,2.93,-1.98,-2.85,1.94,0.77,-0.81,
1.512,2.93,-1.98,-2.85,1.87,0.81,-0.88,
1.517,2.93,-1.98,-2.85,1.75,0.87,-0.97,
1.52,2.93,-1.98,-2.85,1.72,0.88,-1.00,
1.52,2.93,-1.98,-2.85,1.64,0.89,-1.05,
1.53,2.96,-3.21,-3.11,1.64,0.89,-1.05,
1.531,2.96,-3.21,-3.11,1.56,0.87,-1.08,
1.531,2.96,-3.21,-3.11,1.48,0.84,-1.11,
1.531,2.96,-3.21,-3.11,1.37,0.76,-1.12,
1.531,2.96,-3.21,-3.11,1.34,0.73,-1.12,
1.532,2.96,-3.21,-3.11,1.28,0.67,-1.11,
1.535,1.61,-3.98,-2.41,1.28,0.67,-1.11,
1.535,1.61,-3.98,-2.41,1.22,0.61,-1.10,
1.535,1.61,-3.98,-2.41,1.17,0.55,-1.07,
1.536,1.61,-3.98,-2.41,1.11,0.48,-1.01,
1.536,1.61,-3.98,-2.41,1.09,0.47,-0.99,
1.551,1.61,-3.98,-2.41,1.06,0.45,-0.94,
1.551,-0.02,-3.77,-1.81,1.06,0.45,-0.94,
1.552,-0.02,-3.77,-1.81,1.05,0.44,-0.89,
1.552,-0.02,-3.77,-1.81,1.04,0.43,-0.82,
1.552,-0.02,-3.77,-1.81,1.05,0.43,-0.72,
1.553,-0.02,-3.77,-1.81,1.06,0.43,-0.69,
1.574,-0.02,-3.77,-1.81,1.08,0.44,-0.62,
1.575,-1.24,-2.55,-0.65,1.08,0.44,-0.62,
1.575,-1.24,-2.55,-0.65,1.11,0.44,-0.55,
1.575,-1.24,-2.55,-0.65,1.14,0.44,-0.49,
1.575,-1.24,-2.55,-0.65,1.19,0.40,-0.40,
1.576,-1.24,-2.55,-0.65,1.21,0.37,-0.38,
1.576,-1.24,-2.55,-0.65,1.23,0.32,-0.34,
1.576,-1.19,-1.43,0.14,1.23,0.32,-0.34,
1.577,-1.19,-1.43,0.14,1.24,0.30,-0.30,
1.577,-1.19,-1.43,0.14,1.25,0.30,-0.25,
1.577,-1.19,-1.43,0.14,1.25,0.35,-0.19,
1.577,-1.19,-1.43,0.14,1.25,0.38,-0.17,
1.578,-1.19,-1.43,0.14,1.24,0.42,-0.13,
1.578,-1.06,-0.31,-0.94,1.24,0.42,-0.13,
1.578,-1.06,-0.31,-0.94,1.23,0.48,-0.09,
1.578,-1.06,-0.31,-0.94,1.22,0.53,-0.05,
1.579,-1.06,-0.31,-0.94,1.21,0.59,-0.01,
1.579,-1.06,-0.31,-0.94,1.20,0.61,0.00,
1.579,-1.06,-0.31,-0.94,1.20,0.64,0.02,
1.579,-0.37,-0.47,-0.81,1.20,0.64,0.02,
1.58,-0.37,-0.47,-0.81,1.22,0.64,0.04,
1.585,-0.37,-0.47,-0.81,1.24,0.61,0.05,
1.585,-0.37,-0.47,-0.81,1.26,0.55,0.05,
1.586,-0.37,-0.47,-0.81,1.28,0.53,0.05,
1.587,-0.37,-0.47,-0.81,1.29,0.50,0.05,
1.589,0.57,-1.50,-0.10,1.29,0.50,0.05,
1.589,0.57,-1.50,-0.10,1.31,0.48,0.04,
1.59,0.57,-1.50,-0.10,1.31,0.47,0.04,
1.593,0.57,-1.50,-0.10,1.31,0.48,0.04,
1.594,0.57,-1.50,-0.10,1.31,0.48,0.04,
1.596,0.57,-1.50,-0.10,1.31,0.48,0.05,
1.598,0.35,-3.14,-0.66,1.31,0.48,0.05,
1.599,0.35,-3.14,-0.66,1.30,0.49,0.06,
1.601,0.35,-3.14,-0.66,1.28,0.50,0.07,
1.605,0.35,-3.14,-0.66,1.23,0.49,0.09,
1.606,0.35,-3.14,-0.66,1.21,0.49,0.10,
1.607,0.35,-3.14,-0.66,1.18,0.48,0.11,
1.609,-0.26,-3.96,-1.32,1.18,0.48,0.11,
1.609,-0.26,-3.96,-1.32,1.14,0.47,0.13,
1.613,-0.26,-3.96,-1.32,1.10,0.45,0.15,
1.613,-0.26,-3.96,-1.32,1.03,0.44,0.18,
1.615,-0.26,-3.96,-1.32,1.01,0.44,0.20,
1.617,-0.26,-3.96,-1.32,0.96,0.44,0.22,
1.619,-0.71,-4.33,-1.66,0.96,0.44,0.22,
1.619,-0.71,-4.33,-1.66,0.91,0.45,0.25,
1.621,-0.71,-4.33,-1.66,0.86,0.47,0.27,
1.624,-0.71,-4.33,-1.66,0.79,0.50,0.31,
1.625,-0.71,-4.33,-1.66,0.77,0.51,0.33,
1.627,-0.71,-4.33,-1.66,0.73,0.53,0.36,
1.629,-0.57,-4.09,-1.72,0.73,0.53,0.36,
1.629,-0.57,-4.09,-1.72,0.69,0.55,0.39,
1.63,-0.57,-4.09,-1.72,0.64,0.57,0.43,
1.633,-0.57,-4.09,-1.72,0.58,0.60,0.48,
1.634,-0.57,-4.09,-1.72,0.55,0.61,0.51,
1.638,-0.57,-4.09,-1.72,0.51,0.64,0.56,
1.65,-1.17,-3.34,-2.00,0.51,0.64,0.56,
1.651,-1.17,-3.34,-2.00,0.47,0.68,0.61,
1.651,-1.17,-3.34,-2.00,0.43,0.71,0.66,
1.651,-1.17,-3.34,-2.00,0.36,0.79,0.74,
1.651,-1.17,-3.34,-2.00,0.34,0.84,0.78,
1.652,-1.17,-3.34,-2.00,0.29,0.93,0.85,
1.652,-2.22,-1.84,-2.19,0.29,0.93,0.85,
1.652,-2.22,-1.84,-2.19,0.25,1.01,0.92,
1.652,-2.22,-1.84,-2.19,0.23,1.04,0.98,
1.654,-2.22,-1.84,-2.19,0.25,1.05,1.04,
1.674,-2.22,-1.84,-2.19,0.27,1.05,1.06,
1.675,-2.22,-1.84,-2.19,0.30,1.04,1.07,
1.675,-1.72,-1.00,0.11,0.30,1.04,1.07,
1.675,-1.72,-1.00,0.11,0.34,1.05,1.07,
1.676,-1.72,-1.00,0.11,0.38,1.07,1.05,
1.676,-1.72,-1.00,0.11,0.43,1.13,1.00,
1.676,-1.72,-1.00,0.11,0.44,1.16,0.98,
1.676,-1.72,-1.00,0.11,0.47,1.22,0.92,
1.676,0.20,-0.75,-0.16,0.47,1.22,0.92,
1.677,0.20,-0.75,-0.16,0.48,1.30,0.85,
1.677,0.20,-0.75,-0.16,0.50,1.38,0.77,
1.677,0.20,-0.75,-0.16,0.51,1.50,0.62,
1.677,0.20,-0.75,-0.16,0.51,1.54,0.57,
1.677,0.20,-0.75,-0.16,0.50,1.63,0.46,
1.68,2.33,-0.72,-0.78,0.50,1.63,0.46,
1.68,2.33,-0.72,-0.78,0.50,1.70,0.35,
1.68,2.33,-0.72,-0.78,0.49,1.77,0.23,
1.683,2.33,-0.72,-0.78,0.46,1.86,0.05,
1.684,2.33,-0.72,-0.78,0.44,1.90,-0.06,
1.687,2.33,-0.72,-0.78,0.43,1.92,-0.12,
1.689,3.16,-0.71,-1.05,0.43,1.92,-0.12,
1.689,3.16,-0.71,-1.05,0.41,1.96,-0.23,
1.692,3.16,-0.71,-1.05,0.38,2.00,-0.33,
1.695,3.16,-0.71,-1.05,0.35,2.07,-0.48,
1.696,3.16,-0.71,-1.05,0.34,2.10,-0.52,
1.696,3.16,-0.71,-1.05,0.32,2.17,-0.59,
1.699,2.53,-0.30,-1.51,0.32,2.17,-0.59,
1.699,2.53,-0.30,-1.51,0.30,2.25,-0.65,
1.701,2.53,-0.30,-1.51,0.28,2.36,-0.70,
1.706,2.53,-0.30,-1.51,0.22,2.54,-0.74,
1.706,2.53,-0.30,-1.51,0.19,2.61,-0.75,
1.708,2.53,-0.30,-1.51,0.13,2.74,-0.76,
1.709,0.69,-0.53,-2.86,0.13,2.74,-0.76,
1.709,0.69,-0.53,-2.86,0.05,2.89,-0.76,
1.711,0.69,-0.53,-2.86,-0.06,3.07,-0.74,
1.727,0.69,-0.53,-2.86,-0.36,3.51,-0.71,
1.727,0.69,-0.53,-2.86,-0.53,3.76,-0.70,
1.727,0.69,-0.53,-2.86,-0.95,4.43,-0.67,
1.727,-1.37,0.31,-12.53,-0.95,4.43,-0.67,
1.728,-1.37,0.31,-12.53,-1.32,5.02,-0.61,
1.728,-1.37,0.31,-12.53,-1.52,5.34,-0.50,
1.728,-1.37,0.31,-12.53,-1.62,5.44,-0.28,
1.728,-1.37,0.31,-12.53,-1.64,5.35,-0.13,
1.728,-1.37,0.31,-12.53,-1.65,5.26,-0.05,
1.729,-6.65,0.38,-2.72,-1.65,5.26,-0.05,
1.729,-6.65,0.38,-2.72,-1.64,5.06,0.11,
1.732,-6.65,0.38,-2.72,-1.61,4.84,0.24,
1.733,-6.65,0.38,-2.72,-1.57,4.53,0.33,
1.736,-6.65,0.38,-2.72,-1.57,4.44,0.34,
1.737,-6.65,0.38,-2.72,-1.55,4.29,0.32,
1.739,-2.39,-0.44,1.19,-1.55,4.29,0.32,
1.739,-2.39,-0.44,1.19,-1.52,4.21,0.27,
1.741,-2.39,-0.44,1.19,-1.47,4.21,0.20,
1.744,-2.39,-0.44,1.19,-1.36,4.26,0.06,
1.744,-2.39,-0.44,1.19,-1.28,4.31,-0.06,
1.748,-2.39,-0.44,1.19,-1.24,4.33,-0.12,
1.751,3.69,0.82,0.86,-1.24,4.33,-0.12,
1.751,3.69,0.82,0.86,-1.15,4.36,-0.24,
1.751,3.69,0.82,0.86,-1.07,4.35,-0.36,
1.754,3.69,0.82,0.86,-0.93,4.29,-0.54,
1.755,3.69,0.82,0.86,-0.89,4.26,-0.60,
1.757,3.69,0.82,0.86,-0.79,4.18,-0.70,
1.759,5.53,1.24,1.31,-0.79,4.18,-0.70,
1.759,5.53,1.24,1.31,-0.69,4.09,-0.79,
1.76,5.53,1.24,1.31,-0.59,3.99,-0.88,
1.763,5.53,1.24,1.31,-0.44,3.81,-0.98,
1.765,5.53,1.24,1.31,-0.39,3.74,-1.01,
1.766,5.53,1.24,1.31,-0.30,3.61,-1.07,
1.769,5.19,1.50,2.75,-0.30,3.61,-1.07,
1.769,5.19,1.50,2.75,-0.21,3.47,-1.11,
1.777,5.19,1.50,2.75,-0.14,3.32,-1.14,
1.777,5.19,1.50,2.75,-0.04,3.11,-1.17,
1.777,5.19,1.50,2.75,0.01,2.98,-1.18,
1.778,5.19,1.50,2.75,0.03,2.91,-1.17,
1.781,4.51,2.10,2.56,0.03,2.91,-1.17,
1.781,4.51,2.10,2.56,0.06,2.77,-1.15,
1.825,4.51,2.10,2.56,0.10,2.63,-1.12,
1.825,4.51,2.10,2.56,0.16,2.42,-1.05,
1.826,4.51,2.10,2.56,0.17,2.34,-1.02,
1.826,4.51,2.10,2.56,0.21,2.18,-0.95,
1.826,3.33,2.60,2.63,0.21,2.18,-0.95,
1.826,3.33,2.60,2.63,0.26,2.01,-0.88,
1.826,3.33,2.60,2.63,0.31,1.82,-0.81,
1.826,3.33,2.60,2.63,0.40,1.52,-0.68,
1.826,3.33,2.60,2.63,0.44,1.42,-0.64,
1.827,3.33,2.60,2.63,0.50,1.19,-0.54,
1.827,3.42,3.32,3.59,0.50,1.19,-0.54,
1.827,3.42,3.32,3.59,0.58,0.96,-0.44,
1.827,3.42,3.32,3.59,0.66,0.72,-0.33,
1.827,3.42,3.32,3.59,0.78,0.35,-0.16,
1.827,3.42,3.32,3.59,0.82,0.23,-0.10,
1.828,3.42,3.32,3.59,0.89,0.01,0.02,
1.828,3.63,3.38,3.73,0.89,0.01,0.02,
1.828,3.63,3.38,3.73,0.95,-0.21,0.15,
1.828,3.63,3.38,3.73,1.01,-0.42,0.27,
1.828,3.63,3.38,3.73,1.08,-0.70,0.47,
1.828,3.63,3.38,3.73,1.10,-0.80,0.53,
1.829,3.63,3.38,3.73,1.13,-0.98,0.66,
1.829,2.98,2.92,2.85,1.13,-0.98,0.66,
1.829,2.98,2.92,2.85,1.17,-1.17,0.78,
1.829,2.98,2.92,2.85,1.21,-1.37,0.91,
1.829,2.98,2.92,2.85,1.26,-1.66,1.08,
1.829,2.98,2.92,2.85,1.28,-1.76,1.14,
1.829,2.98,2.92,2.85,1.35,-2.06,1.29,
1.83,2.09,1.63,3.12,1.35,-2.06,1.29,
1.83,2.09,1.63,3.12,1.38,-2.16,1.34,
1.834,2.09,1.63,3.12,1.42,-2.36,1.43,
1.835,2.09,1.63,3.12,1.48,-2.66,1.56,
1.835,2.09,1.63,3.12,1.50,-2.75,1.60,
1.837,2.09,1.63,3.12,1.54,-2.93,1.67,
1.839,1.39,0.79,2.83,1.54,-2.93,1.67,
1.839,1.39,0.79,2.83,1.58,-3.09,1.74,
1.841,1.39,0.79,2.83,1.62,-3.25,1.80,
1.844,1.39,0.79,2.83,1.67,-3.46,1.88,
1.849,1.39,0.79,2.83,1.69,-3.53,1.90,
1.849,1.39,0.79,2.83,1.72,-3.66,1.95,
1.85,0.80,0.33,2.05,1.72,-3.66,1.95,
1.85,0.80,0.33,2.05,1.75,-3.80,1.98,
1.851,0.80,0.33,2.05,1.78,-3.95,2.02,
1.855,0.80,0.33,2.05,1.83,-4.17,2.06,
1.857,0.80,0.33,2.05,1.86,-4.32,2.07,
1.857,0.80,0.33,2.05,1.88,-4.40,2.08,
1.859,0.49,-0.21,2.20,1.88,-4.40,2.08,
1.859,0.49,-0.21,2.20,1.92,-4.56,2.10,
1.862,0.49,-0.21,2.20,1.96,-4.71,2.11,
1.864,0.49,-0.21,2.20,2.03,-4.94,2.12,
1.865,0.49,-0.21,2.20,2.07,-5.08,2.12,
1.867,0.49,-0.21,2.20,2.09,-5.14,2.13,
1.869,0.58,-0.43,2.26,2.09,-5.14,2.13,
1.869,0.58,-0.43,2.26,2.12,-5.24,2.13,
1.871,0.58,-0.43,2.26,2.15,-5.33,2.14,
1.874,0.58,-0.43,2.26,2.19,-5.45,2.16,
1.876,0.58,-0.43,2.26,2.20,-5.48,2.17,
1.876,0.58,-0.43,2.26,2.22,-5.54,2.18,
1.879,0.16,-0.49,1.69,2.22,-5.54,2.18,
1.899,0.16,-0.49,1.69,2.24,-5.59,2.18,
1.899,0.16,-0.49,1.69,2.25,-5.63,2.19,
1.9,0.16,-0.49,1.69,2.25,-5.67,2.20,
1.9,0.16,-0.49,1.69,2.25,-5.70,2.21,
1.9,0.16,-0.49,1.69,2.24,-5.72,2.21,
1.901,0.07,-0.38,1.04,2.24,-5.72,2.21,
1.901,0.07,-0.38,1.04,2.24,-5.76,2.21,
1.901,0.07,-0.38,1.04,2.22,-5.81,2.20,
1.901,0.07,-0.38,1.04,2.19,-5.88,2.18,
1.902,0.07,-0.38,1.04,2.17,-5.91,2.18,
1.902,0.07,-0.38,1.04,2.14,-5.97,2.17,
1.902,0.52,-0.43,0.91,2.14,-5.97,2.17,
1.903,0.52,-0.43,0.91,2.11,-6.03,2.15,
1.903,0.52,-0.43,0.91,2.07,-6.09,2.14,
1.908,0.52,-0.43,0.91,2.01,-6.18,2.12,
1.908,0.52,-0.43,0.91,1.96,-6.24,2.10,
1.909,0.52,-0.43,0.91,1.93,-6.26,2.10,
1.909,0.71,-0.64,0.88,1.93,-6.26,2.10,
1.909,0.71,-0.64,0.88,1.89,-6.32,2.08,
1.912,0.71,-0.64,0.88,1.84,-6.38,2.07,
1.913,0.71,-0.64,0.88,1.77,-6.49,2.06,
1.915,0.71,-0.64,0.88,1.73,-6.60,2.05,
1.917,0.71,-0.64,0.88,1.72,-6.66,2.05,
1.919,0.11,-1.00,1.37,1.72,-6.66,2.05,
1.919,0.11,-1.00,1.37,1.69,-6.76,2.04,
1.933,0.11,-1.00,1.37,1.66,-6.84,2.03,
1.933,0.11,-1.00,1.37,1.63,-6.97,2.01,
1.934,0.11,-1.00,1.37,1.62,-7.05,2.00,
1.934,0.11,-1.00,1.37,1.61,-7.09,2.00,
1.934,-1.20,-1.13,1.96,1.61,-7.09,2.00,
1.935,-1.20,-1.13,1.96,1.61,-7.13,1.99,
1.935,-1.20,-1.13,1.96,1.60,-7.15,1.98,
1.935,-1.20,-1.13,1.96,1.59,-7.13,1.98,
1.935,-1.20,-1.13,1.96,1.58,-7.07,1.99,
1.947,-1.20,-1.13,1.96,1.58,-7.03,1.99,
1.948,-3.20,-0.93,0.79,1.58,-7.03,1.99,
1.948,-3.20,-0.93,0.79,1.57,-6.93,2.00,
1.948,-3.20,-0.93,0.79,1.56,-6.81,2.01,
1.948,-3.20,-0.93,0.79,1.55,-6.60,2.03,
1.948,-3.20,-0.93,0.79,1.53,-6.43,2.04,
1.95,-3.20,-0.93,0.79,1.52,-6.35,2.05,
1.95,-4.47,-0.38,-1.16,1.52,-6.35,2.05,
1.95,-4.47,-0.38,-1.16,1.49,-6.15,2.06,
1.951,-4.47,-0.38,-1.16,1.48,-6.09,2.06,
1.986,-4.47,-0.38,-1.16,1.48,-5.97,2.04,
1.987,-4.47,-0.38,-1.16,1.47,-5.93,2.03,
1.987,-4.47,-0.38,-1.16,1.47,-5.91,2.02,
1.988,-4.48,-0.79,-0.48,1.47,-5.91,2.02,
1.988,-4.48,-0.79,-0.48,1.46,-5.88,1.99,
1.988,-4.48,-0.79,-0.48,1.46,-5.83,1.94,
1.988,-4.48,-0.79,-0.48,1.43,-5.73,1.86,
1.988,-4.48,-0.79,-0.48,1.40,-5.63,1.79,
1.988,-4.48,-0.79,-0.48,1.38,-5.57,1.75,
1.989,-3.35,-1.13,-1.03,1.38,-5.57,1.75,
1.989,-3.35,-1.13,-1.03,1.34,-5.44,1.67,
1.989,-3.35,-1.13,-1.03,1.30,-5.28,1.58,
1.989,-3.35,-1.13,-1.03,1.22,-5.03,1.43,
1.989,-3.35,-1.13,-1.03,1.16,-4.86,1.32,
1.989,-3.35,-1.13,-1.03,1.13,-4.77,1.26,
1.99,-2.04,-0.90,-2.49,1.13,-4.77,1.26,
1.99,-2.04,-0.90,-2.49,1.06,-4.61,1.15,
1.99,-2.04,-0.90,-2.49,0.99,-4.47,1.03,
1.99,-2.04,-0.90,-2.49,0.88,-4.24,0.84,
1.99,-2.04,-0.90,-2.49,0.80,-4.11,0.71,
1.99,-2.04,-0.90,-2.49,0.77,-4.03,0.64,
1.991,-1.52,-0.54,-2.72,0.77,-4.03,0.64,
1.991,-1.52,-0.54,-2.72,0.68,-3.88,0.51,
1.994,-1.52,-0.54,-2.72,0.60,-3.71,0.39,
1.994,-1.52,-0.54,-2.72,0.47,-3.45,0.21,
1.994,-1.52,-0.54,-2.72,0.38,-3.27,0.09,
2.0,-1.52,-0.54,-2.72,0.33,-3.18,0.03,
2.001,-2.01,-0.04,-3.31,0.33,-3.18,0.03,
2.001,-2.01,-0.04,-3.31,0.24,-3.01,-0.09,
2.001,-2.01,-0.04,-3.31,0.14,-2.82,-0.21,
2.004,-2.01,-0.04,-3.31,0.01,-2.55,-0.39,
2.006,-2.01,-0.04,-3.31,-0.09,-2.38,-0.52,
2.007,-2.01,-0.04,-3.31,-0.13,-2.29,-0.59,
2.009,-1.69,1.10,-3.22,-0.13,-2.29,-0.59,
2.009,-1.69,1.10,-3.22,-0.22,-2.13,-0.72,
2.01,-1.69,1.10,-3.22,-0.31,-1.98,-0.85,
2.013,-1.69,1.10,-3.22,-0.37,-1.70,-0.95,
2.014,-1.69,1.10,-3.22,-0.37,-1.49,-1.00,
2.016,-1.69,1.10,-3.22,-0.37,-1.39,-1.00,
2.019,-3.91,2.39,-0.50,-0.37,-1.39,-1.00,
2.019,-3.91,2.39,-0.50,-0.34,-1.23,-0.97,
2.02,-3.91,2.39,-0.50,-0.30,-1.08,-0.92,
2.024,-3.91,2.39,-0.50,-0.22,-0.84,-0.82,
2.025,-3.91,2.39,-0.50,-0.15,-0.70,-0.73,
2.028,-3.91,2.39,-0.50,-0.12,-0.63,-0.68,
2.029,-6.40,2.00,2.19,-0.12,-0.63,-0.68,
2.029,-6.40,2.00,2.19,-0.05,-0.49,-0.59,
2.03,-6.40,2.00,2.19,0.02,-0.36,-0.48,
2.033,-6.40,2.00,2.19,0.11,-0.18,-0.32,
2.035,-6.40,2.00,2.19,0.17,-0.06,-0.21,
2.039,-6.40,2.00,2.19,0.20,-0.00,-0.16,
2.041,-5.94,1.19,1.93,0.20,-0.00,-0.16,
2.042,-5.94,1.19,1.93,0.26,0.11,-0.06,
2.043,-5.94,1.19,1.93,0.31,0.21,0.04,
2.044,-5.94,1.19,1.93,0.39,0.31,0.18,
2.045,-5.94,1.19,1.93,0.44,0.35,0.27,
2.067,-5.94,1.19,1.93,0.47,0.36,0.31,
2.067,-3.87,0.80,1.02,0.47,0.36,0.31,
2.067,-3.87,0.80,1.02,0.53,0.36,0.38,
2.068,-3.87,0.80,1.02,0.58,0.34,0.45,
2.068,-3.87,0.80,1.02,0.66,0.27,0.55,
2.068,-3.87,0.80,1.02,0.71,0.20,0.61,
2.068,-3.87,0.80,1.02,0.73,0.16,0.63,
2.068,-1.83,0.77,0.95,0.73,0.16,0.63,
2.068,-1.83,0.77,0.95,0.78,0.06,0.69,
2.068,-1.83,0.77,0.95,0.82,-0.05,0.74,
2.069,-1.83,0.77,0.95,0.88,-0.22,0.81,
2.069,-1.83,0.77,0.95,0.92,-0.34,0.86,
2.069,-1.83,0.77,0.95,0.93,-0.41,0.88,
2.069,-0.17,0.41,0.66,0.93,-0.41,0.88,
2.069,-0.17,0.41,0.66,0.96,-0.53,0.92,
2.077,-0.17,0.41,0.66,0.98,-0.64,0.95,
2.078,-0.17,0.41,0.66,1.00,-0.79,1.00,
2.078,-0.17,0.41,0.66,1.01,-0.87,1.03,
2.078,-0.17,0.41,0.66,1.02,-0.91,1.05,
2.079,1.01,-0.39,0.02,1.02,-0.91,1.05,
2.079,1.01,-0.39,0.02,1.02,-1.00,1.07,
2.081,1.01,-0.39,0.02,1.02,-1.07,1.09,
2.084,1.01,-0.39,0.02,1.02,-1.18,1.10,
2.085,1.01,-0.39,0.02,1.02,-1.26,1.10,
2.117,1.01,-0.39,0.02,1.02,-1.30,1.11,
2.117,1.90,-0.70,-0.08,1.02,-1.30,1.11,
2.117,1.90,-0.70,-0.08,1.01,-1.37,1.10,
2.117,1.90,-0.70,-0.08,1.01,-1.42,1.10,
2.118,1.90,-0.70,-0.08,1.01,-1.49,1.09,
2.118,1.90,-0.70,-0.08,1.01,-1.54,1.08,
2.118,1.90,-0.70,-0.08,1.01,-1.56,1.07,
2.118,1.90,-0.62,0.17,1.01,-1.56,1.07,
2.118,1.90,-0.62,0.17,1.01,-1.60,1.06,
2.118,1.90,-0.62,0.17,1.01,-1.64,1.04,
2.118,1.90,-0.62,0.17,1.03,-1.70,1.02,
2.119,1.90,-0.62,0.17,1.04,-1.73,1.02,
2.119,1.90,-0.62,0.17,1.05,-1.74,1.01,
2.119,1.05,-0.13,0.73,1.05,-1.74,1.01,
2.119,1.05,-0.13,0.73,1.06,-1.75,1.01,
2.119,1.05,-0.13,0.73,1.08,-1.76,1.01,
2.119,1.05,-0.13,0.73,1.10,-1.74,1.00,
2.119,1.05,-0.13,0.73,1.12,-1.72,1.01,
2.12,1.05,-0.13,0.73,1.13,-1.70,1.01,
2.12,0.03,0.40,0.94,1.13,-1.70,1.01,
2.12,0.03,0.40,0.94,1.14,-1.68,1.01,
2.123,0.03,0.40,0.94,1.16,-1.66,1.02,
2.125,0.03,0.40,0.94,1.18,-1.62,1.05,
2.125,0.03,0.40,0.94,1.19,-1.59,1.07,
2.127,0.03,0.40,0.94,1.20,-1.58,1.08,
2.129,-1.14,0.55,1.11,1.20,-1.58,1.08,
2.129,-1.14,0.55,1.11,1.21,-1.55,1.11,
2.13,-1.14,0.55,1.11,1.22,-1.53,1.13,
2.133,-1.14,0.55,1.11,1.23,-1.49,1.17,
2.134,-1.14,0.55,1.11,1.23,-1.46,1.19,
2.139,-1.14,0.55,1.11,1.23,-1.44,1.20,
2.139,-1.65,0.52,1.08,1.23,-1.44,1.20,
2.139,-1.65,0.52,1.08,1.23,-1.41,1.22,
2.14,-1.65,0.52,1.08,1.22,-1.37,1.25,
2.144,-1.65,0.52,1.08,1.20,-1.31,1.30,
2.145,-1.65,0.52,1.08,1.18,-1.27,1.33,
2.147,-1.65,0.52,1.08,1.17,-1.25,1.35,
2.149,-2.02,0.60,0.61,1.17,-1.25,1.35,
2.149,-2.02,0.60,0.61,1.15,-1.21,1.39,
2.15,-2.02,0.60,0.61,1.13,-1.17,1.43,
2.153,-2.02,0.60,0.61,1.08,-1.07,1.50,
2.154,-2.02,0.60,0.61,1.04,-0.97,1.55,
2.157,-2.02,0.60,0.61,1.02,-0.93,1.58,
2.159,-2.49,0.54,-0.29,1.02,-0.93,1.58,
2.159,-2.49,0.54,-0.29,0.98,-0.84,1.64,
2.16,-2.49,0.54,-0.29,0.94,-0.70,1.69,
2.163,-2.49,0.54,-0.29,0.83,-0.35,1.75,
2.166,-2.49,0.54,-0.29,0.75,-0.10,1.79,
2.167,-2.49,0.54,-0.29,0.70,-0.00,1.81,
2.169,-1.92,0.76,-3.31,0.70,-0.00,1.81,
2.171,-1.92,0.76,-3.31,0.62,0.12,1.84,
2.171,-1.92,0.76,-3.31,0.55,0.18,1.85,
2.174,-1.92,0.76,-3.31,0.47,0.21,1.85,
2.175,-1.92,0.76,-3.31,0.42,0.19,1.83,
2.179,-1.92,0.76,-3.31,0.37,0.14,1.77,
2.181,-0.35,-1.03,-1.19,0.37,0.14,1.77,
2.181,-0.35,-1.03,-1.19,0.36,0.11,1.75,
2.183,-0.35,-1.03,-1.19,0.35,0.08,1.73,
2.184,-0.35,-1.03,-1.19,0.33,-0.04,1.66,
2.185,-0.35,-1.03,-1.19,0.33,-0.13,1.61,
2.202,-0.35,-1.03,-1.19,0.32,-0.17,1.59,
2.202,0.55,-1.94,0.91,0.32,-0.17,1.59,
2.202,0.55,-1.94,0.91,0.33,-0.29,1.51,
2.202,0.55,-1.94,0.91,0.38,-0.52,1.39,
2.202,0.55,-1.94,0.91,0.38,-0.52,1.39,
2.203,0.55,-1.94,0.91,0.40,-0.58,1.36,
2.205,0.55,-1.94,0.91,0.40,-0.58,1.36,
2.206,0.55,-1.94,0.91,0.43,-0.64,1.34,
2.206,1.00,-1.76,2.05,0.43,-0.64,1.34,
2.207,1.00,-1.76,2.05,0.46,-0.68,1.32,
2.207,1.00,-1.76,2.05,0.52,-0.74,1.31,
2.207,1.00,-1.76,2.05,0.54,-0.76,1.31,
2.207,1.00,-1.76,2.05,0.58,-0.79,1.31,
2.244,0.92,-1.21,2.42,0.58,-0.79,1.31,
2.245,0.92,-1.21,2.42,0.62,-0.83,1.31,
2.245,0.92,-1.21,2.42,0.67,-0.87,1.32,
2.272,0.92,-1.21,2.42,0.71,-0.90,1.33,
2.272,0.92,-1.21,2.42,0.76,-0.93,1.34,
2.273,0.92,-1.21,2.42,0.80,-0.96,1.35,
2.273,0.70,-0.88,2.68,0.80,-0.96,1.35,
2.273,0.70,-0.88,2.68,0.85,-0.99,1.37,
2.273,0.70,-0.88,2.68,0.90,-1.00,1.38,
2.273,0.70,-0.88,2.68,0.94,-1.01,1.39,
2.274,0.70,-0.88,2.68,0.99,-1.02,1.41,
2.274,0.70,-0.88,2.68,1.03,-1.03,1.43,
2.274,0.54,-0.65,2.44,1.03,-1.03,1.43,
2.274,0.54,-0.65,2.44,1.07,-1.03,1.44,
2.275,0.54,-0.65,2.44,1.11,-1.02,1.46,
2.275,0.54,-0.65,2.44,1.14,-1.01,1.48,
2.275,0.54,-0.65,2.44,1.18,-1.00,1.49,
2.275,0.54,-0.65,2.44,1.21,-0.98,1.51,
2.276,0.47,-0.51,1.69,1.21,-0.98,1.51,
2.276,0.47,-0.51,1.69,1.24,-0.96,1.53,
2.276,0.47,-0.51,1.69,1.27,-0.93,1.55,
2.276,0.47,-0.51,1.69,1.29,-0.89,1.56,
2.277,0.47,-0.51,1.69,1.31,-0.84,1.57,
2.277,0.47,-0.51,1.69,1.33,-0.78,1.59,
2.277,0.51,-0.53,0.50,1.33,-0.78,1.59,
2.277,0.51,-0.53,0.50,1.34,-0.72,1.60,
2.278,0.51,-0.53,0.50,1.35,-0.65,1.61,
2.278,0.51,-0.53,0.50,1.36,-0.56,1.62,
2.278,0.51,-0.53,0.50,1.36,-0.47,1.62,
2.278,0.51,-0.53,0.50,1.36,-0.37,1.62,
2.279,0.25,-0.64,-0.47,1.36,-0.37,1.62,
2.279,0.25,-0.64,-0.47,1.35,-0.28,1.62,
2.279,0.25,-0.64,-0.47,1.34,-0.20,1.62,
2.279,0.25,-0.64,-0.47,1.31,-0.09,1.61,
2.28,0.25,-0.64,-0.47,1.30,-0.06,1.60,
2.28,0.25,-0.64,-0.47,1.27,-0.01,1.59,
2.28,0.39,-0.69,-1.19,1.27,-0.01,1.59,
2.28,0.39,-0.69,-1.19,1.25,0.04,1.57,
2.281,0.39,-0.69,-1.19,1.21,0.09,1.55,
2.281,0.39,-0.69,-1.19,1.18,0.14,1.53,
2.281,0.39,-0.69,-1.19,1.15,0.19,1.50,
2.281,0.39,-0.69,-1.19,1.12,0.25,1.48,
2.282,0.86,-0.57,-1.38,1.12,0.25,1.48,
2.282,0.86,-0.57,-1.38,1.09,0.31,1.46,
2.282,0.86,-0.57,-1.38,1.06,0.36,1.43,
2.292,0.86,-0.57,-1.38,1.02,0.40,1.40,
2.292,0.86,-0.57,-1.38,0.99,0.45,1.37,
2.293,0.86,-0.57,-1.38,0.95,0.49,1.34,
2.293,1.10,-0.18,-1.02,0.95,0.49,1.34,
2.293,1.10,-0.18,-1.02,0.92,0.53,1.31,
2.293,1.10,-0.18,-1.02,0.88,0.56,1.27,
2.294,1.10,-0.18,-1.02,0.85,0.59,1.24,
2.296,1.10,-0.18,-1.02,0.81,0.61,1.21,
2.299,1.10,-0.18,-1.02,0.77,0.63,1.18,
2.308,1.09,0.50,-0.63,0.77,0.63,1.18,
2.309,1.09,0.50,-0.63,0.73,0.63,1.15,
2.309,1.09,0.50,-0.63,0.70,0.64,1.13,
2.31,1.09,0.50,-0.63,0.66,0.65,1.10,
2.31,1.09,0.50,-0.63,0.62,0.65,1.08,
2.31,1.09,0.50,-0.63,0.58,0.66,1.06,
2.31,0.84,1.09,-0.45,0.58,0.66,1.06,
2.311,0.84,1.09,-0.45,0.54,0.65,1.04,
2.311,0.84,1.09,-0.45,0.51,0.65,1.02,
2.313,0.84,1.09,-0.45,0.48,0.65,1.00,
2.314,0.84,1.09,-0.45,0.45,0.64,0.98,
2.317,0.84,1.09,-0.45,0.42,0.64,0.97,
2.329,0.54,1.68,0.02,0.42,0.64,0.97,
2.329,0.54,1.68,0.02,0.40,0.63,0.95,
2.329,0.54,1.68,0.02,0.39,0.61,0.94,
2.329,0.54,1.68,0.02,0.38,0.59,0.93,
2.33,0.54,1.68,0.02,0.37,0.56,0.93,
2.33,0.54,1.68,0.02,0.38,0.51,0.92,
2.331,0.04,2.19,0.97,0.38,0.51,0.92,
2.331,0.04,2.19,0.97,0.39,0.45,0.92,
2.331,0.04,2.19,0.97,0.42,0.37,0.91,
2.335,0.04,2.19,0.97,0.45,0.27,0.91,
2.371,0.04,2.19,0.97,0.49,0.16,0.91,
2.371,0.04,2.19,0.97,0.54,0.04,0.90,
2.372,-0.03,2.44,2.76,0.54,0.04,0.90,
2.372,-0.03,2.44,2.76,0.61,-0.09,0.91,
2.372,-0.03,2.44,2.76,0.68,-0.21,0.91,
2.372,-0.03,2.44,2.76,0.79,-0.39,0.93,
2.372,-0.03,2.44,2.76,0.83,-0.44,0.94,
2.373,-0.03,2.44,2.76,0.92,-0.53,0.97,
2.373,-0.44,2.29,3.49,0.92,-0.53,0.97,
2.373,-0.44,2.29,3.49,1.00,-0.61,1.00,
2.373,-0.44,2.29,3.49,1.08,-0.67,1.03,
2.373,-0.44,2.29,3.49,1.20,-0.73,1.09,
2.374,-0.44,2.29,3.49,1.23,-0.75,1.11,
2.374,-0.44,2.29,3.49,1.31,-0.75,1.16,
2.374,-1.07,1.89,2.51,1.31,-0.75,1.16,
2.374,-1.07,1.89,2.51,1.37,-0.75,1.20,
2.374,-1.07,1.89,2.51,1.44,-0.73,1.25,
2.374,-1.07,1.89,2.51,1.49,-0.71,1.30,
2.375,-1.07,1.89,2.51,1.55,-0.67,1.35,
2.375,-1.07,1.89,2.51,1.60,-0.63,1.40,
2.375,-1.18,1.03,1.05,1.60,-0.63,1.40,
2.375,-1.18,1.03,1.05,1.64,-0.58,1.44,
2.375,-1.18,1.03,1.05,1.68,-0.53,1.49,
2.376,-1.18,1.03,1.05,1.72,-0.48,1.54,
2.376,-1.18,1.03,1.05,1.74,-0.44,1.58,
2.383,-1.18,1.03,1.05,1.76,-0.39,1.62,
2.383,-1.23,0.32,0.14,1.76,-0.39,1.62,
2.401,-1.23,0.32,0.14,1.78,-0.34,1.66,
2.401,-1.23,0.32,0.14,1.79,-0.29,1.70,
2.402,-1.23,0.32,0.14,1.79,-0.24,1.73,
2.402,-1.23,0.32,0.14,1.79,-0.19,1.77,
2.402,-1.23,0.32,0.14,1.79,-0.15,1.80,
2.402,-1.23,-0.04,-0.30,1.79,-0.15,1.80,
2.402,-1.23,-0.04,-0.30,1.78,-0.10,1.82,
2.402,-1.23,-0.04,-0.30,1.77,-0.06,1.83,
2.403,-1.23,-0.04,-0.30,1.76,-0.03,1.85,
2.403,-1.23,-0.04,-0.30,1.74,-0.01,1.85,
2.403,-1.23,-0.04,-0.30,1.72,0.01,1.85,
2.403,-0.77,-0.45,-0.49,1.72,0.01,1.85,
2.403,-0.77,-0.45,-0.49,1.70,0.02,1.84,
2.404,-0.77,-0.45,-0.49,1.67,0.03,1.83,
2.408,-0.77,-0.45,-0.49,1.64,0.02,1.81,
2.409,-0.77,-0.45,-0.49,1.62,0.02,1.80,
2.409,-0.77,-0.45,-0.49,1.59,0.02,1.78,
2.409,-0.40,-0.58,-0.48,1.59,0.02,1.78,
2.409,-0.40,-0.58,-0.48,1.56,0.02,1.76,
2.411,-0.40,-0.58,-0.48,1.54,0.02,1.73,
2.413,-0.40,-0.58,-0.48,1.51,0.01,1.71,
2.421,-0.40,-0.58,-0.48,1.47,0.01,1.67,
2.422,-0.40,-0.58,-0.48,1.45,0.01,1.64,
2.422,-0.18,-0.75,-0.47,1.45,0.01,1.64,
2.422,-0.18,-0.75,-0.47,1.42,-0.00,1.60,
2.422,-0.18,-0.75,-0.47,1.39,-0.01,1.56,
2.424,-0.18,-0.75,-0.47,1.36,-0.03,1.49,
2.424,-0.18,-0.75,-0.47,1.35,-0.04,1.47,
2.426,-0.18,-0.75,-0.47,1.33,-0.05,1.41,
2.429,0.18,-1.01,-0.36,1.33,-0.05,1.41,
2.429,0.18,-1.01,-0.36,1.32,-0.05,1.35,
2.43,0.18,-1.01,-0.36,1.31,-0.06,1.29,
2.433,0.18,-1.01,-0.36,1.30,-0.06,1.23,
2.439,0.18,-1.01,-0.36,1.30,-0.06,1.17,
2.44,0.18,-1.01,-0.36,1.31,-0.06,1.11,
2.441,0.47,-1.24,0.02,1.31,-0.06,1.11,
2.441,0.47,-1.24,0.02,1.32,-0.06,1.06,
2.441,0.47,-1.24,0.02,1.33,-0.06,1.02,
2.444,0.47,-1.24,0.02,1.36,-0.07,0.98,
2.444,0.47,-1.24,0.02,1.40,-0.07,0.94,
2.446,0.47,-1.24,0.02,1.44,-0.08,0.92,
2.469,-0.01,-0.92,0.90,1.44,-0.08,0.92,
2.47,-0.01,-0.92,0.90,1.49,-0.10,0.90,
2.47,-0.01,-0.92,0.90,1.55,-0.12,0.87,
2.47,-0.01,-0.92,0.90,1.64,-0.17,0.85,
2.47,-0.01,-0.92,0.90,1.67,-0.19,0.85,
2.47,-0.01,-0.92,0.90,1.74,-0.23,0.85,
2.471,-0.77,-0.72,1.78,1.74,-0.23,0.85,
2.471,-0.77,-0.72,1.78,1.80,-0.28,0.86,
2.471,-0.77,-0.72,1.78,1.88,-0.33,0.87,
2.471,-0.77,-0.72,1.78,2.01,-0.41,0.88,
2.471,-0.77,-0.72,1.78,2.06,-0.43,0.89,
2.471,-0.77,-0.72,1.78,2.16,-0.48,0.90,
2.471,-1.49,-0.66,2.91,2.16,-0.48,0.90,
2.472,-1.49,-0.66,2.91,2.26,-0.52,0.91,
2.472,-1.49,-0.66,2.91,2.37,-0.56,0.93,
2.473,-1.49,-0.66,2.91,2.49,-0.59,0.95,
2.474,-1.49,-0.66,2.91,2.61,-0.61,0.96,
2.477,-1.49,-0.66,2.91,2.71,-0.62,0.98,
2.481,-2.00,-0.64,3.64,2.71,-0.62,0.98,
2.481,-2.00,-0.64,3.64,2.82,-0.60,0.99,
2.481,-2.00,-0.64,3.64,2.91,-0.58,1.01,
2.486,-2.00,-0.64,3.64,3.04,-0.53,1.05,
2.487,-2.00,-0.64,3.64,3.07,-0.51,1.06,
2.487,-2.00,-0.64,3.64,3.13,-0.48,1.09,
2.489,-2.56,-0.27,1.83,3.13,-0.48,1.09,
2.489,-2.56,-0.27,1.83,3.19,-0.45,1.12,
2.506,-2.56,-0.27,1.83,3.23,-0.44,1.15,
2.507,-2.56,-0.27,1.83,3.27,-0.44,1.20,
2.507,-2.56,-0.27,1.83,3.28,-0.44,1.21,
2.508,-2.56,-0.27,1.83,3.28,-0.47,1.24,
2.508,-3.07,0.29,-0.68,3.28,-0.47,1.24,
2.509,-3.07,0.29,-0.68,3.28,-0.52,1.26,
2.509,-3.07,0.29,-0.68,3.26,-0.58,1.29,
2.51,-3.07,0.29,-0.68,3.21,-0.71,1.33,
2.51,-3.07,0.29,-0.68,3.19,-0.76,1.34,
2.51,-3.07,0.29,-0.68,3.12,-0.87,1.38,
2.511,-3.55,1.46,-2.31,3.12,-0.87,1.38,
2.511,-3.55,1.46,-2.31,3.04,-0.98,1.42,
2.511,-3.55,1.46,-2.31,2.94,-1.08,1.47,
2.515,-3.55,1.46,-2.31,2.77,-1.24,1.54,
2.516,-3.55,1.46,-2.31,2.70,-1.30,1.57,
2.518,-3.55,1.46,-2.31,2.56,-1.42,1.62,
2.519,-4.34,2.82,-3.62,2.56,-1.42,1.62,
2.519,-4.34,2.82,-3.62,2.41,-1.53,1.67,
2.52,-4.34,2.82,-3.62,2.25,-1.64,1.72,
2.524,-4.34,2.82,-3.62,2.02,-1.77,1.77,
2.525,-4.34,2.82,-3.62,1.94,-1.81,1.79,
2.528,-4.34,2.82,-3.62,1.71,-1.92,1.82,
2.529,-4.24,3.61,-3.99,1.71,-1.92,1.82,
2.53,-4.24,3.61,-3.99,1.64,-1.96,1.83,
2.532,-4.24,3.61,-3.99,1.49,-2.02,1.84,
2.534,-4.24,3.61,-3.99,1.28,-2.12,1.85,
2.535,-4.24,3.61,-3.99,1.21,-2.14,1.86,
2.538,-4.24,3.61,-3.99,1.09,-2.19,1.86,
2.539,-4.02,3.69,-3.15,1.09,-2.19,1.86,
2.539,-4.02,3.69,-3.15,0.97,-2.22,1.87,
2.542,-4.02,3.69,-3.15,0.87,-2.23,1.87,
2.543,-4.02,3.69,-3.15,0.76,-2.19,1.89,
2.544,-4.02,3.69,-3.15,0.73,-2.15,1.90,
2.575,-4.02,3.69,-3.15,0.69,-2.05,1.92,
2.575,-3.94,3.14,-0.16,0.69,-2.05,1.92,
2.576,-3.94,3.14,-0.16,0.67,-1.92,1.96,
2.576,-3.94,3.14,-0.16,0.66,-1.78,2.00,
2.577,-3.94,3.14,-0.16,0.70,-1.54,2.09,
2.577,-3.94,3.14,-0.16,0.72,-1.46,2.13,
2.577,-3.94,3.14,-0.16,0.77,-1.31,2.20,
2.578,-4.57,1.97,2.67,0.77,-1.31,2.20,
2.578,-4.57,1.97,2.67,0.84,-1.16,2.30,
2.579,-4.57,1.97,2.67,0.92,-1.03,2.40,
2.579,-4.57,1.97,2.67,1.06,-0.86,2.57,
2.58,-4.57,1.97,2.67,1.10,-0.82,2.63,
2.58,-4.57,1.97,2.67,1.20,-0.72,2.76,
2.58,-5.04,0.78,2.81,1.20,-0.72,2.76,
2.581,-5.04,0.78,2.81,1.28,-0.63,2.89,
2.582,-5.04,0.78,2.81,1.36,-0.53,3.02,
2.582,-5.04,0.78,2.81,1.44,-0.37,3.22,
2.582,-5.04,0.78,2.81,1.45,-0.32,3.29,
2.583,-5.04,0.78,2.81,1.46,-0.18,3.42,
2.583,-5.43,-0.14,0.06,1.46,-0.18,3.42,
2.584,-5.43,-0.14,0.06,1.44,-0.02,3.54,
2.584,-5.43,-0.14,0.06,1.39,0.17,3.66,
2.592,-5.43,-0.14,0.06,1.23,0.52,3.81,
2.592,-5.43,-0.14,0.06,1.18,0.65,3.86,
2.593,-5.43,-0.14,0.06,1.04,0.92,3.95,
2.593,-4.83,-0.18,-4.27,1.04,0.92,3.95,
2.593,-4.83,-0.18,-4.27,0.87,1.23,4.04,
2.593,-4.83,-0.18,-4.27,0.65,1.55,4.11,
2.598,-4.83,-0.18,-4.27,0.26,2.09,4.20,
2.598,-4.83,-0.18,-4.27,0.12,2.28,4.22,
2.599,-4.83,-0.18,-4.27,-0.16,2.67,4.26,
2.599,-3.93,0.83,-8.74,-0.16,2.67,4.26,
2.599,-3.93,0.83,-8.74,-0.43,3.02,4.29,
2.613,-3.93,0.83,-8.74,-0.68,3.32,4.32,
2.613,-3.93,0.83,-8.74,-1.04,3.71,4.36,
2.614,-3.93,0.83,-8.74,-1.15,3.81,4.37,
2.614,-3.93,0.83,-8.74,-1.35,3.99,4.40,
2.614,-2.96,2.43,-8.72,-1.35,3.99,4.40,
2.615,-2.96,2.43,-8.72,-1.53,4.13,4.42,
2.615,-2.96,2.43,-8.72,-1.69,4.25,4.44,
2.615,-2.96,2.43,-8.72,-1.91,4.39,4.47,
2.618,-2.96,2.43,-8.72,-1.97,4.42,4.48,
2.618,-2.96,2.43,-8.72,-2.11,4.46,4.49,
2.663,-2.11,3.84,-7.29,-2.11,4.46,4.49,
2.663,-2.11,3.84,-7.29,-2.24,4.45,4.51,
2.664,-2.11,3.84,-7.29,-2.38,4.44,4.52,
2.664,-2.11,3.84,-7.29,-2.57,4.46,4.58,
2.664,-2.11,3.84,-7.29,-2.63,4.47,4.61,
2.664,-2.11,3.84,-7.29,-2.76,4.48,4.68,
2.665,-1.21,-0.76,-6.79,-2.76,4.48,4.68,
2.665,-1.21,-0.76,-6.79,-2.86,4.46,4.76,
2.665,-1.21,-0.76,-6.79,-2.93,4.40,4.82,
2.665,-1.21,-0.76,-6.79,-3.05,4.31,4.95,
2.666,-1.21,-0.76,-6.79,-3.08,4.27,5.01,
2.666,-1.21,-0.76,-6.79,-3.13,4.18,5.14,
2.666,-2.35,-9.82,-4.05,-3.13,4.18,5.14,
2.666,-2.35,-9.82,-4.05,-3.15,4.10,5.29,
2.667,-2.35,-9.82,-4.05,-3.11,4.06,5.46,
2.668,-2.35,-9.82,-4.05,-2.90,4.04,5.68,
2.669,-2.35,-9.82,-4.05,-2.83,4.01,5.75,
2.669,-2.35,-9.82,-4.05,-2.68,3.90,5.86,
2.669,-3.57,-18.88,2.25,-2.68,3.90,5.86,
2.669,-3.57,-18.88,2.25,-2.49,3.74,5.95,
2.669,-3.57,-18.88,2.25,-2.26,3.52,6.04,
2.67,-3.57,-18.88,2.25,-1.85,3.04,6.14,
2.67,-3.57,-18.88,2.25,-1.70,2.84,6.15,
2.67,-3.57,-18.88,2.25,-1.40,2.40,6.15,
2.67,-2.12,-26.81,7.35,-1.40,2.40,6.15,
2.671,-2.12,-26.81,7.35,-1.10,1.92,6.11,
2.671,-2.12,-26.81,7.35,-0.80,1.40,6.03,
2.671,-2.12,-26.81,7.35,-0.39,0.57,5.87,
2.671,-2.12,-26.81,7.35,-0.26,0.30,5.80,
2.672,-2.12,-26.81,7.35,-0.05,-0.23,5.65,
2.672,1.40,-26.18,5.29,-0.05,-0.23,5.65,
2.672,1.40,-26.18,5.29,0.13,-0.73,5.47,
2.672,1.40,-26.18,5.29,0.27,-1.19,5.27,
2.676,1.40,-26.18,5.29,0.42,-1.79,4.94,
2.676,1.40,-26.18,5.29,0.45,-1.97,4.83,
2.677,1.40,-26.18,5.29,0.50,-2.29,4.60,
2.679,4.09,-18.13,-0.72,0.50,-2.29,4.60,
2.679,4.09,-18.13,-0.72,0.53,-2.56,4.38,
2.68,4.09,-18.13,-0.72,0.55,-2.80,4.15,
2.689,4.09,-18.13,-0.72,0.57,-3.07,3.83,
2.69,4.09,-18.13,-0.72,0.57,-3.15,3.73,
2.69,4.09,-18.13,-0.72,0.57,-3.28,3.53,
2.69,4.62,-8.33,-3.95,0.57,-3.28,3.53,
2.691,4.62,-8.33,-3.95,0.57,-3.40,3.35,
2.693,4.62,-8.33,-3.95,0.57,-3.49,3.17,
2.694,4.62,-8.33,-3.95,0.57,-3.59,2.93,
2.695,4.62,-8.33,-3.95,0.58,-3.62,2.86,
2.697,4.62,-8.33,-3.95,0.59,-3.66,2.72,
2.699,3.87,-1.60,-4.14,0.59,-3.66,2.72,
2.699,3.87,-1.60,-4.14,0.60,-3.68,2.59,
2.702,3.87,-1.60,-4.14,0.62,-3.68,2.48,
2.704,3.87,-1.60,-4.14,0.65,-3.65,2.33,
2.706,3.87,-1.60,-4.14,0.66,-3.63,2.28,
2.707,3.87,-1.60,-4.14,0.68,-3.58,2.18,
2.709,3.07,2.33,-3.40,0.68,-3.58,2.18,
2.709,3.07,2.33,-3.40,0.71,-3.52,2.10,
2.71,3.07,2.33,-3.40,0.73,-3.45,2.03,
2.728,3.07,2.33,-3.40,0.77,-3.32,1.92,
2.728,3.07,2.33,-3.40,0.78,-3.27,1.89,
2.728,3.07,2.33,-3.40,0.80,-3.18,1.83,
2.728,2.69,4.65,-2.90,0.80,-3.18,1.83,
2.729,2.69,4.65,-2.90,0.82,-3.07,1.78,
2.729,2.69,4.65,-2.90,0.84,-2.95,1.73,
2.729,2.69,4.65,-2.90,0.86,-2.74,1.65,
2.729,2.69,4.65,-2.90,0.87,-2.67,1.62,
2.729,2.69,4.65,-2.90,0.87,-2.50,1.57,
2.73,2.80,6.09,-2.55,0.87,-2.50,1.57,
2.73,2.80,6.09,-2.55,0.86,-2.30,1.51,
2.73,2.80,6.09,-2.55,0.83,-2.07,1.45,
2.739,2.80,6.09,-2.55,0.77,-1.68,1.34,
2.739,2.80,6.09,-2.55,0.74,-1.55,1.30,
2.739,2.80,6.09,-2.55,0.66,-1.27,1.22,
2.74,3.57,6.89,-3.23,0.66,-1.27,1.22,
2.74,3.57,6.89,-3.23,0.58,-1.00,1.13,
2.741,3.57,6.89,-3.23,0.48,-0.73,1.04,
2.745,3.57,6.89,-3.23,0.32,-0.35,0.91,
2.746,3.57,6.89,-3.23,0.26,-0.23,0.86,
2.746,3.57,6.89,-3.23,0.14,-0.01,0.77,
2.774,3.83,6.97,-4.01,0.14,-0.01,0.77,
2.775,3.83,6.97,-4.01,0.02,0.20,0.68,
2.775,3.83,6.97,-4.01,-0.11,0.38,0.60,
2.775,3.83,6.97,-4.01,-0.30,0.62,0.47,
2.776,3.83,6.97,-4.01,-0.37,0.68,0.43,
2.776,3.83,6.97,-4.01,-0.49,0.80,0.35,
2.776,3.47,6.14,-4.53,-0.49,0.80,0.35,
2.776,3.47,6.14,-4.53,-0.62,0.90,0.28,
2.776,3.47,6.14,-4.53,-0.75,0.97,0.22,
2.776,3.47,6.14,-4.53,-0.94,1.05,0.13,
2.776,3.47,6.14,-4.53,-1.00,1.06,0.10,
2.777,3.47,6.14,-4.53,-1.12,1.09,0.05,
2.777,2.60,4.85,-4.17,-1.12,1.09,0.05,
2.777,2.60,4.85,-4.17,-1.23,1.10,0.00,
2.777,2.60,4.85,-4.17,-1.34,1.10,-0.04,
2.777,2.60,4.85,-4.17,-1.50,1.07,-0.11,
2.777,2.60,4.85,-4.17,-1.55,1.06,-0.12,
2.778,2.60,4.85,-4.17,-1.64,1.03,-0.16,
2.78,1.96,3.57,-3.46,-1.64,1.03,-0.16,
2.78,1.96,3.57,-3.46,-1.74,0.99,-0.20,
2.78,1.96,3.57,-3.46,-1.82,0.94,-0.23,
2.788,1.96,3.57,-3.46,-1.94,0.86,-0.28,
2.788,1.96,3.57,-3.46,-1.98,0.83,-0.29,
2.788,1.96,3.57,-3.46,-2.05,0.77,-0.32,
2.789,1.51,2.45,-2.22,-2.05,0.77,-0.32,
2.789,1.51,2.45,-2.22,-2.11,0.70,-0.36,
2.791,1.51,2.45,-2.22,-2.16,0.63,-0.39,
2.795,1.51,2.45,-2.22,-2.23,0.51,-0.44,
2.795,1.51,2.45,-2.22,-2.24,0.47,-0.46,
2.797,1.51,2.45,-2.22,-2.27,0.39,-0.49,
2.803,1.48,1.43,-0.38,-2.27,0.39,-0.49,
2.803,1.48,1.43,-0.38,-2.28,0.30,-0.53,
2.803,1.48,1.43,-0.38,-2.29,0.21,-0.57,
2.806,1.48,1.43,-0.38,-2.28,0.05,-0.63,
2.806,1.48,1.43,-0.38,-2.28,-0.00,-0.65,
2.806,1.48,1.43,-0.38,-2.25,-0.12,-0.69,
2.809,1.62,0.46,1.88,-2.25,-0.12,-0.69,
2.81,1.62,0.46,1.88,-2.23,-0.24,-0.74,
2.811,1.62,0.46,1.88,-2.19,-0.37,-0.78,
2.814,1.62,0.46,1.88,-2.13,-0.59,-0.86,
2.815,1.62,0.46,1.88,-2.10,-0.66,-0.88,
2.818,1.62,0.46,1.88,-2.05,-0.82,-0.94,
2.819,2.09,-0.52,4.46,-2.05,-0.82,-0.94,
2.819,2.09,-0.52,4.46,-1.99,-0.99,-0.99,
2.822,2.09,-0.52,4.46,-1.94,-1.15,-1.05,
2.823,2.09,-0.52,4.46,-1.85,-1.41,-1.14,
2.825,2.09,-0.52,4.46,-1.82,-1.49,-1.17,
2.826,2.09,-0.52,4.46,-1.78,-1.66,-1.22,
2.829,2.52,-1.46,6.77,-1.78,-1.66,-1.22,
2.829,2.52,-1.46,6.77,-1.74,-1.82,-1.28,
2.831,2.52,-1.46,6.77,-1.71,-1.98,-1.32,
2.834,2.52,-1.46,6.77,-1.66,-2.21,-1.38,
2.835,2.52,-1.46,6.77,-1.65,-2.29,-1.40,
2.837,2.52,-1.46,6.77,-1.63,-2.44,-1.43,
2.839,2.58,-2.14,9.41,-1.63,-2.44,-1.43,
2.839,2.58,-2.14,9.41,-1.61,-2.59,-1.45,
2.84,2.58,-2.14,9.41,-1.59,-2.75,-1.46,
2.843,2.58,-2.14,9.41,-1.55,-2.97,-1.46,
2.845,2.58,-2.14,9.41,-1.53,-3.04,-1.45,
2.846,2.58,-2.14,9.41,-1.50,-3.17,-1.44,
2.859,2.01,-2.34,12.15,-1.50,-3.17,-1.44,
2.86,2.01,-2.34,12.15,-1.46,-3.28,-1.41,
2.86,2.01,-2.34,12.15,-1.41,-3.36,-1.38,
2.86,2.01,-2.34,12.15,-1.32,-3.44,-1.32,
2.861,2.01,-2.34,12.15,-1.29,-3.45,-1.30,
2.861,2.01,-2.34,12.15,-1.22,-3.43,-1.25,
2.861,1.18,-1.83,14.59,-1.22,-3.43,-1.25,
2.862,1.18,-1.83,14.59,-1.15,-3.37,-1.20,
2.862,1.18,-1.83,14.59,-1.08,-3.27,-1.15,
2.898,1.18,-1.83,14.59,-0.97,-3.07,-1.08,
2.899,1.18,-1.83,14.59,-0.93,-2.99,-1.05,
2.899,1.18,-1.83,14.59,-0.86,-2.81,-1.02,
2.899,0.93,-0.96,14.49,-0.86,-2.81,-1.02,
2.9,0.93,-0.96,14.49,-0.80,-2.62,-0.99,
2.9,0.93,-0.96,14.49,-0.74,-2.43,-0.97,
2.9,0.93,-0.96,14.49,-0.68,-2.16,-0.95,
2.901,0.93,-0.96,14.49,-0.66,-2.07,-0.95,
2.901,0.93,-0.96,14.49,-0.64,-1.84,-0.96,
2.901,1.54,-0.13,12.08,-0.64,-1.84,-0.96,
2.921,1.54,-0.13,12.08,-0.63,-1.77,-0.96,
2.921,1.54,-0.13,12.08,-0.63,-1.65,-0.98,
2.921,1.54,-0.13,12.08,-0.66,-1.50,-1.02,
2.922,1.54,-0.13,12.08,-0.67,-1.46,-1.04,
2.922,1.54,-0.13,12.08,-0.70,-1.39,-1.07,
2.922,1.86,0.48,8.31,-0.70,-1.39,-1.07,
2.923,1.86,0.48,8.31,-0.75,-1.34,-1.11,
2.923,1.86,0.48,8.31,-0.80,-1.31,-1.15,
2.923,1.86,0.48,8.31,-0.88,-1.28,-1.20,
2.923,1.86,0.48,8.31,-0.91,-1.28,-1.22,
2.924,1.86,0.48,8.31,-0.97,-1.28,-1.26,
2.924,1.37,0.92,4.99,-0.97,-1.28,-1.26,
2.924,1.37,0.92,4.99,-1.04,-1.29,-1.28,
2.925,1.37,0.92,4.99,-1.10,-1.31,-1.31,
2.925,1.37,0.92,4.99,-1.19,-1.35,-1.33,
2.925,1.37,0.92,4.99,-1.22,-1.36,-1.33,
2.925,1.37,0.92,4.99,-1.28,-1.39,-1.33,
2.926,-0.38,0.99,2.26,-1.28,-1.39,-1.33,
2.926,-0.38,0.99,2.26,-1.33,-1.41,-1.32,
2.926,-0.38,0.99,2.26,-1.39,-1.43,-1.30,
2.926,-0.38,0.99,2.26,-1.45,-1.45,-1.27,
2.927,-0.38,0.99,2.26,-1.47,-1.45,-1.25,
2.927,-0.38,0.99,2.26,-1.50,-1.44,-1.22,
2.927,-2.76,0.51,0.35,-1.50,-1.44,-1.22,
2.927,-2.76,0.51,0.35,-1.53,-1.42,-1.18,
2.928,-2.76,0.51,0.35,-1.55,-1.40,-1.13,
2.928,-2.76,0.51,0.35,-1.59,-1.35,-1.06,
2.928,-2.76,0.51,0.35,-1.59,-1.33,-1.03,
2.928,-2.76,0.51,0.35,-1.60,-1.29,-0.98,
2.929,-4.61,-0.41,-0.66,-1.60,-1.29,-0.98,
2.929,-4.61,-0.41,-0.66,-1.60,-1.24,-0.92,
2.934,-4.61,-0.41,-0.66,-1.59,-1.18,-0.86,
2.935,-4.61,-0.41,-0.66,-1.56,-1.08,-0.79,
2.935,-4.61,-0.41,-0.66,-1.54,-1.05,-0.76,
2.937,-4.61,-0.41,-0.66,-1.50,-0.98,-0.71,
2.938,-5.78,-1.68,-0.29,-1.50,-0.98,-0.71,
2.939,-5.78,-1.68,-0.29,-1.44,-0.92,-0.67,
2.94,-5.78,-1.68,-0.29,-1.38,-0.85,-0.63,
2.943,-5.78,-1.68,-0.29,-1.29,-0.76,-0.57,
2.944,-5.78,-1.68,-0.29,-1.25,-0.74,-0.55,
2.946,-5.78,-1.68,-0.29,-1.18,-0.69,-0.51,
2.949,-6.42,-3.03,-0.50,-1.18,-0.69,-0.51,
2.949,-6.42,-3.03,-0.50,-1.12,-0.65,-0.47,
2.95,-6.42,-3.03,-0.50,-1.05,-0.62,-0.44,
2.954,-6.42,-3.03,-0.50,-0.94,-0.58,-0.39,
2.954,-6.42,-3.03,-0.50,-0.90,-0.57,-0.37,
2.957,-6.42,-3.03,-0.50,-0.83,-0.57,-0.34,
2.959,-7.24,-4.43,-2.12,-0.83,-0.57,-0.34,
2.959,-7.24,-4.43,-2.12,-0.76,-0.57,-0.30,
2.96,-7.24,-4.43,-2.12,-0.68,-0.57,-0.28,
2.963,-7.24,-4.43,-2.12,-0.57,-0.60,-0.23,
2.964,-7.24,-4.43,-2.12,-0.52,-0.60,-0.21,
2.969,-7.24,-4.43,-2.12,-0.44,-0.63,-0.18,
2.969,-7.75,-5.79,-3.23,-0.44,-0.63,-0.18,
2.969,-7.75,-5.79,-3.23,-0.36,-0.67,-0.14,
2.97,-7.75,-5.79,-3.23,-0.29,-0.71,-0.09,
2.973,-7.75,-5.79,-3.23,-0.19,-0.81,-0.02,
2.974,-7.75,-5.79,-3.23,-0.15,-0.85,0.01,
2.976,-7.75,-5.79,-3.23,-0.09,-0.93,0.07,
2.979,-8.39,-6.02,-4.27,-0.09,-0.93,0.07,
2.979,-8.39,-6.02,-4.27,-0.04,-1.02,0.13,
2.98,-8.39,-6.02,-4.27,-0.00,-1.10,0.19,
2.991,-8.39,-6.02,-4.27,0.06,-1.21,0.27,
2.991,-8.39,-6.02,-4.27,0.08,-1.23,0.30,
2.992,-8.39,-6.02,-4.27,0.11,-1.29,0.35,
2.992,-7.39,-3.80,-4.40,0.11,-1.29,0.35,
2.992,-7.39,-3.80,-4.40,0.15,-1.33,0.40,
2.992,-7.39,-3.80,-4.40,0.18,-1.37,0.44,
2.993,-7.39,-3.80,-4.40,0.22,-1.42,0.51,
2.994,-7.39,-3.80,-4.40,0.23,-1.44,0.53,
2.997,-7.39,-3.80,-4.40,0.26,-1.47,0.58,
3.016,-5.94,-1.14,-4.02,0.26,-1.47,0.58,
3.016,-5.94,-1.14,-4.02,0.28,-1.49,0.62,
3.016,-5.94,-1.14,-4.02,0.30,-1.51,0.65,
3.017,-5.94,-1.14,-4.02,0.32,-1.52,0.70,
3.017,-5.94,-1.14,-4.02,0.33,-1.53,0.72,
3.017,-5.94,-1.14,-4.02,0.34,-1.54,0.75,
3.017,-4.15,1.02,-3.44,0.34,-1.54,0.75,
3.017,-4.15,1.02,-3.44,0.35,-1.55,0.78,
3.017,-4.15,1.02,-3.44,0.35,-1.55,0.80,
3.018,-4.15,1.02,-3.44,0.35,-1.56,0.83,
3.018,-4.15,1.02,-3.44,0.35,-1.57,0.84,
3.018,-4.15,1.02,-3.44,0.35,-1.58,0.85,
3.02,-2.55,2.57,-3.17,0.35,-1.58,0.85,
3.02,-2.55,2.57,-3.17,0.34,-1.59,0.87,
3.022,-2.55,2.57,-3.17,0.33,-1.59,0.88,
3.023,-2.55,2.57,-3.17,0.32,-1.61,0.89,
3.024,-2.55,2.57,-3.17,0.31,-1.61,0.89,
3.026,-2.55,2.57,-3.17,0.30,-1.62,0.89,
3.029,-1.04,3.55,-2.75,0.30,-1.62,0.89,
3.03,-1.04,3.55,-2.75,0.29,-1.62,0.89,
3.03,-1.04,3.55,-2.75,0.28,-1.62,0.89,
3.033,-1.04,3.55,-2.75,0.26,-1.60,0.88,
3.035,-1.04,3.55,-2.75,0.25,-1.60,0.88,
3.037,-1.04,3.55,-2.75,0.23,-1.58,0.87,
3.039,0.02,4.08,-2.56,0.23,-1.58,0.87,
3.039,0.02,4.08,-2.56,0.22,-1.56,0.86,
3.04,0.02,4.08,-2.56,0.20,-1.53,0.84,
3.043,0.02,4.08,-2.56,0.17,-1.48,0.81,
3.044,0.02,4.08,-2.56,0.16,-1.46,0.80,
3.062,0.02,4.08,-2.56,0.14,-1.41,0.77,
3.062,1.16,4.16,-2.44,0.14,-1.41,0.77,
3.062,1.16,4.16,-2.44,0.11,-1.35,0.74,
3.063,1.16,4.16,-2.44,0.06,-1.13,0.70,
3.063,1.16,4.16,-2.44,-0.05,-0.47,0.65,
3.063,1.16,4.16,-2.44,-0.10,-0.25,0.63,
3.063,1.16,4.16,-2.44,-0.19,0.16,0.60,
3.063,2.53,3.60,-1.90,-0.19,0.16,0.60,
3.064,2.53,3.60,-1.90,-0.29,0.52,0.57,
3.064,2.53,3.60,-1.90,-0.40,0.84,0.53,
3.064,2.53,3.60,-1.90,-0.56,1.22,0.45,
3.064,2.53,3.60,-1.90,-0.61,1.32,0.43,
3.067,2.53,3.60,-1.90,-0.73,1.48,0.36,
3.069,3.40,2.39,-2.73,-0.73,1.48,0.36,
3.069,3.40,2.39,-2.73,-0.85,1.59,0.29,
3.071,3.40,2.39,-2.73,-0.97,1.66,0.20,
3.073,3.40,2.39,-2.73,-1.16,1.67,0.06,
3.074,3.40,2.39,-2.73,-1.22,1.65,0.01,
3.076,3.40,2.39,-2.73,-1.34,1.57,-0.10,
3.078,4.63,0.60,-4.08,-1.34,1.57,-0.10,
3.079,4.63,0.60,-4.08,-1.45,1.44,-0.21,
3.08,4.63,0.60,-4.08,-1.55,1.27,-0.34,
3.083,4.63,0.60,-4.08,-1.67,0.96,-0.53,
3.085,4.63,0.60,-4.08,-1.70,0.85,-0.60,
3.086,4.63,0.60,-4.08,-1.75,0.62,-0.74,
3.088,5.67,-1.18,-3.93,-1.75,0.62,-0.74,
3.089,5.67,-1.18,-3.93,-1.79,0.39,-0.87,
3.09,5.67,-1.18,-3.93,-1.82,0.15,-1.01,
3.093,5.67,-1.18,-3.93,-1.84,-0.22,-1.23,
3.094,5.67,-1.18,-3.93,-1.85,-0.35,-1.30,
3.096,5.67,-1.18,-3.93,-1.84,-0.61,-1.43,
3.099,6.09,-2.70,-3.35,-1.84,-0.61,-1.43,
3.1,6.09,-2.70,-3.35,-1.83,-0.87,-1.56,
3.101,6.09,-2.70,-3.35,-1.81,-1.13,-1.69,
3.104,6.09,-2.70,-3.35,-1.78,-1.50,-1.86,
3.105,6.09,-2.70,-3.35,-1.76,-1.62,-1.91,
3.106,6.09,-2.70,-3.35,-1.72,-1.86,-2.02,
3.109,5.59,-3.69,-2.61,-1.72,-1.86,-2.02,
3.109,5.59,-3.69,-2.61,-1.68,-2.10,-2.10,
3.111,5.59,-3.69,-2.61,-1.63,-2.31,-2.18,
3.113,5.59,-3.69,-2.61,-1.55,-2.60,-2.27,
3.121,5.59,-3.69,-2.61,-1.52,-2.68,-2.30,
3.121,5.59,-3.69,-2.61,-1.47,-2.84,-2.35,
3.122,4.50,-4.12,-2.17,-1.47,-2.84,-2.35,
3.122,4.50,-4.12,-2.17,-1.42,-2.98,-2.39,
3.122,4.50,-4.12,-2.17,-1.38,-3.09,-2.42,
3.125,4.50,-4.12,-2.17,-1.31,-3.22,-2.44,
3.126,4.50,-4.12,-2.17,-1.29,-3.26,-2.45,
3.127,4.50,-4.12,-2.17,-1.25,-3.31,-2.45,
3.13,2.97,-3.74,-2.34,-1.25,-3.31,-2.45,
3.131,2.97,-3.74,-2.34,-1.22,-3.34,-2.46,
3.145,2.97,-3.74,-2.34,-1.19,-3.36,-2.46,
3.146,2.97,-3.74,-2.34,-1.16,-3.36,-2.45,
3.146,2.97,-3.74,-2.34,-1.14,-3.36,-2.45,
3.146,2.97,-3.74,-2.34,-1.12,-3.36,-2.43,
3.147,2.05,-2.92,-2.70,-1.12,-3.36,-2.43,
3.147,2.05,-2.92,-2.70,-1.10,-3.35,-2.42,
3.147,2.05,-2.92,-2.70,-1.07,-3.35,-2.39,
3.147,2.05,-2.92,-2.70,-1.02,-3.34,-2.34,
3.147,2.05,-2.92,-2.70,-0.99,-3.34,-2.32,
3.148,2.05,-2.92,-2.70,-0.95,-3.34,-2.27,
3.15,1.18,-1.72,-2.26,-0.95,-3.34,-2.27,
3.15,1.18,-1.72,-2.26,-0.90,-3.34,-2.22,
3.161,1.18,-1.72,-2.26,-0.84,-3.35,-2.17,
3.161,1.18,-1.72,-2.26,-0.76,-3.33,-2.09,
3.161,1.18,-1.72,-2.26,-0.74,-3.31,-2.06,
3.161,1.18,-1.72,-2.26,-0.69,-3.28,-2.00,
3.162,0.15,-0.32,-1.43,-0.69,-3.28,-2.00,
3.162,0.15,-0.32,-1.43,-0.64,-3.24,-1.93,
3.162,0.15,-0.32,-1.43,-0.61,-3.20,-1.86,
3.164,0.15,-0.32,-1.43,-0.56,-3.14,-1.76,
3.176,0.15,-0.32,-1.43,-0.54,-3.13,-1.72,
3.177,0.15,-0.32,-1.43,-0.52,-3.10,-1.66,
3.177,-0.22,0.66,-1.04,-0.52,-3.10,-1.66,
3.178,-0.22,0.66,-1.04,-0.49,-3.07,-1.59,
3.178,-0.22,0.66,-1.04,-0.47,-3.05,-1.54,
3.178,-0.22,0.66,-1.04,-0.44,-3.02,-1.46,
3.179,-0.22,0.66,-1.04,-0.43,-3.00,-1.44,
3.179,-0.22,0.66,-1.04,-0.42,-2.99,-1.39,
3.183,0.52,1.28,-0.91,-0.42,-2.99,-1.39,
3.183,0.52,1.28,-0.91,-0.40,-2.97,-1.36,
3.183,0.52,1.28,-0.91,-0.38,-2.94,-1.32,
3.187,0.52,1.28,-0.91,-0.36,-2.90,-1.26,
3.188,0.52,1.28,-0.91,-0.35,-2.89,-1.25,
3.188,0.52,1.28,-0.91,-0.33,-2.85,-1.21,
3.189,1.05,1.85,-0.53,-0.33,-2.85,-1.21,
3.19,1.05,1.85,-0.53,-0.31,-2.82,-1.18,
3.195,1.05,1.85,-0.53,-0.41,-2.96,-1.07,
3.196,1.05,1.85,-0.53,-0.41,-2.96,-1.07,
3.197,1.05,1.85,-0.53,-0.41,-2.96,-1.07,
3.202,1.05,1.85,-0.53,-0.50,-3.13,-1.02,
3.203,0.97,2.52,1.07,-0.50,-3.13,-1.02,
3.204,0.97,2.52,1.07,-0.60,-3.32,-0.96,
3.204,0.97,2.52,1.07,-0.71,-3.53,-0.90,
3.205,0.97,2.52,1.07,-0.87,-3.82,-0.82,
3.205,0.97,2.52,1.07,-0.92,-3.91,-0.78,
3.207,0.97,2.52,1.07,-1.02,-4.08,-0.72,
3.209,0.09,2.64,3.32,-1.02,-4.08,-0.72,
3.209,0.09,2.64,3.32,-1.11,-4.23,-0.66,
3.21,0.09,2.64,3.32,-1.19,-4.36,-0.60,
3.241,0.09,2.64,3.32,-1.28,-4.51,-0.51,
3.242,0.09,2.64,3.32,-1.31,-4.54,-0.48,
3.242,0.09,2.64,3.32,-1.35,-4.59,-0.43,
3.242,-0.60,1.70,4.85,-1.35,-4.59,-0.43,
3.242,-0.60,1.70,4.85,-1.38,-4.61,-0.37,
3.243,-0.60,1.70,4.85,-1.40,-4.61,-0.32,
3.243,-0.60,1.70,4.85,-1.40,-4.55,-0.25,
3.243,-0.60,1.70,4.85,-1.40,-4.52,-0.23,
3.243,-0.60,1.70,4.85,-1.37,-4.39,-0.18,
3.244,-0.55,0.79,5.35,-1.37,-4.39,-0.18,
3.244,-0.55,0.79,5.35,-1.35,-4.34,-0.16,
3.244,-0.55,0.79,5.35,-1.31,-4.22,-0.13,
3.245,-0.55,0.79,5.35,-1.24,-4.00,-0.10,
3.245,-0.55,0.79,5.35,-1.21,-3.91,-0.09,
3.245,-0.55,0.79,5.35,-1.15,-3.73,-0.07,
3.245,0.07,0.33,4.97,-1.15,-3.73,-0.07,
3.246,0.07,0.33,4.97,-1.09,-3.55,-0.06,
3.246,0.07,0.33,4.97,-1.02,-3.35,-0.05,
3.246,0.07,0.33,4.97,-0.92,-3.03,-0.05,
3.246,0.07,0.33,4.97,-0.88,-2.92,-0.05,
3.253,0.07,0.33,4.97,-0.81,-2.69,-0.05,
3.253,0.74,-0.03,3.47,-0.81,-2.69,-0.05,
3.253,0.74,-0.03,3.47,-0.75,-2.47,-0.04,
3.254,0.74,-0.03,3.47,-0.68,-2.24,-0.04,
3.254,0.74,-0.03,3.47,-0.58,-1.90,-0.03,
3.256,0.74,-0.03,3.47,-0.55,-1.78,-0.02,
3.258,0.74,-0.03,3.47,-0.49,-1.56,-0.01,
3.26,1.10,-0.19,1.89,-0.49,-1.56,-0.01,
3.26,1.10,-0.19,1.89,-0.43,-1.34,-0.01,
3.261,1.10,-0.19,1.89,-0.38,-1.13,0.00,
3.265,1.10,-0.19,1.89,-0.30,-0.84,0.01,
3.265,1.10,-0.19,1.89,-0.28,-0.74,0.02,
3.27,1.10,-0.19,1.89,-0.24,-0.57,0.02,
3.27,1.51,-0.29,0.69,-0.24,-0.57,0.02,
3.27,1.51,-0.29,0.69,-0.20,-0.42,0.03,
3.271,1.51,-0.29,0.69,-0.17,-0.28,0.04,
3.273,1.51,-0.29,0.69,-0.14,-0.10,0.06,
3.274,1.51,-0.29,0.69,-0.13,-0.05,0.07,
3.276,1.51,-0.29,0.69,-0.12,0.05,0.08,
3.279,1.92,-0.29,-0.04,-0.12,0.05,0.08,
3.279,1.92,-0.29,-0.04,-0.12,0.12,0.09,
3.289,1.92,-0.29,-0.04,-0.12,0.19,0.10,
3.289,1.92,-0.29,-0.04,-0.14,0.26,0.11,
3.289,1.92,-0.29,-0.04,-0.15,0.27,0.12,
3.289,1.92,-0.29,-0.04,-0.17,0.30,0.13,
3.29,2.18,-0.30,-0.48,-0.17,0.30,0.13,
3.29,2.18,-0.30,-0.48,-0.20,0.31,0.13,
3.291,2.18,-0.30,-0.48,-0.24,0.31,0.14,
3.304,2.18,-0.30,-0.48,-0.29,0.30,0.14,
3.305,2.18,-0.30,-0.48,-0.31,0.29,0.14,
3.305,2.18,-0.30,-0.48,-0.36,0.27,0.14,
3.305,2.42,-0.23,-0.42,-0.36,0.27,0.14,
3.305,2.42,-0.23,-0.42,-0.40,0.23,0.14,
3.305,2.42,-0.23,-0.42,-0.45,0.19,0.14,
3.305,2.42,-0.23,-0.42,-0.52,0.12,0.14,
3.306,2.42,-0.23,-0.42,-0.54,0.09,0.14,
3.306,2.42,-0.23,-0.42,-0.58,0.03,0.13,
3.308,2.46,-0.14,0.34,-0.58,0.03,0.13,
3.309,2.46,-0.14,0.34,-0.63,-0.05,0.13,
3.311,2.46,-0.14,0.34,-0.67,-0.13,0.13,
3.314,2.46,-0.14,0.34,-0.73,-0.25,0.12,
3.315,2.46,-0.14,0.34,-0.75,-0.30,0.12,
3.317,2.46,-0.14,0.34,-0.79,-0.39,0.11,
3.319,2.70,-0.05,1.42,-0.79,-0.39,0.11,
3.32,2.70,-0.05,1.42,-0.82,-0.49,0.10,
3.32,2.70,-0.05,1.42,-0.85,-0.60,0.09,
3.323,2.70,-0.05,1.42,-0.89,-0.75,0.08,
3.324,2.70,-0.05,1.42,-0.90,-0.81,0.08,
3.326,2.70,-0.05,1.42,-0.93,-0.91,0.07,
3.329,2.83,0.02,2.31,-0.93,-0.91,0.07,
3.329,2.83,0.02,2.31,-0.95,-1.01,0.06,
3.33,2.83,0.02,2.31,-0.96,-1.11,0.05,
3.333,2.83,0.02,2.31,-0.98,-1.25,0.04,
3.335,2.83,0.02,2.31,-0.99,-1.29,0.03,
3.336,2.83,0.02,2.31,-1.00,-1.37,0.02,
3.339,3.10,-0.04,3.04,-1.00,-1.37,0.02,
3.339,3.10,-0.04,3.04,-1.01,-1.45,0.01,
3.34,3.10,-0.04,3.04,-1.02,-1.52,-0.01,
3.343,3.10,-0.04,3.04,-1.02,-1.60,-0.03,
3.344,3.10,-0.04,3.04,-1.02,-1.63,-0.04,
3.347,3.10,-0.04,3.04,-1.03,-1.66,-0.05,
3.349,3.10,-0.05,3.33,-1.03,-1.66,-0.05,
3.349,3.10,-0.05,3.33,-1.03,-1.69,-0.07,
3.351,3.10,-0.05,3.33,-1.03,-1.71,-0.09,
3.353,3.10,-0.05,3.33,-1.02,-1.72,-0.11,
3.356,3.10,-0.05,3.33,-1.02,-1.72,-0.12,
3.357,3.10,-0.05,3.33,-1.02,-1.70,-0.13,
3.358,3.03,-0.01,3.69,-1.02,-1.70,-0.13,
3.358,3.03,-0.01,3.69,-1.01,-1.69,-0.15,
3.36,3.03,-0.01,3.69,-1.00,-1.65,-0.17,
3.363,3.03,-0.01,3.69,-0.98,-1.59,-0.19,
3.364,3.03,-0.01,3.69,-0.97,-1.57,-0.20,
3.366,3.03,-0.01,3.69,-0.95,-1.52,-0.21,
3.368,2.58,0.15,4.01,-0.95,-1.52,-0.21,
3.369,2.58,0.15,4.01,-0.93,-1.46,-0.23,
3.37,2.58,0.15,4.01,-0.91,-1.39,-0.24,
3.373,2.58,0.15,4.01,-0.87,-1.28,-0.25,
3.374,2.58,0.15,4.01,-0.86,-1.23,-0.26,
3.376,2.58,0.15,4.01,-0.83,-1.15,-0.26,
3.378,2.04,0.31,4.67,-0.83,-1.15,-0.26,
3.398,2.04,0.31,4.67,-0.80,-1.06,-0.27,
3.398,2.04,0.31,4.67,-0.76,-0.96,-0.28,
3.398,2.04,0.31,4.67,-0.70,-0.80,-0.28,
3.398,2.04,0.31,4.67,-0.69,-0.75,-0.28,
3.398,2.04,0.31,4.67,-0.65,-0.64,-0.28,
3.398,1.35,0.31,4.98,-0.65,-0.64,-0.28,
3.399,1.35,0.31,4.98,-0.61,-0.52,-0.28,
3.399,1.35,0.31,4.98,-0.57,-0.41,-0.27,
3.399,1.35,0.31,4.98,-0.50,-0.24,-0.27,
3.399,1.35,0.31,4.98,-0.48,-0.18,-0.26,
3.399,1.35,0.31,4.98,-0.44,-0.07,-0.26,
3.399,0.76,0.10,5.08,-0.44,-0.07,-0.26,
3.399,0.76,0.10,5.08,-0.40,0.03,-0.25,
3.402,0.76,0.10,5.08,-0.36,0.14,-0.25,
3.406,0.76,0.10,5.08,-0.29,0.28,-0.24,
3.406,0.76,0.10,5.08,-0.27,0.33,-0.24,
3.406,0.76,0.10,5.08,-0.23,0.41,-0.23,
3.408,0.36,-0.32,4.45,-0.23,0.41,-0.23,
3.409,0.36,-0.32,4.45,-0.19,0.49,-0.23,
3.413,0.36,-0.32,4.45,-0.15,0.57,-0.23,
3.413,0.36,-0.32,4.45,-0.10,0.66,-0.23,
3.415,0.36,-0.32,4.45,-0.08,0.69,-0.23,
3.417,0.36,-0.32,4.45,-0.05,0.74,-0.24,
3.419,-0.13,-0.75,3.69,-0.05,0.74,-0.24,
3.419,-0.13,-0.75,3.69,-0.02,0.78,-0.24,
3.42,-0.13,-0.75,3.69,0.00,0.81,-0.24,
3.423,-0.13,-0.75,3.69,0.04,0.83,-0.25,
3.424,-0.13,-0.75,3.69,0.05,0.84,-0.25,
3.427,-0.13,-0.75,3.69,0.06,0.84,-0.25,
3.429,-0.91,-1.04,2.92,0.06,0.84,-0.25,
3.429,-0.91,-1.04,2.92,0.08,0.84,-0.26,
3.444,-0.91,-1.04,2.92,0.10,0.83,-0.26,
3.444,-0.91,-1.04,2.92,0.12,0.81,-0.26,
3.445,-0.91,-1.04,2.92,0.12,0.80,-0.26,
3.445,-0.91,-1.04,2.92,0.13,0.77,-0.25,
3.445,-1.89,-1.24,2.59,0.13,0.77,-0.25,
3.446,-1.89,-1.24,2.59,0.14,0.74,-0.25,
3.446,-1.89,-1.24,2.59,0.15,0.70,-0.23,
3.446,-1.89,-1.24,2.59,0.17,0.63,-0.21,
3.447,-1.89,-1.24,2.59,0.17,0.61,-0.20,
3.447,-1.89,-1.24,2.59,0.19,0.56,-0.17,
3.45,-2.91,-1.37,2.43,0.19,0.56,-0.17,
3.451,-2.91,-1.37,2.43,0.20,0.50,-0.14,
3.451,-2.91,-1.37,2.43,0.21,0.44,-0.11,
3.473,-2.91,-1.37,2.43,0.24,0.35,-0.07,
3.474,-2.91,-1.37,2.43,0.25,0.32,-0.05,
3.474,-2.91,-1.37,2.43,0.27,0.26,-0.02,
3.474,-3.85,-1.70,2.64,0.27,0.26,-0.02,
3.474,-3.85,-1.70,2.64,0.29,0.21,0.01,
3.475,-3.85,-1.70,2.64,0.31,0.15,0.05,
3.475,-3.85,-1.70,2.64,0.35,0.09,0.10,
3.475,-3.85,-1.70,2.64,0.37,0.07,0.12,
3.475,-3.85,-1.70,2.64,0.41,0.04,0.14,
3.476,-4.37,-2.17,3.02,0.41,0.04,0.14,
3.476,-4.37,-2.17,3.02,0.45,0.03,0.17,
3.476,-4.37,-2.17,3.02,0.49,0.02,0.20,
3.476,-4.37,-2.17,3.02,0.57,0.02,0.25,
3.476,-4.37,-2.17,3.02,0.59,0.03,0.26,
3.477,-4.37,-2.17,3.02,0.65,0.06,0.29,
3.479,-4.72,-2.53,3.57,0.65,0.06,0.29,
3.479,-4.72,-2.53,3.57,0.71,0.10,0.31,
3.481,-4.72,-2.53,3.57,0.78,0.15,0.34,
3.483,-4.72,-2.53,3.57,0.89,0.26,0.39,
3.484,-4.72,-2.53,3.57,0.93,0.30,0.40,
3.486,-4.72,-2.53,3.57,1.02,0.39,0.44,
3.489,-5.13,-2.82,4.18,1.02,0.39,0.44,
3.489,-5.13,-2.82,4.18,1.11,0.50,0.48,
3.49,-5.13,-2.82,4.18,1.22,0.63,0.52,
3.493,-5.13,-2.82,4.18,1.41,0.87,0.59,
3.494,-5.13,-2.82,4.18,1.48,0.96,0.62,
3.497,-5.13,-2.82,4.18,1.65,1.15,0.69,
3.499,-6.56,-3.25,6.73,1.65,1.15,0.69,
3.499,-6.56,-3.25,6.73,1.83,1.37,0.76,
3.501,-6.56,-3.25,6.73,2.02,1.59,0.83,
3.506,-6.56,-3.25,6.73,2.31,1.92,0.94,
3.507,-6.56,-3.25,6.73,2.40,2.03,0.98,
3.51,-6.56,-3.25,6.73,2.60,2.25,1.04,
3.51,-6.91,-3.92,8.20,2.60,2.25,1.04,
3.512,-6.91,-3.92,8.20,2.78,2.45,1.10,
3.512,-6.91,-3.92,8.20,2.95,2.65,1.15,
3.516,-6.91,-3.92,8.20,3.20,2.91,1.21,
3.516,-6.91,-3.92,8.20,3.27,2.98,1.22,
3.517,-6.91,-3.92,8.20,3.40,3.11,1.24,
3.519,-5.05,-4.48,7.14,3.40,3.11,1.24,
3.52,-5.05,-4.48,7.14,3.52,3.21,1.25,
3.521,-5.05,-4.48,7.14,3.61,3.27,1.25,
3.523,-5.05,-4.48,7.14,3.72,3.29,1.24,
3.524,-5.05,-4.48,7.14,3.74,3.27,1.23,
3.526,-5.05,-4.48,7.14,3.78,3.21,1.20,
3.529,-2.50,-4.41,4.41,3.78,3.21,1.20,
3.529,-2.50,-4.41,4.41,3.79,3.10,1.17,
3.531,-2.50,-4.41,4.41,3.78,2.97,1.14,
3.536,-2.50,-4.41,4.41,3.76,2.73,1.10,
3.536,-2.50,-4.41,4.41,3.74,2.64,1.09,
3.537,-2.50,-4.41,4.41,3.71,2.45,1.08,
3.541,-1.37,-3.77,1.21,3.71,2.45,1.08,
3.541,-1.37,-3.77,1.21,3.67,2.27,1.08,
3.541,-1.37,-3.77,1.21,3.62,2.09,1.09,
3.545,-1.37,-3.77,1.21,3.55,1.83,1.14,
3.545,-1.37,-3.77,1.21,3.53,1.74,1.17,
3.571,-1.37,-3.77,1.21,3.50,1.58,1.22,
3.572,-2.35,-3.45,-1.17,3.50,1.58,1.22,
3.572,-2.35,-3.45,-1.17,3.47,1.41,1.27,
3.572,-2.35,-3.45,-1.17,3.45,1.24,1.33,
3.573,-2.35,-3.45,-1.17,3.44,1.00,1.43,
3.573,-2.35,-3.45,-1.17,3.43,0.92,1.46,
3.573,-2.35,-3.45,-1.17,3.43,0.76,1.51,
3.573,-2.69,-3.45,-2.04,3.43,0.76,1.51,
3.574,-2.69,-3.45,-2.04,3.42,0.60,1.57,
3.574,-2.69,-3.45,-2.04,3.42,0.44,1.61,
3.574,-2.69,-3.45,-2.04,3.41,0.20,1.65,
3.574,-2.69,-3.45,-2.04,3.40,0.12,1.66,
3.575,-2.69,-3.45,-2.04,3.37,-0.03,1.67,
3.575,-0.94,-3.61,-3.60,3.37,-0.03,1.67,
3.575,-0.94,-3.61,-3.60,3.34,-0.17,1.66,
3.576,-0.94,-3.61,-3.60,3.29,-0.31,1.65,
3.576,-0.94,-3.61,-3.60,3.22,-0.51,1.60,
3.576,-0.94,-3.61,-3.60,3.19,-0.57,1.58,
3.593,-0.94,-3.61,-3.60,3.09,-0.76,1.51,
3.593,1.30,-3.88,-6.16,3.09,-0.76,1.51,
3.594,1.30,-3.88,-6.16,3.06,-0.82,1.49,
3.594,1.30,-3.88,-6.16,2.99,-0.94,1.44,
3.594,1.30,-3.88,-6.16,2.89,-1.12,1.35,
3.594,1.30,-3.88,-6.16,2.86,-1.17,1.32,
3.595,1.30,-3.88,-6.16,2.79,-1.29,1.27,
3.595,2.36,-3.91,-7.01,2.79,-1.29,1.27,
3.595,2.36,-3.91,-7.01,2.74,-1.40,1.21,
3.596,2.36,-3.91,-7.01,2.68,-1.51,1.16,
3.596,2.36,-3.91,-7.01,2.61,-1.68,1.09,
3.596,2.36,-3.91,-7.01,2.59,-1.73,1.06,
3.598,2.36,-3.91,-7.01,2.55,-1.85,1.02,
3.63,2.22,-4.08,-6.83,2.55,-1.85,1.02,
3.631,2.22,-4.08,-6.83,2.51,-1.96,0.98,
3.632,2.22,-4.08,-6.83,2.48,-2.08,0.95,
3.632,2.22,-4.08,-6.83,2.43,-2.25,0.90,
3.632,2.22,-4.08,-6.83,2.41,-2.32,0.89,
3.632,2.22,-4.08,-6.83,2.39,-2.44,0.86,
3.633,1.40,-4.63,-6.48,2.39,-2.44,0.86,
3.633,1.40,-4.63,-6.48,2.36,-2.56,0.84,
3.633,1.40,-4.63,-6.48,2.33,-2.68,0.81,
3.634,1.40,-4.63,-6.48,2.28,-2.86,0.78,
3.634,1.40,-4.63,-6.48,2.27,-2.92,0.78,
3.634,1.40,-4.63,-6.48,2.23,-3.04,0.76,
3.634,0.65,-5.45,-6.88,2.23,-3.04,0.76,
3.635,0.65,-5.45,-6.88,2.20,-3.15,0.75,
3.635,0.65,-5.45,-6.88,2.16,-3.25,0.73,
3.635,0.65,-5.45,-6.88,2.11,-3.40,0.71,
3.635,0.65,-5.45,-6.88,2.09,-3.45,0.71,
3.636,0.65,-5.45,-6.88,2.05,-3.54,0.69,
3.636,0.08,-6.20,-7.11,2.05,-3.54,0.69,
3.636,0.08,-6.20,-7.11,2.03,-3.61,0.68,
3.636,0.08,-6.20,-7.11,2.04,-3.68,0.67,
3.637,0.08,-6.20,-7.11,2.14,-3.74,0.63,
3.637,0.08,-6.20,-7.11,2.20,-3.75,0.61,
3.637,0.08,-6.20,-7.11,2.34,-3.74,0.57,
3.642,0.55,-7.33,-2.13,2.34,-3.74,0.57,
3.642,0.55,-7.33,-2.13,2.50,-3.70,0.53,
3.642,0.55,-7.33,-2.13,2.68,-3.63,0.48,
3.643,0.55,-7.33,-2.13,2.95,-3.45,0.41,
3.644,0.55,-7.33,-2.13,3.04,-3.38,0.38,
3.647,0.55,-7.33,-2.13,3.20,-3.21,0.34,
3.649,1.51,-8.15,1.56,3.20,-3.21,0.34,
3.649,1.51,-8.15,1.56,3.33,-3.02,0.30,
3.65,1.51,-8.15,1.56,3.45,-2.81,0.26,
3.654,1.51,-8.15,1.56,3.58,-2.45,0.21,
3.654,1.51,-8.15,1.56,3.61,-2.33,0.20,
3.656,1.51,-8.15,1.56,3.65,-2.06,0.17,
3.659,1.60,-7.99,-0.34,3.65,-2.06,0.17,
3.661,1.60,-7.99,-0.34,3.66,-1.78,0.16,
3.662,1.60,-7.99,-0.34,3.64,-1.48,0.15,
3.666,1.60,-7.99,-0.34,3.56,-0.98,0.15,
3.667,1.60,-7.99,-0.34,3.53,-0.81,0.16,
3.667,1.60,-7.99,-0.34,3.43,-0.46,0.17,
3.669,1.28,-6.75,-4.26,3.43,-0.46,0.17,
3.67,1.28,-6.75,-4.26,3.31,-0.11,0.18,
3.671,1.28,-6.75,-4.26,3.17,0.23,0.19,
3.675,1.28,-6.75,-4.26,2.95,0.72,0.21,
3.675,1.28,-6.75,-4.26,2.87,0.87,0.22,
3.677,1.28,-6.75,-4.26,2.71,1.15,0.22,
3.679,1.80,-4.71,-7.14,2.71,1.15,0.22,
3.68,1.80,-4.71,-7.14,2.54,1.41,0.22,
3.681,1.80,-4.71,-7.14,2.38,1.63,0.22,
3.684,1.80,-4.71,-7.14,2.14,1.92,0.21,
3.684,1.80,-4.71,-7.14,2.06,1.99,0.21,
3.688,1.80,-4.71,-7.14,1.91,2.13,0.20,
3.689,2.65,-2.26,-7.57,1.91,2.13,0.20,
3.689,2.65,-2.26,-7.57,1.77,2.24,0.18,
3.691,2.65,-2.26,-7.57,1.65,2.31,0.16,
3.694,2.65,-2.26,-7.57,1.48,2.34,0.13,
3.695,2.65,-2.26,-7.57,1.44,2.33,0.12,
3.701,2.65,-2.26,-7.57,1.35,2.29,0.11,
3.701,3.27,-0.12,-6.52,1.35,2.29,0.11,
3.701,3.27,-0.12,-6.52,1.28,2.22,0.08,
3.702,3.27,-0.12,-6.52,1.22,2.10,0.05,
3.704,3.27,-0.12,-6.52,1.17,1.88,0.03,
3.705,3.27,-0.12,-6.52,1.16,1.80,0.02,
3.707,3.27,-0.12,-6.52,1.14,1.63,0.01,
3.709,2.86,1.63,-4.68,1.14,1.63,0.01,
3.709,2.86,1.63,-4.68,1.14,1.45,0.01,
3.749,2.86,1.63,-4.68,1.14,1.27,0.02,
3.779,2.86,1.63,-4.68,1.15,1.01,0.04,
3.781,2.86,1.63,-4.68,1.16,0.94,0.04,
3.781,2.86,1.63,-4.68,1.17,0.80,0.05,
3.782,1.94,2.83,-4.22,1.17,0.80,0.05,
3.782,1.94,2.83,-4.22,1.19,0.69,0.06,
3.783,1.94,2.83,-4.22,1.21,0.60,0.07,
3.783,1.94,2.83,-4.22,1.23,0.50,0.08,
3.784,1.94,2.83,-4.22,1.23,0.47,0.08,
3.784,1.94,2.83,-4.22,1.24,0.43,0.10,
3.784,1.38,3.67,-4.59,1.24,0.43,0.10,
3.785,1.38,3.67,-4.59,1.25,0.41,0.11,
3.785,1.38,3.67,-4.59,1.26,0.41,0.13,
3.786,1.38,3.67,-4.59,1.26,0.41,0.17,
3.786,1.38,3.67,-4.59,1.27,0.42,0.18,
3.787,1.38,3.67,-4.59,1.26,0.43,0.21,
3.787,0.51,4.07,-5.42,1.26,0.43,0.21,
3.788,0.51,4.07,-5.42,1.26,0.46,0.23,
3.788,0.51,4.07,-5.42,1.25,0.49,0.26,
3.788,0.51,4.07,-5.42,1.24,0.53,0.30,
3.789,0.51,4.07,-5.42,1.23,0.55,0.32,
3.789,0.51,4.07,-5.42,1.22,0.57,0.35,
3.79,-0.08,4.47,-5.71,1.22,0.57,0.35,
3.79,-0.08,4.47,-5.71,1.21,0.60,0.38,
3.791,-0.08,4.47,-5.71,1.19,0.62,0.41,
3.791,-0.08,4.47,-5.71,1.17,0.64,0.44,
3.791,-0.08,4.47,-5.71,1.16,0.65,0.46,
3.792,-0.08,4.47,-5.71,1.14,0.66,0.48,
3.792,-0.31,4.81,-5.84,1.14,0.66,0.48,
3.793,-0.31,4.81,-5.84,1.12,0.66,0.50,
3.793,-0.31,4.81,-5.84,1.10,0.67,0.52,
3.794,-0.31,4.81,-5.84,1.07,0.67,0.54,
3.794,-0.31,4.81,-5.84,1.06,0.67,0.54,
3.794,-0.31,4.81,-5.84,1.04,0.67,0.55,
3.795,-0.17,5.17,-5.35,1.04,0.67,0.55,
3.796,-0.17,5.17,-5.35,1.02,0.67,0.56,
3.796,-0.17,5.17,-5.35,1.00,0.66,0.56,
3.796,-0.17,5.17,-5.35,0.97,0.65,0.57,
3.797,-0.17,5.17,-5.35,0.95,0.64,0.57,
3.797,-0.17,5.17,-5.35,0.93,0.63,0.57,
3.797,-0.06,5.36,-5.20,0.93,0.63,0.57,
3.798,-0.06,5.36,-5.20,0.90,0.61,0.57,
3.798,-0.06,5.36,-5.20,0.87,0.60,0.57,
3.799,-0.06,5.36,-5.20,0.81,0.57,0.56,
3.799,-0.06,5.36,-5.20,0.79,0.56,0.56,
3.799,-0.06,5.36,-5.20,0.75,0.54,0.56,
3.8,0.12,5.53,-5.05,0.75,0.54,0.56,
3.8,0.12,5.53,-5.05,0.70,0.51,0.55,
3.8,0.12,5.53,-5.05,0.65,0.49,0.54,
3.801,0.12,5.53,-5.05,0.56,0.45,0.52,
3.801,0.12,5.53,-5.05,0.53,0.44,0.51,
3.801,0.12,5.53,-5.05,0.46,0.42,0.49,
3.802,0.32,5.60,-5.42,0.46,0.42,0.49,
3.802,0.32,5.60,-5.42,0.39,0.40,0.47,
3.802,0.32,5.60,-5.42,0.31,0.38,0.45,
3.813,0.32,5.60,-5.42,0.19,0.36,0.41,
3.814,0.32,5.60,-5.42,0.14,0.36,0.39,
3.814,0.32,5.60,-5.42,0.05,0.35,0.36,
3.815,0.65,5.89,-5.53,0.05,0.35,0.36,
3.815,0.65,5.89,-5.53,-0.04,0.35,0.33,
3.816,0.65,5.89,-5.53,-0.14,0.35,0.30,
3.816,0.65,5.89,-5.53,-0.29,0.35,0.24,
3.816,0.65,5.89,-5.53,-0.34,0.35,0.22,
3.817,0.65,5.89,-5.53,-0.45,0.34,0.18,
3.82,0.79,6.13,-5.66,-0.45,0.34,0.18,
3.82,0.79,6.13,-5.66,-0.55,0.34,0.15,
3.821,0.79,6.13,-5.66,-0.65,0.33,0.11,
3.823,0.79,6.13,-5.66,-0.79,0.32,0.05,
3.824,0.79,6.13,-5.66,-0.84,0.31,0.03,
3.827,0.79,6.13,-5.66,-0.93,0.30,-0.01,
3.831,0.88,6.48,-5.17,-0.93,0.30,-0.01,
3.831,0.88,6.48,-5.17,-1.02,0.28,-0.05,
3.832,0.88,6.48,-5.17,-1.11,0.26,-0.08,
3.834,0.88,6.48,-5.17,-1.24,0.21,-0.13,
3.836,0.88,6.48,-5.17,-1.28,0.20,-0.15,
3.836,0.88,6.48,-5.17,-1.36,0.16,-0.18,
3.839,0.63,6.59,-5.03,-1.36,0.16,-0.18,
3.839,0.63,6.59,-5.03,-1.44,0.12,-0.20,
3.841,0.63,6.59,-5.03,-1.52,0.08,-0.23,
3.843,0.63,6.59,-5.03,-1.64,0.02,-0.26,
3.857,0.63,6.59,-5.03,-1.68,0.00,-0.27,
3.857,0.63,6.59,-5.03,-1.76,-0.04,-0.30,
3.858,0.54,6.73,-5.07,-1.76,-0.04,-0.30,
3.858,0.54,6.73,-5.07,-1.84,-0.07,-0.31,
3.858,0.54,6.73,-5.07,-1.92,-0.10,-0.33,
3.858,0.54,6.73,-5.07,-2.05,-0.14,-0.35,
3.858,0.54,6.73,-5.07,-2.10,-0.15,-0.36,
3.859,0.54,6.73,-5.07,-2.19,-0.18,-0.37,
3.859,0.38,6.61,-5.94,-2.19,-0.18,-0.37,
3.859,0.38,6.61,-5.94,-2.28,-0.21,-0.38,
3.896,0.38,6.61,-5.94,-2.38,-0.24,-0.39,
3.897,0.38,6.61,-5.94,-2.52,-0.30,-0.40,
3.897,0.38,6.61,-5.94,-2.57,-0.33,-0.40,
3.897,0.38,6.61,-5.94,-2.66,-0.37,-0.40,
3.898,0.23,6.50,-6.18,-2.66,-0.37,-0.40,
3.898,0.23,6.50,-6.18,-2.74,-0.43,-0.39,
3.898,0.23,6.50,-6.18,-2.82,-0.49,-0.39,
3.898,0.23,6.50,-6.18,-2.94,-0.59,-0.38,
3.899,0.23,6.50,-6.18,-2.97,-0.62,-0.38,
3.899,0.23,6.50,-6.18,-3.03,-0.69,-0.37,
3.899,0.16,6.27,-5.46,-3.03,-0.69,-0.37,
3.918,0.16,6.27,-5.46,-3.09,-0.75,-0.37,
3.919,0.16,6.27,-5.46,-3.14,-0.82,-0.36,
3.919,0.16,6.27,-5.46,-3.21,-0.92,-0.35,
3.919,0.16,6.27,-5.46,-3.24,-0.95,-0.35,
3.919,0.16,6.27,-5.46,-3.27,-1.02,-0.34,
3.92,0.35,6.01,-3.88,-3.27,-1.02,-0.34,
3.92,0.35,6.01,-3.88,-3.31,-1.08,-0.34,
3.921,0.35,6.01,-3.88,-3.34,-1.13,-0.34,
3.921,0.35,6.01,-3.88,-3.38,-1.21,-0.34,
3.921,0.35,6.01,-3.88,-3.39,-1.24,-0.34,
3.921,0.35,6.01,-3.88,-3.41,-1.29,-0.34,
3.922,0.64,5.59,-2.60,-3.41,-1.29,-0.34,
3.922,0.64,5.59,-2.60,-3.43,-1.34,-0.35,
3.922,0.64,5.59,-2.60,-3.45,-1.38,-0.35,
3.922,0.64,5.59,-2.60,-3.46,-1.43,-0.36,
3.923,0.64,5.59,-2.60,-3.47,-1.44,-0.37,
3.923,0.64,5.59,-2.60,-3.48,-1.47,-0.39,
3.923,1.08,5.14,-1.56,-3.48,-1.47,-0.39,
3.924,1.08,5.14,-1.56,-3.49,-1.48,-0.40,
3.924,1.08,5.14,-1.56,-3.50,-1.50,-0.42,
3.924,1.08,5.14,-1.56,-3.51,-1.51,-0.46,
3.924,1.08,5.14,-1.56,-3.51,-1.51,-0.48,
3.925,1.08,5.14,-1.56,-3.52,-1.52,-0.51,
3.925,1.66,4.38,-0.88,-3.52,-1.52,-0.51,
3.925,1.66,4.38,-0.88,-3.53,-1.52,-0.55,
3.926,1.66,4.38,-0.88,-3.53,-1.52,-0.58,
3.926,1.66,4.38,-0.88,-3.54,-1.51,-0.65,
3.926,1.66,4.38,-0.88,-3.54,-1.51,-0.67,
3.933,1.66,4.38,-0.88,-3.53,-1.50,-0.74,
3.933,2.02,3.31,-0.09,-3.53,-1.50,-0.74,
3.934,2.02,3.31,-0.09,-3.51,-1.49,-0.76,
3.934,2.02,3.31,-0.09,-3.35,-1.46,-0.82,
3.934,2.02,3.31,-0.09,-2.79,-1.36,-0.94,
3.934,2.02,3.31,-0.09,-2.55,-1.30,-0.98,
3.936,2.02,3.31,-0.09,-2.08,-1.18,-1.07,
3.939,3.33,1.93,16.22,-2.08,-1.18,-1.07,
3.939,3.33,1.93,16.22,-1.61,-1.02,-1.15,
3.94,3.33,1.93,16.22,-1.15,-0.84,-1.22,
3.943,3.33,1.93,16.22,-0.51,-0.50,-1.29,
3.946,3.33,1.93,16.22,-0.31,-0.36,-1.31,
3.947,3.33,1.93,16.22,0.05,-0.07,-1.33,
3.949,2.35,-0.38,19.78,0.05,-0.07,-1.33,
3.95,2.35,-0.38,19.78,0.35,0.24,-1.34,
3.951,2.35,-0.38,19.78,0.58,0.56,-1.33,
3.953,2.35,-0.38,19.78,0.80,1.04,-1.29,
3.955,2.35,-0.38,19.78,0.85,1.20,-1.27,
3.956,2.35,-0.38,19.78,0.89,1.48,-1.22,
3.958,0.99,-2.38,15.10,0.89,1.48,-1.22,
3.959,0.99,-2.38,15.10,0.87,1.73,-1.15,
3.96,0.99,-2.38,15.10,0.81,1.92,-1.07,
3.967,0.99,-2.38,15.10,0.69,2.10,-0.94,
3.968,0.99,-2.38,15.10,0.63,2.14,-0.90,
3.968,0.99,-2.38,15.10,0.52,2.18,-0.81,
3.968,0.78,-3.32,10.61,0.52,2.18,-0.81,
3.969,0.78,-3.32,10.61,0.40,2.18,-0.73,
3.97,0.78,-3.32,10.61,0.29,2.16,-0.65,
3.973,0.78,-3.32,10.61,0.12,2.08,-0.55,
3.975,0.78,-3.32,10.61,0.06,2.05,-0.52,
3.976,0.78,-3.32,10.61,-0.04,1.97,-0.47,
3.997,1.90,-3.47,8.77,-0.04,1.97,-0.47,
3.997,1.90,-3.47,8.77,-0.13,1.87,-0.43,
3.997,1.90,-3.47,8.77,-0.22,1.77,-0.40,
3.997,1.90,-3.47,8.77,-0.34,1.60,-0.39,
3.998,1.90,-3.47,8.77,-0.38,1.54,-0.39,
3.998,1.90,-3.47,8.77,-0.45,1.43,-0.40,
3.998,2.75,-3.07,7.38,-0.45,1.43,-0.40,
3.998,2.75,-3.07,7.38,-0.51,1.31,-0.41,
3.998,2.75,-3.07,7.38,-0.57,1.20,-0.44,
3.998,2.75,-3.07,7.38,-0.66,1.03,-0.49,
3.998,2.75,-3.07,7.38,-0.68,0.97,-0.51,
3.998,2.75,-3.07,7.38,-0.73,0.86,-0.55,
3.999,2.88,-2.34,6.02,-0.73,0.86,-0.55,
3.999,2.88,-2.34,6.02,-0.77,0.76,-0.59,
4.0,2.88,-2.34,6.02,-0.81,0.66,-0.62,
4.003,2.88,-2.34,6.02,-0.86,0.52,-0.67,
4.004,2.88,-2.34,6.02,-0.88,0.48,-0.69,
4.006,2.88,-2.34,6.02,-0.92,0.40,-0.71,
4.008,1.64,-1.59,4.56,-0.92,0.40,-0.71,
4.009,1.64,-1.59,4.56,-0.94,0.33,-0.73,
4.011,1.64,-1.59,4.56,-0.97,0.27,-0.75,
4.017,1.64,-1.59,4.56,-0.99,0.19,-0.76,
4.017,1.64,-1.59,4.56,-1.00,0.17,-0.76,
4.017,1.64,-1.59,4.56,-1.01,0.13,-0.76,
4.018,-0.22,-1.14,3.65,-1.01,0.13,-0.76,
4.019,-0.22,-1.14,3.65,-1.02,0.10,-0.75,
4.02,-0.22,-1.14,3.65,-1.02,0.07,-0.74,
4.023,-0.22,-1.14,3.65,-1.01,0.04,-0.72,
4.024,-0.22,-1.14,3.65,-1.00,0.03,-0.72,
4.026,-0.22,-1.14,3.65,-0.98,0.03,-0.70,
4.029,-1.82,-0.86,3.21,-0.98,0.03,-0.70,
4.029,-1.82,-0.86,3.21,-0.95,0.03,-0.68,
4.031,-1.82,-0.86,3.21,-0.91,0.03,-0.67,
4.033,-1.82,-0.86,3.21,-0.83,0.05,-0.64,
4.034,-1.82,-0.86,3.21,-0.80,0.06,-0.62,
4.036,-1.82,-0.86,3.21,-0.73,0.09,-0.60,
4.038,-3.27,-0.48,3.79,-0.73,0.09,-0.60,
4.039,-3.27,-0.48,3.79,-0.66,0.12,-0.58,
4.04,-3.27,-0.48,3.79,-0.57,0.16,-0.54,
4.043,-3.27,-0.48,3.79,-0.44,0.21,-0.49,
4.044,-3.27,-0.48,3.79,-0.40,0.23,-0.47,
4.063,-3.27,-0.48,3.79,-0.31,0.26,-0.43,
4.064,-4.57,0.16,4.18,-0.31,0.26,-0.43,
4.064,-4.57,0.16,4.18,-0.22,0.29,-0.38,
4.064,-4.57,0.16,4.18,-0.13,0.31,-0.33,
4.064,-4.57,0.16,4.18,-0.01,0.34,-0.25,
4.064,-4.57,0.16,4.18,0.02,0.34,-0.22,
4.064,-4.57,0.16,4.18,0.08,0.35,-0.17,
4.065,-5.83,0.70,3.55,0.08,0.35,-0.17,
4.065,-5.83,0.70,3.55,0.12,0.35,-0.10,
4.065,-5.83,0.70,3.55,0.15,0.36,-0.04,
4.065,-5.83,0.70,3.55,0.16,0.36,0.07,
4.065,-5.83,0.70,3.55,0.15,0.37,0.10,
4.067,-5.83,0.70,3.55,0.12,0.38,0.18,
4.068,-6.98,-0.03,1.15,0.12,0.38,0.18,
4.069,-6.98,-0.03,1.15,0.07,0.40,0.25,
4.07,-6.98,-0.03,1.15,0.00,0.42,0.33,
4.073,-6.98,-0.03,1.15,-0.12,0.45,0.44,
4.074,-6.98,-0.03,1.15,-0.17,0.46,0.48,
4.076,-6.98,-0.03,1.15,-0.28,0.46,0.55,
4.079,-7.84,-1.87,-1.62,-0.28,0.46,0.55,
4.079,-7.84,-1.87,-1.62,-0.39,0.45,0.62,
4.08,-7.84,-1.87,-1.62,-0.52,0.41,0.70,
4.083,-7.84,-1.87,-1.62,-0.70,0.31,0.80,
4.084,-7.84,-1.87,-1.62,-0.76,0.26,0.83,
4.086,-7.84,-1.87,-1.62,-0.87,0.14,0.89,
4.088,-7.22,-4.01,-4.26,-0.87,0.14,0.89,
4.089,-7.22,-4.01,-4.26,-0.97,0.00,0.94,
4.09,-7.22,-4.01,-4.26,-1.06,-0.15,0.99,
4.098,-7.22,-4.01,-4.26,-1.16,-0.40,1.03,
4.098,-7.22,-4.01,-4.26,-1.18,-0.49,1.04,
4.099,-7.22,-4.01,-4.26,-1.22,-0.68,1.06,
4.099,-5.13,-5.74,-5.16,-1.22,-0.68,1.06,
4.099,-5.13,-5.74,-5.16,-1.23,-0.89,1.06,
4.1,-5.13,-5.74,-5.16,-1.24,-1.10,1.06,
4.103,-5.13,-5.74,-5.16,-1.22,-1.42,1.06,
4.105,-5.13,-5.74,-5.16,-1.18,-1.64,1.05,
4.106,-5.13,-5.74,-5.16,-1.16,-1.74,1.04,
4.109,-3.71,-7.31,-4.21,-1.16,-1.74,1.04,
4.109,-3.71,-7.31,-4.21,-1.11,-1.95,1.04,
4.126,-3.71,-7.31,-4.21,-1.04,-2.13,1.02,
4.126,-3.71,-7.31,-4.21,-0.91,-2.38,1.00,
4.126,-3.71,-7.31,-4.21,-0.85,-2.45,0.99,
4.127,-3.71,-7.31,-4.21,-0.74,-2.56,0.98,
4.127,-3.68,-8.30,-1.86,-0.74,-2.56,0.98,
4.127,-3.68,-8.30,-1.86,-0.59,-2.59,0.96,
4.127,-3.68,-8.30,-1.86,-0.39,-2.52,0.96,
4.127,-3.68,-8.30,-1.86,-0.01,-2.16,0.99,
4.127,-3.68,-8.30,-1.86,0.14,-1.98,1.00,
4.127,-3.68,-8.30,-1.86,0.45,-1.52,1.04,
4.129,-6.40,-8.76,5.97,0.45,-1.52,1.04,
4.129,-6.40,-8.76,5.97,0.76,-0.95,1.08,
4.13,-6.40,-8.76,5.97,1.06,-0.32,1.12,
4.135,-6.40,-8.76,5.97,1.43,0.68,1.18,
4.135,-6.40,-8.76,5.97,1.53,1.01,1.19,
4.136,-6.40,-8.76,5.97,1.70,1.67,1.20,
4.138,-6.84,-9.36,7.92,1.70,1.67,1.20,
4.139,-6.84,-9.36,7.92,1.81,2.30,1.19,
4.14,-6.84,-9.36,7.92,1.86,2.89,1.18,
4.145,-6.84,-9.36,7.92,1.83,3.67,1.15,
4.146,-6.84,-9.36,7.92,1.79,3.90,1.14,
4.147,-6.84,-9.36,7.92,1.68,4.29,1.12,
4.148,-3.23,-9.52,2.60,1.68,4.29,1.12,
4.149,-3.23,-9.52,2.60,1.53,4.58,1.11,
4.15,-3.23,-9.52,2.60,1.35,4.77,1.11,
4.154,-3.23,-9.52,2.60,1.04,4.85,1.13,
4.155,-3.23,-9.52,2.60,0.83,4.77,1.13,
4.157,-3.23,-9.52,2.60,0.73,4.69,1.13,
4.158,0.99,-8.21,-1.52,0.73,4.69,1.13,
4.159,0.99,-8.21,-1.52,0.53,4.48,1.11,
4.16,0.99,-8.21,-1.52,0.35,4.19,1.09,
4.163,0.99,-8.21,-1.52,0.11,3.68,1.01,
4.165,0.99,-8.21,-1.52,0.05,3.49,0.98,
4.166,0.99,-8.21,-1.52,-0.04,3.08,0.90,
4.168,5.50,-6.20,-0.75,-0.04,3.08,0.90,
4.169,5.50,-6.20,-0.75,-0.10,2.65,0.80,
4.17,5.50,-6.20,-0.75,-0.13,2.20,0.69,
4.173,5.50,-6.20,-0.75,-0.11,1.49,0.51,
4.175,5.50,-6.20,-0.75,-0.10,1.25,0.44,
4.177,5.50,-6.20,-0.75,-0.06,0.77,0.30,
4.179,9.70,-4.43,2.46,-0.06,0.77,0.30,
4.179,9.70,-4.43,2.46,-0.01,0.28,0.17,
4.181,9.70,-4.43,2.46,0.05,-0.19,0.03,
4.183,9.70,-4.43,2.46,0.12,-0.88,-0.18,
4.185,9.70,-4.43,2.46,0.14,-1.10,-0.25,
4.186,9.70,-4.43,2.46,0.17,-1.52,-0.39,
4.189,10.97,-3.07,2.10,0.17,-1.52,-0.39,
4.189,10.97,-3.07,2.10,0.19,-1.93,-0.53,
4.195,10.97,-3.07,2.10,0.14,-2.97,-0.93,
4.198,10.97,-3.07,2.10,0.14,-2.97,-0.93,
4.198,10.97,-3.07,2.10,0.14,-2.97,-0.93,
4.198,10.97,-3.07,2.10,0.09,-3.27,-1.06,
4.199,10.42,-2.28,-0.89,0.09,-3.27,-1.06,
4.199,10.42,-2.28,-0.89,0.02,-3.54,-1.17,
4.2,10.42,-2.28,-0.89,-0.07,-3.79,-1.28,
4.203,10.42,-2.28,-0.89,-0.22,-4.11,-1.41,
4.205,10.42,-2.28,-0.89,-0.35,-4.31,-1.49,
4.206,10.42,-2.28,-0.89,-0.42,-4.40,-1.52,
4.209,8.56,-1.38,-3.02,-0.42,-4.40,-1.52,
4.209,8.56,-1.38,-3.02,-0.56,-4.56,-1.58,
4.212,8.56,-1.38,-3.02,-0.71,-4.71,-1.62,
4.237,8.56,-1.38,-3.02,-0.94,-4.89,-1.67,
4.237,8.56,-1.38,-3.02,-1.08,-4.99,-1.69,
4.237,8.56,-1.38,-3.02,-1.14,-5.03,-1.69,
4.238,6.94,-0.55,-4.03,-1.14,-5.03,-1.69,
4.239,6.94,-0.55,-4.03,-1.27,-5.10,-1.70,
4.239,6.94,-0.55,-4.03,-1.37,-5.14,-1.70,
4.239,6.94,-0.55,-4.03,-1.50,-5.17,-1.68,
4.24,6.94,-0.55,-4.03,-1.54,-5.17,-1.68,
4.24,6.94,-0.55,-4.03,-1.59,-5.15,-1.66,
4.241,5.21,0.04,-3.77,-1.59,-5.15,-1.66,
4.241,5.21,0.04,-3.77,-1.63,-5.11,-1.63,
4.242,5.21,0.04,-3.77,-1.65,-5.05,-1.60,
4.242,5.21,0.04,-3.77,-1.66,-4.92,-1.55,
4.243,5.21,0.04,-3.77,-1.65,-4.81,-1.51,
4.243,5.21,0.04,-3.77,-1.64,-4.75,-1.49,
4.243,3.95,0.45,-3.41,-1.64,-4.75,-1.49,
4.244,3.95,0.45,-3.41,-1.63,-4.62,-1.45,
4.244,3.95,0.45,-3.41,-1.60,-4.47,-1.40,
4.245,3.95,0.45,-3.41,-1.55,-4.21,-1.33,
4.245,3.95,0.45,-3.41,-1.53,-4.12,-1.30,
4.254,3.95,0.45,-3.41,-1.50,-3.93,-1.25,
4.254,3.14,0.77,-2.99,-1.50,-3.93,-1.25,
4.254,3.14,0.77,-2.99,-1.46,-3.72,-1.20,
4.255,3.14,0.77,-2.99,-1.42,-3.51,-1.15,
4.255,3.14,0.77,-2.99,-1.37,-3.17,-1.08,
4.255,3.14,0.77,-2.99,-1.33,-2.94,-1.03,
4.257,3.14,0.77,-2.99,-1.31,-2.82,-1.01,
4.259,2.73,1.08,-2.85,-1.31,-2.82,-1.01,
4.259,2.73,1.08,-2.85,-1.28,-2.59,-0.96,
4.272,2.73,1.08,-2.85,-1.24,-2.35,-0.92,
4.273,2.73,1.08,-2.85,-1.19,-1.99,-0.85,
4.273,2.73,1.08,-2.85,-1.15,-1.76,-0.80,
4.273,2.73,1.08,-2.85,-1.13,-1.64,-0.78,
4.273,2.30,1.44,-2.28,-1.13,-1.64,-0.78,
4.274,2.30,1.44,-2.28,-1.09,-1.41,-0.73,
4.274,2.30,1.44,-2.28,-1.06,-1.19,-0.69,
4.282,2.30,1.44,-2.28,-1.00,-0.87,-0.63,
4.282,2.30,1.44,-2.28,-0.98,-0.76,-0.61,
4.282,2.30,1.44,-2.28,-0.93,-0.47,-0.55,
4.282,2.03,1.95,-1.51,-0.93,-0.47,-0.55,
4.283,2.03,1.95,-1.51,-0.91,-0.37,-0.53,
4.283,2.03,1.95,-1.51,-0.87,-0.18,-0.50,
4.283,2.03,1.95,-1.51,-0.81,0.08,-0.44,
4.287,2.03,1.95,-1.51,-0.78,0.16,-0.42,
4.288,2.03,1.95,-1.51,-0.67,0.31,-0.40,
4.308,1.99,2.93,1.91,-0.67,0.31,-0.40,
4.31,1.99,2.93,1.91,-0.49,0.44,-0.38,
4.31,1.99,2.93,1.91,-0.27,0.56,-0.37,
4.31,1.99,2.93,1.91,0.09,0.72,-0.36,
4.311,1.99,2.93,1.91,0.21,0.76,-0.35,
4.311,1.99,2.93,1.91,0.44,0.85,-0.32,
4.311,2.81,4.94,12.80,0.44,0.85,-0.32,
4.312,2.81,4.94,12.80,0.64,0.93,-0.29,
4.312,2.81,4.94,12.80,0.81,0.99,-0.25,
4.312,2.81,4.94,12.80,0.99,1.06,-0.18,
4.312,2.81,4.94,12.80,1.05,1.11,-0.13,
4.312,2.81,4.94,12.80,1.07,1.13,-0.11,
4.313,1.55,4.92,13.04,1.07,1.13,-0.11,
4.313,1.55,4.92,13.04,1.08,1.17,-0.07,
4.313,1.55,4.92,13.04,1.05,1.21,-0.04,
4.314,1.55,4.92,13.04,0.96,1.26,-0.00,
4.316,1.55,4.92,13.04,0.92,1.28,0.01,
4.317,1.55,4.92,13.04,0.84,1.31,0.02,
4.319,0.79,4.32,9.32,0.84,1.31,0.02,
4.319,0.79,4.32,9.32,0.75,1.35,0.03,
4.321,0.79,4.32,9.32,0.66,1.38,0.03,
4.324,0.79,4.32,9.32,0.52,1.43,0.03,
4.324,0.79,4.32,9.32,0.48,1.45,0.03,
4.327,0.79,4.32,9.32,0.40,1.47,0.03,
4.329,-0.06,4.23,6.76,0.40,1.47,0.03,
4.33,-0.06,4.23,6.76,0.32,1.50,0.03,
4.33,-0.06,4.23,6.76,0.26,1.53,0.04,
4.334,-0.06,4.23,6.76,0.17,1.56,0.05,
4.334,-0.06,4.23,6.76,0.14,1.57,0.05,
4.336,-0.06,4.23,6.76,0.10,1.58,0.07,
4.339,-1.58,4.23,6.08,0.10,1.58,0.07,
4.339,-1.58,4.23,6.08,0.06,1.58,0.08,
4.34,-1.58,4.23,6.08,0.02,1.58,0.10,
4.344,-1.58,4.23,6.08,-0.03,1.58,0.12,
4.345,-1.58,4.23,6.08,-0.04,1.58,0.13,
4.347,-1.58,4.23,6.08,-0.07,1.58,0.15,
4.35,-2.86,4.01,5.14,-0.07,1.58,0.15,
4.35,-2.86,4.01,5.14,-0.10,1.58,0.16,
4.351,-2.86,4.01,5.14,-0.12,1.58,0.18,
4.354,-2.86,4.01,5.14,-0.16,1.58,0.20,
4.355,-2.86,4.01,5.14,-0.19,1.58,0.22,
4.357,-2.86,4.01,5.14,-0.20,1.58,0.23,
4.36,-3.40,3.54,3.55,-0.20,1.58,0.23,
4.361,-3.40,3.54,3.55,-0.23,1.59,0.25,
4.362,-3.40,3.54,3.55,-0.27,1.59,0.27,
4.365,-3.40,3.54,3.55,-0.32,1.59,0.31,
4.366,-3.40,3.54,3.55,-0.35,1.58,0.33,
4.369,-3.40,3.54,3.55,-0.37,1.57,0.35,
4.37,-3.41,2.97,0.83,-0.37,1.57,0.35,
4.37,-3.41,2.97,0.83,-0.41,1.54,0.38,
4.371,-3.41,2.97,0.83,-0.44,1.50,0.41,
4.373,-3.41,2.97,0.83,-0.48,1.43,0.45,
4.374,-3.41,2.97,0.83,-0.49,1.39,0.46,
4.377,-3.41,2.97,0.83,-0.50,1.32,0.49,
4.379,-3.41,2.40,-1.16,-0.50,1.32,0.49,
4.398,-3.41,2.40,-1.16,-0.50,1.23,0.52,
4.398,-3.41,2.40,-1.16,-0.49,1.13,0.55,
4.398,-3.41,2.40,-1.16,-0.45,0.96,0.59,
4.398,-3.41,2.40,-1.16,-0.43,0.90,0.60,
4.399,-3.41,2.40,-1.16,-0.37,0.77,0.62,
4.399,-3.02,2.40,-0.79,-0.37,0.77,0.62,
4.399,-3.02,2.40,-0.79,-0.29,0.65,0.64,
4.399,-3.02,2.40,-0.79,-0.20,0.52,0.66,
4.4,-3.02,2.40,-0.79,-0.04,0.34,0.69,
4.4,-3.02,2.40,-0.79,0.02,0.28,0.70,
4.4,-3.02,2.40,-0.79,0.16,0.16,0.71,
4.401,-3.04,3.24,1.57,0.16,0.16,0.71,
4.401,-3.04,3.24,1.57,0.30,0.04,0.73,
4.401,-3.04,3.24,1.57,0.46,-0.07,0.74,
4.416,-3.04,3.24,1.57,0.70,-0.22,0.75,
4.417,-3.04,3.24,1.57,0.86,-0.32,0.75,
4.417,-3.04,3.24,1.57,0.94,-0.36,0.74,
4.417,-2.33,4.40,3.46,0.94,-0.36,0.74,
4.418,-2.33,4.40,3.46,1.09,-0.45,0.73,
4.418,-2.33,4.40,3.46,1.24,-0.53,0.70,
4.418,-2.33,4.40,3.46,1.44,-0.66,0.63,
4.418,-2.33,4.40,3.46,1.50,-0.71,0.60,
4.419,-2.33,4.40,3.46,1.60,-0.80,0.54,
4.419,-0.25,5.36,3.57,1.60,-0.80,0.54,
4.419,-0.25,5.36,3.57,1.69,-0.88,0.47,
4.421,-0.25,5.36,3.57,1.76,-0.97,0.40,
4.471,-0.25,5.36,3.57,1.81,-1.10,0.28,
4.472,-0.25,5.36,3.57,1.82,-1.13,0.24,
4.472,-0.25,5.36,3.57,1.82,-1.21,0.16,
4.472,1.67,5.16,1.68,1.82,-1.21,0.16,
4.472,1.67,5.16,1.68,1.79,-1.26,0.08,
4.472,1.67,5.16,1.68,1.75,-1.31,0.02,
4.472,1.67,5.16,1.68,1.64,-1.34,-0.07,
4.472,1.67,5.16,1.68,1.60,-1.35,-0.10,
4.472,1.67,5.16,1.68,1.49,-1.34,-0.14,
4.473,2.32,4.21,-0.90,1.49,-1.34,-0.14,
4.473,2.32,4.21,-0.90,1.38,-1.32,-0.17,
4.473,2.32,4.21,-0.90,1.25,-1.28,-0.19,
4.473,2.32,4.21,-0.90,1.06,-1.19,-0.22,
4.473,2.32,4.21,-0.90,0.99,-1.16,-0.22,
4.473,2.32,4.21,-0.90,0.87,-1.08,-0.23,
4.473,1.98,3.29,-3.13,0.87,-1.08,-0.23,
4.474,1.98,3.29,-3.13,0.75,-0.98,-0.24,
4.474,1.98,3.29,-3.13,0.65,-0.88,-0.25,
4.474,1.98,3.29,-3.13,0.51,-0.70,-0.27,
4.474,1.98,3.29,-3.13,0.45,-0.58,-0.28,
4.474,1.98,3.29,-3.13,0.42,-0.52,-0.28,
4.474,2.08,2.59,-3.06,0.42,-0.52,-0.28,
4.474,2.08,2.59,-3.06,0.38,-0.39,-0.29,
4.474,2.08,2.59,-3.06,0.37,-0.26,-0.30,
4.475,2.08,2.59,-3.06,0.37,-0.07,-0.31,
4.475,2.08,2.59,-3.06,0.38,-0.01,-0.31,
4.475,2.08,2.59,-3.06,0.41,0.11,-0.32,
4.475,2.15,1.57,-0.43,0.41,0.11,-0.32,
4.475,2.15,1.57,-0.43,0.45,0.23,-0.32,
4.475,2.15,1.57,-0.43,0.50,0.34,-0.31,
4.477,2.15,1.57,-0.43,0.58,0.51,-0.30,
4.477,2.15,1.57,-0.43,0.61,0.57,-0.30,
4.477,2.15,1.57,-0.43,0.66,0.68,-0.29,
4.479,1.98,0.62,0.82,0.66,0.68,-0.29,
4.479,1.98,0.62,0.82,0.70,0.77,-0.27,
4.48,1.98,0.62,0.82,0.74,0.86,-0.26,
4.483,1.98,0.62,0.82,0.80,0.97,-0.23,
4.486,1.98,0.62,0.82,0.81,1.01,-0.22,
4.487,1.98,0.62,0.82,0.85,1.06,-0.20,
4.489,1.77,-0.01,0.20,0.85,1.06,-0.20,
4.489,1.77,-0.01,0.20,0.88,1.11,-0.18,
4.49,1.77,-0.01,0.20,0.92,1.15,-0.15,
4.493,1.77,-0.01,0.20,0.99,1.18,-0.10,
4.494,1.77,-0.01,0.20,1.01,1.19,-0.08,
4.503,1.77,-0.01,0.20,1.06,1.19,-0.04,
4.504,1.47,-0.59,1.75,1.06,1.19,-0.04,
4.504,1.47,-0.59,1.75,1.12,1.19,0.00,
4.504,1.47,-0.59,1.75,1.18,1.17,0.05,
4.504,1.47,-0.59,1.75,1.26,1.13,0.12,
4.504,1.47,-0.59,1.75,1.32,1.08,0.16,
4.508,1.47,-0.59,1.75,1.35,1.06,0.19,
4.509,1.02,-0.79,4.11,1.35,1.06,0.19,
4.509,1.02,-0.79,4.11,1.41,1.00,0.23,
4.511,1.02,-0.79,4.11,1.47,0.94,0.26,
4.518,1.02,-0.79,4.11,1.56,0.83,0.30,
4.518,1.02,-0.79,4.11,1.63,0.75,0.33,
4.519,1.02,-0.79,4.11,1.66,0.70,0.34,
4.519,1.09,-0.58,6.20,1.66,0.70,0.34,
4.519,1.09,-0.58,6.20,1.73,0.62,0.35,
4.52,1.09,-0.58,6.20,1.79,0.54,0.37,
4.524,1.09,-0.58,6.20,1.88,0.42,0.39,
4.525,1.09,-0.58,6.20,1.93,0.34,0.39,
4.526,1.09,-0.58,6.20,1.95,0.30,0.40,
4.53,0.76,-1.50,6.58,1.95,0.30,0.40,
4.53,0.76,-1.50,6.58,1.99,0.22,0.41,
4.533,0.76,-1.50,6.58,2.03,0.13,0.42,
4.533,0.76,-1.50,6.58,2.09,0.01,0.44,
4.534,0.76,-1.50,6.58,2.12,-0.07,0.45,
4.536,0.76,-1.50,6.58,2.13,-0.11,0.45,
4.538,0.06,-3.17,5.42,2.13,-0.11,0.45,
4.539,0.06,-3.17,5.42,2.17,-0.19,0.46,
4.54,0.06,-3.17,5.42,2.21,-0.26,0.47,
4.545,0.06,-3.17,5.42,2.28,-0.36,0.48,
4.546,0.06,-3.17,5.42,2.33,-0.43,0.49,
4.559,0.06,-3.17,5.42,2.36,-0.46,0.50,
4.559,-0.57,-5.19,5.29,2.36,-0.46,0.50,
4.56,-0.57,-5.19,5.29,2.42,-0.51,0.50,
4.56,-0.57,-5.19,5.29,2.50,-0.56,0.50,
4.56,-0.57,-5.19,5.29,2.61,-0.62,0.50,
4.56,-0.57,-5.19,5.29,2.70,-0.65,0.50,
4.56,-0.57,-5.19,5.29,2.74,-0.67,0.49,
4.561,-0.83,-7.49,6.58,2.74,-0.67,0.49,
4.561,-0.83,-7.49,6.58,2.83,-0.70,0.48,
4.561,-0.83,-7.49,6.58,2.92,-0.72,0.47,
4.564,-0.83,-7.49,6.58,3.04,-0.75,0.45,
4.565,-0.83,-7.49,6.58,3.12,-0.77,0.43,
4.566,-0.83,-7.49,6.58,3.15,-0.78,0.42,
4.569,-0.54,-9.75,5.98,3.15,-0.78,0.42,
4.569,-0.54,-9.75,5.98,3.20,-0.81,0.39,
4.57,-0.54,-9.75,5.98,3.25,-0.83,0.37,
4.573,-0.54,-9.75,5.98,3.29,-0.88,0.32,
4.574,-0.54,-9.75,5.98,3.29,-0.91,0.29,
4.577,-0.54,-9.75,5.98,3.29,-0.93,0.28,
4.579,-0.21,-11.28,1.96,3.29,-0.93,0.28,
4.579,-0.21,-11.28,1.96,3.27,-0.97,0.25,
4.581,-0.21,-11.28,1.96,3.24,-1.01,0.22,
4.584,-0.21,-11.28,1.96,3.16,-1.09,0.17,
4.585,-0.21,-11.28,1.96,3.08,-1.14,0.14,
4.586,-0.21,-11.28,1.96,3.04,-1.17,0.13,
4.589,-0.25,-12.18,-2.38,3.04,-1.17,0.13,
4.589,-0.25,-12.18,-2.38,2.96,-1.21,0.10,
4.591,-0.25,-12.18,-2.38,2.86,-1.25,0.07,
4.595,-0.25,-12.18,-2.38,2.71,-1.29,0.02,
4.595,-0.25,-12.18,-2.38,2.61,-1.30,-0.00,
4.597,-0.25,-12.18,-2.38,2.56,-1.30,-0.02,
4.598,-0.47,-12.95,-4.59,2.56,-1.30,-0.02,
4.599,-0.47,-12.95,-4.59,2.46,-1.29,-0.04,
4.601,-0.47,-12.95,-4.59,2.36,-1.28,-0.07,
4.603,-0.47,-12.95,-4.59,2.21,-1.26,-0.11,
4.605,-0.47,-12.95,-4.59,2.12,-1.23,-0.13,
4.607,-0.47,-12.95,-4.59,2.08,-1.22,-0.15,
4.609,-0.76,-13.32,-4.83,2.08,-1.22,-0.15,
4.61,-0.76,-13.32,-4.83,1.99,-1.18,-0.17,
4.611,-0.76,-13.32,-4.83,1.91,-1.15,-0.19,
4.619,-0.76,-13.32,-4.83,1.80,-1.07,-0.23,
4.619,-0.76,-13.32,-4.83,1.73,-1.01,-0.25,
4.619,-0.76,-13.32,-4.83,1.70,-0.96,-0.26,
4.621,-1.07,-12.96,-4.95,1.70,-0.96,-0.26,
4.621,-1.07,-12.96,-4.95,1.64,-0.87,-0.28,
4.621,-1.07,-12.96,-4.95,1.58,-0.77,-0.31,
4.623,-1.07,-12.96,-4.95,1.51,-0.60,-0.35,
4.625,-1.07,-12.96,-4.95,1.46,-0.47,-0.38,
4.627,-1.07,-12.96,-4.95,1.41,-0.35,-0.42,
4.629,-1.07,-10.58,-5.52,1.41,-0.35,-0.42,
4.63,-1.07,-10.58,-5.52,1.35,-0.23,-0.45,
4.631,-1.07,-10.58,-5.52,1.33,-0.17,-0.47,
4.634,-1.07,-10.58,-5.52,1.25,0.01,-0.53,
4.635,-1.07,-10.58,-5.52,1.20,0.13,-0.57,
4.636,-1.07,-10.58,-5.52,1.17,0.19,-0.59,
4.639,-0.93,-6.99,-6.85,1.17,0.19,-0.59,
4.639,-0.93,-6.99,-6.85,1.12,0.30,-0.64,
4.64,-0.93,-6.99,-6.85,1.07,0.42,-0.67,
4.643,-0.93,-6.99,-6.85,1.01,0.59,-0.73,
4.645,-0.93,-6.99,-6.85,0.98,0.69,-0.75,
4.646,-0.93,-6.99,-6.85,0.96,0.74,-0.76,
4.649,-1.43,-3.40,-6.26,0.96,0.74,-0.76,
4.649,-1.43,-3.40,-6.26,0.93,0.83,-0.77,
4.651,-1.43,-3.40,-6.26,0.90,0.91,-0.77,
4.653,-1.43,-3.40,-6.26,0.87,1.01,-0.73,
4.655,-1.43,-3.40,-6.26,0.85,1.06,-0.70,
4.656,-1.43,-3.40,-6.26,0.85,1.09,-0.68,
4.667,-3.41,-0.59,-4.45,0.85,1.09,-0.68,
4.667,-3.41,-0.59,-4.45,0.83,1.15,-0.64,
4.668,-3.41,-0.59,-4.45,0.82,1.21,-0.59,
4.668,-3.41,-0.59,-4.45,0.81,1.31,-0.51,
4.668,-3.41,-0.59,-4.45,0.80,1.38,-0.45,
4.668,-3.41,-0.59,-4.45,0.80,1.41,-0.42,
4.669,-4.38,1.66,-2.47,0.80,1.41,-0.42,
4.669,-4.38,1.66,-2.47,0.79,1.48,-0.36,
4.672,-4.38,1.66,-2.47,0.77,1.55,-0.30,
4.673,-4.38,1.66,-2.47,0.73,1.64,-0.21,
4.69,-4.38,1.66,-2.47,0.70,1.70,-0.14,
4.69,-4.38,1.66,-2.47,0.68,1.72,-0.11,
4.69,-4.69,2.98,-1.70,0.68,1.72,-0.11,
4.69,-4.69,2.98,-1.70,0.62,1.76,-0.04,
4.69,-4.69,2.98,-1.70,0.57,1.79,0.02,
4.691,-4.69,2.98,-1.70,0.47,1.80,0.12,
4.691,-4.69,2.98,-1.70,0.38,1.80,0.19,
4.691,-4.69,2.98,-1.70,0.34,1.79,0.22,
4.691,-3.97,3.39,-2.13,0.34,1.79,0.22,
4.691,-3.97,3.39,-2.13,0.25,1.75,0.27,
4.699,-3.97,3.39,-2.13,0.16,1.70,0.32,
4.699,-3.97,3.39,-2.13,0.01,1.60,0.38,
4.7,-3.97,3.39,-2.13,-0.09,1.51,0.41,
4.7,-3.97,3.39,-2.13,-0.15,1.46,0.42,
4.7,-2.52,3.23,-3.10,-0.15,1.46,0.42,
4.7,-2.52,3.23,-3.10,-0.25,1.34,0.44,
4.701,-2.52,3.23,-3.10,-0.36,1.21,0.46,
4.703,-2.52,3.23,-3.10,-0.51,1.00,0.46,
4.705,-2.52,3.23,-3.10,-0.61,0.84,0.46,
4.706,-2.52,3.23,-3.10,-0.66,0.76,0.45,
4.709,-0.83,2.79,-3.88,-0.66,0.76,0.45,
4.709,-0.83,2.79,-3.88,-0.75,0.60,0.44,
4.71,-0.83,2.79,-3.88,-0.85,0.43,0.42,
4.722,-0.83,2.79,-3.88,-0.99,0.20,0.37,
4.723,-0.83,2.79,-3.88,-1.07,0.05,0.35,
4.723,-0.83,2.79,-3.88,-1.11,-0.02,0.33,
4.724,0.39,2.75,-4.67,-1.11,-0.02,0.33,
4.724,0.39,2.75,-4.67,-1.19,-0.15,0.30,
4.724,0.39,2.75,-4.67,-1.26,-0.27,0.27,
4.724,0.39,2.75,-4.67,-1.35,-0.43,0.22,
4.726,0.39,2.75,-4.67,-1.41,-0.52,0.20,
4.727,0.39,2.75,-4.67,-1.43,-0.56,0.19,
4.728,0.52,3.51,-4.79,-1.43,-0.56,0.19,
4.729,0.52,3.51,-4.79,-1.48,-0.63,0.17,
4.73,0.52,3.51,-4.79,-1.52,-0.69,0.16,
4.733,0.52,3.51,-4.79,-1.58,-0.76,0.14,
4.734,0.52,3.51,-4.79,-1.61,-0.79,0.14,
4.736,0.52,3.51,-4.79,-1.63,-0.80,0.13,
4.74,-0.02,4.42,-5.03,-1.63,-0.80,0.13,
4.74,-0.02,4.42,-5.03,-1.66,-0.82,0.13,
4.74,-0.02,4.42,-5.03,-1.69,-0.82,0.13,
4.743,-0.02,4.42,-5.03,-1.72,-0.82,0.14,
4.745,-0.02,4.42,-5.03,-1.73,-0.80,0.15,
4.751,-0.02,4.42,-5.03,-1.74,-0.79,0.15,
4.751,-0.47,5.47,-4.93,-1.74,-0.79,0.15,
4.751,-0.47,5.47,-4.93,-1.75,-0.77,0.16,
4.752,-0.47,5.47,-4.93,-1.76,-0.74,0.17,
4.753,-0.47,5.47,-4.93,-1.77,-0.68,0.18,
4.754,-0.47,5.47,-4.93,-1.78,-0.64,0.19,
4.756,-0.47,5.47,-4.93,-1.78,-0.62,0.20,
4.759,-0.99,6.22,-4.93,-1.78,-0.62,0.20,
4.76,-0.99,6.22,-4.93,-1.78,-0.57,0.21,
4.76,-0.99,6.22,-4.93,-1.78,-0.53,0.23,
4.764,-0.99,6.22,-4.93,-1.77,-0.46,0.26,
4.765,-0.99,6.22,-4.93,-1.76,-0.42,0.28,
4.766,-0.99,6.22,-4.93,-1.76,-0.39,0.29,
4.769,-1.40,6.83,-4.38,-1.76,-0.39,0.29,
4.769,-1.40,6.83,-4.38,-1.75,-0.36,0.32,
4.77,-1.40,6.83,-4.38,-1.74,-0.31,0.35,
4.773,-1.40,6.83,-4.38,-1.72,-0.26,0.40,
4.775,-1.40,6.83,-4.38,-1.70,-0.23,0.44,
4.777,-1.40,6.83,-4.38,-1.70,-0.21,0.46,
4.779,-1.98,7.20,-3.87,-1.70,-0.21,0.46,
4.78,-1.98,7.20,-3.87,-1.69,-0.18,0.49,
4.78,-1.98,7.20,-3.87,-1.67,-0.15,0.53,
4.783,-1.98,7.20,-3.87,-1.65,-0.10,0.58,
4.785,-1.98,7.20,-3.87,-1.64,-0.08,0.62,
4.786,-1.98,7.20,-3.87,-1.64,-0.06,0.64,
4.789,-1.78,7.28,-3.50,-1.64,-0.06,0.64,
4.79,-1.78,7.28,-3.50,-1.63,-0.04,0.67,
4.792,-1.78,7.28,-3.50,-1.63,-0.01,0.70,
4.794,-1.78,7.28,-3.50,-1.64,0.04,0.73,
4.795,-1.78,7.28,-3.50,-1.64,0.07,0.75,
4.796,-1.78,7.28,-3.50,-1.65,0.09,0.76,
4.799,-1.04,7.13,-3.76,-1.65,0.09,0.76,
4.8,-1.04,7.13,-3.76,-1.67,0.13,0.76,
4.801,-1.04,7.13,-3.76,-1.69,0.18,0.76,
4.803,-1.04,7.13,-3.76,-1.73,0.25,0.76,
4.805,-1.04,7.13,-3.76,-1.76,0.30,0.75,
4.806,-1.04,7.13,-3.76,-1.77,0.32,0.75,
4.81,0.28,6.76,-3.90,-1.77,0.32,0.75,
4.811,0.28,6.76,-3.90,-1.81,0.37,0.74,
4.812,0.28,6.76,-3.90,-1.84,0.42,0.73,
4.814,0.28,6.76,-3.90,-1.89,0.48,0.70,
4.815,0.28,6.76,-3.90,-1.93,0.53,0.68,
4.817,0.28,6.76,-3.90,-1.95,0.55,0.67,
4.819,1.29,6.34,-3.73,-1.95,0.55,0.67,
4.819,1.29,6.34,-3.73,-2.00,0.61,0.63,
4.821,1.29,6.34,-3.73,-2.03,0.65,0.60,
4.824,1.29,6.34,-3.73,-2.08,0.72,0.54,
4.831,1.29,6.34,-3.73,-2.09,0.74,0.52,
4.832,1.29,6.34,-3.73,-2.11,0.79,0.48,
4.832,1.96,6.03,-2.92,-2.11,0.79,0.48,
4.832,1.96,6.03,-2.92,-2.13,0.85,0.43,
4.832,1.96,6.03,-2.92,-2.14,0.89,0.38,
4.833,1.96,6.03,-2.92,-2.15,0.94,0.32,
4.874,1.96,6.03,-2.92,-2.16,1.00,0.27,
4.875,1.96,6.03,-2.92,-2.16,1.05,0.21,
4.875,2.72,5.51,-1.59,-2.16,1.05,0.21,
4.875,2.72,5.51,-1.59,-2.15,1.10,0.14,
4.875,2.72,5.51,-1.59,-2.14,1.15,0.07,
4.876,2.72,5.51,-1.59,-2.12,1.20,0.01,
4.876,2.72,5.51,-1.59,-2.09,1.26,-0.06,
4.876,2.72,5.51,-1.59,-2.06,1.31,-0.13,
4.876,2.98,4.85,-0.05,-2.06,1.31,-0.13,
4.876,2.98,4.85,-0.05,-2.02,1.38,-0.20,
4.876,2.98,4.85,-0.05,-1.97,1.44,-0.28,
4.877,2.98,4.85,-0.05,-1.89,1.54,-0.39,
4.877,2.98,4.85,-0.05,-1.86,1.57,-0.42,
4.877,2.98,4.85,-0.05,-1.79,1.65,-0.49,
4.877,3.17,4.03,1.78,-1.79,1.65,-0.49,
4.877,3.17,4.03,1.78,-1.72,1.73,-0.56,
4.878,3.17,4.03,1.78,-1.64,1.81,-0.62,
4.878,3.17,4.03,1.78,-1.54,1.89,-0.68,
4.878,3.17,4.03,1.78,-1.42,1.98,-0.73,
4.878,3.17,4.03,1.78,-1.28,2.07,-0.77,
4.878,2.55,3.00,5.14,-1.28,2.07,-0.77,
4.879,2.55,3.00,5.14,-1.11,2.16,-0.82,
4.879,2.55,3.00,5.14,-0.93,2.24,-0.85,
4.881,2.55,3.00,5.14,-0.66,2.32,-0.90,
4.881,2.55,3.00,5.14,-0.58,2.33,-0.91,
4.881,2.55,3.00,5.14,-0.46,2.32,-0.93,
4.882,2.38,1.11,12.10,-0.46,2.32,-0.93,
4.901,2.38,1.11,12.10,-0.38,2.25,-0.93,
4.901,2.38,1.11,12.10,-0.33,2.14,-0.93,
4.902,2.38,1.11,12.10,-0.31,1.97,-0.93,
4.902,2.38,1.11,12.10,-0.32,1.75,-0.92,
4.902,2.38,1.11,12.10,-0.35,1.48,-0.91,
4.902,2.67,-0.24,13.18,-0.35,1.48,-0.91,
4.903,2.67,-0.24,13.18,-0.41,1.16,-0.90,
4.903,2.67,-0.24,13.18,-0.48,0.80,-0.89,
4.903,2.67,-0.24,13.18,-0.57,0.40,-0.87,
4.903,2.67,-0.24,13.18,-0.67,-0.04,-0.84,
4.904,2.67,-0.24,13.18,-0.77,-0.47,-0.81,
4.904,2.98,-0.28,11.78,-0.77,-0.47,-0.81,
4.904,2.98,-0.28,11.78,-0.86,-0.88,-0.77,
4.904,2.98,-0.28,11.78,-0.95,-1.28,-0.74,
4.905,2.98,-0.28,11.78,-1.05,-1.81,-0.68,
4.905,2.98,-0.28,11.78,-1.07,-1.98,-0.66,
4.909,2.98,-0.28,11.78,-1.11,-2.27,-0.63,
4.91,2.99,-0.38,11.24,-1.11,-2.27,-0.63,
4.91,2.99,-0.38,11.24,-1.13,-2.53,-0.60,
4.91,2.99,-0.38,11.24,-1.14,-2.75,-0.57,
4.913,2.99,-0.38,11.24,-1.13,-2.93,-0.54,
4.914,2.99,-0.38,11.24,-1.10,-3.07,-0.51,
4.916,2.99,-0.38,11.24,-1.06,-3.16,-0.48,
4.919,3.19,-0.39,11.86,-1.06,-3.16,-0.48,
4.919,3.19,-0.39,11.86,-1.01,-3.23,-0.46,
4.921,3.19,-0.39,11.86,-0.96,-3.26,-0.44,
4.925,3.19,-0.39,11.86,-0.91,-3.26,-0.42,
4.925,3.19,-0.39,11.86,-0.85,-3.22,-0.40,
4.927,3.19,-0.39,11.86,-0.79,-3.14,-0.39,
4.929,3.22,-0.12,11.01,-0.79,-3.14,-0.39,
4.929,3.22,-0.12,11.01,-0.74,-3.04,-0.38,
4.931,3.22,-0.12,11.01,-0.68,-2.90,-0.37,
4.933,3.22,-0.12,11.01,-0.63,-2.72,-0.36,
4.934,3.22,-0.12,11.01,-0.59,-2.51,-0.35,
4.936,3.22,-0.12,11.01,-0.55,-2.28,-0.35,
4.938,3.08,0.10,9.26,-0.55,-2.28,-0.35,
4.939,3.08,0.10,9.26,-0.53,-2.01,-0.35,
4.949,3.08,0.10,9.26,-0.51,-1.72,-0.36,
4.949,3.08,0.10,9.26,-0.51,-1.24,-0.37,
4.949,3.08,0.10,9.26,-0.52,-1.08,-0.37,
4.95,3.08,0.10,9.26,-0.54,-0.74,-0.38,
4.95,2.39,0.44,5.92,-0.54,-0.74,-0.38,
4.95,2.39,0.44,5.92,-0.58,-0.41,-0.38,
4.95,2.39,0.44,5.92,-0.63,-0.09,-0.39,
4.954,2.39,0.44,5.92,-0.74,0.37,-0.40,
4.954,2.39,0.44,5.92,-0.78,0.52,-0.40,
4.986,2.39,0.44,5.92,-0.89,0.79,-0.41,
4.987,1.39,0.68,0.33,-0.89,0.79,-0.41,
4.987,1.39,0.68,0.33,-1.02,1.03,-0.43,
4.987,1.39,0.68,0.33,-1.16,1.26,-0.46,
4.987,1.39,0.68,0.33,-1.32,1.45,-0.49,
4.988,1.39,0.68,0.33,-1.48,1.61,-0.53,
4.988,1.39,0.68,0.33,-1.64,1.74,-0.57,
4.988,0.98,0.29,-6.25,-1.64,1.74,-0.57,
4.989,0.98,0.29,-6.25,-1.80,1.83,-0.62,
4.989,0.98,0.29,-6.25,-1.93,1.90,-0.68,
4.989,0.98,0.29,-6.25,-2.05,1.96,-0.74,
4.989,0.98,0.29,-6.25,-2.14,2.00,-0.80,
4.989,0.98,0.29,-6.25,-2.24,2.06,-0.89,
4.989,0.91,-0.38,-9.30,-2.24,2.06,-0.89,
4.99,0.91,-0.38,-9.30,-2.27,2.07,-0.91,
4.99,0.91,-0.38,-9.30,-2.30,2.08,-0.96,
4.99,0.91,-0.38,-9.30,-2.31,2.08,-0.99,
4.99,0.91,-0.38,-9.30,-2.30,2.05,-1.01,
4.99,0.91,-0.38,-9.30,-2.27,2.00,-1.03,
4.991,-0.12,-2.32,-7.74,-2.27,2.00,-1.03,
4.991,-0.12,-2.32,-7.74,-2.22,1.94,-1.04,
5.005,-0.12,-2.32,-7.74,-2.15,1.85,-1.04,
5.005,-0.12,-2.32,-7.74,-2.06,1.74,-1.02,
