
time,ax,ay,az,wx,wy,wz,
0.004,-0.72,-0.02,-0.85,0.06,-0.18,0.42,
0.004,-0.72,-0.02,-0.85,0.05,-0.23,0.43,
0.004,-0.72,-0.02,-0.85,0.04,-0.28,0.45,
0.004,-0.72,-0.02,-0.85,0.03,-0.32,0.46,
0.005,-0.72,-0.02,-0.85,0.02,-0.38,0.47,
0.005,-0.72,-0.02,-0.85,0.01,-0.44,0.49,
0.005,-0.91,0.22,-0.56,0.01,-0.44,0.49,
0.005,-0.91,0.22,-0.56,0.01,-0.49,0.50,
0.008,-0.91,0.22,-0.56,-0.00,-0.52,0.51,
0.009,-0.91,0.22,-0.56,-0.02,-0.56,0.54,
0.009,-0.91,0.22,-0.56,-0.03,-0.57,0.54,
0.01,-0.91,0.22,-0.56,-0.04,-0.57,0.56,
0.012,-0.98,-0.29,-0.37,-0.04,-0.57,0.56,
0.012,-0.98,-0.29,-0.37,-0.05,-0.57,0.57,
0.014,-0.98,-0.29,-0.37,-0.06,-0.55,0.58,
0.017,-0.98,-0.29,-0.37,-0.08,-0.52,0.59,
0.018,-0.98,-0.29,-0.37,-0.08,-0.51,0.60,
0.02,-0.98,-0.29,-0.37,-0.10,-0.50,0.61,
0.022,-0.78,-0.55,-0.60,-0.10,-0.50,0.61,
0.022,-0.78,-0.55,-0.60,-0.11,-0.48,0.61,
0.024,-0.78,-0.55,-0.60,-0.13,-0.47,0.62,
0.027,-0.78,-0.55,-0.60,-0.16,-0.46,0.63,
0.027,-0.78,-0.55,-0.60,-0.17,-0.46,0.63,
0.029,-0.78,-0.55,-0.60,-0.19,-0.46,0.64,
0.032,-0.25,-0.79,-0.60,-0.19,-0.46,0.64,
0.032,-0.25,-0.79,-0.60,-0.21,-0.46,0.64,
0.034,-0.25,-0.79,-0.60,-0.22,-0.45,0.65,
0.037,-0.25,-0.79,-0.60,-0.25,-0.45,0.65,
0.038,-0.25,-0.79,-0.60,-0.25,-0.45,0.65,
0.041,-0.25,-0.79,-0.60,-0.27,-0.44,0.65,
0.042,0.05,-0.91,-0.49,-0.27,-0.44,0.65,
0.042,0.05,-0.91,-0.49,-0.28,-0.44,0.65,
0.043,0.05,-0.91,-0.49,-0.29,-0.43,0.65,
0.046,0.05,-0.91,-0.49,-0.30,-0.43,0.63,
0.047,0.05,-0.91,-0.49,-0.30,-0.43,0.62,
0.05,0.05,-0.91,-0.49,-0.30,-0.43,0.61,
0.052,0.43,-0.73,-0.42,-0.30,-0.43,0.61,
0.053,0.43,-0.73,-0.42,-0.30,-0.42,0.60,
0.054,0.43,-0.73,-0.42,-0.29,-0.42,0.58,
0.058,0.43,-0.73,-0.42,-0.28,-0.41,0.56,
0.058,0.43,-0.73,-0.42,-0.27,-0.41,0.55,
0.059,0.43,-0.73,-0.42,-0.26,-0.41,0.54,
0.062,0.37,-0.55,-0.37,-0.26,-0.41,0.54,
0.067,0.37,-0.55,-0.37,-0.25,-0.41,0.52,
0.068,0.37,-0.55,-0.37,-0.24,-0.42,0.51,
0.068,0.37,-0.55,-0.37,-0.22,-0.44,0.49,
0.082,0.37,-0.55,-0.37,-0.22,-0.45,0.49,
0.083,0.37,-0.55,-0.37,-0.20,-0.47,0.48,
0.083,0.21,-0.46,-0.37,-0.20,-0.47,0.48,
0.083,0.21,-0.46,-0.37,-0.19,-0.48,0.47,
0.084,0.21,-0.46,-0.37,-0.18,-0.50,0.45,
0.084,0.21,-0.46,-0.37,-0.17,-0.53,0.44,
0.084,0.21,-0.46,-0.37,-0.16,-0.54,0.43,
0.084,0.21,-0.46,-0.37,-0.15,-0.56,0.43,
0.085,0.03,-0.46,-0.32,-0.15,-0.56,0.43,
0.085,0.03,-0.46,-0.32,-0.13,-0.58,0.42,
0.085,0.03,-0.46,-0.32,-0.12,-0.60,0.41,
0.088,0.03,-0.46,-0.32,-0.11,-0.63,0.39,
0.088,0.03,-0.46,-0.32,-0.10,-0.64,0.39,
0.094,0.03,-0.46,-0.32,-0.09,-0.67,0.39,
0.094,-0.11,-0.50,-0.28,-0.09,-0.67,0.39,
0.094,-0.11,-0.50,-0.28,-0.08,-0.70,0.38,
0.095,-0.11,-0.50,-0.28,-0.07,-0.73,0.38,
0.097,-0.11,-0.50,-0.28,-0.05,-0.78,0.39,
0.097,-0.11,-0.50,-0.28,-0.05,-0.80,0.39,
0.116,-0.11,-0.50,-0.28,-0.04,-0.84,0.39,
0.116,-0.46,-0.64,-0.34,-0.04,-0.84,0.39,
0.117,-0.46,-0.64,-0.34,-0.03,-0.88,0.40,
0.117,-0.46,-0.64,-0.34,-0.02,-0.92,0.40,
0.117,-0.46,-0.64,-0.34,-0.00,-0.97,0.42,
0.117,-0.46,-0.64,-0.34,0.00,-0.99,0.42,
0.118,-0.46,-0.64,-0.34,0.01,-1.02,0.43,
0.118,-0.71,-0.74,-0.40,0.01,-1.02,0.43,
0.118,-0.71,-0.74,-0.40,0.02,-1.05,0.44,
0.118,-0.71,-0.74,-0.40,0.03,-1.08,0.45,
0.118,-0.71,-0.74,-0.40,0.04,-1.11,0.46,
0.121,-0.71,-0.74,-0.40,0.04,-1.13,0.46,
0.121,-0.71,-0.74,-0.40,0.05,-1.15,0.47,
0.124,-0.42,-0.75,-0.21,0.05,-1.15,0.47,
0.124,-0.42,-0.75,-0.21,0.05,-1.18,0.47,
0.125,-0.42,-0.75,-0.21,0.06,-1.21,0.47,
0.127,-0.42,-0.75,-0.21,0.07,-1.24,0.47,
0.128,-0.42,-0.75,-0.21,0.07,-1.26,0.47,
0.131,-0.42,-0.75,-0.21,0.07,-1.27,0.47,
0.145,0.13,-0.73,-0.18,0.07,-1.27,0.47,
0.145,0.13,-0.73,-0.18,0.07,-1.29,0.46,
0.146,0.13,-0.73,-0.18,0.07,-1.29,0.46,
0.146,0.13,-0.73,-0.18,0.07,-1.29,0.45,
0.146,0.13,-0.73,-0.18,0.06,-1.29,0.45,
0.146,0.13,-0.73,-0.18,0.06,-1.29,0.45,
0.146,0.64,-0.70,-0.26,0.06,-1.29,0.45,
0.147,0.64,-0.70,-0.26,0.05,-1.28,0.45,
0.147,0.64,-0.70,-0.26,0.04,-1.26,0.44,
0.152,0.64,-0.70,-0.26,0.02,-1.24,0.44,
0.154,0.64,-0.70,-0.26,0.01,-1.24,0.44,
0.154,0.64,-0.70,-0.26,0.01,-1.22,0.43,
0.155,0.87,-0.46,0.12,0.01,-1.22,0.43,
0.155,0.87,-0.46,0.12,-0.01,-1.21,0.44,
0.155,0.87,-0.46,0.12,-0.01,-1.19,0.44,
0.159,0.87,-0.46,0.12,-0.03,-1.16,0.44,
0.159,0.87,-0.46,0.12,-0.04,-1.14,0.44,
0.16,0.87,-0.46,0.12,-0.05,-1.12,0.44,
0.163,0.80,-0.23,0.15,-0.05,-1.12,0.44,
0.164,0.80,-0.23,0.15,-0.06,-1.10,0.44,
0.164,0.80,-0.23,0.15,-0.07,-1.08,0.44,
0.167,0.80,-0.23,0.15,-0.09,-1.04,0.45,
0.168,0.80,-0.23,0.15,-0.10,-1.03,0.45,
0.17,0.80,-0.23,0.15,-0.11,-1.01,0.46,
0.173,0.42,-0.22,-0.24,-0.11,-1.01,0.46,
0.173,0.42,-0.22,-0.24,-0.12,-1.01,0.47,
0.173,0.42,-0.22,-0.24,-0.13,-1.00,0.48,
0.177,0.42,-0.22,-0.24,-0.14,-1.00,0.50,
0.177,0.42,-0.22,-0.24,-0.14,-1.01,0.50,
0.179,0.42,-0.22,-0.24,-0.14,-1.02,0.51,
0.182,-0.01,-0.34,-0.54,-0.14,-1.02,0.51,
0.183,-0.01,-0.34,-0.54,-0.14,-1.03,0.53,
0.184,-0.01,-0.34,-0.54,-0.14,-1.05,0.54,
0.187,-0.01,-0.34,-0.54,-0.13,-1.08,0.55,
0.187,-0.01,-0.34,-0.54,-0.12,-1.09,0.56,
0.189,-0.01,-0.34,-0.54,-0.11,-1.11,0.57,
0.192,-0.04,-0.42,-0.34,-0.11,-1.11,0.57,
0.192,-0.04,-0.42,-0.34,-0.10,-1.13,0.57,
0.194,-0.04,-0.42,-0.34,-0.08,-1.15,0.58,
0.196,-0.04,-0.42,-0.34,-0.06,-1.20,0.59,
0.197,-0.04,-0.42,-0.34,-0.05,-1.21,0.59,
0.199,-0.04,-0.42,-0.34,-0.04,-1.24,0.59,
0.202,0.23,-0.32,-0.13,-0.04,-1.24,0.59,
0.203,0.23,-0.32,-0.13,-0.02,-1.28,0.59,
0.204,0.23,-0.32,-0.13,0.00,-1.32,0.59,
0.206,0.23,-0.32,-0.13,0.03,-1.38,0.59,
0.208,0.23,-0.32,-0.13,0.04,-1.40,0.59,
0.21,0.23,-0.32,-0.13,0.06,-1.44,0.59,
0.212,0.62,-0.07,-0.29,0.06,-1.44,0.59,
0.212,0.62,-0.07,-0.29,0.08,-1.49,0.58,
0.214,0.62,-0.07,-0.29,0.09,-1.54,0.57,
0.217,0.62,-0.07,-0.29,0.12,-1.60,0.56,
0.218,0.62,-0.07,-0.29,0.13,-1.62,0.55,
0.219,0.62,-0.07,-0.29,0.14,-1.67,0.54,
0.226,1.19,0.11,-0.43,0.14,-1.67,0.54,
0.227,1.19,0.11,-0.43,0.16,-1.71,0.53,
0.227,1.19,0.11,-0.43,0.18,-1.75,0.51,
0.227,1.19,0.11,-0.43,0.19,-1.80,0.49,
0.23,1.19,0.11,-0.43,0.20,-1.81,0.48,
0.254,1.19,0.11,-0.43,0.21,-1.86,0.46,
0.255,1.90,0.15,-0.59,0.21,-1.86,0.46,
0.255,1.90,0.15,-0.59,0.21,-1.91,0.45,
0.255,1.90,0.15,-0.59,0.21,-1.95,0.43,
0.255,1.90,0.15,-0.59,0.20,-1.99,0.41,
0.256,1.90,0.15,-0.59,0.19,-2.00,0.40,
0.256,1.90,0.15,-0.59,0.18,-2.01,0.39,
0.256,1.96,-0.00,-1.26,0.18,-2.01,0.39,
0.257,1.96,-0.00,-1.26,0.16,-2.02,0.38,
0.257,1.96,-0.00,-1.26,0.14,-2.03,0.36,
0.257,1.96,-0.00,-1.26,0.09,-2.03,0.34,
0.258,1.96,-0.00,-1.26,0.07,-2.03,0.33,
0.258,1.96,-0.00,-1.26,0.04,-2.03,0.32,
0.258,1.87,-0.10,-2.04,0.04,-2.03,0.32,
0.258,1.87,-0.10,-2.04,0.00,-2.02,0.31,
0.258,1.87,-0.10,-2.04,-0.04,-2.00,0.30,
0.258,1.87,-0.10,-2.04,-0.09,-1.97,0.28,
0.259,1.87,-0.10,-2.04,-0.11,-1.96,0.28,
0.264,1.87,-0.10,-2.04,-0.15,-1.94,0.27,
0.264,1.48,-0.25,-2.13,-0.15,-1.94,0.27,
0.264,1.48,-0.25,-2.13,-0.19,-1.92,0.27,
0.264,1.48,-0.25,-2.13,-0.22,-1.90,0.27,
0.266,1.48,-0.25,-2.13,-0.27,-1.88,0.27,
0.267,1.48,-0.25,-2.13,-0.29,-1.88,0.27,
0.269,1.48,-0.25,-2.13,-0.31,-1.87,0.28,
0.272,0.68,-0.16,-1.76,-0.31,-1.87,0.28,
0.272,0.68,-0.16,-1.76,-0.34,-1.86,0.29,
0.274,0.68,-0.16,-1.76,-0.36,-1.86,0.30,
0.277,0.68,-0.16,-1.76,-0.38,-1.84,0.32,
0.277,0.68,-0.16,-1.76,-0.39,-1.84,0.33,
0.279,0.68,-0.16,-1.76,-0.40,-1.83,0.35,
0.282,-0.13,0.04,-1.17,-0.40,-1.83,0.35,
0.282,-0.13,0.04,-1.17,-0.41,-1.82,0.37,
0.284,-0.13,0.04,-1.17,-0.41,-1.81,0.39,
0.286,-0.13,0.04,-1.17,-0.42,-1.78,0.42,
0.287,-0.13,0.04,-1.17,-0.42,-1.78,0.43,
0.289,-0.13,0.04,-1.17,-0.42,-1.77,0.45,
0.292,-0.60,0.22,-0.78,-0.42,-1.77,0.45,
0.292,-0.60,0.22,-0.78,-0.42,-1.76,0.47,
0.294,-0.60,0.22,-0.78,-0.42,-1.74,0.49,
0.296,-0.60,0.22,-0.78,-0.42,-1.72,0.52,
0.299,-0.60,0.22,-0.78,-0.41,-1.71,0.53,
0.3,-0.60,0.22,-0.78,-0.41,-1.69,0.55,
0.302,-0.85,0.06,-0.75,-0.41,-1.69,0.55,
0.302,-0.85,0.06,-0.75,-0.41,-1.66,0.58,
0.307,-0.85,0.06,-0.75,-0.41,-1.62,0.60,
0.307,-0.85,0.06,-0.75,-0.42,-1.56,0.64,
0.307,-0.85,0.06,-0.75,-0.42,-1.54,0.65,
0.309,-0.85,0.06,-0.75,-0.43,-1.48,0.67,
0.312,-1.19,-0.47,-1.19,-0.43,-1.48,0.67,
0.313,-1.19,-0.47,-1.19,-0.45,-1.40,0.70,
0.314,-1.19,-0.47,-1.19,-0.46,-1.32,0.72,
0.316,-1.19,-0.47,-1.19,-0.50,-1.21,0.76,
0.317,-1.19,-0.47,-1.19,-0.51,-1.17,0.78,
0.32,-1.19,-0.47,-1.19,-0.53,-1.11,0.81,
0.322,-1.90,-0.79,-2.11,-0.53,-1.11,0.81,
0.322,-1.90,-0.79,-2.11,-0.54,-1.06,0.85,
0.324,-1.90,-0.79,-2.11,-0.55,-1.00,0.88,
0.326,-1.90,-0.79,-2.11,-0.56,-0.93,0.92,
0.328,-1.90,-0.79,-2.11,-0.56,-0.91,0.93,
0.33,-1.90,-0.79,-2.11,-0.56,-0.87,0.95,
0.333,-1.75,-0.96,-1.86,-0.56,-0.87,0.95,
0.333,-1.75,-0.96,-1.86,-0.56,-0.83,0.96,
0.335,-1.75,-0.96,-1.86,-0.56,-0.79,0.96,
0.337,-1.75,-0.96,-1.86,-0.57,-0.75,0.95,
0.338,-1.75,-0.96,-1.86,-0.58,-0.74,0.95,
0.34,-1.75,-0.96,-1.86,-0.58,-0.73,0.94,
0.343,-0.93,-1.17,-1.90,-0.58,-0.73,0.94,
0.343,-0.93,-1.17,-1.90,-0.59,-0.71,0.94,
0.344,-0.93,-1.17,-1.90,-0.59,-0.70,0.94,
0.347,-0.93,-1.17,-1.90,-0.60,-0.68,0.94,
0.349,-0.93,-1.17,-1.90,-0.60,-0.67,0.95,
0.35,-0.93,-1.17,-1.90,-0.60,-0.65,0.96,
0.352,-0.76,-1.33,-1.80,-0.60,-0.65,0.96,
0.353,-0.76,-1.33,-1.80,-0.61,-0.62,0.97,
0.354,-0.76,-1.33,-1.80,-0.62,-0.60,0.99,
0.357,-0.76,-1.33,-1.80,-0.63,-0.57,1.02,
0.357,-0.76,-1.33,-1.80,-0.64,-0.56,1.03,
0.36,-0.76,-1.33,-1.80,-0.65,-0.56,1.05,
0.363,-1.02,-1.30,-1.58,-0.65,-0.56,1.05,
0.363,-1.02,-1.30,-1.58,-0.66,-0.55,1.07,
0.365,-1.02,-1.30,-1.58,-0.67,-0.56,1.09,
0.367,-1.02,-1.30,-1.58,-0.69,-0.56,1.13,
0.368,-1.02,-1.30,-1.58,-0.70,-0.56,1.14,
0.37,-1.02,-1.30,-1.58,-0.71,-0.56,1.15,
0.372,-0.98,-1.24,-1.61,-0.71,-0.56,1.15,
0.372,-0.98,-1.24,-1.61,-0.73,-0.55,1.17,
0.374,-0.98,-1.24,-1.61,-0.74,-0.53,1.19,
0.377,-0.98,-1.24,-1.61,-0.76,-0.49,1.21,
0.378,-0.98,-1.24,-1.61,-0.77,-0.47,1.21,
0.38,-0.98,-1.24,-1.61,-0.78,-0.43,1.22,
0.385,-0.68,-1.12,-1.62,-0.78,-0.43,1.22,
0.386,-0.68,-1.12,-1.62,-0.79,-0.38,1.22,
0.387,-0.68,-1.12,-1.62,-0.80,-0.33,1.23,
0.387,-0.68,-1.12,-1.62,-0.82,-0.25,1.23,
0.388,-0.68,-1.12,-1.62,-0.83,-0.22,1.23,
0.39,-0.68,-1.12,-1.62,-0.85,-0.16,1.22,
0.393,-0.61,-0.86,-1.55,-0.85,-0.16,1.22,
0.393,-0.61,-0.86,-1.55,-0.87,-0.11,1.20,
0.394,-0.61,-0.86,-1.55,-0.89,-0.05,1.18,
0.422,-0.61,-0.86,-1.55,-0.91,0.02,1.15,
0.422,-0.61,-0.86,-1.55,-0.92,0.05,1.14,
0.422,-0.61,-0.86,-1.55,-0.94,0.11,1.10,
0.422,-1.01,-0.61,-1.43,-0.94,0.11,1.10,
0.423,-1.01,-0.61,-1.43,-0.96,0.17,1.06,
0.423,-1.01,-0.61,-1.43,-0.98,0.24,1.01,
0.423,-1.01,-0.61,-1.43,-1.01,0.33,0.91,
0.423,-1.01,-0.61,-1.43,-1.02,0.36,0.88,
0.423,-1.01,-0.61,-1.43,-1.04,0.40,0.81,
0.424,-1.08,-0.51,-1.30,-1.04,0.40,0.81,
0.424,-1.08,-0.51,-1.30,-1.07,0.45,0.72,
0.424,-1.08,-0.51,-1.30,-1.09,0.49,0.63,
0.424,-1.08,-0.51,-1.30,-1.14,0.56,0.48,
0.424,-1.08,-0.51,-1.30,-1.15,0.58,0.42,
0.425,-1.08,-0.51,-1.30,-1.18,0.63,0.32,
0.425,-0.84,-0.82,-1.14,-1.18,0.63,0.32,
0.425,-0.84,-0.82,-1.14,-1.20,0.68,0.22,
0.425,-0.84,-0.82,-1.14,-1.22,0.71,0.13,
0.437,-0.84,-0.82,-1.14,-1.24,0.74,0.01,
0.437,-0.84,-0.82,-1.14,-1.25,0.74,-0.02,
0.437,-0.84,-0.82,-1.14,-1.26,0.75,-0.08,
0.438,-0.75,-1.34,-0.32,-1.26,0.75,-0.08,
0.438,-0.75,-1.34,-0.32,-1.26,0.76,-0.11,
0.438,-0.75,-1.34,-0.32,-1.26,0.77,-0.13,
0.438,-0.75,-1.34,-0.32,-1.24,0.77,-0.12,
0.438,-0.75,-1.34,-0.32,-1.23,0.77,-0.12,
0.465,-0.75,-1.34,-0.32,-1.21,0.75,-0.10,
0.465,-1.38,-1.51,0.84,-1.21,0.75,-0.10,
0.465,-1.38,-1.51,0.84,-1.18,0.73,-0.07,
0.465,-1.38,-1.51,0.84,-1.14,0.70,-0.04,
0.466,-1.38,-1.51,0.84,-1.08,0.64,0.01,
0.466,-1.38,-1.51,0.84,-1.05,0.63,0.03,
0.466,-1.38,-1.51,0.84,-1.00,0.60,0.06,
0.466,-2.32,-1.94,1.77,-1.00,0.60,0.06,
0.466,-2.32,-1.94,1.77,-0.94,0.59,0.08,
0.466,-2.32,-1.94,1.77,-0.88,0.59,0.11,
0.466,-2.32,-1.94,1.77,-0.79,0.60,0.14,
0.467,-2.32,-1.94,1.77,-0.75,0.60,0.15,
0.467,-2.32,-1.94,1.77,-0.70,0.60,0.17,
0.467,-2.27,-2.09,1.92,-0.70,0.60,0.17,
0.467,-2.27,-2.09,1.92,-0.64,0.58,0.19,
0.467,-2.27,-2.09,1.92,-0.58,0.56,0.21,
0.467,-2.27,-2.09,1.92,-0.50,0.51,0.25,
0.47,-2.27,-2.09,1.92,-0.48,0.50,0.27,
0.471,-2.27,-2.09,1.92,-0.44,0.47,0.30,
0.472,-2.40,-2.72,1.84,-0.44,0.47,0.30,
0.472,-2.40,-2.72,1.84,-0.41,0.45,0.33,
0.474,-2.40,-2.72,1.84,-0.39,0.43,0.36,
0.476,-2.40,-2.72,1.84,-0.38,0.39,0.40,
0.477,-2.40,-2.72,1.84,-0.39,0.37,0.42,
0.479,-2.40,-2.72,1.84,-0.40,0.34,0.45,
0.483,-1.97,-3.12,0.53,-0.40,0.34,0.45,
0.483,-1.97,-3.12,0.53,-0.43,0.32,0.47,
0.484,-1.97,-3.12,0.53,-0.47,0.29,0.49,
0.487,-1.97,-3.12,0.53,-0.55,0.25,0.52,
0.487,-1.97,-3.12,0.53,-0.59,0.24,0.52,
0.489,-1.97,-3.12,0.53,-0.67,0.23,0.53,
0.492,-1.22,-3.60,-0.73,-0.67,0.23,0.53,
0.492,-1.22,-3.60,-0.73,-0.77,0.21,0.54,
0.493,-1.22,-3.60,-0.73,-0.89,0.17,0.55,
0.497,-1.22,-3.60,-0.73,-1.05,0.07,0.56,
0.497,-1.22,-3.60,-0.73,-1.10,0.03,0.56,
0.5,-1.22,-3.60,-0.73,-1.20,-0.03,0.55,
0.502,-0.62,-3.53,-2.35,-1.20,-0.03,0.55,
0.502,-0.62,-3.53,-2.35,-1.30,-0.07,0.55,
0.504,-0.62,-3.53,-2.35,-1.40,-0.08,0.54,
0.509,-0.62,-3.53,-2.35,-1.59,-0.02,0.54,
0.509,-0.62,-3.53,-2.35,-1.59,-0.02,0.54,
0.51,-0.62,-3.53,-2.35,-1.69,0.02,0.55,
0.512,-0.90,-3.70,-2.99,-1.69,0.02,0.55,
0.512,-0.90,-3.70,-2.99,-1.78,0.06,0.56,
0.515,-0.90,-3.70,-2.99,-1.86,0.10,0.57,
0.516,-0.90,-3.70,-2.99,-1.98,0.16,0.58,
0.518,-0.90,-3.70,-2.99,-2.01,0.18,0.59,
0.519,-0.90,-3.70,-2.99,-2.08,0.21,0.60,
0.522,-1.21,-3.75,-2.79,-2.08,0.21,0.60,
0.522,-1.21,-3.75,-2.79,-2.14,0.24,0.60,
0.524,-1.21,-3.75,-2.79,-2.19,0.28,0.61,
0.526,-1.21,-3.75,-2.79,-2.26,0.32,0.63,
0.527,-1.21,-3.75,-2.79,-2.28,0.33,0.63,
0.539,-1.21,-3.75,-2.79,-2.32,0.34,0.63,
0.54,-0.91,-4.13,-1.87,-2.32,0.34,0.63,
0.54,-0.91,-4.13,-1.87,-2.36,0.36,0.63,
0.54,-0.91,-4.13,-1.87,-2.39,0.37,0.62,
0.541,-0.91,-4.13,-1.87,-2.44,0.37,0.61,
0.541,-0.91,-4.13,-1.87,-2.45,0.37,0.60,
0.541,-0.91,-4.13,-1.87,-2.48,0.38,0.58,
0.543,0.00,-4.42,-1.11,-2.48,0.38,0.58,
0.543,0.00,-4.42,-1.11,-2.51,0.37,0.55,
0.568,0.00,-4.42,-1.11,-2.54,0.37,0.53,
0.569,0.00,-4.42,-1.11,-2.59,0.37,0.48,
0.569,0.00,-4.42,-1.11,-2.61,0.37,0.46,
0.57,0.00,-4.42,-1.11,-2.64,0.37,0.42,
0.57,1.11,-4.55,-0.75,-2.64,0.37,0.42,
0.57,1.11,-4.55,-0.75,-2.68,0.37,0.39,
0.571,1.11,-4.55,-0.75,-2.72,0.37,0.35,
0.571,1.11,-4.55,-0.75,-2.77,0.37,0.29,
0.571,1.11,-4.55,-0.75,-2.79,0.38,0.27,
0.572,1.11,-4.55,-0.75,-2.83,0.38,0.23,
0.572,1.81,-4.38,-0.68,-2.83,0.38,0.23,
0.594,1.81,-4.38,-0.68,-2.86,0.39,0.19,
0.594,1.81,-4.38,-0.68,-2.89,0.42,0.16,
0.595,1.81,-4.38,-0.68,-2.93,0.46,0.11,
0.595,1.81,-4.38,-0.68,-2.94,0.47,0.10,
0.595,1.81,-4.38,-0.68,-2.95,0.50,0.08,
0.595,1.88,-4.31,-0.22,-2.95,0.50,0.08,
0.596,1.88,-4.31,-0.22,-2.97,0.52,0.07,
0.596,1.88,-4.31,-0.22,-2.97,0.54,0.05,
0.597,1.88,-4.31,-0.22,-2.98,0.56,0.05,
0.597,1.88,-4.31,-0.22,-2.98,0.57,0.05,
0.597,1.88,-4.31,-0.22,-2.99,0.57,0.05,
0.6,1.47,-4.08,0.19,-2.99,0.57,0.05,
0.6,1.47,-4.08,0.19,-3.00,0.57,0.05,
0.6,1.47,-4.08,0.19,-3.00,0.57,0.04,
0.6,1.47,-4.08,0.19,-3.02,0.59,0.04,
0.6,1.47,-4.08,0.19,-3.03,0.59,0.03,
0.6,1.47,-4.08,0.19,-3.04,0.60,0.02,
0.601,1.88,-4.06,-0.28,-3.04,0.60,0.02,
0.601,1.88,-4.06,-0.28,-3.06,0.62,0.00,
0.601,1.88,-4.06,-0.28,-3.09,0.65,-0.02,
0.601,1.88,-4.06,-0.28,-3.13,0.69,-0.06,
0.601,1.88,-4.06,-0.28,-3.15,0.70,-0.07,
0.601,1.88,-4.06,-0.28,-3.18,0.73,-0.10,
0.606,2.70,-4.44,-0.92,-3.18,0.73,-0.10,
0.606,2.70,-4.44,-0.92,-3.22,0.75,-0.13,
0.606,2.70,-4.44,-0.92,-3.26,0.77,-0.17,
0.606,2.70,-4.44,-0.92,-3.33,0.79,-0.22,
0.609,2.70,-4.44,-0.92,-3.35,0.80,-0.24,
0.611,2.70,-4.44,-0.92,-3.40,0.80,-0.28,
0.612,3.15,-4.89,-1.42,-3.40,0.80,-0.28,
0.612,3.15,-4.89,-1.42,-3.45,0.80,-0.31,
0.615,3.15,-4.89,-1.42,-3.50,0.79,-0.35,
0.619,3.15,-4.89,-1.42,-3.57,0.78,-0.41,
0.619,3.15,-4.89,-1.42,-3.60,0.78,-0.43,
0.619,3.15,-4.89,-1.42,-3.65,0.77,-0.47,
0.624,3.30,-4.73,-1.41,-3.65,0.77,-0.47,
0.624,3.30,-4.73,-1.41,-3.70,0.77,-0.50,
0.624,3.30,-4.73,-1.41,-3.75,0.77,-0.53,
0.628,3.30,-4.73,-1.41,-3.83,0.77,-0.58,
0.628,3.30,-4.73,-1.41,-3.85,0.76,-0.60,
0.631,3.30,-4.73,-1.41,-3.90,0.76,-0.63,
0.633,3.58,-4.57,-1.15,-3.90,0.76,-0.63,
0.633,3.58,-4.57,-1.15,-3.95,0.76,-0.66,
0.634,3.58,-4.57,-1.15,-4.00,0.75,-0.70,
0.639,3.58,-4.57,-1.15,-4.06,0.75,-0.75,
0.639,3.58,-4.57,-1.15,-4.07,0.75,-0.76,
0.64,3.58,-4.57,-1.15,-4.11,0.74,-0.80,
0.642,3.73,-4.17,-0.16,-4.11,0.74,-0.80,
0.642,3.73,-4.17,-0.16,-4.13,0.73,-0.82,
0.644,3.73,-4.17,-0.16,-4.14,0.72,-0.85,
0.647,3.73,-4.17,-0.16,-4.16,0.72,-0.90,
0.648,3.73,-4.17,-0.16,-4.16,0.71,-0.91,
0.65,3.73,-4.17,-0.16,-4.16,0.71,-0.94,
0.652,3.83,-3.69,0.97,-4.16,0.71,-0.94,
0.652,3.83,-3.69,0.97,-4.16,0.69,-0.97,
0.653,3.83,-3.69,0.97,-4.15,0.65,-1.00,
0.657,3.83,-3.69,0.97,-4.14,0.57,-1.05,
0.658,3.83,-3.69,0.97,-4.13,0.55,-1.06,
0.66,3.83,-3.69,0.97,-4.11,0.49,-1.09,
0.664,4.37,-2.73,1.59,-4.11,0.49,-1.09,
0.664,4.37,-2.73,1.59,-4.09,0.45,-1.12,
0.664,4.37,-2.73,1.59,-4.08,0.41,-1.14,
0.67,4.37,-2.73,1.59,-4.06,0.36,-1.15,
0.671,4.37,-2.73,1.59,-4.06,0.35,-1.16,
0.673,4.37,-2.73,1.59,-4.05,0.31,-1.16,
0.679,4.50,-2.16,1.49,-4.05,0.31,-1.16,
0.68,4.50,-2.16,1.49,-4.05,0.30,-1.16,
0.68,4.50,-2.16,1.49,-4.04,0.26,-1.16,
0.68,4.50,-2.16,1.49,-4.04,0.20,-1.15,
0.68,4.50,-2.16,1.49,-4.04,0.18,-1.15,
0.68,4.50,-2.16,1.49,-4.03,0.13,-1.14,
0.693,4.49,-1.47,1.66,-4.03,0.13,-1.14,
0.693,4.49,-1.47,1.66,-4.02,0.08,-1.13,
0.693,4.49,-1.47,1.66,-4.01,0.03,-1.12,
0.693,4.49,-1.47,1.66,-4.00,-0.05,-1.10,
0.693,4.49,-1.47,1.66,-4.00,-0.07,-1.09,
0.693,4.49,-1.47,1.66,-3.99,-0.11,-1.07,
0.694,4.63,-0.80,1.91,-3.99,-0.11,-1.07,
0.694,4.63,-0.80,1.91,-3.99,-0.15,-1.05,
0.694,4.63,-0.80,1.91,-3.98,-0.19,-1.02,
0.702,4.63,-0.80,1.91,-3.98,-0.25,-0.98,
0.702,4.63,-0.80,1.91,-3.98,-0.28,-0.97,
0.703,4.63,-0.80,1.91,-3.98,-0.33,-0.93,
0.704,4.58,-0.34,1.92,-3.98,-0.33,-0.93,
0.705,4.58,-0.34,1.92,-3.98,-0.38,-0.90,
0.705,4.58,-0.34,1.92,-3.99,-0.44,-0.87,
0.707,4.58,-0.34,1.92,-3.99,-0.55,-0.84,
0.709,4.58,-0.34,1.92,-3.99,-0.58,-0.83,
0.71,4.58,-0.34,1.92,-3.99,-0.66,-0.81,
0.713,5.14,0.19,2.07,-3.99,-0.66,-0.81,
0.714,5.14,0.19,2.07,-4.00,-0.73,-0.79,
0.714,5.14,0.19,2.07,-4.00,-0.80,-0.78,
0.717,5.14,0.19,2.07,-4.01,-0.88,-0.76,
0.718,5.14,0.19,2.07,-4.01,-0.91,-0.76,
0.72,5.14,0.19,2.07,-4.01,-0.97,-0.75,
0.722,5.51,0.47,2.06,-4.01,-0.97,-0.75,
0.723,5.51,0.47,2.06,-4.01,-1.02,-0.74,
0.725,5.51,0.47,2.06,-4.01,-1.08,-0.73,
0.728,5.51,0.47,2.06,-4.00,-1.16,-0.71,
0.729,5.51,0.47,2.06,-4.00,-1.19,-0.70,
0.745,5.51,0.47,2.06,-3.99,-1.25,-0.69,
0.745,5.20,0.71,2.28,-3.99,-1.25,-0.69,
0.745,5.20,0.71,2.28,-3.98,-1.31,-0.68,
0.746,5.20,0.71,2.28,-3.97,-1.37,-0.67,
0.746,5.20,0.71,2.28,-3.94,-1.47,-0.65,
0.746,5.20,0.71,2.28,-3.93,-1.50,-0.65,
0.746,5.20,0.71,2.28,-3.91,-1.56,-0.64,
0.747,4.83,1.08,2.99,-3.91,-1.56,-0.64,
0.747,4.83,1.08,2.99,-3.88,-1.62,-0.64,
0.747,4.83,1.08,2.99,-3.85,-1.67,-0.64,
0.747,4.83,1.08,2.99,-3.80,-1.74,-0.65,
0.748,4.83,1.08,2.99,-3.78,-1.76,-0.66,
0.752,4.83,1.08,2.99,-3.74,-1.79,-0.67,
0.752,5.01,1.62,3.87,-3.74,-1.79,-0.67,
0.753,5.01,1.62,3.87,-3.70,-1.82,-0.69,
0.755,5.01,1.62,3.87,-3.66,-1.84,-0.71,
0.757,5.01,1.62,3.87,-3.59,-1.86,-0.74,
0.758,5.01,1.62,3.87,-3.58,-1.87,-0.75,
0.76,5.01,1.62,3.87,-3.53,-1.87,-0.78,
0.763,5.36,1.88,4.26,-3.53,-1.87,-0.78,
0.763,5.36,1.88,4.26,-3.49,-1.88,-0.81,
0.764,5.36,1.88,4.26,-3.45,-1.89,-0.85,
0.767,5.36,1.88,4.26,-3.39,-1.91,-0.91,
0.768,5.36,1.88,4.26,-3.37,-1.92,-0.93,
0.769,5.36,1.88,4.26,-3.33,-1.94,-0.97,
0.772,5.77,2.00,4.52,-3.33,-1.94,-0.97,
0.772,5.77,2.00,4.52,-3.29,-1.95,-1.02,
0.774,5.77,2.00,4.52,-3.25,-1.98,-1.07,
0.778,5.77,2.00,4.52,-3.21,-2.01,-1.15,
0.778,5.77,2.00,4.52,-3.20,-2.02,-1.17,
0.781,5.77,2.00,4.52,-3.17,-2.04,-1.23,
0.787,5.95,1.76,4.87,-3.17,-2.04,-1.23,
0.787,5.95,1.76,4.87,-3.15,-2.07,-1.28,
0.788,5.95,1.76,4.87,-3.14,-2.09,-1.33,
0.788,5.95,1.76,4.87,-3.13,-2.13,-1.40,
0.791,5.95,1.76,4.87,-3.13,-2.14,-1.42,
0.792,5.95,1.76,4.87,-3.13,-2.15,-1.46,
0.792,5.76,1.74,4.67,-3.13,-2.15,-1.46,
0.792,5.76,1.74,4.67,-3.14,-2.15,-1.50,
0.794,5.76,1.74,4.67,-3.16,-2.16,-1.54,
0.798,5.76,1.74,4.67,-3.18,-2.14,-1.59,
0.798,5.76,1.74,4.67,-3.19,-2.13,-1.60,
0.8,5.76,1.74,4.67,-3.21,-2.11,-1.63,
0.803,5.08,1.87,4.02,-3.21,-2.11,-1.63,
0.803,5.08,1.87,4.02,-3.24,-2.08,-1.64,
0.804,5.08,1.87,4.02,-3.26,-2.05,-1.65,
0.807,5.08,1.87,4.02,-3.29,-1.98,-1.66,
0.808,5.08,1.87,4.02,-3.30,-1.96,-1.66,
0.812,5.08,1.87,4.02,-3.32,-1.92,-1.66,
0.826,3.73,2.37,4.11,-3.32,-1.92,-1.66,
0.826,3.73,2.37,4.11,-3.32,-1.88,-1.65,
0.827,3.73,2.37,4.11,-3.32,-1.85,-1.64,
0.827,3.73,2.37,4.11,-3.31,-1.81,-1.62,
0.827,3.73,2.37,4.11,-3.31,-1.80,-1.62,
0.827,3.73,2.37,4.11,-3.29,-1.77,-1.61,
0.828,2.47,2.97,4.98,-3.29,-1.77,-1.61,
0.828,2.47,2.97,4.98,-3.27,-1.76,-1.60,
0.828,2.47,2.97,4.98,-3.25,-1.76,-1.59,
0.828,2.47,2.97,4.98,-3.20,-1.77,-1.59,
0.829,2.47,2.97,4.98,-3.19,-1.77,-1.59,
0.83,2.47,2.97,4.98,-3.15,-1.78,-1.58,
0.85,1.74,3.62,5.84,-3.15,-1.78,-1.58,
0.851,1.74,3.62,5.84,-3.11,-1.80,-1.58,
0.851,1.74,3.62,5.84,-3.06,-1.81,-1.58,
0.851,1.74,3.62,5.84,-2.98,-1.83,-1.57,
0.852,1.74,3.62,5.84,-2.95,-1.85,-1.56,
0.852,1.74,3.62,5.84,-2.89,-1.89,-1.56,
0.852,1.02,3.81,6.78,-2.89,-1.89,-1.56,
0.853,1.02,3.81,6.78,-2.83,-1.93,-1.55,
0.853,1.02,3.81,6.78,-2.76,-1.98,-1.55,
0.853,1.02,3.81,6.78,-2.66,-2.06,-1.55,
0.853,1.02,3.81,6.78,-2.62,-2.08,-1.55,
0.853,1.02,3.81,6.78,-2.55,-2.14,-1.56,
0.854,1.11,3.40,7.68,-2.55,-2.14,-1.56,
0.854,1.11,3.40,7.68,-2.47,-2.20,-1.56,
0.855,1.11,3.40,7.68,-2.41,-2.26,-1.57,
0.858,1.11,3.40,7.68,-2.30,-2.34,-1.58,
0.858,1.11,3.40,7.68,-2.27,-2.37,-1.59,
0.86,1.11,3.40,7.68,-2.20,-2.42,-1.60,
0.863,1.33,2.66,7.48,-2.20,-2.42,-1.60,
0.864,1.33,2.66,7.48,-2.14,-2.46,-1.61,
0.864,1.33,2.66,7.48,-2.08,-2.49,-1.62,
0.869,1.33,2.66,7.48,-2.00,-2.54,-1.64,
0.87,1.33,2.66,7.48,-1.97,-2.56,-1.64,
0.87,1.33,2.66,7.48,-1.92,-2.59,-1.66,
0.872,1.30,2.07,7.13,-1.92,-2.59,-1.66,
0.873,1.30,2.07,7.13,-1.88,-2.61,-1.67,
0.873,1.30,2.07,7.13,-1.83,-2.63,-1.67,
0.877,1.30,2.07,7.13,-1.77,-2.65,-1.67,
0.879,1.30,2.07,7.13,-1.75,-2.65,-1.67,
0.881,1.30,2.07,7.13,-1.71,-2.65,-1.66,
0.883,0.62,1.66,6.52,-1.71,-2.65,-1.66,
0.883,0.62,1.66,6.52,-1.67,-2.64,-1.66,
0.884,0.62,1.66,6.52,-1.63,-2.63,-1.64,
0.887,0.62,1.66,6.52,-1.57,-2.60,-1.62,
0.888,0.62,1.66,6.52,-1.55,-2.59,-1.62,
0.89,0.62,1.66,6.52,-1.51,-2.57,-1.60,
0.894,-0.86,2.26,6.45,-1.51,-2.57,-1.60,
0.894,-0.86,2.26,6.45,-1.47,-2.55,-1.59,
0.896,-0.86,2.26,6.45,-1.42,-2.53,-1.57,
0.923,-0.86,2.26,6.45,-1.34,-2.51,-1.55,
0.923,-0.86,2.26,6.45,-1.32,-2.50,-1.54,
0.924,-0.86,2.26,6.45,-1.26,-2.48,-1.52,
0.924,-2.16,2.85,6.45,-1.26,-2.48,-1.52,
0.924,-2.16,2.85,6.45,-1.21,-2.46,-1.50,
0.924,-2.16,2.85,6.45,-1.14,-2.44,-1.47,
0.924,-2.16,2.85,6.45,-1.04,-2.41,-1.42,
0.925,-2.16,2.85,6.45,-1.00,-2.39,-1.41,
0.925,-2.16,2.85,6.45,-0.92,-2.37,-1.37,
0.925,-3.70,3.38,7.08,-0.92,-2.37,-1.37,
0.925,-3.70,3.38,7.08,-0.84,-2.34,-1.33,
0.925,-3.70,3.38,7.08,-0.76,-2.32,-1.28,
0.926,-3.70,3.38,7.08,-0.62,-2.30,-1.21,
0.926,-3.70,3.38,7.08,-0.58,-2.29,-1.19,
0.926,-3.70,3.38,7.08,-0.49,-2.27,-1.14,
0.926,-5.16,3.82,7.24,-0.49,-2.27,-1.14,
0.927,-5.16,3.82,7.24,-0.40,-2.26,-1.08,
0.927,-5.16,3.82,7.24,-0.31,-2.25,-1.03,
0.927,-5.16,3.82,7.24,-0.17,-2.21,-0.95,
0.93,-5.16,3.82,7.24,-0.12,-2.20,-0.92,
0.93,-5.16,3.82,7.24,-0.02,-2.16,-0.86,
0.935,-6.11,4.08,7.25,-0.02,-2.16,-0.86,
0.936,-6.11,4.08,7.25,0.07,-2.12,-0.80,
0.936,-6.11,4.08,7.25,0.16,-2.05,-0.74,
0.937,-6.11,4.08,7.25,0.31,-1.94,-0.63,
0.94,-6.11,4.08,7.25,0.36,-1.90,-0.59,
0.941,-6.11,4.08,7.25,0.47,-1.81,-0.51,
0.944,-7.44,4.39,7.00,0.47,-1.81,-0.51,
0.945,-7.44,4.39,7.00,0.57,-1.72,-0.43,
0.945,-7.44,4.39,7.00,0.68,-1.64,-0.35,
0.956,-7.44,4.39,7.00,0.85,-1.54,-0.22,
0.956,-7.44,4.39,7.00,0.91,-1.51,-0.19,
0.957,-7.44,4.39,7.00,1.02,-1.45,-0.11,
0.957,-8.38,4.30,7.41,1.02,-1.45,-0.11,
0.957,-8.38,4.30,7.41,1.13,-1.41,-0.04,
0.958,-8.38,4.30,7.41,1.25,-1.38,0.02,
0.958,-8.38,4.30,7.41,1.42,-1.35,0.11,
0.958,-8.38,4.30,7.41,1.47,-1.35,0.13,
0.962,-8.38,4.30,7.41,1.58,-1.35,0.17,
0.987,-7.56,3.64,7.49,1.58,-1.35,0.17,
0.988,-7.56,3.64,7.49,1.69,-1.34,0.20,
0.988,-7.56,3.64,7.49,1.80,-1.34,0.22,
0.988,-7.56,3.64,7.49,1.95,-1.33,0.23,
0.988,-7.56,3.64,7.49,2.00,-1.32,0.23,
0.988,-7.56,3.64,7.49,2.09,-1.32,0.22,
0.988,-5.69,2.90,7.25,2.09,-1.32,0.22,
0.989,-5.69,2.90,7.25,2.17,-1.31,0.21,
0.989,-5.69,2.90,7.25,2.24,-1.31,0.20,
0.989,-5.69,2.90,7.25,2.33,-1.30,0.18,
0.989,-5.69,2.90,7.25,2.37,-1.28,0.17,
0.989,-5.69,2.90,7.25,2.38,-1.27,0.17,
0.99,-4.31,1.39,5.23,2.38,-1.27,0.17,
0.99,-4.31,1.39,5.23,2.41,-1.25,0.15,
0.99,-4.31,1.39,5.23,2.41,-1.23,0.14,
0.99,-4.31,1.39,5.23,2.40,-1.16,0.12,
0.99,-4.31,1.39,5.23,2.39,-1.13,0.10,
0.991,-4.31,1.39,5.23,2.37,-1.07,0.08,
0.992,-3.45,-1.45,2.64,2.37,-1.07,0.08,
0.992,-3.45,-1.45,2.64,2.34,-1.02,0.04,
0.995,-3.45,-1.45,2.64,2.30,-0.96,0.01,
0.997,-3.45,-1.45,2.64,2.21,-0.84,-0.07,
0.998,-3.45,-1.45,2.64,2.16,-0.80,-0.10,
1.0,-3.45,-1.45,2.64,2.06,-0.69,-0.17,
1.003,-2.28,-4.76,-0.71,2.06,-0.69,-0.17,
1.003,-2.28,-4.76,-0.71,1.94,-0.58,-0.25,
1.009,-2.28,-4.76,-0.71,1.80,-0.47,-0.33,
1.009,-2.28,-4.76,-0.71,1.58,-0.31,-0.45,
1.01,-2.28,-4.76,-0.71,1.44,-0.22,-0.53,
1.01,-2.28,-4.76,-0.71,1.30,-0.13,-0.62,
1.013,-2.25,-7.85,-4.29,1.30,-0.13,-0.62,
1.014,-2.25,-7.85,-4.29,1.23,-0.10,-0.66,
1.016,-2.25,-7.85,-4.29,1.11,-0.04,-0.73,
1.018,-2.25,-7.85,-4.29,0.96,0.03,-0.83,
1.019,-2.25,-7.85,-4.29,0.93,0.05,-0.86,
1.022,-2.25,-7.85,-4.29,0.85,0.09,-0.94,
1.023,-3.16,-7.89,-2.99,0.85,0.09,-0.94,
1.023,-3.16,-7.89,-2.99,0.84,0.10,-0.96,
1.024,-3.16,-7.89,-2.99,0.83,0.13,-1.00,
1.027,-3.16,-7.89,-2.99,0.86,0.18,-1.03,
1.028,-3.16,-7.89,-2.99,0.87,0.19,-1.04,
1.03,-3.16,-7.89,-2.99,0.92,0.24,-1.05,
1.034,-3.70,-6.30,-0.59,0.92,0.24,-1.05,
1.034,-3.70,-6.30,-0.59,0.98,0.29,-1.05,
1.034,-3.70,-6.30,-0.59,1.04,0.36,-1.04,
1.038,-3.70,-6.30,-0.59,1.15,0.47,-1.02,
1.04,-3.70,-6.30,-0.59,1.18,0.51,-1.01,
1.04,-3.70,-6.30,-0.59,1.26,0.60,-0.97,
1.043,-3.83,-3.35,0.36,1.26,0.60,-0.97,
1.043,-3.83,-3.35,0.36,1.33,0.69,-0.94,
1.045,-3.83,-3.35,0.36,1.40,0.77,-0.89,
1.047,-3.83,-3.35,0.36,1.51,0.87,-0.81,
1.048,-3.83,-3.35,0.36,1.54,0.90,-0.78,
1.051,-3.83,-3.35,0.36,1.59,0.93,-0.71,
1.052,-4.41,-0.55,0.74,1.59,0.93,-0.71,
1.053,-4.41,-0.55,0.74,1.64,0.93,-0.63,
1.054,-4.41,-0.55,0.74,1.68,0.89,-0.54,
1.057,-4.41,-0.55,0.74,1.72,0.77,-0.39,
1.058,-4.41,-0.55,0.74,1.72,0.71,-0.34,
1.063,-4.41,-0.55,0.74,1.72,0.58,-0.23,
1.063,-5.08,0.27,0.90,1.72,0.58,-0.23,
1.088,-5.08,0.27,0.90,1.72,0.43,-0.11,
1.088,-5.08,0.27,0.90,1.70,0.27,0.01,
1.088,-5.08,0.27,0.90,1.65,0.02,0.20,
1.089,-5.08,0.27,0.90,1.63,-0.05,0.27,
1.089,-5.08,0.27,0.90,1.60,-0.21,0.41,
1.089,-4.99,0.35,1.29,1.60,-0.21,0.41,
1.09,-4.99,0.35,1.29,1.57,-0.35,0.56,
1.09,-4.99,0.35,1.29,1.53,-0.48,0.71,
1.09,-4.99,0.35,1.29,1.49,-0.65,0.94,
1.091,-4.99,0.35,1.29,1.48,-0.70,1.02,
1.091,-4.99,0.35,1.29,1.46,-0.81,1.17,
1.091,-3.97,0.44,1.43,1.46,-0.81,1.17,
1.092,-3.97,0.44,1.43,1.46,-0.93,1.33,
1.092,-3.97,0.44,1.43,1.47,-1.06,1.48,
1.092,-3.97,0.44,1.43,1.50,-1.26,1.71,
1.092,-3.97,0.44,1.43,1.52,-1.33,1.79,
1.093,-3.97,0.44,1.43,1.55,-1.45,1.94,
1.093,-2.75,0.30,1.65,1.55,-1.45,1.94,
1.093,-2.75,0.30,1.65,1.59,-1.56,2.07,
1.1,-2.75,0.30,1.65,1.63,-1.65,2.21,
1.101,-2.75,0.30,1.65,1.71,-1.75,2.40,
1.101,-2.75,0.30,1.65,1.74,-1.78,2.46,
1.101,-2.75,0.30,1.65,1.81,-1.83,2.58,
1.103,-1.97,0.38,1.78,1.81,-1.83,2.58,
1.103,-1.97,0.38,1.78,1.88,-1.88,2.70,
1.106,-1.97,0.38,1.78,1.95,-1.94,2.80,
1.109,-1.97,0.38,1.78,2.05,-2.01,2.94,
1.109,-1.97,0.38,1.78,2.08,-2.04,2.98,
1.11,-1.97,0.38,1.78,2.14,-2.09,3.05,
1.112,-0.70,0.80,1.40,2.14,-2.09,3.05,
1.112,-0.70,0.80,1.40,2.18,-2.12,3.10,
1.114,-0.70,0.80,1.40,2.21,-2.14,3.14,
1.118,-0.70,0.80,1.40,2.23,-2.15,3.15,
1.118,-0.70,0.80,1.40,2.24,-2.15,3.15,
1.12,-0.70,0.80,1.40,2.24,-2.13,3.12,
1.122,1.81,0.07,-0.13,2.24,-2.13,3.12,
1.123,1.81,0.07,-0.13,2.23,-2.11,3.07,
1.124,1.81,0.07,-0.13,2.22,-2.11,3.01,
1.133,1.81,0.07,-0.13,2.20,-2.10,2.89,
1.133,1.81,0.07,-0.13,2.19,-2.11,2.85,
1.133,1.81,0.07,-0.13,2.17,-2.11,2.74,
1.134,3.90,-1.53,-1.10,2.17,-2.11,2.74,
1.134,3.90,-1.53,-1.10,2.14,-2.10,2.62,
1.134,3.90,-1.53,-1.10,2.10,-2.10,2.49,
1.164,3.90,-1.53,-1.10,2.04,-2.06,2.26,
1.165,3.90,-1.53,-1.10,2.02,-2.04,2.18,
1.165,3.90,-1.53,-1.10,1.97,-2.01,2.02,
1.165,5.54,-2.40,-2.26,1.97,-2.01,2.02,
1.165,5.54,-2.40,-2.26,1.92,-1.96,1.85,
1.166,5.54,-2.40,-2.26,1.86,-1.89,1.68,
1.166,5.54,-2.40,-2.26,1.77,-1.77,1.43,
1.166,5.54,-2.40,-2.26,1.74,-1.72,1.35,
1.166,5.54,-2.40,-2.26,1.67,-1.62,1.19,
1.166,5.77,-2.41,-3.62,1.67,-1.62,1.19,
1.167,5.77,-2.41,-3.62,1.60,-1.50,1.04,
1.167,5.77,-2.41,-3.62,1.53,-1.38,0.89,
1.167,5.77,-2.41,-3.62,1.42,-1.19,0.67,
1.167,5.77,-2.41,-3.62,1.39,-1.13,0.61,
1.167,5.77,-2.41,-3.62,1.31,-1.01,0.48,
1.168,4.66,-2.05,-4.03,1.31,-1.01,0.48,
1.168,4.66,-2.05,-4.03,1.25,-0.89,0.36,
1.168,4.66,-2.05,-4.03,1.18,-0.79,0.25,
1.168,4.66,-2.05,-4.03,1.09,-0.66,0.10,
1.168,4.66,-2.05,-4.03,1.07,-0.63,0.05,
1.172,4.66,-2.05,-4.03,1.02,-0.56,-0.03,
1.172,2.97,-1.54,-3.12,1.02,-0.56,-0.03,
1.172,2.97,-1.54,-3.12,0.98,-0.51,-0.10,
1.174,2.97,-1.54,-3.12,0.94,-0.48,-0.15,
1.177,2.97,-1.54,-3.12,0.89,-0.44,-0.21,
1.178,2.97,-1.54,-3.12,0.87,-0.43,-0.22,
1.181,2.97,-1.54,-3.12,0.84,-0.42,-0.23,
1.183,1.22,-0.77,-2.09,0.84,-0.42,-0.23,
1.183,1.22,-0.77,-2.09,0.81,-0.40,-0.24,
1.186,1.22,-0.77,-2.09,0.79,-0.39,-0.22,
1.189,1.22,-0.77,-2.09,0.76,-0.37,-0.18,
1.19,1.22,-0.77,-2.09,0.75,-0.37,-0.16,
1.19,1.22,-0.77,-2.09,0.73,-0.37,-0.11,
1.192,-0.07,0.26,-1.58,0.73,-0.37,-0.11,
1.194,-0.07,0.26,-1.58,0.72,-0.38,-0.06,
1.194,-0.07,0.26,-1.58,0.72,-0.40,-0.01,
1.197,-0.07,0.26,-1.58,0.72,-0.43,0.07,
1.197,-0.07,0.26,-1.58,0.72,-0.44,0.09,
1.2,-0.07,0.26,-1.58,0.72,-0.46,0.14,
1.207,0.19,1.10,-0.96,0.72,-0.46,0.14,
1.207,0.19,1.10,-0.96,0.73,-0.50,0.19,
1.208,0.19,1.10,-0.96,0.74,-0.54,0.23,
1.208,0.19,1.10,-0.96,0.76,-0.60,0.30,
1.208,0.19,1.10,-0.96,0.77,-0.62,0.32,
1.211,0.19,1.10,-0.96,0.79,-0.67,0.37,
1.214,0.59,1.70,-0.13,0.79,-0.67,0.37,
1.214,0.59,1.70,-0.13,0.82,-0.72,0.41,
1.214,0.59,1.70,-0.13,0.84,-0.78,0.46,
1.218,0.59,1.70,-0.13,0.89,-0.88,0.53,
1.222,0.59,1.70,-0.13,0.91,-0.91,0.55,
1.223,0.59,1.70,-0.13,0.96,-0.98,0.60,
1.223,0.38,1.82,0.92,0.96,-0.98,0.60,
1.223,0.38,1.82,0.92,1.01,-1.05,0.65,
1.225,0.38,1.82,0.92,1.06,-1.13,0.69,
1.233,0.38,1.82,0.92,1.16,-1.23,0.76,
1.234,0.38,1.82,0.92,1.19,-1.27,0.78,
1.256,0.38,1.82,0.92,1.26,-1.34,0.83,
1.256,0.02,1.93,2.13,1.26,-1.34,0.83,
1.256,0.02,1.93,2.13,1.34,-1.42,0.88,
1.257,0.02,1.93,2.13,1.41,-1.49,0.93,
1.257,0.02,1.93,2.13,1.54,-1.59,1.00,
1.257,0.02,1.93,2.13,1.58,-1.62,1.02,
1.257,0.02,1.93,2.13,1.67,-1.69,1.06,
1.258,-0.70,1.50,2.73,1.67,-1.69,1.06,
1.258,-0.70,1.50,2.73,1.76,-1.75,1.11,
1.258,-0.70,1.50,2.73,1.85,-1.82,1.15,
1.258,-0.70,1.50,2.73,1.97,-1.93,1.20,
1.259,-0.70,1.50,2.73,2.02,-1.97,1.21,
1.259,-0.70,1.50,2.73,2.10,-2.04,1.23,
1.259,-0.62,0.89,2.95,2.10,-2.04,1.23,
1.26,-0.62,0.89,2.95,2.18,-2.11,1.24,
1.26,-0.62,0.89,2.95,2.26,-2.17,1.26,
1.26,-0.62,0.89,2.95,2.36,-2.26,1.27,
1.265,-0.62,0.89,2.95,2.40,-2.28,1.28,
1.265,-0.62,0.89,2.95,2.46,-2.32,1.29,
1.265,-0.65,0.11,2.77,2.46,-2.32,1.29,
1.266,-0.65,0.11,2.77,2.52,-2.35,1.30,
1.266,-0.65,0.11,2.77,2.57,-2.36,1.31,
1.268,-0.65,0.11,2.77,2.64,-2.38,1.32,
1.269,-0.65,0.11,2.77,2.66,-2.38,1.32,
1.271,-0.65,0.11,2.77,2.69,-2.38,1.33,
1.275,-0.86,-1.03,1.93,2.69,-2.38,1.33,
1.275,-0.86,-1.03,1.93,2.71,-2.37,1.33,
1.276,-0.86,-1.03,1.93,2.72,-2.36,1.33,
1.277,-0.86,-1.03,1.93,2.73,-2.35,1.33,
1.278,-0.86,-1.03,1.93,2.73,-2.35,1.33,
1.28,-0.86,-1.03,1.93,2.72,-2.34,1.32,
1.283,-1.34,-2.00,1.02,2.72,-2.34,1.32,
1.283,-1.34,-2.00,1.02,2.71,-2.34,1.31,
1.285,-1.34,-2.00,1.02,2.70,-2.33,1.29,
1.287,-1.34,-2.00,1.02,2.66,-2.32,1.28,
1.288,-1.34,-2.00,1.02,2.64,-2.32,1.27,
1.289,-1.34,-2.00,1.02,2.61,-2.31,1.25,
1.294,-1.88,-2.63,0.36,2.61,-2.31,1.25,
1.294,-1.88,-2.63,0.36,2.56,-2.30,1.24,
1.295,-1.88,-2.63,0.36,2.51,-2.28,1.23,
1.297,-1.88,-2.63,0.36,2.44,-2.25,1.21,
1.298,-1.88,-2.63,0.36,2.42,-2.24,1.20,
1.3,-1.88,-2.63,0.36,2.36,-2.23,1.20,
1.302,-2.68,-2.52,-0.34,2.36,-2.23,1.20,
1.303,-2.68,-2.52,-0.34,2.31,-2.20,1.19,
1.304,-2.68,-2.52,-0.34,2.25,-2.15,1.19,
1.308,-2.68,-2.52,-0.34,2.17,-2.09,1.19,
1.31,-2.68,-2.52,-0.34,2.14,-2.06,1.20,
1.31,-2.68,-2.52,-0.34,2.10,-1.99,1.20,
1.312,-3.49,-2.03,-0.88,2.10,-1.99,1.20,
1.313,-3.49,-2.03,-0.88,2.05,-1.91,1.21,
1.314,-3.49,-2.03,-0.88,2.00,-1.84,1.23,
1.317,-3.49,-2.03,-0.88,1.94,-1.72,1.25,
1.318,-3.49,-2.03,-0.88,1.91,-1.67,1.26,
1.319,-3.49,-2.03,-0.88,1.86,-1.59,1.28,
1.324,-4.17,-1.24,-1.47,1.86,-1.59,1.28,
1.324,-4.17,-1.24,-1.47,1.81,-1.51,1.31,
1.324,-4.17,-1.24,-1.47,1.76,-1.44,1.34,
1.327,-4.17,-1.24,-1.47,1.68,-1.34,1.39,
1.328,-4.17,-1.24,-1.47,1.66,-1.31,1.42,
1.33,-4.17,-1.24,-1.47,1.60,-1.24,1.46,
1.332,-4.56,-0.82,-2.22,1.60,-1.24,1.46,
1.332,-4.56,-0.82,-2.22,1.55,-1.17,1.50,
1.334,-4.56,-0.82,-2.22,1.50,-1.10,1.55,
1.337,-4.56,-0.82,-2.22,1.42,-1.00,1.64,
1.337,-4.56,-0.82,-2.22,1.39,-0.96,1.67,
1.34,-4.56,-0.82,-2.22,1.34,-0.90,1.73,
1.346,-4.43,-0.28,-2.69,1.34,-0.90,1.73,
1.346,-4.43,-0.28,-2.69,1.29,-0.85,1.80,
1.346,-4.43,-0.28,-2.69,1.23,-0.81,1.87,
1.346,-4.43,-0.28,-2.69,1.12,-0.83,1.97,
1.348,-4.43,-0.28,-2.69,1.09,-0.86,2.00,
1.35,-4.43,-0.28,-2.69,1.02,-0.91,2.05,
1.352,-3.71,-0.14,-3.04,1.02,-0.91,2.05,
1.352,-3.71,-0.14,-3.04,0.95,-0.95,2.10,
1.354,-3.71,-0.14,-3.04,0.88,-0.99,2.14,
1.357,-3.71,-0.14,-3.04,0.77,-1.03,2.18,
1.358,-3.71,-0.14,-3.04,0.73,-1.05,2.20,
1.36,-3.71,-0.14,-3.04,0.65,-1.09,2.21,
1.362,-1.30,-1.01,-2.67,0.65,-1.09,2.21,
1.362,-1.30,-1.01,-2.67,0.56,-1.13,2.22,
1.364,-1.30,-1.01,-2.67,0.47,-1.18,2.22,
1.366,-1.30,-1.01,-2.67,0.32,-1.23,2.21,
1.367,-1.30,-1.01,-2.67,0.28,-1.24,2.20,
1.37,-1.30,-1.01,-2.67,0.13,-1.26,2.17,
1.372,0.44,-2.13,-2.97,0.13,-1.26,2.17,
1.372,0.44,-2.13,-2.97,0.08,-1.25,2.16,
1.374,0.44,-2.13,-2.97,-0.01,-1.23,2.13,
1.376,0.44,-2.13,-2.97,-0.14,-1.17,2.08,
1.378,0.44,-2.13,-2.97,-0.18,-1.14,2.07,
1.38,0.44,-2.13,-2.97,-0.27,-1.09,2.03,
1.382,1.45,-2.46,-2.87,-0.27,-1.09,2.03,
1.382,1.45,-2.46,-2.87,-0.35,-1.04,1.99,
1.384,1.45,-2.46,-2.87,-0.42,-0.98,1.95,
1.386,1.45,-2.46,-2.87,-0.53,-0.89,1.90,
1.387,1.45,-2.46,-2.87,-0.57,-0.86,1.88,
1.389,1.45,-2.46,-2.87,-0.63,-0.79,1.85,
1.392,1.67,-2.06,-2.79,-0.63,-0.79,1.85,
1.392,1.67,-2.06,-2.79,-0.68,-0.71,1.82,
1.394,1.67,-2.06,-2.79,-0.73,-0.62,1.80,
1.404,1.67,-2.06,-2.79,-0.78,-0.51,1.77,
1.404,1.67,-2.06,-2.79,-0.80,-0.48,1.77,
1.405,1.67,-2.06,-2.79,-0.81,-0.42,1.77,
1.405,0.90,-1.11,-1.82,-0.81,-0.42,1.77,
1.405,0.90,-1.11,-1.82,-0.82,-0.37,1.77,
1.405,0.90,-1.11,-1.82,-0.81,-0.32,1.78,
1.406,0.90,-1.11,-1.82,-0.78,-0.26,1.82,
1.407,0.90,-1.11,-1.82,-0.77,-0.25,1.84,
1.409,0.90,-1.11,-1.82,-0.73,-0.22,1.87,
1.412,0.16,0.28,-0.15,-0.73,-0.22,1.87,
1.413,0.16,0.28,-0.15,-0.68,-0.20,1.92,
1.414,0.16,0.28,-0.15,-0.63,-0.19,1.97,
1.416,0.16,0.28,-0.15,-0.53,-0.19,2.07,
1.418,0.16,0.28,-0.15,-0.49,-0.20,2.10,
1.419,0.16,0.28,-0.15,-0.42,-0.22,2.17,
1.422,-0.84,1.30,1.48,-0.42,-0.22,2.17,
1.422,-0.84,1.30,1.48,-0.33,-0.27,2.25,
1.424,-0.84,1.30,1.48,-0.25,-0.32,2.32,
1.427,-0.84,1.30,1.48,-0.11,-0.40,2.45,
1.427,-0.84,1.30,1.48,-0.07,-0.44,2.49,
1.43,-0.84,1.30,1.48,0.03,-0.52,2.58,
1.432,-1.67,1.43,2.54,0.03,-0.52,2.58,
1.432,-1.67,1.43,2.54,0.12,-0.60,2.67,
1.434,-1.67,1.43,2.54,0.21,-0.68,2.75,
1.436,-1.67,1.43,2.54,0.34,-0.84,2.88,
1.437,-1.67,1.43,2.54,0.42,-0.96,2.96,
1.439,-1.67,1.43,2.54,0.47,-1.02,3.00,
1.442,-1.86,0.83,2.54,0.47,-1.02,3.00,
1.443,-1.86,0.83,2.54,0.55,-1.13,3.06,
1.444,-1.86,0.83,2.54,0.62,-1.22,3.11,
1.447,-1.86,0.83,2.54,0.73,-1.31,3.17,
1.448,-1.86,0.83,2.54,0.76,-1.34,3.19,
1.449,-1.86,0.83,2.54,0.81,-1.39,3.22,
1.452,-1.52,-0.36,1.42,0.81,-1.39,3.22,
1.452,-1.52,-0.36,1.42,0.86,-1.44,3.24,
1.453,-1.52,-0.36,1.42,0.90,-1.48,3.25,
1.456,-1.52,-0.36,1.42,0.94,-1.54,3.25,
1.458,-1.52,-0.36,1.42,0.95,-1.55,3.24,
1.459,-1.52,-0.36,1.42,0.95,-1.59,3.23,
1.462,-1.46,-1.52,-0.13,0.95,-1.59,3.23,
1.463,-1.46,-1.52,-0.13,0.94,-1.61,3.20,
1.464,-1.46,-1.52,-0.13,0.93,-1.60,3.16,
1.466,-1.46,-1.52,-0.13,0.89,-1.54,3.09,
1.468,-1.46,-1.52,-0.13,0.88,-1.50,3.06,
1.47,-1.46,-1.52,-0.13,0.85,-1.41,3.00,
1.473,-1.44,-1.69,-1.97,0.85,-1.41,3.00,
1.473,-1.44,-1.69,-1.97,0.82,-1.31,2.94,
1.475,-1.44,-1.69,-1.97,0.78,-1.21,2.87,
1.478,-1.44,-1.69,-1.97,0.71,-1.04,2.75,
1.48,-1.44,-1.69,-1.97,0.68,-0.98,2.71,
1.482,-1.44,-1.69,-1.97,0.63,-0.86,2.63,
1.482,-1.51,-1.59,-3.26,0.63,-0.86,2.63,
1.482,-1.51,-1.59,-3.26,0.58,-0.73,2.56,
1.484,-1.51,-1.59,-3.26,0.53,-0.59,2.48,
1.487,-1.51,-1.59,-3.26,0.46,-0.36,2.38,
1.488,-1.51,-1.59,-3.26,0.41,-0.20,2.31,
1.49,-1.51,-1.59,-3.26,0.39,-0.12,2.28,
1.493,-1.70,-1.41,-3.79,0.39,-0.12,2.28,
1.494,-1.70,-1.41,-3.79,0.35,0.05,2.21,
1.495,-1.70,-1.41,-3.79,0.31,0.22,2.16,
1.497,-1.70,-1.41,-3.79,0.26,0.49,2.07,
1.498,-1.70,-1.41,-3.79,0.25,0.57,2.05,
1.5,-1.70,-1.41,-3.79,0.22,0.74,2.00,
1.502,-1.68,-1.03,-3.20,0.22,0.74,2.00,
1.502,-1.68,-1.03,-3.20,0.20,0.91,1.96,
1.504,-1.68,-1.03,-3.20,0.19,1.06,1.92,
1.52,-1.68,-1.03,-3.20,0.18,1.35,1.85,
1.521,-1.68,-1.03,-3.20,0.18,1.35,1.85,
1.521,-1.68,-1.03,-3.20,0.21,1.53,1.82,
1.521,-1.67,-0.66,-1.70,0.21,1.53,1.82,
1.522,-1.67,-0.66,-1.70,0.22,1.59,1.80,
1.522,-1.67,-0.66,-1.70,0.25,1.68,1.78,
1.523,-1.67,-0.66,-1.70,0.31,1.79,1.76,
1.523,-1.67,-0.66,-1.70,0.34,1.81,1.75,
1.523,-1.67,-0.66,-1.70,0.39,1.85,1.74,
1.556,-1.27,-0.34,0.30,0.39,1.85,1.74,
1.556,-1.27,-0.34,0.30,0.46,1.87,1.72,
1.557,-1.27,-0.34,0.30,0.53,1.87,1.71,
1.557,-1.27,-0.34,0.30,0.64,1.84,1.70,
1.557,-1.27,-0.34,0.30,0.68,1.82,1.69,
1.557,-1.27,-0.34,0.30,0.76,1.76,1.68,
1.558,-0.37,-0.14,2.05,0.76,1.76,1.68,
1.558,-0.37,-0.14,2.05,0.85,1.69,1.66,
1.558,-0.37,-0.14,2.05,0.94,1.61,1.64,
1.559,-0.37,-0.14,2.05,1.07,1.46,1.62,
1.559,-0.37,-0.14,2.05,1.11,1.40,1.61,
1.559,-0.37,-0.14,2.05,1.19,1.29,1.60,
1.56,0.60,0.07,2.64,1.19,1.29,1.60,
1.56,0.60,0.07,2.64,1.27,1.17,1.58,
1.56,0.60,0.07,2.64,1.34,1.04,1.57,
1.56,0.60,0.07,2.64,1.44,0.84,1.56,
1.561,0.60,0.07,2.64,1.47,0.78,1.56,
1.561,0.60,0.07,2.64,1.53,0.65,1.55,
1.561,0.78,0.58,2.12,1.53,0.65,1.55,
1.562,0.78,0.58,2.12,1.58,0.53,1.55,
1.562,0.78,0.58,2.12,1.63,0.42,1.55,
1.562,0.78,0.58,2.12,1.69,0.26,1.56,
1.562,0.78,0.58,2.12,1.72,0.21,1.56,
1.563,0.78,0.58,2.12,1.75,0.13,1.57,
1.563,0.14,1.20,1.47,1.75,0.13,1.57,
1.589,0.14,1.20,1.47,1.78,0.06,1.58,
1.589,0.14,1.20,1.47,1.81,0.00,1.60,
1.59,0.14,1.20,1.47,1.85,-0.09,1.62,
1.59,0.14,1.20,1.47,1.87,-0.15,1.65,
1.59,0.14,1.20,1.47,1.88,-0.18,1.66,
1.591,-0.82,2.01,1.01,1.88,-0.18,1.66,
1.591,-0.82,2.01,1.01,1.89,-0.23,1.68,
1.592,-0.82,2.01,1.01,1.90,-0.30,1.71,
1.592,-0.82,2.01,1.01,1.91,-0.43,1.74,
1.592,-0.82,2.01,1.01,1.91,-0.48,1.74,
1.593,-0.82,2.01,1.01,1.92,-0.58,1.76,
1.593,-1.61,2.59,0.74,1.92,-0.58,1.76,
1.594,-1.61,2.59,0.74,1.92,-0.68,1.77,
1.594,-1.61,2.59,0.74,1.91,-0.80,1.79,
1.595,-1.61,2.59,0.74,1.90,-0.97,1.80,
1.595,-1.61,2.59,0.74,1.89,-1.09,1.81,
1.595,-1.61,2.59,0.74,1.88,-1.14,1.82,
1.596,-2.21,2.94,0.83,1.88,-1.14,1.82,
1.596,-2.21,2.94,0.83,1.86,-1.25,1.82,
1.597,-2.21,2.94,0.83,1.84,-1.35,1.83,
1.597,-2.21,2.94,0.83,1.79,-1.48,1.84,
1.597,-2.21,2.94,0.83,1.77,-1.51,1.85,
1.606,-2.21,2.94,0.83,1.73,-1.59,1.85,
1.606,-2.64,2.90,0.85,1.73,-1.59,1.85,
1.607,-2.64,2.90,0.85,1.67,-1.65,1.86,
1.607,-2.64,2.90,0.85,1.61,-1.71,1.87,
1.608,-2.64,2.90,0.85,1.49,-1.79,1.88,
1.614,-2.64,2.90,0.85,1.45,-1.81,1.88,
1.615,-2.64,2.90,0.85,1.36,-1.86,1.88,
1.615,-2.82,2.71,0.50,1.36,-1.86,1.88,
1.615,-2.82,2.71,0.50,1.19,-1.95,1.89,
1.615,-2.82,2.71,0.50,1.06,-2.02,1.89,
1.617,-2.82,2.71,0.50,0.93,-2.09,1.89,
1.617,-2.82,2.71,0.50,0.78,-2.17,1.90,
1.62,-2.82,2.71,0.50,0.71,-2.21,1.90,
1.622,-2.52,2.54,-0.42,0.71,-2.21,1.90,
1.623,-2.52,2.54,-0.42,0.47,-2.31,1.90,
1.635,-2.52,2.54,-0.42,0.31,-2.37,1.91,
1.635,-2.52,2.54,-0.42,0.16,-2.41,1.93,
1.636,-2.52,2.54,-0.42,0.00,-2.44,1.95,
1.636,-2.52,2.54,-0.42,-0.07,-2.45,1.97,
1.636,-2.54,2.70,-1.16,-0.07,-2.45,1.97,
1.636,-2.54,2.70,-1.16,-0.28,-2.47,2.02,
1.637,-2.54,2.70,-1.16,-0.41,-2.49,2.06,
1.64,-2.54,2.70,-1.16,-0.52,-2.51,2.10,
1.641,-2.54,2.70,-1.16,-0.62,-2.52,2.15,
1.641,-2.54,2.70,-1.16,-0.71,-2.54,2.20,
1.66,-2.59,3.12,-0.94,-0.71,-2.54,2.20,
1.661,-2.59,3.12,-0.94,-0.78,-2.55,2.25,
1.661,-2.59,3.12,-0.94,-0.84,-2.56,2.30,
1.661,-2.59,3.12,-0.94,-0.87,-2.57,2.35,
1.662,-2.59,3.12,-0.94,-0.90,-2.56,2.41,
1.662,-2.59,3.12,-0.94,-0.90,-2.55,2.46,
1.662,-2.34,3.41,0.50,-0.90,-2.55,2.46,
1.662,-2.34,3.41,0.50,-0.89,-2.52,2.51,
1.663,-2.34,3.41,0.50,-0.87,-2.50,2.56,
1.663,-2.34,3.41,0.50,-0.83,-2.44,2.61,
1.663,-2.34,3.41,0.50,-0.77,-2.34,2.63,
1.663,-2.34,3.41,0.50,-0.68,-2.18,2.64,
1.664,-1.73,3.33,1.36,-0.68,-2.18,2.64,
1.664,-1.73,3.33,1.36,-0.55,-1.97,2.62,
1.664,-1.73,3.33,1.36,-0.42,-1.73,2.59,
1.666,-1.73,3.33,1.36,-0.28,-1.49,2.53,
1.667,-1.73,3.33,1.36,-0.15,-1.25,2.49,
1.669,-1.73,3.33,1.36,-0.04,-1.05,2.46,
1.672,-0.62,2.52,1.05,-0.04,-1.05,2.46,
1.672,-0.62,2.52,1.05,0.04,-0.87,2.46,
1.674,-0.62,2.52,1.05,0.10,-0.73,2.48,
1.678,-0.62,2.52,1.05,0.14,-0.61,2.52,
1.679,-0.62,2.52,1.05,0.16,-0.51,2.58,
1.68,-0.62,2.52,1.05,0.15,-0.42,2.65,
1.682,-1.27,2.24,-0.45,0.15,-0.42,2.65,
1.682,-1.27,2.24,-0.45,0.13,-0.35,2.74,
1.684,-1.27,2.24,-0.45,0.11,-0.31,2.84,
1.686,-1.27,2.24,-0.45,0.03,-0.29,2.99,
1.687,-1.27,2.24,-0.45,0.00,-0.29,3.05,
1.689,-1.27,2.24,-0.45,-0.06,-0.31,3.15,
1.692,-2.15,2.41,-1.62,-0.06,-0.31,3.15,
1.693,-2.15,2.41,-1.62,-0.14,-0.36,3.26,
1.696,-2.15,2.41,-1.62,-0.22,-0.45,3.37,
1.698,-2.15,2.41,-1.62,-0.30,-0.55,3.48,
1.699,-2.15,2.41,-1.62,-0.40,-0.68,3.58,
1.699,-2.15,2.41,-1.62,-0.50,-0.82,3.68,
1.704,-2.54,3.40,-2.44,-0.50,-0.82,3.68,
1.704,-2.54,3.40,-2.44,-0.60,-0.96,3.77,
1.704,-2.54,3.40,-2.44,-0.69,-1.10,3.84,
1.708,-2.54,3.40,-2.44,-0.78,-1.24,3.90,
1.708,-2.54,3.40,-2.44,-0.87,-1.37,3.96,
1.71,-2.54,3.40,-2.44,-0.96,-1.49,4.00,
1.713,-2.38,4.51,-3.12,-0.96,-1.49,4.00,
1.713,-2.38,4.51,-3.12,-1.04,-1.61,4.04,
1.714,-2.38,4.51,-3.12,-1.12,-1.71,4.07,
1.717,-2.38,4.51,-3.12,-1.19,-1.80,4.09,
1.718,-2.38,4.51,-3.12,-1.26,-1.88,4.11,
1.723,-2.38,4.51,-3.12,-1.33,-1.95,4.12,
1.723,-2.02,5.58,-3.29,-1.33,-1.95,4.12,
1.725,-2.02,5.58,-3.29,-1.39,-2.01,4.13,
1.729,-2.02,5.58,-3.29,-1.44,-2.05,4.13,
1.73,-2.02,5.58,-3.29,-1.50,-2.07,4.12,
1.731,-2.02,5.58,-3.29,-1.54,-2.08,4.12,
1.744,-2.02,5.58,-3.29,-1.58,-2.08,4.10,
1.744,-1.59,6.33,-3.14,-1.58,-2.08,4.10,
1.745,-1.59,6.33,-3.14,-1.60,-2.06,4.09,
1.745,-1.59,6.33,-3.14,-1.62,-2.02,4.08,
1.745,-1.59,6.33,-3.14,-1.62,-1.93,4.07,
1.745,-1.59,6.33,-3.14,-1.61,-1.89,4.07,
1.745,-1.59,6.33,-3.14,-1.58,-1.77,4.06,
1.745,-1.45,6.55,-1.10,-1.58,-1.77,4.06,
1.745,-1.45,6.55,-1.10,-1.50,-1.57,4.06,
1.746,-1.45,6.55,-1.10,-1.37,-1.28,4.06,
1.748,-1.45,6.55,-1.10,-1.23,-0.95,4.06,
1.748,-1.45,6.55,-1.10,-1.08,-0.60,4.07,
1.75,-1.45,6.55,-1.10,-0.95,-0.26,4.08,
1.752,-1.54,5.64,3.61,-0.95,-0.26,4.08,
1.752,-1.54,5.64,3.61,-0.83,0.09,4.09,
1.754,-1.54,5.64,3.61,-0.71,0.45,4.10,
1.756,-1.54,5.64,3.61,-0.61,0.78,4.11,
1.757,-1.54,5.64,3.61,-0.54,1.09,4.12,
1.759,-1.54,5.64,3.61,-0.48,1.37,4.13,
1.762,-1.33,5.42,2.42,-0.48,1.37,4.13,
1.762,-1.33,5.42,2.42,-0.44,1.63,4.14,
1.764,-1.33,5.42,2.42,-0.43,1.86,4.15,
1.766,-1.33,5.42,2.42,-0.46,2.13,4.16,
1.768,-1.33,5.42,2.42,-0.48,2.21,4.16,
1.769,-1.33,5.42,2.42,-0.52,2.35,4.17,
1.772,-0.96,5.62,-0.83,-0.52,2.35,4.17,
1.772,-0.96,5.62,-0.83,-0.58,2.47,4.18,
1.777,-0.96,5.62,-0.83,-0.67,2.56,4.18,
1.777,-0.96,5.62,-0.83,-0.76,2.62,4.19,
1.777,-0.96,5.62,-0.83,-0.85,2.68,4.20,
1.779,-0.96,5.62,-0.83,-0.94,2.73,4.23,
1.782,-0.07,3.36,-3.14,-0.94,2.73,4.23,
1.782,-0.07,3.36,-3.14,-1.06,2.74,4.29,
1.784,-0.07,3.36,-3.14,-1.18,2.74,4.38,
1.787,-0.07,3.36,-3.14,-1.39,2.73,4.58,
1.787,-0.07,3.36,-3.14,-1.46,2.72,4.67,
1.8,-0.07,3.36,-3.14,-1.57,2.69,4.87,
1.8,-2.05,-6.43,-4.83,-1.57,2.69,4.87,
1.8,-2.05,-6.43,-4.83,-1.67,2.63,5.11,
1.8,-2.05,-6.43,-4.83,-1.78,2.60,5.39,
1.8,-2.05,-6.43,-4.83,-1.95,2.55,5.86,
1.801,-2.05,-6.43,-4.83,-2.00,2.52,6.03,
1.801,-2.05,-6.43,-4.83,-2.09,2.43,6.40,
1.802,-8.82,-19.61,-4.92,-2.09,2.43,6.40,
1.802,-8.82,-19.61,-4.92,-2.18,2.33,6.80,
1.804,-8.82,-19.61,-4.92,-2.25,2.21,7.22,
1.807,-8.82,-19.61,-4.92,-2.33,2.07,7.63,
1.807,-8.82,-19.61,-4.92,-2.40,1.90,8.04,
1.809,-8.82,-19.61,-4.92,-2.47,1.70,8.41,
1.812,-14.01,-33.55,-4.89,-2.47,1.70,8.41,
1.812,-14.01,-33.55,-4.89,-2.54,1.46,8.73,
1.813,-14.01,-33.55,-4.89,-2.59,1.17,9.01,
1.817,-14.01,-33.55,-4.89,-2.62,0.71,9.32,
1.818,-14.01,-33.55,-4.89,-2.61,0.55,9.40,
1.819,-14.01,-33.55,-4.89,-2.60,0.24,9.50,
1.822,-10.59,-39.21,-2.80,-2.60,0.24,9.50,
1.822,-10.59,-39.21,-2.80,-2.55,-0.05,9.52,
1.823,-10.59,-39.21,-2.80,-2.47,-0.30,9.45,
1.827,-10.59,-39.21,-2.80,-2.25,-0.53,9.17,
1.828,-10.59,-39.21,-2.80,-2.15,-0.55,9.02,
1.83,-10.59,-39.21,-2.80,-1.93,-0.53,8.66,
1.832,-1.05,-33.26,0.96,-1.93,-0.53,8.66,
1.832,-1.05,-33.26,0.96,-1.69,-0.48,8.23,
1.834,-1.05,-33.26,0.96,-1.46,-0.43,7.76,
1.837,-1.05,-33.26,0.96,-1.13,-0.34,7.01,
1.838,-1.05,-33.26,0.96,-1.02,-0.30,6.76,
1.839,-1.05,-33.26,0.96,-0.82,-0.22,6.28,
1.842,5.30,-21.57,1.55,-0.82,-0.22,6.28,
1.843,5.30,-21.57,1.55,-0.63,-0.15,5.81,
1.844,5.30,-21.57,1.55,-0.46,-0.08,5.33,
1.847,5.30,-21.57,1.55,-0.23,-0.04,4.57,
1.848,5.30,-21.57,1.55,-0.17,-0.04,4.30,
1.849,5.30,-21.57,1.55,-0.04,-0.07,3.76,
1.852,8.06,-11.23,0.28,-0.04,-0.07,3.76,
1.852,8.06,-11.23,0.28,0.08,-0.08,3.22,
1.854,8.06,-11.23,0.28,0.20,-0.09,2.68,
1.856,8.06,-11.23,0.28,0.37,-0.09,1.89,
1.857,8.06,-11.23,0.28,0.42,-0.08,1.63,
1.86,8.06,-11.23,0.28,0.51,-0.06,1.13,
1.862,9.63,-4.05,-0.71,0.51,-0.06,1.13,
1.862,9.63,-4.05,-0.71,0.57,-0.05,0.65,
1.864,9.63,-4.05,-0.71,0.62,-0.05,0.21,
1.866,9.63,-4.05,-0.71,0.66,-0.08,-0.41,
1.867,9.63,-4.05,-0.71,0.66,-0.09,-0.61,
1.872,9.63,-4.05,-0.71,0.67,-0.12,-0.97,
1.873,9.19,0.62,-2.07,0.67,-0.12,-0.97,
1.874,9.19,0.62,-2.07,0.67,-0.15,-1.31,
1.874,9.19,0.62,-2.07,0.66,-0.21,-1.62,
1.878,9.19,0.62,-2.07,0.64,-0.29,-2.05,
1.879,9.19,0.62,-2.07,0.64,-0.32,-2.18,
1.884,9.19,0.62,-2.07,0.63,-0.37,-2.42,
1.884,7.03,3.83,-2.16,0.63,-0.37,-2.42,
1.885,7.03,3.83,-2.16,0.61,-0.42,-2.64,
1.885,7.03,3.83,-2.16,0.60,-0.45,-2.84,
1.886,7.03,3.83,-2.16,0.57,-0.50,-3.11,
1.888,7.03,3.83,-2.16,0.56,-0.51,-3.19,
1.893,7.03,3.83,-2.16,0.54,-0.53,-3.32,
1.894,4.92,5.67,-2.31,0.54,-0.53,-3.32,
1.894,4.92,5.67,-2.31,0.52,-0.54,-3.44,
1.894,4.92,5.67,-2.31,0.48,-0.53,-3.54,
1.921,4.92,5.67,-2.31,0.43,-0.48,-3.66,
1.921,4.92,5.67,-2.31,0.41,-0.45,-3.68,
1.922,4.92,5.67,-2.31,0.37,-0.36,-3.72,
1.922,2.72,6.72,-2.19,0.37,-0.36,-3.72,
1.923,2.72,6.72,-2.19,0.32,-0.26,-3.74,
1.923,2.72,6.72,-2.19,0.27,-0.14,-3.75,
1.923,2.72,6.72,-2.19,0.19,0.07,-3.71,
1.924,2.72,6.72,-2.19,0.17,0.14,-3.69,
1.924,2.72,6.72,-2.19,0.11,0.28,-3.64,
1.925,0.20,7.26,-2.29,0.11,0.28,-3.64,
1.925,0.20,7.26,-2.29,0.06,0.43,-3.57,
1.926,0.20,7.26,-2.29,0.01,0.57,-3.49,
1.926,0.20,7.26,-2.29,-0.07,0.78,-3.36,
1.926,0.20,7.26,-2.29,-0.09,0.84,-3.31,
1.927,0.20,7.26,-2.29,-0.14,0.97,-3.21,
1.927,-1.43,7.14,-2.29,-0.14,0.97,-3.21,
1.928,-1.43,7.14,-2.29,-0.18,1.07,-3.10,
1.946,-1.43,7.14,-2.29,-0.23,1.17,-2.98,
1.947,-1.43,7.14,-2.29,-0.29,1.27,-2.80,
1.947,-1.43,7.14,-2.29,-0.31,1.30,-2.74,
1.947,-1.43,7.14,-2.29,-0.35,1.34,-2.61,
1.947,-2.89,7.03,-2.25,-0.35,1.34,-2.61,
1.947,-2.89,7.03,-2.25,-0.38,1.36,-2.48,
1.948,-2.89,7.03,-2.25,-0.41,1.36,-2.35,
1.948,-2.89,7.03,-2.25,-0.46,1.34,-2.15,
1.948,-2.89,7.03,-2.25,-0.47,1.33,-2.08,
1.948,-2.89,7.03,-2.25,-0.50,1.29,-1.93,
1.949,-3.87,6.30,-1.88,-0.50,1.29,-1.93,
1.949,-3.87,6.30,-1.88,-0.52,1.25,-1.79,
1.949,-3.87,6.30,-1.88,-0.55,1.20,-1.65,
1.949,-3.87,6.30,-1.88,-0.59,1.11,-1.44,
1.95,-3.87,6.30,-1.88,-0.60,1.09,-1.37,
1.95,-3.87,6.30,-1.88,-0.63,1.03,-1.23,
1.953,-4.69,4.92,-1.66,-0.63,1.03,-1.23,
1.953,-4.69,4.92,-1.66,-0.65,0.97,-1.10,
1.954,-4.69,4.92,-1.66,-0.67,0.92,-0.97,
1.979,-4.69,4.92,-1.66,-0.70,0.83,-0.78,
1.98,-4.69,4.92,-1.66,-0.71,0.80,-0.72,
1.98,-4.69,4.92,-1.66,-0.73,0.74,-0.61,
1.98,-4.51,3.05,-1.26,-0.73,0.74,-0.61,
1.98,-4.51,3.05,-1.26,-0.75,0.68,-0.50,
1.981,-4.51,3.05,-1.26,-0.76,0.62,-0.40,
1.981,-4.51,3.05,-1.26,-0.78,0.54,-0.26,
1.981,-4.51,3.05,-1.26,-0.78,0.51,-0.21,
1.981,-4.51,3.05,-1.26,-0.79,0.46,-0.13,
1.982,-4.11,1.05,-0.73,-0.79,0.46,-0.13,
1.982,-4.11,1.05,-0.73,-0.79,0.41,-0.05,
1.982,-4.11,1.05,-0.73,-0.78,0.37,0.02,
1.982,-4.11,1.05,-0.73,-0.75,0.33,0.12,
1.983,-4.11,1.05,-0.73,-0.73,0.33,0.15,
1.983,-4.11,1.05,-0.73,-0.68,0.34,0.20,
1.983,-3.43,-1.05,1.02,-0.68,0.34,0.20,
1.983,-3.43,-1.05,1.02,-0.61,0.37,0.25,
1.984,-3.43,-1.05,1.02,-0.52,0.42,0.28,
1.987,-3.43,-1.05,1.02,-0.37,0.50,0.32,
1.987,-3.43,-1.05,1.02,-0.32,0.52,0.33,
1.99,-3.43,-1.05,1.02,-0.21,0.57,0.34,
1.992,-2.31,-3.25,3.81,-0.21,0.57,0.34,
1.993,-2.31,-3.25,3.81,-0.11,0.61,0.35,
1.994,-2.31,-3.25,3.81,-0.01,0.64,0.35,
1.997,-2.31,-3.25,3.81,0.12,0.66,0.35,
1.998,-2.31,-3.25,3.81,0.16,0.66,0.35,
2.0,-2.31,-3.25,3.81,0.24,0.65,0.34,
2.002,-1.74,-4.75,3.92,0.24,0.65,0.34,
2.002,-1.74,-4.75,3.92,0.30,0.64,0.34,
2.006,-1.74,-4.75,3.92,0.35,0.63,0.33,
2.007,-1.74,-4.75,3.92,0.41,0.62,0.31,
2.008,-1.74,-4.75,3.92,0.42,0.62,0.30,
2.011,-1.74,-4.75,3.92,0.44,0.63,0.29,
2.013,-1.19,-5.31,2.90,0.44,0.63,0.29,
2.013,-1.19,-5.31,2.90,0.43,0.64,0.26,
2.014,-1.19,-5.31,2.90,0.41,0.65,0.24,
2.017,-1.19,-5.31,2.90,0.37,0.68,0.19,
2.017,-1.19,-5.31,2.90,0.35,0.69,0.17,
2.019,-1.19,-5.31,2.90,0.30,0.70,0.13,
2.023,-0.13,-4.38,1.50,0.30,0.70,0.13,
2.023,-0.13,-4.38,1.50,0.24,0.70,0.09,
2.024,-0.13,-4.38,1.50,0.18,0.69,0.05,
2.027,-0.13,-4.38,1.50,0.07,0.65,-0.01,
2.028,-0.13,-4.38,1.50,0.04,0.63,-0.03,
2.033,-0.13,-4.38,1.50,-0.04,0.57,-0.07,
2.034,0.80,-2.74,0.49,-0.04,0.57,-0.07,
2.034,0.80,-2.74,0.49,-0.12,0.50,-0.10,
2.034,0.80,-2.74,0.49,-0.20,0.40,-0.14,
2.038,0.80,-2.74,0.49,-0.32,0.23,-0.18,
2.045,0.80,-2.74,0.49,-0.36,0.17,-0.19,
2.046,0.80,-2.74,0.49,-0.44,0.02,-0.21,
2.046,1.22,-1.34,-0.15,-0.44,0.02,-0.21,
2.046,1.22,-1.34,-0.15,-0.52,-0.14,-0.23,
2.046,1.22,-1.34,-0.15,-0.60,-0.32,-0.25,
2.048,1.22,-1.34,-0.15,-0.72,-0.61,-0.28,
2.048,1.22,-1.34,-0.15,-0.76,-0.71,-0.28,
2.05,1.22,-1.34,-0.15,-0.84,-0.92,-0.29,
2.052,1.40,-0.40,-0.84,-0.84,-0.92,-0.29,
2.052,1.40,-0.40,-0.84,-0.92,-1.13,-0.30,
2.054,1.40,-0.40,-0.84,-1.00,-1.36,-0.31,
2.078,1.40,-0.40,-0.84,-1.12,-1.70,-0.33,
2.078,1.40,-0.40,-0.84,-1.16,-1.81,-0.33,
2.078,1.40,-0.40,-0.84,-1.24,-2.04,-0.34,
2.078,1.41,0.22,-1.62,-1.24,-2.04,-0.34,
2.094,1.41,0.22,-1.62,-1.31,-2.27,-0.35,
2.095,1.41,0.22,-1.62,-1.38,-2.49,-0.35,
2.095,1.41,0.22,-1.62,-1.48,-2.83,-0.37,
2.095,1.41,0.22,-1.62,-1.52,-2.94,-0.38,
2.095,1.41,0.22,-1.62,-1.57,-3.15,-0.38,
2.095,1.61,0.38,-2.00,-1.57,-3.15,-0.38,
2.095,1.61,0.38,-2.00,-1.62,-3.35,-0.39,
2.096,1.61,0.38,-2.00,-1.66,-3.55,-0.40,
2.096,1.61,0.38,-2.00,-1.70,-3.81,-0.42,
2.096,1.61,0.38,-2.00,-1.72,-3.89,-0.42,
2.096,1.61,0.38,-2.00,-1.73,-4.05,-0.43,
2.096,1.53,0.42,-1.51,-1.73,-4.05,-0.43,
2.096,1.53,0.42,-1.51,-1.74,-4.18,-0.44,
2.096,1.53,0.42,-1.51,-1.74,-4.31,-0.44,
2.097,1.53,0.42,-1.51,-1.74,-4.47,-0.45,
2.097,1.53,0.42,-1.51,-1.74,-4.52,-0.45,
2.097,1.53,0.42,-1.51,-1.73,-4.61,-0.46,
2.097,1.46,0.52,-0.97,-1.73,-4.61,-0.46,
2.097,1.46,0.52,-0.97,-1.71,-4.69,-0.46,
2.098,1.46,0.52,-0.97,-1.69,-4.75,-0.47,
2.098,1.46,0.52,-0.97,-1.66,-4.84,-0.47,
2.098,1.46,0.52,-0.97,-1.64,-4.86,-0.47,
2.101,1.46,0.52,-0.97,-1.61,-4.89,-0.47,
2.102,1.31,0.62,-0.51,-1.61,-4.89,-0.47,
2.103,1.31,0.62,-0.51,-1.58,-4.92,-0.47,
2.103,1.31,0.62,-0.51,-1.55,-4.94,-0.48,
2.109,1.31,0.62,-0.51,-1.49,-4.94,-0.48,
2.11,1.31,0.62,-0.51,-1.48,-4.94,-0.48,
2.11,1.31,0.62,-0.51,-1.43,-4.92,-0.48,
2.112,1.20,0.64,-0.20,-1.43,-4.92,-0.48,
2.112,1.20,0.64,-0.20,-1.39,-4.90,-0.49,
2.114,1.20,0.64,-0.20,-1.35,-4.86,-0.49,
2.116,1.20,0.64,-0.20,-1.28,-4.78,-0.50,
2.118,1.20,0.64,-0.20,-1.25,-4.75,-0.50,
2.12,1.20,0.64,-0.20,-1.20,-4.69,-0.50,
2.123,1.03,0.60,0.00,-1.20,-4.69,-0.50,
2.123,1.03,0.60,0.00,-1.15,-4.61,-0.50,
2.124,1.03,0.60,0.00,-1.10,-4.53,-0.50,
2.128,1.03,0.60,0.00,-1.03,-4.39,-0.50,
2.128,1.03,0.60,0.00,-1.01,-4.34,-0.49,
2.13,1.03,0.60,0.00,-0.96,-4.24,-0.49,
2.132,0.66,0.38,0.05,-0.96,-4.24,-0.49,
2.132,0.66,0.38,0.05,-0.92,-4.12,-0.48,
2.134,0.66,0.38,0.05,-0.87,-4.00,-0.47,
2.137,0.66,0.38,0.05,-0.81,-3.82,-0.45,
2.138,0.66,0.38,0.05,-0.79,-3.75,-0.45,
2.141,0.66,0.38,0.05,-0.75,-3.62,-0.43,
2.142,0.28,0.13,0.02,-0.75,-3.62,-0.43,
2.143,0.28,0.13,0.02,-0.71,-3.48,-0.42,
2.145,0.28,0.13,0.02,-0.68,-3.35,-0.40,
2.147,0.28,0.13,0.02,-0.63,-3.14,-0.37,
2.148,0.28,0.13,0.02,-0.62,-3.07,-0.36,
2.15,0.28,0.13,0.02,-0.60,-2.92,-0.34,
2.152,-0.02,-0.04,-0.09,-0.60,-2.92,-0.34,
2.153,-0.02,-0.04,-0.09,-0.58,-2.78,-0.32,
2.16,-0.02,-0.04,-0.09,-0.56,-2.63,-0.30,
2.16,-0.02,-0.04,-0.09,-0.54,-2.40,-0.27,
2.16,-0.02,-0.04,-0.09,-0.53,-2.32,-0.26,
2.16,-0.02,-0.04,-0.09,-0.53,-2.16,-0.23,
2.162,-0.22,-0.20,-0.17,-0.53,-2.16,-0.23,
2.162,-0.22,-0.20,-0.17,-0.52,-2.00,-0.20,
2.164,-0.22,-0.20,-0.17,-0.51,-1.85,-0.17,
2.166,-0.22,-0.20,-0.17,-0.51,-1.61,-0.13,
2.167,-0.22,-0.20,-0.17,-0.52,-1.53,-0.12,
2.169,-0.22,-0.20,-0.17,-0.52,-1.38,-0.09,
2.18,-0.23,-0.31,-0.10,-0.52,-1.38,-0.09,
2.18,-0.23,-0.31,-0.10,-0.53,-1.23,-0.07,
2.18,-0.23,-0.31,-0.10,-0.54,-1.08,-0.04,
2.18,-0.23,-0.31,-0.10,-0.58,-0.80,-0.01,
2.181,-0.23,-0.31,-0.10,-0.61,-0.67,0.01,
2.181,-0.23,-0.31,-0.10,-0.70,-0.36,0.05,
2.182,0.06,-0.34,-0.12,-0.70,-0.36,0.05,
2.183,0.06,-0.34,-0.12,-0.80,-0.02,0.10,
2.184,0.06,-0.34,-0.12,-0.91,0.33,0.14,
2.187,0.06,-0.34,-0.12,-1.08,0.88,0.20,
2.199,0.06,-0.34,-0.12,-1.14,1.05,0.22,
2.199,0.06,-0.34,-0.12,-1.25,1.40,0.25,
2.2,0.97,-0.46,0.85,-1.25,1.40,0.25,
2.2,0.97,-0.46,0.85,-1.35,1.71,0.28,
2.2,0.97,-0.46,0.85,-1.44,2.00,0.29,
2.201,0.97,-0.46,0.85,-1.55,2.39,0.29,
2.201,0.97,-0.46,0.85,-1.58,2.51,0.28,
2.201,0.97,-0.46,0.85,-1.59,2.70,0.26,
2.204,2.73,-0.69,5.08,-1.59,2.70,0.26,
2.204,2.73,-0.69,5.08,-1.52,2.82,0.21,
2.225,2.73,-0.69,5.08,-1.37,2.84,0.13,
2.225,2.73,-0.69,5.08,-1.09,2.72,-0.02,
2.225,2.73,-0.69,5.08,-1.00,2.65,-0.07,
2.226,2.73,-0.69,5.08,-0.80,2.46,-0.18,
2.226,6.42,-1.10,14.67,-0.80,2.46,-0.18,
2.226,6.42,-1.10,14.67,-0.61,2.23,-0.29,
2.227,6.42,-1.10,14.67,-0.44,1.99,-0.38,
2.227,6.42,-1.10,14.67,-0.22,1.60,-0.49,
2.227,6.42,-1.10,14.67,-0.15,1.47,-0.52,
2.227,6.42,-1.10,14.67,-0.04,1.20,-0.56,
2.227,5.20,-1.04,13.38,-0.04,1.20,-0.56,
2.228,5.20,-1.04,13.38,0.05,0.94,-0.60,
2.228,5.20,-1.04,13.38,0.14,0.68,-0.62,
2.228,5.20,-1.04,13.38,0.24,0.30,-0.64,
2.228,5.20,-1.04,13.38,0.26,0.18,-0.65,
2.254,5.20,-1.04,13.38,0.31,-0.07,-0.65,
2.254,2.57,-0.70,9.87,0.31,-0.07,-0.65,
2.255,2.57,-0.70,9.87,0.34,-0.31,-0.65,
2.255,2.57,-0.70,9.87,0.36,-0.55,-0.64,
2.255,2.57,-0.70,9.87,0.39,-0.88,-0.63,
2.256,2.57,-0.70,9.87,0.40,-0.99,-0.62,
2.256,2.57,-0.70,9.87,0.40,-1.21,-0.61,
2.256,0.35,-0.43,6.52,0.40,-1.21,-0.61,
2.257,0.35,-0.43,6.52,0.40,-1.41,-0.60,
2.257,0.35,-0.43,6.52,0.40,-1.61,-0.58,
2.257,0.35,-0.43,6.52,0.40,-1.89,-0.56,
2.257,0.35,-0.43,6.52,0.40,-1.98,-0.55,
2.258,0.35,-0.43,6.52,0.40,-2.15,-0.53,
2.258,-1.47,-0.24,4.74,0.40,-2.15,-0.53,
2.258,-1.47,-0.24,4.74,0.41,-2.31,-0.51,
2.258,-1.47,-0.24,4.74,0.41,-2.44,-0.49,
2.259,-1.47,-0.24,4.74,0.43,-2.62,-0.45,
2.259,-1.47,-0.24,4.74,0.43,-2.67,-0.44,
2.268,-1.47,-0.24,4.74,0.44,-2.76,-0.41,
2.268,-2.89,-0.12,3.79,0.44,-2.76,-0.41,
2.268,-2.89,-0.12,3.79,0.46,-2.84,-0.38,
2.269,-2.89,-0.12,3.79,0.49,-2.91,-0.36,
2.269,-2.89,-0.12,3.79,0.55,-3.01,-0.33,
2.269,-2.89,-0.12,3.79,0.57,-3.04,-0.32,
2.27,-2.89,-0.12,3.79,0.62,-3.10,-0.30,
2.278,-3.83,-0.29,3.62,0.62,-3.10,-0.30,
2.278,-3.83,-0.29,3.62,0.68,-3.16,-0.28,
2.279,-3.83,-0.29,3.62,0.74,-3.22,-0.24,
2.279,-3.83,-0.29,3.62,0.83,-3.29,-0.17,
2.279,-3.83,-0.29,3.62,0.86,-3.32,-0.14,
2.28,-3.83,-0.29,3.62,0.93,-3.36,-0.08,
2.282,-5.30,-0.92,3.14,0.93,-3.36,-0.08,
2.282,-5.30,-0.92,3.14,1.00,-3.39,-0.01,
2.284,-5.30,-0.92,3.14,1.08,-3.42,0.05,
2.288,-5.30,-0.92,3.14,1.21,-3.42,0.15,
2.288,-5.30,-0.92,3.14,1.25,-3.42,0.18,
2.29,-5.30,-0.92,3.14,1.35,-3.39,0.25,
2.293,-6.75,-1.41,3.17,1.35,-3.39,0.25,
2.293,-6.75,-1.41,3.17,1.46,-3.36,0.33,
2.294,-6.75,-1.41,3.17,1.58,-3.31,0.41,
2.297,-6.75,-1.41,3.17,1.76,-3.24,0.53,
2.297,-6.75,-1.41,3.17,1.83,-3.21,0.58,
2.3,-6.75,-1.41,3.17,1.97,-3.16,0.66,
2.303,-7.99,-2.25,3.66,1.97,-3.16,0.66,
2.303,-7.99,-2.25,3.66,2.11,-3.10,0.75,
2.309,-7.99,-2.25,3.66,2.26,-3.03,0.83,
2.31,-7.99,-2.25,3.66,2.48,-2.91,0.93,
2.31,-7.99,-2.25,3.66,2.56,-2.87,0.96,
2.31,-7.99,-2.25,3.66,2.71,-2.77,1.03,
2.312,-8.20,-2.82,3.89,2.71,-2.77,1.03,
2.312,-8.20,-2.82,3.89,2.87,-2.68,1.10,
2.314,-8.20,-2.82,3.89,3.02,-2.58,1.16,
2.317,-8.20,-2.82,3.89,3.24,-2.43,1.28,
2.318,-8.20,-2.82,3.89,3.31,-2.38,1.31,
2.331,-8.20,-2.82,3.89,3.44,-2.29,1.39,
2.331,-8.76,-4.14,3.36,3.44,-2.29,1.39,
2.331,-8.76,-4.14,3.36,3.57,-2.19,1.48,
2.331,-8.76,-4.14,3.36,3.68,-2.09,1.56,
2.332,-8.76,-4.14,3.36,3.83,-1.93,1.68,
2.332,-8.76,-4.14,3.36,3.88,-1.87,1.72,
2.332,-8.76,-4.14,3.36,3.95,-1.76,1.80,
2.332,-9.23,-5.28,1.79,3.95,-1.76,1.80,
2.332,-9.23,-5.28,1.79,4.01,-1.66,1.88,
2.334,-9.23,-5.28,1.79,4.04,-1.57,1.97,
2.346,-9.23,-5.28,1.79,4.08,-1.46,2.10,
2.347,-9.23,-5.28,1.79,4.08,-1.42,2.14,
2.347,-9.23,-5.28,1.79,4.08,-1.36,2.21,
2.347,-9.25,-6.29,-0.42,4.08,-1.36,2.21,
2.348,-9.25,-6.29,-0.42,4.06,-1.29,2.28,
2.348,-9.25,-6.29,-0.42,4.03,-1.22,2.35,
2.348,-9.25,-6.29,-0.42,3.96,-1.14,2.43,
2.348,-9.25,-6.29,-0.42,3.92,-1.12,2.45,
2.349,-9.25,-6.29,-0.42,3.85,-1.08,2.49,
2.352,-8.39,-6.36,-3.11,3.85,-1.08,2.49,
2.352,-8.39,-6.36,-3.11,3.76,-1.06,2.52,
2.354,-8.39,-6.36,-3.11,3.67,-1.04,2.54,
2.357,-8.39,-6.36,-3.11,3.51,-1.05,2.58,
2.357,-8.39,-6.36,-3.11,3.45,-1.06,2.59,
2.359,-8.39,-6.36,-3.11,3.34,-1.09,2.63,
2.362,-7.88,-5.82,-5.34,3.34,-1.09,2.63,
2.362,-7.88,-5.82,-5.34,3.22,-1.15,2.66,
2.364,-7.88,-5.82,-5.34,3.09,-1.23,2.69,
2.366,-7.88,-5.82,-5.34,2.90,-1.42,2.74,
2.367,-7.88,-5.82,-5.34,2.84,-1.49,2.76,
2.37,-7.88,-5.82,-5.34,2.71,-1.65,2.79,
2.372,-7.07,-4.88,-7.20,2.71,-1.65,2.79,
2.373,-7.07,-4.88,-7.20,2.59,-1.84,2.81,
2.374,-7.07,-4.88,-7.20,2.47,-2.03,2.83,
2.376,-7.07,-4.88,-7.20,2.29,-2.35,2.84,
2.377,-7.07,-4.88,-7.20,2.23,-2.46,2.84,
2.379,-7.07,-4.88,-7.20,2.12,-2.68,2.84,
2.382,-5.14,-4.08,-8.37,2.12,-2.68,2.84,
2.382,-5.14,-4.08,-8.37,2.00,-2.92,2.84,
2.384,-5.14,-4.08,-8.37,1.89,-3.16,2.82,
2.387,-5.14,-4.08,-8.37,1.72,-3.52,2.79,
2.388,-5.14,-4.08,-8.37,1.66,-3.65,2.77,
2.39,-5.14,-4.08,-8.37,1.54,-3.89,2.74,
2.392,-3.28,-3.51,-9.74,1.54,-3.89,2.74,
2.392,-3.28,-3.51,-9.74,1.43,-4.12,2.69,
2.394,-3.28,-3.51,-9.74,1.32,-4.34,2.65,
2.404,-3.28,-3.51,-9.74,1.16,-4.65,2.56,
2.404,-3.28,-3.51,-9.74,1.11,-4.74,2.54,
2.405,-3.28,-3.51,-9.74,1.01,-4.92,2.47,
2.405,-1.67,-3.15,-9.99,1.01,-4.92,2.47,
2.405,-1.67,-3.15,-9.99,0.92,-5.07,2.40,
2.405,-1.67,-3.15,-9.99,0.84,-5.21,2.33,
2.407,-1.67,-3.15,-9.99,0.73,-5.39,2.22,
2.407,-1.67,-3.15,-9.99,0.70,-5.44,2.18,
2.409,-1.67,-3.15,-9.99,0.64,-5.52,2.10,
2.412,-0.65,-3.23,-9.24,0.64,-5.52,2.10,
2.413,-0.65,-3.23,-9.24,0.59,-5.58,2.02,
2.414,-0.65,-3.23,-9.24,0.55,-5.61,1.95,
2.418,-0.65,-3.23,-9.24,0.49,-5.59,1.83,
2.418,-0.65,-3.23,-9.24,0.48,-5.57,1.80,
2.42,-0.65,-3.23,-9.24,0.44,-5.49,1.72,
2.422,-0.35,-3.01,-8.39,0.44,-5.49,1.72,
2.422,-0.35,-3.01,-8.39,0.42,-5.38,1.65,
2.423,-0.35,-3.01,-8.39,0.39,-5.24,1.60,
2.426,-0.35,-3.01,-8.39,0.36,-5.01,1.52,
2.427,-0.35,-3.01,-8.39,0.34,-4.93,1.50,
2.429,-0.35,-3.01,-8.39,0.32,-4.75,1.46,
2.432,-0.41,-2.68,-7.52,0.32,-4.75,1.46,
2.432,-0.41,-2.68,-7.52,0.29,-4.55,1.42,
2.434,-0.41,-2.68,-7.52,0.26,-4.34,1.39,
2.439,-0.41,-2.68,-7.52,0.21,-3.98,1.34,
2.439,-0.41,-2.68,-7.52,0.19,-3.85,1.32,
2.439,-0.41,-2.68,-7.52,0.15,-3.59,1.29,
2.442,0.20,-2.41,-6.14,0.15,-3.59,1.29,
2.442,0.20,-2.41,-6.14,0.11,-3.34,1.25,
2.443,0.20,-2.41,-6.14,0.08,-3.10,1.22,
2.446,0.20,-2.41,-6.14,0.04,-2.76,1.17,
2.447,0.20,-2.41,-6.14,0.03,-2.66,1.15,
2.449,0.20,-2.41,-6.14,0.01,-2.48,1.11,
2.452,0.97,-2.37,-4.50,0.01,-2.48,1.11,
2.452,0.97,-2.37,-4.50,-0.00,-2.33,1.08,
2.461,0.97,-2.37,-4.50,-0.01,-2.21,1.04,
2.461,0.97,-2.37,-4.50,-0.02,-2.10,0.99,
2.461,0.97,-2.37,-4.50,-0.02,-2.08,0.98,
2.461,0.97,-2.37,-4.50,-0.01,-2.05,0.95,
2.462,1.29,-2.21,-3.13,-0.01,-2.05,0.95,
2.462,1.29,-2.21,-3.13,0.00,-2.03,0.93,
2.464,1.29,-2.21,-3.13,0.02,-2.03,0.90,
2.466,1.29,-2.21,-3.13,0.06,-2.04,0.87,
2.468,1.29,-2.21,-3.13,0.07,-2.05,0.86,
2.47,1.29,-2.21,-3.13,0.10,-2.06,0.85,
2.476,1.30,-1.84,-2.94,0.10,-2.06,0.85,
2.476,1.30,-1.84,-2.94,0.13,-2.08,0.84,
2.476,1.30,-1.84,-2.94,0.16,-2.10,0.83,
2.476,1.30,-1.84,-2.94,0.19,-2.12,0.81,
2.478,1.30,-1.84,-2.94,0.21,-2.13,0.81,
2.479,1.30,-1.84,-2.94,0.22,-2.14,0.81,
2.482,1.20,-1.15,-3.69,0.22,-2.14,0.81,
2.482,1.20,-1.15,-3.69,0.25,-2.15,0.81,
2.484,1.20,-1.15,-3.69,0.26,-2.14,0.81,
2.491,1.20,-1.15,-3.69,0.29,-2.12,0.83,
2.492,1.20,-1.15,-3.69,0.30,-2.10,0.83,
2.492,1.20,-1.15,-3.69,0.32,-2.07,0.84,
2.492,0.90,-0.41,-4.78,0.32,-2.07,0.84,
2.493,0.90,-0.41,-4.78,0.34,-2.03,0.85,
2.494,0.90,-0.41,-4.78,0.36,-1.97,0.86,
2.496,0.90,-0.41,-4.78,0.38,-1.88,0.87,
2.498,0.90,-0.41,-4.78,0.39,-1.85,0.87,
2.499,0.90,-0.41,-4.78,0.41,-1.78,0.88,
2.503,0.96,0.27,-5.53,0.41,-1.78,0.88,
2.505,0.96,0.27,-5.53,0.42,-1.71,0.88,
2.506,0.96,0.27,-5.53,0.43,-1.64,0.89,
2.511,0.96,0.27,-5.53,0.47,-1.48,0.91,
2.511,0.96,0.27,-5.53,0.47,-1.48,0.91,
2.511,0.96,0.27,-5.53,0.49,-1.39,0.92,
2.512,0.88,0.89,-5.92,0.49,-1.39,0.92,
2.512,0.88,0.89,-5.92,0.52,-1.29,0.94,
2.514,0.88,0.89,-5.92,0.54,-1.20,0.95,
2.517,0.88,0.89,-5.92,0.58,-1.06,0.97,
2.518,0.88,0.89,-5.92,0.60,-1.01,0.98,
2.521,0.88,0.89,-5.92,0.63,-0.93,1.00,
2.524,0.91,1.54,-5.50,0.63,-0.93,1.00,
2.524,0.91,1.54,-5.50,0.67,-0.86,1.01,
2.527,0.91,1.54,-5.50,0.70,-0.79,1.03,
2.528,0.91,1.54,-5.50,0.75,-0.71,1.06,
2.529,0.91,1.54,-5.50,0.76,-0.68,1.07,
2.53,0.91,1.54,-5.50,0.79,-0.64,1.08,
2.532,1.27,2.14,-5.03,0.79,-0.64,1.08,
2.533,1.27,2.14,-5.03,0.81,-0.60,1.10,
2.535,1.27,2.14,-5.03,0.83,-0.58,1.11,
2.54,1.27,2.14,-5.03,0.86,-0.55,1.13,
2.541,1.27,2.14,-5.03,0.86,-0.54,1.14,
2.541,1.27,2.14,-5.03,0.88,-0.54,1.15,
2.542,1.82,2.87,-4.49,0.88,-0.54,1.15,
2.543,1.82,2.87,-4.49,0.88,-0.54,1.16,
2.544,1.82,2.87,-4.49,0.88,-0.54,1.17,
2.546,1.82,2.87,-4.49,0.88,-0.55,1.18,
2.548,1.82,2.87,-4.49,0.88,-0.55,1.18,
2.55,1.82,2.87,-4.49,0.87,-0.55,1.19,
2.554,2.22,3.53,-4.30,0.87,-0.55,1.19,
2.554,2.22,3.53,-4.30,0.85,-0.56,1.20,
2.555,2.22,3.53,-4.30,0.84,-0.57,1.20,
2.558,2.22,3.53,-4.30,0.80,-0.56,1.20,
2.559,2.22,3.53,-4.30,0.79,-0.55,1.21,
2.56,2.22,3.53,-4.30,0.76,-0.54,1.21,
2.562,2.46,4.18,-4.18,0.76,-0.54,1.21,
2.59,2.46,4.18,-4.18,0.73,-0.51,1.21,
2.59,2.46,4.18,-4.18,0.69,-0.49,1.20,
2.591,2.46,4.18,-4.18,0.62,-0.45,1.19,
2.591,2.46,4.18,-4.18,0.59,-0.44,1.19,
2.591,2.46,4.18,-4.18,0.53,-0.41,1.18,
2.592,2.83,4.50,-4.63,0.53,-0.41,1.18,
2.592,2.83,4.50,-4.63,0.46,-0.38,1.17,
2.592,2.83,4.50,-4.63,0.39,-0.35,1.16,
2.593,2.83,4.50,-4.63,0.27,-0.30,1.14,
2.593,2.83,4.50,-4.63,0.23,-0.28,1.14,
2.593,2.83,4.50,-4.63,0.15,-0.25,1.12,
2.593,3.05,4.79,-4.94,0.15,-0.25,1.12,
2.594,3.05,4.79,-4.94,0.06,-0.22,1.11,
2.594,3.05,4.79,-4.94,-0.03,-0.18,1.11,
2.594,3.05,4.79,-4.94,-0.17,-0.13,1.10,
2.595,3.05,4.79,-4.94,-0.21,-0.11,1.10,
2.595,3.05,4.79,-4.94,-0.30,-0.07,1.10,
2.595,3.10,4.23,-5.16,-0.30,-0.07,1.10,
2.595,3.10,4.23,-5.16,-0.40,-0.03,1.09,
2.596,3.10,4.23,-5.16,-0.49,0.01,1.09,
2.613,3.10,4.23,-5.16,-0.63,0.06,1.07,
2.614,3.10,4.23,-5.16,-0.68,0.07,1.06,
2.614,3.10,4.23,-5.16,-0.77,0.10,1.04,
2.615,3.28,3.67,-4.84,-0.77,0.10,1.04,
2.615,3.28,3.67,-4.84,-0.87,0.12,1.02,
2.615,3.28,3.67,-4.84,-0.96,0.14,0.99,
2.615,3.28,3.67,-4.84,-1.09,0.15,0.95,
2.615,3.28,3.67,-4.84,-1.14,0.15,0.94,
2.616,3.28,3.67,-4.84,-1.22,0.15,0.91,
2.616,3.75,2.84,-4.59,-1.22,0.15,0.91,
2.616,3.75,2.84,-4.59,-1.31,0.13,0.88,
2.617,3.75,2.84,-4.59,-1.39,0.12,0.85,
2.62,3.75,2.84,-4.59,-1.51,0.09,0.80,
2.62,3.75,2.84,-4.59,-1.55,0.08,0.78,
2.67,3.75,2.84,-4.59,-1.62,0.05,0.74,
2.671,3.79,2.23,-3.89,-1.62,0.05,0.74,
2.671,3.79,2.23,-3.89,-1.69,0.03,0.71,
2.671,3.79,2.23,-3.89,-1.76,0.01,0.67,
2.672,3.79,2.23,-3.89,-1.85,-0.03,0.61,
2.672,3.79,2.23,-3.89,-1.88,-0.04,0.58,
2.672,3.79,2.23,-3.89,-1.94,-0.06,0.54,
2.672,4.00,1.45,-3.21,-1.94,-0.06,0.54,
2.672,4.00,1.45,-3.21,-1.99,-0.08,0.50,
2.673,4.00,1.45,-3.21,-2.04,-0.09,0.45,
2.673,4.00,1.45,-3.21,-2.10,-0.12,0.38,
2.673,4.00,1.45,-3.21,-2.13,-0.12,0.36,
2.673,4.00,1.45,-3.21,-2.16,-0.13,0.31,
2.674,3.67,0.72,-2.21,-2.16,-0.13,0.31,
2.674,3.67,0.72,-2.21,-2.20,-0.14,0.27,
2.674,3.67,0.72,-2.21,-2.23,-0.16,0.22,
2.674,3.67,0.72,-2.21,-2.28,-0.19,0.15,
2.675,3.67,0.72,-2.21,-2.29,-0.20,0.12,
2.675,3.67,0.72,-2.21,-2.31,-0.23,0.08,
2.675,3.13,0.09,-1.17,-2.31,-0.23,0.08,
2.675,3.13,0.09,-1.17,-2.34,-0.27,0.04,
2.676,3.13,0.09,-1.17,-2.37,-0.31,0.00,
2.676,3.13,0.09,-1.17,-2.40,-0.39,-0.06,
2.676,3.13,0.09,-1.17,-2.41,-0.41,-0.08,
2.676,3.13,0.09,-1.17,-2.44,-0.47,-0.11,
2.676,2.22,-0.26,-0.27,-2.44,-0.47,-0.11,
2.677,2.22,-0.26,-0.27,-2.46,-0.52,-0.15,
2.677,2.22,-0.26,-0.27,-2.49,-0.58,-0.19,
2.677,2.22,-0.26,-0.27,-2.52,-0.66,-0.25,
2.677,2.22,-0.26,-0.27,-2.53,-0.69,-0.27,
2.678,2.22,-0.26,-0.27,-2.55,-0.75,-0.32,
2.678,1.60,-0.44,0.56,-2.55,-0.75,-0.32,
2.678,1.60,-0.44,0.56,-2.57,-0.81,-0.36,
2.678,1.60,-0.44,0.56,-2.59,-0.88,-0.40,
2.679,1.60,-0.44,0.56,-2.62,-1.00,-0.47,
2.679,1.60,-0.44,0.56,-2.63,-1.04,-0.49,
2.685,1.60,-0.44,0.56,-2.64,-1.13,-0.54,
2.685,1.08,-0.49,1.70,-2.64,-1.13,-0.54,
2.686,1.08,-0.49,1.70,-2.65,-1.22,-0.58,
2.686,1.08,-0.49,1.70,-2.66,-1.33,-0.62,
2.688,1.08,-0.49,1.70,-2.66,-1.50,-0.68,
2.688,1.08,-0.49,1.70,-2.66,-1.56,-0.70,
2.689,1.08,-0.49,1.70,-2.65,-1.68,-0.73,
2.692,0.49,-0.56,3.63,-2.65,-1.68,-0.73,
2.692,0.49,-0.56,3.63,-2.64,-1.82,-0.76,
2.694,0.49,-0.56,3.63,-2.62,-1.97,-0.79,
2.696,0.49,-0.56,3.63,-2.58,-2.21,-0.81,
2.698,0.49,-0.56,3.63,-2.56,-2.30,-0.82,
2.699,0.49,-0.56,3.63,-2.53,-2.47,-0.83,
2.703,-0.37,-0.76,6.17,-2.53,-2.47,-0.83,
2.703,-0.37,-0.76,6.17,-2.50,-2.65,-0.83,
2.704,-0.37,-0.76,6.17,-2.46,-2.84,-0.83,
2.708,-0.37,-0.76,6.17,-2.41,-3.11,-0.82,
2.708,-0.37,-0.76,6.17,-2.40,-3.20,-0.81,
2.709,-0.37,-0.76,6.17,-2.37,-3.36,-0.80,
2.712,-1.28,-0.96,8.46,-2.37,-3.36,-0.80,
2.712,-1.28,-0.96,8.46,-2.35,-3.52,-0.78,
2.715,-1.28,-0.96,8.46,-2.33,-3.66,-0.76,
2.716,-1.28,-0.96,8.46,-2.33,-3.84,-0.73,
2.722,-1.28,-0.96,8.46,-2.33,-3.88,-0.71,
2.722,-1.28,-0.96,8.46,-2.34,-3.96,-0.69,
2.723,-1.74,-1.09,8.67,-2.34,-3.96,-0.69,
2.723,-1.74,-1.09,8.67,-2.36,-4.01,-0.67,
2.724,-1.74,-1.09,8.67,-2.39,-4.03,-0.64,
2.727,-1.74,-1.09,8.67,-2.43,-4.00,-0.61,
2.727,-1.74,-1.09,8.67,-2.45,-3.98,-0.60,
2.739,-1.74,-1.09,8.67,-2.49,-3.91,-0.59,
2.739,-1.24,-0.97,7.67,-2.49,-3.91,-0.59,
2.739,-1.24,-0.97,7.67,-2.53,-3.81,-0.57,
2.74,-1.24,-0.97,7.67,-2.57,-3.68,-0.56,
2.74,-1.24,-0.97,7.67,-2.63,-3.44,-0.55,
2.74,-1.24,-0.97,7.67,-2.65,-3.35,-0.55,
2.74,-1.24,-0.97,7.67,-2.69,-3.15,-0.56,
2.742,0.16,-0.92,6.39,-2.69,-3.15,-0.56,
2.742,0.16,-0.92,6.39,-2.72,-2.92,-0.57,
2.744,0.16,-0.92,6.39,-2.75,-2.67,-0.59,
2.746,0.16,-0.92,6.39,-2.77,-2.26,-0.62,
2.747,0.16,-0.92,6.39,-2.77,-2.11,-0.64,
2.749,0.16,-0.92,6.39,-2.77,-1.81,-0.67,
2.752,2.14,-0.93,6.10,-2.77,-1.81,-0.67,
2.752,2.14,-0.93,6.10,-2.76,-1.50,-0.71,
2.754,2.14,-0.93,6.10,-2.74,-1.17,-0.76,
2.757,2.14,-0.93,6.10,-2.69,-0.69,-0.82,
2.757,2.14,-0.93,6.10,-2.66,-0.53,-0.85,
2.759,2.14,-0.93,6.10,-2.62,-0.23,-0.88,
2.762,3.22,-1.11,6.14,-2.62,-0.23,-0.88,
2.763,3.22,-1.11,6.14,-2.57,0.04,-0.92,
2.764,3.22,-1.11,6.14,-2.51,0.30,-0.94,
2.766,3.22,-1.11,6.14,-2.41,0.64,-0.98,
2.768,3.22,-1.11,6.14,-2.38,0.74,-0.99,
2.77,3.22,-1.11,6.14,-2.27,1.00,-1.01,
2.773,3.09,-1.22,5.98,-2.27,1.00,-1.01,
2.773,3.09,-1.22,5.98,-2.24,1.08,-1.02,
2.773,3.09,-1.22,5.98,-2.15,1.21,-1.03,
2.776,3.09,-1.22,5.98,-2.02,1.37,-1.05,
2.777,3.09,-1.22,5.98,-1.98,1.41,-1.05,
2.78,3.09,-1.22,5.98,-1.89,1.47,-1.06,
2.782,2.56,-1.01,5.64,-1.89,1.47,-1.06,
2.782,2.56,-1.01,5.64,-1.79,1.50,-1.06,
2.783,2.56,-1.01,5.64,-1.69,1.52,-1.06,
2.787,2.56,-1.01,5.64,-1.54,1.50,-1.05,
2.788,2.56,-1.01,5.64,-1.49,1.49,-1.05,
2.789,2.56,-1.01,5.64,-1.39,1.45,-1.03,
2.792,1.25,-1.13,4.96,-1.39,1.45,-1.03,
2.792,1.25,-1.13,4.96,-1.31,1.39,-1.01,
2.794,1.25,-1.13,4.96,-1.22,1.32,-0.98,
2.796,1.25,-1.13,4.96,-1.09,1.17,-0.93,
2.797,1.25,-1.13,4.96,-1.05,1.12,-0.91,
2.799,1.25,-1.13,4.96,-0.97,0.99,-0.86,
2.802,-1.19,-2.27,3.55,-0.97,0.99,-0.86,
2.802,-1.19,-2.27,3.55,-0.90,0.84,-0.80,
2.803,-1.19,-2.27,3.55,-0.82,0.68,-0.74,
2.806,-1.19,-2.27,3.55,-0.70,0.39,-0.62,
2.808,-1.19,-2.27,3.55,-0.66,0.28,-0.58,
2.81,-1.19,-2.27,3.55,-0.58,0.06,-0.49,
2.812,-4.02,-4.14,2.67,-0.58,0.06,-0.49,
2.812,-4.02,-4.14,2.67,-0.50,-0.18,-0.40,
2.814,-4.02,-4.14,2.67,-0.43,-0.44,-0.30,
2.817,-4.02,-4.14,2.67,-0.34,-0.82,-0.14,
2.835,-4.02,-4.14,2.67,-0.31,-0.94,-0.08,
2.836,-4.02,-4.14,2.67,-0.26,-1.18,0.04,
2.836,-6.60,-5.86,0.75,-0.26,-1.18,0.04,
2.836,-6.60,-5.86,0.75,-0.21,-1.40,0.15,
2.836,-6.60,-5.86,0.75,-0.16,-1.60,0.27,
2.836,-6.60,-5.86,0.75,-0.08,-1.86,0.43,
2.837,-6.60,-5.86,0.75,-0.06,-1.94,0.48,
2.837,-6.60,-5.86,0.75,0.01,-2.07,0.57,
2.837,-8.07,-6.29,-0.75,0.01,-2.07,0.57,
2.837,-8.07,-6.29,-0.75,0.08,-2.17,0.65,
2.837,-8.07,-6.29,-0.75,0.16,-2.25,0.72,
2.837,-8.07,-6.29,-0.75,0.29,-2.33,0.80,
2.838,-8.07,-6.29,-0.75,0.34,-2.34,0.82,
2.839,-8.07,-6.29,-0.75,0.42,-2.35,0.86,
2.842,-7.75,-4.74,-0.70,0.42,-2.35,0.86,
2.842,-7.75,-4.74,-0.70,0.51,-2.36,0.89,
2.844,-7.75,-4.74,-0.70,0.59,-2.34,0.91,
2.847,-7.75,-4.74,-0.70,0.70,-2.30,0.93,
2.847,-7.75,-4.74,-0.70,0.73,-2.28,0.94,
2.85,-7.75,-4.74,-0.70,0.79,-2.24,0.95,
2.86,-7.13,-2.21,-1.69,0.79,-2.24,0.95,
2.861,-7.13,-2.21,-1.69,0.83,-2.18,0.96,
2.861,-7.13,-2.21,-1.69,0.87,-2.13,0.96,
2.861,-7.13,-2.21,-1.69,0.91,-2.03,0.96,
2.861,-7.13,-2.21,-1.69,0.91,-1.99,0.96,
2.861,-7.13,-2.21,-1.69,0.92,-1.90,0.95,
2.862,-6.08,0.35,-2.75,0.92,-1.90,0.95,
2.862,-6.08,0.35,-2.75,0.92,-1.78,0.93,
2.864,-6.08,0.35,-2.75,0.90,-1.63,0.91,
2.869,-6.08,0.35,-2.75,0.86,-1.32,0.86,
2.877,-6.08,0.35,-2.75,0.84,-1.18,0.83,
2.878,-6.08,0.35,-2.75,0.77,-0.87,0.78,
2.878,-4.91,2.67,-3.52,0.77,-0.87,0.78,
2.878,-4.91,2.67,-3.52,0.69,-0.55,0.73,
2.878,-4.91,2.67,-3.52,0.60,-0.22,0.68,
2.878,-4.91,2.67,-3.52,0.43,0.25,0.61,
2.879,-4.91,2.67,-3.52,0.37,0.41,0.59,
2.879,-4.91,2.67,-3.52,0.24,0.71,0.54,
2.883,-3.80,4.27,-4.42,0.24,0.71,0.54,
2.885,-3.80,4.27,-4.42,0.10,0.99,0.50,
2.888,-3.80,4.27,-4.42,-0.04,1.25,0.46,
2.888,-3.80,4.27,-4.42,-0.27,1.59,0.41,
2.889,-3.80,4.27,-4.42,-0.35,1.69,0.39,
2.892,-3.80,4.27,-4.42,-0.50,1.87,0.36,
2.898,-2.83,5.29,-5.26,-0.50,1.87,0.36,
2.898,-2.83,5.29,-5.26,-0.67,2.02,0.33,
2.899,-2.83,5.29,-5.26,-0.83,2.14,0.30,
2.923,-2.83,5.29,-5.26,-1.07,2.28,0.28,
2.923,-2.83,5.29,-5.26,-1.15,2.31,0.27,
2.923,-2.83,5.29,-5.26,-1.30,2.36,0.27,
2.923,-2.20,5.07,-5.10,-1.30,2.36,0.27,
2.924,-2.20,5.07,-5.10,-1.45,2.38,0.28,
2.924,-2.20,5.07,-5.10,-1.60,2.37,0.30,
2.925,-2.20,5.07,-5.10,-1.81,2.31,0.33,
2.925,-2.20,5.07,-5.10,-1.87,2.28,0.35,
2.925,-2.20,5.07,-5.10,-2.00,2.18,0.37,
2.925,-1.68,4.02,-4.38,-2.00,2.18,0.37,
2.926,-1.68,4.02,-4.38,-2.11,2.06,0.39,
2.926,-1.68,4.02,-4.38,-2.21,1.90,0.42,
2.926,-1.68,4.02,-4.38,-2.34,1.59,0.44,
2.927,-1.68,4.02,-4.38,-2.37,1.47,0.45,
2.927,-1.68,4.02,-4.38,-2.42,1.20,0.46,
2.927,0.12,1.99,-2.61,-2.42,1.20,0.46,
2.927,0.12,1.99,-2.61,-2.46,0.90,0.48,
2.928,0.12,1.99,-2.61,-2.49,0.58,0.49,
2.928,0.12,1.99,-2.61,-2.51,0.06,0.50,
2.928,0.12,1.99,-2.61,-2.51,-0.12,0.49,
2.934,0.12,1.99,-2.61,-2.51,-0.48,0.49,
2.935,1.84,-0.02,-1.58,-2.51,-0.48,0.49,
2.935,1.84,-0.02,-1.58,-2.49,-0.84,0.47,
2.935,1.84,-0.02,-1.58,-2.47,-1.20,0.45,
2.938,1.84,-0.02,-1.58,-2.43,-1.73,0.40,
2.938,1.84,-0.02,-1.58,-2.42,-1.90,0.39,
2.94,1.84,-0.02,-1.58,-2.40,-2.24,0.35,
2.942,3.01,-1.33,-1.99,-2.40,-2.24,0.35,
2.943,3.01,-1.33,-1.99,-2.37,-2.57,0.30,
2.943,3.01,-1.33,-1.99,-2.35,-2.90,0.25,
2.949,3.01,-1.33,-1.99,-2.31,-3.36,0.18,
2.949,3.01,-1.33,-1.99,-2.30,-3.51,0.16,
2.95,3.01,-1.33,-1.99,-2.28,-3.79,0.11,
2.959,3.51,-2.71,-2.78,-2.28,-3.79,0.11,
2.96,3.51,-2.71,-2.78,-2.26,-4.07,0.06,
2.96,3.51,-2.71,-2.78,-2.25,-4.32,0.01,
2.96,3.51,-2.71,-2.78,-2.22,-4.66,-0.07,
2.961,3.51,-2.71,-2.78,-2.21,-4.76,-0.09,
2.965,3.51,-2.71,-2.78,-2.20,-4.93,-0.14,
2.965,3.39,-3.93,-3.01,-2.20,-4.93,-0.14,
2.966,3.39,-3.93,-3.01,-2.19,-5.08,-0.19,
2.966,3.39,-3.93,-3.01,-2.17,-5.20,-0.24,
2.98,3.39,-3.93,-3.01,-2.15,-5.32,-0.31,
2.98,3.39,-3.93,-3.01,-2.14,-5.35,-0.33,
2.981,3.39,-3.93,-3.01,-2.12,-5.39,-0.38,
2.981,3.46,-4.41,-2.83,-2.12,-5.39,-0.38,
2.981,3.46,-4.41,-2.83,-2.09,-5.41,-0.42,
2.981,3.46,-4.41,-2.83,-2.05,-5.42,-0.47,
2.981,3.46,-4.41,-2.83,-1.97,-5.40,-0.54,
2.985,3.46,-4.41,-2.83,-1.94,-5.39,-0.56,
2.985,3.46,-4.41,-2.83,-1.88,-5.35,-0.62,
3.008,3.81,-4.05,-2.16,-1.88,-5.35,-0.62,
3.008,3.81,-4.05,-2.16,-1.82,-5.29,-0.68,
3.009,3.81,-4.05,-2.16,-1.75,-5.21,-0.74,
3.009,3.81,-4.05,-2.16,-1.66,-5.06,-0.83,
3.009,3.81,-4.05,-2.16,-1.63,-4.99,-0.87,
3.01,3.81,-4.05,-2.16,-1.56,-4.85,-0.93,
3.01,4.26,-3.57,-1.97,-1.56,-4.85,-0.93,
3.01,4.26,-3.57,-1.97,-1.50,-4.70,-0.99,
3.01,4.26,-3.57,-1.97,-1.44,-4.53,-1.05,
3.011,4.26,-3.57,-1.97,-1.36,-4.25,-1.13,
3.011,4.26,-3.57,-1.97,-1.34,-4.15,-1.15,
3.011,4.26,-3.57,-1.97,-1.30,-3.94,-1.20,
3.011,3.62,-2.93,-2.08,-1.30,-3.94,-1.20,
3.012,3.62,-2.93,-2.08,-1.25,-3.72,-1.24,
3.012,3.62,-2.93,-2.08,-1.22,-3.49,-1.27,
3.012,3.62,-2.93,-2.08,-1.16,-3.15,-1.32,
3.012,3.62,-2.93,-2.08,-1.13,-2.92,-1.35,
3.012,3.62,-2.93,-2.08,-1.12,-2.81,-1.36,
3.013,3.10,-2.16,-1.74,-1.12,-2.81,-1.36,
3.013,3.10,-2.16,-1.74,-1.10,-2.57,-1.39,
3.016,3.10,-2.16,-1.74,-1.06,-2.31,-1.42,
3.022,3.10,-2.16,-1.74,-1.01,-1.86,-1.46,
3.022,3.10,-2.16,-1.74,-0.99,-1.69,-1.47,
3.023,3.10,-2.16,-1.74,-0.96,-1.33,-1.48,
3.023,3.90,-1.46,1.86,-0.96,-1.33,-1.48,
3.023,3.90,-1.46,1.86,-0.93,-0.97,-1.50,
3.024,3.90,-1.46,1.86,-0.90,-0.61,-1.51,
3.028,3.90,-1.46,1.86,-0.85,-0.10,-1.51,
3.03,3.90,-1.46,1.86,-0.83,0.06,-1.51,
3.03,3.90,-1.46,1.86,-0.78,0.37,-1.49,
3.032,4.06,-0.51,4.53,-0.78,0.37,-1.49,
3.033,4.06,-0.51,4.53,-0.74,0.64,-1.47,
3.045,4.06,-0.51,4.53,-0.70,0.87,-1.44,
3.046,4.06,-0.51,4.53,-0.63,1.17,-1.38,
3.046,4.06,-0.51,4.53,-0.61,1.26,-1.36,
3.046,4.06,-0.51,4.53,-0.56,1.40,-1.30,
3.046,2.75,0.35,4.92,-0.56,1.40,-1.30,
3.047,2.75,0.35,4.92,-0.52,1.51,-1.24,
3.047,2.75,0.35,4.92,-0.48,1.59,-1.17,
3.047,2.75,0.35,4.92,-0.42,1.67,-1.05,
3.049,2.75,0.35,4.92,-0.40,1.68,-1.00,
3.052,2.75,0.35,4.92,-0.37,1.68,-0.91,
3.053,1.50,0.92,4.20,-0.37,1.68,-0.91,
3.053,1.50,0.92,4.20,-0.35,1.67,-0.82,
3.054,1.50,0.92,4.20,-0.33,1.64,-0.73,
3.057,1.50,0.92,4.20,-0.31,1.57,-0.58,
3.058,1.50,0.92,4.20,-0.30,1.54,-0.53,
3.06,1.50,0.92,4.20,-0.29,1.47,-0.43,
3.062,0.62,1.14,2.87,-0.29,1.47,-0.43,
3.077,0.62,1.14,2.87,-0.28,1.40,-0.33,
3.077,0.62,1.14,2.87,-0.28,1.32,-0.23,
3.077,0.62,1.14,2.87,-0.28,1.20,-0.11,
3.078,0.62,1.14,2.87,-0.28,1.16,-0.07,
3.078,0.62,1.14,2.87,-0.28,1.08,-0.01,
3.078,0.46,0.92,2.02,-0.28,1.08,-0.01,
3.078,0.46,0.92,2.02,-0.29,1.00,0.05,
3.078,0.46,0.92,2.02,-0.29,0.92,0.09,
3.078,0.46,0.92,2.02,-0.31,0.81,0.12,
3.078,0.46,0.92,2.02,-0.31,0.77,0.13,
3.082,0.46,0.92,2.02,-0.33,0.69,0.13,
3.083,0.84,0.60,1.71,-0.33,0.69,0.13,
3.083,0.84,0.60,1.71,-0.34,0.61,0.12,
3.084,0.84,0.60,1.71,-0.35,0.53,0.11,
3.087,0.84,0.60,1.71,-0.37,0.40,0.09,
3.088,0.84,0.60,1.71,-0.38,0.36,0.08,
3.089,0.84,0.60,1.71,-0.39,0.27,0.07,
3.092,0.61,0.38,1.89,-0.39,0.27,0.07,
3.092,0.61,0.38,1.89,-0.40,0.18,0.05,
3.094,0.61,0.38,1.89,-0.41,0.09,0.03,
3.096,0.61,0.38,1.89,-0.42,-0.06,0.02,
3.098,0.61,0.38,1.89,-0.42,-0.10,0.01,
3.1,0.61,0.38,1.89,-0.42,-0.20,0.00,
3.102,-0.11,0.35,2.46,-0.42,-0.20,0.00,
3.102,-0.11,0.35,2.46,-0.41,-0.31,-0.00,
3.104,-0.11,0.35,2.46,-0.41,-0.40,-0.01,
3.106,-0.11,0.35,2.46,-0.39,-0.56,-0.01,
3.107,-0.11,0.35,2.46,-0.38,-0.61,-0.00,
3.109,-0.11,0.35,2.46,-0.36,-0.71,-0.00,
3.112,-0.76,0.52,3.46,-0.36,-0.71,-0.00,
3.112,-0.76,0.52,3.46,-0.34,-0.81,0.00,
3.114,-0.76,0.52,3.46,-0.31,-0.90,0.01,
3.12,-0.76,0.52,3.46,-0.27,-1.04,0.02,
3.12,-0.76,0.52,3.46,-0.25,-1.09,0.03,
3.123,-0.76,0.52,3.46,-0.20,-1.21,0.04,
3.124,-0.78,0.58,4.20,-0.20,-1.21,0.04,
3.124,-0.78,0.58,4.20,-0.18,-1.26,0.05,
3.131,-0.78,0.58,4.20,-0.15,-1.34,0.06,
3.131,-0.78,0.58,4.20,-0.10,-1.45,0.07,
3.14,-0.78,0.58,4.20,-0.08,-1.48,0.07,
3.141,-0.78,0.58,4.20,-0.05,-1.55,0.08,
3.141,-0.11,0.53,4.80,-0.05,-1.55,0.08,
3.141,-0.11,0.53,4.80,-0.02,-1.62,0.09,
3.141,-0.11,0.53,4.80,0.02,-1.68,0.10,
3.141,-0.11,0.53,4.80,0.07,-1.76,0.11,
3.141,-0.11,0.53,4.80,0.08,-1.79,0.11,
3.141,-0.11,0.53,4.80,0.12,-1.84,0.11,
3.143,0.67,0.46,5.10,0.12,-1.84,0.11,
3.143,0.67,0.46,5.10,0.15,-1.88,0.12,
3.144,0.67,0.46,5.10,0.18,-1.93,0.12,
3.147,0.67,0.46,5.10,0.24,-1.98,0.13,
3.147,0.67,0.46,5.10,0.25,-2.00,0.13,
3.15,0.67,0.46,5.10,0.29,-2.03,0.14,
3.152,1.32,0.50,5.62,0.29,-2.03,0.14,
3.152,1.32,0.50,5.62,0.32,-2.06,0.14,
3.154,1.32,0.50,5.62,0.36,-2.08,0.15,
3.156,1.32,0.50,5.62,0.42,-2.12,0.15,
3.157,1.32,0.50,5.62,0.43,-2.12,0.15,
3.159,1.32,0.50,5.62,0.47,-2.13,0.16,
3.162,1.68,0.63,5.93,0.47,-2.13,0.16,
3.162,1.68,0.63,5.93,0.51,-2.14,0.17,
3.164,1.68,0.63,5.93,0.56,-2.15,0.17,
3.166,1.68,0.63,5.93,0.62,-2.15,0.17,
3.168,1.68,0.63,5.93,0.64,-2.15,0.18,
3.17,1.68,0.63,5.93,0.69,-2.14,0.18,
3.172,1.83,0.93,6.82,0.69,-2.14,0.18,
3.172,1.83,0.93,6.82,0.73,-2.13,0.18,
3.173,1.83,0.93,6.82,0.77,-2.11,0.19,
3.176,1.83,0.93,6.82,0.83,-2.06,0.19,
3.177,1.83,0.93,6.82,0.84,-2.04,0.20,
3.18,1.83,0.93,6.82,0.87,-2.00,0.20,
3.182,1.72,1.34,6.95,0.87,-2.00,0.20,
3.184,1.72,1.34,6.95,0.90,-1.95,0.20,
3.184,1.72,1.34,6.95,0.92,-1.89,0.21,
3.186,1.72,1.34,6.95,0.95,-1.80,0.21,
3.187,1.72,1.34,6.95,0.96,-1.77,0.21,
3.19,1.72,1.34,6.95,0.98,-1.70,0.22,
3.192,1.43,1.88,6.42,0.98,-1.70,0.22,
3.192,1.43,1.88,6.42,0.99,-1.64,0.22,
3.193,1.43,1.88,6.42,1.00,-1.57,0.23,
3.196,1.43,1.88,6.42,1.02,-1.45,0.23,
3.197,1.43,1.88,6.42,1.02,-1.41,0.23,
3.2,1.43,1.88,6.42,1.03,-1.34,0.23,
3.202,1.05,2.27,4.97,1.03,-1.34,0.23,
3.203,1.05,2.27,4.97,1.04,-1.25,0.23,
3.204,1.05,2.27,4.97,1.06,-1.17,0.23,
3.206,1.05,2.27,4.97,1.08,-1.04,0.21,
3.207,1.05,2.27,4.97,1.08,-1.00,0.21,
3.209,1.05,2.27,4.97,1.10,-0.92,0.20,
3.212,0.85,2.44,3.59,1.10,-0.92,0.20,
3.212,0.85,2.44,3.59,1.11,-0.83,0.19,
3.214,0.85,2.44,3.59,1.12,-0.75,0.17,
3.216,0.85,2.44,3.59,1.14,-0.63,0.15,
3.218,0.85,2.44,3.59,1.14,-0.59,0.14,
3.22,0.85,2.44,3.59,1.14,-0.51,0.11,
3.222,0.84,2.13,1.02,1.14,-0.51,0.11,
3.222,0.84,2.13,1.02,1.13,-0.44,0.09,
3.223,0.84,2.13,1.02,1.12,-0.37,0.07,
3.226,0.84,2.13,1.02,1.09,-0.27,0.04,
3.227,0.84,2.13,1.02,1.08,-0.25,0.03,
3.247,0.84,2.13,1.02,1.06,-0.20,0.01,
3.248,1.12,1.58,-2.75,1.06,-0.20,0.01,
3.248,1.12,1.58,-2.75,1.03,-0.15,0.00,
3.249,1.12,1.58,-2.75,1.00,-0.11,-0.00,
3.249,1.12,1.58,-2.75,0.97,-0.05,-0.01,
3.249,1.12,1.58,-2.75,0.96,-0.03,-0.01,
3.25,1.12,1.58,-2.75,0.94,0.00,-0.01,
3.25,1.31,1.95,-4.80,0.94,0.00,-0.01,
3.251,1.31,1.95,-4.80,0.93,0.04,-0.02,
3.251,1.31,1.95,-4.80,0.92,0.09,-0.03,
3.251,1.31,1.95,-4.80,0.90,0.15,-0.04,
3.251,1.31,1.95,-4.80,0.90,0.18,-0.05,
3.252,1.31,1.95,-4.80,0.89,0.22,-0.06,
3.252,1.65,2.89,-5.07,0.89,0.22,-0.06,
3.252,1.65,2.89,-5.07,0.89,0.26,-0.07,
3.269,1.65,2.89,-5.07,0.89,0.30,-0.08,
3.272,1.65,2.89,-5.07,0.90,0.35,-0.09,
3.272,1.65,2.89,-5.07,0.90,0.36,-0.10,
3.272,1.65,2.89,-5.07,0.91,0.40,-0.11,
3.272,1.65,4.26,-4.17,0.91,0.40,-0.11,
3.272,1.65,4.26,-4.17,0.91,0.43,-0.13,
3.272,1.65,4.26,-4.17,0.92,0.46,-0.14,
3.272,1.65,4.26,-4.17,0.93,0.49,-0.16,
3.273,1.65,4.26,-4.17,0.93,0.50,-0.17,
3.273,1.65,4.26,-4.17,0.94,0.52,-0.18,
3.273,1.86,5.42,-3.69,0.94,0.52,-0.18,
3.273,1.86,5.42,-3.69,0.94,0.54,-0.20,
3.28,1.86,5.42,-3.69,0.95,0.56,-0.21,
3.281,1.86,5.42,-3.69,0.95,0.59,-0.24,
3.281,1.86,5.42,-3.69,0.95,0.60,-0.25,
3.281,1.86,5.42,-3.69,0.95,0.62,-0.26,
3.292,1.88,6.46,-3.37,0.95,0.62,-0.26,
3.293,1.88,6.46,-3.37,0.94,0.64,-0.28,
3.293,1.88,6.46,-3.37,0.93,0.66,-0.30,
3.293,1.88,6.46,-3.37,0.90,0.67,-0.32,
3.293,1.88,6.46,-3.37,0.87,0.68,-0.33,
3.294,1.88,6.46,-3.37,0.85,0.68,-0.33,
3.297,1.80,7.16,-3.97,0.85,0.68,-0.33,
3.297,1.80,7.16,-3.97,0.81,0.67,-0.34,
3.297,1.80,7.16,-3.97,0.77,0.66,-0.35,
3.303,1.80,7.16,-3.97,0.69,0.63,-0.34,
3.303,1.80,7.16,-3.97,0.66,0.62,-0.34,
3.304,1.80,7.16,-3.97,0.59,0.59,-0.32,
3.304,1.25,6.95,-4.42,0.59,0.59,-0.32,
3.304,1.25,6.95,-4.42,0.51,0.55,-0.30,
3.309,1.25,6.95,-4.42,0.42,0.51,-0.28,
3.309,1.25,6.95,-4.42,0.28,0.45,-0.23,
3.309,1.25,6.95,-4.42,0.23,0.42,-0.22,
3.309,1.25,6.95,-4.42,0.14,0.37,-0.19,
3.313,0.70,4.54,-4.51,0.14,0.37,-0.19,
3.313,0.70,4.54,-4.51,0.04,0.30,-0.16,
3.314,0.70,4.54,-4.51,-0.05,0.23,-0.14,
3.322,0.70,4.54,-4.51,-0.18,0.10,-0.10,
3.325,0.70,4.54,-4.51,-0.22,0.06,-0.09,
3.325,0.70,4.54,-4.51,-0.29,-0.05,-0.07,
3.325,0.75,1.46,-2.09,-0.29,-0.05,-0.07,
3.326,0.75,1.46,-2.09,-0.34,-0.17,-0.05,
3.326,0.75,1.46,-2.09,-0.38,-0.31,-0.04,
3.327,0.75,1.46,-2.09,-0.41,-0.55,-0.02,
3.328,0.75,1.46,-2.09,-0.40,-0.65,-0.02,
3.33,0.75,1.46,-2.09,-0.38,-0.84,-0.02,
3.334,1.53,-1.67,3.12,-0.38,-0.84,-0.02,
3.334,1.53,-1.67,3.12,-0.34,-1.06,-0.03,
3.334,1.53,-1.67,3.12,-0.27,-1.28,-0.04,
3.337,1.53,-1.67,3.12,-0.15,-1.58,-0.06,
3.338,1.53,-1.67,3.12,-0.06,-1.75,-0.07,
3.341,1.53,-1.67,3.12,-0.02,-1.82,-0.08,
3.342,2.29,-3.49,6.01,-0.02,-1.82,-0.08,
3.343,2.29,-3.49,6.01,0.05,-1.92,-0.09,
3.345,2.29,-3.49,6.01,0.12,-1.96,-0.10,
3.347,2.29,-3.49,6.01,0.20,-1.93,-0.11,
3.351,2.29,-3.49,6.01,0.22,-1.89,-0.11,
3.352,2.29,-3.49,6.01,0.26,-1.78,-0.12,
3.352,2.03,-2.34,2.31,0.26,-1.78,-0.12,
3.353,2.03,-2.34,2.31,0.28,-1.64,-0.11,
3.354,2.03,-2.34,2.31,0.30,-1.46,-0.11,
3.357,2.03,-2.34,2.31,0.32,-1.16,-0.09,
3.358,2.03,-2.34,2.31,0.33,-1.06,-0.08,
3.36,2.03,-2.34,2.31,0.35,-0.85,-0.07,
3.362,0.89,-0.10,-1.09,0.35,-0.85,-0.07,
3.362,0.89,-0.10,-1.09,0.38,-0.64,-0.05,
3.364,0.89,-0.10,-1.09,0.41,-0.44,-0.02,
3.368,0.89,-0.10,-1.09,0.48,-0.16,0.03,
3.368,0.89,-0.10,-1.09,0.50,-0.07,0.05,
3.37,0.89,-0.10,-1.09,0.55,0.09,0.08,
3.373,-0.76,1.49,-1.29,0.55,0.09,0.08,
3.373,-0.76,1.49,-1.29,0.61,0.23,0.12,
3.374,-0.76,1.49,-1.29,0.67,0.36,0.16,
3.377,-0.76,1.49,-1.29,0.75,0.52,0.23,
3.378,-0.76,1.49,-1.29,0.78,0.56,0.25,
3.383,-0.76,1.49,-1.29,0.84,0.65,0.30,
3.383,-2.22,2.28,-0.28,0.84,0.65,0.30,
3.383,-2.22,2.28,-0.28,0.90,0.74,0.34,
3.4,-2.22,2.28,-0.28,0.95,0.81,0.38,
3.405,-2.22,2.28,-0.28,1.01,0.91,0.45,
3.406,-2.22,2.28,-0.28,1.05,0.97,0.49,
3.407,-2.22,2.28,-0.28,1.06,1.00,0.51,
3.408,-3.27,2.39,-0.77,1.06,1.00,0.51,
3.408,-3.27,2.39,-0.77,1.08,1.05,0.55,
3.409,-3.27,2.39,-0.77,1.09,1.09,0.60,
3.438,-3.27,2.39,-0.77,1.10,1.14,0.66,
3.439,-3.27,2.39,-0.77,1.09,1.15,0.68,
3.439,-3.27,2.39,-0.77,1.09,1.18,0.72,
3.439,-3.33,2.15,-2.20,1.09,1.18,0.72,
3.439,-3.33,2.15,-2.20,1.08,1.19,0.76,
3.44,-3.33,2.15,-2.20,1.06,1.20,0.80,
3.44,-3.33,2.15,-2.20,1.04,1.21,0.86,
3.44,-3.33,2.15,-2.20,1.03,1.20,0.88,
3.441,-3.33,2.15,-2.20,1.03,1.20,0.92,
3.441,-3.57,1.89,-2.07,1.03,1.20,0.92,
3.441,-3.57,1.89,-2.07,1.02,1.20,0.97,
3.441,-3.57,1.89,-2.07,1.02,1.19,1.01,
3.442,-3.57,1.89,-2.07,1.04,1.18,1.06,
3.442,-3.57,1.89,-2.07,1.05,1.17,1.07,
3.442,-3.57,1.89,-2.07,1.09,1.14,1.10,
3.443,-3.63,1.49,1.62,1.09,1.14,1.10,
3.443,-3.63,1.49,1.62,1.14,1.11,1.12,
3.443,-3.63,1.49,1.62,1.20,1.06,1.13,
3.443,-3.63,1.49,1.62,1.33,0.96,1.11,
3.444,-3.63,1.49,1.62,1.38,0.92,1.10,
3.444,-3.63,1.49,1.62,1.47,0.82,1.06,
3.444,-2.06,0.81,7.47,1.47,0.82,1.06,
3.445,-2.06,0.81,7.47,1.57,0.71,1.01,
3.445,-2.06,0.81,7.47,1.66,0.57,0.94,
3.445,-2.06,0.81,7.47,1.80,0.29,0.80,
3.445,-2.06,0.81,7.47,1.83,0.21,0.76,
3.446,-2.06,0.81,7.47,1.85,0.14,0.72,
3.446,-0.03,0.10,7.42,1.85,0.14,0.72,
3.446,-0.03,0.10,7.42,1.87,-0.00,0.65,
3.447,-0.03,0.10,7.42,1.87,-0.13,0.58,
3.447,-0.03,0.10,7.42,1.85,-0.30,0.49,
3.457,-0.03,0.10,7.42,1.82,-0.40,0.44,
3.458,-0.03,0.10,7.42,1.81,-0.44,0.42,
3.459,-0.14,-0.72,4.04,1.81,-0.44,0.42,
3.459,-0.14,-0.72,4.04,1.78,-0.52,0.39,
3.459,-0.14,-0.72,4.04,1.75,-0.61,0.37,
3.459,-0.14,-0.72,4.04,1.74,-0.68,0.37,
3.46,-0.14,-0.72,4.04,1.75,-0.70,0.37,
3.46,-0.14,-0.72,4.04,1.77,-0.77,0.39,
3.464,-2.08,-2.39,3.97,1.77,-0.77,0.39,
3.464,-2.08,-2.39,3.97,1.83,-0.87,0.43,
3.471,-2.08,-2.39,3.97,1.89,-0.94,0.47,
3.473,-2.08,-2.39,3.97,1.96,-1.03,0.51,
3.473,-2.08,-2.39,3.97,2.00,-1.07,0.54,
3.473,-2.08,-2.39,3.97,2.13,-1.23,0.62,
3.473,-4.10,-4.22,5.30,2.13,-1.23,0.62,
3.474,-4.10,-4.22,5.30,2.23,-1.33,0.68,
3.474,-4.10,-4.22,5.30,2.32,-1.44,0.74,
3.477,-4.10,-4.22,5.30,2.42,-1.56,0.80,
3.478,-4.10,-4.22,5.30,2.53,-1.66,0.86,
3.48,-4.10,-4.22,5.30,2.58,-1.70,0.89,
3.482,-5.00,-5.40,5.21,2.58,-1.70,0.89,
3.483,-5.00,-5.40,5.21,2.73,-1.81,0.96,
3.484,-5.00,-5.40,5.21,2.84,-1.86,1.01,
3.488,-5.00,-5.40,5.21,2.99,-1.88,1.07,
3.488,-5.00,-5.40,5.21,3.04,-1.87,1.09,
3.49,-5.00,-5.40,5.21,3.13,-1.85,1.11,
3.493,-5.09,-6.28,4.47,3.13,-1.85,1.11,
3.493,-5.09,-6.28,4.47,3.21,-1.79,1.14,
3.494,-5.09,-6.28,4.47,3.28,-1.71,1.14,
3.497,-5.09,-6.28,4.47,3.33,-1.62,1.15,
3.498,-5.09,-6.28,4.47,3.37,-1.50,1.14,
3.5,-5.09,-6.28,4.47,3.40,-1.39,1.13,
3.502,-4.35,-6.85,2.21,3.40,-1.39,1.13,
3.503,-4.35,-6.85,2.21,3.42,-1.27,1.12,
3.504,-4.35,-6.85,2.21,3.42,-1.14,1.10,
3.509,-4.35,-6.85,2.21,3.40,-0.90,1.04,
3.509,-4.35,-6.85,2.21,3.40,-0.90,1.04,
3.51,-4.35,-6.85,2.21,3.37,-0.78,1.01,
3.512,-3.19,-7.06,-0.77,3.37,-0.78,1.01,
3.512,-3.19,-7.06,-0.77,3.34,-0.65,0.98,
3.516,-3.19,-7.06,-0.77,3.31,-0.53,0.95,
3.517,-3.19,-7.06,-0.77,3.28,-0.40,0.92,
3.518,-3.19,-7.06,-0.77,3.24,-0.25,0.88,
3.522,-3.19,-7.06,-0.77,3.21,-0.10,0.85,
3.522,-2.18,-7.85,-1.56,3.21,-0.10,0.85,
3.523,-2.18,-7.85,-1.56,3.17,0.06,0.82,
3.524,-2.18,-7.85,-1.56,3.14,0.23,0.79,
3.527,-2.18,-7.85,-1.56,3.11,0.40,0.76,
3.527,-2.18,-7.85,-1.56,3.08,0.58,0.73,
3.529,-2.18,-7.85,-1.56,3.04,0.75,0.69,
3.538,-1.69,-10.18,-0.34,3.04,0.75,0.69,
3.539,-1.69,-10.18,-0.34,3.01,0.91,0.65,
3.539,-1.69,-10.18,-0.34,2.98,1.05,0.61,
3.544,-1.69,-10.18,-0.34,2.93,1.23,0.54,
3.544,-1.69,-10.18,-0.34,2.91,1.27,0.52,
3.545,-1.69,-10.18,-0.34,2.86,1.31,0.46,
3.545,-1.65,-13.27,0.29,2.86,1.31,0.46,
3.545,-1.65,-13.27,0.29,2.80,1.30,0.41,
3.546,-1.65,-13.27,0.29,2.72,1.23,0.35,
3.547,-1.65,-13.27,0.29,2.61,1.11,0.30,
3.562,-1.65,-13.27,0.29,2.50,0.94,0.26,
3.563,-1.65,-13.27,0.29,2.36,0.72,0.22,
3.563,-2.94,-14.87,-3.21,2.36,0.72,0.22,
3.563,-2.94,-14.87,-3.21,2.21,0.44,0.19,
3.563,-2.94,-14.87,-3.21,2.03,0.11,0.15,
3.563,-2.94,-14.87,-3.21,1.84,-0.27,0.12,
3.563,-2.94,-14.87,-3.21,1.64,-0.68,0.09,
3.564,-2.94,-14.87,-3.21,1.45,-1.07,0.07,
3.564,-4.76,-13.20,-7.26,1.45,-1.07,0.07,
3.576,-4.76,-13.20,-7.26,1.28,-1.43,0.06,
3.576,-4.76,-13.20,-7.26,1.12,-1.75,0.03,
3.576,-4.76,-13.20,-7.26,0.96,-2.03,-0.00,
3.576,-4.76,-13.20,-7.26,0.82,-2.26,-0.05,
3.576,-4.76,-13.20,-7.26,0.68,-2.43,-0.10,
3.576,-4.87,-8.53,-7.98,0.68,-2.43,-0.10,
3.577,-4.87,-8.53,-7.98,0.56,-2.52,-0.16,
3.577,-4.87,-8.53,-7.98,0.46,-2.57,-0.21,
3.577,-4.87,-8.53,-7.98,0.37,-2.56,-0.26,
3.58,-4.87,-8.53,-7.98,0.30,-2.52,-0.30,
3.58,-4.87,-8.53,-7.98,0.24,-2.45,-0.34,
3.582,-4.45,-3.45,-5.63,0.24,-2.45,-0.34,
3.583,-4.45,-3.45,-5.63,0.20,-2.36,-0.37,
3.583,-4.45,-3.45,-5.63,0.17,-2.26,-0.39,
3.586,-4.45,-3.45,-5.63,0.15,-2.14,-0.41,
3.588,-4.45,-3.45,-5.63,0.15,-2.02,-0.41,
3.589,-4.45,-3.45,-5.63,0.16,-1.88,-0.41,
3.592,-4.90,-0.14,-2.28,0.16,-1.88,-0.41,
3.592,-4.90,-0.14,-2.28,0.18,-1.74,-0.39,
3.594,-4.90,-0.14,-2.28,0.20,-1.62,-0.37,
3.597,-4.90,-0.14,-2.28,0.23,-1.50,-0.34,
3.598,-4.90,-0.14,-2.28,0.26,-1.38,-0.30,
3.599,-4.90,-0.14,-2.28,0.28,-1.27,-0.25,
3.602,-4.69,0.94,-0.45,0.28,-1.27,-0.25,
3.602,-4.69,0.94,-0.45,0.31,-1.16,-0.20,
3.604,-4.69,0.94,-0.45,0.33,-1.06,-0.15,
3.606,-4.69,0.94,-0.45,0.35,-0.97,-0.09,
3.607,-4.69,0.94,-0.45,0.35,-0.89,-0.03,
3.609,-4.69,0.94,-0.45,0.35,-0.82,0.02,
3.612,-3.40,0.85,-1.46,0.35,-0.82,0.02,
3.612,-3.40,0.85,-1.46,0.34,-0.76,0.08,
3.614,-3.40,0.85,-1.46,0.32,-0.71,0.13,
3.616,-3.40,0.85,-1.46,0.29,-0.68,0.18,
3.617,-3.40,0.85,-1.46,0.26,-0.65,0.23,
3.619,-3.40,0.85,-1.46,0.22,-0.64,0.29,
3.622,-1.78,0.77,-3.63,0.22,-0.64,0.29,
3.622,-1.78,0.77,-3.63,0.18,-0.63,0.34,
3.624,-1.78,0.77,-3.63,0.13,-0.64,0.38,
3.626,-1.78,0.77,-3.63,0.06,-0.67,0.45,
3.627,-1.78,0.77,-3.63,0.03,-0.68,0.47,
3.63,-1.78,0.77,-3.63,-0.02,-0.72,0.50,
3.632,-0.44,1.08,-5.35,-0.02,-0.72,0.50,
3.632,-0.44,1.08,-5.35,-0.07,-0.76,0.53,
3.634,-0.44,1.08,-5.35,-0.12,-0.80,0.55,
3.636,-0.44,1.08,-5.35,-0.18,-0.86,0.59,
3.637,-0.44,1.08,-5.35,-0.20,-0.88,0.60,
3.639,-0.44,1.08,-5.35,-0.23,-0.90,0.61,
3.642,0.64,1.97,-5.50,-0.23,-0.90,0.61,
3.642,0.64,1.97,-5.50,-0.26,-0.92,0.63,
3.643,0.64,1.97,-5.50,-0.28,-0.92,0.64,
3.647,0.64,1.97,-5.50,-0.30,-0.92,0.65,
3.648,0.64,1.97,-5.50,-0.31,-0.92,0.65,
3.65,0.64,1.97,-5.50,-0.33,-0.90,0.65,
3.652,1.16,2.83,-5.37,-0.33,-0.90,0.65,
3.652,1.16,2.83,-5.37,-0.34,-0.89,0.65,
3.654,1.16,2.83,-5.37,-0.36,-0.86,0.64,
3.656,1.16,2.83,-5.37,-0.38,-0.83,0.63,
3.658,1.16,2.83,-5.37,-0.40,-0.81,0.62,
3.66,1.16,2.83,-5.37,-0.42,-0.78,0.60,
3.662,1.55,3.72,-5.43,-0.42,-0.78,0.60,
3.663,1.55,3.72,-5.43,-0.45,-0.75,0.58,
3.676,1.55,3.72,-5.43,-0.48,-0.72,0.56,
3.676,1.55,3.72,-5.43,-0.52,-0.69,0.54,
3.677,1.55,3.72,-5.43,-0.55,-0.67,0.51,
3.677,1.55,3.72,-5.43,-0.59,-0.64,0.49,
3.678,1.80,4.41,-5.91,-0.59,-0.64,0.49,
3.678,1.80,4.41,-5.91,-0.63,-0.62,0.46,
3.679,1.80,4.41,-5.91,-0.67,-0.59,0.43,
3.68,1.80,4.41,-5.91,-0.72,-0.56,0.41,
3.68,1.80,4.41,-5.91,-0.77,-0.52,0.38,
3.681,1.80,4.41,-5.91,-0.81,-0.49,0.35,
3.701,2.04,5.23,-6.08,-0.81,-0.49,0.35,
3.701,2.04,5.23,-6.08,-0.86,-0.46,0.32,
3.702,2.04,5.23,-6.08,-0.91,-0.42,0.30,
3.702,2.04,5.23,-6.08,-0.99,-0.37,0.25,
3.702,2.04,5.23,-6.08,-1.02,-0.35,0.24,
3.703,2.04,5.23,-6.08,-1.07,-0.32,0.22,
3.703,2.19,5.78,-6.33,-1.07,-0.32,0.22,
3.704,2.19,5.78,-6.33,-1.12,-0.28,0.20,
3.704,2.19,5.78,-6.33,-1.17,-0.25,0.17,
3.704,2.19,5.78,-6.33,-1.25,-0.19,0.15,
3.704,2.19,5.78,-6.33,-1.28,-0.18,0.14,
3.705,2.19,5.78,-6.33,-1.32,-0.14,0.12,
3.705,2.13,6.37,-6.12,-1.32,-0.14,0.12,
3.705,2.13,6.37,-6.12,-1.38,-0.10,0.11,
3.706,2.13,6.37,-6.12,-1.43,-0.06,0.10,
3.707,2.13,6.37,-6.12,-1.50,0.00,0.09,
3.708,2.13,6.37,-6.12,-1.53,0.02,0.09,
3.71,2.13,6.37,-6.12,-1.58,0.06,0.09,
3.714,1.90,6.71,-6.18,-1.58,0.06,0.09,
3.717,1.90,6.71,-6.18,-1.63,0.10,0.09,
3.717,1.90,6.71,-6.18,-1.68,0.14,0.09,
3.718,1.90,6.71,-6.18,-1.75,0.21,0.09,
3.718,1.90,6.71,-6.18,-1.77,0.23,0.09,
3.72,1.90,6.71,-6.18,-1.82,0.28,0.09,
3.723,1.84,7.08,-5.71,-1.82,0.28,0.09,
3.723,1.84,7.08,-5.71,-1.86,0.32,0.10,
3.724,1.84,7.08,-5.71,-1.90,0.37,0.10,
3.727,1.84,7.08,-5.71,-1.96,0.44,0.11,
3.728,1.84,7.08,-5.71,-1.98,0.46,0.12,
3.754,1.84,7.08,-5.71,-2.01,0.51,0.12,
3.755,1.81,7.32,-5.22,-2.01,0.51,0.12,
3.755,1.81,7.32,-5.22,-2.04,0.55,0.13,
3.756,1.81,7.32,-5.22,-2.08,0.60,0.13,
3.756,1.81,7.32,-5.22,-2.12,0.67,0.14,
3.756,1.81,7.32,-5.22,-2.14,0.69,0.14,
3.757,1.81,7.32,-5.22,-2.16,0.74,0.14,
3.757,2.21,7.57,-4.32,-2.16,0.74,0.14,
3.758,2.21,7.57,-4.32,-2.19,0.79,0.14,
3.758,2.21,7.57,-4.32,-2.22,0.84,0.14,
3.759,2.21,7.57,-4.32,-2.25,0.91,0.13,
3.759,2.21,7.57,-4.32,-2.26,0.94,0.13,
3.759,2.21,7.57,-4.32,-2.28,1.00,0.12,
3.76,2.56,7.85,-3.49,-2.28,1.00,0.12,
3.76,2.56,7.85,-3.49,-2.29,1.05,0.12,
3.761,2.56,7.85,-3.49,-2.30,1.12,0.11,
3.761,2.56,7.85,-3.49,-2.32,1.22,0.10,
3.762,2.56,7.85,-3.49,-2.32,1.26,0.10,
3.762,2.56,7.85,-3.49,-2.33,1.34,0.09,
3.768,2.80,8.05,-2.51,-2.33,1.34,0.09,
3.768,2.80,8.05,-2.51,-2.34,1.43,0.07,
3.768,2.80,8.05,-2.51,-2.34,1.53,0.06,
3.769,2.80,8.05,-2.51,-2.37,1.68,0.03,
3.769,2.80,8.05,-2.51,-2.38,1.74,0.02,
3.771,2.80,8.05,-2.51,-2.40,1.86,0.00,
3.772,3.03,7.78,-1.81,-2.40,1.86,0.00,
3.773,3.03,7.78,-1.81,-2.43,1.97,-0.02,
3.774,3.03,7.78,-1.81,-2.46,2.10,-0.04,
3.777,3.03,7.78,-1.81,-2.52,2.30,-0.06,
3.783,3.03,7.78,-1.81,-2.55,2.36,-0.07,
3.783,3.03,7.78,-1.81,-2.60,2.50,-0.09,
3.786,2.78,6.84,-1.29,-2.60,2.50,-0.09,
3.786,2.78,6.84,-1.29,-2.65,2.65,-0.11,
3.786,2.78,6.84,-1.29,-2.71,2.78,-0.12,
3.787,2.78,6.84,-1.29,-2.79,2.97,-0.14,
3.789,2.78,6.84,-1.29,-2.81,3.01,-0.14,
3.79,2.78,6.84,-1.29,-2.83,3.03,-0.16,
3.792,2.22,5.32,2.64,-2.83,3.03,-0.16,
3.793,2.22,5.32,2.64,-2.82,2.99,-0.18,
3.794,2.22,5.32,2.64,-2.80,2.86,-0.21,
3.805,2.22,5.32,2.64,-2.75,2.53,-0.28,
3.806,2.22,5.32,2.64,-2.74,2.40,-0.31,
3.806,2.22,5.32,2.64,-2.72,2.12,-0.37,
3.806,3.51,2.73,7.93,-2.72,2.12,-0.37,
3.807,3.51,2.73,7.93,-2.71,1.83,-0.45,
3.807,3.51,2.73,7.93,-2.69,1.53,-0.53,
3.807,3.51,2.73,7.93,-2.69,1.08,-0.66,
3.808,3.51,2.73,7.93,-2.69,0.94,-0.70,
3.811,3.51,2.73,7.93,-2.69,0.68,-0.79,
3.838,5.48,0.39,7.83,-2.69,0.68,-0.79,
3.839,5.48,0.39,7.83,-2.69,0.44,-0.87,
3.839,5.48,0.39,7.83,-2.70,0.22,-0.95,
3.84,5.48,0.39,7.83,-2.71,-0.06,-1.06,
3.84,5.48,0.39,7.83,-2.71,-0.15,-1.09,
3.84,5.48,0.39,7.83,-2.71,-0.30,-1.15,
3.84,5.76,-1.20,6.23,-2.71,-0.30,-1.15,
3.841,5.76,-1.20,6.23,-2.71,-0.43,-1.20,
3.841,5.76,-1.20,6.23,-2.70,-0.53,-1.24,
3.841,5.76,-1.20,6.23,-2.68,-0.66,-1.30,
3.841,5.76,-1.20,6.23,-2.67,-0.69,-1.31,
3.841,5.76,-1.20,6.23,-2.65,-0.74,-1.33,
3.842,5.13,-2.48,5.43,-2.65,-0.74,-1.33,
3.842,5.13,-2.48,5.43,-2.62,-0.77,-1.34,
3.842,5.13,-2.48,5.43,-2.60,-0.78,-1.36,
3.843,5.13,-2.48,5.43,-2.54,-0.78,-1.36,
3.843,5.13,-2.48,5.43,-2.52,-0.77,-1.36,
3.843,5.13,-2.48,5.43,-2.48,-0.74,-1.36,
3.843,4.02,-3.47,5.13,-2.48,-0.74,-1.36,
3.843,4.02,-3.47,5.13,-2.43,-0.71,-1.35,
3.844,4.02,-3.47,5.13,-2.38,-0.67,-1.33,
3.847,4.02,-3.47,5.13,-2.29,-0.61,-1.31,
3.855,4.02,-3.47,5.13,-2.26,-0.58,-1.29,
3.855,4.02,-3.47,5.13,-2.20,-0.54,-1.27,
3.856,3.02,-4.17,5.45,-2.20,-0.54,-1.27,
3.856,3.02,-4.17,5.45,-2.14,-0.49,-1.24,
3.856,3.02,-4.17,5.45,-2.07,-0.44,-1.20,
3.857,3.02,-4.17,5.45,-1.96,-0.37,-1.14,
3.858,3.02,-4.17,5.45,-1.93,-0.35,-1.11,
3.86,3.02,-4.17,5.45,-1.85,-0.32,-1.06,
3.872,1.84,-4.31,5.80,-1.85,-0.32,-1.06,
3.873,1.84,-4.31,5.80,-1.78,-0.29,-1.01,
3.873,1.84,-4.31,5.80,-1.71,-0.26,-0.95,
3.873,1.84,-4.31,5.80,-1.59,-0.23,-0.85,
3.873,1.84,-4.31,5.80,-1.56,-0.22,-0.82,
3.874,1.84,-4.31,5.80,-1.48,-0.21,-0.74,
3.875,0.82,-3.81,6.37,-1.48,-0.21,-0.74,
3.876,0.82,-3.81,6.37,-1.41,-0.21,-0.68,
3.876,0.82,-3.81,6.37,-1.33,-0.21,-0.61,
3.879,0.82,-3.81,6.37,-1.22,-0.21,-0.54,
3.879,0.82,-3.81,6.37,-1.19,-0.21,-0.52,
3.887,0.82,-3.81,6.37,-1.12,-0.21,-0.48,
3.888,0.34,-2.72,6.64,-1.12,-0.21,-0.48,
3.888,0.34,-2.72,6.64,-1.05,-0.20,-0.46,
3.888,0.34,-2.72,6.64,-0.97,-0.19,-0.44,
3.888,0.34,-2.72,6.64,-0.86,-0.16,-0.41,
3.888,0.34,-2.72,6.64,-0.82,-0.14,-0.41,
3.89,0.34,-2.72,6.64,-0.74,-0.10,-0.40,
3.892,0.03,-1.67,7.07,-0.74,-0.10,-0.40,
3.893,0.03,-1.67,7.07,-0.66,-0.06,-0.39,
3.894,0.03,-1.67,7.07,-0.58,-0.02,-0.39,
3.911,0.03,-1.67,7.07,-0.46,0.06,-0.38,
3.911,0.03,-1.67,7.07,-0.42,0.10,-0.37,
3.911,0.03,-1.67,7.07,-0.34,0.16,-0.36,
3.911,-0.99,-0.97,7.09,-0.34,0.16,-0.36,
3.912,-0.99,-0.97,7.09,-0.27,0.24,-0.35,
3.912,-0.99,-0.97,7.09,-0.20,0.31,-0.34,
3.912,-0.99,-0.97,7.09,-0.10,0.45,-0.32,
3.912,-0.99,-0.97,7.09,-0.07,0.50,-0.31,
3.912,-0.99,-0.97,7.09,-0.02,0.60,-0.30,
3.915,-2.40,-0.31,6.64,-0.02,0.60,-0.30,
3.916,-2.40,-0.31,6.64,0.02,0.71,-0.28,
3.916,-2.40,-0.31,6.64,0.05,0.82,-0.27,
3.919,-2.40,-0.31,6.64,0.08,1.02,-0.25,
3.921,-2.40,-0.31,6.64,0.09,1.09,-0.25,
3.921,-2.40,-0.31,6.64,0.09,1.24,-0.24,
3.922,-3.37,0.36,5.43,0.09,1.24,-0.24,
3.922,-3.37,0.36,5.43,0.09,1.40,-0.23,
3.924,-3.37,0.36,5.43,0.08,1.56,-0.23,
3.926,-3.37,0.36,5.43,0.04,1.82,-0.23,
3.928,-3.37,0.36,5.43,0.02,1.91,-0.23,
3.931,-3.37,0.36,5.43,-0.03,2.09,-0.23,
3.932,-3.87,0.72,3.99,-0.03,2.09,-0.23,
3.933,-3.87,0.72,3.99,-0.08,2.27,-0.24,
3.934,-3.87,0.72,3.99,-0.15,2.45,-0.25,
3.936,-3.87,0.72,3.99,-0.27,2.70,-0.27,
3.937,-3.87,0.72,3.99,-0.31,2.78,-0.27,
3.939,-3.87,0.72,3.99,-0.40,2.94,-0.29,
3.942,-4.03,-0.10,1.75,-0.40,2.94,-0.29,
3.942,-4.03,-0.10,1.75,-0.50,3.07,-0.30,
3.944,-4.03,-0.10,1.75,-0.61,3.19,-0.31,
3.95,-4.03,-0.10,1.75,-0.77,3.33,-0.32,
3.95,-4.03,-0.10,1.75,-0.83,3.37,-0.32,
3.95,-4.03,-0.10,1.75,-0.94,3.42,-0.33,
3.957,-4.43,-1.61,-0.61,-0.94,3.42,-0.33,
3.958,-4.43,-1.61,-0.61,-1.04,3.45,-0.33,
3.959,-4.43,-1.61,-0.61,-1.13,3.45,-0.33,
3.979,-4.43,-1.61,-0.61,-1.25,3.41,-0.32,
3.979,-4.43,-1.61,-0.61,-1.28,3.38,-0.31,
3.979,-4.43,-1.61,-0.61,-1.34,3.30,-0.29,
3.979,-4.88,-3.20,-1.67,-1.34,3.30,-0.29,
3.98,-4.88,-3.20,-1.67,-1.38,3.20,-0.28,
3.98,-4.88,-3.20,-1.67,-1.41,3.07,-0.26,
3.98,-4.88,-3.20,-1.67,-1.44,2.84,-0.23,
3.98,-4.88,-3.20,-1.67,-1.44,2.74,-0.21,
3.98,-4.88,-3.20,-1.67,-1.45,2.54,-0.19,
3.98,-4.90,-4.49,-2.18,-1.45,2.54,-0.19,
3.98,-4.90,-4.49,-2.18,-1.46,2.31,-0.17,
3.981,-4.90,-4.49,-2.18,-1.46,2.06,-0.15,
3.981,-4.90,-4.49,-2.18,-1.46,1.64,-0.12,
3.981,-4.90,-4.49,-2.18,-1.46,1.49,-0.11,
3.981,-4.90,-4.49,-2.18,-1.46,1.18,-0.10,
3.983,-4.28,-5.56,-3.50,-1.46,1.18,-0.10,
3.983,-4.28,-5.56,-3.50,-1.45,0.87,-0.08,
3.983,-4.28,-5.56,-3.50,-1.43,0.54,-0.06,
3.986,-4.28,-5.56,-3.50,-1.39,0.04,-0.03,
3.987,-4.28,-5.56,-3.50,-1.38,-0.12,-0.01,
3.989,-4.28,-5.56,-3.50,-1.33,-0.44,0.02,
3.995,-4.43,-6.54,-3.76,-1.33,-0.44,0.02,
3.995,-4.43,-6.54,-3.76,-1.28,-0.75,0.05,
3.996,-4.43,-6.54,-3.76,-1.23,-1.03,0.09,
3.997,-4.43,-6.54,-3.76,-1.12,-1.42,0.15,
3.997,-4.43,-6.54,-3.76,-1.09,-1.54,0.18,
4.001,-4.43,-6.54,-3.76,-1.01,-1.76,0.23,
4.002,-5.40,-7.34,-2.44,-1.01,-1.76,0.23,
4.002,-5.40,-7.34,-2.44,-0.93,-1.93,0.28,
4.006,-5.40,-7.34,-2.44,-0.86,-2.08,0.34,
4.007,-5.40,-7.34,-2.44,-0.75,-2.17,0.42,
4.008,-5.40,-7.34,-2.44,-0.72,-2.16,0.45,
4.01,-5.40,-7.34,-2.44,-0.67,-2.07,0.50,
4.012,-6.78,-7.53,-0.70,-0.67,-2.07,0.50,
4.013,-6.78,-7.53,-0.70,-0.63,-1.85,0.55,
4.014,-6.78,-7.53,-0.70,-0.58,-1.50,0.60,
4.017,-6.78,-7.53,-0.70,-0.36,-0.75,0.70,
4.017,-6.78,-7.53,-0.70,-0.25,-0.46,0.73,
4.019,-6.78,-7.53,-0.70,-0.04,0.11,0.78,
4.022,-8.42,-8.30,8.51,-0.04,0.11,0.78,
4.022,-8.42,-8.30,8.51,0.16,0.64,0.81,
4.023,-8.42,-8.30,8.51,0.35,1.10,0.83,
4.026,-8.42,-8.30,8.51,0.61,1.60,0.84,
4.029,-8.42,-8.30,8.51,0.68,1.72,0.84,
4.03,-8.42,-8.30,8.51,0.82,1.87,0.84,
4.033,-2.98,-9.34,11.05,0.82,1.87,0.84,
4.033,-2.98,-9.34,11.05,0.93,1.93,0.84,
4.034,-2.98,-9.34,11.05,1.02,1.90,0.84,
4.036,-2.98,-9.34,11.05,1.11,1.72,0.84,
4.038,-2.98,-9.34,11.05,1.13,1.64,0.84,
4.04,-2.98,-9.34,11.05,1.16,1.43,0.84,
4.042,0.81,-8.76,6.30,1.16,1.43,0.84,
4.043,0.81,-8.76,6.30,1.18,1.19,0.84,
4.044,0.81,-8.76,6.30,1.18,0.94,0.82,
4.047,0.81,-8.76,6.30,1.19,0.57,0.79,
4.049,0.81,-8.76,6.30,1.19,0.46,0.78,
4.05,0.81,-8.76,6.30,1.20,0.23,0.74,
4.052,2.91,-7.28,2.51,1.20,0.23,0.74,
4.052,2.91,-7.28,2.51,1.20,0.03,0.70,
4.053,2.91,-7.28,2.51,1.21,-0.15,0.65,
4.056,2.91,-7.28,2.51,1.19,-0.38,0.57,
4.057,2.91,-7.28,2.51,1.18,-0.44,0.55,
4.06,2.91,-7.28,2.51,1.15,-0.53,0.49,
4.077,4.58,-5.65,1.20,1.15,-0.53,0.49,
4.093,4.58,-5.65,1.20,1.09,-0.56,0.43,
4.094,4.58,-5.65,1.20,1.01,-0.54,0.37,
4.094,4.58,-5.65,1.20,0.85,-0.40,0.30,
4.094,4.58,-5.65,1.20,0.78,-0.32,0.28,
4.094,4.58,-5.65,1.20,0.63,-0.13,0.24,
4.095,5.50,-3.98,-0.95,0.63,-0.13,0.24,
4.095,5.50,-3.98,-0.95,0.47,0.09,0.20,
4.095,5.50,-3.98,-0.95,0.32,0.31,0.15,
4.095,5.50,-3.98,-0.95,0.09,0.61,0.08,
4.095,5.50,-3.98,-0.95,0.02,0.69,0.05,
4.096,5.50,-3.98,-0.95,-0.11,0.82,-0.01,
4.096,5.73,-1.93,-2.56,-0.11,0.82,-0.01,
4.096,5.73,-1.93,-2.56,-0.22,0.91,-0.07,
4.097,5.73,-1.93,-2.56,-0.32,0.95,-0.14,
4.097,5.73,-1.93,-2.56,-0.44,0.95,-0.26,
4.097,5.73,-1.93,-2.56,-0.47,0.93,-0.29,
4.097,5.73,-1.93,-2.56,-0.53,0.88,-0.37,
4.097,5.43,-0.92,-3.32,-0.53,0.88,-0.37,
4.098,5.43,-0.92,-3.32,-0.58,0.82,-0.43,
4.098,5.43,-0.92,-3.32,-0.63,0.74,-0.50,
4.098,5.43,-0.92,-3.32,-0.68,0.60,-0.60,
4.1,5.43,-0.92,-3.32,-0.70,0.55,-0.62,
4.1,5.43,-0.92,-3.32,-0.73,0.45,-0.68,
4.103,4.23,-1.08,-3.49,-0.73,0.45,-0.68,
4.103,4.23,-1.08,-3.49,-0.76,0.35,-0.72,
4.103,4.23,-1.08,-3.49,-0.79,0.25,-0.77,
4.106,4.23,-1.08,-3.49,-0.83,0.09,-0.82,
4.107,4.23,-1.08,-3.49,-0.85,0.04,-0.83,
4.109,4.23,-1.08,-3.49,-0.87,-0.07,-0.86,
4.112,3.15,-1.53,-3.42,-0.87,-0.07,-0.86,
4.112,3.15,-1.53,-3.42,-0.90,-0.18,-0.88,
4.115,3.15,-1.53,-3.42,-0.93,-0.29,-0.89,
4.116,3.15,-1.53,-3.42,-0.96,-0.45,-0.90,
4.117,3.15,-1.53,-3.42,-0.97,-0.51,-0.90,
4.119,3.15,-1.53,-3.42,-0.99,-0.62,-0.89,
4.122,2.06,-1.75,-2.98,-0.99,-0.62,-0.89,
4.122,2.06,-1.75,-2.98,-1.01,-0.73,-0.88,
4.124,2.06,-1.75,-2.98,-1.02,-0.83,-0.87,
4.127,2.06,-1.75,-2.98,-1.04,-0.98,-0.84,
4.127,2.06,-1.75,-2.98,-1.05,-1.03,-0.83,
4.129,2.06,-1.75,-2.98,-1.05,-1.12,-0.81,
4.132,1.26,-1.39,-2.47,-1.05,-1.12,-0.81,
4.132,1.26,-1.39,-2.47,-1.06,-1.21,-0.78,
4.133,1.26,-1.39,-2.47,-1.06,-1.29,-0.76,
4.136,1.26,-1.39,-2.47,-1.05,-1.40,-0.72,
4.137,1.26,-1.39,-2.47,-1.05,-1.44,-0.70,
4.139,1.26,-1.39,-2.47,-1.05,-1.50,-0.68,
4.142,0.82,-0.56,-1.85,-1.05,-1.50,-0.68,
4.142,0.82,-0.56,-1.85,-1.04,-1.56,-0.66,
4.144,0.82,-0.56,-1.85,-1.03,-1.61,-0.64,
4.147,0.82,-0.56,-1.85,-1.03,-1.67,-0.60,
4.147,0.82,-0.56,-1.85,-1.02,-1.69,-0.59,
4.149,0.82,-0.56,-1.85,-1.02,-1.73,-0.58,
4.152,0.59,0.37,-1.34,-1.02,-1.73,-0.58,
4.152,0.59,0.37,-1.34,-1.01,-1.75,-0.56,
4.154,0.59,0.37,-1.34,-0.99,-1.78,-0.54,
4.156,0.59,0.37,-1.34,-0.98,-1.80,-0.52,
4.157,0.59,0.37,-1.34,-0.98,-1.81,-0.51,
4.159,0.59,0.37,-1.34,-0.96,-1.81,-0.49,
4.163,0.53,1.38,-0.81,-0.96,-1.81,-0.49,
4.164,0.53,1.38,-0.81,-0.95,-1.80,-0.48,
4.164,0.53,1.38,-0.81,-0.95,-1.77,-0.47,
4.168,0.53,1.38,-0.81,-0.97,-1.64,-0.45,
4.168,0.53,1.38,-0.81,-0.98,-1.57,-0.45,
4.17,0.53,1.38,-0.81,-0.99,-1.38,-0.44,
4.172,0.82,3.27,1.41,-0.99,-1.38,-0.44,
4.172,0.82,3.27,1.41,-1.00,-1.12,-0.43,
4.174,0.82,3.27,1.41,-0.97,-0.81,-0.42,
4.177,0.82,3.27,1.41,-0.81,-0.27,-0.39,
4.179,0.82,3.27,1.41,-0.74,-0.08,-0.37,
4.183,0.82,3.27,1.41,-0.58,0.28,-0.32,
4.184,-0.43,5.57,8.78,-0.58,0.28,-0.32,
4.185,-0.43,5.57,8.78,-0.40,0.64,-0.26,
4.185,-0.43,5.57,8.78,-0.20,0.97,-0.20,
4.187,-0.43,5.57,8.78,0.11,1.39,-0.08,
4.188,-0.43,5.57,8.78,0.21,1.52,-0.03,
4.19,-0.43,5.57,8.78,0.42,1.73,0.05,
4.192,-3.06,6.32,12.89,0.42,1.73,0.05,
4.193,-3.06,6.32,12.89,0.62,1.92,0.14,
4.196,-3.06,6.32,12.89,0.82,2.06,0.23,
4.196,-3.06,6.32,12.89,1.09,2.22,0.35,
4.197,-3.06,6.32,12.89,1.18,2.26,0.38,
4.204,-3.06,6.32,12.89,1.34,2.32,0.46,
4.204,-3.29,5.83,11.20,1.34,2.32,0.46,
4.205,-3.29,5.83,11.20,1.48,2.36,0.53,
4.205,-3.29,5.83,11.20,1.60,2.38,0.59,
4.206,-3.29,5.83,11.20,1.76,2.37,0.67,
4.207,-3.29,5.83,11.20,1.80,2.35,0.69,
4.21,-3.29,5.83,11.20,1.87,2.33,0.73,
4.212,-2.64,5.19,7.88,1.87,2.33,0.73,
4.212,-2.64,5.19,7.88,1.91,2.29,0.77,
4.213,-2.64,5.19,7.88,1.94,2.25,0.79,
4.216,-2.64,5.19,7.88,1.94,2.19,0.81,
4.217,-2.64,5.19,7.88,1.93,2.17,0.81,
4.219,-2.64,5.19,7.88,1.89,2.12,0.81,
4.222,-1.57,4.48,3.58,1.89,2.12,0.81,
4.222,-1.57,4.48,3.58,1.84,2.07,0.81,
4.223,-1.57,4.48,3.58,1.76,2.01,0.80,
4.235,-1.57,4.48,3.58,1.63,1.92,0.78,
4.236,-1.57,4.48,3.58,1.57,1.88,0.77,
4.249,-1.57,4.48,3.58,1.47,1.81,0.76,
4.249,-1.19,4.02,0.07,1.47,1.81,0.76,
4.25,-1.19,4.02,0.07,1.36,1.73,0.76,
4.25,-1.19,4.02,0.07,1.24,1.64,0.75,
4.25,-1.19,4.02,0.07,1.07,1.50,0.74,
4.25,-1.19,4.02,0.07,1.01,1.44,0.75,
4.25,-1.19,4.02,0.07,0.90,1.33,0.75,
4.25,-1.61,3.72,-1.25,0.90,1.33,0.75,
4.25,-1.61,3.72,-1.25,0.79,1.21,0.76,
4.25,-1.61,3.72,-1.25,0.69,1.08,0.76,
4.251,-1.61,3.72,-1.25,0.55,0.86,0.77,
4.251,-1.61,3.72,-1.25,0.51,0.78,0.77,
4.251,-1.61,3.72,-1.25,0.44,0.62,0.78,
4.252,-2.01,3.48,-1.00,0.44,0.62,0.78,
4.257,-2.01,3.48,-1.00,0.37,0.45,0.78,
4.258,-2.01,3.48,-1.00,0.30,0.27,0.78,
4.258,-2.01,3.48,-1.00,0.22,-0.02,0.77,
4.258,-2.01,3.48,-1.00,0.20,-0.12,0.76,
4.267,-2.01,3.48,-1.00,0.15,-0.34,0.74,
4.267,-1.06,3.50,-0.62,0.15,-0.34,0.74,
4.267,-1.06,3.50,-0.62,0.10,-0.57,0.71,
4.267,-1.06,3.50,-0.62,0.06,-0.80,0.66,
4.267,-1.06,3.50,-0.62,-0.00,-1.18,0.58,
4.267,-1.06,3.50,-0.62,-0.02,-1.30,0.55,
4.269,-1.06,3.50,-0.62,-0.06,-1.55,0.48,
4.272,1.07,3.65,-1.20,-0.06,-1.55,0.48,
4.272,1.07,3.65,-1.20,-0.08,-1.80,0.40,
4.273,1.07,3.65,-1.20,-0.11,-2.04,0.32,
4.276,1.07,3.65,-1.20,-0.15,-2.40,0.18,
4.278,1.07,3.65,-1.20,-0.15,-2.51,0.14,
4.28,1.07,3.65,-1.20,-0.16,-2.74,0.05,
4.282,2.77,4.02,-1.16,-0.16,-2.74,0.05,
4.282,2.77,4.02,-1.16,-0.16,-2.95,-0.04,
4.283,2.77,4.02,-1.16,-0.16,-3.16,-0.14,
4.286,2.77,4.02,-1.16,-0.12,-3.46,-0.27,
4.288,2.77,4.02,-1.16,-0.11,-3.56,-0.31,
4.29,2.77,4.02,-1.16,-0.07,-3.74,-0.39,
4.292,4.15,4.13,0.99,-0.07,-3.74,-0.39,
4.292,4.15,4.13,0.99,-0.03,-3.92,-0.45,
4.294,4.15,4.13,0.99,0.03,-4.09,-0.51,
4.297,4.15,4.13,0.99,0.11,-4.32,-0.57,
4.298,4.15,4.13,0.99,0.13,-4.40,-0.59,
4.3,4.15,4.13,0.99,0.18,-4.53,-0.62,
4.302,4.00,3.17,3.12,0.18,-4.53,-0.62,
4.303,4.00,3.17,3.12,0.22,-4.64,-0.63,
4.304,4.00,3.17,3.12,0.25,-4.73,-0.64,
4.306,4.00,3.17,3.12,0.28,-4.81,-0.63,
4.308,4.00,3.17,3.12,0.29,-4.83,-0.62,
4.31,4.00,3.17,3.12,0.30,-4.83,-0.61,
4.312,3.18,1.88,3.63,0.30,-4.83,-0.61,
4.312,3.18,1.88,3.63,0.30,-4.80,-0.59,
4.316,3.18,1.88,3.63,0.31,-4.73,-0.57,
4.318,3.18,1.88,3.63,0.34,-4.56,-0.53,
4.318,3.18,1.88,3.63,0.35,-4.48,-0.51,
4.32,3.18,1.88,3.63,0.37,-4.30,-0.48,
4.322,2.66,1.49,4.24,0.37,-4.30,-0.48,
4.322,2.66,1.49,4.24,0.39,-4.08,-0.45,
4.324,2.66,1.49,4.24,0.42,-3.83,-0.42,
4.327,2.66,1.49,4.24,0.45,-3.40,-0.37,
4.327,2.66,1.49,4.24,0.46,-3.24,-0.35,
4.33,2.66,1.49,4.24,0.48,-2.91,-0.32,
4.332,2.12,2.18,3.59,0.48,-2.91,-0.32,
4.332,2.12,2.18,3.59,0.50,-2.56,-0.28,
4.334,2.12,2.18,3.59,0.51,-2.21,-0.24,
4.336,2.12,2.18,3.59,0.52,-1.68,-0.19,
4.338,2.12,2.18,3.59,0.52,-1.51,-0.16,
4.34,2.12,2.18,3.59,0.53,-1.19,-0.12,
4.35,0.87,3.51,-0.36,0.53,-1.19,-0.12,
4.351,0.87,3.51,-0.36,0.53,-0.90,-0.08,
4.351,0.87,3.51,-0.36,0.53,-0.65,-0.04,
4.352,0.87,3.51,-0.36,0.53,-0.34,0.02,
4.353,0.87,3.51,-0.36,0.53,-0.26,0.04,
4.353,0.87,3.51,-0.36,0.53,-0.12,0.08,
4.353,-0.09,4.78,-3.56,0.53,-0.12,0.08,
4.354,-0.09,4.78,-3.56,0.54,-0.00,0.11,
4.355,-0.09,4.78,-3.56,0.56,0.08,0.14,
4.36,-0.09,4.78,-3.56,0.58,0.17,0.19,
4.36,-0.09,4.78,-3.56,0.59,0.19,0.20,
4.361,-0.09,4.78,-3.56,0.62,0.22,0.23,
4.383,-0.31,5.34,-4.36,0.62,0.22,0.23,
4.385,-0.31,5.34,-4.36,0.64,0.23,0.25,
4.385,-0.31,5.34,-4.36,0.67,0.24,0.27,
4.385,-0.31,5.34,-4.36,0.70,0.22,0.30,
4.386,-0.31,5.34,-4.36,0.72,0.21,0.31,
4.386,-0.31,5.34,-4.36,0.74,0.19,0.32,
4.387,0.20,5.15,-4.27,0.74,0.19,0.32,
4.387,0.20,5.15,-4.27,0.77,0.17,0.33,
4.387,0.20,5.15,-4.27,0.81,0.14,0.34,
4.388,0.20,5.15,-4.27,0.86,0.09,0.35,
4.388,0.20,5.15,-4.27,0.88,0.08,0.35,
4.388,0.20,5.15,-4.27,0.93,0.06,0.36,
4.388,0.74,3.74,-2.59,0.93,0.06,0.36,
4.389,0.74,3.74,-2.59,0.98,0.04,0.37,
4.389,0.74,3.74,-2.59,1.04,0.03,0.38,
4.39,0.74,3.74,-2.59,1.14,0.03,0.39,
4.39,0.74,3.74,-2.59,1.18,0.03,0.40,
4.39,0.74,3.74,-2.59,1.27,0.03,0.40,
4.399,1.21,1.31,1.65,1.27,0.03,0.40,
4.4,1.21,1.31,1.65,1.36,0.03,0.41,
4.4,1.21,1.31,1.65,1.48,0.04,0.42,
4.427,1.21,1.31,1.65,1.66,0.05,0.42,
4.427,1.21,1.31,1.65,1.72,0.06,0.42,
4.428,1.21,1.31,1.65,1.84,0.08,0.42,
4.428,2.20,-1.20,8.14,1.84,0.08,0.42,
4.429,2.20,-1.20,8.14,1.94,0.11,0.43,
4.429,2.20,-1.20,8.14,2.03,0.14,0.43,
4.43,2.20,-1.20,8.14,2.09,0.21,0.44,
4.43,2.20,-1.20,8.14,2.10,0.24,0.44,
4.43,2.20,-1.20,8.14,2.10,0.29,0.45,
4.431,2.93,-2.65,8.12,2.10,0.29,0.45,
4.431,2.93,-2.65,8.12,2.07,0.35,0.46,
4.432,2.93,-2.65,8.12,2.01,0.42,0.47,
4.432,2.93,-2.65,8.12,1.92,0.51,0.49,
4.433,2.93,-2.65,8.12,1.88,0.53,0.49,
4.433,2.93,-2.65,8.12,1.82,0.58,0.50,
4.433,3.34,-2.83,3.23,1.82,0.58,0.50,
4.434,3.34,-2.83,3.23,1.77,0.60,0.49,
4.434,3.34,-2.83,3.23,1.73,0.61,0.49,
4.435,3.34,-2.83,3.23,1.73,0.56,0.49,
4.435,3.34,-2.83,3.23,1.74,0.54,0.49,
4.436,3.34,-2.83,3.23,1.78,0.45,0.48,
4.436,3.24,-2.61,3.10,1.78,0.45,0.48,
4.436,3.24,-2.61,3.10,1.86,0.33,0.49,
4.436,3.24,-2.61,3.10,1.96,0.19,0.49,
4.437,3.24,-2.61,3.10,2.17,-0.08,0.50,
4.438,3.24,-2.61,3.10,2.25,-0.18,0.51,
4.446,3.24,-2.61,3.10,2.42,-0.39,0.53,
4.446,1.57,-3.01,6.38,2.42,-0.39,0.53,
4.446,1.57,-3.01,6.38,2.60,-0.60,0.55,
4.447,1.57,-3.01,6.38,2.78,-0.82,0.57,
4.447,1.57,-3.01,6.38,3.06,-1.15,0.61,
4.45,1.57,-3.01,6.38,3.15,-1.26,0.63,
4.45,1.57,-3.01,6.38,3.32,-1.46,0.66,
4.453,-0.64,-4.37,7.08,3.32,-1.46,0.66,
4.454,-0.64,-4.37,7.08,3.48,-1.65,0.69,
4.454,-0.64,-4.37,7.08,3.64,-1.82,0.73,
4.457,-0.64,-4.37,7.08,3.85,-2.02,0.77,
4.457,-0.64,-4.37,7.08,3.91,-2.06,0.79,
4.461,-0.64,-4.37,7.08,4.04,-2.11,0.82,
4.469,-2.65,-6.01,6.46,4.04,-2.11,0.82,
4.469,-2.65,-6.01,6.46,4.14,-2.10,0.86,
4.469,-2.65,-6.01,6.46,4.24,-2.03,0.90,
4.47,-2.65,-6.01,6.46,4.35,-1.80,0.96,
4.47,-2.65,-6.01,6.46,4.38,-1.68,0.98,
4.47,-2.65,-6.01,6.46,4.43,-1.40,1.03,
4.472,-5.04,-7.86,6.49,4.43,-1.40,1.03,
4.473,-5.04,-7.86,6.49,4.46,-1.07,1.07,
4.474,-5.04,-7.86,6.49,4.48,-0.70,1.12,
4.477,-5.04,-7.86,6.49,4.48,-0.12,1.19,
4.479,-5.04,-7.86,6.49,4.47,0.07,1.21,
4.48,-5.04,-7.86,6.49,4.46,0.42,1.25,
4.482,-6.14,-9.25,5.29,4.46,0.42,1.25,
4.483,-6.14,-9.25,5.29,4.44,0.74,1.28,
4.484,-6.14,-9.25,5.29,4.42,1.00,1.30,
4.487,-6.14,-9.25,5.29,4.39,1.28,1.33,
4.487,-6.14,-9.25,5.29,4.38,1.34,1.33,
4.491,-6.14,-9.25,5.29,4.36,1.43,1.34,
4.503,-5.37,-9.66,2.12,4.36,1.43,1.34,
4.503,-5.37,-9.66,2.12,4.34,1.46,1.34,
4.504,-5.37,-9.66,2.12,4.31,1.44,1.34,
4.504,-5.37,-9.66,2.12,4.27,1.34,1.34,
4.504,-5.37,-9.66,2.12,4.25,1.28,1.33,
4.504,-5.37,-9.66,2.12,4.21,1.14,1.32,
4.504,-4.08,-9.62,-2.05,4.21,1.14,1.32,
4.505,-4.08,-9.62,-2.05,4.15,0.98,1.31,
4.507,-4.08,-9.62,-2.05,4.09,0.79,1.28,
4.53,-4.08,-9.62,-2.05,3.92,0.36,1.23,
4.531,-4.08,-9.62,-2.05,3.92,0.36,1.23,
4.531,-4.08,-9.62,-2.05,3.83,0.15,1.19,
4.531,-3.01,-9.87,-5.66,3.83,0.15,1.19,
4.532,-3.01,-9.87,-5.66,3.73,-0.05,1.15,
4.532,-3.01,-9.87,-5.66,3.64,-0.23,1.10,
4.532,-3.01,-9.87,-5.66,3.50,-0.45,1.02,
4.532,-3.01,-9.87,-5.66,3.45,-0.51,0.99,
4.532,-3.01,-9.87,-5.66,3.34,-0.68,0.90,
4.533,-2.10,-10.75,-4.39,3.34,-0.68,0.90,
4.533,-2.10,-10.75,-4.39,3.30,-0.73,0.87,
4.533,-2.10,-10.75,-4.39,3.23,-0.82,0.80,
4.533,-2.10,-10.75,-4.39,3.11,-0.91,0.69,
4.533,-2.10,-10.75,-4.39,3.07,-0.93,0.65,
4.534,-2.10,-10.75,-4.39,2.97,-0.96,0.57,
4.534,-1.59,-11.66,-2.52,2.97,-0.96,0.57,
4.534,-1.59,-11.66,-2.52,2.85,-0.96,0.49,
4.534,-1.59,-11.66,-2.52,2.72,-0.95,0.41,
4.538,-1.59,-11.66,-2.52,2.51,-0.91,0.29,
4.538,-1.59,-11.66,-2.52,2.43,-0.91,0.25,
4.539,-1.59,-11.66,-2.52,2.29,-0.89,0.18,
4.543,-1.39,-11.09,-4.18,2.29,-0.89,0.18,
4.544,-1.39,-11.09,-4.18,2.14,-0.88,0.11,
4.544,-1.39,-11.09,-4.18,2.00,-0.89,0.05,
4.547,-1.39,-11.09,-4.18,1.80,-0.93,-0.03,
4.547,-1.39,-11.09,-4.18,1.74,-0.95,-0.06,
4.549,-1.39,-11.09,-4.18,1.62,-1.00,-0.11,
4.552,-1.86,-10.12,-5.17,1.62,-1.00,-0.11,
4.552,-1.86,-10.12,-5.17,1.51,-1.06,-0.15,
4.553,-1.86,-10.12,-5.17,1.40,-1.12,-0.18,
4.557,-1.86,-10.12,-5.17,1.25,-1.21,-0.24,
4.557,-1.86,-10.12,-5.17,1.21,-1.23,-0.26,
4.559,-1.86,-10.12,-5.17,1.13,-1.26,-0.30,
4.562,-2.37,-8.04,-3.78,1.13,-1.26,-0.30,
4.574,-2.37,-8.04,-3.78,1.07,-1.27,-0.34,
4.574,-2.37,-8.04,-3.78,1.01,-1.25,-0.39,
4.574,-2.37,-8.04,-3.78,0.94,-1.17,-0.47,
4.575,-2.37,-8.04,-3.78,0.91,-1.13,-0.49,
4.575,-2.37,-8.04,-3.78,0.87,-1.04,-0.53,
4.575,-2.49,-5.60,-2.11,0.87,-1.04,-0.53,
4.575,-2.49,-5.60,-2.11,0.84,-0.93,-0.58,
4.575,-2.49,-5.60,-2.11,0.81,-0.80,-0.62,
4.577,-2.49,-5.60,-2.11,0.76,-0.58,-0.67,
4.578,-2.49,-5.60,-2.11,0.74,-0.51,-0.69,
4.58,-2.49,-5.60,-2.11,0.70,-0.36,-0.72,
4.582,-2.64,-3.23,-1.97,0.70,-0.36,-0.72,
4.582,-2.64,-3.23,-1.97,0.66,-0.22,-0.74,
4.584,-2.64,-3.23,-1.97,0.61,-0.08,-0.76,
4.586,-2.64,-3.23,-1.97,0.52,0.11,-0.78,
4.587,-2.64,-3.23,-1.97,0.49,0.16,-0.79,
4.589,-2.64,-3.23,-1.97,0.42,0.26,-0.79,
4.592,-2.53,-1.76,-3.52,0.42,0.26,-0.79,
4.592,-2.53,-1.76,-3.52,0.34,0.33,-0.79,
4.594,-2.53,-1.76,-3.52,0.27,0.38,-0.79,
4.597,-2.53,-1.76,-3.52,0.14,0.42,-0.77,
4.597,-2.53,-1.76,-3.52,0.10,0.42,-0.76,
4.599,-2.53,-1.76,-3.52,0.02,0.41,-0.73,
4.602,-2.40,-0.62,-4.60,0.02,0.41,-0.73,
4.602,-2.40,-0.62,-4.60,-0.07,0.38,-0.70,
4.604,-2.40,-0.62,-4.60,-0.15,0.34,-0.66,
4.607,-2.40,-0.62,-4.60,-0.27,0.26,-0.60,
4.608,-2.40,-0.62,-4.60,-0.31,0.22,-0.58,
4.609,-2.40,-0.62,-4.60,-0.38,0.16,-0.53,
4.613,-2.62,0.43,-5.06,-0.38,0.16,-0.53,
4.613,-2.62,0.43,-5.06,-0.45,0.09,-0.49,
4.614,-2.62,0.43,-5.06,-0.52,0.02,-0.44,
4.617,-2.62,0.43,-5.06,-0.63,-0.06,-0.38,
4.618,-2.62,0.43,-5.06,-0.66,-0.09,-0.36,
4.619,-2.62,0.43,-5.06,-0.73,-0.13,-0.32,
4.622,-2.14,1.58,-5.37,-0.73,-0.13,-0.32,
4.622,-2.14,1.58,-5.37,-0.80,-0.17,-0.28,
4.623,-2.14,1.58,-5.37,-0.87,-0.19,-0.25,
4.627,-2.14,1.58,-5.37,-0.97,-0.22,-0.21,
4.627,-2.14,1.58,-5.37,-1.01,-0.22,-0.20,
4.631,-2.14,1.58,-5.37,-1.07,-0.23,-0.18,
4.632,-1.21,2.73,-6.20,-1.07,-0.23,-0.18,
4.632,-1.21,2.73,-6.20,-1.14,-0.23,-0.17,
4.635,-1.21,2.73,-6.20,-1.20,-0.22,-0.16,
4.637,-1.21,2.73,-6.20,-1.29,-0.22,-0.16,
4.637,-1.21,2.73,-6.20,-1.31,-0.22,-0.16,
4.639,-1.21,2.73,-6.20,-1.36,-0.21,-0.16,
4.644,0.24,4.06,-6.28,-1.36,-0.21,-0.16,
4.644,0.24,4.06,-6.28,-1.40,-0.21,-0.17,
4.644,0.24,4.06,-6.28,-1.44,-0.20,-0.18,
4.646,0.24,4.06,-6.28,-1.49,-0.19,-0.19,
4.647,0.24,4.06,-6.28,-1.51,-0.19,-0.20,
4.65,0.24,4.06,-6.28,-1.53,-0.19,-0.21,
4.652,1.23,5.25,-6.00,-1.53,-0.19,-0.21,
4.652,1.23,5.25,-6.00,-1.56,-0.19,-0.22,
4.654,1.23,5.25,-6.00,-1.59,-0.20,-0.23,
4.657,1.23,5.25,-6.00,-1.62,-0.21,-0.25,
4.661,1.23,5.25,-6.00,-1.63,-0.21,-0.26,
4.662,1.23,5.25,-6.00,-1.65,-0.22,-0.27,
4.662,1.91,6.40,-5.48,-1.65,-0.22,-0.27,
4.662,1.91,6.40,-5.48,-1.68,-0.24,-0.28,
4.664,1.91,6.40,-5.48,-1.70,-0.24,-0.29,
4.666,1.91,6.40,-5.48,-1.74,-0.26,-0.30,
4.668,1.91,6.40,-5.48,-1.76,-0.26,-0.31,
4.669,1.91,6.40,-5.48,-1.79,-0.27,-0.32,
4.672,2.02,7.22,-5.37,-1.79,-0.27,-0.32,
4.672,2.02,7.22,-5.37,-1.82,-0.27,-0.32,
4.674,2.02,7.22,-5.37,-1.86,-0.28,-0.32,
4.676,2.02,7.22,-5.37,-1.91,-0.28,-0.33,
4.678,2.02,7.22,-5.37,-1.93,-0.27,-0.33,
4.68,2.02,7.22,-5.37,-1.97,-0.26,-0.32,
4.682,2.21,7.86,-5.24,-1.97,-0.26,-0.32,
4.682,2.21,7.86,-5.24,-2.02,-0.25,-0.32,
4.683,2.21,7.86,-5.24,-2.06,-0.22,-0.32,
4.686,2.21,7.86,-5.24,-2.13,-0.17,-0.31,
4.687,2.21,7.86,-5.24,-2.15,-0.15,-0.31,
4.689,2.21,7.86,-5.24,-2.19,-0.11,-0.30,
4.692,2.08,8.45,-5.04,-2.19,-0.11,-0.30,
4.692,2.08,8.45,-5.04,-2.24,-0.05,-0.30,
4.694,2.08,8.45,-5.04,-2.29,0.02,-0.29,
4.697,2.08,8.45,-5.04,-2.37,0.14,-0.29,
4.698,2.08,8.45,-5.04,-2.40,0.19,-0.29,
4.699,2.08,8.45,-5.04,-2.45,0.28,-0.28,
4.702,2.48,8.68,-4.74,-2.45,0.28,-0.28,
4.702,2.48,8.68,-4.74,-2.50,0.39,-0.27,
4.704,2.48,8.68,-4.74,-2.56,0.50,-0.27,
4.708,2.48,8.68,-4.74,-2.63,0.68,-0.26,
4.709,2.48,8.68,-4.74,-2.65,0.73,-0.26,
4.712,2.48,8.68,-4.74,-2.70,0.85,-0.26,
4.712,2.54,8.95,-4.12,-2.70,0.85,-0.26,
4.712,2.54,8.95,-4.12,-2.74,0.96,-0.25,
4.715,2.54,8.95,-4.12,-2.78,1.06,-0.24,
4.717,2.54,8.95,-4.12,-2.84,1.20,-0.23,
4.719,2.54,8.95,-4.12,-2.86,1.24,-0.22,
4.722,2.54,8.95,-4.12,-2.89,1.32,-0.21,
4.722,2.93,8.43,-3.93,-2.89,1.32,-0.21,
4.722,2.93,8.43,-3.93,-2.92,1.39,-0.20,
4.725,2.93,8.43,-3.93,-2.95,1.45,-0.19,
4.726,2.93,8.43,-3.93,-2.99,1.53,-0.17,
4.728,2.93,8.43,-3.93,-3.01,1.55,-0.16,
4.746,2.93,8.43,-3.93,-3.04,1.59,-0.14,
4.747,3.11,7.79,-4.03,-3.04,1.59,-0.14,
4.747,3.11,7.79,-4.03,-3.07,1.62,-0.13,
4.747,3.11,7.79,-4.03,-3.09,1.64,-0.12,
4.748,3.11,7.79,-4.03,-3.14,1.66,-0.09,
4.748,3.11,7.79,-4.03,-3.15,1.67,-0.09,
4.748,3.11,7.79,-4.03,-3.19,1.68,-0.07,
4.748,3.16,7.13,-4.08,-3.19,1.68,-0.07,
4.749,3.16,7.13,-4.08,-3.22,1.69,-0.06,
4.749,3.16,7.13,-4.08,-3.25,1.70,-0.06,
4.749,3.16,7.13,-4.08,-3.29,1.71,-0.05,
4.75,3.16,7.13,-4.08,-3.31,1.72,-0.05,
4.75,3.16,7.13,-4.08,-3.34,1.73,-0.04,
4.756,3.32,6.38,-4.51,-3.34,1.73,-0.04,
4.757,3.32,6.38,-4.51,-3.37,1.74,-0.04,
4.757,3.32,6.38,-4.51,-3.39,1.75,-0.04,
4.757,3.32,6.38,-4.51,-3.43,1.77,-0.05,
4.758,3.32,6.38,-4.51,-3.44,1.77,-0.05,
4.762,3.32,6.38,-4.51,-3.46,1.79,-0.05,
4.762,3.35,5.91,-4.21,-3.46,1.79,-0.05,
4.763,3.35,5.91,-4.21,-3.48,1.80,-0.06,
4.766,3.35,5.91,-4.21,-3.49,1.82,-0.07,
4.766,3.35,5.91,-4.21,-3.51,1.85,-0.09,
4.77,3.35,5.91,-4.21,-3.51,1.87,-0.10,
4.77,3.35,5.91,-4.21,-3.52,1.89,-0.12,
4.776,3.63,4.97,-3.77,-3.52,1.89,-0.12,
4.776,3.63,4.97,-3.77,-3.53,1.91,-0.15,
4.776,3.63,4.97,-3.77,-3.54,1.92,-0.18,
4.777,3.63,4.97,-3.77,-3.55,1.95,-0.23,
4.779,3.63,4.97,-3.77,-3.56,1.96,-0.25,
4.78,3.63,4.97,-3.77,-3.57,1.99,-0.29,
4.782,3.89,3.36,-2.86,-3.57,1.99,-0.29,
4.782,3.89,3.36,-2.86,-3.58,2.02,-0.33,
4.783,3.89,3.36,-2.86,-3.59,2.07,-0.38,
4.787,3.89,3.36,-2.86,-3.60,2.14,-0.47,
4.787,3.89,3.36,-2.86,-3.60,2.17,-0.49,
4.789,3.89,3.36,-2.86,-3.61,2.22,-0.55,
4.799,4.30,0.86,-1.98,-3.61,2.22,-0.55,
4.799,4.30,0.86,-1.98,-3.62,2.26,-0.62,
4.8,4.30,0.86,-1.98,-3.62,2.31,-0.69,
4.8,4.30,0.86,-1.98,-3.64,2.39,-0.79,
4.8,4.30,0.86,-1.98,-3.65,2.41,-0.83,
4.8,4.30,0.86,-1.98,-3.67,2.45,-0.90,
4.802,4.53,-2.16,-0.98,-3.67,2.45,-0.90,
4.802,4.53,-2.16,-0.98,-3.68,2.49,-0.98,
4.843,4.53,-2.16,-0.98,-3.60,2.51,-1.06,
4.844,4.53,-2.16,-0.98,-3.13,2.41,-1.15,
4.844,4.53,-2.16,-0.98,-2.93,2.32,-1.17,
4.844,4.53,-2.16,-0.98,-2.52,2.09,-1.21,
4.844,3.47,-7.31,17.34,-2.52,2.09,-1.21,
4.844,3.47,-7.31,17.34,-2.12,1.84,-1.26,
4.845,3.47,-7.31,17.34,-1.77,1.59,-1.29,
4.845,3.47,-7.31,17.34,-1.38,1.24,-1.33,
4.845,3.47,-7.31,17.34,-1.29,1.13,-1.33,
4.845,3.47,-7.31,17.34,-1.15,0.91,-1.34,
4.845,2.08,-10.68,18.94,-1.15,0.91,-1.34,
4.846,2.08,-10.68,18.94,-1.06,0.69,-1.33,
4.846,2.08,-10.68,18.94,-1.01,0.46,-1.31,
4.846,2.08,-10.68,18.94,-0.99,0.12,-1.28,
4.846,2.08,-10.68,18.94,-1.00,0.01,-1.27,
4.846,2.08,-10.68,18.94,-1.01,-0.19,-1.24,
4.847,0.93,-9.35,15.22,-1.01,-0.19,-1.24,
4.847,0.93,-9.35,15.22,-1.03,-0.38,-1.20,
4.847,0.93,-9.35,15.22,-1.05,-0.55,-1.16,
4.847,0.93,-9.35,15.22,-1.09,-0.77,-1.10,
4.847,0.93,-9.35,15.22,-1.09,-0.83,-1.08,
4.848,0.93,-9.35,15.22,-1.11,-0.95,-1.03,
4.848,-0.36,-5.87,12.69,-1.11,-0.95,-1.03,
4.848,-0.36,-5.87,12.69,-1.12,-1.04,-0.98,
4.848,-0.36,-5.87,12.69,-1.12,-1.12,-0.94,
4.848,-0.36,-5.87,12.69,-1.11,-1.18,-0.87,
4.851,-0.36,-5.87,12.69,-1.10,-1.19,-0.85,
4.852,-0.36,-5.87,12.69,-1.08,-1.18,-0.82,
4.856,-1.19,-3.08,11.40,-1.08,-1.18,-0.82,
4.856,-1.19,-3.08,11.40,-1.05,-1.15,-0.78,
4.857,-1.19,-3.08,11.40,-1.01,-1.09,-0.75,
4.857,-1.19,-3.08,11.40,-0.96,-0.95,-0.71,
4.859,-1.19,-3.08,11.40,-0.93,-0.90,-0.70,
4.86,-1.19,-3.08,11.40,-0.88,-0.77,-0.68,
4.863,-1.30,-1.20,9.85,-0.88,-0.77,-0.68,
4.863,-1.30,-1.20,9.85,-0.82,-0.63,-0.67,
4.864,-1.30,-1.20,9.85,-0.75,-0.48,-0.66,
4.866,-1.30,-1.20,9.85,-0.64,-0.24,-0.65,
4.867,-1.30,-1.20,9.85,-0.60,-0.15,-0.65,
4.872,-1.30,-1.20,9.85,-0.47,0.10,-0.65,
4.872,-1.14,0.37,9.01,-0.47,0.10,-0.65,
4.872,-1.14,0.37,9.01,-0.43,0.19,-0.65,
4.875,-1.14,0.37,9.01,-0.34,0.37,-0.66,
4.877,-1.14,0.37,9.01,-0.20,0.65,-0.66,
4.88,-1.14,0.37,9.01,-0.15,0.75,-0.66,
4.88,-1.14,0.37,9.01,-0.06,0.95,-0.65,
4.883,-1.64,1.26,8.42,-0.06,0.95,-0.65,
4.884,-1.64,1.26,8.42,0.02,1.18,-0.63,
4.884,-1.64,1.26,8.42,0.09,1.42,-0.60,
4.887,-1.64,1.26,8.42,0.19,1.85,-0.55,
4.887,-1.64,1.26,8.42,0.23,2.01,-0.52,
4.891,-1.64,1.26,8.42,0.28,2.36,-0.46,
4.895,-3.87,1.06,8.43,0.28,2.36,-0.46,
4.895,-3.87,1.06,8.43,0.34,2.75,-0.40,
4.895,-3.87,1.06,8.43,0.38,3.17,-0.33,
4.907,-3.87,1.06,8.43,0.39,3.81,-0.21,
4.907,-3.87,1.06,8.43,0.38,4.01,-0.17,
4.907,-3.87,1.06,8.43,0.33,4.38,-0.11,
4.907,-5.60,-0.03,4.59,0.33,4.38,-0.11,
4.907,-5.60,-0.03,4.59,0.23,4.67,-0.06,
4.908,-5.60,-0.03,4.59,0.10,4.86,-0.03,
4.908,-5.60,-0.03,4.59,-0.15,4.90,-0.02,
4.908,-5.60,-0.03,4.59,-0.24,4.85,-0.02,
4.916,-5.60,-0.03,4.59,-0.42,4.62,-0.03,
4.916,-3.04,-1.33,-6.22,-0.42,4.62,-0.03,
4.916,-3.04,-1.33,-6.22,-0.58,4.26,-0.06,
4.916,-3.04,-1.33,-6.22,-0.72,3.80,-0.08,
4.917,-3.04,-1.33,-6.22,-0.86,2.99,-0.10,
4.925,-3.04,-1.33,-6.22,-0.90,2.72,-0.10,
4.926,-3.04,-1.33,-6.22,-0.94,2.19,-0.10,
4.926,-1.76,-2.37,-9.02,-0.94,2.19,-0.10,
4.926,-1.76,-2.37,-9.02,-0.96,1.67,-0.10,
4.926,-1.76,-2.37,-9.02,-0.96,1.16,-0.09,
4.938,-1.76,-2.37,-9.02,-0.94,0.39,-0.07,
4.939,-1.76,-2.37,-9.02,-0.93,0.14,-0.06,
4.939,-1.76,-2.37,-9.02,-0.90,-0.36,-0.04,
4.939,-2.44,-4.13,-7.38,-0.90,-0.36,-0.04,
4.939,-2.44,-4.13,-7.38,-0.85,-0.86,-0.01,
4.939,-2.44,-4.13,-7.38,-0.80,-1.34,0.02,
4.939,-2.44,-4.13,-7.38,-0.71,-2.04,0.08,
4.939,-2.44,-4.13,-7.38,-0.68,-2.26,0.09,
4.94,-2.44,-4.13,-7.38,-0.61,-2.67,0.14,
4.948,-3.60,-6.06,-5.21,-0.61,-2.67,0.14,
4.948,-3.60,-6.06,-5.21,-0.53,-3.06,0.18,
4.948,-3.60,-6.06,-5.21,-0.46,-3.40,0.23,
4.948,-3.60,-6.06,-5.21,-0.35,-3.85,0.31,
4.948,-3.60,-6.06,-5.21,-0.32,-3.98,0.34,
4.949,-3.60,-6.06,-5.21,-0.26,-4.21,0.39,
4.952,-4.26,-7.53,-3.91,-0.26,-4.21,0.39,
4.952,-4.26,-7.53,-3.91,-0.20,-4.39,0.45,
4.954,-4.26,-7.53,-3.91,-0.14,-4.53,0.50,
4.957,-4.26,-7.53,-3.91,-0.07,-4.68,0.58,
4.957,-4.26,-7.53,-3.91,-0.05,-4.70,0.60,
4.96,-4.26,-7.53,-3.91,-0.02,-4.73,0.65,
4.962,-4.18,-8.37,-3.71,-0.02,-4.73,0.65,
4.962,-4.18,-8.37,-3.71,0.01,-4.74,0.70,
4.964,-4.18,-8.37,-3.71,0.04,-4.72,0.74,
