
time,ax,ay,az,wx,wy,wz,
0.002,-0.60,-0.57,-2.29,0.26,-1.54,-0.55,
0.003,-0.60,-0.57,-2.29,0.22,-1.54,-0.54,
0.003,-0.60,-0.57,-2.29,0.15,-1.55,-0.50,
0.003,-0.60,-0.57,-2.29,0.07,-1.56,-0.47,
0.056,-0.37,-0.40,-2.64,0.07,-1.56,-0.47,
0.057,-0.37,-0.40,-2.64,-0.02,-1.58,-0.44,
0.057,-0.37,-0.40,-2.64,-0.14,-1.61,-0.39,
0.058,-0.37,-0.40,-2.64,-0.18,-1.62,-0.37,
0.058,-0.37,-0.40,-2.64,-0.26,-1.63,-0.34,
0.058,-0.37,-0.40,-2.64,-0.33,-1.64,-0.32,
0.059,-0.09,-0.37,-2.28,-0.33,-1.64,-0.32,
0.059,-0.09,-0.37,-2.28,-0.39,-1.64,-0.30,
0.059,-0.09,-0.37,-2.28,-0.49,-1.64,-0.28,
0.059,-0.09,-0.37,-2.28,-0.52,-1.63,-0.27,
0.06,-0.09,-0.37,-2.28,-0.57,-1.62,-0.26,
0.06,-0.09,-0.37,-2.28,-0.62,-1.62,-0.26,
0.06,0.32,-0.43,-1.53,-0.62,-1.62,-0.26,
0.061,0.32,-0.43,-1.53,-0.66,-1.61,-0.26,
0.061,0.32,-0.43,-1.53,-0.72,-1.58,-0.27,
0.061,0.32,-0.43,-1.53,-0.74,-1.58,-0.28,
0.061,0.32,-0.43,-1.53,-0.77,-1.57,-0.29,
0.062,0.32,-0.43,-1.53,-0.79,-1.55,-0.30,
0.062,0.64,-0.62,-0.73,-0.79,-1.55,-0.30,
0.062,0.64,-0.62,-0.73,-0.81,-1.54,-0.32,
0.063,0.64,-0.62,-0.73,-0.82,-1.52,-0.35,
0.063,0.64,-0.62,-0.73,-0.82,-1.52,-0.35,
0.063,0.64,-0.62,-0.73,-0.81,-1.51,-0.37,
0.063,0.64,-0.62,-0.73,-0.81,-1.50,-0.39,
0.064,0.85,-1.13,-0.13,-0.81,-1.50,-0.39,
0.064,0.85,-1.13,-0.13,-0.80,-1.49,-0.40,
0.067,0.85,-1.13,-0.13,-0.78,-1.49,-0.41,
0.067,0.85,-1.13,-0.13,-0.77,-1.49,-0.42,
0.067,0.85,-1.13,-0.13,-0.76,-1.50,-0.42,
0.068,0.85,-1.13,-0.13,-0.75,-1.51,-0.43,
0.068,0.71,-1.44,0.09,-0.75,-1.51,-0.43,
0.068,0.71,-1.44,0.09,-0.73,-1.53,-0.44,
0.069,0.71,-1.44,0.09,-0.71,-1.57,-0.45,
0.069,0.71,-1.44,0.09,-0.70,-1.59,-0.45,
0.069,0.71,-1.44,0.09,-0.68,-1.63,-0.46,
0.07,0.71,-1.44,0.09,-0.67,-1.68,-0.48,
0.07,0.76,-1.16,0.20,-0.67,-1.68,-0.48,
0.07,0.76,-1.16,0.20,-0.65,-1.73,-0.49,
0.07,0.76,-1.16,0.20,-0.63,-1.80,-0.50,
0.071,0.76,-1.16,0.20,-0.62,-1.82,-0.50,
0.071,0.76,-1.16,0.20,-0.60,-1.86,-0.51,
0.071,0.76,-1.16,0.20,-0.59,-1.89,-0.52,
0.072,0.63,-0.75,0.15,-0.59,-1.89,-0.52,
0.072,0.63,-0.75,0.15,-0.57,-1.92,-0.53,
0.101,0.63,-0.75,0.15,-0.54,-1.96,-0.54,
0.102,0.63,-0.75,0.15,-0.53,-1.97,-0.54,
0.102,0.63,-0.75,0.15,-0.51,-2.00,-0.54,
0.102,0.63,-0.75,0.15,-0.50,-2.03,-0.54,
0.102,0.41,-0.69,0.16,-0.50,-2.03,-0.54,
0.103,0.41,-0.69,0.16,-0.49,-2.05,-0.54,
0.103,0.41,-0.69,0.16,-0.47,-2.09,-0.53,
0.103,0.41,-0.69,0.16,-0.47,-2.10,-0.53,
0.103,0.41,-0.69,0.16,-0.46,-2.11,-0.53,
0.103,0.41,-0.69,0.16,-0.46,-2.12,-0.53,
0.104,0.41,-0.68,-0.33,-0.46,-2.12,-0.53,
0.104,0.41,-0.68,-0.33,-0.47,-2.12,-0.53,
0.104,0.41,-0.68,-0.33,-0.48,-2.13,-0.52,
0.104,0.41,-0.68,-0.33,-0.49,-2.13,-0.52,
0.104,0.41,-0.68,-0.33,-0.50,-2.14,-0.51,
0.105,0.41,-0.68,-0.33,-0.52,-2.15,-0.50,
0.105,0.57,-0.46,-0.76,-0.52,-2.15,-0.50,
0.105,0.57,-0.46,-0.76,-0.54,-2.16,-0.50,
0.105,0.57,-0.46,-0.76,-0.57,-2.18,-0.49,
0.105,0.57,-0.46,-0.76,-0.58,-2.19,-0.48,
0.11,0.57,-0.46,-0.76,-0.61,-2.20,-0.48,
0.11,0.57,-0.46,-0.76,-0.63,-2.21,-0.47,
0.111,0.54,-0.26,-0.88,-0.63,-2.21,-0.47,
0.111,0.54,-0.26,-0.88,-0.65,-2.22,-0.46,
0.114,0.54,-0.26,-0.88,-0.69,-2.22,-0.45,
0.131,0.54,-0.26,-0.88,-0.70,-2.22,-0.45,
0.132,0.54,-0.26,-0.88,-0.72,-2.22,-0.45,
0.132,0.54,-0.26,-0.88,-0.74,-2.22,-0.44,
0.132,0.30,-0.24,-0.61,-0.74,-2.22,-0.44,
0.132,0.30,-0.24,-0.61,-0.76,-2.21,-0.44,
0.133,0.30,-0.24,-0.61,-0.79,-2.21,-0.44,
0.133,0.30,-0.24,-0.61,-0.79,-2.21,-0.44,
0.133,0.30,-0.24,-0.61,-0.79,-2.21,-0.44,
0.133,0.30,-0.24,-0.61,-0.80,-2.22,-0.44,
0.133,-0.10,-0.38,-0.10,-0.80,-2.22,-0.44,
0.133,-0.10,-0.38,-0.10,-0.80,-2.22,-0.44,
0.135,-0.10,-0.38,-0.10,-0.81,-2.24,-0.43,
0.135,-0.10,-0.38,-0.10,-0.81,-2.24,-0.43,
0.154,-0.10,-0.38,-0.10,-0.81,-2.25,-0.43,
0.155,-0.10,-0.38,-0.10,-0.81,-2.27,-0.44,
0.155,-0.32,-0.56,0.29,-0.81,-2.27,-0.44,
0.155,-0.32,-0.56,0.29,-0.81,-2.28,-0.43,
0.155,-0.32,-0.56,0.29,-0.81,-2.29,-0.44,
0.156,-0.32,-0.56,0.29,-0.80,-2.30,-0.44,
0.156,-0.32,-0.56,0.29,-0.80,-2.30,-0.44,
0.156,-0.32,-0.56,0.29,-0.79,-2.30,-0.44,
0.156,-0.06,-0.59,0.48,-0.79,-2.30,-0.44,
0.156,-0.06,-0.59,0.48,-0.79,-2.29,-0.45,
0.157,-0.06,-0.59,0.48,-0.78,-2.29,-0.46,
0.157,-0.06,-0.59,0.48,-0.77,-2.29,-0.47,
0.157,-0.06,-0.59,0.48,-0.77,-2.30,-0.48,
0.161,-0.06,-0.59,0.48,-0.76,-2.30,-0.49,
0.181,0.44,-0.72,0.46,-0.76,-2.30,-0.49,
0.182,0.44,-0.72,0.46,-0.76,-2.32,-0.50,
0.182,0.44,-0.72,0.46,-0.74,-2.34,-0.53,
0.182,0.44,-0.72,0.46,-0.74,-2.35,-0.53,
0.182,0.44,-0.72,0.46,-0.74,-2.36,-0.55,
0.182,0.44,-0.72,0.46,-0.73,-2.36,-0.56,
0.182,0.74,-0.76,0.63,-0.73,-2.36,-0.56,
0.183,0.74,-0.76,0.63,-0.72,-2.36,-0.57,
0.183,0.74,-0.76,0.63,-0.72,-2.35,-0.60,
0.183,0.74,-0.76,0.63,-0.72,-2.34,-0.60,
0.183,0.74,-0.76,0.63,-0.71,-2.33,-0.62,
0.183,0.74,-0.76,0.63,-0.71,-2.32,-0.63,
0.184,0.70,-0.54,0.48,-0.71,-2.32,-0.63,
0.184,0.70,-0.54,0.48,-0.71,-2.30,-0.63,
0.189,0.70,-0.54,0.48,-0.70,-2.27,-0.64,
0.189,0.70,-0.54,0.48,-0.70,-2.26,-0.64,
0.189,0.70,-0.54,0.48,-0.70,-2.23,-0.64,
0.19,0.70,-0.54,0.48,-0.70,-2.21,-0.64,
0.197,0.25,-0.12,0.61,-0.70,-2.21,-0.64,
0.197,0.25,-0.12,0.61,-0.69,-2.19,-0.64,
0.197,0.25,-0.12,0.61,-0.68,-2.15,-0.63,
0.198,0.25,-0.12,0.61,-0.67,-2.14,-0.63,
0.198,0.25,-0.12,0.61,-0.67,-2.11,-0.62,
0.207,0.25,-0.12,0.61,-0.66,-2.08,-0.61,
0.207,0.10,0.33,0.79,-0.66,-2.08,-0.61,
0.207,0.10,0.33,0.79,-0.66,-2.06,-0.61,
0.207,0.10,0.33,0.79,-0.66,-2.04,-0.61,
0.208,0.10,0.33,0.79,-0.66,-2.04,-0.61,
0.208,0.10,0.33,0.79,-0.66,-2.04,-0.61,
0.211,0.10,0.33,0.79,-0.66,-2.04,-0.61,
0.236,0.42,0.62,0.63,-0.66,-2.04,-0.61,
0.237,0.42,0.62,0.63,-0.66,-2.04,-0.62,
0.237,0.42,0.62,0.63,-0.67,-2.06,-0.63,
0.237,0.42,0.62,0.63,-0.67,-2.07,-0.63,
0.238,0.42,0.62,0.63,-0.69,-2.08,-0.63,
0.238,0.42,0.62,0.63,-0.70,-2.09,-0.64,
0.238,0.54,0.58,0.29,-0.70,-2.09,-0.64,
0.238,0.54,0.58,0.29,-0.71,-2.10,-0.65,
0.239,0.54,0.58,0.29,-0.74,-2.12,-0.64,
0.239,0.54,0.58,0.29,-0.75,-2.13,-0.64,
0.239,0.54,0.58,0.29,-0.76,-2.14,-0.64,
0.239,0.54,0.58,0.29,-0.77,-2.15,-0.63,
0.24,0.26,0.36,0.08,-0.77,-2.15,-0.63,
0.24,0.26,0.36,0.08,-0.79,-2.16,-0.62,
0.24,0.26,0.36,0.08,-0.81,-2.19,-0.59,
0.24,0.26,0.36,0.08,-0.82,-2.19,-0.58,
0.24,0.26,0.36,0.08,-0.84,-2.21,-0.57,
0.241,0.26,0.36,0.08,-0.85,-2.22,-0.55,
0.241,-0.23,0.24,0.09,-0.85,-2.22,-0.55,
0.241,-0.23,0.24,0.09,-0.87,-2.23,-0.53,
0.247,-0.23,0.24,0.09,-0.89,-2.25,-0.49,
0.247,-0.23,0.24,0.09,-0.90,-2.25,-0.48,
0.247,-0.23,0.24,0.09,-0.91,-2.25,-0.48,
0.256,-0.23,0.24,0.09,-0.92,-2.24,-0.46,
0.256,-0.22,0.18,0.07,-0.92,-2.24,-0.46,
0.257,-0.22,0.18,0.07,-0.93,-2.24,-0.45,
0.257,-0.22,0.18,0.07,-0.95,-2.22,-0.44,
0.257,-0.22,0.18,0.07,-0.95,-2.21,-0.44,
0.258,-0.22,0.18,0.07,-0.97,-2.20,-0.43,
0.259,-0.22,0.18,0.07,-0.98,-2.17,-0.43,
0.262,0.13,0.13,0.07,-0.98,-2.17,-0.43,
0.262,0.13,0.13,0.07,-0.98,-2.15,-0.42,
0.264,0.13,0.13,0.07,-1.00,-2.11,-0.41,
0.291,0.13,0.13,0.07,-1.00,-2.10,-0.41,
0.291,0.13,0.13,0.07,-1.01,-2.08,-0.41,
0.292,0.13,0.13,0.07,-1.01,-2.05,-0.41,
0.292,0.21,0.02,-0.02,-1.01,-2.05,-0.41,
0.292,0.21,0.02,-0.02,-1.01,-2.03,-0.41,
0.292,0.21,0.02,-0.02,-1.00,-1.99,-0.42,
0.292,0.21,0.02,-0.02,-0.99,-1.96,-0.43,
0.292,0.21,0.02,-0.02,-0.99,-1.94,-0.44,
0.292,0.21,0.02,-0.02,-0.97,-1.90,-0.45,
0.293,0.42,0.06,0.34,-0.97,-1.90,-0.45,
0.293,0.42,0.06,0.34,-0.94,-1.86,-0.47,
0.293,0.42,0.06,0.34,-0.90,-1.80,-0.49,
0.293,0.42,0.06,0.34,-0.88,-1.79,-0.50,
0.293,0.42,0.06,0.34,-0.85,-1.76,-0.51,
0.293,0.42,0.06,0.34,-0.82,-1.74,-0.53,
0.293,0.65,0.22,0.96,-0.82,-1.74,-0.53,
0.293,0.65,0.22,0.96,-0.79,-1.73,-0.54,
0.294,0.65,0.22,0.96,-0.75,-1.72,-0.56,
0.295,0.65,0.22,0.96,-0.72,-1.72,-0.57,
0.325,0.65,0.22,0.96,-0.71,-1.72,-0.57,
0.326,0.65,0.22,0.96,-0.68,-1.72,-0.57,
0.326,0.28,0.40,1.26,-0.68,-1.72,-0.57,
0.326,0.28,0.40,1.26,-0.66,-1.72,-0.58,
0.326,0.28,0.40,1.26,-0.63,-1.73,-0.58,
0.326,0.28,0.40,1.26,-0.63,-1.74,-0.59,
0.326,0.28,0.40,1.26,-0.61,-1.75,-0.59,
0.326,0.28,0.40,1.26,-0.61,-1.76,-0.59,
0.326,-0.17,0.24,0.91,-0.61,-1.76,-0.59,
0.327,-0.17,0.24,0.91,-0.61,-1.78,-0.59,
0.327,-0.17,0.24,0.91,-0.60,-1.81,-0.58,
0.327,-0.17,0.24,0.91,-0.59,-1.82,-0.58,
0.327,-0.17,0.24,0.91,-0.59,-1.84,-0.56,
0.327,-0.17,0.24,0.91,-0.57,-1.84,-0.54,
0.327,-0.84,0.01,0.43,-0.57,-1.84,-0.54,
0.327,-0.84,0.01,0.43,-0.57,-1.83,-0.52,
0.327,-0.84,0.01,0.43,-0.56,-1.81,-0.48,
0.328,-0.84,0.01,0.43,-0.56,-1.79,-0.46,
0.328,-0.84,0.01,0.43,-0.56,-1.79,-0.45,
0.331,-0.84,0.01,0.43,-0.57,-1.79,-0.42,
0.357,-0.95,-0.15,-0.33,-0.57,-1.79,-0.42,
0.358,-0.95,-0.15,-0.33,-0.58,-1.81,-0.41,
0.358,-0.95,-0.15,-0.33,-0.60,-1.83,-0.39,
0.358,-0.95,-0.15,-0.33,-0.60,-1.84,-0.38,
0.358,-0.95,-0.15,-0.33,-0.61,-1.86,-0.38,
0.359,-0.95,-0.15,-0.33,-0.62,-1.87,-0.38,
0.359,-0.13,-0.50,-0.10,-0.62,-1.87,-0.38,
0.359,-0.13,-0.50,-0.10,-0.62,-1.87,-0.38,
0.36,-0.13,-0.50,-0.10,-0.63,-1.87,-0.38,
0.36,-0.13,-0.50,-0.10,-0.63,-1.86,-0.39,
0.36,-0.13,-0.50,-0.10,-0.63,-1.85,-0.39,
0.361,-0.13,-0.50,-0.10,-0.63,-1.82,-0.40,
0.361,0.34,-0.43,0.21,-0.63,-1.82,-0.40,
0.361,0.34,-0.43,0.21,-0.64,-1.78,-0.41,
0.361,0.34,-0.43,0.21,-0.65,-1.73,-0.43,
0.362,0.34,-0.43,0.21,-0.65,-1.70,-0.44,
0.362,0.34,-0.43,0.21,-0.66,-1.68,-0.44,
0.362,0.34,-0.43,0.21,-0.66,-1.65,-0.45,
0.371,0.46,-0.22,0.29,-0.66,-1.65,-0.45,
0.372,0.46,-0.22,0.29,-0.67,-1.61,-0.46,
0.373,0.46,-0.22,0.29,-0.68,-1.56,-0.47,
0.373,0.46,-0.22,0.29,-0.69,-1.54,-0.47,
0.374,0.46,-0.22,0.29,-0.70,-1.52,-0.47,
0.374,0.46,-0.22,0.29,-0.71,-1.49,-0.47,
0.375,0.44,0.17,0.19,-0.71,-1.49,-0.47,
0.375,0.44,0.17,0.19,-0.73,-1.47,-0.47,
0.375,0.44,0.17,0.19,-0.77,-1.43,-0.47,
0.376,0.44,0.17,0.19,-0.80,-1.41,-0.47,
0.404,0.44,0.17,0.19,-0.81,-1.40,-0.47,
0.405,0.44,0.17,0.19,-0.85,-1.38,-0.46,
0.405,0.10,0.47,-0.52,-0.85,-1.38,-0.46,
0.406,0.10,0.47,-0.52,-0.88,-1.36,-0.45,
0.406,0.10,0.47,-0.52,-0.93,-1.33,-0.43,
0.407,0.10,0.47,-0.52,-0.95,-1.32,-0.42,
0.408,0.10,0.47,-0.52,-0.98,-1.31,-0.40,
0.408,0.10,0.47,-0.52,-1.01,-1.29,-0.38,
0.409,-0.49,0.43,-0.63,-1.01,-1.29,-0.38,
0.409,-0.49,0.43,-0.63,-1.04,-1.27,-0.35,
0.41,-0.49,0.43,-0.63,-1.08,-1.24,-0.30,
0.41,-0.49,0.43,-0.63,-1.09,-1.23,-0.28,
0.411,-0.49,0.43,-0.63,-1.11,-1.20,-0.25,
0.411,-0.49,0.43,-0.63,-1.13,-1.17,-0.21,
0.412,-1.13,0.27,-0.40,-1.13,-1.17,-0.21,
0.412,-1.13,0.27,-0.40,-1.14,-1.14,-0.18,
0.413,-1.13,0.27,-0.40,-1.16,-1.08,-0.12,
0.414,-1.13,0.27,-0.40,-1.16,-1.06,-0.10,
0.414,-1.13,0.27,-0.40,-1.16,-1.03,-0.07,
0.414,-1.13,0.27,-0.40,-1.16,-1.00,-0.03,
0.415,-1.83,0.37,0.20,-1.16,-1.00,-0.03,
0.415,-1.83,0.37,0.20,-1.15,-0.98,0.00,
0.415,-1.83,0.37,0.20,-1.14,-0.98,0.06,
0.415,-1.83,0.37,0.20,-1.12,-0.97,0.09,
0.422,-1.83,0.37,0.20,-1.12,-0.97,0.11,
0.424,-1.83,0.37,0.20,-1.09,-0.97,0.14,
0.425,-1.92,0.12,1.14,-1.09,-0.97,0.14,
0.425,-1.92,0.12,1.14,-1.07,-0.98,0.18,
0.426,-1.92,0.12,1.14,-1.02,-0.98,0.22,
0.426,-1.92,0.12,1.14,-0.98,-0.97,0.24,
0.427,-1.92,0.12,1.14,-0.95,-0.96,0.25,
0.431,-1.92,0.12,1.14,-0.90,-0.95,0.27,
0.438,-1.81,0.10,2.01,-0.90,-0.95,0.27,
0.439,-1.81,0.10,2.01,-0.84,-0.93,0.29,
0.439,-1.81,0.10,2.01,-0.74,-0.91,0.32,
0.439,-1.81,0.10,2.01,-0.70,-0.90,0.33,
0.439,-1.81,0.10,2.01,-0.62,-0.89,0.34,
0.439,-1.81,0.10,2.01,-0.55,-0.89,0.36,
0.442,-1.34,0.08,2.54,-0.55,-0.89,0.36,
0.445,-1.34,0.08,2.54,-0.49,-0.90,0.38,
0.445,-1.34,0.08,2.54,-0.39,-0.91,0.40,
0.446,-1.34,0.08,2.54,-0.36,-0.91,0.41,
0.453,-1.34,0.08,2.54,-0.30,-0.92,0.42,
0.453,-1.34,0.08,2.54,-0.24,-0.92,0.43,
0.453,-1.10,0.01,2.13,-0.24,-0.92,0.43,
0.454,-1.10,0.01,2.13,-0.18,-0.92,0.44,
0.454,-1.10,0.01,2.13,-0.08,-0.91,0.44,
0.457,-1.10,0.01,2.13,-0.05,-0.92,0.44,
0.457,-1.10,0.01,2.13,0.01,-0.92,0.44,
0.459,-1.10,0.01,2.13,0.09,-0.92,0.45,
0.462,-1.04,0.13,1.67,0.09,-0.92,0.45,
0.462,-1.04,0.13,1.67,0.16,-0.92,0.44,
0.464,-1.04,0.13,1.67,0.28,-0.91,0.44,
0.496,-1.04,0.13,1.67,0.31,-0.92,0.43,
0.496,-1.04,0.13,1.67,0.39,-0.92,0.42,
0.497,-1.04,0.13,1.67,0.46,-0.94,0.41,
0.497,-0.84,0.19,1.38,0.46,-0.94,0.41,
0.497,-0.84,0.19,1.38,0.53,-0.96,0.39,
0.497,-0.84,0.19,1.38,0.62,-1.00,0.36,
0.498,-0.84,0.19,1.38,0.68,-1.03,0.33,
0.498,-0.84,0.19,1.38,0.70,-1.05,0.31,
0.498,-0.84,0.19,1.38,0.76,-1.09,0.28,
0.498,-0.22,-0.14,1.39,0.76,-1.09,0.28,
0.498,-0.22,-0.14,1.39,0.82,-1.15,0.25,
0.499,-0.22,-0.14,1.39,0.91,-1.22,0.22,
0.499,-0.22,-0.14,1.39,0.94,-1.25,0.21,
0.499,-0.22,-0.14,1.39,1.01,-1.33,0.19,
0.499,-0.22,-0.14,1.39,1.07,-1.40,0.17,
0.499,0.05,-0.52,1.78,1.07,-1.40,0.17,
0.499,0.05,-0.52,1.78,1.13,-1.46,0.14,
0.5,0.05,-0.52,1.78,1.22,-1.57,0.09,
0.505,0.05,-0.52,1.78,1.24,-1.60,0.07,
0.506,0.05,-0.52,1.78,1.29,-1.64,0.02,
0.506,0.05,-0.52,1.78,1.32,-1.66,-0.03,
0.506,0.20,-0.88,1.75,1.32,-1.66,-0.03,
0.506,0.20,-0.88,1.75,1.35,-1.66,-0.10,
0.506,0.20,-0.88,1.75,1.36,-1.59,-0.24,
0.509,0.20,-0.88,1.75,1.33,-1.49,-0.37,
0.511,0.20,-0.88,1.75,1.32,-1.43,-0.45,
0.511,0.20,-0.88,1.75,1.26,-1.28,-0.61,
0.512,0.66,-0.56,0.40,1.26,-1.28,-0.61,
0.531,0.66,-0.56,0.40,1.19,-1.11,-0.81,
0.531,0.66,-0.56,0.40,1.07,-0.88,-1.11,
0.531,0.66,-0.56,0.40,0.97,-0.75,-1.32,
0.532,0.66,-0.56,0.40,0.93,-0.68,-1.41,
0.532,0.66,-0.56,0.40,0.84,-0.56,-1.60,
0.532,1.17,-0.46,-1.33,0.84,-0.56,-1.60,
0.532,1.17,-0.46,-1.33,0.74,-0.45,-1.76,
0.532,1.17,-0.46,-1.33,0.61,-0.26,-1.97,
0.533,1.17,-0.46,-1.33,0.53,-0.13,-2.09,
0.533,1.17,-0.46,-1.33,0.49,-0.06,-2.14,
0.533,1.17,-0.46,-1.33,0.43,0.09,-2.22,
0.533,0.11,-1.02,-1.40,0.43,0.09,-2.22,
0.533,0.11,-1.02,-1.40,0.36,0.25,-2.26,
0.536,0.11,-1.02,-1.40,0.26,0.48,-2.21,
0.536,0.11,-1.02,-1.40,0.18,0.64,-2.11,
0.538,0.11,-1.02,-1.40,0.14,0.71,-2.04,
0.539,0.11,-1.02,-1.40,0.05,0.83,-1.92,
0.543,-1.48,-1.02,-1.55,0.05,0.83,-1.92,
0.544,-1.48,-1.02,-1.55,-0.04,0.92,-1.81,
0.563,-1.48,-1.02,-1.55,-0.19,1.01,-1.67,
0.563,-1.48,-1.02,-1.55,-0.30,1.04,-1.59,
0.563,-1.48,-1.02,-1.55,-0.35,1.05,-1.55,
0.564,-1.48,-1.02,-1.55,-0.46,1.06,-1.47,
0.564,-2.97,-0.51,-2.15,-0.46,1.06,-1.47,
0.564,-2.97,-0.51,-2.15,-0.56,1.06,-1.40,
0.575,-2.97,-0.51,-2.15,-0.71,1.07,-1.29,
0.576,-2.97,-0.51,-2.15,-0.81,1.08,-1.23,
0.576,-2.97,-0.51,-2.15,-0.85,1.09,-1.20,
0.576,-2.97,-0.51,-2.15,-0.94,1.12,-1.18,
0.577,-3.18,-0.42,-2.49,-0.94,1.12,-1.18,
0.577,-3.18,-0.42,-2.49,-1.02,1.18,-1.16,
0.577,-3.18,-0.42,-2.49,-1.15,1.29,-1.16,
0.577,-3.18,-0.42,-2.49,-1.22,1.37,-1.14,
0.578,-3.18,-0.42,-2.49,-1.26,1.41,-1.14,
0.578,-3.18,-0.42,-2.49,-1.33,1.49,-1.12,
0.578,-2.25,-1.10,-1.80,-1.33,1.49,-1.12,
0.578,-2.25,-1.10,-1.80,-1.40,1.56,-1.09,
0.578,-2.25,-1.10,-1.80,-1.49,1.62,-1.06,
0.579,-2.25,-1.10,-1.80,-1.55,1.62,-1.04,
0.579,-2.25,-1.10,-1.80,-1.57,1.61,-1.03,
0.581,-2.25,-1.10,-1.80,-1.62,1.58,-1.01,
0.6,-1.80,-1.84,-0.71,-1.62,1.58,-1.01,
0.6,-1.80,-1.84,-0.71,-1.67,1.54,-0.99,
0.6,-1.80,-1.84,-0.71,-1.73,1.45,-0.97,
0.601,-1.80,-1.84,-0.71,-1.77,1.39,-0.95,
0.601,-1.80,-1.84,-0.71,-1.79,1.36,-0.94,
0.601,-1.80,-1.84,-0.71,-1.82,1.30,-0.93,
0.601,-1.80,-1.97,-0.90,-1.82,1.30,-0.93,
0.601,-1.80,-1.97,-0.90,-1.84,1.24,-0.91,
0.602,-1.80,-1.97,-0.90,-1.88,1.13,-0.88,
0.602,-1.80,-1.97,-0.90,-1.89,1.11,-0.87,
0.602,-1.80,-1.97,-0.90,-1.90,1.05,-0.86,
0.602,-1.80,-1.97,-0.90,-1.90,1.03,-0.86,
0.604,-1.59,-2.35,-1.20,-1.90,1.03,-0.86,
0.604,-1.59,-2.35,-1.20,-1.91,0.98,-0.86,
0.604,-1.59,-2.35,-1.20,-1.91,0.90,-0.86,
0.605,-1.59,-2.35,-1.20,-1.90,0.85,-0.87,
0.607,-1.59,-2.35,-1.20,-1.90,0.82,-0.87,
0.609,-1.59,-2.35,-1.20,-1.89,0.77,-0.89,
0.611,-1.02,-2.76,-1.27,-1.89,0.77,-0.89,
0.611,-1.02,-2.76,-1.27,-1.88,0.71,-0.91,
0.617,-1.02,-2.76,-1.27,-1.86,0.63,-0.96,
0.618,-1.02,-2.76,-1.27,-1.85,0.57,-1.00,
0.618,-1.02,-2.76,-1.27,-1.85,0.54,-1.02,
0.619,-1.02,-2.76,-1.27,-1.84,0.47,-1.07,
0.621,-0.26,-3.49,-1.29,-1.84,0.47,-1.07,
0.621,-0.26,-3.49,-1.29,-1.83,0.40,-1.12,
0.624,-0.26,-3.49,-1.29,-1.83,0.29,-1.21,
0.625,-0.26,-3.49,-1.29,-1.83,0.23,-1.27,
0.627,-0.26,-3.49,-1.29,-1.84,0.20,-1.31,
0.629,-0.26,-3.49,-1.29,-1.84,0.16,-1.37,
0.634,0.04,-4.30,-1.72,-1.84,0.16,-1.37,
0.634,0.04,-4.30,-1.72,-1.86,0.13,-1.43,
0.634,0.04,-4.30,-1.72,-1.91,0.10,-1.52,
0.635,0.04,-4.30,-1.72,-1.95,0.09,-1.57,
0.637,0.04,-4.30,-1.72,-1.97,0.09,-1.60,
0.639,0.04,-4.30,-1.72,-2.04,0.09,-1.65,
0.641,-0.01,-5.00,-3.18,-2.04,0.09,-1.65,
0.641,-0.01,-5.00,-3.18,-2.10,0.11,-1.70,
0.644,-0.01,-5.00,-3.18,-2.23,0.14,-1.76,
0.645,-0.01,-5.00,-3.18,-2.32,0.18,-1.80,
0.65,-0.01,-5.00,-3.18,-2.37,0.20,-1.82,
0.651,-0.01,-5.00,-3.18,-2.48,0.25,-1.86,
0.651,-0.37,-5.06,-4.91,-2.48,0.25,-1.86,
0.651,-0.37,-5.06,-4.91,-2.59,0.30,-1.89,
0.654,-0.37,-5.06,-4.91,-2.78,0.38,-1.94,
0.655,-0.37,-5.06,-4.91,-2.91,0.44,-1.97,
0.657,-0.37,-5.06,-4.91,-2.97,0.47,-1.99,
0.659,-0.37,-5.06,-4.91,-3.11,0.53,-2.02,
0.661,-0.48,-5.49,-5.93,-3.11,0.53,-2.02,
0.661,-0.48,-5.49,-5.93,-3.24,0.60,-2.05,
0.667,-0.48,-5.49,-5.93,-3.44,0.68,-2.10,
0.667,-0.48,-5.49,-5.93,-3.57,0.73,-2.13,
0.667,-0.48,-5.49,-5.93,-3.63,0.75,-2.15,
0.669,-0.48,-5.49,-5.93,-3.75,0.79,-2.19,
0.671,-0.46,-5.55,-5.27,-3.75,0.79,-2.19,
0.671,-0.46,-5.55,-5.27,-3.87,0.82,-2.23,
0.674,-0.46,-5.55,-5.27,-4.08,0.88,-2.33,
0.675,-0.46,-5.55,-5.27,-4.13,0.89,-2.36,
0.677,-0.46,-5.55,-5.27,-4.18,0.90,-2.39,
0.679,-0.46,-5.55,-5.27,-4.27,0.91,-2.44,
0.685,-0.13,-5.54,-3.63,-4.27,0.91,-2.44,
0.685,-0.13,-5.54,-3.63,-4.35,0.92,-2.50,
0.686,-0.13,-5.54,-3.63,-4.46,0.91,-2.58,
0.686,-0.13,-5.54,-3.63,-4.51,0.90,-2.64,
0.688,-0.13,-5.54,-3.63,-4.54,0.90,-2.67,
0.689,-0.13,-5.54,-3.63,-4.58,0.88,-2.72,
0.691,0.04,-5.13,-1.44,-4.58,0.88,-2.72,
0.691,0.04,-5.13,-1.44,-4.63,0.85,-2.78,
0.694,0.04,-5.13,-1.44,-4.68,0.82,-2.87,
0.696,0.04,-5.13,-1.44,-4.71,0.82,-2.93,
0.721,0.04,-5.13,-1.44,-4.72,0.83,-2.96,
0.722,0.04,-5.13,-1.44,-4.73,0.85,-3.02,
0.722,0.18,-4.42,0.29,-4.73,0.85,-3.02,
0.722,0.18,-4.42,0.29,-4.75,0.87,-3.07,
0.722,0.18,-4.42,0.29,-4.76,0.91,-3.15,
0.723,0.18,-4.42,0.29,-4.76,0.93,-3.20,
0.723,0.18,-4.42,0.29,-4.77,0.94,-3.23,
0.723,0.18,-4.42,0.29,-4.77,0.96,-3.28,
0.75,-0.23,-3.80,1.14,-4.77,0.96,-3.28,
0.75,-0.23,-3.80,1.14,-4.77,0.98,-3.33,
0.751,-0.23,-3.80,1.14,-4.76,1.00,-3.41,
0.752,-0.23,-3.80,1.14,-4.77,1.02,-3.46,
0.753,-0.23,-3.80,1.14,-4.77,1.03,-3.49,
0.753,-0.23,-3.80,1.14,-4.78,1.04,-3.54,
0.754,-0.34,-3.84,1.31,-4.78,1.04,-3.54,
0.754,-0.34,-3.84,1.31,-4.79,1.04,-3.59,
0.755,-0.34,-3.84,1.31,-4.83,1.07,-3.68,
0.756,-0.34,-3.84,1.31,-4.84,1.07,-3.70,
0.759,-0.34,-3.84,1.31,-4.86,1.08,-3.71,
0.759,-0.34,-3.84,1.31,-4.91,1.10,-3.75,
0.76,-0.68,-3.78,0.58,-4.91,1.10,-3.75,
0.76,-0.68,-3.78,0.58,-4.95,1.10,-3.77,
0.76,-0.68,-3.78,0.58,-5.02,1.08,-3.79,
0.76,-0.68,-3.78,0.58,-5.04,1.07,-3.79,
0.761,-0.68,-3.78,0.58,-5.10,1.03,-3.80,
0.761,-0.68,-3.78,0.58,-5.17,0.98,-3.81,
0.761,-1.19,-4.17,-0.08,-5.17,0.98,-3.81,
0.761,-1.19,-4.17,-0.08,-5.23,0.93,-3.81,
0.761,-1.19,-4.17,-0.08,-5.30,0.87,-3.81,
0.762,-1.19,-4.17,-0.08,-5.38,0.81,-3.81,
0.762,-1.19,-4.17,-0.08,-5.46,0.75,-3.80,
0.762,-1.19,-4.17,-0.08,-5.55,0.68,-3.79,
0.762,-0.95,-4.24,-0.18,-5.55,0.68,-3.79,
0.762,-0.95,-4.24,-0.18,-5.63,0.62,-3.78,
0.763,-0.95,-4.24,-0.18,-5.76,0.50,-3.75,
0.763,-0.95,-4.24,-0.18,-5.80,0.46,-3.74,
0.763,-0.95,-4.24,-0.18,-5.88,0.38,-3.71,
0.769,-0.95,-4.24,-0.18,-5.96,0.30,-3.67,
0.77,-0.95,-4.03,0.16,-5.96,0.30,-3.67,
0.77,-0.95,-4.03,0.16,-6.04,0.23,-3.63,
0.771,-0.95,-4.03,0.16,-6.11,0.17,-3.59,
0.771,-0.95,-4.03,0.16,-6.17,0.11,-3.55,
0.771,-0.95,-4.03,0.16,-6.23,0.07,-3.50,
0.771,-0.95,-4.03,0.16,-6.28,0.04,-3.46,
0.771,-0.89,-3.48,1.12,-6.28,0.04,-3.46,
0.772,-0.89,-3.48,1.12,-6.32,0.01,-3.41,
0.774,-0.89,-3.48,1.12,-6.36,-0.05,-3.32,
0.775,-0.89,-3.48,1.12,-6.37,-0.07,-3.29,
0.777,-0.89,-3.48,1.12,-6.39,-0.14,-3.23,
0.779,-0.89,-3.48,1.12,-6.41,-0.21,-3.18,
0.782,-0.91,-2.89,2.98,-6.41,-0.21,-3.18,
0.782,-0.91,-2.89,2.98,-6.43,-0.27,-3.13,
0.784,-0.91,-2.89,2.98,-6.44,-0.33,-3.08,
0.786,-0.91,-2.89,2.98,-6.45,-0.39,-3.03,
0.789,-0.91,-2.89,2.98,-6.46,-0.44,-2.97,
0.79,-0.91,-2.89,2.98,-6.46,-0.49,-2.92,
0.792,-0.47,-2.72,4.70,-6.46,-0.49,-2.92,
0.792,-0.47,-2.72,4.70,-6.47,-0.53,-2.87,
0.794,-0.47,-2.72,4.70,-6.48,-0.59,-2.80,
0.796,-0.47,-2.72,4.70,-6.48,-0.60,-2.78,
0.797,-0.47,-2.72,4.70,-6.48,-0.63,-2.73,
0.8,-0.47,-2.72,4.70,-6.47,-0.66,-2.69,
0.803,0.13,-1.84,6.07,-6.47,-0.66,-2.69,
0.804,0.13,-1.84,6.07,-6.46,-0.70,-2.65,
0.804,0.13,-1.84,6.07,-6.44,-0.76,-2.61,
0.805,0.13,-1.84,6.07,-6.42,-0.82,-2.58,
0.807,0.13,-1.84,6.07,-6.39,-0.88,-2.55,
0.809,0.13,-1.84,6.07,-6.36,-0.95,-2.53,
0.811,0.85,-0.76,7.79,-6.36,-0.95,-2.53,
0.811,0.85,-0.76,7.79,-6.32,-1.01,-2.51,
0.814,0.85,-0.76,7.79,-6.26,-1.10,-2.48,
0.815,0.85,-0.76,7.79,-6.23,-1.12,-2.47,
0.817,0.85,-0.76,7.79,-6.18,-1.16,-2.46,
0.82,0.85,-0.76,7.79,-6.13,-1.19,-2.44,
0.823,1.45,0.21,8.64,-6.13,-1.19,-2.44,
0.824,1.45,0.21,8.64,-6.08,-1.21,-2.42,
0.825,1.45,0.21,8.64,-6.00,-1.22,-2.40,
0.826,1.45,0.21,8.64,-5.98,-1.22,-2.39,
0.827,1.45,0.21,8.64,-5.92,-1.22,-2.36,
0.834,1.45,0.21,8.64,-5.86,-1.23,-2.34,
0.835,1.64,0.98,8.37,-5.86,-1.23,-2.34,
0.835,1.64,0.98,8.37,-5.80,-1.23,-2.32,
0.837,1.64,0.98,8.37,-5.72,-1.26,-2.29,
0.837,1.64,0.98,8.37,-5.69,-1.27,-2.28,
0.838,1.64,0.98,8.37,-5.64,-1.30,-2.26,
0.839,1.64,0.98,8.37,-5.59,-1.33,-2.25,
0.842,1.87,1.29,8.28,-5.59,-1.33,-2.25,
0.843,1.87,1.29,8.28,-5.54,-1.36,-2.23,
0.846,1.87,1.29,8.28,-5.50,-1.40,-2.22,
0.847,1.87,1.29,8.28,-5.46,-1.44,-2.22,
0.858,1.87,1.29,8.28,-5.42,-1.48,-2.21,
0.858,1.87,1.29,8.28,-5.38,-1.52,-2.21,
0.859,2.59,1.47,7.94,-5.38,-1.52,-2.21,
0.859,2.59,1.47,7.94,-5.34,-1.56,-2.20,
0.859,2.59,1.47,7.94,-5.28,-1.62,-2.19,
0.859,2.59,1.47,7.94,-5.26,-1.64,-2.18,
0.86,2.59,1.47,7.94,-5.22,-1.68,-2.17,
0.86,2.59,1.47,7.94,-5.18,-1.72,-2.16,
0.865,2.63,1.71,8.36,-5.18,-1.72,-2.16,
0.867,2.63,1.71,8.36,-5.14,-1.77,-2.15,
0.869,2.63,1.71,8.36,-5.07,-1.83,-2.13,
0.869,2.63,1.71,8.36,-5.06,-1.85,-2.12,
0.869,2.63,1.71,8.36,-5.01,-1.89,-2.11,
0.869,2.63,1.71,8.36,-4.97,-1.93,-2.10,
0.871,2.41,1.67,8.58,-4.97,-1.93,-2.10,
0.872,2.41,1.67,8.58,-4.92,-1.95,-2.10,
0.875,2.41,1.67,8.58,-4.84,-1.97,-2.10,
0.875,2.41,1.67,8.58,-4.81,-1.97,-2.10,
0.895,2.41,1.67,8.58,-4.75,-1.97,-2.11,
0.895,2.41,1.67,8.58,-4.68,-1.96,-2.13,
0.896,2.67,2.42,9.54,-4.68,-1.96,-2.13,
0.896,2.67,2.42,9.54,-4.61,-1.94,-2.15,
0.897,2.67,2.42,9.54,-4.53,-1.91,-2.18,
0.897,2.67,2.42,9.54,-4.45,-1.89,-2.21,
0.897,2.67,2.42,9.54,-4.36,-1.88,-2.24,
0.898,2.67,2.42,9.54,-4.27,-1.87,-2.27,
0.898,2.77,2.99,10.49,-4.27,-1.87,-2.27,
0.898,2.77,2.99,10.49,-4.18,-1.86,-2.31,
0.898,2.77,2.99,10.49,-4.04,-1.86,-2.36,
0.899,2.77,2.99,10.49,-3.99,-1.86,-2.38,
0.899,2.77,2.99,10.49,-3.89,-1.88,-2.42,
0.905,2.77,2.99,10.49,-3.79,-1.92,-2.46,
0.905,3.00,2.86,11.27,-3.79,-1.92,-2.46,
0.906,3.00,2.86,11.27,-3.70,-1.98,-2.50,
0.906,3.00,2.86,11.27,-3.60,-2.07,-2.54,
0.906,3.00,2.86,11.27,-3.50,-2.16,-2.57,
0.908,3.00,2.86,11.27,-3.40,-2.25,-2.59,
0.909,3.00,2.86,11.27,-3.30,-2.34,-2.62,
0.912,3.02,2.70,11.33,-3.30,-2.34,-2.62,
0.913,3.02,2.70,11.33,-3.21,-2.43,-2.64,
0.914,3.02,2.70,11.33,-3.13,-2.51,-2.65,
0.916,3.02,2.70,11.33,-3.05,-2.58,-2.66,
0.918,3.02,2.70,11.33,-2.98,-2.65,-2.67,
0.919,3.02,2.70,11.33,-2.91,-2.71,-2.67,
0.921,2.52,2.72,10.12,-2.91,-2.71,-2.67,
0.922,2.52,2.72,10.12,-2.85,-2.77,-2.67,
0.924,2.52,2.72,10.12,-2.77,-2.85,-2.66,
0.925,2.52,2.72,10.12,-2.74,-2.88,-2.65,
0.927,2.52,2.72,10.12,-2.69,-2.93,-2.64,
0.93,2.52,2.72,10.12,-2.63,-2.98,-2.61,
0.935,1.38,2.67,8.97,-2.63,-2.98,-2.61,
0.935,1.38,2.67,8.97,-2.58,-3.03,-2.58,
0.936,1.38,2.67,8.97,-2.52,-3.09,-2.55,
0.936,1.38,2.67,8.97,-2.46,-3.14,-2.53,
0.937,1.38,2.67,8.97,-2.41,-3.19,-2.50,
0.939,1.38,2.67,8.97,-2.35,-3.24,-2.47,
0.941,0.06,2.87,8.92,-2.35,-3.24,-2.47,
0.941,0.06,2.87,8.92,-2.30,-3.27,-2.44,
0.948,0.06,2.87,8.92,-2.22,-3.32,-2.39,
0.949,0.06,2.87,8.92,-2.19,-3.33,-2.38,
0.949,0.06,2.87,8.92,-2.14,-3.34,-2.35,
0.949,0.06,2.87,8.92,-2.10,-3.34,-2.31,
0.951,-1.15,3.22,7.84,-2.10,-3.34,-2.31,
0.952,-1.15,3.22,7.84,-2.05,-3.33,-2.27,
0.955,-1.15,3.22,7.84,-1.97,-3.28,-2.21,
0.955,-1.15,3.22,7.84,-1.95,-3.26,-2.19,
0.958,-1.15,3.22,7.84,-1.89,-3.21,-2.15,
0.959,-1.15,3.22,7.84,-1.83,-3.15,-2.11,
0.962,-2.66,3.92,7.40,-1.83,-3.15,-2.11,
0.962,-2.66,3.92,7.40,-1.76,-3.10,-2.06,
0.964,-2.66,3.92,7.40,-1.66,-3.01,-1.99,
0.971,-2.66,3.92,7.40,-1.63,-2.97,-1.96,
0.971,-2.66,3.92,7.40,-1.55,-2.91,-1.91,
0.972,-2.66,3.92,7.40,-1.47,-2.84,-1.85,
0.972,-4.23,4.33,6.93,-1.47,-2.84,-1.85,
0.973,-4.23,4.33,6.93,-1.40,-2.78,-1.80,
0.975,-4.23,4.33,6.93,-1.28,-2.67,-1.71,
0.976,-4.23,4.33,6.93,-1.24,-2.63,-1.69,
0.977,-4.23,4.33,6.93,-1.16,-2.56,-1.62,
0.979,-4.23,4.33,6.93,-1.09,-2.49,-1.56,
0.983,-5.56,4.25,6.32,-1.09,-2.49,-1.56,
0.983,-5.56,4.25,6.32,-1.02,-2.41,-1.49,
0.984,-5.56,4.25,6.32,-0.91,-2.30,-1.39,
0.985,-5.56,4.25,6.32,-0.88,-2.26,-1.36,
0.987,-5.56,4.25,6.32,-0.82,-2.19,-1.29,
0.989,-5.56,4.25,6.32,-0.76,-2.11,-1.22,
0.991,-6.55,3.78,5.07,-0.76,-2.11,-1.22,
0.991,-6.55,3.78,5.07,-0.70,-2.04,-1.16,
0.994,-6.55,3.78,5.07,-0.63,-1.93,-1.07,
0.995,-6.55,3.78,5.07,-0.61,-1.89,-1.04,
0.998,-6.55,3.78,5.07,-0.57,-1.83,-0.98,
0.999,-6.55,3.78,5.07,-0.54,-1.76,-0.92,
1.001,-6.92,3.12,3.78,-0.54,-1.76,-0.92,
1.002,-6.92,3.12,3.78,-0.51,-1.70,-0.86,
1.005,-6.92,3.12,3.78,-0.48,-1.62,-0.77,
1.005,-6.92,3.12,3.78,-0.47,-1.59,-0.73,
1.007,-6.92,3.12,3.78,-0.45,-1.54,-0.67,
1.009,-6.92,3.12,3.78,-0.44,-1.48,-0.61,
1.013,-7.17,2.21,2.10,-0.44,-1.48,-0.61,
1.013,-7.17,2.21,2.10,-0.43,-1.42,-0.55,
1.014,-7.17,2.21,2.10,-0.43,-1.31,-0.47,
1.015,-7.17,2.21,2.10,-0.43,-1.28,-0.44,
1.019,-7.17,2.21,2.10,-0.45,-1.20,-0.39,
1.019,-7.17,2.21,2.10,-0.47,-1.14,-0.33,
1.021,-6.80,0.98,0.67,-0.47,-1.14,-0.33,
1.022,-6.80,0.98,0.67,-0.51,-1.08,-0.28,
1.025,-6.80,0.98,0.67,-0.55,-0.94,-0.23,
1.026,-6.80,0.98,0.67,-0.56,-0.90,-0.21,
1.027,-6.80,0.98,0.67,-0.59,-0.82,-0.19,
1.03,-6.80,0.98,0.67,-0.61,-0.75,-0.16,
1.032,-5.01,-0.10,-0.16,-0.61,-0.75,-0.16,
1.032,-5.01,-0.10,-0.16,-0.65,-0.70,-0.14,
1.034,-5.01,-0.10,-0.16,-0.70,-0.62,-0.12,
1.035,-5.01,-0.10,-0.16,-0.71,-0.59,-0.12,
1.037,-5.01,-0.10,-0.16,-0.74,-0.53,-0.11,
1.045,-5.01,-0.10,-0.16,-0.76,-0.47,-0.12,
1.05,-3.74,-0.85,-0.33,-0.76,-0.47,-0.12,
1.051,-3.74,-0.85,-0.33,-0.77,-0.40,-0.12,
1.066,-3.74,-0.85,-0.33,-0.77,-0.30,-0.15,
1.066,-3.74,-0.85,-0.33,-0.77,-0.27,-0.16,
1.067,-3.74,-0.85,-0.33,-0.75,-0.20,-0.19,
1.067,-3.74,-0.85,-0.33,-0.73,-0.13,-0.22,
1.067,-2.58,-1.10,0.88,-0.73,-0.13,-0.22,
1.067,-2.58,-1.10,0.88,-0.70,-0.06,-0.25,
1.067,-2.58,-1.10,0.88,-0.64,0.06,-0.31,
1.068,-2.58,-1.10,0.88,-0.61,0.09,-0.33,
1.068,-2.58,-1.10,0.88,-0.56,0.17,-0.37,
1.068,-2.58,-1.10,0.88,-0.49,0.25,-0.41,
1.068,-2.02,-1.05,2.16,-0.49,0.25,-0.41,
1.068,-2.02,-1.05,2.16,-0.43,0.32,-0.45,
1.069,-2.02,-1.05,2.16,-0.31,0.43,-0.51,
1.069,-2.02,-1.05,2.16,-0.27,0.46,-0.53,
1.069,-2.02,-1.05,2.16,-0.18,0.53,-0.58,
1.069,-2.02,-1.05,2.16,-0.09,0.59,-0.62,
1.073,-1.54,-0.47,3.22,-0.09,0.59,-0.62,
1.073,-1.54,-0.47,3.22,0.00,0.64,-0.66,
1.074,-1.54,-0.47,3.22,0.13,0.70,-0.72,
1.075,-1.54,-0.47,3.22,0.17,0.72,-0.74,
1.077,-1.54,-0.47,3.22,0.26,0.74,-0.78,
1.079,-1.54,-0.47,3.22,0.33,0.75,-0.82,
1.081,-1.52,0.22,3.62,0.33,0.75,-0.82,
1.082,-1.52,0.22,3.62,0.40,0.75,-0.85,
1.084,-1.52,0.22,3.62,0.49,0.74,-0.89,
1.085,-1.52,0.22,3.62,0.52,0.73,-0.90,
1.087,-1.52,0.22,3.62,0.56,0.70,-0.92,
1.089,-1.52,0.22,3.62,0.60,0.67,-0.93,
1.091,-1.92,0.55,2.94,0.60,0.67,-0.93,
1.091,-1.92,0.55,2.94,0.64,0.64,-0.93,
1.094,-1.92,0.55,2.94,0.68,0.59,-0.92,
1.099,-1.92,0.55,2.94,0.68,0.57,-0.92,
1.099,-1.92,0.55,2.94,0.70,0.53,-0.90,
1.1,-1.92,0.55,2.94,0.71,0.50,-0.88,
1.103,-2.42,0.48,1.87,0.71,0.50,-0.88,
1.104,-2.42,0.48,1.87,0.71,0.48,-0.85,
1.105,-2.42,0.48,1.87,0.70,0.44,-0.78,
1.107,-2.42,0.48,1.87,0.69,0.42,-0.76,
1.108,-2.42,0.48,1.87,0.67,0.39,-0.72,
1.12,-2.42,0.48,1.87,0.64,0.34,-0.66,
1.12,-2.43,0.24,0.15,0.64,0.34,-0.66,
1.12,-2.43,0.24,0.15,0.60,0.30,-0.60,
1.121,-2.43,0.24,0.15,0.53,0.24,-0.49,
1.121,-2.43,0.24,0.15,0.50,0.22,-0.45,
1.121,-2.43,0.24,0.15,0.45,0.19,-0.37,
1.121,-2.43,0.24,0.15,0.40,0.17,-0.28,
1.124,-2.76,-0.30,-1.15,0.40,0.17,-0.28,
1.124,-2.76,-0.30,-1.15,0.35,0.15,-0.20,
1.127,-2.76,-0.30,-1.15,0.21,0.12,0.03,
1.129,-2.76,-0.30,-1.15,0.21,0.12,0.03,
1.13,-2.76,-0.30,-1.15,0.21,0.12,0.03,
1.13,-2.76,-0.30,-1.15,0.16,0.11,0.10,
1.131,-2.02,-0.90,-1.74,0.16,0.11,0.10,
1.132,-2.02,-0.90,-1.74,0.11,0.10,0.16,
1.134,-2.02,-0.90,-1.74,0.04,0.10,0.24,
1.135,-2.02,-0.90,-1.74,0.02,0.10,0.27,
1.138,-2.02,-0.90,-1.74,-0.03,0.11,0.31,
1.14,-2.02,-0.90,-1.74,-0.08,0.12,0.35,
1.142,-0.94,-1.26,-2.19,-0.08,0.12,0.35,
1.142,-0.94,-1.26,-2.19,-0.12,0.14,0.39,
1.144,-0.94,-1.26,-2.19,-0.19,0.18,0.44,
1.147,-0.94,-1.26,-2.19,-0.21,0.20,0.45,
1.148,-0.94,-1.26,-2.19,-0.26,0.24,0.48,
1.151,-0.94,-1.26,-2.19,-0.31,0.29,0.50,
1.152,-0.31,-1.22,-2.59,-0.31,0.29,0.50,
1.152,-0.31,-1.22,-2.59,-0.36,0.35,0.51,
1.154,-0.31,-1.22,-2.59,-0.43,0.44,0.52,
1.155,-0.31,-1.22,-2.59,-0.45,0.47,0.52,
1.157,-0.31,-1.22,-2.59,-0.50,0.53,0.51,
1.159,-0.31,-1.22,-2.59,-0.54,0.58,0.49,
1.162,0.62,-1.30,-2.83,-0.54,0.58,0.49,
1.162,0.62,-1.30,-2.83,-0.57,0.64,0.47,
1.164,0.62,-1.30,-2.83,-0.60,0.70,0.42,
1.165,0.62,-1.30,-2.83,-0.61,0.72,0.40,
1.167,0.62,-1.30,-2.83,-0.63,0.75,0.35,
1.174,0.62,-1.30,-2.83,-0.63,0.77,0.30,
1.175,1.29,-1.35,-1.87,-0.63,0.77,0.30,
1.175,1.29,-1.35,-1.87,-0.64,0.79,0.25,
1.176,1.29,-1.35,-1.87,-0.64,0.82,0.17,
1.176,1.29,-1.35,-1.87,-0.64,0.83,0.15,
1.177,1.29,-1.35,-1.87,-0.63,0.84,0.09,
1.179,1.29,-1.35,-1.87,-0.62,0.86,0.03,
1.182,1.47,-1.14,-1.10,-0.62,0.86,0.03,
1.183,1.47,-1.14,-1.10,-0.61,0.87,-0.04,
1.186,1.47,-1.14,-1.10,-0.59,0.86,-0.15,
1.187,1.47,-1.14,-1.10,-0.59,0.86,-0.19,
1.187,1.47,-1.14,-1.10,-0.58,0.85,-0.26,
1.189,1.47,-1.14,-1.10,-0.56,0.84,-0.33,
1.191,2.01,-0.43,-0.99,-0.56,0.84,-0.33,
1.192,2.01,-0.43,-0.99,-0.54,0.84,-0.40,
1.194,2.01,-0.43,-0.99,-0.51,0.85,-0.49,
1.196,2.01,-0.43,-0.99,-0.50,0.85,-0.52,
1.198,2.01,-0.43,-0.99,-0.48,0.86,-0.57,
1.202,2.01,-0.43,-0.99,-0.45,0.86,-0.61,
1.202,1.72,0.41,-0.64,-0.45,0.86,-0.61,
1.203,1.72,0.41,-0.64,-0.41,0.86,-0.65,
1.204,1.72,0.41,-0.64,-0.35,0.84,-0.70,
1.205,1.72,0.41,-0.64,-0.33,0.84,-0.71,
1.207,1.72,0.41,-0.64,-0.28,0.82,-0.72,
1.209,1.72,0.41,-0.64,-0.23,0.80,-0.73,
1.231,1.08,0.75,0.48,-0.23,0.80,-0.73,
1.232,1.08,0.75,0.48,-0.18,0.77,-0.73,
1.232,1.08,0.75,0.48,-0.10,0.71,-0.72,
1.232,1.08,0.75,0.48,-0.07,0.69,-0.71,
1.232,1.08,0.75,0.48,-0.02,0.64,-0.69,
1.233,1.08,0.75,0.48,0.04,0.59,-0.66,
1.233,0.42,0.69,1.40,0.04,0.59,-0.66,
1.233,0.42,0.69,1.40,0.09,0.55,-0.62,
1.234,0.42,0.69,1.40,0.16,0.48,-0.56,
1.234,0.42,0.69,1.40,0.18,0.46,-0.54,
1.234,0.42,0.69,1.40,0.21,0.41,-0.49,
1.234,0.42,0.69,1.40,0.24,0.36,-0.45,
1.235,0.20,0.32,1.72,0.24,0.36,-0.45,
1.235,0.20,0.32,1.72,0.26,0.31,-0.40,
1.235,0.20,0.32,1.72,0.28,0.26,-0.32,
1.24,0.20,0.32,1.72,0.28,0.24,-0.30,
1.241,0.20,0.32,1.72,0.28,0.22,-0.25,
1.241,0.20,0.32,1.72,0.27,0.20,-0.19,
1.243,0.53,-0.16,1.34,0.27,0.20,-0.19,
1.243,0.53,-0.16,1.34,0.25,0.18,-0.14,
1.252,0.53,-0.16,1.34,0.20,0.16,-0.07,
1.252,0.53,-0.16,1.34,0.18,0.15,-0.05,
1.253,0.53,-0.16,1.34,0.14,0.13,-0.01,
1.253,0.53,-0.16,1.34,0.09,0.10,0.02,
1.253,1.36,-0.85,0.62,0.09,0.10,0.02,
1.254,1.36,-0.85,0.62,0.03,0.07,0.04,
1.254,1.36,-0.85,0.62,-0.08,0.03,0.05,
1.258,1.36,-0.85,0.62,-0.11,0.01,0.05,
1.259,1.36,-0.85,0.62,-0.19,-0.04,0.04,
1.26,1.36,-0.85,0.62,-0.28,-0.08,0.02,
1.265,3.30,-2.34,-0.13,-0.28,-0.08,0.02,
1.265,3.30,-2.34,-0.13,-0.37,-0.13,-0.00,
1.273,3.30,-2.34,-0.13,-0.51,-0.21,-0.04,
1.273,3.30,-2.34,-0.13,-0.56,-0.24,-0.05,
1.273,3.30,-2.34,-0.13,-0.65,-0.29,-0.08,
1.274,3.30,-2.34,-0.13,-0.74,-0.34,-0.10,
1.276,4.06,-3.87,-0.71,-0.74,-0.34,-0.10,
1.289,4.06,-3.87,-0.71,-0.83,-0.39,-0.13,
1.29,4.06,-3.87,-0.71,-0.95,-0.46,-0.18,
1.29,4.06,-3.87,-0.71,-0.99,-0.48,-0.19,
1.29,4.06,-3.87,-0.71,-1.06,-0.51,-0.22,
1.29,4.06,-3.87,-0.71,-1.12,-0.54,-0.25,
1.291,3.21,-4.40,-0.94,-1.12,-0.54,-0.25,
1.291,3.21,-4.40,-0.94,-1.18,-0.57,-0.27,
1.291,3.21,-4.40,-0.94,-1.26,-0.58,-0.31,
1.291,3.21,-4.40,-0.94,-1.28,-0.58,-0.33,
1.292,3.21,-4.40,-0.94,-1.31,-0.56,-0.35,
1.296,3.21,-4.40,-0.94,-1.33,-0.54,-0.38,
1.297,2.24,-3.82,-0.43,-1.33,-0.54,-0.38,
1.297,2.24,-3.82,-0.43,-1.34,-0.52,-0.40,
1.299,2.24,-3.82,-0.43,-1.34,-0.47,-0.44,
1.299,2.24,-3.82,-0.43,-1.34,-0.44,-0.47,
1.299,2.24,-3.82,-0.43,-1.33,-0.43,-0.48,
1.301,2.24,-3.82,-0.43,-1.32,-0.42,-0.51,
1.302,1.44,-2.90,0.57,-1.32,-0.42,-0.51,
1.302,1.44,-2.90,0.57,-1.31,-0.42,-0.54,
1.305,1.44,-2.90,0.57,-1.29,-0.45,-0.59,
1.305,1.44,-2.90,0.57,-1.29,-0.47,-0.61,
1.307,1.44,-2.90,0.57,-1.28,-0.51,-0.66,
1.309,1.44,-2.90,0.57,-1.28,-0.56,-0.70,
1.312,1.69,-2.96,0.75,-1.28,-0.56,-0.70,
1.313,1.69,-2.96,0.75,-1.28,-0.61,-0.75,
1.315,1.69,-2.96,0.75,-1.29,-0.68,-0.80,
1.316,1.69,-2.96,0.75,-1.30,-0.71,-0.81,
1.32,1.69,-2.96,0.75,-1.32,-0.74,-0.82,
1.32,1.69,-2.96,0.75,-1.35,-0.77,-0.82,
1.321,1.11,-4.03,-0.43,-1.35,-0.77,-0.82,
1.321,1.11,-4.03,-0.43,-1.38,-0.80,-0.81,
1.324,1.11,-4.03,-0.43,-1.44,-0.81,-0.78,
1.325,1.11,-4.03,-0.43,-1.46,-0.81,-0.76,
1.328,1.11,-4.03,-0.43,-1.51,-0.81,-0.74,
1.329,1.11,-4.03,-0.43,-1.56,-0.80,-0.71,
1.331,0.20,-4.51,-2.30,-1.56,-0.80,-0.71,
1.331,0.20,-4.51,-2.30,-1.62,-0.77,-0.67,
1.334,0.20,-4.51,-2.30,-1.71,-0.71,-0.62,
1.335,0.20,-4.51,-2.30,-1.74,-0.68,-0.61,
1.337,0.20,-4.51,-2.30,-1.80,-0.63,-0.57,
1.339,0.20,-4.51,-2.30,-1.85,-0.58,-0.54,
1.341,-0.21,-5.00,-3.22,-1.85,-0.58,-0.54,
1.342,-0.21,-5.00,-3.22,-1.90,-0.53,-0.51,
1.345,-0.21,-5.00,-3.22,-1.96,-0.45,-0.47,
1.345,-0.21,-5.00,-3.22,-1.98,-0.42,-0.45,
1.347,-0.21,-5.00,-3.22,-2.02,-0.36,-0.43,
1.349,-0.21,-5.00,-3.22,-2.05,-0.30,-0.40,
1.351,-1.09,-4.72,-2.20,-2.05,-0.30,-0.40,
1.352,-1.09,-4.72,-2.20,-2.08,-0.25,-0.38,
1.354,-1.09,-4.72,-2.20,-2.11,-0.14,-0.36,
1.355,-1.09,-4.72,-2.20,-2.12,-0.10,-0.35,
1.357,-1.09,-4.72,-2.20,-2.14,-0.01,-0.33,
1.359,-1.09,-4.72,-2.20,-2.15,0.09,-0.31,
1.365,-2.42,-3.61,-0.43,-2.15,0.09,-0.31,
1.365,-2.42,-3.61,-0.43,-2.15,0.19,-0.28,
1.365,-2.42,-3.61,-0.43,-2.14,0.35,-0.25,
1.365,-2.42,-3.61,-0.43,-2.13,0.41,-0.24,
1.367,-2.42,-3.61,-0.43,-2.11,0.52,-0.22,
1.369,-2.42,-3.61,-0.43,-2.08,0.63,-0.21,
1.371,-3.46,-2.37,1.62,-2.08,0.63,-0.21,
1.371,-3.46,-2.37,1.62,-2.05,0.72,-0.21,
1.377,-3.46,-2.37,1.62,-2.00,0.85,-0.23,
1.378,-3.46,-2.37,1.62,-1.98,0.89,-0.24,
1.394,-3.46,-2.37,1.62,-1.94,0.97,-0.26,
1.394,-3.46,-2.37,1.62,-1.91,1.03,-0.29,
1.394,-2.42,-0.33,2.90,-1.91,1.03,-0.29,
1.395,-2.42,-0.33,2.90,-1.87,1.08,-0.32,
1.395,-2.42,-0.33,2.90,-1.83,1.15,-0.35,
1.395,-2.42,-0.33,2.90,-1.82,1.17,-0.36,
1.395,-2.42,-0.33,2.90,-1.80,1.20,-0.36,
1.395,-2.42,-0.33,2.90,-1.78,1.23,-0.35,
1.395,-2.34,1.38,2.86,-1.78,1.23,-0.35,
1.396,-2.34,1.38,2.86,-1.76,1.26,-0.34,
1.403,-2.34,1.38,2.86,-1.75,1.26,-0.34,
1.404,-2.34,1.38,2.86,-1.74,1.26,-0.34,
1.404,-2.34,1.38,2.86,-1.74,1.26,-0.34,
1.404,-2.34,1.38,2.86,-1.73,1.26,-0.34,
1.404,-0.98,2.28,2.14,-1.73,1.26,-0.34,
1.404,-0.98,2.28,2.14,-1.74,1.25,-0.35,
1.405,-0.98,2.28,2.14,-1.76,1.20,-0.36,
1.405,-0.98,2.28,2.14,-1.77,1.18,-0.36,
1.407,-0.98,2.28,2.14,-1.80,1.10,-0.37,
1.409,-0.98,2.28,2.14,-1.84,1.01,-0.38,
1.411,0.40,1.91,0.82,-1.84,1.01,-0.38,
1.412,0.40,1.91,0.82,-1.89,0.90,-0.39,
1.415,0.40,1.91,0.82,-1.98,0.73,-0.40,
1.415,0.40,1.91,0.82,-2.01,0.68,-0.40,
1.417,0.40,1.91,0.82,-2.08,0.58,-0.41,
1.419,0.40,1.91,0.82,-2.15,0.49,-0.41,
1.421,1.51,0.30,-0.48,-2.15,0.49,-0.41,
1.421,1.51,0.30,-0.48,-2.22,0.42,-0.41,
1.424,1.51,0.30,-0.48,-2.32,0.31,-0.42,
1.425,1.51,0.30,-0.48,-2.35,0.28,-0.43,
1.428,1.51,0.30,-0.48,-2.41,0.23,-0.43,
1.429,1.51,0.30,-0.48,-2.46,0.17,-0.44,
1.432,2.67,-0.83,-1.05,-2.46,0.17,-0.44,
1.432,2.67,-0.83,-1.05,-2.51,0.12,-0.46,
1.434,2.67,-0.83,-1.05,-2.57,0.06,-0.48,
1.435,2.67,-0.83,-1.05,-2.58,0.04,-0.49,
1.438,2.67,-0.83,-1.05,-2.61,0.01,-0.51,
1.439,2.67,-0.83,-1.05,-2.63,-0.03,-0.54,
1.444,3.04,-0.94,-1.20,-2.63,-0.03,-0.54,
1.444,3.04,-0.94,-1.20,-2.64,-0.05,-0.57,
1.444,3.04,-0.94,-1.20,-2.64,-0.06,-0.61,
1.445,3.04,-0.94,-1.20,-2.64,-0.07,-0.63,
1.447,3.04,-0.94,-1.20,-2.65,-0.08,-0.66,
1.449,3.04,-0.94,-1.20,-2.63,-0.08,-0.70,
1.451,2.23,-0.20,-1.05,-2.63,-0.08,-0.70,
1.451,2.23,-0.20,-1.05,-2.59,-0.05,-0.72,
1.454,2.23,-0.20,-1.05,-2.50,0.02,-0.74,
1.455,2.23,-0.20,-1.05,-2.46,0.03,-0.75,
1.457,2.23,-0.20,-1.05,-2.39,0.04,-0.76,
1.459,2.23,-0.20,-1.05,-2.31,0.06,-0.77,
1.462,0.25,1.74,0.61,-2.31,0.06,-0.77,
1.462,0.25,1.74,0.61,-2.21,0.08,-0.76,
1.465,0.25,1.74,0.61,-2.07,0.10,-0.74,
1.465,0.25,1.74,0.61,-2.02,0.10,-0.73,
1.467,0.25,1.74,0.61,-1.93,0.12,-0.71,
1.469,0.25,1.74,0.61,-1.84,0.14,-0.68,
1.471,-2.08,3.42,1.40,-1.84,0.14,-0.68,
1.472,-2.08,3.42,1.40,-1.75,0.16,-0.64,
1.474,-2.08,3.42,1.40,-1.62,0.21,-0.57,
1.476,-2.08,3.42,1.40,-1.58,0.23,-0.54,
1.49,-2.08,3.42,1.40,-1.50,0.28,-0.47,
1.491,-2.08,3.42,1.40,-1.42,0.33,-0.39,
1.527,-4.74,5.08,1.63,-1.42,0.33,-0.39,
1.527,-4.74,5.08,1.63,-1.34,0.38,-0.31,
1.527,-4.74,5.08,1.63,-1.23,0.46,-0.17,
1.527,-4.74,5.08,1.63,-1.19,0.49,-0.13,
1.528,-4.74,5.08,1.63,-1.12,0.54,-0.03,
1.528,-4.74,5.08,1.63,-1.05,0.60,0.06,
1.528,-6.61,5.73,1.43,-1.05,0.60,0.06,
1.528,-6.61,5.73,1.43,-0.98,0.67,0.15,
1.528,-6.61,5.73,1.43,-0.90,0.76,0.23,
1.528,-6.61,5.73,1.43,-0.88,0.79,0.25,
1.529,-6.61,5.73,1.43,-0.82,0.86,0.27,
1.529,-6.61,5.73,1.43,-0.76,0.92,0.29,
1.529,-5.49,5.27,1.35,-0.76,0.92,0.29,
1.529,-5.49,5.27,1.35,-0.69,0.97,0.31,
1.529,-5.49,5.27,1.35,-0.57,1.04,0.33,
1.529,-5.49,5.27,1.35,-0.52,1.06,0.34,
1.529,-5.49,5.27,1.35,-0.43,1.09,0.36,
1.53,-5.49,5.27,1.35,-0.33,1.11,0.38,
1.53,-5.26,4.94,2.36,-0.33,1.11,0.38,
1.53,-5.26,4.94,2.36,-0.23,1.14,0.41,
1.53,-5.26,4.94,2.36,-0.08,1.18,0.46,
1.53,-5.26,4.94,2.36,-0.03,1.20,0.48,
1.53,-5.26,4.94,2.36,0.07,1.22,0.53,
1.53,-5.26,4.94,2.36,0.17,1.25,0.58,
1.531,-5.45,4.98,2.47,0.17,1.25,0.58,
1.531,-5.45,4.98,2.47,0.27,1.28,0.64,
1.531,-5.45,4.98,2.47,0.41,1.31,0.75,
1.531,-5.45,4.98,2.47,0.45,1.32,0.79,
1.531,-5.45,4.98,2.47,0.53,1.33,0.87,
1.532,-5.45,4.98,2.47,0.59,1.34,0.95,
1.533,-5.79,4.42,1.51,0.59,1.34,0.95,
1.533,-5.79,4.42,1.51,0.66,1.35,1.04,
1.534,-5.79,4.42,1.51,0.76,1.36,1.17,
1.535,-5.79,4.42,1.51,0.78,1.36,1.21,
1.537,-5.79,4.42,1.51,0.83,1.35,1.29,
1.54,-5.79,4.42,1.51,0.87,1.34,1.36,
1.541,-4.78,3.61,0.72,0.87,1.34,1.36,
1.541,-4.78,3.61,0.72,0.91,1.32,1.43,
1.56,-4.78,3.61,0.72,0.96,1.29,1.50,
1.561,-4.78,3.61,0.72,0.98,1.27,1.52,
1.561,-4.78,3.61,0.72,1.01,1.23,1.55,
1.561,-4.78,3.61,0.72,1.03,1.19,1.57,
1.561,-2.20,1.94,0.12,1.03,1.19,1.57,
1.562,-2.20,1.94,0.12,1.05,1.14,1.58,
1.562,-2.20,1.94,0.12,1.07,1.06,1.58,
1.562,-2.20,1.94,0.12,1.07,1.03,1.57,
1.562,-2.20,1.94,0.12,1.06,0.98,1.55,
1.562,-2.20,1.94,0.12,1.03,0.94,1.51,
1.563,1.17,0.13,-1.31,1.03,0.94,1.51,
1.563,1.17,0.13,-1.31,1.01,0.89,1.46,
1.567,1.17,0.13,-1.31,0.96,0.83,1.37,
1.567,1.17,0.13,-1.31,0.94,0.80,1.33,
1.568,1.17,0.13,-1.31,0.90,0.75,1.26,
1.569,1.17,0.13,-1.31,0.85,0.69,1.17,
1.571,4.21,-1.67,-2.41,0.85,0.69,1.17,
1.572,4.21,-1.67,-2.41,0.79,0.62,1.07,
1.575,4.21,-1.67,-2.41,0.70,0.49,0.90,
1.577,4.21,-1.67,-2.41,0.67,0.44,0.84,
1.578,4.21,-1.67,-2.41,0.61,0.35,0.71,
1.579,4.21,-1.67,-2.41,0.55,0.24,0.59,
1.585,6.93,-3.35,-3.46,0.55,0.24,0.59,
1.585,6.93,-3.35,-3.46,0.48,0.14,0.46,
1.585,6.93,-3.35,-3.46,0.39,-0.02,0.28,
1.585,6.93,-3.35,-3.46,0.36,-0.06,0.22,
1.587,6.93,-3.35,-3.46,0.29,-0.17,0.11,
1.589,6.93,-3.35,-3.46,0.24,-0.27,0.02,
1.591,6.75,-4.12,-3.85,0.24,-0.27,0.02,
1.592,6.75,-4.12,-3.85,0.18,-0.35,-0.05,
1.594,6.75,-4.12,-3.85,0.10,-0.47,-0.14,
1.595,6.75,-4.12,-3.85,0.08,-0.51,-0.16,
1.597,6.75,-4.12,-3.85,0.03,-0.58,-0.20,
1.6,6.75,-4.12,-3.85,-0.01,-0.64,-0.22,
1.601,4.23,-3.70,-3.77,-0.01,-0.64,-0.22,
1.601,4.23,-3.70,-3.77,-0.04,-0.69,-0.22,
1.603,4.23,-3.70,-3.77,-0.07,-0.78,-0.21,
1.605,4.23,-3.70,-3.77,-0.08,-0.80,-0.20,
1.607,4.23,-3.70,-3.77,-0.09,-0.86,-0.17,
1.61,4.23,-3.70,-3.77,-0.08,-0.91,-0.13,
1.611,1.24,-2.57,-2.30,-0.08,-0.91,-0.13,
1.611,1.24,-2.57,-2.30,-0.07,-0.97,-0.08,
1.614,1.24,-2.57,-2.30,-0.04,-1.05,0.01,
1.615,1.24,-2.57,-2.30,-0.03,-1.08,0.05,
1.617,1.24,-2.57,-2.30,0.01,-1.12,0.12,
1.619,1.24,-2.57,-2.30,0.05,-1.15,0.19,
1.621,-1.22,-1.23,-0.30,0.05,-1.15,0.19,
1.621,-1.22,-1.23,-0.30,0.09,-1.18,0.26,
1.624,-1.22,-1.23,-0.30,0.17,-1.21,0.37,
1.625,-1.22,-1.23,-0.30,0.19,-1.22,0.40,
1.627,-1.22,-1.23,-0.30,0.25,-1.23,0.47,
1.629,-1.22,-1.23,-0.30,0.31,-1.24,0.52,
1.631,-1.95,-0.10,1.64,0.31,-1.24,0.52,
1.631,-1.95,-0.10,1.64,0.36,-1.25,0.56,
1.634,-1.95,-0.10,1.64,0.46,-1.29,0.62,
1.634,-1.95,-0.10,1.64,0.49,-1.31,0.64,
1.637,-1.95,-0.10,1.64,0.54,-1.35,0.69,
1.638,-1.95,-0.10,1.64,0.59,-1.38,0.73,
1.641,-1.89,0.18,2.97,0.59,-1.38,0.73,
1.641,-1.89,0.18,2.97,0.64,-1.41,0.76,
1.645,-1.89,0.18,2.97,0.71,-1.46,0.82,
1.646,-1.89,0.18,2.97,0.73,-1.47,0.83,
1.647,-1.89,0.18,2.97,0.74,-1.48,0.84,
1.654,-1.89,0.18,2.97,0.77,-1.49,0.86,
1.654,-1.51,-0.32,2.98,0.77,-1.49,0.86,
1.654,-1.51,-0.32,2.98,0.79,-1.49,0.87,
1.655,-1.51,-0.32,2.98,0.82,-1.49,0.89,
1.655,-1.51,-0.32,2.98,0.83,-1.49,0.89,
1.657,-1.51,-0.32,2.98,0.85,-1.48,0.90,
1.668,-1.51,-0.32,2.98,0.86,-1.47,0.91,
1.669,-1.32,-1.02,2.60,0.86,-1.47,0.91,
1.669,-1.32,-1.02,2.60,0.87,-1.45,0.91,
1.669,-1.32,-1.02,2.60,0.89,-1.44,0.91,
1.669,-1.32,-1.02,2.60,0.90,-1.44,0.90,
1.669,-1.32,-1.02,2.60,0.91,-1.43,0.89,
1.669,-1.32,-1.02,2.60,0.93,-1.43,0.88,
1.671,-1.23,-1.52,2.24,0.93,-1.43,0.88,
1.671,-1.23,-1.52,2.24,0.93,-1.42,0.87,
1.674,-1.23,-1.52,2.24,0.94,-1.41,0.85,
1.676,-1.23,-1.52,2.24,0.94,-1.41,0.85,
1.677,-1.23,-1.52,2.24,0.94,-1.41,0.85,
1.679,-1.23,-1.52,2.24,0.93,-1.40,0.85,
1.681,-1.54,-2.30,1.46,0.93,-1.40,0.85,
1.681,-1.54,-2.30,1.46,0.91,-1.39,0.86,
1.684,-1.54,-2.30,1.46,0.88,-1.37,0.89,
1.685,-1.54,-2.30,1.46,0.87,-1.36,0.91,
1.687,-1.54,-2.30,1.46,0.84,-1.34,0.95,
1.689,-1.54,-2.30,1.46,0.81,-1.31,1.00,
1.691,-2.50,-2.61,0.10,0.81,-1.31,1.00,
1.691,-2.50,-2.61,0.10,0.77,-1.27,1.05,
1.694,-2.50,-2.61,0.10,0.72,-1.18,1.13,
1.696,-2.50,-2.61,0.10,0.70,-1.15,1.15,
1.697,-2.50,-2.61,0.10,0.67,-1.09,1.20,
1.699,-2.50,-2.61,0.10,0.63,-1.02,1.23,
1.701,-2.32,-2.16,-0.56,0.63,-1.02,1.23,
1.701,-2.32,-2.16,-0.56,0.60,-0.96,1.26,
1.704,-2.32,-2.16,-0.56,0.56,-0.88,1.28,
1.705,-2.32,-2.16,-0.56,0.55,-0.85,1.29,
1.707,-2.32,-2.16,-0.56,0.52,-0.80,1.31,
1.709,-2.32,-2.16,-0.56,0.49,-0.75,1.32,
1.737,-1.19,-1.69,-0.78,0.49,-0.75,1.32,
1.738,-1.19,-1.69,-0.78,0.46,-0.68,1.33,
1.738,-1.19,-1.69,-0.78,0.42,-0.59,1.34,
1.738,-1.19,-1.69,-0.78,0.40,-0.55,1.35,
1.739,-1.19,-1.69,-0.78,0.36,-0.49,1.34,
1.739,-1.19,-1.69,-0.78,0.32,-0.41,1.33,
1.739,-0.51,-1.87,-1.50,0.32,-0.41,1.33,
1.739,-0.51,-1.87,-1.50,0.28,-0.34,1.32,
1.74,-0.51,-1.87,-1.50,0.20,-0.22,1.28,
1.74,-0.51,-1.87,-1.50,0.17,-0.18,1.27,
1.74,-0.51,-1.87,-1.50,0.10,-0.09,1.23,
1.741,-0.51,-1.87,-1.50,0.04,0.00,1.18,
1.741,0.74,-2.53,-2.70,0.04,0.00,1.18,
1.741,0.74,-2.53,-2.70,-0.03,0.10,1.12,
1.741,0.74,-2.53,-2.70,-0.14,0.25,1.01,
1.742,0.74,-2.53,-2.70,-0.18,0.30,0.97,
1.742,0.74,-2.53,-2.70,-0.26,0.41,0.89,
1.742,0.74,-2.53,-2.70,-0.33,0.51,0.79,
1.743,2.39,-3.15,-3.59,-0.33,0.51,0.79,
1.743,2.39,-3.15,-3.59,-0.41,0.61,0.69,
1.749,2.39,-3.15,-3.59,-0.52,0.76,0.51,
1.749,2.39,-3.15,-3.59,-0.56,0.81,0.45,
1.749,2.39,-3.15,-3.59,-0.63,0.91,0.32,
1.75,2.39,-3.15,-3.59,-0.70,1.01,0.18,
1.753,4.04,-3.12,-3.41,-0.70,1.01,0.18,
1.754,4.04,-3.12,-3.41,-0.75,1.11,0.03,
1.754,4.04,-3.12,-3.41,-0.84,1.22,-0.15,
1.755,4.04,-3.12,-3.41,-0.86,1.26,-0.21,
1.759,4.04,-3.12,-3.41,-0.90,1.34,-0.33,
1.759,4.04,-3.12,-3.41,-0.93,1.41,-0.45,
1.769,3.88,-2.22,-2.52,-0.93,1.41,-0.45,
1.769,3.88,-2.22,-2.52,-0.96,1.46,-0.54,
1.77,3.88,-2.22,-2.52,-0.99,1.54,-0.68,
1.77,3.88,-2.22,-2.52,-0.99,1.56,-0.72,
1.77,3.88,-2.22,-2.52,-1.01,1.60,-0.80,
1.771,3.88,-2.22,-2.52,-1.02,1.63,-0.86,
1.777,2.63,-1.17,-1.47,-1.02,1.63,-0.86,
1.778,2.63,-1.17,-1.47,-1.03,1.66,-0.91,
1.778,2.63,-1.17,-1.47,-1.06,1.71,-0.96,
1.778,2.63,-1.17,-1.47,-1.07,1.73,-0.97,
1.778,2.63,-1.17,-1.47,-1.08,1.75,-0.98,
1.779,2.63,-1.17,-1.47,-1.09,1.76,-0.97,
1.807,0.85,-0.43,-1.34,-1.09,1.76,-0.97,
1.809,0.85,-0.43,-1.34,-1.12,1.77,-0.95,
1.809,0.85,-0.43,-1.34,-1.14,1.77,-0.89,
1.81,0.85,-0.43,-1.34,-1.15,1.77,-0.87,
1.81,0.85,-0.43,-1.34,-1.17,1.77,-0.81,
1.81,0.85,-0.43,-1.34,-1.18,1.77,-0.75,
1.811,-0.93,0.02,-1.26,-1.18,1.77,-0.75,
1.811,-0.93,0.02,-1.26,-1.20,1.75,-0.69,
1.811,-0.93,0.02,-1.26,-1.21,1.68,-0.59,
1.811,-0.93,0.02,-1.26,-1.21,1.65,-0.56,
1.812,-0.93,0.02,-1.26,-1.21,1.61,-0.51,
1.812,-0.93,0.02,-1.26,-1.22,1.59,-0.46,
1.812,-1.12,0.12,-0.73,-1.22,1.59,-0.46,
1.813,-1.12,0.12,-0.73,-1.22,1.58,-0.43,
1.813,-1.12,0.12,-0.73,-1.25,1.62,-0.39,
1.813,-1.12,0.12,-0.73,-1.26,1.65,-0.38,
1.813,-1.12,0.12,-0.73,-1.29,1.73,-0.38,
1.814,-1.12,0.12,-0.73,-1.32,1.83,-0.39,
1.814,-0.17,-0.51,-2.34,-1.32,1.83,-0.39,
1.814,-0.17,-0.51,-2.34,-1.36,1.92,-0.42,
1.815,-0.17,-0.51,-2.34,-1.41,2.03,-0.46,
1.815,-0.17,-0.51,-2.34,-1.42,2.06,-0.48,
1.827,-0.17,-0.51,-2.34,-1.45,2.10,-0.51,
1.827,-0.17,-0.51,-2.34,-1.48,2.13,-0.55,
1.828,0.88,-0.36,-2.00,-1.48,2.13,-0.55,
1.828,0.88,-0.36,-2.00,-1.49,2.14,-0.58,
1.828,0.88,-0.36,-2.00,-1.50,2.13,-0.62,
1.828,0.88,-0.36,-2.00,-1.50,2.13,-0.63,
1.829,0.88,-0.36,-2.00,-1.51,2.13,-0.66,
1.829,0.88,-0.36,-2.00,-1.52,2.12,-0.68,
1.834,0.91,0.35,0.01,-1.52,2.12,-0.68,
1.835,0.91,0.35,0.01,-1.53,2.12,-0.70,
1.835,0.91,0.35,0.01,-1.56,2.13,-0.74,
1.835,0.91,0.35,0.01,-1.56,2.14,-0.75,
1.838,0.91,0.35,0.01,-1.58,2.16,-0.78,
1.848,0.91,0.35,0.01,-1.61,2.18,-0.80,
1.849,1.75,1.38,0.70,-1.61,2.18,-0.80,
1.849,1.75,1.38,0.70,-1.63,2.20,-0.83,
1.849,1.75,1.38,0.70,-1.66,2.23,-0.86,
1.85,1.75,1.38,0.70,-1.67,2.23,-0.86,
1.85,1.75,1.38,0.70,-1.68,2.24,-0.88,
1.85,1.75,1.38,0.70,-1.69,2.24,-0.89,
1.851,2.35,2.21,1.30,-1.69,2.24,-0.89,
1.852,2.35,2.21,1.30,-1.69,2.24,-0.89,
1.854,2.35,2.21,1.30,-1.68,2.23,-0.90,
1.855,2.35,2.21,1.30,-1.68,2.23,-0.90,
1.857,2.35,2.21,1.30,-1.66,2.22,-0.89,
1.859,2.35,2.21,1.30,-1.64,2.20,-0.89,
1.862,2.65,2.86,1.72,-1.64,2.20,-0.89,
1.863,2.65,2.86,1.72,-1.62,2.18,-0.87,
1.868,2.65,2.86,1.72,-1.58,2.14,-0.85,
1.868,2.65,2.86,1.72,-1.57,2.13,-0.83,
1.869,2.65,2.86,1.72,-1.54,2.10,-0.81,
1.869,2.65,2.86,1.72,-1.52,2.09,-0.77,
1.872,2.20,2.91,1.49,-1.52,2.09,-0.77,
1.873,2.20,2.91,1.49,-1.49,2.07,-0.73,
1.893,2.20,2.91,1.49,-1.44,2.04,-0.67,
1.894,2.20,2.91,1.49,-1.43,2.03,-0.65,
1.92,2.20,2.91,1.49,-1.41,2.01,-0.61,
1.92,2.20,2.91,1.49,-1.40,1.99,-0.57,
1.92,1.57,2.28,0.75,-1.40,1.99,-0.57,
1.921,1.57,2.28,0.75,-1.38,1.97,-0.53,
1.921,1.57,2.28,0.75,-1.37,1.95,-0.48,
1.921,1.57,2.28,0.75,-1.37,1.94,-0.47,
1.921,1.57,2.28,0.75,-1.37,1.93,-0.44,
1.922,1.57,2.28,0.75,-1.37,1.93,-0.42,
1.922,0.91,0.98,-0.34,-1.37,1.93,-0.42,
1.922,0.91,0.98,-0.34,-1.39,1.94,-0.40,
1.922,0.91,0.98,-0.34,-1.42,1.98,-0.40,
1.923,0.91,0.98,-0.34,-1.43,2.00,-0.40,
1.923,0.91,0.98,-0.34,-1.46,2.05,-0.40,
1.923,0.91,0.98,-0.34,-1.50,2.11,-0.42,
1.928,0.96,0.00,-1.46,-1.50,2.11,-0.42,
1.928,0.96,0.00,-1.46,-1.53,2.16,-0.44,
1.928,0.96,0.00,-1.46,-1.59,2.26,-0.47,
1.928,0.96,0.00,-1.46,-1.62,2.30,-0.49,
1.929,0.96,0.00,-1.46,-1.66,2.38,-0.53,
1.929,0.96,0.00,-1.46,-1.70,2.45,-0.56,
1.929,1.19,-0.45,-1.77,-1.70,2.45,-0.56,
1.93,1.19,-0.45,-1.77,-1.74,2.51,-0.61,
1.93,1.19,-0.45,-1.77,-1.80,2.63,-0.68,
1.93,1.19,-0.45,-1.77,-1.82,2.67,-0.70,
1.93,1.19,-0.45,-1.77,-1.86,2.74,-0.75,
1.931,1.19,-0.45,-1.77,-1.90,2.81,-0.81,
1.931,2.03,-0.64,-1.79,-1.90,2.81,-0.81,
1.931,2.03,-0.64,-1.79,-1.93,2.87,-0.87,
1.931,2.03,-0.64,-1.79,-1.96,2.94,-0.96,
1.932,2.03,-0.64,-1.79,-1.97,2.96,-0.99,
1.932,2.03,-0.64,-1.79,-1.99,2.98,-1.05,
1.932,2.03,-0.64,-1.79,-2.00,3.00,-1.10,
1.937,2.45,-0.07,-1.09,-2.00,3.00,-1.10,
1.937,2.45,-0.07,-1.09,-2.01,3.01,-1.14,
1.937,2.45,-0.07,-1.09,-2.02,3.04,-1.17,
1.938,2.45,-0.07,-1.09,-2.04,3.06,-1.18,
1.94,2.45,-0.07,-1.09,-2.09,3.14,-1.19,
1.94,2.45,-0.07,-1.09,-2.23,3.40,-1.18,
1.942,1.00,0.94,-5.09,-2.23,3.40,-1.18,
1.942,1.00,0.94,-5.09,-2.53,4.01,-1.15,
1.944,1.00,0.94,-5.09,-2.87,5.05,-0.94,
1.946,1.00,0.94,-5.09,-2.86,5.24,-0.82,
1.948,1.00,0.94,-5.09,-2.70,5.38,-0.54,
1.949,1.00,0.94,-5.09,-2.42,5.28,-0.24,
1.952,-8.46,4.12,0.66,-2.42,5.28,-0.24,
1.952,-8.46,4.12,0.66,-2.07,5.04,0.06,
1.954,-8.46,4.12,0.66,-1.50,4.55,0.44,
1.955,-8.46,4.12,0.66,-1.32,4.35,0.53,
1.957,-8.46,4.12,0.66,-1.03,3.88,0.64,
1.959,-8.46,4.12,0.66,-0.84,3.34,0.67,
1.962,-5.29,3.39,8.08,-0.84,3.34,0.67,
1.963,-5.29,3.39,8.08,-0.72,2.85,0.64,
1.965,-5.29,3.39,8.08,-0.63,2.28,0.53,
1.965,-5.29,3.39,8.08,-0.63,2.13,0.49,
1.967,-5.29,3.39,8.08,-0.64,1.89,0.39,
1.969,-5.29,3.39,8.08,-0.68,1.71,0.27,
1.971,3.04,0.76,1.37,-0.68,1.71,0.27,
1.971,3.04,0.76,1.37,-0.75,1.59,0.13,
1.975,3.04,0.76,1.37,-0.88,1.47,-0.08,
1.976,3.04,0.76,1.37,-0.93,1.44,-0.15,
1.977,3.04,0.76,1.37,-1.03,1.41,-0.29,
1.979,3.04,0.76,1.37,-1.12,1.40,-0.43,
1.981,6.84,-2.14,-3.68,-1.12,1.40,-0.43,
1.981,6.84,-2.14,-3.68,-1.20,1.40,-0.57,
1.984,6.84,-2.14,-3.68,-1.28,1.39,-0.76,
1.985,6.84,-2.14,-3.68,-1.30,1.38,-0.82,
1.987,6.84,-2.14,-3.68,-1.33,1.34,-0.93,
1.989,6.84,-2.14,-3.68,-1.35,1.30,-1.02,
1.992,5.03,-2.49,-3.93,-1.35,1.30,-1.02,
1.993,5.03,-2.49,-3.93,-1.37,1.26,-1.09,
1.995,5.03,-2.49,-3.93,-1.38,1.21,-1.18,
1.998,5.03,-2.49,-3.93,-1.38,1.21,-1.19,
1.999,5.03,-2.49,-3.93,-1.38,1.21,-1.20,
1.999,5.03,-2.49,-3.93,-1.38,1.22,-1.21,
2.001,2.09,-2.04,-3.60,-1.38,1.22,-1.21,
2.001,2.09,-2.04,-3.60,-1.38,1.24,-1.21,
2.004,2.09,-2.04,-3.60,-1.38,1.28,-1.18,
2.005,2.09,-2.04,-3.60,-1.38,1.30,-1.17,
2.007,2.09,-2.04,-3.60,-1.40,1.33,-1.14,
2.009,2.09,-2.04,-3.60,-1.41,1.37,-1.11,
2.013,0.78,-0.95,-3.10,-1.41,1.37,-1.11,
2.013,0.78,-0.95,-3.10,-1.43,1.41,-1.08,
2.015,0.78,-0.95,-3.10,-1.45,1.44,-1.04,
2.016,0.78,-0.95,-3.10,-1.45,1.45,-1.03,
2.017,0.78,-0.95,-3.10,-1.47,1.45,-1.01,
2.019,0.78,-0.95,-3.10,-1.47,1.44,-0.99,
2.021,1.30,0.37,-1.65,-1.47,1.44,-0.99,
2.021,1.30,0.37,-1.65,-1.47,1.42,-0.97,
2.031,1.30,0.37,-1.65,-1.45,1.36,-0.94,
2.031,1.30,0.37,-1.65,-1.44,1.33,-0.93,
2.031,1.30,0.37,-1.65,-1.41,1.28,-0.90,
2.032,1.30,0.37,-1.65,-1.37,1.22,-0.87,
2.032,1.72,1.62,0.47,-1.37,1.22,-0.87,
2.032,1.72,1.62,0.47,-1.33,1.16,-0.84,
2.034,1.72,1.62,0.47,-1.25,1.05,-0.79,
2.035,1.72,1.62,0.47,-1.22,1.02,-0.77,
2.037,1.72,1.62,0.47,-1.16,0.96,-0.73,
2.039,1.72,1.62,0.47,-1.10,0.89,-0.68,
2.077,1.67,2.89,1.92,-1.10,0.89,-0.68,
2.078,1.67,2.89,1.92,-1.03,0.83,-0.64,
2.107,1.67,2.89,1.92,-0.92,0.73,-0.57,
2.107,1.67,2.89,1.92,-0.88,0.69,-0.54,
2.108,1.67,2.89,1.92,-0.81,0.63,-0.49,
2.108,1.67,2.89,1.92,-0.74,0.57,-0.44,
2.108,1.59,3.58,2.36,-0.74,0.57,-0.44,
2.108,1.59,3.58,2.36,-0.67,0.52,-0.39,
2.108,1.59,3.58,2.36,-0.56,0.45,-0.32,
2.109,1.59,3.58,2.36,-0.52,0.43,-0.30,
2.109,1.59,3.58,2.36,-0.46,0.38,-0.26,
2.109,1.59,3.58,2.36,-0.38,0.34,-0.23,
2.11,1.92,3.80,2.38,-0.38,0.34,-0.23,
2.11,1.92,3.80,2.38,-0.31,0.29,-0.19,
2.11,1.92,3.80,2.38,-0.18,0.19,-0.15,
2.11,1.92,3.80,2.38,-0.14,0.15,-0.13,
2.111,1.92,3.80,2.38,-0.05,0.05,-0.10,
2.111,1.92,3.80,2.38,0.05,-0.05,-0.07,
2.111,2.08,3.56,3.11,0.05,-0.05,-0.07,
2.112,2.08,3.56,3.11,0.16,-0.18,-0.04,
2.112,2.08,3.56,3.11,0.32,-0.40,0.02,
2.112,2.08,3.56,3.11,0.38,-0.49,0.03,
2.112,2.08,3.56,3.11,0.50,-0.69,0.06,
2.113,2.08,3.56,3.11,0.61,-0.91,0.09,
2.113,2.38,3.50,4.66,0.61,-0.91,0.09,
2.113,2.38,3.50,4.66,0.73,-1.15,0.11,
2.114,2.38,3.50,4.66,0.90,-1.51,0.13,
2.114,2.38,3.50,4.66,0.96,-1.63,0.14,
2.114,2.38,3.50,4.66,1.06,-1.86,0.16,
2.115,2.38,3.50,4.66,1.16,-2.09,0.18,
2.115,2.97,3.13,5.15,1.16,-2.09,0.18,
2.115,2.97,3.13,5.15,1.26,-2.31,0.21,
2.116,2.97,3.13,5.15,1.39,-2.62,0.26,
2.116,2.97,3.13,5.15,1.43,-2.72,0.28,
2.116,2.97,3.13,5.15,1.50,-2.91,0.32,
2.117,2.97,3.13,5.15,1.57,-3.09,0.37,
2.117,2.67,2.87,4.08,1.57,-3.09,0.37,
2.117,2.67,2.87,4.08,1.62,-3.26,0.43,
2.117,2.67,2.87,4.08,1.69,-3.48,0.53,
2.118,2.67,2.87,4.08,1.71,-3.55,0.57,
2.118,2.67,2.87,4.08,1.75,-3.69,0.64,
2.118,2.67,2.87,4.08,1.77,-3.82,0.71,
2.119,1.30,2.04,2.16,1.77,-3.82,0.71,
2.119,1.30,2.04,2.16,1.79,-3.96,0.78,
2.119,1.30,2.04,2.16,1.79,-4.17,0.88,
2.119,1.30,2.04,2.16,1.79,-4.23,0.91,
2.12,1.30,2.04,2.16,1.78,-4.35,0.98,
2.12,1.30,2.04,2.16,1.77,-4.46,1.04,
2.127,0.16,1.29,0.49,1.77,-4.46,1.04,
2.128,0.16,1.29,0.49,1.76,-4.56,1.10,
2.128,0.16,1.29,0.49,1.72,-4.84,1.30,
2.128,0.16,1.29,0.49,1.72,-4.84,1.30,
2.129,0.16,1.29,0.49,1.72,-4.84,1.30,
2.129,0.16,1.29,0.49,1.70,-4.92,1.37,
2.131,-1.06,0.93,-0.65,1.70,-4.92,1.37,
2.131,-1.06,0.93,-0.65,1.68,-4.99,1.43,
2.136,-1.06,0.93,-0.65,1.64,-5.07,1.51,
2.136,-1.06,0.93,-0.65,1.63,-5.09,1.53,
2.137,-1.06,0.93,-0.65,1.61,-5.13,1.58,
2.139,-1.06,0.93,-0.65,1.59,-5.16,1.61,
2.141,-1.58,1.04,-1.68,1.59,-5.16,1.61,
2.142,-1.58,1.04,-1.68,1.57,-5.17,1.65,
2.144,-1.58,1.04,-1.68,1.54,-5.18,1.70,
2.145,-1.58,1.04,-1.68,1.53,-5.18,1.72,
2.147,-1.58,1.04,-1.68,1.51,-5.16,1.75,
2.149,-1.58,1.04,-1.68,1.49,-5.13,1.78,
2.151,-2.30,1.32,-2.36,1.49,-5.13,1.78,
2.151,-2.30,1.32,-2.36,1.47,-5.11,1.81,
2.154,-2.30,1.32,-2.36,1.42,-5.07,1.85,
2.155,-2.30,1.32,-2.36,1.40,-5.04,1.86,
2.169,-2.30,1.32,-2.36,1.36,-4.98,1.88,
2.17,-2.30,1.32,-2.36,1.31,-4.89,1.91,
2.17,-3.16,1.09,-3.84,1.31,-4.89,1.91,
2.17,-3.16,1.09,-3.84,1.26,-4.77,1.93,
2.17,-3.16,1.09,-3.84,1.19,-4.58,1.98,
2.171,-3.16,1.09,-3.84,1.16,-4.52,1.99,
2.171,-3.16,1.09,-3.84,1.12,-4.38,2.01,
2.171,-3.16,1.09,-3.84,1.07,-4.25,2.03,
2.173,-4.29,1.12,-4.45,1.07,-4.25,2.03,
2.173,-4.29,1.12,-4.45,1.02,-4.11,2.05,
2.196,-4.29,1.12,-4.45,0.94,-3.88,2.06,
2.197,-4.29,1.12,-4.45,0.91,-3.80,2.06,
2.197,-4.29,1.12,-4.45,0.83,-3.61,2.06,
2.197,-4.29,1.12,-4.45,0.75,-3.39,2.04,
2.198,-4.55,0.76,-5.99,0.75,-3.39,2.04,
2.198,-4.55,0.76,-5.99,0.66,-3.16,2.03,
2.198,-4.55,0.76,-5.99,0.53,-2.80,1.99,
2.198,-4.55,0.76,-5.99,0.49,-2.67,1.98,
2.198,-4.55,0.76,-5.99,0.40,-2.41,1.95,
2.199,-4.55,0.76,-5.99,0.31,-2.16,1.92,
2.199,-4.50,0.44,-6.92,0.31,-2.16,1.92,
2.199,-4.50,0.44,-6.92,0.22,-1.91,1.89,
2.199,-4.50,0.44,-6.92,0.07,-1.54,1.84,
2.199,-4.50,0.44,-6.92,0.03,-1.42,1.82,
2.2,-4.50,0.44,-6.92,-0.05,-1.19,1.78,
2.2,-4.50,0.44,-6.92,-0.13,-0.98,1.75,
2.202,-4.78,-0.65,-6.68,-0.13,-0.98,1.75,
2.203,-4.78,-0.65,-6.68,-0.19,-0.78,1.71,
2.204,-4.78,-0.65,-6.68,-0.28,-0.50,1.66,
2.205,-4.78,-0.65,-6.68,-0.31,-0.42,1.64,
2.208,-4.78,-0.65,-6.68,-0.36,-0.24,1.60,
2.212,-4.78,-0.65,-6.68,-0.41,-0.07,1.57,
2.239,-4.36,-1.72,-5.71,-0.41,-0.07,1.57,
2.24,-4.36,-1.72,-5.71,-0.45,0.10,1.54,
2.24,-4.36,-1.72,-5.71,-0.50,0.35,1.50,
2.241,-4.36,-1.72,-5.71,-0.51,0.43,1.49,
2.241,-4.36,-1.72,-5.71,-0.53,0.58,1.47,
2.242,-4.36,-1.72,-5.71,-0.55,0.73,1.45,
2.242,-3.83,-2.13,-5.14,-0.55,0.73,1.45,
2.243,-3.83,-2.13,-5.14,-0.55,0.88,1.44,
2.243,-3.83,-2.13,-5.14,-0.55,1.07,1.43,
2.243,-3.83,-2.13,-5.14,-0.55,1.14,1.43,
2.244,-3.83,-2.13,-5.14,-0.54,1.25,1.44,
2.244,-3.83,-2.13,-5.14,-0.53,1.36,1.44,
2.245,-2.76,-1.58,-4.12,-0.53,1.36,1.44,
2.245,-2.76,-1.58,-4.12,-0.51,1.44,1.45,
2.245,-2.76,-1.58,-4.12,-0.49,1.52,1.47,
2.245,-2.76,-1.58,-4.12,-0.48,1.55,1.48,
2.246,-2.76,-1.58,-4.12,-0.45,1.61,1.50,
2.246,-2.76,-1.58,-4.12,-0.43,1.67,1.52,
2.246,-1.54,-1.09,-3.00,-0.43,1.67,1.52,
2.247,-1.54,-1.09,-3.00,-0.41,1.70,1.55,
2.247,-1.54,-1.09,-3.00,-0.38,1.75,1.61,
2.247,-1.54,-1.09,-3.00,-0.37,1.76,1.63,
2.248,-1.54,-1.09,-3.00,-0.36,1.77,1.67,
2.254,-1.54,-1.09,-3.00,-0.34,1.77,1.71,
2.254,-0.43,-0.50,-1.63,-0.34,1.77,1.71,
2.254,-0.43,-0.50,-1.63,-0.32,1.78,1.76,
2.255,-0.43,-0.50,-1.63,-0.30,1.77,1.81,
2.255,-0.43,-0.50,-1.63,-0.30,1.76,1.83,
2.263,-0.43,-0.50,-1.63,-0.29,1.74,1.86,
2.264,-0.43,-0.50,-1.63,-0.28,1.72,1.89,
2.264,1.18,-0.15,-0.32,-0.28,1.72,1.89,
2.264,1.18,-0.15,-0.32,-0.27,1.66,1.91,
2.265,1.18,-0.15,-0.32,-0.25,1.54,1.93,
2.265,1.18,-0.15,-0.32,-0.25,1.50,1.93,
2.267,1.18,-0.15,-0.32,-0.23,1.40,1.93,
2.269,1.18,-0.15,-0.32,-0.22,1.28,1.92,
2.271,2.95,-0.81,0.98,-0.22,1.28,1.92,
2.271,2.95,-0.81,0.98,-0.21,1.14,1.90,
2.275,2.95,-0.81,0.98,-0.19,0.91,1.87,
2.275,2.95,-0.81,0.98,-0.18,0.82,1.86,
2.277,2.95,-0.81,0.98,-0.16,0.67,1.84,
2.279,2.95,-0.81,0.98,-0.14,0.52,1.82,
2.281,3.53,-1.40,2.07,-0.14,0.52,1.82,
2.282,3.53,-1.40,2.07,-0.13,0.34,1.81,
2.284,3.53,-1.40,2.07,-0.11,0.08,1.79,
2.285,3.53,-1.40,2.07,-0.10,-0.00,1.78,
2.287,3.53,-1.40,2.07,-0.09,-0.14,1.77,
2.289,3.53,-1.40,2.07,-0.08,-0.28,1.76,
2.291,3.09,-1.64,2.26,-0.08,-0.28,1.76,
2.292,3.09,-1.64,2.26,-0.07,-0.39,1.76,
2.294,3.09,-1.64,2.26,-0.06,-0.52,1.75,
2.297,3.09,-1.64,2.26,-0.06,-0.57,1.75,
2.298,3.09,-1.64,2.26,-0.06,-0.64,1.75,
2.299,3.09,-1.64,2.26,-0.06,-0.71,1.75,
2.301,2.34,-1.46,1.94,-0.06,-0.71,1.75,
2.301,2.34,-1.46,1.94,-0.06,-0.77,1.75,
2.304,2.34,-1.46,1.94,-0.07,-0.85,1.75,
2.305,2.34,-1.46,1.94,-0.07,-0.88,1.75,
2.313,2.34,-1.46,1.94,-0.07,-0.91,1.76,
2.313,2.34,-1.46,1.94,-0.07,-0.93,1.77,
2.314,1.14,-1.17,1.80,-0.07,-0.93,1.77,
2.314,1.14,-1.17,1.80,-0.08,-0.94,1.79,
2.314,1.14,-1.17,1.80,-0.09,-0.94,1.82,
2.315,1.14,-1.17,1.80,-0.10,-0.94,1.84,
2.317,1.14,-1.17,1.80,-0.11,-0.90,1.86,
2.32,1.14,-1.17,1.80,-0.12,-0.84,1.89,
2.321,-0.20,-0.72,1.61,-0.12,-0.84,1.89,
2.322,-0.20,-0.72,1.61,-0.13,-0.76,1.92,
2.345,-0.20,-0.72,1.61,-0.16,-0.61,1.96,
2.345,-0.20,-0.72,1.61,-0.17,-0.56,1.97,
2.345,-0.20,-0.72,1.61,-0.19,-0.46,2.00,
2.346,-0.20,-0.72,1.61,-0.21,-0.35,2.02,
2.346,-0.82,-0.27,1.38,-0.21,-0.35,2.02,
2.346,-0.82,-0.27,1.38,-0.23,-0.25,2.04,
2.346,-0.82,-0.27,1.38,-0.26,-0.10,2.07,
2.346,-0.82,-0.27,1.38,-0.27,-0.05,2.08,
2.347,-0.82,-0.27,1.38,-0.29,0.04,2.09,
2.347,-0.82,-0.27,1.38,-0.31,0.12,2.09,
2.347,-0.82,0.05,1.60,-0.31,0.12,2.09,
2.347,-0.82,0.05,1.60,-0.33,0.18,2.10,
2.347,-0.82,0.05,1.60,-0.38,0.27,2.08,
2.347,-0.82,0.05,1.60,-0.39,0.28,2.07,
2.348,-0.82,0.05,1.60,-0.41,0.29,2.06,
2.355,-0.82,0.05,1.60,-0.43,0.30,2.04,
2.355,-0.20,-0.02,2.06,-0.43,0.30,2.04,
2.356,-0.20,-0.02,2.06,-0.46,0.29,2.01,
2.356,-0.20,-0.02,2.06,-0.50,0.27,1.97,
2.356,-0.20,-0.02,2.06,-0.52,0.26,1.95,
2.378,-0.20,-0.02,2.06,-0.55,0.24,1.91,
2.379,-0.20,-0.02,2.06,-0.58,0.21,1.87,
2.379,0.31,-0.03,2.24,-0.58,0.21,1.87,
2.379,0.31,-0.03,2.24,-0.61,0.19,1.82,
2.379,0.31,-0.03,2.24,-0.64,0.14,1.75,
2.379,0.31,-0.03,2.24,-0.66,0.11,1.72,
2.379,0.31,-0.03,2.24,-0.68,0.05,1.67,
2.38,0.31,-0.03,2.24,-0.70,-0.01,1.61,
2.38,0.99,-0.48,2.03,-0.70,-0.01,1.61,
2.38,0.99,-0.48,2.03,-0.71,-0.07,1.56,
2.38,0.99,-0.48,2.03,-0.72,-0.15,1.47,
2.38,0.99,-0.48,2.03,-0.72,-0.17,1.44,
2.401,0.99,-0.48,2.03,-0.71,-0.21,1.38,
2.401,0.99,-0.48,2.03,-0.71,-0.23,1.33,
2.401,1.57,-0.72,1.84,-0.71,-0.23,1.33,
2.401,1.57,-0.72,1.84,-0.69,-0.25,1.27,
2.401,1.57,-0.72,1.84,-0.66,-0.27,1.20,
2.402,1.57,-0.72,1.84,-0.65,-0.27,1.18,
2.402,1.57,-0.72,1.84,-0.62,-0.27,1.13,
2.402,1.57,-0.72,1.84,-0.59,-0.27,1.09,
2.402,2.03,-0.60,1.60,-0.59,-0.27,1.09,
2.402,2.03,-0.60,1.60,-0.56,-0.27,1.06,
2.403,2.03,-0.60,1.60,-0.50,-0.25,1.01,
2.403,2.03,-0.60,1.60,-0.48,-0.24,0.99,
2.403,2.03,-0.60,1.60,-0.45,-0.22,0.96,
2.403,2.03,-0.60,1.60,-0.41,-0.21,0.92,
2.403,2.42,-0.38,1.57,-0.41,-0.21,0.92,
2.404,2.42,-0.38,1.57,-0.38,-0.20,0.89,
2.404,2.42,-0.38,1.57,-0.33,-0.18,0.83,
2.411,2.42,-0.38,1.57,-0.31,-0.17,0.81,
2.411,2.42,-0.38,1.57,-0.28,-0.15,0.77,
2.411,2.42,-0.38,1.57,-0.26,-0.14,0.73,
2.426,2.84,-0.15,1.34,-0.26,-0.14,0.73,
2.426,2.84,-0.15,1.34,-0.23,-0.12,0.68,
2.427,2.84,-0.15,1.34,-0.20,-0.10,0.61,
2.427,2.84,-0.15,1.34,-0.19,-0.09,0.59,
2.427,2.84,-0.15,1.34,-0.17,-0.07,0.54,
2.427,2.84,-0.15,1.34,-0.16,-0.06,0.49,
2.427,3.16,0.27,0.84,-0.16,-0.06,0.49,
2.428,3.16,0.27,0.84,-0.15,-0.04,0.44,
2.428,3.16,0.27,0.84,-0.13,-0.02,0.37,
2.428,3.16,0.27,0.84,-0.13,0.00,0.33,
2.428,3.16,0.27,0.84,-0.12,0.01,0.31,
2.44,3.16,0.27,0.84,-0.12,0.04,0.27,
2.44,2.75,0.47,0.37,-0.12,0.04,0.27,
2.44,2.75,0.47,0.37,-0.12,0.05,0.22,
2.44,2.75,0.47,0.37,-0.12,0.08,0.16,
2.441,2.75,0.47,0.37,-0.13,0.08,0.14,
2.441,2.75,0.47,0.37,-0.13,0.10,0.10,
2.441,2.75,0.47,0.37,-0.14,0.13,0.07,
2.442,2.37,0.72,-0.17,-0.14,0.13,0.07,
2.442,2.37,0.72,-0.17,-0.15,0.15,0.03,
2.455,2.37,0.72,-0.17,-0.17,0.20,-0.01,
2.456,2.37,0.72,-0.17,-0.18,0.22,-0.02,
2.456,2.37,0.72,-0.17,-0.19,0.24,-0.05,
2.457,2.37,0.72,-0.17,-0.21,0.28,-0.07,
2.457,1.86,0.92,-0.54,-0.21,0.28,-0.07,
2.457,1.86,0.92,-0.54,-0.22,0.31,-0.09,
2.457,1.86,0.92,-0.54,-0.24,0.35,-0.11,
2.457,1.86,0.92,-0.54,-0.24,0.37,-0.12,
2.457,1.86,0.92,-0.54,-0.26,0.40,-0.13,
2.495,1.86,0.92,-0.54,-0.27,0.43,-0.14,
2.496,1.20,0.92,-0.70,-0.27,0.43,-0.14,
2.496,1.20,0.92,-0.70,-0.29,0.46,-0.15,
2.496,1.20,0.92,-0.70,-0.32,0.51,-0.16,
2.496,1.20,0.92,-0.70,-0.32,0.52,-0.16,
2.497,1.20,0.92,-0.70,-0.34,0.56,-0.16,
2.497,1.20,0.92,-0.70,-0.36,0.61,-0.16,
2.497,0.46,0.81,-0.83,-0.36,0.61,-0.16,
2.497,0.46,0.81,-0.83,-0.38,0.65,-0.16,
2.497,0.46,0.81,-0.83,-0.41,0.73,-0.15,
2.498,0.46,0.81,-0.83,-0.41,0.76,-0.14,
2.498,0.46,0.81,-0.83,-0.43,0.82,-0.13,
2.498,0.46,0.81,-0.83,-0.44,0.88,-0.11,
2.498,-0.28,0.97,-0.83,-0.44,0.88,-0.11,
2.498,-0.28,0.97,-0.83,-0.46,0.95,-0.09,
2.499,-0.28,0.97,-0.83,-0.47,1.06,-0.05,
2.499,-0.28,0.97,-0.83,-0.47,1.09,-0.04,
2.499,-0.28,0.97,-0.83,-0.47,1.18,0.00,
2.499,-0.28,0.97,-0.83,-0.48,1.27,0.05,
2.499,-1.10,2.02,-0.66,-0.48,1.27,0.05,
2.5,-1.10,2.02,-0.66,-0.48,1.36,0.10,
2.5,-1.10,2.02,-0.66,-0.49,1.48,0.18,
2.5,-1.10,2.02,-0.66,-0.49,1.52,0.21,
2.5,-1.10,2.02,-0.66,-0.48,1.58,0.27,
2.5,-1.10,2.02,-0.66,-0.48,1.63,0.32,
2.506,-1.55,3.17,-0.25,-0.48,1.63,0.32,
2.508,-1.55,3.17,-0.25,-0.48,1.66,0.38,
2.508,-1.55,3.17,-0.25,-0.47,1.66,0.46,
2.508,-1.55,3.17,-0.25,-0.47,1.65,0.49,
2.512,-1.55,3.17,-0.25,-0.47,1.62,0.54,
2.512,-1.55,3.17,-0.25,-0.47,1.57,0.59,
2.512,-1.09,3.44,0.20,-0.47,1.57,0.59,
2.513,-1.09,3.44,0.20,-0.47,1.50,0.64,
2.514,-1.09,3.44,0.20,-0.48,1.37,0.70,
2.515,-1.09,3.44,0.20,-0.48,1.33,0.72,
2.517,-1.09,3.44,0.20,-0.48,1.23,0.76,
2.519,-1.09,3.44,0.20,-0.48,1.14,0.80,
2.522,-0.32,3.12,0.67,-0.48,1.14,0.80,
2.523,-0.32,3.12,0.67,-0.48,1.03,0.83,
2.524,-0.32,3.12,0.67,-0.48,0.87,0.88,
2.526,-0.32,3.12,0.67,-0.48,0.76,0.91,
2.527,-0.32,3.12,0.67,-0.48,0.70,0.92,
2.53,-0.32,3.12,0.67,-0.48,0.58,0.94,
2.532,0.23,2.70,0.79,-0.48,0.58,0.94,
2.532,0.23,2.70,0.79,-0.49,0.46,0.96,
2.534,0.23,2.70,0.79,-0.50,0.28,0.98,
2.536,0.23,2.70,0.79,-0.51,0.22,0.99,
2.539,0.23,2.70,0.79,-0.52,0.11,0.99,
2.54,0.23,2.70,0.79,-0.53,0.01,1.00,
2.544,0.52,2.43,0.30,-0.53,0.01,1.00,
2.545,0.52,2.43,0.30,-0.54,-0.08,1.00,
2.572,0.52,2.43,0.30,-0.56,-0.19,0.98,
2.572,0.52,2.43,0.30,-0.56,-0.22,0.97,
2.573,0.52,2.43,0.30,-0.56,-0.26,0.94,
2.573,0.52,2.43,0.30,-0.56,-0.29,0.91,
2.573,0.69,1.94,-0.17,-0.56,-0.29,0.91,
2.574,0.69,1.94,-0.17,-0.56,-0.30,0.87,
2.574,0.69,1.94,-0.17,-0.55,-0.29,0.81,
2.575,0.69,1.94,-0.17,-0.54,-0.29,0.79,
2.575,0.69,1.94,-0.17,-0.54,-0.27,0.75,
2.575,0.69,1.94,-0.17,-0.52,-0.24,0.71,
2.576,0.41,1.36,-0.22,-0.52,-0.24,0.71,
2.576,0.41,1.36,-0.22,-0.50,-0.20,0.67,
2.577,0.41,1.36,-0.22,-0.47,-0.15,0.61,
2.577,0.41,1.36,-0.22,-0.46,-0.13,0.59,
2.578,0.41,1.36,-0.22,-0.44,-0.08,0.55,
2.578,0.41,1.36,-0.22,-0.41,-0.04,0.50,
2.578,0.26,0.83,-0.12,-0.41,-0.04,0.50,
2.579,0.26,0.83,-0.12,-0.39,-0.00,0.46,
2.579,0.26,0.83,-0.12,-0.35,0.05,0.40,
2.58,0.26,0.83,-0.12,-0.34,0.07,0.38,
2.58,0.26,0.83,-0.12,-0.32,0.10,0.33,
2.581,0.26,0.83,-0.12,-0.30,0.14,0.29,
2.581,0.19,0.45,-0.15,-0.30,0.14,0.29,
2.581,0.19,0.45,-0.15,-0.28,0.17,0.25,
2.591,0.19,0.45,-0.15,-0.25,0.21,0.19,
2.591,0.19,0.45,-0.15,-0.24,0.22,0.17,
2.592,0.19,0.45,-0.15,-0.21,0.25,0.14,
2.592,0.19,0.45,-0.15,-0.19,0.28,0.12,
2.592,-0.29,0.47,-0.01,-0.19,0.28,0.12,
2.592,-0.29,0.47,-0.01,-0.17,0.32,0.10,
2.594,-0.29,0.47,-0.01,-0.14,0.39,0.08,
2.595,-0.29,0.47,-0.01,-0.13,0.42,0.08,
2.597,-0.29,0.47,-0.01,-0.11,0.46,0.08,
2.599,-0.29,0.47,-0.01,-0.09,0.50,0.09,
2.604,-1.00,0.70,0.23,-0.09,0.50,0.09,
2.604,-1.00,0.70,0.23,-0.08,0.55,0.10,
2.605,-1.00,0.70,0.23,-0.06,0.61,0.13,
2.606,-1.00,0.70,0.23,-0.05,0.63,0.15,
2.607,-1.00,0.70,0.23,-0.04,0.67,0.18,
2.609,-1.00,0.70,0.23,-0.03,0.70,0.21,
2.611,-1.60,1.24,0.42,-0.03,0.70,0.21,
2.611,-1.60,1.24,0.42,-0.03,0.73,0.24,
2.614,-1.60,1.24,0.42,-0.01,0.76,0.29,
2.615,-1.60,1.24,0.42,-0.01,0.77,0.31,
2.617,-1.60,1.24,0.42,-0.01,0.79,0.35,
2.619,-1.60,1.24,0.42,-0.01,0.80,0.39,
2.628,-2.10,2.01,0.54,-0.01,0.80,0.39,
2.629,-2.10,2.01,0.54,-0.01,0.82,0.43,
2.629,-2.10,2.01,0.54,-0.02,0.84,0.49,
2.629,-2.10,2.01,0.54,-0.03,0.84,0.52,
2.629,-2.10,2.01,0.54,-0.04,0.85,0.56,
2.63,-2.10,2.01,0.54,-0.04,0.87,0.60,
2.634,-2.35,2.87,0.39,-0.04,0.87,0.60,
2.635,-2.35,2.87,0.39,-0.05,0.90,0.64,
2.635,-2.35,2.87,0.39,-0.04,0.95,0.71,
2.635,-2.35,2.87,0.39,-0.04,0.97,0.74,
2.637,-2.35,2.87,0.39,-0.03,1.00,0.79,
2.666,-2.35,2.87,0.39,-0.03,1.03,0.84,
2.667,-2.54,3.63,0.52,-0.03,1.03,0.84,
2.667,-2.54,3.63,0.52,-0.02,1.02,0.89,
2.668,-2.54,3.63,0.52,-0.01,0.97,0.95,
2.668,-2.54,3.63,0.52,-0.00,0.94,0.96,
2.668,-2.54,3.63,0.52,0.00,0.88,1.00,
2.668,-2.54,3.63,0.52,0.01,0.81,1.03,
2.668,-2.36,3.98,0.64,0.01,0.81,1.03,
2.669,-2.36,3.98,0.64,0.02,0.73,1.06,
2.669,-2.36,3.98,0.64,0.03,0.62,1.10,
2.669,-2.36,3.98,0.64,0.04,0.58,1.12,
2.669,-2.36,3.98,0.64,0.05,0.51,1.15,
2.669,-2.36,3.98,0.64,0.05,0.44,1.18,
2.67,-2.39,3.94,1.06,0.05,0.44,1.18,
2.67,-2.39,3.94,1.06,0.06,0.36,1.21,
2.67,-2.39,3.94,1.06,0.07,0.25,1.27,
2.67,-2.39,3.94,1.06,0.07,0.21,1.29,
2.67,-2.39,3.94,1.06,0.07,0.13,1.33,
2.671,-2.39,3.94,1.06,0.07,0.06,1.38,
2.673,-2.66,3.90,1.39,0.07,0.06,1.38,
2.673,-2.66,3.90,1.39,0.07,-0.02,1.43,
2.678,-2.66,3.90,1.39,0.07,-0.13,1.52,
2.68,-2.66,3.90,1.39,0.07,-0.21,1.58,
2.681,-2.66,3.90,1.39,0.07,-0.24,1.62,
2.682,-2.66,3.90,1.39,0.09,-0.32,1.68,
2.683,-3.35,4.05,2.76,0.09,-0.32,1.68,
2.683,-3.35,4.05,2.76,0.11,-0.38,1.74,
2.688,-3.35,4.05,2.76,0.15,-0.45,1.83,
2.689,-3.35,4.05,2.76,0.20,-0.46,1.89,
2.69,-3.35,4.05,2.76,0.23,-0.46,1.91,
2.691,-3.35,4.05,2.76,0.28,-0.44,1.96,
2.699,-3.45,3.95,4.66,0.28,-0.44,1.96,
2.702,-3.45,3.95,4.66,0.35,-0.41,2.00,
2.702,-3.45,3.95,4.66,0.51,-0.26,2.09,
2.703,-3.45,3.95,4.66,0.56,-0.21,2.11,
2.703,-3.45,3.95,4.66,0.60,-0.16,2.13,
2.704,-3.45,3.95,4.66,0.69,-0.05,2.18,
2.707,-3.62,3.89,6.18,0.69,-0.05,2.18,
2.708,-3.62,3.89,6.18,0.78,0.07,2.23,
2.708,-3.62,3.89,6.18,0.89,0.27,2.30,
2.708,-3.62,3.89,6.18,0.96,0.40,2.35,
2.708,-3.62,3.89,6.18,0.98,0.46,2.38,
2.713,-3.62,3.89,6.18,1.04,0.58,2.43,
2.739,-3.63,3.61,5.26,1.04,0.58,2.43,
2.739,-3.63,3.61,5.26,1.08,0.70,2.49,
2.739,-3.63,3.61,5.26,1.12,0.89,2.58,
2.74,-3.63,3.61,5.26,1.14,1.03,2.64,
2.74,-3.63,3.61,5.26,1.14,1.09,2.67,
2.74,-3.63,3.61,5.26,1.15,1.22,2.73,
2.74,-3.56,3.38,3.61,1.15,1.22,2.73,
2.74,-3.56,3.38,3.61,1.14,1.34,2.79,
2.741,-3.56,3.38,3.61,1.08,1.51,2.88,
2.741,-3.56,3.38,3.61,1.02,1.61,2.94,
2.741,-3.56,3.38,3.61,0.98,1.66,2.96,
2.741,-3.56,3.38,3.61,0.90,1.74,3.02,
2.741,-3.25,3.44,0.73,0.90,1.74,3.02,
2.742,-3.25,3.44,0.73,0.81,1.82,3.07,
2.742,-3.25,3.44,0.73,0.63,1.95,3.14,
2.742,-3.25,3.44,0.73,0.52,2.04,3.17,
2.742,-3.25,3.44,0.73,0.45,2.08,3.19,
2.742,-3.25,3.44,0.73,0.31,2.19,3.22,
2.743,-2.72,3.87,-2.44,0.31,2.19,3.22,
2.743,-2.72,3.87,-2.44,0.15,2.30,3.24,
2.746,-2.72,3.87,-2.44,-0.09,2.46,3.25,
2.746,-2.72,3.87,-2.44,-0.24,2.55,3.26,
2.751,-2.72,3.87,-2.44,-0.32,2.59,3.26,
2.751,-2.72,3.87,-2.44,-0.47,2.65,3.26,
2.755,-1.89,4.84,-4.78,-0.47,2.65,3.26,
2.755,-1.89,4.84,-4.78,-0.61,2.69,3.26,
2.755,-1.89,4.84,-4.78,-0.85,2.74,3.26,
2.763,-1.89,4.84,-4.78,-1.02,2.75,3.26,
2.764,-1.89,4.84,-4.78,-1.10,2.75,3.26,
2.764,-1.89,4.84,-4.78,-1.25,2.75,3.26,
2.765,-1.15,4.67,-7.07,-1.25,2.75,3.26,
2.765,-1.15,4.67,-7.07,-1.38,2.79,3.27,
2.765,-1.15,4.67,-7.07,-1.59,2.85,3.31,
2.765,-1.15,4.67,-7.07,-1.73,2.89,3.36,
2.772,-1.15,4.67,-7.07,-1.80,2.90,3.39,
2.773,-1.15,4.67,-7.07,-1.93,2.94,3.48,
2.773,-0.74,-3.22,-7.16,-1.93,2.94,3.48,
2.773,-0.74,-3.22,-7.16,-2.05,2.95,3.59,
2.816,-0.74,-3.22,-7.16,-2.29,2.92,3.80,
2.816,-0.74,-3.22,-7.16,-2.42,2.85,3.95,
2.816,-0.74,-3.22,-7.16,-2.47,2.81,4.04,
2.817,-0.74,-3.22,-7.16,-2.57,2.70,4.24,
2.817,-3.27,-15.32,-6.89,-2.57,2.70,4.24,
2.817,-3.27,-15.32,-6.89,-2.64,2.58,4.47,
2.817,-3.27,-15.32,-6.89,-2.73,2.23,4.98,
2.818,-3.27,-15.32,-6.89,-2.74,2.12,5.10,
2.818,-3.27,-15.32,-6.89,-2.76,2.00,5.23,
2.818,-3.27,-15.32,-6.89,-2.77,1.77,5.47,
2.818,-5.62,-27.44,-4.91,-2.77,1.77,5.47,
2.818,-5.62,-27.44,-4.91,-2.77,1.54,5.69,
2.819,-5.62,-27.44,-4.91,-2.72,1.22,6.00,
2.819,-5.62,-27.44,-4.91,-2.65,1.02,6.17,
2.819,-5.62,-27.44,-4.91,-2.60,0.95,6.24,
2.819,-5.62,-27.44,-4.91,-2.47,0.84,6.34,
2.82,-3.90,-35.67,-2.11,-2.47,0.84,6.34,
2.82,-3.90,-35.67,-2.11,-2.32,0.80,6.38,
2.82,-3.90,-35.67,-2.11,-2.03,0.85,6.33,
2.82,-3.90,-35.67,-2.11,-1.79,0.95,6.23,
2.82,-3.90,-35.67,-2.11,-1.66,1.02,6.16,
2.821,-3.90,-35.67,-2.11,-1.38,1.18,5.99,
2.821,2.08,-32.24,2.84,-1.38,1.18,5.99,
2.821,2.08,-32.24,2.84,-1.06,1.35,5.78,
2.821,2.08,-32.24,2.84,-0.64,1.55,5.40,
2.822,2.08,-32.24,2.84,-0.35,1.68,5.14,
2.822,2.08,-32.24,2.84,-0.22,1.74,5.01,
2.822,2.08,-32.24,2.84,0.05,1.85,4.75,
2.822,5.22,-21.60,4.85,0.05,1.85,4.75,
2.822,5.22,-21.60,4.85,0.29,1.95,4.49,
2.825,5.22,-21.60,4.85,0.72,2.12,4.01,
2.826,5.22,-21.60,4.85,0.81,2.15,3.89,
2.828,5.22,-21.60,4.85,0.89,2.17,3.78,
2.829,5.22,-21.60,4.85,1.05,2.21,3.56,
2.834,4.87,-11.59,2.76,1.05,2.21,3.56,
2.834,4.87,-11.59,2.76,1.19,2.24,3.36,
2.837,4.87,-11.59,2.76,1.35,2.25,3.07,
2.838,4.87,-11.59,2.76,1.44,2.25,2.89,
2.838,4.87,-11.59,2.76,1.48,2.24,2.80,
2.844,4.87,-11.59,2.76,1.54,2.21,2.63,
2.844,4.51,-4.65,-0.17,1.54,2.21,2.63,
2.845,4.51,-4.65,-0.17,1.59,2.18,2.47,
2.845,4.51,-4.65,-0.17,1.65,2.11,2.25,
2.845,4.51,-4.65,-0.17,1.69,2.06,2.12,
2.847,4.51,-4.65,-0.17,1.70,2.04,2.06,
2.849,4.51,-4.65,-0.17,1.72,1.99,1.95,
2.852,3.94,0.24,-1.66,1.72,1.99,1.95,
2.852,3.94,0.24,-1.66,1.74,1.93,1.84,
2.862,3.94,0.24,-1.66,1.76,1.86,1.71,
2.863,3.94,0.24,-1.66,1.77,1.80,1.64,
2.863,3.94,0.24,-1.66,1.78,1.78,1.61,
2.863,3.94,0.24,-1.66,1.78,1.72,1.54,
2.864,3.44,3.44,-2.25,1.78,1.72,1.54,
2.864,3.44,3.44,-2.25,1.78,1.67,1.48,
2.864,3.44,3.44,-2.25,1.78,1.61,1.40,
2.866,3.44,3.44,-2.25,1.78,1.57,1.35,
2.87,3.44,3.44,-2.25,1.78,1.56,1.33,
2.871,3.44,3.44,-2.25,1.78,1.54,1.27,
2.871,2.96,5.44,-2.40,1.78,1.54,1.27,
2.872,2.96,5.44,-2.40,1.79,1.54,1.22,
2.896,2.96,5.44,-2.40,1.78,1.51,1.12,
2.898,2.96,5.44,-2.40,1.78,1.50,1.09,
2.925,2.96,5.44,-2.40,1.78,1.49,1.07,
2.926,2.96,5.44,-2.40,1.76,1.46,1.02,
2.926,2.60,6.51,-2.75,1.76,1.46,1.02,
2.926,2.60,6.51,-2.75,1.75,1.44,0.97,
2.927,2.60,6.51,-2.75,1.72,1.40,0.91,
2.927,2.60,6.51,-2.75,1.71,1.39,0.88,
2.927,2.60,6.51,-2.75,1.69,1.35,0.84,
2.927,2.60,6.51,-2.75,1.67,1.31,0.79,
2.928,2.29,7.19,-2.81,1.67,1.31,0.79,
2.928,2.29,7.19,-2.81,1.65,1.27,0.75,
2.929,2.29,7.19,-2.81,1.60,1.19,0.68,
2.929,2.29,7.19,-2.81,1.58,1.13,0.63,
2.929,2.29,7.19,-2.81,1.56,1.10,0.61,
2.929,2.29,7.19,-2.81,1.53,1.03,0.56,
2.93,1.80,7.07,-3.11,1.53,1.03,0.56,
2.93,1.80,7.07,-3.11,1.47,0.93,0.48,
2.93,1.80,7.07,-3.11,1.44,0.86,0.43,
2.93,1.80,7.07,-3.11,1.40,0.78,0.38,
2.931,1.80,7.07,-3.11,1.36,0.70,0.32,
2.931,1.80,7.07,-3.11,1.31,0.62,0.27,
2.931,1.02,6.19,-3.16,1.31,0.62,0.27,
2.931,1.02,6.19,-3.16,1.27,0.53,0.21,
2.932,1.02,6.19,-3.16,1.22,0.44,0.15,
2.932,1.02,6.19,-3.16,1.17,0.36,0.09,
2.932,1.02,6.19,-3.16,1.13,0.28,0.03,
2.933,1.02,6.19,-3.16,1.08,0.20,-0.04,
2.933,-0.02,5.03,-3.18,1.08,0.20,-0.04,
2.933,-0.02,5.03,-3.18,1.04,0.12,-0.10,
2.933,-0.02,5.03,-3.18,0.98,0.01,-0.20,
2.934,-0.02,5.03,-3.18,0.96,-0.03,-0.24,
2.934,-0.02,5.03,-3.18,0.94,-0.07,-0.30,
2.934,-0.02,5.03,-3.18,0.95,-0.06,-0.36,
2.934,-1.24,3.60,-1.74,0.95,-0.06,-0.36,
2.935,-1.24,3.60,-1.74,1.00,0.02,-0.41,
2.935,-1.24,3.60,-1.74,1.07,0.15,-0.45,
2.935,-1.24,3.60,-1.74,1.16,0.33,-0.48,
2.943,-1.24,3.60,-1.74,1.26,0.54,-0.50,
2.943,-1.24,3.60,-1.74,1.37,0.76,-0.52,
2.944,-3.73,1.77,2.27,1.37,0.76,-0.52,
2.944,-3.73,1.77,2.27,1.47,1.00,-0.52,
2.944,-3.73,1.77,2.27,1.58,1.24,-0.52,
2.945,-3.73,1.77,2.27,1.67,1.47,-0.52,
2.949,-3.73,1.77,2.27,1.75,1.68,-0.51,
2.95,-3.73,1.77,2.27,1.83,1.87,-0.50,
2.951,-4.95,0.21,2.75,1.83,1.87,-0.50,
2.951,-4.95,0.21,2.75,1.88,2.03,-0.48,
2.957,-4.95,0.21,2.75,1.92,2.17,-0.47,
2.957,-4.95,0.21,2.75,1.95,2.28,-0.46,
2.957,-4.95,0.21,2.75,1.96,2.37,-0.44,
2.959,-4.95,0.21,2.75,1.95,2.43,-0.42,
2.961,-5.02,-0.66,1.07,1.95,2.43,-0.42,
2.962,-5.02,-0.66,1.07,1.93,2.46,-0.41,
2.964,-5.02,-0.66,1.07,1.90,2.48,-0.39,
2.965,-5.02,-0.66,1.07,1.86,2.48,-0.37,
2.967,-5.02,-0.66,1.07,1.81,2.46,-0.36,
2.969,-5.02,-0.66,1.07,1.75,2.43,-0.34,
2.973,-4.36,-0.93,-0.30,1.75,2.43,-0.34,
2.974,-4.36,-0.93,-0.30,1.69,2.41,-0.32,
2.974,-4.36,-0.93,-0.30,1.63,2.37,-0.31,
2.975,-4.36,-0.93,-0.30,1.57,2.35,-0.29,
2.977,-4.36,-0.93,-0.30,1.51,2.33,-0.28,
2.979,-4.36,-0.93,-0.30,1.45,2.31,-0.27,
2.981,-3.45,-0.78,-0.29,1.45,2.31,-0.27,
2.982,-3.45,-0.78,-0.29,1.39,2.30,-0.25,
2.984,-3.45,-0.78,-0.29,1.31,2.30,-0.24,
2.985,-3.45,-0.78,-0.29,1.28,2.31,-0.24,
2.988,-3.45,-0.78,-0.29,1.23,2.31,-0.23,
2.989,-3.45,-0.78,-0.29,1.18,2.32,-0.22,
2.991,-2.23,-0.47,0.42,1.18,2.32,-0.22,
2.991,-2.23,-0.47,0.42,1.13,2.33,-0.22,
2.994,-2.23,-0.47,0.42,1.09,2.34,-0.21,
2.995,-2.23,-0.47,0.42,1.05,2.35,-0.21,
2.997,-2.23,-0.47,0.42,1.01,2.35,-0.21,
2.999,-2.23,-0.47,0.42,0.97,2.34,-0.21,
3.001,-1.23,-0.07,1.09,0.97,2.34,-0.21,
3.002,-1.23,-0.07,1.09,0.93,2.32,-0.20,
3.01,-1.23,-0.07,1.09,0.90,2.30,-0.20,
3.011,-1.23,-0.07,1.09,0.87,2.26,-0.20,
3.012,-1.23,-0.07,1.09,0.84,2.21,-0.20,
3.012,-1.23,-0.07,1.09,0.81,2.15,-0.20,
3.013,-0.56,0.27,1.72,0.81,2.15,-0.20,
3.013,-0.56,0.27,1.72,0.79,2.08,-0.19,
3.014,-0.56,0.27,1.72,0.77,2.00,-0.19,
3.015,-0.56,0.27,1.72,0.75,1.90,-0.19,
3.019,-0.56,0.27,1.72,0.73,1.80,-0.19,
3.05,-0.56,0.27,1.72,0.72,1.68,-0.20,
3.051,0.02,0.59,2.41,0.72,1.68,-0.20,
3.051,0.02,0.59,2.41,0.70,1.55,-0.20,
3.051,0.02,0.59,2.41,0.69,1.41,-0.20,
3.052,0.02,0.59,2.41,0.68,1.26,-0.20,
3.052,0.02,0.59,2.41,0.67,1.11,-0.20,
3.052,0.02,0.59,2.41,0.66,0.95,-0.19,
3.052,0.30,0.73,2.73,0.66,0.95,-0.19,
3.052,0.30,0.73,2.73,0.65,0.79,-0.19,
3.052,0.30,0.73,2.73,0.64,0.54,-0.18,
3.053,0.30,0.73,2.73,0.63,0.46,-0.17,
3.053,0.30,0.73,2.73,0.63,0.30,-0.16,
3.053,0.30,0.73,2.73,0.62,0.14,-0.15,
3.053,0.39,0.83,2.79,0.62,0.14,-0.15,
3.053,0.39,0.83,2.79,0.60,-0.02,-0.13,
3.068,0.39,0.83,2.79,0.58,-0.24,-0.10,
3.068,0.39,0.83,2.79,0.57,-0.30,-0.09,
3.068,0.39,0.83,2.79,0.55,-0.44,-0.07,
3.069,0.39,0.83,2.79,0.52,-0.56,-0.04,
3.069,0.32,0.84,2.20,0.52,-0.56,-0.04,
3.069,0.32,0.84,2.20,0.49,-0.67,-0.01,
3.069,0.32,0.84,2.20,0.46,-0.76,0.02,
3.069,0.32,0.84,2.20,0.42,-0.84,0.05,
3.069,0.32,0.84,2.20,0.37,-0.91,0.09,
3.07,0.32,0.84,2.20,0.33,-0.96,0.12,
3.07,0.36,0.82,1.42,0.33,-0.96,0.12,
3.07,0.36,0.82,1.42,0.27,-1.01,0.15,
3.07,0.36,0.82,1.42,0.22,-1.04,0.19,
3.07,0.36,0.82,1.42,0.16,-1.06,0.22,
3.07,0.36,0.82,1.42,0.10,-1.07,0.25,
3.07,0.36,0.82,1.42,0.05,-1.08,0.27,
3.074,0.74,0.70,0.76,0.05,-1.08,0.27,
3.074,0.74,0.70,0.76,-0.01,-1.09,0.29,
3.075,0.74,0.70,0.76,-0.06,-1.10,0.31,
3.075,0.74,0.70,0.76,-0.11,-1.11,0.32,
3.077,0.74,0.70,0.76,-0.16,-1.11,0.33,
3.08,0.74,0.70,0.76,-0.20,-1.12,0.33,
3.081,1.27,0.59,0.62,-0.20,-1.12,0.33,
3.081,1.27,0.59,0.62,-0.23,-1.14,0.33,
3.085,1.27,0.59,0.62,-0.27,-1.15,0.33,
3.086,1.27,0.59,0.62,-0.30,-1.16,0.32,
3.087,1.27,0.59,0.62,-0.33,-1.18,0.32,
3.089,1.27,0.59,0.62,-0.34,-1.20,0.31,
3.091,1.56,0.40,0.70,-0.34,-1.20,0.31,
3.091,1.56,0.40,0.70,-0.36,-1.22,0.30,
3.094,1.56,0.40,0.70,-0.38,-1.23,0.30,
3.094,1.56,0.40,0.70,-0.38,-1.25,0.29,
3.097,1.56,0.40,0.70,-0.39,-1.26,0.27,
3.099,1.56,0.40,0.70,-0.39,-1.27,0.26,
3.101,1.87,0.23,0.85,-0.39,-1.27,0.26,
3.101,1.87,0.23,0.85,-0.40,-1.28,0.24,
3.104,1.87,0.23,0.85,-0.39,-1.28,0.23,
3.106,1.87,0.23,0.85,-0.39,-1.28,0.21,
3.107,1.87,0.23,0.85,-0.38,-1.28,0.19,
3.109,1.87,0.23,0.85,-0.38,-1.28,0.18,
3.111,1.93,0.27,0.85,-0.38,-1.28,0.18,
3.111,1.93,0.27,0.85,-0.37,-1.27,0.16,
3.115,1.93,0.27,0.85,-0.36,-1.27,0.14,
3.116,1.93,0.27,0.85,-0.34,-1.26,0.13,
3.119,1.93,0.27,0.85,-0.33,-1.25,0.11,
3.119,1.93,0.27,0.85,-0.31,-1.24,0.10,
3.125,2.02,0.40,0.77,-0.31,-1.24,0.10,
3.125,2.02,0.40,0.77,-0.30,-1.22,0.08,
3.134,2.02,0.40,0.77,-0.26,-1.18,0.03,
3.134,2.02,0.40,0.77,-0.26,-1.18,0.03,
3.134,2.02,0.40,0.77,-0.24,-1.16,0.01,
3.134,2.02,0.40,0.77,-0.24,-1.16,0.01,
3.135,2.02,0.40,0.77,-0.23,-1.14,-0.01,
3.135,1.94,0.47,0.49,-0.23,-1.14,-0.01,
3.135,1.94,0.47,0.49,-0.22,-1.11,-0.03,
3.135,1.94,0.47,0.49,-0.21,-1.08,-0.05,
3.153,1.94,0.47,0.49,-0.19,-1.05,-0.07,
3.153,1.94,0.47,0.49,-0.18,-1.01,-0.09,
3.154,1.91,0.38,0.29,-0.18,-1.01,-0.09,
3.154,1.91,0.38,0.29,-0.17,-0.96,-0.11,
3.154,1.91,0.38,0.29,-0.16,-0.89,-0.15,
3.154,1.91,0.38,0.29,-0.15,-0.86,-0.16,
3.154,1.91,0.38,0.29,-0.14,-0.80,-0.18,
3.154,1.91,0.38,0.29,-0.13,-0.73,-0.21,
3.154,1.83,0.28,0.23,-0.13,-0.73,-0.21,
3.154,1.83,0.28,0.23,-0.12,-0.66,-0.23,
3.155,1.83,0.28,0.23,-0.11,-0.55,-0.27,
3.157,1.83,0.28,0.23,-0.10,-0.51,-0.28,
3.157,1.83,0.28,0.23,-0.10,-0.44,-0.30,
3.162,1.83,0.28,0.23,-0.09,-0.36,-0.32,
3.162,1.51,0.07,0.22,-0.09,-0.36,-0.32,
3.162,1.51,0.07,0.22,-0.08,-0.29,-0.34,
3.164,1.51,0.07,0.22,-0.07,-0.18,-0.36,
3.167,1.51,0.07,0.22,-0.07,-0.15,-0.37,
3.17,1.51,0.07,0.22,-0.06,-0.08,-0.39,
3.171,1.51,0.07,0.22,-0.06,-0.01,-0.40,
3.174,1.08,-0.15,0.33,-0.06,-0.01,-0.40,
3.175,1.08,-0.15,0.33,-0.05,0.05,-0.42,
3.175,1.08,-0.15,0.33,-0.05,0.13,-0.43,
3.176,1.08,-0.15,0.33,-0.05,0.15,-0.43,
3.178,1.08,-0.15,0.33,-0.04,0.19,-0.43,
3.18,1.08,-0.15,0.33,-0.05,0.22,-0.43,
3.182,0.30,-0.28,0.60,-0.05,0.22,-0.43,
3.182,0.30,-0.28,0.60,-0.05,0.25,-0.42,
3.185,0.30,-0.28,0.60,-0.05,0.28,-0.41,
3.185,0.30,-0.28,0.60,-0.06,0.29,-0.41,
3.187,0.30,-0.28,0.60,-0.07,0.31,-0.39,
3.19,0.30,-0.28,0.60,-0.08,0.33,-0.38,
3.192,-0.69,-0.29,0.91,-0.08,0.33,-0.38,
3.192,-0.69,-0.29,0.91,-0.09,0.34,-0.36,
3.194,-0.69,-0.29,0.91,-0.11,0.36,-0.34,
3.195,-0.69,-0.29,0.91,-0.12,0.37,-0.33,
3.197,-0.69,-0.29,0.91,-0.13,0.39,-0.31,
3.2,-0.69,-0.29,0.91,-0.15,0.41,-0.30,
3.208,-1.45,-0.22,1.40,-0.15,0.41,-0.30,
3.208,-1.45,-0.22,1.40,-0.17,0.44,-0.27,
3.209,-1.45,-0.22,1.40,-0.19,0.48,-0.25,
3.209,-1.45,-0.22,1.40,-0.20,0.49,-0.24,
3.21,-1.45,-0.22,1.40,-0.21,0.53,-0.22,
3.21,-1.45,-0.22,1.40,-0.23,0.57,-0.20,
3.237,-1.77,-0.25,1.97,-0.23,0.57,-0.20,
3.237,-1.77,-0.25,1.97,-0.24,0.60,-0.18,
3.237,-1.77,-0.25,1.97,-0.25,0.67,-0.16,
3.238,-1.77,-0.25,1.97,-0.26,0.69,-0.15,
3.238,-1.77,-0.25,1.97,-0.26,0.73,-0.15,
3.239,-1.77,-0.25,1.97,-0.27,0.78,-0.14,
3.239,-1.55,-0.07,2.59,-0.27,0.78,-0.14,
3.239,-1.55,-0.07,2.59,-0.28,0.83,-0.13,
3.24,-1.55,-0.07,2.59,-0.28,0.90,-0.12,
3.24,-1.55,-0.07,2.59,-0.29,0.93,-0.11,
3.241,-1.55,-0.07,2.59,-0.29,1.00,-0.11,
3.241,-1.55,-0.07,2.59,-0.29,1.07,-0.10,
3.242,-1.06,0.22,3.02,-0.29,1.07,-0.10,
3.242,-1.06,0.22,3.02,-0.30,1.15,-0.10,
3.242,-1.06,0.22,3.02,-0.30,1.28,-0.10,
3.243,-1.06,0.22,3.02,-0.30,1.32,-0.10,
3.243,-1.06,0.22,3.02,-0.30,1.42,-0.10,
3.244,-1.06,0.22,3.02,-0.29,1.52,-0.10,
3.244,-0.57,0.53,3.73,-0.29,1.52,-0.10,
3.244,-0.57,0.53,3.73,-0.29,1.61,-0.10,
3.245,-0.57,0.53,3.73,-0.27,1.74,-0.10,
3.245,-0.57,0.53,3.73,-0.26,1.78,-0.11,
3.257,-0.57,0.53,3.73,-0.24,1.85,-0.11,
3.258,-0.57,0.53,3.73,-0.23,1.90,-0.12,
3.258,-0.11,0.70,4.40,-0.23,1.90,-0.12,
3.259,-0.11,0.70,4.40,-0.20,1.93,-0.13,
3.259,-0.11,0.70,4.40,-0.16,1.94,-0.15,
3.259,-0.11,0.70,4.40,-0.14,1.93,-0.16,
3.259,-0.11,0.70,4.40,-0.11,1.90,-0.17,
3.26,-0.11,0.70,4.40,-0.09,1.85,-0.19,
3.263,0.40,0.83,4.44,-0.09,1.85,-0.19,
3.264,0.40,0.83,4.44,-0.06,1.78,-0.22,
3.265,0.40,0.83,4.44,-0.02,1.64,-0.25,
3.269,0.40,0.83,4.44,-0.01,1.59,-0.26,
3.269,0.40,0.83,4.44,0.01,1.48,-0.28,
3.269,0.40,0.83,4.44,0.02,1.36,-0.31,
3.272,0.42,0.78,3.03,0.02,1.36,-0.31,
3.273,0.42,0.78,3.03,0.03,1.23,-0.33,
3.274,0.42,0.78,3.03,0.04,1.04,-0.35,
3.276,0.42,0.78,3.03,0.04,0.98,-0.36,
3.277,0.42,0.78,3.03,0.05,0.85,-0.38,
3.279,0.42,0.78,3.03,0.05,0.72,-0.39,
3.284,-0.19,0.84,1.29,0.05,0.72,-0.39,
3.284,-0.19,0.84,1.29,0.05,0.60,-0.40,
3.284,-0.19,0.84,1.29,0.04,0.42,-0.41,
3.286,-0.19,0.84,1.29,0.04,0.37,-0.41,
3.293,-0.19,0.84,1.29,0.04,0.26,-0.41,
3.293,-0.19,0.84,1.29,0.03,0.16,-0.42,
3.294,-1.04,0.87,-0.26,0.03,0.16,-0.42,
3.294,-1.04,0.87,-0.26,0.02,0.06,-0.42,
3.294,-1.04,0.87,-0.26,0.01,-0.06,-0.41,
3.296,-1.04,0.87,-0.26,0.01,-0.09,-0.41,
3.297,-1.04,0.87,-0.26,0.00,-0.16,-0.41,
3.301,-1.04,0.87,-0.26,-0.01,-0.22,-0.41,
3.318,-1.68,1.06,-1.60,-0.01,-0.22,-0.41,
3.319,-1.68,1.06,-1.60,-0.02,-0.28,-0.40,
3.32,-1.68,1.06,-1.60,-0.04,-0.36,-0.39,
3.32,-1.68,1.06,-1.60,-0.05,-0.39,-0.39,
3.32,-1.68,1.06,-1.60,-0.06,-0.45,-0.38,
3.32,-1.68,1.06,-1.60,-0.08,-0.52,-0.36,
3.32,-2.19,1.20,-2.93,-0.08,-0.52,-0.36,
3.321,-2.19,1.20,-2.93,-0.10,-0.59,-0.33,
3.321,-2.19,1.20,-2.93,-0.14,-0.70,-0.30,
3.321,-2.19,1.20,-2.93,-0.15,-0.74,-0.28,
3.321,-2.19,1.20,-2.93,-0.18,-0.81,-0.26,
3.322,-2.19,1.20,-2.93,-0.20,-0.89,-0.23,
3.325,-3.08,1.07,-4.27,-0.20,-0.89,-0.23,
3.326,-3.08,1.07,-4.27,-0.23,-0.96,-0.19,
3.326,-3.08,1.07,-4.27,-0.28,-1.07,-0.14,
3.326,-3.08,1.07,-4.27,-0.29,-1.11,-0.12,
3.327,-3.08,1.07,-4.27,-0.32,-1.18,-0.09,
3.329,-3.08,1.07,-4.27,-0.36,-1.25,-0.06,
3.331,-3.70,0.49,-5.19,-0.36,-1.25,-0.06,
3.332,-3.70,0.49,-5.19,-0.39,-1.32,-0.02,
3.335,-3.70,0.49,-5.19,-0.44,-1.42,0.02,
3.335,-3.70,0.49,-5.19,-0.46,-1.45,0.03,
3.338,-3.70,0.49,-5.19,-0.49,-1.51,0.05,
3.339,-3.70,0.49,-5.19,-0.53,-1.57,0.08,
3.341,-4.04,-0.35,-5.76,-0.53,-1.57,0.08,
3.341,-4.04,-0.35,-5.76,-0.56,-1.63,0.10,
3.346,-4.04,-0.35,-5.76,-0.62,-1.72,0.12,
3.347,-4.04,-0.35,-5.76,-0.64,-1.75,0.13,
3.347,-4.04,-0.35,-5.76,-0.69,-1.81,0.14,
3.351,-4.04,-0.35,-5.76,-0.74,-1.86,0.15,
3.353,-3.80,-1.34,-5.75,-0.74,-1.86,0.15,
3.354,-3.80,-1.34,-5.75,-0.79,-1.91,0.16,
3.354,-3.80,-1.34,-5.75,-0.87,-1.96,0.18,
3.355,-3.80,-1.34,-5.75,-0.90,-1.98,0.18,
3.357,-3.80,-1.34,-5.75,-0.96,-2.00,0.19,
3.359,-3.80,-1.34,-5.75,-1.01,-2.01,0.20,
3.364,-3.56,-2.09,-5.22,-1.01,-2.01,0.20,
3.364,-3.56,-2.09,-5.22,-1.06,-2.02,0.20,
3.364,-3.56,-2.09,-5.22,-1.13,-2.02,0.21,
3.365,-3.56,-2.09,-5.22,-1.15,-2.01,0.22,
3.367,-3.56,-2.09,-5.22,-1.18,-2.01,0.22,
3.369,-3.56,-2.09,-5.22,-1.19,-2.01,0.23,
3.371,-3.30,-2.60,-2.89,-1.19,-2.01,0.23,
3.371,-3.30,-2.60,-2.89,-1.18,-2.00,0.23,
3.374,-3.30,-2.60,-2.89,-1.12,-1.99,0.24,
3.375,-3.30,-2.60,-2.89,-1.09,-1.98,0.24,
3.392,-3.30,-2.60,-2.89,-1.02,-1.95,0.26,
3.392,-3.30,-2.60,-2.89,-0.92,-1.92,0.28,
3.393,-3.63,-3.39,1.96,-0.92,-1.92,0.28,
3.393,-3.63,-3.39,1.96,-0.80,-1.87,0.31,
3.393,-3.63,-3.39,1.96,-0.59,-1.76,0.37,
3.393,-3.63,-3.39,1.96,-0.51,-1.72,0.39,
3.393,-3.63,-3.39,1.96,-0.35,-1.63,0.44,
3.394,-3.63,-3.39,1.96,-0.19,-1.53,0.49,
3.394,-4.42,-4.64,6.42,-0.19,-1.53,0.49,
3.394,-4.42,-4.64,6.42,-0.03,-1.44,0.55,
3.394,-4.42,-4.64,6.42,0.20,-1.30,0.63,
3.398,-4.42,-4.64,6.42,0.26,-1.26,0.65,
3.399,-4.42,-4.64,6.42,0.37,-1.19,0.69,
3.4,-4.42,-4.64,6.42,0.46,-1.14,0.72,
3.408,-3.22,-4.78,5.83,0.46,-1.14,0.72,
3.408,-3.22,-4.78,5.83,0.52,-1.11,0.74,
3.408,-3.22,-4.78,5.83,0.56,-1.10,0.76,
3.408,-3.22,-4.78,5.83,0.56,-1.10,0.76,
3.408,-3.22,-4.78,5.83,0.54,-1.12,0.75,
3.409,-3.22,-4.78,5.83,0.49,-1.13,0.75,
3.411,-0.78,-3.36,1.12,0.49,-1.13,0.75,
3.411,-0.78,-3.36,1.12,0.42,-1.15,0.73,
3.444,-0.78,-3.36,1.12,0.30,-1.16,0.71,
3.445,-0.78,-3.36,1.12,0.25,-1.16,0.70,
3.445,-0.78,-3.36,1.12,0.15,-1.15,0.69,
3.445,-0.78,-3.36,1.12,0.04,-1.13,0.67,
3.445,0.73,-1.48,-2.81,0.04,-1.13,0.67,
3.445,0.73,-1.48,-2.81,-0.07,-1.12,0.65,
3.445,0.73,-1.48,-2.81,-0.25,-1.09,0.63,
3.446,0.73,-1.48,-2.81,-0.31,-1.08,0.62,
3.446,0.73,-1.48,-2.81,-0.43,-1.06,0.60,
3.446,0.73,-1.48,-2.81,-0.54,-1.04,0.58,
3.446,1.50,-0.10,-4.59,-0.54,-1.04,0.58,
3.446,1.50,-0.10,-4.59,-0.66,-1.02,0.56,
3.446,1.50,-0.10,-4.59,-0.83,-1.00,0.52,
3.446,1.50,-0.10,-4.59,-0.89,-1.00,0.51,
3.447,1.50,-0.10,-4.59,-1.00,-1.01,0.48,
3.447,1.50,-0.10,-4.59,-1.10,-1.03,0.45,
3.447,1.92,0.60,-5.29,-1.10,-1.03,0.45,
3.447,1.92,0.60,-5.29,-1.19,-1.05,0.43,
3.447,1.92,0.60,-5.29,-1.32,-1.11,0.38,
3.447,1.92,0.60,-5.29,-1.36,-1.14,0.36,
3.448,1.92,0.60,-5.29,-1.44,-1.20,0.33,
3.45,1.92,0.60,-5.29,-1.51,-1.28,0.30,
3.457,2.47,1.00,-5.04,-1.51,-1.28,0.30,
3.457,2.47,1.00,-5.04,-1.58,-1.36,0.26,
3.457,2.47,1.00,-5.04,-1.69,-1.48,0.22,
3.457,2.47,1.00,-5.04,-1.72,-1.53,0.20,
3.458,2.47,1.00,-5.04,-1.79,-1.62,0.16,
3.459,2.47,1.00,-5.04,-1.85,-1.70,0.13,
3.461,3.12,0.95,-5.16,-1.85,-1.70,0.13,
3.461,3.12,0.95,-5.16,-1.91,-1.79,0.09,
3.464,3.12,0.95,-5.16,-1.99,-1.91,0.03,
3.465,3.12,0.95,-5.16,-2.02,-1.95,0.01,
3.467,3.12,0.95,-5.16,-2.07,-2.02,-0.04,
3.469,3.12,0.95,-5.16,-2.13,-2.08,-0.08,
3.471,3.68,0.88,-4.91,-2.13,-2.08,-0.08,
3.471,3.68,0.88,-4.91,-2.17,-2.14,-0.13,
3.474,3.68,0.88,-4.91,-2.24,-2.21,-0.21,
3.475,3.68,0.88,-4.91,-2.27,-2.22,-0.24,
3.477,3.68,0.88,-4.91,-2.31,-2.25,-0.30,
3.479,3.68,0.88,-4.91,-2.35,-2.27,-0.36,
3.482,4.32,0.42,-4.71,-2.35,-2.27,-0.36,
3.482,4.32,0.42,-4.71,-2.39,-2.28,-0.42,
3.484,4.32,0.42,-4.71,-2.45,-2.29,-0.52,
3.486,4.32,0.42,-4.71,-2.46,-2.29,-0.55,
3.488,4.32,0.42,-4.71,-2.49,-2.29,-0.62,
3.49,4.32,0.42,-4.71,-2.53,-2.28,-0.70,
3.491,4.77,-0.12,-4.19,-2.53,-2.28,-0.70,
3.492,4.77,-0.12,-4.19,-2.56,-2.27,-0.77,
3.494,4.77,-0.12,-4.19,-2.59,-2.25,-0.89,
3.495,4.77,-0.12,-4.19,-2.61,-2.25,-0.93,
3.497,4.77,-0.12,-4.19,-2.63,-2.23,-1.01,
3.499,4.77,-0.12,-4.19,-2.64,-2.22,-1.09,
3.502,5.37,-0.95,-3.64,-2.64,-2.22,-1.09,
3.505,5.37,-0.95,-3.64,-2.65,-2.20,-1.18,
3.505,5.37,-0.95,-3.64,-2.66,-2.18,-1.30,
3.506,5.37,-0.95,-3.64,-2.66,-2.17,-1.34,
3.508,5.37,-0.95,-3.64,-2.65,-2.15,-1.42,
3.509,5.37,-0.95,-3.64,-2.64,-2.13,-1.50,
3.511,5.25,-1.98,-2.72,-2.64,-2.13,-1.50,
3.512,5.25,-1.98,-2.72,-2.62,-2.11,-1.57,
3.515,5.25,-1.98,-2.72,-2.59,-2.09,-1.66,
3.516,5.25,-1.98,-2.72,-2.57,-2.08,-1.69,
3.519,5.25,-1.98,-2.72,-2.54,-2.06,-1.75,
3.519,5.25,-1.98,-2.72,-2.50,-2.05,-1.80,
3.522,4.76,-2.84,-1.76,-2.50,-2.05,-1.80,
3.522,4.76,-2.84,-1.76,-2.45,-2.04,-1.85,
3.524,4.76,-2.84,-1.76,-2.37,-2.04,-1.91,
3.526,4.76,-2.84,-1.76,-2.35,-2.03,-1.92,
3.528,4.76,-2.84,-1.76,-2.28,-2.03,-1.95,
3.529,4.76,-2.84,-1.76,-2.21,-2.03,-1.98,
3.531,4.00,-3.18,-0.52,-2.21,-2.03,-1.98,
3.532,4.00,-3.18,-0.52,-2.13,-2.04,-2.00,
3.543,4.00,-3.18,-0.52,-2.00,-2.05,-2.03,
3.543,4.00,-3.18,-0.52,-1.96,-2.06,-2.04,
3.544,4.00,-3.18,-0.52,-1.87,-2.07,-2.06,
3.544,4.00,-3.18,-0.52,-1.78,-2.09,-2.08,
3.544,3.56,-3.35,0.61,-1.78,-2.09,-2.08,
3.545,3.56,-3.35,0.61,-1.68,-2.11,-2.10,
3.571,3.56,-3.35,0.61,-1.53,-2.15,-2.14,
3.572,3.56,-3.35,0.61,-1.48,-2.17,-2.16,
3.572,3.56,-3.35,0.61,-1.37,-2.19,-2.18,
3.572,3.56,-3.35,0.61,-1.26,-2.22,-2.22,
3.573,3.56,-3.40,1.62,-1.26,-2.22,-2.22,
3.573,3.56,-3.40,1.62,-1.15,-2.24,-2.26,
3.573,3.56,-3.40,1.62,-0.99,-2.27,-2.32,
3.573,3.56,-3.40,1.62,-0.94,-2.28,-2.34,
3.574,3.56,-3.40,1.62,-0.83,-2.29,-2.38,
3.574,3.56,-3.40,1.62,-0.72,-2.29,-2.41,
3.574,3.64,-3.19,2.20,-0.72,-2.29,-2.41,
3.575,3.64,-3.19,2.20,-0.62,-2.29,-2.45,
3.575,3.64,-3.19,2.20,-0.47,-2.29,-2.48,
3.575,3.64,-3.19,2.20,-0.42,-2.29,-2.49,
3.575,3.64,-3.19,2.20,-0.34,-2.28,-2.50,
3.576,3.64,-3.19,2.20,-0.25,-2.26,-2.51,
3.576,2.86,-2.60,1.77,-0.25,-2.26,-2.51,
3.576,2.86,-2.60,1.77,-0.18,-2.24,-2.51,
3.576,2.86,-2.60,1.77,-0.08,-2.20,-2.50,
3.577,2.86,-2.60,1.77,-0.05,-2.18,-2.50,
3.582,2.86,-2.60,1.77,0.01,-2.14,-2.49,
3.582,2.86,-2.60,1.77,0.06,-2.09,-2.46,
3.596,1.90,-1.88,0.95,0.06,-2.09,-2.46,
3.597,1.90,-1.88,0.95,0.10,-2.03,-2.44,
3.597,1.90,-1.88,0.95,0.15,-1.92,-2.38,
3.598,1.90,-1.88,0.95,0.17,-1.88,-2.36,
3.598,1.90,-1.88,0.95,0.20,-1.80,-2.31,
3.598,1.90,-1.88,0.95,0.21,-1.70,-2.26,
3.598,0.72,-1.13,0.23,0.21,-1.70,-2.26,
3.598,0.72,-1.13,0.23,0.23,-1.60,-2.20,
3.599,0.72,-1.13,0.23,0.25,-1.43,-2.09,
3.599,0.72,-1.13,0.23,0.25,-1.37,-2.05,
3.599,0.72,-1.13,0.23,0.27,-1.24,-1.97,
3.599,0.72,-1.13,0.23,0.28,-1.11,-1.88,
3.606,-0.53,-0.41,0.12,0.28,-1.11,-1.88,
3.606,-0.53,-0.41,0.12,0.29,-0.96,-1.79,
3.607,-0.53,-0.41,0.12,0.30,-0.68,-1.64,
3.607,-0.53,-0.41,0.12,0.30,-0.57,-1.59,
3.607,-0.53,-0.41,0.12,0.27,-0.34,-1.48,
3.609,-0.53,-0.41,0.12,0.23,-0.11,-1.36,
3.611,-1.26,0.54,1.09,0.23,-0.11,-1.36,
3.611,-1.26,0.54,1.09,0.16,0.12,-1.25,
3.614,-1.26,0.54,1.09,0.03,0.44,-1.06,
3.615,-1.26,0.54,1.09,-0.02,0.54,-1.00,
3.618,-1.26,0.54,1.09,-0.13,0.73,-0.88,
3.619,-1.26,0.54,1.09,-0.24,0.90,-0.75,
3.621,-1.63,1.17,0.15,-0.24,0.90,-0.75,
3.621,-1.63,1.17,0.15,-0.35,1.04,-0.64,
3.624,-1.63,1.17,0.15,-0.51,1.20,-0.47,
3.626,-1.63,1.17,0.15,-0.56,1.24,-0.42,
3.628,-1.63,1.17,0.15,-0.64,1.31,-0.33,
3.629,-1.63,1.17,0.15,-0.71,1.36,-0.26,
3.631,-1.20,1.41,0.24,-0.71,1.36,-0.26,
3.631,-1.20,1.41,0.24,-0.77,1.38,-0.19,
3.635,-1.20,1.41,0.24,-0.84,1.40,-0.11,
3.635,-1.20,1.41,0.24,-0.86,1.39,-0.09,
3.637,-1.20,1.41,0.24,-0.88,1.37,-0.05,
3.639,-1.20,1.41,0.24,-0.89,1.34,-0.03,
3.641,-0.40,1.34,1.35,-0.89,1.34,-0.03,
3.642,-0.40,1.34,1.35,-0.89,1.30,-0.00,
3.644,-0.40,1.34,1.35,-0.88,1.22,0.02,
3.646,-0.40,1.34,1.35,-0.87,1.18,0.02,
3.648,-0.40,1.34,1.35,-0.85,1.11,0.03,
3.649,-0.40,1.34,1.35,-0.82,1.03,0.04,
3.651,0.14,1.12,2.19,-0.82,1.03,0.04,
3.651,0.14,1.12,2.19,-0.79,0.94,0.04,
3.654,0.14,1.12,2.19,-0.73,0.79,0.03,
3.655,0.14,1.12,2.19,-0.71,0.74,0.03,
3.657,0.14,1.12,2.19,-0.67,0.63,0.03,
3.659,0.14,1.12,2.19,-0.62,0.52,0.03,
3.662,0.42,0.87,2.47,-0.62,0.52,0.03,
3.662,0.42,0.87,2.47,-0.58,0.41,0.02,
3.664,0.42,0.87,2.47,-0.50,0.24,0.00,
3.665,0.42,0.87,2.47,-0.48,0.19,-0.00,
3.667,0.42,0.87,2.47,-0.43,0.08,-0.01,
3.669,0.42,0.87,2.47,-0.38,-0.03,-0.02,
3.671,0.54,0.67,2.26,-0.38,-0.03,-0.02,
3.671,0.54,0.67,2.26,-0.33,-0.13,-0.04,
3.674,0.54,0.67,2.26,-0.26,-0.27,-0.06,
3.675,0.54,0.67,2.26,-0.23,-0.32,-0.07,
3.677,0.54,0.67,2.26,-0.18,-0.41,-0.08,
3.679,0.54,0.67,2.26,-0.14,-0.49,-0.09,
3.682,0.55,0.45,2.08,-0.14,-0.49,-0.09,
3.682,0.55,0.45,2.08,-0.10,-0.57,-0.10,
3.689,0.55,0.45,2.08,-0.05,-0.66,-0.11,
3.69,0.55,0.45,2.08,-0.04,-0.69,-0.11,
3.69,0.55,0.45,2.08,-0.01,-0.74,-0.11,
3.69,0.55,0.45,2.08,0.01,-0.79,-0.11,
3.691,0.31,0.22,1.65,0.01,-0.79,-0.11,
3.691,0.31,0.22,1.65,0.02,-0.83,-0.10,
3.694,0.31,0.22,1.65,0.03,-0.87,-0.09,
3.695,0.31,0.22,1.65,0.03,-0.88,-0.08,
3.698,0.31,0.22,1.65,0.03,-0.89,-0.07,
3.743,0.31,0.22,1.65,0.02,-0.90,-0.06,
3.744,0.12,-0.07,1.15,0.02,-0.90,-0.06,
3.744,0.12,-0.07,1.15,0.01,-0.91,-0.04,
3.744,0.12,-0.07,1.15,-0.02,-0.90,-0.02,
3.745,0.12,-0.07,1.15,-0.03,-0.90,-0.00,
3.745,0.12,-0.07,1.15,-0.05,-0.89,0.02,
3.746,0.12,-0.07,1.15,-0.07,-0.87,0.04,
3.766,0.28,-0.42,0.76,-0.07,-0.87,0.04,
3.766,0.28,-0.42,0.76,-0.10,-0.85,0.05,
3.766,0.28,-0.42,0.76,-0.14,-0.80,0.07,
3.767,0.28,-0.42,0.76,-0.16,-0.78,0.07,
3.767,0.28,-0.42,0.76,-0.19,-0.74,0.08,
3.767,0.28,-0.42,0.76,-0.22,-0.71,0.08,
3.767,0.99,-0.58,0.53,-0.22,-0.71,0.08,
3.767,0.99,-0.58,0.53,-0.25,-0.68,0.08,
3.768,0.99,-0.58,0.53,-0.30,-0.65,0.08,
3.768,0.99,-0.58,0.53,-0.31,-0.65,0.08,
3.768,0.99,-0.58,0.53,-0.34,-0.65,0.07,
3.768,0.99,-0.58,0.53,-0.37,-0.66,0.06,
3.768,1.48,-0.45,0.47,-0.37,-0.66,0.06,
3.768,1.48,-0.45,0.47,-0.39,-0.68,0.05,
3.769,1.48,-0.45,0.47,-0.42,-0.71,0.03,
3.769,1.48,-0.45,0.47,-0.43,-0.72,0.02,
3.769,1.48,-0.45,0.47,-0.44,-0.74,0.00,
3.769,1.48,-0.45,0.47,-0.45,-0.75,-0.02,
3.769,2.07,-0.20,0.79,-0.45,-0.75,-0.02,
3.77,2.07,-0.20,0.79,-0.46,-0.77,-0.04,
3.77,2.07,-0.20,0.79,-0.46,-0.78,-0.08,
3.77,2.07,-0.20,0.79,-0.45,-0.78,-0.10,
3.77,2.07,-0.20,0.79,-0.45,-0.78,-0.11,
3.77,2.07,-0.20,0.79,-0.44,-0.77,-0.14,
3.771,2.29,0.10,1.21,-0.44,-0.77,-0.14,
3.771,2.29,0.10,1.21,-0.42,-0.76,-0.16,
3.771,2.29,0.10,1.21,-0.39,-0.73,-0.19,
3.771,2.29,0.10,1.21,-0.38,-0.72,-0.19,
3.771,2.29,0.10,1.21,-0.35,-0.69,-0.21,
3.771,2.29,0.10,1.21,-0.33,-0.66,-0.23,
3.772,2.23,0.23,1.67,-0.33,-0.66,-0.23,
3.772,2.23,0.23,1.67,-0.30,-0.62,-0.25,
3.772,2.23,0.23,1.67,-0.25,-0.56,-0.27,
3.772,2.23,0.23,1.67,-0.23,-0.54,-0.28,
3.772,2.23,0.23,1.67,-0.20,-0.49,-0.29,
3.773,2.23,0.23,1.67,-0.16,-0.44,-0.30,
3.773,1.92,0.33,2.16,-0.16,-0.44,-0.30,
3.773,1.92,0.33,2.16,-0.12,-0.39,-0.31,
3.777,1.92,0.33,2.16,-0.06,-0.30,-0.32,
3.777,1.92,0.33,2.16,-0.03,-0.27,-0.32,
3.777,1.92,0.33,2.16,0.01,-0.22,-0.33,
3.779,1.92,0.33,2.16,0.07,-0.15,-0.32,
3.781,1.38,0.44,3.27,0.07,-0.15,-0.32,
3.781,1.38,0.44,3.27,0.12,-0.08,-0.32,
3.784,1.38,0.44,3.27,0.20,0.02,-0.32,
3.786,1.38,0.44,3.27,0.23,0.06,-0.31,
3.787,1.38,0.44,3.27,0.29,0.14,-0.30,
3.789,1.38,0.44,3.27,0.35,0.22,-0.29,
3.791,0.46,0.62,4.36,0.35,0.22,-0.29,
3.791,0.46,0.62,4.36,0.40,0.30,-0.27,
3.794,0.46,0.62,4.36,0.48,0.43,-0.24,
3.795,0.46,0.62,4.36,0.50,0.47,-0.23,
3.797,0.46,0.62,4.36,0.54,0.56,-0.21,
3.799,0.46,0.62,4.36,0.58,0.65,-0.20,
3.802,-0.41,0.81,4.86,0.58,0.65,-0.20,
3.803,-0.41,0.81,4.86,0.61,0.74,-0.18,
3.806,-0.41,0.81,4.86,0.65,0.87,-0.15,
3.806,-0.41,0.81,4.86,0.66,0.91,-0.14,
3.807,-0.41,0.81,4.86,0.67,0.99,-0.12,
3.809,-0.41,0.81,4.86,0.68,1.06,-0.11,
3.811,-1.15,1.08,4.36,0.68,1.06,-0.11,
3.811,-1.15,1.08,4.36,0.69,1.13,-0.10,
3.814,-1.15,1.08,4.36,0.70,1.22,-0.07,
3.815,-1.15,1.08,4.36,0.70,1.25,-0.07,
3.817,-1.15,1.08,4.36,0.71,1.30,-0.05,
3.819,-1.15,1.08,4.36,0.72,1.34,-0.04,
3.821,-1.98,1.34,4.10,0.72,1.34,-0.04,
3.821,-1.98,1.34,4.10,0.74,1.38,-0.02,
3.824,-1.98,1.34,4.10,0.76,1.43,0.00,
3.825,-1.98,1.34,4.10,0.78,1.45,0.01,
3.827,-1.98,1.34,4.10,0.81,1.48,0.03,
3.829,-1.98,1.34,4.10,0.84,1.50,0.04,
3.831,-2.77,1.43,4.01,0.84,1.50,0.04,
3.831,-2.77,1.43,4.01,0.88,1.52,0.06,
3.837,-2.77,1.43,4.01,0.93,1.54,0.10,
3.838,-2.77,1.43,4.01,0.95,1.54,0.11,
3.838,-2.77,1.43,4.01,0.99,1.54,0.14,
3.839,-2.77,1.43,4.01,1.02,1.53,0.17,
3.841,-3.40,1.41,3.37,1.02,1.53,0.17,
3.841,-3.40,1.41,3.37,1.04,1.51,0.19,
3.844,-3.40,1.41,3.37,1.06,1.46,0.23,
3.845,-3.40,1.41,3.37,1.05,1.44,0.25,
3.847,-3.40,1.41,3.37,1.04,1.39,0.27,
3.86,-3.40,1.41,3.37,1.02,1.32,0.29,
3.86,-3.02,1.48,0.78,1.02,1.32,0.29,
3.86,-3.02,1.48,0.78,0.99,1.25,0.31,
3.861,-3.02,1.48,0.78,0.91,1.12,0.33,
3.861,-3.02,1.48,0.78,0.88,1.07,0.34,
3.861,-3.02,1.48,0.78,0.82,0.96,0.35,
3.861,-3.02,1.48,0.78,0.75,0.85,0.36,
3.861,-2.36,1.64,-2.37,0.75,0.85,0.36,
3.862,-2.36,1.64,-2.37,0.67,0.72,0.36,
3.864,-2.36,1.64,-2.37,0.55,0.52,0.37,
3.866,-2.36,1.64,-2.37,0.51,0.45,0.37,
3.867,-2.36,1.64,-2.37,0.43,0.31,0.38,
3.87,-2.36,1.64,-2.37,0.36,0.15,0.38,
3.871,-1.53,2.07,-4.09,0.36,0.15,0.38,
3.872,-1.53,2.07,-4.09,0.30,-0.00,0.38,
3.874,-1.53,2.07,-4.09,0.22,-0.24,0.37,
3.877,-1.53,2.07,-4.09,0.19,-0.33,0.37,
3.896,-1.53,2.07,-4.09,0.15,-0.49,0.36,
3.896,-1.53,2.07,-4.09,0.11,-0.64,0.35,
3.897,-0.79,2.71,-4.38,0.11,-0.64,0.35,
3.897,-0.79,2.71,-4.38,0.09,-0.80,0.34,
3.897,-0.79,2.71,-4.38,0.06,-1.01,0.33,
3.897,-0.79,2.71,-4.38,0.05,-1.08,0.32,
3.898,-0.79,2.71,-4.38,0.05,-1.20,0.31,
3.898,-0.79,2.71,-4.38,0.04,-1.32,0.30,
3.898,-0.27,3.44,-3.67,0.04,-1.32,0.30,
3.898,-0.27,3.44,-3.67,0.04,-1.42,0.29,
3.899,-0.27,3.44,-3.67,0.04,-1.55,0.28,
3.899,-0.27,3.44,-3.67,0.05,-1.58,0.27,
3.899,-0.27,3.44,-3.67,0.05,-1.64,0.27,
3.899,-0.27,3.44,-3.67,0.06,-1.70,0.26,
3.905,-0.01,4.15,-3.17,0.06,-1.70,0.26,
3.905,-0.01,4.15,-3.17,0.06,-1.73,0.25,
3.905,-0.01,4.15,-3.17,0.09,-1.77,0.24,
3.906,-0.01,4.15,-3.17,0.09,-1.77,0.24,
3.908,-0.01,4.15,-3.17,0.12,-1.77,0.23,
3.909,-0.01,4.15,-3.17,0.15,-1.76,0.23,
3.911,0.32,4.77,-2.25,0.15,-1.76,0.23,
3.911,0.32,4.77,-2.25,0.19,-1.73,0.23,
3.914,0.32,4.77,-2.25,0.26,-1.66,0.22,
3.916,0.32,4.77,-2.25,0.29,-1.62,0.22,
3.919,0.32,4.77,-2.25,0.36,-1.55,0.21,
3.919,0.32,4.77,-2.25,0.43,-1.46,0.21,
3.923,0.98,4.83,-0.66,0.43,-1.46,0.21,
3.924,0.98,4.83,-0.66,0.50,-1.36,0.21,
3.924,0.98,4.83,-0.66,0.63,-1.20,0.21,
3.925,0.98,4.83,-0.66,0.67,-1.14,0.21,
3.927,0.98,4.83,-0.66,0.75,-1.01,0.21,
3.929,0.98,4.83,-0.66,0.83,-0.87,0.21,
3.931,1.59,3.83,0.61,0.83,-0.87,0.21,
3.931,1.59,3.83,0.61,0.91,-0.72,0.21,
3.939,1.59,3.83,0.61,1.02,-0.49,0.21,
3.94,1.59,3.83,0.61,1.06,-0.41,0.21,
3.94,1.59,3.83,0.61,1.12,-0.24,0.21,
3.94,1.59,3.83,0.61,1.18,-0.07,0.21,
3.942,2.02,2.31,1.09,1.18,-0.07,0.21,
3.942,2.02,2.31,1.09,1.23,0.11,0.21,
3.944,2.02,2.31,1.09,1.28,0.39,0.23,
3.945,2.02,2.31,1.09,1.29,0.48,0.23,
3.947,2.02,2.31,1.09,1.31,0.68,0.25,
3.955,2.02,2.31,1.09,1.31,0.87,0.27,
3.955,1.64,0.99,0.84,1.31,0.87,0.27,
3.955,1.64,0.99,0.84,1.29,1.06,0.29,
3.956,1.64,0.99,0.84,1.24,1.34,0.32,
3.956,1.64,0.99,0.84,1.21,1.43,0.33,
3.957,1.64,0.99,0.84,1.14,1.58,0.36,
3.959,1.64,0.99,0.84,1.07,1.72,0.38,
3.962,1.21,0.38,-0.57,1.07,1.72,0.38,
3.963,1.21,0.38,-0.57,0.98,1.84,0.40,
3.991,1.21,0.38,-0.57,0.83,1.96,0.42,
3.992,1.21,0.38,-0.57,0.78,1.98,0.42,
3.992,1.21,0.38,-0.57,0.67,2.01,0.43,
3.992,1.21,0.38,-0.57,0.57,2.01,0.43,
3.992,1.31,0.62,-2.22,0.57,2.01,0.43,
3.992,1.31,0.62,-2.22,0.46,1.99,0.43,
3.992,1.31,0.62,-2.22,0.33,1.92,0.41,
3.992,1.31,0.62,-2.22,0.29,1.88,0.41,
3.993,1.31,0.62,-2.22,0.22,1.81,0.39,
3.993,1.31,0.62,-2.22,0.15,1.72,0.38,
3.993,1.56,1.11,-2.59,0.15,1.72,0.38,
3.993,1.56,1.11,-2.59,0.10,1.62,0.36,
3.993,1.56,1.11,-2.59,0.05,1.46,0.33,
3.993,1.56,1.11,-2.59,0.05,1.41,0.32,
3.993,1.56,1.11,-2.59,0.04,1.29,0.29,
3.993,1.56,1.11,-2.59,0.05,1.18,0.27,
3.994,1.48,1.33,-1.15,0.05,1.18,0.27,
3.994,1.48,1.33,-1.15,0.08,1.08,0.25,
3.994,1.48,1.33,-1.15,0.15,0.92,0.23,
3.996,1.48,1.33,-1.15,0.18,0.87,0.22,
3.997,1.48,1.33,-1.15,0.25,0.77,0.21,
3.999,1.48,1.33,-1.15,0.33,0.67,0.19,
4.001,1.33,1.54,1.06,0.33,0.67,0.19,
4.001,1.33,1.54,1.06,0.41,0.58,0.18,
4.004,1.33,1.54,1.06,0.53,0.46,0.18,
4.005,1.33,1.54,1.06,0.57,0.42,0.17,
4.007,1.33,1.54,1.06,0.65,0.35,0.17,
4.009,1.33,1.54,1.06,0.72,0.29,0.17,
4.011,1.13,1.99,1.57,0.72,0.29,0.17,
4.011,1.13,1.99,1.57,0.79,0.23,0.18,
4.013,1.13,1.99,1.57,0.87,0.15,0.19,
4.016,1.13,1.99,1.57,0.90,0.13,0.20,
4.017,1.13,1.99,1.57,0.94,0.08,0.21,
4.019,1.13,1.99,1.57,0.98,0.05,0.23,
4.022,0.54,2.21,0.72,0.98,0.05,0.23,
4.022,0.54,2.21,0.72,1.00,0.02,0.25,
4.024,0.54,2.21,0.72,1.02,-0.03,0.29,
4.025,0.54,2.21,0.72,1.02,-0.04,0.31,
4.027,0.54,2.21,0.72,1.01,-0.05,0.34,
4.029,0.54,2.21,0.72,0.99,-0.07,0.37,
4.032,-0.46,1.84,-0.78,0.99,-0.07,0.37,
4.034,-0.46,1.84,-0.78,0.96,-0.07,0.40,
4.034,-0.46,1.84,-0.78,0.91,-0.07,0.44,
4.036,-0.46,1.84,-0.78,0.90,-0.06,0.46,
4.037,-0.46,1.84,-0.78,0.85,-0.05,0.49,
4.039,-0.46,1.84,-0.78,0.81,-0.02,0.52,
4.041,-1.22,1.01,-1.70,0.81,-0.02,0.52,
4.041,-1.22,1.01,-1.70,0.76,0.01,0.55,
4.061,-1.22,1.01,-1.70,0.69,0.07,0.59,
4.061,-1.22,1.01,-1.70,0.67,0.09,0.60,
4.061,-1.22,1.01,-1.70,0.62,0.15,0.63,
4.061,-1.22,1.01,-1.70,0.56,0.21,0.65,
4.061,-1.47,0.06,-1.48,0.56,0.21,0.65,
4.061,-1.47,0.06,-1.48,0.51,0.27,0.67,
4.062,-1.47,0.06,-1.48,0.42,0.37,0.69,
4.062,-1.47,0.06,-1.48,0.39,0.40,0.69,
4.062,-1.47,0.06,-1.48,0.33,0.46,0.69,
4.062,-1.47,0.06,-1.48,0.26,0.51,0.70,
4.062,-1.15,-0.68,-1.52,0.26,0.51,0.70,
4.062,-1.15,-0.68,-1.52,0.19,0.55,0.69,
4.064,-1.15,-0.68,-1.52,0.10,0.59,0.68,
4.065,-1.15,-0.68,-1.52,0.07,0.60,0.67,
4.067,-1.15,-0.68,-1.52,0.02,0.62,0.66,
4.069,-1.15,-0.68,-1.52,-0.02,0.62,0.64,
4.071,-0.05,-0.86,-1.21,-0.02,0.62,0.64,
4.071,-0.05,-0.86,-1.21,-0.05,0.62,0.62,
4.074,-0.05,-0.86,-1.21,-0.08,0.61,0.57,
4.075,-0.05,-0.86,-1.21,-0.09,0.60,0.55,
4.077,-0.05,-0.86,-1.21,-0.09,0.59,0.51,
4.079,-0.05,-0.86,-1.21,-0.07,0.58,0.47,
4.081,1.47,-0.56,0.54,-0.07,0.58,0.47,
4.081,1.47,-0.56,0.54,-0.04,0.57,0.43,
4.085,1.47,-0.56,0.54,0.03,0.56,0.36,
4.086,1.47,-0.56,0.54,0.06,0.55,0.34,
4.091,1.47,-0.56,0.54,0.13,0.55,0.30,
4.092,1.47,-0.56,0.54,0.22,0.56,0.27,
4.092,2.43,-0.02,3.51,0.22,0.56,0.27,
4.092,2.43,-0.02,3.51,0.31,0.58,0.24,
4.095,2.43,-0.02,3.51,0.54,0.63,0.20,
4.096,2.43,-0.02,3.51,0.60,0.64,0.20,
4.097,2.43,-0.02,3.51,0.66,0.65,0.19,
4.103,2.43,-0.02,3.51,0.77,0.68,0.19,
4.104,2.50,0.44,6.01,0.77,0.68,0.19,
4.104,2.50,0.44,6.01,0.88,0.70,0.19,
4.104,2.50,0.44,6.01,1.04,0.73,0.21,
4.107,2.50,0.44,6.01,1.09,0.74,0.23,
4.107,2.50,0.44,6.01,1.19,0.76,0.25,
4.11,2.50,0.44,6.01,1.30,0.78,0.29,
4.113,1.44,0.52,6.23,1.30,0.78,0.29,
4.113,1.44,0.52,6.23,1.40,0.81,0.33,
4.136,1.44,0.52,6.23,1.54,0.87,0.41,
4.137,1.44,0.52,6.23,1.59,0.89,0.44,
4.137,1.44,0.52,6.23,1.68,0.94,0.51,
4.137,1.44,0.52,6.23,1.76,0.98,0.58,
4.138,-0.51,0.27,6.36,1.76,0.98,0.58,
4.138,-0.51,0.27,6.36,1.82,1.03,0.66,
4.139,-0.51,0.27,6.36,1.90,1.14,0.93,
4.139,-0.51,0.27,6.36,1.90,1.14,0.93,
4.139,-0.51,0.27,6.36,1.90,1.14,0.93,
4.139,-0.51,0.27,6.36,1.90,1.16,1.02,
4.14,-2.79,-0.35,3.64,1.90,1.16,1.02,
4.14,-2.79,-0.35,3.64,1.88,1.17,1.11,
4.14,-2.79,-0.35,3.64,1.84,1.18,1.25,
4.141,-2.79,-0.35,3.64,1.83,1.18,1.29,
4.141,-2.79,-0.35,3.64,1.82,1.18,1.38,
4.141,-2.79,-0.35,3.64,1.81,1.17,1.47,
4.141,-4.26,-1.04,1.75,1.81,1.17,1.47,
4.142,-4.26,-1.04,1.75,1.81,1.15,1.56,
4.144,-4.26,-1.04,1.75,1.84,1.09,1.69,
4.145,-4.26,-1.04,1.75,1.86,1.07,1.73,
4.148,-4.26,-1.04,1.75,1.92,1.01,1.82,
4.149,-4.26,-1.04,1.75,1.99,0.94,1.90,
4.151,-4.76,-1.91,2.66,1.99,0.94,1.90,
4.152,-4.76,-1.91,2.66,2.08,0.86,1.99,
4.154,-4.76,-1.91,2.66,2.24,0.72,2.12,
4.155,-4.76,-1.91,2.66,2.29,0.67,2.16,
4.157,-4.76,-1.91,2.66,2.41,0.55,2.24,
4.159,-4.76,-1.91,2.66,2.53,0.43,2.31,
4.161,-4.65,-3.28,3.80,2.53,0.43,2.31,
4.162,-4.65,-3.28,3.80,2.65,0.30,2.38,
4.167,-4.65,-3.28,3.80,2.82,0.10,2.47,
4.17,-4.65,-3.28,3.80,2.87,0.03,2.49,
4.17,-4.65,-3.28,3.80,2.96,-0.12,2.53,
4.171,-4.65,-3.28,3.80,3.05,-0.27,2.56,
4.172,-3.41,-4.65,2.74,3.05,-0.27,2.56,
4.173,-3.41,-4.65,2.74,3.13,-0.41,2.58,
4.176,-3.41,-4.65,2.74,3.22,-0.62,2.59,
4.176,-3.41,-4.65,2.74,3.25,-0.68,2.59,
4.177,-3.41,-4.65,2.74,3.29,-0.79,2.58,
4.179,-3.41,-4.65,2.74,3.33,-0.88,2.56,
4.186,-1.97,-5.61,1.01,3.33,-0.88,2.56,
4.188,-1.97,-5.61,1.01,3.36,-0.95,2.54,
4.189,-1.97,-5.61,1.01,3.40,-1.00,2.49,
4.19,-1.97,-5.61,1.01,3.41,-1.01,2.47,
4.19,-1.97,-5.61,1.01,3.42,-0.99,2.42,
4.191,-1.97,-5.61,1.01,3.42,-0.94,2.38,
4.192,-1.16,-6.63,0.40,3.42,-0.94,2.38,
4.192,-1.16,-6.63,0.40,3.41,-0.86,2.32,
4.204,-1.16,-6.63,0.40,3.38,-0.68,2.24,
4.205,-1.16,-6.63,0.40,3.36,-0.61,2.21,
4.205,-1.16,-6.63,0.40,3.31,-0.46,2.15,
4.205,-1.16,-6.63,0.40,3.25,-0.29,2.09,
4.206,-0.78,-8.23,-0.28,3.25,-0.29,2.09,
4.206,-0.78,-8.23,-0.28,3.17,-0.11,2.03,
4.206,-0.78,-8.23,-0.28,3.01,0.17,1.93,
4.207,-0.78,-8.23,-0.28,2.96,0.27,1.89,
4.211,-0.78,-8.23,-0.28,2.83,0.45,1.83,
4.211,-0.78,-8.23,-0.28,2.69,0.61,1.76,
4.235,-0.33,-9.82,-2.00,2.69,0.61,1.76,
4.236,-0.33,-9.82,-2.00,2.54,0.75,1.69,
4.236,-0.33,-9.82,-2.00,2.30,0.91,1.60,
4.236,-0.33,-9.82,-2.00,2.22,0.95,1.57,
4.237,-0.33,-9.82,-2.00,2.06,1.01,1.51,
4.237,-0.33,-9.82,-2.00,1.91,1.04,1.46,
4.237,-0.27,-11.46,-3.90,1.91,1.04,1.46,
4.238,-0.27,-11.46,-3.90,1.76,1.05,1.40,
4.238,-0.27,-11.46,-3.90,1.57,1.01,1.33,
4.238,-0.27,-11.46,-3.90,1.51,1.00,1.31,
4.238,-0.27,-11.46,-3.90,1.40,0.95,1.28,
4.239,-0.27,-11.46,-3.90,1.31,0.89,1.25,
4.239,-1.12,-13.00,-3.50,1.31,0.89,1.25,
4.239,-1.12,-13.00,-3.50,1.24,0.83,1.23,
4.24,-1.12,-13.00,-3.50,1.14,0.70,1.22,
4.24,-1.12,-13.00,-3.50,1.11,0.66,1.21,
4.24,-1.12,-13.00,-3.50,1.05,0.50,1.21,
4.24,-1.12,-13.00,-3.50,1.04,0.44,1.21,
4.246,-2.30,-13.64,-2.61,1.04,0.44,1.21,
4.247,-2.30,-13.64,-2.61,1.02,0.32,1.21,
4.247,-2.30,-13.64,-2.61,1.02,0.14,1.20,
4.247,-2.30,-13.64,-2.61,1.02,0.08,1.20,
4.252,-2.30,-13.64,-2.61,1.04,-0.03,1.19,
4.253,-2.30,-13.64,-2.61,1.07,-0.14,1.17,
4.253,-2.22,-11.81,-1.52,1.07,-0.14,1.17,
4.253,-2.22,-11.81,-1.52,1.12,-0.22,1.15,
4.255,-2.22,-11.81,-1.52,1.20,-0.32,1.12,
4.262,-2.22,-11.81,-1.52,1.24,-0.35,1.10,
4.262,-2.22,-11.81,-1.52,1.31,-0.38,1.08,
4.263,-2.22,-11.81,-1.52,1.38,-0.39,1.06,
4.264,-1.81,-8.77,-0.47,1.38,-0.39,1.06,
4.264,-1.81,-8.77,-0.47,1.45,-0.39,1.04,
4.277,-1.81,-8.77,-0.47,1.55,-0.34,1.01,
4.278,-1.81,-8.77,-0.47,1.58,-0.32,1.00,
4.278,-1.81,-8.77,-0.47,1.63,-0.26,0.99,
4.278,-1.81,-8.77,-0.47,1.68,-0.18,0.98,
4.279,-1.91,-5.80,-0.63,1.68,-0.18,0.98,
4.279,-1.91,-5.80,-0.63,1.71,-0.08,0.96,
4.279,-1.91,-5.80,-0.63,1.74,0.08,0.93,
4.279,-1.91,-5.80,-0.63,1.74,0.14,0.92,
4.28,-1.91,-5.80,-0.63,1.74,0.26,0.90,
4.28,-1.91,-5.80,-0.63,1.73,0.38,0.88,
4.282,-1.48,-3.69,-1.53,1.73,0.38,0.88,
4.282,-1.48,-3.69,-1.53,1.70,0.50,0.85,
4.304,-1.48,-3.69,-1.53,1.64,0.67,0.82,
4.305,-1.48,-3.69,-1.53,1.61,0.72,0.81,
4.305,-1.48,-3.69,-1.53,1.55,0.80,0.79,
4.306,-1.48,-3.69,-1.53,1.48,0.87,0.79,
4.306,-0.80,-2.59,-2.70,1.48,0.87,0.79,
4.306,-0.80,-2.59,-2.70,1.40,0.93,0.78,
4.306,-0.80,-2.59,-2.70,1.27,0.98,0.78,
4.306,-0.80,-2.59,-2.70,1.23,0.99,0.78,
4.307,-0.80,-2.59,-2.70,1.13,1.00,0.79,
4.307,-0.80,-2.59,-2.70,1.03,1.00,0.79,
4.307,0.08,-2.14,-3.84,1.03,1.00,0.79,
4.307,0.08,-2.14,-3.84,0.93,0.99,0.79,
4.308,0.08,-2.14,-3.84,0.78,0.96,0.79,
4.308,0.08,-2.14,-3.84,0.74,0.95,0.78,
4.308,0.08,-2.14,-3.84,0.64,0.94,0.77,
4.311,0.08,-2.14,-3.84,0.55,0.91,0.76,
4.312,1.18,-1.49,-4.32,0.55,0.91,0.76,
4.312,1.18,-1.49,-4.32,0.46,0.89,0.74,
4.315,1.18,-1.49,-4.32,0.34,0.83,0.71,
4.316,1.18,-1.49,-4.32,0.30,0.80,0.70,
4.318,1.18,-1.49,-4.32,0.23,0.75,0.67,
4.322,1.18,-1.49,-4.32,0.16,0.68,0.65,
4.322,1.91,-0.90,-4.35,0.16,0.68,0.65,
4.322,1.91,-0.90,-4.35,0.09,0.61,0.62,
4.326,1.91,-0.90,-4.35,-0.00,0.51,0.57,
4.326,1.91,-0.90,-4.35,-0.03,0.47,0.55,
4.328,1.91,-0.90,-4.35,-0.09,0.40,0.51,
4.339,1.91,-0.90,-4.35,-0.15,0.33,0.47,
4.34,2.15,-0.25,-4.19,-0.15,0.33,0.47,
4.34,2.15,-0.25,-4.19,-0.20,0.26,0.44,
4.34,2.15,-0.25,-4.19,-0.28,0.16,0.38,
4.341,2.15,-0.25,-4.19,-0.31,0.13,0.36,
4.341,2.15,-0.25,-4.19,-0.36,0.07,0.32,
4.342,2.15,-0.25,-4.19,-0.42,0.01,0.28,
4.344,2.12,0.21,-4.50,-0.42,0.01,0.28,
4.344,2.12,0.21,-4.50,-0.48,-0.04,0.23,
4.352,2.12,0.21,-4.50,-0.57,-0.11,0.17,
4.353,2.12,0.21,-4.50,-0.60,-0.13,0.15,
4.353,2.12,0.21,-4.50,-0.67,-0.16,0.10,
4.353,2.12,0.21,-4.50,-0.73,-0.19,0.06,
4.353,1.95,0.57,-5.04,-0.73,-0.19,0.06,
4.353,1.95,0.57,-5.04,-0.80,-0.21,0.01,
4.354,1.95,0.57,-5.04,-0.90,-0.23,-0.06,
4.355,1.95,0.57,-5.04,-0.94,-0.23,-0.08,
4.357,1.95,0.57,-5.04,-1.00,-0.24,-0.12,
4.359,1.95,0.57,-5.04,-1.06,-0.23,-0.16,
4.363,1.65,0.81,-5.46,-1.06,-0.23,-0.16,
4.363,1.65,0.81,-5.46,-1.13,-0.22,-0.21,
4.368,1.65,0.81,-5.46,-1.21,-0.19,-0.26,
4.375,1.65,0.81,-5.46,-1.23,-0.18,-0.28,
4.375,1.65,0.81,-5.46,-1.28,-0.15,-0.32,
4.376,1.65,0.81,-5.46,-1.32,-0.12,-0.35,
4.377,1.32,1.54,-4.93,-1.32,-0.12,-0.35,
4.378,1.32,1.54,-4.93,-1.36,-0.09,-0.39,
4.378,1.32,1.54,-4.93,-1.42,-0.04,-0.43,
4.379,1.32,1.54,-4.93,-1.44,-0.03,-0.44,
4.399,1.32,1.54,-4.93,-1.47,0.01,-0.47,
4.399,1.32,1.54,-4.93,-1.50,0.03,-0.48,
4.399,0.81,2.48,-4.43,-1.50,0.03,-0.48,
4.399,0.81,2.48,-4.43,-1.53,0.06,-0.50,
4.4,0.81,2.48,-4.43,-1.57,0.10,-0.53,
4.4,0.81,2.48,-4.43,-1.58,0.11,-0.53,
4.4,0.81,2.48,-4.43,-1.61,0.14,-0.54,
4.4,0.81,2.48,-4.43,-1.64,0.17,-0.56,
4.4,0.67,3.61,-4.06,-1.64,0.17,-0.56,
4.401,0.67,3.61,-4.06,-1.66,0.19,-0.57,
4.404,0.67,3.61,-4.06,-1.71,0.21,-0.58,
4.404,0.67,3.61,-4.06,-1.72,0.21,-0.59,
4.405,0.67,3.61,-4.06,-1.75,0.22,-0.59,
4.405,0.67,3.61,-4.06,-1.78,0.22,-0.60,
4.405,0.65,4.64,-3.96,-1.78,0.22,-0.60,
4.405,0.65,4.64,-3.96,-1.80,0.22,-0.60,
4.405,0.65,4.64,-3.96,-1.85,0.21,-0.61,
4.414,0.65,4.64,-3.96,-1.86,0.21,-0.60,
4.414,0.65,4.64,-3.96,-1.89,0.20,-0.60,
4.416,0.65,4.64,-3.96,-1.93,0.18,-0.60,
4.417,0.83,5.47,-3.66,-1.93,0.18,-0.60,
4.417,0.83,5.47,-3.66,-1.96,0.16,-0.60,
4.417,0.83,5.47,-3.66,-2.01,0.12,-0.58,
4.417,0.83,5.47,-3.66,-2.03,0.11,-0.58,
4.419,0.83,5.47,-3.66,-2.06,0.09,-0.57,
4.419,0.83,5.47,-3.66,-2.10,0.05,-0.56,
4.422,0.77,6.23,-3.36,-2.10,0.05,-0.56,
4.422,0.77,6.23,-3.36,-2.14,0.01,-0.55,
4.424,0.77,6.23,-3.36,-2.19,-0.05,-0.53,
4.426,0.77,6.23,-3.36,-2.21,-0.07,-0.52,
4.427,0.77,6.23,-3.36,-2.25,-0.13,-0.50,
4.429,0.77,6.23,-3.36,-2.29,-0.18,-0.48,
4.434,1.00,6.69,-3.02,-2.29,-0.18,-0.48,
4.434,1.00,6.69,-3.02,-2.33,-0.24,-0.46,
4.435,1.00,6.69,-3.02,-2.39,-0.35,-0.43,
4.435,1.00,6.69,-3.02,-2.41,-0.39,-0.42,
4.437,1.00,6.69,-3.02,-2.45,-0.47,-0.40,
4.439,1.00,6.69,-3.02,-2.50,-0.55,-0.38,
4.442,1.04,7.04,-2.94,-2.50,-0.55,-0.38,
4.442,1.04,7.04,-2.94,-2.54,-0.65,-0.36,
4.446,1.04,7.04,-2.94,-2.64,-0.84,-0.32,
4.447,1.04,7.04,-2.94,-2.67,-0.89,-0.31,
4.449,1.04,7.04,-2.94,-2.69,-0.95,-0.30,
4.455,1.04,7.04,-2.94,-2.75,-1.05,-0.28,
4.456,1.55,7.00,-3.04,-2.75,-1.05,-0.28,
4.456,1.55,7.00,-3.04,-2.81,-1.16,-0.27,
4.459,1.55,7.00,-3.04,-2.89,-1.33,-0.25,
4.459,1.55,7.00,-3.04,-2.92,-1.39,-0.25,
4.459,1.55,7.00,-3.04,-2.98,-1.50,-0.25,
4.459,1.55,7.00,-3.04,-3.03,-1.62,-0.25,
4.461,2.23,6.76,-3.18,-3.03,-1.62,-0.25,
4.461,2.23,6.76,-3.18,-3.09,-1.73,-0.25,
4.464,2.23,6.76,-3.18,-3.16,-1.89,-0.26,
4.465,2.23,6.76,-3.18,-3.19,-1.94,-0.27,
4.47,2.23,6.76,-3.18,-3.23,-2.04,-0.29,
4.47,2.23,6.76,-3.18,-3.27,-2.13,-0.31,
4.472,3.18,6.27,-2.58,-3.27,-2.13,-0.31,
4.472,3.18,6.27,-2.58,-3.30,-2.21,-0.33,
4.487,3.18,6.27,-2.58,-3.35,-2.32,-0.38,
4.487,3.18,6.27,-2.58,-3.36,-2.35,-0.40,
4.488,3.18,6.27,-2.58,-3.39,-2.42,-0.44,
4.488,3.18,6.27,-2.58,-3.41,-2.48,-0.48,
4.488,4.26,5.45,-2.06,-3.41,-2.48,-0.48,
4.488,4.26,5.45,-2.06,-3.43,-2.54,-0.53,
4.489,4.26,5.45,-2.06,-3.47,-2.61,-0.61,
4.489,4.26,5.45,-2.06,-3.49,-2.62,-0.64,
4.489,4.26,5.45,-2.06,-3.51,-2.65,-0.69,
4.489,4.26,5.45,-2.06,-3.54,-2.67,-0.74,
4.491,4.76,4.55,-1.78,-3.54,-2.67,-0.74,
4.491,4.76,4.55,-1.78,-3.56,-2.69,-0.80,
4.494,4.76,4.55,-1.78,-3.59,-2.70,-0.88,
4.495,4.76,4.55,-1.78,-3.61,-2.70,-0.90,
4.503,4.76,4.55,-1.78,-3.62,-2.69,-0.96,
4.503,4.76,4.55,-1.78,-3.64,-2.68,-1.01,
4.504,5.00,3.44,-1.36,-3.64,-2.68,-1.01,
4.504,5.00,3.44,-1.36,-3.65,-2.66,-1.06,
4.504,5.00,3.44,-1.36,-3.66,-2.61,-1.13,
4.505,5.00,3.44,-1.36,-3.65,-2.59,-1.16,
4.51,5.00,3.44,-1.36,-3.65,-2.54,-1.21,
4.528,5.00,3.44,-1.36,-3.64,-2.49,-1.27,
4.528,4.80,2.74,-0.40,-3.64,-2.49,-1.27,
4.528,4.80,2.74,-0.40,-3.62,-2.43,-1.33,
4.529,4.80,2.74,-0.40,-3.57,-2.31,-1.43,
4.529,4.80,2.74,-0.40,-3.54,-2.27,-1.47,
4.529,4.80,2.74,-0.40,-3.50,-2.18,-1.54,
4.529,4.80,2.74,-0.40,-3.44,-2.08,-1.62,
4.529,5.35,2.23,1.21,-3.44,-2.08,-1.62,
4.529,5.35,2.23,1.21,-3.37,-1.97,-1.71,
4.529,5.35,2.23,1.21,-3.25,-1.77,-1.85,
4.53,5.35,2.23,1.21,-3.21,-1.70,-1.90,
4.53,5.35,2.23,1.21,-3.11,-1.56,-2.00,
4.53,5.35,2.23,1.21,-3.01,-1.41,-2.10,
4.532,5.80,2.07,2.93,-3.01,-1.41,-2.10,
4.534,5.80,2.07,2.93,-2.91,-1.25,-2.21,
4.536,5.80,2.07,2.93,-2.72,-1.00,-2.39,
4.536,5.80,2.07,2.93,-2.66,-0.91,-2.44,
4.537,5.80,2.07,2.93,-2.52,-0.72,-2.56,
4.539,5.80,2.07,2.93,-2.38,-0.52,-2.68,
4.541,6.22,1.91,4.73,-2.38,-0.52,-2.68,
4.541,6.22,1.91,4.73,-2.23,-0.32,-2.80,
4.555,6.22,1.91,4.73,-1.99,-0.00,-2.98,
4.555,6.22,1.91,4.73,-1.90,0.11,-3.04,
4.556,6.22,1.91,4.73,-1.73,0.32,-3.15,
4.556,6.22,1.91,4.73,-1.54,0.54,-3.26,
4.556,5.77,1.39,6.48,-1.54,0.54,-3.26,
4.556,5.77,1.39,6.48,-1.35,0.77,-3.36,
4.557,5.77,1.39,6.48,-1.02,1.13,-3.50,
4.557,5.77,1.39,6.48,-0.91,1.27,-3.53,
4.557,5.77,1.39,6.48,-0.67,1.56,-3.60,
4.559,5.77,1.39,6.48,-0.43,1.86,-3.64,
4.561,4.49,0.11,10.80,-0.43,1.86,-3.64,
4.561,4.49,0.11,10.80,-0.18,2.15,-3.66,
4.564,4.49,0.11,10.80,0.14,2.52,-3.65,
4.57,4.49,0.11,10.80,0.22,2.62,-3.63,
4.571,4.49,0.11,10.80,0.33,2.78,-3.55,
4.571,4.49,0.11,10.80,0.37,2.88,-3.45,
4.571,2.05,-1.43,13.17,0.37,2.88,-3.45,
4.571,2.05,-1.43,13.17,0.38,2.86,-3.33,
4.574,2.05,-1.43,13.17,0.33,2.65,-3.11,
4.575,2.05,-1.43,13.17,0.30,2.55,-3.03,
4.577,2.05,-1.43,13.17,0.23,2.30,-2.85,
4.58,2.05,-1.43,13.17,0.16,2.02,-2.68,
4.582,-0.13,-0.98,10.97,0.16,2.02,-2.68,
4.582,-0.13,-0.98,10.97,0.09,1.72,-2.50,
4.584,-0.13,-0.98,10.97,-0.02,1.26,-2.22,
4.585,-0.13,-0.98,10.97,-0.05,1.11,-2.13,
4.587,-0.13,-0.98,10.97,-0.09,0.81,-1.95,
4.589,-0.13,-0.98,10.97,-0.14,0.53,-1.77,
4.592,-1.39,0.37,8.49,-0.14,0.53,-1.77,
4.592,-1.39,0.37,8.49,-0.16,0.26,-1.59,
4.594,-1.39,0.37,8.49,-0.18,-0.10,-1.34,
4.595,-1.39,0.37,8.49,-0.19,-0.20,-1.25,
4.598,-1.39,0.37,8.49,-0.19,-0.40,-1.09,
4.599,-1.39,0.37,8.49,-0.18,-0.58,-0.94,
4.601,-2.10,1.38,6.82,-0.18,-0.58,-0.94,
4.601,-2.10,1.38,6.82,-0.17,-0.73,-0.79,
4.604,-2.10,1.38,6.82,-0.15,-0.90,-0.61,
4.606,-2.10,1.38,6.82,-0.15,-0.95,-0.56,
4.607,-2.10,1.38,6.82,-0.13,-1.02,-0.46,
4.609,-2.10,1.38,6.82,-0.11,-1.05,-0.37,
4.611,-2.20,1.66,4.81,-0.11,-1.05,-0.37,
4.611,-2.20,1.66,4.81,-0.10,-1.07,-0.30,
4.614,-2.20,1.66,4.81,-0.08,-1.05,-0.19,
4.615,-2.20,1.66,4.81,-0.07,-1.04,-0.16,
4.617,-2.20,1.66,4.81,-0.06,-1.00,-0.10,
4.619,-2.20,1.66,4.81,-0.05,-0.94,-0.04,
4.621,-2.78,1.34,3.18,-0.05,-0.94,-0.04,
4.621,-2.78,1.34,3.18,-0.04,-0.88,0.02,
4.624,-2.78,1.34,3.18,-0.04,-0.76,0.09,
4.626,-2.78,1.34,3.18,-0.04,-0.71,0.12,
4.627,-2.78,1.34,3.18,-0.04,-0.61,0.17,
4.629,-2.78,1.34,3.18,-0.05,-0.51,0.22,
4.631,-3.29,0.81,1.44,-0.05,-0.51,0.22,
4.631,-3.29,0.81,1.44,-0.06,-0.40,0.26,
4.634,-3.29,0.81,1.44,-0.08,-0.25,0.33,
4.635,-3.29,0.81,1.44,-0.09,-0.20,0.34,
4.637,-3.29,0.81,1.44,-0.11,-0.10,0.38,
4.639,-3.29,0.81,1.44,-0.12,-0.02,0.42,
4.641,-3.49,0.27,0.24,-0.12,-0.02,0.42,
4.641,-3.49,0.27,0.24,-0.14,0.06,0.45,
4.644,-3.49,0.27,0.24,-0.17,0.17,0.50,
4.645,-3.49,0.27,0.24,-0.18,0.21,0.51,
4.647,-3.49,0.27,0.24,-0.21,0.27,0.54,
4.649,-3.49,0.27,0.24,-0.23,0.34,0.57,
4.653,-3.38,-0.31,-0.58,-0.23,0.34,0.57,
4.653,-3.38,-0.31,-0.58,-0.26,0.40,0.60,
4.655,-3.38,-0.31,-0.58,-0.31,0.50,0.64,
4.656,-3.38,-0.31,-0.58,-0.33,0.54,0.65,
4.658,-3.38,-0.31,-0.58,-0.37,0.61,0.68,
4.66,-3.38,-0.31,-0.58,-0.41,0.69,0.71,
4.661,-3.81,-0.85,-1.11,-0.41,0.69,0.71,
4.661,-3.81,-0.85,-1.11,-0.44,0.76,0.74,
4.666,-3.81,-0.85,-1.11,-0.50,0.89,0.78,
4.667,-3.81,-0.85,-1.11,-0.52,0.93,0.80,
4.667,-3.81,-0.85,-1.11,-0.54,1.01,0.84,
4.672,-3.81,-0.85,-1.11,-0.57,1.08,0.87,
4.673,-4.48,-1.17,-0.81,-0.57,1.08,0.87,
4.673,-4.48,-1.17,-0.81,-0.58,1.15,0.90,
4.674,-4.48,-1.17,-0.81,-0.57,1.26,0.95,
4.675,-4.48,-1.17,-0.81,-0.54,1.34,0.99,
4.678,-4.48,-1.17,-0.81,-0.52,1.38,1.01,
4.684,-4.48,-1.17,-0.81,-0.46,1.47,1.05,
4.684,-5.38,-1.16,1.19,-0.46,1.47,1.05,
4.685,-5.38,-1.16,1.19,-0.38,1.56,1.09,
4.685,-5.38,-1.16,1.19,-0.25,1.69,1.15,
4.685,-5.38,-1.16,1.19,-0.20,1.73,1.17,
4.689,-5.38,-1.16,1.19,-0.09,1.80,1.20,
4.689,-5.38,-1.16,1.19,0.02,1.85,1.23,
4.692,-5.36,-1.50,3.01,0.02,1.85,1.23,
4.693,-5.36,-1.50,3.01,0.12,1.87,1.25,
4.695,-5.36,-1.50,3.01,0.28,1.85,1.29,
4.696,-5.36,-1.50,3.01,0.32,1.82,1.29,
4.697,-5.36,-1.50,3.01,0.41,1.75,1.30,
4.699,-5.36,-1.50,3.01,0.47,1.64,1.31,
4.705,-4.44,-2.77,2.08,0.47,1.64,1.31,
4.706,-4.44,-2.77,2.08,0.52,1.50,1.31,
4.706,-4.44,-2.77,2.08,0.56,1.23,1.29,
4.706,-4.44,-2.77,2.08,0.57,1.02,1.28,
4.707,-4.44,-2.77,2.08,0.56,0.91,1.26,
4.709,-4.44,-2.77,2.08,0.55,0.67,1.23,
4.721,-2.98,-4.69,-0.72,0.55,0.67,1.23,
4.722,-2.98,-4.69,-0.72,0.52,0.42,1.19,
4.722,-2.98,-4.69,-0.72,0.45,0.05,1.12,
4.722,-2.98,-4.69,-0.72,0.42,-0.07,1.10,
4.722,-2.98,-4.69,-0.72,0.36,-0.30,1.04,
4.722,-2.98,-4.69,-0.72,0.30,-0.49,0.99,
4.722,-2.04,-6.84,-2.72,0.30,-0.49,0.99,
4.723,-2.04,-6.84,-2.72,0.23,-0.64,0.93,
4.725,-2.04,-6.84,-2.72,0.10,-0.73,0.85,
4.726,-2.04,-6.84,-2.72,0.01,-0.72,0.79,
4.727,-2.04,-6.84,-2.72,-0.03,-0.70,0.75,
4.73,-2.04,-6.84,-2.72,-0.14,-0.62,0.69,
4.734,-2.18,-8.76,-2.78,-0.14,-0.62,0.69,
4.735,-2.18,-8.76,-2.78,-0.25,-0.52,0.61,
4.735,-2.18,-8.76,-2.78,-0.45,-0.32,0.49,
4.735,-2.18,-8.76,-2.78,-0.52,-0.25,0.45,
4.737,-2.18,-8.76,-2.78,-0.66,-0.15,0.36,
4.739,-2.18,-8.76,-2.78,-0.79,-0.09,0.27,
4.741,-1.18,-9.74,-3.04,-0.79,-0.09,0.27,
4.741,-1.18,-9.74,-3.04,-0.91,-0.09,0.19,
4.744,-1.18,-9.74,-3.04,-1.04,-0.19,0.07,
4.746,-1.18,-9.74,-3.04,-1.08,-0.24,0.04,
4.747,-1.18,-9.74,-3.04,-1.12,-0.37,-0.04,
4.749,-1.18,-9.74,-3.04,-1.15,-0.52,-0.11,
4.751,0.48,-9.30,-2.02,-1.15,-0.52,-0.11,
4.751,0.48,-9.30,-2.02,-1.15,-0.67,-0.17,
4.754,0.48,-9.30,-2.02,-1.13,-0.90,-0.27,
4.755,0.48,-9.30,-2.02,-1.12,-0.98,-0.31,
4.757,0.48,-9.30,-2.02,-1.09,-1.12,-0.37,
4.759,0.48,-9.30,-2.02,-1.05,-1.27,-0.43,
4.761,1.27,-9.23,-0.89,-1.05,-1.27,-0.43,
4.761,1.27,-9.23,-0.89,-1.01,-1.40,-0.49,
4.765,1.27,-9.23,-0.89,-0.94,-1.56,-0.56,
4.765,1.27,-9.23,-0.89,-0.91,-1.60,-0.58,
4.767,1.27,-9.23,-0.89,-0.85,-1.66,-0.62,
4.769,1.27,-9.23,-0.89,-0.78,-1.65,-0.66,
4.771,0.78,-10.38,0.67,-0.78,-1.65,-0.66,
4.771,0.78,-10.38,0.67,-0.66,-1.52,-0.70,
4.774,0.78,-10.38,0.67,-0.20,-0.95,-0.81,
4.775,0.78,-10.38,0.67,0.23,-0.33,-0.93,
4.778,0.78,-10.38,0.67,0.46,0.00,-0.99,
4.782,0.78,-10.38,0.67,0.92,0.68,-1.11,
4.782,4.91,-14.06,16.48,0.92,0.68,-1.11,
4.782,4.91,-14.06,16.48,1.33,1.29,-1.22,
4.785,4.91,-14.06,16.48,1.78,1.98,-1.34,
4.786,4.91,-14.06,16.48,1.88,2.14,-1.37,
4.787,4.91,-14.06,16.48,2.01,2.35,-1.40,
4.789,4.91,-14.06,16.48,2.06,2.45,-1.42,
4.793,3.62,-12.74,7.43,2.06,2.45,-1.42,
4.793,3.62,-12.74,7.43,2.05,2.45,-1.42,
4.795,3.62,-12.74,7.43,1.93,2.23,-1.41,
4.82,3.62,-12.74,7.43,1.89,2.15,-1.41,
4.821,3.62,-12.74,7.43,1.85,2.06,-1.41,
4.821,3.62,-12.74,7.43,1.76,1.87,-1.42,
4.822,2.58,-8.98,-2.85,1.76,1.87,-1.42,
4.822,2.58,-8.98,-2.85,1.67,1.68,-1.44,
4.822,2.58,-8.98,-2.85,1.54,1.39,-1.46,
4.823,2.58,-8.98,-2.85,1.49,1.29,-1.47,
4.823,2.58,-8.98,-2.85,1.40,1.11,-1.49,
4.823,2.58,-8.98,-2.85,1.32,0.94,-1.52,
4.824,2.96,-6.07,-4.69,1.32,0.94,-1.52,
4.824,2.96,-6.07,-4.69,1.24,0.78,-1.54,
4.824,2.96,-6.07,-4.69,1.11,0.55,-1.56,
4.825,2.96,-6.07,-4.69,1.07,0.48,-1.57,
4.825,2.96,-6.07,-4.69,0.99,0.35,-1.58,
4.826,2.96,-6.07,-4.69,0.90,0.22,-1.59,
4.826,3.05,-3.99,-4.64,0.90,0.22,-1.59,
4.826,3.05,-3.99,-4.64,0.80,0.10,-1.60,
4.827,3.05,-3.99,-4.64,0.63,-0.08,-1.60,
4.834,3.05,-3.99,-4.64,0.58,-0.14,-1.60,
4.834,3.05,-3.99,-4.64,0.45,-0.25,-1.59,
4.835,3.05,-3.99,-4.64,0.31,-0.36,-1.59,
4.835,2.79,-2.03,-4.88,0.31,-0.36,-1.59,
4.835,2.79,-2.03,-4.88,0.16,-0.47,-1.57,
4.835,2.79,-2.03,-4.88,-0.08,-0.65,-1.56,
4.836,2.79,-2.03,-4.88,-0.16,-0.72,-1.55,
4.838,2.79,-2.03,-4.88,-0.34,-0.86,-1.53,
4.839,2.79,-2.03,-4.88,-0.51,-1.01,-1.50,
4.849,2.49,-0.49,-5.45,-0.51,-1.01,-1.50,
4.85,2.49,-0.49,-5.45,-0.67,-1.17,-1.48,
4.85,2.49,-0.49,-5.45,-0.91,-1.42,-1.45,
4.85,2.49,-0.49,-5.45,-0.99,-1.51,-1.43,
4.85,2.49,-0.49,-5.45,-1.14,-1.68,-1.41,
4.851,2.49,-0.49,-5.45,-1.27,-1.85,-1.38,
4.853,2.08,0.47,-4.94,-1.27,-1.85,-1.38,
4.853,2.08,0.47,-4.94,-1.40,-2.01,-1.35,
4.854,2.08,0.47,-4.94,-1.56,-2.26,-1.31,
4.856,2.08,0.47,-4.94,-1.62,-2.34,-1.30,
4.857,2.08,0.47,-4.94,-1.71,-2.49,-1.27,
4.859,2.08,0.47,-4.94,-1.80,-2.64,-1.23,
4.862,1.85,0.86,-4.01,-1.80,-2.64,-1.23,
4.863,1.85,0.86,-4.01,-1.87,-2.78,-1.20,
4.864,1.85,0.86,-4.01,-1.97,-2.97,-1.14,
4.865,1.85,0.86,-4.01,-2.00,-3.03,-1.12,
4.867,1.85,0.86,-4.01,-2.06,-3.13,-1.08,
4.869,1.85,0.86,-4.01,-2.11,-3.22,-1.03,
4.871,1.30,0.86,-2.88,-2.11,-3.22,-1.03,
4.871,1.30,0.86,-2.88,-2.15,-3.31,-0.99,
4.874,1.30,0.86,-2.88,-2.19,-3.42,-0.93,
4.875,1.30,0.86,-2.88,-2.21,-3.49,-0.89,
4.905,1.30,0.86,-2.88,-2.22,-3.52,-0.87,
4.905,1.30,0.86,-2.88,-2.23,-3.57,-0.83,
4.905,1.04,0.94,-1.83,-2.23,-3.57,-0.83,
4.906,1.04,0.94,-1.83,-2.23,-3.62,-0.81,
4.906,1.04,0.94,-1.83,-2.22,-3.67,-0.77,
4.906,1.04,0.94,-1.83,-2.21,-3.69,-0.75,
4.906,1.04,0.94,-1.83,-2.20,-3.70,-0.74,
4.907,1.04,0.94,-1.83,-2.18,-3.71,-0.73,
4.907,0.89,1.23,-1.03,-2.18,-3.71,-0.73,
4.907,0.89,1.23,-1.03,-2.16,-3.72,-0.71,
4.908,0.89,1.23,-1.03,-2.12,-3.71,-0.70,
4.908,0.89,1.23,-1.03,-2.09,-3.70,-0.69,
4.908,0.89,1.23,-1.03,-2.08,-3.70,-0.68,
4.908,0.89,1.23,-1.03,-2.04,-3.68,-0.67,
4.909,0.60,1.71,-0.61,-2.04,-3.68,-0.67,
4.909,0.60,1.71,-0.61,-2.01,-3.66,-0.66,
4.909,0.60,1.71,-0.61,-1.96,-3.61,-0.63,
4.91,0.60,1.71,-0.61,-1.93,-3.57,-0.62,
4.91,0.60,1.71,-0.61,-1.91,-3.55,-0.61,
4.91,0.60,1.71,-0.61,-1.88,-3.50,-0.58,
4.917,-0.02,2.30,-0.38,-1.88,-3.50,-0.58,
4.917,-0.02,2.30,-0.38,-1.85,-3.43,-0.56,
4.917,-0.02,2.30,-0.38,-1.80,-3.32,-0.51,
4.918,-0.02,2.30,-0.38,-1.77,-3.24,-0.48,
4.918,-0.02,2.30,-0.38,-1.75,-3.19,-0.46,
4.919,-0.02,2.30,-0.38,-1.72,-3.08,-0.43,
4.921,-0.83,2.85,-0.11,-1.72,-3.08,-0.43,
4.922,-0.83,2.85,-0.11,-1.69,-2.94,-0.39,
4.924,-0.83,2.85,-0.11,-1.63,-2.63,-0.33,
4.926,-0.83,2.85,-0.11,-1.58,-2.35,-0.29,
4.927,-0.83,2.85,-0.11,-1.56,-2.18,-0.27,
4.929,-0.83,2.85,-0.11,-1.49,-1.82,-0.22,
4.932,-1.70,3.27,1.59,-1.49,-1.82,-0.22,
4.932,-1.70,3.27,1.59,-1.41,-1.42,-0.17,
4.934,-1.70,3.27,1.59,-1.26,-0.77,-0.10,
4.935,-1.70,3.27,1.59,-1.16,-0.32,-0.05,
4.937,-1.70,3.27,1.59,-1.10,-0.10,-0.02,
4.939,-1.70,3.27,1.59,-0.99,0.32,0.03,
4.941,-2.69,3.28,3.93,-0.99,0.32,0.03,
4.941,-2.69,3.28,3.93,-0.88,0.72,0.09,
4.944,-2.69,3.28,3.93,-0.72,1.26,0.16,
4.95,-2.69,3.28,3.93,-0.62,1.59,0.21,
4.951,-2.69,3.28,3.93,-0.57,1.74,0.23,
4.951,-2.69,3.28,3.93,-0.48,2.01,0.27,
4.968,-2.57,2.88,3.77,-0.48,2.01,0.27,
4.969,-2.57,2.88,3.77,-0.40,2.26,0.31,
4.969,-2.57,2.88,3.77,-0.30,2.58,0.36,
4.969,-2.57,2.88,3.77,-0.24,2.77,0.38,
4.97,-2.57,2.88,3.77,-0.21,2.85,0.39,
4.97,-2.57,2.88,3.77,-0.16,3.01,0.41,
4.97,-1.89,2.32,2.78,-0.16,3.01,0.41,
4.97,-1.89,2.32,2.78,-0.12,3.16,0.43,
4.97,-1.89,2.32,2.78,-0.07,3.44,0.46,
4.971,-1.89,2.32,2.78,-0.06,3.51,0.46,
4.971,-1.89,2.32,2.78,-0.05,3.58,0.47,
4.971,-1.89,2.32,2.78,-0.04,3.72,0.48,
4.971,-1.38,1.83,2.12,-0.04,3.72,0.48,
4.972,-1.38,1.83,2.12,-0.04,3.87,0.48,
4.977,-1.38,1.83,2.12,-0.04,4.11,0.49,
4.995,-1.38,1.83,2.12,-0.06,4.28,0.50,
4.996,-1.38,1.83,2.12,-0.07,4.37,0.50,
4.996,-1.38,1.83,2.12,-0.09,4.55,0.50,
