
time,ax,ay,az,wx,wy,wz,
0.002,-0.42,-0.45,-0.39,-0.07,-0.55,-0.10,
0.002,-0.42,-0.45,-0.39,-0.09,-0.59,-0.10,
0.002,-0.42,-0.45,-0.39,-0.12,-0.61,-0.09,
0.003,-0.42,-0.45,-0.39,-0.15,-0.64,-0.09,
0.003,-0.42,-0.45,-0.39,-0.18,-0.67,-0.09,
0.008,-0.42,-0.45,-0.39,-0.20,-0.70,-0.09,
0.009,-0.43,-0.50,-0.66,-0.20,-0.70,-0.09,
0.009,-0.43,-0.50,-0.66,-0.23,-0.72,-0.08,
0.009,-0.43,-0.50,-0.66,-0.26,-0.73,-0.08,
0.01,-0.43,-0.50,-0.66,-0.28,-0.74,-0.07,
0.01,-0.43,-0.50,-0.66,-0.31,-0.75,-0.07,
0.012,-0.43,-0.50,-0.66,-0.33,-0.76,-0.07,
0.023,-0.58,-0.53,-0.68,-0.33,-0.76,-0.07,
0.024,-0.58,-0.53,-0.68,-0.35,-0.77,-0.06,
0.024,-0.58,-0.53,-0.68,-0.37,-0.78,-0.06,
0.024,-0.58,-0.53,-0.68,-0.38,-0.78,-0.07,
0.024,-0.58,-0.53,-0.68,-0.40,-0.78,-0.07,
0.024,-0.58,-0.53,-0.68,-0.41,-0.78,-0.08,
0.031,-0.58,-0.57,-0.47,-0.41,-0.78,-0.08,
0.031,-0.58,-0.57,-0.47,-0.42,-0.78,-0.09,
0.031,-0.58,-0.57,-0.47,-0.43,-0.77,-0.11,
0.037,-0.58,-0.57,-0.47,-0.44,-0.76,-0.12,
0.038,-0.58,-0.57,-0.47,-0.45,-0.75,-0.14,
0.038,-0.58,-0.57,-0.47,-0.46,-0.74,-0.17,
0.038,-0.50,-0.66,-0.36,-0.46,-0.74,-0.17,
0.038,-0.50,-0.66,-0.36,-0.48,-0.72,-0.20,
0.038,-0.50,-0.66,-0.36,-0.49,-0.69,-0.23,
0.039,-0.50,-0.66,-0.36,-0.51,-0.66,-0.27,
0.04,-0.50,-0.66,-0.36,-0.54,-0.62,-0.31,
0.042,-0.50,-0.66,-0.36,-0.56,-0.59,-0.35,
0.045,-0.29,-0.79,-0.64,-0.56,-0.59,-0.35,
0.045,-0.29,-0.79,-0.64,-0.59,-0.55,-0.40,
0.046,-0.29,-0.79,-0.64,-0.63,-0.51,-0.44,
0.048,-0.29,-0.79,-0.64,-0.66,-0.48,-0.49,
0.051,-0.29,-0.79,-0.64,-0.71,-0.44,-0.54,
0.052,-0.29,-0.79,-0.64,-0.75,-0.40,-0.59,
0.056,-0.18,-0.77,-1.18,-0.75,-0.40,-0.59,
0.056,-0.18,-0.77,-1.18,-0.80,-0.35,-0.63,
0.056,-0.18,-0.77,-1.18,-0.84,-0.30,-0.66,
0.057,-0.18,-0.77,-1.18,-0.89,-0.24,-0.70,
0.06,-0.18,-0.77,-1.18,-0.93,-0.18,-0.72,
0.063,-0.18,-0.77,-1.18,-0.98,-0.11,-0.74,
0.064,-0.52,-0.52,-1.48,-0.98,-0.11,-0.74,
0.065,-0.52,-0.52,-1.48,-1.02,-0.04,-0.76,
0.068,-0.52,-0.52,-1.48,-1.06,0.03,-0.77,
0.068,-0.52,-0.52,-1.48,-1.10,0.10,-0.78,
0.074,-0.52,-0.52,-1.48,-1.13,0.17,-0.79,
0.074,-0.52,-0.52,-1.48,-1.17,0.25,-0.80,
0.074,-1.03,-0.32,-1.62,-1.17,0.25,-0.80,
0.074,-1.03,-0.32,-1.62,-1.20,0.34,-0.82,
0.076,-1.03,-0.32,-1.62,-1.22,0.43,-0.84,
0.077,-1.03,-0.32,-1.62,-1.25,0.53,-0.86,
0.08,-1.03,-0.32,-1.62,-1.27,0.63,-0.87,
0.083,-1.03,-0.32,-1.62,-1.29,0.72,-0.89,
0.087,-1.44,-0.33,-1.61,-1.29,0.72,-0.89,
0.087,-1.44,-0.33,-1.61,-1.30,0.81,-0.90,
0.087,-1.44,-0.33,-1.61,-1.32,0.88,-0.90,
0.088,-1.44,-0.33,-1.61,-1.33,0.94,-0.91,
0.09,-1.44,-0.33,-1.61,-1.35,0.99,-0.91,
0.092,-1.44,-0.33,-1.61,-1.36,1.05,-0.91,
0.095,-1.90,-0.52,-1.23,-1.36,1.05,-0.91,
0.095,-1.90,-0.52,-1.23,-1.37,1.09,-0.91,
0.096,-1.90,-0.52,-1.23,-1.38,1.14,-0.91,
0.105,-1.90,-0.52,-1.23,-1.39,1.18,-0.90,
0.105,-1.90,-0.52,-1.23,-1.40,1.19,-0.89,
0.106,-1.90,-0.52,-1.23,-1.40,1.18,-0.87,
0.106,-2.30,-0.70,-0.90,-1.40,1.18,-0.87,
0.106,-2.30,-0.70,-0.90,-1.41,1.16,-0.86,
0.106,-2.30,-0.70,-0.90,-1.42,1.12,-0.85,
0.108,-2.30,-0.70,-0.90,-1.42,1.08,-0.83,
0.113,-2.30,-0.70,-0.90,-1.43,1.02,-0.82,
0.113,-2.30,-0.70,-0.90,-1.42,0.95,-0.80,
0.15,-2.49,-1.07,-0.09,-1.42,0.95,-0.80,
0.15,-2.49,-1.07,-0.09,-1.41,0.88,-0.77,
0.15,-2.49,-1.07,-0.09,-1.39,0.81,-0.74,
0.151,-2.49,-1.07,-0.09,-1.37,0.76,-0.72,
0.17,-2.49,-1.07,-0.09,-1.34,0.72,-0.68,
0.17,-2.49,-1.07,-0.09,-1.31,0.68,-0.64,
0.171,-2.52,-1.00,0.32,-1.31,0.68,-0.64,
0.171,-2.52,-1.00,0.32,-1.27,0.65,-0.60,
0.171,-2.52,-1.00,0.32,-1.23,0.62,-0.55,
0.171,-2.52,-1.00,0.32,-1.18,0.58,-0.49,
0.172,-2.52,-1.00,0.32,-1.12,0.54,-0.44,
0.172,-2.52,-1.00,0.32,-1.06,0.50,-0.38,
0.172,-2.65,-0.89,0.98,-1.06,0.50,-0.38,
0.173,-2.65,-0.89,0.98,-1.00,0.45,-0.32,
0.173,-2.65,-0.89,0.98,-0.93,0.41,-0.26,
0.173,-2.65,-0.89,0.98,-0.86,0.37,-0.20,
0.173,-2.65,-0.89,0.98,-0.79,0.33,-0.14,
0.174,-2.65,-0.89,0.98,-0.72,0.28,-0.08,
0.174,-2.46,-0.84,1.48,-0.72,0.28,-0.08,
0.174,-2.46,-0.84,1.48,-0.64,0.24,-0.03,
0.175,-2.46,-0.84,1.48,-0.57,0.20,0.02,
0.175,-2.46,-0.84,1.48,-0.51,0.15,0.06,
0.175,-2.46,-0.84,1.48,-0.45,0.11,0.11,
0.175,-2.46,-0.84,1.48,-0.39,0.07,0.14,
0.176,-2.06,-0.92,1.34,-0.39,0.07,0.14,
0.176,-2.06,-0.92,1.34,-0.33,0.03,0.17,
0.176,-2.06,-0.92,1.34,-0.29,-0.03,0.20,
0.176,-2.06,-0.92,1.34,-0.26,-0.08,0.22,
0.177,-2.06,-0.92,1.34,-0.24,-0.14,0.24,
0.177,-2.06,-0.92,1.34,-0.22,-0.19,0.26,
0.177,-1.53,-0.95,0.50,-0.22,-0.19,0.26,
0.177,-1.53,-0.95,0.50,-0.21,-0.24,0.28,
0.178,-1.53,-0.95,0.50,-0.21,-0.28,0.30,
0.178,-1.53,-0.95,0.50,-0.22,-0.32,0.32,
0.178,-1.53,-0.95,0.50,-0.23,-0.33,0.32,
0.184,-1.53,-0.95,0.50,-0.24,-0.34,0.33,
0.184,-1.18,-1.02,-0.73,-0.24,-0.34,0.33,
0.184,-1.18,-1.02,-0.73,-0.27,-0.33,0.33,
0.184,-1.18,-1.02,-0.73,-0.29,-0.33,0.33,
0.185,-1.18,-1.02,-0.73,-0.32,-0.32,0.33,
0.185,-1.18,-1.02,-0.73,-0.34,-0.31,0.34,
0.185,-1.18,-1.02,-0.73,-0.37,-0.31,0.35,
0.186,-0.94,-0.82,-1.48,-0.37,-0.31,0.35,
0.186,-0.94,-0.82,-1.48,-0.38,-0.30,0.35,
0.188,-0.94,-0.82,-1.48,-0.40,-0.29,0.36,
0.19,-0.94,-0.82,-1.48,-0.41,-0.27,0.37,
0.19,-0.94,-0.82,-1.48,-0.41,-0.26,0.37,
0.192,-0.94,-0.82,-1.48,-0.41,-0.24,0.38,
0.196,-0.97,-0.71,-1.60,-0.41,-0.24,0.38,
0.196,-0.97,-0.71,-1.60,-0.42,-0.22,0.38,
0.196,-0.97,-0.71,-1.60,-0.42,-0.19,0.39,
0.199,-0.97,-0.71,-1.60,-0.42,-0.16,0.39,
0.201,-0.97,-0.71,-1.60,-0.42,-0.13,0.39,
0.202,-0.97,-0.71,-1.60,-0.43,-0.10,0.40,
0.204,-0.94,-0.80,-1.69,-0.43,-0.10,0.40,
0.205,-0.94,-0.80,-1.69,-0.43,-0.06,0.40,
0.205,-0.94,-0.80,-1.69,-0.43,-0.03,0.41,
0.208,-0.94,-0.80,-1.69,-0.44,0.01,0.41,
0.209,-0.94,-0.80,-1.69,-0.44,0.04,0.42,
0.213,-0.94,-0.80,-1.69,-0.44,0.07,0.43,
0.223,-1.10,-0.95,-1.75,-0.44,0.07,0.43,
0.224,-1.10,-0.95,-1.75,-0.44,0.11,0.44,
0.224,-1.10,-0.95,-1.75,-0.44,0.13,0.45,
0.224,-1.10,-0.95,-1.75,-0.45,0.16,0.46,
0.224,-1.10,-0.95,-1.75,-0.45,0.18,0.47,
0.224,-1.10,-0.95,-1.75,-0.46,0.19,0.47,
0.224,-1.06,-1.00,-1.64,-0.46,0.19,0.47,
0.225,-1.06,-1.00,-1.64,-0.46,0.21,0.48,
0.225,-1.06,-1.00,-1.64,-0.46,0.23,0.48,
0.228,-1.06,-1.00,-1.64,-0.47,0.24,0.48,
0.229,-1.06,-1.00,-1.64,-0.47,0.24,0.48,
0.231,-1.06,-1.00,-1.64,-0.48,0.24,0.48,
0.234,-0.93,-1.22,-1.41,-0.48,0.24,0.48,
0.234,-0.93,-1.22,-1.41,-0.49,0.23,0.48,
0.236,-0.93,-1.22,-1.41,-0.50,0.22,0.47,
0.241,-0.93,-1.22,-1.41,-0.51,0.20,0.47,
0.241,-0.93,-1.22,-1.41,-0.52,0.17,0.46,
0.242,-0.93,-1.22,-1.41,-0.53,0.15,0.45,
0.245,-0.61,-1.44,-1.21,-0.53,0.15,0.45,
0.245,-0.61,-1.44,-1.21,-0.55,0.12,0.43,
0.246,-0.61,-1.44,-1.21,-0.56,0.09,0.42,
0.256,-0.61,-1.44,-1.21,-0.58,0.06,0.40,
0.256,-0.61,-1.44,-1.21,-0.60,0.04,0.38,
0.257,-0.61,-1.44,-1.21,-0.61,0.02,0.36,
0.257,-0.09,-1.62,-1.52,-0.61,0.02,0.36,
0.257,-0.09,-1.62,-1.52,-0.62,0.01,0.34,
0.257,-0.09,-1.62,-1.52,-0.64,0.01,0.32,
0.257,-0.09,-1.62,-1.52,-0.66,0.01,0.30,
0.259,-0.09,-1.62,-1.52,-0.68,0.02,0.28,
0.261,-0.09,-1.62,-1.52,-0.70,0.02,0.26,
0.264,0.28,-1.45,-2.21,-0.70,0.02,0.26,
0.264,0.28,-1.45,-2.21,-0.72,0.03,0.25,
0.266,0.28,-1.45,-2.21,-0.74,0.04,0.23,
0.267,0.28,-1.45,-2.21,-0.77,0.04,0.22,
0.269,0.28,-1.45,-2.21,-0.79,0.05,0.20,
0.272,0.28,-1.45,-2.21,-0.82,0.05,0.19,
0.274,0.48,-1.29,-2.72,-0.82,0.05,0.19,
0.274,0.48,-1.29,-2.72,-0.85,0.06,0.17,
0.276,0.48,-1.29,-2.72,-0.88,0.06,0.16,
0.277,0.48,-1.29,-2.72,-0.91,0.06,0.14,
0.279,0.48,-1.29,-2.72,-0.94,0.07,0.13,
0.282,0.48,-1.29,-2.72,-0.97,0.08,0.11,
0.284,0.59,-1.03,-2.99,-0.97,0.08,0.11,
0.284,0.59,-1.03,-2.99,-1.00,0.08,0.10,
0.296,0.59,-1.03,-2.99,-1.03,0.09,0.08,
0.297,0.59,-1.03,-2.99,-1.06,0.09,0.07,
0.297,0.59,-1.03,-2.99,-1.09,0.09,0.05,
0.297,0.59,-1.03,-2.99,-1.12,0.08,0.03,
0.297,0.76,-0.86,-3.07,-1.12,0.08,0.03,
0.297,0.76,-0.86,-3.07,-1.15,0.07,0.01,
0.297,0.76,-0.86,-3.07,-1.17,0.06,-0.01,
0.306,0.76,-0.86,-3.07,-1.20,0.05,-0.03,
0.307,0.76,-0.86,-3.07,-1.22,0.04,-0.05,
0.307,0.76,-0.86,-3.07,-1.24,0.02,-0.08,
0.307,1.00,-0.72,-2.97,-1.24,0.02,-0.08,
0.307,1.00,-0.72,-2.97,-1.26,0.01,-0.10,
0.307,1.00,-0.72,-2.97,-1.28,-0.01,-0.12,
0.308,1.00,-0.72,-2.97,-1.29,-0.03,-0.15,
0.313,1.00,-0.72,-2.97,-1.30,-0.05,-0.18,
0.313,1.00,-0.72,-2.97,-1.31,-0.06,-0.21,
0.314,1.29,-0.82,-2.76,-1.31,-0.06,-0.21,
0.315,1.29,-0.82,-2.76,-1.32,-0.07,-0.24,
0.316,1.29,-0.82,-2.76,-1.33,-0.08,-0.26,
0.317,1.29,-0.82,-2.76,-1.34,-0.09,-0.29,
0.32,1.29,-0.82,-2.76,-1.34,-0.10,-0.31,
0.325,1.29,-0.82,-2.76,-1.35,-0.12,-0.32,
0.325,0.95,-0.80,-2.53,-1.35,-0.12,-0.32,
0.325,0.95,-0.80,-2.53,-1.36,-0.14,-0.33,
0.329,0.95,-0.80,-2.53,-1.36,-0.16,-0.34,
0.331,0.95,-0.80,-2.53,-1.37,-0.18,-0.34,
0.331,0.95,-0.80,-2.53,-1.37,-0.21,-0.34,
0.332,0.95,-0.80,-2.53,-1.38,-0.23,-0.33,
0.334,0.18,-0.78,-2.27,-1.38,-0.23,-0.33,
0.335,0.18,-0.78,-2.27,-1.39,-0.25,-0.32,
0.338,0.18,-0.78,-2.27,-1.40,-0.27,-0.30,
0.338,0.18,-0.78,-2.27,-1.42,-0.29,-0.28,
0.34,0.18,-0.78,-2.27,-1.43,-0.32,-0.25,
0.341,0.18,-0.78,-2.27,-1.45,-0.36,-0.22,
0.344,-0.52,-0.68,-1.90,-1.45,-0.36,-0.22,
0.344,-0.52,-0.68,-1.90,-1.47,-0.40,-0.20,
0.346,-0.52,-0.68,-1.90,-1.50,-0.45,-0.17,
0.351,-0.52,-0.68,-1.90,-1.53,-0.49,-0.14,
0.351,-0.52,-0.68,-1.90,-1.56,-0.53,-0.11,
0.352,-0.52,-0.68,-1.90,-1.59,-0.57,-0.08,
0.354,-0.69,-0.86,-1.43,-1.59,-0.57,-0.08,
0.354,-0.69,-0.86,-1.43,-1.62,-0.61,-0.05,
0.36,-0.69,-0.86,-1.43,-1.66,-0.65,-0.03,
0.361,-0.69,-0.86,-1.43,-1.69,-0.68,-0.00,
0.361,-0.69,-0.86,-1.43,-1.73,-0.71,0.02,
0.362,-0.69,-0.86,-1.43,-1.76,-0.74,0.04,
0.38,-0.36,-0.82,-1.25,-1.76,-0.74,0.04,
0.381,-0.36,-0.82,-1.25,-1.80,-0.77,0.06,
0.381,-0.36,-0.82,-1.25,-1.83,-0.78,0.07,
0.381,-0.36,-0.82,-1.25,-1.86,-0.77,0.09,
0.381,-0.36,-0.82,-1.25,-1.89,-0.77,0.10,
0.381,-0.36,-0.82,-1.25,-1.92,-0.77,0.12,
0.382,0.14,-0.67,-1.13,-1.92,-0.77,0.12,
0.382,0.14,-0.67,-1.13,-1.95,-0.78,0.13,
0.382,0.14,-0.67,-1.13,-1.98,-0.79,0.14,
0.382,0.14,-0.67,-1.13,-2.00,-0.80,0.15,
0.382,0.14,-0.67,-1.13,-2.03,-0.81,0.16,
0.382,0.14,-0.67,-1.13,-2.04,-0.81,0.16,
0.384,0.79,-0.48,-0.96,-2.04,-0.81,0.16,
0.384,0.79,-0.48,-0.96,-2.06,-0.81,0.17,
0.386,0.79,-0.48,-0.96,-2.08,-0.82,0.17,
0.387,0.79,-0.48,-0.96,-2.09,-0.81,0.16,
0.39,0.79,-0.48,-0.96,-2.10,-0.81,0.16,
0.391,0.79,-0.48,-0.96,-2.12,-0.81,0.15,
0.394,1.58,-0.22,-0.89,-2.12,-0.81,0.15,
0.394,1.58,-0.22,-0.89,-2.13,-0.80,0.13,
0.395,1.58,-0.22,-0.89,-2.14,-0.80,0.12,
0.397,1.58,-0.22,-0.89,-2.14,-0.79,0.10,
0.4,1.58,-0.22,-0.89,-2.15,-0.78,0.08,
0.402,1.58,-0.22,-0.89,-2.15,-0.78,0.05,
0.404,2.30,-0.19,-0.64,-2.15,-0.78,0.05,
0.404,2.30,-0.19,-0.64,-2.15,-0.78,0.03,
0.406,2.30,-0.19,-0.64,-2.16,-0.77,-0.00,
0.408,2.30,-0.19,-0.64,-2.16,-0.78,-0.04,
0.41,2.30,-0.19,-0.64,-2.16,-0.78,-0.07,
0.413,2.30,-0.19,-0.64,-2.15,-0.79,-0.10,
0.415,2.94,-0.35,-0.25,-2.15,-0.79,-0.10,
0.415,2.94,-0.35,-0.25,-2.15,-0.80,-0.14,
0.42,2.94,-0.35,-0.25,-2.15,-0.84,-0.25,
0.42,2.94,-0.35,-0.25,-2.15,-0.84,-0.25,
0.421,2.94,-0.35,-0.25,-2.15,-0.84,-0.25,
0.422,2.94,-0.35,-0.25,-2.14,-0.86,-0.30,
0.424,3.07,-0.53,-0.07,-2.14,-0.86,-0.30,
0.424,3.07,-0.53,-0.07,-2.14,-0.86,-0.31,
0.426,3.07,-0.53,-0.07,-2.14,-0.87,-0.35,
0.427,3.07,-0.53,-0.07,-2.14,-0.88,-0.37,
0.43,3.07,-0.53,-0.07,-2.14,-0.88,-0.39,
0.432,3.07,-0.53,-0.07,-2.15,-0.88,-0.41,
0.434,2.72,-0.83,0.12,-2.15,-0.88,-0.41,
0.434,2.72,-0.83,0.12,-2.16,-0.89,-0.42,
0.441,2.72,-0.83,0.12,-2.17,-0.90,-0.44,
0.441,2.72,-0.83,0.12,-2.19,-0.93,-0.45,
0.441,2.72,-0.83,0.12,-2.21,-0.97,-0.48,
0.441,2.72,-0.83,0.12,-2.24,-1.02,-0.50,
0.444,2.35,-1.30,0.77,-2.24,-1.02,-0.50,
0.445,2.35,-1.30,0.77,-2.28,-1.07,-0.52,
0.446,2.35,-1.30,0.77,-2.31,-1.11,-0.55,
0.448,2.35,-1.30,0.77,-2.36,-1.13,-0.58,
0.45,2.35,-1.30,0.77,-2.40,-1.14,-0.60,
0.452,2.35,-1.30,0.77,-2.45,-1.14,-0.63,
0.462,2.43,-1.76,0.80,-2.45,-1.14,-0.63,
0.463,2.43,-1.76,0.80,-2.49,-1.12,-0.65,
0.463,2.43,-1.76,0.80,-2.54,-1.09,-0.67,
0.463,2.43,-1.76,0.80,-2.59,-1.06,-0.68,
0.463,2.43,-1.76,0.80,-2.63,-1.02,-0.69,
0.463,2.43,-1.76,0.80,-2.68,-0.98,-0.70,
0.466,2.53,-1.67,0.58,-2.68,-0.98,-0.70,
0.466,2.53,-1.67,0.58,-2.72,-0.93,-0.70,
0.466,2.53,-1.67,0.58,-2.76,-0.88,-0.71,
0.467,2.53,-1.67,0.58,-2.80,-0.83,-0.71,
0.469,2.53,-1.67,0.58,-2.84,-0.78,-0.71,
0.471,2.53,-1.67,0.58,-2.88,-0.73,-0.72,
0.474,2.68,-1.07,0.69,-2.88,-0.73,-0.72,
0.474,2.68,-1.07,0.69,-2.91,-0.68,-0.73,
0.476,2.68,-1.07,0.69,-2.94,-0.65,-0.74,
0.477,2.68,-1.07,0.69,-2.97,-0.62,-0.75,
0.48,2.68,-1.07,0.69,-3.00,-0.60,-0.77,
0.481,2.68,-1.07,0.69,-3.02,-0.60,-0.79,
0.484,2.89,-0.44,1.35,-3.02,-0.60,-0.79,
0.485,2.89,-0.44,1.35,-3.04,-0.60,-0.81,
0.486,2.89,-0.44,1.35,-3.06,-0.59,-0.82,
0.487,2.89,-0.44,1.35,-3.07,-0.59,-0.84,
0.489,2.89,-0.44,1.35,-3.08,-0.58,-0.86,
0.492,2.89,-0.44,1.35,-3.08,-0.58,-0.87,
0.494,3.11,-0.21,2.32,-3.08,-0.58,-0.87,
0.494,3.11,-0.21,2.32,-3.07,-0.57,-0.89,
0.496,3.11,-0.21,2.32,-3.07,-0.57,-0.89,
0.498,3.11,-0.21,2.32,-3.05,-0.57,-0.90,
0.499,3.11,-0.21,2.32,-3.04,-0.58,-0.91,
0.501,3.11,-0.21,2.32,-3.02,-0.59,-0.91,
0.504,2.96,0.27,3.23,-3.02,-0.59,-0.91,
0.504,2.96,0.27,3.23,-2.99,-0.61,-0.91,
0.506,2.96,0.27,3.23,-2.96,-0.63,-0.90,
0.507,2.96,0.27,3.23,-2.92,-0.66,-0.90,
0.51,2.96,0.27,3.23,-2.88,-0.69,-0.89,
0.511,2.96,0.27,3.23,-2.85,-0.73,-0.88,
0.514,2.68,0.82,3.99,-2.85,-0.73,-0.88,
0.514,2.68,0.82,3.99,-2.81,-0.76,-0.87,
0.516,2.68,0.82,3.99,-2.77,-0.80,-0.86,
0.518,2.68,0.82,3.99,-2.70,-0.86,-0.83,
0.519,2.68,0.82,3.99,-2.68,-0.88,-0.83,
0.521,2.68,0.82,3.99,-2.64,-0.91,-0.81,
0.524,2.39,1.00,4.27,-2.64,-0.91,-0.81,
0.524,2.39,1.00,4.27,-2.61,-0.94,-0.79,
0.526,2.39,1.00,4.27,-2.57,-0.97,-0.77,
0.527,2.39,1.00,4.27,-2.53,-0.99,-0.75,
0.537,2.39,1.00,4.27,-2.50,-1.01,-0.73,
0.537,2.39,1.00,4.27,-2.46,-1.03,-0.71,
0.537,2.20,1.11,4.12,-2.46,-1.03,-0.71,
0.537,2.20,1.11,4.12,-2.43,-1.05,-0.69,
0.537,2.20,1.11,4.12,-2.39,-1.07,-0.67,
0.538,2.20,1.11,4.12,-2.37,-1.09,-0.66,
0.539,2.20,1.11,4.12,-2.36,-1.10,-0.65,
0.541,2.20,1.11,4.12,-2.34,-1.13,-0.64,
0.544,2.31,0.96,3.89,-2.34,-1.13,-0.64,
0.544,2.31,0.96,3.89,-2.32,-1.16,-0.64,
0.546,2.31,0.96,3.89,-2.31,-1.20,-0.64,
0.548,2.31,0.96,3.89,-2.29,-1.24,-0.64,
0.55,2.31,0.96,3.89,-2.28,-1.29,-0.64,
0.551,2.31,0.96,3.89,-2.27,-1.33,-0.65,
0.554,2.76,0.65,4.05,-2.27,-1.33,-0.65,
0.555,2.76,0.65,4.05,-2.27,-1.38,-0.66,
0.556,2.76,0.65,4.05,-2.26,-1.43,-0.68,
0.558,2.76,0.65,4.05,-2.26,-1.48,-0.70,
0.559,2.76,0.65,4.05,-2.26,-1.51,-0.72,
0.562,2.76,0.65,4.05,-2.26,-1.55,-0.75,
0.564,3.45,0.25,3.95,-2.26,-1.55,-0.75,
0.565,3.45,0.25,3.95,-2.27,-1.58,-0.77,
0.566,3.45,0.25,3.95,-2.27,-1.60,-0.81,
0.568,3.45,0.25,3.95,-2.28,-1.62,-0.84,
0.569,3.45,0.25,3.95,-2.28,-1.62,-0.87,
0.572,3.45,0.25,3.95,-2.29,-1.62,-0.91,
0.574,4.09,0.26,3.56,-2.29,-1.62,-0.91,
0.574,4.09,0.26,3.56,-2.30,-1.62,-0.94,
0.576,4.09,0.26,3.56,-2.30,-1.61,-0.98,
0.578,4.09,0.26,3.56,-2.31,-1.59,-1.01,
0.579,4.09,0.26,3.56,-2.31,-1.56,-1.05,
0.582,4.09,0.26,3.56,-2.32,-1.53,-1.08,
0.584,4.02,0.27,3.29,-2.32,-1.53,-1.08,
0.585,4.02,0.27,3.29,-2.32,-1.51,-1.10,
0.586,4.02,0.27,3.29,-2.32,-1.49,-1.13,
0.589,4.02,0.27,3.29,-2.33,-1.47,-1.16,
0.59,4.02,0.27,3.29,-2.33,-1.46,-1.19,
0.592,4.02,0.27,3.29,-2.34,-1.45,-1.21,
0.594,3.74,0.08,3.37,-2.34,-1.45,-1.21,
0.594,3.74,0.08,3.37,-2.35,-1.43,-1.24,
0.6,3.74,0.08,3.37,-2.35,-1.42,-1.27,
0.6,3.74,0.08,3.37,-2.36,-1.40,-1.30,
0.601,3.74,0.08,3.37,-2.36,-1.37,-1.33,
0.601,3.74,0.08,3.37,-2.36,-1.35,-1.36,
0.604,3.60,0.08,3.49,-2.36,-1.35,-1.36,
0.605,3.60,0.08,3.49,-2.36,-1.31,-1.39,
0.606,3.60,0.08,3.49,-2.36,-1.28,-1.43,
0.607,3.60,0.08,3.49,-2.35,-1.24,-1.47,
0.61,3.60,0.08,3.49,-2.33,-1.21,-1.50,
0.612,3.60,0.08,3.49,-2.31,-1.18,-1.54,
0.614,3.39,0.73,4.40,-2.31,-1.18,-1.54,
0.614,3.39,0.73,4.40,-2.29,-1.15,-1.57,
0.616,3.39,0.73,4.40,-2.26,-1.12,-1.61,
0.618,3.39,0.73,4.40,-2.22,-1.09,-1.64,
0.631,3.39,0.73,4.40,-2.18,-1.07,-1.66,
0.631,3.39,0.73,4.40,-2.14,-1.05,-1.69,
0.632,2.71,1.24,5.35,-2.14,-1.05,-1.69,
0.632,2.71,1.24,5.35,-2.09,-1.04,-1.71,
0.632,2.71,1.24,5.35,-2.03,-1.02,-1.73,
0.632,2.71,1.24,5.35,-1.98,-1.01,-1.74,
0.632,2.71,1.24,5.35,-1.92,-1.00,-1.75,
0.632,2.71,1.24,5.35,-1.85,-1.00,-1.76,
0.638,1.96,1.67,6.23,-1.85,-1.00,-1.76,
0.638,1.96,1.67,6.23,-1.79,-0.99,-1.77,
0.639,1.96,1.67,6.23,-1.72,-0.98,-1.77,
0.639,1.96,1.67,6.23,-1.65,-0.98,-1.77,
0.642,1.96,1.67,6.23,-1.58,-0.98,-1.77,
0.642,1.96,1.67,6.23,-1.50,-0.98,-1.76,
0.644,1.19,1.91,6.45,-1.50,-0.98,-1.76,
0.661,1.19,1.91,6.45,-1.44,-0.99,-1.75,
0.662,1.19,1.91,6.45,-1.37,-1.00,-1.74,
0.662,1.19,1.91,6.45,-1.30,-1.01,-1.73,
0.662,1.19,1.91,6.45,-1.24,-1.03,-1.71,
0.662,1.19,1.91,6.45,-1.18,-1.06,-1.69,
0.662,0.50,1.92,6.48,-1.18,-1.06,-1.69,
0.662,0.50,1.92,6.48,-1.12,-1.09,-1.67,
0.663,0.50,1.92,6.48,-1.07,-1.13,-1.65,
0.663,0.50,1.92,6.48,-1.03,-1.18,-1.63,
0.663,0.50,1.92,6.48,-0.98,-1.23,-1.60,
0.663,0.50,1.92,6.48,-0.94,-1.29,-1.58,
0.664,0.08,1.52,6.12,-0.94,-1.29,-1.58,
0.665,0.08,1.52,6.12,-0.91,-1.36,-1.56,
0.666,0.08,1.52,6.12,-0.89,-1.45,-1.54,
0.668,0.08,1.52,6.12,-0.87,-1.55,-1.52,
0.669,0.08,1.52,6.12,-0.84,-1.64,-1.50,
0.671,0.08,1.52,6.12,-0.83,-1.73,-1.49,
0.674,0.03,0.87,5.42,-0.83,-1.73,-1.49,
0.674,0.03,0.87,5.42,-0.82,-1.82,-1.47,
0.676,0.03,0.87,5.42,-0.82,-1.90,-1.45,
0.678,0.03,0.87,5.42,-0.81,-1.98,-1.44,
0.679,0.03,0.87,5.42,-0.81,-2.04,-1.42,
0.682,0.03,0.87,5.42,-0.81,-2.10,-1.39,
0.684,0.04,0.38,4.34,-0.81,-2.10,-1.39,
0.684,0.04,0.38,4.34,-0.81,-2.14,-1.37,
0.686,0.04,0.38,4.34,-0.80,-2.17,-1.35,
0.687,0.04,0.38,4.34,-0.80,-2.20,-1.32,
0.689,0.04,0.38,4.34,-0.80,-2.22,-1.30,
0.692,0.04,0.38,4.34,-0.80,-2.24,-1.27,
0.694,-0.06,0.13,3.63,-0.80,-2.24,-1.27,
0.694,-0.06,0.13,3.63,-0.80,-2.25,-1.25,
0.696,-0.06,0.13,3.63,-0.80,-2.25,-1.23,
0.701,-0.06,0.13,3.63,-0.80,-2.24,-1.21,
0.701,-0.06,0.13,3.63,-0.80,-2.24,-1.19,
0.702,-0.06,0.13,3.63,-0.80,-2.23,-1.18,
0.704,0.11,0.02,2.97,-0.80,-2.23,-1.18,
0.704,0.11,0.02,2.97,-0.80,-2.24,-1.17,
0.706,0.11,0.02,2.97,-0.81,-2.24,-1.17,
0.708,0.11,0.02,2.97,-0.81,-2.23,-1.17,
0.71,0.11,0.02,2.97,-0.81,-2.20,-1.17,
0.712,0.11,0.02,2.97,-0.81,-2.17,-1.17,
0.715,0.06,-0.14,2.79,-0.81,-2.17,-1.17,
0.715,0.06,-0.14,2.79,-0.81,-2.14,-1.16,
0.716,0.06,-0.14,2.79,-0.81,-2.12,-1.16,
0.718,0.06,-0.14,2.79,-0.80,-2.08,-1.16,
0.721,0.06,-0.14,2.79,-0.80,-2.07,-1.17,
0.723,0.06,-0.14,2.79,-0.79,-2.05,-1.18,
0.725,0.08,-0.44,2.67,-0.79,-2.05,-1.18,
0.725,0.08,-0.44,2.67,-0.78,-2.03,-1.19,
0.726,0.08,-0.44,2.67,-0.77,-2.01,-1.21,
0.728,0.08,-0.44,2.67,-0.75,-2.00,-1.23,
0.73,0.08,-0.44,2.67,-0.74,-1.99,-1.25,
0.731,0.08,-0.44,2.67,-0.72,-1.97,-1.28,
0.734,-0.00,-0.25,2.96,-0.72,-1.97,-1.28,
0.734,-0.00,-0.25,2.96,-0.70,-1.96,-1.30,
0.736,-0.00,-0.25,2.96,-0.67,-1.94,-1.33,
0.738,-0.00,-0.25,2.96,-0.65,-1.92,-1.35,
0.74,-0.00,-0.25,2.96,-0.63,-1.90,-1.37,
0.742,-0.00,-0.25,2.96,-0.61,-1.88,-1.38,
0.745,-0.31,-0.12,3.05,-0.61,-1.88,-1.38,
0.747,-0.31,-0.12,3.05,-0.58,-1.85,-1.39,
0.75,-0.31,-0.12,3.05,-0.55,-1.82,-1.40,
0.75,-0.31,-0.12,3.05,-0.52,-1.79,-1.41,
0.751,-0.31,-0.12,3.05,-0.49,-1.75,-1.41,
0.753,-0.31,-0.12,3.05,-0.46,-1.72,-1.41,
0.754,-0.92,0.35,3.12,-0.46,-1.72,-1.41,
0.754,-0.92,0.35,3.12,-0.42,-1.68,-1.41,
0.756,-0.92,0.35,3.12,-0.38,-1.64,-1.40,
0.758,-0.92,0.35,3.12,-0.34,-1.61,-1.39,
0.76,-0.92,0.35,3.12,-0.30,-1.57,-1.37,
0.764,-0.92,0.35,3.12,-0.26,-1.54,-1.36,
0.766,-1.69,0.66,3.17,-0.26,-1.54,-1.36,
0.767,-1.69,0.66,3.17,-0.22,-1.51,-1.34,
0.767,-1.69,0.66,3.17,-0.18,-1.49,-1.32,
0.768,-1.69,0.66,3.17,-0.13,-1.48,-1.30,
0.77,-1.69,0.66,3.17,-0.11,-1.48,-1.29,
0.772,-1.69,0.66,3.17,-0.07,-1.50,-1.28,
0.775,-2.20,0.56,3.31,-0.07,-1.50,-1.28,
0.775,-2.20,0.56,3.31,-0.05,-1.52,-1.28,
0.776,-2.20,0.56,3.31,-0.02,-1.55,-1.27,
0.792,-2.20,0.56,3.31,-0.00,-1.59,-1.26,
0.793,-2.20,0.56,3.31,0.01,-1.65,-1.26,
0.793,-2.20,0.56,3.31,0.02,-1.72,-1.25,
0.793,-2.18,-0.18,3.08,0.02,-1.72,-1.25,
0.794,-2.18,-0.18,3.08,0.02,-1.80,-1.25,
0.82,-2.18,-0.18,3.08,0.02,-1.88,-1.25,
0.82,-2.18,-0.18,3.08,0.00,-1.95,-1.25,
0.821,-2.18,-0.18,3.08,-0.01,-2.01,-1.25,
0.821,-2.18,-0.18,3.08,-0.03,-2.06,-1.24,
0.822,-2.01,-0.67,2.12,-0.03,-2.06,-1.24,
0.822,-2.01,-0.67,2.12,-0.05,-2.11,-1.24,
0.822,-2.01,-0.67,2.12,-0.09,-2.16,-1.24,
0.823,-2.01,-0.67,2.12,-0.11,-2.17,-1.23,
0.823,-2.01,-0.67,2.12,-0.13,-2.17,-1.22,
0.824,-2.01,-0.67,2.12,-0.15,-2.16,-1.21,
0.824,-1.94,-0.37,0.85,-0.15,-2.16,-1.21,
0.825,-1.94,-0.37,0.85,-0.17,-2.14,-1.18,
0.825,-1.94,-0.37,0.85,-0.21,-2.11,-1.16,
0.825,-1.94,-0.37,0.85,-0.25,-2.06,-1.11,
0.826,-1.94,-0.37,0.85,-0.27,-2.04,-1.09,
0.826,-1.94,-0.37,0.85,-0.30,-2.01,-1.06,
0.827,-1.97,0.38,0.30,-0.30,-2.01,-1.06,
0.827,-1.97,0.38,0.30,-0.34,-1.96,-1.01,
0.828,-1.97,0.38,0.30,-0.36,-1.93,-0.98,
0.828,-1.97,0.38,0.30,-0.38,-1.90,-0.95,
0.828,-1.97,0.38,0.30,-0.39,-1.89,-0.94,
0.829,-1.97,0.38,0.30,-0.40,-1.87,-0.91,
0.837,-1.74,1.20,0.45,-0.40,-1.87,-0.91,
0.838,-1.74,1.20,0.45,-0.41,-1.85,-0.89,
0.838,-1.74,1.20,0.45,-0.41,-1.84,-0.87,
0.839,-1.74,1.20,0.45,-0.41,-1.83,-0.86,
0.839,-1.74,1.20,0.45,-0.41,-1.83,-0.85,
0.84,-1.74,1.20,0.45,-0.40,-1.82,-0.84,
0.84,-1.46,1.42,1.13,-0.40,-1.82,-0.84,
0.84,-1.46,1.42,1.13,-0.38,-1.82,-0.83,
0.841,-1.46,1.42,1.13,-0.36,-1.80,-0.82,
0.841,-1.46,1.42,1.13,-0.33,-1.79,-0.82,
0.841,-1.46,1.42,1.13,-0.32,-1.77,-0.82,
0.842,-1.46,1.42,1.13,-0.29,-1.74,-0.81,
0.848,-1.14,1.58,1.62,-0.29,-1.74,-0.81,
0.848,-1.14,1.58,1.62,-0.23,-1.69,-0.80,
0.848,-1.14,1.58,1.62,-0.21,-1.65,-0.80,
0.849,-1.14,1.58,1.62,-0.17,-1.60,-0.79,
0.85,-1.14,1.58,1.62,-0.13,-1.55,-0.78,
0.852,-1.14,1.58,1.62,-0.09,-1.50,-0.78,
0.856,-1.20,2.02,1.71,-0.09,-1.50,-0.78,
0.856,-1.20,2.02,1.71,-0.06,-1.45,-0.76,
0.877,-1.20,2.02,1.71,-0.02,-1.39,-0.75,
0.878,-1.20,2.02,1.71,0.02,-1.35,-0.73,
0.878,-1.20,2.02,1.71,0.06,-1.32,-0.72,
0.879,-1.20,2.02,1.71,0.11,-1.30,-0.70,
0.879,-1.56,2.03,2.08,0.11,-1.30,-0.70,
0.879,-1.56,2.03,2.08,0.15,-1.29,-0.69,
0.879,-1.56,2.03,2.08,0.19,-1.30,-0.68,
0.879,-1.56,2.03,2.08,0.22,-1.32,-0.67,
0.88,-1.56,2.03,2.08,0.26,-1.34,-0.67,
0.88,-1.56,2.03,2.08,0.30,-1.37,-0.66,
0.88,-1.23,1.64,2.64,0.30,-1.37,-0.66,
0.881,-1.23,1.64,2.64,0.33,-1.41,-0.66,
0.882,-1.23,1.64,2.64,0.35,-1.45,-0.65,
0.882,-1.23,1.64,2.64,0.38,-1.49,-0.64,
0.882,-1.23,1.64,2.64,0.41,-1.54,-0.63,
0.882,-1.23,1.64,2.64,0.43,-1.58,-0.61,
0.888,-1.10,1.12,2.04,0.43,-1.58,-0.61,
0.888,-1.10,1.12,2.04,0.45,-1.62,-0.60,
0.89,-1.10,1.12,2.04,0.46,-1.65,-0.57,
0.891,-1.10,1.12,2.04,0.47,-1.69,-0.54,
0.892,-1.10,1.12,2.04,0.48,-1.72,-0.51,
0.894,-1.10,1.12,2.04,0.48,-1.74,-0.48,
0.896,-1.15,0.69,1.02,0.48,-1.74,-0.48,
0.897,-1.15,0.69,1.02,0.47,-1.76,-0.45,
0.897,-1.15,0.69,1.02,0.47,-1.78,-0.41,
0.903,-1.15,0.69,1.02,0.46,-1.79,-0.38,
0.905,-1.15,0.69,1.02,0.43,-1.80,-0.35,
0.906,-1.15,0.69,1.02,0.40,-1.82,-0.31,
0.906,-0.80,0.14,-0.31,0.40,-1.82,-0.31,
0.906,-0.80,0.14,-0.31,0.37,-1.83,-0.28,
0.906,-0.80,0.14,-0.31,0.32,-1.84,-0.25,
0.908,-0.80,0.14,-0.31,0.26,-1.85,-0.22,
0.911,-0.80,0.14,-0.31,0.20,-1.85,-0.19,
0.912,-0.80,0.14,-0.31,0.13,-1.85,-0.17,
0.915,-0.34,-0.58,-2.06,0.13,-1.85,-0.17,
0.915,-0.34,-0.58,-2.06,0.06,-1.85,-0.14,
0.916,-0.34,-0.58,-2.06,-0.01,-1.84,-0.12,
0.918,-0.34,-0.58,-2.06,-0.08,-1.83,-0.11,
0.92,-0.34,-0.58,-2.06,-0.14,-1.82,-0.09,
0.921,-0.34,-0.58,-2.06,-0.20,-1.80,-0.08,
0.925,-0.02,-0.88,-2.68,-0.20,-1.80,-0.08,
0.925,-0.02,-0.88,-2.68,-0.26,-1.77,-0.08,
0.926,-0.02,-0.88,-2.68,-0.31,-1.74,-0.08,
0.931,-0.02,-0.88,-2.68,-0.36,-1.71,-0.08,
0.932,-0.02,-0.88,-2.68,-0.41,-1.67,-0.08,
0.933,-0.02,-0.88,-2.68,-0.45,-1.62,-0.09,
0.934,0.11,-0.94,-2.56,-0.45,-1.62,-0.09,
0.934,0.11,-0.94,-2.56,-0.49,-1.59,-0.10,
0.937,0.11,-0.94,-2.56,-0.53,-1.55,-0.12,
0.938,0.11,-0.94,-2.56,-0.56,-1.51,-0.14,
0.94,0.11,-0.94,-2.56,-0.59,-1.45,-0.15,
0.943,0.11,-0.94,-2.56,-0.61,-1.40,-0.17,
0.959,0.26,-0.57,-1.82,-0.61,-1.40,-0.17,
0.959,0.26,-0.57,-1.82,-0.61,-1.35,-0.19,
0.96,0.26,-0.57,-1.82,-0.61,-1.30,-0.20,
0.96,0.26,-0.57,-1.82,-0.59,-1.25,-0.22,
0.96,0.26,-0.57,-1.82,-0.56,-1.19,-0.24,
0.96,0.26,-0.57,-1.82,-0.52,-1.13,-0.25,
0.979,0.21,0.43,0.27,-0.52,-1.13,-0.25,
0.979,0.21,0.43,0.27,-0.47,-1.08,-0.26,
0.979,0.21,0.43,0.27,-0.42,-1.03,-0.27,
0.98,0.21,0.43,0.27,-0.35,-0.99,-0.28,
0.98,0.21,0.43,0.27,-0.28,-0.95,-0.29,
0.98,0.21,0.43,0.27,-0.20,-0.92,-0.29,
0.981,-0.47,1.33,2.02,-0.20,-0.92,-0.29,
0.982,-0.47,1.33,2.02,-0.12,-0.89,-0.30,
0.982,-0.47,1.33,2.02,-0.03,-0.85,-0.30,
0.982,-0.47,1.33,2.02,0.05,-0.82,-0.29,
0.983,-0.47,1.33,2.02,0.13,-0.79,-0.29,
0.983,-0.47,1.33,2.02,0.20,-0.77,-0.28,
0.983,-0.99,1.56,2.71,0.20,-0.77,-0.28,
0.983,-0.99,1.56,2.71,0.27,-0.75,-0.27,
0.984,-0.99,1.56,2.71,0.34,-0.74,-0.26,
0.984,-0.99,1.56,2.71,0.39,-0.74,-0.24,
0.984,-0.99,1.56,2.71,0.44,-0.74,-0.22,
0.984,-0.99,1.56,2.71,0.48,-0.74,-0.20,
0.989,-1.44,1.11,2.04,0.48,-0.74,-0.20,
0.989,-1.44,1.11,2.04,0.51,-0.74,-0.18,
0.99,-1.44,1.11,2.04,0.54,-0.74,-0.16,
0.99,-1.44,1.11,2.04,0.57,-0.75,-0.14,
0.993,-1.44,1.11,2.04,0.59,-0.76,-0.12,
0.994,-1.44,1.11,2.04,0.60,-0.76,-0.10,
0.995,-1.61,0.40,1.04,0.60,-0.76,-0.10,
0.996,-1.61,0.40,1.04,0.60,-0.77,-0.09,
0.996,-1.61,0.40,1.04,0.60,-0.80,-0.07,
1.0,-1.61,0.40,1.04,0.59,-0.83,-0.06,
1.0,-1.61,0.40,1.04,0.58,-0.85,-0.05,
1.002,-1.61,0.40,1.04,0.57,-0.86,-0.04,
1.004,-1.49,-0.03,-0.04,0.57,-0.86,-0.04,
1.005,-1.49,-0.03,-0.04,0.55,-0.85,-0.04,
1.007,-1.49,-0.03,-0.04,0.53,-0.84,-0.03,
1.008,-1.49,-0.03,-0.04,0.51,-0.83,-0.02,
1.011,-1.49,-0.03,-0.04,0.47,-0.80,-0.01,
1.012,-1.49,-0.03,-0.04,0.44,-0.76,0.01,
1.016,-1.67,-0.48,-1.08,0.44,-0.76,0.01,
1.016,-1.67,-0.48,-1.08,0.41,-0.72,0.03,
1.017,-1.67,-0.48,-1.08,0.37,-0.69,0.05,
1.018,-1.67,-0.48,-1.08,0.33,-0.65,0.07,
1.019,-1.67,-0.48,-1.08,0.29,-0.62,0.09,
1.021,-1.67,-0.48,-1.08,0.25,-0.57,0.10,
1.024,-1.97,-0.56,-1.79,0.25,-0.57,0.10,
1.024,-1.97,-0.56,-1.79,0.22,-0.53,0.13,
1.027,-1.97,-0.56,-1.79,0.18,-0.48,0.15,
1.028,-1.97,-0.56,-1.79,0.14,-0.42,0.17,
1.031,-1.97,-0.56,-1.79,0.09,-0.35,0.20,
1.032,-1.97,-0.56,-1.79,0.05,-0.27,0.22,
1.034,-2.57,-0.57,-2.26,0.05,-0.27,0.22,
1.035,-2.57,-0.57,-2.26,0.01,-0.19,0.24,
1.036,-2.57,-0.57,-2.26,-0.04,-0.09,0.26,
1.037,-2.57,-0.57,-2.26,-0.08,0.01,0.28,
1.039,-2.57,-0.57,-2.26,-0.13,0.11,0.30,
1.041,-2.57,-0.57,-2.26,-0.17,0.23,0.31,
1.044,-3.17,-0.38,-2.47,-0.17,0.23,0.31,
1.044,-3.17,-0.38,-2.47,-0.20,0.34,0.33,
1.046,-3.17,-0.38,-2.47,-0.23,0.46,0.35,
1.048,-3.17,-0.38,-2.47,-0.26,0.58,0.36,
1.049,-3.17,-0.38,-2.47,-0.28,0.71,0.38,
1.051,-3.17,-0.38,-2.47,-0.28,0.82,0.39,
1.054,-3.44,-0.08,-1.80,-0.28,0.82,0.39,
1.054,-3.44,-0.08,-1.80,-0.28,0.94,0.40,
1.056,-3.44,-0.08,-1.80,-0.28,1.05,0.41,
1.057,-3.44,-0.08,-1.80,-0.26,1.15,0.41,
1.062,-3.44,-0.08,-1.80,-0.24,1.25,0.41,
1.063,-3.44,-0.08,-1.80,-0.21,1.34,0.42,
1.064,-3.12,0.64,-0.21,-0.21,1.34,0.42,
1.064,-3.12,0.64,-0.21,-0.17,1.42,0.43,
1.066,-3.12,0.64,-0.21,-0.13,1.49,0.44,
1.07,-3.12,0.64,-0.21,-0.08,1.56,0.45,
1.07,-3.12,0.64,-0.21,-0.03,1.61,0.46,
1.071,-3.12,0.64,-0.21,0.02,1.65,0.48,
1.074,-3.23,1.22,1.35,0.02,1.65,0.48,
1.074,-3.23,1.22,1.35,0.07,1.69,0.50,
1.087,-3.23,1.22,1.35,0.12,1.72,0.53,
1.087,-3.23,1.22,1.35,0.17,1.74,0.56,
1.088,-3.23,1.22,1.35,0.21,1.74,0.60,
1.088,-3.23,1.22,1.35,0.24,1.72,0.63,
1.088,-3.26,1.64,1.91,0.24,1.72,0.63,
1.088,-3.26,1.64,1.91,0.27,1.68,0.67,
1.088,-3.26,1.64,1.91,0.29,1.62,0.71,
1.088,-3.26,1.64,1.91,0.30,1.55,0.75,
1.09,-3.26,1.64,1.91,0.31,1.46,0.80,
1.092,-3.26,1.64,1.91,0.31,1.37,0.85,
1.094,-3.29,1.48,1.98,0.31,1.37,0.85,
1.094,-3.29,1.48,1.98,0.31,1.26,0.91,
1.096,-3.29,1.48,1.98,0.31,1.15,0.97,
1.098,-3.29,1.48,1.98,0.30,1.03,1.03,
1.1,-3.29,1.48,1.98,0.30,0.91,1.09,
1.102,-3.29,1.48,1.98,0.29,0.78,1.16,
1.104,-3.18,0.92,1.31,0.29,0.78,1.16,
1.104,-3.18,0.92,1.31,0.28,0.64,1.23,
1.106,-3.18,0.92,1.31,0.27,0.50,1.30,
1.107,-3.18,0.92,1.31,0.25,0.37,1.37,
1.11,-3.18,0.92,1.31,0.24,0.24,1.44,
1.112,-3.18,0.92,1.31,0.23,0.12,1.50,
1.115,-2.90,0.47,0.59,0.23,0.12,1.50,
1.115,-2.90,0.47,0.59,0.22,0.01,1.57,
1.117,-2.90,0.47,0.59,0.21,-0.10,1.63,
1.118,-2.90,0.47,0.59,0.20,-0.20,1.68,
1.143,-2.90,0.47,0.59,0.20,-0.30,1.73,
1.144,-2.90,0.47,0.59,0.20,-0.39,1.78,
1.144,-2.03,-0.15,0.16,0.20,-0.39,1.78,
1.145,-2.03,-0.15,0.16,0.20,-0.47,1.81,
1.145,-2.03,-0.15,0.16,0.20,-0.54,1.85,
1.146,-2.03,-0.15,0.16,0.20,-0.61,1.87,
1.146,-2.03,-0.15,0.16,0.20,-0.68,1.89,
1.146,-2.03,-0.15,0.16,0.21,-0.74,1.90,
1.147,-0.96,-0.94,-0.33,0.21,-0.74,1.90,
1.147,-0.96,-0.94,-0.33,0.22,-0.80,1.91,
1.148,-0.96,-0.94,-0.33,0.23,-0.86,1.91,
1.148,-0.96,-0.94,-0.33,0.24,-0.92,1.91,
1.148,-0.96,-0.94,-0.33,0.26,-0.98,1.91,
1.149,-0.96,-0.94,-0.33,0.29,-1.03,1.91,
1.149,-0.52,-1.15,-0.41,0.29,-1.03,1.91,
1.15,-0.52,-1.15,-0.41,0.31,-1.06,1.90,
1.15,-0.52,-1.15,-0.41,0.34,-1.09,1.90,
1.15,-0.52,-1.15,-0.41,0.36,-1.10,1.91,
1.151,-0.52,-1.15,-0.41,0.38,-1.09,1.91,
1.151,-0.52,-1.15,-0.41,0.41,-1.07,1.93,
1.159,-1.39,-0.78,-0.81,0.41,-1.07,1.93,
1.16,-1.39,-0.78,-0.81,0.43,-1.03,1.95,
1.16,-1.39,-0.78,-0.81,0.45,-0.97,1.98,
1.16,-1.39,-0.78,-0.81,0.47,-0.92,2.01,
1.161,-1.39,-0.78,-0.81,0.49,-0.85,2.05,
1.163,-1.39,-0.78,-0.81,0.51,-0.78,2.09,
1.164,-2.73,-0.48,-1.27,0.51,-0.78,2.09,
1.164,-2.73,-0.48,-1.27,0.52,-0.70,2.14,
1.165,-2.73,-0.48,-1.27,0.53,-0.61,2.20,
1.167,-2.73,-0.48,-1.27,0.54,-0.51,2.26,
1.169,-2.73,-0.48,-1.27,0.56,-0.39,2.33,
1.171,-2.73,-0.48,-1.27,0.57,-0.27,2.39,
1.174,-3.67,-0.25,-1.90,0.57,-0.27,2.39,
1.174,-3.67,-0.25,-1.90,0.57,-0.13,2.45,
1.176,-3.67,-0.25,-1.90,0.58,0.04,2.51,
1.179,-3.67,-0.25,-1.90,0.60,0.22,2.57,
1.18,-3.67,-0.25,-1.90,0.60,0.40,2.62,
1.181,-3.67,-0.25,-1.90,0.59,0.58,2.67,
1.184,-2.84,-0.61,-2.78,0.59,0.58,2.67,
1.184,-2.84,-0.61,-2.78,0.58,0.74,2.71,
1.186,-2.84,-0.61,-2.78,0.55,0.89,2.73,
1.188,-2.84,-0.61,-2.78,0.50,1.04,2.75,
1.19,-2.84,-0.61,-2.78,0.44,1.18,2.74,
1.194,-2.84,-0.61,-2.78,0.37,1.32,2.72,
1.194,-0.34,-1.87,-4.45,0.37,1.32,2.72,
1.195,-0.34,-1.87,-4.45,0.28,1.45,2.68,
1.196,-0.34,-1.87,-4.45,0.19,1.56,2.63,
1.198,-0.34,-1.87,-4.45,0.09,1.66,2.57,
1.2,-0.34,-1.87,-4.45,-0.01,1.74,2.49,
1.202,-0.34,-1.87,-4.45,-0.11,1.81,2.40,
1.204,2.87,-2.66,-5.30,-0.11,1.81,2.40,
1.205,2.87,-2.66,-5.30,-0.22,1.87,2.30,
1.206,2.87,-2.66,-5.30,-0.34,1.92,2.20,
1.208,2.87,-2.66,-5.30,-0.45,1.96,2.09,
1.221,2.87,-2.66,-5.30,-0.56,1.97,1.98,
1.221,2.87,-2.66,-5.30,-0.67,1.97,1.87,
1.221,4.79,-2.78,-5.36,-0.67,1.97,1.87,
1.222,4.79,-2.78,-5.36,-0.78,1.95,1.75,
1.222,4.79,-2.78,-5.36,-0.88,1.92,1.63,
1.222,4.79,-2.78,-5.36,-0.98,1.88,1.51,
1.222,4.79,-2.78,-5.36,-1.07,1.84,1.40,
1.223,4.79,-2.78,-5.36,-1.16,1.79,1.29,
1.224,5.05,-2.37,-3.90,-1.16,1.79,1.29,
1.224,5.05,-2.37,-3.90,-1.23,1.74,1.19,
1.263,5.05,-2.37,-3.90,-1.30,1.67,1.10,
1.264,5.05,-2.37,-3.90,-1.36,1.60,1.01,
1.264,5.05,-2.37,-3.90,-1.40,1.53,0.95,
1.264,5.05,-2.37,-3.90,-1.44,1.46,0.90,
1.264,3.51,-1.66,-1.67,-1.44,1.46,0.90,
1.265,3.51,-1.66,-1.67,-1.46,1.40,0.86,
1.265,3.51,-1.66,-1.67,-1.46,1.35,0.85,
1.265,3.51,-1.66,-1.67,-1.46,1.32,0.85,
1.265,3.51,-1.66,-1.67,-1.43,1.30,0.87,
1.265,3.51,-1.66,-1.67,-1.40,1.31,0.91,
1.266,1.04,-0.61,0.33,-1.40,1.31,0.91,
1.266,1.04,-0.61,0.33,-1.35,1.35,0.97,
1.266,1.04,-0.61,0.33,-1.28,1.41,1.04,
1.266,1.04,-0.61,0.33,-1.20,1.49,1.12,
1.266,1.04,-0.61,0.33,-1.11,1.57,1.21,
1.266,1.04,-0.61,0.33,-1.01,1.67,1.29,
1.267,-0.68,0.44,2.03,-1.01,1.67,1.29,
1.267,-0.68,0.44,2.03,-0.89,1.77,1.38,
1.267,-0.68,0.44,2.03,-0.78,1.86,1.47,
1.267,-0.68,0.44,2.03,-0.66,1.95,1.54,
1.267,-0.68,0.44,2.03,-0.54,2.03,1.62,
1.267,-0.68,0.44,2.03,-0.42,2.11,1.68,
1.268,-0.73,0.87,2.93,-0.42,2.11,1.68,
1.268,-0.73,0.87,2.93,-0.31,2.17,1.74,
1.268,-0.73,0.87,2.93,-0.21,2.23,1.80,
1.268,-0.73,0.87,2.93,-0.11,2.30,1.84,
1.273,-0.73,0.87,2.93,-0.03,2.35,1.88,
1.273,-0.73,0.87,2.93,0.06,2.41,1.91,
1.276,0.02,1.13,2.38,0.06,2.41,1.91,
1.276,0.02,1.13,2.38,0.12,2.47,1.93,
1.277,0.02,1.13,2.38,0.17,2.51,1.95,
1.278,0.02,1.13,2.38,0.22,2.53,1.95,
1.28,0.02,1.13,2.38,0.23,2.53,1.94,
1.282,0.02,1.13,2.38,0.24,2.52,1.93,
1.285,0.81,1.24,1.10,0.24,2.52,1.93,
1.285,0.81,1.24,1.10,0.24,2.49,1.90,
1.303,0.81,1.24,1.10,0.23,2.44,1.87,
1.303,0.81,1.24,1.10,0.20,2.37,1.84,
1.304,0.81,1.24,1.10,0.15,2.27,1.79,
1.304,0.81,1.24,1.10,0.09,2.14,1.74,
1.304,1.20,1.25,0.44,0.09,2.14,1.74,
1.305,1.20,1.25,0.44,0.02,1.96,1.69,
1.305,1.20,1.25,0.44,-0.07,1.76,1.62,
1.305,1.20,1.25,0.44,-0.17,1.52,1.55,
1.305,1.20,1.25,0.44,-0.28,1.26,1.47,
1.306,1.20,1.25,0.44,-0.40,0.99,1.39,
1.306,1.02,1.07,0.57,-0.40,0.99,1.39,
1.306,1.02,1.07,0.57,-0.51,0.73,1.31,
1.306,1.02,1.07,0.57,-0.62,0.49,1.23,
1.311,1.02,1.07,0.57,-0.72,0.29,1.15,
1.311,1.02,1.07,0.57,-0.80,0.15,1.07,
1.312,1.02,1.07,0.57,-0.87,0.05,0.99,
1.316,0.37,1.44,0.59,-0.87,0.05,0.99,
1.316,0.37,1.44,0.59,-0.91,-0.01,0.92,
1.316,0.37,1.44,0.59,-0.93,-0.03,0.86,
1.318,0.37,1.44,0.59,-0.94,-0.02,0.80,
1.32,0.37,1.44,0.59,-0.94,0.01,0.74,
1.323,0.37,1.44,0.59,-0.93,0.07,0.70,
1.325,-0.41,2.03,0.11,-0.93,0.07,0.70,
1.326,-0.41,2.03,0.11,-0.90,0.14,0.66,
1.327,-0.41,2.03,0.11,-0.87,0.22,0.63,
1.328,-0.41,2.03,0.11,-0.83,0.30,0.60,
1.331,-0.41,2.03,0.11,-0.79,0.39,0.59,
1.332,-0.41,2.03,0.11,-0.74,0.49,0.58,
1.334,-0.90,2.39,-0.31,-0.74,0.49,0.58,
1.334,-0.90,2.39,-0.31,-0.69,0.60,0.58,
1.336,-0.90,2.39,-0.31,-0.64,0.70,0.59,
1.337,-0.90,2.39,-0.31,-0.58,0.81,0.60,
1.339,-0.90,2.39,-0.31,-0.53,0.93,0.62,
1.347,-0.90,2.39,-0.31,-0.47,1.05,0.66,
1.347,-1.28,2.53,-0.57,-0.47,1.05,0.66,
1.347,-1.28,2.53,-0.57,-0.42,1.16,0.70,
1.348,-1.28,2.53,-0.57,-0.38,1.26,0.74,
1.348,-1.28,2.53,-0.57,-0.34,1.35,0.79,
1.35,-1.28,2.53,-0.57,-0.32,1.43,0.84,
1.352,-1.28,2.53,-0.57,-0.31,1.50,0.88,
1.356,-1.48,2.49,-1.00,-0.31,1.50,0.88,
1.356,-1.48,2.49,-1.00,-0.32,1.55,0.93,
1.357,-1.48,2.49,-1.00,-0.33,1.58,0.97,
1.374,-1.48,2.49,-1.00,-0.34,1.60,1.02,
1.374,-1.48,2.49,-1.00,-0.36,1.60,1.06,
1.374,-1.48,2.49,-1.00,-0.41,1.59,1.10,
1.374,-1.54,2.51,-1.56,-0.41,1.59,1.10,
1.374,-1.54,2.51,-1.56,-0.46,1.56,1.14,
1.375,-1.54,2.51,-1.56,-0.51,1.52,1.18,
1.375,-1.54,2.51,-1.56,-0.58,1.47,1.22,
1.375,-1.54,2.51,-1.56,-0.65,1.41,1.25,
1.375,-1.54,2.51,-1.56,-0.72,1.35,1.28,
1.375,-1.39,2.50,-2.06,-0.72,1.35,1.28,
1.375,-1.39,2.50,-2.06,-0.80,1.28,1.31,
1.376,-1.39,2.50,-2.06,-0.87,1.21,1.34,
1.381,-1.39,2.50,-2.06,-0.95,1.14,1.36,
1.381,-1.39,2.50,-2.06,-1.01,1.08,1.39,
1.382,-1.39,2.50,-2.06,-1.07,1.01,1.40,
1.384,-0.97,2.37,-2.19,-1.07,1.01,1.40,
1.384,-0.97,2.37,-2.19,-1.13,0.96,1.41,
1.385,-0.97,2.37,-2.19,-1.17,0.92,1.43,
1.387,-0.97,2.37,-2.19,-1.21,0.88,1.44,
1.389,-0.97,2.37,-2.19,-1.24,0.85,1.45,
1.391,-0.97,2.37,-2.19,-1.27,0.82,1.46,
1.394,-0.56,2.20,-2.04,-1.27,0.82,1.46,
1.394,-0.56,2.20,-2.04,-1.28,0.79,1.48,
1.396,-0.56,2.20,-2.04,-1.30,0.77,1.50,
1.397,-0.56,2.20,-2.04,-1.31,0.74,1.53,
1.399,-0.56,2.20,-2.04,-1.32,0.71,1.57,
1.401,-0.56,2.20,-2.04,-1.34,0.67,1.62,
1.404,-0.85,2.24,-1.85,-1.34,0.67,1.62,
1.404,-0.85,2.24,-1.85,-1.35,0.63,1.68,
1.406,-0.85,2.24,-1.85,-1.37,0.58,1.75,
1.408,-0.85,2.24,-1.85,-1.39,0.52,1.84,
1.41,-0.85,2.24,-1.85,-1.42,0.45,1.93,
1.412,-0.85,2.24,-1.85,-1.45,0.36,2.04,
1.414,-1.96,2.82,-1.93,-1.45,0.36,2.04,
1.414,-1.96,2.82,-1.93,-1.49,0.27,2.16,
1.42,-1.96,2.82,-1.93,-1.61,-0.06,2.53,
1.421,-1.96,2.82,-1.93,-1.61,-0.06,2.53,
1.422,-1.96,2.82,-1.93,-1.65,-0.17,2.65,
1.422,-1.96,2.82,-1.93,-1.65,-0.17,2.65,
1.425,-2.79,3.58,-1.79,-1.65,-0.17,2.65,
1.426,-2.79,3.58,-1.79,-1.68,-0.27,2.78,
1.426,-2.79,3.58,-1.79,-1.71,-0.37,2.90,
1.428,-2.79,3.58,-1.79,-1.73,-0.45,3.02,
1.43,-2.79,3.58,-1.79,-1.76,-0.54,3.14,
1.431,-2.79,3.58,-1.79,-1.77,-0.63,3.26,
1.434,-3.19,4.18,-1.57,-1.77,-0.63,3.26,
1.434,-3.19,4.18,-1.57,-1.79,-0.71,3.37,
1.436,-3.19,4.18,-1.57,-1.81,-0.79,3.47,
1.438,-3.19,4.18,-1.57,-1.83,-0.86,3.57,
1.439,-3.19,4.18,-1.57,-1.85,-0.92,3.67,
1.442,-3.19,4.18,-1.57,-1.86,-0.98,3.77,
1.445,-3.19,4.67,-1.65,-1.86,-0.98,3.77,
1.445,-3.19,4.67,-1.65,-1.87,-1.03,3.86,
1.446,-3.19,4.67,-1.65,-1.89,-1.09,3.95,
1.448,-3.19,4.67,-1.65,-1.90,-1.14,4.04,
1.452,-3.19,4.67,-1.65,-1.91,-1.18,4.12,
1.452,-3.19,4.67,-1.65,-1.91,-1.22,4.20,
1.481,-3.23,5.09,-1.52,-1.91,-1.22,4.20,
1.482,-3.23,5.09,-1.52,-1.90,-1.24,4.28,
1.483,-3.23,5.09,-1.52,-1.89,-1.23,4.35,
1.483,-3.23,5.09,-1.52,-1.86,-1.17,4.42,
1.483,-3.23,5.09,-1.52,-1.82,-1.07,4.48,
1.484,-3.23,5.09,-1.52,-1.77,-0.94,4.54,
1.484,-2.83,5.11,0.19,-1.77,-0.94,4.54,
1.485,-2.83,5.11,0.19,-1.69,-0.77,4.60,
1.485,-2.83,5.11,0.19,-1.62,-0.59,4.65,
1.486,-2.83,5.11,0.19,-1.55,-0.39,4.69,
1.486,-2.83,5.11,0.19,-1.47,-0.18,4.73,
1.486,-2.83,5.11,0.19,-1.40,0.02,4.76,
1.487,-2.36,5.30,1.51,-1.40,0.02,4.76,
1.487,-2.36,5.30,1.51,-1.33,0.23,4.79,
1.488,-2.36,5.30,1.51,-1.25,0.43,4.81,
1.488,-2.36,5.30,1.51,-1.19,0.62,4.83,
1.488,-2.36,5.30,1.51,-1.12,0.81,4.84,
1.489,-2.36,5.30,1.51,-1.06,0.99,4.85,
1.489,-1.77,5.71,0.88,-1.06,0.99,4.85,
1.49,-1.77,5.71,0.88,-1.02,1.17,4.85,
1.49,-1.77,5.71,0.88,-0.97,1.33,4.86,
1.491,-1.77,5.71,0.88,-0.93,1.48,4.86,
1.491,-1.77,5.71,0.88,-0.90,1.63,4.86,
1.502,-1.77,5.71,0.88,-0.86,1.76,4.86,
1.503,-1.35,6.10,-0.05,-0.86,1.76,4.86,
1.503,-1.35,6.10,-0.05,-0.84,1.86,4.86,
1.504,-1.35,6.10,-0.05,-0.82,1.95,4.86,
1.504,-1.35,6.10,-0.05,-0.81,2.02,4.86,
1.504,-1.35,6.10,-0.05,-0.79,2.08,4.87,
1.505,-1.35,6.10,-0.05,-0.79,2.14,4.87,
1.505,-0.81,6.16,-0.97,-0.79,2.14,4.87,
1.506,-0.81,6.16,-0.97,-0.78,2.19,4.87,
1.506,-0.81,6.16,-0.97,-0.77,2.23,4.86,
1.509,-0.81,6.16,-0.97,-0.77,2.26,4.86,
1.512,-0.81,6.16,-0.97,-0.77,2.29,4.86,
1.512,-0.81,6.16,-0.97,-0.77,2.31,4.86,
1.514,-0.40,6.32,-1.53,-0.77,2.31,4.86,
1.515,-0.40,6.32,-1.53,-0.79,2.31,4.85,
1.516,-0.40,6.32,-1.53,-0.82,2.30,4.85,
1.518,-0.40,6.32,-1.53,-0.84,2.32,4.86,
1.519,-0.40,6.32,-1.53,-0.87,2.34,4.89,
1.521,-0.40,6.32,-1.53,-0.92,2.37,4.94,
1.531,0.39,1.23,-2.39,-0.92,2.37,4.94,
1.532,0.39,1.23,-2.39,-0.96,2.39,4.99,
1.532,0.39,1.23,-2.39,-0.99,2.43,5.02,
1.532,0.39,1.23,-2.39,-1.08,2.53,5.07,
1.532,0.39,1.23,-2.39,-1.17,2.62,5.12,
1.533,0.39,1.23,-2.39,-1.27,2.69,5.18,
1.534,0.75,-10.61,-3.60,-1.27,2.69,5.18,
1.535,0.75,-10.61,-3.60,-1.36,2.76,5.28,
1.536,0.75,-10.61,-3.60,-1.43,2.83,5.43,
1.54,0.75,-10.61,-3.60,-1.50,2.91,5.61,
1.54,0.75,-10.61,-3.60,-1.56,3.04,5.83,
1.574,0.75,-10.61,-3.60,-1.60,3.17,6.08,
1.575,-4.73,-22.23,-2.55,-1.60,3.17,6.08,
1.576,-4.73,-22.23,-2.55,-1.66,3.25,6.33,
1.576,-4.73,-22.23,-2.55,-1.73,3.31,6.59,
1.576,-4.73,-22.23,-2.55,-1.80,3.33,6.83,
1.576,-4.73,-22.23,-2.55,-1.87,3.32,7.04,
1.576,-4.73,-22.23,-2.55,-1.94,3.31,7.23,
1.577,-7.45,-35.18,-3.49,-1.94,3.31,7.23,
1.577,-7.45,-35.18,-3.49,-1.98,3.28,7.37,
1.577,-7.45,-35.18,-3.49,-2.01,3.23,7.45,
1.577,-7.45,-35.18,-3.49,-2.02,3.16,7.47,
1.578,-7.45,-35.18,-3.49,-2.00,3.09,7.41,
1.578,-7.45,-35.18,-3.49,-1.95,3.03,7.27,
1.578,-2.40,-37.88,-2.50,-1.95,3.03,7.27,
1.578,-2.40,-37.88,-2.50,-1.88,2.99,7.08,
1.579,-2.40,-37.88,-2.50,-1.78,2.96,6.84,
1.579,-2.40,-37.88,-2.50,-1.66,2.93,6.57,
1.579,-2.40,-37.88,-2.50,-1.54,2.89,6.26,
1.579,-2.40,-37.88,-2.50,-1.42,2.84,5.94,
1.579,3.92,-30.56,-0.27,-1.42,2.84,5.94,
1.58,3.92,-30.56,-0.27,-1.29,2.81,5.60,
1.58,3.92,-30.56,-0.27,-1.16,2.79,5.26,
1.58,3.92,-30.56,-0.27,-1.03,2.80,4.92,
1.58,3.92,-30.56,-0.27,-0.90,2.81,4.59,
1.587,3.92,-30.56,-0.27,-0.76,2.82,4.26,
1.587,5.74,-19.36,0.56,-0.76,2.82,4.26,
1.587,5.74,-19.36,0.56,-0.62,2.82,3.94,
1.587,5.74,-19.36,0.56,-0.41,2.81,3.48,
1.588,5.74,-19.36,0.56,-0.35,2.81,3.33,
1.591,5.74,-19.36,0.56,-0.22,2.79,3.04,
1.592,5.74,-19.36,0.56,-0.11,2.78,2.76,
1.594,6.68,-9.88,0.85,-0.11,2.78,2.76,
1.595,6.68,-9.88,0.85,-0.00,2.77,2.50,
1.596,6.68,-9.88,0.85,0.10,2.77,2.24,
1.598,6.68,-9.88,0.85,0.21,2.77,1.99,
1.6,6.68,-9.88,0.85,0.32,2.77,1.74,
1.601,6.68,-9.88,0.85,0.42,2.77,1.50,
1.605,6.87,-3.28,0.79,0.42,2.77,1.50,
1.606,6.87,-3.28,0.79,0.52,2.76,1.27,
1.608,6.87,-3.28,0.79,0.61,2.75,1.06,
1.608,6.87,-3.28,0.79,0.69,2.73,0.86,
1.61,6.87,-3.28,0.79,0.77,2.70,0.67,
1.612,6.87,-3.28,0.79,0.84,2.68,0.50,
1.614,6.60,1.07,0.60,0.84,2.68,0.50,
1.615,6.60,1.07,0.60,0.90,2.64,0.34,
1.616,6.60,1.07,0.60,0.97,2.61,0.19,
1.618,6.60,1.07,0.60,1.02,2.58,0.06,
1.641,6.60,1.07,0.60,1.08,2.55,-0.05,
1.641,6.60,1.07,0.60,1.13,2.52,-0.16,
1.641,5.30,4.20,0.32,1.13,2.52,-0.16,
1.641,5.30,4.20,0.32,1.17,2.48,-0.25,
1.642,5.30,4.20,0.32,1.21,2.46,-0.34,
1.642,5.30,4.20,0.32,1.24,2.43,-0.42,
1.642,5.30,4.20,0.32,1.27,2.40,-0.49,
1.643,5.30,4.20,0.32,1.30,2.37,-0.55,
1.643,4.25,5.95,-0.07,1.30,2.37,-0.55,
1.643,4.25,5.95,-0.07,1.32,2.35,-0.61,
1.643,4.25,5.95,-0.07,1.33,2.32,-0.65,
1.644,4.25,5.95,-0.07,1.35,2.30,-0.68,
1.644,4.25,5.95,-0.07,1.35,2.27,-0.71,
1.644,4.25,5.95,-0.07,1.36,2.25,-0.73,
1.656,3.03,7.00,-0.43,1.36,2.25,-0.73,
1.656,3.03,7.00,-0.43,1.37,2.22,-0.74,
1.657,3.03,7.00,-0.43,1.37,2.19,-0.74,
1.657,3.03,7.00,-0.43,1.37,2.17,-0.74,
1.657,3.03,7.00,-0.43,1.37,2.14,-0.73,
1.657,3.03,7.00,-0.43,1.36,2.11,-0.71,
1.657,1.75,7.47,-0.83,1.36,2.11,-0.71,
1.658,1.75,7.47,-0.83,1.34,2.08,-0.69,
1.658,1.75,7.47,-0.83,1.33,2.05,-0.66,
1.663,1.75,7.47,-0.83,1.31,2.02,-0.62,
1.664,1.75,7.47,-0.83,1.29,2.00,-0.58,
1.664,1.75,7.47,-0.83,1.27,1.97,-0.54,
1.664,0.71,7.31,-1.14,1.27,1.97,-0.54,
1.665,0.71,7.31,-1.14,1.24,1.94,-0.49,
1.666,0.71,7.31,-1.14,1.21,1.91,-0.44,
1.668,0.71,7.31,-1.14,1.17,1.88,-0.38,
1.671,0.71,7.31,-1.14,1.14,1.85,-0.33,
1.672,0.71,7.31,-1.14,1.10,1.82,-0.27,
1.678,-0.33,6.54,-1.57,1.10,1.82,-0.27,
1.678,-0.33,6.54,-1.57,1.06,1.79,-0.21,
1.679,-0.33,6.54,-1.57,1.01,1.77,-0.16,
1.679,-0.33,6.54,-1.57,0.96,1.74,-0.10,
1.68,-0.33,6.54,-1.57,0.92,1.72,-0.04,
1.681,-0.33,6.54,-1.57,0.87,1.69,0.01,
1.684,-0.80,5.14,-1.77,0.87,1.69,0.01,
1.684,-0.80,5.14,-1.77,0.81,1.66,0.06,
1.685,-0.80,5.14,-1.77,0.76,1.64,0.11,
1.688,-0.80,5.14,-1.77,0.70,1.61,0.16,
1.69,-0.80,5.14,-1.77,0.65,1.58,0.20,
1.692,-0.80,5.14,-1.77,0.59,1.56,0.24,
1.694,-1.03,3.42,-1.95,0.59,1.56,0.24,
1.695,-1.03,3.42,-1.95,0.54,1.53,0.28,
1.696,-1.03,3.42,-1.95,0.48,1.51,0.31,
1.698,-1.03,3.42,-1.95,0.43,1.49,0.33,
1.699,-1.03,3.42,-1.95,0.38,1.46,0.35,
1.702,-1.03,3.42,-1.95,0.33,1.44,0.36,
1.705,-0.82,1.44,-1.66,0.33,1.44,0.36,
1.705,-0.82,1.44,-1.66,0.28,1.42,0.37,
1.707,-0.82,1.44,-1.66,0.24,1.39,0.37,
1.708,-0.82,1.44,-1.66,0.20,1.37,0.36,
1.71,-0.82,1.44,-1.66,0.16,1.35,0.35,
1.712,-0.82,1.44,-1.66,0.10,1.33,0.33,
1.714,-0.48,-0.59,-1.07,0.10,1.33,0.33,
1.715,-0.48,-0.59,-1.07,0.08,1.32,0.32,
1.716,-0.48,-0.59,-1.07,0.06,1.34,0.30,
1.719,-0.48,-0.59,-1.07,0.06,1.38,0.28,
1.72,-0.48,-0.59,-1.07,0.07,1.46,0.26,
1.721,-0.48,-0.59,-1.07,0.11,1.59,0.23,
1.724,-0.43,-2.65,1.04,0.11,1.59,0.23,
1.725,-0.43,-2.65,1.04,0.17,1.74,0.21,
1.726,-0.43,-2.65,1.04,0.25,1.92,0.19,
1.727,-0.43,-2.65,1.04,0.33,2.12,0.16,
1.73,-0.43,-2.65,1.04,0.42,2.33,0.13,
1.731,-0.43,-2.65,1.04,0.51,2.54,0.11,
1.734,-0.25,-4.49,3.76,0.51,2.54,0.11,
1.734,-0.25,-4.49,3.76,0.61,2.75,0.08,
1.736,-0.25,-4.49,3.76,0.70,2.95,0.04,
1.738,-0.25,-4.49,3.76,0.78,3.13,0.01,
1.74,-0.25,-4.49,3.76,0.85,3.30,-0.03,
1.742,-0.25,-4.49,3.76,0.91,3.43,-0.06,
1.744,0.54,-5.21,3.63,0.91,3.43,-0.06,
1.744,0.54,-5.21,3.63,0.96,3.56,-0.10,
1.746,0.54,-5.21,3.63,1.00,3.65,-0.14,
1.748,0.54,-5.21,3.63,1.02,3.73,-0.18,
1.75,0.54,-5.21,3.63,1.04,3.78,-0.22,
1.752,0.54,-5.21,3.63,1.03,3.82,-0.27,
1.754,1.55,-4.66,1.94,1.03,3.82,-0.27,
1.755,1.55,-4.66,1.94,1.02,3.83,-0.31,
1.763,1.55,-4.66,1.94,1.00,3.83,-0.34,
1.763,1.55,-4.66,1.94,0.96,3.81,-0.38,
1.763,1.55,-4.66,1.94,0.91,3.78,-0.42,
1.764,1.55,-4.66,1.94,0.85,3.74,-0.46,
1.764,2.19,-3.36,0.08,0.85,3.74,-0.46,
1.764,2.19,-3.36,0.08,0.79,3.69,-0.50,
1.766,2.19,-3.36,0.08,0.71,3.63,-0.54,
1.767,2.19,-3.36,0.08,0.64,3.57,-0.59,
1.77,2.19,-3.36,0.08,0.56,3.50,-0.63,
1.771,2.19,-3.36,0.08,0.49,3.44,-0.68,
1.792,2.91,-2.27,-0.84,0.49,3.44,-0.68,
1.792,2.91,-2.27,-0.84,0.41,3.37,-0.72,
1.792,2.91,-2.27,-0.84,0.33,3.31,-0.77,
1.792,2.91,-2.27,-0.84,0.26,3.26,-0.82,
1.792,2.91,-2.27,-0.84,0.19,3.21,-0.87,
1.792,2.91,-2.27,-0.84,0.13,3.17,-0.92,
1.792,3.45,-1.44,-0.50,0.13,3.17,-0.92,
1.793,3.45,-1.44,-0.50,0.07,3.13,-0.97,
1.805,3.45,-1.44,-0.50,0.01,3.11,-1.03,
1.805,3.45,-1.44,-0.50,-0.03,3.09,-1.08,
1.805,3.45,-1.44,-0.50,-0.08,3.07,-1.13,
1.805,3.45,-1.44,-0.50,-0.12,3.05,-1.18,
1.805,3.96,-0.95,0.57,-0.12,3.05,-1.18,
1.806,3.96,-0.95,0.57,-0.15,3.04,-1.24,
1.806,3.96,-0.95,0.57,-0.18,3.02,-1.29,
1.806,3.96,-0.95,0.57,-0.21,3.00,-1.34,
1.806,3.96,-0.95,0.57,-0.24,2.98,-1.39,
1.806,3.96,-0.95,0.57,-0.26,2.96,-1.43,
1.806,3.98,-0.56,1.30,-0.26,2.96,-1.43,
1.807,3.98,-0.56,1.30,-0.28,2.92,-1.47,
1.807,3.98,-0.56,1.30,-0.31,2.88,-1.51,
1.809,3.98,-0.56,1.30,-0.33,2.82,-1.54,
1.811,3.98,-0.56,1.30,-0.36,2.76,-1.57,
1.811,3.98,-0.56,1.30,-0.38,2.69,-1.59,
1.815,3.63,-0.43,1.43,-0.38,2.69,-1.59,
1.815,3.63,-0.43,1.43,-0.41,2.61,-1.61,
1.816,3.63,-0.43,1.43,-0.44,2.52,-1.62,
1.817,3.63,-0.43,1.43,-0.47,2.42,-1.63,
1.82,3.63,-0.43,1.43,-0.50,2.31,-1.64,
1.822,3.63,-0.43,1.43,-0.54,2.19,-1.64,
1.824,2.94,-0.26,1.04,-0.54,2.19,-1.64,
1.825,2.94,-0.26,1.04,-0.57,2.05,-1.64,
1.826,2.94,-0.26,1.04,-0.61,1.91,-1.63,
1.827,2.94,-0.26,1.04,-0.65,1.76,-1.61,
1.829,2.94,-0.26,1.04,-0.68,1.60,-1.59,
1.831,2.94,-0.26,1.04,-0.72,1.43,-1.57,
1.834,2.15,-0.18,0.63,-0.72,1.43,-1.57,
1.834,2.15,-0.18,0.63,-0.76,1.26,-1.53,
1.836,2.15,-0.18,0.63,-0.79,1.08,-1.50,
1.837,2.15,-0.18,0.63,-0.82,0.90,-1.46,
1.84,2.15,-0.18,0.63,-0.85,0.73,-1.41,
1.841,2.15,-0.18,0.63,-0.87,0.55,-1.37,
1.844,1.39,0.07,0.61,-0.87,0.55,-1.37,
1.844,1.39,0.07,0.61,-0.89,0.39,-1.32,
1.849,1.39,0.07,0.61,-0.91,0.23,-1.26,
1.849,1.39,0.07,0.61,-0.91,0.09,-1.20,
1.85,1.39,0.07,0.61,-0.92,-0.06,-1.14,
1.851,1.39,0.07,0.61,-0.91,-0.19,-1.07,
1.854,0.79,0.32,1.08,-0.91,-0.19,-1.07,
1.854,0.79,0.32,1.08,-0.91,-0.31,-1.00,
1.857,0.79,0.32,1.08,-0.89,-0.42,-0.93,
1.858,0.79,0.32,1.08,-0.88,-0.52,-0.85,
1.86,0.79,0.32,1.08,-0.86,-0.60,-0.78,
1.861,0.79,0.32,1.08,-0.83,-0.68,-0.69,
1.864,0.20,0.59,1.50,-0.83,-0.68,-0.69,
1.865,0.20,0.59,1.50,-0.80,-0.75,-0.61,
1.866,0.20,0.59,1.50,-0.77,-0.81,-0.52,
1.867,0.20,0.59,1.50,-0.73,-0.86,-0.43,
1.869,0.20,0.59,1.50,-0.69,-0.90,-0.35,
1.872,0.20,0.59,1.50,-0.64,-0.93,-0.25,
1.875,-0.42,0.82,1.93,-0.64,-0.93,-0.25,
1.875,-0.42,0.82,1.93,-0.60,-0.96,-0.16,
1.876,-0.42,0.82,1.93,-0.55,-0.97,-0.07,
1.881,-0.42,0.82,1.93,-0.49,-0.99,0.01,
1.882,-0.42,0.82,1.93,-0.44,-0.99,0.09,
1.882,-0.42,0.82,1.93,-0.38,-1.00,0.16,
1.884,-0.74,0.80,2.04,-0.38,-1.00,0.16,
1.884,-0.74,0.80,2.04,-0.32,-1.00,0.22,
1.886,-0.74,0.80,2.04,-0.27,-0.99,0.28,
1.888,-0.74,0.80,2.04,-0.21,-0.98,0.33,
1.891,-0.74,0.80,2.04,-0.15,-0.96,0.39,
1.893,-0.74,0.80,2.04,-0.09,-0.94,0.43,
1.894,-0.87,0.56,2.03,-0.09,-0.94,0.43,
1.894,-0.87,0.56,2.03,-0.02,-0.91,0.48,
1.896,-0.87,0.56,2.03,0.04,-0.88,0.54,
1.897,-0.87,0.56,2.03,0.10,-0.85,0.59,
1.899,-0.87,0.56,2.03,0.17,-0.82,0.64,
1.902,-0.87,0.56,2.03,0.23,-0.78,0.70,
1.904,-1.56,-0.08,1.91,0.23,-0.78,0.70,
1.904,-1.56,-0.08,1.91,0.30,-0.74,0.76,
1.914,-1.56,-0.08,1.91,0.37,-0.70,0.82,
1.914,-1.56,-0.08,1.91,0.44,-0.65,0.89,
1.914,-1.56,-0.08,1.91,0.51,-0.60,0.96,
1.915,-1.56,-0.08,1.91,0.58,-0.55,1.02,
1.915,-2.47,-1.33,1.92,0.58,-0.55,1.02,
1.915,-2.47,-1.33,1.92,0.65,-0.50,1.08,
1.916,-2.47,-1.33,1.92,0.72,-0.44,1.15,
1.92,-2.47,-1.33,1.92,0.79,-0.38,1.21,
1.921,-2.47,-1.33,1.92,0.86,-0.32,1.27,
1.947,-2.47,-1.33,1.92,0.93,-0.25,1.32,
1.948,-2.68,-2.94,1.90,0.93,-0.25,1.32,
1.948,-2.68,-2.94,1.90,1.00,-0.18,1.36,
1.948,-2.68,-2.94,1.90,1.07,-0.11,1.40,
1.949,-2.68,-2.94,1.90,1.14,-0.03,1.43,
1.949,-2.68,-2.94,1.90,1.20,0.05,1.46,
1.949,-2.68,-2.94,1.90,1.27,0.14,1.48,
1.95,-2.21,-3.90,1.91,1.27,0.14,1.48,
1.95,-2.21,-3.90,1.91,1.32,0.22,1.50,
1.95,-2.21,-3.90,1.91,1.41,0.36,1.53,
1.951,-2.21,-3.90,1.91,1.46,0.45,1.53,
1.951,-2.21,-3.90,1.91,1.49,0.50,1.54,
1.951,-2.21,-3.90,1.91,1.54,0.60,1.54,
1.952,-1.77,-4.51,1.72,1.54,0.60,1.54,
1.952,-1.77,-4.51,1.72,1.58,0.70,1.54,
1.952,-1.77,-4.51,1.72,1.62,0.80,1.53,
1.953,-1.77,-4.51,1.72,1.67,0.91,1.52,
1.953,-1.77,-4.51,1.72,1.71,1.02,1.50,
1.954,-1.77,-4.51,1.72,1.75,1.13,1.47,
1.974,-1.03,-4.20,1.63,1.75,1.13,1.47,
1.974,-1.03,-4.20,1.63,1.78,1.25,1.45,
1.974,-1.03,-4.20,1.63,1.81,1.37,1.42,
1.975,-1.03,-4.20,1.63,1.84,1.49,1.39,
1.975,-1.03,-4.20,1.63,1.87,1.62,1.35,
1.975,-1.03,-4.20,1.63,1.89,1.74,1.32,
1.975,-0.48,-3.18,1.36,1.89,1.74,1.32,
1.976,-0.48,-3.18,1.36,1.91,1.86,1.28,
1.976,-0.48,-3.18,1.36,1.92,1.98,1.23,
1.976,-0.48,-3.18,1.36,1.94,2.09,1.18,
1.977,-0.48,-3.18,1.36,1.95,2.19,1.13,
1.977,-0.48,-3.18,1.36,1.95,2.29,1.07,
1.977,0.42,-1.97,0.88,1.95,2.29,1.07,
1.977,0.42,-1.97,0.88,1.96,2.38,1.02,
1.978,0.42,-1.97,0.88,1.96,2.46,0.96,
1.978,0.42,-1.97,0.88,1.95,2.53,0.90,
1.986,0.42,-1.97,0.88,1.95,2.59,0.85,
1.986,0.42,-1.97,0.88,1.94,2.63,0.79,
1.987,0.53,-1.67,0.42,1.94,2.63,0.79,
1.987,0.53,-1.67,0.42,1.93,2.67,0.73,
1.987,0.53,-1.67,0.42,1.93,2.70,0.68,
2.001,0.53,-1.67,0.42,1.92,2.73,0.62,
2.002,0.53,-1.67,0.42,1.92,2.74,0.56,
2.002,0.53,-1.67,0.42,1.92,2.75,0.51,
2.002,0.25,-1.85,0.36,1.92,2.75,0.51,
2.002,0.25,-1.85,0.36,1.92,2.75,0.46,
2.003,0.25,-1.85,0.36,1.92,2.75,0.41,
2.003,0.25,-1.85,0.36,1.92,2.75,0.36,
2.003,0.25,-1.85,0.36,1.92,2.74,0.31,
2.003,0.25,-1.85,0.36,1.93,2.72,0.27,
2.005,-0.21,-2.03,0.44,1.93,2.72,0.27,
2.005,-0.21,-2.03,0.44,1.93,2.69,0.23,
2.006,-0.21,-2.03,0.44,1.94,2.67,0.20,
2.008,-0.21,-2.03,0.44,1.95,2.64,0.17,
2.01,-0.21,-2.03,0.44,1.96,2.61,0.14,
2.012,-0.21,-2.03,0.44,1.96,2.57,0.12,
2.014,-0.75,-2.06,0.34,1.96,2.57,0.12,
2.014,-0.75,-2.06,0.34,1.97,2.54,0.11,
2.016,-0.75,-2.06,0.34,1.98,2.49,0.10,
2.017,-0.75,-2.06,0.34,1.98,2.45,0.09,
2.019,-0.75,-2.06,0.34,1.99,2.41,0.10,
2.022,-0.75,-2.06,0.34,1.99,2.36,0.10,
2.024,-1.53,-2.11,0.09,1.99,2.36,0.10,
2.024,-1.53,-2.11,0.09,2.00,2.32,0.11,
2.026,-1.53,-2.11,0.09,2.00,2.27,0.13,
2.028,-1.53,-2.11,0.09,2.01,2.22,0.14,
2.03,-1.53,-2.11,0.09,2.01,2.17,0.17,
2.032,-1.53,-2.11,0.09,2.01,2.12,0.19,
2.034,-2.27,-2.08,-0.26,2.01,2.12,0.19,
2.035,-2.27,-2.08,-0.26,2.01,2.07,0.22,
2.036,-2.27,-2.08,-0.26,2.01,2.02,0.24,
2.045,-2.27,-2.08,-0.26,2.01,1.97,0.27,
2.047,-2.27,-2.08,-0.26,2.01,1.91,0.30,
2.047,-2.27,-2.08,-0.26,2.01,1.86,0.33,
2.05,-2.63,-1.71,-0.59,2.01,1.86,0.33,
2.05,-2.63,-1.71,-0.59,2.01,1.81,0.36,
2.05,-2.63,-1.71,-0.59,2.01,1.75,0.39,
2.05,-2.63,-1.71,-0.59,2.02,1.70,0.43,
2.051,-2.63,-1.71,-0.59,2.03,1.65,0.46,
2.052,-2.63,-1.71,-0.59,2.04,1.60,0.49,
2.098,-2.63,-0.95,-0.55,2.04,1.60,0.49,
2.099,-2.63,-0.95,-0.55,2.06,1.55,0.51,
2.099,-2.63,-0.95,-0.55,2.08,1.52,0.53,
2.099,-2.63,-0.95,-0.55,2.11,1.48,0.56,
2.099,-2.63,-0.95,-0.55,2.14,1.46,0.58,
2.099,-2.63,-0.95,-0.55,2.18,1.44,0.60,
2.1,-2.20,-0.27,0.14,2.18,1.44,0.60,
2.1,-2.20,-0.27,0.14,2.23,1.42,0.61,
2.1,-2.20,-0.27,0.14,2.28,1.41,0.63,
2.1,-2.20,-0.27,0.14,2.33,1.41,0.64,
2.1,-2.20,-0.27,0.14,2.39,1.41,0.64,
2.1,-2.20,-0.27,0.14,2.45,1.42,0.64,
2.1,-1.26,0.58,1.12,2.45,1.42,0.64,
2.101,-1.26,0.58,1.12,2.52,1.42,0.63,
2.101,-1.26,0.58,1.12,2.57,1.42,0.62,
2.101,-1.26,0.58,1.12,2.63,1.42,0.62,
2.101,-1.26,0.58,1.12,2.69,1.42,0.61,
2.101,-1.26,0.58,1.12,2.74,1.41,0.60,
2.101,-0.31,1.35,1.07,2.74,1.41,0.60,
2.102,-0.31,1.35,1.07,2.78,1.40,0.59,
2.102,-0.31,1.35,1.07,2.82,1.38,0.59,
2.102,-0.31,1.35,1.07,2.86,1.36,0.59,
2.102,-0.31,1.35,1.07,2.89,1.34,0.58,
2.102,-0.31,1.35,1.07,2.91,1.31,0.59,
2.102,-0.03,1.73,0.27,2.91,1.31,0.59,
2.102,-0.03,1.73,0.27,2.92,1.29,0.59,
2.103,-0.03,1.73,0.27,2.93,1.25,0.60,
2.103,-0.03,1.73,0.27,2.94,1.22,0.62,
2.103,-0.03,1.73,0.27,2.93,1.18,0.63,
2.103,-0.03,1.73,0.27,2.92,1.13,0.65,
2.107,-0.11,1.80,-0.83,2.92,1.13,0.65,
2.107,-0.11,1.80,-0.83,2.90,1.09,0.67,
2.107,-0.11,1.80,-0.83,2.88,1.04,0.69,
2.109,-0.11,1.80,-0.83,2.85,0.99,0.72,
2.11,-0.11,1.80,-0.83,2.81,0.95,0.74,
2.112,-0.11,1.80,-0.83,2.77,0.90,0.76,
2.114,-0.10,1.77,-1.91,2.77,0.90,0.76,
2.114,-0.10,1.77,-1.91,2.73,0.87,0.79,
2.116,-0.10,1.77,-1.91,2.68,0.83,0.81,
2.118,-0.10,1.77,-1.91,2.62,0.80,0.84,
2.134,-0.10,1.77,-1.91,2.56,0.77,0.86,
2.134,-0.10,1.77,-1.91,2.50,0.75,0.88,
2.134,0.26,1.77,-2.52,2.50,0.75,0.88,
2.135,0.26,1.77,-2.52,2.44,0.74,0.90,
2.135,0.26,1.77,-2.52,2.37,0.73,0.91,
2.135,0.26,1.77,-2.52,2.29,0.74,0.92,
2.135,0.26,1.77,-2.52,2.22,0.75,0.93,
2.136,0.26,1.77,-2.52,2.14,0.78,0.94,
2.136,0.85,1.69,-2.85,2.14,0.78,0.94,
2.136,0.85,1.69,-2.85,2.06,0.81,0.95,
2.137,0.85,1.69,-2.85,1.98,0.85,0.95,
2.142,0.85,1.69,-2.85,1.90,0.89,0.95,
2.143,0.85,1.69,-2.85,1.82,0.93,0.94,
2.143,0.85,1.69,-2.85,1.74,0.97,0.94,
2.144,1.87,1.57,-2.53,1.74,0.97,0.94,
2.144,1.87,1.57,-2.53,1.66,0.99,0.92,
2.146,1.87,1.57,-2.53,1.57,1.00,0.90,
2.151,1.87,1.57,-2.53,1.49,0.99,0.87,
2.151,1.87,1.57,-2.53,1.40,0.98,0.83,
2.152,1.87,1.57,-2.53,1.31,0.97,0.79,
2.156,3.22,1.10,-2.19,1.31,0.97,0.79,
2.156,3.22,1.10,-2.19,1.22,0.95,0.73,
2.156,3.22,1.10,-2.19,1.15,0.91,0.67,
2.159,3.22,1.10,-2.19,1.07,0.85,0.59,
2.159,3.22,1.10,-2.19,1.01,0.79,0.52,
2.166,3.22,1.10,-2.19,0.95,0.72,0.44,
2.166,4.33,0.33,-1.34,0.95,0.72,0.44,
2.166,4.33,0.33,-1.34,0.89,0.64,0.36,
2.167,4.33,0.33,-1.34,0.83,0.56,0.28,
2.169,4.33,0.33,-1.34,0.78,0.48,0.19,
2.17,4.33,0.33,-1.34,0.73,0.39,0.11,
2.172,4.33,0.33,-1.34,0.69,0.30,0.04,
2.175,4.41,-0.52,-0.97,0.69,0.30,0.04,
2.175,4.41,-0.52,-0.97,0.65,0.22,-0.04,
2.176,4.41,-0.52,-0.97,0.60,0.13,-0.11,
2.186,4.41,-0.52,-0.97,0.56,0.05,-0.18,
2.194,4.41,-0.52,-0.97,0.51,-0.02,-0.24,
2.195,4.41,-0.52,-0.97,0.47,-0.09,-0.30,
2.195,3.60,-0.83,-1.25,0.47,-0.09,-0.30,
2.195,3.60,-0.83,-1.25,0.43,-0.15,-0.35,
2.196,3.60,-0.83,-1.25,0.38,-0.20,-0.40,
2.196,3.60,-0.83,-1.25,0.33,-0.25,-0.45,
2.196,3.60,-0.83,-1.25,0.29,-0.29,-0.50,
2.196,3.60,-0.83,-1.25,0.25,-0.33,-0.54,
2.197,2.75,-0.84,-1.65,0.25,-0.33,-0.54,
2.197,2.75,-0.84,-1.65,0.20,-0.36,-0.58,
2.2,2.75,-0.84,-1.65,0.15,-0.38,-0.61,
2.2,2.75,-0.84,-1.65,0.11,-0.39,-0.64,
2.202,2.75,-0.84,-1.65,0.07,-0.40,-0.67,
2.235,2.75,-0.84,-1.65,0.03,-0.39,-0.69,
2.235,1.99,-0.53,-1.76,0.03,-0.39,-0.69,
2.235,1.99,-0.53,-1.76,-0.01,-0.38,-0.72,
2.236,1.99,-0.53,-1.76,-0.05,-0.36,-0.74,
2.236,1.99,-0.53,-1.76,-0.08,-0.33,-0.76,
2.236,1.99,-0.53,-1.76,-0.11,-0.30,-0.78,
2.236,1.99,-0.53,-1.76,-0.14,-0.26,-0.80,
2.236,1.59,-0.05,-1.74,-0.14,-0.26,-0.80,
2.237,1.59,-0.05,-1.74,-0.17,-0.21,-0.82,
2.237,1.59,-0.05,-1.74,-0.20,-0.15,-0.84,
2.237,1.59,-0.05,-1.74,-0.22,-0.09,-0.86,
2.237,1.59,-0.05,-1.74,-0.25,-0.02,-0.88,
2.237,1.59,-0.05,-1.74,-0.27,0.04,-0.90,
2.238,1.44,0.64,-1.56,-0.27,0.04,-0.90,
2.238,1.44,0.64,-1.56,-0.29,0.11,-0.92,
2.238,1.44,0.64,-1.56,-0.30,0.18,-0.93,
2.238,1.44,0.64,-1.56,-0.32,0.24,-0.94,
2.238,1.44,0.64,-1.56,-0.34,0.30,-0.95,
2.239,1.44,0.64,-1.56,-0.34,0.35,-0.96,
2.239,1.05,1.28,-1.30,-0.34,0.35,-0.96,
2.239,1.05,1.28,-1.30,-0.36,0.41,-0.96,
2.239,1.05,1.28,-1.30,-0.37,0.45,-0.97,
2.239,1.05,1.28,-1.30,-0.38,0.49,-0.97,
2.244,1.05,1.28,-1.30,-0.39,0.52,-0.97,
2.244,1.05,1.28,-1.30,-0.40,0.55,-0.96,
2.245,0.49,1.79,-1.08,-0.40,0.55,-0.96,
2.245,0.49,1.79,-1.08,-0.41,0.58,-0.95,
2.247,0.49,1.79,-1.08,-0.42,0.60,-0.94,
2.248,0.49,1.79,-1.08,-0.43,0.62,-0.92,
2.25,0.49,1.79,-1.08,-0.45,0.63,-0.91,
2.252,0.49,1.79,-1.08,-0.45,0.65,-0.90,
2.256,-0.01,2.31,-0.86,-0.45,0.65,-0.90,
2.256,-0.01,2.31,-0.86,-0.45,0.66,-0.88,
2.256,-0.01,2.31,-0.86,-0.46,0.68,-0.87,
2.258,-0.01,2.31,-0.86,-0.46,0.69,-0.85,
2.26,-0.01,2.31,-0.86,-0.47,0.71,-0.84,
2.262,-0.01,2.31,-0.86,-0.47,0.72,-0.83,
2.264,-0.34,2.54,-0.62,-0.47,0.72,-0.83,
2.265,-0.34,2.54,-0.62,-0.48,0.73,-0.81,
2.266,-0.34,2.54,-0.62,-0.48,0.74,-0.80,
2.268,-0.34,2.54,-0.62,-0.49,0.75,-0.78,
2.271,-0.34,2.54,-0.62,-0.49,0.76,-0.77,
2.274,-0.34,2.54,-0.62,-0.49,0.77,-0.75,
2.275,-0.76,2.58,-0.35,-0.49,0.77,-0.75,
2.275,-0.76,2.58,-0.35,-0.50,0.78,-0.74,
2.277,-0.76,2.58,-0.35,-0.50,0.78,-0.72,
2.278,-0.76,2.58,-0.35,-0.52,0.79,-0.71,
2.285,-0.76,2.58,-0.35,-0.51,0.80,-0.69,
2.286,-0.76,2.58,-0.35,-0.51,0.81,-0.68,
2.291,-0.93,2.37,-0.10,-0.51,0.81,-0.68,
2.291,-0.93,2.37,-0.10,-0.52,0.82,-0.67,
2.323,-0.93,2.37,-0.10,-0.53,0.83,-0.66,
2.323,-0.93,2.37,-0.10,-0.53,0.84,-0.65,
2.323,-0.93,2.37,-0.10,-0.53,0.85,-0.65,
2.323,-0.93,2.37,-0.10,-0.54,0.86,-0.65,
2.324,-0.79,1.98,0.27,-0.54,0.86,-0.65,
2.324,-0.79,1.98,0.27,-0.55,0.86,-0.65,
2.324,-0.79,1.98,0.27,-0.55,0.87,-0.65,
2.325,-0.79,1.98,0.27,-0.56,0.87,-0.66,
2.325,-0.79,1.98,0.27,-0.57,0.87,-0.66,
2.325,-0.79,1.98,0.27,-0.57,0.87,-0.67,
2.325,-0.45,1.39,0.83,-0.57,0.87,-0.67,
2.326,-0.45,1.39,0.83,-0.58,0.86,-0.68,
2.326,-0.45,1.39,0.83,-0.58,0.86,-0.69,
2.326,-0.45,1.39,0.83,-0.58,0.85,-0.70,
2.326,-0.45,1.39,0.83,-0.58,0.84,-0.71,
2.327,-0.45,1.39,0.83,-0.58,0.83,-0.72,
2.327,-0.27,0.75,1.87,-0.58,0.83,-0.72,
2.327,-0.27,0.75,1.87,-0.57,0.83,-0.73,
2.327,-0.27,0.75,1.87,-0.56,0.82,-0.74,
2.328,-0.27,0.75,1.87,-0.55,0.82,-0.74,
2.328,-0.27,0.75,1.87,-0.53,0.83,-0.75,
2.328,-0.27,0.75,1.87,-0.51,0.83,-0.75,
2.329,-0.33,0.11,3.24,-0.51,0.83,-0.75,
2.329,-0.33,0.11,3.24,-0.49,0.84,-0.76,
2.329,-0.33,0.11,3.24,-0.47,0.86,-0.76,
2.329,-0.33,0.11,3.24,-0.44,0.88,-0.75,
2.33,-0.33,0.11,3.24,-0.41,0.91,-0.75,
2.338,-0.33,0.11,3.24,-0.37,0.94,-0.74,
2.339,-0.66,-0.39,4.84,-0.37,0.94,-0.74,
2.339,-0.66,-0.39,4.84,-0.34,0.97,-0.74,
2.34,-0.66,-0.39,4.84,-0.30,1.00,-0.73,
2.34,-0.66,-0.39,4.84,-0.26,1.04,-0.72,
2.34,-0.66,-0.39,4.84,-0.23,1.07,-0.72,
2.342,-0.66,-0.39,4.84,-0.20,1.10,-0.71,
2.345,-0.63,-0.63,5.82,-0.20,1.10,-0.71,
2.345,-0.63,-0.63,5.82,-0.17,1.12,-0.71,
2.346,-0.63,-0.63,5.82,-0.14,1.14,-0.71,
2.348,-0.63,-0.63,5.82,-0.11,1.15,-0.70,
2.351,-0.63,-0.63,5.82,-0.08,1.15,-0.70,
2.351,-0.63,-0.63,5.82,-0.05,1.15,-0.70,
2.363,-0.17,-0.54,6.39,-0.05,1.15,-0.70,
2.364,-0.17,-0.54,6.39,-0.03,1.14,-0.70,
2.364,-0.17,-0.54,6.39,0.00,1.12,-0.70,
2.364,-0.17,-0.54,6.39,0.02,1.09,-0.70,
2.365,-0.17,-0.54,6.39,0.05,1.06,-0.70,
2.365,-0.17,-0.54,6.39,0.06,1.02,-0.69,
2.365,0.26,-0.22,5.88,0.06,1.02,-0.69,
2.365,0.26,-0.22,5.88,0.08,0.98,-0.68,
2.366,0.26,-0.22,5.88,0.08,0.94,-0.68,
2.368,0.26,-0.22,5.88,0.09,0.89,-0.67,
2.392,0.26,-0.22,5.88,0.09,0.85,-0.66,
2.393,0.26,-0.22,5.88,0.09,0.80,-0.64,
2.393,0.63,0.28,4.78,0.09,0.80,-0.64,
2.393,0.63,0.28,4.78,0.08,0.75,-0.62,
2.394,0.63,0.28,4.78,0.07,0.71,-0.60,
2.394,0.63,0.28,4.78,0.07,0.66,-0.58,
2.394,0.63,0.28,4.78,0.05,0.62,-0.56,
2.394,0.63,0.28,4.78,0.03,0.58,-0.54,
2.394,0.99,0.69,3.26,0.03,0.58,-0.54,
2.395,0.99,0.69,3.26,0.02,0.54,-0.52,
2.395,0.99,0.69,3.26,0.01,0.51,-0.50,
2.395,0.99,0.69,3.26,-0.00,0.47,-0.48,
2.395,0.99,0.69,3.26,-0.02,0.45,-0.46,
2.396,0.99,0.69,3.26,-0.03,0.43,-0.44,
2.396,1.30,0.98,2.03,-0.03,0.43,-0.44,
2.396,1.30,0.98,2.03,-0.03,0.41,-0.43,
2.396,1.30,0.98,2.03,-0.04,0.40,-0.42,
2.398,1.30,0.98,2.03,-0.05,0.40,-0.41,
2.401,1.30,0.98,2.03,-0.04,0.40,-0.39,
2.424,1.30,0.98,2.03,-0.05,0.41,-0.38,
2.425,1.13,1.15,0.92,-0.05,0.41,-0.38,
2.425,1.13,1.15,0.92,-0.05,0.42,-0.37,
2.425,1.13,1.15,0.92,-0.05,0.44,-0.37,
2.425,1.13,1.15,0.92,-0.05,0.48,-0.35,
2.425,1.13,1.15,0.92,-0.05,0.49,-0.34,
2.426,1.13,1.15,0.92,-0.05,0.51,-0.33,
2.426,0.14,0.94,-0.20,-0.05,0.51,-0.33,
2.426,0.14,0.94,-0.20,-0.05,0.53,-0.31,
2.426,0.14,0.94,-0.20,-0.07,0.58,-0.22,
2.426,0.14,0.94,-0.20,-0.07,0.58,-0.22,
2.426,0.14,0.94,-0.20,-0.09,0.60,-0.15,
2.427,0.14,0.94,-0.20,-0.09,0.60,-0.15,
2.427,-1.67,-0.05,-1.28,-0.09,0.60,-0.15,
2.427,-1.67,-0.05,-1.28,-0.09,0.61,-0.13,
2.427,-1.67,-0.05,-1.28,-0.11,0.62,-0.08,
2.428,-1.67,-0.05,-1.28,-0.12,0.62,-0.02,
2.429,-1.67,-0.05,-1.28,-0.14,0.62,0.03,
2.432,-1.67,-0.05,-1.28,-0.15,0.63,0.09,
2.435,-3.28,-1.40,-1.90,-0.15,0.63,0.09,
2.435,-3.28,-1.40,-1.90,-0.17,0.63,0.15,
2.436,-3.28,-1.40,-1.90,-0.18,0.63,0.21,
2.438,-3.28,-1.40,-1.90,-0.20,0.63,0.27,
2.44,-3.28,-1.40,-1.90,-0.22,0.63,0.32,
2.442,-3.28,-1.40,-1.90,-0.24,0.62,0.38,
2.444,-4.06,-2.88,-2.37,-0.24,0.62,0.38,
2.444,-4.06,-2.88,-2.37,-0.26,0.60,0.43,
2.445,-4.06,-2.88,-2.37,-0.28,0.59,0.47,
2.448,-4.06,-2.88,-2.37,-0.30,0.56,0.52,
2.45,-4.06,-2.88,-2.37,-0.32,0.53,0.56,
2.452,-4.06,-2.88,-2.37,-0.34,0.48,0.60,
2.473,-4.24,-4.08,-3.17,-0.34,0.48,0.60,
2.473,-4.24,-4.08,-3.17,-0.37,0.43,0.63,
2.473,-4.24,-4.08,-3.17,-0.38,0.36,0.66,
2.474,-4.24,-4.08,-3.17,-0.41,0.29,0.68,
2.474,-4.24,-4.08,-3.17,-0.42,0.21,0.70,
2.474,-4.24,-4.08,-3.17,-0.44,0.11,0.72,
2.474,-3.97,-4.64,-3.60,-0.44,0.11,0.72,
2.475,-3.97,-4.64,-3.60,-0.44,0.01,0.73,
2.475,-3.97,-4.64,-3.60,-0.45,-0.10,0.73,
2.475,-3.97,-4.64,-3.60,-0.46,-0.22,0.73,
2.475,-3.97,-4.64,-3.60,-0.46,-0.35,0.73,
2.476,-3.97,-4.64,-3.60,-0.46,-0.48,0.73,
2.476,-3.77,-4.37,-3.84,-0.46,-0.48,0.73,
2.476,-3.77,-4.37,-3.84,-0.45,-0.62,0.72,
2.478,-3.77,-4.37,-3.84,-0.45,-0.75,0.71,
2.478,-3.77,-4.37,-3.84,-0.44,-0.87,0.68,
2.481,-3.77,-4.37,-3.84,-0.43,-0.99,0.65,
2.482,-3.77,-4.37,-3.84,-0.42,-1.09,0.61,
2.484,-2.98,-3.41,-3.72,-0.42,-1.09,0.61,
2.485,-2.98,-3.41,-3.72,-0.42,-1.19,0.57,
2.492,-2.98,-3.41,-3.72,-0.40,-1.28,0.53,
2.492,-2.98,-3.41,-3.72,-0.39,-1.35,0.49,
2.492,-2.98,-3.41,-3.72,-0.38,-1.41,0.45,
2.492,-2.98,-3.41,-3.72,-0.36,-1.47,0.41,
2.495,-2.34,-1.99,-3.47,-0.36,-1.47,0.41,
2.496,-2.34,-1.99,-3.47,-0.35,-1.50,0.36,
2.496,-2.34,-1.99,-3.47,-0.33,-1.53,0.33,
2.498,-2.34,-1.99,-3.47,-0.31,-1.54,0.30,
2.502,-2.34,-1.99,-3.47,-0.28,-1.54,0.28,
2.502,-2.34,-1.99,-3.47,-0.22,-1.52,0.27,
2.524,-2.42,0.04,-1.35,-0.22,-1.52,0.27,
2.525,-2.42,0.04,-1.35,-0.13,-1.48,0.27,
2.525,-2.42,0.04,-1.35,0.02,-1.42,0.30,
2.525,-2.42,0.04,-1.35,0.19,-1.34,0.34,
2.525,-2.42,0.04,-1.35,0.37,-1.25,0.38,
2.526,-2.42,0.04,-1.35,0.55,-1.14,0.42,
2.526,-3.47,2.38,3.82,0.55,-1.14,0.42,
2.526,-3.47,2.38,3.82,0.73,-1.02,0.46,
2.526,-3.47,2.38,3.82,0.89,-0.88,0.50,
2.526,-3.47,2.38,3.82,1.05,-0.72,0.52,
2.527,-3.47,2.38,3.82,1.18,-0.54,0.53,
2.527,-3.47,2.38,3.82,1.28,-0.32,0.53,
2.527,-1.29,3.74,2.85,1.28,-0.32,0.53,
2.527,-1.29,3.74,2.85,1.36,-0.09,0.51,
2.527,-1.29,3.74,2.85,1.42,0.17,0.49,
2.528,-1.29,3.74,2.85,1.45,0.42,0.45,
2.53,-1.29,3.74,2.85,1.45,0.69,0.41,
2.531,-1.29,3.74,2.85,1.43,0.94,0.36,
2.534,1.44,4.20,-0.81,1.43,0.94,0.36,
2.535,1.44,4.20,-0.81,1.40,1.20,0.32,
2.537,1.44,4.20,-0.81,1.35,1.44,0.27,
2.538,1.44,4.20,-0.81,1.29,1.68,0.23,
2.54,1.44,4.20,-0.81,1.22,1.90,0.19,
2.541,1.44,4.20,-0.81,1.15,2.10,0.16,
2.544,2.44,3.89,-2.95,1.15,2.10,0.16,
2.544,2.44,3.89,-2.95,1.07,2.29,0.13,
2.546,2.44,3.89,-2.95,0.98,2.46,0.11,
2.547,2.44,3.89,-2.95,0.89,2.62,0.09,
2.55,2.44,3.89,-2.95,0.78,2.75,0.08,
2.552,2.44,3.89,-2.95,0.67,2.85,0.07,
2.556,2.14,2.65,-4.41,0.67,2.85,0.07,
2.556,2.14,2.65,-4.41,0.55,2.94,0.07,
2.557,2.14,2.65,-4.41,0.42,2.99,0.06,
2.558,2.14,2.65,-4.41,0.28,3.01,0.06,
2.559,2.14,2.65,-4.41,0.14,3.00,0.05,
2.561,2.14,2.65,-4.41,-0.02,2.97,0.05,
2.564,1.98,0.78,-5.92,-0.02,2.97,0.05,
2.564,1.98,0.78,-5.92,-0.18,2.92,0.04,
2.567,1.98,0.78,-5.92,-0.34,2.84,0.02,
2.568,1.98,0.78,-5.92,-0.51,2.75,0.00,
2.569,1.98,0.78,-5.92,-0.67,2.65,-0.02,
2.573,1.98,0.78,-5.92,-0.83,2.53,-0.05,
2.577,2.36,-1.27,-6.75,-0.83,2.53,-0.05,
2.577,2.36,-1.27,-6.75,-0.98,2.41,-0.09,
2.577,2.36,-1.27,-6.75,-1.12,2.28,-0.13,
2.578,2.36,-1.27,-6.75,-1.26,2.14,-0.17,
2.58,2.36,-1.27,-6.75,-1.38,1.99,-0.22,
2.582,2.36,-1.27,-6.75,-1.50,1.85,-0.27,
2.584,2.81,-2.93,-5.84,-1.50,1.85,-0.27,
2.587,2.81,-2.93,-5.84,-1.61,1.70,-0.33,
2.588,2.81,-2.93,-5.84,-1.70,1.56,-0.38,
2.589,2.81,-2.93,-5.84,-1.79,1.41,-0.44,
2.59,2.81,-2.93,-5.84,-1.86,1.27,-0.49,
2.594,2.81,-2.93,-5.84,-1.93,1.13,-0.55,
2.594,3.18,-4.17,-4.44,-1.93,1.13,-0.55,
2.595,3.18,-4.17,-4.44,-1.99,0.99,-0.61,
2.596,3.18,-4.17,-4.44,-2.04,0.85,-0.66,
2.598,3.18,-4.17,-4.44,-2.08,0.71,-0.71,
2.599,3.18,-4.17,-4.44,-2.12,0.58,-0.77,
2.615,3.18,-4.17,-4.44,-2.14,0.45,-0.82,
2.615,3.32,-4.69,-2.85,-2.14,0.45,-0.82,
2.615,3.32,-4.69,-2.85,-2.16,0.33,-0.88,
2.615,3.32,-4.69,-2.85,-2.17,0.21,-0.93,
2.616,3.32,-4.69,-2.85,-2.18,0.08,-0.98,
2.616,3.32,-4.69,-2.85,-2.18,-0.04,-1.03,
2.616,3.32,-4.69,-2.85,-2.17,-0.16,-1.09,
2.616,3.63,-4.65,-1.58,-2.17,-0.16,-1.09,
2.616,3.63,-4.65,-1.58,-2.16,-0.27,-1.14,
2.616,3.63,-4.65,-1.58,-2.13,-0.39,-1.20,
2.619,3.63,-4.65,-1.58,-2.10,-0.50,-1.24,
2.634,3.63,-4.65,-1.58,-2.07,-0.61,-1.29,
2.635,3.63,-4.65,-1.58,-2.03,-0.71,-1.33,
2.635,3.30,-3.89,-0.44,-2.03,-0.71,-1.33,
2.635,3.30,-3.89,-0.44,-1.99,-0.81,-1.36,
2.636,3.30,-3.89,-0.44,-1.94,-0.91,-1.39,
2.636,3.30,-3.89,-0.44,-1.89,-1.01,-1.41,
2.636,3.30,-3.89,-0.44,-1.84,-1.09,-1.43,
2.636,3.30,-3.89,-0.44,-1.79,-1.18,-1.44,
2.637,2.60,-2.78,0.26,-1.79,-1.18,-1.44,
2.637,2.60,-2.78,0.26,-1.73,-1.25,-1.45,
2.637,2.60,-2.78,0.26,-1.65,-1.36,-1.45,
2.64,2.60,-2.78,0.26,-1.60,-1.42,-1.44,
2.64,2.60,-2.78,0.26,-1.57,-1.45,-1.44,
2.641,2.60,-2.78,0.26,-1.52,-1.49,-1.43,
2.644,1.83,-1.74,0.33,-1.52,-1.49,-1.43,
2.644,1.83,-1.74,0.33,-1.47,-1.54,-1.41,
2.646,1.83,-1.74,0.33,-1.42,-1.56,-1.39,
2.649,1.83,-1.74,0.33,-1.37,-1.57,-1.37,
2.649,1.83,-1.74,0.33,-1.32,-1.57,-1.35,
2.652,1.83,-1.74,0.33,-1.28,-1.57,-1.32,
2.654,1.31,-0.86,0.14,-1.28,-1.57,-1.32,
2.655,1.31,-0.86,0.14,-1.23,-1.56,-1.30,
2.656,1.31,-0.86,0.14,-1.19,-1.54,-1.27,
2.658,1.31,-0.86,0.14,-1.15,-1.52,-1.24,
2.659,1.31,-0.86,0.14,-1.11,-1.49,-1.22,
2.662,1.31,-0.86,0.14,-1.08,-1.45,-1.19,
2.664,1.15,-0.11,0.05,-1.08,-1.45,-1.19,
2.664,1.15,-0.11,0.05,-1.05,-1.41,-1.17,
2.666,1.15,-0.11,0.05,-1.02,-1.36,-1.15,
2.668,1.15,-0.11,0.05,-0.99,-1.30,-1.12,
2.67,1.15,-0.11,0.05,-0.96,-1.24,-1.10,
2.673,1.15,-0.11,0.05,-0.93,-1.17,-1.08,
2.674,0.99,0.55,0.14,-0.93,-1.17,-1.08,
2.674,0.99,0.55,0.14,-0.91,-1.10,-1.05,
2.676,0.99,0.55,0.14,-0.88,-1.02,-1.03,
2.677,0.99,0.55,0.14,-0.86,-0.94,-1.00,
2.679,0.99,0.55,0.14,-0.83,-0.85,-0.98,
2.681,0.99,0.55,0.14,-0.80,-0.74,-0.95,
2.685,0.60,1.16,0.80,-0.80,-0.74,-0.95,
2.686,0.60,1.16,0.80,-0.77,-0.60,-0.93,
2.686,0.60,1.16,0.80,-0.74,-0.44,-0.90,
2.688,0.60,1.16,0.80,-0.71,-0.24,-0.87,
2.692,0.60,1.16,0.80,-0.69,-0.02,-0.84,
2.692,0.60,1.16,0.80,-0.66,0.21,-0.82,
2.695,-0.42,1.86,2.18,-0.66,0.21,-0.82,
2.695,-0.42,1.86,2.18,-0.64,0.45,-0.79,
2.696,-0.42,1.86,2.18,-0.63,0.69,-0.76,
2.701,-0.42,1.86,2.18,-0.62,0.93,-0.73,
2.701,-0.42,1.86,2.18,-0.62,1.15,-0.70,
2.706,-0.42,1.86,2.18,-0.62,1.35,-0.66,
2.707,-1.11,1.90,2.09,-0.62,1.35,-0.66,
2.707,-1.11,1.90,2.09,-0.62,1.54,-0.63,
2.707,-1.11,1.90,2.09,-0.63,1.71,-0.60,
2.708,-1.11,1.90,2.09,-0.64,1.85,-0.57,
2.71,-1.11,1.90,2.09,-0.66,1.97,-0.53,
2.712,-1.11,1.90,2.09,-0.68,2.07,-0.50,
2.715,-1.39,1.50,1.60,-0.68,2.07,-0.50,
2.716,-1.39,1.50,1.60,-0.69,2.14,-0.47,
2.716,-1.39,1.50,1.60,-0.71,2.20,-0.44,
2.721,-1.39,1.50,1.60,-0.73,2.25,-0.39,
2.721,-1.39,1.50,1.60,-0.74,2.26,-0.38,
2.726,-1.39,1.50,1.60,-0.76,2.27,-0.35,
2.727,-1.30,0.98,1.46,-0.76,2.27,-0.35,
2.727,-1.30,0.98,1.46,-0.77,2.26,-0.33,
2.728,-1.30,0.98,1.46,-0.78,2.24,-0.31,
2.728,-1.30,0.98,1.46,-0.78,2.20,-0.29,
2.731,-1.30,0.98,1.46,-0.78,2.16,-0.27,
2.732,-1.30,0.98,1.46,-0.78,2.10,-0.26,
2.741,-1.03,0.49,1.72,-0.78,2.10,-0.26,
2.742,-1.03,0.49,1.72,-0.78,2.03,-0.25,
2.742,-1.03,0.49,1.72,-0.77,1.94,-0.24,
2.743,-1.03,0.49,1.72,-0.76,1.85,-0.23,
2.743,-1.03,0.49,1.72,-0.74,1.75,-0.22,
2.744,-1.03,0.49,1.72,-0.73,1.64,-0.21,
2.747,-0.73,0.07,1.83,-0.73,1.64,-0.21,
2.748,-0.73,0.07,1.83,-0.71,1.52,-0.20,
2.748,-0.73,0.07,1.83,-0.69,1.40,-0.20,
2.751,-0.73,0.07,1.83,-0.67,1.27,-0.19,
2.751,-0.73,0.07,1.83,-0.65,1.13,-0.19,
2.781,-0.73,0.07,1.83,-0.62,1.00,-0.19,
2.782,-0.50,-0.25,1.81,-0.62,1.00,-0.19,
2.783,-0.50,-0.25,1.81,-0.60,0.86,-0.19,
2.783,-0.50,-0.25,1.81,-0.56,0.65,-0.18,
2.783,-0.50,-0.25,1.81,-0.54,0.51,-0.18,
2.784,-0.50,-0.25,1.81,-0.53,0.44,-0.18,
2.784,-0.50,-0.25,1.81,-0.51,0.31,-0.18,
2.784,-0.18,-0.41,1.39,-0.51,0.31,-0.18,
2.785,-0.18,-0.41,1.39,-0.49,0.18,-0.18,
2.785,-0.18,-0.41,1.39,-0.48,0.05,-0.18,
2.785,-0.18,-0.41,1.39,-0.46,-0.14,-0.18,
2.785,-0.18,-0.41,1.39,-0.46,-0.20,-0.18,
2.786,-0.18,-0.41,1.39,-0.46,-0.31,-0.18,
2.786,0.06,-0.40,0.75,-0.46,-0.31,-0.18,
2.786,0.06,-0.40,0.75,-0.47,-0.43,-0.18,
2.787,0.06,-0.40,0.75,-0.48,-0.53,-0.18,
2.787,0.06,-0.40,0.75,-0.50,-0.68,-0.18,
2.787,0.06,-0.40,0.75,-0.51,-0.73,-0.18,
2.787,0.06,-0.40,0.75,-0.53,-0.82,-0.17,
2.788,0.20,-0.32,0.23,-0.53,-0.82,-0.17,
2.788,0.20,-0.32,0.23,-0.55,-0.90,-0.17,
2.81,0.20,-0.32,0.23,-0.58,-0.97,-0.17,
2.81,0.20,-0.32,0.23,-0.62,-1.05,-0.17,
2.811,0.20,-0.32,0.23,-0.63,-1.07,-0.17,
2.811,0.20,-0.32,0.23,-0.66,-1.11,-0.17,
2.811,0.26,-0.22,0.12,-0.66,-1.11,-0.17,
2.812,0.26,-0.22,0.12,-0.70,-1.14,-0.18,
2.812,0.26,-0.22,0.12,-0.73,-1.14,-0.18,
2.812,0.26,-0.22,0.12,-0.76,-1.14,-0.18,
2.812,0.26,-0.22,0.12,-0.77,-1.13,-0.18,
2.813,0.26,-0.22,0.12,-0.80,-1.10,-0.18,
2.813,0.15,-0.12,0.40,-0.80,-1.10,-0.18,
2.813,0.15,-0.12,0.40,-0.84,-1.03,-0.18,
2.813,0.15,-0.12,0.40,-0.86,-0.97,-0.18,
2.814,0.15,-0.12,0.40,-0.88,-0.90,-0.18,
2.814,0.15,-0.12,0.40,-0.89,-0.86,-0.18,
2.814,0.15,-0.12,0.40,-0.90,-0.77,-0.18,
2.823,0.13,0.24,1.05,-0.90,-0.77,-0.18,
2.823,0.13,0.24,1.05,-0.92,-0.62,-0.17,
2.824,0.13,0.24,1.05,-0.93,-0.52,-0.17,
2.824,0.13,0.24,1.05,-0.94,-0.40,-0.16,
2.824,0.13,0.24,1.05,-0.94,-0.35,-0.16,
2.824,0.13,0.24,1.05,-0.95,-0.17,-0.15,
2.825,0.30,0.51,1.72,-0.95,-0.17,-0.15,
2.825,0.30,0.51,1.72,-0.94,-0.05,-0.14,
2.827,0.30,0.51,1.72,-0.94,0.06,-0.13,
2.828,0.30,0.51,1.72,-0.93,0.18,-0.13,
2.83,0.30,0.51,1.72,-0.92,0.30,-0.12,
2.832,0.30,0.51,1.72,-0.90,0.40,-0.12,
2.836,0.72,0.58,2.69,-0.90,0.40,-0.12,
2.837,0.72,0.58,2.69,-0.88,0.51,-0.12,
2.837,0.72,0.58,2.69,-0.86,0.61,-0.13,
2.838,0.72,0.58,2.69,-0.83,0.70,-0.13,
2.84,0.72,0.58,2.69,-0.80,0.79,-0.13,
2.842,0.72,0.58,2.69,-0.76,0.87,-0.14,
2.844,1.08,0.52,3.63,-0.76,0.87,-0.14,
2.844,1.08,0.52,3.63,-0.72,0.95,-0.15,
2.846,1.08,0.52,3.63,-0.67,1.02,-0.15,
2.848,1.08,0.52,3.63,-0.63,1.08,-0.16,
2.849,1.08,0.52,3.63,-0.57,1.14,-0.17,
2.857,1.08,0.52,3.63,-0.52,1.20,-0.17,
2.857,0.99,0.03,4.94,-0.52,1.20,-0.17,
2.857,0.99,0.03,4.94,-0.46,1.24,-0.17,
2.858,0.99,0.03,4.94,-0.39,1.29,-0.17,
2.858,0.99,0.03,4.94,-0.33,1.33,-0.17,
2.86,0.99,0.03,4.94,-0.26,1.36,-0.17,
2.862,0.99,0.03,4.94,-0.18,1.39,-0.17,
2.864,0.30,-0.78,6.18,-0.18,1.39,-0.17,
2.864,0.30,-0.78,6.18,-0.11,1.41,-0.17,
2.866,0.30,-0.78,6.18,-0.04,1.43,-0.16,
2.884,0.30,-0.78,6.18,0.05,1.44,-0.16,
2.884,0.30,-0.78,6.18,0.13,1.44,-0.15,
2.885,0.30,-0.78,6.18,0.22,1.44,-0.14,
2.885,-0.59,-1.67,7.89,0.22,1.44,-0.14,
2.885,-0.59,-1.67,7.89,0.30,1.43,-0.13,
2.886,-0.59,-1.67,7.89,0.40,1.41,-0.12,
2.886,-0.59,-1.67,7.89,0.48,1.38,-0.11,
2.886,-0.59,-1.67,7.89,0.57,1.35,-0.10,
2.886,-0.59,-1.67,7.89,0.65,1.30,-0.08,
2.887,-1.62,-2.36,8.85,0.65,1.30,-0.08,
2.887,-1.62,-2.36,8.85,0.73,1.25,-0.07,
2.887,-1.62,-2.36,8.85,0.80,1.19,-0.05,
2.888,-1.62,-2.36,8.85,0.87,1.12,-0.04,
2.891,-1.62,-2.36,8.85,0.93,1.04,-0.02,
2.892,-1.62,-2.36,8.85,0.98,0.95,0.00,
2.894,-2.74,-2.50,8.66,0.98,0.95,0.00,
2.895,-2.74,-2.50,8.66,1.03,0.85,0.02,
2.896,-2.74,-2.50,8.66,1.07,0.75,0.04,
2.898,-2.74,-2.50,8.66,1.10,0.63,0.06,
2.901,-2.74,-2.50,8.66,1.12,0.51,0.09,
2.902,-2.74,-2.50,8.66,1.15,0.38,0.11,
2.904,-3.71,-1.94,6.95,1.15,0.38,0.11,
2.905,-3.71,-1.94,6.95,1.17,0.25,0.14,
2.906,-3.71,-1.94,6.95,1.19,0.11,0.17,
2.908,-3.71,-1.94,6.95,1.20,-0.03,0.21,
2.91,-3.71,-1.94,6.95,1.22,-0.18,0.24,
2.912,-3.71,-1.94,6.95,1.23,-0.32,0.28,
2.916,-4.58,-1.01,4.96,1.23,-0.32,0.28,
2.916,-4.58,-1.01,4.96,1.25,-0.47,0.32,
2.916,-4.58,-1.01,4.96,1.27,-0.62,0.36,
2.919,-4.58,-1.01,4.96,1.29,-0.78,0.40,
2.924,-4.58,-1.01,4.96,1.31,-0.92,0.45,
2.924,-4.58,-1.01,4.96,1.34,-1.07,0.50,
2.925,-5.04,-0.28,3.09,1.34,-1.07,0.50,
2.926,-5.04,-0.28,3.09,1.37,-1.21,0.56,
2.926,-5.04,-0.28,3.09,1.41,-1.35,0.61,
2.928,-5.04,-0.28,3.09,1.46,-1.47,0.67,
2.93,-5.04,-0.28,3.09,1.51,-1.58,0.73,
2.932,-5.04,-0.28,3.09,1.57,-1.68,0.79,
2.934,-5.69,-0.30,2.23,1.57,-1.68,0.79,
2.935,-5.69,-0.30,2.23,1.63,-1.77,0.86,
2.939,-5.69,-0.30,2.23,1.71,-1.83,0.92,
2.94,-5.69,-0.30,2.23,1.80,-1.89,0.99,
2.94,-5.69,-0.30,2.23,1.90,-1.92,1.07,
2.941,-5.69,-0.30,2.23,2.01,-1.94,1.14,
2.944,-6.43,-0.97,2.65,2.01,-1.94,1.14,
2.944,-6.43,-0.97,2.65,2.13,-1.94,1.22,
2.946,-6.43,-0.97,2.65,2.26,-1.93,1.29,
2.948,-6.43,-0.97,2.65,2.39,-1.90,1.37,
2.951,-6.43,-0.97,2.65,2.53,-1.86,1.44,
2.952,-6.43,-0.97,2.65,2.68,-1.81,1.51,
2.968,-6.76,-1.97,3.69,2.68,-1.81,1.51,
2.969,-6.76,-1.97,3.69,2.82,-1.75,1.58,
2.969,-6.76,-1.97,3.69,2.96,-1.69,1.63,
2.969,-6.76,-1.97,3.69,3.09,-1.63,1.67,
2.974,-6.76,-1.97,3.69,3.20,-1.57,1.70,
2.974,-6.76,-1.97,3.69,3.30,-1.52,1.71,
2.975,-4.78,-3.20,2.72,3.30,-1.52,1.71,
2.975,-4.78,-3.20,2.72,3.37,-1.48,1.70,
2.976,-4.78,-3.20,2.72,3.43,-1.44,1.69,
2.976,-4.78,-3.20,2.72,3.46,-1.42,1.67,
2.976,-4.78,-3.20,2.72,3.48,-1.40,1.64,
2.976,-4.78,-3.20,2.72,3.49,-1.39,1.61,
2.978,-2.23,-3.89,-0.42,3.49,-1.39,1.61,
2.978,-2.23,-3.89,-0.42,3.48,-1.39,1.58,
2.978,-2.23,-3.89,-0.42,3.45,-1.39,1.55,
2.978,-2.23,-3.89,-0.42,3.42,-1.40,1.52,
2.98,-2.23,-3.89,-0.42,3.39,-1.41,1.50,
2.982,-2.23,-3.89,-0.42,3.35,-1.44,1.48,
2.985,-1.26,-3.94,-2.86,3.35,-1.44,1.48,
2.985,-1.26,-3.94,-2.86,3.31,-1.46,1.46,
2.988,-1.26,-3.94,-2.86,3.26,-1.49,1.45,
2.988,-1.26,-3.94,-2.86,3.22,-1.53,1.45,
2.989,-1.26,-3.94,-2.86,3.17,-1.57,1.46,
2.992,-1.26,-3.94,-2.86,3.13,-1.61,1.48,
2.994,-1.73,-3.52,-4.20,3.13,-1.61,1.48,
2.994,-1.73,-3.52,-4.20,3.09,-1.65,1.51,
2.997,-1.73,-3.52,-4.20,3.06,-1.69,1.54,
2.997,-1.73,-3.52,-4.20,3.03,-1.74,1.58,
3.003,-1.73,-3.52,-4.20,3.00,-1.78,1.62,
3.004,-1.73,-3.52,-4.20,2.97,-1.83,1.67,
3.007,-2.61,-2.92,-4.28,2.97,-1.83,1.67,
3.007,-2.61,-2.92,-4.28,2.95,-1.87,1.71,
3.007,-2.61,-2.92,-4.28,2.93,-1.92,1.76,
3.008,-2.61,-2.92,-4.28,2.90,-1.97,1.81,
3.01,-2.61,-2.92,-4.28,2.88,-2.02,1.86,
3.012,-2.61,-2.92,-4.28,2.85,-2.07,1.91,
3.016,-2.92,-2.76,-4.59,2.85,-2.07,1.91,
3.021,-2.92,-2.76,-4.59,2.83,-2.13,1.95,
3.021,-2.92,-2.76,-4.59,2.80,-2.18,2.00,
3.022,-2.92,-2.76,-4.59,2.77,-2.24,2.04,
3.022,-2.92,-2.76,-4.59,2.74,-2.29,2.09,
3.022,-2.92,-2.76,-4.59,2.70,-2.35,2.13,
3.026,-3.12,-2.95,-4.93,2.70,-2.35,2.13,
3.026,-3.12,-2.95,-4.93,2.67,-2.40,2.18,
3.026,-3.12,-2.95,-4.93,2.64,-2.45,2.22,
3.028,-3.12,-2.95,-4.93,2.61,-2.49,2.27,
3.03,-3.12,-2.95,-4.93,2.57,-2.53,2.31,
3.031,-3.12,-2.95,-4.93,2.54,-2.56,2.35,
3.034,-3.58,-3.38,-5.24,2.54,-2.56,2.35,
3.034,-3.58,-3.38,-5.24,2.51,-2.59,2.40,
3.037,-3.58,-3.38,-5.24,2.48,-2.62,2.44,
3.038,-3.58,-3.38,-5.24,2.45,-2.65,2.48,
3.039,-3.58,-3.38,-5.24,2.43,-2.66,2.52,
3.041,-3.58,-3.38,-5.24,2.41,-2.67,2.57,
3.044,-4.34,-4.10,-4.91,2.41,-2.67,2.57,
3.044,-4.34,-4.10,-4.91,2.39,-2.68,2.61,
3.045,-4.34,-4.10,-4.91,2.39,-2.67,2.65,
3.047,-4.34,-4.10,-4.91,2.38,-2.66,2.69,
3.049,-4.34,-4.10,-4.91,2.39,-2.64,2.73,
3.051,-4.34,-4.10,-4.91,2.39,-2.62,2.77,
3.054,-5.46,-5.23,-3.94,2.39,-2.62,2.77,
3.054,-5.46,-5.23,-3.94,2.41,-2.58,2.80,
3.056,-5.46,-5.23,-3.94,2.42,-2.55,2.83,
3.057,-5.46,-5.23,-3.94,2.45,-2.51,2.86,
3.059,-5.46,-5.23,-3.94,2.48,-2.48,2.87,
3.061,-5.46,-5.23,-3.94,2.51,-2.44,2.88,
3.064,-5.78,-6.50,-2.63,2.51,-2.44,2.88,
3.064,-5.78,-6.50,-2.63,2.55,-2.41,2.86,
3.066,-5.78,-6.50,-2.63,2.58,-2.38,2.83,
3.067,-5.78,-6.50,-2.63,2.62,-2.35,2.80,
3.069,-5.78,-6.50,-2.63,2.65,-2.32,2.73,
3.071,-5.78,-6.50,-2.63,2.69,-2.28,2.65,
3.074,-4.10,-7.62,-1.87,2.69,-2.28,2.65,
3.074,-4.10,-7.62,-1.87,2.72,-2.24,2.56,
3.076,-4.10,-7.62,-1.87,2.75,-2.19,2.45,
3.077,-4.10,-7.62,-1.87,2.77,-2.13,2.33,
3.08,-4.10,-7.62,-1.87,2.78,-2.06,2.20,
3.081,-4.10,-7.62,-1.87,2.79,-1.98,2.06,
3.084,-1.70,-8.16,-1.91,2.79,-1.98,2.06,
3.084,-1.70,-8.16,-1.91,2.79,-1.88,1.93,
3.086,-1.70,-8.16,-1.91,2.77,-1.77,1.80,
3.088,-1.70,-8.16,-1.91,2.75,-1.66,1.69,
3.089,-1.70,-8.16,-1.91,2.73,-1.54,1.59,
3.091,-1.70,-8.16,-1.91,2.68,-1.42,1.51,
3.094,-0.99,-7.92,-3.01,2.68,-1.42,1.51,
3.094,-0.99,-7.92,-3.01,2.63,-1.30,1.44,
3.096,-0.99,-7.92,-3.01,2.57,-1.18,1.39,
3.097,-0.99,-7.92,-3.01,2.51,-1.06,1.35,
3.099,-0.99,-7.92,-3.01,2.44,-0.95,1.31,
3.101,-0.99,-7.92,-3.01,2.36,-0.86,1.28,
3.104,-1.07,-6.73,-4.19,2.36,-0.86,1.28,
3.105,-1.07,-6.73,-4.19,2.27,-0.78,1.26,
3.106,-1.07,-6.73,-4.19,2.18,-0.73,1.24,
3.107,-1.07,-6.73,-4.19,2.08,-0.69,1.22,
3.109,-1.07,-6.73,-4.19,1.98,-0.67,1.20,
3.111,-1.07,-6.73,-4.19,1.89,-0.67,1.18,
3.114,-0.12,-5.07,-5.25,1.89,-0.67,1.18,
3.114,-0.12,-5.07,-5.25,1.79,-0.69,1.15,
3.116,-0.12,-5.07,-5.25,1.70,-0.72,1.12,
3.118,-0.12,-5.07,-5.25,1.61,-0.75,1.08,
3.134,-0.12,-5.07,-5.25,1.52,-0.81,1.05,
3.135,-0.12,-5.07,-5.25,1.43,-0.87,1.01,
3.135,1.52,-3.37,-5.58,1.43,-0.87,1.01,
3.135,1.52,-3.37,-5.58,1.34,-0.94,0.96,
3.135,1.52,-3.37,-5.58,1.26,-1.01,0.92,
3.135,1.52,-3.37,-5.58,1.17,-1.08,0.86,
3.135,1.52,-3.37,-5.58,1.09,-1.16,0.80,
3.136,1.52,-3.37,-5.58,1.01,-1.23,0.74,
3.136,3.39,-2.19,-6.15,1.01,-1.23,0.74,
3.136,3.39,-2.19,-6.15,0.93,-1.29,0.67,
3.136,3.39,-2.19,-6.15,0.85,-1.34,0.59,
3.142,3.39,-2.19,-6.15,0.78,-1.38,0.52,
3.142,3.39,-2.19,-6.15,0.71,-1.41,0.44,
3.144,3.39,-2.19,-6.15,0.65,-1.43,0.36,
3.144,4.63,-1.14,-6.30,0.65,-1.43,0.36,
3.144,4.63,-1.14,-6.30,0.60,-1.45,0.29,
3.146,4.63,-1.14,-6.30,0.55,-1.46,0.22,
3.148,4.63,-1.14,-6.30,0.51,-1.47,0.17,
3.166,4.63,-1.14,-6.30,0.48,-1.47,0.11,
3.166,4.63,-1.14,-6.30,0.45,-1.48,0.07,
3.166,4.43,-0.52,-5.97,0.45,-1.48,0.07,
3.166,4.43,-0.52,-5.97,0.43,-1.50,0.03,
3.167,4.43,-0.52,-5.97,0.43,-1.51,-0.01,
3.167,4.43,-0.52,-5.97,0.42,-1.51,-0.04,
3.167,4.43,-0.52,-5.97,0.42,-1.52,-0.06,
3.167,4.43,-0.52,-5.97,0.43,-1.52,-0.08,
3.167,3.76,0.48,-5.26,0.43,-1.52,-0.08,
3.167,3.76,0.48,-5.26,0.44,-1.52,-0.09,
3.167,3.76,0.48,-5.26,0.44,-1.52,-0.10,
3.168,3.76,0.48,-5.26,0.45,-1.53,-0.10,
3.169,3.76,0.48,-5.26,0.46,-1.53,-0.10,
3.171,3.76,0.48,-5.26,0.46,-1.54,-0.10,
3.174,3.19,1.53,-5.39,0.46,-1.54,-0.10,
3.174,3.19,1.53,-5.39,0.46,-1.54,-0.10,
3.177,3.19,1.53,-5.39,0.47,-1.55,-0.10,
3.182,3.19,1.53,-5.39,0.47,-1.55,-0.09,
3.182,3.19,1.53,-5.39,0.47,-1.54,-0.09,
3.183,3.19,1.53,-5.39,0.47,-1.54,-0.09,
3.185,3.02,2.79,-5.35,0.47,-1.54,-0.09,
3.185,3.02,2.79,-5.35,0.47,-1.52,-0.08,
3.186,3.02,2.79,-5.35,0.47,-1.51,-0.08,
3.188,3.02,2.79,-5.35,0.47,-1.49,-0.08,
3.189,3.02,2.79,-5.35,0.46,-1.46,-0.07,
3.193,3.02,2.79,-5.35,0.46,-1.44,-0.05,
3.194,2.71,3.66,-5.44,0.46,-1.44,-0.05,
3.194,2.71,3.66,-5.44,0.45,-1.42,-0.04,
3.196,2.71,3.66,-5.44,0.44,-1.39,-0.03,
3.199,2.71,3.66,-5.44,0.43,-1.37,-0.02,
3.201,2.71,3.66,-5.44,0.42,-1.34,-0.01,
3.202,2.71,3.66,-5.44,0.40,-1.31,0.01,
3.204,2.39,4.46,-5.44,0.40,-1.31,0.01,
3.205,2.39,4.46,-5.44,0.39,-1.27,0.02,
3.206,2.39,4.46,-5.44,0.37,-1.23,0.03,
3.208,2.39,4.46,-5.44,0.35,-1.19,0.04,
3.21,2.39,4.46,-5.44,0.33,-1.15,0.05,
3.212,2.39,4.46,-5.44,0.31,-1.11,0.07,
3.214,2.16,4.90,-5.77,0.31,-1.11,0.07,
3.215,2.16,4.90,-5.77,0.28,-1.06,0.07,
3.217,2.16,4.90,-5.77,0.26,-1.01,0.08,
3.219,2.16,4.90,-5.77,0.24,-0.96,0.09,
3.22,2.16,4.90,-5.77,0.21,-0.91,0.09,
3.222,2.16,4.90,-5.77,0.19,-0.86,0.09,
3.225,2.25,5.30,-5.63,0.19,-0.86,0.09,
3.225,2.25,5.30,-5.63,0.17,-0.82,0.09,
3.226,2.25,5.30,-5.63,0.14,-0.77,0.09,
3.228,2.25,5.30,-5.63,0.11,-0.72,0.09,
3.23,2.25,5.30,-5.63,0.08,-0.68,0.09,
3.232,2.25,5.30,-5.63,0.05,-0.63,0.08,
3.235,2.35,5.60,-5.67,0.05,-0.63,0.08,
3.235,2.35,5.60,-5.67,0.01,-0.58,0.07,
3.236,2.35,5.60,-5.67,-0.02,-0.54,0.06,
3.238,2.35,5.60,-5.67,-0.06,-0.49,0.05,
3.24,2.35,5.60,-5.67,-0.10,-0.45,0.05,
3.242,2.35,5.60,-5.67,-0.15,-0.41,0.04,
3.244,2.64,6.00,-5.48,-0.15,-0.41,0.04,
3.245,2.64,6.00,-5.48,-0.19,-0.36,0.03,
3.246,2.64,6.00,-5.48,-0.24,-0.31,0.02,
3.248,2.64,6.00,-5.48,-0.29,-0.27,0.01,
3.25,2.64,6.00,-5.48,-0.34,-0.21,0.00,
3.252,2.64,6.00,-5.48,-0.40,-0.16,-0.01,
3.254,2.79,6.36,-5.57,-0.40,-0.16,-0.01,
3.255,2.79,6.36,-5.57,-0.45,-0.09,-0.02,
3.256,2.79,6.36,-5.57,-0.51,-0.03,-0.03,
3.257,2.79,6.36,-5.57,-0.57,0.05,-0.05,
3.259,2.79,6.36,-5.57,-0.63,0.13,-0.07,
3.261,2.79,6.36,-5.57,-0.70,0.21,-0.08,
3.265,3.19,6.73,-5.48,-0.70,0.21,-0.08,
3.265,3.19,6.73,-5.48,-0.77,0.30,-0.10,
3.266,3.19,6.73,-5.48,-0.84,0.40,-0.12,
3.269,3.19,6.73,-5.48,-0.92,0.49,-0.14,
3.27,3.19,6.73,-5.48,-1.00,0.60,-0.16,
3.271,3.19,6.73,-5.48,-1.08,0.70,-0.19,
3.274,3.61,6.93,-5.80,-1.08,0.70,-0.19,
3.275,3.61,6.93,-5.80,-1.16,0.80,-0.22,
3.276,3.61,6.93,-5.80,-1.25,0.90,-0.24,
3.278,3.61,6.93,-5.80,-1.34,1.00,-0.27,
3.28,3.61,6.93,-5.80,-1.43,1.09,-0.30,
3.282,3.61,6.93,-5.80,-1.52,1.18,-0.32,
3.287,3.92,7.17,-5.72,-1.52,1.18,-0.32,
3.287,3.92,7.17,-5.72,-1.62,1.26,-0.35,
3.304,3.92,7.17,-5.72,-1.71,1.34,-0.37,
3.305,3.92,7.17,-5.72,-1.79,1.41,-0.40,
3.305,3.92,7.17,-5.72,-1.89,1.48,-0.42,
3.305,3.92,7.17,-5.72,-1.98,1.54,-0.45,
3.306,3.86,7.12,-5.73,-1.98,1.54,-0.45,
3.306,3.86,7.12,-5.73,-2.07,1.59,-0.47,
3.307,3.86,7.12,-5.73,-2.15,1.64,-0.49,
3.307,3.86,7.12,-5.73,-2.24,1.68,-0.51,
3.307,3.86,7.12,-5.73,-2.32,1.71,-0.52,
3.307,3.86,7.12,-5.73,-2.40,1.74,-0.54,
3.308,3.67,7.04,-5.16,-2.40,1.74,-0.54,
3.308,3.67,7.04,-5.16,-2.47,1.75,-0.55,
3.308,3.67,7.04,-5.16,-2.54,1.76,-0.57,
3.308,3.67,7.04,-5.16,-2.61,1.75,-0.58,
3.32,3.67,7.04,-5.16,-2.66,1.74,-0.59,
3.32,3.67,7.04,-5.16,-2.72,1.72,-0.60,
3.321,3.51,6.84,-4.35,-2.72,1.72,-0.60,
3.321,3.51,6.84,-4.35,-2.78,1.70,-0.61,
3.321,3.51,6.84,-4.35,-2.82,1.66,-0.63,
3.321,3.51,6.84,-4.35,-2.87,1.62,-0.64,
3.322,3.51,6.84,-4.35,-2.91,1.58,-0.66,
3.327,3.51,6.84,-4.35,-2.94,1.52,-0.67,
3.327,3.54,6.55,-3.04,-2.94,1.52,-0.67,
3.328,3.54,6.55,-3.04,-2.97,1.47,-0.68,
3.328,3.54,6.55,-3.04,-3.00,1.41,-0.70,
3.328,3.54,6.55,-3.04,-3.03,1.35,-0.72,
3.33,3.54,6.55,-3.04,-3.05,1.29,-0.74,
3.363,3.54,6.55,-3.04,-3.07,1.23,-0.77,
3.364,3.60,6.09,-1.96,-3.07,1.23,-0.77,
3.364,3.60,6.09,-1.96,-3.09,1.17,-0.79,
3.364,3.60,6.09,-1.96,-3.11,1.11,-0.82,
3.364,3.60,6.09,-1.96,-3.13,1.05,-0.84,
3.365,3.60,6.09,-1.96,-3.15,1.00,-0.87,
3.365,3.60,6.09,-1.96,-3.16,0.93,-0.90,
3.365,3.46,5.54,-1.15,-3.16,0.93,-0.90,
3.365,3.46,5.54,-1.15,-3.18,0.87,-0.93,
3.365,3.46,5.54,-1.15,-3.20,0.81,-0.96,
3.365,3.46,5.54,-1.15,-3.21,0.75,-1.00,
3.365,3.46,5.54,-1.15,-3.22,0.67,-1.04,
3.366,3.46,5.54,-1.15,-3.19,0.57,-1.09,
3.366,3.66,4.57,0.67,-3.19,0.57,-1.09,
3.366,3.66,4.57,0.67,-3.09,0.41,-1.14,
3.366,3.66,4.57,0.67,-2.88,0.15,-1.21,
3.366,3.66,4.57,0.67,-2.58,-0.20,-1.29,
3.366,3.66,4.57,0.67,-2.24,-0.59,-1.38,
3.366,3.66,4.57,0.67,-1.89,-0.99,-1.46,
3.367,4.54,3.01,13.28,-1.89,-0.99,-1.46,
3.367,4.54,3.01,13.28,-1.55,-1.36,-1.53,
3.367,4.54,3.01,13.28,-1.23,-1.69,-1.58,
3.368,4.54,3.01,13.28,-0.92,-1.95,-1.63,
3.37,4.54,3.01,13.28,-0.65,-2.05,-1.66,
3.372,4.54,3.01,13.28,-0.45,-1.95,-1.67,
3.375,2.74,0.83,16.18,-0.45,-1.95,-1.67,
3.375,2.74,0.83,16.18,-0.34,-1.70,-1.66,
3.376,2.74,0.83,16.18,-0.35,-1.33,-1.62,
3.378,2.74,0.83,16.18,-0.49,-0.83,-1.55,
3.38,2.74,0.83,16.18,-0.69,-0.36,-1.45,
3.382,2.74,0.83,16.18,-0.89,-0.02,-1.35,
3.384,-0.41,-1.34,10.08,-0.89,-0.02,-1.35,
3.385,-0.41,-1.34,10.08,-1.09,0.23,-1.24,
3.386,-0.41,-1.34,10.08,-1.29,0.42,-1.13,
3.388,-0.41,-1.34,10.08,-1.48,0.55,-1.01,
3.389,-0.41,-1.34,10.08,-1.65,0.65,-0.90,
3.391,-0.41,-1.34,10.08,-1.81,0.70,-0.80,
3.394,-1.69,-1.61,7.84,-1.81,0.70,-0.80,
3.395,-1.69,-1.61,7.84,-1.95,0.71,-0.71,
3.396,-1.69,-1.61,7.84,-2.07,0.69,-0.63,
3.401,-1.69,-1.61,7.84,-2.16,0.64,-0.57,
3.402,-1.69,-1.61,7.84,-2.24,0.57,-0.52,
3.405,-1.69,-1.61,7.84,-2.29,0.49,-0.48,
3.405,-0.96,-1.57,7.41,-2.29,0.49,-0.48,
3.406,-0.96,-1.57,7.41,-2.33,0.39,-0.44,
3.406,-0.96,-1.57,7.41,-2.35,0.29,-0.42,
3.408,-0.96,-1.57,7.41,-2.35,0.18,-0.41,
3.41,-0.96,-1.57,7.41,-2.35,0.08,-0.41,
3.413,-0.96,-1.57,7.41,-2.33,-0.03,-0.41,
3.417,-0.39,-1.48,7.03,-2.33,-0.03,-0.41,
3.419,-0.39,-1.48,7.03,-2.29,-0.13,-0.42,
3.42,-0.39,-1.48,7.03,-2.15,-0.44,-0.49,
3.422,-0.39,-1.48,7.03,-2.15,-0.44,-0.49,
3.422,-0.39,-1.48,7.03,-2.15,-0.44,-0.49,
3.422,-0.39,-1.48,7.03,-2.07,-0.59,-0.53,
3.426,0.01,-0.96,5.98,-2.07,-0.59,-0.53,
3.427,0.01,-0.96,5.98,-2.04,-0.63,-0.55,
3.429,0.01,-0.96,5.98,-1.98,-0.72,-0.58,
3.434,0.01,-0.96,5.98,-1.91,-0.80,-0.61,
3.435,0.01,-0.96,5.98,-1.85,-0.87,-0.65,
3.435,0.01,-0.96,5.98,-1.79,-0.94,-0.68,
3.435,-0.06,-0.60,4.86,-1.79,-0.94,-0.68,
3.435,-0.06,-0.60,4.86,-1.73,-1.00,-0.71,
3.436,-0.06,-0.60,4.86,-1.67,-1.04,-0.74,
3.438,-0.06,-0.60,4.86,-1.62,-1.08,-0.76,
3.465,-0.06,-0.60,4.86,-1.57,-1.11,-0.79,
3.466,-0.06,-0.60,4.86,-1.52,-1.12,-0.81,
3.466,-0.64,-0.64,3.63,-1.52,-1.12,-0.81,
3.466,-0.64,-0.64,3.63,-1.48,-1.12,-0.83,
3.466,-0.64,-0.64,3.63,-1.44,-1.11,-0.85,
3.467,-0.64,-0.64,3.63,-1.40,-1.08,-0.86,
3.467,-0.64,-0.64,3.63,-1.37,-1.05,-0.87,
3.467,-0.64,-0.64,3.63,-1.34,-1.01,-0.87,
3.486,-1.75,-0.79,2.65,-1.34,-1.01,-0.87,
3.486,-1.75,-0.79,2.65,-1.31,-0.96,-0.87,
3.486,-1.75,-0.79,2.65,-1.28,-0.90,-0.86,
3.486,-1.75,-0.79,2.65,-1.26,-0.84,-0.85,
3.487,-1.75,-0.79,2.65,-1.24,-0.77,-0.83,
3.487,-1.75,-0.79,2.65,-1.22,-0.70,-0.81,
3.487,-2.81,-0.74,1.89,-1.22,-0.70,-0.81,
3.488,-2.81,-0.74,1.89,-1.20,-0.63,-0.79,
3.488,-2.81,-0.74,1.89,-1.17,-0.56,-0.76,
3.488,-2.81,-0.74,1.89,-1.15,-0.49,-0.74,
3.488,-2.81,-0.74,1.89,-1.13,-0.42,-0.71,
3.489,-2.81,-0.74,1.89,-1.11,-0.36,-0.68,
3.489,-3.19,-0.40,1.54,-1.11,-0.36,-0.68,
3.489,-3.19,-0.40,1.54,-1.09,-0.30,-0.65,
3.489,-3.19,-0.40,1.54,-1.07,-0.24,-0.62,
3.49,-3.19,-0.40,1.54,-1.05,-0.20,-0.59,
3.49,-3.19,-0.40,1.54,-1.03,-0.16,-0.56,
3.49,-3.19,-0.40,1.54,-1.00,-0.13,-0.52,
3.49,-2.72,0.14,1.29,-1.00,-0.13,-0.52,
3.491,-2.72,0.14,1.29,-0.98,-0.11,-0.49,
3.491,-2.72,0.14,1.29,-0.96,-0.09,-0.46,
3.491,-2.72,0.14,1.29,-0.93,-0.07,-0.43,
3.492,-2.72,0.14,1.29,-0.89,-0.07,-0.40,
3.492,-2.72,0.14,1.29,-0.86,-0.07,-0.38,
3.498,-2.21,0.76,1.55,-0.86,-0.07,-0.38,
3.499,-2.21,0.76,1.55,-0.83,-0.07,-0.35,
3.499,-2.21,0.76,1.55,-0.79,-0.08,-0.32,
3.5,-2.21,0.76,1.55,-0.73,-0.09,-0.30,
3.5,-2.21,0.76,1.55,-0.67,-0.10,-0.27,
3.501,-2.21,0.76,1.55,-0.60,-0.11,-0.25,
3.504,-2.04,1.02,2.88,-0.60,-0.11,-0.25,
3.504,-2.04,1.02,2.88,-0.51,-0.12,-0.22,
3.506,-2.04,1.02,2.88,-0.40,-0.12,-0.19,
3.509,-2.04,1.02,2.88,-0.27,-0.13,-0.16,
3.509,-2.04,1.02,2.88,-0.12,-0.12,-0.12,
3.511,-2.04,1.02,2.88,0.05,-0.09,-0.07,
3.515,-3.34,0.38,6.64,0.05,-0.09,-0.07,
3.515,-3.34,0.38,6.64,0.22,-0.04,-0.02,
3.516,-3.34,0.38,6.64,0.42,0.03,0.03,
3.518,-3.34,0.38,6.64,0.63,0.13,0.10,
3.52,-3.34,0.38,6.64,0.85,0.26,0.17,
3.522,-3.34,0.38,6.64,1.07,0.42,0.25,
3.524,-5.20,-1.15,10.46,1.07,0.42,0.25,
3.524,-5.20,-1.15,10.46,1.29,0.62,0.33,
3.526,-5.20,-1.15,10.46,1.50,0.84,0.43,
3.528,-5.20,-1.15,10.46,1.69,1.08,0.52,
3.531,-5.20,-1.15,10.46,1.87,1.35,0.63,
3.533,-5.20,-1.15,10.46,2.02,1.63,0.73,
3.535,-6.79,-3.22,10.74,2.02,1.63,0.73,
3.535,-6.79,-3.22,10.74,2.14,1.91,0.83,
3.536,-6.79,-3.22,10.74,2.24,2.19,0.93,
3.538,-6.79,-3.22,10.74,2.30,2.46,1.02,
3.539,-6.79,-3.22,10.74,2.33,2.72,1.11,
3.542,-6.79,-3.22,10.74,2.33,2.94,1.18,
3.545,-6.62,-4.88,6.44,2.33,2.94,1.18,
3.545,-6.62,-4.88,6.44,2.29,3.13,1.24,
3.545,-6.62,-4.88,6.44,2.20,3.26,1.28,
3.548,-6.62,-4.88,6.44,2.08,3.33,1.30,
3.552,-6.62,-4.88,6.44,1.92,3.33,1.31,
3.553,-6.62,-4.88,6.44,1.74,3.27,1.30,
3.555,-4.39,-5.69,-1.07,1.74,3.27,1.30,
3.555,-4.39,-5.69,-1.07,1.53,3.13,1.27,
3.556,-4.39,-5.69,-1.07,1.31,2.92,1.23,
3.557,-4.39,-5.69,-1.07,1.08,2.66,1.17,
3.563,-4.39,-5.69,-1.07,0.87,2.34,1.10,
3.563,-4.39,-5.69,-1.07,0.66,1.98,1.04,
3.569,-2.52,-5.97,-5.72,0.66,1.98,1.04,
3.57,-2.52,-5.97,-5.72,0.48,1.59,0.97,
3.57,-2.52,-5.97,-5.72,0.31,1.18,0.91,
3.57,-2.52,-5.97,-5.72,0.18,0.76,0.85,
3.57,-2.52,-5.97,-5.72,0.08,0.32,0.80,
3.576,-2.52,-5.97,-5.72,0.03,-0.14,0.76,
3.577,-3.13,-6.96,-3.60,0.03,-0.14,0.76,
3.577,-3.13,-6.96,-3.60,0.05,-0.63,0.73,
3.577,-3.13,-6.96,-3.60,0.15,-1.15,0.72,
3.579,-3.13,-6.96,-3.60,0.36,-1.70,0.72,
3.611,-3.13,-6.96,-3.60,0.69,-2.28,0.74,
3.612,-3.13,-6.96,-3.60,1.14,-2.87,0.77,
3.612,-6.80,-10.07,12.26,1.14,-2.87,0.77,
3.612,-6.80,-10.07,12.26,1.67,-3.40,0.83,
3.612,-6.80,-10.07,12.26,2.24,-3.76,0.90,
3.612,-6.80,-10.07,12.26,2.80,-3.84,0.98,
3.613,-6.80,-10.07,12.26,3.28,-3.62,1.08,
3.613,-6.80,-10.07,12.26,3.64,-3.15,1.17,
3.613,-12.56,-13.92,20.89,3.64,-3.15,1.17,
3.613,-12.56,-13.92,20.89,3.85,-2.47,1.26,
3.614,-12.56,-13.92,20.89,3.91,-1.69,1.34,
3.614,-12.56,-13.92,20.89,3.82,-0.89,1.39,
3.614,-12.56,-13.92,20.89,3.59,-0.14,1.41,
3.614,-12.56,-13.92,20.89,3.26,0.49,1.41,
3.615,-9.91,-13.35,1.34,3.26,0.49,1.41,
3.615,-9.91,-13.35,1.34,2.84,0.97,1.37,
3.617,-9.91,-13.35,1.34,2.38,1.30,1.31,
3.618,-9.91,-13.35,1.34,1.88,1.48,1.23,
3.618,-9.91,-13.35,1.34,1.39,1.54,1.14,
3.618,-9.91,-13.35,1.34,0.90,1.49,1.05,
3.619,-2.16,-8.89,-12.57,0.90,1.49,1.05,
3.619,-2.16,-8.89,-12.57,0.45,1.38,0.95,
3.619,-2.16,-8.89,-12.57,0.04,1.22,0.85,
3.62,-2.16,-8.89,-12.57,-0.33,1.03,0.74,
3.636,-2.16,-8.89,-12.57,-0.66,0.81,0.63,
3.636,-2.16,-8.89,-12.57,-0.96,0.56,0.52,
3.636,2.27,-5.10,-12.19,-0.96,0.56,0.52,
3.637,2.27,-5.10,-12.19,-1.22,0.29,0.41,
3.637,2.27,-5.10,-12.19,-1.46,0.01,0.30,
3.637,2.27,-5.10,-12.19,-1.66,-0.28,0.20,
3.638,2.27,-5.10,-12.19,-1.83,-0.57,0.10,
3.638,2.27,-5.10,-12.19,-1.98,-0.85,0.01,
3.638,4.07,-3.40,-8.53,-1.98,-0.85,0.01,
3.638,4.07,-3.40,-8.53,-2.11,-1.12,-0.08,
3.638,4.07,-3.40,-8.53,-2.22,-1.37,-0.17,
3.639,4.07,-3.40,-8.53,-2.32,-1.60,-0.25,
3.643,4.07,-3.40,-8.53,-2.40,-1.81,-0.34,
3.643,4.07,-3.40,-8.53,-2.47,-2.01,-0.42,
3.644,4.75,-2.89,-5.23,-2.47,-2.01,-0.42,
3.644,4.75,-2.89,-5.23,-2.54,-2.20,-0.51,
3.65,4.75,-2.89,-5.23,-2.60,-2.37,-0.60,
3.65,4.75,-2.89,-5.23,-2.65,-2.53,-0.70,
3.651,4.75,-2.89,-5.23,-2.70,-2.69,-0.79,
3.652,4.75,-2.89,-5.23,-2.75,-2.83,-0.88,
3.654,5.64,-3.24,-3.71,-2.75,-2.83,-0.88,
3.654,5.64,-3.24,-3.71,-2.80,-2.97,-0.98,
3.655,5.64,-3.24,-3.71,-2.84,-3.10,-1.07,
3.657,5.64,-3.24,-3.71,-2.88,-3.22,-1.17,
3.66,5.64,-3.24,-3.71,-2.91,-3.32,-1.27,
3.661,5.64,-3.24,-3.71,-2.93,-3.41,-1.36,
3.665,5.92,-3.75,-2.90,-2.93,-3.41,-1.36,
3.665,5.92,-3.75,-2.90,-2.96,-3.49,-1.46,
3.666,5.92,-3.75,-2.90,-2.98,-3.56,-1.55,
3.668,5.92,-3.75,-2.90,-2.99,-3.61,-1.65,
3.67,5.92,-3.75,-2.90,-3.00,-3.65,-1.73,
3.672,5.92,-3.75,-2.90,-3.01,-3.67,-1.82,
3.674,5.84,-4.48,-2.54,-3.01,-3.67,-1.82,
3.674,5.84,-4.48,-2.54,-3.01,-3.69,-1.90,
3.678,5.84,-4.48,-2.54,-3.01,-3.70,-1.97,
3.678,5.84,-4.48,-2.54,-3.00,-3.71,-2.03,
3.686,5.84,-4.48,-2.54,-2.99,-3.71,-2.08,
3.687,5.84,-4.48,-2.54,-2.98,-3.70,-2.13,
3.687,4.72,-5.08,-2.10,-2.98,-3.70,-2.13,
3.688,4.72,-5.08,-2.10,-2.96,-3.68,-2.17,
3.688,4.72,-5.08,-2.10,-2.93,-3.65,-2.20,
3.714,4.72,-5.08,-2.10,-2.88,-3.59,-2.22,
3.714,4.72,-5.08,-2.10,-2.86,-3.57,-2.22,
3.715,4.72,-5.08,-2.10,-2.81,-3.51,-2.22,
3.715,3.34,-5.16,-1.43,-2.81,-3.51,-2.22,
3.715,3.34,-5.16,-1.43,-2.75,-3.44,-2.22,
3.715,3.34,-5.16,-1.43,-2.69,-3.36,-2.20,
3.715,3.34,-5.16,-1.43,-2.62,-3.27,-2.18,
3.715,3.34,-5.16,-1.43,-2.55,-3.17,-2.15,
3.715,3.34,-5.16,-1.43,-2.47,-3.05,-2.12,
3.716,2.18,-4.22,-0.63,-2.47,-3.05,-2.12,
3.716,2.18,-4.22,-0.63,-2.39,-2.93,-2.08,
3.716,2.18,-4.22,-0.63,-2.31,-2.79,-2.04,
3.716,2.18,-4.22,-0.63,-2.23,-2.64,-2.00,
3.716,2.18,-4.22,-0.63,-2.15,-2.48,-1.96,
3.716,2.18,-4.22,-0.63,-2.07,-2.31,-1.91,
3.717,1.52,-2.75,-0.17,-2.07,-2.31,-1.91,
3.717,1.52,-2.75,-0.17,-1.99,-2.13,-1.86,
3.717,1.52,-2.75,-0.17,-1.90,-1.95,-1.82,
3.717,1.52,-2.75,-0.17,-1.82,-1.77,-1.77,
3.72,1.52,-2.75,-0.17,-1.73,-1.58,-1.72,
3.721,1.52,-2.75,-0.17,-1.64,-1.40,-1.67,
3.724,1.14,-1.25,0.57,-1.64,-1.40,-1.67,
3.724,1.14,-1.25,0.57,-1.54,-1.20,-1.63,
3.725,1.14,-1.25,0.57,-1.40,-1.00,-1.58,
3.727,1.14,-1.25,0.57,-1.22,-0.78,-1.55,
3.73,1.14,-1.25,0.57,-1.02,-0.55,-1.51,
3.732,1.14,-1.25,0.57,-0.81,-0.30,-1.47,
3.735,1.37,0.58,5.59,-0.81,-0.30,-1.47,
3.735,1.37,0.58,5.59,-0.59,-0.03,-1.42,
3.736,1.37,0.58,5.59,-0.36,0.24,-1.38,
3.738,1.37,0.58,5.59,-0.15,0.52,-1.32,
3.739,1.37,0.58,5.59,0.05,0.80,-1.25,
3.741,1.37,0.58,5.59,0.24,1.08,-1.17,
3.744,0.24,2.05,7.44,0.24,1.08,-1.17,
3.744,0.24,2.05,7.44,0.40,1.36,-1.09,
3.746,0.24,2.05,7.44,0.55,1.64,-1.00,
3.748,0.24,2.05,7.44,0.66,1.91,-0.90,
3.751,0.24,2.05,7.44,0.75,2.17,-0.81,
3.752,0.24,2.05,7.44,0.82,2.44,-0.71,
3.754,-0.97,2.71,5.18,0.82,2.44,-0.71,
3.755,-0.97,2.71,5.18,0.86,2.69,-0.61,
3.756,-0.97,2.71,5.18,0.88,2.94,-0.51,
3.757,-0.97,2.71,5.18,0.87,3.18,-0.42,
3.76,-0.97,2.71,5.18,0.85,3.41,-0.33,
3.763,-0.97,2.71,5.18,0.81,3.63,-0.25,
3.764,-1.13,2.82,2.08,0.81,3.63,-0.25,
3.766,-1.13,2.82,2.08,0.76,3.84,-0.18,
3.766,-1.13,2.82,2.08,0.69,4.04,-0.11,
3.77,-1.13,2.82,2.08,0.62,4.22,-0.06,
3.77,-1.13,2.82,2.08,0.55,4.39,-0.01,
3.774,-1.13,2.82,2.08,0.47,4.55,0.03,
3.775,-0.74,2.75,0.81,0.47,4.55,0.03,
3.776,-0.74,2.75,0.81,0.39,4.70,0.06,
3.776,-0.74,2.75,0.81,0.31,4.83,0.08,
3.778,-0.74,2.75,0.81,0.24,4.94,0.10,
3.783,-0.74,2.75,0.81,0.17,5.04,0.12,
3.784,-0.74,2.75,0.81,0.11,5.12,0.13,
3.788,-0.38,2.69,1.19,0.11,5.12,0.13,
3.788,-0.38,2.69,1.19,0.04,5.19,0.13,
3.805,-0.38,2.69,1.19,-0.01,5.23,0.14,
3.806,-0.38,2.69,1.19,-0.06,5.27,0.14,
3.806,-0.38,2.69,1.19,-0.10,5.28,0.15,
3.806,-0.38,2.69,1.19,-0.13,5.28,0.15,
3.806,-0.57,2.78,2.86,-0.13,5.28,0.15,
3.806,-0.57,2.78,2.86,-0.15,5.27,0.16,
3.807,-0.57,2.78,2.86,-0.16,5.23,0.16,
3.807,-0.57,2.78,2.86,-0.17,5.18,0.17,
3.807,-0.57,2.78,2.86,-0.16,5.10,0.19,
3.807,-0.57,2.78,2.86,-0.14,5.00,0.21,
3.808,-1.35,3.10,5.41,-0.14,5.00,0.21,
3.808,-1.35,3.10,5.41,-0.12,4.87,0.23,
3.808,-1.35,3.10,5.41,-0.08,4.72,0.25,
3.808,-1.35,3.10,5.41,-0.04,4.53,0.27,
3.811,-1.35,3.10,5.41,0.00,4.32,0.30,
3.814,-1.35,3.10,5.41,0.05,4.08,0.33,
3.816,-2.23,3.70,8.39,0.05,4.08,0.33,
3.816,-2.23,3.70,8.39,0.10,3.82,0.36,
3.816,-2.23,3.70,8.39,0.16,3.53,0.40,
3.818,-2.23,3.70,8.39,0.21,3.22,0.44,
3.82,-2.23,3.70,8.39,0.27,2.90,0.48,
3.822,-2.23,3.70,8.39,0.32,2.57,0.53,
3.824,-3.09,4.20,9.97,0.32,2.57,0.53,
3.824,-3.09,4.20,9.97,0.37,2.23,0.57,
3.826,-3.09,4.20,9.97,0.42,1.89,0.61,
3.827,-3.09,4.20,9.97,0.45,1.56,0.65,
3.834,-3.09,4.20,9.97,0.48,1.24,0.69,
3.835,-3.09,4.20,9.97,0.50,0.93,0.72,
3.835,-3.61,4.44,10.10,0.50,0.93,0.72,
3.835,-3.61,4.44,10.10,0.51,0.64,0.75,
3.836,-3.61,4.44,10.10,0.50,0.36,0.78,
3.838,-3.61,4.44,10.10,0.48,0.12,0.80,
3.839,-3.61,4.44,10.10,0.46,-0.11,0.81,
3.842,-3.61,4.44,10.10,0.44,-0.31,0.82,
3.845,-3.20,4.24,8.46,0.44,-0.31,0.82,
3.845,-3.20,4.24,8.46,0.40,-0.49,0.82,
3.86,-3.20,4.24,8.46,0.36,-0.64,0.82,
3.861,-3.20,4.24,8.46,0.32,-0.78,0.82,
3.861,-3.20,4.24,8.46,0.28,-0.89,0.82,
3.861,-3.20,4.24,8.46,0.24,-0.99,0.82,
3.861,-3.04,3.96,7.74,0.24,-0.99,0.82,
3.862,-3.04,3.96,7.74,0.21,-1.07,0.82,
3.862,-3.04,3.96,7.74,0.17,-1.14,0.82,
3.862,-3.04,3.96,7.74,0.15,-1.20,0.81,
3.862,-3.04,3.96,7.74,0.13,-1.26,0.81,
3.863,-3.04,3.96,7.74,0.11,-1.32,0.80,
3.865,-2.88,3.56,7.67,0.11,-1.32,0.80,
3.865,-2.88,3.56,7.67,0.11,-1.39,0.80,
3.866,-2.88,3.56,7.67,0.10,-1.46,0.79,
3.868,-2.88,3.56,7.67,0.10,-1.54,0.79,
3.87,-2.88,3.56,7.67,0.11,-1.63,0.78,
3.874,-2.88,3.56,7.67,0.12,-1.73,0.78,
3.875,-2.73,3.31,7.64,0.12,-1.73,0.78,
3.875,-2.73,3.31,7.64,0.12,-1.84,0.78,
3.876,-2.73,3.31,7.64,0.13,-1.94,0.77,
3.877,-2.73,3.31,7.64,0.14,-2.06,0.76,
3.882,-2.73,3.31,7.64,0.13,-2.18,0.75,
3.882,-2.73,3.31,7.64,0.12,-2.31,0.74,
3.886,-1.76,3.12,5.10,0.12,-2.31,0.74,
3.886,-1.76,3.12,5.10,0.10,-2.45,0.72,
3.886,-1.76,3.12,5.10,0.07,-2.59,0.70,
3.888,-1.76,3.12,5.10,0.03,-2.74,0.67,
3.889,-1.76,3.12,5.10,-0.02,-2.89,0.65,
3.891,-1.76,3.12,5.10,-0.08,-3.04,0.62,
3.894,0.09,2.88,0.01,-0.08,-3.04,0.62,
3.894,0.09,2.88,0.01,-0.14,-3.21,0.59,
3.896,0.09,2.88,0.01,-0.22,-3.38,0.55,
3.899,0.09,2.88,0.01,-0.29,-3.55,0.51,
3.9,0.09,2.88,0.01,-0.37,-3.72,0.48,
3.901,0.09,2.88,0.01,-0.45,-3.88,0.43,
3.904,2.34,2.52,-5.13,-0.45,-3.88,0.43,
3.904,2.34,2.52,-5.13,-0.53,-4.04,0.39,
3.905,2.34,2.52,-5.13,-0.60,-4.17,0.35,
3.907,2.34,2.52,-5.13,-0.67,-4.29,0.31,
3.909,2.34,2.52,-5.13,-0.72,-4.39,0.28,
3.911,2.34,2.52,-5.13,-0.77,-4.46,0.24,
3.914,3.56,2.90,-7.22,-0.77,-4.46,0.24,
3.915,3.56,2.90,-7.22,-0.80,-4.51,0.21,
3.916,3.56,2.90,-7.22,-0.82,-4.53,0.17,
3.918,3.56,2.90,-7.22,-0.83,-4.53,0.14,
3.919,3.56,2.90,-7.22,-0.83,-4.52,0.10,
3.921,3.56,2.90,-7.22,-0.82,-4.49,0.07,
3.924,3.73,3.97,-5.82,-0.82,-4.49,0.07,
3.924,3.73,3.97,-5.82,-0.80,-4.45,0.05,
3.926,3.73,3.97,-5.82,-0.78,-4.40,0.02,
3.928,3.73,3.97,-5.82,-0.75,-4.33,-0.00,
3.931,3.73,3.97,-5.82,-0.72,-4.24,-0.02,
3.935,3.73,3.97,-5.82,-0.68,-4.15,-0.04,
3.936,3.45,4.77,-4.48,-0.68,-4.15,-0.04,
3.936,3.45,4.77,-4.48,-0.64,-4.05,-0.06,
3.938,3.45,4.77,-4.48,-0.59,-3.93,-0.07,
3.938,3.45,4.77,-4.48,-0.54,-3.81,-0.08,
3.94,3.45,4.77,-4.48,-0.49,-3.67,-0.09,
3.942,3.45,4.77,-4.48,-0.43,-3.53,-0.10,
3.945,3.06,5.34,-3.19,-0.43,-3.53,-0.10,
3.945,3.06,5.34,-3.19,-0.37,-3.38,-0.11,
3.946,3.06,5.34,-3.19,-0.31,-3.23,-0.13,
3.948,3.06,5.34,-3.19,-0.26,-3.07,-0.15,
3.95,3.06,5.34,-3.19,-0.20,-2.90,-0.17,
3.952,3.06,5.34,-3.19,-0.14,-2.73,-0.20,
3.966,3.42,5.30,-2.76,-0.14,-2.73,-0.20,
3.966,3.42,5.30,-2.76,-0.08,-2.56,-0.22,
3.966,3.42,5.30,-2.76,-0.02,-2.38,-0.25,
3.966,3.42,5.30,-2.76,0.03,-2.20,-0.27,
3.966,3.42,5.30,-2.76,0.09,-2.01,-0.30,
3.967,3.42,5.30,-2.76,0.14,-1.82,-0.33,
3.967,3.47,4.86,-2.64,0.14,-1.82,-0.33,
3.967,3.47,4.86,-2.64,0.19,-1.63,-0.35,
3.967,3.47,4.86,-2.64,0.24,-1.44,-0.38,
3.967,3.47,4.86,-2.64,0.29,-1.25,-0.41,
3.969,3.47,4.86,-2.64,0.33,-1.06,-0.44,
3.972,3.47,4.86,-2.64,0.38,-0.87,-0.46,
3.974,3.59,4.00,-2.82,0.38,-0.87,-0.46,
3.974,3.59,4.00,-2.82,0.42,-0.69,-0.49,
3.975,3.59,4.00,-2.82,0.47,-0.52,-0.52,
3.977,3.59,4.00,-2.82,0.51,-0.35,-0.55,
3.982,3.59,4.00,-2.82,0.56,-0.20,-0.57,
3.983,3.59,4.00,-2.82,0.60,-0.06,-0.60,
3.984,3.51,2.83,-2.27,0.60,-0.06,-0.60,
3.986,3.51,2.83,-2.27,0.65,0.07,-0.62,
3.986,3.51,2.83,-2.27,0.70,0.19,-0.65,
3.988,3.51,2.83,-2.27,0.76,0.30,-0.67,
3.989,3.51,2.83,-2.27,0.82,0.39,-0.69,
3.992,3.51,2.83,-2.27,0.90,0.46,-0.71,
4.011,3.52,1.36,-0.50,0.90,0.46,-0.71,
4.012,3.52,1.36,-0.50,0.98,0.51,-0.73,
4.012,3.52,1.36,-0.50,1.07,0.55,-0.76,
4.012,3.52,1.36,-0.50,1.17,0.58,-0.77,
4.012,3.52,1.36,-0.50,1.27,0.59,-0.79,
4.013,3.52,1.36,-0.50,1.37,0.59,-0.80,
4.013,3.48,-0.14,2.34,1.37,0.59,-0.80,
4.013,3.48,-0.14,2.34,1.47,0.58,-0.81,
4.013,3.48,-0.14,2.34,1.57,0.57,-0.81,
4.013,3.48,-0.14,2.34,1.66,0.56,-0.80,
4.013,3.48,-0.14,2.34,1.73,0.54,-0.79,
4.014,3.48,-0.14,2.34,1.79,0.52,-0.78,
4.015,3.01,-1.29,3.34,1.79,0.52,-0.78,
4.015,3.01,-1.29,3.34,1.84,0.51,-0.75,
4.016,3.01,-1.29,3.34,1.86,0.50,-0.72,
4.018,3.01,-1.29,3.34,1.87,0.49,-0.68,
4.019,3.01,-1.29,3.34,1.86,0.48,-0.64,
4.021,3.01,-1.29,3.34,1.83,0.48,-0.59,
4.024,2.35,-2.21,2.76,1.83,0.48,-0.59,
4.024,2.35,-2.21,2.76,1.80,0.50,-0.54,
4.026,2.35,-2.21,2.76,1.75,0.52,-0.49,
4.028,2.35,-2.21,2.76,1.68,0.54,-0.43,
4.03,2.35,-2.21,2.76,1.61,0.57,-0.38,
4.031,2.35,-2.21,2.76,1.53,0.61,-0.33,
4.034,2.65,-2.88,3.10,1.53,0.61,-0.33,
4.035,2.65,-2.88,3.10,1.44,0.65,-0.27,
4.036,2.65,-2.88,3.10,1.29,0.70,-0.20,
4.038,2.65,-2.88,3.10,1.17,0.72,-0.15,
4.039,2.65,-2.88,3.10,1.12,0.72,-0.14,
4.042,2.65,-2.88,3.10,1.00,0.73,-0.10,
4.045,3.10,-2.60,2.48,1.00,0.73,-0.10,
4.046,3.10,-2.60,2.48,0.88,0.72,-0.08,
4.046,3.10,-2.60,2.48,0.77,0.69,-0.06,
4.048,3.10,-2.60,2.48,0.67,0.66,-0.05,
4.05,3.10,-2.60,2.48,0.58,0.61,-0.05,
4.051,3.10,-2.60,2.48,0.51,0.55,-0.05,
4.054,3.35,-1.86,1.73,0.51,0.55,-0.05,
4.055,3.35,-1.86,1.73,0.46,0.48,-0.05,
4.056,3.35,-1.86,1.73,0.43,0.40,-0.05,
4.058,3.35,-1.86,1.73,0.43,0.31,-0.05,
4.06,3.35,-1.86,1.73,0.46,0.22,-0.05,
4.062,3.35,-1.86,1.73,0.51,0.12,-0.04,
4.064,2.10,-1.11,3.89,0.51,0.12,-0.04,
4.065,2.10,-1.11,3.89,0.58,0.03,-0.03,
4.066,2.10,-1.11,3.89,0.67,-0.06,-0.01,
4.068,2.10,-1.11,3.89,0.77,-0.15,0.01,
4.069,2.10,-1.11,3.89,0.88,-0.23,0.04,
4.071,2.10,-1.11,3.89,1.00,-0.30,0.08,
4.074,-0.14,-0.70,6.09,1.00,-0.30,0.08,
4.075,-0.14,-0.70,6.09,1.12,-0.36,0.12,
4.076,-0.14,-0.70,6.09,1.26,-0.40,0.16,
4.081,-0.14,-0.70,6.09,1.40,-0.42,0.21,
4.082,-0.14,-0.70,6.09,1.54,-0.42,0.26,
4.083,-0.14,-0.70,6.09,1.69,-0.41,0.31,
4.085,-2.27,-0.79,6.75,1.69,-0.41,0.31,
4.086,-2.27,-0.79,6.75,1.84,-0.38,0.37,
4.087,-2.27,-0.79,6.75,2.00,-0.32,0.43,
4.088,-2.27,-0.79,6.75,2.15,-0.26,0.50,
4.089,-2.27,-0.79,6.75,2.30,-0.19,0.57,
4.092,-2.27,-0.79,6.75,2.44,-0.10,0.64,
4.097,-4.35,-1.54,6.66,2.44,-0.10,0.64,
4.098,-4.35,-1.54,6.66,2.58,-0.01,0.72,
4.099,-4.35,-1.54,6.66,2.72,0.09,0.80,
4.099,-4.35,-1.54,6.66,2.86,0.20,0.89,
4.101,-4.35,-1.54,6.66,3.00,0.31,0.98,
4.103,-4.35,-1.54,6.66,3.14,0.42,1.07,
4.11,-6.08,-2.97,6.41,3.14,0.42,1.07,
4.11,-6.08,-2.97,6.41,3.29,0.55,1.16,
4.11,-6.08,-2.97,6.41,3.44,0.67,1.26,
4.112,-6.08,-2.97,6.41,3.59,0.81,1.35,
4.113,-6.08,-2.97,6.41,3.75,0.95,1.45,
4.118,-6.08,-2.97,6.41,3.91,1.10,1.54,
4.119,-7.51,-4.47,7.53,3.91,1.10,1.54,
4.12,-7.51,-4.47,7.53,4.06,1.24,1.63,
4.121,-7.51,-4.47,7.53,4.20,1.39,1.73,
4.121,-7.51,-4.47,7.53,4.33,1.53,1.81,
4.141,-7.51,-4.47,7.53,4.45,1.66,1.90,
4.141,-7.51,-4.47,7.53,4.55,1.79,1.98,
4.141,-8.06,-5.64,7.30,4.55,1.79,1.98,
4.142,-8.06,-5.64,7.30,4.62,1.91,2.06,
4.142,-8.06,-5.64,7.30,4.68,2.03,2.14,
4.142,-8.06,-5.64,7.30,4.72,2.14,2.20,
4.143,-8.06,-5.64,7.30,4.73,2.24,2.26,
4.143,-8.06,-5.64,7.30,4.73,2.33,2.32,
4.143,-7.78,-6.14,4.92,4.73,2.33,2.32,
4.143,-7.78,-6.14,4.92,4.70,2.39,2.37,
4.143,-7.78,-6.14,4.92,4.66,2.43,2.40,
4.144,-7.78,-6.14,4.92,4.60,2.45,2.44,
4.144,-7.78,-6.14,4.92,4.53,2.43,2.46,
4.144,-7.78,-6.14,4.92,4.44,2.38,2.47,
4.155,-6.43,-6.35,1.69,4.44,2.38,2.47,
4.155,-6.43,-6.35,1.69,4.34,2.30,2.48,
4.156,-6.43,-6.35,1.69,4.23,2.18,2.47,
4.156,-6.43,-6.35,1.69,4.10,2.03,2.46,
4.156,-6.43,-6.35,1.69,3.96,1.85,2.45,
4.156,-6.43,-6.35,1.69,3.82,1.65,2.42,
4.156,-4.87,-6.80,-1.80,3.82,1.65,2.42,
4.157,-4.87,-6.80,-1.80,3.67,1.42,2.39,
4.194,-4.87,-6.80,-1.80,3.51,1.17,2.35,
4.195,-4.87,-6.80,-1.80,3.35,0.91,2.30,
4.195,-4.87,-6.80,-1.80,3.19,0.64,2.24,
4.195,-4.87,-6.80,-1.80,3.03,0.38,2.17,
4.195,-3.47,-8.25,-4.23,3.03,0.38,2.17,
4.195,-3.47,-8.25,-4.23,2.87,0.11,2.09,
4.196,-3.47,-8.25,-4.23,2.72,-0.14,2.00,
4.196,-3.47,-8.25,-4.23,2.49,-0.48,1.86,
4.196,-3.47,-8.25,-4.23,2.42,-0.59,1.81,
4.196,-3.47,-8.25,-4.23,2.27,-0.78,1.71,
4.196,-2.62,-10.49,-5.24,2.27,-0.78,1.71,
4.196,-2.62,-10.49,-5.24,2.13,-0.96,1.61,
4.197,-2.62,-10.49,-5.24,1.99,-1.12,1.50,
4.197,-2.62,-10.49,-5.24,1.85,-1.26,1.39,
4.197,-2.62,-10.49,-5.24,1.71,-1.38,1.28,
4.197,-2.62,-10.49,-5.24,1.57,-1.48,1.16,
4.197,-2.15,-11.39,-5.31,1.57,-1.48,1.16,
4.197,-2.15,-11.39,-5.31,1.44,-1.56,1.05,
4.198,-2.15,-11.39,-5.31,1.30,-1.63,0.93,
4.198,-2.15,-11.39,-5.31,1.17,-1.68,0.81,
4.198,-2.15,-11.39,-5.31,1.05,-1.71,0.69,
4.198,-2.15,-11.39,-5.31,0.93,-1.72,0.58,
4.198,-1.99,-10.11,-5.06,0.93,-1.72,0.58,
4.198,-1.99,-10.11,-5.06,0.82,-1.71,0.46,
4.199,-1.99,-10.11,-5.06,0.72,-1.69,0.36,
4.199,-1.99,-10.11,-5.06,0.63,-1.65,0.26,
4.203,-1.99,-10.11,-5.06,0.54,-1.60,0.17,
4.203,-1.99,-10.11,-5.06,0.47,-1.54,0.08,
4.204,-1.67,-7.49,-4.24,0.47,-1.54,0.08,
4.204,-1.67,-7.49,-4.24,0.40,-1.48,-0.00,
4.205,-1.67,-7.49,-4.24,0.35,-1.42,-0.08,
4.208,-1.67,-7.49,-4.24,0.30,-1.37,-0.14,
4.21,-1.67,-7.49,-4.24,0.26,-1.33,-0.20,
4.213,-1.67,-7.49,-4.24,0.24,-1.29,-0.25,
4.215,-1.61,-5.08,-2.78,0.24,-1.29,-0.25,
4.215,-1.61,-5.08,-2.78,0.23,-1.24,-0.30,
4.216,-1.61,-5.08,-2.78,0.22,-1.20,-0.33,
4.218,-1.61,-5.08,-2.78,0.23,-1.16,-0.37,
4.22,-1.61,-5.08,-2.78,0.24,-1.13,-0.39,
4.221,-1.61,-5.08,-2.78,0.25,-1.09,-0.42,
4.224,-1.16,-3.36,-0.91,0.25,-1.09,-0.42,
4.224,-1.16,-3.36,-0.91,0.27,-1.05,-0.43,
4.226,-1.16,-3.36,-0.91,0.28,-1.01,-0.45,
4.228,-1.16,-3.36,-0.91,0.30,-0.96,-0.46,
4.23,-1.16,-3.36,-0.91,0.31,-0.90,-0.46,
4.231,-1.16,-3.36,-0.91,0.31,-0.84,-0.45,
4.234,-0.71,-2.84,-0.46,0.31,-0.84,-0.45,
4.234,-0.71,-2.84,-0.46,0.31,-0.77,-0.43,
4.235,-0.71,-2.84,-0.46,0.31,-0.68,-0.40,
4.237,-0.71,-2.84,-0.46,0.30,-0.59,-0.37,
4.239,-0.71,-2.84,-0.46,0.29,-0.49,-0.33,
4.241,-0.71,-2.84,-0.46,0.28,-0.38,-0.28,
4.246,-0.79,-3.07,-0.96,0.28,-0.38,-0.28,
4.246,-0.79,-3.07,-0.96,0.28,-0.26,-0.23,
4.25,-0.79,-3.07,-0.96,0.27,-0.13,-0.18,
4.25,-0.79,-3.07,-0.96,0.26,-0.01,-0.12,
4.251,-0.79,-3.07,-0.96,0.25,0.11,-0.06,
4.252,-0.79,-3.07,-0.96,0.25,0.23,0.01,
4.254,-1.12,-2.98,-1.68,0.25,0.23,0.01,
4.254,-1.12,-2.98,-1.68,0.24,0.33,0.07,
4.256,-1.12,-2.98,-1.68,0.23,0.42,0.14,
4.257,-1.12,-2.98,-1.68,0.23,0.50,0.19,
4.272,-1.12,-2.98,-1.68,0.22,0.55,0.25,
4.272,-1.12,-2.98,-1.68,0.21,0.60,0.29,
4.272,-1.01,-1.85,-2.58,0.21,0.60,0.29,
4.272,-1.01,-1.85,-2.58,0.20,0.64,0.34,
4.272,-1.01,-1.85,-2.58,0.19,0.66,0.38,
4.273,-1.01,-1.85,-2.58,0.18,0.69,0.41,
4.273,-1.01,-1.85,-2.58,0.17,0.71,0.43,
4.273,-1.01,-1.85,-2.58,0.16,0.73,0.45,
4.274,-0.42,-0.32,-3.63,0.16,0.73,0.45,
4.274,-0.42,-0.32,-3.63,0.14,0.76,0.45,
4.276,-0.42,-0.32,-3.63,0.13,0.78,0.45,
4.278,-0.42,-0.32,-3.63,0.11,0.81,0.45,
4.279,-0.42,-0.32,-3.63,0.09,0.83,0.43,
4.282,-0.42,-0.32,-3.63,0.07,0.85,0.42,
4.284,0.29,1.28,-4.61,0.07,0.85,0.42,
4.284,0.29,1.28,-4.61,0.04,0.87,0.40,
4.303,0.29,1.28,-4.61,0.02,0.88,0.38,
4.304,0.29,1.28,-4.61,-0.02,0.89,0.36,
4.304,0.29,1.28,-4.61,-0.05,0.90,0.33,
4.304,0.29,1.28,-4.61,-0.09,0.90,0.31,
4.305,0.53,2.47,-5.60,-0.09,0.90,0.31,
4.305,0.53,2.47,-5.60,-0.13,0.90,0.28,
4.305,0.53,2.47,-5.60,-0.17,0.90,0.26,
4.306,0.53,2.47,-5.60,-0.21,0.90,0.23,
4.306,0.53,2.47,-5.60,-0.26,0.89,0.21,
4.306,0.53,2.47,-5.60,-0.31,0.89,0.19,
4.306,0.68,3.51,-6.15,-0.31,0.89,0.19,
4.306,0.68,3.51,-6.15,-0.36,0.89,0.16,
4.307,0.68,3.51,-6.15,-0.41,0.88,0.14,
4.309,0.68,3.51,-6.15,-0.46,0.88,0.12,
4.311,0.68,3.51,-6.15,-0.50,0.87,0.10,
4.311,0.68,3.51,-6.15,-0.55,0.87,0.08,
4.314,0.68,4.40,-6.23,-0.55,0.87,0.08,
4.314,0.68,4.40,-6.23,-0.60,0.86,0.06,
4.315,0.68,4.40,-6.23,-0.64,0.85,0.04,
4.317,0.68,4.40,-6.23,-0.68,0.85,0.02,
4.319,0.68,4.40,-6.23,-0.72,0.83,0.01,
4.321,0.68,4.40,-6.23,-0.76,0.83,-0.00,
4.324,0.79,5.27,-5.52,-0.76,0.83,-0.00,
4.324,0.79,5.27,-5.52,-0.80,0.82,-0.01,
4.33,0.79,5.27,-5.52,-0.85,0.81,-0.01,
4.33,0.79,5.27,-5.52,-0.88,0.82,-0.02,
4.33,0.79,5.27,-5.52,-0.92,0.82,-0.02,
4.331,0.79,5.27,-5.52,-0.96,0.84,-0.01,
4.337,0.47,5.95,-4.82,-0.96,0.84,-0.01,
4.337,0.47,5.95,-4.82,-0.99,0.86,-0.01,
4.338,0.47,5.95,-4.82,-1.03,0.90,0.00,
4.338,0.47,5.95,-4.82,-1.09,0.98,0.01,
4.339,0.47,5.95,-4.82,-1.10,1.01,0.02,
4.341,0.47,5.95,-4.82,-1.14,1.09,0.03,
4.344,0.39,6.31,-3.96,-1.14,1.09,0.03,
4.345,0.39,6.31,-3.96,-1.18,1.18,0.04,
4.346,0.39,6.31,-3.96,-1.22,1.29,0.05,
4.348,0.39,6.31,-3.96,-1.25,1.41,0.07,
4.35,0.39,6.31,-3.96,-1.29,1.55,0.08,
4.352,0.39,6.31,-3.96,-1.33,1.69,0.09,
4.354,0.01,6.51,-3.07,-1.33,1.69,0.09,
4.355,0.01,6.51,-3.07,-1.37,1.84,0.10,
4.356,0.01,6.51,-3.07,-1.41,2.00,0.11,
4.358,0.01,6.51,-3.07,-1.45,2.15,0.12,
4.361,0.01,6.51,-3.07,-1.49,2.31,0.13,
4.363,0.01,6.51,-3.07,-1.53,2.45,0.13,
4.365,-0.03,6.41,-1.98,-1.53,2.45,0.13,
4.365,-0.03,6.41,-1.98,-1.57,2.58,0.14,
4.367,-0.03,6.41,-1.98,-1.61,2.70,0.14,
4.368,-0.03,6.41,-1.98,-1.65,2.80,0.15,
4.37,-0.03,6.41,-1.98,-1.69,2.88,0.16,
4.372,-0.03,6.41,-1.98,-1.74,2.95,0.16,
4.375,-0.23,6.43,-1.54,-1.74,2.95,0.16,
4.376,-0.23,6.43,-1.54,-1.79,3.00,0.17,
4.376,-0.23,6.43,-1.54,-1.85,3.03,0.17,
4.38,-0.23,6.43,-1.54,-1.91,3.04,0.17,
4.381,-0.23,6.43,-1.54,-1.99,3.02,0.17,
4.382,-0.23,6.43,-1.54,-2.07,2.98,0.17,
4.384,0.32,5.98,-2.98,-2.07,2.98,0.17,
4.385,0.32,5.98,-2.98,-2.15,2.92,0.17,
4.386,0.32,5.98,-2.98,-2.28,2.79,0.16,
4.388,0.32,5.98,-2.98,-2.36,2.69,0.15,
4.39,0.32,5.98,-2.98,-2.40,2.63,0.14,
4.392,0.32,5.98,-2.98,-2.48,2.50,0.13,
4.395,0.78,5.40,-3.86,-2.48,2.50,0.13,
4.397,0.78,5.40,-3.86,-2.56,2.36,0.11,
4.398,0.78,5.40,-3.86,-2.63,2.21,0.09,
4.398,0.78,5.40,-3.86,-2.70,2.06,0.06,
4.4,0.78,5.40,-3.86,-2.77,1.91,0.02,
4.402,0.78,5.40,-3.86,-2.83,1.76,-0.03,
4.406,2.17,4.69,-3.34,-2.83,1.76,-0.03,
4.406,2.17,4.69,-3.34,-2.89,1.61,-0.09,
4.406,2.17,4.69,-3.34,-2.95,1.47,-0.15,
4.41,2.17,4.69,-3.34,-3.00,1.33,-0.23,
4.41,2.17,4.69,-3.34,-3.04,1.20,-0.31,
4.417,2.17,4.69,-3.34,-3.08,1.07,-0.40,
4.418,3.99,4.16,-1.97,-3.08,1.07,-0.40,
4.418,3.99,4.16,-1.97,-3.12,0.95,-0.49,
4.423,3.99,4.16,-1.97,-3.21,0.66,-0.80,
4.423,3.99,4.16,-1.97,-3.21,0.66,-0.80,
4.423,3.99,4.16,-1.97,-3.25,0.55,-0.96,
4.424,5.45,3.87,-0.69,-3.25,0.55,-0.96,
4.424,5.45,3.87,-0.69,-3.26,0.52,-1.01,
4.425,5.45,3.87,-0.69,-3.26,0.52,-1.01,
4.448,5.45,3.87,-0.69,-3.28,0.46,-1.12,
4.448,5.45,3.87,-0.69,-3.30,0.41,-1.23,
4.448,5.45,3.87,-0.69,-3.32,0.38,-1.34,
4.448,5.45,3.87,-0.69,-3.35,0.36,-1.45,
4.448,6.71,2.79,0.23,-3.35,0.36,-1.45,
4.449,6.71,2.79,0.23,-3.37,0.35,-1.55,
4.449,6.71,2.79,0.23,-3.40,0.36,-1.65,
4.449,6.71,2.79,0.23,-3.43,0.37,-1.74,
4.449,6.71,2.79,0.23,-3.46,0.41,-1.82,
4.449,6.71,2.79,0.23,-3.49,0.47,-1.90,
4.449,6.46,1.68,0.54,-3.49,0.47,-1.90,
4.449,6.46,1.68,0.54,-3.52,0.53,-1.98,
4.449,6.46,1.68,0.54,-3.55,0.61,-2.06,
4.45,6.46,1.68,0.54,-3.57,0.69,-2.13,
4.453,6.46,1.68,0.54,-3.60,0.77,-2.21,
4.454,6.46,1.68,0.54,-3.63,0.84,-2.28,
4.466,6.16,0.81,1.21,-3.63,0.84,-2.28,
4.466,6.16,0.81,1.21,-3.65,0.91,-2.36,
4.467,6.16,0.81,1.21,-3.66,0.99,-2.43,
4.467,6.16,0.81,1.21,-3.66,1.10,-2.54,
4.467,6.16,0.81,1.21,-3.66,1.13,-2.58,
4.467,6.16,0.81,1.21,-3.64,1.19,-2.66,
4.467,5.70,0.15,2.87,-3.64,1.19,-2.66,
4.467,5.70,0.15,2.87,-3.61,1.23,-2.74,
4.468,5.70,0.15,2.87,-3.56,1.26,-2.82,
4.468,5.70,0.15,2.87,-3.49,1.27,-2.90,
4.47,5.70,0.15,2.87,-3.40,1.26,-2.97,
4.471,5.70,0.15,2.87,-3.28,1.23,-3.04,
4.474,5.17,-0.59,6.79,-3.28,1.23,-3.04,
4.475,5.17,-0.59,6.79,-3.15,1.16,-3.11,
4.476,5.17,-0.59,6.79,-2.99,1.05,-3.16,
4.478,5.17,-0.59,6.79,-2.81,0.90,-3.20,
4.48,5.17,-0.59,6.79,-2.61,0.71,-3.22,
4.483,5.17,-0.59,6.79,-2.40,0.48,-3.23,
4.484,3.20,-1.64,11.63,-2.40,0.48,-3.23,
4.485,3.20,-1.64,11.63,-2.17,0.22,-3.22,
4.486,3.20,-1.64,11.63,-1.92,-0.09,-3.19,
4.487,3.20,-1.64,11.63,-1.67,-0.41,-3.15,
4.489,3.20,-1.64,11.63,-1.42,-0.76,-3.09,
4.492,3.20,-1.64,11.63,-1.17,-1.12,-3.01,
4.495,0.19,-3.24,15.52,-1.17,-1.12,-3.01,
4.495,0.19,-3.24,15.52,-0.92,-1.49,-2.92,
4.496,0.19,-3.24,15.52,-0.68,-1.86,-2.82,
4.498,0.19,-3.24,15.52,-0.46,-2.20,-2.71,
4.501,0.19,-3.24,15.52,-0.27,-2.53,-2.59,
4.502,0.19,-3.24,15.52,-0.10,-2.81,-2.46,
4.504,-2.13,-4.27,15.11,-0.10,-2.81,-2.46,
4.504,-2.13,-4.27,15.11,0.03,-3.04,-2.32,
4.506,-2.13,-4.27,15.11,0.12,-3.22,-2.16,
4.508,-2.13,-4.27,15.11,0.18,-3.34,-2.00,
4.51,-2.13,-4.27,15.11,0.22,-3.41,-1.83,
4.512,-2.13,-4.27,15.11,0.26,-3.43,-1.66,
4.514,-3.20,-3.79,12.46,0.26,-3.43,-1.66,
4.514,-3.20,-3.79,12.46,0.28,-3.40,-1.49,
4.516,-3.20,-3.79,12.46,0.30,-3.33,-1.32,
4.518,-3.20,-3.79,12.46,0.31,-3.13,-1.08,
4.519,-3.20,-3.79,12.46,0.32,-3.04,-1.01,
4.522,-3.20,-3.79,12.46,0.33,-2.84,-0.88,
4.524,-3.07,-1.81,10.46,0.33,-2.84,-0.88,
4.524,-3.07,-1.81,10.46,0.35,-2.59,-0.76,
4.53,-3.07,-1.81,10.46,0.37,-2.31,-0.65,
4.53,-3.07,-1.81,10.46,0.39,-2.00,-0.55,
4.53,-3.07,-1.81,10.46,0.43,-1.48,-0.43,
4.531,-3.07,-1.81,10.46,0.44,-1.29,-0.40,
4.539,-2.87,0.24,9.19,0.44,-1.29,-0.40,
4.539,-2.87,0.24,9.19,0.47,-0.90,-0.33,
4.54,-2.87,0.24,9.19,0.49,-0.51,-0.28,
4.54,-2.87,0.24,9.19,0.52,-0.11,-0.23,
4.54,-2.87,0.24,9.19,0.54,0.29,-0.18,
4.562,-2.87,0.24,9.19,0.56,0.68,-0.14,
4.562,-2.58,1.82,6.79,0.56,0.68,-0.14,
4.562,-2.58,1.82,6.79,0.58,1.05,-0.10,
4.563,-2.58,1.82,6.79,0.59,1.41,-0.06,
4.563,-2.58,1.82,6.79,0.61,1.74,-0.02,
4.563,-2.58,1.82,6.79,0.62,2.05,0.01,
4.563,-2.58,1.82,6.79,0.63,2.33,0.03,
4.563,-2.32,2.86,4.62,0.63,2.33,0.03,
4.563,-2.32,2.86,4.62,0.64,2.58,0.06,
4.563,-2.32,2.86,4.62,0.64,2.82,0.09,
4.564,-2.32,2.86,4.62,0.63,3.02,0.11,
4.564,-2.32,2.86,4.62,0.61,3.20,0.13,
4.564,-2.32,2.86,4.62,0.60,3.36,0.15,
4.564,-2.06,3.06,2.47,0.60,3.36,0.15,
4.564,-2.06,3.06,2.47,0.57,3.50,0.16,
4.566,-2.06,3.06,2.47,0.53,3.60,0.17,
4.568,-2.06,3.06,2.47,0.47,3.71,0.18,
4.57,-2.06,3.06,2.47,0.44,3.73,0.18,
4.572,-2.06,3.06,2.47,0.39,3.76,0.18,
4.574,-2.00,2.81,0.60,0.39,3.76,0.18,
4.575,-2.00,2.81,0.60,0.33,3.76,0.19,
4.582,-2.00,2.81,0.60,0.27,3.73,0.19,
4.583,-2.00,2.81,0.60,0.17,3.63,0.21,
4.583,-2.00,2.81,0.60,0.14,3.59,0.21,
4.583,-2.00,2.81,0.60,0.07,3.48,0.21,
4.584,-1.91,2.29,-0.87,0.07,3.48,0.21,
4.584,-1.91,2.29,-0.87,0.00,3.33,0.22,
4.586,-1.91,2.29,-0.87,-0.06,3.17,0.22,
4.588,-1.91,2.29,-0.87,-0.13,2.97,0.23,
4.59,-1.91,2.29,-0.87,-0.19,2.75,0.23,
4.593,-1.91,2.29,-0.87,-0.25,2.51,0.24,
4.595,-1.74,1.58,-2.06,-0.25,2.51,0.24,
4.595,-1.74,1.58,-2.06,-0.31,2.23,0.24,
4.597,-1.74,1.58,-2.06,-0.37,1.92,0.25,
4.601,-1.74,1.58,-2.06,-0.42,1.60,0.25,
4.601,-1.74,1.58,-2.06,-0.47,1.26,0.25,
4.602,-1.74,1.58,-2.06,-0.51,0.91,0.25,
4.604,-1.42,0.21,-3.11,-0.51,0.91,0.25,
4.604,-1.42,0.21,-3.11,-0.57,0.54,0.25,
4.606,-1.42,0.21,-3.11,-0.61,0.17,0.25,
4.608,-1.42,0.21,-3.11,-0.66,-0.21,0.25,
4.612,-1.42,0.21,-3.11,-0.70,-0.60,0.25,
4.613,-1.42,0.21,-3.11,-0.75,-0.98,0.25,
4.618,-1.49,-1.29,-4.03,-0.75,-0.98,0.25,
4.619,-1.49,-1.29,-4.03,-0.79,-1.35,0.25,
4.626,-1.49,-1.29,-4.03,-0.83,-1.71,0.25,
4.631,-1.49,-1.29,-4.03,-0.90,-2.25,0.26,
4.647,-1.49,-1.29,-4.03,-0.91,-2.42,0.26,
4.647,-1.49,-1.29,-4.03,-0.95,-2.75,0.27,
4.648,-2.23,-2.97,-4.09,-0.95,-2.75,0.27,
4.648,-2.23,-2.97,-4.09,-0.98,-3.07,0.29,
4.648,-2.23,-2.97,-4.09,-1.00,-3.37,0.30,
4.648,-2.23,-2.97,-4.09,-1.02,-3.66,0.32,
4.649,-2.23,-2.97,-4.09,-1.04,-3.93,0.35,
4.649,-2.23,-2.97,-4.09,-1.05,-4.17,0.37,
4.649,-3.39,-4.86,-3.66,-1.05,-4.17,0.37,
4.649,-3.39,-4.86,-3.66,-1.06,-4.39,0.41,
4.65,-3.39,-4.86,-3.66,-1.06,-4.58,0.44,
4.65,-3.39,-4.86,-3.66,-1.06,-4.74,0.47,
4.65,-3.39,-4.86,-3.66,-1.06,-4.87,0.51,
4.65,-3.39,-4.86,-3.66,-1.06,-4.98,0.56,
4.65,-4.66,-6.62,-2.92,-1.06,-4.98,0.56,
4.651,-4.66,-6.62,-2.92,-1.06,-5.05,0.60,
4.651,-4.66,-6.62,-2.92,-1.06,-5.06,0.64,
4.651,-4.66,-6.62,-2.92,-1.07,-4.65,0.72,
4.651,-4.66,-6.62,-2.92,-1.07,-4.43,0.75,
4.652,-4.66,-6.62,-2.92,-1.09,-3.91,0.81,
4.656,-7.13,-8.42,-0.69,-1.09,-3.91,0.81,
4.656,-7.13,-8.42,-0.69,-1.10,-3.31,0.86,
4.656,-7.13,-8.42,-0.69,-1.12,-2.66,0.91,
4.66,-7.13,-8.42,-0.69,-1.14,-2.02,0.95,
4.661,-7.13,-8.42,-0.69,-1.15,-1.41,0.96,
4.661,-7.13,-8.42,-0.69,-1.15,-0.88,0.95,
4.667,-5.87,-9.25,0.90,-1.15,-0.88,0.95,
4.667,-5.87,-9.25,0.90,-1.15,-0.45,0.92,
4.667,-5.87,-9.25,0.90,-1.14,-0.13,0.86,
4.672,-5.87,-9.25,0.90,-1.11,0.20,0.77,
4.672,-5.87,-9.25,0.90,-1.10,0.27,0.73,
4.672,-5.87,-9.25,0.90,-1.06,0.35,0.66,
4.676,-1.69,-8.73,0.78,-1.06,0.35,0.66,
4.676,-1.69,-8.73,0.78,-1.02,0.38,0.59,
4.679,-1.69,-8.73,0.78,-0.97,0.37,0.51,
4.68,-1.69,-8.73,0.78,-0.92,0.33,0.44,
4.68,-1.69,-8.73,0.78,-0.86,0.27,0.36,
4.682,-1.69,-8.73,0.78,-0.80,0.20,0.30,
4.684,-0.52,-8.30,0.31,-0.80,0.20,0.30,
4.684,-0.52,-8.30,0.31,-0.73,0.13,0.25,
4.685,-0.52,-8.30,0.31,-0.65,0.08,0.21,
4.688,-0.52,-8.30,0.31,-0.58,0.03,0.18,
4.69,-0.52,-8.30,0.31,-0.50,0.01,0.16,
4.697,-0.52,-8.30,0.31,-0.41,0.03,0.15,
4.698,-1.24,-8.93,0.84,-0.41,0.03,0.15,
4.698,-1.24,-8.93,0.84,-0.31,0.10,0.15,
4.699,-1.24,-8.93,0.84,-0.09,0.30,0.13,
4.699,-1.24,-8.93,0.84,0.59,0.86,-0.01,
4.699,-1.24,-8.93,0.84,0.86,1.08,-0.07,
4.708,-1.24,-8.93,0.84,1.42,1.56,-0.18,
4.708,3.97,-12.71,19.72,1.42,1.56,-0.18,
4.709,3.97,-12.71,19.72,1.96,2.03,-0.30,
4.709,3.97,-12.71,19.72,2.45,2.48,-0.41,
4.709,3.97,-12.71,19.72,2.83,2.89,-0.49,
4.735,3.97,-12.71,19.72,3.08,3.27,-0.53,
4.736,3.97,-12.71,19.72,3.22,3.60,-0.54,
4.736,4.07,-13.79,14.18,3.22,3.60,-0.54,
4.737,4.07,-13.79,14.18,3.23,3.86,-0.53,
4.737,4.07,-13.79,14.18,3.15,4.07,-0.50,
4.737,4.07,-13.79,14.18,2.89,4.27,-0.45,
4.737,4.07,-13.79,14.18,2.77,4.30,-0.43,
4.737,4.07,-13.79,14.18,2.52,4.33,-0.41,
4.737,3.04,-10.63,-0.95,2.52,4.33,-0.41,
4.738,3.04,-10.63,-0.95,2.25,4.30,-0.39,
4.738,3.04,-10.63,-0.95,1.99,4.24,-0.40,
4.738,3.04,-10.63,-0.95,1.73,4.14,-0.42,
4.738,3.04,-10.63,-0.95,1.48,4.02,-0.45,
4.739,3.04,-10.63,-0.95,1.25,3.88,-0.48,
4.739,4.18,-6.77,-5.89,1.25,3.88,-0.48,
4.739,4.18,-6.77,-5.89,1.04,3.73,-0.53,
4.739,4.18,-6.77,-5.89,0.75,3.47,-0.60,
4.739,4.18,-6.77,-5.89,0.57,3.30,-0.66,
4.74,4.18,-6.77,-5.89,0.48,3.21,-0.68,
4.744,4.18,-6.77,-5.89,0.32,3.03,-0.74,
4.744,4.28,-3.88,-5.79,0.32,3.03,-0.74,
4.744,4.28,-3.88,-5.79,0.16,2.84,-0.81,
4.749,4.28,-3.88,-5.79,0.01,2.65,-0.87,
4.75,4.28,-3.88,-5.79,-0.13,2.45,-0.93,
4.75,4.28,-3.88,-5.79,-0.27,2.26,-1.00,
4.752,4.28,-3.88,-5.79,-0.40,2.06,-1.07,
4.756,4.34,-2.08,-5.39,-0.40,2.06,-1.07,
4.756,4.34,-2.08,-5.39,-0.53,1.85,-1.13,
4.757,4.34,-2.08,-5.39,-0.65,1.65,-1.20,
4.758,4.34,-2.08,-5.39,-0.76,1.45,-1.26,
4.759,4.34,-2.08,-5.39,-0.87,1.25,-1.31,
4.761,4.34,-2.08,-5.39,-0.97,1.05,-1.37,
4.764,4.09,-1.03,-4.53,-0.97,1.05,-1.37,
4.764,4.09,-1.03,-4.53,-1.06,0.86,-1.42,
4.766,4.09,-1.03,-4.53,-1.15,0.67,-1.47,
4.767,4.09,-1.03,-4.53,-1.28,0.39,-1.54,
4.769,4.09,-1.03,-4.53,-1.32,0.29,-1.56,
4.774,4.09,-1.03,-4.53,-1.40,0.10,-1.60,
4.774,3.95,-0.41,-3.97,-1.40,0.10,-1.60,
4.774,3.95,-0.41,-3.97,-1.47,-0.08,-1.64,
4.776,3.95,-0.41,-3.97,-1.55,-0.27,-1.67,
4.778,3.95,-0.41,-3.97,-1.66,-0.56,-1.71,
4.78,3.95,-0.41,-3.97,-1.69,-0.65,-1.72,
4.782,3.95,-0.41,-3.97,-1.76,-0.84,-1.73,
4.784,3.33,0.08,-3.48,-1.76,-0.84,-1.73,
4.784,3.33,0.08,-3.48,-1.82,-1.02,-1.74,
4.799,3.33,0.08,-3.48,-1.90,-1.28,-1.73,
4.8,3.33,0.08,-3.48,-1.94,-1.44,-1.72,
4.8,3.33,0.08,-3.48,-1.96,-1.52,-1.71,
4.8,3.33,0.08,-3.48,-2.00,-1.66,-1.69,
4.8,2.39,0.49,-2.93,-2.00,-1.66,-1.69,
4.8,2.39,0.49,-2.93,-2.02,-1.80,-1.66,
4.801,2.39,0.49,-2.93,-2.04,-1.92,-1.62,
4.804,2.39,0.49,-2.93,-2.05,-2.09,-1.55,
4.804,2.39,0.49,-2.93,-2.05,-2.14,-1.53,
4.804,2.39,0.49,-2.93,-2.05,-2.22,-1.48,
4.804,1.60,1.07,-2.07,-2.05,-2.22,-1.48,
4.805,1.60,1.07,-2.07,-2.04,-2.30,-1.43,
4.806,1.60,1.07,-2.07,-2.02,-2.36,-1.38,
4.808,1.60,1.07,-2.07,-1.98,-2.43,-1.30,
4.809,1.60,1.07,-2.07,-1.96,-2.45,-1.28,
4.811,1.60,1.07,-2.07,-1.93,-2.47,-1.23,
4.814,1.19,1.92,-1.35,-1.93,-2.47,-1.23,
4.815,1.19,1.92,-1.35,-1.87,-2.49,-1.16,
4.816,1.19,1.92,-1.35,-1.83,-2.50,-1.11,
4.817,1.19,1.92,-1.35,-1.78,-2.49,-1.08,
4.819,1.19,1.92,-1.35,-1.76,-2.49,-1.06,
4.822,1.19,1.92,-1.35,-1.71,-2.48,-1.02,
4.828,0.89,2.83,-0.74,-1.71,-2.48,-1.02,
4.828,0.89,2.83,-0.74,-1.63,-2.45,-0.97,
4.828,0.89,2.83,-0.74,-1.58,-2.42,-0.94,
4.828,0.89,2.83,-0.74,-1.53,-2.39,-0.91,
4.829,0.89,2.83,-0.74,-1.50,-2.37,-0.89,
4.832,0.89,2.83,-0.74,-1.45,-2.33,-0.87,
4.834,0.51,3.51,-0.34,-1.45,-2.33,-0.87,
4.834,0.51,3.51,-0.34,-1.37,-2.27,-0.82,
4.836,0.51,3.51,-0.34,-1.32,-2.22,-0.79,
4.838,0.51,3.51,-0.34,-1.26,-2.17,-0.77,
4.841,0.51,3.51,-0.34,-1.23,-2.14,-0.75,
4.857,0.51,3.51,-0.34,-1.18,-2.09,-0.73,
4.858,0.04,3.93,0.10,-1.18,-2.09,-0.73,
4.858,0.04,3.93,0.10,-1.09,-2.00,-0.69,
4.858,0.04,3.93,0.10,-1.04,-1.94,-0.66,
4.858,0.04,3.93,0.10,-0.98,-1.89,-0.63,
4.858,0.04,3.93,0.10,-0.93,-1.84,-0.60,
4.858,0.04,3.93,0.10,-0.88,-1.79,-0.57,
4.858,-0.52,4.03,0.36,-0.88,-1.79,-0.57,
4.858,-0.52,4.03,0.36,-0.83,-1.75,-0.54,
4.858,-0.52,4.03,0.36,-0.79,-1.72,-0.52,
4.859,-0.52,4.03,0.36,-0.75,-1.70,-0.49,
4.862,-0.52,4.03,0.36,-0.71,-1.67,-0.46,
4.862,-0.52,4.03,0.36,-0.68,-1.66,-0.43,
4.865,-1.04,3.74,0.50,-0.68,-1.66,-0.43,
4.866,-1.04,3.74,0.50,-0.65,-1.65,-0.40,
4.866,-1.04,3.74,0.50,-0.62,-1.64,-0.36,
4.869,-1.04,3.74,0.50,-0.60,-1.64,-0.33,
4.87,-1.04,3.74,0.50,-0.57,-1.63,-0.30,
4.873,-1.04,3.74,0.50,-0.55,-1.62,-0.26,
4.875,-1.67,3.13,0.53,-0.55,-1.62,-0.26,
4.875,-1.67,3.13,0.53,-0.53,-1.60,-0.23,
4.876,-1.67,3.13,0.53,-0.52,-1.59,-0.19,
4.877,-1.67,3.13,0.53,-0.50,-1.56,-0.15,
4.879,-1.67,3.13,0.53,-0.49,-1.54,-0.11,
4.881,-1.67,3.13,0.53,-0.48,-1.51,-0.06,
4.884,-2.16,2.44,0.60,-0.48,-1.51,-0.06,
4.884,-2.16,2.44,0.60,-0.47,-1.47,-0.02,
4.886,-2.16,2.44,0.60,-0.46,-1.42,0.03,
4.887,-2.16,2.44,0.60,-0.46,-1.36,0.08,
4.889,-2.16,2.44,0.60,-0.45,-1.27,0.13,
4.892,-2.16,2.44,0.60,-0.43,-1.14,0.19,
4.895,-3.08,1.73,1.26,-0.43,-1.14,0.19,
4.895,-3.08,1.73,1.26,-0.41,-0.73,0.26,
4.896,-3.08,1.73,1.26,-0.32,0.29,0.34,
4.897,-3.08,1.73,1.26,-0.11,1.68,0.43,
4.9,-3.08,1.73,1.26,0.10,3.00,0.53,
4.902,-3.08,1.73,1.26,0.23,4.15,0.62,
4.904,-6.43,1.24,9.48,0.23,4.15,0.62,
4.904,-6.43,1.24,9.48,0.35,5.20,0.69,
4.906,-6.43,1.24,9.48,0.46,6.11,0.75,
4.908,-6.43,1.24,9.48,0.56,6.90,0.80,
4.91,-6.43,1.24,9.48,0.66,7.57,0.84,
4.912,-6.43,1.24,9.48,0.76,8.16,0.88,
4.915,-4.96,1.43,8.90,0.76,8.16,0.88,
4.915,-4.96,1.43,8.90,0.87,8.66,0.90,
4.916,-4.96,1.43,8.90,0.98,9.09,0.93,
4.917,-4.96,1.43,8.90,1.09,9.45,0.95,
4.919,-4.96,1.43,8.90,1.21,9.75,0.96,
4.921,-4.96,1.43,8.90,1.32,10.00,0.98,
4.924,-3.23,1.49,9.22,1.32,10.00,0.98,
4.924,-3.23,1.49,9.22,1.44,10.20,0.99,
4.926,-3.23,1.49,9.22,1.56,10.34,0.99,
4.928,-3.23,1.49,9.22,1.68,10.42,1.00,
4.929,-3.23,1.49,9.22,1.80,10.45,1.00,
4.931,-3.23,1.49,9.22,1.91,10.41,1.01,
4.934,-2.21,1.01,11.08,1.91,10.41,1.01,
4.934,-2.21,1.01,11.08,2.03,10.32,1.01,
4.936,-2.21,1.01,11.08,2.15,10.18,1.01,
4.937,-2.21,1.01,11.08,2.27,9.98,1.02,
4.947,-2.21,1.01,11.08,2.38,9.73,1.03,
4.947,-2.21,1.01,11.08,2.48,9.43,1.04,
4.948,-1.81,0.08,12.81,2.48,9.43,1.04,
4.948,-1.81,0.08,12.81,2.57,9.08,1.05,
4.948,-1.81,0.08,12.81,2.65,8.69,1.06,
4.949,-1.81,0.08,12.81,2.71,8.27,1.08,
4.95,-1.81,0.08,12.81,2.75,7.81,1.10,
4.951,-1.81,0.08,12.81,2.76,7.32,1.12,
4.968,-2.31,-0.82,13.55,2.76,7.32,1.12,
4.968,-2.31,-0.82,13.55,2.74,6.80,1.15,
4.969,-2.31,-0.82,13.55,2.71,6.25,1.18,
4.969,-2.31,-0.82,13.55,2.64,5.69,1.20,
4.97,-2.31,-0.82,13.55,2.54,5.11,1.23,
4.97,-2.31,-0.82,13.55,2.42,4.53,1.25,
4.97,-3.06,-0.61,10.54,2.42,4.53,1.25,
4.971,-3.06,-0.61,10.54,2.28,3.94,1.27,
4.971,-3.06,-0.61,10.54,2.11,3.36,1.29,
4.975,-3.06,-0.61,10.54,1.93,2.80,1.30,
