
time,ax,ay,az,wx,wy,wz,
0.002,-1.62,-0.76,-1.90,-0.47,-0.87,0.60,
0.003,-1.62,-0.76,-1.90,-0.49,-0.87,0.61,
0.003,-1.62,-0.76,-1.90,-0.52,-0.86,0.65,
0.003,-1.50,-0.77,-2.04,-0.52,-0.86,0.65,
0.004,-1.50,-0.77,-2.04,-0.56,-0.84,0.68,
0.004,-1.50,-0.77,-2.04,-0.59,-0.83,0.71,
0.004,-1.50,-0.77,-2.04,-0.63,-0.81,0.75,
0.014,-1.50,-0.77,-2.04,-0.64,-0.81,0.76,
0.015,-1.50,-0.77,-2.04,-0.67,-0.81,0.78,
0.015,-1.03,-0.54,-1.62,-0.67,-0.81,0.78,
0.015,-1.03,-0.54,-1.62,-0.69,-0.82,0.80,
0.015,-1.03,-0.54,-1.62,-0.71,-0.84,0.82,
0.016,-1.03,-0.54,-1.62,-0.74,-0.87,0.83,
0.016,-1.03,-0.54,-1.62,-0.74,-0.88,0.84,
0.016,-1.03,-0.54,-1.62,-0.75,-0.90,0.84,
0.018,-0.52,-0.58,-1.04,-0.75,-0.90,0.84,
0.018,-0.52,-0.58,-1.04,-0.75,-0.93,0.84,
0.019,-0.52,-0.58,-1.04,-0.76,-0.96,0.84,
0.023,-0.52,-0.58,-1.04,-0.75,-1.00,0.84,
0.025,-0.52,-0.58,-1.04,-0.75,-1.01,0.84,
0.026,-0.52,-0.58,-1.04,-0.75,-1.05,0.85,
0.027,-0.33,-0.93,-0.79,-0.75,-1.05,0.85,
0.027,-0.33,-0.93,-0.79,-0.75,-1.08,0.85,
0.052,-0.33,-0.93,-0.79,-0.75,-1.12,0.86,
0.053,-0.33,-0.93,-0.79,-0.75,-1.17,0.87,
0.053,-0.33,-0.93,-0.79,-0.75,-1.18,0.87,
0.053,-0.33,-0.93,-0.79,-0.75,-1.20,0.88,
0.054,-0.51,-1.23,-0.95,-0.75,-1.20,0.88,
0.054,-0.51,-1.23,-0.95,-0.74,-1.22,0.89,
0.054,-0.51,-1.23,-0.95,-0.74,-1.24,0.90,
0.054,-0.51,-1.23,-0.95,-0.74,-1.26,0.91,
0.055,-0.51,-1.23,-0.95,-0.74,-1.27,0.92,
0.055,-0.51,-1.23,-0.95,-0.74,-1.28,0.94,
0.055,-0.89,-1.19,-1.06,-0.74,-1.28,0.94,
0.055,-0.89,-1.19,-1.06,-0.74,-1.30,0.95,
0.056,-0.89,-1.19,-1.06,-0.74,-1.31,0.97,
0.056,-0.89,-1.19,-1.06,-0.73,-1.34,1.01,
0.056,-0.89,-1.19,-1.06,-0.73,-1.34,1.02,
0.056,-0.89,-1.19,-1.06,-0.73,-1.36,1.05,
0.08,-1.41,-1.04,-0.98,-0.73,-1.36,1.05,
0.08,-1.41,-1.04,-0.98,-0.73,-1.37,1.07,
0.081,-1.41,-1.04,-0.98,-0.72,-1.39,1.10,
0.081,-1.41,-1.04,-0.98,-0.72,-1.41,1.15,
0.081,-1.41,-1.04,-0.98,-0.72,-1.41,1.16,
0.081,-1.41,-1.04,-0.98,-0.72,-1.42,1.19,
0.082,-1.71,-1.08,-1.01,-0.72,-1.42,1.19,
0.082,-1.71,-1.08,-1.01,-0.72,-1.43,1.22,
0.082,-1.71,-1.08,-1.01,-0.73,-1.44,1.26,
0.082,-1.71,-1.08,-1.01,-0.73,-1.45,1.29,
0.083,-1.71,-1.08,-1.01,-0.73,-1.46,1.30,
0.083,-1.71,-1.08,-1.01,-0.74,-1.47,1.32,
0.083,-1.46,-1.20,-1.04,-0.74,-1.47,1.32,
0.083,-1.46,-1.20,-1.04,-0.74,-1.49,1.35,
0.083,-1.46,-1.20,-1.04,-0.75,-1.51,1.38,
0.084,-1.46,-1.20,-1.04,-0.75,-1.55,1.42,
0.084,-1.46,-1.20,-1.04,-0.76,-1.57,1.43,
0.088,-1.46,-1.20,-1.04,-0.76,-1.61,1.47,
0.092,-1.45,-1.47,-0.90,-0.76,-1.61,1.47,
0.092,-1.45,-1.47,-0.90,-0.76,-1.66,1.50,
0.107,-1.45,-1.47,-0.90,-0.76,-1.70,1.52,
0.107,-1.45,-1.47,-0.90,-0.76,-1.76,1.57,
0.107,-1.45,-1.47,-0.90,-0.76,-1.78,1.59,
0.108,-1.45,-1.47,-0.90,-0.75,-1.82,1.61,
0.108,-1.31,-1.69,-0.70,-0.75,-1.82,1.61,
0.108,-1.31,-1.69,-0.70,-0.74,-1.86,1.63,
0.108,-1.31,-1.69,-0.70,-0.73,-1.90,1.65,
0.108,-1.31,-1.69,-0.70,-0.71,-1.96,1.67,
0.108,-1.31,-1.69,-0.70,-0.70,-1.98,1.67,
0.108,-1.31,-1.69,-0.70,-0.68,-2.03,1.68,
0.109,-0.72,-1.64,-0.25,-0.68,-2.03,1.68,
0.109,-0.72,-1.64,-0.25,-0.65,-2.08,1.69,
0.11,-0.72,-1.64,-0.25,-0.61,-2.13,1.69,
0.133,-0.72,-1.64,-0.25,-0.55,-2.19,1.68,
0.133,-0.72,-1.64,-0.25,-0.53,-2.21,1.68,
0.133,-0.72,-1.64,-0.25,-0.48,-2.25,1.67,
0.134,0.06,-1.08,0.78,-0.48,-2.25,1.67,
0.134,0.06,-1.08,0.78,-0.42,-2.28,1.66,
0.134,0.06,-1.08,0.78,-0.36,-2.31,1.64,
0.134,0.06,-1.08,0.78,-0.25,-2.36,1.62,
0.134,0.06,-1.08,0.78,-0.22,-2.38,1.61,
0.134,0.06,-1.08,0.78,-0.13,-2.41,1.58,
0.135,0.53,-0.91,1.70,-0.13,-2.41,1.58,
0.135,0.53,-0.91,1.70,-0.05,-2.46,1.55,
0.135,0.53,-0.91,1.70,0.04,-2.51,1.51,
0.135,0.53,-0.91,1.70,0.17,-2.59,1.46,
0.135,0.53,-0.91,1.70,0.22,-2.62,1.43,
0.135,0.53,-0.91,1.70,0.31,-2.67,1.38,
0.139,1.24,-0.87,2.28,0.31,-2.67,1.38,
0.139,1.24,-0.87,2.28,0.40,-2.73,1.33,
0.139,1.24,-0.87,2.28,0.49,-2.79,1.28,
0.142,1.24,-0.87,2.28,0.62,-2.88,1.20,
0.166,1.24,-0.87,2.28,0.66,-2.90,1.18,
0.166,1.24,-0.87,2.28,0.74,-2.95,1.13,
0.166,1.56,-0.95,2.43,0.74,-2.95,1.13,
0.167,1.56,-0.95,2.43,0.82,-3.00,1.08,
0.167,1.56,-0.95,2.43,0.90,-3.04,1.03,
0.167,1.56,-0.95,2.43,0.99,-3.10,0.95,
0.167,1.56,-0.95,2.43,1.02,-3.12,0.93,
0.167,1.56,-0.95,2.43,1.07,-3.16,0.88,
0.167,1.26,-0.87,1.88,1.07,-3.16,0.88,
0.167,1.26,-0.87,1.88,1.11,-3.20,0.83,
0.168,1.26,-0.87,1.88,1.15,-3.24,0.79,
0.168,1.26,-0.87,1.88,1.19,-3.29,0.74,
0.168,1.26,-0.87,1.88,1.20,-3.30,0.73,
0.168,1.26,-0.87,1.88,1.21,-3.33,0.70,
0.168,0.41,-0.82,0.74,1.21,-3.33,0.70,
0.168,0.41,-0.82,0.74,1.21,-3.35,0.69,
0.168,0.41,-0.82,0.74,1.20,-3.36,0.68,
0.184,0.41,-0.82,0.74,1.17,-3.36,0.67,
0.184,0.41,-0.82,0.74,1.16,-3.36,0.68,
0.184,0.41,-0.82,0.74,1.13,-3.36,0.69,
0.184,-0.59,-0.90,-0.69,1.13,-3.36,0.69,
0.185,-0.59,-0.90,-0.69,1.09,-3.35,0.70,
0.185,-0.59,-0.90,-0.69,1.05,-3.33,0.72,
0.189,-0.59,-0.90,-0.69,0.97,-3.31,0.76,
0.216,-0.59,-0.90,-0.69,0.95,-3.30,0.78,
0.216,-0.59,-0.90,-0.69,0.89,-3.28,0.81,
0.217,-1.12,-1.02,-2.15,0.89,-3.28,0.81,
0.217,-1.12,-1.02,-2.15,0.82,-3.25,0.83,
0.217,-1.12,-1.02,-2.15,0.75,-3.23,0.86,
0.217,-1.12,-1.02,-2.15,0.64,-3.21,0.90,
0.218,-1.12,-1.02,-2.15,0.60,-3.20,0.91,
0.218,-1.12,-1.02,-2.15,0.52,-3.18,0.94,
0.218,-0.96,-1.13,-3.23,0.52,-3.18,0.94,
0.218,-0.96,-1.13,-3.23,0.45,-3.16,0.96,
0.218,-0.96,-1.13,-3.23,0.38,-3.13,0.98,
0.219,-0.96,-1.13,-3.23,0.28,-3.06,1.01,
0.219,-0.96,-1.13,-3.23,0.25,-3.04,1.02,
0.219,-0.96,-1.13,-3.23,0.19,-2.99,1.05,
0.219,-0.90,-0.94,-3.13,0.19,-2.99,1.05,
0.219,-0.90,-0.94,-3.13,0.14,-2.93,1.07,
0.22,-0.90,-0.94,-3.13,0.09,-2.87,1.10,
0.22,-0.90,-0.94,-3.13,0.03,-2.79,1.14,
0.22,-0.90,-0.94,-3.13,0.01,-2.76,1.15,
0.22,-0.90,-0.94,-3.13,-0.03,-2.72,1.18,
0.221,-0.84,-0.84,-2.47,-0.03,-2.72,1.18,
0.221,-0.84,-0.84,-2.47,-0.07,-2.68,1.21,
0.221,-0.84,-0.84,-2.47,-0.11,-2.65,1.23,
0.221,-0.84,-0.84,-2.47,-0.16,-2.61,1.27,
0.227,-0.84,-0.84,-2.47,-0.18,-2.60,1.28,
0.227,-0.84,-0.84,-2.47,-0.21,-2.58,1.31,
0.23,-0.57,-0.78,-1.87,-0.21,-2.58,1.31,
0.231,-0.57,-0.78,-1.87,-0.24,-2.56,1.33,
0.231,-0.57,-0.78,-1.87,-0.27,-2.54,1.35,
0.233,-0.57,-0.78,-1.87,-0.30,-2.50,1.38,
0.234,-0.57,-0.78,-1.87,-0.31,-2.49,1.39,
0.235,-0.57,-0.78,-1.87,-0.32,-2.47,1.42,
0.238,-0.45,-0.83,-1.04,-0.32,-2.47,1.42,
0.238,-0.45,-0.83,-1.04,-0.33,-2.45,1.44,
0.238,-0.45,-0.83,-1.04,-0.34,-2.43,1.46,
0.242,-0.45,-0.83,-1.04,-0.35,-2.42,1.48,
0.242,-0.45,-0.83,-1.04,-0.35,-2.42,1.49,
0.254,-0.45,-0.83,-1.04,-0.36,-2.41,1.50,
0.255,-0.06,-0.91,-0.56,-0.36,-2.41,1.50,
0.255,-0.06,-0.91,-0.56,-0.38,-2.41,1.50,
0.255,-0.06,-0.91,-0.56,-0.39,-2.41,1.50,
0.269,-0.06,-0.91,-0.56,-0.41,-2.41,1.50,
0.269,-0.06,-0.91,-0.56,-0.42,-2.40,1.50,
0.27,-0.06,-0.91,-0.56,-0.43,-2.37,1.49,
0.27,0.59,-1.07,-0.53,-0.43,-2.37,1.49,
0.27,0.59,-1.07,-0.53,-0.44,-2.34,1.49,
0.27,0.59,-1.07,-0.53,-0.45,-2.30,1.49,
0.27,0.59,-1.07,-0.53,-0.46,-2.21,1.49,
0.271,0.59,-1.07,-0.53,-0.47,-2.18,1.49,
0.271,0.59,-1.07,-0.53,-0.47,-2.13,1.50,
0.271,0.53,-0.94,-0.29,-0.47,-2.13,1.50,
0.271,0.53,-0.94,-0.29,-0.48,-2.08,1.50,
0.271,0.53,-0.94,-0.29,-0.48,-2.04,1.51,
0.271,0.53,-0.94,-0.29,-0.48,-1.98,1.52,
0.279,0.53,-0.94,-0.29,-0.48,-1.96,1.52,
0.28,0.53,-0.94,-0.29,-0.47,-1.93,1.53,
0.28,0.40,-0.80,0.11,-0.47,-1.93,1.53,
0.28,0.40,-0.80,0.11,-0.46,-1.90,1.53,
0.285,0.40,-0.80,0.11,-0.45,-1.86,1.53,
0.286,0.40,-0.80,0.11,-0.43,-1.80,1.52,
0.286,0.40,-0.80,0.11,-0.42,-1.77,1.52,
0.286,0.40,-0.80,0.11,-0.40,-1.69,1.51,
0.286,0.30,-0.71,0.12,-0.40,-1.69,1.51,
0.287,0.30,-0.71,0.12,-0.38,-1.57,1.50,
0.288,0.30,-0.71,0.12,-0.37,-1.43,1.50,
0.292,0.30,-0.71,0.12,-0.36,-1.21,1.51,
0.295,0.30,-0.71,0.12,-0.37,-1.15,1.52,
0.296,0.30,-0.71,0.12,-0.37,-1.08,1.54,
0.297,-1.14,-0.56,-1.49,-0.37,-1.08,1.54,
0.297,-1.14,-0.56,-1.49,-0.37,-1.07,1.56,
0.298,-1.14,-0.56,-1.49,-0.38,-1.10,1.59,
0.304,-1.14,-0.56,-1.49,-0.40,-1.17,1.61,
0.304,-1.14,-0.56,-1.49,-0.41,-1.18,1.61,
0.309,-1.14,-0.56,-1.49,-0.43,-1.18,1.61,
0.31,-0.33,-0.66,-1.04,-0.43,-1.18,1.61,
0.31,-0.33,-0.66,-1.04,-0.44,-1.16,1.62,
0.31,-0.33,-0.66,-1.04,-0.45,-1.11,1.62,
0.312,-0.33,-0.66,-1.04,-0.47,-1.04,1.62,
0.314,-0.33,-0.66,-1.04,-0.48,-1.01,1.62,
0.314,-0.33,-0.66,-1.04,-0.48,-0.96,1.62,
0.321,0.14,-0.97,-1.07,-0.48,-0.96,1.62,
0.321,0.14,-0.97,-1.07,-0.48,-0.90,1.63,
0.321,0.14,-0.97,-1.07,-0.48,-0.83,1.63,
0.321,0.14,-0.97,-1.07,-0.47,-0.72,1.64,
0.323,0.14,-0.97,-1.07,-0.47,-0.69,1.64,
0.324,0.14,-0.97,-1.07,-0.47,-0.62,1.64,
0.327,0.37,-1.27,-0.58,-0.47,-0.62,1.64,
0.328,0.37,-1.27,-0.58,-0.46,-0.57,1.64,
0.328,0.37,-1.27,-0.58,-0.46,-0.52,1.63,
0.331,0.37,-1.27,-0.58,-0.44,-0.45,1.61,
0.333,0.37,-1.27,-0.58,-0.44,-0.43,1.61,
0.334,0.37,-1.27,-0.58,-0.42,-0.38,1.60,
0.336,0.42,-0.97,0.17,-0.42,-0.38,1.60,
0.336,0.42,-0.97,0.17,-0.40,-0.34,1.60,
0.338,0.42,-0.97,0.17,-0.38,-0.30,1.59,
0.342,0.42,-0.97,0.17,-0.34,-0.24,1.59,
0.343,0.42,-0.97,0.17,-0.32,-0.22,1.59,
0.345,0.42,-0.97,0.17,-0.29,-0.19,1.58,
0.347,0.44,-1.05,1.12,-0.29,-0.19,1.58,
0.347,0.44,-1.05,1.12,-0.27,-0.15,1.57,
0.357,0.44,-1.05,1.12,-0.23,-0.12,1.56,
0.357,0.44,-1.05,1.12,-0.18,-0.09,1.55,
0.357,0.44,-1.05,1.12,-0.16,-0.09,1.54,
0.357,0.44,-1.05,1.12,-0.12,-0.08,1.52,
0.358,0.90,-1.06,2.17,-0.12,-0.08,1.52,
0.358,0.90,-1.06,2.17,-0.08,-0.07,1.51,
0.359,0.90,-1.06,2.17,-0.04,-0.08,1.50,
0.362,0.90,-1.06,2.17,0.04,-0.07,1.48,
0.363,0.90,-1.06,2.17,0.06,-0.06,1.47,
0.364,0.90,-1.06,2.17,0.11,-0.05,1.47,
0.366,0.93,-0.73,3.17,0.11,-0.05,1.47,
0.367,0.93,-0.73,3.17,0.16,-0.03,1.46,
0.368,0.93,-0.73,3.17,0.21,-0.01,1.45,
0.371,0.93,-0.73,3.17,0.30,0.03,1.46,
0.372,0.93,-0.73,3.17,0.33,0.04,1.46,
0.374,0.93,-0.73,3.17,0.40,0.07,1.47,
0.376,-0.13,-0.19,3.74,0.40,0.07,1.47,
0.377,-0.13,-0.19,3.74,0.46,0.11,1.47,
0.378,-0.13,-0.19,3.74,0.52,0.14,1.48,
0.381,-0.13,-0.19,3.74,0.62,0.18,1.48,
0.382,-0.13,-0.19,3.74,0.64,0.19,1.48,
0.384,-0.13,-0.19,3.74,0.70,0.21,1.48,
0.386,-0.61,0.08,3.89,0.70,0.21,1.48,
0.387,-0.61,0.08,3.89,0.75,0.24,1.48,
0.388,-0.61,0.08,3.89,0.80,0.24,1.47,
0.391,-0.61,0.08,3.89,0.86,0.24,1.46,
0.4,-0.61,0.08,3.89,0.87,0.23,1.46,
0.4,-0.61,0.08,3.89,0.90,0.22,1.45,
0.401,-0.56,-0.14,3.08,0.90,0.22,1.45,
0.401,-0.56,-0.14,3.08,0.92,0.22,1.44,
0.401,-0.56,-0.14,3.08,0.94,0.21,1.42,
0.401,-0.56,-0.14,3.08,0.94,0.18,1.39,
0.404,-0.56,-0.14,3.08,0.93,0.17,1.37,
0.404,-0.56,-0.14,3.08,0.91,0.16,1.33,
0.407,-0.42,-0.34,1.70,0.91,0.16,1.33,
0.407,-0.42,-0.34,1.70,0.88,0.14,1.29,
0.426,-0.42,-0.34,1.70,0.84,0.10,1.26,
0.426,-0.42,-0.34,1.70,0.76,0.05,1.21,
0.426,-0.42,-0.34,1.70,0.73,0.03,1.20,
0.427,-0.42,-0.34,1.70,0.67,0.01,1.17,
0.427,-0.48,-0.59,0.10,0.67,0.01,1.17,
0.427,-0.48,-0.59,0.10,0.60,-0.01,1.16,
0.427,-0.48,-0.59,0.10,0.49,-0.02,1.14,
0.427,-0.48,-0.59,0.10,0.41,-0.03,1.13,
0.427,-0.48,-0.59,0.10,0.37,-0.03,1.12,
0.428,-0.48,-0.59,0.10,0.29,-0.03,1.11,
0.428,-1.04,-0.87,-0.91,0.29,-0.03,1.11,
0.428,-1.04,-0.87,-0.91,0.20,-0.02,1.10,
0.428,-1.04,-0.87,-0.91,0.11,0.00,1.08,
0.439,-1.04,-0.87,-0.91,-0.02,0.06,1.03,
0.439,-1.04,-0.87,-0.91,-0.07,0.08,1.01,
0.44,-1.04,-0.87,-0.91,-0.16,0.14,0.96,
0.44,-0.98,-1.25,-1.34,-0.16,0.14,0.96,
0.44,-0.98,-1.25,-1.34,-0.25,0.21,0.90,
0.444,-0.98,-1.25,-1.34,-0.34,0.31,0.83,
0.444,-0.98,-1.25,-1.34,-0.48,0.51,0.71,
0.444,-0.98,-1.25,-1.34,-0.53,0.57,0.67,
0.448,-0.98,-1.25,-1.34,-0.63,0.68,0.60,
0.448,-1.08,-1.11,-1.38,-0.63,0.68,0.60,
0.448,-1.08,-1.11,-1.38,-0.71,0.78,0.54,
0.449,-1.08,-1.11,-1.38,-0.79,0.87,0.50,
0.451,-1.08,-1.11,-1.38,-0.88,0.98,0.45,
0.453,-1.08,-1.11,-1.38,-0.90,1.01,0.43,
0.454,-1.08,-1.11,-1.38,-0.94,1.08,0.41,
0.457,-2.09,-1.68,-0.62,-0.94,1.08,0.41,
0.457,-2.09,-1.68,-0.62,-0.98,1.15,0.39,
0.459,-2.09,-1.68,-0.62,-1.00,1.22,0.37,
0.467,-2.09,-1.68,-0.62,-1.01,1.33,0.35,
0.467,-2.09,-1.68,-0.62,-1.01,1.36,0.34,
0.467,-2.09,-1.68,-0.62,-1.01,1.43,0.32,
0.467,-2.32,-1.94,0.22,-1.01,1.43,0.32,
0.467,-2.32,-1.94,0.22,-1.00,1.49,0.30,
0.468,-2.32,-1.94,0.22,-0.98,1.54,0.29,
0.471,-2.32,-1.94,0.22,-0.95,1.61,0.26,
0.474,-2.32,-1.94,0.22,-0.93,1.63,0.26,
0.474,-2.32,-1.94,0.22,-0.90,1.66,0.25,
0.48,-2.13,-1.86,0.44,-0.90,1.66,0.25,
0.481,-2.13,-1.86,0.44,-0.87,1.67,0.24,
0.481,-2.13,-1.86,0.44,-0.82,1.68,0.24,
0.482,-2.13,-1.86,0.44,-0.76,1.69,0.24,
0.483,-2.13,-1.86,0.44,-0.73,1.69,0.25,
0.484,-2.13,-1.86,0.44,-0.68,1.70,0.26,
0.487,-2.13,-1.91,0.91,-0.68,1.70,0.26,
0.487,-2.13,-1.91,0.91,-0.63,1.71,0.27,
0.488,-2.13,-1.91,0.91,-0.58,1.71,0.30,
0.491,-2.13,-1.91,0.91,-0.50,1.73,0.34,
0.495,-2.13,-1.91,0.91,-0.47,1.74,0.36,
0.495,-2.13,-1.91,0.91,-0.43,1.76,0.40,
0.497,-2.49,-1.97,1.10,-0.43,1.76,0.40,
0.497,-2.49,-1.97,1.10,-0.39,1.78,0.44,
0.499,-2.49,-1.97,1.10,-0.36,1.81,0.48,
0.501,-2.49,-1.97,1.10,-0.33,1.85,0.53,
0.503,-2.49,-1.97,1.10,-0.31,1.86,0.56,
0.505,-2.49,-1.97,1.10,-0.31,1.87,0.58,
0.507,-2.54,-2.18,0.69,-0.31,1.87,0.58,
0.508,-2.54,-2.18,0.69,-0.31,1.87,0.60,
0.511,-2.54,-2.18,0.69,-0.32,1.87,0.61,
0.512,-2.54,-2.18,0.69,-0.35,1.86,0.61,
0.515,-2.54,-2.18,0.69,-0.37,1.85,0.61,
0.516,-2.54,-2.18,0.69,-0.41,1.85,0.60,
0.542,-1.11,-2.78,0.14,-0.41,1.85,0.60,
0.543,-1.11,-2.78,0.14,-0.47,1.85,0.60,
0.543,-1.11,-2.78,0.14,-0.55,1.86,0.61,
0.543,-1.11,-2.78,0.14,-0.69,1.87,0.61,
0.543,-1.11,-2.78,0.14,-0.74,1.85,0.61,
0.544,-1.11,-2.78,0.14,-0.85,1.81,0.59,
0.544,0.06,-3.85,-1.12,-0.85,1.81,0.59,
0.544,0.06,-3.85,-1.12,-0.96,1.74,0.56,
0.545,0.06,-3.85,-1.12,-1.08,1.67,0.52,
0.545,0.06,-3.85,-1.12,-1.25,1.57,0.45,
0.545,0.06,-3.85,-1.12,-1.31,1.54,0.43,
0.545,0.06,-3.85,-1.12,-1.44,1.50,0.38,
0.546,0.66,-4.27,-2.87,-1.44,1.50,0.38,
0.546,0.66,-4.27,-2.87,-1.57,1.47,0.34,
0.546,0.66,-4.27,-2.87,-1.72,1.44,0.30,
0.546,0.66,-4.27,-2.87,-1.95,1.39,0.23,
0.547,0.66,-4.27,-2.87,-2.02,1.38,0.21,
0.547,0.66,-4.27,-2.87,-2.18,1.34,0.18,
0.547,0.82,-4.87,-4.23,-2.18,1.34,0.18,
0.548,0.82,-4.87,-4.23,-2.33,1.31,0.14,
0.554,0.82,-4.87,-4.23,-2.49,1.29,0.10,
0.554,0.82,-4.87,-4.23,-2.72,1.26,0.04,
0.554,0.82,-4.87,-4.23,-2.80,1.26,0.02,
0.555,0.82,-4.87,-4.23,-2.95,1.26,-0.02,
0.557,1.06,-4.90,-4.49,-2.95,1.26,-0.02,
0.557,1.06,-4.90,-4.49,-3.10,1.27,-0.06,
0.567,1.06,-4.90,-4.49,-3.25,1.28,-0.10,
0.568,1.06,-4.90,-4.49,-3.47,1.29,-0.15,
0.568,1.06,-4.90,-4.49,-3.61,1.30,-0.18,
0.568,1.06,-4.90,-4.49,-3.68,1.30,-0.19,
0.568,1.31,-5.04,-4.32,-3.68,1.30,-0.19,
0.569,1.31,-5.04,-4.32,-3.81,1.30,-0.23,
0.571,1.31,-5.04,-4.32,-3.94,1.30,-0.26,
0.571,1.31,-5.04,-4.32,-4.11,1.30,-0.30,
0.574,1.31,-5.04,-4.32,-4.17,1.30,-0.31,
0.601,1.31,-5.04,-4.32,-4.27,1.31,-0.34,
0.601,1.64,-4.98,-3.30,-4.27,1.31,-0.34,
0.602,1.64,-4.98,-3.30,-4.37,1.31,-0.37,
0.602,1.64,-4.98,-3.30,-4.47,1.32,-0.39,
0.602,1.64,-4.98,-3.30,-4.59,1.34,-0.42,
0.602,1.64,-4.98,-3.30,-4.63,1.34,-0.43,
0.603,1.64,-4.98,-3.30,-4.70,1.36,-0.45,
0.603,1.98,-4.74,-2.20,-4.70,1.36,-0.45,
0.603,1.98,-4.74,-2.20,-4.76,1.36,-0.46,
0.603,1.98,-4.74,-2.20,-4.82,1.36,-0.48,
0.603,1.98,-4.74,-2.20,-4.89,1.33,-0.50,
0.604,1.98,-4.74,-2.20,-4.93,1.30,-0.52,
0.604,1.98,-4.74,-2.20,-4.95,1.28,-0.53,
0.604,2.23,-4.05,-0.75,-4.95,1.28,-0.53,
0.604,2.23,-4.05,-0.75,-4.98,1.25,-0.55,
0.604,2.23,-4.05,-0.75,-5.00,1.21,-0.57,
0.604,2.23,-4.05,-0.75,-5.03,1.14,-0.61,
0.605,2.23,-4.05,-0.75,-5.04,1.10,-0.62,
0.605,2.23,-4.05,-0.75,-5.05,1.08,-0.63,
0.608,2.51,-3.61,0.01,-5.05,1.08,-0.63,
0.608,2.51,-3.61,0.01,-5.06,1.03,-0.65,
0.609,2.51,-3.61,0.01,-5.06,1.00,-0.67,
0.612,2.51,-3.61,0.01,-5.06,0.95,-0.68,
0.615,2.51,-3.61,0.01,-5.05,0.91,-0.69,
0.615,2.51,-3.61,0.01,-5.04,0.90,-0.69,
0.622,2.37,-3.27,0.52,-5.04,0.90,-0.69,
0.623,2.37,-3.27,0.52,-5.02,0.86,-0.69,
0.626,2.37,-3.27,0.52,-5.00,0.82,-0.70,
0.627,2.37,-3.27,0.52,-4.97,0.75,-0.69,
0.627,2.37,-3.27,0.52,-4.95,0.72,-0.69,
0.627,2.37,-3.27,0.52,-4.93,0.66,-0.68,
0.627,2.07,-3.04,1.10,-4.93,0.66,-0.68,
0.628,2.07,-3.04,1.10,-4.90,0.59,-0.67,
0.629,2.07,-3.04,1.10,-4.87,0.52,-0.65,
0.632,2.07,-3.04,1.10,-4.83,0.40,-0.64,
0.637,2.07,-3.04,1.10,-4.78,0.25,-0.60,
0.64,2.07,-3.04,1.10,-4.78,0.25,-0.60,
0.64,2.22,-2.97,1.11,-4.78,0.25,-0.60,
0.64,2.22,-2.97,1.11,-4.78,0.25,-0.60,
0.641,2.22,-2.97,1.11,-4.78,0.16,-0.56,
0.643,2.22,-2.97,1.11,-4.79,0.13,-0.54,
0.643,2.22,-2.97,1.11,-4.80,0.11,-0.53,
0.645,2.22,-2.97,1.11,-4.82,0.07,-0.51,
0.646,2.41,-2.99,0.52,-4.82,0.07,-0.51,
0.647,2.41,-2.99,0.52,-4.83,0.05,-0.50,
0.648,2.41,-2.99,0.52,-4.86,0.01,-0.48,
0.651,2.41,-2.99,0.52,-4.91,-0.05,-0.45,
0.652,2.41,-2.99,0.52,-4.96,-0.09,-0.44,
0.654,2.41,-2.99,0.52,-4.98,-0.11,-0.43,
0.656,2.82,-2.65,0.13,-4.98,-0.11,-0.43,
0.656,2.82,-2.65,0.13,-5.04,-0.14,-0.41,
0.658,2.82,-2.65,0.13,-5.10,-0.17,-0.40,
0.661,2.82,-2.65,0.13,-5.18,-0.19,-0.37,
0.663,2.82,-2.65,0.13,-5.21,-0.20,-0.36,
0.664,2.82,-2.65,0.13,-5.28,-0.20,-0.35,
0.667,3.41,-2.11,-0.28,-5.28,-0.20,-0.35,
0.667,3.41,-2.11,-0.28,-5.34,-0.20,-0.35,
0.668,3.41,-2.11,-0.28,-5.41,-0.19,-0.34,
0.671,3.41,-2.11,-0.28,-5.51,-0.17,-0.34,
0.673,3.41,-2.11,-0.28,-5.58,-0.14,-0.35,
0.678,3.41,-2.11,-0.28,-5.61,-0.13,-0.35,
0.678,4.07,-1.76,-0.25,-5.61,-0.13,-0.35,
0.679,4.07,-1.76,-0.25,-5.67,-0.11,-0.37,
0.683,4.07,-1.76,-0.25,-5.74,-0.09,-0.38,
0.683,4.07,-1.76,-0.25,-5.82,-0.06,-0.41,
0.696,4.07,-1.76,-0.25,-5.84,-0.06,-0.42,
0.696,4.07,-1.76,-0.25,-5.88,-0.04,-0.45,
0.696,4.64,-1.46,0.47,-5.88,-0.04,-0.45,
0.696,4.64,-1.46,0.47,-5.93,-0.04,-0.48,
0.696,4.64,-1.46,0.47,-5.96,-0.05,-0.51,
0.697,4.64,-1.46,0.47,-6.01,-0.08,-0.57,
0.697,4.64,-1.46,0.47,-6.04,-0.10,-0.61,
0.697,4.64,-1.46,0.47,-6.05,-0.11,-0.63,
0.697,5.32,-1.05,1.64,-6.05,-0.11,-0.63,
0.697,5.32,-1.05,1.64,-6.06,-0.14,-0.68,
0.707,5.32,-1.05,1.64,-6.07,-0.16,-0.73,
0.708,5.32,-1.05,1.64,-6.07,-0.19,-0.81,
0.708,5.32,-1.05,1.64,-6.07,-0.21,-0.86,
0.708,5.32,-1.05,1.64,-6.06,-0.21,-0.89,
0.708,6.14,-0.81,3.01,-6.06,-0.21,-0.89,
0.708,6.14,-0.81,3.01,-6.06,-0.21,-0.94,
0.71,6.14,-0.81,3.01,-6.05,-0.20,-0.99,
0.712,6.14,-0.81,3.01,-6.04,-0.18,-1.07,
0.713,6.14,-0.81,3.01,-6.02,-0.16,-1.11,
0.72,6.14,-0.81,3.01,-6.02,-0.15,-1.13,
0.72,6.15,-0.33,3.52,-6.02,-0.15,-1.13,
0.72,6.15,-0.33,3.52,-6.01,-0.13,-1.17,
0.72,6.15,-0.33,3.52,-5.99,-0.12,-1.20,
0.722,6.15,-0.33,3.52,-5.97,-0.13,-1.25,
0.722,6.15,-0.33,3.52,-5.96,-0.14,-1.27,
0.725,6.15,-0.33,3.52,-5.94,-0.17,-1.29,
0.728,5.79,0.77,4.18,-5.94,-0.17,-1.29,
0.729,5.79,0.77,4.18,-5.92,-0.22,-1.32,
0.729,5.79,0.77,4.18,-5.89,-0.27,-1.35,
0.731,5.79,0.77,4.18,-5.87,-0.38,-1.39,
0.733,5.79,0.77,4.18,-5.84,-0.45,-1.41,
0.734,5.79,0.77,4.18,-5.83,-0.49,-1.42,
0.737,5.33,1.70,4.80,-5.83,-0.49,-1.42,
0.737,5.33,1.70,4.80,-5.82,-0.56,-1.43,
0.739,5.33,1.70,4.80,-5.78,-0.63,-1.45,
0.741,5.33,1.70,4.80,-5.73,-0.73,-1.46,
0.742,5.33,1.70,4.80,-5.73,-0.76,-1.46,
0.746,5.33,1.70,4.80,-5.70,-0.82,-1.47,
0.749,5.04,2.57,5.07,-5.70,-0.82,-1.47,
0.749,5.04,2.57,5.07,-5.67,-0.87,-1.47,
0.749,5.04,2.57,5.07,-5.63,-0.91,-1.47,
0.751,5.04,2.57,5.07,-5.56,-0.96,-1.46,
0.753,5.04,2.57,5.07,-5.52,-0.99,-1.45,
0.754,5.04,2.57,5.07,-5.50,-1.00,-1.44,
0.756,4.67,3.10,5.25,-5.50,-1.00,-1.44,
0.756,4.67,3.10,5.25,-5.45,-1.02,-1.42,
0.758,4.67,3.10,5.25,-5.39,-1.03,-1.40,
0.761,4.67,3.10,5.25,-5.29,-1.06,-1.37,
0.762,4.67,3.10,5.25,-5.26,-1.07,-1.36,
0.764,4.67,3.10,5.25,-5.20,-1.09,-1.33,
0.766,3.88,3.84,6.15,-5.20,-1.09,-1.33,
0.766,3.88,3.84,6.15,-5.10,-1.11,-1.30,
0.769,3.88,3.84,6.15,-4.99,-1.17,-1.26,
0.771,3.88,3.84,6.15,-4.85,-1.24,-1.22,
0.773,3.88,3.84,6.15,-4.81,-1.27,-1.21,
0.774,3.88,3.84,6.15,-4.77,-1.30,-1.20,
0.777,3.23,4.25,6.93,-4.77,-1.30,-1.20,
0.777,3.23,4.25,6.93,-4.68,-1.37,-1.17,
0.778,3.23,4.25,6.93,-4.61,-1.43,-1.15,
0.781,3.23,4.25,6.93,-4.45,-1.51,-1.11,
0.783,3.23,4.25,6.93,-4.37,-1.55,-1.08,
0.784,3.23,4.25,6.93,-4.32,-1.57,-1.07,
0.786,2.79,4.44,7.29,-4.32,-1.57,-1.07,
0.786,2.79,4.44,7.29,-4.23,-1.61,-1.04,
0.788,2.79,4.44,7.29,-4.13,-1.65,-1.00,
0.791,2.79,4.44,7.29,-3.98,-1.72,-0.96,
0.794,2.79,4.44,7.29,-3.88,-1.76,-0.93,
0.794,2.79,4.44,7.29,-3.83,-1.78,-0.91,
0.796,2.28,4.45,7.69,-3.83,-1.78,-0.91,
0.797,2.28,4.45,7.69,-3.72,-1.83,-0.88,
0.798,2.28,4.45,7.69,-3.62,-1.87,-0.86,
0.801,2.28,4.45,7.69,-3.48,-1.93,-0.83,
0.803,2.28,4.45,7.69,-3.37,-1.96,-0.81,
0.805,2.28,4.45,7.69,-3.33,-1.97,-0.80,
0.806,2.08,4.60,7.52,-3.33,-1.97,-0.80,
0.807,2.08,4.60,7.52,-3.23,-1.99,-0.79,
0.822,2.08,4.60,7.52,-3.16,-2.02,-0.78,
0.823,2.08,4.60,7.52,-3.02,-2.03,-0.76,
0.823,2.08,4.60,7.52,-2.93,-2.03,-0.76,
0.823,2.08,4.60,7.52,-2.89,-2.02,-0.75,
0.824,1.75,4.70,7.01,-2.89,-2.02,-0.75,
0.824,1.75,4.70,7.01,-2.80,-2.01,-0.75,
0.825,1.75,4.70,7.01,-2.72,-1.99,-0.76,
0.825,1.75,4.70,7.01,-2.59,-1.95,-0.77,
0.826,1.75,4.70,7.01,-2.50,-1.92,-0.78,
0.855,1.75,4.70,7.01,-2.45,-1.91,-0.79,
0.856,1.54,5.08,7.31,-2.45,-1.91,-0.79,
0.856,1.54,5.08,7.31,-2.38,-1.88,-0.81,
0.857,1.54,5.08,7.31,-2.29,-1.86,-0.84,
0.858,1.54,5.08,7.31,-2.18,-1.84,-0.88,
0.859,1.54,5.08,7.31,-2.10,-1.84,-0.91,
0.861,1.54,5.08,7.31,-2.06,-1.83,-0.92,
0.862,1.27,4.92,7.03,-2.06,-1.83,-0.92,
0.863,1.27,4.92,7.03,-1.98,-1.82,-0.96,
0.863,1.27,4.92,7.03,-1.92,-1.80,-0.99,
0.864,1.27,4.92,7.03,-1.81,-1.78,-1.03,
0.864,1.27,4.92,7.03,-1.74,-1.77,-1.05,
0.864,1.27,4.92,7.03,-1.70,-1.76,-1.07,
0.865,0.72,4.68,6.75,-1.70,-1.76,-1.07,
0.865,0.72,4.68,6.75,-1.64,-1.75,-1.09,
0.892,0.72,4.68,6.75,-1.57,-1.73,-1.12,
0.892,0.72,4.68,6.75,-1.47,-1.71,-1.14,
0.892,0.72,4.68,6.75,-1.40,-1.71,-1.15,
0.893,0.72,4.68,6.75,-1.37,-1.69,-1.16,
0.893,-0.01,4.13,6.19,-1.37,-1.69,-1.16,
0.894,-0.01,4.13,6.19,-1.29,-1.69,-1.17,
0.894,-0.01,4.13,6.19,-1.25,-1.68,-1.17,
0.895,-0.01,4.13,6.19,-1.16,-1.67,-1.18,
0.895,-0.01,4.13,6.19,-1.10,-1.67,-1.19,
0.896,-0.01,4.13,6.19,-1.07,-1.67,-1.19,
0.897,-0.56,3.75,5.81,-1.07,-1.67,-1.19,
0.897,-0.56,3.75,5.81,-1.00,-1.66,-1.19,
0.898,-0.56,3.75,5.81,-0.94,-1.66,-1.19,
0.899,-0.56,3.75,5.81,-0.85,-1.66,-1.18,
0.899,-0.56,3.75,5.81,-0.78,-1.66,-1.18,
0.9,-0.56,3.75,5.81,-0.75,-1.66,-1.18,
0.9,-1.01,3.64,5.56,-0.75,-1.66,-1.18,
0.901,-1.01,3.64,5.56,-0.69,-1.67,-1.18,
0.902,-1.01,3.64,5.56,-0.62,-1.67,-1.18,
0.902,-1.01,3.64,5.56,-0.52,-1.68,-1.18,
0.903,-1.01,3.64,5.56,-0.45,-1.69,-1.18,
0.903,-1.01,3.64,5.56,-0.42,-1.69,-1.18,
0.904,-1.11,3.59,5.40,-0.42,-1.69,-1.18,
0.904,-1.11,3.59,5.40,-0.35,-1.70,-1.19,
0.905,-1.11,3.59,5.40,-0.28,-1.71,-1.19,
0.905,-1.11,3.59,5.40,-0.19,-1.72,-1.20,
0.906,-1.11,3.59,5.40,-0.11,-1.72,-1.20,
0.909,-1.11,3.59,5.40,-0.08,-1.72,-1.20,
0.909,-1.17,3.29,5.49,-0.08,-1.72,-1.20,
0.909,-1.17,3.29,5.49,0.00,-1.72,-1.21,
0.909,-1.17,3.29,5.49,0.08,-1.73,-1.22,
0.909,-1.17,3.29,5.49,0.18,-1.72,-1.23,
0.91,-1.17,3.29,5.49,0.28,-1.74,-1.23,
0.91,-1.17,3.29,5.49,0.32,-1.74,-1.23,
0.91,-1.51,3.01,6.02,0.32,-1.74,-1.23,
0.911,-1.51,3.01,6.02,0.40,-1.75,-1.23,
0.911,-1.51,3.01,6.02,0.48,-1.76,-1.22,
0.917,-1.51,3.01,6.02,0.59,-1.79,-1.22,
0.918,-1.51,3.01,6.02,0.67,-1.80,-1.21,
0.918,-1.51,3.01,6.02,0.70,-1.81,-1.20,
0.919,-1.92,2.43,5.84,0.70,-1.81,-1.20,
0.92,-1.92,2.43,5.84,0.77,-1.82,-1.19,
0.92,-1.92,2.43,5.84,0.84,-1.83,-1.18,
0.931,-1.92,2.43,5.84,0.95,-1.85,-1.15,
0.931,-1.92,2.43,5.84,1.01,-1.87,-1.12,
0.932,-1.92,2.43,5.84,1.05,-1.87,-1.11,
0.932,-2.48,2.05,5.74,1.05,-1.87,-1.11,
0.932,-2.48,2.05,5.74,1.15,-1.89,-1.07,
0.932,-2.48,2.05,5.74,1.18,-1.90,-1.06,
0.933,-2.48,2.05,5.74,1.28,-1.91,-1.02,
0.933,-2.48,2.05,5.74,1.35,-1.91,-1.00,
0.935,-2.48,2.05,5.74,1.38,-1.91,-0.98,
0.936,-2.71,1.93,5.28,1.38,-1.91,-0.98,
0.937,-2.71,1.93,5.28,1.44,-1.91,-0.95,
0.938,-2.71,1.93,5.28,1.49,-1.90,-0.92,
0.941,-2.71,1.93,5.28,1.56,-1.89,-0.88,
0.943,-2.71,1.93,5.28,1.61,-1.88,-0.85,
0.945,-2.71,1.93,5.28,1.63,-1.88,-0.84,
0.95,-2.82,1.47,4.59,1.63,-1.88,-0.84,
0.951,-2.82,1.47,4.59,1.67,-1.86,-0.81,
0.953,-2.82,1.47,4.59,1.71,-1.84,-0.78,
0.954,-2.82,1.47,4.59,1.77,-1.82,-0.73,
0.956,-2.82,1.47,4.59,1.81,-1.79,-0.70,
0.973,-2.82,1.47,4.59,1.83,-1.77,-0.69,
0.974,-2.86,0.96,4.08,1.83,-1.77,-0.69,
0.974,-2.86,0.96,4.08,1.86,-1.76,-0.65,
0.974,-2.86,0.96,4.08,1.90,-1.74,-0.62,
0.974,-2.86,0.96,4.08,1.95,-1.74,-0.58,
0.975,-2.86,0.96,4.08,1.98,-1.75,-0.56,
0.975,-2.86,0.96,4.08,1.99,-1.75,-0.55,
0.975,-2.85,0.37,3.76,1.99,-1.75,-0.55,
0.975,-2.85,0.37,3.76,2.02,-1.76,-0.53,
0.976,-2.85,0.37,3.76,2.04,-1.77,-0.52,
0.976,-2.85,0.37,3.76,2.07,-1.79,-0.51,
0.976,-2.85,0.37,3.76,2.09,-1.80,-0.52,
0.976,-2.85,0.37,3.76,2.10,-1.80,-0.52,
0.978,-2.12,-0.09,3.14,2.10,-1.80,-0.52,
0.979,-2.12,-0.09,3.14,2.11,-1.81,-0.52,
0.979,-2.12,-0.09,3.14,2.13,-1.80,-0.53,
0.986,-2.12,-0.09,3.14,2.15,-1.79,-0.54,
0.987,-2.12,-0.09,3.14,2.17,-1.79,-0.55,
0.987,-2.12,-0.09,3.14,2.17,-1.78,-0.56,
0.987,-1.75,-0.36,2.89,2.17,-1.78,-0.56,
0.988,-1.75,-0.36,2.89,2.19,-1.78,-0.57,
0.988,-1.75,-0.36,2.89,2.19,-1.78,-0.60,
1.013,-1.75,-0.36,2.89,2.17,-1.83,-0.66,
1.014,-1.75,-0.36,2.89,2.15,-1.85,-0.70,
1.015,-1.75,-0.36,2.89,2.15,-1.85,-0.72,
1.016,-0.66,-0.84,1.89,2.15,-1.85,-0.72,
1.016,-0.66,-0.84,1.89,2.14,-1.84,-0.75,
1.017,-0.66,-0.84,1.89,2.14,-1.81,-0.78,
1.018,-0.66,-0.84,1.89,2.14,-1.77,-0.82,
1.019,-0.66,-0.84,1.89,2.14,-1.75,-0.84,
1.019,-0.66,-0.84,1.89,2.14,-1.74,-0.86,
1.02,-0.07,-1.29,2.01,2.14,-1.74,-0.86,
1.021,-0.07,-1.29,2.01,2.14,-1.73,-0.89,
1.022,-0.07,-1.29,2.01,2.14,-1.72,-0.92,
1.023,-0.07,-1.29,2.01,2.15,-1.68,-0.95,
1.023,-0.07,-1.29,2.01,2.16,-1.66,-0.96,
1.024,-0.07,-1.29,2.01,2.17,-1.64,-0.97,
1.052,0.21,-1.65,2.05,2.17,-1.64,-0.97,
1.052,0.21,-1.65,2.05,2.18,-1.62,-0.97,
1.053,0.21,-1.65,2.05,2.19,-1.60,-0.98,
1.053,0.21,-1.65,2.05,2.18,-1.56,-0.98,
1.053,0.21,-1.65,2.05,2.18,-1.53,-0.98,
1.053,0.21,-1.65,2.05,2.17,-1.52,-0.97,
1.053,0.22,-2.12,1.49,2.17,-1.52,-0.97,
1.053,0.22,-2.12,1.49,2.16,-1.49,-0.97,
1.053,0.22,-2.12,1.49,2.16,-1.46,-0.96,
1.054,0.22,-2.12,1.49,2.14,-1.43,-0.93,
1.054,0.22,-2.12,1.49,2.12,-1.41,-0.91,
1.054,0.22,-2.12,1.49,2.11,-1.41,-0.89,
1.054,0.16,-2.60,0.86,2.11,-1.41,-0.89,
1.054,0.16,-2.60,0.86,2.09,-1.40,-0.86,
1.054,0.16,-2.60,0.86,2.06,-1.39,-0.82,
1.054,0.16,-2.60,0.86,2.01,-1.41,-0.74,
1.055,0.16,-2.60,0.86,1.98,-1.44,-0.68,
1.055,0.16,-2.60,0.86,1.96,-1.46,-0.66,
1.055,-0.53,-2.71,0.09,1.96,-1.46,-0.66,
1.055,-0.53,-2.71,0.09,1.92,-1.49,-0.59,
1.055,-0.53,-2.71,0.09,1.88,-1.54,-0.53,
1.055,-0.53,-2.71,0.09,1.82,-1.61,-0.43,
1.055,-0.53,-2.71,0.09,1.78,-1.65,-0.37,
1.056,-0.53,-2.71,0.09,1.75,-1.67,-0.34,
1.06,-1.12,-1.88,-0.52,1.75,-1.67,-0.34,
1.061,-1.12,-1.88,-0.52,1.71,-1.69,-0.28,
1.061,-1.12,-1.88,-0.52,1.67,-1.71,-0.22,
1.062,-1.12,-1.88,-0.52,1.61,-1.70,-0.13,
1.065,-1.12,-1.88,-0.52,1.56,-1.69,-0.08,
1.065,-1.12,-1.88,-0.52,1.54,-1.67,-0.05,
1.067,-1.52,-0.94,-1.31,1.54,-1.67,-0.05,
1.067,-1.52,-0.94,-1.31,1.49,-1.63,0.00,
1.068,-1.52,-0.94,-1.31,1.44,-1.59,0.05,
1.072,-1.52,-0.94,-1.31,1.37,-1.52,0.11,
1.078,-1.52,-0.94,-1.31,1.32,-1.47,0.15,
1.079,-1.52,-0.94,-1.31,1.30,-1.44,0.16,
1.079,-1.59,-0.97,-1.95,1.30,-1.44,0.16,
1.079,-1.59,-0.97,-1.95,1.26,-1.41,0.19,
1.08,-1.59,-0.97,-1.95,1.23,-1.38,0.20,
1.081,-1.59,-0.97,-1.95,1.18,-1.33,0.22,
1.083,-1.59,-0.97,-1.95,1.15,-1.28,0.22,
1.084,-1.59,-0.97,-1.95,1.14,-1.26,0.23,
1.087,-1.59,-1.65,-1.56,1.14,-1.26,0.23,
1.087,-1.59,-1.65,-1.56,1.13,-1.22,0.23,
1.088,-1.59,-1.65,-1.56,1.14,-1.15,0.23,
1.095,-1.59,-1.65,-1.56,1.16,-1.10,0.22,
1.095,-1.59,-1.65,-1.56,1.20,-1.06,0.21,
1.096,-1.59,-1.65,-1.56,1.21,-1.05,0.21,
1.097,-1.89,-1.93,-0.22,1.21,-1.05,0.21,
1.097,-1.89,-1.93,-0.22,1.25,-1.02,0.19,
1.098,-1.89,-1.93,-0.22,1.30,-0.98,0.17,
1.102,-1.89,-1.93,-0.22,1.36,-0.93,0.15,
1.103,-1.89,-1.93,-0.22,1.41,-0.87,0.13,
1.105,-1.89,-1.93,-0.22,1.44,-0.84,0.12,
1.174,-2.14,-2.18,0.07,1.44,-0.84,0.12,
1.175,-2.14,-2.18,0.07,1.49,-0.78,0.11,
1.175,-2.14,-2.18,0.07,1.54,-0.72,0.09,
1.176,-2.14,-2.18,0.07,1.63,-0.64,0.08,
1.176,-2.14,-2.18,0.07,1.70,-0.60,0.07,
1.176,-2.14,-2.18,0.07,1.73,-0.58,0.07,
1.176,-2.45,-2.27,0.75,1.73,-0.58,0.07,
1.177,-2.45,-2.27,0.75,1.80,-0.55,0.06,
1.177,-2.45,-2.27,0.75,1.94,-0.51,0.05,
1.177,-2.45,-2.27,0.75,2.00,-0.51,0.05,
1.178,-2.45,-2.27,0.75,2.04,-0.51,0.05,
1.178,-2.45,-2.27,0.75,2.07,-0.52,0.05,
1.178,-1.98,-2.53,1.51,2.07,-0.52,0.05,
1.179,-1.98,-2.53,1.51,2.13,-0.54,0.06,
1.179,-1.98,-2.53,1.51,2.18,-0.58,0.06,
1.179,-1.98,-2.53,1.51,2.23,-0.65,0.08,
1.179,-1.98,-2.53,1.51,2.25,-0.70,0.10,
1.18,-1.98,-2.53,1.51,2.26,-0.72,0.11,
1.18,-0.96,-2.89,0.63,2.26,-0.72,0.11,
1.18,-0.96,-2.89,0.63,2.26,-0.75,0.15,
1.181,-0.96,-2.89,0.63,2.25,-0.77,0.21,
1.181,-0.96,-2.89,0.63,2.22,-0.78,0.28,
1.181,-0.96,-2.89,0.63,2.20,-0.78,0.31,
1.181,-0.96,-2.89,0.63,2.17,-0.77,0.37,
1.182,-0.75,-2.92,-0.62,2.17,-0.77,0.37,
1.182,-0.75,-2.92,-0.62,2.12,-0.78,0.43,
1.182,-0.75,-2.92,-0.62,2.08,-0.78,0.48,
1.183,-0.75,-2.92,-0.62,2.03,-0.79,0.53,
1.183,-0.75,-2.92,-0.62,1.98,-0.80,0.57,
1.183,-0.75,-2.92,-0.62,1.94,-0.81,0.62,
1.183,-0.11,-2.79,-1.24,1.94,-0.81,0.62,
1.184,-0.11,-2.79,-1.24,1.90,-0.82,0.66,
1.184,-0.11,-2.79,-1.24,1.87,-0.84,0.69,
1.184,-0.11,-2.79,-1.24,1.83,-0.86,0.73,
1.185,-0.11,-2.79,-1.24,1.80,-0.89,0.76,
1.185,-0.11,-2.79,-1.24,1.77,-0.91,0.79,
1.185,-0.02,-3.11,-0.97,1.77,-0.91,0.79,
1.185,-0.02,-3.11,-0.97,1.75,-0.95,0.83,
1.186,-0.02,-3.11,-0.97,1.74,-0.98,0.85,
1.186,-0.02,-3.11,-0.97,1.73,-1.01,0.88,
1.186,-0.02,-3.11,-0.97,1.74,-1.03,0.90,
1.187,-0.02,-3.11,-0.97,1.74,-1.04,0.92,
1.187,-0.43,-2.85,-0.23,1.74,-1.04,0.92,
1.187,-0.43,-2.85,-0.23,1.77,-1.05,0.94,
1.187,-0.43,-2.85,-0.23,1.79,-1.05,0.96,
1.188,-0.43,-2.85,-0.23,1.82,-1.05,0.98,
1.208,-0.43,-2.85,-0.23,1.85,-1.03,1.00,
1.208,-0.43,-2.85,-0.23,1.88,-1.00,1.02,
1.208,-1.35,-2.11,0.23,1.88,-1.00,1.02,
1.209,-1.35,-2.11,0.23,1.92,-0.97,1.05,
1.209,-1.35,-2.11,0.23,1.96,-0.93,1.08,
1.209,-1.35,-2.11,0.23,2.00,-0.88,1.11,
1.209,-1.35,-2.11,0.23,2.04,-0.82,1.15,
1.21,-1.35,-2.11,0.23,2.09,-0.76,1.19,
1.21,-2.78,-1.31,0.62,2.09,-0.76,1.19,
1.21,-2.78,-1.31,0.62,2.15,-0.70,1.22,
1.211,-2.78,-1.31,0.62,2.20,-0.65,1.25,
1.211,-2.78,-1.31,0.62,2.27,-0.55,1.29,
1.211,-2.78,-1.31,0.62,2.30,-0.52,1.31,
1.211,-2.78,-1.31,0.62,2.34,-0.45,1.34,
1.212,-3.59,-0.79,0.81,2.34,-0.45,1.34,
1.212,-3.59,-0.79,0.81,2.38,-0.38,1.36,
1.212,-3.59,-0.79,0.81,2.41,-0.30,1.39,
1.212,-3.59,-0.79,0.81,2.44,-0.21,1.42,
1.221,-3.59,-0.79,0.81,2.45,-0.12,1.45,
1.222,-3.59,-0.79,0.81,2.46,-0.02,1.49,
1.222,-4.45,-0.25,-0.22,2.46,-0.02,1.49,
1.222,-4.45,-0.25,-0.22,2.46,0.07,1.52,
1.223,-4.45,-0.25,-0.22,2.44,0.16,1.56,
1.223,-4.45,-0.25,-0.22,2.41,0.31,1.62,
1.223,-4.45,-0.25,-0.22,2.40,0.36,1.64,
1.225,-4.45,-0.25,-0.22,2.37,0.46,1.68,
1.227,-5.47,0.17,-1.50,2.37,0.46,1.68,
1.227,-5.47,0.17,-1.50,2.33,0.57,1.72,
1.229,-5.47,0.17,-1.50,2.28,0.68,1.75,
1.231,-5.47,0.17,-1.50,2.22,0.79,1.78,
1.232,-5.47,0.17,-1.50,2.17,0.90,1.81,
1.234,-5.47,0.17,-1.50,2.11,1.01,1.82,
1.237,-5.11,0.43,-2.14,2.11,1.01,1.82,
1.237,-5.11,0.43,-2.14,2.05,1.12,1.83,
1.239,-5.11,0.43,-2.14,1.99,1.23,1.83,
1.243,-5.11,0.43,-2.14,1.92,1.33,1.81,
1.244,-5.11,0.43,-2.14,1.85,1.43,1.79,
1.245,-5.11,0.43,-2.14,1.79,1.51,1.75,
1.251,-2.86,0.19,-2.18,1.79,1.51,1.75,
1.252,-2.86,0.19,-2.18,1.72,1.59,1.70,
1.252,-2.86,0.19,-2.18,1.66,1.67,1.64,
1.252,-2.86,0.19,-2.18,1.57,1.77,1.53,
1.252,-2.86,0.19,-2.18,1.54,1.80,1.48,
1.255,-2.86,0.19,-2.18,1.49,1.85,1.39,
1.265,0.58,-0.11,-1.67,1.49,1.85,1.39,
1.266,0.58,-0.11,-1.67,1.45,1.89,1.30,
1.266,0.58,-0.11,-1.67,1.40,1.92,1.19,
1.266,0.58,-0.11,-1.67,1.36,1.94,1.08,
1.269,0.58,-0.11,-1.67,1.32,1.95,0.97,
1.269,0.58,-0.11,-1.67,1.29,1.95,0.85,
1.27,3.46,0.04,-1.14,1.29,1.95,0.85,
1.27,3.46,0.04,-1.14,1.26,1.93,0.74,
1.27,3.46,0.04,-1.14,1.24,1.91,0.63,
1.272,3.46,0.04,-1.14,1.23,1.87,0.52,
1.31,3.46,0.04,-1.14,1.22,1.83,0.43,
1.31,3.46,0.04,-1.14,1.22,1.77,0.34,
1.311,4.50,0.25,-0.48,1.22,1.77,0.34,
1.311,4.50,0.25,-0.48,1.22,1.68,0.26,
1.311,4.50,0.25,-0.48,1.23,1.59,0.19,
1.311,4.50,0.25,-0.48,1.25,1.44,0.10,
1.311,4.50,0.25,-0.48,1.26,1.38,0.08,
1.311,4.50,0.25,-0.48,1.28,1.28,0.04,
1.312,3.91,0.56,0.27,1.28,1.28,0.04,
1.312,3.91,0.56,0.27,1.31,1.16,0.02,
1.312,3.91,0.56,0.27,1.34,1.05,0.00,
1.312,3.91,0.56,0.27,1.37,0.93,0.00,
1.312,3.91,0.56,0.27,1.41,0.82,0.00,
1.312,3.91,0.56,0.27,1.44,0.72,0.01,
1.312,2.91,0.67,0.43,1.44,0.72,0.01,
1.313,2.91,0.67,0.43,1.48,0.62,0.03,
1.313,2.91,0.67,0.43,1.51,0.53,0.05,
1.313,2.91,0.67,0.43,1.54,0.44,0.08,
1.313,2.91,0.67,0.43,1.56,0.35,0.11,
1.313,2.91,0.67,0.43,1.59,0.26,0.15,
1.313,1.96,0.74,0.24,1.59,0.26,0.15,
1.314,1.96,0.74,0.24,1.61,0.17,0.19,
1.314,1.96,0.74,0.24,1.62,0.11,0.24,
1.314,1.96,0.74,0.24,1.63,0.06,0.31,
1.314,1.96,0.74,0.24,1.63,0.01,0.37,
1.314,1.96,0.74,0.24,1.64,-0.02,0.44,
1.319,0.16,0.38,-0.28,1.64,-0.02,0.44,
1.319,0.16,0.38,-0.28,1.64,-0.05,0.50,
1.319,0.16,0.38,-0.28,1.64,-0.06,0.56,
1.321,0.16,0.38,-0.28,1.63,-0.06,0.63,
1.323,0.16,0.38,-0.28,1.62,-0.06,0.68,
1.324,0.16,0.38,-0.28,1.60,-0.05,0.72,
1.332,-0.28,-0.41,-0.79,1.60,-0.05,0.72,
1.332,-0.28,-0.41,-0.79,1.59,-0.02,0.74,
1.333,-0.28,-0.41,-0.79,1.57,0.01,0.77,
1.333,-0.28,-0.41,-0.79,1.56,0.04,0.78,
1.333,-0.28,-0.41,-0.79,1.54,0.07,0.78,
1.335,-0.28,-0.41,-0.79,1.52,0.11,0.78,
1.337,0.11,-0.78,-0.89,1.52,0.11,0.78,
1.337,0.11,-0.78,-0.89,1.51,0.15,0.78,
1.338,0.11,-0.78,-0.89,1.50,0.19,0.78,
1.341,0.11,-0.78,-0.89,1.47,0.28,0.77,
1.344,0.11,-0.78,-0.89,1.46,0.31,0.77,
1.346,0.11,-0.78,-0.89,1.44,0.38,0.77,
1.35,-0.56,-0.94,-0.96,1.44,0.38,0.77,
1.35,-0.56,-0.94,-0.96,1.42,0.46,0.76,
1.378,-0.56,-0.94,-0.96,1.40,0.56,0.75,
1.378,-0.56,-0.94,-0.96,1.36,0.66,0.73,
1.378,-0.56,-0.94,-0.96,1.33,0.77,0.70,
1.378,-0.56,-0.94,-0.96,1.28,0.89,0.68,
1.378,-0.14,-1.29,-1.34,1.28,0.89,0.68,
1.379,-0.14,-1.29,-1.34,1.24,1.00,0.64,
1.379,-0.14,-1.29,-1.34,1.18,1.10,0.60,
1.379,-0.14,-1.29,-1.34,1.13,1.18,0.55,
1.379,-0.14,-1.29,-1.34,1.07,1.27,0.50,
1.379,-0.14,-1.29,-1.34,0.99,1.35,0.44,
1.379,1.44,-1.25,-1.89,0.99,1.35,0.44,
1.38,1.44,-1.25,-1.89,0.91,1.43,0.38,
1.38,1.44,-1.25,-1.89,0.83,1.48,0.31,
1.38,1.44,-1.25,-1.89,0.75,1.51,0.23,
1.38,1.44,-1.25,-1.89,0.68,1.52,0.15,
1.38,1.44,-1.25,-1.89,0.60,1.51,0.06,
1.38,3.25,-0.19,-1.80,0.60,1.51,0.06,
1.38,3.25,-0.19,-1.80,0.54,1.49,-0.03,
1.381,3.25,-0.19,-1.80,0.47,1.45,-0.13,
1.392,3.25,-0.19,-1.80,0.41,1.40,-0.22,
1.392,3.25,-0.19,-1.80,0.36,1.32,-0.31,
1.393,3.25,-0.19,-1.80,0.31,1.25,-0.38,
1.393,3.52,0.44,-1.26,0.31,1.25,-0.38,
1.393,3.52,0.44,-1.26,0.25,1.19,-0.43,
1.393,3.52,0.44,-1.26,0.20,1.15,-0.47,
1.393,3.52,0.44,-1.26,0.16,1.13,-0.50,
1.393,3.52,0.44,-1.26,0.12,1.13,-0.53,
1.397,3.52,0.44,-1.26,0.09,1.15,-0.55,
1.397,2.66,0.05,-0.63,0.09,1.15,-0.55,
1.397,2.66,0.05,-0.63,0.05,1.16,-0.56,
1.398,2.66,0.05,-0.63,0.02,1.16,-0.56,
1.402,2.66,0.05,-0.63,-0.04,1.17,-0.53,
1.403,2.66,0.05,-0.63,-0.07,1.17,-0.52,
1.405,2.66,0.05,-0.63,-0.11,1.17,-0.49,
1.424,1.59,-0.42,-0.67,-0.11,1.17,-0.49,
1.425,1.59,-0.42,-0.67,-0.15,1.17,-0.46,
1.425,1.59,-0.42,-0.67,-0.20,1.16,-0.42,
1.425,1.59,-0.42,-0.67,-0.24,1.14,-0.37,
1.426,1.59,-0.42,-0.67,-0.28,1.12,-0.32,
1.426,1.59,-0.42,-0.67,-0.33,1.10,-0.27,
1.426,0.31,-0.64,-0.95,-0.33,1.10,-0.27,
1.426,0.31,-0.64,-0.95,-0.38,1.09,-0.22,
1.426,0.31,-0.64,-0.95,-0.44,1.11,-0.17,
1.427,0.31,-0.64,-0.95,-0.56,1.20,-0.10,
1.427,0.31,-0.64,-0.95,-0.62,1.25,-0.08,
1.427,0.31,-0.64,-0.95,-0.78,1.46,-0.03,
1.427,-0.31,-0.51,-4.99,-0.78,1.46,-0.03,
1.427,-0.31,-0.51,-4.99,-1.02,1.85,0.01,
1.429,-0.31,-0.51,-4.99,-1.30,2.36,0.08,
1.431,-0.31,-0.51,-4.99,-1.53,2.86,0.24,
1.432,-0.31,-0.51,-4.99,-1.54,2.92,0.32,
1.434,-0.31,-0.51,-4.99,-1.50,2.92,0.48,
1.436,-4.19,2.31,-3.60,-1.50,2.92,0.48,
1.437,-4.19,2.31,-3.60,-1.42,2.76,0.65,
1.44,-4.19,2.31,-3.60,-1.34,2.47,0.83,
1.442,-4.19,2.31,-3.60,-1.21,1.97,1.06,
1.443,-4.19,2.31,-3.60,-1.16,1.80,1.13,
1.444,-4.19,2.31,-3.60,-1.07,1.43,1.22,
1.451,-3.12,0.10,2.95,-1.07,1.43,1.22,
1.451,-3.12,0.10,2.95,-0.99,1.07,1.26,
1.452,-3.12,0.10,2.95,-0.92,0.76,1.26,
1.452,-3.12,0.10,2.95,-0.79,0.44,1.20,
1.453,-3.12,0.10,2.95,-0.75,0.37,1.17,
1.455,-3.12,0.10,2.95,-0.65,0.27,1.11,
1.458,3.63,-0.77,2.39,-0.65,0.27,1.11,
1.458,3.63,-0.77,2.39,-0.55,0.19,1.04,
1.459,3.63,-0.77,2.39,-0.45,0.12,0.96,
1.465,3.63,-0.77,2.39,-0.29,0.02,0.84,
1.466,3.63,-0.77,2.39,-0.24,-0.01,0.80,
1.466,3.63,-0.77,2.39,-0.13,-0.09,0.72,
1.467,5.65,-0.48,1.46,-0.13,-0.09,0.72,
1.467,5.65,-0.48,1.46,-0.01,-0.17,0.65,
1.469,5.65,-0.48,1.46,0.17,-0.29,0.55,
1.472,5.65,-0.48,1.46,0.29,-0.37,0.48,
1.477,5.65,-0.48,1.46,0.35,-0.40,0.45,
1.478,5.65,-0.48,1.46,0.45,-0.45,0.40,
1.482,3.94,-0.56,1.43,0.45,-0.45,0.40,
1.482,3.94,-0.56,1.43,0.54,-0.48,0.35,
1.482,3.94,-0.56,1.43,0.63,-0.47,0.31,
1.484,3.94,-0.56,1.43,0.73,-0.42,0.25,
1.485,3.94,-0.56,1.43,0.76,-0.39,0.24,
1.491,3.94,-0.56,1.43,0.80,-0.32,0.21,
1.491,2.12,-1.24,-0.26,0.80,-0.32,0.21,
1.492,2.12,-1.24,-0.26,0.82,-0.25,0.18,
1.492,2.12,-1.24,-0.26,0.82,-0.19,0.15,
1.493,2.12,-1.24,-0.26,0.79,-0.08,0.11,
1.493,2.12,-1.24,-0.26,0.78,-0.04,0.10,
1.495,2.12,-1.24,-0.26,0.73,0.03,0.07,
1.497,0.83,-0.96,-2.10,0.73,0.03,0.07,
1.498,0.83,-0.96,-2.10,0.69,0.11,0.05,
1.5,0.83,-0.96,-2.10,0.63,0.19,0.02,
1.501,0.83,-0.96,-2.10,0.55,0.31,-0.01,
1.503,0.83,-0.96,-2.10,0.52,0.35,-0.03,
1.513,0.83,-0.96,-2.10,0.47,0.43,-0.06,
1.514,0.74,-0.65,-2.50,0.47,0.43,-0.06,
1.514,0.74,-0.65,-2.50,0.43,0.51,-0.09,
1.514,0.74,-0.65,-2.50,0.39,0.58,-0.12,
1.515,0.74,-0.65,-2.50,0.36,0.67,-0.17,
1.515,0.74,-0.65,-2.50,0.35,0.70,-0.19,
1.515,0.74,-0.65,-2.50,0.34,0.73,-0.22,
1.544,1.12,0.28,-1.41,0.34,0.73,-0.22,
1.544,1.12,0.28,-1.41,0.36,0.75,-0.26,
1.544,1.12,0.28,-1.41,0.38,0.73,-0.28,
1.544,1.12,0.28,-1.41,0.44,0.67,-0.31,
1.545,1.12,0.28,-1.41,0.47,0.64,-0.32,
1.545,1.12,0.28,-1.41,0.53,0.58,-0.33,
1.545,1.16,1.71,0.35,0.53,0.58,-0.33,
1.545,1.16,1.71,0.35,0.61,0.50,-0.33,
1.546,1.16,1.71,0.35,0.70,0.42,-0.31,
1.546,1.16,1.71,0.35,0.85,0.30,-0.29,
1.546,1.16,1.71,0.35,0.90,0.26,-0.27,
1.547,1.16,1.71,0.35,1.00,0.19,-0.24,
1.547,0.99,2.74,1.49,1.00,0.19,-0.24,
1.547,0.99,2.74,1.49,1.11,0.11,-0.21,
1.547,0.99,2.74,1.49,1.22,0.03,-0.17,
1.548,0.99,2.74,1.49,1.38,-0.11,-0.10,
1.548,0.99,2.74,1.49,1.42,-0.16,-0.08,
1.548,0.99,2.74,1.49,1.52,-0.26,-0.03,
1.548,1.00,3.57,1.55,1.52,-0.26,-0.03,
1.549,1.00,3.57,1.55,1.61,-0.39,0.03,
1.549,1.00,3.57,1.55,1.69,-0.53,0.08,
1.555,1.00,3.57,1.55,1.81,-0.77,0.17,
1.556,1.00,3.57,1.55,1.85,-0.86,0.20,
1.556,1.00,3.57,1.55,1.92,-1.05,0.26,
1.558,1.00,3.41,1.58,1.92,-1.05,0.26,
1.558,1.00,3.41,1.58,1.99,-1.26,0.33,
1.56,1.00,3.41,1.58,2.05,-1.48,0.40,
1.562,1.00,3.41,1.58,2.13,-1.82,0.51,
1.563,1.00,3.41,1.58,2.16,-1.93,0.54,
1.566,1.00,3.41,1.58,2.20,-2.14,0.62,
1.567,0.98,2.44,1.51,2.20,-2.14,0.62,
1.567,0.98,2.44,1.51,2.24,-2.34,0.70,
1.569,0.98,2.44,1.51,2.27,-2.53,0.77,
1.572,0.98,2.44,1.51,2.30,-2.78,0.89,
1.573,0.98,2.44,1.51,2.31,-2.86,0.93,
1.576,0.98,2.44,1.51,2.33,-3.01,1.00,
1.578,0.93,1.77,0.60,2.33,-3.01,1.00,
1.578,0.93,1.77,0.60,2.34,-3.14,1.06,
1.579,0.93,1.77,0.60,2.36,-3.27,1.13,
1.582,0.93,1.77,0.60,2.38,-3.47,1.21,
1.583,0.93,1.77,0.60,2.39,-3.53,1.23,
1.587,0.93,1.77,0.60,2.42,-3.65,1.28,
1.589,1.17,1.65,0.53,2.42,-3.65,1.28,
1.589,1.17,1.65,0.53,2.44,-3.78,1.31,
1.59,1.17,1.65,0.53,2.48,-3.90,1.34,
1.592,1.17,1.65,0.53,2.53,-4.07,1.36,
1.594,1.17,1.65,0.53,2.55,-4.13,1.37,
1.6,1.17,1.65,0.53,2.58,-4.23,1.38,
1.6,1.48,1.42,1.22,2.58,-4.23,1.38,
1.601,1.48,1.42,1.22,2.61,-4.32,1.40,
1.601,1.48,1.42,1.22,2.65,-4.41,1.41,
1.601,1.48,1.42,1.22,2.70,-4.54,1.42,
1.603,1.48,1.42,1.22,2.71,-4.58,1.42,
1.605,1.48,1.42,1.22,2.74,-4.66,1.43,
1.608,1.14,1.46,1.79,2.74,-4.66,1.43,
1.608,1.14,1.46,1.79,2.77,-4.73,1.44,
1.609,1.14,1.46,1.79,2.79,-4.79,1.45,
1.611,1.14,1.46,1.79,2.83,-4.88,1.47,
1.614,1.14,1.46,1.79,2.84,-4.90,1.47,
1.614,1.14,1.46,1.79,2.86,-4.94,1.48,
1.618,0.47,1.58,2.04,2.86,-4.94,1.48,
1.618,0.47,1.58,2.04,2.87,-4.98,1.49,
1.621,0.47,1.58,2.04,2.89,-5.02,1.50,
1.621,0.47,1.58,2.04,2.90,-5.07,1.51,
1.623,0.47,1.58,2.04,2.91,-5.09,1.52,
1.625,0.47,1.58,2.04,2.92,-5.13,1.53,
1.627,0.10,1.77,2.22,2.92,-5.13,1.53,
1.628,0.10,1.77,2.22,2.92,-5.17,1.54,
1.629,0.10,1.77,2.22,2.93,-5.21,1.56,
1.632,0.10,1.77,2.22,2.94,-5.28,1.59,
1.637,0.10,1.77,2.22,2.94,-5.38,1.67,
1.644,0.10,1.77,2.22,2.94,-5.38,1.67,
1.645,0.10,1.77,2.22,2.94,-5.38,1.67,
1.645,-1.21,1.62,2.45,2.94,-5.38,1.67,
1.645,-1.21,1.62,2.45,2.93,-5.41,1.71,
1.645,-1.21,1.62,2.45,2.92,-5.47,1.79,
1.646,-1.21,1.62,2.45,2.92,-5.49,1.82,
1.646,-1.21,1.62,2.45,2.91,-5.51,1.88,
1.647,-2.68,1.12,2.57,2.91,-5.51,1.88,
1.647,-2.68,1.12,2.57,2.89,-5.52,1.93,
1.649,-2.68,1.12,2.57,2.87,-5.52,1.99,
1.652,-2.68,1.12,2.57,2.84,-5.51,2.07,
1.653,-2.68,1.12,2.57,2.82,-5.51,2.09,
1.67,-2.68,1.12,2.57,2.80,-5.51,2.14,
1.671,-3.87,0.28,2.19,2.80,-5.51,2.14,
1.671,-3.87,0.28,2.19,2.77,-5.52,2.18,
1.671,-3.87,0.28,2.19,2.74,-5.52,2.21,
1.671,-3.87,0.28,2.19,2.69,-5.49,2.25,
1.672,-3.87,0.28,2.19,2.67,-5.46,2.26,
1.672,-3.87,0.28,2.19,2.63,-5.42,2.26,
1.672,-4.78,-0.59,1.85,2.63,-5.42,2.26,
1.672,-4.78,-0.59,1.85,2.58,-5.37,2.27,
1.672,-4.78,-0.59,1.85,2.54,-5.30,2.26,
1.673,-4.78,-0.59,1.85,2.46,-5.19,2.23,
1.673,-4.78,-0.59,1.85,2.43,-5.15,2.21,
1.674,-4.78,-0.59,1.85,2.36,-5.05,2.17,
1.676,-4.85,-0.94,0.41,2.36,-5.05,2.17,
1.678,-4.85,-0.94,0.41,2.28,-4.94,2.12,
1.679,-4.85,-0.94,0.41,2.20,-4.84,2.06,
1.681,-4.85,-0.94,0.41,2.09,-4.69,1.96,
1.698,-4.85,-0.94,0.41,2.05,-4.63,1.93,
1.698,-4.85,-0.94,0.41,1.97,-4.53,1.85,
1.699,-4.02,-1.13,-0.71,1.97,-4.53,1.85,
1.699,-4.02,-1.13,-0.71,1.89,-4.42,1.78,
1.699,-4.02,-1.13,-0.71,1.82,-4.30,1.71,
1.699,-4.02,-1.13,-0.71,1.70,-4.12,1.61,
1.7,-4.02,-1.13,-0.71,1.67,-4.06,1.58,
1.7,-4.02,-1.13,-0.71,1.60,-3.92,1.52,
1.7,-4.03,-1.31,-0.93,1.60,-3.92,1.52,
1.7,-4.03,-1.31,-0.93,1.53,-3.77,1.47,
1.7,-4.03,-1.31,-0.93,1.47,-3.62,1.43,
1.704,-4.03,-1.31,-0.93,1.38,-3.36,1.39,
1.704,-4.03,-1.31,-0.93,1.35,-3.26,1.37,
1.704,-4.03,-1.31,-0.93,1.29,-3.08,1.36,
1.707,-4.72,-1.40,-1.02,1.29,-3.08,1.36,
1.707,-4.72,-1.40,-1.02,1.23,-2.88,1.35,
1.715,-4.72,-1.40,-1.02,1.18,-2.70,1.35,
1.715,-4.72,-1.40,-1.02,1.10,-2.46,1.35,
1.715,-4.72,-1.40,-1.02,1.07,-2.38,1.36,
1.715,-4.72,-1.40,-1.02,1.02,-2.24,1.37,
1.719,-4.80,-0.54,-1.28,1.02,-2.24,1.37,
1.719,-4.80,-0.54,-1.28,0.97,-2.11,1.39,
1.719,-4.80,-0.54,-1.28,0.92,-1.98,1.41,
1.723,-4.80,-0.54,-1.28,0.84,-1.81,1.46,
1.725,-4.80,-0.54,-1.28,0.82,-1.76,1.47,
1.726,-4.80,-0.54,-1.28,0.78,-1.67,1.52,
1.727,-4.55,0.17,-1.44,0.78,-1.67,1.52,
1.727,-4.55,0.17,-1.44,0.73,-1.57,1.56,
1.728,-4.55,0.17,-1.44,0.69,-1.47,1.62,
1.732,-4.55,0.17,-1.44,0.62,-1.32,1.72,
1.732,-4.55,0.17,-1.44,0.60,-1.27,1.75,
1.734,-4.55,0.17,-1.44,0.56,-1.20,1.83,
1.737,-4.20,0.22,-1.48,0.56,-1.20,1.83,
1.737,-4.20,0.22,-1.48,0.53,-1.14,1.90,
1.738,-4.20,0.22,-1.48,0.49,-1.07,1.98,
1.742,-4.20,0.22,-1.48,0.44,-0.95,2.08,
1.743,-4.20,0.22,-1.48,0.42,-0.91,2.11,
1.744,-4.20,0.22,-1.48,0.39,-0.84,2.18,
1.747,-3.13,-0.11,-1.49,0.39,-0.84,2.18,
1.747,-3.13,-0.11,-1.49,0.35,-0.77,2.24,
1.749,-3.13,-0.11,-1.49,0.31,-0.70,2.31,
1.752,-3.13,-0.11,-1.49,0.26,-0.60,2.39,
1.753,-3.13,-0.11,-1.49,0.24,-0.57,2.41,
1.755,-3.13,-0.11,-1.49,0.21,-0.54,2.46,
1.758,-2.12,0.26,-1.43,0.21,-0.54,2.46,
1.758,-2.12,0.26,-1.43,0.18,-0.52,2.50,
1.759,-2.12,0.26,-1.43,0.15,-0.48,2.54,
1.762,-2.12,0.26,-1.43,0.10,-0.39,2.58,
1.762,-2.12,0.26,-1.43,0.08,-0.36,2.59,
1.764,-2.12,0.26,-1.43,0.05,-0.30,2.61,
1.767,-0.97,0.82,-1.45,0.05,-0.30,2.61,
1.767,-0.97,0.82,-1.45,0.02,-0.26,2.62,
1.768,-0.97,0.82,-1.45,-0.01,-0.23,2.63,
1.777,-0.97,0.82,-1.45,-0.05,-0.22,2.62,
1.777,-0.97,0.82,-1.45,-0.06,-0.23,2.61,
1.777,-0.97,0.82,-1.45,-0.09,-0.26,2.58,
1.778,0.03,0.73,-0.82,-0.09,-0.26,2.58,
1.779,0.03,0.73,-0.82,-0.11,-0.30,2.55,
1.779,0.03,0.73,-0.82,-0.13,-0.35,2.50,
1.782,0.03,0.73,-0.82,-0.15,-0.45,2.42,
1.782,0.03,0.73,-0.82,-0.16,-0.49,2.39,
1.785,0.03,0.73,-0.82,-0.17,-0.56,2.32,
1.811,1.11,0.22,0.33,-0.17,-0.56,2.32,
1.812,1.11,0.22,0.33,-0.18,-0.62,2.25,
1.812,1.11,0.22,0.33,-0.19,-0.67,2.18,
1.812,1.11,0.22,0.33,-0.21,-0.73,2.08,
1.813,1.11,0.22,0.33,-0.22,-0.74,2.04,
1.813,1.11,0.22,0.33,-0.23,-0.73,1.97,
1.813,1.25,-0.12,0.23,-0.23,-0.73,1.97,
1.813,1.25,-0.12,0.23,-0.24,-0.71,1.91,
1.813,1.25,-0.12,0.23,-0.25,-0.66,1.86,
1.814,1.25,-0.12,0.23,-0.27,-0.58,1.79,
1.814,1.25,-0.12,0.23,-0.28,-0.55,1.78,
1.814,1.25,-0.12,0.23,-0.29,-0.48,1.75,
1.814,0.76,0.08,-0.64,-0.29,-0.48,1.75,
1.814,0.76,0.08,-0.64,-0.30,-0.41,1.73,
1.815,0.76,0.08,-0.64,-0.31,-0.34,1.72,
1.815,0.76,0.08,-0.64,-0.32,-0.23,1.71,
1.815,0.76,0.08,-0.64,-0.32,-0.19,1.71,
1.815,0.76,0.08,-0.64,-0.33,-0.11,1.72,
1.817,0.47,0.31,-1.29,-0.33,-0.11,1.72,
1.818,0.47,0.31,-1.29,-0.33,-0.03,1.73,
1.829,0.47,0.31,-1.29,-0.32,0.09,1.74,
1.829,0.47,0.31,-1.29,-0.31,0.17,1.75,
1.83,0.47,0.31,-1.29,-0.30,0.20,1.76,
1.83,0.47,0.31,-1.29,-0.29,0.27,1.76,
1.83,1.08,0.15,-1.18,-0.29,0.27,1.76,
1.83,1.08,0.15,-1.18,-0.27,0.33,1.77,
1.83,1.08,0.15,-1.18,-0.25,0.38,1.77,
1.832,1.08,0.15,-1.18,-0.22,0.45,1.78,
1.835,1.08,0.15,-1.18,-0.20,0.46,1.78,
1.836,1.08,0.15,-1.18,-0.17,0.48,1.78,
1.837,2.43,-0.33,-0.72,-0.17,0.48,1.78,
1.838,2.43,-0.33,-0.72,-0.14,0.48,1.79,
1.841,2.43,-0.33,-0.72,-0.10,0.48,1.79,
1.843,2.43,-0.33,-0.72,-0.04,0.49,1.79,
1.846,2.43,-0.33,-0.72,-0.02,0.49,1.79,
1.846,2.43,-0.33,-0.72,0.03,0.47,1.79,
1.847,3.08,-0.62,0.32,0.03,0.47,1.79,
1.848,3.08,-0.62,0.32,0.08,0.45,1.80,
1.869,3.08,-0.62,0.32,0.13,0.42,1.81,
1.869,3.08,-0.62,0.32,0.22,0.37,1.84,
1.87,3.08,-0.62,0.32,0.25,0.36,1.86,
1.87,3.08,-0.62,0.32,0.31,0.32,1.89,
1.87,2.29,-0.32,1.54,0.31,0.32,1.89,
1.871,2.29,-0.32,1.54,0.38,0.29,1.93,
1.871,2.29,-0.32,1.54,0.44,0.25,1.98,
1.871,2.29,-0.32,1.54,0.54,0.20,2.08,
1.871,2.29,-0.32,1.54,0.58,0.18,2.11,
1.872,2.29,-0.32,1.54,0.64,0.16,2.19,
1.872,0.95,0.27,2.10,0.64,0.16,2.19,
1.872,0.95,0.27,2.10,0.70,0.14,2.26,
1.872,0.95,0.27,2.10,0.75,0.14,2.34,
1.872,0.95,0.27,2.10,0.83,0.16,2.46,
1.873,0.95,0.27,2.10,0.85,0.17,2.50,
1.877,0.95,0.27,2.10,0.89,0.20,2.58,
1.878,-0.41,0.76,1.91,0.89,0.20,2.58,
1.878,-0.41,0.76,1.91,0.94,0.24,2.66,
1.879,-0.41,0.76,1.91,0.98,0.30,2.74,
1.882,-0.41,0.76,1.91,1.02,0.39,2.85,
1.883,-0.41,0.76,1.91,1.03,0.42,2.89,
1.886,-0.41,0.76,1.91,1.05,0.47,2.95,
1.888,-1.05,0.84,1.64,1.05,0.47,2.95,
1.888,-1.05,0.84,1.64,1.05,0.51,3.00,
1.889,-1.05,0.84,1.64,1.03,0.53,3.05,
1.892,-1.05,0.84,1.64,0.98,0.54,3.08,
1.893,-1.05,0.84,1.64,0.96,0.54,3.09,
1.894,-1.05,0.84,1.64,0.90,0.53,3.10,
1.898,-0.79,0.65,0.86,0.90,0.53,3.10,
1.898,-0.79,0.65,0.86,0.84,0.52,3.10,
1.899,-0.79,0.65,0.86,0.77,0.50,3.09,
1.905,-0.79,0.65,0.86,0.66,0.46,3.06,
1.905,-0.79,0.65,0.86,0.63,0.45,3.05,
1.905,-0.79,0.65,0.86,0.56,0.43,3.01,
1.908,-0.94,1.10,0.84,0.56,0.43,3.01,
1.908,-0.94,1.10,0.84,0.50,0.39,2.97,
1.909,-0.94,1.10,0.84,0.45,0.36,2.94,
1.915,-0.94,1.10,0.84,0.39,0.31,2.88,
1.915,-0.94,1.10,0.84,0.38,0.28,2.86,
1.915,-0.94,1.10,0.84,0.37,0.23,2.82,
1.917,-1.35,2.23,1.49,0.37,0.23,2.82,
1.917,-1.35,2.23,1.49,0.36,0.16,2.78,
1.919,-1.35,2.23,1.49,0.36,0.08,2.74,
1.928,-1.35,2.23,1.49,0.38,-0.08,2.68,
1.929,-1.35,2.23,1.49,0.38,-0.13,2.65,
1.929,-1.35,2.23,1.49,0.39,-0.27,2.60,
1.929,-1.30,3.22,2.53,0.39,-0.27,2.60,
1.929,-1.30,3.22,2.53,0.41,-0.41,2.54,
1.929,-1.30,3.22,2.53,0.42,-0.57,2.48,
1.932,-1.30,3.22,2.53,0.42,-0.81,2.38,
1.933,-1.30,3.22,2.53,0.42,-0.89,2.35,
1.934,-1.30,3.22,2.53,0.42,-1.02,2.28,
1.952,-0.99,3.73,2.26,0.42,-1.02,2.28,
1.952,-0.99,3.73,2.26,0.42,-1.13,2.22,
1.952,-0.99,3.73,2.26,0.43,-1.20,2.17,
1.952,-0.99,3.73,2.26,0.43,-1.25,2.10,
1.953,-0.99,3.73,2.26,0.43,-1.24,2.07,
1.953,-0.99,3.73,2.26,0.42,-1.21,2.03,
1.953,-0.95,3.69,1.59,0.42,-1.21,2.03,
1.953,-0.95,3.69,1.59,0.42,-1.16,1.99,
1.953,-0.95,3.69,1.59,0.41,-1.09,1.94,
1.953,-0.95,3.69,1.59,0.38,-0.97,1.87,
1.953,-0.95,3.69,1.59,0.36,-0.92,1.85,
1.955,-0.95,3.69,1.59,0.33,-0.83,1.80,
1.957,-0.53,3.15,0.44,0.33,-0.83,1.80,
1.957,-0.53,3.15,0.44,0.29,-0.75,1.74,
1.958,-0.53,3.15,0.44,0.24,-0.67,1.69,
1.962,-0.53,3.15,0.44,0.14,-0.56,1.61,
1.962,-0.53,3.15,0.44,0.11,-0.53,1.58,
1.964,-0.53,3.15,0.44,0.03,-0.48,1.52,
1.966,0.11,2.60,-0.84,0.03,-0.48,1.52,
1.967,0.11,2.60,-0.84,-0.05,-0.44,1.46,
1.968,0.11,2.60,-0.84,-0.13,-0.41,1.41,
1.974,0.11,2.60,-0.84,-0.26,-0.39,1.31,
1.975,0.11,2.60,-0.84,-0.31,-0.38,1.28,
1.975,0.11,2.60,-0.84,-0.40,-0.38,1.22,
1.978,0.44,1.95,-1.50,-0.40,-0.38,1.22,
1.979,0.44,1.95,-1.50,-0.48,-0.39,1.16,
1.98,0.44,1.95,-1.50,-0.57,-0.41,1.09,
1.981,0.44,1.95,-1.50,-0.68,-0.43,1.00,
1.982,0.44,1.95,-1.50,-0.72,-0.43,0.98,
1.984,0.44,1.95,-1.50,-0.80,-0.45,0.92,
1.987,0.29,1.37,-1.41,-0.80,-0.45,0.92,
1.987,0.29,1.37,-1.41,-0.87,-0.47,0.86,
1.989,0.29,1.37,-1.41,-0.93,-0.48,0.82,
1.991,0.29,1.37,-1.41,-1.01,-0.50,0.75,
1.992,0.29,1.37,-1.41,-1.03,-0.50,0.73,
1.994,0.29,1.37,-1.41,-1.07,-0.50,0.70,
1.997,-0.28,0.81,-0.91,-1.07,-0.50,0.70,
1.997,-0.28,0.81,-0.91,-1.11,-0.49,0.67,
1.998,-0.28,0.81,-0.91,-1.13,-0.47,0.65,
2.001,-0.28,0.81,-0.91,-1.15,-0.45,0.63,
2.003,-0.28,0.81,-0.91,-1.15,-0.44,0.63,
2.005,-0.28,0.81,-0.91,-1.14,-0.42,0.63,
2.007,-0.97,0.38,-0.16,-1.14,-0.42,0.63,
2.007,-0.97,0.38,-0.16,-1.13,-0.41,0.63,
2.009,-0.97,0.38,-0.16,-1.11,-0.41,0.64,
2.011,-0.97,0.38,-0.16,-1.06,-0.42,0.66,
2.012,-0.97,0.38,-0.16,-1.04,-0.44,0.66,
2.014,-0.97,0.38,-0.16,-1.01,-0.47,0.68,
2.027,-1.48,0.02,0.63,-1.01,-0.47,0.68,
2.027,-1.48,0.02,0.63,-0.96,-0.51,0.69,
2.027,-1.48,0.02,0.63,-0.91,-0.56,0.71,
2.027,-1.48,0.02,0.63,-0.85,-0.63,0.73,
2.028,-1.48,0.02,0.63,-0.83,-0.65,0.74,
2.028,-1.48,0.02,0.63,-0.79,-0.69,0.76,
2.028,-1.59,-0.29,0.80,-0.79,-0.69,0.76,
2.028,-1.59,-0.29,0.80,-0.75,-0.73,0.77,
2.028,-1.59,-0.29,0.80,-0.70,-0.77,0.79,
2.031,-1.59,-0.29,0.80,-0.65,-0.83,0.81,
2.033,-1.59,-0.29,0.80,-0.63,-0.84,0.81,
2.034,-1.59,-0.29,0.80,-0.59,-0.87,0.83,
2.041,-1.31,-0.05,0.66,-0.59,-0.87,0.83,
2.042,-1.31,-0.05,0.66,-0.57,-0.90,0.84,
2.042,-1.31,-0.05,0.66,-0.54,-0.93,0.85,
2.042,-1.31,-0.05,0.66,-0.49,-0.97,0.86,
2.045,-1.31,-0.05,0.66,-0.48,-0.99,0.87,
2.045,-1.31,-0.05,0.66,-0.45,-1.03,0.89,
2.047,-1.11,0.30,0.74,-0.45,-1.03,0.89,
2.047,-1.11,0.30,0.74,-0.43,-1.06,0.91,
2.048,-1.11,0.30,0.74,-0.42,-1.11,0.92,
2.051,-1.11,0.30,0.74,-0.41,-1.21,0.96,
2.059,-1.11,0.30,0.74,-0.41,-1.24,0.97,
2.059,-1.11,0.30,0.74,-0.43,-1.33,1.00,
2.059,-1.22,0.42,0.43,-0.43,-1.33,1.00,
2.06,-1.22,0.42,0.43,-0.44,-1.42,1.04,
2.06,-1.22,0.42,0.43,-0.47,-1.51,1.07,
2.061,-1.22,0.42,0.43,-0.55,-1.68,1.13,
2.062,-1.22,0.42,0.43,-0.58,-1.73,1.15,
2.067,-1.22,0.42,0.43,-0.65,-1.85,1.20,
2.068,-1.65,1.07,-0.42,-0.65,-1.85,1.20,
2.068,-1.65,1.07,-0.42,-0.74,-1.97,1.26,
2.068,-1.65,1.07,-0.42,-0.84,-2.10,1.31,
2.071,-1.65,1.07,-0.42,-1.01,-2.31,1.39,
2.073,-1.65,1.07,-0.42,-1.07,-2.38,1.42,
2.074,-1.65,1.07,-0.42,-1.21,-2.52,1.48,
2.077,-2.10,2.33,-1.55,-1.21,-2.52,1.48,
2.077,-2.10,2.33,-1.55,-1.35,-2.65,1.54,
2.078,-2.10,2.33,-1.55,-1.51,-2.78,1.60,
2.083,-2.10,2.33,-1.55,-1.75,-2.98,1.67,
2.083,-2.10,2.33,-1.55,-1.84,-3.04,1.70,
2.084,-2.10,2.33,-1.55,-2.01,-3.15,1.74,
2.087,-2.23,3.82,-2.91,-2.01,-3.15,1.74,
2.087,-2.23,3.82,-2.91,-2.18,-3.25,1.79,
2.088,-2.23,3.82,-2.91,-2.36,-3.33,1.85,
2.091,-2.23,3.82,-2.91,-2.61,-3.39,1.95,
2.094,-2.23,3.82,-2.91,-2.70,-3.40,1.98,
2.094,-2.23,3.82,-2.91,-2.86,-3.41,2.06,
2.096,-2.63,4.60,-3.43,-2.86,-3.41,2.06,
2.096,-2.63,4.60,-3.43,-3.01,-3.39,2.13,
2.098,-2.63,4.60,-3.43,-3.13,-3.34,2.21,
2.101,-2.63,4.60,-3.43,-3.28,-3.24,2.33,
2.102,-2.63,4.60,-3.43,-3.32,-3.21,2.37,
2.104,-2.63,4.60,-3.43,-3.40,-3.15,2.46,
2.107,-3.00,4.89,-2.78,-3.40,-3.15,2.46,
2.107,-3.00,4.89,-2.78,-3.45,-3.10,2.54,
2.109,-3.00,4.89,-2.78,-3.49,-3.07,2.62,
2.111,-3.00,4.89,-2.78,-3.51,-3.07,2.74,
2.113,-3.00,4.89,-2.78,-3.50,-3.08,2.78,
2.115,-3.00,4.89,-2.78,-3.48,-3.15,2.86,
2.12,-2.98,5.14,-0.98,-3.48,-3.15,2.86,
2.12,-2.98,5.14,-0.98,-3.44,-3.25,2.94,
2.12,-2.98,5.14,-0.98,-3.38,-3.41,3.03,
2.124,-2.98,5.14,-0.98,-3.24,-3.70,3.14,
2.126,-2.98,5.14,-0.98,-3.18,-3.81,3.18,
2.127,-2.98,5.14,-0.98,-3.05,-4.04,3.24,
2.131,-2.66,5.09,1.90,-3.05,-4.04,3.24,
2.132,-2.66,5.09,1.90,-2.89,-4.28,3.30,
2.132,-2.66,5.09,1.90,-2.70,-4.50,3.35,
2.132,-2.66,5.09,1.90,-2.41,-4.80,3.39,
2.133,-2.66,5.09,1.90,-2.30,-4.89,3.40,
2.134,-2.66,5.09,1.90,-2.09,-5.02,3.40,
2.141,-1.72,5.35,4.95,-2.09,-5.02,3.40,
2.142,-1.72,5.35,4.95,-1.86,-5.10,3.39,
2.143,-1.72,5.35,4.95,-1.61,-5.14,3.37,
2.143,-1.72,5.35,4.95,-1.23,-5.10,3.32,
2.145,-1.72,5.35,4.95,-1.11,-5.07,3.30,
2.145,-1.72,5.35,4.95,-0.85,-4.97,3.25,
2.147,-0.73,5.92,6.91,-0.85,-4.97,3.25,
2.148,-0.73,5.92,6.91,-0.60,-4.83,3.19,
2.148,-0.73,5.92,6.91,-0.35,-4.68,3.12,
2.152,-0.73,5.92,6.91,-0.02,-4.42,3.00,
2.157,-0.73,5.92,6.91,0.08,-4.31,2.96,
2.158,-0.73,5.92,6.91,0.29,-4.10,2.87,
2.158,0.22,5.99,5.72,0.29,-4.10,2.87,
2.158,0.22,5.99,5.72,0.49,-3.86,2.78,
2.159,0.22,5.99,5.72,0.67,-3.62,2.68,
2.161,0.22,5.99,5.72,0.97,-3.17,2.50,
2.163,0.22,5.99,5.72,1.06,-3.00,2.44,
2.164,0.22,5.99,5.72,1.24,-2.65,2.32,
2.167,2.66,3.27,5.00,1.24,-2.65,2.32,
2.167,2.66,3.27,5.00,1.40,-2.27,2.20,
2.171,2.66,3.27,5.00,1.60,-1.72,2.01,
2.171,2.66,3.27,5.00,1.74,-1.37,1.89,
2.173,2.66,3.27,5.00,1.81,-1.20,1.83,
2.175,2.66,3.27,5.00,1.94,-0.88,1.74,
2.179,5.55,-5.43,3.69,1.94,-0.88,1.74,
2.18,5.55,-5.43,3.69,2.07,-0.57,1.69,
2.18,5.55,-5.43,3.69,2.23,-0.30,1.66,
2.185,5.55,-5.43,3.69,2.51,0.09,1.70,
2.204,5.55,-5.43,3.69,2.62,0.20,1.74,
2.205,5.55,-5.43,3.69,2.86,0.40,1.85,
2.205,3.27,-17.09,7.14,2.86,0.40,1.85,
2.205,3.27,-17.09,7.14,3.12,0.58,2.00,
2.206,3.27,-17.09,7.14,3.40,0.71,2.19,
2.206,3.27,-17.09,7.14,3.81,0.76,2.53,
2.206,3.27,-17.09,7.14,3.94,0.73,2.66,
2.206,3.27,-17.09,7.14,4.16,0.60,2.93,
2.207,-1.89,-28.96,12.17,4.16,0.60,2.93,
2.207,-1.89,-28.96,12.17,4.33,0.37,3.21,
2.207,-1.89,-28.96,12.17,4.45,0.05,3.49,
2.208,-1.89,-28.96,12.17,4.50,-0.53,3.93,
2.208,-1.89,-28.96,12.17,4.49,-0.74,4.08,
2.208,-1.89,-28.96,12.17,4.44,-1.15,4.36,
2.209,-5.82,-37.10,9.10,4.44,-1.15,4.36,
2.209,-5.82,-37.10,9.10,4.34,-1.51,4.61,
2.209,-5.82,-37.10,9.10,4.20,-1.82,4.82,
2.22,-5.82,-37.10,9.10,3.95,-2.12,5.03,
2.221,-5.82,-37.10,9.10,3.86,-2.17,5.08,
2.221,-5.82,-37.10,9.10,3.67,-2.22,5.14,
2.221,-4.25,-32.62,3.60,3.67,-2.22,5.14,
2.222,-4.25,-32.62,3.60,3.49,-2.21,5.17,
2.222,-4.25,-32.62,3.60,3.30,-2.12,5.18,
2.222,-4.25,-32.62,3.60,3.05,-1.91,5.16,
2.222,-4.25,-32.62,3.60,2.97,-1.82,5.14,
2.232,-4.25,-32.62,3.60,2.83,-1.61,5.11,
2.232,-1.70,-19.95,0.91,2.83,-1.61,5.11,
2.233,-1.70,-19.95,0.91,2.71,-1.38,5.07,
2.233,-1.70,-19.95,0.91,2.59,-1.14,5.03,
2.233,-1.70,-19.95,0.91,2.45,-0.76,4.96,
2.233,-1.70,-19.95,0.91,2.41,-0.62,4.94,
2.244,-1.70,-19.95,0.91,2.34,-0.35,4.89,
2.245,-0.37,-8.91,-0.25,2.34,-0.35,4.89,
2.245,-0.37,-8.91,-0.25,2.27,-0.08,4.83,
2.245,-0.37,-8.91,-0.25,2.22,0.20,4.77,
2.245,-0.37,-8.91,-0.25,2.14,0.60,4.67,
2.246,-0.37,-8.91,-0.25,2.12,0.73,4.63,
2.246,-0.37,-8.91,-0.25,2.08,0.98,4.56,
2.247,0.86,-2.15,-1.30,2.08,0.98,4.56,
2.247,0.86,-2.15,-1.30,2.04,1.21,4.49,
2.253,0.86,-2.15,-1.30,2.00,1.43,4.41,
2.253,0.86,-2.15,-1.30,1.97,1.72,4.29,
2.254,0.86,-2.15,-1.30,1.95,1.80,4.24,
2.264,0.86,-2.15,-1.30,1.93,1.97,4.15,
2.265,1.75,0.92,-1.83,1.93,1.97,4.15,
2.265,1.75,0.92,-1.83,1.92,2.11,4.06,
2.265,1.75,0.92,-1.83,1.91,2.25,3.96,
2.265,1.75,0.92,-1.83,1.90,2.43,3.80,
2.265,1.75,0.92,-1.83,1.90,2.48,3.74,
2.265,1.75,0.92,-1.83,1.89,2.59,3.62,
2.266,2.49,2.15,-2.79,1.89,2.59,3.62,
2.267,2.49,2.15,-2.79,1.88,2.67,3.50,
2.282,2.49,2.15,-2.79,1.86,2.74,3.37,
2.282,2.49,2.15,-2.79,1.83,2.81,3.17,
2.282,2.49,2.15,-2.79,1.82,2.82,3.10,
2.282,2.49,2.15,-2.79,1.80,2.83,2.95,
2.282,3.17,2.70,-4.17,1.80,2.83,2.95,
2.282,3.17,2.70,-4.17,1.79,2.84,2.80,
2.283,3.17,2.70,-4.17,1.77,2.84,2.64,
2.283,3.17,2.70,-4.17,1.76,2.82,2.38,
2.283,3.17,2.70,-4.17,1.76,2.81,2.30,
2.284,3.17,2.70,-4.17,1.76,2.78,2.12,
2.298,3.59,2.61,-4.72,1.76,2.78,2.12,
2.298,3.59,2.61,-4.72,1.76,2.74,1.95,
2.298,3.59,2.61,-4.72,1.76,2.67,1.79,
2.298,3.59,2.61,-4.72,1.76,2.55,1.56,
2.299,3.59,2.61,-4.72,1.76,2.50,1.49,
2.299,3.59,2.61,-4.72,1.75,2.39,1.36,
2.299,2.51,2.06,-4.88,1.75,2.39,1.36,
2.299,2.51,2.06,-4.88,1.75,2.27,1.23,
2.299,2.51,2.06,-4.88,1.74,2.15,1.13,
2.31,2.51,2.06,-4.88,1.72,1.95,1.00,
2.31,2.51,2.06,-4.88,1.72,1.88,0.96,
2.31,2.51,2.06,-4.88,1.71,1.74,0.90,
2.31,0.19,0.82,-5.47,1.71,1.74,0.90,
2.31,0.19,0.82,-5.47,1.69,1.60,0.86,
2.31,0.19,0.82,-5.47,1.67,1.47,0.83,
2.311,0.19,0.82,-5.47,1.64,1.25,0.82,
2.312,0.19,0.82,-5.47,1.62,1.18,0.82,
2.314,0.19,0.82,-5.47,1.59,1.01,0.84,
2.316,-2.61,-0.44,-6.24,1.59,1.01,0.84,
2.317,-2.61,-0.44,-6.24,1.55,0.84,0.86,
2.33,-2.61,-0.44,-6.24,1.51,0.67,0.88,
2.331,-2.61,-0.44,-6.24,1.45,0.40,0.93,
2.331,-2.61,-0.44,-6.24,1.43,0.30,0.94,
2.331,-2.61,-0.44,-6.24,1.38,0.11,0.97,
2.332,-4.32,-1.32,-7.47,1.38,0.11,0.97,
2.332,-4.32,-1.32,-7.47,1.34,-0.09,1.00,
2.332,-4.32,-1.32,-7.47,1.30,-0.28,1.03,
2.332,-4.32,-1.32,-7.47,1.24,-0.58,1.07,
2.333,-4.32,-1.32,-7.47,1.22,-0.67,1.09,
2.362,-4.32,-1.32,-7.47,1.20,-0.85,1.11,
2.362,-5.00,-1.68,-7.74,1.20,-0.85,1.11,
2.362,-5.00,-1.68,-7.74,1.17,-1.01,1.13,
2.363,-5.00,-1.68,-7.74,1.16,-1.17,1.14,
2.363,-5.00,-1.68,-7.74,1.16,-1.36,1.14,
2.363,-5.00,-1.68,-7.74,1.16,-1.42,1.14,
2.364,-5.00,-1.68,-7.74,1.17,-1.52,1.13,
2.364,-4.26,-1.11,-6.82,1.17,-1.52,1.13,
2.364,-4.26,-1.11,-6.82,1.19,-1.60,1.11,
2.386,-4.26,-1.11,-6.82,1.21,-1.67,1.09,
2.386,-4.26,-1.11,-6.82,1.23,-1.74,1.07,
2.387,-4.26,-1.11,-6.82,1.24,-1.76,1.06,
2.387,-4.26,-1.11,-6.82,1.26,-1.78,1.05,
2.387,-3.29,0.01,-5.60,1.26,-1.78,1.05,
2.387,-3.29,0.01,-5.60,1.27,-1.79,1.04,
2.387,-3.29,0.01,-5.60,1.29,-1.80,1.03,
2.388,-3.29,0.01,-5.60,1.31,-1.79,1.02,
2.388,-3.29,0.01,-5.60,1.31,-1.79,1.02,
2.388,-3.29,0.01,-5.60,1.33,-1.77,1.02,
2.388,-2.85,0.97,-4.77,1.33,-1.77,1.02,
2.388,-2.85,0.97,-4.77,1.34,-1.75,1.02,
2.388,-2.85,0.97,-4.77,1.36,-1.73,1.02,
2.389,-2.85,0.97,-4.77,1.40,-1.71,1.02,
2.389,-2.85,0.97,-4.77,1.43,-1.71,1.02,
2.389,-2.85,0.97,-4.77,1.54,-1.75,1.00,
2.389,-1.76,1.55,-1.17,1.54,-1.75,1.00,
2.389,-1.76,1.55,-1.17,1.74,-1.87,0.98,
2.39,-1.76,1.55,-1.17,2.00,-2.02,0.93,
2.39,-1.76,1.55,-1.17,2.43,-2.26,0.85,
2.39,-1.76,1.55,-1.17,2.58,-2.33,0.82,
2.39,-1.76,1.55,-1.17,2.88,-2.48,0.77,
2.39,0.18,1.09,7.87,2.88,-2.48,0.77,
2.391,0.18,1.09,7.87,3.17,-2.61,0.71,
2.391,0.18,1.09,7.87,3.43,-2.71,0.67,
2.391,0.18,1.09,7.87,3.79,-2.79,0.62,
2.399,0.18,1.09,7.87,3.90,-2.80,0.61,
2.4,0.18,1.09,7.87,4.08,-2.78,0.58,
2.4,-0.50,0.81,7.05,4.08,-2.78,0.58,
2.4,-0.50,0.81,7.05,4.25,-2.70,0.57,
2.401,-0.50,0.81,7.05,4.38,-2.57,0.57,
2.417,-0.50,0.81,7.05,4.52,-2.27,0.58,
2.417,-0.50,0.81,7.05,4.56,-2.14,0.59,
2.417,-0.50,0.81,7.05,4.60,-1.84,0.60,
2.418,-1.67,1.00,3.38,4.60,-1.84,0.60,
2.418,-1.67,1.00,3.38,4.60,-1.49,0.62,
2.418,-1.67,1.00,3.38,4.57,-1.09,0.65,
2.418,-1.67,1.00,3.38,4.47,-0.44,0.70,
2.418,-1.67,1.00,3.38,4.42,-0.22,0.72,
2.419,-1.67,1.00,3.38,4.29,0.23,0.76,
2.419,-1.70,1.27,-1.01,4.29,0.23,0.76,
2.419,-1.70,1.27,-1.01,4.14,0.67,0.80,
2.422,-1.70,1.27,-1.01,3.97,1.08,0.85,
2.422,-1.70,1.27,-1.01,3.68,1.65,0.91,
2.423,-1.70,1.27,-1.01,3.58,1.81,0.94,
2.427,-1.70,1.27,-1.01,3.37,2.12,0.98,
2.427,-1.23,1.63,-4.52,3.37,2.12,0.98,
2.427,-1.23,1.63,-4.52,3.15,2.37,1.02,
2.428,-1.23,1.63,-4.52,2.93,2.57,1.06,
2.432,-1.23,1.63,-4.52,2.59,2.78,1.12,
2.432,-1.23,1.63,-4.52,2.48,2.82,1.14,
2.435,-1.23,1.63,-4.52,2.27,2.87,1.17,
2.44,-0.74,1.92,-5.40,2.27,2.87,1.17,
2.44,-0.74,1.92,-5.40,2.06,2.88,1.20,
2.44,-0.74,1.92,-5.40,1.87,2.84,1.23,
2.442,-0.74,1.92,-5.40,1.60,2.68,1.26,
2.443,-0.74,1.92,-5.40,1.51,2.60,1.26,
2.444,-0.74,1.92,-5.40,1.36,2.40,1.27,
2.446,-0.24,1.90,-3.86,1.36,2.40,1.27,
2.447,-0.24,1.90,-3.86,1.21,2.15,1.27,
2.448,-0.24,1.90,-3.86,1.09,1.87,1.27,
2.452,-0.24,1.90,-3.86,0.92,1.37,1.26,
2.452,-0.24,1.90,-3.86,0.87,1.19,1.25,
2.454,-0.24,1.90,-3.86,0.77,0.81,1.23,
2.456,0.23,1.71,-1.78,0.77,0.81,1.23,
2.457,0.23,1.71,-1.78,0.68,0.43,1.22,
2.458,0.23,1.71,-1.78,0.60,0.04,1.20,
2.461,0.23,1.71,-1.78,0.47,-0.53,1.17,
2.463,0.23,1.71,-1.78,0.42,-0.71,1.16,
2.465,0.23,1.71,-1.78,0.34,-1.07,1.14,
2.467,0.18,1.69,-1.65,0.34,-1.07,1.14,
2.467,0.18,1.69,-1.65,0.26,-1.41,1.11,
2.476,0.18,1.69,-1.65,0.18,-1.72,1.08,
2.478,0.18,1.69,-1.65,0.06,-2.13,1.02,
2.478,0.18,1.69,-1.65,0.02,-2.24,1.01,
2.479,0.18,1.69,-1.65,-0.06,-2.45,0.97,
2.479,0.34,1.69,-2.44,-0.06,-2.45,0.97,
2.479,0.34,1.69,-2.44,-0.15,-2.63,0.93,
2.48,0.34,1.69,-2.44,-0.23,-2.76,0.90,
2.484,0.34,1.69,-2.44,-0.35,-2.91,0.85,
2.484,0.34,1.69,-2.44,-0.39,-2.95,0.83,
2.512,0.34,1.69,-2.44,-0.46,-2.99,0.79,
2.512,0.24,1.66,-3.24,-0.46,-2.99,0.79,
2.513,0.24,1.66,-3.24,-0.54,-3.01,0.76,
2.513,0.24,1.66,-3.24,-0.61,-3.01,0.73,
2.513,0.24,1.66,-3.24,-0.71,-2.97,0.68,
2.514,0.24,1.66,-3.24,-0.74,-2.95,0.66,
2.514,0.24,1.66,-3.24,-0.80,-2.90,0.63,
2.514,0.33,1.58,-3.42,-0.80,-2.90,0.63,
2.514,0.33,1.58,-3.42,-0.85,-2.85,0.61,
2.515,0.33,1.58,-3.42,-0.90,-2.78,0.58,
2.515,0.33,1.58,-3.42,-0.96,-2.68,0.55,
2.515,0.33,1.58,-3.42,-0.97,-2.64,0.54,
2.516,0.33,1.58,-3.42,-1.00,-2.57,0.52,
2.516,0.78,1.31,-3.22,-1.00,-2.57,0.52,
2.516,0.78,1.31,-3.22,-1.02,-2.49,0.50,
2.516,0.78,1.31,-3.22,-1.03,-2.41,0.47,
2.517,0.78,1.31,-3.22,-1.04,-2.29,0.44,
2.517,0.78,1.31,-3.22,-1.04,-2.25,0.43,
2.517,0.78,1.31,-3.22,-1.03,-2.18,0.41,
2.539,1.42,1.09,-2.74,-1.03,-2.18,0.41,
2.54,1.42,1.09,-2.74,-1.03,-2.11,0.40,
2.54,1.42,1.09,-2.74,-1.02,-2.01,0.37,
2.54,1.42,1.09,-2.74,-1.00,-1.96,0.35,
2.54,1.42,1.09,-2.74,-1.00,-1.93,0.34,
2.541,1.42,1.09,-2.74,-0.98,-1.88,0.33,
2.541,2.13,0.87,-2.42,-0.98,-1.88,0.33,
2.541,2.13,0.87,-2.42,-0.97,-1.84,0.31,
2.541,2.13,0.87,-2.42,-0.96,-1.80,0.30,
2.542,2.13,0.87,-2.42,-0.94,-1.75,0.29,
2.542,2.13,0.87,-2.42,-0.94,-1.74,0.29,
2.542,2.13,0.87,-2.42,-0.92,-1.71,0.28,
2.543,2.39,0.68,-2.32,-0.92,-1.71,0.28,
2.543,2.39,0.68,-2.32,-0.91,-1.68,0.28,
2.543,2.39,0.68,-2.32,-0.91,-1.65,0.28,
2.543,2.39,0.68,-2.32,-0.89,-1.59,0.28,
2.544,2.39,0.68,-2.32,-0.88,-1.58,0.28,
2.551,2.39,0.68,-2.32,-0.86,-1.54,0.29,
2.551,2.45,0.46,-2.20,-0.86,-1.54,0.29,
2.552,2.45,0.46,-2.20,-0.85,-1.50,0.30,
2.552,2.45,0.46,-2.20,-0.83,-1.45,0.31,
2.552,2.45,0.46,-2.20,-0.81,-1.38,0.32,
2.552,2.45,0.46,-2.20,-0.80,-1.35,0.33,
2.555,2.45,0.46,-2.20,-0.78,-1.29,0.33,
2.557,2.42,0.41,-1.81,-0.78,-1.29,0.33,
2.558,2.42,0.41,-1.81,-0.75,-1.21,0.34,
2.558,2.42,0.41,-1.81,-0.73,-1.13,0.34,
2.561,2.42,0.41,-1.81,-0.68,-1.01,0.34,
2.563,2.42,0.41,-1.81,-0.66,-0.96,0.34,
2.565,2.42,0.41,-1.81,-0.63,-0.88,0.34,
2.568,2.47,0.73,-1.37,-0.63,-0.88,0.34,
2.569,2.47,0.73,-1.37,-0.60,-0.79,0.33,
2.57,2.47,0.73,-1.37,-0.57,-0.71,0.32,
2.572,2.47,0.73,-1.37,-0.53,-0.59,0.29,
2.573,2.47,0.73,-1.37,-0.51,-0.56,0.28,
2.574,2.47,0.73,-1.37,-0.49,-0.48,0.27,
2.577,2.37,1.17,-1.06,-0.49,-0.48,0.27,
2.577,2.37,1.17,-1.06,-0.47,-0.41,0.25,
2.579,2.37,1.17,-1.06,-0.45,-0.35,0.23,
2.581,2.37,1.17,-1.06,-0.43,-0.26,0.21,
2.583,2.37,1.17,-1.06,-0.42,-0.23,0.20,
2.585,2.37,1.17,-1.06,-0.42,-0.18,0.19,
2.587,2.24,1.56,-1.04,-0.42,-0.18,0.19,
2.587,2.24,1.56,-1.04,-0.41,-0.13,0.17,
2.589,2.24,1.56,-1.04,-0.41,-0.09,0.16,
2.592,2.24,1.56,-1.04,-0.42,-0.03,0.15,
2.593,2.24,1.56,-1.04,-0.42,-0.02,0.14,
2.594,2.24,1.56,-1.04,-0.43,0.01,0.13,
2.597,2.18,1.84,-0.96,-0.43,0.01,0.13,
2.597,2.18,1.84,-0.96,-0.44,0.04,0.11,
2.599,2.18,1.84,-0.96,-0.44,0.06,0.10,
2.61,2.18,1.84,-0.96,-0.47,0.08,0.08,
2.611,2.18,1.84,-0.96,-0.47,0.08,0.07,
2.611,2.18,1.84,-0.96,-0.48,0.09,0.06,
2.611,2.34,1.97,-0.67,-0.48,0.09,0.06,
2.612,2.34,1.97,-0.67,-0.50,0.09,0.04,
2.612,2.34,1.97,-0.67,-0.51,0.09,0.03,
2.612,2.34,1.97,-0.67,-0.54,0.08,0.01,
2.613,2.34,1.97,-0.67,-0.54,0.08,0.01,
2.616,2.34,1.97,-0.67,-0.56,0.08,-0.00,
2.638,2.32,2.04,-0.08,-0.56,0.08,-0.00,
2.638,2.32,2.04,-0.08,-0.57,0.07,-0.01,
2.638,2.32,2.04,-0.08,-0.59,0.06,-0.02,
2.638,2.32,2.04,-0.08,-0.61,0.05,-0.04,
2.639,2.32,2.04,-0.08,-0.62,0.04,-0.05,
2.639,2.32,2.04,-0.08,-0.63,0.03,-0.06,
2.639,2.48,2.04,0.61,-0.63,0.03,-0.06,
2.639,2.48,2.04,0.61,-0.65,0.02,-0.07,
2.639,2.48,2.04,0.61,-0.66,0.00,-0.09,
2.639,2.48,2.04,0.61,-0.69,-0.02,-0.11,
2.639,2.48,2.04,0.61,-0.74,-0.06,-0.15,
2.64,2.48,2.04,0.61,-0.74,-0.06,-0.15,
2.64,2.48,2.04,0.61,-0.74,-0.06,-0.15,
2.64,2.52,1.92,1.25,-0.74,-0.06,-0.15,
2.641,2.52,1.92,1.25,-0.77,-0.08,-0.17,
2.642,2.52,1.92,1.25,-0.79,-0.10,-0.18,
2.643,2.52,1.92,1.25,-0.80,-0.10,-0.19,
2.644,2.52,1.92,1.25,-0.83,-0.12,-0.21,
2.647,2.41,1.73,1.81,-0.83,-0.12,-0.21,
2.647,2.41,1.73,1.81,-0.85,-0.14,-0.22,
2.648,2.41,1.73,1.81,-0.87,-0.15,-0.23,
2.652,2.41,1.73,1.81,-0.90,-0.18,-0.25,
2.653,2.41,1.73,1.81,-0.91,-0.19,-0.26,
2.655,2.41,1.73,1.81,-0.93,-0.21,-0.27,
2.658,2.06,1.48,2.40,-0.93,-0.21,-0.27,
2.658,2.06,1.48,2.40,-0.95,-0.23,-0.29,
2.659,2.06,1.48,2.40,-0.97,-0.26,-0.30,
2.663,2.06,1.48,2.40,-0.99,-0.29,-0.32,
2.663,2.06,1.48,2.40,-1.00,-0.30,-0.32,
2.664,2.06,1.48,2.40,-1.01,-0.33,-0.33,
2.668,1.64,1.28,3.15,-1.01,-0.33,-0.33,
2.669,1.64,1.28,3.15,-1.03,-0.35,-0.34,
2.669,1.64,1.28,3.15,-1.04,-0.38,-0.35,
2.672,1.64,1.28,3.15,-1.05,-0.42,-0.37,
2.673,1.64,1.28,3.15,-1.06,-0.43,-0.37,
2.674,1.64,1.28,3.15,-1.06,-0.46,-0.38,
2.676,1.09,1.04,3.68,-1.06,-0.46,-0.38,
2.676,1.09,1.04,3.68,-1.07,-0.48,-0.39,
2.678,1.09,1.04,3.68,-1.07,-0.49,-0.40,
2.682,1.09,1.04,3.68,-1.07,-0.51,-0.41,
2.697,1.09,1.04,3.68,-1.07,-0.51,-0.41,
2.697,1.09,1.04,3.68,-1.07,-0.52,-0.42,
2.697,0.40,0.80,4.28,-1.07,-0.52,-0.42,
2.698,0.40,0.80,4.28,-1.07,-0.51,-0.42,
2.698,0.40,0.80,4.28,-1.06,-0.50,-0.42,
2.698,0.40,0.80,4.28,-1.04,-0.48,-0.43,
2.698,0.40,0.80,4.28,-1.03,-0.47,-0.43,
2.698,0.40,0.80,4.28,-1.02,-0.44,-0.43,
2.698,-0.38,0.47,4.63,-1.02,-0.44,-0.43,
2.698,-0.38,0.47,4.63,-1.01,-0.41,-0.43,
2.699,-0.38,0.47,4.63,-0.99,-0.38,-0.43,
2.701,-0.38,0.47,4.63,-0.96,-0.33,-0.44,
2.702,-0.38,0.47,4.63,-0.95,-0.32,-0.44,
2.705,-0.38,0.47,4.63,-0.93,-0.29,-0.44,
2.707,-1.06,0.08,4.91,-0.93,-0.29,-0.44,
2.707,-1.06,0.08,4.91,-0.91,-0.26,-0.45,
2.708,-1.06,0.08,4.91,-0.89,-0.24,-0.45,
2.712,-1.06,0.08,4.91,-0.86,-0.20,-0.46,
2.713,-1.06,0.08,4.91,-0.85,-0.19,-0.46,
2.715,-1.06,0.08,4.91,-0.83,-0.18,-0.46,
2.717,-1.54,-0.35,4.77,-0.83,-0.18,-0.46,
2.717,-1.54,-0.35,4.77,-0.81,-0.17,-0.47,
2.719,-1.54,-0.35,4.77,-0.80,-0.17,-0.48,
2.721,-1.54,-0.35,4.77,-0.77,-0.16,-0.48,
2.723,-1.54,-0.35,4.77,-0.77,-0.16,-0.48,
2.724,-1.54,-0.35,4.77,-0.75,-0.16,-0.49,
2.727,-2.00,-0.63,4.76,-0.75,-0.16,-0.49,
2.727,-2.00,-0.63,4.76,-0.73,-0.15,-0.49,
2.728,-2.00,-0.63,4.76,-0.72,-0.15,-0.48,
2.733,-2.00,-0.63,4.76,-0.69,-0.14,-0.48,
2.734,-2.00,-0.63,4.76,-0.68,-0.14,-0.47,
2.74,-2.00,-0.63,4.76,-0.66,-0.13,-0.47,
2.74,-2.35,-0.77,4.89,-0.66,-0.13,-0.47,
2.74,-2.35,-0.77,4.89,-0.63,-0.12,-0.46,
2.741,-2.35,-0.77,4.89,-0.61,-0.11,-0.45,
2.741,-2.35,-0.77,4.89,-0.56,-0.09,-0.43,
2.743,-2.35,-0.77,4.89,-0.55,-0.08,-0.42,
2.745,-2.35,-0.77,4.89,-0.52,-0.07,-0.41,
2.747,-2.48,-0.60,5.47,-0.52,-0.07,-0.41,
2.747,-2.48,-0.60,5.47,-0.48,-0.05,-0.40,
2.749,-2.48,-0.60,5.47,-0.45,-0.04,-0.38,
2.801,-2.48,-0.60,5.47,-0.40,-0.01,-0.36,
2.801,-2.48,-0.60,5.47,-0.38,-0.00,-0.35,
2.802,-2.48,-0.60,5.47,-0.34,0.01,-0.34,
2.802,-2.28,-0.39,6.09,-0.34,0.01,-0.34,
2.802,-2.28,-0.39,6.09,-0.30,0.03,-0.33,
2.803,-2.28,-0.39,6.09,-0.26,0.04,-0.31,
2.803,-2.28,-0.39,6.09,-0.20,0.06,-0.29,
2.803,-2.28,-0.39,6.09,-0.18,0.06,-0.28,
2.803,-2.28,-0.39,6.09,-0.15,0.08,-0.27,
2.804,-1.94,-0.16,6.67,-0.15,0.08,-0.27,
2.804,-1.94,-0.16,6.67,-0.11,0.09,-0.26,
2.804,-1.94,-0.16,6.67,-0.08,0.10,-0.24,
2.805,-1.94,-0.16,6.67,-0.03,0.11,-0.22,
2.805,-1.94,-0.16,6.67,-0.02,0.11,-0.21,
2.805,-1.94,-0.16,6.67,0.01,0.12,-0.20,
2.806,-1.47,-0.16,6.45,0.01,0.12,-0.20,
2.806,-1.47,-0.16,6.45,0.03,0.12,-0.18,
2.806,-1.47,-0.16,6.45,0.05,0.12,-0.17,
2.807,-1.47,-0.16,6.45,0.09,0.14,-0.14,
2.807,-1.47,-0.16,6.45,0.10,0.14,-0.13,
2.807,-1.47,-0.16,6.45,0.12,0.16,-0.12,
2.808,-0.98,-0.08,5.90,0.12,0.16,-0.12,
2.808,-0.98,-0.08,5.90,0.14,0.17,-0.10,
2.808,-0.98,-0.08,5.90,0.15,0.19,-0.08,
2.808,-0.98,-0.08,5.90,0.17,0.23,-0.05,
2.809,-0.98,-0.08,5.90,0.18,0.25,-0.04,
2.809,-0.98,-0.08,5.90,0.19,0.28,-0.02,
2.809,-0.51,-0.01,4.74,0.19,0.28,-0.02,
2.81,-0.51,-0.01,4.74,0.19,0.31,-0.00,
2.81,-0.51,-0.01,4.74,0.20,0.35,0.01,
2.81,-0.51,-0.01,4.74,0.20,0.41,0.03,
2.81,-0.51,-0.01,4.74,0.20,0.44,0.04,
2.811,-0.51,-0.01,4.74,0.21,0.49,0.05,
2.811,-0.01,0.12,3.52,0.21,0.49,0.05,
2.811,-0.01,0.12,3.52,0.21,0.54,0.06,
2.812,-0.01,0.12,3.52,0.22,0.60,0.07,
2.812,-0.01,0.12,3.52,0.24,0.69,0.07,
2.815,-0.01,0.12,3.52,0.24,0.73,0.08,
2.816,-0.01,0.12,3.52,0.25,0.80,0.08,
2.818,0.30,0.37,2.19,0.25,0.80,0.08,
2.82,0.30,0.37,2.19,0.26,0.88,0.09,
2.821,0.30,0.37,2.19,0.27,0.96,0.09,
2.822,0.30,0.37,2.19,0.29,1.09,0.10,
2.824,0.30,0.37,2.19,0.30,1.14,0.10,
2.825,0.30,0.37,2.19,0.32,1.23,0.10,
2.827,0.39,0.86,0.59,0.32,1.23,0.10,
2.828,0.39,0.86,0.59,0.33,1.32,0.11,
2.828,0.39,0.86,0.59,0.35,1.40,0.12,
2.832,0.39,0.86,0.59,0.37,1.51,0.15,
2.835,0.39,0.86,0.59,0.38,1.54,0.16,
2.835,0.39,0.86,0.59,0.39,1.59,0.18,
2.837,-0.33,1.05,-1.10,0.39,1.59,0.18,
2.837,-0.33,1.05,-1.10,0.41,1.63,0.21,
2.838,-0.33,1.05,-1.10,0.41,1.65,0.25,
2.841,-0.33,1.05,-1.10,0.41,1.68,0.30,
2.843,-0.33,1.05,-1.10,0.41,1.69,0.31,
2.844,-0.33,1.05,-1.10,0.40,1.70,0.34,
2.847,-1.49,0.21,-2.20,0.40,1.70,0.34,
2.848,-1.49,0.21,-2.20,0.38,1.72,0.38,
2.885,-1.49,0.21,-2.20,0.35,1.75,0.41,
2.885,-1.49,0.21,-2.20,0.30,1.80,0.45,
2.886,-1.49,0.21,-2.20,0.28,1.82,0.46,
2.886,-1.49,0.21,-2.20,0.24,1.85,0.49,
2.886,-2.63,-1.23,-2.74,0.24,1.85,0.49,
2.887,-2.63,-1.23,-2.74,0.19,1.88,0.52,
2.887,-2.63,-1.23,-2.74,0.14,1.91,0.54,
2.887,-2.63,-1.23,-2.74,0.05,1.93,0.57,
2.887,-2.63,-1.23,-2.74,0.02,1.93,0.58,
2.888,-2.63,-1.23,-2.74,-0.05,1.92,0.59,
2.888,-3.69,-2.73,-3.52,-0.05,1.92,0.59,
2.888,-3.69,-2.73,-3.52,-0.13,1.90,0.58,
2.889,-3.69,-2.73,-3.52,-0.26,1.82,0.55,
2.889,-3.69,-2.73,-3.52,-0.36,1.75,0.52,
2.889,-3.69,-2.73,-3.52,-0.41,1.71,0.49,
2.89,-3.69,-2.73,-3.52,-0.52,1.61,0.44,
2.89,-2.64,-3.13,-5.72,-0.52,1.61,0.44,
2.89,-2.64,-3.13,-5.72,-0.64,1.49,0.36,
2.89,-2.64,-3.13,-5.72,-0.76,1.36,0.27,
2.891,-2.64,-3.13,-5.72,-0.94,1.14,0.12,
2.891,-2.64,-3.13,-5.72,-1.01,1.06,0.07,
2.891,-2.64,-3.13,-5.72,-1.13,0.90,-0.03,
2.891,-0.87,-2.54,-8.55,-1.13,0.90,-0.03,
2.892,-0.87,-2.54,-8.55,-1.26,0.72,-0.13,
2.892,-0.87,-2.54,-8.55,-1.38,0.54,-0.23,
2.892,-0.87,-2.54,-8.55,-1.55,0.24,-0.37,
2.909,-0.87,-2.54,-8.55,-1.61,0.13,-0.41,
2.91,-0.87,-2.54,-8.55,-1.71,-0.10,-0.48,
2.91,-0.76,-1.58,-9.55,-1.71,-0.10,-0.48,
2.91,-0.76,-1.58,-9.55,-1.80,-0.34,-0.54,
2.911,-0.76,-1.58,-9.55,-1.88,-0.60,-0.59,
2.911,-0.76,-1.58,-9.55,-1.98,-1.00,-0.64,
2.911,-0.76,-1.58,-9.55,-2.00,-1.14,-0.65,
2.911,-0.76,-1.58,-9.55,-2.05,-1.43,-0.65,
2.912,-1.98,-0.73,-9.27,-2.05,-1.43,-0.65,
2.912,-1.98,-0.73,-9.27,-2.08,-1.73,-0.65,
2.912,-1.98,-0.73,-9.27,-2.11,-2.03,-0.64,
2.912,-1.98,-0.73,-9.27,-2.13,-2.48,-0.60,
2.913,-1.98,-0.73,-9.27,-2.13,-2.63,-0.59,
2.916,-1.98,-0.73,-9.27,-2.13,-2.91,-0.55,
2.953,-3.70,-0.38,-8.16,-2.13,-2.91,-0.55,
2.953,-3.70,-0.38,-8.16,-2.12,-3.19,-0.51,
2.953,-3.70,-0.38,-8.16,-2.10,-3.46,-0.45,
2.954,-3.70,-0.38,-8.16,-2.08,-3.82,-0.36,
2.954,-3.70,-0.38,-8.16,-2.07,-3.93,-0.33,
2.954,-3.70,-0.38,-8.16,-2.04,-4.14,-0.25,
2.955,-6.04,-0.75,-6.81,-2.04,-4.14,-0.25,
2.955,-6.04,-0.75,-6.81,-2.01,-4.32,-0.18,
2.955,-6.04,-0.75,-6.81,-1.98,-4.48,-0.10,
2.955,-6.04,-0.75,-6.81,-1.90,-4.70,0.03,
2.956,-6.04,-0.75,-6.81,-1.87,-4.76,0.07,
2.956,-6.04,-0.75,-6.81,-1.78,-4.88,0.16,
2.956,-8.00,-1.66,-3.93,-1.78,-4.88,0.16,
2.956,-8.00,-1.66,-3.93,-1.68,-4.99,0.26,
2.957,-8.00,-1.66,-3.93,-1.52,-5.13,0.37,
2.957,-8.00,-1.66,-3.93,-1.10,-5.46,0.53,
2.957,-8.00,-1.66,-3.93,-0.91,-5.59,0.59,
2.957,-8.00,-1.66,-3.93,-0.47,-5.74,0.71,
2.957,-10.88,-3.11,8.97,-0.47,-5.74,0.71,
2.958,-10.88,-3.11,8.97,-0.01,-5.67,0.84,
2.959,-10.88,-3.11,8.97,0.41,-5.34,0.96,
2.959,-10.88,-3.11,8.97,0.92,-4.46,1.14,
2.959,-10.88,-3.11,8.97,1.15,-3.83,1.24,
2.96,-10.88,-3.11,8.97,1.24,-3.53,1.29,
2.96,-10.58,-3.40,10.35,1.24,-3.53,1.29,
2.96,-10.58,-3.40,10.35,1.38,-2.94,1.36,
2.961,-10.58,-3.40,10.35,1.44,-2.39,1.40,
2.962,-10.58,-3.40,10.35,1.44,-1.70,1.43,
2.963,-10.58,-3.40,10.35,1.41,-1.49,1.42,
2.964,-10.58,-3.40,10.35,1.33,-1.14,1.40,
2.967,-4.39,-1.10,-0.32,1.33,-1.14,1.40,
2.968,-4.39,-1.10,-0.32,1.21,-0.85,1.37,
2.968,-4.39,-1.10,-0.32,1.06,-0.63,1.32,
2.971,-4.39,-1.10,-0.32,0.79,-0.41,1.21,
2.972,-4.39,-1.10,-0.32,0.69,-0.36,1.17,
2.974,-4.39,-1.10,-0.32,0.49,-0.29,1.09,
2.976,1.02,0.84,-7.32,0.49,-0.29,1.09,
2.977,1.02,0.84,-7.32,0.27,-0.27,0.99,
2.978,1.02,0.84,-7.32,0.05,-0.27,0.90,
2.981,1.02,0.84,-7.32,-0.29,-0.33,0.75,
2.984,1.02,0.84,-7.32,-0.41,-0.36,0.70,
2.985,1.02,0.84,-7.32,-0.65,-0.43,0.60,
2.987,3.98,2.00,-10.47,-0.65,-0.43,0.60,
2.987,3.98,2.00,-10.47,-0.90,-0.52,0.50,
2.988,3.98,2.00,-10.47,-1.15,-0.62,0.40,
2.991,3.98,2.00,-10.47,-1.53,-0.77,0.25,
2.992,3.98,2.00,-10.47,-1.66,-0.83,0.20,
2.994,3.98,2.00,-10.47,-1.91,-0.93,0.11,
2.997,5.16,2.39,-11.72,-1.91,-0.93,0.11,
2.997,5.16,2.39,-11.72,-2.16,-1.05,0.02,
3.001,5.16,2.39,-11.72,-2.41,-1.16,-0.07,
3.003,5.16,2.39,-11.72,-2.77,-1.34,-0.18,
3.004,5.16,2.39,-11.72,-2.89,-1.39,-0.22,
3.004,5.16,2.39,-11.72,-3.12,-1.50,-0.29,
3.007,5.24,1.79,-12.08,-3.12,-1.50,-0.29,
3.008,5.24,1.79,-12.08,-3.34,-1.60,-0.36,
3.008,5.24,1.79,-12.08,-3.55,-1.70,-0.42,
3.013,5.24,1.79,-12.08,-3.83,-1.83,-0.51,
3.013,5.24,1.79,-12.08,-3.92,-1.87,-0.53,
3.015,5.24,1.79,-12.08,-4.08,-1.94,-0.59,
3.031,4.48,0.65,-10.32,-4.08,-1.94,-0.59,
3.031,4.48,0.65,-10.32,-4.23,-2.00,-0.64,
3.031,4.48,0.65,-10.32,-4.36,-2.06,-0.68,
3.031,4.48,0.65,-10.32,-4.55,-2.13,-0.74,
3.031,4.48,0.65,-10.32,-4.60,-2.14,-0.75,
3.032,4.48,0.65,-10.32,-4.70,-2.15,-0.79,
3.032,3.40,-0.81,-8.28,-4.70,-2.15,-0.79,
3.032,3.40,-0.81,-8.28,-4.78,-2.15,-0.82,
3.032,3.40,-0.81,-8.28,-4.86,-2.15,-0.84,
3.032,3.40,-0.81,-8.28,-4.96,-2.13,-0.87,
3.04,3.40,-0.81,-8.28,-4.98,-2.12,-0.88,
3.041,3.40,-0.81,-8.28,-5.03,-2.10,-0.90,
3.041,2.26,-2.08,-6.33,-5.03,-2.10,-0.90,
3.041,2.26,-2.08,-6.33,-5.07,-2.07,-0.92,
3.041,2.26,-2.08,-6.33,-5.09,-2.03,-0.94,
3.043,2.26,-2.08,-6.33,-5.10,-1.96,-0.96,
3.043,2.26,-2.08,-6.33,-5.10,-1.93,-0.97,
3.044,2.26,-2.08,-6.33,-5.08,-1.87,-0.98,
3.081,1.57,-3.09,-4.50,-5.08,-1.87,-0.98,
3.082,1.57,-3.09,-4.50,-5.05,-1.81,-0.99,
3.082,1.57,-3.09,-4.50,-5.01,-1.74,-1.01,
3.082,1.57,-3.09,-4.50,-4.92,-1.65,-1.02,
3.082,1.57,-3.09,-4.50,-4.89,-1.61,-1.03,
3.083,1.57,-3.09,-4.50,-4.81,-1.55,-1.04,
3.083,1.10,-3.63,-2.58,-4.81,-1.55,-1.04,
3.083,1.10,-3.63,-2.58,-4.72,-1.49,-1.05,
3.083,1.10,-3.63,-2.58,-4.61,-1.43,-1.06,
3.083,1.10,-3.63,-2.58,-4.42,-1.39,-1.08,
3.083,1.10,-3.63,-2.58,-4.35,-1.38,-1.09,
3.083,1.10,-3.63,-2.58,-4.18,-1.40,-1.11,
3.084,1.37,-3.93,0.24,-4.18,-1.40,-1.11,
3.084,1.37,-3.93,0.24,-3.99,-1.46,-1.14,
3.084,1.37,-3.93,0.24,-3.76,-1.57,-1.16,
3.084,1.37,-3.93,0.24,-3.33,-1.85,-1.23,
3.084,1.37,-3.93,0.24,-3.16,-1.98,-1.25,
3.084,1.37,-3.93,0.24,-2.81,-2.26,-1.32,
3.085,3.22,-4.08,6.98,-2.81,-2.26,-1.32,
3.085,3.22,-4.08,6.98,-2.47,-2.55,-1.38,
3.085,3.22,-4.08,6.98,-2.13,-2.83,-1.45,
3.085,3.22,-4.08,6.98,-1.66,-3.23,-1.53,
3.088,3.22,-4.08,6.98,-1.52,-3.35,-1.55,
3.088,3.22,-4.08,6.98,-1.25,-3.56,-1.59,
3.088,3.74,-3.36,8.35,-1.25,-3.56,-1.59,
3.088,3.74,-3.36,8.35,-1.00,-3.75,-1.61,
3.089,3.74,-3.36,8.35,-0.78,-3.91,-1.63,
3.093,3.74,-3.36,8.35,-0.49,-4.09,-1.63,
3.094,3.74,-3.36,8.35,-0.40,-4.14,-1.63,
3.097,3.74,-3.36,8.35,-0.24,-4.21,-1.61,
3.102,2.17,-2.26,5.46,-0.24,-4.21,-1.61,
3.103,2.17,-2.26,5.46,-0.10,-4.26,-1.59,
3.103,2.17,-2.26,5.46,0.02,-4.27,-1.56,
3.103,2.17,-2.26,5.46,0.19,-4.23,-1.50,
3.103,2.17,-2.26,5.46,0.29,-4.14,-1.45,
3.105,2.17,-2.26,5.46,0.33,-4.08,-1.42,
3.108,0.89,-1.52,4.41,0.33,-4.08,-1.42,
3.109,0.89,-1.52,4.41,0.41,-3.90,-1.36,
3.109,0.89,-1.52,4.41,0.47,-3.65,-1.28,
3.113,0.89,-1.52,4.41,0.54,-3.12,-1.15,
3.114,0.89,-1.52,4.41,0.55,-2.91,-1.10,
3.114,0.89,-1.52,4.41,0.57,-2.46,-1.00,
3.122,0.11,-1.33,4.56,0.57,-2.46,-1.00,
3.122,0.11,-1.33,4.56,0.57,-1.98,-0.89,
3.122,0.11,-1.33,4.56,0.57,-1.49,-0.77,
3.123,0.11,-1.33,4.56,0.55,-0.75,-0.59,
3.123,0.11,-1.33,4.56,0.55,-0.52,-0.53,
3.124,0.11,-1.33,4.56,0.54,-0.07,-0.41,
3.127,0.10,-1.22,4.67,0.54,-0.07,-0.41,
3.127,0.10,-1.22,4.67,0.53,0.35,-0.30,
3.13,0.10,-1.22,4.67,0.52,0.73,-0.19,
3.161,0.10,-1.22,4.67,0.52,1.22,-0.05,
3.162,0.10,-1.22,4.67,0.52,1.36,-0.01,
3.162,0.10,-1.22,4.67,0.53,1.62,0.07,
3.162,1.36,-0.97,5.40,0.53,1.62,0.07,
3.162,1.36,-0.97,5.40,0.54,1.83,0.13,
3.162,1.36,-0.97,5.40,0.55,2.00,0.18,
3.162,1.36,-0.97,5.40,0.58,2.19,0.22,
3.162,1.36,-0.97,5.40,0.58,2.24,0.22,
3.163,1.36,-0.97,5.40,0.60,2.31,0.22,
3.163,3.07,-0.41,6.17,0.60,2.31,0.22,
3.163,3.07,-0.41,6.17,0.60,2.35,0.20,
3.163,3.07,-0.41,6.17,0.60,2.36,0.17,
3.163,3.07,-0.41,6.17,0.60,2.34,0.11,
3.163,3.07,-0.41,6.17,0.59,2.32,0.09,
3.163,3.07,-0.41,6.17,0.56,2.26,0.05,
3.164,3.72,0.16,5.02,0.56,2.26,0.05,
3.164,3.72,0.16,5.02,0.52,2.18,0.00,
3.164,3.72,0.16,5.02,0.47,2.08,-0.04,
3.164,3.72,0.16,5.02,0.36,1.90,-0.11,
3.167,3.72,0.16,5.02,0.32,1.83,-0.13,
3.168,3.72,0.16,5.02,0.23,1.69,-0.16,
3.169,3.16,0.54,2.50,0.23,1.69,-0.16,
3.169,3.16,0.54,2.50,0.13,1.54,-0.18,
3.169,3.16,0.54,2.50,0.02,1.38,-0.20,
3.172,3.16,0.54,2.50,-0.16,1.13,-0.21,
3.173,3.16,0.54,2.50,-0.22,1.05,-0.21,
3.174,3.16,0.54,2.50,-0.33,0.90,-0.20,
3.177,1.29,0.62,0.50,-0.33,0.90,-0.20,
3.177,1.29,0.62,0.50,-0.45,0.74,-0.18,
3.178,1.29,0.62,0.50,-0.56,0.60,-0.16,
3.185,1.29,0.62,0.50,-0.71,0.39,-0.12,
3.211,1.29,0.62,0.50,-0.75,0.32,-0.10,
3.211,1.29,0.62,0.50,-0.85,0.20,-0.06,
3.211,-0.37,0.44,0.14,-0.85,0.20,-0.06,
3.212,-0.37,0.44,0.14,-0.92,0.07,-0.03,
3.212,-0.37,0.44,0.14,-0.99,-0.06,0.00,
3.212,-0.37,0.44,0.14,-1.08,-0.25,0.04,
3.212,-0.37,0.44,0.14,-1.10,-0.31,0.06,
3.212,-0.37,0.44,0.14,-1.14,-0.43,0.08,
3.213,-0.76,0.27,0.84,-1.14,-0.43,0.08,
3.213,-0.76,0.27,0.84,-1.16,-0.56,0.10,
3.213,-0.76,0.27,0.84,-1.18,-0.68,0.12,
3.213,-0.76,0.27,0.84,-1.17,-0.85,0.14,
3.213,-0.76,0.27,0.84,-1.17,-0.90,0.14,
3.214,-0.76,0.27,0.84,-1.15,-1.01,0.15,
3.214,-0.45,0.24,2.10,-1.15,-1.01,0.15,
3.214,-0.45,0.24,2.10,-1.11,-1.12,0.15,
3.214,-0.45,0.24,2.10,-1.08,-1.22,0.15,
3.215,-0.45,0.24,2.10,-1.00,-1.39,0.14,
3.215,-0.45,0.24,2.10,-0.98,-1.44,0.14,
3.215,-0.45,0.24,2.10,-0.92,-1.54,0.13,
3.223,-0.07,0.16,2.83,-0.92,-1.54,0.13,
3.223,-0.07,0.16,2.83,-0.85,-1.65,0.12,
3.223,-0.07,0.16,2.83,-0.75,-1.79,0.11,
3.224,-0.07,0.16,2.83,-0.66,-1.87,0.10,
3.224,-0.07,0.16,2.83,-0.58,-1.95,0.08,
3.224,-0.07,0.16,2.83,-0.54,-1.98,0.08,
3.229,0.02,0.19,3.36,-0.54,-1.98,0.08,
3.229,0.02,0.19,3.36,-0.45,-2.04,0.07,
3.23,0.02,0.19,3.36,-0.36,-2.08,0.05,
3.235,0.02,0.19,3.36,-0.22,-2.13,0.03,
3.236,0.02,0.19,3.36,-0.17,-2.14,0.02,
3.236,0.02,0.19,3.36,-0.08,-2.15,0.01,
3.239,-0.01,0.28,3.52,-0.08,-2.15,0.01,
3.239,-0.01,0.28,3.52,0.01,-2.15,0.00,
3.24,-0.01,0.28,3.52,0.09,-2.14,0.00,
3.242,-0.01,0.28,3.52,0.22,-2.11,-0.00,
3.242,-0.01,0.28,3.52,0.26,-2.09,0.00,
3.246,-0.01,0.28,3.52,0.34,-2.04,0.01,
3.247,-0.16,0.34,3.93,0.34,-2.04,0.01,
3.247,-0.16,0.34,3.93,0.42,-1.99,0.02,
3.253,-0.16,0.34,3.93,0.49,-1.93,0.03,
3.254,-0.16,0.34,3.93,0.60,-1.81,0.06,
3.254,-0.16,0.34,3.93,0.63,-1.76,0.07,
3.255,-0.16,0.34,3.93,0.69,-1.67,0.08,
3.257,-0.07,0.37,4.64,0.69,-1.67,0.08,
3.257,-0.07,0.37,4.64,0.76,-1.57,0.10,
3.258,-0.07,0.37,4.64,0.81,-1.46,0.12,
3.263,-0.07,0.37,4.64,0.88,-1.29,0.14,
3.263,-0.07,0.37,4.64,0.90,-1.24,0.14,
3.273,-0.07,0.37,4.64,0.94,-1.13,0.15,
3.274,0.47,0.61,5.25,0.94,-1.13,0.15,
3.274,0.47,0.61,5.25,0.97,-1.03,0.17,
3.274,0.47,0.61,5.25,0.99,-0.93,0.17,
3.274,0.47,0.61,5.25,1.00,-0.80,0.18,
3.275,0.47,0.61,5.25,1.00,-0.76,0.19,
3.276,0.47,0.61,5.25,1.00,-0.70,0.19,
3.279,1.19,0.88,4.32,1.00,-0.70,0.19,
3.28,1.19,0.88,4.32,0.99,-0.65,0.18,
3.28,1.19,0.88,4.32,0.97,-0.60,0.18,
3.297,1.19,0.88,4.32,0.93,-0.55,0.17,
3.298,1.19,0.88,4.32,0.89,-0.52,0.16,
3.301,1.19,0.88,4.32,0.88,-0.51,0.15,
3.302,1.83,1.15,2.78,0.88,-0.51,0.15,
3.302,1.83,1.15,2.78,0.84,-0.49,0.13,
3.302,1.83,1.15,2.78,0.80,-0.48,0.12,
3.302,1.83,1.15,2.78,0.74,-0.45,0.09,
3.305,1.83,1.15,2.78,0.72,-0.44,0.08,
3.306,1.83,1.15,2.78,0.68,-0.43,0.07,
3.306,1.85,1.48,1.31,0.68,-0.43,0.07,
3.307,1.85,1.48,1.31,0.64,-0.43,0.05,
3.307,1.85,1.48,1.31,0.60,-0.43,0.03,
3.307,1.85,1.48,1.31,0.56,-0.44,0.00,
3.307,1.85,1.48,1.31,0.55,-0.44,-0.01,
3.307,1.85,1.48,1.31,0.52,-0.46,-0.03,
3.308,1.63,2.02,0.13,0.52,-0.46,-0.03,
3.308,1.63,2.02,0.13,0.50,-0.48,-0.05,
3.31,1.63,2.02,0.13,0.48,-0.51,-0.06,
3.312,1.63,2.02,0.13,0.46,-0.56,-0.09,
3.314,1.63,2.02,0.13,0.45,-0.58,-0.10,
3.315,1.63,2.02,0.13,0.44,-0.61,-0.12,
3.32,1.38,2.94,-1.23,0.44,-0.61,-0.12,
3.32,1.38,2.94,-1.23,0.42,-0.65,-0.14,
3.321,1.38,2.94,-1.23,0.41,-0.69,-0.15,
3.322,1.38,2.94,-1.23,0.39,-0.75,-0.18,
3.323,1.38,2.94,-1.23,0.38,-0.77,-0.18,
3.326,1.38,2.94,-1.23,0.37,-0.80,-0.20,
3.326,1.14,3.83,-2.00,0.37,-0.80,-0.20,
3.326,1.14,3.83,-2.00,0.36,-0.85,-0.21,
3.331,1.14,3.83,-2.00,0.35,-0.88,-0.23,
3.331,1.14,3.83,-2.00,0.35,-0.95,-0.24,
3.333,1.14,3.83,-2.00,0.35,-0.97,-0.24,
3.334,1.14,3.83,-2.00,0.35,-1.00,-0.25,
3.339,0.76,4.58,-1.55,0.35,-1.00,-0.25,
3.339,0.76,4.58,-1.55,0.36,-1.05,-0.25,
3.339,0.76,4.58,-1.55,0.37,-1.08,-0.24,
3.341,0.76,4.58,-1.55,0.39,-1.15,-0.23,
3.343,0.76,4.58,-1.55,0.40,-1.17,-0.23,
3.344,0.76,4.58,-1.55,0.42,-1.20,-0.21,
3.346,0.08,5.10,-0.19,0.42,-1.20,-0.21,
3.347,0.08,5.10,-0.19,0.44,-1.24,-0.20,
3.358,0.08,5.10,-0.19,0.46,-1.27,-0.18,
3.358,0.08,5.10,-0.19,0.47,-1.30,-0.16,
3.358,0.08,5.10,-0.19,0.47,-1.31,-0.15,
3.358,0.08,5.10,-0.19,0.47,-1.32,-0.13,
3.359,-0.16,4.93,-0.54,0.47,-1.32,-0.13,
3.359,-0.16,4.93,-0.54,0.45,-1.33,-0.12,
3.359,-0.16,4.93,-0.54,0.43,-1.33,-0.11,
3.361,-0.16,4.93,-0.54,0.38,-1.32,-0.10,
3.362,-0.16,4.93,-0.54,0.36,-1.31,-0.10,
3.364,-0.16,4.93,-0.54,0.32,-1.29,-0.10,
3.367,0.09,4.18,-2.97,0.32,-1.29,-0.10,
3.367,0.09,4.18,-2.97,0.28,-1.27,-0.10,
3.368,0.09,4.18,-2.97,0.24,-1.25,-0.11,
3.371,0.09,4.18,-2.97,0.16,-1.22,-0.13,
3.373,0.09,4.18,-2.97,0.12,-1.20,-0.15,
3.374,0.09,4.18,-2.97,0.10,-1.19,-0.15,
3.376,0.58,3.34,-4.81,0.10,-1.19,-0.15,
3.376,0.58,3.34,-4.81,0.06,-1.17,-0.17,
3.378,0.58,3.34,-4.81,0.02,-1.14,-0.19,
3.381,0.58,3.34,-4.81,-0.03,-1.11,-0.22,
3.383,0.58,3.34,-4.81,-0.05,-1.08,-0.24,
3.384,0.58,3.34,-4.81,-0.05,-1.06,-0.24,
3.386,0.56,3.09,-4.95,-0.05,-1.06,-0.24,
3.386,0.56,3.09,-4.95,-0.06,-1.03,-0.26,
3.388,0.56,3.09,-4.95,-0.06,-1.00,-0.28,
3.391,0.56,3.09,-4.95,-0.04,-0.96,-0.30,
3.392,0.56,3.09,-4.95,-0.02,-0.95,-0.30,
3.394,0.56,3.09,-4.95,0.00,-0.94,-0.32,
3.396,0.50,3.56,-2.89,0.00,-0.94,-0.32,
3.396,0.50,3.56,-2.89,0.04,-0.94,-0.33,
3.4,0.50,3.56,-2.89,0.08,-0.96,-0.33,
3.401,0.50,3.56,-2.89,0.16,-0.99,-0.34,
3.402,0.50,3.56,-2.89,0.21,-1.02,-0.35,
3.404,0.50,3.56,-2.89,0.24,-1.04,-0.35,
3.407,0.81,4.24,-0.29,0.24,-1.04,-0.35,
3.407,0.81,4.24,-0.29,0.29,-1.08,-0.35,
3.408,0.81,4.24,-0.29,0.35,-1.12,-0.35,
3.411,0.81,4.24,-0.29,0.42,-1.19,-0.33,
3.413,0.81,4.24,-0.29,0.44,-1.21,-0.33,
3.43,0.81,4.24,-0.29,0.47,-1.24,-0.31,
3.431,0.67,4.70,1.22,0.47,-1.24,-0.31,
3.431,0.67,4.70,1.22,0.49,-1.27,-0.29,
3.431,0.67,4.70,1.22,0.50,-1.28,-0.26,
3.431,0.67,4.70,1.22,0.47,-1.28,-0.22,
3.431,0.67,4.70,1.22,0.43,-1.26,-0.19,
3.432,0.67,4.70,1.22,0.41,-1.24,-0.17,
3.432,0.01,4.37,-0.99,0.41,-1.24,-0.17,
3.432,0.01,4.37,-0.99,0.34,-1.20,-0.13,
3.432,0.01,4.37,-0.99,0.27,-1.14,-0.10,
3.432,0.01,4.37,-0.99,0.15,-1.04,-0.04,
3.433,0.01,4.37,-0.99,0.06,-0.97,-0.01,
3.435,0.01,4.37,-0.99,0.02,-0.93,0.01,
3.436,-0.58,3.37,-3.99,0.02,-0.93,0.01,
3.437,-0.58,3.37,-3.99,-0.06,-0.86,0.04,
3.438,-0.58,3.37,-3.99,-0.14,-0.78,0.07,
3.441,-0.58,3.37,-3.99,-0.26,-0.68,0.10,
3.443,-0.58,3.37,-3.99,-0.32,-0.63,0.12,
3.444,-0.58,3.37,-3.99,-0.35,-0.61,0.13,
3.447,-0.68,1.94,-4.00,-0.35,-0.61,0.13,
3.448,-0.68,1.94,-4.00,-0.40,-0.59,0.14,
3.449,-0.68,1.94,-4.00,-0.43,-0.58,0.15,
3.452,-0.68,1.94,-4.00,-0.46,-0.61,0.15,
3.452,-0.68,1.94,-4.00,-0.45,-0.66,0.15,
3.454,-0.68,1.94,-4.00,-0.45,-0.70,0.15,
3.456,-0.21,0.36,-0.64,-0.45,-0.70,0.15,
3.457,-0.21,0.36,-0.64,-0.42,-0.80,0.15,
3.458,-0.21,0.36,-0.64,-0.37,-0.92,0.14,
3.461,-0.21,0.36,-0.64,-0.27,-1.14,0.13,
3.463,-0.21,0.36,-0.64,-0.18,-1.31,0.12,
3.47,-0.21,0.36,-0.64,-0.13,-1.39,0.12,
3.471,0.38,-1.37,4.49,-0.13,-1.39,0.12,
3.471,0.38,-1.37,4.49,-0.03,-1.57,0.11,
3.471,0.38,-1.37,4.49,0.07,-1.73,0.10,
3.472,0.38,-1.37,4.49,0.21,-1.95,0.09,
3.473,0.38,-1.37,4.49,0.29,-2.07,0.09,
3.474,0.38,-1.37,4.49,0.33,-2.12,0.09,
3.477,0.39,-2.82,6.06,0.33,-2.12,0.09,
3.478,0.39,-2.82,6.06,0.41,-2.20,0.09,
3.479,0.39,-2.82,6.06,0.47,-2.25,0.09,
3.482,0.39,-2.82,6.06,0.57,-2.29,0.09,
3.483,0.39,-2.82,6.06,0.62,-2.27,0.10,
3.484,0.39,-2.82,6.06,0.65,-2.26,0.10,
3.487,0.52,-3.27,5.99,0.65,-2.26,0.10,
3.487,0.52,-3.27,5.99,0.70,-2.21,0.10,
3.491,0.52,-3.27,5.99,0.75,-2.14,0.10,
3.492,0.52,-3.27,5.99,0.82,-2.00,0.10,
3.493,0.52,-3.27,5.99,0.87,-1.91,0.09,
3.495,0.52,-3.27,5.99,0.90,-1.86,0.09,
3.498,0.85,-3.13,6.28,0.90,-1.86,0.09,
3.499,0.85,-3.13,6.28,0.97,-1.77,0.08,
3.499,0.85,-3.13,6.28,1.03,-1.67,0.07,
3.502,0.85,-3.13,6.28,1.16,-1.54,0.05,
3.503,0.85,-3.13,6.28,1.26,-1.47,0.04,
3.507,0.85,-3.13,6.28,1.31,-1.44,0.04,
3.507,0.61,-3.03,8.01,1.31,-1.44,0.04,
3.508,0.61,-3.03,8.01,1.43,-1.38,0.04,
3.509,0.61,-3.03,8.01,1.56,-1.33,0.04,
3.515,0.61,-3.03,8.01,1.77,-1.27,0.06,
3.516,0.61,-3.03,8.01,1.92,-1.23,0.08,
3.516,0.61,-3.03,8.01,2.00,-1.22,0.09,
3.543,-1.41,-3.83,9.93,2.00,-1.22,0.09,
3.544,-1.41,-3.83,9.93,2.15,-1.20,0.12,
3.544,-1.41,-3.83,9.93,2.30,-1.18,0.16,
3.545,-1.41,-3.83,9.93,2.51,-1.16,0.23,
3.545,-1.41,-3.83,9.93,2.63,-1.15,0.28,
3.546,-1.41,-3.83,9.93,2.69,-1.15,0.30,
3.546,-4.00,-5.11,8.18,2.69,-1.15,0.30,
3.547,-4.00,-5.11,8.18,2.79,-1.14,0.36,
3.547,-4.00,-5.11,8.18,2.88,-1.14,0.41,
3.547,-4.00,-5.11,8.18,2.99,-1.13,0.49,
3.548,-4.00,-5.11,8.18,3.05,-1.13,0.54,
3.548,-4.00,-5.11,8.18,3.08,-1.12,0.57,
3.549,-5.68,-5.79,3.09,3.08,-1.12,0.57,
3.549,-5.68,-5.79,3.09,3.12,-1.12,0.62,
3.55,-5.68,-5.79,3.09,3.17,-1.11,0.67,
3.55,-5.68,-5.79,3.09,3.23,-1.10,0.75,
3.551,-5.68,-5.79,3.09,3.27,-1.08,0.79,
3.551,-5.68,-5.79,3.09,3.30,-1.07,0.81,
3.551,-6.45,-5.44,-1.35,3.30,-1.07,0.81,
3.552,-6.45,-5.44,-1.35,3.34,-1.05,0.85,
3.552,-6.45,-5.44,-1.35,3.40,-1.03,0.88,
3.553,-6.45,-5.44,-1.35,3.47,-1.01,0.91,
3.553,-6.45,-5.44,-1.35,3.52,-1.01,0.93,
3.564,-6.45,-5.44,-1.35,3.55,-1.02,0.94,
3.565,-5.93,-4.17,-3.12,3.55,-1.02,0.94,
3.565,-5.93,-4.17,-3.12,3.59,-1.03,0.95,
3.566,-5.93,-4.17,-3.12,3.63,-1.05,0.95,
3.566,-5.93,-4.17,-3.12,3.69,-1.08,0.97,
3.566,-5.93,-4.17,-3.12,3.72,-1.09,0.97,
3.567,-5.93,-4.17,-3.12,3.73,-1.09,0.98,
3.567,-5.62,-2.97,-3.66,3.73,-1.09,0.98,
3.568,-5.62,-2.97,-3.66,3.75,-1.07,0.99,
3.596,-5.62,-2.97,-3.66,3.78,-1.01,1.01,
3.596,-5.62,-2.97,-3.66,3.81,-0.89,1.02,
3.597,-5.62,-2.97,-3.66,3.82,-0.83,1.02,
3.597,-5.62,-2.97,-3.66,3.83,-0.77,1.02,
3.597,-5.49,-2.32,-3.19,3.83,-0.77,1.02,
3.598,-5.49,-2.32,-3.19,3.84,-0.62,1.02,
3.598,-5.49,-2.32,-3.19,3.83,-0.43,1.01,
3.599,-5.49,-2.32,-3.19,3.81,-0.11,1.00,
3.599,-5.49,-2.32,-3.19,3.78,0.14,0.99,
3.599,-5.49,-2.32,-3.19,3.76,0.26,0.99,
3.6,-5.81,-2.77,-2.99,3.76,0.26,0.99,
3.6,-5.81,-2.77,-2.99,3.70,0.51,0.97,
3.601,-5.81,-2.77,-2.99,3.64,0.75,0.96,
3.601,-5.81,-2.77,-2.99,3.54,1.04,0.91,
3.601,-5.81,-2.77,-2.99,3.46,1.17,0.88,
3.602,-5.81,-2.77,-2.99,3.42,1.21,0.86,
3.602,-5.53,-4.94,-1.65,3.42,1.21,0.86,
3.602,-5.53,-4.94,-1.65,3.34,1.24,0.82,
3.603,-5.53,-4.94,-1.65,3.27,1.19,0.76,
3.603,-5.53,-4.94,-1.65,3.17,0.95,0.65,
3.603,-5.53,-4.94,-1.65,3.09,0.68,0.55,
3.608,-5.53,-4.94,-1.65,3.05,0.53,0.50,
3.608,-3.94,-8.51,0.78,3.05,0.53,0.50,
3.608,-3.94,-8.51,0.78,2.95,0.20,0.39,
3.609,-3.94,-8.51,0.78,2.83,-0.16,0.28,
3.612,-3.94,-8.51,0.78,2.60,-0.68,0.12,
3.624,-3.94,-8.51,0.78,2.41,-1.00,0.03,
3.624,-3.94,-8.51,0.78,2.31,-1.14,-0.01,
3.625,-3.51,-10.40,-3.65,2.31,-1.14,-0.01,
3.625,-3.51,-10.40,-3.65,2.09,-1.41,-0.07,
3.625,-3.51,-10.40,-3.65,1.85,-1.64,-0.14,
3.625,-3.51,-10.40,-3.65,1.50,-1.92,-0.22,
3.626,-3.51,-10.40,-3.65,1.28,-2.08,-0.27,
3.626,-3.51,-10.40,-3.65,1.17,-2.16,-0.30,
3.627,-3.11,-9.84,-8.59,1.17,-2.16,-0.30,
3.627,-3.11,-9.84,-8.59,0.97,-2.28,-0.36,
3.628,-3.11,-9.84,-8.59,0.80,-2.38,-0.43,
3.666,-3.11,-9.84,-8.59,0.59,-2.50,-0.55,
3.667,-3.11,-9.84,-8.59,0.44,-2.58,-0.79,
3.667,-3.11,-9.84,-8.59,0.44,-2.58,-0.79,
3.667,0.01,-8.64,-4.76,0.44,-2.58,-0.79,
3.667,0.01,-8.64,-4.76,0.44,-2.58,-0.79,
3.667,0.01,-8.64,-4.76,0.46,-2.59,-0.99,
3.673,0.01,-8.64,-4.76,0.55,-2.57,-1.13,
3.673,0.01,-8.64,-4.76,0.58,-2.55,-1.17,
3.673,0.01,-8.64,-4.76,0.62,-2.53,-1.21,
3.674,1.11,-7.07,-0.17,0.62,-2.53,-1.21,
3.674,1.11,-7.07,-0.17,0.66,-2.51,-1.24,
3.674,1.11,-7.07,-0.17,0.73,-2.43,-1.30,
3.674,1.11,-7.07,-0.17,0.86,-2.26,-1.36,
3.675,1.11,-7.07,-0.17,0.95,-2.11,-1.39,
3.675,1.11,-7.07,-0.17,0.99,-2.02,-1.40,
3.675,-0.17,-4.52,0.57,0.99,-2.02,-1.40,
3.675,-0.17,-4.52,0.57,1.08,-1.83,-1.40,
3.675,-0.17,-4.52,0.57,1.16,-1.62,-1.39,
3.676,-0.17,-4.52,0.57,1.28,-1.29,-1.34,
3.676,-0.17,-4.52,0.57,1.34,-1.08,-1.29,
3.676,-0.17,-4.52,0.57,1.36,-0.98,-1.26,
3.676,-1.69,-2.53,-1.31,1.36,-0.98,-1.26,
3.676,-1.69,-2.53,-1.31,1.41,-0.79,-1.20,
3.676,-1.69,-2.53,-1.31,1.44,-0.62,-1.12,
3.677,-1.69,-2.53,-1.31,1.48,-0.39,-0.99,
3.677,-1.69,-2.53,-1.31,1.50,-0.26,-0.90,
3.677,-1.69,-2.53,-1.31,1.51,-0.20,-0.85,
3.677,-2.31,-0.68,-3.30,1.51,-0.20,-0.85,
3.677,-2.31,-0.68,-3.30,1.52,-0.09,-0.76,
3.679,-2.31,-0.68,-3.30,1.53,0.01,-0.66,
3.682,-2.31,-0.68,-3.30,1.54,0.13,-0.52,
3.699,-2.31,-0.68,-3.30,1.54,0.18,-0.43,
3.699,-2.31,-0.68,-3.30,1.54,0.20,-0.38,
3.7,-1.73,0.79,-4.18,1.54,0.20,-0.38,
3.7,-1.73,0.79,-4.18,1.53,0.23,-0.30,
3.7,-1.73,0.79,-4.18,1.52,0.25,-0.22,
3.7,-1.73,0.79,-4.18,1.50,0.27,-0.10,
3.7,-1.73,0.79,-4.18,1.47,0.28,-0.03,
3.701,-1.73,0.79,-4.18,1.46,0.29,0.01,
3.701,-0.48,2.13,-4.63,1.46,0.29,0.01,
3.701,-0.48,2.13,-4.63,1.43,0.31,0.07,
3.701,-0.48,2.13,-4.63,1.40,0.34,0.12,
3.709,-0.48,2.13,-4.63,1.32,0.40,0.20,
3.71,-0.48,2.13,-4.63,1.29,0.42,0.22,
3.71,-0.48,2.13,-4.63,1.26,0.44,0.23,
3.71,1.04,3.19,-5.15,1.26,0.44,0.23,
3.71,1.04,3.19,-5.15,1.21,0.47,0.26,
3.71,1.04,3.19,-5.15,1.14,0.49,0.28,
3.712,1.04,3.19,-5.15,1.02,0.52,0.30,
3.749,1.04,3.19,-5.15,0.93,0.52,0.30,
3.75,1.04,3.19,-5.15,0.88,0.53,0.31,
3.75,1.98,4.22,-5.83,0.88,0.53,0.31,
3.751,1.98,4.22,-5.83,0.79,0.53,0.30,
3.751,1.98,4.22,-5.83,0.69,0.52,0.29,
3.751,1.98,4.22,-5.83,0.53,0.51,0.27,
3.751,1.98,4.22,-5.83,0.42,0.50,0.24,
3.752,1.98,4.22,-5.83,0.37,0.50,0.22,
3.752,2.89,5.15,-6.42,0.37,0.50,0.22,
3.752,2.89,5.15,-6.42,0.26,0.49,0.19,
3.752,2.89,5.15,-6.42,0.16,0.49,0.15,
3.753,2.89,5.15,-6.42,0.02,0.50,0.08,
3.753,2.89,5.15,-6.42,-0.08,0.52,0.04,
3.753,2.89,5.15,-6.42,-0.12,0.53,0.01,
3.753,3.09,6.25,-6.05,-0.12,0.53,0.01,
3.753,3.09,6.25,-6.05,-0.20,0.56,-0.04,
3.754,3.09,6.25,-6.05,-0.27,0.60,-0.09,
3.754,3.09,6.25,-6.05,-0.38,0.67,-0.17,
3.754,3.09,6.25,-6.05,-0.45,0.72,-0.22,
3.754,3.09,6.25,-6.05,-0.48,0.75,-0.24,
3.755,3.14,7.15,-5.58,-0.48,0.75,-0.24,
3.755,3.14,7.15,-5.58,-0.55,0.80,-0.29,
3.755,3.14,7.15,-5.58,-0.61,0.85,-0.33,
3.755,3.14,7.15,-5.58,-0.70,0.93,-0.38,
3.755,3.14,7.15,-5.58,-0.77,0.98,-0.41,
3.756,3.14,7.15,-5.58,-0.80,1.01,-0.42,
3.756,2.10,7.80,-5.57,-0.80,1.01,-0.42,
3.757,2.10,7.80,-5.57,-0.90,1.09,-0.45,
3.758,2.10,7.80,-5.57,-0.94,1.12,-0.45,
3.767,2.10,7.80,-5.57,-1.04,1.21,-0.46,
3.767,2.10,7.80,-5.57,-1.12,1.27,-0.46,
3.768,2.10,7.80,-5.57,-1.16,1.30,-0.45,
3.768,0.98,8.10,-5.96,-1.16,1.30,-0.45,
3.769,0.98,8.10,-5.96,-1.29,1.39,-0.43,
3.77,0.98,8.10,-5.96,-1.37,1.45,-0.41,
3.773,0.98,8.10,-5.96,-1.46,1.51,-0.39,
3.774,0.98,8.10,-5.96,-1.54,1.57,-0.36,
3.775,0.98,8.10,-5.96,-1.62,1.62,-0.33,
3.777,0.33,8.28,-6.30,-1.62,1.62,-0.33,
3.777,0.33,8.28,-6.30,-1.70,1.67,-0.29,
3.78,0.33,8.28,-6.30,-1.77,1.71,-0.26,
3.782,0.33,8.28,-6.30,-1.85,1.74,-0.23,
3.785,0.33,8.28,-6.30,-1.92,1.77,-0.19,
3.785,0.33,8.28,-6.30,-1.98,1.79,-0.15,
3.787,-0.36,8.55,-5.89,-1.98,1.79,-0.15,
3.787,-0.36,8.55,-5.89,-2.03,1.81,-0.12,
3.788,-0.36,8.55,-5.89,-2.09,1.82,-0.08,
3.792,-0.36,8.55,-5.89,-2.13,1.82,-0.05,
3.796,-0.36,8.55,-5.89,-2.16,1.81,-0.02,
3.797,-0.36,8.55,-5.89,-2.19,1.81,0.02,
3.799,-0.16,8.57,-4.72,-2.19,1.81,0.02,
3.8,-0.16,8.57,-4.72,-2.21,1.80,0.05,
3.8,-0.16,8.57,-4.72,-2.22,1.78,0.09,
3.802,-0.16,8.57,-4.72,-2.24,1.76,0.14,
3.803,-0.16,8.57,-4.72,-2.24,1.75,0.15,
3.805,-0.16,8.57,-4.72,-2.24,1.73,0.18,
3.807,-0.16,8.66,-3.40,-2.24,1.73,0.18,
3.807,-0.16,8.66,-3.40,-2.24,1.71,0.21,
3.81,-0.16,8.66,-3.40,-2.25,1.69,0.24,
3.811,-0.16,8.66,-3.40,-2.25,1.66,0.27,
3.813,-0.16,8.66,-3.40,-2.25,1.63,0.30,
3.814,-0.16,8.66,-3.40,-2.26,1.59,0.32,
3.82,0.39,8.38,-3.14,-2.26,1.59,0.32,
3.82,0.39,8.38,-3.14,-2.26,1.55,0.35,
3.82,0.39,8.38,-3.14,-2.27,1.51,0.37,
3.821,0.39,8.38,-3.14,-2.29,1.46,0.39,
3.822,0.39,8.38,-3.14,-2.31,1.42,0.41,
3.824,0.39,8.38,-3.14,-2.32,1.37,0.43,
3.827,0.54,7.85,-3.08,-2.32,1.37,0.43,
3.827,0.54,7.85,-3.08,-2.34,1.31,0.45,
3.832,0.54,7.85,-3.08,-2.36,1.26,0.47,
3.832,0.54,7.85,-3.08,-2.38,1.21,0.49,
3.833,0.54,7.85,-3.08,-2.39,1.16,0.51,
3.834,0.54,7.85,-3.08,-2.41,1.11,0.52,
3.837,1.19,5.83,-2.52,-2.41,1.11,0.52,
3.837,1.19,5.83,-2.52,-2.42,1.07,0.52,
3.838,1.19,5.83,-2.52,-2.43,1.01,0.53,
3.842,1.19,5.83,-2.52,-2.46,0.92,0.52,
3.843,1.19,5.83,-2.52,-2.47,0.89,0.51,
3.844,1.19,5.83,-2.52,-2.48,0.82,0.49,
3.85,2.46,3.57,-1.52,-2.48,0.82,0.49,
3.85,2.46,3.57,-1.52,-2.50,0.74,0.47,
3.862,2.46,3.57,-1.52,-2.52,0.66,0.44,
3.862,2.46,3.57,-1.52,-2.55,0.53,0.38,
3.862,2.46,3.57,-1.52,-2.56,0.49,0.36,
3.863,2.46,3.57,-1.52,-2.59,0.42,0.32,
3.863,3.40,1.08,-0.58,-2.59,0.42,0.32,
3.863,3.40,1.08,-0.58,-2.63,0.36,0.27,
3.863,3.40,1.08,-0.58,-2.68,0.31,0.22,
3.863,3.40,1.08,-0.58,-2.73,0.28,0.17,
3.863,3.40,1.08,-0.58,-2.80,0.28,0.12,
3.865,3.40,1.08,-0.58,-2.87,0.29,0.07,
3.866,3.52,-2.01,-0.91,-2.87,0.29,0.07,
3.867,3.52,-2.01,-0.91,-2.94,0.32,0.02,
3.868,3.52,-2.01,-0.91,-3.02,0.37,-0.03,
3.871,3.52,-2.01,-0.91,-3.11,0.43,-0.08,
3.872,3.52,-2.01,-0.91,-3.20,0.49,-0.12,
3.874,3.52,-2.01,-0.91,-3.27,0.54,-0.17,
3.876,2.72,-5.78,-1.00,-3.27,0.54,-0.17,
3.876,2.72,-5.78,-1.00,-3.34,0.60,-0.21,
3.879,2.72,-5.78,-1.00,-3.39,0.64,-0.25,
3.881,2.72,-5.78,-1.00,-3.45,0.71,-0.31,
3.882,2.72,-5.78,-1.00,-3.46,0.74,-0.33,
3.884,2.72,-5.78,-1.00,-3.47,0.79,-0.36,
3.886,1.81,-9.39,0.77,-3.47,0.79,-0.36,
3.887,1.81,-9.39,0.77,-3.46,0.85,-0.40,
3.888,1.81,-9.39,0.77,-3.43,0.91,-0.43,
3.891,1.81,-9.39,0.77,-3.39,0.96,-0.47,
3.892,1.81,-9.39,0.77,-3.31,1.01,-0.50,
3.894,1.81,-9.39,0.77,-3.22,1.04,-0.54,
3.896,1.31,-11.43,3.90,-3.22,1.04,-0.54,
3.897,1.31,-11.43,3.90,-3.09,1.06,-0.57,
3.898,1.31,-11.43,3.90,-2.95,1.09,-0.59,
3.901,1.31,-11.43,3.90,-2.71,1.12,-0.62,
3.902,1.31,-11.43,3.90,-2.62,1.13,-0.62,
3.904,1.31,-11.43,3.90,-2.44,1.15,-0.62,
3.907,0.52,-11.86,7.65,-2.44,1.15,-0.62,
3.907,0.52,-11.86,7.65,-2.25,1.17,-0.61,
3.908,0.52,-11.86,7.65,-2.05,1.18,-0.59,
3.911,0.52,-11.86,7.65,-1.86,1.19,-0.55,
3.913,0.52,-11.86,7.65,-1.67,1.21,-0.50,
3.914,0.52,-11.86,7.65,-1.48,1.22,-0.45,
3.916,-1.28,-10.23,9.45,-1.48,1.22,-0.45,
3.917,-1.28,-10.23,9.45,-1.30,1.22,-0.39,
3.919,-1.28,-10.23,9.45,-1.06,1.19,-0.30,
3.921,-1.28,-10.23,9.45,-0.91,1.16,-0.25,
3.922,-1.28,-10.23,9.45,-0.85,1.14,-0.23,
3.924,-1.28,-10.23,9.45,-0.73,1.10,-0.19,
3.926,-2.09,-6.16,9.36,-0.73,1.10,-0.19,
3.927,-2.09,-6.16,9.36,-0.62,1.06,-0.16,
3.928,-2.09,-6.16,9.36,-0.52,1.03,-0.14,
3.931,-2.09,-6.16,9.36,-0.44,1.01,-0.12,
3.932,-2.09,-6.16,9.36,-0.37,1.00,-0.11,
3.934,-2.09,-6.16,9.36,-0.32,0.99,-0.11,
3.936,-1.75,-2.55,7.85,-0.32,0.99,-0.11,
3.937,-1.75,-2.55,7.85,-0.28,0.98,-0.12,
3.938,-1.75,-2.55,7.85,-0.25,0.97,-0.14,
3.941,-1.75,-2.55,7.85,-0.23,0.97,-0.16,
3.942,-1.75,-2.55,7.85,-0.22,0.97,-0.19,
3.948,-1.75,-2.55,7.85,-0.22,0.96,-0.22,
3.948,-1.58,-0.30,6.42,-0.22,0.96,-0.22,
3.948,-1.58,-0.30,6.42,-0.23,0.96,-0.26,
3.948,-1.58,-0.30,6.42,-0.24,0.97,-0.29,
3.951,-1.58,-0.30,6.42,-0.26,0.97,-0.35,
3.952,-1.58,-0.30,6.42,-0.27,0.97,-0.36,
3.954,-1.58,-0.30,6.42,-0.29,0.98,-0.38,
3.957,-2.31,0.33,5.19,-0.29,0.98,-0.38,
3.957,-2.31,0.33,5.19,-0.32,0.98,-0.40,
3.959,-2.31,0.33,5.19,-0.34,0.99,-0.40,
3.971,-2.31,0.33,5.19,-0.36,1.01,-0.39,
3.972,-2.31,0.33,5.19,-0.37,1.04,-0.38,
3.972,-2.31,0.33,5.19,-0.36,1.08,-0.35,
3.972,-4.43,0.16,4.41,-0.36,1.08,-0.35,
3.972,-4.43,0.16,4.41,-0.36,1.14,-0.32,
3.972,-4.43,0.16,4.41,-0.34,1.22,-0.28,
3.972,-4.43,0.16,4.41,-0.32,1.33,-0.25,
3.973,-4.43,0.16,4.41,-0.31,1.46,-0.22,
3.974,-4.43,0.16,4.41,-0.30,1.62,-0.19,
3.976,-5.52,-0.27,2.97,-0.30,1.62,-0.19,
3.977,-5.52,-0.27,2.97,-0.31,1.78,-0.18,
3.979,-5.52,-0.27,2.97,-0.34,1.95,-0.16,
3.981,-5.52,-0.27,2.97,-0.38,2.12,-0.16,
3.982,-5.52,-0.27,2.97,-0.43,2.29,-0.16,
3.984,-5.52,-0.27,2.97,-0.51,2.44,-0.16,
3.986,-5.33,-0.82,-0.79,-0.51,2.44,-0.16,
3.986,-5.33,-0.82,-0.79,-0.60,2.58,-0.16,
3.988,-5.33,-0.82,-0.79,-0.70,2.70,-0.16,
3.991,-5.33,-0.82,-0.79,-0.87,2.85,-0.16,
3.992,-5.33,-0.82,-0.79,-0.93,2.89,-0.16,
3.995,-5.33,-0.82,-0.79,-1.06,2.95,-0.16,
3.997,-4.75,-1.43,-3.62,-1.06,2.95,-0.16,
3.998,-4.75,-1.43,-3.62,-1.18,2.98,-0.15,
3.999,-4.75,-1.43,-3.62,-1.30,2.99,-0.14,
4.001,-4.75,-1.43,-3.62,-1.47,2.95,-0.12,
4.002,-4.75,-1.43,-3.62,-1.52,2.92,-0.11,
4.004,-4.75,-1.43,-3.62,-1.61,2.86,-0.08,
4.006,-4.18,-2.16,-4.66,-1.61,2.86,-0.08,
4.007,-4.18,-2.16,-4.66,-1.69,2.77,-0.05,
4.009,-4.18,-2.16,-4.66,-1.76,2.67,-0.02,
4.012,-4.18,-2.16,-4.66,-1.80,2.54,0.02,
4.013,-4.18,-2.16,-4.66,-1.83,2.40,0.06,
4.015,-4.18,-2.16,-4.66,-1.83,2.23,0.11,
4.025,-3.40,-2.43,-3.40,-1.83,2.23,0.11,
4.025,-3.40,-2.43,-3.40,-1.81,2.05,0.15,
4.025,-3.40,-2.43,-3.40,-1.75,1.84,0.20,
4.025,-3.40,-2.43,-3.40,-1.65,1.59,0.25,
4.025,-3.40,-2.43,-3.40,-1.49,1.29,0.29,
4.026,-3.40,-2.43,-3.40,-1.27,0.95,0.31,
4.027,-1.69,-1.98,3.47,-1.27,0.95,0.31,
4.027,-1.69,-1.98,3.47,-1.02,0.57,0.33,
4.029,-1.69,-1.98,3.47,-0.76,0.18,0.34,
4.032,-1.69,-1.98,3.47,-0.49,-0.20,0.34,
4.032,-1.69,-1.98,3.47,-0.23,-0.57,0.33,
4.034,-1.69,-1.98,3.47,0.02,-0.93,0.31,
4.036,1.33,-1.23,8.11,0.02,-0.93,0.31,
4.037,1.33,-1.23,8.11,0.24,-1.27,0.28,
4.038,1.33,-1.23,8.11,0.43,-1.58,0.25,
4.042,1.33,-1.23,8.11,0.59,-1.85,0.22,
4.042,1.33,-1.23,8.11,0.70,-2.10,0.17,
4.045,1.33,-1.23,8.11,0.79,-2.31,0.13,
4.046,3.68,-0.03,3.47,0.79,-2.31,0.13,
4.046,3.68,-0.03,3.47,0.83,-2.49,0.09,
4.048,3.68,-0.03,3.47,0.86,-2.63,0.05,
4.051,3.68,-0.03,3.47,0.85,-2.80,-0.02,
4.052,3.68,-0.03,3.47,0.85,-2.84,-0.04,
4.054,3.68,-0.03,3.47,0.82,-2.91,-0.09,
4.056,4.30,0.98,-2.55,0.82,-2.91,-0.09,
4.057,4.30,0.98,-2.55,0.79,-2.95,-0.13,
4.058,4.30,0.98,-2.55,0.76,-2.99,-0.18,
4.062,4.30,0.98,-2.55,0.70,-2.99,-0.25,
4.065,4.30,0.98,-2.55,0.68,-2.99,-0.28,
4.066,4.30,0.98,-2.55,0.65,-2.97,-0.33,
4.066,4.59,1.37,-4.81,0.65,-2.97,-0.33,
4.066,4.59,1.37,-4.81,0.62,-2.93,-0.37,
4.068,4.59,1.37,-4.81,0.59,-2.88,-0.41,
4.071,4.59,1.37,-4.81,0.56,-2.79,-0.46,
4.072,4.59,1.37,-4.81,0.56,-2.74,-0.48,
4.074,4.59,1.37,-4.81,0.55,-2.65,-0.50,
4.076,4.00,0.81,-3.64,0.55,-2.65,-0.50,
4.077,4.00,0.81,-3.64,0.56,-2.53,-0.51,
4.078,4.00,0.81,-3.64,0.58,-2.39,-0.52,
4.081,4.00,0.81,-3.64,0.64,-2.14,-0.51,
4.082,4.00,0.81,-3.64,0.67,-2.05,-0.50,
4.084,4.00,0.81,-3.64,0.72,-1.83,-0.48,
4.086,2.74,-2.27,1.16,0.72,-1.83,-0.48,
4.087,2.74,-2.27,1.16,0.77,-1.60,-0.44,
4.088,2.74,-2.27,1.16,0.81,-1.34,-0.40,
4.091,2.74,-2.27,1.16,0.85,-0.93,-0.33,
4.092,2.74,-2.27,1.16,0.85,-0.79,-0.30,
4.098,2.74,-2.27,1.16,0.83,-0.51,-0.25,
4.098,0.92,-6.59,4.49,0.83,-0.51,-0.25,
4.098,0.92,-6.59,4.49,0.79,-0.23,-0.20,
4.099,0.92,-6.59,4.49,0.72,0.05,-0.15,
4.103,0.92,-6.59,4.49,0.58,0.43,-0.09,
4.104,0.92,-6.59,4.49,0.52,0.54,-0.08,
4.105,0.92,-6.59,4.49,0.39,0.74,-0.06,
4.107,1.08,-8.30,2.66,0.39,0.74,-0.06,
4.107,1.08,-8.30,2.66,0.26,0.91,-0.05,
4.108,1.08,-8.30,2.66,0.12,1.04,-0.06,
4.123,1.08,-8.30,2.66,-0.08,1.16,-0.10,
4.123,1.08,-8.30,2.66,-0.14,1.17,-0.12,
4.123,1.08,-8.30,2.66,-0.26,1.19,-0.17,
4.123,2.94,-6.70,-0.46,-0.26,1.19,-0.17,
4.123,2.94,-6.70,-0.46,-0.37,1.16,-0.23,
4.123,2.94,-6.70,-0.46,-0.47,1.12,-0.30,
4.123,2.94,-6.70,-0.46,-0.59,1.02,-0.43,
4.124,2.94,-6.70,-0.46,-0.62,0.98,-0.47,
4.125,2.94,-6.70,-0.46,-0.69,0.89,-0.55,
4.126,4.31,-3.61,-2.85,-0.69,0.89,-0.55,
4.126,4.31,-3.61,-2.85,-0.74,0.79,-0.62,
4.132,4.31,-3.61,-2.85,-0.79,0.69,-0.70,
4.132,4.31,-3.61,-2.85,-0.86,0.53,-0.79,
4.132,4.31,-3.61,-2.85,-0.88,0.48,-0.81,
4.134,4.31,-3.61,-2.85,-0.91,0.38,-0.85,
4.136,3.02,-0.84,-4.35,-0.91,0.38,-0.85,
4.137,3.02,-0.84,-4.35,-0.94,0.27,-0.87,
4.138,3.02,-0.84,-4.35,-0.97,0.17,-0.89,
4.141,3.02,-0.84,-4.35,-1.00,0.01,-0.90,
4.142,3.02,-0.84,-4.35,-1.00,-0.04,-0.90,
4.144,3.02,-0.84,-4.35,-1.01,-0.14,-0.89,
4.147,1.13,0.62,-4.33,-1.01,-0.14,-0.89,
4.147,1.13,0.62,-4.33,-1.00,-0.25,-0.88,
4.148,1.13,0.62,-4.33,-0.99,-0.35,-0.86,
4.151,1.13,0.62,-4.33,-0.94,-0.51,-0.84,
4.152,1.13,0.62,-4.33,-0.92,-0.57,-0.83,
4.154,1.13,0.62,-4.33,-0.87,-0.68,-0.81,
4.156,0.76,1.78,-1.86,-0.87,-0.68,-0.81,
4.157,0.76,1.78,-1.86,-0.80,-0.80,-0.80,
4.158,0.76,1.78,-1.86,-0.72,-0.92,-0.77,
4.161,0.76,1.78,-1.86,-0.56,-1.11,-0.74,
4.162,0.76,1.78,-1.86,-0.50,-1.17,-0.73,
4.164,0.76,1.78,-1.86,-0.37,-1.29,-0.70,
4.167,1.06,2.66,2.35,-0.37,-1.29,-0.70,
4.167,1.06,2.66,2.35,-0.22,-1.41,-0.67,
4.168,1.06,2.66,2.35,-0.07,-1.52,-0.64,
4.171,1.06,2.66,2.35,0.17,-1.64,-0.57,
4.172,1.06,2.66,2.35,0.25,-1.67,-0.54,
4.174,1.06,2.66,2.35,0.40,-1.71,-0.48,
4.176,0.31,2.63,5.73,0.40,-1.71,-0.48,
4.178,0.31,2.63,5.73,0.53,-1.71,-0.41,
4.179,0.31,2.63,5.73,0.64,-1.67,-0.34,
4.181,0.31,2.63,5.73,0.76,-1.56,-0.23,
4.205,0.31,2.63,5.73,0.79,-1.50,-0.20,
4.206,0.31,2.63,5.73,0.82,-1.36,-0.12,
4.206,-0.77,1.49,3.95,0.82,-1.36,-0.12,
4.207,-0.77,1.49,3.95,0.83,-1.19,-0.05,
4.207,-0.77,1.49,3.95,0.82,-0.99,0.02,
4.208,-0.77,1.49,3.95,0.77,-0.65,0.11,
4.208,-0.77,1.49,3.95,0.74,-0.53,0.14,
4.208,-0.77,1.49,3.95,0.68,-0.28,0.19,
4.209,-1.09,0.43,0.40,0.68,-0.28,0.19,
4.209,-1.09,0.43,0.40,0.62,-0.01,0.23,
4.21,-1.09,0.43,0.40,0.54,0.27,0.26,
4.21,-1.09,0.43,0.40,0.41,0.68,0.29,
4.211,-1.09,0.43,0.40,0.37,0.82,0.29,
4.211,-1.09,0.43,0.40,0.28,1.09,0.29,
4.211,-0.73,0.15,-1.38,0.28,1.09,0.29,
4.212,-0.73,0.15,-1.38,0.20,1.34,0.29,
4.212,-0.73,0.15,-1.38,0.12,1.56,0.27,
4.213,-0.73,0.15,-1.38,-0.00,1.86,0.24,
4.219,-0.73,0.15,-1.38,-0.04,1.94,0.23,
4.221,-0.73,0.15,-1.38,-0.10,2.08,0.20,
4.221,0.00,0.75,-1.50,-0.10,2.08,0.20,
4.222,0.00,0.75,-1.50,-0.16,2.20,0.17,
4.222,0.00,0.75,-1.50,-0.20,2.28,0.14,
4.222,0.00,0.75,-1.50,-0.25,2.35,0.09,
4.223,0.00,0.75,-1.50,-0.26,2.36,0.07,
4.226,0.00,0.75,-1.50,-0.26,2.34,0.04,
4.231,0.71,1.60,0.15,-0.26,2.34,0.04,
4.232,0.71,1.60,0.15,-0.25,2.30,0.01,
4.232,0.71,1.60,0.15,-0.22,2.23,-0.02,
4.232,0.71,1.60,0.15,-0.15,2.05,-0.06,
4.232,0.71,1.60,0.15,-0.12,1.97,-0.07,
4.235,0.71,1.60,0.15,-0.05,1.79,-0.09,
4.238,1.42,1.99,3.52,-0.05,1.79,-0.09,
4.238,1.42,1.99,3.52,0.03,1.58,-0.12,
4.241,1.42,1.99,3.52,0.12,1.35,-0.14,
4.241,1.42,1.99,3.52,0.25,0.96,-0.18,
4.244,1.42,1.99,3.52,0.29,0.83,-0.19,
4.245,1.42,1.99,3.52,0.38,0.57,-0.21,
4.259,2.12,2.03,5.67,0.38,0.57,-0.21,
4.26,2.12,2.03,5.67,0.45,0.31,-0.23,
4.26,2.12,2.03,5.67,0.51,0.08,-0.24,
4.26,2.12,2.03,5.67,0.56,-0.24,-0.26,
4.26,2.12,2.03,5.67,0.57,-0.34,-0.27,
4.26,2.12,2.03,5.67,0.58,-0.50,-0.28,
4.261,1.87,1.96,4.47,0.58,-0.50,-0.28,
4.261,1.87,1.96,4.47,0.58,-0.64,-0.28,
4.261,1.87,1.96,4.47,0.56,-0.75,-0.28,
4.263,1.87,1.96,4.47,0.51,-0.86,-0.28,
4.263,1.87,1.96,4.47,0.49,-0.88,-0.28,
4.266,1.87,1.96,4.47,0.44,-0.91,-0.27,
4.267,1.01,1.75,2.82,0.44,-0.91,-0.27,
4.267,1.01,1.75,2.82,0.38,-0.91,-0.26,
4.269,1.01,1.75,2.82,0.28,-0.87,-0.23,
4.271,1.01,1.75,2.82,0.21,-0.82,-0.21,
4.272,1.01,1.75,2.82,0.17,-0.79,-0.20,
4.274,1.01,1.75,2.82,0.10,-0.73,-0.17,
4.278,-0.27,1.54,1.26,0.10,-0.73,-0.17,
4.278,-0.27,1.54,1.26,0.03,-0.67,-0.14,
4.279,-0.27,1.54,1.26,-0.03,-0.60,-0.11,
4.281,-0.27,1.54,1.26,-0.12,-0.49,-0.07,
4.283,-0.27,1.54,1.26,-0.14,-0.46,-0.06,
4.284,-0.27,1.54,1.26,-0.18,-0.40,-0.04,
4.286,-0.91,1.55,0.36,-0.18,-0.40,-0.04,
4.287,-0.91,1.55,0.36,-0.21,-0.34,-0.03,
4.288,-0.91,1.55,0.36,-0.22,-0.27,-0.02,
4.291,-0.91,1.55,0.36,-0.20,-0.18,-0.00,
4.292,-0.91,1.55,0.36,-0.19,-0.15,0.00,
4.294,-0.91,1.55,0.36,-0.14,-0.10,0.01,
4.297,-0.92,1.69,1.02,-0.14,-0.10,0.01,
4.297,-0.92,1.69,1.02,-0.07,-0.08,0.02,
4.298,-0.92,1.69,1.02,0.02,-0.08,0.03,
4.301,-0.92,1.69,1.02,0.17,-0.13,0.05,
4.302,-0.92,1.69,1.02,0.23,-0.16,0.05,
4.304,-0.92,1.69,1.02,0.36,-0.24,0.07,
4.307,-1.21,1.81,3.91,0.36,-0.24,0.07,
4.307,-1.21,1.81,3.91,0.50,-0.33,0.08,
4.308,-1.21,1.81,3.91,0.64,-0.42,0.10,
4.311,-1.21,1.81,3.91,0.85,-0.57,0.12,
4.313,-1.21,1.81,3.91,0.92,-0.61,0.13,
4.315,-1.21,1.81,3.91,1.06,-0.69,0.15,
4.317,-1.61,1.51,5.96,1.06,-0.69,0.15,
4.317,-1.61,1.51,5.96,1.19,-0.75,0.18,
4.318,-1.61,1.51,5.96,1.30,-0.81,0.20,
4.321,-1.61,1.51,5.96,1.45,-0.85,0.24,
4.322,-1.61,1.51,5.96,1.50,-0.86,0.25,
4.324,-1.61,1.51,5.96,1.58,-0.86,0.27,
4.328,-1.96,1.04,6.19,1.58,-0.86,0.27,
4.328,-1.96,1.04,6.19,1.64,-0.84,0.29,
4.328,-1.96,1.04,6.19,1.70,-0.80,0.31,
4.332,-1.96,1.04,6.19,1.77,-0.72,0.34,
4.333,-1.96,1.04,6.19,1.80,-0.69,0.35,
4.334,-1.96,1.04,6.19,1.84,-0.63,0.37,
4.337,-2.08,0.50,5.71,1.84,-0.63,0.37,
4.337,-2.08,0.50,5.71,1.88,-0.56,0.40,
4.338,-2.08,0.50,5.71,1.91,-0.51,0.41,
4.341,-2.08,0.50,5.71,1.95,-0.45,0.44,
4.355,-2.08,0.50,5.71,1.97,-0.44,0.44,
4.356,-2.08,0.50,5.71,1.99,-0.44,0.46,
4.356,-2.13,-0.49,4.13,1.99,-0.44,0.46,
4.356,-2.13,-0.49,4.13,2.01,-0.46,0.47,
4.374,-2.13,-0.49,4.13,2.03,-0.50,0.49,
4.374,-2.13,-0.49,4.13,2.07,-0.59,0.51,
4.375,-2.13,-0.49,4.13,2.08,-0.63,0.52,
4.375,-2.13,-0.49,4.13,2.12,-0.72,0.53,
4.375,-2.37,-1.79,1.70,2.12,-0.72,0.53,
4.376,-2.37,-1.79,1.70,2.16,-0.82,0.54,
4.376,-2.37,-1.79,1.70,2.21,-0.93,0.55,
4.376,-2.37,-1.79,1.70,2.30,-1.11,0.56,
4.376,-2.37,-1.79,1.70,2.33,-1.17,0.57,
4.377,-2.37,-1.79,1.70,2.41,-1.29,0.57,
4.377,-2.52,-2.75,0.98,2.41,-1.29,0.57,
4.377,-2.52,-2.75,0.98,2.49,-1.41,0.57,
4.377,-2.52,-2.75,0.98,2.58,-1.52,0.57,
4.378,-2.52,-2.75,0.98,2.71,-1.68,0.57,
4.378,-2.52,-2.75,0.98,2.75,-1.73,0.57,
4.378,-2.52,-2.75,0.98,2.84,-1.81,0.56,
4.379,-2.46,-3.34,1.12,2.84,-1.81,0.56,
4.379,-2.46,-3.34,1.12,2.92,-1.89,0.56,
4.379,-2.46,-3.34,1.12,2.99,-1.94,0.55,
4.387,-2.46,-3.34,1.12,3.07,-1.98,0.54,
4.387,-2.46,-3.34,1.12,3.09,-1.97,0.53,
4.388,-2.46,-3.34,1.12,3.13,-1.95,0.53,
4.388,-2.51,-3.39,0.23,3.13,-1.95,0.53,
4.388,-2.51,-3.39,0.23,3.16,-1.91,0.52,
4.388,-2.51,-3.39,0.23,3.18,-1.83,0.50,
4.391,-2.51,-3.39,0.23,3.20,-1.68,0.49,
4.393,-2.51,-3.39,0.23,3.20,-1.62,0.49,
4.394,-2.51,-3.39,0.23,3.20,-1.48,0.48,
4.396,-2.73,-3.39,-0.34,3.20,-1.48,0.48,
4.397,-2.73,-3.39,-0.34,3.19,-1.32,0.48,
4.398,-2.73,-3.39,-0.34,3.18,-1.15,0.47,
4.401,-2.73,-3.39,-0.34,3.14,-0.88,0.47,
4.403,-2.73,-3.39,-0.34,3.13,-0.78,0.47,
4.404,-2.73,-3.39,-0.34,3.10,-0.60,0.47,
4.407,-3.03,-3.51,-1.15,3.10,-0.60,0.47,
4.407,-3.03,-3.51,-1.15,3.06,-0.42,0.48,
4.408,-3.03,-3.51,-1.15,3.02,-0.26,0.48,
4.411,-3.03,-3.51,-1.15,2.95,-0.06,0.50,
4.413,-3.03,-3.51,-1.15,2.92,-0.01,0.51,
4.414,-3.03,-3.51,-1.15,2.88,0.07,0.53,
4.417,-3.05,-3.46,-2.61,2.88,0.07,0.53,
4.417,-3.05,-3.46,-2.61,2.82,0.12,0.55,
4.419,-3.05,-3.46,-2.61,2.76,0.14,0.56,
4.421,-3.05,-3.46,-2.61,2.66,0.11,0.59,
4.422,-3.05,-3.46,-2.61,2.62,0.09,0.60,
4.424,-3.05,-3.46,-2.61,2.54,0.03,0.62,
4.429,-2.76,-3.20,-4.92,2.54,0.03,0.62,
4.43,-2.76,-3.20,-4.92,2.46,-0.05,0.63,
4.43,-2.76,-3.20,-4.92,2.36,-0.14,0.64,
4.432,-2.76,-3.20,-4.92,2.20,-0.30,0.66,
4.432,-2.76,-3.20,-4.92,2.15,-0.35,0.66,
4.434,-2.76,-3.20,-4.92,2.03,-0.47,0.67,
4.436,-1.93,-2.24,-7.73,2.03,-0.47,0.67,
4.437,-1.93,-2.24,-7.73,1.91,-0.59,0.67,
4.438,-1.93,-2.24,-7.73,1.79,-0.70,0.67,
4.441,-1.93,-2.24,-7.73,1.60,-0.88,0.65,
4.443,-1.93,-2.24,-7.73,1.54,-0.93,0.64,
4.444,-1.93,-2.24,-7.73,1.44,-1.04,0.62,
4.447,-0.45,-1.22,-9.24,1.44,-1.04,0.62,
4.447,-0.45,-1.22,-9.24,1.34,-1.13,0.58,
4.448,-0.45,-1.22,-9.24,1.25,-1.22,0.54,
4.451,-0.45,-1.22,-9.24,1.16,-1.33,0.47,
4.452,-0.45,-1.22,-9.24,1.14,-1.37,0.44,
4.454,-0.45,-1.22,-9.24,1.11,-1.43,0.38,
4.456,0.88,-0.32,-6.68,1.11,-1.43,0.38,
4.457,0.88,-0.32,-6.68,1.09,-1.49,0.32,
4.459,0.88,-0.32,-6.68,1.09,-1.55,0.25,
4.462,0.88,-0.32,-6.68,1.12,-1.61,0.15,
4.462,0.88,-0.32,-6.68,1.13,-1.63,0.11,
4.464,0.88,-0.32,-6.68,1.17,-1.65,0.04,
4.467,1.03,-0.82,-2.70,1.17,-1.65,0.04,
4.467,1.03,-0.82,-2.70,1.21,-1.67,-0.02,
4.468,1.03,-0.82,-2.70,1.26,-1.67,-0.08,
4.471,1.03,-0.82,-2.70,1.32,-1.67,-0.15,
4.472,1.03,-0.82,-2.70,1.33,-1.66,-0.17,
4.475,1.03,-0.82,-2.70,1.36,-1.63,-0.21,
4.48,-0.23,-2.83,-0.72,1.36,-1.63,-0.21,
4.48,-0.23,-2.83,-0.72,1.38,-1.58,-0.24,
4.48,-0.23,-2.83,-0.72,1.39,-1.52,-0.27,
4.482,-0.23,-2.83,-0.72,1.38,-1.41,-0.31,
4.483,-0.23,-2.83,-0.72,1.37,-1.37,-0.32,
4.487,-0.23,-2.83,-0.72,1.34,-1.28,-0.34,
4.487,-1.33,-4.89,-1.88,1.34,-1.28,-0.34,
4.487,-1.33,-4.89,-1.88,1.29,-1.20,-0.35,
4.488,-1.33,-4.89,-1.88,1.23,-1.12,-0.36,
4.491,-1.33,-4.89,-1.88,1.11,-1.03,-0.36,
4.504,-1.33,-4.89,-1.88,1.07,-1.00,-0.36,
4.505,-1.33,-4.89,-1.88,0.99,-0.95,-0.36,
4.505,-2.03,-5.43,-4.08,0.99,-0.95,-0.36,
4.505,-2.03,-5.43,-4.08,0.90,-0.92,-0.35,
4.505,-2.03,-5.43,-4.08,0.82,-0.89,-0.34,
4.505,-2.03,-5.43,-4.08,0.70,-0.87,-0.32,
4.505,-2.03,-5.43,-4.08,0.66,-0.86,-0.31,
4.506,-2.03,-5.43,-4.08,0.59,-0.86,-0.29,
4.506,-2.39,-4.23,-5.27,0.59,-0.86,-0.29,
4.507,-2.39,-4.23,-5.27,0.53,-0.87,-0.27,
4.508,-2.39,-4.23,-5.27,0.47,-0.89,-0.25,
4.515,-2.39,-4.23,-5.27,0.38,-0.93,-0.22,
4.515,-2.39,-4.23,-5.27,0.36,-0.94,-0.21,
4.515,-2.39,-4.23,-5.27,0.31,-0.96,-0.18,
4.529,-2.38,-1.70,-5.51,0.31,-0.96,-0.18,
4.529,-2.38,-1.70,-5.51,0.27,-0.99,-0.16,
4.529,-2.38,-1.70,-5.51,0.23,-1.02,-0.14,
4.529,-2.38,-1.70,-5.51,0.19,-1.07,-0.10,
4.53,-2.38,-1.70,-5.51,0.17,-1.08,-0.09,
4.53,-2.38,-1.70,-5.51,0.15,-1.11,-0.06,
4.53,-2.33,0.60,-5.53,0.15,-1.11,-0.06,
4.531,-2.33,0.60,-5.53,0.13,-1.13,-0.04,
4.531,-2.33,0.60,-5.53,0.11,-1.15,-0.02,
4.54,-2.33,0.60,-5.53,0.09,-1.16,0.00,
4.541,-2.33,0.60,-5.53,0.09,-1.16,0.01,
4.541,-2.33,0.60,-5.53,0.08,-1.15,0.03,
4.541,-1.74,2.34,-5.36,0.08,-1.15,0.03,
4.542,-1.74,2.34,-5.36,0.07,-1.13,0.04,
4.542,-1.74,2.34,-5.36,0.06,-1.10,0.05,
4.542,-1.74,2.34,-5.36,0.05,-1.05,0.07,
4.544,-1.74,2.34,-5.36,0.05,-1.03,0.07,
4.545,-1.74,2.34,-5.36,0.05,-0.99,0.08,
4.547,-1.19,3.78,-5.14,0.05,-0.99,0.08,
4.547,-1.19,3.78,-5.14,0.05,-0.94,0.08,
4.548,-1.19,3.78,-5.14,0.05,-0.89,0.09,
4.551,-1.19,3.78,-5.14,0.04,-0.81,0.09,
4.552,-1.19,3.78,-5.14,0.04,-0.78,0.09,
4.554,-1.19,3.78,-5.14,0.04,-0.72,0.09,
4.557,-0.33,5.13,-4.65,0.04,-0.72,0.09,
4.557,-0.33,5.13,-4.65,0.03,-0.66,0.09,
4.558,-0.33,5.13,-4.65,0.02,-0.60,0.09,
4.561,-0.33,5.13,-4.65,0.00,-0.50,0.09,
4.563,-0.33,5.13,-4.65,-0.00,-0.47,0.09,
4.564,-0.33,5.13,-4.65,-0.02,-0.39,0.09,
4.567,0.14,6.32,-4.01,-0.02,-0.39,0.09,
4.567,0.14,6.32,-4.01,-0.04,-0.31,0.10,
4.568,0.14,6.32,-4.01,-0.07,-0.22,0.11,
4.571,0.14,6.32,-4.01,-0.11,-0.06,0.11,
4.572,0.14,6.32,-4.01,-0.13,-0.00,0.11,
4.574,0.14,6.32,-4.01,-0.17,0.12,0.12,
4.577,0.91,6.96,-3.61,-0.17,0.12,0.12,
4.577,0.91,6.96,-3.61,-0.23,0.24,0.12,
4.578,0.91,6.96,-3.61,-0.29,0.38,0.13,
4.581,0.91,6.96,-3.61,-0.40,0.58,0.13,
4.583,0.91,6.96,-3.61,-0.43,0.65,0.14,
4.584,0.91,6.96,-3.61,-0.52,0.78,0.14,
4.587,1.70,7.45,-3.43,-0.52,0.78,0.14,
4.587,1.70,7.45,-3.43,-0.61,0.91,0.14,
4.589,1.70,7.45,-3.43,-0.71,1.04,0.14,
4.591,1.70,7.45,-3.43,-0.88,1.20,0.13,
4.595,1.70,7.45,-3.43,-0.93,1.25,0.13,
4.596,1.70,7.45,-3.43,-1.05,1.33,0.12,
4.598,2.65,7.51,-3.67,-1.05,1.33,0.12,
4.599,2.65,7.51,-3.67,-1.18,1.41,0.11,
4.599,2.65,7.51,-3.67,-1.31,1.46,0.10,
4.601,2.65,7.51,-3.67,-1.50,1.52,0.08,
4.602,2.65,7.51,-3.67,-1.56,1.54,0.08,
4.604,2.65,7.51,-3.67,-1.69,1.57,0.07,
4.607,3.53,6.65,-3.35,-1.69,1.57,0.07,
4.61,3.53,6.65,-3.35,-1.81,1.59,0.07,
4.611,3.53,6.65,-3.35,-1.94,1.60,0.08,
4.613,3.53,6.65,-3.35,-2.12,1.61,0.08,
4.613,3.53,6.65,-3.35,-2.18,1.62,0.08,
4.615,3.53,6.65,-3.35,-2.29,1.62,0.09,
4.617,3.37,5.16,-2.85,-2.29,1.62,0.09,
4.617,3.37,5.16,-2.85,-2.40,1.63,0.09,
4.62,3.37,5.16,-2.85,-2.56,1.63,0.09,
4.623,3.37,5.16,-2.85,-2.66,1.63,0.09,
4.624,3.37,5.16,-2.85,-2.70,1.64,0.09,
4.624,3.37,5.16,-2.85,-2.79,1.64,0.09,
4.627,3.01,3.76,-2.06,-2.79,1.64,0.09,
4.627,3.01,3.76,-2.06,-2.86,1.65,0.09,
4.63,3.01,3.76,-2.06,-2.93,1.66,0.09,
4.636,3.01,3.76,-2.06,-3.02,1.68,0.09,
4.637,3.01,3.76,-2.06,-3.12,1.70,0.11,
4.638,3.01,3.76,-2.06,-3.12,1.70,0.11,
4.639,1.98,2.20,-0.65,-3.12,1.70,0.11,
4.64,1.98,2.20,-0.65,-3.12,1.70,0.11,
4.64,1.98,2.20,-0.65,-3.16,1.71,0.12,
4.647,1.98,2.20,-0.65,-3.17,1.72,0.12,
4.647,1.98,2.20,-0.65,-3.17,1.72,0.13,
4.647,1.98,2.20,-0.65,-3.16,1.72,0.14,
4.647,1.22,0.99,0.31,-3.16,1.72,0.14,
4.647,1.22,0.99,0.31,-3.15,1.73,0.15,
4.648,1.22,0.99,0.31,-3.13,1.74,0.17,
4.655,1.22,0.99,0.31,-3.10,1.77,0.19,
4.656,1.22,0.99,0.31,-3.09,1.78,0.19,
4.656,1.22,0.99,0.31,-3.07,1.80,0.21,
4.657,0.38,-0.92,0.20,-3.07,1.80,0.21,
4.657,0.38,-0.92,0.20,-3.05,1.82,0.22,
4.676,0.38,-0.92,0.20,-3.04,1.83,0.23,
4.676,0.38,-0.92,0.20,-3.04,1.85,0.25,
4.676,0.38,-0.92,0.20,-3.04,1.86,0.25,
4.676,0.38,-0.92,0.20,-3.05,1.88,0.25,
4.676,0.28,-2.91,-1.01,-3.05,1.88,0.25,
4.676,0.28,-2.91,-1.01,-3.05,1.89,0.25,
4.677,0.28,-2.91,-1.01,-3.06,1.92,0.25,
4.677,0.28,-2.91,-1.01,-3.08,1.96,0.24,
4.677,0.28,-2.91,-1.01,-3.08,1.98,0.23,
4.677,0.28,-2.91,-1.01,-3.09,2.02,0.21,
4.679,0.66,-5.06,-1.55,-3.09,2.02,0.21,
4.679,0.66,-5.06,-1.55,-3.10,2.06,0.19,
4.679,0.66,-5.06,-1.55,-3.12,2.09,0.17,
4.684,0.66,-5.06,-1.55,-3.16,2.10,0.11,
4.695,0.66,-5.06,-1.55,-3.16,2.10,0.09,
4.695,0.66,-5.06,-1.55,-3.18,2.09,0.05,
4.695,1.83,-7.56,-0.82,-3.18,2.09,0.05,
4.696,1.83,-7.56,-0.82,-3.18,2.08,-0.01,
4.696,1.83,-7.56,-0.82,-3.17,2.07,-0.07,
4.696,1.83,-7.56,-0.82,-3.13,2.04,-0.18,
4.696,1.83,-7.56,-0.82,-3.11,2.03,-0.22,
4.696,1.83,-7.56,-0.82,-3.07,2.01,-0.31,
4.696,3.16,-9.62,2.18,-3.07,2.01,-0.31,
4.697,3.16,-9.62,2.18,-3.00,1.98,-0.39,
4.699,3.16,-9.62,2.18,-2.92,1.94,-0.48,
4.701,3.16,-9.62,2.18,-2.78,1.88,-0.59,
4.703,3.16,-9.62,2.18,-2.73,1.86,-0.63,
4.704,3.16,-9.62,2.18,-2.62,1.82,-0.69,
4.706,3.38,-9.81,6.08,-2.62,1.82,-0.69,
4.707,3.38,-9.81,6.08,-2.49,1.79,-0.75,
4.709,3.38,-9.81,6.08,-2.36,1.75,-0.79,
4.711,3.38,-9.81,6.08,-2.14,1.71,-0.83,
4.712,3.38,-9.81,6.08,-2.07,1.70,-0.83,
4.714,3.38,-9.81,6.08,-1.91,1.68,-0.83,
4.716,1.89,-7.31,9.34,-1.91,1.68,-0.83,
4.717,1.89,-7.31,9.34,-1.75,1.66,-0.82,
4.718,1.89,-7.31,9.34,-1.57,1.65,-0.79,
4.721,1.89,-7.31,9.34,-1.29,1.65,-0.72,
4.722,1.89,-7.31,9.34,-1.19,1.65,-0.70,
4.724,1.89,-7.31,9.34,-0.97,1.65,-0.66,
4.727,-0.89,-4.20,13.56,-0.97,1.65,-0.66,
4.727,-0.89,-4.20,13.56,-0.74,1.65,-0.61,
4.728,-0.89,-4.20,13.56,-0.48,1.64,-0.57,
4.731,-0.89,-4.20,13.56,-0.08,1.59,-0.49,
4.732,-0.89,-4.20,13.56,0.06,1.56,-0.46,
4.734,-0.89,-4.20,13.56,0.35,1.50,-0.41,
4.736,-4.37,-2.15,19.30,0.35,1.50,-0.41,
4.736,-4.37,-2.15,19.30,0.62,1.43,-0.35,
4.738,-4.37,-2.15,19.30,0.88,1.37,-0.30,
4.741,-4.37,-2.15,19.30,1.19,1.30,-0.24,
4.742,-4.37,-2.15,19.30,1.27,1.29,-0.22,
4.744,-4.37,-2.15,19.30,1.38,1.29,-0.20,
4.746,-6.25,-1.06,18.46,1.38,1.29,-0.20,
4.747,-6.25,-1.06,18.46,1.41,1.32,-0.19,
4.748,-6.25,-1.06,18.46,1.36,1.35,-0.19,
4.751,-6.25,-1.06,18.46,1.17,1.42,-0.21,
4.753,-6.25,-1.06,18.46,1.07,1.45,-0.21,
4.755,-6.25,-1.06,18.46,0.85,1.49,-0.23,
4.756,-5.59,-0.78,4.63,0.85,1.49,-0.23,
4.756,-5.59,-0.78,4.63,0.59,1.54,-0.25,
4.758,-5.59,-0.78,4.63,0.32,1.58,-0.26,
4.761,-5.59,-0.78,4.63,-0.09,1.64,-0.28,
4.762,-5.59,-0.78,4.63,-0.23,1.66,-0.28,
4.764,-5.59,-0.78,4.63,-0.49,1.71,-0.29,
4.766,-5.04,-0.09,-6.27,-0.49,1.71,-0.29,
4.766,-5.04,-0.09,-6.27,-0.73,1.74,-0.28,
4.768,-5.04,-0.09,-6.27,-0.97,1.75,-0.27,
4.771,-5.04,-0.09,-6.27,-1.29,1.72,-0.24,
4.772,-5.04,-0.09,-6.27,-1.39,1.69,-0.24,
4.785,-5.04,-0.09,-6.27,-1.57,1.61,-0.22,
4.786,-4.71,0.67,-9.91,-1.57,1.61,-0.22,
4.787,-4.71,0.67,-9.91,-1.73,1.51,-0.20,
4.787,-4.71,0.67,-9.91,-1.86,1.39,-0.17,
4.787,-4.71,0.67,-9.91,-2.00,1.18,-0.13,
4.788,-4.71,0.67,-9.91,-2.04,1.10,-0.11,
4.788,-4.71,0.67,-9.91,-2.10,0.94,-0.07,
4.788,-5.04,0.58,-8.29,-2.10,0.94,-0.07,
4.788,-5.04,0.58,-8.29,-2.15,0.76,-0.03,
4.81,-5.04,0.58,-8.29,-2.17,0.59,0.01,
4.81,-5.04,0.58,-8.29,-2.18,0.35,0.07,
4.81,-5.04,0.58,-8.29,-2.17,0.28,0.09,
4.81,-5.04,0.58,-8.29,-2.15,0.15,0.12,
4.81,-4.74,0.88,-4.63,-2.15,0.15,0.12,
4.81,-4.74,0.88,-4.63,-2.11,0.08,0.15,
4.81,-4.74,0.88,-4.63,-2.03,0.05,0.18,
4.81,-4.74,0.88,-4.63,-1.74,0.12,0.24,
4.811,-4.74,0.88,-4.63,-1.57,0.15,0.26,
4.811,-4.74,0.88,-4.63,-1.18,0.19,0.32,
4.811,-5.28,2.96,8.37,-1.18,0.19,0.32,
4.811,-5.28,2.96,8.37,-0.79,0.22,0.37,
4.811,-5.28,2.96,8.37,-0.44,0.26,0.40,
4.811,-5.28,2.96,8.37,0.03,0.27,0.41,
4.813,-5.28,2.96,8.37,0.15,0.26,0.40,
4.814,-5.28,2.96,8.37,0.36,0.23,0.38,
4.816,-2.26,3.65,9.52,0.36,0.23,0.38,
4.817,-2.26,3.65,9.52,0.51,0.17,0.34,
4.818,-2.26,3.65,9.52,0.61,0.09,0.30,
4.821,-2.26,3.65,9.52,0.65,-0.06,0.24,
4.822,-2.26,3.65,9.52,0.65,-0.12,0.22,
4.824,-2.26,3.65,9.52,0.63,-0.25,0.19,
4.828,1.31,2.66,0.20,0.63,-0.25,0.19,
4.828,1.31,2.66,0.20,0.58,-0.39,0.16,
4.828,1.31,2.66,0.20,0.53,-0.55,0.13,
4.832,1.31,2.66,0.20,0.44,-0.77,0.09,
4.833,1.31,2.66,0.20,0.41,-0.85,0.08,
4.836,1.31,2.66,0.20,0.36,-0.98,0.05,
4.838,2.48,1.05,-4.21,0.36,-0.98,0.05,
4.838,2.48,1.05,-4.21,0.31,-1.11,0.03,
4.839,2.48,1.05,-4.21,0.27,-1.22,-0.01,
4.843,2.48,1.05,-4.21,0.24,-1.36,-0.06,
4.844,2.48,1.05,-4.21,0.24,-1.40,-0.09,
4.845,2.48,1.05,-4.21,0.26,-1.46,-0.13,
4.846,3.35,-1.69,-2.98,0.26,-1.46,-0.13,
4.847,3.35,-1.69,-2.98,0.29,-1.51,-0.19,
4.869,3.35,-1.69,-2.98,0.34,-1.55,-0.25,
4.869,3.35,-1.69,-2.98,0.45,-1.58,-0.34,
4.87,3.35,-1.69,-2.98,0.49,-1.59,-0.37,
4.87,3.35,-1.69,-2.98,0.57,-1.61,-0.43,
4.87,3.80,-5.78,1.51,0.57,-1.61,-0.43,
4.871,3.80,-5.78,1.51,0.66,-1.62,-0.48,
4.871,3.80,-5.78,1.51,0.73,-1.64,-0.53,
4.871,3.80,-5.78,1.51,0.81,-1.66,-0.58,
4.871,3.80,-5.78,1.51,0.83,-1.66,-0.59,
4.871,3.80,-5.78,1.51,0.83,-1.66,-0.60,
4.871,2.72,-9.75,2.77,0.83,-1.66,-0.60,
4.872,2.72,-9.75,2.77,0.81,-1.64,-0.60,
4.872,2.72,-9.75,2.77,0.75,-1.60,-0.59,
4.872,2.72,-9.75,2.77,0.62,-1.51,-0.58,
4.875,2.72,-9.75,2.77,0.57,-1.47,-0.57,
4.875,2.72,-9.75,2.77,0.45,-1.37,-0.56,
4.876,2.22,-11.16,0.33,0.45,-1.37,-0.56,
4.876,2.22,-11.16,0.33,0.31,-1.26,-0.55,
4.878,2.22,-11.16,0.33,0.17,-1.15,-0.53,
4.881,2.22,-11.16,0.33,-0.07,-0.97,-0.52,
4.882,2.22,-11.16,0.33,-0.15,-0.91,-0.52,
4.884,2.22,-11.16,0.33,-0.30,-0.80,-0.53,
4.886,3.53,-8.80,-1.50,-0.30,-0.80,-0.53,
4.887,3.53,-8.80,-1.50,-0.45,-0.70,-0.55,
4.888,3.53,-8.80,-1.50,-0.60,-0.60,-0.58,
4.896,3.53,-8.80,-1.50,-0.79,-0.46,-0.63,
4.896,3.53,-8.80,-1.50,-0.85,-0.42,-0.65,
4.896,3.53,-8.80,-1.50,-0.95,-0.33,-0.68,
4.896,4.58,-4.72,-2.92,-0.95,-0.33,-0.68,
4.896,4.58,-4.72,-2.92,-1.04,-0.26,-0.72,
4.898,4.58,-4.72,-2.92,-1.12,-0.19,-0.75,
4.903,4.58,-4.72,-2.92,-1.21,-0.10,-0.80,
4.904,4.58,-4.72,-2.92,-1.23,-0.07,-0.80,
4.904,4.58,-4.72,-2.92,-1.28,-0.02,-0.82,
4.907,3.50,-1.48,-4.13,-1.28,-0.02,-0.82,
4.907,3.50,-1.48,-4.13,-1.31,0.03,-0.83,
4.92,3.50,-1.48,-4.13,-1.33,0.08,-0.84,
4.921,3.50,-1.48,-4.13,-1.34,0.12,-0.84,
4.921,3.50,-1.48,-4.13,-1.35,0.13,-0.83,
4.921,3.50,-1.48,-4.13,-1.35,0.15,-0.82,
4.921,1.81,0.05,-4.22,-1.35,0.15,-0.82,
4.921,1.81,0.05,-4.22,-1.34,0.15,-0.81,
4.921,1.81,0.05,-4.22,-1.33,0.15,-0.79,
4.93,1.81,0.05,-4.22,-1.30,0.13,-0.75,
4.93,1.81,0.05,-4.22,-1.29,0.12,-0.74,
4.93,1.81,0.05,-4.22,-1.25,0.09,-0.71,
4.931,0.96,0.92,-3.37,-1.25,0.09,-0.71,
4.931,0.96,0.92,-3.37,-1.20,0.06,-0.68,
4.931,0.96,0.92,-3.37,-1.15,0.01,-0.65,
4.931,0.96,0.92,-3.37,-1.03,-0.08,-0.61,
4.932,0.96,0.92,-3.37,-0.98,-0.12,-0.59,
4.934,0.96,0.92,-3.37,-0.88,-0.21,-0.57,
4.937,0.95,1.82,-0.59,-0.88,-0.21,-0.57,
4.937,0.95,1.82,-0.59,-0.76,-0.32,-0.54,
4.938,0.95,1.82,-0.59,-0.63,-0.45,-0.53,
4.941,0.95,1.82,-0.59,-0.40,-0.66,-0.51,
4.942,0.95,1.82,-0.59,-0.32,-0.74,-0.50,
4.944,0.95,1.82,-0.59,-0.16,-0.91,-0.49,
4.947,1.62,2.35,3.22,-0.16,-0.91,-0.49,
4.948,1.62,2.35,3.22,0.00,-1.08,-0.48,
4.949,1.62,2.35,3.22,0.17,-1.25,-0.47,
4.951,1.62,2.35,3.22,0.40,-1.48,-0.45,
4.952,1.62,2.35,3.22,0.48,-1.55,-0.45,
4.954,1.62,2.35,3.22,0.62,-1.68,-0.43,
4.956,1.51,1.88,5.17,0.62,-1.68,-0.43,
4.957,1.51,1.88,5.17,0.76,-1.77,-0.40,
4.959,1.51,1.88,5.17,0.87,-1.83,-0.37,
4.961,1.51,1.88,5.17,1.01,-1.83,-0.31,
4.962,1.51,1.88,5.17,1.05,-1.81,-0.28,
4.964,1.51,1.88,5.17,1.10,-1.71,-0.23,
4.966,-0.52,0.47,6.09,1.10,-1.71,-0.23,
4.967,-0.52,0.47,6.09,1.13,-1.54,-0.18,
4.97,-0.52,0.47,6.09,1.11,-1.17,-0.09,
4.971,-0.52,0.47,6.09,1.06,-0.86,-0.03,
4.973,-0.52,0.47,6.09,1.02,-0.68,0.00,
4.975,-0.52,0.47,6.09,0.93,-0.30,0.06,
4.977,-2.89,-0.60,4.82,0.93,-0.30,0.06,
4.977,-2.89,-0.60,4.82,0.82,0.09,0.11,
4.979,-2.89,-0.60,4.82,0.68,0.49,0.16,
4.981,-2.89,-0.60,4.82,0.47,1.05,0.22,
4.985,-2.89,-0.60,4.82,0.40,1.22,0.24,
4.986,-2.89,-0.60,4.82,0.25,1.52,0.27,
4.987,-3.74,-0.21,1.37,0.25,1.52,0.27,
4.987,-3.74,-0.21,1.37,0.12,1.77,0.29,
4.988,-3.74,-0.21,1.37,-0.01,1.97,0.31,
