
time,ax,ay,az,wx,wy,wz,
0.003,-1.10,-0.04,-1.06,0.15,-1.32,-1.31,
0.004,-1.10,-0.04,-1.06,0.13,-1.37,-1.30,
0.004,-1.10,-0.04,-1.06,0.13,-1.38,-1.30,
0.004,-1.10,-0.04,-1.06,0.12,-1.41,-1.30,
0.005,-0.92,-0.02,-1.12,0.12,-1.41,-1.30,
0.005,-0.92,-0.02,-1.12,0.10,-1.44,-1.30,
0.005,-0.92,-0.02,-1.12,0.09,-1.47,-1.30,
0.008,-0.92,-0.02,-1.12,0.07,-1.51,-1.30,
0.026,-0.92,-0.02,-1.12,0.07,-1.53,-1.30,
0.026,-0.92,-0.02,-1.12,0.06,-1.55,-1.30,
0.026,-0.82,-0.04,-1.10,0.06,-1.55,-1.30,
0.027,-0.82,-0.04,-1.10,0.05,-1.57,-1.29,
0.027,-0.82,-0.04,-1.10,0.04,-1.59,-1.29,
0.027,-0.82,-0.04,-1.10,0.04,-1.63,-1.28,
0.027,-0.82,-0.04,-1.10,0.03,-1.64,-1.28,
0.027,-0.82,-0.04,-1.10,0.03,-1.66,-1.28,
0.028,-0.54,-0.07,-1.03,0.03,-1.66,-1.28,
0.028,-0.54,-0.07,-1.03,0.03,-1.68,-1.28,
0.028,-0.54,-0.07,-1.03,0.03,-1.71,-1.29,
0.028,-0.54,-0.07,-1.03,0.05,-1.76,-1.29,
0.028,-0.54,-0.07,-1.03,0.06,-1.77,-1.29,
0.032,-0.54,-0.07,-1.03,0.08,-1.78,-1.29,
0.033,-0.25,-0.03,-0.84,0.08,-1.78,-1.29,
0.033,-0.25,-0.03,-0.84,0.10,-1.80,-1.29,
0.034,-0.25,-0.03,-0.84,0.11,-1.81,-1.30,
0.038,-0.25,-0.03,-0.84,0.13,-1.84,-1.30,
0.038,-0.25,-0.03,-0.84,0.14,-1.85,-1.30,
0.046,-0.25,-0.03,-0.84,0.14,-1.86,-1.30,
0.047,-0.17,0.05,-0.85,0.14,-1.86,-1.30,
0.047,-0.17,0.05,-0.85,0.15,-1.88,-1.30,
0.048,-0.17,0.05,-0.85,0.15,-1.89,-1.30,
0.048,-0.17,0.05,-0.85,0.16,-1.92,-1.31,
0.049,-0.17,0.05,-0.85,0.16,-1.92,-1.31,
0.051,-0.17,0.05,-0.85,0.15,-1.94,-1.31,
0.053,-0.27,0.01,-0.99,0.15,-1.94,-1.31,
0.053,-0.27,0.01,-0.99,0.15,-1.95,-1.31,
0.055,-0.27,0.01,-0.99,0.15,-1.97,-1.31,
0.079,-0.27,0.01,-0.99,0.14,-1.98,-1.32,
0.079,-0.27,0.01,-0.99,0.14,-1.99,-1.32,
0.079,-0.27,0.01,-0.99,0.13,-2.01,-1.32,
0.079,-0.30,0.10,-1.03,0.13,-2.01,-1.32,
0.079,-0.30,0.10,-1.03,0.12,-2.02,-1.33,
0.08,-0.30,0.10,-1.03,0.11,-2.04,-1.33,
0.08,-0.30,0.10,-1.03,0.09,-2.08,-1.33,
0.08,-0.30,0.10,-1.03,0.09,-2.08,-1.33,
0.08,-0.30,0.10,-1.03,0.07,-2.10,-1.32,
0.08,-0.38,0.04,-0.87,0.07,-2.10,-1.32,
0.081,-0.38,0.04,-0.87,0.05,-2.12,-1.32,
0.081,-0.38,0.04,-0.87,0.04,-2.15,-1.32,
0.081,-0.38,0.04,-0.87,0.02,-2.18,-1.33,
0.081,-0.38,0.04,-0.87,0.01,-2.18,-1.33,
0.081,-0.38,0.04,-0.87,-0.01,-2.18,-1.33,
0.098,-0.19,0.29,-0.90,-0.01,-2.18,-1.33,
0.098,-0.19,0.29,-0.90,-0.02,-2.18,-1.34,
0.098,-0.19,0.29,-0.90,-0.04,-2.19,-1.35,
0.099,-0.19,0.29,-0.90,-0.06,-2.21,-1.36,
0.099,-0.19,0.29,-0.90,-0.06,-2.22,-1.36,
0.099,-0.19,0.29,-0.90,-0.07,-2.24,-1.37,
0.099,-0.24,0.57,-0.93,-0.07,-2.24,-1.37,
0.099,-0.24,0.57,-0.93,-0.08,-2.26,-1.38,
0.1,-0.24,0.57,-0.93,-0.08,-2.27,-1.39,
0.1,-0.24,0.57,-0.93,-0.09,-2.30,-1.40,
0.1,-0.24,0.57,-0.93,-0.09,-2.32,-1.41,
0.141,-0.24,0.57,-0.93,-0.09,-2.35,-1.42,
0.141,-0.14,0.62,-0.69,-0.09,-2.35,-1.42,
0.141,-0.14,0.62,-0.69,-0.10,-2.39,-1.43,
0.142,-0.14,0.62,-0.69,-0.10,-2.45,-1.45,
0.142,-0.14,0.62,-0.69,-0.11,-2.53,-1.47,
0.142,-0.14,0.62,-0.69,-0.11,-2.56,-1.48,
0.142,-0.14,0.62,-0.69,-0.12,-2.63,-1.50,
0.142,0.33,0.87,-0.62,-0.12,-2.63,-1.50,
0.143,0.33,0.87,-0.62,-0.12,-2.69,-1.52,
0.143,0.33,0.87,-0.62,-0.12,-2.75,-1.54,
0.143,0.33,0.87,-0.62,-0.14,-2.83,-1.57,
0.143,0.33,0.87,-0.62,-0.14,-2.86,-1.58,
0.143,0.33,0.87,-0.62,-0.15,-2.90,-1.60,
0.143,0.35,0.87,-0.70,-0.15,-2.90,-1.60,
0.165,0.35,0.87,-0.70,-0.17,-2.94,-1.62,
0.167,0.35,0.87,-0.70,-0.19,-2.98,-1.63,
0.168,0.35,0.87,-0.70,-0.22,-3.01,-1.65,
0.169,0.35,0.87,-0.70,-0.24,-3.02,-1.66,
0.17,0.35,0.87,-0.70,-0.26,-3.04,-1.67,
0.17,-0.11,0.67,-1.15,-0.26,-3.04,-1.67,
0.171,-0.11,0.67,-1.15,-0.29,-3.05,-1.68,
0.172,-0.11,0.67,-1.15,-0.32,-3.07,-1.68,
0.175,-0.11,0.67,-1.15,-0.36,-3.08,-1.68,
0.175,-0.11,0.67,-1.15,-0.37,-3.08,-1.68,
0.175,-0.11,0.67,-1.15,-0.39,-3.07,-1.68,
0.175,-0.86,0.24,-0.98,-0.39,-3.07,-1.68,
0.176,-0.86,0.24,-0.98,-0.40,-3.07,-1.67,
0.176,-0.86,0.24,-0.98,-0.41,-3.07,-1.66,
0.176,-0.86,0.24,-0.98,-0.42,-3.09,-1.65,
0.176,-0.86,0.24,-0.98,-0.42,-3.09,-1.64,
0.177,-0.86,0.24,-0.98,-0.43,-3.11,-1.62,
0.177,-1.17,-0.20,-0.25,-0.43,-3.11,-1.62,
0.177,-1.17,-0.20,-0.25,-0.43,-3.14,-1.61,
0.178,-1.17,-0.20,-0.25,-0.43,-3.17,-1.60,
0.178,-1.17,-0.20,-0.25,-0.42,-3.20,-1.58,
0.178,-1.17,-0.20,-0.25,-0.41,-3.21,-1.57,
0.178,-1.17,-0.20,-0.25,-0.41,-3.21,-1.56,
0.179,-1.30,-0.68,-0.02,-0.41,-3.21,-1.56,
0.179,-1.30,-0.68,-0.02,-0.40,-3.22,-1.55,
0.179,-1.30,-0.68,-0.02,-0.40,-3.23,-1.53,
0.179,-1.30,-0.68,-0.02,-0.39,-3.25,-1.52,
0.18,-1.30,-0.68,-0.02,-0.38,-3.25,-1.51,
0.18,-1.30,-0.68,-0.02,-0.38,-3.26,-1.49,
0.18,-1.81,-0.62,-0.70,-0.38,-3.26,-1.49,
0.18,-1.81,-0.62,-0.70,-0.37,-3.27,-1.47,
0.181,-1.81,-0.62,-0.70,-0.36,-3.30,-1.45,
0.181,-1.81,-0.62,-0.70,-0.36,-3.35,-1.42,
0.181,-1.81,-0.62,-0.70,-0.35,-3.37,-1.40,
0.182,-1.81,-0.62,-0.70,-0.35,-3.41,-1.37,
0.2,-2.29,-0.11,-1.35,-0.35,-3.41,-1.37,
0.201,-2.29,-0.11,-1.35,-0.34,-3.45,-1.33,
0.201,-2.29,-0.11,-1.35,-0.34,-3.50,-1.29,
0.201,-2.29,-0.11,-1.35,-0.33,-3.60,-1.21,
0.202,-2.29,-0.11,-1.35,-0.34,-3.67,-1.15,
0.202,-2.29,-0.11,-1.35,-0.34,-3.70,-1.12,
0.202,-3.00,0.74,-1.93,-0.34,-3.70,-1.12,
0.202,-3.00,0.74,-1.93,-0.35,-3.77,-1.06,
0.203,-3.00,0.74,-1.93,-0.35,-3.83,-1.00,
0.203,-3.00,0.74,-1.93,-0.38,-3.92,-0.92,
0.203,-3.00,0.74,-1.93,-0.39,-3.95,-0.89,
0.204,-3.00,0.74,-1.93,-0.42,-4.01,-0.83,
0.204,-2.91,0.84,-2.84,-0.42,-4.01,-0.83,
0.204,-2.91,0.84,-2.84,-0.45,-4.08,-0.79,
0.204,-2.91,0.84,-2.84,-0.48,-4.14,-0.74,
0.208,-2.91,0.84,-2.84,-0.54,-4.22,-0.69,
0.21,-2.91,0.84,-2.84,-0.57,-4.26,-0.66,
0.211,-2.91,0.84,-2.84,-0.59,-4.28,-0.65,
0.213,-2.30,0.62,-3.09,-0.59,-4.28,-0.65,
0.213,-2.30,0.62,-3.09,-0.62,-4.29,-0.63,
0.215,-2.30,0.62,-3.09,-0.65,-4.29,-0.62,
0.218,-2.30,0.62,-3.09,-0.69,-4.23,-0.62,
0.219,-2.30,0.62,-3.09,-0.71,-4.17,-0.62,
0.235,-2.30,0.62,-3.09,-0.72,-4.14,-0.63,
0.236,-1.58,0.25,-3.00,-0.72,-4.14,-0.63,
0.236,-1.58,0.25,-3.00,-0.75,-4.06,-0.64,
0.237,-1.58,0.25,-3.00,-0.77,-3.99,-0.66,
0.237,-1.58,0.25,-3.00,-0.81,-3.90,-0.69,
0.237,-1.58,0.25,-3.00,-0.83,-3.88,-0.71,
0.237,-1.58,0.25,-3.00,-0.86,-3.86,-0.74,
0.237,-0.37,-0.20,-2.36,-0.86,-3.86,-0.74,
0.238,-0.37,-0.20,-2.36,-0.90,-3.85,-0.78,
0.238,-0.37,-0.20,-2.36,-0.94,-3.86,-0.81,
0.238,-0.37,-0.20,-2.36,-1.00,-3.90,-0.85,
0.238,-0.37,-0.20,-2.36,-1.03,-3.93,-0.87,
0.241,-0.37,-0.20,-2.36,-1.08,-3.98,-0.90,
0.243,0.43,-0.55,-1.86,-1.08,-3.98,-0.90,
0.244,0.43,-0.55,-1.86,-1.12,-4.07,-0.93,
0.245,0.43,-0.55,-1.86,-1.17,-4.17,-0.95,
0.248,0.43,-0.55,-1.86,-1.21,-4.31,-0.99,
0.251,0.43,-0.55,-1.86,-1.21,-4.39,-1.02,
0.252,0.43,-0.55,-1.86,-1.15,-4.40,-1.05,
0.253,0.94,-0.84,0.70,-1.15,-4.40,-1.05,
0.253,0.94,-0.84,0.70,-1.10,-4.37,-1.07,
0.255,0.94,-0.84,0.70,-0.95,-4.22,-1.12,
0.263,0.94,-0.84,0.70,-0.64,-3.83,-1.23,
0.263,0.94,-0.84,0.70,-0.44,-3.57,-1.30,
0.263,0.94,-0.84,0.70,-0.36,-3.47,-1.33,
0.264,1.67,-0.73,6.71,-0.36,-3.47,-1.33,
0.264,1.67,-0.73,6.71,-0.22,-3.30,-1.40,
0.264,1.67,-0.73,6.71,-0.12,-3.20,-1.45,
0.269,1.67,-0.73,6.71,-0.01,-3.11,-1.54,
0.269,1.67,-0.73,6.71,0.02,-3.09,-1.57,
0.27,1.67,-0.73,6.71,0.06,-3.06,-1.63,
0.273,0.22,-0.12,3.91,0.06,-3.06,-1.63,
0.274,0.22,-0.12,3.91,0.10,-3.03,-1.70,
0.274,0.22,-0.12,3.91,0.12,-2.99,-1.76,
0.278,0.22,-0.12,3.91,0.16,-2.94,-1.86,
0.278,0.22,-0.12,3.91,0.17,-2.90,-1.93,
0.28,0.22,-0.12,3.91,0.17,-2.89,-1.97,
0.283,-0.33,0.02,1.63,0.17,-2.89,-1.97,
0.283,-0.33,0.02,1.63,0.17,-2.85,-2.05,
0.284,-0.33,0.02,1.63,0.15,-2.83,-2.13,
0.287,-0.33,0.02,1.63,0.11,-2.83,-2.25,
0.291,-0.33,0.02,1.63,0.09,-2.84,-2.28,
0.303,-0.33,0.02,1.63,0.04,-2.88,-2.35,
0.303,-0.45,-0.27,-0.38,0.04,-2.88,-2.35,
0.303,-0.45,-0.27,-0.38,-0.02,-2.93,-2.41,
0.303,-0.45,-0.27,-0.38,-0.09,-3.01,-2.46,
0.303,-0.45,-0.27,-0.38,-0.21,-3.17,-2.51,
0.303,-0.45,-0.27,-0.38,-0.24,-3.22,-2.52,
0.304,-0.45,-0.27,-0.38,-0.32,-3.34,-2.53,
0.304,-1.47,0.17,-1.63,-0.32,-3.34,-2.53,
0.304,-1.47,0.17,-1.63,-0.40,-3.45,-2.53,
0.306,-1.47,0.17,-1.63,-0.47,-3.57,-2.52,
0.307,-1.47,0.17,-1.63,-0.62,-3.78,-2.47,
0.308,-1.47,0.17,-1.63,-0.65,-3.81,-2.45,
0.31,-1.47,0.17,-1.63,-0.68,-3.84,-2.43,
0.312,-2.50,0.88,-1.38,-0.68,-3.84,-2.43,
0.312,-2.50,0.88,-1.38,-0.74,-3.87,-2.39,
0.314,-2.50,0.88,-1.38,-0.78,-3.86,-2.35,
0.317,-2.50,0.88,-1.38,-0.80,-3.74,-2.29,
0.318,-2.50,0.88,-1.38,-0.80,-3.67,-2.26,
0.32,-2.50,0.88,-1.38,-0.78,-3.51,-2.22,
0.322,-2.84,1.13,1.75,-0.78,-3.51,-2.22,
0.322,-2.84,1.13,1.75,-0.74,-3.34,-2.17,
0.324,-2.84,1.13,1.75,-0.69,-3.17,-2.11,
0.327,-2.84,1.13,1.75,-0.62,-2.96,-2.01,
0.328,-2.84,1.13,1.75,-0.59,-2.90,-1.98,
0.33,-2.84,1.13,1.75,-0.55,-2.80,-1.92,
0.332,-3.58,0.65,2.91,-0.55,-2.80,-1.92,
0.332,-3.58,0.65,2.91,-0.51,-2.72,-1.86,
0.334,-3.58,0.65,2.91,-0.48,-2.65,-1.80,
0.337,-3.58,0.65,2.91,-0.45,-2.58,-1.74,
0.339,-3.58,0.65,2.91,-0.44,-2.55,-1.71,
0.34,-3.58,0.65,2.91,-0.43,-2.53,-1.69,
0.342,-2.82,-0.28,1.59,-0.43,-2.53,-1.69,
0.343,-2.82,-0.28,1.59,-0.43,-2.53,-1.67,
0.344,-2.82,-0.28,1.59,-0.44,-2.53,-1.65,
0.347,-2.82,-0.28,1.59,-0.46,-2.58,-1.64,
0.348,-2.82,-0.28,1.59,-0.46,-2.61,-1.63,
0.35,-2.82,-0.28,1.59,-0.48,-2.66,-1.62,
0.353,-2.33,-0.79,0.13,-0.48,-2.66,-1.62,
0.353,-2.33,-0.79,0.13,-0.50,-2.72,-1.62,
0.354,-2.33,-0.79,0.13,-0.53,-2.79,-1.61,
0.358,-2.33,-0.79,0.13,-0.56,-2.90,-1.60,
0.359,-2.33,-0.79,0.13,-0.58,-2.97,-1.60,
0.361,-2.33,-0.79,0.13,-0.60,-3.01,-1.59,
0.362,-2.27,-0.81,-0.73,-0.60,-3.01,-1.59,
0.363,-2.27,-0.81,-0.73,-0.63,-3.08,-1.59,
0.364,-2.27,-0.81,-0.73,-0.65,-3.14,-1.59,
0.367,-2.27,-0.81,-0.73,-0.69,-3.22,-1.60,
0.369,-2.27,-0.81,-0.73,-0.70,-3.25,-1.60,
0.37,-2.27,-0.81,-0.73,-0.73,-3.30,-1.60,
0.388,-2.00,-0.59,-0.99,-0.73,-3.30,-1.60,
0.389,-2.00,-0.59,-0.99,-0.75,-3.35,-1.61,
0.389,-2.00,-0.59,-0.99,-0.78,-3.40,-1.61,
0.39,-2.00,-0.59,-0.99,-0.81,-3.45,-1.61,
0.39,-2.00,-0.59,-0.99,-0.84,-3.47,-1.61,
0.391,-2.00,-0.59,-0.99,-0.85,-3.48,-1.60,
0.391,-1.34,-0.73,-0.72,-0.85,-3.48,-1.60,
0.391,-1.34,-0.73,-0.72,-0.88,-3.49,-1.59,
0.392,-1.34,-0.73,-0.72,-0.90,-3.49,-1.58,
0.392,-1.34,-0.73,-0.72,-0.94,-3.47,-1.57,
0.393,-1.34,-0.73,-0.72,-0.95,-3.45,-1.56,
0.393,-1.34,-0.73,-0.72,-0.97,-3.43,-1.54,
0.394,-1.31,-0.72,-0.17,-0.97,-3.43,-1.54,
0.394,-1.31,-0.72,-0.17,-0.98,-3.40,-1.51,
0.421,-1.31,-0.72,-0.17,-0.99,-3.38,-1.49,
0.421,-1.31,-0.72,-0.17,-1.01,-3.38,-1.44,
0.422,-1.31,-0.72,-0.17,-1.01,-3.40,-1.41,
0.422,-1.31,-0.72,-0.17,-1.01,-3.41,-1.39,
0.424,-1.66,-0.67,1.08,-1.01,-3.41,-1.39,
0.425,-1.66,-0.67,1.08,-1.01,-3.45,-1.36,
0.425,-1.66,-0.67,1.08,-1.01,-3.50,-1.31,
0.426,-1.66,-0.67,1.08,-1.00,-3.60,-1.22,
0.427,-1.66,-0.67,1.08,-0.99,-3.63,-1.19,
0.428,-1.66,-0.67,1.08,-0.98,-3.66,-1.17,
0.428,-2.33,-0.76,1.78,-0.98,-3.66,-1.17,
0.429,-2.33,-0.76,1.78,-0.96,-3.70,-1.11,
0.429,-2.33,-0.76,1.78,-0.93,-3.70,-1.06,
0.43,-2.33,-0.76,1.78,-0.87,-3.67,-0.99,
0.43,-2.33,-0.76,1.78,-0.83,-3.63,-0.94,
0.431,-2.33,-0.76,1.78,-0.81,-3.61,-0.92,
0.431,-2.49,-1.31,1.91,-0.81,-3.61,-0.92,
0.431,-2.49,-1.31,1.91,-0.77,-3.55,-0.89,
0.432,-2.49,-1.31,1.91,-0.73,-3.48,-0.87,
0.432,-2.49,-1.31,1.91,-0.69,-3.36,-0.85,
0.433,-2.49,-1.31,1.91,-0.67,-3.25,-0.85,
0.433,-2.49,-1.31,1.91,-0.66,-3.19,-0.84,
0.434,-1.36,-1.79,0.86,-0.66,-3.19,-0.84,
0.434,-1.36,-1.79,0.86,-0.67,-3.07,-0.84,
0.435,-1.36,-1.79,0.86,-0.68,-2.93,-0.84,
0.447,-1.36,-1.79,0.86,-0.71,-2.74,-0.83,
0.448,-1.36,-1.79,0.86,-0.74,-2.63,-0.82,
0.448,-1.36,-1.79,0.86,-0.75,-2.58,-0.81,
0.449,-1.17,-1.33,-0.82,-0.75,-2.58,-0.81,
0.449,-1.17,-1.33,-0.82,-0.77,-2.50,-0.79,
0.449,-1.17,-1.33,-0.82,-0.79,-2.43,-0.77,
0.45,-1.17,-1.33,-0.82,-0.83,-2.33,-0.74,
0.45,-1.17,-1.33,-0.82,-0.85,-2.26,-0.72,
0.45,-1.17,-1.33,-0.82,-0.86,-2.23,-0.71,
0.454,-1.21,-0.15,-0.99,-0.86,-2.23,-0.71,
0.455,-1.21,-0.15,-0.99,-0.88,-2.15,-0.69,
0.464,-1.21,-0.15,-0.99,-0.89,-2.09,-0.67,
0.495,-1.21,-0.15,-0.99,-0.90,-2.00,-0.64,
0.495,-1.21,-0.15,-0.99,-0.91,-1.97,-0.62,
0.496,-1.21,-0.15,-0.99,-0.92,-1.95,-0.62,
0.496,-1.03,0.52,-0.64,-0.92,-1.95,-0.62,
0.496,-1.03,0.52,-0.64,-0.93,-1.94,-0.62,
0.496,-1.03,0.52,-0.64,-0.94,-1.95,-0.63,
0.497,-1.03,0.52,-0.64,-0.96,-1.97,-0.65,
0.497,-1.03,0.52,-0.64,-0.97,-1.99,-0.67,
0.497,-1.03,0.52,-0.64,-0.97,-2.00,-0.68,
0.497,-0.52,0.66,-0.17,-0.97,-2.00,-0.68,
0.498,-0.52,0.66,-0.17,-0.98,-2.02,-0.70,
0.498,-0.52,0.66,-0.17,-0.97,-2.04,-0.73,
0.498,-0.52,0.66,-0.17,-0.97,-2.05,-0.78,
0.498,-0.52,0.66,-0.17,-0.96,-2.05,-0.81,
0.498,-0.52,0.66,-0.17,-0.95,-2.05,-0.83,
0.499,0.17,0.71,0.61,-0.95,-2.05,-0.83,
0.499,0.17,0.71,0.61,-0.93,-2.04,-0.87,
0.499,0.17,0.71,0.61,-0.91,-2.02,-0.90,
0.499,0.17,0.71,0.61,-0.86,-1.98,-0.96,
0.5,0.17,0.71,0.61,-0.83,-1.95,-0.99,
0.5,0.17,0.71,0.61,-0.81,-1.94,-1.01,
0.5,0.49,0.75,1.75,-0.81,-1.94,-1.01,
0.5,0.49,0.75,1.75,-0.78,-1.92,-1.04,
0.501,0.49,0.75,1.75,-0.75,-1.91,-1.08,
0.501,0.49,0.75,1.75,-0.70,-1.84,-1.12,
0.501,0.49,0.75,1.75,-0.68,-1.72,-1.14,
0.501,0.49,0.75,1.75,-0.67,-1.63,-1.15,
0.506,-1.04,0.28,1.21,-0.67,-1.63,-1.15,
0.506,-1.04,0.28,1.21,-0.66,-1.40,-1.14,
0.507,-1.04,0.28,1.21,-0.66,-1.16,-1.11,
0.509,-1.04,0.28,1.21,-0.67,-0.90,-1.08,
0.509,-1.04,0.28,1.21,-0.67,-0.84,-1.06,
0.51,-1.04,0.28,1.21,-0.67,-0.84,-1.05,
0.513,-2.24,0.59,-0.37,-0.67,-0.84,-1.05,
0.513,-2.24,0.59,-0.37,-0.68,-0.87,-1.04,
0.519,-2.24,0.59,-0.37,-0.71,-1.00,-0.94,
0.519,-2.24,0.59,-0.37,-0.71,-1.00,-0.94,
0.52,-2.24,0.59,-0.37,-0.71,-1.00,-0.94,
0.53,-2.24,0.59,-0.37,-0.73,-1.03,-0.90,
0.53,-2.17,0.38,-0.73,-0.73,-1.03,-0.90,
0.53,-2.17,0.38,-0.73,-0.74,-1.04,-0.87,
0.531,-2.17,0.38,-0.73,-0.77,-1.08,-0.83,
0.531,-2.17,0.38,-0.73,-0.79,-1.14,-0.75,
0.533,-2.17,0.38,-0.73,-0.81,-1.15,-0.69,
0.534,-2.17,0.38,-0.73,-0.81,-1.15,-0.66,
0.534,-2.23,0.44,-0.98,-0.81,-1.15,-0.66,
0.535,-2.23,0.44,-0.98,-0.83,-1.14,-0.60,
0.535,-2.23,0.44,-0.98,-0.86,-1.12,-0.54,
0.537,-2.23,0.44,-0.98,-0.93,-1.07,-0.45,
0.572,-2.23,0.44,-0.98,-0.98,-1.04,-0.40,
0.573,-2.23,0.44,-0.98,-1.01,-1.02,-0.37,
0.573,-2.23,0.23,-1.65,-1.01,-1.02,-0.37,
0.573,-2.23,0.23,-1.65,-1.08,-0.98,-0.32,
0.573,-2.23,0.23,-1.65,-1.14,-0.95,-0.28,
0.574,-2.23,0.23,-1.65,-1.25,-0.91,-0.22,
0.574,-2.23,0.23,-1.65,-1.32,-0.90,-0.19,
0.574,-2.23,0.23,-1.65,-1.35,-0.90,-0.18,
0.574,-2.00,-0.27,-2.14,-1.35,-0.90,-0.18,
0.574,-2.00,-0.27,-2.14,-1.41,-0.89,-0.15,
0.575,-2.00,-0.27,-2.14,-1.47,-0.88,-0.13,
0.575,-2.00,-0.27,-2.14,-1.55,-0.88,-0.11,
0.575,-2.00,-0.27,-2.14,-1.57,-0.87,-0.11,
0.575,-2.00,-0.27,-2.14,-1.58,-0.88,-0.11,
0.575,-1.26,-0.78,-1.35,-1.58,-0.88,-0.11,
0.575,-1.26,-0.78,-1.35,-1.59,-0.88,-0.10,
0.576,-1.26,-0.78,-1.35,-1.60,-0.89,-0.11,
0.576,-1.26,-0.78,-1.35,-1.60,-0.91,-0.11,
0.576,-1.26,-0.78,-1.35,-1.58,-0.93,-0.12,
0.576,-1.26,-0.78,-1.35,-1.57,-0.93,-0.12,
0.576,-1.26,-0.90,0.69,-1.57,-0.93,-0.12,
0.577,-1.26,-0.90,0.69,-1.53,-0.92,-0.11,
0.577,-1.26,-0.90,0.69,-1.49,-0.90,-0.09,
0.582,-1.26,-0.90,0.69,-1.41,-0.85,-0.06,
0.582,-1.26,-0.90,0.69,-1.36,-0.82,-0.04,
0.582,-1.26,-0.90,0.69,-1.33,-0.80,-0.02,
0.582,-2.64,-0.58,2.54,-1.33,-0.80,-0.02,
0.583,-2.64,-0.58,2.54,-1.28,-0.77,0.01,
0.584,-2.64,-0.58,2.54,-1.23,-0.74,0.05,
0.602,-2.64,-0.58,2.54,-1.14,-0.69,0.11,
0.603,-2.64,-0.58,2.54,-1.07,-0.65,0.15,
0.603,-2.64,-0.58,2.54,-1.04,-0.64,0.17,
0.603,-3.62,0.22,3.23,-1.04,-0.64,0.17,
0.603,-3.62,0.22,3.23,-0.98,-0.61,0.22,
0.604,-3.62,0.22,3.23,-0.92,-0.59,0.26,
0.604,-3.62,0.22,3.23,-0.83,-0.57,0.33,
0.604,-3.62,0.22,3.23,-0.78,-0.56,0.37,
0.604,-3.62,0.22,3.23,-0.72,-0.56,0.41,
0.604,-3.66,0.79,2.98,-0.72,-0.56,0.41,
0.604,-3.66,0.79,2.98,-0.67,-0.59,0.45,
0.606,-3.66,0.79,2.98,-0.62,-0.62,0.49,
0.622,-3.66,0.79,2.98,-0.55,-0.71,0.54,
0.623,-3.66,0.79,2.98,-0.53,-0.75,0.56,
0.623,-3.66,0.79,2.98,-0.51,-0.78,0.58,
0.623,-3.90,0.97,3.03,-0.51,-0.78,0.58,
0.623,-3.90,0.97,3.03,-0.46,-0.84,0.62,
0.624,-3.90,0.97,3.03,-0.43,-0.91,0.65,
0.624,-3.90,0.97,3.03,-0.39,-1.00,0.70,
0.624,-3.90,0.97,3.03,-0.37,-1.04,0.73,
0.624,-3.90,0.97,3.03,-0.35,-1.05,0.74,
0.624,-3.77,1.41,2.04,-0.35,-1.05,0.74,
0.649,-3.77,1.41,2.04,-0.34,-1.08,0.77,
0.649,-3.77,1.41,2.04,-0.35,-1.14,0.79,
0.649,-3.77,1.41,2.04,-0.36,-1.16,0.81,
0.649,-3.77,1.41,2.04,-0.36,-1.17,0.83,
0.65,-3.77,1.41,2.04,-0.37,-1.18,0.85,
0.65,-3.37,2.12,0.01,-0.37,-1.18,0.85,
0.65,-3.37,2.12,0.01,-0.39,-1.19,0.86,
0.65,-3.37,2.12,0.01,-0.42,-1.21,0.87,
0.65,-3.37,2.12,0.01,-0.45,-1.22,0.89,
0.65,-3.37,2.12,0.01,-0.48,-1.22,0.90,
0.651,-3.37,2.12,0.01,-0.50,-1.21,0.91,
0.651,-2.89,2.17,-1.44,-0.50,-1.21,0.91,
0.651,-2.89,2.17,-1.44,-0.50,-1.20,0.92,
0.651,-2.89,2.17,-1.44,-0.50,-1.18,0.93,
0.651,-2.89,2.17,-1.44,-0.50,-1.17,0.94,
0.652,-2.89,2.17,-1.44,-0.49,-1.18,0.94,
0.652,-2.89,2.17,-1.44,-0.49,-1.21,0.94,
0.655,-3.10,1.42,-0.72,-0.49,-1.21,0.94,
0.655,-3.10,1.42,-0.72,-0.47,-1.24,0.94,
0.656,-3.10,1.42,-0.72,-0.45,-1.27,0.94,
0.659,-3.10,1.42,-0.72,-0.41,-1.30,0.94,
0.659,-3.10,1.42,-0.72,-0.41,-1.31,0.94,
0.661,-3.10,1.42,-0.72,-0.40,-1.32,0.93,
0.663,-3.32,0.23,0.25,-0.40,-1.32,0.93,
0.663,-3.32,0.23,0.25,-0.41,-1.34,0.92,
0.664,-3.32,0.23,0.25,-0.44,-1.33,0.91,
0.668,-3.32,0.23,0.25,-0.51,-1.31,0.88,
0.668,-3.32,0.23,0.25,-0.54,-1.30,0.87,
0.677,-3.32,0.23,0.25,-0.63,-1.28,0.85,
0.677,-3.45,-0.42,-0.63,-0.63,-1.28,0.85,
0.678,-3.45,-0.42,-0.63,-0.75,-1.27,0.83,
0.678,-3.45,-0.42,-0.63,-0.90,-1.25,0.80,
0.678,-3.45,-0.42,-0.63,-1.08,-1.23,0.77,
0.678,-3.45,-0.42,-0.63,-1.27,-1.21,0.75,
0.681,-3.45,-0.42,-0.63,-1.48,-1.18,0.72,
0.684,-3.47,-0.50,-2.45,-1.48,-1.18,0.72,
0.685,-3.47,-0.50,-2.45,-1.70,-1.14,0.70,
0.685,-3.47,-0.50,-2.45,-1.93,-1.08,0.69,
0.708,-3.47,-0.50,-2.45,-2.17,-1.01,0.70,
0.709,-3.47,-0.50,-2.45,-2.42,-0.93,0.71,
0.709,-3.47,-0.50,-2.45,-2.67,-0.86,0.73,
0.709,-4.43,-0.43,-3.28,-2.67,-0.86,0.73,
0.709,-4.43,-0.43,-3.28,-2.90,-0.79,0.76,
0.71,-4.43,-0.43,-3.28,-3.12,-0.76,0.79,
0.71,-4.43,-0.43,-3.28,-3.31,-0.74,0.81,
0.71,-4.43,-0.43,-3.28,-3.50,-0.75,0.84,
0.71,-4.43,-0.43,-3.28,-3.66,-0.78,0.86,
0.711,-4.81,-0.34,-1.90,-3.66,-0.78,0.86,
0.711,-4.81,-0.34,-1.90,-3.83,-0.80,0.88,
0.711,-4.81,-0.34,-1.90,-3.98,-0.81,0.91,
0.711,-4.81,-0.34,-1.90,-4.19,-0.82,0.93,
0.711,-4.81,-0.34,-1.90,-4.25,-0.82,0.93,
0.712,-4.81,-0.34,-1.90,-4.34,-0.82,0.94,
0.714,-4.34,-1.15,-0.59,-4.34,-0.82,0.94,
0.714,-4.34,-1.15,-0.59,-4.42,-0.84,0.95,
0.714,-4.34,-1.15,-0.59,-4.48,-0.86,0.98,
0.717,-4.34,-1.15,-0.59,-4.52,-0.87,1.00,
0.718,-4.34,-1.15,-0.59,-4.55,-0.86,1.02,
0.721,-4.34,-1.15,-0.59,-4.57,-0.85,1.04,
0.724,-3.81,-1.50,-0.21,-4.57,-0.85,1.04,
0.724,-3.81,-1.50,-0.21,-4.58,-0.84,1.05,
0.725,-3.81,-1.50,-0.21,-4.59,-0.83,1.06,
0.728,-3.81,-1.50,-0.21,-4.59,-0.83,1.09,
0.729,-3.81,-1.50,-0.21,-4.58,-0.82,1.09,
0.731,-3.81,-1.50,-0.21,-4.56,-0.80,1.10,
0.733,-3.77,-1.34,-0.77,-4.56,-0.80,1.10,
0.733,-3.77,-1.34,-0.77,-4.54,-0.75,1.10,
0.741,-3.77,-1.34,-0.77,-4.50,-0.69,1.11,
0.741,-3.77,-1.34,-0.77,-4.46,-0.64,1.10,
0.742,-3.77,-1.34,-0.77,-4.42,-0.57,1.09,
0.742,-3.77,-1.34,-0.77,-4.37,-0.46,1.07,
0.746,-3.55,-1.51,-0.22,-4.37,-0.46,1.07,
0.746,-3.55,-1.51,-0.22,-4.32,-0.29,1.04,
0.746,-3.55,-1.51,-0.22,-4.29,-0.05,1.01,
0.749,-3.55,-1.51,-0.22,-4.26,0.37,0.95,
0.75,-3.55,-1.51,-0.22,-4.26,0.49,0.93,
0.75,-3.55,-1.51,-0.22,-4.25,0.64,0.88,
0.759,-2.29,-1.81,0.45,-4.25,0.64,0.88,
0.76,-2.29,-1.81,0.45,-4.24,0.69,0.82,
0.76,-2.29,-1.81,0.45,-4.22,0.66,0.77,
0.761,-2.29,-1.81,0.45,-4.17,0.53,0.69,
0.761,-2.29,-1.81,0.45,-4.14,0.48,0.66,
0.761,-2.29,-1.81,0.45,-4.10,0.35,0.62,
0.765,-1.12,-2.48,1.34,-4.10,0.35,0.62,
0.765,-1.12,-2.48,1.34,-4.08,0.23,0.57,
0.765,-1.12,-2.48,1.34,-4.06,0.13,0.53,
0.768,-1.12,-2.48,1.34,-4.06,0.04,0.49,
0.769,-1.12,-2.48,1.34,-4.08,-0.01,0.45,
0.799,-1.12,-2.48,1.34,-4.11,-0.05,0.39,
0.8,-1.33,-3.65,-0.39,-4.11,-0.05,0.39,
0.8,-1.33,-3.65,-0.39,-4.14,-0.05,0.33,
0.8,-1.33,-3.65,-0.39,-4.18,-0.04,0.26,
0.8,-1.33,-3.65,-0.39,-4.24,0.00,0.14,
0.8,-1.33,-3.65,-0.39,-4.26,0.02,0.10,
0.801,-1.33,-3.65,-0.39,-4.30,0.06,0.01,
0.801,-1.01,-4.43,-1.77,-4.30,0.06,0.01,
0.801,-1.01,-4.43,-1.77,-4.34,0.10,-0.08,
0.801,-1.01,-4.43,-1.77,-4.37,0.13,-0.18,
0.801,-1.01,-4.43,-1.77,-4.40,0.16,-0.27,
0.802,-1.01,-4.43,-1.77,-4.43,0.21,-0.37,
0.821,-1.01,-4.43,-1.77,-4.46,0.26,-0.47,
0.822,-0.66,-5.22,-0.55,-4.46,0.26,-0.47,
0.822,-0.66,-5.22,-0.55,-4.50,0.32,-0.57,
0.822,-0.66,-5.22,-0.55,-4.54,0.38,-0.67,
0.822,-0.66,-5.22,-0.55,-4.61,0.47,-0.80,
0.823,-0.66,-5.22,-0.55,-4.64,0.50,-0.85,
0.823,-0.66,-5.22,-0.55,-4.70,0.55,-0.92,
0.823,-0.27,-4.68,-0.64,-4.70,0.55,-0.92,
0.823,-0.27,-4.68,-0.64,-4.77,0.61,-0.99,
0.824,-0.27,-4.68,-0.64,-4.85,0.66,-1.05,
0.824,-0.27,-4.68,-0.64,-4.97,0.75,-1.13,
0.825,-0.27,-4.68,-0.64,-5.01,0.77,-1.15,
0.825,-0.27,-4.68,-0.64,-5.09,0.82,-1.18,
0.825,-0.99,-4.02,-1.59,-5.09,0.82,-1.18,
0.825,-0.99,-4.02,-1.59,-5.17,0.87,-1.21,
0.826,-0.99,-4.02,-1.59,-5.25,0.92,-1.24,
0.826,-0.99,-4.02,-1.59,-5.35,1.00,-1.26,
0.826,-0.99,-4.02,-1.59,-5.39,1.02,-1.26,
0.826,-0.99,-4.02,-1.59,-5.44,1.07,-1.27,
0.827,-1.84,-3.67,-1.61,-5.44,1.07,-1.27,
0.827,-1.84,-3.67,-1.61,-5.49,1.13,-1.27,
0.827,-1.84,-3.67,-1.61,-5.53,1.18,-1.27,
0.828,-1.84,-3.67,-1.61,-5.56,1.22,-1.26,
0.833,-1.84,-3.67,-1.61,-5.57,1.26,-1.26,
0.833,-1.84,-3.67,-1.61,-5.58,1.29,-1.25,
0.834,-2.07,-3.84,-0.46,-5.58,1.29,-1.25,
0.834,-2.07,-3.84,-0.46,-5.58,1.31,-1.25,
0.834,-2.07,-3.84,-0.46,-5.58,1.32,-1.25,
0.843,-2.07,-3.84,-0.46,-5.56,1.34,-1.26,
0.844,-2.07,-3.84,-0.46,-5.56,1.35,-1.26,
0.844,-2.07,-3.84,-0.46,-5.55,1.36,-1.27,
0.844,-1.47,-3.50,0.24,-5.55,1.36,-1.27,
0.845,-1.47,-3.50,0.24,-5.53,1.38,-1.28,
0.845,-1.47,-3.50,0.24,-5.52,1.40,-1.29,
0.848,-1.47,-3.50,0.24,-5.49,1.44,-1.31,
0.849,-1.47,-3.50,0.24,-5.49,1.45,-1.31,
0.855,-1.47,-3.50,0.24,-5.46,1.47,-1.33,
0.859,-0.78,-3.33,0.29,-5.46,1.47,-1.33,
0.859,-0.78,-3.33,0.29,-5.44,1.49,-1.34,
0.859,-0.78,-3.33,0.29,-5.41,1.50,-1.36,
0.86,-0.78,-3.33,0.29,-5.36,1.50,-1.38,
0.86,-0.78,-3.33,0.29,-5.35,1.50,-1.39,
0.863,-0.78,-3.33,0.29,-5.31,1.48,-1.41,
0.864,-0.01,-3.47,1.22,-5.31,1.48,-1.41,
0.864,-0.01,-3.47,1.22,-5.27,1.47,-1.44,
0.865,-0.01,-3.47,1.22,-5.22,1.45,-1.47,
0.867,-0.01,-3.47,1.22,-5.15,1.42,-1.53,
0.869,-0.01,-3.47,1.22,-5.13,1.41,-1.56,
0.871,-0.01,-3.47,1.22,-5.08,1.38,-1.60,
0.873,1.09,-3.62,2.69,-5.08,1.38,-1.60,
0.874,1.09,-3.62,2.69,-5.03,1.34,-1.65,
0.875,1.09,-3.62,2.69,-5.00,1.29,-1.70,
0.881,1.09,-3.62,2.69,-4.95,1.20,-1.78,
0.881,1.09,-3.62,2.69,-4.94,1.16,-1.80,
0.882,1.09,-3.62,2.69,-4.93,1.09,-1.85,
0.884,1.81,-3.30,2.99,-4.93,1.09,-1.85,
0.884,1.81,-3.30,2.99,-4.93,1.02,-1.89,
0.885,1.81,-3.30,2.99,-4.95,0.96,-1.93,
0.893,1.81,-3.30,2.99,-4.99,0.88,-1.97,
0.893,1.81,-3.30,2.99,-5.01,0.86,-1.98,
0.893,1.81,-3.30,2.99,-5.06,0.82,-1.99,
0.896,1.52,-2.82,1.41,-5.06,0.82,-1.99,
0.896,1.52,-2.82,1.41,-5.11,0.79,-2.00,
0.896,1.52,-2.82,1.41,-5.18,0.76,-1.99,
0.904,1.52,-2.82,1.41,-5.28,0.72,-1.95,
0.904,1.52,-2.82,1.41,-5.31,0.71,-1.93,
0.905,1.52,-2.82,1.41,-5.39,0.70,-1.89,
0.905,0.47,-2.44,0.22,-5.39,0.70,-1.89,
0.905,0.47,-2.44,0.22,-5.46,0.69,-1.82,
0.905,0.47,-2.44,0.22,-5.53,0.69,-1.75,
0.912,0.47,-2.44,0.22,-5.63,0.68,-1.62,
0.913,0.47,-2.44,0.22,-5.66,0.68,-1.57,
0.913,0.47,-2.44,0.22,-5.72,0.68,-1.46,
0.913,-0.81,-2.30,0.37,-5.72,0.68,-1.46,
0.914,-0.81,-2.30,0.37,-5.77,0.67,-1.35,
0.93,-0.81,-2.30,0.37,-5.81,0.65,-1.22,
0.931,-0.81,-2.30,0.37,-5.85,0.62,-1.03,
0.931,-0.81,-2.30,0.37,-5.86,0.61,-0.96,
0.931,-0.81,-2.30,0.37,-5.88,0.59,-0.83,
0.931,-1.27,-1.76,1.34,-5.88,0.59,-0.83,
0.932,-1.27,-1.76,1.34,-5.89,0.56,-0.70,
0.932,-1.27,-1.76,1.34,-5.90,0.54,-0.58,
0.932,-1.27,-1.76,1.34,-5.90,0.50,-0.41,
0.932,-1.27,-1.76,1.34,-5.90,0.49,-0.35,
0.932,-1.27,-1.76,1.34,-5.88,0.47,-0.26,
0.933,-0.19,-1.16,1.97,-5.88,0.47,-0.26,
0.933,-0.19,-1.16,1.97,-5.87,0.46,-0.17,
0.936,-0.19,-1.16,1.97,-5.84,0.45,-0.10,
0.937,-0.19,-1.16,1.97,-5.79,0.45,-0.01,
0.939,-0.19,-1.16,1.97,-5.77,0.46,0.01,
0.942,-0.19,-1.16,1.97,-5.73,0.46,0.04,
0.943,1.62,-0.79,2.63,-5.73,0.46,0.04,
0.943,1.62,-0.79,2.63,-5.68,0.46,0.07,
0.944,1.62,-0.79,2.63,-5.63,0.46,0.08,
0.948,1.62,-0.79,2.63,-5.54,0.45,0.07,
0.949,1.62,-0.79,2.63,-5.50,0.44,0.06,
0.952,1.62,-0.79,2.63,-5.40,0.43,0.01,
0.954,3.78,-0.91,3.55,-5.40,0.43,0.01,
0.954,3.78,-0.91,3.55,-5.37,0.42,-0.01,
0.954,3.78,-0.91,3.55,-5.29,0.43,-0.08,
0.97,3.78,-0.91,3.55,-5.18,0.43,-0.19,
0.97,3.78,-0.91,3.55,-5.14,0.43,-0.23,
0.971,3.78,-0.91,3.55,-5.06,0.44,-0.33,
0.971,6.41,-1.06,4.05,-5.06,0.44,-0.33,
0.971,6.41,-1.06,4.05,-4.99,0.44,-0.43,
0.971,6.41,-1.06,4.05,-4.93,0.45,-0.55,
0.971,6.41,-1.06,4.05,-4.84,0.47,-0.73,
0.971,6.41,-1.06,4.05,-4.81,0.48,-0.80,
0.972,6.41,-1.06,4.05,-4.75,0.50,-0.93,
0.978,8.39,-1.01,3.31,-4.75,0.50,-0.93,
0.978,8.39,-1.01,3.31,-4.70,0.51,-1.06,
0.978,8.39,-1.01,3.31,-4.66,0.52,-1.19,
0.978,8.39,-1.01,3.31,-4.59,0.53,-1.38,
0.979,8.39,-1.01,3.31,-4.57,0.53,-1.43,
0.981,8.39,-1.01,3.31,-4.53,0.52,-1.55,
0.983,8.83,-1.62,2.94,-4.53,0.52,-1.55,
0.983,8.83,-1.62,2.94,-4.49,0.51,-1.65,
0.985,8.83,-1.62,2.94,-4.45,0.50,-1.74,
0.989,8.83,-1.62,2.94,-4.40,0.46,-1.85,
0.989,8.83,-1.62,2.94,-4.39,0.45,-1.88,
0.99,8.83,-1.62,2.94,-4.37,0.41,-1.94,
0.992,7.52,-2.05,2.92,-4.37,0.41,-1.94,
0.993,7.52,-2.05,2.92,-4.34,0.37,-1.98,
0.994,7.52,-2.05,2.92,-4.33,0.32,-2.01,
1.001,7.52,-2.05,2.92,-4.31,0.24,-2.03,
1.003,7.52,-2.05,2.92,-4.31,0.21,-2.03,
1.004,7.52,-2.05,2.92,-4.30,0.15,-2.02,
1.004,5.61,-2.12,2.96,-4.30,0.15,-2.02,
1.004,5.61,-2.12,2.96,-4.30,0.09,-2.00,
1.005,5.61,-2.12,2.96,-4.29,0.04,-1.98,
1.01,5.61,-2.12,2.96,-4.29,-0.04,-1.92,
1.011,5.61,-2.12,2.96,-4.29,-0.06,-1.90,
1.011,5.61,-2.12,2.96,-4.29,-0.10,-1.85,
1.013,3.93,-1.78,3.32,-4.29,-0.10,-1.85,
1.013,3.93,-1.78,3.32,-4.28,-0.15,-1.79,
1.016,3.93,-1.78,3.32,-4.28,-0.20,-1.74,
1.017,3.93,-1.78,3.32,-4.27,-0.29,-1.66,
1.02,3.93,-1.78,3.32,-4.27,-0.32,-1.63,
1.021,3.93,-1.78,3.32,-4.26,-0.38,-1.58,
1.025,2.88,-1.07,4.06,-4.26,-0.38,-1.58,
1.025,2.88,-1.07,4.06,-4.25,-0.43,-1.53,
1.025,2.88,-1.07,4.06,-4.23,-0.48,-1.48,
1.028,2.88,-1.07,4.06,-4.21,-0.54,-1.43,
1.028,2.88,-1.07,4.06,-4.20,-0.55,-1.41,
1.03,2.88,-1.07,4.06,-4.18,-0.57,-1.38,
1.033,2.50,-0.07,4.76,-4.18,-0.57,-1.38,
1.033,2.50,-0.07,4.76,-4.16,-0.57,-1.35,
1.036,2.50,-0.07,4.76,-4.14,-0.57,-1.34,
1.037,2.50,-0.07,4.76,-4.10,-0.58,-1.34,
1.039,2.50,-0.07,4.76,-4.08,-0.59,-1.34,
1.04,2.50,-0.07,4.76,-4.05,-0.60,-1.36,
1.043,2.83,0.84,5.15,-4.05,-0.60,-1.36,
1.044,2.83,0.84,5.15,-4.02,-0.61,-1.38,
1.045,2.83,0.84,5.15,-3.98,-0.62,-1.41,
1.047,2.83,0.84,5.15,-3.92,-0.63,-1.47,
1.048,2.83,0.84,5.15,-3.90,-0.63,-1.50,
1.053,2.83,0.84,5.15,-3.86,-0.63,-1.54,
1.054,3.14,1.06,5.39,-3.86,-0.63,-1.54,
1.055,3.14,1.06,5.39,-3.83,-0.63,-1.59,
1.055,3.14,1.06,5.39,-3.78,-0.63,-1.63,
1.058,3.14,1.06,5.39,-3.72,-0.63,-1.70,
1.059,3.14,1.06,5.39,-3.70,-0.63,-1.72,
1.062,3.14,1.06,5.39,-3.65,-0.64,-1.76,
1.063,2.83,1.20,5.36,-3.65,-0.64,-1.76,
1.063,2.83,1.20,5.36,-3.60,-0.66,-1.79,
1.064,2.83,1.20,5.36,-3.55,-0.68,-1.82,
1.067,2.83,1.20,5.36,-3.48,-0.72,-1.86,
1.074,2.83,1.20,5.36,-3.46,-0.73,-1.87,
1.074,2.83,1.20,5.36,-3.41,-0.75,-1.89,
1.075,1.95,1.26,5.38,-3.41,-0.75,-1.89,
1.075,1.95,1.26,5.38,-3.36,-0.78,-1.90,
1.075,1.95,1.26,5.38,-3.32,-0.80,-1.91,
1.078,1.95,1.26,5.38,-3.24,-0.81,-1.91,
1.078,1.95,1.26,5.38,-3.22,-0.81,-1.91,
1.08,1.95,1.26,5.38,-3.16,-0.80,-1.91,
1.084,0.97,1.59,5.14,-3.16,-0.80,-1.91,
1.085,0.97,1.59,5.14,-3.10,-0.79,-1.90,
1.085,0.97,1.59,5.14,-3.03,-0.78,-1.89,
1.088,0.97,1.59,5.14,-2.93,-0.75,-1.88,
1.088,0.97,1.59,5.14,-2.89,-0.74,-1.87,
1.091,0.97,1.59,5.14,-2.82,-0.72,-1.86,
1.093,-0.25,2.52,5.41,-2.82,-0.72,-1.86,
1.093,-0.25,2.52,5.41,-2.74,-0.71,-1.84,
1.094,-0.25,2.52,5.41,-2.65,-0.70,-1.81,
1.097,-0.25,2.52,5.41,-2.53,-0.70,-1.77,
1.098,-0.25,2.52,5.41,-2.48,-0.70,-1.76,
1.1,-0.25,2.52,5.41,-2.39,-0.70,-1.73,
1.103,-1.33,2.95,5.58,-2.39,-0.70,-1.73,
1.103,-1.33,2.95,5.58,-2.29,-0.69,-1.69,
1.104,-1.33,2.95,5.58,-2.20,-0.68,-1.65,
1.107,-1.33,2.95,5.58,-2.06,-0.66,-1.58,
1.108,-1.33,2.95,5.58,-2.01,-0.65,-1.56,
1.11,-1.33,2.95,5.58,-1.91,-0.62,-1.50,
1.112,-2.32,3.00,5.67,-1.91,-0.62,-1.50,
1.113,-2.32,3.00,5.67,-1.82,-0.59,-1.44,
1.114,-2.32,3.00,5.67,-1.72,-0.55,-1.37,
1.117,-2.32,3.00,5.67,-1.58,-0.49,-1.26,
1.119,-2.32,3.00,5.67,-1.53,-0.47,-1.23,
1.12,-2.32,3.00,5.67,-1.44,-0.43,-1.15,
1.123,-3.26,2.71,5.13,-1.44,-0.43,-1.15,
1.134,-3.26,2.71,5.13,-1.35,-0.40,-1.08,
1.134,-3.26,2.71,5.13,-1.26,-0.37,-1.00,
1.134,-3.26,2.71,5.13,-1.13,-0.36,-0.89,
1.135,-3.26,2.71,5.13,-1.09,-0.36,-0.86,
1.135,-3.26,2.71,5.13,-1.01,-0.37,-0.79,
1.135,-3.80,2.13,5.03,-1.01,-0.37,-0.79,
1.135,-3.80,2.13,5.03,-0.93,-0.39,-0.73,
1.135,-3.80,2.13,5.03,-0.86,-0.41,-0.68,
1.137,-3.80,2.13,5.03,-0.77,-0.47,-0.62,
1.139,-3.80,2.13,5.03,-0.74,-0.49,-0.60,
1.14,-3.80,2.13,5.03,-0.69,-0.53,-0.57,
1.142,-3.50,1.67,4.56,-0.69,-0.53,-0.57,
1.143,-3.50,1.67,4.56,-0.65,-0.57,-0.55,
1.144,-3.50,1.67,4.56,-0.62,-0.59,-0.53,
1.147,-3.50,1.67,4.56,-0.60,-0.61,-0.52,
1.148,-3.50,1.67,4.56,-0.59,-0.60,-0.52,
1.15,-3.50,1.67,4.56,-0.59,-0.59,-0.51,
1.153,-2.95,1.73,2.98,-0.59,-0.59,-0.51,
1.153,-2.95,1.73,2.98,-0.59,-0.57,-0.52,
1.154,-2.95,1.73,2.98,-0.60,-0.54,-0.52,
1.157,-2.95,1.73,2.98,-0.61,-0.48,-0.54,
1.158,-2.95,1.73,2.98,-0.61,-0.45,-0.54,
1.16,-2.95,1.73,2.98,-0.61,-0.40,-0.56,
1.162,-2.56,1.91,1.95,-0.61,-0.40,-0.56,
1.162,-2.56,1.91,1.95,-0.61,-0.34,-0.58,
1.164,-2.56,1.91,1.95,-0.61,-0.28,-0.60,
1.167,-2.56,1.91,1.95,-0.59,-0.20,-0.65,
1.168,-2.56,1.91,1.95,-0.58,-0.18,-0.67,
1.17,-2.56,1.91,1.95,-0.56,-0.13,-0.71,
1.172,-1.93,1.95,2.11,-0.56,-0.13,-0.71,
1.172,-1.93,1.95,2.11,-0.54,-0.09,-0.75,
1.175,-1.93,1.95,2.11,-0.52,-0.05,-0.79,
1.177,-1.93,1.95,2.11,-0.47,-0.02,-0.85,
1.179,-1.93,1.95,2.11,-0.45,-0.01,-0.87,
1.18,-1.93,1.95,2.11,-0.41,-0.00,-0.90,
1.182,-1.41,1.86,2.46,-0.41,-0.00,-0.90,
1.182,-1.41,1.86,2.46,-0.37,0.00,-0.93,
1.188,-1.41,1.86,2.46,-0.31,0.02,-0.95,
1.188,-1.41,1.86,2.46,-0.23,0.04,-0.98,
1.188,-1.41,1.86,2.46,-0.20,0.04,-0.99,
1.191,-1.41,1.86,2.46,-0.14,0.06,-1.00,
1.192,-1.36,1.92,2.86,-0.14,0.06,-1.00,
1.193,-1.36,1.92,2.86,-0.09,0.09,-1.01,
1.194,-1.36,1.92,2.86,-0.03,0.11,-1.02,
1.197,-1.36,1.92,2.86,0.04,0.17,-1.02,
1.198,-1.36,1.92,2.86,0.07,0.18,-1.02,
1.2,-1.36,1.92,2.86,0.11,0.21,-1.01,
1.203,-1.71,1.64,2.02,0.11,0.21,-1.01,
1.204,-1.71,1.64,2.02,0.16,0.22,-0.99,
1.204,-1.71,1.64,2.02,0.20,0.23,-0.97,
1.207,-1.71,1.64,2.02,0.27,0.24,-0.92,
1.208,-1.71,1.64,2.02,0.29,0.24,-0.90,
1.21,-1.71,1.64,2.02,0.33,0.24,-0.86,
1.212,-2.16,1.22,1.68,0.33,0.24,-0.86,
1.212,-2.16,1.22,1.68,0.38,0.24,-0.82,
1.214,-2.16,1.22,1.68,0.42,0.24,-0.78,
1.217,-2.16,1.22,1.68,0.48,0.27,-0.71,
1.218,-2.16,1.22,1.68,0.50,0.28,-0.69,
1.22,-2.16,1.22,1.68,0.53,0.32,-0.64,
1.222,-2.41,1.05,1.27,0.53,0.32,-0.64,
1.222,-2.41,1.05,1.27,0.57,0.35,-0.59,
1.224,-2.41,1.05,1.27,0.61,0.38,-0.54,
1.227,-2.41,1.05,1.27,0.67,0.43,-0.47,
1.228,-2.41,1.05,1.27,0.69,0.45,-0.45,
1.23,-2.41,1.05,1.27,0.72,0.48,-0.41,
1.232,-2.05,0.98,1.10,0.72,0.48,-0.41,
1.232,-2.05,0.98,1.10,0.75,0.51,-0.37,
1.234,-2.05,0.98,1.10,0.79,0.54,-0.34,
1.237,-2.05,0.98,1.10,0.82,0.59,-0.31,
1.238,-2.05,0.98,1.10,0.84,0.60,-0.29,
1.24,-2.05,0.98,1.10,0.85,0.63,-0.27,
1.246,-1.05,0.77,0.64,0.85,0.63,-0.27,
1.246,-1.05,0.77,0.64,0.86,0.65,-0.25,
1.246,-1.05,0.77,0.64,0.87,0.66,-0.24,
1.247,-1.05,0.77,0.64,0.86,0.64,-0.22,
1.248,-1.05,0.77,0.64,0.86,0.63,-0.21,
1.25,-1.05,0.77,0.64,0.85,0.60,-0.20,
1.252,-0.72,0.21,0.15,0.85,0.60,-0.20,
1.253,-0.72,0.21,0.15,0.84,0.55,-0.19,
1.254,-0.72,0.21,0.15,0.81,0.49,-0.18,
1.257,-0.72,0.21,0.15,0.76,0.40,-0.17,
1.258,-0.72,0.21,0.15,0.74,0.38,-0.16,
1.26,-0.72,0.21,0.15,0.69,0.33,-0.16,
1.262,-0.19,-0.52,-0.70,0.69,0.33,-0.16,
1.262,-0.19,-0.52,-0.70,0.64,0.29,-0.16,
1.264,-0.19,-0.52,-0.70,0.59,0.24,-0.15,
1.267,-0.19,-0.52,-0.70,0.52,0.18,-0.16,
1.269,-0.19,-0.52,-0.70,0.49,0.16,-0.16,
1.27,-0.19,-0.52,-0.70,0.44,0.13,-0.17,
1.273,0.34,-0.85,-1.75,0.44,0.13,-0.17,
1.274,0.34,-0.85,-1.75,0.39,0.11,-0.18,
1.274,0.34,-0.85,-1.75,0.34,0.10,-0.19,
1.277,0.34,-0.85,-1.75,0.26,0.08,-0.21,
1.278,0.34,-0.85,-1.75,0.24,0.07,-0.21,
1.28,0.34,-0.85,-1.75,0.20,0.07,-0.23,
1.282,0.44,-0.81,-2.35,0.20,0.07,-0.23,
1.283,0.44,-0.81,-2.35,0.16,0.06,-0.24,
1.285,0.44,-0.81,-2.35,0.13,0.07,-0.26,
1.287,0.44,-0.81,-2.35,0.09,0.09,-0.27,
1.288,0.44,-0.81,-2.35,0.08,0.10,-0.28,
1.308,0.44,-0.81,-2.35,0.07,0.12,-0.29,
1.309,0.11,-1.08,-2.38,0.07,0.12,-0.29,
1.309,0.11,-1.08,-2.38,0.05,0.13,-0.29,
1.309,0.11,-1.08,-2.38,0.03,0.16,-0.30,
1.309,0.11,-1.08,-2.38,0.01,0.19,-0.30,
1.309,0.11,-1.08,-2.38,0.00,0.21,-0.30,
1.309,0.11,-1.08,-2.38,-0.02,0.26,-0.29,
1.31,-0.45,-1.36,-2.73,-0.02,0.26,-0.29,
1.31,-0.45,-1.36,-2.73,-0.03,0.27,-0.29,
1.31,-0.45,-1.36,-2.73,-0.05,0.30,-0.28,
1.31,-0.45,-1.36,-2.73,-0.08,0.33,-0.26,
1.31,-0.45,-1.36,-2.73,-0.09,0.34,-0.26,
1.31,-0.45,-1.36,-2.73,-0.11,0.37,-0.24,
1.313,-1.06,-1.82,-3.30,-0.11,0.37,-0.24,
1.313,-1.06,-1.82,-3.30,-0.13,0.39,-0.23,
1.314,-1.06,-1.82,-3.30,-0.15,0.42,-0.21,
1.318,-1.06,-1.82,-3.30,-0.18,0.47,-0.18,
1.318,-1.06,-1.82,-3.30,-0.19,0.49,-0.17,
1.32,-1.06,-1.82,-3.30,-0.20,0.52,-0.15,
1.322,-1.35,-1.73,-3.05,-0.20,0.52,-0.15,
1.322,-1.35,-1.73,-3.05,-0.21,0.54,-0.13,
1.324,-1.35,-1.73,-3.05,-0.22,0.55,-0.13,
1.327,-1.35,-1.73,-3.05,-0.23,0.54,-0.12,
1.329,-1.35,-1.73,-3.05,-0.22,0.53,-0.12,
1.332,-1.35,-1.73,-3.05,-0.22,0.51,-0.12,
1.332,-0.52,-1.49,-2.24,-0.22,0.51,-0.12,
1.332,-0.52,-1.49,-2.24,-0.20,0.49,-0.13,
1.336,-0.52,-1.49,-2.24,-0.19,0.48,-0.13,
1.344,-0.52,-1.49,-2.24,-0.16,0.45,-0.13,
1.344,-0.52,-1.49,-2.24,-0.15,0.44,-0.13,
1.345,-0.52,-1.49,-2.24,-0.13,0.44,-0.13,
1.345,0.04,-1.10,-1.32,-0.13,0.44,-0.13,
1.345,0.04,-1.10,-1.32,-0.11,0.43,-0.13,
1.345,0.04,-1.10,-1.32,-0.08,0.44,-0.13,
1.348,0.04,-1.10,-1.32,-0.04,0.44,-0.13,
1.349,0.04,-1.10,-1.32,-0.02,0.44,-0.13,
1.373,0.04,-1.10,-1.32,0.00,0.44,-0.13,
1.374,0.39,-1.05,-0.41,0.00,0.44,-0.13,
1.374,0.39,-1.05,-0.41,0.03,0.45,-0.13,
1.374,0.39,-1.05,-0.41,0.06,0.45,-0.12,
1.375,0.39,-1.05,-0.41,0.10,0.43,-0.11,
1.375,0.39,-1.05,-0.41,0.11,0.42,-0.10,
1.375,0.39,-1.05,-0.41,0.11,0.39,-0.08,
1.375,0.46,-1.30,0.27,0.11,0.39,-0.08,
1.375,0.46,-1.30,0.27,0.12,0.34,-0.06,
1.376,0.46,-1.30,0.27,0.12,0.29,-0.03,
1.376,0.46,-1.30,0.27,0.11,0.22,0.02,
1.376,0.46,-1.30,0.27,0.11,0.19,0.04,
1.376,0.46,-1.30,0.27,0.09,0.14,0.07,
1.377,-0.13,-1.15,0.45,0.09,0.14,0.07,
1.377,-0.13,-1.15,0.45,0.07,0.09,0.10,
1.377,-0.13,-1.15,0.45,0.05,0.04,0.14,
1.377,-0.13,-1.15,0.45,0.03,-0.02,0.20,
1.379,-0.13,-1.15,0.45,0.01,-0.04,0.22,
1.381,-0.13,-1.15,0.45,-0.00,-0.09,0.26,
1.383,-0.61,-0.33,0.96,-0.00,-0.09,0.26,
1.383,-0.61,-0.33,0.96,-0.01,-0.14,0.30,
1.384,-0.61,-0.33,0.96,-0.01,-0.20,0.34,
1.387,-0.61,-0.33,0.96,0.00,-0.27,0.40,
1.389,-0.61,-0.33,0.96,0.01,-0.29,0.42,
1.391,-0.61,-0.33,0.96,0.02,-0.32,0.46,
1.393,-0.89,0.57,2.24,0.02,-0.32,0.46,
1.393,-0.89,0.57,2.24,0.04,-0.36,0.49,
1.395,-0.89,0.57,2.24,0.07,-0.38,0.52,
1.397,-0.89,0.57,2.24,0.11,-0.43,0.54,
1.398,-0.89,0.57,2.24,0.13,-0.45,0.55,
1.4,-0.89,0.57,2.24,0.18,-0.48,0.56,
1.402,-0.16,1.19,2.91,0.18,-0.48,0.56,
1.403,-0.16,1.19,2.91,0.25,-0.50,0.57,
1.404,-0.16,1.19,2.91,0.32,-0.53,0.58,
1.407,-0.16,1.19,2.91,0.45,-0.60,0.59,
1.408,-0.16,1.19,2.91,0.49,-0.63,0.59,
1.41,-0.16,1.19,2.91,0.57,-0.69,0.60,
1.412,0.17,1.97,3.30,0.57,-0.69,0.60,
1.413,0.17,1.97,3.30,0.64,-0.75,0.60,
1.414,0.17,1.97,3.30,0.71,-0.81,0.60,
1.418,0.17,1.97,3.30,0.79,-0.88,0.60,
1.422,0.17,1.97,3.30,0.82,-0.90,0.59,
1.423,0.17,1.97,3.30,0.86,-0.94,0.58,
1.423,0.97,3.01,1.74,0.86,-0.94,0.58,
1.423,0.97,3.01,1.74,0.89,-0.98,0.58,
1.425,0.97,3.01,1.74,0.93,-1.01,0.57,
1.428,0.97,3.01,1.74,0.97,-1.06,0.56,
1.429,0.97,3.01,1.74,0.99,-1.07,0.56,
1.431,0.97,3.01,1.74,1.02,-1.11,0.56,
1.433,0.94,2.99,1.42,1.02,-1.11,0.56,
1.434,0.94,2.99,1.42,1.06,-1.13,0.56,
1.438,0.94,2.99,1.42,1.11,-1.16,0.56,
1.44,0.94,2.99,1.42,1.18,-1.20,0.57,
1.441,0.94,2.99,1.42,1.21,-1.22,0.57,
1.446,0.94,2.99,1.42,1.25,-1.25,0.58,
1.446,0.84,1.78,1.43,1.25,-1.25,0.58,
1.446,0.84,1.78,1.43,1.28,-1.28,0.58,
1.447,0.84,1.78,1.43,1.30,-1.32,0.59,
1.448,0.84,1.78,1.43,1.32,-1.36,0.60,
1.451,0.84,1.78,1.43,1.32,-1.36,0.61,
1.451,0.84,1.78,1.43,1.31,-1.37,0.62,
1.455,0.82,0.58,-0.30,1.31,-1.37,0.62,
1.457,0.82,0.58,-0.30,1.30,-1.37,0.63,
1.457,0.82,0.58,-0.30,1.28,-1.36,0.64,
1.487,0.82,0.58,-0.30,1.23,-1.32,0.65,
1.488,0.82,0.58,-0.30,1.21,-1.31,0.66,
1.488,0.82,0.58,-0.30,1.17,-1.27,0.66,
1.489,0.87,-0.71,-2.29,1.17,-1.27,0.66,
1.489,0.87,-0.71,-2.29,1.11,-1.23,0.66,
1.489,0.87,-0.71,-2.29,1.05,-1.20,0.65,
1.49,0.87,-0.71,-2.29,0.93,-1.17,0.63,
1.49,0.87,-0.71,-2.29,0.89,-1.16,0.62,
1.49,0.87,-0.71,-2.29,0.81,-1.16,0.59,
1.49,1.25,-1.57,-3.86,0.81,-1.16,0.59,
1.491,1.25,-1.57,-3.86,0.72,-1.15,0.55,
1.491,1.25,-1.57,-3.86,0.63,-1.13,0.51,
1.491,1.25,-1.57,-3.86,0.49,-1.08,0.45,
1.491,1.25,-1.57,-3.86,0.45,-1.07,0.43,
1.492,1.25,-1.57,-3.86,0.35,-1.02,0.38,
1.492,1.67,-1.89,-4.26,0.35,-1.02,0.38,
1.492,1.67,-1.89,-4.26,0.26,-0.97,0.34,
1.492,1.67,-1.89,-4.26,0.18,-0.91,0.30,
1.493,1.67,-1.89,-4.26,0.06,-0.81,0.26,
1.493,1.67,-1.89,-4.26,0.02,-0.78,0.25,
1.493,1.67,-1.89,-4.26,-0.06,-0.72,0.23,
1.493,1.05,-1.76,-4.17,-0.06,-0.72,0.23,
1.494,1.05,-1.76,-4.17,-0.13,-0.67,0.22,
1.494,1.05,-1.76,-4.17,-0.20,-0.63,0.22,
1.503,1.05,-1.76,-4.17,-0.29,-0.60,0.22,
1.504,1.05,-1.76,-4.17,-0.32,-0.59,0.22,
1.504,1.05,-1.76,-4.17,-0.37,-0.58,0.23,
1.505,0.04,-1.36,-3.37,-0.37,-0.58,0.23,
1.505,0.04,-1.36,-3.37,-0.42,-0.56,0.25,
1.505,0.04,-1.36,-3.37,-0.46,-0.55,0.27,
1.512,0.04,-1.36,-3.37,-0.53,-0.54,0.32,
1.513,0.04,-1.36,-3.37,-0.55,-0.53,0.34,
1.513,0.04,-1.36,-3.37,-0.59,-0.53,0.38,
1.518,-0.80,-1.06,-2.93,-0.59,-0.53,0.38,
1.519,-0.80,-1.06,-2.93,-0.63,-0.53,0.43,
1.519,-0.80,-1.06,-2.93,-0.74,-0.53,0.59,
1.519,-0.80,-1.06,-2.93,-0.74,-0.53,0.59,
1.532,-0.80,-1.06,-2.93,-0.74,-0.53,0.59,
1.532,-0.80,-1.06,-2.93,-0.77,-0.53,0.64,
1.533,-1.41,-0.53,-2.69,-0.77,-0.53,0.64,
1.533,-1.41,-0.53,-2.69,-0.80,-0.53,0.69,
1.533,-1.41,-0.53,-2.69,-0.82,-0.54,0.74,
1.533,-1.41,-0.53,-2.69,-0.86,-0.54,0.82,
1.534,-1.41,-0.53,-2.69,-0.87,-0.54,0.85,
1.534,-1.41,-0.53,-2.69,-0.89,-0.55,0.90,
1.534,-1.49,-0.29,-2.42,-0.89,-0.55,0.90,
1.534,-1.49,-0.29,-2.42,-0.90,-0.56,0.94,
1.534,-1.49,-0.29,-2.42,-0.91,-0.57,0.99,
1.565,-1.49,-0.29,-2.42,-0.93,-0.60,1.05,
1.566,-1.49,-0.29,-2.42,-0.93,-0.61,1.07,
1.566,-1.49,-0.29,-2.42,-0.94,-0.63,1.11,
1.567,-1.22,-0.32,-1.82,-0.94,-0.63,1.11,
1.567,-1.22,-0.32,-1.82,-0.95,-0.65,1.14,
1.567,-1.22,-0.32,-1.82,-0.96,-0.67,1.17,
1.567,-1.22,-0.32,-1.82,-0.97,-0.68,1.22,
1.568,-1.22,-0.32,-1.82,-0.97,-0.68,1.24,
1.568,-1.22,-0.32,-1.82,-0.98,-0.68,1.27,
1.568,-1.25,-1.10,-1.65,-0.98,-0.68,1.27,
1.568,-1.25,-1.10,-1.65,-0.99,-0.66,1.31,
1.569,-1.25,-1.10,-1.65,-1.00,-0.64,1.34,
1.569,-1.25,-1.10,-1.65,-1.01,-0.60,1.39,
1.569,-1.25,-1.10,-1.65,-1.01,-0.59,1.41,
1.569,-1.25,-1.10,-1.65,-1.02,-0.57,1.44,
1.569,-1.48,-1.60,-1.41,-1.02,-0.57,1.44,
1.57,-1.48,-1.60,-1.41,-1.02,-0.54,1.48,
1.57,-1.48,-1.60,-1.41,-1.02,-0.52,1.52,
1.57,-1.48,-1.60,-1.41,-1.02,-0.47,1.56,
1.57,-1.48,-1.60,-1.41,-1.02,-0.45,1.58,
1.571,-1.48,-1.60,-1.41,-1.01,-0.41,1.60,
1.574,-1.60,-1.70,-0.84,-1.01,-0.41,1.60,
1.574,-1.60,-1.70,-0.84,-1.00,-0.37,1.62,
1.575,-1.60,-1.70,-0.84,-0.98,-0.35,1.63,
1.578,-1.60,-1.70,-0.84,-0.93,-0.36,1.62,
1.578,-1.60,-1.70,-0.84,-0.91,-0.37,1.61,
1.58,-1.60,-1.70,-0.84,-0.86,-0.41,1.59,
1.584,-1.56,-1.86,1.42,-0.86,-0.41,1.59,
1.584,-1.56,-1.86,1.42,-0.81,-0.46,1.54,
1.585,-1.56,-1.86,1.42,-0.75,-0.51,1.48,
1.588,-1.56,-1.86,1.42,-0.68,-0.58,1.37,
1.588,-1.56,-1.86,1.42,-0.65,-0.60,1.33,
1.591,-1.56,-1.86,1.42,-0.62,-0.63,1.25,
1.593,-0.48,-1.72,2.76,-0.62,-0.63,1.25,
1.593,-0.48,-1.72,2.76,-0.60,-0.65,1.16,
1.594,-0.48,-1.72,2.76,-0.59,-0.66,1.08,
1.597,-0.48,-1.72,2.76,-0.59,-0.64,0.97,
1.598,-0.48,-1.72,2.76,-0.59,-0.63,0.94,
1.6,-0.48,-1.72,2.76,-0.60,-0.60,0.87,
1.604,0.05,-0.83,1.70,-0.60,-0.60,0.87,
1.604,0.05,-0.83,1.70,-0.61,-0.56,0.81,
1.605,0.05,-0.83,1.70,-0.62,-0.50,0.77,
1.608,0.05,-0.83,1.70,-0.64,-0.42,0.71,
1.609,0.05,-0.83,1.70,-0.65,-0.40,0.69,
1.61,0.05,-0.83,1.70,-0.66,-0.35,0.67,
1.613,0.01,-0.15,1.60,-0.66,-0.35,0.67,
1.613,0.01,-0.15,1.60,-0.67,-0.30,0.65,
1.614,0.01,-0.15,1.60,-0.67,-0.27,0.63,
1.622,0.01,-0.15,1.60,-0.68,-0.24,0.62,
1.622,0.01,-0.15,1.60,-0.69,-0.23,0.62,
1.623,0.01,-0.15,1.60,-0.70,-0.23,0.62,
1.623,0.01,0.15,1.93,-0.70,-0.23,0.62,
1.64,0.01,0.15,1.93,-0.70,-0.24,0.62,
1.641,0.01,0.15,1.93,-0.71,-0.26,0.63,
1.641,0.01,0.15,1.93,-0.72,-0.30,0.64,
1.641,0.01,0.15,1.93,-0.72,-0.31,0.64,
1.641,0.01,0.15,1.93,-0.72,-0.34,0.65,
1.642,-0.07,0.48,2.00,-0.72,-0.34,0.65,
1.642,-0.07,0.48,2.00,-0.73,-0.37,0.66,
1.642,-0.07,0.48,2.00,-0.73,-0.40,0.68,
1.642,-0.07,0.48,2.00,-0.74,-0.45,0.69,
1.642,-0.07,0.48,2.00,-0.74,-0.47,0.70,
1.643,-0.07,0.48,2.00,-0.74,-0.51,0.73,
1.643,-0.06,1.55,1.90,-0.74,-0.51,0.73,
1.643,-0.06,1.55,1.90,-0.73,-0.55,0.76,
1.651,-0.06,1.55,1.90,-0.71,-0.58,0.81,
1.651,-0.06,1.55,1.90,-0.69,-0.61,0.90,
1.652,-0.06,1.55,1.90,-0.68,-0.62,0.93,
1.656,-0.06,1.55,1.90,-0.65,-0.64,1.05,
1.658,-1.00,2.15,2.11,-0.65,-0.64,1.05,
1.659,-1.00,2.15,2.11,-0.63,-0.64,1.09,
1.663,-1.00,2.15,2.11,-0.61,-0.65,1.17,
1.663,-1.00,2.15,2.11,-0.57,-0.67,1.29,
1.663,-1.00,2.15,2.11,-0.56,-0.68,1.34,
1.663,-1.00,2.15,2.11,-0.54,-0.69,1.42,
1.667,-1.46,1.90,2.03,-0.54,-0.69,1.42,
1.668,-1.46,1.90,2.03,-0.51,-0.70,1.51,
1.668,-1.46,1.90,2.03,-0.49,-0.69,1.60,
1.668,-1.46,1.90,2.03,-0.46,-0.66,1.73,
1.671,-1.46,1.90,2.03,-0.45,-0.65,1.77,
1.672,-1.46,1.90,2.03,-0.42,-0.61,1.85,
1.673,-1.52,1.27,1.71,-0.42,-0.61,1.85,
1.673,-1.52,1.27,1.71,-0.41,-0.57,1.92,
1.674,-1.52,1.27,1.71,-0.39,-0.53,2.00,
1.678,-1.52,1.27,1.71,-0.37,-0.45,2.09,
1.678,-1.52,1.27,1.71,-0.36,-0.42,2.12,
1.68,-1.52,1.27,1.71,-0.34,-0.39,2.17,
1.683,-0.87,0.66,1.14,-0.34,-0.39,2.17,
1.684,-0.87,0.66,1.14,-0.32,-0.39,2.21,
1.685,-0.87,0.66,1.14,-0.29,-0.40,2.25,
1.688,-0.87,0.66,1.14,-0.24,-0.44,2.28,
1.689,-0.87,0.66,1.14,-0.22,-0.47,2.28,
1.69,-0.87,0.66,1.14,-0.17,-0.54,2.28,
1.693,-0.14,0.36,2.13,-0.17,-0.54,2.28,
1.693,-0.14,0.36,2.13,-0.13,-0.63,2.28,
1.694,-0.14,0.36,2.13,-0.09,-0.74,2.26,
1.697,-0.14,0.36,2.13,-0.03,-0.88,2.22,
1.7,-0.14,0.36,2.13,-0.01,-0.92,2.20,
1.701,-0.14,0.36,2.13,0.03,-0.99,2.16,
1.704,0.92,-0.03,1.91,0.03,-0.99,2.16,
1.704,0.92,-0.03,1.91,0.05,-1.07,2.12,
1.706,0.92,-0.03,1.91,0.08,-1.13,2.09,
1.707,0.92,-0.03,1.91,0.09,-1.21,2.01,
1.708,0.92,-0.03,1.91,0.10,-1.23,1.99,
1.71,0.92,-0.03,1.91,0.10,-1.28,1.94,
1.712,1.75,-0.43,0.09,0.10,-1.28,1.94,
1.713,1.75,-0.43,0.09,0.09,-1.30,1.88,
1.714,1.75,-0.43,0.09,0.08,-1.30,1.83,
1.717,1.75,-0.43,0.09,0.06,-1.29,1.77,
1.718,1.75,-0.43,0.09,0.04,-1.29,1.75,
1.721,1.75,-0.43,0.09,0.01,-1.28,1.71,
1.723,1.54,-0.23,-1.67,0.01,-1.28,1.71,
1.723,1.54,-0.23,-1.67,-0.02,-1.25,1.68,
1.724,1.54,-0.23,-1.67,-0.04,-1.21,1.65,
1.728,1.54,-0.23,-1.67,-0.10,-1.16,1.61,
1.73,1.54,-0.23,-1.67,-0.11,-1.14,1.60,
1.73,1.54,-0.23,-1.67,-0.12,-1.12,1.59,
1.743,0.54,0.61,-2.15,-0.12,-1.12,1.59,
1.743,0.54,0.61,-2.15,-0.13,-1.07,1.58,
1.743,0.54,0.61,-2.15,-0.13,-1.02,1.57,
1.744,0.54,0.61,-2.15,-0.14,-0.96,1.56,
1.744,0.54,0.61,-2.15,-0.15,-0.94,1.57,
1.744,0.54,0.61,-2.15,-0.16,-0.89,1.57,
1.744,-0.55,1.30,-1.88,-0.16,-0.89,1.57,
1.744,-0.55,1.30,-1.88,-0.16,-0.82,1.57,
1.745,-0.55,1.30,-1.88,-0.17,-0.73,1.57,
1.747,-0.55,1.30,-1.88,-0.18,-0.58,1.57,
1.748,-0.55,1.30,-1.88,-0.19,-0.52,1.56,
1.785,-0.55,1.30,-1.88,-0.20,-0.39,1.55,
1.786,-0.89,1.52,-1.98,-0.20,-0.39,1.55,
1.786,-0.89,1.52,-1.98,-0.22,-0.26,1.53,
1.787,-0.89,1.52,-1.98,-0.25,-0.13,1.51,
1.787,-0.89,1.52,-1.98,-0.30,0.09,1.46,
1.787,-0.89,1.52,-1.98,-0.31,0.17,1.45,
1.787,-0.89,1.52,-1.98,-0.34,0.34,1.41,
1.787,-0.59,1.17,-2.14,-0.34,0.34,1.41,
1.788,-0.59,1.17,-2.14,-0.38,0.50,1.37,
1.788,-0.59,1.17,-2.14,-0.42,0.64,1.33,
1.788,-0.59,1.17,-2.14,-0.50,0.83,1.26,
1.788,-0.59,1.17,-2.14,-0.52,0.89,1.23,
1.788,-0.59,1.17,-2.14,-0.56,0.99,1.17,
1.789,-0.41,1.02,-2.02,-0.56,0.99,1.17,
1.789,-0.41,1.02,-2.02,-0.60,1.08,1.12,
1.789,-0.41,1.02,-2.02,-0.63,1.15,1.06,
1.789,-0.41,1.02,-2.02,-0.66,1.23,0.96,
1.789,-0.41,1.02,-2.02,-0.67,1.25,0.93,
1.789,-0.41,1.02,-2.02,-0.68,1.28,0.87,
1.79,-0.35,1.25,-0.32,-0.68,1.28,0.87,
1.79,-0.35,1.25,-0.32,-0.68,1.29,0.81,
1.79,-0.35,1.25,-0.32,-0.67,1.30,0.75,
1.79,-0.35,1.25,-0.32,-0.64,1.29,0.66,
1.79,-0.35,1.25,-0.32,-0.62,1.28,0.64,
1.815,-0.35,1.25,-0.32,-0.60,1.25,0.59,
1.816,-0.61,1.56,1.78,-0.60,1.25,0.59,
1.816,-0.61,1.56,1.78,-0.57,1.20,0.53,
1.816,-0.61,1.56,1.78,-0.53,1.13,0.48,
1.817,-0.61,1.56,1.78,-0.47,0.98,0.42,
1.817,-0.61,1.56,1.78,-0.45,0.92,0.40,
1.817,-0.61,1.56,1.78,-0.39,0.79,0.36,
1.817,-0.87,1.03,3.47,-0.39,0.79,0.36,
1.818,-0.87,1.03,3.47,-0.33,0.66,0.32,
1.818,-0.87,1.03,3.47,-0.27,0.54,0.29,
1.818,-0.87,1.03,3.47,-0.16,0.38,0.25,
1.818,-0.87,1.03,3.47,-0.13,0.34,0.24,
1.819,-0.87,1.03,3.47,-0.05,0.26,0.23,
1.819,-0.54,0.39,4.22,-0.05,0.26,0.23,
1.819,-0.54,0.39,4.22,0.01,0.17,0.22,
1.819,-0.54,0.39,4.22,0.08,0.12,0.23,
1.82,-0.54,0.39,4.22,0.18,0.09,0.25,
1.82,-0.54,0.39,4.22,0.21,0.09,0.25,
1.82,-0.54,0.39,4.22,0.27,0.10,0.26,
1.828,-0.18,0.01,3.04,0.27,0.10,0.26,
1.829,-0.18,0.01,3.04,0.32,0.12,0.26,
1.829,-0.18,0.01,3.04,0.37,0.14,0.27,
1.829,-0.18,0.01,3.04,0.42,0.20,0.30,
1.829,-0.18,0.01,3.04,0.44,0.23,0.30,
1.834,-0.18,0.01,3.04,0.46,0.27,0.32,
1.835,0.18,0.22,1.22,0.46,0.27,0.32,
1.835,0.18,0.22,1.22,0.47,0.31,0.33,
1.835,0.18,0.22,1.22,0.48,0.35,0.36,
1.839,0.18,0.22,1.22,0.47,0.39,0.39,
1.84,0.18,0.22,1.22,0.46,0.41,0.40,
1.84,0.18,0.22,1.22,0.44,0.43,0.43,
1.845,0.25,0.41,-0.50,0.44,0.43,0.43,
1.845,0.25,0.41,-0.50,0.42,0.45,0.45,
1.845,0.25,0.41,-0.50,0.39,0.47,0.48,
1.847,0.25,0.41,-0.50,0.34,0.48,0.52,
1.852,0.25,0.41,-0.50,0.32,0.49,0.53,
1.853,0.25,0.41,-0.50,0.29,0.51,0.55,
1.853,0.32,0.80,-1.24,0.29,0.51,0.55,
1.853,0.32,0.80,-1.24,0.25,0.53,0.58,
1.856,0.32,0.80,-1.24,0.20,0.56,0.61,
1.857,0.32,0.80,-1.24,0.14,0.61,0.65,
1.858,0.32,0.80,-1.24,0.12,0.63,0.67,
1.86,0.32,0.80,-1.24,0.07,0.68,0.70,
1.862,0.15,1.33,-1.41,0.07,0.68,0.70,
1.863,0.15,1.33,-1.41,0.03,0.74,0.74,
1.864,0.15,1.33,-1.41,-0.02,0.80,0.78,
1.868,0.15,1.33,-1.41,-0.09,0.89,0.84,
1.869,0.15,1.33,-1.41,-0.11,0.93,0.86,
1.871,0.15,1.33,-1.41,-0.15,1.00,0.91,
1.873,-0.34,1.73,-1.36,-0.15,1.00,0.91,
1.873,-0.34,1.73,-1.36,-0.19,1.09,0.96,
1.875,-0.34,1.73,-1.36,-0.22,1.19,1.01,
1.877,-0.34,1.73,-1.36,-0.27,1.37,1.10,
1.878,-0.34,1.73,-1.36,-0.28,1.43,1.13,
1.88,-0.34,1.73,-1.36,-0.31,1.56,1.19,
1.89,-0.62,2.01,-0.89,-0.31,1.56,1.19,
1.891,-0.62,2.01,-0.89,-0.34,1.70,1.25,
1.891,-0.62,2.01,-0.89,-0.36,1.83,1.30,
1.891,-0.62,2.01,-0.89,-0.40,2.02,1.39,
1.891,-0.62,2.01,-0.89,-0.41,2.09,1.41,
1.892,-0.62,2.01,-0.89,-0.44,2.21,1.46,
1.893,-0.68,2.23,-0.65,-0.44,2.21,1.46,
1.893,-0.68,2.23,-0.65,-0.47,2.33,1.51,
1.925,-0.68,2.23,-0.65,-0.50,2.43,1.55,
1.925,-0.68,2.23,-0.65,-0.54,2.58,1.61,
1.925,-0.68,2.23,-0.65,-0.56,2.62,1.62,
1.925,-0.68,2.23,-0.65,-0.60,2.71,1.64,
1.925,-0.73,2.40,-0.61,-0.60,2.71,1.64,
1.925,-0.73,2.40,-0.61,-0.63,2.79,1.67,
1.926,-0.73,2.40,-0.61,-0.67,2.85,1.68,
1.926,-0.73,2.40,-0.61,-0.73,2.94,1.70,
1.926,-0.73,2.40,-0.61,-0.75,2.96,1.70,
1.926,-0.73,2.40,-0.61,-0.81,3.00,1.71,
1.926,-0.54,2.64,-0.72,-0.81,3.00,1.71,
1.926,-0.54,2.64,-0.72,-0.86,3.03,1.71,
1.926,-0.54,2.64,-0.72,-0.92,3.04,1.71,
1.926,-0.54,2.64,-0.72,-1.02,3.04,1.70,
1.926,-0.54,2.64,-0.72,-1.06,3.04,1.69,
1.927,-0.54,2.64,-0.72,-1.13,3.02,1.68,
1.927,-0.36,2.90,-0.59,-1.13,3.02,1.68,
1.927,-0.36,2.90,-0.59,-1.22,2.98,1.66,
1.927,-0.36,2.90,-0.59,-1.30,2.92,1.64,
1.927,-0.36,2.90,-0.59,-1.43,2.78,1.59,
1.928,-0.36,2.90,-0.59,-1.48,2.72,1.58,
1.93,-0.36,2.90,-0.59,-1.56,2.58,1.54,
1.933,0.31,3.00,0.34,-1.56,2.58,1.54,
1.933,0.31,3.00,0.34,-1.63,2.42,1.50,
1.934,0.31,3.00,0.34,-1.69,2.25,1.46,
1.937,0.31,3.00,0.34,-1.75,1.98,1.41,
1.938,0.31,3.00,0.34,-1.76,1.89,1.39,
1.94,0.31,3.00,0.34,-1.79,1.70,1.36,
1.942,0.58,2.98,2.19,-1.79,1.70,1.36,
1.943,0.58,2.98,2.19,-1.80,1.51,1.34,
1.945,0.58,2.98,2.19,-1.81,1.33,1.32,
1.948,0.58,2.98,2.19,-1.80,1.05,1.30,
1.949,0.58,2.98,2.19,-1.80,0.94,1.30,
1.95,0.58,2.98,2.19,-1.76,0.70,1.31,
1.953,0.42,3.13,2.60,-1.76,0.70,1.31,
1.953,0.42,3.13,2.60,-1.71,0.44,1.33,
1.954,0.42,3.13,2.60,-1.65,0.19,1.36,
1.969,0.42,3.13,2.60,-1.55,-0.15,1.40,
1.969,0.42,3.13,2.60,-1.51,-0.24,1.41,
1.969,0.42,3.13,2.60,-1.42,-0.39,1.44,
1.97,0.21,3.13,1.86,-1.42,-0.39,1.44,
1.97,0.21,3.13,1.86,-1.32,-0.52,1.48,
1.97,0.21,3.13,1.86,-1.23,-0.60,1.52,
1.97,0.21,3.13,1.86,-1.06,-0.65,1.56,
1.97,0.21,3.13,1.86,-1.00,-0.64,1.58,
1.97,0.21,3.13,1.86,-0.88,-0.60,1.60,
1.973,-0.20,3.23,1.05,-0.88,-0.60,1.60,
1.973,-0.20,3.23,1.05,-0.77,-0.51,1.62,
1.974,-0.20,3.23,1.05,-0.66,-0.39,1.64,
1.977,-0.20,3.23,1.05,-0.52,-0.19,1.65,
1.978,-0.20,3.23,1.05,-0.47,-0.12,1.65,
1.98,-0.20,3.23,1.05,-0.40,0.01,1.65,
1.982,-0.59,3.19,0.01,-0.40,0.01,1.65,
1.983,-0.59,3.19,0.01,-0.33,0.14,1.65,
1.984,-0.59,3.19,0.01,-0.27,0.26,1.65,
1.987,-0.59,3.19,0.01,-0.21,0.42,1.63,
1.988,-0.59,3.19,0.01,-0.19,0.47,1.63,
1.99,-0.59,3.19,0.01,-0.17,0.54,1.61,
1.992,-0.81,3.17,-0.26,-0.17,0.54,1.61,
1.992,-0.81,3.17,-0.26,-0.14,0.60,1.59,
1.994,-0.81,3.17,-0.26,-0.12,0.64,1.57,
1.998,-0.81,3.17,-0.26,-0.10,0.65,1.54,
1.998,-0.81,3.17,-0.26,-0.08,0.65,1.54,
2.002,-0.81,3.17,-0.26,-0.04,0.60,1.52,
2.003,-1.13,3.09,0.54,-0.04,0.60,1.52,
2.003,-1.13,3.09,0.54,-0.03,0.57,1.52,
2.004,-1.13,3.09,0.54,0.01,0.53,1.51,
2.007,-1.13,3.09,0.54,0.06,0.46,1.51,
2.008,-1.13,3.09,0.54,0.08,0.44,1.51,
2.01,-1.13,3.09,0.54,0.11,0.40,1.52,
2.012,-1.59,2.70,1.79,0.11,0.40,1.52,
2.013,-1.59,2.70,1.79,0.14,0.35,1.52,
2.015,-1.59,2.70,1.79,0.17,0.30,1.54,
2.017,-1.59,2.70,1.79,0.23,0.23,1.57,
2.021,-1.59,2.70,1.79,0.25,0.21,1.58,
2.021,-1.59,2.70,1.79,0.30,0.18,1.62,
2.023,-2.42,2.18,3.59,0.30,0.18,1.62,
2.023,-2.42,2.18,3.59,0.36,0.15,1.66,
2.025,-2.42,2.18,3.59,0.42,0.14,1.72,
2.027,-2.42,2.18,3.59,0.52,0.15,1.83,
2.029,-2.42,2.18,3.59,0.56,0.16,1.87,
2.048,-2.42,2.18,3.59,0.65,0.19,1.95,
2.049,-4.14,1.66,6.04,0.65,0.19,1.95,
2.05,-4.14,1.66,6.04,0.72,0.23,2.05,
2.051,-4.14,1.66,6.04,0.81,0.26,2.16,
2.051,-4.14,1.66,6.04,0.92,0.30,2.32,
2.052,-4.14,1.66,6.04,0.96,0.32,2.38,
2.053,-4.14,1.66,6.04,1.03,0.37,2.49,
2.053,-5.33,1.48,6.28,1.03,0.37,2.49,
2.055,-5.33,1.48,6.28,1.10,0.43,2.58,
2.055,-5.33,1.48,6.28,1.16,0.51,2.67,
2.056,-5.33,1.48,6.28,1.24,0.64,2.78,
2.056,-5.33,1.48,6.28,1.25,0.68,2.82,
2.057,-5.33,1.48,6.28,1.29,0.78,2.88,
2.057,-5.49,0.99,4.49,1.29,0.78,2.88,
2.058,-5.49,0.99,4.49,1.31,0.89,2.95,
2.058,-5.49,0.99,4.49,1.32,1.00,3.03,
2.066,-5.49,0.99,4.49,1.31,1.18,3.14,
2.066,-5.49,0.99,4.49,1.30,1.24,3.18,
2.067,-5.49,0.99,4.49,1.29,1.36,3.26,
2.068,-5.41,0.48,1.13,1.29,1.36,3.26,
2.068,-5.41,0.48,1.13,1.25,1.46,3.34,
2.069,-5.41,0.48,1.13,1.19,1.57,3.42,
2.069,-5.41,0.48,1.13,1.09,1.69,3.54,
2.07,-5.41,0.48,1.13,1.05,1.73,3.58,
2.07,-5.41,0.48,1.13,0.98,1.80,3.66,
2.086,-5.10,0.47,-2.13,0.98,1.80,3.66,
2.087,-5.10,0.47,-2.13,0.90,1.87,3.73,
2.088,-5.10,0.47,-2.13,0.80,1.93,3.80,
2.088,-5.10,0.47,-2.13,0.65,2.02,3.89,
2.089,-5.10,0.47,-2.13,0.60,2.05,3.93,
2.089,-5.10,0.47,-2.13,0.49,2.12,3.98,
2.09,-4.18,1.44,-3.96,0.49,2.12,3.98,
2.09,-4.18,1.44,-3.96,0.38,2.21,4.03,
2.093,-4.18,1.44,-3.96,0.25,2.31,4.08,
2.094,-4.18,1.44,-3.96,0.05,2.51,4.13,
2.094,-4.18,1.44,-3.96,-0.02,2.59,4.14,
2.095,-4.18,1.44,-3.96,-0.18,2.78,4.16,
2.095,-3.21,2.84,-5.75,-0.18,2.78,4.16,
2.096,-3.21,2.84,-5.75,-0.35,2.99,4.17,
2.097,-3.21,2.84,-5.75,-0.53,3.22,4.17,
2.097,-3.21,2.84,-5.75,-0.78,3.53,4.16,
2.103,-3.21,2.84,-5.75,-0.86,3.63,4.16,
2.104,-3.21,2.84,-5.75,-1.01,3.81,4.15,
2.104,-2.08,4.04,-6.27,-1.01,3.81,4.15,
2.105,-2.08,4.04,-6.27,-1.15,3.99,4.14,
2.105,-2.08,4.04,-6.27,-1.28,4.16,4.13,
2.109,-2.08,4.04,-6.27,-1.44,4.41,4.12,
2.109,-2.08,4.04,-6.27,-1.49,4.48,4.12,
2.111,-2.08,4.04,-6.27,-1.59,4.62,4.10,
2.114,-1.27,4.75,-5.04,-1.59,4.62,4.10,
2.115,-1.27,4.75,-5.04,-1.69,4.74,4.08,
2.115,-1.27,4.75,-5.04,-1.79,4.87,4.07,
2.119,-1.27,4.75,-5.04,-1.97,5.09,4.06,
2.12,-1.27,4.75,-5.04,-2.01,5.15,4.04,
2.121,-1.27,4.75,-5.04,-2.08,5.22,3.98,
2.123,2.02,-5.58,-3.96,-2.08,5.22,3.98,
2.15,2.02,-5.58,-3.96,-2.14,5.26,3.93,
2.151,2.02,-5.58,-3.96,-2.18,5.25,3.91,
2.151,2.02,-5.58,-3.96,-2.17,5.24,3.94,
2.152,2.02,-5.58,-3.96,-2.15,5.24,3.97,
2.152,2.02,-5.58,-3.96,-2.06,5.27,4.03,
2.153,-0.52,-17.65,0.74,-2.06,5.27,4.03,
2.153,-0.52,-17.65,0.74,-1.90,5.31,4.09,
2.153,-0.52,-17.65,0.74,-1.67,5.36,4.13,
2.154,-0.52,-17.65,0.74,-1.24,5.43,4.13,
2.154,-0.52,-17.65,0.74,-1.08,5.44,4.12,
2.155,-0.52,-17.65,0.74,-0.77,5.44,4.08,
2.155,0.46,-31.55,9.34,-0.77,5.44,4.08,
2.156,0.46,-31.55,9.34,-0.44,5.37,4.03,
2.156,0.46,-31.55,9.34,-0.11,5.25,3.97,
2.156,0.46,-31.55,9.34,0.39,4.97,3.85,
2.157,0.46,-31.55,9.34,0.56,4.86,3.79,
2.157,0.46,-31.55,9.34,0.86,4.59,3.64,
2.158,2.51,-37.98,10.78,0.86,4.59,3.64,
2.158,2.51,-37.98,10.78,1.14,4.29,3.45,
2.159,2.51,-37.98,10.78,1.38,3.96,3.23,
2.159,2.51,-37.98,10.78,1.67,3.44,2.83,
2.16,2.51,-37.98,10.78,1.82,3.11,2.56,
2.16,2.51,-37.98,10.78,1.88,2.94,2.42,
2.175,6.66,-30.35,4.78,1.88,2.94,2.42,
2.176,6.66,-30.35,4.78,2.00,2.59,2.15,
2.177,6.66,-30.35,4.78,2.10,2.24,1.87,
2.177,6.66,-30.35,4.78,2.21,1.72,1.48,
2.177,6.66,-30.35,4.78,2.25,1.55,1.35,
2.178,6.66,-30.35,4.78,2.31,1.22,1.12,
2.178,7.23,-17.37,0.40,2.31,1.22,1.12,
2.179,7.23,-17.37,0.40,2.36,0.92,0.92,
2.179,7.23,-17.37,0.40,2.40,0.66,0.73,
2.179,7.23,-17.37,0.40,2.44,0.33,0.48,
2.18,7.23,-17.37,0.40,2.44,0.23,0.40,
2.183,7.23,-17.37,0.40,2.46,0.07,0.26,
2.183,4.70,-7.20,-1.91,2.46,0.07,0.26,
2.184,4.70,-7.20,-1.91,2.45,-0.06,0.13,
2.189,4.70,-7.20,-1.91,2.44,-0.16,0.02,
2.189,4.70,-7.20,-1.91,2.41,-0.28,-0.12,
2.19,4.70,-7.20,-1.91,2.39,-0.31,-0.16,
2.191,4.70,-7.20,-1.91,2.36,-0.35,-0.24,
2.194,2.51,-0.70,-3.52,2.36,-0.35,-0.24,
2.194,2.51,-0.70,-3.52,2.32,-0.37,-0.30,
2.195,2.51,-0.70,-3.52,2.27,-0.37,-0.35,
2.205,2.51,-0.70,-3.52,2.20,-0.34,-0.42,
2.206,2.51,-0.70,-3.52,2.18,-0.32,-0.44,
2.206,2.51,-0.70,-3.52,2.14,-0.28,-0.46,
2.206,0.92,3.51,-3.82,2.14,-0.28,-0.46,
2.207,0.92,3.51,-3.82,2.10,-0.22,-0.48,
2.207,0.92,3.51,-3.82,2.07,-0.15,-0.49,
2.207,0.92,3.51,-3.82,2.03,-0.04,-0.49,
2.248,0.92,3.51,-3.82,2.02,0.00,-0.48,
2.251,0.92,3.51,-3.82,1.99,0.09,-0.47,
2.252,-0.56,5.88,-3.20,1.99,0.09,-0.47,
2.252,-0.56,5.88,-3.20,1.96,0.18,-0.45,
2.252,-0.56,5.88,-3.20,1.94,0.27,-0.43,
2.252,-0.56,5.88,-3.20,1.91,0.42,-0.38,
2.253,-0.56,5.88,-3.20,1.90,0.47,-0.37,
2.253,-0.56,5.88,-3.20,1.87,0.57,-0.33,
2.253,-1.14,6.93,-3.00,1.87,0.57,-0.33,
2.253,-1.14,6.93,-3.00,1.84,0.68,-0.30,
2.254,-1.14,6.93,-3.00,1.82,0.80,-0.26,
2.254,-1.14,6.93,-3.00,1.78,0.98,-0.20,
2.254,-1.14,6.93,-3.00,1.77,1.03,-0.18,
2.254,-1.14,6.93,-3.00,1.74,1.15,-0.13,
2.254,-1.66,6.83,-3.22,1.74,1.15,-0.13,
2.255,-1.66,6.83,-3.22,1.72,1.27,-0.08,
2.255,-1.66,6.83,-3.22,1.69,1.37,-0.03,
2.255,-1.66,6.83,-3.22,1.66,1.51,0.04,
2.255,-1.66,6.83,-3.22,1.65,1.54,0.06,
2.255,-1.66,6.83,-3.22,1.63,1.61,0.10,
2.256,-1.83,5.42,-3.22,1.63,1.61,0.10,
2.256,-1.83,5.42,-3.22,1.61,1.67,0.14,
2.256,-1.83,5.42,-3.22,1.59,1.71,0.18,
2.256,-1.83,5.42,-3.22,1.55,1.75,0.24,
2.256,-1.83,5.42,-3.22,1.54,1.76,0.26,
2.257,-1.83,5.42,-3.22,1.51,1.76,0.29,
2.257,-1.96,3.52,-3.25,1.51,1.76,0.29,
2.257,-1.96,3.52,-3.25,1.48,1.74,0.32,
2.257,-1.96,3.52,-3.25,1.45,1.72,0.35,
2.257,-1.96,3.52,-3.25,1.41,1.66,0.38,
2.261,-1.96,3.52,-3.25,1.39,1.63,0.39,
2.277,-1.96,3.52,-3.25,1.37,1.57,0.41,
2.278,-1.50,1.96,-3.07,1.37,1.57,0.41,
2.279,-1.50,1.96,-3.07,1.34,1.50,0.42,
2.279,-1.50,1.96,-3.07,1.32,1.43,0.42,
2.279,-1.50,1.96,-3.07,1.28,1.32,0.42,
2.28,-1.50,1.96,-3.07,1.27,1.28,0.42,
2.28,-1.50,1.96,-3.07,1.24,1.19,0.40,
2.28,-0.71,1.07,-2.87,1.24,1.19,0.40,
2.281,-0.71,1.07,-2.87,1.22,1.10,0.39,
2.281,-0.71,1.07,-2.87,1.19,1.01,0.37,
2.282,-0.71,1.07,-2.87,1.15,0.87,0.32,
2.283,-0.71,1.07,-2.87,1.13,0.82,0.31,
2.283,-0.71,1.07,-2.87,1.10,0.73,0.27,
2.288,0.15,0.72,-2.75,1.10,0.73,0.27,
2.289,0.15,0.72,-2.75,1.07,0.64,0.23,
2.289,0.15,0.72,-2.75,1.03,0.55,0.18,
2.29,0.15,0.72,-2.75,0.97,0.43,0.11,
2.29,0.15,0.72,-2.75,0.95,0.38,0.09,
2.32,0.15,0.72,-2.75,0.90,0.30,0.04,
2.32,0.86,0.54,-2.88,0.90,0.30,0.04,
2.321,0.86,0.54,-2.88,0.86,0.23,-0.01,
2.321,0.86,0.54,-2.88,0.80,0.17,-0.06,
2.321,0.86,0.54,-2.88,0.73,0.09,-0.13,
2.321,0.86,0.54,-2.88,0.67,0.04,-0.17,
2.322,0.86,0.54,-2.88,0.64,0.02,-0.18,
2.322,0.96,0.69,-2.99,0.64,0.02,-0.18,
2.322,0.96,0.69,-2.99,0.58,-0.02,-0.21,
2.323,0.96,0.69,-2.99,0.52,-0.04,-0.24,
2.323,0.96,0.69,-2.99,0.43,-0.08,-0.27,
2.323,0.96,0.69,-2.99,0.38,-0.10,-0.29,
2.323,0.96,0.69,-2.99,0.35,-0.11,-0.30,
2.324,0.66,0.91,-3.03,0.35,-0.11,-0.30,
2.324,0.66,0.91,-3.03,0.29,-0.12,-0.31,
2.324,0.66,0.91,-3.03,0.24,-0.13,-0.31,
2.325,0.66,0.91,-3.03,0.17,-0.14,-0.31,
2.325,0.66,0.91,-3.03,0.14,-0.15,-0.31,
2.325,0.66,0.91,-3.03,0.10,-0.16,-0.31,
2.325,0.42,1.42,-2.72,0.10,-0.16,-0.31,
2.326,0.42,1.42,-2.72,0.06,-0.16,-0.31,
2.326,0.42,1.42,-2.72,0.02,-0.16,-0.31,
2.352,0.42,1.42,-2.72,-0.03,-0.16,-0.30,
2.352,0.42,1.42,-2.72,-0.05,-0.16,-0.30,
2.353,0.42,1.42,-2.72,-0.07,-0.16,-0.29,
2.353,0.28,1.95,-2.52,-0.07,-0.16,-0.29,
2.353,0.28,1.95,-2.52,-0.10,-0.16,-0.29,
2.353,0.28,1.95,-2.52,-0.12,-0.16,-0.28,
2.354,0.28,1.95,-2.52,-0.15,-0.14,-0.27,
2.354,0.28,1.95,-2.52,-0.16,-0.14,-0.27,
2.354,0.28,1.95,-2.52,-0.18,-0.13,-0.26,
2.354,0.20,2.56,-2.39,-0.18,-0.13,-0.26,
2.355,0.20,2.56,-2.39,-0.19,-0.11,-0.26,
2.355,0.20,2.56,-2.39,-0.21,-0.10,-0.25,
2.355,0.20,2.56,-2.39,-0.22,-0.07,-0.24,
2.355,0.20,2.56,-2.39,-0.23,-0.06,-0.24,
2.356,0.20,2.56,-2.39,-0.25,-0.02,-0.24,
2.356,-0.03,3.10,-2.57,-0.25,-0.02,-0.24,
2.356,-0.03,3.10,-2.57,-0.25,-0.01,-0.23,
2.356,-0.03,3.10,-2.57,-0.26,0.01,-0.23,
2.39,-0.03,3.10,-2.57,-0.28,0.05,-0.22,
2.391,-0.03,3.10,-2.57,-0.29,0.06,-0.22,
2.391,-0.03,3.10,-2.57,-0.30,0.08,-0.21,
2.392,-0.20,3.67,-2.74,-0.30,0.08,-0.21,
2.392,-0.20,3.67,-2.74,-0.32,0.10,-0.21,
2.392,-0.20,3.67,-2.74,-0.34,0.11,-0.21,
2.392,-0.20,3.67,-2.74,-0.36,0.13,-0.20,
2.393,-0.20,3.67,-2.74,-0.37,0.14,-0.20,
2.393,-0.20,3.67,-2.74,-0.40,0.15,-0.19,
2.393,-0.34,4.24,-3.09,-0.40,0.15,-0.19,
2.393,-0.34,4.24,-3.09,-0.42,0.16,-0.19,
2.393,-0.34,4.24,-3.09,-0.45,0.17,-0.18,
2.394,-0.34,4.24,-3.09,-0.49,0.17,-0.17,
2.394,-0.34,4.24,-3.09,-0.51,0.17,-0.16,
2.394,-0.34,4.24,-3.09,-0.54,0.18,-0.16,
2.394,-0.25,4.69,-3.12,-0.54,0.18,-0.16,
2.395,-0.25,4.69,-3.12,-0.57,0.18,-0.15,
2.395,-0.25,4.69,-3.12,-0.61,0.18,-0.14,
2.395,-0.25,4.69,-3.12,-0.65,0.18,-0.13,
2.395,-0.25,4.69,-3.12,-0.67,0.18,-0.12,
2.396,-0.25,4.69,-3.12,-0.70,0.19,-0.11,
2.396,-0.37,5.00,-2.91,-0.70,0.19,-0.11,
2.396,-0.37,5.00,-2.91,-0.73,0.20,-0.10,
2.397,-0.37,5.00,-2.91,-0.76,0.21,-0.08,
2.401,-0.37,5.00,-2.91,-0.80,0.22,-0.07,
2.402,-0.37,5.00,-2.91,-0.82,0.23,-0.06,
2.402,-0.37,5.00,-2.91,-0.85,0.24,-0.05,
2.403,-0.20,5.20,-2.58,-0.85,0.24,-0.05,
2.404,-0.20,5.20,-2.58,-0.88,0.25,-0.04,
2.404,-0.20,5.20,-2.58,-0.91,0.27,-0.03,
2.407,-0.20,5.20,-2.58,-0.97,0.29,-0.01,
2.409,-0.20,5.20,-2.58,-0.98,0.30,-0.01,
2.411,-0.20,5.20,-2.58,-1.02,0.31,-0.00,
2.417,0.04,5.38,-2.26,-1.02,0.31,-0.00,
2.418,0.04,5.38,-2.26,-1.06,0.33,-0.00,
2.418,0.04,5.38,-2.26,-1.09,0.34,0.00,
2.419,0.04,5.38,-2.26,-1.15,0.37,-0.00,
2.42,0.04,5.38,-2.26,-1.17,0.38,-0.00,
2.421,0.04,5.38,-2.26,-1.22,0.40,-0.01,
2.423,0.66,5.32,-1.75,-1.22,0.40,-0.01,
2.423,0.66,5.32,-1.75,-1.26,0.41,-0.03,
2.424,0.66,5.32,-1.75,-1.30,0.42,-0.04,
2.427,0.66,5.32,-1.75,-1.36,0.44,-0.08,
2.436,0.66,5.32,-1.75,-1.39,0.44,-0.09,
2.437,0.66,5.32,-1.75,-1.43,0.44,-0.12,
2.437,1.47,4.40,-0.78,-1.43,0.44,-0.12,
2.437,1.47,4.40,-0.78,-1.47,0.43,-0.15,
2.437,1.47,4.40,-0.78,-1.51,0.41,-0.18,
2.487,1.47,4.40,-0.78,-1.57,0.37,-0.22,
2.489,1.47,4.40,-0.78,-1.59,0.35,-0.24,
2.489,1.47,4.40,-0.78,-1.63,0.30,-0.26,
2.49,2.13,2.54,0.71,-1.63,0.30,-0.26,
2.49,2.13,2.54,0.71,-1.66,0.24,-0.29,
2.49,2.13,2.54,0.71,-1.68,0.17,-0.32,
2.49,2.13,2.54,0.71,-1.71,0.07,-0.37,
2.49,2.13,2.54,0.71,-1.72,0.03,-0.38,
2.491,2.13,2.54,0.71,-1.73,-0.04,-0.41,
2.491,3.01,0.16,3.50,-1.73,-0.04,-0.41,
2.491,3.01,0.16,3.50,-1.73,-0.11,-0.45,
2.491,3.01,0.16,3.50,-1.73,-0.19,-0.49,
2.52,3.01,0.16,3.50,-1.70,-0.30,-0.53,
2.52,3.01,0.16,3.50,-1.67,-0.37,-0.54,
2.521,3.01,0.16,3.50,-1.65,-0.41,-0.55,
2.521,3.05,-2.49,7.49,-1.65,-0.41,-0.55,
2.522,3.05,-2.49,7.49,-1.59,-0.47,-0.56,
2.522,3.05,-2.49,7.49,-1.51,-0.51,-0.57,
2.522,3.05,-2.49,7.49,-1.34,-0.53,-0.56,
2.522,3.05,-2.49,7.49,-1.27,-0.52,-0.55,
2.523,3.05,-2.49,7.49,-1.12,-0.48,-0.54,
2.523,2.23,-5.63,13.93,-1.12,-0.48,-0.54,
2.523,2.23,-5.63,13.93,-0.95,-0.41,-0.52,
2.524,2.23,-5.63,13.93,-0.76,-0.31,-0.51,
2.524,2.23,-5.63,13.93,-0.47,-0.11,-0.47,
2.524,2.23,-5.63,13.93,-0.37,-0.04,-0.46,
2.524,2.23,-5.63,13.93,-0.18,0.12,-0.43,
2.525,1.56,-8.81,18.73,-0.18,0.12,-0.43,
2.525,1.56,-8.81,18.73,0.00,0.28,-0.41,
2.525,1.56,-8.81,18.73,0.18,0.42,-0.38,
2.526,1.56,-8.81,18.73,0.42,0.62,-0.34,
2.526,1.56,-8.81,18.73,0.49,0.68,-0.32,
2.526,1.56,-8.81,18.73,0.63,0.78,-0.29,
2.526,1.41,-10.34,19.10,0.63,0.78,-0.29,
2.527,1.41,-10.34,19.10,0.77,0.85,-0.26,
2.527,1.41,-10.34,19.10,0.89,0.90,-0.22,
2.527,1.41,-10.34,19.10,1.04,0.94,-0.15,
2.528,1.41,-10.34,19.10,1.13,0.96,-0.10,
2.528,1.41,-10.34,19.10,1.16,0.96,-0.08,
2.528,0.68,-9.46,16.13,1.16,0.96,-0.08,
2.529,0.68,-9.46,16.13,1.21,0.96,-0.03,
2.529,0.68,-9.46,16.13,1.24,0.95,0.02,
2.529,0.68,-9.46,16.13,1.27,0.91,0.08,
2.529,0.68,-9.46,16.13,1.26,0.89,0.11,
2.53,0.68,-9.46,16.13,1.26,0.87,0.13,
2.53,0.36,-6.71,11.31,1.26,0.87,0.13,
2.53,0.36,-6.71,11.31,1.24,0.84,0.15,
2.53,0.36,-6.71,11.31,1.07,0.67,0.13,
2.531,0.36,-6.71,11.31,1.07,0.67,0.13,
2.531,0.36,-6.71,11.31,1.07,0.67,0.13,
2.531,0.36,-6.71,11.31,1.00,0.59,0.11,
2.531,0.74,-3.71,6.82,1.00,0.59,0.11,
2.532,0.74,-3.71,6.82,0.97,0.54,0.09,
2.532,0.74,-3.71,6.82,0.88,0.46,0.06,
2.532,0.74,-3.71,6.82,0.76,0.32,0.01,
2.533,0.74,-3.71,6.82,0.68,0.25,-0.03,
2.533,0.74,-3.71,6.82,0.64,0.22,-0.05,
2.533,0.47,-1.09,3.51,0.64,0.22,-0.05,
2.533,0.47,-1.09,3.51,0.55,0.16,-0.09,
2.546,0.47,-1.09,3.51,0.47,0.11,-0.13,
2.546,0.47,-1.09,3.51,0.35,0.07,-0.18,
2.546,0.47,-1.09,3.51,0.28,0.05,-0.22,
2.547,0.47,-1.09,3.51,0.25,0.05,-0.24,
2.547,-0.40,0.61,0.87,0.25,0.05,-0.24,
2.547,-0.40,0.61,0.87,0.18,0.06,-0.26,
2.547,-0.40,0.61,0.87,0.13,0.08,-0.27,
2.548,-0.40,0.61,0.87,0.05,0.12,-0.27,
2.551,-0.40,0.61,0.87,0.01,0.17,-0.24,
2.551,-0.40,0.61,0.87,-0.01,0.19,-0.23,
2.553,-2.72,0.45,-0.91,-0.01,0.19,-0.23,
2.553,-2.72,0.45,-0.91,-0.06,0.25,-0.19,
2.554,-2.72,0.45,-0.91,-0.10,0.33,-0.14,
2.559,-2.72,0.45,-0.91,-0.16,0.45,-0.06,
2.559,-2.72,0.45,-0.91,-0.20,0.55,0.00,
2.562,-2.72,0.45,-0.91,-0.21,0.60,0.03,
2.564,-4.12,-1.00,-2.18,-0.21,0.60,0.03,
2.564,-4.12,-1.00,-2.18,-0.25,0.71,0.08,
2.564,-4.12,-1.00,-2.18,-0.28,0.82,0.12,
2.567,-4.12,-1.00,-2.18,-0.32,0.99,0.16,
2.568,-4.12,-1.00,-2.18,-0.34,1.10,0.18,
2.57,-4.12,-1.00,-2.18,-0.35,1.15,0.18,
2.572,-3.11,-2.23,-2.93,-0.35,1.15,0.18,
2.573,-3.11,-2.23,-2.93,-0.38,1.25,0.18,
2.574,-3.11,-2.23,-2.93,-0.40,1.34,0.17,
2.577,-3.11,-2.23,-2.93,-0.44,1.44,0.15,
2.578,-3.11,-2.23,-2.93,-0.47,1.49,0.13,
2.581,-3.11,-2.23,-2.93,-0.49,1.51,0.11,
2.583,-1.54,-2.93,-4.19,-0.49,1.51,0.11,
2.583,-1.54,-2.93,-4.19,-0.53,1.53,0.09,
2.585,-1.54,-2.93,-4.19,-0.58,1.53,0.06,
2.587,-1.54,-2.93,-4.19,-0.66,1.50,0.02,
2.588,-1.54,-2.93,-4.19,-0.72,1.46,0.00,
2.59,-1.54,-2.93,-4.19,-0.75,1.44,-0.01,
2.592,-0.96,-3.47,-6.64,-0.75,1.44,-0.01,
2.593,-0.96,-3.47,-6.64,-0.81,1.37,-0.02,
2.594,-0.96,-3.47,-6.64,-0.86,1.27,-0.03,
2.606,-0.96,-3.47,-6.64,-0.93,1.08,-0.03,
2.606,-0.96,-3.47,-6.64,-0.95,0.92,-0.03,
2.607,-0.96,-3.47,-6.64,-0.96,0.83,-0.03,
2.607,-1.02,-3.25,-7.47,-0.96,0.83,-0.03,
2.607,-1.02,-3.25,-7.47,-0.96,0.64,-0.03,
2.607,-1.02,-3.25,-7.47,-0.95,0.44,-0.02,
2.607,-1.02,-3.25,-7.47,-0.91,0.12,-0.00,
2.608,-1.02,-3.25,-7.47,-0.86,-0.11,0.01,
2.636,-1.02,-3.25,-7.47,-0.83,-0.22,0.02,
2.636,-0.71,-1.78,-6.85,-0.83,-0.22,0.02,
2.637,-0.71,-1.78,-6.85,-0.76,-0.45,0.04,
2.637,-0.71,-1.78,-6.85,-0.69,-0.68,0.05,
2.637,-0.71,-1.78,-6.85,-0.56,-1.01,0.07,
2.637,-0.71,-1.78,-6.85,-0.48,-1.22,0.08,
2.637,-0.71,-1.78,-6.85,-0.43,-1.32,0.09,
2.637,-0.19,0.72,-5.52,-0.43,-1.32,0.09,
2.65,-0.19,0.72,-5.52,-0.35,-1.51,0.09,
2.65,-0.19,0.72,-5.52,-0.27,-1.70,0.10,
2.651,-0.19,0.72,-5.52,-0.15,-1.97,0.11,
2.651,-0.19,0.72,-5.52,-0.08,-2.13,0.11,
2.651,-0.19,0.72,-5.52,-0.05,-2.21,0.12,
2.651,0.36,2.93,-4.61,-0.05,-2.21,0.12,
2.651,0.36,2.93,-4.61,0.01,-2.36,0.12,
2.652,0.36,2.93,-4.61,0.07,-2.51,0.12,
2.652,0.36,2.93,-4.61,0.14,-2.71,0.11,
2.652,0.36,2.93,-4.61,0.17,-2.83,0.11,
2.652,0.36,2.93,-4.61,0.19,-2.88,0.11,
2.652,0.77,4.24,-4.08,0.19,-2.88,0.11,
2.652,0.77,4.24,-4.08,0.22,-2.99,0.10,
2.653,0.77,4.24,-4.08,0.24,-3.08,0.09,
2.653,0.77,4.24,-4.08,0.26,-3.21,0.08,
2.653,0.77,4.24,-4.08,0.26,-3.27,0.07,
2.653,0.77,4.24,-4.08,0.26,-3.31,0.07,
2.653,0.90,4.80,-4.14,0.26,-3.31,0.07,
2.653,0.90,4.80,-4.14,0.26,-3.36,0.06,
2.656,0.90,4.80,-4.14,0.25,-3.40,0.06,
2.657,0.90,4.80,-4.14,0.23,-3.45,0.05,
2.658,0.90,4.80,-4.14,0.20,-3.46,0.05,
2.66,0.90,4.80,-4.14,0.19,-3.47,0.05,
2.665,0.64,4.90,-4.04,0.19,-3.47,0.05,
2.665,0.64,4.90,-4.04,0.16,-3.47,0.05,
2.666,0.64,4.90,-4.04,0.13,-3.46,0.06,
2.667,0.64,4.90,-4.04,0.07,-3.43,0.08,
2.668,0.64,4.90,-4.04,0.03,-3.39,0.09,
2.67,0.64,4.90,-4.04,0.01,-3.37,0.10,
2.672,-0.11,4.57,-4.29,0.01,-3.37,0.10,
2.672,-0.11,4.57,-4.29,-0.04,-3.32,0.12,
2.674,-0.11,4.57,-4.29,-0.10,-3.27,0.15,
2.677,-0.11,4.57,-4.29,-0.19,-3.17,0.19,
2.678,-0.11,4.57,-4.29,-0.25,-3.08,0.22,
2.68,-0.11,4.57,-4.29,-0.28,-3.04,0.24,
2.682,-0.85,3.71,-4.27,-0.28,-3.04,0.24,
2.682,-0.85,3.71,-4.27,-0.35,-2.93,0.28,
2.685,-0.85,3.71,-4.27,-0.41,-2.72,0.32,
2.687,-0.85,3.71,-4.27,-0.48,-1.39,0.40,
2.688,-0.85,3.71,-4.27,-0.64,-0.41,0.46,
2.69,-0.85,3.71,-4.27,-0.72,-0.03,0.49,
2.692,-2.83,2.36,0.55,-0.72,-0.03,0.49,
2.692,-2.83,2.36,0.55,-0.86,0.62,0.56,
2.696,-2.83,2.36,0.55,-0.99,1.17,0.63,
2.699,-2.83,2.36,0.55,-1.18,1.83,0.72,
2.7,-2.83,2.36,0.55,-1.31,2.17,0.77,
2.702,-2.83,2.36,0.55,-1.50,2.54,0.82,
2.703,-1.83,-0.67,-0.25,-1.50,2.54,0.82,
2.703,-1.83,-0.67,-0.25,-1.57,2.63,0.83,
2.706,-1.83,-0.67,-0.25,-1.69,2.75,0.84,
2.707,-1.83,-0.67,-0.25,-1.82,2.82,0.83,
2.709,-1.83,-0.67,-0.25,-1.94,2.83,0.81,
2.712,-1.83,-0.67,-0.25,-2.07,2.79,0.76,
2.712,0.85,-2.85,-1.53,-2.07,2.79,0.76,
2.712,0.85,-2.85,-1.53,-2.19,2.69,0.69,
2.714,0.85,-2.85,-1.53,-2.32,2.55,0.61,
2.718,0.85,-2.85,-1.53,-2.43,2.37,0.51,
2.719,0.85,-2.85,-1.53,-2.54,2.14,0.39,
2.72,0.85,-2.85,-1.53,-2.62,1.87,0.25,
2.722,4.79,-5.02,-2.17,-2.62,1.87,0.25,
2.722,4.79,-5.02,-2.17,-2.68,1.55,0.08,
2.724,4.79,-5.02,-2.17,-2.71,1.20,-0.09,
2.727,4.79,-5.02,-2.17,-2.72,0.81,-0.28,
2.731,4.79,-5.02,-2.17,-2.70,0.40,-0.49,
2.732,4.79,-5.02,-2.17,-2.65,-0.03,-0.70,
2.733,8.59,-6.38,0.28,-2.65,-0.03,-0.70,
2.733,8.59,-6.38,0.28,-2.60,-0.45,-0.90,
2.734,8.59,-6.38,0.28,-2.54,-0.86,-1.11,
2.737,8.59,-6.38,0.28,-2.46,-1.44,-1.38,
2.738,8.59,-6.38,0.28,-2.43,-1.62,-1.46,
2.74,8.59,-6.38,0.28,-2.38,-1.95,-1.61,
2.742,8.41,-6.10,0.51,-2.38,-1.95,-1.61,
2.743,8.41,-6.10,0.51,-2.32,-2.25,-1.75,
2.755,8.41,-6.10,0.51,-2.28,-2.51,-1.86,
2.756,8.41,-6.10,0.51,-2.23,-2.75,-1.96,
2.756,8.41,-6.10,0.51,-2.18,-2.96,-2.04,
2.756,8.41,-6.10,0.51,-2.14,-3.14,-2.10,
2.756,5.97,-4.92,-0.51,-2.14,-3.14,-2.10,
2.756,5.97,-4.92,-0.51,-2.09,-3.30,-2.14,
2.756,5.97,-4.92,-0.51,-2.05,-3.42,-2.17,
2.757,5.97,-4.92,-0.51,-2.01,-3.53,-2.19,
2.758,5.97,-4.92,-0.51,-1.98,-3.62,-2.19,
2.76,5.97,-4.92,-0.51,-1.94,-3.69,-2.19,
2.763,3.59,-3.49,-1.25,-1.94,-3.69,-2.19,
2.763,3.59,-3.49,-1.25,-1.91,-3.73,-2.17,
2.764,3.59,-3.49,-1.25,-1.87,-3.76,-2.14,
2.767,3.59,-3.49,-1.25,-1.82,-3.76,-2.08,
2.768,3.59,-3.49,-1.25,-1.80,-3.75,-2.06,
2.77,3.59,-3.49,-1.25,-1.77,-3.73,-2.01,
2.772,2.14,-2.16,-1.73,-1.77,-3.73,-2.01,
2.773,2.14,-2.16,-1.73,-1.72,-3.69,-1.95,
2.774,2.14,-2.16,-1.73,-1.68,-3.63,-1.89,
2.777,2.14,-2.16,-1.73,-1.63,-3.57,-1.83,
2.779,2.14,-2.16,-1.73,-1.58,-3.51,-1.76,
2.78,2.14,-2.16,-1.73,-1.53,-3.43,-1.69,
2.783,1.37,-0.93,-1.56,-1.53,-3.43,-1.69,
2.783,1.37,-0.93,-1.56,-1.47,-3.35,-1.62,
2.785,1.37,-0.93,-1.56,-1.42,-3.26,-1.55,
2.788,1.37,-0.93,-1.56,-1.36,-3.17,-1.48,
2.788,1.37,-0.93,-1.56,-1.30,-3.08,-1.41,
2.805,1.37,-0.93,-1.56,-1.24,-2.97,-1.34,
2.805,1.13,0.16,-1.23,-1.24,-2.97,-1.34,
2.805,1.13,0.16,-1.23,-1.18,-2.87,-1.27,
2.805,1.13,0.16,-1.23,-1.12,-2.76,-1.20,
2.805,1.13,0.16,-1.23,-1.03,-2.60,-1.10,
2.805,1.13,0.16,-1.23,-1.01,-2.54,-1.06,
2.806,1.13,0.16,-1.23,-0.95,-2.43,-1.00,
2.806,1.17,1.11,-0.90,-0.95,-2.43,-1.00,
2.806,1.17,1.11,-0.90,-0.89,-2.31,-0.94,
2.806,1.17,1.11,-0.90,-0.83,-2.20,-0.88,
2.809,1.17,1.11,-0.90,-0.75,-2.02,-0.79,
2.809,1.17,1.11,-0.90,-0.72,-1.96,-0.76,
2.81,1.17,1.11,-0.90,-0.67,-1.84,-0.71,
2.812,1.40,1.90,-0.59,-0.67,-1.84,-0.71,
2.813,1.40,1.90,-0.59,-0.61,-1.71,-0.66,
2.814,1.40,1.90,-0.59,-0.55,-1.59,-0.61,
2.817,1.40,1.90,-0.59,-0.50,-1.46,-0.57,
2.818,1.40,1.90,-0.59,-0.43,-1.34,-0.53,
2.82,1.40,1.90,-0.59,-0.36,-1.21,-0.49,
2.822,1.62,2.60,0.70,-0.36,-1.21,-0.49,
2.822,1.62,2.60,0.70,-0.29,-1.08,-0.45,
2.824,1.62,2.60,0.70,-0.22,-0.94,-0.41,
2.827,1.62,2.60,0.70,-0.16,-0.81,-0.38,
2.83,1.62,2.60,0.70,-0.13,-0.68,-0.34,
2.831,1.62,2.60,0.70,-0.12,-0.55,-0.31,
2.834,1.76,3.20,2.32,-0.12,-0.55,-0.31,
2.834,1.76,3.20,2.32,-0.13,-0.42,-0.28,
2.837,1.76,3.20,2.32,-0.17,-0.30,-0.25,
2.837,1.76,3.20,2.32,-0.24,-0.18,-0.23,
2.84,1.76,3.20,2.32,-0.33,-0.07,-0.22,
2.84,1.76,3.20,2.32,-0.44,0.03,-0.21,
2.844,1.61,2.65,1.13,-0.44,0.03,-0.21,
2.844,1.61,2.65,1.13,-0.56,0.12,-0.20,
2.847,1.61,2.65,1.13,-0.70,0.19,-0.20,
2.847,1.61,2.65,1.13,-0.85,0.25,-0.20,
2.85,1.61,2.65,1.13,-0.99,0.28,-0.20,
2.85,1.61,2.65,1.13,-1.13,0.30,-0.20,
2.854,1.42,1.67,0.18,-1.13,0.30,-0.20,
2.854,1.42,1.67,0.18,-1.27,0.30,-0.21,
2.854,1.42,1.67,0.18,-1.39,0.29,-0.22,
2.857,1.42,1.67,0.18,-1.51,0.28,-0.23,
2.86,1.42,1.67,0.18,-1.62,0.26,-0.24,
2.86,1.42,1.67,0.18,-1.72,0.24,-0.26,
2.864,1.34,1.06,0.61,-1.72,0.24,-0.26,
2.865,1.34,1.06,0.61,-1.80,0.23,-0.27,
2.865,1.34,1.06,0.61,-1.87,0.21,-0.29,
2.868,1.34,1.06,0.61,-1.93,0.18,-0.30,
2.868,1.34,1.06,0.61,-1.98,0.15,-0.30,
2.87,1.34,1.06,0.61,-2.01,0.12,-0.31,
2.872,1.15,0.66,1.69,-2.01,0.12,-0.31,
2.873,1.15,0.66,1.69,-2.03,0.08,-0.31,
2.874,1.15,0.66,1.69,-2.04,0.04,-0.31,
2.892,1.15,0.66,1.69,-2.04,-0.00,-0.30,
2.892,1.15,0.66,1.69,-2.03,-0.05,-0.30,
2.893,1.15,0.66,1.69,-2.00,-0.09,-0.29,
2.893,0.81,0.29,2.64,-2.00,-0.09,-0.29,
2.893,0.81,0.29,2.64,-1.97,-0.14,-0.28,
2.893,0.81,0.29,2.64,-1.93,-0.18,-0.26,
2.894,0.81,0.29,2.64,-1.85,-0.24,-0.24,
2.894,0.81,0.29,2.64,-1.82,-0.26,-0.23,
2.894,0.81,0.29,2.64,-1.76,-0.29,-0.21,
2.894,0.62,-0.07,3.14,-1.76,-0.29,-0.21,
2.894,0.62,-0.07,3.14,-1.70,-0.32,-0.19,
2.895,0.62,-0.07,3.14,-1.63,-0.35,-0.18,
2.918,0.62,-0.07,3.14,-1.56,-0.37,-0.16,
2.918,0.62,-0.07,3.14,-1.49,-0.39,-0.15,
2.919,0.62,-0.07,3.14,-1.41,-0.41,-0.13,
2.919,0.61,-0.33,2.79,-1.41,-0.41,-0.13,
2.919,0.61,-0.33,2.79,-1.34,-0.42,-0.12,
2.919,0.61,-0.33,2.79,-1.27,-0.43,-0.11,
2.919,0.61,-0.33,2.79,-1.20,-0.44,-0.10,
2.92,0.61,-0.33,2.79,-1.13,-0.44,-0.09,
2.92,0.61,-0.33,2.79,-1.07,-0.44,-0.09,
2.92,0.73,-0.38,2.22,-1.07,-0.44,-0.09,
2.92,0.73,-0.38,2.22,-1.01,-0.45,-0.09,
2.92,0.73,-0.38,2.22,-0.95,-0.45,-0.09,
2.92,0.73,-0.38,2.22,-0.91,-0.46,-0.10,
2.921,0.73,-0.38,2.22,-0.87,-0.47,-0.10,
2.921,0.73,-0.38,2.22,-0.84,-0.47,-0.11,
2.923,0.79,-0.04,1.26,-0.84,-0.47,-0.11,
2.923,0.79,-0.04,1.26,-0.82,-0.48,-0.11,
2.924,0.79,-0.04,1.26,-0.80,-0.49,-0.12,
2.93,0.79,-0.04,1.26,-0.79,-0.51,-0.12,
2.931,0.79,-0.04,1.26,-0.79,-0.52,-0.12,
2.931,0.79,-0.04,1.26,-0.80,-0.53,-0.11,
2.933,0.58,0.39,0.40,-0.80,-0.53,-0.11,
2.933,0.58,0.39,0.40,-0.81,-0.55,-0.11,
2.934,0.58,0.39,0.40,-0.83,-0.57,-0.10,
2.937,0.58,0.39,0.40,-0.85,-0.59,-0.09,
2.938,0.58,0.39,0.40,-0.88,-0.61,-0.08,
2.94,0.58,0.39,0.40,-0.91,-0.64,-0.07,
2.943,0.27,0.75,-0.14,-0.91,-0.64,-0.07,
2.943,0.27,0.75,-0.14,-0.95,-0.66,-0.06,
2.945,0.27,0.75,-0.14,-0.98,-0.69,-0.05,
2.951,0.27,0.75,-0.14,-1.05,-0.74,-0.03,
2.952,0.27,0.75,-0.14,-1.07,-0.75,-0.02,
2.953,0.27,0.75,-0.14,-1.11,-0.79,-0.01,
2.953,0.23,1.00,-0.29,-1.11,-0.79,-0.01,
2.953,0.23,1.00,-0.29,-1.16,-0.82,0.00,
2.954,0.23,1.00,-0.29,-1.20,-0.86,0.01,
2.97,0.23,1.00,-0.29,-1.27,-0.91,0.03,
2.971,0.23,1.00,-0.29,-1.29,-0.93,0.04,
2.971,0.23,1.00,-0.29,-1.34,-0.97,0.05,
2.971,0.26,1.12,0.01,-1.34,-0.97,0.05,
2.971,0.26,1.12,0.01,-1.38,-1.01,0.05,
2.972,0.26,1.12,0.01,-1.43,-1.06,0.06,
2.972,0.26,1.12,0.01,-1.49,-1.13,0.08,
2.972,0.26,1.12,0.01,-1.51,-1.15,0.08,
2.973,0.26,1.12,0.01,-1.55,-1.20,0.10,
2.973,0.28,1.25,0.58,-1.55,-1.20,0.10,
2.973,0.28,1.25,0.58,-1.59,-1.25,0.11,
2.977,0.28,1.25,0.58,-1.63,-1.29,0.12,
2.978,0.28,1.25,0.58,-1.68,-1.36,0.14,
2.979,0.28,1.25,0.58,-1.70,-1.38,0.15,
2.981,0.28,1.25,0.58,-1.73,-1.42,0.16,
2.983,0.30,1.35,1.36,-1.73,-1.42,0.16,
2.983,0.30,1.35,1.36,-1.76,-1.46,0.18,
2.984,0.30,1.35,1.36,-1.79,-1.48,0.19,
2.987,0.30,1.35,1.36,-1.81,-1.52,0.22,
2.988,0.30,1.35,1.36,-1.82,-1.52,0.23,
2.99,0.30,1.35,1.36,-1.83,-1.54,0.25,
2.992,0.35,1.24,2.33,-1.83,-1.54,0.25,
2.993,0.35,1.24,2.33,-1.84,-1.54,0.27,
2.996,0.35,1.24,2.33,-1.84,-1.54,0.28,
2.997,0.35,1.24,2.33,-1.84,-1.52,0.31,
2.999,0.35,1.24,2.33,-1.84,-1.51,0.32,
3.0,0.35,1.24,2.33,-1.83,-1.48,0.34,
3.002,0.47,0.93,3.22,-1.83,-1.48,0.34,
3.003,0.47,0.93,3.22,-1.81,-1.45,0.35,
3.004,0.47,0.93,3.22,-1.80,-1.41,0.37,
3.007,0.47,0.93,3.22,-1.77,-1.33,0.40,
3.008,0.47,0.93,3.22,-1.76,-1.30,0.40,
3.026,0.47,0.93,3.22,-1.73,-1.24,0.41,
3.026,0.74,0.43,4.08,-1.73,-1.24,0.41,
3.027,0.74,0.43,4.08,-1.71,-1.17,0.43,
3.027,0.74,0.43,4.08,-1.69,-1.09,0.44,
3.027,0.74,0.43,4.08,-1.66,-0.97,0.45,
3.027,0.74,0.43,4.08,-1.65,-0.93,0.45,
3.028,0.74,0.43,4.08,-1.62,-0.84,0.46,
3.028,1.12,-0.31,4.50,-1.62,-0.84,0.46,
3.028,1.12,-0.31,4.50,-1.61,-0.75,0.47,
3.028,1.12,-0.31,4.50,-1.59,-0.67,0.47,
3.028,1.12,-0.31,4.50,-1.57,-0.55,0.47,
3.029,1.12,-0.31,4.50,-1.56,-0.51,0.47,
3.031,1.12,-0.31,4.50,-1.55,-0.44,0.47,
3.038,1.63,-1.27,4.95,-1.55,-0.44,0.47,
3.038,1.63,-1.27,4.95,-1.53,-0.37,0.47,
3.039,1.63,-1.27,4.95,-1.52,-0.30,0.46,
3.039,1.63,-1.27,4.95,-1.51,-0.21,0.46,
3.039,1.63,-1.27,4.95,-1.50,-0.19,0.46,
3.041,1.63,-1.27,4.95,-1.48,-0.14,0.46,
3.043,2.03,-2.09,5.23,-1.48,-0.14,0.46,
3.043,2.03,-2.09,5.23,-1.47,-0.10,0.45,
3.061,2.03,-2.09,5.23,-1.44,-0.07,0.45,
3.061,2.03,-2.09,5.23,-1.40,-0.04,0.45,
3.061,2.03,-2.09,5.23,-1.39,-0.03,0.45,
3.062,2.03,-2.09,5.23,-1.33,-0.01,0.45,
3.062,2.57,-2.67,5.97,-1.33,-0.01,0.45,
3.062,2.57,-2.67,5.97,-1.31,-0.01,0.45,
3.062,2.57,-2.67,5.97,-1.27,-0.01,0.45,
3.062,2.57,-2.67,5.97,-1.19,-0.03,0.45,
3.062,2.57,-2.67,5.97,-1.16,-0.04,0.45,
3.062,2.57,-2.67,5.97,-1.10,-0.05,0.45,
3.063,3.06,-2.73,6.60,-1.10,-0.05,0.45,
3.063,3.06,-2.73,6.60,-1.03,-0.07,0.45,
3.064,3.06,-2.73,6.60,-0.96,-0.10,0.44,
3.067,3.06,-2.73,6.60,-0.85,-0.13,0.44,
3.068,3.06,-2.73,6.60,-0.81,-0.14,0.44,
3.07,3.06,-2.73,6.60,-0.73,-0.16,0.44,
3.072,3.68,-2.51,6.98,-0.73,-0.16,0.44,
3.073,3.68,-2.51,6.98,-0.65,-0.18,0.43,
3.074,3.68,-2.51,6.98,-0.57,-0.20,0.43,
3.077,3.68,-2.51,6.98,-0.43,-0.21,0.43,
3.078,3.68,-2.51,6.98,-0.39,-0.21,0.42,
3.08,3.68,-2.51,6.98,-0.30,-0.21,0.42,
3.083,3.91,-2.07,6.29,-0.30,-0.21,0.42,
3.083,3.91,-2.07,6.29,-0.21,-0.20,0.41,
3.084,3.91,-2.07,6.29,-0.12,-0.19,0.40,
3.087,3.91,-2.07,6.29,0.01,-0.15,0.39,
3.088,3.91,-2.07,6.29,0.05,-0.14,0.38,
3.09,3.91,-2.07,6.29,0.13,-0.11,0.37,
3.093,3.92,-1.80,5.09,0.13,-0.11,0.37,
3.093,3.92,-1.80,5.09,0.20,-0.07,0.36,
3.094,3.92,-1.80,5.09,0.28,-0.03,0.35,
3.097,3.92,-1.80,5.09,0.37,0.04,0.32,
3.098,3.92,-1.80,5.09,0.40,0.06,0.31,
3.101,3.92,-1.80,5.09,0.45,0.11,0.29,
3.102,3.31,-1.79,3.56,0.45,0.11,0.29,
3.103,3.31,-1.79,3.56,0.50,0.16,0.27,
3.104,3.31,-1.79,3.56,0.54,0.20,0.25,
3.107,3.31,-1.79,3.56,0.59,0.27,0.22,
3.109,3.31,-1.79,3.56,0.60,0.29,0.21,
3.11,3.31,-1.79,3.56,0.62,0.32,0.19,
3.112,2.32,-2.22,2.61,0.62,0.32,0.19,
3.112,2.32,-2.22,2.61,0.64,0.36,0.17,
3.114,2.32,-2.22,2.61,0.65,0.38,0.15,
3.117,2.32,-2.22,2.61,0.67,0.42,0.13,
3.118,2.32,-2.22,2.61,0.67,0.43,0.12,
3.12,2.32,-2.22,2.61,0.67,0.45,0.11,
3.122,1.08,-3.00,2.34,0.67,0.45,0.11,
3.146,1.08,-3.00,2.34,0.67,0.47,0.10,
3.147,1.08,-3.00,2.34,0.67,0.50,0.10,
3.148,1.08,-3.00,2.34,0.67,0.51,0.10,
3.148,1.08,-3.00,2.34,0.68,0.52,0.10,
3.149,1.08,-3.00,2.34,0.68,0.54,0.10,
3.15,0.08,-3.76,2.92,0.68,0.54,0.10,
3.15,0.08,-3.76,2.92,0.70,0.54,0.11,
3.151,0.08,-3.76,2.92,0.71,0.55,0.12,
3.151,0.08,-3.76,2.92,0.75,0.57,0.13,
3.152,0.08,-3.76,2.92,0.76,0.57,0.13,
3.152,0.08,-3.76,2.92,0.80,0.58,0.15,
3.153,-0.54,-4.34,3.94,0.80,0.58,0.15,
3.153,-0.54,-4.34,3.94,0.84,0.59,0.16,
3.154,-0.54,-4.34,3.94,0.89,0.60,0.17,
3.154,-0.54,-4.34,3.94,0.97,0.61,0.18,
3.155,-0.54,-4.34,3.94,1.00,0.61,0.19,
3.156,-0.54,-4.34,3.94,1.06,0.62,0.20,
3.158,-0.94,-4.61,5.63,1.06,0.62,0.20,
3.159,-0.94,-4.61,5.63,1.13,0.63,0.21,
3.159,-0.94,-4.61,5.63,1.21,0.64,0.22,
3.159,-0.94,-4.61,5.63,1.34,0.67,0.23,
3.16,-0.94,-4.61,5.63,1.38,0.68,0.23,
3.172,-0.94,-4.61,5.63,1.49,0.72,0.24,
3.173,-1.05,-3.89,7.40,1.49,0.72,0.24,
3.173,-1.05,-3.89,7.40,1.61,0.76,0.25,
3.174,-1.05,-3.89,7.40,1.73,0.81,0.26,
3.174,-1.05,-3.89,7.40,1.97,0.92,0.28,
3.175,-1.05,-3.89,7.40,2.06,0.97,0.29,
3.175,-1.05,-3.89,7.40,2.26,1.09,0.30,
3.175,-1.01,-2.36,11.01,2.26,1.09,0.30,
3.176,-1.01,-2.36,11.01,2.48,1.22,0.32,
3.176,-1.01,-2.36,11.01,2.71,1.36,0.32,
3.183,-1.01,-2.36,11.01,3.04,1.56,0.33,
3.184,-1.01,-2.36,11.01,3.14,1.62,0.34,
3.184,-1.01,-2.36,11.01,3.33,1.73,0.34,
3.185,-0.26,-1.11,11.34,3.33,1.73,0.34,
3.185,-0.26,-1.11,11.34,3.50,1.82,0.34,
3.186,-0.26,-1.11,11.34,3.65,1.89,0.33,
3.189,-0.26,-1.11,11.34,3.81,1.95,0.33,
3.19,-0.26,-1.11,11.34,3.86,1.96,0.32,
3.191,-0.26,-1.11,11.34,3.92,1.97,0.32,
3.194,0.74,-1.29,6.11,3.92,1.97,0.32,
3.212,0.74,-1.29,6.11,3.96,1.95,0.31,
3.213,0.74,-1.29,6.11,3.98,1.93,0.30,
3.213,0.74,-1.29,6.11,3.96,1.88,0.29,
3.213,0.74,-1.29,6.11,3.95,1.86,0.29,
3.214,0.74,-1.29,6.11,3.91,1.83,0.28,
3.214,1.02,-2.28,-0.04,3.91,1.83,0.28,
3.215,1.02,-2.28,-0.04,3.85,1.80,0.27,
3.215,1.02,-2.28,-0.04,3.79,1.77,0.25,
3.215,1.02,-2.28,-0.04,3.68,1.71,0.23,
3.216,1.02,-2.28,-0.04,3.64,1.69,0.22,
3.216,1.02,-2.28,-0.04,3.55,1.64,0.20,
3.219,1.34,-3.12,-4.43,3.55,1.64,0.20,
3.22,1.34,-3.12,-4.43,3.47,1.59,0.17,
3.22,1.34,-3.12,-4.43,3.38,1.53,0.14,
3.22,1.34,-3.12,-4.43,3.23,1.45,0.08,
3.221,1.34,-3.12,-4.43,3.18,1.42,0.06,
3.221,1.34,-3.12,-4.43,3.08,1.37,0.01,
3.222,2.44,-3.44,-6.72,3.08,1.37,0.01,
3.223,2.44,-3.44,-6.72,2.98,1.32,-0.04,
3.225,2.44,-3.44,-6.72,2.87,1.27,-0.10,
3.244,2.44,-3.44,-6.72,2.73,1.21,-0.18,
3.245,2.44,-3.44,-6.72,2.68,1.19,-0.21,
3.245,2.44,-3.44,-6.72,2.58,1.16,-0.26,
3.245,3.56,-3.47,-7.90,2.58,1.16,-0.26,
3.246,3.56,-3.47,-7.90,2.50,1.12,-0.31,
3.246,3.56,-3.47,-7.90,2.42,1.09,-0.36,
3.247,3.56,-3.47,-7.90,2.31,1.04,-0.43,
3.247,3.56,-3.47,-7.90,2.28,1.02,-0.44,
3.247,3.56,-3.47,-7.90,2.23,0.98,-0.48,
3.248,3.52,-3.60,-7.15,2.23,0.98,-0.48,
3.248,3.52,-3.60,-7.15,2.18,0.95,-0.50,
3.248,3.52,-3.60,-7.15,2.14,0.91,-0.52,
3.249,3.52,-3.60,-7.15,2.08,0.85,-0.54,
3.25,3.52,-3.60,-7.15,2.07,0.83,-0.55,
3.252,3.52,-3.60,-7.15,2.04,0.78,-0.55,
3.253,2.69,-3.92,-6.15,2.04,0.78,-0.55,
3.253,2.69,-3.92,-6.15,2.02,0.74,-0.55,
3.255,2.69,-3.92,-6.15,2.01,0.69,-0.55,
3.257,2.69,-3.92,-6.15,1.99,0.62,-0.54,
3.259,2.69,-3.92,-6.15,1.99,0.60,-0.53,
3.268,2.69,-3.92,-6.15,1.99,0.55,-0.52,
3.269,1.75,-4.31,-5.11,1.99,0.55,-0.52,
3.27,1.75,-4.31,-5.11,1.99,0.50,-0.51,
3.27,1.75,-4.31,-5.11,2.00,0.45,-0.49,
3.27,1.75,-4.31,-5.11,2.01,0.38,-0.46,
3.27,1.75,-4.31,-5.11,2.02,0.36,-0.46,
3.271,1.75,-4.31,-5.11,2.03,0.31,-0.43,
3.272,0.96,-4.79,-4.56,2.03,0.31,-0.43,
3.272,0.96,-4.79,-4.56,2.05,0.26,-0.41,
3.275,0.96,-4.79,-4.56,2.06,0.21,-0.39,
3.278,0.96,-4.79,-4.56,2.09,0.14,-0.35,
3.279,0.96,-4.79,-4.56,2.10,0.12,-0.34,
3.281,0.96,-4.79,-4.56,2.12,0.07,-0.32,
3.283,0.31,-5.34,-4.22,2.12,0.07,-0.32,
3.283,0.31,-5.34,-4.22,2.14,0.02,-0.30,
3.284,0.31,-5.34,-4.22,2.15,-0.03,-0.28,
3.287,0.31,-5.34,-4.22,2.18,-0.12,-0.25,
3.288,0.31,-5.34,-4.22,2.19,-0.15,-0.24,
3.306,0.31,-5.34,-4.22,2.20,-0.22,-0.22,
3.307,-0.12,-5.83,-4.28,2.20,-0.22,-0.22,
3.307,-0.12,-5.83,-4.28,2.22,-0.28,-0.21,
3.307,-0.12,-5.83,-4.28,2.24,-0.35,-0.19,
3.308,-0.12,-5.83,-4.28,2.26,-0.46,-0.16,
3.308,-0.12,-5.83,-4.28,2.27,-0.50,-0.16,
3.308,-0.12,-5.83,-4.28,2.28,-0.57,-0.14,
3.309,-0.72,-5.97,-4.18,2.28,-0.57,-0.14,
3.309,-0.72,-5.97,-4.18,2.29,-0.64,-0.12,
3.309,-0.72,-5.97,-4.18,2.32,-0.71,-0.10,
3.309,-0.72,-5.97,-4.18,2.46,-0.75,-0.06,
3.31,-0.72,-5.97,-4.18,2.55,-0.74,-0.05,
3.325,-0.72,-5.97,-4.18,2.76,-0.70,-0.02,
3.326,-1.61,-6.33,1.40,2.76,-0.70,-0.02,
3.326,-1.61,-6.33,1.40,2.96,-0.64,0.02,
3.326,-1.61,-6.33,1.40,3.17,-0.56,0.06,
3.326,-1.61,-6.33,1.40,3.46,-0.41,0.12,
3.327,-1.61,-6.33,1.40,3.55,-0.35,0.15,
3.327,-1.61,-6.33,1.40,3.71,-0.24,0.19,
3.327,-2.50,-6.51,4.18,3.71,-0.24,0.19,
3.327,-2.50,-6.51,4.18,3.84,-0.12,0.24,
3.328,-2.50,-6.51,4.18,3.95,-0.01,0.29,
3.328,-2.50,-6.51,4.18,4.06,0.16,0.35,
3.328,-2.50,-6.51,4.18,4.08,0.21,0.37,
3.33,-2.50,-6.51,4.18,4.11,0.31,0.41,
3.334,-2.54,-5.49,1.18,4.11,0.31,0.41,
3.334,-2.54,-5.49,1.18,4.11,0.39,0.45,
3.335,-2.54,-5.49,1.18,4.10,0.47,0.48,
3.341,-2.54,-5.49,1.18,4.03,0.58,0.52,
3.347,-2.54,-5.49,1.18,3.99,0.62,0.53,
3.347,-2.54,-5.49,1.18,3.91,0.68,0.55,
3.347,-2.03,-4.03,-2.22,3.91,0.68,0.55,
3.348,-2.03,-4.03,-2.22,3.82,0.75,0.57,
3.348,-2.03,-4.03,-2.22,3.71,0.81,0.58,
3.348,-2.03,-4.03,-2.22,3.52,0.90,0.58,
3.348,-2.03,-4.03,-2.22,3.45,0.93,0.57,
3.351,-2.03,-4.03,-2.22,3.31,0.99,0.56,
3.353,-1.08,-2.65,-4.59,3.31,0.99,0.56,
3.353,-1.08,-2.65,-4.59,3.17,1.06,0.54,
3.354,-1.08,-2.65,-4.59,3.02,1.12,0.52,
3.36,-1.08,-2.65,-4.59,2.79,1.21,0.48,
3.361,-1.08,-2.65,-4.59,2.71,1.25,0.46,
3.364,-1.08,-2.65,-4.59,2.55,1.31,0.42,
3.364,-0.03,-1.61,-5.74,2.55,1.31,0.42,
3.365,-0.03,-1.61,-5.74,2.40,1.37,0.38,
3.365,-0.03,-1.61,-5.74,2.24,1.41,0.34,
3.368,-0.03,-1.61,-5.74,2.02,1.47,0.28,
3.368,-0.03,-1.61,-5.74,1.95,1.48,0.25,
3.37,-0.03,-1.61,-5.74,1.81,1.49,0.21,
3.373,0.53,-0.81,-6.25,1.81,1.49,0.21,
3.374,0.53,-0.81,-6.25,1.68,1.49,0.17,
3.374,0.53,-0.81,-6.25,1.56,1.49,0.13,
3.377,0.53,-0.81,-6.25,1.40,1.45,0.08,
3.378,0.53,-0.81,-6.25,1.35,1.44,0.06,
3.38,0.53,-0.81,-6.25,1.25,1.40,0.02,
3.382,0.72,-0.00,-5.44,1.25,1.40,0.02,
3.382,0.72,-0.00,-5.44,1.18,1.34,-0.02,
3.384,0.72,-0.00,-5.44,1.11,1.28,-0.06,
3.387,0.72,-0.00,-5.44,1.04,1.16,-0.11,
3.388,0.72,-0.00,-5.44,1.02,1.11,-0.13,
3.39,0.72,-0.00,-5.44,0.99,1.02,-0.16,
3.393,0.81,0.71,-4.09,0.99,1.02,-0.16,
3.393,0.81,0.71,-4.09,0.97,0.91,-0.19,
3.395,0.81,0.71,-4.09,0.96,0.80,-0.21,
3.397,0.81,0.71,-4.09,0.95,0.64,-0.25,
3.398,0.81,0.71,-4.09,0.96,0.58,-0.25,
3.401,0.81,0.71,-4.09,0.97,0.41,-0.28,
3.403,0.47,1.42,-3.10,0.97,0.41,-0.28,
3.403,0.47,1.42,-3.10,0.98,0.36,-0.28,
3.404,0.47,1.42,-3.10,1.00,0.25,-0.29,
3.407,0.47,1.42,-3.10,1.02,0.10,-0.29,
3.409,0.47,1.42,-3.10,1.03,0.05,-0.29,
3.41,0.47,1.42,-3.10,1.05,-0.03,-0.29,
3.413,-0.26,1.92,-3.41,1.05,-0.03,-0.29,
3.413,-0.26,1.92,-3.41,1.07,-0.10,-0.28,
3.414,-0.26,1.92,-3.41,1.08,-0.16,-0.27,
3.417,-0.26,1.92,-3.41,1.10,-0.22,-0.25,
3.418,-0.26,1.92,-3.41,1.11,-0.24,-0.24,
3.42,-0.26,1.92,-3.41,1.12,-0.27,-0.23,
3.423,-0.72,2.52,-4.23,1.12,-0.27,-0.23,
3.423,-0.72,2.52,-4.23,1.13,-0.28,-0.21,
3.424,-0.72,2.52,-4.23,1.13,-0.29,-0.20,
3.432,-0.72,2.52,-4.23,1.13,-0.28,-0.19,
3.433,-0.72,2.52,-4.23,1.13,-0.28,-0.18,
3.433,-0.72,2.52,-4.23,1.12,-0.27,-0.17,
3.433,-0.77,3.10,-5.45,1.12,-0.27,-0.17,
3.433,-0.77,3.10,-5.45,1.11,-0.25,-0.16,
3.434,-0.77,3.10,-5.45,1.10,-0.23,-0.16,
3.437,-0.77,3.10,-5.45,1.08,-0.20,-0.15,
3.438,-0.77,3.10,-5.45,1.07,-0.19,-0.14,
3.44,-0.77,3.10,-5.45,1.06,-0.17,-0.14,
3.454,-0.62,3.71,-6.05,1.06,-0.17,-0.14,
3.455,-0.62,3.71,-6.05,1.04,-0.16,-0.13,
3.455,-0.62,3.71,-6.05,1.02,-0.14,-0.13,
3.455,-0.62,3.71,-6.05,0.98,-0.12,-0.12,
3.455,-0.62,3.71,-6.05,0.97,-0.11,-0.11,
3.455,-0.62,3.71,-6.05,0.95,-0.09,-0.11,
3.455,-0.69,4.13,-6.43,0.95,-0.09,-0.11,
3.455,-0.69,4.13,-6.43,0.93,-0.08,-0.10,
3.455,-0.69,4.13,-6.43,0.91,-0.05,-0.10,
3.465,-0.69,4.13,-6.43,0.88,-0.01,-0.09,
3.466,-0.69,4.13,-6.43,0.87,0.01,-0.09,
3.466,-0.69,4.13,-6.43,0.85,0.04,-0.08,
3.466,-0.55,4.52,-6.30,0.85,0.04,-0.08,
3.466,-0.55,4.52,-6.30,0.82,0.09,-0.08,
3.466,-0.55,4.52,-6.30,0.80,0.14,-0.08,
3.468,-0.55,4.52,-6.30,0.76,0.21,-0.07,
3.468,-0.55,4.52,-6.30,0.74,0.24,-0.07,
3.47,-0.55,4.52,-6.30,0.71,0.30,-0.07,
3.473,-0.38,4.74,-6.72,0.71,0.30,-0.07,
3.473,-0.38,4.74,-6.72,0.67,0.35,-0.07,
3.474,-0.38,4.74,-6.72,0.62,0.40,-0.07,
3.481,-0.38,4.74,-6.72,0.55,0.48,-0.07,
3.481,-0.38,4.74,-6.72,0.53,0.51,-0.08,
3.481,-0.38,4.74,-6.72,0.48,0.56,-0.08,
3.482,-0.08,5.03,-7.00,0.48,0.56,-0.08,
3.483,-0.08,5.03,-7.00,0.43,0.61,-0.08,
3.484,-0.08,5.03,-7.00,0.37,0.66,-0.09,
3.487,-0.08,5.03,-7.00,0.28,0.74,-0.10,
3.488,-0.08,5.03,-7.00,0.25,0.77,-0.10,
3.49,-0.08,5.03,-7.00,0.19,0.82,-0.11,
3.495,0.09,5.12,-7.50,0.19,0.82,-0.11,
3.495,0.09,5.12,-7.50,0.13,0.88,-0.12,
3.495,0.09,5.12,-7.50,0.07,0.93,-0.12,
3.497,0.09,5.12,-7.50,-0.03,1.01,-0.13,
3.498,0.09,5.12,-7.50,-0.06,1.03,-0.14,
3.5,0.09,5.12,-7.50,-0.12,1.08,-0.14,
3.502,0.17,5.22,-7.43,-0.12,1.08,-0.14,
3.503,0.17,5.22,-7.43,-0.19,1.12,-0.14,
3.504,0.17,5.22,-7.43,-0.26,1.15,-0.15,
3.507,0.17,5.22,-7.43,-0.37,1.19,-0.15,
3.51,0.17,5.22,-7.43,-0.40,1.20,-0.16,
3.51,0.17,5.22,-7.43,-0.47,1.21,-0.16,
3.512,0.11,5.21,-7.53,-0.47,1.21,-0.16,
3.513,0.11,5.21,-7.53,-0.55,1.22,-0.16,
3.519,0.11,5.21,-7.53,-0.77,1.21,-0.18,
3.519,0.11,5.21,-7.53,-0.77,1.21,-0.18,
3.52,0.11,5.21,-7.53,-0.77,1.21,-0.18,
3.521,0.11,5.21,-7.53,-0.85,1.20,-0.18,
3.523,0.11,5.40,-7.14,-0.85,1.20,-0.18,
3.523,0.11,5.40,-7.14,-0.93,1.19,-0.19,
3.525,0.11,5.40,-7.14,-1.00,1.18,-0.19,
3.527,0.11,5.40,-7.14,-1.12,1.14,-0.20,
3.528,0.11,5.40,-7.14,-1.16,1.13,-0.20,
3.53,0.11,5.40,-7.14,-1.24,1.11,-0.20,
3.532,0.01,5.60,-6.98,-1.24,1.11,-0.20,
3.533,0.01,5.60,-6.98,-1.32,1.08,-0.20,
3.534,0.01,5.60,-6.98,-1.40,1.05,-0.20,
3.537,0.01,5.60,-6.98,-1.53,1.00,-0.21,
3.538,0.01,5.60,-6.98,-1.57,0.98,-0.21,
3.54,0.01,5.60,-6.98,-1.65,0.95,-0.21,
3.542,-0.09,5.88,-6.47,-1.65,0.95,-0.21,
3.543,-0.09,5.88,-6.47,-1.73,0.91,-0.21,
3.545,-0.09,5.88,-6.47,-1.81,0.87,-0.21,
3.547,-0.09,5.88,-6.47,-1.93,0.81,-0.20,
3.549,-0.09,5.88,-6.47,-1.97,0.79,-0.20,
3.55,-0.09,5.88,-6.47,-2.05,0.75,-0.20,
3.552,-0.26,6.01,-5.97,-2.05,0.75,-0.20,
3.552,-0.26,6.01,-5.97,-2.13,0.71,-0.20,
3.554,-0.26,6.01,-5.97,-2.20,0.67,-0.19,
3.557,-0.26,6.01,-5.97,-2.31,0.61,-0.19,
3.57,-0.26,6.01,-5.97,-2.35,0.59,-0.18,
3.571,-0.26,6.01,-5.97,-2.41,0.56,-0.18,
3.571,-0.37,5.92,-5.01,-2.41,0.56,-0.18,
3.571,-0.37,5.92,-5.01,-2.48,0.53,-0.18,
3.572,-0.37,5.92,-5.01,-2.54,0.51,-0.18,
3.572,-0.37,5.92,-5.01,-2.64,0.48,-0.18,
3.572,-0.37,5.92,-5.01,-2.67,0.47,-0.18,
3.573,-0.37,5.92,-5.01,-2.73,0.44,-0.19,
3.575,-0.35,5.33,-4.10,-2.73,0.44,-0.19,
3.575,-0.35,5.33,-4.10,-2.78,0.42,-0.19,
3.575,-0.35,5.33,-4.10,-2.84,0.41,-0.20,
3.577,-0.35,5.33,-4.10,-2.92,0.39,-0.22,
3.579,-0.35,5.33,-4.10,-2.94,0.38,-0.22,
3.58,-0.35,5.33,-4.10,-2.99,0.36,-0.23,
3.582,-0.03,4.16,-2.57,-2.99,0.36,-0.23,
3.583,-0.03,4.16,-2.57,-3.05,0.34,-0.24,
3.584,-0.03,4.16,-2.57,-3.10,0.31,-0.25,
3.587,-0.03,4.16,-2.57,-3.19,0.26,-0.26,
3.589,-0.03,4.16,-2.57,-3.22,0.24,-0.26,
3.59,-0.03,4.16,-2.57,-3.28,0.20,-0.27,
3.594,0.52,2.31,-0.39,-3.28,0.20,-0.27,
3.595,0.52,2.31,-0.39,-3.34,0.16,-0.28,
3.596,0.52,2.31,-0.39,-3.39,0.10,-0.29,
3.597,0.52,2.31,-0.39,-3.44,0.02,-0.31,
3.598,0.52,2.31,-0.39,-3.43,-0.01,-0.33,
3.6,0.52,2.31,-0.39,-3.39,-0.08,-0.36,
3.602,2.05,-0.71,6.33,-3.39,-0.08,-0.36,
3.603,2.05,-0.71,6.33,-3.28,-0.15,-0.40,
3.604,2.05,-0.71,6.33,-3.12,-0.24,-0.46,
3.608,2.05,-0.71,6.33,-2.77,-0.43,-0.54,
3.609,2.05,-0.71,6.33,-2.62,-0.51,-0.58,
3.613,2.05,-0.71,6.33,-2.29,-0.71,-0.64,
3.613,4.23,-5.50,21.80,-2.29,-0.71,-0.64,
3.614,4.23,-5.50,21.80,-1.90,-0.93,-0.71,
3.615,4.23,-5.50,21.80,-1.45,-1.17,-0.76,
3.617,4.23,-5.50,21.80,-0.69,-1.60,-0.83,
3.619,4.23,-5.50,21.80,-0.41,-1.74,-0.85,
3.62,4.23,-5.50,21.80,0.16,-2.00,-0.87,
3.622,3.62,-11.93,38.08,0.16,-2.00,-0.87,
3.65,3.62,-11.93,38.08,0.70,-2.16,-0.85,
3.65,3.62,-11.93,38.08,1.19,-2.22,-0.81,
3.651,3.62,-11.93,38.08,1.78,-2.13,-0.68,
3.651,3.62,-11.93,38.08,1.94,-2.07,-0.63,
3.651,3.62,-11.93,38.08,2.20,-1.90,-0.52,
3.652,-0.71,-15.62,35.82,2.20,-1.90,-0.52,
3.653,-0.71,-15.62,35.82,2.37,-1.71,-0.41,
3.653,-0.71,-15.62,35.82,2.47,-1.48,-0.32,
3.654,-0.71,-15.62,35.82,2.50,-1.10,-0.20,
3.654,-0.71,-15.62,35.82,2.48,-0.96,-0.17,
3.654,-0.71,-15.62,35.82,2.42,-0.66,-0.13,
3.655,-1.02,-12.55,20.91,2.42,-0.66,-0.13,
3.656,-1.02,-12.55,20.91,2.32,-0.33,-0.11,
3.656,-1.02,-12.55,20.91,2.19,0.00,-0.10,
3.657,-1.02,-12.55,20.91,1.95,0.50,-0.12,
3.657,-1.02,-12.55,20.91,1.87,0.67,-0.13,
3.657,-1.02,-12.55,20.91,1.69,0.98,-0.17,
3.658,0.52,-8.14,9.66,1.69,0.98,-0.17,
3.659,0.52,-8.14,9.66,1.51,1.28,-0.22,
3.66,0.52,-8.14,9.66,1.33,1.56,-0.27,
3.662,0.52,-8.14,9.66,1.06,1.92,-0.36,
3.662,0.52,-8.14,9.66,0.97,2.02,-0.40,
3.662,0.52,-8.14,9.66,0.80,2.18,-0.46,
3.663,0.98,-4.54,4.51,0.80,2.18,-0.46,
3.663,0.98,-4.54,4.51,0.62,2.30,-0.53,
3.668,0.98,-4.54,4.51,0.45,2.37,-0.60,
3.668,0.98,-4.54,4.51,0.21,2.40,-0.71,
3.669,0.98,-4.54,4.51,0.14,2.39,-0.74,
3.67,0.98,-4.54,4.51,-0.01,2.35,-0.80,
3.674,0.71,-0.29,3.09,-0.01,2.35,-0.80,
3.675,0.71,-0.29,3.09,-0.13,2.26,-0.85,
3.675,0.71,-0.29,3.09,-0.24,2.14,-0.90,
3.677,0.71,-0.29,3.09,-0.36,1.91,-0.95,
3.678,0.71,-0.29,3.09,-0.39,1.82,-0.96,
3.682,0.71,-0.29,3.09,-0.43,1.63,-0.97,
3.688,-0.49,3.04,3.59,-0.43,1.63,-0.97,
3.688,-0.49,3.04,3.59,-0.45,1.43,-0.97,
3.688,-0.49,3.04,3.59,-0.45,1.23,-0.96,
3.689,-0.49,3.04,3.59,-0.40,0.94,-0.91,
3.689,-0.49,3.04,3.59,-0.37,0.85,-0.89,
3.692,-0.49,3.04,3.59,-0.31,0.67,-0.83,
3.695,-2.29,4.32,4.23,-0.31,0.67,-0.83,
3.696,-2.29,4.32,4.23,-0.22,0.51,-0.77,
3.696,-2.29,4.32,4.23,-0.12,0.37,-0.69,
3.699,-2.29,4.32,4.23,0.05,0.19,-0.55,
3.7,-2.29,4.32,4.23,0.11,0.13,-0.50,
3.7,-2.29,4.32,4.23,0.24,0.04,-0.38,
3.704,-4.14,3.35,3.96,0.24,0.04,-0.38,
3.704,-4.14,3.35,3.96,0.37,-0.04,-0.26,
3.704,-4.14,3.35,3.96,0.50,-0.11,-0.13,
3.715,-4.14,3.35,3.96,0.67,-0.22,0.07,
3.715,-4.14,3.35,3.96,0.72,-0.27,0.14,
3.715,-4.14,3.35,3.96,0.80,-0.36,0.27,
3.722,-5.09,-0.61,1.42,0.80,-0.36,0.27,
3.723,-5.09,-0.61,1.42,0.86,-0.46,0.41,
3.723,-5.09,-0.61,1.42,0.88,-0.57,0.55,
3.723,-5.09,-0.61,1.42,0.85,-0.76,0.75,
3.723,-5.09,-0.61,1.42,0.82,-0.83,0.82,
3.723,-5.09,-0.61,1.42,0.75,-0.98,0.95,
3.75,-5.22,-5.19,-7.09,0.75,-0.98,0.95,
3.751,-5.22,-5.19,-7.09,0.66,-1.13,1.07,
3.751,-5.22,-5.19,-7.09,0.57,-1.29,1.19,
3.751,-5.22,-5.19,-7.09,0.44,-1.53,1.34,
3.751,-5.22,-5.19,-7.09,0.41,-1.61,1.38,
3.751,-5.22,-5.19,-7.09,0.34,-1.76,1.45,
3.752,-4.08,-6.92,-13.16,0.34,-1.76,1.45,
3.752,-4.08,-6.92,-13.16,0.29,-1.90,1.51,
3.752,-4.08,-6.92,-13.16,0.25,-2.02,1.54,
3.753,-4.08,-6.92,-13.16,0.22,-2.18,1.57,
3.753,-4.08,-6.92,-13.16,0.21,-2.23,1.57,
3.753,-4.08,-6.92,-13.16,0.21,-2.30,1.55,
3.753,-2.14,-6.93,-12.18,0.21,-2.30,1.55,
3.754,-2.14,-6.93,-12.18,0.21,-2.35,1.53,
3.755,-2.14,-6.93,-12.18,0.21,-2.37,1.48,
3.755,-2.14,-6.93,-12.18,0.23,-2.38,1.40,
3.756,-2.14,-6.93,-12.18,0.24,-2.37,1.36,
3.756,-2.14,-6.93,-12.18,0.26,-2.32,1.25,
3.756,-0.53,-5.26,-9.25,0.26,-2.32,1.25,
3.756,-0.53,-5.26,-9.25,0.27,-2.30,1.21,
3.757,-0.53,-5.26,-9.25,0.28,-2.26,1.13,
3.759,-0.53,-5.26,-9.25,0.31,-2.20,1.01,
3.76,-0.53,-5.26,-9.25,0.32,-2.18,0.97,
3.76,-0.53,-5.26,-9.25,0.34,-2.13,0.90,
3.764,-0.19,-2.26,-6.15,0.34,-2.13,0.90,
3.764,-0.19,-2.26,-6.15,0.36,-2.08,0.84,
3.764,-0.19,-2.26,-6.15,0.38,-2.02,0.78,
3.768,-0.19,-2.26,-6.15,0.42,-1.92,0.71,
3.768,-0.19,-2.26,-6.15,0.43,-1.88,0.69,
3.772,-0.19,-2.26,-6.15,0.46,-1.79,0.65,
3.773,-0.45,1.17,-3.94,0.46,-1.79,0.65,
3.773,-0.45,1.17,-3.94,0.49,-1.69,0.61,
3.777,-0.45,1.17,-3.94,0.57,-1.54,0.58,
3.781,-0.45,1.17,-3.94,1.00,-1.24,0.56,
3.781,-0.45,1.17,-3.94,1.14,-1.15,0.56,
3.781,-0.45,1.17,-3.94,1.36,-0.97,0.56,
3.784,-0.88,4.81,5.55,1.36,-0.97,0.56,
3.785,-0.88,4.81,5.55,1.53,-0.78,0.56,
3.786,-0.88,4.81,5.55,1.67,-0.61,0.57,
3.789,-0.88,4.81,5.55,1.79,-0.36,0.57,
3.79,-0.88,4.81,5.55,1.81,-0.29,0.57,
3.811,-0.88,4.81,5.55,1.82,-0.15,0.56,
3.811,-0.23,6.22,0.76,1.82,-0.15,0.56,
3.812,-0.23,6.22,0.76,1.80,-0.03,0.56,
3.812,-0.23,6.22,0.76,1.77,0.06,0.55,
3.812,-0.23,6.22,0.76,1.67,0.19,0.55,
3.813,-0.23,6.22,0.76,1.63,0.22,0.54,
3.813,-0.23,6.22,0.76,1.55,0.27,0.54,
3.813,0.90,6.28,-4.31,1.55,0.27,0.54,
3.813,0.90,6.28,-4.31,1.46,0.32,0.52,
3.814,0.90,6.28,-4.31,1.36,0.35,0.51,
3.814,0.90,6.28,-4.31,1.20,0.38,0.47,
3.814,0.90,6.28,-4.31,1.15,0.39,0.45,
3.814,0.90,6.28,-4.31,1.04,0.40,0.41,
3.815,2.39,5.12,-6.84,1.04,0.40,0.41,
3.815,2.39,5.12,-6.84,0.93,0.40,0.37,
3.818,2.39,5.12,-6.84,0.83,0.40,0.33,
3.819,2.39,5.12,-6.84,0.67,0.39,0.25,
3.819,2.39,5.12,-6.84,0.62,0.38,0.22,
3.823,2.39,5.12,-6.84,0.51,0.37,0.16,
3.824,3.42,2.74,-7.56,0.51,0.37,0.16,
3.824,3.42,2.74,-7.56,0.40,0.37,0.09,
3.826,3.42,2.74,-7.56,0.28,0.36,0.03,
3.83,3.42,2.74,-7.56,0.10,0.36,-0.08,
3.83,3.42,2.74,-7.56,0.03,0.36,-0.12,
3.831,3.42,2.74,-7.56,-0.10,0.37,-0.20,
3.836,4.23,-0.61,-8.62,-0.10,0.37,-0.20,
3.837,4.23,-0.61,-8.62,-0.24,0.38,-0.28,
3.837,4.23,-0.61,-8.62,-0.39,0.40,-0.36,
3.838,4.23,-0.61,-8.62,-0.62,0.43,-0.49,
3.838,4.23,-0.61,-8.62,-0.70,0.45,-0.53,
3.841,4.23,-0.61,-8.62,-0.86,0.47,-0.61,
3.843,4.55,-4.52,-9.16,-0.86,0.47,-0.61,
3.843,4.55,-4.52,-9.16,-1.02,0.50,-0.69,
3.846,4.55,-4.52,-9.16,-1.19,0.52,-0.78,
3.847,4.55,-4.52,-9.16,-1.43,0.55,-0.90,
3.851,4.55,-4.52,-9.16,-1.50,0.55,-0.94,
3.851,4.55,-4.52,-9.16,-1.66,0.55,-1.02,
3.854,4.93,-8.22,-8.29,-1.66,0.55,-1.02,
3.854,4.93,-8.22,-8.29,-1.80,0.54,-1.10,
3.854,4.93,-8.22,-8.29,-1.94,0.53,-1.17,
3.859,4.93,-8.22,-8.29,-2.12,0.50,-1.27,
3.859,4.93,-8.22,-8.29,-2.17,0.49,-1.30,
3.872,4.93,-8.22,-8.29,-2.27,0.46,-1.36,
3.872,4.57,-10.08,-6.06,-2.27,0.46,-1.36,
3.873,4.57,-10.08,-6.06,-2.37,0.43,-1.41,
3.873,4.57,-10.08,-6.06,-2.45,0.38,-1.45,
3.873,4.57,-10.08,-6.06,-2.55,0.31,-1.50,
3.873,4.57,-10.08,-6.06,-2.58,0.28,-1.51,
3.874,4.57,-10.08,-6.06,-2.62,0.20,-1.52,
3.874,4.01,-9.30,-2.91,-2.62,0.20,-1.52,
3.875,4.01,-9.30,-2.91,-2.65,0.11,-1.53,
3.91,4.01,-9.30,-2.91,-2.64,0.00,-1.54,
3.911,4.01,-9.30,-2.91,-2.58,-0.22,-1.54,
3.911,4.01,-9.30,-2.91,-2.54,-0.31,-1.54,
3.911,4.01,-9.30,-2.91,-2.43,-0.51,-1.54,
3.912,4.30,-6.45,3.98,-2.43,-0.51,-1.54,
3.912,4.30,-6.45,3.98,-2.28,-0.74,-1.53,
3.912,4.30,-6.45,3.98,-2.11,-0.99,-1.52,
3.912,4.30,-6.45,3.98,-1.83,-1.36,-1.46,
3.912,4.30,-6.45,3.98,-1.73,-1.48,-1.43,
3.913,4.30,-6.45,3.98,-1.55,-1.69,-1.37,
3.913,3.10,-3.12,9.76,-1.55,-1.69,-1.37,
3.913,3.10,-3.12,9.76,-1.37,-1.88,-1.30,
3.913,3.10,-3.12,9.76,-1.21,-2.04,-1.21,
3.913,3.10,-3.12,9.76,-0.99,-2.23,-1.05,
3.914,3.10,-3.12,9.76,-0.93,-2.27,-1.00,
3.914,3.10,-3.12,9.76,-0.82,-2.35,-0.87,
3.914,0.41,-0.82,8.51,-0.82,-2.35,-0.87,
3.914,0.41,-0.82,8.51,-0.73,-2.39,-0.75,
3.914,0.41,-0.82,8.51,-0.67,-2.40,-0.63,
3.915,0.41,-0.82,8.51,-0.62,-2.35,-0.45,
3.915,0.41,-0.82,8.51,-0.61,-2.32,-0.39,
3.915,0.41,-0.82,8.51,-0.61,-2.23,-0.29,
3.916,-1.16,0.41,5.34,-0.61,-2.23,-0.29,
3.917,-1.16,0.41,5.34,-0.63,-2.12,-0.19,
3.917,-1.16,0.41,5.34,-0.67,-1.98,-0.11,
3.917,-1.16,0.41,5.34,-0.76,-1.72,-0.02,
3.918,-1.16,0.41,5.34,-0.80,-1.63,-0.00,
3.922,-1.16,0.41,5.34,-0.88,-1.44,0.03,
3.922,-1.01,0.89,2.40,-0.88,-1.44,0.03,
3.922,-1.01,0.89,2.40,-0.97,-1.24,0.06,
3.924,-1.01,0.89,2.40,-1.06,-1.03,0.07,
3.927,-1.01,0.89,2.40,-1.19,-0.72,0.08,
3.928,-1.01,0.89,2.40,-1.24,-0.62,0.08,
3.93,-1.01,0.89,2.40,-1.32,-0.42,0.08,
3.933,-0.60,1.07,1.00,-1.32,-0.42,0.08,
3.933,-0.60,1.07,1.00,-1.40,-0.23,0.07,
3.934,-0.60,1.07,1.00,-1.48,-0.05,0.07,
3.937,-0.60,1.07,1.00,-1.58,0.22,0.06,
3.938,-0.60,1.07,1.00,-1.61,0.30,0.06,
3.94,-0.60,1.07,1.00,-1.66,0.46,0.06,
3.943,-0.58,1.08,0.67,-1.66,0.46,0.06,
3.943,-0.58,1.08,0.67,-1.71,0.61,0.06,
3.944,-0.58,1.08,0.67,-1.74,0.75,0.06,
3.947,-0.58,1.08,0.67,-1.78,0.94,0.06,
3.948,-0.58,1.08,0.67,-1.79,1.00,0.06,
3.95,-0.58,1.08,0.67,-1.80,1.12,0.07,
3.955,-0.68,1.15,1.02,-1.80,1.12,0.07,
3.955,-0.68,1.15,1.02,-1.80,1.22,0.07,
3.956,-0.68,1.15,1.02,-1.79,1.32,0.07,
3.967,-0.68,1.15,1.02,-1.76,1.45,0.08,
3.967,-0.68,1.15,1.02,-1.75,1.49,0.08,
3.968,-0.68,1.15,1.02,-1.72,1.56,0.08,
3.968,-0.44,1.41,1.51,-1.72,1.56,0.08,
3.968,-0.44,1.41,1.51,-1.68,1.63,0.08,
3.968,-0.44,1.41,1.51,-1.64,1.69,0.08,
3.968,-0.44,1.41,1.51,-1.57,1.75,0.08,
3.97,-0.44,1.41,1.51,-1.54,1.77,0.08,
3.971,-0.44,1.41,1.51,-1.49,1.80,0.07,
3.974,0.00,1.84,1.94,-1.49,1.80,0.07,
3.974,0.00,1.84,1.94,-1.43,1.81,0.07,
3.975,0.00,1.84,1.94,-1.38,1.81,0.06,
3.979,0.00,1.84,1.94,-1.29,1.79,0.05,
3.979,0.00,1.84,1.94,-1.26,1.77,0.05,
3.981,0.00,1.84,1.94,-1.19,1.74,0.04,
3.982,0.35,2.34,2.10,-1.19,1.74,0.04,
3.983,0.35,2.34,2.10,-1.13,1.70,0.03,
3.984,0.35,2.34,2.10,-1.07,1.66,0.03,
3.987,0.35,2.34,2.10,-0.98,1.58,0.02,
3.988,0.35,2.34,2.10,-0.96,1.55,0.01,
3.995,0.35,2.34,2.10,-0.90,1.48,0.01,
3.995,0.48,2.91,2.31,-0.90,1.48,0.01,
3.996,0.48,2.91,2.31,-0.85,1.41,0.01,
3.996,0.48,2.91,2.31,-0.79,1.34,0.01,
3.997,0.48,2.91,2.31,-0.71,1.21,0.01,
3.998,0.48,2.91,2.31,-0.69,1.17,0.00,
4.005,0.48,2.91,2.31,-0.63,1.08,0.00,
4.005,0.56,3.45,2.87,-0.63,1.08,0.00,
4.006,0.56,3.45,2.87,-0.59,0.98,-0.00,
4.006,0.56,3.45,2.87,-0.54,0.89,-0.00,
4.025,0.56,3.45,2.87,-0.47,0.73,-0.01,
4.025,0.56,3.45,2.87,-0.44,0.68,-0.01,
4.025,0.56,3.45,2.87,-0.40,0.56,-0.01,
4.025,1.07,3.77,4.41,-0.40,0.56,-0.01,
4.026,1.07,3.77,4.41,-0.35,0.45,-0.02,
4.026,1.07,3.77,4.41,-0.30,0.32,-0.03,
4.026,1.07,3.77,4.41,-0.22,0.12,-0.04,
4.026,1.07,3.77,4.41,-0.20,0.05,-0.04,
4.026,1.07,3.77,4.41,-0.14,-0.09,-0.06,
4.026,1.95,3.23,6.01,-0.14,-0.09,-0.06,
4.026,1.95,3.23,6.01,-0.09,-0.23,-0.06,
4.026,1.95,3.23,6.01,-0.04,-0.37,-0.08,
4.027,1.95,3.23,6.01,0.05,-0.58,-0.10,
4.03,1.95,3.23,6.01,0.08,-0.65,-0.10,
4.03,1.95,3.23,6.01,0.14,-0.79,-0.11,
4.033,2.69,2.30,7.65,0.14,-0.79,-0.11,
4.033,2.69,2.30,7.65,0.19,-0.92,-0.13,
4.036,2.69,2.30,7.65,0.26,-1.04,-0.14,
4.039,2.69,2.30,7.65,0.35,-1.22,-0.16,
4.039,2.69,2.30,7.65,0.38,-1.27,-0.16,
4.041,2.69,2.30,7.65,0.44,-1.37,-0.17,
4.042,2.62,1.65,8.32,0.44,-1.37,-0.17,
4.043,2.62,1.65,8.32,0.50,-1.46,-0.18,
4.044,2.62,1.65,8.32,0.55,-1.54,-0.19,
4.047,2.62,1.65,8.32,0.63,-1.64,-0.20,
4.048,2.62,1.65,8.32,0.65,-1.66,-0.20,
4.051,2.62,1.65,8.32,0.70,-1.70,-0.19,
4.052,1.68,1.43,8.28,0.70,-1.70,-0.19,
4.053,1.68,1.43,8.28,0.74,-1.72,-0.19,
4.054,1.68,1.43,8.28,0.79,-1.72,-0.18,
4.058,1.68,1.43,8.28,0.85,-1.69,-0.16,
4.058,1.68,1.43,8.28,0.87,-1.67,-0.16,
4.061,1.68,1.43,8.28,0.90,-1.62,-0.13,
4.063,-0.07,1.66,7.27,0.90,-1.62,-0.13,
4.063,-0.07,1.66,7.27,0.94,-1.54,-0.11,
4.064,-0.07,1.66,7.27,0.97,-1.44,-0.08,
4.067,-0.07,1.66,7.27,1.00,-1.25,-0.04,
4.068,-0.07,1.66,7.27,1.01,-1.17,-0.03,
4.07,-0.07,1.66,7.27,1.02,-1.01,0.01,
4.072,-2.09,2.21,5.34,1.02,-1.01,0.01,
4.073,-2.09,2.21,5.34,1.02,-0.83,0.04,
4.075,-2.09,2.21,5.34,1.00,-0.63,0.07,
4.077,-2.09,2.21,5.34,0.95,-0.32,0.10,
4.078,-2.09,2.21,5.34,0.93,-0.21,0.12,
4.08,-2.09,2.21,5.34,0.88,0.00,0.13,
4.082,-3.14,2.43,1.58,0.88,0.00,0.13,
4.083,-3.14,2.43,1.58,0.82,0.21,0.14,
4.085,-3.14,2.43,1.58,0.74,0.41,0.15,
4.087,-3.14,2.43,1.58,0.63,0.69,0.15,
4.088,-3.14,2.43,1.58,0.59,0.77,0.15,
4.09,-3.14,2.43,1.58,0.51,0.92,0.15,
4.093,-3.29,2.29,-1.39,0.51,0.92,0.15,
4.093,-3.29,2.29,-1.39,0.43,1.06,0.15,
4.094,-3.29,2.29,-1.39,0.37,1.17,0.15,
4.097,-3.29,2.29,-1.39,0.27,1.30,0.14,
4.098,-3.29,2.29,-1.39,0.24,1.34,0.14,
4.103,-3.29,2.29,-1.39,0.17,1.41,0.15,
4.104,-3.02,2.13,-1.91,0.17,1.41,0.15,
4.104,-3.02,2.13,-1.91,0.15,1.43,0.15,
4.104,-3.02,2.13,-1.91,0.12,1.44,0.15,
4.109,-3.02,2.13,-1.91,0.08,1.43,0.15,
4.109,-3.02,2.13,-1.91,0.08,1.41,0.15,
4.112,-3.02,2.13,-1.91,0.07,1.37,0.16,
4.113,-2.68,2.45,-1.46,0.07,1.37,0.16,
4.113,-2.68,2.45,-1.46,0.06,1.32,0.16,
4.116,-2.68,2.45,-1.46,0.07,1.25,0.17,
4.117,-2.68,2.45,-1.46,0.10,1.13,0.17,
4.118,-2.68,2.45,-1.46,0.11,1.09,0.17,
4.121,-2.68,2.45,-1.46,0.15,1.00,0.18,
4.123,-1.88,3.46,-0.61,0.15,1.00,0.18,
4.146,-1.88,3.46,-0.61,0.19,0.91,0.18,
4.146,-1.88,3.46,-0.61,0.25,0.81,0.19,
4.147,-1.88,3.46,-0.61,0.34,0.67,0.20,
4.147,-1.88,3.46,-0.61,0.37,0.62,0.20,
4.147,-1.88,3.46,-0.61,0.43,0.52,0.21,
4.148,-0.97,4.86,0.25,0.43,0.52,0.21,
4.148,-0.97,4.86,0.25,0.50,0.43,0.22,
4.149,-0.97,4.86,0.25,0.56,0.34,0.23,
4.149,-0.97,4.86,0.25,0.65,0.21,0.24,
4.149,-0.97,4.86,0.25,0.68,0.17,0.24,
4.15,-0.97,4.86,0.25,0.73,0.09,0.25,
4.15,0.15,5.94,0.00,0.73,0.09,0.25,
4.151,0.15,5.94,0.00,0.77,0.01,0.24,
4.151,0.15,5.94,0.00,0.81,-0.07,0.24,
4.152,0.15,5.94,0.00,0.87,-0.18,0.23,
4.152,0.15,5.94,0.00,0.88,-0.22,0.23,
4.152,0.15,5.94,0.00,0.91,-0.29,0.22,
4.153,1.35,6.75,-0.47,0.91,-0.29,0.22,
4.153,1.35,6.75,-0.47,0.93,-0.37,0.20,
4.158,1.35,6.75,-0.47,0.95,-0.45,0.18,
4.158,1.35,6.75,-0.47,0.98,-0.58,0.15,
4.159,1.35,6.75,-0.47,0.99,-0.63,0.14,
4.168,1.35,6.75,-0.47,1.00,-0.73,0.11,
4.169,2.33,7.30,-0.06,1.00,-0.73,0.11,
4.169,2.33,7.30,-0.06,1.01,-0.83,0.08,
4.169,2.33,7.30,-0.06,1.01,-0.93,0.04,
4.169,2.33,7.30,-0.06,1.00,-1.08,-0.01,
4.17,2.33,7.30,-0.06,0.99,-1.14,-0.02,
4.171,2.33,7.30,-0.06,0.96,-1.24,-0.05,
4.194,3.78,6.64,0.52,0.96,-1.24,-0.05,
4.195,3.78,6.64,0.52,0.93,-1.34,-0.08,
4.195,3.78,6.64,0.52,0.88,-1.44,-0.10,
4.196,3.78,6.64,0.52,0.79,-1.57,-0.12,
4.196,3.78,6.64,0.52,0.75,-1.60,-0.12,
4.196,3.78,6.64,0.52,0.68,-1.66,-0.13,
4.196,3.71,4.35,-0.50,0.68,-1.66,-0.13,
4.196,3.71,4.35,-0.50,0.60,-1.70,-0.14,
4.197,3.71,4.35,-0.50,0.52,-1.72,-0.14,
4.197,3.71,4.35,-0.50,0.41,-1.72,-0.14,
4.197,3.71,4.35,-0.50,0.37,-1.72,-0.14,
4.197,3.71,4.35,-0.50,0.30,-1.69,-0.13,
4.198,3.21,2.43,-1.98,0.30,-1.69,-0.13,
4.198,3.21,2.43,-1.98,0.23,-1.66,-0.13,
4.198,3.21,2.43,-1.98,0.18,-1.61,-0.13,
4.198,3.21,2.43,-1.98,0.11,-1.52,-0.12,
4.198,3.21,2.43,-1.98,0.09,-1.49,-0.11,
4.201,3.21,2.43,-1.98,0.07,-1.42,-0.11,
4.202,2.68,1.18,-1.91,0.07,-1.42,-0.11,
4.203,2.68,1.18,-1.91,0.06,-1.34,-0.10,
4.204,2.68,1.18,-1.91,0.06,-1.27,-0.10,
4.208,2.68,1.18,-1.91,0.09,-1.15,-0.09,
4.209,2.68,1.18,-1.91,0.11,-1.11,-0.08,
4.21,2.68,1.18,-1.91,0.16,-1.03,-0.08,
4.213,2.60,0.43,0.05,0.16,-1.03,-0.08,
4.213,2.60,0.43,0.05,0.22,-0.95,-0.07,
4.214,2.60,0.43,0.05,0.29,-0.86,-0.07,
4.218,2.60,0.43,0.05,0.40,-0.74,-0.06,
4.218,2.60,0.43,0.05,0.44,-0.70,-0.06,
4.221,2.60,0.43,0.05,0.52,-0.62,-0.05,
4.223,2.53,0.23,2.18,0.52,-0.62,-0.05,
4.223,2.53,0.23,2.18,0.59,-0.53,-0.03,
4.225,2.53,0.23,2.18,0.66,-0.44,-0.02,
4.229,2.53,0.23,2.18,0.73,-0.29,0.01,
4.232,2.53,0.23,2.18,0.75,-0.24,0.03,
4.232,2.53,0.23,2.18,0.78,-0.14,0.05,
4.233,1.44,0.57,1.76,0.78,-0.14,0.05,
4.233,1.44,0.57,1.76,0.81,0.03,0.10,
4.234,1.44,0.57,1.76,0.81,0.09,0.12,
4.238,1.44,0.57,1.76,0.81,0.26,0.17,
4.241,1.44,0.57,1.76,0.80,0.31,0.19,
4.241,1.44,0.57,1.76,0.80,0.41,0.23,
4.244,-0.12,0.91,0.51,0.80,0.41,0.23,
4.244,-0.12,0.91,0.51,0.80,0.50,0.27,
4.245,-0.12,0.91,0.51,0.80,0.58,0.31,
4.248,-0.12,0.91,0.51,0.82,0.69,0.36,
4.249,-0.12,0.91,0.51,0.82,0.72,0.38,
4.251,-0.12,0.91,0.51,0.84,0.78,0.41,
4.253,-1.00,0.75,1.19,0.84,0.78,0.41,
4.254,-1.00,0.75,1.19,0.87,0.84,0.44,
4.255,-1.00,0.75,1.19,0.90,0.88,0.47,
4.258,-1.00,0.75,1.19,0.95,0.94,0.50,
4.259,-1.00,0.75,1.19,0.97,0.95,0.51,
4.264,-1.00,0.75,1.19,1.02,0.96,0.53,
4.266,-1.24,-0.15,2.54,1.02,0.96,0.53,
4.266,-1.24,-0.15,2.54,1.07,0.97,0.55,
4.266,-1.24,-0.15,2.54,1.12,0.97,0.56,
4.268,-1.24,-0.15,2.54,1.19,0.94,0.57,
4.269,-1.24,-0.15,2.54,1.22,0.93,0.58,
4.271,-1.24,-0.15,2.54,1.26,0.90,0.58,
4.278,-1.16,-1.53,3.48,1.26,0.90,0.58,
4.278,-1.16,-1.53,3.48,1.31,0.86,0.59,
4.279,-1.16,-1.53,3.48,1.35,0.81,0.59,
4.279,-1.16,-1.53,3.48,1.41,0.73,0.59,
4.279,-1.16,-1.53,3.48,1.43,0.70,0.59,
4.281,-1.16,-1.53,3.48,1.46,0.63,0.59,
4.285,-1.02,-3.01,3.04,1.46,0.63,0.59,
4.286,-1.02,-3.01,3.04,1.49,0.57,0.58,
4.286,-1.02,-3.01,3.04,1.53,0.50,0.58,
4.288,-1.02,-3.01,3.04,1.59,0.38,0.57,
4.299,-1.02,-3.01,3.04,1.62,0.35,0.57,
4.318,-1.02,-3.01,3.04,1.67,0.27,0.56,
4.318,-0.88,-4.43,3.07,1.67,0.27,0.56,
4.319,-0.88,-4.43,3.07,1.74,0.19,0.55,
4.319,-0.88,-4.43,3.07,1.81,0.10,0.53,
4.319,-0.88,-4.43,3.07,1.94,-0.03,0.51,
4.319,-0.88,-4.43,3.07,1.99,-0.08,0.50,
4.32,-0.88,-4.43,3.07,2.09,-0.17,0.48,
4.32,-0.65,-5.93,4.64,2.09,-0.17,0.48,
4.32,-0.65,-5.93,4.64,2.19,-0.26,0.45,
4.321,-0.65,-5.93,4.64,2.30,-0.35,0.43,
4.321,-0.65,-5.93,4.64,2.47,-0.48,0.40,
4.321,-0.65,-5.93,4.64,2.53,-0.52,0.39,
4.321,-0.65,-5.93,4.64,2.64,-0.61,0.37,
4.322,-0.74,-7.37,6.17,2.64,-0.61,0.37,
4.322,-0.74,-7.37,6.17,2.76,-0.68,0.36,
4.322,-0.74,-7.37,6.17,2.87,-0.74,0.34,
4.323,-0.74,-7.37,6.17,3.02,-0.82,0.33,
4.323,-0.74,-7.37,6.17,3.07,-0.84,0.32,
4.323,-0.74,-7.37,6.17,3.16,-0.87,0.32,
4.329,-1.23,-8.70,5.99,3.16,-0.87,0.32,
4.33,-1.23,-8.70,5.99,3.24,-0.90,0.32,
4.33,-1.23,-8.70,5.99,3.31,-0.91,0.31,
4.33,-1.23,-8.70,5.99,3.39,-0.92,0.31,
4.33,-1.23,-8.70,5.99,3.41,-0.91,0.30,
4.334,-1.23,-8.70,5.99,3.45,-0.89,0.30,
4.335,-1.68,-9.89,4.27,3.45,-0.89,0.30,
4.335,-1.68,-9.89,4.27,3.47,-0.86,0.30,
4.335,-1.68,-9.89,4.27,3.47,-0.80,0.30,
4.338,-1.68,-9.89,4.27,3.46,-0.69,0.30,
4.339,-1.68,-9.89,4.27,3.45,-0.65,0.30,
4.342,-1.68,-9.89,4.27,3.42,-0.54,0.30,
4.343,-1.75,-11.01,1.98,3.42,-0.54,0.30,
4.343,-1.75,-11.01,1.98,3.38,-0.41,0.30,
4.345,-1.75,-11.01,1.98,3.32,-0.26,0.30,
4.348,-1.75,-11.01,1.98,3.22,-0.02,0.30,
4.348,-1.75,-11.01,1.98,3.19,0.07,0.30,
4.351,-1.75,-11.01,1.98,3.11,0.26,0.31,
4.353,-1.62,-11.75,-0.58,3.11,0.26,0.31,
4.353,-1.62,-11.75,-0.58,3.03,0.44,0.32,
4.355,-1.62,-11.75,-0.58,2.94,0.62,0.33,
4.36,-1.62,-11.75,-0.58,2.80,0.86,0.36,
4.36,-1.62,-11.75,-0.58,2.75,0.93,0.36,
4.361,-1.62,-11.75,-0.58,2.65,1.03,0.37,
4.362,-1.70,-11.90,-2.94,2.65,1.03,0.37,
4.363,-1.70,-11.90,-2.94,2.55,1.11,0.38,
4.364,-1.70,-11.90,-2.94,2.46,1.15,0.39,
4.368,-1.70,-11.90,-2.94,2.33,1.18,0.42,
4.368,-1.70,-11.90,-2.94,2.30,1.17,0.43,
4.37,-1.70,-11.90,-2.94,2.23,1.13,0.45,
4.376,-2.52,-11.45,-3.88,2.23,1.13,0.45,
4.376,-2.52,-11.45,-3.88,2.18,1.08,0.48,
4.376,-2.52,-11.45,-3.88,2.14,1.00,0.51,
4.378,-2.52,-11.45,-3.88,2.11,0.85,0.57,
4.378,-2.52,-11.45,-3.88,2.10,0.72,0.61,
4.38,-2.52,-11.45,-3.88,2.09,0.65,0.63,
4.382,-3.86,-10.43,-3.03,2.09,0.65,0.63,
4.383,-3.86,-10.43,-3.03,2.09,0.52,0.68,
4.384,-3.86,-10.43,-3.03,2.07,0.38,0.73,
4.392,-3.86,-10.43,-3.03,2.04,0.21,0.79,
4.392,-3.86,-10.43,-3.03,2.03,0.16,0.80,
4.393,-3.86,-10.43,-3.03,1.99,0.08,0.81,
4.393,-3.98,-8.02,-3.64,1.99,0.08,0.81,
4.393,-3.98,-8.02,-3.64,1.94,0.02,0.82,
4.395,-3.98,-8.02,-3.64,1.88,-0.05,0.81,
4.398,-3.98,-8.02,-3.64,1.78,-0.14,0.78,
4.399,-3.98,-8.02,-3.64,1.73,-0.18,0.77,
4.4,-3.98,-8.02,-3.64,1.65,-0.25,0.74,
4.403,-2.66,-4.49,-4.53,1.65,-0.25,0.74,
4.403,-2.66,-4.49,-4.53,1.56,-0.31,0.71,
4.41,-2.66,-4.49,-4.53,1.47,-0.36,0.68,
4.41,-2.66,-4.49,-4.53,1.33,-0.41,0.63,
4.411,-2.66,-4.49,-4.53,1.25,-0.42,0.60,
4.411,-2.66,-4.49,-4.53,1.20,-0.42,0.58,
4.413,-1.97,-2.05,-4.09,1.20,-0.42,0.58,
4.413,-1.97,-2.05,-4.09,1.11,-0.42,0.55,
4.414,-1.97,-2.05,-4.09,1.03,-0.42,0.51,
4.417,-1.97,-2.05,-4.09,0.91,-0.38,0.45,
4.418,-1.97,-2.05,-4.09,0.88,-0.37,0.43,
4.42,-1.97,-2.05,-4.09,0.80,-0.34,0.40,
4.422,-1.22,-0.83,-2.73,0.80,-0.34,0.40,
4.423,-1.22,-0.83,-2.73,0.73,-0.30,0.36,
4.424,-1.22,-0.83,-2.73,0.66,-0.26,0.34,
4.427,-1.22,-0.83,-2.73,0.56,-0.22,0.30,
4.428,-1.22,-0.83,-2.73,0.52,-0.21,0.29,
4.431,-1.22,-0.83,-2.73,0.45,-0.19,0.27,
4.433,-0.43,-1.12,-2.07,0.45,-0.19,0.27,
4.433,-0.43,-1.12,-2.07,0.38,-0.19,0.24,
4.434,-0.43,-1.12,-2.07,0.31,-0.19,0.22,
4.438,-0.43,-1.12,-2.07,0.20,-0.19,0.17,
4.438,-0.43,-1.12,-2.07,0.17,-0.19,0.15,
4.44,-0.43,-1.12,-2.07,0.10,-0.20,0.12,
4.443,0.96,-1.83,-2.14,0.10,-0.20,0.12,
4.443,0.96,-1.83,-2.14,0.03,-0.21,0.08,
4.444,0.96,-1.83,-2.14,-0.03,-0.22,0.05,
4.447,0.96,-1.83,-2.14,-0.13,-0.23,-0.01,
4.448,0.96,-1.83,-2.14,-0.16,-0.23,-0.03,
4.451,0.96,-1.83,-2.14,-0.25,-0.25,-0.08,
4.453,1.95,-2.15,-2.89,-0.25,-0.25,-0.08,
4.453,1.95,-2.15,-2.89,-0.28,-0.25,-0.09,
4.456,1.95,-2.15,-2.89,-0.34,-0.25,-0.12,
4.469,1.95,-2.15,-2.89,-0.41,-0.23,-0.16,
4.469,1.95,-2.15,-2.89,-0.46,-0.21,-0.18,
4.469,1.95,-2.15,-2.89,-0.48,-0.20,-0.19,
4.469,1.75,-1.25,-3.50,-0.48,-0.20,-0.19,
4.47,1.75,-1.25,-3.50,-0.51,-0.17,-0.19,
4.47,1.75,-1.25,-3.50,-0.55,-0.13,-0.20,
4.47,1.75,-1.25,-3.50,-0.59,-0.06,-0.19,
4.47,1.75,-1.25,-3.50,-0.60,-0.04,-0.19,
4.471,1.75,-1.25,-3.50,-0.62,0.02,-0.18,
4.473,0.85,0.31,-3.92,-0.62,0.02,-0.18,
4.473,0.85,0.31,-3.92,-0.64,0.08,-0.17,
4.475,0.85,0.31,-3.92,-0.66,0.15,-0.16,
4.478,0.85,0.31,-3.92,-0.68,0.25,-0.14,
4.479,0.85,0.31,-3.92,-0.69,0.29,-0.13,
4.481,0.85,0.31,-3.92,-0.71,0.36,-0.11,
4.483,0.23,1.94,-4.32,-0.71,0.36,-0.11,
4.483,0.23,1.94,-4.32,-0.73,0.44,-0.09,
4.484,0.23,1.94,-4.32,-0.75,0.51,-0.07,
4.488,0.23,1.94,-4.32,-0.79,0.62,-0.03,
4.489,0.23,1.94,-4.32,-0.80,0.65,-0.03,
4.491,0.23,1.94,-4.32,-0.83,0.72,-0.01,
4.493,-0.05,3.33,-5.16,-0.83,0.72,-0.01,
4.493,-0.05,3.33,-5.16,-0.86,0.79,0.01,
4.494,-0.05,3.33,-5.16,-0.89,0.85,0.03,
4.498,-0.05,3.33,-5.16,-0.95,0.94,0.05,
4.498,-0.05,3.33,-5.16,-0.96,0.97,0.06,
4.5,-0.05,3.33,-5.16,-1.00,1.03,0.07,
4.503,-0.11,4.64,-5.89,-1.00,1.03,0.07,
4.503,-0.11,4.64,-5.89,-1.03,1.09,0.08,
4.504,-0.11,4.64,-5.89,-1.07,1.14,0.09,
4.507,-0.11,4.64,-5.89,-1.14,1.20,0.11,
4.509,-0.11,4.64,-5.89,-1.18,1.24,0.12,
4.51,-0.11,4.64,-5.89,-1.20,1.25,0.12,
4.513,-0.09,5.60,-6.68,-1.20,1.25,0.12,
4.513,-0.09,5.60,-6.68,-1.24,1.27,0.13,
4.519,-0.09,5.60,-6.68,-1.35,1.30,0.14,
4.519,-0.09,5.60,-6.68,-1.35,1.30,0.14,
4.522,-0.09,5.60,-6.68,-1.35,1.30,0.14,
4.522,-0.09,5.60,-6.68,-1.41,1.29,0.15,
4.523,-0.04,6.40,-6.43,-1.41,1.29,0.15,
4.523,-0.04,6.40,-6.43,-1.43,1.29,0.15,
4.525,-0.04,6.40,-6.43,-1.46,1.28,0.16,
4.527,-0.04,6.40,-6.43,-1.50,1.25,0.16,
4.528,-0.04,6.40,-6.43,-1.51,1.24,0.17,
4.53,-0.04,6.40,-6.43,-1.54,1.21,0.17,
4.533,-0.04,7.02,-5.81,-1.54,1.21,0.17,
4.533,-0.04,7.02,-5.81,-1.56,1.18,0.17,
4.534,-0.04,7.02,-5.81,-1.58,1.15,0.17,
4.537,-0.04,7.02,-5.81,-1.61,1.09,0.18,
4.539,-0.04,7.02,-5.81,-1.62,1.07,0.18,
4.544,-0.04,7.02,-5.81,-1.64,1.03,0.18,
4.545,0.13,7.57,-4.66,-1.64,1.03,0.18,
4.545,0.13,7.57,-4.66,-1.65,0.98,0.19,
4.545,0.13,7.57,-4.66,-1.66,0.94,0.19,
4.547,0.13,7.57,-4.66,-1.68,0.88,0.19,
4.548,0.13,7.57,-4.66,-1.69,0.85,0.20,
4.55,0.13,7.57,-4.66,-1.70,0.81,0.20,
4.552,0.27,7.99,-3.68,-1.70,0.81,0.20,
4.552,0.27,7.99,-3.68,-1.71,0.76,0.20,
4.556,0.27,7.99,-3.68,-1.73,0.72,0.20,
4.557,0.27,7.99,-3.68,-1.75,0.65,0.19,
4.559,0.27,7.99,-3.68,-1.76,0.61,0.19,
4.564,0.27,7.99,-3.68,-1.77,0.59,0.19,
4.564,0.93,8.42,-2.71,-1.77,0.59,0.19,
4.564,0.93,8.42,-2.71,-1.79,0.55,0.18,
4.565,0.93,8.42,-2.71,-1.81,0.50,0.18,
4.567,0.93,8.42,-2.71,-1.84,0.43,0.16,
4.568,0.93,8.42,-2.71,-1.86,0.41,0.15,
4.578,0.93,8.42,-2.71,-1.89,0.36,0.14,
4.578,1.59,8.87,-1.72,-1.89,0.36,0.14,
4.578,1.59,8.87,-1.72,-1.92,0.32,0.13,
4.579,1.59,8.87,-1.72,-1.96,0.27,0.12,
4.579,1.59,8.87,-1.72,-2.03,0.19,0.09,
4.579,1.59,8.87,-1.72,-2.05,0.16,0.08,
4.58,1.59,8.87,-1.72,-2.10,0.10,0.07,
4.582,2.12,8.96,-1.28,-2.10,0.10,0.07,
4.582,2.12,8.96,-1.28,-2.15,0.04,0.05,
4.584,2.12,8.96,-1.28,-2.21,-0.03,0.03,
4.587,2.12,8.96,-1.28,-2.30,-0.13,-0.01,
4.588,2.12,8.96,-1.28,-2.33,-0.17,-0.02,
4.59,2.12,8.96,-1.28,-2.40,-0.24,-0.05,
4.593,2.54,8.88,-0.87,-2.40,-0.24,-0.05,
4.593,2.54,8.88,-0.87,-2.47,-0.32,-0.09,
4.594,2.54,8.88,-0.87,-2.54,-0.41,-0.13,
4.597,2.54,8.88,-0.87,-2.66,-0.52,-0.19,
4.598,2.54,8.88,-0.87,-2.70,-0.56,-0.21,
4.6,2.54,8.88,-0.87,-2.78,-0.63,-0.26,
4.603,2.18,8.24,-1.37,-2.78,-0.63,-0.26,
4.603,2.18,8.24,-1.37,-2.86,-0.70,-0.31,
4.605,2.18,8.24,-1.37,-2.94,-0.76,-0.37,
4.608,2.18,8.24,-1.37,-3.06,-0.84,-0.46,
4.608,2.18,8.24,-1.37,-3.14,-0.89,-0.52,
4.61,2.18,8.24,-1.37,-3.18,-0.91,-0.55,
4.612,1.74,7.18,-1.70,-3.18,-0.91,-0.55,
4.613,1.74,7.18,-1.70,-3.26,-0.95,-0.61,
4.614,1.74,7.18,-1.70,-3.33,-0.98,-0.67,
4.617,1.74,7.18,-1.70,-3.42,-1.01,-0.76,
4.618,1.74,7.18,-1.70,-3.48,-1.02,-0.81,
4.621,1.74,7.18,-1.70,-3.51,-1.03,-0.83,
4.622,1.28,5.82,-1.47,-3.51,-1.03,-0.83,
4.635,1.28,5.82,-1.47,-3.56,-1.03,-0.88,
4.636,1.28,5.82,-1.47,-3.60,-1.04,-0.92,
4.636,1.28,5.82,-1.47,-3.66,-1.04,-0.97,
4.636,1.28,5.82,-1.47,-3.68,-1.04,-1.00,
4.637,1.28,5.82,-1.47,-3.70,-1.03,-1.02,
4.637,0.83,4.44,-0.70,-3.70,-1.03,-1.02,
4.637,0.83,4.44,-0.70,-3.71,-1.03,-1.04,
4.638,0.83,4.44,-0.70,-3.71,-1.02,-1.05,
4.638,0.83,4.44,-0.70,-3.68,-1.03,-1.08,
4.641,0.83,4.44,-0.70,-3.65,-1.04,-1.08,
4.641,0.83,4.44,-0.70,-3.62,-1.05,-1.09,
4.643,0.72,2.94,1.10,-3.62,-1.05,-1.09,
4.643,0.72,2.94,1.10,-3.56,-1.07,-1.09,
4.644,0.72,2.94,1.10,-3.48,-1.09,-1.10,
4.647,0.72,2.94,1.10,-3.32,-1.13,-1.10,
4.648,0.72,2.94,1.10,-3.19,-1.15,-1.11,
4.652,0.72,2.94,1.10,-3.12,-1.17,-1.11,
4.653,1.27,1.23,4.39,-3.12,-1.17,-1.11,
4.653,1.27,1.23,4.39,-2.97,-1.21,-1.11,
4.654,1.27,1.23,4.39,-2.79,-1.25,-1.11,
4.658,1.27,1.23,4.39,-2.52,-1.35,-1.11,
4.66,1.27,1.23,4.39,-2.33,-1.43,-1.11,
4.66,1.27,1.23,4.39,-2.23,-1.48,-1.11,
4.663,1.73,-0.74,7.37,-2.23,-1.48,-1.11,
4.663,1.73,-0.74,7.37,-2.03,-1.57,-1.11,
4.664,1.73,-0.74,7.37,-1.82,-1.68,-1.12,
4.668,1.73,-0.74,7.37,-1.50,-1.85,-1.13,
4.669,1.73,-0.74,7.37,-1.28,-1.97,-1.14,
4.678,1.73,-0.74,7.37,-1.18,-2.03,-1.14,
4.679,2.60,-3.15,9.59,-1.18,-2.03,-1.14,
4.679,2.60,-3.15,9.59,-0.98,-2.15,-1.16,
4.679,2.60,-3.15,9.59,-0.79,-2.26,-1.17,
4.679,2.60,-3.15,9.59,-0.54,-2.41,-1.19,
4.685,2.60,-3.15,9.59,-0.39,-2.50,-1.21,
4.685,2.60,-3.15,9.59,-0.32,-2.54,-1.21,
4.685,3.37,-5.03,9.44,-0.32,-2.54,-1.21,
4.686,3.37,-5.03,9.44,-0.20,-2.60,-1.22,
4.686,3.37,-5.03,9.44,-0.10,-2.66,-1.23,
4.709,3.37,-5.03,9.44,0.03,-2.70,-1.22,
4.71,3.37,-5.03,9.44,0.09,-2.71,-1.20,
4.71,3.37,-5.03,9.44,0.12,-2.70,-1.19,
4.71,3.45,-5.43,8.61,0.12,-2.70,-1.19,
4.71,3.45,-5.43,8.61,0.17,-2.68,-1.16,
4.711,3.45,-5.43,8.61,0.20,-2.63,-1.12,
4.711,3.45,-5.43,8.61,0.22,-2.52,-1.03,
4.711,3.45,-5.43,8.61,0.23,-2.43,-0.96,
4.711,3.45,-5.43,8.61,0.23,-2.37,-0.92,
4.712,2.20,-4.04,7.67,0.23,-2.37,-0.92,
4.712,2.20,-4.04,7.67,0.22,-2.24,-0.83,
4.712,2.20,-4.04,7.67,0.21,-2.08,-0.73,
4.712,2.20,-4.04,7.67,0.19,-1.81,-0.57,
4.713,2.20,-4.04,7.67,0.17,-1.59,-0.46,
4.713,2.20,-4.04,7.67,0.16,-1.48,-0.40,
4.713,0.28,-1.39,7.15,0.16,-1.48,-0.40,
4.713,0.28,-1.39,7.15,0.14,-1.24,-0.30,
4.714,0.28,-1.39,7.15,0.13,-0.99,-0.20,
4.717,0.28,-1.39,7.15,0.11,-0.60,-0.08,
4.718,0.28,-1.39,7.15,0.11,-0.33,-0.02,
4.72,0.28,-1.39,7.15,0.11,-0.20,0.01,
4.723,-0.95,0.48,6.71,0.11,-0.20,0.01,
4.723,-0.95,0.48,6.71,0.10,0.07,0.07,
4.724,-0.95,0.48,6.71,0.11,0.33,0.11,
4.728,-0.95,0.48,6.71,0.11,0.71,0.17,
4.729,-0.95,0.48,6.71,0.10,0.96,0.20,
4.73,-0.95,0.48,6.71,0.10,1.08,0.22,
4.733,-1.77,1.47,5.91,0.10,1.08,0.22,
4.733,-1.77,1.47,5.91,0.09,1.31,0.24,
4.734,-1.77,1.47,5.91,0.08,1.53,0.25,
4.74,-1.77,1.47,5.91,0.05,1.84,0.26,
4.74,-1.77,1.47,5.91,0.01,2.02,0.25,
4.741,-1.77,1.47,5.91,-0.01,2.11,0.25,
4.743,-1.91,1.74,3.50,-0.01,2.11,0.25,
4.743,-1.91,1.74,3.50,-0.06,2.27,0.24,
4.745,-1.91,1.74,3.50,-0.12,2.40,0.21,
4.747,-1.91,1.74,3.50,-0.24,2.55,0.16,
4.748,-1.91,1.74,3.50,-0.35,2.62,0.12,
4.75,-1.91,1.74,3.50,-0.40,2.64,0.10,
4.753,-1.33,1.55,-0.20,-0.40,2.64,0.10,
4.754,-1.33,1.55,-0.20,-0.52,2.67,0.04,
4.754,-1.33,1.55,-0.20,-0.64,2.68,-0.01,
4.757,-1.33,1.55,-0.20,-0.83,2.65,-0.10,
4.759,-1.33,1.55,-0.20,-0.96,2.61,-0.16,
4.761,-1.33,1.55,-0.20,-1.02,2.59,-0.18,
4.763,-0.74,0.75,-3.01,-1.02,2.59,-0.18,
4.763,-0.74,0.75,-3.01,-1.14,2.53,-0.24,
4.764,-0.74,0.75,-3.01,-1.26,2.47,-0.28,
4.767,-0.74,0.75,-3.01,-1.41,2.38,-0.34,
4.769,-0.74,0.75,-3.01,-1.50,2.32,-0.37,
4.771,-0.74,0.75,-3.01,-1.54,2.28,-0.38,
4.773,-0.74,-1.11,-3.87,-1.54,2.28,-0.38,
4.773,-0.74,-1.11,-3.87,-1.62,2.21,-0.40,
4.774,-0.74,-1.11,-3.87,-1.68,2.14,-0.41,
4.777,-0.74,-1.11,-3.87,-1.76,2.03,-0.41,
4.779,-0.74,-1.11,-3.87,-1.80,1.95,-0.40,
4.781,-0.74,-1.11,-3.87,-1.82,1.90,-0.39,
4.782,-0.96,-3.44,-3.58,-1.82,1.90,-0.39,
4.782,-0.96,-3.44,-3.58,-1.84,1.82,-0.38,
4.785,-0.96,-3.44,-3.58,-1.85,1.73,-0.36,
4.787,-0.96,-3.44,-3.58,-1.85,1.58,-0.32,
4.789,-0.96,-3.44,-3.58,-1.83,1.48,-0.30,
4.807,-0.96,-3.44,-3.58,-1.82,1.43,-0.29,
4.807,-1.08,-5.66,-2.89,-1.82,1.43,-0.29,
4.807,-1.08,-5.66,-2.89,-1.78,1.33,-0.26,
4.808,-1.08,-5.66,-2.89,-1.74,1.23,-0.24,
4.808,-1.08,-5.66,-2.89,-1.64,1.08,-0.20,
4.808,-1.08,-5.66,-2.89,-1.57,1.00,-0.17,
4.808,-1.08,-5.66,-2.89,-1.42,0.92,-0.13,
4.808,-1.49,-8.25,-0.68,-1.42,0.92,-0.13,
4.809,-1.49,-8.25,-0.68,-1.36,0.92,-0.11,
4.809,-1.49,-8.25,-0.68,-1.21,0.95,-0.07,
4.809,-1.49,-8.25,-0.68,-1.05,1.02,-0.02,
4.815,-1.49,-8.25,-0.68,-0.89,1.12,0.02,
4.816,-1.49,-8.25,-0.68,-0.81,1.19,0.04,
4.816,-3.39,-10.34,4.00,-0.81,1.19,0.04,
4.817,-3.39,-10.34,4.00,-0.66,1.33,0.08,
4.817,-3.39,-10.34,4.00,-0.53,1.47,0.12,
4.818,-3.39,-10.34,4.00,-0.38,1.68,0.16,
4.82,-3.39,-10.34,4.00,-0.30,1.81,0.18,
4.822,-3.39,-10.34,4.00,-0.27,1.86,0.19,
4.824,-4.55,-11.37,4.51,-0.27,1.86,0.19,
4.824,-4.55,-11.37,4.51,-0.22,1.95,0.21,
4.825,-4.55,-11.37,4.51,-0.18,1.99,0.22,
4.834,-4.55,-11.37,4.51,-0.15,1.98,0.24,
4.834,-4.55,-11.37,4.51,-0.14,1.90,0.24,
4.834,-4.55,-11.37,4.51,-0.13,1.85,0.25,
4.834,-4.29,-11.22,2.48,-0.13,1.85,0.25,
4.835,-4.29,-11.22,2.48,-0.13,1.60,0.27,
4.835,-4.29,-11.22,2.48,-0.14,1.37,0.29,
4.847,-4.29,-11.22,2.48,-0.14,1.11,0.32,
4.848,-4.29,-11.22,2.48,-0.14,0.84,0.36,
4.848,-4.29,-11.22,2.48,-0.14,0.70,0.39,
4.849,-2.92,-10.86,0.33,-0.14,0.70,0.39,
4.849,-2.92,-10.86,0.33,-0.12,0.43,0.44,
4.849,-2.92,-10.86,0.33,-0.10,0.18,0.50,
4.85,-2.92,-10.86,0.33,-0.06,-0.13,0.59,
4.85,-2.92,-10.86,0.33,-0.02,-0.30,0.64,
4.854,-2.92,-10.86,0.33,0.00,-0.37,0.66,
4.854,-1.03,-9.82,0.07,0.00,-0.37,0.66,
4.855,-1.03,-9.82,0.07,0.05,-0.49,0.70,
4.873,-1.03,-9.82,0.07,0.14,-0.60,0.72,
4.874,-1.03,-9.82,0.07,0.32,-0.61,0.68,
4.874,-1.03,-9.82,0.07,0.41,-0.59,0.66,
4.874,-1.03,-9.82,0.07,0.58,-0.54,0.58,
4.874,4.07,-7.16,5.42,0.58,-0.54,0.58,
4.875,4.07,-7.16,5.42,0.72,-0.49,0.51,
4.875,4.07,-7.16,5.42,0.83,-0.44,0.45,
4.875,4.07,-7.16,5.42,0.89,-0.40,0.39,
4.875,4.07,-7.16,5.42,0.90,-0.37,0.35,
4.875,4.07,-7.16,5.42,0.88,-0.34,0.32,
4.876,6.05,-4.68,3.66,0.88,-0.34,0.32,
4.876,6.05,-4.68,3.66,0.82,-0.31,0.30,
4.876,6.05,-4.68,3.66,0.73,-0.27,0.29,
4.879,6.05,-4.68,3.66,0.63,-0.23,0.29,
4.879,6.05,-4.68,3.66,0.52,-0.19,0.29,
4.88,6.05,-4.68,3.66,0.41,-0.14,0.29,
4.882,5.53,-2.41,-0.29,0.41,-0.14,0.29,
4.883,5.53,-2.41,-0.29,0.30,-0.09,0.29,
4.884,5.53,-2.41,-0.29,0.21,-0.04,0.29,
4.888,5.53,-2.41,-0.29,0.13,0.01,0.29,
4.889,5.53,-2.41,-0.29,0.05,0.06,0.28,
4.89,5.53,-2.41,-0.29,-0.00,0.09,0.27,
4.893,5.24,-0.80,-1.56,-0.00,0.09,0.27,
4.893,5.24,-0.80,-1.56,-0.05,0.13,0.26,
4.894,5.24,-0.80,-1.56,-0.09,0.15,0.25,
4.897,5.24,-0.80,-1.56,-0.11,0.16,0.23,
4.898,5.24,-0.80,-1.56,-0.13,0.15,0.20,
4.9,5.24,-0.80,-1.56,-0.14,0.12,0.17,
4.902,4.99,-0.03,-2.36,-0.14,0.12,0.17,
4.903,4.99,-0.03,-2.36,-0.16,0.09,0.13,
4.905,4.99,-0.03,-2.36,-0.16,0.05,0.08,
4.908,4.99,-0.03,-2.36,-0.17,-0.01,0.00,
4.909,4.99,-0.03,-2.36,-0.17,-0.04,-0.03,
4.91,4.99,-0.03,-2.36,-0.17,-0.08,-0.08,
4.913,5.21,0.08,-3.25,-0.17,-0.08,-0.08,
4.913,5.21,0.08,-3.25,-0.17,-0.13,-0.15,
4.914,5.21,0.08,-3.25,-0.18,-0.18,-0.21,
4.917,5.21,0.08,-3.25,-0.19,-0.23,-0.28,
4.919,5.21,0.08,-3.25,-0.21,-0.28,-0.35,
4.92,5.21,0.08,-3.25,-0.23,-0.34,-0.42,
4.923,4.97,-0.22,-3.81,-0.23,-0.34,-0.42,
4.923,4.97,-0.22,-3.81,-0.25,-0.40,-0.49,
4.925,4.97,-0.22,-3.81,-0.28,-0.47,-0.54,
4.927,4.97,-0.22,-3.81,-0.31,-0.53,-0.60,
4.928,4.97,-0.22,-3.81,-0.35,-0.60,-0.65,
4.93,4.97,-0.22,-3.81,-0.39,-0.66,-0.70,
4.933,4.16,-0.76,-4.36,-0.39,-0.66,-0.70,
4.933,4.16,-0.76,-4.36,-0.43,-0.73,-0.74,
4.934,4.16,-0.76,-4.36,-0.48,-0.79,-0.77,
4.937,4.16,-0.76,-4.36,-0.54,-0.85,-0.80,
4.939,4.16,-0.76,-4.36,-0.60,-0.90,-0.82,
4.94,4.16,-0.76,-4.36,-0.65,-0.95,-0.83,
4.942,2.76,-1.18,-4.58,-0.65,-0.95,-0.83,
4.943,2.76,-1.18,-4.58,-0.71,-1.01,-0.84,
4.944,2.76,-1.18,-4.58,-0.77,-1.06,-0.84,
4.947,2.76,-1.18,-4.58,-0.83,-1.10,-0.83,
4.949,2.76,-1.18,-4.58,-0.89,-1.14,-0.82,
4.95,2.76,-1.18,-4.58,-0.94,-1.18,-0.81,
4.956,1.44,-1.21,-4.48,-0.94,-1.18,-0.81,
4.957,1.44,-1.21,-4.48,-1.00,-1.22,-0.79,
4.957,1.44,-1.21,-4.48,-1.05,-1.25,-0.77,
4.971,1.44,-1.21,-4.48,-1.12,-1.29,-0.74,
4.971,1.44,-1.21,-4.48,-1.14,-1.30,-0.73,
4.971,1.44,-1.21,-4.48,-1.18,-1.32,-0.72,
4.971,0.57,-0.91,-3.80,-1.18,-1.32,-0.72,
4.972,0.57,-0.91,-3.80,-1.21,-1.33,-0.70,
4.972,0.57,-0.91,-3.80,-1.24,-1.35,-0.68,
4.972,0.57,-0.91,-3.80,-1.27,-1.36,-0.66,
4.973,0.57,-0.91,-3.80,-1.30,-1.37,-0.65,
