
time,ax,ay,az,wx,wy,wz,
0.001,-0.79,0.02,-0.71,-0.14,0.13,0.36,
0.002,-0.79,0.02,-0.71,-0.16,0.14,0.36,
0.002,-0.79,0.02,-0.71,-0.18,0.15,0.37,
0.004,-0.79,0.02,-0.71,-0.18,0.16,0.37,
0.004,-0.79,0.02,-0.71,-0.20,0.16,0.37,
0.004,-0.60,0.06,-0.70,-0.20,0.16,0.37,
0.004,-0.60,0.06,-0.70,-0.21,0.17,0.38,
0.005,-0.60,0.06,-0.70,-0.23,0.18,0.38,
0.008,-0.60,0.06,-0.70,-0.25,0.18,0.37,
0.009,-0.60,0.06,-0.70,-0.26,0.18,0.37,
0.017,-0.60,0.06,-0.70,-0.27,0.18,0.37,
0.018,-0.39,0.18,-0.73,-0.27,0.18,0.37,
0.018,-0.39,0.18,-0.73,-0.28,0.17,0.37,
0.018,-0.39,0.18,-0.73,-0.29,0.17,0.36,
0.02,-0.39,0.18,-0.73,-0.31,0.17,0.36,
0.02,-0.39,0.18,-0.73,-0.32,0.17,0.36,
0.026,-0.39,0.18,-0.73,-0.33,0.17,0.36,
0.026,-0.39,0.21,-0.75,-0.33,0.17,0.36,
0.027,-0.39,0.21,-0.75,-0.34,0.17,0.36,
0.027,-0.39,0.21,-0.75,-0.35,0.16,0.35,
0.029,-0.39,0.21,-0.75,-0.36,0.14,0.35,
0.029,-0.39,0.21,-0.75,-0.36,0.13,0.35,
0.032,-0.39,0.21,-0.75,-0.37,0.11,0.35,
0.034,-0.42,0.13,-0.67,-0.37,0.11,0.35,
0.035,-0.42,0.13,-0.67,-0.38,0.10,0.35,
0.036,-0.42,0.13,-0.67,-0.38,0.08,0.36,
0.038,-0.42,0.13,-0.67,-0.38,0.06,0.36,
0.039,-0.42,0.13,-0.67,-0.38,0.05,0.36,
0.041,-0.42,0.13,-0.67,-0.37,0.04,0.37,
0.048,-0.60,0.12,-0.32,-0.37,0.04,0.37,
0.049,-0.60,0.12,-0.32,-0.37,0.03,0.37,
0.051,-0.60,0.12,-0.32,-0.36,0.02,0.37,
0.051,-0.60,0.12,-0.32,-0.35,-0.01,0.37,
0.051,-0.60,0.12,-0.32,-0.35,-0.01,0.37,
0.053,-0.60,0.12,-0.32,-0.33,-0.04,0.37,
0.054,-0.58,-0.04,-0.13,-0.33,-0.04,0.37,
0.054,-0.58,-0.04,-0.13,-0.33,-0.06,0.37,
0.056,-0.58,-0.04,-0.13,-0.32,-0.09,0.37,
0.058,-0.58,-0.04,-0.13,-0.31,-0.12,0.37,
0.06,-0.58,-0.04,-0.13,-0.31,-0.14,0.37,
0.07,-0.58,-0.04,-0.13,-0.30,-0.17,0.37,
0.07,-0.67,-0.12,-0.09,-0.30,-0.17,0.37,
0.071,-0.67,-0.12,-0.09,-0.29,-0.20,0.37,
0.071,-0.67,-0.12,-0.09,-0.28,-0.23,0.37,
0.072,-0.67,-0.12,-0.09,-0.26,-0.27,0.37,
0.073,-0.67,-0.12,-0.09,-0.26,-0.28,0.37,
0.074,-0.67,-0.12,-0.09,-0.24,-0.31,0.37,
0.074,-0.78,-0.13,-0.07,-0.24,-0.31,0.37,
0.074,-0.78,-0.13,-0.07,-0.23,-0.33,0.37,
0.076,-0.78,-0.13,-0.07,-0.22,-0.36,0.38,
0.085,-0.78,-0.13,-0.07,-0.20,-0.40,0.38,
0.086,-0.78,-0.13,-0.07,-0.19,-0.42,0.38,
0.086,-0.78,-0.13,-0.07,-0.18,-0.45,0.38,
0.086,-0.88,-0.21,0.02,-0.18,-0.45,0.38,
0.086,-0.88,-0.21,0.02,-0.17,-0.48,0.39,
0.087,-0.88,-0.21,0.02,-0.15,-0.51,0.38,
0.089,-0.88,-0.21,0.02,-0.13,-0.56,0.39,
0.09,-0.88,-0.21,0.02,-0.13,-0.58,0.39,
0.092,-0.88,-0.21,0.02,-0.11,-0.61,0.39,
0.104,-0.89,-0.29,0.15,-0.11,-0.61,0.39,
0.104,-0.89,-0.29,0.15,-0.09,-0.64,0.40,
0.105,-0.89,-0.29,0.15,-0.07,-0.67,0.40,
0.105,-0.89,-0.29,0.15,-0.05,-0.71,0.40,
0.105,-0.89,-0.29,0.15,-0.04,-0.72,0.41,
0.105,-0.89,-0.29,0.15,-0.02,-0.75,0.41,
0.106,-0.94,-0.36,0.26,-0.02,-0.75,0.41,
0.106,-0.94,-0.36,0.26,-0.01,-0.77,0.41,
0.106,-0.94,-0.36,0.26,0.00,-0.79,0.42,
0.109,-0.94,-0.36,0.26,0.02,-0.82,0.43,
0.109,-0.94,-0.36,0.26,0.03,-0.83,0.44,
0.112,-0.94,-0.36,0.26,0.04,-0.84,0.44,
0.114,-1.01,-0.46,0.15,0.04,-0.84,0.44,
0.114,-1.01,-0.46,0.15,0.05,-0.86,0.45,
0.116,-1.01,-0.46,0.15,0.05,-0.87,0.45,
0.119,-1.01,-0.46,0.15,0.06,-0.89,0.46,
0.119,-1.01,-0.46,0.15,0.06,-0.90,0.46,
0.121,-1.01,-0.46,0.15,0.06,-0.91,0.47,
0.127,-1.09,-0.55,-0.06,0.06,-0.91,0.47,
0.127,-1.09,-0.55,-0.06,0.07,-0.92,0.47,
0.127,-1.09,-0.55,-0.06,0.08,-0.93,0.48,
0.13,-1.09,-0.55,-0.06,0.08,-0.94,0.48,
0.13,-1.09,-0.55,-0.06,0.09,-0.94,0.48,
0.132,-1.09,-0.55,-0.06,0.09,-0.95,0.49,
0.135,-1.12,-0.56,-0.13,0.09,-0.95,0.49,
0.135,-1.12,-0.56,-0.13,0.10,-0.96,0.49,
0.135,-1.12,-0.56,-0.13,0.11,-0.97,0.49,
0.139,-1.12,-0.56,-0.13,0.12,-0.98,0.50,
0.139,-1.12,-0.56,-0.13,0.12,-0.99,0.50,
0.141,-1.12,-0.56,-0.13,0.13,-1.01,0.50,
0.144,-1.22,-0.60,-0.20,0.13,-1.01,0.50,
0.144,-1.22,-0.60,-0.20,0.13,-1.03,0.51,
0.146,-1.22,-0.60,-0.20,0.14,-1.05,0.51,
0.151,-1.22,-0.60,-0.20,0.14,-1.09,0.51,
0.152,-1.22,-0.60,-0.20,0.14,-1.10,0.51,
0.153,-1.22,-0.60,-0.20,0.15,-1.13,0.51,
0.154,-1.10,-0.62,-0.27,0.15,-1.13,0.51,
0.154,-1.10,-0.62,-0.27,0.15,-1.15,0.51,
0.156,-1.10,-0.62,-0.27,0.16,-1.18,0.51,
0.158,-1.10,-0.62,-0.27,0.17,-1.22,0.52,
0.159,-1.10,-0.62,-0.27,0.17,-1.24,0.52,
0.162,-1.10,-0.62,-0.27,0.19,-1.27,0.52,
0.165,-0.87,-0.69,0.05,0.19,-1.27,0.52,
0.165,-0.87,-0.69,0.05,0.20,-1.30,0.51,
0.166,-0.87,-0.69,0.05,0.21,-1.32,0.51,
0.168,-0.87,-0.69,0.05,0.23,-1.33,0.50,
0.17,-0.87,-0.69,0.05,0.24,-1.33,0.50,
0.172,-0.87,-0.69,0.05,0.24,-1.32,0.50,
0.175,-0.42,-0.65,0.10,0.24,-1.32,0.50,
0.175,-0.42,-0.65,0.10,0.25,-1.32,0.49,
0.176,-0.42,-0.65,0.10,0.25,-1.32,0.48,
0.179,-0.42,-0.65,0.10,0.26,-1.34,0.47,
0.18,-0.42,-0.65,0.10,0.26,-1.34,0.47,
0.183,-0.42,-0.65,0.10,0.26,-1.36,0.46,
0.183,-0.37,-0.64,-0.10,0.26,-1.36,0.46,
0.184,-0.37,-0.64,-0.10,0.26,-1.38,0.45,
0.185,-0.37,-0.64,-0.10,0.25,-1.41,0.44,
0.188,-0.37,-0.64,-0.10,0.24,-1.46,0.43,
0.19,-0.37,-0.64,-0.10,0.24,-1.48,0.42,
0.191,-0.37,-0.64,-0.10,0.23,-1.51,0.41,
0.195,-0.50,-0.70,-0.42,0.23,-1.51,0.41,
0.196,-0.50,-0.70,-0.42,0.21,-1.55,0.40,
0.196,-0.50,-0.70,-0.42,0.20,-1.59,0.40,
0.198,-0.50,-0.70,-0.42,0.19,-1.64,0.39,
0.2,-0.50,-0.70,-0.42,0.19,-1.66,0.39,
0.204,-0.50,-0.70,-0.42,0.18,-1.68,0.39,
0.207,-0.88,-0.66,-0.70,0.18,-1.68,0.39,
0.208,-0.88,-0.66,-0.70,0.17,-1.71,0.39,
0.208,-0.88,-0.66,-0.70,0.16,-1.75,0.40,
0.208,-0.88,-0.66,-0.70,0.13,-1.79,0.41,
0.21,-0.88,-0.66,-0.70,0.12,-1.81,0.42,
0.224,-0.88,-0.66,-0.70,0.09,-1.85,0.44,
0.237,-1.46,-0.38,-0.93,0.09,-1.85,0.44,
0.237,-1.46,-0.38,-0.93,0.06,-1.90,0.45,
0.237,-1.46,-0.38,-0.93,0.04,-1.95,0.46,
0.238,-1.46,-0.38,-0.93,-0.00,-2.02,0.48,
0.238,-1.46,-0.38,-0.93,-0.02,-2.05,0.49,
0.238,-1.46,-0.38,-0.93,-0.03,-2.09,0.49,
0.238,-1.35,-0.34,-0.51,-0.03,-2.09,0.49,
0.238,-1.35,-0.34,-0.51,-0.04,-2.13,0.50,
0.238,-1.35,-0.34,-0.51,-0.06,-2.17,0.51,
0.239,-1.35,-0.34,-0.51,-0.06,-2.20,0.52,
0.239,-1.35,-0.34,-0.51,-0.05,-2.20,0.52,
0.239,-1.35,-0.34,-0.51,-0.05,-2.21,0.52,
0.239,-0.88,-0.33,0.53,-0.05,-2.21,0.52,
0.239,-0.88,-0.33,0.53,-0.03,-2.20,0.52,
0.24,-0.88,-0.33,0.53,-0.01,-2.20,0.52,
0.24,-0.88,-0.33,0.53,0.02,-2.17,0.52,
0.255,-0.88,-0.33,0.53,0.04,-2.16,0.52,
0.256,-0.88,-0.33,0.53,0.06,-2.14,0.52,
0.256,-0.51,-0.59,1.13,0.06,-2.14,0.52,
0.256,-0.51,-0.59,1.13,0.09,-2.12,0.53,
0.256,-0.51,-0.59,1.13,0.12,-2.11,0.53,
0.256,-0.51,-0.59,1.13,0.16,-2.12,0.53,
0.256,-0.51,-0.59,1.13,0.17,-2.13,0.53,
0.257,-0.51,-0.59,1.13,0.19,-2.16,0.52,
0.257,-0.23,-0.99,1.26,0.19,-2.16,0.52,
0.257,-0.23,-0.99,1.26,0.21,-2.20,0.52,
0.257,-0.23,-0.99,1.26,0.23,-2.25,0.51,
0.258,-0.23,-0.99,1.26,0.25,-2.33,0.50,
0.259,-0.23,-0.99,1.26,0.25,-2.36,0.50,
0.261,-0.23,-0.99,1.26,0.26,-2.41,0.50,
0.268,0.14,-0.97,1.16,0.26,-2.41,0.50,
0.268,0.14,-0.97,1.16,0.26,-2.45,0.50,
0.268,0.14,-0.97,1.16,0.27,-2.49,0.49,
0.268,0.14,-0.97,1.16,0.28,-2.53,0.50,
0.269,0.14,-0.97,1.16,0.29,-2.55,0.50,
0.278,0.14,-0.97,1.16,0.30,-2.57,0.50,
0.279,-0.07,-0.12,0.97,0.30,-2.57,0.50,
0.279,-0.07,-0.12,0.97,0.31,-2.59,0.51,
0.279,-0.07,-0.12,0.97,0.31,-2.61,0.50,
0.279,-0.07,-0.12,0.97,0.32,-2.64,0.51,
0.279,-0.07,-0.12,0.97,0.32,-2.65,0.50,
0.282,-0.07,-0.12,0.97,0.31,-2.68,0.50,
0.283,-0.11,0.46,0.35,0.31,-2.68,0.50,
0.283,-0.11,0.46,0.35,0.30,-2.70,0.50,
0.285,-0.11,0.46,0.35,0.28,-2.74,0.49,
0.295,-0.11,0.46,0.35,0.25,-2.78,0.49,
0.295,-0.11,0.46,0.35,0.24,-2.79,0.49,
0.295,-0.11,0.46,0.35,0.22,-2.82,0.48,
0.296,0.04,0.33,-0.56,0.22,-2.82,0.48,
0.296,0.04,0.33,-0.56,0.18,-2.84,0.48,
0.296,0.04,0.33,-0.56,0.16,-2.85,0.48,
0.299,0.04,0.33,-0.56,0.13,-2.86,0.48,
0.307,0.04,0.33,-0.56,0.12,-2.85,0.48,
0.307,0.04,0.33,-0.56,0.09,-2.85,0.47,
0.308,-0.01,0.04,-1.39,0.09,-2.85,0.47,
0.308,-0.01,0.04,-1.39,0.06,-2.84,0.47,
0.308,-0.01,0.04,-1.39,0.03,-2.82,0.47,
0.308,-0.01,0.04,-1.39,-0.01,-2.77,0.46,
0.309,-0.01,0.04,-1.39,-0.01,-2.75,0.46,
0.312,-0.01,0.04,-1.39,-0.03,-2.70,0.45,
0.314,-0.10,-0.54,-1.77,-0.03,-2.70,0.45,
0.314,-0.10,-0.54,-1.77,-0.05,-2.64,0.44,
0.315,-0.10,-0.54,-1.77,-0.06,-2.58,0.44,
0.318,-0.10,-0.54,-1.77,-0.07,-2.48,0.43,
0.319,-0.10,-0.54,-1.77,-0.07,-2.45,0.42,
0.321,-0.10,-0.54,-1.77,-0.07,-2.39,0.42,
0.323,-0.31,-1.07,-1.40,-0.07,-2.39,0.42,
0.324,-0.31,-1.07,-1.40,-0.07,-2.33,0.41,
0.325,-0.31,-1.07,-1.40,-0.06,-2.28,0.41,
0.34,-0.31,-1.07,-1.40,-0.05,-2.19,0.41,
0.34,-0.31,-1.07,-1.40,-0.04,-2.17,0.41,
0.341,-0.31,-1.07,-1.40,-0.03,-2.11,0.41,
0.341,-0.73,-1.41,-0.94,-0.03,-2.11,0.41,
0.341,-0.73,-1.41,-0.94,-0.01,-2.06,0.42,
0.341,-0.73,-1.41,-0.94,0.01,-2.01,0.43,
0.342,-0.73,-1.41,-0.94,0.05,-1.94,0.44,
0.342,-0.73,-1.41,-0.94,0.06,-1.92,0.44,
0.342,-0.73,-1.41,-0.94,0.09,-1.88,0.45,
0.344,-1.04,-1.64,-0.50,0.09,-1.88,0.45,
0.344,-1.04,-1.64,-0.50,0.12,-1.84,0.46,
0.345,-1.04,-1.64,-0.50,0.16,-1.79,0.46,
0.348,-1.04,-1.64,-0.50,0.20,-1.70,0.47,
0.349,-1.04,-1.64,-0.50,0.22,-1.67,0.47,
0.351,-1.04,-1.64,-0.50,0.24,-1.60,0.48,
0.353,-1.21,-1.41,-0.57,0.24,-1.60,0.48,
0.354,-1.21,-1.41,-0.57,0.26,-1.52,0.49,
0.355,-1.21,-1.41,-0.57,0.28,-1.44,0.50,
0.358,-1.21,-1.41,-0.57,0.31,-1.31,0.51,
0.359,-1.21,-1.41,-0.57,0.31,-1.27,0.52,
0.371,-1.21,-1.41,-0.57,0.32,-1.20,0.53,
0.372,-1.46,-1.00,-1.41,0.32,-1.20,0.53,
0.372,-1.46,-1.00,-1.41,0.33,-1.13,0.55,
0.372,-1.46,-1.00,-1.41,0.34,-1.06,0.56,
0.372,-1.46,-1.00,-1.41,0.34,-1.00,0.58,
0.373,-1.46,-1.00,-1.41,0.34,-0.98,0.59,
0.373,-1.46,-1.00,-1.41,0.34,-0.97,0.61,
0.374,-1.18,-0.67,-1.68,0.34,-0.97,0.61,
0.374,-1.18,-0.67,-1.68,0.33,-0.97,0.64,
0.375,-1.18,-0.67,-1.68,0.32,-0.98,0.66,
0.379,-1.18,-0.67,-1.68,0.32,-1.01,0.70,
0.403,-1.18,-0.67,-1.68,0.32,-1.03,0.72,
0.403,-1.18,-0.67,-1.68,0.32,-1.05,0.75,
0.404,-0.84,-0.47,-1.00,0.32,-1.05,0.75,
0.404,-0.84,-0.47,-1.00,0.33,-1.08,0.78,
0.404,-0.84,-0.47,-1.00,0.33,-1.10,0.82,
0.405,-0.84,-0.47,-1.00,0.34,-1.11,0.88,
0.405,-0.84,-0.47,-1.00,0.35,-1.11,0.89,
0.406,-0.84,-0.47,-1.00,0.35,-1.10,0.93,
0.406,-0.68,-0.31,-0.33,0.35,-1.10,0.93,
0.406,-0.68,-0.31,-0.33,0.36,-1.10,0.97,
0.407,-0.68,-0.31,-0.33,0.37,-1.09,1.00,
0.407,-0.68,-0.31,-0.33,0.38,-1.06,1.05,
0.408,-0.68,-0.31,-0.33,0.38,-1.05,1.07,
0.408,-0.68,-0.31,-0.33,0.38,-1.03,1.10,
0.408,-0.45,-0.44,-0.07,0.38,-1.03,1.10,
0.409,-0.45,-0.44,-0.07,0.38,-1.02,1.13,
0.409,-0.45,-0.44,-0.07,0.38,-1.01,1.15,
0.41,-0.45,-0.44,-0.07,0.39,-1.00,1.19,
0.41,-0.45,-0.44,-0.07,0.39,-0.99,1.20,
0.418,-0.45,-0.44,-0.07,0.38,-0.99,1.21,
0.419,-0.16,-0.62,-0.17,0.38,-0.99,1.21,
0.419,-0.16,-0.62,-0.17,0.38,-0.98,1.22,
0.419,-0.16,-0.62,-0.17,0.39,-0.97,1.23,
0.42,-0.16,-0.62,-0.17,0.40,-0.94,1.24,
0.42,-0.16,-0.62,-0.17,0.40,-0.93,1.24,
0.423,-0.16,-0.62,-0.17,0.41,-0.91,1.25,
0.424,-0.00,-0.59,0.16,0.41,-0.91,1.25,
0.424,-0.00,-0.59,0.16,0.43,-0.87,1.26,
0.425,-0.00,-0.59,0.16,0.45,-0.83,1.27,
0.435,-0.00,-0.59,0.16,0.47,-0.77,1.28,
0.436,-0.00,-0.59,0.16,0.48,-0.75,1.29,
0.436,-0.00,-0.59,0.16,0.51,-0.72,1.31,
0.437,-0.62,-0.58,0.96,0.51,-0.72,1.31,
0.437,-0.62,-0.58,0.96,0.54,-0.69,1.34,
0.437,-0.62,-0.58,0.96,0.57,-0.65,1.36,
0.439,-0.62,-0.58,0.96,0.61,-0.60,1.41,
0.44,-0.62,-0.58,0.96,0.63,-0.58,1.43,
0.441,-0.62,-0.58,0.96,0.67,-0.56,1.46,
0.45,-1.42,-0.91,2.00,0.67,-0.56,1.46,
0.45,-1.42,-0.91,2.00,0.70,-0.55,1.50,
0.451,-1.42,-0.91,2.00,0.73,-0.57,1.54,
0.451,-1.42,-0.91,2.00,0.76,-0.65,1.60,
0.453,-1.42,-0.91,2.00,0.77,-0.69,1.62,
0.454,-1.42,-0.91,2.00,0.80,-0.78,1.66,
0.454,-1.80,-1.25,2.46,0.80,-0.78,1.66,
0.455,-1.80,-1.25,2.46,0.81,-0.88,1.71,
0.456,-1.80,-1.25,2.46,0.82,-1.00,1.75,
0.459,-1.80,-1.25,2.46,0.82,-1.18,1.82,
0.467,-1.80,-1.25,2.46,0.82,-1.23,1.84,
0.467,-1.80,-1.25,2.46,0.80,-1.31,1.88,
0.468,-1.83,-1.18,2.13,0.80,-1.31,1.88,
0.468,-1.83,-1.18,2.13,0.77,-1.38,1.92,
0.468,-1.83,-1.18,2.13,0.74,-1.46,1.95,
0.503,-1.83,-1.18,2.13,0.67,-1.59,2.01,
0.504,-1.83,-1.18,2.13,0.65,-1.63,2.03,
0.504,-1.83,-1.18,2.13,0.59,-1.69,2.07,
0.504,-1.37,-0.73,0.64,0.59,-1.69,2.07,
0.504,-1.37,-0.73,0.64,0.52,-1.74,2.11,
0.505,-1.37,-0.73,0.64,0.46,-1.77,2.16,
0.505,-1.37,-0.73,0.64,0.35,-1.82,2.22,
0.505,-1.37,-0.73,0.64,0.32,-1.83,2.24,
0.511,-1.37,-0.73,0.64,0.25,-1.85,2.29,
0.511,-1.37,-0.21,-0.85,0.25,-1.85,2.29,
0.511,-1.37,-0.21,-0.85,0.18,-1.85,2.33,
0.511,-1.37,-0.21,-0.85,0.12,-1.85,2.38,
0.512,-1.37,-0.21,-0.85,0.03,-1.85,2.46,
0.512,-1.37,-0.21,-0.85,-0.02,-1.85,2.50,
0.512,-1.37,-0.21,-0.85,-0.05,-1.85,2.53,
0.512,-1.41,-0.06,-1.33,-0.05,-1.85,2.53,
0.512,-1.41,-0.06,-1.33,-0.09,-1.84,2.57,
0.512,-1.41,-0.06,-1.33,-0.12,-1.84,2.61,
0.513,-1.41,-0.06,-1.33,-0.16,-1.81,2.66,
0.513,-1.41,-0.06,-1.33,-0.18,-1.80,2.67,
0.513,-1.41,-0.06,-1.33,-0.20,-1.76,2.68,
0.513,-1.19,-0.61,-0.71,-0.20,-1.76,2.68,
0.513,-1.19,-0.61,-0.71,-0.22,-1.71,2.70,
0.514,-1.19,-0.61,-0.71,-0.24,-1.65,2.70,
0.514,-1.19,-0.61,-0.71,-0.28,-1.56,2.70,
0.514,-1.19,-0.61,-0.71,-0.29,-1.52,2.69,
0.514,-1.19,-0.61,-0.71,-0.32,-1.46,2.68,
0.514,-1.45,-1.47,-0.27,-0.32,-1.46,2.68,
0.514,-1.45,-1.47,-0.27,-0.35,-1.40,2.67,
0.528,-1.45,-1.47,-0.27,-0.38,-1.34,2.65,
0.528,-1.45,-1.47,-0.27,-0.42,-1.24,2.62,
0.529,-1.45,-1.47,-0.27,-0.43,-1.20,2.61,
0.529,-1.45,-1.47,-0.27,-0.46,-1.08,2.59,
0.529,-2.00,-1.72,0.17,-0.46,-1.08,2.59,
0.529,-2.00,-1.72,0.17,-0.51,-0.89,2.56,
0.529,-2.00,-1.72,0.17,-0.56,-0.72,2.53,
0.53,-2.00,-1.72,0.17,-0.65,-0.53,2.49,
0.547,-2.00,-1.72,0.17,-0.68,-0.49,2.47,
0.548,-2.00,-1.72,0.17,-0.74,-0.41,2.43,
0.548,-2.21,-1.00,-0.06,-0.74,-0.41,2.43,
0.548,-2.21,-1.00,-0.06,-0.80,-0.36,2.39,
0.548,-2.21,-1.00,-0.06,-0.84,-0.33,2.35,
0.548,-2.21,-1.00,-0.06,-0.90,-0.32,2.29,
0.549,-2.21,-1.00,-0.06,-0.91,-0.32,2.27,
0.549,-2.21,-1.00,-0.06,-0.93,-0.32,2.24,
0.549,-1.67,-0.11,0.37,-0.93,-0.32,2.24,
0.549,-1.67,-0.11,0.37,-0.94,-0.32,2.20,
0.567,-1.67,-0.11,0.37,-0.94,-0.32,2.16,
0.567,-1.67,-0.11,0.37,-0.93,-0.31,2.10,
0.567,-1.67,-0.11,0.37,-0.92,-0.30,2.08,
0.569,-1.67,-0.11,0.37,-0.90,-0.29,2.05,
0.569,-1.01,0.30,0.87,-0.90,-0.29,2.05,
0.569,-1.01,0.30,0.87,-0.89,-0.27,2.01,
0.569,-1.01,0.30,0.87,-0.86,-0.25,1.98,
0.57,-1.01,0.30,0.87,-0.81,-0.21,1.93,
0.57,-1.01,0.30,0.87,-0.79,-0.19,1.92,
0.57,-1.01,0.30,0.87,-0.76,-0.16,1.89,
0.571,-0.88,0.12,0.98,-0.76,-0.16,1.89,
0.571,-0.88,0.12,0.98,-0.73,-0.13,1.86,
0.571,-0.88,0.12,0.98,-0.68,-0.10,1.83,
0.571,-0.88,0.12,0.98,-0.62,-0.07,1.78,
0.572,-0.88,0.12,0.98,-0.60,-0.07,1.77,
0.572,-0.88,0.12,0.98,-0.55,-0.06,1.73,
0.578,-0.97,-0.27,1.51,-0.55,-0.06,1.73,
0.579,-0.97,-0.27,1.51,-0.49,-0.06,1.70,
0.579,-0.97,-0.27,1.51,-0.44,-0.05,1.66,
0.579,-0.97,-0.27,1.51,-0.34,-0.05,1.60,
0.58,-0.97,-0.27,1.51,-0.31,-0.04,1.58,
0.582,-0.97,-0.27,1.51,-0.25,-0.04,1.54,
0.583,-1.11,-1.20,2.78,-0.25,-0.04,1.54,
0.584,-1.11,-1.20,2.78,-0.19,-0.03,1.49,
0.585,-1.11,-1.20,2.78,-0.13,-0.03,1.44,
0.588,-1.11,-1.20,2.78,-0.04,-0.05,1.36,
0.589,-1.11,-1.20,2.78,-0.02,-0.07,1.34,
0.591,-1.11,-1.20,2.78,0.02,-0.11,1.29,
0.599,-0.76,-1.46,2.60,0.02,-0.11,1.29,
0.599,-0.76,-1.46,2.60,0.06,-0.15,1.26,
0.603,-0.76,-1.46,2.60,0.09,-0.18,1.22,
0.603,-0.76,-1.46,2.60,0.12,-0.22,1.17,
0.604,-0.76,-1.46,2.60,0.13,-0.23,1.16,
0.604,-0.76,-1.46,2.60,0.13,-0.23,1.13,
0.605,-0.54,-1.20,1.03,0.13,-0.23,1.13,
0.605,-0.54,-1.20,1.03,0.12,-0.24,1.10,
0.605,-0.54,-1.20,1.03,0.11,-0.23,1.07,
0.614,-0.54,-1.20,1.03,0.08,-0.22,1.03,
0.615,-0.54,-1.20,1.03,0.06,-0.21,1.01,
0.615,-0.54,-1.20,1.03,0.03,-0.18,0.99,
0.615,-0.38,-0.99,-0.90,0.03,-0.18,0.99,
0.615,-0.38,-0.99,-0.90,-0.01,-0.14,0.96,
0.616,-0.38,-0.99,-0.90,-0.05,-0.09,0.94,
0.624,-0.38,-0.99,-0.90,-0.12,0.00,0.92,
0.624,-0.38,-0.99,-0.90,-0.14,0.04,0.91,
0.624,-0.38,-0.99,-0.90,-0.19,0.10,0.90,
0.625,-0.76,-1.11,-2.29,-0.19,0.10,0.90,
0.625,-0.76,-1.11,-2.29,-0.24,0.16,0.89,
0.64,-0.76,-1.11,-2.29,-0.28,0.21,0.88,
0.641,-0.76,-1.11,-2.29,-0.35,0.28,0.88,
0.641,-0.76,-1.11,-2.29,-0.37,0.30,0.88,
0.641,-0.76,-1.11,-2.29,-0.42,0.33,0.89,
0.641,-1.71,-1.27,-2.81,-0.42,0.33,0.89,
0.641,-1.71,-1.27,-2.81,-0.46,0.36,0.90,
0.641,-1.71,-1.27,-2.81,-0.51,0.39,0.92,
0.641,-1.71,-1.27,-2.81,-0.59,0.45,0.94,
0.641,-1.71,-1.27,-2.81,-0.61,0.47,0.95,
0.651,-1.71,-1.27,-2.81,-0.67,0.50,0.98,
0.651,-2.40,-1.69,-3.38,-0.67,0.50,0.98,
0.651,-2.40,-1.69,-3.38,-0.75,0.57,1.01,
0.651,-2.40,-1.69,-3.38,-0.82,0.62,1.03,
0.651,-2.40,-1.69,-3.38,-0.88,0.67,1.05,
0.651,-2.40,-1.69,-3.38,-0.92,0.69,1.06,
0.651,-2.40,-1.69,-3.38,-0.98,0.74,1.07,
0.653,-2.40,-2.14,-4.08,-0.98,0.74,1.07,
0.653,-2.40,-2.14,-4.08,-1.06,0.79,1.08,
0.655,-2.40,-2.14,-4.08,-1.14,0.84,1.09,
0.659,-2.40,-2.14,-4.08,-1.26,0.91,1.11,
0.66,-2.40,-2.14,-4.08,-1.30,0.93,1.11,
0.663,-2.40,-2.14,-4.08,-1.39,0.98,1.11,
0.664,-2.00,-2.71,-4.51,-1.39,0.98,1.11,
0.664,-2.00,-2.71,-4.51,-1.48,1.01,1.11,
0.665,-2.00,-2.71,-4.51,-1.57,1.05,1.10,
0.668,-2.00,-2.71,-4.51,-1.71,1.09,1.09,
0.669,-2.00,-2.71,-4.51,-1.76,1.10,1.09,
0.671,-2.00,-2.71,-4.51,-1.86,1.12,1.08,
0.673,-1.50,-2.91,-4.53,-1.86,1.12,1.08,
0.674,-1.50,-2.91,-4.53,-1.97,1.13,1.07,
0.676,-1.50,-2.91,-4.53,-2.07,1.15,1.05,
0.678,-1.50,-2.91,-4.53,-2.23,1.19,1.02,
0.68,-1.50,-2.91,-4.53,-2.28,1.20,1.01,
0.681,-1.50,-2.91,-4.53,-2.38,1.22,0.99,
0.683,-0.69,-3.20,-4.26,-2.38,1.22,0.99,
0.684,-0.69,-3.20,-4.26,-2.48,1.25,0.96,
0.685,-0.69,-3.20,-4.26,-2.58,1.28,0.93,
0.688,-0.69,-3.20,-4.26,-2.73,1.31,0.88,
0.691,-0.69,-3.20,-4.26,-2.77,1.31,0.87,
0.691,-0.69,-3.20,-4.26,-2.87,1.33,0.83,
0.694,0.14,-3.13,-3.67,-2.87,1.33,0.83,
0.695,0.14,-3.13,-3.67,-2.96,1.35,0.80,
0.697,0.14,-3.13,-3.67,-3.05,1.37,0.76,
0.701,0.14,-3.13,-3.67,-3.18,1.39,0.71,
0.701,0.14,-3.13,-3.67,-3.22,1.40,0.69,
0.701,0.14,-3.13,-3.67,-3.30,1.41,0.66,
0.703,0.89,-3.13,-3.45,-3.30,1.41,0.66,
0.704,0.89,-3.13,-3.45,-3.38,1.43,0.62,
0.705,0.89,-3.13,-3.45,-3.45,1.45,0.59,
0.708,0.89,-3.13,-3.45,-3.55,1.48,0.54,
0.71,0.89,-3.13,-3.45,-3.58,1.50,0.53,
0.712,0.89,-3.13,-3.45,-3.64,1.52,0.50,
0.732,1.21,-2.72,-3.09,-3.64,1.52,0.50,
0.732,1.21,-2.72,-3.09,-3.70,1.54,0.47,
0.733,1.21,-2.72,-3.09,-3.75,1.55,0.46,
0.733,1.21,-2.72,-3.09,-3.82,1.55,0.43,
0.733,1.21,-2.72,-3.09,-3.86,1.56,0.43,
0.734,1.21,-2.72,-3.09,-3.88,1.56,0.42,
0.734,0.81,-2.37,-2.94,-3.88,1.56,0.42,
0.735,0.81,-2.37,-2.94,-3.92,1.56,0.43,
0.735,0.81,-2.37,-2.94,-3.95,1.56,0.43,
0.735,0.81,-2.37,-2.94,-4.00,1.55,0.44,
0.736,0.81,-2.37,-2.94,-4.01,1.55,0.45,
0.736,0.81,-2.37,-2.94,-4.04,1.55,0.47,
0.736,0.36,-2.07,-2.85,-4.04,1.55,0.47,
0.736,0.36,-2.07,-2.85,-4.06,1.56,0.49,
0.737,0.36,-2.07,-2.85,-4.09,1.57,0.51,
0.743,0.36,-2.07,-2.85,-4.13,1.59,0.56,
0.744,0.36,-2.07,-2.85,-4.15,1.59,0.57,
0.744,0.36,-2.07,-2.85,-4.18,1.61,0.60,
0.745,0.15,-2.19,-3.26,-4.18,1.61,0.60,
0.745,0.15,-2.19,-3.26,-4.21,1.62,0.63,
0.748,0.15,-2.19,-3.26,-4.24,1.63,0.66,
0.754,0.15,-2.19,-3.26,-4.30,1.65,0.70,
0.754,0.15,-2.19,-3.26,-4.33,1.65,0.72,
0.755,0.15,-2.19,-3.26,-4.35,1.66,0.73,
0.755,0.71,-2.50,-3.34,-4.35,1.66,0.73,
0.758,0.71,-2.50,-3.34,-4.39,1.67,0.74,
0.758,0.71,-2.50,-3.34,-4.42,1.67,0.75,
0.758,0.71,-2.50,-3.34,-4.48,1.66,0.75,
0.76,0.71,-2.50,-3.34,-4.50,1.66,0.75,
0.763,0.71,-2.50,-3.34,-4.53,1.64,0.75,
0.764,2.11,-2.82,-2.80,-4.53,1.64,0.75,
0.764,2.11,-2.82,-2.80,-4.56,1.61,0.74,
0.768,2.11,-2.82,-2.80,-4.60,1.58,0.73,
0.771,2.11,-2.82,-2.80,-4.64,1.50,0.70,
0.772,2.11,-2.82,-2.80,-4.68,1.44,0.67,
0.772,2.11,-2.82,-2.80,-4.69,1.41,0.66,
0.775,3.56,-2.98,-1.77,-4.69,1.41,0.66,
0.776,3.56,-2.98,-1.77,-4.72,1.34,0.63,
0.776,3.56,-2.98,-1.77,-4.75,1.27,0.59,
0.784,3.56,-2.98,-1.77,-4.78,1.16,0.52,
0.785,3.56,-2.98,-1.77,-4.80,1.13,0.50,
0.785,3.56,-2.98,-1.77,-4.82,1.06,0.45,
0.785,4.81,-2.74,-1.04,-4.82,1.06,0.45,
0.786,4.81,-2.74,-1.04,-4.84,1.01,0.39,
0.786,4.81,-2.74,-1.04,-4.85,0.95,0.33,
0.823,4.81,-2.74,-1.04,-4.88,0.88,0.24,
0.824,4.81,-2.74,-1.04,-4.88,0.84,0.18,
0.824,4.81,-2.74,-1.04,-4.89,0.81,0.16,
0.825,5.33,-1.92,-0.43,-4.89,0.81,0.16,
0.825,5.33,-1.92,-0.43,-4.89,0.77,0.10,
0.825,5.33,-1.92,-0.43,-4.89,0.74,0.06,
0.825,5.33,-1.92,-0.43,-4.89,0.69,-0.01,
0.826,5.33,-1.92,-0.43,-4.89,0.68,-0.03,
0.826,5.33,-1.92,-0.43,-4.89,0.65,-0.07,
0.826,4.98,-1.10,-0.15,-4.89,0.65,-0.07,
0.826,4.98,-1.10,-0.15,-4.88,0.63,-0.10,
0.826,4.98,-1.10,-0.15,-4.88,0.62,-0.13,
0.827,4.98,-1.10,-0.15,-4.86,0.60,-0.17,
0.827,4.98,-1.10,-0.15,-4.84,0.60,-0.19,
0.827,4.98,-1.10,-0.15,-4.83,0.60,-0.21,
0.827,4.64,-0.87,0.30,-4.83,0.60,-0.21,
0.828,4.64,-0.87,0.30,-4.82,0.59,-0.23,
0.828,4.64,-0.87,0.30,-4.80,0.59,-0.25,
0.828,4.64,-0.87,0.30,-4.78,0.58,-0.28,
0.828,4.64,-0.87,0.30,-4.77,0.58,-0.29,
0.829,4.64,-0.87,0.30,-4.75,0.57,-0.31,
0.829,4.72,-0.98,0.68,-4.75,0.57,-0.31,
0.829,4.72,-0.98,0.68,-4.73,0.57,-0.33,
0.83,4.72,-0.98,0.68,-4.71,0.57,-0.35,
0.83,4.72,-0.98,0.68,-4.68,0.58,-0.38,
0.836,4.72,-0.98,0.68,-4.66,0.60,-0.40,
0.837,4.72,-0.98,0.68,-4.65,0.60,-0.41,
0.837,4.89,-0.99,0.99,-4.65,0.60,-0.41,
0.837,4.89,-0.99,0.99,-4.63,0.62,-0.43,
0.837,4.89,-0.99,0.99,-4.61,0.64,-0.45,
0.838,4.89,-0.99,0.99,-4.58,0.67,-0.48,
0.839,4.89,-0.99,0.99,-4.57,0.67,-0.49,
0.842,4.89,-0.99,0.99,-4.55,0.69,-0.52,
0.849,4.86,-0.83,1.44,-4.55,0.69,-0.52,
0.849,4.86,-0.83,1.44,-4.52,0.70,-0.54,
0.849,4.86,-0.83,1.44,-4.50,0.71,-0.55,
0.849,4.86,-0.83,1.44,-4.46,0.73,-0.58,
0.85,4.86,-0.83,1.44,-4.44,0.75,-0.60,
0.851,4.86,-0.83,1.44,-4.42,0.76,-0.60,
0.854,4.53,-0.66,2.11,-4.42,0.76,-0.60,
0.854,4.53,-0.66,2.11,-4.40,0.78,-0.62,
0.856,4.53,-0.66,2.11,-4.37,0.80,-0.63,
0.859,4.53,-0.66,2.11,-4.33,0.85,-0.66,
0.86,4.53,-0.66,2.11,-4.32,0.86,-0.66,
0.864,4.53,-0.66,2.11,-4.30,0.89,-0.68,
0.864,4.38,-0.41,2.74,-4.30,0.89,-0.68,
0.865,4.38,-0.41,2.74,-4.27,0.91,-0.69,
0.865,4.38,-0.41,2.74,-4.24,0.93,-0.71,
0.869,4.38,-0.41,2.74,-4.20,0.97,-0.72,
0.869,4.38,-0.41,2.74,-4.19,0.97,-0.73,
0.873,4.38,-0.41,2.74,-4.16,0.99,-0.74,
0.873,4.19,-0.61,3.45,-4.16,0.99,-0.74,
0.873,4.19,-0.61,3.45,-4.13,1.00,-0.75,
0.878,4.19,-0.61,3.45,-4.11,1.01,-0.76,
0.884,4.19,-0.61,3.45,-4.06,1.02,-0.79,
0.906,4.19,-0.61,3.45,-4.04,1.02,-0.81,
0.906,4.19,-0.61,3.45,-4.03,1.02,-0.82,
0.906,4.52,-0.97,4.07,-4.03,1.02,-0.82,
0.908,4.52,-0.97,4.07,-4.01,1.02,-0.84,
0.908,4.52,-0.97,4.07,-3.99,1.01,-0.87,
0.908,4.52,-0.97,4.07,-3.97,1.00,-0.91,
0.909,4.52,-0.97,4.07,-3.96,1.00,-0.92,
0.909,4.52,-0.97,4.07,-3.95,0.99,-0.95,
0.909,4.90,-1.01,4.18,-3.95,0.99,-0.95,
0.909,4.90,-1.01,4.18,-3.95,0.98,-0.98,
0.91,4.90,-1.01,4.18,-3.95,0.97,-1.01,
0.91,4.90,-1.01,4.18,-3.95,0.95,-1.06,
0.91,4.90,-1.01,4.18,-3.95,0.94,-1.08,
0.91,4.90,-1.01,4.18,-3.96,0.92,-1.11,
0.911,4.93,-0.57,3.86,-3.96,0.92,-1.11,
0.911,4.93,-0.57,3.86,-3.96,0.90,-1.14,
0.911,4.93,-0.57,3.86,-3.97,0.87,-1.18,
0.911,4.93,-0.57,3.86,-3.97,0.82,-1.22,
0.911,4.93,-0.57,3.86,-3.97,0.78,-1.25,
0.912,4.93,-0.57,3.86,-3.96,0.75,-1.26,
0.915,4.60,-0.33,4.08,-3.96,0.75,-1.26,
0.915,4.60,-0.33,4.08,-3.96,0.70,-1.29,
0.916,4.60,-0.33,4.08,-3.95,0.64,-1.32,
0.925,4.60,-0.33,4.08,-3.94,0.56,-1.36,
0.925,4.60,-0.33,4.08,-3.93,0.50,-1.38,
0.925,4.60,-0.33,4.08,-3.93,0.48,-1.39,
0.926,4.29,0.02,4.30,-3.93,0.48,-1.39,
0.926,4.29,0.02,4.30,-3.92,0.43,-1.41,
0.926,4.29,0.02,4.30,-3.91,0.38,-1.43,
0.928,4.29,0.02,4.30,-3.89,0.32,-1.45,
0.929,4.29,0.02,4.30,-3.88,0.30,-1.46,
0.931,4.29,0.02,4.30,-3.87,0.26,-1.48,
0.934,3.93,0.37,4.27,-3.87,0.26,-1.48,
0.934,3.93,0.37,4.27,-3.84,0.22,-1.50,
0.935,3.93,0.37,4.27,-3.82,0.17,-1.52,
0.938,3.93,0.37,4.27,-3.77,0.09,-1.54,
0.939,3.93,0.37,4.27,-3.74,0.03,-1.57,
0.954,3.93,0.37,4.27,-3.71,0.00,-1.58,
0.954,3.88,0.92,4.85,-3.71,0.00,-1.58,
0.954,3.88,0.92,4.85,-3.67,-0.06,-1.59,
0.954,3.88,0.92,4.85,-3.62,-0.12,-1.61,
0.955,3.88,0.92,4.85,-3.54,-0.20,-1.64,
0.955,3.88,0.92,4.85,-3.48,-0.26,-1.65,
0.955,3.88,0.92,4.85,-3.45,-0.29,-1.66,
0.955,3.65,1.50,5.40,-3.45,-0.29,-1.66,
0.955,3.65,1.50,5.40,-3.38,-0.34,-1.67,
0.955,3.65,1.50,5.40,-3.31,-0.39,-1.69,
0.965,3.65,1.50,5.40,-3.07,-0.53,-1.73,
0.965,3.65,1.50,5.40,-3.07,-0.53,-1.73,
0.965,3.65,1.50,5.40,-3.07,-0.53,-1.73,
0.965,3.65,1.50,5.40,-2.95,-0.59,-1.74,
0.966,2.88,2.75,6.13,-2.95,-0.59,-1.74,
0.966,2.88,2.75,6.13,-2.90,-0.60,-1.74,
0.969,2.88,2.75,6.13,-2.76,-0.66,-1.74,
0.971,2.88,2.75,6.13,-2.66,-0.70,-1.74,
0.972,2.88,2.75,6.13,-2.61,-0.71,-1.73,
0.975,1.96,3.35,6.45,-2.61,-0.71,-1.73,
0.975,1.96,3.35,6.45,-2.51,-0.75,-1.72,
0.978,1.96,3.35,6.45,-2.40,-0.79,-1.71,
0.978,1.96,3.35,6.45,-2.23,-0.85,-1.69,
0.981,1.96,3.35,6.45,-2.12,-0.89,-1.67,
0.982,1.96,3.35,6.45,-2.06,-0.91,-1.66,
0.985,0.95,3.93,6.90,-2.06,-0.91,-1.66,
0.985,0.95,3.93,6.90,-1.94,-0.94,-1.63,
0.985,0.95,3.93,6.90,-1.82,-0.97,-1.60,
0.988,0.95,3.93,6.90,-1.63,-1.00,-1.55,
0.989,0.95,3.93,6.90,-1.50,-1.02,-1.51,
0.991,0.95,3.93,6.90,-1.44,-1.02,-1.49,
0.994,-0.04,4.22,6.92,-1.44,-1.02,-1.49,
0.995,-0.04,4.22,6.92,-1.17,-1.05,-1.40,
0.995,-0.04,4.22,6.92,-1.11,-1.05,-1.37,
0.998,-0.04,4.22,6.92,-0.98,-1.06,-1.32,
0.999,-0.04,4.22,6.92,-0.86,-1.07,-1.26,
1.001,-0.04,4.22,6.92,-0.79,-1.08,-1.23,
1.003,-0.93,4.46,6.60,-0.79,-1.08,-1.23,
1.003,-0.93,4.46,6.60,-0.67,-1.08,-1.18,
1.005,-0.93,4.46,6.60,-0.55,-1.08,-1.12,
1.01,-0.93,4.46,6.60,-0.37,-1.07,-1.04,
1.01,-0.93,4.46,6.60,-0.25,-1.06,-0.98,
1.011,-0.93,4.46,6.60,-0.20,-1.06,-0.95,
1.015,-1.59,4.35,5.75,-0.20,-1.06,-0.95,
1.015,-1.59,4.35,5.75,-0.08,-1.04,-0.90,
1.015,-1.59,4.35,5.75,0.03,-1.03,-0.84,
1.018,-1.59,4.35,5.75,0.19,-1.00,-0.76,
1.02,-1.59,4.35,5.75,0.30,-0.99,-0.71,
1.021,-1.59,4.35,5.75,0.35,-0.98,-0.69,
1.038,-1.87,4.14,5.38,0.35,-0.98,-0.69,
1.039,-1.87,4.14,5.38,0.45,-0.96,-0.64,
1.039,-1.87,4.14,5.38,0.54,-0.96,-0.60,
1.039,-1.87,4.14,5.38,0.68,-0.95,-0.54,
1.04,-1.87,4.14,5.38,0.76,-0.95,-0.51,
1.04,-1.87,4.14,5.38,0.80,-0.95,-0.49,
1.04,-1.71,3.34,4.55,0.80,-0.95,-0.49,
1.04,-1.71,3.34,4.55,0.88,-0.96,-0.46,
1.041,-1.71,3.34,4.55,0.95,-0.96,-0.44,
1.041,-1.71,3.34,4.55,1.05,-0.96,-0.41,
1.041,-1.71,3.34,4.55,1.10,-0.96,-0.40,
1.042,-1.71,3.34,4.55,1.13,-0.95,-0.39,
1.044,-1.28,2.75,3.85,1.13,-0.95,-0.39,
1.044,-1.28,2.75,3.85,1.19,-0.95,-0.39,
1.067,-1.28,2.75,3.85,1.23,-0.95,-0.38,
1.068,-1.28,2.75,3.85,1.30,-0.94,-0.38,
1.068,-1.28,2.75,3.85,1.34,-0.93,-0.39,
1.069,-1.28,2.75,3.85,1.37,-0.93,-0.39,
1.069,-1.03,2.39,3.07,1.37,-0.93,-0.39,
1.07,-1.03,2.39,3.07,1.41,-0.92,-0.39,
1.07,-1.03,2.39,3.07,1.44,-0.91,-0.40,
1.07,-1.03,2.39,3.07,1.50,-0.90,-0.41,
1.071,-1.03,2.39,3.07,1.54,-0.88,-0.42,
1.071,-1.03,2.39,3.07,1.55,-0.88,-0.43,
1.072,-1.15,2.30,2.63,1.55,-0.88,-0.43,
1.072,-1.15,2.30,2.63,1.59,-0.86,-0.44,
1.072,-1.15,2.30,2.63,1.62,-0.84,-0.45,
1.073,-1.15,2.30,2.63,1.68,-0.82,-0.46,
1.073,-1.15,2.30,2.63,1.72,-0.80,-0.47,
1.074,-1.15,2.30,2.63,1.73,-0.79,-0.47,
1.074,-1.65,2.44,2.18,1.73,-0.79,-0.47,
1.074,-1.65,2.44,2.18,1.77,-0.76,-0.48,
1.076,-1.65,2.44,2.18,1.80,-0.74,-0.49,
1.082,-1.65,2.44,2.18,1.86,-0.70,-0.49,
1.083,-1.65,2.44,2.18,1.89,-0.68,-0.49,
1.083,-1.65,2.44,2.18,1.91,-0.67,-0.50,
1.084,-2.10,2.52,1.90,1.91,-0.67,-0.50,
1.084,-2.10,2.52,1.90,1.94,-0.64,-0.50,
1.085,-2.10,2.52,1.90,1.97,-0.62,-0.50,
1.088,-2.10,2.52,1.90,2.01,-0.57,-0.50,
1.091,-2.10,2.52,1.90,2.04,-0.54,-0.50,
1.091,-2.10,2.52,1.90,2.05,-0.52,-0.50,
1.094,-2.44,2.26,1.20,2.05,-0.52,-0.50,
1.094,-2.44,2.26,1.20,2.07,-0.47,-0.49,
1.096,-2.44,2.26,1.20,2.10,-0.43,-0.49,
1.098,-2.44,2.26,1.20,2.13,-0.36,-0.46,
1.099,-2.44,2.26,1.20,2.15,-0.31,-0.44,
1.101,-2.44,2.26,1.20,2.17,-0.29,-0.44,
1.103,-2.82,1.74,0.59,2.17,-0.29,-0.44,
1.104,-2.82,1.74,0.59,2.18,-0.24,-0.41,
1.106,-2.82,1.74,0.59,2.20,-0.21,-0.39,
1.108,-2.82,1.74,0.59,2.23,-0.15,-0.34,
1.11,-2.82,1.74,0.59,2.25,-0.12,-0.31,
1.111,-2.82,1.74,0.59,2.26,-0.10,-0.29,
1.114,-3.01,0.86,-0.02,2.26,-0.10,-0.29,
1.114,-3.01,0.86,-0.02,2.28,-0.08,-0.26,
1.115,-3.01,0.86,-0.02,2.28,-0.06,-0.22,
1.118,-3.01,0.86,-0.02,2.28,-0.04,-0.17,
1.12,-3.01,0.86,-0.02,2.28,-0.02,-0.12,
1.121,-3.01,0.86,-0.02,2.28,-0.01,-0.10,
1.128,-3.05,-0.15,-0.74,2.28,-0.01,-0.10,
1.129,-3.05,-0.15,-0.74,2.28,0.01,-0.06,
1.13,-3.05,-0.15,-0.74,2.27,0.02,-0.01,
1.13,-3.05,-0.15,-0.74,2.26,0.04,0.06,
1.131,-3.05,-0.15,-0.74,2.25,0.05,0.10,
1.132,-3.05,-0.15,-0.74,2.24,0.05,0.12,
1.134,-2.71,-1.17,-1.13,2.24,0.05,0.12,
1.135,-2.71,-1.17,-1.13,2.22,0.04,0.16,
1.136,-2.71,-1.17,-1.13,2.19,0.03,0.20,
1.138,-2.71,-1.17,-1.13,2.14,0.01,0.25,
1.145,-2.71,-1.17,-1.13,2.09,-0.01,0.28,
1.147,-2.71,-1.17,-1.13,2.07,-0.01,0.30,
1.152,-2.20,-1.98,-1.98,2.07,-0.01,0.30,
1.153,-2.20,-1.98,-1.98,2.02,-0.02,0.33,
1.154,-2.20,-1.98,-1.98,1.97,-0.02,0.37,
1.154,-2.20,-1.98,-1.98,1.88,-0.02,0.41,
1.154,-2.20,-1.98,-1.98,1.82,-0.02,0.44,
1.155,-2.20,-1.98,-1.98,1.79,-0.02,0.45,
1.155,-1.70,-2.18,-2.64,1.79,-0.02,0.45,
1.156,-1.70,-2.18,-2.64,1.71,-0.03,0.48,
1.156,-1.70,-2.18,-2.64,1.63,-0.05,0.50,
1.168,-1.70,-2.18,-2.64,1.51,-0.11,0.52,
1.169,-1.70,-2.18,-2.64,1.42,-0.16,0.53,
1.169,-1.70,-2.18,-2.64,1.38,-0.19,0.53,
1.169,-0.82,-2.58,-3.27,1.38,-0.19,0.53,
1.169,-0.82,-2.58,-3.27,1.30,-0.24,0.53,
1.169,-0.82,-2.58,-3.27,1.23,-0.31,0.52,
1.17,-0.82,-2.58,-3.27,1.10,-0.44,0.48,
1.17,-0.82,-2.58,-3.27,1.07,-0.48,0.47,
1.174,-0.82,-2.58,-3.27,1.04,-0.52,0.45,
1.212,0.12,-2.70,-2.38,1.04,-0.52,0.45,
1.213,0.12,-2.70,-2.38,0.98,-0.59,0.43,
1.213,0.12,-2.70,-2.38,0.94,-0.66,0.40,
1.213,0.12,-2.70,-2.38,0.88,-0.77,0.35,
1.213,0.12,-2.70,-2.38,0.84,-0.83,0.31,
1.213,0.12,-2.70,-2.38,0.81,-0.89,0.28,
1.214,0.77,-2.44,-1.58,0.81,-0.89,0.28,
1.214,0.77,-2.44,-1.58,0.79,-0.95,0.25,
1.214,0.77,-2.44,-1.58,0.77,-1.01,0.22,
1.214,0.77,-2.44,-1.58,0.76,-1.07,0.19,
1.214,0.77,-2.44,-1.58,0.76,-1.12,0.17,
1.215,0.77,-2.44,-1.58,0.76,-1.16,0.14,
1.215,0.71,-1.75,-0.68,0.76,-1.16,0.14,
1.215,0.71,-1.75,-0.68,0.78,-1.20,0.13,
1.215,0.71,-1.75,-0.68,0.81,-1.23,0.12,
1.215,0.71,-1.75,-0.68,0.85,-1.25,0.11,
1.216,0.71,-1.75,-0.68,0.91,-1.26,0.11,
1.216,0.71,-1.75,-0.68,0.99,-1.27,0.11,
1.216,0.31,-0.71,1.35,0.99,-1.27,0.11,
1.216,0.31,-0.71,1.35,1.08,-1.28,0.10,
1.216,0.31,-0.71,1.35,1.18,-1.31,0.09,
1.216,0.31,-0.71,1.35,1.26,-1.35,0.07,
1.217,0.31,-0.71,1.35,1.34,-1.38,0.05,
1.217,0.31,-0.71,1.35,1.40,-1.41,0.02,
1.235,1.44,-0.36,1.14,1.40,-1.41,0.02,
1.235,1.44,-0.36,1.14,1.45,-1.43,-0.01,
1.235,1.44,-0.36,1.14,1.49,-1.44,-0.03,
1.235,1.44,-0.36,1.14,1.52,-1.45,-0.04,
1.236,1.44,-0.36,1.14,1.55,-1.44,-0.04,
1.236,1.44,-0.36,1.14,1.58,-1.44,-0.04,
1.236,0.66,-0.67,0.16,1.58,-1.44,-0.04,
1.236,0.66,-0.67,0.16,1.62,-1.45,-0.03,
1.236,0.66,-0.67,0.16,1.67,-1.46,-0.02,
1.237,0.66,-0.67,0.16,1.73,-1.49,-0.01,
1.237,0.66,-0.67,0.16,1.78,-1.52,0.00,
1.237,0.66,-0.67,0.16,1.83,-1.56,0.02,
1.237,0.17,-1.13,1.20,1.83,-1.56,0.02,
1.238,0.17,-1.13,1.20,1.87,-1.60,0.04,
1.238,0.17,-1.13,1.20,1.90,-1.63,0.06,
1.242,0.17,-1.13,1.20,1.91,-1.66,0.09,
1.242,0.17,-1.13,1.20,1.92,-1.67,0.11,
1.242,0.17,-1.13,1.20,1.91,-1.68,0.14,
1.244,-0.12,-1.93,0.17,1.91,-1.68,0.14,
1.245,-0.12,-1.93,0.17,1.89,-1.68,0.17,
1.246,-0.12,-1.93,0.17,1.86,-1.67,0.20,
1.249,-0.12,-1.93,0.17,1.82,-1.65,0.24,
1.25,-0.12,-1.93,0.17,1.78,-1.63,0.26,
1.252,-0.12,-1.93,0.17,1.73,-1.62,0.29,
1.254,-0.48,-2.41,-1.14,1.73,-1.62,0.29,
1.257,-0.48,-2.41,-1.14,1.67,-1.61,0.32,
1.257,-0.48,-2.41,-1.14,1.61,-1.60,0.34,
1.259,-0.48,-2.41,-1.14,1.55,-1.59,0.36,
1.26,-0.48,-2.41,-1.14,1.49,-1.59,0.38,
1.261,-0.48,-2.41,-1.14,1.42,-1.60,0.39,
1.264,-0.55,-2.42,-1.59,1.42,-1.60,0.39,
1.264,-0.55,-2.42,-1.59,1.35,-1.60,0.41,
1.265,-0.55,-2.42,-1.59,1.28,-1.60,0.41,
1.269,-0.55,-2.42,-1.59,1.21,-1.60,0.42,
1.27,-0.55,-2.42,-1.59,1.13,-1.59,0.41,
1.271,-0.55,-2.42,-1.59,1.06,-1.59,0.41,
1.274,-0.55,-1.99,-1.83,1.06,-1.59,0.41,
1.274,-0.55,-1.99,-1.83,0.99,-1.58,0.40,
1.276,-0.55,-1.99,-1.83,0.93,-1.57,0.39,
1.28,-0.55,-1.99,-1.83,0.87,-1.55,0.37,
1.28,-0.55,-1.99,-1.83,0.81,-1.53,0.36,
1.281,-0.55,-1.99,-1.83,0.76,-1.51,0.35,
1.284,-0.72,-1.27,-1.71,0.76,-1.51,0.35,
1.284,-0.72,-1.27,-1.71,0.71,-1.50,0.33,
1.285,-0.72,-1.27,-1.71,0.67,-1.49,0.32,
1.296,-0.72,-1.27,-1.71,0.64,-1.47,0.31,
1.296,-0.72,-1.27,-1.71,0.61,-1.46,0.30,
1.296,-0.72,-1.27,-1.71,0.59,-1.45,0.29,
1.296,-1.09,-0.54,-1.17,0.59,-1.45,0.29,
1.296,-1.09,-0.54,-1.17,0.57,-1.43,0.29,
1.296,-1.09,-0.54,-1.17,0.56,-1.41,0.28,
1.298,-1.09,-0.54,-1.17,0.56,-1.39,0.29,
1.299,-1.09,-0.54,-1.17,0.56,-1.38,0.29,
1.302,-1.09,-0.54,-1.17,0.56,-1.36,0.29,
1.304,-1.31,-0.10,-0.75,0.56,-1.36,0.29,
1.304,-1.31,-0.10,-0.75,0.58,-1.34,0.30,
1.308,-1.31,-0.10,-0.75,0.60,-1.32,0.31,
1.308,-1.31,-0.10,-0.75,0.63,-1.31,0.32,
1.31,-1.31,-0.10,-0.75,0.66,-1.30,0.33,
1.311,-1.31,-0.10,-0.75,0.69,-1.29,0.34,
1.314,-0.91,0.13,-0.14,0.69,-1.29,0.34,
1.314,-0.91,0.13,-0.14,0.73,-1.30,0.35,
1.315,-0.91,0.13,-0.14,0.77,-1.32,0.35,
1.318,-0.91,0.13,-0.14,0.80,-1.33,0.37,
1.319,-0.91,0.13,-0.14,0.83,-1.35,0.39,
1.321,-0.91,0.13,-0.14,0.86,-1.37,0.42,
1.323,-1.04,0.16,-0.08,0.86,-1.37,0.42,
1.324,-1.04,0.16,-0.08,0.88,-1.39,0.45,
1.325,-1.04,0.16,-0.08,0.90,-1.41,0.49,
1.328,-1.04,0.16,-0.08,0.92,-1.42,0.54,
1.33,-1.04,0.16,-0.08,0.94,-1.44,0.60,
1.331,-1.04,0.16,-0.08,0.96,-1.46,0.66,
1.333,-1.64,0.47,-0.06,0.96,-1.46,0.66,
1.333,-1.64,0.47,-0.06,0.98,-1.48,0.73,
1.335,-1.64,0.47,-0.06,1.01,-1.49,0.80,
1.338,-1.64,0.47,-0.06,1.03,-1.50,0.87,
1.339,-1.64,0.47,-0.06,1.04,-1.52,0.94,
1.342,-1.64,0.47,-0.06,1.04,-1.54,1.02,
1.344,-2.36,-0.35,-0.32,1.04,-1.54,1.02,
1.345,-2.36,-0.35,-0.32,1.02,-1.56,1.13,
1.345,-2.36,-0.35,-0.32,1.02,-1.57,1.16,
1.348,-2.36,-0.35,-0.32,1.00,-1.57,1.23,
1.349,-2.36,-0.35,-0.32,0.98,-1.56,1.29,
1.351,-2.36,-0.35,-0.32,0.95,-1.55,1.34,
1.353,-2.43,-1.21,-1.02,0.95,-1.55,1.34,
1.354,-2.43,-1.21,-1.02,0.93,-1.53,1.38,
1.355,-2.43,-1.21,-1.02,0.91,-1.52,1.41,
1.359,-2.43,-1.21,-1.02,0.88,-1.51,1.43,
1.36,-2.43,-1.21,-1.02,0.85,-1.51,1.44,
1.361,-2.43,-1.21,-1.02,0.83,-1.53,1.45,
1.364,-1.26,-1.28,-1.14,0.83,-1.53,1.45,
1.364,-1.26,-1.28,-1.14,0.80,-1.55,1.44,
1.365,-1.26,-1.28,-1.14,0.78,-1.57,1.44,
1.368,-1.26,-1.28,-1.14,0.78,-1.61,1.43,
1.369,-1.26,-1.28,-1.14,0.79,-1.62,1.42,
1.371,-1.26,-1.28,-1.14,0.80,-1.64,1.42,
1.376,-1.05,-0.16,0.03,0.80,-1.64,1.42,
1.376,-1.05,-0.16,0.03,0.82,-1.67,1.44,
1.376,-1.05,-0.16,0.03,0.83,-1.70,1.47,
1.378,-1.05,-0.16,0.03,0.85,-1.71,1.52,
1.401,-1.05,-0.16,0.03,0.86,-1.72,1.57,
1.402,-1.05,-0.16,0.03,0.86,-1.73,1.62,
1.402,-2.84,-0.09,0.30,0.86,-1.73,1.62,
1.402,-2.84,-0.09,0.30,0.86,-1.73,1.69,
1.402,-2.84,-0.09,0.30,0.86,-1.72,1.76,
1.403,-2.84,-0.09,0.30,0.85,-1.69,1.83,
1.403,-2.84,-0.09,0.30,0.84,-1.64,1.90,
1.403,-2.84,-0.09,0.30,0.82,-1.59,1.96,
1.403,-3.27,-0.12,-0.20,0.82,-1.59,1.96,
1.404,-3.27,-0.12,-0.20,0.80,-1.56,2.02,
1.404,-3.27,-0.12,-0.20,0.78,-1.53,2.08,
1.404,-3.27,-0.12,-0.20,0.76,-1.50,2.13,
1.404,-3.27,-0.12,-0.20,0.73,-1.45,2.17,
1.405,-3.27,-0.12,-0.20,0.69,-1.38,2.21,
1.405,-2.51,-0.15,-0.80,0.69,-1.38,2.21,
1.405,-2.51,-0.15,-0.80,0.65,-1.32,2.25,
1.405,-2.51,-0.15,-0.80,0.60,-1.25,2.29,
1.41,-2.51,-0.15,-0.80,0.55,-1.18,2.32,
1.411,-2.51,-0.15,-0.80,0.50,-1.11,2.34,
1.411,-2.51,-0.15,-0.80,0.45,-1.07,2.37,
1.413,-1.71,0.04,-1.53,0.45,-1.07,2.37,
1.414,-1.71,0.04,-1.53,0.40,-1.04,2.39,
1.415,-1.71,0.04,-1.53,0.36,-1.01,2.42,
1.418,-1.71,0.04,-1.53,0.31,-1.02,2.45,
1.419,-1.71,0.04,-1.53,0.29,-1.03,2.46,
1.421,-1.71,0.04,-1.53,0.27,-1.05,2.49,
1.424,-1.59,0.40,-0.67,0.27,-1.05,2.49,
1.424,-1.59,0.40,-0.67,0.25,-1.10,2.50,
1.425,-1.59,0.40,-0.67,0.24,-1.15,2.51,
1.429,-1.59,0.40,-0.67,0.22,-1.21,2.52,
1.429,-1.59,0.40,-0.67,0.22,-1.22,2.52,
1.431,-1.59,0.40,-0.67,0.21,-1.24,2.52,
1.433,-1.05,0.86,0.09,0.21,-1.24,2.52,
1.434,-1.05,0.86,0.09,0.21,-1.24,2.51,
1.435,-1.05,0.86,0.09,0.20,-1.23,2.49,
1.446,-1.05,0.86,0.09,0.18,-1.20,2.46,
1.446,-1.05,0.86,0.09,0.17,-1.18,2.45,
1.447,-1.05,0.86,0.09,0.16,-1.15,2.43,
1.447,0.13,1.15,-0.48,0.16,-1.15,2.43,
1.447,0.13,1.15,-0.48,0.14,-1.12,2.41,
1.447,0.13,1.15,-0.48,0.14,-1.09,2.39,
1.448,0.13,1.15,-0.48,0.12,-1.04,2.35,
1.449,0.13,1.15,-0.48,0.12,-1.02,2.34,
1.451,0.13,1.15,-0.48,0.11,-0.97,2.31,
1.454,0.59,0.99,-0.85,0.11,-0.97,2.31,
1.454,0.59,0.99,-0.85,0.11,-0.92,2.28,
1.481,0.59,0.99,-0.85,0.11,-0.84,2.24,
1.482,0.59,0.99,-0.85,0.13,-0.69,2.18,
1.482,0.59,0.99,-0.85,0.14,-0.64,2.15,
1.482,0.59,0.99,-0.85,0.15,-0.53,2.11,
1.482,0.96,0.50,-1.23,0.15,-0.53,2.11,
1.482,0.96,0.50,-1.23,0.17,-0.42,2.06,
1.483,0.96,0.50,-1.23,0.19,-0.29,2.01,
1.483,0.96,0.50,-1.23,0.21,-0.08,1.92,
1.483,0.96,0.50,-1.23,0.22,0.01,1.89,
1.483,0.96,0.50,-1.23,0.24,0.19,1.83,
1.483,1.34,-0.27,-2.06,0.24,0.19,1.83,
1.484,1.34,-0.27,-2.06,0.26,0.37,1.77,
1.484,1.34,-0.27,-2.06,0.28,0.54,1.71,
1.484,1.34,-0.27,-2.06,0.31,0.80,1.62,
1.484,1.34,-0.27,-2.06,0.32,0.89,1.59,
1.484,1.34,-0.27,-2.06,0.35,1.08,1.53,
1.484,1.31,-0.69,-2.38,0.35,1.08,1.53,
1.485,1.31,-0.69,-2.38,0.37,1.25,1.47,
1.485,1.31,-0.69,-2.38,0.40,1.41,1.42,
1.492,1.31,-0.69,-2.38,0.44,1.62,1.34,
1.493,1.31,-0.69,-2.38,0.46,1.70,1.32,
1.494,1.31,-0.69,-2.38,0.49,1.84,1.29,
1.495,0.71,-0.70,-1.91,0.49,1.84,1.29,
1.495,0.71,-0.70,-1.91,0.51,1.95,1.25,
1.496,0.71,-0.70,-1.91,0.52,2.05,1.23,
1.498,0.71,-0.70,-1.91,0.53,2.16,1.20,
1.5,0.71,-0.70,-1.91,0.53,2.20,1.19,
1.502,0.71,-0.70,-1.91,0.53,2.25,1.18,
1.504,-0.05,-0.41,-1.74,0.53,2.25,1.18,
1.504,-0.05,-0.41,-1.74,0.53,2.28,1.18,
1.507,-0.05,-0.41,-1.74,0.52,2.31,1.19,
1.509,-0.05,-0.41,-1.74,0.49,2.38,1.21,
1.51,-0.05,-0.41,-1.74,0.47,2.40,1.22,
1.512,-0.05,-0.41,-1.74,0.45,2.44,1.24,
1.514,-0.75,0.29,-1.55,0.45,2.44,1.24,
1.515,-0.75,0.29,-1.55,0.42,2.50,1.27,
1.515,-0.75,0.29,-1.55,0.40,2.56,1.30,
1.518,-0.75,0.29,-1.55,0.36,2.66,1.35,
1.521,-0.75,0.29,-1.55,0.35,2.70,1.36,
1.524,-0.75,0.29,-1.55,0.33,2.76,1.40,
1.526,-0.70,1.31,-0.82,0.33,2.76,1.40,
1.526,-0.70,1.31,-0.82,0.31,2.82,1.43,
1.527,-0.70,1.31,-0.82,0.29,2.89,1.47,
1.531,-0.70,1.31,-0.82,0.26,3.00,1.52,
1.531,-0.70,1.31,-0.82,0.26,3.03,1.54,
1.534,-0.70,1.31,-0.82,0.26,3.08,1.57,
1.535,-0.49,2.30,0.32,0.26,3.08,1.57,
1.535,-0.49,2.30,0.32,0.26,3.12,1.60,
1.536,-0.49,2.30,0.32,0.29,3.13,1.62,
1.538,-0.49,2.30,0.32,0.41,3.02,1.63,
1.539,-0.49,2.30,0.32,0.48,2.94,1.62,
1.541,-0.49,2.30,0.32,0.65,2.68,1.60,
1.544,0.38,2.18,6.59,0.65,2.68,1.60,
1.544,0.38,2.18,6.59,0.87,2.33,1.55,
1.562,0.38,2.18,6.59,1.12,1.90,1.50,
1.562,0.38,2.18,6.59,1.51,1.14,1.39,
1.563,0.38,2.18,6.59,1.63,0.86,1.35,
1.563,0.38,2.18,6.59,1.85,0.30,1.27,
1.563,1.66,0.71,12.34,1.85,0.30,1.27,
1.564,1.66,0.71,12.34,2.03,-0.26,1.19,
1.564,1.66,0.71,12.34,2.17,-0.79,1.11,
1.564,1.66,0.71,12.34,2.33,-1.51,0.98,
1.565,1.66,0.71,12.34,2.36,-1.73,0.94,
1.565,1.66,0.71,12.34,2.40,-2.11,0.87,
1.565,1.21,0.40,8.67,2.40,-2.11,0.87,
1.566,1.21,0.40,8.67,2.41,-2.44,0.79,
1.566,1.21,0.40,8.67,2.39,-2.71,0.72,
1.572,1.21,0.40,8.67,2.33,-3.00,0.63,
1.573,1.21,0.40,8.67,2.30,-3.07,0.60,
1.573,1.21,0.40,8.67,2.22,-3.18,0.54,
1.575,0.11,0.97,3.93,2.22,-3.18,0.54,
1.575,0.11,0.97,3.93,2.13,-3.24,0.49,
1.576,0.11,0.97,3.93,2.03,-3.26,0.45,
1.579,0.11,0.97,3.93,1.87,-3.23,0.39,
1.58,0.11,0.97,3.93,1.81,-3.20,0.38,
1.582,0.11,0.97,3.93,1.69,-3.13,0.36,
1.584,-1.05,1.74,1.22,1.69,-3.13,0.36,
1.584,-1.05,1.74,1.22,1.57,-3.03,0.34,
1.585,-1.05,1.74,1.22,1.44,-2.92,0.34,
1.589,-1.05,1.74,1.22,1.24,-2.75,0.35,
1.59,-1.05,1.74,1.22,1.17,-2.69,0.36,
1.592,-1.05,1.74,1.22,1.04,-2.58,0.38,
1.594,-1.99,2.25,-0.50,1.04,-2.58,0.38,
1.595,-1.99,2.25,-0.50,0.90,-2.46,0.41,
1.595,-1.99,2.25,-0.50,0.76,-2.36,0.44,
1.598,-1.99,2.25,-0.50,0.56,-2.20,0.51,
1.599,-1.99,2.25,-0.50,0.49,-2.15,0.53,
1.602,-1.99,2.25,-0.50,0.35,-2.05,0.58,
1.611,-2.57,2.52,-1.76,0.35,-2.05,0.58,
1.612,-2.57,2.52,-1.76,0.21,-1.95,0.64,
1.612,-2.57,2.52,-1.76,0.07,-1.86,0.69,
1.612,-2.57,2.52,-1.76,-0.13,-1.72,0.79,
1.613,-2.57,2.52,-1.76,-0.20,-1.67,0.82,
1.613,-2.57,2.52,-1.76,-0.34,-1.58,0.88,
1.614,-2.68,2.66,-2.43,-0.34,-1.58,0.88,
1.614,-2.68,2.66,-2.43,-0.46,-1.48,0.95,
1.616,-2.68,2.66,-2.43,-0.58,-1.38,1.01,
1.62,-2.68,2.66,-2.43,-0.76,-1.24,1.11,
1.638,-2.68,2.66,-2.43,-0.81,-1.19,1.14,
1.639,-2.68,2.66,-2.43,-0.91,-1.11,1.21,
1.639,-2.54,2.71,-2.26,-0.91,-1.11,1.21,
1.639,-2.54,2.71,-2.26,-1.01,-1.04,1.28,
1.639,-2.54,2.71,-2.26,-1.09,-0.97,1.35,
1.639,-2.54,2.71,-2.26,-1.19,-0.90,1.46,
1.639,-2.54,2.71,-2.26,-1.22,-0.88,1.50,
1.639,-2.54,2.71,-2.26,-1.27,-0.86,1.57,
1.64,-2.57,2.84,-1.01,-1.27,-0.86,1.57,
1.64,-2.57,2.84,-1.01,-1.31,-0.85,1.65,
1.64,-2.57,2.84,-1.01,-1.34,-0.87,1.73,
1.64,-2.57,2.84,-1.01,-1.36,-0.92,1.84,
1.64,-2.57,2.84,-1.01,-1.36,-0.94,1.88,
1.641,-2.57,2.84,-1.01,-1.36,-0.99,1.95,
1.644,-2.60,2.87,0.62,-1.36,-0.99,1.95,
1.644,-2.60,2.87,0.62,-1.34,-1.03,2.03,
1.645,-2.60,2.87,0.62,-1.32,-1.06,2.09,
1.648,-2.60,2.87,0.62,-1.27,-1.09,2.17,
1.649,-2.60,2.87,0.62,-1.25,-1.09,2.19,
1.651,-2.60,2.87,0.62,-1.20,-1.08,2.23,
1.653,-2.48,2.63,1.09,-1.20,-1.08,2.23,
1.654,-2.48,2.63,1.09,-1.14,-1.05,2.25,
1.656,-2.48,2.63,1.09,-1.08,-1.01,2.26,
1.659,-2.48,2.63,1.09,-0.98,-0.95,2.25,
1.659,-2.48,2.63,1.09,-0.95,-0.92,2.24,
1.661,-2.48,2.63,1.09,-0.88,-0.86,2.22,
1.664,-1.64,2.08,0.95,-0.88,-0.86,2.22,
1.664,-1.64,2.08,0.95,-0.81,-0.80,2.19,
1.665,-1.64,2.08,0.95,-0.74,-0.74,2.16,
1.669,-1.64,2.08,0.95,-0.63,-0.65,2.10,
1.669,-1.64,2.08,0.95,-0.60,-0.63,2.08,
1.671,-1.64,2.08,0.95,-0.54,-0.57,2.04,
1.674,-0.45,1.52,0.60,-0.54,-0.57,2.04,
1.674,-0.45,1.52,0.60,-0.47,-0.51,1.99,
1.676,-0.45,1.52,0.60,-0.41,-0.46,1.94,
1.678,-0.45,1.52,0.60,-0.33,-0.36,1.86,
1.679,-0.45,1.52,0.60,-0.31,-0.33,1.83,
1.681,-0.45,1.52,0.60,-0.26,-0.26,1.77,
1.683,0.52,1.15,0.46,-0.26,-0.26,1.77,
1.684,0.52,1.15,0.46,-0.21,-0.20,1.71,
1.685,0.52,1.15,0.46,-0.17,-0.13,1.65,
1.688,0.52,1.15,0.46,-0.10,-0.04,1.56,
1.69,0.52,1.15,0.46,-0.09,-0.02,1.54,
1.691,0.52,1.15,0.46,-0.05,0.03,1.48,
1.694,0.74,0.99,0.68,-0.05,0.03,1.48,
1.695,0.74,0.99,0.68,-0.00,0.09,1.41,
1.696,0.74,0.99,0.68,0.01,0.11,1.39,
1.698,0.74,0.99,0.68,0.05,0.16,1.35,
1.699,0.74,0.99,0.68,0.05,0.17,1.33,
1.701,0.74,0.99,0.68,0.06,0.17,1.31,
1.708,0.28,1.10,0.87,0.06,0.17,1.31,
1.708,0.28,1.10,0.87,0.07,0.15,1.30,
1.708,0.28,1.10,0.87,0.07,0.11,1.29,
1.709,0.28,1.10,0.87,0.08,0.03,1.29,
1.71,0.28,1.10,0.87,0.09,0.00,1.29,
1.711,0.28,1.10,0.87,0.09,-0.05,1.30,
1.733,-0.55,1.57,0.85,0.09,-0.05,1.30,
1.733,-0.55,1.57,0.85,0.10,-0.11,1.31,
1.733,-0.55,1.57,0.85,0.12,-0.16,1.33,
1.734,-0.55,1.57,0.85,0.14,-0.26,1.36,
1.734,-0.55,1.57,0.85,0.14,-0.29,1.37,
1.734,-0.55,1.57,0.85,0.14,-0.37,1.39,
1.735,-1.21,1.89,0.76,0.14,-0.37,1.39,
1.735,-1.21,1.89,0.76,0.13,-0.44,1.40,
1.735,-1.21,1.89,0.76,0.12,-0.51,1.42,
1.735,-1.21,1.89,0.76,0.12,-0.62,1.43,
1.736,-1.21,1.89,0.76,0.12,-0.66,1.43,
1.736,-1.21,1.89,0.76,0.09,-0.72,1.43,
1.736,-1.49,2.20,0.51,0.09,-0.72,1.43,
1.736,-1.49,2.20,0.51,0.08,-0.80,1.43,
1.737,-1.49,2.20,0.51,0.06,-0.89,1.43,
1.741,-1.49,2.20,0.51,-0.01,-1.03,1.43,
1.742,-1.49,2.20,0.51,-0.04,-1.08,1.43,
1.742,-1.49,2.20,0.51,-0.10,-1.19,1.44,
1.745,-1.90,2.61,-0.19,-0.10,-1.19,1.44,
1.746,-1.90,2.61,-0.19,-0.18,-1.32,1.45,
1.746,-1.90,2.61,-0.19,-0.27,-1.45,1.47,
1.748,-1.90,2.61,-0.19,-0.42,-1.66,1.50,
1.75,-1.90,2.61,-0.19,-0.47,-1.74,1.51,
1.754,-1.90,2.61,-0.19,-0.59,-1.88,1.54,
1.754,-2.53,3.37,-1.13,-0.59,-1.88,1.54,
1.754,-2.53,3.37,-1.13,-0.72,-2.01,1.57,
1.756,-2.53,3.37,-1.13,-0.85,-2.13,1.60,
1.759,-2.53,3.37,-1.13,-1.07,-2.29,1.66,
1.76,-2.53,3.37,-1.13,-1.14,-2.34,1.69,
1.762,-2.53,3.37,-1.13,-1.29,-2.43,1.73,
1.765,-3.19,3.97,-2.50,-1.29,-2.43,1.73,
1.765,-3.19,3.97,-2.50,-1.44,-2.51,1.77,
1.766,-3.19,3.97,-2.50,-1.60,-2.58,1.80,
1.769,-3.19,3.97,-2.50,-1.82,-2.65,1.85,
1.769,-3.19,3.97,-2.50,-1.89,-2.67,1.87,
1.771,-3.19,3.97,-2.50,-2.04,-2.71,1.91,
1.774,-3.35,4.47,-3.30,-2.04,-2.71,1.91,
1.775,-3.35,4.47,-3.30,-2.18,-2.74,1.95,
1.775,-3.35,4.47,-3.30,-2.32,-2.76,1.99,
1.778,-3.35,4.47,-3.30,-2.51,-2.78,2.05,
1.779,-3.35,4.47,-3.30,-2.57,-2.79,2.08,
1.781,-3.35,4.47,-3.30,-2.68,-2.81,2.13,
1.784,-3.70,4.90,-3.71,-2.68,-2.81,2.13,
1.784,-3.70,4.90,-3.71,-2.77,-2.83,2.18,
1.786,-3.70,4.90,-3.71,-2.85,-2.86,2.23,
1.788,-3.70,4.90,-3.71,-2.96,-2.93,2.32,
1.79,-3.70,4.90,-3.71,-2.97,-2.96,2.36,
1.792,-3.70,4.90,-3.71,-3.01,-3.02,2.43,
1.794,-3.87,5.10,-2.76,-3.01,-3.02,2.43,
1.796,-3.87,5.10,-2.76,-3.02,-3.10,2.49,
1.797,-3.87,5.10,-2.76,-3.01,-3.18,2.57,
1.799,-3.87,5.10,-2.76,-2.97,-3.32,2.67,
1.8,-3.87,5.10,-2.76,-2.95,-3.37,2.70,
1.802,-3.87,5.10,-2.76,-2.89,-3.47,2.77,
1.807,-4.02,5.03,-0.91,-2.89,-3.47,2.77,
1.808,-4.02,5.03,-0.91,-2.82,-3.57,2.83,
1.808,-4.02,5.03,-0.91,-2.73,-3.66,2.89,
1.81,-4.02,5.03,-0.91,-2.55,-3.76,2.97,
1.811,-4.02,5.03,-0.91,-2.48,-3.79,3.00,
1.812,-4.02,5.03,-0.91,-2.32,-3.83,3.04,
1.815,-3.64,5.09,2.22,-2.32,-3.83,3.04,
1.816,-3.64,5.09,2.22,-2.15,-3.84,3.08,
1.816,-3.64,5.09,2.22,-1.98,-3.83,3.11,
1.819,-3.64,5.09,2.22,-1.72,-3.77,3.15,
1.821,-3.64,5.09,2.22,-1.64,-3.74,3.16,
1.822,-3.64,5.09,2.22,-1.47,-3.64,3.18,
1.824,-3.28,5.24,4.20,-1.47,-3.64,3.18,
1.824,-3.28,5.24,4.20,-1.31,-3.52,3.19,
1.826,-3.28,5.24,4.20,-1.18,-3.36,3.20,
1.83,-3.28,5.24,4.20,-1.03,-3.05,3.21,
1.83,-3.28,5.24,4.20,-0.99,-2.93,3.21,
1.832,-3.28,5.24,4.20,-0.93,-2.69,3.21,
1.834,-2.75,5.65,2.69,-0.93,-2.69,3.21,
1.834,-2.75,5.65,2.69,-0.89,-2.46,3.21,
1.836,-2.75,5.65,2.69,-0.86,-2.23,3.20,
1.839,-2.75,5.65,2.69,-0.81,-1.82,3.16,
1.841,-2.75,5.65,2.69,-0.81,-1.66,3.15,
1.842,-2.75,5.65,2.69,-0.80,-1.34,3.12,
1.847,-0.51,2.93,0.88,-0.80,-1.34,3.12,
1.847,-0.51,2.93,0.88,-0.81,-1.00,3.09,
1.848,-0.51,2.93,0.88,-0.82,-0.66,3.06,
1.85,-0.51,2.93,0.88,-0.85,-0.11,3.04,
1.85,-0.51,2.93,0.88,-0.86,0.08,3.03,
1.852,-0.51,2.93,0.88,-0.89,0.48,3.05,
1.86,1.58,-5.96,-1.12,-0.89,0.48,3.05,
1.861,1.58,-5.96,-1.12,-0.93,0.91,3.09,
1.861,1.58,-5.96,-1.12,-0.98,1.33,3.16,
1.861,1.58,-5.96,-1.12,-1.02,1.93,3.33,
1.861,1.58,-5.96,-1.12,-1.03,2.11,3.40,
1.861,1.58,-5.96,-1.12,-1.02,2.43,3.57,
1.864,-0.31,-17.20,-0.76,-1.02,2.43,3.57,
1.865,-0.31,-17.20,-0.76,-1.01,2.69,3.77,
1.866,-0.31,-17.20,-0.76,-0.97,2.88,4.00,
1.869,-0.31,-17.20,-0.76,-0.89,3.07,4.40,
1.87,-0.31,-17.20,-0.76,-0.86,3.11,4.53,
1.884,-0.31,-17.20,-0.76,-0.80,3.14,4.81,
1.885,-3.72,-29.95,3.18,-0.80,3.14,4.81,
1.885,-3.72,-29.95,3.18,-0.72,3.11,5.08,
1.885,-3.72,-29.95,3.18,-0.64,3.03,5.35,
1.885,-3.72,-29.95,3.18,-0.52,2.80,5.70,
1.902,-3.72,-29.95,3.18,-0.47,2.70,5.80,
1.902,-3.72,-29.95,3.18,-0.37,2.50,5.96,
1.903,-3.33,-37.49,6.18,-0.37,2.50,5.96,
1.903,-3.33,-37.49,6.18,-0.27,2.29,6.06,
1.903,-3.33,-37.49,6.18,-0.16,2.07,6.09,
1.903,-3.33,-37.49,6.18,0.01,1.74,6.04,
1.904,-3.33,-37.49,6.18,0.06,1.62,5.99,
1.904,-3.33,-37.49,6.18,0.18,1.40,5.86,
1.904,2.34,-33.18,7.66,0.18,1.40,5.86,
1.904,2.34,-33.18,7.66,0.29,1.18,5.70,
1.905,2.34,-33.18,7.66,0.40,0.96,5.50,
1.905,2.34,-33.18,7.66,0.55,0.67,5.15,
1.905,2.34,-33.18,7.66,0.60,0.58,5.03,
1.905,2.34,-33.18,7.66,0.70,0.41,4.77,
1.905,5.85,-21.66,7.34,0.70,0.41,4.77,
1.906,5.85,-21.66,7.34,0.79,0.25,4.51,
1.906,5.85,-21.66,7.34,0.86,0.11,4.25,
1.911,5.85,-21.66,7.34,0.98,-0.08,3.88,
1.912,5.85,-21.66,7.34,1.01,-0.14,3.76,
1.912,5.85,-21.66,7.34,1.07,-0.23,3.52,
1.914,5.53,-10.26,5.75,1.07,-0.23,3.52,
1.915,5.53,-10.26,5.75,1.13,-0.31,3.29,
1.916,5.53,-10.26,5.75,1.18,-0.37,3.06,
1.919,5.53,-10.26,5.75,1.24,-0.44,2.74,
1.921,5.53,-10.26,5.75,1.26,-0.45,2.64,
1.923,5.53,-10.26,5.75,1.29,-0.48,2.43,
1.924,4.62,-2.72,4.15,1.29,-0.48,2.43,
1.924,4.62,-2.72,4.15,1.32,-0.50,2.22,
1.925,4.62,-2.72,4.15,1.33,-0.51,2.03,
1.928,4.62,-2.72,4.15,1.37,-0.53,1.73,
1.929,4.62,-2.72,4.15,1.38,-0.53,1.64,
1.931,4.62,-2.72,4.15,1.39,-0.54,1.45,
1.934,3.44,1.60,2.95,1.39,-0.54,1.45,
1.934,3.44,1.60,2.95,1.41,-0.54,1.27,
1.935,3.44,1.60,2.95,1.43,-0.54,1.10,
1.939,3.44,1.60,2.95,1.45,-0.53,0.85,
1.939,3.44,1.60,2.95,1.46,-0.53,0.77,
1.941,3.44,1.60,2.95,1.48,-0.52,0.62,
1.944,2.07,3.75,2.33,1.48,-0.52,0.62,
1.944,2.07,3.75,2.33,1.50,-0.50,0.48,
1.945,2.07,3.75,2.33,1.52,-0.49,0.35,
1.948,2.07,3.75,2.33,1.55,-0.47,0.19,
1.949,2.07,3.75,2.33,1.56,-0.47,0.14,
1.953,2.07,3.75,2.33,1.59,-0.46,0.05,
1.955,-0.10,4.30,1.92,1.59,-0.46,0.05,
1.956,-0.10,4.30,1.92,1.62,-0.45,-0.02,
1.956,-0.10,4.30,1.92,1.65,-0.45,-0.08,
1.962,-0.10,4.30,1.92,1.77,-0.46,-0.14,
1.962,-0.10,4.30,1.92,1.77,-0.46,-0.14,
1.963,-0.10,4.30,1.92,1.77,-0.46,-0.14,
1.964,-0.10,4.30,1.92,1.83,-0.46,-0.13,
1.964,-3.16,3.47,2.14,1.83,-0.46,-0.13,
1.965,-3.16,3.47,2.14,1.89,-0.47,-0.11,
1.971,-3.16,3.47,2.14,2.03,-0.48,-0.03,
1.971,-3.16,3.47,2.14,2.09,-0.49,-0.00,
1.972,-3.16,3.47,2.14,2.22,-0.50,0.08,
1.974,-6.39,2.22,4.05,2.22,-0.50,0.08,
1.974,-6.39,2.22,4.05,2.35,-0.49,0.18,
1.975,-6.39,2.22,4.05,2.50,-0.49,0.29,
1.978,-6.39,2.22,4.05,2.72,-0.47,0.48,
1.979,-6.39,2.22,4.05,2.80,-0.47,0.55,
1.981,-6.39,2.22,4.05,2.96,-0.45,0.69,
1.983,-9.25,0.94,5.38,2.96,-0.45,0.69,
1.983,-9.25,0.94,5.38,3.10,-0.44,0.84,
1.985,-9.25,0.94,5.38,3.24,-0.43,0.99,
1.988,-9.25,0.94,5.38,3.44,-0.41,1.22,
1.989,-9.25,0.94,5.38,3.49,-0.40,1.30,
1.991,-9.25,0.94,5.38,3.60,-0.38,1.45,
1.993,-9.93,-0.27,4.04,3.60,-0.38,1.45,
1.994,-9.93,-0.27,4.04,3.69,-0.36,1.60,
1.995,-9.93,-0.27,4.04,3.76,-0.33,1.74,
1.998,-9.93,-0.27,4.04,3.84,-0.27,1.93,
1.999,-9.93,-0.27,4.04,3.86,-0.26,1.99,
2.001,-9.93,-0.27,4.04,3.88,-0.22,2.10,
2.005,-8.78,-1.25,1.14,3.88,-0.22,2.10,
2.006,-8.78,-1.25,1.14,3.89,-0.20,2.21,
2.006,-8.78,-1.25,1.14,3.88,-0.21,2.30,
2.008,-8.78,-1.25,1.14,3.84,-0.26,2.41,
2.009,-8.78,-1.25,1.14,3.81,-0.28,2.45,
2.012,-8.78,-1.25,1.14,3.76,-0.35,2.51,
2.014,-6.50,-2.19,-2.03,3.76,-0.35,2.51,
2.014,-6.50,-2.19,-2.03,3.69,-0.42,2.56,
2.015,-6.50,-2.19,-2.03,3.60,-0.51,2.60,
2.018,-6.50,-2.19,-2.03,3.45,-0.67,2.65,
2.026,-6.50,-2.19,-2.03,3.39,-0.72,2.66,
2.026,-6.50,-2.19,-2.03,3.28,-0.84,2.67,
2.027,-4.26,-2.77,-5.29,3.28,-0.84,2.67,
2.027,-4.26,-2.77,-5.29,3.15,-0.96,2.67,
2.027,-4.26,-2.77,-5.29,3.03,-1.09,2.68,
2.028,-4.26,-2.77,-5.29,2.84,-1.29,2.66,
2.029,-4.26,-2.77,-5.29,2.78,-1.36,2.66,
2.031,-4.26,-2.77,-5.29,2.65,-1.51,2.64,
2.033,-2.58,-3.18,-6.93,2.65,-1.51,2.64,
2.034,-2.58,-3.18,-6.93,2.52,-1.65,2.61,
2.036,-2.58,-3.18,-6.93,2.39,-1.81,2.58,
2.039,-2.58,-3.18,-6.93,2.20,-2.04,2.53,
2.04,-2.58,-3.18,-6.93,2.13,-2.12,2.51,
2.041,-2.58,-3.18,-6.93,2.00,-2.27,2.47,
2.044,-1.47,-3.44,-7.92,2.00,-2.27,2.47,
2.045,-1.47,-3.44,-7.92,1.82,-2.50,2.40,
2.061,-1.47,-3.44,-7.92,1.76,-2.57,2.38,
2.061,-1.47,-3.44,-7.92,1.58,-2.77,2.30,
2.062,-1.47,-3.44,-7.92,1.53,-2.84,2.28,
2.062,-1.47,-3.44,-7.92,1.42,-2.96,2.22,
2.062,-0.72,-3.43,-7.77,1.42,-2.96,2.22,
2.063,-0.72,-3.43,-7.77,1.32,-3.07,2.17,
2.063,-0.72,-3.43,-7.77,1.22,-3.17,2.11,
2.063,-0.72,-3.43,-7.77,1.10,-3.31,2.02,
2.063,-0.72,-3.43,-7.77,1.06,-3.35,1.99,
2.064,-0.72,-3.43,-7.77,0.98,-3.42,1.92,
2.064,-0.15,-3.19,-6.97,0.98,-3.42,1.92,
2.064,-0.15,-3.19,-6.97,0.91,-3.50,1.85,
2.067,-0.15,-3.19,-6.97,0.85,-3.57,1.78,
2.069,-0.15,-3.19,-6.97,0.76,-3.66,1.67,
2.069,-0.15,-3.19,-6.97,0.74,-3.69,1.64,
2.072,-0.15,-3.19,-6.97,0.69,-3.74,1.57,
2.076,0.30,-2.69,-5.99,0.69,-3.74,1.57,
2.077,0.30,-2.69,-5.99,0.64,-3.78,1.50,
2.077,0.30,-2.69,-5.99,0.60,-3.82,1.42,
2.078,0.30,-2.69,-5.99,0.54,-3.87,1.31,
2.079,0.30,-2.69,-5.99,0.53,-3.88,1.28,
2.081,0.30,-2.69,-5.99,0.50,-3.88,1.21,
2.083,0.49,-2.18,-5.35,0.50,-3.88,1.21,
2.084,0.49,-2.18,-5.35,0.47,-3.88,1.14,
2.086,0.49,-2.18,-5.35,0.46,-3.86,1.07,
2.088,0.49,-2.18,-5.35,0.44,-3.80,0.99,
2.089,0.49,-2.18,-5.35,0.44,-3.77,0.96,
2.091,0.49,-2.18,-5.35,0.44,-3.70,0.91,
2.093,0.21,-1.55,-4.48,0.44,-3.70,0.91,
2.094,0.21,-1.55,-4.48,0.45,-3.62,0.87,
2.095,0.21,-1.55,-4.48,0.48,-3.50,0.83,
2.098,0.21,-1.55,-4.48,0.65,-3.21,0.74,
2.099,0.21,-1.55,-4.48,0.74,-3.09,0.71,
2.101,0.21,-1.55,-4.48,0.92,-2.83,0.63,
2.104,1.57,-1.51,1.38,0.92,-2.83,0.63,
2.104,1.57,-1.51,1.38,1.11,-2.55,0.56,
2.106,1.57,-1.51,1.38,1.30,-2.27,0.49,
2.108,1.57,-1.51,1.38,1.58,-1.86,0.40,
2.109,1.57,-1.51,1.38,1.67,-1.73,0.38,
2.111,1.57,-1.51,1.38,1.83,-1.48,0.35,
2.113,1.74,-1.78,3.56,1.83,-1.48,0.35,
2.114,1.74,-1.78,3.56,1.97,-1.26,0.33,
2.115,1.74,-1.78,3.56,2.10,-1.06,0.32,
2.12,1.74,-1.78,3.56,2.24,-0.82,0.34,
2.12,1.74,-1.78,3.56,2.28,-0.74,0.36,
2.122,1.74,-1.78,3.56,2.34,-0.62,0.39,
2.124,0.03,-1.61,0.83,2.34,-0.62,0.39,
2.124,0.03,-1.61,0.83,2.38,-0.52,0.44,
2.125,0.03,-1.61,0.83,2.41,-0.43,0.50,
2.128,0.03,-1.61,0.83,2.43,-0.33,0.58,
2.129,0.03,-1.61,0.83,2.43,-0.30,0.62,
2.131,0.03,-1.61,0.83,2.43,-0.24,0.69,
2.133,-1.25,-1.25,-2.08,2.43,-0.24,0.69,
2.134,-1.25,-1.25,-2.08,2.43,-0.19,0.76,
2.149,-1.25,-1.25,-2.08,2.41,-0.16,0.84,
2.149,-1.25,-1.25,-2.08,2.38,-0.12,0.95,
2.15,-1.25,-1.25,-2.08,2.37,-0.11,0.99,
2.15,-1.25,-1.25,-2.08,2.34,-0.11,1.07,
2.15,-1.79,-1.05,-3.60,2.34,-0.11,1.07,
2.15,-1.79,-1.05,-3.60,2.32,-0.11,1.16,
2.15,-1.79,-1.05,-3.60,2.29,-0.11,1.24,
2.15,-1.79,-1.05,-3.60,2.24,-0.13,1.36,
2.151,-1.79,-1.05,-3.60,2.23,-0.14,1.40,
2.151,-1.79,-1.05,-3.60,2.20,-0.16,1.47,
2.19,-1.69,-0.88,-3.80,2.20,-0.16,1.47,
2.19,-1.69,-0.88,-3.80,2.18,-0.18,1.54,
2.19,-1.69,-0.88,-3.80,2.15,-0.21,1.61,
2.191,-1.69,-0.88,-3.80,2.12,-0.26,1.70,
2.191,-1.69,-0.88,-3.80,2.11,-0.28,1.72,
2.191,-1.69,-0.88,-3.80,2.10,-0.32,1.77,
2.191,-0.97,-0.43,-3.36,2.10,-0.32,1.77,
2.191,-0.97,-0.43,-3.36,2.09,-0.37,1.81,
2.191,-0.97,-0.43,-3.36,2.07,-0.42,1.85,
2.192,-0.97,-0.43,-3.36,2.05,-0.50,1.90,
2.192,-0.97,-0.43,-3.36,2.05,-0.52,1.91,
2.192,-0.97,-0.43,-3.36,2.03,-0.58,1.93,
2.192,-0.08,0.38,-2.82,2.03,-0.58,1.93,
2.192,-0.08,0.38,-2.82,2.02,-0.62,1.95,
2.192,-0.08,0.38,-2.82,2.00,-0.66,1.96,
2.193,-0.08,0.38,-2.82,1.98,-0.71,1.97,
2.193,-0.08,0.38,-2.82,1.97,-0.72,1.98,
2.193,-0.08,0.38,-2.82,1.95,-0.74,1.98,
2.193,0.56,0.80,-2.95,1.95,-0.74,1.98,
2.193,0.56,0.80,-2.95,1.93,-0.76,1.98,
2.193,0.56,0.80,-2.95,1.90,-0.78,1.98,
2.193,0.56,0.80,-2.95,1.85,-0.79,1.96,
2.194,0.56,0.80,-2.95,1.84,-0.79,1.96,
2.194,0.56,0.80,-2.95,1.80,-0.80,1.95,
2.194,0.90,0.84,-3.38,1.80,-0.80,1.95,
2.194,0.90,0.84,-3.38,1.76,-0.80,1.93,
2.206,0.90,0.84,-3.38,1.72,-0.81,1.92,
2.206,0.90,0.84,-3.38,1.65,-0.84,1.89,
2.206,0.90,0.84,-3.38,1.62,-0.85,1.88,
2.206,0.90,0.84,-3.38,1.58,-0.87,1.86,
2.206,1.06,0.85,-3.82,1.58,-0.87,1.86,
2.207,1.06,0.85,-3.82,1.52,-0.90,1.84,
2.207,1.06,0.85,-3.82,1.46,-0.93,1.82,
2.221,1.06,0.85,-3.82,1.37,-0.99,1.78,
2.222,1.06,0.85,-3.82,1.34,-1.00,1.77,
2.222,1.06,0.85,-3.82,1.27,-1.03,1.75,
2.237,1.27,0.91,-4.27,1.27,-1.03,1.75,
2.237,1.27,0.91,-4.27,1.20,-1.07,1.72,
2.237,1.27,0.91,-4.27,1.13,-1.10,1.69,
2.238,1.27,0.91,-4.27,1.02,-1.16,1.64,
2.24,1.27,0.91,-4.27,0.98,-1.18,1.62,
2.24,1.27,0.91,-4.27,0.90,-1.23,1.59,
2.24,1.65,0.92,-4.80,0.90,-1.23,1.59,
2.241,1.65,0.92,-4.80,0.82,-1.28,1.55,
2.241,1.65,0.92,-4.80,0.74,-1.33,1.51,
2.242,1.65,0.92,-4.80,0.62,-1.42,1.45,
2.242,1.65,0.92,-4.80,0.58,-1.44,1.43,
2.243,1.65,0.92,-4.80,0.50,-1.50,1.38,
2.243,2.09,1.24,-4.79,0.50,-1.50,1.38,
2.244,2.09,1.24,-4.79,0.43,-1.56,1.34,
2.244,2.09,1.24,-4.79,0.35,-1.62,1.30,
2.244,2.09,1.24,-4.79,0.23,-1.71,1.23,
2.244,2.09,1.24,-4.79,0.19,-1.74,1.20,
2.245,2.09,1.24,-4.79,0.11,-1.79,1.15,
2.25,2.53,1.49,-4.89,0.11,-1.79,1.15,
2.251,2.53,1.49,-4.89,0.03,-1.85,1.11,
2.251,2.53,1.49,-4.89,-0.06,-1.91,1.06,
2.251,2.53,1.49,-4.89,-0.18,-1.99,0.98,
2.251,2.53,1.49,-4.89,-0.22,-2.02,0.96,
2.258,2.53,1.49,-4.89,-0.29,-2.06,0.90,
2.258,2.91,1.80,-4.89,-0.29,-2.06,0.90,
2.258,2.91,1.80,-4.89,-0.37,-2.10,0.85,
2.259,2.91,1.80,-4.89,-0.45,-2.13,0.79,
2.259,2.91,1.80,-4.89,-0.56,-2.16,0.71,
2.26,2.91,1.80,-4.89,-0.59,-2.17,0.68,
2.261,2.91,1.80,-4.89,-0.67,-2.17,0.62,
2.264,3.46,2.22,-4.99,-0.67,-2.17,0.62,
2.264,3.46,2.22,-4.99,-0.73,-2.17,0.56,
2.265,3.46,2.22,-4.99,-0.80,-2.16,0.51,
2.272,3.46,2.22,-4.99,-0.90,-2.14,0.44,
2.273,3.46,2.22,-4.99,-0.93,-2.14,0.41,
2.274,3.46,2.22,-4.99,-0.99,-2.12,0.37,
2.275,3.56,2.79,-4.83,-0.99,-2.12,0.37,
2.275,3.56,2.79,-4.83,-1.06,-2.09,0.33,
2.276,3.56,2.79,-4.83,-1.12,-2.07,0.30,
2.279,3.56,2.79,-4.83,-1.21,-2.02,0.25,
2.28,3.56,2.79,-4.83,-1.23,-2.00,0.24,
2.285,3.56,2.79,-4.83,-1.29,-1.97,0.21,
2.294,3.61,3.02,-4.70,-1.29,-1.97,0.21,
2.295,3.61,3.02,-4.70,-1.34,-1.93,0.19,
2.295,3.61,3.02,-4.70,-1.39,-1.89,0.16,
2.295,3.61,3.02,-4.70,-1.46,-1.83,0.15,
2.295,3.61,3.02,-4.70,-1.49,-1.81,0.14,
2.296,3.61,3.02,-4.70,-1.54,-1.78,0.14,
2.296,3.35,3.33,-4.43,-1.54,-1.78,0.14,
2.296,3.35,3.33,-4.43,-1.58,-1.73,0.13,
2.298,3.35,3.33,-4.43,-1.62,-1.69,0.14,
2.298,3.35,3.33,-4.43,-1.68,-1.62,0.14,
2.3,3.35,3.33,-4.43,-1.69,-1.60,0.14,
2.318,3.35,3.33,-4.43,-1.73,-1.55,0.15,
2.319,3.12,3.30,-4.26,-1.73,-1.55,0.15,
2.319,3.12,3.30,-4.26,-1.76,-1.50,0.15,
2.319,3.12,3.30,-4.26,-1.79,-1.46,0.15,
2.319,3.12,3.30,-4.26,-1.84,-1.39,0.14,
2.319,3.12,3.30,-4.26,-1.85,-1.37,0.14,
2.32,3.12,3.30,-4.26,-1.88,-1.33,0.14,
2.32,3.32,3.38,-3.93,-1.88,-1.33,0.14,
2.32,3.32,3.38,-3.93,-1.92,-1.29,0.13,
2.32,3.32,3.38,-3.93,-1.95,-1.26,0.13,
2.321,3.32,3.38,-3.93,-1.99,-1.22,0.12,
2.321,3.32,3.38,-3.93,-2.01,-1.21,0.11,
2.324,3.32,3.38,-3.93,-2.05,-1.20,0.10,
2.324,3.47,3.33,-3.74,-2.05,-1.20,0.10,
2.324,3.47,3.33,-3.74,-2.08,-1.18,0.09,
2.326,3.47,3.33,-3.74,-2.12,-1.17,0.07,
2.329,3.47,3.33,-3.74,-2.18,-1.16,0.03,
2.329,3.47,3.33,-3.74,-2.20,-1.15,0.01,
2.334,3.47,3.33,-3.74,-2.24,-1.14,-0.02,
2.337,3.80,3.25,-3.26,-2.24,-1.14,-0.02,
2.337,3.80,3.25,-3.26,-2.28,-1.12,-0.06,
2.337,3.80,3.25,-3.26,-2.32,-1.10,-0.10,
2.339,3.80,3.25,-3.26,-2.38,-1.07,-0.17,
2.339,3.80,3.25,-3.26,-2.40,-1.05,-0.19,
2.342,3.80,3.25,-3.26,-2.44,-1.02,-0.25,
2.344,4.36,2.87,-2.50,-2.44,-1.02,-0.25,
2.344,4.36,2.87,-2.50,-2.48,-0.98,-0.30,
2.345,4.36,2.87,-2.50,-2.53,-0.94,-0.35,
2.35,4.36,2.87,-2.50,-2.59,-0.87,-0.43,
2.35,4.36,2.87,-2.50,-2.61,-0.84,-0.46,
2.352,4.36,2.87,-2.50,-2.66,-0.78,-0.51,
2.354,4.30,2.26,-1.28,-2.66,-0.78,-0.51,
2.354,4.30,2.26,-1.28,-2.70,-0.72,-0.56,
2.356,4.30,2.26,-1.28,-2.73,-0.65,-0.61,
2.359,4.30,2.26,-1.28,-2.79,-0.53,-0.68,
2.359,4.30,2.26,-1.28,-2.80,-0.50,-0.71,
2.361,4.30,2.26,-1.28,-2.83,-0.41,-0.75,
2.364,4.16,1.19,0.76,-2.83,-0.41,-0.75,
2.365,4.16,1.19,0.76,-2.86,-0.33,-0.79,
2.365,4.16,1.19,0.76,-2.88,-0.24,-0.83,
2.37,4.16,1.19,0.76,-2.90,-0.10,-0.88,
2.371,4.16,1.19,0.76,-2.91,-0.06,-0.89,
2.372,4.16,1.19,0.76,-2.91,0.03,-0.92,
2.375,3.67,-0.19,3.89,-2.91,0.03,-0.92,
2.376,3.67,-0.19,3.89,-2.90,0.13,-0.93,
2.376,3.67,-0.19,3.89,-2.89,0.21,-0.94,
2.378,3.67,-0.19,3.89,-2.84,0.33,-0.95,
2.395,3.67,-0.19,3.89,-2.82,0.36,-0.95,
2.395,3.67,-0.19,3.89,-2.76,0.43,-0.94,
2.395,2.95,-1.73,9.06,-2.76,0.43,-0.94,
2.396,2.95,-1.73,9.06,-2.69,0.48,-0.93,
2.396,2.95,-1.73,9.06,-2.59,0.53,-0.91,
2.396,2.95,-1.73,9.06,-2.41,0.59,-0.88,
2.396,2.95,-1.73,9.06,-2.34,0.61,-0.87,
2.397,2.95,-1.73,9.06,-2.19,0.64,-0.84,
2.397,2.29,-3.22,15.77,-2.19,0.64,-0.84,
2.397,2.29,-3.22,15.77,-1.93,0.66,-0.80,
2.397,2.29,-3.22,15.77,-1.84,0.66,-0.79,
2.402,2.29,-3.22,15.77,-1.58,0.62,-0.74,
2.403,2.29,-3.22,15.77,-1.49,0.60,-0.72,
2.403,2.29,-3.22,15.77,-1.32,0.53,-0.69,
2.405,2.24,-4.58,20.44,-1.32,0.53,-0.69,
2.405,2.24,-4.58,20.44,-1.17,0.42,-0.67,
2.405,2.24,-4.58,20.44,-1.03,0.29,-0.65,
2.408,2.24,-4.58,20.44,-0.86,0.04,-0.65,
2.409,2.24,-4.58,20.44,-0.82,-0.05,-0.66,
2.411,2.24,-4.58,20.44,-0.75,-0.24,-0.68,
2.414,2.88,-5.55,18.82,-0.75,-0.24,-0.68,
2.414,2.88,-5.55,18.82,-0.70,-0.44,-0.72,
2.415,2.88,-5.55,18.82,-0.68,-0.65,-0.75,
2.421,2.88,-5.55,18.82,-0.68,-0.95,-0.82,
2.422,2.88,-5.55,18.82,-0.69,-1.05,-0.84,
2.423,2.88,-5.55,18.82,-0.72,-1.24,-0.87,
2.424,2.93,-5.46,13.36,-0.72,-1.24,-0.87,
2.424,2.93,-5.46,13.36,-0.76,-1.41,-0.91,
2.425,2.93,-5.46,13.36,-0.81,-1.57,-0.94,
2.428,2.93,-5.46,13.36,-0.89,-1.78,-1.00,
2.43,2.93,-5.46,13.36,-0.91,-1.84,-1.02,
2.431,2.93,-5.46,13.36,-0.97,-1.93,-1.06,
2.433,2.20,-4.60,8.16,-0.97,-1.93,-1.06,
2.433,2.20,-4.60,8.16,-1.02,-2.00,-1.11,
2.439,2.20,-4.60,8.16,-1.07,-2.05,-1.15,
2.44,2.20,-4.60,8.16,-1.12,-2.05,-1.21,
2.44,2.20,-4.60,8.16,-1.14,-2.03,-1.24,
2.442,2.20,-4.60,8.16,-1.16,-1.97,-1.28,
2.443,1.42,-3.25,5.23,-1.16,-1.97,-1.28,
2.444,1.42,-3.25,5.23,-1.16,-1.89,-1.31,
2.445,1.42,-3.25,5.23,-1.16,-1.77,-1.35,
2.448,1.42,-3.25,5.23,-1.13,-1.56,-1.39,
2.449,1.42,-3.25,5.23,-1.11,-1.48,-1.40,
2.461,1.42,-3.25,5.23,-1.08,-1.30,-1.42,
2.461,0.29,-1.60,4.09,-1.08,-1.30,-1.42,
2.462,0.29,-1.60,4.09,-1.04,-1.10,-1.44,
2.462,0.29,-1.60,4.09,-0.98,-0.88,-1.46,
2.462,0.29,-1.60,4.09,-0.89,-0.53,-1.47,
2.462,0.29,-1.60,4.09,-0.86,-0.41,-1.48,
2.462,0.29,-1.60,4.09,-0.78,-0.17,-1.47,
2.464,-0.67,0.06,3.52,-0.78,-0.17,-1.47,
2.464,-0.67,0.06,3.52,-0.71,0.07,-1.46,
2.465,-0.67,0.06,3.52,-0.63,0.31,-1.44,
2.468,-0.67,0.06,3.52,-0.50,0.66,-1.40,
2.469,-0.67,0.06,3.52,-0.45,0.77,-1.38,
2.471,-0.67,0.06,3.52,-0.36,0.99,-1.33,
2.473,-2.19,0.99,3.03,-0.36,0.99,-1.33,
2.473,-2.19,0.99,3.03,-0.26,1.18,-1.28,
2.475,-2.19,0.99,3.03,-0.17,1.36,-1.23,
2.478,-2.19,0.99,3.03,-0.03,1.59,-1.13,
2.479,-2.19,0.99,3.03,0.01,1.65,-1.10,
2.481,-2.19,0.99,3.03,0.10,1.77,-1.03,
2.483,-4.16,0.46,3.31,0.10,1.77,-1.03,
2.483,-4.16,0.46,3.31,0.19,1.86,-0.96,
2.485,-4.16,0.46,3.31,0.28,1.93,-0.89,
2.488,-4.16,0.46,3.31,0.39,2.01,-0.78,
2.489,-4.16,0.46,3.31,0.42,2.03,-0.74,
2.491,-4.16,0.46,3.31,0.48,2.05,-0.67,
2.493,-5.76,-1.23,3.28,0.48,2.05,-0.67,
2.493,-5.76,-1.23,3.28,0.52,2.06,-0.60,
2.495,-5.76,-1.23,3.28,0.54,2.05,-0.53,
2.498,-5.76,-1.23,3.28,0.53,2.00,-0.43,
2.499,-5.76,-1.23,3.28,0.52,1.98,-0.41,
2.501,-5.76,-1.23,3.28,0.49,1.92,-0.35,
2.504,-6.99,-2.44,0.39,0.49,1.92,-0.35,
2.504,-6.99,-2.44,0.39,0.43,1.85,-0.31,
2.505,-6.99,-2.44,0.39,0.35,1.77,-0.27,
2.508,-6.99,-2.44,0.39,0.22,1.62,-0.22,
2.509,-6.99,-2.44,0.39,0.16,1.57,-0.21,
2.511,-6.99,-2.44,0.39,0.06,1.46,-0.19,
2.513,-7.01,-2.19,-3.85,0.06,1.46,-0.19,
2.514,-7.01,-2.19,-3.85,-0.06,1.33,-0.18,
2.515,-7.01,-2.19,-3.85,-0.17,1.20,-0.18,
2.519,-7.01,-2.19,-3.85,-0.34,0.97,-0.19,
2.52,-7.01,-2.19,-3.85,-0.39,0.89,-0.20,
2.522,-7.01,-2.19,-3.85,-0.49,0.72,-0.22,
2.524,-6.32,-0.71,-6.35,-0.49,0.72,-0.22,
2.525,-6.32,-0.71,-6.35,-0.59,0.53,-0.25,
2.525,-6.32,-0.71,-6.35,-0.66,0.33,-0.27,
2.528,-6.32,-0.71,-6.35,-0.76,0.00,-0.32,
2.529,-6.32,-0.71,-6.35,-0.79,-0.11,-0.34,
2.531,-6.32,-0.71,-6.35,-0.83,-0.35,-0.36,
2.535,-5.31,0.86,-6.34,-0.83,-0.35,-0.36,
2.536,-5.31,0.86,-6.34,-0.86,-0.60,-0.38,
2.536,-5.31,0.86,-6.34,-0.88,-0.84,-0.39,
2.54,-5.31,0.86,-6.34,-0.88,-1.21,-0.38,
2.54,-5.31,0.86,-6.34,-0.87,-1.34,-0.37,
2.541,-5.31,0.86,-6.34,-0.86,-1.58,-0.35,
2.544,-5.80,2.08,-5.69,-0.86,-1.58,-0.35,
2.544,-5.80,2.08,-5.69,-0.83,-1.82,-0.32,
2.557,-5.80,2.08,-5.69,-0.80,-2.05,-0.28,
2.557,-5.80,2.08,-5.69,-0.71,-2.41,-0.19,
2.557,-5.80,2.08,-5.69,-0.66,-2.53,-0.15,
2.558,-5.80,2.08,-5.69,-0.55,-2.78,-0.07,
2.558,-7.01,2.93,-2.91,-0.55,-2.78,-0.07,
2.558,-7.01,2.93,-2.91,-0.41,-3.02,0.02,
2.558,-7.01,2.93,-2.91,-0.24,-3.24,0.13,
2.559,-7.01,2.93,-2.91,0.03,-3.53,0.32,
2.577,-7.01,2.93,-2.91,0.13,-3.61,0.39,
2.578,-7.01,2.93,-2.91,0.33,-3.75,0.53,
2.578,-9.71,3.70,1.83,0.33,-3.75,0.53,
2.578,-9.71,3.70,1.83,0.54,-3.85,0.68,
2.579,-9.71,3.70,1.83,0.76,-3.90,0.84,
2.579,-9.71,3.70,1.83,1.08,-3.88,1.08,
2.579,-9.71,3.70,1.83,1.19,-3.84,1.17,
2.579,-9.71,3.70,1.83,1.39,-3.72,1.34,
2.58,-11.51,3.91,4.03,1.39,-3.72,1.34,
2.58,-11.51,3.91,4.03,1.57,-3.51,1.50,
2.58,-11.51,3.91,4.03,1.72,-3.19,1.67,
2.581,-11.51,3.91,4.03,1.87,-2.60,1.88,
2.581,-11.51,3.91,4.03,1.89,-2.41,1.95,
2.581,-11.51,3.91,4.03,1.92,-2.03,2.07,
2.586,-11.14,4.17,1.51,1.92,-2.03,2.07,
2.586,-11.14,4.17,1.51,1.92,-1.65,2.19,
2.586,-11.14,4.17,1.51,1.88,-1.29,2.29,
2.589,-11.14,4.17,1.51,1.75,-0.77,2.42,
2.595,-11.14,4.17,1.51,1.70,-0.61,2.45,
2.596,-11.14,4.17,1.51,1.56,-0.28,2.50,
2.596,-7.99,4.21,-3.25,1.56,-0.28,2.50,
2.596,-7.99,4.21,-3.25,1.39,0.04,2.54,
2.596,-7.99,4.21,-3.25,1.21,0.34,2.54,
2.598,-7.99,4.21,-3.25,0.92,0.79,2.49,
2.6,-7.99,4.21,-3.25,0.81,0.94,2.46,
2.602,-7.99,4.21,-3.25,0.59,1.22,2.38,
2.604,-3.56,4.10,-6.16,0.59,1.22,2.38,
2.604,-3.56,4.10,-6.16,0.36,1.49,2.26,
2.605,-3.56,4.10,-6.16,0.10,1.76,2.13,
2.608,-3.56,4.10,-6.16,-0.31,2.14,1.89,
2.609,-3.56,4.10,-6.16,-0.45,2.25,1.80,
2.611,-3.56,4.10,-6.16,-0.75,2.47,1.62,
2.613,0.51,3.01,-7.51,-0.75,2.47,1.62,
2.614,0.51,3.01,-7.51,-1.06,2.65,1.44,
2.615,0.51,3.01,-7.51,-1.37,2.80,1.26,
2.618,0.51,3.01,-7.51,-1.84,2.95,1.02,
2.619,0.51,3.01,-7.51,-1.99,2.98,0.94,
2.622,0.51,3.01,-7.51,-2.29,3.01,0.79,
2.624,2.62,-0.06,-7.88,-2.29,3.01,0.79,
2.624,2.62,-0.06,-7.88,-2.58,2.97,0.65,
2.625,2.62,-0.06,-7.88,-2.84,2.88,0.50,
2.628,2.62,-0.06,-7.88,-3.14,2.58,0.28,
2.629,2.62,-0.06,-7.88,-3.20,2.41,0.19,
2.631,2.62,-0.06,-7.88,-3.22,1.92,-0.02,
2.634,6.75,-3.91,0.27,-3.22,1.92,-0.02,
2.636,6.75,-3.91,0.27,-3.23,1.31,-0.26,
2.636,6.75,-3.91,0.27,-3.26,0.69,-0.49,
2.639,6.75,-3.91,0.27,-3.32,-0.29,-0.82,
2.64,6.75,-3.91,0.27,-3.35,-0.63,-0.92,
2.642,6.75,-3.91,0.27,-3.41,-1.30,-1.11,
2.644,10.08,-6.52,2.33,-3.41,-1.30,-1.11,
2.644,10.08,-6.52,2.33,-3.50,-1.96,-1.30,
2.65,10.08,-6.52,2.33,-3.59,-2.57,-1.49,
2.652,10.08,-6.52,2.33,-3.77,-3.41,-1.74,
2.653,10.08,-6.52,2.33,-3.84,-3.67,-1.82,
2.653,10.08,-6.52,2.33,-3.97,-4.16,-1.96,
2.654,9.41,-6.12,-3.87,-3.97,-4.16,-1.96,
2.654,9.41,-6.12,-3.87,-4.10,-4.60,-2.08,
2.656,9.41,-6.12,-3.87,-4.22,-4.97,-2.18,
2.659,9.41,-6.12,-3.87,-4.35,-5.45,-2.32,
2.66,9.41,-6.12,-3.87,-4.39,-5.59,-2.36,
2.661,9.41,-6.12,-3.87,-4.46,-5.84,-2.42,
2.664,7.27,-5.19,-6.51,-4.46,-5.84,-2.42,
2.665,7.27,-5.19,-6.51,-4.51,-6.03,-2.46,
2.666,7.27,-5.19,-6.51,-4.55,-6.19,-2.49,
2.676,7.27,-5.19,-6.51,-4.58,-6.35,-2.49,
2.678,7.27,-5.19,-6.51,-4.58,-6.39,-2.49,
2.678,7.27,-5.19,-6.51,-4.57,-6.44,-2.47,
2.681,4.34,-4.68,-5.99,-4.57,-6.44,-2.47,
2.682,4.34,-4.68,-5.99,-4.54,-6.45,-2.45,
2.682,4.34,-4.68,-5.99,-4.49,-6.43,-2.41,
2.683,4.34,-4.68,-5.99,-4.38,-6.35,-2.34,
2.683,4.34,-4.68,-5.99,-4.33,-6.31,-2.32,
2.683,4.34,-4.68,-5.99,-4.21,-6.22,-2.26,
2.685,2.37,-4.35,-4.46,-4.21,-6.22,-2.26,
2.685,2.37,-4.35,-4.46,-4.07,-6.09,-2.19,
2.697,2.37,-4.35,-4.46,-3.92,-5.95,-2.12,
2.698,2.37,-4.35,-4.46,-3.66,-5.68,-2.02,
2.699,2.37,-4.35,-4.46,-3.57,-5.58,-1.99,
2.699,2.37,-4.35,-4.46,-3.38,-5.37,-1.92,
2.699,1.25,-3.67,-2.99,-3.38,-5.37,-1.92,
2.7,1.25,-3.67,-2.99,-3.19,-5.14,-1.85,
2.7,1.25,-3.67,-2.99,-2.99,-4.90,-1.78,
2.7,1.25,-3.67,-2.99,-2.68,-4.49,-1.69,
2.701,1.25,-3.67,-2.99,-2.57,-4.35,-1.66,
2.703,1.25,-3.67,-2.99,-2.36,-4.05,-1.61,
2.739,1.24,-3.02,-2.26,-2.36,-4.05,-1.61,
2.74,1.24,-3.02,-2.26,-2.15,-3.75,-1.55,
2.74,1.24,-3.02,-2.26,-1.94,-3.43,-1.50,
2.74,1.24,-3.02,-2.26,-1.64,-2.93,-1.44,
2.74,1.24,-3.02,-2.26,-1.54,-2.76,-1.42,
2.741,1.24,-3.02,-2.26,-1.35,-2.43,-1.38,
2.764,1.84,-2.24,-2.19,-1.35,-2.43,-1.38,
2.764,1.84,-2.24,-2.19,-1.16,-2.10,-1.35,
2.765,1.84,-2.24,-2.19,-1.00,-1.78,-1.31,
2.765,1.84,-2.24,-2.19,-0.77,-1.32,-1.26,
2.765,1.84,-2.24,-2.19,-0.70,-1.18,-1.25,
2.765,1.84,-2.24,-2.19,-0.58,-0.89,-1.22,
2.766,2.45,-1.33,-2.72,-0.58,-0.89,-1.22,
2.766,2.45,-1.33,-2.72,-0.47,-0.63,-1.18,
2.766,2.45,-1.33,-2.72,-0.38,-0.39,-1.15,
2.766,2.45,-1.33,-2.72,-0.27,-0.06,-1.09,
2.767,2.45,-1.33,-2.72,-0.24,0.04,-1.07,
2.767,2.45,-1.33,-2.72,-0.19,0.21,-1.03,
2.767,2.31,-0.26,-3.13,-0.19,0.21,-1.03,
2.768,2.31,-0.26,-3.13,-0.16,0.36,-0.99,
2.768,2.31,-0.26,-3.13,-0.13,0.49,-0.94,
2.768,2.31,-0.26,-3.13,-0.12,0.64,-0.86,
2.768,2.31,-0.26,-3.13,-0.12,0.68,-0.84,
2.769,2.31,-0.26,-3.13,-0.12,0.73,-0.79,
2.769,1.82,0.57,-3.20,-0.12,0.73,-0.79,
2.769,1.82,0.57,-3.20,-0.14,0.80,-0.70,
2.77,1.82,0.57,-3.20,-0.16,0.82,-0.64,
2.77,1.82,0.57,-3.20,-0.19,0.83,-0.58,
2.77,1.82,0.57,-3.20,-0.20,0.83,-0.55,
2.77,1.82,0.57,-3.20,-0.23,0.83,-0.49,
2.771,1.18,0.93,-2.69,-0.23,0.83,-0.49,
2.771,1.18,0.93,-2.69,-0.26,0.82,-0.43,
2.771,1.18,0.93,-2.69,-0.29,0.81,-0.38,
2.771,1.18,0.93,-2.69,-0.35,0.79,-0.30,
2.772,1.18,0.93,-2.69,-0.37,0.78,-0.27,
2.772,1.18,0.93,-2.69,-0.41,0.76,-0.22,
2.772,0.99,0.93,-2.02,-0.41,0.76,-0.22,
2.772,0.99,0.93,-2.02,-0.45,0.73,-0.17,
2.773,0.99,0.93,-2.02,-0.51,0.65,-0.13,
2.773,0.99,0.93,-2.02,-0.69,0.17,-0.07,
2.773,0.99,0.93,-2.02,-0.76,-0.05,-0.06,
2.774,0.99,0.93,-2.02,-0.90,-0.50,-0.04,
2.782,-0.15,1.04,4.01,-0.90,-0.50,-0.04,
2.782,-0.15,1.04,4.01,-1.01,-0.97,-0.03,
2.782,-0.15,1.04,4.01,-1.12,-1.41,-0.01,
2.782,-0.15,1.04,4.01,-1.29,-1.98,0.02,
2.783,-0.15,1.04,4.01,-1.34,-2.15,0.03,
2.783,-0.15,1.04,4.01,-1.45,-2.45,0.04,
2.785,-1.01,1.07,5.97,-1.45,-2.45,0.04,
2.786,-1.01,1.07,5.97,-1.55,-2.70,0.05,
2.787,-1.01,1.07,5.97,-1.64,-2.90,0.05,
2.79,-1.01,1.07,5.97,-1.77,-3.12,0.04,
2.79,-1.01,1.07,5.97,-1.81,-3.18,0.04,
2.791,-1.01,1.07,5.97,-1.88,-3.26,0.03,
2.793,-0.64,0.63,4.37,-1.88,-3.26,0.03,
2.794,-0.64,0.63,4.37,-1.93,-3.32,0.02,
2.795,-0.64,0.63,4.37,-1.97,-3.35,0.01,
2.799,-0.64,0.63,4.37,-2.00,-3.35,-0.01,
2.799,-0.64,0.63,4.37,-2.01,-3.35,-0.02,
2.802,-0.64,0.63,4.37,-2.01,-3.32,-0.03,
2.804,-0.39,0.30,3.62,-2.01,-3.32,-0.03,
2.805,-0.39,0.30,3.62,-2.00,-3.27,-0.05,
2.806,-0.39,0.30,3.62,-1.97,-3.22,-0.06,
2.809,-0.39,0.30,3.62,-1.91,-3.10,-0.08,
2.81,-0.39,0.30,3.62,-1.88,-3.06,-0.08,
2.811,-0.39,0.30,3.62,-1.82,-2.96,-0.10,
2.814,-0.30,0.12,3.21,-1.82,-2.96,-0.10,
2.814,-0.30,0.12,3.21,-1.75,-2.86,-0.11,
2.815,-0.30,0.12,3.21,-1.67,-2.75,-0.12,
2.828,-0.30,0.12,3.21,-1.53,-2.57,-0.14,
2.829,-0.30,0.12,3.21,-1.48,-2.51,-0.14,
2.829,-0.30,0.12,3.21,-1.39,-2.39,-0.15,
2.83,-0.19,-0.01,2.85,-1.39,-2.39,-0.15,
2.83,-0.19,-0.01,2.85,-1.28,-2.28,-0.16,
2.83,-0.19,-0.01,2.85,-1.19,-2.17,-0.16,
2.831,-0.19,-0.01,2.85,-1.04,-2.00,-0.16,
2.831,-0.19,-0.01,2.85,-1.00,-1.95,-0.15,
2.832,-0.19,-0.01,2.85,-0.92,-1.85,-0.14,
2.834,-0.11,0.16,1.99,-0.92,-1.85,-0.14,
2.835,-0.11,0.16,1.99,-0.84,-1.74,-0.11,
2.877,-0.11,0.16,1.99,-0.77,-1.64,-0.08,
2.878,-0.11,0.16,1.99,-0.69,-1.49,-0.03,
2.878,-0.11,0.16,1.99,-0.67,-1.43,-0.01,
2.878,-0.11,0.16,1.99,-0.63,-1.33,0.03,
2.878,-0.14,0.53,0.93,-0.63,-1.33,0.03,
2.879,-0.14,0.53,0.93,-0.61,-1.24,0.07,
2.879,-0.14,0.53,0.93,-0.59,-1.15,0.11,
2.879,-0.14,0.53,0.93,-0.59,-1.03,0.16,
2.88,-0.14,0.53,0.93,-0.60,-0.99,0.18,
2.88,-0.14,0.53,0.93,-0.61,-0.93,0.20,
2.88,0.38,0.45,0.07,-0.61,-0.93,0.20,
2.88,0.38,0.45,0.07,-0.63,-0.87,0.23,
2.88,0.38,0.45,0.07,-0.65,-0.80,0.26,
2.881,0.38,0.45,0.07,-0.70,-0.72,0.30,
2.881,0.38,0.45,0.07,-0.72,-0.70,0.31,
2.881,0.38,0.45,0.07,-0.75,-0.65,0.34,
2.881,1.13,0.07,-0.26,-0.75,-0.65,0.34,
2.882,1.13,0.07,-0.26,-0.78,-0.60,0.36,
2.882,1.13,0.07,-0.26,-0.82,-0.55,0.38,
2.882,1.13,0.07,-0.26,-0.87,-0.49,0.41,
2.883,1.13,0.07,-0.26,-0.89,-0.48,0.42,
2.883,1.13,0.07,-0.26,-0.92,-0.45,0.44,
2.884,1.94,-0.42,-0.01,-0.92,-0.45,0.44,
2.885,1.94,-0.42,-0.01,-0.96,-0.43,0.46,
2.885,1.94,-0.42,-0.01,-0.99,-0.42,0.47,
2.885,1.94,-0.42,-0.01,-1.04,-0.42,0.48,
2.905,1.94,-0.42,-0.01,-1.06,-0.42,0.49,
2.906,1.94,-0.42,-0.01,-1.08,-0.43,0.49,
2.906,2.93,-0.89,0.65,-1.08,-0.43,0.49,
2.906,2.93,-0.89,0.65,-1.11,-0.45,0.50,
2.906,2.93,-0.89,0.65,-1.14,-0.48,0.50,
2.906,2.93,-0.89,0.65,-1.17,-0.54,0.50,
2.907,2.93,-0.89,0.65,-1.18,-0.56,0.49,
2.907,2.93,-0.89,0.65,-1.20,-0.61,0.49,
2.907,3.80,-1.21,1.42,-1.20,-0.61,0.49,
2.907,3.80,-1.21,1.42,-1.22,-0.66,0.48,
2.907,3.80,-1.21,1.42,-1.23,-0.71,0.47,
2.908,3.80,-1.21,1.42,-1.25,-0.79,0.45,
2.908,3.80,-1.21,1.42,-1.25,-0.82,0.44,
2.908,3.80,-1.21,1.42,-1.25,-0.87,0.43,
2.908,4.69,-1.40,2.29,-1.25,-0.87,0.43,
2.908,4.69,-1.40,2.29,-1.25,-0.92,0.41,
2.909,4.69,-1.40,2.29,-1.25,-0.97,0.38,
2.909,4.69,-1.40,2.29,-1.25,-1.03,0.35,
2.915,4.69,-1.40,2.29,-1.25,-1.05,0.34,
2.915,4.69,-1.40,2.29,-1.24,-1.09,0.31,
2.915,5.04,-1.30,2.92,-1.24,-1.09,0.31,
2.915,5.04,-1.30,2.92,-1.24,-1.12,0.29,
2.916,5.04,-1.30,2.92,-1.24,-1.14,0.27,
2.919,5.04,-1.30,2.92,-1.23,-1.15,0.23,
2.919,5.04,-1.30,2.92,-1.23,-1.16,0.21,
2.921,5.04,-1.30,2.92,-1.23,-1.16,0.20,
2.924,5.23,-0.98,3.42,-1.23,-1.16,0.20,
2.924,5.23,-0.98,3.42,-1.23,-1.15,0.18,
2.925,5.23,-0.98,3.42,-1.23,-1.14,0.16,
2.928,5.23,-0.98,3.42,-1.24,-1.11,0.14,
2.929,5.23,-0.98,3.42,-1.24,-1.10,0.13,
2.931,5.23,-0.98,3.42,-1.24,-1.07,0.11,
2.939,5.00,-0.47,3.90,-1.24,-1.07,0.11,
2.939,5.00,-0.47,3.90,-1.25,-1.04,0.10,
2.939,5.00,-0.47,3.90,-1.25,-1.02,0.08,
2.94,5.00,-0.47,3.90,-1.26,-0.98,0.06,
2.94,5.00,-0.47,3.90,-1.26,-0.97,0.05,
2.943,5.00,-0.47,3.90,-1.26,-0.94,0.04,
2.946,5.00,0.02,5.27,-1.26,-0.94,0.04,
2.947,5.00,0.02,5.27,-1.25,-0.92,0.02,
2.947,5.00,0.02,5.27,-1.24,-0.91,0.00,
2.951,5.00,0.02,5.27,-1.22,-0.89,-0.03,
2.951,5.00,0.02,5.27,-1.21,-0.88,-0.04,
2.951,5.00,0.02,5.27,-1.18,-0.87,-0.07,
2.984,5.05,0.34,7.24,-1.18,-0.87,-0.07,
2.985,5.05,0.34,7.24,-1.15,-0.87,-0.10,
2.986,5.05,0.34,7.24,-1.11,-0.86,-0.13,
2.986,5.05,0.34,7.24,-0.96,-0.82,-0.25,
2.986,5.05,0.34,7.24,-0.96,-0.82,-0.25,
2.986,5.05,0.34,7.24,-0.96,-0.82,-0.25,
2.986,5.05,0.34,7.24,-0.87,-0.78,-0.31,
2.986,5.24,-0.11,9.36,-0.87,-0.78,-0.31,
2.987,5.24,-0.11,9.36,-0.83,-0.77,-0.33,
2.987,5.24,-0.11,9.36,-0.74,-0.71,-0.39,
2.987,5.24,-0.11,9.36,-0.71,-0.69,-0.41,
2.987,5.24,-0.11,9.36,-0.64,-0.65,-0.45,
2.988,4.48,-1.25,9.64,-0.64,-0.65,-0.45,
2.988,4.48,-1.25,9.64,-0.58,-0.61,-0.49,
2.988,4.48,-1.25,9.64,-0.51,-0.56,-0.52,
2.988,4.48,-1.25,9.64,-0.42,-0.50,-0.58,
2.988,4.48,-1.25,9.64,-0.39,-0.47,-0.60,
2.989,4.48,-1.25,9.64,-0.33,-0.43,-0.64,
2.989,3.36,-2.53,9.02,-0.33,-0.43,-0.64,
2.989,3.36,-2.53,9.02,-0.28,-0.39,-0.69,
2.989,3.36,-2.53,9.02,-0.22,-0.36,-0.73,
2.989,3.36,-2.53,9.02,-0.15,-0.32,-0.80,
2.99,3.36,-2.53,9.02,-0.13,-0.31,-0.81,
2.994,3.36,-2.53,9.02,-0.08,-0.29,-0.85,
2.994,1.64,-3.16,7.56,-0.08,-0.29,-0.85,
2.994,1.64,-3.16,7.56,-0.04,-0.28,-0.89,
2.997,1.64,-3.16,7.56,0.00,-0.27,-0.92,
3.0,1.64,-3.16,7.56,0.07,-0.28,-0.96,
3.003,1.64,-3.16,7.56,0.09,-0.29,-0.98,
3.005,1.64,-3.16,7.56,0.14,-0.31,-1.00,
3.006,-0.69,-3.00,6.82,0.14,-0.31,-1.00,
3.007,-0.69,-3.00,6.82,0.19,-0.33,-1.01,
3.008,-0.69,-3.00,6.82,0.25,-0.35,-1.02,
3.009,-0.69,-3.00,6.82,0.36,-0.38,-1.02,
3.018,-0.69,-3.00,6.82,0.40,-0.38,-1.02,
3.019,-0.69,-3.00,6.82,0.49,-0.40,-1.00,
3.019,-3.57,-2.23,7.66,0.49,-0.40,-1.00,
3.019,-3.57,-2.23,7.66,0.60,-0.41,-0.97,
3.019,-3.57,-2.23,7.66,0.73,-0.42,-0.93,
3.019,-3.57,-2.23,7.66,0.97,-0.44,-0.84,
3.02,-3.57,-2.23,7.66,1.06,-0.44,-0.80,
3.022,-3.57,-2.23,7.66,1.28,-0.44,-0.71,
3.024,-7.93,-1.12,12.23,1.28,-0.44,-0.71,
3.024,-7.93,-1.12,12.23,1.53,-0.44,-0.59,
3.025,-7.93,-1.12,12.23,1.80,-0.44,-0.46,
3.029,-7.93,-1.12,12.23,2.25,-0.39,-0.24,
3.029,-7.93,-1.12,12.23,2.40,-0.37,-0.16,
3.032,-7.93,-1.12,12.23,2.69,-0.30,-0.00,
3.034,-12.21,-0.34,16.37,2.69,-0.30,-0.00,
3.035,-12.21,-0.34,16.37,2.97,-0.20,0.16,
3.036,-12.21,-0.34,16.37,3.22,-0.08,0.32,
3.039,-12.21,-0.34,16.37,3.55,0.15,0.57,
3.04,-12.21,-0.34,16.37,3.64,0.24,0.65,
3.044,-12.21,-0.34,16.37,3.79,0.44,0.81,
3.044,-13.56,-0.36,12.43,3.79,0.44,0.81,
3.045,-13.56,-0.36,12.43,3.91,0.66,0.97,
3.068,-13.56,-0.36,12.43,3.99,0.88,1.13,
3.069,-13.56,-0.36,12.43,4.06,1.24,1.37,
3.069,-13.56,-0.36,12.43,4.07,1.36,1.44,
3.069,-13.56,-0.36,12.43,4.08,1.59,1.59,
3.07,-12.67,-0.39,5.65,4.08,1.59,1.59,
3.07,-12.67,-0.39,5.65,4.07,1.82,1.73,
3.071,-12.67,-0.39,5.65,4.03,2.02,1.85,
3.071,-12.67,-0.39,5.65,3.96,2.25,2.02,
3.071,-12.67,-0.39,5.65,3.90,2.35,2.12,
3.072,-12.67,-0.39,5.65,3.87,2.39,2.17,
3.072,-10.71,-0.73,1.21,3.87,2.39,2.17,
3.072,-10.71,-0.73,1.21,3.81,2.41,2.25,
3.073,-10.71,-0.73,1.21,3.77,2.39,2.33,
3.073,-10.71,-0.73,1.21,3.72,2.25,2.44,
3.074,-10.71,-0.73,1.21,3.70,2.09,2.50,
3.074,-10.71,-0.73,1.21,3.69,2.00,2.52,
3.074,-8.77,-1.80,0.49,3.69,2.00,2.52,
3.075,-8.77,-1.80,0.49,3.69,1.77,2.56,
3.081,-8.77,-1.80,0.49,3.70,1.51,2.59,
3.082,-8.77,-1.80,0.49,3.72,1.04,2.62,
3.082,-8.77,-1.80,0.49,3.73,0.86,2.63,
3.082,-8.77,-1.80,0.49,3.76,0.50,2.63,
3.085,-6.94,-3.54,-0.32,3.76,0.50,2.63,
3.085,-6.94,-3.54,-0.32,3.79,0.11,2.62,
3.086,-6.94,-3.54,-0.32,3.83,-0.28,2.59,
3.088,-6.94,-3.54,-0.32,3.88,-0.88,2.54,
3.089,-6.94,-3.54,-0.32,3.91,-1.27,2.49,
3.091,-6.94,-3.54,-0.32,3.93,-1.46,2.45,
3.094,-4.47,-5.68,-2.29,3.93,-1.46,2.45,
3.095,-4.47,-5.68,-2.29,3.96,-1.98,2.34,
3.096,-4.47,-5.68,-2.29,3.97,-2.29,2.26,
3.099,-4.47,-5.68,-2.29,3.98,-2.56,2.17,
3.1,-4.47,-5.68,-2.29,3.98,-2.68,2.12,
3.102,-4.47,-5.68,-2.29,3.97,-2.90,2.02,
3.105,-2.36,-7.44,-5.19,3.97,-2.90,2.02,
3.105,-2.36,-7.44,-5.19,3.95,-3.10,1.92,
3.105,-2.36,-7.44,-5.19,3.92,-3.27,1.81,
3.108,-2.36,-7.44,-5.19,3.85,-3.49,1.65,
3.109,-2.36,-7.44,-5.19,3.82,-3.55,1.59,
3.111,-2.36,-7.44,-5.19,3.75,-3.67,1.47,
3.113,-0.90,-8.09,-7.84,3.75,-3.67,1.47,
3.114,-0.90,-8.09,-7.84,3.68,-3.77,1.35,
3.125,-0.90,-8.09,-7.84,3.60,-3.86,1.23,
3.126,-0.90,-8.09,-7.84,3.48,-3.99,1.05,
3.126,-0.90,-8.09,-7.84,3.40,-4.05,0.93,
3.126,-0.90,-8.09,-7.84,3.35,-4.08,0.87,
3.126,-0.01,-8.15,-9.43,3.35,-4.08,0.87,
3.127,-0.01,-8.15,-9.43,3.27,-4.13,0.75,
3.127,-0.01,-8.15,-9.43,3.19,-4.16,0.64,
3.166,-0.01,-8.15,-9.43,3.08,-4.18,0.50,
3.166,-0.01,-8.15,-9.43,3.04,-4.17,0.45,
3.166,-0.01,-8.15,-9.43,2.96,-4.16,0.38,
3.166,-0.70,-8.15,-9.28,2.96,-4.16,0.38,
3.167,-0.70,-8.15,-9.28,2.88,-4.12,0.32,
3.167,-0.70,-8.15,-9.28,2.80,-4.08,0.27,
3.167,-0.70,-8.15,-9.28,2.68,-3.98,0.22,
3.167,-0.70,-8.15,-9.28,2.64,-3.95,0.20,
3.167,-0.70,-8.15,-9.28,2.57,-3.88,0.19,
3.167,-2.56,-8.45,-9.05,2.57,-3.88,0.19,
3.167,-2.56,-8.45,-9.05,2.49,-3.80,0.19,
3.168,-2.56,-8.45,-9.05,2.42,-3.72,0.21,
3.168,-2.56,-8.45,-9.05,2.33,-3.56,0.24,
3.168,-2.56,-8.45,-9.05,2.27,-3.40,0.27,
3.168,-2.56,-8.45,-9.05,2.24,-3.30,0.29,
3.168,-4.36,-8.74,-7.61,2.24,-3.30,0.29,
3.168,-4.36,-8.74,-7.61,2.19,-3.04,0.34,
3.168,-4.36,-8.74,-7.61,2.15,-2.71,0.40,
3.169,-4.36,-8.74,-7.61,2.09,-2.12,0.50,
3.169,-4.36,-8.74,-7.61,2.08,-1.91,0.53,
3.169,-4.36,-8.74,-7.61,2.05,-1.46,0.60,
3.169,-4.78,-9.53,-4.21,2.05,-1.46,0.60,
3.169,-4.78,-9.53,-4.21,2.03,-1.00,0.66,
3.169,-4.78,-9.53,-4.21,2.03,-0.52,0.71,
3.169,-4.78,-9.53,-4.21,2.04,0.15,0.78,
3.174,-4.78,-9.53,-4.21,2.06,0.57,0.80,
3.174,-4.78,-9.53,-4.21,2.08,0.76,0.81,
3.174,-2.02,-9.25,-0.11,2.08,0.76,0.81,
3.174,-2.02,-9.25,-0.11,2.12,1.10,0.83,
3.177,-2.02,-9.25,-0.11,2.17,1.40,0.84,
3.18,-2.02,-9.25,-0.11,2.25,1.72,0.83,
3.181,-2.02,-9.25,-0.11,2.32,1.86,0.82,
3.185,-2.02,-9.25,-0.11,2.35,1.91,0.81,
3.186,0.58,-8.34,1.89,2.35,1.91,0.81,
3.186,0.58,-8.34,1.89,2.42,1.96,0.79,
3.186,0.58,-8.34,1.89,2.49,1.94,0.75,
3.188,0.58,-8.34,1.89,2.60,1.82,0.69,
3.189,0.58,-8.34,1.89,2.66,1.67,0.64,
3.191,0.58,-8.34,1.89,2.69,1.58,0.62,
3.193,2.78,-6.98,1.82,2.69,1.58,0.62,
3.194,2.78,-6.98,1.82,2.75,1.38,0.57,
3.199,2.78,-6.98,1.82,2.80,1.15,0.53,
3.199,2.78,-6.98,1.82,2.87,0.77,0.48,
3.201,2.78,-6.98,1.82,2.88,0.63,0.48,
3.204,2.78,-6.98,1.82,2.91,0.34,0.47,
3.205,2.25,-5.55,-0.75,2.91,0.34,0.47,
3.205,2.25,-5.55,-0.75,2.93,0.05,0.48,
3.205,2.25,-5.55,-0.75,2.93,-0.24,0.50,
3.208,2.25,-5.55,-0.75,2.91,-0.65,0.54,
3.209,2.25,-5.55,-0.75,2.88,-0.91,0.57,
3.211,2.25,-5.55,-0.75,2.86,-1.03,0.59,
3.223,0.39,-3.78,-4.38,2.86,-1.03,0.59,
3.223,0.39,-3.78,-4.38,2.81,-1.27,0.63,
3.223,0.39,-3.78,-4.38,2.74,-1.51,0.66,
3.223,0.39,-3.78,-4.38,2.61,-1.84,0.71,
3.223,0.39,-3.78,-4.38,2.52,-2.03,0.73,
3.224,0.39,-3.78,-4.38,2.47,-2.11,0.74,
3.224,0.15,-2.06,-7.77,2.47,-2.11,0.74,
3.224,0.15,-2.06,-7.77,2.37,-2.25,0.76,
3.23,0.15,-2.06,-7.77,2.27,-2.35,0.76,
3.23,0.15,-2.06,-7.77,2.12,-2.42,0.76,
3.23,0.15,-2.06,-7.77,2.03,-2.40,0.76,
3.231,0.15,-2.06,-7.77,1.99,-2.38,0.75,
3.234,0.74,0.39,-8.56,1.99,-2.38,0.75,
3.234,0.74,0.39,-8.56,1.91,-2.32,0.75,
3.235,0.74,0.39,-8.56,1.83,-2.23,0.73,
3.238,0.74,0.39,-8.56,1.73,-2.11,0.70,
3.239,0.74,0.39,-8.56,1.67,-2.04,0.67,
3.241,0.74,0.39,-8.56,1.64,-2.00,0.66,
3.245,1.11,1.96,-7.66,1.64,-2.00,0.66,
3.246,1.11,1.96,-7.66,1.57,-1.93,0.62,
3.246,1.11,1.96,-7.66,1.52,-1.86,0.59,
3.264,1.11,1.96,-7.66,1.44,-1.73,0.55,
3.264,1.11,1.96,-7.66,1.39,-1.64,0.52,
3.264,1.11,1.96,-7.66,1.37,-1.60,0.51,
3.265,0.99,2.95,-6.64,1.37,-1.60,0.51,
3.265,0.99,2.95,-6.64,1.33,-1.49,0.49,
3.265,0.99,2.95,-6.64,1.30,-1.39,0.47,
3.265,0.99,2.95,-6.64,1.27,-1.22,0.44,
3.265,0.99,2.95,-6.64,1.26,-1.11,0.42,
3.266,0.99,2.95,-6.64,1.26,-1.05,0.42,
3.266,0.59,3.15,-5.91,1.26,-1.05,0.42,
3.266,0.59,3.15,-5.91,1.26,-0.95,0.40,
3.266,0.59,3.15,-5.91,1.26,-0.84,0.39,
3.27,0.59,3.15,-5.91,1.28,-0.70,0.38,
3.27,0.59,3.15,-5.91,1.30,-0.61,0.37,
3.272,0.59,3.15,-5.91,1.31,-0.56,0.37,
3.274,0.39,3.30,-5.28,1.31,-0.56,0.37,
3.274,0.39,3.30,-5.28,1.33,-0.47,0.36,
3.276,0.39,3.30,-5.28,1.34,-0.39,0.35,
3.278,0.39,3.30,-5.28,1.37,-0.26,0.34,
3.28,0.39,3.30,-5.28,1.39,-0.17,0.32,
3.282,0.39,3.30,-5.28,1.39,-0.13,0.32,
3.284,0.68,3.47,-5.52,1.39,-0.13,0.32,
3.285,0.68,3.47,-5.52,1.40,-0.05,0.30,
3.285,0.68,3.47,-5.52,1.41,0.04,0.28,
3.288,0.68,3.47,-5.52,1.42,0.15,0.26,
3.289,0.68,3.47,-5.52,1.42,0.22,0.24,
3.291,0.68,3.47,-5.52,1.41,0.25,0.23,
3.295,1.17,3.50,-5.95,1.41,0.25,0.23,
3.295,1.17,3.50,-5.95,1.41,0.30,0.22,
3.296,1.17,3.50,-5.95,1.39,0.36,0.20,
3.302,1.17,3.50,-5.95,1.35,0.44,0.17,
3.302,1.17,3.50,-5.95,1.33,0.48,0.14,
3.302,1.17,3.50,-5.95,1.31,0.50,0.13,
3.305,1.73,3.45,-6.78,1.31,0.50,0.13,
3.305,1.73,3.45,-6.78,1.27,0.55,0.10,
3.305,1.73,3.45,-6.78,1.22,0.59,0.07,
3.308,1.73,3.45,-6.78,1.15,0.64,0.01,
3.309,1.73,3.45,-6.78,1.09,0.68,-0.03,
3.311,1.73,3.45,-6.78,1.06,0.70,-0.05,
3.313,2.51,3.88,-7.17,1.06,0.70,-0.05,
3.314,2.51,3.88,-7.17,1.00,0.73,-0.09,
3.316,2.51,3.88,-7.17,0.93,0.76,-0.14,
3.323,2.51,3.88,-7.17,0.83,0.81,-0.22,
3.324,2.51,3.88,-7.17,0.76,0.84,-0.27,
3.324,2.51,3.88,-7.17,0.72,0.85,-0.29,
3.325,3.34,4.31,-7.41,0.72,0.85,-0.29,
3.325,3.34,4.31,-7.41,0.65,0.88,-0.34,
3.325,3.34,4.31,-7.41,0.58,0.91,-0.40,
3.328,3.34,4.31,-7.41,0.47,0.96,-0.48,
3.329,3.34,4.31,-7.41,0.39,1.00,-0.53,
3.332,3.34,4.31,-7.41,0.35,1.02,-0.55,
3.337,3.77,5.21,-7.06,0.35,1.02,-0.55,
3.338,3.77,5.21,-7.06,0.27,1.06,-0.60,
3.338,3.77,5.21,-7.06,0.20,1.11,-0.65,
3.338,3.77,5.21,-7.06,0.09,1.17,-0.73,
3.339,3.77,5.21,-7.06,0.01,1.22,-0.77,
3.341,3.77,5.21,-7.06,-0.04,1.25,-0.80,
3.344,4.10,5.95,-6.75,-0.04,1.25,-0.80,
3.344,4.10,5.95,-6.75,-0.11,1.29,-0.84,
3.345,4.10,5.95,-6.75,-0.19,1.35,-0.89,
3.365,4.10,5.95,-6.75,-0.31,1.42,-0.95,
3.366,4.10,5.95,-6.75,-0.39,1.46,-0.99,
3.366,4.10,5.95,-6.75,-0.42,1.49,-1.00,
3.366,4.05,6.82,-5.95,-0.42,1.49,-1.00,
3.367,4.05,6.82,-5.95,-0.50,1.53,-1.04,
3.367,4.05,6.82,-5.95,-0.57,1.57,-1.07,
3.367,4.05,6.82,-5.95,-0.67,1.63,-1.12,
3.368,4.05,6.82,-5.95,-0.74,1.66,-1.15,
3.368,4.05,6.82,-5.95,-0.77,1.68,-1.16,
3.368,4.12,7.36,-5.14,-0.77,1.68,-1.16,
3.369,4.12,7.36,-5.14,-0.84,1.72,-1.18,
3.369,4.12,7.36,-5.14,-0.91,1.74,-1.21,
3.375,4.12,7.36,-5.14,-1.02,1.77,-1.24,
3.376,4.12,7.36,-5.14,-1.09,1.79,-1.26,
3.377,4.12,7.36,-5.14,-1.13,1.79,-1.28,
3.378,3.90,7.85,-4.77,-1.13,1.79,-1.28,
3.38,3.90,7.85,-4.77,-1.21,1.80,-1.30,
3.38,3.90,7.85,-4.77,-1.29,1.81,-1.32,
3.381,3.90,7.85,-4.77,-1.41,1.80,-1.35,
3.407,3.90,7.85,-4.77,-1.49,1.80,-1.37,
3.408,3.90,7.85,-4.77,-1.53,1.79,-1.38,
3.408,4.03,7.89,-4.87,-1.53,1.79,-1.38,
3.409,4.03,7.89,-4.87,-1.61,1.79,-1.39,
3.409,4.03,7.89,-4.87,-1.69,1.77,-1.41,
3.41,4.03,7.89,-4.87,-1.80,1.74,-1.43,
3.41,4.03,7.89,-4.87,-1.88,1.72,-1.44,
3.411,4.03,7.89,-4.87,-1.92,1.71,-1.45,
3.411,3.61,7.80,-4.82,-1.92,1.71,-1.45,
3.412,3.61,7.80,-4.82,-2.00,1.68,-1.46,
3.412,3.61,7.80,-4.82,-2.07,1.65,-1.47,
3.413,3.61,7.80,-4.82,-2.17,1.59,-1.49,
3.413,3.61,7.80,-4.82,-2.24,1.55,-1.50,
3.413,3.61,7.80,-4.82,-2.27,1.52,-1.50,
3.414,3.35,7.56,-4.71,-2.27,1.52,-1.50,
3.414,3.35,7.56,-4.71,-2.33,1.47,-1.52,
3.415,3.35,7.56,-4.71,-2.39,1.41,-1.53,
3.415,3.35,7.56,-4.71,-2.47,1.31,-1.54,
3.415,3.35,7.56,-4.71,-2.51,1.24,-1.55,
3.416,3.35,7.56,-4.71,-2.53,1.20,-1.55,
3.416,2.78,7.44,-4.03,-2.53,1.20,-1.55,
3.417,2.78,7.44,-4.03,-2.57,1.11,-1.56,
3.417,2.78,7.44,-4.03,-2.61,1.03,-1.57,
3.427,2.78,7.44,-4.03,-2.66,0.84,-1.59,
3.427,2.78,7.44,-4.03,-2.67,0.79,-1.60,
3.427,2.78,7.44,-4.03,-2.68,0.74,-1.60,
3.428,2.46,7.23,-3.10,-2.68,0.74,-1.60,
3.428,2.46,7.23,-3.10,-2.70,0.64,-1.61,
3.428,2.46,7.23,-3.10,-2.71,0.53,-1.62,
3.429,2.46,7.23,-3.10,-2.71,0.35,-1.63,
3.445,2.46,7.23,-3.10,-2.71,0.23,-1.64,
3.446,2.46,7.23,-3.10,-2.71,0.16,-1.65,
3.447,2.11,6.73,-1.83,-2.71,0.16,-1.65,
3.447,2.11,6.73,-1.83,-2.70,0.03,-1.66,
3.447,2.11,6.73,-1.83,-2.69,-0.12,-1.68,
3.447,2.11,6.73,-1.83,-2.65,-0.35,-1.71,
3.448,2.11,6.73,-1.83,-2.61,-0.52,-1.73,
3.448,2.11,6.73,-1.83,-2.59,-0.60,-1.74,
3.448,2.19,5.81,0.13,-2.59,-0.60,-1.74,
3.448,2.19,5.81,0.13,-2.49,-0.95,-1.78,
3.448,2.19,5.81,0.13,-2.45,-1.04,-1.79,
3.449,2.19,5.81,0.13,-2.38,-1.22,-1.81,
3.455,2.19,5.81,0.13,-2.29,-1.40,-1.83,
3.456,2.19,5.81,0.13,-2.19,-1.58,-1.85,
3.456,1.98,4.53,2.60,-2.19,-1.58,-1.85,
3.456,1.98,4.53,2.60,-2.08,-1.77,-1.87,
3.457,1.98,4.53,2.60,-1.96,-1.96,-1.89,
3.461,1.98,4.53,2.60,-1.78,-2.23,-1.90,
3.461,1.98,4.53,2.60,-1.71,-2.32,-1.90,
3.462,1.98,4.53,2.60,-1.58,-2.48,-1.90,
3.465,1.16,2.50,5.73,-1.58,-2.48,-1.90,
3.466,1.16,2.50,5.73,-1.44,-2.63,-1.90,
3.466,1.16,2.50,5.73,-1.30,-2.77,-1.88,
3.469,1.16,2.50,5.73,-1.17,-2.88,-1.86,
3.469,1.16,2.50,5.73,-1.05,-2.96,-1.83,
3.471,1.16,2.50,5.73,-0.96,-3.01,-1.78,
3.473,-0.36,0.08,7.99,-0.96,-3.01,-1.78,
3.474,-0.36,0.08,7.99,-0.90,-3.01,-1.72,
3.475,-0.36,0.08,7.99,-0.89,-2.95,-1.65,
3.478,-0.36,0.08,7.99,-0.94,-2.84,-1.57,
3.48,-0.36,0.08,7.99,-1.02,-2.69,-1.47,
3.482,-0.36,0.08,7.99,-1.09,-2.51,-1.37,
3.486,-2.34,-1.99,8.07,-1.09,-2.51,-1.37,
3.488,-2.34,-1.99,8.07,-1.14,-2.32,-1.27,
3.488,-2.34,-1.99,8.07,-1.18,-2.12,-1.17,
3.488,-2.34,-1.99,8.07,-1.21,-1.90,-1.07,
3.49,-2.34,-1.99,8.07,-1.24,-1.67,-0.97,
3.491,-2.34,-1.99,8.07,-1.26,-1.44,-0.87,
3.493,-3.54,-1.95,8.68,-1.26,-1.44,-0.87,
3.494,-3.54,-1.95,8.68,-1.26,-1.20,-0.78,
3.495,-3.54,-1.95,8.68,-1.26,-0.95,-0.70,
3.506,-3.54,-1.95,8.68,-1.24,-0.59,-0.60,
3.506,-3.54,-1.95,8.68,-1.23,-0.47,-0.57,
3.507,-3.54,-1.95,8.68,-1.20,-0.23,-0.53,
3.507,-3.67,-0.54,8.91,-1.20,-0.23,-0.53,
3.507,-3.67,-0.54,8.91,-1.18,0.00,-0.48,
3.512,-3.67,-0.54,8.91,-1.15,0.23,-0.45,
3.512,-3.67,-0.54,8.91,-1.12,0.44,-0.43,
3.513,-3.67,-0.54,8.91,-1.09,0.65,-0.41,
3.513,-3.67,-0.54,8.91,-1.06,0.84,-0.39,
3.542,-3.39,0.95,7.77,-1.06,0.84,-0.39,
3.543,-3.39,0.95,7.77,-1.03,1.03,-0.38,
3.543,-3.39,0.95,7.77,-1.00,1.20,-0.37,
3.543,-3.39,0.95,7.77,-0.97,1.35,-0.37,
3.543,-3.39,0.95,7.77,-0.94,1.49,-0.36,
3.543,-3.39,0.95,7.77,-0.90,1.61,-0.35,
3.544,-3.31,2.18,6.62,-0.90,1.61,-0.35,
3.544,-3.31,2.18,6.62,-0.87,1.72,-0.35,
3.544,-3.31,2.18,6.62,-0.83,1.82,-0.35,
3.544,-3.31,2.18,6.62,-0.80,1.92,-0.34,
3.544,-3.31,2.18,6.62,-0.77,2.00,-0.33,
3.544,-3.31,2.18,6.62,-0.73,2.07,-0.32,
3.545,-3.39,2.83,5.14,-0.73,2.07,-0.32,
3.545,-3.39,2.83,5.14,-0.70,2.13,-0.31,
3.545,-3.39,2.83,5.14,-0.67,2.18,-0.29,
3.545,-3.39,2.83,5.14,-0.64,2.23,-0.28,
3.545,-3.39,2.83,5.14,-0.61,2.27,-0.26,
3.545,-3.39,2.83,5.14,-0.58,2.30,-0.23,
3.545,-3.77,3.10,3.79,-0.58,2.30,-0.23,
3.546,-3.77,3.10,3.79,-0.56,2.33,-0.21,
3.563,-3.77,3.10,3.79,-0.54,2.35,-0.18,
3.563,-3.77,3.10,3.79,-0.52,2.36,-0.16,
3.563,-3.77,3.10,3.79,-0.52,2.36,-0.14,
3.563,-3.77,3.10,3.79,-0.51,2.35,-0.11,
3.563,-3.80,2.89,2.08,-0.51,2.35,-0.11,
3.564,-3.80,2.89,2.08,-0.50,2.33,-0.08,
3.564,-3.80,2.89,2.08,-0.50,2.30,-0.05,
3.564,-3.80,2.89,2.08,-0.51,2.25,0.00,
3.564,-3.80,2.89,2.08,-0.51,2.23,0.02,
3.564,-3.80,2.89,2.08,-0.52,2.19,0.05,
3.564,-4.13,2.42,0.60,-0.52,2.19,0.05,
3.564,-4.13,2.42,0.60,-0.54,2.14,0.09,
3.568,-4.13,2.42,0.60,-0.56,2.08,0.13,
3.569,-4.13,2.42,0.60,-0.59,1.98,0.18,
3.57,-4.13,2.42,0.60,-0.61,1.94,0.19,
3.571,-4.13,2.42,0.60,-0.64,1.86,0.22,
3.574,-3.99,1.77,-0.85,-0.64,1.86,0.22,
3.574,-3.99,1.77,-0.85,-0.68,1.78,0.26,
3.576,-3.99,1.77,-0.85,-0.73,1.68,0.29,
3.578,-3.99,1.77,-0.85,-0.78,1.58,0.32,
3.58,-3.99,1.77,-0.85,-0.83,1.47,0.35,
3.582,-3.99,1.77,-0.85,-0.89,1.36,0.37,
3.585,-3.95,1.00,-2.38,-0.89,1.36,0.37,
3.585,-3.95,1.00,-2.38,-0.95,1.25,0.40,
3.586,-3.95,1.00,-2.38,-1.00,1.14,0.43,
3.59,-3.95,1.00,-2.38,-1.06,1.02,0.45,
3.59,-3.95,1.00,-2.38,-1.12,0.91,0.48,
3.591,-3.95,1.00,-2.38,-1.17,0.80,0.51,
3.594,-4.00,-0.01,-2.99,-1.17,0.80,0.51,
3.595,-4.00,-0.01,-2.99,-1.22,0.70,0.54,
3.596,-4.00,-0.01,-2.99,-1.26,0.61,0.57,
3.6,-4.00,-0.01,-2.99,-1.29,0.53,0.60,
3.6,-4.00,-0.01,-2.99,-1.31,0.46,0.63,
3.602,-4.00,-0.01,-2.99,-1.31,0.41,0.68,
3.604,-4.90,-1.66,-1.83,-1.31,0.41,0.68,
3.604,-4.90,-1.66,-1.83,-1.29,0.39,0.73,
3.605,-4.90,-1.66,-1.83,-1.24,0.39,0.80,
3.608,-4.90,-1.66,-1.83,-1.16,0.42,0.88,
3.609,-4.90,-1.66,-1.83,-1.05,0.48,0.97,
3.611,-4.90,-1.66,-1.83,-0.90,0.56,1.08,
3.614,-7.94,-4.05,3.19,-0.90,0.56,1.08,
3.614,-7.94,-4.05,3.19,-0.72,0.68,1.20,
3.616,-7.94,-4.05,3.19,-0.51,0.83,1.32,
3.619,-7.94,-4.05,3.19,-0.26,1.00,1.46,
3.619,-7.94,-4.05,3.19,0.00,1.20,1.59,
3.622,-7.94,-4.05,3.19,0.27,1.42,1.72,
3.624,-11.01,-7.63,9.23,0.27,1.42,1.72,
3.624,-11.01,-7.63,9.23,0.53,1.64,1.84,
3.625,-11.01,-7.63,9.23,0.74,1.87,1.93,
3.628,-11.01,-7.63,9.23,0.92,2.13,2.01,
3.635,-11.01,-7.63,9.23,1.05,2.40,2.08,
3.636,-11.01,-7.63,9.23,1.14,2.70,2.13,
3.636,-10.70,-11.18,7.64,1.14,2.70,2.13,
3.636,-10.70,-11.18,7.64,1.19,3.02,2.16,
3.637,-10.70,-11.18,7.64,1.20,3.33,2.18,
3.639,-10.70,-11.18,7.64,1.15,3.76,2.20,
3.64,-10.70,-11.18,7.64,1.12,3.88,2.20,
3.675,-10.70,-11.18,7.64,1.05,4.11,2.20,
3.676,-10.00,-13.58,2.55,1.05,4.11,2.20,
3.676,-10.00,-13.58,2.55,0.97,4.28,2.20,
3.676,-10.00,-13.58,2.55,0.89,4.39,2.20,
3.677,-10.00,-13.58,2.55,0.83,4.44,2.20,
3.677,-10.00,-13.58,2.55,0.80,4.41,2.20,
3.677,-10.00,-13.58,2.55,0.81,4.29,2.19,
3.677,-9.84,-15.56,2.92,0.81,4.29,2.19,
3.678,-9.84,-15.56,2.92,0.87,4.08,2.18,
3.678,-9.84,-15.56,2.92,0.97,3.77,2.16,
3.678,-9.84,-15.56,2.92,1.11,3.39,2.11,
3.678,-9.84,-15.56,2.92,1.26,2.94,2.05,
3.678,-9.84,-15.56,2.92,1.41,2.45,1.97,
3.678,-8.12,-17.39,9.94,1.41,2.45,1.97,
3.679,-8.12,-17.39,9.94,1.56,1.93,1.88,
3.679,-8.12,-17.39,9.94,1.67,1.37,1.77,
3.679,-8.12,-17.39,9.94,1.76,0.51,1.57,
3.679,-8.12,-17.39,9.94,1.77,0.22,1.50,
3.679,-8.12,-17.39,9.94,1.74,-0.36,1.34,
3.679,-3.70,-13.70,7.59,1.74,-0.36,1.34,
3.68,-3.70,-13.70,7.59,1.66,-0.92,1.20,
3.68,-3.70,-13.70,7.59,1.52,-1.45,1.06,
3.68,-3.70,-13.70,7.59,1.34,-1.95,0.93,
3.68,-3.70,-13.70,7.59,1.11,-2.42,0.81,
3.684,-3.70,-13.70,7.59,0.87,-2.85,0.71,
3.685,1.41,-8.16,-5.54,0.87,-2.85,0.71,
3.685,1.41,-8.16,-5.54,0.62,-3.24,0.61,
3.685,1.41,-8.16,-5.54,0.37,-3.58,0.54,
3.688,1.41,-8.16,-5.54,0.14,-3.86,0.47,
3.689,1.41,-8.16,-5.54,-0.07,-4.09,0.41,
3.691,1.41,-8.16,-5.54,-0.26,-4.27,0.37,
3.694,2.21,-4.05,-11.42,-0.26,-4.27,0.37,
3.694,2.21,-4.05,-11.42,-0.42,-4.41,0.32,
3.697,2.21,-4.05,-11.42,-0.56,-4.52,0.28,
3.699,2.21,-4.05,-11.42,-0.73,-4.63,0.21,
3.7,2.21,-4.05,-11.42,-0.78,-4.65,0.19,
3.701,2.21,-4.05,-11.42,-0.87,-4.68,0.14,
3.708,2.86,-1.46,-9.67,-0.87,-4.68,0.14,
3.708,2.86,-1.46,-9.67,-0.96,-4.69,0.09,
3.709,2.86,-1.46,-9.67,-1.02,-4.68,0.03,
3.709,2.86,-1.46,-9.67,-1.10,-4.65,-0.06,
3.709,2.86,-1.46,-9.67,-1.13,-4.63,-0.09,
3.712,2.86,-1.46,-9.67,-1.18,-4.58,-0.15,
3.729,3.70,0.09,-7.08,-1.18,-4.58,-0.15,
3.729,3.70,0.09,-7.08,-1.22,-4.52,-0.22,
3.73,3.70,0.09,-7.08,-1.26,-4.44,-0.29,
3.73,3.70,0.09,-7.08,-1.32,-4.32,-0.39,
3.73,3.70,0.09,-7.08,-1.34,-4.27,-0.43,
3.73,3.70,0.09,-7.08,-1.37,-4.17,-0.51,
3.731,4.64,0.84,-5.94,-1.37,-4.17,-0.51,
3.731,4.64,0.84,-5.94,-1.41,-4.07,-0.59,
3.731,4.64,0.84,-5.94,-1.45,-3.97,-0.68,
3.731,4.64,0.84,-5.94,-1.50,-3.81,-0.81,
3.731,4.64,0.84,-5.94,-1.52,-3.76,-0.86,
3.733,4.64,0.84,-5.94,-1.55,-3.64,-0.95,
3.734,5.25,1.03,-5.07,-1.55,-3.64,-0.95,
3.734,5.25,1.03,-5.07,-1.58,-3.52,-1.05,
3.739,5.25,1.03,-5.07,-1.61,-3.40,-1.14,
3.739,5.25,1.03,-5.07,-1.66,-3.19,-1.26,
3.74,5.25,1.03,-5.07,-1.68,-3.12,-1.30,
3.741,5.25,1.03,-5.07,-1.72,-2.96,-1.37,
3.744,4.89,0.01,-5.03,-1.72,-2.96,-1.37,
3.744,4.89,0.01,-5.03,-1.76,-2.79,-1.43,
3.746,4.89,0.01,-5.03,-1.81,-2.61,-1.49,
3.751,4.89,0.01,-5.03,-1.89,-2.33,-1.55,
3.751,4.89,0.01,-5.03,-1.92,-2.24,-1.56,
3.753,4.89,0.01,-5.03,-1.98,-2.05,-1.59,
3.753,3.37,-1.63,-5.46,-1.98,-2.05,-1.59,
3.754,3.37,-1.63,-5.46,-2.03,-1.86,-1.60,
3.755,3.37,-1.63,-5.46,-2.07,-1.67,-1.61,
3.758,3.37,-1.63,-5.46,-2.13,-1.38,-1.60,
3.759,3.37,-1.63,-5.46,-2.15,-1.28,-1.59,
3.761,3.37,-1.63,-5.46,-2.18,-1.09,-1.57,
3.764,1.71,-2.98,-4.94,-2.18,-1.09,-1.57,
3.764,1.71,-2.98,-4.94,-2.20,-0.90,-1.54,
3.768,1.71,-2.98,-4.94,-2.22,-0.71,-1.51,
3.768,1.71,-2.98,-4.94,-2.22,-0.42,-1.46,
3.769,1.71,-2.98,-4.94,-2.22,-0.33,-1.43,
3.771,1.71,-2.98,-4.94,-2.21,-0.14,-1.39,
3.773,0.68,-3.68,-3.62,-2.21,-0.14,-1.39,
3.774,0.68,-3.68,-3.62,-2.20,0.04,-1.35,
3.775,0.68,-3.68,-3.62,-2.17,0.22,-1.30,
3.778,0.68,-3.68,-3.62,-2.13,0.46,-1.22,
3.788,0.68,-3.68,-3.62,-2.11,0.53,-1.20,
3.788,0.68,-3.68,-3.62,-2.08,0.68,-1.15,
3.788,0.22,-3.71,-2.14,-2.08,0.68,-1.15,
3.789,0.22,-3.71,-2.14,-2.04,0.81,-1.09,
3.789,0.22,-3.71,-2.14,-2.00,0.93,-1.04,
3.789,0.22,-3.71,-2.14,-1.95,1.09,-0.96,
3.789,0.22,-3.71,-2.14,-1.93,1.14,-0.93,
3.823,0.22,-3.71,-2.14,-1.90,1.24,-0.88,
3.824,0.19,-3.35,-1.06,-1.90,1.24,-0.88,
3.824,0.19,-3.35,-1.06,-1.87,1.38,-0.80,
3.825,0.19,-3.35,-1.06,-1.86,1.44,-0.77,
3.825,0.19,-3.35,-1.06,-1.90,1.65,-0.69,
3.825,0.19,-3.35,-1.06,-1.92,1.73,-0.66,
3.826,0.19,-3.35,-1.06,-1.97,1.92,-0.60,
3.826,0.79,-2.48,0.07,-1.97,1.92,-0.60,
3.826,0.79,-2.48,0.07,-2.03,2.11,-0.53,
3.827,0.79,-2.48,0.07,-2.09,2.31,-0.47,
3.827,0.79,-2.48,0.07,-2.15,2.62,-0.39,
3.827,0.79,-2.48,0.07,-2.13,2.71,-0.36,
3.828,0.79,-2.48,0.07,-2.03,2.86,-0.33,
3.828,2.41,-0.39,7.76,-2.03,2.86,-0.33,
3.829,2.41,-0.39,7.76,-1.87,2.94,-0.31,
3.829,2.41,-0.39,7.76,-1.71,2.98,-0.29,
3.829,2.41,-0.39,7.76,-1.43,2.93,-0.26,
3.83,2.41,-0.39,7.76,-1.34,2.89,-0.25,
3.83,2.41,-0.39,7.76,-1.14,2.79,-0.23,
3.831,3.34,1.74,14.57,-1.14,2.79,-0.23,
3.831,3.34,1.74,14.57,-0.97,2.65,-0.20,
3.831,3.34,1.74,14.57,-0.80,2.50,-0.17,
3.832,3.34,1.74,14.57,-0.60,2.28,-0.12,
3.832,3.34,1.74,14.57,-0.55,2.21,-0.11,
3.832,3.34,1.74,14.57,-0.46,2.08,-0.08,
3.842,2.72,2.73,11.18,-0.46,2.08,-0.08,
3.842,2.72,2.73,11.18,-0.39,1.96,-0.07,
3.843,2.72,2.73,11.18,-0.35,1.85,-0.07,
3.843,2.72,2.73,11.18,-0.33,1.73,-0.09,
3.843,2.72,2.73,11.18,-0.34,1.69,-0.10,
3.843,2.72,2.73,11.18,-0.35,1.62,-0.13,
3.845,2.64,2.61,5.58,-0.35,1.62,-0.13,
3.845,2.64,2.61,5.58,-0.38,1.57,-0.16,
3.846,2.64,2.61,5.58,-0.41,1.53,-0.19,
3.854,2.64,2.61,5.58,-0.47,1.49,-0.25,
3.855,2.64,2.61,5.58,-0.49,1.47,-0.27,
3.855,2.64,2.61,5.58,-0.53,1.45,-0.30,
3.856,1.75,2.61,2.42,-0.53,1.45,-0.30,
3.858,1.75,2.61,2.42,-0.57,1.44,-0.34,
3.858,1.75,2.61,2.42,-0.61,1.42,-0.37,
3.859,1.75,2.61,2.42,-0.65,1.38,-0.42,
3.86,1.75,2.61,2.42,-0.67,1.37,-0.43,
3.862,1.75,2.61,2.42,-0.69,1.35,-0.45,
3.867,0.16,2.95,2.29,-0.69,1.35,-0.45,
3.867,0.16,2.95,2.29,-0.71,1.32,-0.47,
3.867,0.16,2.95,2.29,-0.71,1.29,-0.48,
3.869,0.16,2.95,2.29,-0.71,1.23,-0.49,
3.87,0.16,2.95,2.29,-0.70,1.21,-0.49,
3.872,0.16,2.95,2.29,-0.68,1.17,-0.48,
3.874,-1.45,3.33,3.57,-0.68,1.17,-0.48,
3.874,-1.45,3.33,3.57,-0.65,1.12,-0.47,
3.876,-1.45,3.33,3.57,-0.61,1.06,-0.45,
3.879,-1.45,3.33,3.57,-0.53,0.97,-0.41,
3.9,-1.45,3.33,3.57,-0.50,0.93,-0.40,
3.9,-1.45,3.33,3.57,-0.43,0.86,-0.36,
3.9,-3.27,3.64,5.90,-0.43,0.86,-0.36,
3.901,-3.27,3.64,5.90,-0.36,0.78,-0.31,
3.901,-3.27,3.64,5.90,-0.27,0.69,-0.26,
3.901,-3.27,3.64,5.90,-0.13,0.54,-0.17,
3.901,-3.27,3.64,5.90,-0.08,0.48,-0.14,
3.901,-3.27,3.64,5.90,0.03,0.38,-0.08,
3.902,-4.86,3.81,8.05,0.03,0.38,-0.08,
3.902,-4.86,3.81,8.05,0.14,0.26,-0.01,
3.902,-4.86,3.81,8.05,0.26,0.15,0.06,
3.902,-4.86,3.81,8.05,0.45,-0.04,0.16,
3.902,-4.86,3.81,8.05,0.51,-0.10,0.19,
3.903,-4.86,3.81,8.05,0.64,-0.22,0.26,
3.908,-5.73,3.87,10.10,0.64,-0.22,0.26,
3.909,-5.73,3.87,10.10,0.76,-0.34,0.32,
3.909,-5.73,3.87,10.10,0.89,-0.47,0.37,
3.909,-5.73,3.87,10.10,1.06,-0.65,0.45,
3.909,-5.73,3.87,10.10,1.12,-0.71,0.48,
3.912,-5.73,3.87,10.10,1.23,-0.83,0.51,
3.914,-5.35,3.85,10.93,1.23,-0.83,0.51,
3.914,-5.35,3.85,10.93,1.33,-0.95,0.54,
3.916,-5.35,3.85,10.93,1.41,-1.07,0.57,
3.919,-5.35,3.85,10.93,1.51,-1.23,0.59,
3.919,-5.35,3.85,10.93,1.54,-1.28,0.60,
3.921,-5.35,3.85,10.93,1.58,-1.37,0.60,
3.924,-4.44,3.91,10.33,1.58,-1.37,0.60,
3.924,-4.44,3.91,10.33,1.59,-1.46,0.61,
3.925,-4.44,3.91,10.33,1.60,-1.52,0.62,
3.934,-4.44,3.91,10.33,1.57,-1.58,0.64,
3.935,-4.44,3.91,10.33,1.56,-1.58,0.64,
3.935,-4.44,3.91,10.33,1.52,-1.58,0.65,
3.935,-3.96,4.14,7.38,1.52,-1.58,0.65,
3.936,-3.96,4.14,7.38,1.46,-1.56,0.65,
3.936,-3.96,4.14,7.38,1.39,-1.52,0.65,
3.938,-3.96,4.14,7.38,1.26,-1.44,0.64,
3.961,-3.96,4.14,7.38,1.22,-1.40,0.63,
3.961,-3.96,4.14,7.38,1.13,-1.33,0.61,
3.962,-3.31,4.55,3.17,1.13,-1.33,0.61,
3.962,-3.31,4.55,3.17,1.03,-1.25,0.59,
3.962,-3.31,4.55,3.17,0.94,-1.18,0.56,
3.962,-3.31,4.55,3.17,0.81,-1.07,0.51,
3.962,-3.31,4.55,3.17,0.77,-1.04,0.49,
3.962,-3.31,4.55,3.17,0.69,-0.98,0.46,
3.963,-1.84,4.50,-0.73,0.69,-0.98,0.46,
3.963,-1.84,4.50,-0.73,0.62,-0.93,0.43,
3.963,-1.84,4.50,-0.73,0.56,-0.89,0.39,
3.964,-1.84,4.50,-0.73,0.44,-0.85,0.27,
3.964,-1.84,4.50,-0.73,0.44,-0.85,0.27,
3.964,-1.84,4.50,-0.73,0.44,-0.85,0.27,
3.967,-1.84,4.50,-0.73,0.42,-0.86,0.23,
3.967,-0.06,3.85,-4.35,0.42,-0.86,0.23,
3.968,-0.06,3.85,-4.35,0.40,-0.87,0.19,
3.968,-0.06,3.85,-4.35,0.39,-0.91,0.12,
3.972,-0.06,3.85,-4.35,0.39,-0.92,0.10,
3.974,-0.06,3.85,-4.35,0.39,-0.93,0.06,
3.974,0.97,3.96,-5.42,0.39,-0.93,0.06,
3.974,0.97,3.96,-5.42,0.40,-0.95,0.01,
3.975,0.97,3.96,-5.42,0.41,-0.96,-0.03,
3.978,0.97,3.96,-5.42,0.43,-0.97,-0.08,
3.98,0.97,3.96,-5.42,0.44,-0.97,-0.10,
3.983,0.97,3.96,-5.42,0.47,-0.97,-0.14,
3.985,1.72,4.68,-5.66,0.47,-0.97,-0.14,
3.985,1.72,4.68,-5.66,0.50,-0.97,-0.17,
3.986,1.72,4.68,-5.66,0.53,-0.95,-0.20,
3.988,1.72,4.68,-5.66,0.59,-0.93,-0.23,
3.989,1.72,4.68,-5.66,0.61,-0.91,-0.24,
3.991,1.72,4.68,-5.66,0.66,-0.88,-0.26,
3.995,1.82,5.70,-4.57,0.66,-0.88,-0.26,
3.996,1.82,5.70,-4.57,0.71,-0.84,-0.28,
3.996,1.82,5.70,-4.57,0.76,-0.80,-0.29,
4.0,1.82,5.70,-4.57,0.84,-0.73,-0.31,
4.0,1.82,5.70,-4.57,0.87,-0.70,-0.31,
4.001,1.82,5.70,-4.57,0.92,-0.66,-0.32,
4.004,2.00,6.43,-3.83,0.92,-0.66,-0.32,
4.005,2.00,6.43,-3.83,0.97,-0.61,-0.33,
4.005,2.00,6.43,-3.83,1.02,-0.57,-0.34,
4.008,2.00,6.43,-3.83,1.08,-0.50,-0.36,
4.009,2.00,6.43,-3.83,1.10,-0.48,-0.36,
4.014,2.00,6.43,-3.83,1.14,-0.43,-0.38,
4.018,2.37,6.81,-3.10,1.14,-0.43,-0.38,
4.019,2.37,6.81,-3.10,1.18,-0.39,-0.39,
4.019,2.37,6.81,-3.10,1.21,-0.35,-0.42,
4.022,2.37,6.81,-3.10,1.27,-0.29,-0.45,
4.022,2.37,6.81,-3.10,1.28,-0.27,-0.47,
4.023,2.37,6.81,-3.10,1.32,-0.25,-0.50,
4.023,3.61,6.58,-2.05,1.32,-0.25,-0.50,
4.024,3.61,6.58,-2.05,1.36,-0.23,-0.54,
4.025,3.61,6.58,-2.05,1.40,-0.23,-0.59,
4.029,3.61,6.58,-2.05,1.46,-0.26,-0.67,
4.031,3.61,6.58,-2.05,1.49,-0.28,-0.70,
4.032,3.61,6.58,-2.05,1.54,-0.33,-0.76,
4.034,5.05,5.01,0.68,1.54,-0.33,-0.76,
4.035,5.05,5.01,0.68,1.58,-0.39,-0.82,
4.036,5.05,5.01,0.68,1.62,-0.47,-0.87,
4.038,5.05,5.01,0.68,1.67,-0.61,-0.96,
4.039,5.05,5.01,0.68,1.68,-0.65,-0.98,
4.041,5.05,5.01,0.68,1.68,-0.75,-1.02,
4.052,5.73,2.20,3.68,1.68,-0.75,-1.02,
4.054,5.73,2.20,3.68,1.67,-0.85,-1.05,
4.08,5.73,2.20,3.68,1.63,-0.93,-1.07,
4.08,5.73,2.20,3.68,1.54,-1.01,-1.08,
4.081,5.73,2.20,3.68,1.50,-1.02,-1.08,
4.081,5.73,2.20,3.68,1.41,-1.04,-1.06,
4.082,4.60,0.17,2.43,1.41,-1.04,-1.06,
4.082,4.60,0.17,2.43,1.31,-1.02,-1.04,
4.085,4.60,0.17,2.43,1.20,-0.98,-1.01,
4.086,4.60,0.17,2.43,1.04,-0.88,-0.94,
4.086,4.60,0.17,2.43,0.99,-0.84,-0.91,
4.087,4.60,0.17,2.43,0.90,-0.74,-0.86,
4.087,2.97,-0.33,0.01,0.90,-0.74,-0.86,
4.087,2.97,-0.33,0.01,0.82,-0.63,-0.79,
4.088,2.97,-0.33,0.01,0.75,-0.51,-0.72,
4.088,2.97,-0.33,0.01,0.68,-0.33,-0.59,
4.089,2.97,-0.33,0.01,0.66,-0.27,-0.55,
4.089,2.97,-0.33,0.01,0.64,-0.14,-0.45,
4.089,1.17,-0.46,0.71,0.64,-0.14,-0.45,
4.09,1.17,-0.46,0.71,0.64,-0.01,-0.35,
4.09,1.17,-0.46,0.71,0.65,0.12,-0.24,
4.091,1.17,-0.46,0.71,0.69,0.33,-0.06,
4.091,1.17,-0.46,0.71,0.71,0.40,0.00,
4.091,1.17,-0.46,0.71,0.75,0.54,0.12,
4.092,-1.19,-0.47,2.78,0.75,0.54,0.12,
4.092,-1.19,-0.47,2.78,0.80,0.68,0.23,
4.092,-1.19,-0.47,2.78,0.85,0.81,0.32,
4.092,-1.19,-0.47,2.78,0.92,1.01,0.45,
4.098,-1.19,-0.47,2.78,0.94,1.07,0.49,
4.098,-1.19,-0.47,2.78,0.99,1.18,0.56,
4.098,-2.23,-0.62,1.94,0.99,1.18,0.56,
4.099,-2.23,-0.62,1.94,1.03,1.28,0.62,
4.099,-2.23,-0.62,1.94,1.07,1.37,0.67,
4.099,-2.23,-0.62,1.94,1.13,1.47,0.74,
4.108,-2.23,-0.62,1.94,1.16,1.49,0.76,
4.109,-2.23,-0.62,1.94,1.21,1.52,0.80,
4.109,-2.08,-1.08,0.22,1.21,1.52,0.80,
4.11,-2.08,-1.08,0.22,1.27,1.52,0.84,
4.11,-2.08,-1.08,0.22,1.34,1.49,0.87,
4.11,-2.08,-1.08,0.22,1.47,1.40,0.92,
4.112,-2.08,-1.08,0.22,1.52,1.35,0.93,
4.113,-2.08,-1.08,0.22,1.63,1.24,0.96,
4.114,-1.79,-3.15,2.24,1.63,1.24,0.96,
4.114,-1.79,-3.15,2.24,1.76,1.10,0.98,
4.115,-1.79,-3.15,2.24,1.91,0.93,1.00,
4.119,-1.79,-3.15,2.24,2.15,0.61,1.02,
4.12,-1.79,-3.15,2.24,2.24,0.50,1.03,
4.121,-1.79,-3.15,2.24,2.41,0.27,1.03,
4.124,-1.83,-7.14,7.63,2.41,0.27,1.03,
4.124,-1.83,-7.14,7.63,2.58,0.02,1.03,
4.126,-1.83,-7.14,7.63,2.74,-0.22,1.02,
4.129,-1.83,-7.14,7.63,2.94,-0.56,0.99,
4.13,-1.83,-7.14,7.63,3.00,-0.67,0.98,
4.132,-1.83,-7.14,7.63,3.09,-0.86,0.95,
4.134,-1.98,-11.84,9.70,3.09,-0.86,0.95,
4.134,-1.98,-11.84,9.70,3.14,-1.01,0.91,
4.136,-1.98,-11.84,9.70,3.17,-1.13,0.87,
4.139,-1.98,-11.84,9.70,3.15,-1.22,0.80,
4.142,-1.98,-11.84,9.70,3.13,-1.24,0.78,
4.143,-1.98,-11.84,9.70,3.07,-1.24,0.72,
4.145,-2.42,-15.52,6.48,3.07,-1.24,0.72,
4.146,-2.42,-15.52,6.48,2.95,-1.18,0.63,
4.147,-2.42,-15.52,6.48,2.91,-1.15,0.60,
4.149,-2.42,-15.52,6.48,2.77,-1.02,0.51,
4.15,-2.42,-15.52,6.48,2.72,-0.97,0.48,
4.151,-2.42,-15.52,6.48,2.64,-0.85,0.42,
4.158,-3.22,-18.18,4.07,2.64,-0.85,0.42,
4.158,-3.22,-18.18,4.07,2.56,-0.73,0.36,
4.159,-3.22,-18.18,4.07,2.49,-0.60,0.30,
4.159,-3.22,-18.18,4.07,2.40,-0.41,0.21,
4.159,-3.22,-18.18,4.07,2.37,-0.35,0.19,
4.162,-3.22,-18.18,4.07,2.33,-0.24,0.14,
4.165,-4.62,-19.67,4.56,2.33,-0.24,0.14,
4.166,-4.62,-19.67,4.56,2.30,-0.13,0.10,
4.166,-4.62,-19.67,4.56,2.27,-0.03,0.07,
4.168,-4.62,-19.67,4.56,2.24,0.08,0.03,
4.169,-4.62,-19.67,4.56,2.23,0.11,0.02,
4.172,-4.62,-19.67,4.56,2.22,0.17,0.00,
4.173,-6.50,-18.65,4.41,2.22,0.17,0.00,
4.174,-6.50,-18.65,4.41,2.21,0.21,-0.01,
4.175,-6.50,-18.65,4.41,2.20,0.23,-0.01,
4.179,-6.50,-18.65,4.41,2.20,0.24,0.00,
4.18,-6.50,-18.65,4.41,2.20,0.24,0.01,
4.182,-6.50,-18.65,4.41,2.19,0.23,0.02,
4.184,-8.33,-15.58,2.14,2.19,0.23,0.02,
4.184,-8.33,-15.58,2.14,2.19,0.20,0.04,
4.187,-8.33,-15.58,2.14,2.18,0.17,0.06,
4.188,-8.33,-15.58,2.14,2.15,0.10,0.09,
4.189,-8.33,-15.58,2.14,2.14,0.07,0.10,
4.191,-8.33,-15.58,2.14,2.11,0.01,0.13,
4.201,-8.87,-11.32,-0.96,2.11,0.01,0.13,
4.202,-8.87,-11.32,-0.96,2.07,-0.05,0.15,
4.202,-8.87,-11.32,-0.96,2.02,-0.11,0.17,
4.202,-8.87,-11.32,-0.96,1.93,-0.20,0.21,
4.202,-8.87,-11.32,-0.96,1.89,-0.23,0.23,
4.202,-8.87,-11.32,-0.96,1.81,-0.29,0.25,
4.205,-8.63,-7.26,-4.25,1.81,-0.29,0.25,
4.205,-8.63,-7.26,-4.25,1.71,-0.34,0.27,
4.206,-8.63,-7.26,-4.25,1.60,-0.39,0.29,
4.209,-8.63,-7.26,-4.25,1.42,-0.45,0.31,
4.209,-8.63,-7.26,-4.25,1.36,-0.47,0.32,
4.245,-8.63,-7.26,-4.25,1.24,-0.49,0.34,
4.263,-7.59,-3.50,-6.78,1.24,-0.49,0.34,
4.263,-7.59,-3.50,-6.78,1.12,-0.49,0.35,
4.263,-7.59,-3.50,-6.78,0.99,-0.47,0.37,
4.263,-7.59,-3.50,-6.78,0.82,-0.41,0.40,
4.264,-7.59,-3.50,-6.78,0.77,-0.38,0.40,
4.264,-7.59,-3.50,-6.78,0.67,-0.31,0.42,
4.264,-6.53,-0.59,-7.25,0.67,-0.31,0.42,
4.264,-6.53,-0.59,-7.25,0.59,-0.22,0.43,
4.265,-6.53,-0.59,-7.25,0.52,-0.12,0.44,
4.265,-6.53,-0.59,-7.25,0.46,0.04,0.45,
4.265,-6.53,-0.59,-7.25,0.45,0.10,0.46,
4.265,-6.53,-0.59,-7.25,0.44,0.23,0.47,
4.265,-4.88,1.53,-4.78,0.44,0.23,0.47,
4.265,-4.88,1.53,-4.78,0.45,0.36,0.48,
4.266,-4.88,1.53,-4.78,0.46,0.49,0.49,
4.266,-4.88,1.53,-4.78,0.50,0.64,0.50,
4.266,-4.88,1.53,-4.78,0.51,0.68,0.50,
4.266,-4.88,1.53,-4.78,0.54,0.75,0.50,
4.266,-3.56,2.56,-2.46,0.54,0.75,0.50,
4.267,-3.56,2.56,-2.46,0.57,0.79,0.50,
4.267,-3.56,2.56,-2.46,0.60,0.83,0.50,
4.267,-3.56,2.56,-2.46,0.64,0.86,0.50,
4.267,-3.56,2.56,-2.46,0.65,0.87,0.49,
4.267,-3.56,2.56,-2.46,0.66,0.89,0.48,
4.268,-2.06,2.84,-1.82,0.66,0.89,0.48,
4.268,-2.06,2.84,-1.82,0.67,0.91,0.47,
4.268,-2.06,2.84,-1.82,0.67,0.93,0.46,
4.268,-2.06,2.84,-1.82,0.66,0.95,0.44,
4.268,-2.06,2.84,-1.82,0.66,0.95,0.43,
4.268,-2.06,2.84,-1.82,0.63,0.95,0.42,
4.269,-0.81,2.55,-2.62,0.63,0.95,0.42,
4.269,-0.81,2.55,-2.62,0.60,0.93,0.41,
4.269,-0.81,2.55,-2.62,0.55,0.90,0.40,
4.269,-0.81,2.55,-2.62,0.46,0.84,0.38,
4.269,-0.81,2.55,-2.62,0.43,0.82,0.38,
4.274,-0.81,2.55,-2.62,0.36,0.76,0.37,
4.274,-0.03,2.37,-3.90,0.36,0.76,0.37,
4.274,-0.03,2.37,-3.90,0.28,0.69,0.36,
4.275,-0.03,2.37,-3.90,0.20,0.63,0.36,
4.279,-0.03,2.37,-3.90,0.07,0.53,0.36,
4.283,-0.03,2.37,-3.90,0.03,0.50,0.35,
4.284,-0.03,2.37,-3.90,-0.05,0.43,0.36,
4.284,0.27,2.41,-4.91,-0.05,0.43,0.36,
4.284,0.27,2.41,-4.91,-0.13,0.37,0.36,
4.285,0.27,2.41,-4.91,-0.21,0.31,0.36,
4.288,0.27,2.41,-4.91,-0.32,0.22,0.38,
4.289,0.27,2.41,-4.91,-0.35,0.20,0.39,
4.292,0.27,2.41,-4.91,-0.42,0.15,0.40,
4.294,0.28,2.74,-5.17,-0.42,0.15,0.40,
4.295,0.28,2.74,-5.17,-0.48,0.10,0.41,
4.296,0.28,2.74,-5.17,-0.54,0.06,0.42,
4.3,0.28,2.74,-5.17,-0.62,0.00,0.42,
4.3,0.28,2.74,-5.17,-0.65,-0.02,0.42,
4.301,0.28,2.74,-5.17,-0.69,-0.05,0.42,
4.308,0.79,3.38,-5.17,-0.69,-0.05,0.42,
4.308,0.79,3.38,-5.17,-0.73,-0.08,0.42,
4.309,0.79,3.38,-5.17,-0.77,-0.11,0.41,
4.311,0.79,3.38,-5.17,-0.82,-0.15,0.40,
4.311,0.79,3.38,-5.17,-0.84,-0.16,0.40,
4.312,0.79,3.38,-5.17,-0.87,-0.17,0.38,
4.315,1.52,4.47,-4.72,-0.87,-0.17,0.38,
4.315,1.52,4.47,-4.72,-0.89,-0.19,0.37,
4.317,1.52,4.47,-4.72,-0.92,-0.20,0.35,
4.318,1.52,4.47,-4.72,-0.95,-0.21,0.33,
4.32,1.52,4.47,-4.72,-0.96,-0.21,0.32,
4.321,1.52,4.47,-4.72,-0.98,-0.21,0.30,
4.324,1.96,5.49,-4.73,-0.98,-0.21,0.30,
4.324,1.96,5.49,-4.73,-1.01,-0.20,0.28,
4.326,1.96,5.49,-4.73,-1.02,-0.19,0.27,
4.33,1.96,5.49,-4.73,-1.05,-0.16,0.24,
4.331,1.96,5.49,-4.73,-1.06,-0.15,0.23,
4.332,1.96,5.49,-4.73,-1.08,-0.11,0.22,
4.334,1.99,6.50,-4.72,-1.08,-0.11,0.22,
4.334,1.99,6.50,-4.72,-1.10,-0.08,0.20,
4.335,1.99,6.50,-4.72,-1.12,-0.04,0.19,
4.338,1.99,6.50,-4.72,-1.15,0.04,0.17,
4.339,1.99,6.50,-4.72,-1.16,0.06,0.17,
4.341,1.99,6.50,-4.72,-1.18,0.12,0.15,
4.352,1.95,7.28,-5.10,-1.18,0.12,0.15,
4.353,1.95,7.28,-5.10,-1.20,0.18,0.14,
4.353,1.95,7.28,-5.10,-1.22,0.25,0.13,
4.354,1.95,7.28,-5.10,-1.25,0.35,0.12,
4.354,1.95,7.28,-5.10,-1.26,0.38,0.11,
4.354,1.95,7.28,-5.10,-1.28,0.45,0.10,
4.354,1.90,8.06,-4.93,-1.28,0.45,0.10,
4.355,1.90,8.06,-4.93,-1.30,0.52,0.09,
4.356,1.90,8.06,-4.93,-1.32,0.59,0.08,
4.385,1.90,8.06,-4.93,-1.35,0.68,0.05,
4.386,1.90,8.06,-4.93,-1.35,0.70,0.04,
4.386,1.90,8.06,-4.93,-1.38,0.74,0.03,
4.386,2.06,8.58,-4.70,-1.38,0.74,0.03,
4.387,2.06,8.58,-4.70,-1.40,0.78,0.01,
4.387,2.06,8.58,-4.70,-1.42,0.80,-0.01,
4.387,2.06,8.58,-4.70,-1.46,0.81,-0.03,
4.388,2.06,8.58,-4.70,-1.47,0.81,-0.04,
4.388,2.06,8.58,-4.70,-1.50,0.80,-0.06,
4.388,2.02,9.00,-4.02,-1.50,0.80,-0.06,
4.389,2.02,9.00,-4.02,-1.53,0.78,-0.07,
4.389,2.02,9.00,-4.02,-1.56,0.76,-0.09,
4.389,2.02,9.00,-4.02,-1.61,0.72,-0.11,
4.412,2.02,9.00,-4.02,-1.63,0.70,-0.11,
4.412,2.02,9.00,-4.02,-1.66,0.67,-0.12,
4.412,1.85,9.21,-3.74,-1.66,0.67,-0.12,
4.413,1.85,9.21,-3.74,-1.70,0.62,-0.13,
4.413,1.85,9.21,-3.74,-1.74,0.57,-0.15,
4.413,1.85,9.21,-3.74,-1.80,0.49,-0.16,
4.413,1.85,9.21,-3.74,-1.82,0.46,-0.17,
4.414,1.85,9.21,-3.74,-1.87,0.39,-0.18,
4.414,2.01,9.29,-3.33,-1.87,0.39,-0.18,
4.414,2.01,9.29,-3.33,-1.92,0.32,-0.20,
4.415,2.01,9.29,-3.33,-1.97,0.24,-0.21,
4.415,2.01,9.29,-3.33,-2.05,0.13,-0.23,
4.415,2.01,9.29,-3.33,-2.07,0.09,-0.24,
4.415,2.01,9.29,-3.33,-2.13,0.02,-0.26,
4.416,2.26,9.25,-3.26,-2.13,0.02,-0.26,
4.416,2.26,9.25,-3.26,-2.18,-0.04,-0.28,
4.416,2.26,9.25,-3.26,-2.23,-0.09,-0.31,
4.417,2.26,9.25,-3.26,-2.32,-0.15,-0.36,
4.417,2.26,9.25,-3.26,-2.35,-0.17,-0.39,
4.417,2.26,9.25,-3.26,-2.41,-0.20,-0.44,
4.417,2.80,9.09,-3.08,-2.41,-0.20,-0.44,
4.418,2.80,9.09,-3.08,-2.47,-0.22,-0.48,
4.418,2.80,9.09,-3.08,-2.54,-0.24,-0.54,
4.418,2.80,9.09,-3.08,-2.64,-0.25,-0.62,
4.424,2.80,9.09,-3.08,-2.67,-0.24,-0.65,
4.424,2.80,9.09,-3.08,-2.74,-0.24,-0.72,
4.425,3.27,8.57,-3.23,-2.74,-0.24,-0.72,
4.425,3.27,8.57,-3.23,-2.81,-0.23,-0.78,
4.434,3.27,8.57,-3.23,-2.89,-0.21,-0.84,
4.435,3.27,8.57,-3.23,-3.01,-0.17,-0.93,
4.435,3.27,8.57,-3.23,-3.06,-0.16,-0.96,
4.435,3.27,8.57,-3.23,-3.17,-0.12,-1.02,
4.435,3.04,7.88,-3.20,-3.17,-0.12,-1.02,
4.436,3.04,7.88,-3.20,-3.28,-0.08,-1.07,
4.436,3.04,7.88,-3.20,-3.40,-0.02,-1.12,
4.438,3.04,7.88,-3.20,-3.59,0.08,-1.19,
4.439,3.04,7.88,-3.20,-3.65,0.12,-1.21,
4.441,3.04,7.88,-3.20,-3.78,0.20,-1.26,
4.444,2.50,6.64,-3.05,-3.78,0.20,-1.26,
4.444,2.50,6.64,-3.05,-3.90,0.28,-1.30,
4.446,2.50,6.64,-3.05,-4.01,0.35,-1.34,
4.449,2.50,6.64,-3.05,-4.16,0.46,-1.40,
4.45,2.50,6.64,-3.05,-4.21,0.49,-1.42,
4.452,2.50,6.64,-3.05,-4.29,0.55,-1.46,
4.454,1.76,5.22,-1.48,-4.29,0.55,-1.46,
4.454,1.76,5.22,-1.48,-4.36,0.60,-1.49,
4.455,1.76,5.22,-1.48,-4.42,0.65,-1.53,
4.467,1.76,5.22,-1.48,-4.49,0.71,-1.58,
4.467,1.76,5.22,-1.48,-4.51,0.73,-1.60,
4.468,1.76,5.22,-1.48,-4.53,0.76,-1.63,
4.468,0.97,2.59,0.54,-4.53,0.76,-1.63,
4.468,0.97,2.59,0.54,-4.55,0.79,-1.65,
4.468,0.97,2.59,0.54,-4.56,0.81,-1.67,
4.468,0.97,2.59,0.54,-4.56,0.85,-1.70,
4.472,0.97,2.59,0.54,-4.54,0.88,-1.71,
4.472,0.97,2.59,0.54,-4.34,1.03,-1.71,
4.495,-0.32,-1.40,9.21,-4.34,1.03,-1.71,
4.495,-0.32,-1.40,9.21,-3.53,1.17,-1.66,
4.496,-0.32,-1.40,9.21,-2.42,0.98,-1.59,
4.496,-0.32,-1.40,9.21,-0.95,0.35,-1.49,
4.496,-0.32,-1.40,9.21,-0.56,0.16,-1.45,
4.496,-0.32,-1.40,9.21,0.08,-0.19,-1.36,
4.496,-3.89,-8.66,40.03,0.08,-0.19,-1.36,
4.497,-3.89,-8.66,40.03,0.47,-0.53,-1.28,
4.497,-3.89,-8.66,40.03,0.56,-0.97,-1.20,
4.497,-3.89,-8.66,40.03,0.22,-1.81,-1.11,
4.497,-3.89,-8.66,40.03,0.03,-2.09,-1.09,
4.498,-3.89,-8.66,40.03,-0.32,-2.58,-1.05,
4.498,-3.58,-10.82,22.98,-0.32,-2.58,-1.05,
4.499,-3.58,-10.82,22.98,-0.59,-3.10,-1.00,
4.499,-3.58,-10.82,22.98,-0.66,-3.21,-0.98,
4.5,-3.58,-10.82,22.98,-0.84,-3.39,-0.90,
4.5,-3.58,-10.82,22.98,-0.88,-3.41,-0.87,
4.501,-3.58,-10.82,22.98,-0.93,-3.40,-0.79,
4.503,-3.04,-7.44,16.17,-0.93,-3.40,-0.79,
4.504,-3.04,-7.44,16.17,-0.96,-3.33,-0.71,
4.505,-3.04,-7.44,16.17,-0.97,-3.20,-0.62,
4.508,-3.04,-7.44,16.17,-0.94,-2.92,-0.50,
4.51,-3.04,-7.44,16.17,-0.93,-2.81,-0.47,
4.511,-3.04,-7.44,16.17,-0.88,-2.55,-0.40,
4.516,-2.30,-3.17,13.24,-0.88,-2.55,-0.40,
4.516,-2.30,-3.17,13.24,-0.82,-2.26,-0.35,
4.517,-2.30,-3.17,13.24,-0.74,-1.92,-0.31,
4.518,-2.30,-3.17,13.24,-0.60,-1.34,-0.27,
4.52,-2.30,-3.17,13.24,-0.54,-1.14,-0.26,
4.521,-2.30,-3.17,13.24,-0.43,-0.72,-0.24,
4.525,-0.18,0.26,10.86,-0.43,-0.72,-0.24,
4.525,-0.18,0.26,10.86,-0.32,-0.31,-0.23,
4.525,-0.18,0.26,10.86,-0.21,0.11,-0.22,
4.529,-0.18,0.26,10.86,-0.04,0.71,-0.21,
4.529,-0.18,0.26,10.86,0.01,0.90,-0.20,
4.531,-0.18,0.26,10.86,0.12,1.23,-0.18,
4.534,0.83,2.17,8.08,0.12,1.23,-0.18,
4.534,0.83,2.17,8.08,0.21,1.52,-0.17,
4.535,0.83,2.17,8.08,0.30,1.78,-0.16,
4.538,0.83,2.17,8.08,0.43,2.08,-0.13,
4.539,0.83,2.17,8.08,0.47,2.16,-0.12,
4.541,0.83,2.17,8.08,0.54,2.30,-0.11,
4.544,0.69,2.14,6.07,0.54,2.30,-0.11,
4.544,0.69,2.14,6.07,0.61,2.40,-0.09,
4.56,0.69,2.14,6.07,0.67,2.47,-0.06,
4.56,0.69,2.14,6.07,0.77,2.53,-0.03,
4.561,0.69,2.14,6.07,0.80,2.54,-0.02,
4.561,0.69,2.14,6.07,0.86,2.54,0.01,
4.561,-0.12,1.37,4.04,0.86,2.54,0.01,
4.561,-0.12,1.37,4.04,0.91,2.52,0.03,
4.561,-0.12,1.37,4.04,0.96,2.49,0.06,
4.561,-0.12,1.37,4.04,1.01,2.41,0.09,
4.562,-0.12,1.37,4.04,1.02,2.37,0.10,
4.564,-0.12,1.37,4.04,1.04,2.28,0.11,
4.564,-1.00,0.56,1.25,1.04,2.28,0.11,
4.564,-1.00,0.56,1.25,1.04,2.18,0.11,
4.565,-1.00,0.56,1.25,1.04,2.07,0.11,
4.568,-1.00,0.56,1.25,1.00,1.88,0.11,
4.569,-1.00,0.56,1.25,0.98,1.81,0.10,
4.571,-1.00,0.56,1.25,0.94,1.67,0.09,
4.573,-1.21,-0.09,-2.36,0.94,1.67,0.09,
4.573,-1.21,-0.09,-2.36,0.90,1.51,0.07,
4.576,-1.21,-0.09,-2.36,0.84,1.35,0.06,
4.578,-1.21,-0.09,-2.36,0.74,1.10,0.04,
4.579,-1.21,-0.09,-2.36,0.71,1.01,0.03,
4.581,-1.21,-0.09,-2.36,0.63,0.83,0.02,
4.583,-1.35,-0.68,-4.85,0.63,0.83,0.02,
4.583,-1.35,-0.68,-4.85,0.55,0.65,0.01,
4.586,-1.35,-0.68,-4.85,0.48,0.47,-0.01,
4.588,-1.35,-0.68,-4.85,0.35,0.19,-0.02,
4.589,-1.35,-0.68,-4.85,0.31,0.09,-0.03,
4.591,-1.35,-0.68,-4.85,0.23,-0.10,-0.04,
4.593,-1.75,-1.62,-5.43,0.23,-0.10,-0.04,
4.594,-1.75,-1.62,-5.43,0.14,-0.28,-0.05,
4.595,-1.75,-1.62,-5.43,0.05,-0.46,-0.06,
4.598,-1.75,-1.62,-5.43,-0.09,-0.72,-0.06,
4.599,-1.75,-1.62,-5.43,-0.13,-0.80,-0.06,
4.601,-1.75,-1.62,-5.43,-0.21,-0.96,-0.07,
4.603,-2.55,-2.80,-5.33,-0.21,-0.96,-0.07,
4.603,-2.55,-2.80,-5.33,-0.29,-1.11,-0.07,
4.605,-2.55,-2.80,-5.33,-0.37,-1.24,-0.07,
4.612,-2.55,-2.80,-5.33,-0.47,-1.42,-0.07,
4.612,-2.55,-2.80,-5.33,-0.51,-1.47,-0.06,
4.612,-2.55,-2.80,-5.33,-0.59,-1.50,-0.06,
4.614,-3.37,-4.38,-4.56,-0.59,-1.50,-0.06,
4.614,-3.37,-4.38,-4.56,-0.74,-1.33,-0.06,
4.615,-3.37,-4.38,-4.56,-0.93,-0.99,-0.07,
4.618,-3.37,-4.38,-4.56,-1.24,-0.36,-0.08,
4.619,-3.37,-4.38,-4.56,-1.33,-0.14,-0.08,
4.621,-3.37,-4.38,-4.56,-1.52,0.30,-0.07,
4.624,-6.16,-6.73,-4.22,-1.52,0.30,-0.07,
4.624,-6.16,-6.73,-4.22,-1.68,0.72,-0.06,
4.638,-6.16,-6.73,-4.22,-1.82,1.08,-0.03,
4.638,-6.16,-6.73,-4.22,-1.96,1.52,0.01,
4.638,-6.16,-6.73,-4.22,-1.99,1.64,0.02,
4.639,-6.16,-6.73,-4.22,-2.02,1.80,0.05,
4.639,-7.73,-7.85,-1.96,-2.02,1.80,0.05,
4.639,-7.73,-7.85,-1.96,-2.01,1.87,0.09,
4.639,-7.73,-7.85,-1.96,-1.98,1.86,0.13,
4.639,-7.73,-7.85,-1.96,-1.90,1.74,0.18,
4.639,-7.73,-7.85,-1.96,-1.87,1.67,0.20,
4.641,-7.73,-7.85,-1.96,-1.80,1.53,0.24,
4.645,-6.75,-7.87,0.02,-1.80,1.53,0.24,
4.645,-6.75,-7.87,0.02,-1.72,1.36,0.27,
4.645,-6.75,-7.87,0.02,-1.62,1.17,0.31,
4.648,-6.75,-7.87,0.02,-1.47,0.88,0.36,
4.649,-6.75,-7.87,0.02,-1.42,0.79,0.37,
4.651,-6.75,-7.87,0.02,-1.31,0.60,0.40,
4.653,-4.96,-8.16,1.02,-1.31,0.60,0.40,
4.653,-4.96,-8.16,1.02,-1.20,0.42,0.44,
4.655,-4.96,-8.16,1.02,-1.08,0.26,0.47,
4.658,-4.96,-8.16,1.02,-0.91,0.06,0.52,
4.659,-4.96,-8.16,1.02,-0.85,0.01,0.54,
4.661,-4.96,-8.16,1.02,-0.74,-0.08,0.58,
4.663,-3.85,-9.56,1.78,-0.74,-0.08,0.58,
4.664,-3.85,-9.56,1.78,-0.63,-0.14,0.62,
4.665,-3.85,-9.56,1.78,-0.53,-0.14,0.66,
4.668,-3.85,-9.56,1.78,-0.30,0.07,0.73,
4.669,-3.85,-9.56,1.78,-0.08,0.28,0.72,
4.671,-3.85,-9.56,1.78,0.65,0.96,0.64,
4.673,0.95,-13.41,20.41,0.65,0.96,0.64,
4.674,0.95,-13.41,20.41,1.35,1.75,0.52,
4.676,0.95,-13.41,20.41,1.92,2.48,0.41,
4.678,0.95,-13.41,20.41,2.53,3.44,0.30,
4.679,0.95,-13.41,20.41,2.64,3.71,0.29,
4.681,0.95,-13.41,20.41,2.74,4.15,0.29,
4.683,5.34,-15.73,22.40,2.74,4.15,0.29,
4.684,5.34,-15.73,22.40,2.69,4.46,0.32,
4.685,5.34,-15.73,22.40,2.53,4.65,0.37,
4.688,5.34,-15.73,22.40,2.18,4.75,0.47,
4.69,5.34,-15.73,22.40,2.05,4.74,0.50,
4.692,5.34,-15.73,22.40,1.79,4.67,0.54,
4.695,2.49,-10.37,2.05,1.79,4.67,0.54,
4.696,2.49,-10.37,2.05,1.54,4.54,0.57,
4.697,2.49,-10.37,2.05,1.31,4.38,0.59,
4.701,2.49,-10.37,2.05,1.01,4.09,0.57,
4.702,2.49,-10.37,2.05,0.93,3.98,0.56,
4.702,2.49,-10.37,2.05,0.76,3.75,0.53,
4.704,1.83,-5.52,-4.67,0.76,3.75,0.53,
4.704,1.83,-5.52,-4.67,0.63,3.52,0.49,
4.708,1.83,-5.52,-4.67,0.51,3.27,0.45,
4.708,1.83,-5.52,-4.67,0.36,2.90,0.38,
4.711,1.83,-5.52,-4.67,0.31,2.78,0.35,
4.713,1.83,-5.52,-4.67,0.22,2.54,0.31,
4.738,1.88,-2.69,-4.51,0.22,2.54,0.31,
4.739,1.88,-2.69,-4.51,0.14,2.29,0.25,
4.739,1.88,-2.69,-4.51,0.07,2.05,0.20,
4.74,1.88,-2.69,-4.51,-0.04,1.67,0.11,
4.74,1.88,-2.69,-4.51,-0.08,1.55,0.08,
4.74,1.88,-2.69,-4.51,-0.15,1.29,0.01,
4.741,2.33,-0.69,-3.82,-0.15,1.29,0.01,
4.741,2.33,-0.69,-3.82,-0.22,1.04,-0.06,
4.742,2.33,-0.69,-3.82,-0.29,0.79,-0.13,
4.742,2.33,-0.69,-3.82,-0.41,0.43,-0.24,
4.742,2.33,-0.69,-3.82,-0.45,0.31,-0.27,
4.743,2.33,-0.69,-3.82,-0.52,0.07,-0.34,
4.743,2.45,0.45,-3.48,-0.52,0.07,-0.34,
4.744,2.45,0.45,-3.48,-0.60,-0.16,-0.40,
4.744,2.45,0.45,-3.48,-0.68,-0.39,-0.46,
4.745,2.45,0.45,-3.48,-0.81,-0.72,-0.54,
4.745,2.45,0.45,-3.48,-0.85,-0.83,-0.56,
4.745,2.45,0.45,-3.48,-0.94,-1.04,-0.60,
4.746,1.98,0.75,-3.63,-0.94,-1.04,-0.60,
4.746,1.98,0.75,-3.63,-1.02,-1.25,-0.63,
4.747,1.98,0.75,-3.63,-1.11,-1.45,-0.65,
4.756,1.98,0.75,-3.63,-1.23,-1.74,-0.68,
4.757,1.98,0.75,-3.63,-1.27,-1.83,-0.69,
4.757,1.98,0.75,-3.63,-1.35,-2.01,-0.69,
4.757,1.02,0.50,-3.44,-1.35,-2.01,-0.69,
4.758,1.02,0.50,-3.44,-1.43,-2.18,-0.70,
4.758,1.02,0.50,-3.44,-1.50,-2.34,-0.70,
4.758,1.02,0.50,-3.44,-1.59,-2.56,-0.69,
4.76,1.02,0.50,-3.44,-1.61,-2.63,-0.69,
4.764,1.02,0.50,-3.44,-1.66,-2.75,-0.67,
4.765,0.34,0.33,-2.80,-1.66,-2.75,-0.67,
4.765,0.34,0.33,-2.80,-1.71,-2.86,-0.66,
4.765,0.34,0.33,-2.80,-1.75,-2.94,-0.65,
4.769,0.34,0.33,-2.80,-1.79,-3.04,-0.63,
4.77,0.34,0.33,-2.80,-1.80,-3.07,-0.62,
4.773,0.34,0.33,-2.80,-1.82,-3.11,-0.60,
4.774,-0.13,0.33,-1.90,-1.82,-3.11,-0.60,
4.774,-0.13,0.33,-1.90,-1.84,-3.13,-0.58,
4.788,-0.13,0.33,-1.90,-1.84,-3.15,-0.56,
4.789,-0.13,0.33,-1.90,-1.85,-3.17,-0.54,
4.789,-0.13,0.33,-1.90,-1.84,-3.17,-0.53,
4.789,-0.13,0.33,-1.90,-1.84,-3.16,-0.51,
4.789,-0.32,0.47,-0.95,-1.84,-3.16,-0.51,
4.79,-0.32,0.47,-0.95,-1.83,-3.15,-0.50,
4.79,-0.32,0.47,-0.95,-1.81,-3.13,-0.48,
4.794,-0.32,0.47,-0.95,-1.78,-3.09,-0.45,
4.794,-0.32,0.47,-0.95,-1.77,-3.08,-0.44,
4.794,-0.32,0.47,-0.95,-1.74,-3.03,-0.42,
4.795,-0.57,0.87,-0.01,-1.74,-3.03,-0.42,
4.795,-0.57,0.87,-0.01,-1.71,-2.98,-0.40,
4.796,-0.57,0.87,-0.01,-1.67,-2.92,-0.38,
4.8,-0.57,0.87,-0.01,-1.62,-2.82,-0.35,
4.802,-0.57,0.87,-0.01,-1.60,-2.78,-0.34,
4.804,-0.57,0.87,-0.01,-1.56,-2.69,-0.32,
4.806,-0.84,1.58,0.92,-1.56,-2.69,-0.32,
4.806,-0.84,1.58,0.92,-1.51,-2.59,-0.30,
4.807,-0.84,1.58,0.92,-1.48,-2.46,-0.27,
4.824,-0.84,1.58,0.92,-1.44,-2.23,-0.24,
4.825,-0.84,1.58,0.92,-1.42,-2.13,-0.23,
4.825,-0.84,1.58,0.92,-1.39,-1.92,-0.20,
4.825,-0.75,2.43,1.93,-1.39,-1.92,-0.20,
4.826,-0.75,2.43,1.93,-1.37,-1.67,-0.18,
4.826,-0.75,2.43,1.93,-1.34,-1.39,-0.15,
4.826,-0.75,2.43,1.93,-1.29,-0.91,-0.12,
4.826,-0.75,2.43,1.93,-1.27,-0.74,-0.11,
4.827,-0.75,2.43,1.93,-1.22,-0.38,-0.08,
4.827,-0.74,3.42,4.36,-1.22,-0.38,-0.08,
4.827,-0.74,3.42,4.36,-1.15,-0.00,-0.06,
4.827,-0.74,3.42,4.36,-1.07,0.38,-0.03,
4.83,-0.74,3.42,4.36,-0.89,0.96,0.01,
4.83,-0.74,3.42,4.36,-0.83,1.14,0.03,
4.831,-0.74,3.42,4.36,-0.69,1.50,0.06,
4.836,-1.10,4.04,7.70,-0.69,1.50,0.06,
4.836,-1.10,4.04,7.70,-0.55,1.82,0.09,
4.837,-1.10,4.04,7.70,-0.41,2.12,0.12,
4.839,-1.10,4.04,7.70,-0.21,2.50,0.17,
4.839,-1.10,4.04,7.70,-0.14,2.61,0.18,
4.842,-1.10,4.04,7.70,-0.01,2.81,0.21,
4.844,-0.94,3.82,8.62,-0.01,2.81,0.21,
4.845,-0.94,3.82,8.62,0.16,3.06,0.24,
4.846,-0.94,3.82,8.62,0.21,3.13,0.25,
4.849,-0.94,3.82,8.62,0.37,3.32,0.26,
4.849,-0.94,3.82,8.62,0.42,3.37,0.27,
4.851,-0.94,3.82,8.62,0.50,3.46,0.27,
4.853,0.19,3.56,7.87,0.50,3.46,0.27,
4.854,0.19,3.56,7.87,0.58,3.54,0.27,
4.855,0.19,3.56,7.87,0.66,3.60,0.27,
4.866,0.19,3.56,7.87,0.76,3.68,0.25,
4.867,0.19,3.56,7.87,0.79,3.70,0.24,
4.867,0.19,3.56,7.87,0.85,3.74,0.22,
4.867,1.17,3.43,8.20,0.85,3.74,0.22,
4.868,1.17,3.43,8.20,0.90,3.77,0.20,
4.869,1.17,3.43,8.20,0.94,3.78,0.18,
4.869,1.17,3.43,8.20,1.00,3.77,0.13,
4.87,1.17,3.43,8.20,1.02,3.76,0.12,
4.872,1.17,3.43,8.20,1.05,3.71,0.08,
4.874,1.48,3.33,9.57,1.05,3.71,0.08,
4.876,1.48,3.33,9.57,1.07,3.65,0.04,
4.877,1.48,3.33,9.57,1.09,3.54,-0.00,
4.88,1.48,3.33,9.57,1.10,3.32,-0.07,
4.896,1.48,3.33,9.57,1.10,3.23,-0.09,
4.896,1.48,3.33,9.57,1.09,3.01,-0.13,
4.896,1.44,3.25,12.10,1.09,3.01,-0.13,
4.896,1.44,3.25,12.10,1.08,2.75,-0.17,
4.897,1.44,3.25,12.10,1.07,2.44,-0.21,
4.897,1.44,3.25,12.10,1.06,1.93,-0.25,
4.897,1.44,3.25,12.10,1.06,1.75,-0.25,
4.897,1.44,3.25,12.10,1.06,1.37,-0.26,
4.897,0.55,3.16,13.38,1.06,1.37,-0.26,
4.897,0.55,3.16,13.38,1.07,1.00,-0.26,
4.898,0.55,3.16,13.38,1.08,0.62,-0.24,
4.902,0.55,3.16,13.38,1.11,0.09,-0.19,
4.903,0.55,3.16,13.38,1.12,-0.08,-0.16,
4.903,0.55,3.16,13.38,1.14,-0.39,-0.11,
4.905,-1.43,2.85,12.51,1.14,-0.39,-0.11,
4.905,-1.43,2.85,12.51,1.16,-0.66,-0.05,
4.908,-1.43,2.85,12.51,1.18,-0.91,0.02,
4.917,-1.43,2.85,12.51,1.20,-1.20,0.14,
4.917,-1.43,2.85,12.51,1.20,-1.28,0.18,
4.917,-1.43,2.85,12.51,1.21,-1.43,0.26,
4.918,-3.67,2.58,8.80,1.21,-1.43,0.26,
4.918,-3.67,2.58,8.80,1.22,-1.55,0.35,
4.918,-3.67,2.58,8.80,1.21,-1.65,0.44,
4.919,-3.67,2.58,8.80,1.19,-1.76,0.58,
4.919,-3.67,2.58,8.80,1.18,-1.79,0.62,
4.927,-3.67,2.58,8.80,1.15,-1.85,0.71,
4.927,-5.58,2.70,4.19,1.15,-1.85,0.71,
4.927,-5.58,2.70,4.19,1.12,-1.89,0.78,
4.927,-5.58,2.70,4.19,1.09,-1.93,0.85,
4.963,-5.58,2.70,4.19,1.03,-1.98,0.94,
4.964,-5.58,2.70,4.19,1.01,-2.00,0.96,
4.964,-5.58,2.70,4.19,0.98,-2.03,1.00,
4.964,-5.21,3.24,-0.05,0.98,-2.03,1.00,
4.964,-5.21,3.24,-0.05,0.94,-2.06,1.03,
4.965,-5.21,3.24,-0.05,0.92,-2.09,1.04,
4.965,-5.21,3.24,-0.05,0.88,-2.13,1.05,
4.965,-5.21,3.24,-0.05,0.88,-2.15,1.05,
4.965,-5.21,3.24,-0.05,0.88,-2.17,1.04,
4.965,-3.60,3.76,-2.34,0.88,-2.17,1.04,
4.965,-3.60,3.76,-2.34,0.88,-2.20,1.02,
4.965,-3.60,3.76,-2.34,0.89,-2.22,0.99,
4.966,-3.60,3.76,-2.34,0.93,-2.24,0.95,
4.966,-3.60,3.76,-2.34,0.95,-2.24,0.94,
4.966,-3.60,3.76,-2.34,0.98,-2.23,0.90,
4.966,-2.14,4.42,-1.92,0.98,-2.23,0.90,
4.966,-2.14,4.42,-1.92,1.03,-2.22,0.86,
4.966,-2.14,4.42,-1.92,1.08,-2.18,0.83,
4.967,-2.14,4.42,-1.92,1.23,-2.05,0.68,
4.967,-2.14,4.42,-1.92,1.23,-2.05,0.68,
4.967,-2.14,4.42,-1.92,1.28,-2.00,0.63,
4.967,-2.14,4.42,-1.92,1.28,-2.00,0.63,
4.967,-0.82,5.61,-0.96,1.28,-2.00,0.63,
4.967,-0.82,5.61,-0.96,1.32,-1.97,0.58,
4.97,-0.82,5.61,-0.96,1.36,-1.93,0.50,
4.97,-0.82,5.61,-0.96,1.38,-1.92,0.48,
4.972,-0.82,5.61,-0.96,1.39,-1.90,0.43,
4.975,0.36,6.28,-1.24,1.39,-1.90,0.43,
4.976,0.36,6.28,-1.24,1.41,-1.89,0.38,
