
time,ax,ay,az,wx,wy,wz,
0.002,-0.83,-0.53,-1.35,-0.61,-1.49,0.56,
0.003,-0.83,-0.53,-1.35,-0.62,-1.49,0.58,
0.003,-0.99,-0.88,-1.29,-0.62,-1.49,0.58,
0.003,-0.99,-0.88,-1.29,-0.64,-1.50,0.60,
0.012,-0.99,-0.88,-1.29,-0.65,-1.51,0.63,
0.013,-0.99,-0.88,-1.29,-0.67,-1.52,0.66,
0.013,-0.99,-0.88,-1.29,-0.68,-1.54,0.68,
0.013,-0.99,-0.88,-1.29,-0.69,-1.56,0.71,
0.013,-1.28,-1.07,-1.13,-0.69,-1.56,0.71,
0.013,-1.28,-1.07,-1.13,-0.71,-1.57,0.73,
0.014,-1.28,-1.07,-1.13,-0.72,-1.59,0.76,
0.015,-1.28,-1.07,-1.13,-0.74,-1.60,0.79,
0.021,-1.28,-1.07,-1.13,-0.75,-1.62,0.82,
0.021,-1.28,-1.07,-1.13,-0.76,-1.63,0.85,
0.022,-1.66,-0.91,-1.01,-0.76,-1.63,0.85,
0.022,-1.66,-0.91,-1.01,-0.77,-1.65,0.88,
0.023,-1.66,-0.91,-1.01,-0.78,-1.67,0.91,
0.025,-1.66,-0.91,-1.01,-0.78,-1.69,0.95,
0.029,-1.66,-0.91,-1.01,-0.78,-1.72,0.98,
0.029,-1.66,-0.91,-1.01,-0.78,-1.74,1.01,
0.035,-1.86,-0.75,-0.77,-0.78,-1.74,1.01,
0.036,-1.86,-0.75,-0.77,-0.77,-1.77,1.04,
0.036,-1.86,-0.75,-0.77,-0.76,-1.79,1.07,
0.036,-1.86,-0.75,-0.77,-0.75,-1.82,1.10,
0.048,-1.86,-0.75,-0.77,-0.73,-1.85,1.13,
0.048,-1.86,-0.75,-0.77,-0.71,-1.88,1.15,
0.049,-1.85,-0.49,-0.47,-0.71,-1.88,1.15,
0.049,-1.85,-0.49,-0.47,-0.69,-1.91,1.18,
0.049,-1.85,-0.49,-0.47,-0.67,-1.94,1.20,
0.049,-1.85,-0.49,-0.47,-0.65,-1.98,1.22,
0.049,-1.85,-0.49,-0.47,-0.63,-2.02,1.24,
0.05,-1.85,-0.49,-0.47,-0.60,-2.06,1.26,
0.071,-1.26,-0.16,-0.22,-0.60,-2.06,1.26,
0.072,-1.26,-0.16,-0.22,-0.57,-2.10,1.27,
0.072,-1.26,-0.16,-0.22,-0.54,-2.13,1.28,
0.072,-1.26,-0.16,-0.22,-0.51,-2.17,1.28,
0.073,-1.26,-0.16,-0.22,-0.47,-2.20,1.29,
0.074,-1.26,-0.16,-0.22,-0.44,-2.22,1.29,
0.075,-0.16,0.05,0.23,-0.44,-2.22,1.29,
0.075,-0.16,0.05,0.23,-0.40,-2.24,1.28,
0.075,-0.16,0.05,0.23,-0.36,-2.26,1.27,
0.075,-0.16,0.05,0.23,-0.32,-2.27,1.25,
0.075,-0.16,0.05,0.23,-0.28,-2.29,1.23,
0.076,-0.16,0.05,0.23,-0.24,-2.30,1.21,
0.076,0.95,0.09,0.75,-0.24,-2.30,1.21,
0.076,0.95,0.09,0.75,-0.19,-2.32,1.19,
0.076,0.95,0.09,0.75,-0.15,-2.34,1.16,
0.076,0.95,0.09,0.75,-0.10,-2.35,1.13,
0.088,0.95,0.09,0.75,-0.03,-2.38,1.09,
0.089,0.95,0.09,0.75,-0.01,-2.39,1.07,
0.089,1.61,-0.10,1.19,-0.01,-2.39,1.07,
0.089,1.61,-0.10,1.19,0.04,-2.40,1.03,
0.089,1.61,-0.10,1.19,0.10,-2.42,1.00,
0.09,1.61,-0.10,1.19,0.15,-2.43,0.96,
0.09,1.61,-0.10,1.19,0.20,-2.45,0.93,
0.09,1.61,-0.10,1.19,0.25,-2.46,0.89,
0.096,1.78,-0.31,1.53,0.25,-2.46,0.89,
0.096,1.78,-0.31,1.53,0.31,-2.47,0.85,
0.097,1.78,-0.31,1.53,0.36,-2.48,0.82,
0.097,1.78,-0.31,1.53,0.44,-2.52,0.76,
0.097,1.78,-0.31,1.53,0.46,-2.53,0.75,
0.098,1.78,-0.31,1.53,0.50,-2.56,0.72,
0.101,1.69,-0.46,1.71,0.50,-2.56,0.72,
0.102,1.69,-0.46,1.71,0.55,-2.59,0.69,
0.104,1.69,-0.46,1.71,0.59,-2.63,0.67,
0.105,1.69,-0.46,1.71,0.63,-2.66,0.65,
0.107,1.69,-0.46,1.71,0.66,-2.70,0.64,
0.108,1.69,-0.46,1.71,0.69,-2.74,0.63,
0.113,0.55,-0.64,1.45,0.69,-2.74,0.63,
0.113,0.55,-0.64,1.45,0.72,-2.76,0.63,
0.114,0.55,-0.64,1.45,0.76,-2.75,0.63,
0.115,0.55,-0.64,1.45,0.78,-2.73,0.64,
0.125,0.55,-0.64,1.45,0.80,-2.69,0.65,
0.128,0.55,-0.64,1.45,0.83,-2.65,0.67,
0.128,-1.15,-0.92,0.89,0.83,-2.65,0.67,
0.128,-1.15,-0.92,0.89,0.84,-2.59,0.69,
0.129,-1.15,-0.92,0.89,0.86,-2.55,0.72,
0.129,-1.15,-0.92,0.89,0.88,-2.48,0.76,
0.129,-1.15,-0.92,0.89,0.88,-2.46,0.77,
0.131,-1.15,-0.92,0.89,0.88,-2.44,0.80,
0.152,-1.79,-0.71,-0.11,0.88,-2.44,0.80,
0.152,-1.79,-0.71,-0.11,0.88,-2.42,0.83,
0.152,-1.79,-0.71,-0.11,0.88,-2.41,0.86,
0.153,-1.79,-0.71,-0.11,0.87,-2.41,0.89,
0.153,-1.79,-0.71,-0.11,0.85,-2.42,0.92,
0.153,-1.79,-0.71,-0.11,0.85,-2.43,0.94,
0.153,-1.63,-0.52,-0.49,0.85,-2.43,0.94,
0.153,-1.63,-0.52,-0.49,0.84,-2.43,0.97,
0.154,-1.63,-0.52,-0.49,0.83,-2.44,0.99,
0.154,-1.63,-0.52,-0.49,0.80,-2.44,1.03,
0.154,-1.63,-0.52,-0.49,0.80,-2.44,1.04,
0.171,-1.63,-0.52,-0.49,0.78,-2.44,1.06,
0.171,-0.95,-0.59,-0.69,0.78,-2.44,1.06,
0.171,-0.95,-0.59,-0.69,0.77,-2.44,1.08,
0.171,-0.95,-0.59,-0.69,0.75,-2.44,1.10,
0.172,-0.95,-0.59,-0.69,0.72,-2.43,1.12,
0.172,-0.95,-0.59,-0.69,0.71,-2.43,1.12,
0.172,-0.95,-0.59,-0.69,0.69,-2.40,1.13,
0.173,-0.04,-0.92,-0.79,0.69,-2.40,1.13,
0.173,-0.04,-0.92,-0.79,0.67,-2.37,1.14,
0.173,-0.04,-0.92,-0.79,0.65,-2.32,1.13,
0.173,-0.04,-0.92,-0.79,0.63,-2.28,1.13,
0.174,-0.04,-0.92,-0.79,0.62,-2.23,1.13,
0.174,-0.04,-0.92,-0.79,0.60,-2.18,1.12,
0.174,0.74,-1.00,-0.71,0.60,-2.18,1.12,
0.174,0.74,-1.00,-0.71,0.58,-2.14,1.11,
0.175,0.74,-1.00,-0.71,0.57,-2.09,1.11,
0.181,0.74,-1.00,-0.71,0.55,-2.05,1.09,
0.181,0.74,-1.00,-0.71,0.53,-2.01,1.08,
0.182,0.74,-1.00,-0.71,0.51,-1.97,1.07,
0.182,1.43,-0.97,-0.56,0.51,-1.97,1.07,
0.182,1.43,-0.97,-0.56,0.50,-1.94,1.06,
0.182,1.43,-0.97,-0.56,0.48,-1.91,1.04,
0.189,1.43,-0.97,-0.56,0.47,-1.89,1.03,
0.19,1.43,-0.97,-0.56,0.45,-1.87,1.01,
0.19,1.43,-0.97,-0.56,0.44,-1.85,0.99,
0.193,1.89,-0.91,-0.43,0.44,-1.85,0.99,
0.193,1.89,-0.91,-0.43,0.43,-1.83,0.97,
0.193,1.89,-0.91,-0.43,0.42,-1.81,0.94,
0.194,1.89,-0.91,-0.43,0.41,-1.78,0.92,
0.197,1.89,-0.91,-0.43,0.40,-1.75,0.90,
0.211,1.89,-0.91,-0.43,0.39,-1.72,0.87,
0.212,2.07,-0.77,-0.37,0.39,-1.72,0.87,
0.212,2.07,-0.77,-0.37,0.39,-1.67,0.85,
0.212,2.07,-0.77,-0.37,0.39,-1.63,0.83,
0.212,2.07,-0.77,-0.37,0.39,-1.57,0.82,
0.212,2.07,-0.77,-0.37,0.39,-1.52,0.80,
0.213,2.07,-0.77,-0.37,0.39,-1.47,0.80,
0.213,1.60,-0.43,-0.05,0.39,-1.47,0.80,
0.213,1.60,-0.43,-0.05,0.39,-1.42,0.79,
0.213,1.60,-0.43,-0.05,0.40,-1.37,0.78,
0.216,1.60,-0.43,-0.05,0.41,-1.32,0.78,
0.237,1.60,-0.43,-0.05,0.42,-1.28,0.78,
0.237,1.60,-0.43,-0.05,0.43,-1.25,0.77,
0.238,1.25,-0.17,0.50,0.43,-1.25,0.77,
0.238,1.25,-0.17,0.50,0.45,-1.22,0.77,
0.238,1.25,-0.17,0.50,0.46,-1.19,0.77,
0.248,1.25,-0.17,0.50,0.48,-1.16,0.77,
0.248,1.25,-0.17,0.50,0.49,-1.13,0.76,
0.249,1.25,-0.17,0.50,0.51,-1.11,0.75,
0.275,1.31,-0.21,0.97,0.51,-1.11,0.75,
0.275,1.31,-0.21,0.97,0.52,-1.09,0.75,
0.276,1.31,-0.21,0.97,0.54,-1.06,0.74,
0.276,1.31,-0.21,0.97,0.56,-1.03,0.72,
0.276,1.31,-0.21,0.97,0.58,-0.99,0.71,
0.276,1.31,-0.21,0.97,0.69,-0.81,0.65,
0.276,1.31,-0.21,0.97,0.69,-0.81,0.65,
0.276,1.31,-0.21,0.97,0.69,-0.81,0.65,
0.276,1.56,-0.94,1.64,0.69,-0.81,0.65,
0.276,1.56,-0.94,1.64,0.75,-0.80,0.60,
0.277,1.56,-0.94,1.64,0.75,-0.80,0.60,
0.277,1.56,-0.94,1.64,0.77,-0.81,0.57,
0.277,1.67,-0.99,1.36,0.77,-0.81,0.57,
0.277,1.67,-0.99,1.36,0.79,-0.83,0.54,
0.277,1.67,-0.99,1.36,0.80,-0.82,0.52,
0.277,1.67,-0.99,1.36,0.80,-0.79,0.49,
0.277,1.67,-0.99,1.36,0.80,-0.74,0.47,
0.277,1.67,-0.99,1.36,0.80,-0.66,0.45,
0.277,0.77,-0.94,-0.56,0.80,-0.66,0.45,
0.277,0.77,-0.94,-0.56,0.78,-0.56,0.45,
0.278,0.77,-0.94,-0.56,0.76,-0.44,0.45,
0.278,0.77,-0.94,-0.56,0.72,-0.36,0.46,
0.278,0.77,-0.94,-0.56,0.67,-0.33,0.47,
0.278,0.77,-0.94,-0.56,0.61,-0.35,0.49,
0.278,-0.21,-0.96,-3.01,0.61,-0.35,0.49,
0.278,-0.21,-0.96,-3.01,0.54,-0.41,0.51,
0.278,-0.21,-0.96,-3.01,0.47,-0.47,0.53,
0.278,-0.21,-0.96,-3.01,0.40,-0.51,0.55,
0.278,-0.21,-0.96,-3.01,0.33,-0.51,0.57,
0.279,-0.21,-0.96,-3.01,0.26,-0.49,0.58,
0.293,0.59,-1.55,-3.31,0.26,-0.49,0.58,
0.293,0.59,-1.55,-3.31,0.20,-0.45,0.58,
0.293,0.59,-1.55,-3.31,0.15,-0.39,0.58,
0.293,0.59,-1.55,-3.31,0.07,-0.27,0.57,
0.294,0.59,-1.55,-3.31,0.04,-0.23,0.57,
0.294,0.59,-1.55,-3.31,-0.00,-0.15,0.56,
0.294,1.34,-2.02,-2.78,-0.00,-0.15,0.56,
0.294,1.34,-2.02,-2.78,-0.05,-0.07,0.56,
0.294,1.34,-2.02,-2.78,-0.09,0.01,0.56,
0.294,1.34,-2.02,-2.78,-0.13,0.09,0.57,
0.304,1.34,-2.02,-2.78,-0.17,0.16,0.57,
0.304,1.34,-2.02,-2.78,-0.21,0.22,0.58,
0.304,1.35,-1.99,-2.36,-0.21,0.22,0.58,
0.304,1.35,-1.99,-2.36,-0.24,0.26,0.59,
0.304,1.35,-1.99,-2.36,-0.28,0.28,0.60,
0.304,1.35,-1.99,-2.36,-0.32,0.28,0.61,
0.326,1.35,-1.99,-2.36,-0.35,0.26,0.62,
0.326,1.35,-1.99,-2.36,-0.37,0.24,0.63,
0.326,0.83,-1.59,-1.74,-0.37,0.24,0.63,
0.326,0.83,-1.59,-1.74,-0.39,0.22,0.64,
0.326,0.83,-1.59,-1.74,-0.40,0.19,0.65,
0.337,0.83,-1.59,-1.74,-0.40,0.17,0.65,
0.337,0.83,-1.59,-1.74,-0.40,0.15,0.66,
0.337,0.83,-1.59,-1.74,-0.40,0.13,0.66,
0.337,0.35,-1.24,-0.74,-0.40,0.13,0.66,
0.337,0.35,-1.24,-0.74,-0.38,0.11,0.67,
0.338,0.35,-1.24,-0.74,-0.37,0.10,0.67,
0.338,0.35,-1.24,-0.74,-0.35,0.08,0.68,
0.338,0.35,-1.24,-0.74,-0.32,0.07,0.69,
0.338,0.35,-1.24,-0.74,-0.29,0.07,0.70,
0.338,-0.11,-0.96,0.18,-0.29,0.07,0.70,
0.338,-0.11,-0.96,0.18,-0.26,0.06,0.72,
0.338,-0.11,-0.96,0.18,-0.23,0.06,0.73,
0.339,-0.11,-0.96,0.18,-0.19,0.06,0.75,
0.339,-0.11,-0.96,0.18,-0.14,0.07,0.77,
0.339,-0.11,-0.96,0.18,-0.10,0.08,0.80,
0.342,-0.46,-0.79,0.64,-0.10,0.08,0.80,
0.342,-0.46,-0.79,0.64,-0.06,0.09,0.82,
0.342,-0.46,-0.79,0.64,-0.02,0.11,0.85,
0.344,-0.46,-0.79,0.64,0.02,0.12,0.87,
0.346,-0.46,-0.79,0.64,0.06,0.14,0.89,
0.349,-0.46,-0.79,0.64,0.10,0.15,0.91,
0.356,-0.72,-0.71,0.50,0.10,0.15,0.91,
0.357,-0.72,-0.71,0.50,0.13,0.14,0.93,
0.357,-0.72,-0.71,0.50,0.17,0.14,0.95,
0.357,-0.72,-0.71,0.50,0.20,0.13,0.97,
0.357,-0.72,-0.71,0.50,0.23,0.10,0.99,
0.36,-0.72,-0.71,0.50,0.25,0.08,1.02,
0.361,-1.11,-0.93,0.38,0.25,0.08,1.02,
0.361,-1.11,-0.93,0.38,0.27,0.05,1.04,
0.362,-1.11,-0.93,0.38,0.29,0.02,1.06,
0.364,-1.11,-0.93,0.38,0.32,-0.00,1.07,
0.382,-1.11,-0.93,0.38,0.35,-0.03,1.10,
0.383,-1.11,-0.93,0.38,0.37,-0.06,1.12,
0.383,-1.16,-1.21,0.25,0.37,-0.06,1.12,
0.383,-1.16,-1.21,0.25,0.40,-0.08,1.14,
0.383,-1.16,-1.21,0.25,0.43,-0.10,1.15,
0.384,-1.16,-1.21,0.25,0.46,-0.12,1.17,
0.384,-1.16,-1.21,0.25,0.48,-0.14,1.19,
0.384,-1.16,-1.21,0.25,0.50,-0.15,1.20,
0.384,-1.08,-1.47,0.14,0.50,-0.15,1.20,
0.385,-1.08,-1.47,0.14,0.52,-0.15,1.20,
0.385,-1.08,-1.47,0.14,0.53,-0.16,1.20,
0.385,-1.08,-1.47,0.14,0.54,-0.16,1.19,
0.387,-1.08,-1.47,0.14,0.54,-0.16,1.17,
0.393,-1.08,-1.47,0.14,0.53,-0.16,1.15,
0.394,-0.53,-1.88,-0.60,0.53,-0.16,1.15,
0.394,-0.53,-1.88,-0.60,0.51,-0.16,1.11,
0.394,-0.53,-1.88,-0.60,0.48,-0.17,1.06,
0.394,-0.53,-1.88,-0.60,0.44,-0.17,1.01,
0.396,-0.53,-1.88,-0.60,0.40,-0.18,0.94,
0.399,-0.53,-1.88,-0.60,0.34,-0.19,0.87,
0.41,0.16,-2.53,-1.26,0.34,-0.19,0.87,
0.41,0.16,-2.53,-1.26,0.28,-0.21,0.79,
0.41,0.16,-2.53,-1.26,0.21,-0.24,0.71,
0.411,0.16,-2.53,-1.26,0.13,-0.26,0.62,
0.411,0.16,-2.53,-1.26,0.05,-0.28,0.53,
0.411,0.16,-2.53,-1.26,-0.04,-0.30,0.43,
0.411,0.18,-2.90,-1.75,-0.04,-0.30,0.43,
0.412,0.18,-2.90,-1.75,-0.13,-0.32,0.31,
0.412,0.18,-2.90,-1.75,-0.23,-0.33,0.18,
0.414,0.18,-2.90,-1.75,-0.34,-0.30,0.02,
0.429,0.18,-2.90,-1.75,-0.45,-0.22,-0.17,
0.43,0.18,-2.90,-1.75,-0.56,-0.13,-0.37,
0.43,0.69,-2.33,-2.19,-0.56,-0.13,-0.37,
0.43,0.69,-2.33,-2.19,-0.69,-0.03,-0.55,
0.43,0.69,-2.33,-2.19,-0.81,0.08,-0.69,
0.43,0.69,-2.33,-2.19,-0.93,0.19,-0.78,
0.431,0.69,-2.33,-2.19,-1.12,0.38,-0.83,
0.431,0.69,-2.33,-2.19,-1.19,0.45,-0.83,
0.431,-0.15,-3.09,-3.10,-1.19,0.45,-0.83,
0.431,-0.15,-3.09,-3.10,-1.31,0.58,-0.82,
0.432,-0.15,-3.09,-3.10,-1.44,0.69,-0.80,
0.449,-0.15,-3.09,-3.10,-1.56,0.80,-0.76,
0.449,-0.15,-3.09,-3.10,-1.68,0.91,-0.72,
0.449,-0.15,-3.09,-3.10,-1.79,1.02,-0.68,
0.45,-2.12,-3.51,-3.54,-1.79,1.02,-0.68,
0.45,-2.12,-3.51,-3.54,-1.88,1.13,-0.63,
0.45,-2.12,-3.51,-3.54,-1.97,1.26,-0.59,
0.45,-2.12,-3.51,-3.54,-2.04,1.40,-0.56,
0.45,-2.12,-3.51,-3.54,-2.10,1.54,-0.53,
0.45,-2.12,-3.51,-3.54,-2.16,1.68,-0.52,
0.451,-2.54,-3.11,-3.08,-2.16,1.68,-0.52,
0.451,-2.54,-3.11,-3.08,-2.21,1.80,-0.51,
0.463,-2.54,-3.11,-3.08,-2.25,1.88,-0.52,
0.463,-2.54,-3.11,-3.08,-2.28,1.93,-0.53,
0.464,-2.54,-3.11,-3.08,-2.30,1.96,-0.54,
0.464,-2.54,-3.11,-3.08,-2.31,1.97,-0.57,
0.464,-1.86,-3.09,-1.56,-2.31,1.97,-0.57,
0.464,-1.86,-3.09,-1.56,-2.31,1.98,-0.60,
0.464,-1.86,-3.09,-1.56,-2.31,2.00,-0.63,
0.465,-1.86,-3.09,-1.56,-2.30,2.02,-0.66,
0.516,-1.86,-3.09,-1.56,-2.29,2.07,-0.69,
0.517,-1.86,-3.09,-1.56,-2.29,2.15,-0.72,
0.517,-1.41,-3.04,0.41,-2.29,2.15,-0.72,
0.517,-1.41,-3.04,0.41,-2.29,2.27,-0.75,
0.517,-1.41,-3.04,0.41,-2.30,2.43,-0.78,
0.517,-1.41,-3.04,0.41,-2.33,2.60,-0.79,
0.518,-1.41,-3.04,0.41,-2.37,2.77,-0.79,
0.518,-1.41,-3.04,0.41,-2.41,2.91,-0.78,
0.518,-1.54,-2.20,0.32,-2.41,2.91,-0.78,
0.537,-1.54,-2.20,0.32,-2.46,2.98,-0.75,
0.537,-1.54,-2.20,0.32,-2.50,2.98,-0.72,
0.538,-1.54,-2.20,0.32,-2.53,2.93,-0.69,
0.538,-1.54,-2.20,0.32,-2.54,2.85,-0.66,
0.538,-1.54,-2.20,0.32,-2.53,2.75,-0.63,
0.538,-1.69,-1.58,0.55,-2.53,2.75,-0.63,
0.539,-1.69,-1.58,0.55,-2.50,2.64,-0.60,
0.539,-1.69,-1.58,0.55,-2.45,2.54,-0.58,
0.539,-1.69,-1.58,0.55,-2.40,2.47,-0.55,
0.539,-1.69,-1.58,0.55,-2.34,2.40,-0.52,
0.54,-1.69,-1.58,0.55,-2.28,2.35,-0.49,
0.54,-0.99,-1.76,0.83,-2.28,2.35,-0.49,
0.54,-0.99,-1.76,0.83,-2.20,2.32,-0.46,
0.54,-0.99,-1.76,0.83,-2.13,2.28,-0.43,
0.541,-0.99,-1.76,0.83,-2.05,2.25,-0.40,
0.541,-0.99,-1.76,0.83,-1.97,2.21,-0.38,
0.541,-0.99,-1.76,0.83,-1.89,2.16,-0.37,
0.542,-0.03,-2.64,1.24,-1.89,2.16,-0.37,
0.542,-0.03,-2.64,1.24,-1.80,2.09,-0.36,
0.542,-0.03,-2.64,1.24,-1.71,2.03,-0.36,
0.542,-0.03,-2.64,1.24,-1.63,1.95,-0.37,
0.543,-0.03,-2.64,1.24,-1.57,1.87,-0.39,
0.543,-0.03,-2.64,1.24,-1.51,1.80,-0.42,
0.543,1.64,-3.87,1.40,-1.51,1.80,-0.42,
0.543,1.64,-3.87,1.40,-1.46,1.72,-0.46,
0.544,1.64,-3.87,1.40,-1.43,1.66,-0.50,
0.544,1.64,-3.87,1.40,-1.41,1.59,-0.54,
0.544,1.64,-3.87,1.40,-1.40,1.53,-0.59,
0.544,1.64,-3.87,1.40,-1.41,1.46,-0.65,
0.545,2.95,-4.54,0.08,-1.41,1.46,-0.65,
0.545,2.95,-4.54,0.08,-1.43,1.39,-0.71,
0.546,2.95,-4.54,0.08,-1.47,1.32,-0.77,
0.546,2.95,-4.54,0.08,-1.52,1.27,-0.83,
0.546,2.95,-4.54,0.08,-1.59,1.22,-0.89,
0.546,2.95,-4.54,0.08,-1.67,1.18,-0.95,
0.547,3.62,-5.16,-1.88,-1.67,1.18,-0.95,
0.547,3.62,-5.16,-1.88,-1.76,1.13,-1.01,
0.547,3.62,-5.16,-1.88,-1.86,1.09,-1.07,
0.547,3.62,-5.16,-1.88,-1.96,1.05,-1.12,
0.548,3.62,-5.16,-1.88,-2.08,1.01,-1.17,
0.548,3.62,-5.16,-1.88,-2.20,0.96,-1.22,
0.554,3.53,-5.53,-3.36,-2.20,0.96,-1.22,
0.555,3.53,-5.53,-3.36,-2.33,0.92,-1.27,
0.555,3.53,-5.53,-3.36,-2.46,0.87,-1.30,
0.555,3.53,-5.53,-3.36,-2.60,0.84,-1.34,
0.557,3.53,-5.53,-3.36,-2.73,0.80,-1.37,
0.558,3.53,-5.53,-3.36,-2.87,0.76,-1.39,
0.561,3.21,-5.95,-4.02,-2.87,0.76,-1.39,
0.561,3.21,-5.95,-4.02,-3.00,0.72,-1.41,
0.562,3.21,-5.95,-4.02,-3.14,0.67,-1.42,
0.567,3.21,-5.95,-4.02,-3.26,0.62,-1.43,
0.567,3.21,-5.95,-4.02,-3.39,0.57,-1.43,
0.568,3.21,-5.95,-4.02,-3.51,0.53,-1.44,
0.57,2.52,-6.01,-3.55,-3.51,0.53,-1.44,
0.571,2.52,-6.01,-3.55,-3.63,0.49,-1.44,
0.572,2.52,-6.01,-3.55,-3.75,0.46,-1.43,
0.576,2.52,-6.01,-3.55,-3.87,0.44,-1.42,
0.577,2.52,-6.01,-3.55,-3.99,0.42,-1.41,
0.578,2.52,-6.01,-3.55,-4.11,0.41,-1.39,
0.581,2.41,-6.19,-3.61,-4.11,0.41,-1.39,
0.582,2.41,-6.19,-3.61,-4.22,0.40,-1.37,
0.584,2.41,-6.19,-3.61,-4.34,0.39,-1.35,
0.585,2.41,-6.19,-3.61,-4.46,0.38,-1.32,
0.586,2.41,-6.19,-3.61,-4.57,0.36,-1.30,
0.588,2.41,-6.19,-3.61,-4.68,0.34,-1.27,
0.592,2.01,-5.95,-3.59,-4.68,0.34,-1.27,
0.592,2.01,-5.95,-3.59,-4.78,0.30,-1.24,
0.593,2.01,-5.95,-3.59,-4.88,0.26,-1.22,
0.594,2.01,-5.95,-3.59,-4.98,0.22,-1.19,
0.596,2.01,-5.95,-3.59,-5.07,0.19,-1.16,
0.6,2.01,-5.95,-3.59,-5.15,0.15,-1.12,
0.602,1.80,-5.75,-2.17,-5.15,0.15,-1.12,
0.603,1.80,-5.75,-2.17,-5.22,0.13,-1.08,
0.603,1.80,-5.75,-2.17,-5.28,0.10,-1.04,
0.604,1.80,-5.75,-2.17,-5.33,0.07,-1.00,
0.606,1.80,-5.75,-2.17,-5.37,0.04,-0.95,
0.608,1.80,-5.75,-2.17,-5.40,0.01,-0.90,
0.611,1.50,-4.61,-0.04,-5.40,0.01,-0.90,
0.611,1.50,-4.61,-0.04,-5.42,-0.01,-0.85,
0.612,1.50,-4.61,-0.04,-5.44,-0.02,-0.80,
0.615,1.50,-4.61,-0.04,-5.44,-0.04,-0.74,
0.623,1.50,-4.61,-0.04,-5.45,-0.05,-0.69,
0.623,1.50,-4.61,-0.04,-5.44,-0.06,-0.63,
0.624,1.38,-3.15,1.10,-5.44,-0.06,-0.63,
0.624,1.38,-3.15,1.10,-5.43,-0.07,-0.57,
0.624,1.38,-3.15,1.10,-5.42,-0.08,-0.50,
0.625,1.38,-3.15,1.10,-5.41,-0.09,-0.43,
0.627,1.38,-3.15,1.10,-5.38,-0.11,-0.36,
0.631,1.38,-3.15,1.10,-5.36,-0.13,-0.29,
0.66,1.14,-1.98,1.61,-5.36,-0.13,-0.29,
0.66,1.14,-1.98,1.61,-5.34,-0.15,-0.21,
0.661,1.14,-1.98,1.61,-5.31,-0.17,-0.13,
0.661,1.14,-1.98,1.61,-5.29,-0.20,-0.06,
0.661,1.14,-1.98,1.61,-5.26,-0.24,0.03,
0.661,1.14,-1.98,1.61,-5.23,-0.28,0.11,
0.661,1.46,-1.29,1.84,-5.23,-0.28,0.11,
0.661,1.46,-1.29,1.84,-5.20,-0.32,0.19,
0.661,1.46,-1.29,1.84,-5.18,-0.38,0.27,
0.661,1.46,-1.29,1.84,-5.15,-0.43,0.36,
0.662,1.46,-1.29,1.84,-5.13,-0.49,0.44,
0.674,1.46,-1.29,1.84,-5.11,-0.56,0.52,
0.674,1.99,-0.90,1.94,-5.11,-0.56,0.52,
0.674,1.99,-0.90,1.94,-5.08,-0.62,0.60,
0.675,1.99,-0.90,1.94,-5.07,-0.70,0.68,
0.675,1.99,-0.90,1.94,-5.05,-0.78,0.75,
0.675,1.99,-0.90,1.94,-5.03,-0.87,0.82,
0.675,1.99,-0.90,1.94,-5.03,-0.96,0.89,
0.675,3.34,-0.77,1.69,-5.03,-0.96,0.89,
0.675,3.34,-0.77,1.69,-5.02,-1.05,0.94,
0.676,3.34,-0.77,1.69,-5.02,-1.12,1.00,
0.676,3.34,-0.77,1.69,-5.01,-1.18,1.04,
0.676,3.34,-0.77,1.69,-5.01,-1.23,1.08,
0.676,3.34,-0.77,1.69,-5.00,-1.27,1.11,
0.676,5.47,-0.08,1.42,-5.00,-1.27,1.11,
0.677,5.47,-0.08,1.42,-4.99,-1.30,1.13,
0.677,5.47,-0.08,1.42,-4.97,-1.32,1.14,
0.677,5.47,-0.08,1.42,-4.95,-1.34,1.14,
0.677,5.47,-0.08,1.42,-4.93,-1.36,1.13,
0.679,5.47,-0.08,1.42,-4.90,-1.38,1.11,
0.681,7.65,0.88,1.51,-4.90,-1.38,1.11,
0.681,7.65,0.88,1.51,-4.88,-1.39,1.08,
0.682,7.65,0.88,1.51,-4.84,-1.40,1.04,
0.684,7.65,0.88,1.51,-4.80,-1.41,1.00,
0.686,7.65,0.88,1.51,-4.76,-1.42,0.95,
0.688,7.65,0.88,1.51,-4.72,-1.45,0.88,
0.69,9.31,0.88,2.30,-4.72,-1.45,0.88,
0.691,9.31,0.88,2.30,-4.67,-1.47,0.82,
0.692,9.31,0.88,2.30,-4.63,-1.50,0.75,
0.694,9.31,0.88,2.30,-4.59,-1.54,0.67,
0.696,9.31,0.88,2.30,-4.55,-1.57,0.58,
0.698,9.31,0.88,2.30,-4.51,-1.60,0.49,
0.701,10.77,0.37,3.29,-4.51,-1.60,0.49,
0.701,10.77,0.37,3.29,-4.48,-1.62,0.40,
0.702,10.77,0.37,3.29,-4.45,-1.65,0.30,
0.704,10.77,0.37,3.29,-4.43,-1.67,0.21,
0.706,10.77,0.37,3.29,-4.41,-1.70,0.11,
0.708,10.77,0.37,3.29,-4.40,-1.72,0.02,
0.71,11.15,0.17,3.66,-4.40,-1.72,0.02,
0.711,11.15,0.17,3.66,-4.39,-1.75,-0.08,
0.712,11.15,0.17,3.66,-4.38,-1.77,-0.17,
0.714,11.15,0.17,3.66,-4.38,-1.79,-0.26,
0.716,11.15,0.17,3.66,-4.38,-1.81,-0.34,
0.718,11.15,0.17,3.66,-4.37,-1.83,-0.42,
0.72,10.85,0.32,4.34,-4.37,-1.83,-0.42,
0.721,10.85,0.32,4.34,-4.37,-1.86,-0.50,
0.722,10.85,0.32,4.34,-4.37,-1.89,-0.57,
0.724,10.85,0.32,4.34,-4.37,-1.93,-0.64,
0.726,10.85,0.32,4.34,-4.37,-1.97,-0.70,
0.73,10.85,0.32,4.34,-4.36,-2.02,-0.74,
0.732,9.38,0.76,5.32,-4.36,-2.02,-0.74,
0.732,9.38,0.76,5.32,-4.36,-2.07,-0.78,
0.732,9.38,0.76,5.32,-4.35,-2.12,-0.81,
0.739,9.38,0.76,5.32,-4.35,-2.18,-0.82,
0.739,9.38,0.76,5.32,-4.34,-2.24,-0.84,
0.739,9.38,0.76,5.32,-4.34,-2.31,-0.85,
0.741,9.38,0.76,5.32,-4.33,-2.38,-0.86,
0.745,7.64,1.54,6.14,-4.33,-2.38,-0.86,
0.745,7.64,1.54,6.14,-4.32,-2.45,-0.86,
0.745,7.64,1.54,6.14,-4.30,-2.53,-0.86,
0.746,7.64,1.54,6.14,-4.29,-2.59,-0.85,
0.754,7.64,1.54,6.14,-4.26,-2.65,-0.84,
0.755,6.24,2.38,6.88,-4.26,-2.65,-0.84,
0.755,6.24,2.38,6.88,-4.23,-2.71,-0.83,
0.755,6.24,2.38,6.88,-4.19,-2.76,-0.82,
0.755,6.24,2.38,6.88,-4.15,-2.82,-0.80,
0.756,6.24,2.38,6.88,-4.10,-2.89,-0.78,
0.76,6.24,2.38,6.88,-4.05,-2.97,-0.76,
0.76,5.02,3.34,8.35,-4.05,-2.97,-0.76,
0.76,5.02,3.34,8.35,-3.99,-3.06,-0.74,
0.763,5.02,3.34,8.35,-3.92,-3.16,-0.72,
0.764,5.02,3.34,8.35,-3.86,-3.25,-0.70,
0.766,5.02,3.34,8.35,-3.79,-3.34,-0.69,
0.768,5.02,3.34,8.35,-3.72,-3.42,-0.67,
0.77,4.33,3.76,9.15,-3.72,-3.42,-0.67,
0.77,4.33,3.76,9.15,-3.65,-3.50,-0.66,
0.772,4.33,3.76,9.15,-3.58,-3.56,-0.65,
0.774,4.33,3.76,9.15,-3.51,-3.61,-0.64,
0.778,4.33,3.76,9.15,-3.39,-3.67,-0.62,
0.779,4.33,3.76,9.15,-3.35,-3.68,-0.62,
0.782,3.90,4.48,9.55,-3.35,-3.68,-0.62,
0.782,3.90,4.48,9.55,-3.26,-3.71,-0.61,
0.782,3.90,4.48,9.55,-3.18,-3.73,-0.61,
0.795,3.90,4.48,9.55,-3.09,-3.74,-0.60,
0.795,3.90,4.48,9.55,-3.00,-3.74,-0.60,
0.795,3.90,4.48,9.55,-2.91,-3.75,-0.59,
0.795,3.13,4.84,10.07,-2.91,-3.75,-0.59,
0.796,3.13,4.84,10.07,-2.82,-3.75,-0.59,
0.796,3.13,4.84,10.07,-2.73,-3.76,-0.58,
0.796,3.13,4.84,10.07,-2.64,-3.77,-0.57,
0.796,3.13,4.84,10.07,-2.56,-3.78,-0.56,
0.799,3.13,4.84,10.07,-2.48,-3.79,-0.55,
0.803,2.16,4.90,10.33,-2.48,-3.79,-0.55,
0.803,2.16,4.90,10.33,-2.39,-3.80,-0.54,
0.803,2.16,4.90,10.33,-2.31,-3.81,-0.52,
0.804,2.16,4.90,10.33,-2.23,-3.81,-0.51,
0.806,2.16,4.90,10.33,-2.15,-3.81,-0.50,
0.808,2.16,4.90,10.33,-2.07,-3.81,-0.49,
0.81,1.31,4.84,10.30,-2.07,-3.81,-0.49,
0.81,1.31,4.84,10.30,-1.98,-3.80,-0.48,
0.812,1.31,4.84,10.30,-1.90,-3.79,-0.47,
0.825,1.31,4.84,10.30,-1.82,-3.77,-0.47,
0.825,1.31,4.84,10.30,-1.74,-3.74,-0.46,
0.825,1.31,4.84,10.30,-1.65,-3.72,-0.45,
0.825,0.54,5.17,10.48,-1.65,-3.72,-0.45,
0.826,0.54,5.17,10.48,-1.57,-3.69,-0.44,
0.826,0.54,5.17,10.48,-1.49,-3.67,-0.44,
0.826,0.54,5.17,10.48,-1.40,-3.64,-0.44,
0.826,0.54,5.17,10.48,-1.32,-3.61,-0.44,
0.829,0.54,5.17,10.48,-1.24,-3.58,-0.44,
0.833,0.01,5.18,10.21,-1.24,-3.58,-0.44,
0.833,0.01,5.18,10.21,-1.17,-3.55,-0.45,
0.833,0.01,5.18,10.21,-1.09,-3.50,-0.45,
0.834,0.01,5.18,10.21,-1.01,-3.46,-0.46,
0.836,0.01,5.18,10.21,-0.94,-3.42,-0.46,
0.838,0.01,5.18,10.21,-0.86,-3.37,-0.47,
0.84,-0.63,5.12,10.14,-0.86,-3.37,-0.47,
0.841,-0.63,5.12,10.14,-0.78,-3.33,-0.48,
0.842,-0.63,5.12,10.14,-0.70,-3.29,-0.48,
0.844,-0.63,5.12,10.14,-0.62,-3.25,-0.49,
0.846,-0.63,5.12,10.14,-0.54,-3.22,-0.49,
0.85,-0.63,5.12,10.14,-0.45,-3.20,-0.50,
0.852,-1.16,4.77,9.99,-0.45,-3.20,-0.50,
0.853,-1.16,4.77,9.99,-0.38,-3.19,-0.51,
0.853,-1.16,4.77,9.99,-0.30,-3.17,-0.52,
0.856,-1.16,4.77,9.99,-0.23,-3.16,-0.53,
0.856,-1.16,4.77,9.99,-0.16,-3.14,-0.54,
0.86,-1.16,4.77,9.99,-0.10,-3.11,-0.54,
0.862,-1.45,4.30,9.14,-0.10,-3.11,-0.54,
0.862,-1.45,4.30,9.14,-0.04,-3.08,-0.55,
0.863,-1.45,4.30,9.14,0.01,-3.04,-0.55,
0.866,-1.45,4.30,9.14,0.06,-3.01,-0.55,
0.866,-1.45,4.30,9.14,0.12,-2.97,-0.54,
0.869,-1.45,4.30,9.14,0.17,-2.93,-0.54,
0.872,-2.00,4.08,7.76,0.17,-2.93,-0.54,
0.873,-2.00,4.08,7.76,0.22,-2.89,-0.53,
0.873,-2.00,4.08,7.76,0.27,-2.86,-0.52,
0.876,-2.00,4.08,7.76,0.32,-2.82,-0.51,
0.876,-2.00,4.08,7.76,0.37,-2.78,-0.50,
0.878,-2.00,4.08,7.76,0.42,-2.74,-0.48,
0.886,-2.52,4.12,6.92,0.42,-2.74,-0.48,
0.887,-2.52,4.12,6.92,0.46,-2.70,-0.47,
0.887,-2.52,4.12,6.92,0.51,-2.67,-0.46,
0.887,-2.52,4.12,6.92,0.55,-2.62,-0.44,
0.887,-2.52,4.12,6.92,0.60,-2.58,-0.43,
0.889,-2.52,4.12,6.92,0.64,-2.53,-0.41,
0.89,-2.98,4.03,5.95,0.64,-2.53,-0.41,
0.891,-2.98,4.03,5.95,0.68,-2.49,-0.39,
0.892,-2.98,4.03,5.95,0.73,-2.46,-0.37,
0.894,-2.98,4.03,5.95,0.78,-2.42,-0.36,
0.896,-2.98,4.03,5.95,0.82,-2.39,-0.35,
0.934,-2.98,4.03,5.95,0.88,-2.36,-0.33,
0.934,-3.02,4.04,5.64,0.88,-2.36,-0.33,
0.935,-3.02,4.04,5.64,0.92,-2.33,-0.32,
0.935,-3.02,4.04,5.64,0.96,-2.30,-0.31,
0.935,-3.02,4.04,5.64,1.01,-2.27,-0.31,
0.935,-3.02,4.04,5.64,1.05,-2.24,-0.30,
0.935,-3.02,4.04,5.64,1.08,-2.20,-0.28,
0.935,-2.94,3.70,4.64,1.08,-2.20,-0.28,
0.936,-2.94,3.70,4.64,1.13,-2.17,-0.26,
0.936,-2.94,3.70,4.64,1.16,-2.13,-0.24,
0.936,-2.94,3.70,4.64,1.20,-2.09,-0.22,
0.936,-2.94,3.70,4.64,1.24,-2.04,-0.21,
0.937,-2.94,3.70,4.64,1.29,-1.99,-0.19,
0.937,-3.28,3.56,4.21,1.29,-1.99,-0.19,
0.937,-3.28,3.56,4.21,1.33,-1.94,-0.17,
0.937,-3.28,3.56,4.21,1.38,-1.90,-0.15,
0.937,-3.28,3.56,4.21,1.43,-1.85,-0.13,
0.937,-3.28,3.56,4.21,1.48,-1.79,-0.11,
0.938,-3.28,3.56,4.21,1.53,-1.73,-0.09,
0.938,-3.47,3.20,3.85,1.53,-1.73,-0.09,
0.938,-3.47,3.20,3.85,1.58,-1.67,-0.06,
0.938,-3.47,3.20,3.85,1.63,-1.60,-0.04,
0.938,-3.47,3.20,3.85,1.68,-1.52,-0.02,
0.938,-3.47,3.20,3.85,1.73,-1.44,0.00,
0.939,-3.47,3.20,3.85,1.78,-1.36,0.02,
0.942,-3.88,2.56,3.69,1.78,-1.36,0.02,
0.942,-3.88,2.56,3.69,1.83,-1.28,0.05,
0.943,-3.88,2.56,3.69,1.87,-1.20,0.07,
0.944,-3.88,2.56,3.69,1.91,-1.12,0.08,
0.948,-3.88,2.56,3.69,1.94,-1.04,0.10,
0.949,-3.88,2.56,3.69,1.97,-0.95,0.11,
0.951,-4.29,1.16,3.08,1.97,-0.95,0.11,
0.952,-4.29,1.16,3.08,1.99,-0.87,0.12,
0.953,-4.29,1.16,3.08,2.00,-0.78,0.14,
0.955,-4.29,1.16,3.08,2.00,-0.69,0.17,
0.956,-4.29,1.16,3.08,1.99,-0.60,0.19,
0.958,-4.29,1.16,3.08,1.97,-0.50,0.23,
0.962,-6.06,-0.97,1.88,1.97,-0.50,0.23,
0.962,-6.06,-0.97,1.88,1.95,-0.39,0.26,
0.962,-6.06,-0.97,1.88,1.92,-0.28,0.29,
0.965,-6.06,-0.97,1.88,1.89,-0.17,0.33,
0.968,-6.06,-0.97,1.88,1.85,-0.05,0.35,
0.969,-6.06,-0.97,1.88,1.81,0.07,0.38,
0.971,-7.12,-2.46,0.23,1.81,0.07,0.38,
0.972,-7.12,-2.46,0.23,1.77,0.19,0.40,
0.979,-7.12,-2.46,0.23,1.74,0.31,0.41,
0.983,-7.12,-2.46,0.23,1.71,0.43,0.41,
0.983,-7.12,-2.46,0.23,1.69,0.55,0.40,
0.984,-7.12,-2.46,0.23,1.68,0.67,0.38,
0.984,-6.62,-3.22,-0.09,1.68,0.67,0.38,
1.003,-6.62,-3.22,-0.09,1.68,0.79,0.35,
1.004,-6.62,-3.22,-0.09,1.68,0.92,0.31,
1.004,-6.62,-3.22,-0.09,1.68,1.04,0.25,
1.004,-6.62,-3.22,-0.09,1.68,1.16,0.19,
1.004,-6.62,-3.22,-0.09,1.69,1.28,0.13,
1.005,-4.87,-2.69,-0.38,1.69,1.28,0.13,
1.005,-4.87,-2.69,-0.38,1.69,1.40,0.06,
1.005,-4.87,-2.69,-0.38,1.70,1.51,-0.01,
1.005,-4.87,-2.69,-0.38,1.70,1.62,-0.07,
1.005,-4.87,-2.69,-0.38,1.72,1.72,-0.12,
1.006,-4.87,-2.69,-0.38,1.73,1.81,-0.18,
1.006,-4.01,-1.35,-0.14,1.73,1.81,-0.18,
1.006,-4.01,-1.35,-0.14,1.75,1.88,-0.23,
1.006,-4.01,-1.35,-0.14,1.77,1.95,-0.27,
1.007,-4.01,-1.35,-0.14,1.78,2.00,-0.31,
1.007,-4.01,-1.35,-0.14,1.79,2.05,-0.35,
1.011,-4.01,-1.35,-0.14,1.79,2.08,-0.38,
1.012,-2.96,0.07,-0.15,1.79,2.08,-0.38,
1.013,-2.96,0.07,-0.15,1.78,2.09,-0.40,
1.013,-2.96,0.07,-0.15,1.77,2.10,-0.42,
1.016,-2.96,0.07,-0.15,1.75,2.11,-0.42,
1.017,-2.96,0.07,-0.15,1.72,2.11,-0.41,
1.02,-2.96,0.07,-0.15,1.69,2.09,-0.40,
1.022,-2.73,1.02,-0.42,1.69,2.09,-0.40,
1.022,-2.73,1.02,-0.42,1.66,2.07,-0.37,
1.022,-2.73,1.02,-0.42,1.63,2.05,-0.33,
1.024,-2.73,1.02,-0.42,1.59,2.00,-0.28,
1.026,-2.73,1.02,-0.42,1.55,1.95,-0.22,
1.028,-2.73,1.02,-0.42,1.51,1.88,-0.16,
1.031,-3.00,1.30,-0.63,1.51,1.88,-0.16,
1.031,-3.00,1.30,-0.63,1.47,1.80,-0.09,
1.032,-3.00,1.30,-0.63,1.43,1.72,-0.00,
1.034,-3.00,1.30,-0.63,1.40,1.63,0.08,
1.036,-3.00,1.30,-0.63,1.38,1.54,0.18,
1.038,-3.00,1.30,-0.63,1.36,1.46,0.28,
1.041,-2.78,1.39,0.64,1.36,1.46,0.28,
1.041,-2.78,1.39,0.64,1.36,1.38,0.40,
1.042,-2.78,1.39,0.64,1.37,1.30,0.52,
1.044,-2.78,1.39,0.64,1.39,1.21,0.66,
1.052,-2.78,1.39,0.64,1.42,1.13,0.80,
1.053,-2.78,1.39,0.64,1.45,1.03,0.96,
1.053,-3.47,1.43,2.28,1.45,1.03,0.96,
1.053,-3.47,1.43,2.28,1.49,0.93,1.13,
1.053,-3.47,1.43,2.28,1.53,0.82,1.30,
1.057,-3.47,1.43,2.28,1.57,0.69,1.48,
1.057,-3.47,1.43,2.28,1.62,0.55,1.66,
1.058,-3.47,1.43,2.28,1.66,0.39,1.85,
1.061,-4.21,1.25,2.94,1.66,0.39,1.85,
1.061,-4.21,1.25,2.94,1.70,0.21,2.03,
1.077,-4.21,1.25,2.94,1.74,0.02,2.20,
1.077,-4.21,1.25,2.94,1.79,-0.18,2.37,
1.077,-4.21,1.25,2.94,1.83,-0.39,2.53,
1.077,-4.21,1.25,2.94,1.88,-0.60,2.68,
1.078,-3.40,1.09,3.19,1.88,-0.60,2.68,
1.078,-3.40,1.09,3.19,1.93,-0.82,2.82,
1.078,-3.40,1.09,3.19,1.97,-1.04,2.94,
1.078,-3.40,1.09,3.19,2.03,-1.26,3.04,
1.078,-3.40,1.09,3.19,2.09,-1.48,3.12,
1.079,-3.40,1.09,3.19,2.16,-1.70,3.15,
1.085,-0.35,0.43,3.44,2.16,-1.70,3.15,
1.086,-0.35,0.43,3.44,2.23,-1.90,3.15,
1.086,-0.35,0.43,3.44,2.29,-2.05,3.12,
1.086,-0.35,0.43,3.44,2.34,-2.15,3.06,
1.086,-0.35,0.43,3.44,2.39,-2.23,3.00,
1.09,-0.35,0.43,3.44,2.43,-2.28,2.92,
1.09,2.50,-1.80,1.69,2.43,-2.28,2.92,
1.09,2.50,-1.80,1.69,2.47,-2.30,2.84,
1.092,2.50,-1.80,1.69,2.51,-2.31,2.76,
1.094,2.50,-1.80,1.69,2.54,-2.30,2.67,
1.104,2.50,-1.80,1.69,2.55,-2.28,2.57,
1.104,2.50,-1.80,1.69,2.54,-2.22,2.46,
1.105,3.17,-2.42,-1.12,2.54,-2.22,2.46,
1.105,3.17,-2.42,-1.12,2.52,-2.15,2.36,
1.105,3.17,-2.42,-1.12,2.50,-2.07,2.26,
1.105,3.17,-2.42,-1.12,2.48,-1.98,2.17,
1.106,3.17,-2.42,-1.12,2.46,-1.90,2.07,
1.108,3.17,-2.42,-1.12,2.44,-1.83,1.97,
1.11,2.79,-2.24,-2.39,2.44,-1.83,1.97,
1.111,2.79,-2.24,-2.39,2.40,-1.75,1.88,
1.112,2.79,-2.24,-2.39,2.36,-1.67,1.78,
1.115,2.79,-2.24,-2.39,2.32,-1.59,1.69,
1.116,2.79,-2.24,-2.39,2.27,-1.53,1.60,
1.121,2.79,-2.24,-2.39,2.22,-1.49,1.51,
1.121,2.54,-2.18,-2.79,2.22,-1.49,1.51,
1.121,2.54,-2.18,-2.79,2.17,-1.45,1.44,
1.122,2.54,-2.18,-2.79,2.12,-1.44,1.36,
1.124,2.54,-2.18,-2.79,2.07,-1.41,1.28,
1.131,2.54,-2.18,-2.79,1.99,-1.38,1.17,
1.131,2.54,-2.18,-2.79,1.96,-1.36,1.13,
1.131,2.88,-1.83,-2.29,1.96,-1.36,1.13,
1.132,2.88,-1.83,-2.29,1.90,-1.33,1.05,
1.133,2.88,-1.83,-2.29,1.84,-1.28,0.97,
1.134,2.88,-1.83,-2.29,1.77,-1.24,0.89,
1.136,2.88,-1.83,-2.29,1.71,-1.19,0.81,
1.138,2.88,-1.83,-2.29,1.64,-1.14,0.72,
1.14,3.60,-1.18,-2.56,1.64,-1.14,0.72,
1.14,3.60,-1.18,-2.56,1.58,-1.09,0.64,
1.142,3.60,-1.18,-2.56,1.52,-1.03,0.56,
1.145,3.60,-1.18,-2.56,1.46,-0.99,0.48,
1.15,3.60,-1.18,-2.56,1.40,-0.95,0.41,
1.161,3.60,-1.18,-2.56,1.35,-0.91,0.35,
1.161,3.61,-0.25,-2.00,1.35,-0.91,0.35,
1.161,3.61,-0.25,-2.00,1.31,-0.89,0.29,
1.161,3.61,-0.25,-2.00,1.28,-0.88,0.24,
1.161,3.61,-0.25,-2.00,1.26,-0.87,0.20,
1.161,3.61,-0.25,-2.00,1.23,-0.86,0.17,
1.162,3.61,-0.25,-2.00,1.22,-0.86,0.14,
1.162,2.59,0.66,-0.62,1.22,-0.86,0.14,
1.162,2.59,0.66,-0.62,1.22,-0.87,0.13,
1.162,2.59,0.66,-0.62,1.21,-0.88,0.12,
1.164,2.59,0.66,-0.62,1.22,-0.90,0.12,
1.172,2.59,0.66,-0.62,1.23,-0.93,0.13,
1.172,2.59,0.66,-0.62,1.24,-0.97,0.15,
1.172,1.60,1.39,0.51,1.24,-0.97,0.15,
1.173,1.60,1.39,0.51,1.27,-1.01,0.17,
1.173,1.60,1.39,0.51,1.31,-1.06,0.20,
1.174,1.60,1.39,0.51,1.35,-1.12,0.23,
1.176,1.60,1.39,0.51,1.39,-1.19,0.27,
1.178,1.60,1.39,0.51,1.44,-1.28,0.32,
1.196,0.91,2.42,1.97,1.44,-1.28,0.32,
1.196,0.91,2.42,1.97,1.49,-1.37,0.39,
1.196,0.91,2.42,1.97,1.55,-1.46,0.46,
1.197,0.91,2.42,1.97,1.61,-1.55,0.53,
1.197,0.91,2.42,1.97,1.67,-1.64,0.62,
1.197,0.91,2.42,1.97,1.74,-1.73,0.70,
1.197,-0.12,2.94,2.81,1.74,-1.73,0.70,
1.197,-0.12,2.94,2.81,1.80,-1.81,0.79,
1.198,-0.12,2.94,2.81,1.87,-1.90,0.87,
1.198,-0.12,2.94,2.81,1.97,-2.03,0.99,
1.198,-0.12,2.94,2.81,2.00,-2.08,1.03,
1.198,-0.12,2.94,2.81,2.07,-2.18,1.10,
1.201,-0.47,2.99,3.22,2.07,-2.18,1.10,
1.201,-0.47,2.99,3.22,2.15,-2.28,1.16,
1.202,-0.47,2.99,3.22,2.22,-2.38,1.22,
1.204,-0.47,2.99,3.22,2.30,-2.47,1.27,
1.206,-0.47,2.99,3.22,2.39,-2.56,1.31,
1.208,-0.47,2.99,3.22,2.48,-2.65,1.35,
1.21,0.08,2.38,4.10,2.48,-2.65,1.35,
1.211,0.08,2.38,4.10,2.57,-2.74,1.38,
1.213,0.08,2.38,4.10,2.65,-2.82,1.40,
1.214,0.08,2.38,4.10,2.74,-2.91,1.42,
1.216,0.08,2.38,4.10,2.82,-2.99,1.43,
1.218,0.08,2.38,4.10,2.90,-3.08,1.44,
1.22,0.57,1.40,4.51,2.90,-3.08,1.44,
1.221,0.57,1.40,4.51,2.97,-3.17,1.44,
1.222,0.57,1.40,4.51,3.04,-3.26,1.44,
1.225,0.57,1.40,4.51,3.10,-3.36,1.43,
1.226,0.57,1.40,4.51,3.14,-3.45,1.42,
1.228,0.57,1.40,4.51,3.16,-3.52,1.41,
1.231,0.84,-0.13,3.18,3.16,-3.52,1.41,
1.231,0.84,-0.13,3.18,3.18,-3.58,1.40,
1.233,0.84,-0.13,3.18,3.18,-3.64,1.39,
1.234,0.84,-0.13,3.18,3.18,-3.69,1.39,
1.236,0.84,-0.13,3.18,3.16,-3.74,1.39,
1.242,0.84,-0.13,3.18,3.06,-3.85,1.39,
1.243,0.84,-0.13,3.18,3.06,-3.85,1.39,
1.245,0.84,-0.13,3.18,3.06,-3.85,1.39,
1.247,-0.53,-1.93,1.14,3.06,-3.85,1.39,
1.247,-0.53,-1.93,1.14,2.99,-3.91,1.40,
1.247,-0.53,-1.93,1.14,2.99,-3.91,1.40,
1.249,-0.53,-1.93,1.14,2.97,-3.91,1.40,
1.251,-1.10,-1.84,0.84,2.97,-3.91,1.40,
1.252,-1.10,-1.84,0.84,2.94,-3.91,1.40,
1.252,-1.10,-1.84,0.84,2.89,-3.87,1.43,
1.258,-1.10,-1.84,0.84,2.85,-3.83,1.46,
1.258,-1.10,-1.84,0.84,2.81,-3.80,1.47,
1.258,-1.10,-1.84,0.84,2.74,-3.73,1.50,
1.261,-2.59,-1.40,-1.17,2.74,-3.73,1.50,
1.261,-2.59,-1.40,-1.17,2.65,-3.65,1.53,
1.262,-2.59,-1.40,-1.17,2.57,-3.56,1.55,
1.264,-2.59,-1.40,-1.17,2.48,-3.49,1.58,
1.266,-2.59,-1.40,-1.17,2.41,-3.42,1.61,
1.268,-2.59,-1.40,-1.17,2.34,-3.37,1.64,
1.271,-3.33,-1.44,-1.44,2.34,-3.37,1.64,
1.271,-3.33,-1.44,-1.44,2.29,-3.32,1.67,
1.274,-3.33,-1.44,-1.44,2.25,-3.29,1.70,
1.274,-3.33,-1.44,-1.44,2.21,-3.28,1.72,
1.276,-3.33,-1.44,-1.44,2.18,-3.28,1.74,
1.278,-3.33,-1.44,-1.44,2.14,-3.29,1.75,
1.283,-3.69,-1.35,-0.75,2.14,-3.29,1.75,
1.283,-3.69,-1.35,-0.75,2.09,-3.29,1.77,
1.284,-3.69,-1.35,-0.75,2.04,-3.28,1.78,
1.284,-3.69,-1.35,-0.75,2.00,-3.25,1.79,
1.286,-3.69,-1.35,-0.75,1.95,-3.22,1.81,
1.288,-3.69,-1.35,-0.75,1.90,-3.18,1.83,
1.29,-4.16,-0.81,-1.34,1.90,-3.18,1.83,
1.291,-4.16,-0.81,-1.34,1.85,-3.14,1.85,
1.292,-4.16,-0.81,-1.34,1.81,-3.10,1.88,
1.295,-4.16,-0.81,-1.34,1.77,-3.05,1.90,
1.308,-4.16,-0.81,-1.34,1.73,-2.99,1.93,
1.309,-4.16,-0.81,-1.34,1.69,-2.93,1.96,
1.309,-4.82,-0.51,-1.47,1.69,-2.93,1.96,
1.31,-4.82,-0.51,-1.47,1.65,-2.87,2.00,
1.31,-4.82,-0.51,-1.47,1.61,-2.80,2.03,
1.31,-4.82,-0.51,-1.47,1.57,-2.75,2.08,
1.311,-4.82,-0.51,-1.47,1.53,-2.70,2.11,
1.311,-4.82,-0.51,-1.47,1.49,-2.67,2.15,
1.328,-5.36,-0.39,-1.45,1.49,-2.67,2.15,
1.328,-5.36,-0.39,-1.45,1.46,-2.68,2.19,
1.328,-5.36,-0.39,-1.45,1.43,-2.69,2.22,
1.345,-5.36,-0.39,-1.45,1.41,-2.71,2.25,
1.346,-5.36,-0.39,-1.45,1.40,-2.71,2.28,
1.346,-5.36,-0.39,-1.45,1.39,-2.73,2.31,
1.346,-5.74,-0.86,-0.47,1.39,-2.73,2.31,
1.347,-5.74,-0.86,-0.47,1.37,-2.75,2.34,
1.347,-5.74,-0.86,-0.47,1.37,-2.76,2.38,
1.347,-5.74,-0.86,-0.47,1.37,-2.78,2.41,
1.347,-5.74,-0.86,-0.47,1.36,-2.78,2.45,
1.348,-5.74,-0.86,-0.47,1.36,-2.76,2.49,
1.348,-5.81,-0.48,-0.40,1.36,-2.76,2.49,
1.348,-5.81,-0.48,-0.40,1.37,-2.74,2.54,
1.349,-5.81,-0.48,-0.40,1.39,-2.72,2.60,
1.349,-5.81,-0.48,-0.40,1.42,-2.67,2.69,
1.349,-5.81,-0.48,-0.40,1.43,-2.66,2.72,
1.349,-5.81,-0.48,-0.40,1.46,-2.63,2.79,
1.35,-6.17,-0.31,0.16,1.46,-2.63,2.79,
1.35,-6.17,-0.31,0.16,1.50,-2.61,2.86,
1.35,-6.17,-0.31,0.16,1.54,-2.59,2.92,
1.35,-6.17,-0.31,0.16,1.58,-2.57,2.98,
1.351,-6.17,-0.31,0.16,1.63,-2.54,3.03,
1.351,-6.17,-0.31,0.16,1.67,-2.52,3.08,
1.351,-5.40,-0.81,1.32,1.67,-2.52,3.08,
1.351,-5.40,-0.81,1.32,1.72,-2.51,3.13,
1.356,-5.40,-0.81,1.32,1.77,-2.50,3.18,
1.357,-5.40,-0.81,1.32,1.81,-2.48,3.25,
1.357,-5.40,-0.81,1.32,1.85,-2.46,3.31,
1.358,-5.40,-0.81,1.32,1.88,-2.45,3.39,
1.362,-5.66,-1.67,1.15,1.88,-2.45,3.39,
1.362,-5.66,-1.67,1.15,1.91,-2.44,3.46,
1.363,-5.66,-1.67,1.15,1.94,-2.42,3.54,
1.364,-5.66,-1.67,1.15,1.96,-2.40,3.62,
1.366,-5.66,-1.67,1.15,1.99,-2.37,3.70,
1.368,-5.66,-1.67,1.15,2.00,-2.33,3.78,
1.371,-5.41,-1.81,0.19,2.00,-2.33,3.78,
1.371,-5.41,-1.81,0.19,2.02,-2.29,3.87,
1.372,-5.41,-1.81,0.19,2.04,-2.26,3.96,
1.374,-5.41,-1.81,0.19,2.05,-2.24,4.05,
1.376,-5.41,-1.81,0.19,2.05,-2.21,4.13,
1.379,-5.41,-1.81,0.19,2.05,-2.20,4.21,
1.381,-4.23,-2.06,-0.97,2.05,-2.20,4.21,
1.382,-4.23,-2.06,-0.97,2.04,-2.19,4.29,
1.382,-4.23,-2.06,-0.97,2.03,-2.17,4.36,
1.385,-4.23,-2.06,-0.97,2.02,-2.14,4.41,
1.389,-4.23,-2.06,-0.97,2.02,-2.09,4.45,
1.389,-4.23,-2.06,-0.97,2.02,-2.04,4.49,
1.391,-2.10,-2.58,-1.03,2.02,-2.04,4.49,
1.391,-2.10,-2.58,-1.03,2.02,-1.99,4.51,
1.392,-2.10,-2.58,-1.03,2.02,-1.94,4.54,
1.394,-2.10,-2.58,-1.03,2.01,-1.90,4.55,
1.396,-2.10,-2.58,-1.03,2.00,-1.84,4.57,
1.399,-2.10,-2.58,-1.03,1.98,-1.76,4.58,
1.401,-1.26,-2.57,-1.51,1.98,-1.76,4.58,
1.401,-1.26,-2.57,-1.51,1.95,-1.65,4.59,
1.402,-1.26,-2.57,-1.51,1.91,-1.54,4.59,
1.404,-1.26,-2.57,-1.51,1.87,-1.42,4.58,
1.406,-1.26,-2.57,-1.51,1.83,-1.28,4.56,
1.409,-1.26,-2.57,-1.51,1.78,-1.12,4.53,
1.411,0.23,-2.51,-2.57,1.78,-1.12,4.53,
1.411,0.23,-2.51,-2.57,1.73,-0.98,4.48,
1.416,0.23,-2.51,-2.57,1.68,-0.85,4.43,
1.418,0.23,-2.51,-2.57,1.60,-0.72,4.32,
1.418,0.23,-2.51,-2.57,1.57,-0.69,4.28,
1.419,0.23,-2.51,-2.57,1.52,-0.64,4.19,
1.422,1.98,-3.08,-2.01,1.52,-0.64,4.19,
1.423,1.98,-3.08,-2.01,1.47,-0.60,4.08,
1.423,1.98,-3.08,-2.01,1.42,-0.57,3.97,
1.425,1.98,-3.08,-2.01,1.37,-0.55,3.85,
1.435,1.98,-3.08,-2.01,1.33,-0.53,3.72,
1.435,1.98,-3.08,-2.01,1.28,-0.51,3.58,
1.435,3.20,-3.52,-1.08,1.28,-0.51,3.58,
1.436,3.20,-3.52,-1.08,1.23,-0.49,3.44,
1.438,3.20,-3.52,-1.08,1.18,-0.47,3.30,
1.439,3.20,-3.52,-1.08,1.10,-0.43,3.07,
1.439,3.20,-3.52,-1.08,1.08,-0.42,2.99,
1.441,3.20,-3.52,-1.08,1.04,-0.39,2.84,
1.442,3.83,-3.55,-1.01,1.04,-0.39,2.84,
1.442,3.83,-3.55,-1.01,0.99,-0.36,2.69,
1.442,3.83,-3.55,-1.01,0.94,-0.34,2.54,
1.445,3.83,-3.55,-1.01,0.88,-0.32,2.31,
1.455,3.83,-3.55,-1.01,0.86,-0.31,2.23,
1.456,3.83,-3.55,-1.01,0.83,-0.27,2.08,
1.456,3.71,-3.12,-1.13,0.83,-0.27,2.08,
1.457,3.71,-3.12,-1.13,0.79,-0.23,1.93,
1.457,3.71,-3.12,-1.13,0.76,-0.19,1.79,
1.457,3.71,-3.12,-1.13,0.73,-0.14,1.65,
1.457,3.71,-3.12,-1.13,0.70,-0.08,1.52,
1.459,3.71,-3.12,-1.13,0.67,-0.02,1.40,
1.462,3.34,-2.81,-1.03,0.67,-0.02,1.40,
1.463,3.34,-2.81,-1.03,0.65,0.04,1.29,
1.463,3.34,-2.81,-1.03,0.63,0.11,1.18,
1.466,3.34,-2.81,-1.03,0.62,0.19,1.07,
1.467,3.34,-2.81,-1.03,0.60,0.26,0.98,
1.469,3.34,-2.81,-1.03,0.59,0.33,0.90,
1.471,2.90,-2.21,-0.68,0.59,0.33,0.90,
1.471,2.90,-2.21,-0.68,0.58,0.39,0.83,
1.472,2.90,-2.21,-0.68,0.57,0.45,0.77,
1.474,2.90,-2.21,-0.68,0.57,0.54,0.71,
1.477,2.90,-2.21,-0.68,0.58,0.58,0.68,
1.479,2.90,-2.21,-0.68,0.58,0.60,0.67,
1.481,1.84,-1.66,-0.23,0.58,0.60,0.67,
1.498,1.84,-1.66,-0.23,0.58,0.62,0.66,
1.498,1.84,-1.66,-0.23,0.59,0.63,0.67,
1.499,1.84,-1.66,-0.23,0.61,0.61,0.69,
1.499,1.84,-1.66,-0.23,0.61,0.60,0.70,
1.499,1.84,-1.66,-0.23,0.63,0.54,0.75,
1.499,0.55,-1.54,0.86,0.63,0.54,0.75,
1.5,0.55,-1.54,0.86,0.64,0.52,0.76,
1.5,0.55,-1.54,0.86,0.65,0.47,0.80,
1.5,0.55,-1.54,0.86,0.67,0.40,0.87,
1.5,0.55,-1.54,0.86,0.68,0.37,0.89,
1.5,0.55,-1.54,0.86,0.70,0.28,0.95,
1.504,-0.48,-1.34,2.12,0.70,0.28,0.95,
1.504,-0.48,-1.34,2.12,0.71,0.21,1.00,
1.505,-0.48,-1.34,2.12,0.72,0.18,1.02,
1.505,-0.48,-1.34,2.12,0.74,0.08,1.08,
1.507,-0.48,-1.34,2.12,0.75,0.04,1.10,
1.509,-0.48,-1.34,2.12,0.78,-0.04,1.17,
1.511,-0.85,-1.08,3.16,0.78,-0.04,1.17,
1.511,-0.85,-1.08,3.16,0.80,-0.10,1.21,
1.513,-0.85,-1.08,3.16,0.81,-0.13,1.23,
1.515,-0.85,-1.08,3.16,0.83,-0.21,1.29,
1.516,-0.85,-1.08,3.16,0.84,-0.24,1.31,
1.518,-0.85,-1.08,3.16,0.86,-0.33,1.36,
1.521,-0.66,-0.97,3.85,0.86,-0.33,1.36,
1.521,-0.66,-0.97,3.85,0.86,-0.39,1.38,
1.522,-0.66,-0.97,3.85,0.87,-0.42,1.39,
1.525,-0.66,-0.97,3.85,0.87,-0.52,1.40,
1.526,-0.66,-0.97,3.85,0.87,-0.56,1.40,
1.529,-0.66,-0.97,3.85,0.85,-0.66,1.40,
1.531,0.33,-1.10,3.74,0.85,-0.66,1.40,
1.531,0.33,-1.10,3.74,0.83,-0.73,1.40,
1.532,0.33,-1.10,3.74,0.82,-0.78,1.39,
1.534,0.33,-1.10,3.74,0.77,-1.00,1.38,
1.537,0.33,-1.10,3.74,0.76,-1.08,1.37,
1.538,0.33,-1.10,3.74,0.70,-1.29,1.34,
1.541,1.12,-0.63,3.28,0.70,-1.29,1.34,
1.541,1.12,-0.63,3.28,0.66,-1.39,1.32,
1.542,1.12,-0.63,3.28,0.62,-1.45,1.29,
1.544,1.12,-0.63,3.28,0.58,-1.49,1.27,
1.546,1.12,-0.63,3.28,0.54,-1.51,1.25,
1.549,1.12,-0.63,3.28,0.50,-1.51,1.23,
1.551,1.60,0.04,1.48,0.50,-1.51,1.23,
1.551,1.60,0.04,1.48,0.47,-1.51,1.22,
1.552,1.60,0.04,1.48,0.43,-1.49,1.20,
1.555,1.60,0.04,1.48,0.39,-1.46,1.19,
1.556,1.60,0.04,1.48,0.35,-1.43,1.18,
1.558,1.60,0.04,1.48,0.32,-1.39,1.17,
1.561,1.52,0.66,-0.45,0.32,-1.39,1.17,
1.561,1.52,0.66,-0.45,0.28,-1.35,1.16,
1.566,1.52,0.66,-0.45,0.24,-1.29,1.16,
1.567,1.52,0.66,-0.45,0.20,-1.22,1.16,
1.569,1.52,0.66,-0.45,0.17,-1.14,1.15,
1.569,1.52,0.66,-0.45,0.13,-1.06,1.15,
1.573,1.05,0.98,-1.69,0.13,-1.06,1.15,
1.573,1.05,0.98,-1.69,0.09,-0.97,1.15,
1.573,1.05,0.98,-1.69,0.05,-0.88,1.14,
1.574,1.05,0.98,-1.69,0.01,-0.80,1.15,
1.576,1.05,0.98,-1.69,-0.02,-0.72,1.14,
1.586,1.05,0.98,-1.69,-0.07,-0.65,1.15,
1.586,0.60,1.11,-2.62,-0.07,-0.65,1.15,
1.586,0.60,1.11,-2.62,-0.11,-0.57,1.15,
1.586,0.60,1.11,-2.62,-0.16,-0.49,1.15,
1.586,0.60,1.11,-2.62,-0.20,-0.41,1.15,
1.586,0.60,1.11,-2.62,-0.25,-0.35,1.15,
1.588,0.60,1.11,-2.62,-0.29,-0.28,1.16,
1.59,-0.10,1.13,-3.24,-0.29,-0.28,1.16,
1.591,-0.10,1.13,-3.24,-0.34,-0.22,1.16,
1.593,-0.10,1.13,-3.24,-0.38,-0.15,1.16,
1.594,-0.10,1.13,-3.24,-0.42,-0.08,1.17,
1.596,-0.10,1.13,-3.24,-0.46,-0.01,1.17,
1.598,-0.10,1.13,-3.24,-0.49,0.05,1.17,
1.601,-0.89,1.28,-3.44,-0.49,0.05,1.17,
1.601,-0.89,1.28,-3.44,-0.53,0.12,1.18,
1.602,-0.89,1.28,-3.44,-0.56,0.19,1.18,
1.604,-0.89,1.28,-3.44,-0.59,0.26,1.18,
1.606,-0.89,1.28,-3.44,-0.61,0.32,1.18,
1.608,-0.89,1.28,-3.44,-0.63,0.39,1.17,
1.61,-1.28,1.65,-3.03,-0.63,0.39,1.17,
1.61,-1.28,1.65,-3.03,-0.65,0.45,1.17,
1.612,-1.28,1.65,-3.03,-0.67,0.50,1.16,
1.614,-1.28,1.65,-3.03,-0.68,0.54,1.15,
1.616,-1.28,1.65,-3.03,-0.68,0.57,1.14,
1.618,-1.28,1.65,-3.03,-0.68,0.57,1.12,
1.62,-1.16,2.02,-2.08,-0.68,0.57,1.12,
1.62,-1.16,2.02,-2.08,-0.67,0.57,1.11,
1.622,-1.16,2.02,-2.08,-0.65,0.55,1.09,
1.624,-1.16,2.02,-2.08,-0.62,0.51,1.07,
1.627,-1.16,2.02,-2.08,-0.58,0.45,1.05,
1.628,-1.16,2.02,-2.08,-0.53,0.38,1.04,
1.63,-0.77,2.16,-0.01,-0.53,0.38,1.04,
1.631,-0.77,2.16,-0.01,-0.47,0.28,1.02,
1.632,-0.77,2.16,-0.01,-0.40,0.17,1.00,
1.634,-0.77,2.16,-0.01,-0.31,0.05,0.98,
1.636,-0.77,2.16,-0.01,-0.22,-0.08,0.96,
1.638,-0.77,2.16,-0.01,-0.13,-0.22,0.95,
1.64,-0.32,2.11,2.11,-0.13,-0.22,0.95,
1.641,-0.32,2.11,2.11,-0.03,-0.36,0.95,
1.643,-0.32,2.11,2.11,0.07,-0.49,0.94,
1.644,-0.32,2.11,2.11,0.18,-0.61,0.95,
1.646,-0.32,2.11,2.11,0.27,-0.72,0.96,
1.664,-0.32,2.11,2.11,0.37,-0.81,0.98,
1.664,0.10,1.78,2.49,0.37,-0.81,0.98,
1.665,0.10,1.78,2.49,0.46,-0.88,1.00,
1.665,0.10,1.78,2.49,0.55,-0.94,1.03,
1.665,0.10,1.78,2.49,0.63,-0.98,1.06,
1.665,0.10,1.78,2.49,0.70,-1.00,1.10,
1.665,0.10,1.78,2.49,0.77,-1.01,1.15,
1.666,0.47,1.17,1.52,0.77,-1.01,1.15,
1.666,0.47,1.17,1.52,0.83,-1.00,1.20,
1.666,0.47,1.17,1.52,0.88,-0.98,1.26,
1.666,0.47,1.17,1.52,0.93,-0.94,1.32,
1.666,0.47,1.17,1.52,0.97,-0.88,1.38,
1.668,0.47,1.17,1.52,1.01,-0.81,1.44,
1.67,0.45,0.62,0.01,1.01,-0.81,1.44,
1.671,0.45,0.62,0.01,1.04,-0.73,1.50,
1.672,0.45,0.62,0.01,1.06,-0.65,1.56,
1.674,0.45,0.62,0.01,1.08,-0.56,1.62,
1.676,0.45,0.62,0.01,1.09,-0.47,1.68,
1.678,0.45,0.62,0.01,1.09,-0.37,1.73,
1.681,0.46,0.47,-1.25,1.09,-0.37,1.73,
1.681,0.46,0.47,-1.25,1.08,-0.27,1.78,
1.682,0.46,0.47,-1.25,1.07,-0.18,1.83,
1.688,0.46,0.47,-1.25,1.05,-0.09,1.88,
1.688,0.46,0.47,-1.25,1.02,-0.02,1.93,
1.688,0.46,0.47,-1.25,0.97,0.05,1.97,
1.691,0.81,0.42,-1.97,0.97,0.05,1.97,
1.691,0.81,0.42,-1.97,0.93,0.10,2.01,
1.692,0.81,0.42,-1.97,0.88,0.13,2.05,
1.694,0.81,0.42,-1.97,0.81,0.12,2.09,
1.698,0.81,0.42,-1.97,0.74,0.08,2.13,
1.699,0.81,0.42,-1.97,0.66,0.02,2.16,
1.7,1.17,0.58,-2.41,0.66,0.02,2.16,
1.701,1.17,0.58,-2.41,0.58,-0.04,2.18,
1.702,1.17,0.58,-2.41,0.50,-0.12,2.20,
1.704,1.17,0.58,-2.41,0.41,-0.20,2.22,
1.706,1.17,0.58,-2.41,0.32,-0.29,2.23,
1.708,1.17,0.58,-2.41,0.23,-0.39,2.25,
1.71,1.26,0.84,-2.31,0.23,-0.39,2.25,
1.711,1.26,0.84,-2.31,0.14,-0.48,2.25,
1.718,1.26,0.84,-2.31,0.06,-0.57,2.26,
1.719,1.26,0.84,-2.31,-0.03,-0.66,2.27,
1.719,1.26,0.84,-2.31,-0.12,-0.75,2.28,
1.719,1.26,0.84,-2.31,-0.21,-0.82,2.30,
1.72,1.18,1.29,-2.12,-0.21,-0.82,2.30,
1.721,1.18,1.29,-2.12,-0.29,-0.88,2.31,
1.722,1.18,1.29,-2.12,-0.37,-0.94,2.34,
1.724,1.18,1.29,-2.12,-0.44,-0.98,2.36,
1.726,1.18,1.29,-2.12,-0.50,-1.01,2.40,
1.741,1.18,1.29,-2.12,-0.56,-1.03,2.43,
1.741,0.66,1.80,-1.89,-0.56,-1.03,2.43,
1.742,0.66,1.80,-1.89,-0.60,-1.03,2.47,
1.742,0.66,1.80,-1.89,-0.64,-1.03,2.51,
1.742,0.66,1.80,-1.89,-0.67,-1.03,2.54,
1.742,0.66,1.80,-1.89,-0.70,-1.02,2.58,
1.742,0.66,1.80,-1.89,-0.73,-1.03,2.61,
1.743,0.66,1.80,-1.89,-0.75,-1.05,2.64,
1.743,0.24,2.16,-1.78,-0.75,-1.05,2.64,
1.743,0.24,2.16,-1.78,-0.78,-1.07,2.67,
1.751,0.24,2.16,-1.78,-0.82,-1.09,2.70,
1.752,0.24,2.16,-1.78,-0.85,-1.13,2.72,
1.753,0.24,2.16,-1.78,-0.88,-1.17,2.74,
1.753,-0.01,2.66,-1.89,-0.88,-1.17,2.74,
1.753,-0.01,2.66,-1.89,-0.92,-1.21,2.75,
1.754,-0.01,2.66,-1.89,-0.95,-1.26,2.76,
1.754,-0.01,2.66,-1.89,-1.00,-1.32,2.77,
1.757,-0.01,2.66,-1.89,-1.04,-1.38,2.78,
1.759,-0.01,2.66,-1.89,-1.08,-1.45,2.79,
1.762,-0.28,3.38,-2.21,-1.08,-1.45,2.79,
1.764,-0.28,3.38,-2.21,-1.14,-1.55,2.79,
1.764,-0.28,3.38,-2.21,-1.20,-1.65,2.80,
1.766,-0.28,3.38,-2.21,-1.26,-1.77,2.80,
1.768,-0.28,3.38,-2.21,-1.34,-1.90,2.81,
1.77,-0.28,3.38,-2.21,-1.42,-2.03,2.81,
1.775,-0.70,4.43,-2.82,-1.42,-2.03,2.81,
1.775,-0.70,4.43,-2.82,-1.51,-2.16,2.82,
1.776,-0.70,4.43,-2.82,-1.60,-2.30,2.83,
1.776,-0.70,4.43,-2.82,-1.70,-2.44,2.83,
1.78,-0.70,4.43,-2.82,-1.79,-2.58,2.84,
1.781,-0.70,4.43,-2.82,-1.89,-2.70,2.85,
1.784,-0.93,5.28,-3.42,-1.89,-2.70,2.85,
1.785,-0.93,5.28,-3.42,-1.97,-2.81,2.85,
1.785,-0.93,5.28,-3.42,-2.06,-2.91,2.86,
1.786,-0.93,5.28,-3.42,-2.14,-3.01,2.86,
1.786,-0.93,5.28,-3.42,-2.22,-3.11,2.87,
1.788,-0.93,5.28,-3.42,-2.29,-3.20,2.87,
1.791,-1.17,6.04,-3.17,-2.29,-3.20,2.87,
1.791,-1.17,6.04,-3.17,-2.36,-3.28,2.88,
1.792,-1.17,6.04,-3.17,-2.43,-3.35,2.88,
1.796,-1.17,6.04,-3.17,-2.50,-3.42,2.89,
1.796,-1.17,6.04,-3.17,-2.56,-3.49,2.89,
1.798,-1.17,6.04,-3.17,-2.62,-3.54,2.90,
1.8,-1.34,6.71,-3.06,-2.62,-3.54,2.90,
1.801,-1.34,6.71,-3.06,-2.67,-3.59,2.91,
1.802,-1.34,6.71,-3.06,-2.72,-3.63,2.91,
1.804,-1.34,6.71,-3.06,-2.77,-3.66,2.92,
1.807,-1.34,6.71,-3.06,-2.81,-3.69,2.93,
1.809,-1.34,6.71,-3.06,-2.85,-3.70,2.93,
1.812,-1.32,7.26,-2.50,-2.85,-3.70,2.93,
1.813,-1.32,7.26,-2.50,-2.89,-3.70,2.93,
1.814,-1.32,7.26,-2.50,-2.91,-3.69,2.93,
1.839,-1.32,7.26,-2.50,-2.93,-3.67,2.93,
1.839,-1.32,7.26,-2.50,-2.94,-3.63,2.93,
1.84,-1.32,7.26,-2.50,-2.95,-3.58,2.93,
1.84,-1.00,7.55,-1.90,-2.95,-3.58,2.93,
1.841,-1.00,7.55,-1.90,-2.96,-3.52,2.92,
1.841,-1.00,7.55,-1.90,-2.95,-3.46,2.91,
1.841,-1.00,7.55,-1.90,-2.95,-3.40,2.90,
1.841,-1.00,7.55,-1.90,-2.95,-3.33,2.89,
1.842,-1.00,7.55,-1.90,-2.95,-3.27,2.88,
1.842,-0.64,7.69,-1.18,-2.95,-3.27,2.88,
1.842,-0.64,7.69,-1.18,-2.94,-3.20,2.86,
1.843,-0.64,7.69,-1.18,-2.93,-3.12,2.84,
1.843,-0.64,7.69,-1.18,-2.92,-3.04,2.82,
1.843,-0.64,7.69,-1.18,-2.90,-2.96,2.80,
1.843,-0.64,7.69,-1.18,-2.87,-2.88,2.77,
1.844,-0.15,7.73,-0.66,-2.87,-2.88,2.77,
1.844,-0.15,7.73,-0.66,-2.85,-2.78,2.75,
1.844,-0.15,7.73,-0.66,-2.81,-2.69,2.72,
1.845,-0.15,7.73,-0.66,-2.78,-2.59,2.69,
1.848,-0.15,7.73,-0.66,-2.74,-2.49,2.65,
1.85,-0.15,7.73,-0.66,-2.69,-2.39,2.62,
1.853,0.07,7.68,-0.04,-2.69,-2.39,2.62,
1.853,0.07,7.68,-0.04,-2.64,-2.30,2.59,
1.854,0.07,7.68,-0.04,-2.59,-2.20,2.55,
1.854,0.07,7.68,-0.04,-2.54,-2.10,2.51,
1.856,0.07,7.68,-0.04,-2.48,-2.01,2.46,
1.858,0.07,7.68,-0.04,-2.43,-1.92,2.42,
1.861,0.46,7.62,0.20,-2.43,-1.92,2.42,
1.862,0.46,7.62,0.20,-2.38,-1.85,2.37,
1.863,0.46,7.62,0.20,-2.33,-1.79,2.32,
1.864,0.46,7.62,0.20,-2.27,-1.73,2.27,
1.866,0.46,7.62,0.20,-2.22,-1.67,2.22,
1.868,0.46,7.62,0.20,-2.16,-1.61,2.17,
1.87,0.77,7.41,0.26,-2.16,-1.61,2.17,
1.871,0.77,7.41,0.26,-2.10,-1.56,2.11,
1.872,0.77,7.41,0.26,-2.04,-1.51,2.06,
1.874,0.77,7.41,0.26,-1.98,-1.46,2.00,
1.876,0.77,7.41,0.26,-1.90,-1.36,1.94,
1.888,0.77,7.41,0.26,-1.80,-1.24,1.89,
1.888,1.86,4.99,1.17,-1.80,-1.24,1.89,
1.889,1.86,4.99,1.17,-1.70,-1.10,1.85,
1.889,1.86,4.99,1.17,-1.60,-0.94,1.85,
1.889,1.86,4.99,1.17,-1.50,-0.75,1.87,
1.889,1.86,4.99,1.17,-1.41,-0.54,1.92,
1.889,1.86,4.99,1.17,-1.32,-0.31,1.99,
1.891,0.83,-3.19,0.77,-1.32,-0.31,1.99,
1.891,0.83,-3.19,0.77,-1.24,-0.08,2.09,
1.892,0.83,-3.19,0.77,-1.16,0.12,2.21,
1.931,0.83,-3.19,0.77,-1.06,0.26,2.37,
1.931,0.83,-3.19,0.77,-0.95,0.35,2.56,
1.931,0.83,-3.19,0.77,-0.85,0.41,2.80,
1.931,-3.63,-14.45,0.34,-0.85,0.41,2.80,
1.932,-3.63,-14.45,0.34,-0.74,0.42,3.08,
1.932,-3.63,-14.45,0.34,-0.65,0.40,3.41,
1.932,-3.63,-14.45,0.34,-0.55,0.34,3.77,
1.932,-3.63,-14.45,0.34,-0.46,0.25,4.16,
1.932,-3.63,-14.45,0.34,-0.38,0.14,4.57,
1.932,-11.19,-28.04,-0.74,-0.38,0.14,4.57,
1.933,-11.19,-28.04,-0.74,-0.29,0.02,4.98,
1.933,-11.19,-28.04,-0.74,-0.20,-0.11,5.39,
1.934,-11.19,-28.04,-0.74,-0.10,-0.23,5.77,
1.934,-11.19,-28.04,-0.74,0.01,-0.36,6.10,
1.934,-11.19,-28.04,-0.74,0.12,-0.49,6.37,
1.934,-11.41,-36.45,-0.72,0.12,-0.49,6.37,
1.935,-11.41,-36.45,-0.72,0.23,-0.62,6.57,
1.935,-11.41,-36.45,-0.72,0.34,-0.75,6.70,
1.935,-11.41,-36.45,-0.72,0.43,-0.88,6.77,
1.935,-11.41,-36.45,-0.72,0.52,-1.01,6.79,
1.935,-11.41,-36.45,-0.72,0.62,-1.14,6.74,
1.936,-3.47,-33.03,0.54,0.62,-1.14,6.74,
1.936,-3.47,-33.03,0.54,0.74,-1.25,6.63,
1.936,-3.47,-33.03,0.54,0.86,-1.37,6.48,
1.936,-3.47,-33.03,0.54,0.96,-1.51,6.27,
1.937,-3.47,-33.03,0.54,1.03,-1.62,6.02,
1.939,-3.47,-33.03,0.54,1.07,-1.68,5.74,
1.94,3.54,-23.11,4.07,1.07,-1.68,5.74,
1.941,3.54,-23.11,4.07,1.06,-1.68,5.43,
1.942,3.54,-23.11,4.07,1.02,-1.61,5.10,
1.944,3.54,-23.11,4.07,0.96,-1.46,4.75,
1.946,3.54,-23.11,4.07,0.87,-1.27,4.39,
1.948,3.54,-23.11,4.07,0.77,-1.03,4.02,
1.95,7.20,-11.62,3.47,0.77,-1.03,4.02,
1.951,7.20,-11.62,3.47,0.66,-0.78,3.65,
1.952,7.20,-11.62,3.47,0.54,-0.53,3.28,
1.954,7.20,-11.62,3.47,0.42,-0.28,2.91,
1.956,7.20,-11.62,3.47,0.30,-0.04,2.55,
1.96,7.20,-11.62,3.47,0.18,0.19,2.20,
1.962,8.36,-3.38,2.46,0.18,0.19,2.20,
1.963,8.36,-3.38,2.46,0.08,0.40,1.85,
1.963,8.36,-3.38,2.46,-0.02,0.60,1.52,
1.964,8.36,-3.38,2.46,-0.12,0.77,1.20,
1.966,8.36,-3.38,2.46,-0.20,0.93,0.89,
1.968,8.36,-3.38,2.46,-0.28,1.07,0.59,
1.97,7.65,1.32,1.94,-0.28,1.07,0.59,
1.971,7.65,1.32,1.94,-0.35,1.19,0.31,
1.972,7.65,1.32,1.94,-0.41,1.31,0.04,
1.974,7.65,1.32,1.94,-0.47,1.41,-0.22,
1.976,7.65,1.32,1.94,-0.52,1.51,-0.45,
1.981,7.65,1.32,1.94,-0.57,1.59,-0.67,
1.984,6.23,3.39,1.48,-0.57,1.59,-0.67,
1.996,6.23,3.39,1.48,-0.61,1.66,-0.87,
1.997,6.23,3.39,1.48,-0.65,1.71,-1.06,
1.997,6.23,3.39,1.48,-0.70,1.75,-1.23,
1.997,6.23,3.39,1.48,-0.74,1.77,-1.38,
2.001,6.23,3.39,1.48,-0.78,1.77,-1.52,
2.001,3.92,4.31,0.81,-0.78,1.77,-1.52,
2.002,3.92,4.31,0.81,-0.81,1.75,-1.64,
2.002,3.92,4.31,0.81,-0.86,1.72,-1.74,
2.002,3.92,4.31,0.81,-0.89,1.66,-1.83,
2.002,3.92,4.31,0.81,-0.93,1.60,-1.90,
2.002,3.92,4.31,0.81,-0.96,1.53,-1.95,
2.002,1.36,4.43,0.22,-0.96,1.53,-1.95,
2.003,1.36,4.43,0.22,-0.99,1.45,-1.98,
2.003,1.36,4.43,0.22,-1.02,1.37,-2.00,
2.004,1.36,4.43,0.22,-1.04,1.28,-2.01,
2.006,1.36,4.43,0.22,-1.05,1.20,-1.99,
2.008,1.36,4.43,0.22,-1.07,1.11,-1.97,
2.011,-1.08,4.14,0.43,-1.07,1.11,-1.97,
2.011,-1.08,4.14,0.43,-1.07,1.02,-1.93,
2.012,-1.08,4.14,0.43,-1.08,0.93,-1.88,
2.014,-1.08,4.14,0.43,-1.08,0.83,-1.82,
2.016,-1.08,4.14,0.43,-1.07,0.74,-1.75,
2.018,-1.08,4.14,0.43,-1.06,0.65,-1.67,
2.02,-3.38,3.87,1.19,-1.06,0.65,-1.67,
2.021,-3.38,3.87,1.19,-1.05,0.56,-1.58,
2.022,-3.38,3.87,1.19,-1.04,0.47,-1.48,
2.025,-3.38,3.87,1.19,-1.02,0.37,-1.37,
2.026,-3.38,3.87,1.19,-1.00,0.28,-1.25,
2.028,-3.38,3.87,1.19,-0.98,0.19,-1.12,
2.031,-5.30,3.58,1.93,-0.98,0.19,-1.12,
2.031,-5.30,3.58,1.93,-0.96,0.09,-0.98,
2.032,-5.30,3.58,1.93,-0.94,-0.01,-0.85,
2.034,-5.30,3.58,1.93,-0.92,-0.10,-0.71,
2.036,-5.30,3.58,1.93,-0.90,-0.20,-0.57,
2.038,-5.30,3.58,1.93,-0.87,-0.30,-0.44,
2.041,-6.74,3.16,2.80,-0.87,-0.30,-0.44,
2.041,-6.74,3.16,2.80,-0.85,-0.40,-0.31,
2.042,-6.74,3.16,2.80,-0.83,-0.49,-0.20,
2.044,-6.74,3.16,2.80,-0.81,-0.58,-0.10,
2.046,-6.74,3.16,2.80,-0.79,-0.67,-0.01,
2.049,-6.74,3.16,2.80,-0.78,-0.74,0.06,
2.051,-6.08,2.28,3.29,-0.78,-0.74,0.06,
2.051,-6.08,2.28,3.29,-0.77,-0.81,0.12,
2.052,-6.08,2.28,3.29,-0.77,-0.87,0.17,
2.054,-6.08,2.28,3.29,-0.76,-0.92,0.20,
2.056,-6.08,2.28,3.29,-0.76,-0.96,0.22,
2.058,-6.08,2.28,3.29,-0.76,-1.00,0.22,
2.061,-4.41,1.33,3.50,-0.76,-1.00,0.22,
2.061,-4.41,1.33,3.50,-0.76,-1.04,0.21,
2.062,-4.41,1.33,3.50,-0.77,-1.08,0.19,
2.064,-4.41,1.33,3.50,-0.77,-1.11,0.17,
2.066,-4.41,1.33,3.50,-0.77,-1.14,0.14,
2.068,-4.41,1.33,3.50,-0.78,-1.17,0.10,
2.07,-2.62,0.31,3.53,-0.78,-1.17,0.10,
2.07,-2.62,0.31,3.53,-0.78,-1.20,0.07,
2.072,-2.62,0.31,3.53,-0.79,-1.23,0.04,
2.074,-2.62,0.31,3.53,-0.80,-1.25,0.01,
2.076,-2.62,0.31,3.53,-0.80,-1.27,-0.03,
2.079,-2.62,0.31,3.53,-0.81,-1.29,-0.05,
2.081,-1.55,-0.47,3.55,-0.81,-1.29,-0.05,
2.081,-1.55,-0.47,3.55,-0.82,-1.31,-0.08,
2.083,-1.55,-0.47,3.55,-0.83,-1.33,-0.11,
2.084,-1.55,-0.47,3.55,-0.84,-1.35,-0.13,
2.086,-1.55,-0.47,3.55,-0.84,-1.36,-0.15,
2.088,-1.55,-0.47,3.55,-0.85,-1.38,-0.16,
2.09,-0.77,-0.93,3.50,-0.85,-1.38,-0.16,
2.091,-0.77,-0.93,3.50,-0.85,-1.39,-0.18,
2.092,-0.77,-0.93,3.50,-0.85,-1.40,-0.19,
2.096,-0.77,-0.93,3.50,-0.85,-1.41,-0.20,
2.096,-0.77,-0.93,3.50,-0.85,-1.42,-0.21,
2.098,-0.77,-0.93,3.50,-0.84,-1.42,-0.22,
2.101,-0.19,-1.14,3.66,-0.84,-1.42,-0.22,
2.101,-0.19,-1.14,3.66,-0.83,-1.43,-0.23,
2.102,-0.19,-1.14,3.66,-0.82,-1.44,-0.24,
2.104,-0.19,-1.14,3.66,-0.81,-1.44,-0.25,
2.106,-0.19,-1.14,3.66,-0.80,-1.44,-0.26,
2.108,-0.19,-1.14,3.66,-0.78,-1.44,-0.27,
2.11,0.22,-1.12,3.58,-0.78,-1.44,-0.27,
2.111,0.22,-1.12,3.58,-0.76,-1.44,-0.29,
2.112,0.22,-1.12,3.58,-0.75,-1.44,-0.30,
2.114,0.22,-1.12,3.58,-0.73,-1.43,-0.31,
2.116,0.22,-1.12,3.58,-0.71,-1.42,-0.33,
2.118,0.22,-1.12,3.58,-0.69,-1.40,-0.34,
2.12,0.44,-1.06,3.40,-0.69,-1.40,-0.34,
2.121,0.44,-1.06,3.40,-0.67,-1.39,-0.35,
2.122,0.44,-1.06,3.40,-0.65,-1.37,-0.36,
2.124,0.44,-1.06,3.40,-0.63,-1.35,-0.37,
2.13,0.44,-1.06,3.40,-0.61,-1.33,-0.38,
2.13,0.44,-1.06,3.40,-0.59,-1.32,-0.39,
2.131,0.39,-0.84,3.02,-0.59,-1.32,-0.39,
2.131,0.39,-0.84,3.02,-0.56,-1.30,-0.39,
2.132,0.39,-0.84,3.02,-0.54,-1.28,-0.40,
2.134,0.39,-0.84,3.02,-0.52,-1.26,-0.40,
2.136,0.39,-0.84,3.02,-0.49,-1.25,-0.40,
2.138,0.39,-0.84,3.02,-0.46,-1.24,-0.39,
2.141,0.04,-0.70,2.76,-0.46,-1.24,-0.39,
2.141,0.04,-0.70,2.76,-0.43,-1.23,-0.39,
2.142,0.04,-0.70,2.76,-0.40,-1.22,-0.38,
2.159,0.04,-0.70,2.76,-0.38,-1.21,-0.37,
2.159,0.04,-0.70,2.76,-0.35,-1.21,-0.36,
2.187,0.04,-0.70,2.76,-0.32,-1.20,-0.35,
2.188,-0.43,-0.75,2.35,-0.32,-1.20,-0.35,
2.188,-0.43,-0.75,2.35,-0.29,-1.20,-0.34,
2.189,-0.43,-0.75,2.35,-0.27,-1.19,-0.33,
2.189,-0.43,-0.75,2.35,-0.24,-1.17,-0.32,
2.19,-0.43,-0.75,2.35,-0.21,-1.15,-0.31,
2.19,-0.43,-0.75,2.35,-0.19,-1.13,-0.30,
2.19,-1.15,-1.07,1.90,-0.19,-1.13,-0.30,
2.191,-1.15,-1.07,1.90,-0.17,-1.11,-0.30,
2.191,-1.15,-1.07,1.90,-0.15,-1.08,-0.30,
2.192,-1.15,-1.07,1.90,-0.14,-1.05,-0.30,
2.192,-1.15,-1.07,1.90,-0.12,-1.02,-0.30,
2.193,-1.15,-1.07,1.90,-0.11,-0.99,-0.31,
2.193,-1.75,-1.15,1.49,-0.11,-0.99,-0.31,
2.193,-1.75,-1.15,1.49,-0.09,-0.96,-0.32,
2.194,-1.75,-1.15,1.49,-0.08,-0.93,-0.32,
2.194,-1.75,-1.15,1.49,-0.07,-0.90,-0.33,
2.195,-1.75,-1.15,1.49,-0.05,-0.88,-0.34,
2.195,-1.75,-1.15,1.49,-0.03,-0.86,-0.35,
2.195,-2.46,-1.22,1.55,-0.03,-0.86,-0.35,
2.196,-2.46,-1.22,1.55,-0.01,-0.85,-0.35,
2.196,-2.46,-1.22,1.55,0.01,-0.85,-0.35,
2.197,-2.46,-1.22,1.55,0.04,-0.85,-0.35,
2.197,-2.46,-1.22,1.55,0.07,-0.86,-0.34,
2.197,-2.46,-1.22,1.55,0.10,-0.87,-0.34,
2.198,-3.32,-1.76,1.84,0.10,-0.87,-0.34,
2.198,-3.32,-1.76,1.84,0.14,-0.89,-0.33,
2.199,-3.32,-1.76,1.84,0.17,-0.90,-0.31,
2.199,-3.32,-1.76,1.84,0.20,-0.92,-0.29,
2.199,-3.32,-1.76,1.84,0.24,-0.95,-0.28,
2.2,-3.32,-1.76,1.84,0.28,-0.97,-0.26,
2.21,-4.20,-2.70,2.16,0.28,-0.97,-0.26,
2.21,-4.20,-2.70,2.16,0.33,-1.00,-0.24,
2.21,-4.20,-2.70,2.16,0.37,-1.04,-0.23,
2.211,-4.20,-2.70,2.16,0.43,-1.07,-0.21,
2.211,-4.20,-2.70,2.16,0.48,-1.11,-0.19,
2.211,-4.20,-2.70,2.16,0.54,-1.16,-0.17,
2.212,-4.69,-3.80,2.80,0.54,-1.16,-0.17,
2.213,-4.69,-3.80,2.80,0.60,-1.20,-0.14,
2.213,-4.69,-3.80,2.80,0.66,-1.25,-0.12,
2.214,-4.69,-3.80,2.80,0.73,-1.30,-0.10,
2.221,-4.69,-3.80,2.80,0.80,-1.35,-0.08,
2.221,-4.69,-3.80,2.80,0.86,-1.40,-0.06,
2.221,-5.03,-4.55,3.92,0.86,-1.40,-0.06,
2.222,-5.03,-4.55,3.92,0.93,-1.44,-0.04,
2.223,-5.03,-4.55,3.92,1.01,-1.48,-0.02,
2.224,-5.03,-4.55,3.92,1.09,-1.52,0.00,
2.227,-5.03,-4.55,3.92,1.16,-1.55,0.03,
2.229,-5.03,-4.55,3.92,1.25,-1.58,0.05,
2.231,-5.04,-4.40,5.28,1.25,-1.58,0.05,
2.231,-5.04,-4.40,5.28,1.33,-1.61,0.09,
2.232,-5.04,-4.40,5.28,1.44,-1.65,0.12,
2.234,-5.04,-4.40,5.28,1.55,-1.69,0.15,
2.236,-5.04,-4.40,5.28,1.67,-1.73,0.18,
2.244,-5.04,-4.40,5.28,2.12,-1.92,0.29,
2.245,-5.04,-4.40,5.28,2.12,-1.92,0.29,
2.246,-5.04,-4.40,5.28,2.12,-1.92,0.29,
2.246,-4.90,-2.38,8.77,2.12,-1.92,0.29,
2.247,-4.90,-2.38,8.77,2.47,-2.09,0.38,
2.247,-4.90,-2.38,8.77,2.47,-2.09,0.38,
2.249,-4.90,-2.38,8.77,2.64,-2.18,0.42,
2.251,-4.87,-1.73,9.49,2.64,-2.18,0.42,
2.251,-4.87,-1.73,9.49,2.82,-2.27,0.47,
2.252,-4.87,-1.73,9.49,2.98,-2.37,0.52,
2.255,-4.87,-1.73,9.49,3.14,-2.46,0.56,
2.257,-4.87,-1.73,9.49,3.29,-2.56,0.60,
2.259,-4.87,-1.73,9.49,3.41,-2.64,0.64,
2.261,-4.79,-1.10,7.99,3.41,-2.64,0.64,
2.262,-4.79,-1.10,7.99,3.52,-2.72,0.67,
2.263,-4.79,-1.10,7.99,3.60,-2.78,0.70,
2.265,-4.79,-1.10,7.99,3.65,-2.82,0.73,
2.267,-4.79,-1.10,7.99,3.69,-2.86,0.75,
2.268,-4.79,-1.10,7.99,3.70,-2.87,0.77,
2.27,-4.13,-1.08,2.75,3.70,-2.87,0.77,
2.271,-4.13,-1.08,2.75,3.69,-2.86,0.78,
2.272,-4.13,-1.08,2.75,3.67,-2.85,0.79,
2.276,-4.13,-1.08,2.75,3.63,-2.82,0.80,
2.291,-4.13,-1.08,2.75,3.59,-2.79,0.81,
2.294,-4.13,-1.08,2.75,3.53,-2.76,0.83,
2.294,-3.81,-0.95,-2.06,3.53,-2.76,0.83,
2.295,-3.81,-0.95,-2.06,3.47,-2.72,0.84,
2.295,-3.81,-0.95,-2.06,3.40,-2.67,0.85,
2.295,-3.81,-0.95,-2.06,3.33,-2.63,0.87,
2.295,-3.81,-0.95,-2.06,3.26,-2.58,0.88,
2.295,-3.81,-0.95,-2.06,3.19,-2.54,0.90,
2.296,-3.87,-0.69,-5.12,3.19,-2.54,0.90,
2.296,-3.87,-0.69,-5.12,3.11,-2.50,0.91,
2.296,-3.87,-0.69,-5.12,3.02,-2.46,0.93,
2.296,-3.87,-0.69,-5.12,2.92,-2.42,0.95,
2.3,-3.87,-0.69,-5.12,2.82,-2.40,0.96,
2.3,-3.87,-0.69,-5.12,2.73,-2.38,0.98,
2.301,-3.72,-0.69,-7.56,2.73,-2.38,0.98,
2.301,-3.72,-0.69,-7.56,2.63,-2.39,0.99,
2.321,-3.72,-0.69,-7.56,2.53,-2.40,1.01,
2.322,-3.72,-0.69,-7.56,2.44,-2.41,1.02,
2.322,-3.72,-0.69,-7.56,2.35,-2.43,1.04,
2.322,-3.72,-0.69,-7.56,2.26,-2.45,1.05,
2.323,-3.38,-0.79,-8.04,2.26,-2.45,1.05,
2.323,-3.38,-0.79,-8.04,2.17,-2.47,1.06,
2.323,-3.38,-0.79,-8.04,2.08,-2.50,1.07,
2.342,-3.38,-0.79,-8.04,1.99,-2.52,1.08,
2.342,-3.38,-0.79,-8.04,1.90,-2.55,1.08,
2.342,-3.38,-0.79,-8.04,1.80,-2.58,1.07,
2.343,-2.56,-0.90,-8.63,1.80,-2.58,1.07,
2.344,-2.56,-0.90,-8.63,1.71,-2.61,1.06,
2.344,-2.56,-0.90,-8.63,1.61,-2.64,1.05,
2.344,-2.56,-0.90,-8.63,1.51,-2.68,1.04,
2.345,-2.56,-0.90,-8.63,1.41,-2.71,1.02,
2.345,-2.56,-0.90,-8.63,1.31,-2.75,0.99,
2.345,-1.43,-1.00,-8.73,1.31,-2.75,0.99,
2.345,-1.43,-1.00,-8.73,1.22,-2.80,0.97,
2.346,-1.43,-1.00,-8.73,1.12,-2.84,0.94,
2.346,-1.43,-1.00,-8.73,1.02,-2.89,0.91,
2.346,-1.43,-1.00,-8.73,0.93,-2.93,0.87,
2.346,-1.43,-1.00,-8.73,0.84,-2.97,0.83,
2.347,-0.37,-1.06,-8.59,0.84,-2.97,0.83,
2.347,-0.37,-1.06,-8.59,0.75,-3.02,0.78,
2.347,-0.37,-1.06,-8.59,0.66,-3.06,0.74,
2.347,-0.37,-1.06,-8.59,0.57,-3.10,0.69,
2.347,-0.37,-1.06,-8.59,0.48,-3.13,0.64,
2.354,-0.37,-1.06,-8.59,0.40,-3.17,0.59,
2.354,0.48,-1.03,-7.88,0.40,-3.17,0.59,
2.354,0.48,-1.03,-7.88,0.32,-3.20,0.54,
2.355,0.48,-1.03,-7.88,0.25,-3.23,0.48,
2.355,0.48,-1.03,-7.88,0.19,-3.24,0.43,
2.356,0.48,-1.03,-7.88,0.14,-3.24,0.37,
2.358,0.48,-1.03,-7.88,0.10,-3.22,0.32,
2.362,0.83,-1.22,-6.97,0.10,-3.22,0.32,
2.363,0.83,-1.22,-6.97,0.07,-3.18,0.28,
2.364,0.83,-1.22,-6.97,0.06,-3.12,0.24,
2.364,0.83,-1.22,-6.97,0.05,-3.03,0.20,
2.367,0.83,-1.22,-6.97,0.06,-2.93,0.16,
2.368,0.83,-1.22,-6.97,0.08,-2.82,0.13,
2.371,0.88,-1.42,-4.99,0.08,-2.82,0.13,
2.371,0.88,-1.42,-4.99,0.16,-2.71,0.09,
2.372,0.88,-1.42,-4.99,0.31,-2.66,0.01,
2.374,0.88,-1.42,-4.99,0.51,-2.65,-0.08,
2.377,0.88,-1.42,-4.99,0.74,-2.67,-0.19,
2.388,0.88,-1.42,-4.99,0.98,-2.71,-0.30,
2.388,4.22,-3.37,4.76,0.98,-2.71,-0.30,
2.388,4.22,-3.37,4.76,1.22,-2.75,-0.42,
2.388,4.22,-3.37,4.76,1.44,-2.78,-0.52,
2.389,4.22,-3.37,4.76,1.65,-2.80,-0.60,
2.389,4.22,-3.37,4.76,1.83,-2.79,-0.67,
2.39,4.22,-3.37,4.76,1.99,-2.75,-0.73,
2.391,3.75,-4.69,6.19,1.99,-2.75,-0.73,
2.391,3.75,-4.69,6.19,2.13,-2.67,-0.77,
2.399,3.75,-4.69,6.19,2.25,-2.56,-0.80,
2.399,3.75,-4.69,6.19,2.34,-2.41,-0.81,
2.4,3.75,-4.69,6.19,2.41,-2.24,-0.81,
2.4,3.75,-4.69,6.19,2.46,-2.05,-0.80,
2.401,1.78,-5.00,3.02,2.46,-2.05,-0.80,
2.401,1.78,-5.00,3.02,2.48,-1.83,-0.77,
2.402,1.78,-5.00,3.02,2.50,-1.61,-0.74,
2.404,1.78,-5.00,3.02,2.49,-1.37,-0.69,
2.406,1.78,-5.00,3.02,2.48,-1.13,-0.64,
2.408,1.78,-5.00,3.02,2.45,-0.89,-0.58,
2.422,0.49,-4.57,-0.14,2.45,-0.89,-0.58,
2.422,0.49,-4.57,-0.14,2.41,-0.65,-0.52,
2.422,0.49,-4.57,-0.14,2.37,-0.43,-0.45,
2.422,0.49,-4.57,-0.14,2.32,-0.22,-0.38,
2.422,0.49,-4.57,-0.14,2.26,-0.04,-0.31,
2.422,0.49,-4.57,-0.14,2.20,0.12,-0.24,
2.423,-0.06,-3.30,-2.51,2.20,0.12,-0.24,
2.423,-0.06,-3.30,-2.51,2.14,0.25,-0.17,
2.423,-0.06,-3.30,-2.51,2.07,0.35,-0.10,
2.424,-0.06,-3.30,-2.51,2.01,0.41,-0.03,
2.426,-0.06,-3.30,-2.51,1.94,0.45,0.04,
2.428,-0.06,-3.30,-2.51,1.88,0.46,0.11,
2.43,-0.52,-1.71,-3.62,1.88,0.46,0.11,
2.43,-0.52,-1.71,-3.62,1.82,0.45,0.18,
2.432,-0.52,-1.71,-3.62,1.76,0.42,0.24,
2.434,-0.52,-1.71,-3.62,1.69,0.37,0.30,
2.436,-0.52,-1.71,-3.62,1.64,0.29,0.35,
2.438,-0.52,-1.71,-3.62,1.58,0.20,0.40,
2.44,-0.30,-0.42,-4.23,1.58,0.20,0.40,
2.441,-0.30,-0.42,-4.23,1.53,0.10,0.44,
2.442,-0.30,-0.42,-4.23,1.48,-0.01,0.48,
2.444,-0.30,-0.42,-4.23,1.43,-0.13,0.50,
2.446,-0.30,-0.42,-4.23,1.38,-0.25,0.52,
2.448,-0.30,-0.42,-4.23,1.33,-0.37,0.54,
2.45,0.24,0.72,-4.15,1.33,-0.37,0.54,
2.45,0.24,0.72,-4.15,1.30,-0.48,0.54,
2.452,0.24,0.72,-4.15,1.27,-0.57,0.54,
2.454,0.24,0.72,-4.15,1.25,-0.66,0.53,
2.456,0.24,0.72,-4.15,1.23,-0.74,0.52,
2.459,0.24,0.72,-4.15,1.21,-0.80,0.50,
2.46,0.55,1.89,-3.59,1.21,-0.80,0.50,
2.461,0.55,1.89,-3.59,1.19,-0.85,0.48,
2.464,0.55,1.89,-3.59,1.18,-0.88,0.46,
2.465,0.55,1.89,-3.59,1.17,-0.89,0.43,
2.468,0.55,1.89,-3.59,1.17,-0.87,0.41,
2.471,0.55,1.89,-3.59,1.17,-0.84,0.38,
2.471,0.40,2.69,-2.76,1.17,-0.84,0.38,
2.471,0.40,2.69,-2.76,1.17,-0.79,0.35,
2.472,0.40,2.69,-2.76,1.18,-0.73,0.33,
2.474,0.40,2.69,-2.76,1.18,-0.67,0.30,
2.476,0.40,2.69,-2.76,1.18,-0.61,0.28,
2.478,0.40,2.69,-2.76,1.17,-0.55,0.25,
2.48,-0.11,3.13,-2.49,1.17,-0.55,0.25,
2.5,-0.11,3.13,-2.49,1.17,-0.49,0.23,
2.5,-0.11,3.13,-2.49,1.16,-0.43,0.20,
2.501,-0.11,3.13,-2.49,1.15,-0.38,0.18,
2.501,-0.11,3.13,-2.49,1.13,-0.32,0.16,
2.501,-0.11,3.13,-2.49,1.12,-0.26,0.15,
2.502,-0.63,3.34,-2.72,1.12,-0.26,0.15,
2.502,-0.63,3.34,-2.72,1.10,-0.20,0.14,
2.503,-0.63,3.34,-2.72,1.07,-0.14,0.13,
2.503,-0.63,3.34,-2.72,1.05,-0.09,0.12,
2.503,-0.63,3.34,-2.72,1.03,-0.03,0.11,
2.504,-0.63,3.34,-2.72,1.00,0.01,0.11,
2.504,-1.00,3.10,-3.07,1.00,0.01,0.11,
2.505,-1.00,3.10,-3.07,0.96,0.06,0.11,
2.505,-1.00,3.10,-3.07,0.93,0.09,0.11,
2.506,-1.00,3.10,-3.07,0.89,0.11,0.11,
2.506,-1.00,3.10,-3.07,0.85,0.14,0.11,
2.512,-1.00,3.10,-3.07,0.80,0.16,0.12,
2.513,-1.00,2.47,-3.51,0.80,0.16,0.12,
2.513,-1.00,2.47,-3.51,0.75,0.17,0.12,
2.514,-1.00,2.47,-3.51,0.70,0.19,0.12,
2.514,-1.00,2.47,-3.51,0.64,0.19,0.12,
2.516,-1.00,2.47,-3.51,0.59,0.20,0.12,
2.518,-1.00,2.47,-3.51,0.54,0.20,0.11,
2.52,-0.41,2.13,-3.91,0.54,0.20,0.11,
2.521,-0.41,2.13,-3.91,0.49,0.20,0.10,
2.522,-0.41,2.13,-3.91,0.44,0.20,0.08,
2.524,-0.41,2.13,-3.91,0.40,0.20,0.06,
2.528,-0.41,2.13,-3.91,0.36,0.20,0.04,
2.529,-0.41,2.13,-3.91,0.32,0.22,0.01,
2.53,0.73,2.65,-3.79,0.32,0.22,0.01,
2.531,0.73,2.65,-3.79,0.27,0.23,-0.00,
2.532,0.73,2.65,-3.79,0.23,0.25,-0.01,
2.534,0.73,2.65,-3.79,0.19,0.27,-0.02,
2.536,0.73,2.65,-3.79,0.14,0.29,-0.03,
2.54,0.73,2.65,-3.79,0.10,0.32,-0.03,
2.541,0.81,3.10,-3.88,0.10,0.32,-0.03,
2.542,0.81,3.10,-3.88,0.06,0.34,-0.02,
2.56,0.81,3.10,-3.88,0.01,0.36,-0.02,
2.56,0.81,3.10,-3.88,-0.03,0.38,-0.01,
2.561,0.81,3.10,-3.88,-0.08,0.40,-0.01,
2.561,0.81,3.10,-3.88,-0.12,0.41,-0.00,
2.561,1.08,3.63,-3.65,-0.12,0.41,-0.00,
2.561,1.08,3.63,-3.65,-0.16,0.42,0.01,
2.562,1.08,3.63,-3.65,-0.19,0.42,0.01,
2.562,1.08,3.63,-3.65,-0.24,0.41,0.02,
2.562,1.08,3.63,-3.65,-0.27,0.41,0.03,
2.562,1.08,3.63,-3.65,-0.31,0.40,0.03,
2.562,1.24,4.07,-3.56,-0.31,0.40,0.03,
2.563,1.24,4.07,-3.56,-0.35,0.38,0.03,
2.563,1.24,4.07,-3.56,-0.39,0.36,0.03,
2.568,1.24,4.07,-3.56,-0.43,0.34,0.02,
2.568,1.24,4.07,-3.56,-0.47,0.31,0.02,
2.568,1.24,4.07,-3.56,-0.52,0.28,0.01,
2.572,1.14,4.25,-3.57,-0.52,0.28,0.01,
2.573,1.14,4.25,-3.57,-0.57,0.24,0.00,
2.573,1.14,4.25,-3.57,-0.63,0.19,-0.00,
2.579,1.14,4.25,-3.57,-0.69,0.15,-0.01,
2.58,1.14,4.25,-3.57,-0.75,0.11,-0.02,
2.58,1.14,4.25,-3.57,-0.81,0.07,-0.03,
2.582,0.59,4.38,-3.83,-0.81,0.07,-0.03,
2.582,0.59,4.38,-3.83,-0.88,0.03,-0.05,
2.583,0.59,4.38,-3.83,-0.95,-0.01,-0.06,
2.585,0.59,4.38,-3.83,-1.01,-0.04,-0.08,
2.587,0.59,4.38,-3.83,-1.08,-0.07,-0.11,
2.588,0.59,4.38,-3.83,-1.15,-0.09,-0.13,
2.591,0.36,4.53,-3.56,-1.15,-0.09,-0.13,
2.591,0.36,4.53,-3.56,-1.22,-0.10,-0.15,
2.592,0.36,4.53,-3.56,-1.29,-0.11,-0.17,
2.595,0.36,4.53,-3.56,-1.36,-0.12,-0.19,
2.597,0.36,4.53,-3.56,-1.43,-0.13,-0.21,
2.598,0.36,4.53,-3.56,-1.49,-0.12,-0.22,
2.601,-0.39,4.54,-3.06,-1.49,-0.12,-0.22,
2.601,-0.39,4.54,-3.06,-1.56,-0.11,-0.23,
2.602,-0.39,4.54,-3.06,-1.63,-0.10,-0.23,
2.604,-0.39,4.54,-3.06,-1.70,-0.08,-0.23,
2.606,-0.39,4.54,-3.06,-1.77,-0.05,-0.22,
2.609,-0.39,4.54,-3.06,-1.83,-0.02,-0.22,
2.612,-0.85,4.32,-2.28,-1.83,-0.02,-0.22,
2.612,-0.85,4.32,-2.28,-1.90,0.02,-0.22,
2.613,-0.85,4.32,-2.28,-1.97,0.07,-0.22,
2.614,-0.85,4.32,-2.28,-2.03,0.12,-0.23,
2.617,-0.85,4.32,-2.28,-2.10,0.18,-0.23,
2.618,-0.85,4.32,-2.28,-2.16,0.24,-0.24,
2.621,-0.83,4.23,-1.33,-2.16,0.24,-0.24,
2.621,-0.83,4.23,-1.33,-2.21,0.30,-0.24,
2.623,-0.83,4.23,-1.33,-2.27,0.35,-0.26,
2.625,-0.83,4.23,-1.33,-2.31,0.41,-0.27,
2.628,-0.83,4.23,-1.33,-2.36,0.47,-0.29,
2.633,-0.83,4.23,-1.33,-2.40,0.52,-0.31,
2.636,0.37,3.56,-0.00,-2.40,0.52,-0.31,
2.636,0.37,3.56,-0.00,-2.44,0.56,-0.34,
2.636,0.37,3.56,-0.00,-2.47,0.59,-0.36,
2.637,0.37,3.56,-0.00,-2.49,0.63,-0.39,
2.637,0.37,3.56,-0.00,-2.50,0.65,-0.41,
2.638,0.37,3.56,-0.00,-2.50,0.68,-0.45,
2.641,1.78,1.40,2.22,-2.50,0.68,-0.45,
2.641,1.78,1.40,2.22,-2.49,0.70,-0.48,
2.642,1.78,1.40,2.22,-2.47,0.71,-0.51,
2.645,1.78,1.40,2.22,-2.45,0.72,-0.54,
2.65,1.78,1.40,2.22,-2.41,0.73,-0.57,
2.667,1.78,1.40,2.22,-2.35,0.74,-0.60,
2.668,3.18,-0.86,5.65,-2.35,0.74,-0.60,
2.668,3.18,-0.86,5.65,-2.29,0.74,-0.63,
2.669,3.18,-0.86,5.65,-2.21,0.74,-0.65,
2.669,3.18,-0.86,5.65,-2.14,0.74,-0.68,
2.67,3.18,-0.86,5.65,-2.05,0.72,-0.70,
2.67,3.18,-0.86,5.65,-1.96,0.70,-0.71,
2.67,4.20,-2.43,9.85,-1.96,0.70,-0.71,
2.671,4.20,-2.43,9.85,-1.86,0.67,-0.72,
2.671,4.20,-2.43,9.85,-1.78,0.61,-0.72,
2.671,4.20,-2.43,9.85,-1.69,0.55,-0.72,
2.671,4.20,-2.43,9.85,-1.62,0.46,-0.71,
2.672,4.20,-2.43,9.85,-1.55,0.36,-0.70,
2.672,4.25,-3.70,11.93,-1.55,0.36,-0.70,
2.672,4.25,-3.70,11.93,-1.49,0.24,-0.68,
2.673,4.25,-3.70,11.93,-1.44,0.10,-0.66,
2.689,4.25,-3.70,11.93,-1.39,-0.06,-0.64,
2.69,4.25,-3.70,11.93,-1.36,-0.22,-0.62,
2.69,4.25,-3.70,11.93,-1.33,-0.39,-0.59,
2.69,4.76,-4.15,12.17,-1.33,-0.39,-0.59,
2.69,4.76,-4.15,12.17,-1.31,-0.55,-0.58,
2.691,4.76,-4.15,12.17,-1.29,-0.71,-0.57,
2.691,4.76,-4.15,12.17,-1.27,-0.85,-0.57,
2.691,4.76,-4.15,12.17,-1.26,-0.98,-0.58,
2.691,4.76,-4.15,12.17,-1.25,-1.10,-0.59,
2.691,5.50,-3.68,10.66,-1.25,-1.10,-0.59,
2.692,5.50,-3.68,10.66,-1.24,-1.21,-0.61,
2.72,5.50,-3.68,10.66,-1.23,-1.30,-0.62,
2.72,5.50,-3.68,10.66,-1.22,-1.37,-0.64,
2.72,5.50,-3.68,10.66,-1.20,-1.42,-0.66,
2.72,5.50,-3.68,10.66,-1.19,-1.45,-0.67,
2.721,4.88,-2.75,8.90,-1.19,-1.45,-0.67,
2.721,4.88,-2.75,8.90,-1.16,-1.47,-0.68,
2.721,4.88,-2.75,8.90,-1.13,-1.46,-0.70,
2.721,4.88,-2.75,8.90,-1.10,-1.43,-0.71,
2.721,4.88,-2.75,8.90,-1.06,-1.38,-0.72,
2.721,4.88,-2.75,8.90,-1.01,-1.32,-0.72,
2.722,3.22,-1.75,7.62,-1.01,-1.32,-0.72,
2.722,3.22,-1.75,7.62,-0.95,-1.25,-0.73,
2.722,3.22,-1.75,7.62,-0.89,-1.17,-0.73,
2.722,3.22,-1.75,7.62,-0.82,-1.07,-0.73,
2.722,3.22,-1.75,7.62,-0.74,-0.97,-0.72,
2.722,3.22,-1.75,7.62,-0.66,-0.85,-0.71,
2.722,1.52,-1.14,6.93,-0.66,-0.85,-0.71,
2.723,1.52,-1.14,6.93,-0.58,-0.74,-0.69,
2.723,1.52,-1.14,6.93,-0.49,-0.62,-0.66,
2.726,1.52,-1.14,6.93,-0.40,-0.50,-0.62,
2.727,1.52,-1.14,6.93,-0.30,-0.38,-0.58,
2.729,1.52,-1.14,6.93,-0.20,-0.28,-0.53,
2.73,-0.82,-1.85,6.12,-0.20,-0.28,-0.53,
2.73,-0.82,-1.85,6.12,-0.11,-0.18,-0.46,
2.732,-0.82,-1.85,6.12,-0.02,-0.08,-0.39,
2.734,-0.82,-1.85,6.12,0.07,0.00,-0.30,
2.736,-0.82,-1.85,6.12,0.18,0.08,-0.20,
2.738,-0.82,-1.85,6.12,0.21,0.13,-0.11,
2.741,-0.82,-1.85,6.12,0.29,0.18,0.00,
2.741,-4.62,-4.36,4.67,0.29,0.18,0.00,
2.742,-4.62,-4.36,4.67,0.38,0.20,0.11,
2.746,-4.62,-4.36,4.67,0.47,0.16,0.21,
2.747,-4.62,-4.36,4.67,0.53,0.10,0.30,
2.749,-4.62,-4.36,4.67,0.62,0.00,0.38,
2.75,-7.94,-7.25,2.86,0.62,0.00,0.38,
2.751,-7.94,-7.25,2.86,0.71,-0.12,0.46,
2.752,-7.94,-7.25,2.86,0.81,-0.25,0.53,
2.755,-7.94,-7.25,2.86,0.92,-0.37,0.59,
2.756,-7.94,-7.25,2.86,1.02,-0.47,0.64,
2.758,-7.94,-7.25,2.86,1.11,-0.55,0.70,
2.76,-9.70,-8.73,1.31,1.11,-0.55,0.70,
2.761,-9.70,-8.73,1.31,1.21,-0.60,0.74,
2.762,-9.70,-8.73,1.31,1.28,-0.63,0.78,
2.764,-9.70,-8.73,1.31,1.35,-0.67,0.81,
2.766,-9.70,-8.73,1.31,1.41,-0.70,0.83,
2.768,-9.70,-8.73,1.31,1.45,-0.75,0.83,
2.77,-9.34,-6.97,-2.39,1.45,-0.75,0.83,
2.771,-9.34,-6.97,-2.39,1.47,-0.82,0.81,
2.772,-9.34,-6.97,-2.39,1.49,-0.91,0.77,
2.775,-9.34,-6.97,-2.39,1.50,-1.01,0.73,
2.776,-9.34,-6.97,-2.39,1.50,-1.13,0.67,
2.779,-9.34,-6.97,-2.39,1.49,-1.25,0.62,
2.78,-5.99,-2.37,-5.97,1.49,-1.25,0.62,
2.781,-5.99,-2.37,-5.97,1.48,-1.38,0.57,
2.782,-5.99,-2.37,-5.97,1.47,-1.51,0.52,
2.784,-5.99,-2.37,-5.97,1.45,-1.63,0.48,
2.786,-5.99,-2.37,-5.97,1.44,-1.73,0.44,
2.789,-5.99,-2.37,-5.97,1.42,-1.82,0.41,
2.8,-3.87,1.54,-6.76,1.42,-1.82,0.41,
2.801,-3.87,1.54,-6.76,1.40,-1.90,0.39,
2.801,-3.87,1.54,-6.76,1.39,-1.95,0.38,
2.802,-3.87,1.54,-6.76,1.37,-1.97,0.37,
2.802,-3.87,1.54,-6.76,1.35,-1.96,0.36,
2.802,-3.87,1.54,-6.76,1.32,-1.89,0.36,
2.802,-3.62,4.24,-6.00,1.32,-1.89,0.36,
2.803,-3.62,4.24,-6.00,1.27,-1.73,0.36,
2.803,-3.62,4.24,-6.00,1.21,-1.47,0.35,
2.805,-3.62,4.24,-6.00,1.13,-1.12,0.35,
2.807,-3.62,4.24,-6.00,1.04,-0.71,0.34,
2.82,-3.62,4.24,-6.00,0.93,-0.24,0.34,
2.821,-3.56,6.28,-5.27,0.93,-0.24,0.34,
2.822,-3.56,6.28,-5.27,0.79,0.25,0.33,
2.822,-3.56,6.28,-5.27,0.65,0.76,0.34,
2.851,-3.56,6.28,-5.27,0.49,1.27,0.35,
2.852,-3.56,6.28,-5.27,0.32,1.76,0.37,
2.852,-3.56,6.28,-5.27,0.15,2.22,0.38,
2.852,-3.78,7.33,-5.75,0.15,2.22,0.38,
2.853,-3.78,7.33,-5.75,-0.03,2.66,0.41,
2.853,-3.78,7.33,-5.75,-0.21,3.07,0.43,
2.854,-3.78,7.33,-5.75,-0.41,3.43,0.46,
2.854,-3.78,7.33,-5.75,-0.60,3.76,0.49,
2.855,-3.78,7.33,-5.75,-0.80,4.04,0.52,
2.855,-3.29,7.44,-6.00,-0.80,4.04,0.52,
2.855,-3.29,7.44,-6.00,-1.00,4.27,0.55,
2.856,-3.29,7.44,-6.00,-1.20,4.46,0.57,
2.856,-3.29,7.44,-6.00,-1.40,4.58,0.60,
2.857,-3.29,7.44,-6.00,-1.60,4.65,0.63,
2.857,-3.29,7.44,-6.00,-1.79,4.65,0.68,
2.858,-2.61,6.02,-5.78,-1.79,4.65,0.68,
2.858,-2.61,6.02,-5.78,-1.97,4.59,0.72,
2.858,-2.61,6.02,-5.78,-2.14,4.48,0.77,
2.859,-2.61,6.02,-5.78,-2.30,4.33,0.83,
2.859,-2.61,6.02,-5.78,-2.44,4.14,0.88,
2.86,-2.61,6.02,-5.78,-2.55,3.92,0.93,
2.86,-1.19,2.99,-4.68,-2.55,3.92,0.93,
2.86,-1.19,2.99,-4.68,-2.66,3.68,0.98,
2.861,-1.19,2.99,-4.68,-2.75,3.43,1.01,
2.861,-1.19,2.99,-4.68,-2.82,3.18,1.03,
2.862,-1.19,2.99,-4.68,-2.84,2.92,1.06,
2.862,-1.19,2.99,-4.68,-2.89,2.66,1.05,
2.862,0.68,0.97,-3.59,-2.89,2.66,1.05,
2.863,0.68,0.97,-3.59,-2.91,2.40,1.05,
2.863,0.68,0.97,-3.59,-2.91,2.14,1.03,
2.873,0.68,0.97,-3.59,-2.89,1.87,1.00,
2.874,0.68,0.97,-3.59,-2.86,1.61,0.96,
2.874,0.68,0.97,-3.59,-2.82,1.34,0.92,
2.874,2.10,-0.53,-2.50,-2.82,1.34,0.92,
2.875,2.10,-0.53,-2.50,-2.77,1.07,0.87,
2.875,2.10,-0.53,-2.50,-2.70,0.80,0.81,
2.875,2.10,-0.53,-2.50,-2.63,0.52,0.75,
2.877,2.10,-0.53,-2.50,-2.51,0.08,0.66,
2.879,2.10,-0.53,-2.50,-2.47,-0.06,0.62,
2.881,3.13,-2.62,-1.40,-2.47,-0.06,0.62,
2.881,3.13,-2.62,-1.40,-2.38,-0.35,0.55,
2.885,3.13,-2.62,-1.40,-2.28,-0.63,0.48,
2.886,3.13,-2.62,-1.40,-2.18,-0.90,0.40,
2.886,3.13,-2.62,-1.40,-2.07,-1.15,0.32,
2.888,3.13,-2.62,-1.40,-1.96,-1.39,0.25,
2.892,3.43,-4.95,-0.65,-1.96,-1.39,0.25,
2.892,3.43,-4.95,-0.65,-1.85,-1.61,0.19,
2.892,3.43,-4.95,-0.65,-1.75,-1.82,0.13,
2.895,3.43,-4.95,-0.65,-1.62,-2.00,0.07,
2.896,3.43,-4.95,-0.65,-1.49,-2.16,0.03,
2.898,3.43,-4.95,-0.65,-1.38,-2.32,-0.02,
2.9,3.03,-6.56,-0.36,-1.38,-2.32,-0.02,
2.901,3.03,-6.56,-0.36,-1.27,-2.44,-0.06,
2.902,3.03,-6.56,-0.36,-1.16,-2.55,-0.10,
2.904,3.03,-6.56,-0.36,-1.05,-2.64,-0.14,
2.906,3.03,-6.56,-0.36,-0.95,-2.72,-0.18,
2.909,3.03,-6.56,-0.36,-0.85,-2.78,-0.22,
2.911,2.88,-6.95,-0.46,-0.85,-2.78,-0.22,
2.911,2.88,-6.95,-0.46,-0.75,-2.82,-0.26,
2.914,2.88,-6.95,-0.46,-0.66,-2.85,-0.31,
2.915,2.88,-6.95,-0.46,-0.57,-2.86,-0.36,
2.916,2.88,-6.95,-0.46,-0.49,-2.85,-0.41,
2.918,2.88,-6.95,-0.46,-0.41,-2.83,-0.46,
2.922,3.43,-6.77,-0.65,-0.41,-2.83,-0.46,
2.923,3.43,-6.77,-0.65,-0.33,-2.79,-0.51,
2.923,3.43,-6.77,-0.65,-0.27,-2.74,-0.58,
2.934,3.43,-6.77,-0.65,-0.21,-2.68,-0.64,
2.934,3.43,-6.77,-0.65,-0.15,-2.60,-0.70,
2.935,3.43,-6.77,-0.65,-0.11,-2.51,-0.77,
2.935,4.15,-6.00,-0.70,-0.11,-2.51,-0.77,
2.935,4.15,-6.00,-0.70,-0.06,-2.42,-0.84,
2.935,4.15,-6.00,-0.70,-0.01,-2.34,-0.92,
2.936,4.15,-6.00,-0.70,0.05,-2.27,-1.00,
2.936,4.15,-6.00,-0.70,0.09,-2.19,-1.08,
2.939,4.15,-6.00,-0.70,0.13,-2.09,-1.15,
2.983,5.72,-4.84,2.19,0.13,-2.09,-1.15,
2.984,5.72,-4.84,2.19,0.14,-1.90,-1.22,
2.984,5.72,-4.84,2.19,0.11,-1.61,-1.26,
2.984,5.72,-4.84,2.19,0.04,-1.23,-1.27,
2.984,5.72,-4.84,2.19,-0.06,-0.80,-1.27,
2.984,5.72,-4.84,2.19,-0.17,-0.34,-1.24,
2.984,5.01,-3.26,3.32,-0.17,-0.34,-1.24,
2.985,5.01,-3.26,3.32,-0.29,0.11,-1.20,
2.985,5.01,-3.26,3.32,-0.41,0.55,-1.15,
2.985,5.01,-3.26,3.32,-0.53,0.94,-1.10,
2.985,5.01,-3.26,3.32,-0.64,1.30,-1.04,
2.985,5.01,-3.26,3.32,-0.74,1.60,-0.98,
2.986,3.53,-1.05,3.22,-0.74,1.60,-0.98,
2.986,3.53,-1.05,3.22,-0.83,1.86,-0.92,
2.986,3.53,-1.05,3.22,-0.90,2.06,-0.85,
2.986,3.53,-1.05,3.22,-0.96,2.20,-0.79,
2.986,3.53,-1.05,3.22,-1.01,2.30,-0.71,
2.987,3.53,-1.05,3.22,-1.03,2.36,-0.64,
2.987,1.76,0.62,3.78,-1.03,2.36,-0.64,
2.987,1.76,0.62,3.78,-1.04,2.37,-0.57,
2.987,1.76,0.62,3.78,-1.03,2.34,-0.50,
2.987,1.76,0.62,3.78,-1.01,2.28,-0.44,
2.988,1.76,0.62,3.78,-0.98,2.19,-0.38,
2.988,1.76,0.62,3.78,-0.95,2.08,-0.32,
2.988,0.33,1.31,4.53,-0.95,2.08,-0.32,
3.005,0.33,1.31,4.53,-0.91,1.95,-0.27,
3.005,0.33,1.31,4.53,-0.86,1.81,-0.23,
3.005,0.33,1.31,4.53,-0.81,1.67,-0.20,
3.005,0.33,1.31,4.53,-0.75,1.52,-0.17,
3.006,0.33,1.31,4.53,-0.69,1.38,-0.15,
3.006,0.33,1.65,4.17,-0.69,1.38,-0.15,
3.006,0.33,1.65,4.17,-0.64,1.26,-0.15,
3.006,0.33,1.65,4.17,-0.58,1.15,-0.15,
3.006,0.33,1.65,4.17,-0.52,1.05,-0.16,
3.006,0.33,1.65,4.17,-0.47,0.97,-0.18,
3.007,0.33,1.65,4.17,-0.43,0.90,-0.20,
3.007,0.86,1.83,3.35,-0.43,0.90,-0.20,
3.007,0.86,1.83,3.35,-0.38,0.85,-0.22,
3.007,0.86,1.83,3.35,-0.34,0.82,-0.25,
3.007,0.86,1.83,3.35,-0.31,0.78,-0.28,
3.007,0.86,1.83,3.35,-0.28,0.76,-0.31,
3.012,0.86,1.83,3.35,-0.26,0.74,-0.34,
3.013,0.88,1.96,2.29,-0.26,0.74,-0.34,
3.013,0.88,1.96,2.29,-0.25,0.72,-0.36,
3.013,0.88,1.96,2.29,-0.24,0.70,-0.39,
3.014,0.88,1.96,2.29,-0.24,0.67,-0.41,
3.016,0.88,1.96,2.29,-0.24,0.64,-0.42,
3.019,0.88,1.96,2.29,-0.25,0.61,-0.44,
3.021,0.21,2.05,1.70,-0.25,0.61,-0.44,
3.021,0.21,2.05,1.70,-0.26,0.57,-0.44,
3.022,0.21,2.05,1.70,-0.27,0.53,-0.44,
3.025,0.21,2.05,1.70,-0.29,0.48,-0.44,
3.026,0.21,2.05,1.70,-0.30,0.43,-0.42,
3.03,0.21,2.05,1.70,-0.30,0.38,-0.41,
3.033,-0.98,2.34,2.19,-0.30,0.38,-0.41,
3.034,-0.98,2.34,2.19,-0.30,0.31,-0.38,
3.036,-0.98,2.34,2.19,-0.30,0.25,-0.36,
3.038,-0.98,2.34,2.19,-0.29,0.18,-0.33,
3.039,-0.98,2.34,2.19,-0.28,0.11,-0.29,
3.039,-0.98,2.34,2.19,-0.26,0.03,-0.25,
3.042,-2.14,2.72,3.80,-0.26,0.03,-0.25,
3.042,-2.14,2.72,3.80,-0.24,-0.05,-0.21,
3.043,-2.14,2.72,3.80,-0.22,-0.14,-0.17,
3.044,-2.14,2.72,3.80,-0.18,-0.23,-0.12,
3.046,-2.14,2.72,3.80,-0.15,-0.32,-0.08,
3.05,-2.14,2.72,3.80,-0.11,-0.41,-0.03,
3.052,-2.79,2.62,5.32,-0.11,-0.41,-0.03,
3.053,-2.79,2.62,5.32,-0.06,-0.51,0.01,
3.053,-2.79,2.62,5.32,-0.01,-0.60,0.05,
3.061,-2.79,2.62,5.32,0.04,-0.69,0.08,
3.062,-2.79,2.62,5.32,0.09,-0.78,0.10,
3.063,-2.79,2.62,5.32,0.14,-0.86,0.11,
3.063,-2.37,1.87,6.20,0.14,-0.86,0.11,
3.063,-2.37,1.87,6.20,0.18,-0.93,0.12,
3.065,-2.37,1.87,6.20,0.22,-0.99,0.13,
3.065,-2.37,1.87,6.20,0.26,-1.05,0.14,
3.066,-2.37,1.87,6.20,0.30,-1.11,0.14,
3.071,-2.37,1.87,6.20,0.33,-1.15,0.15,
3.072,-1.04,1.24,5.42,0.33,-1.15,0.15,
3.072,-1.04,1.24,5.42,0.35,-1.18,0.16,
3.082,-1.04,1.24,5.42,0.37,-1.20,0.17,
3.083,-1.04,1.24,5.42,0.39,-1.22,0.17,
3.083,-1.04,1.24,5.42,0.41,-1.22,0.18,
3.083,-1.04,1.24,5.42,0.43,-1.22,0.19,
3.083,-0.08,1.05,4.68,0.43,-1.22,0.19,
3.084,-0.08,1.05,4.68,0.45,-1.22,0.19,
3.085,-0.08,1.05,4.68,0.47,-1.21,0.19,
3.086,-0.08,1.05,4.68,0.49,-1.20,0.19,
3.111,-0.08,1.05,4.68,0.51,-1.18,0.19,
3.112,-0.08,1.05,4.68,0.53,-1.17,0.18,
3.112,0.99,1.04,4.28,0.53,-1.17,0.18,
3.112,0.99,1.04,4.28,0.55,-1.17,0.17,
3.112,0.99,1.04,4.28,0.57,-1.16,0.16,
3.112,0.99,1.04,4.28,0.60,-1.16,0.15,
3.112,0.99,1.04,4.28,0.62,-1.15,0.13,
3.112,0.99,1.04,4.28,0.63,-1.15,0.12,
3.113,2.09,1.16,4.37,0.63,-1.15,0.12,
3.113,2.09,1.16,4.37,0.65,-1.14,0.10,
3.113,2.09,1.16,4.37,0.66,-1.13,0.08,
3.113,2.09,1.16,4.37,0.67,-1.13,0.06,
3.113,2.09,1.16,4.37,0.67,-1.12,0.04,
3.113,2.09,1.16,4.37,0.67,-1.11,0.01,
3.114,2.81,1.17,3.75,0.67,-1.11,0.01,
3.114,2.81,1.17,3.75,0.66,-1.11,-0.01,
3.114,2.81,1.17,3.75,0.65,-1.11,-0.04,
3.114,2.81,1.17,3.75,0.64,-1.11,-0.07,
3.116,2.81,1.17,3.75,0.63,-1.11,-0.09,
3.118,2.81,1.17,3.75,0.62,-1.11,-0.12,
3.12,3.14,1.08,3.27,0.62,-1.11,-0.12,
3.121,3.14,1.08,3.27,0.60,-1.12,-0.14,
3.122,3.14,1.08,3.27,0.59,-1.13,-0.17,
3.124,3.14,1.08,3.27,0.58,-1.13,-0.18,
3.126,3.14,1.08,3.27,0.56,-1.14,-0.20,
3.128,3.14,1.08,3.27,0.55,-1.14,-0.21,
3.13,2.71,1.10,2.58,0.55,-1.14,-0.21,
3.131,2.71,1.10,2.58,0.54,-1.14,-0.23,
3.132,2.71,1.10,2.58,0.53,-1.14,-0.24,
3.134,2.71,1.10,2.58,0.52,-1.15,-0.24,
3.136,2.71,1.10,2.58,0.51,-1.14,-0.25,
3.138,2.71,1.10,2.58,0.50,-1.14,-0.25,
3.141,1.93,1.25,2.05,0.50,-1.14,-0.25,
3.141,1.93,1.25,2.05,0.49,-1.13,-0.25,
3.142,1.93,1.25,2.05,0.49,-1.12,-0.25,
3.144,1.93,1.25,2.05,0.49,-1.10,-0.25,
3.146,1.93,1.25,2.05,0.49,-1.08,-0.24,
3.157,1.93,1.25,2.05,0.49,-1.05,-0.24,
3.157,1.09,1.48,0.89,0.49,-1.05,-0.24,
3.158,1.09,1.48,0.89,0.50,-1.01,-0.24,
3.158,1.09,1.48,0.89,0.51,-0.97,-0.24,
3.158,1.09,1.48,0.89,0.52,-0.92,-0.25,
3.158,1.09,1.48,0.89,0.53,-0.87,-0.25,
3.158,1.09,1.48,0.89,0.54,-0.82,-0.26,
3.16,0.79,1.53,-1.40,0.54,-0.82,-0.26,
3.161,0.79,1.53,-1.40,0.55,-0.77,-0.27,
3.162,0.79,1.53,-1.40,0.56,-0.73,-0.28,
3.164,0.79,1.53,-1.40,0.57,-0.69,-0.29,
3.166,0.79,1.53,-1.40,0.58,-0.65,-0.29,
3.168,0.79,1.53,-1.40,0.59,-0.60,-0.30,
3.17,0.86,1.76,-3.36,0.59,-0.60,-0.30,
3.171,0.86,1.76,-3.36,0.59,-0.56,-0.31,
3.173,0.86,1.76,-3.36,0.60,-0.51,-0.31,
3.174,0.86,1.76,-3.36,0.62,-0.47,-0.32,
3.176,0.86,1.76,-3.36,0.63,-0.41,-0.32,
3.178,0.86,1.76,-3.36,0.64,-0.36,-0.32,
3.18,1.09,2.58,-4.14,0.64,-0.36,-0.32,
3.18,1.09,2.58,-4.14,0.65,-0.31,-0.32,
3.182,1.09,2.58,-4.14,0.67,-0.25,-0.31,
3.184,1.09,2.58,-4.14,0.68,-0.19,-0.31,
3.186,1.09,2.58,-4.14,0.69,-0.14,-0.31,
3.188,1.09,2.58,-4.14,0.70,-0.09,-0.30,
3.194,1.15,3.77,-3.72,0.70,-0.09,-0.30,
3.195,1.15,3.77,-3.72,0.71,-0.04,-0.29,
3.195,1.15,3.77,-3.72,0.71,0.00,-0.29,
3.195,1.15,3.77,-3.72,0.69,0.06,-0.28,
3.196,1.15,3.77,-3.72,0.69,0.07,-0.27,
3.198,1.15,3.77,-3.72,0.67,0.11,-0.27,
3.201,1.15,5.13,-3.15,0.67,0.11,-0.27,
3.201,1.15,5.13,-3.15,0.64,0.14,-0.26,
3.202,1.15,5.13,-3.15,0.61,0.17,-0.26,
3.204,1.15,5.13,-3.15,0.57,0.20,-0.25,
3.209,1.15,5.13,-3.15,0.52,0.24,-0.25,
3.209,1.15,5.13,-3.15,0.47,0.27,-0.24,
3.21,1.24,6.44,-2.48,0.47,0.27,-0.24,
3.211,1.24,6.44,-2.48,0.41,0.30,-0.23,
3.216,1.24,6.44,-2.48,0.35,0.32,-0.22,
3.216,1.24,6.44,-2.48,0.29,0.34,-0.21,
3.216,1.24,6.44,-2.48,0.23,0.35,-0.19,
3.218,1.24,6.44,-2.48,0.17,0.35,-0.16,
3.221,0.98,6.70,-2.03,0.17,0.35,-0.16,
3.221,0.98,6.70,-2.03,0.11,0.33,-0.13,
3.238,0.98,6.70,-2.03,0.07,0.30,-0.09,
3.238,0.98,6.70,-2.03,0.03,0.26,-0.05,
3.238,0.98,6.70,-2.03,-0.01,0.18,-0.00,
3.238,0.98,6.70,-2.03,-0.02,0.15,0.01,
3.238,0.84,4.31,-1.36,-0.02,0.15,0.01,
3.238,0.84,4.31,-1.36,-0.04,0.07,0.03,
3.239,0.84,4.31,-1.36,-0.04,-0.01,0.05,
3.239,0.84,4.31,-1.36,-0.04,-0.09,0.06,
3.239,0.84,4.31,-1.36,-0.03,-0.18,0.07,
3.243,0.84,4.31,-1.36,0.03,-0.51,0.06,
3.244,0.84,4.31,-1.36,0.03,-0.51,0.06,
3.245,1.80,0.70,0.41,0.03,-0.51,0.06,
3.246,1.80,0.70,0.41,0.09,-0.70,0.04,
3.246,1.80,0.70,0.41,0.13,-0.84,0.03,
3.247,1.80,0.70,0.41,0.13,-0.84,0.03,
3.248,1.80,0.70,0.41,0.16,-0.90,0.02,
3.25,2.32,-0.36,1.70,0.16,-0.90,0.02,
3.25,2.32,-0.36,1.70,0.21,-1.05,-0.00,
3.252,2.32,-0.36,1.70,0.27,-1.18,-0.03,
3.254,2.32,-0.36,1.70,0.33,-1.32,-0.05,
3.256,2.32,-0.36,1.70,0.38,-1.43,-0.07,
3.258,2.32,-0.36,1.70,0.43,-1.52,-0.09,
3.26,2.87,-1.17,3.33,0.43,-1.52,-0.09,
3.261,2.87,-1.17,3.33,0.47,-1.59,-0.10,
3.262,2.87,-1.17,3.33,0.51,-1.63,-0.10,
3.264,2.87,-1.17,3.33,0.54,-1.65,-0.09,
3.266,2.87,-1.17,3.33,0.56,-1.64,-0.08,
3.268,2.87,-1.17,3.33,0.58,-1.60,-0.06,
3.27,1.83,-0.87,2.93,0.58,-1.60,-0.06,
3.27,1.83,-0.87,2.93,0.60,-1.53,-0.04,
3.272,1.83,-0.87,2.93,0.62,-1.43,-0.02,
3.274,1.83,-0.87,2.93,0.63,-1.31,-0.00,
3.276,1.83,-0.87,2.93,0.64,-1.18,0.02,
3.278,1.83,-0.87,2.93,0.65,-1.03,0.04,
3.28,0.75,-0.05,1.69,0.65,-1.03,0.04,
3.28,0.75,-0.05,1.69,0.66,-0.88,0.06,
3.282,0.75,-0.05,1.69,0.68,-0.72,0.08,
3.284,0.75,-0.05,1.69,0.70,-0.56,0.10,
3.286,0.75,-0.05,1.69,0.72,-0.41,0.13,
3.289,0.75,-0.05,1.69,0.76,-0.27,0.15,
3.291,-0.20,0.73,0.90,0.76,-0.27,0.15,
3.291,-0.20,0.73,0.90,0.81,-0.14,0.18,
3.292,-0.20,0.73,0.90,0.86,-0.03,0.21,
3.294,-0.20,0.73,0.90,0.92,0.06,0.24,
3.296,-0.20,0.73,0.90,1.00,0.14,0.27,
3.298,-0.20,0.73,0.90,1.07,0.19,0.30,
3.3,-1.10,1.08,2.53,1.07,0.19,0.30,
3.301,-1.10,1.08,2.53,1.16,0.23,0.33,
3.302,-1.10,1.08,2.53,1.25,0.24,0.36,
3.304,-1.10,1.08,2.53,1.34,0.24,0.39,
3.306,-1.10,1.08,2.53,1.43,0.23,0.41,
3.308,-1.10,1.08,2.53,1.52,0.21,0.44,
3.31,-1.58,0.65,4.06,1.52,0.21,0.44,
3.311,-1.58,0.65,4.06,1.59,0.18,0.46,
3.312,-1.58,0.65,4.06,1.66,0.14,0.48,
3.33,-1.58,0.65,4.06,1.72,0.11,0.50,
3.33,-1.58,0.65,4.06,1.78,0.07,0.51,
3.331,-1.58,0.65,4.06,1.82,0.03,0.52,
3.331,-1.72,0.17,2.95,1.82,0.03,0.52,
3.331,-1.72,0.17,2.95,1.86,-0.01,0.53,
3.331,-1.72,0.17,2.95,1.90,-0.05,0.54,
3.331,-1.72,0.17,2.95,1.93,-0.10,0.54,
3.331,-1.72,0.17,2.95,1.97,-0.15,0.54,
3.332,-1.72,0.17,2.95,2.02,-0.21,0.54,
3.332,-1.79,-0.66,2.82,2.02,-0.21,0.54,
3.332,-1.79,-0.66,2.82,2.08,-0.28,0.54,
3.332,-1.79,-0.66,2.82,2.14,-0.35,0.53,
3.334,-1.79,-0.66,2.82,2.20,-0.44,0.53,
3.336,-1.79,-0.66,2.82,2.27,-0.53,0.52,
3.339,-1.79,-0.66,2.82,2.35,-0.62,0.50,
3.341,-2.13,-2.22,4.95,2.35,-0.62,0.50,
3.341,-2.13,-2.22,4.95,2.42,-0.72,0.49,
3.342,-2.13,-2.22,4.95,2.49,-0.82,0.48,
3.344,-2.13,-2.22,4.95,2.55,-0.91,0.46,
3.346,-2.13,-2.22,4.95,2.61,-0.99,0.45,
3.348,-2.13,-2.22,4.95,2.66,-1.06,0.43,
3.35,-2.61,-4.16,5.13,2.66,-1.06,0.43,
3.35,-2.61,-4.16,5.13,2.70,-1.13,0.42,
3.352,-2.61,-4.16,5.13,2.74,-1.18,0.41,
3.354,-2.61,-4.16,5.13,2.77,-1.22,0.40,
3.362,-2.61,-4.16,5.13,2.80,-1.24,0.40,
3.362,-2.61,-4.16,5.13,2.82,-1.25,0.41,
3.362,-3.54,-5.73,3.98,2.82,-1.25,0.41,
3.363,-3.54,-5.73,3.98,2.84,-1.25,0.41,
3.363,-3.54,-5.73,3.98,2.86,-1.24,0.42,
3.369,-3.54,-5.73,3.98,2.88,-1.20,0.43,
3.369,-3.54,-5.73,3.98,2.90,-1.16,0.45,
3.369,-3.54,-5.73,3.98,2.92,-1.11,0.46,
3.372,-4.25,-7.03,3.19,2.92,-1.11,0.46,
3.372,-4.25,-7.03,3.19,2.94,-1.06,0.47,
3.385,-4.25,-7.03,3.19,2.95,-1.01,0.48,
3.386,-4.25,-7.03,3.19,2.96,-0.95,0.49,
3.386,-4.25,-7.03,3.19,2.97,-0.90,0.50,
3.386,-4.25,-7.03,3.19,2.99,-0.86,0.50,
3.386,-3.96,-7.65,1.67,2.99,-0.86,0.50,
3.386,-3.96,-7.65,1.67,2.99,-0.82,0.50,
3.387,-3.96,-7.65,1.67,2.99,-0.80,0.49,
3.387,-3.96,-7.65,1.67,2.97,-0.79,0.48,
3.387,-3.96,-7.65,1.67,2.95,-0.79,0.47,
3.393,-3.96,-7.65,1.67,2.92,-0.79,0.46,
3.394,-3.15,-7.61,-1.09,2.92,-0.79,0.46,
3.394,-3.15,-7.61,-1.09,2.89,-0.79,0.44,
3.394,-3.15,-7.61,-1.09,2.85,-0.80,0.43,
3.394,-3.15,-7.61,-1.09,2.81,-0.79,0.41,
3.396,-3.15,-7.61,-1.09,2.76,-0.79,0.39,
3.398,-3.15,-7.61,-1.09,2.72,-0.78,0.37,
3.4,-2.58,-8.20,-3.62,2.72,-0.78,0.37,
3.4,-2.58,-8.20,-3.62,2.67,-0.76,0.34,
3.402,-2.58,-8.20,-3.62,2.62,-0.74,0.31,
3.404,-2.58,-8.20,-3.62,2.56,-0.70,0.28,
3.406,-2.58,-8.20,-3.62,2.51,-0.67,0.25,
3.408,-2.58,-8.20,-3.62,2.44,-0.62,0.22,
3.411,-2.48,-9.61,-4.99,2.44,-0.62,0.22,
3.411,-2.48,-9.61,-4.99,2.37,-0.57,0.18,
3.412,-2.48,-9.61,-4.99,2.29,-0.53,0.14,
3.414,-2.48,-9.61,-4.99,2.21,-0.48,0.11,
3.416,-2.48,-9.61,-4.99,2.12,-0.44,0.07,
3.418,-2.48,-9.61,-4.99,2.02,-0.40,0.03,
3.42,-2.95,-11.28,-6.60,2.02,-0.40,0.03,
3.421,-2.95,-11.28,-6.60,1.91,-0.37,-0.01,
3.423,-2.95,-11.28,-6.60,1.80,-0.35,-0.04,
3.424,-2.95,-11.28,-6.60,1.67,-0.35,-0.07,
3.428,-2.95,-11.28,-6.60,1.54,-0.36,-0.09,
3.43,-2.95,-11.28,-6.60,1.40,-0.42,-0.11,
3.431,-3.75,-10.88,-8.49,1.40,-0.42,-0.11,
3.431,-3.75,-10.88,-8.49,1.26,-0.50,-0.13,
3.433,-3.75,-10.88,-8.49,1.11,-0.61,-0.14,
3.437,-3.75,-10.88,-8.49,0.89,-0.83,-0.15,
3.437,-3.75,-10.88,-8.49,0.83,-0.90,-0.16,
3.44,-3.75,-10.88,-8.49,0.70,-1.04,-0.18,
3.444,-3.89,-7.79,-8.33,0.70,-1.04,-0.18,
3.445,-3.89,-7.79,-8.33,0.59,-1.16,-0.20,
3.445,-3.89,-7.79,-8.33,0.49,-1.26,-0.23,
3.445,-3.89,-7.79,-8.33,0.41,-1.37,-0.27,
3.447,-3.89,-7.79,-8.33,0.35,-1.46,-0.31,
3.45,-3.89,-7.79,-8.33,0.30,-1.53,-0.36,
3.451,-2.23,-2.92,-4.32,0.30,-1.53,-0.36,
3.451,-2.23,-2.92,-4.32,0.28,-1.58,-0.41,
3.454,-2.23,-2.92,-4.32,0.28,-1.61,-0.46,
3.454,-2.23,-2.92,-4.32,0.28,-1.61,-0.51,
3.458,-2.23,-2.92,-4.32,0.30,-1.59,-0.56,
3.458,-2.23,-2.92,-4.32,0.32,-1.56,-0.60,
3.462,-1.63,-0.02,-1.09,0.32,-1.56,-0.60,
3.462,-1.63,-0.02,-1.09,0.34,-1.50,-0.64,
3.462,-1.63,-0.02,-1.09,0.36,-1.42,-0.68,
3.465,-1.63,-0.02,-1.09,0.38,-1.32,-0.71,
3.467,-1.63,-0.02,-1.09,0.39,-1.21,-0.73,
3.469,-1.63,-0.02,-1.09,0.41,-1.08,-0.75,
3.471,-1.68,1.47,-1.05,0.41,-1.08,-0.75,
3.473,-1.68,1.47,-1.05,0.41,-0.95,-0.76,
3.474,-1.68,1.47,-1.05,0.40,-0.80,-0.75,
3.477,-1.68,1.47,-1.05,0.39,-0.66,-0.74,
3.478,-1.68,1.47,-1.05,0.38,-0.53,-0.71,
3.483,-1.68,1.47,-1.05,0.35,-0.40,-0.67,
3.483,-2.60,1.98,-2.70,0.35,-0.40,-0.67,
3.508,-2.60,1.98,-2.70,0.32,-0.28,-0.61,
3.508,-2.60,1.98,-2.70,0.29,-0.17,-0.55,
3.508,-2.60,1.98,-2.70,0.27,-0.07,-0.48,
3.509,-2.60,1.98,-2.70,0.24,0.02,-0.40,
3.509,-2.60,1.98,-2.70,0.21,0.11,-0.32,
3.509,-3.04,2.25,-3.55,0.21,0.11,-0.32,
3.509,-3.04,2.25,-3.55,0.19,0.18,-0.23,
3.509,-3.04,2.25,-3.55,0.17,0.24,-0.15,
3.509,-3.04,2.25,-3.55,0.15,0.30,-0.07,
3.51,-3.04,2.25,-3.55,0.14,0.36,0.01,
3.51,-3.04,2.25,-3.55,0.12,0.40,0.08,
3.51,-2.02,3.02,-3.92,0.12,0.40,0.08,
3.51,-2.02,3.02,-3.92,0.10,0.45,0.14,
3.51,-2.02,3.02,-3.92,0.09,0.49,0.19,
3.511,-2.02,3.02,-3.92,0.08,0.52,0.24,
3.511,-2.02,3.02,-3.92,0.07,0.54,0.27,
3.511,-2.02,3.02,-3.92,0.05,0.56,0.30,
3.511,0.16,4.04,-3.96,0.05,0.56,0.30,
3.511,0.16,4.04,-3.96,0.04,0.56,0.32,
3.516,0.16,4.04,-3.96,0.02,0.56,0.34,
3.516,0.16,4.04,-3.96,-0.00,0.55,0.35,
3.516,0.16,4.04,-3.96,-0.02,0.52,0.36,
3.521,0.16,4.04,-3.96,-0.04,0.50,0.36,
3.521,1.64,4.76,-4.05,-0.04,0.50,0.36,
3.521,1.64,4.76,-4.05,-0.07,0.47,0.37,
3.531,1.64,4.76,-4.05,-0.10,0.45,0.37,
3.531,1.64,4.76,-4.05,-0.13,0.42,0.37,
3.531,1.64,4.76,-4.05,-0.17,0.39,0.37,
3.583,1.64,4.76,-4.05,-0.21,0.37,0.37,
3.583,2.12,5.01,-4.21,-0.21,0.37,0.37,
3.583,2.12,5.01,-4.21,-0.25,0.35,0.37,
3.584,2.12,5.01,-4.21,-0.29,0.33,0.36,
3.584,2.12,5.01,-4.21,-0.34,0.33,0.35,
3.584,2.12,5.01,-4.21,-0.40,0.33,0.35,
3.584,2.12,5.01,-4.21,-0.46,0.34,0.33,
3.584,2.22,4.38,-5.01,-0.46,0.34,0.33,
3.585,2.22,4.38,-5.01,-0.53,0.35,0.32,
3.585,2.22,4.38,-5.01,-0.60,0.35,0.31,
3.585,2.22,4.38,-5.01,-0.68,0.36,0.30,
3.585,2.22,4.38,-5.01,-0.75,0.37,0.29,
3.585,2.22,4.38,-5.01,-0.84,0.38,0.28,
3.585,1.88,3.46,-5.90,-0.84,0.38,0.28,
3.586,1.88,3.46,-5.90,-0.93,0.40,0.27,
3.586,1.88,3.46,-5.90,-1.02,0.41,0.27,
3.586,1.88,3.46,-5.90,-1.11,0.42,0.27,
3.586,1.88,3.46,-5.90,-1.20,0.44,0.27,
3.587,1.88,3.46,-5.90,-1.29,0.46,0.27,
3.587,1.15,2.33,-6.71,-1.29,0.46,0.27,
3.587,1.15,2.33,-6.71,-1.39,0.47,0.27,
3.587,1.15,2.33,-6.71,-1.48,0.49,0.27,
3.587,1.15,2.33,-6.71,-1.57,0.51,0.27,
3.588,1.15,2.33,-6.71,-1.66,0.53,0.26,
3.588,1.15,2.33,-6.71,-1.74,0.55,0.26,
3.588,0.95,1.73,-6.51,-1.74,0.55,0.26,
3.588,0.95,1.73,-6.51,-1.81,0.57,0.25,
3.589,0.95,1.73,-6.51,-1.88,0.60,0.23,
3.589,0.95,1.73,-6.51,-1.95,0.63,0.21,
3.589,0.95,1.73,-6.51,-2.03,0.68,0.19,
3.589,0.95,1.73,-6.51,-2.05,0.69,0.18,
3.589,1.14,1.37,-5.55,-2.05,0.69,0.18,
3.589,1.14,1.37,-5.55,-2.10,0.72,0.16,
3.59,1.14,1.37,-5.55,-2.13,0.75,0.13,
3.59,1.14,1.37,-5.55,-2.17,0.78,0.11,
3.59,1.14,1.37,-5.55,-2.20,0.81,0.08,
3.59,1.14,1.37,-5.55,-2.22,0.84,0.05,
3.593,1.41,1.42,-4.01,-2.22,0.84,0.05,
3.593,1.41,1.42,-4.01,-2.24,0.87,0.02,
3.593,1.41,1.42,-4.01,-2.25,0.90,-0.01,
3.595,1.41,1.42,-4.01,-2.26,0.93,-0.03,
3.596,1.41,1.42,-4.01,-2.28,0.96,-0.06,
3.598,1.41,1.42,-4.01,-2.29,1.00,-0.08,
3.601,1.54,1.75,-2.83,-2.29,1.00,-0.08,
3.601,1.54,1.75,-2.83,-2.29,1.03,-0.11,
3.602,1.54,1.75,-2.83,-2.30,1.07,-0.13,
3.608,1.54,1.75,-2.83,-2.32,1.11,-0.15,
3.608,1.54,1.75,-2.83,-2.33,1.16,-0.17,
3.609,1.54,1.75,-2.83,-2.34,1.21,-0.18,
3.611,1.41,2.41,-2.05,-2.34,1.21,-0.18,
3.612,1.41,2.41,-2.05,-2.36,1.27,-0.19,
3.613,1.41,2.41,-2.05,-2.37,1.33,-0.20,
3.616,1.41,2.41,-2.05,-2.39,1.40,-0.20,
3.617,1.41,2.41,-2.05,-2.41,1.48,-0.20,
3.619,1.41,2.41,-2.05,-2.43,1.56,-0.20,
3.621,0.84,3.35,-1.51,-2.43,1.56,-0.20,
3.622,0.84,3.35,-1.51,-2.45,1.65,-0.19,
3.636,0.84,3.35,-1.51,-2.47,1.75,-0.19,
3.637,0.84,3.35,-1.51,-2.48,1.86,-0.18,
3.637,0.84,3.35,-1.51,-2.50,1.97,-0.18,
3.637,0.84,3.35,-1.51,-2.52,2.09,-0.18,
3.637,-0.01,4.32,-1.10,-2.52,2.09,-0.18,
3.637,-0.01,4.32,-1.10,-2.54,2.20,-0.18,
3.638,-0.01,4.32,-1.10,-2.56,2.33,-0.18,
3.638,-0.01,4.32,-1.10,-2.58,2.45,-0.18,
3.638,-0.01,4.32,-1.10,-2.59,2.57,-0.19,
3.642,-0.01,4.32,-1.10,-2.61,2.69,-0.20,
3.643,-0.40,4.98,-0.62,-2.61,2.69,-0.20,
3.643,-0.40,4.98,-0.62,-2.62,2.80,-0.21,
3.643,-0.40,4.98,-0.62,-2.63,2.91,-0.21,
3.681,-0.40,4.98,-0.62,-2.64,3.01,-0.23,
3.682,-0.40,4.98,-0.62,-2.64,3.10,-0.23,
3.703,-0.40,4.98,-0.62,-2.63,3.17,-0.24,
3.704,-0.05,5.10,0.51,-2.63,3.17,-0.24,
3.704,-0.05,5.10,0.51,-2.61,3.23,-0.25,
3.704,-0.05,5.10,0.51,-2.59,3.27,-0.26,
3.704,-0.05,5.10,0.51,-2.56,3.30,-0.27,
3.705,-0.05,5.10,0.51,-2.52,3.31,-0.27,
3.705,-0.05,5.10,0.51,-2.47,3.30,-0.28,
3.705,0.57,5.09,2.77,-2.47,3.30,-0.28,
3.705,0.57,5.09,2.77,-2.41,3.27,-0.28,
3.705,0.57,5.09,2.77,-2.35,3.23,-0.28,
3.706,0.57,5.09,2.77,-2.28,3.16,-0.28,
3.706,0.57,5.09,2.77,-2.20,3.08,-0.28,
3.706,0.57,5.09,2.77,-2.12,2.98,-0.28,
3.706,1.42,5.08,5.22,-2.12,2.98,-0.28,
3.706,1.42,5.08,5.22,-2.04,2.86,-0.28,
3.707,1.42,5.08,5.22,-1.95,2.73,-0.28,
3.707,1.42,5.08,5.22,-1.87,2.57,-0.29,
3.707,1.42,5.08,5.22,-1.79,2.38,-0.29,
3.707,1.42,5.08,5.22,-1.71,2.17,-0.30,
3.707,3.00,3.89,8.29,-1.71,2.17,-0.30,
3.708,3.00,3.89,8.29,-1.65,1.94,-0.29,
3.708,3.00,3.89,8.29,-1.59,1.69,-0.29,
3.708,3.00,3.89,8.29,-1.53,1.43,-0.28,
3.708,3.00,3.89,8.29,-1.48,1.16,-0.27,
3.708,3.00,3.89,8.29,-1.43,0.89,-0.25,
3.709,3.95,1.49,9.85,-1.43,0.89,-0.25,
3.709,3.95,1.49,9.85,-1.37,0.62,-0.24,
3.709,3.95,1.49,9.85,-1.31,0.37,-0.22,
3.709,3.95,1.49,9.85,-1.25,0.13,-0.21,
3.709,3.95,1.49,9.85,-1.18,-0.09,-0.19,
3.709,3.95,1.49,9.85,-1.11,-0.30,-0.17,
3.71,4.41,-0.55,10.56,-1.11,-0.30,-0.17,
3.71,4.41,-0.55,10.56,-1.04,-0.50,-0.15,
3.71,4.41,-0.55,10.56,-0.96,-0.67,-0.14,
3.71,4.41,-0.55,10.56,-0.89,-0.84,-0.13,
3.711,4.41,-0.55,10.56,-0.82,-0.98,-0.12,
3.711,4.41,-0.55,10.56,-0.75,-1.11,-0.11,
3.711,4.23,-2.34,9.68,-0.75,-1.11,-0.11,
3.711,4.23,-2.34,9.68,-0.69,-1.21,-0.11,
3.719,4.23,-2.34,9.68,-0.63,-1.28,-0.11,
3.72,4.23,-2.34,9.68,-0.57,-1.33,-0.11,
3.72,4.23,-2.34,9.68,-0.51,-1.35,-0.12,
3.72,4.23,-2.34,9.68,-0.46,-1.34,-0.14,
3.729,3.63,-3.79,8.19,-0.46,-1.34,-0.14,
3.729,3.63,-3.79,8.19,-0.42,-1.31,-0.16,
3.729,3.63,-3.79,8.19,-0.39,-1.26,-0.19,
3.73,3.63,-3.79,8.19,-0.36,-1.19,-0.22,
3.73,3.63,-3.79,8.19,-0.34,-1.10,-0.27,
3.734,3.63,-3.79,8.19,-0.32,-0.99,-0.32,
3.734,2.38,-4.33,6.23,-0.32,-0.99,-0.32,
3.734,2.38,-4.33,6.23,-0.32,-0.86,-0.37,
3.734,2.38,-4.33,6.23,-0.32,-0.72,-0.42,
3.735,2.38,-4.33,6.23,-0.34,-0.56,-0.48,
3.736,2.38,-4.33,6.23,-0.36,-0.40,-0.53,
3.739,2.38,-4.33,6.23,-0.39,-0.22,-0.58,
3.74,2.38,-4.33,6.23,-0.42,-0.04,-0.62,
3.741,0.42,-3.67,4.37,-0.42,-0.04,-0.62,
3.742,0.42,-3.67,4.37,-0.45,0.14,-0.66,
3.744,0.42,-3.67,4.37,-0.48,0.33,-0.70,
3.748,0.42,-3.67,4.37,-0.52,0.51,-0.73,
3.751,0.42,-3.67,4.37,-0.55,0.69,-0.76,
3.751,-1.39,-2.07,3.37,-0.55,0.69,-0.76,
3.751,-1.39,-2.07,3.37,-0.57,0.86,-0.79,
3.752,-1.39,-2.07,3.37,-0.59,1.01,-0.81,
3.761,-1.39,-2.07,3.37,-0.60,1.16,-0.84,
3.761,-1.39,-2.07,3.37,-0.61,1.30,-0.85,
3.762,-1.39,-2.07,3.37,-0.61,1.42,-0.87,
3.762,-2.63,-0.08,3.70,-0.61,1.42,-0.87,
3.762,-2.63,-0.08,3.70,-0.61,1.53,-0.88,
3.762,-2.63,-0.08,3.70,-0.60,1.62,-0.89,
3.765,-2.63,-0.08,3.70,-0.58,1.69,-0.89,
3.769,-2.63,-0.08,3.70,-0.55,1.73,-0.88,
3.769,-2.63,-0.08,3.70,-0.51,1.75,-0.87,
3.797,-3.83,1.59,4.63,-0.51,1.75,-0.87,
3.797,-3.83,1.59,4.63,-0.46,1.76,-0.85,
3.797,-3.83,1.59,4.63,-0.40,1.74,-0.82,
3.797,-3.83,1.59,4.63,-0.32,1.71,-0.78,
3.798,-3.83,1.59,4.63,-0.24,1.66,-0.73,
3.798,-3.83,1.59,4.63,-0.14,1.61,-0.67,
3.798,-5.92,2.34,6.25,-0.14,1.61,-0.67,
3.798,-5.92,2.34,6.25,-0.04,1.56,-0.60,
3.798,-5.92,2.34,6.25,0.04,1.50,-0.52,
3.799,-5.92,2.34,6.25,0.12,1.44,-0.45,
3.799,-5.92,2.34,6.25,0.18,1.38,-0.37,
3.799,-5.92,2.34,6.25,0.23,1.32,-0.30,
3.799,-6.65,1.36,3.63,0.23,1.32,-0.30,
3.799,-6.65,1.36,3.63,0.27,1.24,-0.24,
3.8,-6.65,1.36,3.63,0.28,1.16,-0.18,
3.8,-6.65,1.36,3.63,0.28,1.06,-0.14,
3.8,-6.65,1.36,3.63,0.27,0.96,-0.10,
3.8,-6.65,1.36,3.63,0.24,0.84,-0.08,
3.8,-5.51,-1.31,-1.73,0.24,0.84,-0.08,
3.801,-5.51,-1.31,-1.73,0.21,0.71,-0.06,
3.802,-5.51,-1.31,-1.73,0.18,0.58,-0.05,
3.805,-5.51,-1.31,-1.73,0.15,0.43,-0.04,
3.806,-5.51,-1.31,-1.73,0.11,0.29,-0.02,
3.808,-5.51,-1.31,-1.73,0.07,0.13,-0.01,
3.81,-4.44,-3.94,-5.23,0.07,0.13,-0.01,
3.81,-4.44,-3.94,-5.23,0.03,-0.02,0.01,
3.812,-4.44,-3.94,-5.23,-0.01,-0.17,0.04,
3.831,-4.44,-3.94,-5.23,-0.07,-0.31,0.08,
3.831,-4.44,-3.94,-5.23,-0.13,-0.45,0.12,
3.831,-4.44,-3.94,-5.23,-0.19,-0.56,0.18,
3.831,-5.50,-6.02,-7.02,-0.19,-0.56,0.18,
3.832,-5.50,-6.02,-7.02,-0.26,-0.65,0.23,
3.832,-5.50,-6.02,-7.02,-0.35,-0.72,0.30,
3.832,-5.50,-6.02,-7.02,-0.45,-0.76,0.36,
3.832,-5.50,-6.02,-7.02,-0.57,-0.75,0.43,
3.833,-5.50,-6.02,-7.02,-0.70,-0.70,0.50,
3.833,-7.22,-8.32,-7.68,-0.70,-0.70,0.50,
3.833,-7.22,-8.32,-7.68,-0.86,-0.61,0.56,
3.833,-7.22,-8.32,-7.68,-1.02,-0.51,0.63,
3.837,-7.22,-8.32,-7.68,-1.18,-0.39,0.69,
3.838,-7.22,-8.32,-7.68,-1.34,-0.27,0.76,
3.838,-7.22,-8.32,-7.68,-1.49,-0.15,0.83,
3.841,-8.52,-10.53,-7.72,-1.49,-0.15,0.83,
3.842,-8.52,-10.53,-7.72,-1.63,-0.04,0.90,
3.842,-8.52,-10.53,-7.72,-1.76,0.06,0.97,
3.846,-8.52,-10.53,-7.72,-1.87,0.16,1.03,
3.846,-8.52,-10.53,-7.72,-1.96,0.28,1.08,
3.85,-8.52,-10.53,-7.72,-2.03,0.41,1.12,
3.85,-7.79,-12.32,-4.40,-2.03,0.41,1.12,
3.851,-7.79,-12.32,-4.40,-2.08,0.56,1.16,
3.852,-7.79,-12.32,-4.40,-2.06,0.71,1.18,
3.856,-7.79,-12.32,-4.40,-1.85,0.73,1.17,
3.857,-7.79,-12.32,-4.40,-1.47,0.55,1.10,
3.859,-7.79,-12.32,-4.40,-0.99,0.18,0.97,
3.861,1.33,-13.33,17.80,-0.99,0.18,0.97,
3.861,1.33,-13.33,17.80,-0.44,-0.32,0.79,
3.862,1.33,-13.33,17.80,0.10,-0.87,0.60,
3.864,1.33,-13.33,17.80,0.60,-1.42,0.44,
3.866,1.33,-13.33,17.80,1.03,-1.92,0.31,
3.868,1.33,-13.33,17.80,1.37,-2.34,0.22,
3.871,5.22,-10.27,17.33,1.37,-2.34,0.22,
3.871,5.22,-10.27,17.33,1.62,-2.67,0.17,
3.873,5.22,-10.27,17.33,1.79,-2.92,0.14,
3.875,5.22,-10.27,17.33,1.89,-3.08,0.13,
3.877,5.22,-10.27,17.33,1.93,-3.16,0.14,
3.878,5.22,-10.27,17.33,1.92,-3.16,0.15,
3.88,2.82,-6.57,3.15,1.92,-3.16,0.15,
3.88,2.82,-6.57,3.15,1.86,-3.07,0.17,
3.882,2.82,-6.57,3.15,1.77,-2.89,0.20,
3.884,2.82,-6.57,3.15,1.62,-2.60,0.24,
3.886,2.82,-6.57,3.15,1.43,-2.21,0.28,
3.888,2.82,-6.57,3.15,1.21,-1.74,0.33,
3.891,2.70,-3.45,-3.78,1.21,-1.74,0.33,
3.892,2.70,-3.45,-3.78,0.94,-1.19,0.38,
3.892,2.70,-3.45,-3.78,0.67,-0.61,0.43,
3.894,2.70,-3.45,-3.78,0.40,-0.02,0.47,
3.896,2.70,-3.45,-3.78,0.15,0.54,0.50,
3.898,2.70,-3.45,-3.78,-0.07,1.05,0.51,
3.901,4.31,-1.31,-5.96,-0.07,1.05,0.51,
3.901,4.31,-1.31,-5.96,-0.26,1.48,0.51,
3.902,4.31,-1.31,-5.96,-0.40,1.82,0.48,
3.919,4.31,-1.31,-5.96,-0.51,2.08,0.45,
3.919,4.31,-1.31,-5.96,-0.58,2.25,0.39,
3.919,4.31,-1.31,-5.96,-0.61,2.34,0.33,
3.919,5.55,-0.52,-5.06,-0.61,2.34,0.33,
3.92,5.55,-0.52,-5.06,-0.63,2.38,0.26,
3.92,5.55,-0.52,-5.06,-0.62,2.39,0.18,
3.92,5.55,-0.52,-5.06,-0.61,2.36,0.10,
3.92,5.55,-0.52,-5.06,-0.58,2.32,0.02,
3.92,5.55,-0.52,-5.06,-0.56,2.27,-0.07,
3.921,6.07,-0.44,-4.64,-0.56,2.27,-0.07,
3.921,6.07,-0.44,-4.64,-0.54,2.21,-0.15,
3.956,6.07,-0.44,-4.64,-0.52,2.15,-0.24,
3.957,6.07,-0.44,-4.64,-0.51,2.10,-0.31,
3.957,6.07,-0.44,-4.64,-0.50,2.02,-0.42,
3.957,6.07,-0.44,-4.64,-0.51,1.99,-0.45,
3.957,5.68,-0.39,-4.50,-0.51,1.99,-0.45,
3.958,5.68,-0.39,-4.50,-0.51,1.94,-0.52,
3.958,5.68,-0.39,-4.50,-0.53,1.88,-0.58,
3.959,5.68,-0.39,-4.50,-0.55,1.81,-0.65,
3.959,5.68,-0.39,-4.50,-0.56,1.78,-0.67,
3.959,5.68,-0.39,-4.50,-0.58,1.74,-0.71,
3.96,4.86,-0.43,-4.61,-0.58,1.74,-0.71,
3.96,4.86,-0.43,-4.61,-0.59,1.69,-0.74,
3.96,4.86,-0.43,-4.61,-0.61,1.64,-0.76,
3.961,4.86,-0.43,-4.61,-0.62,1.60,-0.77,
3.961,4.86,-0.43,-4.61,-0.62,1.56,-0.78,
3.961,4.86,-0.43,-4.61,-0.62,1.52,-0.77,
3.961,3.56,-0.69,-3.78,-0.62,1.52,-0.77,
3.962,3.56,-0.69,-3.78,-0.62,1.48,-0.77,
3.962,3.56,-0.69,-3.78,-0.62,1.44,-0.76,
3.962,3.56,-0.69,-3.78,-0.61,1.40,-0.74,
3.963,3.56,-0.69,-3.78,-0.61,1.36,-0.73,
3.963,3.56,-0.69,-3.78,-0.60,1.33,-0.71,
3.963,2.79,-0.98,-2.86,-0.60,1.33,-0.71,
3.963,2.79,-0.98,-2.86,-0.59,1.29,-0.69,
3.964,2.79,-0.98,-2.86,-0.58,1.25,-0.66,
3.964,2.79,-0.98,-2.86,-0.57,1.21,-0.64,
3.967,2.79,-0.98,-2.86,-0.56,1.16,-0.61,
3.968,2.79,-0.98,-2.86,-0.56,1.12,-0.59,
3.975,2.27,-0.95,-2.01,-0.56,1.12,-0.59,
3.976,2.27,-0.95,-2.01,-0.56,1.07,-0.57,
3.976,2.27,-0.95,-2.01,-0.58,1.03,-0.54,
3.977,2.27,-0.95,-2.01,-0.62,1.00,-0.51,
3.977,2.27,-0.95,-2.01,-0.67,0.97,-0.48,
3.979,2.27,-0.95,-2.01,-0.73,0.95,-0.44,
3.981,2.27,0.05,-0.55,-0.73,0.95,-0.44,
4.013,2.27,0.05,-0.55,-0.79,0.93,-0.41,
4.014,2.27,0.05,-0.55,-0.86,0.90,-0.39,
4.014,2.27,0.05,-0.55,-0.95,0.86,-0.35,
4.015,2.27,0.05,-0.55,-0.97,0.85,-0.34,
4.015,2.27,0.05,-0.55,-1.00,0.80,-0.32,
4.016,1.84,1.77,3.35,-1.00,0.80,-0.32,
4.016,1.84,1.77,3.35,-1.00,0.74,-0.30,
4.017,1.84,1.77,3.35,-0.97,0.65,-0.28,
4.017,1.84,1.77,3.35,-0.90,0.55,-0.25,
4.017,1.84,1.77,3.35,-0.81,0.43,-0.21,
4.018,1.84,1.77,3.35,-0.70,0.30,-0.17,
4.018,-0.21,3.12,9.09,-0.70,0.30,-0.17,
4.019,-0.21,3.12,9.09,-0.57,0.17,-0.13,
4.019,-0.21,3.12,9.09,-0.44,0.05,-0.09,
4.019,-0.21,3.12,9.09,-0.30,-0.06,-0.04,
4.02,-0.21,3.12,9.09,-0.17,-0.16,-0.01,
4.02,-0.21,3.12,9.09,-0.03,-0.25,0.02,
4.021,-1.05,3.67,9.36,-0.03,-0.25,0.02,
4.021,-1.05,3.67,9.36,0.09,-0.32,0.04,
4.021,-1.05,3.67,9.36,0.21,-0.38,0.06,
4.022,-1.05,3.67,9.36,0.32,-0.43,0.07,
4.022,-1.05,3.67,9.36,0.41,-0.46,0.07,
4.022,-1.05,3.67,9.36,0.50,-0.48,0.07,
4.023,-0.62,3.84,6.94,0.50,-0.48,0.07,
4.023,-0.62,3.84,6.94,0.57,-0.49,0.06,
4.024,-0.62,3.84,6.94,0.63,-0.49,0.05,
4.033,-0.62,3.84,6.94,0.69,-0.48,0.03,
4.033,-0.62,3.84,6.94,0.73,-0.47,0.02,
4.034,-0.62,3.84,6.94,0.75,-0.44,0.00,
4.034,-0.39,3.88,4.21,0.75,-0.44,0.00,
4.034,-0.39,3.88,4.21,0.78,-0.40,-0.01,
4.034,-0.39,3.88,4.21,0.79,-0.36,-0.02,
4.035,-0.39,3.88,4.21,0.81,-0.28,-0.03,
4.041,-0.39,3.88,4.21,0.81,-0.25,-0.03,
4.042,-0.39,3.88,4.21,0.81,-0.19,-0.04,
4.046,-0.85,4.18,2.83,0.81,-0.19,-0.04,
4.046,-0.85,4.18,2.83,0.81,-0.12,-0.04,
4.046,-0.85,4.18,2.83,0.81,-0.05,-0.04,
4.046,-0.85,4.18,2.83,0.81,0.03,-0.03,
4.047,-0.85,4.18,2.83,0.80,0.11,-0.02,
4.049,-0.85,4.18,2.83,0.80,0.19,-0.00,
4.051,-1.51,4.56,2.51,0.80,0.19,-0.00,
4.051,-1.51,4.56,2.51,0.80,0.27,0.01,
4.052,-1.51,4.56,2.51,0.80,0.34,0.04,
4.062,-1.51,4.56,2.51,0.80,0.41,0.06,
4.062,-1.51,4.56,2.51,0.80,0.49,0.09,
4.062,-1.51,4.56,2.51,0.79,0.55,0.12,
4.067,-2.44,4.89,2.74,0.79,0.55,0.12,
4.068,-2.44,4.89,2.74,0.79,0.61,0.14,
4.068,-2.44,4.89,2.74,0.78,0.66,0.17,
4.068,-2.44,4.89,2.74,0.77,0.70,0.21,
4.068,-2.44,4.89,2.74,0.75,0.74,0.24,
4.069,-2.44,4.89,2.74,0.74,0.77,0.27,
4.093,-2.87,4.60,2.28,0.74,0.77,0.27,
4.094,-2.87,4.60,2.28,0.72,0.78,0.31,
4.094,-2.87,4.60,2.28,0.71,0.79,0.34,
4.094,-2.87,4.60,2.28,0.69,0.78,0.37,
4.094,-2.87,4.60,2.28,0.67,0.75,0.40,
4.095,-2.87,4.60,2.28,0.66,0.71,0.43,
4.095,-3.27,3.88,2.30,0.66,0.71,0.43,
4.095,-3.27,3.88,2.30,0.65,0.66,0.45,
4.095,-3.27,3.88,2.30,0.63,0.59,0.47,
4.095,-3.27,3.88,2.30,0.62,0.47,0.50,
4.096,-3.27,3.88,2.30,0.62,0.42,0.51,
4.096,-3.27,3.88,2.30,0.61,0.32,0.52,
4.096,-3.26,2.97,2.45,0.61,0.32,0.52,
4.096,-3.26,2.97,2.45,0.60,0.20,0.53,
4.096,-3.26,2.97,2.45,0.59,0.09,0.54,
4.097,-3.26,2.97,2.45,0.57,-0.04,0.54,
4.097,-3.26,2.97,2.45,0.54,-0.17,0.53,
4.098,-3.26,2.97,2.45,0.51,-0.32,0.52,
4.101,-2.81,2.54,1.21,0.51,-0.32,0.52,
4.101,-2.81,2.54,1.21,0.47,-0.46,0.51,
4.102,-2.81,2.54,1.21,0.43,-0.61,0.49,
4.104,-2.81,2.54,1.21,0.39,-0.76,0.46,
4.106,-2.81,2.54,1.21,0.35,-0.90,0.43,
4.108,-2.81,2.54,1.21,0.31,-1.04,0.40,
4.11,-1.36,2.79,-0.71,0.31,-1.04,0.40,
4.111,-1.36,2.79,-0.71,0.28,-1.18,0.36,
4.112,-1.36,2.79,-0.71,0.25,-1.30,0.31,
4.114,-1.36,2.79,-0.71,0.22,-1.42,0.27,
4.116,-1.36,2.79,-0.71,0.20,-1.54,0.22,
4.118,-1.36,2.79,-0.71,0.18,-1.64,0.16,
4.121,0.36,3.82,-1.43,0.18,-1.64,0.16,
4.123,0.36,3.82,-1.43,0.16,-1.74,0.11,
4.124,0.36,3.82,-1.43,0.15,-1.83,0.05,
4.125,0.36,3.82,-1.43,0.14,-1.92,-0.01,
4.126,0.36,3.82,-1.43,0.14,-1.99,-0.06,
4.128,0.36,3.82,-1.43,0.14,-2.07,-0.11,
4.13,1.91,5.04,-0.54,0.14,-2.07,-0.11,
4.131,1.91,5.04,-0.54,0.15,-2.13,-0.16,
4.132,1.91,5.04,-0.54,0.16,-2.19,-0.19,
4.134,1.91,5.04,-0.54,0.17,-2.26,-0.24,
4.137,1.91,5.04,-0.54,0.18,-2.28,-0.25,
4.141,1.91,5.04,-0.54,0.19,-2.32,-0.28,
4.143,2.91,5.52,0.86,0.19,-2.32,-0.28,
4.144,2.91,5.52,0.86,0.20,-2.35,-0.30,
4.145,2.91,5.52,0.86,0.21,-2.37,-0.31,
4.145,2.91,5.52,0.86,0.23,-2.38,-0.32,
4.146,2.91,5.52,0.86,0.24,-2.38,-0.31,
4.172,2.91,5.52,0.86,0.26,-2.36,-0.31,
4.172,3.19,5.22,0.95,0.26,-2.36,-0.31,
4.172,3.19,5.22,0.95,0.27,-2.33,-0.30,
4.172,3.19,5.22,0.95,0.28,-2.30,-0.29,
4.173,3.19,5.22,0.95,0.29,-2.24,-0.28,
4.173,3.19,5.22,0.95,0.29,-2.19,-0.27,
4.173,3.19,5.22,0.95,0.31,-2.12,-0.25,
4.173,3.20,4.52,0.05,0.31,-2.12,-0.25,
4.173,3.20,4.52,0.05,0.32,-2.04,-0.23,
4.173,3.20,4.52,0.05,0.34,-1.94,-0.21,
4.174,3.20,4.52,0.05,0.36,-1.83,-0.19,
4.174,3.20,4.52,0.05,0.39,-1.72,-0.17,
4.174,3.20,4.52,0.05,0.41,-1.62,-0.15,
4.174,3.19,3.50,-0.62,0.41,-1.62,-0.15,
4.174,3.19,3.50,-0.62,0.43,-1.51,-0.12,
4.178,3.19,3.50,-0.62,0.45,-1.40,-0.10,
4.178,3.19,3.50,-0.62,0.46,-1.30,-0.08,
4.179,3.19,3.50,-0.62,0.48,-1.20,-0.06,
4.18,3.19,3.50,-0.62,0.50,-1.11,-0.04,
4.182,3.16,2.14,-1.20,0.50,-1.11,-0.04,
4.183,3.16,2.14,-1.20,0.52,-1.03,-0.02,
4.185,3.16,2.14,-1.20,0.53,-0.96,-0.00,
4.187,3.16,2.14,-1.20,0.55,-0.86,0.02,
4.187,3.16,2.14,-1.20,0.55,-0.84,0.02,
4.19,3.16,2.14,-1.20,0.56,-0.80,0.03,
4.192,2.93,0.53,-1.60,0.56,-0.80,0.03,
4.192,2.93,0.53,-1.60,0.58,-0.76,0.03,
4.192,2.93,0.53,-1.60,0.59,-0.74,0.02,
4.194,2.93,0.53,-1.60,0.60,-0.72,0.02,
4.196,2.93,0.53,-1.60,0.61,-0.71,0.02,
4.198,2.93,0.53,-1.60,0.62,-0.71,0.02,
4.2,2.77,-0.98,-1.56,0.62,-0.71,0.02,
4.201,2.77,-0.98,-1.56,0.62,-0.71,0.02,
4.208,2.77,-0.98,-1.56,0.62,-0.71,0.02,
4.209,2.77,-0.98,-1.56,0.63,-0.72,0.03,
4.209,2.77,-0.98,-1.56,0.63,-0.72,0.04,
4.209,2.77,-0.98,-1.56,0.62,-0.73,0.06,
4.211,2.20,-1.66,-1.52,0.62,-0.73,0.06,
4.212,2.20,-1.66,-1.52,0.62,-0.74,0.07,
4.213,2.20,-1.66,-1.52,0.62,-0.74,0.09,
4.257,2.20,-1.66,-1.52,0.62,-0.75,0.10,
4.257,2.20,-1.66,-1.52,0.62,-0.75,0.12,
4.258,2.20,-1.66,-1.52,0.63,-0.75,0.14,
4.258,2.16,-1.51,-1.72,0.63,-0.75,0.14,
4.258,2.16,-1.51,-1.72,0.64,-0.76,0.15,
4.258,2.16,-1.51,-1.72,0.66,-0.77,0.15,
4.258,2.16,-1.51,-1.72,0.70,-0.79,0.16,
4.258,2.16,-1.51,-1.72,0.74,-0.83,0.16,
4.259,2.16,-1.51,-1.72,0.81,-0.87,0.15,
4.259,2.65,-1.11,0.49,0.81,-0.87,0.15,
4.259,2.65,-1.11,0.49,0.89,-0.94,0.15,
4.259,2.65,-1.11,0.49,0.99,-1.02,0.13,
4.259,2.65,-1.11,0.49,1.19,-1.18,0.11,
4.26,2.65,-1.11,0.49,1.26,-1.24,0.09,
4.26,2.65,-1.11,0.49,1.76,-1.62,-0.00,
4.26,2.65,-1.11,0.49,1.76,-1.62,-0.00,
4.26,2.65,-1.11,0.49,1.76,-1.62,-0.00,
4.26,3.19,-3.12,7.47,1.76,-1.62,-0.00,
4.261,3.19,-3.12,7.47,2.17,-1.86,-0.09,
4.261,3.19,-3.12,7.47,2.17,-1.86,-0.09,
4.261,3.19,-3.12,7.47,2.24,-1.89,-0.10,
4.261,2.40,-4.76,8.45,2.24,-1.89,-0.10,
4.261,2.40,-4.76,8.45,2.38,-1.93,-0.13,
4.261,2.40,-4.76,8.45,2.50,-1.94,-0.15,
4.262,2.40,-4.76,8.45,2.60,-1.91,-0.17,
4.262,2.40,-4.76,8.45,2.69,-1.85,-0.17,
4.265,2.40,-4.76,8.45,2.76,-1.77,-0.17,
4.266,-0.22,-7.68,8.87,2.76,-1.77,-0.17,
4.266,-0.22,-7.68,8.87,2.81,-1.66,-0.16,
4.271,-0.22,-7.68,8.87,2.84,-1.52,-0.14,
4.271,-0.22,-7.68,8.87,2.88,-1.27,-0.10,
4.272,-0.22,-7.68,8.87,2.89,-1.18,-0.08,
4.272,-0.22,-7.68,8.87,2.90,-1.00,-0.04,
4.272,-3.29,-10.61,9.29,2.90,-1.00,-0.04,
4.272,-3.29,-10.61,9.29,2.91,-0.83,0.00,
4.272,-3.29,-10.61,9.29,2.93,-0.67,0.06,
4.275,-3.29,-10.61,9.29,2.94,-0.52,0.11,
4.278,-3.29,-10.61,9.29,2.97,-0.34,0.19,
4.278,-3.29,-10.61,9.29,2.98,-0.30,0.22,
4.281,-5.41,-12.54,8.72,2.98,-0.30,0.22,
4.281,-5.41,-12.54,8.72,3.01,-0.23,0.28,
4.282,-5.41,-12.54,8.72,3.05,-0.19,0.35,
4.285,-5.41,-12.54,8.72,3.11,-0.16,0.44,
4.288,-5.41,-12.54,8.72,3.13,-0.15,0.47,
4.289,-5.41,-12.54,8.72,3.20,-0.16,0.55,
4.291,-6.62,-12.62,5.74,3.20,-0.16,0.55,
4.292,-6.62,-12.62,5.74,3.22,-0.16,0.58,
4.292,-6.62,-12.62,5.74,3.26,-0.18,0.64,
4.294,-6.62,-12.62,5.74,3.29,-0.21,0.72,
4.296,-6.62,-12.62,5.74,3.30,-0.22,0.74,
4.298,-6.62,-12.62,5.74,3.30,-0.26,0.79,
4.301,-7.31,-11.87,0.67,3.30,-0.26,0.79,
4.301,-7.31,-11.87,0.67,3.29,-0.29,0.83,
4.303,-7.31,-11.87,0.67,3.27,-0.33,0.87,
4.305,-7.31,-11.87,0.67,3.24,-0.38,0.91,
4.307,-7.31,-11.87,0.67,3.20,-0.42,0.95,
4.308,-7.31,-11.87,0.67,3.14,-0.47,0.98,
4.31,-7.77,-11.21,-3.66,3.14,-0.47,0.98,
4.311,-7.77,-11.21,-3.66,3.09,-0.53,1.01,
4.312,-7.77,-11.21,-3.66,3.03,-0.58,1.04,
4.33,-7.77,-11.21,-3.66,2.96,-0.63,1.06,
4.33,-7.77,-11.21,-3.66,2.89,-0.68,1.07,
4.331,-7.77,-11.21,-3.66,2.81,-0.72,1.08,
4.331,-7.75,-10.22,-6.11,2.81,-0.72,1.08,
4.332,-7.75,-10.22,-6.11,2.73,-0.75,1.07,
4.332,-7.75,-10.22,-6.11,2.64,-0.77,1.06,
4.332,-7.75,-10.22,-6.11,2.50,-0.78,1.02,
4.332,-7.75,-10.22,-6.11,2.45,-0.78,1.00,
4.333,-7.75,-10.22,-6.11,2.30,-0.76,0.93,
4.333,-6.62,-7.92,-7.34,2.30,-0.76,0.93,
4.333,-6.62,-7.92,-7.34,2.21,-0.73,0.86,
4.333,-6.62,-7.92,-7.34,2.16,-0.72,0.83,
4.339,-6.62,-7.92,-7.34,2.02,-0.66,0.71,
4.34,-6.62,-7.92,-7.34,1.98,-0.63,0.67,
4.34,-6.62,-7.92,-7.34,1.87,-0.55,0.53,
4.341,-5.30,-4.50,-7.55,1.87,-0.55,0.53,
4.341,-5.30,-4.50,-7.55,1.80,-0.48,0.45,
4.342,-5.30,-4.50,-7.55,1.76,-0.45,0.42,
4.344,-5.30,-4.50,-7.55,1.66,-0.36,0.32,
4.346,-5.30,-4.50,-7.55,1.63,-0.33,0.29,
4.348,-5.30,-4.50,-7.55,1.54,-0.25,0.22,
4.35,-5.36,-1.56,-6.55,1.54,-0.25,0.22,
4.351,-5.36,-1.56,-6.55,1.48,-0.21,0.18,
4.362,-5.36,-1.56,-6.55,1.46,-0.20,0.17,
4.362,-5.36,-1.56,-6.55,1.38,-0.15,0.13,
4.363,-5.36,-1.56,-6.55,1.36,-0.14,0.12,
4.363,-5.36,-1.56,-6.55,1.30,-0.14,0.11,
4.363,-6.09,0.50,-4.57,1.30,-0.14,0.11,
4.363,-6.09,0.50,-4.57,1.26,-0.15,0.10,
4.364,-6.09,0.50,-4.57,1.24,-0.16,0.10,
4.368,-6.09,0.50,-4.57,1.18,-0.21,0.09,
4.368,-6.09,0.50,-4.57,1.17,-0.22,0.08,
4.369,-6.09,0.50,-4.57,1.11,-0.28,0.06,
4.412,-5.48,1.30,-2.71,1.11,-0.28,0.06,
4.413,-5.48,1.30,-2.71,1.06,-0.32,0.05,
4.414,-5.48,1.30,-2.71,1.01,-0.37,0.05,
4.414,-5.48,1.30,-2.71,0.96,-0.41,0.04,
4.414,-5.48,1.30,-2.71,0.90,-0.46,0.04,
4.414,-5.48,1.30,-2.71,0.83,-0.51,0.04,
4.415,-3.62,-0.25,-2.58,0.83,-0.51,0.04,
4.415,-3.62,-0.25,-2.58,0.76,-0.56,0.04,
4.415,-3.62,-0.25,-2.58,0.68,-0.62,0.04,
4.415,-3.62,-0.25,-2.58,0.59,-0.68,0.04,
4.415,-3.62,-0.25,-2.58,0.49,-0.73,0.04,
4.416,-3.62,-0.25,-2.58,0.40,-0.79,0.05,
4.416,-1.62,-1.72,-3.69,0.40,-0.79,0.05,
4.416,-1.62,-1.72,-3.69,0.29,-0.83,0.06,
4.416,-1.62,-1.72,-3.69,0.19,-0.87,0.07,
4.417,-1.62,-1.72,-3.69,0.09,-0.89,0.08,
4.417,-1.62,-1.72,-3.69,-0.01,-0.90,0.10,
4.417,-1.62,-1.72,-3.69,-0.11,-0.91,0.12,
4.417,-0.73,-2.09,-4.91,-0.11,-0.91,0.12,
4.418,-0.73,-2.09,-4.91,-0.20,-0.90,0.15,
4.418,-0.73,-2.09,-4.91,-0.29,-0.90,0.18,
4.418,-0.73,-2.09,-4.91,-0.37,-0.88,0.21,
4.419,-0.73,-2.09,-4.91,-0.45,-0.86,0.25,
4.419,-0.73,-2.09,-4.91,-0.52,-0.85,0.28,
4.419,-0.49,-1.05,-5.26,-0.52,-0.85,0.28,
4.419,-0.49,-1.05,-5.26,-0.58,-0.83,0.32,
4.419,-0.49,-1.05,-5.26,-0.63,-0.80,0.35,
4.42,-0.49,-1.05,-5.26,-0.68,-0.77,0.38,
4.42,-0.49,-1.05,-5.26,-0.72,-0.74,0.41,
4.42,-0.49,-1.05,-5.26,-0.75,-0.70,0.43,
4.427,-0.21,0.59,-5.18,-0.75,-0.70,0.43,
4.428,-0.21,0.59,-5.18,-0.77,-0.65,0.45,
4.428,-0.21,0.59,-5.18,-0.79,-0.61,0.47,
4.428,-0.21,0.59,-5.18,-0.81,-0.56,0.48,
4.428,-0.21,0.59,-5.18,-0.83,-0.51,0.49,
4.429,-0.21,0.59,-5.18,-0.85,-0.46,0.49,
4.431,0.21,2.25,-4.91,-0.85,-0.46,0.49,
4.431,0.21,2.25,-4.91,-0.86,-0.41,0.49,
4.432,0.21,2.25,-4.91,-0.88,-0.36,0.50,
4.434,0.21,2.25,-4.91,-0.89,-0.30,0.49,
4.439,0.21,2.25,-4.91,-0.90,-0.25,0.49,
4.439,0.21,2.25,-4.91,-0.92,-0.19,0.48,
4.441,0.45,3.46,-4.95,-0.92,-0.19,0.48,
4.441,0.45,3.46,-4.95,-0.93,-0.14,0.48,
4.444,0.45,3.46,-4.95,-0.95,-0.08,0.46,
4.444,0.45,3.46,-4.95,-0.97,-0.03,0.46,
4.446,0.45,3.46,-4.95,-0.99,0.03,0.45,
4.449,0.45,3.46,-4.95,-1.01,0.08,0.44,
4.451,0.80,4.45,-4.89,-1.01,0.08,0.44,
4.451,0.80,4.45,-4.89,-1.04,0.14,0.43,
4.458,0.80,4.45,-4.89,-1.06,0.19,0.42,
4.458,0.80,4.45,-4.89,-1.09,0.25,0.41,
4.458,0.80,4.45,-4.89,-1.11,0.30,0.41,
4.458,0.80,4.45,-4.89,-1.14,0.34,0.40,
4.46,0.92,5.22,-5.05,-1.14,0.34,0.40,
4.461,0.92,5.22,-5.05,-1.17,0.39,0.39,
4.462,0.92,5.22,-5.05,-1.20,0.43,0.39,
4.464,0.92,5.22,-5.05,-1.23,0.47,0.38,
4.466,0.92,5.22,-5.05,-1.26,0.51,0.38,
4.474,0.92,5.22,-5.05,-1.29,0.55,0.38,
4.475,1.25,5.86,-4.97,-1.29,0.55,0.38,
4.475,1.25,5.86,-4.97,-1.33,0.58,0.37,
4.475,1.25,5.86,-4.97,-1.36,0.60,0.37,
4.475,1.25,5.86,-4.97,-1.40,0.63,0.36,
4.476,1.25,5.86,-4.97,-1.44,0.65,0.36,
4.478,1.25,5.86,-4.97,-1.48,0.67,0.36,
4.48,1.58,6.33,-5.09,-1.48,0.67,0.36,
4.492,1.58,6.33,-5.09,-1.51,0.68,0.35,
4.492,1.58,6.33,-5.09,-1.55,0.69,0.35,
4.492,1.58,6.33,-5.09,-1.59,0.70,0.35,
4.492,1.58,6.33,-5.09,-1.63,0.71,0.35,
4.493,1.58,6.33,-5.09,-1.66,0.72,0.35,
4.493,2.10,6.67,-4.73,-1.66,0.72,0.35,
4.493,2.10,6.67,-4.73,-1.69,0.73,0.35,
4.493,2.10,6.67,-4.73,-1.73,0.75,0.34,
4.495,2.10,6.67,-4.73,-1.76,0.76,0.34,
4.497,2.10,6.67,-4.73,-1.79,0.77,0.34,
4.498,2.10,6.67,-4.73,-1.82,0.78,0.33,
4.5,2.60,6.96,-4.46,-1.82,0.78,0.33,
4.501,2.60,6.96,-4.46,-1.86,0.79,0.33,
4.502,2.60,6.96,-4.46,-1.89,0.80,0.32,
4.504,2.60,6.96,-4.46,-1.92,0.81,0.31,
4.506,2.60,6.96,-4.46,-1.95,0.81,0.30,
4.508,2.60,6.96,-4.46,-1.98,0.81,0.29,
4.51,3.43,7.10,-3.97,-1.98,0.81,0.29,
4.511,3.43,7.10,-3.97,-2.01,0.82,0.28,
4.512,3.43,7.10,-3.97,-2.04,0.82,0.27,
4.514,3.43,7.10,-3.97,-2.08,0.81,0.25,
4.516,3.43,7.10,-3.97,-2.11,0.81,0.24,
4.519,3.43,7.10,-3.97,-2.14,0.80,0.22,
4.521,4.17,6.63,-3.83,-2.14,0.80,0.22,
4.521,4.17,6.63,-3.83,-2.17,0.79,0.20,
4.522,4.17,6.63,-3.83,-2.21,0.78,0.18,
4.524,4.17,6.63,-3.83,-2.24,0.78,0.15,
4.526,4.17,6.63,-3.83,-2.27,0.77,0.12,
4.528,4.17,6.63,-3.83,-2.31,0.77,0.09,
4.53,4.58,5.92,-3.47,-2.31,0.77,0.09,
4.53,4.58,5.92,-3.47,-2.34,0.76,0.05,
4.532,4.58,5.92,-3.47,-2.37,0.77,0.00,
4.534,4.58,5.92,-3.47,-2.41,0.77,-0.04,
4.536,4.58,5.92,-3.47,-2.44,0.79,-0.09,
4.538,4.58,5.92,-3.47,-2.47,0.81,-0.15,
4.541,5.19,4.86,-3.24,-2.47,0.81,-0.15,
4.541,5.19,4.86,-3.24,-2.50,0.84,-0.21,
4.542,5.19,4.86,-3.24,-2.53,0.88,-0.28,
4.544,5.19,4.86,-3.24,-2.55,0.93,-0.34,
4.546,5.19,4.86,-3.24,-2.57,0.98,-0.42,
4.548,5.19,4.86,-3.24,-2.59,1.05,-0.49,
4.55,5.24,3.93,-2.59,-2.59,1.05,-0.49,
4.551,5.24,3.93,-2.59,-2.61,1.14,-0.56,
4.552,5.24,3.93,-2.59,-2.62,1.24,-0.64,
4.554,5.24,3.93,-2.59,-2.64,1.37,-0.72,
4.557,5.24,3.93,-2.59,-2.65,1.52,-0.79,
4.558,5.24,3.93,-2.59,-2.66,1.69,-0.86,
4.56,5.27,2.72,-1.40,-2.66,1.69,-0.86,
4.561,5.27,2.72,-1.40,-2.67,1.88,-0.92,
4.562,5.27,2.72,-1.40,-2.69,2.09,-0.98,
4.564,5.27,2.72,-1.40,-2.70,2.32,-1.04,
4.566,5.27,2.72,-1.40,-2.71,2.54,-1.09,
4.568,5.27,2.72,-1.40,-2.71,2.77,-1.13,
4.571,4.49,1.58,0.20,-2.71,2.77,-1.13,
4.571,4.49,1.58,0.20,-2.71,3.00,-1.17,
4.573,4.49,1.58,0.20,-2.69,3.23,-1.19,
4.574,4.49,1.58,0.20,-2.64,3.44,-1.21,
4.576,4.49,1.58,0.20,-2.57,3.64,-1.22,
4.578,4.49,1.58,0.20,-2.46,3.80,-1.20,
4.58,2.59,0.83,5.07,-2.46,3.80,-1.20,
4.581,2.59,0.83,5.07,-2.32,3.93,-1.17,
4.582,2.59,0.83,5.07,-2.14,4.02,-1.13,
4.588,2.59,0.83,5.07,-1.95,4.06,-1.08,
4.589,2.59,0.83,5.07,-1.75,4.06,-1.02,
4.589,2.59,0.83,5.07,-1.56,4.01,-0.96,
4.59,0.47,-0.94,11.68,-1.56,4.01,-0.96,
4.591,0.47,-0.94,11.68,-1.36,3.92,-0.91,
4.592,0.47,-0.94,11.68,-1.18,3.78,-0.86,
4.594,0.47,-0.94,11.68,-1.01,3.58,-0.83,
4.598,0.47,-0.94,11.68,-0.85,3.33,-0.81,
4.598,0.47,-0.94,11.68,-0.73,3.02,-0.80,
4.6,1.36,-3.36,14.23,-0.73,3.02,-0.80,
4.601,1.36,-3.36,14.23,-0.63,2.67,-0.80,
4.602,1.36,-3.36,14.23,-0.56,2.27,-0.81,
4.614,1.36,-3.36,14.23,-0.53,1.83,-0.83,
4.614,1.36,-3.36,14.23,-0.53,1.37,-0.85,
4.614,1.36,-3.36,14.23,-0.56,0.90,-0.88,
4.614,2.54,-4.39,12.24,-0.56,0.90,-0.88,
4.614,2.54,-4.39,12.24,-0.61,0.43,-0.91,
4.614,2.54,-4.39,12.24,-0.69,-0.02,-0.94,
4.614,2.54,-4.39,12.24,-0.79,-0.45,-0.97,
4.616,2.54,-4.39,12.24,-0.90,-0.83,-1.00,
4.619,2.54,-4.39,12.24,-1.02,-1.18,-1.03,
4.62,2.66,-3.33,8.28,-1.02,-1.18,-1.03,
4.621,2.66,-3.33,8.28,-1.14,-1.48,-1.05,
4.622,2.66,-3.33,8.28,-1.26,-1.73,-1.08,
4.624,2.66,-3.33,8.28,-1.37,-1.94,-1.09,
4.626,2.66,-3.33,8.28,-1.48,-2.11,-1.11,
4.628,2.66,-3.33,8.28,-1.58,-2.24,-1.12,
4.63,1.90,-2.02,5.57,-1.58,-2.24,-1.12,
4.63,1.90,-2.02,5.57,-1.67,-2.33,-1.13,
4.632,1.90,-2.02,5.57,-1.75,-2.38,-1.14,
4.634,1.90,-2.02,5.57,-1.82,-2.40,-1.14,
4.636,1.90,-2.02,5.57,-1.88,-2.40,-1.14,
4.639,1.90,-2.02,5.57,-1.92,-2.36,-1.14,
4.64,0.75,-1.02,4.74,-1.92,-2.36,-1.14,
4.64,0.75,-1.02,4.74,-1.96,-2.30,-1.14,
4.642,0.75,-1.02,4.74,-1.98,-2.22,-1.13,
4.644,0.75,-1.02,4.74,-1.99,-2.13,-1.12,
4.646,0.75,-1.02,4.74,-1.99,-2.03,-1.10,
4.655,0.75,-1.02,4.74,-1.97,-1.92,-1.09,
4.656,-0.73,-0.02,4.89,-1.97,-1.92,-1.09,
4.656,-0.73,-0.02,4.89,-1.94,-1.80,-1.07,
4.656,-0.73,-0.02,4.89,-1.90,-1.67,-1.05,
4.656,-0.73,-0.02,4.89,-1.85,-1.54,-1.03,
4.656,-0.73,-0.02,4.89,-1.79,-1.39,-1.01,
4.658,-0.73,-0.02,4.89,-1.73,-1.23,-0.98,
4.66,-2.02,0.90,5.46,-1.73,-1.23,-0.98,
4.66,-2.02,0.90,5.46,-1.65,-1.08,-0.96,
4.662,-2.02,0.90,5.46,-1.57,-0.91,-0.93,
4.664,-2.02,0.90,5.46,-1.49,-0.74,-0.91,
4.666,-2.02,0.90,5.46,-1.40,-0.56,-0.89,
4.67,-2.02,0.90,5.46,-1.32,-0.37,-0.86,
4.67,-2.79,1.64,5.16,-1.32,-0.37,-0.86,
4.671,-2.79,1.64,5.16,-1.23,-0.19,-0.84,
4.672,-2.79,1.64,5.16,-1.14,-0.01,-0.82,
4.674,-2.79,1.64,5.16,-1.05,0.17,-0.81,
4.676,-2.79,1.64,5.16,-0.96,0.34,-0.79,
4.678,-2.79,1.64,5.16,-0.87,0.51,-0.76,
4.68,-3.54,1.94,4.76,-0.87,0.51,-0.76,
4.681,-3.54,1.94,4.76,-0.78,0.67,-0.74,
4.682,-3.54,1.94,4.76,-0.69,0.82,-0.71,
4.684,-3.54,1.94,4.76,-0.60,0.96,-0.67,
4.686,-3.54,1.94,4.76,-0.51,1.09,-0.62,
4.688,-3.54,1.94,4.76,-0.42,1.21,-0.57,
4.69,-4.71,1.23,4.51,-0.42,1.21,-0.57,
4.69,-4.71,1.23,4.51,-0.33,1.31,-0.52,
4.692,-4.71,1.23,4.51,-0.24,1.40,-0.46,
4.694,-4.71,1.23,4.51,-0.14,1.48,-0.39,
4.696,-4.71,1.23,4.51,-0.04,1.54,-0.32,
4.698,-4.71,1.23,4.51,0.06,1.59,-0.25,
4.701,-6.18,-0.14,5.29,0.06,1.59,-0.25,
4.701,-6.18,-0.14,5.29,0.18,1.62,-0.16,
4.709,-6.18,-0.14,5.29,0.31,1.63,-0.08,
4.709,-6.18,-0.14,5.29,0.45,1.63,0.02,
4.709,-6.18,-0.14,5.29,0.63,1.61,0.14,
4.71,-6.18,-0.14,5.29,0.83,1.56,0.26,
4.71,-8.45,-1.66,9.08,0.83,1.56,0.26,
4.711,-8.45,-1.66,9.08,1.07,1.50,0.40,
4.712,-8.45,-1.66,9.08,1.30,1.44,0.55,
4.714,-8.45,-1.66,9.08,1.51,1.37,0.69,
4.716,-8.45,-1.66,9.08,1.68,1.31,0.81,
4.721,-8.45,-1.66,9.08,1.79,1.27,0.92,
4.721,-9.90,-3.20,9.48,1.79,1.27,0.92,
4.721,-9.90,-3.20,9.48,1.83,1.25,1.01,
4.722,-9.90,-3.20,9.48,1.81,1.22,1.06,
4.724,-9.90,-3.20,9.48,1.72,1.18,1.09,
4.726,-9.90,-3.20,9.48,1.58,1.11,1.09,
4.728,-9.90,-3.20,9.48,1.41,1.03,1.07,
4.731,-5.94,-4.83,-1.36,1.41,1.03,1.07,
4.731,-5.94,-4.83,-1.36,1.20,0.93,1.02,
4.732,-5.94,-4.83,-1.36,0.99,0.81,0.97,
4.746,-5.94,-4.83,-1.36,0.77,0.69,0.91,
4.746,-5.94,-4.83,-1.36,0.56,0.57,0.85,
4.746,-5.94,-4.83,-1.36,0.36,0.47,0.79,
4.746,-3.44,-6.39,-7.55,0.36,0.47,0.79,
4.747,-3.44,-6.39,-7.55,0.16,0.39,0.73,
4.747,-3.44,-6.39,-7.55,-0.04,0.34,0.68,
4.747,-3.44,-6.39,-7.55,-0.24,0.33,0.63,
4.747,-3.44,-6.39,-7.55,-0.45,0.35,0.59,
4.748,-3.44,-6.39,-7.55,-0.66,0.40,0.55,
4.779,-4.25,-7.85,-8.12,-0.66,0.40,0.55,
4.78,-4.25,-7.85,-8.12,-0.87,0.48,0.51,
4.78,-4.25,-7.85,-8.12,-1.08,0.58,0.47,
4.78,-4.25,-7.85,-8.12,-1.28,0.70,0.43,
4.781,-4.25,-7.85,-8.12,-1.48,0.80,0.40,
4.781,-4.25,-7.85,-8.12,-1.67,0.89,0.36,
4.781,-5.54,-8.27,-7.76,-1.67,0.89,0.36,
4.781,-5.54,-8.27,-7.76,-1.84,0.96,0.33,
4.781,-5.54,-8.27,-7.76,-2.00,1.01,0.30,
4.782,-5.54,-8.27,-7.76,-2.15,1.03,0.27,
4.782,-5.54,-8.27,-7.76,-2.27,1.05,0.24,
4.782,-5.54,-8.27,-7.76,-2.36,1.04,0.20,
4.782,-5.26,-7.36,-6.02,-2.36,1.04,0.20,
4.782,-5.26,-7.36,-6.02,-2.44,1.01,0.17,
4.783,-5.26,-7.36,-6.02,-2.49,0.97,0.14,
4.783,-5.26,-7.36,-6.02,-2.53,0.92,0.12,
4.783,-5.26,-7.36,-6.02,-2.53,0.86,0.10,
4.783,-5.26,-7.36,-6.02,-2.52,0.78,0.10,
4.783,-3.96,-6.00,-3.02,-2.52,0.78,0.10,
4.784,-3.96,-6.00,-3.02,-2.49,0.69,0.12,
4.784,-3.96,-6.00,-3.02,-2.43,0.57,0.15,
4.788,-3.96,-6.00,-3.02,-2.35,0.43,0.19,
4.788,-3.96,-6.00,-3.02,-2.23,0.24,0.24,
4.792,-3.96,-6.00,-3.02,-2.08,0.00,0.28,
4.793,-1.66,-5.69,1.73,-2.08,0.00,0.28,
4.794,-1.66,-5.69,1.73,-1.89,-0.27,0.31,
4.794,-1.66,-5.69,1.73,-1.69,-0.56,0.33,
4.794,-1.66,-5.69,1.73,-1.47,-0.86,0.35,
4.797,-1.66,-5.69,1.73,-1.23,-1.16,0.35,
4.799,-1.66,-5.69,1.73,-1.00,-1.46,0.36,
4.815,1.42,-5.83,4.55,-1.00,-1.46,0.36,
4.817,1.42,-5.83,4.55,-0.77,-1.73,0.36,
4.818,1.42,-5.83,4.55,-0.55,-1.97,0.36,
4.818,1.42,-5.83,4.55,-0.34,-2.19,0.35,
4.819,1.42,-5.83,4.55,-0.14,-2.38,0.35,
4.819,1.42,-5.83,4.55,0.04,-2.53,0.34,
4.819,2.45,-5.41,2.88,0.04,-2.53,0.34,
4.82,2.45,-5.41,2.88,0.21,-2.65,0.32,
4.821,2.45,-5.41,2.88,0.36,-2.75,0.30,
4.847,2.45,-5.41,2.88,0.50,-2.82,0.27,
4.847,2.45,-5.41,2.88,0.62,-2.87,0.24,
4.848,2.45,-5.41,2.88,0.73,-2.89,0.20,
4.848,3.38,-4.88,1.70,0.73,-2.89,0.20,
4.848,3.38,-4.88,1.70,0.80,-2.89,0.17,
4.849,3.38,-4.88,1.70,0.83,-2.81,0.13,
4.849,3.38,-4.88,1.70,0.77,-2.63,0.10,
4.849,3.38,-4.88,1.70,0.62,-2.33,0.09,
4.849,3.38,-4.88,1.70,0.40,-1.94,0.09,
4.85,5.43,-4.49,0.45,0.40,-1.94,0.09,
4.85,5.43,-4.49,0.45,0.13,-1.49,0.09,
4.85,5.43,-4.49,0.45,-0.15,-1.03,0.09,
4.851,5.43,-4.49,0.45,-0.43,-0.57,0.09,
4.851,5.43,-4.49,0.45,-0.69,-0.13,0.08,
4.851,5.43,-4.49,0.45,-0.93,0.27,0.07,
4.851,7.43,-3.41,-0.85,-0.93,0.27,0.07,
4.852,7.43,-3.41,-0.85,-1.13,0.62,0.04,
4.852,7.43,-3.41,-0.85,-1.28,0.94,0.01,
4.853,7.43,-3.41,-0.85,-1.40,1.19,-0.03,
4.853,7.43,-3.41,-0.85,-1.47,1.40,-0.08,
4.853,7.43,-3.41,-0.85,-1.50,1.55,-0.13,
4.854,7.75,-2.15,0.46,-1.50,1.55,-0.13,
4.854,7.75,-2.15,0.46,-1.49,1.67,-0.18,
4.854,7.75,-2.15,0.46,-1.45,1.75,-0.24,
4.855,7.75,-2.15,0.46,-1.39,1.81,-0.29,
4.865,7.75,-2.15,0.46,-1.30,1.83,-0.33,
4.866,7.75,-2.15,0.46,-1.19,1.84,-0.38,
4.866,6.68,-1.58,1.30,-1.19,1.84,-0.38,
4.866,6.68,-1.58,1.30,-1.08,1.83,-0.42,
4.867,6.68,-1.58,1.30,-0.96,1.80,-0.45,
4.867,6.68,-1.58,1.30,-0.84,1.76,-0.49,
4.867,6.68,-1.58,1.30,-0.72,1.70,-0.52,
4.869,6.68,-1.58,1.30,-0.61,1.63,-0.54,
4.873,4.73,-1.31,0.67,-0.61,1.63,-0.54,
4.874,4.73,-1.31,0.67,-0.50,1.55,-0.56,
4.874,4.73,-1.31,0.67,-0.39,1.47,-0.57,
4.874,4.73,-1.31,0.67,-0.30,1.38,-0.58,
4.879,4.73,-1.31,0.67,-0.21,1.30,-0.58,
4.879,4.73,-1.31,0.67,-0.12,1.21,-0.58,
4.883,3.24,-1.11,-0.39,-0.12,1.21,-0.58,
4.883,3.24,-1.11,-0.39,-0.05,1.12,-0.57,
4.883,3.24,-1.11,-0.39,0.02,1.04,-0.56,
4.893,3.24,-1.11,-0.39,0.08,0.96,-0.54,
4.894,3.24,-1.11,-0.39,0.14,0.89,-0.53,
4.894,3.24,-1.11,-0.39,0.19,0.82,-0.53,
4.894,2.25,-0.59,-0.84,0.19,0.82,-0.53,
4.895,2.25,-0.59,-0.84,0.23,0.75,-0.52,
4.895,2.25,-0.59,-0.84,0.26,0.69,-0.51,
4.895,2.25,-0.59,-0.84,0.29,0.63,-0.51,
4.948,2.25,-0.59,-0.84,0.31,0.57,-0.51,
4.949,2.25,-0.59,-0.84,0.32,0.51,-0.51,
4.949,1.73,0.09,-0.73,0.32,0.51,-0.51,
4.949,1.73,0.09,-0.73,0.32,0.46,-0.52,
4.949,1.73,0.09,-0.73,0.30,0.41,-0.52,
4.949,1.73,0.09,-0.73,0.28,0.36,-0.52,
4.95,1.73,0.09,-0.73,0.25,0.31,-0.53,
4.95,1.73,0.09,-0.73,0.22,0.27,-0.53,
4.95,0.91,0.92,-0.34,0.22,0.27,-0.53,
4.95,0.91,0.92,-0.34,0.17,0.23,-0.54,
4.95,0.91,0.92,-0.34,0.12,0.20,-0.54,
4.95,0.91,0.92,-0.34,0.07,0.18,-0.55,
4.951,0.91,0.92,-0.34,0.01,0.16,-0.55,
4.951,0.91,0.92,-0.34,-0.04,0.16,-0.55,
4.951,-0.10,1.95,0.52,-0.04,0.16,-0.55,
4.951,-0.10,1.95,0.52,-0.09,0.15,-0.54,
4.951,-0.10,1.95,0.52,-0.13,0.14,-0.53,
4.952,-0.10,1.95,0.52,-0.16,0.13,-0.51,
4.952,-0.10,1.95,0.52,-0.18,0.12,-0.49,
4.952,-0.10,1.95,0.52,-0.19,0.10,-0.46,
4.952,-1.72,3.16,2.80,-0.19,0.10,-0.46,
4.952,-1.72,3.16,2.80,-0.17,0.08,-0.42,
4.953,-1.72,3.16,2.80,-0.15,0.05,-0.38,
4.953,-1.72,3.16,2.80,-0.12,0.02,-0.33,
4.953,-1.72,3.16,2.80,-0.07,-0.02,-0.28,
4.953,-1.72,3.16,2.80,-0.01,-0.08,-0.22,
4.953,-3.34,4.21,5.54,-0.01,-0.08,-0.22,
4.954,-3.34,4.21,5.54,0.06,-0.13,-0.17,
4.954,-3.34,4.21,5.54,0.13,-0.19,-0.11,
4.954,-3.34,4.21,5.54,0.21,-0.25,-0.06,
4.954,-3.34,4.21,5.54,0.30,-0.32,-0.01,
4.954,-3.34,4.21,5.54,0.38,-0.39,0.04,
4.954,-3.65,4.92,6.68,0.38,-0.39,0.04,
4.955,-3.65,4.92,6.68,0.47,-0.45,0.08,
4.955,-3.65,4.92,6.68,0.56,-0.51,0.13,
4.955,-3.65,4.92,6.68,0.65,-0.56,0.16,
4.958,-3.65,4.92,6.68,0.72,-0.60,0.20,
4.962,-3.65,4.92,6.68,0.79,-0.63,0.22,
4.964,-3.33,5.31,6.37,0.79,-0.63,0.22,
4.965,-3.33,5.31,6.37,0.85,-0.65,0.25,
4.966,-3.33,5.31,6.37,0.90,-0.66,0.27,
4.966,-3.33,5.31,6.37,0.93,-0.66,0.29,
4.966,-3.33,5.31,6.37,0.95,-0.65,0.30,
4.973,-3.33,5.31,6.37,0.97,-0.62,0.31,
4.974,-2.62,5.36,4.10,0.97,-0.62,0.31,
4.974,-2.62,5.36,4.10,0.96,-0.58,0.31,
4.974,-2.62,5.36,4.10,0.95,-0.52,0.32,
4.975,-2.62,5.36,4.10,0.93,-0.46,0.31,
4.977,-2.62,5.36,4.10,0.89,-0.39,0.31,
4.978,-2.62,5.36,4.10,0.85,-0.32,0.31,
4.983,-2.16,5.33,1.67,0.85,-0.32,0.31,
5.014,-2.16,5.33,1.67,0.81,-0.23,0.30,
5.015,-2.16,5.33,1.67,0.76,-0.15,0.30,
5.015,-2.16,5.33,1.67,0.70,-0.06,0.29,
5.015,-2.16,5.33,1.67,0.63,0.02,0.28,
5.016,-2.16,5.33,1.67,0.57,0.09,0.28,
5.016,-1.61,5.06,-0.31,0.57,0.09,0.28,
5.017,-1.61,5.06,-0.31,0.50,0.16,0.27,
