
time,ax,ay,az,wx,wy,wz,
0.002,0.18,-0.43,0.21,-0.11,-0.25,-0.77,
0.003,0.18,-0.43,0.21,-0.12,-0.18,-0.78,
0.003,0.18,-0.43,0.21,-0.13,-0.11,-0.81,
0.003,0.18,-0.43,0.21,-0.14,-0.04,-0.83,
0.003,0.18,-0.43,0.21,-0.15,0.03,-0.86,
0.004,0.18,-0.43,0.21,-0.16,0.11,-0.89,
0.004,0.55,-0.55,-0.56,-0.16,0.11,-0.89,
0.005,0.55,-0.55,-0.56,-0.17,0.18,-0.92,
0.006,0.55,-0.55,-0.56,-0.18,0.25,-0.96,
0.008,0.55,-0.55,-0.56,-0.19,0.32,-0.99,
0.01,0.55,-0.55,-0.56,-0.20,0.39,-1.02,
0.022,0.55,-0.55,-0.56,-0.20,0.46,-1.06,
0.022,0.64,-0.60,-0.99,-0.20,0.46,-1.06,
0.022,0.64,-0.60,-0.99,-0.21,0.53,-1.10,
0.023,0.64,-0.60,-0.99,-0.21,0.61,-1.13,
0.023,0.64,-0.60,-0.99,-0.21,0.68,-1.16,
0.023,0.64,-0.60,-0.99,-0.22,0.75,-1.20,
0.023,0.64,-0.60,-0.99,-0.21,0.82,-1.23,
0.025,0.50,-0.45,-0.78,-0.21,0.82,-1.23,
0.025,0.50,-0.45,-0.78,-0.21,0.88,-1.26,
0.026,0.50,-0.45,-0.78,-0.20,0.94,-1.28,
0.029,0.50,-0.45,-0.78,-0.19,0.98,-1.30,
0.03,0.50,-0.45,-0.78,-0.18,1.01,-1.31,
0.032,0.50,-0.45,-0.78,-0.17,1.03,-1.32,
0.034,-0.18,-0.17,-0.13,-0.17,1.03,-1.32,
0.035,-0.18,-0.17,-0.13,-0.16,1.03,-1.33,
0.036,-0.18,-0.17,-0.13,-0.14,1.03,-1.33,
0.039,-0.18,-0.17,-0.13,-0.13,1.02,-1.33,
0.04,-0.18,-0.17,-0.13,-0.11,1.00,-1.32,
0.043,-0.18,-0.17,-0.13,-0.08,0.97,-1.31,
0.065,-1.09,-0.07,0.60,-0.08,0.97,-1.31,
0.066,-1.09,-0.07,0.60,-0.06,0.94,-1.30,
0.066,-1.09,-0.07,0.60,-0.03,0.91,-1.29,
0.066,-1.09,-0.07,0.60,-0.01,0.88,-1.28,
0.066,-1.09,-0.07,0.60,0.02,0.84,-1.26,
0.066,-1.09,-0.07,0.60,0.05,0.81,-1.25,
0.067,-1.81,-0.05,1.05,0.05,0.81,-1.25,
0.067,-1.81,-0.05,1.05,0.07,0.77,-1.23,
0.067,-1.81,-0.05,1.05,0.09,0.73,-1.22,
0.067,-1.81,-0.05,1.05,0.12,0.70,-1.19,
0.067,-1.81,-0.05,1.05,0.14,0.67,-1.18,
0.068,-1.81,-0.05,1.05,0.15,0.64,-1.16,
0.068,-2.10,-0.01,0.90,0.15,0.64,-1.16,
0.068,-2.10,-0.01,0.90,0.17,0.62,-1.14,
0.068,-2.10,-0.01,0.90,0.18,0.61,-1.13,
0.068,-2.10,-0.01,0.90,0.19,0.60,-1.11,
0.071,-2.10,-0.01,0.90,0.19,0.61,-1.10,
0.096,-2.10,-0.01,0.90,0.20,0.62,-1.09,
0.097,-2.04,0.04,0.23,0.20,0.62,-1.09,
0.097,-2.04,0.04,0.23,0.20,0.63,-1.08,
0.097,-2.04,0.04,0.23,0.20,0.65,-1.07,
0.097,-2.04,0.04,0.23,0.20,0.67,-1.07,
0.098,-2.04,0.04,0.23,0.19,0.68,-1.07,
0.098,-2.04,0.04,0.23,0.18,0.71,-1.07,
0.098,-1.48,0.11,-0.63,0.18,0.71,-1.07,
0.098,-1.48,0.11,-0.63,0.17,0.73,-1.07,
0.098,-1.48,0.11,-0.63,0.16,0.76,-1.07,
0.099,-1.48,0.11,-0.63,0.14,0.79,-1.08,
0.099,-1.48,0.11,-0.63,0.13,0.82,-1.08,
0.099,-1.48,0.11,-0.63,0.12,0.86,-1.09,
0.099,-0.90,0.19,-1.27,0.12,0.86,-1.09,
0.099,-0.90,0.19,-1.27,0.10,0.90,-1.10,
0.1,-0.90,0.19,-1.27,0.08,0.95,-1.11,
0.102,-0.90,0.19,-1.27,0.06,1.00,-1.11,
0.103,-0.90,0.19,-1.27,0.05,1.06,-1.12,
0.103,-0.90,0.19,-1.27,0.03,1.11,-1.12,
0.105,-0.85,0.32,-1.56,0.03,1.11,-1.12,
0.105,-0.85,0.32,-1.56,0.01,1.17,-1.12,
0.106,-0.85,0.32,-1.56,-0.01,1.23,-1.13,
0.117,-0.85,0.32,-1.56,-0.03,1.28,-1.13,
0.118,-0.85,0.32,-1.56,-0.06,1.33,-1.12,
0.118,-0.85,0.32,-1.56,-0.08,1.37,-1.12,
0.118,-1.07,0.41,-1.65,-0.08,1.37,-1.12,
0.119,-1.07,0.41,-1.65,-0.11,1.40,-1.12,
0.119,-1.07,0.41,-1.65,-0.13,1.43,-1.12,
0.119,-1.07,0.41,-1.65,-0.16,1.45,-1.11,
0.124,-1.07,0.41,-1.65,-0.18,1.47,-1.11,
0.125,-1.07,0.41,-1.65,-0.21,1.49,-1.11,
0.125,-1.22,0.25,-1.53,-0.21,1.49,-1.11,
0.126,-1.22,0.25,-1.53,-0.23,1.50,-1.11,
0.126,-1.22,0.25,-1.53,-0.25,1.51,-1.11,
0.128,-1.22,0.25,-1.53,-0.26,1.52,-1.10,
0.13,-1.22,0.25,-1.53,-0.28,1.53,-1.11,
0.132,-1.22,0.25,-1.53,-0.30,1.53,-1.11,
0.134,-1.25,-0.06,-1.14,-0.30,1.53,-1.11,
0.134,-1.25,-0.06,-1.14,-0.31,1.54,-1.11,
0.136,-1.25,-0.06,-1.14,-0.32,1.53,-1.11,
0.138,-1.25,-0.06,-1.14,-0.33,1.52,-1.11,
0.143,-1.25,-0.06,-1.14,-0.34,1.51,-1.10,
0.149,-1.25,-0.06,-1.14,-0.35,1.49,-1.10,
0.149,-1.30,-0.19,-0.60,-0.35,1.49,-1.10,
0.149,-1.30,-0.19,-0.60,-0.36,1.46,-1.10,
0.15,-1.30,-0.19,-0.60,-0.36,1.43,-1.09,
0.15,-1.30,-0.19,-0.60,-0.37,1.38,-1.09,
0.15,-1.30,-0.19,-0.60,-0.37,1.36,-1.09,
0.152,-1.30,-0.19,-0.60,-0.37,1.31,-1.08,
0.154,-1.38,-0.23,0.14,-0.37,1.31,-1.08,
0.154,-1.38,-0.23,0.14,-0.37,1.26,-1.08,
0.156,-1.38,-0.23,0.14,-0.36,1.21,-1.08,
0.158,-1.38,-0.23,0.14,-0.35,1.15,-1.08,
0.16,-1.38,-0.23,0.14,-0.35,1.09,-1.08,
0.176,-1.38,-0.23,0.14,-0.34,1.02,-1.08,
0.177,-1.33,-0.32,0.76,-0.34,1.02,-1.08,
0.178,-1.33,-0.32,0.76,-0.33,0.96,-1.08,
0.178,-1.33,-0.32,0.76,-0.32,0.89,-1.08,
0.178,-1.33,-0.32,0.76,-0.31,0.82,-1.08,
0.178,-1.33,-0.32,0.76,-0.31,0.74,-1.08,
0.179,-1.33,-0.32,0.76,-0.30,0.67,-1.08,
0.179,-1.59,-0.36,1.05,-0.30,0.67,-1.08,
0.179,-1.59,-0.36,1.05,-0.30,0.59,-1.07,
0.179,-1.59,-0.36,1.05,-0.29,0.51,-1.06,
0.179,-1.59,-0.36,1.05,-0.29,0.44,-1.05,
0.181,-1.59,-0.36,1.05,-0.28,0.36,-1.04,
0.182,-1.59,-0.36,1.05,-0.28,0.29,-1.02,
0.184,-2.03,-0.19,1.18,-0.28,0.29,-1.02,
0.184,-2.03,-0.19,1.18,-0.28,0.22,-1.00,
0.186,-2.03,-0.19,1.18,-0.28,0.14,-0.97,
0.189,-2.03,-0.19,1.18,-0.28,0.07,-0.95,
0.19,-2.03,-0.19,1.18,-0.29,0.00,-0.92,
0.194,-2.03,-0.19,1.18,-0.29,-0.07,-0.90,
0.208,-2.03,-0.02,1.09,-0.29,-0.07,-0.90,
0.208,-2.03,-0.02,1.09,-0.30,-0.14,-0.87,
0.209,-2.03,-0.02,1.09,-0.31,-0.20,-0.84,
0.209,-2.03,-0.02,1.09,-0.32,-0.25,-0.82,
0.209,-2.03,-0.02,1.09,-0.33,-0.30,-0.79,
0.209,-2.03,-0.02,1.09,-0.34,-0.34,-0.77,
0.209,-1.49,-0.07,0.49,-0.34,-0.34,-0.77,
0.209,-1.49,-0.07,0.49,-0.36,-0.36,-0.74,
0.21,-1.49,-0.07,0.49,-0.37,-0.38,-0.72,
0.21,-1.49,-0.07,0.49,-0.38,-0.38,-0.70,
0.21,-1.49,-0.07,0.49,-0.39,-0.36,-0.68,
0.214,-1.49,-0.07,0.49,-0.40,-0.34,-0.67,
0.214,-0.75,-0.23,-0.28,-0.40,-0.34,-0.67,
0.214,-0.75,-0.23,-0.28,-0.41,-0.30,-0.66,
0.216,-0.75,-0.23,-0.28,-0.42,-0.25,-0.65,
0.218,-0.75,-0.23,-0.28,-0.42,-0.19,-0.65,
0.219,-0.75,-0.23,-0.28,-0.43,-0.12,-0.65,
0.221,-0.75,-0.23,-0.28,-0.43,-0.04,-0.65,
0.224,0.07,-0.35,-0.93,-0.43,-0.04,-0.65,
0.224,0.07,-0.35,-0.93,-0.43,0.04,-0.66,
0.226,0.07,-0.35,-0.93,-0.42,0.14,-0.66,
0.227,0.07,-0.35,-0.93,-0.42,0.24,-0.67,
0.229,0.07,-0.35,-0.93,-0.41,0.34,-0.68,
0.231,0.07,-0.35,-0.93,-0.40,0.45,-0.69,
0.234,0.51,-0.42,-1.23,-0.40,0.45,-0.69,
0.234,0.51,-0.42,-1.23,-0.39,0.56,-0.70,
0.235,0.51,-0.42,-1.23,-0.37,0.68,-0.71,
0.237,0.51,-0.42,-1.23,-0.35,0.79,-0.72,
0.239,0.51,-0.42,-1.23,-0.33,0.90,-0.73,
0.241,0.51,-0.42,-1.23,-0.31,1.02,-0.74,
0.245,0.34,-0.46,-0.96,-0.31,1.02,-0.74,
0.246,0.34,-0.46,-0.96,-0.28,1.13,-0.75,
0.246,0.34,-0.46,-0.96,-0.25,1.23,-0.75,
0.248,0.34,-0.46,-0.96,-0.22,1.31,-0.76,
0.25,0.34,-0.46,-0.96,-0.19,1.39,-0.76,
0.251,0.34,-0.46,-0.96,-0.16,1.45,-0.77,
0.254,0.02,-0.53,-0.31,-0.16,1.45,-0.77,
0.254,0.02,-0.53,-0.31,-0.12,1.49,-0.77,
0.256,0.02,-0.53,-0.31,-0.09,1.53,-0.77,
0.258,0.02,-0.53,-0.31,-0.06,1.55,-0.77,
0.261,0.02,-0.53,-0.31,-0.03,1.56,-0.77,
0.262,0.02,-0.53,-0.31,0.00,1.56,-0.77,
0.264,-0.34,-0.62,0.14,0.00,1.56,-0.77,
0.264,-0.34,-0.62,0.14,0.03,1.54,-0.77,
0.267,-0.34,-0.62,0.14,0.06,1.50,-0.76,
0.268,-0.34,-0.62,0.14,0.08,1.46,-0.76,
0.27,-0.34,-0.62,0.14,0.10,1.40,-0.76,
0.271,-0.34,-0.62,0.14,0.11,1.33,-0.76,
0.274,-0.66,-0.69,0.41,0.11,1.33,-0.76,
0.293,-0.66,-0.69,0.41,0.12,1.26,-0.75,
0.293,-0.66,-0.69,0.41,0.13,1.18,-0.75,
0.293,-0.66,-0.69,0.41,0.13,1.11,-0.74,
0.293,-0.66,-0.69,0.41,0.14,1.04,-0.73,
0.293,-0.66,-0.69,0.41,0.14,0.98,-0.73,
0.293,-0.92,-0.68,0.58,0.14,0.98,-0.73,
0.294,-0.92,-0.68,0.58,0.15,0.93,-0.72,
0.294,-0.92,-0.68,0.58,0.16,0.88,-0.71,
0.294,-0.92,-0.68,0.58,0.17,0.83,-0.71,
0.294,-0.92,-0.68,0.58,0.18,0.79,-0.70,
0.294,-0.92,-0.68,0.58,0.19,0.76,-0.70,
0.295,-0.94,-0.77,0.96,0.19,0.76,-0.70,
0.295,-0.94,-0.77,0.96,0.20,0.73,-0.70,
0.306,-0.94,-0.77,0.96,0.22,0.69,-0.70,
0.307,-0.94,-0.77,0.96,0.23,0.66,-0.70,
0.307,-0.94,-0.77,0.96,0.25,0.63,-0.70,
0.307,-0.94,-0.77,0.96,0.26,0.61,-0.70,
0.307,-0.37,-0.81,1.05,0.26,0.61,-0.70,
0.307,-0.37,-0.81,1.05,0.26,0.58,-0.71,
0.307,-0.37,-0.81,1.05,0.27,0.55,-0.72,
0.308,-0.37,-0.81,1.05,0.28,0.52,-0.73,
0.311,-0.37,-0.81,1.05,0.28,0.50,-0.74,
0.312,-0.37,-0.81,1.05,0.28,0.47,-0.74,
0.314,0.10,-0.75,0.71,0.28,0.47,-0.74,
0.315,0.10,-0.75,0.71,0.29,0.45,-0.75,
0.316,0.10,-0.75,0.71,0.28,0.42,-0.76,
0.317,0.10,-0.75,0.71,0.28,0.39,-0.77,
0.32,0.10,-0.75,0.71,0.28,0.37,-0.78,
0.322,0.10,-0.75,0.71,0.28,0.35,-0.78,
0.324,0.20,-0.68,0.26,0.28,0.35,-0.78,
0.324,0.20,-0.68,0.26,0.27,0.33,-0.79,
0.337,0.20,-0.68,0.26,0.27,0.32,-0.79,
0.338,0.20,-0.68,0.26,0.27,0.32,-0.79,
0.338,0.20,-0.68,0.26,0.27,0.32,-0.80,
0.338,0.20,-0.68,0.26,0.27,0.33,-0.79,
0.338,-0.15,-0.61,-0.11,0.27,0.33,-0.79,
0.339,-0.15,-0.61,-0.11,0.28,0.34,-0.79,
0.339,-0.15,-0.61,-0.11,0.28,0.36,-0.78,
0.339,-0.15,-0.61,-0.11,0.29,0.38,-0.77,
0.34,-0.15,-0.61,-0.11,0.29,0.42,-0.76,
0.341,-0.15,-0.61,-0.11,0.30,0.45,-0.74,
0.344,-0.61,-0.33,-0.55,0.30,0.45,-0.74,
0.344,-0.61,-0.33,-0.55,0.31,0.50,-0.73,
0.346,-0.61,-0.33,-0.55,0.31,0.55,-0.71,
0.347,-0.61,-0.33,-0.55,0.32,0.61,-0.69,
0.35,-0.61,-0.33,-0.55,0.32,0.68,-0.68,
0.356,-0.61,-0.33,-0.55,0.32,0.76,-0.66,
0.356,-0.78,-0.16,-1.48,0.32,0.76,-0.66,
0.357,-0.78,-0.16,-1.48,0.33,0.84,-0.64,
0.357,-0.78,-0.16,-1.48,0.33,0.95,-0.63,
0.358,-0.78,-0.16,-1.48,0.33,1.10,-0.62,
0.376,-0.78,-0.16,-1.48,0.32,1.28,-0.60,
0.377,-0.78,-0.16,-1.48,0.32,1.42,-0.59,
0.377,-0.82,-0.34,-2.85,0.32,1.42,-0.59,
0.377,-0.82,-0.34,-2.85,0.31,1.52,-0.58,
0.378,-0.82,-0.34,-2.85,0.30,1.60,-0.57,
0.378,-0.82,-0.34,-2.85,0.28,1.66,-0.56,
0.378,-0.82,-0.34,-2.85,0.25,1.70,-0.55,
0.379,-0.82,-0.34,-2.85,0.22,1.71,-0.55,
0.379,-0.55,-0.44,-2.82,0.22,1.71,-0.55,
0.379,-0.55,-0.44,-2.82,0.19,1.71,-0.54,
0.379,-0.55,-0.44,-2.82,0.15,1.69,-0.54,
0.38,-0.55,-0.44,-2.82,0.12,1.67,-0.54,
0.382,-0.55,-0.44,-2.82,0.08,1.64,-0.54,
0.382,-0.55,-0.44,-2.82,0.04,1.62,-0.55,
0.388,-0.17,-0.58,-1.97,0.04,1.62,-0.55,
0.389,-0.17,-0.58,-1.97,0.01,1.60,-0.55,
0.389,-0.17,-0.58,-1.97,-0.02,1.57,-0.57,
0.389,-0.17,-0.58,-1.97,-0.04,1.54,-0.58,
0.391,-0.17,-0.58,-1.97,-0.06,1.51,-0.59,
0.392,-0.17,-0.58,-1.97,-0.08,1.48,-0.60,
0.394,-0.29,-0.78,-1.53,-0.08,1.48,-0.60,
0.394,-0.29,-0.78,-1.53,-0.09,1.44,-0.61,
0.396,-0.29,-0.78,-1.53,-0.10,1.40,-0.62,
0.398,-0.29,-0.78,-1.53,-0.11,1.35,-0.63,
0.4,-0.29,-0.78,-1.53,-0.12,1.29,-0.65,
0.401,-0.29,-0.78,-1.53,-0.13,1.24,-0.66,
0.404,-0.20,-0.94,-1.49,-0.13,1.24,-0.66,
0.404,-0.20,-0.94,-1.49,-0.13,1.18,-0.68,
0.406,-0.20,-0.94,-1.49,-0.15,1.13,-0.69,
0.408,-0.20,-0.94,-1.49,-0.15,1.08,-0.71,
0.41,-0.20,-0.94,-1.49,-0.17,1.04,-0.73,
0.413,-0.20,-0.94,-1.49,-0.18,0.99,-0.76,
0.414,-0.03,-1.18,-1.72,-0.18,0.99,-0.76,
0.415,-0.03,-1.18,-1.72,-0.19,0.95,-0.79,
0.416,-0.03,-1.18,-1.72,-0.20,0.92,-0.82,
0.418,-0.03,-1.18,-1.72,-0.22,0.88,-0.85,
0.42,-0.03,-1.18,-1.72,-0.24,0.85,-0.89,
0.422,-0.03,-1.18,-1.72,-0.25,0.82,-0.93,
0.424,-0.01,-1.23,-2.21,-0.25,0.82,-0.93,
0.425,-0.01,-1.23,-2.21,-0.27,0.78,-0.97,
0.431,-0.01,-1.23,-2.21,-0.33,0.68,-1.09,
0.432,-0.01,-1.23,-2.21,-0.33,0.68,-1.09,
0.433,-0.01,-1.23,-2.21,-0.35,0.65,-1.13,
0.435,-0.01,-1.23,-2.21,-0.35,0.65,-1.13,
0.436,-0.01,-1.23,-2.21,-0.37,0.62,-1.17,
0.436,-0.40,-0.98,-2.80,-0.37,0.62,-1.17,
0.437,-0.40,-0.98,-2.80,-0.39,0.59,-1.19,
0.438,-0.40,-0.98,-2.80,-0.41,0.56,-1.22,
0.44,-0.40,-0.98,-2.80,-0.44,0.54,-1.24,
0.459,-0.40,-0.98,-2.80,-0.46,0.52,-1.25,
0.459,-1.06,-0.37,-3.02,-0.46,0.52,-1.25,
0.46,-1.06,-0.37,-3.02,-0.48,0.51,-1.26,
0.46,-1.06,-0.37,-3.02,-0.52,0.52,-1.27,
0.461,-1.06,-0.37,-3.02,-0.55,0.55,-1.28,
0.461,-1.06,-0.37,-3.02,-0.56,0.56,-1.28,
0.461,-1.06,-0.37,-3.02,-0.59,0.58,-1.28,
0.461,-1.85,0.10,-3.06,-0.59,0.58,-1.28,
0.462,-1.85,0.10,-3.06,-0.62,0.60,-1.28,
0.462,-1.85,0.10,-3.06,-0.65,0.62,-1.27,
0.462,-1.85,0.10,-3.06,-0.68,0.64,-1.27,
0.462,-1.85,0.10,-3.06,-0.71,0.65,-1.27,
0.463,-1.85,0.10,-3.06,-0.75,0.66,-1.27,
0.474,-2.00,0.18,-3.06,-0.75,0.66,-1.27,
0.474,-2.00,0.18,-3.06,-0.78,0.67,-1.28,
0.475,-2.00,0.18,-3.06,-0.81,0.68,-1.28,
0.475,-2.00,0.18,-3.06,-0.84,0.69,-1.30,
0.475,-2.00,0.18,-3.06,-0.88,0.70,-1.31,
0.475,-2.00,0.18,-3.06,-0.90,0.71,-1.33,
0.476,-1.74,-0.05,-2.81,-0.90,0.71,-1.33,
0.476,-1.74,-0.05,-2.81,-0.93,0.72,-1.35,
0.51,-1.74,-0.05,-2.81,-0.95,0.72,-1.37,
0.51,-1.74,-0.05,-2.81,-0.97,0.73,-1.40,
0.51,-1.74,-0.05,-2.81,-0.99,0.73,-1.43,
0.511,-1.74,-0.05,-2.81,-1.01,0.73,-1.47,
0.511,-1.13,-0.39,-2.42,-1.01,0.73,-1.47,
0.511,-1.13,-0.39,-2.42,-1.02,0.73,-1.51,
0.511,-1.13,-0.39,-2.42,-1.04,0.72,-1.55,
0.511,-1.13,-0.39,-2.42,-1.05,0.70,-1.59,
0.511,-1.13,-0.39,-2.42,-1.06,0.68,-1.63,
0.512,-1.13,-0.39,-2.42,-1.06,0.65,-1.68,
0.512,-0.78,-0.64,-2.15,-1.06,0.65,-1.68,
0.512,-0.78,-0.64,-2.15,-1.07,0.63,-1.73,
0.512,-0.78,-0.64,-2.15,-1.07,0.60,-1.78,
0.512,-0.78,-0.64,-2.15,-1.08,0.56,-1.83,
0.513,-0.78,-0.64,-2.15,-1.09,0.53,-1.88,
0.513,-0.78,-0.64,-2.15,-1.09,0.50,-1.93,
0.513,-0.56,-0.79,-2.14,-1.09,0.50,-1.93,
0.513,-0.56,-0.79,-2.14,-1.10,0.47,-1.97,
0.513,-0.56,-0.79,-2.14,-1.10,0.44,-2.02,
0.513,-0.56,-0.79,-2.14,-1.11,0.41,-2.06,
0.514,-0.56,-0.79,-2.14,-1.11,0.38,-2.10,
0.514,-0.56,-0.79,-2.14,-1.12,0.36,-2.13,
0.521,-0.87,-0.68,-2.44,-1.12,0.36,-2.13,
0.521,-0.87,-0.68,-2.44,-1.12,0.34,-2.17,
0.521,-0.87,-0.68,-2.44,-1.13,0.31,-2.20,
0.522,-0.87,-0.68,-2.44,-1.13,0.29,-2.23,
0.522,-0.87,-0.68,-2.44,-1.14,0.27,-2.25,
0.522,-0.87,-0.68,-2.44,-1.14,0.26,-2.28,
0.524,-1.12,-0.43,-2.74,-1.14,0.26,-2.28,
0.524,-1.12,-0.43,-2.74,-1.15,0.24,-2.30,
0.534,-1.12,-0.43,-2.74,-1.15,0.22,-2.32,
0.535,-1.12,-0.43,-2.74,-1.16,0.21,-2.35,
0.535,-1.12,-0.43,-2.74,-1.16,0.21,-2.37,
0.535,-1.12,-0.43,-2.74,-1.16,0.20,-2.40,
0.535,-1.27,-0.47,-2.77,-1.16,0.20,-2.40,
0.535,-1.27,-0.47,-2.77,-1.16,0.21,-2.43,
0.536,-1.27,-0.47,-2.77,-1.16,0.21,-2.47,
0.537,-1.27,-0.47,-2.77,-1.16,0.21,-2.51,
0.54,-1.27,-0.47,-2.77,-1.16,0.22,-2.57,
0.542,-1.27,-0.47,-2.77,-1.16,0.22,-2.59,
0.544,-1.15,-0.67,-2.65,-1.16,0.22,-2.59,
0.544,-1.15,-0.67,-2.65,-1.16,0.23,-2.64,
0.546,-1.15,-0.67,-2.65,-1.16,0.24,-2.69,
0.547,-1.15,-0.67,-2.65,-1.15,0.26,-2.74,
0.55,-1.15,-0.67,-2.65,-1.14,0.27,-2.79,
0.551,-1.15,-0.67,-2.65,-1.14,0.28,-2.84,
0.554,-0.73,-0.76,-2.55,-1.14,0.28,-2.84,
0.554,-0.73,-0.76,-2.55,-1.13,0.30,-2.89,
0.556,-0.73,-0.76,-2.55,-1.12,0.31,-2.94,
0.558,-0.73,-0.76,-2.55,-1.11,0.32,-2.99,
0.56,-0.73,-0.76,-2.55,-1.10,0.33,-3.04,
0.562,-0.73,-0.76,-2.55,-1.09,0.35,-3.08,
0.564,-0.63,-0.61,-2.42,-1.09,0.35,-3.08,
0.565,-0.63,-0.61,-2.42,-1.07,0.36,-3.12,
0.566,-0.63,-0.61,-2.42,-1.07,0.37,-3.15,
0.568,-0.63,-0.61,-2.42,-1.05,0.38,-3.18,
0.569,-0.63,-0.61,-2.42,-1.04,0.38,-3.20,
0.571,-0.63,-0.61,-2.42,-1.04,0.38,-3.21,
0.574,-1.13,-0.49,-2.20,-1.04,0.38,-3.21,
0.574,-1.13,-0.49,-2.20,-1.03,0.38,-3.22,
0.584,-1.13,-0.49,-2.20,-1.03,0.38,-3.22,
0.585,-1.13,-0.49,-2.20,-1.03,0.37,-3.21,
0.585,-1.13,-0.49,-2.20,-1.03,0.37,-3.21,
0.585,-1.13,-0.49,-2.20,-1.04,0.37,-3.20,
0.585,-1.34,-0.73,-1.82,-1.04,0.37,-3.20,
0.585,-1.34,-0.73,-1.82,-1.05,0.37,-3.19,
0.586,-1.34,-0.73,-1.82,-1.06,0.38,-3.18,
0.588,-1.34,-0.73,-1.82,-1.08,0.39,-3.17,
0.591,-1.34,-0.73,-1.82,-1.10,0.41,-3.16,
0.612,-1.34,-0.73,-1.82,-1.13,0.44,-3.14,
0.613,-1.57,-1.24,-1.63,-1.13,0.44,-3.14,
0.614,-1.57,-1.24,-1.63,-1.16,0.46,-3.13,
0.614,-1.57,-1.24,-1.63,-1.19,0.48,-3.12,
0.614,-1.57,-1.24,-1.63,-1.22,0.50,-3.11,
0.615,-1.57,-1.24,-1.63,-1.26,0.51,-3.11,
0.615,-1.57,-1.24,-1.63,-1.30,0.52,-3.11,
0.615,-1.53,-1.58,-1.68,-1.30,0.52,-3.11,
0.616,-1.53,-1.58,-1.68,-1.34,0.52,-3.11,
0.616,-1.53,-1.58,-1.68,-1.38,0.51,-3.12,
0.639,-1.53,-1.58,-1.68,-1.43,0.51,-3.13,
0.639,-1.53,-1.58,-1.68,-1.47,0.50,-3.15,
0.64,-1.53,-1.58,-1.68,-1.51,0.50,-3.16,
0.64,-1.36,-1.87,-1.63,-1.51,0.50,-3.16,
0.64,-1.36,-1.87,-1.63,-1.55,0.50,-3.18,
0.641,-1.36,-1.87,-1.63,-1.58,0.51,-3.20,
0.641,-1.36,-1.87,-1.63,-1.61,0.52,-3.22,
0.642,-1.36,-1.87,-1.63,-1.64,0.53,-3.24,
0.642,-1.36,-1.87,-1.63,-1.67,0.54,-3.26,
0.642,-1.57,-1.79,-1.29,-1.67,0.54,-3.26,
0.643,-1.57,-1.79,-1.29,-1.69,0.56,-3.28,
0.643,-1.57,-1.79,-1.29,-1.71,0.58,-3.31,
0.644,-1.57,-1.79,-1.29,-1.73,0.61,-3.33,
0.644,-1.57,-1.79,-1.29,-1.74,0.64,-3.35,
0.645,-1.57,-1.79,-1.29,-1.76,0.67,-3.38,
0.645,-1.79,-1.82,-0.87,-1.76,0.67,-3.38,
0.645,-1.79,-1.82,-0.87,-1.77,0.70,-3.40,
0.646,-1.79,-1.82,-0.87,-1.78,0.73,-3.42,
0.646,-1.79,-1.82,-0.87,-1.78,0.77,-3.43,
0.647,-1.79,-1.82,-0.87,-1.79,0.81,-3.44,
0.647,-1.79,-1.82,-0.87,-1.80,0.84,-3.45,
0.647,-1.81,-1.64,-0.48,-1.80,0.84,-3.45,
0.648,-1.81,-1.64,-0.48,-1.80,0.88,-3.46,
0.648,-1.81,-1.64,-0.48,-1.80,0.92,-3.47,
0.649,-1.81,-1.64,-0.48,-1.80,0.96,-3.47,
0.656,-1.81,-1.64,-0.48,-1.79,1.00,-3.47,
0.656,-1.81,-1.64,-0.48,-1.79,1.05,-3.48,
0.656,-2.26,-1.29,0.23,-1.79,1.05,-3.48,
0.657,-2.26,-1.29,0.23,-1.79,1.08,-3.48,
0.657,-2.26,-1.29,0.23,-1.78,1.12,-3.48,
0.667,-2.26,-1.29,0.23,-1.78,1.15,-3.48,
0.667,-2.26,-1.29,0.23,-1.78,1.18,-3.49,
0.668,-2.26,-1.29,0.23,-1.78,1.21,-3.49,
0.668,-1.83,-0.96,0.94,-1.78,1.21,-3.49,
0.668,-1.83,-0.96,0.94,-1.77,1.23,-3.49,
0.668,-1.83,-0.96,0.94,-1.77,1.25,-3.50,
0.669,-1.83,-0.96,0.94,-1.77,1.26,-3.51,
0.67,-1.83,-0.96,0.94,-1.77,1.27,-3.52,
0.671,-1.83,-0.96,0.94,-1.76,1.29,-3.53,
0.674,-0.75,-1.11,1.55,-1.76,1.29,-3.53,
0.674,-0.75,-1.11,1.55,-1.76,1.30,-3.54,
0.676,-0.75,-1.11,1.55,-1.75,1.31,-3.55,
0.678,-0.75,-1.11,1.55,-1.75,1.33,-3.57,
0.679,-0.75,-1.11,1.55,-1.74,1.34,-3.58,
0.682,-0.75,-1.11,1.55,-1.74,1.35,-3.59,
0.684,-0.37,-1.25,2.26,-1.74,1.35,-3.59,
0.684,-0.37,-1.25,2.26,-1.74,1.36,-3.60,
0.686,-0.37,-1.25,2.26,-1.74,1.36,-3.61,
0.688,-0.37,-1.25,2.26,-1.74,1.36,-3.62,
0.689,-0.37,-1.25,2.26,-1.75,1.35,-3.63,
0.692,-0.37,-1.25,2.26,-1.75,1.34,-3.64,
0.695,-0.65,-1.46,2.50,-1.75,1.34,-3.64,
0.695,-0.65,-1.46,2.50,-1.76,1.33,-3.65,
0.696,-0.65,-1.46,2.50,-1.77,1.32,-3.66,
0.698,-0.65,-1.46,2.50,-1.78,1.31,-3.67,
0.7,-0.65,-1.46,2.50,-1.79,1.30,-3.68,
0.702,-0.65,-1.46,2.50,-1.80,1.30,-3.69,
0.704,-0.69,-1.42,2.74,-1.80,1.30,-3.69,
0.705,-0.69,-1.42,2.74,-1.81,1.29,-3.71,
0.707,-0.69,-1.42,2.74,-1.82,1.29,-3.72,
0.72,-0.69,-1.42,2.74,-1.82,1.28,-3.73,
0.72,-0.69,-1.42,2.74,-1.82,1.27,-3.74,
0.72,-0.69,-1.42,2.74,-1.83,1.26,-3.75,
0.72,-0.64,-1.11,3.41,-1.83,1.26,-3.75,
0.721,-0.64,-1.11,3.41,-1.82,1.24,-3.76,
0.721,-0.64,-1.11,3.41,-1.82,1.21,-3.76,
0.721,-0.64,-1.11,3.41,-1.81,1.18,-3.76,
0.721,-0.64,-1.11,3.41,-1.80,1.14,-3.76,
0.723,-0.64,-1.11,3.41,-1.80,1.10,-3.75,
0.758,-0.35,-0.79,4.24,-1.80,1.10,-3.75,
0.759,-0.35,-0.79,4.24,-1.78,1.05,-3.75,
0.759,-0.35,-0.79,4.24,-1.77,1.00,-3.74,
0.759,-0.35,-0.79,4.24,-1.76,0.95,-3.73,
0.759,-0.35,-0.79,4.24,-1.74,0.90,-3.72,
0.759,-0.35,-0.79,4.24,-1.73,0.85,-3.71,
0.76,-0.43,-0.21,4.72,-1.73,0.85,-3.71,
0.76,-0.43,-0.21,4.72,-1.71,0.80,-3.69,
0.76,-0.43,-0.21,4.72,-1.69,0.76,-3.67,
0.76,-0.43,-0.21,4.72,-1.68,0.72,-3.64,
0.76,-0.43,-0.21,4.72,-1.67,0.68,-3.60,
0.761,-0.43,-0.21,4.72,-1.66,0.65,-3.56,
0.761,-1.01,0.73,4.73,-1.66,0.65,-3.56,
0.761,-1.01,0.73,4.73,-1.65,0.63,-3.52,
0.761,-1.01,0.73,4.73,-1.64,0.61,-3.46,
0.761,-1.01,0.73,4.73,-1.63,0.60,-3.41,
0.762,-1.01,0.73,4.73,-1.62,0.59,-3.35,
0.762,-1.01,0.73,4.73,-1.62,0.59,-3.28,
0.762,-1.72,1.77,4.37,-1.62,0.59,-3.28,
0.762,-1.72,1.77,4.37,-1.62,0.59,-3.21,
0.762,-1.72,1.77,4.37,-1.61,0.60,-3.14,
0.763,-1.72,1.77,4.37,-1.61,0.60,-3.07,
0.763,-1.72,1.77,4.37,-1.61,0.62,-3.00,
0.763,-1.72,1.77,4.37,-1.60,0.63,-2.92,
0.764,-1.98,2.14,4.20,-1.60,0.63,-2.92,
0.765,-1.98,2.14,4.20,-1.60,0.64,-2.86,
0.766,-1.98,2.14,4.20,-1.60,0.65,-2.80,
0.768,-1.98,2.14,4.20,-1.60,0.66,-2.75,
0.77,-1.98,2.14,4.20,-1.60,0.67,-2.70,
0.772,-1.98,2.14,4.20,-1.59,0.68,-2.66,
0.775,-1.62,2.06,4.28,-1.59,0.68,-2.66,
0.801,-1.62,2.06,4.28,-1.59,0.68,-2.63,
0.802,-1.62,2.06,4.28,-1.58,0.68,-2.60,
0.802,-1.62,2.06,4.28,-1.58,0.69,-2.58,
0.802,-1.62,2.06,4.28,-1.57,0.69,-2.56,
0.802,-1.62,2.06,4.28,-1.56,0.70,-2.54,
0.803,-1.05,1.89,4.59,-1.56,0.70,-2.54,
0.803,-1.05,1.89,4.59,-1.55,0.71,-2.52,
0.803,-1.05,1.89,4.59,-1.54,0.72,-2.50,
0.803,-1.05,1.89,4.59,-1.52,0.74,-2.49,
0.804,-1.05,1.89,4.59,-1.50,0.77,-2.47,
0.804,-1.05,1.89,4.59,-1.48,0.79,-2.46,
0.804,-0.68,1.98,4.99,-1.48,0.79,-2.46,
0.804,-0.68,1.98,4.99,-1.46,0.82,-2.44,
0.805,-0.68,1.98,4.99,-1.42,0.88,-2.42,
0.805,-0.68,1.98,4.99,-1.40,0.93,-2.40,
0.805,-0.68,1.98,4.99,-1.38,0.95,-2.40,
0.806,-0.68,1.98,4.99,-1.36,0.99,-2.38,
0.806,-0.58,1.90,5.20,-1.36,0.99,-2.38,
0.806,-0.58,1.90,5.20,-1.33,1.05,-2.36,
0.807,-0.58,1.90,5.20,-1.30,1.10,-2.34,
0.812,-0.58,1.90,5.20,-1.26,1.16,-2.32,
0.813,-0.58,1.90,5.20,-1.22,1.21,-2.30,
0.813,-0.58,1.90,5.20,-1.18,1.25,-2.28,
0.817,-0.80,1.60,5.74,-1.18,1.25,-2.28,
0.817,-0.80,1.60,5.74,-1.13,1.29,-2.26,
0.819,-0.80,1.60,5.74,-1.08,1.33,-2.25,
0.82,-0.80,1.60,5.74,-1.02,1.36,-2.24,
0.82,-0.80,1.60,5.74,-0.96,1.38,-2.23,
0.822,-0.80,1.60,5.74,-0.90,1.38,-2.23,
0.826,-0.84,0.79,6.98,-0.90,1.38,-2.23,
0.827,-0.84,0.79,6.98,-0.83,1.37,-2.23,
0.828,-0.84,0.79,6.98,-0.77,1.35,-2.23,
0.829,-0.84,0.79,6.98,-0.71,1.31,-2.23,
0.83,-0.84,0.79,6.98,-0.65,1.27,-2.24,
0.832,-0.84,0.79,6.98,-0.59,1.22,-2.26,
0.835,-0.82,-0.01,7.44,-0.59,1.22,-2.26,
0.835,-0.82,-0.01,7.44,-0.54,1.18,-2.28,
0.836,-0.82,-0.01,7.44,-0.48,1.13,-2.31,
0.838,-0.82,-0.01,7.44,-0.44,1.08,-2.35,
0.84,-0.82,-0.01,7.44,-0.39,1.04,-2.39,
0.842,-0.82,-0.01,7.44,-0.34,1.00,-2.43,
0.847,-0.42,-0.91,7.18,-0.34,1.00,-2.43,
0.848,-0.42,-0.91,7.18,-0.30,0.97,-2.48,
0.848,-0.42,-0.91,7.18,-0.26,0.94,-2.53,
0.85,-0.42,-0.91,7.18,-0.21,0.91,-2.59,
0.85,-0.42,-0.91,7.18,-0.16,0.88,-2.64,
0.852,-0.42,-0.91,7.18,-0.12,0.86,-2.70,
0.856,-0.33,-1.08,6.77,-0.12,0.86,-2.70,
0.856,-0.33,-1.08,6.77,-0.07,0.84,-2.73,
0.856,-0.33,-1.08,6.77,-0.02,0.81,-2.76,
0.864,-0.33,-1.08,6.77,0.03,0.78,-2.78,
0.865,-0.33,-1.08,6.77,0.08,0.75,-2.81,
0.865,-0.33,-1.08,6.77,0.14,0.73,-2.82,
0.865,-1.43,-0.32,6.47,0.14,0.73,-2.82,
0.865,-1.43,-0.32,6.47,0.19,0.70,-2.82,
0.866,-1.43,-0.32,6.47,0.23,0.66,-2.82,
0.868,-1.43,-0.32,6.47,0.28,0.61,-2.81,
0.871,-1.43,-0.32,6.47,0.33,0.57,-2.80,
0.872,-1.43,-0.32,6.47,0.37,0.52,-2.78,
0.888,-2.70,0.91,5.94,0.37,0.52,-2.78,
0.889,-2.70,0.91,5.94,0.41,0.47,-2.76,
0.889,-2.70,0.91,5.94,0.44,0.42,-2.73,
0.889,-2.70,0.91,5.94,0.46,0.38,-2.69,
0.889,-2.70,0.91,5.94,0.47,0.33,-2.65,
0.889,-2.70,0.91,5.94,0.48,0.29,-2.59,
0.889,-4.10,1.45,4.45,0.48,0.29,-2.59,
0.89,-4.10,1.45,4.45,0.48,0.26,-2.53,
0.89,-4.10,1.45,4.45,0.47,0.22,-2.46,
0.89,-4.10,1.45,4.45,0.46,0.17,-2.38,
0.89,-4.10,1.45,4.45,0.45,0.12,-2.31,
0.896,-4.10,1.45,4.45,0.43,0.06,-2.23,
0.897,-4.96,1.66,3.46,0.43,0.06,-2.23,
0.897,-4.96,1.66,3.46,0.42,-0.01,-2.16,
0.897,-4.96,1.66,3.46,0.40,-0.08,-2.09,
0.897,-4.96,1.66,3.46,0.39,-0.16,-2.02,
0.899,-4.96,1.66,3.46,0.38,-0.25,-1.95,
0.901,-4.96,1.66,3.46,0.37,-0.33,-1.88,
0.904,-5.19,1.78,3.22,0.37,-0.33,-1.88,
0.904,-5.19,1.78,3.22,0.36,-0.42,-1.81,
0.906,-5.19,1.78,3.22,0.35,-0.51,-1.74,
0.907,-5.19,1.78,3.22,0.35,-0.60,-1.67,
0.909,-5.19,1.78,3.22,0.35,-0.68,-1.61,
0.911,-5.19,1.78,3.22,0.34,-0.76,-1.54,
0.914,-5.73,1.65,2.98,0.34,-0.76,-1.54,
0.914,-5.73,1.65,2.98,0.33,-0.84,-1.47,
0.916,-5.73,1.65,2.98,0.33,-0.92,-1.40,
0.919,-5.73,1.65,2.98,0.32,-1.01,-1.34,
0.919,-5.73,1.65,2.98,0.30,-1.09,-1.28,
0.922,-5.73,1.65,2.98,0.29,-1.18,-1.22,
0.924,-5.18,0.75,2.35,0.29,-1.18,-1.22,
0.924,-5.18,0.75,2.35,0.27,-1.27,-1.17,
0.926,-5.18,0.75,2.35,0.25,-1.37,-1.13,
0.931,-5.18,0.75,2.35,0.23,-1.46,-1.09,
0.931,-5.18,0.75,2.35,0.21,-1.55,-1.06,
0.932,-5.18,0.75,2.35,0.19,-1.64,-1.02,
0.934,-3.90,0.02,2.01,0.19,-1.64,-1.02,
0.934,-3.90,0.02,2.01,0.18,-1.73,-1.00,
0.936,-3.90,0.02,2.01,0.16,-1.81,-0.97,
0.938,-3.90,0.02,2.01,0.15,-1.90,-0.96,
0.94,-3.90,0.02,2.01,0.14,-1.99,-0.95,
0.953,-3.90,0.02,2.01,0.13,-2.09,-0.95,
0.953,-2.14,-0.93,2.32,0.13,-2.09,-0.95,
0.954,-2.14,-0.93,2.32,0.13,-2.19,-0.96,
0.954,-2.14,-0.93,2.32,0.12,-2.28,-0.99,
0.954,-2.14,-0.93,2.32,0.13,-2.38,-1.02,
0.954,-2.14,-0.93,2.32,0.13,-2.47,-1.06,
0.954,-2.14,-0.93,2.32,0.14,-2.56,-1.11,
0.954,-0.48,-1.71,2.56,0.14,-2.56,-1.11,
0.955,-0.48,-1.71,2.56,0.15,-2.64,-1.16,
0.956,-0.48,-1.71,2.56,0.16,-2.71,-1.21,
0.959,-0.48,-1.71,2.56,0.18,-2.77,-1.27,
0.959,-0.48,-1.71,2.56,0.20,-2.81,-1.32,
0.961,-0.48,-1.71,2.56,0.22,-2.85,-1.37,
0.964,-0.00,-1.87,2.63,0.22,-2.85,-1.37,
0.964,-0.00,-1.87,2.63,0.25,-2.88,-1.41,
0.966,-0.00,-1.87,2.63,0.28,-2.90,-1.45,
0.967,-0.00,-1.87,2.63,0.31,-2.93,-1.49,
0.97,-0.00,-1.87,2.63,0.35,-2.94,-1.53,
0.971,-0.00,-1.87,2.63,0.38,-2.96,-1.57,
0.974,0.37,-1.76,2.58,0.38,-2.96,-1.57,
0.974,0.37,-1.76,2.58,0.41,-2.96,-1.60,
0.976,0.37,-1.76,2.58,0.45,-2.96,-1.63,
0.978,0.37,-1.76,2.58,0.48,-2.95,-1.66,
0.98,0.37,-1.76,2.58,0.50,-2.94,-1.69,
0.981,0.37,-1.76,2.58,0.52,-2.91,-1.71,
0.984,0.10,-1.04,1.50,0.52,-2.91,-1.71,
0.984,0.10,-1.04,1.50,0.53,-2.87,-1.73,
0.986,0.10,-1.04,1.50,0.54,-2.82,-1.75,
0.988,0.10,-1.04,1.50,0.55,-2.78,-1.75,
0.996,0.10,-1.04,1.50,0.56,-2.72,-1.76,
0.997,0.10,-1.04,1.50,0.56,-2.67,-1.76,
0.997,-0.62,-0.20,0.52,0.56,-2.67,-1.76,
0.997,-0.62,-0.20,0.52,0.56,-2.62,-1.76,
0.998,-0.62,-0.20,0.52,0.56,-2.56,-1.76,
1.0,-0.62,-0.20,0.52,0.56,-2.51,-1.75,
1.001,-0.62,-0.20,0.52,0.56,-2.46,-1.74,
1.002,-0.62,-0.20,0.52,0.56,-2.41,-1.73,
1.004,-1.02,0.27,-0.04,0.56,-2.41,-1.73,
1.005,-1.02,0.27,-0.04,0.56,-2.36,-1.71,
1.027,-1.02,0.27,-0.04,0.56,-2.32,-1.69,
1.027,-1.02,0.27,-0.04,0.57,-2.28,-1.67,
1.027,-1.02,0.27,-0.04,0.56,-2.26,-1.64,
1.028,-1.02,0.27,-0.04,0.56,-2.23,-1.61,
1.028,-1.53,0.84,-0.74,0.56,-2.23,-1.61,
1.028,-1.53,0.84,-0.74,0.56,-2.22,-1.58,
1.028,-1.53,0.84,-0.74,0.55,-2.21,-1.55,
1.028,-1.53,0.84,-0.74,0.54,-2.21,-1.51,
1.029,-1.53,0.84,-0.74,0.53,-2.20,-1.46,
1.029,-1.53,0.84,-0.74,0.51,-2.20,-1.41,
1.029,-1.96,1.52,-1.84,0.51,-2.20,-1.41,
1.029,-1.96,1.52,-1.84,0.49,-2.20,-1.36,
1.029,-1.96,1.52,-1.84,0.46,-2.19,-1.30,
1.03,-1.96,1.52,-1.84,0.43,-2.18,-1.23,
1.03,-1.96,1.52,-1.84,0.40,-2.18,-1.17,
1.032,-1.96,1.52,-1.84,0.36,-2.18,-1.10,
1.034,-2.52,2.16,-2.71,0.36,-2.18,-1.10,
1.034,-2.52,2.16,-2.71,0.33,-2.18,-1.03,
1.036,-2.52,2.16,-2.71,0.28,-2.19,-0.95,
1.037,-2.52,2.16,-2.71,0.24,-2.20,-0.88,
1.04,-2.52,2.16,-2.71,0.19,-2.21,-0.80,
1.042,-2.52,2.16,-2.71,0.14,-2.22,-0.73,
1.045,-2.57,2.73,-3.64,0.14,-2.22,-0.73,
1.045,-2.57,2.73,-3.64,0.08,-2.23,-0.65,
1.046,-2.57,2.73,-3.64,0.02,-2.24,-0.57,
1.048,-2.57,2.73,-3.64,-0.04,-2.24,-0.49,
1.05,-2.57,2.73,-3.64,-0.10,-2.22,-0.40,
1.053,-2.57,2.73,-3.64,-0.17,-2.20,-0.32,
1.054,-2.80,3.02,-4.56,-0.17,-2.20,-0.32,
1.054,-2.80,3.02,-4.56,-0.24,-2.17,-0.23,
1.056,-2.80,3.02,-4.56,-0.31,-2.12,-0.14,
1.058,-2.80,3.02,-4.56,-0.37,-2.08,-0.05,
1.066,-2.80,3.02,-4.56,-0.44,-2.04,0.04,
1.066,-2.80,3.02,-4.56,-0.49,-2.01,0.13,
1.067,-2.53,3.27,-4.77,-0.49,-2.01,0.13,
1.067,-2.53,3.27,-4.77,-0.55,-1.98,0.22,
1.068,-2.53,3.27,-4.77,-0.60,-1.96,0.30,
1.068,-2.53,3.27,-4.77,-0.64,-1.93,0.37,
1.07,-2.53,3.27,-4.77,-0.69,-1.91,0.45,
1.072,-2.53,3.27,-4.77,-0.73,-1.89,0.52,
1.076,-2.32,3.31,-4.12,-0.73,-1.89,0.52,
1.077,-2.32,3.31,-4.12,-0.77,-1.87,0.59,
1.078,-2.32,3.31,-4.12,-0.81,-1.85,0.66,
1.085,-2.32,3.31,-4.12,-0.85,-1.83,0.73,
1.085,-2.32,3.31,-4.12,-0.89,-1.81,0.79,
1.085,-2.32,3.31,-4.12,-0.92,-1.78,0.86,
1.087,-1.92,2.68,-3.64,-0.92,-1.78,0.86,
1.087,-1.92,2.68,-3.64,-0.96,-1.75,0.92,
1.087,-1.92,2.68,-3.64,-1.00,-1.72,0.99,
1.088,-1.92,2.68,-3.64,-1.04,-1.70,1.05,
1.09,-1.92,2.68,-3.64,-1.08,-1.68,1.10,
1.092,-1.92,2.68,-3.64,-1.11,-1.67,1.15,
1.094,-1.47,1.86,-3.10,-1.11,-1.67,1.15,
1.095,-1.47,1.86,-3.10,-1.15,-1.66,1.20,
1.096,-1.47,1.86,-3.10,-1.18,-1.66,1.25,
1.098,-1.47,1.86,-3.10,-1.22,-1.66,1.29,
1.1,-1.47,1.86,-3.10,-1.26,-1.68,1.33,
1.102,-1.47,1.86,-3.10,-1.30,-1.71,1.37,
1.105,-0.78,0.95,-2.58,-1.30,-1.71,1.37,
1.105,-0.78,0.95,-2.58,-1.35,-1.77,1.39,
1.108,-0.78,0.95,-2.58,-1.40,-1.84,1.42,
1.128,-0.78,0.95,-2.58,-1.46,-1.93,1.42,
1.129,-0.78,0.95,-2.58,-1.52,-2.03,1.42,
1.129,-0.78,0.95,-2.58,-1.57,-2.14,1.41,
1.129,-0.19,-0.53,-2.14,-1.57,-2.14,1.41,
1.129,-0.19,-0.53,-2.14,-1.63,-2.25,1.39,
1.13,-0.19,-0.53,-2.14,-1.69,-2.36,1.36,
1.13,-0.19,-0.53,-2.14,-1.75,-2.48,1.33,
1.13,-0.19,-0.53,-2.14,-1.81,-2.60,1.28,
1.13,-0.19,-0.53,-2.14,-1.86,-2.71,1.23,
1.131,-0.06,-2.02,-1.30,-1.86,-2.71,1.23,
1.131,-0.06,-2.02,-1.30,-1.90,-2.83,1.18,
1.131,-0.06,-2.02,-1.30,-1.94,-2.95,1.13,
1.131,-0.06,-2.02,-1.30,-2.00,-3.13,1.06,
1.132,-0.06,-2.02,-1.30,-2.01,-3.19,1.03,
1.132,-0.06,-2.02,-1.30,-2.04,-3.29,0.99,
1.135,0.44,-3.21,-0.30,-2.04,-3.29,0.99,
1.136,0.44,-3.21,-0.30,-2.05,-3.39,0.94,
1.137,0.44,-3.21,-0.30,-2.06,-3.48,0.90,
1.138,0.44,-3.21,-0.30,-2.06,-3.55,0.86,
1.14,0.44,-3.21,-0.30,-2.04,-3.60,0.82,
1.144,0.44,-3.21,-0.30,-2.01,-3.62,0.79,
1.146,1.19,-3.73,0.71,-2.01,-3.62,0.79,
1.146,1.19,-3.73,0.71,-1.98,-3.63,0.76,
1.146,1.19,-3.73,0.71,-1.90,-3.60,0.72,
1.148,1.19,-3.73,0.71,-1.84,-3.55,0.69,
1.15,1.19,-3.73,0.71,-1.80,-3.53,0.68,
1.152,1.19,-3.73,0.71,-1.73,-3.47,0.65,
1.154,1.35,-3.99,1.74,-1.73,-3.47,0.65,
1.155,1.35,-3.99,1.74,-1.65,-3.41,0.63,
1.163,1.35,-3.99,1.74,-1.56,-3.34,0.60,
1.163,1.35,-3.99,1.74,-1.47,-3.27,0.57,
1.164,1.35,-3.99,1.74,-1.37,-3.19,0.54,
1.164,1.35,-3.99,1.74,-1.27,-3.12,0.51,
1.167,1.28,-4.09,2.03,-1.27,-3.12,0.51,
1.168,1.28,-4.09,2.03,-1.17,-3.06,0.47,
1.204,1.28,-4.09,2.03,-1.08,-2.99,0.44,
1.205,1.28,-4.09,2.03,-0.99,-2.92,0.41,
1.205,1.28,-4.09,2.03,-0.90,-2.85,0.39,
1.205,1.28,-4.09,2.03,-0.82,-2.77,0.36,
1.205,0.93,-4.05,1.25,-0.82,-2.77,0.36,
1.206,0.93,-4.05,1.25,-0.74,-2.69,0.34,
1.206,0.93,-4.05,1.25,-0.67,-2.60,0.32,
1.206,0.93,-4.05,1.25,-0.57,-2.45,0.29,
1.206,0.93,-4.05,1.25,-0.54,-2.40,0.28,
1.206,0.93,-4.05,1.25,-0.48,-2.29,0.27,
1.207,0.55,-3.50,0.28,-0.48,-2.29,0.27,
1.207,0.55,-3.50,0.28,-0.42,-2.18,0.25,
1.207,0.55,-3.50,0.28,-0.35,-2.03,0.24,
1.207,0.55,-3.50,0.28,-0.32,-1.98,0.24,
1.207,0.55,-3.50,0.28,-0.27,-1.89,0.23,
1.207,0.55,-3.50,0.28,-0.23,-1.79,0.23,
1.208,0.43,-3.03,-0.41,-0.23,-1.79,0.23,
1.208,0.43,-3.03,-0.41,-0.19,-1.70,0.23,
1.208,0.43,-3.03,-0.41,-0.16,-1.60,0.22,
1.208,0.43,-3.03,-0.41,-0.11,-1.45,0.22,
1.208,0.43,-3.03,-0.41,-0.10,-1.41,0.22,
1.209,0.43,-3.03,-0.41,-0.08,-1.32,0.22,
1.209,0.06,-2.41,-0.89,-0.08,-1.32,0.22,
1.209,0.06,-2.41,-0.89,-0.06,-1.24,0.22,
1.209,0.06,-2.41,-0.89,-0.04,-1.18,0.22,
1.212,0.06,-2.41,-0.89,-0.03,-1.13,0.23,
1.212,0.06,-2.41,-0.89,-0.03,-1.11,0.24,
1.212,0.06,-2.41,-0.89,-0.03,-1.11,0.25,
1.214,-0.20,-1.57,-1.41,-0.03,-1.11,0.25,
1.214,-0.20,-1.57,-1.41,-0.05,-1.13,0.27,
1.216,-0.20,-1.57,-1.41,-0.08,-1.19,0.29,
1.218,-0.20,-1.57,-1.41,-0.12,-1.26,0.30,
1.22,-0.20,-1.57,-1.41,-0.18,-1.36,0.31,
1.223,-0.20,-1.57,-1.41,-0.24,-1.45,0.31,
1.224,0.46,-1.35,-2.06,-0.24,-1.45,0.31,
1.224,0.46,-1.35,-2.06,-0.32,-1.54,0.30,
1.226,0.46,-1.35,-2.06,-0.44,-1.64,0.28,
1.228,0.46,-1.35,-2.06,-0.48,-1.67,0.27,
1.229,0.46,-1.35,-2.06,-0.56,-1.71,0.25,
1.231,0.46,-1.35,-2.06,-0.63,-1.73,0.22,
1.234,1.54,-1.29,-2.56,-0.63,-1.73,0.22,
1.234,1.54,-1.29,-2.56,-0.69,-1.74,0.19,
1.237,1.54,-1.29,-2.56,-0.75,-1.73,0.15,
1.237,1.54,-1.29,-2.56,-0.79,-1.71,0.11,
1.24,1.54,-1.29,-2.56,-0.82,-1.67,0.07,
1.242,1.54,-1.29,-2.56,-0.84,-1.62,0.02,
1.244,2.35,-0.66,-1.63,-0.84,-1.62,0.02,
1.244,2.35,-0.66,-1.63,-0.84,-1.55,-0.02,
1.246,2.35,-0.66,-1.63,-0.83,-1.47,-0.06,
1.247,2.35,-0.66,-1.63,-0.82,-1.38,-0.10,
1.249,2.35,-0.66,-1.63,-0.80,-1.26,-0.14,
1.251,2.35,-0.66,-1.63,-0.78,-1.15,-0.18,
1.254,2.17,-0.05,-0.95,-0.78,-1.15,-0.18,
1.254,2.17,-0.05,-0.95,-0.75,-1.05,-0.21,
1.256,2.17,-0.05,-0.95,-0.71,-0.96,-0.24,
1.258,2.17,-0.05,-0.95,-0.67,-0.87,-0.26,
1.26,2.17,-0.05,-0.95,-0.64,-0.79,-0.26,
1.261,2.17,-0.05,-0.95,-0.59,-0.71,-0.26,
1.264,0.88,0.73,-0.75,-0.59,-0.71,-0.26,
1.264,0.88,0.73,-0.75,-0.55,-0.63,-0.25,
1.267,0.88,0.73,-0.75,-0.51,-0.56,-0.24,
1.267,0.88,0.73,-0.75,-0.45,-0.46,-0.19,
1.269,0.88,0.73,-0.75,-0.43,-0.42,-0.17,
1.274,0.88,0.73,-0.75,-0.39,-0.36,-0.13,
1.275,-0.92,1.68,-0.95,-0.39,-0.36,-0.13,
1.286,-0.92,1.68,-0.95,-0.36,-0.29,-0.09,
1.286,-0.92,1.68,-0.95,-0.32,-0.23,-0.04,
1.286,-0.92,1.68,-0.95,-0.28,-0.13,0.04,
1.286,-0.92,1.68,-0.95,-0.26,-0.10,0.07,
1.286,-0.92,1.68,-0.95,-0.24,-0.04,0.12,
1.287,-2.03,2.59,-1.55,-0.24,-0.04,0.12,
1.287,-2.03,2.59,-1.55,-0.22,0.03,0.18,
1.287,-2.03,2.59,-1.55,-0.20,0.10,0.24,
1.298,-2.03,2.59,-1.55,-0.18,0.22,0.33,
1.298,-2.03,2.59,-1.55,-0.17,0.27,0.36,
1.299,-2.03,2.59,-1.55,-0.16,0.36,0.43,
1.299,-2.82,2.97,-1.80,-0.16,0.36,0.43,
1.299,-2.82,2.97,-1.80,-0.16,0.45,0.49,
1.299,-2.82,2.97,-1.80,-0.17,0.53,0.54,
1.299,-2.82,2.97,-1.80,-0.18,0.65,0.62,
1.299,-2.82,2.97,-1.80,-0.18,0.69,0.64,
1.301,-2.82,2.97,-1.80,-0.19,0.78,0.68,
1.307,-2.50,3.20,-1.85,-0.19,0.78,0.68,
1.308,-2.50,3.20,-1.85,-0.20,0.90,0.74,
1.308,-2.50,3.20,-1.85,-0.22,0.99,0.78,
1.308,-2.50,3.20,-1.85,-0.23,1.07,0.81,
1.309,-2.50,3.20,-1.85,-0.24,1.11,0.82,
1.311,-2.50,3.20,-1.85,-0.26,1.18,0.85,
1.314,-1.47,3.73,-1.46,-0.26,1.18,0.85,
1.314,-1.47,3.73,-1.46,-0.30,1.30,0.88,
1.316,-1.47,3.73,-1.46,-0.33,1.38,0.90,
1.317,-1.47,3.73,-1.46,-0.36,1.47,0.91,
1.319,-1.47,3.73,-1.46,-0.37,1.52,0.92,
1.322,-1.47,3.73,-1.46,-0.40,1.61,0.93,
1.324,-1.29,3.99,-1.14,-0.40,1.61,0.93,
1.324,-1.29,3.99,-1.14,-0.45,1.77,0.95,
1.326,-1.29,3.99,-1.14,-0.49,1.90,0.96,
1.327,-1.29,3.99,-1.14,-0.53,2.03,0.96,
1.329,-1.29,3.99,-1.14,-0.54,2.10,0.96,
1.331,-1.29,3.99,-1.14,-0.59,2.31,0.95,
1.334,-0.90,3.71,-0.83,-0.59,2.31,0.95,
1.334,-0.90,3.71,-0.83,-0.61,2.46,0.92,
1.336,-0.90,3.71,-0.83,-0.63,2.61,0.89,
1.338,-0.90,3.71,-0.83,-0.65,2.76,0.85,
1.34,-0.90,3.71,-0.83,-0.66,2.91,0.81,
1.342,-0.90,3.71,-0.83,-0.67,3.06,0.77,
1.344,0.19,3.12,-0.01,-0.67,3.06,0.77,
1.344,0.19,3.12,-0.01,-0.67,3.19,0.73,
1.346,0.19,3.12,-0.01,-0.67,3.31,0.69,
1.347,0.19,3.12,-0.01,-0.66,3.39,0.65,
1.349,0.19,3.12,-0.01,-0.66,3.42,0.62,
1.352,0.19,3.12,-0.01,-0.65,3.41,0.59,
1.354,-0.10,2.56,1.49,-0.65,3.41,0.59,
1.354,-0.10,2.56,1.49,-0.64,3.34,0.57,
1.356,-0.10,2.56,1.49,-0.63,3.24,0.56,
1.358,-0.10,2.56,1.49,-0.61,3.09,0.55,
1.359,-0.10,2.56,1.49,-0.60,2.92,0.55,
1.361,-0.10,2.56,1.49,-0.58,2.74,0.55,
1.364,-0.67,1.72,2.63,-0.58,2.74,0.55,
1.364,-0.67,1.72,2.63,-0.56,2.53,0.56,
1.365,-0.67,1.72,2.63,-0.54,2.31,0.57,
1.367,-0.67,1.72,2.63,-0.52,2.05,0.58,
1.369,-0.67,1.72,2.63,-0.49,1.78,0.59,
1.372,-0.67,1.72,2.63,-0.47,1.49,0.59,
1.374,0.11,1.01,3.12,-0.47,1.49,0.59,
1.374,0.11,1.01,3.12,-0.45,1.20,0.59,
1.376,0.11,1.01,3.12,-0.44,0.95,0.58,
1.378,0.11,1.01,3.12,-0.43,0.75,0.56,
1.379,0.11,1.01,3.12,-0.43,0.59,0.55,
1.381,0.11,1.01,3.12,-0.44,0.45,0.53,
1.384,1.11,1.12,1.87,-0.44,0.45,0.53,
1.384,1.11,1.12,1.87,-0.46,0.34,0.51,
1.386,1.11,1.12,1.87,-0.48,0.25,0.49,
1.388,1.11,1.12,1.87,-0.52,0.20,0.48,
1.39,1.11,1.12,1.87,-0.56,0.17,0.47,
1.392,1.11,1.12,1.87,-0.60,0.17,0.47,
1.394,0.84,2.00,-0.68,-0.60,0.17,0.47,
1.395,0.84,2.00,-0.68,-0.64,0.20,0.47,
1.396,0.84,2.00,-0.68,-0.68,0.24,0.48,
1.397,0.84,2.00,-0.68,-0.71,0.31,0.50,
1.399,0.84,2.00,-0.68,-0.74,0.42,0.51,
1.402,0.84,2.00,-0.68,-0.76,0.55,0.53,
1.405,-0.12,1.53,-1.95,-0.76,0.55,0.53,
1.405,-0.12,1.53,-1.95,-0.78,0.71,0.55,
1.406,-0.12,1.53,-1.95,-0.78,0.90,0.57,
1.408,-0.12,1.53,-1.95,-0.78,1.09,0.58,
1.41,-0.12,1.53,-1.95,-0.77,1.27,0.60,
1.411,-0.12,1.53,-1.95,-0.75,1.44,0.61,
1.414,0.16,0.89,-1.00,-0.75,1.44,0.61,
1.414,0.16,0.89,-1.00,-0.72,1.59,0.62,
1.416,0.16,0.89,-1.00,-0.68,1.73,0.62,
1.417,0.16,0.89,-1.00,-0.62,1.85,0.62,
1.419,0.16,0.89,-1.00,-0.56,1.95,0.62,
1.426,0.16,0.89,-1.00,-0.49,2.04,0.62,
1.427,0.24,0.03,1.27,-0.49,2.04,0.62,
1.427,0.24,0.03,1.27,-0.41,2.12,0.61,
1.434,0.24,0.03,1.27,-0.13,2.24,0.54,
1.435,0.24,0.03,1.27,-0.13,2.24,0.54,
1.435,0.24,0.03,1.27,-0.03,2.25,0.49,
1.435,0.24,0.03,1.27,-0.03,2.25,0.49,
1.435,0.24,0.03,1.27,0.07,2.26,0.44,
1.436,0.49,-1.29,3.21,0.07,2.26,0.44,
1.436,0.49,-1.29,3.21,0.16,2.26,0.37,
1.439,0.49,-1.29,3.21,0.25,2.27,0.30,
1.453,0.49,-1.29,3.21,0.33,2.29,0.22,
1.472,0.49,-1.29,3.21,0.41,2.33,0.14,
1.472,1.85,-1.89,3.43,0.41,2.33,0.14,
1.472,1.85,-1.89,3.43,0.49,2.37,0.06,
1.473,1.85,-1.89,3.43,0.55,2.42,-0.02,
1.473,1.85,-1.89,3.43,0.62,2.47,-0.09,
1.473,1.85,-1.89,3.43,0.68,2.52,-0.15,
1.473,1.85,-1.89,3.43,0.73,2.56,-0.20,
1.473,1.64,-1.81,2.47,0.73,2.56,-0.20,
1.473,1.64,-1.81,2.47,0.78,2.59,-0.25,
1.473,1.64,-1.81,2.47,0.83,2.61,-0.27,
1.474,1.64,-1.81,2.47,0.88,2.63,-0.28,
1.474,1.64,-1.81,2.47,0.92,2.65,-0.28,
1.474,1.64,-1.81,2.47,0.96,2.68,-0.27,
1.474,0.37,-1.40,1.11,0.96,2.68,-0.27,
1.474,0.37,-1.40,1.11,1.00,2.69,-0.25,
1.474,0.37,-1.40,1.11,1.03,2.70,-0.22,
1.475,0.37,-1.40,1.11,1.06,2.67,-0.19,
1.475,0.37,-1.40,1.11,1.08,2.62,-0.16,
1.475,0.37,-1.40,1.11,1.09,2.56,-0.14,
1.475,-0.44,-1.09,-0.34,1.09,2.56,-0.14,
1.475,-0.44,-1.09,-0.34,1.09,2.50,-0.12,
1.477,-0.44,-1.09,-0.34,1.07,2.43,-0.10,
1.48,-0.44,-1.09,-0.34,1.06,2.35,-0.08,
1.481,-0.44,-1.09,-0.34,1.03,2.27,-0.06,
1.484,-0.44,-1.09,-0.34,0.99,2.18,-0.03,
1.486,-1.16,-0.27,-1.54,0.99,2.18,-0.03,
1.487,-1.16,-0.27,-1.54,0.94,2.11,0.01,
1.487,-1.16,-0.27,-1.54,0.89,2.05,0.06,
1.49,-1.16,-0.27,-1.54,0.82,2.00,0.11,
1.491,-1.16,-0.27,-1.54,0.75,1.94,0.16,
1.492,-1.16,-0.27,-1.54,0.67,1.88,0.22,
1.498,-1.95,0.32,-2.46,0.67,1.88,0.22,
1.498,-1.95,0.32,-2.46,0.57,1.79,0.28,
1.499,-1.95,0.32,-2.46,0.45,1.67,0.32,
1.499,-1.95,0.32,-2.46,0.31,1.58,0.35,
1.499,-1.95,0.32,-2.46,0.18,1.53,0.38,
1.504,-1.95,0.32,-2.46,0.07,1.50,0.41,
1.504,-1.86,0.01,-3.04,0.07,1.50,0.41,
1.505,-1.86,0.01,-3.04,-0.04,1.47,0.44,
1.506,-1.86,0.01,-3.04,-0.16,1.40,0.46,
1.508,-1.86,0.01,-3.04,-0.27,1.29,0.48,
1.509,-1.86,0.01,-3.04,-0.39,1.16,0.50,
1.511,-1.86,0.01,-3.04,-0.50,1.01,0.50,
1.514,-1.07,-0.74,-1.92,-0.50,1.01,0.50,
1.514,-1.07,-0.74,-1.92,-0.61,0.83,0.50,
1.516,-1.07,-0.74,-1.92,-0.72,0.66,0.49,
1.519,-1.07,-0.74,-1.92,-0.81,0.48,0.47,
1.52,-1.07,-0.74,-1.92,-0.91,0.31,0.44,
1.523,-1.07,-0.74,-1.92,-0.99,0.13,0.41,
1.526,-0.06,-1.95,-0.44,-0.99,0.13,0.41,
1.527,-0.06,-1.95,-0.44,-1.07,-0.03,0.36,
1.527,-0.06,-1.95,-0.44,-1.13,-0.18,0.30,
1.53,-0.06,-1.95,-0.44,-1.20,-0.30,0.24,
1.53,-0.06,-1.95,-0.44,-1.26,-0.42,0.17,
1.533,-0.06,-1.95,-0.44,-1.30,-0.52,0.11,
1.534,1.54,-2.75,0.40,-1.30,-0.52,0.11,
1.534,1.54,-2.75,0.40,-1.34,-0.62,0.03,
1.536,1.54,-2.75,0.40,-1.38,-0.70,-0.04,
1.538,1.54,-2.75,0.40,-1.42,-0.77,-0.10,
1.54,1.54,-2.75,0.40,-1.45,-0.83,-0.16,
1.542,1.54,-2.75,0.40,-1.48,-0.88,-0.22,
1.544,2.23,-2.58,0.26,-1.48,-0.88,-0.22,
1.544,2.23,-2.58,0.26,-1.50,-0.91,-0.26,
1.548,2.23,-2.58,0.26,-1.53,-0.92,-0.30,
1.548,2.23,-2.58,0.26,-1.53,-0.92,-0.32,
1.549,2.23,-2.58,0.26,-1.53,-0.90,-0.34,
1.551,2.23,-2.58,0.26,-1.52,-0.86,-0.35,
1.556,1.04,-1.72,0.71,-1.52,-0.86,-0.35,
1.556,1.04,-1.72,0.71,-1.49,-0.80,-0.35,
1.556,1.04,-1.72,0.71,-1.45,-0.73,-0.34,
1.558,1.04,-1.72,0.71,-1.39,-0.66,-0.32,
1.56,1.04,-1.72,0.71,-1.32,-0.59,-0.30,
1.563,1.04,-1.72,0.71,-1.25,-0.53,-0.27,
1.564,-0.18,-0.84,1.74,-1.25,-0.53,-0.27,
1.565,-0.18,-0.84,1.74,-1.17,-0.48,-0.23,
1.566,-0.18,-0.84,1.74,-1.09,-0.43,-0.20,
1.567,-0.18,-0.84,1.74,-1.00,-0.39,-0.16,
1.57,-0.18,-0.84,1.74,-0.92,-0.34,-0.13,
1.573,-0.18,-0.84,1.74,-0.85,-0.31,-0.10,
1.574,-0.58,-0.50,1.92,-0.85,-0.31,-0.10,
1.574,-0.58,-0.50,1.92,-0.78,-0.29,-0.06,
1.576,-0.58,-0.50,1.92,-0.71,-0.27,-0.03,
1.577,-0.58,-0.50,1.92,-0.66,-0.26,-0.01,
1.579,-0.58,-0.50,1.92,-0.61,-0.26,0.02,
1.581,-0.58,-0.50,1.92,-0.57,-0.27,0.04,
1.584,-0.33,-0.64,1.02,-0.57,-0.27,0.04,
1.584,-0.33,-0.64,1.02,-0.55,-0.27,0.06,
1.586,-0.33,-0.64,1.02,-0.54,-0.27,0.08,
1.59,-0.33,-0.64,1.02,-0.53,-0.27,0.10,
1.592,-0.33,-0.64,1.02,-0.52,-0.26,0.11,
1.592,-0.33,-0.64,1.02,-0.52,-0.25,0.12,
1.595,0.07,-1.31,-0.09,-0.52,-0.25,0.12,
1.596,0.07,-1.31,-0.09,-0.53,-0.23,0.12,
1.596,0.07,-1.31,-0.09,-0.53,-0.21,0.11,
1.599,0.07,-1.31,-0.09,-0.54,-0.21,0.09,
1.599,0.07,-1.31,-0.09,-0.54,-0.22,0.06,
1.603,0.07,-1.31,-0.09,-0.55,-0.24,0.02,
1.611,1.31,-2.02,0.14,-0.55,-0.24,0.02,
1.611,1.31,-2.02,0.14,-0.57,-0.28,-0.02,
1.612,1.31,-2.02,0.14,-0.60,-0.35,-0.07,
1.623,1.31,-2.02,0.14,-0.64,-0.43,-0.13,
1.623,1.31,-2.02,0.14,-0.69,-0.53,-0.19,
1.624,1.31,-2.02,0.14,-0.75,-0.66,-0.24,
1.624,2.66,-2.29,-0.06,-0.75,-0.66,-0.24,
1.624,2.66,-2.29,-0.06,-0.83,-0.79,-0.30,
1.624,2.66,-2.29,-0.06,-0.92,-0.93,-0.36,
1.624,2.66,-2.29,-0.06,-1.01,-1.06,-0.42,
1.624,2.66,-2.29,-0.06,-1.10,-1.16,-0.47,
1.625,2.66,-2.29,-0.06,-1.20,-1.24,-0.53,
1.625,2.56,-2.17,-0.84,-1.20,-1.24,-0.53,
1.625,2.56,-2.17,-0.84,-1.29,-1.31,-0.58,
1.627,2.56,-2.17,-0.84,-1.38,-1.38,-0.62,
1.627,2.56,-2.17,-0.84,-1.45,-1.46,-0.67,
1.63,2.56,-2.17,-0.84,-1.52,-1.55,-0.71,
1.634,2.56,-2.17,-0.84,-1.58,-1.64,-0.74,
1.637,1.66,-1.32,-0.10,-1.58,-1.64,-0.74,
1.637,1.66,-1.32,-0.10,-1.64,-1.73,-0.77,
1.637,1.66,-1.32,-0.10,-1.69,-1.80,-0.80,
1.638,1.66,-1.32,-0.10,-1.74,-1.86,-0.82,
1.639,1.66,-1.32,-0.10,-1.79,-1.90,-0.83,
1.642,1.66,-1.32,-0.10,-1.83,-1.94,-0.84,
1.644,0.86,-1.37,0.34,-1.83,-1.94,-0.84,
1.644,0.86,-1.37,0.34,-1.86,-1.97,-0.85,
1.646,0.86,-1.37,0.34,-1.87,-2.00,-0.86,
1.647,0.86,-1.37,0.34,-1.87,-2.05,-0.89,
1.651,0.86,-1.37,0.34,-1.86,-2.09,-0.91,
1.651,0.86,-1.37,0.34,-1.83,-2.11,-0.95,
1.654,0.61,-1.81,1.54,-1.83,-2.11,-0.95,
1.655,0.61,-1.81,1.54,-1.80,-2.14,-0.98,
1.656,0.61,-1.81,1.54,-1.75,-2.23,-1.02,
1.658,0.61,-1.81,1.54,-1.68,-2.32,-1.06,
1.66,0.61,-1.81,1.54,-1.61,-2.34,-1.10,
1.661,0.61,-1.81,1.54,-1.55,-2.34,-1.14,
1.664,0.69,-1.55,3.58,-1.55,-2.34,-1.14,
1.664,0.69,-1.55,3.58,-1.49,-2.36,-1.16,
1.666,0.69,-1.55,3.58,-1.43,-2.42,-1.17,
1.667,0.69,-1.55,3.58,-1.36,-2.47,-1.18,
1.671,0.69,-1.55,3.58,-1.31,-2.50,-1.17,
1.672,0.69,-1.55,3.58,-1.25,-2.53,-1.16,
1.676,0.03,-0.94,3.90,-1.25,-2.53,-1.16,
1.676,0.03,-0.94,3.90,-1.20,-2.58,-1.14,
1.676,0.03,-0.94,3.90,-1.15,-2.63,-1.11,
1.68,0.03,-0.94,3.90,-1.10,-2.65,-1.09,
1.683,0.03,-0.94,3.90,-1.05,-2.67,-1.05,
1.683,0.03,-0.94,3.90,-1.00,-2.72,-1.00,
1.686,-0.27,-0.42,3.58,-1.00,-2.72,-1.00,
1.686,-0.27,-0.42,3.58,-0.95,-2.77,-0.96,
1.689,-0.27,-0.42,3.58,-0.90,-2.82,-0.92,
1.69,-0.27,-0.42,3.58,-0.85,-2.87,-0.89,
1.69,-0.27,-0.42,3.58,-0.80,-2.92,-0.85,
1.694,-0.27,-0.42,3.58,-0.75,-2.96,-0.82,
1.694,0.15,-0.02,3.70,-0.75,-2.96,-0.82,
1.694,0.15,-0.02,3.70,-0.70,-3.02,-0.80,
1.697,0.15,-0.02,3.70,-0.65,-3.08,-0.79,
1.698,0.15,-0.02,3.70,-0.59,-3.14,-0.79,
1.7,0.15,-0.02,3.70,-0.53,-3.20,-0.80,
1.702,0.15,-0.02,3.70,-0.46,-3.25,-0.84,
1.706,2.10,-0.76,3.45,-0.46,-3.25,-0.84,
1.706,2.10,-0.76,3.45,-0.39,-3.27,-0.88,
1.706,2.10,-0.76,3.45,-0.33,-3.26,-0.94,
1.708,2.10,-0.76,3.45,-0.26,-3.20,-1.01,
1.71,2.10,-0.76,3.45,-0.21,-3.12,-1.08,
1.712,2.10,-0.76,3.45,-0.16,-3.00,-1.16,
1.715,4.43,-2.01,1.61,-0.16,-3.00,-1.16,
1.715,4.43,-2.01,1.61,-0.12,-2.85,-1.23,
1.716,4.43,-2.01,1.61,-0.10,-2.68,-1.29,
1.719,4.43,-2.01,1.61,-0.07,-2.53,-1.36,
1.724,4.43,-2.01,1.61,-0.04,-2.37,-1.40,
1.725,4.43,-2.01,1.61,-0.03,-2.20,-1.44,
1.725,4.18,-2.14,-0.57,-0.03,-2.20,-1.44,
1.725,4.18,-2.14,-0.57,-0.01,-2.04,-1.46,
1.728,4.18,-2.14,-0.57,0.02,-1.92,-1.48,
1.728,4.18,-2.14,-0.57,0.06,-1.80,-1.50,
1.731,4.18,-2.14,-0.57,0.11,-1.68,-1.52,
1.732,4.18,-2.14,-0.57,0.17,-1.55,-1.54,
1.736,2.80,-1.21,-0.56,0.17,-1.55,-1.54,
1.736,2.80,-1.21,-0.56,0.23,-1.42,-1.55,
1.736,2.80,-1.21,-0.56,0.29,-1.31,-1.57,
1.741,2.80,-1.21,-0.56,0.37,-1.23,-1.59,
1.742,2.80,-1.21,-0.56,0.46,-1.16,-1.61,
1.745,2.80,-1.21,-0.56,0.55,-1.11,-1.63,
1.745,1.57,0.09,0.30,0.55,-1.11,-1.63,
1.745,1.57,0.09,0.30,0.64,-1.06,-1.64,
1.747,1.57,0.09,0.30,0.72,-1.02,-1.65,
1.748,1.57,0.09,0.30,0.80,-1.00,-1.65,
1.751,1.57,0.09,0.30,0.87,-1.00,-1.63,
1.752,1.57,0.09,0.30,0.93,-1.00,-1.61,
1.754,-0.08,1.15,0.13,0.93,-1.00,-1.61,
1.755,-0.08,1.15,0.13,0.96,-1.00,-1.57,
1.763,-0.08,1.15,0.13,0.99,-1.03,-1.52,
1.763,-0.08,1.15,0.13,1.01,-1.08,-1.46,
1.764,-0.08,1.15,0.13,1.02,-1.14,-1.41,
1.764,-0.08,1.15,0.13,1.02,-1.18,-1.35,
1.764,-1.52,2.16,-0.89,1.02,-1.18,-1.35,
1.764,-1.52,2.16,-0.89,1.01,-1.22,-1.29,
1.766,-1.52,2.16,-0.89,0.99,-1.25,-1.22,
1.768,-1.52,2.16,-0.89,0.96,-1.28,-1.16,
1.771,-1.52,2.16,-0.89,0.94,-1.31,-1.09,
1.775,-1.52,2.16,-0.89,0.90,-1.32,-1.01,
1.776,-2.84,3.06,-2.16,0.90,-1.32,-1.01,
1.797,-2.84,3.06,-2.16,0.84,-1.33,-0.93,
1.798,-2.84,3.06,-2.16,0.78,-1.35,-0.85,
1.798,-2.84,3.06,-2.16,0.71,-1.38,-0.78,
1.798,-2.84,3.06,-2.16,0.63,-1.41,-0.71,
1.798,-2.84,3.06,-2.16,0.54,-1.42,-0.64,
1.799,-3.45,3.45,-3.69,0.54,-1.42,-0.64,
1.799,-3.45,3.45,-3.69,0.45,-1.43,-0.58,
1.799,-3.45,3.45,-3.69,0.36,-1.42,-0.53,
1.799,-3.45,3.45,-3.69,0.27,-1.40,-0.48,
1.8,-3.45,3.45,-3.69,0.19,-1.36,-0.44,
1.8,-3.45,3.45,-3.69,0.12,-1.32,-0.40,
1.8,-3.63,3.06,-4.25,0.12,-1.32,-0.40,
1.8,-3.63,3.06,-4.25,0.07,-1.26,-0.37,
1.801,-3.63,3.06,-4.25,0.03,-1.20,-0.34,
1.801,-3.63,3.06,-4.25,0.00,-1.13,-0.31,
1.801,-3.63,3.06,-4.25,-0.02,-1.06,-0.28,
1.806,-3.63,3.06,-4.25,-0.03,-1.00,-0.25,
1.806,-4.50,3.00,-3.22,-0.03,-1.00,-0.25,
1.806,-4.50,3.00,-3.22,-0.03,-0.93,-0.23,
1.807,-4.50,3.00,-3.22,-0.03,-0.87,-0.20,
1.808,-4.50,3.00,-3.22,-0.02,-0.81,-0.18,
1.809,-4.50,3.00,-3.22,-0.00,-0.77,-0.16,
1.814,-4.50,3.00,-3.22,0.01,-0.73,-0.14,
1.815,-4.97,2.52,-1.79,0.01,-0.73,-0.14,
1.815,-4.97,2.52,-1.79,0.02,-0.70,-0.13,
1.816,-4.97,2.52,-1.79,0.03,-0.67,-0.12,
1.819,-4.97,2.52,-1.79,0.05,-0.65,-0.11,
1.82,-4.97,2.52,-1.79,0.07,-0.64,-0.11,
1.824,-4.97,2.52,-1.79,0.09,-0.63,-0.11,
1.824,-4.41,1.87,-0.63,0.09,-0.63,-0.11,
1.827,-4.41,1.87,-0.63,0.10,-0.62,-0.12,
1.828,-4.41,1.87,-0.63,0.12,-0.61,-0.12,
1.828,-4.41,1.87,-0.63,0.13,-0.60,-0.12,
1.833,-4.41,1.87,-0.63,0.13,-0.60,-0.11,
1.833,-4.41,1.87,-0.63,0.14,-0.59,-0.09,
1.834,-4.01,1.52,0.20,0.14,-0.59,-0.09,
1.834,-4.01,1.52,0.20,0.13,-0.59,-0.07,
1.843,-4.01,1.52,0.20,0.12,-0.58,-0.03,
1.844,-4.01,1.52,0.20,0.11,-0.58,0.01,
1.844,-4.01,1.52,0.20,0.09,-0.58,0.06,
1.844,-4.01,1.52,0.20,0.07,-0.58,0.11,
1.847,-3.39,1.75,0.05,0.07,-0.58,0.11,
1.847,-3.39,1.75,0.05,0.04,-0.59,0.17,
1.848,-3.39,1.75,0.05,0.01,-0.59,0.23,
1.849,-3.39,1.75,0.05,-0.02,-0.60,0.29,
1.851,-3.39,1.75,0.05,-0.04,-0.60,0.36,
1.886,-3.39,1.75,0.05,-0.07,-0.61,0.42,
1.887,-2.64,1.81,-0.04,-0.07,-0.61,0.42,
1.887,-2.64,1.81,-0.04,-0.08,-0.61,0.48,
1.887,-2.64,1.81,-0.04,-0.10,-0.61,0.54,
1.888,-2.64,1.81,-0.04,-0.12,-0.59,0.59,
1.888,-2.64,1.81,-0.04,-0.13,-0.57,0.64,
1.888,-2.64,1.81,-0.04,-0.15,-0.54,0.69,
1.888,-1.30,1.73,-0.15,-0.15,-0.54,0.69,
1.888,-1.30,1.73,-0.15,-0.16,-0.49,0.72,
1.888,-1.30,1.73,-0.15,-0.18,-0.44,0.75,
1.889,-1.30,1.73,-0.15,-0.20,-0.39,0.78,
1.889,-1.30,1.73,-0.15,-0.21,-0.32,0.79,
1.889,-1.30,1.73,-0.15,-0.22,-0.26,0.80,
1.889,0.23,0.98,-0.69,-0.22,-0.26,0.80,
1.889,0.23,0.98,-0.69,-0.22,-0.19,0.80,
1.89,0.23,0.98,-0.69,-0.22,-0.12,0.79,
1.89,0.23,0.98,-0.69,-0.21,-0.05,0.78,
1.89,0.23,0.98,-0.69,-0.19,0.02,0.75,
1.89,0.23,0.98,-0.69,-0.17,0.10,0.72,
1.89,1.70,-0.52,-0.26,-0.17,0.10,0.72,
1.891,1.70,-0.52,-0.26,-0.13,0.20,0.67,
1.891,1.70,-0.52,-0.26,-0.10,0.29,0.61,
1.891,1.70,-0.52,-0.26,-0.05,0.38,0.54,
1.891,1.70,-0.52,-0.26,0.00,0.48,0.48,
1.898,1.70,-0.52,-0.26,0.06,0.56,0.41,
1.899,2.37,-1.42,0.68,0.06,0.56,0.41,
1.899,2.37,-1.42,0.68,0.12,0.64,0.34,
1.899,2.37,-1.42,0.68,0.19,0.70,0.27,
1.899,2.37,-1.42,0.68,0.25,0.75,0.19,
1.9,2.37,-1.42,0.68,0.31,0.78,0.13,
1.902,2.37,-1.42,0.68,0.36,0.80,0.07,
1.906,2.14,-1.52,1.31,0.36,0.80,0.07,
1.906,2.14,-1.52,1.31,0.41,0.80,0.01,
1.906,2.14,-1.52,1.31,0.45,0.78,-0.03,
1.909,2.14,-1.52,1.31,0.49,0.75,-0.06,
1.91,2.14,-1.52,1.31,0.51,0.71,-0.10,
1.912,2.14,-1.52,1.31,0.53,0.66,-0.12,
1.914,1.55,-1.11,0.91,0.53,0.66,-0.12,
1.915,1.55,-1.11,0.91,0.53,0.62,-0.14,
1.916,1.55,-1.11,0.91,0.53,0.57,-0.15,
1.918,1.55,-1.11,0.91,0.52,0.53,-0.16,
1.92,1.55,-1.11,0.91,0.50,0.48,-0.17,
1.923,1.55,-1.11,0.91,0.48,0.43,-0.17,
1.925,1.20,-0.64,0.13,0.48,0.43,-0.17,
1.925,1.20,-0.64,0.13,0.46,0.37,-0.17,
1.926,1.20,-0.64,0.13,0.43,0.32,-0.17,
1.928,1.20,-0.64,0.13,0.40,0.26,-0.17,
1.929,1.20,-0.64,0.13,0.37,0.20,-0.16,
1.932,1.20,-0.64,0.13,0.33,0.15,-0.15,
1.935,1.00,-0.08,-0.45,0.33,0.15,-0.15,
1.936,1.00,-0.08,-0.45,0.30,0.09,-0.14,
1.936,1.00,-0.08,-0.45,0.27,0.05,-0.12,
1.939,1.00,-0.08,-0.45,0.23,0.01,-0.10,
1.94,1.00,-0.08,-0.45,0.20,-0.02,-0.08,
1.956,1.00,-0.08,-0.45,0.16,-0.04,-0.06,
1.956,0.84,0.35,-0.85,0.16,-0.04,-0.06,
1.956,0.84,0.35,-0.85,0.13,-0.05,-0.03,
1.957,0.84,0.35,-0.85,0.10,-0.05,-0.01,
1.957,0.84,0.35,-0.85,0.07,-0.04,0.02,
1.957,0.84,0.35,-0.85,0.04,-0.00,0.05,
1.957,0.84,0.35,-0.85,0.02,0.04,0.07,
1.957,0.70,0.10,-0.70,0.02,0.04,0.07,
1.958,0.70,0.10,-0.70,0.01,0.08,0.09,
1.958,0.70,0.10,-0.70,0.01,0.13,0.10,
1.958,0.70,0.10,-0.70,0.02,0.19,0.12,
1.962,0.70,0.10,-0.70,0.04,0.24,0.12,
1.962,0.70,0.10,-0.70,0.06,0.29,0.12,
1.964,0.63,-0.50,0.42,0.06,0.29,0.12,
1.965,0.63,-0.50,0.42,0.09,0.34,0.12,
1.966,0.63,-0.50,0.42,0.13,0.39,0.11,
1.968,0.63,-0.50,0.42,0.17,0.44,0.11,
1.971,0.63,-0.50,0.42,0.22,0.49,0.10,
1.972,0.63,-0.50,0.42,0.27,0.55,0.10,
1.975,0.43,-0.76,1.35,0.27,0.55,0.10,
1.975,0.43,-0.76,1.35,0.31,0.60,0.10,
1.976,0.43,-0.76,1.35,0.36,0.64,0.10,
1.978,0.43,-0.76,1.35,0.40,0.68,0.11,
1.98,0.43,-0.76,1.35,0.44,0.72,0.13,
1.982,0.43,-0.76,1.35,0.47,0.75,0.15,
1.984,-0.34,-0.33,1.71,0.47,0.75,0.15,
1.984,-0.34,-0.33,1.71,0.50,0.78,0.18,
1.991,-0.34,-0.33,1.71,0.52,0.80,0.21,
1.992,-0.34,-0.33,1.71,0.54,0.82,0.24,
1.992,-0.34,-0.33,1.71,0.55,0.84,0.28,
1.992,-0.34,-0.33,1.71,0.56,0.84,0.32,
1.994,-1.16,0.45,1.57,0.56,0.84,0.32,
1.996,-1.16,0.45,1.57,0.56,0.85,0.36,
1.997,-1.16,0.45,1.57,0.56,0.84,0.41,
1.999,-1.16,0.45,1.57,0.55,0.84,0.45,
2.0,-1.16,0.45,1.57,0.54,0.84,0.49,
2.033,-1.16,0.45,1.57,0.53,0.84,0.54,
2.033,-1.39,1.01,1.14,0.53,0.84,0.54,
2.033,-1.39,1.01,1.14,0.52,0.86,0.59,
2.033,-1.39,1.01,1.14,0.51,0.88,0.63,
2.033,-1.39,1.01,1.14,0.50,0.91,0.68,
2.034,-1.39,1.01,1.14,0.48,0.94,0.72,
2.034,-1.39,1.01,1.14,0.47,0.97,0.76,
2.034,-1.93,1.48,1.10,0.47,0.97,0.76,
2.034,-1.93,1.48,1.10,0.45,0.99,0.80,
2.034,-1.93,1.48,1.10,0.44,1.01,0.82,
2.034,-1.93,1.48,1.10,0.42,1.04,0.85,
2.034,-1.93,1.48,1.10,0.40,1.06,0.86,
2.034,-1.93,1.48,1.10,0.37,1.09,0.88,
2.035,-1.48,1.97,0.77,0.37,1.09,0.88,
2.035,-1.48,1.97,0.77,0.34,1.13,0.91,
2.035,-1.48,1.97,0.77,0.30,1.19,0.94,
2.035,-1.48,1.97,0.77,0.25,1.24,0.97,
2.035,-1.48,1.97,0.77,0.21,1.31,1.01,
2.035,-1.48,1.97,0.77,0.16,1.39,1.06,
2.035,-1.80,2.71,0.19,0.16,1.39,1.06,
2.036,-1.80,2.71,0.19,0.11,1.46,1.12,
2.038,-1.80,2.71,0.19,0.06,1.54,1.17,
2.038,-1.80,2.71,0.19,0.01,1.60,1.23,
2.049,-1.80,2.71,0.19,-0.04,1.66,1.27,
2.049,-1.80,2.71,0.19,-0.08,1.72,1.31,
2.049,-1.18,2.70,-0.23,-0.08,1.72,1.31,
2.049,-1.18,2.70,-0.23,-0.11,1.78,1.35,
2.049,-1.18,2.70,-0.23,-0.15,1.84,1.37,
2.049,-1.18,2.70,-0.23,-0.17,1.90,1.39,
2.05,-1.18,2.70,-0.23,-0.20,1.98,1.40,
2.054,-1.18,2.70,-0.23,-0.22,2.07,1.41,
2.055,0.93,1.63,-0.77,-0.22,2.07,1.41,
2.055,0.93,1.63,-0.77,-0.24,2.18,1.40,
2.06,0.93,1.63,-0.77,-0.25,2.30,1.37,
2.06,0.93,1.63,-0.77,-0.26,2.41,1.33,
2.06,0.93,1.63,-0.77,-0.26,2.50,1.27,
2.063,0.93,1.63,-0.77,-0.26,2.52,1.19,
2.064,4.29,0.45,-0.55,-0.26,2.52,1.19,
2.064,4.29,0.45,-0.55,-0.25,2.50,1.09,
2.065,4.29,0.45,-0.55,-0.24,2.45,0.97,
2.068,4.29,0.45,-0.55,-0.23,2.37,0.83,
2.07,4.29,0.45,-0.55,-0.21,2.27,0.70,
2.071,4.29,0.45,-0.55,-0.19,2.13,0.56,
2.074,7.38,-2.24,0.30,-0.19,2.13,0.56,
2.074,7.38,-2.24,0.30,-0.17,1.98,0.42,
2.075,7.38,-2.24,0.30,-0.14,1.80,0.29,
2.077,7.38,-2.24,0.30,-0.12,1.60,0.16,
2.079,7.38,-2.24,0.30,-0.11,1.36,0.03,
2.081,7.38,-2.24,0.30,-0.10,1.09,-0.09,
2.084,7.49,-2.86,1.11,-0.10,1.09,-0.09,
2.084,7.49,-2.86,1.11,-0.11,0.80,-0.21,
2.086,7.49,-2.86,1.11,-0.13,0.49,-0.32,
2.088,7.49,-2.86,1.11,-0.17,0.17,-0.43,
2.089,7.49,-2.86,1.11,-0.21,-0.15,-0.53,
2.091,7.49,-2.86,1.11,-0.28,-0.46,-0.62,
2.094,7.30,-2.69,-0.21,-0.28,-0.46,-0.62,
2.094,7.30,-2.69,-0.21,-0.36,-0.76,-0.71,
2.096,7.30,-2.69,-0.21,-0.45,-1.04,-0.80,
2.098,7.30,-2.69,-0.21,-0.55,-1.32,-0.90,
2.099,7.30,-2.69,-0.21,-0.66,-1.58,-0.98,
2.102,7.30,-2.69,-0.21,-0.77,-1.82,-1.05,
2.105,6.45,-3.83,-1.23,-0.77,-1.82,-1.05,
2.105,6.45,-3.83,-1.23,-0.88,-2.06,-1.12,
2.106,6.45,-3.83,-1.23,-1.01,-2.29,-1.18,
2.127,6.45,-3.83,-1.23,-1.14,-2.50,-1.24,
2.127,6.45,-3.83,-1.23,-1.28,-2.70,-1.29,
2.128,6.45,-3.83,-1.23,-1.41,-2.87,-1.34,
2.128,5.96,-4.62,-2.58,-1.41,-2.87,-1.34,
2.129,5.96,-4.62,-2.58,-1.53,-3.02,-1.41,
2.129,5.96,-4.62,-2.58,-1.64,-3.14,-1.46,
2.13,5.96,-4.62,-2.58,-1.74,-3.21,-1.52,
2.13,5.96,-4.62,-2.58,-1.83,-3.24,-1.56,
2.131,5.96,-4.62,-2.58,-1.89,-3.25,-1.60,
2.131,5.46,-5.59,-1.75,-1.89,-3.25,-1.60,
2.131,5.46,-5.59,-1.75,-1.93,-3.22,-1.64,
2.132,5.46,-5.59,-1.75,-1.95,-3.15,-1.66,
2.132,5.46,-5.59,-1.75,-1.95,-3.07,-1.68,
2.132,5.46,-5.59,-1.75,-1.93,-2.98,-1.69,
2.133,5.46,-5.59,-1.75,-1.88,-2.87,-1.69,
2.143,3.24,-6.34,-0.51,-1.88,-2.87,-1.69,
2.144,3.24,-6.34,-0.51,-1.80,-2.74,-1.69,
2.144,3.24,-6.34,-0.51,-1.69,-2.57,-1.68,
2.144,3.24,-6.34,-0.51,-1.55,-2.35,-1.66,
2.144,3.24,-6.34,-0.51,-1.38,-2.08,-1.63,
2.145,3.24,-6.34,-0.51,-1.20,-1.76,-1.61,
2.145,0.36,-6.65,0.93,-1.20,-1.76,-1.61,
2.145,0.36,-6.65,0.93,-0.99,-1.42,-1.59,
2.146,0.36,-6.65,0.93,-0.78,-1.06,-1.57,
2.149,0.36,-6.65,0.93,-0.55,-0.69,-1.55,
2.15,0.36,-6.65,0.93,-0.33,-0.33,-1.53,
2.167,0.36,-6.65,0.93,-0.10,0.02,-1.50,
2.168,-3.42,-5.90,1.35,-0.10,0.02,-1.50,
2.168,-3.42,-5.90,1.35,0.12,0.34,-1.47,
2.169,-3.42,-5.90,1.35,0.33,0.62,-1.42,
2.169,-3.42,-5.90,1.35,0.54,0.86,-1.37,
2.169,-3.42,-5.90,1.35,0.73,1.05,-1.31,
2.169,-3.42,-5.90,1.35,0.90,1.18,-1.24,
2.17,-6.06,-4.02,2.03,0.90,1.18,-1.24,
2.17,-6.06,-4.02,2.03,1.05,1.27,-1.16,
2.17,-6.06,-4.02,2.03,1.18,1.31,-1.07,
2.17,-6.06,-4.02,2.03,1.28,1.33,-0.98,
2.17,-6.06,-4.02,2.03,1.35,1.32,-0.88,
2.179,-6.06,-4.02,2.03,1.40,1.29,-0.78,
2.179,-7.88,-2.62,1.11,1.40,1.29,-0.78,
2.18,-7.88,-2.62,1.11,1.43,1.26,-0.67,
2.18,-7.88,-2.62,1.11,1.43,1.23,-0.57,
2.18,-7.88,-2.62,1.11,1.41,1.23,-0.48,
2.18,-7.88,-2.62,1.11,1.38,1.22,-0.39,
2.182,-7.88,-2.62,1.11,1.34,1.23,-0.30,
2.197,-8.36,-1.54,-0.98,1.34,1.23,-0.30,
2.198,-8.36,-1.54,-0.98,1.28,1.25,-0.22,
2.198,-8.36,-1.54,-0.98,1.22,1.28,-0.13,
2.198,-8.36,-1.54,-0.98,1.15,1.32,-0.05,
2.199,-8.36,-1.54,-0.98,1.08,1.37,0.03,
2.199,-8.36,-1.54,-0.98,1.00,1.41,0.11,
2.203,-7.58,-1.16,-2.63,1.00,1.41,0.11,
2.204,-7.58,-1.16,-2.63,0.93,1.46,0.19,
2.204,-7.58,-1.16,-2.63,0.82,1.53,0.31,
2.206,-7.58,-1.16,-2.63,0.75,1.57,0.39,
2.209,-7.58,-1.16,-2.63,0.71,1.59,0.42,
2.209,-7.58,-1.16,-2.63,0.65,1.63,0.47,
2.209,-5.31,-0.77,-3.39,0.65,1.63,0.47,
2.209,-5.31,-0.77,-3.39,0.60,1.66,0.52,
2.21,-5.31,-0.77,-3.39,0.55,1.67,0.56,
2.21,-5.31,-0.77,-3.39,0.51,1.67,0.59,
2.21,-5.31,-0.77,-3.39,0.48,1.66,0.60,
2.212,-5.31,-0.77,-3.39,0.44,1.63,0.61,
2.216,-2.48,-0.86,-2.96,0.44,1.63,0.61,
2.216,-2.48,-0.86,-2.96,0.41,1.59,0.61,
2.216,-2.48,-0.86,-2.96,0.37,1.53,0.60,
2.219,-2.48,-0.86,-2.96,0.34,1.43,0.58,
2.22,-2.48,-0.86,-2.96,0.29,1.30,0.55,
2.222,-2.48,-0.86,-2.96,0.25,1.14,0.51,
2.228,0.22,-0.75,-2.61,0.25,1.14,0.51,
2.228,0.22,-0.75,-2.61,0.19,0.94,0.46,
2.229,0.22,-0.75,-2.61,0.12,0.73,0.40,
2.229,0.22,-0.75,-2.61,0.05,0.50,0.32,
2.231,0.22,-0.75,-2.61,-0.05,0.27,0.23,
2.234,0.22,-0.75,-2.61,-0.15,0.04,0.12,
2.235,3.22,-1.51,-3.29,-0.15,0.04,0.12,
2.235,3.22,-1.51,-3.29,-0.27,-0.18,-0.01,
2.236,3.22,-1.51,-3.29,-0.40,-0.42,-0.15,
2.238,3.22,-1.51,-3.29,-0.53,-0.66,-0.30,
2.24,3.22,-1.51,-3.29,-0.66,-0.90,-0.45,
2.242,3.22,-1.51,-3.29,-0.78,-1.12,-0.60,
2.244,6.06,-2.80,-3.56,-0.78,-1.12,-0.60,
2.246,6.06,-2.80,-3.56,-0.90,-1.32,-0.74,
2.246,6.06,-2.80,-3.56,-1.01,-1.48,-0.87,
2.248,6.06,-2.80,-3.56,-1.11,-1.61,-0.99,
2.25,6.06,-2.80,-3.56,-1.20,-1.72,-1.09,
2.252,6.06,-2.80,-3.56,-1.26,-1.80,-1.17,
2.255,5.77,-2.02,-2.12,-1.26,-1.80,-1.17,
2.255,5.77,-2.02,-2.12,-1.32,-1.85,-1.24,
2.256,5.77,-2.02,-2.12,-1.35,-1.89,-1.28,
2.258,5.77,-2.02,-2.12,-1.36,-1.91,-1.32,
2.26,5.77,-2.02,-2.12,-1.36,-1.91,-1.34,
2.262,5.77,-2.02,-2.12,-1.33,-1.91,-1.35,
2.266,3.96,-0.88,0.19,-1.33,-1.91,-1.35,
2.266,3.96,-0.88,0.19,-1.29,-1.90,-1.35,
2.266,3.96,-0.88,0.19,-1.22,-1.88,-1.35,
2.271,3.96,-0.88,0.19,-1.13,-1.85,-1.34,
2.271,3.96,-0.88,0.19,-1.02,-1.82,-1.32,
2.272,3.96,-0.88,0.19,-0.90,-1.79,-1.30,
2.274,2.62,0.77,2.96,-0.90,-1.79,-1.30,
2.297,2.62,0.77,2.96,-0.77,-1.75,-1.28,
2.297,2.62,0.77,2.96,-0.63,-1.70,-1.26,
2.297,2.62,0.77,2.96,-0.49,-1.64,-1.24,
2.298,2.62,0.77,2.96,-0.35,-1.58,-1.22,
2.298,2.62,0.77,2.96,-0.21,-1.52,-1.21,
2.298,1.75,1.96,3.75,-0.21,-1.52,-1.21,
2.299,1.75,1.96,3.75,-0.08,-1.46,-1.19,
2.299,1.75,1.96,3.75,0.04,-1.39,-1.18,
2.299,1.75,1.96,3.75,0.14,-1.32,-1.17,
2.299,1.75,1.96,3.75,0.23,-1.23,-1.15,
2.3,1.75,1.96,3.75,0.31,-1.13,-1.14,
2.3,1.61,2.71,2.53,0.31,-1.13,-1.14,
2.3,1.61,2.71,2.53,0.37,-1.02,-1.12,
2.3,1.61,2.71,2.53,0.41,-0.89,-1.09,
2.301,1.61,2.71,2.53,0.44,-0.77,-1.07,
2.301,1.61,2.71,2.53,0.45,-0.64,-1.04,
2.311,1.61,2.71,2.53,0.45,-0.54,-1.01,
2.311,1.70,3.01,0.21,0.45,-0.54,-1.01,
2.312,1.70,3.01,0.21,0.42,-0.45,-0.99,
2.312,1.70,3.01,0.21,0.38,-0.37,-0.98,
2.312,1.70,3.01,0.21,0.33,-0.30,-0.99,
2.312,1.70,3.01,0.21,0.26,-0.23,-1.01,
2.313,1.70,3.01,0.21,0.19,-0.16,-1.04,
2.314,2.78,2.82,-1.77,0.19,-0.16,-1.04,
2.314,2.78,2.82,-1.77,0.10,-0.08,-1.07,
2.317,2.78,2.82,-1.77,0.02,-0.01,-1.12,
2.318,2.78,2.82,-1.77,-0.07,0.07,-1.16,
2.32,2.78,2.82,-1.77,-0.14,0.14,-1.21,
2.327,2.78,2.82,-1.77,-0.22,0.21,-1.24,
2.327,2.05,2.86,-1.93,-0.22,0.21,-1.24,
2.327,2.05,2.86,-1.93,-0.28,0.27,-1.28,
2.328,2.05,2.86,-1.93,-0.33,0.32,-1.30,
2.33,2.05,2.86,-1.93,-0.37,0.37,-1.31,
2.331,2.05,2.86,-1.93,-0.41,0.41,-1.31,
2.332,2.05,2.86,-1.93,-0.43,0.45,-1.30,
2.336,0.84,4.03,-0.44,-0.43,0.45,-1.30,
2.337,0.84,4.03,-0.44,-0.45,0.49,-1.27,
2.337,0.84,4.03,-0.44,-0.45,0.52,-1.23,
2.339,0.84,4.03,-0.44,-0.45,0.55,-1.18,
2.339,0.84,4.03,-0.44,-0.45,0.57,-1.11,
2.342,0.84,4.03,-0.44,-0.44,0.60,-1.03,
2.344,-1.11,5.53,1.46,-0.44,0.60,-1.03,
2.345,-1.11,5.53,1.46,-0.43,0.61,-0.94,
2.346,-1.11,5.53,1.46,-0.41,0.62,-0.84,
2.347,-1.11,5.53,1.46,-0.38,0.63,-0.74,
2.35,-1.11,5.53,1.46,-0.35,0.63,-0.63,
2.352,-1.11,5.53,1.46,-0.32,0.62,-0.52,
2.354,-2.49,6.68,3.50,-0.32,0.62,-0.52,
2.354,-2.49,6.68,3.50,-0.29,0.60,-0.41,
2.356,-2.49,6.68,3.50,-0.26,0.58,-0.30,
2.357,-2.49,6.68,3.50,-0.22,0.56,-0.20,
2.359,-2.49,6.68,3.50,-0.20,0.55,-0.10,
2.362,-2.49,6.68,3.50,-0.17,0.55,0.00,
2.364,-3.35,6.55,4.18,-0.17,0.55,0.00,
2.364,-3.35,6.55,4.18,-0.15,0.56,0.09,
2.366,-3.35,6.55,4.18,-0.14,0.58,0.17,
2.367,-3.35,6.55,4.18,-0.13,0.60,0.24,
2.37,-3.35,6.55,4.18,-0.12,0.62,0.31,
2.371,-3.35,6.55,4.18,-0.11,0.63,0.36,
2.374,-3.20,5.60,3.61,-0.11,0.63,0.36,
2.374,-3.20,5.60,3.61,-0.10,0.64,0.41,
2.376,-3.20,5.60,3.61,-0.09,0.64,0.45,
2.377,-3.20,5.60,3.61,-0.08,0.62,0.49,
2.379,-3.20,5.60,3.61,-0.07,0.59,0.51,
2.381,-3.20,5.60,3.61,-0.06,0.55,0.53,
2.385,-2.59,4.47,2.47,-0.06,0.55,0.53,
2.385,-2.59,4.47,2.47,-0.07,0.52,0.55,
2.386,-2.59,4.47,2.47,-0.07,0.48,0.55,
2.388,-2.59,4.47,2.47,-0.08,0.45,0.55,
2.389,-2.59,4.47,2.47,-0.09,0.42,0.55,
2.391,-2.59,4.47,2.47,-0.11,0.39,0.54,
2.394,-2.32,3.19,1.17,-0.11,0.39,0.54,
2.394,-2.32,3.19,1.17,-0.13,0.37,0.53,
2.396,-2.32,3.19,1.17,-0.15,0.36,0.51,
2.397,-2.32,3.19,1.17,-0.16,0.34,0.48,
2.411,-2.32,3.19,1.17,-0.18,0.33,0.45,
2.412,-2.32,3.19,1.17,-0.19,0.32,0.42,
2.412,-1.60,1.92,0.30,-0.19,0.32,0.42,
2.412,-1.60,1.92,0.30,-0.21,0.32,0.38,
2.412,-1.60,1.92,0.30,-0.22,0.30,0.34,
2.412,-1.60,1.92,0.30,-0.23,0.29,0.30,
2.412,-1.60,1.92,0.30,-0.24,0.28,0.26,
2.412,-1.60,1.92,0.30,-0.25,0.27,0.22,
2.414,-0.78,1.23,0.19,-0.25,0.27,0.22,
2.414,-0.78,1.23,0.19,-0.26,0.25,0.18,
2.42,-0.78,1.23,0.19,-0.27,0.24,0.13,
2.421,-0.78,1.23,0.19,-0.27,0.23,0.09,
2.421,-0.78,1.23,0.19,-0.28,0.22,0.06,
2.422,-0.78,1.23,0.19,-0.29,0.22,0.02,
2.424,0.28,0.96,-0.21,-0.29,0.22,0.02,
2.424,0.28,0.96,-0.21,-0.30,0.23,-0.01,
2.43,0.28,0.96,-0.21,-0.35,0.31,-0.08,
2.431,0.28,0.96,-0.21,-0.35,0.31,-0.08,
2.432,0.28,0.96,-0.21,-0.35,0.31,-0.08,
2.433,0.28,0.96,-0.21,-0.38,0.37,-0.09,
2.433,0.28,0.96,-0.21,-0.39,0.39,-0.09,
2.434,0.80,1.17,-0.87,-0.39,0.39,-0.09,
2.436,0.80,1.17,-0.87,-0.41,0.44,-0.08,
2.438,0.80,1.17,-0.87,-0.42,0.49,-0.06,
2.44,0.80,1.17,-0.87,-0.43,0.55,-0.03,
2.473,0.80,1.17,-0.87,-0.43,0.60,0.01,
2.474,0.04,1.06,-0.38,-0.43,0.60,0.01,
2.474,0.04,1.06,-0.38,-0.41,0.66,0.05,
2.474,0.04,1.06,-0.38,-0.39,0.73,0.09,
2.475,0.04,1.06,-0.38,-0.36,0.78,0.13,
2.475,0.04,1.06,-0.38,-0.32,0.83,0.16,
2.476,0.04,1.06,-0.38,-0.27,0.87,0.18,
2.476,-0.11,0.86,1.47,-0.27,0.87,0.18,
2.477,-0.11,0.86,1.47,-0.22,0.90,0.19,
2.477,-0.11,0.86,1.47,-0.16,0.91,0.20,
2.477,-0.11,0.86,1.47,-0.11,0.92,0.19,
2.478,-0.11,0.86,1.47,-0.06,0.94,0.19,
2.478,-0.11,0.86,1.47,-0.01,0.96,0.18,
2.479,0.53,0.56,2.23,-0.01,0.96,0.18,
2.479,0.53,0.56,2.23,0.03,0.97,0.18,
2.479,0.53,0.56,2.23,0.06,0.96,0.17,
2.48,0.53,0.56,2.23,0.09,0.94,0.17,
2.48,0.53,0.56,2.23,0.11,0.90,0.17,
2.481,0.53,0.56,2.23,0.11,0.87,0.17,
2.481,0.60,0.31,1.54,0.11,0.87,0.17,
2.481,0.60,0.31,1.54,0.10,0.83,0.17,
2.482,0.60,0.31,1.54,0.07,0.78,0.18,
2.482,0.60,0.31,1.54,0.03,0.75,0.18,
2.483,0.60,0.31,1.54,-0.01,0.72,0.18,
2.483,0.60,0.31,1.54,-0.06,0.69,0.18,
2.496,0.76,-0.02,-0.16,-0.06,0.69,0.18,
2.496,0.76,-0.02,-0.16,-0.11,0.66,0.17,
2.496,0.76,-0.02,-0.16,-0.17,0.63,0.17,
2.497,0.76,-0.02,-0.16,-0.24,0.61,0.17,
2.497,0.76,-0.02,-0.16,-0.29,0.58,0.16,
2.497,0.76,-0.02,-0.16,-0.35,0.56,0.16,
2.497,1.02,-0.68,-1.32,-0.35,0.56,0.16,
2.498,1.02,-0.68,-1.32,-0.40,0.53,0.15,
2.498,1.02,-0.68,-1.32,-0.46,0.51,0.14,
2.498,1.02,-0.68,-1.32,-0.51,0.50,0.14,
2.501,1.02,-0.68,-1.32,-0.55,0.49,0.14,
2.51,1.02,-0.68,-1.32,-0.59,0.48,0.13,
2.511,0.68,-1.38,-1.21,-0.59,0.48,0.13,
2.511,0.68,-1.38,-1.21,-0.61,0.49,0.13,
2.512,0.68,-1.38,-1.21,-0.62,0.49,0.13,
2.512,0.68,-1.38,-1.21,-0.63,0.50,0.13,
2.512,0.68,-1.38,-1.21,-0.63,0.51,0.14,
2.512,0.68,-1.38,-1.21,-0.62,0.52,0.15,
2.514,-0.16,-1.57,-0.43,-0.62,0.52,0.15,
2.514,-0.16,-1.57,-0.43,-0.60,0.52,0.17,
2.522,-0.16,-1.57,-0.43,-0.58,0.53,0.19,
2.522,-0.16,-1.57,-0.43,-0.56,0.54,0.22,
2.523,-0.16,-1.57,-0.43,-0.54,0.54,0.25,
2.523,-0.16,-1.57,-0.43,-0.51,0.54,0.28,
2.524,-1.01,-1.37,0.03,-0.51,0.54,0.28,
2.524,-1.01,-1.37,0.03,-0.48,0.54,0.32,
2.528,-1.01,-1.37,0.03,-0.45,0.53,0.36,
2.528,-1.01,-1.37,0.03,-0.43,0.53,0.39,
2.53,-1.01,-1.37,0.03,-0.40,0.53,0.43,
2.579,-1.01,-1.37,0.03,-0.38,0.54,0.47,
2.58,-1.07,-1.07,0.04,-0.38,0.54,0.47,
2.58,-1.07,-1.07,0.04,-0.36,0.55,0.51,
2.58,-1.07,-1.07,0.04,-0.35,0.55,0.54,
2.58,-1.07,-1.07,0.04,-0.33,0.57,0.58,
2.581,-1.07,-1.07,0.04,-0.31,0.59,0.61,
2.581,-1.07,-1.07,0.04,-0.29,0.62,0.64,
2.581,-0.55,-1.11,-0.42,-0.29,0.62,0.64,
2.581,-0.55,-1.11,-0.42,-0.28,0.64,0.67,
2.581,-0.55,-1.11,-0.42,-0.25,0.65,0.71,
2.582,-0.55,-1.11,-0.42,-0.24,0.65,0.73,
2.582,-0.55,-1.11,-0.42,-0.24,0.65,0.74,
2.582,-0.55,-1.11,-0.42,-0.23,0.63,0.77,
2.582,-0.20,-0.96,-1.37,-0.23,0.63,0.77,
2.582,-0.20,-0.96,-1.37,-0.23,0.60,0.79,
2.582,-0.20,-0.96,-1.37,-0.24,0.58,0.82,
2.583,-0.20,-0.96,-1.37,-0.25,0.55,0.85,
2.583,-0.20,-0.96,-1.37,-0.27,0.52,0.87,
2.583,-0.20,-0.96,-1.37,-0.29,0.49,0.88,
2.583,0.26,-0.67,-2.63,-0.29,0.49,0.88,
2.583,0.26,-0.67,-2.63,-0.32,0.46,0.89,
2.584,0.26,-0.67,-2.63,-0.35,0.43,0.89,
2.584,0.26,-0.67,-2.63,-0.39,0.41,0.89,
2.584,0.26,-0.67,-2.63,-0.42,0.38,0.89,
2.584,0.26,-0.67,-2.63,-0.45,0.35,0.88,
2.584,0.28,-1.38,-3.53,-0.45,0.35,0.88,
2.585,0.28,-1.38,-3.53,-0.47,0.33,0.89,
2.585,0.28,-1.38,-3.53,-0.49,0.30,0.88,
2.585,0.28,-1.38,-3.53,-0.50,0.28,0.88,
2.585,0.28,-1.38,-3.53,-0.50,0.25,0.87,
2.585,0.28,-1.38,-3.53,-0.50,0.23,0.87,
2.587,-0.02,-1.67,-2.47,-0.50,0.23,0.87,
2.587,-0.02,-1.67,-2.47,-0.49,0.21,0.86,
2.588,-0.02,-1.67,-2.47,-0.47,0.18,0.85,
2.59,-0.02,-1.67,-2.47,-0.44,0.15,0.85,
2.593,-0.02,-1.67,-2.47,-0.41,0.12,0.85,
2.594,-0.02,-1.67,-2.47,-0.38,0.09,0.85,
2.595,-0.77,-1.66,-0.81,-0.38,0.09,0.85,
2.595,-0.77,-1.66,-0.81,-0.33,0.06,0.85,
2.596,-0.77,-1.66,-0.81,-0.28,0.03,0.85,
2.599,-0.77,-1.66,-0.81,-0.24,-0.00,0.86,
2.6,-0.77,-1.66,-0.81,-0.19,-0.04,0.86,
2.602,-0.77,-1.66,-0.81,-0.14,-0.07,0.86,
2.604,-1.29,-1.54,0.41,-0.14,-0.07,0.86,
2.604,-1.29,-1.54,0.41,-0.09,-0.10,0.86,
2.606,-1.29,-1.54,0.41,-0.04,-0.11,0.86,
2.623,-1.29,-1.54,0.41,0.00,-0.13,0.86,
2.623,-1.29,-1.54,0.41,0.04,-0.14,0.85,
2.624,-1.29,-1.54,0.41,0.07,-0.15,0.85,
2.624,-1.64,-1.55,0.24,0.07,-0.15,0.85,
2.625,-1.64,-1.55,0.24,0.10,-0.16,0.83,
2.625,-1.64,-1.55,0.24,0.12,-0.16,0.82,
2.625,-1.64,-1.55,0.24,0.13,-0.16,0.80,
2.625,-1.64,-1.55,0.24,0.14,-0.15,0.78,
2.626,-1.64,-1.55,0.24,0.15,-0.14,0.77,
2.626,-1.43,-1.53,-0.19,0.15,-0.14,0.77,
2.626,-1.43,-1.53,-0.19,0.16,-0.12,0.76,
2.626,-1.43,-1.53,-0.19,0.18,-0.13,0.75,
2.631,-1.43,-1.53,-0.19,0.19,-0.14,0.75,
2.631,-1.43,-1.53,-0.19,0.21,-0.18,0.76,
2.634,-1.43,-1.53,-0.19,0.23,-0.22,0.77,
2.634,-1.33,-1.45,0.00,0.23,-0.22,0.77,
2.634,-1.33,-1.45,0.00,0.25,-0.27,0.77,
2.636,-1.33,-1.45,0.00,0.28,-0.33,0.77,
2.638,-1.33,-1.45,0.00,0.30,-0.39,0.78,
2.641,-1.33,-1.45,0.00,0.32,-0.46,0.77,
2.642,-1.33,-1.45,0.00,0.32,-0.52,0.77,
2.645,-0.77,-1.12,-0.79,0.32,-0.52,0.77,
2.645,-0.77,-1.12,-0.79,0.32,-0.59,0.76,
2.647,-0.77,-1.12,-0.79,0.32,-0.66,0.75,
2.649,-0.77,-1.12,-0.79,0.30,-0.72,0.74,
2.65,-0.77,-1.12,-0.79,0.27,-0.78,0.74,
2.653,-0.77,-1.12,-0.79,0.23,-0.84,0.74,
2.654,-0.25,-0.72,-2.37,0.23,-0.84,0.74,
2.655,-0.25,-0.72,-2.37,0.19,-0.88,0.74,
2.656,-0.25,-0.72,-2.37,0.15,-0.92,0.76,
2.658,-0.25,-0.72,-2.37,0.10,-0.95,0.78,
2.66,-0.25,-0.72,-2.37,0.06,-0.98,0.80,
2.67,-0.25,-0.72,-2.37,0.01,-1.01,0.82,
2.671,-0.46,-0.43,-2.63,0.01,-1.01,0.82,
2.672,-0.46,-0.43,-2.63,-0.03,-1.04,0.86,
2.672,-0.46,-0.43,-2.63,-0.07,-1.06,0.90,
2.672,-0.46,-0.43,-2.63,-0.11,-1.07,0.94,
2.674,-0.46,-0.43,-2.63,-0.14,-1.08,0.99,
2.674,-0.46,-0.43,-2.63,-0.17,-1.07,1.03,
2.677,-0.72,-0.16,-1.78,-0.17,-1.07,1.03,
2.677,-0.72,-0.16,-1.78,-0.19,-1.06,1.06,
2.677,-0.72,-0.16,-1.78,-0.21,-1.05,1.10,
2.678,-0.72,-0.16,-1.78,-0.21,-1.03,1.14,
2.68,-0.72,-0.16,-1.78,-0.21,-0.99,1.17,
2.696,-0.72,-0.16,-1.78,-0.21,-0.95,1.19,
2.697,-0.50,-0.45,-0.93,-0.21,-0.95,1.19,
2.697,-0.50,-0.45,-0.93,-0.20,-0.89,1.20,
2.697,-0.50,-0.45,-0.93,-0.19,-0.83,1.21,
2.697,-0.50,-0.45,-0.93,-0.18,-0.75,1.20,
2.697,-0.50,-0.45,-0.93,-0.16,-0.66,1.18,
2.697,-0.50,-0.45,-0.93,-0.15,-0.57,1.15,
2.697,0.51,-1.07,-0.81,-0.15,-0.57,1.15,
2.697,0.51,-1.07,-0.81,-0.14,-0.48,1.11,
2.698,0.51,-1.07,-0.81,-0.14,-0.40,1.07,
2.698,0.51,-1.07,-0.81,-0.14,-0.32,1.02,
2.7,0.51,-1.07,-0.81,-0.13,-0.26,0.96,
2.709,0.51,-1.07,-0.81,-0.13,-0.20,0.90,
2.71,0.99,-1.27,-0.45,-0.13,-0.20,0.90,
2.711,0.99,-1.27,-0.45,-0.13,-0.15,0.85,
2.711,0.99,-1.27,-0.45,-0.12,-0.12,0.79,
2.711,0.99,-1.27,-0.45,-0.11,-0.09,0.71,
2.712,0.99,-1.27,-0.45,-0.11,-0.09,0.68,
2.712,0.99,-1.27,-0.45,-0.11,-0.10,0.63,
2.715,0.30,-0.52,0.22,-0.11,-0.10,0.63,
2.715,0.30,-0.52,0.22,-0.11,-0.13,0.59,
2.718,0.30,-0.52,0.22,-0.11,-0.18,0.54,
2.718,0.30,-0.52,0.22,-0.11,-0.24,0.50,
2.719,0.30,-0.52,0.22,-0.12,-0.31,0.47,
2.721,0.30,-0.52,0.22,-0.13,-0.38,0.43,
2.724,-0.02,0.58,-0.22,-0.13,-0.38,0.43,
2.724,-0.02,0.58,-0.22,-0.16,-0.45,0.41,
2.726,-0.02,0.58,-0.22,-0.18,-0.51,0.39,
2.727,-0.02,0.58,-0.22,-0.22,-0.58,0.38,
2.729,-0.02,0.58,-0.22,-0.25,-0.64,0.38,
2.731,-0.02,0.58,-0.22,-0.28,-0.69,0.38,
2.734,-0.49,1.41,-1.21,-0.28,-0.69,0.38,
2.734,-0.49,1.41,-1.21,-0.32,-0.73,0.40,
2.736,-0.49,1.41,-1.21,-0.35,-0.75,0.42,
2.738,-0.49,1.41,-1.21,-0.38,-0.77,0.44,
2.739,-0.49,1.41,-1.21,-0.41,-0.78,0.47,
2.741,-0.49,1.41,-1.21,-0.43,-0.77,0.50,
2.744,-0.32,1.61,-1.54,-0.43,-0.77,0.50,
2.744,-0.32,1.61,-1.54,-0.45,-0.76,0.53,
2.746,-0.32,1.61,-1.54,-0.46,-0.74,0.57,
2.748,-0.32,1.61,-1.54,-0.47,-0.71,0.59,
2.749,-0.32,1.61,-1.54,-0.46,-0.69,0.62,
2.753,-0.32,1.61,-1.54,-0.46,-0.66,0.65,
2.754,0.36,1.20,-0.71,-0.46,-0.66,0.65,
2.754,0.36,1.20,-0.71,-0.44,-0.64,0.67,
2.757,0.36,1.20,-0.71,-0.43,-0.62,0.70,
2.758,0.36,1.20,-0.71,-0.41,-0.60,0.72,
2.759,0.36,1.20,-0.71,-0.38,-0.59,0.73,
2.762,0.36,1.20,-0.71,-0.36,-0.59,0.74,
2.764,1.31,0.45,0.75,-0.36,-0.59,0.74,
2.765,1.31,0.45,0.75,-0.33,-0.60,0.74,
2.766,1.31,0.45,0.75,-0.31,-0.61,0.74,
2.768,1.31,0.45,0.75,-0.27,-0.62,0.74,
2.771,1.31,0.45,0.75,-0.23,-0.63,0.73,
2.772,1.31,0.45,0.75,-0.19,-0.63,0.72,
2.774,2.73,-0.77,2.36,-0.19,-0.63,0.72,
2.805,2.73,-0.77,2.36,-0.15,-0.62,0.70,
2.805,2.73,-0.77,2.36,-0.10,-0.60,0.67,
2.806,2.73,-0.77,2.36,-0.06,-0.55,0.64,
2.806,2.73,-0.77,2.36,-0.02,-0.49,0.61,
2.807,2.73,-0.77,2.36,0.02,-0.42,0.57,
2.807,3.50,-1.95,2.86,0.02,-0.42,0.57,
2.807,3.50,-1.95,2.86,0.05,-0.34,0.53,
2.808,3.50,-1.95,2.86,0.08,-0.24,0.49,
2.808,3.50,-1.95,2.86,0.10,-0.13,0.45,
2.809,3.50,-1.95,2.86,0.12,-0.02,0.41,
2.809,3.50,-1.95,2.86,0.13,0.08,0.37,
2.809,3.00,-1.86,2.46,0.13,0.08,0.37,
2.81,3.00,-1.86,2.46,0.15,0.17,0.33,
2.81,3.00,-1.86,2.46,0.16,0.26,0.29,
2.811,3.00,-1.86,2.46,0.18,0.34,0.26,
2.811,3.00,-1.86,2.46,0.19,0.41,0.23,
2.812,3.00,-1.86,2.46,0.20,0.47,0.19,
2.812,2.07,-0.79,2.25,0.20,0.47,0.19,
2.812,2.07,-0.79,2.25,0.21,0.52,0.17,
2.813,2.07,-0.79,2.25,0.20,0.57,0.15,
2.813,2.07,-0.79,2.25,0.20,0.62,0.14,
2.813,2.07,-0.79,2.25,0.18,0.68,0.14,
2.814,2.07,-0.79,2.25,0.16,0.73,0.14,
2.814,0.79,0.39,0.89,0.16,0.73,0.14,
2.815,0.79,0.39,0.89,0.13,0.77,0.15,
2.821,0.79,0.39,0.89,0.10,0.80,0.17,
2.821,0.79,0.39,0.89,0.06,0.82,0.19,
2.822,0.79,0.39,0.89,0.02,0.82,0.22,
2.822,0.79,0.39,0.89,-0.02,0.80,0.26,
2.825,-0.59,1.37,-0.49,-0.02,0.80,0.26,
2.825,-0.59,1.37,-0.49,-0.07,0.78,0.31,
2.829,-0.59,1.37,-0.49,-0.11,0.74,0.35,
2.829,-0.59,1.37,-0.49,-0.16,0.71,0.39,
2.83,-0.59,1.37,-0.49,-0.21,0.68,0.43,
2.836,-0.59,1.37,-0.49,-0.25,0.65,0.46,
2.838,-0.44,1.53,-1.76,-0.25,0.65,0.46,
2.839,-0.44,1.53,-1.76,-0.29,0.63,0.48,
2.839,-0.44,1.53,-1.76,-0.33,0.61,0.50,
2.839,-0.44,1.53,-1.76,-0.39,0.59,0.52,
2.846,-0.44,1.53,-1.76,-0.42,0.58,0.52,
2.863,-0.44,1.53,-1.76,-0.43,0.57,0.51,
2.864,-0.01,0.91,-2.27,-0.43,0.57,0.51,
2.864,-0.01,0.91,-2.27,-0.45,0.55,0.50,
2.864,-0.01,0.91,-2.27,-0.46,0.51,0.49,
2.865,-0.01,0.91,-2.27,-0.47,0.46,0.46,
2.866,-0.01,0.91,-2.27,-0.46,0.40,0.43,
2.867,-0.01,0.91,-2.27,-0.44,0.34,0.40,
2.868,0.56,-0.16,-1.24,-0.44,0.34,0.40,
2.868,0.56,-0.16,-1.24,-0.41,0.29,0.37,
2.868,0.56,-0.16,-1.24,-0.38,0.25,0.32,
2.868,0.56,-0.16,-1.24,-0.35,0.23,0.28,
2.869,0.56,-0.16,-1.24,-0.31,0.22,0.23,
2.869,0.56,-0.16,-1.24,-0.28,0.22,0.19,
2.869,0.76,-1.24,-0.66,-0.28,0.22,0.19,
2.869,0.76,-1.24,-0.66,-0.24,0.23,0.15,
2.869,0.76,-1.24,-0.66,-0.20,0.25,0.12,
2.87,0.76,-1.24,-0.66,-0.16,0.27,0.09,
2.87,0.76,-1.24,-0.66,-0.11,0.28,0.06,
2.874,0.76,-1.24,-0.66,-0.07,0.30,0.04,
2.874,0.01,-1.51,0.07,-0.07,0.30,0.04,
2.874,0.01,-1.51,0.07,-0.04,0.32,0.02,
2.876,0.01,-1.51,0.07,-0.00,0.34,0.01,
2.878,0.01,-1.51,0.07,0.02,0.35,0.01,
2.881,0.01,-1.51,0.07,0.04,0.37,0.01,
2.883,0.01,-1.51,0.07,0.06,0.37,0.02,
2.885,-1.18,-1.16,0.27,0.06,0.37,0.02,
2.885,-1.18,-1.16,0.27,0.06,0.38,0.05,
2.886,-1.18,-1.16,0.27,0.07,0.39,0.07,
2.888,-1.18,-1.16,0.27,0.06,0.41,0.10,
2.889,-1.18,-1.16,0.27,0.05,0.42,0.14,
2.895,-1.18,-1.16,0.27,0.03,0.43,0.19,
2.901,-2.30,-0.78,-0.17,0.03,0.43,0.19,
2.902,-2.30,-0.78,-0.17,0.01,0.45,0.23,
2.902,-2.30,-0.78,-0.17,-0.03,0.48,0.30,
2.902,-2.30,-0.78,-0.17,-0.05,0.50,0.34,
2.902,-2.30,-0.78,-0.17,-0.07,0.52,0.35,
2.903,-2.30,-0.78,-0.17,-0.09,0.54,0.39,
2.906,-2.28,-0.69,-0.55,-0.09,0.54,0.39,
2.906,-2.28,-0.69,-0.55,-0.12,0.55,0.42,
2.906,-2.28,-0.69,-0.55,-0.14,0.55,0.46,
2.922,-2.28,-0.69,-0.55,-0.16,0.55,0.49,
2.922,-2.28,-0.69,-0.55,-0.19,0.52,0.52,
2.922,-2.28,-0.69,-0.55,-0.21,0.48,0.55,
2.923,-2.01,-0.63,-0.63,-0.21,0.48,0.55,
2.923,-2.01,-0.63,-0.63,-0.23,0.44,0.59,
2.923,-2.01,-0.63,-0.63,-0.26,0.40,0.61,
2.923,-2.01,-0.63,-0.63,-0.29,0.35,0.64,
2.923,-2.01,-0.63,-0.63,-0.32,0.29,0.67,
2.924,-2.01,-0.63,-0.63,-0.37,0.22,0.69,
2.925,-1.19,-0.41,-0.93,-0.37,0.22,0.69,
2.925,-1.19,-0.41,-0.93,-0.42,0.14,0.71,
2.926,-1.19,-0.41,-0.93,-0.49,0.07,0.73,
2.929,-1.19,-0.41,-0.93,-0.59,-0.02,0.76,
2.935,-1.19,-0.41,-0.93,-0.62,-0.05,0.77,
2.935,-1.19,-0.41,-0.93,-0.69,-0.10,0.79,
2.936,0.06,-0.39,-1.14,-0.69,-0.10,0.79,
2.936,0.06,-0.39,-1.14,-0.76,-0.16,0.80,
2.936,0.06,-0.39,-1.14,-0.82,-0.20,0.81,
2.938,0.06,-0.39,-1.14,-0.87,-0.24,0.80,
2.94,0.06,-0.39,-1.14,-0.89,-0.29,0.80,
2.959,0.06,-0.39,-1.14,-0.91,-0.33,0.79,
2.959,1.94,-1.01,-0.08,-0.91,-0.33,0.79,
2.959,1.94,-1.01,-0.08,-0.91,-0.36,0.77,
2.961,1.94,-1.01,-0.08,-0.90,-0.38,0.75,
2.961,1.94,-1.01,-0.08,-0.88,-0.40,0.73,
2.961,1.94,-1.01,-0.08,-0.85,-0.41,0.71,
2.961,1.94,-1.01,-0.08,-0.80,-0.42,0.68,
2.962,3.04,-2.21,1.07,-0.80,-0.42,0.68,
2.962,3.04,-2.21,1.07,-0.75,-0.41,0.65,
2.962,3.04,-2.21,1.07,-0.69,-0.40,0.62,
2.962,3.04,-2.21,1.07,-0.62,-0.38,0.57,
2.962,3.04,-2.21,1.07,-0.55,-0.37,0.52,
2.963,3.04,-2.21,1.07,-0.48,-0.33,0.47,
2.967,3.80,-2.68,1.38,-0.48,-0.33,0.47,
2.967,3.80,-2.68,1.38,-0.40,-0.29,0.43,
2.968,3.80,-2.68,1.38,-0.33,-0.24,0.38,
2.968,3.80,-2.68,1.38,-0.22,-0.14,0.31,
2.97,3.80,-2.68,1.38,-0.19,-0.10,0.29,
2.977,3.80,-2.68,1.38,-0.12,-0.02,0.25,
2.978,2.80,-2.22,0.65,-0.12,-0.02,0.25,
2.978,2.80,-2.22,0.65,-0.06,0.06,0.22,
2.979,2.80,-2.22,0.65,0.00,0.15,0.20,
2.979,2.80,-2.22,0.65,0.06,0.24,0.18,
2.982,2.80,-2.22,0.65,0.10,0.32,0.17,
2.983,2.80,-2.22,0.65,0.14,0.41,0.16,
2.985,0.96,-0.90,-0.04,0.14,0.41,0.16,
2.985,0.96,-0.90,-0.04,0.17,0.49,0.17,
2.986,0.96,-0.90,-0.04,0.20,0.56,0.18,
2.988,0.96,-0.90,-0.04,0.22,0.62,0.20,
2.99,0.96,-0.90,-0.04,0.24,0.67,0.22,
2.992,0.96,-0.90,-0.04,0.26,0.71,0.24,
2.997,-0.56,0.51,-0.18,0.26,0.71,0.24,
2.997,-0.56,0.51,-0.18,0.28,0.75,0.27,
2.997,-0.56,0.51,-0.18,0.30,0.80,0.29,
2.998,-0.56,0.51,-0.18,0.32,0.83,0.32,
3.0,-0.56,0.51,-0.18,0.33,0.85,0.36,
3.003,-0.56,0.51,-0.18,0.35,0.87,0.39,
3.004,-1.35,1.27,-0.13,0.35,0.87,0.39,
3.005,-1.35,1.27,-0.13,0.36,0.88,0.42,
3.006,-1.35,1.27,-0.13,0.37,0.89,0.46,
3.007,-1.35,1.27,-0.13,0.38,0.90,0.48,
3.009,-1.35,1.27,-0.13,0.38,0.90,0.49,
3.011,-1.35,1.27,-0.13,0.38,0.91,0.51,
3.014,-1.53,1.66,-0.13,0.38,0.91,0.51,
3.014,-1.53,1.66,-0.13,0.38,0.91,0.52,
3.016,-1.53,1.66,-0.13,0.38,0.91,0.53,
3.018,-1.53,1.66,-0.13,0.37,0.90,0.54,
3.021,-1.53,1.66,-0.13,0.36,0.88,0.54,
3.021,-1.53,1.66,-0.13,0.35,0.85,0.54,
3.024,-1.20,1.53,-0.28,0.35,0.85,0.54,
3.024,-1.20,1.53,-0.28,0.34,0.82,0.54,
3.026,-1.20,1.53,-0.28,0.33,0.78,0.53,
3.028,-1.20,1.53,-0.28,0.33,0.74,0.52,
3.031,-1.20,1.53,-0.28,0.32,0.71,0.51,
3.032,-1.20,1.53,-0.28,0.33,0.66,0.50,
3.034,-0.46,1.35,-0.06,0.33,0.66,0.50,
3.034,-0.46,1.35,-0.06,0.33,0.62,0.49,
3.036,-0.46,1.35,-0.06,0.33,0.58,0.48,
3.038,-0.46,1.35,-0.06,0.35,0.55,0.47,
3.039,-0.46,1.35,-0.06,0.36,0.54,0.48,
3.041,-0.46,1.35,-0.06,0.37,0.54,0.47,
3.044,-0.13,1.17,-0.20,0.37,0.54,0.47,
3.044,-0.13,1.17,-0.20,0.38,0.55,0.47,
3.046,-0.13,1.17,-0.20,0.39,0.56,0.48,
3.049,-0.13,1.17,-0.20,0.41,0.57,0.48,
3.05,-0.13,1.17,-0.20,0.42,0.60,0.49,
3.051,-0.13,1.17,-0.20,0.43,0.62,0.49,
3.054,-0.16,1.05,-0.42,0.43,0.62,0.49,
3.054,-0.16,1.05,-0.42,0.45,0.66,0.49,
3.056,-0.16,1.05,-0.42,0.47,0.70,0.50,
3.057,-0.16,1.05,-0.42,0.49,0.75,0.51,
3.059,-0.16,1.05,-0.42,0.51,0.81,0.51,
3.061,-0.16,1.05,-0.42,0.54,0.87,0.54,
3.064,-0.39,1.35,-0.35,0.54,0.87,0.54,
3.064,-0.39,1.35,-0.35,0.57,0.96,0.57,
3.069,-0.39,1.35,-0.35,0.61,1.07,0.63,
3.069,-0.39,1.35,-0.35,0.68,1.13,0.79,
3.07,-0.39,1.35,-0.35,0.81,0.96,0.87,
3.071,-0.39,1.35,-0.35,0.97,0.90,0.82,
3.074,-0.71,0.57,3.81,0.97,0.90,0.82,
3.074,-0.71,0.57,3.81,1.12,0.98,0.77,
3.075,-0.71,0.57,3.81,1.22,0.99,0.80,
3.077,-0.71,0.57,3.81,1.30,0.92,0.86,
3.084,-0.71,0.57,3.81,1.40,0.86,0.91,
3.084,-0.71,0.57,3.81,1.47,0.78,0.94,
3.084,-3.23,2.83,2.49,1.47,0.78,0.94,
3.085,-3.23,2.83,2.49,1.48,0.74,0.95,
3.091,-3.23,2.83,2.49,1.45,0.75,0.93,
3.091,-3.23,2.83,2.49,1.32,0.86,0.88,
3.092,-3.23,2.83,2.49,1.27,0.91,0.86,
3.092,-3.23,2.83,2.49,1.17,0.97,0.82,
3.096,-0.13,2.12,-1.64,1.17,0.97,0.82,
3.096,-0.13,2.12,-1.64,1.07,0.95,0.79,
3.096,-0.13,2.12,-1.64,0.95,0.86,0.76,
3.111,-0.13,2.12,-1.64,0.75,0.66,0.69,
3.111,-0.13,2.12,-1.64,0.68,0.58,0.68,
3.111,-0.13,2.12,-1.64,0.54,0.47,0.63,
3.111,1.02,0.59,-1.00,0.54,0.47,0.63,
3.112,1.02,0.59,-1.00,0.43,0.42,0.57,
3.112,1.02,0.59,-1.00,0.33,0.39,0.51,
3.125,1.02,0.59,-1.00,0.25,0.37,0.44,
3.126,1.02,0.59,-1.00,0.16,0.35,0.37,
3.126,1.02,0.59,-1.00,0.08,0.33,0.29,
3.126,2.14,-1.16,1.19,0.08,0.33,0.29,
3.126,2.14,-1.16,1.19,0.00,0.33,0.22,
3.126,2.14,-1.16,1.19,-0.07,0.31,0.15,
3.127,2.14,-1.16,1.19,-0.18,0.25,0.05,
3.127,2.14,-1.16,1.19,-0.21,0.23,0.02,
3.127,2.14,-1.16,1.19,-0.26,0.17,-0.04,
3.127,4.01,-3.00,1.91,-0.26,0.17,-0.04,
3.127,4.01,-3.00,1.91,-0.31,0.12,-0.11,
3.127,4.01,-3.00,1.91,-0.36,0.06,-0.17,
3.128,4.01,-3.00,1.91,-0.41,-0.05,-0.24,
3.13,4.01,-3.00,1.91,-0.42,-0.09,-0.26,
3.133,4.01,-3.00,1.91,-0.45,-0.17,-0.30,
3.134,4.51,-3.24,2.30,-0.45,-0.17,-0.30,
3.134,4.51,-3.24,2.30,-0.47,-0.29,-0.33,
3.136,4.51,-3.24,2.30,-0.48,-0.35,-0.35,
3.137,4.51,-3.24,2.30,-0.49,-0.39,-0.35,
3.139,4.51,-3.24,2.30,-0.49,-0.41,-0.35,
3.141,4.51,-3.24,2.30,-0.50,-0.44,-0.34,
3.144,3.12,-2.07,1.94,-0.50,-0.44,-0.34,
3.144,3.12,-2.07,1.94,-0.51,-0.46,-0.32,
3.146,3.12,-2.07,1.94,-0.52,-0.46,-0.28,
3.148,3.12,-2.07,1.94,-0.53,-0.46,-0.24,
3.149,3.12,-2.07,1.94,-0.54,-0.45,-0.21,
3.151,3.12,-2.07,1.94,-0.55,-0.44,-0.15,
3.154,1.08,-0.18,0.92,-0.55,-0.44,-0.15,
3.154,1.08,-0.18,0.92,-0.58,-0.44,-0.05,
3.156,1.08,-0.18,0.92,-0.60,-0.43,0.03,
3.157,1.08,-0.18,0.92,-0.63,-0.43,0.11,
3.159,1.08,-0.18,0.92,-0.64,-0.43,0.15,
3.162,1.08,-0.18,0.92,-0.67,-0.43,0.24,
3.166,0.12,1.43,-0.02,-0.67,-0.43,0.24,
3.166,0.12,1.43,-0.02,-0.71,-0.42,0.37,
3.167,0.12,1.43,-0.02,-0.73,-0.43,0.45,
3.167,0.12,1.43,-0.02,-0.75,-0.44,0.53,
3.169,0.12,1.43,-0.02,-0.76,-0.47,0.61,
3.171,0.12,1.43,-0.02,-0.77,-0.51,0.69,
3.174,-0.33,2.44,0.02,-0.77,-0.51,0.69,
3.174,-0.33,2.44,0.02,-0.77,-0.57,0.77,
3.176,-0.33,2.44,0.02,-0.76,-0.63,0.84,
3.179,-0.33,2.44,0.02,-0.75,-0.69,0.91,
3.179,-0.33,2.44,0.02,-0.74,-0.75,0.97,
3.182,-0.33,2.44,0.02,-0.74,-0.81,1.03,
3.184,-0.12,2.06,0.51,-0.74,-0.81,1.03,
3.184,-0.12,2.06,0.51,-0.73,-0.85,1.07,
3.186,-0.12,2.06,0.51,-0.74,-0.89,1.11,
3.187,-0.12,2.06,0.51,-0.74,-0.92,1.15,
3.189,-0.12,2.06,0.51,-0.74,-0.94,1.17,
3.191,-0.12,2.06,0.51,-0.74,-0.97,1.20,
3.194,0.66,1.19,0.39,-0.74,-0.97,1.20,
3.194,0.66,1.19,0.39,-0.74,-1.01,1.21,
3.198,0.66,1.19,0.39,-0.73,-1.06,1.21,
3.199,0.66,1.19,0.39,-0.72,-1.13,1.20,
3.199,0.66,1.19,0.39,-0.70,-1.23,1.18,
3.204,0.66,1.19,0.39,-0.68,-1.35,1.14,
3.205,2.32,-0.08,1.63,-0.68,-1.35,1.14,
3.205,2.32,-0.08,1.63,-0.65,-1.47,1.09,
3.206,2.32,-0.08,1.63,-0.61,-1.59,1.03,
3.207,2.32,-0.08,1.63,-0.57,-1.73,0.96,
3.209,2.32,-0.08,1.63,-0.52,-1.86,0.88,
3.22,2.32,-0.08,1.63,-0.46,-1.97,0.78,
3.22,4.15,-1.06,2.38,-0.46,-1.97,0.78,
3.22,4.15,-1.06,2.38,-0.39,-2.07,0.69,
3.22,4.15,-1.06,2.38,-0.33,-2.15,0.61,
3.221,4.15,-1.06,2.38,-0.26,-2.22,0.53,
3.221,4.15,-1.06,2.38,-0.18,-2.27,0.45,
3.222,4.15,-1.06,2.38,-0.11,-2.30,0.38,
3.224,3.56,-0.71,1.78,-0.11,-2.30,0.38,
3.224,3.56,-0.71,1.78,-0.04,-2.32,0.31,
3.226,3.56,-0.71,1.78,0.03,-2.34,0.25,
3.228,3.56,-0.71,1.78,0.09,-2.34,0.20,
3.23,3.56,-0.71,1.78,0.15,-2.35,0.15,
3.232,3.56,-0.71,1.78,0.19,-2.34,0.12,
3.234,1.88,0.20,-0.22,0.19,-2.34,0.12,
3.234,1.88,0.20,-0.22,0.25,-2.32,0.09,
3.236,1.88,0.20,-0.22,0.30,-2.27,0.07,
3.238,1.88,0.20,-0.22,0.34,-2.19,0.06,
3.24,1.88,0.20,-0.22,0.38,-2.11,0.05,
3.242,1.88,0.20,-0.22,0.43,-2.05,0.06,
3.246,-0.32,1.12,-2.01,0.43,-2.05,0.06,
3.246,-0.32,1.12,-2.01,0.48,-2.03,0.07,
3.246,-0.32,1.12,-2.01,0.55,-2.03,0.10,
3.249,-0.32,1.12,-2.01,0.60,-2.05,0.12,
3.25,-0.32,1.12,-2.01,0.66,-2.07,0.15,
3.253,-0.32,1.12,-2.01,0.71,-2.10,0.18,
3.258,-2.21,1.87,-1.54,0.71,-2.10,0.18,
3.258,-2.21,1.87,-1.54,0.77,-2.13,0.20,
3.258,-2.21,1.87,-1.54,0.83,-2.16,0.21,
3.263,-2.21,1.87,-1.54,0.89,-2.19,0.21,
3.263,-2.21,1.87,-1.54,0.95,-2.21,0.21,
3.263,-2.21,1.87,-1.54,1.02,-2.24,0.20,
3.266,-1.96,1.77,-0.96,1.02,-2.24,0.20,
3.266,-1.96,1.77,-0.96,1.09,-2.29,0.19,
3.267,-1.96,1.77,-0.96,1.17,-2.35,0.17,
3.268,-1.96,1.77,-0.96,1.26,-2.40,0.15,
3.269,-1.96,1.77,-0.96,1.35,-2.44,0.13,
3.271,-1.96,1.77,-0.96,1.44,-2.48,0.10,
3.274,-1.39,1.67,0.87,1.44,-2.48,0.10,
3.291,-1.39,1.67,0.87,1.54,-2.52,0.06,
3.291,-1.39,1.67,0.87,1.64,-2.54,0.02,
3.291,-1.39,1.67,0.87,1.74,-2.55,-0.02,
3.292,-1.39,1.67,0.87,1.85,-2.52,-0.07,
3.292,-1.39,1.67,0.87,1.97,-2.45,-0.12,
3.293,-0.67,1.51,2.42,1.97,-2.45,-0.12,
3.293,-0.67,1.51,2.42,2.09,-2.37,-0.17,
3.294,-0.67,1.51,2.42,2.20,-2.29,-0.24,
3.294,-0.67,1.51,2.42,2.28,-2.27,-0.30,
3.294,-0.67,1.51,2.42,2.34,-2.30,-0.38,
3.295,-0.67,1.51,2.42,2.40,-2.30,-0.46,
3.295,0.68,1.55,1.63,2.40,-2.30,-0.46,
3.296,0.68,1.55,1.63,2.46,-2.26,-0.54,
3.296,0.68,1.55,1.63,2.52,-2.22,-0.62,
3.302,0.68,1.55,1.63,2.57,-2.19,-0.70,
3.302,0.68,1.55,1.63,2.61,-2.18,-0.78,
3.303,0.68,1.55,1.63,2.64,-2.17,-0.85,
3.305,1.25,1.56,0.48,2.64,-2.17,-0.85,
3.305,1.25,1.56,0.48,2.65,-2.17,-0.92,
3.306,1.25,1.56,0.48,2.67,-2.17,-0.99,
3.308,1.25,1.56,0.48,2.68,-2.17,-1.05,
3.309,1.25,1.56,0.48,2.66,-2.11,-1.09,
3.312,1.25,1.56,0.48,2.61,-1.99,-1.11,
3.314,1.28,1.70,-1.08,2.61,-1.99,-1.11,
3.314,1.28,1.70,-1.08,2.52,-1.79,-1.09,
3.316,1.28,1.70,-1.08,2.34,-1.44,-0.99,
3.318,1.28,1.70,-1.08,2.07,-0.94,-0.79,
3.32,1.28,1.70,-1.08,1.71,-0.32,-0.48,
3.321,1.28,1.70,-1.08,1.28,0.37,-0.10,
3.324,-3.36,1.65,-6.77,1.28,0.37,-0.10,
3.324,-3.36,1.65,-6.77,0.85,1.00,0.33,
3.325,-3.36,1.65,-6.77,0.46,1.49,0.74,
3.33,-3.36,1.65,-6.77,0.13,1.79,1.09,
3.33,-3.36,1.65,-6.77,-0.12,1.90,1.36,
3.336,-3.36,1.65,-6.77,-0.30,1.85,1.56,
3.336,-4.32,2.69,-5.65,-0.30,1.85,1.56,
3.337,-4.32,2.69,-5.65,-0.43,1.69,1.70,
3.337,-4.32,2.69,-5.65,-0.52,1.45,1.78,
3.338,-4.32,2.69,-5.65,-0.57,1.16,1.83,
3.341,-4.32,2.69,-5.65,-0.59,0.84,1.84,
3.345,-4.32,2.69,-5.65,-0.59,0.50,1.84,
3.345,-1.80,4.25,-1.20,-0.59,0.50,1.84,
3.345,-1.80,4.25,-1.20,-0.58,0.17,1.83,
3.352,-1.80,4.25,-1.20,-0.56,-0.17,1.81,
3.353,-1.80,4.25,-1.20,-0.53,-0.50,1.79,
3.353,-1.80,4.25,-1.20,-0.49,-0.81,1.77,
3.353,-1.80,4.25,-1.20,-0.46,-1.11,1.75,
3.356,-1.02,5.06,0.99,-0.46,-1.11,1.75,
3.357,-1.02,5.06,0.99,-0.41,-1.39,1.74,
3.357,-1.02,5.06,0.99,-0.37,-1.65,1.72,
3.358,-1.02,5.06,0.99,-0.33,-1.89,1.71,
3.36,-1.02,5.06,0.99,-0.30,-2.11,1.70,
3.384,-1.02,5.06,0.99,-0.25,-2.29,1.70,
3.385,-1.15,5.35,1.04,-0.25,-2.29,1.70,
3.385,-1.15,5.35,1.04,-0.21,-2.44,1.69,
3.385,-1.15,5.35,1.04,-0.17,-2.56,1.68,
3.386,-1.15,5.35,1.04,-0.13,-2.64,1.67,
3.386,-1.15,5.35,1.04,-0.11,-2.69,1.67,
3.386,-1.15,5.35,1.04,-0.08,-2.71,1.66,
3.386,-1.24,5.41,0.90,-0.08,-2.71,1.66,
3.386,-1.24,5.41,0.90,-0.06,-2.71,1.67,
3.387,-1.24,5.41,0.90,-0.05,-2.68,1.68,
3.387,-1.24,5.41,0.90,-0.05,-2.61,1.70,
3.387,-1.24,5.41,0.90,-0.04,-2.51,1.72,
3.393,-1.24,5.41,0.90,-0.06,-2.38,1.75,
3.393,-1.65,5.18,0.55,-0.06,-2.38,1.75,
3.393,-1.65,5.18,0.55,-0.07,-2.24,1.79,
3.394,-1.65,5.18,0.55,-0.09,-2.10,1.83,
3.394,-1.65,5.18,0.55,-0.10,-1.98,1.87,
3.394,-1.65,5.18,0.55,-0.10,-1.88,1.91,
3.394,-1.65,5.18,0.55,-0.11,-1.81,1.94,
3.394,-2.07,5.05,1.21,-0.11,-1.81,1.94,
3.395,-2.07,5.05,1.21,-0.11,-1.77,1.97,
3.397,-2.07,5.05,1.21,-0.10,-1.75,2.00,
3.399,-2.07,5.05,1.21,-0.08,-1.74,2.02,
3.4,-2.07,5.05,1.21,-0.06,-1.76,2.04,
3.401,-2.07,5.05,1.21,-0.05,-1.78,2.06,
3.404,-2.16,5.04,1.53,-0.05,-1.78,2.06,
3.404,-2.16,5.04,1.53,-0.03,-1.81,2.08,
3.407,-2.16,5.04,1.53,-0.02,-1.84,2.10,
3.408,-2.16,5.04,1.53,-0.02,-1.86,2.11,
3.409,-2.16,5.04,1.53,-0.03,-1.88,2.12,
3.413,-2.16,5.04,1.53,-0.03,-1.89,2.12,
3.415,-2.22,4.99,0.87,-0.03,-1.89,2.12,
3.416,-2.22,4.99,0.87,-0.05,-1.89,2.13,
3.416,-2.22,4.99,0.87,-0.08,-1.88,2.12,
3.418,-2.22,4.99,0.87,-0.11,-1.85,2.13,
3.42,-2.22,4.99,0.87,-0.16,-1.80,2.12,
3.422,-2.22,4.99,0.87,-0.20,-1.74,2.12,
3.424,-2.10,4.66,-0.84,-0.20,-1.74,2.12,
3.424,-2.10,4.66,-0.84,-0.24,-1.68,2.12,
3.431,-2.10,4.66,-0.84,-0.49,-1.53,2.10,
3.442,-2.10,4.66,-0.84,-0.49,-1.53,2.10,
3.442,-2.10,4.66,-0.84,-0.57,-1.46,2.09,
3.443,-2.02,4.61,-2.36,-0.57,-1.46,2.09,
3.443,-2.02,4.61,-2.36,-0.66,-1.40,2.09,
3.443,-2.02,4.61,-2.36,-0.66,-1.40,2.09,
3.443,-2.02,4.61,-2.36,-0.75,-1.34,2.08,
3.443,-2.02,4.61,-2.36,-0.85,-1.29,2.08,
3.444,-2.02,4.61,-2.36,-0.96,-1.23,2.08,
3.464,-2.02,4.61,-2.36,-1.05,-1.18,2.08,
3.464,-1.87,4.84,-3.49,-1.05,-1.18,2.08,
3.465,-1.87,4.84,-3.49,-1.16,-1.11,2.07,
3.465,-1.87,4.84,-3.49,-1.23,-1.04,2.08,
3.465,-1.87,4.84,-3.49,-1.35,-0.97,2.08,
3.466,-1.87,4.84,-3.49,-1.47,-0.89,2.08,
3.466,-1.87,4.84,-3.49,-1.57,-0.79,2.08,
3.466,-1.86,5.18,-4.47,-1.57,-0.79,2.08,
3.467,-1.86,5.18,-4.47,-1.67,-0.68,2.08,
3.467,-1.86,5.18,-4.47,-1.81,-0.56,2.08,
3.467,-1.86,5.18,-4.47,-1.90,-0.46,2.08,
3.467,-1.86,5.18,-4.47,-2.04,-0.34,2.08,
3.468,-1.86,5.18,-4.47,-2.15,-0.23,2.07,
3.468,-1.70,5.58,-5.31,-2.15,-0.23,2.07,
3.468,-1.70,5.58,-5.31,-2.27,-0.11,2.07,
3.468,-1.70,5.58,-5.31,-2.39,0.01,2.06,
3.469,-1.70,5.58,-5.31,-2.54,0.11,2.05,
3.475,-1.70,5.58,-5.31,-2.66,0.22,2.05,
3.476,-1.70,5.58,-5.31,-2.79,0.31,2.04,
3.476,-1.65,5.87,-6.22,-2.79,0.31,2.04,
3.476,-1.65,5.87,-6.22,-2.89,0.40,2.04,
3.478,-1.65,5.87,-6.22,-3.01,0.50,2.03,
3.484,-1.65,5.87,-6.22,-3.11,0.58,2.02,
3.485,-1.65,5.87,-6.22,-3.22,0.65,2.01,
3.486,-1.65,5.87,-6.22,-3.31,0.71,2.00,
3.49,-1.50,6.21,-6.13,-3.31,0.71,2.00,
3.491,-1.50,6.21,-6.13,-3.39,0.76,1.99,
3.491,-1.50,6.21,-6.13,-3.46,0.79,1.99,
3.491,-1.50,6.21,-6.13,-3.53,0.82,1.98,
3.492,-1.50,6.21,-6.13,-3.59,0.84,1.98,
3.493,-1.50,6.21,-6.13,-3.66,0.86,1.98,
3.5,-1.45,6.22,-6.07,-3.66,0.86,1.98,
3.5,-1.45,6.22,-6.07,-3.73,0.88,1.97,
3.5,-1.45,6.22,-6.07,-3.79,0.90,1.98,
3.501,-1.45,6.22,-6.07,-3.85,0.92,1.98,
3.501,-1.45,6.22,-6.07,-3.91,0.95,1.98,
3.505,-1.45,6.22,-6.07,-3.97,0.97,1.98,
3.506,-1.46,6.03,-5.87,-3.97,0.97,1.98,
3.507,-1.46,6.03,-5.87,-4.04,0.99,1.98,
3.507,-1.46,6.03,-5.87,-4.13,0.99,1.98,
3.529,-1.46,6.03,-5.87,-4.22,1.00,1.99,
3.529,-1.46,6.03,-5.87,-4.30,1.05,2.03,
3.529,-1.46,6.03,-5.87,-4.34,1.07,2.07,
3.529,-0.73,-1.60,-6.48,-4.34,1.07,2.07,
3.529,-0.73,-1.60,-6.48,-4.41,1.10,2.08,
3.53,-0.73,-1.60,-6.48,-4.48,1.16,2.03,
3.53,-0.73,-1.60,-6.48,-4.51,1.20,1.92,
3.53,-0.73,-1.60,-6.48,-4.49,1.26,1.82,
3.53,-0.73,-1.60,-6.48,-4.45,1.31,1.75,
3.53,3.11,-13.73,-4.66,-4.45,1.31,1.75,
3.53,3.11,-13.73,-4.66,-4.40,1.35,1.75,
3.53,3.11,-13.73,-4.66,-4.33,1.36,1.78,
3.532,3.11,-13.73,-4.66,-4.22,1.34,1.84,
3.533,3.11,-13.73,-4.66,-4.09,1.33,1.91,
3.535,3.11,-13.73,-4.66,-3.96,1.36,1.97,
3.535,0.25,-32.82,-5.26,-3.96,1.36,1.97,
3.535,0.25,-32.82,-5.26,-3.84,1.37,2.06,
3.536,0.25,-32.82,-5.26,-3.68,1.35,2.13,
3.537,0.25,-32.82,-5.26,-3.48,1.39,2.20,
3.539,0.25,-32.82,-5.26,-3.24,1.47,2.26,
3.542,0.25,-32.82,-5.26,-2.96,1.59,2.30,
3.546,-0.80,-47.98,-4.29,-2.96,1.59,2.30,
3.546,-0.80,-47.98,-4.29,-2.64,1.76,2.30,
3.547,-0.80,-47.98,-4.29,-2.27,1.94,2.27,
3.548,-0.80,-47.98,-4.29,-1.90,2.15,2.17,
3.549,-0.80,-47.98,-4.29,-1.54,2.36,2.02,
3.552,-0.80,-47.98,-4.29,-1.19,2.58,1.84,
3.554,3.26,-41.92,0.24,-1.19,2.58,1.84,
3.554,3.26,-41.92,0.24,-0.87,2.81,1.66,
3.556,3.26,-41.92,0.24,-0.57,3.03,1.48,
3.558,3.26,-41.92,0.24,-0.31,3.27,1.31,
3.56,3.26,-41.92,0.24,-0.08,3.50,1.16,
3.562,3.26,-41.92,0.24,0.13,3.73,1.03,
3.564,4.04,-24.91,1.05,0.13,3.73,1.03,
3.564,4.04,-24.91,1.05,0.31,3.96,0.91,
3.566,4.04,-24.91,1.05,0.46,4.17,0.80,
3.567,4.04,-24.91,1.05,0.60,4.37,0.70,
3.569,4.04,-24.91,1.05,0.71,4.55,0.61,
3.571,4.04,-24.91,1.05,0.80,4.72,0.52,
3.574,3.24,-12.47,0.26,0.80,4.72,0.52,
3.574,3.24,-12.47,0.26,0.88,4.87,0.44,
3.576,3.24,-12.47,0.26,0.95,5.00,0.36,
3.578,3.24,-12.47,0.26,1.00,5.12,0.28,
3.579,3.24,-12.47,0.26,1.04,5.21,0.21,
3.581,3.24,-12.47,0.26,1.06,5.33,0.14,
3.584,2.95,-3.99,-0.41,1.06,5.33,0.14,
3.584,2.95,-3.99,-0.41,0.96,5.61,0.09,
3.586,2.95,-3.99,-0.41,0.74,6.05,0.07,
3.588,2.95,-3.99,-0.41,0.50,6.49,0.08,
3.589,2.95,-3.99,-0.41,0.29,6.88,0.09,
3.591,2.95,-3.99,-0.41,0.12,7.21,0.10,
3.594,2.38,2.99,-3.13,0.12,7.21,0.10,
3.594,2.38,2.99,-3.13,-0.04,7.48,0.11,
3.596,2.38,2.99,-3.13,-0.20,7.72,0.11,
3.6,2.38,2.99,-3.13,-0.35,7.93,0.10,
3.6,2.38,2.99,-3.13,-0.49,8.12,0.09,
3.601,2.38,2.99,-3.13,-0.63,8.30,0.07,
3.604,1.74,6.60,-1.84,-0.63,8.30,0.07,
3.604,1.74,6.60,-1.84,-0.75,8.45,0.05,
3.606,1.74,6.60,-1.84,-0.86,8.59,0.03,
3.619,1.74,6.60,-1.84,-0.95,8.71,-0.00,
3.619,1.74,6.60,-1.84,-1.03,8.82,-0.03,
3.62,1.74,6.60,-1.84,-1.09,8.92,-0.06,
3.62,0.96,8.29,0.06,-1.09,8.92,-0.06,
3.621,0.96,8.29,0.06,-1.14,9.02,-0.10,
3.621,0.96,8.29,0.06,-1.16,9.10,-0.14,
3.622,0.96,8.29,0.06,-1.16,9.19,-0.17,
3.622,0.96,8.29,0.06,-1.14,9.27,-0.20,
3.623,0.96,8.29,0.06,-1.10,9.35,-0.22,
3.637,-0.23,9.23,2.63,-1.10,9.35,-0.22,
3.638,-0.23,9.23,2.63,-1.04,9.42,-0.24,
3.638,-0.23,9.23,2.63,-0.96,9.48,-0.24,
3.639,-0.23,9.23,2.63,-0.86,9.50,-0.23,
3.639,-0.23,9.23,2.63,-0.74,9.50,-0.21,
3.64,-0.23,9.23,2.63,-0.61,9.46,-0.16,
3.64,-2.71,9.15,6.30,-0.61,9.46,-0.16,
3.641,-2.71,9.15,6.30,-0.46,9.36,-0.11,
3.641,-2.71,9.15,6.30,-0.30,9.20,-0.05,
3.642,-2.71,9.15,6.30,-0.13,8.96,0.03,
3.642,-2.71,9.15,6.30,0.04,8.61,0.11,
3.646,-2.71,9.15,6.30,0.21,8.09,0.20,
3.646,-4.68,8.32,10.45,0.21,8.09,0.20,
3.647,-4.68,8.32,10.45,0.34,7.17,0.28,
3.647,-4.68,8.32,10.45,0.40,6.09,0.35,
3.649,-4.68,8.32,10.45,0.43,5.25,0.41,
3.663,-4.68,8.32,10.45,0.46,4.48,0.46,
3.663,-4.68,8.32,10.45,0.49,3.73,0.52,
3.663,-5.05,5.99,8.83,0.49,3.73,0.52,
3.664,-5.05,5.99,8.83,0.50,3.02,0.58,
3.664,-5.05,5.99,8.83,0.52,2.33,0.64,
3.664,-5.05,5.99,8.83,0.53,1.67,0.71,
3.664,-5.05,5.99,8.83,0.55,1.05,0.78,
3.665,-5.05,5.99,8.83,0.57,0.47,0.85,
3.665,-4.88,3.78,5.86,0.57,0.47,0.85,
3.665,-4.88,3.78,5.86,0.60,-0.07,0.92,
3.666,-4.88,3.78,5.86,0.63,-0.55,0.99,
3.668,-4.88,3.78,5.86,0.67,-0.99,1.06,
3.67,-4.88,3.78,5.86,0.71,-1.38,1.13,
3.671,-4.88,3.78,5.86,0.77,-1.73,1.20,
3.674,-4.62,1.47,4.90,0.77,-1.73,1.20,
3.674,-4.62,1.47,4.90,0.83,-2.02,1.27,
3.677,-4.62,1.47,4.90,0.90,-2.27,1.34,
3.678,-4.62,1.47,4.90,0.98,-2.48,1.40,
3.68,-4.62,1.47,4.90,1.06,-2.65,1.46,
3.682,-4.62,1.47,4.90,1.15,-2.79,1.51,
3.684,-3.67,-0.85,4.45,1.15,-2.79,1.51,
3.684,-3.67,-0.85,4.45,1.24,-2.89,1.56,
3.686,-3.67,-0.85,4.45,1.33,-2.97,1.60,
3.688,-3.67,-0.85,4.45,1.42,-3.01,1.63,
3.689,-3.67,-0.85,4.45,1.51,-3.03,1.67,
3.691,-3.67,-0.85,4.45,1.59,-3.03,1.70,
3.694,-2.89,-2.92,3.97,1.59,-3.03,1.70,
3.695,-2.89,-2.92,3.97,1.67,-3.01,1.72,
3.698,-2.89,-2.92,3.97,1.75,-2.96,1.74,
3.699,-2.89,-2.92,3.97,1.82,-2.90,1.76,
3.7,-2.89,-2.92,3.97,1.87,-2.83,1.77,
3.702,-2.89,-2.92,3.97,1.92,-2.74,1.78,
3.704,-2.39,-4.56,2.65,1.92,-2.74,1.78,
3.704,-2.39,-4.56,2.65,1.96,-2.64,1.79,
3.706,-2.39,-4.56,2.65,1.98,-2.54,1.79,
3.708,-2.39,-4.56,2.65,2.00,-2.43,1.79,
3.712,-2.39,-4.56,2.65,2.01,-2.31,1.78,
3.712,-2.39,-4.56,2.65,2.01,-2.20,1.77,
3.715,-2.16,-5.27,1.02,2.01,-2.20,1.77,
3.715,-2.16,-5.27,1.02,2.00,-2.07,1.76,
3.718,-2.16,-5.27,1.02,1.98,-1.94,1.74,
3.722,-2.16,-5.27,1.02,1.96,-1.80,1.72,
3.722,-2.16,-5.27,1.02,1.93,-1.66,1.69,
3.723,-2.16,-5.27,1.02,1.89,-1.51,1.66,
3.724,-1.76,-4.89,-0.28,1.89,-1.51,1.66,
3.725,-1.76,-4.89,-0.28,1.85,-1.36,1.63,
3.726,-1.76,-4.89,-0.28,1.81,-1.21,1.60,
3.729,-1.76,-4.89,-0.28,1.76,-1.06,1.57,
3.73,-1.76,-4.89,-0.28,1.71,-0.90,1.53,
3.732,-1.76,-4.89,-0.28,1.66,-0.75,1.49,
3.734,-1.35,-3.86,-1.19,1.66,-0.75,1.49,
3.735,-1.35,-3.86,-1.19,1.61,-0.59,1.45,
3.736,-1.35,-3.86,-1.19,1.56,-0.44,1.41,
3.738,-1.35,-3.86,-1.19,1.51,-0.29,1.37,
3.74,-1.35,-3.86,-1.19,1.46,-0.14,1.33,
3.742,-1.35,-3.86,-1.19,1.41,0.01,1.29,
3.745,-0.73,-2.53,-1.55,1.41,0.01,1.29,
3.745,-0.73,-2.53,-1.55,1.37,0.16,1.25,
3.746,-0.73,-2.53,-1.55,1.32,0.31,1.21,
3.748,-0.73,-2.53,-1.55,1.28,0.47,1.18,
3.751,-0.73,-2.53,-1.55,1.24,0.62,1.14,
3.753,-0.73,-2.53,-1.55,1.21,0.78,1.11,
3.756,-0.22,-1.31,-1.74,1.21,0.78,1.11,
3.757,-0.22,-1.31,-1.74,1.17,0.94,1.08,
3.758,-0.22,-1.31,-1.74,1.14,1.10,1.05,
3.758,-0.22,-1.31,-1.74,1.11,1.26,1.03,
3.775,-0.22,-1.31,-1.74,1.09,1.41,1.00,
3.776,-0.22,-1.31,-1.74,1.07,1.56,0.98,
3.777,0.08,-0.47,-1.50,1.07,1.56,0.98,
3.777,0.08,-0.47,-1.50,1.05,1.70,0.96,
3.778,0.08,-0.47,-1.50,1.05,1.84,0.93,
3.779,0.08,-0.47,-1.50,1.05,1.96,0.91,
3.78,0.08,-0.47,-1.50,1.06,2.07,0.88,
3.78,0.08,-0.47,-1.50,1.09,2.16,0.85,
3.781,0.54,0.10,-0.64,1.09,2.16,0.85,
3.805,0.54,0.10,-0.64,1.12,2.23,0.81,
3.805,0.54,0.10,-0.64,1.17,2.27,0.78,
3.805,0.54,0.10,-0.64,1.24,2.29,0.74,
3.806,0.54,0.10,-0.64,1.31,2.29,0.71,
3.806,0.54,0.10,-0.64,1.38,2.29,0.68,
3.806,0.92,0.39,0.58,1.38,2.29,0.68,
3.806,0.92,0.39,0.58,1.45,2.29,0.66,
3.806,0.92,0.39,0.58,1.51,2.29,0.63,
3.807,0.92,0.39,0.58,1.58,2.28,0.61,
3.807,0.92,0.39,0.58,1.65,2.26,0.60,
3.807,0.92,0.39,0.58,1.71,2.25,0.58,
3.807,1.12,0.37,1.16,1.71,2.25,0.58,
3.808,1.12,0.37,1.16,1.78,2.22,0.57,
3.808,1.12,0.37,1.16,1.84,2.19,0.56,
3.808,1.12,0.37,1.16,1.90,2.14,0.55,
3.808,1.12,0.37,1.16,1.96,2.08,0.54,
3.808,1.12,0.37,1.16,2.00,2.01,0.53,
3.815,1.59,0.23,1.53,2.00,2.01,0.53,
3.815,1.59,0.23,1.53,2.03,1.91,0.52,
3.816,1.59,0.23,1.53,2.04,1.78,0.52,
3.816,1.59,0.23,1.53,2.03,1.61,0.52,
3.816,1.59,0.23,1.53,1.98,1.40,0.52,
3.816,1.59,0.23,1.53,1.92,1.16,0.53,
3.819,2.30,0.03,1.40,1.92,1.16,0.53,
3.819,2.30,0.03,1.40,1.83,0.88,0.53,
3.82,2.30,0.03,1.40,1.74,0.59,0.54,
3.82,2.30,0.03,1.40,1.64,0.31,0.54,
3.82,2.30,0.03,1.40,1.56,0.06,0.54,
3.822,2.30,0.03,1.40,1.49,-0.18,0.52,
3.828,3.18,-0.21,1.36,1.49,-0.18,0.52,
3.828,3.18,-0.21,1.36,1.42,-0.38,0.51,
3.828,3.18,-0.21,1.36,1.36,-0.57,0.48,
3.83,3.18,-0.21,1.36,1.31,-0.74,0.45,
3.831,3.18,-0.21,1.36,1.25,-0.88,0.41,
3.832,3.18,-0.21,1.36,1.21,-1.00,0.37,
3.834,3.84,-0.45,1.07,1.21,-1.00,0.37,
3.834,3.84,-0.45,1.07,1.16,-1.10,0.32,
3.836,3.84,-0.45,1.07,1.13,-1.18,0.28,
3.838,3.84,-0.45,1.07,1.10,-1.23,0.23,
3.84,3.84,-0.45,1.07,1.07,-1.27,0.18,
3.843,3.84,-0.45,1.07,1.05,-1.29,0.13,
3.845,3.52,-0.68,0.39,1.05,-1.29,0.13,
3.845,3.52,-0.68,0.39,1.03,-1.29,0.09,
3.846,3.52,-0.68,0.39,1.02,-1.28,0.04,
3.848,3.52,-0.68,0.39,1.01,-1.26,-0.00,
3.85,3.52,-0.68,0.39,1.00,-1.22,-0.04,
3.853,3.52,-0.68,0.39,0.99,-1.18,-0.08,
3.854,2.84,-1.05,-0.47,0.99,-1.18,-0.08,
3.854,2.84,-1.05,-0.47,0.99,-1.12,-0.12,
3.856,2.84,-1.05,-0.47,0.98,-1.05,-0.15,
3.858,2.84,-1.05,-0.47,0.98,-0.97,-0.18,
3.86,2.84,-1.05,-0.47,0.98,-0.88,-0.20,
3.863,2.84,-1.05,-0.47,0.98,-0.78,-0.22,
3.864,1.79,-1.29,-1.38,0.98,-0.78,-0.22,
3.864,1.79,-1.29,-1.38,0.98,-0.66,-0.24,
3.868,1.79,-1.29,-1.38,0.98,-0.54,-0.25,
3.868,1.79,-1.29,-1.38,0.98,-0.42,-0.26,
3.869,1.79,-1.29,-1.38,0.98,-0.28,-0.28,
3.871,1.79,-1.29,-1.38,0.97,-0.15,-0.28,
3.874,1.04,-1.34,-2.31,0.97,-0.15,-0.28,
3.874,1.04,-1.34,-2.31,0.97,-0.01,-0.29,
3.876,1.04,-1.34,-2.31,0.97,0.13,-0.30,
3.878,1.04,-1.34,-2.31,0.96,0.27,-0.30,
3.88,1.04,-1.34,-2.31,0.94,0.41,-0.31,
3.882,1.04,-1.34,-2.31,0.93,0.55,-0.32,
3.884,0.67,-1.18,-3.04,0.93,0.55,-0.32,
3.885,0.67,-1.18,-3.04,0.92,0.69,-0.33,
3.886,0.67,-1.18,-3.04,0.91,0.82,-0.34,
3.888,0.67,-1.18,-3.04,0.90,0.95,-0.35,
3.889,0.67,-1.18,-3.04,0.89,1.06,-0.36,
3.892,0.67,-1.18,-3.04,0.88,1.17,-0.37,
3.894,0.75,-0.79,-3.04,0.88,1.17,-0.37,
3.894,0.75,-0.79,-3.04,0.87,1.28,-0.38,
3.896,0.75,-0.79,-3.04,0.86,1.37,-0.40,
3.897,0.75,-0.79,-3.04,0.85,1.46,-0.41,
3.899,0.75,-0.79,-3.04,0.85,1.54,-0.42,
3.901,0.75,-0.79,-3.04,0.84,1.61,-0.43,
3.904,0.96,-0.24,-2.20,0.84,1.61,-0.43,
3.904,0.96,-0.24,-2.20,0.84,1.67,-0.45,
3.906,0.96,-0.24,-2.20,0.83,1.71,-0.46,
3.91,0.96,-0.24,-2.20,0.82,1.75,-0.48,
3.911,0.96,-0.24,-2.20,0.81,1.77,-0.50,
3.912,0.96,-0.24,-2.20,0.79,1.78,-0.51,
3.917,1.28,0.08,-1.49,0.79,1.78,-0.51,
3.917,1.28,0.08,-1.49,0.77,1.79,-0.52,
3.917,1.28,0.08,-1.49,0.75,1.78,-0.53,
3.918,1.28,0.08,-1.49,0.73,1.76,-0.54,
3.92,1.28,0.08,-1.49,0.71,1.73,-0.55,
3.922,1.28,0.08,-1.49,0.68,1.70,-0.56,
3.927,1.33,0.29,-0.99,0.68,1.70,-0.56,
3.927,1.33,0.29,-0.99,0.66,1.67,-0.56,
3.927,1.33,0.29,-0.99,0.63,1.62,-0.57,
3.928,1.33,0.29,-0.99,0.61,1.58,-0.58,
3.929,1.33,0.29,-0.99,0.58,1.53,-0.59,
3.931,1.33,0.29,-0.99,0.56,1.49,-0.59,
3.934,1.28,0.42,-0.92,0.56,1.49,-0.59,
3.934,1.28,0.42,-0.92,0.53,1.44,-0.60,
3.936,1.28,0.42,-0.92,0.51,1.40,-0.61,
3.937,1.28,0.42,-0.92,0.48,1.36,-0.61,
3.94,1.28,0.42,-0.92,0.46,1.33,-0.62,
3.954,1.28,0.42,-0.92,0.44,1.30,-0.62,
3.954,0.97,0.51,-1.05,0.44,1.30,-0.62,
3.954,0.97,0.51,-1.05,0.42,1.28,-0.63,
3.955,0.97,0.51,-1.05,0.39,1.27,-0.64,
3.955,0.97,0.51,-1.05,0.37,1.26,-0.64,
3.955,0.97,0.51,-1.05,0.37,1.26,-0.64,
3.955,0.97,0.51,-1.05,0.35,1.27,-0.64,
3.956,0.56,0.42,-1.08,0.35,1.27,-0.64,
3.956,0.56,0.42,-1.08,0.34,1.29,-0.64,
3.956,0.56,0.42,-1.08,0.33,1.30,-0.64,
3.959,0.56,0.42,-1.08,0.32,1.33,-0.64,
3.96,0.56,0.42,-1.08,0.31,1.36,-0.64,
3.962,0.56,0.42,-1.08,0.30,1.39,-0.64,
3.965,0.06,0.39,-1.08,0.30,1.39,-0.64,
3.966,0.06,0.39,-1.08,0.29,1.42,-0.64,
3.966,0.06,0.39,-1.08,0.28,1.45,-0.64,
3.967,0.06,0.39,-1.08,0.27,1.48,-0.64,
3.97,0.06,0.39,-1.08,0.26,1.51,-0.64,
3.973,0.06,0.39,-1.08,0.25,1.54,-0.64,
3.976,-0.37,0.35,-1.06,0.25,1.54,-0.64,
3.977,-0.37,0.35,-1.06,0.24,1.56,-0.64,
3.979,-0.37,0.35,-1.06,0.23,1.58,-0.64,
3.979,-0.37,0.35,-1.06,0.22,1.59,-0.64,
3.981,-0.37,0.35,-1.06,0.21,1.60,-0.65,
3.982,-0.37,0.35,-1.06,0.20,1.60,-0.65,
3.984,-0.59,0.45,-0.88,0.20,1.60,-0.65,
3.985,-0.59,0.45,-0.88,0.20,1.59,-0.65,
3.986,-0.59,0.45,-0.88,0.19,1.58,-0.66,
3.988,-0.59,0.45,-0.88,0.18,1.56,-0.66,
3.99,-0.59,0.45,-0.88,0.18,1.54,-0.67,
3.993,-0.59,0.45,-0.88,0.17,1.51,-0.67,
3.995,-0.74,0.64,-0.73,0.17,1.51,-0.67,
3.995,-0.74,0.64,-0.73,0.16,1.48,-0.68,
3.996,-0.74,0.64,-0.73,0.16,1.44,-0.68,
3.998,-0.74,0.64,-0.73,0.15,1.40,-0.68,
4.0,-0.74,0.64,-0.73,0.14,1.36,-0.69,
4.002,-0.74,0.64,-0.73,0.14,1.31,-0.69,
4.004,-0.79,0.79,-0.52,0.14,1.31,-0.69,
4.004,-0.79,0.79,-0.52,0.13,1.26,-0.69,
4.006,-0.79,0.79,-0.52,0.13,1.20,-0.70,
4.008,-0.79,0.79,-0.52,0.12,1.14,-0.70,
4.01,-0.79,0.79,-0.52,0.11,1.09,-0.70,
4.012,-0.79,0.79,-0.52,0.11,1.02,-0.71,
4.014,-0.87,0.90,-0.27,0.11,1.02,-0.71,
4.014,-0.87,0.90,-0.27,0.10,0.96,-0.71,
4.016,-0.87,0.90,-0.27,0.10,0.90,-0.72,
4.017,-0.87,0.90,-0.27,0.10,0.83,-0.72,
4.019,-0.87,0.90,-0.27,0.09,0.76,-0.73,
4.025,-0.87,0.90,-0.27,0.09,0.69,-0.74,
4.025,-0.84,0.90,0.00,0.09,0.69,-0.74,
4.025,-0.84,0.90,0.00,0.08,0.62,-0.74,
4.026,-0.84,0.90,0.00,0.08,0.55,-0.75,
4.028,-0.84,0.90,0.00,0.07,0.47,-0.76,
4.029,-0.84,0.90,0.00,0.07,0.40,-0.77,
4.031,-0.84,0.90,0.00,0.07,0.33,-0.78,
4.034,-1.01,0.93,0.29,0.07,0.33,-0.78,
4.034,-1.01,0.93,0.29,0.06,0.26,-0.79,
4.035,-1.01,0.93,0.29,0.06,0.19,-0.80,
4.037,-1.01,0.93,0.29,0.05,0.12,-0.80,
4.039,-1.01,0.93,0.29,0.04,0.05,-0.81,
4.046,-1.01,0.93,0.29,0.04,-0.02,-0.82,
4.046,-1.18,1.14,0.39,0.04,-0.02,-0.82,
4.046,-1.18,1.14,0.39,0.03,-0.08,-0.83,
4.046,-1.18,1.14,0.39,0.02,-0.14,-0.84,
4.048,-1.18,1.14,0.39,0.01,-0.20,-0.85,
4.05,-1.18,1.14,0.39,-0.00,-0.25,-0.85,
4.052,-1.18,1.14,0.39,-0.02,-0.29,-0.86,
4.055,-1.48,1.45,0.25,-0.02,-0.29,-0.86,
4.056,-1.48,1.45,0.25,-0.03,-0.33,-0.87,
4.056,-1.48,1.45,0.25,-0.05,-0.36,-0.87,
4.085,-1.48,1.45,0.25,-0.07,-0.39,-0.87,
4.085,-1.48,1.45,0.25,-0.09,-0.41,-0.87,
4.085,-1.48,1.45,0.25,-0.11,-0.42,-0.87,
4.086,-1.68,1.72,-0.02,-0.11,-0.42,-0.87,
4.086,-1.68,1.72,-0.02,-0.13,-0.43,-0.87,
4.086,-1.68,1.72,-0.02,-0.15,-0.44,-0.86,
4.086,-1.68,1.72,-0.02,-0.17,-0.44,-0.86,
4.086,-1.68,1.72,-0.02,-0.19,-0.44,-0.85,
4.086,-1.68,1.72,-0.02,-0.21,-0.43,-0.83,
4.087,-1.94,1.94,-0.20,-0.21,-0.43,-0.83,
4.087,-1.94,1.94,-0.20,-0.23,-0.42,-0.82,
4.087,-1.94,1.94,-0.20,-0.25,-0.41,-0.80,
4.087,-1.94,1.94,-0.20,-0.27,-0.40,-0.78,
4.087,-1.94,1.94,-0.20,-0.29,-0.38,-0.76,
4.088,-1.94,1.94,-0.20,-0.31,-0.36,-0.74,
4.092,-1.87,1.99,-0.34,-0.31,-0.36,-0.74,
4.093,-1.87,1.99,-0.34,-0.33,-0.34,-0.72,
4.094,-1.87,1.99,-0.34,-0.35,-0.32,-0.70,
4.095,-1.87,1.99,-0.34,-0.37,-0.30,-0.68,
4.098,-1.87,1.99,-0.34,-0.40,-0.27,-0.66,
4.099,-1.87,1.99,-0.34,-0.43,-0.24,-0.63,
4.099,-1.62,2.38,-0.51,-0.43,-0.24,-0.63,
4.099,-1.62,2.38,-0.51,-0.45,-0.22,-0.61,
4.099,-1.62,2.38,-0.51,-0.48,-0.18,-0.59,
4.099,-1.62,2.38,-0.51,-0.51,-0.15,-0.57,
4.1,-1.62,2.38,-0.51,-0.55,-0.13,-0.56,
4.102,-1.62,2.38,-0.51,-0.59,-0.11,-0.54,
4.105,-0.98,2.89,-0.89,-0.59,-0.11,-0.54,
4.105,-0.98,2.89,-0.89,-0.63,-0.10,-0.52,
4.106,-0.98,2.89,-0.89,-0.68,-0.09,-0.50,
4.128,-0.98,2.89,-0.89,-0.71,-0.08,-0.48,
4.129,-0.98,2.89,-0.89,-0.74,-0.07,-0.46,
4.129,-0.98,2.89,-0.89,-0.76,-0.05,-0.45,
4.129,-0.67,2.42,-0.94,-0.76,-0.05,-0.45,
4.13,-0.67,2.42,-0.94,-0.79,-0.04,-0.44,
4.13,-0.67,2.42,-0.94,-0.81,-0.03,-0.43,
4.13,-0.67,2.42,-0.94,-0.83,-0.02,-0.43,
4.13,-0.67,2.42,-0.94,-0.84,-0.02,-0.42,
4.131,-0.67,2.42,-0.94,-0.85,-0.02,-0.42,
4.131,-0.27,1.49,-0.66,-0.85,-0.02,-0.42,
4.131,-0.27,1.49,-0.66,-0.86,-0.02,-0.42,
4.131,-0.27,1.49,-0.66,-0.87,-0.03,-0.43,
4.132,-0.27,1.49,-0.66,-0.88,-0.03,-0.43,
4.132,-0.27,1.49,-0.66,-0.88,-0.04,-0.43,
4.132,-0.27,1.49,-0.66,-0.88,-0.05,-0.44,
4.137,0.07,0.85,-0.10,-0.88,-0.05,-0.44,
4.138,0.07,0.85,-0.10,-0.88,-0.06,-0.43,
4.138,0.07,0.85,-0.10,-0.88,-0.07,-0.43,
4.148,0.07,0.85,-0.10,-0.88,-0.08,-0.43,
4.148,0.07,0.85,-0.10,-0.88,-0.09,-0.43,
4.148,0.07,0.85,-0.10,-0.88,-0.09,-0.43,
4.149,0.33,0.60,0.49,-0.88,-0.09,-0.43,
4.149,0.33,0.60,0.49,-0.88,-0.09,-0.43,
4.149,0.33,0.60,0.49,-0.88,-0.09,-0.43,
4.149,0.33,0.60,0.49,-0.88,-0.09,-0.43,
4.15,0.33,0.60,0.49,-0.88,-0.09,-0.44,
4.152,0.33,0.60,0.49,-0.89,-0.08,-0.45,
4.154,0.77,0.58,1.14,-0.89,-0.08,-0.45,
4.154,0.77,0.58,1.14,-0.89,-0.08,-0.46,
4.156,0.77,0.58,1.14,-0.90,-0.07,-0.47,
4.158,0.77,0.58,1.14,-0.90,-0.07,-0.47,
4.16,0.77,0.58,1.14,-0.91,-0.06,-0.48,
4.162,0.77,0.58,1.14,-0.92,-0.06,-0.49,
4.164,0.97,0.53,1.74,-0.92,-0.06,-0.49,
4.165,0.97,0.53,1.74,-0.93,-0.05,-0.50,
4.166,0.97,0.53,1.74,-0.93,-0.05,-0.50,
4.168,0.97,0.53,1.74,-0.94,-0.04,-0.51,
4.169,0.97,0.53,1.74,-0.94,-0.04,-0.51,
4.172,0.97,0.53,1.74,-0.94,-0.03,-0.52,
4.182,0.83,0.24,2.75,-0.94,-0.03,-0.52,
4.182,0.83,0.24,2.75,-0.94,-0.02,-0.52,
4.183,0.83,0.24,2.75,-0.94,-0.01,-0.51,
4.183,0.83,0.24,2.75,-0.93,-0.00,-0.51,
4.183,0.83,0.24,2.75,-0.92,0.01,-0.51,
4.183,0.83,0.24,2.75,-0.91,0.03,-0.50,
4.188,0.47,-0.49,3.76,-0.91,0.03,-0.50,
4.189,0.47,-0.49,3.76,-0.89,0.05,-0.49,
4.227,0.47,-0.49,3.76,-0.86,0.08,-0.48,
4.227,0.47,-0.49,3.76,-0.84,0.11,-0.48,
4.227,0.47,-0.49,3.76,-0.80,0.13,-0.47,
4.228,0.47,-0.49,3.76,-0.77,0.17,-0.46,
4.228,0.27,-1.25,4.89,-0.77,0.17,-0.46,
4.228,0.27,-1.25,4.89,-0.72,0.20,-0.45,
4.228,0.27,-1.25,4.89,-0.68,0.23,-0.44,
4.228,0.27,-1.25,4.89,-0.63,0.26,-0.44,
4.228,0.27,-1.25,4.89,-0.57,0.30,-0.43,
4.229,0.27,-1.25,4.89,-0.51,0.33,-0.43,
4.229,0.36,-1.83,5.75,-0.51,0.33,-0.43,
4.229,0.36,-1.83,5.75,-0.45,0.35,-0.42,
4.229,0.36,-1.83,5.75,-0.39,0.38,-0.42,
4.229,0.36,-1.83,5.75,-0.32,0.40,-0.41,
4.23,0.36,-1.83,5.75,-0.26,0.42,-0.41,
4.23,0.36,-1.83,5.75,-0.20,0.43,-0.41,
4.23,0.58,-2.00,6.22,-0.20,0.43,-0.41,
4.23,0.58,-2.00,6.22,-0.14,0.44,-0.41,
4.23,0.58,-2.00,6.22,-0.09,0.45,-0.41,
4.231,0.58,-2.00,6.22,-0.04,0.46,-0.40,
4.231,0.58,-2.00,6.22,0.01,0.47,-0.40,
4.231,0.58,-2.00,6.22,0.05,0.48,-0.40,
4.231,0.78,-1.86,5.66,0.05,0.48,-0.40,
4.231,0.78,-1.86,5.66,0.08,0.50,-0.40,
4.231,0.78,-1.86,5.66,0.10,0.52,-0.40,
4.232,0.78,-1.86,5.66,0.11,0.56,-0.40,
4.232,0.78,-1.86,5.66,0.12,0.60,-0.40,
4.232,0.78,-1.86,5.66,0.12,0.65,-0.40,
4.235,1.28,-1.45,4.27,0.12,0.65,-0.40,
4.235,1.28,-1.45,4.27,0.11,0.71,-0.41,
4.236,1.28,-1.45,4.27,0.09,0.78,-0.42,
4.238,1.28,-1.45,4.27,0.07,0.87,-0.43,
4.241,1.28,-1.45,4.27,0.04,0.96,-0.44,
4.242,1.28,-1.45,4.27,0.01,1.06,-0.45,
4.246,1.85,-0.85,2.35,0.01,1.06,-0.45,
4.246,1.85,-0.85,2.35,-0.03,1.16,-0.47,
4.246,1.85,-0.85,2.35,-0.07,1.26,-0.48,
4.247,1.85,-0.85,2.35,-0.12,1.36,-0.49,
4.25,1.85,-0.85,2.35,-0.16,1.45,-0.50,
4.252,1.85,-0.85,2.35,-0.21,1.54,-0.51,
4.255,2.08,-0.28,0.43,-0.21,1.54,-0.51,
4.255,2.08,-0.28,0.43,-0.26,1.61,-0.52,
4.256,2.08,-0.28,0.43,-0.30,1.67,-0.52,
4.259,2.08,-0.28,0.43,-0.35,1.71,-0.53,
4.26,2.08,-0.28,0.43,-0.39,1.74,-0.53,
4.263,2.08,-0.28,0.43,-0.43,1.76,-0.52,
4.265,1.45,-0.42,-1.23,-0.43,1.76,-0.52,
4.265,1.45,-0.42,-1.23,-0.47,1.76,-0.52,
4.266,1.45,-0.42,-1.23,-0.51,1.75,-0.51,
4.268,1.45,-0.42,-1.23,-0.55,1.73,-0.49,
4.27,1.45,-0.42,-1.23,-0.59,1.70,-0.48,
4.272,1.45,-0.42,-1.23,-0.62,1.66,-0.45,
4.274,0.21,-1.15,-2.26,-0.62,1.66,-0.45,
4.295,0.21,-1.15,-2.26,-0.64,1.62,-0.42,
4.295,0.21,-1.15,-2.26,-0.67,1.57,-0.40,
4.295,0.21,-1.15,-2.26,-0.69,1.51,-0.36,
4.295,0.21,-1.15,-2.26,-0.71,1.44,-0.33,
4.296,0.21,-1.15,-2.26,-0.72,1.37,-0.30,
4.296,-0.92,-2.46,-2.37,-0.72,1.37,-0.30,
4.296,-0.92,-2.46,-2.37,-0.73,1.30,-0.26,
4.297,-0.92,-2.46,-2.37,-0.74,1.22,-0.23,
4.297,-0.92,-2.46,-2.37,-0.74,1.14,-0.19,
4.297,-0.92,-2.46,-2.37,-0.74,1.06,-0.16,
4.297,-0.92,-2.46,-2.37,-0.74,0.97,-0.13,
4.298,-1.42,-3.83,-2.10,-0.74,0.97,-0.13,
4.298,-1.42,-3.83,-2.10,-0.74,0.88,-0.10,
4.298,-1.42,-3.83,-2.10,-0.74,0.74,-0.07,
4.309,-1.42,-3.83,-2.10,-0.74,0.64,-0.05,
4.309,-1.42,-3.83,-2.10,-0.74,0.59,-0.05,
4.309,-1.42,-3.83,-2.10,-0.74,0.49,-0.04,
4.31,-1.18,-4.63,-1.83,-0.74,0.49,-0.04,
4.31,-1.18,-4.63,-1.83,-0.73,0.38,-0.04,
4.31,-1.18,-4.63,-1.83,-0.73,0.27,-0.04,
4.312,-1.18,-4.63,-1.83,-0.73,0.15,-0.05,
4.312,-1.18,-4.63,-1.83,-0.72,0.04,-0.08,
4.314,-1.18,-4.63,-1.83,-0.72,-0.09,-0.11,
4.315,-0.58,-4.57,-1.89,-0.72,-0.09,-0.11,
4.315,-0.58,-4.57,-1.89,-0.72,-0.21,-0.14,
4.316,-0.58,-4.57,-1.89,-0.71,-0.34,-0.18,
4.321,-0.58,-4.57,-1.89,-0.70,-0.48,-0.22,
4.322,-0.58,-4.57,-1.89,-0.70,-0.61,-0.27,
4.323,-0.58,-4.57,-1.89,-0.69,-0.74,-0.32,
4.351,-0.32,-3.78,-1.99,-0.69,-0.74,-0.32,
4.352,-0.32,-3.78,-1.99,-0.69,-0.87,-0.36,
4.352,-0.32,-3.78,-1.99,-0.68,-1.01,-0.41,
4.352,-0.32,-3.78,-1.99,-0.67,-1.13,-0.46,
4.353,-0.32,-3.78,-1.99,-0.67,-1.26,-0.50,
4.353,-0.32,-3.78,-1.99,-0.66,-1.37,-0.54,
4.353,-0.80,-2.71,-2.27,-0.66,-1.37,-0.54,
4.353,-0.80,-2.71,-2.27,-0.66,-1.49,-0.58,
4.353,-0.80,-2.71,-2.27,-0.65,-1.60,-0.61,
4.353,-0.80,-2.71,-2.27,-0.64,-1.70,-0.63,
4.354,-0.80,-2.71,-2.27,-0.64,-1.80,-0.65,
4.354,-0.80,-2.71,-2.27,-0.63,-1.89,-0.66,
4.354,-1.67,-1.56,-2.46,-0.63,-1.89,-0.66,
4.354,-1.67,-1.56,-2.46,-0.62,-1.98,-0.67,
4.354,-1.67,-1.56,-2.46,-0.61,-2.07,-0.67,
4.354,-1.67,-1.56,-2.46,-0.60,-2.15,-0.66,
4.355,-1.67,-1.56,-2.46,-0.59,-2.22,-0.65,
4.355,-1.67,-1.56,-2.46,-0.57,-2.30,-0.64,
4.355,-2.61,-0.33,-2.70,-0.57,-2.30,-0.64,
4.355,-2.61,-0.33,-2.70,-0.56,-2.36,-0.62,
4.357,-2.61,-0.33,-2.70,-0.55,-2.41,-0.60,
4.36,-2.61,-0.33,-2.70,-0.53,-2.46,-0.58,
4.36,-2.61,-0.33,-2.70,-0.51,-2.49,-0.54,
4.361,-2.61,-0.33,-2.70,-0.50,-2.52,-0.51,
4.364,-3.25,0.79,-2.64,-0.50,-2.52,-0.51,
4.364,-3.25,0.79,-2.64,-0.48,-2.53,-0.48,
4.366,-3.25,0.79,-2.64,-0.46,-2.54,-0.43,
4.368,-3.25,0.79,-2.64,-0.45,-2.53,-0.39,
4.37,-3.25,0.79,-2.64,-0.42,-2.50,-0.34,
4.371,-3.25,0.79,-2.64,-0.39,-2.44,-0.29,
4.375,-4.25,1.73,-1.80,-0.39,-2.44,-0.29,
4.375,-4.25,1.73,-1.80,-0.31,-2.32,-0.22,
4.376,-4.25,1.73,-1.80,-0.17,-2.10,-0.13,
4.379,-4.25,1.73,-1.80,-0.01,-1.84,-0.02,
4.38,-4.25,1.73,-1.80,0.12,-1.58,0.09,
4.384,-4.25,1.73,-1.80,0.25,-1.32,0.19,
4.385,-6.49,2.80,2.27,0.25,-1.32,0.19,
4.385,-6.49,2.80,2.27,0.36,-1.07,0.29,
4.391,-6.49,2.80,2.27,0.46,-0.84,0.37,
4.392,-6.49,2.80,2.27,0.54,-0.62,0.45,
4.392,-6.49,2.80,2.27,0.60,-0.44,0.51,
4.393,-6.49,2.80,2.27,0.64,-0.28,0.57,
4.396,-5.45,3.58,0.54,0.64,-0.28,0.57,
4.396,-5.45,3.58,0.54,0.67,-0.14,0.62,
4.396,-5.45,3.58,0.54,0.68,-0.03,0.66,
4.398,-5.45,3.58,0.54,0.67,0.06,0.69,
4.399,-5.45,3.58,0.54,0.66,0.14,0.72,
4.402,-5.45,3.58,0.54,0.64,0.20,0.75,
4.405,-3.47,3.74,-1.90,0.64,0.20,0.75,
4.405,-3.47,3.74,-1.90,0.61,0.25,0.76,
4.407,-3.47,3.74,-1.90,0.58,0.29,0.78,
4.408,-3.47,3.74,-1.90,0.54,0.32,0.79,
4.409,-3.47,3.74,-1.90,0.50,0.36,0.79,
4.412,-3.47,3.74,-1.90,0.47,0.38,0.80,
4.414,-2.26,3.43,-2.93,0.47,0.38,0.80,
4.414,-2.26,3.43,-2.93,0.43,0.40,0.80,
4.416,-2.26,3.43,-2.93,0.38,0.42,0.80,
4.418,-2.26,3.43,-2.93,0.33,0.44,0.79,
4.419,-2.26,3.43,-2.93,0.29,0.46,0.79,
4.422,-2.26,3.43,-2.93,0.24,0.48,0.78,
4.424,-1.34,2.58,-3.11,0.24,0.48,0.78,
4.424,-1.34,2.58,-3.11,0.18,0.51,0.77,
4.43,-1.34,2.58,-3.11,0.02,0.58,0.78,
4.431,-1.34,2.58,-3.11,0.02,0.58,0.78,
4.432,-1.34,2.58,-3.11,0.02,0.58,0.78,
4.433,-1.34,2.58,-3.11,-0.06,0.62,0.79,
4.434,-1.34,2.58,-3.11,-0.08,0.63,0.80,
4.434,-0.67,0.86,-2.97,-0.08,0.63,0.80,
4.436,-0.67,0.86,-2.97,-0.14,0.66,0.81,
4.438,-0.67,0.86,-2.97,-0.20,0.69,0.81,
4.443,-0.67,0.86,-2.97,-0.26,0.73,0.81,
4.462,-0.67,0.86,-2.97,-0.32,0.76,0.81,
4.462,0.33,-0.65,-2.66,-0.32,0.76,0.81,
4.462,0.33,-0.65,-2.66,-0.38,0.80,0.80,
4.462,0.33,-0.65,-2.66,-0.45,0.83,0.78,
4.463,0.33,-0.65,-2.66,-0.52,0.85,0.76,
4.463,0.33,-0.65,-2.66,-0.60,0.87,0.72,
4.463,0.33,-0.65,-2.66,-0.67,0.87,0.67,
4.463,2.36,-2.21,-2.71,-0.67,0.87,0.67,
4.464,2.36,-2.21,-2.71,-0.75,0.87,0.62,
4.464,2.36,-2.21,-2.71,-0.83,0.86,0.56,
4.464,2.36,-2.21,-2.71,-0.91,0.84,0.49,
4.464,2.36,-2.21,-2.71,-0.98,0.82,0.42,
4.464,2.36,-2.21,-2.71,-1.06,0.80,0.35,
4.465,4.35,-3.49,-2.06,-1.06,0.80,0.35,
4.465,4.35,-3.49,-2.06,-1.13,0.76,0.26,
4.468,4.35,-3.49,-2.06,-1.19,0.71,0.17,
4.468,4.35,-3.49,-2.06,-1.26,0.66,0.07,
4.47,4.35,-3.49,-2.06,-1.31,0.59,-0.04,
4.49,4.35,-3.49,-2.06,-1.35,0.50,-0.16,
4.491,6.67,-4.46,-0.62,-1.35,0.50,-0.16,
4.491,6.67,-4.46,-0.62,-1.39,0.40,-0.28,
4.492,6.67,-4.46,-0.62,-1.42,0.27,-0.41,
4.492,6.67,-4.46,-0.62,-1.44,0.13,-0.54,
4.492,6.67,-4.46,-0.62,-1.45,-0.04,-0.67,
4.492,6.67,-4.46,-0.62,-1.46,-0.22,-0.81,
4.493,8.06,-4.58,0.79,-1.46,-0.22,-0.81,
4.493,8.06,-4.58,0.79,-1.45,-0.41,-0.95,
4.493,8.06,-4.58,0.79,-1.45,-0.61,-1.08,
4.493,8.06,-4.58,0.79,-1.44,-0.82,-1.21,
4.494,8.06,-4.58,0.79,-1.42,-1.01,-1.33,
4.494,8.06,-4.58,0.79,-1.41,-1.21,-1.44,
4.497,7.81,-3.84,0.69,-1.41,-1.21,-1.44,
4.497,7.81,-3.84,0.69,-1.40,-1.40,-1.55,
4.498,7.81,-3.84,0.69,-1.38,-1.60,-1.65,
4.498,7.81,-3.84,0.69,-1.36,-1.79,-1.73,
4.5,7.81,-3.84,0.69,-1.33,-1.97,-1.81,
4.502,7.81,-3.84,0.69,-1.30,-2.14,-1.87,
4.504,6.03,-2.65,0.12,-1.30,-2.14,-1.87,
4.504,6.03,-2.65,0.12,-1.27,-2.31,-1.93,
4.507,6.03,-2.65,0.12,-1.24,-2.46,-1.98,
4.509,6.03,-2.65,0.12,-1.20,-2.61,-2.02,
4.511,6.03,-2.65,0.12,-1.15,-2.75,-2.05,
4.514,6.03,-2.65,0.12,-1.11,-2.88,-2.07,
4.514,4.45,-1.53,-0.22,-1.11,-2.88,-2.07,
4.514,4.45,-1.53,-0.22,-1.06,-2.99,-2.09,
4.516,4.45,-1.53,-0.22,-1.01,-3.10,-2.10,
4.517,4.45,-1.53,-0.22,-0.96,-3.19,-2.10,
4.519,4.45,-1.53,-0.22,-0.91,-3.27,-2.10,
4.523,4.45,-1.53,-0.22,-0.86,-3.34,-2.10,
4.524,2.98,-0.39,-0.57,-0.86,-3.34,-2.10,
4.525,2.98,-0.39,-0.57,-0.82,-3.40,-2.08,
4.526,2.98,-0.39,-0.57,-0.77,-3.45,-2.06,
4.528,2.98,-0.39,-0.57,-0.73,-3.48,-2.03,
4.53,2.98,-0.39,-0.57,-0.69,-3.51,-2.00,
4.532,2.98,-0.39,-0.57,-0.65,-3.53,-1.97,
4.534,1.82,0.50,-1.07,-0.65,-3.53,-1.97,
4.534,1.82,0.50,-1.07,-0.61,-3.54,-1.93,
4.536,1.82,0.50,-1.07,-0.59,-3.54,-1.88,
4.538,1.82,0.50,-1.07,-0.56,-3.54,-1.84,
4.54,1.82,0.50,-1.07,-0.54,-3.52,-1.80,
4.543,1.82,0.50,-1.07,-0.51,-3.50,-1.75,
4.545,1.08,1.03,-1.51,-0.51,-3.50,-1.75,
4.546,1.08,1.03,-1.51,-0.50,-3.46,-1.70,
4.547,1.08,1.03,-1.51,-0.48,-3.42,-1.66,
4.548,1.08,1.03,-1.51,-0.47,-3.37,-1.62,
4.549,1.08,1.03,-1.51,-0.46,-3.32,-1.58,
4.553,1.08,1.03,-1.51,-0.45,-3.26,-1.54,
4.554,1.07,1.34,-1.85,-0.45,-3.26,-1.54,
4.555,1.07,1.34,-1.85,-0.44,-3.20,-1.51,
4.558,1.07,1.34,-1.85,-0.44,-3.12,-1.48,
4.558,1.07,1.34,-1.85,-0.44,-3.04,-1.45,
4.56,1.07,1.34,-1.85,-0.44,-2.95,-1.42,
4.562,1.07,1.34,-1.85,-0.44,-2.86,-1.39,
4.564,1.18,1.43,-1.88,-0.44,-2.86,-1.39,
4.564,1.18,1.43,-1.88,-0.44,-2.77,-1.37,
4.565,1.18,1.43,-1.88,-0.44,-2.67,-1.34,
4.567,1.18,1.43,-1.88,-0.45,-2.57,-1.32,
4.57,1.18,1.43,-1.88,-0.45,-2.46,-1.30,
4.584,1.18,1.43,-1.88,-0.46,-2.36,-1.27,
4.584,1.13,1.36,-1.66,-0.46,-2.36,-1.27,
4.585,1.13,1.36,-1.66,-0.48,-2.24,-1.25,
4.585,1.13,1.36,-1.66,-0.52,-2.11,-1.22,
4.585,1.13,1.36,-1.66,-0.57,-1.97,-1.19,
4.585,1.13,1.36,-1.66,-0.64,-1.81,-1.16,
4.606,1.13,1.36,-1.66,-0.73,-1.64,-1.13,
4.606,0.28,1.10,-0.58,-0.73,-1.64,-1.13,
4.607,0.28,1.10,-0.58,-0.83,-1.46,-1.09,
4.607,0.28,1.10,-0.58,-0.94,-1.28,-1.06,
4.607,0.28,1.10,-0.58,-1.06,-1.11,-1.02,
4.607,0.28,1.10,-0.58,-1.16,-0.94,-0.98,
4.607,0.28,1.10,-0.58,-1.26,-0.78,-0.94,
4.608,-0.73,0.63,0.39,-1.26,-0.78,-0.94,
4.608,-0.73,0.63,0.39,-1.34,-0.64,-0.90,
4.608,-0.73,0.63,0.39,-1.41,-0.50,-0.85,
4.608,-0.73,0.63,0.39,-1.47,-0.38,-0.81,
4.608,-0.73,0.63,0.39,-1.51,-0.28,-0.77,
4.609,-0.73,0.63,0.39,-1.55,-0.19,-0.73,
4.609,-1.11,0.36,1.49,-1.55,-0.19,-0.73,
4.609,-1.11,0.36,1.49,-1.57,-0.11,-0.68,
4.609,-1.11,0.36,1.49,-1.59,-0.04,-0.64,
4.627,-1.11,0.36,1.49,-1.58,0.02,-0.61,
4.628,-1.11,0.36,1.49,-1.58,0.07,-0.57,
4.628,-1.11,0.36,1.49,-1.56,0.10,-0.53,
4.628,-1.07,0.34,2.47,-1.56,0.10,-0.53,
4.628,-1.07,0.34,2.47,-1.53,0.13,-0.50,
4.629,-1.07,0.34,2.47,-1.50,0.16,-0.46,
4.629,-1.07,0.34,2.47,-1.46,0.18,-0.43,
4.629,-1.07,0.34,2.47,-1.42,0.19,-0.40,
4.629,-1.07,0.34,2.47,-1.37,0.21,-0.37,
4.629,-0.73,0.39,2.80,-1.37,0.21,-0.37,
4.63,-0.73,0.39,2.80,-1.31,0.22,-0.35,
4.63,-0.73,0.39,2.80,-1.26,0.22,-0.33,
4.63,-0.73,0.39,2.80,-1.20,0.22,-0.30,
4.63,-0.73,0.39,2.80,-1.14,0.22,-0.28,
4.636,-0.73,0.39,2.80,-1.08,0.21,-0.26,
4.636,-0.17,0.35,2.71,-1.08,0.21,-0.26,
4.637,-0.17,0.35,2.71,-1.02,0.20,-0.25,
4.637,-0.17,0.35,2.71,-0.96,0.19,-0.23,
4.644,-0.17,0.35,2.71,-0.89,0.17,-0.22,
4.644,-0.17,0.35,2.71,-0.83,0.15,-0.20,
4.644,-0.17,0.35,2.71,-0.77,0.14,-0.19,
4.645,0.27,0.30,2.25,-0.77,0.14,-0.19,
4.645,0.27,0.30,2.25,-0.72,0.11,-0.18,
4.647,0.27,0.30,2.25,-0.63,0.08,-0.16,
4.648,0.27,0.30,2.25,-0.58,0.05,-0.15,
4.649,0.27,0.30,2.25,-0.56,0.03,-0.15,
4.653,0.27,0.30,2.25,-0.51,0.01,-0.15,
4.656,0.62,0.28,1.69,-0.51,0.01,-0.15,
4.657,0.62,0.28,1.69,-0.47,-0.02,-0.14,
4.658,0.62,0.28,1.69,-0.44,-0.06,-0.14,
4.658,0.62,0.28,1.69,-0.41,-0.09,-0.15,
4.66,0.62,0.28,1.69,-0.38,-0.12,-0.15,
4.662,0.62,0.28,1.69,-0.37,-0.16,-0.15,
4.664,0.81,0.30,0.88,-0.37,-0.16,-0.15,
4.664,0.81,0.30,0.88,-0.35,-0.19,-0.15,
4.666,0.81,0.30,0.88,-0.34,-0.23,-0.16,
4.667,0.81,0.30,0.88,-0.34,-0.27,-0.17,
4.67,0.81,0.30,0.88,-0.34,-0.31,-0.17,
4.672,0.81,0.30,0.88,-0.36,-0.35,-0.18,
4.674,0.85,0.30,0.07,-0.36,-0.35,-0.18,
4.674,0.85,0.30,0.07,-0.37,-0.39,-0.18,
4.676,0.85,0.30,0.07,-0.39,-0.43,-0.19,
4.678,0.85,0.30,0.07,-0.41,-0.47,-0.20,
4.68,0.85,0.30,0.07,-0.44,-0.50,-0.20,
4.683,0.85,0.30,0.07,-0.48,-0.54,-0.21,
4.684,0.72,0.32,-0.64,-0.48,-0.54,-0.21,
4.684,0.72,0.32,-0.64,-0.52,-0.57,-0.21,
4.686,0.72,0.32,-0.64,-0.56,-0.59,-0.22,
4.688,0.72,0.32,-0.64,-0.61,-0.61,-0.22,
4.69,0.72,0.32,-0.64,-0.66,-0.63,-0.22,
4.691,0.72,0.32,-0.64,-0.71,-0.65,-0.23,
4.695,0.53,0.37,-1.15,-0.71,-0.65,-0.23,
4.695,0.53,0.37,-1.15,-0.77,-0.67,-0.23,
4.702,0.53,0.37,-1.15,-0.82,-0.68,-0.23,
4.702,0.53,0.37,-1.15,-0.88,-0.68,-0.23,
4.702,0.53,0.37,-1.15,-0.94,-0.69,-0.23,
4.702,0.53,0.37,-1.15,-1.00,-0.69,-0.24,
4.704,0.38,0.49,-1.28,-1.00,-0.69,-0.24,
4.704,0.38,0.49,-1.28,-1.07,-0.69,-0.24,
4.706,0.38,0.49,-1.28,-1.13,-0.70,-0.24,
4.708,0.38,0.49,-1.28,-1.19,-0.70,-0.24,
4.71,0.38,0.49,-1.28,-1.25,-0.70,-0.23,
4.711,0.38,0.49,-1.28,-1.31,-0.70,-0.23,
4.714,0.21,0.58,-1.08,-1.31,-0.70,-0.23,
4.714,0.21,0.58,-1.08,-1.36,-0.71,-0.23,
4.716,0.21,0.58,-1.08,-1.42,-0.71,-0.23,
4.718,0.21,0.58,-1.08,-1.47,-0.72,-0.23,
4.719,0.21,0.58,-1.08,-1.53,-0.72,-0.23,
4.724,0.21,0.58,-1.08,-1.57,-0.73,-0.22,
4.724,0.10,0.61,-0.57,-1.57,-0.73,-0.22,
4.724,0.10,0.61,-0.57,-1.62,-0.73,-0.22,
4.726,0.10,0.61,-0.57,-1.67,-0.73,-0.22,
4.727,0.10,0.61,-0.57,-1.71,-0.74,-0.22,
4.73,0.10,0.61,-0.57,-1.75,-0.74,-0.22,
4.731,0.10,0.61,-0.57,-1.79,-0.75,-0.22,
4.735,0.08,0.61,0.14,-1.79,-0.75,-0.22,
4.735,0.08,0.61,0.14,-1.82,-0.75,-0.22,
4.736,0.08,0.61,0.14,-1.85,-0.76,-0.22,
4.743,0.08,0.61,0.14,-1.88,-0.77,-0.22,
4.744,0.08,0.61,0.14,-1.90,-0.78,-0.22,
4.744,0.08,0.61,0.14,-1.93,-0.79,-0.23,
4.744,0.14,0.49,1.04,-1.93,-0.79,-0.23,
4.744,0.14,0.49,1.04,-1.95,-0.80,-0.23,
4.746,0.14,0.49,1.04,-1.97,-0.81,-0.23,
4.747,0.14,0.49,1.04,-1.99,-0.82,-0.23,
4.749,0.14,0.49,1.04,-2.00,-0.84,-0.24,
4.752,0.14,0.49,1.04,-2.01,-0.85,-0.24,
4.754,0.15,0.32,2.11,-2.01,-0.85,-0.24,
4.755,0.15,0.32,2.11,-2.02,-0.85,-0.24,
4.757,0.15,0.32,2.11,-2.02,-0.86,-0.24,
4.758,0.15,0.32,2.11,-2.01,-0.86,-0.24,
4.76,0.15,0.32,2.11,-2.01,-0.86,-0.24,
4.761,0.15,0.32,2.11,-1.99,-0.86,-0.24,
4.764,0.07,0.15,3.32,-1.99,-0.86,-0.24,
4.764,0.07,0.15,3.32,-1.97,-0.85,-0.23,
4.766,0.07,0.15,3.32,-1.94,-0.84,-0.23,
4.769,0.07,0.15,3.32,-1.91,-0.82,-0.22,
4.77,0.07,0.15,3.32,-1.87,-0.80,-0.22,
4.772,0.07,0.15,3.32,-1.82,-0.77,-0.22,
4.775,-0.07,-0.24,4.69,-1.82,-0.77,-0.22,
4.791,-0.07,-0.24,4.69,-1.77,-0.74,-0.21,
4.791,-0.07,-0.24,4.69,-1.71,-0.70,-0.20,
4.792,-0.07,-0.24,4.69,-1.65,-0.66,-0.20,
4.792,-0.07,-0.24,4.69,-1.58,-0.61,-0.19,
4.792,-0.07,-0.24,4.69,-1.51,-0.56,-0.18,
4.793,-0.30,-0.66,5.57,-1.51,-0.56,-0.18,
4.793,-0.30,-0.66,5.57,-1.43,-0.51,-0.17,
4.793,-0.30,-0.66,5.57,-1.35,-0.45,-0.16,
4.794,-0.30,-0.66,5.57,-1.27,-0.39,-0.14,
4.794,-0.30,-0.66,5.57,-1.19,-0.33,-0.13,
4.794,-0.30,-0.66,5.57,-1.10,-0.26,-0.12,
4.794,-0.71,-1.05,6.30,-1.10,-0.26,-0.12,
4.795,-0.71,-1.05,6.30,-1.02,-0.20,-0.10,
4.799,-0.71,-1.05,6.30,-0.93,-0.13,-0.08,
4.799,-0.71,-1.05,6.30,-0.85,-0.07,-0.07,
4.799,-0.71,-1.05,6.30,-0.77,-0.01,-0.05,
4.802,-0.71,-1.05,6.30,-0.68,0.04,-0.03,
4.804,-0.99,-1.34,6.27,-0.68,0.04,-0.03,
4.805,-0.99,-1.34,6.27,-0.60,0.09,-0.01,
4.806,-0.99,-1.34,6.27,-0.51,0.14,0.01,
4.808,-0.99,-1.34,6.27,-0.43,0.18,0.03,
4.81,-0.99,-1.34,6.27,-0.35,0.21,0.06,
4.812,-0.99,-1.34,6.27,-0.27,0.23,0.08,
4.814,-1.04,-1.79,5.87,-0.27,0.23,0.08,
4.814,-1.04,-1.79,5.87,-0.19,0.24,0.11,
4.816,-1.04,-1.79,5.87,-0.11,0.24,0.14,
4.818,-1.04,-1.79,5.87,-0.04,0.24,0.17,
4.819,-1.04,-1.79,5.87,0.03,0.23,0.20,
4.822,-1.04,-1.79,5.87,0.10,0.21,0.23,
4.824,-0.79,-2.15,4.58,0.10,0.21,0.23,
4.824,-0.79,-2.15,4.58,0.17,0.19,0.26,
4.827,-0.79,-2.15,4.58,0.23,0.16,0.30,
4.827,-0.79,-2.15,4.58,0.30,0.14,0.33,
4.829,-0.79,-2.15,4.58,0.35,0.10,0.36,
4.831,-0.79,-2.15,4.58,0.41,0.07,0.39,
4.834,-0.40,-2.45,2.97,0.41,0.07,0.39,
4.834,-0.40,-2.45,2.97,0.47,0.04,0.41,
4.836,-0.40,-2.45,2.97,0.52,0.01,0.44,
4.838,-0.40,-2.45,2.97,0.56,-0.02,0.46,
4.839,-0.40,-2.45,2.97,0.61,-0.05,0.48,
4.842,-0.40,-2.45,2.97,0.65,-0.08,0.50,
4.844,0.08,-2.82,1.35,0.65,-0.08,0.50,
4.844,0.08,-2.82,1.35,0.68,-0.12,0.51,
4.846,0.08,-2.82,1.35,0.72,-0.15,0.52,
4.848,0.08,-2.82,1.35,0.75,-0.18,0.52,
4.849,0.08,-2.82,1.35,0.77,-0.21,0.52,
4.851,0.08,-2.82,1.35,0.79,-0.24,0.52,
4.863,0.61,-3.41,0.38,0.79,-0.24,0.52,
4.863,0.61,-3.41,0.38,0.81,-0.27,0.52,
4.863,0.61,-3.41,0.38,0.81,-0.30,0.51,
4.864,0.61,-3.41,0.38,0.82,-0.33,0.50,
4.864,0.61,-3.41,0.38,0.82,-0.36,0.48,
4.864,0.61,-3.41,0.38,0.81,-0.39,0.46,
4.864,0.97,-4.12,0.01,0.81,-0.39,0.46,
4.864,0.97,-4.12,0.01,0.80,-0.42,0.44,
4.866,0.97,-4.12,0.01,0.79,-0.44,0.42,
4.868,0.97,-4.12,0.01,0.77,-0.46,0.39,
4.916,0.97,-4.12,0.01,0.75,-0.47,0.36,
4.917,0.97,-4.12,0.01,0.73,-0.47,0.33,
4.917,1.01,-4.82,0.52,0.73,-0.47,0.33,
4.917,1.01,-4.82,0.52,0.71,-0.47,0.30,
4.917,1.01,-4.82,0.52,0.69,-0.46,0.27,
4.917,1.01,-4.82,0.52,0.66,-0.42,0.23,
4.917,1.01,-4.82,0.52,0.66,-0.40,0.22,
4.917,1.01,-4.82,0.52,0.65,-0.36,0.20,
4.918,0.45,-4.97,2.04,0.65,-0.36,0.20,
4.918,0.45,-4.97,2.04,0.65,-0.30,0.18,
4.918,0.45,-4.97,2.04,0.66,-0.24,0.16,
4.918,0.45,-4.97,2.04,0.68,-0.17,0.16,
4.918,0.45,-4.97,2.04,0.71,-0.09,0.16,
4.918,0.45,-4.97,2.04,0.75,0.00,0.17,
4.919,-0.58,-4.22,4.52,0.75,0.00,0.17,
4.919,-0.58,-4.22,4.52,0.81,0.10,0.19,
4.919,-0.58,-4.22,4.52,0.88,0.20,0.21,
4.919,-0.58,-4.22,4.52,0.95,0.31,0.24,
4.919,-0.58,-4.22,4.52,1.04,0.42,0.27,
4.919,-0.58,-4.22,4.52,1.14,0.54,0.30,
4.919,-1.21,-3.19,6.49,1.14,0.54,0.30,
4.92,-1.21,-3.19,6.49,1.25,0.66,0.33,
4.92,-1.21,-3.19,6.49,1.37,0.80,0.36,
4.92,-1.21,-3.19,6.49,1.50,0.94,0.39,
4.92,-1.21,-3.19,6.49,1.64,1.08,0.42,
4.92,-1.21,-3.19,6.49,1.78,1.22,0.45,
4.92,-1.07,-2.35,7.88,1.78,1.22,0.45,
4.92,-1.07,-2.35,7.88,1.93,1.36,0.47,
4.921,-1.07,-2.35,7.88,2.09,1.49,0.49,
4.921,-1.07,-2.35,7.88,2.24,1.61,0.51,
4.922,-1.07,-2.35,7.88,2.39,1.72,0.53,
4.923,-1.07,-2.35,7.88,2.54,1.81,0.54,
4.927,-0.65,-1.75,7.28,2.54,1.81,0.54,
4.927,-0.65,-1.75,7.28,2.69,1.90,0.56,
4.927,-0.65,-1.75,7.28,2.83,1.96,0.58,
4.93,-0.65,-1.75,7.28,2.95,2.00,0.60,
4.931,-0.65,-1.75,7.28,3.07,2.03,0.62,
4.932,-0.65,-1.75,7.28,3.17,2.03,0.65,
4.934,-0.63,-1.60,4.80,3.17,2.03,0.65,
4.935,-0.63,-1.60,4.80,3.25,2.01,0.68,
4.938,-0.63,-1.60,4.80,3.31,1.98,0.71,
4.939,-0.63,-1.60,4.80,3.36,1.93,0.74,
4.94,-0.63,-1.60,4.80,3.38,1.87,0.78,
4.959,-0.63,-1.60,4.80,3.39,1.81,0.81,
4.959,-0.78,-1.96,0.25,3.39,1.81,0.81,
4.959,-0.78,-1.96,0.25,3.38,1.74,0.85,
4.959,-0.78,-1.96,0.25,3.35,1.67,0.89,
4.96,-0.78,-1.96,0.25,3.29,1.55,0.94,
4.96,-0.78,-1.96,0.25,3.26,1.52,0.95,
4.96,-0.78,-1.96,0.25,3.20,1.44,0.98,
4.961,-0.59,-2.41,-4.06,3.20,1.44,0.98,
4.961,-0.59,-2.41,-4.06,3.13,1.36,1.00,
4.961,-0.59,-2.41,-4.06,3.06,1.27,1.02,
4.961,-0.59,-2.41,-4.06,2.98,1.17,1.03,
4.962,-0.59,-2.41,-4.06,2.90,1.07,1.04,
4.962,-0.59,-2.41,-4.06,2.83,0.95,1.04,
4.967,0.15,-2.24,-5.97,2.83,0.95,1.04,
4.967,0.15,-2.24,-5.97,2.76,0.84,1.05,
4.967,0.15,-2.24,-5.97,2.69,0.71,1.04,
4.968,0.15,-2.24,-5.97,2.60,0.52,1.03,
