
time,ax,ay,az,wx,wy,wz,
0.002,-0.24,-0.88,-1.10,-0.21,-1.70,-0.35,
0.002,-0.24,-0.88,-1.10,-0.23,-1.71,-0.34,
0.002,-0.24,-0.88,-1.10,-0.28,-1.72,-0.32,
0.003,-0.54,-0.81,-1.89,-0.28,-1.72,-0.32,
0.003,-0.54,-0.81,-1.89,-0.33,-1.73,-0.30,
0.004,-0.54,-0.81,-1.89,-0.38,-1.73,-0.27,
0.007,-0.54,-0.81,-1.89,-0.46,-1.72,-0.24,
0.009,-0.54,-0.81,-1.89,-0.49,-1.72,-0.23,
0.015,-0.54,-0.81,-1.89,-0.55,-1.70,-0.20,
0.016,-0.78,-0.51,-2.47,-0.55,-1.70,-0.20,
0.016,-0.78,-0.51,-2.47,-0.61,-1.68,-0.17,
0.016,-0.78,-0.51,-2.47,-0.67,-1.66,-0.15,
0.019,-0.78,-0.51,-2.47,-0.75,-1.60,-0.10,
0.019,-0.78,-0.51,-2.47,-0.78,-1.59,-0.09,
0.02,-0.78,-0.51,-2.47,-0.84,-1.55,-0.06,
0.022,-0.81,-0.30,-2.52,-0.84,-1.55,-0.06,
0.023,-0.81,-0.30,-2.52,-0.89,-1.51,-0.03,
0.024,-0.81,-0.30,-2.52,-0.94,-1.47,-0.00,
0.066,-0.81,-0.30,-2.52,-1.02,-1.43,0.04,
0.067,-0.81,-0.30,-2.52,-1.05,-1.42,0.05,
0.067,-0.81,-0.30,-2.52,-1.09,-1.40,0.08,
0.067,-0.79,-0.17,-2.32,-1.09,-1.40,0.08,
0.067,-0.79,-0.17,-2.32,-1.13,-1.38,0.11,
0.068,-0.79,-0.17,-2.32,-1.17,-1.38,0.14,
0.068,-0.79,-0.17,-2.32,-1.22,-1.37,0.17,
0.068,-0.79,-0.17,-2.32,-1.24,-1.37,0.18,
0.068,-0.79,-0.17,-2.32,-1.26,-1.36,0.20,
0.069,-0.71,-0.36,-2.05,-1.26,-1.36,0.20,
0.069,-0.71,-0.36,-2.05,-1.29,-1.36,0.22,
0.069,-0.71,-0.36,-2.05,-1.31,-1.35,0.23,
0.069,-0.71,-0.36,-2.05,-1.34,-1.34,0.25,
0.069,-0.71,-0.36,-2.05,-1.35,-1.33,0.26,
0.069,-0.71,-0.36,-2.05,-1.36,-1.32,0.27,
0.07,-0.55,-0.68,-1.78,-1.36,-1.32,0.27,
0.07,-0.55,-0.68,-1.78,-1.37,-1.31,0.28,
0.07,-0.55,-0.68,-1.78,-1.38,-1.30,0.29,
0.07,-0.55,-0.68,-1.78,-1.39,-1.28,0.29,
0.07,-0.55,-0.68,-1.78,-1.39,-1.28,0.29,
0.071,-0.55,-0.68,-1.78,-1.39,-1.27,0.30,
0.071,-0.27,-1.02,-1.19,-1.39,-1.27,0.30,
0.071,-0.27,-1.02,-1.19,-1.38,-1.27,0.30,
0.071,-0.27,-1.02,-1.19,-1.38,-1.26,0.30,
0.071,-0.27,-1.02,-1.19,-1.36,-1.26,0.29,
0.071,-0.27,-1.02,-1.19,-1.35,-1.26,0.28,
0.072,-0.27,-1.02,-1.19,-1.34,-1.27,0.27,
0.075,0.08,-1.12,-0.45,-1.34,-1.27,0.27,
0.075,0.08,-1.12,-0.45,-1.32,-1.27,0.26,
0.075,0.08,-1.12,-0.45,-1.31,-1.28,0.25,
0.089,0.08,-1.12,-0.45,-1.28,-1.29,0.23,
0.09,0.08,-1.12,-0.45,-1.27,-1.30,0.22,
0.09,0.08,-1.12,-0.45,-1.25,-1.31,0.21,
0.09,0.16,-0.98,-0.03,-1.25,-1.31,0.21,
0.091,0.16,-0.98,-0.03,-1.23,-1.33,0.19,
0.091,0.16,-0.98,-0.03,-1.22,-1.36,0.18,
0.091,0.16,-0.98,-0.03,-1.19,-1.40,0.16,
0.091,0.16,-0.98,-0.03,-1.19,-1.42,0.15,
0.091,0.16,-0.98,-0.03,-1.18,-1.45,0.14,
0.093,0.02,-0.92,-0.19,-1.18,-1.45,0.14,
0.093,0.02,-0.92,-0.19,-1.17,-1.49,0.13,
0.103,0.02,-0.92,-0.19,-1.16,-1.55,0.13,
0.103,0.02,-0.92,-0.19,-1.15,-1.62,0.12,
0.103,0.02,-0.92,-0.19,-1.15,-1.65,0.11,
0.104,0.02,-0.92,-0.19,-1.16,-1.70,0.11,
0.105,-0.21,-0.97,-0.60,-1.16,-1.70,0.11,
0.106,-0.21,-0.97,-0.60,-1.17,-1.74,0.11,
0.106,-0.21,-0.97,-0.60,-1.19,-1.79,0.11,
0.108,-0.21,-0.97,-0.60,-1.20,-1.84,0.11,
0.117,-0.21,-0.97,-0.60,-1.21,-1.86,0.11,
0.118,-0.21,-0.97,-0.60,-1.23,-1.89,0.12,
0.118,-0.26,-0.88,-1.02,-1.23,-1.89,0.12,
0.118,-0.26,-0.88,-1.02,-1.25,-1.92,0.12,
0.126,-0.26,-0.88,-1.02,-1.27,-1.94,0.12,
0.126,-0.26,-0.88,-1.02,-1.31,-1.96,0.13,
0.126,-0.26,-0.88,-1.02,-1.32,-1.96,0.13,
0.126,-0.26,-0.88,-1.02,-1.34,-1.96,0.13,
0.126,0.18,-0.75,-1.11,-1.34,-1.96,0.13,
0.127,0.18,-0.75,-1.11,-1.36,-1.96,0.13,
0.127,0.18,-0.75,-1.11,-1.38,-1.95,0.14,
0.139,0.18,-0.75,-1.11,-1.41,-1.93,0.14,
0.14,0.18,-0.75,-1.11,-1.42,-1.93,0.15,
0.14,0.18,-0.75,-1.11,-1.44,-1.91,0.16,
0.14,0.54,-0.60,-0.88,-1.44,-1.91,0.16,
0.14,0.54,-0.60,-0.88,-1.47,-1.89,0.17,
0.142,0.54,-0.60,-0.88,-1.50,-1.87,0.18,
0.142,0.54,-0.60,-0.88,-1.53,-1.83,0.20,
0.152,0.54,-0.60,-0.88,-1.54,-1.82,0.21,
0.153,0.54,-0.60,-0.88,-1.55,-1.78,0.22,
0.153,0.72,-0.45,-0.55,-1.55,-1.78,0.22,
0.153,0.72,-0.45,-0.55,-1.56,-1.75,0.23,
0.153,0.72,-0.45,-0.55,-1.57,-1.71,0.24,
0.154,0.72,-0.45,-0.55,-1.59,-1.67,0.26,
0.154,0.72,-0.45,-0.55,-1.60,-1.65,0.26,
0.154,0.72,-0.45,-0.55,-1.61,-1.63,0.26,
0.155,1.03,-0.25,-0.35,-1.61,-1.63,0.26,
0.155,1.03,-0.25,-0.35,-1.63,-1.60,0.26,
0.155,1.03,-0.25,-0.35,-1.64,-1.58,0.25,
0.159,1.03,-0.25,-0.35,-1.66,-1.54,0.25,
0.159,1.03,-0.25,-0.35,-1.67,-1.53,0.24,
0.186,1.03,-0.25,-0.35,-1.69,-1.51,0.23,
0.186,1.09,-0.11,-0.47,-1.69,-1.51,0.23,
0.187,1.09,-0.11,-0.47,-1.70,-1.49,0.22,
0.187,1.09,-0.11,-0.47,-1.72,-1.46,0.21,
0.187,1.09,-0.11,-0.47,-1.74,-1.42,0.19,
0.187,1.09,-0.11,-0.47,-1.74,-1.40,0.19,
0.187,1.09,-0.11,-0.47,-1.76,-1.37,0.18,
0.187,0.98,-0.29,-0.27,-1.76,-1.37,0.18,
0.188,0.98,-0.29,-0.27,-1.77,-1.33,0.16,
0.188,0.98,-0.29,-0.27,-1.78,-1.29,0.15,
0.188,0.98,-0.29,-0.27,-1.79,-1.22,0.14,
0.188,0.98,-0.29,-0.27,-1.79,-1.20,0.13,
0.188,0.98,-0.29,-0.27,-1.78,-1.16,0.13,
0.188,0.65,-0.54,0.33,-1.78,-1.16,0.13,
0.188,0.65,-0.54,0.33,-1.77,-1.13,0.12,
0.189,0.65,-0.54,0.33,-1.76,-1.10,0.11,
0.189,0.65,-0.54,0.33,-1.73,-1.07,0.11,
0.189,0.65,-0.54,0.33,-1.71,-1.06,0.11,
0.192,0.65,-0.54,0.33,-1.69,-1.03,0.11,
0.192,0.13,-0.67,0.98,-1.69,-1.03,0.11,
0.193,0.13,-0.67,0.98,-1.65,-1.01,0.10,
0.212,0.13,-0.67,0.98,-1.62,-0.99,0.10,
0.212,0.13,-0.67,0.98,-1.56,-0.97,0.08,
0.212,0.13,-0.67,0.98,-1.54,-0.96,0.08,
0.213,0.13,-0.67,0.98,-1.49,-0.95,0.07,
0.213,-0.33,-0.50,1.58,-1.49,-0.95,0.07,
0.213,-0.33,-0.50,1.58,-1.45,-0.93,0.06,
0.213,-0.33,-0.50,1.58,-1.40,-0.92,0.05,
0.213,-0.33,-0.50,1.58,-1.33,-0.91,0.03,
0.213,-0.33,-0.50,1.58,-1.30,-0.91,0.03,
0.213,-0.33,-0.50,1.58,-1.25,-0.90,0.02,
0.213,-0.41,-0.24,1.96,-1.25,-0.90,0.02,
0.214,-0.41,-0.24,1.96,-1.20,-0.90,0.00,
0.217,-0.41,-0.24,1.96,-1.15,-0.91,-0.01,
0.217,-0.41,-0.24,1.96,-1.08,-0.93,-0.02,
0.218,-0.41,-0.24,1.96,-1.06,-0.93,-0.02,
0.22,-0.41,-0.24,1.96,-1.01,-0.95,-0.03,
0.222,-0.19,-0.14,1.96,-1.01,-0.95,-0.03,
0.222,-0.19,-0.14,1.96,-0.97,-0.94,-0.04,
0.225,-0.19,-0.14,1.96,-0.92,-0.92,-0.04,
0.228,-0.19,-0.14,1.96,-0.86,-0.86,-0.04,
0.228,-0.19,-0.14,1.96,-0.84,-0.84,-0.04,
0.23,-0.19,-0.14,1.96,-0.80,-0.80,-0.04,
0.232,0.39,-0.25,1.85,-0.80,-0.80,-0.04,
0.232,0.39,-0.25,1.85,-0.76,-0.76,-0.04,
0.234,0.39,-0.25,1.85,-0.72,-0.74,-0.05,
0.237,0.39,-0.25,1.85,-0.64,-0.72,-0.05,
0.238,0.39,-0.25,1.85,-0.62,-0.72,-0.05,
0.24,0.39,-0.25,1.85,-0.57,-0.71,-0.05,
0.245,0.98,-0.26,2.33,-0.57,-0.71,-0.05,
0.245,0.98,-0.26,2.33,-0.52,-0.70,-0.06,
0.245,0.98,-0.26,2.33,-0.48,-0.70,-0.07,
0.247,0.98,-0.26,2.33,-0.40,-0.68,-0.09,
0.248,0.98,-0.26,2.33,-0.37,-0.68,-0.10,
0.25,0.98,-0.26,2.33,-0.32,-0.67,-0.11,
0.252,1.35,-0.15,2.36,-0.32,-0.67,-0.11,
0.252,1.35,-0.15,2.36,-0.26,-0.66,-0.13,
0.254,1.35,-0.15,2.36,-0.20,-0.66,-0.15,
0.257,1.35,-0.15,2.36,-0.11,-0.66,-0.18,
0.258,1.35,-0.15,2.36,-0.08,-0.66,-0.19,
0.267,1.35,-0.15,2.36,-0.02,-0.67,-0.21,
0.267,0.94,0.01,2.26,-0.02,-0.67,-0.21,
0.267,0.94,0.01,2.26,0.04,-0.68,-0.23,
0.268,0.94,0.01,2.26,0.10,-0.70,-0.25,
0.268,0.94,0.01,2.26,0.18,-0.74,-0.29,
0.268,0.94,0.01,2.26,0.20,-0.75,-0.30,
0.27,0.94,0.01,2.26,0.25,-0.79,-0.32,
0.272,0.49,0.03,1.77,0.25,-0.79,-0.32,
0.272,0.49,0.03,1.77,0.29,-0.82,-0.34,
0.298,0.49,0.03,1.77,0.33,-0.86,-0.37,
0.298,0.49,0.03,1.77,0.39,-0.91,-0.40,
0.299,0.49,0.03,1.77,0.40,-0.92,-0.41,
0.299,0.49,0.03,1.77,0.43,-0.94,-0.43,
0.3,0.17,-0.02,1.07,0.43,-0.94,-0.43,
0.301,0.17,-0.02,1.07,0.44,-0.97,-0.45,
0.301,0.17,-0.02,1.07,0.45,-0.99,-0.47,
0.301,0.17,-0.02,1.07,0.44,-1.02,-0.50,
0.302,0.17,-0.02,1.07,0.44,-1.03,-0.50,
0.302,0.17,-0.02,1.07,0.43,-1.06,-0.52,
0.303,0.09,-0.01,0.23,0.43,-1.06,-0.52,
0.303,0.09,-0.01,0.23,0.42,-1.07,-0.53,
0.304,0.09,-0.01,0.23,0.40,-1.09,-0.54,
0.304,0.09,-0.01,0.23,0.38,-1.13,-0.55,
0.304,0.09,-0.01,0.23,0.37,-1.14,-0.55,
0.305,0.09,-0.01,0.23,0.35,-1.15,-0.56,
0.305,0.01,0.25,-0.02,0.35,-1.15,-0.56,
0.306,0.01,0.25,-0.02,0.33,-1.16,-0.56,
0.306,0.01,0.25,-0.02,0.31,-1.17,-0.57,
0.319,0.01,0.25,-0.02,0.27,-1.18,-0.57,
0.32,0.01,0.25,-0.02,0.26,-1.18,-0.58,
0.321,0.01,0.25,-0.02,0.23,-1.18,-0.58,
0.321,0.01,0.58,-0.14,0.23,-1.18,-0.58,
0.321,0.01,0.58,-0.14,0.20,-1.19,-0.58,
0.322,0.01,0.58,-0.14,0.17,-1.20,-0.59,
0.322,0.01,0.58,-0.14,0.12,-1.21,-0.59,
0.322,0.01,0.58,-0.14,0.10,-1.22,-0.59,
0.323,0.01,0.58,-0.14,0.07,-1.23,-0.60,
0.323,0.08,0.56,-0.51,0.07,-1.23,-0.60,
0.323,0.08,0.56,-0.51,0.03,-1.24,-0.60,
0.324,0.08,0.56,-0.51,-0.01,-1.26,-0.61,
0.339,0.08,0.56,-0.51,-0.08,-1.28,-0.61,
0.339,0.08,0.56,-0.51,-0.10,-1.28,-0.61,
0.34,0.08,0.56,-0.51,-0.15,-1.29,-0.62,
0.34,0.17,0.46,-1.00,-0.15,-1.29,-0.62,
0.34,0.17,0.46,-1.00,-0.21,-1.30,-0.62,
0.341,0.17,0.46,-1.00,-0.26,-1.29,-0.62,
0.341,0.17,0.46,-1.00,-0.35,-1.26,-0.61,
0.341,0.17,0.46,-1.00,-0.39,-1.24,-0.61,
0.342,0.17,0.46,-1.00,-0.45,-1.19,-0.60,
0.342,0.21,0.37,-1.64,-0.45,-1.19,-0.60,
0.342,0.21,0.37,-1.64,-0.51,-1.14,-0.59,
0.345,0.21,0.37,-1.64,-0.58,-1.09,-0.58,
0.366,0.21,0.37,-1.64,-0.67,-1.03,-0.56,
0.367,0.21,0.37,-1.64,-0.70,-1.01,-0.55,
0.367,0.21,0.37,-1.64,-0.76,-0.99,-0.53,
0.367,-0.35,0.19,-1.98,-0.76,-0.99,-0.53,
0.367,-0.35,0.19,-1.98,-0.82,-0.98,-0.50,
0.368,-0.35,0.19,-1.98,-0.87,-0.97,-0.47,
0.368,-0.35,0.19,-1.98,-0.94,-0.95,-0.41,
0.368,-0.35,0.19,-1.98,-0.96,-0.95,-0.39,
0.368,-0.35,0.19,-1.98,-1.00,-0.95,-0.34,
0.369,-1.30,0.19,-1.53,-1.00,-0.95,-0.34,
0.369,-1.30,0.19,-1.53,-1.03,-0.95,-0.29,
0.369,-1.30,0.19,-1.53,-1.05,-0.96,-0.25,
0.369,-1.30,0.19,-1.53,-1.08,-0.98,-0.17,
0.369,-1.30,0.19,-1.53,-1.09,-0.99,-0.15,
0.373,-1.30,0.19,-1.53,-1.10,-1.00,-0.10,
0.373,-1.55,0.36,-0.59,-1.10,-1.00,-0.10,
0.374,-1.55,0.36,-0.59,-1.11,-1.01,-0.06,
0.375,-1.55,0.36,-0.59,-1.11,-1.02,-0.01,
0.377,-1.55,0.36,-0.59,-1.11,-1.02,0.05,
0.378,-1.55,0.36,-0.59,-1.11,-1.03,0.07,
0.38,-1.55,0.36,-0.59,-1.09,-1.02,0.10,
0.385,-1.24,0.58,0.44,-1.09,-1.02,0.10,
0.386,-1.24,0.58,0.44,-1.08,-1.02,0.12,
0.387,-1.24,0.58,0.44,-1.07,-1.02,0.14,
0.388,-1.24,0.58,0.44,-1.05,-1.01,0.15,
0.388,-1.24,0.58,0.44,-1.04,-1.01,0.15,
0.405,-1.24,0.58,0.44,-1.03,-1.00,0.15,
0.406,-0.03,0.54,0.82,-1.03,-1.00,0.15,
0.406,-0.03,0.54,0.82,-1.02,-0.99,0.14,
0.406,-0.03,0.54,0.82,-1.00,-0.99,0.13,
0.406,-0.03,0.54,0.82,-0.97,-0.98,0.10,
0.407,-0.03,0.54,0.82,-0.96,-0.97,0.09,
0.407,-0.03,0.54,0.82,-0.95,-0.97,0.07,
0.407,0.92,0.43,1.00,-0.95,-0.97,0.07,
0.407,0.92,0.43,1.00,-0.93,-0.97,0.04,
0.407,0.92,0.43,1.00,-0.91,-0.96,0.01,
0.407,0.92,0.43,1.00,-0.89,-0.96,-0.03,
0.409,0.92,0.43,1.00,-0.89,-0.95,-0.05,
0.429,0.92,0.43,1.00,-0.88,-0.95,-0.08,
0.429,1.19,0.34,0.79,-0.88,-0.95,-0.08,
0.43,1.19,0.34,0.79,-0.87,-0.95,-0.10,
0.43,1.19,0.34,0.79,-0.86,-0.95,-0.13,
0.43,1.19,0.34,0.79,-0.85,-0.94,-0.16,
0.43,1.19,0.34,0.79,-0.85,-0.94,-0.17,
0.43,1.19,0.34,0.79,-0.85,-0.93,-0.19,
0.431,0.73,0.31,0.32,-0.85,-0.93,-0.19,
0.431,0.73,0.31,0.32,-0.85,-0.91,-0.20,
0.431,0.73,0.31,0.32,-0.86,-0.89,-0.21,
0.431,0.73,0.31,0.32,-0.86,-0.87,-0.21,
0.431,0.73,0.31,0.32,-0.86,-0.87,-0.20,
0.432,0.73,0.31,0.32,-0.86,-0.86,-0.20,
0.437,-0.14,0.28,0.10,-0.86,-0.86,-0.20,
0.437,-0.14,0.28,0.10,-0.86,-0.86,-0.18,
0.438,-0.14,0.28,0.10,-0.86,-0.85,-0.16,
0.438,-0.14,0.28,0.10,-0.85,-0.85,-0.13,
0.438,-0.14,0.28,0.10,-0.84,-0.85,-0.12,
0.44,-0.14,0.28,0.10,-0.83,-0.86,-0.09,
0.458,-0.73,0.13,0.18,-0.83,-0.86,-0.09,
0.459,-0.73,0.13,0.18,-0.82,-0.86,-0.07,
0.459,-0.73,0.13,0.18,-0.82,-0.87,-0.05,
0.459,-0.73,0.13,0.18,-0.80,-0.88,-0.01,
0.459,-0.73,0.13,0.18,-0.80,-0.88,-0.01,
0.46,-0.73,0.13,0.18,-0.78,-0.89,0.03,
0.46,-0.73,0.13,0.18,-0.78,-0.89,0.03,
0.46,-0.73,0.13,0.18,-0.78,-0.89,0.03,
0.461,-0.52,-0.04,0.27,-0.78,-0.89,0.03,
0.461,-0.52,-0.04,0.27,-0.77,-0.89,0.04,
0.501,-0.52,-0.04,0.27,-0.76,-0.90,0.04,
0.501,-0.52,-0.04,0.27,-0.76,-0.91,0.04,
0.501,-0.36,-0.05,0.26,-0.76,-0.91,0.04,
0.501,-0.36,-0.05,0.26,-0.75,-0.92,0.05,
0.501,-0.36,-0.05,0.26,-0.73,-0.93,0.05,
0.502,-0.36,-0.05,0.26,-0.71,-0.94,0.06,
0.502,-0.36,-0.05,0.26,-0.71,-0.95,0.06,
0.502,-0.36,-0.05,0.26,-0.69,-0.96,0.07,
0.502,-0.49,-0.09,0.38,-0.69,-0.96,0.07,
0.502,-0.49,-0.09,0.38,-0.67,-0.97,0.08,
0.502,-0.49,-0.09,0.38,-0.65,-0.99,0.09,
0.502,-0.49,-0.09,0.38,-0.61,-1.02,0.09,
0.503,-0.49,-0.09,0.38,-0.60,-1.03,0.10,
0.503,-0.49,-0.09,0.38,-0.58,-1.04,0.10,
0.503,-0.48,-0.14,0.72,-0.58,-1.04,0.10,
0.503,-0.48,-0.14,0.72,-0.55,-1.06,0.11,
0.503,-0.48,-0.14,0.72,-0.53,-1.07,0.11,
0.503,-0.48,-0.14,0.72,-0.49,-1.08,0.11,
0.504,-0.48,-0.14,0.72,-0.47,-1.08,0.11,
0.504,-0.48,-0.14,0.72,-0.44,-1.08,0.11,
0.504,-0.21,-0.18,1.10,-0.44,-1.08,0.11,
0.504,-0.21,-0.18,1.10,-0.41,-1.07,0.11,
0.504,-0.21,-0.18,1.10,-0.38,-1.06,0.11,
0.504,-0.21,-0.18,1.10,-0.34,-1.07,0.10,
0.505,-0.21,-0.18,1.10,-0.32,-1.07,0.09,
0.505,-0.21,-0.18,1.10,-0.30,-1.08,0.08,
0.505,-0.03,-0.11,1.20,-0.30,-1.08,0.08,
0.505,-0.03,-0.11,1.20,-0.27,-1.08,0.07,
0.505,-0.03,-0.11,1.20,-0.24,-1.09,0.06,
0.507,-0.03,-0.11,1.20,-0.20,-1.08,0.05,
0.509,-0.03,-0.11,1.20,-0.19,-1.08,0.04,
0.52,-0.03,-0.11,1.20,-0.16,-1.09,0.03,
0.521,-0.08,0.01,1.10,-0.16,-1.09,0.03,
0.521,-0.08,0.01,1.10,-0.13,-1.10,0.03,
0.521,-0.08,0.01,1.10,-0.10,-1.11,0.02,
0.521,-0.08,0.01,1.10,-0.06,-1.13,0.01,
0.521,-0.08,0.01,1.10,-0.05,-1.14,0.01,
0.521,-0.08,0.01,1.10,-0.03,-1.16,0.02,
0.522,-0.42,0.00,0.71,-0.03,-1.16,0.02,
0.522,-0.42,0.00,0.71,-0.01,-1.17,0.02,
0.533,-0.42,0.00,0.71,0.01,-1.19,0.02,
0.533,-0.42,0.00,0.71,0.04,-1.22,0.02,
0.533,-0.42,0.00,0.71,0.04,-1.23,0.02,
0.533,-0.42,0.00,0.71,0.05,-1.24,0.02,
0.533,-0.50,-0.27,0.29,0.05,-1.24,0.02,
0.534,-0.50,-0.27,0.29,0.06,-1.25,0.03,
0.534,-0.50,-0.27,0.29,0.07,-1.26,0.03,
0.536,-0.50,-0.27,0.29,0.08,-1.27,0.03,
0.538,-0.50,-0.27,0.29,0.08,-1.28,0.04,
0.54,-0.50,-0.27,0.29,0.08,-1.28,0.04,
0.553,-0.57,-0.45,-0.13,0.08,-1.28,0.04,
0.553,-0.57,-0.45,-0.13,0.07,-1.28,0.05,
0.553,-0.57,-0.45,-0.13,0.06,-1.26,0.05,
0.554,-0.57,-0.45,-0.13,0.06,-1.24,0.06,
0.554,-0.57,-0.45,-0.13,0.05,-1.24,0.07,
0.554,-0.57,-0.45,-0.13,0.05,-1.23,0.08,
0.555,-0.87,-0.37,-0.22,0.05,-1.23,0.08,
0.555,-0.87,-0.37,-0.22,0.05,-1.22,0.09,
0.555,-0.87,-0.37,-0.22,0.05,-1.21,0.10,
0.57,-0.87,-0.37,-0.22,0.05,-1.19,0.11,
0.57,-0.87,-0.37,-0.22,0.05,-1.19,0.11,
0.57,-0.87,-0.37,-0.22,0.06,-1.18,0.12,
0.57,-0.78,-0.14,0.26,0.06,-1.18,0.12,
0.57,-0.78,-0.14,0.26,0.07,-1.17,0.12,
0.571,-0.78,-0.14,0.26,0.08,-1.16,0.13,
0.571,-0.78,-0.14,0.26,0.10,-1.15,0.12,
0.571,-0.78,-0.14,0.26,0.11,-1.16,0.12,
0.571,-0.78,-0.14,0.26,0.13,-1.16,0.11,
0.573,-0.52,-0.04,0.86,0.13,-1.16,0.11,
0.573,-0.52,-0.04,0.86,0.16,-1.16,0.10,
0.588,-0.52,-0.04,0.86,0.18,-1.16,0.08,
0.588,-0.52,-0.04,0.86,0.23,-1.15,0.06,
0.588,-0.52,-0.04,0.86,0.24,-1.15,0.05,
0.589,-0.52,-0.04,0.86,0.27,-1.14,0.04,
0.589,-0.26,-0.08,1.50,0.27,-1.14,0.04,
0.589,-0.26,-0.08,1.50,0.31,-1.13,0.02,
0.589,-0.26,-0.08,1.50,0.34,-1.12,0.01,
0.59,-0.26,-0.08,1.50,0.40,-1.11,-0.02,
0.59,-0.26,-0.08,1.50,0.41,-1.10,-0.02,
0.629,-0.26,-0.08,1.50,0.45,-1.10,-0.03,
0.63,-0.33,-0.09,1.76,0.45,-1.10,-0.03,
0.63,-0.33,-0.09,1.76,0.48,-1.09,-0.05,
0.63,-0.33,-0.09,1.76,0.51,-1.08,-0.06,
0.63,-0.33,-0.09,1.76,0.55,-1.05,-0.08,
0.63,-0.33,-0.09,1.76,0.56,-1.04,-0.08,
0.63,-0.33,-0.09,1.76,0.58,-1.02,-0.09,
0.63,-0.51,-0.08,1.20,0.58,-1.02,-0.09,
0.631,-0.51,-0.08,1.20,0.60,-1.00,-0.10,
0.631,-0.51,-0.08,1.20,0.62,-0.98,-0.11,
0.631,-0.51,-0.08,1.20,0.64,-0.95,-0.13,
0.644,-0.51,-0.08,1.20,0.64,-0.94,-0.13,
0.644,-0.51,-0.08,1.20,0.65,-0.91,-0.14,
0.644,-0.73,-0.15,0.54,0.65,-0.91,-0.14,
0.644,-0.73,-0.15,0.54,0.66,-0.88,-0.16,
0.645,-0.73,-0.15,0.54,0.66,-0.84,-0.17,
0.645,-0.73,-0.15,0.54,0.65,-0.78,-0.19,
0.645,-0.73,-0.15,0.54,0.64,-0.76,-0.20,
0.645,-0.73,-0.15,0.54,0.63,-0.72,-0.22,
0.645,-1.04,-0.24,-0.39,0.63,-0.72,-0.22,
0.646,-1.04,-0.24,-0.39,0.61,-0.69,-0.26,
0.646,-1.04,-0.24,-0.39,0.59,-0.64,-0.30,
0.646,-1.04,-0.24,-0.39,0.54,-0.57,-0.37,
0.646,-1.04,-0.24,-0.39,0.53,-0.55,-0.39,
0.646,-1.04,-0.24,-0.39,0.50,-0.50,-0.45,
0.647,-1.04,-0.69,-1.42,0.50,-0.50,-0.45,
0.647,-1.04,-0.69,-1.42,0.47,-0.46,-0.51,
0.647,-1.04,-0.69,-1.42,0.44,-0.42,-0.58,
0.647,-1.04,-0.69,-1.42,0.39,-0.34,-0.68,
0.647,-1.04,-0.69,-1.42,0.38,-0.32,-0.71,
0.648,-1.04,-0.69,-1.42,0.35,-0.26,-0.78,
0.648,-0.69,-1.12,-2.20,0.35,-0.26,-0.78,
0.648,-0.69,-1.12,-2.20,0.31,-0.22,-0.85,
0.648,-0.69,-1.12,-2.20,0.28,-0.17,-0.92,
0.648,-0.69,-1.12,-2.20,0.23,-0.09,-1.00,
0.649,-0.69,-1.12,-2.20,0.21,-0.06,-1.02,
0.652,-0.69,-1.12,-2.20,0.17,-0.01,-1.03,
0.652,-0.15,-1.56,-2.36,0.17,-0.01,-1.03,
0.652,-0.15,-1.56,-2.36,0.12,0.04,-1.01,
0.654,-0.15,-1.56,-2.36,0.07,0.06,-0.96,
0.657,-0.15,-1.56,-2.36,0.00,0.07,-0.85,
0.658,-0.15,-1.56,-2.36,-0.02,0.06,-0.80,
0.669,-0.15,-1.56,-2.36,-0.07,0.04,-0.70,
0.669,-1.06,-1.33,-2.42,-0.07,0.04,-0.70,
0.669,-1.06,-1.33,-2.42,-0.11,0.02,-0.61,
0.67,-1.06,-1.33,-2.42,-0.16,0.01,-0.51,
0.67,-1.06,-1.33,-2.42,-0.23,0.00,-0.38,
0.67,-1.06,-1.33,-2.42,-0.25,-0.00,-0.34,
0.672,-1.06,-1.33,-2.42,-0.29,-0.00,-0.27,
0.672,-2.33,-0.31,-2.81,-0.29,-0.00,-0.27,
0.672,-2.33,-0.31,-2.81,-0.32,-0.01,-0.22,
0.675,-2.33,-0.31,-2.81,-0.34,-0.00,-0.19,
0.678,-2.33,-0.31,-2.81,-0.36,0.02,-0.16,
0.678,-2.33,-0.31,-2.81,-0.36,0.03,-0.16,
0.68,-2.33,-0.31,-2.81,-0.37,0.04,-0.17,
0.683,-2.37,-0.49,-2.07,-0.37,0.04,-0.17,
0.684,-2.37,-0.49,-2.07,-0.36,0.04,-0.18,
0.685,-2.37,-0.49,-2.07,-0.36,0.03,-0.20,
0.687,-2.37,-0.49,-2.07,-0.36,0.00,-0.24,
0.688,-2.37,-0.49,-2.07,-0.35,-0.00,-0.25,
0.69,-2.37,-0.49,-2.07,-0.34,-0.01,-0.28,
0.692,-1.91,-2.06,-1.36,-0.34,-0.01,-0.28,
0.692,-1.91,-2.06,-1.36,-0.34,-0.02,-0.31,
0.695,-1.91,-2.06,-1.36,-0.33,-0.03,-0.34,
0.697,-1.91,-2.06,-1.36,-0.33,-0.06,-0.39,
0.698,-1.91,-2.06,-1.36,-0.33,-0.08,-0.41,
0.7,-1.91,-2.06,-1.36,-0.32,-0.10,-0.44,
0.706,-1.62,-2.86,-0.92,-0.32,-0.10,-0.44,
0.706,-1.62,-2.86,-0.92,-0.32,-0.12,-0.48,
0.706,-1.62,-2.86,-0.92,-0.33,-0.14,-0.52,
0.707,-1.62,-2.86,-0.92,-0.33,-0.15,-0.58,
0.708,-1.62,-2.86,-0.92,-0.34,-0.16,-0.60,
0.711,-1.62,-2.86,-0.92,-0.35,-0.15,-0.65,
0.712,-1.39,-2.89,-1.09,-0.35,-0.15,-0.65,
0.713,-1.39,-2.89,-1.09,-0.36,-0.14,-0.69,
0.714,-1.39,-2.89,-1.09,-0.38,-0.11,-0.74,
0.717,-1.39,-2.89,-1.09,-0.41,-0.06,-0.81,
0.718,-1.39,-2.89,-1.09,-0.43,-0.03,-0.83,
0.72,-1.39,-2.89,-1.09,-0.45,0.02,-0.87,
0.722,-1.22,-2.37,-1.80,-0.45,0.02,-0.87,
0.722,-1.22,-2.37,-1.80,-0.49,0.08,-0.90,
0.726,-1.22,-2.37,-1.80,-0.52,0.14,-0.94,
0.728,-1.22,-2.37,-1.80,-0.58,0.25,-0.97,
0.728,-1.22,-2.37,-1.80,-0.60,0.29,-0.98,
0.731,-1.22,-2.37,-1.80,-0.65,0.36,-1.00,
0.733,-1.16,-2.14,-2.35,-0.65,0.36,-1.00,
0.733,-1.16,-2.14,-2.35,-0.70,0.41,-1.02,
0.734,-1.16,-2.14,-2.35,-0.74,0.44,-1.04,
0.762,-1.16,-2.14,-2.35,-0.81,0.46,-1.07,
0.762,-1.16,-2.14,-2.35,-0.84,0.46,-1.08,
0.762,-1.16,-2.14,-2.35,-0.88,0.45,-1.11,
0.763,-0.84,-2.59,-2.06,-0.88,0.45,-1.11,
0.763,-0.84,-2.59,-2.06,-0.92,0.42,-1.14,
0.763,-0.84,-2.59,-2.06,-0.97,0.41,-1.17,
0.763,-0.84,-2.59,-2.06,-1.03,0.37,-1.23,
0.763,-0.84,-2.59,-2.06,-1.06,0.37,-1.25,
0.763,-0.84,-2.59,-2.06,-1.10,0.34,-1.28,
0.763,0.02,-3.23,-2.24,-1.10,0.34,-1.28,
0.763,0.02,-3.23,-2.24,-1.16,0.33,-1.32,
0.764,0.02,-3.23,-2.24,-1.21,0.32,-1.37,
0.764,0.02,-3.23,-2.24,-1.29,0.31,-1.42,
0.764,0.02,-3.23,-2.24,-1.32,0.31,-1.44,
0.764,0.02,-3.23,-2.24,-1.38,0.31,-1.48,
0.764,0.57,-3.14,-3.24,-1.38,0.31,-1.48,
0.764,0.57,-3.14,-3.24,-1.44,0.30,-1.51,
0.767,0.57,-3.14,-3.24,-1.51,0.30,-1.55,
0.767,0.57,-3.14,-3.24,-1.61,0.30,-1.58,
0.768,0.57,-3.14,-3.24,-1.65,0.30,-1.59,
0.77,0.57,-3.14,-3.24,-1.73,0.30,-1.61,
0.772,0.65,-3.00,-4.35,-1.73,0.30,-1.61,
0.773,0.65,-3.00,-4.35,-1.80,0.30,-1.62,
0.785,0.65,-3.00,-4.35,-1.88,0.31,-1.62,
0.785,0.65,-3.00,-4.35,-2.01,0.31,-1.62,
0.785,0.65,-3.00,-4.35,-2.05,0.30,-1.61,
0.786,0.65,-3.00,-4.35,-2.13,0.28,-1.60,
0.786,0.13,-2.75,-4.91,-2.13,0.28,-1.60,
0.786,0.13,-2.75,-4.91,-2.22,0.26,-1.58,
0.786,0.13,-2.75,-4.91,-2.31,0.24,-1.56,
0.787,0.13,-2.75,-4.91,-2.44,0.20,-1.51,
0.788,0.13,-2.75,-4.91,-2.49,0.18,-1.50,
0.791,0.13,-2.75,-4.91,-2.58,0.15,-1.47,
0.793,-0.25,-2.97,-4.77,-2.58,0.15,-1.47,
0.793,-0.25,-2.97,-4.77,-2.68,0.12,-1.44,
0.794,-0.25,-2.97,-4.77,-2.77,0.08,-1.41,
0.797,-0.25,-2.97,-4.77,-2.91,0.02,-1.36,
0.798,-0.25,-2.97,-4.77,-2.96,0.00,-1.35,
0.803,-0.25,-2.97,-4.77,-3.05,-0.05,-1.32,
0.803,-0.21,-3.19,-4.14,-3.05,-0.05,-1.32,
0.803,-0.21,-3.19,-4.14,-3.14,-0.11,-1.30,
0.805,-0.21,-3.19,-4.14,-3.23,-0.16,-1.28,
0.807,-0.21,-3.19,-4.14,-3.36,-0.24,-1.25,
0.808,-0.21,-3.19,-4.14,-3.40,-0.27,-1.24,
0.81,-0.21,-3.19,-4.14,-3.49,-0.32,-1.22,
0.812,0.36,-3.61,-3.30,-3.49,-0.32,-1.22,
0.812,0.36,-3.61,-3.30,-3.57,-0.36,-1.21,
0.814,0.36,-3.61,-3.30,-3.64,-0.40,-1.19,
0.818,0.36,-3.61,-3.30,-3.75,-0.46,-1.17,
0.818,0.36,-3.61,-3.30,-3.79,-0.48,-1.16,
0.821,0.36,-3.61,-3.30,-3.89,-0.52,-1.15,
0.822,0.81,-3.46,-2.37,-3.89,-0.52,-1.15,
0.822,0.81,-3.46,-2.37,-3.92,-0.54,-1.14,
0.824,0.81,-3.46,-2.37,-3.98,-0.58,-1.13,
0.827,0.81,-3.46,-2.37,-4.06,-0.64,-1.13,
0.83,0.81,-3.46,-2.37,-4.08,-0.67,-1.13,
0.831,0.81,-3.46,-2.37,-4.13,-0.71,-1.13,
0.833,1.45,-3.21,-1.24,-4.13,-0.71,-1.13,
0.833,1.45,-3.21,-1.24,-4.17,-0.76,-1.14,
0.834,1.45,-3.21,-1.24,-4.20,-0.80,-1.16,
0.837,1.45,-3.21,-1.24,-4.23,-0.85,-1.18,
0.838,1.45,-3.21,-1.24,-4.24,-0.86,-1.20,
0.842,1.45,-3.21,-1.24,-4.26,-0.88,-1.22,
0.843,2.49,-2.61,0.15,-4.26,-0.88,-1.22,
0.843,2.49,-2.61,0.15,-4.26,-0.90,-1.25,
0.844,2.49,-2.61,0.15,-4.26,-0.92,-1.28,
0.847,2.49,-2.61,0.15,-4.25,-0.96,-1.32,
0.848,2.49,-2.61,0.15,-4.24,-0.97,-1.34,
0.85,2.49,-2.61,0.15,-4.23,-1.00,-1.38,
0.852,3.22,-2.05,1.38,-4.23,-1.00,-1.38,
0.853,3.22,-2.05,1.38,-4.21,-1.03,-1.42,
0.854,3.22,-2.05,1.38,-4.19,-1.06,-1.46,
0.857,3.22,-2.05,1.38,-4.15,-1.09,-1.52,
0.858,3.22,-2.05,1.38,-4.13,-1.10,-1.54,
0.86,3.22,-2.05,1.38,-4.10,-1.12,-1.58,
0.862,3.61,-1.65,2.33,-4.10,-1.12,-1.58,
0.862,3.61,-1.65,2.33,-4.07,-1.14,-1.62,
0.864,3.61,-1.65,2.33,-4.05,-1.16,-1.66,
0.867,3.61,-1.65,2.33,-4.00,-1.18,-1.71,
0.868,3.61,-1.65,2.33,-3.99,-1.19,-1.73,
0.871,3.61,-1.65,2.33,-3.96,-1.20,-1.75,
0.873,3.41,-1.07,2.45,-3.96,-1.20,-1.75,
0.873,3.41,-1.07,2.45,-3.93,-1.21,-1.77,
0.874,3.41,-1.07,2.45,-3.91,-1.23,-1.78,
0.878,3.41,-1.07,2.45,-3.88,-1.24,-1.78,
0.878,3.41,-1.07,2.45,-3.87,-1.25,-1.77,
0.88,3.41,-1.07,2.45,-3.86,-1.26,-1.76,
0.883,2.56,-0.59,2.07,-3.86,-1.26,-1.76,
0.883,2.56,-0.59,2.07,-3.85,-1.27,-1.75,
0.886,2.56,-0.59,2.07,-3.85,-1.28,-1.72,
0.887,2.56,-0.59,2.07,-3.85,-1.30,-1.68,
0.888,2.56,-0.59,2.07,-3.86,-1.31,-1.66,
0.89,2.56,-0.59,2.07,-3.87,-1.34,-1.62,
0.895,1.61,-0.33,1.54,-3.87,-1.34,-1.62,
0.895,1.61,-0.33,1.54,-3.88,-1.37,-1.58,
0.895,1.61,-0.33,1.54,-3.90,-1.39,-1.54,
0.897,1.61,-0.33,1.54,-3.94,-1.43,-1.46,
0.898,1.61,-0.33,1.54,-3.95,-1.45,-1.44,
0.9,1.61,-0.33,1.54,-3.99,-1.47,-1.38,
0.902,0.71,-0.45,1.50,-3.99,-1.47,-1.38,
0.902,0.71,-0.45,1.50,-4.02,-1.50,-1.32,
0.904,0.71,-0.45,1.50,-4.06,-1.53,-1.25,
0.912,0.71,-0.45,1.50,-4.12,-1.58,-1.16,
0.912,0.71,-0.45,1.50,-4.14,-1.60,-1.13,
0.912,0.71,-0.45,1.50,-4.19,-1.64,-1.08,
0.913,0.10,-0.75,1.86,-4.19,-1.64,-1.08,
0.913,0.10,-0.75,1.86,-4.23,-1.68,-1.02,
0.915,0.10,-0.75,1.86,-4.28,-1.73,-0.97,
0.917,0.10,-0.75,1.86,-4.35,-1.80,-0.90,
0.918,0.10,-0.75,1.86,-4.38,-1.83,-0.88,
0.92,0.10,-0.75,1.86,-4.43,-1.88,-0.85,
0.923,0.64,-0.78,2.48,-4.43,-1.88,-0.85,
0.923,0.64,-0.78,2.48,-4.48,-1.92,-0.82,
0.925,0.64,-0.78,2.48,-4.52,-1.97,-0.79,
0.927,0.64,-0.78,2.48,-4.58,-2.06,-0.77,
0.928,0.64,-0.78,2.48,-4.59,-2.09,-0.77,
0.93,0.64,-0.78,2.48,-4.62,-2.16,-0.77,
0.932,2.08,-0.31,3.96,-4.62,-2.16,-0.77,
0.932,2.08,-0.31,3.96,-4.63,-2.24,-0.78,
0.934,2.08,-0.31,3.96,-4.64,-2.31,-0.80,
0.937,2.08,-0.31,3.96,-4.62,-2.40,-0.85,
0.938,2.08,-0.31,3.96,-4.61,-2.43,-0.86,
0.94,2.08,-0.31,3.96,-4.58,-2.48,-0.90,
0.95,4.05,0.44,6.03,-4.58,-2.48,-0.90,
0.95,4.05,0.44,6.03,-4.55,-2.51,-0.94,
0.951,4.05,0.44,6.03,-4.51,-2.53,-0.99,
0.951,4.05,0.44,6.03,-4.43,-2.54,-1.05,
0.951,4.05,0.44,6.03,-4.40,-2.53,-1.07,
0.951,4.05,0.44,6.03,-4.34,-2.51,-1.11,
0.953,4.83,1.57,6.81,-4.34,-2.51,-1.11,
0.953,4.83,1.57,6.81,-4.28,-2.47,-1.14,
0.954,4.83,1.57,6.81,-4.21,-2.42,-1.17,
0.957,4.83,1.57,6.81,-4.11,-2.32,-1.20,
0.958,4.83,1.57,6.81,-4.08,-2.28,-1.20,
0.96,4.83,1.57,6.81,-4.01,-2.21,-1.22,
0.962,4.20,2.24,6.37,-4.01,-2.21,-1.22,
0.962,4.20,2.24,6.37,-3.94,-2.14,-1.22,
0.964,4.20,2.24,6.37,-3.88,-2.06,-1.23,
0.967,4.20,2.24,6.37,-3.79,-1.94,-1.22,
0.968,4.20,2.24,6.37,-3.76,-1.91,-1.22,
0.97,4.20,2.24,6.37,-3.70,-1.84,-1.21,
0.976,3.00,2.65,5.84,-3.70,-1.84,-1.21,
0.976,3.00,2.65,5.84,-3.65,-1.77,-1.19,
0.976,3.00,2.65,5.84,-3.60,-1.72,-1.18,
0.977,3.00,2.65,5.84,-3.53,-1.66,-1.16,
0.981,3.00,2.65,5.84,-3.51,-1.64,-1.15,
0.982,3.00,2.65,5.84,-3.47,-1.62,-1.13,
0.982,2.01,2.53,5.59,-3.47,-1.62,-1.13,
0.982,2.01,2.53,5.59,-3.43,-1.59,-1.12,
0.984,2.01,2.53,5.59,-3.39,-1.57,-1.10,
0.99,2.01,2.53,5.59,-3.34,-1.55,-1.08,
0.99,2.01,2.53,5.59,-3.33,-1.54,-1.07,
0.991,2.01,2.53,5.59,-3.30,-1.52,-1.05,
0.993,1.47,2.73,5.83,-3.30,-1.52,-1.05,
0.993,1.47,2.73,5.83,-3.26,-1.50,-1.03,
0.996,1.47,2.73,5.83,-3.24,-1.48,-1.00,
0.997,1.47,2.73,5.83,-3.19,-1.44,-0.96,
0.998,1.47,2.73,5.83,-3.18,-1.43,-0.95,
1.0,1.47,2.73,5.83,-3.15,-1.40,-0.92,
1.002,1.17,3.07,5.96,-3.15,-1.40,-0.92,
1.002,1.17,3.07,5.96,-3.12,-1.37,-0.90,
1.004,1.17,3.07,5.96,-3.09,-1.34,-0.87,
1.007,1.17,3.07,5.96,-3.04,-1.28,-0.84,
1.009,1.17,3.07,5.96,-3.02,-1.27,-0.83,
1.01,1.17,3.07,5.96,-2.98,-1.24,-0.82,
1.014,1.50,3.23,6.70,-2.98,-1.24,-0.82,
1.014,1.50,3.23,6.70,-2.94,-1.23,-0.80,
1.015,1.50,3.23,6.70,-2.90,-1.23,-0.79,
1.017,1.50,3.23,6.70,-2.83,-1.24,-0.79,
1.018,1.50,3.23,6.70,-2.81,-1.25,-0.79,
1.02,1.50,3.23,6.70,-2.77,-1.29,-0.79,
1.022,2.20,2.66,7.44,-2.77,-1.29,-0.79,
1.023,2.20,2.66,7.44,-2.73,-1.34,-0.79,
1.024,2.20,2.66,7.44,-2.69,-1.40,-0.80,
1.027,2.20,2.66,7.44,-2.63,-1.51,-0.82,
1.028,2.20,2.66,7.44,-2.61,-1.55,-0.83,
1.03,2.20,2.66,7.44,-2.58,-1.63,-0.84,
1.032,2.95,1.75,7.68,-2.58,-1.63,-0.84,
1.032,2.95,1.75,7.68,-2.55,-1.70,-0.86,
1.034,2.95,1.75,7.68,-2.53,-1.76,-0.88,
1.037,2.95,1.75,7.68,-2.51,-1.89,-0.90,
1.038,2.95,1.75,7.68,-2.50,-1.93,-0.91,
1.04,2.95,1.75,7.68,-2.50,-2.03,-0.93,
1.042,3.65,0.56,7.00,-2.50,-2.03,-0.93,
1.042,3.65,0.56,7.00,-2.51,-2.14,-0.96,
1.044,3.65,0.56,7.00,-2.52,-2.24,-0.99,
1.047,3.65,0.56,7.00,-2.55,-2.38,-1.03,
1.048,3.65,0.56,7.00,-2.56,-2.43,-1.04,
1.05,3.65,0.56,7.00,-2.59,-2.51,-1.07,
1.052,4.35,-0.04,5.93,-2.59,-2.51,-1.07,
1.053,4.35,-0.04,5.93,-2.62,-2.57,-1.10,
1.054,4.35,-0.04,5.93,-2.66,-2.61,-1.12,
1.057,4.35,-0.04,5.93,-2.73,-2.66,-1.14,
1.058,4.35,-0.04,5.93,-2.75,-2.66,-1.15,
1.06,4.35,-0.04,5.93,-2.79,-2.66,-1.16,
1.062,4.10,0.18,4.46,-2.79,-2.66,-1.16,
1.062,4.10,0.18,4.46,-2.83,-2.64,-1.16,
1.064,4.10,0.18,4.46,-2.87,-2.60,-1.16,
1.067,4.10,0.18,4.46,-2.91,-2.52,-1.16,
1.068,4.10,0.18,4.46,-2.92,-2.49,-1.16,
1.07,4.10,0.18,4.46,-2.93,-2.43,-1.16,
1.073,3.20,1.06,4.26,-2.93,-2.43,-1.16,
1.075,3.20,1.06,4.26,-2.94,-2.36,-1.16,
1.075,3.20,1.06,4.26,-2.93,-2.30,-1.17,
1.077,3.20,1.06,4.26,-2.90,-2.21,-1.17,
1.078,3.20,1.06,4.26,-2.89,-2.19,-1.18,
1.08,3.20,1.06,4.26,-2.86,-2.15,-1.18,
1.082,2.29,1.83,5.20,-2.86,-2.15,-1.18,
1.082,2.29,1.83,5.20,-2.82,-2.11,-1.19,
1.084,2.29,1.83,5.20,-2.77,-2.08,-1.20,
1.087,2.29,1.83,5.20,-2.69,-2.03,-1.22,
1.09,2.29,1.83,5.20,-2.66,-2.01,-1.22,
1.091,2.29,1.83,5.20,-2.60,-1.98,-1.22,
1.096,1.14,2.27,6.06,-2.60,-1.98,-1.22,
1.096,1.14,2.27,6.06,-2.53,-1.95,-1.23,
1.097,1.14,2.27,6.06,-2.47,-1.91,-1.22,
1.097,1.14,2.27,6.06,-2.36,-1.86,-1.21,
1.098,1.14,2.27,6.06,-2.33,-1.84,-1.21,
1.1,1.14,2.27,6.06,-2.25,-1.80,-1.20,
1.103,-0.02,2.48,6.05,-2.25,-1.80,-1.20,
1.103,-0.02,2.48,6.05,-2.18,-1.75,-1.18,
1.104,-0.02,2.48,6.05,-2.10,-1.71,-1.17,
1.109,-0.02,2.48,6.05,-1.99,-1.67,-1.15,
1.125,-0.02,2.48,6.05,-1.95,-1.67,-1.14,
1.126,-0.02,2.48,6.05,-1.87,-1.65,-1.13,
1.126,-0.56,2.61,6.06,-1.87,-1.65,-1.13,
1.126,-0.56,2.61,6.06,-1.79,-1.65,-1.11,
1.126,-0.56,2.61,6.06,-1.72,-1.67,-1.10,
1.126,-0.56,2.61,6.06,-1.61,-1.71,-1.09,
1.126,-0.56,2.61,6.06,-1.57,-1.72,-1.08,
1.126,-0.56,2.61,6.06,-1.51,-1.77,-1.08,
1.127,-0.67,2.26,5.81,-1.51,-1.77,-1.08,
1.127,-0.67,2.26,5.81,-1.45,-1.81,-1.07,
1.127,-0.67,2.26,5.81,-1.41,-1.85,-1.07,
1.127,-0.67,2.26,5.81,-1.35,-1.90,-1.05,
1.129,-0.67,2.26,5.81,-1.33,-1.92,-1.05,
1.13,-0.67,2.26,5.81,-1.31,-1.93,-1.03,
1.132,-0.62,1.93,4.52,-1.31,-1.93,-1.03,
1.132,-0.62,1.93,4.52,-1.29,-1.94,-1.01,
1.134,-0.62,1.93,4.52,-1.28,-1.95,-0.99,
1.137,-0.62,1.93,4.52,-1.27,-1.96,-0.95,
1.138,-0.62,1.93,4.52,-1.27,-1.96,-0.94,
1.14,-0.62,1.93,4.52,-1.26,-1.97,-0.90,
1.145,-0.70,1.71,3.04,-1.26,-1.97,-0.90,
1.145,-0.70,1.71,3.04,-1.26,-1.98,-0.86,
1.148,-0.70,1.71,3.04,-1.25,-2.00,-0.83,
1.149,-0.70,1.71,3.04,-1.25,-2.03,-0.77,
1.149,-0.70,1.71,3.04,-1.24,-2.05,-0.75,
1.153,-0.70,1.71,3.04,-1.24,-2.07,-0.71,
1.154,-0.97,1.75,2.57,-1.24,-2.07,-0.71,
1.154,-0.97,1.75,2.57,-1.24,-2.09,-0.68,
1.154,-0.97,1.75,2.57,-1.23,-2.10,-0.65,
1.164,-0.97,1.75,2.57,-1.23,-2.11,-0.61,
1.165,-0.97,1.75,2.57,-1.22,-2.11,-0.61,
1.165,-0.97,1.75,2.57,-1.21,-2.10,-0.59,
1.165,-0.77,2.07,2.14,-1.21,-2.10,-0.59,
1.165,-0.77,2.07,2.14,-1.19,-2.09,-0.57,
1.166,-0.77,2.07,2.14,-1.17,-2.06,-0.56,
1.187,-0.77,2.07,2.14,-1.13,-2.00,-0.55,
1.187,-0.77,2.07,2.14,-1.11,-1.98,-0.55,
1.188,-0.77,2.07,2.14,-1.05,-1.91,-0.54,
1.188,-0.82,3.05,2.51,-1.05,-1.91,-0.54,
1.188,-0.82,3.05,2.51,-1.03,-1.89,-0.55,
1.188,-0.82,3.05,2.51,-0.99,-1.84,-0.55,
1.188,-0.82,3.05,2.51,-0.92,-1.76,-0.57,
1.189,-0.82,3.05,2.51,-0.89,-1.74,-0.57,
1.189,-0.82,3.05,2.51,-0.84,-1.68,-0.58,
1.189,-1.14,3.55,2.64,-0.84,-1.68,-0.58,
1.189,-1.14,3.55,2.64,-0.78,-1.63,-0.59,
1.189,-1.14,3.55,2.64,-0.73,-1.58,-0.60,
1.195,-1.14,3.55,2.64,-0.64,-1.50,-0.62,
1.196,-1.14,3.55,2.64,-0.61,-1.47,-0.62,
1.196,-1.14,3.55,2.64,-0.55,-1.42,-0.63,
1.196,-1.83,3.69,2.83,-0.55,-1.42,-0.63,
1.196,-1.83,3.69,2.83,-0.49,-1.36,-0.63,
1.196,-1.83,3.69,2.83,-0.43,-1.31,-0.62,
1.198,-1.83,3.69,2.83,-0.34,-1.23,-0.61,
1.198,-1.83,3.69,2.83,-0.31,-1.20,-0.60,
1.2,-1.83,3.69,2.83,-0.26,-1.15,-0.59,
1.207,-2.60,3.68,2.43,-0.26,-1.15,-0.59,
1.207,-2.60,3.68,2.43,-0.20,-1.08,-0.57,
1.207,-2.60,3.68,2.43,-0.16,-1.02,-0.54,
1.208,-2.60,3.68,2.43,-0.10,-0.91,-0.50,
1.208,-2.60,3.68,2.43,-0.09,-0.87,-0.49,
1.21,-2.60,3.68,2.43,-0.06,-0.79,-0.46,
1.212,-3.08,3.76,1.15,-0.06,-0.79,-0.46,
1.213,-3.08,3.76,1.15,-0.04,-0.72,-0.42,
1.214,-3.08,3.76,1.15,-0.03,-0.66,-0.38,
1.218,-3.08,3.76,1.15,-0.01,-0.58,-0.31,
1.218,-3.08,3.76,1.15,0.00,-0.56,-0.29,
1.222,-3.08,3.76,1.15,0.01,-0.52,-0.25,
1.223,-3.60,3.27,0.38,0.01,-0.52,-0.25,
1.223,-3.60,3.27,0.38,0.03,-0.51,-0.21,
1.224,-3.60,3.27,0.38,0.04,-0.50,-0.17,
1.227,-3.60,3.27,0.38,0.05,-0.50,-0.13,
1.23,-3.60,3.27,0.38,0.05,-0.51,-0.12,
1.231,-3.60,3.27,0.38,0.06,-0.55,-0.10,
1.232,-3.40,2.34,0.49,0.06,-0.55,-0.10,
1.232,-3.40,2.34,0.49,0.05,-0.60,-0.09,
1.234,-3.40,2.34,0.49,0.05,-0.64,-0.09,
1.239,-3.40,2.34,0.49,0.04,-0.70,-0.08,
1.24,-3.40,2.34,0.49,0.04,-0.72,-0.08,
1.241,-3.40,2.34,0.49,0.03,-0.75,-0.09,
1.243,-2.72,1.21,0.11,0.03,-0.75,-0.09,
1.243,-2.72,1.21,0.11,0.01,-0.78,-0.09,
1.246,-2.72,1.21,0.11,0.00,-0.78,-0.09,
1.25,-2.72,1.21,0.11,-0.02,-0.77,-0.10,
1.253,-2.72,1.21,0.11,-0.03,-0.76,-0.11,
1.253,-2.72,1.21,0.11,-0.04,-0.73,-0.12,
1.253,-2.03,0.84,-0.68,-0.04,-0.73,-0.12,
1.253,-2.03,0.84,-0.68,-0.06,-0.70,-0.13,
1.254,-2.03,0.84,-0.68,-0.07,-0.65,-0.14,
1.26,-2.03,0.84,-0.68,-0.10,-0.56,-0.16,
1.26,-2.03,0.84,-0.68,-0.10,-0.52,-0.17,
1.261,-2.03,0.84,-0.68,-0.12,-0.45,-0.19,
1.262,-1.61,0.85,-1.26,-0.12,-0.45,-0.19,
1.263,-1.61,0.85,-1.26,-0.14,-0.37,-0.20,
1.264,-1.61,0.85,-1.26,-0.15,-0.29,-0.23,
1.268,-1.61,0.85,-1.26,-0.17,-0.17,-0.26,
1.268,-1.61,0.85,-1.26,-0.18,-0.12,-0.27,
1.27,-1.61,0.85,-1.26,-0.19,-0.04,-0.29,
1.273,-1.43,0.75,-1.47,-0.19,-0.04,-0.29,
1.274,-1.43,0.75,-1.47,-0.20,0.04,-0.32,
1.289,-1.43,0.75,-1.47,-0.20,0.12,-0.34,
1.289,-1.43,0.75,-1.47,-0.21,0.24,-0.38,
1.289,-1.43,0.75,-1.47,-0.21,0.28,-0.39,
1.289,-1.43,0.75,-1.47,-0.20,0.35,-0.41,
1.289,-1.48,0.54,-0.95,-0.20,0.35,-0.41,
1.289,-1.48,0.54,-0.95,-0.19,0.42,-0.43,
1.29,-1.48,0.54,-0.95,-0.18,0.48,-0.45,
1.29,-1.48,0.54,-0.95,-0.17,0.58,-0.47,
1.29,-1.48,0.54,-0.95,-0.16,0.61,-0.47,
1.29,-1.48,0.54,-0.95,-0.15,0.67,-0.48,
1.293,-1.67,0.50,-0.33,-0.15,0.67,-0.48,
1.293,-1.67,0.50,-0.33,-0.13,0.72,-0.49,
1.295,-1.67,0.50,-0.33,-0.12,0.78,-0.49,
1.297,-1.67,0.50,-0.33,-0.09,0.84,-0.49,
1.298,-1.67,0.50,-0.33,-0.08,0.86,-0.48,
1.3,-1.67,0.50,-0.33,-0.06,0.90,-0.48,
1.302,-1.72,0.64,0.11,-0.06,0.90,-0.48,
1.302,-1.72,0.64,0.11,-0.04,0.93,-0.47,
1.304,-1.72,0.64,0.11,-0.02,0.96,-0.46,
1.308,-1.72,0.64,0.11,0.00,0.98,-0.43,
1.309,-1.72,0.64,0.11,0.01,0.99,-0.42,
1.31,-1.72,0.64,0.11,0.03,0.98,-0.40,
1.312,-1.64,0.81,0.65,0.03,0.98,-0.40,
1.312,-1.64,0.81,0.65,0.05,0.97,-0.37,
1.314,-1.64,0.81,0.65,0.07,0.94,-0.34,
1.317,-1.64,0.81,0.65,0.08,0.89,-0.29,
1.318,-1.64,0.81,0.65,0.08,0.86,-0.27,
1.321,-1.64,0.81,0.65,0.09,0.81,-0.23,
1.322,-1.45,0.78,0.73,0.09,0.81,-0.23,
1.323,-1.45,0.78,0.73,0.09,0.74,-0.20,
1.324,-1.45,0.78,0.73,0.10,0.67,-0.15,
1.327,-1.45,0.78,0.73,0.10,0.56,-0.08,
1.328,-1.45,0.78,0.73,0.10,0.48,-0.04,
1.33,-1.45,0.78,0.73,0.09,0.44,-0.01,
1.332,-1.37,0.44,0.80,0.09,0.44,-0.01,
1.332,-1.37,0.44,0.80,0.09,0.36,0.04,
1.334,-1.37,0.44,0.80,0.09,0.29,0.10,
1.338,-1.37,0.44,0.80,0.08,0.18,0.18,
1.338,-1.37,0.44,0.80,0.08,0.14,0.21,
1.34,-1.37,0.44,0.80,0.07,0.08,0.27,
1.342,-1.13,0.03,0.53,0.07,0.08,0.27,
1.342,-1.13,0.03,0.53,0.06,0.01,0.32,
1.344,-1.13,0.03,0.53,0.02,-0.08,0.37,
1.347,-1.13,0.03,0.53,-0.03,-0.19,0.44,
1.348,-1.13,0.03,0.53,-0.05,-0.21,0.47,
1.35,-1.13,0.03,0.53,-0.08,-0.26,0.51,
1.352,-0.40,-0.29,-0.54,-0.08,-0.26,0.51,
1.352,-0.40,-0.29,-0.54,-0.11,-0.30,0.55,
1.354,-0.40,-0.29,-0.54,-0.14,-0.34,0.58,
1.357,-0.40,-0.29,-0.54,-0.19,-0.40,0.63,
1.358,-0.40,-0.29,-0.54,-0.21,-0.41,0.63,
1.36,-0.40,-0.29,-0.54,-0.23,-0.45,0.65,
1.362,0.72,-0.32,-0.67,-0.23,-0.45,0.65,
1.362,0.72,-0.32,-0.67,-0.26,-0.49,0.66,
1.364,0.72,-0.32,-0.67,-0.27,-0.55,0.66,
1.367,0.72,-0.32,-0.67,-0.28,-0.63,0.66,
1.368,0.72,-0.32,-0.67,-0.28,-0.66,0.65,
1.37,0.72,-0.32,-0.67,-0.28,-0.72,0.64,
1.372,1.60,-0.59,-0.02,-0.28,-0.72,0.64,
1.372,1.60,-0.59,-0.02,-0.28,-0.77,0.64,
1.374,1.60,-0.59,-0.02,-0.28,-0.82,0.63,
1.377,1.60,-0.59,-0.02,-0.26,-0.90,0.63,
1.378,1.60,-0.59,-0.02,-0.25,-0.94,0.63,
1.38,1.60,-0.59,-0.02,-0.25,-0.96,0.64,
1.382,1.04,-0.63,0.13,-0.25,-0.96,0.64,
1.382,1.04,-0.63,0.13,-0.23,-0.99,0.64,
1.384,1.04,-0.63,0.13,-0.22,-1.01,0.66,
1.387,1.04,-0.63,0.13,-0.19,-1.03,0.69,
1.388,1.04,-0.63,0.13,-0.18,-1.03,0.70,
1.39,1.04,-0.63,0.13,-0.15,-1.03,0.73,
1.392,-0.41,-0.12,0.14,-0.15,-1.03,0.73,
1.392,-0.41,-0.12,0.14,-0.13,-1.03,0.77,
1.394,-0.41,-0.12,0.14,-0.10,-1.02,0.81,
1.397,-0.41,-0.12,0.14,-0.05,-1.00,0.87,
1.398,-0.41,-0.12,0.14,-0.03,-0.99,0.90,
1.4,-0.41,-0.12,0.14,0.00,-0.97,0.95,
1.402,-1.70,0.39,0.16,0.00,-0.97,0.95,
1.402,-1.70,0.39,0.16,0.03,-0.96,0.99,
1.417,-1.70,0.39,0.16,0.05,-0.96,1.05,
1.418,-1.70,0.39,0.16,0.08,-0.92,1.12,
1.418,-1.70,0.39,0.16,0.09,-0.89,1.15,
1.419,-1.70,0.39,0.16,0.12,-0.85,1.21,
1.419,-2.44,0.79,-0.09,0.12,-0.85,1.21,
1.419,-2.44,0.79,-0.09,0.14,-0.81,1.27,
1.42,-2.44,0.79,-0.09,0.18,-0.77,1.33,
1.42,-2.44,0.79,-0.09,0.22,-0.72,1.41,
1.421,-2.44,0.79,-0.09,0.24,-0.71,1.44,
1.421,-2.44,0.79,-0.09,0.27,-0.69,1.49,
1.45,-2.30,0.48,0.03,0.27,-0.69,1.49,
1.451,-2.30,0.48,0.03,0.30,-0.67,1.55,
1.452,-2.30,0.48,0.03,0.32,-0.65,1.61,
1.453,-2.30,0.48,0.03,0.34,-0.62,1.69,
1.453,-2.30,0.48,0.03,0.35,-0.60,1.75,
1.454,-2.30,0.48,0.03,0.35,-0.59,1.77,
1.454,-2.00,0.21,-1.02,0.35,-0.59,1.77,
1.456,-2.00,0.21,-1.02,0.35,-0.58,1.82,
1.456,-2.00,0.21,-1.02,0.34,-0.57,1.85,
1.457,-2.00,0.21,-1.02,0.32,-0.56,1.89,
1.457,-2.00,0.21,-1.02,0.31,-0.56,1.90,
1.457,-2.00,0.21,-1.02,0.29,-0.56,1.91,
1.483,-0.50,-0.61,-1.67,0.29,-0.56,1.91,
1.483,-0.50,-0.61,-1.67,0.26,-0.57,1.91,
1.484,-0.50,-0.61,-1.67,0.23,-0.57,1.90,
1.484,-0.50,-0.61,-1.67,0.17,-0.57,1.87,
1.485,-0.50,-0.61,-1.67,0.13,-0.57,1.84,
1.485,2.17,-2.51,-2.54,0.13,-0.57,1.84,
1.485,2.17,-2.51,-2.54,0.00,-0.60,1.74,
1.486,2.17,-2.51,-2.54,0.00,-0.60,1.74,
1.486,2.17,-2.51,-2.54,0.00,-0.60,1.74,
1.487,2.17,-2.51,-2.54,-0.09,-0.60,1.67,
1.487,2.17,-2.51,-2.54,-0.16,-0.60,1.62,
1.487,2.17,-2.51,-2.54,-0.20,-0.60,1.59,
1.488,3.14,-3.13,-3.57,-0.20,-0.60,1.59,
1.488,3.14,-3.13,-3.57,-0.29,-0.59,1.55,
1.489,3.14,-3.13,-3.57,-0.38,-0.59,1.50,
1.489,3.14,-3.13,-3.57,-0.52,-0.57,1.43,
1.49,3.14,-3.13,-3.57,-0.57,-0.56,1.41,
1.49,3.14,-3.13,-3.57,-0.67,-0.53,1.36,
1.49,3.46,-3.28,-4.68,-0.67,-0.53,1.36,
1.491,3.46,-3.28,-4.68,-0.77,-0.50,1.32,
1.491,3.46,-3.28,-4.68,-0.87,-0.48,1.27,
1.492,3.46,-3.28,-4.68,-1.03,-0.48,1.18,
1.492,3.46,-3.28,-4.68,-1.14,-0.46,1.13,
1.492,3.46,-3.28,-4.68,-1.19,-0.45,1.10,
1.493,4.05,-3.69,-4.96,-1.19,-0.45,1.10,
1.493,4.05,-3.69,-4.96,-1.29,-0.41,1.04,
1.494,4.05,-3.69,-4.96,-1.39,-0.35,0.98,
1.494,4.05,-3.69,-4.96,-1.53,-0.26,0.89,
1.495,4.05,-3.69,-4.96,-1.57,-0.23,0.86,
1.495,4.05,-3.69,-4.96,-1.66,-0.15,0.80,
1.496,4.13,-4.88,-4.65,-1.66,-0.15,0.80,
1.496,4.13,-4.88,-4.65,-1.74,-0.06,0.74,
1.496,4.13,-4.88,-4.65,-1.81,0.04,0.68,
1.497,4.13,-4.88,-4.65,-1.91,0.23,0.58,
1.509,4.13,-4.88,-4.65,-1.94,0.30,0.55,
1.51,4.13,-4.88,-4.65,-2.00,0.45,0.49,
1.511,3.01,-5.05,-4.22,-2.00,0.45,0.49,
1.511,3.01,-5.05,-4.22,-2.06,0.60,0.41,
1.511,3.01,-5.05,-4.22,-2.10,0.74,0.34,
1.511,3.01,-5.05,-4.22,-2.14,0.95,0.23,
1.515,3.01,-5.05,-4.22,-2.15,1.02,0.20,
1.515,3.01,-5.05,-4.22,-2.17,1.16,0.14,
1.516,1.24,-4.24,-2.87,-2.17,1.16,0.14,
1.516,1.24,-4.24,-2.87,-2.17,1.29,0.09,
1.516,1.24,-4.24,-2.87,-2.17,1.43,0.04,
1.52,1.24,-4.24,-2.87,-2.15,1.64,-0.04,
1.52,1.24,-4.24,-2.87,-2.14,1.71,-0.06,
1.524,1.24,-4.24,-2.87,-2.11,1.90,-0.13,
1.525,-0.61,-3.04,-0.86,-2.11,1.90,-0.13,
1.526,-0.61,-3.04,-0.86,-2.10,1.97,-0.15,
1.526,-0.61,-3.04,-0.86,-2.08,2.09,-0.19,
1.527,-0.61,-3.04,-0.86,-2.04,2.27,-0.24,
1.531,-0.61,-3.04,-0.86,-2.00,2.38,-0.26,
1.531,-0.61,-3.04,-0.86,-1.98,2.43,-0.27,
1.534,-1.58,-2.04,0.56,-1.98,2.43,-0.27,
1.535,-1.58,-2.04,0.56,-1.94,2.51,-0.28,
1.535,-1.58,-2.04,0.56,-1.89,2.58,-0.28,
1.538,-1.58,-2.04,0.56,-1.79,2.66,-0.26,
1.539,-1.58,-2.04,0.56,-1.76,2.68,-0.24,
1.54,-1.58,-2.04,0.56,-1.69,2.70,-0.20,
1.543,-2.65,-1.04,2.33,-1.69,2.70,-0.20,
1.543,-2.65,-1.04,2.33,-1.61,2.71,-0.16,
1.544,-2.65,-1.04,2.33,-1.53,2.70,-0.10,
1.547,-2.65,-1.04,2.33,-1.41,2.65,0.01,
1.548,-2.65,-1.04,2.33,-1.37,2.62,0.05,
1.55,-2.65,-1.04,2.33,-1.28,2.56,0.13,
1.552,-3.48,-0.06,3.96,-1.28,2.56,0.13,
1.552,-3.48,-0.06,3.96,-1.20,2.48,0.22,
1.559,-3.48,-0.06,3.96,-1.11,2.38,0.31,
1.56,-3.48,-0.06,3.96,-0.99,2.20,0.45,
1.56,-3.48,-0.06,3.96,-0.95,2.13,0.50,
1.56,-3.48,-0.06,3.96,-0.88,1.99,0.58,
1.562,-2.99,0.60,4.67,-0.88,1.99,0.58,
1.562,-2.99,0.60,4.67,-0.81,1.85,0.66,
1.564,-2.99,0.60,4.67,-0.76,1.72,0.74,
1.568,-2.99,0.60,4.67,-0.69,1.56,0.84,
1.568,-2.99,0.60,4.67,-0.66,1.47,0.90,
1.616,-2.99,0.60,4.67,-0.64,1.43,0.94,
1.617,-1.22,0.99,3.29,-0.64,1.43,0.94,
1.617,-1.22,0.99,3.29,-0.61,1.37,1.00,
1.617,-1.22,0.99,3.29,-0.59,1.31,1.07,
1.617,-1.22,0.99,3.29,-0.57,1.23,1.17,
1.617,-1.22,0.99,3.29,-0.55,1.19,1.24,
1.618,-1.22,0.99,3.29,-0.54,1.17,1.28,
1.618,-0.49,1.29,1.32,-0.54,1.17,1.28,
1.618,-0.49,1.29,1.32,-0.52,1.12,1.35,
1.618,-0.49,1.29,1.32,-0.49,1.07,1.42,
1.618,-0.49,1.29,1.32,-0.45,0.99,1.53,
1.619,-0.49,1.29,1.32,-0.44,0.97,1.57,
1.619,-0.49,1.29,1.32,-0.41,0.91,1.64,
1.619,-0.27,1.73,0.97,-0.41,0.91,1.64,
1.619,-0.27,1.73,0.97,-0.37,0.85,1.71,
1.619,-0.27,1.73,0.97,-0.34,0.79,1.77,
1.619,-0.27,1.73,0.97,-0.30,0.68,1.86,
1.62,-0.27,1.73,0.97,-0.28,0.64,1.89,
1.62,-0.27,1.73,0.97,-0.26,0.57,1.95,
1.62,0.00,1.98,0.62,-0.26,0.57,1.95,
1.62,0.00,1.98,0.62,-0.23,0.51,2.01,
1.62,0.00,1.98,0.62,-0.22,0.45,2.05,
1.621,0.00,1.98,0.62,-0.19,0.37,2.12,
1.644,0.00,1.98,0.62,-0.19,0.34,2.14,
1.644,0.00,1.98,0.62,-0.18,0.29,2.17,
1.644,0.60,2.29,0.13,-0.18,0.29,2.17,
1.644,0.60,2.29,0.13,-0.17,0.25,2.20,
1.645,0.60,2.29,0.13,-0.17,0.21,2.22,
1.645,0.60,2.29,0.13,-0.18,0.17,2.25,
1.645,0.60,2.29,0.13,-0.18,0.16,2.25,
1.645,0.60,2.29,0.13,-0.18,0.15,2.26,
1.646,0.85,2.65,-0.33,-0.18,0.15,2.26,
1.646,0.85,2.65,-0.33,-0.19,0.13,2.27,
1.646,0.85,2.65,-0.33,-0.20,0.09,2.26,
1.647,0.85,2.65,-0.33,-0.22,0.03,2.25,
1.647,0.85,2.65,-0.33,-0.23,-0.01,2.24,
1.647,0.85,2.65,-0.33,-0.24,-0.03,2.23,
1.647,0.85,2.85,-0.45,-0.24,-0.03,2.23,
1.648,0.85,2.85,-0.45,-0.26,-0.08,2.21,
1.648,0.85,2.85,-0.45,-0.28,-0.14,2.19,
1.648,0.85,2.85,-0.45,-0.31,-0.22,2.15,
1.648,0.85,2.85,-0.45,-0.32,-0.25,2.14,
1.649,0.85,2.85,-0.45,-0.34,-0.30,2.11,
1.649,0.43,2.67,-0.81,-0.34,-0.30,2.11,
1.649,0.43,2.67,-0.81,-0.36,-0.34,2.09,
1.65,0.43,2.67,-0.81,-0.38,-0.37,2.06,
1.65,0.43,2.67,-0.81,-0.41,-0.42,2.03,
1.65,0.43,2.67,-0.81,-0.42,-0.45,2.01,
1.65,0.43,2.67,-0.81,-0.44,-0.50,1.98,
1.659,0.05,2.41,-1.05,-0.44,-0.50,1.98,
1.66,0.05,2.41,-1.05,-0.46,-0.57,1.94,
1.66,0.05,2.41,-1.05,-0.47,-0.62,1.89,
1.661,0.05,2.41,-1.05,-0.49,-0.70,1.81,
1.661,0.05,2.41,-1.05,-0.51,-0.74,1.75,
1.661,0.05,2.41,-1.05,-0.52,-0.76,1.72,
1.662,0.50,1.49,-0.66,-0.52,-0.76,1.72,
1.662,0.50,1.49,-0.66,-0.53,-0.79,1.66,
1.666,0.50,1.49,-0.66,-0.55,-0.82,1.59,
1.67,0.50,1.49,-0.66,-0.58,-0.84,1.50,
1.67,0.50,1.49,-0.66,-0.59,-0.83,1.43,
1.673,0.50,1.49,-0.66,-0.61,-0.81,1.40,
1.673,1.29,0.89,-1.03,-0.61,-0.81,1.40,
1.673,1.29,0.89,-1.03,-0.63,-0.76,1.34,
1.674,1.29,0.89,-1.03,-0.66,-0.72,1.28,
1.677,1.29,0.89,-1.03,-0.73,-0.63,1.16,
1.678,1.29,0.89,-1.03,-0.75,-0.61,1.14,
1.68,1.29,0.89,-1.03,-0.77,-0.58,1.11,
1.682,1.62,0.77,-1.87,-0.77,-0.58,1.11,
1.682,1.62,0.77,-1.87,-0.80,-0.54,1.06,
1.684,1.62,0.77,-1.87,-0.84,-0.49,1.03,
1.692,1.62,0.77,-1.87,-0.90,-0.38,1.00,
1.693,1.62,0.77,-1.87,-0.94,-0.29,0.98,
1.693,1.62,0.77,-1.87,-0.96,-0.23,0.98,
1.693,1.47,0.94,-2.32,-0.96,-0.23,0.98,
1.694,1.47,0.94,-2.32,-1.01,-0.11,0.98,
1.694,1.47,0.94,-2.32,-1.05,0.01,0.99,
1.697,1.47,0.94,-2.32,-1.11,0.18,1.01,
1.698,1.47,0.94,-2.32,-1.15,0.27,1.04,
1.7,1.47,0.94,-2.32,-1.17,0.31,1.05,
1.741,0.72,1.03,-2.47,-1.17,0.31,1.05,
1.742,0.72,1.03,-2.47,-1.20,0.38,1.09,
1.742,0.72,1.03,-2.47,-1.23,0.41,1.13,
1.742,0.72,1.03,-2.47,-1.28,0.44,1.20,
1.742,0.72,1.03,-2.47,-1.31,0.44,1.23,
1.743,0.72,1.03,-2.47,-1.32,0.43,1.25,
1.743,-0.50,1.66,-1.37,-1.32,0.43,1.25,
1.743,-0.50,1.66,-1.37,-1.35,0.42,1.29,
1.743,-0.50,1.66,-1.37,-1.37,0.39,1.31,
1.743,-0.50,1.66,-1.37,-1.41,0.32,1.35,
1.743,-0.50,1.66,-1.37,-1.43,0.27,1.36,
1.744,-0.50,1.66,-1.37,-1.44,0.24,1.37,
1.744,-0.42,2.11,0.14,-1.44,0.24,1.37,
1.744,-0.42,2.11,0.14,-1.46,0.20,1.39,
1.744,-0.42,2.11,0.14,-1.48,0.18,1.40,
1.744,-0.42,2.11,0.14,-1.49,0.21,1.43,
1.744,-0.42,2.11,0.14,-1.50,0.24,1.45,
1.744,-0.42,2.11,0.14,-1.50,0.26,1.46,
1.745,-0.26,2.80,0.94,-1.50,0.26,1.46,
1.745,-0.26,2.80,0.94,-1.50,0.33,1.46,
1.745,-0.26,2.80,0.94,-1.50,0.41,1.47,
1.745,-0.26,2.80,0.94,-1.45,0.59,1.46,
1.745,-0.26,2.80,0.94,-1.39,0.74,1.46,
1.745,-0.26,2.80,0.94,-1.34,0.82,1.46,
1.745,-0.10,1.99,2.20,-1.34,0.82,1.46,
1.746,-0.10,1.99,2.20,-1.23,0.99,1.46,
1.746,-0.10,1.99,2.20,-1.11,1.15,1.46,
1.747,-0.10,1.99,2.20,-0.89,1.35,1.44,
1.749,-0.10,1.99,2.20,-0.73,1.46,1.43,
1.75,-0.10,1.99,2.20,-0.66,1.51,1.42,
1.756,-0.32,0.04,4.73,-0.66,1.51,1.42,
1.757,-0.32,0.04,4.73,-0.50,1.58,1.39,
1.757,-0.32,0.04,4.73,-0.36,1.62,1.35,
1.757,-0.32,0.04,4.73,-0.16,1.67,1.27,
1.758,-0.32,0.04,4.73,-0.05,1.70,1.20,
1.76,-0.32,0.04,4.73,0.00,1.72,1.17,
1.762,-0.29,-2.11,4.10,0.00,1.72,1.17,
1.762,-0.29,-2.11,4.10,0.09,1.76,1.10,
1.764,-0.29,-2.11,4.10,0.15,1.82,1.04,
1.772,-0.29,-2.11,4.10,0.23,1.94,0.95,
1.772,-0.29,-2.11,4.10,0.26,2.04,0.88,
1.772,-0.29,-2.11,4.10,0.27,2.09,0.84,
1.772,-0.37,-3.31,1.77,0.27,2.09,0.84,
1.772,-0.37,-3.31,1.77,0.28,2.18,0.77,
1.79,-0.37,-3.31,1.77,0.27,2.29,0.68,
1.79,-0.37,-3.31,1.77,0.23,2.50,0.50,
1.79,-0.37,-3.31,1.77,0.21,2.56,0.46,
1.79,-0.37,-3.31,1.77,0.19,2.61,0.41,
1.79,-0.27,-3.27,-0.42,0.19,2.61,0.41,
1.791,-0.27,-3.27,-0.42,0.15,2.74,0.32,
1.791,-0.27,-3.27,-0.42,0.11,2.86,0.25,
1.791,-0.27,-3.27,-0.42,0.03,3.05,0.14,
1.791,-0.27,-3.27,-0.42,-0.02,3.16,0.08,
1.792,-0.27,-3.27,-0.42,-0.04,3.21,0.05,
1.792,-0.67,-2.86,-1.44,-0.04,3.21,0.05,
1.792,-0.67,-2.86,-1.44,-0.10,3.30,-0.01,
1.796,-0.67,-2.86,-1.44,-0.15,3.38,-0.05,
1.797,-0.67,-2.86,-1.44,-0.24,3.48,-0.13,
1.8,-0.67,-2.86,-1.44,-0.30,3.51,-0.19,
1.8,-0.67,-2.86,-1.44,-0.34,3.52,-0.22,
1.812,-0.76,-1.95,-1.71,-0.34,3.52,-0.22,
1.813,-0.76,-1.95,-1.71,-0.40,3.54,-0.28,
1.813,-0.76,-1.95,-1.71,-0.46,3.56,-0.35,
1.813,-0.76,-1.95,-1.71,-0.56,3.57,-0.45,
1.813,-0.76,-1.95,-1.71,-0.62,3.57,-0.51,
1.813,-0.76,-1.95,-1.71,-0.65,3.57,-0.54,
1.814,-0.59,-1.13,-1.43,-0.65,3.57,-0.54,
1.815,-0.59,-1.13,-1.43,-0.71,3.56,-0.61,
1.815,-0.59,-1.13,-1.43,-0.76,3.53,-0.67,
1.817,-0.59,-1.13,-1.43,-0.83,3.48,-0.75,
1.854,-0.59,-1.13,-1.43,-0.87,3.43,-0.80,
1.854,-0.59,-1.13,-1.43,-0.89,3.40,-0.82,
1.854,-0.68,-0.63,-0.66,-0.89,3.40,-0.82,
1.855,-0.68,-0.63,-0.66,-0.92,3.34,-0.86,
1.855,-0.68,-0.63,-0.66,-0.94,3.27,-0.90,
1.855,-0.68,-0.63,-0.66,-0.97,3.16,-0.95,
1.855,-0.68,-0.63,-0.66,-0.98,3.09,-0.98,
1.855,-0.68,-0.63,-0.66,-0.99,3.05,-0.99,
1.855,-0.85,-0.32,0.04,-0.99,3.05,-0.99,
1.855,-0.85,-0.32,0.04,-1.01,2.96,-1.01,
1.855,-0.85,-0.32,0.04,-1.02,2.87,-1.03,
1.856,-0.85,-0.32,0.04,-1.03,2.73,-1.05,
1.856,-0.85,-0.32,0.04,-1.03,2.65,-1.06,
1.856,-0.85,-0.32,0.04,-1.03,2.62,-1.06,
1.856,-0.85,-0.54,0.63,-1.03,2.62,-1.06,
1.856,-0.85,-0.54,0.63,-1.04,2.55,-1.06,
1.856,-0.85,-0.54,0.63,-1.03,2.48,-1.06,
1.856,-0.85,-0.54,0.63,-1.03,2.39,-1.06,
1.856,-0.85,-0.54,0.63,-1.03,2.33,-1.05,
1.856,-0.85,-0.54,0.63,-1.03,2.30,-1.04,
1.857,-0.88,-0.62,0.74,-1.03,2.30,-1.04,
1.857,-0.88,-0.62,0.74,-1.03,2.25,-1.03,
1.857,-0.88,-0.62,0.74,-1.03,2.19,-1.01,
1.857,-0.88,-0.62,0.74,-1.03,2.11,-0.98,
1.859,-0.88,-0.62,0.74,-1.03,2.06,-0.95,
1.86,-0.88,-0.62,0.74,-1.03,2.04,-0.93,
1.862,-1.10,-0.10,0.14,-1.03,2.04,-0.93,
1.862,-1.10,-0.10,0.14,-1.02,2.01,-0.88,
1.865,-1.10,-0.10,0.14,-1.02,1.98,-0.82,
1.867,-1.10,-0.10,0.14,-1.02,1.94,-0.72,
1.87,-1.10,-0.10,0.14,-1.01,1.91,-0.65,
1.872,-1.10,-0.10,0.14,-1.01,1.88,-0.57,
1.873,-1.67,0.66,-0.58,-1.01,1.88,-0.57,
1.873,-1.67,0.66,-0.58,-1.00,1.86,-0.53,
1.874,-1.67,0.66,-0.58,-1.00,1.83,-0.44,
1.877,-1.67,0.66,-0.58,-0.98,1.79,-0.30,
1.878,-1.67,0.66,-0.58,-0.97,1.77,-0.21,
1.88,-1.67,0.66,-0.58,-0.97,1.76,-0.17,
1.882,-1.62,1.17,-0.62,-0.97,1.76,-0.17,
1.882,-1.62,1.17,-0.62,-0.95,1.73,-0.07,
1.884,-1.62,1.17,-0.62,-0.93,1.71,0.02,
1.887,-1.62,1.17,-0.62,-0.92,1.66,0.16,
1.888,-1.62,1.17,-0.62,-0.90,1.63,0.25,
1.89,-1.62,1.17,-0.62,-0.89,1.61,0.29,
1.892,-1.45,1.71,-0.48,-0.89,1.61,0.29,
1.892,-1.45,1.71,-0.48,-0.86,1.56,0.42,
1.894,-1.45,1.71,-0.48,-0.85,1.55,0.46,
1.897,-1.45,1.71,-0.48,-0.81,1.49,0.58,
1.898,-1.45,1.71,-0.48,-0.78,1.46,0.66,
1.904,-1.45,1.71,-0.48,-0.75,1.42,0.73,
1.904,-1.16,2.17,-0.11,-0.75,1.42,0.73,
1.904,-1.16,2.17,-0.11,-0.72,1.40,0.79,
1.904,-1.16,2.17,-0.11,-0.69,1.38,0.85,
1.907,-1.16,2.17,-0.11,-0.66,1.36,0.90,
1.908,-1.16,2.17,-0.11,-0.62,1.34,0.96,
1.91,-1.16,2.17,-0.11,-0.58,1.32,1.01,
1.912,-0.79,2.63,0.46,-0.58,1.32,1.01,
1.912,-0.79,2.63,0.46,-0.54,1.32,1.05,
1.914,-0.79,2.63,0.46,-0.50,1.31,1.10,
1.918,-0.79,2.63,0.46,-0.45,1.31,1.14,
1.923,-0.79,2.63,0.46,-0.40,1.32,1.18,
1.924,-0.79,2.63,0.46,-0.36,1.33,1.23,
1.924,-0.84,2.85,0.85,-0.36,1.33,1.23,
1.924,-0.84,2.85,0.85,-0.31,1.35,1.28,
1.925,-0.84,2.85,0.85,-0.27,1.38,1.32,
1.927,-0.84,2.85,0.85,-0.20,1.44,1.40,
1.928,-0.84,2.85,0.85,-0.19,1.47,1.43,
1.93,-0.84,2.85,0.85,-0.14,1.53,1.48,
1.932,-1.21,2.85,0.96,-0.14,1.53,1.48,
1.932,-1.21,2.85,0.96,-0.11,1.60,1.54,
1.94,-1.21,2.85,0.96,-0.08,1.67,1.60,
1.941,-1.21,2.85,0.96,-0.04,1.75,1.66,
1.941,-1.21,2.85,0.96,-0.01,1.83,1.73,
1.941,-1.21,2.85,0.96,0.02,1.92,1.79,
1.966,-1.76,2.79,0.92,0.02,1.92,1.79,
1.967,-1.76,2.79,0.92,0.05,1.99,1.86,
1.967,-1.76,2.79,0.92,0.09,2.07,1.93,
1.968,-1.76,2.79,0.92,0.13,2.18,2.04,
1.968,-1.76,2.79,0.92,0.15,2.21,2.08,
1.968,-1.76,2.79,0.92,0.18,2.28,2.16,
1.969,-2.54,2.95,0.74,0.18,2.28,2.16,
1.969,-2.54,2.95,0.74,0.22,2.36,2.25,
1.969,-2.54,2.95,0.74,0.26,2.45,2.35,
1.969,-2.54,2.95,0.74,0.30,2.53,2.45,
1.97,-2.54,2.95,0.74,0.35,2.62,2.55,
1.97,-2.54,2.95,0.74,0.39,2.70,2.66,
1.97,-3.27,3.00,0.22,0.39,2.70,2.66,
1.97,-3.27,3.00,0.22,0.43,2.77,2.76,
1.971,-3.27,3.00,0.22,0.45,2.83,2.86,
1.971,-3.27,3.00,0.22,0.47,2.89,2.96,
1.971,-3.27,3.00,0.22,0.47,2.95,3.06,
1.976,-3.27,3.00,0.22,0.45,3.01,3.15,
1.977,-3.85,2.95,-0.66,0.45,3.01,3.15,
1.977,-3.85,2.95,-0.66,0.43,3.07,3.24,
1.977,-3.85,2.95,-0.66,0.39,3.14,3.33,
1.977,-3.85,2.95,-0.66,0.34,3.20,3.42,
1.978,-3.85,2.95,-0.66,0.28,3.27,3.50,
1.98,-3.85,2.95,-0.66,0.20,3.33,3.59,
1.982,-4.06,3.04,-2.17,0.20,3.33,3.59,
1.982,-4.06,3.04,-2.17,0.11,3.38,3.68,
1.985,-4.06,3.04,-2.17,0.02,3.42,3.77,
1.987,-4.06,3.04,-2.17,-0.12,3.47,3.90,
1.988,-4.06,3.04,-2.17,-0.17,3.49,3.94,
1.99,-4.06,3.04,-2.17,-0.27,3.53,4.02,
1.992,-4.32,3.21,-3.34,-0.27,3.53,4.02,
1.992,-4.32,3.21,-3.34,-0.36,3.56,4.11,
1.994,-4.32,3.21,-3.34,-0.46,3.57,4.19,
1.998,-4.32,3.21,-3.34,-0.55,3.58,4.27,
1.998,-4.32,3.21,-3.34,-0.64,3.57,4.35,
2.0,-4.32,3.21,-3.34,-0.71,3.56,4.43,
2.002,-3.95,3.68,-3.64,-0.71,3.56,4.43,
2.002,-3.95,3.68,-3.64,-0.79,3.54,4.51,
2.004,-3.95,3.68,-3.64,-0.85,3.51,4.58,
2.007,-3.95,3.68,-3.64,-0.94,3.44,4.68,
2.008,-3.95,3.68,-3.64,-0.97,3.42,4.71,
2.01,-3.95,3.68,-3.64,-1.01,3.38,4.78,
2.012,-3.54,3.90,-3.57,-1.01,3.38,4.78,
2.012,-3.54,3.90,-3.57,-1.06,3.35,4.84,
2.015,-3.54,3.90,-3.57,-1.11,3.35,4.90,
2.017,-3.54,3.90,-3.57,-1.16,3.36,4.95,
2.018,-3.54,3.90,-3.57,-1.20,3.38,5.01,
2.02,-3.54,3.90,-3.57,-1.25,3.40,5.06,
2.022,-2.94,4.00,-3.71,-1.25,3.40,5.06,
2.022,-2.94,4.00,-3.71,-1.29,3.41,5.11,
2.024,-2.94,4.00,-3.71,-1.31,3.42,5.16,
2.027,-2.94,4.00,-3.71,-1.34,3.44,5.23,
2.028,-2.94,4.00,-3.71,-1.35,3.45,5.25,
2.03,-2.94,4.00,-3.71,-1.37,3.47,5.29,
2.032,-2.40,4.02,-3.51,-1.37,3.47,5.29,
2.033,-2.40,4.02,-3.51,-1.39,3.52,5.33,
2.035,-2.40,4.02,-3.51,-1.43,3.59,5.36,
2.038,-2.40,4.02,-3.51,-1.48,3.69,5.39,
2.039,-2.40,4.02,-3.51,-1.55,3.84,5.41,
2.041,-2.40,4.02,-3.51,-1.62,4.00,5.43,
2.042,-1.55,4.50,-3.97,-1.62,4.00,5.43,
2.043,-1.55,4.50,-3.97,-1.71,4.16,5.45,
2.044,-1.55,4.50,-3.97,-1.79,4.32,5.46,
2.047,-1.55,4.50,-3.97,-1.93,4.58,5.46,
2.049,-1.55,4.50,-3.97,-1.97,4.66,5.46,
2.058,-1.55,4.50,-3.97,-2.06,4.83,5.46,
2.059,-0.62,4.77,-4.13,-2.06,4.83,5.46,
2.059,-0.62,4.77,-4.13,-2.14,4.99,5.45,
2.059,-0.62,4.77,-4.13,-2.22,5.14,5.45,
2.059,-0.62,4.77,-4.13,-2.30,5.27,5.44,
2.06,-0.62,4.77,-4.13,-2.37,5.39,5.43,
2.06,-0.62,4.77,-4.13,-2.44,5.50,5.42,
2.097,0.27,5.02,-3.47,-2.44,5.50,5.42,
2.098,0.27,5.02,-3.47,-2.52,5.62,5.41,
2.098,0.27,5.02,-3.47,-2.62,5.75,5.41,
2.099,0.27,5.02,-3.47,-2.77,5.97,5.40,
2.099,0.27,5.02,-3.47,-2.82,6.04,5.39,
2.099,0.27,5.02,-3.47,-2.89,6.18,5.37,
2.099,0.66,2.99,-3.58,-2.89,6.18,5.37,
2.1,0.66,2.99,-3.58,-2.95,6.24,5.31,
2.1,0.66,2.99,-3.58,-3.04,6.28,5.22,
2.1,0.66,2.99,-3.58,-3.14,6.23,5.06,
2.1,0.66,2.99,-3.58,-3.15,6.18,5.02,
2.1,0.66,2.99,-3.58,-3.17,6.09,4.96,
2.101,0.44,-7.56,-1.54,-3.17,6.09,4.96,
2.101,0.44,-7.56,-1.54,-3.17,6.04,4.93,
2.101,0.44,-7.56,-1.54,-3.13,6.01,4.89,
2.101,0.44,-7.56,-1.54,-2.94,5.89,4.77,
2.102,0.44,-7.56,-1.54,-2.84,5.81,4.72,
2.102,0.44,-7.56,-1.54,-2.58,5.60,4.59,
2.102,-0.08,-14.06,6.00,-2.58,5.60,4.59,
2.102,-0.08,-14.06,6.00,-2.23,5.31,4.42,
2.102,-0.08,-14.06,6.00,-1.83,4.97,4.22,
2.103,-0.08,-14.06,6.00,-1.43,4.57,3.98,
2.103,-0.08,-14.06,6.00,-1.04,4.11,3.74,
2.103,-0.08,-14.06,6.00,-0.68,3.63,3.50,
2.103,2.27,-21.00,12.01,-0.68,3.63,3.50,
2.103,2.27,-21.00,12.01,-0.34,3.17,3.25,
2.108,2.27,-21.00,12.01,-0.02,2.72,2.98,
2.109,2.27,-21.00,12.01,0.27,2.29,2.70,
2.13,2.27,-21.00,12.01,0.55,1.87,2.43,
2.13,2.27,-21.00,12.01,0.80,1.46,2.16,
2.131,1.65,-26.79,7.70,0.80,1.46,2.16,
2.131,1.65,-26.79,7.70,1.01,1.06,1.89,
2.131,1.65,-26.79,7.70,1.18,0.68,1.60,
2.132,1.65,-26.79,7.70,1.39,0.18,1.15,
2.132,1.65,-26.79,7.70,1.44,0.04,0.99,
2.132,1.65,-26.79,7.70,1.52,-0.23,0.68,
2.132,0.99,-26.80,1.12,1.52,-0.23,0.68,
2.132,0.99,-26.80,1.12,1.58,-0.47,0.37,
2.133,0.99,-26.80,1.12,1.61,-0.68,0.08,
2.133,0.99,-26.80,1.12,1.64,-0.96,-0.30,
2.133,0.99,-26.80,1.12,1.64,-1.04,-0.42,
2.133,0.99,-26.80,1.12,1.65,-1.18,-0.63,
2.133,0.97,-19.24,-1.99,1.65,-1.18,-0.63,
2.134,0.97,-19.24,-1.99,1.65,-1.29,-0.82,
2.134,0.97,-19.24,-1.99,1.64,-1.35,-0.99,
2.14,0.97,-19.24,-1.99,1.61,-1.27,-1.24,
2.14,0.97,-19.24,-1.99,1.58,-1.18,-1.31,
2.14,0.97,-19.24,-1.99,1.51,-0.93,-1.46,
2.142,1.54,-10.49,-0.82,1.51,-0.93,-1.46,
2.142,1.54,-10.49,-0.82,1.43,-0.61,-1.59,
2.144,1.54,-10.49,-0.82,1.33,-0.23,-1.71,
2.147,1.54,-10.49,-0.82,1.15,0.41,-1.86,
2.148,1.54,-10.49,-0.82,1.10,0.62,-1.91,
2.152,1.54,-10.49,-0.82,0.98,1.06,-2.00,
2.152,2.45,-3.51,-0.20,0.98,1.06,-2.00,
2.153,2.45,-3.51,-0.20,0.87,1.48,-2.08,
2.154,2.45,-3.51,-0.20,0.76,1.90,-2.15,
2.157,2.45,-3.51,-0.20,0.61,2.47,-2.23,
2.158,2.45,-3.51,-0.20,0.56,2.65,-2.26,
2.16,2.45,-3.51,-0.20,0.48,2.98,-2.30,
2.162,2.45,1.04,0.09,0.48,2.98,-2.30,
2.162,2.45,1.04,0.09,0.40,3.28,-2.33,
2.164,2.45,1.04,0.09,0.33,3.55,-2.36,
2.167,2.45,1.04,0.09,0.25,3.90,-2.40,
2.169,2.45,1.04,0.09,0.23,4.00,-2.40,
2.17,2.45,1.04,0.09,0.19,4.19,-2.42,
2.172,2.11,3.81,0.91,0.19,4.19,-2.42,
2.173,2.11,3.81,0.91,0.16,4.35,-2.42,
2.174,2.11,3.81,0.91,0.14,4.48,-2.42,
2.177,2.11,3.81,0.91,0.13,4.64,-2.41,
2.178,2.11,3.81,0.91,0.13,4.67,-2.40,
2.18,2.11,3.81,0.91,0.13,4.73,-2.38,
2.182,1.42,5.69,1.92,0.13,4.73,-2.38,
2.182,1.42,5.69,1.92,0.13,4.76,-2.36,
2.19,1.42,5.69,1.92,0.14,4.77,-2.32,
2.191,1.42,5.69,1.92,0.16,4.72,-2.25,
2.191,1.42,5.69,1.92,0.17,4.69,-2.23,
2.191,1.42,5.69,1.92,0.18,4.62,-2.17,
2.192,0.26,6.92,2.94,0.18,4.62,-2.17,
2.193,0.26,6.92,2.94,0.19,4.51,-2.10,
2.197,0.26,6.92,2.94,0.21,4.39,-2.03,
2.234,0.26,6.92,2.94,0.22,4.16,-1.90,
2.235,0.26,6.92,2.94,0.23,4.08,-1.86,
2.235,0.26,6.92,2.94,0.23,3.89,-1.77,
2.235,-0.80,7.20,2.78,0.23,3.89,-1.77,
2.235,-0.80,7.20,2.78,0.22,3.70,-1.67,
2.235,-0.80,7.20,2.78,0.21,3.49,-1.56,
2.236,-0.80,7.20,2.78,0.19,3.17,-1.40,
2.236,-0.80,7.20,2.78,0.18,3.06,-1.34,
2.236,-0.80,7.20,2.78,0.16,2.83,-1.23,
2.236,-1.94,6.58,2.00,0.16,2.83,-1.23,
2.236,-1.94,6.58,2.00,0.14,2.61,-1.11,
2.237,-1.94,6.58,2.00,0.11,2.40,-1.00,
2.237,-1.94,6.58,2.00,0.08,2.10,-0.85,
2.237,-1.94,6.58,2.00,0.08,2.00,-0.80,
2.237,-1.94,6.58,2.00,0.06,1.82,-0.70,
2.237,-2.43,4.66,1.16,0.06,1.82,-0.70,
2.237,-2.43,4.66,1.16,0.04,1.64,-0.60,
2.238,-2.43,4.66,1.16,0.01,1.47,-0.51,
2.238,-2.43,4.66,1.16,-0.02,1.20,-0.39,
2.238,-2.43,4.66,1.16,-0.04,1.11,-0.35,
2.239,-2.43,4.66,1.16,-0.07,0.94,-0.28,
2.239,-2.55,2.51,0.10,-0.07,0.94,-0.28,
2.239,-2.55,2.51,0.10,-0.10,0.76,-0.21,
2.239,-2.55,2.51,0.10,-0.13,0.59,-0.15,
2.239,-2.55,2.51,0.10,-0.17,0.34,-0.07,
2.24,-2.55,2.51,0.10,-0.19,0.26,-0.04,
2.245,-2.55,2.51,0.10,-0.21,0.11,0.00,
2.245,-1.93,0.95,-0.40,-0.21,0.11,0.00,
2.245,-1.93,0.95,-0.40,-0.24,-0.04,0.04,
2.245,-1.93,0.95,-0.40,-0.26,-0.17,0.07,
2.247,-1.93,0.95,-0.40,-0.29,-0.34,0.11,
2.248,-1.93,0.95,-0.40,-0.30,-0.39,0.12,
2.251,-1.93,0.95,-0.40,-0.31,-0.49,0.13,
2.252,-1.21,-0.01,-0.15,-0.31,-0.49,0.13,
2.252,-1.21,-0.01,-0.15,-0.33,-0.58,0.14,
2.254,-1.21,-0.01,-0.15,-0.34,-0.66,0.15,
2.257,-1.21,-0.01,-0.15,-0.36,-0.75,0.14,
2.258,-1.21,-0.01,-0.15,-0.37,-0.77,0.14,
2.26,-1.21,-0.01,-0.15,-0.38,-0.81,0.13,
2.262,-0.48,-0.58,0.35,-0.38,-0.81,0.13,
2.262,-0.48,-0.58,0.35,-0.40,-0.84,0.11,
2.264,-0.48,-0.58,0.35,-0.41,-0.86,0.09,
2.267,-0.48,-0.58,0.35,-0.43,-0.86,0.06,
2.268,-0.48,-0.58,0.35,-0.43,-0.86,0.04,
2.27,-0.48,-0.58,0.35,-0.44,-0.85,0.02,
2.272,0.13,-0.90,0.96,-0.44,-0.85,0.02,
2.273,0.13,-0.90,0.96,-0.46,-0.82,-0.01,
2.293,0.13,-0.90,0.96,-0.47,-0.80,-0.04,
2.293,0.13,-0.90,0.96,-0.48,-0.74,-0.08,
2.293,0.13,-0.90,0.96,-0.48,-0.72,-0.10,
2.293,0.13,-0.90,0.96,-0.49,-0.67,-0.12,
2.294,0.56,-1.05,1.59,-0.49,-0.67,-0.12,
2.294,0.56,-1.05,1.59,-0.49,-0.63,-0.15,
2.294,0.56,-1.05,1.59,-0.49,-0.58,-0.17,
2.294,0.56,-1.05,1.59,-0.49,-0.51,-0.20,
2.295,0.56,-1.05,1.59,-0.48,-0.48,-0.21,
2.295,0.56,-1.05,1.59,-0.48,-0.44,-0.23,
2.295,0.98,-0.97,2.53,-0.48,-0.44,-0.23,
2.295,0.98,-0.97,2.53,-0.47,-0.40,-0.24,
2.295,0.98,-0.97,2.53,-0.46,-0.37,-0.26,
2.3,0.98,-0.97,2.53,-0.44,-0.34,-0.27,
2.3,0.98,-0.97,2.53,-0.43,-0.33,-0.27,
2.3,0.98,-0.97,2.53,-0.41,-0.32,-0.27,
2.302,0.94,-1.24,3.33,-0.41,-0.32,-0.27,
2.302,0.94,-1.24,3.33,-0.39,-0.31,-0.28,
2.304,0.94,-1.24,3.33,-0.36,-0.30,-0.28,
2.307,0.94,-1.24,3.33,-0.32,-0.28,-0.29,
2.308,0.94,-1.24,3.33,-0.30,-0.27,-0.30,
2.31,0.94,-1.24,3.33,-0.27,-0.26,-0.30,
2.312,1.57,-1.24,4.08,-0.27,-0.26,-0.30,
2.312,1.57,-1.24,4.08,-0.24,-0.24,-0.31,
2.314,1.57,-1.24,4.08,-0.21,-0.22,-0.33,
2.318,1.57,-1.24,4.08,-0.18,-0.18,-0.34,
2.318,1.57,-1.24,4.08,-0.18,-0.16,-0.35,
2.32,1.57,-1.24,4.08,-0.16,-0.12,-0.36,
2.322,2.17,-0.83,3.43,-0.16,-0.12,-0.36,
2.323,2.17,-0.83,3.43,-0.16,-0.08,-0.38,
2.328,2.17,-0.83,3.43,-0.16,-0.04,-0.39,
2.328,2.17,-0.83,3.43,-0.16,0.04,-0.41,
2.328,2.17,-0.83,3.43,-0.16,0.06,-0.42,
2.33,2.17,-0.83,3.43,-0.16,0.12,-0.43,
2.338,2.46,-0.29,2.31,-0.16,0.12,-0.43,
2.339,2.46,-0.29,2.31,-0.17,0.17,-0.43,
2.339,2.46,-0.29,2.31,-0.18,0.22,-0.44,
2.339,2.46,-0.29,2.31,-0.19,0.29,-0.44,
2.339,2.46,-0.29,2.31,-0.19,0.32,-0.44,
2.34,2.46,-0.29,2.31,-0.20,0.37,-0.44,
2.345,1.85,-0.17,1.20,-0.20,0.37,-0.44,
2.345,1.85,-0.17,1.20,-0.21,0.41,-0.43,
2.345,1.85,-0.17,1.20,-0.21,0.46,-0.41,
2.347,1.85,-0.17,1.20,-0.23,0.53,-0.39,
2.363,1.85,-0.17,1.20,-0.23,0.55,-0.38,
2.363,1.85,-0.17,1.20,-0.25,0.60,-0.36,
2.363,0.91,-0.68,0.20,-0.25,0.60,-0.36,
2.363,0.91,-0.68,0.20,-0.26,0.64,-0.34,
2.364,0.91,-0.68,0.20,-0.27,0.69,-0.32,
2.364,0.91,-0.68,0.20,-0.29,0.75,-0.29,
2.364,0.91,-0.68,0.20,-0.29,0.76,-0.27,
2.364,0.91,-0.68,0.20,-0.30,0.80,-0.25,
2.364,0.24,-1.60,-0.59,-0.30,0.80,-0.25,
2.364,0.24,-1.60,-0.59,-0.32,0.84,-0.23,
2.364,0.24,-1.60,-0.59,-0.33,0.87,-0.21,
2.367,0.24,-1.60,-0.59,-0.34,0.92,-0.18,
2.368,0.24,-1.60,-0.59,-0.35,0.93,-0.18,
2.37,0.24,-1.60,-0.59,-0.36,0.95,-0.16,
2.372,0.25,-2.50,-1.34,-0.36,0.95,-0.16,
2.372,0.25,-2.50,-1.34,-0.36,0.98,-0.15,
2.374,0.25,-2.50,-1.34,-0.36,0.99,-0.15,
2.376,0.25,-2.50,-1.34,-0.35,1.01,-0.14,
2.378,0.25,-2.50,-1.34,-0.35,1.01,-0.15,
2.38,0.25,-2.50,-1.34,-0.34,1.02,-0.15,
2.382,0.53,-3.02,-1.78,-0.34,1.02,-0.15,
2.382,0.53,-3.02,-1.78,-0.33,1.02,-0.15,
2.384,0.53,-3.02,-1.78,-0.31,1.01,-0.16,
2.387,0.53,-3.02,-1.78,-0.28,1.00,-0.17,
2.388,0.53,-3.02,-1.78,-0.26,0.99,-0.18,
2.39,0.53,-3.02,-1.78,-0.24,0.98,-0.19,
2.392,0.63,-3.61,-2.15,-0.24,0.98,-0.19,
2.392,0.63,-3.61,-2.15,-0.20,0.96,-0.20,
2.394,0.63,-3.61,-2.15,-0.17,0.94,-0.20,
2.397,0.63,-3.61,-2.15,-0.11,0.91,-0.22,
2.399,0.63,-3.61,-2.15,-0.10,0.90,-0.22,
2.4,0.63,-3.61,-2.15,-0.05,0.88,-0.22,
2.403,0.11,-4.51,-2.29,-0.05,0.88,-0.22,
2.403,0.11,-4.51,-2.29,-0.01,0.85,-0.23,
2.404,0.11,-4.51,-2.29,0.03,0.83,-0.23,
2.407,0.11,-4.51,-2.29,0.09,0.79,-0.22,
2.408,0.11,-4.51,-2.29,0.11,0.78,-0.22,
2.417,0.11,-4.51,-2.29,0.15,0.76,-0.22,
2.417,-0.36,-5.01,-2.39,0.15,0.76,-0.22,
2.417,-0.36,-5.01,-2.39,0.19,0.73,-0.21,
2.418,-0.36,-5.01,-2.39,0.23,0.72,-0.19,
2.418,-0.36,-5.01,-2.39,0.27,0.69,-0.17,
2.418,-0.36,-5.01,-2.39,0.29,0.69,-0.17,
2.42,-0.36,-5.01,-2.39,0.32,0.68,-0.16,
2.422,-0.25,-3.93,-2.45,0.32,0.68,-0.16,
2.422,-0.25,-3.93,-2.45,0.34,0.68,-0.16,
2.424,-0.25,-3.93,-2.45,0.36,0.68,-0.15,
2.427,-0.25,-3.93,-2.45,0.39,0.70,-0.15,
2.434,-0.25,-3.93,-2.45,0.40,0.71,-0.15,
2.435,-0.25,-3.93,-2.45,0.41,0.73,-0.15,
2.435,0.34,-1.87,-2.41,0.41,0.73,-0.15,
2.435,0.34,-1.87,-2.41,0.43,0.76,-0.15,
2.436,0.34,-1.87,-2.41,0.44,0.80,-0.16,
2.437,0.34,-1.87,-2.41,0.46,0.85,-0.16,
2.438,0.34,-1.87,-2.41,0.46,0.87,-0.16,
2.441,0.34,-1.87,-2.41,0.47,0.91,-0.17,
2.468,0.91,0.14,-2.17,0.47,0.91,-0.17,
2.468,0.91,0.14,-2.17,0.47,0.95,-0.18,
2.469,0.91,0.14,-2.17,0.48,0.99,-0.19,
2.469,0.91,0.14,-2.17,0.49,1.06,-0.21,
2.47,0.91,0.14,-2.17,0.49,1.08,-0.22,
2.47,0.91,0.14,-2.17,0.49,1.21,-0.28,
2.47,0.91,0.14,-2.17,0.49,1.21,-0.28,
2.471,0.91,0.14,-2.17,0.49,1.21,-0.28,
2.471,1.76,2.34,-2.06,0.49,1.21,-0.28,
2.472,1.76,2.34,-2.06,0.48,1.35,-0.35,
2.472,1.76,2.34,-2.06,0.48,1.38,-0.36,
2.472,1.76,2.34,-2.06,0.48,1.38,-0.36,
2.473,2.13,3.11,-1.89,0.48,1.38,-0.36,
2.473,2.13,3.11,-1.89,0.46,1.45,-0.39,
2.474,2.13,3.11,-1.89,0.45,1.53,-0.42,
2.474,2.13,3.11,-1.89,0.41,1.64,-0.45,
2.474,2.13,3.11,-1.89,0.40,1.68,-0.46,
2.475,2.13,3.11,-1.89,0.38,1.75,-0.49,
2.475,2.30,3.71,-1.92,0.38,1.75,-0.49,
2.476,2.30,3.71,-1.92,0.35,1.82,-0.52,
2.476,2.30,3.71,-1.92,0.32,1.88,-0.55,
2.485,2.30,3.71,-1.92,0.29,1.96,-0.59,
2.486,2.30,3.71,-1.92,0.27,1.99,-0.61,
2.486,2.30,3.71,-1.92,0.25,2.03,-0.63,
2.486,2.30,2.94,-2.08,0.25,2.03,-0.63,
2.487,2.30,2.94,-2.08,0.23,2.06,-0.66,
2.487,2.30,2.94,-2.08,0.20,2.08,-0.69,
2.487,2.30,2.94,-2.08,0.17,2.08,-0.73,
2.488,2.30,2.94,-2.08,0.16,2.08,-0.75,
2.49,2.30,2.94,-2.08,0.14,2.06,-0.78,
2.492,2.29,1.13,-2.35,0.14,2.06,-0.78,
2.492,2.29,1.13,-2.35,0.12,2.03,-0.82,
2.494,2.29,1.13,-2.35,0.10,1.99,-0.85,
2.497,2.29,1.13,-2.35,0.07,1.91,-0.90,
2.503,2.29,1.13,-2.35,0.05,1.88,-0.92,
2.504,2.29,1.13,-2.35,0.03,1.81,-0.96,
2.504,2.07,-0.62,-2.53,0.03,1.81,-0.96,
2.504,2.07,-0.62,-2.53,0.00,1.73,-0.99,
2.504,2.07,-0.62,-2.53,-0.03,1.64,-1.01,
2.508,2.07,-0.62,-2.53,-0.07,1.49,-1.05,
2.509,2.07,-0.62,-2.53,-0.08,1.44,-1.06,
2.512,2.07,-0.62,-2.53,-0.11,1.33,-1.08,
2.513,1.41,-2.21,-2.61,-0.11,1.33,-1.08,
2.513,1.41,-2.21,-2.61,-0.14,1.22,-1.09,
2.539,1.41,-2.21,-2.61,-0.16,1.11,-1.11,
2.54,1.41,-2.21,-2.61,-0.20,0.93,-1.13,
2.541,1.41,-2.21,-2.61,-0.22,0.88,-1.13,
2.541,1.41,-2.21,-2.61,-0.24,0.75,-1.14,
2.541,0.87,-3.29,-2.32,-0.24,0.75,-1.14,
2.541,0.87,-3.29,-2.32,-0.26,0.64,-1.15,
2.542,0.87,-3.29,-2.32,-0.29,0.52,-1.16,
2.542,0.87,-3.29,-2.32,-0.32,0.35,-1.17,
2.542,0.87,-3.29,-2.32,-0.33,0.29,-1.18,
2.542,0.87,-3.29,-2.32,-0.36,0.19,-1.18,
2.543,0.57,-3.70,-1.91,-0.36,0.19,-1.18,
2.543,0.57,-3.70,-1.91,-0.38,0.08,-1.19,
2.543,0.57,-3.70,-1.91,-0.40,-0.02,-1.19,
2.543,0.57,-3.70,-1.91,-0.44,-0.17,-1.20,
2.544,0.57,-3.70,-1.91,-0.45,-0.21,-1.21,
2.544,0.57,-3.70,-1.91,-0.47,-0.30,-1.21,
2.544,0.63,-3.40,-1.72,-0.47,-0.30,-1.21,
2.544,0.63,-3.40,-1.72,-0.50,-0.39,-1.22,
2.544,0.63,-3.40,-1.72,-0.53,-0.46,-1.23,
2.55,0.63,-3.40,-1.72,-0.57,-0.57,-1.24,
2.55,0.63,-3.40,-1.72,-0.59,-0.60,-1.24,
2.55,0.63,-3.40,-1.72,-0.62,-0.66,-1.25,
2.554,1.03,-2.45,-1.72,-0.62,-0.66,-1.25,
2.555,1.03,-2.45,-1.72,-0.66,-0.71,-1.27,
2.555,1.03,-2.45,-1.72,-0.70,-0.75,-1.28,
2.557,1.03,-2.45,-1.72,-0.79,-0.80,-1.29,
2.558,1.03,-2.45,-1.72,-0.82,-0.80,-1.29,
2.56,1.03,-2.45,-1.72,-0.90,-0.81,-1.30,
2.562,1.23,-1.25,-1.89,-0.90,-0.81,-1.30,
2.563,1.23,-1.25,-1.89,-0.98,-0.80,-1.30,
2.566,1.23,-1.25,-1.89,-1.07,-0.79,-1.30,
2.567,1.23,-1.25,-1.89,-1.22,-0.76,-1.29,
2.569,1.23,-1.25,-1.89,-1.26,-0.74,-1.29,
2.571,1.23,-1.25,-1.89,-1.41,-0.70,-1.28,
2.585,1.21,-0.07,-1.83,-1.41,-0.70,-1.28,
2.585,1.21,-0.07,-1.83,-1.46,-0.68,-1.28,
2.586,1.21,-0.07,-1.83,-1.55,-0.64,-1.27,
2.586,1.21,-0.07,-1.83,-1.68,-0.58,-1.27,
2.586,1.21,-0.07,-1.83,-1.72,-0.56,-1.27,
2.586,1.21,-0.07,-1.83,-1.79,-0.51,-1.26,
2.589,1.17,0.48,-1.09,-1.79,-0.51,-1.26,
2.589,1.17,0.48,-1.09,-1.86,-0.46,-1.26,
2.589,1.17,0.48,-1.09,-1.92,-0.41,-1.26,
2.59,1.17,0.48,-1.09,-1.99,-0.34,-1.26,
2.59,1.17,0.48,-1.09,-2.01,-0.32,-1.26,
2.591,1.17,0.48,-1.09,-2.05,-0.26,-1.27,
2.596,0.97,0.81,0.07,-2.05,-0.26,-1.27,
2.596,0.97,0.81,0.07,-2.07,-0.21,-1.27,
2.596,0.97,0.81,0.07,-2.09,-0.16,-1.27,
2.621,0.97,0.81,0.07,-2.10,-0.07,-1.26,
2.621,0.97,0.81,0.07,-2.10,-0.04,-1.27,
2.622,0.97,0.81,0.07,-2.10,0.01,-1.26,
2.622,0.63,0.94,1.01,-2.10,0.01,-1.26,
2.622,0.63,0.94,1.01,-2.10,0.07,-1.26,
2.622,0.63,0.94,1.01,-2.09,0.14,-1.25,
2.622,0.63,0.94,1.01,-2.06,0.24,-1.24,
2.641,0.63,0.94,1.01,-2.05,0.28,-1.24,
2.641,0.63,0.94,1.01,-2.03,0.35,-1.23,
2.642,-0.00,1.02,1.98,-2.03,0.35,-1.23,
2.642,-0.00,1.02,1.98,-2.00,0.43,-1.21,
2.642,-0.00,1.02,1.98,-1.96,0.50,-1.19,
2.643,-0.00,1.02,1.98,-1.90,0.62,-1.15,
2.643,-0.00,1.02,1.98,-1.88,0.66,-1.14,
2.643,-0.00,1.02,1.98,-1.84,0.74,-1.11,
2.643,-0.89,1.01,2.74,-1.84,0.74,-1.11,
2.644,-0.89,1.01,2.74,-1.79,0.81,-1.07,
2.644,-0.89,1.01,2.74,-1.73,0.89,-1.04,
2.644,-0.89,1.01,2.74,-1.65,0.99,-0.97,
2.644,-0.89,1.01,2.74,-1.61,1.03,-0.95,
2.645,-0.89,1.01,2.74,-1.54,1.10,-0.90,
2.645,-1.73,1.02,3.55,-1.54,1.10,-0.90,
2.645,-1.73,1.02,3.55,-1.47,1.16,-0.85,
2.645,-1.73,1.02,3.55,-1.40,1.22,-0.80,
2.646,-1.73,1.02,3.55,-1.28,1.30,-0.71,
2.646,-1.73,1.02,3.55,-1.23,1.32,-0.68,
2.646,-1.73,1.02,3.55,-1.15,1.36,-0.62,
2.646,-2.18,1.18,3.94,-1.15,1.36,-0.62,
2.647,-2.18,1.18,3.94,-1.07,1.39,-0.57,
2.647,-2.18,1.18,3.94,-0.99,1.42,-0.51,
2.647,-2.18,1.18,3.94,-0.87,1.43,-0.43,
2.655,-2.18,1.18,3.94,-0.83,1.44,-0.40,
2.655,-2.18,1.18,3.94,-0.76,1.44,-0.35,
2.656,-2.11,1.25,3.74,-0.76,1.44,-0.35,
2.656,-2.11,1.25,3.74,-0.69,1.42,-0.30,
2.656,-2.11,1.25,3.74,-0.63,1.41,-0.25,
2.658,-2.11,1.25,3.74,-0.54,1.37,-0.19,
2.659,-2.11,1.25,3.74,-0.52,1.36,-0.17,
2.66,-2.11,1.25,3.74,-0.47,1.33,-0.13,
2.663,-1.56,1.11,2.95,-0.47,1.33,-0.13,
2.664,-1.56,1.11,2.95,-0.43,1.29,-0.10,
2.664,-1.56,1.11,2.95,-0.39,1.25,-0.07,
2.667,-1.56,1.11,2.95,-0.34,1.18,-0.04,
2.668,-1.56,1.11,2.95,-0.33,1.16,-0.03,
2.67,-1.56,1.11,2.95,-0.30,1.11,-0.01,
2.672,-0.90,0.85,2.32,-0.30,1.11,-0.01,
2.672,-0.90,0.85,2.32,-0.28,1.06,0.00,
2.674,-0.90,0.85,2.32,-0.27,1.01,0.01,
2.678,-0.90,0.85,2.32,-0.26,0.93,0.02,
2.678,-0.90,0.85,2.32,-0.25,0.90,0.02,
2.68,-0.90,0.85,2.32,-0.25,0.85,0.02,
2.683,-0.26,0.56,1.86,-0.25,0.85,0.02,
2.683,-0.26,0.56,1.86,-0.25,0.80,0.02,
2.684,-0.26,0.56,1.86,-0.26,0.74,0.02,
2.687,-0.26,0.56,1.86,-0.27,0.66,0.01,
2.688,-0.26,0.56,1.86,-0.28,0.63,0.01,
2.69,-0.26,0.56,1.86,-0.30,0.57,-0.00,
2.692,0.30,0.22,1.57,-0.30,0.57,-0.00,
2.692,0.30,0.22,1.57,-0.32,0.52,-0.01,
2.694,0.30,0.22,1.57,-0.34,0.46,-0.02,
2.697,0.30,0.22,1.57,-0.38,0.37,-0.04,
2.698,0.30,0.22,1.57,-0.40,0.34,-0.05,
2.7,0.30,0.22,1.57,-0.43,0.27,-0.06,
2.702,0.62,-0.16,1.27,-0.43,0.27,-0.06,
2.702,0.62,-0.16,1.27,-0.46,0.21,-0.07,
2.704,0.62,-0.16,1.27,-0.49,0.14,-0.09,
2.707,0.62,-0.16,1.27,-0.55,0.04,-0.11,
2.708,0.62,-0.16,1.27,-0.57,0.01,-0.12,
2.71,0.62,-0.16,1.27,-0.61,-0.06,-0.13,
2.712,0.85,-0.47,1.11,-0.61,-0.06,-0.13,
2.712,0.85,-0.47,1.11,-0.64,-0.13,-0.14,
2.714,0.85,-0.47,1.11,-0.68,-0.20,-0.16,
2.717,0.85,-0.47,1.11,-0.74,-0.30,-0.18,
2.719,0.85,-0.47,1.11,-0.75,-0.33,-0.18,
2.72,0.85,-0.47,1.11,-0.78,-0.40,-0.20,
2.722,0.91,-0.61,0.98,-0.78,-0.40,-0.20,
2.722,0.91,-0.61,0.98,-0.82,-0.47,-0.21,
2.724,0.91,-0.61,0.98,-0.84,-0.53,-0.22,
2.728,0.91,-0.61,0.98,-0.88,-0.61,-0.25,
2.728,0.91,-0.61,0.98,-0.89,-0.64,-0.25,
2.739,0.91,-0.61,0.98,-0.91,-0.69,-0.26,
2.739,1.00,-0.45,1.04,-0.91,-0.69,-0.26,
2.739,1.00,-0.45,1.04,-0.93,-0.74,-0.28,
2.74,1.00,-0.45,1.04,-0.94,-0.78,-0.29,
2.74,1.00,-0.45,1.04,-0.96,-0.84,-0.30,
2.74,1.00,-0.45,1.04,-0.97,-0.86,-0.31,
2.74,1.00,-0.45,1.04,-0.97,-0.88,-0.32,
2.742,0.93,-0.17,1.08,-0.97,-0.88,-0.32,
2.743,0.93,-0.17,1.08,-0.97,-0.91,-0.33,
2.744,0.93,-0.17,1.08,-0.97,-0.93,-0.33,
2.766,0.93,-0.17,1.08,-0.97,-0.96,-0.34,
2.768,0.93,-0.17,1.08,-0.97,-0.96,-0.34,
2.769,0.93,-0.17,1.08,-0.96,-0.98,-0.34,
2.769,0.71,0.06,1.15,-0.96,-0.98,-0.34,
2.77,0.71,0.06,1.15,-0.95,-0.98,-0.34,
2.77,0.71,0.06,1.15,-0.95,-0.98,-0.33,
2.771,0.71,0.06,1.15,-0.93,-0.98,-0.32,
2.771,0.71,0.06,1.15,-0.92,-0.97,-0.31,
2.771,0.71,0.06,1.15,-0.91,-0.97,-0.30,
2.772,0.38,0.26,1.14,-0.91,-0.97,-0.30,
2.773,0.38,0.26,1.14,-0.90,-0.95,-0.29,
2.774,0.38,0.26,1.14,-0.88,-0.94,-0.27,
2.775,0.38,0.26,1.14,-0.86,-0.91,-0.24,
2.775,0.38,0.26,1.14,-0.85,-0.89,-0.23,
2.776,0.38,0.26,1.14,-0.83,-0.87,-0.22,
2.776,0.34,0.63,1.04,-0.83,-0.87,-0.22,
2.776,0.34,0.63,1.04,-0.82,-0.84,-0.21,
2.802,0.34,0.63,1.04,-0.80,-0.80,-0.20,
2.803,0.34,0.63,1.04,-0.77,-0.75,-0.18,
2.804,0.34,0.63,1.04,-0.76,-0.73,-0.17,
2.804,0.34,0.63,1.04,-0.74,-0.69,-0.16,
2.805,0.47,0.92,0.83,-0.74,-0.69,-0.16,
2.805,0.47,0.92,0.83,-0.73,-0.65,-0.15,
2.805,0.47,0.92,0.83,-0.71,-0.62,-0.13,
2.805,0.47,0.92,0.83,-0.69,-0.56,-0.11,
2.806,0.47,0.92,0.83,-0.68,-0.54,-0.11,
2.806,0.47,0.92,0.83,-0.67,-0.50,-0.09,
2.806,0.41,0.86,0.47,-0.67,-0.50,-0.09,
2.806,0.41,0.86,0.47,-0.66,-0.45,-0.07,
2.807,0.41,0.86,0.47,-0.65,-0.41,-0.06,
2.807,0.41,0.86,0.47,-0.64,-0.34,-0.03,
2.807,0.41,0.86,0.47,-0.64,-0.32,-0.02,
2.808,0.41,0.86,0.47,-0.64,-0.28,0.00,
2.808,0.17,0.41,0.05,-0.64,-0.28,0.00,
2.808,0.17,0.41,0.05,-0.64,-0.24,0.02,
2.808,0.17,0.41,0.05,-0.63,-0.20,0.04,
2.809,0.17,0.41,0.05,-0.63,-0.14,0.07,
2.809,0.17,0.41,0.05,-0.63,-0.11,0.08,
2.816,0.17,0.41,0.05,-0.63,-0.07,0.10,
2.816,0.17,-0.03,-0.09,-0.63,-0.07,0.10,
2.816,0.17,-0.03,-0.09,-0.63,-0.02,0.11,
2.816,0.17,-0.03,-0.09,-0.63,0.03,0.12,
2.818,0.17,-0.03,-0.09,-0.63,0.11,0.13,
2.818,0.17,-0.03,-0.09,-0.64,0.14,0.13,
2.82,0.17,-0.03,-0.09,-0.64,0.19,0.13,
2.825,0.41,-0.36,-0.11,-0.64,0.19,0.13,
2.825,0.41,-0.36,-0.11,-0.66,0.25,0.14,
2.825,0.41,-0.36,-0.11,-0.67,0.31,0.14,
2.827,0.41,-0.36,-0.11,-0.69,0.40,0.13,
2.828,0.41,-0.36,-0.11,-0.71,0.43,0.13,
2.832,0.41,-0.36,-0.11,-0.73,0.49,0.12,
2.832,0.67,-0.73,0.08,-0.73,0.49,0.12,
2.832,0.67,-0.73,0.08,-0.75,0.54,0.12,
2.834,0.67,-0.73,0.08,-0.77,0.60,0.11,
2.837,0.67,-0.73,0.08,-0.80,0.68,0.09,
2.838,0.67,-0.73,0.08,-0.82,0.71,0.09,
2.84,0.67,-0.73,0.08,-0.84,0.75,0.07,
2.843,0.83,-1.03,0.62,-0.84,0.75,0.07,
2.844,0.83,-1.03,0.62,-0.86,0.80,0.06,
2.844,0.83,-1.03,0.62,-0.88,0.84,0.04,
2.852,0.83,-1.03,0.62,-0.91,0.89,0.02,
2.852,0.83,-1.03,0.62,-0.92,0.91,0.01,
2.853,0.83,-1.03,0.62,-0.94,0.93,0.00,
2.853,0.84,-1.25,1.52,-0.94,0.93,0.00,
2.853,0.84,-1.25,1.52,-0.95,0.96,-0.01,
2.854,0.84,-1.25,1.52,-0.95,0.97,-0.03,
2.861,0.84,-1.25,1.52,-0.96,0.99,-0.05,
2.862,0.84,-1.25,1.52,-0.96,0.99,-0.05,
2.862,0.84,-1.25,1.52,-0.95,1.00,-0.06,
2.862,0.64,-1.30,2.49,-0.95,1.00,-0.06,
2.862,0.64,-1.30,2.49,-0.94,1.00,-0.07,
2.887,0.64,-1.30,2.49,-0.93,0.99,-0.08,
2.887,0.64,-1.30,2.49,-0.90,0.97,-0.09,
2.887,0.64,-1.30,2.49,-0.89,0.97,-0.09,
2.888,0.64,-1.30,2.49,-0.87,0.95,-0.09,
2.888,0.40,-1.20,3.54,-0.87,0.95,-0.09,
2.888,0.40,-1.20,3.54,-0.84,0.93,-0.09,
2.888,0.40,-1.20,3.54,-0.80,0.90,-0.09,
2.888,0.40,-1.20,3.54,-0.74,0.85,-0.09,
2.889,0.40,-1.20,3.54,-0.72,0.84,-0.08,
2.889,0.40,-1.20,3.54,-0.67,0.80,-0.08,
2.89,0.12,-1.09,4.28,-0.67,0.80,-0.08,
2.891,0.12,-1.09,4.28,-0.63,0.76,-0.07,
2.891,0.12,-1.09,4.28,-0.58,0.71,-0.06,
2.891,0.12,-1.09,4.28,-0.50,0.64,-0.05,
2.891,0.12,-1.09,4.28,-0.47,0.62,-0.04,
2.891,0.12,-1.09,4.28,-0.41,0.57,-0.03,
2.892,-0.08,-1.22,4.80,-0.41,0.57,-0.03,
2.892,-0.08,-1.22,4.80,-0.35,0.52,-0.02,
2.894,-0.08,-1.22,4.80,-0.30,0.47,-0.00,
2.897,-0.08,-1.22,4.80,-0.21,0.40,0.01,
2.898,-0.08,-1.22,4.80,-0.18,0.37,0.02,
2.9,-0.08,-1.22,4.80,-0.13,0.32,0.03,
2.902,-0.28,-1.54,4.76,-0.13,0.32,0.03,
2.902,-0.28,-1.54,4.76,-0.08,0.27,0.04,
2.904,-0.28,-1.54,4.76,-0.03,0.23,0.06,
2.907,-0.28,-1.54,4.76,0.05,0.16,0.07,
2.908,-0.28,-1.54,4.76,0.07,0.14,0.07,
2.91,-0.28,-1.54,4.76,0.11,0.10,0.08,
2.912,-0.48,-1.90,4.54,0.11,0.10,0.08,
2.912,-0.48,-1.90,4.54,0.15,0.06,0.09,
2.915,-0.48,-1.90,4.54,0.19,0.03,0.10,
2.917,-0.48,-1.90,4.54,0.25,-0.02,0.11,
2.918,-0.48,-1.90,4.54,0.26,-0.04,0.11,
2.92,-0.48,-1.90,4.54,0.31,-0.08,0.13,
2.922,-0.74,-2.08,4.00,0.31,-0.08,0.13,
2.922,-0.74,-2.08,4.00,0.33,-0.09,0.13,
2.924,-0.74,-2.08,4.00,0.36,-0.12,0.14,
2.927,-0.74,-2.08,4.00,0.41,-0.16,0.15,
2.929,-0.74,-2.08,4.00,0.42,-0.17,0.16,
2.93,-0.74,-2.08,4.00,0.45,-0.19,0.17,
2.932,-1.08,-2.11,3.82,0.45,-0.19,0.17,
2.932,-1.08,-2.11,3.82,0.48,-0.21,0.18,
2.939,-1.08,-2.11,3.82,0.51,-0.23,0.20,
2.94,-1.08,-2.11,3.82,0.56,-0.24,0.22,
2.94,-1.08,-2.11,3.82,0.58,-0.25,0.23,
2.941,-1.08,-2.11,3.82,0.62,-0.25,0.26,
2.968,-1.52,-2.20,3.66,0.62,-0.25,0.26,
2.968,-1.52,-2.20,3.66,0.65,-0.25,0.28,
2.968,-1.52,-2.20,3.66,0.69,-0.24,0.31,
2.969,-1.52,-2.20,3.66,0.76,-0.23,0.35,
2.969,-1.52,-2.20,3.66,0.78,-0.22,0.36,
2.969,-1.52,-2.20,3.66,0.83,-0.20,0.39,
2.969,-1.52,-2.20,3.66,0.89,-0.18,0.42,
2.969,-1.84,-2.61,3.87,0.89,-0.18,0.42,
2.97,-1.84,-2.61,3.87,0.94,-0.15,0.45,
2.97,-1.84,-2.61,3.87,1.03,-0.10,0.48,
2.97,-1.84,-2.61,3.87,1.06,-0.08,0.50,
2.97,-1.84,-2.61,3.87,1.13,-0.04,0.52,
2.97,-1.58,-3.11,4.11,1.13,-0.04,0.52,
2.97,-1.58,-3.11,4.11,1.20,0.00,0.54,
2.971,-1.58,-3.11,4.11,1.27,0.05,0.56,
2.971,-1.58,-3.11,4.11,1.38,0.12,0.58,
2.971,-1.58,-3.11,4.11,1.42,0.14,0.58,
2.971,-1.58,-3.11,4.11,1.50,0.19,0.59,
2.977,-0.99,-3.29,4.54,1.50,0.19,0.59,
2.978,-0.99,-3.29,4.54,1.58,0.24,0.60,
2.978,-0.99,-3.29,4.54,1.65,0.29,0.61,
2.978,-0.99,-3.29,4.54,1.77,0.37,0.62,
2.978,-0.99,-3.29,4.54,1.81,0.40,0.62,
2.98,-0.99,-3.29,4.54,1.88,0.45,0.62,
2.984,-0.36,-2.90,4.73,1.88,0.45,0.62,
2.984,-0.36,-2.90,4.73,1.96,0.49,0.63,
2.984,-0.36,-2.90,4.73,2.03,0.54,0.63,
2.988,-0.36,-2.90,4.73,2.13,0.61,0.64,
2.988,-0.36,-2.90,4.73,2.16,0.64,0.64,
2.992,-0.36,-2.90,4.73,2.22,0.69,0.65,
2.995,0.11,-2.26,4.87,2.22,0.69,0.65,
2.996,0.11,-2.26,4.87,2.28,0.73,0.65,
2.996,0.11,-2.26,4.87,2.34,0.77,0.66,
2.999,0.11,-2.26,4.87,2.41,0.84,0.67,
2.999,0.11,-2.26,4.87,2.43,0.86,0.67,
3.001,0.11,-2.26,4.87,2.47,0.89,0.67,
3.004,0.57,-1.62,4.35,2.47,0.89,0.67,
3.004,0.57,-1.62,4.35,2.51,0.92,0.68,
3.005,0.57,-1.62,4.35,2.54,0.94,0.68,
3.007,0.57,-1.62,4.35,2.59,0.95,0.70,
3.008,0.57,-1.62,4.35,2.60,0.95,0.70,
3.01,0.57,-1.62,4.35,2.62,0.94,0.72,
3.018,0.57,-1.49,3.26,2.62,0.94,0.72,
3.019,0.57,-1.49,3.26,2.64,0.92,0.75,
3.019,0.57,-1.49,3.26,2.65,0.90,0.77,
3.019,0.57,-1.49,3.26,2.68,0.86,0.81,
3.019,0.57,-1.49,3.26,2.68,0.84,0.82,
3.02,0.57,-1.49,3.26,2.70,0.81,0.84,
3.026,0.35,-0.87,1.87,2.70,0.81,0.84,
3.026,0.35,-0.87,1.87,2.72,0.78,0.87,
3.026,0.35,-0.87,1.87,2.74,0.75,0.89,
3.027,0.35,-0.87,1.87,2.77,0.72,0.94,
3.045,0.35,-0.87,1.87,2.79,0.72,0.96,
3.046,0.35,-0.87,1.87,2.81,0.72,0.99,
3.046,-0.54,-0.55,0.96,2.81,0.72,0.99,
3.047,-0.54,-0.55,0.96,2.85,0.74,1.04,
3.047,-0.54,-0.55,0.96,2.89,0.77,1.09,
3.047,-0.54,-0.55,0.96,2.97,0.85,1.17,
3.047,-0.54,-0.55,0.96,3.00,0.88,1.19,
3.048,-0.54,-0.55,0.96,3.08,0.96,1.25,
3.048,-1.89,-0.92,1.39,3.08,0.96,1.25,
3.048,-1.89,-0.92,1.39,3.17,1.05,1.31,
3.048,-1.89,-0.92,1.39,3.26,1.13,1.37,
3.051,-1.89,-0.92,1.39,3.42,1.26,1.45,
3.052,-1.89,-0.92,1.39,3.48,1.30,1.48,
3.057,-1.89,-0.92,1.39,3.60,1.37,1.53,
3.057,-2.35,-1.78,2.47,3.60,1.37,1.53,
3.057,-2.35,-1.78,2.47,3.71,1.43,1.58,
3.057,-2.35,-1.78,2.47,3.82,1.47,1.62,
3.059,-2.35,-1.78,2.47,3.96,1.52,1.68,
3.059,-2.35,-1.78,2.47,4.00,1.53,1.69,
3.062,-2.35,-1.78,2.47,4.08,1.53,1.72,
3.065,-1.59,-2.87,1.57,4.08,1.53,1.72,
3.065,-1.59,-2.87,1.57,4.15,1.52,1.74,
3.065,-1.59,-2.87,1.57,4.20,1.49,1.75,
3.069,-1.59,-2.87,1.57,4.25,1.42,1.75,
3.07,-1.59,-2.87,1.57,4.27,1.39,1.74,
3.072,-1.59,-2.87,1.57,4.28,1.31,1.73,
3.073,0.25,-3.81,-0.59,4.28,1.31,1.73,
3.073,0.25,-3.81,-0.59,4.29,1.23,1.70,
3.074,0.25,-3.81,-0.59,4.29,1.14,1.67,
3.078,0.25,-3.81,-0.59,4.27,1.00,1.62,
3.085,0.25,-3.81,-0.59,4.26,0.95,1.60,
3.085,0.25,-3.81,-0.59,4.24,0.85,1.55,
3.085,2.02,-4.32,-2.23,4.24,0.85,1.55,
3.086,2.02,-4.32,-2.23,4.21,0.75,1.50,
3.086,2.02,-4.32,-2.23,4.18,0.65,1.45,
3.087,2.02,-4.32,-2.23,4.12,0.50,1.37,
3.088,2.02,-4.32,-2.23,4.10,0.45,1.34,
3.09,2.02,-4.32,-2.23,4.06,0.36,1.28,
3.092,3.14,-4.89,-3.23,4.06,0.36,1.28,
3.093,3.14,-4.89,-3.23,4.01,0.26,1.22,
3.096,3.14,-4.89,-3.23,3.94,0.16,1.17,
3.099,3.14,-4.89,-3.23,3.85,0.01,1.09,
3.1,3.14,-4.89,-3.23,3.82,-0.03,1.06,
3.1,3.14,-4.89,-3.23,3.75,-0.12,1.00,
3.102,3.56,-5.79,-3.98,3.75,-0.12,1.00,
3.102,3.56,-5.79,-3.98,3.67,-0.21,0.94,
3.104,3.56,-5.79,-3.98,3.58,-0.29,0.89,
3.107,3.56,-5.79,-3.98,3.44,-0.40,0.80,
3.134,3.56,-5.79,-3.98,3.39,-0.44,0.77,
3.135,3.56,-5.79,-3.98,3.29,-0.51,0.72,
3.135,3.89,-7.05,-4.91,3.29,-0.51,0.72,
3.136,3.89,-7.05,-4.91,3.18,-0.58,0.67,
3.136,3.89,-7.05,-4.91,3.07,-0.64,0.61,
3.137,3.89,-7.05,-4.91,2.91,-0.74,0.54,
3.137,3.89,-7.05,-4.91,2.86,-0.78,0.51,
3.137,3.89,-7.05,-4.91,2.75,-0.86,0.47,
3.138,3.65,-8.20,-5.00,2.75,-0.86,0.47,
3.138,3.65,-8.20,-5.00,2.64,-0.94,0.44,
3.139,3.65,-8.20,-5.00,2.54,-1.03,0.41,
3.139,3.65,-8.20,-5.00,2.38,-1.18,0.38,
3.14,3.65,-8.20,-5.00,2.33,-1.23,0.37,
3.14,3.65,-8.20,-5.00,2.22,-1.33,0.36,
3.14,2.74,-8.98,-5.12,2.22,-1.33,0.36,
3.141,2.74,-8.98,-5.12,2.12,-1.43,0.35,
3.141,2.74,-8.98,-5.12,2.03,-1.53,0.35,
3.141,2.74,-8.98,-5.12,1.88,-1.67,0.34,
3.141,2.74,-8.98,-5.12,1.84,-1.71,0.35,
3.142,2.74,-8.98,-5.12,1.75,-1.79,0.35,
3.149,1.95,-8.78,-4.95,1.75,-1.79,0.35,
3.149,1.95,-8.78,-4.95,1.67,-1.87,0.34,
3.15,1.95,-8.78,-4.95,1.60,-1.93,0.34,
3.15,1.95,-8.78,-4.95,1.49,-1.99,0.34,
3.15,1.95,-8.78,-4.95,1.46,-2.00,0.33,
3.15,1.95,-8.78,-4.95,1.40,-2.00,0.32,
3.154,1.97,-7.84,-4.50,1.40,-2.00,0.32,
3.155,1.97,-7.84,-4.50,1.35,-1.98,0.31,
3.156,1.97,-7.84,-4.50,1.31,-1.95,0.29,
3.159,1.97,-7.84,-4.50,1.27,-1.86,0.26,
3.16,1.97,-7.84,-4.50,1.26,-1.83,0.25,
3.16,1.97,-7.84,-4.50,1.25,-1.74,0.22,
3.173,2.03,-6.10,-3.46,1.25,-1.74,0.22,
3.174,2.03,-6.10,-3.46,1.24,-1.63,0.20,
3.174,2.03,-6.10,-3.46,1.25,-1.52,0.18,
3.175,2.03,-6.10,-3.46,1.26,-1.32,0.15,
3.175,2.03,-6.10,-3.46,1.27,-1.25,0.15,
3.175,2.03,-6.10,-3.46,1.29,-1.11,0.13,
3.175,1.60,-4.33,-2.83,1.29,-1.11,0.13,
3.176,1.60,-4.33,-2.83,1.32,-0.96,0.12,
3.176,1.60,-4.33,-2.83,1.35,-0.81,0.10,
3.181,1.60,-4.33,-2.83,1.40,-0.56,0.07,
3.194,1.60,-4.33,-2.83,1.42,-0.47,0.07,
3.195,1.60,-4.33,-2.83,1.46,-0.28,0.06,
3.195,1.09,-2.91,-2.85,1.46,-0.28,0.06,
3.195,1.09,-2.91,-2.85,1.49,-0.07,0.05,
3.195,1.09,-2.91,-2.85,1.53,0.13,0.05,
3.196,1.09,-2.91,-2.85,1.58,0.44,0.04,
3.196,1.09,-2.91,-2.85,1.60,0.54,0.04,
3.196,1.09,-2.91,-2.85,1.64,0.73,0.04,
3.196,0.45,-1.92,-3.55,1.64,0.73,0.04,
3.196,0.45,-1.92,-3.55,1.68,0.91,0.04,
3.197,0.45,-1.92,-3.55,1.72,1.08,0.04,
3.197,0.45,-1.92,-3.55,1.78,1.31,0.05,
3.198,0.45,-1.92,-3.55,1.80,1.37,0.06,
3.202,0.45,-1.92,-3.55,1.84,1.49,0.06,
3.202,-0.05,-0.91,-3.77,1.84,1.49,0.06,
3.203,-0.05,-0.91,-3.77,1.88,1.59,0.08,
3.204,-0.05,-0.91,-3.77,1.92,1.68,0.09,
3.207,-0.05,-0.91,-3.77,1.98,1.80,0.11,
3.208,-0.05,-0.91,-3.77,1.99,1.83,0.11,
3.21,-0.05,-0.91,-3.77,2.02,1.90,0.13,
3.213,-0.27,0.13,-4.35,2.02,1.90,0.13,
3.213,-0.27,0.13,-4.35,2.05,1.95,0.14,
3.215,-0.27,0.13,-4.35,2.06,2.01,0.15,
3.217,-0.27,0.13,-4.35,2.08,2.09,0.18,
3.218,-0.27,0.13,-4.35,2.08,2.11,0.19,
3.22,-0.27,0.13,-4.35,2.08,2.17,0.22,
3.222,-0.40,1.32,-5.17,2.08,2.17,0.22,
3.222,-0.40,1.32,-5.17,2.08,2.21,0.24,
3.224,-0.40,1.32,-5.17,2.07,2.25,0.27,
3.227,-0.40,1.32,-5.17,2.06,2.30,0.33,
3.229,-0.40,1.32,-5.17,2.05,2.31,0.35,
3.23,-0.40,1.32,-5.17,2.04,2.32,0.39,
3.234,-0.96,2.30,-5.67,2.04,2.32,0.39,
3.234,-0.96,2.30,-5.67,2.04,2.32,0.43,
3.234,-0.96,2.30,-5.67,2.04,2.31,0.48,
3.237,-0.96,2.30,-5.67,2.03,2.29,0.55,
3.238,-0.96,2.30,-5.67,2.03,2.28,0.57,
3.242,-0.96,2.30,-5.67,2.04,2.26,0.62,
3.244,-1.16,3.06,-5.05,2.04,2.26,0.62,
3.244,-1.16,3.06,-5.05,2.04,2.25,0.66,
3.245,-1.16,3.06,-5.05,2.04,2.23,0.71,
3.249,-1.16,3.06,-5.05,2.04,2.20,0.77,
3.256,-1.16,3.06,-5.05,2.03,2.19,0.79,
3.257,-1.16,3.06,-5.05,2.03,2.17,0.84,
3.257,-1.31,3.38,-4.81,2.03,2.17,0.84,
3.257,-1.31,3.38,-4.81,2.02,2.14,0.88,
3.257,-1.31,3.38,-4.81,2.01,2.11,0.92,
3.257,-1.31,3.38,-4.81,1.98,2.08,0.98,
3.26,-1.31,3.38,-4.81,1.97,2.07,1.00,
3.261,-1.31,3.38,-4.81,1.95,2.04,1.04,
3.267,-1.21,3.56,-4.70,1.95,2.04,1.04,
3.268,-1.21,3.56,-4.70,1.92,2.02,1.07,
3.268,-1.21,3.56,-4.70,1.88,2.00,1.10,
3.268,-1.21,3.56,-4.70,1.82,1.97,1.14,
3.268,-1.21,3.56,-4.70,1.80,1.96,1.15,
3.274,-1.21,3.56,-4.70,1.73,1.93,1.18,
3.274,-1.00,3.57,-4.77,1.73,1.93,1.18,
3.274,-1.00,3.57,-4.77,1.70,1.92,1.19,
3.29,-1.00,3.57,-4.77,1.64,1.89,1.20,
3.29,-1.00,3.57,-4.77,1.55,1.83,1.21,
3.29,-1.00,3.57,-4.77,1.52,1.81,1.21,
3.291,-1.00,3.57,-4.77,1.45,1.77,1.20,
3.291,-0.32,3.45,-4.66,1.45,1.77,1.20,
3.291,-0.32,3.45,-4.66,1.38,1.71,1.19,
3.291,-0.32,3.45,-4.66,1.30,1.65,1.18,
3.291,-0.32,3.45,-4.66,1.19,1.54,1.14,
3.292,-0.32,3.45,-4.66,1.15,1.50,1.13,
3.292,-0.32,3.45,-4.66,1.07,1.42,1.09,
3.292,0.61,3.30,-4.53,1.07,1.42,1.09,
3.294,0.61,3.30,-4.53,0.99,1.33,1.05,
3.302,0.61,3.30,-4.53,0.90,1.23,1.00,
3.302,0.61,3.30,-4.53,0.77,1.08,0.92,
3.302,0.61,3.30,-4.53,0.72,1.02,0.90,
3.303,0.61,3.30,-4.53,0.62,0.91,0.83,
3.305,1.69,3.32,-4.58,0.62,0.91,0.83,
3.306,1.69,3.32,-4.58,0.52,0.80,0.76,
3.306,1.69,3.32,-4.58,0.42,0.69,0.69,
3.309,1.69,3.32,-4.58,0.27,0.52,0.57,
3.309,1.69,3.32,-4.58,0.22,0.47,0.53,
3.31,1.69,3.32,-4.58,0.12,0.37,0.45,
3.326,2.74,3.35,-5.09,0.12,0.37,0.45,
3.327,2.74,3.35,-5.09,0.01,0.27,0.36,
3.327,2.74,3.35,-5.09,-0.08,0.18,0.27,
3.327,2.74,3.35,-5.09,-0.22,0.06,0.13,
3.327,2.74,3.35,-5.09,-0.27,0.02,0.08,
3.327,2.74,3.35,-5.09,-0.35,-0.04,-0.01,
3.327,3.47,3.52,-5.18,-0.35,-0.04,-0.01,
3.328,3.47,3.52,-5.18,-0.44,-0.10,-0.10,
3.328,3.47,3.52,-5.18,-0.52,-0.14,-0.18,
3.328,3.47,3.52,-5.18,-0.62,-0.19,-0.28,
3.33,3.47,3.52,-5.18,-0.66,-0.21,-0.31,
3.33,3.47,3.52,-5.18,-0.72,-0.23,-0.37,
3.333,3.48,3.43,-5.18,-0.72,-0.23,-0.37,
3.333,3.48,3.43,-5.18,-0.78,-0.25,-0.42,
3.334,3.48,3.43,-5.18,-0.84,-0.27,-0.47,
3.337,3.48,3.43,-5.18,-0.93,-0.29,-0.52,
3.338,3.48,3.43,-5.18,-0.95,-0.30,-0.54,
3.343,3.48,3.43,-5.18,-1.01,-0.32,-0.57,
3.343,3.05,3.67,-5.05,-1.01,-0.32,-0.57,
3.343,3.05,3.67,-5.05,-1.06,-0.34,-0.60,
3.344,3.05,3.67,-5.05,-1.11,-0.37,-0.62,
3.347,3.05,3.67,-5.05,-1.18,-0.41,-0.65,
3.348,3.05,3.67,-5.05,-1.20,-0.43,-0.66,
3.35,3.05,3.67,-5.05,-1.25,-0.47,-0.68,
3.352,2.80,3.88,-5.23,-1.25,-0.47,-0.68,
3.352,2.80,3.88,-5.23,-1.29,-0.50,-0.69,
3.354,2.80,3.88,-5.23,-1.33,-0.54,-0.70,
3.358,2.80,3.88,-5.23,-1.40,-0.61,-0.72,
3.358,2.80,3.88,-5.23,-1.42,-0.64,-0.73,
3.361,2.80,3.88,-5.23,-1.46,-0.69,-0.73,
3.362,2.44,4.26,-5.01,-1.46,-0.69,-0.73,
3.363,2.44,4.26,-5.01,-1.49,-0.74,-0.74,
3.364,2.44,4.26,-5.01,-1.53,-0.80,-0.74,
3.367,2.44,4.26,-5.01,-1.58,-0.90,-0.75,
3.368,2.44,4.26,-5.01,-1.60,-0.93,-0.75,
3.37,2.44,4.26,-5.01,-1.63,-0.99,-0.76,
3.372,2.25,4.45,-4.79,-1.63,-0.99,-0.76,
3.372,2.25,4.45,-4.79,-1.66,-1.05,-0.77,
3.375,2.25,4.45,-4.79,-1.69,-1.11,-0.78,
3.377,2.25,4.45,-4.79,-1.72,-1.20,-0.80,
3.378,2.25,4.45,-4.79,-1.73,-1.22,-0.81,
3.38,2.25,4.45,-4.79,-1.76,-1.28,-0.83,
3.382,2.56,4.54,-4.14,-1.76,-1.28,-0.83,
3.382,2.56,4.54,-4.14,-1.78,-1.34,-0.86,
3.384,2.56,4.54,-4.14,-1.80,-1.39,-0.89,
3.387,2.56,4.54,-4.14,-1.82,-1.47,-0.94,
3.388,2.56,4.54,-4.14,-1.83,-1.50,-0.96,
3.39,2.56,4.54,-4.14,-1.84,-1.55,-1.00,
3.392,3.28,4.33,-3.52,-1.84,-1.55,-1.00,
3.392,3.28,4.33,-3.52,-1.86,-1.60,-1.04,
3.402,3.28,4.33,-3.52,-1.87,-1.66,-1.09,
3.403,3.28,4.33,-3.52,-1.89,-1.73,-1.17,
3.404,3.28,4.33,-3.52,-1.90,-1.76,-1.20,
3.404,3.28,4.33,-3.52,-1.91,-1.80,-1.26,
3.404,3.81,4.05,-2.79,-1.91,-1.80,-1.26,
3.404,3.81,4.05,-2.79,-1.92,-1.85,-1.32,
3.407,3.81,4.05,-2.79,-1.93,-1.89,-1.39,
3.407,3.81,4.05,-2.79,-1.94,-1.95,-1.49,
3.408,3.81,4.05,-2.79,-1.95,-1.96,-1.52,
3.429,3.81,4.05,-2.79,-1.95,-1.99,-1.60,
3.43,4.54,3.59,-1.98,-1.95,-1.99,-1.60,
3.43,4.54,3.59,-1.98,-1.96,-2.01,-1.67,
3.43,4.54,3.59,-1.98,-1.96,-2.03,-1.75,
3.43,4.54,3.59,-1.98,-1.96,-2.04,-1.86,
3.43,4.54,3.59,-1.98,-1.96,-2.04,-1.90,
3.43,4.54,3.59,-1.98,-1.95,-2.03,-1.98,
3.43,4.76,3.07,-0.76,-1.95,-2.03,-1.98,
3.431,4.76,3.07,-0.76,-1.94,-2.02,-2.06,
3.431,4.76,3.07,-0.76,-1.92,-1.98,-2.14,
3.431,4.76,3.07,-0.76,-1.90,-1.87,-2.25,
3.431,4.76,3.07,-0.76,-1.89,-1.83,-2.29,
3.431,4.76,3.07,-0.76,-1.89,-1.73,-2.36,
3.433,5.38,2.70,1.52,-1.89,-1.73,-2.36,
3.434,5.38,2.70,1.52,-1.89,-1.62,-2.43,
3.434,5.38,2.70,1.52,-1.90,-1.51,-2.49,
3.437,5.38,2.70,1.52,-1.92,-1.32,-2.57,
3.438,5.38,2.70,1.52,-1.93,-1.26,-2.59,
3.44,5.38,2.70,1.52,-1.96,-1.14,-2.63,
3.465,5.12,2.62,2.84,-1.96,-1.14,-2.63,
3.465,5.12,2.62,2.84,-1.99,-1.02,-2.66,
3.466,5.12,2.62,2.84,-2.04,-0.90,-2.68,
3.466,5.12,2.62,2.84,-2.10,-0.75,-2.71,
3.467,5.12,2.62,2.84,-2.12,-0.70,-2.71,
3.467,4.08,2.61,4.20,-2.12,-0.70,-2.71,
3.467,4.08,2.61,4.20,-2.16,-0.47,-2.70,
3.468,4.08,2.61,4.20,-2.16,-0.47,-2.70,
3.468,4.08,2.61,4.20,-2.16,-0.47,-2.70,
3.469,4.08,2.61,4.20,-2.14,-0.37,-2.68,
3.469,4.08,2.61,4.20,-2.11,-0.30,-2.65,
3.47,4.08,2.61,4.20,-2.09,-0.27,-2.64,
3.47,2.71,2.34,5.33,-2.09,-0.27,-2.64,
3.47,2.71,2.34,5.33,-2.05,-0.22,-2.59,
3.471,2.71,2.34,5.33,-1.99,-0.16,-2.55,
3.471,2.71,2.34,5.33,-1.89,-0.09,-2.46,
3.472,2.71,2.34,5.33,-1.86,-0.06,-2.42,
3.472,2.71,2.34,5.33,-1.79,-0.02,-2.35,
3.472,0.52,1.83,6.16,-1.79,-0.02,-2.35,
3.473,0.52,1.83,6.16,-1.72,0.02,-2.27,
3.481,0.52,1.83,6.16,-1.64,0.06,-2.18,
3.481,0.52,1.83,6.16,-1.53,0.12,-2.03,
3.482,0.52,1.83,6.16,-1.49,0.14,-1.98,
3.482,0.52,1.83,6.16,-1.41,0.17,-1.88,
3.483,-1.53,0.99,5.28,-1.41,0.17,-1.88,
3.483,-1.53,0.99,5.28,-1.34,0.20,-1.77,
3.484,-1.53,0.99,5.28,-1.28,0.23,-1.66,
3.487,-1.53,0.99,5.28,-1.18,0.26,-1.51,
3.488,-1.53,0.99,5.28,-1.15,0.27,-1.46,
3.49,-1.53,0.99,5.28,-1.09,0.28,-1.37,
3.492,-2.80,0.23,3.84,-1.09,0.28,-1.37,
3.493,-2.80,0.23,3.84,-1.05,0.29,-1.28,
3.494,-2.80,0.23,3.84,-1.00,0.30,-1.20,
3.497,-2.80,0.23,3.84,-0.94,0.30,-1.11,
3.498,-2.80,0.23,3.84,-0.92,0.31,-1.08,
3.5,-2.80,0.23,3.84,-0.89,0.31,-1.02,
3.502,-2.82,-0.05,2.34,-0.89,0.31,-1.02,
3.503,-2.82,-0.05,2.34,-0.86,0.31,-0.97,
3.504,-2.82,-0.05,2.34,-0.83,0.31,-0.93,
3.507,-2.82,-0.05,2.34,-0.79,0.32,-0.87,
3.508,-2.82,-0.05,2.34,-0.78,0.32,-0.85,
3.511,-2.82,-0.05,2.34,-0.76,0.32,-0.81,
3.512,-2.79,0.21,1.40,-0.76,0.32,-0.81,
3.513,-2.79,0.21,1.40,-0.75,0.33,-0.77,
3.515,-2.79,0.21,1.40,-0.74,0.34,-0.75,
3.517,-2.79,0.21,1.40,-0.73,0.35,-0.70,
3.518,-2.79,0.21,1.40,-0.72,0.36,-0.69,
3.52,-2.79,0.21,1.40,-0.72,0.37,-0.66,
3.522,-2.62,0.66,0.62,-0.72,0.37,-0.66,
3.523,-2.62,0.66,0.62,-0.72,0.38,-0.64,
3.524,-2.62,0.66,0.62,-0.73,0.40,-0.63,
3.532,-2.62,0.66,0.62,-0.74,0.43,-0.60,
3.533,-2.62,0.66,0.62,-0.75,0.44,-0.59,
3.533,-2.62,0.66,0.62,-0.77,0.46,-0.58,
3.533,-2.57,1.17,-0.08,-0.77,0.46,-0.58,
3.534,-2.57,1.17,-0.08,-0.80,0.49,-0.57,
3.534,-2.57,1.17,-0.08,-0.82,0.51,-0.56,
3.537,-2.57,1.17,-0.08,-0.87,0.54,-0.54,
3.538,-2.57,1.17,-0.08,-0.88,0.55,-0.53,
3.542,-2.57,1.17,-0.08,-0.91,0.57,-0.52,
3.588,-2.62,1.31,-0.70,-0.91,0.57,-0.52,
3.588,-2.62,1.31,-0.70,-0.95,0.59,-0.50,
3.588,-2.62,1.31,-0.70,-0.99,0.60,-0.49,
3.589,-2.62,1.31,-0.70,-1.05,0.61,-0.46,
3.589,-2.62,1.31,-0.70,-1.07,0.61,-0.45,
3.589,-2.62,1.31,-0.70,-1.12,0.61,-0.43,
3.589,-3.00,0.99,-1.34,-1.12,0.61,-0.43,
3.589,-3.00,0.99,-1.34,-1.16,0.60,-0.41,
3.589,-3.00,0.99,-1.34,-1.21,0.60,-0.39,
3.59,-3.00,0.99,-1.34,-1.28,0.58,-0.36,
3.59,-3.00,0.99,-1.34,-1.30,0.57,-0.35,
3.59,-3.00,0.99,-1.34,-1.35,0.55,-0.32,
3.59,-3.23,0.48,-1.66,-1.35,0.55,-0.32,
3.59,-3.23,0.48,-1.66,-1.40,0.53,-0.29,
3.591,-3.23,0.48,-1.66,-1.44,0.51,-0.27,
3.591,-3.23,0.48,-1.66,-1.50,0.48,-0.22,
3.591,-3.23,0.48,-1.66,-1.52,0.47,-0.21,
3.591,-3.23,0.48,-1.66,-1.56,0.45,-0.18,
3.591,-3.72,-0.14,-1.55,-1.56,0.45,-0.18,
3.591,-3.72,-0.14,-1.55,-1.59,0.43,-0.15,
3.592,-3.72,-0.14,-1.55,-1.62,0.42,-0.11,
3.592,-3.72,-0.14,-1.55,-1.64,0.43,-0.05,
3.592,-3.72,-0.14,-1.55,-1.64,0.44,-0.03,
3.592,-3.72,-0.14,-1.55,-1.64,0.46,0.01,
3.592,-4.39,-0.67,-0.43,-1.64,0.46,0.01,
3.593,-4.39,-0.67,-0.43,-1.63,0.51,0.06,
3.593,-4.39,-0.67,-0.43,-1.60,0.57,0.11,
3.593,-4.39,-0.67,-0.43,-1.55,0.69,0.18,
3.593,-4.39,-0.67,-0.43,-1.52,0.73,0.21,
3.594,-4.39,-0.67,-0.43,-1.47,0.84,0.27,
3.594,-5.55,-1.08,1.64,-1.47,0.84,0.27,
3.594,-5.55,-1.08,1.64,-1.40,0.94,0.32,
3.594,-5.55,-1.08,1.64,-1.34,1.06,0.38,
3.598,-5.55,-1.08,1.64,-1.23,1.24,0.46,
3.599,-5.55,-1.08,1.64,-1.19,1.30,0.49,
3.6,-5.55,-1.08,1.64,-1.12,1.42,0.54,
3.602,-5.93,-1.44,2.94,-1.12,1.42,0.54,
3.602,-5.93,-1.44,2.94,-1.05,1.54,0.58,
3.604,-5.93,-1.44,2.94,-0.97,1.65,0.63,
3.61,-5.93,-1.44,2.94,-0.87,1.82,0.68,
3.637,-5.93,-1.44,2.94,-0.83,1.87,0.69,
3.638,-5.93,-1.44,2.94,-0.77,1.98,0.72,
3.638,-5.78,-1.75,3.50,-0.77,1.98,0.72,
3.639,-5.78,-1.75,3.50,-0.72,2.08,0.74,
3.639,-5.78,-1.75,3.50,-0.67,2.19,0.75,
3.64,-5.78,-1.75,3.50,-0.61,2.34,0.75,
3.64,-5.78,-1.75,3.50,-0.60,2.39,0.75,
3.641,-5.78,-1.75,3.50,-0.59,2.53,0.74,
3.641,-5.14,-1.97,3.30,-0.59,2.53,0.74,
3.642,-5.14,-1.97,3.30,-0.59,2.58,0.73,
3.642,-5.14,-1.97,3.30,-0.60,2.66,0.71,
3.642,-5.14,-1.97,3.30,-0.63,2.76,0.66,
3.643,-5.14,-1.97,3.30,-0.65,2.82,0.63,
3.643,-5.14,-1.97,3.30,-0.67,2.84,0.61,
3.644,-4.78,-1.99,3.11,-0.67,2.84,0.61,
3.644,-4.78,-1.99,3.11,-0.69,2.89,0.57,
3.644,-4.78,-1.99,3.11,-0.72,2.92,0.53,
3.645,-4.78,-1.99,3.11,-0.78,2.95,0.47,
3.645,-4.78,-1.99,3.11,-0.81,2.96,0.44,
3.646,-4.78,-1.99,3.11,-0.83,2.96,0.43,
3.646,-4.96,-2.38,3.38,-0.83,2.96,0.43,
3.646,-4.96,-2.38,3.38,-0.87,2.95,0.40,
3.647,-4.96,-2.38,3.38,-0.91,2.92,0.38,
3.652,-4.96,-2.38,3.38,-0.97,2.87,0.36,
3.652,-4.96,-2.38,3.38,-0.99,2.85,0.35,
3.653,-4.96,-2.38,3.38,-1.04,2.79,0.34,
3.653,-5.85,-3.74,3.29,-1.04,2.79,0.34,
3.653,-5.85,-3.74,3.29,-1.10,2.74,0.34,
3.658,-5.85,-3.74,3.29,-1.16,2.67,0.34,
3.659,-5.85,-3.74,3.29,-1.26,2.58,0.34,
3.659,-5.85,-3.74,3.29,-1.29,2.54,0.34,
3.66,-5.85,-3.74,3.29,-1.35,2.47,0.34,
3.663,-5.89,-5.58,2.69,-1.35,2.47,0.34,
3.663,-5.89,-5.58,2.69,-1.40,2.40,0.34,
3.665,-5.89,-5.58,2.69,-1.44,2.33,0.34,
3.669,-5.89,-5.58,2.69,-1.46,2.23,0.34,
3.669,-5.89,-5.58,2.69,-1.46,2.20,0.33,
3.67,-5.89,-5.58,2.69,-1.44,2.14,0.33,
3.675,-4.96,-6.31,3.86,-1.44,2.14,0.33,
3.675,-4.96,-6.31,3.86,-1.38,2.09,0.33,
3.675,-4.96,-6.31,3.86,-1.29,2.04,0.34,
3.684,-4.96,-6.31,3.86,-1.10,1.99,0.35,
3.685,-4.96,-6.31,3.86,-0.94,1.97,0.37,
3.685,-4.96,-6.31,3.86,-0.85,1.97,0.38,
3.689,-3.64,-5.42,7.18,-0.85,1.97,0.38,
3.691,-3.64,-5.42,7.18,-0.66,1.97,0.39,
3.691,-3.64,-5.42,7.18,-0.47,1.98,0.39,
3.711,-3.64,-5.42,7.18,-0.18,2.00,0.39,
3.712,-3.64,-5.42,7.18,-0.08,2.00,0.39,
3.712,-3.64,-5.42,7.18,0.09,1.95,0.37,
3.712,-1.03,-4.78,9.26,0.09,1.95,0.37,
3.712,-1.03,-4.78,9.26,0.23,1.83,0.35,
3.713,-1.03,-4.78,9.26,0.34,1.62,0.33,
3.713,-1.03,-4.78,9.26,0.42,1.13,0.29,
3.713,-1.03,-4.78,9.26,0.43,0.91,0.28,
3.713,-1.03,-4.78,9.26,0.42,0.42,0.26,
3.714,2.19,-4.29,5.23,0.42,0.42,0.26,
3.714,2.19,-4.29,5.23,0.36,-0.15,0.24,
3.714,2.19,-4.29,5.23,0.28,-0.77,0.23,
3.714,2.19,-4.29,5.23,0.15,-1.73,0.24,
3.714,2.19,-4.29,5.23,0.11,-2.04,0.25,
3.715,2.19,-4.29,5.23,0.05,-2.61,0.26,
3.715,3.24,-2.77,-0.21,0.05,-2.61,0.26,
3.715,3.24,-2.77,-0.21,0.03,-3.13,0.27,
3.715,3.24,-2.77,-0.21,0.02,-3.57,0.27,
3.717,3.24,-2.77,-0.21,0.05,-4.10,0.25,
3.718,3.24,-2.77,-0.21,0.07,-4.25,0.24,
3.72,3.24,-2.77,-0.21,0.10,-4.50,0.20,
3.724,3.84,-1.31,-1.63,0.10,-4.50,0.20,
3.724,3.84,-1.31,-1.63,0.14,-4.71,0.16,
3.724,3.84,-1.31,-1.63,0.18,-4.90,0.09,
3.727,3.84,-1.31,-1.63,0.25,-5.14,-0.03,
3.728,3.84,-1.31,-1.63,0.27,-5.21,-0.08,
3.73,3.84,-1.31,-1.63,0.32,-5.34,-0.18,
3.732,6.07,-1.03,-1.46,0.32,-5.34,-0.18,
3.733,6.07,-1.03,-1.46,0.36,-5.45,-0.29,
3.736,6.07,-1.03,-1.46,0.40,-5.55,-0.40,
3.737,6.07,-1.03,-1.46,0.45,-5.64,-0.57,
3.738,6.07,-1.03,-1.46,0.48,-5.68,-0.69,
3.74,6.07,-1.03,-1.46,0.49,-5.70,-0.75,
3.743,6.99,-2.01,-1.30,0.49,-5.70,-0.75,
3.743,6.99,-2.01,-1.30,0.51,-5.71,-0.87,
3.745,6.99,-2.01,-1.30,0.52,-5.70,-1.00,
3.747,6.99,-2.01,-1.30,0.54,-5.65,-1.19,
3.749,6.99,-2.01,-1.30,0.55,-5.63,-1.25,
3.75,6.99,-2.01,-1.30,0.55,-5.57,-1.38,
3.752,7.28,-4.58,-1.80,0.55,-5.57,-1.38,
3.752,7.28,-4.58,-1.80,0.55,-5.50,-1.50,
3.754,7.28,-4.58,-1.80,0.55,-5.41,-1.62,
3.757,7.28,-4.58,-1.80,0.54,-5.25,-1.81,
3.759,7.28,-4.58,-1.80,0.52,-5.12,-1.93,
3.76,7.28,-4.58,-1.80,0.51,-5.05,-1.99,
3.763,7.05,-7.86,-2.50,0.51,-5.05,-1.99,
3.763,7.05,-7.86,-2.50,0.49,-4.93,-2.10,
3.764,7.05,-7.86,-2.50,0.46,-4.79,-2.22,
3.767,7.05,-7.86,-2.50,0.41,-4.57,-2.38,
3.768,7.05,-7.86,-2.50,0.39,-4.50,-2.44,
3.77,7.05,-7.86,-2.50,0.36,-4.34,-2.54,
3.772,7.19,-10.95,-3.03,0.36,-4.34,-2.54,
3.772,7.19,-10.95,-3.03,0.33,-4.19,-2.64,
3.791,7.19,-10.95,-3.03,0.29,-4.03,-2.74,
3.791,7.19,-10.95,-3.03,0.23,-3.78,-2.87,
3.792,7.19,-10.95,-3.03,0.19,-3.59,-2.95,
3.792,7.19,-10.95,-3.03,0.16,-3.50,-2.98,
3.792,7.25,-12.24,-2.92,0.16,-3.50,-2.98,
3.793,7.25,-12.24,-2.92,0.10,-3.31,-3.04,
3.793,7.25,-12.24,-2.92,0.04,-3.12,-3.08,
3.793,7.25,-12.24,-2.92,-0.06,-2.83,-3.12,
3.794,7.25,-12.24,-2.92,-0.09,-2.73,-3.12,
3.794,7.25,-12.24,-2.92,-0.16,-2.55,-3.12,
3.794,6.30,-10.85,-2.73,-0.16,-2.55,-3.12,
3.795,6.30,-10.85,-2.73,-0.23,-2.36,-3.10,
3.795,6.30,-10.85,-2.73,-0.30,-2.19,-3.07,
3.802,6.30,-10.85,-2.73,-0.40,-1.96,-2.99,
3.802,6.30,-10.85,-2.73,-0.44,-1.89,-2.96,
3.802,6.30,-10.85,-2.73,-0.50,-1.76,-2.88,
3.803,4.14,-7.92,-2.50,-0.50,-1.76,-2.88,
3.803,4.14,-7.92,-2.50,-0.56,-1.64,-2.79,
3.805,4.14,-7.92,-2.50,-0.61,-1.53,-2.68,
3.807,4.14,-7.92,-2.50,-0.69,-1.39,-2.51,
3.81,4.14,-7.92,-2.50,-0.71,-1.35,-2.44,
3.81,4.14,-7.92,-2.50,-0.75,-1.26,-2.31,
3.812,1.69,-4.85,-2.54,-0.75,-1.26,-2.31,
3.812,1.69,-4.85,-2.54,-0.79,-1.18,-2.16,
3.818,1.69,-4.85,-2.54,-0.83,-1.11,-2.01,
3.819,1.69,-4.85,-2.54,-0.88,-0.99,-1.79,
3.819,1.69,-4.85,-2.54,-0.89,-0.95,-1.71,
3.82,1.69,-4.85,-2.54,-0.92,-0.86,-1.56,
3.823,-0.12,-2.05,-2.78,-0.92,-0.86,-1.56,
3.823,-0.12,-2.05,-2.78,-0.95,-0.78,-1.41,
3.83,-0.12,-2.05,-2.78,-0.97,-0.70,-1.27,
3.83,-0.12,-2.05,-2.78,-1.01,-0.57,-1.06,
3.83,-0.12,-2.05,-2.78,-1.03,-0.50,-0.93,
3.831,-0.12,-2.05,-2.78,-1.04,-0.47,-0.87,
3.833,-0.94,0.47,-3.17,-1.04,-0.47,-0.87,
3.833,-0.94,0.47,-3.17,-1.07,-0.41,-0.75,
3.834,-0.94,0.47,-3.17,-1.09,-0.35,-0.65,
3.837,-0.94,0.47,-3.17,-1.12,-0.28,-0.50,
3.838,-0.94,0.47,-3.17,-1.13,-0.26,-0.45,
3.84,-0.94,0.47,-3.17,-1.16,-0.23,-0.37,
3.873,-1.12,2.16,-3.24,-1.16,-0.23,-0.37,
3.873,-1.12,2.16,-3.24,-1.18,-0.20,-0.29,
3.874,-1.12,2.16,-3.24,-1.21,-0.18,-0.22,
3.874,-1.12,2.16,-3.24,-1.23,-0.16,-0.13,
3.874,-1.12,2.16,-3.24,-1.24,-0.16,-0.11,
3.874,-1.12,2.16,-3.24,-1.25,-0.16,-0.06,
3.874,-1.10,3.04,-2.73,-1.25,-0.16,-0.06,
3.874,-1.10,3.04,-2.73,-1.25,-0.16,-0.02,
3.874,-1.10,3.04,-2.73,-1.25,-0.16,0.01,
3.875,-1.10,3.04,-2.73,-1.25,-0.17,0.05,
3.875,-1.10,3.04,-2.73,-1.24,-0.18,0.06,
3.875,-1.10,3.04,-2.73,-1.23,-0.19,0.08,
3.875,-0.93,3.49,-1.54,-1.23,-0.19,0.08,
3.875,-0.93,3.49,-1.54,-1.23,-0.19,0.10,
3.875,-0.93,3.49,-1.54,-1.22,-0.19,0.12,
3.875,-0.93,3.49,-1.54,-1.21,-0.17,0.15,
3.876,-0.93,3.49,-1.54,-1.21,-0.16,0.16,
3.876,-0.93,3.49,-1.54,-1.21,-0.13,0.19,
3.876,-1.81,3.62,-0.68,-1.21,-0.13,0.19,
3.876,-1.81,3.62,-0.68,-1.20,-0.09,0.23,
3.876,-1.81,3.62,-0.68,-1.20,-0.02,0.27,
3.877,-1.81,3.62,-0.68,-1.20,0.10,0.34,
3.879,-1.81,3.62,-0.68,-1.19,0.22,0.39,
3.881,-1.81,3.62,-0.68,-1.19,0.29,0.42,
3.882,-3.35,3.40,0.50,-1.19,0.29,0.42,
3.882,-3.35,3.40,0.50,-1.17,0.44,0.49,
3.884,-3.35,3.40,0.50,-1.15,0.62,0.56,
3.887,-3.35,3.40,0.50,-1.10,0.91,0.67,
3.888,-3.35,3.40,0.50,-1.05,1.12,0.75,
3.89,-3.35,3.40,0.50,-1.02,1.23,0.80,
3.892,-5.20,3.03,2.31,-1.02,1.23,0.80,
3.893,-5.20,3.03,2.31,-0.97,1.45,0.89,
3.894,-5.20,3.03,2.31,-0.90,1.67,0.97,
3.897,-5.20,3.03,2.31,-0.79,1.98,1.11,
3.898,-5.20,3.03,2.31,-0.72,2.18,1.20,
3.9,-5.20,3.03,2.31,-0.68,2.27,1.24,
3.902,-5.62,2.66,3.19,-0.68,2.27,1.24,
3.902,-5.62,2.66,3.19,-0.61,2.44,1.33,
3.904,-5.62,2.66,3.19,-0.53,2.60,1.41,
3.908,-5.62,2.66,3.19,-0.42,2.81,1.53,
3.91,-5.62,2.66,3.19,-0.34,2.95,1.61,
3.912,-5.62,2.66,3.19,-0.31,3.01,1.64,
3.914,-5.24,2.18,3.31,-0.31,3.01,1.64,
3.914,-5.24,2.18,3.31,-0.24,3.13,1.71,
3.915,-5.24,2.18,3.31,-0.17,3.25,1.77,
3.917,-5.24,2.18,3.31,-0.07,3.43,1.84,
3.918,-5.24,2.18,3.31,-0.01,3.55,1.88,
3.92,-5.24,2.18,3.31,0.03,3.62,1.90,
3.923,-4.06,1.83,3.41,0.03,3.62,1.90,
3.923,-4.06,1.83,3.41,0.09,3.76,1.93,
3.925,-4.06,1.83,3.41,0.16,3.91,1.94,
3.928,-4.06,1.83,3.41,0.26,4.18,1.93,
3.929,-4.06,1.83,3.41,0.32,4.38,1.91,
3.931,-4.06,1.83,3.41,0.36,4.49,1.90,
3.932,-2.19,1.86,4.94,0.36,4.49,1.90,
3.933,-2.19,1.86,4.94,0.43,4.71,1.86,
3.936,-2.19,1.86,4.94,0.49,4.94,1.80,
3.937,-2.19,1.86,4.94,0.59,5.29,1.70,
3.938,-2.19,1.86,4.94,0.64,5.51,1.63,
3.943,-2.19,1.86,4.94,0.67,5.62,1.59,
3.968,-0.41,2.38,6.87,0.67,5.62,1.59,
3.968,-0.41,2.38,6.87,0.71,5.80,1.50,
3.969,-0.41,2.38,6.87,0.74,5.96,1.41,
3.969,-0.41,2.38,6.87,0.74,6.10,1.25,
3.969,-0.41,2.38,6.87,0.73,6.13,1.14,
3.969,-0.41,2.38,6.87,0.71,6.12,1.09,
3.969,0.46,3.28,8.09,0.71,6.12,1.09,
3.97,0.46,3.28,8.09,0.68,6.05,0.98,
3.97,0.46,3.28,8.09,0.64,5.93,0.88,
3.97,0.46,3.28,8.09,0.58,5.61,0.73,
3.97,0.46,3.28,8.09,0.54,5.34,0.65,
3.971,0.46,3.28,8.09,0.52,5.18,0.61,
3.971,0.29,4.57,8.22,0.52,5.18,0.61,
3.971,0.29,4.57,8.22,0.49,4.84,0.54,
3.971,0.29,4.57,8.22,0.47,4.46,0.49,
3.972,0.29,4.57,8.22,0.44,3.84,0.43,
3.972,0.29,4.57,8.22,0.44,3.40,0.41,
3.975,0.29,4.57,8.22,0.44,2.95,0.40,
3.975,-0.79,5.65,7.95,0.44,2.95,0.40,
3.975,-0.79,5.65,7.95,0.44,2.72,0.39,
3.975,-0.79,5.65,7.95,0.45,2.26,0.39,
3.977,-0.79,5.65,7.95,0.47,1.58,0.40,
3.984,-0.79,5.65,7.95,0.48,1.14,0.41,
3.984,-0.79,5.65,7.95,0.49,0.92,0.42,
3.985,-1.35,5.81,5.99,0.49,0.92,0.42,
3.985,-1.35,5.81,5.99,0.51,0.50,0.43,
3.986,-1.35,5.81,5.99,0.52,0.09,0.44,
3.988,-1.35,5.81,5.99,0.52,-0.47,0.45,
3.988,-1.35,5.81,5.99,0.52,-0.82,0.45,
4.006,-1.35,5.81,5.99,0.52,-0.98,0.45,
4.006,-1.08,5.56,3.00,0.52,-0.98,0.45,
4.008,-1.08,5.56,3.00,0.51,-1.29,0.45,
4.008,-1.08,5.56,3.00,0.49,-1.58,0.45,
4.008,-1.08,5.56,3.00,0.46,-1.98,0.44,
4.008,-1.08,5.56,3.00,0.45,-2.23,0.44,
4.008,-1.08,5.56,3.00,0.43,-2.35,0.44,
4.008,-0.54,5.25,-0.17,0.43,-2.35,0.44,
4.008,-0.54,5.25,-0.17,0.41,-2.58,0.43,
4.009,-0.54,5.25,-0.17,0.39,-2.80,0.43,
4.009,-0.54,5.25,-0.17,0.37,-3.10,0.42,
4.011,-0.54,5.25,-0.17,0.35,-3.29,0.42,
4.011,-0.54,5.25,-0.17,0.35,-3.38,0.42,
4.012,-0.16,5.25,-2.04,0.35,-3.38,0.42,
4.013,-0.16,5.25,-2.04,0.34,-3.55,0.42,
4.014,-0.16,5.25,-2.04,0.33,-3.69,0.42,
4.017,-0.16,5.25,-2.04,0.33,-3.88,0.43,
4.018,-0.16,5.25,-2.04,0.33,-3.98,0.43,
4.02,-0.16,5.25,-2.04,0.33,-4.02,0.44,
4.022,0.01,5.09,-2.66,0.33,-4.02,0.44,
4.022,0.01,5.09,-2.66,0.34,-4.09,0.44,
4.024,0.01,5.09,-2.66,0.34,-4.15,0.45,
4.027,0.01,5.09,-2.66,0.36,-4.17,0.46,
4.028,0.01,5.09,-2.66,0.37,-4.16,0.47,
4.03,0.01,5.09,-2.66,0.38,-4.14,0.47,
4.032,0.22,4.13,-2.19,0.38,-4.14,0.47,
4.032,0.22,4.13,-2.19,0.40,-4.06,0.47,
4.034,0.22,4.13,-2.19,0.46,-3.91,0.47,
4.037,0.22,4.13,-2.19,0.71,-3.43,0.43,
4.038,0.22,4.13,-2.19,0.97,-2.98,0.39,
4.04,0.22,4.13,-2.19,1.11,-2.72,0.36,
4.042,2.47,1.17,7.03,1.11,-2.72,0.36,
4.042,2.47,1.17,7.03,1.42,-2.18,0.32,
4.044,2.47,1.17,7.03,1.72,-1.61,0.29,
4.047,2.47,1.17,7.03,2.13,-0.81,0.26,
4.048,2.47,1.17,7.03,2.34,-0.34,0.25,
4.05,2.47,1.17,7.03,2.42,-0.14,0.25,
4.052,3.06,-0.45,10.17,2.42,-0.14,0.25,
4.052,3.06,-0.45,10.17,2.54,0.23,0.26,
4.054,3.06,-0.45,10.17,2.59,0.53,0.29,
4.057,3.06,-0.45,10.17,2.56,0.88,0.34,
4.058,3.06,-0.45,10.17,2.48,1.05,0.38,
4.06,3.06,-0.45,10.17,2.42,1.12,0.40,
4.062,1.92,0.08,2.24,2.42,1.12,0.40,
4.062,1.92,0.08,2.24,2.29,1.23,0.45,
4.064,1.92,0.08,2.24,2.13,1.32,0.49,
4.067,1.92,0.08,2.24,1.86,1.41,0.55,
4.068,1.92,0.08,2.24,1.68,1.44,0.58,
4.071,1.92,0.08,2.24,1.59,1.46,0.60,
4.072,2.08,1.07,-2.88,1.59,1.46,0.60,
4.072,2.08,1.07,-2.88,1.41,1.46,0.61,
4.08,2.08,1.07,-2.88,1.24,1.46,0.62,
4.08,2.08,1.07,-2.88,1.02,1.42,0.62,
4.08,2.08,1.07,-2.88,0.90,1.38,0.61,
4.081,2.08,1.07,-2.88,0.84,1.35,0.60,
4.083,2.74,2.47,-3.95,0.84,1.35,0.60,
4.083,2.74,2.47,-3.95,0.74,1.28,0.57,
4.084,2.74,2.47,-3.95,0.66,1.20,0.55,
4.09,2.74,2.47,-3.95,0.57,1.06,0.50,
4.091,2.74,2.47,-3.95,0.52,0.95,0.46,
4.091,2.74,2.47,-3.95,0.50,0.90,0.45,
4.092,3.03,3.55,-4.06,0.50,0.90,0.45,
4.093,3.03,3.55,-4.06,0.47,0.80,0.41,
4.094,3.03,3.55,-4.06,0.44,0.70,0.39,
4.097,3.03,3.55,-4.06,0.41,0.56,0.34,
4.098,3.03,3.55,-4.06,0.39,0.48,0.32,
4.1,3.03,3.55,-4.06,0.38,0.44,0.31,
4.102,2.64,3.90,-4.20,0.38,0.44,0.31,
4.102,2.64,3.90,-4.20,0.37,0.37,0.28,
4.104,2.64,3.90,-4.20,0.35,0.31,0.26,
4.107,2.64,3.90,-4.20,0.33,0.23,0.23,
4.123,2.64,3.90,-4.20,0.31,0.19,0.21,
4.123,2.64,3.90,-4.20,0.30,0.17,0.20,
4.124,2.48,3.70,-4.21,0.30,0.17,0.20,
4.124,2.48,3.70,-4.21,0.29,0.15,0.18,
4.124,2.48,3.70,-4.21,0.28,0.14,0.16,
4.125,2.48,3.70,-4.21,0.26,0.16,0.14,
4.125,2.48,3.70,-4.21,0.26,0.20,0.12,
4.125,2.48,3.70,-4.21,0.27,0.23,0.12,
4.125,2.10,3.07,-2.35,0.27,0.23,0.12,
4.126,2.10,3.07,-2.35,0.31,0.41,0.10,
4.126,2.10,3.07,-2.35,0.38,0.60,0.10,
4.128,2.10,3.07,-2.35,0.51,0.98,0.11,
4.129,2.10,3.07,-2.35,0.56,1.13,0.11,
4.13,2.10,3.07,-2.35,0.66,1.45,0.13,
4.132,0.85,1.03,4.99,0.66,1.45,0.13,
4.132,0.85,1.03,4.99,0.75,1.79,0.15,
4.134,0.85,1.03,4.99,0.82,2.12,0.17,
4.138,0.85,1.03,4.99,0.87,2.43,0.20,
4.138,0.85,1.03,4.99,0.88,2.69,0.22,
4.141,0.85,1.03,4.99,0.86,2.91,0.25,
4.142,0.78,-0.89,5.75,0.86,2.91,0.25,
4.143,0.78,-0.89,5.75,0.82,3.06,0.27,
4.144,0.78,-0.89,5.75,0.76,3.16,0.29,
4.147,0.78,-0.89,5.75,0.68,3.21,0.31,
4.148,0.78,-0.89,5.75,0.59,3.20,0.33,
4.15,0.78,-0.89,5.75,0.50,3.15,0.33,
4.152,1.72,-0.87,1.17,0.50,3.15,0.33,
4.152,1.72,-0.87,1.17,0.41,3.07,0.34,
4.154,1.72,-0.87,1.17,0.32,2.96,0.34,
4.157,1.72,-0.87,1.17,0.20,2.76,0.34,
4.159,1.72,-0.87,1.17,0.17,2.69,0.34,
4.16,1.72,-0.87,1.17,0.11,2.55,0.33,
4.162,2.81,0.45,-1.57,0.11,2.55,0.33,
4.163,2.81,0.45,-1.57,0.06,2.40,0.31,
4.164,2.81,0.45,-1.57,0.02,2.25,0.30,
4.167,2.81,0.45,-1.57,-0.00,2.10,0.28,
4.168,2.81,0.45,-1.57,-0.02,1.96,0.26,
4.17,2.81,0.45,-1.57,-0.02,1.82,0.25,
4.173,3.31,1.67,-1.24,-0.02,1.82,0.25,
4.173,3.31,1.67,-1.24,-0.02,1.69,0.23,
4.175,3.31,1.67,-1.24,0.00,1.57,0.22,
4.178,3.31,1.67,-1.24,0.03,1.46,0.21,
4.179,3.31,1.67,-1.24,0.06,1.37,0.21,
4.18,3.31,1.67,-1.24,0.11,1.29,0.22,
4.182,1.99,1.65,0.81,0.11,1.29,0.22,
4.183,1.99,1.65,0.81,0.16,1.23,0.23,
4.184,1.99,1.65,0.81,0.22,1.19,0.24,
4.187,1.99,1.65,0.81,0.29,1.15,0.26,
4.188,1.99,1.65,0.81,0.36,1.13,0.28,
4.195,1.99,1.65,0.81,0.44,1.11,0.30,
4.195,0.14,0.87,3.30,0.44,1.11,0.30,
4.196,0.14,0.87,3.30,0.51,1.10,0.33,
4.2,0.14,0.87,3.30,0.59,1.08,0.36,
4.2,0.14,0.87,3.30,0.67,1.07,0.39,
4.2,0.14,0.87,3.30,0.74,1.06,0.41,
4.2,0.14,0.87,3.30,0.80,1.04,0.44,
4.202,-0.85,0.04,3.99,0.80,1.04,0.44,
4.203,-0.85,0.04,3.99,0.87,1.02,0.46,
4.204,-0.85,0.04,3.99,0.94,1.00,0.49,
4.209,-0.85,0.04,3.99,1.00,0.97,0.51,
4.209,-0.85,0.04,3.99,1.07,0.94,0.54,
4.213,-0.85,0.04,3.99,1.13,0.90,0.56,
4.216,-1.17,-1.05,4.25,1.13,0.90,0.56,
4.216,-1.17,-1.05,4.25,1.20,0.86,0.59,
4.217,-1.17,-1.05,4.25,1.27,0.82,0.61,
4.217,-1.17,-1.05,4.25,1.35,0.78,0.64,
4.222,-1.17,-1.05,4.25,1.43,0.74,0.67,
4.222,-1.17,-1.05,4.25,1.50,0.70,0.69,
4.223,-0.97,-2.82,4.54,1.50,0.70,0.69,
4.224,-0.97,-2.82,4.54,1.59,0.67,0.71,
4.228,-0.97,-2.82,4.54,1.68,0.64,0.73,
4.229,-0.97,-2.82,4.54,1.77,0.61,0.76,
4.229,-0.97,-2.82,4.54,1.87,0.59,0.78,
4.23,-0.97,-2.82,4.54,1.97,0.57,0.80,
4.234,-0.59,-5.03,5.34,1.97,0.57,0.80,
4.234,-0.59,-5.03,5.34,2.08,0.57,0.83,
4.234,-0.59,-5.03,5.34,2.19,0.58,0.85,
4.237,-0.59,-5.03,5.34,2.35,0.61,0.89,
4.238,-0.59,-5.03,5.34,2.41,0.63,0.91,
4.244,-0.59,-5.03,5.34,2.51,0.67,0.93,
4.244,-0.78,-7.47,6.34,2.51,0.67,0.93,
4.244,-0.78,-7.47,6.34,2.61,0.71,0.96,
4.245,-0.78,-7.47,6.34,2.70,0.76,0.98,
4.247,-0.78,-7.47,6.34,2.78,0.82,1.01,
4.25,-0.78,-7.47,6.34,2.85,0.87,1.03,
4.25,-0.78,-7.47,6.34,2.90,0.92,1.05,
4.252,-0.93,-9.74,6.08,2.90,0.92,1.05,
4.252,-0.93,-9.74,6.08,2.94,0.97,1.07,
4.254,-0.93,-9.74,6.08,2.97,1.01,1.08,
4.297,-0.93,-9.74,6.08,2.98,1.05,1.10,
4.297,-0.93,-9.74,6.08,2.98,1.07,1.11,
4.298,-0.93,-9.74,6.08,2.97,1.08,1.11,
4.298,-0.74,-11.77,4.26,2.97,1.08,1.11,
4.298,-0.74,-11.77,4.26,2.95,1.08,1.12,
4.299,-0.74,-11.77,4.26,2.92,1.07,1.12,
4.299,-0.74,-11.77,4.26,2.89,1.05,1.12,
4.299,-0.74,-11.77,4.26,2.84,1.02,1.11,
4.3,-0.74,-11.77,4.26,2.78,0.97,1.10,
4.3,-0.44,-13.67,1.70,2.78,0.97,1.10,
4.3,-0.44,-13.67,1.70,2.72,0.90,1.09,
4.325,-0.44,-13.67,1.70,2.66,0.83,1.08,
4.325,-0.44,-13.67,1.70,2.54,0.70,1.06,
4.325,-0.44,-13.67,1.70,2.50,0.66,1.06,
4.326,-0.44,-13.67,1.70,2.42,0.56,1.05,
4.326,-0.60,-15.65,-1.02,2.42,0.56,1.05,
4.327,-0.60,-15.65,-1.02,2.34,0.47,1.04,
4.327,-0.60,-15.65,-1.02,2.25,0.37,1.04,
4.328,-0.60,-15.65,-1.02,2.16,0.28,1.04,
4.328,-0.60,-15.65,-1.02,2.07,0.19,1.04,
4.329,-0.60,-15.65,-1.02,1.99,0.11,1.05,
4.329,-2.01,-17.40,-3.13,1.99,0.11,1.05,
4.33,-2.01,-17.40,-3.13,1.91,0.04,1.06,
4.33,-2.01,-17.40,-3.13,1.82,-0.01,1.08,
4.331,-2.01,-17.40,-3.13,1.74,-0.07,1.11,
4.331,-2.01,-17.40,-3.13,1.66,-0.11,1.14,
4.331,-2.01,-17.40,-3.13,1.59,-0.14,1.19,
4.332,-4.57,-17.22,-4.00,1.59,-0.14,1.19,
4.332,-4.57,-17.22,-4.00,1.52,-0.16,1.24,
4.333,-4.57,-17.22,-4.00,1.45,-0.17,1.31,
4.333,-4.57,-17.22,-4.00,1.39,-0.17,1.38,
4.334,-4.57,-17.22,-4.00,1.34,-0.16,1.46,
4.334,-4.57,-17.22,-4.00,1.29,-0.14,1.53,
4.334,-7.05,-14.24,-4.19,1.29,-0.14,1.53,
4.335,-7.05,-14.24,-4.19,1.26,-0.11,1.61,
4.335,-7.05,-14.24,-4.19,1.23,-0.06,1.67,
4.336,-7.05,-14.24,-4.19,1.21,-0.01,1.73,
4.336,-7.05,-14.24,-4.19,1.19,0.05,1.78,
4.337,-7.05,-14.24,-4.19,1.18,0.11,1.83,
4.337,-6.83,-9.04,-3.70,1.18,0.11,1.83,
4.338,-6.83,-9.04,-3.70,1.16,0.17,1.87,
4.338,-6.83,-9.04,-3.70,1.13,0.22,1.90,
4.338,-6.83,-9.04,-3.70,1.10,0.28,1.93,
4.339,-6.83,-9.04,-3.70,1.07,0.33,1.96,
4.339,-6.83,-9.04,-3.70,1.02,0.38,1.97,
4.34,-5.66,-4.34,-4.55,1.02,0.38,1.97,
4.34,-5.66,-4.34,-4.55,0.98,0.44,1.99,
4.34,-5.66,-4.34,-4.55,0.92,0.49,2.00,
4.341,-5.66,-4.34,-4.55,0.83,0.59,2.01,
4.341,-5.66,-4.34,-4.55,0.79,0.62,2.01,
4.342,-5.66,-4.34,-4.55,0.73,0.70,2.00,
4.351,-4.06,-1.01,-5.42,0.73,0.70,2.00,
4.352,-4.06,-1.01,-5.42,0.66,0.79,1.99,
4.352,-4.06,-1.01,-5.42,0.60,0.88,1.98,
4.352,-4.06,-1.01,-5.42,0.54,0.98,1.96,
4.353,-4.06,-1.01,-5.42,0.48,1.09,1.93,
4.353,-4.06,-1.01,-5.42,0.43,1.22,1.90,
4.353,-2.41,1.06,-5.07,0.43,1.22,1.90,
4.353,-2.41,1.06,-5.07,0.39,1.35,1.87,
4.359,-2.41,1.06,-5.07,0.35,1.49,1.82,
4.36,-2.41,1.06,-5.07,0.33,1.65,1.78,
4.36,-2.41,1.06,-5.07,0.31,1.81,1.72,
4.36,-2.41,1.06,-5.07,0.30,1.98,1.66,
4.362,-0.79,2.04,-3.24,0.30,1.98,1.66,
4.363,-0.79,2.04,-3.24,0.31,2.13,1.59,
4.364,-0.79,2.04,-3.24,0.33,2.26,1.52,
4.367,-0.79,2.04,-3.24,0.36,2.37,1.44,
4.368,-0.79,2.04,-3.24,0.40,2.46,1.35,
4.37,-0.79,2.04,-3.24,0.43,2.52,1.27,
4.379,0.53,1.36,-0.87,0.43,2.52,1.27,
4.379,0.53,1.36,-0.87,0.47,2.56,1.18,
4.38,0.53,1.36,-0.87,0.50,2.57,1.09,
4.38,0.53,1.36,-0.87,0.54,2.56,0.96,
4.38,0.53,1.36,-0.87,0.55,2.55,0.92,
4.382,0.53,1.36,-0.87,0.55,2.51,0.83,
4.382,1.29,-0.50,-0.65,0.55,2.51,0.83,
4.382,1.29,-0.50,-0.65,0.55,2.45,0.76,
4.385,1.29,-0.50,-0.65,0.53,2.39,0.69,
4.388,1.29,-0.50,-0.65,0.48,2.27,0.60,
4.409,1.29,-0.50,-0.65,0.46,2.23,0.57,
4.41,1.29,-0.50,-0.65,0.41,2.13,0.52,
4.41,1.34,-1.52,-2.02,0.41,2.13,0.52,
4.41,1.34,-1.52,-2.02,0.35,2.03,0.48,
4.41,1.34,-1.52,-2.02,0.29,1.92,0.44,
4.411,1.34,-1.52,-2.02,0.19,1.74,0.38,
4.411,1.34,-1.52,-2.02,0.15,1.68,0.36,
4.411,1.34,-1.52,-2.02,0.08,1.55,0.33,
4.411,1.03,-0.88,-3.20,0.08,1.55,0.33,
4.411,1.03,-0.88,-3.20,-0.00,1.42,0.30,
4.412,1.03,-0.88,-3.20,-0.08,1.28,0.27,
4.412,1.03,-0.88,-3.20,-0.20,1.08,0.23,
4.412,1.03,-0.88,-3.20,-0.24,1.01,0.22,
4.412,1.03,-0.88,-3.20,-0.31,0.88,0.19,
4.412,0.62,0.41,-3.97,-0.31,0.88,0.19,
4.413,0.62,0.41,-3.97,-0.38,0.75,0.17,
4.414,0.62,0.41,-3.97,-0.45,0.63,0.15,
4.417,0.62,0.41,-3.97,-0.55,0.46,0.13,
4.418,0.62,0.41,-3.97,-0.58,0.40,0.12,
4.421,0.62,0.41,-3.97,-0.64,0.30,0.10,
4.423,0.47,1.71,-4.19,-0.64,0.30,0.10,
4.424,0.47,1.71,-4.19,-0.69,0.19,0.08,
4.424,0.47,1.71,-4.19,-0.74,0.09,0.07,
4.428,0.47,1.71,-4.19,-0.81,-0.06,0.05,
4.433,0.47,1.71,-4.19,-0.84,-0.11,0.04,
4.433,0.47,1.71,-4.19,-0.88,-0.20,0.03,
4.433,0.52,2.59,-4.51,-0.88,-0.20,0.03,
4.433,0.52,2.59,-4.51,-0.92,-0.30,0.03,
4.434,0.52,2.59,-4.51,-0.96,-0.39,0.02,
4.437,0.52,2.59,-4.51,-1.01,-0.52,0.01,
4.438,0.52,2.59,-4.51,-1.03,-0.56,0.01,
4.44,0.52,2.59,-4.51,-1.06,-0.64,0.01,
4.46,0.84,3.34,-4.57,-1.06,-0.64,0.01,
4.46,0.84,3.34,-4.57,-1.09,-0.73,0.01,
4.46,0.84,3.34,-4.57,-1.12,-0.80,0.01,
4.461,0.84,3.34,-4.57,-1.16,-0.92,0.00,
4.461,0.84,3.34,-4.57,-1.17,-0.95,0.00,
4.461,0.84,3.34,-4.57,-1.23,-1.16,-0.01,
4.462,0.84,3.34,-4.57,-1.23,-1.16,-0.01,
4.462,0.84,3.34,-4.57,-1.23,-1.16,-0.01,
4.462,1.58,4.11,-4.61,-1.23,-1.16,-0.01,
4.462,1.58,4.11,-4.61,-1.27,-1.30,-0.02,
4.463,1.58,4.11,-4.61,-1.27,-1.30,-0.02,
4.463,1.58,4.11,-4.61,-1.29,-1.36,-0.03,
4.463,1.91,4.51,-4.37,-1.29,-1.36,-0.03,
4.463,1.91,4.51,-4.37,-1.31,-1.42,-0.03,
4.464,1.91,4.51,-4.37,-1.33,-1.48,-0.04,
4.468,1.91,4.51,-4.37,-1.36,-1.57,-0.05,
4.47,1.91,4.51,-4.37,-1.37,-1.60,-0.06,
4.475,1.91,4.51,-4.37,-1.40,-1.65,-0.06,
4.475,2.34,5.02,-4.43,-1.40,-1.65,-0.06,
4.476,2.34,5.02,-4.43,-1.42,-1.70,-0.07,
4.476,2.34,5.02,-4.43,-1.45,-1.75,-0.09,
4.482,2.34,5.02,-4.43,-1.49,-1.82,-0.10,
4.483,2.34,5.02,-4.43,-1.50,-1.84,-0.10,
4.483,2.34,5.02,-4.43,-1.53,-1.89,-0.11,
4.484,2.61,5.52,-4.30,-1.53,-1.89,-0.11,
4.484,2.61,5.52,-4.30,-1.56,-1.93,-0.12,
4.484,2.61,5.52,-4.30,-1.60,-1.97,-0.13,
4.487,2.61,5.52,-4.30,-1.65,-2.02,-0.14,
4.489,2.61,5.52,-4.30,-1.66,-2.03,-0.15,
4.49,2.61,5.52,-4.30,-1.70,-2.06,-0.16,
4.501,2.69,5.79,-4.40,-1.70,-2.06,-0.16,
4.501,2.69,5.79,-4.40,-1.73,-2.09,-0.16,
4.501,2.69,5.79,-4.40,-1.77,-2.11,-0.17,
4.502,2.69,5.79,-4.40,-1.83,-2.14,-0.19,
4.502,2.69,5.79,-4.40,-1.85,-2.15,-0.19,
4.502,2.69,5.79,-4.40,-1.89,-2.17,-0.20,
4.502,2.71,6.05,-4.11,-1.89,-2.17,-0.20,
4.502,2.71,6.05,-4.11,-1.92,-2.19,-0.20,
4.504,2.71,6.05,-4.11,-1.96,-2.20,-0.21,
4.507,2.71,6.05,-4.11,-2.02,-2.23,-0.22,
4.509,2.71,6.05,-4.11,-2.04,-2.24,-0.23,
4.51,2.71,6.05,-4.11,-2.07,-2.26,-0.24,
4.512,2.78,6.18,-3.96,-2.07,-2.26,-0.24,
4.512,2.78,6.18,-3.96,-2.11,-2.28,-0.25,
4.514,2.78,6.18,-3.96,-2.15,-2.30,-0.26,
4.517,2.78,6.18,-3.96,-2.20,-2.33,-0.29,
4.519,2.78,6.18,-3.96,-2.21,-2.35,-0.30,
4.52,2.78,6.18,-3.96,-2.24,-2.37,-0.31,
4.524,2.86,6.29,-3.42,-2.24,-2.37,-0.31,
4.524,2.86,6.29,-3.42,-2.27,-2.40,-0.33,
4.524,2.86,6.29,-3.42,-2.30,-2.42,-0.36,
4.528,2.86,6.29,-3.42,-2.35,-2.46,-0.39,
4.528,2.86,6.29,-3.42,-2.36,-2.48,-0.41,
4.53,2.86,6.29,-3.42,-2.39,-2.50,-0.44,
4.532,3.13,6.20,-3.05,-2.39,-2.50,-0.44,
4.532,3.13,6.20,-3.05,-2.41,-2.53,-0.47,
4.534,3.13,6.20,-3.05,-2.44,-2.56,-0.50,
4.537,3.13,6.20,-3.05,-2.47,-2.60,-0.55,
4.545,3.13,6.20,-3.05,-2.49,-2.62,-0.57,
4.545,3.13,6.20,-3.05,-2.52,-2.64,-0.61,
4.546,3.22,5.98,-2.59,-2.52,-2.64,-0.61,
4.546,3.22,5.98,-2.59,-2.54,-2.67,-0.66,
4.546,3.22,5.98,-2.59,-2.57,-2.69,-0.70,
4.547,3.22,5.98,-2.59,-2.61,-2.71,-0.76,
4.548,3.22,5.98,-2.59,-2.62,-2.72,-0.79,
4.55,3.22,5.98,-2.59,-2.65,-2.73,-0.83,
4.553,3.42,5.61,-2.36,-2.65,-2.73,-0.83,
4.553,3.42,5.61,-2.36,-2.68,-2.74,-0.88,
4.555,3.42,5.61,-2.36,-2.71,-2.74,-0.93,
4.557,3.42,5.61,-2.36,-2.75,-2.73,-0.99,
4.558,3.42,5.61,-2.36,-2.77,-2.73,-1.02,
4.56,3.42,5.61,-2.36,-2.80,-2.72,-1.06,
4.562,3.28,5.25,-2.11,-2.80,-2.72,-1.06,
4.562,3.28,5.25,-2.11,-2.84,-2.70,-1.11,
4.564,3.28,5.25,-2.11,-2.87,-2.68,-1.16,
4.567,3.28,5.25,-2.11,-2.92,-2.65,-1.23,
4.568,3.28,5.25,-2.11,-2.94,-2.64,-1.25,
4.57,3.28,5.25,-2.11,-2.97,-2.61,-1.30,
4.572,3.32,4.75,-1.84,-2.97,-2.61,-1.30,
4.572,3.32,4.75,-1.84,-3.01,-2.57,-1.36,
4.574,3.32,4.75,-1.84,-3.04,-2.54,-1.41,
4.577,3.32,4.75,-1.84,-3.08,-2.48,-1.49,
4.578,3.32,4.75,-1.84,-3.10,-2.47,-1.52,
4.58,3.32,4.75,-1.84,-3.13,-2.42,-1.58,
4.582,3.23,4.27,-1.31,-3.13,-2.42,-1.58,
4.582,3.23,4.27,-1.31,-3.16,-2.38,-1.65,
4.584,3.23,4.27,-1.31,-3.19,-2.34,-1.71,
4.588,3.23,4.27,-1.31,-3.22,-2.27,-1.82,
4.588,3.23,4.27,-1.31,-3.24,-2.25,-1.86,
4.59,3.23,4.27,-1.31,-3.25,-2.20,-1.94,
4.592,3.59,3.69,-0.58,-3.25,-2.20,-1.94,
4.592,3.59,3.69,-0.58,-3.27,-2.16,-2.02,
4.594,3.59,3.69,-0.58,-3.29,-2.11,-2.11,
4.597,3.59,3.69,-0.58,-3.30,-2.03,-2.24,
4.598,3.59,3.69,-0.58,-3.31,-2.01,-2.28,
4.6,3.59,3.69,-0.58,-3.32,-1.96,-2.37,
4.602,3.87,2.94,0.13,-3.32,-1.96,-2.37,
4.602,3.87,2.94,0.13,-3.32,-1.91,-2.46,
4.604,3.87,2.94,0.13,-3.33,-1.85,-2.56,
4.607,3.87,2.94,0.13,-3.34,-1.76,-2.69,
4.624,3.87,2.94,0.13,-3.34,-1.73,-2.74,
4.624,3.87,2.94,0.13,-3.34,-1.65,-2.83,
4.625,4.00,1.80,0.86,-3.34,-1.65,-2.83,
4.625,4.00,1.80,0.86,-3.34,-1.57,-2.91,
4.625,4.00,1.80,0.86,-3.33,-1.46,-2.99,
4.625,4.00,1.80,0.86,-3.20,-0.91,-3.09,
4.625,4.00,1.80,0.86,-3.04,-0.44,-3.11,
4.626,4.00,1.80,0.86,-2.54,0.77,-3.13,
4.626,2.59,-0.32,14.75,-2.54,0.77,-3.13,
4.626,2.59,-0.32,14.75,-2.06,1.76,-3.11,
4.626,2.59,-0.32,14.75,-1.64,2.56,-3.09,
4.629,2.59,-0.32,14.75,-1.04,3.60,-3.01,
4.629,2.59,-0.32,14.75,-0.87,3.89,-2.97,
4.63,2.59,-0.32,14.75,-0.58,4.38,-2.86,
4.632,0.73,-2.98,22.91,-0.58,4.38,-2.86,
4.632,0.73,-2.98,22.91,-0.35,4.72,-2.73,
4.634,0.73,-2.98,22.91,-0.14,4.90,-2.59,
4.638,0.73,-2.98,22.91,0.15,4.94,-2.36,
4.638,0.73,-2.98,22.91,0.24,4.91,-2.28,
4.644,0.73,-2.98,22.91,0.38,4.80,-2.11,
4.644,-0.16,-4.33,21.46,0.38,4.80,-2.11,
4.644,-0.16,-4.33,21.46,0.51,4.62,-1.93,
4.645,-0.16,-4.33,21.46,0.62,4.40,-1.74,
4.649,-0.16,-4.33,21.46,0.74,3.98,-1.47,
4.649,-0.16,-4.33,21.46,0.78,3.82,-1.37,
4.65,-0.16,-4.33,21.46,0.84,3.49,-1.20,
4.652,-1.08,-3.71,17.30,0.84,3.49,-1.20,
4.653,-1.08,-3.71,17.30,0.91,3.14,-1.03,
4.66,-1.08,-3.71,17.30,0.97,2.80,-0.87,
4.66,-1.08,-3.71,17.30,1.05,2.28,-0.66,
4.661,-1.08,-3.71,17.30,1.08,2.12,-0.60,
4.662,-1.08,-3.71,17.30,1.12,1.79,-0.48,
4.662,-1.12,-1.98,12.97,1.12,1.79,-0.48,
4.663,-1.12,-1.98,12.97,1.16,1.49,-0.39,
4.664,-1.12,-1.98,12.97,1.18,1.21,-0.31,
4.668,-1.12,-1.98,12.97,1.20,0.84,-0.21,
4.668,-1.12,-1.98,12.97,1.20,0.73,-0.19,
4.685,-1.12,-1.98,12.97,1.19,0.53,-0.15,
4.685,-0.97,-0.44,8.60,1.19,0.53,-0.15,
4.686,-0.97,-0.44,8.60,1.17,0.36,-0.12,
4.686,-0.97,-0.44,8.60,1.14,0.22,-0.09,
4.686,-0.97,-0.44,8.60,1.08,0.06,-0.06,
4.686,-0.97,-0.44,8.60,1.05,0.01,-0.05,
4.687,-0.97,-0.44,8.60,0.99,-0.06,-0.03,
4.687,-1.79,0.93,4.51,0.99,-0.06,-0.03,
4.687,-1.79,0.93,4.51,0.92,-0.12,-0.00,
4.687,-1.79,0.93,4.51,0.84,-0.17,0.02,
4.688,-1.79,0.93,4.51,0.73,-0.23,0.06,
4.689,-1.79,0.93,4.51,0.68,-0.24,0.08,
4.69,-1.79,0.93,4.51,0.60,-0.26,0.10,
4.692,-3.19,2.00,2.13,0.60,-0.26,0.10,
4.692,-3.19,2.00,2.13,0.51,-0.28,0.13,
4.694,-3.19,2.00,2.13,0.42,-0.29,0.15,
4.697,-3.19,2.00,2.13,0.28,-0.31,0.17,
4.698,-3.19,2.00,2.13,0.24,-0.32,0.18,
4.7,-3.19,2.00,2.13,0.15,-0.33,0.20,
4.702,-3.63,2.45,0.76,0.15,-0.33,0.20,
4.702,-3.63,2.45,0.76,0.06,-0.35,0.21,
4.704,-3.63,2.45,0.76,-0.04,-0.37,0.22,
4.707,-3.63,2.45,0.76,-0.19,-0.43,0.23,
4.708,-3.63,2.45,0.76,-0.24,-0.45,0.24,
4.71,-3.63,2.45,0.76,-0.34,-0.50,0.25,
4.712,-3.77,2.45,-0.46,-0.34,-0.50,0.25,
4.712,-3.77,2.45,-0.46,-0.45,-0.57,0.26,
4.714,-3.77,2.45,-0.46,-0.55,-0.63,0.27,
4.718,-3.77,2.45,-0.46,-0.70,-0.76,0.29,
4.718,-3.77,2.45,-0.46,-0.75,-0.80,0.30,
4.721,-3.77,2.45,-0.46,-0.85,-0.90,0.31,
4.722,-4.11,2.19,-1.14,-0.85,-0.90,0.31,
4.723,-4.11,2.19,-1.14,-0.94,-1.01,0.34,
4.724,-4.11,2.19,-1.14,-1.02,-1.11,0.36,
4.728,-4.11,2.19,-1.14,-1.14,-1.30,0.40,
4.728,-4.11,2.19,-1.14,-1.17,-1.36,0.41,
4.73,-4.11,2.19,-1.14,-1.24,-1.50,0.44,
4.732,-4.83,1.67,-1.49,-1.24,-1.50,0.44,
4.733,-4.83,1.67,-1.49,-1.31,-1.66,0.47,
4.734,-4.83,1.67,-1.49,-1.37,-1.83,0.51,
4.739,-4.83,1.67,-1.49,-1.45,-2.13,0.55,
4.739,-4.83,1.67,-1.49,-1.47,-2.24,0.57,
4.74,-4.83,1.67,-1.49,-1.51,-2.48,0.60,
4.742,-4.77,0.64,-2.22,-1.51,-2.48,0.60,
4.742,-4.77,0.64,-2.22,-1.54,-2.73,0.63,
4.744,-4.77,0.64,-2.22,-1.57,-3.00,0.66,
4.747,-4.77,0.64,-2.22,-1.58,-3.40,0.69,
4.748,-4.77,0.64,-2.22,-1.58,-3.54,0.70,
4.75,-4.77,0.64,-2.22,-1.58,-3.80,0.71,
4.754,-4.06,-1.12,-2.43,-1.58,-3.80,0.71,
4.755,-4.06,-1.12,-2.43,-1.56,-4.05,0.72,
4.756,-4.06,-1.12,-2.43,-1.54,-4.29,0.72,
4.758,-4.06,-1.12,-2.43,-1.48,-4.60,0.72,
4.758,-4.06,-1.12,-2.43,-1.46,-4.70,0.72,
4.76,-4.06,-1.12,-2.43,-1.41,-4.86,0.71,
4.762,-3.50,-3.56,-1.33,-1.41,-4.86,0.71,
4.763,-3.50,-3.56,-1.33,-1.35,-5.01,0.71,
4.764,-3.50,-3.56,-1.33,-1.28,-5.12,0.70,
4.767,-3.50,-3.56,-1.33,-1.16,-5.23,0.69,
4.768,-3.50,-3.56,-1.33,-1.12,-5.25,0.68,
4.771,-3.50,-3.56,-1.33,-1.03,-5.24,0.67,
4.772,-3.57,-6.06,0.28,-1.03,-5.24,0.67,
4.773,-3.57,-6.06,0.28,-0.92,-5.13,0.65,
4.806,-3.57,-6.06,0.28,-0.80,-4.90,0.64,
4.806,-3.57,-6.06,0.28,-0.63,-4.32,0.61,
4.807,-3.57,-6.06,0.28,-0.57,-4.07,0.61,
4.807,-3.57,-6.06,0.28,-0.46,-3.49,0.59,
4.808,-4.27,-8.59,2.94,-0.46,-3.49,0.59,
4.808,-4.27,-8.59,2.94,-0.37,-2.82,0.57,
4.809,-4.27,-8.59,2.94,-0.29,-2.11,0.54,
4.809,-4.27,-8.59,2.94,-0.22,-1.09,0.48,
4.81,-4.27,-8.59,2.94,-0.21,-0.78,0.46,
4.81,-4.27,-8.59,2.94,-0.19,-0.28,0.42,
4.81,-2.66,-10.40,2.02,-0.19,-0.28,0.42,
4.811,-2.66,-10.40,2.02,-0.19,0.09,0.37,
4.811,-2.66,-10.40,2.02,-0.18,0.34,0.31,
4.812,-2.66,-10.40,2.02,-0.18,0.51,0.21,
4.812,-2.66,-10.40,2.02,-0.17,0.53,0.17,
4.812,-2.66,-10.40,2.02,-0.15,0.53,0.08,
4.813,0.20,-9.99,-0.47,-0.15,0.53,0.08,
4.813,0.20,-9.99,-0.47,-0.13,0.50,-0.01,
4.814,0.20,-9.99,-0.47,-0.10,0.45,-0.11,
4.814,0.20,-9.99,-0.47,-0.05,0.36,-0.24,
4.815,0.20,-9.99,-0.47,-0.03,0.33,-0.28,
4.815,0.20,-9.99,-0.47,0.01,0.28,-0.36,
4.815,1.54,-8.78,-0.95,0.01,0.28,-0.36,
4.816,1.54,-8.78,-0.95,0.05,0.22,-0.44,
4.816,1.54,-8.78,-0.95,0.09,0.16,-0.50,
4.837,1.54,-8.78,-0.95,0.15,0.08,-0.58,
4.837,1.54,-8.78,-0.95,0.17,0.05,-0.61,
4.837,1.54,-8.78,-0.95,0.21,0.00,-0.65,
4.838,1.62,-7.62,-1.12,0.21,0.00,-0.65,
4.838,1.62,-7.62,-1.12,0.24,-0.04,-0.69,
4.838,1.62,-7.62,-1.12,0.28,-0.07,-0.72,
4.838,1.62,-7.62,-1.12,0.32,-0.10,-0.76,
4.839,1.62,-7.62,-1.12,0.34,-0.11,-0.78,
4.839,1.62,-7.62,-1.12,0.36,-0.11,-0.80,
4.839,1.68,-7.06,-1.49,0.36,-0.11,-0.80,
4.839,1.68,-7.06,-1.49,0.38,-0.10,-0.82,
4.84,1.68,-7.06,-1.49,0.39,-0.08,-0.84,
4.84,1.68,-7.06,-1.49,0.39,-0.03,-0.88,
4.84,1.68,-7.06,-1.49,0.39,-0.01,-0.89,
4.843,1.68,-7.06,-1.49,0.38,0.04,-0.92,
4.845,2.14,-7.42,-2.17,0.38,0.04,-0.92,
4.846,2.14,-7.42,-2.17,0.36,0.09,-0.95,
4.846,2.14,-7.42,-2.17,0.33,0.15,-0.98,
4.848,2.14,-7.42,-2.17,0.28,0.25,-1.04,
4.848,2.14,-7.42,-2.17,0.27,0.29,-1.06,
4.851,2.14,-7.42,-2.17,0.22,0.35,-1.10,
4.853,3.15,-8.61,-2.90,0.22,0.35,-1.10,
4.854,3.15,-8.61,-2.90,0.18,0.42,-1.14,
4.87,3.15,-8.61,-2.90,0.14,0.49,-1.19,
4.871,3.15,-8.61,-2.90,0.06,0.58,-1.26,
4.871,3.15,-8.61,-2.90,0.04,0.60,-1.29,
4.871,3.15,-8.61,-2.90,-0.01,0.64,-1.34,
4.872,4.24,-9.71,-2.71,-0.01,0.64,-1.34,
4.872,4.24,-9.71,-2.71,-0.07,0.68,-1.38,
4.872,4.24,-9.71,-2.71,-0.17,0.74,-1.42,
4.872,4.24,-9.71,-2.71,-0.37,0.85,-1.44,
4.873,4.24,-9.71,-2.71,-0.46,0.89,-1.45,
4.873,4.24,-9.71,-2.71,-0.65,0.98,-1.45,
4.873,5.33,-9.76,-2.48,-0.65,0.98,-1.45,
4.873,5.33,-9.76,-2.48,-0.86,1.06,-1.44,
4.874,5.33,-9.76,-2.48,-1.07,1.14,-1.43,
4.877,5.33,-9.76,-2.48,-1.39,1.23,-1.41,
4.878,5.33,-9.76,-2.48,-1.48,1.24,-1.40,
4.88,5.33,-9.76,-2.48,-1.66,1.25,-1.38,
4.882,6.72,-7.74,0.10,-1.66,1.25,-1.38,
4.882,6.72,-7.74,0.10,-1.80,1.23,-1.36,
4.884,6.72,-7.74,0.10,-1.91,1.19,-1.33,
4.889,6.72,-7.74,0.10,-1.98,1.07,-1.28,
4.89,6.72,-7.74,0.10,-1.98,1.02,-1.25,
4.89,6.72,-7.74,0.10,-1.94,0.93,-1.20,
4.892,6.63,-4.68,5.70,-1.94,0.93,-1.20,
4.893,6.63,-4.68,5.70,-1.84,0.83,-1.13,
4.894,6.63,-4.68,5.70,-1.67,0.74,-1.05,
4.897,6.63,-4.68,5.70,-1.39,0.60,-0.90,
4.898,6.63,-4.68,5.70,-1.29,0.54,-0.85,
4.901,6.63,-4.68,5.70,-1.10,0.44,-0.73,
4.904,4.00,-2.16,9.63,-1.10,0.44,-0.73,
4.905,4.00,-2.16,9.63,-0.90,0.34,-0.62,
4.905,4.00,-2.16,9.63,-0.73,0.24,-0.51,
4.907,4.00,-2.16,9.63,-0.50,0.10,-0.35,
4.908,4.00,-2.16,9.63,-0.43,0.05,-0.31,
4.91,4.00,-2.16,9.63,-0.31,-0.04,-0.23,
4.912,3.05,-1.66,5.74,-0.31,-0.04,-0.23,
4.912,3.05,-1.66,5.74,-0.21,-0.12,-0.18,
4.914,3.05,-1.66,5.74,-0.13,-0.20,-0.13,
4.917,3.05,-1.66,5.74,-0.03,-0.31,-0.10,
4.918,3.05,-1.66,5.74,0.00,-0.34,-0.10,
4.92,3.05,-1.66,5.74,0.06,-0.41,-0.10,
4.929,3.87,-1.35,1.52,0.06,-0.41,-0.10,
4.929,3.87,-1.35,1.52,0.11,-0.47,-0.11,
4.929,3.87,-1.35,1.52,0.16,-0.53,-0.13,
4.93,3.87,-1.35,1.52,0.22,-0.62,-0.17,
4.93,3.87,-1.35,1.52,0.24,-0.65,-0.18,
4.93,3.87,-1.35,1.52,0.27,-0.70,-0.22,
4.933,4.43,-0.60,-0.56,0.27,-0.70,-0.22,
4.934,4.43,-0.60,-0.56,0.29,-0.75,-0.26,
4.934,4.43,-0.60,-0.56,0.31,-0.81,-0.30,
4.954,4.43,-0.60,-0.56,0.33,-0.89,-0.36,
4.954,4.43,-0.60,-0.56,0.33,-0.91,-0.38,
4.954,4.43,-0.60,-0.56,0.34,-0.97,-0.42,
4.978,4.03,0.41,-1.64,0.34,-0.97,-0.42,
4.978,4.03,0.41,-1.64,0.34,-1.03,-0.46,
4.978,4.03,0.41,-1.64,0.33,-1.08,-0.50,
4.978,4.03,0.41,-1.64,0.31,-1.16,-0.55,
4.979,4.03,0.41,-1.64,0.30,-1.19,-0.57,
4.979,4.03,0.41,-1.64,0.28,-1.25,-0.59,
4.979,3.22,1.38,-2.34,0.28,-1.25,-0.59,
4.979,3.22,1.38,-2.34,0.25,-1.30,-0.62,
4.98,3.22,1.38,-2.34,0.22,-1.35,-0.64,
4.98,3.22,1.38,-2.34,0.16,-1.41,-0.66,
4.98,3.22,1.38,-2.34,0.14,-1.43,-0.67,
4.98,3.22,1.38,-2.34,0.09,-1.47,-0.68,
4.98,1.79,1.95,-2.59,0.09,-1.47,-0.68,
4.981,1.79,1.95,-2.59,0.04,-1.51,-0.68,
4.981,1.79,1.95,-2.59,-0.01,-1.53,-0.67,
4.981,1.79,1.95,-2.59,-0.10,-1.56,-0.66,
4.981,1.79,1.95,-2.59,-0.13,-1.57,-0.66,
4.981,1.79,1.95,-2.59,-0.19,-1.58,-0.64,
4.982,0.28,2.24,-2.43,-0.19,-1.58,-0.64,
4.982,0.28,2.24,-2.43,-0.25,-1.59,-0.62,
4.982,0.28,2.24,-2.43,-0.31,-1.60,-0.61,
4.982,0.28,2.24,-2.43,-0.41,-1.59,-0.57,
4.983,0.28,2.24,-2.43,-0.44,-1.59,-0.56,
4.983,0.28,2.24,-2.43,-0.50,-1.59,-0.54,
4.983,-0.83,2.53,-1.73,-0.50,-1.59,-0.54,
