
time,ax,ay,az,wx,wy,wz,
0.002,-0.20,-0.00,0.55,-0.28,-0.08,0.90,
0.002,-0.20,-0.00,0.55,-0.27,-0.10,0.89,
0.003,-0.20,-0.00,0.55,-0.26,-0.12,0.89,
0.003,-0.03,0.04,0.47,-0.26,-0.12,0.89,
0.003,-0.03,0.04,0.47,-0.25,-0.15,0.88,
0.004,-0.03,0.04,0.47,-0.24,-0.18,0.87,
0.006,-0.03,0.04,0.47,-0.23,-0.21,0.86,
0.008,-0.03,0.04,0.47,-0.21,-0.24,0.85,
0.012,-0.03,0.04,0.47,-0.20,-0.27,0.84,
0.013,0.02,0.04,0.54,-0.20,-0.27,0.84,
0.013,0.02,0.04,0.54,-0.18,-0.31,0.82,
0.016,0.02,0.04,0.54,-0.17,-0.34,0.81,
0.017,0.02,0.04,0.54,-0.16,-0.36,0.79,
0.018,0.02,0.04,0.54,-0.15,-0.39,0.78,
0.02,0.02,0.04,0.54,-0.13,-0.43,0.76,
0.022,-0.12,-0.03,0.41,-0.13,-0.43,0.76,
0.023,-0.12,-0.03,0.41,-0.12,-0.45,0.74,
0.024,-0.12,-0.03,0.41,-0.11,-0.48,0.73,
0.026,-0.12,-0.03,0.41,-0.11,-0.51,0.72,
0.028,-0.12,-0.03,0.41,-0.10,-0.54,0.71,
0.031,-0.12,-0.03,0.41,-0.10,-0.57,0.70,
0.033,-0.35,-0.17,0.11,-0.10,-0.57,0.70,
0.034,-0.35,-0.17,0.11,-0.09,-0.60,0.69,
0.036,-0.35,-0.17,0.11,-0.09,-0.63,0.69,
0.038,-0.35,-0.17,0.11,-0.08,-0.66,0.69,
0.04,-0.35,-0.17,0.11,-0.08,-0.70,0.69,
0.041,-0.35,-0.17,0.11,-0.08,-0.74,0.69,
0.042,-0.49,-0.41,-0.17,-0.08,-0.74,0.69,
0.043,-0.49,-0.41,-0.17,-0.09,-0.78,0.69,
0.044,-0.49,-0.41,-0.17,-0.10,-0.83,0.69,
0.047,-0.49,-0.41,-0.17,-0.10,-0.87,0.69,
0.048,-0.49,-0.41,-0.17,-0.12,-0.91,0.70,
0.05,-0.49,-0.41,-0.17,-0.13,-0.94,0.70,
0.053,-0.42,-0.37,-0.51,-0.13,-0.94,0.70,
0.053,-0.42,-0.37,-0.51,-0.14,-0.98,0.71,
0.054,-0.42,-0.37,-0.51,-0.15,-1.01,0.72,
0.056,-0.42,-0.37,-0.51,-0.16,-1.05,0.74,
0.058,-0.42,-0.37,-0.51,-0.17,-1.08,0.76,
0.061,-0.42,-0.37,-0.51,-0.19,-1.12,0.78,
0.062,-0.36,-0.28,-0.56,-0.19,-1.12,0.78,
0.062,-0.36,-0.28,-0.56,-0.20,-1.14,0.81,
0.064,-0.36,-0.28,-0.56,-0.21,-1.17,0.84,
0.066,-0.36,-0.28,-0.56,-0.22,-1.18,0.87,
0.068,-0.36,-0.28,-0.56,-0.24,-1.18,0.90,
0.07,-0.36,-0.28,-0.56,-0.26,-1.17,0.92,
0.088,-0.29,-0.29,-0.41,-0.26,-1.17,0.92,
0.088,-0.29,-0.29,-0.41,-0.27,-1.16,0.95,
0.089,-0.29,-0.29,-0.41,-0.28,-1.16,0.97,
0.089,-0.29,-0.29,-0.41,-0.30,-1.15,0.99,
0.089,-0.29,-0.29,-0.41,-0.31,-1.15,1.00,
0.089,-0.29,-0.29,-0.41,-0.32,-1.15,1.01,
0.089,-0.05,-0.42,-0.25,-0.32,-1.15,1.01,
0.089,-0.05,-0.42,-0.25,-0.32,-1.14,1.02,
0.09,-0.05,-0.42,-0.25,-0.33,-1.14,1.02,
0.09,-0.05,-0.42,-0.25,-0.34,-1.13,1.02,
0.09,-0.05,-0.42,-0.25,-0.34,-1.12,1.01,
0.09,-0.05,-0.42,-0.25,-0.35,-1.11,1.01,
0.092,0.33,-0.32,-0.22,-0.35,-1.11,1.01,
0.094,0.33,-0.32,-0.22,-0.36,-1.10,1.00,
0.095,0.33,-0.32,-0.22,-0.36,-1.07,0.99,
0.096,0.33,-0.32,-0.22,-0.36,-1.02,0.98,
0.098,0.33,-0.32,-0.22,-0.37,-0.95,0.97,
0.1,0.33,-0.32,-0.22,-0.37,-0.88,0.97,
0.13,0.76,0.01,-0.64,-0.37,-0.88,0.97,
0.133,0.76,0.01,-0.64,-0.39,-0.79,0.96,
0.134,0.76,0.01,-0.64,-0.41,-0.71,0.95,
0.134,0.76,0.01,-0.64,-0.44,-0.62,0.94,
0.135,0.76,0.01,-0.64,-0.48,-0.54,0.92,
0.135,0.76,0.01,-0.64,-0.52,-0.47,0.90,
0.135,1.09,0.29,-1.32,-0.52,-0.47,0.90,
0.136,1.09,0.29,-1.32,-0.56,-0.40,0.88,
0.136,1.09,0.29,-1.32,-0.60,-0.33,0.87,
0.136,1.09,0.29,-1.32,-0.64,-0.27,0.86,
0.137,1.09,0.29,-1.32,-0.67,-0.22,0.85,
0.137,1.09,0.29,-1.32,-0.70,-0.17,0.84,
0.138,0.84,0.50,-1.13,-0.70,-0.17,0.84,
0.139,0.84,0.50,-1.13,-0.72,-0.13,0.84,
0.143,0.84,0.50,-1.13,-0.74,-0.09,0.84,
0.145,0.84,0.50,-1.13,-0.75,-0.06,0.84,
0.145,0.84,0.50,-1.13,-0.77,-0.04,0.85,
0.169,0.84,0.50,-1.13,-0.77,-0.02,0.84,
0.169,0.39,0.36,-0.69,-0.77,-0.02,0.84,
0.17,0.39,0.36,-0.69,-0.77,-0.01,0.85,
0.17,0.39,0.36,-0.69,-0.77,-0.01,0.84,
0.171,0.39,0.36,-0.69,-0.76,-0.03,0.84,
0.171,0.39,0.36,-0.69,-0.75,-0.05,0.83,
0.171,0.39,0.36,-0.69,-0.73,-0.08,0.82,
0.172,0.26,0.16,-0.35,-0.73,-0.08,0.82,
0.172,0.26,0.16,-0.35,-0.66,-0.21,0.79,
0.173,0.26,0.16,-0.35,-0.66,-0.21,0.79,
0.173,0.26,0.16,-0.35,-0.64,-0.26,0.79,
0.174,0.26,0.16,-0.35,-0.64,-0.26,0.79,
0.174,0.26,0.16,-0.35,-0.61,-0.32,0.78,
0.174,0.61,0.09,-0.01,-0.61,-0.32,0.78,
0.175,0.61,0.09,-0.01,-0.59,-0.38,0.77,
0.175,0.61,0.09,-0.01,-0.56,-0.45,0.76,
0.176,0.61,0.09,-0.01,-0.52,-0.52,0.75,
0.176,0.61,0.09,-0.01,-0.49,-0.59,0.75,
0.176,0.61,0.09,-0.01,-0.45,-0.66,0.74,
0.177,0.92,0.11,0.39,-0.45,-0.66,0.74,
0.177,0.92,0.11,0.39,-0.41,-0.73,0.74,
0.178,0.92,0.11,0.39,-0.36,-0.80,0.73,
0.178,0.92,0.11,0.39,-0.31,-0.86,0.72,
0.178,0.92,0.11,0.39,-0.26,-0.93,0.71,
0.179,0.92,0.11,0.39,-0.20,-1.00,0.71,
0.179,1.06,0.01,0.90,-0.20,-1.00,0.71,
0.18,1.06,0.01,0.90,-0.15,-1.07,0.70,
0.18,1.06,0.01,0.90,-0.09,-1.14,0.68,
0.181,1.06,0.01,0.90,-0.04,-1.21,0.67,
0.181,1.06,0.01,0.90,0.02,-1.27,0.66,
0.181,1.06,0.01,0.90,0.08,-1.33,0.64,
0.198,1.18,-0.14,1.32,0.08,-1.33,0.64,
0.198,1.18,-0.14,1.32,0.13,-1.39,0.63,
0.198,1.18,-0.14,1.32,0.20,-1.44,0.62,
0.199,1.18,-0.14,1.32,0.26,-1.49,0.61,
0.199,1.18,-0.14,1.32,0.32,-1.52,0.60,
0.199,1.18,-0.14,1.32,0.39,-1.56,0.60,
0.2,0.66,-0.36,1.90,0.39,-1.56,0.60,
0.2,0.66,-0.36,1.90,0.45,-1.57,0.60,
0.2,0.66,-0.36,1.90,0.52,-1.57,0.61,
0.2,0.66,-0.36,1.90,0.58,-1.56,0.62,
0.201,0.66,-0.36,1.90,0.64,-1.55,0.64,
0.201,0.66,-0.36,1.90,0.70,-1.54,0.66,
0.204,-0.44,-0.63,2.14,0.70,-1.54,0.66,
0.204,-0.44,-0.63,2.14,0.74,-1.53,0.67,
0.204,-0.44,-0.63,2.14,0.79,-1.53,0.69,
0.208,-0.44,-0.63,2.14,0.82,-1.53,0.71,
0.211,-0.44,-0.63,2.14,0.84,-1.53,0.72,
0.212,-0.44,-0.63,2.14,0.86,-1.53,0.74,
0.216,-0.71,-0.55,1.50,0.86,-1.53,0.74,
0.216,-0.71,-0.55,1.50,0.88,-1.52,0.74,
0.218,-0.71,-0.55,1.50,0.88,-1.52,0.75,
0.218,-0.71,-0.55,1.50,0.88,-1.50,0.76,
0.219,-0.71,-0.55,1.50,0.88,-1.47,0.77,
0.231,-0.71,-0.55,1.50,0.88,-1.42,0.77,
0.231,-0.59,-0.55,0.75,0.88,-1.42,0.77,
0.232,-0.59,-0.55,0.75,0.87,-1.37,0.78,
0.232,-0.59,-0.55,0.75,0.86,-1.31,0.79,
0.232,-0.59,-0.55,0.75,0.85,-1.25,0.80,
0.232,-0.59,-0.55,0.75,0.84,-1.18,0.81,
0.233,-0.59,-0.55,0.75,0.83,-1.11,0.82,
0.234,-0.70,-0.72,0.73,0.83,-1.11,0.82,
0.234,-0.70,-0.72,0.73,0.81,-1.05,0.83,
0.235,-0.70,-0.72,0.73,0.80,-0.99,0.85,
0.242,-0.70,-0.72,0.73,0.78,-0.93,0.86,
0.242,-0.70,-0.72,0.73,0.76,-0.87,0.87,
0.242,-0.70,-0.72,0.73,0.73,-0.81,0.88,
0.243,-0.70,-0.75,0.61,0.73,-0.81,0.88,
0.243,-0.70,-0.75,0.61,0.70,-0.76,0.88,
0.244,-0.70,-0.75,0.61,0.66,-0.71,0.88,
0.248,-0.70,-0.75,0.61,0.61,-0.66,0.88,
0.25,-0.70,-0.75,0.61,0.57,-0.61,0.87,
0.254,-0.70,-0.75,0.61,0.53,-0.57,0.87,
0.265,-0.42,-0.57,-0.06,0.53,-0.57,0.87,
0.266,-0.42,-0.57,-0.06,0.49,-0.53,0.86,
0.266,-0.42,-0.57,-0.06,0.47,-0.50,0.85,
0.266,-0.42,-0.57,-0.06,0.44,-0.49,0.84,
0.267,-0.42,-0.57,-0.06,0.41,-0.50,0.83,
0.267,-0.42,-0.57,-0.06,0.38,-0.52,0.81,
0.267,-0.11,-0.56,-0.13,0.38,-0.52,0.81,
0.267,-0.11,-0.56,-0.13,0.35,-0.55,0.79,
0.268,-0.11,-0.56,-0.13,0.33,-0.59,0.77,
0.268,-0.11,-0.56,-0.13,0.31,-0.65,0.75,
0.27,-0.11,-0.56,-0.13,0.29,-0.73,0.72,
0.27,-0.11,-0.56,-0.13,0.28,-0.81,0.69,
0.273,0.20,-0.57,0.09,0.28,-0.81,0.69,
0.273,0.20,-0.57,0.09,0.27,-0.91,0.67,
0.274,0.20,-0.57,0.09,0.26,-1.02,0.65,
0.279,0.20,-0.57,0.09,0.26,-1.12,0.63,
0.279,0.20,-0.57,0.09,0.27,-1.21,0.60,
0.281,0.20,-0.57,0.09,0.28,-1.31,0.59,
0.283,-0.33,-0.33,0.86,0.28,-1.31,0.59,
0.283,-0.33,-0.33,0.86,0.29,-1.40,0.57,
0.284,-0.33,-0.33,0.86,0.32,-1.47,0.56,
0.286,-0.33,-0.33,0.86,0.34,-1.53,0.55,
0.289,-0.33,-0.33,0.86,0.36,-1.59,0.54,
0.29,-0.33,-0.33,0.86,0.37,-1.64,0.54,
0.293,-0.83,-0.12,0.92,0.37,-1.64,0.54,
0.293,-0.83,-0.12,0.92,0.39,-1.69,0.53,
0.294,-0.83,-0.12,0.92,0.39,-1.73,0.53,
0.312,-0.83,-0.12,0.92,0.39,-1.77,0.52,
0.313,-0.83,-0.12,0.92,0.39,-1.82,0.52,
0.313,-0.83,-0.12,0.92,0.38,-1.88,0.52,
0.313,-0.78,-0.01,0.35,0.38,-1.88,0.52,
0.313,-0.78,-0.01,0.35,0.36,-1.94,0.52,
0.313,-0.78,-0.01,0.35,0.34,-1.99,0.52,
0.314,-0.78,-0.01,0.35,0.32,-2.02,0.53,
0.314,-0.78,-0.01,0.35,0.31,-2.04,0.53,
0.314,-0.78,-0.01,0.35,0.29,-2.07,0.53,
0.314,-0.55,0.22,-0.08,0.29,-2.07,0.53,
0.314,-0.55,0.22,-0.08,0.25,-2.12,0.54,
0.314,-0.55,0.22,-0.08,0.21,-2.17,0.55,
0.321,-0.55,0.22,-0.08,0.17,-2.20,0.56,
0.321,-0.55,0.22,-0.08,0.13,-2.21,0.56,
0.321,-0.55,0.22,-0.08,0.09,-2.19,0.57,
0.335,-0.43,0.31,-0.73,0.09,-2.19,0.57,
0.336,-0.43,0.31,-0.73,0.06,-2.16,0.58,
0.336,-0.43,0.31,-0.73,0.02,-2.11,0.59,
0.336,-0.43,0.31,-0.73,-0.02,-2.06,0.60,
0.336,-0.43,0.31,-0.73,-0.06,-2.01,0.60,
0.337,-0.43,0.31,-0.73,-0.10,-1.95,0.61,
0.337,-0.40,0.64,-0.86,-0.10,-1.95,0.61,
0.337,-0.40,0.64,-0.86,-0.14,-1.90,0.62,
0.337,-0.40,0.64,-0.86,-0.18,-1.86,0.63,
0.337,-0.40,0.64,-0.86,-0.21,-1.82,0.64,
0.338,-0.40,0.64,-0.86,-0.25,-1.79,0.64,
0.344,-0.40,0.64,-0.86,-0.27,-1.76,0.65,
0.345,-0.23,0.89,-0.92,-0.27,-1.76,0.65,
0.345,-0.23,0.89,-0.92,-0.29,-1.72,0.65,
0.345,-0.23,0.89,-0.92,-0.31,-1.69,0.65,
0.346,-0.23,0.89,-0.92,-0.32,-1.66,0.65,
0.352,-0.23,0.89,-0.92,-0.34,-1.63,0.64,
0.352,-0.23,0.89,-0.92,-0.34,-1.61,0.63,
0.353,0.04,0.63,-0.47,-0.34,-1.61,0.63,
0.353,0.04,0.63,-0.47,-0.34,-1.58,0.62,
0.389,0.04,0.63,-0.47,-0.34,-1.56,0.61,
0.39,0.04,0.63,-0.47,-0.33,-1.55,0.59,
0.39,0.04,0.63,-0.47,-0.32,-1.54,0.57,
0.39,0.04,0.63,-0.47,-0.31,-1.53,0.56,
0.39,0.17,0.22,-0.02,-0.31,-1.53,0.56,
0.39,0.17,0.22,-0.02,-0.29,-1.53,0.54,
0.391,0.17,0.22,-0.02,-0.27,-1.53,0.52,
0.391,0.17,0.22,-0.02,-0.24,-1.52,0.51,
0.391,0.17,0.22,-0.02,-0.22,-1.52,0.49,
0.391,0.17,0.22,-0.02,-0.19,-1.52,0.47,
0.391,0.33,-0.11,0.16,-0.19,-1.52,0.47,
0.392,0.33,-0.11,0.16,-0.16,-1.51,0.45,
0.392,0.33,-0.11,0.16,-0.12,-1.51,0.43,
0.392,0.33,-0.11,0.16,-0.08,-1.50,0.41,
0.392,0.33,-0.11,0.16,-0.05,-1.49,0.38,
0.392,0.33,-0.11,0.16,-0.01,-1.47,0.36,
0.393,0.60,-0.20,0.27,-0.01,-1.47,0.36,
0.393,0.60,-0.20,0.27,0.02,-1.45,0.34,
0.393,0.60,-0.20,0.27,0.06,-1.43,0.32,
0.393,0.60,-0.20,0.27,0.10,-1.40,0.31,
0.393,0.60,-0.20,0.27,0.13,-1.38,0.30,
0.394,0.60,-0.20,0.27,0.15,-1.35,0.29,
0.394,0.47,-0.05,0.14,0.15,-1.35,0.29,
0.394,0.47,-0.05,0.14,0.18,-1.33,0.28,
0.398,0.47,-0.05,0.14,0.20,-1.30,0.27,
0.399,0.47,-0.05,0.14,0.21,-1.27,0.26,
0.399,0.47,-0.05,0.14,0.22,-1.24,0.26,
0.402,0.47,-0.05,0.14,0.23,-1.21,0.25,
0.406,0.13,-0.13,-0.28,0.23,-1.21,0.25,
0.406,0.13,-0.13,-0.28,0.24,-1.18,0.25,
0.406,0.13,-0.13,-0.28,0.24,-1.16,0.24,
0.406,0.13,-0.13,-0.28,0.24,-1.15,0.24,
0.408,0.13,-0.13,-0.28,0.24,-1.14,0.23,
0.41,0.13,-0.13,-0.28,0.23,-1.14,0.23,
0.412,0.32,-0.22,-0.09,0.23,-1.14,0.23,
0.413,0.32,-0.22,-0.09,0.24,-1.14,0.22,
0.413,0.32,-0.22,-0.09,0.24,-1.15,0.21,
0.416,0.32,-0.22,-0.09,0.24,-1.16,0.21,
0.418,0.32,-0.22,-0.09,0.25,-1.16,0.21,
0.421,0.32,-0.22,-0.09,0.26,-1.17,0.20,
0.423,0.46,-0.16,0.35,0.26,-1.17,0.20,
0.423,0.46,-0.16,0.35,0.26,-1.18,0.19,
0.424,0.46,-0.16,0.35,0.27,-1.19,0.19,
0.426,0.46,-0.16,0.35,0.28,-1.20,0.18,
0.428,0.46,-0.16,0.35,0.29,-1.21,0.18,
0.429,0.46,-0.16,0.35,0.31,-1.22,0.17,
0.432,0.53,-0.19,0.39,0.31,-1.22,0.17,
0.432,0.53,-0.19,0.39,0.32,-1.24,0.17,
0.434,0.53,-0.19,0.39,0.33,-1.25,0.16,
0.438,0.53,-0.19,0.39,0.35,-1.25,0.16,
0.438,0.53,-0.19,0.39,0.36,-1.26,0.15,
0.44,0.53,-0.19,0.39,0.38,-1.26,0.15,
0.442,0.58,-0.26,0.40,0.38,-1.26,0.15,
0.444,0.58,-0.26,0.40,0.40,-1.26,0.15,
0.444,0.58,-0.26,0.40,0.41,-1.25,0.16,
0.446,0.58,-0.26,0.40,0.43,-1.23,0.16,
0.448,0.58,-0.26,0.40,0.44,-1.21,0.17,
0.45,0.58,-0.26,0.40,0.45,-1.19,0.18,
0.452,0.08,-0.18,0.24,0.45,-1.19,0.18,
0.453,0.08,-0.18,0.24,0.46,-1.16,0.19,
0.454,0.08,-0.18,0.24,0.46,-1.12,0.20,
0.456,0.08,-0.18,0.24,0.46,-1.08,0.21,
0.458,0.08,-0.18,0.24,0.47,-1.04,0.23,
0.46,0.08,-0.18,0.24,0.47,-0.99,0.24,
0.463,-0.62,-0.12,-0.28,0.47,-0.99,0.24,
0.491,-0.62,-0.12,-0.28,0.46,-0.88,0.28,
0.492,-0.62,-0.12,-0.28,0.46,-0.84,0.29,
0.492,-0.62,-0.12,-0.28,0.44,-0.75,0.32,
0.493,-0.62,-0.12,-0.28,0.42,-0.64,0.36,
0.493,-0.62,-0.12,-0.28,0.40,-0.55,0.40,
0.493,-2.12,-0.46,-1.50,0.40,-0.55,0.40,
0.494,-2.12,-0.46,-1.50,0.38,-0.44,0.44,
0.494,-2.12,-0.46,-1.50,0.34,-0.34,0.49,
0.495,-2.12,-0.46,-1.50,0.30,-0.29,0.53,
0.495,-2.12,-0.46,-1.50,0.26,-0.27,0.56,
0.495,-2.12,-0.46,-1.50,0.20,-0.24,0.58,
0.496,-1.39,-0.95,-2.34,0.20,-0.24,0.58,
0.496,-1.39,-0.95,-2.34,0.18,-0.21,0.61,
0.497,-1.39,-0.95,-2.34,0.14,-0.21,0.63,
0.497,-1.39,-0.95,-2.34,0.08,-0.20,0.64,
0.498,-1.39,-0.95,-2.34,0.03,-0.19,0.65,
0.498,-1.39,-0.95,-2.34,0.03,-0.19,0.66,
0.498,-0.45,-1.17,-1.93,0.03,-0.19,0.66,
0.499,-0.45,-1.17,-1.93,0.00,-0.19,0.67,
0.499,-0.45,-1.17,-1.93,-0.01,-0.18,0.67,
0.5,-0.45,-1.17,-1.93,-0.01,-0.16,0.68,
0.5,-0.45,-1.17,-1.93,-0.01,-0.14,0.69,
0.5,-0.45,-1.17,-1.93,-0.01,-0.11,0.69,
0.512,-0.08,-0.79,-1.01,-0.01,-0.11,0.69,
0.512,-0.08,-0.79,-1.01,-0.00,-0.08,0.70,
0.512,-0.08,-0.79,-1.01,0.01,-0.05,0.71,
0.513,-0.08,-0.79,-1.01,0.02,-0.02,0.71,
0.513,-0.08,-0.79,-1.01,0.03,-0.01,0.72,
0.513,-0.08,-0.79,-1.01,0.04,0.00,0.73,
0.516,-0.33,-0.30,-0.60,0.04,0.00,0.73,
0.516,-0.33,-0.30,-0.60,0.05,0.01,0.74,
0.516,-0.33,-0.30,-0.60,0.06,0.02,0.75,
0.517,-0.33,-0.30,-0.60,0.07,0.03,0.76,
0.518,-0.33,-0.30,-0.60,0.08,0.03,0.76,
0.527,-0.33,-0.30,-0.60,0.10,0.04,0.77,
0.528,-0.52,-0.31,-0.48,0.10,0.04,0.77,
0.528,-0.52,-0.31,-0.48,0.11,0.05,0.77,
0.528,-0.52,-0.31,-0.48,0.12,0.07,0.77,
0.528,-0.52,-0.31,-0.48,0.14,0.10,0.77,
0.529,-0.52,-0.31,-0.48,0.15,0.13,0.76,
0.53,-0.52,-0.31,-0.48,0.17,0.16,0.76,
0.534,-0.75,-0.45,-0.38,0.17,0.16,0.76,
0.534,-0.75,-0.45,-0.38,0.19,0.19,0.76,
0.534,-0.75,-0.45,-0.38,0.21,0.22,0.76,
0.574,-0.75,-0.45,-0.38,0.22,0.23,0.75,
0.575,-0.75,-0.45,-0.38,0.24,0.25,0.76,
0.575,-0.75,-0.45,-0.38,0.26,0.26,0.76,
0.575,-0.81,-0.59,-0.12,0.26,0.26,0.76,
0.575,-0.81,-0.59,-0.12,0.28,0.28,0.77,
0.576,-0.81,-0.59,-0.12,0.30,0.30,0.78,
0.576,-0.81,-0.59,-0.12,0.33,0.32,0.79,
0.576,-0.81,-0.59,-0.12,0.35,0.33,0.79,
0.576,-0.81,-0.59,-0.12,0.37,0.35,0.81,
0.577,-0.67,-0.73,0.21,0.37,0.35,0.81,
0.577,-0.67,-0.73,0.21,0.39,0.37,0.82,
0.577,-0.67,-0.73,0.21,0.40,0.39,0.84,
0.577,-0.67,-0.73,0.21,0.41,0.40,0.86,
0.577,-0.67,-0.73,0.21,0.43,0.42,0.87,
0.578,-0.67,-0.73,0.21,0.44,0.42,0.90,
0.578,-0.88,-0.90,0.19,0.44,0.42,0.90,
0.578,-0.88,-0.90,0.19,0.44,0.43,0.92,
0.578,-0.88,-0.90,0.19,0.45,0.43,0.95,
0.578,-0.88,-0.90,0.19,0.45,0.43,0.97,
0.579,-0.88,-0.90,0.19,0.46,0.42,1.00,
0.579,-0.88,-0.90,0.19,0.47,0.40,1.02,
0.579,-1.24,-1.30,0.22,0.47,0.40,1.02,
0.579,-1.24,-1.30,0.22,0.48,0.38,1.05,
0.58,-1.24,-1.30,0.22,0.49,0.34,1.07,
0.58,-1.24,-1.30,0.22,0.51,0.31,1.09,
0.58,-1.24,-1.30,0.22,0.52,0.27,1.12,
0.58,-1.24,-1.30,0.22,0.55,0.24,1.13,
0.583,-1.48,-1.70,0.62,0.55,0.24,1.13,
0.584,-1.48,-1.70,0.62,0.56,0.20,1.14,
0.584,-1.48,-1.70,0.62,0.58,0.16,1.15,
0.604,-1.48,-1.70,0.62,0.58,0.13,1.15,
0.604,-1.48,-1.70,0.62,0.58,0.10,1.14,
0.604,-1.48,-1.70,0.62,0.55,0.07,1.12,
0.605,-1.22,-1.73,0.18,0.55,0.07,1.12,
0.605,-1.22,-1.73,0.18,0.55,0.05,1.10,
0.605,-1.22,-1.73,0.18,0.51,0.01,1.07,
0.605,-1.22,-1.73,0.18,0.45,-0.01,1.04,
0.605,-1.22,-1.73,0.18,0.38,-0.01,1.00,
0.605,-1.22,-1.73,0.18,0.33,0.00,0.98,
0.605,-0.94,-2.05,-0.41,0.33,0.00,0.98,
0.606,-0.94,-2.05,-0.41,0.25,0.02,0.95,
0.606,-0.94,-2.05,-0.41,0.17,0.05,0.93,
0.607,-0.94,-2.05,-0.41,0.07,0.08,0.91,
0.608,-0.94,-2.05,-0.41,-0.02,0.10,0.90,
0.611,-0.94,-2.05,-0.41,-0.12,0.12,0.90,
0.613,-1.35,-2.57,-0.95,-0.12,0.12,0.90,
0.614,-1.35,-2.57,-0.95,-0.23,0.14,0.89,
0.614,-1.35,-2.57,-0.95,-0.34,0.16,0.89,
0.616,-1.35,-2.57,-0.95,-0.45,0.18,0.88,
0.618,-1.35,-2.57,-0.95,-0.56,0.21,0.88,
0.622,-1.35,-2.57,-0.95,-0.66,0.23,0.88,
0.623,-1.87,-2.71,-1.26,-0.66,0.23,0.88,
0.623,-1.87,-2.71,-1.26,-0.77,0.25,0.88,
0.624,-1.87,-2.71,-1.26,-0.87,0.28,0.89,
0.626,-1.87,-2.71,-1.26,-0.96,0.31,0.89,
0.628,-1.87,-2.71,-1.26,-1.04,0.33,0.90,
0.645,-1.87,-2.71,-1.26,-1.12,0.36,0.90,
0.646,-2.06,-2.67,-1.28,-1.12,0.36,0.90,
0.646,-2.06,-2.67,-1.28,-1.19,0.39,0.91,
0.646,-2.06,-2.67,-1.28,-1.24,0.42,0.92,
0.646,-2.06,-2.67,-1.28,-1.28,0.42,0.93,
0.646,-2.06,-2.67,-1.28,-1.35,0.45,0.94,
0.646,-2.06,-2.67,-1.28,-1.40,0.47,0.94,
0.647,-1.94,-2.84,-1.01,-1.40,0.47,0.94,
0.647,-1.94,-2.84,-1.01,-1.42,0.48,0.95,
0.647,-1.94,-2.84,-1.01,-1.44,0.48,0.96,
0.647,-1.94,-2.84,-1.01,-1.46,0.49,0.97,
0.65,-1.94,-2.84,-1.01,-1.47,0.48,0.97,
0.65,-1.94,-2.84,-1.01,-1.48,0.47,0.97,
0.656,-1.46,-2.89,-0.72,-1.48,0.47,0.97,
0.656,-1.46,-2.89,-0.72,-1.48,0.45,0.98,
0.656,-1.46,-2.89,-0.72,-1.47,0.42,0.98,
0.656,-1.46,-2.89,-0.72,-1.46,0.38,0.98,
0.658,-1.46,-2.89,-0.72,-1.45,0.35,0.99,
0.66,-1.46,-2.89,-0.72,-1.44,0.31,0.99,
0.663,-1.04,-3.13,-0.37,-1.44,0.31,0.99,
0.663,-1.04,-3.13,-0.37,-1.42,0.29,1.00,
0.663,-1.04,-3.13,-0.37,-1.41,0.27,1.00,
0.666,-1.04,-3.13,-0.37,-1.40,0.26,1.01,
0.668,-1.04,-3.13,-0.37,-1.40,0.26,1.01,
0.67,-1.04,-3.13,-0.37,-1.41,0.28,1.00,
0.672,-0.47,-3.25,-0.96,-1.41,0.28,1.00,
0.672,-0.47,-3.25,-0.96,-1.43,0.32,0.98,
0.675,-0.47,-3.25,-0.96,-1.46,0.36,0.96,
0.676,-0.47,-3.25,-0.96,-1.50,0.43,0.93,
0.678,-0.47,-3.25,-0.96,-1.56,0.50,0.88,
0.68,-0.47,-3.25,-0.96,-1.63,0.55,0.83,
0.682,1.36,-2.97,-2.03,-1.63,0.55,0.83,
0.682,1.36,-2.97,-2.03,-1.71,0.56,0.78,
0.684,1.36,-2.97,-2.03,-1.79,0.50,0.74,
0.686,1.36,-2.97,-2.03,-1.86,0.41,0.70,
0.688,1.36,-2.97,-2.03,-1.94,0.30,0.67,
0.691,1.36,-2.97,-2.03,-2.02,0.19,0.64,
0.692,1.26,-3.85,-2.33,-2.02,0.19,0.64,
0.692,1.26,-3.85,-2.33,-2.10,0.11,0.61,
0.693,1.26,-3.85,-2.33,-2.19,0.04,0.58,
0.696,1.26,-3.85,-2.33,-2.29,-0.03,0.55,
0.698,1.26,-3.85,-2.33,-2.40,-0.10,0.51,
0.7,1.26,-3.85,-2.33,-2.50,-0.19,0.47,
0.703,1.25,-5.25,-3.33,-2.50,-0.19,0.47,
0.704,1.25,-5.25,-3.33,-2.62,-0.27,0.43,
0.704,1.25,-5.25,-3.33,-2.73,-0.36,0.37,
0.706,1.25,-5.25,-3.33,-2.85,-0.43,0.31,
0.708,1.25,-5.25,-3.33,-2.96,-0.49,0.25,
0.71,1.25,-5.25,-3.33,-3.08,-0.53,0.19,
0.713,1.78,-6.41,-3.85,-3.08,-0.53,0.19,
0.713,1.78,-6.41,-3.85,-3.19,-0.57,0.13,
0.714,1.78,-6.41,-3.85,-3.30,-0.60,0.08,
0.716,1.78,-6.41,-3.85,-3.41,-0.62,0.04,
0.717,1.78,-6.41,-3.85,-3.51,-0.64,0.01,
0.72,1.78,-6.41,-3.85,-3.61,-0.65,-0.01,
0.723,0.96,-6.71,-3.42,-3.61,-0.65,-0.01,
0.724,0.96,-6.71,-3.42,-3.70,-0.65,-0.02,
0.724,0.96,-6.71,-3.42,-3.80,-0.65,-0.01,
0.727,0.96,-6.71,-3.42,-3.89,-0.64,0.01,
0.728,0.96,-6.71,-3.42,-3.98,-0.62,0.05,
0.73,0.96,-6.71,-3.42,-4.06,-0.61,0.10,
0.732,-1.16,-5.28,-3.12,-4.06,-0.61,0.10,
0.733,-1.16,-5.28,-3.12,-4.14,-0.58,0.16,
0.734,-1.16,-5.28,-3.12,-4.22,-0.55,0.23,
0.752,-1.16,-5.28,-3.12,-4.28,-0.52,0.32,
0.752,-1.16,-5.28,-3.12,-4.34,-0.49,0.42,
0.753,-1.16,-5.28,-3.12,-4.39,-0.45,0.53,
0.753,-3.42,-3.27,-2.58,-4.39,-0.45,0.53,
0.754,-3.42,-3.27,-2.58,-4.42,-0.42,0.66,
0.754,-3.42,-3.27,-2.58,-4.44,-0.39,0.80,
0.754,-3.42,-3.27,-2.58,-4.44,-0.36,0.94,
0.755,-3.42,-3.27,-2.58,-4.43,-0.33,1.10,
0.755,-3.42,-3.27,-2.58,-4.41,-0.31,1.26,
0.755,-5.02,-1.33,-1.38,-4.41,-0.31,1.26,
0.756,-5.02,-1.33,-1.38,-4.38,-0.30,1.42,
0.756,-5.02,-1.33,-1.38,-4.34,-0.29,1.58,
0.758,-5.02,-1.33,-1.38,-4.28,-0.29,1.74,
0.758,-5.02,-1.33,-1.38,-4.23,-0.30,1.89,
0.761,-5.02,-1.33,-1.38,-4.15,-0.32,2.03,
0.765,-4.65,-0.49,-0.31,-4.15,-0.32,2.03,
0.765,-4.65,-0.49,-0.31,-4.08,-0.34,2.16,
0.766,-4.65,-0.49,-0.31,-3.99,-0.36,2.28,
0.768,-4.65,-0.49,-0.31,-3.90,-0.38,2.37,
0.768,-4.65,-0.49,-0.31,-3.81,-0.40,2.46,
0.776,-4.65,-0.49,-0.31,-3.71,-0.41,2.52,
0.776,-1.91,-0.54,0.58,-3.71,-0.41,2.52,
0.776,-1.91,-0.54,0.58,-3.61,-0.42,2.57,
0.776,-1.91,-0.54,0.58,-3.51,-0.43,2.59,
0.776,-1.91,-0.54,0.58,-3.41,-0.43,2.60,
0.778,-1.91,-0.54,0.58,-3.31,-0.44,2.58,
0.78,-1.91,-0.54,0.58,-3.21,-0.44,2.55,
0.782,1.65,-1.05,0.81,-3.21,-0.44,2.55,
0.782,1.65,-1.05,0.81,-3.12,-0.44,2.50,
0.785,1.65,-1.05,0.81,-3.04,-0.45,2.45,
0.786,1.65,-1.05,0.81,-2.97,-0.47,2.37,
0.789,1.65,-1.05,0.81,-2.91,-0.49,2.29,
0.79,1.65,-1.05,0.81,-2.85,-0.53,2.18,
0.793,4.33,-2.00,0.48,-2.85,-0.53,2.18,
0.793,4.33,-2.00,0.48,-2.81,-0.57,2.07,
0.794,4.33,-2.00,0.48,-2.77,-0.62,1.95,
0.812,4.33,-2.00,0.48,-2.75,-0.66,1.82,
0.812,4.33,-2.00,0.48,-2.75,-0.70,1.68,
0.813,4.33,-2.00,0.48,-2.75,-0.73,1.54,
0.813,6.47,-3.52,-0.57,-2.75,-0.73,1.54,
0.813,6.47,-3.52,-0.57,-2.78,-0.75,1.40,
0.813,6.47,-3.52,-0.57,-2.81,-0.76,1.25,
0.814,6.47,-3.52,-0.57,-2.87,-0.77,1.12,
0.814,6.47,-3.52,-0.57,-2.93,-0.77,0.98,
0.814,6.47,-3.52,-0.57,-3.01,-0.76,0.86,
0.814,6.96,-4.03,-2.30,-3.01,-0.76,0.86,
0.815,6.96,-4.03,-2.30,-3.15,-0.77,0.68,
0.815,6.96,-4.03,-2.30,-3.20,-0.77,0.62,
0.819,6.96,-4.03,-2.30,-3.30,-0.78,0.52,
0.819,6.96,-4.03,-2.30,-3.41,-0.78,0.42,
0.821,6.96,-4.03,-2.30,-3.53,-0.79,0.32,
0.822,6.62,-3.64,-3.41,-3.53,-0.79,0.32,
0.822,6.62,-3.64,-3.41,-3.65,-0.80,0.23,
0.826,6.62,-3.64,-3.41,-3.78,-0.81,0.15,
0.827,6.62,-3.64,-3.41,-3.91,-0.81,0.08,
0.828,6.62,-3.64,-3.41,-4.04,-0.81,0.02,
0.831,6.62,-3.64,-3.41,-4.16,-0.81,-0.03,
0.833,5.41,-2.88,-3.48,-4.16,-0.81,-0.03,
0.835,5.41,-2.88,-3.48,-4.30,-0.80,-0.07,
0.836,5.41,-2.88,-3.48,-4.42,-0.80,-0.09,
0.839,5.41,-2.88,-3.48,-4.54,-0.82,-0.10,
0.84,5.41,-2.88,-3.48,-4.66,-0.83,-0.10,
0.84,5.41,-2.88,-3.48,-4.76,-0.85,-0.08,
0.842,3.44,-2.21,-2.85,-4.76,-0.85,-0.08,
0.842,3.44,-2.21,-2.85,-4.86,-0.88,-0.05,
0.843,3.44,-2.21,-2.85,-4.94,-0.90,-0.01,
0.846,3.44,-2.21,-2.85,-5.00,-0.92,0.03,
0.848,3.44,-2.21,-2.85,-5.06,-0.93,0.09,
0.851,3.44,-2.21,-2.85,-5.10,-0.94,0.15,
0.854,2.05,-1.19,-1.23,-5.10,-0.94,0.15,
0.854,2.05,-1.19,-1.23,-5.14,-0.94,0.22,
0.855,2.05,-1.19,-1.23,-5.16,-0.94,0.30,
0.856,2.05,-1.19,-1.23,-5.18,-0.94,0.38,
0.858,2.05,-1.19,-1.23,-5.18,-0.94,0.47,
0.86,2.05,-1.19,-1.23,-5.19,-0.93,0.56,
0.863,1.22,0.18,-0.50,-5.19,-0.93,0.56,
0.864,1.22,0.18,-0.50,-5.18,-0.93,0.66,
0.864,1.22,0.18,-0.50,-5.17,-0.93,0.76,
0.865,1.22,0.18,-0.50,-5.14,-0.94,0.85,
0.872,1.22,0.18,-0.50,-5.10,-0.94,0.95,
0.872,1.22,0.18,-0.50,-5.06,-0.95,1.04,
0.873,1.07,1.07,0.72,-5.06,-0.95,1.04,
0.873,1.07,1.07,0.72,-5.00,-0.95,1.13,
0.874,1.07,1.07,0.72,-4.94,-0.95,1.21,
0.876,1.07,1.07,0.72,-4.87,-0.94,1.28,
0.88,1.07,1.07,0.72,-4.79,-0.94,1.35,
0.88,1.07,1.07,0.72,-4.71,-0.94,1.41,
0.883,1.99,1.55,1.85,-4.71,-0.94,1.41,
0.883,1.99,1.55,1.85,-4.63,-0.95,1.46,
0.887,1.99,1.55,1.85,-4.56,-0.95,1.51,
0.887,1.99,1.55,1.85,-4.48,-0.96,1.54,
0.888,1.99,1.55,1.85,-4.40,-0.97,1.56,
0.891,1.99,1.55,1.85,-4.32,-0.98,1.57,
0.893,3.73,1.57,1.98,-4.32,-0.98,1.57,
0.893,3.73,1.57,1.98,-4.24,-0.98,1.57,
0.894,3.73,1.57,1.98,-4.16,-0.98,1.56,
0.896,3.73,1.57,1.98,-4.08,-0.97,1.54,
0.898,3.73,1.57,1.98,-4.00,-0.96,1.51,
0.899,3.73,1.57,1.98,-3.91,-0.93,1.48,
0.902,5.94,1.28,2.37,-3.91,-0.93,1.48,
0.902,5.94,1.28,2.37,-3.83,-0.90,1.44,
0.904,5.94,1.28,2.37,-3.74,-0.86,1.40,
0.906,5.94,1.28,2.37,-3.66,-0.82,1.35,
0.907,5.94,1.28,2.37,-3.58,-0.79,1.30,
0.909,5.94,1.28,2.37,-3.51,-0.77,1.25,
0.912,7.40,1.18,2.29,-3.51,-0.77,1.25,
0.912,7.40,1.18,2.29,-3.44,-0.75,1.20,
0.914,7.40,1.18,2.29,-3.39,-0.74,1.14,
0.916,7.40,1.18,2.29,-3.33,-0.73,1.08,
0.918,7.40,1.18,2.29,-3.29,-0.73,1.01,
0.92,7.40,1.18,2.29,-3.25,-0.73,0.95,
0.922,8.12,1.37,1.82,-3.25,-0.73,0.95,
0.922,8.12,1.37,1.82,-3.21,-0.74,0.89,
0.923,8.12,1.37,1.82,-3.17,-0.75,0.82,
0.925,8.12,1.37,1.82,-3.14,-0.77,0.76,
0.927,8.12,1.37,1.82,-3.12,-0.78,0.70,
0.929,8.12,1.37,1.82,-3.09,-0.80,0.64,
0.932,7.98,1.61,1.80,-3.09,-0.80,0.64,
0.933,7.98,1.61,1.80,-3.08,-0.82,0.59,
0.934,7.98,1.61,1.80,-3.06,-0.84,0.54,
0.935,7.98,1.61,1.80,-3.05,-0.87,0.49,
0.938,7.98,1.61,1.80,-3.05,-0.88,0.45,
0.939,7.98,1.61,1.80,-3.04,-0.90,0.40,
0.942,7.54,1.96,1.77,-3.04,-0.90,0.40,
0.942,7.54,1.96,1.77,-3.03,-0.90,0.36,
0.943,7.54,1.96,1.77,-3.03,-0.91,0.32,
0.946,7.54,1.96,1.77,-3.02,-0.91,0.28,
0.948,7.54,1.96,1.77,-3.01,-0.91,0.24,
0.951,7.54,1.96,1.77,-3.00,-0.91,0.20,
0.954,7.23,2.29,2.21,-3.00,-0.91,0.20,
0.955,7.23,2.29,2.21,-3.00,-0.92,0.15,
0.955,7.23,2.29,2.21,-2.99,-0.92,0.11,
0.956,7.23,2.29,2.21,-2.98,-0.94,0.06,
0.958,7.23,2.29,2.21,-2.96,-0.95,0.01,
0.96,7.23,2.29,2.21,-2.95,-0.99,-0.04,
0.962,7.30,2.67,3.14,-2.95,-0.99,-0.04,
0.985,7.30,2.67,3.14,-2.93,-1.03,-0.10,
0.985,7.30,2.67,3.14,-2.91,-1.07,-0.15,
0.986,7.30,2.67,3.14,-2.88,-1.11,-0.21,
0.986,7.30,2.67,3.14,-2.86,-1.14,-0.27,
0.986,7.30,2.67,3.14,-2.82,-1.17,-0.32,
0.987,7.34,2.54,4.09,-2.82,-1.17,-0.32,
0.987,7.34,2.54,4.09,-2.79,-1.19,-0.38,
0.988,7.34,2.54,4.09,-2.75,-1.21,-0.43,
0.988,7.34,2.54,4.09,-2.70,-1.23,-0.48,
0.989,7.34,2.54,4.09,-2.65,-1.24,-0.52,
0.989,7.34,2.54,4.09,-2.61,-1.26,-0.57,
0.989,7.22,2.51,4.87,-2.61,-1.26,-0.57,
0.99,7.22,2.51,4.87,-2.55,-1.28,-0.61,
0.99,7.22,2.51,4.87,-2.50,-1.31,-0.65,
0.991,7.22,2.51,4.87,-2.44,-1.35,-0.69,
0.991,7.22,2.51,4.87,-2.37,-1.39,-0.72,
0.992,7.22,2.51,4.87,-2.31,-1.45,-0.75,
0.992,6.95,2.21,5.43,-2.31,-1.45,-0.75,
0.993,6.95,2.21,5.43,-2.25,-1.50,-0.78,
1.001,6.95,2.21,5.43,-2.18,-1.56,-0.81,
1.001,6.95,2.21,5.43,-2.12,-1.62,-0.82,
1.002,6.95,2.21,5.43,-2.05,-1.69,-0.83,
1.002,6.95,2.21,5.43,-2.00,-1.75,-0.83,
1.003,6.19,2.12,5.34,-2.00,-1.75,-0.83,
1.005,6.19,2.12,5.34,-1.94,-1.81,-0.82,
1.005,6.19,2.12,5.34,-1.88,-1.88,-0.80,
1.006,6.19,2.12,5.34,-1.83,-1.95,-0.78,
1.008,6.19,2.12,5.34,-1.78,-2.01,-0.74,
1.01,6.19,2.12,5.34,-1.74,-2.07,-0.70,
1.012,4.84,1.91,4.99,-1.74,-2.07,-0.70,
1.013,4.84,1.91,4.99,-1.69,-2.12,-0.65,
1.014,4.84,1.91,4.99,-1.65,-2.16,-0.60,
1.016,4.84,1.91,4.99,-1.62,-2.21,-0.54,
1.018,4.84,1.91,4.99,-1.58,-2.25,-0.48,
1.02,4.84,1.91,4.99,-1.56,-2.28,-0.41,
1.022,3.75,1.93,4.46,-1.56,-2.28,-0.41,
1.023,3.75,1.93,4.46,-1.54,-2.32,-0.34,
1.024,3.75,1.93,4.46,-1.53,-2.36,-0.27,
1.026,3.75,1.93,4.46,-1.53,-2.39,-0.20,
1.028,3.75,1.93,4.46,-1.53,-2.42,-0.13,
1.03,3.75,1.93,4.46,-1.53,-2.45,-0.07,
1.042,2.90,2.31,3.66,-1.53,-2.45,-0.07,
1.043,2.90,2.31,3.66,-1.54,-2.48,0.00,
1.043,2.90,2.31,3.66,-1.56,-2.51,0.07,
1.044,2.90,2.31,3.66,-1.57,-2.53,0.13,
1.044,2.90,2.31,3.66,-1.59,-2.56,0.18,
1.044,2.90,2.31,3.66,-1.61,-2.58,0.24,
1.045,2.21,2.84,3.27,-1.61,-2.58,0.24,
1.045,2.21,2.84,3.27,-1.63,-2.60,0.29,
1.045,2.21,2.84,3.27,-1.64,-2.61,0.33,
1.049,2.21,2.84,3.27,-1.66,-2.61,0.37,
1.05,2.21,2.84,3.27,-1.66,-2.61,0.40,
1.05,2.21,2.84,3.27,-1.67,-2.59,0.43,
1.084,1.73,3.30,3.38,-1.67,-2.59,0.43,
1.085,1.73,3.30,3.38,-1.67,-2.57,0.45,
1.085,1.73,3.30,3.38,-1.66,-2.54,0.46,
1.085,1.73,3.30,3.38,-1.65,-2.51,0.47,
1.085,1.73,3.30,3.38,-1.63,-2.48,0.48,
1.086,1.73,3.30,3.38,-1.61,-2.43,0.48,
1.086,1.38,4.03,3.82,-1.61,-2.43,0.48,
1.086,1.38,4.03,3.82,-1.59,-2.39,0.47,
1.086,1.38,4.03,3.82,-1.57,-2.34,0.47,
1.087,1.38,4.03,3.82,-1.54,-2.29,0.45,
1.087,1.38,4.03,3.82,-1.50,-2.23,0.44,
1.087,1.38,4.03,3.82,-1.47,-2.17,0.42,
1.087,1.00,4.27,3.86,-1.47,-2.17,0.42,
1.088,1.00,4.27,3.86,-1.42,-2.11,0.39,
1.088,1.00,4.27,3.86,-1.37,-2.06,0.37,
1.088,1.00,4.27,3.86,-1.32,-2.02,0.34,
1.088,1.00,4.27,3.86,-1.26,-1.98,0.31,
1.088,1.00,4.27,3.86,-1.19,-1.95,0.28,
1.089,0.71,4.38,4.56,-1.19,-1.95,0.28,
1.089,0.71,4.38,4.56,-1.12,-1.92,0.24,
1.089,0.71,4.38,4.56,-1.04,-1.90,0.20,
1.09,0.71,4.38,4.56,-0.96,-1.88,0.17,
1.09,0.71,4.38,4.56,-0.88,-1.87,0.14,
1.09,0.71,4.38,4.56,-0.80,-1.86,0.11,
1.094,-0.02,4.23,4.57,-0.80,-1.86,0.11,
1.094,-0.02,4.23,4.57,-0.72,-1.85,0.08,
1.095,-0.02,4.23,4.57,-0.63,-1.85,0.05,
1.096,-0.02,4.23,4.57,-0.54,-1.85,0.03,
1.098,-0.02,4.23,4.57,-0.46,-1.85,0.01,
1.102,-0.02,4.23,4.57,-0.36,-1.85,-0.02,
1.105,-0.78,4.00,4.72,-0.36,-1.85,-0.02,
1.106,-0.78,4.00,4.72,-0.27,-1.84,-0.04,
1.106,-0.78,4.00,4.72,-0.17,-1.82,-0.07,
1.106,-0.78,4.00,4.72,-0.08,-1.79,-0.10,
1.108,-0.78,4.00,4.72,0.02,-1.75,-0.13,
1.109,-0.78,4.00,4.72,0.12,-1.70,-0.16,
1.112,-0.70,3.60,4.51,0.12,-1.70,-0.16,
1.113,-0.70,3.60,4.51,0.22,-1.64,-0.20,
1.114,-0.70,3.60,4.51,0.31,-1.58,-0.23,
1.116,-0.70,3.60,4.51,0.41,-1.51,-0.26,
1.118,-0.70,3.60,4.51,0.50,-1.44,-0.29,
1.12,-0.70,3.60,4.51,0.58,-1.36,-0.31,
1.122,-0.77,3.36,3.70,0.58,-1.36,-0.31,
1.123,-0.77,3.36,3.70,0.66,-1.28,-0.33,
1.124,-0.77,3.36,3.70,0.73,-1.21,-0.35,
1.126,-0.77,3.36,3.70,0.80,-1.13,-0.36,
1.127,-0.77,3.36,3.70,0.86,-1.06,-0.36,
1.146,-0.77,3.36,3.70,0.92,-0.99,-0.36,
1.147,-1.42,2.75,2.80,0.92,-0.99,-0.36,
1.147,-1.42,2.75,2.80,0.98,-0.93,-0.36,
1.147,-1.42,2.75,2.80,1.04,-0.88,-0.34,
1.147,-1.42,2.75,2.80,1.10,-0.83,-0.33,
1.148,-1.42,2.75,2.80,1.15,-0.78,-0.31,
1.148,-1.42,2.75,2.80,1.19,-0.73,-0.28,
1.148,-2.32,2.46,2.59,1.19,-0.73,-0.28,
1.149,-2.32,2.46,2.59,1.32,-0.58,-0.18,
1.149,-2.32,2.46,2.59,1.36,-0.53,-0.14,
1.149,-2.32,2.46,2.59,1.36,-0.53,-0.14,
1.154,-2.32,2.46,2.59,1.38,-0.48,-0.10,
1.155,-2.32,2.46,2.59,1.38,-0.48,-0.10,
1.155,-2.84,2.34,1.86,1.38,-0.48,-0.10,
1.155,-2.84,2.34,1.86,1.41,-0.43,-0.07,
1.155,-2.84,2.34,1.86,1.44,-0.39,-0.04,
1.163,-2.84,2.34,1.86,1.46,-0.36,-0.01,
1.164,-2.84,2.34,1.86,1.49,-0.33,0.01,
1.165,-2.84,2.34,1.86,1.52,-0.31,0.04,
1.165,-2.30,2.60,2.13,1.52,-0.31,0.04,
1.165,-2.30,2.60,2.13,1.56,-0.29,0.07,
1.166,-2.30,2.60,2.13,1.58,-0.29,0.08,
1.166,-2.30,2.60,2.13,1.61,-0.29,0.09,
1.169,-2.30,2.60,2.13,1.64,-0.28,0.11,
1.172,-2.30,2.60,2.13,1.67,-0.28,0.12,
1.172,-1.71,2.92,2.35,1.67,-0.28,0.12,
1.172,-1.71,2.92,2.35,1.70,-0.29,0.13,
1.174,-1.71,2.92,2.35,1.72,-0.29,0.13,
1.176,-1.71,2.92,2.35,1.73,-0.30,0.14,
1.178,-1.71,2.92,2.35,1.75,-0.32,0.15,
1.18,-1.71,2.92,2.35,1.76,-0.34,0.15,
1.187,-1.21,2.76,1.97,1.76,-0.34,0.15,
1.188,-1.21,2.76,1.97,1.78,-0.36,0.16,
1.188,-1.21,2.76,1.97,1.79,-0.38,0.16,
1.188,-1.21,2.76,1.97,1.80,-0.40,0.16,
1.189,-1.21,2.76,1.97,1.80,-0.42,0.17,
1.19,-1.21,2.76,1.97,1.80,-0.45,0.17,
1.192,-0.97,2.18,1.27,1.80,-0.45,0.17,
1.192,-0.97,2.18,1.27,1.79,-0.47,0.17,
1.194,-0.97,2.18,1.27,1.78,-0.48,0.17,
1.196,-0.97,2.18,1.27,1.75,-0.49,0.18,
1.197,-0.97,2.18,1.27,1.73,-0.48,0.18,
1.209,-0.97,2.18,1.27,1.70,-0.47,0.19,
1.209,-1.47,1.79,0.14,1.70,-0.47,0.19,
1.21,-1.47,1.79,0.14,1.68,-0.46,0.20,
1.21,-1.47,1.79,0.14,1.65,-0.44,0.21,
1.21,-1.47,1.79,0.14,1.62,-0.41,0.23,
1.21,-1.47,1.79,0.14,1.59,-0.38,0.24,
1.21,-1.47,1.79,0.14,1.55,-0.35,0.25,
1.212,-2.27,1.25,-0.52,1.55,-0.35,0.25,
1.212,-2.27,1.25,-0.52,1.52,-0.31,0.26,
1.213,-2.27,1.25,-0.52,1.48,-0.27,0.28,
1.216,-2.27,1.25,-0.52,1.44,-0.22,0.28,
1.217,-2.27,1.25,-0.52,1.40,-0.16,0.29,
1.22,-2.27,1.25,-0.52,1.35,-0.10,0.28,
1.222,-2.22,0.75,-1.50,1.35,-0.10,0.28,
1.222,-2.22,0.75,-1.50,1.30,-0.03,0.27,
1.224,-2.22,0.75,-1.50,1.26,0.03,0.27,
1.225,-2.22,0.75,-1.50,1.21,0.10,0.27,
1.227,-2.22,0.75,-1.50,1.16,0.16,0.28,
1.229,-2.22,0.75,-1.50,1.12,0.22,0.30,
1.232,-2.77,-0.35,-2.01,1.12,0.22,0.30,
1.232,-2.77,-0.35,-2.01,1.07,0.28,0.31,
1.234,-2.77,-0.35,-2.01,1.02,0.35,0.33,
1.236,-2.77,-0.35,-2.01,0.97,0.42,0.35,
1.237,-2.77,-0.35,-2.01,0.93,0.48,0.37,
1.24,-2.77,-0.35,-2.01,0.89,0.55,0.38,
1.242,-2.97,-1.69,-2.03,0.89,0.55,0.38,
1.242,-2.97,-1.69,-2.03,0.86,0.62,0.39,
1.243,-2.97,-1.69,-2.03,0.83,0.68,0.40,
1.246,-2.97,-1.69,-2.03,0.79,0.74,0.40,
1.247,-2.97,-1.69,-2.03,0.76,0.79,0.40,
1.25,-2.97,-1.69,-2.03,0.73,0.84,0.41,
1.252,-2.52,-2.22,-1.95,0.73,0.84,0.41,
1.253,-2.52,-2.22,-1.95,0.70,0.90,0.40,
1.253,-2.52,-2.22,-1.95,0.66,0.95,0.40,
1.256,-2.52,-2.22,-1.95,0.63,1.00,0.40,
1.261,-2.52,-2.22,-1.95,0.59,1.06,0.39,
1.261,-2.52,-2.22,-1.95,0.55,1.11,0.38,
1.262,-2.32,-2.41,-2.03,0.55,1.11,0.38,
1.262,-2.32,-2.41,-2.03,0.52,1.16,0.37,
1.264,-2.32,-2.41,-2.03,0.48,1.21,0.36,
1.266,-2.32,-2.41,-2.03,0.45,1.27,0.34,
1.268,-2.32,-2.41,-2.03,0.42,1.33,0.32,
1.27,-2.32,-2.41,-2.03,0.38,1.39,0.30,
1.272,-1.93,-1.96,-1.46,0.38,1.39,0.30,
1.273,-1.93,-1.96,-1.46,0.36,1.44,0.28,
1.273,-1.93,-1.96,-1.46,0.34,1.49,0.26,
1.275,-1.93,-1.96,-1.46,0.32,1.53,0.23,
1.277,-1.93,-1.96,-1.46,0.30,1.55,0.20,
1.28,-1.93,-1.96,-1.46,0.29,1.57,0.17,
1.283,-1.07,-1.21,-0.15,0.29,1.57,0.17,
1.283,-1.07,-1.21,-0.15,0.29,1.57,0.14,
1.284,-1.07,-1.21,-0.15,0.30,1.53,0.09,
1.286,-1.07,-1.21,-0.15,0.31,1.49,0.06,
1.289,-1.07,-1.21,-0.15,0.32,1.47,0.05,
1.29,-1.07,-1.21,-0.15,0.35,1.40,0.02,
1.292,-0.28,-0.33,1.49,0.35,1.40,0.02,
1.292,-0.28,-0.33,1.49,0.39,1.33,-0.01,
1.294,-0.28,-0.33,1.49,0.43,1.26,-0.03,
1.318,-0.28,-0.33,1.49,0.48,1.18,-0.04,
1.319,-0.28,-0.33,1.49,0.53,1.09,-0.05,
1.319,-0.28,-0.33,1.49,0.59,1.01,-0.05,
1.32,-0.22,0.37,2.70,0.59,1.01,-0.05,
1.32,-0.22,0.37,2.70,0.64,0.94,-0.05,
1.321,-0.22,0.37,2.70,0.71,0.87,-0.05,
1.321,-0.22,0.37,2.70,0.79,0.79,-0.02,
1.321,-0.22,0.37,2.70,0.82,0.77,-0.02,
1.322,-0.22,0.37,2.70,0.88,0.72,0.01,
1.322,-0.52,0.54,2.56,0.88,0.72,0.01,
1.323,-0.52,0.54,2.56,0.93,0.68,0.04,
1.323,-0.52,0.54,2.56,0.98,0.64,0.06,
1.323,-0.52,0.54,2.56,1.04,0.61,0.09,
1.324,-0.52,0.54,2.56,1.09,0.58,0.13,
1.324,-0.52,0.54,2.56,1.14,0.56,0.16,
1.325,-0.84,0.51,2.58,1.14,0.56,0.16,
1.325,-0.84,0.51,2.58,1.19,0.55,0.19,
1.325,-0.84,0.51,2.58,1.24,0.54,0.22,
1.326,-0.84,0.51,2.58,1.29,0.54,0.26,
1.332,-0.84,0.51,2.58,1.33,0.54,0.29,
1.333,-0.84,0.51,2.58,1.37,0.54,0.32,
1.333,-0.91,0.16,2.17,1.37,0.54,0.32,
1.333,-0.91,0.16,2.17,1.41,0.54,0.35,
1.334,-0.91,0.16,2.17,1.45,0.54,0.39,
1.336,-0.91,0.16,2.17,1.48,0.54,0.42,
1.338,-0.91,0.16,2.17,1.51,0.54,0.46,
1.339,-0.91,0.16,2.17,1.54,0.55,0.49,
1.342,-0.42,-0.47,1.50,1.54,0.55,0.49,
1.342,-0.42,-0.47,1.50,1.56,0.55,0.52,
1.344,-0.42,-0.47,1.50,1.59,0.55,0.54,
1.345,-0.42,-0.47,1.50,1.62,0.54,0.57,
1.348,-0.42,-0.47,1.50,1.64,0.53,0.59,
1.355,-0.42,-0.47,1.50,1.67,0.52,0.61,
1.356,1.01,-0.83,1.29,1.67,0.52,0.61,
1.356,1.01,-0.83,1.29,1.70,0.49,0.63,
1.356,1.01,-0.83,1.29,1.72,0.46,0.65,
1.356,1.01,-0.83,1.29,1.74,0.43,0.67,
1.358,1.01,-0.83,1.29,1.77,0.39,0.68,
1.433,1.01,-0.83,1.29,1.78,0.35,0.69,
1.433,2.09,-0.94,1.23,1.78,0.35,0.69,
1.433,2.09,-0.94,1.23,1.79,0.31,0.71,
1.434,2.09,-0.94,1.23,1.80,0.27,0.72,
1.434,2.09,-0.94,1.23,1.80,0.22,0.73,
1.434,2.09,-0.94,1.23,1.80,0.17,0.73,
1.434,2.09,-0.94,1.23,1.81,0.13,0.74,
1.434,2.80,-0.63,1.07,1.81,0.13,0.74,
1.434,2.80,-0.63,1.07,1.81,0.08,0.75,
1.435,2.80,-0.63,1.07,1.81,0.04,0.75,
1.435,2.80,-0.63,1.07,1.81,-0.01,0.76,
1.435,2.80,-0.63,1.07,1.82,-0.05,0.76,
1.435,2.80,-0.63,1.07,1.83,-0.10,0.76,
1.435,3.29,-0.10,1.33,1.83,-0.10,0.76,
1.435,3.29,-0.10,1.33,1.84,-0.14,0.76,
1.435,3.29,-0.10,1.33,1.85,-0.19,0.76,
1.436,3.29,-0.10,1.33,1.87,-0.23,0.76,
1.436,3.29,-0.10,1.33,1.89,-0.28,0.76,
1.436,3.29,-0.10,1.33,1.91,-0.32,0.76,
1.436,3.56,0.21,1.69,1.91,-0.32,0.76,
1.436,3.56,0.21,1.69,1.93,-0.37,0.76,
1.436,3.56,0.21,1.69,1.96,-0.45,0.76,
1.437,3.56,0.21,1.69,1.98,-0.50,0.76,
1.437,3.56,0.21,1.69,1.99,-0.52,0.76,
1.437,3.56,0.21,1.69,2.01,-0.57,0.76,
1.437,3.51,0.13,1.46,2.01,-0.57,0.76,
1.437,3.51,0.13,1.46,2.03,-0.61,0.75,
1.437,3.51,0.13,1.46,2.04,-0.65,0.75,
1.437,3.51,0.13,1.46,2.06,-0.68,0.75,
1.438,3.51,0.13,1.46,2.08,-0.71,0.74,
1.438,3.51,0.13,1.46,2.09,-0.74,0.73,
1.438,3.41,-0.30,1.40,2.09,-0.74,0.73,
1.438,3.41,-0.30,1.40,2.10,-0.77,0.73,
1.438,3.41,-0.30,1.40,2.12,-0.80,0.72,
1.438,3.41,-0.30,1.40,2.13,-0.83,0.71,
1.438,3.41,-0.30,1.40,2.13,-0.86,0.69,
1.439,3.41,-0.30,1.40,2.14,-0.89,0.68,
1.439,3.33,-0.66,1.31,2.14,-0.89,0.68,
1.439,3.33,-0.66,1.31,2.14,-0.92,0.66,
1.439,3.33,-0.66,1.31,2.13,-0.96,0.64,
1.439,3.33,-0.66,1.31,2.12,-0.99,0.61,
1.439,3.33,-0.66,1.31,2.10,-1.02,0.58,
1.439,3.33,-0.66,1.31,2.08,-1.04,0.54,
1.44,3.65,-1.18,0.66,2.08,-1.04,0.54,
1.44,3.65,-1.18,0.66,2.05,-1.07,0.51,
1.44,3.65,-1.18,0.66,2.02,-1.08,0.46,
1.44,3.65,-1.18,0.66,1.98,-1.10,0.42,
1.44,3.65,-1.18,0.66,1.95,-1.10,0.38,
1.44,3.65,-1.18,0.66,1.90,-1.11,0.34,
1.442,3.96,-1.63,-0.05,1.90,-1.11,0.34,
1.442,3.96,-1.63,-0.05,1.86,-1.11,0.29,
1.443,3.96,-1.63,-0.05,1.81,-1.12,0.25,
1.446,3.96,-1.63,-0.05,1.75,-1.12,0.20,
1.448,3.96,-1.63,-0.05,1.70,-1.13,0.16,
1.449,3.96,-1.63,-0.05,1.64,-1.14,0.11,
1.452,4.32,-1.76,-0.55,1.64,-1.14,0.11,
1.452,4.32,-1.76,-0.55,1.58,-1.16,0.07,
1.453,4.32,-1.76,-0.55,1.52,-1.18,0.02,
1.455,4.32,-1.76,-0.55,1.46,-1.21,-0.02,
1.457,4.32,-1.76,-0.55,1.40,-1.25,-0.07,
1.459,4.32,-1.76,-0.55,1.34,-1.27,-0.10,
1.462,4.12,-1.67,-0.72,1.34,-1.27,-0.10,
1.477,4.12,-1.67,-0.72,1.28,-1.30,-0.14,
1.477,4.12,-1.67,-0.72,1.23,-1.33,-0.17,
1.477,4.12,-1.67,-0.72,1.18,-1.36,-0.21,
1.477,4.12,-1.67,-0.72,1.14,-1.38,-0.24,
1.478,4.12,-1.67,-0.72,1.11,-1.39,-0.28,
1.478,3.37,-1.37,-0.29,1.11,-1.39,-0.28,
1.478,3.37,-1.37,-0.29,1.08,-1.40,-0.31,
1.478,3.37,-1.37,-0.29,1.05,-1.42,-0.35,
1.478,3.37,-1.37,-0.29,1.03,-1.46,-0.41,
1.479,3.37,-1.37,-0.29,1.02,-1.48,-0.43,
1.485,3.37,-1.37,-0.29,1.01,-1.51,-0.47,
1.485,2.65,-1.17,0.50,1.01,-1.51,-0.47,
1.485,2.65,-1.17,0.50,1.01,-1.53,-0.51,
1.486,2.65,-1.17,0.50,1.01,-1.56,-0.55,
1.486,2.65,-1.17,0.50,1.01,-1.59,-0.59,
1.492,2.65,-1.17,0.50,1.02,-1.63,-0.62,
1.492,2.65,-1.17,0.50,1.04,-1.66,-0.65,
1.492,1.17,-0.89,1.56,1.04,-1.66,-0.65,
1.493,1.17,-0.89,1.56,1.07,-1.73,-0.69,
1.493,1.17,-0.89,1.56,1.09,-1.75,-0.70,
1.496,1.17,-0.89,1.56,1.14,-1.82,-0.72,
1.506,1.17,-0.89,1.56,1.15,-1.84,-0.73,
1.506,1.17,-0.89,1.56,1.19,-1.91,-0.74,
1.506,-0.41,-0.75,2.69,1.19,-1.91,-0.74,
1.507,-0.41,-0.75,2.69,1.22,-1.97,-0.75,
1.507,-0.41,-0.75,2.69,1.26,-2.05,-0.75,
1.507,-0.41,-0.75,2.69,1.30,-2.17,-0.76,
1.508,-0.41,-0.75,2.69,1.32,-2.21,-0.75,
1.511,-0.41,-0.75,2.69,1.34,-2.28,-0.75,
1.513,-1.66,-0.98,2.61,1.34,-2.28,-0.75,
1.513,-1.66,-0.98,2.61,1.36,-2.38,-0.73,
1.515,-1.66,-0.98,2.61,1.36,-2.43,-0.71,
1.517,-1.66,-0.98,2.61,1.36,-2.48,-0.69,
1.518,-1.66,-0.98,2.61,1.35,-2.50,-0.68,
1.52,-1.66,-0.98,2.61,1.34,-2.52,-0.65,
1.522,-3.16,-1.31,1.46,1.34,-2.52,-0.65,
1.522,-3.16,-1.31,1.46,1.31,-2.53,-0.59,
1.524,-3.16,-1.31,1.46,1.29,-2.52,-0.57,
1.526,-3.16,-1.31,1.46,1.25,-2.50,-0.50,
1.528,-3.16,-1.31,1.46,1.23,-2.49,-0.47,
1.529,-3.16,-1.31,1.46,1.20,-2.46,-0.42,
1.532,-4.33,-1.53,0.29,1.20,-2.46,-0.42,
1.533,-4.33,-1.53,0.29,1.14,-2.40,-0.34,
1.534,-4.33,-1.53,0.29,1.12,-2.38,-0.31,
1.536,-4.33,-1.53,0.29,1.05,-2.31,-0.22,
1.537,-4.33,-1.53,0.29,1.03,-2.29,-0.19,
1.54,-4.33,-1.53,0.29,0.98,-2.23,-0.14,
1.542,-5.25,-1.87,-0.62,0.98,-2.23,-0.14,
1.542,-5.25,-1.87,-0.62,0.90,-2.14,-0.04,
1.543,-5.25,-1.87,-0.62,0.85,-2.08,0.02,
1.545,-5.25,-1.87,-0.62,0.80,-2.02,0.08,
1.548,-5.25,-1.87,-0.62,0.78,-1.99,0.11,
1.55,-5.25,-1.87,-0.62,0.73,-1.92,0.16,
1.552,-5.52,-1.80,-1.18,0.73,-1.92,0.16,
1.552,-5.52,-1.80,-1.18,0.64,-1.80,0.24,
1.554,-5.52,-1.80,-1.18,0.62,-1.76,0.26,
1.556,-5.52,-1.80,-1.18,0.55,-1.65,0.32,
1.557,-5.52,-1.80,-1.18,0.52,-1.62,0.34,
1.56,-5.52,-1.80,-1.18,0.48,-1.54,0.36,
1.562,-4.74,-1.85,-1.38,0.48,-1.54,0.36,
1.563,-4.74,-1.85,-1.38,0.41,-1.44,0.39,
1.564,-4.74,-1.85,-1.38,0.36,-1.38,0.40,
1.566,-4.74,-1.85,-1.38,0.32,-1.32,0.41,
1.57,-4.74,-1.85,-1.38,0.29,-1.29,0.40,
1.571,-4.74,-1.85,-1.38,0.23,-1.21,0.39,
1.573,-3.35,-1.90,-1.52,0.23,-1.21,0.39,
1.573,-3.35,-1.90,-1.52,0.18,-1.15,0.37,
1.573,-3.35,-1.90,-1.52,0.14,-1.10,0.35,
1.576,-3.35,-1.90,-1.52,0.10,-1.05,0.32,
1.577,-3.35,-1.90,-1.52,0.07,-1.01,0.29,
1.579,-3.35,-1.90,-1.52,0.04,-0.96,0.26,
1.591,-2.24,-1.82,-1.32,0.04,-0.96,0.26,
1.592,-2.24,-1.82,-1.32,0.01,-0.91,0.23,
1.592,-2.24,-1.82,-1.32,-0.01,-0.86,0.20,
1.592,-2.24,-1.82,-1.32,-0.03,-0.81,0.17,
1.593,-2.24,-1.82,-1.32,-0.06,-0.76,0.14,
1.593,-2.24,-1.82,-1.32,-0.08,-0.70,0.12,
1.594,-2.22,-1.39,-0.98,-0.08,-0.70,0.12,
1.594,-2.22,-1.39,-0.98,-0.09,-0.64,0.10,
1.597,-2.22,-1.39,-0.98,-0.11,-0.58,0.08,
1.597,-2.22,-1.39,-0.98,-0.13,-0.52,0.07,
1.614,-2.22,-1.39,-0.98,-0.15,-0.46,0.07,
1.617,-2.22,-1.39,-0.98,-0.17,-0.40,0.06,
1.618,-2.68,-1.38,-1.17,-0.17,-0.40,0.06,
1.618,-2.68,-1.38,-1.17,-0.18,-0.34,0.06,
1.618,-2.68,-1.38,-1.17,-0.20,-0.27,0.06,
1.618,-2.68,-1.38,-1.17,-0.21,-0.20,0.06,
1.618,-2.68,-1.38,-1.17,-0.22,-0.14,0.06,
1.618,-2.68,-1.38,-1.17,-0.23,-0.08,0.06,
1.618,-2.88,-1.29,-1.12,-0.23,-0.08,0.06,
1.619,-2.88,-1.29,-1.12,-0.24,-0.01,0.07,
1.619,-2.88,-1.29,-1.12,-0.26,0.04,0.09,
1.619,-2.88,-1.29,-1.12,-0.28,0.10,0.11,
1.619,-2.88,-1.29,-1.12,-0.30,0.14,0.14,
1.62,-2.88,-1.29,-1.12,-0.32,0.18,0.17,
1.622,-3.63,-1.27,-1.29,-0.32,0.18,0.17,
1.622,-3.63,-1.27,-1.29,-0.35,0.22,0.21,
1.623,-3.63,-1.27,-1.29,-0.37,0.26,0.26,
1.626,-3.63,-1.27,-1.29,-0.40,0.29,0.30,
1.628,-3.63,-1.27,-1.29,-0.42,0.33,0.35,
1.655,-3.63,-1.27,-1.29,-0.44,0.36,0.39,
1.655,-3.80,-0.91,-1.46,-0.44,0.36,0.39,
1.655,-3.80,-0.91,-1.46,-0.46,0.39,0.43,
1.655,-3.80,-0.91,-1.46,-0.47,0.42,0.48,
1.656,-3.80,-0.91,-1.46,-0.48,0.45,0.54,
1.656,-3.80,-0.91,-1.46,-0.49,0.49,0.59,
1.656,-3.80,-0.91,-1.46,-0.50,0.54,0.64,
1.656,-3.80,-0.42,-1.19,-0.50,0.54,0.64,
1.657,-3.80,-0.42,-1.19,-0.50,0.59,0.70,
1.657,-3.80,-0.42,-1.19,-0.50,0.64,0.76,
1.657,-3.80,-0.42,-1.19,-0.50,0.69,0.82,
1.658,-3.80,-0.42,-1.19,-0.50,0.74,0.89,
1.658,-3.80,-0.42,-1.19,-0.51,0.79,0.95,
1.658,-3.94,0.06,-1.07,-0.51,0.79,0.95,
1.658,-3.94,0.06,-1.07,-0.51,0.83,1.02,
1.659,-3.94,0.06,-1.07,-0.51,0.88,1.09,
1.659,-3.94,0.06,-1.07,-0.52,0.93,1.16,
1.659,-3.94,0.06,-1.07,-0.52,0.99,1.22,
1.659,-3.94,0.06,-1.07,-0.53,1.04,1.28,
1.666,-3.78,0.31,-1.09,-0.53,1.04,1.28,
1.667,-3.78,0.31,-1.09,-0.53,1.10,1.34,
1.667,-3.78,0.31,-1.09,-0.54,1.15,1.40,
1.668,-3.78,0.31,-1.09,-0.54,1.20,1.45,
1.668,-3.78,0.31,-1.09,-0.53,1.24,1.49,
1.672,-3.78,0.31,-1.09,-0.53,1.27,1.54,
1.672,-2.93,0.65,-0.77,-0.53,1.27,1.54,
1.673,-2.93,0.65,-0.77,-0.53,1.29,1.58,
1.676,-2.93,0.65,-0.77,-0.52,1.31,1.61,
1.676,-2.93,0.65,-0.77,-0.51,1.32,1.64,
1.68,-2.93,0.65,-0.77,-0.51,1.32,1.66,
1.682,-2.93,0.65,-0.77,-0.50,1.33,1.68,
1.686,-1.48,0.71,-0.42,-0.50,1.33,1.68,
1.686,-1.48,0.71,-0.42,-0.50,1.35,1.69,
1.687,-1.48,0.71,-0.42,-0.50,1.38,1.69,
1.687,-1.48,0.71,-0.42,-0.50,1.40,1.69,
1.688,-1.48,0.71,-0.42,-0.50,1.40,1.69,
1.69,-1.48,0.71,-0.42,-0.49,1.39,1.69,
1.692,-0.24,0.56,-0.34,-0.49,1.39,1.69,
1.693,-0.24,0.56,-0.34,-0.48,1.40,1.68,
1.694,-0.24,0.56,-0.34,-0.48,1.41,1.68,
1.695,-0.24,0.56,-0.34,-0.47,1.40,1.67,
1.698,-0.24,0.56,-0.34,-0.47,1.38,1.66,
1.7,-0.24,0.56,-0.34,-0.46,1.36,1.65,
1.702,0.79,0.40,-0.04,-0.46,1.36,1.65,
1.702,0.79,0.40,-0.04,-0.44,1.34,1.63,
1.704,0.79,0.40,-0.04,-0.43,1.32,1.61,
1.705,0.79,0.40,-0.04,-0.42,1.29,1.59,
1.709,0.79,0.40,-0.04,-0.41,1.23,1.56,
1.721,0.79,0.40,-0.04,-0.41,1.18,1.54,
1.721,1.88,0.20,0.09,-0.41,1.18,1.54,
1.722,1.88,0.20,0.09,-0.40,1.13,1.51,
1.722,1.88,0.20,0.09,-0.39,1.07,1.48,
1.722,1.88,0.20,0.09,-0.38,1.00,1.46,
1.722,1.88,0.20,0.09,-0.38,0.91,1.44,
1.723,1.88,0.20,0.09,-0.37,0.82,1.41,
1.723,2.32,-0.05,0.23,-0.37,0.82,1.41,
1.723,2.32,-0.05,0.23,-0.36,0.73,1.39,
1.725,2.32,-0.05,0.23,-0.36,0.64,1.38,
1.731,2.32,-0.05,0.23,-0.35,0.55,1.38,
1.731,2.32,-0.05,0.23,-0.34,0.44,1.37,
1.732,2.32,-0.05,0.23,-0.33,0.34,1.38,
1.771,1.68,-0.22,0.59,-0.33,0.34,1.38,
1.772,1.68,-0.22,0.59,-0.32,0.25,1.38,
1.772,1.68,-0.22,0.59,-0.32,0.17,1.39,
1.772,1.68,-0.22,0.59,-0.33,0.09,1.41,
1.772,1.68,-0.22,0.59,-0.33,0.04,1.44,
1.772,1.68,-0.22,0.59,-0.33,0.03,1.48,
1.773,0.21,0.11,0.06,-0.33,0.03,1.48,
1.773,0.21,0.11,0.06,-0.33,0.04,1.53,
1.773,0.21,0.11,0.06,-0.33,0.05,1.58,
1.773,0.21,0.11,0.06,-0.33,0.07,1.63,
1.773,0.21,0.11,0.06,-0.34,0.09,1.67,
1.773,0.21,0.11,0.06,-0.35,0.12,1.71,
1.774,-0.65,0.34,-0.73,-0.35,0.12,1.71,
1.774,-0.65,0.34,-0.73,-0.35,0.14,1.75,
1.774,-0.65,0.34,-0.73,-0.36,0.14,1.78,
1.774,-0.65,0.34,-0.73,-0.38,0.12,1.81,
1.774,-0.65,0.34,-0.73,-0.39,0.09,1.84,
1.774,-0.65,0.34,-0.73,-0.40,0.05,1.86,
1.774,-0.11,-0.05,-1.01,-0.40,0.05,1.86,
1.775,-0.11,-0.05,-1.01,-0.41,0.01,1.88,
1.775,-0.11,-0.05,-1.01,-0.43,-0.05,1.89,
1.775,-0.11,-0.05,-1.01,-0.44,-0.12,1.91,
1.775,-0.11,-0.05,-1.01,-0.46,-0.19,1.91,
1.775,-0.11,-0.05,-1.01,-0.48,-0.27,1.92,
1.775,0.65,-0.54,-0.72,-0.48,-0.27,1.92,
1.776,0.65,-0.54,-0.72,-0.49,-0.36,1.92,
1.776,0.65,-0.54,-0.72,-0.51,-0.44,1.92,
1.779,0.65,-0.54,-0.72,-0.53,-0.52,1.92,
1.781,0.65,-0.54,-0.72,-0.55,-0.59,1.93,
1.783,0.65,-0.54,-0.72,-0.56,-0.66,1.94,
1.784,0.76,-0.60,-0.60,-0.56,-0.66,1.94,
1.784,0.76,-0.60,-0.60,-0.57,-0.73,1.95,
1.788,0.76,-0.60,-0.60,-0.58,-0.82,1.95,
1.788,0.76,-0.60,-0.60,-0.59,-0.92,1.95,
1.789,0.76,-0.60,-0.60,-0.60,-1.01,1.94,
1.792,0.76,-0.60,-0.60,-0.61,-1.08,1.91,
1.799,1.58,-0.82,-0.41,-0.61,-1.08,1.91,
1.799,1.58,-0.82,-0.41,-0.63,-1.15,1.89,
1.799,1.58,-0.82,-0.41,-0.64,-1.21,1.85,
1.817,1.58,-0.82,-0.41,-0.65,-1.26,1.80,
1.818,1.58,-0.82,-0.41,-0.66,-1.30,1.75,
1.818,1.58,-0.82,-0.41,-0.68,-1.31,1.69,
1.818,2.93,-0.98,-1.00,-0.68,-1.31,1.69,
1.819,2.93,-0.98,-1.00,-0.68,-1.30,1.63,
1.819,2.93,-0.98,-1.00,-0.69,-1.28,1.57,
1.82,2.93,-0.98,-1.00,-0.68,-1.23,1.51,
1.82,2.93,-0.98,-1.00,-0.67,-1.18,1.45,
1.821,2.93,-0.98,-1.00,-0.65,-1.13,1.38,
1.821,2.27,-0.81,-0.89,-0.65,-1.13,1.38,
1.821,2.27,-0.81,-0.89,-0.63,-1.07,1.32,
1.822,2.27,-0.81,-0.89,-0.59,-1.01,1.27,
1.822,2.27,-0.81,-0.89,-0.56,-0.95,1.22,
1.823,2.27,-0.81,-0.89,-0.52,-0.89,1.17,
1.823,2.27,-0.81,-0.89,-0.46,-0.83,1.13,
1.823,1.06,-0.61,-0.02,-0.46,-0.83,1.13,
1.824,1.06,-0.61,-0.02,-0.41,-0.77,1.09,
1.824,1.06,-0.61,-0.02,-0.35,-0.73,1.05,
1.829,1.06,-0.61,-0.02,-0.30,-0.69,1.01,
1.83,1.06,-0.61,-0.02,-0.24,-0.67,0.98,
1.83,1.06,-0.61,-0.02,-0.18,-0.64,0.95,
1.835,0.30,-0.47,0.62,-0.18,-0.64,0.95,
1.835,0.30,-0.47,0.62,-0.12,-0.61,0.93,
1.836,0.30,-0.47,0.62,-0.06,-0.58,0.90,
1.836,0.30,-0.47,0.62,-0.00,-0.55,0.87,
1.838,0.30,-0.47,0.62,0.05,-0.52,0.85,
1.84,0.30,-0.47,0.62,0.11,-0.48,0.83,
1.842,-0.10,-0.16,0.86,0.11,-0.48,0.83,
1.842,-0.10,-0.16,0.86,0.17,-0.44,0.80,
1.843,-0.10,-0.16,0.86,0.22,-0.41,0.78,
1.845,-0.10,-0.16,0.86,0.28,-0.39,0.76,
1.855,-0.10,-0.16,0.86,0.33,-0.36,0.74,
1.855,-0.10,-0.16,0.86,0.38,-0.33,0.71,
1.856,-0.13,-0.14,0.98,0.38,-0.33,0.71,
1.856,-0.13,-0.14,0.98,0.42,-0.30,0.69,
1.856,-0.13,-0.14,0.98,0.48,-0.27,0.66,
1.856,-0.13,-0.14,0.98,0.52,-0.25,0.63,
1.858,-0.13,-0.14,0.98,0.56,-0.24,0.60,
1.884,-0.13,-0.14,0.98,0.60,-0.23,0.56,
1.884,0.22,-0.27,1.07,0.60,-0.23,0.56,
1.885,0.22,-0.27,1.07,0.64,-0.22,0.53,
1.885,0.22,-0.27,1.07,0.68,-0.21,0.49,
1.885,0.22,-0.27,1.07,0.71,-0.20,0.45,
1.885,0.22,-0.27,1.07,0.74,-0.19,0.41,
1.885,0.22,-0.27,1.07,0.77,-0.19,0.37,
1.886,0.66,-0.28,1.07,0.77,-0.19,0.37,
1.886,0.66,-0.28,1.07,0.80,-0.21,0.33,
1.886,0.66,-0.28,1.07,0.82,-0.23,0.29,
1.886,0.66,-0.28,1.07,0.83,-0.25,0.25,
1.886,0.66,-0.28,1.07,0.85,-0.27,0.21,
1.886,0.66,-0.28,1.07,0.86,-0.29,0.18,
1.887,0.75,0.07,0.84,0.86,-0.29,0.18,
1.887,0.75,0.07,0.84,0.88,-0.30,0.14,
1.887,0.75,0.07,0.84,0.90,-0.30,0.11,
1.887,0.75,0.07,0.84,0.92,-0.30,0.09,
1.888,0.75,0.07,0.84,0.94,-0.30,0.07,
1.891,0.75,0.07,0.84,0.94,-0.31,0.05,
1.897,0.45,0.10,1.07,0.94,-0.31,0.05,
1.898,0.45,0.10,1.07,0.95,-0.34,0.04,
1.898,0.45,0.10,1.07,0.94,-0.37,0.02,
1.898,0.45,0.10,1.07,0.92,-0.41,-0.00,
1.898,0.45,0.10,1.07,0.91,-0.42,-0.02,
1.902,0.45,0.10,1.07,0.89,-0.42,-0.04,
1.903,0.41,1.01,0.17,0.89,-0.42,-0.04,
1.903,0.41,1.01,0.17,0.87,-0.41,-0.06,
1.905,0.41,1.01,0.17,0.85,-0.40,-0.07,
1.907,0.41,1.01,0.17,0.83,-0.37,-0.09,
1.909,0.41,1.01,0.17,0.80,-0.34,-0.09,
1.91,0.41,1.01,0.17,0.78,-0.31,-0.10,
1.912,-0.28,1.54,-0.31,0.78,-0.31,-0.10,
1.914,-0.28,1.54,-0.31,0.75,-0.27,-0.10,
1.914,-0.28,1.54,-0.31,0.71,-0.24,-0.10,
1.918,-0.28,1.54,-0.31,0.68,-0.20,-0.10,
1.918,-0.28,1.54,-0.31,0.65,-0.15,-0.09,
1.923,-0.28,1.54,-0.31,0.61,-0.11,-0.09,
1.923,-0.98,1.98,-0.74,0.61,-0.11,-0.09,
1.923,-0.98,1.98,-0.74,0.59,-0.06,-0.07,
1.923,-0.98,1.98,-0.74,0.56,0.00,-0.06,
1.926,-0.98,1.98,-0.74,0.53,0.06,-0.05,
1.928,-0.98,1.98,-0.74,0.51,0.13,-0.02,
1.93,-0.98,1.98,-0.74,0.49,0.20,-0.00,
1.933,-1.62,2.40,-0.70,0.49,0.20,-0.00,
1.933,-1.62,2.40,-0.70,0.46,0.26,0.03,
1.933,-1.62,2.40,-0.70,0.45,0.32,0.06,
1.936,-1.62,2.40,-0.70,0.42,0.37,0.10,
1.938,-1.62,2.40,-0.70,0.40,0.43,0.15,
1.94,-1.62,2.40,-0.70,0.38,0.48,0.20,
1.942,-2.05,2.71,-0.79,0.38,0.48,0.20,
1.942,-2.05,2.71,-0.79,0.36,0.53,0.25,
1.943,-2.05,2.71,-0.79,0.34,0.58,0.31,
1.946,-2.05,2.71,-0.79,0.31,0.62,0.38,
1.948,-2.05,2.71,-0.79,0.28,0.67,0.45,
1.95,-2.05,2.71,-0.79,0.24,0.71,0.52,
1.952,-2.46,2.79,-1.26,0.24,0.71,0.52,
1.953,-2.46,2.79,-1.26,0.21,0.75,0.60,
1.954,-2.46,2.79,-1.26,0.16,0.78,0.68,
1.957,-2.46,2.79,-1.26,0.12,0.80,0.76,
1.958,-2.46,2.79,-1.26,0.07,0.82,0.84,
1.961,-2.46,2.79,-1.26,0.01,0.83,0.93,
1.968,-2.90,2.74,-2.14,0.01,0.83,0.93,
1.991,-2.90,2.74,-2.14,-0.05,0.83,1.01,
1.992,-2.90,2.74,-2.14,-0.12,0.81,1.09,
1.992,-2.90,2.74,-2.14,-0.19,0.79,1.17,
1.992,-2.90,2.74,-2.14,-0.26,0.75,1.25,
1.992,-2.90,2.74,-2.14,-0.33,0.72,1.33,
1.993,-2.90,2.50,-2.70,-0.33,0.72,1.33,
1.993,-2.90,2.50,-2.70,-0.41,0.68,1.40,
1.993,-2.90,2.50,-2.70,-0.49,0.63,1.47,
1.994,-2.90,2.50,-2.70,-0.56,0.59,1.54,
1.994,-2.90,2.50,-2.70,-0.64,0.55,1.60,
1.994,-2.90,2.50,-2.70,-0.71,0.51,1.65,
1.994,-2.29,2.09,-2.83,-0.71,0.51,1.65,
1.995,-2.29,2.09,-2.83,-0.78,0.47,1.70,
1.995,-2.29,2.09,-2.83,-0.85,0.44,1.74,
1.995,-2.29,2.09,-2.83,-0.91,0.41,1.78,
1.995,-2.29,2.09,-2.83,-0.97,0.38,1.81,
1.996,-2.29,2.09,-2.83,-1.03,0.35,1.83,
1.996,-1.48,1.81,-2.36,-1.03,0.35,1.83,
1.996,-1.48,1.81,-2.36,-1.09,0.33,1.85,
1.996,-1.48,1.81,-2.36,-1.14,0.30,1.86,
1.997,-1.48,1.81,-2.36,-1.19,0.28,1.87,
2.001,-1.48,1.81,-2.36,-1.23,0.25,1.86,
2.003,-1.48,1.81,-2.36,-1.26,0.23,1.85,
2.004,-0.65,1.52,-1.91,-1.26,0.23,1.85,
2.004,-0.65,1.52,-1.91,-1.28,0.22,1.84,
2.009,-0.65,1.52,-1.91,-1.29,0.22,1.81,
2.009,-0.65,1.52,-1.91,-1.28,0.24,1.78,
2.01,-0.65,1.52,-1.91,-1.24,0.26,1.74,
2.01,-0.65,1.52,-1.91,-1.19,0.30,1.70,
2.014,0.33,0.87,0.27,-1.19,0.30,1.70,
2.014,0.33,0.87,0.27,-1.12,0.33,1.64,
2.015,0.33,0.87,0.27,-1.03,0.37,1.59,
2.024,0.33,0.87,0.27,-0.93,0.41,1.52,
2.025,0.33,0.87,0.27,-0.81,0.45,1.45,
2.025,0.33,0.87,0.27,-0.69,0.49,1.38,
2.025,1.25,-0.02,2.78,-0.69,0.49,1.38,
2.025,1.25,-0.02,2.78,-0.55,0.51,1.31,
2.026,1.25,-0.02,2.78,-0.41,0.53,1.23,
2.03,1.25,-0.02,2.78,-0.26,0.54,1.16,
2.03,1.25,-0.02,2.78,-0.13,0.54,1.08,
2.031,1.25,-0.02,2.78,0.01,0.55,1.01,
2.035,1.71,-0.93,3.21,0.01,0.55,1.01,
2.035,1.71,-0.93,3.21,0.15,0.54,0.94,
2.035,1.71,-0.93,3.21,0.28,0.54,0.87,
2.036,1.71,-0.93,3.21,0.40,0.54,0.81,
2.039,1.71,-0.93,3.21,0.51,0.55,0.75,
2.041,1.71,-0.93,3.21,0.61,0.56,0.70,
2.043,1.53,-1.37,2.25,0.61,0.56,0.70,
2.043,1.53,-1.37,2.25,0.70,0.58,0.66,
2.044,1.53,-1.37,2.25,0.78,0.61,0.63,
2.048,1.53,-1.37,2.25,0.84,0.64,0.61,
2.048,1.53,-1.37,2.25,0.90,0.67,0.59,
2.051,1.53,-1.37,2.25,0.94,0.71,0.59,
2.053,0.51,-1.34,0.60,0.94,0.71,0.59,
2.054,0.51,-1.34,0.60,0.97,0.75,0.59,
2.054,0.51,-1.34,0.60,0.99,0.78,0.60,
2.056,0.51,-1.34,0.60,1.00,0.81,0.61,
2.058,0.51,-1.34,0.60,1.00,0.84,0.63,
2.06,0.51,-1.34,0.60,1.00,0.87,0.65,
2.063,-0.83,-1.31,-0.64,1.00,0.87,0.65,
2.064,-0.83,-1.31,-0.64,0.99,0.90,0.68,
2.064,-0.83,-1.31,-0.64,0.98,0.92,0.72,
2.069,-0.83,-1.31,-0.64,0.97,0.94,0.77,
2.069,-0.83,-1.31,-0.64,0.96,0.98,0.84,
2.07,-0.83,-1.31,-0.64,0.96,1.01,0.91,
2.072,-2.53,-1.07,-0.79,0.96,1.01,0.91,
2.073,-2.53,-1.07,-0.79,0.95,1.03,0.99,
2.074,-2.53,-1.07,-0.79,0.95,1.05,1.08,
2.076,-2.53,-1.07,-0.79,0.95,1.06,1.17,
2.081,-2.53,-1.07,-0.79,0.95,1.08,1.27,
2.087,-2.53,-1.07,-0.79,0.96,1.09,1.38,
2.088,-3.89,-0.92,-0.18,0.96,1.09,1.38,
2.088,-3.89,-0.92,-0.18,0.98,1.09,1.48,
2.089,-3.89,-0.92,-0.18,0.99,1.10,1.58,
2.089,-3.89,-0.92,-0.18,1.01,1.10,1.69,
2.089,-3.89,-0.92,-0.18,1.03,1.10,1.79,
2.092,-3.89,-0.92,-0.18,1.06,1.09,1.88,
2.093,-4.04,-0.70,0.52,1.06,1.09,1.88,
2.093,-4.04,-0.70,0.52,1.09,1.10,1.97,
2.096,-4.04,-0.70,0.52,1.12,1.10,2.06,
2.105,-4.04,-0.70,0.52,1.15,1.11,2.14,
2.106,-4.04,-0.70,0.52,1.18,1.12,2.22,
2.106,-4.04,-0.70,0.52,1.22,1.13,2.29,
2.106,-3.57,-0.26,1.19,1.22,1.13,2.29,
2.106,-3.57,-0.26,1.19,1.25,1.14,2.35,
2.107,-3.57,-0.26,1.19,1.30,1.15,2.39,
2.107,-3.57,-0.26,1.19,1.34,1.16,2.43,
2.108,-3.57,-0.26,1.19,1.37,1.15,2.47,
2.11,-3.57,-0.26,1.19,1.42,1.14,2.50,
2.115,-2.55,0.61,1.74,1.42,1.14,2.50,
2.115,-2.55,0.61,1.74,1.46,1.12,2.53,
2.115,-2.55,0.61,1.74,1.51,1.08,2.55,
2.117,-2.55,0.61,1.74,1.56,1.02,2.56,
2.118,-2.55,0.61,1.74,1.61,0.94,2.54,
2.12,-2.55,0.61,1.74,1.66,0.83,2.52,
2.122,-1.09,1.12,2.50,1.66,0.83,2.52,
2.122,-1.09,1.12,2.50,1.70,0.70,2.48,
2.124,-1.09,1.12,2.50,1.74,0.56,2.44,
2.129,-1.09,1.12,2.50,1.76,0.41,2.41,
2.13,-1.09,1.12,2.50,1.78,0.27,2.37,
2.146,-1.09,1.12,2.50,1.79,0.12,2.35,
2.146,-0.35,0.82,2.73,1.79,0.12,2.35,
2.146,-0.35,0.82,2.73,1.78,-0.02,2.34,
2.147,-0.35,0.82,2.73,1.75,-0.17,2.33,
2.147,-0.35,0.82,2.73,1.70,-0.31,2.33,
2.147,-0.35,0.82,2.73,1.65,-0.45,2.33,
2.147,-0.35,0.82,2.73,1.58,-0.60,2.33,
2.148,-0.30,0.21,1.63,1.58,-0.60,2.33,
2.148,-0.30,0.21,1.63,1.29,-1.02,2.29,
2.148,-0.30,0.21,1.63,1.29,-1.02,2.29,
2.15,-0.30,0.21,1.63,1.19,-1.15,2.26,
2.15,-0.30,0.21,1.63,1.19,-1.15,2.26,
2.151,-0.30,0.21,1.63,1.09,-1.28,2.22,
2.153,0.04,-0.36,0.10,1.09,-1.28,2.22,
2.153,0.04,-0.36,0.10,0.99,-1.39,2.19,
2.154,0.04,-0.36,0.10,0.89,-1.48,2.14,
2.156,0.04,-0.36,0.10,0.80,-1.55,2.09,
2.158,0.04,-0.36,0.10,0.72,-1.61,2.04,
2.16,0.04,-0.36,0.10,0.64,-1.64,1.99,
2.168,0.22,-0.36,-0.94,0.64,-1.64,1.99,
2.169,0.22,-0.36,-0.94,0.58,-1.66,1.94,
2.169,0.22,-0.36,-0.94,0.51,-1.65,1.89,
2.169,0.22,-0.36,-0.94,0.45,-1.63,1.84,
2.169,0.22,-0.36,-0.94,0.38,-1.59,1.81,
2.169,0.22,-0.36,-0.94,0.32,-1.54,1.79,
2.172,-0.31,0.02,-1.55,0.32,-1.54,1.79,
2.172,-0.31,0.02,-1.55,0.26,-1.48,1.77,
2.174,-0.31,0.02,-1.55,0.18,-1.41,1.76,
2.175,-0.31,0.02,-1.55,0.12,-1.34,1.76,
2.178,-0.31,0.02,-1.55,0.05,-1.27,1.78,
2.191,-0.31,0.02,-1.55,-0.02,-1.21,1.80,
2.191,-1.39,0.51,-2.07,-0.02,-1.21,1.80,
2.192,-1.39,0.51,-2.07,-0.09,-1.17,1.83,
2.192,-1.39,0.51,-2.07,-0.18,-1.15,1.87,
2.192,-1.39,0.51,-2.07,-0.28,-1.16,1.93,
2.192,-1.39,0.51,-2.07,-0.38,-1.19,2.00,
2.192,-1.39,0.51,-2.07,-0.49,-1.22,2.08,
2.192,-2.56,1.32,-2.63,-0.49,-1.22,2.08,
2.192,-2.56,1.32,-2.63,-0.60,-1.25,2.17,
2.194,-2.56,1.32,-2.63,-0.70,-1.28,2.27,
2.196,-2.56,1.32,-2.63,-0.81,-1.29,2.37,
2.198,-2.56,1.32,-2.63,-0.90,-1.29,2.47,
2.2,-2.56,1.32,-2.63,-0.98,-1.26,2.58,
2.203,-3.49,1.91,-2.62,-0.98,-1.26,2.58,
2.203,-3.49,1.91,-2.62,-1.06,-1.20,2.69,
2.203,-3.49,1.91,-2.62,-1.13,-1.11,2.79,
2.206,-3.49,1.91,-2.62,-1.18,-1.01,2.89,
2.207,-3.49,1.91,-2.62,-1.22,-0.89,2.99,
2.209,-3.49,1.91,-2.62,-1.26,-0.74,3.09,
2.212,-3.55,2.48,-1.93,-1.26,-0.74,3.09,
2.213,-3.55,2.48,-1.93,-1.29,-0.58,3.19,
2.214,-3.55,2.48,-1.93,-1.30,-0.41,3.28,
2.218,-3.55,2.48,-1.93,-1.31,-0.22,3.38,
2.218,-3.55,2.48,-1.93,-1.32,-0.01,3.47,
2.221,-3.55,2.48,-1.93,-1.32,0.20,3.56,
2.222,-3.52,2.99,-1.36,-1.32,0.20,3.56,
2.223,-3.52,2.99,-1.36,-1.31,0.42,3.65,
2.224,-3.52,2.99,-1.36,-1.31,0.64,3.74,
2.225,-3.52,2.99,-1.36,-1.30,0.86,3.82,
2.228,-3.52,2.99,-1.36,-1.29,1.08,3.90,
2.23,-3.52,2.99,-1.36,-1.27,1.28,3.98,
2.233,-3.05,3.51,-1.11,-1.27,1.28,3.98,
2.233,-3.05,3.51,-1.11,-1.24,1.47,4.06,
2.234,-3.05,3.51,-1.11,-1.21,1.66,4.13,
2.237,-3.05,3.51,-1.11,-1.19,1.85,4.20,
2.237,-3.05,3.51,-1.11,-1.18,2.05,4.27,
2.242,-3.05,3.51,-1.11,-1.18,2.27,4.33,
2.242,-2.68,4.00,-1.40,-1.18,2.27,4.33,
2.242,-2.68,4.00,-1.40,-1.20,2.50,4.39,
2.243,-2.68,4.00,-1.40,-1.22,2.75,4.45,
2.247,-2.68,4.00,-1.40,-1.27,2.99,4.49,
2.247,-2.68,4.00,-1.40,-1.32,3.24,4.52,
2.249,-2.68,4.00,-1.40,-1.37,3.47,4.54,
2.252,-1.69,4.68,-2.72,-1.37,3.47,4.54,
2.252,-1.69,4.68,-2.72,-1.42,3.66,4.56,
2.254,-1.69,4.68,-2.72,-1.46,3.82,4.57,
2.257,-1.69,4.68,-2.72,-1.50,3.93,4.57,
2.258,-1.69,4.68,-2.72,-1.54,4.01,4.58,
2.26,-1.69,4.68,-2.72,-1.58,4.06,4.59,
2.263,-0.68,5.18,-2.93,-1.58,4.06,4.59,
2.265,-0.68,5.18,-2.93,-1.61,4.11,4.60,
2.266,-0.68,5.18,-2.93,-1.65,4.15,4.60,
2.267,-0.68,5.18,-2.93,-1.71,4.22,4.61,
2.268,-0.68,5.18,-2.93,-1.79,4.31,4.61,
2.27,-0.68,5.18,-2.93,-1.86,4.40,4.62,
2.273,0.10,5.59,-3.27,-1.86,4.40,4.62,
2.274,0.10,5.59,-3.27,-1.95,4.49,4.62,
2.274,0.10,5.59,-3.27,-2.03,4.57,4.62,
2.276,0.10,5.59,-3.27,-2.10,4.66,4.63,
2.283,0.10,5.59,-3.27,-2.17,4.73,4.63,
2.283,0.10,5.59,-3.27,-2.24,4.81,4.63,
2.284,0.70,5.62,-2.94,-2.24,4.81,4.63,
2.284,0.70,5.62,-2.94,-2.32,4.90,4.63,
2.284,0.70,5.62,-2.94,-2.39,4.99,4.62,
2.285,0.70,5.62,-2.94,-2.46,5.08,4.62,
2.287,0.70,5.62,-2.94,-2.53,5.19,4.61,
2.289,0.70,5.62,-2.94,-2.59,5.27,4.61,
2.292,0.88,4.59,-2.01,-2.59,5.27,4.61,
2.293,0.88,4.59,-2.01,-2.60,5.32,4.63,
2.293,0.88,4.59,-2.01,-2.56,5.42,4.66,
2.316,0.88,4.59,-2.01,-2.47,5.57,4.69,
2.316,0.88,4.59,-2.01,-2.35,5.69,4.71,
2.316,0.88,4.59,-2.01,-2.20,5.74,4.75,
2.317,-0.95,-7.16,4.96,-2.20,5.74,4.75,
2.317,-0.95,-7.16,4.96,-2.04,5.73,4.81,
2.317,-0.95,-7.16,4.96,-1.86,5.67,4.90,
2.317,-0.95,-7.16,4.96,-1.67,5.58,5.01,
2.318,-0.95,-7.16,4.96,-1.46,5.43,5.13,
2.318,-0.95,-7.16,4.96,-1.25,5.24,5.26,
2.318,-4.82,-17.74,8.26,-1.25,5.24,5.26,
2.319,-4.82,-17.74,8.26,-1.04,4.98,5.37,
2.319,-4.82,-17.74,8.26,-0.83,4.67,5.48,
2.319,-4.82,-17.74,8.26,-0.64,4.29,5.55,
2.319,-4.82,-17.74,8.26,-0.45,3.82,5.60,
2.32,-4.82,-17.74,8.26,-0.27,3.28,5.62,
2.329,-6.51,-30.25,8.54,-0.27,3.28,5.62,
2.329,-6.51,-30.25,8.54,-0.09,2.68,5.62,
2.329,-6.51,-30.25,8.54,0.09,2.05,5.56,
2.33,-6.51,-30.25,8.54,0.25,1.38,5.43,
2.341,-6.51,-30.25,8.54,0.41,0.69,5.24,
2.341,-6.51,-30.25,8.54,0.56,0.04,5.00,
2.341,-2.77,-32.76,6.92,0.56,0.04,5.00,
2.342,-2.77,-32.76,6.92,0.70,-0.53,4.71,
2.342,-2.77,-32.76,6.92,0.84,-1.01,4.39,
2.342,-2.77,-32.76,6.92,0.98,-1.40,4.03,
2.342,-2.77,-32.76,6.92,1.12,-1.72,3.65,
2.343,-2.77,-32.76,6.92,1.24,-1.98,3.26,
2.343,2.75,-24.99,4.23,1.24,-1.98,3.26,
2.343,2.75,-24.99,4.23,1.35,-2.20,2.87,
2.35,2.75,-24.99,4.23,1.45,-2.39,2.49,
2.351,2.75,-24.99,4.23,1.54,-2.58,2.13,
2.351,2.75,-24.99,4.23,1.61,-2.74,1.78,
2.351,2.75,-24.99,4.23,1.67,-2.87,1.46,
2.352,4.24,-13.88,2.71,1.67,-2.87,1.46,
2.353,4.24,-13.88,2.71,1.72,-2.94,1.16,
2.354,4.24,-13.88,2.71,1.76,-2.96,0.88,
2.356,4.24,-13.88,2.71,1.78,-2.90,0.61,
2.358,4.24,-13.88,2.71,1.78,-2.78,0.36,
2.36,4.24,-13.88,2.71,1.76,-2.60,0.13,
2.363,4.24,-5.50,1.70,1.76,-2.60,0.13,
2.363,4.24,-5.50,1.70,1.71,-2.38,-0.08,
2.364,4.24,-5.50,1.70,1.65,-2.13,-0.28,
2.366,4.24,-5.50,1.70,1.56,-1.86,-0.46,
2.368,4.24,-5.50,1.70,1.46,-1.57,-0.63,
2.369,4.24,-5.50,1.70,1.35,-1.28,-0.77,
2.372,4.04,-0.05,-0.31,1.35,-1.28,-0.77,
2.372,4.04,-0.05,-0.31,1.23,-0.98,-0.91,
2.373,4.04,-0.05,-0.31,1.10,-0.69,-1.03,
2.375,4.04,-0.05,-0.31,0.97,-0.40,-1.13,
2.378,4.04,-0.05,-0.31,0.83,-0.12,-1.21,
2.38,4.04,-0.05,-0.31,0.69,0.15,-1.29,
2.382,3.45,3.33,-1.93,0.69,0.15,-1.29,
2.382,3.45,3.33,-1.93,0.55,0.39,-1.34,
2.388,3.45,3.33,-1.93,0.42,0.61,-1.39,
2.389,3.45,3.33,-1.93,0.30,0.81,-1.42,
2.389,3.45,3.33,-1.93,0.19,0.98,-1.45,
2.39,3.45,3.33,-1.93,0.09,1.13,-1.47,
2.392,2.46,5.38,-1.81,0.09,1.13,-1.47,
2.393,2.46,5.38,-1.81,-0.00,1.26,-1.47,
2.398,2.46,5.38,-1.81,-0.08,1.37,-1.47,
2.399,2.46,5.38,-1.81,-0.14,1.46,-1.47,
2.4,2.46,5.38,-1.81,-0.19,1.52,-1.45,
2.4,2.46,5.38,-1.81,-0.23,1.58,-1.43,
2.405,1.42,6.64,-0.32,-0.23,1.58,-1.43,
2.405,1.42,6.64,-0.32,-0.25,1.62,-1.40,
2.405,1.42,6.64,-0.32,-0.26,1.64,-1.36,
2.406,1.42,6.64,-0.32,-0.26,1.65,-1.32,
2.408,1.42,6.64,-0.32,-0.26,1.65,-1.27,
2.411,1.42,6.64,-0.32,-0.25,1.63,-1.21,
2.413,0.49,7.31,1.34,-0.25,1.63,-1.21,
2.413,0.49,7.31,1.34,-0.22,1.59,-1.15,
2.414,0.49,7.31,1.34,-0.20,1.55,-1.08,
2.416,0.49,7.31,1.34,-0.16,1.49,-1.00,
2.425,0.49,7.31,1.34,-0.12,1.42,-0.92,
2.426,0.49,7.31,1.34,-0.08,1.34,-0.83,
2.439,-0.75,7.44,2.90,-0.08,1.34,-0.83,
2.44,-0.75,7.44,2.90,-0.04,1.25,-0.73,
2.44,-0.75,7.44,2.90,-0.00,1.15,-0.62,
2.44,-0.75,7.44,2.90,0.03,1.04,-0.52,
2.44,-0.75,7.44,2.90,0.06,0.93,-0.41,
2.44,-0.75,7.44,2.90,0.08,0.80,-0.31,
2.44,-1.62,6.16,3.33,0.08,0.80,-0.31,
2.441,-1.62,6.16,3.33,0.09,0.67,-0.22,
2.441,-1.62,6.16,3.33,0.09,0.54,-0.13,
2.441,-1.62,6.16,3.33,0.07,0.40,-0.05,
2.441,-1.62,6.16,3.33,0.05,0.25,0.02,
2.442,-1.62,6.16,3.33,0.02,0.09,0.08,
2.443,-1.69,3.91,3.06,0.02,0.09,0.08,
2.479,-1.69,3.91,3.06,-0.03,-0.08,0.13,
2.48,-1.69,3.91,3.06,-0.07,-0.26,0.18,
2.48,-1.69,3.91,3.06,-0.12,-0.44,0.21,
2.48,-1.69,3.91,3.06,-0.17,-0.63,0.24,
2.481,-1.69,3.91,3.06,-0.22,-0.83,0.26,
2.481,-1.09,1.83,2.74,-0.22,-0.83,0.26,
2.481,-1.09,1.83,2.74,-0.27,-1.03,0.28,
2.481,-1.09,1.83,2.74,-0.32,-1.23,0.29,
2.481,-1.09,1.83,2.74,-0.36,-1.43,0.30,
2.482,-1.09,1.83,2.74,-0.40,-1.63,0.30,
2.482,-1.09,1.83,2.74,-0.43,-1.82,0.30,
2.482,-0.51,0.69,2.95,-0.43,-1.82,0.30,
2.506,-0.51,0.69,2.95,-0.46,-2.00,0.30,
2.506,-0.51,0.69,2.95,-0.49,-2.17,0.29,
2.507,-0.51,0.69,2.95,-0.52,-2.33,0.29,
2.507,-0.51,0.69,2.95,-0.54,-2.47,0.28,
2.507,-0.51,0.69,2.95,-0.56,-2.60,0.26,
2.507,-0.14,0.21,2.76,-0.56,-2.60,0.26,
2.508,-0.14,0.21,2.76,-0.58,-2.72,0.25,
2.508,-0.14,0.21,2.76,-0.60,-2.82,0.24,
2.508,-0.14,0.21,2.76,-0.61,-2.92,0.23,
2.508,-0.14,0.21,2.76,-0.62,-2.99,0.22,
2.509,-0.14,0.21,2.76,-0.64,-3.05,0.21,
2.509,-0.12,0.11,2.50,-0.64,-3.05,0.21,
2.509,-0.12,0.11,2.50,-0.65,-3.10,0.20,
2.509,-0.12,0.11,2.50,-0.66,-3.13,0.20,
2.51,-0.12,0.11,2.50,-0.67,-3.15,0.19,
2.51,-0.12,0.11,2.50,-0.67,-3.15,0.18,
2.51,-0.12,0.11,2.50,-0.68,-3.14,0.18,
2.511,-0.35,0.12,2.00,-0.68,-3.14,0.18,
2.511,-0.35,0.12,2.00,-0.69,-3.12,0.17,
2.511,-0.35,0.12,2.00,-0.70,-3.09,0.17,
2.511,-0.35,0.12,2.00,-0.70,-3.04,0.16,
2.512,-0.35,0.12,2.00,-0.71,-2.99,0.16,
2.512,-0.35,0.12,2.00,-0.71,-2.92,0.15,
2.512,-0.57,0.33,1.54,-0.71,-2.92,0.15,
2.512,-0.57,0.33,1.54,-0.72,-2.85,0.15,
2.513,-0.57,0.33,1.54,-0.72,-2.78,0.14,
2.513,-0.57,0.33,1.54,-0.72,-2.70,0.14,
2.513,-0.57,0.33,1.54,-0.72,-2.62,0.13,
2.513,-0.57,0.33,1.54,-0.72,-2.54,0.13,
2.514,-0.73,0.55,1.09,-0.72,-2.54,0.13,
2.514,-0.73,0.55,1.09,-0.72,-2.46,0.12,
2.514,-0.73,0.55,1.09,-0.72,-2.37,0.12,
2.522,-0.73,0.55,1.09,-0.71,-2.29,0.11,
2.523,-0.73,0.55,1.09,-0.71,-2.21,0.11,
2.523,-0.73,0.55,1.09,-0.71,-2.12,0.10,
2.523,-0.83,0.74,0.68,-0.71,-2.12,0.10,
2.523,-0.83,0.74,0.68,-0.70,-2.04,0.09,
2.524,-0.83,0.74,0.68,-0.69,-1.96,0.09,
2.526,-0.83,0.74,0.68,-0.69,-1.88,0.08,
2.528,-0.83,0.74,0.68,-0.68,-1.80,0.08,
2.53,-0.83,0.74,0.68,-0.67,-1.72,0.07,
2.533,-0.82,0.72,0.19,-0.67,-1.72,0.07,
2.533,-0.82,0.72,0.19,-0.66,-1.64,0.06,
2.534,-0.82,0.72,0.19,-0.65,-1.57,0.05,
2.535,-0.82,0.72,0.19,-0.64,-1.49,0.05,
2.538,-0.82,0.72,0.19,-0.62,-1.42,0.04,
2.539,-0.82,0.72,0.19,-0.61,-1.35,0.03,
2.542,-0.75,0.64,-0.17,-0.61,-1.35,0.03,
2.542,-0.75,0.64,-0.17,-0.59,-1.29,0.02,
2.545,-0.75,0.64,-0.17,-0.58,-1.23,0.01,
2.546,-0.75,0.64,-0.17,-0.56,-1.17,-0.00,
2.548,-0.75,0.64,-0.17,-0.54,-1.11,-0.01,
2.55,-0.75,0.64,-0.17,-0.53,-1.07,-0.02,
2.552,-0.52,0.46,-0.33,-0.53,-1.07,-0.02,
2.552,-0.52,0.46,-0.33,-0.51,-1.02,-0.04,
2.553,-0.52,0.46,-0.33,-0.50,-0.98,-0.06,
2.555,-0.52,0.46,-0.33,-0.48,-0.95,-0.08,
2.557,-0.52,0.46,-0.33,-0.47,-0.93,-0.09,
2.567,-0.52,0.46,-0.33,-0.45,-0.90,-0.11,
2.567,-0.13,0.32,-0.26,-0.45,-0.90,-0.11,
2.568,-0.13,0.32,-0.26,-0.44,-0.88,-0.14,
2.568,-0.13,0.32,-0.26,-0.43,-0.88,-0.16,
2.568,-0.13,0.32,-0.26,-0.42,-0.87,-0.18,
2.568,-0.13,0.32,-0.26,-0.41,-0.87,-0.20,
2.57,-0.13,0.32,-0.26,-0.41,-0.87,-0.21,
2.572,0.36,0.29,-0.06,-0.41,-0.87,-0.21,
2.572,0.36,0.29,-0.06,-0.41,-0.87,-0.23,
2.574,0.36,0.29,-0.06,-0.40,-0.87,-0.25,
2.576,0.36,0.29,-0.06,-0.40,-0.88,-0.27,
2.61,0.36,0.29,-0.06,-0.40,-0.89,-0.29,
2.611,0.36,0.29,-0.06,-0.40,-0.89,-0.31,
2.611,1.10,0.23,0.17,-0.40,-0.89,-0.31,
2.611,1.10,0.23,0.17,-0.40,-0.90,-0.33,
2.611,1.10,0.23,0.17,-0.40,-0.90,-0.36,
2.611,1.10,0.23,0.17,-0.41,-0.90,-0.39,
2.612,1.10,0.23,0.17,-0.41,-0.90,-0.41,
2.612,1.10,0.23,0.17,-0.41,-0.89,-0.44,
2.612,2.00,0.18,0.35,-0.41,-0.89,-0.44,
2.612,2.00,0.18,0.35,-0.41,-0.88,-0.47,
2.612,2.00,0.18,0.35,-0.42,-0.86,-0.50,
2.612,2.00,0.18,0.35,-0.43,-0.82,-0.54,
2.613,2.00,0.18,0.35,-0.44,-0.80,-0.55,
2.613,2.00,0.18,0.35,-0.45,-0.77,-0.58,
2.613,2.71,0.11,0.49,-0.45,-0.77,-0.58,
2.613,2.71,0.11,0.49,-0.46,-0.72,-0.60,
2.613,2.71,0.11,0.49,-0.47,-0.67,-0.63,
2.613,2.71,0.11,0.49,-0.48,-0.62,-0.65,
2.613,2.71,0.11,0.49,-0.49,-0.56,-0.67,
2.614,2.71,0.11,0.49,-0.50,-0.49,-0.70,
2.614,3.05,0.13,0.50,-0.50,-0.49,-0.70,
2.614,3.05,0.13,0.50,-0.52,-0.42,-0.72,
2.616,3.05,0.13,0.50,-0.53,-0.35,-0.75,
2.616,3.05,0.13,0.50,-0.55,-0.27,-0.77,
2.618,3.05,0.13,0.50,-0.57,-0.19,-0.79,
2.62,3.05,0.13,0.50,-0.59,-0.10,-0.82,
2.622,3.29,0.13,0.37,-0.59,-0.10,-0.82,
2.623,3.29,0.13,0.37,-0.62,-0.01,-0.84,
2.624,3.29,0.13,0.37,-0.65,0.08,-0.86,
2.627,3.29,0.13,0.37,-0.68,0.17,-0.87,
2.628,3.29,0.13,0.37,-0.72,0.27,-0.89,
2.657,3.29,0.13,0.37,-0.76,0.36,-0.90,
2.658,3.11,0.11,-0.08,-0.76,0.36,-0.90,
2.658,3.11,0.11,-0.08,-0.80,0.45,-0.92,
2.659,3.11,0.11,-0.08,-0.84,0.55,-0.93,
2.659,3.11,0.11,-0.08,-0.89,0.63,-0.93,
2.659,3.11,0.11,-0.08,-0.93,0.71,-0.94,
2.66,3.11,0.11,-0.08,-0.98,0.79,-0.95,
2.66,2.80,-0.23,-0.26,-0.98,0.79,-0.95,
2.661,2.80,-0.23,-0.26,-1.02,0.86,-0.96,
2.661,2.80,-0.23,-0.26,-1.06,0.92,-0.97,
2.662,2.80,-0.23,-0.26,-1.10,0.97,-0.99,
2.662,2.80,-0.23,-0.26,-1.14,1.02,-1.00,
2.662,2.80,-0.23,-0.26,-1.18,1.05,-1.01,
2.663,2.12,-1.25,-0.18,-1.18,1.05,-1.01,
2.663,2.12,-1.25,-0.18,-1.23,1.08,-1.03,
2.664,2.12,-1.25,-0.18,-1.27,1.10,-1.05,
2.664,2.12,-1.25,-0.18,-1.31,1.10,-1.07,
2.665,2.12,-1.25,-0.18,-1.35,1.09,-1.09,
2.665,2.12,-1.25,-0.18,-1.39,1.06,-1.11,
2.665,1.37,-2.66,-0.55,-1.39,1.06,-1.11,
2.666,1.37,-2.66,-0.55,-1.43,1.02,-1.14,
2.666,1.37,-2.66,-0.55,-1.47,0.96,-1.17,
2.667,1.37,-2.66,-0.55,-1.50,0.88,-1.21,
2.675,1.37,-2.66,-0.55,-1.52,0.78,-1.25,
2.676,1.37,-2.66,-0.55,-1.54,0.67,-1.29,
2.676,0.90,-4.47,-0.82,-1.54,0.67,-1.29,
2.676,0.90,-4.47,-0.82,-1.56,0.53,-1.33,
2.677,0.90,-4.47,-0.82,-1.57,0.38,-1.37,
2.677,0.90,-4.47,-0.82,-1.57,0.23,-1.42,
2.678,0.90,-4.47,-0.82,-1.58,0.06,-1.46,
2.68,0.90,-4.47,-0.82,-1.58,-0.12,-1.49,
2.682,0.03,-6.64,-1.22,-1.58,-0.12,-1.49,
2.683,0.03,-6.64,-1.22,-1.58,-0.30,-1.52,
2.684,0.03,-6.64,-1.22,-1.58,-0.49,-1.53,
2.686,0.03,-6.64,-1.22,-1.58,-0.68,-1.54,
2.689,0.03,-6.64,-1.22,-1.58,-0.88,-1.53,
2.69,0.03,-6.64,-1.22,-1.57,-1.08,-1.52,
2.693,-2.03,-8.19,-1.91,-1.57,-1.08,-1.52,
2.694,-2.03,-8.19,-1.91,-1.56,-1.27,-1.49,
2.694,-2.03,-8.19,-1.91,-1.55,-1.46,-1.45,
2.698,-2.03,-8.19,-1.91,-1.53,-1.64,-1.40,
2.699,-2.03,-8.19,-1.91,-1.50,-1.81,-1.34,
2.7,-2.03,-8.19,-1.91,-1.47,-1.97,-1.27,
2.702,-4.16,-8.20,-2.01,-1.47,-1.97,-1.27,
2.702,-4.16,-8.20,-2.01,-1.43,-2.11,-1.20,
2.704,-4.16,-8.20,-2.01,-1.37,-2.23,-1.12,
2.706,-4.16,-8.20,-2.01,-1.30,-2.34,-1.04,
2.708,-4.16,-8.20,-2.01,-1.21,-2.42,-0.95,
2.717,-4.16,-8.20,-2.01,-1.10,-2.46,-0.85,
2.717,-5.59,-6.33,-0.06,-1.10,-2.46,-0.85,
2.718,-5.59,-6.33,-0.06,-0.94,-2.45,-0.75,
2.718,-5.59,-6.33,-0.06,-0.76,-2.40,-0.64,
2.718,-5.59,-6.33,-0.06,-0.56,-2.32,-0.52,
2.718,-5.59,-6.33,-0.06,-0.35,-2.20,-0.39,
2.72,-5.59,-6.33,-0.06,-0.13,-2.08,-0.27,
2.722,-7.07,-3.38,3.70,-0.13,-2.08,-0.27,
2.723,-7.07,-3.38,3.70,0.07,-1.95,-0.15,
2.724,-7.07,-3.38,3.70,0.25,-1.83,-0.05,
2.76,-7.07,-3.38,3.70,0.41,-1.73,0.04,
2.76,-7.07,-3.38,3.70,0.55,-1.65,0.12,
2.76,-7.07,-3.38,3.70,0.66,-1.59,0.18,
2.761,-5.30,-0.53,1.86,0.66,-1.59,0.18,
2.761,-5.30,-0.53,1.86,0.74,-1.55,0.23,
2.761,-5.30,-0.53,1.86,0.81,-1.54,0.27,
2.761,-5.30,-0.53,1.86,0.84,-1.54,0.29,
2.762,-5.30,-0.53,1.86,0.86,-1.55,0.31,
2.762,-5.30,-0.53,1.86,0.86,-1.58,0.31,
2.762,-2.44,1.49,-1.95,0.86,-1.58,0.31,
2.762,-2.44,1.49,-1.95,0.85,-1.62,0.31,
2.762,-2.44,1.49,-1.95,0.82,-1.67,0.30,
2.762,-2.44,1.49,-1.95,0.79,-1.72,0.29,
2.763,-2.44,1.49,-1.95,0.75,-1.78,0.27,
2.763,-2.44,1.49,-1.95,0.70,-1.83,0.26,
2.763,-0.61,2.78,-3.87,0.70,-1.83,0.26,
2.763,-0.61,2.78,-3.87,0.65,-1.89,0.24,
2.763,-0.61,2.78,-3.87,0.60,-1.94,0.22,
2.764,-0.61,2.78,-3.87,0.55,-1.99,0.21,
2.764,-0.61,2.78,-3.87,0.50,-2.04,0.19,
2.764,-0.61,2.78,-3.87,0.44,-2.08,0.17,
2.764,0.19,3.64,-4.42,0.44,-2.08,0.17,
2.764,0.19,3.64,-4.42,0.38,-2.11,0.15,
2.765,0.19,3.64,-4.42,0.33,-2.14,0.13,
2.766,0.19,3.64,-4.42,0.27,-2.17,0.11,
2.768,0.19,3.64,-4.42,0.21,-2.18,0.09,
2.77,0.19,3.64,-4.42,0.15,-2.19,0.07,
2.772,0.69,4.08,-4.24,0.15,-2.19,0.07,
2.773,0.69,4.08,-4.24,0.09,-2.20,0.04,
2.774,0.69,4.08,-4.24,0.03,-2.20,0.02,
2.777,0.69,4.08,-4.24,-0.03,-2.19,-0.00,
2.78,0.69,4.08,-4.24,-0.10,-2.18,-0.03,
2.78,0.69,4.08,-4.24,-0.16,-2.15,-0.06,
2.782,1.05,3.86,-4.24,-0.16,-2.15,-0.06,
2.783,1.05,3.86,-4.24,-0.23,-2.08,-0.09,
2.784,1.05,3.86,-4.24,-0.31,-1.98,-0.13,
2.786,1.05,3.86,-4.24,-0.39,-1.88,-0.17,
2.788,1.05,3.86,-4.24,-0.46,-1.77,-0.21,
2.79,1.05,3.86,-4.24,-0.54,-1.66,-0.26,
2.794,1.30,3.10,-3.83,-0.54,-1.66,-0.26,
2.798,1.30,3.10,-3.83,-0.62,-1.56,-0.30,
2.799,1.30,3.10,-3.83,-0.71,-1.46,-0.33,
2.823,1.30,3.10,-3.83,-0.79,-1.37,-0.37,
2.824,1.30,3.10,-3.83,-0.87,-1.30,-0.41,
2.824,1.30,3.10,-3.83,-0.94,-1.24,-0.45,
2.824,1.64,1.88,-3.58,-0.94,-1.24,-0.45,
2.825,1.64,1.88,-3.58,-1.00,-1.20,-0.49,
2.825,1.64,1.88,-3.58,-1.06,-1.17,-0.54,
2.825,1.64,1.88,-3.58,-1.12,-1.15,-0.60,
2.825,1.64,1.88,-3.58,-1.17,-1.15,-0.67,
2.826,1.64,1.88,-3.58,-1.21,-1.16,-0.74,
2.826,2.41,0.85,-2.83,-1.21,-1.16,-0.74,
2.826,2.41,0.85,-2.83,-1.24,-1.18,-0.82,
2.826,2.41,0.85,-2.83,-1.28,-1.21,-0.91,
2.827,2.41,0.85,-2.83,-1.30,-1.24,-1.00,
2.827,2.41,0.85,-2.83,-1.32,-1.29,-1.10,
2.827,2.41,0.85,-2.83,-1.34,-1.35,-1.21,
2.827,3.42,-0.45,-2.23,-1.34,-1.35,-1.21,
2.828,3.42,-0.45,-2.23,-1.34,-1.41,-1.31,
2.828,3.42,-0.45,-2.23,-1.35,-1.48,-1.42,
2.828,3.42,-0.45,-2.23,-1.36,-1.55,-1.53,
2.829,3.42,-0.45,-2.23,-1.36,-1.64,-1.64,
2.833,3.42,-0.45,-2.23,-1.37,-1.72,-1.75,
2.833,3.95,-1.94,-1.94,-1.37,-1.72,-1.75,
2.833,3.95,-1.94,-1.94,-1.37,-1.80,-1.85,
2.833,3.95,-1.94,-1.94,-1.38,-1.89,-1.95,
2.836,3.95,-1.94,-1.94,-1.38,-1.97,-2.05,
2.839,3.95,-1.94,-1.94,-1.39,-2.05,-2.14,
2.839,3.95,-1.94,-1.94,-1.39,-2.12,-2.22,
2.847,3.75,-3.15,-2.02,-1.39,-2.12,-2.22,
2.847,3.75,-3.15,-2.02,-1.41,-2.18,-2.29,
2.847,3.75,-3.15,-2.02,-1.42,-2.24,-2.36,
2.847,3.75,-3.15,-2.02,-1.43,-2.29,-2.41,
2.848,3.75,-3.15,-2.02,-1.45,-2.34,-2.46,
2.85,3.75,-3.15,-2.02,-1.46,-2.39,-2.49,
2.853,2.67,-3.62,-2.32,-1.46,-2.39,-2.49,
2.853,2.67,-3.62,-2.32,-1.47,-2.43,-2.51,
2.853,2.67,-3.62,-2.32,-1.48,-2.48,-2.52,
2.856,2.67,-3.62,-2.32,-1.49,-2.53,-2.52,
2.857,2.67,-3.62,-2.32,-1.50,-2.57,-2.50,
2.864,2.67,-3.62,-2.32,-1.50,-2.62,-2.48,
2.864,1.40,-3.28,-2.60,-1.50,-2.62,-2.48,
2.864,1.40,-3.28,-2.60,-1.51,-2.66,-2.45,
2.864,1.40,-3.28,-2.60,-1.51,-2.70,-2.41,
2.866,1.40,-3.28,-2.60,-1.52,-2.73,-2.36,
2.869,1.40,-3.28,-2.60,-1.52,-2.76,-2.31,
2.873,1.40,-3.28,-2.60,-1.53,-2.79,-2.25,
2.873,0.55,-2.43,-2.76,-1.53,-2.79,-2.25,
2.873,0.55,-2.43,-2.76,-1.54,-2.81,-2.19,
2.873,0.55,-2.43,-2.76,-1.54,-2.83,-2.13,
2.914,0.55,-2.43,-2.76,-1.54,-2.85,-2.06,
2.915,0.55,-2.43,-2.76,-1.54,-2.86,-1.99,
2.916,0.55,-2.43,-2.76,-1.54,-2.88,-1.92,
2.916,0.16,-1.40,-2.54,-1.54,-2.88,-1.92,
2.916,0.16,-1.40,-2.54,-1.53,-2.89,-1.84,
2.916,0.16,-1.40,-2.54,-1.52,-2.90,-1.77,
2.917,0.16,-1.40,-2.54,-1.50,-2.91,-1.69,
2.917,0.16,-1.40,-2.54,-1.48,-2.92,-1.61,
2.917,0.16,-1.40,-2.54,-1.46,-2.92,-1.54,
2.918,0.12,-0.39,-1.82,-1.46,-2.92,-1.54,
2.918,0.12,-0.39,-1.82,-1.44,-2.92,-1.47,
2.918,0.12,-0.39,-1.82,-1.40,-2.93,-1.39,
2.918,0.12,-0.39,-1.82,-1.37,-2.93,-1.32,
2.919,0.12,-0.39,-1.82,-1.33,-2.93,-1.25,
2.919,0.12,-0.39,-1.82,-1.30,-2.93,-1.19,
2.919,0.43,0.40,-1.11,-1.30,-2.93,-1.19,
2.92,0.43,0.40,-1.11,-1.25,-2.93,-1.13,
2.92,0.43,0.40,-1.11,-1.21,-2.93,-1.07,
2.92,0.43,0.40,-1.11,-1.16,-2.92,-1.01,
2.92,0.43,0.40,-1.11,-1.12,-2.91,-0.95,
2.921,0.43,0.40,-1.11,-1.06,-2.90,-0.90,
2.921,0.86,0.96,-0.54,-1.06,-2.90,-0.90,
2.921,0.86,0.96,-0.54,-0.99,-2.88,-0.83,
2.922,0.86,0.96,-0.54,-0.96,-2.87,-0.81,
2.922,0.86,0.96,-0.54,-0.91,-2.85,-0.77,
2.922,0.86,0.96,-0.54,-0.86,-2.83,-0.73,
2.923,0.86,0.96,-0.54,-0.81,-2.81,-0.70,
2.923,1.42,1.37,-0.20,-0.81,-2.81,-0.70,
2.923,1.42,1.37,-0.20,-0.76,-2.78,-0.67,
2.923,1.42,1.37,-0.20,-0.70,-2.75,-0.64,
2.927,1.42,1.37,-0.20,-0.65,-2.71,-0.62,
2.927,1.42,1.37,-0.20,-0.60,-2.67,-0.59,
2.93,1.42,1.37,-0.20,-0.54,-2.63,-0.57,
2.932,1.78,1.51,0.07,-0.54,-2.63,-0.57,
2.932,1.78,1.51,0.07,-0.49,-2.58,-0.56,
2.933,1.78,1.51,0.07,-0.44,-2.53,-0.55,
2.936,1.78,1.51,0.07,-0.39,-2.48,-0.54,
2.937,1.78,1.51,0.07,-0.34,-2.42,-0.53,
2.94,1.78,1.51,0.07,-0.29,-2.35,-0.53,
2.943,2.25,1.41,0.47,-0.29,-2.35,-0.53,
2.944,2.25,1.41,0.47,-0.24,-2.25,-0.53,
2.944,2.25,1.41,0.47,-0.20,-2.12,-0.53,
2.946,2.25,1.41,0.47,-0.16,-1.98,-0.53,
2.948,2.25,1.41,0.47,-0.12,-1.85,-0.53,
2.949,2.25,1.41,0.47,-0.08,-1.70,-0.52,
2.952,2.13,1.43,3.28,-0.08,-1.70,-0.52,
2.952,2.13,1.43,3.28,-0.05,-1.57,-0.50,
2.953,2.13,1.43,3.28,-0.02,-1.44,-0.49,
2.955,2.13,1.43,3.28,-0.00,-1.32,-0.46,
2.958,2.13,1.43,3.28,0.01,-1.22,-0.44,
2.96,2.13,1.43,3.28,0.01,-1.13,-0.41,
2.962,1.40,0.88,3.44,0.01,-1.13,-0.41,
2.981,1.40,0.88,3.44,0.00,-1.06,-0.38,
2.981,1.40,0.88,3.44,-0.01,-1.00,-0.35,
2.981,1.40,0.88,3.44,-0.03,-0.96,-0.31,
2.981,1.40,0.88,3.44,-0.05,-0.93,-0.28,
2.981,1.40,0.88,3.44,-0.08,-0.92,-0.25,
2.982,1.00,0.28,2.15,-0.08,-0.92,-0.25,
2.982,1.00,0.28,2.15,-0.10,-0.91,-0.22,
2.982,1.00,0.28,2.15,-0.12,-0.91,-0.20,
2.982,1.00,0.28,2.15,-0.15,-0.92,-0.17,
2.982,1.00,0.28,2.15,-0.18,-0.94,-0.15,
2.982,1.00,0.28,2.15,-0.20,-0.96,-0.14,
2.983,1.10,-0.16,1.25,-0.20,-0.96,-0.14,
2.983,1.10,-0.16,1.25,-0.22,-0.98,-0.13,
2.99,1.10,-0.16,1.25,-0.25,-1.01,-0.13,
2.99,1.10,-0.16,1.25,-0.27,-1.03,-0.13,
2.991,1.10,-0.16,1.25,-0.30,-1.06,-0.13,
2.991,1.10,-0.16,1.25,-0.32,-1.08,-0.14,
2.992,1.51,-0.36,0.56,-0.32,-1.08,-0.14,
2.992,1.51,-0.36,0.56,-0.34,-1.11,-0.15,
2.993,1.51,-0.36,0.56,-0.36,-1.13,-0.17,
2.996,1.51,-0.36,0.56,-0.38,-1.15,-0.19,
2.998,1.51,-0.36,0.56,-0.40,-1.17,-0.20,
2.999,1.51,-0.36,0.56,-0.42,-1.19,-0.23,
3.002,1.78,-0.43,0.14,-0.42,-1.19,-0.23,
3.002,1.78,-0.43,0.14,-0.44,-1.21,-0.25,
3.004,1.78,-0.43,0.14,-0.46,-1.23,-0.27,
3.006,1.78,-0.43,0.14,-0.48,-1.24,-0.29,
3.016,1.78,-0.43,0.14,-0.49,-1.26,-0.31,
3.017,1.78,-0.43,0.14,-0.51,-1.27,-0.32,
3.017,1.67,-0.39,-0.15,-0.51,-1.27,-0.32,
3.017,1.67,-0.39,-0.15,-0.53,-1.28,-0.34,
3.017,1.67,-0.39,-0.15,-0.54,-1.29,-0.35,
3.018,1.67,-0.39,-0.15,-0.56,-1.29,-0.36,
3.018,1.67,-0.39,-0.15,-0.57,-1.29,-0.37,
3.02,1.67,-0.39,-0.15,-0.59,-1.29,-0.38,
3.022,1.45,-0.23,-0.30,-0.59,-1.29,-0.38,
3.022,1.45,-0.23,-0.30,-0.60,-1.29,-0.38,
3.024,1.45,-0.23,-0.30,-0.61,-1.29,-0.38,
3.026,1.45,-0.23,-0.30,-0.63,-1.28,-0.39,
3.028,1.45,-0.23,-0.30,-0.64,-1.27,-0.39,
3.03,1.45,-0.23,-0.30,-0.65,-1.25,-0.39,
3.032,1.21,-0.05,-0.43,-0.65,-1.25,-0.39,
3.032,1.21,-0.05,-0.43,-0.66,-1.23,-0.39,
3.034,1.21,-0.05,-0.43,-0.67,-1.22,-0.38,
3.036,1.21,-0.05,-0.43,-0.68,-1.19,-0.38,
3.037,1.21,-0.05,-0.43,-0.68,-1.17,-0.38,
3.039,1.21,-0.05,-0.43,-0.69,-1.14,-0.37,
3.042,1.11,0.11,-0.46,-0.69,-1.14,-0.37,
3.043,1.11,0.11,-0.46,-0.69,-1.11,-0.37,
3.044,1.11,0.11,-0.46,-0.69,-1.08,-0.36,
3.046,1.11,0.11,-0.46,-0.69,-1.05,-0.35,
3.048,1.11,0.11,-0.46,-0.69,-1.01,-0.34,
3.05,1.11,0.11,-0.46,-0.70,-0.98,-0.33,
3.052,0.83,0.22,-0.37,-0.70,-0.98,-0.33,
3.053,0.83,0.22,-0.37,-0.70,-0.94,-0.32,
3.054,0.83,0.22,-0.37,-0.70,-0.89,-0.31,
3.056,0.83,0.22,-0.37,-0.70,-0.85,-0.30,
3.059,0.83,0.22,-0.37,-0.70,-0.80,-0.29,
3.06,0.83,0.22,-0.37,-0.70,-0.75,-0.29,
3.062,0.78,0.29,-0.36,-0.70,-0.75,-0.29,
3.063,0.78,0.29,-0.36,-0.70,-0.70,-0.28,
3.064,0.78,0.29,-0.36,-0.70,-0.65,-0.28,
3.066,0.78,0.29,-0.36,-0.71,-0.60,-0.28,
3.069,0.78,0.29,-0.36,-0.71,-0.56,-0.28,
3.07,0.78,0.29,-0.36,-0.71,-0.51,-0.28,
3.072,0.83,0.28,-0.21,-0.71,-0.51,-0.28,
3.073,0.83,0.28,-0.21,-0.72,-0.47,-0.28,
3.074,0.83,0.28,-0.21,-0.73,-0.44,-0.28,
3.076,0.83,0.28,-0.21,-0.74,-0.40,-0.28,
3.078,0.83,0.28,-0.21,-0.75,-0.37,-0.28,
3.08,0.83,0.28,-0.21,-0.76,-0.35,-0.28,
3.083,0.88,0.33,0.08,-0.76,-0.35,-0.28,
3.083,0.88,0.33,0.08,-0.78,-0.33,-0.28,
3.084,0.88,0.33,0.08,-0.80,-0.31,-0.28,
3.085,0.88,0.33,0.08,-0.82,-0.30,-0.29,
3.088,0.88,0.33,0.08,-0.84,-0.29,-0.29,
3.09,0.88,0.33,0.08,-0.86,-0.29,-0.29,
3.093,0.81,0.42,0.43,-0.86,-0.29,-0.29,
3.094,0.81,0.42,0.43,-0.89,-0.29,-0.29,
3.094,0.81,0.42,0.43,-0.92,-0.29,-0.29,
3.096,0.81,0.42,0.43,-0.95,-0.30,-0.29,
3.098,0.81,0.42,0.43,-0.98,-0.31,-0.29,
3.1,0.81,0.42,0.43,-1.01,-0.32,-0.29,
3.103,0.74,0.48,0.94,-1.01,-0.32,-0.29,
3.104,0.74,0.48,0.94,-1.05,-0.34,-0.30,
3.109,0.74,0.48,0.94,-1.08,-0.36,-0.30,
3.112,0.74,0.48,0.94,-1.11,-0.38,-0.30,
3.112,0.74,0.48,0.94,-1.15,-0.41,-0.30,
3.115,0.74,0.48,0.94,-1.18,-0.44,-0.30,
3.116,0.67,0.50,1.53,-1.18,-0.44,-0.30,
3.116,0.67,0.50,1.53,-1.21,-0.47,-0.31,
3.117,0.67,0.50,1.53,-1.23,-0.50,-0.31,
3.118,0.67,0.50,1.53,-1.26,-0.53,-0.32,
3.119,0.67,0.50,1.53,-1.28,-0.56,-0.32,
3.12,0.67,0.50,1.53,-1.30,-0.60,-0.32,
3.124,0.63,0.51,2.52,-1.30,-0.60,-0.32,
3.124,0.63,0.51,2.52,-1.32,-0.63,-0.32,
3.125,0.63,0.51,2.52,-1.33,-0.66,-0.33,
3.13,0.63,0.51,2.52,-1.34,-0.69,-0.33,
3.13,0.63,0.51,2.52,-1.35,-0.72,-0.33,
3.15,0.63,0.51,2.52,-1.35,-0.75,-0.33,
3.151,0.38,0.49,3.46,-1.35,-0.75,-0.33,
3.151,0.38,0.49,3.46,-1.35,-0.78,-0.33,
3.151,0.38,0.49,3.46,-1.34,-0.80,-0.32,
3.152,0.38,0.49,3.46,-1.33,-0.81,-0.32,
3.152,0.38,0.49,3.46,-1.31,-0.83,-0.32,
3.152,0.38,0.49,3.46,-1.29,-0.84,-0.31,
3.153,0.10,0.46,4.49,-1.29,-0.84,-0.31,
3.153,0.10,0.46,4.49,-1.17,-0.85,-0.29,
3.153,0.10,0.46,4.49,-1.17,-0.85,-0.29,
3.153,0.10,0.46,4.49,-1.17,-0.85,-0.29,
3.158,0.10,0.46,4.49,-1.14,-0.84,-0.28,
3.158,0.10,0.46,4.49,-1.14,-0.84,-0.28,
3.159,-0.31,0.31,5.14,-1.14,-0.84,-0.28,
3.159,-0.31,0.31,5.14,-1.10,-0.82,-0.27,
3.159,-0.31,0.31,5.14,-1.05,-0.81,-0.25,
3.16,-0.31,0.31,5.14,-0.99,-0.78,-0.23,
3.16,-0.31,0.31,5.14,-0.96,-0.77,-0.23,
3.16,-0.31,0.31,5.14,-0.91,-0.75,-0.21,
3.164,-0.63,0.07,5.49,-0.91,-0.75,-0.21,
3.164,-0.63,0.07,5.49,-0.87,-0.72,-0.20,
3.164,-0.63,0.07,5.49,-0.82,-0.69,-0.18,
3.174,-0.63,0.07,5.49,-0.76,-0.67,-0.17,
3.175,-0.63,0.07,5.49,-0.72,-0.64,-0.16,
3.175,-0.63,0.07,5.49,-0.67,-0.61,-0.14,
3.176,-0.81,-0.36,5.18,-0.67,-0.61,-0.14,
3.176,-0.81,-0.36,5.18,-0.62,-0.58,-0.13,
3.176,-0.81,-0.36,5.18,-0.58,-0.56,-0.12,
3.177,-0.81,-0.36,5.18,-0.53,-0.54,-0.11,
3.177,-0.81,-0.36,5.18,-0.49,-0.52,-0.10,
3.18,-0.81,-0.36,5.18,-0.45,-0.50,-0.09,
3.182,-0.89,-1.02,4.67,-0.45,-0.50,-0.09,
3.182,-0.89,-1.02,4.67,-0.41,-0.48,-0.09,
3.184,-0.89,-1.02,4.67,-0.37,-0.47,-0.08,
3.186,-0.89,-1.02,4.67,-0.34,-0.46,-0.07,
3.187,-0.89,-1.02,4.67,-0.31,-0.46,-0.07,
3.189,-0.89,-1.02,4.67,-0.28,-0.45,-0.06,
3.192,-0.97,-1.73,3.80,-0.28,-0.45,-0.06,
3.193,-0.97,-1.73,3.80,-0.25,-0.45,-0.06,
3.194,-0.97,-1.73,3.80,-0.23,-0.45,-0.05,
3.195,-0.97,-1.73,3.80,-0.21,-0.45,-0.05,
3.197,-0.97,-1.73,3.80,-0.18,-0.46,-0.04,
3.199,-0.97,-1.73,3.80,-0.16,-0.47,-0.04,
3.202,-1.07,-2.18,3.17,-0.16,-0.47,-0.04,
3.202,-1.07,-2.18,3.17,-0.14,-0.48,-0.03,
3.203,-1.07,-2.18,3.17,-0.13,-0.49,-0.02,
3.205,-1.07,-2.18,3.17,-0.10,-0.51,-0.02,
3.208,-1.07,-2.18,3.17,-0.09,-0.52,-0.01,
3.209,-1.07,-2.18,3.17,-0.07,-0.54,0.00,
3.212,-1.20,-2.25,2.54,-0.07,-0.54,0.00,
3.212,-1.20,-2.25,2.54,-0.05,-0.56,0.01,
3.213,-1.20,-2.25,2.54,-0.03,-0.57,0.02,
3.215,-1.20,-2.25,2.54,-0.02,-0.59,0.04,
3.217,-1.20,-2.25,2.54,0.00,-0.60,0.05,
3.219,-1.20,-2.25,2.54,0.02,-0.62,0.06,
3.225,-1.32,-2.09,2.10,0.02,-0.62,0.06,
3.226,-1.32,-2.09,2.10,0.04,-0.63,0.07,
3.227,-1.32,-2.09,2.10,0.06,-0.65,0.08,
3.227,-1.32,-2.09,2.10,0.08,-0.66,0.09,
3.227,-1.32,-2.09,2.10,0.10,-0.67,0.10,
3.23,-1.32,-2.09,2.10,0.12,-0.67,0.11,
3.232,-1.31,-1.84,1.69,0.12,-0.67,0.11,
3.233,-1.31,-1.84,1.69,0.15,-0.68,0.12,
3.234,-1.31,-1.84,1.69,0.17,-0.68,0.13,
3.236,-1.31,-1.84,1.69,0.19,-0.68,0.13,
3.238,-1.31,-1.84,1.69,0.22,-0.67,0.14,
3.24,-1.31,-1.84,1.69,0.25,-0.67,0.14,
3.242,-1.36,-1.83,1.46,0.25,-0.67,0.14,
3.243,-1.36,-1.83,1.46,0.28,-0.67,0.15,
3.244,-1.36,-1.83,1.46,0.32,-0.67,0.15,
3.246,-1.36,-1.83,1.46,0.36,-0.66,0.15,
3.247,-1.36,-1.83,1.46,0.40,-0.66,0.15,
3.249,-1.36,-1.83,1.46,0.44,-0.66,0.15,
3.252,-1.36,-2.11,1.37,0.44,-0.66,0.15,
3.252,-1.36,-2.11,1.37,0.48,-0.65,0.15,
3.253,-1.36,-2.11,1.37,0.53,-0.64,0.15,
3.255,-1.36,-2.11,1.37,0.57,-0.62,0.15,
3.263,-1.36,-2.11,1.37,0.62,-0.60,0.14,
3.263,-1.36,-2.11,1.37,0.66,-0.58,0.14,
3.295,-1.56,-2.53,1.42,0.66,-0.58,0.14,
3.296,-1.56,-2.53,1.42,0.73,-0.55,0.14,
3.297,-1.56,-2.53,1.42,0.75,-0.54,0.14,
3.298,-1.56,-2.53,1.42,0.80,-0.51,0.14,
3.298,-1.56,-2.53,1.42,0.84,-0.48,0.15,
3.298,-1.56,-2.53,1.42,0.88,-0.45,0.15,
3.299,-1.84,-3.10,1.57,0.88,-0.45,0.15,
3.299,-1.84,-3.10,1.57,0.92,-0.42,0.15,
3.3,-1.84,-3.10,1.57,0.95,-0.38,0.15,
3.3,-1.84,-3.10,1.57,0.99,-0.34,0.16,
3.301,-1.84,-3.10,1.57,1.02,-0.30,0.16,
3.301,-1.84,-3.10,1.57,1.05,-0.25,0.16,
3.302,-2.21,-3.77,2.03,1.05,-0.25,0.16,
3.302,-2.21,-3.77,2.03,1.07,-0.21,0.17,
3.303,-2.21,-3.77,2.03,1.10,-0.16,0.17,
3.303,-2.21,-3.77,2.03,1.12,-0.11,0.18,
3.304,-2.21,-3.77,2.03,1.15,-0.06,0.19,
3.304,-2.21,-3.77,2.03,1.18,-0.01,0.21,
3.305,-2.61,-4.07,2.90,1.18,-0.01,0.21,
3.306,-2.61,-4.07,2.90,1.21,0.04,0.22,
3.306,-2.61,-4.07,2.90,1.24,0.09,0.25,
3.336,-2.61,-4.07,2.90,1.28,0.14,0.29,
3.336,-2.61,-4.07,2.90,1.32,0.18,0.32,
3.337,-2.61,-4.07,2.90,1.37,0.22,0.37,
3.337,-3.36,-3.70,3.91,1.37,0.22,0.37,
3.338,-3.36,-3.70,3.91,1.42,0.26,0.42,
3.338,-3.36,-3.70,3.91,1.47,0.29,0.48,
3.338,-3.36,-3.70,3.91,1.53,0.32,0.54,
3.339,-3.36,-3.70,3.91,1.59,0.35,0.60,
3.339,-3.36,-3.70,3.91,1.66,0.39,0.66,
3.34,-3.83,-2.91,4.15,1.66,0.39,0.66,
3.34,-3.83,-2.91,4.15,1.75,0.44,0.73,
3.341,-3.83,-2.91,4.15,1.85,0.51,0.80,
3.341,-3.83,-2.91,4.15,1.97,0.60,0.88,
3.341,-3.83,-2.91,4.15,2.10,0.70,0.95,
3.342,-3.83,-2.91,4.15,2.24,0.81,1.03,
3.342,-4.27,-2.18,5.66,2.24,0.81,1.03,
3.343,-4.27,-2.18,5.66,2.40,0.94,1.10,
3.343,-4.27,-2.18,5.66,2.57,1.07,1.17,
3.343,-4.27,-2.18,5.66,2.74,1.20,1.25,
3.344,-4.27,-2.18,5.66,2.92,1.34,1.32,
3.344,-4.27,-2.18,5.66,3.10,1.47,1.39,
3.345,-3.91,-1.72,6.00,3.10,1.47,1.39,
3.345,-3.91,-1.72,6.00,3.26,1.59,1.45,
3.345,-3.91,-1.72,6.00,3.42,1.69,1.51,
3.346,-3.91,-1.72,6.00,3.55,1.78,1.56,
3.346,-3.91,-1.72,6.00,3.67,1.83,1.60,
3.347,-3.91,-1.72,6.00,3.76,1.86,1.63,
3.347,-2.37,-1.94,3.07,3.76,1.86,1.63,
3.347,-2.37,-1.94,3.07,3.82,1.86,1.65,
3.348,-2.37,-1.94,3.07,3.86,1.83,1.66,
3.348,-2.37,-1.94,3.07,3.87,1.77,1.66,
3.349,-2.37,-1.94,3.07,3.85,1.69,1.66,
3.362,-2.37,-1.94,3.07,3.81,1.58,1.65,
3.362,-0.18,-2.62,-1.93,3.81,1.58,1.65,
3.363,-0.18,-2.62,-1.93,3.75,1.45,1.63,
3.363,-0.18,-2.62,-1.93,3.67,1.30,1.60,
3.363,-0.18,-2.62,-1.93,3.57,1.14,1.57,
3.364,-0.18,-2.62,-1.93,3.46,0.96,1.53,
3.364,-0.18,-2.62,-1.93,3.34,0.78,1.49,
3.364,1.76,-2.89,-6.28,3.34,0.78,1.49,
3.365,1.76,-2.89,-6.28,3.22,0.60,1.45,
3.365,1.76,-2.89,-6.28,3.09,0.41,1.40,
3.366,1.76,-2.89,-6.28,2.96,0.22,1.36,
3.37,1.76,-2.89,-6.28,2.83,0.02,1.31,
3.372,1.76,-2.89,-6.28,2.70,-0.17,1.26,
3.373,2.52,-2.52,-7.85,2.70,-0.17,1.26,
3.373,2.52,-2.52,-7.85,2.58,-0.37,1.22,
3.374,2.52,-2.52,-7.85,2.47,-0.57,1.17,
3.38,2.52,-2.52,-7.85,2.36,-0.77,1.11,
3.381,2.52,-2.52,-7.85,2.26,-0.97,1.06,
3.381,2.52,-2.52,-7.85,2.16,-1.17,1.01,
3.382,2.84,-2.10,-7.51,2.16,-1.17,1.01,
3.383,2.84,-2.10,-7.51,2.08,-1.36,0.96,
3.384,2.84,-2.10,-7.51,2.01,-1.56,0.92,
3.386,2.84,-2.10,-7.51,1.95,-1.74,0.87,
3.388,2.84,-2.10,-7.51,1.90,-1.92,0.83,
3.401,2.84,-2.10,-7.51,1.85,-2.09,0.79,
3.402,2.23,-1.89,-6.05,1.85,-2.09,0.79,
3.402,2.23,-1.89,-6.05,1.81,-2.25,0.76,
3.403,2.23,-1.89,-6.05,1.78,-2.41,0.72,
3.403,2.23,-1.89,-6.05,1.75,-2.55,0.69,
3.403,2.23,-1.89,-6.05,1.73,-2.68,0.67,
3.403,2.23,-1.89,-6.05,1.71,-2.80,0.64,
3.403,1.46,-1.95,-5.30,1.71,-2.80,0.64,
3.404,1.46,-1.95,-5.30,1.69,-2.91,0.61,
3.404,1.46,-1.95,-5.30,1.68,-3.01,0.59,
3.447,1.46,-1.95,-5.30,1.66,-3.10,0.56,
3.447,1.46,-1.95,-5.30,1.66,-3.17,0.54,
3.448,1.46,-1.95,-5.30,1.65,-3.23,0.52,
3.448,0.78,-2.20,-4.66,1.65,-3.23,0.52,
3.448,0.78,-2.20,-4.66,1.65,-3.28,0.50,
3.448,0.78,-2.20,-4.66,1.66,-3.31,0.48,
3.448,0.78,-2.20,-4.66,1.67,-3.32,0.46,
3.449,0.78,-2.20,-4.66,1.69,-3.31,0.44,
3.449,0.78,-2.20,-4.66,1.72,-3.28,0.43,
3.449,0.26,-2.67,-3.71,1.72,-3.28,0.43,
3.449,0.26,-2.67,-3.71,1.76,-3.24,0.42,
3.449,0.26,-2.67,-3.71,1.80,-3.17,0.40,
3.45,0.26,-2.67,-3.71,1.86,-3.08,0.39,
3.45,0.26,-2.67,-3.71,1.93,-2.97,0.38,
3.45,0.26,-2.67,-3.71,2.01,-2.83,0.38,
3.45,-0.13,-3.27,-1.97,2.01,-2.83,0.38,
3.45,-0.13,-3.27,-1.97,2.09,-2.67,0.37,
3.45,-0.13,-3.27,-1.97,2.19,-2.49,0.37,
3.451,-0.13,-3.27,-1.97,2.30,-2.28,0.37,
3.451,-0.13,-3.27,-1.97,2.41,-2.07,0.37,
3.451,-0.13,-3.27,-1.97,2.52,-1.84,0.38,
3.451,-0.53,-3.84,-0.53,2.52,-1.84,0.38,
3.451,-0.53,-3.84,-0.53,2.63,-1.61,0.39,
3.452,-0.53,-3.84,-0.53,2.73,-1.38,0.41,
3.452,-0.53,-3.84,-0.53,2.82,-1.15,0.43,
3.452,-0.53,-3.84,-0.53,2.91,-0.93,0.46,
3.452,-0.53,-3.84,-0.53,2.98,-0.72,0.50,
3.452,-1.16,-4.01,-1.19,2.98,-0.72,0.50,
3.453,-1.16,-4.01,-1.19,3.04,-0.52,0.53,
3.454,-1.16,-4.01,-1.19,3.09,-0.34,0.58,
3.458,-1.16,-4.01,-1.19,3.13,-0.17,0.62,
3.466,-1.16,-4.01,-1.19,3.15,-0.02,0.67,
3.467,-1.16,-4.01,-1.19,3.16,0.11,0.72,
3.467,-1.58,-4.01,-2.94,3.16,0.11,0.72,
3.488,-1.58,-4.01,-2.94,3.17,0.23,0.77,
3.489,-1.58,-4.01,-2.94,3.16,0.34,0.82,
3.489,-1.58,-4.01,-2.94,3.15,0.43,0.87,
3.489,-1.58,-4.01,-2.94,3.13,0.52,0.93,
3.49,-1.58,-4.01,-2.94,3.10,0.60,0.97,
3.49,-1.34,-3.84,-4.24,3.10,0.60,0.97,
3.49,-1.34,-3.84,-4.24,3.06,0.67,1.02,
3.49,-1.34,-3.84,-4.24,3.02,0.74,1.06,
3.491,-1.34,-3.84,-4.24,2.97,0.81,1.10,
3.491,-1.34,-3.84,-4.24,2.92,0.87,1.13,
3.491,-1.34,-3.84,-4.24,2.87,0.93,1.16,
3.491,-0.59,-3.50,-5.04,2.87,0.93,1.16,
3.492,-0.59,-3.50,-5.04,2.82,0.99,1.18,
3.492,-0.59,-3.50,-5.04,2.77,1.05,1.20,
3.493,-0.59,-3.50,-5.04,2.72,1.11,1.21,
3.493,-0.59,-3.50,-5.04,2.67,1.18,1.22,
3.493,-0.59,-3.50,-5.04,2.62,1.24,1.23,
3.499,0.21,-2.77,-4.77,2.62,1.24,1.23,
3.5,0.21,-2.77,-4.77,2.58,1.31,1.23,
3.5,0.21,-2.77,-4.77,2.54,1.38,1.23,
3.501,0.21,-2.77,-4.77,2.50,1.45,1.23,
3.501,0.21,-2.77,-4.77,2.45,1.53,1.22,
3.501,0.21,-2.77,-4.77,2.41,1.61,1.21,
3.503,0.87,-2.00,-4.50,2.41,1.61,1.21,
3.503,0.87,-2.00,-4.50,2.37,1.68,1.20,
3.505,0.87,-2.00,-4.50,2.32,1.75,1.19,
3.507,0.87,-2.00,-4.50,2.28,1.83,1.17,
3.509,0.87,-2.00,-4.50,2.24,1.89,1.16,
3.51,0.87,-2.00,-4.50,2.20,1.95,1.14,
3.512,1.23,-1.12,-4.14,2.20,1.95,1.14,
3.513,1.23,-1.12,-4.14,2.16,2.00,1.12,
3.514,1.23,-1.12,-4.14,2.11,2.04,1.11,
3.516,1.23,-1.12,-4.14,2.07,2.08,1.09,
3.518,1.23,-1.12,-4.14,2.03,2.12,1.07,
3.52,1.23,-1.12,-4.14,1.98,2.15,1.05,
3.528,1.50,-0.32,-4.05,1.98,2.15,1.05,
3.529,1.50,-0.32,-4.05,1.94,2.17,1.03,
3.529,1.50,-0.32,-4.05,1.90,2.18,1.00,
3.529,1.50,-0.32,-4.05,1.87,2.18,0.98,
3.529,1.50,-0.32,-4.05,1.83,2.16,0.96,
3.53,1.50,-0.32,-4.05,1.80,2.12,0.94,
3.538,1.56,0.37,-3.36,1.80,2.12,0.94,
3.542,1.56,0.37,-3.36,1.78,2.08,0.92,
3.543,1.56,0.37,-3.36,1.75,2.02,0.90,
3.543,1.56,0.37,-3.36,1.73,1.95,0.88,
3.543,1.56,0.37,-3.36,1.71,1.87,0.87,
3.543,1.56,0.37,-3.36,1.69,1.78,0.86,
3.543,1.32,0.84,-2.97,1.69,1.78,0.86,
3.544,1.32,0.84,-2.97,1.67,1.69,0.84,
3.544,1.32,0.84,-2.97,1.64,1.60,0.83,
3.556,1.32,0.84,-2.97,1.61,1.50,0.82,
3.557,1.32,0.84,-2.97,1.58,1.40,0.80,
3.557,1.32,0.84,-2.97,1.55,1.30,0.79,
3.557,1.11,1.30,-3.16,1.55,1.30,0.79,
3.557,1.11,1.30,-3.16,1.51,1.20,0.77,
3.558,1.11,1.30,-3.16,1.47,1.10,0.76,
3.558,1.11,1.30,-3.16,1.43,1.00,0.74,
3.56,1.11,1.30,-3.16,1.39,0.90,0.73,
3.56,1.11,1.30,-3.16,1.34,0.80,0.71,
3.562,0.95,1.52,-3.66,1.34,0.80,0.71,
3.562,0.95,1.52,-3.66,1.30,0.71,0.70,
3.563,0.95,1.52,-3.66,1.25,0.61,0.68,
3.565,0.95,1.52,-3.66,1.20,0.53,0.66,
3.567,0.95,1.52,-3.66,1.16,0.44,0.64,
3.569,0.95,1.52,-3.66,1.11,0.35,0.62,
3.573,0.89,1.64,-3.82,1.11,0.35,0.62,
3.573,0.89,1.64,-3.82,1.06,0.27,0.61,
3.574,0.89,1.64,-3.82,1.01,0.20,0.58,
3.576,0.89,1.64,-3.82,0.96,0.13,0.56,
3.578,0.89,1.64,-3.82,0.90,0.06,0.54,
3.58,0.89,1.64,-3.82,0.85,0.01,0.52,
3.582,0.95,1.68,-4.26,0.85,0.01,0.52,
3.582,0.95,1.68,-4.26,0.79,-0.04,0.49,
3.584,0.95,1.68,-4.26,0.74,-0.09,0.47,
3.585,0.95,1.68,-4.26,0.67,-0.12,0.45,
3.587,0.95,1.68,-4.26,0.61,-0.15,0.42,
3.59,0.95,1.68,-4.26,0.54,-0.17,0.39,
3.593,1.05,1.98,-4.82,0.54,-0.17,0.39,
3.593,1.05,1.98,-4.82,0.48,-0.19,0.37,
3.594,1.05,1.98,-4.82,0.41,-0.19,0.35,
3.596,1.05,1.98,-4.82,0.34,-0.20,0.32,
3.597,1.05,1.98,-4.82,0.28,-0.20,0.29,
3.6,1.05,1.98,-4.82,0.21,-0.20,0.27,
3.602,1.21,2.20,-5.34,0.21,-0.20,0.27,
3.603,1.21,2.20,-5.34,0.14,-0.20,0.24,
3.603,1.21,2.20,-5.34,0.08,-0.20,0.22,
3.606,1.21,2.20,-5.34,0.02,-0.20,0.19,
3.608,1.21,2.20,-5.34,-0.04,-0.20,0.16,
3.61,1.21,2.20,-5.34,-0.09,-0.20,0.13,
3.613,1.40,2.49,-5.19,-0.09,-0.20,0.13,
3.614,1.40,2.49,-5.19,-0.17,-0.19,0.09,
3.616,1.40,2.49,-5.19,-0.22,-0.19,0.06,
3.617,1.40,2.49,-5.19,-0.27,-0.19,0.03,
3.621,1.40,2.49,-5.19,-0.29,-0.19,0.02,
3.621,1.40,2.49,-5.19,-0.33,-0.20,-0.01,
3.625,1.55,2.70,-4.97,-0.33,-0.20,-0.01,
3.625,1.55,2.70,-4.97,-0.37,-0.21,-0.04,
3.625,1.55,2.70,-4.97,-0.40,-0.22,-0.06,
3.626,1.55,2.70,-4.97,-0.45,-0.25,-0.10,
3.628,1.55,2.70,-4.97,-0.46,-0.26,-0.11,
3.645,1.55,2.70,-4.97,-0.49,-0.29,-0.13,
3.645,1.53,2.99,-4.55,-0.49,-0.29,-0.13,
3.645,1.53,2.99,-4.55,-0.52,-0.32,-0.15,
3.645,1.53,2.99,-4.55,-0.54,-0.35,-0.17,
3.645,1.53,2.99,-4.55,-0.57,-0.39,-0.18,
3.646,1.53,2.99,-4.55,-0.59,-0.43,-0.20,
3.646,1.53,2.99,-4.55,-0.61,-0.47,-0.21,
3.646,1.46,3.13,-4.44,-0.61,-0.47,-0.21,
3.646,1.46,3.13,-4.44,-0.63,-0.50,-0.22,
3.647,1.46,3.13,-4.44,-0.65,-0.54,-0.23,
3.647,1.46,3.13,-4.44,-0.67,-0.58,-0.24,
3.65,1.46,3.13,-4.44,-0.70,-0.62,-0.25,
3.651,1.46,3.13,-4.44,-0.72,-0.66,-0.26,
3.652,1.29,3.35,-4.29,-0.72,-0.66,-0.26,
3.652,1.29,3.35,-4.29,-0.74,-0.69,-0.27,
3.654,1.29,3.35,-4.29,-0.77,-0.73,-0.27,
3.664,1.29,3.35,-4.29,-0.80,-0.77,-0.28,
3.665,1.29,3.35,-4.29,-0.83,-0.82,-0.29,
3.665,1.29,3.35,-4.29,-0.86,-0.86,-0.30,
3.665,1.23,3.42,-4.27,-0.86,-0.86,-0.30,
3.666,1.23,3.42,-4.27,-0.89,-0.91,-0.31,
3.666,1.23,3.42,-4.27,-0.92,-0.96,-0.33,
3.666,1.23,3.42,-4.27,-0.95,-1.02,-0.34,
3.668,1.23,3.42,-4.27,-0.99,-1.08,-0.35,
3.67,1.23,3.42,-4.27,-1.03,-1.13,-0.37,
3.678,1.19,3.52,-3.99,-1.03,-1.13,-0.37,
3.679,1.19,3.52,-3.99,-1.06,-1.19,-0.39,
3.679,1.19,3.52,-3.99,-1.10,-1.25,-0.41,
3.679,1.19,3.52,-3.99,-1.15,-1.30,-0.43,
3.679,1.19,3.52,-3.99,-1.19,-1.35,-0.45,
3.68,1.19,3.52,-3.99,-1.24,-1.41,-0.48,
3.684,1.26,3.44,-4.08,-1.24,-1.41,-0.48,
3.685,1.26,3.44,-4.08,-1.30,-1.45,-0.50,
3.685,1.26,3.44,-4.08,-1.35,-1.49,-0.53,
3.686,1.26,3.44,-4.08,-1.40,-1.53,-0.56,
3.707,1.26,3.44,-4.08,-1.46,-1.56,-0.59,
3.708,1.26,3.44,-4.08,-1.52,-1.59,-0.62,
3.708,1.13,3.31,-3.92,-1.52,-1.59,-0.62,
3.709,1.13,3.31,-3.92,-1.58,-1.61,-0.65,
3.709,1.13,3.31,-3.92,-1.65,-1.63,-0.69,
3.709,1.13,3.31,-3.92,-1.71,-1.65,-0.72,
3.709,1.13,3.31,-3.92,-1.78,-1.66,-0.75,
3.709,1.13,3.31,-3.92,-1.84,-1.67,-0.79,
3.709,1.10,3.07,-3.50,-1.84,-1.67,-0.79,
3.71,1.10,3.07,-3.50,-1.90,-1.67,-0.82,
3.71,1.10,3.07,-3.50,-1.97,-1.67,-0.86,
3.71,1.10,3.07,-3.50,-2.03,-1.67,-0.89,
3.71,1.10,3.07,-3.50,-2.08,-1.65,-0.93,
3.71,1.10,3.07,-3.50,-2.14,-1.63,-0.97,
3.713,0.90,2.72,-2.15,-2.14,-1.63,-0.97,
3.713,0.90,2.72,-2.15,-2.19,-1.61,-1.00,
3.714,0.90,2.72,-2.15,-2.24,-1.57,-1.04,
3.715,0.90,2.72,-2.15,-2.28,-1.54,-1.06,
3.717,0.90,2.72,-2.15,-2.33,-1.50,-1.10,
3.719,0.90,2.72,-2.15,-2.36,-1.45,-1.12,
3.727,0.79,1.92,0.07,-2.36,-1.45,-1.12,
3.728,0.79,1.92,0.07,-2.40,-1.40,-1.15,
3.728,0.79,1.92,0.07,-2.43,-1.33,-1.17,
3.728,0.79,1.92,0.07,-2.45,-1.26,-1.19,
3.728,0.79,1.92,0.07,-2.46,-1.17,-1.20,
3.729,0.79,1.92,0.07,-2.46,-1.08,-1.21,
3.732,0.93,0.64,3.97,-2.46,-1.08,-1.21,
3.732,0.93,0.64,3.97,-2.45,-0.99,-1.22,
3.734,0.93,0.64,3.97,-2.41,-0.90,-1.22,
3.736,0.93,0.64,3.97,-2.34,-0.82,-1.21,
3.738,0.93,0.64,3.97,-2.25,-0.77,-1.19,
3.739,0.93,0.64,3.97,-2.13,-0.74,-1.17,
3.742,0.80,-0.86,11.84,-2.13,-0.74,-1.17,
3.742,0.80,-0.86,11.84,-2.00,-0.74,-1.13,
3.743,0.80,-0.86,11.84,-1.87,-0.77,-1.09,
3.745,0.80,-0.86,11.84,-1.73,-0.82,-1.04,
3.747,0.80,-0.86,11.84,-1.61,-0.88,-0.98,
3.749,0.80,-0.86,11.84,-1.50,-0.96,-0.91,
3.752,0.01,-2.30,16.63,-1.50,-0.96,-0.91,
3.752,0.01,-2.30,16.63,-1.42,-1.05,-0.85,
3.753,0.01,-2.30,16.63,-1.36,-1.16,-0.79,
3.756,0.01,-2.30,16.63,-1.31,-1.26,-0.73,
3.757,0.01,-2.30,16.63,-1.28,-1.37,-0.69,
3.76,0.01,-2.30,16.63,-1.25,-1.46,-0.66,
3.762,0.22,-3.11,16.73,-1.25,-1.46,-0.66,
3.762,0.22,-3.11,16.73,-1.22,-1.54,-0.65,
3.764,0.22,-3.11,16.73,-1.19,-1.59,-0.66,
3.766,0.22,-3.11,16.73,-1.16,-1.64,-0.68,
3.767,0.22,-3.11,16.73,-1.13,-1.66,-0.71,
3.769,0.22,-3.11,16.73,-1.09,-1.68,-0.75,
3.772,1.49,-3.14,14.81,-1.09,-1.68,-0.75,
3.773,1.49,-3.14,14.81,-1.06,-1.69,-0.79,
3.774,1.49,-3.14,14.81,-1.02,-1.68,-0.83,
3.775,1.49,-3.14,14.81,-0.99,-1.67,-0.88,
3.777,1.49,-3.14,14.81,-0.95,-1.65,-0.92,
3.779,1.49,-3.14,14.81,-0.90,-1.63,-0.96,
3.782,1.56,-2.48,12.35,-0.90,-1.63,-0.96,
3.782,1.56,-2.48,12.35,-0.86,-1.61,-0.99,
3.784,1.56,-2.48,12.35,-0.81,-1.58,-1.02,
3.786,1.56,-2.48,12.35,-0.76,-1.55,-1.05,
3.797,1.56,-2.48,12.35,-0.72,-1.53,-1.07,
3.798,1.56,-2.48,12.35,-0.66,-1.50,-1.09,
3.799,0.82,-1.62,9.75,-0.66,-1.50,-1.09,
3.799,0.82,-1.62,9.75,-0.62,-1.48,-1.11,
3.8,0.82,-1.62,9.75,-0.57,-1.45,-1.12,
3.816,0.82,-1.62,9.75,-0.53,-1.43,-1.13,
3.816,0.82,-1.62,9.75,-0.49,-1.40,-1.13,
3.816,0.82,-1.62,9.75,-0.45,-1.37,-1.13,
3.817,-0.13,-0.75,6.87,-0.45,-1.37,-1.13,
3.819,-0.13,-0.75,6.87,-0.43,-1.35,-1.12,
3.819,-0.13,-0.75,6.87,-0.40,-1.32,-1.11,
3.819,-0.13,-0.75,6.87,-0.38,-1.28,-1.08,
3.82,-0.13,-0.75,6.87,-0.37,-1.25,-1.05,
3.82,-0.13,-0.75,6.87,-0.37,-1.20,-1.02,
3.82,-1.43,0.01,3.38,-0.37,-1.20,-1.02,
3.82,-1.43,0.01,3.38,-0.37,-1.15,-0.98,
3.82,-1.43,0.01,3.38,-0.38,-1.09,-0.94,
3.821,-1.43,0.01,3.38,-0.38,-1.03,-0.91,
3.821,-1.43,0.01,3.38,-0.39,-0.95,-0.86,
3.821,-1.43,0.01,3.38,-0.39,-0.87,-0.82,
3.824,-2.32,0.32,0.56,-0.39,-0.87,-0.82,
3.824,-2.32,0.32,0.56,-0.40,-0.80,-0.78,
3.825,-2.32,0.32,0.56,-0.41,-0.73,-0.73,
3.825,-2.32,0.32,0.56,-0.42,-0.67,-0.68,
3.827,-2.32,0.32,0.56,-0.42,-0.63,-0.63,
3.829,-2.32,0.32,0.56,-0.43,-0.59,-0.58,
3.832,-3.13,-0.20,-1.50,-0.43,-0.59,-0.58,
3.832,-3.13,-0.20,-1.50,-0.44,-0.56,-0.52,
3.833,-3.13,-0.20,-1.50,-0.45,-0.54,-0.46,
3.835,-3.13,-0.20,-1.50,-0.45,-0.53,-0.39,
3.839,-3.13,-0.20,-1.50,-0.46,-0.52,-0.32,
3.84,-3.13,-0.20,-1.50,-0.46,-0.52,-0.24,
3.842,-4.40,-1.55,-2.89,-0.46,-0.52,-0.24,
3.842,-4.40,-1.55,-2.89,-0.46,-0.53,-0.16,
3.843,-4.40,-1.55,-2.89,-0.46,-0.54,-0.08,
3.845,-4.40,-1.55,-2.89,-0.45,-0.56,0.04,
3.847,-4.40,-1.55,-2.89,-0.45,-0.58,0.08,
3.849,-4.40,-1.55,-2.89,-0.44,-0.61,0.16,
3.852,-4.93,-3.00,-3.67,-0.44,-0.61,0.16,
3.852,-4.93,-3.00,-3.67,-0.43,-0.65,0.23,
3.854,-4.93,-3.00,-3.67,-0.42,-0.69,0.29,
3.856,-4.93,-3.00,-3.67,-0.41,-0.74,0.35,
3.862,-4.93,-3.00,-3.67,-0.40,-0.80,0.41,
3.862,-4.93,-3.00,-3.67,-0.39,-0.88,0.45,
3.862,-4.57,-3.56,-4.55,-0.39,-0.88,0.45,
3.863,-4.57,-3.56,-4.55,-0.37,-0.95,0.49,
3.865,-4.57,-3.56,-4.55,-0.36,-1.04,0.51,
3.866,-4.57,-3.56,-4.55,-0.34,-1.12,0.53,
3.869,-4.57,-3.56,-4.55,-0.31,-1.21,0.54,
3.87,-4.57,-3.56,-4.55,-0.29,-1.30,0.55,
3.872,-3.50,-2.95,-4.42,-0.29,-1.30,0.55,
3.873,-3.50,-2.95,-4.42,-0.25,-1.44,0.55,
3.874,-3.50,-2.95,-4.42,-0.23,-1.54,0.55,
3.876,-3.50,-2.95,-4.42,-0.20,-1.64,0.55,
3.877,-3.50,-2.95,-4.42,-0.19,-1.69,0.54,
3.879,-3.50,-2.95,-4.42,-0.17,-1.80,0.54,
3.882,-3.34,-2.18,-4.19,-0.17,-1.80,0.54,
3.882,-3.34,-2.18,-4.19,-0.14,-1.96,0.55,
3.883,-3.34,-2.18,-4.19,-0.13,-2.02,0.55,
3.885,-3.34,-2.18,-4.19,-0.11,-2.13,0.57,
3.888,-3.34,-2.18,-4.19,-0.10,-2.23,0.58,
3.895,-3.34,-2.18,-4.19,-0.09,-2.33,0.61,
3.895,-4.08,-1.99,-3.86,-0.09,-2.33,0.61,
3.896,-4.08,-1.99,-3.86,-0.07,-2.45,0.65,
3.896,-4.08,-1.99,-3.86,-0.07,-2.48,0.67,
3.899,-4.08,-1.99,-3.86,-0.05,-2.52,0.71,
3.9,-4.08,-1.99,-3.86,-0.02,-2.52,0.76,
3.902,-4.08,-1.99,-3.86,0.03,-2.48,0.82,
3.902,-5.55,-2.09,-2.21,0.03,-2.48,0.82,
3.903,-5.55,-2.09,-2.21,0.15,-2.27,0.93,
3.907,-5.55,-2.09,-2.21,0.21,-2.14,0.96,
3.909,-5.55,-2.09,-2.21,0.59,-1.29,1.12,
3.909,-5.55,-2.09,-2.21,0.73,-0.91,1.17,
3.911,-5.55,-2.09,-2.21,0.99,-0.15,1.28,
3.915,-7.48,-2.09,5.53,0.99,-0.15,1.28,
3.915,-7.48,-2.09,5.53,1.30,0.98,1.39,
3.915,-7.48,-2.09,5.53,1.45,1.68,1.44,
3.915,-7.48,-2.09,5.53,1.55,2.31,1.45,
3.92,-7.48,-2.09,5.53,1.58,2.61,1.45,
3.92,-7.48,-2.09,5.53,1.62,3.14,1.43,
3.924,-3.49,-1.15,2.10,1.62,3.14,1.43,
3.925,-3.49,-1.15,2.10,1.60,3.78,1.38,
3.925,-3.49,-1.15,2.10,1.58,3.96,1.36,
3.929,-3.49,-1.15,2.10,1.50,4.41,1.29,
3.929,-3.49,-1.15,2.10,1.46,4.53,1.26,
3.933,-3.49,-1.15,2.10,1.39,4.73,1.21,
3.933,-0.27,-0.46,-2.13,1.39,4.73,1.21,
3.933,-0.27,-0.46,-2.13,1.24,4.94,1.14,
3.934,-0.27,-0.46,-2.13,1.19,4.99,1.12,
3.938,-0.27,-0.46,-2.13,1.00,5.08,1.05,
3.945,-0.27,-0.46,-2.13,0.93,5.10,1.03,
3.946,-0.27,-0.46,-2.13,0.78,5.12,0.98,
3.946,1.07,-0.32,-4.94,0.78,5.12,0.98,
3.946,1.07,-0.32,-4.94,0.51,5.12,0.92,
3.947,1.07,-0.32,-4.94,0.31,5.10,0.89,
3.95,1.07,-0.32,-4.94,0.10,5.06,0.85,
3.951,1.07,-0.32,-4.94,-0.00,5.03,0.82,
3.956,1.07,-0.32,-4.94,-0.21,4.95,0.77,
3.956,2.25,-0.42,-6.59,-0.21,4.95,0.77,
3.957,2.25,-0.42,-6.59,-0.51,4.79,0.67,
3.957,2.25,-0.42,-6.59,-0.70,4.65,0.60,
3.991,2.25,-0.42,-6.59,-0.88,4.49,0.51,
3.991,2.25,-0.42,-6.59,-1.05,4.31,0.41,
3.991,2.25,-0.42,-6.59,-1.20,4.10,0.31,
3.992,4.27,-0.97,-6.39,-1.20,4.10,0.31,
4.011,4.27,-0.97,-6.39,-1.34,3.89,0.18,
4.012,4.27,-0.97,-6.39,-1.47,3.67,0.06,
4.012,4.27,-0.97,-6.39,-1.58,3.43,-0.08,
4.012,4.27,-0.97,-6.39,-1.68,3.20,-0.23,
4.012,4.27,-0.97,-6.39,-1.77,2.95,-0.38,
4.012,6.05,-2.17,-5.26,-1.77,2.95,-0.38,
4.013,6.05,-2.17,-5.26,-1.83,2.69,-0.52,
4.013,6.05,-2.17,-5.26,-1.89,2.43,-0.67,
4.013,6.05,-2.17,-5.26,-1.93,2.17,-0.81,
4.013,6.05,-2.17,-5.26,-1.97,1.90,-0.95,
4.014,6.05,-2.17,-5.26,-1.99,1.63,-1.09,
4.014,6.89,-3.48,-3.58,-1.99,1.63,-1.09,
4.014,6.89,-3.48,-3.58,-2.00,1.35,-1.21,
4.014,6.89,-3.48,-3.58,-1.99,1.08,-1.33,
4.014,6.89,-3.48,-3.58,-1.98,0.80,-1.44,
4.015,6.89,-3.48,-3.58,-1.96,0.54,-1.54,
4.015,6.89,-3.48,-3.58,-1.93,0.28,-1.63,
4.015,6.48,-4.10,-1.56,-1.93,0.28,-1.63,
4.015,6.48,-4.10,-1.56,-1.89,0.03,-1.71,
4.016,6.48,-4.10,-1.56,-1.84,-0.21,-1.78,
4.016,6.48,-4.10,-1.56,-1.79,-0.44,-1.83,
4.016,6.48,-4.10,-1.56,-1.73,-0.66,-1.88,
4.016,6.48,-4.10,-1.56,-1.67,-0.86,-1.91,
4.017,5.42,-3.87,-0.03,-1.67,-0.86,-1.91,
4.017,5.42,-3.87,-0.03,-1.61,-1.05,-1.94,
4.017,5.42,-3.87,-0.03,-1.54,-1.23,-1.96,
4.017,5.42,-3.87,-0.03,-1.48,-1.40,-1.97,
4.017,5.42,-3.87,-0.03,-1.40,-1.56,-1.98,
4.018,5.42,-3.87,-0.03,-1.33,-1.71,-1.98,
4.018,4.35,-3.05,0.83,-1.33,-1.71,-1.98,
4.018,4.35,-3.05,0.83,-1.26,-1.85,-1.97,
4.018,4.35,-3.05,0.83,-1.19,-1.99,-1.95,
4.018,4.35,-3.05,0.83,-1.11,-2.12,-1.93,
4.019,4.35,-3.05,0.83,-1.04,-2.24,-1.91,
4.024,4.35,-3.05,0.83,-0.97,-2.35,-1.89,
4.024,3.93,-2.10,1.28,-0.97,-2.35,-1.89,
4.024,3.93,-2.10,1.28,-0.90,-2.46,-1.86,
4.025,3.93,-2.10,1.28,-0.84,-2.56,-1.83,
4.027,3.93,-2.10,1.28,-0.77,-2.66,-1.80,
4.028,3.93,-2.10,1.28,-0.71,-2.75,-1.77,
4.03,3.93,-2.10,1.28,-0.64,-2.83,-1.73,
4.032,3.55,-1.08,1.39,-0.64,-2.83,-1.73,
4.033,3.55,-1.08,1.39,-0.58,-2.91,-1.70,
4.034,3.55,-1.08,1.39,-0.52,-2.99,-1.66,
4.035,3.55,-1.08,1.39,-0.47,-3.05,-1.62,
4.038,3.55,-1.08,1.39,-0.42,-3.11,-1.59,
4.04,3.55,-1.08,1.39,-0.38,-3.17,-1.55,
4.042,3.20,-0.11,1.43,-0.38,-3.17,-1.55,
4.042,3.20,-0.11,1.43,-0.35,-3.24,-1.51,
4.044,3.20,-0.11,1.43,-0.37,-3.36,-1.46,
4.045,3.20,-0.11,1.43,-0.42,-3.54,-1.40,
4.047,3.20,-0.11,1.43,-0.50,-3.74,-1.34,
4.052,3.20,-0.11,1.43,-0.60,-3.98,-1.29,
4.052,2.04,1.71,2.21,-0.60,-3.98,-1.29,
4.052,2.04,1.71,2.21,-0.70,-4.20,-1.23,
4.063,2.04,1.71,2.21,-0.77,-4.41,-1.17,
4.063,2.04,1.71,2.21,-0.80,-4.59,-1.12,
4.064,2.04,1.71,2.21,-0.81,-4.73,-1.06,
4.064,2.04,1.71,2.21,-0.83,-4.83,-1.01,
4.064,-0.19,2.91,6.26,-0.83,-4.83,-1.01,
4.065,-0.19,2.91,6.26,-0.84,-4.88,-0.96,
4.065,-0.19,2.91,6.26,-0.83,-4.89,-0.91,
4.066,-0.19,2.91,6.26,-0.82,-4.86,-0.86,
4.068,-0.19,2.91,6.26,-0.80,-4.79,-0.82,
4.103,-0.19,2.91,6.26,-0.77,-4.68,-0.77,
4.104,-1.45,2.63,7.34,-0.77,-4.68,-0.77,
4.104,-1.45,2.63,7.34,-0.74,-4.53,-0.73,
4.104,-1.45,2.63,7.34,-0.70,-4.36,-0.69,
4.104,-1.45,2.63,7.34,-0.65,-4.16,-0.65,
4.104,-1.45,2.63,7.34,-0.61,-3.94,-0.62,
4.104,-1.45,2.63,7.34,-0.56,-3.71,-0.59,
4.105,-1.70,2.25,6.85,-0.56,-3.71,-0.59,
4.105,-1.70,2.25,6.85,-0.51,-3.47,-0.57,
4.105,-1.70,2.25,6.85,-0.47,-3.22,-0.55,
4.105,-1.70,2.25,6.85,-0.43,-2.99,-0.54,
4.105,-1.70,2.25,6.85,-0.39,-2.75,-0.54,
4.105,-1.70,2.25,6.85,-0.36,-2.51,-0.53,
4.105,-1.44,2.05,5.02,-0.36,-2.51,-0.53,
4.106,-1.44,2.05,5.02,-0.32,-2.28,-0.53,
4.106,-1.44,2.05,5.02,-0.29,-2.07,-0.54,
4.106,-1.44,2.05,5.02,-0.26,-1.86,-0.54,
4.106,-1.44,2.05,5.02,-0.23,-1.66,-0.54,
4.106,-1.44,2.05,5.02,-0.21,-1.46,-0.54,
4.106,-1.52,1.84,3.71,-0.21,-1.46,-0.54,
4.106,-1.52,1.84,3.71,-0.18,-1.28,-0.55,
4.112,-1.52,1.84,3.71,-0.15,-1.11,-0.55,
4.112,-1.52,1.84,3.71,-0.13,-0.94,-0.54,
4.112,-1.52,1.84,3.71,-0.10,-0.79,-0.54,
4.112,-1.52,1.84,3.71,-0.07,-0.64,-0.53,
4.116,-1.86,1.57,2.75,-0.07,-0.64,-0.53,
4.116,-1.86,1.57,2.75,-0.04,-0.51,-0.52,
4.116,-1.86,1.57,2.75,-0.02,-0.38,-0.50,
4.119,-1.86,1.57,2.75,0.01,-0.26,-0.49,
4.119,-1.86,1.57,2.75,0.03,-0.15,-0.47,
4.121,-1.86,1.57,2.75,0.05,-0.05,-0.45,
4.123,-2.43,1.23,2.07,0.05,-0.05,-0.45,
4.123,-2.43,1.23,2.07,0.07,0.05,-0.42,
4.124,-2.43,1.23,2.07,0.09,0.14,-0.39,
4.126,-2.43,1.23,2.07,0.11,0.22,-0.36,
4.127,-2.43,1.23,2.07,0.12,0.31,-0.32,
4.14,-2.43,1.23,2.07,0.13,0.38,-0.28,
4.14,-2.90,0.89,1.41,0.13,0.38,-0.28,
4.141,-2.90,0.89,1.41,0.14,0.46,-0.24,
4.141,-2.90,0.89,1.41,0.15,0.53,-0.21,
4.141,-2.90,0.89,1.41,0.16,0.61,-0.17,
4.141,-2.90,0.89,1.41,0.17,0.68,-0.12,
4.141,-2.90,0.89,1.41,0.17,0.74,-0.09,
4.143,-3.22,0.44,1.07,0.17,0.74,-0.09,
4.147,-3.22,0.44,1.07,0.18,0.92,0.03,
4.148,-3.22,0.44,1.07,0.18,0.92,0.03,
4.148,-3.22,0.44,1.07,0.18,0.97,0.07,
4.148,-3.22,0.44,1.07,0.18,0.97,0.07,
4.15,-3.22,0.44,1.07,0.18,1.01,0.11,
4.152,-3.11,-0.06,1.03,0.18,1.01,0.11,
4.153,-3.11,-0.06,1.03,0.18,1.06,0.14,
4.154,-3.11,-0.06,1.03,0.17,1.10,0.17,
4.156,-3.11,-0.06,1.03,0.16,1.14,0.20,
4.157,-3.11,-0.06,1.03,0.16,1.19,0.23,
4.159,-3.11,-0.06,1.03,0.15,1.23,0.26,
4.162,-3.02,-0.55,1.46,0.15,1.23,0.26,
4.162,-3.02,-0.55,1.46,0.15,1.28,0.28,
4.164,-3.02,-0.55,1.46,0.15,1.32,0.30,
4.165,-3.02,-0.55,1.46,0.15,1.37,0.31,
4.167,-3.02,-0.55,1.46,0.15,1.42,0.31,
4.17,-3.02,-0.55,1.46,0.15,1.46,0.32,
4.172,-2.00,-0.54,2.48,0.15,1.46,0.32,
4.173,-2.00,-0.54,2.48,0.16,1.50,0.31,
4.174,-2.00,-0.54,2.48,0.17,1.54,0.31,
4.176,-2.00,-0.54,2.48,0.18,1.56,0.31,
4.177,-2.00,-0.54,2.48,0.19,1.58,0.30,
4.179,-2.00,-0.54,2.48,0.21,1.59,0.30,
4.182,-0.66,0.03,3.86,0.21,1.59,0.30,
4.182,-0.66,0.03,3.86,0.22,1.60,0.30,
4.183,-0.66,0.03,3.86,0.24,1.60,0.29,
4.186,-0.66,0.03,3.86,0.26,1.60,0.29,
4.188,-0.66,0.03,3.86,0.27,1.58,0.29,
4.189,-0.66,0.03,3.86,0.29,1.56,0.29,
4.192,0.15,0.54,4.70,0.29,1.56,0.29,
4.192,0.15,0.54,4.70,0.30,1.54,0.29,
4.193,0.15,0.54,4.70,0.32,1.50,0.29,
4.195,0.15,0.54,4.70,0.33,1.47,0.29,
4.197,0.15,0.54,4.70,0.35,1.42,0.29,
4.199,0.15,0.54,4.70,0.36,1.38,0.29,
4.205,0.53,1.00,5.40,0.36,1.38,0.29,
4.205,0.53,1.00,5.40,0.37,1.33,0.29,
4.205,0.53,1.00,5.40,0.39,1.28,0.29,
4.205,0.53,1.00,5.40,0.41,1.23,0.30,
4.207,0.53,1.00,5.40,0.42,1.18,0.30,
4.213,0.53,1.00,5.40,0.44,1.14,0.31,
4.213,0.51,1.35,5.74,0.44,1.14,0.31,
4.213,0.51,1.35,5.74,0.46,1.10,0.31,
4.213,0.51,1.35,5.74,0.48,1.06,0.32,
4.215,0.51,1.35,5.74,0.50,1.02,0.33,
4.218,0.51,1.35,5.74,0.52,0.98,0.33,
4.229,0.51,1.35,5.74,0.55,0.94,0.34,
4.229,0.22,1.73,5.99,0.55,0.94,0.34,
4.229,0.22,1.73,5.99,0.57,0.90,0.35,
4.23,0.22,1.73,5.99,0.58,0.87,0.36,
4.23,0.22,1.73,5.99,0.60,0.83,0.37,
4.23,0.22,1.73,5.99,0.62,0.78,0.38,
4.23,0.22,1.73,5.99,0.63,0.73,0.39,
4.233,-0.14,2.07,4.95,0.63,0.73,0.39,
4.233,-0.14,2.07,4.95,0.64,0.68,0.39,
4.234,-0.14,2.07,4.95,0.64,0.62,0.40,
4.236,-0.14,2.07,4.95,0.65,0.56,0.40,
4.238,-0.14,2.07,4.95,0.65,0.49,0.40,
4.239,-0.14,2.07,4.95,0.66,0.42,0.40,
4.242,-0.33,2.46,3.47,0.66,0.42,0.40,
4.242,-0.33,2.46,3.47,0.67,0.35,0.40,
4.244,-0.33,2.46,3.47,0.68,0.29,0.41,
4.245,-0.33,2.46,3.47,0.70,0.23,0.41,
4.247,-0.33,2.46,3.47,0.72,0.18,0.41,
4.249,-0.33,2.46,3.47,0.75,0.14,0.41,
4.253,-0.71,2.79,2.54,0.75,0.14,0.41,
4.254,-0.71,2.79,2.54,0.78,0.10,0.42,
4.254,-0.71,2.79,2.54,0.81,0.07,0.42,
4.256,-0.71,2.79,2.54,0.84,0.04,0.43,
4.257,-0.71,2.79,2.54,0.86,0.01,0.44,
4.259,-0.71,2.79,2.54,0.89,-0.02,0.44,
4.262,-1.01,2.83,1.72,0.89,-0.02,0.44,
4.262,-1.01,2.83,1.72,0.91,-0.06,0.45,
4.264,-1.01,2.83,1.72,0.93,-0.09,0.46,
4.266,-1.01,2.83,1.72,0.94,-0.14,0.46,
4.268,-1.01,2.83,1.72,0.94,-0.19,0.46,
4.272,-1.01,2.83,1.72,0.94,-0.24,0.46,
4.275,-0.70,2.75,-0.23,0.94,-0.24,0.46,
4.275,-0.70,2.75,-0.23,0.93,-0.30,0.46,
4.276,-0.70,2.75,-0.23,0.91,-0.37,0.46,
4.276,-0.70,2.75,-0.23,0.89,-0.44,0.45,
4.278,-0.70,2.75,-0.23,0.86,-0.52,0.45,
4.28,-0.70,2.75,-0.23,0.83,-0.60,0.44,
4.282,-0.18,2.73,-2.61,0.83,-0.60,0.44,
4.283,-0.18,2.73,-2.61,0.79,-0.68,0.44,
4.284,-0.18,2.73,-2.61,0.76,-0.77,0.43,
4.29,-0.18,2.73,-2.61,0.72,-0.86,0.42,
4.291,-0.18,2.73,-2.61,0.68,-0.95,0.42,
4.292,-0.18,2.73,-2.61,0.64,-1.04,0.42,
4.295,0.17,2.95,-3.95,0.64,-1.04,0.42,
4.296,0.17,2.95,-3.95,0.61,-1.12,0.41,
4.296,0.17,2.95,-3.95,0.57,-1.20,0.41,
4.321,0.17,2.95,-3.95,0.54,-1.27,0.41,
4.321,0.17,2.95,-3.95,0.51,-1.35,0.40,
4.321,0.17,2.95,-3.95,0.48,-1.41,0.40,
4.322,0.29,3.51,-4.39,0.48,-1.41,0.40,
4.322,0.29,3.51,-4.39,0.46,-1.47,0.40,
4.323,0.29,3.51,-4.39,0.43,-1.53,0.40,
4.323,0.29,3.51,-4.39,0.41,-1.58,0.39,
4.324,0.29,3.51,-4.39,0.38,-1.62,0.39,
4.324,0.29,3.51,-4.39,0.36,-1.65,0.39,
4.324,0.33,4.25,-4.25,0.36,-1.65,0.39,
4.325,0.33,4.25,-4.25,0.34,-1.67,0.38,
4.325,0.33,4.25,-4.25,0.31,-1.68,0.38,
4.326,0.33,4.25,-4.25,0.28,-1.68,0.37,
4.326,0.33,4.25,-4.25,0.25,-1.67,0.37,
4.327,0.33,4.25,-4.25,0.22,-1.65,0.36,
4.333,0.51,4.89,-4.37,0.22,-1.65,0.36,
4.334,0.51,4.89,-4.37,0.19,-1.61,0.35,
4.334,0.51,4.89,-4.37,0.16,-1.55,0.34,
4.335,0.51,4.89,-4.37,0.13,-1.49,0.33,
4.335,0.51,4.89,-4.37,0.10,-1.41,0.32,
4.335,0.51,4.89,-4.37,0.07,-1.33,0.31,
4.335,0.79,5.31,-3.80,0.07,-1.33,0.31,
4.336,0.79,5.31,-3.80,0.05,-1.23,0.30,
4.336,0.79,5.31,-3.80,0.03,-1.13,0.29,
4.336,0.79,5.31,-3.80,0.03,-1.01,0.28,
4.338,0.79,5.31,-3.80,0.04,-0.88,0.26,
4.343,0.79,5.31,-3.80,0.07,-0.72,0.24,
4.343,1.53,4.73,-1.66,0.07,-0.72,0.24,
4.343,1.53,4.73,-1.66,0.11,-0.55,0.22,
4.345,1.53,4.73,-1.66,0.18,-0.37,0.20,
4.346,1.53,4.73,-1.66,0.25,-0.16,0.18,
4.349,1.53,4.73,-1.66,0.35,0.06,0.16,
4.349,1.53,4.73,-1.66,0.46,0.30,0.13,
4.358,2.48,2.87,2.37,0.46,0.30,0.13,
4.358,2.48,2.87,2.37,0.58,0.55,0.11,
4.359,2.48,2.87,2.37,0.70,0.79,0.10,
4.36,2.48,2.87,2.37,0.82,1.04,0.09,
4.361,2.48,2.87,2.37,0.93,1.27,0.08,
4.361,2.48,2.87,2.37,1.02,1.49,0.09,
4.365,2.74,1.07,4.46,1.02,1.49,0.09,
4.366,2.74,1.07,4.46,1.09,1.69,0.09,
4.366,2.74,1.07,4.46,1.13,1.87,0.10,
4.367,2.74,1.07,4.46,1.14,2.03,0.11,
4.368,2.74,1.07,4.46,1.14,2.16,0.13,
4.379,2.74,1.07,4.46,1.10,2.26,0.14,
4.38,2.51,0.05,1.77,1.10,2.26,0.14,
4.38,2.51,0.05,1.77,1.05,2.34,0.16,
4.381,2.51,0.05,1.77,0.98,2.40,0.17,
4.381,2.51,0.05,1.77,0.90,2.44,0.19,
4.381,2.51,0.05,1.77,0.81,2.46,0.21,
4.381,2.51,0.05,1.77,0.71,2.47,0.23,
4.382,2.20,-0.04,-1.84,0.71,2.47,0.23,
4.382,2.20,-0.04,-1.84,0.61,2.46,0.25,
4.384,2.20,-0.04,-1.84,0.51,2.44,0.27,
4.386,2.20,-0.04,-1.84,0.42,2.42,0.28,
4.388,2.20,-0.04,-1.84,0.32,2.39,0.29,
4.39,2.20,-0.04,-1.84,0.24,2.35,0.30,
4.395,1.74,0.31,-3.42,0.24,2.35,0.30,
4.395,1.74,0.31,-3.42,0.16,2.31,0.30,
4.396,1.74,0.31,-3.42,0.09,2.26,0.30,
4.398,1.74,0.31,-3.42,0.03,2.20,0.29,
4.398,1.74,0.31,-3.42,-0.01,2.13,0.29,
4.4,1.74,0.31,-3.42,-0.05,2.06,0.28,
4.404,1.46,0.66,-3.38,-0.05,2.06,0.28,
4.405,1.46,0.66,-3.38,-0.08,1.99,0.28,
4.405,1.46,0.66,-3.38,-0.08,1.91,0.27,
4.405,1.46,0.66,-3.38,-0.08,1.83,0.27,
4.408,1.46,0.66,-3.38,-0.07,1.74,0.27,
4.41,1.46,0.66,-3.38,-0.05,1.65,0.28,
4.412,0.51,1.28,-1.96,-0.05,1.65,0.28,
4.413,0.51,1.28,-1.96,-0.03,1.55,0.29,
4.413,0.51,1.28,-1.96,0.00,1.45,0.30,
4.416,0.51,1.28,-1.96,0.03,1.35,0.32,
4.418,0.51,1.28,-1.96,0.06,1.24,0.34,
4.421,0.51,1.28,-1.96,0.09,1.13,0.36,
4.422,-0.77,1.89,-1.38,0.09,1.13,0.36,
4.423,-0.77,1.89,-1.38,0.11,1.02,0.38,
4.424,-0.77,1.89,-1.38,0.13,0.92,0.40,
4.426,-0.77,1.89,-1.38,0.16,0.82,0.43,
4.428,-0.77,1.89,-1.38,0.18,0.72,0.45,
4.43,-0.77,1.89,-1.38,0.20,0.63,0.47,
4.433,-1.45,2.16,-0.92,0.20,0.63,0.47,
4.433,-1.45,2.16,-0.92,0.23,0.56,0.49,
4.434,-1.45,2.16,-0.92,0.25,0.49,0.51,
4.438,-1.45,2.16,-0.92,0.28,0.44,0.52,
4.439,-1.45,2.16,-0.92,0.31,0.40,0.53,
4.44,-1.45,2.16,-0.92,0.35,0.37,0.54,
4.442,-1.63,1.79,0.60,0.35,0.37,0.54,
4.442,-1.63,1.79,0.60,0.38,0.36,0.54,
4.444,-1.63,1.79,0.60,0.41,0.35,0.53,
4.446,-1.63,1.79,0.60,0.44,0.36,0.51,
4.447,-1.63,1.79,0.60,0.46,0.37,0.49,
4.45,-1.63,1.79,0.60,0.48,0.39,0.46,
4.452,-0.85,0.37,2.18,0.48,0.39,0.46,
4.452,-0.85,0.37,2.18,0.49,0.40,0.43,
4.454,-0.85,0.37,2.18,0.49,0.42,0.39,
4.456,-0.85,0.37,2.18,0.48,0.45,0.36,
4.458,-0.85,0.37,2.18,0.46,0.47,0.32,
4.46,-0.85,0.37,2.18,0.43,0.49,0.29,
4.462,0.04,-1.43,2.57,0.43,0.49,0.29,
4.482,0.04,-1.43,2.57,0.39,0.50,0.25,
4.482,0.04,-1.43,2.57,0.34,0.52,0.22,
4.482,0.04,-1.43,2.57,0.29,0.54,0.20,
4.482,0.04,-1.43,2.57,0.23,0.56,0.18,
4.482,0.04,-1.43,2.57,0.18,0.57,0.16,
4.482,0.13,-2.45,2.42,0.18,0.57,0.16,
4.483,0.13,-2.45,2.42,0.14,0.59,0.15,
4.483,0.13,-2.45,2.42,0.12,0.60,0.13,
4.483,0.13,-2.45,2.42,0.10,0.60,0.12,
4.483,0.13,-2.45,2.42,0.10,0.60,0.11,
4.483,0.13,-2.45,2.42,0.11,0.59,0.10,
4.483,-0.06,-1.63,3.75,0.11,0.59,0.10,
4.483,-0.06,-1.63,3.75,0.12,0.57,0.10,
4.483,-0.06,-1.63,3.75,0.14,0.55,0.10,
4.486,-0.06,-1.63,3.75,0.15,0.51,0.10,
4.488,-0.06,-1.63,3.75,0.16,0.48,0.10,
4.489,-0.06,-1.63,3.75,0.17,0.44,0.11,
4.492,-0.67,-0.32,3.18,0.17,0.44,0.11,
4.492,-0.67,-0.32,3.18,0.17,0.39,0.12,
4.493,-0.67,-0.32,3.18,0.16,0.34,0.13,
4.495,-0.67,-0.32,3.18,0.16,0.29,0.14,
4.497,-0.67,-0.32,3.18,0.15,0.24,0.16,
4.499,-0.67,-0.32,3.18,0.14,0.17,0.17,
4.505,-1.36,0.48,1.88,0.14,0.17,0.17,
4.505,-1.36,0.48,1.88,0.13,0.11,0.19,
4.505,-1.36,0.48,1.88,0.13,0.04,0.21,
4.506,-1.36,0.48,1.88,0.13,-0.03,0.22,
4.507,-1.36,0.48,1.88,0.14,-0.11,0.24,
4.509,-1.36,0.48,1.88,0.16,-0.18,0.26,
4.512,-1.45,0.79,2.03,0.16,-0.18,0.26,
4.512,-1.45,0.79,2.03,0.18,-0.26,0.27,
4.513,-1.45,0.79,2.03,0.22,-0.33,0.28,
4.516,-1.45,0.79,2.03,0.27,-0.41,0.29,
4.536,-1.45,0.79,2.03,0.33,-0.49,0.30,
4.537,-1.45,0.79,2.03,0.39,-0.57,0.30,
4.537,-0.55,0.86,3.74,0.39,-0.57,0.30,
4.537,-0.55,0.86,3.74,0.47,-0.65,0.30,
4.537,-0.55,0.86,3.74,0.56,-0.73,0.30,
4.537,-0.55,0.86,3.74,0.65,-0.81,0.29,
4.537,-0.55,0.86,3.74,0.74,-0.89,0.28,
4.537,-0.55,0.86,3.74,0.84,-0.97,0.27,
4.538,1.05,-0.21,5.30,0.84,-0.97,0.27,
4.538,1.05,-0.21,5.30,0.95,-1.04,0.26,
4.538,1.05,-0.21,5.30,1.05,-1.10,0.25,
4.538,1.05,-0.21,5.30,1.15,-1.17,0.24,
4.538,1.05,-0.21,5.30,1.24,-1.22,0.23,
4.539,1.05,-0.21,5.30,1.33,-1.27,0.22,
4.542,2.27,-2.42,5.56,1.33,-1.27,0.22,
4.542,2.27,-2.42,5.56,1.42,-1.31,0.21,
4.543,2.27,-2.42,5.56,1.49,-1.34,0.21,
4.546,2.27,-2.42,5.56,1.56,-1.36,0.21,
4.547,2.27,-2.42,5.56,1.63,-1.37,0.21,
4.549,2.27,-2.42,5.56,1.69,-1.36,0.21,
4.559,2.56,-5.15,4.41,1.69,-1.36,0.21,
4.559,2.56,-5.15,4.41,1.76,-1.34,0.22,
4.559,2.56,-5.15,4.41,1.82,-1.31,0.23,
4.559,2.56,-5.15,4.41,1.89,-1.26,0.24,
4.559,2.56,-5.15,4.41,1.96,-1.20,0.25,
4.56,2.56,-5.15,4.41,2.03,-1.13,0.26,
4.563,2.88,-7.64,4.41,2.03,-1.13,0.26,
4.564,2.88,-7.64,4.41,2.11,-1.05,0.26,
4.564,2.88,-7.64,4.41,2.20,-0.97,0.26,
4.567,2.88,-7.64,4.41,2.29,-0.88,0.26,
4.568,2.88,-7.64,4.41,2.38,-0.80,0.26,
4.57,2.88,-7.64,4.41,2.46,-0.72,0.25,
4.572,3.49,-9.66,4.79,2.46,-0.72,0.25,
4.572,3.49,-9.66,4.79,2.55,-0.65,0.23,
4.573,3.49,-9.66,4.79,2.63,-0.58,0.21,
4.575,3.49,-9.66,4.79,2.71,-0.52,0.19,
4.577,3.49,-9.66,4.79,2.78,-0.47,0.16,
4.579,3.49,-9.66,4.79,2.85,-0.43,0.12,
4.582,4.01,-10.59,3.67,2.85,-0.43,0.12,
4.582,4.01,-10.59,3.67,2.91,-0.40,0.08,
4.584,4.01,-10.59,3.67,2.96,-0.37,0.05,
4.586,4.01,-10.59,3.67,3.00,-0.34,0.01,
4.587,4.01,-10.59,3.67,3.04,-0.32,-0.04,
4.589,4.01,-10.59,3.67,3.07,-0.31,-0.07,
4.592,3.76,-10.92,1.82,3.07,-0.31,-0.07,
4.592,3.76,-10.92,1.82,3.10,-0.29,-0.11,
4.593,3.76,-10.92,1.82,3.11,-0.28,-0.15,
4.595,3.76,-10.92,1.82,3.12,-0.27,-0.19,
4.597,3.76,-10.92,1.82,3.13,-0.26,-0.22,
4.599,3.76,-10.92,1.82,3.13,-0.25,-0.25,
4.603,2.88,-11.20,0.18,3.13,-0.25,-0.25,
4.604,2.88,-11.20,0.18,3.12,-0.24,-0.28,
4.605,2.88,-11.20,0.18,3.11,-0.23,-0.30,
4.606,2.88,-11.20,0.18,3.10,-0.22,-0.32,
4.607,2.88,-11.20,0.18,3.09,-0.22,-0.33,
4.609,2.88,-11.20,0.18,3.07,-0.21,-0.34,
4.612,1.24,-11.29,-1.03,3.07,-0.21,-0.34,
4.612,1.24,-11.29,-1.03,3.05,-0.21,-0.35,
4.613,1.24,-11.29,-1.03,3.02,-0.21,-0.34,
4.615,1.24,-11.29,-1.03,2.98,-0.21,-0.34,
4.623,1.24,-11.29,-1.03,2.94,-0.20,-0.32,
4.623,1.24,-11.29,-1.03,2.89,-0.20,-0.30,
4.623,-0.84,-10.72,-2.70,2.89,-0.20,-0.30,
4.624,-0.84,-10.72,-2.70,2.85,-0.19,-0.28,
4.624,-0.84,-10.72,-2.70,2.79,-0.18,-0.25,
4.626,-0.84,-10.72,-2.70,2.73,-0.17,-0.21,
4.628,-0.84,-10.72,-2.70,2.66,-0.15,-0.17,
4.649,-0.84,-10.72,-2.70,2.59,-0.12,-0.12,
4.649,-2.83,-9.12,-4.09,2.59,-0.12,-0.12,
4.65,-2.83,-9.12,-4.09,2.52,-0.08,-0.07,
4.65,-2.83,-9.12,-4.09,2.44,-0.02,-0.02,
4.65,-2.83,-9.12,-4.09,2.35,0.04,0.04,
4.651,-2.83,-9.12,-4.09,2.26,0.12,0.10,
4.651,-2.83,-9.12,-4.09,2.18,0.21,0.16,
4.652,-4.43,-6.95,-5.05,2.18,0.21,0.16,
4.652,-4.43,-6.95,-5.05,2.09,0.31,0.22,
4.652,-4.43,-6.95,-5.05,2.00,0.42,0.28,
4.653,-4.43,-6.95,-5.05,1.91,0.53,0.34,
4.653,-4.43,-6.95,-5.05,1.81,0.65,0.40,
4.653,-4.43,-6.95,-5.05,1.72,0.78,0.45,
4.653,-5.22,-4.62,-4.87,1.72,0.78,0.45,
4.654,-5.22,-4.62,-4.87,1.64,0.91,0.51,
4.654,-5.22,-4.62,-4.87,1.55,1.06,0.56,
4.659,-5.22,-4.62,-4.87,1.47,1.21,0.61,
4.66,-5.22,-4.62,-4.87,1.40,1.38,0.65,
4.66,-5.22,-4.62,-4.87,1.33,1.54,0.69,
4.662,-5.35,-3.31,-3.44,1.33,1.54,0.69,
4.663,-5.35,-3.31,-3.44,1.27,1.72,0.71,
4.664,-5.35,-3.31,-3.44,1.21,1.90,0.73,
4.666,-5.35,-3.31,-3.44,1.16,2.08,0.73,
4.668,-5.35,-3.31,-3.44,1.12,2.24,0.72,
4.67,-5.35,-3.31,-3.44,1.07,2.39,0.71,
4.672,-3.89,-3.22,-1.29,1.07,2.39,0.71,
4.672,-3.89,-3.22,-1.29,1.03,2.51,0.69,
4.674,-3.89,-3.22,-1.29,1.00,2.60,0.66,
4.675,-3.89,-3.22,-1.29,0.96,2.66,0.62,
4.677,-3.89,-3.22,-1.29,0.93,2.68,0.59,
4.679,-3.89,-3.22,-1.29,0.89,2.66,0.56,
4.682,-1.88,-3.69,-0.30,0.89,2.66,0.56,
4.682,-1.88,-3.69,-0.30,0.85,2.59,0.53,
4.684,-1.88,-3.69,-0.30,0.81,2.49,0.51,
4.686,-1.88,-3.69,-0.30,0.76,2.36,0.49,
4.688,-1.88,-3.69,-0.30,0.70,2.20,0.47,
4.69,-1.88,-3.69,-0.30,0.65,2.01,0.46,
4.692,-0.19,-3.57,-1.18,0.65,2.01,0.46,
4.692,-0.19,-3.57,-1.18,0.59,1.80,0.44,
4.694,-0.19,-3.57,-1.18,0.53,1.58,0.43,
4.696,-0.19,-3.57,-1.18,0.46,1.36,0.42,
4.698,-0.19,-3.57,-1.18,0.40,1.14,0.41,
4.7,-0.19,-3.57,-1.18,0.34,0.95,0.41,
4.703,0.88,-2.71,-2.77,0.34,0.95,0.41,
4.703,0.88,-2.71,-2.77,0.28,0.79,0.40,
4.704,0.88,-2.71,-2.77,0.21,0.65,0.39,
4.706,0.88,-2.71,-2.77,0.15,0.55,0.39,
4.708,0.88,-2.71,-2.77,0.09,0.46,0.39,
4.71,0.88,-2.71,-2.77,0.02,0.40,0.39,
4.712,0.95,-1.28,-4.49,0.02,0.40,0.39,
4.713,0.95,-1.28,-4.49,-0.05,0.35,0.40,
4.714,0.95,-1.28,-4.49,-0.11,0.33,0.42,
4.716,0.95,-1.28,-4.49,-0.17,0.32,0.44,
4.72,0.95,-1.28,-4.49,-0.24,0.31,0.46,
4.721,0.95,-1.28,-4.49,-0.29,0.31,0.49,
4.722,-0.16,0.14,-5.88,-0.29,0.31,0.49,
4.723,-0.16,0.14,-5.88,-0.34,0.31,0.52,
4.724,-0.16,0.14,-5.88,-0.38,0.32,0.55,
4.726,-0.16,0.14,-5.88,-0.41,0.34,0.59,
4.728,-0.16,0.14,-5.88,-0.44,0.37,0.62,
4.731,-0.16,0.14,-5.88,-0.47,0.42,0.66,
4.733,-1.28,1.32,-5.98,-0.47,0.42,0.66,
4.734,-1.28,1.32,-5.98,-0.49,0.46,0.70,
4.734,-1.28,1.32,-5.98,-0.51,0.52,0.74,
4.738,-1.28,1.32,-5.98,-0.53,0.58,0.78,
4.739,-1.28,1.32,-5.98,-0.54,0.64,0.81,
4.739,-1.28,1.32,-5.98,-0.56,0.70,0.85,
4.742,-1.93,2.03,-6.21,-0.56,0.70,0.85,
4.743,-1.93,2.03,-6.21,-0.57,0.76,0.89,
4.744,-1.93,2.03,-6.21,-0.58,0.81,0.92,
4.746,-1.93,2.03,-6.21,-0.59,0.88,0.95,
4.748,-1.93,2.03,-6.21,-0.60,0.93,0.98,
4.767,-1.93,2.03,-6.21,-0.61,0.99,1.01,
4.768,-1.73,2.74,-6.30,-0.61,0.99,1.01,
4.769,-1.73,2.74,-6.30,-0.62,1.05,1.03,
4.769,-1.73,2.74,-6.30,-0.64,1.10,1.06,
4.769,-1.73,2.74,-6.30,-0.65,1.14,1.07,
4.769,-1.73,2.74,-6.30,-0.66,1.18,1.10,
4.769,-1.73,2.74,-6.30,-0.68,1.22,1.12,
4.77,-1.56,3.48,-6.47,-0.68,1.22,1.12,
4.77,-1.56,3.48,-6.47,-0.69,1.26,1.14,
4.77,-1.56,3.48,-6.47,-0.71,1.28,1.16,
4.77,-1.56,3.48,-6.47,-0.72,1.30,1.18,
4.77,-1.56,3.48,-6.47,-0.74,1.31,1.20,
4.771,-1.56,3.48,-6.47,-0.76,1.31,1.21,
4.772,-1.29,4.30,-6.13,-0.76,1.31,1.21,
4.773,-1.29,4.30,-6.13,-0.77,1.31,1.23,
4.774,-1.29,4.30,-6.13,-0.79,1.30,1.24,
4.782,-1.29,4.30,-6.13,-0.80,1.29,1.25,
4.782,-1.29,4.30,-6.13,-0.82,1.27,1.27,
4.783,-1.29,4.30,-6.13,-0.83,1.24,1.28,
4.799,-1.06,4.96,-5.85,-0.83,1.24,1.28,
4.8,-1.06,4.96,-5.85,-0.85,1.22,1.29,
4.801,-1.06,4.96,-5.85,-0.87,1.18,1.30,
4.801,-1.06,4.96,-5.85,-0.88,1.15,1.30,
4.801,-1.06,4.96,-5.85,-0.90,1.11,1.31,
4.802,-1.06,4.96,-5.85,-0.92,1.07,1.31,
4.802,-0.29,5.40,-5.35,-0.92,1.07,1.31,
4.802,-0.29,5.40,-5.35,-0.94,1.03,1.30,
4.803,-0.29,5.40,-5.35,-0.96,0.98,1.29,
4.833,-0.29,5.40,-5.35,-0.98,0.93,1.28,
4.833,-0.29,5.40,-5.35,-1.00,0.87,1.26,
4.834,-0.29,5.40,-5.35,-1.02,0.82,1.25,
4.834,0.52,5.56,-5.16,-1.02,0.82,1.25,
4.835,0.52,5.56,-5.16,-1.04,0.76,1.23,
4.835,0.52,5.56,-5.16,-1.07,0.71,1.20,
4.836,0.52,5.56,-5.16,-1.09,0.65,1.18,
4.836,0.52,5.56,-5.16,-1.12,0.60,1.15,
4.836,0.52,5.56,-5.16,-1.14,0.54,1.12,
4.837,1.20,5.74,-4.67,-1.14,0.54,1.12,
4.837,1.20,5.74,-4.67,-1.17,0.48,1.10,
4.838,1.20,5.74,-4.67,-1.20,0.42,1.07,
4.838,1.20,5.74,-4.67,-1.22,0.36,1.04,
4.838,1.20,5.74,-4.67,-1.25,0.30,1.01,
4.839,1.20,5.74,-4.67,-1.28,0.24,0.98,
4.839,1.43,5.86,-4.36,-1.28,0.24,0.98,
4.84,1.43,5.86,-4.36,-1.31,0.17,0.95,
4.84,1.43,5.86,-4.36,-1.33,0.10,0.92,
4.841,1.43,5.86,-4.36,-1.36,0.03,0.89,
4.841,1.43,5.86,-4.36,-1.40,-0.04,0.86,
4.842,1.43,5.86,-4.36,-1.43,-0.11,0.83,
4.842,1.74,5.93,-3.80,-1.43,-0.11,0.83,
4.843,1.74,5.93,-3.80,-1.47,-0.19,0.79,
4.843,1.74,5.93,-3.80,-1.50,-0.26,0.75,
4.843,1.74,5.93,-3.80,-1.55,-0.33,0.71,
4.844,1.74,5.93,-3.80,-1.59,-0.40,0.67,
4.844,1.74,5.93,-3.80,-1.63,-0.47,0.63,
4.845,2.32,5.95,-3.57,-1.63,-0.47,0.63,
4.845,2.32,5.95,-3.57,-1.68,-0.55,0.58,
4.846,2.32,5.95,-3.57,-1.73,-0.62,0.53,
4.846,2.32,5.95,-3.57,-1.79,-0.69,0.47,
4.859,2.32,5.95,-3.57,-1.84,-0.76,0.42,
4.859,2.32,5.95,-3.57,-1.90,-0.84,0.36,
4.86,2.99,5.98,-3.21,-1.90,-0.84,0.36,
4.86,2.99,5.98,-3.21,-1.95,-0.91,0.29,
4.861,2.99,5.98,-3.21,-2.01,-0.99,0.22,
4.861,2.99,5.98,-3.21,-2.07,-1.06,0.15,
4.861,2.99,5.98,-3.21,-2.13,-1.14,0.08,
4.862,2.99,5.98,-3.21,-2.19,-1.23,0.01,
4.862,3.96,5.62,-2.97,-2.19,-1.23,0.01,
4.862,3.96,5.62,-2.97,-2.25,-1.32,-0.07,
4.864,3.96,5.62,-2.97,-2.31,-1.40,-0.15,
4.866,3.96,5.62,-2.97,-2.38,-1.49,-0.23,
4.873,3.96,5.62,-2.97,-2.44,-1.57,-0.31,
4.874,3.96,5.62,-2.97,-2.50,-1.65,-0.39,
4.874,4.44,5.05,-2.61,-2.50,-1.65,-0.39,
4.874,4.44,5.05,-2.61,-2.56,-1.73,-0.47,
4.874,4.44,5.05,-2.61,-2.63,-1.82,-0.55,
4.876,4.44,5.05,-2.61,-2.68,-1.90,-0.63,
4.877,4.44,5.05,-2.61,-2.75,-1.98,-0.71,
4.879,4.44,5.05,-2.61,-2.81,-2.06,-0.79,
4.882,4.73,4.21,-2.46,-2.81,-2.06,-0.79,
4.882,4.73,4.21,-2.46,-2.87,-2.13,-0.87,
4.885,4.73,4.21,-2.46,-2.92,-2.21,-0.95,
4.886,4.73,4.21,-2.46,-2.98,-2.28,-1.03,
4.888,4.73,4.21,-2.46,-3.04,-2.35,-1.11,
4.89,4.73,4.21,-2.46,-3.09,-2.42,-1.20,
4.892,4.72,3.69,-2.03,-3.09,-2.42,-1.20,
4.892,4.72,3.69,-2.03,-3.15,-2.48,-1.29,
4.894,4.72,3.69,-2.03,-3.20,-2.54,-1.38,
4.895,4.72,3.69,-2.03,-3.25,-2.60,-1.47,
4.898,4.72,3.69,-2.03,-3.30,-2.65,-1.57,
4.907,4.72,3.69,-2.03,-3.35,-2.71,-1.68,
4.908,5.39,3.11,-1.49,-3.35,-2.71,-1.68,
4.909,5.39,3.11,-1.49,-3.39,-2.75,-1.79,
4.909,5.39,3.11,-1.49,-3.43,-2.79,-1.89,
4.909,5.39,3.11,-1.49,-3.47,-2.82,-2.01,
4.909,5.39,3.11,-1.49,-3.50,-2.85,-2.12,
4.91,5.39,3.11,-1.49,-3.53,-2.87,-2.23,
4.913,5.95,2.23,-0.65,-3.53,-2.87,-2.23,
4.948,5.95,2.23,-0.65,-3.56,-2.89,-2.34,
4.949,5.95,2.23,-0.65,-3.58,-2.91,-2.46,
4.949,5.95,2.23,-0.65,-3.59,-2.92,-2.56,
4.949,5.95,2.23,-0.65,-3.60,-2.93,-2.67,
4.95,5.95,2.23,-0.65,-3.61,-2.94,-2.77,
4.95,6.23,1.28,0.29,-3.61,-2.94,-2.77,
4.95,6.23,1.28,0.29,-3.62,-2.93,-2.86,
4.951,6.23,1.28,0.29,-3.63,-2.92,-2.95,
4.951,6.23,1.28,0.29,-3.63,-2.91,-3.03,
4.951,6.23,1.28,0.29,-3.63,-2.88,-3.11,
4.952,6.23,1.28,0.29,-3.63,-2.85,-3.18,
4.952,5.48,0.49,1.13,-3.63,-2.85,-3.18,
4.952,5.48,0.49,1.13,-3.63,-2.81,-3.24,
4.953,5.48,0.49,1.13,-3.62,-2.77,-3.30,
4.953,5.48,0.49,1.13,-3.57,-2.69,-3.34,
4.953,5.48,0.49,1.13,-3.37,-2.51,-3.35,
4.953,5.48,0.49,1.13,-2.95,-2.15,-3.30,
4.954,2.20,-0.03,11.82,-2.95,-2.15,-3.30,
4.954,2.20,-0.03,11.82,-2.41,-1.70,-3.22,
4.954,2.20,-0.03,11.82,-1.86,-1.21,-3.11,
4.955,2.20,-0.03,11.82,-1.36,-0.70,-2.98,
4.955,2.20,-0.03,11.82,-1.01,-0.19,-2.82,
4.955,2.20,-0.03,11.82,-0.87,0.18,-2.62,
4.956,-2.72,-0.97,21.30,-0.87,0.18,-2.62,
4.956,-2.72,-0.97,21.30,-0.89,0.41,-2.38,
4.956,-2.72,-0.97,21.30,-0.95,0.54,-2.11,
4.957,-2.72,-0.97,21.30,-0.94,0.64,-1.84,
4.964,-2.72,-0.97,21.30,-0.91,0.73,-1.58,
4.964,-2.72,-0.97,21.30,-0.89,0.81,-1.33,
4.964,-4.44,-1.78,16.71,-0.89,0.81,-1.33,
4.984,-4.44,-1.78,16.71,-0.87,0.90,-1.08,
4.984,-4.44,-1.78,16.71,-0.84,0.99,-0.84,
4.985,-4.44,-1.78,16.71,-0.80,1.08,-0.63,
4.985,-4.44,-1.78,16.71,-0.74,1.18,-0.45,
4.985,-4.44,-1.78,16.71,-0.67,1.26,-0.30,
4.986,-3.35,-1.58,13.66,-0.67,1.26,-0.30,
4.986,-3.35,-1.58,13.66,-0.60,1.34,-0.17,
4.986,-3.35,-1.58,13.66,-0.53,1.40,-0.08,
4.986,-3.35,-1.58,13.66,-0.46,1.47,-0.02,
4.987,-3.35,-1.58,13.66,-0.38,1.53,0.03,
4.987,-3.35,-1.58,13.66,-0.31,1.58,0.05,
4.987,-0.99,-1.03,10.50,-0.31,1.58,0.05,
4.988,-0.99,-1.03,10.50,-0.25,1.62,0.06,
4.988,-0.99,-1.03,10.50,-0.19,1.66,0.06,
4.988,-0.99,-1.03,10.50,-0.14,1.69,0.04,
4.988,-0.99,-1.03,10.50,-0.10,1.72,0.02,
4.993,-0.99,-1.03,10.50,-0.07,1.75,-0.00,
4.994,0.24,-0.50,6.60,-0.07,1.75,-0.00,
4.995,0.24,-0.50,6.60,-0.04,1.77,-0.02,
4.995,0.24,-0.50,6.60,-0.03,1.80,-0.05,
4.998,0.24,-0.50,6.60,-0.02,1.82,-0.07,
