
time,ax,ay,az,wx,wy,wz,
0.002,0.35,-1.14,0.68,0.06,-0.29,-1.43,
0.003,0.35,-1.14,0.68,0.05,-0.28,-1.42,
0.003,0.35,-1.14,0.68,0.03,-0.26,-1.41,
0.003,0.35,-1.14,0.68,0.01,-0.24,-1.40,
0.004,0.35,-1.14,0.68,0.01,-0.23,-1.40,
0.004,0.35,-1.14,0.68,-0.01,-0.21,-1.39,
0.008,0.32,-1.14,0.32,-0.01,-0.21,-1.39,
0.008,0.32,-1.14,0.32,-0.02,-0.19,-1.38,
0.008,0.32,-1.14,0.32,-0.05,-0.15,-1.36,
0.008,0.32,-1.14,0.32,-0.06,-0.12,-1.35,
0.01,0.32,-1.14,0.32,-0.07,-0.10,-1.34,
0.012,0.32,-1.14,0.32,-0.09,-0.06,-1.33,
0.014,0.30,-1.15,-0.05,-0.09,-0.06,-1.33,
0.015,0.30,-1.15,-0.05,-0.11,-0.03,-1.32,
0.022,0.30,-1.15,-0.05,-0.15,0.03,-1.30,
0.022,0.30,-1.15,-0.05,-0.17,0.06,-1.28,
0.023,0.30,-1.15,-0.05,-0.18,0.08,-1.28,
0.023,0.30,-1.15,-0.05,-0.20,0.11,-1.26,
0.024,0.33,-1.06,-0.22,-0.20,0.11,-1.26,
0.024,0.33,-1.06,-0.22,-0.22,0.15,-1.25,
0.027,0.33,-1.06,-0.22,-0.25,0.20,-1.23,
0.028,0.33,-1.06,-0.22,-0.27,0.24,-1.21,
0.03,0.33,-1.06,-0.22,-0.27,0.26,-1.21,
0.032,0.33,-1.06,-0.22,-0.29,0.31,-1.19,
0.034,0.32,-0.88,-0.11,-0.29,0.31,-1.19,
0.035,0.32,-0.88,-0.11,-0.30,0.35,-1.18,
0.037,0.32,-0.88,-0.11,-0.31,0.40,-1.15,
0.039,0.32,-0.88,-0.11,-0.32,0.43,-1.14,
0.04,0.32,-0.88,-0.11,-0.33,0.44,-1.13,
0.042,0.32,-0.88,-0.11,-0.34,0.47,-1.11,
0.044,0.15,-0.73,0.02,-0.34,0.47,-1.11,
0.044,0.15,-0.73,0.02,-0.35,0.49,-1.10,
0.047,0.15,-0.73,0.02,-0.37,0.53,-1.07,
0.048,0.15,-0.73,0.02,-0.39,0.56,-1.05,
0.053,0.15,-0.73,0.02,-0.40,0.57,-1.04,
0.053,0.15,-0.73,0.02,-0.41,0.60,-1.02,
0.055,0.04,-0.71,-0.06,-0.41,0.60,-1.02,
0.055,0.04,-0.71,-0.06,-0.43,0.62,-1.01,
0.057,0.04,-0.71,-0.06,-0.45,0.66,-0.98,
0.058,0.04,-0.71,-0.06,-0.47,0.69,-0.96,
0.06,0.04,-0.71,-0.06,-0.48,0.70,-0.95,
0.062,0.04,-0.71,-0.06,-0.49,0.73,-0.93,
0.064,0.02,-0.80,-0.20,-0.49,0.73,-0.93,
0.065,0.02,-0.80,-0.20,-0.51,0.76,-0.92,
0.087,0.02,-0.80,-0.20,-0.53,0.81,-0.89,
0.087,0.02,-0.80,-0.20,-0.55,0.84,-0.87,
0.087,0.02,-0.80,-0.20,-0.55,0.86,-0.86,
0.088,0.02,-0.80,-0.20,-0.57,0.89,-0.85,
0.088,-0.06,-0.95,-0.28,-0.57,0.89,-0.85,
0.088,-0.06,-0.95,-0.28,-0.58,0.93,-0.83,
0.088,-0.06,-0.95,-0.28,-0.59,0.98,-0.81,
0.088,-0.06,-0.95,-0.28,-0.60,1.02,-0.80,
0.089,-0.06,-0.95,-0.28,-0.60,1.04,-0.79,
0.089,-0.06,-0.95,-0.28,-0.60,1.07,-0.78,
0.089,-0.01,-1.02,-0.24,-0.60,1.07,-0.78,
0.089,-0.01,-1.02,-0.24,-0.60,1.11,-0.77,
0.089,-0.01,-1.02,-0.24,-0.60,1.16,-0.77,
0.09,-0.01,-1.02,-0.24,-0.60,1.19,-0.77,
0.119,-0.01,-1.02,-0.24,-0.59,1.20,-0.77,
0.119,-0.01,-1.02,-0.24,-0.59,1.22,-0.78,
0.128,0.20,-1.08,-0.19,-0.59,1.22,-0.78,
0.131,0.20,-1.08,-0.19,-0.58,1.24,-0.78,
0.131,0.20,-1.08,-0.19,-0.57,1.25,-0.80,
0.131,0.20,-1.08,-0.19,-0.55,1.25,-0.81,
0.132,0.20,-1.08,-0.19,-0.55,1.25,-0.82,
0.132,0.20,-1.08,-0.19,-0.53,1.24,-0.84,
0.132,0.35,-1.00,-0.07,-0.53,1.24,-0.84,
0.132,0.35,-1.00,-0.07,-0.52,1.22,-0.86,
0.133,0.35,-1.00,-0.07,-0.49,1.19,-0.89,
0.133,0.35,-1.00,-0.07,-0.47,1.16,-0.92,
0.133,0.35,-1.00,-0.07,-0.46,1.14,-0.93,
0.134,0.35,-1.00,-0.07,-0.44,1.10,-0.96,
0.134,0.63,-0.88,0.12,-0.44,1.10,-0.96,
0.134,0.63,-0.88,0.12,-0.40,1.04,-1.01,
0.134,0.63,-0.88,0.12,-0.36,0.97,-1.07,
0.135,0.63,-0.88,0.12,-0.34,0.94,-1.09,
0.135,0.63,-0.88,0.12,-0.32,0.91,-1.10,
0.135,0.63,-0.88,0.12,-0.28,0.83,-1.17,
0.136,0.98,-0.82,0.36,-0.28,0.83,-1.17,
0.136,0.98,-0.82,0.36,-0.25,0.78,-1.21,
0.136,0.98,-0.82,0.36,-0.20,0.69,-1.28,
0.136,0.98,-0.82,0.36,-0.18,0.66,-1.30,
0.145,0.98,-0.82,0.36,-0.14,0.60,-1.35,
0.145,0.98,-0.82,0.36,-0.11,0.54,-1.39,
0.145,1.23,-1.00,0.42,-0.11,0.54,-1.39,
0.146,1.23,-1.00,0.42,-0.08,0.49,-1.44,
0.146,1.23,-1.00,0.42,-0.04,0.44,-1.48,
0.146,1.23,-1.00,0.42,-0.01,0.39,-1.52,
0.146,1.23,-1.00,0.42,0.02,0.34,-1.56,
0.147,1.23,-1.00,0.42,0.05,0.30,-1.60,
0.147,1.04,-1.28,0.35,0.05,0.30,-1.60,
0.147,1.04,-1.28,0.35,0.08,0.26,-1.63,
0.147,1.04,-1.28,0.35,0.11,0.22,-1.66,
0.148,1.04,-1.28,0.35,0.14,0.19,-1.68,
0.154,1.04,-1.28,0.35,0.16,0.15,-1.70,
0.154,1.04,-1.28,0.35,0.19,0.12,-1.72,
0.155,0.74,-1.66,0.42,0.19,0.12,-1.72,
0.155,0.74,-1.66,0.42,0.22,0.09,-1.74,
0.157,0.74,-1.66,0.42,0.24,0.05,-1.75,
0.16,0.74,-1.66,0.42,0.26,0.02,-1.76,
0.161,0.74,-1.66,0.42,0.28,-0.01,-1.77,
0.162,0.74,-1.66,0.42,0.30,-0.04,-1.77,
0.164,0.38,-1.83,0.45,0.30,-0.04,-1.77,
0.165,0.38,-1.83,0.45,0.32,-0.06,-1.77,
0.168,0.38,-1.83,0.45,0.33,-0.09,-1.78,
0.168,0.38,-1.83,0.45,0.34,-0.11,-1.78,
0.17,0.38,-1.83,0.45,0.35,-0.13,-1.77,
0.172,0.38,-1.83,0.45,0.36,-0.16,-1.77,
0.177,0.07,-2.03,0.37,0.36,-0.16,-1.77,
0.177,0.07,-2.03,0.37,0.37,-0.18,-1.76,
0.177,0.07,-2.03,0.37,0.37,-0.20,-1.75,
0.178,0.07,-2.03,0.37,0.38,-0.22,-1.74,
0.18,0.07,-2.03,0.37,0.37,-0.24,-1.72,
0.193,0.07,-2.03,0.37,0.38,-0.27,-1.71,
0.193,-0.22,-2.09,0.10,0.38,-0.27,-1.71,
0.193,-0.22,-2.09,0.10,0.37,-0.29,-1.70,
0.194,-0.22,-2.09,0.10,0.36,-0.33,-1.68,
0.194,-0.22,-2.09,0.10,0.36,-0.34,-1.68,
0.194,-0.22,-2.09,0.10,0.35,-0.36,-1.66,
0.194,-0.22,-2.09,0.10,0.34,-0.39,-1.66,
0.195,-0.26,-2.15,0.03,0.34,-0.39,-1.66,
0.195,-0.26,-2.15,0.03,0.34,-0.41,-1.64,
0.198,-0.26,-2.15,0.03,0.33,-0.43,-1.64,
0.2,-0.26,-2.15,0.03,0.32,-0.46,-1.63,
0.201,-0.26,-2.15,0.03,0.31,-0.48,-1.62,
0.207,-0.26,-2.15,0.03,0.30,-0.49,-1.61,
0.207,-0.18,-2.00,0.02,0.30,-0.49,-1.61,
0.207,-0.18,-2.00,0.02,0.29,-0.50,-1.61,
0.208,-0.18,-2.00,0.02,0.28,-0.52,-1.60,
0.208,-0.18,-2.00,0.02,0.26,-0.53,-1.60,
0.21,-0.18,-2.00,0.02,0.25,-0.53,-1.59,
0.212,-0.18,-2.00,0.02,0.24,-0.54,-1.59,
0.215,-0.10,-1.91,0.03,0.24,-0.54,-1.59,
0.215,-0.10,-1.91,0.03,0.22,-0.55,-1.58,
0.22,-0.10,-1.91,0.03,0.21,-0.55,-1.57,
0.221,-0.10,-1.91,0.03,0.19,-0.56,-1.57,
0.221,-0.10,-1.91,0.03,0.18,-0.56,-1.56,
0.222,-0.10,-1.91,0.03,0.17,-0.57,-1.56,
0.224,-0.13,-1.67,-0.09,0.17,-0.57,-1.56,
0.224,-0.13,-1.67,-0.09,0.15,-0.58,-1.55,
0.228,-0.13,-1.67,-0.09,0.13,-0.59,-1.55,
0.229,-0.13,-1.67,-0.09,0.12,-0.60,-1.54,
0.231,-0.13,-1.67,-0.09,0.09,-0.61,-1.54,
0.233,-0.13,-1.67,-0.09,0.07,-0.62,-1.53,
0.235,-0.14,-1.53,-0.26,0.07,-0.62,-1.53,
0.235,-0.14,-1.53,-0.26,0.05,-0.63,-1.52,
0.237,-0.14,-1.53,-0.26,0.03,-0.65,-1.51,
0.238,-0.14,-1.53,-0.26,0.01,-0.66,-1.51,
0.24,-0.14,-1.53,-0.26,-0.02,-0.67,-1.50,
0.242,-0.14,-1.53,-0.26,-0.04,-0.68,-1.49,
0.244,-0.17,-1.27,-0.48,-0.04,-0.68,-1.49,
0.244,-0.17,-1.27,-0.48,-0.07,-0.69,-1.49,
0.247,-0.17,-1.27,-0.48,-0.11,-0.72,-1.48,
0.249,-0.17,-1.27,-0.48,-0.12,-0.72,-1.48,
0.25,-0.17,-1.27,-0.48,-0.15,-0.74,-1.47,
0.252,-0.17,-1.27,-0.48,-0.19,-0.76,-1.47,
0.254,-0.15,-1.07,-0.68,-0.19,-0.76,-1.47,
0.255,-0.15,-1.07,-0.68,-0.22,-0.78,-1.47,
0.257,-0.15,-1.07,-0.68,-0.25,-0.80,-1.47,
0.258,-0.15,-1.07,-0.68,-0.29,-0.83,-1.47,
0.274,-0.15,-1.07,-0.68,-0.32,-0.86,-1.47,
0.275,-0.15,-1.07,-0.68,-0.36,-0.89,-1.47,
0.275,0.10,-0.82,-0.65,-0.36,-0.89,-1.47,
0.275,0.10,-0.82,-0.65,-0.39,-0.93,-1.48,
0.275,0.10,-0.82,-0.65,-0.43,-0.96,-1.49,
0.276,0.10,-0.82,-0.65,-0.46,-0.99,-1.49,
0.276,0.10,-0.82,-0.65,-0.49,-1.02,-1.50,
0.276,0.10,-0.82,-0.65,-0.52,-1.04,-1.51,
0.276,0.48,-0.71,-0.08,-0.52,-1.04,-1.51,
0.276,0.48,-0.71,-0.08,-0.55,-1.06,-1.52,
0.277,0.48,-0.71,-0.08,-0.57,-1.08,-1.54,
0.281,0.48,-0.71,-0.08,-0.60,-1.09,-1.55,
0.281,0.48,-0.71,-0.08,-0.62,-1.10,-1.56,
0.289,0.48,-0.71,-0.08,-0.64,-1.11,-1.58,
0.289,0.75,-0.68,0.68,-0.64,-1.11,-1.58,
0.289,0.75,-0.68,0.68,-0.66,-1.11,-1.59,
0.29,0.75,-0.68,0.68,-0.68,-1.11,-1.60,
0.291,0.75,-0.68,0.68,-0.69,-1.08,-1.63,
0.292,0.75,-0.68,0.68,-0.69,-1.08,-1.63,
0.292,0.75,-0.68,0.68,-0.70,-1.06,-1.64,
0.296,0.70,-0.81,1.46,-0.70,-1.06,-1.64,
0.297,0.70,-0.81,1.46,-0.70,-1.04,-1.66,
0.32,0.70,-0.81,1.46,-0.70,-1.00,-1.67,
0.321,0.70,-0.81,1.46,-0.69,-0.98,-1.67,
0.321,0.70,-0.81,1.46,-0.68,-0.94,-1.68,
0.321,0.70,-0.81,1.46,-0.67,-0.90,-1.69,
0.321,0.36,-0.92,2.13,-0.67,-0.90,-1.69,
0.321,0.36,-0.92,2.13,-0.65,-0.86,-1.70,
0.322,0.36,-0.92,2.13,-0.62,-0.79,-1.70,
0.322,0.36,-0.92,2.13,-0.61,-0.77,-1.70,
0.322,0.36,-0.92,2.13,-0.58,-0.71,-1.71,
0.322,0.36,-0.92,2.13,-0.56,-0.66,-1.71,
0.322,-0.16,-1.15,2.45,-0.56,-0.66,-1.71,
0.322,-0.16,-1.15,2.45,-0.53,-0.60,-1.71,
0.323,-0.16,-1.15,2.45,-0.49,-0.55,-1.70,
0.323,-0.16,-1.15,2.45,-0.46,-0.50,-1.70,
0.323,-0.16,-1.15,2.45,-0.42,-0.45,-1.69,
0.323,-0.16,-1.15,2.45,-0.38,-0.40,-1.69,
0.327,-0.78,-1.26,2.25,-0.38,-0.40,-1.69,
0.327,-0.78,-1.26,2.25,-0.34,-0.35,-1.68,
0.327,-0.78,-1.26,2.25,-0.31,-0.30,-1.67,
0.329,-0.78,-1.26,2.25,-0.27,-0.26,-1.66,
0.33,-0.78,-1.26,2.25,-0.23,-0.23,-1.65,
0.334,-0.78,-1.26,2.25,-0.19,-0.20,-1.63,
0.335,-1.24,-1.25,1.68,-0.19,-0.20,-1.63,
0.335,-1.24,-1.25,1.68,-0.15,-0.18,-1.62,
0.337,-1.24,-1.25,1.68,-0.12,-0.16,-1.61,
0.338,-1.24,-1.25,1.68,-0.09,-0.15,-1.60,
0.34,-1.24,-1.25,1.68,-0.06,-0.15,-1.59,
0.342,-1.24,-1.25,1.68,-0.04,-0.16,-1.58,
0.344,-1.26,-1.03,0.75,-0.04,-0.16,-1.58,
0.344,-1.26,-1.03,0.75,-0.02,-0.17,-1.58,
0.347,-1.26,-1.03,0.75,0.01,-0.21,-1.57,
0.354,-1.26,-1.03,0.75,0.01,-0.22,-1.57,
0.355,-1.26,-1.03,0.75,0.03,-0.25,-1.57,
0.355,-1.26,-1.03,0.75,0.04,-0.27,-1.57,
0.355,-1.34,-0.70,-0.15,0.04,-0.27,-1.57,
0.355,-1.34,-0.70,-0.15,0.05,-0.30,-1.56,
0.357,-1.34,-0.70,-0.15,0.06,-0.34,-1.57,
0.358,-1.34,-0.70,-0.15,0.06,-0.35,-1.57,
0.36,-1.34,-0.70,-0.15,0.06,-0.38,-1.58,
0.362,-1.34,-0.70,-0.15,0.06,-0.41,-1.59,
0.364,-1.17,-0.29,-0.78,0.06,-0.41,-1.59,
0.365,-1.17,-0.29,-0.78,0.06,-0.43,-1.60,
0.367,-1.17,-0.29,-0.78,0.06,-0.47,-1.61,
0.368,-1.17,-0.29,-0.78,0.06,-0.49,-1.62,
0.37,-1.17,-0.29,-0.78,0.06,-0.51,-1.64,
0.372,-1.17,-0.29,-0.78,0.06,-0.53,-1.65,
0.374,-1.06,0.09,-1.07,0.06,-0.53,-1.65,
0.374,-1.06,0.09,-1.07,0.06,-0.56,-1.67,
0.377,-1.06,0.09,-1.07,0.06,-0.59,-1.70,
0.378,-1.06,0.09,-1.07,0.06,-0.59,-1.71,
0.38,-1.06,0.09,-1.07,0.05,-0.61,-1.73,
0.382,-1.06,0.09,-1.07,0.05,-0.62,-1.76,
0.385,-0.88,0.29,-1.13,0.05,-0.62,-1.76,
0.385,-0.88,0.29,-1.13,0.05,-0.63,-1.78,
0.387,-0.88,0.29,-1.13,0.04,-0.64,-1.82,
0.388,-0.88,0.29,-1.13,0.04,-0.64,-1.83,
0.39,-0.88,0.29,-1.13,0.04,-0.64,-1.85,
0.392,-0.88,0.29,-1.13,0.03,-0.64,-1.87,
0.394,-0.82,0.39,-1.16,0.03,-0.64,-1.87,
0.394,-0.82,0.39,-1.16,0.02,-0.65,-1.90,
0.397,-0.82,0.39,-1.16,0.01,-0.64,-1.93,
0.399,-0.82,0.39,-1.16,0.01,-0.64,-1.94,
0.404,-0.82,0.39,-1.16,-0.00,-0.64,-1.96,
0.406,-0.82,0.39,-1.16,-0.01,-0.64,-1.98,
0.407,-0.88,0.39,-1.16,-0.01,-0.64,-1.98,
0.407,-0.88,0.39,-1.16,-0.02,-0.63,-2.00,
0.407,-0.88,0.39,-1.16,-0.04,-0.62,-2.02,
0.408,-0.88,0.39,-1.16,-0.05,-0.61,-2.03,
0.41,-0.88,0.39,-1.16,-0.06,-0.60,-2.04,
0.412,-0.88,0.39,-1.16,-0.07,-0.59,-2.05,
0.414,-1.09,0.32,-1.16,-0.07,-0.59,-2.05,
0.415,-1.09,0.32,-1.16,-0.08,-0.58,-2.06,
0.417,-1.09,0.32,-1.16,-0.11,-0.56,-2.07,
0.418,-1.09,0.32,-1.16,-0.11,-0.55,-2.08,
0.42,-1.09,0.32,-1.16,-0.13,-0.54,-2.08,
0.426,-1.09,0.32,-1.16,-0.15,-0.53,-2.09,
0.427,-1.28,0.14,-1.19,-0.15,-0.53,-2.09,
0.427,-1.28,0.14,-1.19,-0.17,-0.51,-2.09,
0.446,-1.28,0.14,-1.19,-0.19,-0.49,-2.09,
0.447,-1.28,0.14,-1.19,-0.20,-0.49,-2.09,
0.447,-1.28,0.14,-1.19,-0.22,-0.48,-2.09,
0.448,-1.28,0.14,-1.19,-0.24,-0.47,-2.09,
0.448,-1.45,-0.01,-1.15,-0.24,-0.47,-2.09,
0.449,-1.45,-0.01,-1.15,-0.26,-0.46,-2.09,
0.449,-1.45,-0.01,-1.15,-0.29,-0.45,-2.08,
0.449,-1.45,-0.01,-1.15,-0.30,-0.45,-2.08,
0.45,-1.45,-0.01,-1.15,-0.32,-0.44,-2.07,
0.45,-1.45,-0.01,-1.15,-0.34,-0.43,-2.07,
0.451,-1.46,-0.18,-0.91,-0.34,-0.43,-2.07,
0.451,-1.46,-0.18,-0.91,-0.35,-0.42,-2.07,
0.451,-1.46,-0.18,-0.91,-0.38,-0.41,-2.06,
0.452,-1.46,-0.18,-0.91,-0.39,-0.41,-2.06,
0.452,-1.46,-0.18,-0.91,-0.40,-0.40,-2.05,
0.453,-1.46,-0.18,-0.91,-0.41,-0.39,-2.05,
0.46,-1.40,-0.30,-0.47,-0.41,-0.39,-2.05,
0.46,-1.40,-0.30,-0.47,-0.42,-0.38,-2.05,
0.46,-1.40,-0.30,-0.47,-0.43,-0.36,-2.05,
0.46,-1.40,-0.30,-0.47,-0.44,-0.35,-2.05,
0.461,-1.40,-0.30,-0.47,-0.44,-0.33,-2.05,
0.463,-1.40,-0.30,-0.47,-0.45,-0.31,-2.05,
0.472,-1.22,-0.37,0.00,-0.45,-0.31,-2.05,
0.472,-1.22,-0.37,0.00,-0.45,-0.29,-2.06,
0.472,-1.22,-0.37,0.00,-0.45,-0.27,-2.06,
0.472,-1.22,-0.37,0.00,-0.45,-0.26,-2.06,
0.473,-1.22,-0.37,0.00,-0.45,-0.24,-2.07,
0.473,-1.22,-0.37,0.00,-0.44,-0.23,-2.07,
0.474,-1.14,-0.43,0.41,-0.44,-0.23,-2.07,
0.474,-1.14,-0.43,0.41,-0.44,-0.22,-2.07,
0.478,-1.14,-0.43,0.41,-0.43,-0.20,-2.08,
0.478,-1.14,-0.43,0.41,-0.42,-0.20,-2.08,
0.485,-1.14,-0.43,0.41,-0.41,-0.18,-2.08,
0.486,-1.14,-0.43,0.41,-0.41,-0.18,-2.09,
0.486,-1.14,-0.47,0.68,-0.41,-0.18,-2.09,
0.486,-1.14,-0.47,0.68,-0.40,-0.16,-2.09,
0.491,-1.14,-0.47,0.68,-0.38,-0.14,-2.09,
0.491,-1.14,-0.47,0.68,-0.37,-0.13,-2.09,
0.491,-1.14,-0.47,0.68,-0.36,-0.12,-2.08,
0.492,-1.14,-0.47,0.68,-0.35,-0.11,-2.08,
0.495,-1.37,-0.57,0.79,-0.35,-0.11,-2.08,
0.495,-1.37,-0.57,0.79,-0.34,-0.09,-2.07,
0.504,-1.37,-0.57,0.79,-0.32,-0.07,-2.07,
0.505,-1.37,-0.57,0.79,-0.32,-0.06,-2.06,
0.505,-1.37,-0.57,0.79,-0.30,-0.05,-2.05,
0.506,-1.37,-0.57,0.79,-0.29,-0.03,-2.03,
0.506,-1.67,-0.67,0.70,-0.29,-0.03,-2.03,
0.506,-1.67,-0.67,0.70,-0.29,-0.01,-2.02,
0.507,-1.67,-0.67,0.70,-0.28,0.03,-1.99,
0.508,-1.67,-0.67,0.70,-0.28,0.04,-1.97,
0.51,-1.67,-0.67,0.70,-0.28,0.06,-1.95,
0.512,-1.67,-0.67,0.70,-0.29,0.08,-1.92,
0.515,-2.18,-0.82,0.20,-0.29,0.08,-1.92,
0.515,-2.18,-0.82,0.20,-0.30,0.11,-1.89,
0.518,-2.18,-0.82,0.20,-0.33,0.16,-1.84,
0.518,-2.18,-0.82,0.20,-0.34,0.18,-1.82,
0.52,-2.18,-0.82,0.20,-0.36,0.23,-1.78,
0.524,-2.18,-0.82,0.20,-0.39,0.29,-1.74,
0.524,-2.55,-1.04,-0.58,-0.39,0.29,-1.74,
0.525,-2.55,-1.04,-0.58,-0.42,0.35,-1.70,
0.527,-2.55,-1.04,-0.58,-0.47,0.43,-1.64,
0.529,-2.55,-1.04,-0.58,-0.48,0.47,-1.62,
0.535,-2.55,-1.04,-0.58,-0.51,0.53,-1.57,
0.535,-2.55,-1.04,-0.58,-0.54,0.59,-1.53,
0.535,-2.81,-1.12,-0.98,-0.54,0.59,-1.53,
0.536,-2.81,-1.12,-0.98,-0.57,0.64,-1.49,
0.537,-2.81,-1.12,-0.98,-0.62,0.72,-1.43,
0.539,-2.81,-1.12,-0.98,-0.64,0.74,-1.41,
0.551,-2.81,-1.12,-0.98,-0.67,0.78,-1.38,
0.552,-2.81,-1.12,-0.98,-0.70,0.82,-1.34,
0.552,-2.61,-0.86,-0.95,-0.70,0.82,-1.34,
0.552,-2.61,-0.86,-0.95,-0.72,0.84,-1.32,
0.553,-2.61,-0.86,-0.95,-0.75,0.87,-1.28,
0.553,-2.61,-0.86,-0.95,-0.75,0.87,-1.27,
0.553,-2.61,-0.86,-0.95,-0.76,0.88,-1.25,
0.553,-2.61,-0.86,-0.95,-0.76,0.87,-1.23,
0.555,-2.04,-0.32,-0.35,-0.76,0.87,-1.23,
0.555,-2.04,-0.32,-0.35,-0.76,0.86,-1.23,
0.557,-2.04,-0.32,-0.35,-0.75,0.83,-1.23,
0.558,-2.04,-0.32,-0.35,-0.74,0.81,-1.23,
0.56,-2.04,-0.32,-0.35,-0.72,0.79,-1.24,
0.562,-2.04,-0.32,-0.35,-0.69,0.75,-1.25,
0.566,-1.22,0.27,0.59,-0.69,0.75,-1.25,
0.567,-1.22,0.27,0.59,-0.66,0.71,-1.27,
0.571,-1.22,0.27,0.59,-0.58,0.62,-1.32,
0.571,-1.22,0.27,0.59,-0.56,0.60,-1.33,
0.571,-1.22,0.27,0.59,-0.53,0.57,-1.35,
0.573,-1.22,0.27,0.59,-0.48,0.52,-1.38,
0.575,-0.54,0.59,1.46,-0.48,0.52,-1.38,
0.575,-0.54,0.59,1.46,-0.43,0.47,-1.41,
0.578,-0.54,0.59,1.46,-0.35,0.38,-1.46,
0.578,-0.54,0.59,1.46,-0.33,0.35,-1.48,
0.583,-0.54,0.59,1.46,-0.27,0.29,-1.52,
0.584,-0.54,0.59,1.46,-0.22,0.23,-1.55,
0.584,-0.27,0.58,1.79,-0.22,0.23,-1.55,
0.585,-0.27,0.58,1.79,-0.16,0.17,-1.58,
0.588,-0.27,0.58,1.79,-0.09,0.09,-1.63,
0.589,-0.27,0.58,1.79,-0.06,0.06,-1.64,
0.592,-0.27,0.58,1.79,-0.01,0.00,-1.67,
0.593,-0.27,0.58,1.79,0.03,-0.05,-1.69,
0.609,-0.39,0.29,1.66,0.03,-0.05,-1.69,
0.61,-0.39,0.29,1.66,0.07,-0.10,-1.71,
0.61,-0.39,0.29,1.66,0.13,-0.18,-1.73,
0.61,-0.39,0.29,1.66,0.14,-0.20,-1.74,
0.61,-0.39,0.29,1.66,0.17,-0.25,-1.75,
0.611,-0.39,0.29,1.66,0.20,-0.29,-1.76,
0.611,-0.63,0.01,1.25,0.20,-0.29,-1.76,
0.611,-0.63,0.01,1.25,0.22,-0.34,-1.77,
0.611,-0.63,0.01,1.25,0.24,-0.40,-1.77,
0.611,-0.63,0.01,1.25,0.25,-0.41,-1.77,
0.612,-0.63,0.01,1.25,0.26,-0.44,-1.78,
0.615,-0.63,0.01,1.25,0.26,-0.47,-1.78,
0.616,-0.71,-0.23,0.79,0.26,-0.47,-1.78,
0.616,-0.71,-0.23,0.79,0.26,-0.49,-1.77,
0.618,-0.71,-0.23,0.79,0.25,-0.51,-1.77,
0.62,-0.71,-0.23,0.79,0.24,-0.51,-1.77,
0.621,-0.71,-0.23,0.79,0.22,-0.51,-1.76,
0.622,-0.71,-0.23,0.79,0.21,-0.51,-1.76,
0.624,-0.76,-0.37,0.45,0.21,-0.51,-1.76,
0.625,-0.76,-0.37,0.45,0.19,-0.51,-1.75,
0.627,-0.76,-0.37,0.45,0.16,-0.49,-1.74,
0.629,-0.76,-0.37,0.45,0.15,-0.48,-1.74,
0.636,-0.76,-0.37,0.45,0.14,-0.46,-1.73,
0.636,-0.76,-0.37,0.45,0.12,-0.44,-1.73,
0.638,-0.73,-0.51,0.59,0.12,-0.44,-1.73,
0.638,-0.73,-0.51,0.59,0.10,-0.43,-1.72,
0.638,-0.73,-0.51,0.59,0.08,-0.40,-1.71,
0.642,-0.73,-0.51,0.59,0.07,-0.39,-1.71,
0.642,-0.73,-0.51,0.59,0.06,-0.37,-1.70,
0.643,-0.73,-0.51,0.59,0.06,-0.36,-1.70,
0.653,-0.58,-0.58,0.90,0.06,-0.36,-1.70,
0.654,-0.58,-0.58,0.90,0.05,-0.34,-1.69,
0.655,-0.58,-0.58,0.90,0.04,-0.32,-1.69,
0.655,-0.58,-0.58,0.90,0.03,-0.31,-1.69,
0.655,-0.58,-0.58,0.90,0.03,-0.30,-1.69,
0.655,-0.58,-0.58,0.90,0.03,-0.29,-1.69,
0.655,-0.26,-0.72,1.21,0.03,-0.29,-1.69,
0.655,-0.26,-0.72,1.21,0.02,-0.28,-1.69,
0.657,-0.26,-0.72,1.21,0.02,-0.26,-1.70,
0.659,-0.26,-0.72,1.21,0.02,-0.26,-1.70,
0.661,-0.26,-0.72,1.21,0.02,-0.25,-1.71,
0.662,-0.26,-0.72,1.21,0.02,-0.25,-1.72,
0.664,0.06,-0.74,1.35,0.02,-0.25,-1.72,
0.665,0.06,-0.74,1.35,0.02,-0.24,-1.72,
0.667,0.06,-0.74,1.35,0.03,-0.24,-1.74,
0.669,0.06,-0.74,1.35,0.03,-0.24,-1.75,
0.67,0.06,-0.74,1.35,0.03,-0.24,-1.76,
0.673,0.06,-0.74,1.35,0.04,-0.24,-1.78,
0.674,0.39,-0.90,1.47,0.04,-0.24,-1.78,
0.675,0.39,-0.90,1.47,0.05,-0.24,-1.79,
0.677,0.39,-0.90,1.47,0.06,-0.24,-1.82,
0.679,0.39,-0.90,1.47,0.06,-0.24,-1.83,
0.681,0.39,-0.90,1.47,0.07,-0.24,-1.84,
0.682,0.39,-0.90,1.47,0.08,-0.23,-1.86,
0.684,0.44,-1.02,1.40,0.08,-0.23,-1.86,
0.684,0.44,-1.02,1.40,0.09,-0.23,-1.87,
0.688,0.44,-1.02,1.40,0.11,-0.22,-1.90,
0.689,0.44,-1.02,1.40,0.11,-0.22,-1.90,
0.69,0.44,-1.02,1.40,0.12,-0.23,-1.91,
0.692,0.44,-1.02,1.40,0.13,-0.23,-1.92,
0.695,0.25,-1.24,1.31,0.13,-0.23,-1.92,
0.695,0.25,-1.24,1.31,0.14,-0.24,-1.93,
0.698,0.25,-1.24,1.31,0.15,-0.25,-1.94,
0.699,0.25,-1.24,1.31,0.16,-0.25,-1.94,
0.701,0.25,-1.24,1.31,0.17,-0.26,-1.94,
0.703,0.25,-1.24,1.31,0.19,-0.27,-1.94,
0.705,-0.09,-1.32,1.24,0.19,-0.27,-1.94,
0.705,-0.09,-1.32,1.24,0.20,-0.27,-1.94,
0.707,-0.09,-1.32,1.24,0.23,-0.28,-1.94,
0.71,-0.09,-1.32,1.24,0.24,-0.29,-1.94,
0.711,-0.09,-1.32,1.24,0.26,-0.30,-1.94,
0.713,-0.09,-1.32,1.24,0.28,-0.31,-1.93,
0.715,-0.28,-1.51,1.32,0.28,-0.31,-1.93,
0.715,-0.28,-1.51,1.32,0.30,-0.33,-1.93,
0.719,-0.28,-1.51,1.32,0.33,-0.35,-1.92,
0.719,-0.28,-1.51,1.32,0.34,-0.36,-1.92,
0.721,-0.28,-1.51,1.32,0.36,-0.38,-1.91,
0.722,-0.28,-1.51,1.32,0.38,-0.40,-1.91,
0.724,-0.54,-1.50,1.17,0.38,-0.40,-1.91,
0.725,-0.54,-1.50,1.17,0.41,-0.42,-1.89,
0.728,-0.54,-1.50,1.17,0.43,-0.45,-1.88,
0.728,-0.54,-1.50,1.17,0.44,-0.46,-1.88,
0.73,-0.54,-1.50,1.17,0.45,-0.49,-1.87,
0.732,-0.54,-1.50,1.17,0.46,-0.51,-1.85,
0.735,-0.63,-1.56,0.93,0.46,-0.51,-1.85,
0.735,-0.63,-1.56,0.93,0.48,-0.54,-1.84,
0.737,-0.63,-1.56,0.93,0.50,-0.57,-1.83,
0.745,-0.63,-1.56,0.93,0.50,-0.58,-1.82,
0.745,-0.63,-1.56,0.93,0.51,-0.61,-1.81,
0.745,-0.63,-1.56,0.93,0.52,-0.63,-1.80,
0.75,-0.56,-1.47,0.83,0.52,-0.63,-1.80,
0.75,-0.56,-1.47,0.83,0.54,-0.65,-1.79,
0.751,-0.56,-1.47,0.83,0.56,-0.68,-1.77,
0.751,-0.56,-1.47,0.83,0.57,-0.69,-1.77,
0.752,-0.56,-1.47,0.83,0.58,-0.71,-1.76,
0.753,-0.56,-1.47,0.83,0.60,-0.72,-1.75,
0.755,-0.33,-1.38,0.84,0.60,-0.72,-1.75,
0.755,-0.33,-1.38,0.84,0.62,-0.74,-1.74,
0.759,-0.33,-1.38,0.84,0.64,-0.76,-1.73,
0.76,-0.33,-1.38,0.84,0.65,-0.77,-1.73,
0.778,-0.33,-1.38,0.84,0.67,-0.78,-1.73,
0.778,-0.33,-1.38,0.84,0.69,-0.79,-1.73,
0.778,-0.13,-1.18,0.78,0.69,-0.79,-1.73,
0.778,-0.13,-1.18,0.78,0.70,-0.79,-1.73,
0.778,-0.13,-1.18,0.78,0.73,-0.81,-1.72,
0.779,-0.13,-1.18,0.78,0.73,-0.81,-1.72,
0.779,-0.13,-1.18,0.78,0.75,-0.82,-1.72,
0.779,-0.13,-1.18,0.78,0.76,-0.83,-1.73,
0.779,0.03,-1.12,0.52,0.76,-0.83,-1.73,
0.78,0.03,-1.12,0.52,0.77,-0.84,-1.73,
0.78,0.03,-1.12,0.52,0.78,-0.85,-1.73,
0.78,0.03,-1.12,0.52,0.78,-0.86,-1.73,
0.783,0.03,-1.12,0.52,0.78,-0.87,-1.73,
0.784,0.03,-1.12,0.52,0.79,-0.89,-1.73,
0.785,-0.05,-1.03,0.10,0.79,-0.89,-1.73,
0.786,-0.05,-1.03,0.10,0.78,-0.90,-1.73,
0.787,-0.05,-1.03,0.10,0.78,-0.94,-1.73,
0.789,-0.05,-1.03,0.10,0.78,-0.95,-1.73,
0.793,-0.05,-1.03,0.10,0.77,-1.02,-1.73,
0.794,-0.05,-1.03,0.10,0.77,-1.02,-1.73,
0.795,-0.05,-1.03,0.10,0.76,-1.09,-1.73,
0.795,-0.04,-0.94,-0.30,0.76,-1.09,-1.73,
0.797,-0.04,-0.94,-0.30,0.74,-1.19,-1.72,
0.799,-0.04,-0.94,-0.30,0.74,-1.21,-1.72,
0.8,-0.04,-0.94,-0.30,0.72,-1.25,-1.72,
0.802,-0.04,-0.94,-0.30,0.70,-1.28,-1.72,
0.806,-0.19,-0.78,-0.66,0.70,-1.28,-1.72,
0.806,-0.19,-0.78,-0.66,0.69,-1.30,-1.72,
0.808,-0.19,-0.78,-0.66,0.65,-1.32,-1.71,
0.81,-0.19,-0.78,-0.66,0.64,-1.32,-1.71,
0.811,-0.19,-0.78,-0.66,0.62,-1.32,-1.70,
0.815,-0.19,-0.78,-0.66,0.59,-1.32,-1.70,
0.815,-0.32,-0.78,-0.71,0.59,-1.32,-1.70,
0.815,-0.32,-0.78,-0.71,0.57,-1.32,-1.69,
0.817,-0.32,-0.78,-0.71,0.53,-1.32,-1.68,
0.818,-0.32,-0.78,-0.71,0.52,-1.32,-1.68,
0.82,-0.32,-0.78,-0.71,0.50,-1.32,-1.67,
0.822,-0.32,-0.78,-0.71,0.47,-1.32,-1.67,
0.824,-0.04,-0.76,-0.66,0.47,-1.32,-1.67,
0.825,-0.04,-0.76,-0.66,0.45,-1.33,-1.66,
0.827,-0.04,-0.76,-0.66,0.41,-1.33,-1.65,
0.828,-0.04,-0.76,-0.66,0.40,-1.33,-1.65,
0.83,-0.04,-0.76,-0.66,0.38,-1.33,-1.65,
0.832,-0.04,-0.76,-0.66,0.36,-1.32,-1.64,
0.834,0.21,-0.74,-0.37,0.36,-1.32,-1.64,
0.834,0.21,-0.74,-0.37,0.33,-1.31,-1.64,
0.837,0.21,-0.74,-0.37,0.30,-1.29,-1.63,
0.838,0.21,-0.74,-0.37,0.28,-1.28,-1.63,
0.84,0.21,-0.74,-0.37,0.26,-1.26,-1.62,
0.842,0.21,-0.74,-0.37,0.24,-1.24,-1.62,
0.844,0.38,-0.75,-0.10,0.24,-1.24,-1.62,
0.844,0.38,-0.75,-0.10,0.21,-1.22,-1.61,
0.847,0.38,-0.75,-0.10,0.18,-1.19,-1.61,
0.848,0.38,-0.75,-0.10,0.16,-1.18,-1.61,
0.85,0.38,-0.75,-0.10,0.14,-1.15,-1.61,
0.852,0.38,-0.75,-0.10,0.12,-1.13,-1.61,
0.854,0.67,-0.92,0.21,0.12,-1.13,-1.61,
0.854,0.67,-0.92,0.21,0.10,-1.11,-1.61,
0.857,0.67,-0.92,0.21,0.08,-1.08,-1.62,
0.858,0.67,-0.92,0.21,0.07,-1.07,-1.62,
0.86,0.67,-0.92,0.21,0.05,-1.05,-1.62,
0.865,0.67,-0.92,0.21,0.04,-1.03,-1.63,
0.865,0.81,-1.04,0.55,0.04,-1.03,-1.63,
0.865,0.81,-1.04,0.55,0.02,-1.01,-1.63,
0.867,0.81,-1.04,0.55,-0.00,-1.00,-1.64,
0.871,0.81,-1.04,0.55,-0.01,-0.99,-1.64,
0.872,0.81,-1.04,0.55,-0.02,-0.99,-1.66,
0.872,0.81,-1.04,0.55,-0.03,-0.98,-1.66,
0.874,1.02,-1.21,0.88,-0.03,-0.98,-1.66,
0.874,1.02,-1.21,0.88,-0.04,-0.98,-1.67,
0.877,1.02,-1.21,0.88,-0.04,-0.98,-1.68,
0.882,1.02,-1.21,0.88,-0.04,-0.98,-1.69,
0.882,1.02,-1.21,0.88,-0.04,-0.97,-1.69,
0.882,1.02,-1.21,0.88,-0.04,-0.96,-1.70,
0.884,1.06,-1.33,1.38,-0.04,-0.96,-1.70,
0.884,1.06,-1.33,1.38,-0.03,-0.95,-1.70,
0.887,1.06,-1.33,1.38,-0.01,-0.94,-1.71,
0.888,1.06,-1.33,1.38,-0.00,-0.93,-1.71,
0.89,1.06,-1.33,1.38,0.02,-0.91,-1.71,
0.892,1.06,-1.33,1.38,0.04,-0.89,-1.71,
0.894,1.04,-1.44,1.91,0.04,-0.89,-1.71,
0.894,1.04,-1.44,1.91,0.06,-0.87,-1.71,
0.897,1.04,-1.44,1.91,0.10,-0.84,-1.70,
0.898,1.04,-1.44,1.91,0.11,-0.82,-1.70,
0.9,1.04,-1.44,1.91,0.14,-0.79,-1.70,
0.902,1.04,-1.44,1.91,0.16,-0.77,-1.70,
0.904,0.92,-1.44,1.96,0.16,-0.77,-1.70,
0.904,0.92,-1.44,1.96,0.19,-0.74,-1.69,
0.907,0.92,-1.44,1.96,0.22,-0.70,-1.68,
0.908,0.92,-1.44,1.96,0.23,-0.69,-1.67,
0.91,0.92,-1.44,1.96,0.25,-0.66,-1.66,
0.912,0.92,-1.44,1.96,0.27,-0.63,-1.64,
0.915,0.64,-1.39,1.58,0.27,-0.63,-1.64,
0.915,0.64,-1.39,1.58,0.29,-0.61,-1.62,
0.918,0.64,-1.39,1.58,0.32,-0.57,-1.59,
0.92,0.64,-1.39,1.58,0.33,-0.56,-1.58,
0.921,0.64,-1.39,1.58,0.33,-0.55,-1.57,
0.922,0.64,-1.39,1.58,0.34,-0.54,-1.56,
0.924,0.30,-1.26,0.99,0.34,-0.54,-1.56,
0.924,0.30,-1.26,0.99,0.35,-0.53,-1.54,
0.949,0.30,-1.26,0.99,0.36,-0.52,-1.52,
0.949,0.30,-1.26,0.99,0.36,-0.52,-1.52,
0.949,0.30,-1.26,0.99,0.36,-0.52,-1.51,
0.95,0.30,-1.26,0.99,0.36,-0.52,-1.51,
0.95,0.33,-1.03,0.37,0.36,-0.52,-1.51,
0.95,0.33,-1.03,0.37,0.36,-0.53,-1.50,
0.95,0.33,-1.03,0.37,0.35,-0.56,-1.50,
0.951,0.33,-1.03,0.37,0.34,-0.57,-1.49,
0.951,0.33,-1.03,0.37,0.33,-0.60,-1.50,
0.951,0.33,-1.03,0.37,0.32,-0.64,-1.49,
0.951,0.51,-0.76,-0.18,0.32,-0.64,-1.49,
0.952,0.51,-0.76,-0.18,0.30,-0.68,-1.49,
0.952,0.51,-0.76,-0.18,0.27,-0.74,-1.50,
0.952,0.51,-0.76,-0.18,0.25,-0.76,-1.50,
0.952,0.51,-0.76,-0.18,0.23,-0.81,-1.50,
0.953,0.51,-0.76,-0.18,0.20,-0.84,-1.51,
0.957,0.78,-0.58,-0.49,0.20,-0.84,-1.51,
0.958,0.78,-0.58,-0.49,0.17,-0.88,-1.51,
0.958,0.78,-0.58,-0.49,0.12,-0.94,-1.52,
0.958,0.78,-0.58,-0.49,0.11,-0.95,-1.53,
0.96,0.78,-0.58,-0.49,0.08,-0.98,-1.54,
0.963,0.78,-0.58,-0.49,0.05,-1.01,-1.55,
0.964,1.26,-0.46,-0.38,0.05,-1.01,-1.55,
0.964,1.26,-0.46,-0.38,0.01,-1.04,-1.56,
0.967,1.26,-0.46,-0.38,-0.03,-1.08,-1.58,
0.968,1.26,-0.46,-0.38,-0.05,-1.10,-1.59,
0.97,1.26,-0.46,-0.38,-0.08,-1.12,-1.60,
0.972,1.26,-0.46,-0.38,-0.10,-1.14,-1.62,
0.974,1.80,-0.47,0.13,-0.10,-1.14,-1.62,
0.974,1.80,-0.47,0.13,-0.12,-1.16,-1.64,
0.977,1.80,-0.47,0.13,-0.16,-1.17,-1.66,
0.979,1.80,-0.47,0.13,-0.16,-1.17,-1.67,
0.98,1.80,-0.47,0.13,-0.18,-1.16,-1.68,
0.982,1.80,-0.47,0.13,-0.19,-1.14,-1.69,
0.984,1.96,-0.55,0.79,-0.19,-1.14,-1.69,
0.984,1.96,-0.55,0.79,-0.20,-1.12,-1.70,
0.987,1.96,-0.55,0.79,-0.21,-1.08,-1.71,
0.988,1.96,-0.55,0.79,-0.21,-1.06,-1.71,
0.99,1.96,-0.55,0.79,-0.21,-1.02,-1.71,
0.992,1.96,-0.55,0.79,-0.21,-0.99,-1.71,
0.994,1.97,-0.86,1.28,-0.21,-0.99,-1.71,
0.994,1.97,-0.86,1.28,-0.21,-0.95,-1.72,
0.998,1.97,-0.86,1.28,-0.20,-0.89,-1.71,
0.999,1.97,-0.86,1.28,-0.19,-0.87,-1.71,
1.0,1.97,-0.86,1.28,-0.18,-0.83,-1.71,
1.002,1.97,-0.86,1.28,-0.17,-0.78,-1.70,
1.004,1.81,-1.03,1.53,-0.17,-0.78,-1.70,
1.004,1.81,-1.03,1.53,-0.15,-0.74,-1.70,
1.007,1.81,-1.03,1.53,-0.12,-0.67,-1.69,
1.008,1.81,-1.03,1.53,-0.11,-0.65,-1.69,
1.011,1.81,-1.03,1.53,-0.09,-0.60,-1.68,
1.028,1.81,-1.03,1.53,-0.07,-0.56,-1.68,
1.03,1.64,-1.06,1.34,-0.07,-0.56,-1.68,
1.031,1.64,-1.06,1.34,-0.05,-0.52,-1.68,
1.032,1.64,-1.06,1.34,-0.01,-0.46,-1.67,
1.033,1.64,-1.06,1.34,-0.00,-0.44,-1.66,
1.033,1.64,-1.06,1.34,0.02,-0.41,-1.66,
1.034,1.64,-1.06,1.34,0.04,-0.39,-1.66,
1.035,1.42,-0.91,0.71,0.04,-0.39,-1.66,
1.036,1.42,-0.91,0.71,0.06,-0.37,-1.65,
1.037,1.42,-0.91,0.71,0.09,-0.35,-1.64,
1.038,1.42,-0.91,0.71,0.10,-0.34,-1.64,
1.039,1.42,-0.91,0.71,0.12,-0.33,-1.64,
1.039,1.42,-0.91,0.71,0.14,-0.33,-1.64,
1.04,1.40,-0.75,0.02,0.14,-0.33,-1.64,
1.04,1.40,-0.75,0.02,0.16,-0.32,-1.63,
1.041,1.40,-0.75,0.02,0.19,-0.33,-1.63,
1.041,1.40,-0.75,0.02,0.20,-0.33,-1.63,
1.047,1.40,-0.75,0.02,0.22,-0.34,-1.64,
1.047,1.40,-0.75,0.02,0.23,-0.35,-1.64,
1.047,1.28,-0.47,-0.76,0.23,-0.35,-1.64,
1.048,1.28,-0.47,-0.76,0.24,-0.36,-1.64,
1.063,1.28,-0.47,-0.76,0.26,-0.38,-1.65,
1.063,1.28,-0.47,-0.76,0.26,-0.38,-1.65,
1.063,1.28,-0.47,-0.76,0.27,-0.40,-1.65,
1.063,1.28,-0.47,-0.76,0.28,-0.41,-1.65,
1.064,1.17,-0.28,-1.55,0.28,-0.41,-1.65,
1.064,1.17,-0.28,-1.55,0.29,-0.43,-1.65,
1.064,1.17,-0.28,-1.55,0.30,-0.45,-1.65,
1.064,1.17,-0.28,-1.55,0.30,-0.45,-1.65,
1.064,1.17,-0.28,-1.55,0.30,-0.47,-1.64,
1.064,1.17,-0.28,-1.55,0.30,-0.48,-1.64,
1.065,0.84,-0.14,-2.26,0.30,-0.48,-1.64,
1.065,0.84,-0.14,-2.26,0.30,-0.49,-1.64,
1.067,0.84,-0.14,-2.26,0.30,-0.51,-1.63,
1.068,0.84,-0.14,-2.26,0.29,-0.52,-1.63,
1.07,0.84,-0.14,-2.26,0.29,-0.53,-1.62,
1.072,0.84,-0.14,-2.26,0.28,-0.54,-1.61,
1.075,0.66,0.04,-2.92,0.28,-0.54,-1.61,
1.075,0.66,0.04,-2.92,0.27,-0.55,-1.60,
1.077,0.66,0.04,-2.92,0.25,-0.57,-1.59,
1.081,0.66,0.04,-2.92,0.24,-0.58,-1.59,
1.082,0.66,0.04,-2.92,0.22,-0.60,-1.58,
1.085,0.66,0.04,-2.92,0.20,-0.62,-1.57,
1.087,0.48,0.14,-3.45,0.20,-0.62,-1.57,
1.088,0.48,0.14,-3.45,0.18,-0.63,-1.57,
1.088,0.48,0.14,-3.45,0.14,-0.66,-1.56,
1.089,0.48,0.14,-3.45,0.13,-0.66,-1.56,
1.091,0.48,0.14,-3.45,0.10,-0.68,-1.55,
1.092,0.48,0.14,-3.45,0.07,-0.69,-1.55,
1.118,0.49,0.29,-3.79,0.07,-0.69,-1.55,
1.119,0.49,0.29,-3.79,0.04,-0.70,-1.54,
1.119,0.49,0.29,-3.79,-0.01,-0.72,-1.54,
1.119,0.49,0.29,-3.79,-0.03,-0.72,-1.53,
1.12,0.49,0.29,-3.79,-0.06,-0.73,-1.53,
1.12,0.49,0.29,-3.79,-0.09,-0.74,-1.53,
1.12,0.43,0.34,-3.81,-0.09,-0.74,-1.53,
1.12,0.43,0.34,-3.81,-0.13,-0.74,-1.52,
1.121,0.43,0.34,-3.81,-0.17,-0.76,-1.52,
1.121,0.43,0.34,-3.81,-0.19,-0.76,-1.51,
1.121,0.43,0.34,-3.81,-0.22,-0.77,-1.51,
1.121,0.43,0.34,-3.81,-0.25,-0.78,-1.50,
1.122,0.46,0.40,-3.51,-0.25,-0.78,-1.50,
1.122,0.46,0.40,-3.51,-0.28,-0.79,-1.50,
1.122,0.46,0.40,-3.51,-0.31,-0.81,-1.49,
1.123,0.46,0.40,-3.51,-0.32,-0.81,-1.49,
1.123,0.46,0.40,-3.51,-0.34,-0.82,-1.49,
1.123,0.46,0.40,-3.51,-0.35,-0.82,-1.49,
1.131,0.48,0.45,-2.86,-0.35,-0.82,-1.49,
1.132,0.48,0.45,-2.86,-0.36,-0.82,-1.48,
1.132,0.48,0.45,-2.86,-0.37,-0.83,-1.48,
1.132,0.48,0.45,-2.86,-0.38,-0.83,-1.48,
1.133,0.48,0.45,-2.86,-0.38,-0.83,-1.48,
1.133,0.48,0.45,-2.86,-0.38,-0.83,-1.48,
1.134,0.68,0.60,-2.23,-0.38,-0.83,-1.48,
1.135,0.68,0.60,-2.23,-0.38,-0.83,-1.48,
1.137,0.68,0.60,-2.23,-0.38,-0.84,-1.49,
1.138,0.68,0.60,-2.23,-0.38,-0.84,-1.49,
1.14,0.68,0.60,-2.23,-0.38,-0.84,-1.49,
1.142,0.68,0.60,-2.23,-0.37,-0.85,-1.50,
1.145,0.77,0.70,-1.74,-0.37,-0.85,-1.50,
1.146,0.77,0.70,-1.74,-0.37,-0.85,-1.50,
1.153,0.77,0.70,-1.74,-0.36,-0.85,-1.51,
1.153,0.77,0.70,-1.74,-0.35,-0.85,-1.52,
1.153,0.77,0.70,-1.74,-0.35,-0.85,-1.52,
1.154,0.77,0.70,-1.74,-0.34,-0.85,-1.53,
1.155,0.91,0.83,-1.37,-0.34,-0.85,-1.53,
1.155,0.91,0.83,-1.37,-0.33,-0.86,-1.53,
1.159,0.91,0.83,-1.37,-0.32,-0.85,-1.54,
1.16,0.91,0.83,-1.37,-0.31,-0.85,-1.54,
1.16,0.91,0.83,-1.37,-0.30,-0.85,-1.55,
1.171,0.91,0.83,-1.37,-0.30,-0.84,-1.56,
1.172,0.82,0.93,-1.11,-0.30,-0.84,-1.56,
1.172,0.82,0.93,-1.11,-0.29,-0.84,-1.56,
1.172,0.82,0.93,-1.11,-0.28,-0.83,-1.57,
1.172,0.82,0.93,-1.11,-0.28,-0.83,-1.57,
1.172,0.82,0.93,-1.11,-0.28,-0.82,-1.58,
1.173,0.82,0.93,-1.11,-0.27,-0.81,-1.58,
1.199,0.68,1.04,-1.03,-0.27,-0.81,-1.58,
1.2,0.68,1.04,-1.03,-0.27,-0.80,-1.58,
1.2,0.68,1.04,-1.03,-0.28,-0.79,-1.57,
1.2,0.68,1.04,-1.03,-0.28,-0.78,-1.57,
1.201,0.68,1.04,-1.03,-0.28,-0.78,-1.56,
1.201,0.68,1.04,-1.03,-0.28,-0.77,-1.55,
1.201,0.30,1.01,-0.92,-0.28,-0.77,-1.55,
1.201,0.30,1.01,-0.92,-0.29,-0.77,-1.54,
1.201,0.30,1.01,-0.92,-0.31,-0.76,-1.52,
1.202,0.30,1.01,-0.92,-0.31,-0.76,-1.52,
1.202,0.30,1.01,-0.92,-0.32,-0.76,-1.50,
1.202,0.30,1.01,-0.92,-0.33,-0.75,-1.48,
1.202,0.12,0.96,-0.75,-0.33,-0.75,-1.48,
1.203,0.12,0.96,-0.75,-0.34,-0.74,-1.47,
1.203,0.12,0.96,-0.75,-0.36,-0.74,-1.44,
1.203,0.12,0.96,-0.75,-0.37,-0.74,-1.43,
1.203,0.12,0.96,-0.75,-0.38,-0.73,-1.41,
1.204,0.12,0.96,-0.75,-0.40,-0.72,-1.39,
1.204,-0.01,0.92,-0.49,-0.40,-0.72,-1.39,
1.205,-0.01,0.92,-0.49,-0.41,-0.72,-1.38,
1.208,-0.01,0.92,-0.49,-0.43,-0.72,-1.36,
1.208,-0.01,0.92,-0.49,-0.43,-0.72,-1.35,
1.212,-0.01,0.92,-0.49,-0.44,-0.72,-1.34,
1.212,-0.01,0.92,-0.49,-0.44,-0.71,-1.33,
1.214,0.06,0.94,-0.07,-0.44,-0.71,-1.33,
1.214,0.06,0.94,-0.07,-0.45,-0.71,-1.32,
1.217,0.06,0.94,-0.07,-0.45,-0.70,-1.30,
1.218,0.06,0.94,-0.07,-0.45,-0.69,-1.29,
1.22,0.06,0.94,-0.07,-0.44,-0.69,-1.28,
1.222,0.06,0.94,-0.07,-0.44,-0.67,-1.26,
1.224,-0.22,1.25,0.58,-0.44,-0.67,-1.26,
1.224,-0.22,1.25,0.58,-0.43,-0.66,-1.25,
1.232,-0.22,1.25,0.58,-0.41,-0.64,-1.23,
1.233,-0.22,1.25,0.58,-0.41,-0.63,-1.22,
1.233,-0.22,1.25,0.58,-0.39,-0.61,-1.21,
1.233,-0.22,1.25,0.58,-0.38,-0.59,-1.19,
1.234,-0.23,1.53,1.14,-0.38,-0.59,-1.19,
1.234,-0.23,1.53,1.14,-0.36,-0.58,-1.18,
1.237,-0.23,1.53,1.14,-0.33,-0.55,-1.17,
1.238,-0.23,1.53,1.14,-0.32,-0.54,-1.16,
1.24,-0.23,1.53,1.14,-0.30,-0.52,-1.15,
1.243,-0.23,1.53,1.14,-0.27,-0.50,-1.15,
1.244,-0.18,1.69,1.55,-0.27,-0.50,-1.15,
1.245,-0.18,1.69,1.55,-0.25,-0.49,-1.14,
1.248,-0.18,1.69,1.55,-0.21,-0.45,-1.13,
1.248,-0.18,1.69,1.55,-0.20,-0.44,-1.13,
1.251,-0.18,1.69,1.55,-0.17,-0.43,-1.12,
1.252,-0.18,1.69,1.55,-0.15,-0.41,-1.12,
1.256,-0.07,1.85,1.74,-0.15,-0.41,-1.12,
1.256,-0.07,1.85,1.74,-0.12,-0.39,-1.11,
1.257,-0.07,1.85,1.74,-0.09,-0.37,-1.10,
1.259,-0.07,1.85,1.74,-0.08,-0.36,-1.10,
1.278,-0.07,1.85,1.74,-0.05,-0.35,-1.09,
1.279,-0.07,1.85,1.74,-0.03,-0.34,-1.08,
1.279,-0.10,1.79,1.71,-0.03,-0.34,-1.08,
1.279,-0.10,1.79,1.71,-0.01,-0.33,-1.07,
1.279,-0.10,1.79,1.71,0.03,-0.31,-1.05,
1.28,-0.10,1.79,1.71,0.04,-0.30,-1.04,
1.28,-0.10,1.79,1.71,0.05,-0.30,-1.03,
1.28,-0.10,1.79,1.71,0.07,-0.29,-1.01,
1.28,-0.30,1.83,1.49,0.07,-0.29,-1.01,
1.28,-0.30,1.83,1.49,0.09,-0.28,-1.00,
1.281,-0.30,1.83,1.49,0.11,-0.27,-0.97,
1.281,-0.30,1.83,1.49,0.12,-0.27,-0.96,
1.281,-0.30,1.83,1.49,0.14,-0.26,-0.94,
1.284,-0.30,1.83,1.49,0.15,-0.25,-0.92,
1.285,-0.52,1.86,1.26,0.15,-0.25,-0.92,
1.286,-0.52,1.86,1.26,0.16,-0.25,-0.90,
1.287,-0.52,1.86,1.26,0.18,-0.23,-0.87,
1.29,-0.52,1.86,1.26,0.19,-0.23,-0.83,
1.29,-0.52,1.86,1.26,0.19,-0.23,-0.83,
1.292,-0.52,1.86,1.26,0.19,-0.22,-0.81,
1.294,-0.66,1.92,0.99,0.19,-0.22,-0.81,
1.295,-0.66,1.92,0.99,0.20,-0.22,-0.79,
1.297,-0.66,1.92,0.99,0.21,-0.22,-0.76,
1.298,-0.66,1.92,0.99,0.21,-0.22,-0.75,
1.3,-0.66,1.92,0.99,0.21,-0.23,-0.73,
1.302,-0.66,1.92,0.99,0.22,-0.24,-0.71,
1.304,-0.62,2.00,0.78,0.22,-0.24,-0.71,
1.304,-0.62,2.00,0.78,0.22,-0.26,-0.70,
1.307,-0.62,2.00,0.78,0.22,-0.28,-0.67,
1.308,-0.62,2.00,0.78,0.22,-0.29,-0.66,
1.313,-0.62,2.00,0.78,0.22,-0.31,-0.65,
1.314,-0.62,2.00,0.78,0.22,-0.33,-0.63,
1.315,-0.54,2.27,0.81,0.22,-0.33,-0.63,
1.316,-0.54,2.27,0.81,0.22,-0.35,-0.62,
1.318,-0.54,2.27,0.81,0.22,-0.39,-0.59,
1.323,-0.54,2.27,0.81,0.22,-0.40,-0.59,
1.324,-0.54,2.27,0.81,0.23,-0.42,-0.57,
1.327,-0.54,2.27,0.81,0.23,-0.44,-0.55,
1.327,-0.40,2.35,1.02,0.23,-0.44,-0.55,
1.327,-0.40,2.35,1.02,0.23,-0.46,-0.54,
1.327,-0.40,2.35,1.02,0.24,-0.49,-0.52,
1.338,-0.40,2.35,1.02,0.24,-0.49,-0.51,
1.338,-0.40,2.35,1.02,0.24,-0.50,-0.49,
1.338,-0.40,2.35,1.02,0.25,-0.51,-0.48,
1.338,-0.24,2.44,1.36,0.25,-0.51,-0.48,
1.339,-0.24,2.44,1.36,0.25,-0.51,-0.46,
1.339,-0.24,2.44,1.36,0.26,-0.52,-0.44,
1.339,-0.24,2.44,1.36,0.27,-0.52,-0.43,
1.342,-0.24,2.44,1.36,0.27,-0.51,-0.42,
1.342,-0.24,2.44,1.36,0.28,-0.51,-0.40,
1.346,-0.12,2.36,1.61,0.28,-0.51,-0.40,
1.346,-0.12,2.36,1.61,0.29,-0.50,-0.39,
1.347,-0.12,2.36,1.61,0.29,-0.47,-0.37,
1.348,-0.12,2.36,1.61,0.29,-0.46,-0.36,
1.35,-0.12,2.36,1.61,0.30,-0.44,-0.35,
1.352,-0.12,2.36,1.61,0.30,-0.41,-0.34,
1.354,-0.16,2.34,1.73,0.30,-0.41,-0.34,
1.354,-0.16,2.34,1.73,0.30,-0.38,-0.32,
1.357,-0.16,2.34,1.73,0.30,-0.32,-0.30,
1.358,-0.16,2.34,1.73,0.30,-0.30,-0.29,
1.36,-0.16,2.34,1.73,0.30,-0.25,-0.28,
1.362,-0.16,2.34,1.73,0.29,-0.21,-0.27,
1.366,-0.28,2.30,1.59,0.29,-0.21,-0.27,
1.366,-0.28,2.30,1.59,0.29,-0.16,-0.25,
1.369,-0.28,2.30,1.59,0.27,-0.09,-0.23,
1.369,-0.28,2.30,1.59,0.26,-0.07,-0.22,
1.372,-0.28,2.30,1.59,0.25,-0.02,-0.20,
1.372,-0.28,2.30,1.59,0.23,0.02,-0.18,
1.375,-0.33,2.24,1.17,0.23,0.02,-0.18,
1.376,-0.33,2.24,1.17,0.20,0.07,-0.16,
1.378,-0.33,2.24,1.17,0.16,0.13,-0.13,
1.379,-0.33,2.24,1.17,0.14,0.15,-0.12,
1.382,-0.33,2.24,1.17,0.11,0.19,-0.11,
1.382,-0.33,2.24,1.17,0.07,0.23,-0.08,
1.386,-0.34,2.13,0.72,0.07,0.23,-0.08,
1.386,-0.34,2.13,0.72,0.04,0.27,-0.07,
1.389,-0.34,2.13,0.72,-0.03,0.32,-0.04,
1.389,-0.34,2.13,0.72,-0.05,0.35,-0.03,
1.39,-0.34,2.13,0.72,-0.10,0.39,-0.01,
1.393,-0.34,2.13,0.72,-0.14,0.43,0.01,
1.395,-0.23,2.07,0.50,-0.14,0.43,0.01,
1.396,-0.23,2.07,0.50,-0.19,0.47,0.02,
1.397,-0.23,2.07,0.50,-0.27,0.53,0.05,
1.4,-0.23,2.07,0.50,-0.29,0.55,0.05,
1.4,-0.23,2.07,0.50,-0.34,0.58,0.07,
1.404,-0.23,2.07,0.50,-0.40,0.61,0.07,
1.404,-0.16,1.97,0.58,-0.40,0.61,0.07,
1.404,-0.16,1.97,0.58,-0.45,0.65,0.08,
1.408,-0.16,1.97,0.58,-0.52,0.68,0.09,
1.409,-0.16,1.97,0.58,-0.54,0.69,0.09,
1.413,-0.16,1.97,0.58,-0.59,0.71,0.10,
1.413,-0.16,1.97,0.58,-0.64,0.72,0.10,
1.414,0.05,1.84,0.95,-0.64,0.72,0.10,
1.414,0.05,1.84,0.95,-0.68,0.73,0.11,
1.418,0.05,1.84,0.95,-0.75,0.73,0.11,
1.418,0.05,1.84,0.95,-0.77,0.73,0.11,
1.422,0.05,1.84,0.95,-0.81,0.72,0.12,
1.423,0.05,1.84,0.95,-0.85,0.71,0.12,
1.426,0.13,1.56,1.63,-0.85,0.71,0.12,
1.427,0.13,1.56,1.63,-0.89,0.69,0.12,
1.451,0.13,1.56,1.63,-0.95,0.66,0.12,
1.451,0.13,1.56,1.63,-0.96,0.65,0.12,
1.451,0.13,1.56,1.63,-0.99,0.61,0.12,
1.452,0.13,1.56,1.63,-1.02,0.58,0.12,
1.452,0.31,1.30,2.76,-1.02,0.58,0.12,
1.452,0.31,1.30,2.76,-1.04,0.55,0.11,
1.453,0.31,1.30,2.76,-1.07,0.50,0.11,
1.453,0.31,1.30,2.76,-1.08,0.48,0.10,
1.453,0.31,1.30,2.76,-1.10,0.45,0.10,
1.453,0.31,1.30,2.76,-1.11,0.42,0.09,
1.454,0.51,0.98,4.02,-1.11,0.42,0.09,
1.454,0.51,0.98,4.02,-1.11,0.40,0.08,
1.454,0.51,0.98,4.02,-1.12,0.35,0.07,
1.454,0.51,0.98,4.02,-1.12,0.34,0.07,
1.455,0.51,0.98,4.02,-1.11,0.31,0.07,
1.455,0.51,0.98,4.02,-1.10,0.28,0.06,
1.455,0.65,0.53,5.38,-1.10,0.28,0.06,
1.456,0.65,0.53,5.38,-1.09,0.26,0.06,
1.461,0.65,0.53,5.38,-1.06,0.22,0.06,
1.462,0.65,0.53,5.38,-1.04,0.21,0.06,
1.463,0.65,0.53,5.38,-1.01,0.19,0.06,
1.463,0.65,0.53,5.38,-0.98,0.16,0.07,
1.466,0.59,0.00,6.76,-0.98,0.16,0.07,
1.467,0.59,0.00,6.76,-0.93,0.15,0.07,
1.468,0.59,0.00,6.76,-0.86,0.13,0.09,
1.468,0.59,0.00,6.76,-0.84,0.13,0.10,
1.472,0.59,0.00,6.76,-0.78,0.12,0.11,
1.472,0.59,0.00,6.76,-0.72,0.13,0.14,
1.476,0.42,-0.54,7.89,-0.72,0.13,0.14,
1.476,0.42,-0.54,7.89,-0.66,0.14,0.16,
1.484,0.42,-0.54,7.89,-0.55,0.15,0.20,
1.484,0.42,-0.54,7.89,-0.51,0.16,0.21,
1.485,0.42,-0.54,7.89,-0.44,0.18,0.24,
1.485,0.42,-0.54,7.89,-0.36,0.21,0.28,
1.485,0.27,-1.02,8.52,-0.36,0.21,0.28,
1.485,0.27,-1.02,8.52,-0.29,0.24,0.31,
1.491,0.27,-1.02,8.52,-0.17,0.29,0.36,
1.492,0.27,-1.02,8.52,-0.13,0.31,0.38,
1.513,0.27,-1.02,8.52,-0.05,0.34,0.42,
1.513,0.27,-1.02,8.52,0.03,0.38,0.45,
1.514,0.28,-1.40,8.38,0.03,0.38,0.45,
1.514,0.28,-1.40,8.38,0.11,0.42,0.49,
1.514,0.28,-1.40,8.38,0.22,0.47,0.54,
1.514,0.28,-1.40,8.38,0.26,0.48,0.55,
1.515,0.28,-1.40,8.38,0.33,0.50,0.58,
1.515,0.28,-1.40,8.38,0.39,0.52,0.61,
1.515,0.40,-1.50,7.24,0.39,0.52,0.61,
1.515,0.40,-1.50,7.24,0.45,0.52,0.64,
1.516,0.40,-1.50,7.24,0.53,0.52,0.68,
1.516,0.40,-1.50,7.24,0.55,0.51,0.69,
1.516,0.40,-1.50,7.24,0.59,0.50,0.70,
1.516,0.40,-1.50,7.24,0.63,0.48,0.72,
1.516,0.74,-1.44,5.49,0.63,0.48,0.72,
1.517,0.74,-1.44,5.49,0.67,0.46,0.73,
1.517,0.74,-1.44,5.49,0.72,0.42,0.74,
1.52,0.74,-1.44,5.49,0.73,0.40,0.75,
1.52,0.74,-1.44,5.49,0.75,0.36,0.75,
1.522,0.74,-1.44,5.49,0.77,0.33,0.76,
1.524,1.19,-1.28,3.91,0.77,0.33,0.76,
1.524,1.19,-1.28,3.91,0.80,0.29,0.76,
1.527,1.19,-1.28,3.91,0.82,0.21,0.76,
1.528,1.19,-1.28,3.91,0.83,0.19,0.75,
1.531,1.19,-1.28,3.91,0.84,0.14,0.75,
1.532,1.19,-1.28,3.91,0.85,0.09,0.74,
1.534,1.46,-1.11,2.70,0.85,0.09,0.74,
1.535,1.46,-1.11,2.70,0.86,0.03,0.73,
1.537,1.46,-1.11,2.70,0.86,-0.05,0.72,
1.538,1.46,-1.11,2.70,0.86,-0.07,0.71,
1.54,1.46,-1.11,2.70,0.86,-0.12,0.70,
1.543,1.46,-1.11,2.70,0.87,-0.16,0.69,
1.545,1.72,-1.07,1.94,0.87,-0.16,0.69,
1.545,1.72,-1.07,1.94,0.86,-0.19,0.68,
1.547,1.72,-1.07,1.94,0.86,-0.23,0.65,
1.548,1.72,-1.07,1.94,0.86,-0.24,0.65,
1.55,1.72,-1.07,1.94,0.85,-0.26,0.63,
1.552,1.72,-1.07,1.94,0.85,-0.27,0.62,
1.555,1.84,-1.18,1.46,0.85,-0.27,0.62,
1.555,1.84,-1.18,1.46,0.85,-0.27,0.61,
1.558,1.84,-1.18,1.46,0.84,-0.27,0.60,
1.563,1.84,-1.18,1.46,0.83,-0.27,0.59,
1.564,1.84,-1.18,1.46,0.82,-0.26,0.58,
1.564,1.84,-1.18,1.46,0.81,-0.26,0.58,
1.564,1.80,-1.32,0.92,0.81,-0.26,0.58,
1.564,1.80,-1.32,0.92,0.80,-0.25,0.57,
1.569,1.80,-1.32,0.92,0.78,-0.23,0.56,
1.57,1.80,-1.32,0.92,0.77,-0.22,0.56,
1.57,1.80,-1.32,0.92,0.75,-0.21,0.55,
1.574,1.80,-1.32,0.92,0.73,-0.19,0.54,
1.574,1.80,-1.50,0.37,0.73,-0.19,0.54,
1.575,1.80,-1.50,0.37,0.71,-0.18,0.53,
1.583,1.80,-1.50,0.37,0.68,-0.16,0.52,
1.591,1.80,-1.50,0.37,0.67,-0.15,0.51,
1.591,1.80,-1.50,0.37,0.65,-0.13,0.50,
1.591,1.80,-1.50,0.37,0.63,-0.11,0.50,
1.626,1.70,-1.63,-0.04,0.63,-0.11,0.50,
1.627,1.70,-1.63,-0.04,0.61,-0.10,0.48,
1.627,1.70,-1.63,-0.04,0.58,-0.07,0.47,
1.627,1.70,-1.63,-0.04,0.57,-0.06,0.47,
1.628,1.70,-1.63,-0.04,0.55,-0.05,0.46,
1.628,1.70,-1.63,-0.04,0.54,-0.03,0.45,
1.654,1.58,-1.84,-0.15,0.54,-0.03,0.45,
1.655,1.58,-1.84,-0.15,0.52,-0.02,0.44,
1.655,1.58,-1.84,-0.15,0.50,-0.01,0.43,
1.655,1.58,-1.84,-0.15,0.50,-0.01,0.42,
1.655,1.58,-1.84,-0.15,0.49,-0.01,0.41,
1.656,1.58,-1.84,-0.15,0.48,-0.01,0.40,
1.656,1.48,-1.94,-0.11,0.48,-0.01,0.40,
1.656,1.48,-1.94,-0.11,0.47,-0.01,0.39,
1.656,1.48,-1.94,-0.11,0.46,-0.01,0.37,
1.657,1.48,-1.94,-0.11,0.45,-0.01,0.37,
1.657,1.48,-1.94,-0.11,0.45,-0.00,0.36,
1.657,1.48,-1.94,-0.11,0.45,-0.00,0.35,
1.658,1.49,-2.06,0.04,0.45,-0.00,0.35,
1.658,1.49,-2.06,0.04,0.45,-0.00,0.34,
1.658,1.49,-2.06,0.04,0.45,-0.00,0.32,
1.658,1.49,-2.06,0.04,0.45,-0.01,0.31,
1.659,1.49,-2.06,0.04,0.45,-0.01,0.30,
1.659,1.49,-2.06,0.04,0.45,-0.01,0.30,
1.659,1.44,-2.09,0.03,0.45,-0.01,0.30,
1.659,1.44,-2.09,0.03,0.45,-0.02,0.28,
1.66,1.44,-2.09,0.03,0.46,-0.04,0.27,
1.66,1.44,-2.09,0.03,0.46,-0.05,0.26,
1.66,1.44,-2.09,0.03,0.46,-0.06,0.25,
1.661,1.44,-2.09,0.03,0.47,-0.08,0.24,
1.661,1.37,-2.08,-0.09,0.47,-0.08,0.24,
1.661,1.37,-2.08,-0.09,0.47,-0.09,0.23,
1.661,1.37,-2.08,-0.09,0.47,-0.11,0.21,
1.662,1.37,-2.08,-0.09,0.48,-0.12,0.21,
1.662,1.37,-2.08,-0.09,0.48,-0.13,0.20,
1.662,1.37,-2.08,-0.09,0.48,-0.14,0.19,
1.662,1.16,-2.00,-0.38,0.48,-0.14,0.19,
1.663,1.16,-2.00,-0.38,0.48,-0.15,0.18,
1.663,1.16,-2.00,-0.38,0.48,-0.17,0.17,
1.663,1.16,-2.00,-0.38,0.48,-0.17,0.16,
1.663,1.16,-2.00,-0.38,0.48,-0.18,0.15,
1.664,1.16,-2.00,-0.38,0.48,-0.20,0.14,
1.664,1.04,-2.03,-0.76,0.48,-0.20,0.14,
1.664,1.04,-2.03,-0.76,0.48,-0.20,0.14,
1.665,1.04,-2.03,-0.76,0.47,-0.21,0.13,
1.665,1.04,-2.03,-0.76,0.47,-0.22,0.12,
1.665,1.04,-2.03,-0.76,0.46,-0.22,0.12,
1.665,1.04,-2.03,-0.76,0.46,-0.23,0.11,
1.666,0.95,-1.93,-1.15,0.46,-0.23,0.11,
1.666,0.95,-1.93,-1.15,0.45,-0.23,0.10,
1.675,0.95,-1.93,-1.15,0.44,-0.23,0.08,
1.676,0.95,-1.93,-1.15,0.44,-0.23,0.08,
1.676,0.95,-1.93,-1.15,0.42,-0.24,0.07,
1.677,0.95,-1.93,-1.15,0.41,-0.23,0.07,
1.677,0.96,-1.87,-1.53,0.41,-0.23,0.07,
1.678,0.96,-1.87,-1.53,0.40,-0.23,0.05,
1.678,0.96,-1.87,-1.53,0.37,-0.23,0.04,
1.678,0.96,-1.87,-1.53,0.37,-0.23,0.04,
1.68,0.96,-1.87,-1.53,0.35,-0.22,0.03,
1.682,0.96,-1.87,-1.53,0.33,-0.21,0.02,
1.684,0.98,-1.75,-1.93,0.33,-0.21,0.02,
1.684,0.98,-1.75,-1.93,0.31,-0.20,0.01,
1.687,0.98,-1.75,-1.93,0.27,-0.18,0.00,
1.688,0.98,-1.75,-1.93,0.26,-0.18,-0.00,
1.69,0.98,-1.75,-1.93,0.23,-0.16,-0.02,
1.694,0.98,-1.75,-1.93,0.21,-0.14,-0.03,
1.695,1.07,-1.63,-2.24,0.21,-0.14,-0.03,
1.695,1.07,-1.63,-2.24,0.18,-0.13,-0.04,
1.701,1.07,-1.63,-2.24,0.14,-0.10,-0.06,
1.701,1.07,-1.63,-2.24,0.13,-0.09,-0.06,
1.702,1.07,-1.63,-2.24,0.10,-0.07,-0.08,
1.702,1.07,-1.63,-2.24,0.08,-0.05,-0.09,
1.706,1.07,-1.51,-2.36,0.08,-0.05,-0.09,
1.707,1.07,-1.51,-2.36,0.05,-0.04,-0.10,
1.707,1.07,-1.51,-2.36,0.02,-0.01,-0.12,
1.711,1.07,-1.51,-2.36,0.00,-0.00,-0.12,
1.711,1.07,-1.51,-2.36,-0.02,0.02,-0.14,
1.721,1.07,-1.51,-2.36,-0.04,0.03,-0.14,
1.722,0.94,-1.49,-2.18,-0.04,0.03,-0.14,
1.722,0.94,-1.49,-2.18,-0.06,0.05,-0.15,
1.723,0.94,-1.49,-2.18,-0.09,0.08,-0.16,
1.723,0.94,-1.49,-2.18,-0.09,0.10,-0.16,
1.723,0.94,-1.49,-2.18,-0.11,0.12,-0.17,
1.725,0.94,-1.49,-2.18,-0.12,0.14,-0.17,
1.769,0.64,-1.40,-1.91,-0.12,0.14,-0.17,
1.77,0.64,-1.40,-1.91,-0.13,0.16,-0.18,
1.77,0.64,-1.40,-1.91,-0.14,0.18,-0.18,
1.771,0.64,-1.40,-1.91,-0.14,0.19,-0.18,
1.771,0.64,-1.40,-1.91,-0.15,0.21,-0.18,
1.771,0.64,-1.40,-1.91,-0.16,0.22,-0.18,
1.771,0.42,-1.35,-1.72,-0.16,0.22,-0.18,
1.771,0.42,-1.35,-1.72,-0.16,0.23,-0.18,
1.771,0.42,-1.35,-1.72,-0.17,0.24,-0.18,
1.771,0.42,-1.35,-1.72,-0.17,0.24,-0.18,
1.772,0.42,-1.35,-1.72,-0.17,0.24,-0.18,
1.772,0.42,-1.35,-1.72,-0.17,0.24,-0.18,
1.772,0.33,-1.25,-1.66,-0.17,0.24,-0.18,
1.772,0.33,-1.25,-1.66,-0.17,0.24,-0.18,
1.772,0.33,-1.25,-1.66,-0.18,0.23,-0.18,
1.772,0.33,-1.25,-1.66,-0.18,0.23,-0.18,
1.772,0.33,-1.25,-1.66,-0.18,0.23,-0.18,
1.773,0.33,-1.25,-1.66,-0.18,0.22,-0.18,
1.773,0.28,-1.12,-1.63,-0.18,0.22,-0.18,
1.773,0.28,-1.12,-1.63,-0.18,0.21,-0.19,
1.773,0.28,-1.12,-1.63,-0.18,0.20,-0.19,
1.773,0.28,-1.12,-1.63,-0.18,0.19,-0.19,
1.79,0.28,-1.12,-1.63,-0.18,0.18,-0.20,
1.79,0.28,-1.12,-1.63,-0.18,0.17,-0.20,
1.79,0.34,-0.99,-1.58,-0.18,0.17,-0.20,
1.79,0.34,-0.99,-1.58,-0.18,0.16,-0.21,
1.791,0.34,-0.99,-1.58,-0.18,0.13,-0.22,
1.791,0.34,-0.99,-1.58,-0.18,0.13,-0.22,
1.791,0.34,-0.99,-1.58,-0.18,0.11,-0.23,
1.791,0.34,-0.99,-1.58,-0.18,0.10,-0.24,
1.791,0.52,-0.95,-1.46,-0.18,0.10,-0.24,
1.792,0.52,-0.95,-1.46,-0.18,0.08,-0.24,
1.792,0.52,-0.95,-1.46,-0.17,0.06,-0.25,
1.792,0.52,-0.95,-1.46,-0.17,0.06,-0.25,
1.792,0.52,-0.95,-1.46,-0.16,0.05,-0.26,
1.792,0.52,-0.95,-1.46,-0.16,0.04,-0.26,
1.793,0.53,-0.91,-1.28,-0.16,0.04,-0.26,
1.793,0.53,-0.91,-1.28,-0.15,0.03,-0.26,
1.793,0.53,-0.91,-1.28,-0.14,0.01,-0.26,
1.793,0.53,-0.91,-1.28,-0.13,0.01,-0.26,
1.793,0.53,-0.91,-1.28,-0.12,0.00,-0.26,
1.8,0.53,-0.91,-1.28,-0.11,0.00,-0.26,
1.8,0.53,-0.91,-1.28,-0.09,0.00,-0.26,
1.8,0.55,-0.90,-1.11,-0.09,0.00,-0.26,
1.8,0.55,-0.90,-1.11,-0.07,0.00,-0.25,
1.801,0.55,-0.90,-1.11,-0.07,0.00,-0.25,
1.801,0.55,-0.90,-1.11,-0.06,0.01,-0.25,
1.803,0.55,-0.90,-1.11,-0.04,0.01,-0.24,
1.804,0.41,-0.86,-1.07,-0.04,0.01,-0.24,
1.804,0.41,-0.86,-1.07,-0.03,0.01,-0.24,
1.807,0.41,-0.86,-1.07,-0.02,0.02,-0.23,
1.809,0.41,-0.86,-1.07,-0.01,0.03,-0.23,
1.81,0.41,-0.86,-1.07,-0.00,0.04,-0.22,
1.812,0.41,-0.86,-1.07,0.01,0.05,-0.22,
1.814,0.48,-0.81,-1.17,0.01,0.05,-0.22,
1.815,0.48,-0.81,-1.17,0.02,0.06,-0.22,
1.817,0.48,-0.81,-1.17,0.03,0.07,-0.21,
1.819,0.48,-0.81,-1.17,0.03,0.08,-0.20,
1.82,0.48,-0.81,-1.17,0.04,0.09,-0.20,
1.822,0.48,-0.81,-1.17,0.05,0.10,-0.19,
1.825,0.47,-0.72,-1.39,0.05,0.10,-0.19,
1.826,0.47,-0.72,-1.39,0.05,0.11,-0.19,
1.831,0.47,-0.72,-1.39,0.06,0.12,-0.18,
1.832,0.47,-0.72,-1.39,0.06,0.13,-0.17,
1.835,0.47,-0.72,-1.39,0.06,0.14,-0.16,
1.838,0.47,-0.72,-1.39,0.07,0.15,-0.16,
1.839,0.51,-0.63,-1.64,0.07,0.15,-0.16,
1.839,0.51,-0.63,-1.64,0.07,0.15,-0.15,
1.839,0.51,-0.63,-1.64,0.07,0.16,-0.14,
1.839,0.51,-0.63,-1.64,0.07,0.16,-0.13,
1.84,0.51,-0.63,-1.64,0.07,0.16,-0.13,
1.842,0.51,-0.63,-1.64,0.07,0.17,-0.12,
1.845,0.55,-0.44,-1.87,0.07,0.17,-0.12,
1.845,0.55,-0.44,-1.87,0.07,0.17,-0.12,
1.847,0.55,-0.44,-1.87,0.06,0.17,-0.11,
1.848,0.55,-0.44,-1.87,0.06,0.18,-0.11,
1.85,0.55,-0.44,-1.87,0.06,0.18,-0.11,
1.852,0.55,-0.44,-1.87,0.05,0.18,-0.11,
1.854,0.80,-0.26,-2.00,0.05,0.18,-0.11,
1.855,0.80,-0.26,-2.00,0.05,0.19,-0.11,
1.857,0.80,-0.26,-2.00,0.04,0.19,-0.11,
1.86,0.80,-0.26,-2.00,0.04,0.20,-0.12,
1.861,0.80,-0.26,-2.00,0.04,0.20,-0.12,
1.862,0.80,-0.26,-2.00,0.03,0.20,-0.13,
1.865,0.92,-0.17,-2.05,0.03,0.20,-0.13,
1.865,0.92,-0.17,-2.05,0.03,0.20,-0.13,
1.867,0.92,-0.17,-2.05,0.03,0.20,-0.14,
1.869,0.92,-0.17,-2.05,0.03,0.20,-0.14,
1.87,0.92,-0.17,-2.05,0.03,0.20,-0.14,
1.872,0.92,-0.17,-2.05,0.03,0.20,-0.15,
1.882,1.09,-0.00,-1.97,0.03,0.20,-0.15,
1.882,1.09,-0.00,-1.97,0.03,0.20,-0.16,
1.882,1.09,-0.00,-1.97,0.04,0.20,-0.16,
1.882,1.09,-0.00,-1.97,0.04,0.20,-0.16,
1.882,1.09,-0.00,-1.97,0.04,0.20,-0.17,
1.883,1.09,-0.00,-1.97,0.04,0.20,-0.17,
1.884,1.10,0.07,-1.98,0.04,0.20,-0.17,
1.884,1.10,0.07,-1.98,0.05,0.19,-0.18,
1.889,1.10,0.07,-1.98,0.05,0.19,-0.18,
1.889,1.10,0.07,-1.98,0.05,0.18,-0.19,
1.892,1.10,0.07,-1.98,0.05,0.18,-0.19,
1.895,1.10,0.07,-1.98,0.06,0.18,-0.19,
1.896,1.09,0.11,-1.97,0.06,0.18,-0.19,
1.896,1.09,0.11,-1.97,0.06,0.17,-0.19,
1.897,1.09,0.11,-1.97,0.06,0.16,-0.19,
1.898,1.09,0.11,-1.97,0.06,0.16,-0.19,
1.9,1.09,0.11,-1.97,0.07,0.16,-0.19,
1.902,1.09,0.11,-1.97,0.07,0.15,-0.19,
1.904,0.97,0.14,-1.92,0.07,0.15,-0.19,
1.904,0.97,0.14,-1.92,0.07,0.15,-0.19,
1.907,0.97,0.14,-1.92,0.08,0.14,-0.18,
1.908,0.97,0.14,-1.92,0.08,0.14,-0.18,
1.91,0.97,0.14,-1.92,0.08,0.14,-0.18,
1.912,0.97,0.14,-1.92,0.08,0.13,-0.17,
1.914,0.91,0.18,-1.81,0.08,0.13,-0.17,
1.914,0.91,0.18,-1.81,0.09,0.12,-0.16,
1.917,0.91,0.18,-1.81,0.09,0.12,-0.15,
1.918,0.91,0.18,-1.81,0.10,0.11,-0.14,
1.92,0.91,0.18,-1.81,0.10,0.11,-0.14,
1.922,0.91,0.18,-1.81,0.11,0.10,-0.13,
1.925,0.64,0.23,-1.60,0.11,0.10,-0.13,
1.925,0.64,0.23,-1.60,0.11,0.10,-0.11,
1.944,0.64,0.23,-1.60,0.13,0.08,-0.09,
1.944,0.64,0.23,-1.60,0.14,0.07,-0.08,
1.945,0.64,0.23,-1.60,0.14,0.07,-0.07,
1.945,0.64,0.23,-1.60,0.15,0.07,-0.05,
1.945,0.44,0.29,-1.22,0.15,0.07,-0.05,
1.946,0.44,0.29,-1.22,0.16,0.06,-0.03,
1.946,0.44,0.29,-1.22,0.19,0.06,-0.00,
1.947,0.44,0.29,-1.22,0.20,0.06,0.02,
1.947,0.44,0.29,-1.22,0.21,0.06,0.02,
1.947,0.44,0.29,-1.22,0.22,0.06,0.04,
1.948,0.41,0.37,-0.75,0.22,0.06,0.04,
1.948,0.41,0.37,-0.75,0.24,0.06,0.06,
1.949,0.41,0.37,-0.75,0.27,0.06,0.07,
1.949,0.41,0.37,-0.75,0.29,0.05,0.08,
1.956,0.41,0.37,-0.75,0.30,0.05,0.08,
1.956,0.41,0.37,-0.75,0.32,0.04,0.09,
1.956,0.77,0.55,-0.30,0.32,0.04,0.09,
1.957,0.77,0.55,-0.30,0.34,0.02,0.09,
1.959,0.77,0.55,-0.30,0.38,-0.01,0.08,
1.959,0.77,0.55,-0.30,0.40,-0.05,0.08,
1.96,0.77,0.55,-0.30,0.42,-0.07,0.07,
1.962,0.77,0.55,-0.30,0.45,-0.12,0.06,
1.965,0.97,0.68,0.29,0.45,-0.12,0.06,
1.965,0.97,0.68,0.29,0.48,-0.18,0.05,
1.968,0.97,0.68,0.29,0.56,-0.32,0.03,
1.969,0.97,0.68,0.29,0.61,-0.40,0.02,
1.97,0.97,0.68,0.29,0.63,-0.45,0.01,
1.972,0.97,0.68,0.29,0.66,-0.49,0.00,
1.975,1.03,0.83,1.30,0.66,-0.49,0.00,
1.975,1.03,0.83,1.30,0.72,-0.60,-0.01,
1.978,1.03,0.83,1.30,0.81,-0.76,-0.03,
1.978,1.03,0.83,1.30,0.88,-0.88,-0.05,
1.98,1.03,0.83,1.30,0.92,-0.94,-0.05,
1.982,1.03,0.83,1.30,1.00,-1.07,-0.06,
1.984,0.54,0.93,2.59,1.00,-1.07,-0.06,
1.984,0.54,0.93,2.59,1.08,-1.20,-0.06,
1.987,0.54,0.93,2.59,1.21,-1.39,-0.07,
1.988,0.54,0.93,2.59,1.29,-1.52,-0.07,
1.99,0.54,0.93,2.59,1.33,-1.58,-0.06,
1.995,0.54,0.93,2.59,1.42,-1.71,-0.06,
1.996,-0.11,0.98,3.67,1.42,-1.71,-0.06,
1.996,-0.11,0.98,3.67,1.51,-1.83,-0.05,
1.997,-0.11,0.98,3.67,1.63,-1.98,-0.04,
2.006,-0.11,0.98,3.67,1.71,-2.07,-0.02,
2.006,-0.11,0.98,3.67,1.74,-2.11,-0.02,
2.006,-0.11,0.98,3.67,1.82,-2.18,-0.00,
2.006,-0.64,1.13,4.08,1.82,-2.18,-0.00,
2.007,-0.64,1.13,4.08,1.88,-2.23,0.02,
2.007,-0.64,1.13,4.08,1.97,-2.27,0.05,
2.019,-0.64,1.13,4.08,2.02,-2.28,0.08,
2.02,-0.64,1.13,4.08,2.04,-2.27,0.09,
2.02,-0.64,1.13,4.08,2.08,-2.26,0.12,
2.02,-0.94,1.31,3.76,2.08,-2.26,0.12,
2.02,-0.94,1.31,3.76,2.11,-2.22,0.15,
2.021,-0.94,1.31,3.76,2.13,-2.14,0.21,
2.021,-0.94,1.31,3.76,2.13,-2.07,0.25,
2.021,-0.94,1.31,3.76,2.13,-2.03,0.27,
2.022,-0.94,1.31,3.76,2.11,-1.94,0.31,
2.034,-0.98,1.60,2.74,2.11,-1.94,0.31,
2.034,-0.98,1.60,2.74,2.08,-1.83,0.36,
2.034,-0.98,1.60,2.74,2.02,-1.65,0.43,
2.034,-0.98,1.60,2.74,1.96,-1.51,0.47,
2.035,-0.98,1.60,2.74,1.93,-1.44,0.50,
2.035,-0.98,1.60,2.74,1.85,-1.29,0.53,
2.035,-0.60,2.07,1.44,1.85,-1.29,0.53,
2.035,-0.60,2.07,1.44,1.77,-1.13,0.58,
2.037,-0.60,2.07,1.44,1.63,-0.88,0.63,
2.039,-0.60,2.07,1.44,1.53,-0.72,0.66,
2.04,-0.60,2.07,1.44,1.47,-0.63,0.68,
2.045,-0.60,2.07,1.44,1.36,-0.47,0.70,
2.047,0.20,2.54,0.34,1.36,-0.47,0.70,
2.047,0.20,2.54,0.34,1.24,-0.31,0.73,
2.047,0.20,2.54,0.34,1.06,-0.07,0.76,
2.048,0.20,2.54,0.34,0.95,0.08,0.77,
2.05,0.20,2.54,0.34,0.89,0.15,0.78,
2.052,0.20,2.54,0.34,0.77,0.29,0.79,
2.055,0.92,3.09,0.10,0.77,0.29,0.79,
2.055,0.92,3.09,0.10,0.66,0.42,0.80,
2.058,0.92,3.09,0.10,0.50,0.60,0.81,
2.059,0.92,3.09,0.10,0.41,0.71,0.82,
2.061,0.92,3.09,0.10,0.37,0.76,0.82,
2.063,0.92,3.09,0.10,0.28,0.86,0.82,
2.065,1.38,3.42,0.93,0.28,0.86,0.82,
2.065,1.38,3.42,0.93,0.21,0.95,0.82,
2.068,1.38,3.42,0.93,0.11,1.07,0.82,
2.068,1.38,3.42,0.93,0.08,1.10,0.81,
2.07,1.38,3.42,0.93,0.03,1.16,0.81,
2.072,1.38,3.42,0.93,-0.02,1.20,0.81,
2.075,1.63,3.60,1.91,-0.02,1.20,0.81,
2.076,1.63,3.60,1.91,-0.06,1.23,0.80,
2.077,1.63,3.60,1.91,-0.12,1.25,0.80,
2.079,1.63,3.60,1.91,-0.16,1.24,0.79,
2.081,1.63,3.60,1.91,-0.17,1.24,0.79,
2.082,1.63,3.60,1.91,-0.21,1.21,0.78,
2.085,1.57,3.65,2.51,-0.21,1.21,0.78,
2.085,1.57,3.65,2.51,-0.24,1.18,0.78,
2.087,1.57,3.65,2.51,-0.29,1.10,0.76,
2.089,1.57,3.65,2.51,-0.32,1.05,0.75,
2.092,1.57,3.65,2.51,-0.33,1.02,0.75,
2.092,1.57,3.65,2.51,-0.36,0.95,0.74,
2.118,1.63,3.63,2.82,-0.36,0.95,0.74,
2.118,1.63,3.63,2.82,-0.39,0.87,0.73,
2.118,1.63,3.63,2.82,-0.44,0.76,0.71,
2.119,1.63,3.63,2.82,-0.47,0.67,0.70,
2.119,1.63,3.63,2.82,-0.49,0.63,0.69,
2.119,1.63,3.63,2.82,-0.52,0.54,0.68,
2.119,1.62,3.33,3.05,-0.52,0.54,0.68,
2.12,1.62,3.33,3.05,-0.56,0.45,0.67,
2.12,1.62,3.33,3.05,-0.62,0.33,0.67,
2.12,1.62,3.33,3.05,-0.67,0.24,0.66,
2.12,1.62,3.33,3.05,-0.69,0.20,0.66,
2.121,1.62,3.33,3.05,-0.74,0.13,0.65,
2.121,1.68,2.77,3.25,-0.74,0.13,0.65,
2.121,1.68,2.77,3.25,-0.78,0.06,0.65,
2.122,1.68,2.77,3.25,-0.85,-0.03,0.65,
2.122,1.68,2.77,3.25,-0.90,-0.07,0.65,
2.122,1.68,2.77,3.25,-0.92,-0.10,0.65,
2.122,1.68,2.77,3.25,-0.96,-0.14,0.65,
2.126,1.94,1.92,3.74,-0.96,-0.14,0.65,
2.126,1.94,1.92,3.74,-1.00,-0.17,0.66,
2.128,1.94,1.92,3.74,-1.06,-0.22,0.67,
2.132,1.94,1.92,3.74,-1.10,-0.24,0.69,
2.132,1.94,1.92,3.74,-1.11,-0.25,0.69,
2.132,1.94,1.92,3.74,-1.14,-0.26,0.70,
2.135,2.21,1.05,4.45,-1.14,-0.26,0.70,
2.136,2.21,1.05,4.45,-1.17,-0.27,0.72,
2.137,2.21,1.05,4.45,-1.19,-0.27,0.74,
2.138,2.21,1.05,4.45,-1.21,-0.26,0.76,
2.141,2.21,1.05,4.45,-1.21,-0.26,0.77,
2.144,2.21,1.05,4.45,-1.22,-0.25,0.78,
2.146,2.46,0.31,5.17,-1.22,-0.25,0.78,
2.147,2.46,0.31,5.17,-1.22,-0.23,0.79,
2.147,2.46,0.31,5.17,-1.22,-0.21,0.80,
2.148,2.46,0.31,5.17,-1.21,-0.19,0.81,
2.151,2.46,0.31,5.17,-1.21,-0.18,0.81,
2.152,2.46,0.31,5.17,-1.20,-0.16,0.80,
2.154,3.23,-0.23,5.58,-1.20,-0.16,0.80,
2.155,3.23,-0.23,5.58,-1.20,-0.15,0.79,
2.163,3.23,-0.23,5.58,-1.18,-0.12,0.77,
2.164,3.23,-0.23,5.58,-1.16,-0.10,0.76,
2.164,3.23,-0.23,5.58,-1.16,-0.09,0.75,
2.164,3.23,-0.23,5.58,-1.14,-0.07,0.73,
2.164,3.87,-0.54,5.45,-1.14,-0.07,0.73,
2.164,3.87,-0.54,5.45,-1.12,-0.05,0.70,
2.167,3.87,-0.54,5.45,-1.08,-0.02,0.67,
2.197,3.87,-0.54,5.45,-1.05,0.01,0.65,
2.198,3.87,-0.54,5.45,-1.03,0.02,0.64,
2.198,3.87,-0.54,5.45,-1.00,0.05,0.62,
2.198,4.13,-0.82,5.16,-1.00,0.05,0.62,
2.199,4.13,-0.82,5.16,-0.97,0.08,0.60,
2.199,4.13,-0.82,5.16,-0.92,0.13,0.56,
2.199,4.13,-0.82,5.16,-0.89,0.17,0.54,
2.199,4.13,-0.82,5.16,-0.87,0.18,0.52,
2.2,4.13,-0.82,5.16,-0.84,0.22,0.51,
2.2,3.95,-0.97,4.27,-0.84,0.22,0.51,
2.2,3.95,-0.97,4.27,-0.82,0.25,0.48,
2.2,3.95,-0.97,4.27,-0.78,0.30,0.45,
2.201,3.95,-0.97,4.27,-0.76,0.34,0.43,
2.201,3.95,-0.97,4.27,-0.75,0.36,0.41,
2.201,3.95,-0.97,4.27,-0.73,0.39,0.39,
2.201,3.67,-1.23,3.02,-0.73,0.39,0.39,
2.203,3.67,-1.23,3.02,-0.72,0.43,0.37,
2.203,3.67,-1.23,3.02,-0.70,0.47,0.34,
2.203,3.67,-1.23,3.02,-0.68,0.49,0.32,
2.203,3.67,-1.23,3.02,-0.67,0.52,0.30,
2.203,3.67,-1.23,3.02,-0.65,0.53,0.28,
2.206,3.03,-1.48,1.94,-0.65,0.53,0.28,
2.207,3.03,-1.48,1.94,-0.64,0.55,0.26,
2.226,3.03,-1.48,1.94,-0.62,0.57,0.25,
2.226,3.03,-1.48,1.94,-0.60,0.59,0.24,
2.226,3.03,-1.48,1.94,-0.59,0.61,0.23,
2.226,3.03,-1.48,1.94,-0.56,0.63,0.22,
2.227,2.41,-1.67,1.19,-0.56,0.63,0.22,
2.227,2.41,-1.67,1.19,-0.54,0.64,0.21,
2.227,2.41,-1.67,1.19,-0.52,0.66,0.21,
2.227,2.41,-1.67,1.19,-0.50,0.68,0.20,
2.227,2.41,-1.67,1.19,-0.47,0.70,0.20,
2.227,2.41,-1.67,1.19,-0.45,0.72,0.19,
2.228,1.96,-1.71,0.55,-0.45,0.72,0.19,
2.228,1.96,-1.71,0.55,-0.42,0.74,0.19,
2.228,1.96,-1.71,0.55,-0.39,0.75,0.18,
2.24,1.96,-1.71,0.55,-0.37,0.76,0.17,
2.242,1.96,-1.71,0.55,-0.34,0.77,0.16,
2.242,1.96,-1.71,0.55,-0.31,0.78,0.15,
2.243,1.78,-1.83,-0.04,-0.31,0.78,0.15,
2.244,1.78,-1.83,-0.04,-0.29,0.79,0.14,
2.246,1.78,-1.83,-0.04,-0.26,0.79,0.13,
2.246,1.78,-1.83,-0.04,-0.23,0.79,0.12,
2.247,1.78,-1.83,-0.04,-0.20,0.78,0.11,
2.247,1.78,-1.83,-0.04,-0.17,0.77,0.10,
2.259,1.51,-1.69,-0.59,-0.17,0.77,0.10,
2.259,1.51,-1.69,-0.59,-0.14,0.76,0.08,
2.259,1.51,-1.69,-0.59,-0.11,0.73,0.07,
2.259,1.51,-1.69,-0.59,-0.08,0.71,0.05,
2.259,1.51,-1.69,-0.59,-0.06,0.68,0.04,
2.26,1.51,-1.69,-0.59,-0.03,0.63,0.02,
2.26,1.30,-1.48,-1.12,-0.03,0.63,0.02,
2.26,1.30,-1.48,-1.12,-0.01,0.59,0.00,
2.26,1.30,-1.48,-1.12,0.01,0.55,-0.02,
2.26,1.30,-1.48,-1.12,0.03,0.51,-0.03,
2.279,1.30,-1.48,-1.12,0.04,0.46,-0.05,
2.279,1.30,-1.48,-1.12,0.06,0.42,-0.07,
2.28,1.01,-1.26,-1.62,0.06,0.42,-0.07,
2.28,1.01,-1.26,-1.62,0.07,0.37,-0.08,
2.28,1.01,-1.26,-1.62,0.09,0.32,-0.10,
2.281,1.01,-1.26,-1.62,0.10,0.27,-0.12,
2.281,1.01,-1.26,-1.62,0.11,0.23,-0.13,
2.281,1.01,-1.26,-1.62,0.12,0.18,-0.15,
2.281,0.75,-1.08,-2.03,0.12,0.18,-0.15,
2.282,0.75,-1.08,-2.03,0.13,0.13,-0.16,
2.282,0.75,-1.08,-2.03,0.14,0.08,-0.17,
2.282,0.75,-1.08,-2.03,0.14,0.03,-0.19,
2.282,0.75,-1.08,-2.03,0.15,-0.02,-0.20,
2.283,0.75,-1.08,-2.03,0.15,-0.07,-0.21,
2.289,0.46,-0.97,-2.38,0.15,-0.07,-0.21,
2.289,0.46,-0.97,-2.38,0.15,-0.12,-0.22,
2.29,0.46,-0.97,-2.38,0.16,-0.17,-0.23,
2.304,0.46,-0.97,-2.38,0.16,-0.27,-0.24,
2.305,0.46,-0.97,-2.38,0.16,-0.27,-0.24,
2.305,0.46,-0.97,-2.38,0.16,-0.33,-0.25,
2.305,0.29,-0.89,-2.55,0.16,-0.33,-0.25,
2.305,0.29,-0.89,-2.55,0.15,-0.38,-0.25,
2.306,0.29,-0.89,-2.55,0.15,-0.43,-0.26,
2.306,0.29,-0.89,-2.55,0.15,-0.48,-0.27,
2.306,0.29,-0.89,-2.55,0.15,-0.53,-0.28,
2.306,0.29,-0.89,-2.55,0.15,-0.58,-0.29,
2.307,0.29,-0.81,-2.51,0.15,-0.58,-0.29,
2.307,0.29,-0.81,-2.51,0.14,-0.62,-0.29,
2.308,0.29,-0.81,-2.51,0.14,-0.66,-0.29,
2.31,0.29,-0.81,-2.51,0.14,-0.71,-0.30,
2.328,0.29,-0.81,-2.51,0.14,-0.74,-0.31,
2.329,0.29,-0.81,-2.51,0.12,-0.78,-0.32,
2.329,0.44,-0.79,-2.29,0.12,-0.78,-0.32,
2.329,0.44,-0.79,-2.29,0.13,-0.81,-0.33,
2.329,0.44,-0.79,-2.29,0.12,-0.85,-0.35,
2.33,0.44,-0.79,-2.29,0.12,-0.88,-0.36,
2.33,0.44,-0.79,-2.29,0.11,-0.89,-0.37,
2.33,0.44,-0.79,-2.29,0.11,-0.90,-0.37,
2.33,0.54,-0.84,-1.89,0.11,-0.90,-0.37,
2.331,0.54,-0.84,-1.89,0.11,-0.91,-0.38,
2.331,0.54,-0.84,-1.89,0.10,-0.91,-0.38,
2.331,0.54,-0.84,-1.89,0.10,-0.91,-0.39,
2.331,0.54,-0.84,-1.89,0.10,-0.90,-0.39,
2.336,0.54,-0.84,-1.89,0.09,-0.89,-0.39,
2.336,0.49,-0.80,-1.64,0.09,-0.89,-0.39,
2.336,0.49,-0.80,-1.64,0.08,-0.88,-0.39,
2.337,0.49,-0.80,-1.64,0.07,-0.86,-0.39,
2.338,0.49,-0.80,-1.64,0.06,-0.83,-0.39,
2.356,0.49,-0.80,-1.64,0.05,-0.81,-0.39,
2.357,0.49,-0.80,-1.64,0.04,-0.78,-0.39,
2.357,0.52,-0.72,-1.60,0.04,-0.78,-0.39,
2.357,0.52,-0.72,-1.60,0.03,-0.75,-0.39,
2.358,0.52,-0.72,-1.60,0.01,-0.72,-0.39,
2.359,0.52,-0.72,-1.60,-0.00,-0.68,-0.39,
2.359,0.52,-0.72,-1.60,-0.02,-0.65,-0.40,
2.359,0.52,-0.72,-1.60,-0.03,-0.62,-0.40,
2.359,0.75,-0.56,-1.57,-0.03,-0.62,-0.40,
2.359,0.75,-0.56,-1.57,-0.05,-0.58,-0.41,
2.36,0.75,-0.56,-1.57,-0.06,-0.55,-0.42,
2.36,0.75,-0.56,-1.57,-0.08,-0.52,-0.43,
2.36,0.75,-0.56,-1.57,-0.10,-0.49,-0.44,
2.369,0.75,-0.56,-1.57,-0.11,-0.45,-0.46,
2.37,0.97,-0.39,-1.38,-0.11,-0.45,-0.46,
2.37,0.97,-0.39,-1.38,-0.12,-0.42,-0.47,
2.37,0.97,-0.39,-1.38,-0.13,-0.39,-0.48,
2.37,0.97,-0.39,-1.38,-0.14,-0.35,-0.50,
2.371,0.97,-0.39,-1.38,-0.15,-0.32,-0.52,
2.384,0.97,-0.39,-1.38,-0.16,-0.28,-0.53,
2.385,1.22,-0.28,-1.13,-0.16,-0.28,-0.53,
2.385,1.22,-0.28,-1.13,-0.17,-0.25,-0.55,
2.386,1.22,-0.28,-1.13,-0.18,-0.21,-0.56,
2.386,1.22,-0.28,-1.13,-0.18,-0.18,-0.58,
2.386,1.22,-0.28,-1.13,-0.19,-0.15,-0.59,
2.387,1.22,-0.28,-1.13,-0.20,-0.13,-0.60,
2.387,1.10,-0.17,-1.06,-0.20,-0.13,-0.60,
2.388,1.10,-0.17,-1.06,-0.21,-0.10,-0.62,
2.388,1.10,-0.17,-1.06,-0.21,-0.07,-0.63,
2.388,1.10,-0.17,-1.06,-0.22,-0.05,-0.64,
2.392,1.10,-0.17,-1.06,-0.23,-0.03,-0.65,
2.393,1.10,-0.17,-1.06,-0.24,-0.01,-0.66,
2.4,1.03,-0.10,-1.14,-0.24,-0.01,-0.66,
2.401,1.03,-0.10,-1.14,-0.25,0.02,-0.67,
2.401,1.03,-0.10,-1.14,-0.26,0.04,-0.68,
2.401,1.03,-0.10,-1.14,-0.27,0.05,-0.69,
2.402,1.03,-0.10,-1.14,-0.29,0.07,-0.70,
2.402,1.03,-0.10,-1.14,-0.29,0.09,-0.71,
2.405,0.69,-0.01,-1.28,-0.29,0.09,-0.71,
2.405,0.69,-0.01,-1.28,-0.31,0.11,-0.71,
2.428,0.69,-0.01,-1.28,-0.32,0.13,-0.72,
2.429,0.69,-0.01,-1.28,-0.33,0.14,-0.72,
2.43,0.69,-0.01,-1.28,-0.34,0.16,-0.72,
2.431,0.69,-0.01,-1.28,-0.35,0.17,-0.72,
2.431,0.37,0.01,-1.37,-0.35,0.17,-0.72,
2.432,0.37,0.01,-1.37,-0.36,0.18,-0.72,
2.432,0.37,0.01,-1.37,-0.37,0.20,-0.71,
2.432,0.37,0.01,-1.37,-0.38,0.21,-0.71,
2.433,0.37,0.01,-1.37,-0.38,0.22,-0.70,
2.433,0.37,0.01,-1.37,-0.39,0.24,-0.70,
2.434,-0.02,-0.01,-1.39,-0.39,0.24,-0.70,
2.434,-0.02,-0.01,-1.39,-0.40,0.25,-0.69,
2.457,-0.02,-0.01,-1.39,-0.41,0.26,-0.68,
2.457,-0.02,-0.01,-1.39,-0.41,0.26,-0.67,
2.457,-0.02,-0.01,-1.39,-0.42,0.27,-0.67,
2.458,-0.02,-0.01,-1.39,-0.42,0.28,-0.65,
2.458,-0.19,0.01,-1.38,-0.42,0.28,-0.65,
2.459,-0.19,0.01,-1.38,-0.43,0.29,-0.65,
2.459,-0.19,0.01,-1.38,-0.43,0.30,-0.63,
2.46,-0.19,0.01,-1.38,-0.43,0.30,-0.63,
2.46,-0.19,0.01,-1.38,-0.44,0.30,-0.62,
2.46,-0.19,0.01,-1.38,-0.44,0.30,-0.61,
2.461,-0.30,0.04,-1.29,-0.44,0.30,-0.61,
2.461,-0.30,0.04,-1.29,-0.44,0.30,-0.61,
2.462,-0.30,0.04,-1.29,-0.44,0.29,-0.60,
2.462,-0.30,0.04,-1.29,-0.44,0.29,-0.60,
2.462,-0.30,0.04,-1.29,-0.44,0.29,-0.59,
2.463,-0.30,0.04,-1.29,-0.44,0.29,-0.59,
2.463,-0.19,0.09,-1.15,-0.44,0.29,-0.59,
2.464,-0.19,0.09,-1.15,-0.43,0.29,-0.58,
2.464,-0.19,0.09,-1.15,-0.43,0.29,-0.58,
2.464,-0.19,0.09,-1.15,-0.43,0.29,-0.57,
2.465,-0.19,0.09,-1.15,-0.43,0.28,-0.57,
2.465,-0.19,0.09,-1.15,-0.43,0.29,-0.56,
2.466,-0.19,0.07,-1.11,-0.43,0.29,-0.56,
2.466,-0.19,0.07,-1.11,-0.43,0.28,-0.56,
2.474,-0.19,0.07,-1.11,-0.43,0.28,-0.55,
2.474,-0.19,0.07,-1.11,-0.43,0.28,-0.55,
2.475,-0.19,0.07,-1.11,-0.43,0.28,-0.54,
2.475,-0.19,0.07,-1.11,-0.43,0.28,-0.53,
2.475,-0.12,0.04,-1.09,-0.43,0.28,-0.53,
2.475,-0.12,0.04,-1.09,-0.43,0.28,-0.53,
2.479,-0.12,0.04,-1.09,-0.42,0.27,-0.52,
2.479,-0.12,0.04,-1.09,-0.42,0.27,-0.52,
2.48,-0.12,0.04,-1.09,-0.42,0.26,-0.51,
2.482,-0.12,0.04,-1.09,-0.41,0.26,-0.51,
2.484,-0.05,0.02,-0.97,-0.41,0.26,-0.51,
2.484,-0.05,0.02,-0.97,-0.41,0.25,-0.50,
2.487,-0.05,0.02,-0.97,-0.40,0.24,-0.49,
2.488,-0.05,0.02,-0.97,-0.39,0.24,-0.49,
2.49,-0.05,0.02,-0.97,-0.38,0.23,-0.49,
2.492,-0.05,0.02,-0.97,-0.37,0.22,-0.49,
2.495,0.09,-0.03,-0.82,-0.37,0.22,-0.49,
2.495,0.09,-0.03,-0.82,-0.36,0.21,-0.49,
2.497,0.09,-0.03,-0.82,-0.35,0.20,-0.48,
2.498,0.09,-0.03,-0.82,-0.34,0.20,-0.48,
2.5,0.09,-0.03,-0.82,-0.33,0.19,-0.48,
2.502,0.09,-0.03,-0.82,-0.32,0.18,-0.48,
2.504,0.12,-0.03,-0.78,-0.32,0.18,-0.48,
2.505,0.12,-0.03,-0.78,-0.31,0.18,-0.48,
2.508,0.12,-0.03,-0.78,-0.29,0.17,-0.47,
2.508,0.12,-0.03,-0.78,-0.29,0.16,-0.47,
2.511,0.12,-0.03,-0.78,-0.28,0.15,-0.47,
2.512,0.12,-0.03,-0.78,-0.27,0.15,-0.47,
2.514,0.22,-0.04,-0.77,-0.27,0.15,-0.47,
2.514,0.22,-0.04,-0.77,-0.26,0.14,-0.47,
2.517,0.22,-0.04,-0.77,-0.24,0.12,-0.47,
2.518,0.22,-0.04,-0.77,-0.24,0.11,-0.48,
2.52,0.22,-0.04,-0.77,-0.23,0.10,-0.47,
2.524,0.22,-0.04,-0.77,-0.22,0.08,-0.47,
2.525,0.27,-0.09,-0.67,-0.22,0.08,-0.47,
2.525,0.27,-0.09,-0.67,-0.22,0.07,-0.47,
2.527,0.27,-0.09,-0.67,-0.21,0.05,-0.47,
2.528,0.27,-0.09,-0.67,-0.20,0.05,-0.47,
2.53,0.27,-0.09,-0.67,-0.19,0.04,-0.47,
2.532,0.27,-0.09,-0.67,-0.18,0.03,-0.47,
2.534,0.33,-0.17,-0.44,-0.18,0.03,-0.47,
2.534,0.33,-0.17,-0.44,-0.17,0.02,-0.46,
2.537,0.33,-0.17,-0.44,-0.15,0.03,-0.45,
2.538,0.33,-0.17,-0.44,-0.14,0.03,-0.45,
2.542,0.33,-0.17,-0.44,-0.13,0.03,-0.44,
2.543,0.33,-0.17,-0.44,-0.11,0.04,-0.43,
2.545,0.28,-0.27,-0.12,-0.11,0.04,-0.43,
2.545,0.28,-0.27,-0.12,-0.09,0.05,-0.42,
2.547,0.28,-0.27,-0.12,-0.07,0.06,-0.39,
2.548,0.28,-0.27,-0.12,-0.06,0.06,-0.39,
2.55,0.28,-0.27,-0.12,-0.04,0.07,-0.37,
2.552,0.28,-0.27,-0.12,-0.03,0.07,-0.36,
2.554,0.24,-0.29,0.09,-0.03,0.07,-0.36,
2.555,0.24,-0.29,0.09,-0.01,0.08,-0.34,
2.57,0.24,-0.29,0.09,0.02,0.09,-0.32,
2.57,0.24,-0.29,0.09,0.03,0.10,-0.31,
2.57,0.24,-0.29,0.09,0.04,0.10,-0.29,
2.571,0.24,-0.29,0.09,0.06,0.12,-0.28,
2.571,0.28,-0.24,0.10,0.06,0.12,-0.28,
2.571,0.28,-0.24,0.10,0.08,0.12,-0.26,
2.571,0.28,-0.24,0.10,0.10,0.14,-0.24,
2.571,0.28,-0.24,0.10,0.11,0.15,-0.24,
2.572,0.28,-0.24,0.10,0.13,0.16,-0.23,
2.6,0.28,-0.24,0.10,0.14,0.17,-0.22,
2.601,0.51,-0.15,-0.06,0.14,0.17,-0.22,
2.601,0.51,-0.15,-0.06,0.16,0.18,-0.21,
2.601,0.51,-0.15,-0.06,0.17,0.20,-0.19,
2.601,0.51,-0.15,-0.06,0.18,0.20,-0.19,
2.601,0.51,-0.15,-0.06,0.19,0.20,-0.19,
2.601,0.51,-0.15,-0.06,0.20,0.21,-0.18,
2.602,0.79,-0.03,-0.35,0.20,0.21,-0.18,
2.602,0.79,-0.03,-0.35,0.21,0.21,-0.18,
2.602,0.79,-0.03,-0.35,0.23,0.21,-0.18,
2.602,0.79,-0.03,-0.35,0.23,0.21,-0.18,
2.602,0.79,-0.03,-0.35,0.24,0.21,-0.18,
2.603,0.79,-0.03,-0.35,0.25,0.20,-0.18,
2.623,1.20,0.10,-0.66,0.25,0.20,-0.18,
2.623,1.20,0.10,-0.66,0.26,0.20,-0.19,
2.623,1.20,0.10,-0.66,0.27,0.19,-0.20,
2.624,1.20,0.10,-0.66,0.27,0.18,-0.20,
2.624,1.20,0.10,-0.66,0.27,0.17,-0.21,
2.624,1.20,0.10,-0.66,0.28,0.16,-0.22,
2.625,1.45,0.25,-0.87,0.28,0.16,-0.22,
2.625,1.45,0.25,-0.87,0.29,0.16,-0.23,
2.625,1.45,0.25,-0.87,0.29,0.15,-0.24,
2.625,1.45,0.25,-0.87,0.30,0.15,-0.25,
2.626,1.45,0.25,-0.87,0.30,0.14,-0.25,
2.626,1.45,0.25,-0.87,0.31,0.14,-0.26,
2.626,1.53,0.36,-1.05,0.31,0.14,-0.26,
2.626,1.53,0.36,-1.05,0.31,0.14,-0.27,
2.627,1.53,0.36,-1.05,0.32,0.14,-0.28,
2.627,1.53,0.36,-1.05,0.32,0.14,-0.28,
2.627,1.53,0.36,-1.05,0.32,0.14,-0.29,
2.627,1.53,0.36,-1.05,0.33,0.14,-0.30,
2.628,1.46,0.40,-1.21,0.33,0.14,-0.30,
2.628,1.46,0.40,-1.21,0.33,0.15,-0.30,
2.633,1.46,0.40,-1.21,0.33,0.16,-0.31,
2.634,1.46,0.40,-1.21,0.33,0.16,-0.31,
2.634,1.46,0.40,-1.21,0.33,0.17,-0.32,
2.634,1.46,0.40,-1.21,0.33,0.18,-0.32,
2.635,1.40,0.47,-1.40,0.33,0.18,-0.32,
2.635,1.40,0.47,-1.40,0.33,0.18,-0.32,
2.637,1.40,0.47,-1.40,0.33,0.19,-0.33,
2.642,1.40,0.47,-1.40,0.32,0.19,-0.33,
2.642,1.40,0.47,-1.40,0.32,0.20,-0.33,
2.648,1.40,0.47,-1.40,0.32,0.20,-0.33,
2.648,1.14,0.50,-1.40,0.32,0.20,-0.33,
2.648,1.14,0.50,-1.40,0.32,0.21,-0.34,
2.649,1.14,0.50,-1.40,0.32,0.22,-0.33,
2.649,1.14,0.50,-1.40,0.32,0.22,-0.33,
2.651,1.14,0.50,-1.40,0.33,0.23,-0.33,
2.653,1.14,0.50,-1.40,0.33,0.23,-0.32,
2.655,0.79,0.56,-1.31,0.33,0.23,-0.32,
2.656,0.79,0.56,-1.31,0.33,0.24,-0.31,
2.662,0.79,0.56,-1.31,0.33,0.25,-0.30,
2.663,0.79,0.56,-1.31,0.33,0.25,-0.29,
2.664,0.79,0.56,-1.31,0.33,0.25,-0.28,
2.665,0.79,0.56,-1.31,0.33,0.25,-0.27,
2.665,0.49,0.68,-1.22,0.33,0.25,-0.27,
2.665,0.49,0.68,-1.22,0.33,0.25,-0.26,
2.668,0.49,0.68,-1.22,0.33,0.24,-0.24,
2.669,0.49,0.68,-1.22,0.33,0.23,-0.23,
2.671,0.49,0.68,-1.22,0.33,0.23,-0.22,
2.673,0.49,0.68,-1.22,0.32,0.22,-0.21,
2.676,0.34,0.86,-1.16,0.32,0.22,-0.21,
2.676,0.34,0.86,-1.16,0.32,0.22,-0.20,
2.678,0.34,0.86,-1.16,0.31,0.20,-0.19,
2.679,0.34,0.86,-1.16,0.31,0.20,-0.18,
2.68,0.34,0.86,-1.16,0.30,0.19,-0.17,
2.693,0.34,0.86,-1.16,0.30,0.18,-0.16,
2.693,0.31,0.99,-0.93,0.30,0.18,-0.16,
2.693,0.31,0.99,-0.93,0.29,0.17,-0.16,
2.694,0.31,0.99,-0.93,0.28,0.15,-0.15,
2.694,0.31,0.99,-0.93,0.28,0.14,-0.15,
2.694,0.31,0.99,-0.93,0.27,0.13,-0.14,
2.694,0.31,0.99,-0.93,0.27,0.12,-0.14,
2.695,0.44,1.16,-0.58,0.27,0.12,-0.14,
2.695,0.44,1.16,-0.58,0.26,0.10,-0.14,
2.697,0.44,1.16,-0.58,0.26,0.09,-0.14,
2.699,0.44,1.16,-0.58,0.25,0.08,-0.14,
2.716,0.44,1.16,-0.58,0.25,0.08,-0.14,
2.717,0.44,1.16,-0.58,0.25,0.07,-0.13,
2.717,0.46,1.24,-0.09,0.25,0.07,-0.13,
2.717,0.46,1.24,-0.09,0.24,0.06,-0.14,
2.718,0.46,1.24,-0.09,0.24,0.05,-0.13,
2.718,0.46,1.24,-0.09,0.24,0.04,-0.13,
2.718,0.46,1.24,-0.09,0.24,0.03,-0.13,
2.718,0.46,1.24,-0.09,0.24,0.03,-0.13,
2.718,0.39,1.27,0.50,0.24,0.03,-0.13,
2.718,0.39,1.27,0.50,0.24,0.02,-0.12,
2.718,0.39,1.27,0.50,0.23,0.02,-0.12,
2.719,0.39,1.27,0.50,0.23,0.01,-0.12,
2.72,0.39,1.27,0.50,0.23,0.01,-0.12,
2.724,0.39,1.27,0.50,0.23,0.02,-0.12,
2.725,0.36,1.16,1.11,0.23,0.02,-0.12,
2.726,0.36,1.16,1.11,0.23,0.02,-0.12,
2.729,0.36,1.16,1.11,0.22,0.02,-0.12,
2.73,0.36,1.16,1.11,0.22,0.02,-0.13,
2.731,0.36,1.16,1.11,0.22,0.03,-0.13,
2.733,0.36,1.16,1.11,0.22,0.03,-0.13,
2.735,0.25,0.94,1.68,0.22,0.03,-0.13,
2.735,0.25,0.94,1.68,0.21,0.04,-0.13,
2.741,0.25,0.94,1.68,0.19,0.05,-0.13,
2.741,0.25,0.94,1.68,0.19,0.06,-0.13,
2.741,0.25,0.94,1.68,0.18,0.08,-0.12,
2.745,0.25,0.94,1.68,0.18,0.11,-0.12,
2.746,-0.15,0.36,2.35,0.18,0.11,-0.12,
2.746,-0.15,0.36,2.35,0.17,0.14,-0.11,
2.747,-0.15,0.36,2.35,0.16,0.20,-0.09,
2.748,-0.15,0.36,2.35,0.16,0.22,-0.08,
2.751,-0.15,0.36,2.35,0.16,0.26,-0.06,
2.752,-0.15,0.36,2.35,0.16,0.31,-0.03,
2.755,-0.84,-0.40,3.33,0.16,0.31,-0.03,
2.756,-0.84,-0.40,3.33,0.16,0.36,-0.00,
2.758,-0.84,-0.40,3.33,0.17,0.44,0.05,
2.759,-0.84,-0.40,3.33,0.18,0.47,0.06,
2.787,-0.84,-0.40,3.33,0.19,0.53,0.10,
2.787,-0.84,-0.40,3.33,0.21,0.60,0.14,
2.787,-1.53,-1.18,4.39,0.21,0.60,0.14,
2.788,-1.53,-1.18,4.39,0.22,0.67,0.19,
2.788,-1.53,-1.18,4.39,0.26,0.78,0.27,
2.789,-1.53,-1.18,4.39,0.27,0.82,0.29,
2.789,-1.53,-1.18,4.39,0.30,0.90,0.35,
2.79,-1.53,-1.18,4.39,0.33,0.97,0.40,
2.79,-1.96,-1.83,5.07,0.33,0.97,0.40,
2.79,-1.96,-1.83,5.07,0.36,1.04,0.46,
2.791,-1.96,-1.83,5.07,0.40,1.13,0.54,
2.791,-1.96,-1.83,5.07,0.41,1.16,0.56,
2.792,-1.96,-1.83,5.07,0.44,1.21,0.61,
2.792,-1.96,-1.83,5.07,0.47,1.26,0.65,
2.792,-1.54,-2.11,5.06,0.47,1.26,0.65,
2.793,-1.54,-2.11,5.06,0.51,1.30,0.69,
2.793,-1.54,-2.11,5.06,0.55,1.34,0.74,
2.794,-1.54,-2.11,5.06,0.57,1.35,0.75,
2.794,-1.54,-2.11,5.06,0.60,1.37,0.76,
2.801,-1.54,-2.11,5.06,0.64,1.38,0.77,
2.802,-1.54,-2.11,5.06,0.67,1.38,0.78,
2.802,-0.31,-2.18,4.64,0.67,1.38,0.78,
2.802,-0.31,-2.18,4.64,0.73,1.37,0.77,
2.802,-0.31,-2.18,4.64,0.75,1.36,0.77,
2.803,-0.31,-2.18,4.64,0.79,1.35,0.75,
2.803,-0.31,-2.18,4.64,0.83,1.33,0.74,
2.807,0.75,-1.88,3.96,0.83,1.33,0.74,
2.807,0.75,-1.88,3.96,0.87,1.31,0.72,
2.808,0.75,-1.88,3.96,0.93,1.27,0.69,
2.809,0.75,-1.88,3.96,0.94,1.25,0.68,
2.81,0.75,-1.88,3.96,0.98,1.22,0.66,
2.812,0.75,-1.88,3.96,1.01,1.18,0.64,
2.815,1.06,-1.49,2.85,1.01,1.18,0.64,
2.816,1.06,-1.49,2.85,1.04,1.14,0.62,
2.817,1.06,-1.49,2.85,1.07,1.08,0.59,
2.818,1.06,-1.49,2.85,1.08,1.05,0.58,
2.828,1.06,-1.49,2.85,1.09,1.01,0.56,
2.828,1.06,-1.49,2.85,1.10,0.96,0.55,
2.829,0.75,-1.07,1.21,1.10,0.96,0.55,
2.829,0.75,-1.07,1.21,1.11,0.92,0.54,
2.829,0.75,-1.07,1.21,1.09,0.85,0.52,
2.829,0.75,-1.07,1.21,1.08,0.82,0.52,
2.831,0.75,-1.07,1.21,1.06,0.78,0.52,
2.834,0.75,-1.07,1.21,1.03,0.73,0.51,
2.835,0.27,-0.80,-0.74,1.03,0.73,0.51,
2.835,0.27,-0.80,-0.74,0.99,0.69,0.51,
2.849,0.27,-0.80,-0.74,0.92,0.63,0.51,
2.85,0.27,-0.80,-0.74,0.90,0.62,0.51,
2.85,0.27,-0.80,-0.74,0.84,0.59,0.52,
2.85,0.27,-0.80,-0.74,0.78,0.56,0.52,
2.85,-0.20,-0.59,-2.46,0.78,0.56,0.52,
2.851,-0.20,-0.59,-2.46,0.71,0.54,0.53,
2.851,-0.20,-0.59,-2.46,0.60,0.52,0.55,
2.851,-0.20,-0.59,-2.46,0.56,0.52,0.56,
2.851,-0.20,-0.59,-2.46,0.48,0.51,0.57,
2.853,-0.20,-0.59,-2.46,0.40,0.50,0.59,
2.868,-0.48,-0.40,-3.56,0.40,0.50,0.59,
2.869,-0.48,-0.40,-3.56,0.31,0.50,0.60,
2.87,-0.48,-0.40,-3.56,0.18,0.51,0.62,
2.873,-0.48,-0.40,-3.56,0.13,0.51,0.62,
2.874,-0.48,-0.40,-3.56,0.04,0.52,0.63,
2.874,-0.48,-0.40,-3.56,-0.04,0.54,0.65,
2.874,-0.25,-0.43,-3.79,-0.04,0.54,0.65,
2.874,-0.25,-0.43,-3.79,-0.13,0.56,0.66,
2.874,-0.25,-0.43,-3.79,-0.25,0.59,0.67,
2.875,-0.25,-0.43,-3.79,-0.29,0.61,0.67,
2.875,-0.25,-0.43,-3.79,-0.36,0.64,0.68,
2.875,-0.25,-0.43,-3.79,-0.44,0.68,0.69,
2.875,0.20,-0.73,-3.30,-0.44,0.68,0.69,
2.875,0.20,-0.73,-3.30,-0.50,0.72,0.69,
2.881,0.20,-0.73,-3.30,-0.59,0.79,0.70,
2.881,0.20,-0.73,-3.30,-0.62,0.81,0.70,
2.881,0.20,-0.73,-3.30,-0.67,0.86,0.71,
2.882,0.20,-0.73,-3.30,-0.71,0.91,0.71,
2.884,0.47,-0.79,-2.30,-0.71,0.91,0.71,
2.884,0.47,-0.79,-2.30,-0.75,0.96,0.72,
2.888,0.47,-0.79,-2.30,-0.79,1.03,0.73,
2.889,0.47,-0.79,-2.30,-0.80,1.06,0.73,
2.89,0.47,-0.79,-2.30,-0.82,1.10,0.74,
2.892,0.47,-0.79,-2.30,-0.84,1.14,0.74,
2.896,0.67,-0.87,-1.31,-0.84,1.14,0.74,
2.896,0.67,-0.87,-1.31,-0.85,1.18,0.75,
2.897,0.67,-0.87,-1.31,-0.85,1.22,0.75,
2.899,0.67,-0.87,-1.31,-0.85,1.24,0.75,
2.901,0.67,-0.87,-1.31,-0.85,1.26,0.76,
2.902,0.67,-0.87,-1.31,-0.84,1.28,0.76,
2.905,0.75,-0.90,-0.59,-0.84,1.28,0.76,
2.906,0.75,-0.90,-0.59,-0.83,1.29,0.76,
2.908,0.75,-0.90,-0.59,-0.80,1.31,0.77,
2.908,0.75,-0.90,-0.59,-0.79,1.31,0.77,
2.911,0.75,-0.90,-0.59,-0.77,1.31,0.77,
2.914,0.75,-0.90,-0.59,-0.75,1.30,0.77,
2.916,0.82,-0.79,-0.30,-0.75,1.30,0.77,
2.917,0.82,-0.79,-0.30,-0.73,1.30,0.77,
2.918,0.82,-0.79,-0.30,-0.70,1.28,0.77,
2.919,0.82,-0.79,-0.30,-0.69,1.27,0.77,
2.921,0.82,-0.79,-0.30,-0.68,1.26,0.77,
2.923,0.82,-0.79,-0.30,-0.66,1.24,0.77,
2.924,0.76,-0.62,-0.50,-0.66,1.24,0.77,
2.925,0.76,-0.62,-0.50,-0.64,1.22,0.77,
2.949,0.76,-0.62,-0.50,-0.62,1.18,0.76,
2.949,0.76,-0.62,-0.50,-0.62,1.17,0.76,
2.949,0.76,-0.62,-0.50,-0.61,1.15,0.76,
2.949,0.76,-0.62,-0.50,-0.60,1.12,0.76,
2.95,0.52,-0.44,-0.94,-0.60,1.12,0.76,
2.95,0.52,-0.44,-0.94,-0.60,1.09,0.77,
2.95,0.52,-0.44,-0.94,-0.59,1.04,0.77,
2.951,0.52,-0.44,-0.94,-0.59,1.02,0.77,
2.951,0.52,-0.44,-0.94,-0.59,0.98,0.78,
2.951,0.52,-0.44,-0.94,-0.59,0.94,0.78,
2.951,0.19,-0.34,-1.17,-0.59,0.94,0.78,
2.952,0.19,-0.34,-1.17,-0.59,0.91,0.78,
2.952,0.19,-0.34,-1.17,-0.59,0.86,0.79,
2.952,0.19,-0.34,-1.17,-0.59,0.84,0.80,
2.952,0.19,-0.34,-1.17,-0.58,0.81,0.80,
2.953,0.19,-0.34,-1.17,-0.58,0.78,0.81,
2.958,-0.14,-0.22,-1.05,-0.58,0.78,0.81,
2.959,-0.14,-0.22,-1.05,-0.57,0.75,0.82,
2.959,-0.14,-0.22,-1.05,-0.56,0.71,0.84,
2.959,-0.14,-0.22,-1.05,-0.55,0.69,0.84,
2.96,-0.14,-0.22,-1.05,-0.55,0.67,0.86,
2.962,-0.14,-0.22,-1.05,-0.54,0.64,0.87,
2.964,-0.37,-0.15,-0.81,-0.54,0.64,0.87,
2.965,-0.37,-0.15,-0.81,-0.53,0.62,0.88,
2.967,-0.37,-0.15,-0.81,-0.52,0.58,0.90,
2.97,-0.37,-0.15,-0.81,-0.52,0.57,0.91,
2.972,-0.37,-0.15,-0.81,-0.51,0.54,0.93,
2.972,-0.37,-0.15,-0.81,-0.50,0.52,0.94,
2.976,-0.53,-0.06,-0.63,-0.50,0.52,0.94,
2.976,-0.53,-0.06,-0.63,-0.49,0.49,0.96,
2.977,-0.53,-0.06,-0.63,-0.49,0.45,0.98,
2.979,-0.53,-0.06,-0.63,-0.48,0.44,0.98,
2.98,-0.53,-0.06,-0.63,-0.48,0.41,1.00,
2.982,-0.53,-0.06,-0.63,-0.47,0.39,1.01,
2.985,-0.48,-0.03,-0.50,-0.47,0.39,1.01,
2.985,-0.48,-0.03,-0.50,-0.47,0.37,1.03,
2.992,-0.48,-0.03,-0.50,-0.46,0.33,1.04,
2.994,-0.48,-0.03,-0.50,-0.46,0.32,1.05,
2.994,-0.48,-0.03,-0.50,-0.45,0.30,1.06,
2.994,-0.48,-0.03,-0.50,-0.45,0.27,1.07,
2.995,-0.35,0.02,-0.36,-0.45,0.27,1.07,
2.997,-0.35,0.02,-0.36,-0.44,0.25,1.08,
3.013,-0.35,0.02,-0.36,-0.43,0.21,1.09,
3.013,-0.35,0.02,-0.36,-0.43,0.20,1.09,
3.014,-0.35,0.02,-0.36,-0.42,0.18,1.10,
3.014,-0.35,0.02,-0.36,-0.41,0.15,1.10,
3.014,-0.05,0.12,-0.08,-0.41,0.15,1.10,
3.014,-0.05,0.12,-0.08,-0.40,0.13,1.11,
3.014,-0.05,0.12,-0.08,-0.39,0.09,1.11,
3.015,-0.05,0.12,-0.08,-0.38,0.07,1.11,
3.015,-0.05,0.12,-0.08,-0.37,0.05,1.12,
3.015,-0.05,0.12,-0.08,-0.36,0.02,1.12,
3.015,0.24,0.20,0.19,-0.36,0.02,1.12,
3.015,0.24,0.20,0.19,-0.35,-0.00,1.12,
3.018,0.24,0.20,0.19,-0.33,-0.05,1.11,
3.019,0.24,0.20,0.19,-0.32,-0.07,1.11,
3.021,0.24,0.20,0.19,-0.32,-0.08,1.11,
3.022,0.24,0.20,0.19,-0.31,-0.10,1.10,
3.024,0.49,0.29,0.49,-0.31,-0.10,1.10,
3.025,0.49,0.29,0.49,-0.29,-0.12,1.10,
3.027,0.49,0.29,0.49,-0.27,-0.15,1.10,
3.028,0.49,0.29,0.49,-0.27,-0.15,1.10,
3.033,0.49,0.29,0.49,-0.25,-0.16,1.09,
3.033,0.49,0.29,0.49,-0.24,-0.17,1.09,
3.035,0.69,0.31,0.76,-0.24,-0.17,1.09,
3.035,0.69,0.31,0.76,-0.22,-0.18,1.09,
3.038,0.69,0.31,0.76,-0.20,-0.17,1.08,
3.04,0.69,0.31,0.76,-0.19,-0.17,1.08,
3.041,0.69,0.31,0.76,-0.18,-0.16,1.08,
3.042,0.69,0.31,0.76,-0.16,-0.15,1.08,
3.044,0.80,0.31,0.88,-0.16,-0.15,1.08,
3.044,0.80,0.31,0.88,-0.15,-0.13,1.08,
3.047,0.80,0.31,0.88,-0.13,-0.09,1.08,
3.048,0.80,0.31,0.88,-0.12,-0.08,1.08,
3.05,0.80,0.31,0.88,-0.11,-0.05,1.08,
3.052,0.80,0.31,0.88,-0.10,-0.02,1.08,
3.055,1.02,0.28,0.74,-0.10,-0.02,1.08,
3.055,1.02,0.28,0.74,-0.10,0.01,1.08,
3.057,1.02,0.28,0.74,-0.09,0.06,1.08,
3.058,1.02,0.28,0.74,-0.09,0.08,1.08,
3.06,1.02,0.28,0.74,-0.09,0.12,1.08,
3.063,1.02,0.28,0.74,-0.09,0.16,1.08,
3.064,1.14,0.14,0.31,-0.09,0.16,1.08,
3.064,1.14,0.14,0.31,-0.09,0.19,1.07,
3.067,1.14,0.14,0.31,-0.10,0.25,1.07,
3.068,1.14,0.14,0.31,-0.10,0.27,1.07,
3.07,1.14,0.14,0.31,-0.10,0.30,1.07,
3.075,1.14,0.14,0.31,-0.11,0.34,1.06,
3.075,1.17,-0.06,-0.06,-0.11,0.34,1.06,
3.076,1.17,-0.06,-0.06,-0.11,0.38,1.06,
3.077,1.17,-0.06,-0.06,-0.13,0.42,1.05,
3.079,1.17,-0.06,-0.06,-0.13,0.44,1.04,
3.08,1.17,-0.06,-0.06,-0.13,0.47,1.04,
3.082,1.17,-0.06,-0.06,-0.14,0.50,1.03,
3.085,1.06,-0.26,-0.28,-0.14,0.50,1.03,
3.085,1.06,-0.26,-0.28,-0.15,0.52,1.02,
3.087,1.06,-0.26,-0.28,-0.15,0.56,1.01,
3.089,1.06,-0.26,-0.28,-0.16,0.57,1.00,
3.091,1.06,-0.26,-0.28,-0.16,0.59,0.99,
3.093,1.06,-0.26,-0.28,-0.15,0.61,0.98,
3.122,0.97,-0.43,-0.31,-0.15,0.61,0.98,
3.122,0.97,-0.43,-0.31,-0.15,0.62,0.98,
3.122,0.97,-0.43,-0.31,-0.14,0.64,0.96,
3.122,0.97,-0.43,-0.31,-0.14,0.65,0.95,
3.123,0.97,-0.43,-0.31,-0.13,0.65,0.94,
3.123,0.97,-0.43,-0.31,-0.11,0.66,0.93,
3.123,0.82,-0.52,-0.29,-0.11,0.66,0.93,
3.124,0.82,-0.52,-0.29,-0.10,0.66,0.93,
3.124,0.82,-0.52,-0.29,-0.07,0.65,0.91,
3.124,0.82,-0.52,-0.29,-0.06,0.64,0.91,
3.124,0.82,-0.52,-0.29,-0.05,0.63,0.90,
3.125,0.82,-0.52,-0.29,-0.03,0.63,0.89,
3.125,0.80,-0.59,-0.46,-0.03,0.63,0.89,
3.125,0.80,-0.59,-0.46,-0.01,0.61,0.88,
3.125,0.80,-0.59,-0.46,0.01,0.59,0.87,
3.126,0.80,-0.59,-0.46,0.02,0.58,0.87,
3.126,0.80,-0.59,-0.46,0.04,0.56,0.86,
3.126,0.80,-0.59,-0.46,0.06,0.54,0.85,
3.126,0.71,-0.69,-0.81,0.06,0.54,0.85,
3.127,0.71,-0.69,-0.81,0.08,0.52,0.85,
3.127,0.71,-0.69,-0.81,0.10,0.48,0.84,
3.139,0.71,-0.69,-0.81,0.11,0.47,0.84,
3.14,0.71,-0.69,-0.81,0.12,0.45,0.83,
3.14,0.71,-0.69,-0.81,0.13,0.43,0.83,
3.14,0.60,-0.74,-1.22,0.13,0.43,0.83,
3.14,0.60,-0.74,-1.22,0.15,0.40,0.83,
3.14,0.60,-0.74,-1.22,0.17,0.37,0.82,
3.141,0.60,-0.74,-1.22,0.17,0.36,0.82,
3.141,0.60,-0.74,-1.22,0.19,0.34,0.82,
3.142,0.60,-0.74,-1.22,0.19,0.33,0.82,
3.147,0.52,-0.76,-1.71,0.19,0.33,0.82,
3.147,0.52,-0.76,-1.71,0.21,0.32,0.82,
3.149,0.52,-0.76,-1.71,0.22,0.30,0.81,
3.149,0.52,-0.76,-1.71,0.22,0.29,0.81,
3.151,0.52,-0.76,-1.71,0.23,0.28,0.81,
3.165,0.52,-0.76,-1.71,0.24,0.27,0.81,
3.166,0.46,-0.76,-2.22,0.24,0.27,0.81,
3.166,0.46,-0.76,-2.22,0.24,0.27,0.81,
3.166,0.46,-0.76,-2.22,0.25,0.26,0.81,
3.166,0.46,-0.76,-2.22,0.25,0.26,0.81,
3.167,0.46,-0.76,-2.22,0.25,0.26,0.81,
3.167,0.46,-0.76,-2.22,0.25,0.26,0.81,
3.167,0.38,-0.81,-2.79,0.25,0.26,0.81,
3.167,0.38,-0.81,-2.79,0.24,0.26,0.81,
3.167,0.38,-0.81,-2.79,0.24,0.25,0.81,
3.168,0.38,-0.81,-2.79,0.23,0.25,0.81,
3.176,0.38,-0.81,-2.79,0.22,0.25,0.81,
3.176,0.38,-0.81,-2.79,0.21,0.25,0.81,
3.176,0.32,-0.84,-3.28,0.21,0.25,0.81,
3.176,0.32,-0.84,-3.28,0.20,0.25,0.81,
3.177,0.32,-0.84,-3.28,0.18,0.25,0.81,
3.178,0.32,-0.84,-3.28,0.17,0.25,0.81,
3.18,0.32,-0.84,-3.28,0.16,0.24,0.81,
3.182,0.32,-0.84,-3.28,0.14,0.25,0.81,
3.184,0.31,-0.81,-3.53,0.14,0.25,0.81,
3.184,0.31,-0.81,-3.53,0.13,0.25,0.81,
3.187,0.31,-0.81,-3.53,0.10,0.24,0.81,
3.189,0.31,-0.81,-3.53,0.09,0.24,0.81,
3.19,0.31,-0.81,-3.53,0.07,0.24,0.81,
3.193,0.31,-0.81,-3.53,0.05,0.24,0.80,
3.194,0.38,-0.75,-3.66,0.05,0.24,0.80,
3.195,0.38,-0.75,-3.66,0.03,0.23,0.80,
3.197,0.38,-0.75,-3.66,-0.00,0.23,0.80,
3.198,0.38,-0.75,-3.66,-0.01,0.23,0.79,
3.2,0.38,-0.75,-3.66,-0.03,0.22,0.79,
3.202,0.38,-0.75,-3.66,-0.05,0.21,0.79,
3.204,0.43,-0.73,-3.48,-0.05,0.21,0.79,
3.205,0.43,-0.73,-3.48,-0.07,0.21,0.78,
3.208,0.43,-0.73,-3.48,-0.10,0.21,0.78,
3.209,0.43,-0.73,-3.48,-0.11,0.20,0.77,
3.21,0.43,-0.73,-3.48,-0.12,0.20,0.77,
3.212,0.43,-0.73,-3.48,-0.13,0.20,0.77,
3.215,0.49,-0.66,-3.04,-0.13,0.20,0.77,
3.215,0.49,-0.66,-3.04,-0.15,0.20,0.76,
3.217,0.49,-0.66,-3.04,-0.16,0.19,0.76,
3.218,0.49,-0.66,-3.04,-0.17,0.19,0.76,
3.221,0.49,-0.66,-3.04,-0.17,0.19,0.76,
3.222,0.49,-0.66,-3.04,-0.18,0.18,0.76,
3.225,0.41,-0.64,-2.48,-0.18,0.18,0.76,
3.226,0.41,-0.64,-2.48,-0.19,0.18,0.76,
3.227,0.41,-0.64,-2.48,-0.19,0.18,0.76,
3.228,0.41,-0.64,-2.48,-0.19,0.17,0.76,
3.23,0.41,-0.64,-2.48,-0.19,0.17,0.77,
3.232,0.41,-0.64,-2.48,-0.19,0.17,0.77,
3.235,0.39,-0.61,-1.88,-0.19,0.17,0.77,
3.235,0.39,-0.61,-1.88,-0.19,0.16,0.77,
3.237,0.39,-0.61,-1.88,-0.18,0.16,0.77,
3.239,0.39,-0.61,-1.88,-0.18,0.16,0.77,
3.243,0.39,-0.61,-1.88,-0.17,0.16,0.78,
3.243,0.39,-0.61,-1.88,-0.16,0.15,0.78,
3.244,0.36,-0.49,-1.36,-0.16,0.15,0.78,
3.244,0.36,-0.49,-1.36,-0.16,0.15,0.78,
3.248,0.36,-0.49,-1.36,-0.15,0.15,0.78,
3.248,0.36,-0.49,-1.36,-0.15,0.14,0.79,
3.25,0.36,-0.49,-1.36,-0.14,0.13,0.79,
3.252,0.36,-0.49,-1.36,-0.13,0.13,0.79,
3.264,0.44,-0.42,-0.88,-0.13,0.13,0.79,
3.265,0.44,-0.42,-0.88,-0.13,0.12,0.79,
3.265,0.44,-0.42,-0.88,-0.12,0.11,0.80,
3.266,0.44,-0.42,-0.88,-0.11,0.10,0.80,
3.284,0.44,-0.42,-0.88,-0.10,0.09,0.80,
3.285,0.44,-0.42,-0.88,-0.09,0.08,0.80,
3.285,0.45,-0.28,-0.42,-0.09,0.08,0.80,
3.285,0.45,-0.28,-0.42,-0.08,0.07,0.80,
3.285,0.45,-0.28,-0.42,-0.06,0.06,0.81,
3.285,0.45,-0.28,-0.42,-0.06,0.05,0.81,
3.286,0.45,-0.28,-0.42,-0.04,0.04,0.81,
3.286,0.45,-0.28,-0.42,-0.03,0.03,0.81,
3.286,0.51,-0.24,0.02,-0.03,0.03,0.81,
3.286,0.51,-0.24,0.02,-0.02,0.02,0.81,
3.287,0.51,-0.24,0.02,0.00,0.01,0.82,
3.287,0.51,-0.24,0.02,0.01,0.01,0.82,
3.287,0.51,-0.24,0.02,0.03,0.01,0.82,
3.287,0.51,-0.24,0.02,0.04,-0.00,0.83,
3.29,0.52,-0.19,0.35,0.04,-0.00,0.83,
3.29,0.52,-0.19,0.35,0.06,-0.01,0.83,
3.291,0.52,-0.19,0.35,0.08,-0.01,0.84,
3.291,0.52,-0.19,0.35,0.10,-0.02,0.85,
3.293,0.52,-0.19,0.35,0.10,-0.02,0.85,
3.294,0.52,-0.19,0.35,0.12,-0.02,0.85,
3.294,0.52,-0.26,0.62,0.12,-0.02,0.85,
3.295,0.52,-0.26,0.62,0.13,-0.02,0.86,
3.297,0.52,-0.26,0.62,0.15,-0.03,0.86,
3.299,0.52,-0.26,0.62,0.16,-0.03,0.87,
3.3,0.52,-0.26,0.62,0.18,-0.04,0.87,
3.307,0.52,-0.26,0.62,0.19,-0.04,0.88,
3.308,0.50,-0.23,0.77,0.19,-0.04,0.88,
3.308,0.50,-0.23,0.77,0.21,-0.04,0.88,
3.308,0.50,-0.23,0.77,0.24,-0.05,0.89,
3.308,0.50,-0.23,0.77,0.24,-0.05,0.89,
3.31,0.50,-0.23,0.77,0.25,-0.05,0.90,
3.312,0.50,-0.23,0.77,0.27,-0.05,0.90,
3.314,0.53,-0.20,0.77,0.27,-0.05,0.90,
3.314,0.53,-0.20,0.77,0.28,-0.05,0.91,
3.317,0.53,-0.20,0.77,0.31,-0.05,0.91,
3.319,0.53,-0.20,0.77,0.31,-0.05,0.91,
3.32,0.53,-0.20,0.77,0.32,-0.05,0.92,
3.323,0.53,-0.20,0.77,0.34,-0.05,0.92,
3.325,0.52,-0.16,0.62,0.34,-0.05,0.92,
3.325,0.52,-0.16,0.62,0.34,-0.05,0.92,
3.327,0.52,-0.16,0.62,0.36,-0.05,0.93,
3.328,0.52,-0.16,0.62,0.37,-0.05,0.93,
3.33,0.52,-0.16,0.62,0.37,-0.05,0.93,
3.332,0.52,-0.16,0.62,0.38,-0.04,0.93,
3.334,0.54,-0.08,0.43,0.38,-0.04,0.93,
3.334,0.54,-0.08,0.43,0.39,-0.04,0.94,
3.337,0.54,-0.08,0.43,0.40,-0.04,0.94,
3.339,0.54,-0.08,0.43,0.40,-0.04,0.94,
3.34,0.54,-0.08,0.43,0.41,-0.03,0.94,
3.342,0.54,-0.08,0.43,0.41,-0.03,0.94,
3.344,0.54,0.01,0.22,0.41,-0.03,0.94,
3.345,0.54,0.01,0.22,0.42,-0.03,0.94,
3.347,0.54,0.01,0.22,0.42,-0.01,0.93,
3.348,0.54,0.01,0.22,0.42,-0.01,0.93,
3.35,0.54,0.01,0.22,0.43,-0.00,0.93,
3.353,0.54,0.01,0.22,0.44,0.01,0.93,
3.354,0.60,0.05,0.06,0.44,0.01,0.93,
3.355,0.60,0.05,0.06,0.44,0.02,0.93,
3.357,0.60,0.05,0.06,0.44,0.03,0.92,
3.358,0.60,0.05,0.06,0.44,0.04,0.92,
3.36,0.60,0.05,0.06,0.44,0.05,0.92,
3.362,0.60,0.05,0.06,0.44,0.07,0.92,
3.364,0.55,0.07,-0.09,0.44,0.07,0.92,
3.365,0.55,0.07,-0.09,0.44,0.08,0.91,
3.369,0.55,0.07,-0.09,0.44,0.10,0.90,
3.369,0.55,0.07,-0.09,0.44,0.11,0.90,
3.372,0.55,0.07,-0.09,0.43,0.13,0.90,
3.374,0.55,0.07,-0.09,0.43,0.14,0.90,
3.374,0.42,0.09,-0.23,0.43,0.14,0.90,
3.375,0.42,0.09,-0.23,0.42,0.16,0.90,
3.377,0.42,0.09,-0.23,0.41,0.19,0.89,
3.378,0.42,0.09,-0.23,0.41,0.20,0.90,
3.38,0.42,0.09,-0.23,0.40,0.23,0.90,
3.382,0.42,0.09,-0.23,0.39,0.26,0.90,
3.384,0.14,0.10,-0.42,0.39,0.26,0.90,
3.384,0.14,0.10,-0.42,0.38,0.29,0.90,
3.394,0.14,0.10,-0.42,0.36,0.34,0.91,
3.394,0.14,0.10,-0.42,0.35,0.36,0.91,
3.394,0.14,0.10,-0.42,0.33,0.40,0.91,
3.395,0.14,0.10,-0.42,0.31,0.44,0.91,
3.395,-0.03,0.10,-0.62,0.31,0.44,0.91,
3.395,-0.03,0.10,-0.62,0.29,0.49,0.92,
3.397,-0.03,0.10,-0.62,0.25,0.56,0.92,
3.398,-0.03,0.10,-0.62,0.24,0.59,0.93,
3.4,-0.03,0.10,-0.62,0.21,0.64,0.93,
3.414,-0.03,0.10,-0.62,0.17,0.70,0.93,
3.415,-0.17,0.08,-0.90,0.17,0.70,0.93,
3.415,-0.17,0.08,-0.90,0.14,0.76,0.94,
3.415,-0.17,0.08,-0.90,0.08,0.86,0.94,
3.416,-0.17,0.08,-0.90,0.06,0.89,0.95,
3.416,-0.17,0.08,-0.90,0.02,0.96,0.95,
3.416,-0.17,0.08,-0.90,-0.02,1.01,0.96,
3.416,-0.24,0.16,-1.23,-0.02,1.01,0.96,
3.417,-0.24,0.16,-1.23,-0.08,1.07,0.96,
3.417,-0.24,0.16,-1.23,-0.16,1.14,0.96,
3.419,-0.24,0.16,-1.23,-0.18,1.16,0.97,
3.42,-0.24,0.16,-1.23,-0.24,1.20,0.97,
3.422,-0.24,0.16,-1.23,-0.30,1.23,0.96,
3.424,-0.20,0.29,-1.26,-0.30,1.23,0.96,
3.425,-0.20,0.29,-1.26,-0.36,1.25,0.96,
3.446,-0.20,0.29,-1.26,-0.44,1.27,0.96,
3.446,-0.20,0.29,-1.26,-0.47,1.28,0.96,
3.447,-0.20,0.29,-1.26,-0.52,1.28,0.96,
3.447,-0.20,0.29,-1.26,-0.57,1.28,0.95,
3.448,-0.20,0.64,-0.65,-0.57,1.28,0.95,
3.448,-0.20,0.64,-0.65,-0.61,1.27,0.94,
3.448,-0.20,0.64,-0.65,-0.67,1.25,0.93,
3.449,-0.20,0.64,-0.65,-0.69,1.24,0.92,
3.449,-0.20,0.64,-0.65,-0.72,1.21,0.90,
3.45,-0.20,0.64,-0.65,-0.75,1.18,0.88,
3.45,-0.06,0.87,0.59,-0.75,1.18,0.88,
3.45,-0.06,0.87,0.59,-0.78,1.15,0.86,
3.451,-0.06,0.87,0.59,-0.81,1.10,0.84,
3.451,-0.06,0.87,0.59,-0.82,1.09,0.83,
3.452,-0.06,0.87,0.59,-0.83,1.07,0.82,
3.452,-0.06,0.87,0.59,-0.84,1.04,0.81,
3.46,-0.24,0.83,1.91,-0.84,1.04,0.81,
3.461,-0.24,0.83,1.91,-0.85,1.02,0.80,
3.461,-0.24,0.83,1.91,-0.86,0.99,0.80,
3.461,-0.24,0.83,1.91,-0.86,0.98,0.80,
3.461,-0.24,0.83,1.91,-0.86,0.96,0.80,
3.462,-0.24,0.83,1.91,-0.86,0.94,0.81,
3.464,-0.77,0.70,3.04,-0.86,0.94,0.81,
3.465,-0.77,0.70,3.04,-0.86,0.92,0.81,
3.467,-0.77,0.70,3.04,-0.85,0.89,0.82,
3.469,-0.77,0.70,3.04,-0.84,0.88,0.83,
3.47,-0.77,0.70,3.04,-0.83,0.86,0.83,
3.472,-0.77,0.70,3.04,-0.82,0.83,0.84,
3.474,-1.23,0.62,3.86,-0.82,0.83,0.84,
3.474,-1.23,0.62,3.86,-0.81,0.81,0.85,
3.477,-1.23,0.62,3.86,-0.79,0.77,0.87,
3.478,-1.23,0.62,3.86,-0.78,0.76,0.87,
3.48,-1.23,0.62,3.86,-0.76,0.73,0.88,
3.482,-1.23,0.62,3.86,-0.75,0.70,0.89,
3.485,-1.41,0.63,4.29,-0.75,0.70,0.89,
3.485,-1.41,0.63,4.29,-0.73,0.67,0.90,
3.487,-1.41,0.63,4.29,-0.71,0.62,0.91,
3.489,-1.41,0.63,4.29,-0.70,0.61,0.92,
3.491,-1.41,0.63,4.29,-0.69,0.57,0.93,
3.492,-1.41,0.63,4.29,-0.68,0.54,0.94,
3.494,-1.40,0.62,4.35,-0.68,0.54,0.94,
3.495,-1.40,0.62,4.35,-0.67,0.50,0.95,
3.497,-1.40,0.62,4.35,-0.67,0.44,0.96,
3.498,-1.40,0.62,4.35,-0.66,0.42,0.97,
3.5,-1.40,0.62,4.35,-0.66,0.38,0.98,
3.505,-1.40,0.62,4.35,-0.66,0.34,0.98,
3.506,-1.09,0.69,4.20,-0.66,0.34,0.98,
3.506,-1.09,0.69,4.20,-0.67,0.30,0.99,
3.507,-1.09,0.69,4.20,-0.68,0.23,0.99,
3.508,-1.09,0.69,4.20,-0.68,0.21,0.99,
3.51,-1.09,0.69,4.20,-0.69,0.17,0.99,
3.512,-1.09,0.69,4.20,-0.70,0.13,0.99,
3.514,-0.55,0.83,4.07,-0.70,0.13,0.99,
3.515,-0.55,0.83,4.07,-0.71,0.10,0.98,
3.517,-0.55,0.83,4.07,-0.74,0.04,0.97,
3.521,-0.55,0.83,4.07,-0.75,0.03,0.96,
3.523,-0.55,0.83,4.07,-0.76,-0.00,0.95,
3.523,-0.55,0.83,4.07,-0.79,-0.04,0.93,
3.525,0.19,0.98,4.03,-0.79,-0.04,0.93,
3.526,0.19,0.98,4.03,-0.81,-0.07,0.91,
3.527,0.19,0.98,4.03,-0.85,-0.10,0.88,
3.528,0.19,0.98,4.03,-0.87,-0.12,0.87,
3.53,0.19,0.98,4.03,-0.90,-0.14,0.84,
3.532,0.19,0.98,4.03,-0.92,-0.15,0.82,
3.548,0.97,1.01,4.34,-0.92,-0.15,0.82,
3.55,0.97,1.01,4.34,-0.95,-0.17,0.79,
3.55,0.97,1.01,4.34,-0.98,-0.17,0.74,
3.551,0.97,1.01,4.34,-1.00,-0.17,0.73,
3.551,0.97,1.01,4.34,-1.02,-0.16,0.70,
3.551,0.97,1.01,4.34,-1.03,-0.14,0.66,
3.552,1.53,0.78,5.07,-1.03,-0.14,0.66,
3.552,1.53,0.78,5.07,-1.04,-0.12,0.64,
3.553,1.53,0.78,5.07,-1.06,-0.07,0.60,
3.553,1.53,0.78,5.07,-1.06,-0.05,0.58,
3.553,1.53,0.78,5.07,-1.06,-0.01,0.56,
3.586,1.53,0.78,5.07,-1.05,0.03,0.54,
3.59,1.56,0.40,6.08,-1.05,0.03,0.54,
3.591,1.56,0.40,6.08,-1.05,0.08,0.53,
3.591,1.56,0.40,6.08,-1.03,0.15,0.51,
3.592,1.56,0.40,6.08,-1.02,0.18,0.50,
3.592,1.56,0.40,6.08,-1.00,0.23,0.50,
3.593,1.56,0.40,6.08,-0.97,0.29,0.50,
3.593,1.24,-0.06,6.97,-0.97,0.29,0.50,
3.593,1.24,-0.06,6.97,-0.94,0.35,0.49,
3.594,1.24,-0.06,6.97,-0.88,0.45,0.50,
3.594,1.24,-0.06,6.97,-0.86,0.48,0.50,
3.595,1.24,-0.06,6.97,-0.81,0.54,0.50,
3.595,1.24,-0.06,6.97,-0.76,0.61,0.51,
3.596,0.77,-0.63,7.58,-0.76,0.61,0.51,
3.597,0.77,-0.63,7.58,-0.71,0.67,0.52,
3.597,0.77,-0.63,7.58,-0.62,0.75,0.54,
3.597,0.77,-0.63,7.58,-0.59,0.78,0.55,
3.598,0.77,-0.63,7.58,-0.53,0.82,0.57,
3.598,0.77,-0.63,7.58,-0.46,0.86,0.59,
3.599,0.17,-1.02,7.56,-0.46,0.86,0.59,
3.599,0.17,-1.02,7.56,-0.40,0.90,0.61,
3.6,0.17,-1.02,7.56,-0.30,0.95,0.65,
3.601,0.17,-1.02,7.56,-0.26,0.96,0.67,
3.601,0.17,-1.02,7.56,-0.20,0.98,0.70,
3.601,0.17,-1.02,7.56,-0.14,1.00,0.72,
3.633,-0.36,-1.30,6.80,-0.14,1.00,0.72,
3.633,-0.36,-1.30,6.80,-0.07,1.01,0.75,
3.633,-0.36,-1.30,6.80,0.01,1.01,0.80,
3.633,-0.36,-1.30,6.80,0.04,1.01,0.82,
3.634,-0.36,-1.30,6.80,0.10,1.00,0.85,
3.634,-0.36,-1.30,6.80,0.15,0.99,0.88,
3.634,-0.55,-1.29,5.44,0.15,0.99,0.88,
3.635,-0.55,-1.29,5.44,0.19,0.98,0.91,
3.635,-0.55,-1.29,5.44,0.26,0.94,0.94,
3.635,-0.55,-1.29,5.44,0.28,0.93,0.95,
3.635,-0.55,-1.29,5.44,0.32,0.90,0.98,
3.636,-0.55,-1.29,5.44,0.36,0.86,0.99,
3.636,-0.36,-1.27,3.99,0.36,0.86,0.99,
3.636,-0.36,-1.27,3.99,0.39,0.81,1.01,
3.636,-0.36,-1.27,3.99,0.44,0.73,1.04,
3.637,-0.36,-1.27,3.99,0.45,0.70,1.05,
3.637,-0.36,-1.27,3.99,0.48,0.64,1.06,
3.637,-0.36,-1.27,3.99,0.51,0.57,1.07,
3.637,-0.06,-1.07,2.73,0.51,0.57,1.07,
3.638,-0.06,-1.07,2.73,0.53,0.50,1.08,
3.638,-0.06,-1.07,2.73,0.56,0.39,1.09,
3.638,-0.06,-1.07,2.73,0.57,0.35,1.10,
3.638,-0.06,-1.07,2.73,0.59,0.28,1.10,
3.639,-0.06,-1.07,2.73,0.61,0.20,1.10,
3.639,0.43,-0.93,1.77,0.61,0.20,1.10,
3.639,0.43,-0.93,1.77,0.62,0.12,1.10,
3.64,0.43,-0.93,1.77,0.64,0.01,1.09,
3.64,0.43,-0.93,1.77,0.65,-0.03,1.09,
3.64,0.43,-0.93,1.77,0.66,-0.11,1.08,
3.651,0.43,-0.93,1.77,0.67,-0.18,1.07,
3.652,1.06,-0.82,1.05,0.67,-0.18,1.07,
3.652,1.06,-0.82,1.05,0.68,-0.25,1.06,
3.652,1.06,-0.82,1.05,0.69,-0.35,1.04,
3.653,1.06,-0.82,1.05,0.69,-0.38,1.03,
3.653,1.06,-0.82,1.05,0.70,-0.44,1.01,
3.653,1.06,-0.82,1.05,0.70,-0.49,1.00,
3.657,1.68,-0.83,0.63,0.70,-0.49,1.00,
3.657,1.68,-0.83,0.63,0.71,-0.53,0.98,
3.658,1.68,-0.83,0.63,0.71,-0.59,0.95,
3.658,1.68,-0.83,0.63,0.71,-0.61,0.94,
3.662,1.68,-0.83,0.63,0.71,-0.64,0.92,
3.663,1.68,-0.83,0.63,0.70,-0.67,0.90,
3.667,2.13,-0.83,0.12,0.70,-0.67,0.90,
3.667,2.13,-0.83,0.12,0.70,-0.69,0.87,
3.667,2.13,-0.83,0.12,0.69,-0.72,0.84,
3.672,2.13,-0.83,0.12,0.68,-0.73,0.82,
3.673,2.13,-0.83,0.12,0.67,-0.75,0.80,
3.676,2.13,-0.83,0.12,0.66,-0.76,0.77,
3.677,2.57,-0.89,-0.35,0.66,-0.76,0.77,
3.677,2.57,-0.89,-0.35,0.64,-0.77,0.74,
3.677,2.57,-0.89,-0.35,0.62,-0.78,0.69,
3.68,2.57,-0.89,-0.35,0.62,-0.78,0.68,
3.681,2.57,-0.89,-0.35,0.60,-0.78,0.64,
3.684,2.57,-0.89,-0.35,0.58,-0.78,0.61,
3.685,2.89,-0.89,-0.71,0.58,-0.78,0.61,
3.685,2.89,-0.89,-0.71,0.56,-0.77,0.58,
3.694,2.89,-0.89,-0.71,0.54,-0.75,0.52,
3.695,2.89,-0.89,-0.71,0.53,-0.74,0.50,
3.695,2.89,-0.89,-0.71,0.51,-0.72,0.47,
3.696,2.89,-0.89,-0.71,0.49,-0.70,0.42,
3.696,3.28,-1.00,-0.95,0.49,-0.70,0.42,
3.696,3.28,-1.00,-0.95,0.47,-0.67,0.39,
3.697,3.28,-1.00,-0.95,0.44,-0.63,0.33,
3.698,3.28,-1.00,-0.95,0.44,-0.61,0.31,
3.7,3.28,-1.00,-0.95,0.41,-0.58,0.27,
3.727,3.28,-1.00,-0.95,0.40,-0.55,0.23,
3.728,3.33,-1.08,-1.18,0.40,-0.55,0.23,
3.728,3.33,-1.08,-1.18,0.38,-0.51,0.19,
3.728,3.33,-1.08,-1.18,0.35,-0.45,0.12,
3.729,3.33,-1.08,-1.18,0.33,-0.41,0.08,
3.729,3.33,-1.08,-1.18,0.33,-0.39,0.07,
3.729,3.33,-1.08,-1.18,0.31,-0.36,0.03,
3.729,3.36,-1.22,-1.33,0.31,-0.36,0.03,
3.729,3.36,-1.22,-1.33,0.29,-0.32,-0.01,
3.729,3.36,-1.22,-1.33,0.27,-0.24,-0.09,
3.729,3.36,-1.22,-1.33,0.25,-0.21,-0.13,
3.73,3.36,-1.22,-1.33,0.24,-0.19,-0.15,
3.73,3.36,-1.22,-1.33,0.24,-0.18,-0.16,
3.73,3.01,-1.34,-1.58,0.24,-0.18,-0.16,
3.73,3.01,-1.34,-1.58,0.22,-0.14,-0.20,
3.73,3.01,-1.34,-1.58,0.20,-0.10,-0.24,
3.73,3.01,-1.34,-1.58,0.20,-0.09,-0.26,
3.731,3.01,-1.34,-1.58,0.19,-0.06,-0.29,
3.733,3.01,-1.34,-1.58,0.17,-0.04,-0.32,
3.736,2.57,-1.42,-1.85,0.17,-0.04,-0.32,
3.736,2.57,-1.42,-1.85,0.16,-0.02,-0.34,
3.741,2.57,-1.42,-1.85,0.14,0.00,-0.38,
3.741,2.57,-1.42,-1.85,0.14,0.01,-0.39,
3.741,2.57,-1.42,-1.85,0.12,0.02,-0.41,
3.744,2.57,-1.42,-1.85,0.11,0.03,-0.43,
3.745,1.96,-1.51,-2.19,0.11,0.03,-0.43,
3.745,1.96,-1.51,-2.19,0.10,0.04,-0.45,
3.748,1.96,-1.51,-2.19,0.08,0.04,-0.47,
3.748,1.96,-1.51,-2.19,0.07,0.05,-0.48,
3.752,1.96,-1.51,-2.19,0.06,0.05,-0.49,
3.752,1.96,-1.51,-2.19,0.05,0.04,-0.51,
3.756,1.53,-1.61,-2.53,0.05,0.04,-0.51,
3.757,1.53,-1.61,-2.53,0.04,0.04,-0.52,
3.757,1.53,-1.61,-2.53,0.01,0.03,-0.54,
3.76,1.53,-1.61,-2.53,0.01,0.02,-0.55,
3.781,1.53,-1.61,-2.53,-0.00,0.01,-0.56,
3.781,1.53,-1.61,-2.53,-0.01,-0.00,-0.57,
3.781,1.08,-1.65,-2.73,-0.01,-0.00,-0.57,
3.781,1.08,-1.65,-2.73,-0.02,-0.02,-0.58,
3.782,1.08,-1.65,-2.73,-0.03,-0.05,-0.60,
3.782,1.08,-1.65,-2.73,-0.04,-0.06,-0.60,
3.782,1.08,-1.65,-2.73,-0.04,-0.08,-0.61,
3.782,1.08,-1.65,-2.73,-0.04,-0.10,-0.62,
3.782,0.66,-1.80,-2.60,-0.04,-0.10,-0.62,
3.783,0.66,-1.80,-2.60,-0.05,-0.12,-0.62,
3.783,0.66,-1.80,-2.60,-0.04,-0.15,-0.62,
3.783,0.66,-1.80,-2.60,-0.04,-0.17,-0.62,
3.783,0.66,-1.80,-2.60,-0.03,-0.19,-0.63,
3.783,0.66,-1.80,-2.60,-0.03,-0.22,-0.62,
3.789,0.21,-1.98,-2.32,-0.03,-0.22,-0.62,
3.789,0.21,-1.98,-2.32,-0.02,-0.24,-0.62,
3.789,0.21,-1.98,-2.32,0.01,-0.28,-0.61,
3.79,0.21,-1.98,-2.32,0.01,-0.29,-0.60,
3.791,0.21,-1.98,-2.32,0.03,-0.31,-0.59,
3.794,0.21,-1.98,-2.32,0.05,-0.34,-0.57,
3.794,0.21,-1.98,-2.32,0.07,-0.35,-0.56,
3.795,-0.23,-2.27,-1.88,0.07,-0.35,-0.56,
3.797,-0.23,-2.27,-1.88,0.11,-0.38,-0.53,
3.798,-0.23,-2.27,-1.88,0.12,-0.38,-0.52,
3.801,-0.23,-2.27,-1.88,0.14,-0.39,-0.50,
3.803,-0.23,-2.27,-1.88,0.17,-0.40,-0.48,
3.805,-0.51,-2.45,-1.61,0.17,-0.40,-0.48,
3.805,-0.51,-2.45,-1.61,0.21,-0.41,-0.45,
3.807,-0.51,-2.45,-1.61,0.25,-0.42,-0.41,
3.809,-0.51,-2.45,-1.61,0.26,-0.43,-0.40,
3.81,-0.51,-2.45,-1.61,0.29,-0.43,-0.37,
3.812,-0.51,-2.45,-1.61,0.33,-0.44,-0.34,
3.814,-0.67,-2.52,-1.55,0.33,-0.44,-0.34,
3.815,-0.67,-2.52,-1.55,0.36,-0.45,-0.31,
3.822,-0.67,-2.52,-1.55,0.40,-0.46,-0.27,
3.822,-0.67,-2.52,-1.55,0.42,-0.47,-0.26,
3.823,-0.67,-2.52,-1.55,0.44,-0.47,-0.23,
3.823,-0.67,-2.52,-1.55,0.47,-0.48,-0.21,
3.824,-0.53,-2.35,-1.85,0.47,-0.48,-0.21,
3.825,-0.53,-2.35,-1.85,0.49,-0.49,-0.19,
3.827,-0.53,-2.35,-1.85,0.52,-0.50,-0.15,
3.828,-0.53,-2.35,-1.85,0.53,-0.51,-0.14,
3.83,-0.53,-2.35,-1.85,0.54,-0.52,-0.13,
3.832,-0.53,-2.35,-1.85,0.55,-0.52,-0.11,
3.855,-0.19,-2.15,-2.38,0.55,-0.52,-0.11,
3.855,-0.19,-2.15,-2.38,0.55,-0.53,-0.10,
3.855,-0.19,-2.15,-2.38,0.56,-0.54,-0.08,
3.856,-0.19,-2.15,-2.38,0.57,-0.55,-0.08,
3.856,-0.19,-2.15,-2.38,0.57,-0.55,-0.07,
3.856,-0.19,-2.15,-2.38,0.57,-0.56,-0.07,
3.856,0.28,-1.88,-2.98,0.57,-0.56,-0.07,
3.856,0.28,-1.88,-2.98,0.56,-0.56,-0.07,
3.856,0.28,-1.88,-2.98,0.56,-0.57,-0.07,
3.856,0.28,-1.88,-2.98,0.56,-0.57,-0.07,
3.857,0.28,-1.88,-2.98,0.56,-0.57,-0.07,
3.857,0.28,-1.88,-2.98,0.56,-0.57,-0.07,
3.857,0.48,-1.50,-3.35,0.56,-0.57,-0.07,
3.857,0.48,-1.50,-3.35,0.55,-0.57,-0.08,
3.857,0.48,-1.50,-3.35,0.54,-0.58,-0.09,
3.859,0.48,-1.50,-3.35,0.54,-0.59,-0.09,
3.86,0.48,-1.50,-3.35,0.52,-0.59,-0.10,
3.862,0.48,-1.50,-3.35,0.51,-0.61,-0.12,
3.866,0.89,-1.51,-3.80,0.51,-0.61,-0.12,
3.866,0.89,-1.51,-3.80,0.50,-0.62,-0.13,
3.87,0.89,-1.51,-3.80,0.47,-0.63,-0.16,
3.871,0.89,-1.51,-3.80,0.45,-0.64,-0.16,
3.871,0.89,-1.51,-3.80,0.44,-0.65,-0.18,
3.874,0.89,-1.51,-3.80,0.42,-0.66,-0.19,
3.877,1.01,-1.49,-4.15,0.42,-0.66,-0.19,
3.877,1.01,-1.49,-4.15,0.39,-0.66,-0.21,
3.878,1.01,-1.49,-4.15,0.37,-0.67,-0.23,
3.881,1.01,-1.49,-4.15,0.36,-0.67,-0.23,
3.881,1.01,-1.49,-4.15,0.34,-0.67,-0.24,
3.884,1.01,-1.49,-4.15,0.32,-0.67,-0.26,
3.888,0.82,-1.31,-4.14,0.32,-0.67,-0.26,
3.891,0.82,-1.31,-4.14,0.29,-0.67,-0.27,
3.891,0.82,-1.31,-4.14,0.27,-0.67,-0.28,
3.891,0.82,-1.31,-4.14,0.25,-0.66,-0.29,
3.892,0.82,-1.31,-4.14,0.24,-0.66,-0.30,
3.892,0.82,-1.31,-4.14,0.22,-0.65,-0.31,
3.894,0.69,-1.17,-4.17,0.22,-0.65,-0.31,
3.895,0.69,-1.17,-4.17,0.20,-0.64,-0.32,
3.897,0.69,-1.17,-4.17,0.16,-0.63,-0.33,
3.898,0.69,-1.17,-4.17,0.15,-0.63,-0.33,
3.9,0.69,-1.17,-4.17,0.13,-0.62,-0.34,
3.902,0.69,-1.17,-4.17,0.11,-0.61,-0.35,
3.904,0.56,-1.12,-4.21,0.11,-0.61,-0.35,
3.904,0.56,-1.12,-4.21,0.08,-0.60,-0.36,
3.907,0.56,-1.12,-4.21,0.04,-0.58,-0.37,
3.909,0.56,-1.12,-4.21,0.02,-0.57,-0.38,
3.91,0.56,-1.12,-4.21,0.00,-0.57,-0.38,
3.912,0.56,-1.12,-4.21,-0.03,-0.56,-0.39,
3.914,0.46,-0.97,-4.24,-0.03,-0.56,-0.39,
3.915,0.46,-0.97,-4.24,-0.05,-0.55,-0.40,
3.917,0.46,-0.97,-4.24,-0.09,-0.54,-0.41,
3.919,0.46,-0.97,-4.24,-0.10,-0.53,-0.41,
3.921,0.46,-0.97,-4.24,-0.13,-0.53,-0.42,
3.922,0.46,-0.97,-4.24,-0.15,-0.52,-0.43,
3.924,0.32,-0.81,-4.01,-0.15,-0.52,-0.43,
3.924,0.32,-0.81,-4.01,-0.17,-0.51,-0.43,
3.941,0.32,-0.81,-4.01,-0.21,-0.51,-0.45,
3.941,0.32,-0.81,-4.01,-0.22,-0.51,-0.45,
3.941,0.32,-0.81,-4.01,-0.24,-0.51,-0.46,
3.942,0.32,-0.81,-4.01,-0.26,-0.51,-0.47,
3.942,0.16,-0.59,-3.76,-0.26,-0.51,-0.47,
3.942,0.16,-0.59,-3.76,-0.28,-0.51,-0.47,
3.942,0.16,-0.59,-3.76,-0.32,-0.51,-0.48,
3.943,0.16,-0.59,-3.76,-0.34,-0.51,-0.49,
3.943,0.16,-0.59,-3.76,-0.35,-0.51,-0.49,
3.943,0.16,-0.59,-3.76,-0.37,-0.51,-0.50,
3.953,-0.07,-0.43,-3.53,-0.37,-0.51,-0.50,
3.954,-0.07,-0.43,-3.53,-0.39,-0.51,-0.50,
3.954,-0.07,-0.43,-3.53,-0.42,-0.51,-0.51,
3.954,-0.07,-0.43,-3.53,-0.43,-0.51,-0.51,
3.954,-0.07,-0.43,-3.53,-0.45,-0.51,-0.51,
3.955,-0.07,-0.43,-3.53,-0.47,-0.50,-0.51,
3.991,-0.30,-0.23,-3.31,-0.47,-0.50,-0.51,
3.991,-0.30,-0.23,-3.31,-0.49,-0.50,-0.51,
3.991,-0.30,-0.23,-3.31,-0.51,-0.50,-0.51,
3.992,-0.30,-0.23,-3.31,-0.52,-0.50,-0.51,
3.992,-0.30,-0.23,-3.31,-0.54,-0.50,-0.51,
3.992,-0.30,-0.23,-3.31,-0.56,-0.50,-0.50,
3.992,-0.57,-0.10,-2.92,-0.56,-0.50,-0.50,
3.992,-0.57,-0.10,-2.92,-0.57,-0.51,-0.49,
3.992,-0.57,-0.10,-2.92,-0.59,-0.51,-0.48,
3.993,-0.57,-0.10,-2.92,-0.60,-0.51,-0.48,
3.993,-0.57,-0.10,-2.92,-0.61,-0.51,-0.47,
3.993,-0.57,-0.10,-2.92,-0.62,-0.51,-0.46,
3.993,-0.78,0.08,-2.45,-0.62,-0.51,-0.46,
3.993,-0.78,0.08,-2.45,-0.63,-0.52,-0.44,
3.993,-0.78,0.08,-2.45,-0.64,-0.51,-0.43,
3.994,-0.78,0.08,-2.45,-0.64,-0.52,-0.42,
3.994,-0.78,0.08,-2.45,-0.65,-0.52,-0.41,
3.994,-0.78,0.08,-2.45,-0.65,-0.52,-0.40,
3.994,-0.75,0.23,-1.92,-0.65,-0.52,-0.40,
3.994,-0.75,0.23,-1.92,-0.65,-0.51,-0.39,
3.995,-0.75,0.23,-1.92,-0.65,-0.51,-0.37,
3.995,-0.75,0.23,-1.92,-0.65,-0.51,-0.37,
3.995,-0.75,0.23,-1.92,-0.65,-0.50,-0.36,
3.995,-0.75,0.23,-1.92,-0.65,-0.50,-0.35,
3.995,-0.66,0.49,-1.46,-0.65,-0.50,-0.35,
3.995,-0.66,0.49,-1.46,-0.65,-0.49,-0.35,
3.999,-0.66,0.49,-1.46,-0.65,-0.48,-0.34,
4.0,-0.66,0.49,-1.46,-0.65,-0.47,-0.34,
4.005,-0.66,0.49,-1.46,-0.64,-0.46,-0.33,
4.006,-0.66,0.49,-1.46,-0.64,-0.45,-0.33,
4.006,-0.58,0.66,-1.02,-0.64,-0.45,-0.33,
4.006,-0.58,0.66,-1.02,-0.64,-0.44,-0.32,
4.007,-0.58,0.66,-1.02,-0.63,-0.41,-0.31,
4.008,-0.58,0.66,-1.02,-0.63,-0.40,-0.31,
4.01,-0.58,0.66,-1.02,-0.63,-0.38,-0.30,
4.012,-0.58,0.66,-1.02,-0.63,-0.36,-0.29,
4.014,-0.63,0.87,-0.76,-0.63,-0.36,-0.29,
4.015,-0.63,0.87,-0.76,-0.62,-0.34,-0.29,
4.017,-0.63,0.87,-0.76,-0.62,-0.30,-0.28,
4.019,-0.63,0.87,-0.76,-0.62,-0.29,-0.27,
4.02,-0.63,0.87,-0.76,-0.62,-0.26,-0.26,
4.023,-0.63,0.87,-0.76,-0.62,-0.24,-0.26,
4.024,-0.71,1.04,-0.51,-0.62,-0.24,-0.26,
4.024,-0.71,1.04,-0.51,-0.62,-0.22,-0.25,
4.027,-0.71,1.04,-0.51,-0.62,-0.18,-0.23,
4.029,-0.71,1.04,-0.51,-0.62,-0.17,-0.23,
4.03,-0.71,1.04,-0.51,-0.62,-0.15,-0.22,
4.033,-0.71,1.04,-0.51,-0.61,-0.13,-0.20,
4.034,-0.89,1.22,-0.32,-0.61,-0.13,-0.20,
4.035,-0.89,1.22,-0.32,-0.61,-0.10,-0.19,
4.038,-0.89,1.22,-0.32,-0.61,-0.08,-0.17,
4.038,-0.89,1.22,-0.32,-0.61,-0.06,-0.16,
4.04,-0.89,1.22,-0.32,-0.61,-0.06,-0.15,
4.042,-0.89,1.22,-0.32,-0.61,-0.04,-0.14,
4.044,-1.07,1.33,-0.01,-0.61,-0.04,-0.14,
4.044,-1.07,1.33,-0.01,-0.60,-0.04,-0.13,
4.047,-1.07,1.33,-0.01,-0.59,-0.02,-0.11,
4.048,-1.07,1.33,-0.01,-0.58,-0.02,-0.09,
4.05,-1.07,1.33,-0.01,-0.58,-0.02,-0.08,
4.052,-1.07,1.33,-0.01,-0.57,-0.01,-0.07,
4.054,-1.22,1.42,0.42,-0.57,-0.01,-0.07,
4.055,-1.22,1.42,0.42,-0.56,-0.01,-0.05,
4.057,-1.22,1.42,0.42,-0.54,-0.01,-0.03,
4.058,-1.22,1.42,0.42,-0.52,-0.02,-0.02,
4.06,-1.22,1.42,0.42,-0.52,-0.02,-0.01,
4.062,-1.22,1.42,0.42,-0.50,-0.03,0.00,
4.064,-1.32,1.45,0.86,-0.50,-0.03,0.00,
4.064,-1.32,1.45,0.86,-0.48,-0.03,0.02,
4.076,-1.32,1.45,0.86,-0.44,-0.05,0.05,
4.077,-1.32,1.45,0.86,-0.42,-0.06,0.07,
4.077,-1.32,1.45,0.86,-0.41,-0.07,0.07,
4.077,-1.32,1.45,0.86,-0.40,-0.07,0.08,
4.077,-1.46,1.45,1.26,-0.40,-0.07,0.08,
4.077,-1.46,1.45,1.26,-0.37,-0.08,0.10,
4.085,-1.46,1.45,1.26,-0.34,-0.11,0.12,
4.085,-1.46,1.45,1.26,-0.31,-0.12,0.14,
4.085,-1.46,1.45,1.26,-0.30,-0.13,0.14,
4.085,-1.46,1.45,1.26,-0.28,-0.14,0.16,
4.085,-1.49,1.39,1.61,-0.28,-0.14,0.16,
4.085,-1.49,1.39,1.61,-0.25,-0.16,0.18,
4.089,-1.49,1.39,1.61,-0.22,-0.18,0.20,
4.089,-1.49,1.39,1.61,-0.19,-0.19,0.21,
4.092,-1.49,1.39,1.61,-0.18,-0.19,0.22,
4.092,-1.49,1.39,1.61,-0.16,-0.20,0.24,
4.108,-1.51,1.33,1.77,-0.16,-0.20,0.24,
4.109,-1.51,1.33,1.77,-0.14,-0.21,0.25,
4.109,-1.51,1.33,1.77,-0.10,-0.21,0.28,
4.109,-1.51,1.33,1.77,-0.09,-0.21,0.29,
4.109,-1.51,1.33,1.77,-0.07,-0.21,0.30,
4.109,-1.51,1.33,1.77,-0.05,-0.20,0.32,
4.109,-1.53,1.30,1.91,-0.05,-0.20,0.32,
4.11,-1.53,1.30,1.91,-0.03,-0.19,0.33,
4.11,-1.53,1.30,1.91,-0.01,-0.18,0.35,
4.11,-1.53,1.30,1.91,0.01,-0.16,0.37,
4.11,-1.53,1.30,1.91,0.02,-0.15,0.38,
4.115,-1.53,1.30,1.91,0.03,-0.13,0.40,
4.119,-1.61,1.24,1.94,0.03,-0.13,0.40,
4.119,-1.61,1.24,1.94,0.04,-0.11,0.41,
4.119,-1.61,1.24,1.94,0.06,-0.07,0.43,
4.12,-1.61,1.24,1.94,0.07,-0.04,0.45,
4.12,-1.61,1.24,1.94,0.07,-0.02,0.46,
4.124,-1.61,1.24,1.94,0.08,0.01,0.47,
4.124,-1.69,1.18,1.80,0.08,0.01,0.47,
4.124,-1.69,1.18,1.80,0.08,0.05,0.49,
4.127,-1.69,1.18,1.80,0.08,0.11,0.51,
4.128,-1.69,1.18,1.80,0.08,0.15,0.53,
4.131,-1.69,1.18,1.80,0.07,0.17,0.54,
4.134,-1.69,1.18,1.80,0.07,0.21,0.55,
4.134,-1.92,1.14,1.58,0.07,0.21,0.55,
4.135,-1.92,1.14,1.58,0.06,0.25,0.57,
4.138,-1.92,1.14,1.58,0.05,0.33,0.60,
4.139,-1.92,1.14,1.58,0.04,0.38,0.61,
4.142,-1.92,1.14,1.58,0.04,0.40,0.62,
4.142,-1.92,1.14,1.58,0.03,0.45,0.65,
4.146,-2.19,1.16,1.47,0.03,0.45,0.65,
4.146,-2.19,1.16,1.47,0.02,0.50,0.67,
4.147,-2.19,1.16,1.47,0.00,0.58,0.70,
4.15,-2.19,1.16,1.47,-0.01,0.63,0.72,
4.15,-2.19,1.16,1.47,-0.01,0.65,0.73,
4.154,-2.19,1.16,1.47,-0.02,0.70,0.76,
4.154,-2.66,1.29,1.45,-0.02,0.70,0.76,
4.155,-2.66,1.29,1.45,-0.03,0.74,0.79,
4.158,-2.66,1.29,1.45,-0.04,0.78,0.83,
4.158,-2.66,1.29,1.45,-0.05,0.79,0.86,
4.162,-2.66,1.29,1.45,-0.06,0.79,0.88,
4.162,-2.66,1.29,1.45,-0.07,0.79,0.90,
4.166,-3.03,1.64,1.41,-0.07,0.79,0.90,
4.166,-3.03,1.64,1.41,-0.09,0.77,0.93,
4.173,-3.03,1.64,1.41,-0.12,0.73,0.96,
4.173,-3.03,1.64,1.41,-0.15,0.69,0.98,
4.173,-3.03,1.64,1.41,-0.17,0.66,0.98,
4.175,-3.03,1.64,1.41,-0.20,0.61,0.99,
4.175,-2.83,1.92,1.32,-0.20,0.61,0.99,
4.175,-2.83,1.92,1.32,-0.24,0.56,0.99,
4.177,-2.83,1.92,1.32,-0.29,0.46,0.99,
4.178,-2.83,1.92,1.32,-0.32,0.40,0.97,
4.18,-2.83,1.92,1.32,-0.34,0.37,0.96,
4.183,-2.83,1.92,1.32,-0.38,0.30,0.94,
4.184,-1.83,2.01,1.62,-0.38,0.30,0.94,
4.184,-1.83,2.01,1.62,-0.42,0.24,0.91,
4.188,-1.83,2.01,1.62,-0.46,0.16,0.85,
4.189,-1.83,2.01,1.62,-0.49,0.10,0.80,
4.19,-1.83,2.01,1.62,-0.51,0.08,0.77,
4.193,-1.83,2.01,1.62,-0.53,0.03,0.72,
4.194,-0.66,1.93,2.59,-0.53,0.03,0.72,
4.194,-0.66,1.93,2.59,-0.55,-0.01,0.66,
4.199,-0.66,1.93,2.59,-0.58,-0.05,0.56,
4.199,-0.66,1.93,2.59,-0.59,-0.07,0.49,
4.205,-0.66,1.93,2.59,-0.60,-0.08,0.46,
4.205,-0.66,1.93,2.59,-0.61,-0.08,0.40,
4.206,0.06,1.56,3.81,-0.61,-0.08,0.40,
4.206,0.06,1.56,3.81,-0.61,-0.07,0.33,
4.214,0.06,1.56,3.81,-0.62,-0.04,0.24,
4.214,0.06,1.56,3.81,-0.62,-0.01,0.19,
4.214,0.06,1.56,3.81,-0.62,0.01,0.16,
4.214,0.06,1.56,3.81,-0.62,0.06,0.11,
4.215,-0.03,0.60,4.92,-0.62,0.06,0.11,
4.215,-0.03,0.60,4.92,-0.61,0.11,0.07,
4.225,-0.03,0.60,4.92,-0.59,0.22,0.02,
4.225,-0.03,0.60,4.92,-0.57,0.31,-0.00,
4.225,-0.03,0.60,4.92,-0.56,0.36,-0.01,
4.226,-0.03,0.60,4.92,-0.54,0.46,-0.03,
4.226,-0.86,-0.63,5.72,-0.54,0.46,-0.03,
4.226,-0.86,-0.63,5.72,-0.51,0.57,-0.04,
4.227,-0.86,-0.63,5.72,-0.47,0.74,-0.03,
4.228,-0.86,-0.63,5.72,-0.43,0.87,-0.02,
4.23,-0.86,-0.63,5.72,-0.42,0.93,-0.02,
4.232,-0.86,-0.63,5.72,-0.38,1.06,0.00,
4.234,-2.08,-1.90,5.97,-0.38,1.06,0.00,
4.234,-2.08,-1.90,5.97,-0.34,1.18,0.03,
4.237,-2.08,-1.90,5.97,-0.28,1.37,0.08,
4.242,-2.08,-1.90,5.97,-0.23,1.49,0.13,
4.242,-2.08,-1.90,5.97,-0.21,1.55,0.15,
4.242,-2.08,-1.90,5.97,-0.17,1.66,0.21,
4.244,-3.48,-2.66,5.40,-0.17,1.66,0.21,
4.244,-3.48,-2.66,5.40,-0.12,1.77,0.27,
4.247,-3.48,-2.66,5.40,-0.06,1.91,0.38,
4.249,-3.48,-2.66,5.40,-0.02,1.99,0.45,
4.25,-3.48,-2.66,5.40,0.00,2.03,0.49,
4.253,-3.48,-2.66,5.40,0.04,2.09,0.57,
4.254,-4.78,-3.01,4.09,0.04,2.09,0.57,
4.255,-4.78,-3.01,4.09,0.08,2.14,0.65,
4.258,-4.78,-3.01,4.09,0.15,2.22,0.82,
4.258,-4.78,-3.01,4.09,0.17,2.22,0.86,
4.279,-4.78,-3.01,4.09,0.18,2.23,0.90,
4.279,-4.78,-3.01,4.09,0.21,2.24,0.97,
4.28,-5.17,-2.98,2.43,0.21,2.24,0.97,
4.28,-5.17,-2.98,2.43,0.24,2.23,1.05,
4.281,-5.17,-2.98,2.43,0.27,2.20,1.16,
4.281,-5.17,-2.98,2.43,0.29,2.16,1.22,
4.281,-5.17,-2.98,2.43,0.30,2.15,1.25,
4.282,-5.17,-2.98,2.43,0.31,2.10,1.32,
4.282,-4.98,-2.72,0.83,0.31,2.10,1.32,
4.283,-4.98,-2.72,0.83,0.32,2.05,1.38,
4.283,-4.98,-2.72,0.83,0.34,1.96,1.45,
4.284,-4.98,-2.72,0.83,0.34,1.89,1.50,
4.284,-4.98,-2.72,0.83,0.35,1.85,1.52,
4.284,-4.98,-2.72,0.83,0.35,1.77,1.57,
4.285,-4.20,-2.14,-0.51,0.35,1.77,1.57,
4.285,-4.20,-2.14,-0.51,0.35,1.68,1.61,
4.294,-4.20,-2.14,-0.51,0.34,1.55,1.66,
4.294,-4.20,-2.14,-0.51,0.34,1.40,1.70,
4.295,-4.20,-2.14,-0.51,0.34,1.40,1.70,
4.295,-4.20,-2.14,-0.51,0.33,1.30,1.72,
4.295,-3.44,-1.67,-1.41,0.33,1.30,1.72,
4.296,-3.44,-1.67,-1.41,0.32,1.20,1.75,
4.297,-3.44,-1.67,-1.41,0.31,1.04,1.78,
4.299,-3.44,-1.67,-1.41,0.30,0.94,1.80,
4.302,-3.44,-1.67,-1.41,0.30,0.89,1.80,
4.302,-3.44,-1.67,-1.41,0.29,0.78,1.82,
4.304,-2.58,-1.28,-1.78,0.29,0.78,1.82,
4.304,-2.58,-1.28,-1.78,0.27,0.68,1.83,
4.307,-2.58,-1.28,-1.78,0.25,0.54,1.85,
4.308,-2.58,-1.28,-1.78,0.24,0.45,1.85,
4.31,-2.58,-1.28,-1.78,0.23,0.40,1.86,
4.312,-2.58,-1.28,-1.78,0.22,0.32,1.87,
4.315,-1.85,-1.11,-1.73,0.22,0.32,1.87,
4.315,-1.85,-1.11,-1.73,0.20,0.21,1.87,
4.318,-1.85,-1.11,-1.73,0.18,0.15,1.87,
4.318,-1.85,-1.11,-1.73,0.17,0.09,1.87,
4.32,-1.85,-1.11,-1.73,0.16,0.04,1.88,
4.322,-1.85,-1.11,-1.73,0.15,-0.00,1.88,
4.324,-0.96,-1.12,-1.25,0.15,-0.00,1.88,
4.324,-0.96,-1.12,-1.25,0.14,-0.04,1.88,
4.327,-0.96,-1.12,-1.25,0.13,-0.09,1.88,
4.328,-0.96,-1.12,-1.25,0.12,-0.10,1.88,
4.33,-0.96,-1.12,-1.25,0.11,-0.12,1.88,
4.332,-0.96,-1.12,-1.25,0.10,-0.14,1.88,
4.335,-0.30,-1.17,-0.68,0.10,-0.14,1.88,
4.335,-0.30,-1.17,-0.68,0.09,-0.14,1.88,
4.337,-0.30,-1.17,-0.68,0.08,-0.14,1.87,
4.338,-0.30,-1.17,-0.68,0.07,-0.14,1.87,
4.34,-0.30,-1.17,-0.68,0.07,-0.13,1.86,
4.342,-0.30,-1.17,-0.68,0.06,-0.11,1.85,
4.344,0.35,-1.20,-0.16,0.06,-0.11,1.85,
4.344,0.35,-1.20,-0.16,0.06,-0.10,1.84,
4.347,0.35,-1.20,-0.16,0.05,-0.07,1.83,
4.354,0.35,-1.20,-0.16,0.04,-0.05,1.82,
4.355,0.35,-1.20,-0.16,0.04,-0.02,1.81,
4.355,0.35,-1.20,-0.16,0.04,0.01,1.80,
4.356,0.81,-1.29,0.34,0.04,0.01,1.80,
4.356,0.81,-1.29,0.34,0.04,0.05,1.78,
4.359,0.81,-1.29,0.34,0.04,0.09,1.77,
4.359,0.81,-1.29,0.34,0.04,0.14,1.76,
4.361,0.81,-1.29,0.34,0.04,0.18,1.75,
4.362,0.81,-1.29,0.34,0.04,0.23,1.74,
4.379,0.99,-1.32,0.70,0.04,0.23,1.74,
4.38,0.99,-1.32,0.70,0.04,0.28,1.73,
4.38,0.99,-1.32,0.70,0.05,0.33,1.73,
4.381,0.99,-1.32,0.70,0.05,0.38,1.72,
4.381,0.99,-1.32,0.70,0.06,0.43,1.71,
4.381,0.99,-1.32,0.70,0.06,0.48,1.70,
4.381,1.06,-1.41,0.79,0.06,0.48,1.70,
4.381,1.06,-1.41,0.79,0.07,0.53,1.70,
4.381,1.06,-1.41,0.79,0.08,0.60,1.69,
4.382,1.06,-1.41,0.79,0.08,0.62,1.68,
4.382,1.06,-1.41,0.79,0.09,0.66,1.68,
4.382,1.06,-1.41,0.79,0.10,0.70,1.67,
4.388,0.95,-1.42,0.68,0.10,0.70,1.67,
4.388,0.95,-1.42,0.68,0.11,0.74,1.67,
4.391,0.95,-1.42,0.68,0.12,0.77,1.67,
4.391,0.95,-1.42,0.68,0.13,0.80,1.66,
4.392,0.95,-1.42,0.68,0.14,0.83,1.66,
4.395,0.95,-1.42,0.68,0.14,0.85,1.66,
4.42,0.75,-1.47,0.29,0.14,0.85,1.66,
4.422,0.75,-1.47,0.29,0.15,0.88,1.66,
4.422,0.75,-1.47,0.29,0.16,0.90,1.66,
4.423,0.75,-1.47,0.29,0.17,0.91,1.66,
4.423,0.75,-1.47,0.29,0.18,0.92,1.66,
4.424,0.75,-1.47,0.29,0.18,0.93,1.67,
4.424,0.51,-1.50,-0.37,0.18,0.93,1.67,
4.425,0.51,-1.50,-0.37,0.19,0.93,1.67,
4.425,0.51,-1.50,-0.37,0.20,0.93,1.67,
4.425,0.51,-1.50,-0.37,0.20,0.93,1.67,
4.426,0.51,-1.50,-0.37,0.21,0.93,1.67,
4.426,0.51,-1.50,-0.37,0.22,0.92,1.68,
4.427,0.34,-1.50,-0.99,0.22,0.92,1.68,
4.427,0.34,-1.50,-0.99,0.22,0.91,1.68,
4.432,0.34,-1.50,-0.99,0.23,0.90,1.69,
4.433,0.34,-1.50,-0.99,0.23,0.88,1.69,
4.433,0.34,-1.50,-0.99,0.24,0.88,1.69,
4.433,0.34,-1.50,-0.99,0.24,0.86,1.69,
4.433,0.28,-1.40,-1.63,0.24,0.86,1.69,
4.433,0.28,-1.40,-1.63,0.24,0.84,1.69,
4.45,0.28,-1.40,-1.63,0.24,0.82,1.69,
4.45,0.28,-1.40,-1.63,0.24,0.80,1.69,
4.451,0.28,-1.40,-1.63,0.24,0.78,1.69,
4.451,0.28,-1.40,-1.63,0.24,0.76,1.69,
4.451,0.28,-1.38,-2.13,0.24,0.76,1.69,
4.451,0.28,-1.38,-2.13,0.24,0.73,1.69,
4.451,0.28,-1.38,-2.13,0.23,0.70,1.69,
4.452,0.28,-1.38,-2.13,0.23,0.69,1.69,
4.452,0.28,-1.38,-2.13,0.23,0.66,1.68,
4.452,0.28,-1.38,-2.13,0.23,0.64,1.68,
4.452,0.36,-1.35,-2.47,0.23,0.64,1.68,
4.456,0.36,-1.35,-2.47,0.23,0.62,1.68,
4.457,0.36,-1.35,-2.47,0.23,0.60,1.67,
4.457,0.36,-1.35,-2.47,0.23,0.58,1.67,
4.46,0.36,-1.35,-2.47,0.22,0.56,1.67,
4.461,0.36,-1.35,-2.47,0.22,0.54,1.67,
4.461,0.45,-1.39,-2.60,0.22,0.54,1.67,
4.461,0.45,-1.39,-2.60,0.23,0.53,1.66,
4.466,0.45,-1.39,-2.60,0.22,0.52,1.66,
4.466,0.45,-1.39,-2.60,0.22,0.51,1.66,
4.466,0.45,-1.39,-2.60,0.23,0.50,1.65,
4.467,0.45,-1.39,-2.60,0.23,0.49,1.65,
4.467,0.51,-1.37,-2.67,0.23,0.49,1.65,
4.467,0.51,-1.37,-2.67,0.23,0.48,1.64,
4.467,0.51,-1.37,-2.67,0.22,0.47,1.64,
4.468,0.51,-1.37,-2.67,0.22,0.47,1.63,
4.47,0.51,-1.37,-2.67,0.22,0.46,1.63,
4.472,0.51,-1.37,-2.67,0.22,0.46,1.62,
4.474,0.60,-1.37,-2.83,0.22,0.46,1.62,
4.474,0.60,-1.37,-2.83,0.21,0.46,1.61,
4.477,0.60,-1.37,-2.83,0.20,0.46,1.61,
4.478,0.60,-1.37,-2.83,0.19,0.47,1.60,
4.48,0.60,-1.37,-2.83,0.18,0.48,1.59,
4.486,0.60,-1.37,-2.83,0.16,0.49,1.58,
4.487,0.70,-1.42,-3.18,0.16,0.49,1.58,
4.487,0.70,-1.42,-3.18,0.15,0.51,1.58,
4.487,0.70,-1.42,-3.18,0.13,0.52,1.57,
4.496,0.70,-1.42,-3.18,0.12,0.54,1.57,
4.497,0.70,-1.42,-3.18,0.10,0.56,1.56,
4.497,0.70,-1.42,-3.18,0.08,0.58,1.56,
4.497,0.72,-1.42,-3.46,0.08,0.58,1.56,
4.497,0.72,-1.42,-3.46,0.06,0.60,1.55,
4.497,0.72,-1.42,-3.46,0.02,0.63,1.55,
4.498,0.72,-1.42,-3.46,0.01,0.65,1.55,
4.5,0.72,-1.42,-3.46,-0.02,0.67,1.54,
4.502,0.72,-1.42,-3.46,-0.04,0.69,1.54,
4.504,0.75,-1.47,-3.82,-0.04,0.69,1.54,
4.505,0.75,-1.47,-3.82,-0.07,0.71,1.54,
4.507,0.75,-1.47,-3.82,-0.11,0.74,1.53,
4.508,0.75,-1.47,-3.82,-0.12,0.74,1.53,
4.51,0.75,-1.47,-3.82,-0.15,0.76,1.52,
4.512,0.75,-1.47,-3.82,-0.17,0.77,1.52,
4.515,0.81,-1.44,-3.89,-0.17,0.77,1.52,
4.515,0.81,-1.44,-3.89,-0.19,0.77,1.52,
4.517,0.81,-1.44,-3.89,-0.20,0.77,1.51,
4.518,0.81,-1.44,-3.89,-0.22,0.76,1.51,
4.52,0.81,-1.44,-3.89,-0.22,0.75,1.50,
4.522,0.81,-1.44,-3.89,-0.24,0.73,1.49,
4.524,0.88,-1.29,-3.58,-0.24,0.73,1.49,
4.524,0.88,-1.29,-3.58,-0.24,0.71,1.49,
4.527,0.88,-1.29,-3.58,-0.25,0.68,1.48,
4.528,0.88,-1.29,-3.58,-0.25,0.64,1.47,
4.53,0.88,-1.29,-3.58,-0.25,0.60,1.46,
4.532,0.88,-1.29,-3.58,-0.26,0.55,1.45,
4.535,0.98,-1.08,-3.20,-0.26,0.55,1.45,
4.535,0.98,-1.08,-3.20,-0.26,0.50,1.43,
4.537,0.98,-1.08,-3.20,-0.26,0.44,1.42,
4.538,0.98,-1.08,-3.20,-0.27,0.37,1.40,
4.54,0.98,-1.08,-3.20,-0.27,0.31,1.39,
4.542,0.98,-1.08,-3.20,-0.28,0.24,1.37,
4.544,0.98,-0.98,-2.86,-0.28,0.24,1.37,
4.544,0.98,-0.98,-2.86,-0.28,0.17,1.36,
4.547,0.98,-0.98,-2.86,-0.29,0.07,1.34,
4.548,0.98,-0.98,-2.86,-0.29,0.03,1.33,
4.55,0.98,-0.98,-2.86,-0.30,-0.03,1.32,
4.552,0.98,-0.98,-2.86,-0.31,-0.10,1.30,
4.554,1.01,-0.93,-2.34,-0.31,-0.10,1.30,
4.554,1.01,-0.93,-2.34,-0.31,-0.16,1.29,
4.557,1.01,-0.93,-2.34,-0.32,-0.25,1.28,
4.558,1.01,-0.93,-2.34,-0.32,-0.28,1.27,
4.56,1.01,-0.93,-2.34,-0.32,-0.33,1.26,
4.562,1.01,-0.93,-2.34,-0.33,-0.39,1.25,
4.564,0.96,-0.83,-1.49,-0.33,-0.39,1.25,
4.564,0.96,-0.83,-1.49,-0.33,-0.43,1.24,
4.569,0.96,-0.83,-1.49,-0.33,-0.49,1.22,
4.569,0.96,-0.83,-1.49,-0.33,-0.50,1.22,
4.57,0.96,-0.83,-1.49,-0.33,-0.53,1.21,
4.572,0.96,-0.83,-1.49,-0.33,-0.55,1.19,
4.574,0.99,-0.90,-0.40,-0.33,-0.55,1.19,
4.574,0.99,-0.90,-0.40,-0.33,-0.56,1.18,
4.577,0.99,-0.90,-0.40,-0.31,-0.57,1.17,
4.578,0.99,-0.90,-0.40,-0.31,-0.56,1.17,
4.583,0.99,-0.90,-0.40,-0.30,-0.56,1.16,
4.584,0.99,-0.90,-0.40,-0.29,-0.55,1.16,
4.584,0.93,-0.82,0.77,-0.29,-0.55,1.16,
4.585,0.93,-0.82,0.77,-0.27,-0.53,1.16,
4.588,0.93,-0.82,0.77,-0.25,-0.51,1.15,
4.588,0.93,-0.82,0.77,-0.24,-0.50,1.15,
4.59,0.93,-0.82,0.77,-0.23,-0.48,1.15,
4.592,0.93,-0.82,0.77,-0.21,-0.46,1.15,
4.605,0.98,-0.74,1.88,-0.21,-0.46,1.15,
4.606,0.98,-0.74,1.88,-0.19,-0.44,1.15,
4.606,0.98,-0.74,1.88,-0.15,-0.41,1.15,
4.606,0.98,-0.74,1.88,-0.14,-0.40,1.15,
4.606,0.98,-0.74,1.88,-0.12,-0.39,1.15,
4.606,0.98,-0.74,1.88,-0.09,-0.37,1.14,
4.607,1.16,-0.62,2.80,-0.09,-0.37,1.14,
4.607,1.16,-0.62,2.80,-0.07,-0.36,1.13,
4.607,1.16,-0.62,2.80,-0.03,-0.33,1.12,
4.61,1.16,-0.62,2.80,-0.01,-0.33,1.11,
4.61,1.16,-0.62,2.80,0.01,-0.31,1.10,
4.612,1.16,-0.62,2.80,0.04,-0.29,1.09,
4.615,1.42,-0.36,3.47,0.04,-0.29,1.09,
4.616,1.42,-0.36,3.47,0.07,-0.28,1.07,
4.619,1.42,-0.36,3.47,0.10,-0.26,1.05,
4.619,1.42,-0.36,3.47,0.11,-0.26,1.04,
4.621,1.42,-0.36,3.47,0.13,-0.25,1.02,
4.622,1.42,-0.36,3.47,0.15,-0.25,1.00,
4.624,1.47,0.02,3.65,0.15,-0.25,1.00,
4.624,1.47,0.02,3.65,0.16,-0.25,0.98,
4.627,1.47,0.02,3.65,0.17,-0.25,0.94,
4.628,1.47,0.02,3.65,0.18,-0.26,0.93,
4.634,1.47,0.02,3.65,0.18,-0.26,0.91,
4.635,1.47,0.02,3.65,0.18,-0.27,0.88,
4.639,1.44,0.31,3.60,0.18,-0.27,0.88,
4.639,1.44,0.31,3.60,0.18,-0.28,0.86,
4.639,1.44,0.31,3.60,0.18,-0.28,0.83,
4.64,1.44,0.31,3.60,0.17,-0.29,0.82,
4.64,1.44,0.31,3.60,0.16,-0.29,0.80,
4.642,1.44,0.31,3.60,0.15,-0.29,0.78,
4.645,1.19,0.60,3.45,0.15,-0.29,0.78,
4.645,1.19,0.60,3.45,0.14,-0.29,0.77,
4.647,1.19,0.60,3.45,0.11,-0.29,0.74,
4.649,1.19,0.60,3.45,0.10,-0.29,0.73,
4.65,1.19,0.60,3.45,0.08,-0.29,0.72,
4.652,1.19,0.60,3.45,0.05,-0.29,0.70,
4.654,0.99,0.68,3.25,0.05,-0.29,0.70,
4.654,0.99,0.68,3.25,0.02,-0.28,0.69,
4.657,0.99,0.68,3.25,-0.02,-0.27,0.67,
4.658,0.99,0.68,3.25,-0.04,-0.27,0.67,
4.66,0.99,0.68,3.25,-0.07,-0.26,0.65,
4.662,0.99,0.68,3.25,-0.11,-0.25,0.65,
4.664,0.82,0.84,3.11,-0.11,-0.25,0.65,
4.665,0.82,0.84,3.11,-0.14,-0.24,0.63,
4.667,0.82,0.84,3.11,-0.20,-0.23,0.62,
4.669,0.82,0.84,3.11,-0.22,-0.22,0.62,
4.671,0.82,0.84,3.11,-0.25,-0.22,0.60,
4.672,0.82,0.84,3.11,-0.29,-0.21,0.59,
4.675,0.80,0.97,3.15,-0.29,-0.21,0.59,
4.675,0.80,0.97,3.15,-0.33,-0.21,0.58,
4.677,0.80,0.97,3.15,-0.38,-0.20,0.56,
4.68,0.80,0.97,3.15,-0.40,-0.20,0.55,
4.681,0.80,0.97,3.15,-0.44,-0.20,0.54,
4.683,0.80,0.97,3.15,-0.47,-0.20,0.52,
4.684,0.91,1.00,3.30,-0.47,-0.20,0.52,
4.685,0.91,1.00,3.30,-0.51,-0.20,0.50,
4.687,0.91,1.00,3.30,-0.56,-0.22,0.48,
4.688,0.91,1.00,3.30,-0.58,-0.22,0.47,
4.69,0.91,1.00,3.30,-0.61,-0.23,0.45,
4.692,0.91,1.00,3.30,-0.64,-0.24,0.44,
4.694,1.10,0.99,3.65,-0.64,-0.24,0.44,
4.695,1.10,0.99,3.65,-0.66,-0.26,0.42,
4.698,1.10,0.99,3.65,-0.70,-0.28,0.39,
4.699,1.10,0.99,3.65,-0.72,-0.29,0.38,
4.7,1.10,0.99,3.65,-0.74,-0.31,0.36,
4.703,1.10,0.99,3.65,-0.76,-0.34,0.34,
4.705,1.32,0.88,4.15,-0.76,-0.34,0.34,
4.705,1.32,0.88,4.15,-0.78,-0.36,0.32,
4.71,1.32,0.88,4.15,-0.80,-0.39,0.29,
4.711,1.32,0.88,4.15,-0.81,-0.41,0.28,
4.713,1.32,0.88,4.15,-0.82,-0.43,0.26,
4.713,1.32,0.88,4.15,-0.83,-0.45,0.23,
4.716,1.71,0.62,4.83,-0.83,-0.45,0.23,
4.716,1.71,0.62,4.83,-0.83,-0.46,0.21,
4.72,1.71,0.62,4.83,-0.83,-0.48,0.17,
4.721,1.71,0.62,4.83,-0.83,-0.48,0.16,
4.721,1.71,0.62,4.83,-0.83,-0.49,0.13,
4.722,1.71,0.62,4.83,-0.82,-0.49,0.11,
4.725,1.83,0.51,5.46,-0.82,-0.49,0.11,
4.725,1.83,0.51,5.46,-0.81,-0.48,0.09,
4.727,1.83,0.51,5.46,-0.80,-0.47,0.05,
4.728,1.83,0.51,5.46,-0.79,-0.47,0.04,
4.73,1.83,0.51,5.46,-0.78,-0.46,0.02,
4.732,1.83,0.51,5.46,-0.77,-0.44,0.00,
4.734,1.67,0.31,5.79,-0.77,-0.44,0.00,
4.734,1.67,0.31,5.79,-0.76,-0.43,-0.02,
4.737,1.67,0.31,5.79,-0.75,-0.41,-0.04,
4.738,1.67,0.31,5.79,-0.74,-0.40,-0.05,
4.74,1.67,0.31,5.79,-0.73,-0.38,-0.06,
4.742,1.67,0.31,5.79,-0.72,-0.36,-0.07,
4.744,1.24,0.13,5.78,-0.72,-0.36,-0.07,
4.744,1.24,0.13,5.78,-0.72,-0.34,-0.07,
4.747,1.24,0.13,5.78,-0.70,-0.31,-0.08,
4.748,1.24,0.13,5.78,-0.70,-0.29,-0.08,
4.75,1.24,0.13,5.78,-0.69,-0.27,-0.08,
4.752,1.24,0.13,5.78,-0.69,-0.24,-0.08,
4.755,0.74,-0.07,5.53,-0.69,-0.24,-0.08,
4.755,0.74,-0.07,5.53,-0.68,-0.22,-0.07,
4.758,0.74,-0.07,5.53,-0.67,-0.18,-0.06,
4.759,0.74,-0.07,5.53,-0.67,-0.17,-0.06,
4.783,0.74,-0.07,5.53,-0.66,-0.14,-0.05,
4.784,0.74,-0.07,5.53,-0.66,-0.12,-0.04,
4.784,0.33,-0.22,5.23,-0.66,-0.12,-0.04,
4.784,0.33,-0.22,5.23,-0.65,-0.10,-0.03,
4.784,0.33,-0.22,5.23,-0.64,-0.07,-0.00,
4.784,0.33,-0.22,5.23,-0.64,-0.06,0.00,
4.785,0.33,-0.22,5.23,-0.64,-0.05,0.01,
4.785,0.33,-0.22,5.23,-0.63,-0.04,0.02,
4.785,0.22,-0.36,5.03,-0.63,-0.04,0.02,
4.785,0.22,-0.36,5.03,-0.63,-0.03,0.02,
4.785,0.22,-0.36,5.03,-0.61,-0.01,0.03,
4.786,0.22,-0.36,5.03,-0.61,-0.01,0.04,
4.786,0.22,-0.36,5.03,-0.59,0.00,0.04,
4.786,0.22,-0.36,5.03,-0.58,0.01,0.04,
4.786,0.37,-0.44,4.95,-0.58,0.01,0.04,
4.787,0.37,-0.44,4.95,-0.56,0.02,0.04,
4.796,0.37,-0.44,4.95,-0.53,0.03,0.04,
4.796,0.37,-0.44,4.95,-0.52,0.03,0.04,
4.796,0.37,-0.44,4.95,-0.49,0.03,0.04,
4.797,0.37,-0.44,4.95,-0.47,0.03,0.04,
4.797,0.37,-0.44,4.95,-0.43,0.03,0.04,
4.797,0.52,-0.64,5.06,-0.43,0.03,0.04,
4.797,0.52,-0.64,5.06,-0.38,0.03,0.03,
4.801,0.52,-0.64,5.06,-0.36,0.03,0.03,
4.807,0.52,-0.64,5.06,-0.33,0.03,0.03,
4.807,0.52,-0.64,5.06,-0.28,0.03,0.03,
4.808,0.58,-0.82,5.15,-0.28,0.03,0.03,
4.808,0.58,-0.82,5.15,-0.24,0.02,0.03,
4.809,0.58,-0.82,5.15,-0.18,0.02,0.04,
4.809,0.58,-0.82,5.15,-0.15,0.02,0.04,
4.81,0.58,-0.82,5.15,-0.11,0.02,0.04,
4.824,0.58,-0.82,5.15,-0.06,0.02,0.04,
4.824,0.52,-1.06,5.04,-0.06,0.02,0.04,
4.825,0.52,-1.06,5.04,-0.01,0.02,0.04,
4.825,0.52,-1.06,5.04,0.06,0.02,0.05,
4.825,0.52,-1.06,5.04,0.08,0.02,0.05,
4.825,0.52,-1.06,5.04,0.13,0.02,0.05,
4.825,0.52,-1.06,5.04,0.18,0.02,0.05,
4.826,0.47,-1.21,4.59,0.18,0.02,0.05,
4.826,0.47,-1.21,4.59,0.23,0.01,0.05,
4.827,0.47,-1.21,4.59,0.30,0.00,0.05,
4.83,0.47,-1.21,4.59,0.32,0.00,0.06,
4.83,0.47,-1.21,4.59,0.37,-0.01,0.06,
4.833,0.47,-1.21,4.59,0.41,-0.02,0.06,
4.835,0.37,-1.36,3.93,0.41,-0.02,0.06,
4.835,0.37,-1.36,3.93,0.46,-0.03,0.06,
4.84,0.37,-1.36,3.93,0.52,-0.06,0.06,
4.84,0.37,-1.36,3.93,0.54,-0.07,0.06,
4.841,0.37,-1.36,3.93,0.58,-0.09,0.06,
4.843,0.37,-1.36,3.93,0.61,-0.11,0.06,
4.845,0.35,-1.48,3.10,0.61,-0.11,0.06,
4.845,0.35,-1.48,3.10,0.65,-0.13,0.06,
4.847,0.35,-1.48,3.10,0.69,-0.16,0.06,
4.849,0.35,-1.48,3.10,0.70,-0.17,0.06,
4.85,0.35,-1.48,3.10,0.73,-0.19,0.06,
4.855,0.35,-1.48,3.10,0.75,-0.20,0.06,
4.857,0.26,-1.50,2.22,0.75,-0.20,0.06,
4.857,0.26,-1.50,2.22,0.77,-0.22,0.06,
4.858,0.26,-1.50,2.22,0.79,-0.25,0.07,
4.859,0.26,-1.50,2.22,0.80,-0.25,0.07,
4.862,0.26,-1.50,2.22,0.81,-0.27,0.07,
4.866,0.26,-1.50,2.22,0.82,-0.28,0.07,
4.867,0.30,-1.58,1.33,0.82,-0.28,0.07,
4.867,0.30,-1.58,1.33,0.83,-0.30,0.07,
4.868,0.30,-1.58,1.33,0.84,-0.32,0.06,
4.869,0.30,-1.58,1.33,0.84,-0.33,0.06,
4.87,0.30,-1.58,1.33,0.85,-0.33,0.06,
4.872,0.30,-1.58,1.33,0.85,-0.34,0.06,
4.874,0.44,-1.75,0.62,0.85,-0.34,0.06,
4.874,0.44,-1.75,0.62,0.85,-0.35,0.05,
4.877,0.44,-1.75,0.62,0.85,-0.36,0.05,
4.879,0.44,-1.75,0.62,0.85,-0.36,0.05,
4.88,0.44,-1.75,0.62,0.85,-0.36,0.05,
4.883,0.44,-1.75,0.62,0.85,-0.35,0.05,
4.89,0.45,-1.70,0.06,0.85,-0.35,0.05,
4.891,0.45,-1.70,0.06,0.84,-0.35,0.05,
4.891,0.45,-1.70,0.06,0.84,-0.34,0.04,
4.892,0.45,-1.70,0.06,0.84,-0.34,0.04,
4.893,0.45,-1.70,0.06,0.83,-0.33,0.04,
4.893,0.45,-1.70,0.06,0.82,-0.31,0.04,
4.895,0.56,-1.78,-0.44,0.82,-0.31,0.04,
4.895,0.56,-1.78,-0.44,0.82,-0.30,0.03,
4.898,0.56,-1.78,-0.44,0.80,-0.28,0.02,
4.899,0.56,-1.78,-0.44,0.80,-0.27,0.02,
4.9,0.56,-1.78,-0.44,0.79,-0.25,0.01,
4.903,0.56,-1.78,-0.44,0.78,-0.24,0.00,
4.92,0.62,-1.78,-1.03,0.78,-0.24,0.00,
4.921,0.62,-1.78,-1.03,0.76,-0.22,-0.00,
4.921,0.62,-1.78,-1.03,0.74,-0.20,-0.01,
4.921,0.62,-1.78,-1.03,0.73,-0.19,-0.02,
4.921,0.62,-1.78,-1.03,0.71,-0.18,-0.02,
4.921,0.62,-1.78,-1.03,0.69,-0.17,-0.03,
4.921,0.58,-1.79,-1.54,0.69,-0.17,-0.03,
4.921,0.58,-1.79,-1.54,0.67,-0.16,-0.04,
4.922,0.58,-1.79,-1.54,0.64,-0.14,-0.05,
4.923,0.58,-1.79,-1.54,0.63,-0.14,-0.05,
4.927,0.58,-1.79,-1.54,0.61,-0.13,-0.06,
4.962,0.58,-1.79,-1.54,0.59,-0.12,-0.07,
4.962,0.49,-1.75,-2.00,0.59,-0.12,-0.07,
4.963,0.49,-1.75,-2.00,0.57,-0.11,-0.08,
4.979,0.49,-1.75,-2.00,0.53,-0.10,-0.09,
4.979,0.49,-1.75,-2.00,0.52,-0.10,-0.09,
4.98,0.49,-1.75,-2.00,0.50,-0.10,-0.10,
4.98,0.49,-1.75,-2.00,0.47,-0.10,-0.11,
4.98,0.44,-1.78,-2.36,0.47,-0.10,-0.11,
4.98,0.44,-1.78,-2.36,0.45,-0.09,-0.12,
4.98,0.44,-1.78,-2.36,0.41,-0.09,-0.14,
4.981,0.44,-1.78,-2.36,0.40,-0.10,-0.14,
4.981,0.44,-1.78,-2.36,0.38,-0.10,-0.15,
4.981,0.44,-1.78,-2.36,0.35,-0.10,-0.16,
4.981,0.29,-1.72,-2.62,0.35,-0.10,-0.16,
4.982,0.29,-1.72,-2.62,0.33,-0.10,-0.17,
4.982,0.29,-1.72,-2.62,0.29,-0.11,-0.18,
4.982,0.29,-1.72,-2.62,0.28,-0.11,-0.19,
4.982,0.29,-1.72,-2.62,0.26,-0.11,-0.20,
4.982,0.29,-1.72,-2.62,0.24,-0.12,-0.21,
4.983,0.16,-1.74,-2.78,0.24,-0.12,-0.21,
4.983,0.16,-1.74,-2.78,0.22,-0.13,-0.22,
4.983,0.16,-1.74,-2.78,0.19,-0.13,-0.23,
4.983,0.16,-1.74,-2.78,0.18,-0.13,-0.24,
4.983,0.16,-1.74,-2.78,0.16,-0.14,-0.25,
4.984,0.16,-1.74,-2.78,0.14,-0.14,-0.26,
4.984,-0.02,-1.74,-2.86,0.14,-0.14,-0.26,
4.984,-0.02,-1.74,-2.86,0.12,-0.15,-0.26,
4.984,-0.02,-1.74,-2.86,0.10,-0.16,-0.27,
4.984,-0.02,-1.74,-2.86,0.09,-0.16,-0.27,
4.985,-0.02,-1.74,-2.86,0.08,-0.17,-0.28,
4.985,-0.02,-1.74,-2.86,0.06,-0.17,-0.28,
4.985,-0.18,-1.79,-2.84,0.06,-0.17,-0.28,
4.986,-0.18,-1.79,-2.84,0.05,-0.18,-0.29,
4.986,-0.18,-1.79,-2.84,0.03,-0.18,-0.29,
4.986,-0.18,-1.79,-2.84,0.02,-0.19,-0.29,
4.986,-0.18,-1.79,-2.84,0.01,-0.19,-0.29,
4.986,-0.18,-1.79,-2.84,0.00,-0.19,-0.29,
4.987,-0.33,-1.80,-2.86,0.00,-0.19,-0.29,
4.987,-0.33,-1.80,-2.86,-0.01,-0.20,-0.29,
4.987,-0.33,-1.80,-2.86,-0.02,-0.20,-0.29,
4.994,-0.33,-1.80,-2.86,-0.02,-0.20,-0.29,
4.994,-0.33,-1.80,-2.86,-0.04,-0.20,-0.29,
4.994,-0.33,-1.80,-2.86,-0.04,-0.20,-0.29,
4.995,-0.38,-1.82,-2.84,-0.04,-0.20,-0.29,
4.995,-0.38,-1.82,-2.84,-0.05,-0.19,-0.29,
4.997,-0.38,-1.82,-2.84,-0.06,-0.19,-0.29,
5.0,-0.38,-1.82,-2.84,-0.06,-0.19,-0.29,
