
time,ax,ay,az,wx,wy,wz,
0.002,-0.60,-0.68,-1.19,-0.33,-0.36,0.46,
0.002,-0.60,-0.68,-1.19,-0.35,-0.35,0.47,
0.003,-0.60,-0.68,-1.19,-0.39,-0.31,0.50,
0.003,-0.60,-0.68,-1.19,-0.40,-0.29,0.51,
0.003,-0.60,-0.68,-1.19,-0.43,-0.27,0.53,
0.005,-0.60,-0.68,-1.19,-0.46,-0.25,0.55,
0.007,-0.34,-0.39,-1.51,-0.46,-0.25,0.55,
0.007,-0.34,-0.39,-1.51,-0.49,-0.23,0.56,
0.016,-0.34,-0.39,-1.51,-0.55,-0.18,0.58,
0.016,-0.34,-0.39,-1.51,-0.56,-0.17,0.58,
0.017,-0.34,-0.39,-1.51,-0.60,-0.12,0.59,
0.017,-0.34,-0.39,-1.51,-0.64,-0.07,0.60,
0.018,0.02,0.08,-1.61,-0.64,-0.07,0.60,
0.018,0.02,0.08,-1.61,-0.68,-0.01,0.62,
0.019,0.02,0.08,-1.61,-0.75,0.08,0.64,
0.02,0.02,0.08,-1.61,-0.77,0.11,0.65,
0.023,0.02,0.08,-1.61,-0.82,0.16,0.66,
0.024,0.02,0.08,-1.61,-0.86,0.21,0.67,
0.041,-0.03,0.26,-1.74,-0.86,0.21,0.67,
0.042,-0.03,0.26,-1.74,-0.91,0.26,0.69,
0.042,-0.03,0.26,-1.74,-0.98,0.31,0.71,
0.042,-0.03,0.26,-1.74,-1.00,0.33,0.71,
0.042,-0.03,0.26,-1.74,-1.04,0.35,0.72,
0.043,-0.03,0.26,-1.74,-1.08,0.37,0.73,
0.043,-0.04,0.18,-1.39,-1.08,0.37,0.73,
0.043,-0.04,0.18,-1.39,-1.12,0.38,0.73,
0.043,-0.04,0.18,-1.39,-1.17,0.40,0.74,
0.043,-0.04,0.18,-1.39,-1.19,0.40,0.74,
0.043,-0.04,0.18,-1.39,-1.22,0.41,0.75,
0.046,-0.04,0.18,-1.39,-1.26,0.41,0.75,
0.047,-0.19,0.03,-0.92,-1.26,0.41,0.75,
0.047,-0.19,0.03,-0.92,-1.28,0.41,0.76,
0.05,-0.19,0.03,-0.92,-1.32,0.39,0.76,
0.051,-0.19,0.03,-0.92,-1.33,0.38,0.77,
0.053,-0.19,0.03,-0.92,-1.35,0.36,0.78,
0.082,-0.19,0.03,-0.92,-1.37,0.33,0.78,
0.082,-0.23,-0.04,-0.38,-1.37,0.33,0.78,
0.083,-0.23,-0.04,-0.38,-1.39,0.30,0.79,
0.083,-0.23,-0.04,-0.38,-1.41,0.23,0.81,
0.083,-0.23,-0.04,-0.38,-1.42,0.20,0.82,
0.083,-0.23,-0.04,-0.38,-1.43,0.15,0.84,
0.083,-0.23,-0.04,-0.38,-1.44,0.10,0.86,
0.084,-0.21,-0.09,0.16,-1.44,0.10,0.86,
0.084,-0.21,-0.09,0.16,-1.45,0.05,0.87,
0.084,-0.21,-0.09,0.16,-1.46,-0.01,0.90,
0.084,-0.21,-0.09,0.16,-1.46,-0.04,0.91,
0.084,-0.21,-0.09,0.16,-1.46,-0.08,0.92,
0.084,-0.21,-0.09,0.16,-1.45,-0.12,0.93,
0.085,-0.16,-0.24,0.46,-1.45,-0.12,0.93,
0.085,-0.16,-0.24,0.46,-1.45,-0.16,0.94,
0.085,-0.16,-0.24,0.46,-1.43,-0.22,0.95,
0.085,-0.16,-0.24,0.46,-1.42,-0.23,0.96,
0.085,-0.16,-0.24,0.46,-1.41,-0.26,0.96,
0.09,-0.16,-0.24,0.46,-1.39,-0.29,0.97,
0.09,-0.07,-0.18,0.81,-1.39,-0.29,0.97,
0.09,-0.07,-0.18,0.81,-1.37,-0.30,0.98,
0.09,-0.07,-0.18,0.81,-1.34,-0.32,0.98,
0.09,-0.07,-0.18,0.81,-1.33,-0.33,0.98,
0.092,-0.07,-0.18,0.81,-1.31,-0.34,0.98,
0.107,-0.07,-0.18,0.81,-1.29,-0.36,0.99,
0.108,0.04,0.13,0.80,-1.29,-0.36,0.99,
0.108,0.04,0.13,0.80,-1.27,-0.37,0.99,
0.108,0.04,0.13,0.80,-1.26,-0.40,0.99,
0.109,0.04,0.13,0.80,-1.25,-0.41,1.00,
0.109,0.04,0.13,0.80,-1.24,-0.42,1.00,
0.109,0.04,0.13,0.80,-1.23,-0.43,1.01,
0.109,-0.02,0.34,0.62,-1.23,-0.43,1.01,
0.109,-0.02,0.34,0.62,-1.22,-0.44,1.01,
0.111,-0.02,0.34,0.62,-1.21,-0.46,1.02,
0.111,-0.02,0.34,0.62,-1.21,-0.46,1.02,
0.122,-0.02,0.34,0.62,-1.20,-0.47,1.03,
0.122,-0.02,0.34,0.62,-1.20,-0.48,1.04,
0.122,-0.09,0.45,0.40,-1.20,-0.48,1.04,
0.123,-0.09,0.45,0.40,-1.20,-0.50,1.04,
0.133,-0.09,0.45,0.40,-1.20,-0.53,1.06,
0.133,-0.09,0.45,0.40,-1.20,-0.54,1.06,
0.133,-0.09,0.45,0.40,-1.20,-0.57,1.07,
0.134,-0.09,0.45,0.40,-1.20,-0.60,1.07,
0.134,-0.20,0.38,0.27,-1.20,-0.60,1.07,
0.134,-0.20,0.38,0.27,-1.20,-0.63,1.09,
0.134,-0.20,0.38,0.27,-1.20,-0.68,1.11,
0.134,-0.20,0.38,0.27,-1.20,-0.70,1.11,
0.134,-0.20,0.38,0.27,-1.20,-0.73,1.13,
0.135,-0.20,0.38,0.27,-1.20,-0.76,1.14,
0.143,-0.37,0.26,0.25,-1.20,-0.76,1.14,
0.143,-0.37,0.26,0.25,-1.20,-0.79,1.16,
0.143,-0.37,0.26,0.25,-1.21,-0.84,1.19,
0.143,-0.37,0.26,0.25,-1.21,-0.86,1.20,
0.144,-0.37,0.26,0.25,-1.21,-0.89,1.21,
0.144,-0.37,0.26,0.25,-1.22,-0.92,1.23,
0.157,-0.36,0.21,0.17,-1.22,-0.92,1.23,
0.158,-0.36,0.21,0.17,-1.22,-0.95,1.25,
0.158,-0.36,0.21,0.17,-1.24,-0.99,1.27,
0.158,-0.36,0.21,0.17,-1.24,-1.01,1.28,
0.158,-0.36,0.21,0.17,-1.25,-1.03,1.30,
0.158,-0.36,0.21,0.17,-1.26,-1.05,1.31,
0.159,-0.27,0.31,0.07,-1.26,-1.05,1.31,
0.159,-0.27,0.31,0.07,-1.27,-1.04,1.33,
0.186,-0.27,0.31,0.07,-1.27,-1.01,1.34,
0.187,-0.27,0.31,0.07,-1.27,-0.98,1.34,
0.187,-0.27,0.31,0.07,-1.27,-0.92,1.35,
0.187,-0.27,0.31,0.07,-1.26,-0.83,1.35,
0.187,0.38,0.78,0.28,-1.26,-0.83,1.35,
0.187,0.38,0.78,0.28,-1.25,-0.73,1.36,
0.188,0.38,0.78,0.28,-1.24,-0.59,1.37,
0.188,0.38,0.78,0.28,-1.24,-0.54,1.37,
0.188,0.38,0.78,0.28,-1.23,-0.47,1.37,
0.188,0.38,0.78,0.28,-1.23,-0.42,1.37,
0.188,0.76,0.80,0.09,-1.23,-0.42,1.37,
0.189,0.76,0.80,0.09,-1.22,-0.38,1.37,
0.189,0.76,0.80,0.09,-1.21,-0.33,1.35,
0.189,0.76,0.80,0.09,-1.20,-0.32,1.34,
0.189,0.76,0.80,0.09,-1.19,-0.30,1.31,
0.189,0.76,0.80,0.09,-1.17,-0.28,1.29,
0.189,1.61,0.75,0.14,-1.17,-0.28,1.29,
0.19,1.61,0.75,0.14,-1.15,-0.25,1.26,
0.192,1.61,0.75,0.14,-1.12,-0.21,1.21,
0.192,1.61,0.75,0.14,-1.11,-0.19,1.19,
0.208,1.61,0.75,0.14,-1.08,-0.17,1.15,
0.208,1.61,0.75,0.14,-1.06,-0.15,1.11,
0.208,2.05,0.48,-0.03,-1.06,-0.15,1.11,
0.209,2.05,0.48,-0.03,-1.04,-0.13,1.06,
0.209,2.05,0.48,-0.03,-1.01,-0.13,0.99,
0.209,2.05,0.48,-0.03,-1.00,-0.13,0.97,
0.209,2.05,0.48,-0.03,-0.98,-0.14,0.91,
0.209,2.05,0.48,-0.03,-0.97,-0.16,0.86,
0.21,2.40,0.24,-0.44,-0.97,-0.16,0.86,
0.21,2.40,0.24,-0.44,-0.96,-0.18,0.81,
0.21,2.40,0.24,-0.44,-0.94,-0.22,0.73,
0.225,2.40,0.24,-0.44,-0.93,-0.23,0.70,
0.226,2.40,0.24,-0.44,-0.91,-0.26,0.65,
0.226,2.40,0.24,-0.44,-0.90,-0.28,0.59,
0.226,2.38,0.23,-0.73,-0.90,-0.28,0.59,
0.226,2.38,0.23,-0.73,-0.88,-0.29,0.54,
0.226,2.38,0.23,-0.73,-0.85,-0.31,0.46,
0.227,2.38,0.23,-0.73,-0.84,-0.31,0.44,
0.227,2.38,0.23,-0.73,-0.81,-0.32,0.39,
0.227,2.38,0.23,-0.73,-0.79,-0.33,0.34,
0.24,2.43,0.53,-0.52,-0.79,-0.33,0.34,
0.241,2.43,0.53,-0.52,-0.77,-0.33,0.29,
0.241,2.43,0.53,-0.52,-0.72,-0.32,0.22,
0.241,2.43,0.53,-0.52,-0.70,-0.32,0.20,
0.241,2.43,0.53,-0.52,-0.67,-0.31,0.15,
0.241,2.43,0.53,-0.52,-0.63,-0.30,0.11,
0.242,2.19,0.85,0.11,-0.63,-0.30,0.11,
0.242,2.19,0.85,0.11,-0.59,-0.28,0.07,
0.242,2.19,0.85,0.11,-0.53,-0.27,0.02,
0.242,2.19,0.85,0.11,-0.51,-0.27,0.01,
0.242,2.19,0.85,0.11,-0.47,-0.27,-0.02,
0.258,2.19,0.85,0.11,-0.43,-0.28,-0.05,
0.259,1.56,0.72,0.55,-0.43,-0.28,-0.05,
0.26,1.56,0.72,0.55,-0.39,-0.30,-0.07,
0.26,1.56,0.72,0.55,-0.34,-0.33,-0.10,
0.261,1.56,0.72,0.55,-0.32,-0.34,-0.11,
0.261,1.56,0.72,0.55,-0.29,-0.37,-0.13,
0.262,1.56,0.72,0.55,-0.26,-0.39,-0.14,
0.263,1.11,0.29,0.57,-0.26,-0.39,-0.14,
0.263,1.11,0.29,0.57,-0.23,-0.40,-0.15,
0.264,1.11,0.29,0.57,-0.20,-0.42,-0.16,
0.265,1.11,0.29,0.57,-0.19,-0.42,-0.16,
0.265,1.11,0.29,0.57,-0.16,-0.42,-0.16,
0.265,1.11,0.29,0.57,-0.15,-0.42,-0.16,
0.273,0.68,0.05,0.41,-0.15,-0.42,-0.16,
0.274,0.68,0.05,0.41,-0.13,-0.42,-0.15,
0.274,0.68,0.05,0.41,-0.11,-0.43,-0.14,
0.274,0.68,0.05,0.41,-0.11,-0.43,-0.14,
0.275,0.68,0.05,0.41,-0.10,-0.45,-0.13,
0.275,0.68,0.05,0.41,-0.10,-0.46,-0.12,
0.296,0.33,-0.22,-0.01,-0.10,-0.46,-0.12,
0.297,0.33,-0.22,-0.01,-0.10,-0.48,-0.11,
0.297,0.33,-0.22,-0.01,-0.10,-0.47,-0.08,
0.297,0.33,-0.22,-0.01,-0.10,-0.47,-0.07,
0.297,0.33,-0.22,-0.01,-0.11,-0.46,-0.05,
0.297,0.33,-0.22,-0.01,-0.11,-0.46,-0.03,
0.317,-0.43,-0.43,-0.77,-0.11,-0.46,-0.03,
0.317,-0.43,-0.43,-0.77,-0.12,-0.46,-0.00,
0.317,-0.43,-0.43,-0.77,-0.14,-0.49,0.04,
0.317,-0.43,-0.43,-0.77,-0.15,-0.50,0.06,
0.317,-0.43,-0.43,-0.77,-0.16,-0.51,0.10,
0.318,-0.43,-0.43,-0.77,-0.17,-0.52,0.15,
0.318,-1.26,-0.28,-0.92,-0.17,-0.52,0.15,
0.318,-1.26,-0.28,-0.92,-0.17,-0.53,0.19,
0.318,-1.26,-0.28,-0.92,-0.19,-0.52,0.26,
0.319,-1.26,-0.28,-0.92,-0.19,-0.52,0.28,
0.319,-1.26,-0.28,-0.92,-0.20,-0.51,0.32,
0.319,-1.26,-0.28,-0.92,-0.22,-0.50,0.36,
0.319,-1.47,-0.06,-1.00,-0.22,-0.50,0.36,
0.319,-1.47,-0.06,-1.00,-0.23,-0.49,0.40,
0.32,-1.47,-0.06,-1.00,-0.24,-0.48,0.45,
0.32,-1.47,-0.06,-1.00,-0.25,-0.48,0.47,
0.32,-1.47,-0.06,-1.00,-0.25,-0.48,0.49,
0.32,-1.47,-0.06,-1.00,-0.26,-0.48,0.52,
0.32,-0.88,-0.02,-0.80,-0.26,-0.48,0.52,
0.321,-0.88,-0.02,-0.80,-0.27,-0.48,0.54,
0.321,-0.88,-0.02,-0.80,-0.28,-0.49,0.57,
0.321,-0.88,-0.02,-0.80,-0.28,-0.50,0.58,
0.325,-0.88,-0.02,-0.80,-0.28,-0.50,0.59,
0.326,-0.88,-0.02,-0.80,-0.28,-0.51,0.61,
0.338,-0.10,-0.09,-0.48,-0.28,-0.51,0.61,
0.339,-0.10,-0.09,-0.48,-0.27,-0.53,0.61,
0.339,-0.10,-0.09,-0.48,-0.27,-0.55,0.62,
0.339,-0.10,-0.09,-0.48,-0.27,-0.55,0.62,
0.339,-0.10,-0.09,-0.48,-0.26,-0.57,0.62,
0.339,-0.10,-0.09,-0.48,-0.26,-0.58,0.61,
0.34,0.63,-0.16,-0.24,-0.26,-0.58,0.61,
0.34,0.63,-0.16,-0.24,-0.24,-0.60,0.60,
0.34,0.63,-0.16,-0.24,-0.23,-0.60,0.59,
0.341,0.63,-0.16,-0.24,-0.21,-0.60,0.58,
0.372,0.63,-0.16,-0.24,-0.20,-0.60,0.57,
0.372,0.63,-0.16,-0.24,-0.18,-0.59,0.55,
0.372,1.10,-0.05,0.11,-0.18,-0.59,0.55,
0.372,1.10,-0.05,0.11,-0.16,-0.58,0.54,
0.373,1.10,-0.05,0.11,-0.12,-0.56,0.52,
0.373,1.10,-0.05,0.11,-0.11,-0.55,0.51,
0.373,1.10,-0.05,0.11,-0.09,-0.53,0.50,
0.373,1.10,-0.05,0.11,-0.06,-0.51,0.49,
0.373,1.19,0.00,0.40,-0.06,-0.51,0.49,
0.373,1.19,0.00,0.40,-0.04,-0.50,0.48,
0.373,1.19,0.00,0.40,-0.00,-0.49,0.47,
0.374,1.19,0.00,0.40,0.01,-0.49,0.46,
0.374,1.19,0.00,0.40,0.03,-0.49,0.46,
0.374,1.19,0.00,0.40,0.05,-0.50,0.45,
0.374,1.19,-0.14,0.20,0.05,-0.50,0.45,
0.374,1.19,-0.14,0.20,0.06,-0.51,0.44,
0.374,1.19,-0.14,0.20,0.09,-0.52,0.43,
0.375,1.19,-0.14,0.20,0.10,-0.52,0.43,
0.375,1.19,-0.14,0.20,0.11,-0.53,0.43,
0.375,1.19,-0.14,0.20,0.12,-0.53,0.43,
0.383,0.98,-0.08,-0.15,0.12,-0.53,0.43,
0.383,0.98,-0.08,-0.15,0.13,-0.53,0.44,
0.384,0.98,-0.08,-0.15,0.14,-0.53,0.45,
0.384,0.98,-0.08,-0.15,0.14,-0.52,0.45,
0.384,0.98,-0.08,-0.15,0.14,-0.52,0.46,
0.384,0.98,-0.08,-0.15,0.14,-0.52,0.47,
0.386,0.61,0.04,-0.60,0.14,-0.52,0.47,
0.387,0.61,0.04,-0.60,0.14,-0.51,0.48,
0.389,0.61,0.04,-0.60,0.13,-0.50,0.51,
0.39,0.61,0.04,-0.60,0.12,-0.50,0.51,
0.392,0.61,0.04,-0.60,0.11,-0.50,0.52,
0.394,0.61,0.04,-0.60,0.10,-0.50,0.53,
0.396,0.65,-0.07,-1.06,0.10,-0.50,0.53,
0.397,0.65,-0.07,-1.06,0.08,-0.50,0.54,
0.399,0.65,-0.07,-1.06,0.06,-0.49,0.55,
0.4,0.65,-0.07,-1.06,0.05,-0.49,0.55,
0.402,0.65,-0.07,-1.06,0.02,-0.47,0.55,
0.404,0.65,-0.07,-1.06,-0.00,-0.46,0.55,
0.406,1.02,0.01,-1.38,-0.00,-0.46,0.55,
0.406,1.02,0.01,-1.38,-0.02,-0.44,0.55,
0.409,1.02,0.01,-1.38,-0.06,-0.41,0.55,
0.41,1.02,0.01,-1.38,-0.08,-0.40,0.54,
0.412,1.02,0.01,-1.38,-0.11,-0.38,0.53,
0.414,1.02,0.01,-1.38,-0.14,-0.36,0.51,
0.416,1.34,0.27,-1.55,-0.14,-0.36,0.51,
0.417,1.34,0.27,-1.55,-0.16,-0.33,0.50,
0.419,1.34,0.27,-1.55,-0.20,-0.29,0.47,
0.42,1.34,0.27,-1.55,-0.22,-0.27,0.45,
0.422,1.34,0.27,-1.55,-0.24,-0.24,0.43,
0.428,1.34,0.27,-1.55,-0.27,-0.21,0.40,
0.428,1.74,0.54,-1.57,-0.27,-0.21,0.40,
0.428,1.74,0.54,-1.57,-0.29,-0.18,0.37,
0.429,1.74,0.54,-1.57,-0.33,-0.13,0.31,
0.43,1.74,0.54,-1.57,-0.34,-0.11,0.30,
0.432,1.74,0.54,-1.57,-0.36,-0.07,0.26,
0.434,1.74,0.54,-1.57,-0.39,-0.04,0.22,
0.437,2.02,0.76,-1.55,-0.39,-0.04,0.22,
0.437,2.02,0.76,-1.55,-0.41,-0.00,0.17,
0.439,2.02,0.76,-1.55,-0.45,0.04,0.11,
0.441,2.02,0.76,-1.55,-0.46,0.05,0.08,
0.448,2.02,0.76,-1.55,-0.48,0.07,0.04,
0.448,2.02,0.76,-1.55,-0.50,0.08,-0.01,
0.448,2.24,0.83,-1.42,-0.50,0.08,-0.01,
0.448,2.24,0.83,-1.42,-0.52,0.08,-0.05,
0.449,2.24,0.83,-1.42,-0.54,0.08,-0.11,
0.45,2.24,0.83,-1.42,-0.55,0.07,-0.13,
0.465,2.24,0.83,-1.42,-0.55,0.06,-0.17,
0.466,2.24,0.83,-1.42,-0.56,0.04,-0.21,
0.466,2.12,0.74,-1.17,-0.56,0.04,-0.21,
0.466,2.12,0.74,-1.17,-0.57,0.02,-0.23,
0.466,2.12,0.74,-1.17,-0.58,-0.02,-0.27,
0.466,2.12,0.74,-1.17,-0.58,-0.04,-0.28,
0.466,2.12,0.74,-1.17,-0.58,-0.06,-0.29,
0.466,2.12,0.74,-1.17,-0.59,-0.09,-0.30,
0.466,1.84,0.55,-0.85,-0.59,-0.09,-0.30,
0.466,1.84,0.55,-0.85,-0.59,-0.13,-0.30,
0.469,1.84,0.55,-0.85,-0.59,-0.19,-0.29,
0.47,1.84,0.55,-0.85,-0.59,-0.21,-0.28,
0.472,1.84,0.55,-0.85,-0.59,-0.26,-0.27,
0.475,1.84,0.55,-0.85,-0.59,-0.29,-0.25,
0.477,1.13,0.47,-0.46,-0.59,-0.29,-0.25,
0.477,1.13,0.47,-0.46,-0.58,-0.32,-0.23,
0.479,1.13,0.47,-0.46,-0.57,-0.36,-0.21,
0.48,1.13,0.47,-0.46,-0.56,-0.37,-0.20,
0.482,1.13,0.47,-0.46,-0.55,-0.40,-0.19,
0.484,1.13,0.47,-0.46,-0.54,-0.43,-0.17,
0.487,0.81,0.25,-0.17,-0.54,-0.43,-0.17,
0.487,0.81,0.25,-0.17,-0.52,-0.45,-0.17,
0.489,0.81,0.25,-0.17,-0.50,-0.48,-0.17,
0.491,0.81,0.25,-0.17,-0.50,-0.49,-0.17,
0.492,0.81,0.25,-0.17,-0.48,-0.51,-0.18,
0.494,0.81,0.25,-0.17,-0.47,-0.54,-0.19,
0.497,1.30,-0.03,-0.02,-0.47,-0.54,-0.19,
0.497,1.30,-0.03,-0.02,-0.47,-0.58,-0.21,
0.499,1.30,-0.03,-0.02,-0.47,-0.62,-0.24,
0.501,1.30,-0.03,-0.02,-0.47,-0.62,-0.25,
0.502,1.30,-0.03,-0.02,-0.47,-0.62,-0.27,
0.504,1.30,-0.03,-0.02,-0.46,-0.60,-0.29,
0.506,1.20,0.38,0.14,-0.46,-0.60,-0.29,
0.507,1.20,0.38,0.14,-0.45,-0.57,-0.31,
0.509,1.20,0.38,0.14,-0.44,-0.52,-0.34,
0.511,1.20,0.38,0.14,-0.43,-0.50,-0.35,
0.512,1.20,0.38,0.14,-0.42,-0.46,-0.37,
0.514,1.20,0.38,0.14,-0.41,-0.42,-0.39,
0.517,0.87,0.81,0.38,-0.41,-0.42,-0.39,
0.517,0.87,0.81,0.38,-0.40,-0.37,-0.41,
0.519,0.87,0.81,0.38,-0.40,-0.31,-0.45,
0.521,0.87,0.81,0.38,-0.40,-0.29,-0.46,
0.522,0.87,0.81,0.38,-0.41,-0.26,-0.48,
0.525,0.87,0.81,0.38,-0.41,-0.24,-0.50,
0.528,0.92,0.52,0.04,-0.41,-0.24,-0.50,
0.528,0.92,0.52,0.04,-0.42,-0.22,-0.51,
0.529,0.92,0.52,0.04,-0.44,-0.21,-0.52,
0.532,0.92,0.52,0.04,-0.45,-0.21,-0.52,
0.532,0.92,0.52,0.04,-0.47,-0.20,-0.52,
0.534,0.92,0.52,0.04,-0.50,-0.19,-0.52,
0.537,0.50,0.47,-0.41,-0.50,-0.19,-0.52,
0.538,0.50,0.47,-0.41,-0.51,-0.18,-0.52,
0.539,0.50,0.47,-0.41,-0.55,-0.15,-0.51,
0.541,0.50,0.47,-0.41,-0.56,-0.14,-0.51,
0.543,0.50,0.47,-0.41,-0.59,-0.12,-0.50,
0.545,0.50,0.47,-0.41,-0.62,-0.10,-0.50,
0.547,0.06,0.48,-0.68,-0.62,-0.10,-0.50,
0.547,0.06,0.48,-0.68,-0.64,-0.08,-0.50,
0.549,0.06,0.48,-0.68,-0.69,-0.08,-0.49,
0.55,0.06,0.48,-0.68,-0.70,-0.08,-0.48,
0.552,0.06,0.48,-0.68,-0.73,-0.08,-0.47,
0.554,0.06,0.48,-0.68,-0.75,-0.09,-0.47,
0.558,-0.37,0.36,-0.68,-0.75,-0.09,-0.47,
0.558,-0.37,0.36,-0.68,-0.77,-0.09,-0.46,
0.56,-0.37,0.36,-0.68,-0.79,-0.11,-0.45,
0.561,-0.37,0.36,-0.68,-0.80,-0.11,-0.45,
0.562,-0.37,0.36,-0.68,-0.81,-0.12,-0.44,
0.564,-0.37,0.36,-0.68,-0.82,-0.14,-0.44,
0.566,-0.67,0.21,-0.39,-0.82,-0.14,-0.44,
0.567,-0.67,0.21,-0.39,-0.82,-0.15,-0.43,
0.569,-0.67,0.21,-0.39,-0.83,-0.19,-0.42,
0.571,-0.67,0.21,-0.39,-0.83,-0.20,-0.42,
0.572,-0.67,0.21,-0.39,-0.83,-0.24,-0.41,
0.58,-0.67,0.21,-0.39,-0.83,-0.27,-0.41,
0.58,-0.68,0.28,0.14,-0.83,-0.27,-0.41,
0.581,-0.68,0.28,0.14,-0.82,-0.31,-0.40,
0.581,-0.68,0.28,0.14,-0.80,-0.38,-0.39,
0.581,-0.68,0.28,0.14,-0.79,-0.44,-0.38,
0.583,-0.68,0.28,0.14,-0.78,-0.47,-0.37,
0.585,-0.68,0.28,0.14,-0.76,-0.52,-0.37,
0.587,-0.72,0.38,0.92,-0.76,-0.52,-0.37,
0.587,-0.72,0.38,0.92,-0.73,-0.56,-0.36,
0.589,-0.72,0.38,0.92,-0.67,-0.62,-0.36,
0.606,-0.72,0.38,0.92,-0.65,-0.63,-0.36,
0.606,-0.72,0.38,0.92,-0.62,-0.66,-0.36,
0.607,-0.72,0.38,0.92,-0.58,-0.70,-0.37,
0.607,-0.55,0.22,1.56,-0.58,-0.70,-0.37,
0.608,-0.55,0.22,1.56,-0.54,-0.73,-0.37,
0.608,-0.55,0.22,1.56,-0.47,-0.77,-0.38,
0.608,-0.55,0.22,1.56,-0.45,-0.79,-0.38,
0.609,-0.55,0.22,1.56,-0.41,-0.81,-0.39,
0.609,-0.55,0.22,1.56,-0.37,-0.84,-0.39,
0.61,-0.51,0.17,2.00,-0.37,-0.84,-0.39,
0.611,-0.51,0.17,2.00,-0.33,-0.86,-0.40,
0.611,-0.51,0.17,2.00,-0.26,-0.89,-0.41,
0.612,-0.51,0.17,2.00,-0.24,-0.90,-0.41,
0.626,-0.51,0.17,2.00,-0.20,-0.91,-0.41,
0.628,-0.51,0.17,2.00,-0.16,-0.93,-0.42,
0.628,-0.56,0.14,2.01,-0.16,-0.93,-0.42,
0.629,-0.56,0.14,2.01,-0.12,-0.94,-0.42,
0.663,-0.56,0.14,2.01,-0.08,-0.95,-0.42,
0.664,-0.56,0.14,2.01,-0.06,-0.95,-0.41,
0.664,-0.56,0.14,2.01,-0.03,-0.96,-0.41,
0.665,-0.56,0.14,2.01,-0.00,-0.96,-0.40,
0.666,-0.73,0.28,1.80,-0.00,-0.96,-0.40,
0.667,-0.73,0.28,1.80,0.03,-0.97,-0.39,
0.667,-0.73,0.28,1.80,0.06,-0.97,-0.37,
0.668,-0.73,0.28,1.80,0.08,-0.96,-0.36,
0.669,-0.73,0.28,1.80,0.10,-0.96,-0.35,
0.669,-0.73,0.28,1.80,0.12,-0.95,-0.34,
0.67,-1.01,0.35,1.36,0.12,-0.95,-0.34,
0.67,-1.01,0.35,1.36,0.13,-0.94,-0.32,
0.671,-1.01,0.35,1.36,0.16,-0.92,-0.31,
0.671,-1.01,0.35,1.36,0.16,-0.91,-0.31,
0.672,-1.01,0.35,1.36,0.17,-0.88,-0.30,
0.672,-1.01,0.35,1.36,0.17,-0.86,-0.30,
0.673,-1.33,0.34,0.62,0.17,-0.86,-0.30,
0.674,-1.33,0.34,0.62,0.17,-0.84,-0.29,
0.674,-1.33,0.34,0.62,0.16,-0.82,-0.28,
0.675,-1.33,0.34,0.62,0.16,-0.82,-0.28,
0.676,-1.33,0.34,0.62,0.15,-0.82,-0.27,
0.676,-1.33,0.34,0.62,0.13,-0.82,-0.26,
0.677,-1.57,0.26,-0.08,0.13,-0.82,-0.26,
0.678,-1.57,0.26,-0.08,0.12,-0.83,-0.25,
0.678,-1.57,0.26,-0.08,0.10,-0.83,-0.23,
0.678,-1.57,0.26,-0.08,0.09,-0.83,-0.23,
0.679,-1.57,0.26,-0.08,0.08,-0.83,-0.22,
0.679,-1.57,0.26,-0.08,0.06,-0.83,-0.21,
0.68,-1.77,0.20,-0.48,0.06,-0.83,-0.21,
0.681,-1.77,0.20,-0.48,0.05,-0.83,-0.21,
0.681,-1.77,0.20,-0.48,0.03,-0.84,-0.20,
0.682,-1.77,0.20,-0.48,0.02,-0.84,-0.19,
0.682,-1.77,0.20,-0.48,0.01,-0.85,-0.19,
0.682,-1.77,0.20,-0.48,-0.00,-0.86,-0.18,
0.683,-1.75,0.23,-0.37,-0.00,-0.86,-0.18,
0.683,-1.75,0.23,-0.37,-0.01,-0.87,-0.17,
0.683,-1.75,0.23,-0.37,-0.02,-0.90,-0.15,
0.684,-1.75,0.23,-0.37,-0.02,-0.91,-0.15,
0.684,-1.75,0.23,-0.37,-0.02,-0.92,-0.14,
0.696,-1.75,0.23,-0.37,-0.02,-0.94,-0.13,
0.696,-1.68,0.31,0.15,-0.02,-0.94,-0.13,
0.697,-1.68,0.31,0.15,-0.01,-0.95,-0.13,
0.697,-1.68,0.31,0.15,-0.01,-0.96,-0.13,
0.697,-1.68,0.31,0.15,-0.01,-0.96,-0.13,
0.698,-1.68,0.31,0.15,-0.01,-0.96,-0.13,
0.698,-1.68,0.31,0.15,0.00,-0.96,-0.14,
0.7,-1.34,0.15,0.65,0.00,-0.96,-0.14,
0.7,-1.34,0.15,0.65,0.02,-0.96,-0.14,
0.7,-1.34,0.15,0.65,0.04,-0.96,-0.13,
0.701,-1.34,0.15,0.65,0.05,-0.95,-0.13,
0.703,-1.34,0.15,0.65,0.06,-0.95,-0.13,
0.705,-1.34,0.15,0.65,0.07,-0.94,-0.13,
0.711,-1.31,0.22,1.21,0.07,-0.94,-0.13,
0.712,-1.31,0.22,1.21,0.10,-0.93,-0.13,
0.712,-1.31,0.22,1.21,0.13,-0.92,-0.12,
0.712,-1.31,0.22,1.21,0.14,-0.91,-0.12,
0.714,-1.31,0.22,1.21,0.16,-0.90,-0.11,
0.715,-1.31,0.22,1.21,0.19,-0.88,-0.11,
0.717,-1.38,0.26,1.61,0.19,-0.88,-0.11,
0.717,-1.38,0.26,1.61,0.21,-0.86,-0.09,
0.72,-1.38,0.26,1.61,0.25,-0.84,-0.07,
0.721,-1.38,0.26,1.61,0.26,-0.83,-0.06,
0.723,-1.38,0.26,1.61,0.28,-0.81,-0.04,
0.733,-1.38,0.26,1.61,0.31,-0.80,-0.03,
0.734,-1.64,0.25,1.72,0.31,-0.80,-0.03,
0.734,-1.64,0.25,1.72,0.33,-0.77,-0.02,
0.734,-1.64,0.25,1.72,0.36,-0.74,-0.00,
0.734,-1.64,0.25,1.72,0.37,-0.73,0.00,
0.78,-1.64,0.25,1.72,0.39,-0.70,0.01,
0.78,-1.64,0.25,1.72,0.40,-0.68,0.01,
0.78,-1.58,-0.05,1.47,0.40,-0.68,0.01,
0.781,-1.58,-0.05,1.47,0.42,-0.66,0.02,
0.781,-1.58,-0.05,1.47,0.43,-0.64,0.02,
0.781,-1.58,-0.05,1.47,0.43,-0.63,0.03,
0.781,-1.58,-0.05,1.47,0.44,-0.62,0.04,
0.781,-1.58,-0.05,1.47,0.45,-0.63,0.05,
0.782,-1.79,-0.02,1.19,0.45,-0.63,0.05,
0.782,-1.79,-0.02,1.19,0.45,-0.63,0.07,
0.782,-1.79,-0.02,1.19,0.45,-0.63,0.09,
0.782,-1.79,-0.02,1.19,0.46,-0.65,0.12,
0.782,-1.79,-0.02,1.19,0.46,-0.65,0.12,
0.782,-1.79,-0.02,1.19,0.46,-0.65,0.12,
0.783,-1.79,-0.02,1.19,0.46,-0.65,0.14,
0.783,-1.85,0.20,0.97,0.46,-0.65,0.14,
0.783,-1.85,0.20,0.97,0.46,-0.64,0.15,
0.783,-1.85,0.20,0.97,0.47,-0.64,0.16,
0.783,-1.85,0.20,0.97,0.47,-0.64,0.16,
0.784,-1.85,0.20,0.97,0.46,-0.63,0.17,
0.784,-1.64,0.25,0.93,0.46,-0.63,0.17,
0.784,-1.64,0.25,0.93,0.47,-0.63,0.17,
0.784,-1.64,0.25,0.93,0.46,-0.62,0.17,
0.784,-1.64,0.25,0.93,0.46,-0.61,0.17,
0.785,-1.64,0.25,0.93,0.46,-0.61,0.17,
0.785,-1.64,0.25,0.93,0.45,-0.60,0.17,
0.785,-1.24,0.29,0.89,0.45,-0.60,0.17,
0.785,-1.24,0.29,0.89,0.45,-0.60,0.17,
0.785,-1.24,0.29,0.89,0.44,-0.59,0.16,
0.785,-1.24,0.29,0.89,0.43,-0.58,0.15,
0.786,-1.24,0.29,0.89,0.42,-0.58,0.15,
0.786,-1.24,0.29,0.89,0.41,-0.58,0.14,
0.804,-0.97,0.33,1.00,0.41,-0.58,0.14,
0.804,-0.97,0.33,1.00,0.40,-0.58,0.13,
0.805,-0.97,0.33,1.00,0.39,-0.59,0.11,
0.805,-0.97,0.33,1.00,0.38,-0.59,0.09,
0.805,-0.97,0.33,1.00,0.37,-0.59,0.09,
0.805,-0.97,0.33,1.00,0.37,-0.59,0.07,
0.805,-0.74,0.24,1.51,0.37,-0.59,0.07,
0.806,-0.74,0.24,1.51,0.36,-0.60,0.06,
0.806,-0.74,0.24,1.51,0.36,-0.61,0.04,
0.806,-0.74,0.24,1.51,0.36,-0.62,0.03,
0.806,-0.74,0.24,1.51,0.37,-0.63,0.03,
0.806,-0.74,0.24,1.51,0.37,-0.64,0.01,
0.811,-0.72,0.08,2.50,0.37,-0.64,0.01,
0.811,-0.72,0.08,2.50,0.38,-0.66,0.00,
0.811,-0.72,0.08,2.50,0.40,-0.69,-0.02,
0.811,-0.72,0.08,2.50,0.42,-0.71,-0.03,
0.813,-0.72,0.08,2.50,0.43,-0.73,-0.04,
0.814,-0.72,0.08,2.50,0.46,-0.76,-0.05,
0.817,-0.64,-0.09,3.92,0.46,-0.76,-0.05,
0.817,-0.64,-0.09,3.92,0.50,-0.78,-0.06,
0.82,-0.64,-0.09,3.92,0.57,-0.80,-0.08,
0.821,-0.64,-0.09,3.92,0.62,-0.81,-0.09,
0.822,-0.64,-0.09,3.92,0.65,-0.81,-0.09,
0.827,-0.64,-0.09,3.92,0.72,-0.80,-0.10,
0.829,-0.77,-0.09,5.67,0.72,-0.80,-0.10,
0.829,-0.77,-0.09,5.67,0.79,-0.78,-0.10,
0.83,-0.77,-0.09,5.67,0.90,-0.75,-0.10,
0.831,-0.77,-0.09,5.67,0.98,-0.73,-0.10,
0.833,-0.77,-0.09,5.67,1.02,-0.71,-0.09,
0.834,-0.77,-0.09,5.67,1.10,-0.69,-0.09,
0.837,-0.88,-0.04,6.92,1.10,-0.69,-0.09,
0.837,-0.88,-0.04,6.92,1.19,-0.66,-0.08,
0.839,-0.88,-0.04,6.92,1.31,-0.61,-0.07,
0.845,-0.88,-0.04,6.92,1.39,-0.58,-0.06,
0.846,-0.88,-0.04,6.92,1.44,-0.56,-0.05,
0.846,-0.88,-0.04,6.92,1.52,-0.52,-0.04,
0.848,-1.10,-0.05,7.22,1.52,-0.52,-0.04,
0.848,-1.10,-0.05,7.22,1.59,-0.47,-0.03,
0.85,-1.10,-0.05,7.22,1.70,-0.40,-0.01,
0.85,-1.10,-0.05,7.22,1.77,-0.34,0.01,
0.853,-1.10,-0.05,7.22,1.80,-0.31,0.02,
0.855,-1.10,-0.05,7.22,1.86,-0.26,0.04,
0.872,-1.37,0.01,6.51,1.86,-0.26,0.04,
0.872,-1.37,0.01,6.51,1.91,-0.20,0.06,
0.872,-1.37,0.01,6.51,1.98,-0.11,0.10,
0.872,-1.37,0.01,6.51,2.02,-0.05,0.12,
0.873,-1.37,0.01,6.51,2.03,-0.01,0.13,
0.873,-1.37,0.01,6.51,2.06,0.05,0.16,
0.873,-1.73,0.16,5.16,2.06,0.05,0.16,
0.873,-1.73,0.16,5.16,2.08,0.12,0.19,
0.873,-1.73,0.16,5.16,2.12,0.25,0.23,
0.873,-1.73,0.16,5.16,2.13,0.33,0.25,
0.873,-1.73,0.16,5.16,2.14,0.37,0.26,
0.876,-1.73,0.16,5.16,2.14,0.44,0.29,
0.877,-1.91,0.31,3.67,2.14,0.44,0.29,
0.877,-1.91,0.31,3.67,2.13,0.51,0.31,
0.879,-1.91,0.31,3.67,2.12,0.59,0.33,
0.881,-1.91,0.31,3.67,2.10,0.64,0.35,
0.882,-1.91,0.31,3.67,2.08,0.66,0.35,
0.885,-1.91,0.31,3.67,2.06,0.70,0.37,
0.887,-1.46,0.15,2.17,2.06,0.70,0.37,
0.887,-1.46,0.15,2.17,2.03,0.72,0.38,
0.89,-1.46,0.15,2.17,1.98,0.76,0.40,
0.891,-1.46,0.15,2.17,1.94,0.78,0.41,
0.893,-1.46,0.15,2.17,1.92,0.79,0.42,
0.894,-1.46,0.15,2.17,1.88,0.80,0.43,
0.897,-1.10,0.23,1.07,1.88,0.80,0.43,
0.898,-1.10,0.23,1.07,1.84,0.82,0.44,
0.9,-1.10,0.23,1.07,1.78,0.83,0.45,
0.901,-1.10,0.23,1.07,1.74,0.84,0.46,
0.902,-1.10,0.23,1.07,1.72,0.84,0.47,
0.904,-1.10,0.23,1.07,1.68,0.85,0.47,
0.907,-0.76,0.40,0.27,1.68,0.85,0.47,
0.908,-0.76,0.40,0.27,1.64,0.85,0.48,
0.91,-0.76,0.40,0.27,1.57,0.85,0.48,
0.911,-0.76,0.40,0.27,1.53,0.84,0.48,
0.912,-0.76,0.40,0.27,1.51,0.83,0.48,
0.914,-0.76,0.40,0.27,1.46,0.82,0.48,
0.917,-0.36,0.44,-0.22,1.46,0.82,0.48,
0.917,-0.36,0.44,-0.22,1.42,0.81,0.48,
0.919,-0.36,0.44,-0.22,1.36,0.78,0.47,
0.921,-0.36,0.44,-0.22,1.31,0.77,0.47,
0.923,-0.36,0.44,-0.22,1.29,0.76,0.47,
0.928,-0.36,0.44,-0.22,1.25,0.74,0.47,
0.928,-0.16,0.58,-0.43,1.25,0.74,0.47,
0.929,-0.16,0.58,-0.43,1.21,0.72,0.48,
0.931,-0.16,0.58,-0.43,1.15,0.69,0.48,
0.931,-0.16,0.58,-0.43,1.11,0.67,0.49,
0.932,-0.16,0.58,-0.43,1.09,0.66,0.50,
0.934,-0.16,0.58,-0.43,1.05,0.63,0.51,
0.937,-0.18,0.60,-0.38,1.05,0.63,0.51,
0.937,-0.18,0.60,-0.38,1.01,0.61,0.52,
0.94,-0.18,0.60,-0.38,0.95,0.58,0.54,
0.943,-0.18,0.60,-0.38,0.92,0.57,0.56,
0.945,-0.18,0.60,-0.38,0.90,0.56,0.57,
0.945,-0.18,0.60,-0.38,0.87,0.56,0.58,
0.947,-0.25,0.57,-0.08,0.87,0.56,0.58,
0.947,-0.25,0.57,-0.08,0.83,0.56,0.59,
0.949,-0.25,0.57,-0.08,0.79,0.56,0.61,
0.951,-0.25,0.57,-0.08,0.77,0.57,0.63,
0.985,-0.25,0.57,-0.08,0.76,0.58,0.63,
0.985,-0.25,0.57,-0.08,0.74,0.59,0.65,
0.985,-0.14,0.48,0.52,0.74,0.59,0.65,
0.986,-0.14,0.48,0.52,0.72,0.61,0.66,
0.986,-0.14,0.48,0.52,0.70,0.62,0.67,
0.987,-0.14,0.48,0.52,0.69,0.59,0.69,
0.987,-0.14,0.48,0.52,0.68,0.54,0.71,
0.988,-0.14,0.48,0.52,0.69,0.34,0.78,
0.988,-0.23,-0.04,0.69,0.69,0.34,0.78,
0.988,-0.23,-0.04,0.69,0.68,0.18,0.83,
0.989,-0.23,-0.04,0.69,0.62,0.07,0.88,
0.989,-0.23,-0.04,0.69,0.59,0.03,0.90,
0.99,-0.23,-0.04,0.69,0.57,0.02,0.90,
0.99,-0.23,-0.04,0.69,0.53,0.02,0.89,
0.99,0.30,0.13,0.32,0.53,0.02,0.89,
0.991,0.30,0.13,0.32,0.49,0.04,0.88,
0.991,0.30,0.13,0.32,0.43,0.09,0.85,
0.992,0.30,0.13,0.32,0.40,0.14,0.83,
0.992,0.30,0.13,0.32,0.39,0.17,0.82,
0.992,0.30,0.13,0.32,0.36,0.22,0.79,
0.993,0.74,0.69,0.94,0.36,0.22,0.79,
0.993,0.74,0.69,0.94,0.34,0.28,0.76,
0.994,0.74,0.69,0.94,0.32,0.35,0.72,
0.994,0.74,0.69,0.94,0.30,0.39,0.70,
0.994,0.74,0.69,0.94,0.30,0.41,0.68,
0.995,0.74,0.69,0.94,0.28,0.43,0.66,
1.008,0.67,0.48,1.25,0.28,0.43,0.66,
1.009,0.67,0.48,1.25,0.27,0.45,0.64,
1.009,0.67,0.48,1.25,0.25,0.45,0.61,
1.009,0.67,0.48,1.25,0.23,0.45,0.60,
1.01,0.67,0.48,1.25,0.22,0.45,0.59,
1.01,0.67,0.48,1.25,0.20,0.44,0.58,
1.011,0.58,0.40,1.38,0.20,0.44,0.58,
1.012,0.58,0.40,1.38,0.18,0.43,0.58,
1.012,0.58,0.40,1.38,0.14,0.41,0.57,
1.013,0.58,0.40,1.38,0.12,0.40,0.57,
1.014,0.58,0.40,1.38,0.11,0.40,0.57,
1.014,0.58,0.40,1.38,0.10,0.40,0.56,
1.017,0.77,0.44,1.62,0.10,0.40,0.56,
1.017,0.77,0.44,1.62,0.07,0.40,0.56,
1.02,0.77,0.44,1.62,0.05,0.40,0.55,
1.021,0.77,0.44,1.62,0.04,0.41,0.55,
1.023,0.77,0.44,1.62,0.03,0.41,0.55,
1.025,0.77,0.44,1.62,0.02,0.42,0.54,
1.027,1.00,0.21,1.81,0.02,0.42,0.54,
1.027,1.00,0.21,1.81,0.00,0.44,0.53,
1.03,1.00,0.21,1.81,-0.01,0.45,0.52,
1.031,1.00,0.21,1.81,-0.01,0.47,0.51,
1.033,1.00,0.21,1.81,-0.02,0.48,0.50,
1.034,1.00,0.21,1.81,-0.02,0.49,0.49,
1.037,1.22,-0.06,1.93,-0.02,0.49,0.49,
1.047,1.22,-0.06,1.93,-0.04,0.53,0.47,
1.048,1.22,-0.06,1.93,-0.05,0.55,0.46,
1.048,1.22,-0.06,1.93,-0.05,0.56,0.45,
1.048,1.22,-0.06,1.93,-0.06,0.59,0.45,
1.048,1.22,-0.06,1.93,-0.07,0.61,0.45,
1.049,1.18,-0.40,1.90,-0.07,0.61,0.45,
1.049,1.18,-0.40,1.90,-0.08,0.63,0.45,
1.05,1.18,-0.40,1.90,-0.08,0.66,0.45,
1.05,1.18,-0.40,1.90,-0.09,0.68,0.46,
1.077,1.18,-0.40,1.90,-0.09,0.70,0.47,
1.078,1.18,-0.40,1.90,-0.09,0.72,0.47,
1.078,0.93,-0.77,1.88,-0.09,0.72,0.47,
1.078,0.93,-0.77,1.88,-0.09,0.76,0.48,
1.078,0.93,-0.77,1.88,-0.08,0.79,0.49,
1.079,0.93,-0.77,1.88,-0.07,0.82,0.50,
1.079,0.93,-0.77,1.88,-0.06,0.85,0.51,
1.079,0.93,-0.77,1.88,-0.04,0.88,0.52,
1.079,0.87,-1.15,2.14,-0.04,0.88,0.52,
1.08,0.87,-1.15,2.14,-0.03,0.91,0.53,
1.08,0.87,-1.15,2.14,0.00,0.94,0.55,
1.08,0.87,-1.15,2.14,0.01,0.95,0.55,
1.08,0.87,-1.15,2.14,0.04,0.96,0.56,
1.081,0.87,-1.15,2.14,0.06,0.97,0.57,
1.081,0.97,-1.27,2.20,0.06,0.97,0.57,
1.081,0.97,-1.27,2.20,0.08,0.98,0.58,
1.081,0.97,-1.27,2.20,0.11,0.98,0.59,
1.081,0.97,-1.27,2.20,0.13,0.98,0.60,
1.084,0.97,-1.27,2.20,0.16,0.97,0.60,
1.085,0.97,-1.27,2.20,0.19,0.96,0.61,
1.087,0.98,-1.41,2.19,0.19,0.96,0.61,
1.087,0.98,-1.41,2.19,0.21,0.95,0.62,
1.091,0.98,-1.41,2.19,0.24,0.94,0.63,
1.092,0.98,-1.41,2.19,0.27,0.92,0.64,
1.093,0.98,-1.41,2.19,0.30,0.91,0.65,
1.094,0.98,-1.41,2.19,0.33,0.90,0.66,
1.097,0.81,-1.52,2.09,0.33,0.90,0.66,
1.097,0.81,-1.52,2.09,0.36,0.89,0.68,
1.099,0.81,-1.52,2.09,0.39,0.88,0.69,
1.101,0.81,-1.52,2.09,0.42,0.86,0.71,
1.103,0.81,-1.52,2.09,0.46,0.84,0.73,
1.105,0.81,-1.52,2.09,0.49,0.81,0.75,
1.114,0.77,-1.66,1.79,0.49,0.81,0.75,
1.116,0.77,-1.66,1.79,0.52,0.78,0.77,
1.118,0.77,-1.66,1.79,0.55,0.74,0.80,
1.119,0.77,-1.66,1.79,0.57,0.69,0.83,
1.119,0.77,-1.66,1.79,0.60,0.65,0.85,
1.119,0.77,-1.66,1.79,0.63,0.60,0.87,
1.12,0.96,-1.69,1.24,0.63,0.60,0.87,
1.121,0.96,-1.69,1.24,0.65,0.55,0.89,
1.143,0.96,-1.69,1.24,0.68,0.51,0.90,
1.144,0.96,-1.69,1.24,0.70,0.48,0.91,
1.144,0.96,-1.69,1.24,0.72,0.45,0.92,
1.144,0.96,-1.69,1.24,0.73,0.44,0.92,
1.144,1.53,-2.12,0.75,0.73,0.44,0.92,
1.144,1.53,-2.12,0.75,0.75,0.43,0.93,
1.144,1.53,-2.12,0.75,0.76,0.42,0.93,
1.145,1.53,-2.12,0.75,0.77,0.42,0.92,
1.145,1.53,-2.12,0.75,0.78,0.42,0.92,
1.145,1.53,-2.12,0.75,0.78,0.41,0.92,
1.145,2.17,-2.44,0.30,0.78,0.41,0.92,
1.145,2.17,-2.44,0.30,0.79,0.40,0.91,
1.145,2.17,-2.44,0.30,0.78,0.39,0.90,
1.145,2.17,-2.44,0.30,0.77,0.38,0.89,
1.146,2.17,-2.44,0.30,0.76,0.37,0.88,
1.146,2.17,-2.44,0.30,0.75,0.37,0.86,
1.152,3.04,-2.54,-0.40,0.75,0.37,0.86,
1.153,3.04,-2.54,-0.40,0.73,0.37,0.84,
1.153,3.04,-2.54,-0.40,0.71,0.36,0.83,
1.153,3.04,-2.54,-0.40,0.68,0.36,0.80,
1.153,3.04,-2.54,-0.40,0.66,0.37,0.78,
1.174,3.04,-2.54,-0.40,0.63,0.37,0.75,
1.175,3.52,-2.47,-1.04,0.63,0.37,0.75,
1.175,3.52,-2.47,-1.04,0.61,0.38,0.72,
1.175,3.52,-2.47,-1.04,0.58,0.39,0.69,
1.175,3.52,-2.47,-1.04,0.54,0.39,0.66,
1.175,3.52,-2.47,-1.04,0.51,0.40,0.63,
1.176,3.52,-2.47,-1.04,0.48,0.41,0.59,
1.176,4.04,-2.38,-1.42,0.48,0.41,0.59,
1.176,4.04,-2.38,-1.42,0.44,0.42,0.55,
1.176,4.04,-2.38,-1.42,0.39,0.44,0.48,
1.176,4.04,-2.38,-1.42,0.37,0.44,0.46,
1.176,4.04,-2.38,-1.42,0.33,0.46,0.42,
1.178,4.04,-2.38,-1.42,0.30,0.47,0.37,
1.178,4.09,-2.29,-1.76,0.30,0.47,0.37,
1.178,4.09,-2.29,-1.76,0.26,0.49,0.32,
1.18,4.09,-2.29,-1.76,0.22,0.51,0.27,
1.181,4.09,-2.29,-1.76,0.18,0.53,0.22,
1.183,4.09,-2.29,-1.76,0.13,0.55,0.17,
1.185,4.09,-2.29,-1.76,0.09,0.57,0.12,
1.187,3.93,-2.36,-2.21,0.09,0.57,0.12,
1.187,3.93,-2.36,-2.21,0.04,0.59,0.07,
1.197,3.93,-2.36,-2.21,0.00,0.62,0.03,
1.198,3.93,-2.36,-2.21,-0.05,0.64,-0.02,
1.198,3.93,-2.36,-2.21,-0.09,0.67,-0.06,
1.198,3.93,-2.36,-2.21,-0.14,0.70,-0.10,
1.198,3.15,-2.43,-2.63,-0.14,0.70,-0.10,
1.198,3.15,-2.43,-2.63,-0.18,0.72,-0.13,
1.202,3.15,-2.43,-2.63,-0.23,0.75,-0.16,
1.202,3.15,-2.43,-2.63,-0.28,0.78,-0.19,
1.204,3.15,-2.43,-2.63,-0.33,0.80,-0.22,
1.21,3.15,-2.43,-2.63,-0.37,0.82,-0.24,
1.211,2.37,-2.69,-2.92,-0.37,0.82,-0.24,
1.211,2.37,-2.69,-2.92,-0.41,0.84,-0.26,
1.211,2.37,-2.69,-2.92,-0.48,0.86,-0.28,
1.211,2.37,-2.69,-2.92,-0.50,0.87,-0.29,
1.213,2.37,-2.69,-2.92,-0.53,0.88,-0.30,
1.214,2.37,-2.69,-2.92,-0.57,0.89,-0.31,
1.217,1.47,-2.82,-3.01,-0.57,0.89,-0.31,
1.217,1.47,-2.82,-3.01,-0.60,0.90,-0.31,
1.219,1.47,-2.82,-3.01,-0.64,0.90,-0.32,
1.221,1.47,-2.82,-3.01,-0.66,0.90,-0.32,
1.226,1.47,-2.82,-3.01,-0.69,0.90,-0.31,
1.227,1.47,-2.82,-3.01,-0.71,0.89,-0.31,
1.228,0.80,-2.86,-2.77,-0.71,0.89,-0.31,
1.228,0.80,-2.86,-2.77,-0.72,0.89,-0.31,
1.23,0.80,-2.86,-2.77,-0.74,0.88,-0.30,
1.232,0.80,-2.86,-2.77,-0.75,0.87,-0.29,
1.233,0.80,-2.86,-2.77,-0.75,0.85,-0.28,
1.234,0.80,-2.86,-2.77,-0.76,0.84,-0.27,
1.238,0.30,-2.68,-2.51,-0.76,0.84,-0.27,
1.239,0.30,-2.68,-2.51,-0.76,0.82,-0.25,
1.24,0.30,-2.68,-2.51,-0.76,0.80,-0.24,
1.241,0.30,-2.68,-2.51,-0.76,0.77,-0.23,
1.243,0.30,-2.68,-2.51,-0.76,0.75,-0.21,
1.245,0.30,-2.68,-2.51,-0.76,0.72,-0.20,
1.247,0.15,-2.61,-2.33,-0.76,0.72,-0.20,
1.247,0.15,-2.61,-2.33,-0.75,0.69,-0.19,
1.25,0.15,-2.61,-2.33,-0.75,0.66,-0.18,
1.251,0.15,-2.61,-2.33,-0.74,0.63,-0.17,
1.253,0.15,-2.61,-2.33,-0.73,0.60,-0.16,
1.264,0.15,-2.61,-2.33,-0.72,0.57,-0.15,
1.265,0.14,-2.30,-2.29,-0.72,0.57,-0.15,
1.265,0.14,-2.30,-2.29,-0.71,0.54,-0.14,
1.266,0.14,-2.30,-2.29,-0.70,0.51,-0.13,
1.268,0.14,-2.30,-2.29,-0.69,0.49,-0.13,
1.269,0.14,-2.30,-2.29,-0.68,0.46,-0.12,
1.269,0.14,-2.30,-2.29,-0.67,0.43,-0.11,
1.27,0.17,-2.04,-2.37,-0.67,0.43,-0.11,
1.27,0.17,-2.04,-2.37,-0.66,0.40,-0.10,
1.27,0.17,-2.04,-2.37,-0.65,0.36,-0.09,
1.271,0.17,-2.04,-2.37,-0.65,0.34,-0.08,
1.295,0.17,-2.04,-2.37,-0.64,0.31,-0.07,
1.296,0.17,-2.04,-2.37,-0.64,0.29,-0.06,
1.296,0.16,-1.76,-2.59,-0.64,0.29,-0.06,
1.297,0.16,-1.76,-2.59,-0.63,0.26,-0.06,
1.297,0.16,-1.76,-2.59,-0.63,0.22,-0.04,
1.297,0.16,-1.76,-2.59,-0.63,0.21,-0.03,
1.298,0.16,-1.76,-2.59,-0.63,0.19,-0.03,
1.298,0.16,-1.76,-2.59,-0.62,0.17,-0.01,
1.323,0.22,-1.52,-2.78,-0.62,0.17,-0.01,
1.323,0.22,-1.52,-2.78,-0.62,0.16,-0.01,
1.324,0.22,-1.52,-2.78,-0.62,0.14,0.01,
1.324,0.22,-1.52,-2.78,-0.62,0.13,0.02,
1.324,0.22,-1.52,-2.78,-0.62,0.12,0.03,
1.324,0.22,-1.52,-2.78,-0.62,0.11,0.04,
1.325,0.25,-1.24,-2.92,-0.62,0.11,0.04,
1.325,0.25,-1.24,-2.92,-0.62,0.11,0.05,
1.325,0.25,-1.24,-2.92,-0.62,0.10,0.06,
1.325,0.25,-1.24,-2.92,-0.62,0.10,0.07,
1.326,0.25,-1.24,-2.92,-0.62,0.10,0.07,
1.326,0.25,-1.24,-2.92,-0.62,0.10,0.08,
1.326,0.32,-1.04,-3.04,-0.62,0.10,0.08,
1.327,0.32,-1.04,-3.04,-0.62,0.10,0.09,
1.327,0.32,-1.04,-3.04,-0.62,0.10,0.10,
1.327,0.32,-1.04,-3.04,-0.62,0.10,0.10,
1.327,0.32,-1.04,-3.04,-0.62,0.10,0.10,
1.328,0.32,-1.04,-3.04,-0.62,0.10,0.11,
1.328,0.36,-0.79,-3.10,-0.62,0.10,0.11,
1.328,0.36,-0.79,-3.10,-0.62,0.11,0.11,
1.328,0.36,-0.79,-3.10,-0.62,0.10,0.12,
1.329,0.36,-0.79,-3.10,-0.62,0.10,0.12,
1.329,0.36,-0.79,-3.10,-0.62,0.10,0.12,
1.329,0.36,-0.79,-3.10,-0.61,0.09,0.12,
1.329,0.36,-0.46,-3.02,-0.61,0.09,0.12,
1.33,0.36,-0.46,-3.02,-0.61,0.08,0.13,
1.33,0.36,-0.46,-3.02,-0.60,0.07,0.13,
1.336,0.36,-0.46,-3.02,-0.59,0.06,0.13,
1.336,0.36,-0.46,-3.02,-0.58,0.06,0.13,
1.337,0.36,-0.46,-3.02,-0.57,0.05,0.14,
1.337,0.25,-0.17,-2.83,-0.57,0.05,0.14,
1.337,0.25,-0.17,-2.83,-0.56,0.04,0.14,
1.34,0.25,-0.17,-2.83,-0.55,0.02,0.15,
1.341,0.25,-0.17,-2.83,-0.54,0.02,0.15,
1.343,0.25,-0.17,-2.83,-0.53,0.01,0.16,
1.345,0.25,-0.17,-2.83,-0.52,-0.00,0.17,
1.347,0.25,0.12,-2.74,-0.52,-0.00,0.17,
1.347,0.25,0.12,-2.74,-0.50,-0.02,0.17,
1.35,0.25,0.12,-2.74,-0.49,-0.04,0.18,
1.351,0.25,0.12,-2.74,-0.48,-0.04,0.18,
1.353,0.25,0.12,-2.74,-0.47,-0.06,0.18,
1.355,0.25,0.12,-2.74,-0.46,-0.08,0.19,
1.357,0.31,0.33,-2.64,-0.46,-0.08,0.19,
1.357,0.31,0.33,-2.64,-0.45,-0.09,0.19,
1.36,0.31,0.33,-2.64,-0.42,-0.12,0.20,
1.361,0.31,0.33,-2.64,-0.42,-0.13,0.21,
1.362,0.31,0.33,-2.64,-0.41,-0.15,0.21,
1.364,0.31,0.33,-2.64,-0.40,-0.17,0.22,
1.367,0.26,0.61,-2.57,-0.40,-0.17,0.22,
1.367,0.26,0.61,-2.57,-0.39,-0.19,0.22,
1.369,0.26,0.61,-2.57,-0.37,-0.22,0.23,
1.372,0.26,0.61,-2.57,-0.36,-0.23,0.24,
1.373,0.26,0.61,-2.57,-0.35,-0.25,0.24,
1.375,0.26,0.61,-2.57,-0.34,-0.27,0.25,
1.377,0.12,0.91,-2.44,-0.34,-0.27,0.25,
1.377,0.12,0.91,-2.44,-0.33,-0.29,0.26,
1.379,0.12,0.91,-2.44,-0.31,-0.32,0.29,
1.38,0.12,0.91,-2.44,-0.31,-0.33,0.30,
1.382,0.12,0.91,-2.44,-0.30,-0.35,0.31,
1.384,0.12,0.91,-2.44,-0.29,-0.38,0.33,
1.387,-0.02,1.27,-2.17,-0.29,-0.38,0.33,
1.396,-0.02,1.27,-2.17,-0.27,-0.41,0.34,
1.397,-0.02,1.27,-2.17,-0.25,-0.43,0.35,
1.398,-0.02,1.27,-2.17,-0.25,-0.44,0.35,
1.398,-0.02,1.27,-2.17,-0.23,-0.45,0.35,
1.398,-0.02,1.27,-2.17,-0.21,-0.46,0.35,
1.398,0.35,1.11,-1.78,-0.21,-0.46,0.35,
1.399,0.35,1.11,-1.78,-0.19,-0.47,0.36,
1.4,0.35,1.11,-1.78,-0.16,-0.48,0.35,
1.4,0.35,1.11,-1.78,-0.15,-0.49,0.35,
1.435,0.35,1.11,-1.78,-0.14,-0.49,0.35,
1.436,0.35,1.11,-1.78,-0.11,-0.50,0.35,
1.436,0.40,1.44,-1.41,-0.11,-0.50,0.35,
1.436,0.40,1.44,-1.41,-0.10,-0.51,0.36,
1.437,0.40,1.44,-1.41,-0.07,-0.53,0.36,
1.437,0.40,1.44,-1.41,-0.06,-0.54,0.36,
1.437,0.40,1.44,-1.41,-0.04,-0.55,0.36,
1.437,0.40,1.44,-1.41,-0.01,-0.57,0.36,
1.437,0.34,1.75,-1.03,-0.01,-0.57,0.36,
1.438,0.34,1.75,-1.03,0.01,-0.58,0.36,
1.438,0.34,1.75,-1.03,0.04,-0.60,0.36,
1.438,0.34,1.75,-1.03,0.04,-0.61,0.35,
1.438,0.34,1.75,-1.03,0.06,-0.62,0.35,
1.438,0.34,1.75,-1.03,0.08,-0.63,0.34,
1.438,0.43,1.90,-0.74,0.08,-0.63,0.34,
1.439,0.43,1.90,-0.74,0.10,-0.64,0.34,
1.439,0.43,1.90,-0.74,0.12,-0.65,0.32,
1.439,0.43,1.90,-0.74,0.13,-0.66,0.32,
1.439,0.43,1.90,-0.74,0.15,-0.66,0.31,
1.439,0.43,1.90,-0.74,0.17,-0.66,0.30,
1.44,0.45,1.93,-0.60,0.17,-0.66,0.30,
1.44,0.45,1.93,-0.60,0.18,-0.67,0.29,
1.44,0.45,1.93,-0.60,0.20,-0.67,0.28,
1.446,0.45,1.93,-0.60,0.20,-0.67,0.27,
1.447,0.45,1.93,-0.60,0.21,-0.67,0.27,
1.447,0.45,1.93,-0.60,0.22,-0.67,0.26,
1.448,0.40,1.98,-0.64,0.22,-0.67,0.26,
1.448,0.40,1.98,-0.64,0.22,-0.67,0.25,
1.45,0.40,1.98,-0.64,0.22,-0.67,0.24,
1.451,0.40,1.98,-0.64,0.22,-0.67,0.23,
1.468,0.40,1.98,-0.64,0.21,-0.66,0.22,
1.468,0.40,1.98,-0.64,0.20,-0.66,0.21,
1.468,0.32,1.94,-0.90,0.20,-0.66,0.21,
1.469,0.32,1.94,-0.90,0.19,-0.65,0.20,
1.469,0.32,1.94,-0.90,0.16,-0.64,0.19,
1.469,0.32,1.94,-0.90,0.15,-0.64,0.18,
1.469,0.32,1.94,-0.90,0.12,-0.63,0.17,
1.469,0.32,1.94,-0.90,0.09,-0.62,0.15,
1.469,0.31,2.04,-1.35,0.09,-0.62,0.15,
1.469,0.31,2.04,-1.35,0.05,-0.62,0.14,
1.47,0.31,2.04,-1.35,-0.01,-0.61,0.12,
1.473,0.31,2.04,-1.35,-0.03,-0.60,0.12,
1.473,0.31,2.04,-1.35,-0.08,-0.60,0.10,
1.474,0.31,2.04,-1.35,-0.13,-0.59,0.09,
1.476,0.23,2.00,-1.67,-0.13,-0.59,0.09,
1.476,0.23,2.00,-1.67,-0.19,-0.59,0.07,
1.479,0.23,2.00,-1.67,-0.28,-0.58,0.05,
1.48,0.23,2.00,-1.67,-0.31,-0.58,0.04,
1.482,0.23,2.00,-1.67,-0.37,-0.57,0.03,
1.484,0.23,2.00,-1.67,-0.44,-0.57,0.01,
1.486,0.22,1.95,-1.63,-0.44,-0.57,0.01,
1.487,0.22,1.95,-1.63,-0.50,-0.57,-0.00,
1.489,0.22,1.95,-1.63,-0.59,-0.55,-0.03,
1.49,0.22,1.95,-1.63,-0.62,-0.55,-0.04,
1.492,0.22,1.95,-1.63,-0.68,-0.53,-0.06,
1.494,0.22,1.95,-1.63,-0.73,-0.52,-0.08,
1.496,0.25,1.79,-0.87,-0.73,-0.52,-0.08,
1.496,0.25,1.79,-0.87,-0.78,-0.49,-0.11,
1.499,0.25,1.79,-0.87,-0.85,-0.45,-0.14,
1.5,0.25,1.79,-0.87,-0.87,-0.44,-0.15,
1.502,0.25,1.79,-0.87,-0.91,-0.40,-0.17,
1.504,0.25,1.79,-0.87,-0.94,-0.36,-0.19,
1.506,0.14,1.66,0.27,-0.94,-0.36,-0.19,
1.507,0.14,1.66,0.27,-0.97,-0.32,-0.21,
1.509,0.14,1.66,0.27,-1.01,-0.24,-0.24,
1.51,0.14,1.66,0.27,-1.02,-0.21,-0.25,
1.512,0.14,1.66,0.27,-1.04,-0.15,-0.27,
1.514,0.14,1.66,0.27,-1.05,-0.08,-0.28,
1.516,-0.24,1.38,1.36,-1.05,-0.08,-0.28,
1.517,-0.24,1.38,1.36,-1.06,-0.01,-0.30,
1.519,-0.24,1.38,1.36,-1.07,0.11,-0.32,
1.531,-0.24,1.38,1.36,-1.08,0.14,-0.32,
1.532,-0.24,1.38,1.36,-1.08,0.22,-0.33,
1.532,-0.24,1.38,1.36,-1.08,0.31,-0.34,
1.532,-0.83,1.11,2.13,-1.08,0.31,-0.34,
1.532,-0.83,1.11,2.13,-1.08,0.40,-0.34,
1.533,-0.83,1.11,2.13,-1.07,0.54,-0.34,
1.533,-0.83,1.11,2.13,-1.06,0.59,-0.34,
1.533,-0.83,1.11,2.13,-1.05,0.67,-0.34,
1.534,-0.83,1.11,2.13,-1.04,0.76,-0.34,
1.547,-1.29,0.93,2.80,-1.04,0.76,-0.34,
1.547,-1.29,0.93,2.80,-1.01,0.85,-0.35,
1.547,-1.29,0.93,2.80,-0.98,0.98,-0.35,
1.547,-1.29,0.93,2.80,-0.97,1.03,-0.35,
1.548,-1.29,0.93,2.80,-0.94,1.12,-0.35,
1.548,-1.29,0.93,2.80,-0.90,1.20,-0.35,
1.548,-1.71,0.73,3.28,-0.90,1.20,-0.35,
1.548,-1.71,0.73,3.28,-0.87,1.29,-0.35,
1.549,-1.71,0.73,3.28,-0.81,1.41,-0.33,
1.55,-1.71,0.73,3.28,-0.80,1.45,-0.32,
1.552,-1.71,0.73,3.28,-0.76,1.52,-0.31,
1.556,-1.71,0.73,3.28,-0.73,1.58,-0.29,
1.557,-2.54,0.82,3.19,-0.73,1.58,-0.29,
1.558,-2.54,0.82,3.19,-0.70,1.63,-0.26,
1.559,-2.54,0.82,3.19,-0.66,1.69,-0.22,
1.561,-2.54,0.82,3.19,-0.66,1.71,-0.21,
1.563,-2.54,0.82,3.19,-0.64,1.74,-0.18,
1.567,-2.54,0.82,3.19,-0.62,1.76,-0.14,
1.567,-3.51,1.10,2.48,-0.62,1.76,-0.14,
1.567,-3.51,1.10,2.48,-0.62,1.77,-0.11,
1.57,-3.51,1.10,2.48,-0.62,1.78,-0.07,
1.571,-3.51,1.10,2.48,-0.62,1.78,-0.05,
1.572,-3.51,1.10,2.48,-0.63,1.78,-0.02,
1.574,-3.51,1.10,2.48,-0.64,1.77,0.01,
1.577,-3.85,1.27,1.58,-0.64,1.77,0.01,
1.577,-3.85,1.27,1.58,-0.66,1.74,0.04,
1.579,-3.85,1.27,1.58,-0.70,1.69,0.07,
1.58,-3.85,1.27,1.58,-0.71,1.67,0.08,
1.582,-3.85,1.27,1.58,-0.74,1.63,0.10,
1.584,-3.85,1.27,1.58,-0.78,1.56,0.12,
1.588,-3.93,1.45,1.14,-0.78,1.56,0.12,
1.589,-3.93,1.45,1.14,-0.81,1.49,0.13,
1.591,-3.93,1.45,1.14,-0.87,1.37,0.16,
1.592,-3.93,1.45,1.14,-0.89,1.33,0.16,
1.592,-3.93,1.45,1.14,-0.93,1.23,0.17,
1.595,-3.93,1.45,1.14,-0.97,1.13,0.18,
1.597,-3.75,1.45,1.52,-0.97,1.13,0.18,
1.597,-3.75,1.45,1.52,-1.01,1.02,0.19,
1.599,-3.75,1.45,1.52,-1.07,0.85,0.20,
1.601,-3.75,1.45,1.52,-1.08,0.79,0.20,
1.603,-3.75,1.45,1.52,-1.11,0.68,0.21,
1.604,-3.75,1.45,1.52,-1.14,0.57,0.22,
1.607,-3.57,1.06,2.96,-1.14,0.57,0.22,
1.608,-3.57,1.06,2.96,-1.16,0.48,0.23,
1.609,-3.57,1.06,2.96,-1.17,0.36,0.26,
1.611,-3.57,1.06,2.96,-1.18,0.32,0.27,
1.613,-3.57,1.06,2.96,-1.17,0.26,0.30,
1.615,-3.57,1.06,2.96,-1.17,0.20,0.33,
1.619,-3.45,0.36,5.19,-1.17,0.20,0.33,
1.619,-3.45,0.36,5.19,-1.15,0.17,0.37,
1.651,-3.45,0.36,5.19,-1.12,0.12,0.45,
1.652,-3.45,0.36,5.19,-1.10,0.11,0.47,
1.653,-3.45,0.36,5.19,-1.06,0.09,0.53,
1.654,-3.45,0.36,5.19,-1.02,0.09,0.59,
1.655,-3.70,-0.34,7.72,-1.02,0.09,0.59,
1.656,-3.70,-0.34,7.72,-0.97,0.09,0.66,
1.657,-3.70,-0.34,7.72,-0.89,0.11,0.78,
1.658,-3.70,-0.34,7.72,-0.86,0.12,0.81,
1.659,-3.70,-0.34,7.72,-0.80,0.15,0.89,
1.66,-3.70,-0.34,7.72,-0.73,0.18,0.97,
1.661,-3.96,-0.75,9.84,-0.73,0.18,0.97,
1.661,-3.96,-0.75,9.84,-0.65,0.23,1.04,
1.662,-3.96,-0.75,9.84,-0.54,0.31,1.16,
1.663,-3.96,-0.75,9.84,-0.49,0.34,1.19,
1.663,-3.96,-0.75,9.84,-0.41,0.41,1.27,
1.664,-3.96,-0.75,9.84,-0.32,0.48,1.33,
1.665,-3.98,-1.21,11.14,-0.32,0.48,1.33,
1.667,-3.98,-1.21,11.14,-0.23,0.56,1.40,
1.668,-3.98,-1.21,11.14,-0.09,0.69,1.50,
1.671,-3.98,-1.21,11.14,-0.04,0.73,1.53,
1.671,-3.98,-1.21,11.14,0.07,0.82,1.59,
1.672,-3.98,-1.21,11.14,0.17,0.91,1.64,
1.672,-3.61,-1.34,11.61,0.17,0.91,1.64,
1.673,-3.61,-1.34,11.61,0.28,1.00,1.69,
1.673,-3.61,-1.34,11.61,0.44,1.15,1.77,
1.673,-3.61,-1.34,11.61,0.49,1.19,1.79,
1.674,-3.61,-1.34,11.61,0.60,1.28,1.84,
1.674,-3.61,-1.34,11.61,0.71,1.36,1.88,
1.675,-3.04,-1.41,11.03,0.71,1.36,1.88,
1.675,-3.04,-1.41,11.03,0.81,1.43,1.92,
1.675,-3.04,-1.41,11.03,0.97,1.54,1.98,
1.676,-3.04,-1.41,11.03,1.02,1.57,1.99,
1.676,-3.04,-1.41,11.03,1.11,1.63,2.02,
1.676,-3.04,-1.41,11.03,1.20,1.69,2.05,
1.677,-2.14,-1.43,9.35,1.20,1.69,2.05,
1.677,-2.14,-1.43,9.35,1.29,1.75,2.07,
1.682,-2.14,-1.43,9.35,1.41,1.82,2.10,
1.683,-2.14,-1.43,9.35,1.44,1.84,2.11,
1.683,-2.14,-1.43,9.35,1.51,1.87,2.12,
1.695,-2.14,-1.43,9.35,1.58,1.89,2.14,
1.696,-1.50,-1.43,6.92,1.58,1.89,2.14,
1.696,-1.50,-1.43,6.92,1.64,1.90,2.15,
1.696,-1.50,-1.43,6.92,1.71,1.91,2.17,
1.697,-1.50,-1.43,6.92,1.73,1.91,2.17,
1.697,-1.50,-1.43,6.92,1.76,1.90,2.18,
1.697,-1.50,-1.43,6.92,1.79,1.89,2.18,
1.697,-1.01,-1.36,4.18,1.79,1.89,2.18,
1.698,-1.01,-1.36,4.18,1.81,1.87,2.18,
1.702,-1.01,-1.36,4.18,1.84,1.83,2.18,
1.703,-1.01,-1.36,4.18,1.84,1.82,2.18,
1.704,-1.01,-1.36,4.18,1.85,1.79,2.18,
1.707,-1.01,-1.36,4.18,1.85,1.75,2.18,
1.711,-0.69,-1.26,1.68,1.85,1.75,2.18,
1.711,-0.69,-1.26,1.68,1.84,1.71,2.18,
1.711,-0.69,-1.26,1.68,1.83,1.65,2.17,
1.711,-0.69,-1.26,1.68,1.82,1.63,2.16,
1.714,-0.69,-1.26,1.68,1.80,1.58,2.16,
1.715,-0.69,-1.26,1.68,1.78,1.53,2.16,
1.718,-0.52,-1.18,-0.37,1.78,1.53,2.16,
1.719,-0.52,-1.18,-0.37,1.75,1.49,2.15,
1.719,-0.52,-1.18,-0.37,1.71,1.41,2.14,
1.732,-0.52,-1.18,-0.37,1.70,1.39,2.13,
1.733,-0.52,-1.18,-0.37,1.67,1.33,2.13,
1.733,-0.52,-1.18,-0.37,1.64,1.28,2.13,
1.733,-0.55,-1.15,-1.77,1.64,1.28,2.13,
1.734,-0.55,-1.15,-1.77,1.60,1.23,2.12,
1.734,-0.55,-1.15,-1.77,1.55,1.15,2.11,
1.734,-0.55,-1.15,-1.77,1.54,1.13,2.11,
1.734,-0.55,-1.15,-1.77,1.51,1.07,2.11,
1.735,-0.55,-1.15,-1.77,1.47,1.01,2.08,
1.762,-0.11,-0.90,-2.58,1.47,1.01,2.08,
1.763,-0.11,-0.90,-2.58,1.43,0.94,2.05,
1.763,-0.11,-0.90,-2.58,1.42,0.91,2.04,
1.764,-0.11,-0.90,-2.58,1.41,0.89,2.04,
1.764,-0.11,-0.90,-2.58,1.40,0.84,2.04,
1.764,-0.11,-0.90,-2.58,1.37,0.77,2.03,
1.764,-0.22,-1.13,-2.60,1.37,0.77,2.03,
1.765,-0.22,-1.13,-2.60,1.35,0.70,2.03,
1.765,-0.22,-1.13,-2.60,1.32,0.61,2.03,
1.765,-0.22,-1.13,-2.60,1.28,0.46,2.05,
1.765,-0.22,-1.13,-2.60,1.28,0.46,2.05,
1.765,-0.22,-1.13,-2.60,1.28,0.46,2.05,
1.766,-0.22,-1.13,-2.60,1.27,0.39,2.06,
1.766,-0.84,-1.62,-2.58,1.27,0.39,2.06,
1.766,-0.84,-1.62,-2.58,1.25,0.30,2.08,
1.766,-0.84,-1.62,-2.58,1.24,0.27,2.08,
1.767,-0.84,-1.62,-2.58,1.23,0.21,2.09,
1.767,-0.84,-1.62,-2.58,1.22,0.16,2.09,
1.767,-0.60,-1.69,-2.57,1.22,0.16,2.09,
1.767,-0.60,-1.69,-2.57,1.22,0.11,2.09,
1.777,-0.60,-1.69,-2.57,1.21,0.04,2.09,
1.777,-0.60,-1.69,-2.57,1.21,0.01,2.09,
1.778,-0.60,-1.69,-2.57,1.21,-0.04,2.09,
1.778,-0.60,-1.69,-2.57,1.21,-0.08,2.10,
1.778,-0.33,-1.61,-2.48,1.21,-0.08,2.10,
1.778,-0.33,-1.61,-2.48,1.21,-0.13,2.10,
1.78,-0.33,-1.61,-2.48,1.22,-0.19,2.11,
1.781,-0.33,-1.61,-2.48,1.22,-0.21,2.11,
1.782,-0.33,-1.61,-2.48,1.23,-0.26,2.11,
1.785,-0.33,-1.61,-2.48,1.23,-0.30,2.12,
1.808,-0.29,-1.82,-2.46,1.23,-0.30,2.12,
1.808,-0.29,-1.82,-2.46,1.23,-0.33,2.12,
1.808,-0.29,-1.82,-2.46,1.24,-0.38,2.13,
1.808,-0.29,-1.82,-2.46,1.24,-0.40,2.13,
1.808,-0.29,-1.82,-2.46,1.24,-0.43,2.13,
1.808,-0.29,-1.82,-2.46,1.24,-0.46,2.13,
1.809,-0.06,-1.98,-2.67,1.24,-0.46,2.13,
1.809,-0.06,-1.98,-2.67,1.24,-0.49,2.13,
1.809,-0.06,-1.98,-2.67,1.24,-0.53,2.13,
1.809,-0.06,-1.98,-2.67,1.24,-0.54,2.13,
1.809,-0.06,-1.98,-2.67,1.25,-0.56,2.13,
1.809,-0.06,-1.98,-2.67,1.25,-0.59,2.12,
1.809,0.13,-2.07,-2.91,1.25,-0.59,2.12,
1.81,0.13,-2.07,-2.91,1.24,-0.61,2.12,
1.81,0.13,-2.07,-2.91,1.24,-0.64,2.11,
1.813,0.13,-2.07,-2.91,1.24,-0.66,2.11,
1.814,0.13,-2.07,-2.91,1.24,-0.67,2.10,
1.814,0.13,-2.07,-2.91,1.24,-0.69,2.10,
1.816,0.30,-2.04,-3.16,1.24,-0.69,2.10,
1.816,0.30,-2.04,-3.16,1.23,-0.70,2.09,
1.819,0.30,-2.04,-3.16,1.24,-0.72,2.07,
1.821,0.30,-2.04,-3.16,1.23,-0.73,2.07,
1.822,0.30,-2.04,-3.16,1.23,-0.73,2.06,
1.827,0.30,-2.04,-3.16,1.23,-0.74,2.05,
1.827,0.45,-2.05,-3.33,1.23,-0.74,2.05,
1.827,0.45,-2.05,-3.33,1.23,-0.74,2.04,
1.829,0.45,-2.05,-3.33,1.23,-0.74,2.02,
1.83,0.45,-2.05,-3.33,1.23,-0.73,2.01,
1.832,0.45,-2.05,-3.33,1.23,-0.73,2.00,
1.836,0.45,-2.05,-3.33,1.22,-0.72,1.99,
1.844,0.51,-2.15,-3.66,1.22,-0.72,1.99,
1.845,0.51,-2.15,-3.66,1.21,-0.72,1.98,
1.845,0.51,-2.15,-3.66,1.20,-0.71,1.96,
1.846,0.51,-2.15,-3.66,1.20,-0.71,1.95,
1.846,0.51,-2.15,-3.66,1.18,-0.70,1.94,
1.846,0.51,-2.15,-3.66,1.17,-0.68,1.92,
1.847,0.57,-2.35,-4.14,1.17,-0.68,1.92,
1.847,0.57,-2.35,-4.14,1.16,-0.67,1.90,
1.851,0.57,-2.35,-4.14,1.13,-0.65,1.88,
1.855,0.57,-2.35,-4.14,1.12,-0.64,1.88,
1.855,0.57,-2.35,-4.14,1.11,-0.61,1.86,
1.855,0.57,-2.35,-4.14,1.08,-0.59,1.84,
1.859,0.55,-2.33,-4.71,1.08,-0.59,1.84,
1.859,0.55,-2.33,-4.71,1.06,-0.57,1.82,
1.86,0.55,-2.33,-4.71,1.03,-0.53,1.79,
1.861,0.55,-2.33,-4.71,1.01,-0.51,1.79,
1.862,0.55,-2.33,-4.71,0.99,-0.49,1.76,
1.864,0.55,-2.33,-4.71,0.96,-0.46,1.75,
1.867,0.51,-2.33,-5.26,0.96,-0.46,1.75,
1.867,0.51,-2.33,-5.26,0.93,-0.43,1.72,
1.873,0.51,-2.33,-5.26,0.88,-0.38,1.69,
1.874,0.51,-2.33,-5.26,0.86,-0.37,1.68,
1.874,0.51,-2.33,-5.26,0.83,-0.34,1.66,
1.875,0.51,-2.33,-5.26,0.80,-0.31,1.64,
1.881,0.32,-2.31,-5.72,0.80,-0.31,1.64,
1.881,0.32,-2.31,-5.72,0.76,-0.27,1.62,
1.881,0.32,-2.31,-5.72,0.71,-0.24,1.59,
1.881,0.32,-2.31,-5.72,0.69,-0.22,1.58,
1.883,0.32,-2.31,-5.72,0.66,-0.20,1.56,
1.914,0.32,-2.31,-5.72,0.62,-0.18,1.55,
1.915,0.14,-2.38,-6.08,0.62,-0.18,1.55,
1.915,0.14,-2.38,-6.08,0.58,-0.15,1.53,
1.915,0.14,-2.38,-6.08,0.52,-0.12,1.50,
1.915,0.14,-2.38,-6.08,0.51,-0.12,1.50,
1.916,0.14,-2.38,-6.08,0.46,-0.10,1.48,
1.916,0.14,-2.38,-6.08,0.42,-0.09,1.47,
1.916,-0.11,-2.44,-6.33,0.42,-0.09,1.47,
1.917,-0.11,-2.44,-6.33,0.38,-0.08,1.45,
1.917,-0.11,-2.44,-6.33,0.32,-0.07,1.42,
1.917,-0.11,-2.44,-6.33,0.30,-0.08,1.42,
1.917,-0.11,-2.44,-6.33,0.26,-0.08,1.40,
1.918,-0.11,-2.44,-6.33,0.22,-0.09,1.38,
1.918,-0.20,-2.31,-6.31,0.22,-0.09,1.38,
1.918,-0.20,-2.31,-6.31,0.18,-0.11,1.37,
1.919,-0.20,-2.31,-6.31,0.12,-0.14,1.34,
1.919,-0.20,-2.31,-6.31,0.10,-0.16,1.34,
1.919,-0.20,-2.31,-6.31,0.07,-0.19,1.32,
1.919,-0.20,-2.31,-6.31,0.04,-0.22,1.30,
1.92,-0.30,-2.14,-5.76,0.04,-0.22,1.30,
1.92,-0.30,-2.14,-5.76,0.01,-0.25,1.29,
1.92,-0.30,-2.14,-5.76,-0.04,-0.31,1.26,
1.921,-0.30,-2.14,-5.76,-0.05,-0.32,1.25,
1.924,-0.30,-2.14,-5.76,-0.07,-0.36,1.24,
1.929,-0.30,-2.14,-5.76,-0.09,-0.40,1.22,
1.931,-0.46,-2.03,-4.85,-0.09,-0.40,1.22,
1.931,-0.46,-2.03,-4.85,-0.11,-0.45,1.21,
1.932,-0.46,-2.03,-4.85,-0.14,-0.50,1.20,
1.932,-0.46,-2.03,-4.85,-0.14,-0.52,1.19,
1.933,-0.46,-2.03,-4.85,-0.16,-0.56,1.18,
1.937,-0.46,-2.03,-4.85,-0.17,-0.59,1.17,
1.938,-0.60,-1.91,-3.76,-0.17,-0.59,1.17,
1.938,-0.60,-1.91,-3.76,-0.18,-0.62,1.17,
1.939,-0.60,-1.91,-3.76,-0.19,-0.65,1.16,
1.941,-0.60,-1.91,-3.76,-0.19,-0.66,1.15,
1.942,-0.60,-1.91,-3.76,-0.20,-0.68,1.15,
1.945,-0.60,-1.91,-3.76,-0.20,-0.70,1.14,
1.947,-0.67,-1.89,-2.61,-0.20,-0.70,1.14,
1.947,-0.67,-1.89,-2.61,-0.21,-0.71,1.14,
1.949,-0.67,-1.89,-2.61,-0.21,-0.72,1.13,
1.951,-0.67,-1.89,-2.61,-0.21,-0.72,1.13,
1.985,-0.67,-1.89,-2.61,-0.21,-0.72,1.12,
1.986,-0.67,-1.89,-2.61,-0.21,-0.71,1.12,
1.986,-0.71,-1.82,-1.47,-0.21,-0.71,1.12,
1.987,-0.71,-1.82,-1.47,-0.21,-0.71,1.12,
1.987,-0.71,-1.82,-1.47,-0.20,-0.69,1.12,
1.988,-0.71,-1.82,-1.47,-0.20,-0.69,1.12,
1.988,-0.71,-1.82,-1.47,-0.20,-0.67,1.11,
1.989,-0.71,-1.82,-1.47,-0.19,-0.65,1.11,
1.989,-0.74,-1.74,-0.37,-0.19,-0.65,1.11,
1.99,-0.74,-1.74,-0.37,-0.19,-0.63,1.11,
1.99,-0.74,-1.74,-0.37,-0.18,-0.60,1.11,
1.991,-0.74,-1.74,-0.37,-0.17,-0.59,1.10,
1.991,-0.74,-1.74,-0.37,-0.16,-0.56,1.10,
1.991,-0.74,-1.74,-0.37,-0.16,-0.53,1.10,
1.992,-0.60,-1.59,0.58,-0.16,-0.53,1.10,
1.992,-0.60,-1.59,0.58,-0.14,-0.50,1.10,
1.993,-0.60,-1.59,0.58,-0.13,-0.45,1.09,
1.993,-0.60,-1.59,0.58,-0.12,-0.44,1.09,
1.993,-0.60,-1.59,0.58,-0.11,-0.40,1.09,
1.994,-0.60,-1.59,0.58,-0.09,-0.37,1.08,
1.994,-0.48,-1.47,1.37,-0.09,-0.37,1.08,
1.995,-0.48,-1.47,1.37,-0.08,-0.34,1.08,
1.995,-0.48,-1.47,1.37,-0.06,-0.29,1.07,
1.995,-0.48,-1.47,1.37,-0.05,-0.28,1.07,
1.996,-0.48,-1.47,1.37,-0.04,-0.25,1.06,
1.996,-0.48,-1.47,1.37,-0.03,-0.22,1.06,
2.011,-0.27,-1.17,1.85,-0.03,-0.22,1.06,
2.012,-0.27,-1.17,1.85,-0.02,-0.20,1.05,
2.012,-0.27,-1.17,1.85,-0.01,-0.17,1.04,
2.013,-0.27,-1.17,1.85,-0.01,-0.17,1.03,
2.013,-0.27,-1.17,1.85,-0.00,-0.16,1.02,
2.013,-0.27,-1.17,1.85,0.00,-0.15,1.01,
2.013,0.02,-0.91,1.97,0.00,-0.15,1.01,
2.014,0.02,-0.91,1.97,0.00,-0.15,1.00,
2.014,0.02,-0.91,1.97,0.00,-0.15,0.97,
2.014,0.02,-0.91,1.97,-0.00,-0.15,0.96,
2.015,0.02,-0.91,1.97,-0.00,-0.17,0.94,
2.015,0.02,-0.91,1.97,-0.01,-0.18,0.92,
2.019,0.39,-0.52,1.83,-0.01,-0.18,0.92,
2.019,0.39,-0.52,1.83,-0.02,-0.19,0.89,
2.019,0.39,-0.52,1.83,-0.04,-0.23,0.85,
2.024,0.39,-0.52,1.83,-0.04,-0.24,0.84,
2.025,0.39,-0.52,1.83,-0.06,-0.28,0.81,
2.025,0.39,-0.52,1.83,-0.08,-0.31,0.77,
2.029,0.79,-0.15,1.51,-0.08,-0.31,0.77,
2.029,0.79,-0.15,1.51,-0.09,-0.35,0.74,
2.029,0.79,-0.15,1.51,-0.13,-0.41,0.69,
2.033,0.79,-0.15,1.51,-0.14,-0.43,0.67,
2.033,0.79,-0.15,1.51,-0.16,-0.48,0.64,
2.043,0.79,-0.15,1.51,-0.18,-0.52,0.60,
2.044,1.02,0.13,1.40,-0.18,-0.52,0.60,
2.044,1.02,0.13,1.40,-0.20,-0.56,0.57,
2.044,1.02,0.13,1.40,-0.24,-0.62,0.52,
2.044,1.02,0.13,1.40,-0.25,-0.64,0.51,
2.044,1.02,0.13,1.40,-0.28,-0.67,0.48,
2.045,1.02,0.13,1.40,-0.31,-0.70,0.45,
2.077,1.22,0.16,1.53,-0.31,-0.70,0.45,
2.078,1.22,0.16,1.53,-0.33,-0.73,0.42,
2.078,1.22,0.16,1.53,-0.38,-0.75,0.38,
2.078,1.22,0.16,1.53,-0.39,-0.76,0.37,
2.078,1.22,0.16,1.53,-0.42,-0.77,0.34,
2.079,1.22,0.16,1.53,-0.45,-0.78,0.33,
2.079,1.07,0.15,1.90,-0.45,-0.78,0.33,
2.079,1.07,0.15,1.90,-0.48,-0.77,0.31,
2.08,1.07,0.15,1.90,-0.52,-0.77,0.29,
2.08,1.07,0.15,1.90,-0.54,-0.76,0.28,
2.08,1.07,0.15,1.90,-0.57,-0.75,0.27,
2.08,1.07,0.15,1.90,-0.60,-0.73,0.26,
2.081,1.03,0.09,2.39,-0.60,-0.73,0.26,
2.081,1.03,0.09,2.39,-0.63,-0.71,0.25,
2.081,1.03,0.09,2.39,-0.67,-0.67,0.23,
2.082,1.03,0.09,2.39,-0.69,-0.66,0.23,
2.082,1.03,0.09,2.39,-0.72,-0.63,0.22,
2.082,1.03,0.09,2.39,-0.74,-0.59,0.21,
2.082,1.22,0.09,2.88,-0.74,-0.59,0.21,
2.083,1.22,0.09,2.88,-0.77,-0.55,0.20,
2.083,1.22,0.09,2.88,-0.81,-0.47,0.18,
2.083,1.22,0.09,2.88,-0.83,-0.45,0.17,
2.084,1.22,0.09,2.88,-0.85,-0.39,0.16,
2.087,1.22,0.09,2.88,-0.88,-0.33,0.15,
2.087,1.52,0.23,3.42,-0.88,-0.33,0.15,
2.095,1.52,0.23,3.42,-0.90,-0.24,0.13,
2.096,1.52,0.23,3.42,-0.92,-0.18,0.12,
2.096,1.52,0.23,3.42,-0.93,-0.15,0.11,
2.096,1.52,0.23,3.42,-0.94,-0.08,0.10,
2.096,1.52,0.23,3.42,-0.96,-0.02,0.08,
2.099,1.84,0.38,3.96,-0.96,-0.02,0.08,
2.1,1.84,0.38,3.96,-0.97,0.05,0.06,
2.1,1.84,0.38,3.96,-0.99,0.15,0.04,
2.104,1.84,0.38,3.96,-0.99,0.18,0.03,
2.105,1.84,0.38,3.96,-1.01,0.25,0.00,
2.106,1.84,0.38,3.96,-1.02,0.31,-0.02,
2.107,2.19,0.35,4.20,-1.02,0.31,-0.02,
2.107,2.19,0.35,4.20,-1.03,0.37,-0.04,
2.11,2.19,0.35,4.20,-1.04,0.48,-0.08,
2.111,2.19,0.35,4.20,-1.04,0.51,-0.09,
2.113,2.19,0.35,4.20,-1.05,0.58,-0.11,
2.114,2.19,0.35,4.20,-1.05,0.66,-0.13,
2.117,2.23,0.34,4.14,-1.05,0.66,-0.13,
2.117,2.23,0.34,4.14,-1.06,0.73,-0.16,
2.136,2.23,0.34,4.14,-1.06,0.84,-0.18,
2.136,2.23,0.34,4.14,-1.06,0.88,-0.19,
2.136,2.23,0.34,4.14,-1.06,0.95,-0.21,
2.136,2.23,0.34,4.14,-1.07,1.03,-0.23,
2.137,1.89,0.40,3.67,-1.07,1.03,-0.23,
2.137,1.89,0.40,3.67,-1.08,1.10,-0.24,
2.137,1.89,0.40,3.67,-1.09,1.20,-0.26,
2.137,1.89,0.40,3.67,-1.10,1.23,-0.27,
2.138,1.89,0.40,3.67,-1.12,1.29,-0.28,
2.138,1.89,0.40,3.67,-1.14,1.34,-0.29,
2.138,1.39,0.48,2.69,-1.14,1.34,-0.29,
2.138,1.39,0.48,2.69,-1.16,1.39,-0.30,
2.141,1.39,0.48,2.69,-1.20,1.46,-0.31,
2.142,1.39,0.48,2.69,-1.22,1.47,-0.31,
2.146,1.39,0.48,2.69,-1.26,1.50,-0.32,
2.146,1.39,0.48,2.69,-1.29,1.53,-0.32,
2.146,0.97,0.61,1.66,-1.29,1.53,-0.32,
2.147,0.97,0.61,1.66,-1.32,1.55,-0.33,
2.149,0.97,0.61,1.66,-1.38,1.57,-0.33,
2.152,0.97,0.61,1.66,-1.40,1.58,-0.33,
2.155,0.97,0.61,1.66,-1.44,1.59,-0.34,
2.155,0.97,0.61,1.66,-1.48,1.59,-0.34,
2.157,0.71,0.77,0.95,-1.48,1.59,-0.34,
2.157,0.71,0.77,0.95,-1.52,1.58,-0.35,
2.159,0.71,0.77,0.95,-1.58,1.56,-0.36,
2.16,0.71,0.77,0.95,-1.60,1.55,-0.36,
2.162,0.71,0.77,0.95,-1.63,1.52,-0.36,
2.164,0.71,0.77,0.95,-1.67,1.49,-0.37,
2.167,0.68,0.91,0.75,-1.67,1.49,-0.37,
2.176,0.68,0.91,0.75,-1.70,1.45,-0.38,
2.176,0.68,0.91,0.75,-1.74,1.39,-0.39,
2.177,0.68,0.91,0.75,-1.76,1.37,-0.39,
2.177,0.68,0.91,0.75,-1.78,1.32,-0.40,
2.177,0.68,0.91,0.75,-1.79,1.26,-0.40,
2.177,0.74,1.00,1.30,-1.79,1.26,-0.40,
2.177,0.74,1.00,1.30,-1.81,1.21,-0.41,
2.179,0.74,1.00,1.30,-1.82,1.12,-0.41,
2.18,0.74,1.00,1.30,-1.81,1.09,-0.42,
2.182,0.74,1.00,1.30,-1.81,1.04,-0.42,
2.207,0.74,1.00,1.30,-1.80,0.98,-0.42,
2.208,0.94,1.03,2.37,-1.80,0.98,-0.42,
2.208,0.94,1.03,2.37,-1.78,0.93,-0.43,
2.208,0.94,1.03,2.37,-1.75,0.85,-0.43,
2.208,0.94,1.03,2.37,-1.73,0.83,-0.43,
2.208,0.94,1.03,2.37,-1.70,0.78,-0.43,
2.209,0.94,1.03,2.37,-1.67,0.73,-0.43,
2.209,1.15,0.99,3.50,-1.67,0.73,-0.43,
2.209,1.15,0.99,3.50,-1.63,0.69,-0.43,
2.209,1.15,0.99,3.50,-1.55,0.63,-0.42,
2.209,1.15,0.99,3.50,-1.53,0.61,-0.42,
2.209,1.15,0.99,3.50,-1.47,0.58,-0.42,
2.209,1.15,0.99,3.50,-1.42,0.55,-0.42,
2.21,1.37,0.92,4.54,-1.42,0.55,-0.42,
2.21,1.37,0.92,4.54,-1.35,0.53,-0.41,
2.21,1.37,0.92,4.54,-1.25,0.49,-0.41,
2.212,1.37,0.92,4.54,-1.22,0.49,-0.41,
2.212,1.37,0.92,4.54,-1.14,0.47,-0.41,
2.214,1.37,0.92,4.54,-1.07,0.47,-0.40,
2.216,1.56,0.79,5.19,-1.07,0.47,-0.40,
2.217,1.56,0.79,5.19,-0.99,0.46,-0.40,
2.232,1.56,0.79,5.19,-0.87,0.46,-0.39,
2.232,1.56,0.79,5.19,-0.83,0.46,-0.39,
2.232,1.56,0.79,5.19,-0.74,0.46,-0.38,
2.232,1.56,0.79,5.19,-0.66,0.47,-0.38,
2.232,1.61,0.71,5.27,-0.66,0.47,-0.38,
2.232,1.61,0.71,5.27,-0.58,0.47,-0.37,
2.232,1.61,0.71,5.27,-0.46,0.48,-0.36,
2.232,1.61,0.71,5.27,-0.42,0.48,-0.36,
2.233,1.61,0.71,5.27,-0.34,0.49,-0.35,
2.249,1.61,0.71,5.27,-0.26,0.49,-0.34,
2.25,1.54,0.63,4.62,-0.26,0.49,-0.34,
2.25,1.54,0.63,4.62,-0.19,0.50,-0.33,
2.25,1.54,0.63,4.62,-0.10,0.51,-0.31,
2.25,1.54,0.63,4.62,-0.06,0.52,-0.30,
2.25,1.54,0.63,4.62,-0.00,0.52,-0.29,
2.25,1.54,0.63,4.62,0.05,0.52,-0.28,
2.251,1.46,0.51,3.34,0.05,0.52,-0.28,
2.251,1.46,0.51,3.34,0.10,0.53,-0.26,
2.251,1.46,0.51,3.34,0.17,0.53,-0.24,
2.251,1.46,0.51,3.34,0.19,0.53,-0.23,
2.266,1.46,0.51,3.34,0.23,0.53,-0.22,
2.266,1.46,0.51,3.34,0.27,0.53,-0.21,
2.266,1.43,0.41,1.92,0.27,0.53,-0.21,
2.266,1.43,0.41,1.92,0.30,0.53,-0.20,
2.267,1.43,0.41,1.92,0.35,0.53,-0.19,
2.267,1.43,0.41,1.92,0.36,0.53,-0.18,
2.267,1.43,0.41,1.92,0.39,0.52,-0.17,
2.267,1.43,0.41,1.92,0.41,0.51,-0.16,
2.267,1.52,0.34,0.55,0.41,0.51,-0.16,
2.267,1.52,0.34,0.55,0.43,0.50,-0.15,
2.282,1.52,0.34,0.55,0.45,0.47,-0.14,
2.283,1.52,0.34,0.55,0.46,0.46,-0.13,
2.284,1.52,0.34,0.55,0.47,0.44,-0.13,
2.286,1.52,0.34,0.55,0.49,0.42,-0.12,
2.287,1.51,0.30,-0.57,0.49,0.42,-0.12,
2.287,1.51,0.30,-0.57,0.50,0.40,-0.11,
2.288,1.51,0.30,-0.57,0.51,0.36,-0.11,
2.288,1.51,0.30,-0.57,0.51,0.34,-0.10,
2.289,1.51,0.30,-0.57,0.52,0.31,-0.10,
2.289,1.51,0.30,-0.57,0.52,0.29,-0.10,
2.311,1.61,0.25,-1.43,0.52,0.29,-0.10,
2.312,1.61,0.25,-1.43,0.53,0.25,-0.10,
2.312,1.61,0.25,-1.43,0.53,0.20,-0.09,
2.312,1.61,0.25,-1.43,0.53,0.19,-0.09,
2.313,1.61,0.25,-1.43,0.54,0.15,-0.09,
2.313,1.61,0.25,-1.43,0.54,0.12,-0.09,
2.313,1.59,0.24,-2.03,0.54,0.12,-0.09,
2.313,1.59,0.24,-2.03,0.55,0.08,-0.09,
2.314,1.59,0.24,-2.03,0.55,0.03,-0.10,
2.314,1.59,0.24,-2.03,0.55,0.02,-0.10,
2.314,1.59,0.24,-2.03,0.55,-0.01,-0.10,
2.314,1.59,0.24,-2.03,0.55,-0.04,-0.11,
2.315,1.69,0.15,-2.47,0.55,-0.04,-0.11,
2.315,1.69,0.15,-2.47,0.55,-0.07,-0.11,
2.315,1.69,0.15,-2.47,0.54,-0.11,-0.12,
2.315,1.69,0.15,-2.47,0.54,-0.12,-0.12,
2.316,1.69,0.15,-2.47,0.54,-0.15,-0.12,
2.318,1.69,0.15,-2.47,0.53,-0.17,-0.13,
2.318,1.62,0.01,-2.85,0.53,-0.17,-0.13,
2.318,1.62,0.01,-2.85,0.53,-0.20,-0.13,
2.321,1.62,0.01,-2.85,0.51,-0.22,-0.14,
2.321,1.62,0.01,-2.85,0.51,-0.23,-0.15,
2.326,1.62,0.01,-2.85,0.50,-0.24,-0.15,
2.327,1.62,0.01,-2.85,0.49,-0.25,-0.16,
2.327,1.65,-0.08,-3.16,0.49,-0.25,-0.16,
2.327,1.65,-0.08,-3.16,0.48,-0.26,-0.17,
2.333,1.65,-0.08,-3.16,0.46,-0.26,-0.18,
2.333,1.65,-0.08,-3.16,0.45,-0.26,-0.18,
2.333,1.65,-0.08,-3.16,0.45,-0.26,-0.19,
2.341,1.65,-0.08,-3.16,0.43,-0.26,-0.20,
2.342,1.49,-0.15,-3.40,0.43,-0.26,-0.20,
2.342,1.49,-0.15,-3.40,0.42,-0.26,-0.21,
2.343,1.49,-0.15,-3.40,0.40,-0.26,-0.21,
2.343,1.49,-0.15,-3.40,0.39,-0.26,-0.22,
2.343,1.49,-0.15,-3.40,0.38,-0.26,-0.23,
2.345,1.49,-0.15,-3.40,0.37,-0.26,-0.24,
2.346,1.40,-0.15,-3.61,0.37,-0.26,-0.24,
2.347,1.40,-0.15,-3.61,0.35,-0.26,-0.24,
2.358,1.40,-0.15,-3.61,0.33,-0.26,-0.26,
2.359,1.40,-0.15,-3.61,0.32,-0.26,-0.26,
2.359,1.40,-0.15,-3.61,0.30,-0.26,-0.27,
2.36,1.40,-0.15,-3.61,0.28,-0.27,-0.28,
2.36,1.28,-0.13,-3.80,0.28,-0.27,-0.28,
2.36,1.28,-0.13,-3.80,0.26,-0.27,-0.30,
2.361,1.28,-0.13,-3.80,0.24,-0.27,-0.32,
2.362,1.28,-0.13,-3.80,0.23,-0.28,-0.32,
2.362,1.28,-0.13,-3.80,0.20,-0.29,-0.34,
2.366,1.28,-0.13,-3.80,0.18,-0.30,-0.35,
2.367,1.23,-0.16,-4.01,0.18,-0.30,-0.35,
2.367,1.23,-0.16,-4.01,0.16,-0.31,-0.37,
2.369,1.23,-0.16,-4.01,0.13,-0.33,-0.39,
2.374,1.23,-0.16,-4.01,0.12,-0.34,-0.40,
2.374,1.23,-0.16,-4.01,0.09,-0.35,-0.41,
2.375,1.23,-0.16,-4.01,0.07,-0.36,-0.42,
2.377,1.01,-0.18,-4.09,0.07,-0.36,-0.42,
2.377,1.01,-0.18,-4.09,0.04,-0.38,-0.44,
2.379,1.01,-0.18,-4.09,0.01,-0.40,-0.46,
2.381,1.01,-0.18,-4.09,-0.01,-0.41,-0.47,
2.385,1.01,-0.18,-4.09,-0.03,-0.42,-0.48,
2.385,1.01,-0.18,-4.09,-0.06,-0.44,-0.50,
2.387,0.89,-0.15,-4.06,-0.06,-0.44,-0.50,
2.388,0.89,-0.15,-4.06,-0.08,-0.46,-0.51,
2.389,0.89,-0.15,-4.06,-0.13,-0.48,-0.54,
2.39,0.89,-0.15,-4.06,-0.14,-0.48,-0.55,
2.392,0.89,-0.15,-4.06,-0.17,-0.49,-0.56,
2.394,0.89,-0.15,-4.06,-0.19,-0.50,-0.58,
2.397,0.74,-0.16,-3.78,-0.19,-0.50,-0.58,
2.397,0.74,-0.16,-3.78,-0.22,-0.51,-0.59,
2.4,0.74,-0.16,-3.78,-0.26,-0.51,-0.62,
2.401,0.74,-0.16,-3.78,-0.27,-0.52,-0.62,
2.403,0.74,-0.16,-3.78,-0.29,-0.52,-0.64,
2.404,0.74,-0.16,-3.78,-0.31,-0.52,-0.65,
2.407,0.52,-0.27,-3.25,-0.31,-0.52,-0.65,
2.407,0.52,-0.27,-3.25,-0.33,-0.53,-0.66,
2.409,0.52,-0.27,-3.25,-0.36,-0.53,-0.68,
2.411,0.52,-0.27,-3.25,-0.37,-0.53,-0.68,
2.413,0.52,-0.27,-3.25,-0.38,-0.53,-0.69,
2.414,0.52,-0.27,-3.25,-0.39,-0.53,-0.70,
2.421,0.30,-0.40,-2.55,-0.39,-0.53,-0.70,
2.421,0.30,-0.40,-2.55,-0.40,-0.53,-0.71,
2.422,0.30,-0.40,-2.55,-0.41,-0.53,-0.72,
2.422,0.30,-0.40,-2.55,-0.42,-0.53,-0.73,
2.424,0.30,-0.40,-2.55,-0.42,-0.52,-0.74,
2.425,0.30,-0.40,-2.55,-0.43,-0.52,-0.75,
2.427,0.15,-0.46,-1.91,-0.43,-0.52,-0.75,
2.427,0.15,-0.46,-1.91,-0.43,-0.52,-0.75,
2.429,0.15,-0.46,-1.91,-0.43,-0.51,-0.76,
2.431,0.15,-0.46,-1.91,-0.43,-0.50,-0.76,
2.446,0.15,-0.46,-1.91,-0.43,-0.50,-0.77,
2.446,0.15,-0.46,-1.91,-0.42,-0.49,-0.78,
2.447,0.08,-0.46,-1.37,-0.42,-0.49,-0.78,
2.447,0.08,-0.46,-1.37,-0.41,-0.48,-0.79,
2.447,0.08,-0.46,-1.37,-0.41,-0.48,-0.80,
2.448,0.08,-0.46,-1.37,-0.40,-0.47,-0.81,
2.448,0.08,-0.46,-1.37,-0.39,-0.47,-0.81,
2.448,0.08,-0.46,-1.37,-0.38,-0.46,-0.82,
2.454,-0.09,-0.52,-0.89,-0.38,-0.46,-0.82,
2.454,-0.09,-0.52,-0.89,-0.37,-0.45,-0.82,
2.455,-0.09,-0.52,-0.89,-0.34,-0.44,-0.83,
2.479,-0.09,-0.52,-0.89,-0.34,-0.43,-0.83,
2.511,-0.09,-0.52,-0.89,-0.32,-0.42,-0.83,
2.512,-0.09,-0.52,-0.89,-0.30,-0.41,-0.84,
2.512,-0.30,-0.56,-0.57,-0.30,-0.41,-0.84,
2.513,-0.30,-0.56,-0.57,-0.28,-0.39,-0.84,
2.513,-0.30,-0.56,-0.57,-0.25,-0.37,-0.83,
2.513,-0.30,-0.56,-0.57,-0.24,-0.37,-0.83,
2.514,-0.30,-0.56,-0.57,-0.23,-0.36,-0.83,
2.514,-0.30,-0.56,-0.57,-0.21,-0.35,-0.83,
2.515,-0.59,-0.65,-0.47,-0.21,-0.35,-0.83,
2.515,-0.59,-0.65,-0.47,-0.19,-0.34,-0.83,
2.515,-0.59,-0.65,-0.47,-0.16,-0.33,-0.82,
2.516,-0.59,-0.65,-0.47,-0.15,-0.33,-0.82,
2.516,-0.59,-0.65,-0.47,-0.14,-0.32,-0.81,
2.517,-0.59,-0.65,-0.47,-0.12,-0.32,-0.81,
2.517,-0.82,-0.64,-0.57,-0.12,-0.32,-0.81,
2.517,-0.82,-0.64,-0.57,-0.10,-0.31,-0.80,
2.518,-0.82,-0.64,-0.57,-0.08,-0.31,-0.79,
2.518,-0.82,-0.64,-0.57,-0.07,-0.31,-0.79,
2.519,-0.82,-0.64,-0.57,-0.05,-0.31,-0.78,
2.519,-0.82,-0.64,-0.57,-0.03,-0.31,-0.78,
2.519,-0.98,-0.63,-0.63,-0.03,-0.31,-0.78,
2.52,-0.98,-0.63,-0.63,-0.02,-0.31,-0.77,
2.52,-0.98,-0.63,-0.63,0.01,-0.32,-0.76,
2.521,-0.98,-0.63,-0.63,0.01,-0.32,-0.76,
2.521,-0.98,-0.63,-0.63,0.03,-0.32,-0.75,
2.522,-0.98,-0.63,-0.63,0.05,-0.33,-0.75,
2.522,-1.04,-0.59,-0.73,0.05,-0.33,-0.75,
2.522,-1.04,-0.59,-0.73,0.06,-0.33,-0.74,
2.523,-1.04,-0.59,-0.73,0.09,-0.34,-0.73,
2.523,-1.04,-0.59,-0.73,0.10,-0.35,-0.72,
2.524,-1.04,-0.59,-0.73,0.11,-0.35,-0.72,
2.524,-1.04,-0.59,-0.73,0.13,-0.36,-0.71,
2.524,-1.04,-0.53,-0.83,0.13,-0.36,-0.71,
2.525,-1.04,-0.53,-0.83,0.14,-0.37,-0.70,
2.525,-1.04,-0.53,-0.83,0.17,-0.38,-0.69,
2.526,-1.04,-0.53,-0.83,0.17,-0.38,-0.69,
2.526,-1.04,-0.53,-0.83,0.19,-0.39,-0.69,
2.526,-1.04,-0.53,-0.83,0.20,-0.40,-0.68,
2.527,-0.95,-0.40,-0.92,0.20,-0.40,-0.68,
2.527,-0.95,-0.40,-0.92,0.22,-0.41,-0.68,
2.528,-0.95,-0.40,-0.92,0.24,-0.41,-0.68,
2.528,-0.95,-0.40,-0.92,0.24,-0.41,-0.68,
2.528,-0.95,-0.40,-0.92,0.26,-0.42,-0.67,
2.529,-0.95,-0.40,-0.92,0.27,-0.42,-0.67,
2.529,-0.88,-0.30,-1.11,0.27,-0.42,-0.67,
2.53,-0.88,-0.30,-1.11,0.27,-0.42,-0.67,
2.53,-0.88,-0.30,-1.11,0.28,-0.42,-0.67,
2.53,-0.88,-0.30,-1.11,0.28,-0.42,-0.67,
2.542,-0.88,-0.30,-1.11,0.29,-0.42,-0.67,
2.542,-0.88,-0.30,-1.11,0.29,-0.42,-0.67,
2.542,-0.80,-0.25,-1.44,0.29,-0.42,-0.67,
2.543,-0.80,-0.25,-1.44,0.28,-0.42,-0.67,
2.543,-0.80,-0.25,-1.44,0.28,-0.42,-0.68,
2.543,-0.80,-0.25,-1.44,0.28,-0.42,-0.68,
2.543,-0.80,-0.25,-1.44,0.27,-0.41,-0.68,
2.544,-0.80,-0.25,-1.44,0.27,-0.40,-0.68,
2.546,-0.78,-0.17,-1.73,0.27,-0.40,-0.68,
2.547,-0.78,-0.17,-1.73,0.26,-0.40,-0.69,
2.55,-0.78,-0.17,-1.73,0.25,-0.39,-0.69,
2.552,-0.78,-0.17,-1.73,0.24,-0.38,-0.69,
2.553,-0.78,-0.17,-1.73,0.23,-0.37,-0.70,
2.555,-0.78,-0.17,-1.73,0.22,-0.37,-0.70,
2.557,-0.82,-0.13,-1.93,0.22,-0.37,-0.70,
2.557,-0.82,-0.13,-1.93,0.21,-0.36,-0.70,
2.559,-0.82,-0.13,-1.93,0.19,-0.35,-0.70,
2.56,-0.82,-0.13,-1.93,0.19,-0.34,-0.70,
2.562,-0.82,-0.13,-1.93,0.17,-0.33,-0.70,
2.564,-0.82,-0.13,-1.93,0.16,-0.33,-0.70,
2.577,-0.92,-0.14,-2.10,0.16,-0.33,-0.70,
2.578,-0.92,-0.14,-2.10,0.14,-0.32,-0.70,
2.578,-0.92,-0.14,-2.10,0.12,-0.31,-0.71,
2.578,-0.92,-0.14,-2.10,0.11,-0.31,-0.71,
2.579,-0.92,-0.14,-2.10,0.09,-0.30,-0.71,
2.579,-0.92,-0.14,-2.10,0.08,-0.29,-0.72,
2.609,-0.84,-0.16,-1.99,0.08,-0.29,-0.72,
2.61,-0.84,-0.16,-1.99,0.07,-0.28,-0.72,
2.61,-0.84,-0.16,-1.99,0.06,-0.26,-0.73,
2.61,-0.84,-0.16,-1.99,0.05,-0.26,-0.74,
2.61,-0.84,-0.16,-1.99,0.05,-0.25,-0.75,
2.61,-0.84,-0.16,-1.99,0.04,-0.24,-0.77,
2.611,-0.47,-0.20,-1.55,0.04,-0.24,-0.77,
2.611,-0.47,-0.20,-1.55,0.04,-0.23,-0.78,
2.611,-0.47,-0.20,-1.55,0.05,-0.22,-0.80,
2.611,-0.47,-0.20,-1.55,0.05,-0.21,-0.81,
2.612,-0.47,-0.20,-1.55,0.06,-0.21,-0.82,
2.612,-0.47,-0.20,-1.55,0.07,-0.20,-0.83,
2.612,-0.56,0.00,-0.78,0.07,-0.20,-0.83,
2.612,-0.56,0.00,-0.78,0.08,-0.19,-0.83,
2.612,-0.56,0.00,-0.78,0.10,-0.17,-0.84,
2.613,-0.56,0.00,-0.78,0.11,-0.17,-0.84,
2.613,-0.56,0.00,-0.78,0.13,-0.15,-0.84,
2.613,-0.56,0.00,-0.78,0.15,-0.13,-0.84,
2.613,-0.93,0.50,-0.20,0.15,-0.13,-0.84,
2.614,-0.93,0.50,-0.20,0.16,-0.11,-0.84,
2.614,-0.93,0.50,-0.20,0.19,-0.08,-0.84,
2.614,-0.93,0.50,-0.20,0.19,-0.07,-0.85,
2.614,-0.93,0.50,-0.20,0.20,-0.06,-0.85,
2.614,-0.93,0.50,-0.20,0.20,-0.04,-0.85,
2.622,-0.83,0.47,-0.30,0.20,-0.04,-0.85,
2.623,-0.83,0.47,-0.30,0.20,-0.03,-0.85,
2.639,-0.83,0.47,-0.30,0.19,-0.01,-0.86,
2.64,-0.83,0.47,-0.30,0.19,-0.00,-0.87,
2.64,-0.83,0.47,-0.30,0.18,0.01,-0.87,
2.64,-0.83,0.47,-0.30,0.16,0.02,-0.88,
2.64,-0.88,0.27,-0.83,0.16,0.02,-0.88,
2.641,-0.88,0.27,-0.83,0.14,0.02,-0.89,
2.641,-0.88,0.27,-0.83,0.10,0.02,-0.90,
2.641,-0.88,0.27,-0.83,0.09,0.02,-0.90,
2.641,-0.88,0.27,-0.83,0.06,0.02,-0.90,
2.641,-0.88,0.27,-0.83,0.03,0.02,-0.91,
2.641,-1.21,0.44,-1.10,0.03,0.02,-0.91,
2.642,-1.21,0.44,-1.10,-0.00,0.01,-0.91,
2.642,-1.21,0.44,-1.10,-0.05,-0.01,-0.91,
2.642,-1.21,0.44,-1.10,-0.06,-0.02,-0.90,
2.642,-1.21,0.44,-1.10,-0.09,-0.03,-0.90,
2.648,-1.21,0.44,-1.10,-0.12,-0.05,-0.90,
2.648,-1.72,0.78,-0.86,-0.12,-0.05,-0.90,
2.649,-1.72,0.78,-0.86,-0.16,-0.07,-0.89,
2.65,-1.72,0.78,-0.86,-0.20,-0.10,-0.87,
2.651,-1.72,0.78,-0.86,-0.22,-0.11,-0.87,
2.655,-1.72,0.78,-0.86,-0.25,-0.14,-0.85,
2.655,-1.72,0.78,-0.86,-0.28,-0.16,-0.84,
2.657,-2.09,0.96,-0.29,-0.28,-0.16,-0.84,
2.657,-2.09,0.96,-0.29,-0.31,-0.19,-0.82,
2.66,-2.09,0.96,-0.29,-0.35,-0.23,-0.80,
2.661,-2.09,0.96,-0.29,-0.37,-0.24,-0.79,
2.664,-2.09,0.96,-0.29,-0.40,-0.27,-0.77,
2.665,-2.09,0.96,-0.29,-0.43,-0.30,-0.75,
2.674,-2.30,1.05,0.45,-0.43,-0.30,-0.75,
2.675,-2.30,1.05,0.45,-0.47,-0.34,-0.73,
2.675,-2.30,1.05,0.45,-0.52,-0.39,-0.70,
2.675,-2.30,1.05,0.45,-0.55,-0.42,-0.68,
2.675,-2.30,1.05,0.45,-0.57,-0.44,-0.67,
2.675,-2.30,1.05,0.45,-0.60,-0.47,-0.65,
2.676,-2.13,1.09,1.43,-0.60,-0.47,-0.65,
2.677,-2.13,1.09,1.43,-0.63,-0.50,-0.64,
2.68,-2.13,1.09,1.43,-0.67,-0.53,-0.61,
2.681,-2.13,1.09,1.43,-0.69,-0.55,-0.59,
2.683,-2.13,1.09,1.43,-0.70,-0.56,-0.59,
2.685,-2.13,1.09,1.43,-0.73,-0.58,-0.58,
2.687,-1.75,1.15,2.78,-0.73,-0.58,-0.58,
2.688,-1.75,1.15,2.78,-0.74,-0.59,-0.56,
2.689,-1.75,1.15,2.78,-0.76,-0.61,-0.55,
2.69,-1.75,1.15,2.78,-0.77,-0.61,-0.54,
2.692,-1.75,1.15,2.78,-0.77,-0.61,-0.53,
2.696,-1.75,1.15,2.78,-0.77,-0.61,-0.53,
2.697,-1.11,1.09,4.53,-0.77,-0.61,-0.53,
2.697,-1.11,1.09,4.53,-0.77,-0.60,-0.52,
2.709,-1.11,1.09,4.53,-0.75,-0.58,-0.52,
2.71,-1.11,1.09,4.53,-0.74,-0.57,-0.52,
2.71,-1.11,1.09,4.53,-0.72,-0.55,-0.52,
2.71,-1.11,1.09,4.53,-0.70,-0.51,-0.51,
2.71,-0.55,0.92,6.25,-0.70,-0.51,-0.51,
2.71,-0.55,0.92,6.25,-0.67,-0.48,-0.51,
2.71,-0.55,0.92,6.25,-0.62,-0.42,-0.51,
2.711,-0.55,0.92,6.25,-0.60,-0.40,-0.51,
2.735,-0.55,0.92,6.25,-0.56,-0.36,-0.51,
2.735,-0.55,0.92,6.25,-0.52,-0.31,-0.50,
2.735,-0.27,0.79,7.52,-0.52,-0.31,-0.50,
2.735,-0.27,0.79,7.52,-0.47,-0.25,-0.50,
2.735,-0.27,0.79,7.52,-0.40,-0.17,-0.49,
2.736,-0.27,0.79,7.52,-0.37,-0.14,-0.49,
2.736,-0.27,0.79,7.52,-0.32,-0.07,-0.48,
2.736,-0.27,0.79,7.52,-0.27,-0.00,-0.47,
2.736,-0.30,0.76,8.11,-0.27,-0.00,-0.47,
2.737,-0.30,0.76,8.11,-0.21,0.07,-0.46,
2.737,-0.30,0.76,8.11,-0.13,0.18,-0.44,
2.737,-0.30,0.76,8.11,-0.10,0.22,-0.44,
2.737,-0.30,0.76,8.11,-0.05,0.30,-0.42,
2.737,-0.30,0.76,8.11,-0.01,0.38,-0.41,
2.737,-0.25,0.85,7.76,-0.01,0.38,-0.41,
2.737,-0.25,0.85,7.76,0.04,0.45,-0.40,
2.74,-0.25,0.85,7.76,0.09,0.56,-0.38,
2.741,-0.25,0.85,7.76,0.11,0.59,-0.38,
2.742,-0.25,0.85,7.76,0.13,0.66,-0.37,
2.744,-0.25,0.85,7.76,0.16,0.72,-0.36,
2.746,-0.18,0.96,6.44,0.16,0.72,-0.36,
2.747,-0.18,0.96,6.44,0.17,0.77,-0.35,
2.75,-0.18,0.96,6.44,0.19,0.85,-0.34,
2.755,-0.18,0.96,6.44,0.20,0.96,-0.32,
2.756,-0.18,0.96,6.44,0.20,0.96,-0.32,
2.757,-0.18,0.96,6.44,0.19,1.00,-0.31,
2.76,-0.18,0.96,6.44,0.19,1.00,-0.31,
2.76,-0.24,1.15,4.51,0.19,1.00,-0.31,
2.76,-0.24,1.15,4.51,0.18,1.02,-0.30,
2.761,-0.24,1.15,4.51,0.16,1.04,-0.29,
2.763,-0.24,1.15,4.51,0.15,1.04,-0.28,
2.765,-0.24,1.15,4.51,0.13,1.05,-0.27,
2.768,-0.42,1.35,3.28,0.13,1.05,-0.27,
2.768,-0.42,1.35,3.28,0.10,1.04,-0.26,
2.77,-0.42,1.35,3.28,0.05,1.03,-0.25,
2.771,-0.42,1.35,3.28,0.03,1.02,-0.24,
2.773,-0.42,1.35,3.28,-0.01,1.01,-0.23,
2.775,-0.42,1.35,3.28,-0.05,0.99,-0.22,
2.777,-0.62,1.61,2.11,-0.05,0.99,-0.22,
2.777,-0.62,1.61,2.11,-0.10,0.97,-0.21,
2.779,-0.62,1.61,2.11,-0.17,0.94,-0.20,
2.781,-0.62,1.61,2.11,-0.19,0.93,-0.19,
2.783,-0.62,1.61,2.11,-0.24,0.91,-0.19,
2.785,-0.62,1.61,2.11,-0.29,0.89,-0.18,
2.806,-0.69,1.85,1.42,-0.29,0.89,-0.18,
2.806,-0.69,1.85,1.42,-0.37,0.87,-0.17,
2.806,-0.69,1.85,1.42,-0.44,0.84,-0.17,
2.807,-0.69,1.85,1.42,-0.46,0.83,-0.17,
2.807,-0.69,1.85,1.42,-0.49,0.82,-0.17,
2.807,-0.69,1.85,1.42,-0.53,0.80,-0.17,
2.807,-0.57,1.78,1.41,-0.53,0.80,-0.17,
2.807,-0.57,1.78,1.41,-0.57,0.79,-0.17,
2.808,-0.57,1.78,1.41,-0.62,0.78,-0.17,
2.808,-0.57,1.78,1.41,-0.64,0.78,-0.17,
2.808,-0.57,1.78,1.41,-0.66,0.78,-0.17,
2.808,-0.57,1.78,1.41,-0.68,0.79,-0.17,
2.808,-0.63,1.58,2.07,-0.68,0.79,-0.17,
2.809,-0.63,1.58,2.07,-0.70,0.79,-0.16,
2.813,-0.63,1.58,2.07,-0.71,0.80,-0.16,
2.813,-0.63,1.58,2.07,-0.71,0.80,-0.15,
2.813,-0.63,1.58,2.07,-0.71,0.81,-0.14,
2.823,-0.63,1.58,2.07,-0.71,0.82,-0.13,
2.823,-0.76,1.07,3.01,-0.71,0.82,-0.13,
2.823,-0.76,1.07,3.01,-0.69,0.84,-0.13,
2.824,-0.76,1.07,3.01,-0.66,0.86,-0.11,
2.824,-0.76,1.07,3.01,-0.65,0.87,-0.10,
2.824,-0.76,1.07,3.01,-0.61,0.89,-0.09,
2.824,-0.76,1.07,3.01,-0.57,0.91,-0.07,
2.829,-1.02,0.47,3.96,-0.57,0.91,-0.07,
2.829,-1.02,0.47,3.96,-0.53,0.94,-0.06,
2.832,-1.02,0.47,3.96,-0.45,0.98,-0.03,
2.832,-1.02,0.47,3.96,-0.42,0.99,-0.02,
2.839,-1.02,0.47,3.96,-0.36,1.01,0.00,
2.84,-1.02,0.47,3.96,-0.29,1.04,0.03,
2.84,-1.39,-0.10,4.58,-0.29,1.04,0.03,
2.84,-1.39,-0.10,4.58,-0.23,1.06,0.06,
2.84,-1.39,-0.10,4.58,-0.11,1.09,0.10,
2.84,-1.39,-0.10,4.58,-0.07,1.10,0.12,
2.843,-1.39,-0.10,4.58,0.00,1.11,0.15,
2.844,-1.39,-0.10,4.58,0.09,1.13,0.19,
2.847,-1.84,-0.57,4.65,0.09,1.13,0.19,
2.847,-1.84,-0.57,4.65,0.16,1.15,0.23,
2.881,-1.84,-0.57,4.65,0.28,1.16,0.28,
2.881,-1.84,-0.57,4.65,0.36,1.17,0.33,
2.881,-1.84,-0.57,4.65,0.40,1.17,0.35,
2.882,-1.84,-0.57,4.65,0.48,1.17,0.39,
2.882,-2.20,-0.77,3.95,0.48,1.17,0.39,
2.882,-2.20,-0.77,3.95,0.55,1.17,0.44,
2.882,-2.20,-0.77,3.95,0.64,1.16,0.50,
2.882,-2.20,-0.77,3.95,0.67,1.16,0.53,
2.883,-2.20,-0.77,3.95,0.73,1.15,0.57,
2.883,-2.20,-0.77,3.95,0.78,1.13,0.62,
2.883,-2.37,-0.86,2.53,0.78,1.13,0.62,
2.883,-2.37,-0.86,2.53,0.83,1.11,0.66,
2.883,-2.37,-0.86,2.53,0.89,1.06,0.72,
2.883,-2.37,-0.86,2.53,0.92,1.03,0.76,
2.884,-2.37,-0.86,2.53,0.94,1.01,0.78,
2.884,-2.37,-0.86,2.53,0.96,0.97,0.81,
2.884,-2.16,-0.92,0.96,0.96,0.97,0.81,
2.884,-2.16,-0.92,0.96,0.98,0.93,0.84,
2.884,-2.16,-0.92,0.96,1.01,0.86,0.89,
2.885,-2.16,-0.92,0.96,1.02,0.84,0.90,
2.885,-2.16,-0.92,0.96,1.03,0.79,0.93,
2.887,-2.16,-0.92,0.96,1.04,0.75,0.96,
2.89,-1.89,-0.84,-0.33,1.04,0.75,0.96,
2.89,-1.89,-0.84,-0.33,1.04,0.70,0.98,
2.89,-1.89,-0.84,-0.33,1.04,0.61,1.01,
2.891,-1.89,-0.84,-0.33,1.04,0.59,1.02,
2.894,-1.89,-0.84,-0.33,1.04,0.53,1.04,
2.895,-1.89,-0.84,-0.33,1.03,0.48,1.06,
2.901,-1.59,-0.72,-1.30,1.03,0.48,1.06,
2.902,-1.59,-0.72,-1.30,1.02,0.42,1.08,
2.902,-1.59,-0.72,-1.30,1.01,0.34,1.10,
2.902,-1.59,-0.72,-1.30,1.00,0.31,1.11,
2.905,-1.59,-0.72,-1.30,0.99,0.25,1.12,
2.906,-1.59,-0.72,-1.30,0.98,0.20,1.14,
2.906,-1.33,-0.67,-1.90,0.98,0.20,1.14,
2.907,-1.33,-0.67,-1.90,0.96,0.14,1.15,
2.91,-1.33,-0.67,-1.90,0.94,0.06,1.16,
2.911,-1.33,-0.67,-1.90,0.94,0.04,1.16,
2.914,-1.33,-0.67,-1.90,0.93,-0.01,1.17,
2.917,-1.33,-0.67,-1.90,0.92,-0.05,1.18,
2.918,-1.04,-0.74,-2.05,0.92,-0.05,1.18,
2.918,-1.04,-0.74,-2.05,0.91,-0.09,1.18,
2.92,-1.04,-0.74,-2.05,0.89,-0.15,1.19,
2.921,-1.04,-0.74,-2.05,0.89,-0.18,1.20,
2.922,-1.04,-0.74,-2.05,0.88,-0.20,1.20,
2.925,-1.04,-0.74,-2.05,0.88,-0.23,1.21,
2.926,-0.95,-0.84,-1.96,0.88,-0.23,1.21,
2.927,-0.95,-0.84,-1.96,0.88,-0.26,1.21,
2.929,-0.95,-0.84,-1.96,0.87,-0.30,1.23,
2.933,-0.95,-0.84,-1.96,0.87,-0.32,1.24,
2.933,-0.95,-0.84,-1.96,0.87,-0.34,1.24,
2.934,-0.95,-0.84,-1.96,0.87,-0.35,1.25,
2.937,-0.90,-0.96,-1.80,0.87,-0.35,1.25,
2.938,-0.90,-0.96,-1.80,0.87,-0.37,1.26,
2.939,-0.90,-0.96,-1.80,0.87,-0.40,1.27,
2.941,-0.90,-0.96,-1.80,0.87,-0.41,1.28,
2.942,-0.90,-0.96,-1.80,0.87,-0.42,1.28,
2.945,-0.90,-0.96,-1.80,0.87,-0.43,1.29,
2.947,-0.90,-1.06,-1.71,0.87,-0.43,1.29,
2.947,-0.90,-1.06,-1.71,0.88,-0.44,1.30,
2.951,-0.90,-1.06,-1.71,0.88,-0.45,1.31,
2.952,-0.90,-1.06,-1.71,0.88,-0.45,1.32,
2.978,-0.90,-1.06,-1.71,0.88,-0.45,1.32,
2.978,-0.90,-1.06,-1.71,0.88,-0.45,1.33,
2.979,-0.83,-1.11,-1.79,0.88,-0.45,1.33,
2.979,-0.83,-1.11,-1.79,0.88,-0.46,1.34,
2.979,-0.83,-1.11,-1.79,0.88,-0.46,1.35,
2.979,-0.83,-1.11,-1.79,0.87,-0.45,1.36,
2.98,-0.83,-1.11,-1.79,0.87,-0.45,1.36,
2.98,-0.83,-1.11,-1.79,0.87,-0.45,1.37,
2.98,-0.72,-1.21,-1.98,0.87,-0.45,1.37,
2.981,-0.72,-1.21,-1.98,0.86,-0.45,1.37,
2.981,-0.72,-1.21,-1.98,0.85,-0.44,1.38,
2.981,-0.72,-1.21,-1.98,0.84,-0.43,1.38,
2.982,-0.72,-1.21,-1.98,0.84,-0.43,1.38,
2.982,-0.72,-1.21,-1.98,0.84,-0.42,1.38,
2.983,-0.49,-1.18,-2.19,0.84,-0.42,1.38,
2.983,-0.49,-1.18,-2.19,0.83,-0.41,1.38,
2.983,-0.49,-1.18,-2.19,0.82,-0.40,1.37,
2.984,-0.49,-1.18,-2.19,0.81,-0.38,1.37,
2.984,-0.49,-1.18,-2.19,0.80,-0.38,1.37,
2.985,-0.49,-1.18,-2.19,0.80,-0.36,1.37,
2.993,-0.29,-1.11,-2.37,0.80,-0.36,1.37,
2.994,-0.29,-1.11,-2.37,0.79,-0.34,1.36,
2.995,-0.29,-1.11,-2.37,0.77,-0.32,1.35,
2.995,-0.29,-1.11,-2.37,0.76,-0.30,1.34,
2.995,-0.29,-1.11,-2.37,0.76,-0.30,1.34,
2.996,-0.29,-1.11,-2.37,0.75,-0.28,1.33,
2.999,-0.05,-1.07,-2.50,0.75,-0.28,1.33,
2.999,-0.05,-1.07,-2.50,0.74,-0.26,1.32,
3.0,-0.05,-1.07,-2.50,0.73,-0.23,1.30,
3.013,-0.05,-1.07,-2.50,0.73,-0.20,1.28,
3.014,-0.05,-1.07,-2.50,0.73,-0.19,1.27,
3.014,-0.05,-1.07,-2.50,0.72,-0.16,1.26,
3.014,0.08,-0.92,-2.53,0.72,-0.16,1.26,
3.014,0.08,-0.92,-2.53,0.72,-0.13,1.25,
3.015,0.08,-0.92,-2.53,0.71,-0.09,1.22,
3.015,0.08,-0.92,-2.53,0.70,-0.06,1.21,
3.015,0.08,-0.92,-2.53,0.70,-0.05,1.20,
3.015,0.08,-0.92,-2.53,0.69,-0.02,1.19,
3.023,0.05,-0.72,-2.82,0.69,-0.02,1.19,
3.023,0.05,-0.72,-2.82,0.67,0.01,1.18,
3.023,0.05,-0.72,-2.82,0.65,0.05,1.15,
3.024,0.05,-0.72,-2.82,0.64,0.08,1.14,
3.024,0.05,-0.72,-2.82,0.63,0.09,1.13,
3.025,0.05,-0.72,-2.82,0.61,0.12,1.11,
3.027,0.02,-0.66,-3.36,0.61,0.12,1.11,
3.027,0.02,-0.66,-3.36,0.59,0.14,1.10,
3.03,0.02,-0.66,-3.36,0.55,0.18,1.07,
3.044,0.02,-0.66,-3.36,0.52,0.20,1.06,
3.044,0.02,-0.66,-3.36,0.51,0.21,1.05,
3.045,0.02,-0.66,-3.36,0.49,0.24,1.03,
3.045,0.00,-0.72,-3.86,0.49,0.24,1.03,
3.045,0.00,-0.72,-3.86,0.46,0.26,1.01,
3.045,0.00,-0.72,-3.86,0.41,0.29,0.99,
3.045,0.00,-0.72,-3.86,0.38,0.32,0.97,
3.046,0.00,-0.72,-3.86,0.36,0.33,0.96,
3.046,0.00,-0.72,-3.86,0.33,0.35,0.94,
3.063,-0.03,-0.62,-4.31,0.33,0.35,0.94,
3.064,-0.03,-0.62,-4.31,0.30,0.37,0.92,
3.064,-0.03,-0.62,-4.31,0.24,0.40,0.89,
3.064,-0.03,-0.62,-4.31,0.21,0.42,0.87,
3.065,-0.03,-0.62,-4.31,0.19,0.43,0.86,
3.065,-0.03,-0.62,-4.31,0.16,0.45,0.83,
3.065,-0.03,-0.58,-4.51,0.16,0.45,0.83,
3.065,-0.03,-0.58,-4.51,0.13,0.46,0.81,
3.066,-0.03,-0.58,-4.51,0.08,0.49,0.77,
3.066,-0.03,-0.58,-4.51,0.05,0.50,0.75,
3.066,-0.03,-0.58,-4.51,0.04,0.51,0.74,
3.066,-0.03,-0.58,-4.51,0.01,0.52,0.71,
3.067,-0.02,-0.54,-4.46,0.01,0.52,0.71,
3.067,-0.02,-0.54,-4.46,-0.01,0.54,0.68,
3.07,-0.02,-0.54,-4.46,-0.04,0.56,0.65,
3.071,-0.02,-0.54,-4.46,-0.07,0.57,0.62,
3.072,-0.02,-0.54,-4.46,-0.07,0.57,0.61,
3.075,-0.02,-0.54,-4.46,-0.09,0.58,0.58,
3.077,-0.06,-0.68,-4.21,-0.09,0.58,0.58,
3.077,-0.06,-0.68,-4.21,-0.11,0.58,0.56,
3.079,-0.06,-0.68,-4.21,-0.12,0.59,0.53,
3.081,-0.06,-0.68,-4.21,-0.13,0.59,0.51,
3.083,-0.06,-0.68,-4.21,-0.14,0.59,0.50,
3.084,-0.06,-0.68,-4.21,-0.14,0.59,0.48,
3.087,-0.41,-0.85,-3.89,-0.14,0.59,0.48,
3.087,-0.41,-0.85,-3.89,-0.15,0.59,0.47,
3.089,-0.41,-0.85,-3.89,-0.15,0.59,0.45,
3.09,-0.41,-0.85,-3.89,-0.15,0.58,0.44,
3.092,-0.41,-0.85,-3.89,-0.14,0.58,0.44,
3.094,-0.41,-0.85,-3.89,-0.14,0.58,0.43,
3.097,-0.82,-0.97,-3.51,-0.14,0.58,0.43,
3.098,-0.82,-0.97,-3.51,-0.13,0.58,0.42,
3.1,-0.82,-0.97,-3.51,-0.11,0.58,0.42,
3.103,-0.82,-0.97,-3.51,-0.10,0.57,0.42,
3.104,-0.82,-0.97,-3.51,-0.09,0.57,0.42,
3.105,-0.82,-0.97,-3.51,-0.08,0.58,0.42,
3.107,-1.18,-1.13,-3.22,-0.08,0.58,0.42,
3.107,-1.18,-1.13,-3.22,-0.06,0.58,0.42,
3.109,-1.18,-1.13,-3.22,-0.04,0.58,0.42,
3.111,-1.18,-1.13,-3.22,-0.02,0.58,0.43,
3.113,-1.18,-1.13,-3.22,-0.01,0.58,0.43,
3.133,-1.18,-1.13,-3.22,0.01,0.58,0.44,
3.133,-1.37,-1.34,-3.08,0.01,0.58,0.44,
3.133,-1.37,-1.34,-3.08,0.03,0.57,0.44,
3.155,-1.37,-1.34,-3.08,0.06,0.57,0.45,
3.156,-1.37,-1.34,-3.08,0.09,0.56,0.46,
3.156,-1.37,-1.34,-3.08,0.10,0.56,0.47,
3.156,-1.37,-1.34,-3.08,0.12,0.55,0.48,
3.156,-1.62,-1.46,-3.02,0.12,0.55,0.48,
3.156,-1.62,-1.46,-3.02,0.14,0.55,0.49,
3.156,-1.62,-1.46,-3.02,0.18,0.54,0.50,
3.157,-1.62,-1.46,-3.02,0.21,0.53,0.52,
3.157,-1.62,-1.46,-3.02,0.22,0.53,0.52,
3.157,-1.62,-1.46,-3.02,0.25,0.52,0.53,
3.157,-1.67,-1.50,-3.06,0.25,0.52,0.53,
3.157,-1.67,-1.50,-3.06,0.29,0.50,0.56,
3.157,-1.67,-1.50,-3.06,0.32,0.48,0.58,
3.158,-1.67,-1.50,-3.06,0.33,0.47,0.58,
3.158,-1.67,-1.50,-3.06,0.36,0.46,0.60,
3.158,-1.67,-1.50,-3.06,0.37,0.44,0.60,
3.158,-1.80,-1.61,-3.21,0.37,0.44,0.60,
3.158,-1.80,-1.61,-3.21,0.39,0.42,0.62,
3.158,-1.80,-1.61,-3.21,0.42,0.38,0.64,
3.158,-1.80,-1.61,-3.21,0.45,0.35,0.65,
3.159,-1.80,-1.61,-3.21,0.46,0.33,0.66,
3.159,-1.80,-1.61,-3.21,0.48,0.29,0.67,
3.159,-1.85,-1.62,-3.34,0.48,0.29,0.67,
3.159,-1.85,-1.62,-3.34,0.50,0.25,0.69,
3.162,-1.85,-1.62,-3.34,0.53,0.18,0.71,
3.162,-1.85,-1.62,-3.34,0.55,0.13,0.73,
3.163,-1.85,-1.62,-3.34,0.56,0.10,0.73,
3.165,-1.85,-1.62,-3.34,0.58,0.04,0.75,
3.167,-2.06,-1.61,-3.37,0.58,0.04,0.75,
3.167,-2.06,-1.61,-3.37,0.61,-0.02,0.77,
3.169,-2.06,-1.61,-3.37,0.64,-0.11,0.79,
3.171,-2.06,-1.61,-3.37,0.67,-0.18,0.81,
3.172,-2.06,-1.61,-3.37,0.68,-0.22,0.81,
3.174,-2.06,-1.61,-3.37,0.71,-0.30,0.83,
3.177,-2.09,-1.52,-3.15,0.71,-0.30,0.83,
3.177,-2.09,-1.52,-3.15,0.73,-0.37,0.84,
3.181,-2.09,-1.52,-3.15,0.78,-0.49,0.87,
3.181,-2.09,-1.52,-3.15,0.81,-0.57,0.88,
3.183,-2.09,-1.52,-3.15,0.83,-0.61,0.89,
3.185,-2.09,-1.52,-3.15,0.86,-0.70,0.91,
3.187,-2.24,-1.51,-2.80,0.86,-0.70,0.91,
3.187,-2.24,-1.51,-2.80,0.91,-0.82,0.93,
3.189,-2.24,-1.51,-2.80,0.94,-0.91,0.95,
3.19,-2.24,-1.51,-2.80,0.98,-0.99,0.97,
3.195,-2.24,-1.51,-2.80,1.00,-1.03,0.98,
3.198,-2.24,-1.51,-2.80,1.03,-1.11,0.99,
3.198,-2.31,-1.34,-2.33,1.03,-1.11,0.99,
3.198,-2.31,-1.34,-2.33,1.07,-1.18,1.01,
3.2,-2.31,-1.34,-2.33,1.13,-1.29,1.04,
3.201,-2.31,-1.34,-2.33,1.16,-1.35,1.05,
3.203,-2.31,-1.34,-2.33,1.17,-1.39,1.06,
3.205,-2.31,-1.34,-2.33,1.21,-1.44,1.08,
3.207,-2.37,-1.09,-1.97,1.21,-1.44,1.08,
3.207,-2.37,-1.09,-1.97,1.25,-1.51,1.10,
3.209,-2.37,-1.09,-1.97,1.27,-1.55,1.12,
3.211,-2.37,-1.09,-1.97,1.28,-1.58,1.13,
3.215,-2.37,-1.09,-1.97,1.29,-1.61,1.15,
3.218,-2.37,-1.09,-1.97,1.30,-1.62,1.17,
3.219,-2.29,-0.96,-2.06,1.30,-1.62,1.17,
3.219,-2.29,-0.96,-2.06,1.30,-1.63,1.19,
3.219,-2.29,-0.96,-2.06,1.30,-1.63,1.20,
3.221,-2.29,-0.96,-2.06,1.28,-1.63,1.22,
3.222,-2.29,-0.96,-2.06,1.26,-1.62,1.24,
3.224,-2.29,-0.96,-2.06,1.24,-1.60,1.26,
3.227,-2.08,-0.87,-2.56,1.24,-1.60,1.26,
3.227,-2.08,-0.87,-2.56,1.21,-1.58,1.28,
3.234,-2.08,-0.87,-2.56,1.17,-1.55,1.30,
3.234,-2.08,-0.87,-2.56,1.13,-1.52,1.32,
3.236,-2.08,-0.87,-2.56,1.08,-1.49,1.33,
3.236,-2.08,-0.87,-2.56,1.02,-1.46,1.34,
3.237,-1.65,-0.72,-3.01,1.02,-1.46,1.34,
3.237,-1.65,-0.72,-3.01,0.96,-1.42,1.36,
3.259,-1.65,-0.72,-3.01,0.90,-1.37,1.37,
3.26,-1.65,-0.72,-3.01,0.83,-1.33,1.38,
3.26,-1.65,-0.72,-3.01,0.75,-1.28,1.38,
3.26,-1.65,-0.72,-3.01,0.68,-1.22,1.39,
3.26,-1.01,-0.40,-3.14,0.68,-1.22,1.39,
3.26,-1.01,-0.40,-3.14,0.60,-1.17,1.39,
3.261,-1.01,-0.40,-3.14,0.48,-1.08,1.39,
3.261,-1.01,-0.40,-3.14,0.44,-1.05,1.38,
3.261,-1.01,-0.40,-3.14,0.36,-1.00,1.38,
3.261,-1.01,-0.40,-3.14,0.28,-0.93,1.37,
3.261,-0.08,-0.13,-2.73,0.28,-0.93,1.37,
3.261,-0.08,-0.13,-2.73,0.20,-0.88,1.36,
3.262,-0.08,-0.13,-2.73,0.12,-0.82,1.34,
3.262,-0.08,-0.13,-2.73,0.04,-0.75,1.33,
3.264,-0.08,-0.13,-2.73,-0.04,-0.69,1.31,
3.265,-0.08,-0.13,-2.73,-0.11,-0.62,1.28,
3.267,0.83,-0.00,-1.81,-0.11,-0.62,1.28,
3.267,0.83,-0.00,-1.81,-0.17,-0.55,1.26,
3.27,0.83,-0.00,-1.81,-0.24,-0.47,1.23,
3.27,0.83,-0.00,-1.81,-0.29,-0.40,1.20,
3.273,0.83,-0.00,-1.81,-0.34,-0.33,1.16,
3.274,0.83,-0.00,-1.81,-0.38,-0.25,1.12,
3.277,1.74,-0.02,-0.49,-0.38,-0.25,1.12,
3.277,1.74,-0.02,-0.49,-0.42,-0.18,1.09,
3.28,1.74,-0.02,-0.49,-0.46,-0.11,1.04,
3.281,1.74,-0.02,-0.49,-0.48,-0.04,0.99,
3.282,1.74,-0.02,-0.49,-0.50,0.02,0.94,
3.284,1.74,-0.02,-0.49,-0.52,0.08,0.89,
3.305,2.45,0.07,0.83,-0.52,0.08,0.89,
3.305,2.45,0.07,0.83,-0.53,0.13,0.84,
3.306,2.45,0.07,0.83,-0.55,0.18,0.79,
3.306,2.45,0.07,0.83,-0.55,0.23,0.74,
3.306,2.45,0.07,0.83,-0.55,0.28,0.69,
3.306,2.45,0.07,0.83,-0.55,0.32,0.65,
3.307,2.50,0.14,1.69,-0.55,0.32,0.65,
3.307,2.50,0.14,1.69,-0.55,0.37,0.60,
3.307,2.50,0.14,1.69,-0.55,0.41,0.56,
3.308,2.50,0.14,1.69,-0.54,0.45,0.53,
3.308,2.50,0.14,1.69,-0.54,0.49,0.49,
3.308,2.50,0.14,1.69,-0.53,0.52,0.47,
3.308,1.99,0.09,1.92,-0.53,0.52,0.47,
3.309,1.99,0.09,1.92,-0.54,0.54,0.44,
3.313,1.99,0.09,1.92,-0.54,0.56,0.43,
3.314,1.99,0.09,1.92,-0.54,0.57,0.42,
3.314,1.99,0.09,1.92,-0.55,0.58,0.41,
3.315,1.99,0.09,1.92,-0.55,0.58,0.41,
3.318,0.81,-0.07,1.65,-0.55,0.58,0.41,
3.318,0.81,-0.07,1.65,-0.56,0.58,0.42,
3.319,0.81,-0.07,1.65,-0.58,0.56,0.45,
3.32,0.81,-0.07,1.65,-0.59,0.56,0.46,
3.322,0.81,-0.07,1.65,-0.60,0.54,0.49,
3.324,0.81,-0.07,1.65,-0.61,0.53,0.52,
3.331,-0.31,-0.11,1.55,-0.61,0.53,0.52,
3.331,-0.31,-0.11,1.55,-0.63,0.51,0.54,
3.332,-0.31,-0.11,1.55,-0.65,0.50,0.59,
3.332,-0.31,-0.11,1.55,-0.66,0.50,0.60,
3.333,-0.31,-0.11,1.55,-0.68,0.49,0.63,
3.335,-0.31,-0.11,1.55,-0.70,0.49,0.65,
3.337,-0.27,-0.06,1.53,-0.70,0.49,0.65,
3.337,-0.27,-0.06,1.53,-0.72,0.49,0.68,
3.339,-0.27,-0.06,1.53,-0.74,0.49,0.69,
3.34,-0.27,-0.06,1.53,-0.76,0.50,0.71,
3.343,-0.27,-0.06,1.53,-0.79,0.51,0.71,
3.344,-0.27,-0.06,1.53,-0.80,0.52,0.71,
3.349,0.64,-0.20,1.82,-0.80,0.52,0.71,
3.35,0.64,-0.20,1.82,-0.82,0.53,0.71,
3.35,0.64,-0.20,1.82,-0.83,0.55,0.70,
3.351,0.64,-0.20,1.82,-0.83,0.58,0.69,
3.353,0.64,-0.20,1.82,-0.83,0.61,0.67,
3.354,0.64,-0.20,1.82,-0.83,0.64,0.65,
3.357,1.86,-0.26,2.64,-0.83,0.64,0.65,
3.357,1.86,-0.26,2.64,-0.82,0.68,0.63,
3.359,1.86,-0.26,2.64,-0.81,0.72,0.60,
3.361,1.86,-0.26,2.64,-0.80,0.76,0.58,
3.363,1.86,-0.26,2.64,-0.78,0.81,0.55,
3.364,1.86,-0.26,2.64,-0.76,0.86,0.53,
3.367,2.81,-0.23,3.54,-0.76,0.86,0.53,
3.367,2.81,-0.23,3.54,-0.73,0.92,0.50,
3.373,2.81,-0.23,3.54,-0.69,1.00,0.45,
3.373,2.81,-0.23,3.54,-0.68,1.03,0.44,
3.373,2.81,-0.23,3.54,-0.66,1.09,0.41,
3.374,2.81,-0.23,3.54,-0.64,1.14,0.38,
3.376,3.11,0.02,3.73,-0.64,1.14,0.38,
3.377,3.11,0.02,3.73,-0.62,1.19,0.35,
3.38,3.11,0.02,3.73,-0.60,1.23,0.33,
3.38,3.11,0.02,3.73,-0.59,1.28,0.30,
3.383,3.11,0.02,3.73,-0.58,1.32,0.27,
3.384,3.11,0.02,3.73,-0.58,1.36,0.25,
3.386,2.99,0.24,3.09,-0.58,1.36,0.25,
3.387,2.99,0.24,3.09,-0.58,1.39,0.24,
3.39,2.99,0.24,3.09,-0.59,1.42,0.22,
3.39,2.99,0.24,3.09,-0.60,1.45,0.20,
3.392,2.99,0.24,3.09,-0.63,1.46,0.19,
3.394,2.99,0.24,3.09,-0.66,1.48,0.17,
3.399,2.62,0.37,1.90,-0.66,1.48,0.17,
3.4,2.62,0.37,1.90,-0.68,1.48,0.16,
3.4,2.62,0.37,1.90,-0.72,1.49,0.15,
3.401,2.62,0.37,1.90,-0.76,1.50,0.13,
3.402,2.62,0.37,1.90,-0.80,1.50,0.11,
3.409,2.62,0.37,1.90,-0.85,1.50,0.09,
3.409,2.62,0.42,0.85,-0.85,1.50,0.09,
3.409,2.62,0.42,0.85,-0.90,1.50,0.07,
3.409,2.62,0.42,0.85,-0.95,1.49,0.05,
3.411,2.62,0.42,0.85,-1.00,1.49,0.03,
3.424,2.62,0.42,0.85,-1.06,1.48,0.00,
3.424,2.62,0.42,0.85,-1.11,1.47,-0.02,
3.424,2.67,0.41,0.40,-1.11,1.47,-0.02,
3.425,2.67,0.41,0.40,-1.15,1.45,-0.05,
3.425,2.67,0.41,0.40,-1.20,1.44,-0.07,
3.425,2.67,0.41,0.40,-1.24,1.42,-0.10,
3.425,2.67,0.41,0.40,-1.29,1.40,-0.12,
3.425,2.67,0.41,0.40,-1.32,1.39,-0.15,
3.426,2.70,0.33,0.72,-1.32,1.39,-0.15,
3.426,2.70,0.33,0.72,-1.36,1.37,-0.17,
3.434,2.70,0.33,0.72,-1.38,1.36,-0.19,
3.434,2.70,0.33,0.72,-1.41,1.34,-0.21,
3.437,2.70,0.33,0.72,-1.43,1.33,-0.22,
3.437,2.70,0.33,0.72,-1.44,1.33,-0.23,
3.437,2.43,0.17,1.48,-1.44,1.33,-0.23,
3.437,2.43,0.17,1.48,-1.45,1.33,-0.24,
3.442,2.43,0.17,1.48,-1.46,1.34,-0.25,
3.442,2.43,0.17,1.48,-1.46,1.34,-0.25,
3.442,2.43,0.17,1.48,-1.45,1.34,-0.25,
3.444,2.43,0.17,1.48,-1.44,1.35,-0.25,
3.447,2.15,-0.11,2.36,-1.44,1.35,-0.25,
3.447,2.15,-0.11,2.36,-1.43,1.37,-0.25,
3.449,2.15,-0.11,2.36,-1.39,1.40,-0.24,
3.451,2.15,-0.11,2.36,-1.38,1.40,-0.24,
3.467,2.15,-0.11,2.36,-1.35,1.43,-0.23,
3.467,2.15,-0.11,2.36,-1.31,1.44,-0.22,
3.467,1.76,-0.38,3.10,-1.31,1.44,-0.22,
3.467,1.76,-0.38,3.10,-1.28,1.46,-0.21,
3.467,1.76,-0.38,3.10,-1.21,1.48,-0.19,
3.467,1.76,-0.38,3.10,-1.18,1.48,-0.18,
3.467,1.76,-0.38,3.10,-1.13,1.49,-0.16,
3.468,1.76,-0.38,3.10,-1.08,1.49,-0.14,
3.468,1.39,-0.59,3.57,-1.08,1.49,-0.14,
3.468,1.39,-0.59,3.57,-1.02,1.50,-0.11,
3.469,1.39,-0.59,3.57,-0.93,1.49,-0.08,
3.473,1.39,-0.59,3.57,-0.90,1.49,-0.06,
3.474,1.39,-0.59,3.57,-0.84,1.48,-0.04,
3.474,1.39,-0.59,3.57,-0.78,1.47,-0.01,
3.477,1.04,-0.66,3.62,-0.78,1.47,-0.01,
3.477,1.04,-0.66,3.62,-0.71,1.45,0.02,
3.48,1.04,-0.66,3.62,-0.61,1.41,0.06,
3.481,1.04,-0.66,3.62,-0.58,1.40,0.08,
3.484,1.04,-0.66,3.62,-0.51,1.37,0.11,
3.485,1.04,-0.66,3.62,-0.45,1.33,0.14,
3.486,0.93,-0.73,3.27,-0.45,1.33,0.14,
3.487,0.93,-0.73,3.27,-0.35,1.26,0.19,
3.489,0.93,-0.73,3.27,-0.29,1.21,0.21,
3.49,0.93,-0.73,3.27,-0.26,1.18,0.23,
3.492,0.93,-0.73,3.27,-0.20,1.12,0.26,
3.497,0.93,-0.73,3.27,-0.14,1.05,0.28,
3.498,0.94,-0.69,2.68,-0.14,1.05,0.28,
3.498,0.94,-0.69,2.68,-0.08,0.99,0.31,
3.499,0.94,-0.69,2.68,0.01,0.88,0.35,
3.501,0.94,-0.69,2.68,0.04,0.84,0.36,
3.504,0.94,-0.69,2.68,0.09,0.76,0.38,
3.504,0.94,-0.69,2.68,0.15,0.69,0.41,
3.507,1.02,-0.67,2.12,0.15,0.69,0.41,
3.507,1.02,-0.67,2.12,0.21,0.60,0.43,
3.509,1.02,-0.67,2.12,0.29,0.48,0.46,
3.51,1.02,-0.67,2.12,0.32,0.44,0.47,
3.515,1.02,-0.67,2.12,0.37,0.36,0.50,
3.515,1.02,-0.67,2.12,0.41,0.28,0.52,
3.516,1.07,-0.70,1.64,0.41,0.28,0.52,
3.517,1.07,-0.70,1.64,0.46,0.20,0.54,
3.519,1.07,-0.70,1.64,0.53,0.08,0.57,
3.52,1.07,-0.70,1.64,0.55,0.04,0.58,
3.522,1.07,-0.70,1.64,0.60,-0.03,0.60,
3.524,1.07,-0.70,1.64,0.63,-0.11,0.63,
3.526,1.16,-0.80,1.16,0.63,-0.11,0.63,
3.527,1.16,-0.80,1.16,0.67,-0.18,0.64,
3.529,1.16,-0.80,1.16,0.72,-0.28,0.68,
3.531,1.16,-0.80,1.16,0.74,-0.32,0.69,
3.532,1.16,-0.80,1.16,0.77,-0.38,0.71,
3.534,1.16,-0.80,1.16,0.80,-0.43,0.73,
3.536,1.28,-0.84,0.75,0.80,-0.43,0.73,
3.537,1.28,-0.84,0.75,0.82,-0.49,0.75,
3.539,1.28,-0.84,0.75,0.86,-0.58,0.78,
3.54,1.28,-0.84,0.75,0.87,-0.61,0.79,
3.542,1.28,-0.84,0.75,0.88,-0.66,0.81,
3.545,1.28,-0.84,0.75,0.90,-0.71,0.83,
3.546,1.54,-0.89,0.35,0.90,-0.71,0.83,
3.547,1.54,-0.89,0.35,0.91,-0.76,0.84,
3.549,1.54,-0.89,0.35,0.92,-0.83,0.86,
3.55,1.54,-0.89,0.35,0.93,-0.85,0.87,
3.552,1.54,-0.89,0.35,0.93,-0.89,0.88,
3.554,1.54,-0.89,0.35,0.94,-0.93,0.90,
3.556,1.85,-0.83,0.07,0.94,-0.93,0.90,
3.556,1.85,-0.83,0.07,0.94,-0.96,0.90,
3.559,1.85,-0.83,0.07,0.94,-1.01,0.91,
3.561,1.85,-0.83,0.07,0.93,-1.02,0.91,
3.563,1.85,-0.83,0.07,0.93,-1.05,0.91,
3.564,1.85,-0.83,0.07,0.92,-1.08,0.92,
3.567,2.35,-0.67,-0.17,0.92,-1.08,0.92,
3.568,2.35,-0.67,-0.17,0.91,-1.10,0.91,
3.569,2.35,-0.67,-0.17,0.89,-1.13,0.90,
3.57,2.35,-0.67,-0.17,0.88,-1.14,0.90,
3.572,2.35,-0.67,-0.17,0.87,-1.16,0.89,
3.574,2.35,-0.67,-0.17,0.85,-1.17,0.88,
3.577,2.78,-0.49,-0.34,0.85,-1.17,0.88,
3.577,2.78,-0.49,-0.34,0.83,-1.19,0.86,
3.579,2.78,-0.49,-0.34,0.80,-1.20,0.84,
3.582,2.78,-0.49,-0.34,0.79,-1.20,0.83,
3.582,2.78,-0.49,-0.34,0.77,-1.20,0.81,
3.585,2.78,-0.49,-0.34,0.75,-1.19,0.79,
3.587,3.10,-0.19,-0.31,0.75,-1.19,0.79,
3.587,3.10,-0.19,-0.31,0.73,-1.18,0.78,
3.589,3.10,-0.19,-0.31,0.70,-1.15,0.75,
3.591,3.10,-0.19,-0.31,0.69,-1.14,0.74,
3.592,3.10,-0.19,-0.31,0.66,-1.13,0.72,
3.6,3.10,-0.19,-0.31,0.64,-1.11,0.69,
3.6,3.29,-0.10,-0.33,0.64,-1.11,0.69,
3.601,3.29,-0.10,-0.33,0.61,-1.09,0.66,
3.601,3.29,-0.10,-0.33,0.58,-1.05,0.62,
3.601,3.29,-0.10,-0.33,0.57,-1.03,0.60,
3.603,3.29,-0.10,-0.33,0.54,-1.00,0.57,
3.604,3.29,-0.10,-0.33,0.52,-0.96,0.54,
3.607,3.57,-0.27,-0.31,0.52,-0.96,0.54,
3.607,3.57,-0.27,-0.31,0.49,-0.92,0.50,
3.609,3.57,-0.27,-0.31,0.46,-0.86,0.45,
3.611,3.57,-0.27,-0.31,0.45,-0.83,0.43,
3.613,3.57,-0.27,-0.31,0.43,-0.79,0.40,
3.615,3.57,-0.27,-0.31,0.41,-0.74,0.37,
3.618,3.35,-0.28,-0.34,0.41,-0.74,0.37,
3.619,3.35,-0.28,-0.34,0.39,-0.69,0.34,
3.645,3.35,-0.28,-0.34,0.36,-0.62,0.30,
3.645,3.35,-0.28,-0.34,0.35,-0.60,0.29,
3.646,3.35,-0.28,-0.34,0.34,-0.55,0.26,
3.646,3.35,-0.28,-0.34,0.32,-0.51,0.23,
3.647,3.00,-0.34,-0.36,0.32,-0.51,0.23,
3.647,3.00,-0.34,-0.36,0.31,-0.46,0.21,
3.647,3.00,-0.34,-0.36,0.29,-0.40,0.17,
3.648,3.00,-0.34,-0.36,0.28,-0.38,0.16,
3.648,3.00,-0.34,-0.36,0.27,-0.34,0.14,
3.649,3.00,-0.34,-0.36,0.27,-0.30,0.12,
3.649,2.41,-0.43,-0.41,0.27,-0.30,0.12,
3.649,2.41,-0.43,-0.41,0.26,-0.26,0.10,
3.65,2.41,-0.43,-0.41,0.25,-0.22,0.07,
3.65,2.41,-0.43,-0.41,0.25,-0.20,0.06,
3.651,2.41,-0.43,-0.41,0.24,-0.18,0.04,
3.651,2.41,-0.43,-0.41,0.24,-0.16,0.02,
3.651,1.99,-0.61,-0.54,0.24,-0.16,0.02,
3.652,1.99,-0.61,-0.54,0.24,-0.13,0.00,
3.652,1.99,-0.61,-0.54,0.24,-0.10,-0.02,
3.653,1.99,-0.61,-0.54,0.24,-0.10,-0.02,
3.653,1.99,-0.61,-0.54,0.24,-0.08,-0.03,
3.663,1.99,-0.61,-0.54,0.24,-0.07,-0.04,
3.663,1.30,-0.66,-0.75,0.24,-0.07,-0.04,
3.663,1.30,-0.66,-0.75,0.25,-0.07,-0.05,
3.664,1.30,-0.66,-0.75,0.25,-0.06,-0.06,
3.664,1.30,-0.66,-0.75,0.26,-0.06,-0.06,
3.664,1.30,-0.66,-0.75,0.26,-0.06,-0.06,
3.664,1.30,-0.66,-0.75,0.27,-0.07,-0.06,
3.667,0.71,-0.75,-0.94,0.27,-0.07,-0.06,
3.667,0.71,-0.75,-0.94,0.28,-0.07,-0.06,
3.669,0.71,-0.75,-0.94,0.29,-0.09,-0.07,
3.67,0.71,-0.75,-0.94,0.29,-0.09,-0.07,
3.672,0.71,-0.75,-0.94,0.30,-0.09,-0.07,
3.674,0.71,-0.75,-0.94,0.32,-0.10,-0.07,
3.676,0.25,-0.86,-1.18,0.32,-0.10,-0.07,
3.677,0.25,-0.86,-1.18,0.32,-0.11,-0.07,
3.681,0.25,-0.86,-1.18,0.34,-0.12,-0.06,
3.681,0.25,-0.86,-1.18,0.35,-0.13,-0.06,
3.682,0.25,-0.86,-1.18,0.36,-0.14,-0.06,
3.684,0.25,-0.86,-1.18,0.37,-0.15,-0.05,
3.686,-0.23,-0.82,-1.48,0.37,-0.15,-0.05,
3.687,-0.23,-0.82,-1.48,0.38,-0.16,-0.05,
3.689,-0.23,-0.82,-1.48,0.40,-0.18,-0.04,
3.69,-0.23,-0.82,-1.48,0.40,-0.19,-0.03,
3.692,-0.23,-0.82,-1.48,0.41,-0.20,-0.03,
3.706,-0.23,-0.82,-1.48,0.42,-0.22,-0.02,
3.707,-0.60,-0.75,-1.89,0.42,-0.22,-0.02,
3.707,-0.60,-0.75,-1.89,0.43,-0.23,-0.01,
3.707,-0.60,-0.75,-1.89,0.43,-0.26,0.01,
3.708,-0.60,-0.75,-1.89,0.43,-0.27,0.01,
3.708,-0.60,-0.75,-1.89,0.44,-0.28,0.02,
3.708,-0.60,-0.75,-1.89,0.44,-0.30,0.03,
3.708,-0.83,-0.75,-2.42,0.44,-0.30,0.03,
3.709,-0.83,-0.75,-2.42,0.43,-0.32,0.04,
3.71,-0.83,-0.75,-2.42,0.42,-0.34,0.06,
3.744,-0.83,-0.75,-2.42,0.42,-0.35,0.06,
3.745,-0.83,-0.75,-2.42,0.41,-0.37,0.07,
3.745,-0.83,-0.75,-2.42,0.39,-0.38,0.09,
3.745,-1.00,-0.71,-2.98,0.39,-0.38,0.09,
3.746,-1.00,-0.71,-2.98,0.38,-0.40,0.10,
3.746,-1.00,-0.71,-2.98,0.36,-0.42,0.12,
3.746,-1.00,-0.71,-2.98,0.35,-0.42,0.13,
3.746,-1.00,-0.71,-2.98,0.33,-0.44,0.14,
3.747,-1.00,-0.71,-2.98,0.32,-0.46,0.15,
3.747,-0.99,-0.61,-3.33,0.32,-0.46,0.15,
3.747,-0.99,-0.61,-3.33,0.30,-0.47,0.16,
3.747,-0.99,-0.61,-3.33,0.27,-0.49,0.17,
3.748,-0.99,-0.61,-3.33,0.26,-0.50,0.18,
3.748,-0.99,-0.61,-3.33,0.25,-0.51,0.18,
3.748,-0.99,-0.61,-3.33,0.23,-0.52,0.18,
3.748,-0.72,-0.54,-3.40,0.23,-0.52,0.18,
3.749,-0.72,-0.54,-3.40,0.22,-0.53,0.18,
3.749,-0.72,-0.54,-3.40,0.20,-0.54,0.18,
3.749,-0.72,-0.54,-3.40,0.19,-0.55,0.18,
3.75,-0.72,-0.54,-3.40,0.18,-0.55,0.18,
3.75,-0.72,-0.54,-3.40,0.17,-0.56,0.18,
3.75,-0.53,-0.34,-3.24,0.17,-0.56,0.18,
3.751,-0.53,-0.34,-3.24,0.16,-0.56,0.17,
3.751,-0.53,-0.34,-3.24,0.15,-0.57,0.17,
3.759,-0.53,-0.34,-3.24,0.13,-0.59,0.15,
3.76,-0.53,-0.34,-3.24,0.13,-0.59,0.15,
3.76,-0.53,-0.34,-3.24,0.13,-0.59,0.15,
3.761,-0.53,-0.34,-3.24,0.13,-0.59,0.15,
3.761,-0.55,-0.15,-2.88,0.13,-0.59,0.15,
3.761,-0.55,-0.15,-2.88,0.12,-0.59,0.15,
3.762,-0.55,-0.15,-2.88,0.12,-0.59,0.15,
3.763,-0.55,-0.15,-2.88,0.12,-0.59,0.15,
3.765,-0.55,-0.15,-2.88,0.12,-0.59,0.14,
3.767,-0.61,-0.10,-2.71,0.12,-0.59,0.14,
3.767,-0.61,-0.10,-2.71,0.11,-0.59,0.14,
3.769,-0.61,-0.10,-2.71,0.11,-0.59,0.13,
3.771,-0.61,-0.10,-2.71,0.11,-0.58,0.13,
3.774,-0.61,-0.10,-2.71,0.10,-0.58,0.13,
3.775,-0.61,-0.10,-2.71,0.10,-0.57,0.12,
3.779,-0.60,-0.15,-2.61,0.10,-0.57,0.12,
3.78,-0.60,-0.15,-2.61,0.09,-0.56,0.12,
3.781,-0.60,-0.15,-2.61,0.08,-0.55,0.12,
3.782,-0.60,-0.15,-2.61,0.07,-0.55,0.12,
3.782,-0.60,-0.15,-2.61,0.06,-0.54,0.12,
3.784,-0.60,-0.15,-2.61,0.06,-0.53,0.12,
3.802,-0.80,-0.02,-2.61,0.06,-0.53,0.12,
3.802,-0.80,-0.02,-2.61,0.04,-0.52,0.12,
3.803,-0.80,-0.02,-2.61,0.02,-0.50,0.12,
3.803,-0.80,-0.02,-2.61,0.02,-0.50,0.12,
3.803,-0.80,-0.02,-2.61,0.01,-0.49,0.13,
3.803,-0.80,-0.02,-2.61,-0.01,-0.48,0.13,
3.803,-0.91,0.04,-2.58,-0.01,-0.48,0.13,
3.804,-0.91,0.04,-2.58,-0.02,-0.46,0.14,
3.804,-0.91,0.04,-2.58,-0.04,-0.45,0.14,
3.804,-0.91,0.04,-2.58,-0.05,-0.44,0.14,
3.804,-0.91,0.04,-2.58,-0.07,-0.43,0.15,
3.804,-0.91,0.04,-2.58,-0.08,-0.42,0.16,
3.814,-1.04,0.14,-2.51,-0.08,-0.42,0.16,
3.814,-1.04,0.14,-2.51,-0.10,-0.42,0.16,
3.814,-1.04,0.14,-2.51,-0.12,-0.41,0.17,
3.815,-1.04,0.14,-2.51,-0.13,-0.40,0.17,
3.815,-1.04,0.14,-2.51,-0.14,-0.40,0.17,
3.817,-1.04,0.14,-2.51,-0.16,-0.40,0.17,
3.819,-1.01,0.16,-2.19,-0.16,-0.40,0.17,
3.82,-1.01,0.16,-2.19,-0.17,-0.39,0.18,
3.82,-1.01,0.16,-2.19,-0.19,-0.39,0.18,
3.823,-1.01,0.16,-2.19,-0.19,-0.38,0.18,
3.823,-1.01,0.16,-2.19,-0.19,-0.38,0.18,
3.825,-1.01,0.16,-2.19,-0.19,-0.37,0.18,
3.848,-1.01,0.34,-1.51,-0.19,-0.37,0.18,
3.848,-1.01,0.34,-1.51,-0.19,-0.37,0.19,
3.848,-1.01,0.34,-1.51,-0.18,-0.35,0.19,
3.848,-1.01,0.34,-1.51,-0.17,-0.35,0.19,
3.849,-1.01,0.34,-1.51,-0.16,-0.34,0.19,
3.849,-1.01,0.34,-1.51,-0.15,-0.33,0.19,
3.849,-1.01,0.37,-0.73,-0.15,-0.33,0.19,
3.849,-1.01,0.37,-0.73,-0.12,-0.31,0.19,
3.849,-1.01,0.37,-0.73,-0.11,-0.30,0.19,
3.849,-1.01,0.37,-0.73,-0.10,-0.30,0.20,
3.85,-1.01,0.37,-0.73,-0.08,-0.29,0.20,
3.85,-1.01,0.37,-0.73,-0.06,-0.28,0.20,
3.85,-1.12,0.38,-0.14,-0.06,-0.28,0.20,
3.85,-1.12,0.38,-0.14,-0.04,-0.28,0.21,
3.85,-1.12,0.38,-0.14,-0.01,-0.26,0.21,
3.851,-1.12,0.38,-0.14,0.00,-0.26,0.21,
3.853,-1.12,0.38,-0.14,0.02,-0.25,0.22,
3.854,-1.12,0.38,-0.14,0.04,-0.24,0.23,
3.856,-1.25,0.44,0.20,0.04,-0.24,0.23,
3.856,-1.25,0.44,0.20,0.06,-0.23,0.24,
3.859,-1.25,0.44,0.20,0.09,-0.22,0.25,
3.861,-1.25,0.44,0.20,0.09,-0.21,0.25,
3.862,-1.25,0.44,0.20,0.11,-0.20,0.26,
3.864,-1.25,0.44,0.20,0.12,-0.19,0.27,
3.867,-1.49,0.41,0.29,0.12,-0.19,0.27,
3.867,-1.49,0.41,0.29,0.14,-0.18,0.29,
3.869,-1.49,0.41,0.29,0.16,-0.17,0.31,
3.87,-1.49,0.41,0.29,0.16,-0.17,0.32,
3.872,-1.49,0.41,0.29,0.17,-0.16,0.33,
3.874,-1.49,0.41,0.29,0.19,-0.15,0.35,
3.878,-1.66,0.44,0.38,0.19,-0.15,0.35,
3.88,-1.66,0.44,0.38,0.20,-0.14,0.37,
3.88,-1.66,0.44,0.38,0.22,-0.13,0.40,
3.883,-1.66,0.44,0.38,0.22,-0.12,0.41,
3.883,-1.66,0.44,0.38,0.23,-0.11,0.43,
3.884,-1.66,0.44,0.38,0.24,-0.10,0.45,
3.887,-1.87,0.51,0.49,0.24,-0.10,0.45,
3.888,-1.87,0.51,0.49,0.25,-0.09,0.47,
3.889,-1.87,0.51,0.49,0.27,-0.08,0.50,
3.891,-1.87,0.51,0.49,0.28,-0.07,0.52,
3.893,-1.87,0.51,0.49,0.28,-0.06,0.54,
3.895,-1.87,0.51,0.49,0.30,-0.05,0.56,
3.897,-1.77,0.51,0.66,0.30,-0.05,0.56,
3.897,-1.77,0.51,0.66,0.31,-0.04,0.58,
3.899,-1.77,0.51,0.66,0.32,-0.02,0.61,
3.901,-1.77,0.51,0.66,0.33,-0.02,0.62,
3.903,-1.77,0.51,0.66,0.33,-0.01,0.63,
3.905,-1.77,0.51,0.66,0.34,-0.00,0.65,
3.907,-1.64,0.58,0.75,0.34,-0.00,0.65,
3.907,-1.64,0.58,0.75,0.35,0.01,0.67,
3.91,-1.64,0.58,0.75,0.36,0.01,0.69,
3.911,-1.64,0.58,0.75,0.36,0.02,0.70,
3.913,-1.64,0.58,0.75,0.37,0.02,0.71,
3.914,-1.64,0.58,0.75,0.38,0.03,0.72,
3.917,-1.47,0.70,0.81,0.38,0.03,0.72,
3.917,-1.47,0.70,0.81,0.38,0.04,0.74,
3.92,-1.47,0.70,0.81,0.39,0.05,0.75,
3.921,-1.47,0.70,0.81,0.39,0.05,0.76,
3.922,-1.47,0.70,0.81,0.39,0.05,0.77,
3.924,-1.47,0.70,0.81,0.39,0.05,0.78,
3.927,-1.40,0.82,0.74,0.39,0.05,0.78,
3.927,-1.40,0.82,0.74,0.39,0.06,0.79,
3.93,-1.40,0.82,0.74,0.38,0.05,0.81,
3.931,-1.40,0.82,0.74,0.38,0.05,0.82,
3.934,-1.40,0.82,0.74,0.37,0.05,0.83,
3.935,-1.40,0.82,0.74,0.36,0.05,0.84,
3.937,-1.24,0.90,0.68,0.36,0.05,0.84,
3.937,-1.24,0.90,0.68,0.35,0.05,0.85,
3.939,-1.24,0.90,0.68,0.33,0.04,0.87,
3.941,-1.24,0.90,0.68,0.33,0.04,0.87,
3.95,-1.24,0.90,0.68,0.31,0.03,0.88,
3.951,-1.24,0.90,0.68,0.30,0.03,0.89,
3.951,-1.01,1.08,0.66,0.30,0.03,0.89,
3.951,-1.01,1.08,0.66,0.28,0.02,0.90,
3.951,-1.01,1.08,0.66,0.24,0.02,0.91,
3.952,-1.01,1.08,0.66,0.23,0.02,0.91,
3.972,-1.01,1.08,0.66,0.20,0.01,0.92,
3.972,-1.01,1.08,0.66,0.17,0.02,0.92,
3.972,-0.52,1.39,0.68,0.17,0.02,0.92,
3.972,-0.52,1.39,0.68,0.13,0.02,0.92,
3.973,-0.52,1.39,0.68,0.07,0.02,0.91,
3.973,-0.52,1.39,0.68,0.05,0.03,0.91,
3.973,-0.52,1.39,0.68,0.00,0.03,0.90,
3.974,-0.52,1.39,0.68,-0.04,0.05,0.89,
3.974,0.11,1.71,0.78,-0.04,0.05,0.89,
3.974,0.11,1.71,0.78,-0.09,0.06,0.88,
3.974,0.11,1.71,0.78,-0.16,0.08,0.86,
3.975,0.11,1.71,0.78,-0.18,0.08,0.85,
3.975,0.11,1.71,0.78,-0.23,0.10,0.83,
3.975,0.11,1.71,0.78,-0.27,0.11,0.82,
3.98,0.71,1.91,1.38,-0.27,0.11,0.82,
3.98,0.71,1.91,1.38,-0.32,0.12,0.80,
3.981,0.71,1.91,1.38,-0.38,0.15,0.77,
3.981,0.71,1.91,1.38,-0.40,0.16,0.76,
3.983,0.71,1.91,1.38,-0.43,0.18,0.74,
3.984,0.71,1.91,1.38,-0.47,0.20,0.72,
3.986,1.07,2.04,2.23,-0.47,0.20,0.72,
3.987,1.07,2.04,2.23,-0.51,0.22,0.71,
3.99,1.07,2.04,2.23,-0.56,0.24,0.68,
3.991,1.07,2.04,2.23,-0.58,0.25,0.67,
3.993,1.07,2.04,2.23,-0.61,0.27,0.65,
3.995,1.07,2.04,2.23,-0.64,0.28,0.64,
3.997,1.18,1.87,3.07,-0.64,0.28,0.64,
3.997,1.18,1.87,3.07,-0.67,0.30,0.62,
3.999,1.18,1.87,3.07,-0.70,0.32,0.60,
4.0,1.18,1.87,3.07,-0.71,0.32,0.59,
4.002,1.18,1.87,3.07,-0.73,0.33,0.58,
4.004,1.18,1.87,3.07,-0.74,0.34,0.57,
4.006,1.04,1.60,3.95,-0.74,0.34,0.57,
4.007,1.04,1.60,3.95,-0.75,0.34,0.56,
4.01,1.04,1.60,3.95,-0.76,0.33,0.55,
4.011,1.04,1.60,3.95,-0.75,0.33,0.54,
4.013,1.04,1.60,3.95,-0.75,0.32,0.54,
4.015,1.04,1.60,3.95,-0.74,0.30,0.53,
4.017,0.81,1.31,5.06,-0.74,0.30,0.53,
4.017,0.81,1.31,5.06,-0.72,0.28,0.53,
4.019,0.81,1.31,5.06,-0.68,0.25,0.51,
4.02,0.81,1.31,5.06,-0.66,0.24,0.51,
4.022,0.81,1.31,5.06,-0.62,0.22,0.50,
4.024,0.81,1.31,5.06,-0.58,0.20,0.49,
4.027,0.82,0.90,6.18,-0.58,0.20,0.49,
4.027,0.82,0.90,6.18,-0.53,0.18,0.49,
4.03,0.82,0.90,6.18,-0.45,0.16,0.48,
4.03,0.82,0.90,6.18,-0.42,0.15,0.48,
4.033,0.82,0.90,6.18,-0.36,0.13,0.48,
4.035,0.82,0.90,6.18,-0.30,0.11,0.48,
4.037,0.46,0.61,6.86,-0.30,0.11,0.48,
4.038,0.46,0.61,6.86,-0.24,0.10,0.48,
4.04,0.46,0.61,6.86,-0.13,0.08,0.49,
4.04,0.46,0.61,6.86,-0.10,0.08,0.49,
4.043,0.46,0.61,6.86,-0.03,0.08,0.49,
4.045,0.46,0.61,6.86,0.04,0.08,0.50,
4.046,0.20,0.08,6.99,0.04,0.08,0.50,
4.047,0.20,0.08,6.99,0.11,0.10,0.50,
4.049,0.20,0.08,6.99,0.22,0.13,0.51,
4.05,0.20,0.08,6.99,0.25,0.15,0.51,
4.052,0.20,0.08,6.99,0.32,0.18,0.52,
4.054,0.20,0.08,6.99,0.39,0.22,0.53,
4.057,-0.11,-0.39,6.47,0.39,0.22,0.53,
4.057,-0.11,-0.39,6.47,0.46,0.26,0.54,
4.059,-0.11,-0.39,6.47,0.56,0.34,0.56,
4.061,-0.11,-0.39,6.47,0.59,0.37,0.56,
4.066,-0.11,-0.39,6.47,0.65,0.42,0.58,
4.066,-0.11,-0.39,6.47,0.72,0.46,0.60,
4.066,-0.65,-0.69,5.46,0.72,0.46,0.60,
4.066,-0.65,-0.69,5.46,0.77,0.51,0.62,
4.069,-0.65,-0.69,5.46,0.85,0.59,0.64,
4.07,-0.65,-0.69,5.46,0.88,0.62,0.65,
4.072,-0.65,-0.69,5.46,0.93,0.67,0.67,
4.074,-0.65,-0.69,5.46,0.97,0.73,0.69,
4.092,-1.02,-0.90,4.04,0.97,0.73,0.69,
4.092,-1.02,-0.90,4.04,1.01,0.78,0.71,
4.092,-1.02,-0.90,4.04,1.07,0.85,0.74,
4.093,-1.02,-0.90,4.04,1.08,0.87,0.75,
4.093,-1.02,-0.90,4.04,1.11,0.92,0.78,
4.093,-1.02,-0.90,4.04,1.13,0.95,0.80,
4.093,-1.47,-1.05,2.30,1.13,0.95,0.80,
4.093,-1.47,-1.05,2.30,1.15,0.99,0.83,
4.093,-1.47,-1.05,2.30,1.16,1.03,0.86,
4.093,-1.47,-1.05,2.30,1.16,1.04,0.88,
4.094,-1.47,-1.05,2.30,1.17,1.05,0.90,
4.094,-1.47,-1.05,2.30,1.17,1.06,0.93,
4.101,-1.79,-1.04,0.56,1.17,1.06,0.93,
4.101,-1.79,-1.04,0.56,1.16,1.07,0.96,
4.101,-1.79,-1.04,0.56,1.15,1.07,1.00,
4.101,-1.79,-1.04,0.56,1.14,1.06,1.01,
4.102,-1.79,-1.04,0.56,1.13,1.05,1.03,
4.104,-1.79,-1.04,0.56,1.11,1.04,1.06,
4.107,-2.07,-0.96,-0.78,1.11,1.04,1.06,
4.107,-2.07,-0.96,-0.78,1.10,1.02,1.08,
4.11,-2.07,-0.96,-0.78,1.06,0.98,1.11,
4.11,-2.07,-0.96,-0.78,1.05,0.96,1.12,
4.112,-2.07,-0.96,-0.78,1.03,0.93,1.14,
4.114,-2.07,-0.96,-0.78,1.01,0.89,1.15,
4.116,-2.05,-0.91,-1.64,1.01,0.89,1.15,
4.117,-2.05,-0.91,-1.64,0.98,0.86,1.17,
4.135,-2.05,-0.91,-1.64,0.95,0.79,1.19,
4.136,-2.05,-0.91,-1.64,0.94,0.77,1.19,
4.136,-2.05,-0.91,-1.64,0.92,0.72,1.20,
4.136,-2.05,-0.91,-1.64,0.90,0.67,1.21,
4.136,-2.01,-0.87,-1.90,0.90,0.67,1.21,
4.136,-2.01,-0.87,-1.90,0.88,0.62,1.22,
4.137,-2.01,-0.87,-1.90,0.85,0.54,1.23,
4.137,-2.01,-0.87,-1.90,0.85,0.51,1.23,
4.137,-2.01,-0.87,-1.90,0.83,0.45,1.24,
4.137,-2.01,-0.87,-1.90,0.82,0.40,1.24,
4.137,-1.88,-0.76,-1.77,0.82,0.40,1.24,
4.137,-1.88,-0.76,-1.77,0.81,0.34,1.25,
4.139,-1.88,-0.76,-1.77,0.80,0.25,1.26,
4.14,-1.88,-0.76,-1.77,0.80,0.22,1.26,
4.147,-1.88,-0.76,-1.77,0.79,0.16,1.27,
4.147,-1.88,-0.76,-1.77,0.78,0.09,1.27,
4.147,-1.98,-0.65,-1.46,0.78,0.09,1.27,
4.147,-1.98,-0.65,-1.46,0.78,0.03,1.28,
4.149,-1.98,-0.65,-1.46,0.78,-0.07,1.28,
4.15,-1.98,-0.65,-1.46,0.78,-0.09,1.28,
4.152,-1.98,-0.65,-1.46,0.78,-0.16,1.29,
4.154,-1.98,-0.65,-1.46,0.78,-0.21,1.29,
4.156,-1.72,-0.79,-1.17,0.78,-0.21,1.29,
4.157,-1.72,-0.79,-1.17,0.77,-0.26,1.28,
4.159,-1.72,-0.79,-1.17,0.77,-0.33,1.28,
4.161,-1.72,-0.79,-1.17,0.77,-0.35,1.28,
4.166,-1.72,-0.79,-1.17,0.77,-0.40,1.27,
4.166,-1.72,-0.79,-1.17,0.76,-0.43,1.27,
4.167,-1.34,-1.11,-1.01,0.76,-0.43,1.27,
4.167,-1.34,-1.11,-1.01,0.76,-0.47,1.26,
4.169,-1.34,-1.11,-1.01,0.76,-0.51,1.24,
4.171,-1.34,-1.11,-1.01,0.75,-0.53,1.23,
4.172,-1.34,-1.11,-1.01,0.75,-0.54,1.22,
4.175,-1.34,-1.11,-1.01,0.75,-0.56,1.21,
4.178,-1.08,-1.35,-0.81,0.75,-0.56,1.21,
4.179,-1.08,-1.35,-0.81,0.74,-0.56,1.20,
4.179,-1.08,-1.35,-0.81,0.74,-0.57,1.19,
4.181,-1.08,-1.35,-0.81,0.74,-0.57,1.18,
4.182,-1.08,-1.35,-0.81,0.73,-0.56,1.18,
4.184,-1.08,-1.35,-0.81,0.73,-0.55,1.17,
4.186,-1.17,-1.40,-0.62,0.73,-0.55,1.17,
4.188,-1.17,-1.40,-0.62,0.72,-0.53,1.16,
4.19,-1.17,-1.40,-0.62,0.72,-0.52,1.16,
4.191,-1.17,-1.40,-0.62,0.71,-0.50,1.15,
4.209,-1.17,-1.40,-0.62,0.71,-0.47,1.14,
4.209,-1.17,-1.40,-0.62,0.70,-0.44,1.14,
4.21,-0.98,-1.70,-0.54,0.70,-0.44,1.14,
4.21,-0.98,-1.70,-0.54,0.70,-0.41,1.12,
4.21,-0.98,-1.70,-0.54,0.69,-0.34,1.10,
4.211,-0.98,-1.70,-0.54,0.69,-0.32,1.10,
4.211,-0.98,-1.70,-0.54,0.68,-0.27,1.09,
4.211,-0.98,-1.70,-0.54,0.67,-0.21,1.08,
4.211,-1.01,-2.00,-0.56,0.67,-0.21,1.08,
4.212,-1.01,-2.00,-0.56,0.66,-0.16,1.07,
4.212,-1.01,-2.00,-0.56,0.65,-0.07,1.07,
4.212,-1.01,-2.00,-0.56,0.64,-0.04,1.06,
4.213,-1.01,-2.00,-0.56,0.63,0.02,1.06,
4.215,-1.01,-2.00,-0.56,0.61,0.09,1.06,
4.217,-1.23,-1.93,-0.79,0.61,0.09,1.06,
4.217,-1.23,-1.93,-0.79,0.60,0.15,1.07,
4.22,-1.23,-1.93,-0.79,0.57,0.25,1.07,
4.22,-1.23,-1.93,-0.79,0.57,0.28,1.07,
4.222,-1.23,-1.93,-0.79,0.55,0.34,1.07,
4.235,-1.23,-1.93,-0.79,0.54,0.40,1.07,
4.236,-1.38,-2.01,-1.13,0.54,0.40,1.07,
4.236,-1.38,-2.01,-1.13,0.52,0.46,1.07,
4.236,-1.38,-2.01,-1.13,0.49,0.55,1.07,
4.237,-1.38,-2.01,-1.13,0.49,0.58,1.07,
4.237,-1.38,-2.01,-1.13,0.47,0.63,1.06,
4.238,-1.38,-2.01,-1.13,0.46,0.68,1.06,
4.238,-1.32,-2.16,-1.49,0.46,0.68,1.06,
4.238,-1.32,-2.16,-1.49,0.44,0.73,1.05,
4.239,-1.32,-2.16,-1.49,0.42,0.80,1.05,
4.243,-1.32,-2.16,-1.49,0.42,0.82,1.04,
4.245,-1.32,-2.16,-1.49,0.41,0.86,1.04,
4.246,-1.32,-2.16,-1.49,0.39,0.90,1.03,
4.256,-1.36,-2.17,-1.74,0.39,0.90,1.03,
4.256,-1.36,-2.17,-1.74,0.38,0.93,1.03,
4.257,-1.36,-2.17,-1.74,0.37,0.97,1.03,
4.257,-1.36,-2.17,-1.74,0.36,0.98,1.03,
4.258,-1.36,-2.17,-1.74,0.35,1.00,1.02,
4.258,-1.36,-2.17,-1.74,0.34,1.02,1.02,
4.259,-1.47,-2.03,-1.92,0.34,1.02,1.02,
4.259,-1.47,-2.03,-1.92,0.34,1.03,1.02,
4.26,-1.47,-2.03,-1.92,0.33,1.05,1.02,
4.265,-1.47,-2.03,-1.92,0.33,1.05,1.01,
4.265,-1.47,-2.03,-1.92,0.32,1.06,1.01,
4.266,-1.47,-2.03,-1.92,0.32,1.07,1.01,
4.268,-1.54,-1.87,-2.00,0.32,1.07,1.01,
4.268,-1.54,-1.87,-2.00,0.32,1.07,1.00,
4.269,-1.54,-1.87,-2.00,0.31,1.08,1.00,
4.271,-1.54,-1.87,-2.00,0.31,1.08,0.99,
4.272,-1.54,-1.87,-2.00,0.31,1.08,0.99,
4.275,-1.54,-1.87,-2.00,0.31,1.08,0.99,
4.277,-1.47,-1.80,-2.18,0.31,1.08,0.99,
4.277,-1.47,-1.80,-2.18,0.30,1.08,0.98,
4.279,-1.47,-1.80,-2.18,0.30,1.08,0.97,
4.28,-1.47,-1.80,-2.18,0.29,1.07,0.97,
4.282,-1.47,-1.80,-2.18,0.29,1.07,0.97,
4.284,-1.47,-1.80,-2.18,0.28,1.07,0.97,
4.314,-1.53,-1.77,-2.42,0.28,1.07,0.97,
4.319,-1.53,-1.77,-2.42,0.28,1.06,0.96,
4.32,-1.53,-1.77,-2.42,0.27,1.06,0.96,
4.321,-1.53,-1.77,-2.42,0.26,1.05,0.96,
4.321,-1.53,-1.77,-2.42,0.25,1.05,0.96,
4.321,-1.53,-1.77,-2.42,0.25,1.05,0.96,
4.322,-1.50,-1.67,-2.72,0.25,1.05,0.96,
4.325,-1.50,-1.67,-2.72,0.23,1.04,0.96,
4.325,-1.50,-1.67,-2.72,0.22,1.02,0.96,
4.326,-1.50,-1.67,-2.72,0.21,1.01,0.96,
4.326,-1.50,-1.67,-2.72,0.20,0.99,0.95,
4.327,-1.50,-1.67,-2.72,0.18,0.97,0.95,
4.327,-1.45,-1.57,-2.92,0.18,0.97,0.95,
4.327,-1.45,-1.57,-2.92,0.17,0.95,0.94,
4.328,-1.45,-1.57,-2.92,0.14,0.91,0.94,
4.328,-1.45,-1.57,-2.92,0.14,0.90,0.94,
4.328,-1.45,-1.57,-2.92,0.12,0.87,0.93,
4.329,-1.45,-1.57,-2.92,0.10,0.85,0.93,
4.329,-1.27,-1.42,-2.99,0.10,0.85,0.93,
4.329,-1.27,-1.42,-2.99,0.09,0.82,0.92,
4.33,-1.27,-1.42,-2.99,0.07,0.78,0.91,
4.33,-1.27,-1.42,-2.99,0.06,0.77,0.91,
4.33,-1.27,-1.42,-2.99,0.05,0.75,0.90,
4.331,-1.27,-1.42,-2.99,0.03,0.72,0.90,
4.331,-1.15,-1.31,-2.88,0.03,0.72,0.90,
4.332,-1.15,-1.31,-2.88,0.02,0.70,0.89,
4.343,-1.15,-1.31,-2.88,0.00,0.67,0.88,
4.344,-1.15,-1.31,-2.88,-0.00,0.66,0.87,
4.344,-1.15,-1.31,-2.88,-0.01,0.64,0.87,
4.345,-1.15,-1.31,-2.88,-0.02,0.63,0.86,
4.345,-1.03,-1.16,-2.66,-0.02,0.63,0.86,
4.345,-1.03,-1.16,-2.66,-0.03,0.62,0.86,
4.346,-1.03,-1.16,-2.66,-0.05,0.60,0.87,
4.346,-1.03,-1.16,-2.66,-0.06,0.59,0.87,
4.346,-1.03,-1.16,-2.66,-0.08,0.57,0.88,
4.347,-1.03,-1.16,-2.66,-0.09,0.55,0.89,
4.351,-1.23,-0.84,-2.68,-0.09,0.55,0.89,
4.351,-1.23,-0.84,-2.68,-0.12,0.52,0.89,
4.352,-1.23,-0.84,-2.68,-0.15,0.49,0.89,
4.355,-1.23,-0.84,-2.68,-0.16,0.48,0.89,
4.355,-1.23,-0.84,-2.68,-0.19,0.45,0.89,
4.356,-1.23,-0.84,-2.68,-0.22,0.44,0.89,
4.356,-0.89,-0.89,-2.90,-0.22,0.44,0.89,
4.357,-0.89,-0.89,-2.90,-0.25,0.42,0.89,
4.361,-0.89,-0.89,-2.90,-0.30,0.39,0.87,
4.361,-0.89,-0.89,-2.90,-0.32,0.37,0.86,
4.364,-0.89,-0.89,-2.90,-0.35,0.36,0.85,
4.364,-0.89,-0.89,-2.90,-0.38,0.34,0.83,
4.367,-0.43,-1.01,-2.99,-0.38,0.34,0.83,
4.368,-0.43,-1.01,-2.99,-0.42,0.32,0.82,
4.37,-0.43,-1.01,-2.99,-0.47,0.30,0.81,
4.371,-0.43,-1.01,-2.99,-0.48,0.29,0.81,
4.372,-0.43,-1.01,-2.99,-0.52,0.27,0.80,
4.389,-0.43,-1.01,-2.99,-0.55,0.24,0.79,
4.389,-0.42,-0.72,-2.69,-0.55,0.24,0.79,
4.39,-0.42,-0.72,-2.69,-0.58,0.22,0.78,
4.39,-0.42,-0.72,-2.69,-0.62,0.17,0.77,
4.39,-0.42,-0.72,-2.69,-0.63,0.16,0.77,
4.39,-0.42,-0.72,-2.69,-0.66,0.13,0.76,
4.39,-0.42,-0.72,-2.69,-0.68,0.10,0.75,
4.391,-0.24,-0.50,-2.09,-0.68,0.10,0.75,
4.391,-0.24,-0.50,-2.09,-0.70,0.08,0.74,
4.392,-0.24,-0.50,-2.09,-0.73,0.04,0.72,
4.395,-0.24,-0.50,-2.09,-0.73,0.03,0.71,
4.395,-0.24,-0.50,-2.09,-0.74,0.00,0.69,
4.395,-0.24,-0.50,-2.09,-0.75,-0.02,0.67,
4.399,0.22,-0.55,-1.26,-0.75,-0.02,0.67,
4.399,0.22,-0.55,-1.26,-0.75,-0.03,0.65,
4.399,0.22,-0.55,-1.26,-0.75,-0.06,0.62,
4.401,0.22,-0.55,-1.26,-0.75,-0.06,0.60,
4.403,0.22,-0.55,-1.26,-0.74,-0.07,0.58,
4.405,0.22,-0.55,-1.26,-0.73,-0.08,0.56,
4.407,0.50,-0.54,-0.34,-0.73,-0.08,0.56,
4.407,0.50,-0.54,-0.34,-0.72,-0.09,0.54,
4.424,0.50,-0.54,-0.34,-0.70,-0.10,0.51,
4.425,0.50,-0.54,-0.34,-0.69,-0.10,0.50,
4.425,0.50,-0.54,-0.34,-0.67,-0.11,0.49,
4.425,0.50,-0.54,-0.34,-0.64,-0.11,0.47,
4.425,0.48,-0.55,0.47,-0.64,-0.11,0.47,
4.426,0.48,-0.55,0.47,-0.62,-0.10,0.46,
4.426,0.48,-0.55,0.47,-0.58,-0.09,0.44,
4.426,0.48,-0.55,0.47,-0.57,-0.09,0.44,
4.426,0.48,-0.55,0.47,-0.54,-0.08,0.43,
4.427,0.48,-0.55,0.47,-0.51,-0.07,0.42,
4.427,0.32,-0.60,1.02,-0.51,-0.07,0.42,
4.427,0.32,-0.60,1.02,-0.48,-0.06,0.42,
4.43,0.32,-0.60,1.02,-0.44,-0.04,0.41,
4.431,0.32,-0.60,1.02,-0.42,-0.03,0.41,
4.432,0.32,-0.60,1.02,-0.40,-0.01,0.41,
4.435,0.32,-0.60,1.02,-0.37,0.01,0.41,
4.437,0.05,-0.57,1.16,-0.37,0.01,0.41,
4.437,0.05,-0.57,1.16,-0.35,0.03,0.42,
4.439,0.05,-0.57,1.16,-0.32,0.05,0.43,
4.442,0.05,-0.57,1.16,-0.31,0.06,0.43,
4.445,0.05,-0.57,1.16,-0.29,0.08,0.44,
4.446,0.05,-0.57,1.16,-0.28,0.10,0.45,
4.447,-0.16,-0.60,0.96,-0.28,0.10,0.45,
4.448,-0.16,-0.60,0.96,-0.27,0.11,0.46,
4.451,-0.16,-0.60,0.96,-0.25,0.14,0.47,
4.451,-0.16,-0.60,0.96,-0.25,0.15,0.48,
4.471,-0.16,-0.60,0.96,-0.25,0.16,0.49,
4.472,-0.16,-0.60,0.96,-0.24,0.17,0.50,
4.472,-0.24,-0.53,0.61,-0.24,0.17,0.50,
4.472,-0.24,-0.53,0.61,-0.24,0.19,0.51,
4.472,-0.24,-0.53,0.61,-0.24,0.21,0.53,
4.473,-0.24,-0.53,0.61,-0.24,0.22,0.53,
4.473,-0.24,-0.53,0.61,-0.24,0.24,0.55,
4.473,-0.24,-0.53,0.61,-0.24,0.24,0.55,
4.473,-0.01,-0.44,0.46,-0.24,0.24,0.55,
4.473,-0.01,-0.44,0.46,-0.24,0.25,0.55,
4.473,-0.01,-0.44,0.46,-0.24,0.27,0.56,
4.474,-0.01,-0.44,0.46,-0.24,0.27,0.56,
4.474,-0.01,-0.44,0.46,-0.24,0.27,0.56,
4.48,-0.01,-0.44,0.46,-0.23,0.28,0.56,
4.481,0.39,-0.35,0.64,-0.23,0.28,0.56,
4.481,0.39,-0.35,0.64,-0.22,0.29,0.55,
4.481,0.39,-0.35,0.64,-0.21,0.29,0.55,
4.482,0.39,-0.35,0.64,-0.21,0.29,0.54,
4.483,0.39,-0.35,0.64,-0.20,0.29,0.53,
4.487,0.39,-0.35,0.64,-0.18,0.29,0.53,
4.487,0.77,-0.27,0.95,-0.18,0.29,0.53,
4.487,0.77,-0.27,0.95,-0.17,0.29,0.52,
4.491,0.77,-0.27,0.95,-0.15,0.29,0.50,
4.492,0.77,-0.27,0.95,-0.14,0.29,0.50,
4.496,0.77,-0.27,0.95,-0.13,0.28,0.49,
4.497,0.77,-0.27,0.95,-0.11,0.27,0.48,
4.497,1.00,-0.13,1.23,-0.11,0.27,0.48,
4.497,1.00,-0.13,1.23,-0.09,0.27,0.47,
4.502,1.00,-0.13,1.23,-0.07,0.25,0.46,
4.502,1.00,-0.13,1.23,-0.06,0.25,0.46,
4.502,1.00,-0.13,1.23,-0.04,0.24,0.45,
4.506,1.00,-0.13,1.23,-0.03,0.22,0.45,
4.515,0.98,-0.04,1.30,-0.03,0.22,0.45,
4.516,0.98,-0.04,1.30,-0.02,0.21,0.45,
4.516,0.98,-0.04,1.30,0.00,0.19,0.45,
4.517,0.98,-0.04,1.30,0.01,0.18,0.45,
4.517,0.98,-0.04,1.30,0.01,0.16,0.45,
4.517,0.98,-0.04,1.30,0.02,0.14,0.46,
4.517,0.75,0.01,1.15,0.02,0.14,0.46,
4.517,0.75,0.01,1.15,0.02,0.12,0.47,
4.55,0.75,0.01,1.15,0.02,0.09,0.48,
4.55,0.75,0.01,1.15,0.02,0.09,0.49,
4.551,0.75,0.01,1.15,0.02,0.07,0.50,
4.551,0.75,0.01,1.15,0.01,0.05,0.51,
4.551,0.62,0.04,0.98,0.01,0.05,0.51,
4.551,0.62,0.04,0.98,0.01,0.03,0.53,
4.551,0.62,0.04,0.98,-0.01,0.01,0.55,
4.551,0.62,0.04,0.98,-0.01,-0.00,0.56,
4.552,0.62,0.04,0.98,-0.01,-0.02,0.58,
4.552,0.62,0.04,0.98,-0.02,-0.04,0.59,
4.552,0.71,0.08,1.21,-0.02,-0.04,0.59,
4.552,0.71,0.08,1.21,-0.04,-0.07,0.61,
4.552,0.71,0.08,1.21,-0.04,-0.09,0.63,
4.553,0.71,0.08,1.21,-0.05,-0.10,0.64,
4.553,0.71,0.08,1.21,-0.05,-0.12,0.65,
4.553,0.71,0.08,1.21,-0.05,-0.14,0.66,
4.553,1.01,0.20,1.76,-0.05,-0.14,0.66,
4.553,1.01,0.20,1.76,-0.05,-0.16,0.67,
4.554,1.01,0.20,1.76,-0.06,-0.20,0.68,
4.554,1.01,0.20,1.76,-0.06,-0.21,0.68,
4.554,1.01,0.20,1.76,-0.06,-0.23,0.69,
4.554,1.01,0.20,1.76,-0.06,-0.26,0.70,
4.558,1.28,0.45,2.55,-0.06,-0.26,0.70,
4.559,1.28,0.45,2.55,-0.06,-0.28,0.70,
4.56,1.28,0.45,2.55,-0.07,-0.31,0.71,
4.561,1.28,0.45,2.55,-0.07,-0.32,0.72,
4.562,1.28,0.45,2.55,-0.08,-0.33,0.72,
4.565,1.28,0.45,2.55,-0.09,-0.35,0.73,
4.566,1.41,0.69,3.21,-0.09,-0.35,0.73,
4.567,1.41,0.69,3.21,-0.09,-0.36,0.74,
4.57,1.41,0.69,3.21,-0.11,-0.37,0.75,
4.571,1.41,0.69,3.21,-0.11,-0.37,0.75,
4.573,1.41,0.69,3.21,-0.13,-0.38,0.76,
4.581,1.41,0.69,3.21,-0.14,-0.38,0.77,
4.582,1.65,0.81,3.62,-0.14,-0.38,0.77,
4.582,1.65,0.81,3.62,-0.16,-0.38,0.77,
4.583,1.65,0.81,3.62,-0.19,-0.37,0.78,
4.583,1.65,0.81,3.62,-0.21,-0.36,0.78,
4.583,1.65,0.81,3.62,-0.23,-0.34,0.78,
4.587,1.65,0.81,3.62,-0.26,-0.32,0.79,
4.587,2.00,0.76,3.79,-0.26,-0.32,0.79,
4.587,2.00,0.76,3.79,-0.29,-0.29,0.79,
4.591,2.00,0.76,3.79,-0.33,-0.23,0.79,
4.592,2.00,0.76,3.79,-0.34,-0.21,0.79,
4.599,2.00,0.76,3.79,-0.38,-0.17,0.79,
4.599,2.00,0.76,3.79,-0.41,-0.13,0.79,
4.599,2.47,0.69,3.78,-0.41,-0.13,0.79,
4.6,2.47,0.69,3.78,-0.45,-0.08,0.79,
4.6,2.47,0.69,3.78,-0.50,-0.02,0.78,
4.601,2.47,0.69,3.78,-0.52,0.01,0.78,
4.603,2.47,0.69,3.78,-0.56,0.05,0.78,
4.605,2.47,0.69,3.78,-0.61,0.09,0.77,
4.635,2.99,0.61,3.68,-0.61,0.09,0.77,
4.636,2.99,0.61,3.68,-0.65,0.13,0.76,
4.636,2.99,0.61,3.68,-0.71,0.18,0.74,
4.636,2.99,0.61,3.68,-0.73,0.19,0.73,
4.636,2.99,0.61,3.68,-0.78,0.22,0.71,
4.636,2.99,0.61,3.68,-0.82,0.25,0.70,
4.637,3.37,0.67,3.61,-0.82,0.25,0.70,
4.637,3.37,0.67,3.61,-0.87,0.27,0.67,
4.659,3.37,0.67,3.61,-0.93,0.30,0.64,
4.659,3.37,0.67,3.61,-0.95,0.31,0.62,
4.659,3.37,0.67,3.61,-0.99,0.32,0.59,
4.66,3.37,0.67,3.61,-1.03,0.33,0.56,
4.66,3.79,0.78,3.73,-1.03,0.33,0.56,
4.66,3.79,0.78,3.73,-1.06,0.34,0.53,
4.661,3.79,0.78,3.73,-1.12,0.34,0.47,
4.661,3.79,0.78,3.73,-1.13,0.34,0.45,
4.661,3.79,0.78,3.73,-1.17,0.34,0.40,
4.661,3.79,0.78,3.73,-1.21,0.34,0.36,
4.662,4.18,0.75,3.97,-1.21,0.34,0.36,
4.662,4.18,0.75,3.97,-1.24,0.34,0.31,
4.662,4.18,0.75,3.97,-1.28,0.34,0.24,
4.662,4.18,0.75,3.97,-1.29,0.33,0.21,
4.663,4.18,0.75,3.97,-1.31,0.33,0.16,
4.663,4.18,0.75,3.97,-1.33,0.33,0.11,
4.663,4.39,0.61,4.48,-1.33,0.33,0.11,
4.663,4.39,0.61,4.48,-1.35,0.33,0.07,
4.664,4.39,0.61,4.48,-1.36,0.33,0.00,
4.664,4.39,0.61,4.48,-1.36,0.33,-0.02,
4.664,4.39,0.61,4.48,-1.36,0.34,-0.06,
4.665,4.39,0.61,4.48,-1.37,0.34,-0.10,
4.665,3.95,0.48,5.13,-1.37,0.34,-0.10,
4.665,3.95,0.48,5.13,-1.36,0.35,-0.14,
4.665,3.95,0.48,5.13,-1.35,0.37,-0.18,
4.666,3.95,0.48,5.13,-1.35,0.37,-0.19,
4.666,3.95,0.48,5.13,-1.33,0.39,-0.22,
4.666,3.95,0.48,5.13,-1.32,0.41,-0.24,
4.666,3.31,0.09,5.64,-1.32,0.41,-0.24,
4.667,3.31,0.09,5.64,-1.30,0.43,-0.26,
4.674,3.31,0.09,5.64,-1.26,0.47,-0.28,
4.674,3.31,0.09,5.64,-1.25,0.48,-0.29,
4.675,3.31,0.09,5.64,-1.22,0.51,-0.30,
4.675,3.31,0.09,5.64,-1.19,0.54,-0.30,
4.677,2.51,-0.32,5.94,-1.19,0.54,-0.30,
4.677,2.51,-0.32,5.94,-1.16,0.57,-0.31,
4.68,2.51,-0.32,5.94,-1.10,0.63,-0.30,
4.682,2.51,-0.32,5.94,-1.08,0.65,-0.30,
4.682,2.51,-0.32,5.94,-1.04,0.68,-0.30,
4.684,2.51,-0.32,5.94,-1.00,0.72,-0.29,
4.691,1.79,-0.72,5.98,-1.00,0.72,-0.29,
4.692,1.79,-0.72,5.98,-0.96,0.77,-0.28,
4.692,1.79,-0.72,5.98,-0.88,0.83,-0.26,
4.692,1.79,-0.72,5.98,-0.86,0.86,-0.25,
4.694,1.79,-0.72,5.98,-0.81,0.90,-0.24,
4.695,1.79,-0.72,5.98,-0.76,0.95,-0.22,
4.699,1.21,-1.00,5.67,-0.76,0.95,-0.22,
4.699,1.21,-1.00,5.67,-0.71,0.99,-0.20,
4.701,1.21,-1.00,5.67,-0.63,1.06,-0.17,
4.704,1.21,-1.00,5.67,-0.61,1.08,-0.16,
4.705,1.21,-1.00,5.67,-0.55,1.11,-0.13,
4.705,1.21,-1.00,5.67,-0.50,1.15,-0.11,
4.715,0.86,-1.21,5.00,-0.50,1.15,-0.11,
4.716,0.86,-1.21,5.00,-0.45,1.18,-0.09,
4.717,0.86,-1.21,5.00,-0.37,1.21,-0.06,
4.717,0.86,-1.21,5.00,-0.35,1.22,-0.05,
4.717,0.86,-1.21,5.00,-0.30,1.23,-0.04,
4.718,0.86,-1.21,5.00,-0.26,1.24,-0.02,
4.718,0.72,-1.22,3.95,-0.26,1.24,-0.02,
4.718,0.72,-1.22,3.95,-0.21,1.24,-0.01,
4.722,0.72,-1.22,3.95,-0.15,1.24,0.01,
4.731,0.72,-1.22,3.95,-0.13,1.23,0.02,
4.732,0.72,-1.22,3.95,-0.08,1.22,0.03,
4.732,0.72,-1.22,3.95,-0.04,1.21,0.04,
4.732,0.74,-1.17,2.79,-0.04,1.21,0.04,
4.732,0.74,-1.17,2.79,-0.01,1.19,0.05,
4.732,0.74,-1.17,2.79,0.05,1.15,0.06,
4.733,0.74,-1.17,2.79,0.07,1.14,0.06,
4.735,0.74,-1.17,2.79,0.10,1.11,0.07,
4.736,0.74,-1.17,2.79,0.13,1.08,0.08,
4.746,0.74,-1.10,1.66,0.13,1.08,0.08,
4.746,0.74,-1.10,1.66,0.16,1.04,0.08,
4.747,0.74,-1.10,1.66,0.20,0.98,0.09,
4.747,0.74,-1.10,1.66,0.22,0.96,0.09,
4.747,0.74,-1.10,1.66,0.25,0.92,0.10,
4.747,0.74,-1.10,1.66,0.27,0.88,0.10,
4.749,0.77,-1.16,0.61,0.27,0.88,0.10,
4.749,0.77,-1.16,0.61,0.29,0.83,0.11,
4.75,0.77,-1.16,0.61,0.32,0.76,0.11,
4.755,0.77,-1.16,0.61,0.36,0.64,0.12,
4.755,0.77,-1.16,0.61,0.36,0.64,0.12,
4.758,0.77,-1.16,0.61,0.36,0.64,0.12,
4.758,0.77,-1.16,0.61,0.39,0.56,0.12,
4.759,0.70,-1.17,-0.35,0.39,0.56,0.12,
4.759,0.70,-1.17,-0.35,0.40,0.51,0.13,
4.761,0.70,-1.17,-0.35,0.41,0.48,0.13,
4.763,0.70,-1.17,-0.35,0.42,0.43,0.13,
4.764,0.70,-1.17,-0.35,0.43,0.38,0.14,
4.767,0.64,-1.20,-0.79,0.43,0.38,0.14,
4.767,0.64,-1.20,-0.79,0.44,0.33,0.14,
4.769,0.64,-1.20,-0.79,0.46,0.26,0.15,
4.77,0.64,-1.20,-0.79,0.46,0.23,0.16,
4.773,0.64,-1.20,-0.79,0.47,0.18,0.17,
4.774,0.64,-1.20,-0.79,0.48,0.13,0.17,
4.777,0.47,-1.18,-1.16,0.48,0.13,0.17,
4.777,0.47,-1.18,-1.16,0.49,0.09,0.18,
4.779,0.47,-1.18,-1.16,0.50,0.01,0.19,
4.781,0.47,-1.18,-1.16,0.50,-0.01,0.19,
4.782,0.47,-1.18,-1.16,0.50,-0.05,0.20,
4.784,0.47,-1.18,-1.16,0.51,-0.09,0.20,
4.796,0.48,-1.41,-1.43,0.51,-0.09,0.20,
4.796,0.48,-1.41,-1.43,0.51,-0.13,0.21,
4.796,0.48,-1.41,-1.43,0.51,-0.18,0.22,
4.796,0.48,-1.41,-1.43,0.51,-0.19,0.23,
4.797,0.48,-1.41,-1.43,0.52,-0.22,0.24,
4.797,0.48,-1.41,-1.43,0.52,-0.25,0.25,
4.797,0.39,-1.45,-1.54,0.52,-0.25,0.25,
4.797,0.39,-1.45,-1.54,0.52,-0.29,0.26,
4.799,0.39,-1.45,-1.54,0.52,-0.32,0.27,
4.801,0.39,-1.45,-1.54,0.52,-0.34,0.27,
4.802,0.39,-1.45,-1.54,0.52,-0.36,0.28,
4.804,0.39,-1.45,-1.54,0.53,-0.38,0.29,
4.806,0.50,-1.49,-1.41,0.53,-0.38,0.29,
4.807,0.50,-1.49,-1.41,0.53,-0.40,0.30,
4.81,0.50,-1.49,-1.41,0.53,-0.43,0.30,
4.811,0.50,-1.49,-1.41,0.53,-0.44,0.30,
4.813,0.50,-1.49,-1.41,0.54,-0.45,0.31,
4.815,0.50,-1.49,-1.41,0.54,-0.46,0.31,
4.817,0.71,-1.42,-1.16,0.54,-0.46,0.31,
4.817,0.71,-1.42,-1.16,0.55,-0.47,0.31,
4.819,0.71,-1.42,-1.16,0.55,-0.47,0.31,
4.82,0.71,-1.42,-1.16,0.56,-0.47,0.31,
4.822,0.71,-1.42,-1.16,0.56,-0.47,0.30,
4.824,0.71,-1.42,-1.16,0.56,-0.47,0.30,
4.826,0.98,-1.36,-1.06,0.56,-0.47,0.30,
4.826,0.98,-1.36,-1.06,0.56,-0.46,0.30,
4.829,0.98,-1.36,-1.06,0.57,-0.45,0.29,
4.831,0.98,-1.36,-1.06,0.56,-0.45,0.28,
4.832,0.98,-1.36,-1.06,0.56,-0.44,0.27,
4.834,0.98,-1.36,-1.06,0.56,-0.43,0.26,
4.837,1.18,-1.37,-1.12,0.56,-0.43,0.26,
4.837,1.18,-1.37,-1.12,0.56,-0.43,0.25,
4.839,1.18,-1.37,-1.12,0.55,-0.42,0.24,
4.841,1.18,-1.37,-1.12,0.55,-0.41,0.23,
4.842,1.18,-1.37,-1.12,0.54,-0.40,0.22,
4.844,1.18,-1.37,-1.12,0.54,-0.39,0.20,
4.846,1.35,-1.39,-1.16,0.54,-0.39,0.20,
4.846,1.35,-1.39,-1.16,0.53,-0.38,0.19,
4.849,1.35,-1.39,-1.16,0.52,-0.36,0.17,
4.85,1.35,-1.39,-1.16,0.52,-0.35,0.16,
4.852,1.35,-1.39,-1.16,0.51,-0.34,0.15,
4.854,1.35,-1.39,-1.16,0.50,-0.32,0.14,
4.859,1.35,-1.36,-1.26,0.50,-0.32,0.14,
4.859,1.35,-1.36,-1.26,0.50,-0.31,0.13,
4.859,1.35,-1.36,-1.26,0.48,-0.28,0.11,
4.86,1.35,-1.36,-1.26,0.48,-0.28,0.10,
4.866,1.35,-1.36,-1.26,0.47,-0.26,0.09,
4.866,1.35,-1.36,-1.26,0.46,-0.25,0.08,
4.866,1.18,-1.41,-1.44,0.46,-0.25,0.08,
4.866,1.18,-1.41,-1.44,0.44,-0.23,0.07,
4.869,1.18,-1.41,-1.44,0.43,-0.21,0.05,
4.871,1.18,-1.41,-1.44,0.42,-0.20,0.04,
4.876,1.18,-1.41,-1.44,0.41,-0.19,0.03,
4.876,1.18,-1.41,-1.44,0.40,-0.18,0.03,
4.877,0.91,-1.38,-1.62,0.40,-0.18,0.03,
4.877,0.91,-1.38,-1.62,0.38,-0.17,0.02,
4.879,0.91,-1.38,-1.62,0.36,-0.15,0.01,
4.88,0.91,-1.38,-1.62,0.36,-0.15,0.00,
4.882,0.91,-1.38,-1.62,0.35,-0.14,-0.00,
4.884,0.91,-1.38,-1.62,0.34,-0.13,-0.01,
4.886,0.69,-1.44,-1.75,0.34,-0.13,-0.01,
4.889,0.69,-1.44,-1.75,0.32,-0.12,-0.02,
4.893,0.69,-1.44,-1.75,0.31,-0.12,-0.02,
4.893,0.69,-1.44,-1.75,0.30,-0.11,-0.02,
4.894,0.69,-1.44,-1.75,0.30,-0.11,-0.03,
4.894,0.69,-1.44,-1.75,0.29,-0.11,-0.03,
4.897,0.47,-1.41,-1.78,0.29,-0.11,-0.03,
4.897,0.47,-1.41,-1.78,0.28,-0.11,-0.04,
4.901,0.47,-1.41,-1.78,0.27,-0.11,-0.04,
4.902,0.47,-1.41,-1.78,0.27,-0.11,-0.04,
4.903,0.47,-1.41,-1.78,0.27,-0.12,-0.04,
4.904,0.47,-1.41,-1.78,0.26,-0.12,-0.04,
4.907,0.34,-1.41,-1.78,0.26,-0.12,-0.04,
4.908,0.34,-1.41,-1.78,0.26,-0.13,-0.05,
4.912,0.34,-1.41,-1.78,0.25,-0.15,-0.05,
4.912,0.34,-1.41,-1.78,0.25,-0.15,-0.05,
4.916,0.34,-1.41,-1.78,0.25,-0.16,-0.06,
4.917,0.34,-1.41,-1.78,0.25,-0.17,-0.06,
4.917,0.28,-1.32,-1.73,0.25,-0.17,-0.06,
4.918,0.28,-1.32,-1.73,0.24,-0.18,-0.07,
4.919,0.28,-1.32,-1.73,0.24,-0.20,-0.07,
4.921,0.28,-1.32,-1.73,0.24,-0.20,-0.08,
4.929,0.28,-1.32,-1.73,0.24,-0.21,-0.08,
4.931,0.28,-1.32,-1.73,0.25,-0.22,-0.09,
4.932,0.32,-1.32,-1.56,0.25,-0.22,-0.09,
4.934,0.32,-1.32,-1.56,0.25,-0.23,-0.10,
4.935,0.32,-1.32,-1.56,0.26,-0.24,-0.11,
4.935,0.32,-1.32,-1.56,0.26,-0.24,-0.11,
4.935,0.32,-1.32,-1.56,0.27,-0.24,-0.12,
4.936,0.32,-1.32,-1.56,0.28,-0.24,-0.13,
4.937,0.37,-1.27,-1.42,0.28,-0.24,-0.13,
4.937,0.37,-1.27,-1.42,0.29,-0.24,-0.14,
4.939,0.37,-1.27,-1.42,0.30,-0.24,-0.15,
4.941,0.37,-1.27,-1.42,0.30,-0.23,-0.15,
4.943,0.37,-1.27,-1.42,0.31,-0.23,-0.16,
4.945,0.37,-1.27,-1.42,0.32,-0.23,-0.17,
4.948,0.42,-1.22,-1.43,0.32,-0.23,-0.17,
4.949,0.42,-1.22,-1.43,0.33,-0.22,-0.17,
4.949,0.42,-1.22,-1.43,0.34,-0.21,-0.19,
4.951,0.42,-1.22,-1.43,0.34,-0.21,-0.19,
4.979,0.42,-1.22,-1.43,0.34,-0.20,-0.20,
4.979,0.42,-1.22,-1.43,0.35,-0.20,-0.21,
4.98,0.40,-1.15,-1.64,0.35,-0.20,-0.21,
4.98,0.40,-1.15,-1.64,0.35,-0.19,-0.21,
4.981,0.40,-1.15,-1.64,0.35,-0.19,-0.23,
4.981,0.40,-1.15,-1.64,0.35,-0.18,-0.23,
4.981,0.40,-1.15,-1.64,0.35,-0.18,-0.24,
4.981,0.40,-1.15,-1.64,0.35,-0.18,-0.24,
4.982,0.34,-1.05,-1.93,0.35,-0.18,-0.24,
4.982,0.34,-1.05,-1.93,0.35,-0.18,-0.25,
4.982,0.34,-1.05,-1.93,0.34,-0.18,-0.26,
4.982,0.34,-1.05,-1.93,0.34,-0.18,-0.26,
4.983,0.34,-1.05,-1.93,0.33,-0.18,-0.27,
4.983,0.34,-1.05,-1.93,0.33,-0.18,-0.28,
4.983,0.24,-0.90,-2.23,0.33,-0.18,-0.28,
4.983,0.24,-0.90,-2.23,0.32,-0.18,-0.28,
4.984,0.24,-0.90,-2.23,0.31,-0.18,-0.29,
4.984,0.24,-0.90,-2.23,0.31,-0.18,-0.30,
4.984,0.24,-0.90,-2.23,0.30,-0.19,-0.31,
4.984,0.24,-0.90,-2.23,0.29,-0.19,-0.31,
4.992,0.23,-0.75,-2.49,0.29,-0.19,-0.31,
4.993,0.23,-0.75,-2.49,0.28,-0.19,-0.32,
4.998,0.23,-0.75,-2.49,0.26,-0.19,-0.33,
4.999,0.23,-0.75,-2.49,0.25,-0.19,-0.34,
4.999,0.23,-0.75,-2.49,0.24,-0.19,-0.34,
5.0,0.23,-0.75,-2.49,0.22,-0.19,-0.35,
5.0,0.21,-0.56,-2.69,0.22,-0.19,-0.35,
5.0,0.21,-0.56,-2.69,0.21,-0.19,-0.36,
5.0,0.21,-0.56,-2.69,0.18,-0.18,-0.38,
5.002,0.21,-0.56,-2.69,0.17,-0.18,-0.38,
5.005,0.21,-0.56,-2.69,0.16,-0.17,-0.39,
5.01,0.21,-0.56,-2.69,0.14,-0.16,-0.40,
5.011,0.19,-0.37,-2.80,0.14,-0.16,-0.40,
5.011,0.19,-0.37,-2.80,0.12,-0.15,-0.41,
5.011,0.19,-0.37,-2.80,0.09,-0.14,-0.42,
5.012,0.19,-0.37,-2.80,0.08,-0.13,-0.42,
