
time,ax,ay,az,wx,wy,wz,
0.002,1.43,0.37,0.33,-0.60,-0.41,-0.08,
0.002,1.43,0.37,0.33,-0.59,-0.42,-0.09,
0.003,1.13,0.26,-0.30,-0.59,-0.42,-0.09,
0.003,1.13,0.26,-0.30,-0.59,-0.43,-0.10,
0.003,1.13,0.26,-0.30,-0.60,-0.45,-0.11,
0.004,1.13,0.26,-0.30,-0.61,-0.46,-0.11,
0.005,1.13,0.26,-0.30,-0.62,-0.49,-0.11,
0.006,1.13,0.26,-0.30,-0.64,-0.51,-0.11,
0.01,0.64,0.14,-1.07,-0.64,-0.51,-0.11,
0.01,0.64,0.14,-1.07,-0.65,-0.54,-0.11,
0.013,0.64,0.14,-1.07,-0.69,-0.58,-0.10,
0.013,0.64,0.14,-1.07,-0.70,-0.59,-0.10,
0.016,0.64,0.14,-1.07,-0.72,-0.62,-0.08,
0.017,0.64,0.14,-1.07,-0.75,-0.65,-0.07,
0.019,0.00,0.02,-1.69,-0.75,-0.65,-0.07,
0.019,0.00,0.02,-1.69,-0.79,-0.67,-0.05,
0.021,0.00,0.02,-1.69,-0.83,-0.70,-0.01,
0.023,0.00,0.02,-1.69,-0.85,-0.71,0.00,
0.025,0.00,0.02,-1.69,-0.88,-0.72,0.03,
0.027,0.00,0.02,-1.69,-0.90,-0.72,0.06,
0.029,-0.44,-0.20,-1.76,-0.90,-0.72,0.06,
0.03,-0.44,-0.20,-1.76,-0.93,-0.71,0.09,
0.032,-0.44,-0.20,-1.76,-0.96,-0.70,0.14,
0.032,-0.44,-0.20,-1.76,-0.97,-0.69,0.16,
0.035,-0.44,-0.20,-1.76,-0.98,-0.68,0.19,
0.036,-0.44,-0.20,-1.76,-0.99,-0.67,0.22,
0.039,-0.52,-0.13,-1.40,-0.99,-0.67,0.22,
0.039,-0.52,-0.13,-1.40,-1.00,-0.67,0.24,
0.042,-0.52,-0.13,-1.40,-1.01,-0.66,0.28,
0.043,-0.52,-0.13,-1.40,-1.01,-0.66,0.30,
0.045,-0.52,-0.13,-1.40,-1.01,-0.65,0.32,
0.047,-0.52,-0.13,-1.40,-1.02,-0.65,0.34,
0.049,-0.27,-0.06,-0.98,-1.02,-0.65,0.34,
0.049,-0.27,-0.06,-0.98,-1.02,-0.65,0.36,
0.052,-0.27,-0.06,-0.98,-1.02,-0.64,0.38,
0.053,-0.27,-0.06,-0.98,-1.02,-0.63,0.39,
0.054,-0.27,-0.06,-0.98,-1.01,-0.63,0.40,
0.056,-0.27,-0.06,-0.98,-1.01,-0.62,0.41,
0.06,0.04,0.06,-0.80,-1.01,-0.62,0.41,
0.061,0.04,0.06,-0.80,-1.01,-0.61,0.42,
0.062,0.04,0.06,-0.80,-1.01,-0.60,0.44,
0.064,0.04,0.06,-0.80,-1.01,-0.59,0.44,
0.065,0.04,0.06,-0.80,-1.00,-0.58,0.44,
0.067,0.04,0.06,-0.80,-1.00,-0.57,0.45,
0.069,0.35,0.23,-0.77,-1.00,-0.57,0.45,
0.069,0.35,0.23,-0.77,-1.00,-0.56,0.45,
0.072,0.35,0.23,-0.77,-1.00,-0.55,0.45,
0.073,0.35,0.23,-0.77,-1.00,-0.55,0.45,
0.088,0.35,0.23,-0.77,-1.00,-0.54,0.45,
0.089,0.35,0.23,-0.77,-1.01,-0.53,0.44,
0.089,0.59,0.36,-0.94,-1.01,-0.53,0.44,
0.089,0.59,0.36,-0.94,-1.01,-0.52,0.44,
0.089,0.59,0.36,-0.94,-1.02,-0.52,0.43,
0.09,0.59,0.36,-0.94,-1.03,-0.52,0.43,
0.09,0.59,0.36,-0.94,-1.04,-0.51,0.42,
0.093,0.59,0.36,-0.94,-1.05,-0.50,0.42,
0.093,0.69,0.40,-1.20,-1.05,-0.50,0.42,
0.093,0.69,0.40,-1.20,-1.06,-0.50,0.41,
0.1,0.69,0.40,-1.20,-1.08,-0.50,0.40,
0.1,0.69,0.40,-1.20,-1.09,-0.50,0.39,
0.101,0.69,0.40,-1.20,-1.10,-0.51,0.39,
0.103,0.69,0.40,-1.20,-1.12,-0.52,0.38,
0.103,0.81,0.47,-1.38,-1.12,-0.52,0.38,
0.103,0.81,0.47,-1.38,-1.14,-0.52,0.37,
0.103,0.81,0.47,-1.38,-1.15,-0.53,0.36,
0.104,0.81,0.47,-1.38,-1.16,-0.54,0.36,
0.105,0.81,0.47,-1.38,-1.17,-0.53,0.34,
0.121,0.81,0.47,-1.38,-1.18,-0.53,0.34,
0.121,1.00,0.51,-1.10,-1.18,-0.53,0.34,
0.122,1.00,0.51,-1.10,-1.18,-0.52,0.33,
0.122,1.00,0.51,-1.10,-1.18,-0.51,0.31,
0.122,1.00,0.51,-1.10,-1.18,-0.50,0.31,
0.123,1.00,0.51,-1.10,-1.18,-0.49,0.30,
0.123,1.00,0.51,-1.10,-1.17,-0.49,0.29,
0.123,0.98,0.51,-0.69,-1.17,-0.49,0.29,
0.123,0.98,0.51,-0.69,-1.16,-0.48,0.29,
0.124,0.98,0.51,-0.69,-1.14,-0.47,0.28,
0.124,0.98,0.51,-0.69,-1.14,-0.46,0.28,
0.126,0.98,0.51,-0.69,-1.12,-0.45,0.27,
0.133,0.98,0.51,-0.69,-1.10,-0.43,0.27,
0.133,0.97,0.54,0.00,-1.10,-0.43,0.27,
0.133,0.97,0.54,0.00,-1.08,-0.41,0.26,
0.134,0.97,0.54,0.00,-1.04,-0.37,0.26,
0.134,0.97,0.54,0.00,-1.02,-0.35,0.26,
0.135,0.97,0.54,0.00,-0.99,-0.32,0.25,
0.136,0.97,0.54,0.00,-0.96,-0.29,0.24,
0.139,1.10,0.64,0.69,-0.96,-0.29,0.24,
0.139,1.10,0.64,0.69,-0.92,-0.26,0.23,
0.142,1.10,0.64,0.69,-0.86,-0.23,0.21,
0.143,1.10,0.64,0.69,-0.84,-0.22,0.21,
0.145,1.10,0.64,0.69,-0.79,-0.20,0.19,
0.146,1.10,0.64,0.69,-0.74,-0.19,0.17,
0.149,1.17,0.67,1.25,-0.74,-0.19,0.17,
0.149,1.17,0.67,1.25,-0.69,-0.17,0.16,
0.152,1.17,0.67,1.25,-0.62,-0.16,0.12,
0.153,1.17,0.67,1.25,-0.59,-0.16,0.11,
0.154,1.17,0.67,1.25,-0.54,-0.15,0.09,
0.156,1.17,0.67,1.25,-0.49,-0.14,0.07,
0.16,1.15,0.68,1.47,-0.49,-0.14,0.07,
0.161,1.15,0.68,1.47,-0.44,-0.14,0.05,
0.161,1.15,0.68,1.47,-0.36,-0.13,0.02,
0.162,1.15,0.68,1.47,-0.34,-0.14,0.01,
0.165,1.15,0.68,1.47,-0.29,-0.14,-0.00,
0.166,1.15,0.68,1.47,-0.25,-0.14,-0.02,
0.169,0.93,0.76,1.41,-0.25,-0.14,-0.02,
0.169,0.93,0.76,1.41,-0.20,-0.14,-0.04,
0.172,0.93,0.76,1.41,-0.14,-0.14,-0.06,
0.172,0.93,0.76,1.41,-0.12,-0.14,-0.06,
0.188,0.93,0.76,1.41,-0.08,-0.15,-0.07,
0.188,0.93,0.76,1.41,-0.04,-0.15,-0.08,
0.188,0.69,1.00,1.16,-0.04,-0.15,-0.08,
0.189,0.69,1.00,1.16,-0.00,-0.16,-0.09,
0.189,0.69,1.00,1.16,0.05,-0.18,-0.10,
0.189,0.69,1.00,1.16,0.06,-0.18,-0.11,
0.189,0.69,1.00,1.16,0.09,-0.20,-0.11,
0.189,0.69,1.00,1.16,0.12,-0.21,-0.12,
0.189,0.47,1.22,0.83,0.12,-0.21,-0.12,
0.189,0.47,1.22,0.83,0.15,-0.22,-0.12,
0.192,0.47,1.22,0.83,0.18,-0.24,-0.12,
0.192,0.47,1.22,0.83,0.19,-0.24,-0.12,
0.195,0.47,1.22,0.83,0.21,-0.25,-0.12,
0.196,0.47,1.22,0.83,0.23,-0.26,-0.12,
0.204,0.23,1.31,0.46,0.23,-0.26,-0.12,
0.204,0.23,1.31,0.46,0.24,-0.26,-0.12,
0.204,0.23,1.31,0.46,0.25,-0.27,-0.11,
0.204,0.23,1.31,0.46,0.26,-0.26,-0.11,
0.205,0.23,1.31,0.46,0.26,-0.26,-0.10,
0.211,0.23,1.31,0.46,0.26,-0.26,-0.10,
0.212,-0.11,1.22,-0.02,0.26,-0.26,-0.10,
0.212,-0.11,1.22,-0.02,0.25,-0.26,-0.09,
0.213,-0.11,1.22,-0.02,0.23,-0.25,-0.06,
0.213,-0.11,1.22,-0.02,0.23,-0.24,-0.05,
0.215,-0.11,1.22,-0.02,0.20,-0.22,-0.03,
0.217,-0.11,1.22,-0.02,0.18,-0.21,-0.01,
0.219,-0.47,1.07,-0.74,0.18,-0.21,-0.01,
0.219,-0.47,1.07,-0.74,0.14,-0.18,0.01,
0.221,-0.47,1.07,-0.74,0.08,-0.14,0.06,
0.222,-0.47,1.07,-0.74,0.06,-0.13,0.07,
0.225,-0.47,1.07,-0.74,0.02,-0.10,0.10,
0.227,-0.47,1.07,-0.74,-0.03,-0.07,0.13,
0.229,-0.77,0.97,-1.44,-0.03,-0.07,0.13,
0.229,-0.77,0.97,-1.44,-0.08,-0.04,0.16,
0.232,-0.77,0.97,-1.44,-0.16,0.02,0.20,
0.232,-0.77,0.97,-1.44,-0.19,0.04,0.22,
0.235,-0.77,0.97,-1.44,-0.24,0.07,0.25,
0.237,-0.77,0.97,-1.44,-0.29,0.11,0.28,
0.239,-0.94,1.16,-1.81,-0.29,0.11,0.28,
0.239,-0.94,1.16,-1.81,-0.35,0.14,0.31,
0.241,-0.94,1.16,-1.81,-0.42,0.19,0.35,
0.243,-0.94,1.16,-1.81,-0.45,0.21,0.36,
0.244,-0.94,1.16,-1.81,-0.49,0.23,0.39,
0.246,-0.94,1.16,-1.81,-0.54,0.24,0.41,
0.249,-0.78,1.41,-1.84,-0.54,0.24,0.41,
0.249,-0.78,1.41,-1.84,-0.59,0.26,0.43,
0.251,-0.78,1.41,-1.84,-0.66,0.26,0.46,
0.252,-0.78,1.41,-1.84,-0.69,0.26,0.48,
0.254,-0.78,1.41,-1.84,-0.74,0.25,0.49,
0.257,-0.78,1.41,-1.84,-0.78,0.24,0.51,
0.269,-0.28,1.57,-1.74,-0.78,0.24,0.51,
0.269,-0.28,1.57,-1.74,-0.82,0.23,0.52,
0.269,-0.28,1.57,-1.74,-0.88,0.20,0.54,
0.27,-0.28,1.57,-1.74,-0.90,0.19,0.54,
0.27,-0.28,1.57,-1.74,-0.94,0.17,0.55,
0.27,-0.28,1.57,-1.74,-0.97,0.15,0.55,
0.27,0.49,1.49,-1.45,-0.97,0.15,0.55,
0.27,0.49,1.49,-1.45,-1.01,0.13,0.55,
0.272,0.49,1.49,-1.45,-1.05,0.09,0.54,
0.272,0.49,1.49,-1.45,-1.06,0.08,0.54,
0.275,0.49,1.49,-1.45,-1.08,0.05,0.52,
0.277,0.49,1.49,-1.45,-1.10,0.01,0.51,
0.279,1.35,1.42,-0.95,-1.10,0.01,0.51,
0.279,1.35,1.42,-0.95,-1.12,-0.02,0.49,
0.281,1.35,1.42,-0.95,-1.14,-0.07,0.45,
0.282,1.35,1.42,-0.95,-1.14,-0.09,0.44,
0.284,1.35,1.42,-0.95,-1.14,-0.12,0.41,
0.286,1.35,1.42,-0.95,-1.14,-0.15,0.39,
0.289,1.81,1.17,-0.30,-1.14,-0.15,0.39,
0.289,1.81,1.17,-0.30,-1.14,-0.18,0.36,
0.291,1.81,1.17,-0.30,-1.12,-0.24,0.32,
0.293,1.81,1.17,-0.30,-1.12,-0.25,0.31,
0.294,1.81,1.17,-0.30,-1.10,-0.29,0.28,
0.296,1.81,1.17,-0.30,-1.08,-0.33,0.25,
0.299,1.83,0.98,0.46,-1.08,-0.33,0.25,
0.299,1.83,0.98,0.46,-1.06,-0.36,0.22,
0.301,1.83,0.98,0.46,-1.02,-0.41,0.18,
0.302,1.83,0.98,0.46,-1.00,-0.42,0.17,
0.304,1.83,0.98,0.46,-0.97,-0.43,0.15,
0.308,1.83,0.98,0.46,-0.93,-0.43,0.13,
0.309,1.48,1.00,1.15,-0.93,-0.43,0.13,
0.309,1.48,1.00,1.15,-0.89,-0.43,0.11,
0.312,1.48,1.00,1.15,-0.80,-0.41,0.09,
0.313,1.48,1.00,1.15,-0.77,-0.40,0.08,
0.314,1.48,1.00,1.15,-0.75,-0.39,0.08,
0.316,1.48,1.00,1.15,-0.69,-0.36,0.07,
0.318,1.12,1.25,1.79,-0.69,-0.36,0.07,
0.319,1.12,1.25,1.79,-0.63,-0.32,0.06,
0.321,1.12,1.25,1.79,-0.54,-0.24,0.05,
0.323,1.12,1.25,1.79,-0.51,-0.22,0.05,
0.324,1.12,1.25,1.79,-0.45,-0.17,0.05,
0.326,1.12,1.25,1.79,-0.39,-0.14,0.05,
0.328,0.93,1.38,2.32,-0.39,-0.14,0.05,
0.329,0.93,1.38,2.32,-0.33,-0.12,0.04,
0.331,0.93,1.38,2.32,-0.24,-0.11,0.04,
0.332,0.93,1.38,2.32,-0.21,-0.10,0.04,
0.334,0.93,1.38,2.32,-0.17,-0.09,0.03,
0.336,0.93,1.38,2.32,-0.11,-0.09,0.02,
0.338,1.06,1.24,2.44,-0.11,-0.09,0.02,
0.339,1.06,1.24,2.44,-0.06,-0.08,0.01,
0.343,1.06,1.24,2.44,0.02,-0.05,0.00,
0.343,1.06,1.24,2.44,0.04,-0.05,-0.00,
0.344,1.06,1.24,2.44,0.09,-0.03,-0.02,
0.346,1.06,1.24,2.44,0.13,-0.01,-0.03,
0.351,1.25,1.08,2.32,0.13,-0.01,-0.03,
0.351,1.25,1.08,2.32,0.18,0.02,-0.05,
0.351,1.25,1.08,2.32,0.24,0.05,-0.07,
0.352,1.25,1.08,2.32,0.26,0.06,-0.07,
0.354,1.25,1.08,2.32,0.30,0.08,-0.09,
0.361,1.25,1.08,2.32,0.33,0.09,-0.10,
0.362,1.26,1.06,2.03,0.33,0.09,-0.10,
0.362,1.26,1.06,2.03,0.36,0.09,-0.12,
0.362,1.26,1.06,2.03,0.40,0.09,-0.14,
0.362,1.26,1.06,2.03,0.42,0.10,-0.14,
0.364,1.26,1.06,2.03,0.43,0.08,-0.15,
0.366,1.26,1.06,2.03,0.45,0.06,-0.16,
0.368,0.81,1.11,1.66,0.45,0.06,-0.16,
0.369,0.81,1.11,1.66,0.47,0.06,-0.17,
0.371,0.81,1.11,1.66,0.48,0.04,-0.18,
0.373,0.81,1.11,1.66,0.48,0.04,-0.18,
0.375,0.81,1.11,1.66,0.49,0.03,-0.18,
0.376,0.81,1.11,1.66,0.48,0.01,-0.18,
0.378,0.33,1.14,1.27,0.48,0.01,-0.18,
0.379,0.33,1.14,1.27,0.48,-0.00,-0.18,
0.382,0.33,1.14,1.27,0.46,-0.03,-0.18,
0.382,0.33,1.14,1.27,0.46,-0.04,-0.17,
0.384,0.33,1.14,1.27,0.44,-0.06,-0.17,
0.386,0.33,1.14,1.27,0.42,-0.08,-0.16,
0.39,-0.16,1.08,1.05,0.42,-0.08,-0.16,
0.39,-0.16,1.08,1.05,0.40,-0.09,-0.15,
0.391,-0.16,1.08,1.05,0.38,-0.10,-0.13,
0.393,-0.16,1.08,1.05,0.36,-0.11,-0.13,
0.394,-0.16,1.08,1.05,0.34,-0.11,-0.12,
0.396,-0.16,1.08,1.05,0.32,-0.12,-0.10,
0.399,-0.51,1.04,1.02,0.32,-0.12,-0.10,
0.399,-0.51,1.04,1.02,0.30,-0.12,-0.09,
0.401,-0.51,1.04,1.02,0.27,-0.12,-0.07,
0.402,-0.51,1.04,1.02,0.26,-0.11,-0.07,
0.404,-0.51,1.04,1.02,0.24,-0.11,-0.06,
0.407,-0.51,1.04,1.02,0.22,-0.10,-0.04,
0.409,-0.76,0.84,1.19,0.22,-0.10,-0.04,
0.409,-0.76,0.84,1.19,0.21,-0.09,-0.03,
0.411,-0.76,0.84,1.19,0.18,-0.07,-0.01,
0.413,-0.76,0.84,1.19,0.18,-0.06,-0.00,
0.414,-0.76,0.84,1.19,0.17,-0.04,0.01,
0.416,-0.76,0.84,1.19,0.16,-0.02,0.03,
0.419,-0.90,0.58,1.54,0.16,-0.02,0.03,
0.419,-0.90,0.58,1.54,0.15,-0.01,0.04,
0.421,-0.90,0.58,1.54,0.16,0.03,0.06,
0.424,-0.90,0.58,1.54,0.16,0.04,0.07,
0.448,-0.90,0.58,1.54,0.16,0.07,0.08,
0.448,-0.90,0.58,1.54,0.17,0.10,0.08,
0.449,-0.81,0.43,1.79,0.17,0.10,0.08,
0.449,-0.81,0.43,1.79,0.18,0.12,0.09,
0.45,-0.81,0.43,1.79,0.19,0.15,0.09,
0.45,-0.81,0.43,1.79,0.20,0.16,0.09,
0.451,-0.81,0.43,1.79,0.21,0.16,0.09,
0.451,-0.81,0.43,1.79,0.22,0.17,0.08,
0.451,-0.81,0.43,1.79,0.23,0.17,0.08,
0.452,-0.81,0.43,1.79,0.24,0.16,0.06,
0.452,-0.50,0.37,1.76,0.24,0.16,0.06,
0.453,-0.50,0.37,1.76,0.25,0.15,0.05,
0.453,-0.50,0.37,1.76,0.25,0.15,0.04,
0.453,-0.50,0.37,1.76,0.26,0.14,0.03,
0.454,-0.44,0.42,1.61,0.26,0.14,0.03,
0.454,-0.44,0.42,1.61,0.26,0.12,0.01,
0.455,-0.44,0.42,1.61,0.26,0.10,-0.01,
0.455,-0.44,0.42,1.61,0.26,0.09,-0.01,
0.456,-0.44,0.42,1.61,0.25,0.07,-0.03,
0.463,-0.44,0.42,1.61,0.24,0.05,-0.04,
0.464,-0.67,0.48,1.25,0.24,0.05,-0.04,
0.464,-0.67,0.48,1.25,0.23,0.04,-0.05,
0.465,-0.67,0.48,1.25,0.21,0.01,-0.06,
0.465,-0.67,0.48,1.25,0.20,0.01,-0.07,
0.466,-0.67,0.48,1.25,0.19,-0.01,-0.07,
0.466,-0.67,0.48,1.25,0.16,-0.02,-0.08,
0.469,-0.98,0.39,0.89,0.16,-0.02,-0.08,
0.469,-0.98,0.39,0.89,0.13,-0.04,-0.08,
0.472,-0.98,0.39,0.89,0.09,-0.06,-0.08,
0.478,-0.98,0.39,0.89,0.07,-0.07,-0.08,
0.478,-0.98,0.39,0.89,0.03,-0.09,-0.08,
0.479,-0.98,0.39,0.89,-0.01,-0.10,-0.08,
0.48,-1.33,0.15,0.64,-0.01,-0.10,-0.08,
0.48,-1.33,0.15,0.64,-0.05,-0.11,-0.07,
0.482,-1.33,0.15,0.64,-0.12,-0.14,-0.06,
0.483,-1.33,0.15,0.64,-0.15,-0.14,-0.05,
0.485,-1.33,0.15,0.64,-0.19,-0.16,-0.04,
0.487,-1.33,0.15,0.64,-0.24,-0.17,-0.02,
0.502,-1.66,-0.08,0.71,-0.24,-0.17,-0.02,
0.502,-1.66,-0.08,0.71,-0.29,-0.18,-0.01,
0.503,-1.66,-0.08,0.71,-0.37,-0.20,0.02,
0.503,-1.66,-0.08,0.71,-0.39,-0.21,0.03,
0.503,-1.66,-0.08,0.71,-0.44,-0.22,0.05,
0.503,-1.66,-0.08,0.71,-0.49,-0.22,0.07,
0.503,-2.02,-0.27,1.06,-0.49,-0.22,0.07,
0.504,-2.02,-0.27,1.06,-0.53,-0.22,0.09,
0.504,-2.02,-0.27,1.06,-0.60,-0.22,0.13,
0.504,-2.02,-0.27,1.06,-0.62,-0.22,0.14,
0.505,-2.02,-0.27,1.06,-0.65,-0.21,0.16,
0.506,-2.02,-0.27,1.06,-0.69,-0.19,0.19,
0.509,-2.09,-0.47,1.67,-0.69,-0.19,0.19,
0.509,-2.09,-0.47,1.67,-0.72,-0.17,0.21,
0.511,-2.09,-0.47,1.67,-0.76,-0.14,0.25,
0.513,-2.09,-0.47,1.67,-0.77,-0.13,0.26,
0.515,-2.09,-0.47,1.67,-0.79,-0.11,0.29,
0.517,-2.09,-0.47,1.67,-0.80,-0.09,0.31,
0.519,-2.00,-0.76,2.49,-0.80,-0.09,0.31,
0.519,-2.00,-0.76,2.49,-0.81,-0.06,0.33,
0.523,-2.00,-0.76,2.49,-0.81,-0.01,0.36,
0.524,-2.00,-0.76,2.49,-0.81,0.01,0.37,
0.526,-2.00,-0.76,2.49,-0.81,0.04,0.39,
0.527,-2.00,-0.76,2.49,-0.79,0.08,0.41,
0.529,-1.73,-0.83,3.28,-0.79,0.08,0.41,
0.53,-1.73,-0.83,3.28,-0.78,0.12,0.42,
0.532,-1.73,-0.83,3.28,-0.75,0.18,0.44,
0.533,-1.73,-0.83,3.28,-0.73,0.20,0.44,
0.535,-1.73,-0.83,3.28,-0.71,0.25,0.45,
0.537,-1.73,-0.83,3.28,-0.68,0.29,0.45,
0.542,-1.28,-0.84,3.81,-0.68,0.29,0.45,
0.542,-1.28,-0.84,3.81,-0.65,0.33,0.45,
0.543,-1.28,-0.84,3.81,-0.60,0.39,0.45,
0.543,-1.28,-0.84,3.81,-0.58,0.41,0.44,
0.546,-1.28,-0.84,3.81,-0.55,0.44,0.43,
0.547,-1.28,-0.84,3.81,-0.52,0.46,0.42,
0.549,-0.78,-0.76,3.90,-0.52,0.46,0.42,
0.549,-0.78,-0.76,3.90,-0.49,0.48,0.41,
0.552,-0.78,-0.76,3.90,-0.44,0.52,0.39,
0.553,-0.78,-0.76,3.90,-0.42,0.53,0.38,
0.558,-0.78,-0.76,3.90,-0.38,0.55,0.37,
0.558,-0.78,-0.76,3.90,-0.35,0.56,0.35,
0.559,-0.58,-0.68,3.61,-0.35,0.56,0.35,
0.56,-0.58,-0.68,3.61,-0.32,0.58,0.34,
0.562,-0.58,-0.68,3.61,-0.28,0.60,0.31,
0.563,-0.58,-0.68,3.61,-0.27,0.60,0.31,
0.564,-0.58,-0.68,3.61,-0.24,0.61,0.29,
0.567,-0.58,-0.68,3.61,-0.22,0.62,0.28,
0.569,-0.62,-0.54,3.01,-0.22,0.62,0.28,
0.569,-0.62,-0.54,3.01,-0.20,0.63,0.26,
0.574,-0.62,-0.54,3.01,-0.17,0.64,0.25,
0.574,-0.62,-0.54,3.01,-0.16,0.64,0.24,
0.575,-0.62,-0.54,3.01,-0.15,0.64,0.23,
0.576,-0.62,-0.54,3.01,-0.14,0.63,0.22,
0.582,-0.85,-0.57,2.21,-0.14,0.63,0.22,
0.582,-0.85,-0.57,2.21,-0.14,0.62,0.21,
0.583,-0.85,-0.57,2.21,-0.13,0.61,0.21,
0.583,-0.85,-0.57,2.21,-0.13,0.60,0.20,
0.585,-0.85,-0.57,2.21,-0.12,0.59,0.20,
0.587,-0.85,-0.57,2.21,-0.12,0.58,0.20,
0.59,-1.10,-0.62,1.59,-0.12,0.58,0.20,
0.59,-1.10,-0.62,1.59,-0.12,0.56,0.20,
0.608,-1.10,-0.62,1.59,-0.11,0.55,0.21,
0.608,-1.10,-0.62,1.59,-0.11,0.55,0.21,
0.609,-1.10,-0.62,1.59,-0.10,0.54,0.21,
0.609,-1.10,-0.62,1.59,-0.10,0.52,0.22,
0.609,-1.28,-0.65,1.26,-0.10,0.52,0.22,
0.61,-1.28,-0.65,1.26,-0.09,0.51,0.23,
0.61,-1.28,-0.65,1.26,-0.09,0.49,0.23,
0.61,-1.28,-0.65,1.26,-0.09,0.48,0.23,
0.61,-1.28,-0.65,1.26,-0.08,0.47,0.24,
0.611,-1.28,-0.65,1.26,-0.08,0.45,0.25,
0.611,-1.43,-0.73,1.01,-0.08,0.45,0.25,
0.611,-1.43,-0.73,1.01,-0.07,0.43,0.25,
0.614,-1.43,-0.73,1.01,-0.06,0.40,0.26,
0.615,-1.43,-0.73,1.01,-0.05,0.39,0.27,
0.615,-1.43,-0.73,1.01,-0.05,0.37,0.28,
0.618,-1.43,-0.73,1.01,-0.04,0.36,0.29,
0.619,-1.67,-0.85,0.91,-0.04,0.36,0.29,
0.619,-1.67,-0.85,0.91,-0.03,0.34,0.30,
0.635,-1.67,-0.85,0.91,-0.01,0.32,0.32,
0.635,-1.67,-0.85,0.91,-0.00,0.31,0.33,
0.635,-1.67,-0.85,0.91,0.01,0.30,0.34,
0.636,-1.67,-0.85,0.91,0.02,0.28,0.36,
0.636,-1.65,-0.84,0.81,0.02,0.28,0.36,
0.636,-1.65,-0.84,0.81,0.03,0.27,0.37,
0.636,-1.65,-0.84,0.81,0.05,0.24,0.39,
0.637,-1.65,-0.84,0.81,0.06,0.23,0.40,
0.637,-1.65,-0.84,0.81,0.07,0.21,0.41,
0.637,-1.65,-0.84,0.81,0.08,0.19,0.43,
0.639,-1.50,-0.84,0.60,0.08,0.19,0.43,
0.662,-1.50,-0.84,0.60,0.09,0.17,0.44,
0.663,-1.50,-0.84,0.60,0.10,0.14,0.45,
0.663,-1.50,-0.84,0.60,0.11,0.13,0.46,
0.663,-1.50,-0.84,0.60,0.11,0.10,0.47,
0.663,-1.50,-0.84,0.60,0.13,0.08,0.47,
0.663,-1.16,-0.74,0.42,0.13,0.08,0.47,
0.664,-1.16,-0.74,0.42,0.14,0.06,0.48,
0.664,-1.16,-0.74,0.42,0.15,0.02,0.48,
0.664,-1.16,-0.74,0.42,0.16,0.01,0.48,
0.664,-1.16,-0.74,0.42,0.17,-0.01,0.48,
0.664,-1.16,-0.74,0.42,0.18,-0.03,0.48,
0.665,-0.79,-0.64,0.39,0.18,-0.03,0.48,
0.665,-0.79,-0.64,0.39,0.19,-0.04,0.47,
0.665,-0.79,-0.64,0.39,0.21,-0.06,0.47,
0.665,-0.79,-0.64,0.39,0.22,-0.06,0.46,
0.665,-0.79,-0.64,0.39,0.23,-0.06,0.46,
0.667,-0.79,-0.64,0.39,0.24,-0.07,0.45,
0.669,-0.58,-0.59,0.33,0.24,-0.07,0.45,
0.669,-0.58,-0.59,0.33,0.25,-0.07,0.45,
0.672,-0.58,-0.59,0.33,0.27,-0.07,0.44,
0.673,-0.58,-0.59,0.33,0.28,-0.07,0.44,
0.675,-0.58,-0.59,0.33,0.28,-0.07,0.44,
0.677,-0.58,-0.59,0.33,0.29,-0.06,0.43,
0.679,-0.45,-0.64,0.11,0.29,-0.06,0.43,
0.679,-0.45,-0.64,0.11,0.30,-0.05,0.43,
0.681,-0.45,-0.64,0.11,0.31,-0.04,0.42,
0.683,-0.45,-0.64,0.11,0.31,-0.04,0.42,
0.684,-0.45,-0.64,0.11,0.31,-0.02,0.42,
0.686,-0.45,-0.64,0.11,0.32,-0.01,0.41,
0.689,-0.26,-0.56,-0.34,0.32,-0.01,0.41,
0.689,-0.26,-0.56,-0.34,0.32,0.00,0.41,
0.691,-0.26,-0.56,-0.34,0.32,0.02,0.41,
0.692,-0.26,-0.56,-0.34,0.32,0.03,0.41,
0.694,-0.26,-0.56,-0.34,0.31,0.05,0.41,
0.696,-0.26,-0.56,-0.34,0.30,0.06,0.41,
0.698,-0.06,-0.50,-0.93,0.30,0.06,0.41,
0.699,-0.06,-0.50,-0.93,0.30,0.08,0.40,
0.701,-0.06,-0.50,-0.93,0.28,0.11,0.40,
0.703,-0.06,-0.50,-0.93,0.28,0.11,0.40,
0.705,-0.06,-0.50,-0.93,0.26,0.13,0.40,
0.707,-0.06,-0.50,-0.93,0.25,0.15,0.40,
0.709,0.01,-0.55,-1.49,0.25,0.15,0.40,
0.709,0.01,-0.55,-1.49,0.24,0.17,0.40,
0.712,0.01,-0.55,-1.49,0.22,0.19,0.39,
0.713,0.01,-0.55,-1.49,0.21,0.20,0.39,
0.715,0.01,-0.55,-1.49,0.20,0.21,0.39,
0.716,0.01,-0.55,-1.49,0.19,0.23,0.38,
0.719,0.03,-0.58,-1.86,0.19,0.23,0.38,
0.719,0.03,-0.58,-1.86,0.17,0.24,0.38,
0.722,0.03,-0.58,-1.86,0.16,0.26,0.37,
0.723,0.03,-0.58,-1.86,0.15,0.26,0.37,
0.724,0.03,-0.58,-1.86,0.14,0.27,0.36,
0.726,0.03,-0.58,-1.86,0.13,0.28,0.36,
0.729,0.10,-0.50,-2.14,0.13,0.28,0.36,
0.729,0.10,-0.50,-2.14,0.12,0.28,0.35,
0.731,0.10,-0.50,-2.14,0.10,0.28,0.33,
0.733,0.10,-0.50,-2.14,0.10,0.28,0.33,
0.734,0.10,-0.50,-2.14,0.09,0.28,0.32,
0.737,0.10,-0.50,-2.14,0.08,0.28,0.31,
0.747,0.16,-0.44,-2.25,0.08,0.28,0.31,
0.749,0.16,-0.44,-2.25,0.07,0.28,0.30,
0.749,0.16,-0.44,-2.25,0.07,0.27,0.28,
0.749,0.16,-0.44,-2.25,0.07,0.27,0.27,
0.75,0.16,-0.44,-2.25,0.06,0.27,0.26,
0.755,0.16,-0.44,-2.25,0.06,0.27,0.25,
0.756,0.19,-0.46,-2.18,0.06,0.27,0.25,
0.756,0.19,-0.46,-2.18,0.06,0.27,0.23,
0.756,0.19,-0.46,-2.18,0.07,0.27,0.22,
0.756,0.19,-0.46,-2.18,0.07,0.26,0.20,
0.756,0.19,-0.46,-2.18,0.07,0.26,0.20,
0.774,0.19,-0.46,-2.18,0.07,0.27,0.18,
0.796,0.17,-0.48,-2.12,0.07,0.27,0.18,
0.796,0.17,-0.48,-2.12,0.08,0.26,0.17,
0.797,0.17,-0.48,-2.12,0.09,0.26,0.16,
0.797,0.17,-0.48,-2.12,0.09,0.26,0.16,
0.798,0.17,-0.48,-2.12,0.10,0.27,0.15,
0.798,0.17,-0.48,-2.12,0.10,0.27,0.14,
0.799,0.12,-0.49,-2.04,0.10,0.27,0.14,
0.799,0.12,-0.49,-2.04,0.11,0.27,0.13,
0.8,0.12,-0.49,-2.04,0.12,0.28,0.13,
0.8,0.12,-0.49,-2.04,0.12,0.28,0.13,
0.801,0.12,-0.49,-2.04,0.13,0.28,0.12,
0.801,0.12,-0.49,-2.04,0.14,0.29,0.11,
0.802,0.08,-0.48,-2.03,0.14,0.29,0.11,
0.803,0.08,-0.48,-2.03,0.15,0.29,0.11,
0.803,0.08,-0.48,-2.03,0.16,0.30,0.11,
0.803,0.08,-0.48,-2.03,0.17,0.30,0.11,
0.804,0.08,-0.48,-2.03,0.17,0.30,0.11,
0.804,0.08,-0.48,-2.03,0.18,0.31,0.10,
0.805,0.02,-0.50,-2.06,0.18,0.31,0.10,
0.805,0.02,-0.50,-2.06,0.19,0.31,0.10,
0.805,0.02,-0.50,-2.06,0.20,0.31,0.10,
0.806,0.02,-0.50,-2.06,0.20,0.31,0.10,
0.806,0.02,-0.50,-2.06,0.20,0.31,0.10,
0.807,0.02,-0.50,-2.06,0.21,0.31,0.10,
0.807,-0.03,-0.47,-2.08,0.21,0.31,0.10,
0.807,-0.03,-0.47,-2.08,0.21,0.30,0.10,
0.808,-0.03,-0.47,-2.08,0.22,0.30,0.09,
0.808,-0.03,-0.47,-2.08,0.22,0.30,0.09,
0.809,-0.03,-0.47,-2.08,0.22,0.29,0.09,
0.809,-0.03,-0.47,-2.08,0.22,0.29,0.09,
0.809,-0.04,-0.38,-2.02,0.22,0.29,0.09,
0.81,-0.04,-0.38,-2.02,0.23,0.28,0.08,
0.818,-0.04,-0.38,-2.02,0.23,0.28,0.08,
0.819,-0.04,-0.38,-2.02,0.23,0.28,0.07,
0.819,-0.04,-0.38,-2.02,0.23,0.27,0.07,
0.819,-0.04,-0.38,-2.02,0.23,0.27,0.06,
0.82,-0.05,-0.25,-1.92,0.23,0.27,0.06,
0.82,-0.05,-0.25,-1.92,0.24,0.27,0.06,
0.822,-0.05,-0.25,-1.92,0.24,0.25,0.05,
0.823,-0.05,-0.25,-1.92,0.24,0.25,0.05,
0.824,-0.05,-0.25,-1.92,0.23,0.24,0.04,
0.826,-0.05,-0.25,-1.92,0.24,0.23,0.03,
0.829,-0.15,-0.25,-1.80,0.24,0.23,0.03,
0.829,-0.15,-0.25,-1.80,0.23,0.22,0.03,
0.832,-0.15,-0.25,-1.80,0.23,0.21,0.03,
0.833,-0.15,-0.25,-1.80,0.22,0.20,0.03,
0.834,-0.15,-0.25,-1.80,0.22,0.19,0.04,
0.836,-0.15,-0.25,-1.80,0.21,0.19,0.04,
0.839,-0.48,-0.32,-1.67,0.21,0.19,0.04,
0.84,-0.48,-0.32,-1.67,0.21,0.18,0.05,
0.842,-0.48,-0.32,-1.67,0.20,0.17,0.06,
0.843,-0.48,-0.32,-1.67,0.19,0.16,0.06,
0.844,-0.48,-0.32,-1.67,0.19,0.15,0.07,
0.846,-0.48,-0.32,-1.67,0.18,0.14,0.09,
0.849,-0.76,-0.43,-1.34,0.18,0.14,0.09,
0.849,-0.76,-0.43,-1.34,0.18,0.14,0.10,
0.851,-0.76,-0.43,-1.34,0.17,0.13,0.13,
0.853,-0.76,-0.43,-1.34,0.17,0.13,0.14,
0.855,-0.76,-0.43,-1.34,0.17,0.13,0.16,
0.858,-0.76,-0.43,-1.34,0.17,0.12,0.17,
0.859,-0.80,-0.48,-0.91,0.17,0.12,0.17,
0.86,-0.80,-0.48,-0.91,0.17,0.12,0.19,
0.862,-0.80,-0.48,-0.91,0.18,0.11,0.22,
0.863,-0.80,-0.48,-0.91,0.18,0.11,0.23,
0.864,-0.80,-0.48,-0.91,0.18,0.10,0.25,
0.867,-0.80,-0.48,-0.91,0.18,0.09,0.27,
0.869,-0.63,-0.45,-0.53,0.18,0.09,0.27,
0.869,-0.63,-0.45,-0.53,0.19,0.08,0.28,
0.874,-0.63,-0.45,-0.53,0.20,0.05,0.30,
0.875,-0.63,-0.45,-0.53,0.21,0.04,0.31,
0.875,-0.63,-0.45,-0.53,0.21,0.00,0.32,
0.879,-0.63,-0.45,-0.53,0.23,-0.11,0.33,
0.879,0.31,-0.07,-0.20,0.23,-0.11,0.33,
0.88,0.31,-0.07,-0.20,0.24,-0.24,0.33,
0.883,0.31,-0.07,-0.20,0.25,-0.32,0.31,
0.883,0.31,-0.07,-0.20,0.25,-0.31,0.31,
0.886,0.31,-0.07,-0.20,0.26,-0.29,0.30,
0.887,0.31,-0.07,-0.20,0.27,-0.25,0.29,
0.896,0.07,-0.01,0.21,0.27,-0.25,0.29,
0.897,0.07,-0.01,0.21,0.29,-0.20,0.29,
0.897,0.07,-0.01,0.21,0.30,-0.11,0.29,
0.897,0.07,-0.01,0.21,0.30,-0.08,0.29,
0.898,0.07,-0.01,0.21,0.31,-0.03,0.28,
0.898,0.07,-0.01,0.21,0.30,-0.00,0.28,
0.899,0.15,-0.47,0.49,0.30,-0.00,0.28,
0.899,0.15,-0.47,0.49,0.30,0.01,0.28,
0.932,0.15,-0.47,0.49,0.28,-0.02,0.27,
0.933,0.15,-0.47,0.49,0.28,-0.04,0.26,
0.934,0.15,-0.47,0.49,0.27,-0.05,0.26,
0.934,0.15,-0.47,0.49,0.26,-0.08,0.26,
0.934,1.01,-0.36,0.00,0.26,-0.08,0.26,
0.934,1.01,-0.36,0.00,0.26,-0.10,0.26,
0.934,1.01,-0.36,0.00,0.25,-0.09,0.25,
0.934,1.01,-0.36,0.00,0.24,-0.06,0.25,
0.935,1.01,-0.36,0.00,0.24,-0.04,0.25,
0.935,1.01,-0.36,0.00,0.23,-0.00,0.25,
0.935,0.46,-0.18,0.08,0.23,-0.00,0.25,
0.935,0.46,-0.18,0.08,0.21,0.04,0.25,
0.935,0.46,-0.18,0.08,0.19,0.08,0.25,
0.936,0.46,-0.18,0.08,0.18,0.10,0.26,
0.956,0.46,-0.18,0.08,0.17,0.10,0.26,
0.957,0.46,-0.18,0.08,0.14,0.11,0.26,
0.957,0.25,-0.42,0.07,0.14,0.11,0.26,
0.957,0.25,-0.42,0.07,0.12,0.10,0.26,
0.958,0.25,-0.42,0.07,0.09,0.09,0.27,
0.958,0.25,-0.42,0.07,0.06,0.08,0.27,
0.958,0.25,-0.42,0.07,0.05,0.08,0.27,
0.958,0.29,-0.53,-0.09,0.05,0.08,0.27,
0.959,0.29,-0.53,-0.09,-0.00,0.08,0.29,
0.959,0.29,-0.53,-0.09,-0.00,0.08,0.29,
0.959,0.29,-0.53,-0.09,-0.03,0.09,0.32,
0.959,0.29,-0.53,-0.09,-0.06,0.10,0.33,
0.96,0.29,-0.53,-0.09,-0.07,0.10,0.34,
0.96,0.29,-0.53,-0.09,-0.10,0.10,0.36,
0.96,-0.01,-0.46,0.06,-0.10,0.10,0.36,
0.96,-0.01,-0.46,0.06,-0.12,0.10,0.38,
0.961,-0.01,-0.46,0.06,-0.15,0.09,0.41,
0.961,-0.01,-0.46,0.06,-0.17,0.08,0.44,
0.961,-0.01,-0.46,0.06,-0.17,0.08,0.45,
0.962,-0.01,-0.46,0.06,-0.20,0.08,0.47,
0.962,0.03,-0.50,0.35,-0.20,0.08,0.47,
0.962,0.03,-0.50,0.35,-0.22,0.08,0.49,
0.962,0.03,-0.50,0.35,-0.23,0.08,0.53,
0.963,0.03,-0.50,0.35,-0.25,0.09,0.55,
0.969,0.03,-0.50,0.35,-0.26,0.09,0.56,
0.97,0.03,-0.50,0.35,-0.28,0.09,0.58,
0.97,0.18,-0.52,0.70,-0.28,0.09,0.58,
0.97,0.18,-0.52,0.70,-0.29,0.09,0.60,
0.972,0.18,-0.52,0.70,-0.31,0.09,0.63,
0.973,0.18,-0.52,0.70,-0.32,0.07,0.64,
0.975,0.18,-0.52,0.70,-0.33,0.07,0.65,
0.977,0.18,-0.52,0.70,-0.34,0.06,0.66,
0.979,0.50,-0.39,1.05,-0.34,0.06,0.66,
0.979,0.50,-0.39,1.05,-0.35,0.04,0.67,
0.982,0.50,-0.39,1.05,-0.37,0.01,0.68,
0.983,0.50,-0.39,1.05,-0.37,-0.00,0.68,
0.985,0.50,-0.39,1.05,-0.38,-0.01,0.68,
0.988,0.50,-0.39,1.05,-0.39,-0.03,0.68,
0.989,0.91,-0.15,1.35,-0.39,-0.03,0.68,
0.989,0.91,-0.15,1.35,-0.40,-0.05,0.68,
0.992,0.91,-0.15,1.35,-0.41,-0.08,0.67,
0.992,0.91,-0.15,1.35,-0.42,-0.10,0.66,
0.995,0.91,-0.15,1.35,-0.43,-0.11,0.66,
0.996,0.91,-0.15,1.35,-0.44,-0.14,0.65,
0.999,1.40,0.02,1.61,-0.44,-0.14,0.65,
0.999,1.40,0.02,1.61,-0.45,-0.15,0.63,
1.001,1.40,0.02,1.61,-0.46,-0.19,0.61,
1.003,1.40,0.02,1.61,-0.47,-0.20,0.59,
1.005,1.40,0.02,1.61,-0.48,-0.21,0.58,
1.007,1.40,0.02,1.61,-0.49,-0.23,0.56,
1.009,1.65,0.08,1.85,-0.49,-0.23,0.56,
1.009,1.65,0.08,1.85,-0.50,-0.25,0.53,
1.012,1.65,0.08,1.85,-0.51,-0.28,0.49,
1.013,1.65,0.08,1.85,-0.52,-0.28,0.48,
1.014,1.65,0.08,1.85,-0.52,-0.30,0.45,
1.016,1.65,0.08,1.85,-0.52,-0.30,0.44,
1.019,1.70,0.03,2.13,-0.52,-0.30,0.44,
1.019,1.70,0.03,2.13,-0.52,-0.32,0.41,
1.023,1.70,0.03,2.13,-0.52,-0.33,0.38,
1.023,1.70,0.03,2.13,-0.52,-0.33,0.35,
1.024,1.70,0.03,2.13,-0.51,-0.33,0.34,
1.026,1.70,0.03,2.13,-0.50,-0.33,0.31,
1.033,1.63,-0.01,2.39,-0.50,-0.33,0.31,
1.033,1.63,-0.01,2.39,-0.49,-0.33,0.29,
1.033,1.63,-0.01,2.39,-0.47,-0.31,0.26,
1.033,1.63,-0.01,2.39,-0.46,-0.29,0.24,
1.035,1.63,-0.01,2.39,-0.45,-0.29,0.23,
1.044,1.63,-0.01,2.39,-0.44,-0.27,0.21,
1.045,1.60,-0.04,2.41,-0.44,-0.27,0.21,
1.045,1.60,-0.04,2.41,-0.42,-0.26,0.19,
1.045,1.60,-0.04,2.41,-0.40,-0.24,0.17,
1.045,1.60,-0.04,2.41,-0.39,-0.24,0.16,
1.045,1.60,-0.04,2.41,-0.38,-0.24,0.16,
1.048,1.60,-0.04,2.41,-0.37,-0.24,0.15,
1.048,1.37,-0.07,1.89,-0.37,-0.24,0.15,
1.051,1.37,-0.07,1.89,-0.37,-0.24,0.14,
1.052,1.37,-0.07,1.89,-0.37,-0.26,0.13,
1.055,1.37,-0.07,1.89,-0.37,-0.28,0.12,
1.055,1.37,-0.07,1.89,-0.37,-0.29,0.12,
1.056,1.37,-0.07,1.89,-0.38,-0.32,0.12,
1.06,1.09,-0.06,1.15,-0.38,-0.32,0.12,
1.061,1.09,-0.06,1.15,-0.40,-0.35,0.12,
1.061,1.09,-0.06,1.15,-0.42,-0.40,0.12,
1.063,1.09,-0.06,1.15,-0.43,-0.43,0.12,
1.064,1.09,-0.06,1.15,-0.45,-0.45,0.12,
1.066,1.09,-0.06,1.15,-0.46,-0.49,0.13,
1.069,0.78,0.07,0.57,-0.46,-0.49,0.13,
1.069,0.78,0.07,0.57,-0.49,-0.52,0.13,
1.072,0.78,0.07,0.57,-0.52,-0.59,0.14,
1.073,0.78,0.07,0.57,-0.55,-0.62,0.14,
1.074,0.78,0.07,0.57,-0.56,-0.64,0.15,
1.077,0.78,0.07,0.57,-0.59,-0.68,0.15,
1.079,0.69,0.24,0.35,-0.59,-0.68,0.15,
1.079,0.69,0.24,0.35,-0.62,-0.72,0.15,
1.081,0.69,0.24,0.35,-0.67,-0.78,0.16,
1.083,0.69,0.24,0.35,-0.71,-0.81,0.15,
1.085,0.69,0.24,0.35,-0.72,-0.83,0.15,
1.091,0.69,0.24,0.35,-0.76,-0.85,0.15,
1.093,0.87,0.38,0.58,-0.76,-0.85,0.15,
1.093,0.87,0.38,0.58,-0.79,-0.88,0.14,
1.117,0.87,0.38,0.58,-0.85,-0.90,0.13,
1.117,0.87,0.38,0.58,-0.88,-0.91,0.12,
1.118,0.87,0.38,0.58,-0.90,-0.91,0.12,
1.118,0.87,0.38,0.58,-0.93,-0.91,0.11,
1.119,1.20,0.54,1.20,-0.93,-0.91,0.11,
1.119,1.20,0.54,1.20,-0.96,-0.90,0.09,
1.119,1.20,0.54,1.20,-1.00,-0.88,0.08,
1.12,1.20,0.54,1.20,-1.03,-0.85,0.07,
1.12,1.20,0.54,1.20,-1.04,-0.84,0.06,
1.121,1.20,0.54,1.20,-1.06,-0.80,0.06,
1.121,1.36,0.56,2.03,-1.06,-0.80,0.06,
1.121,1.36,0.56,2.03,-1.08,-0.76,0.05,
1.122,1.36,0.56,2.03,-1.10,-0.69,0.05,
1.122,1.36,0.56,2.03,-1.11,-0.63,0.05,
1.123,1.36,0.56,2.03,-1.11,-0.60,0.05,
1.123,1.36,0.56,2.03,-1.12,-0.54,0.05,
1.123,1.29,0.45,2.97,-1.12,-0.54,0.05,
1.124,1.29,0.45,2.97,-1.11,-0.48,0.05,
1.124,1.29,0.45,2.97,-1.08,-0.35,0.07,
1.125,1.29,0.45,2.97,-1.07,-0.31,0.07,
1.125,1.29,0.45,2.97,-1.06,-0.28,0.08,
1.135,1.29,0.45,2.97,-1.03,-0.21,0.09,
1.136,1.14,0.39,3.83,-1.03,-0.21,0.09,
1.137,1.14,0.39,3.83,-1.00,-0.14,0.10,
1.137,1.14,0.39,3.83,-0.94,-0.04,0.12,
1.138,1.14,0.39,3.83,-0.89,0.03,0.13,
1.138,1.14,0.39,3.83,-0.87,0.06,0.14,
1.138,1.14,0.39,3.83,-0.79,0.14,0.16,
1.139,1.08,0.32,4.27,-0.79,0.14,0.16,
1.139,1.08,0.32,4.27,-0.76,0.17,0.17,
1.143,1.08,0.32,4.27,-0.67,0.23,0.19,
1.143,1.08,0.32,4.27,-0.61,0.26,0.20,
1.144,1.08,0.32,4.27,-0.55,0.29,0.22,
1.146,1.08,0.32,4.27,-0.48,0.31,0.23,
1.149,1.10,0.28,4.16,-0.48,0.31,0.23,
1.149,1.10,0.28,4.16,-0.42,0.32,0.25,
1.151,1.10,0.28,4.16,-0.35,0.32,0.26,
1.153,1.10,0.28,4.16,-0.29,0.31,0.27,
1.155,1.10,0.28,4.16,-0.22,0.30,0.28,
1.157,1.10,0.28,4.16,-0.16,0.29,0.29,
1.159,1.28,0.32,3.50,-0.16,0.29,0.29,
1.159,1.28,0.32,3.50,-0.09,0.26,0.30,
1.161,1.28,0.32,3.50,-0.03,0.23,0.31,
1.163,1.28,0.32,3.50,0.03,0.20,0.32,
1.164,1.28,0.32,3.50,0.09,0.17,0.32,
1.167,1.28,0.32,3.50,0.15,0.12,0.33,
1.189,1.52,0.45,2.63,0.15,0.12,0.33,
1.19,1.52,0.45,2.63,0.20,0.08,0.33,
1.191,1.52,0.45,2.63,0.25,0.03,0.33,
1.191,1.52,0.45,2.63,0.30,-0.02,0.33,
1.192,1.52,0.45,2.63,0.34,-0.07,0.32,
1.193,1.52,0.45,2.63,0.38,-0.12,0.31,
1.193,1.97,0.57,1.68,0.38,-0.12,0.31,
1.194,1.97,0.57,1.68,0.41,-0.16,0.30,
1.195,1.97,0.57,1.68,0.44,-0.21,0.29,
1.195,1.97,0.57,1.68,0.47,-0.25,0.28,
1.196,1.97,0.57,1.68,0.50,-0.29,0.26,
1.196,1.97,0.57,1.68,0.53,-0.32,0.24,
1.198,2.43,0.64,0.84,0.53,-0.32,0.24,
1.198,2.43,0.64,0.84,0.55,-0.36,0.23,
1.198,2.43,0.64,0.84,0.56,-0.39,0.20,
1.199,2.43,0.64,0.84,0.58,-0.42,0.18,
1.199,2.43,0.64,0.84,0.59,-0.45,0.16,
1.199,2.43,0.64,0.84,0.60,-0.48,0.13,
1.199,2.82,0.58,0.12,0.60,-0.48,0.13,
1.2,2.82,0.58,0.12,0.60,-0.51,0.11,
1.213,2.82,0.58,0.12,0.61,-0.54,0.08,
1.213,2.82,0.58,0.12,0.61,-0.56,0.05,
1.214,2.82,0.58,0.12,0.61,-0.58,0.02,
1.214,2.82,0.58,0.12,0.61,-0.60,-0.00,
1.214,2.93,0.50,-0.42,0.61,-0.60,-0.00,
1.214,2.93,0.50,-0.42,0.61,-0.61,-0.03,
1.215,2.93,0.50,-0.42,0.61,-0.62,-0.06,
1.215,2.93,0.50,-0.42,0.60,-0.63,-0.09,
1.215,2.93,0.50,-0.42,0.60,-0.63,-0.12,
1.22,2.93,0.50,-0.42,0.59,-0.63,-0.15,
1.221,2.95,0.39,-0.79,0.59,-0.63,-0.15,
1.221,2.95,0.39,-0.79,0.58,-0.63,-0.18,
1.223,2.95,0.39,-0.79,0.57,-0.62,-0.21,
1.223,2.95,0.39,-0.79,0.56,-0.61,-0.23,
1.23,2.95,0.39,-0.79,0.55,-0.60,-0.26,
1.231,2.95,0.39,-0.79,0.53,-0.59,-0.29,
1.231,2.70,0.19,-1.15,0.53,-0.59,-0.29,
1.231,2.70,0.19,-1.15,0.51,-0.57,-0.31,
1.232,2.70,0.19,-1.15,0.50,-0.55,-0.33,
1.233,2.70,0.19,-1.15,0.48,-0.53,-0.36,
1.237,2.70,0.19,-1.15,0.46,-0.50,-0.38,
1.247,2.70,0.19,-1.15,0.44,-0.48,-0.40,
1.248,2.56,0.05,-1.61,0.44,-0.48,-0.40,
1.249,2.56,0.05,-1.61,0.41,-0.46,-0.43,
1.25,2.56,0.05,-1.61,0.38,-0.44,-0.45,
1.25,2.56,0.05,-1.61,0.36,-0.41,-0.47,
1.251,2.56,0.05,-1.61,0.33,-0.39,-0.49,
1.251,2.56,0.05,-1.61,0.29,-0.37,-0.51,
1.252,2.29,-0.11,-2.05,0.29,-0.37,-0.51,
1.252,2.29,-0.11,-2.05,0.25,-0.35,-0.53,
1.26,2.29,-0.11,-2.05,0.23,-0.32,-0.55,
1.263,2.29,-0.11,-2.05,0.19,-0.30,-0.57,
1.263,2.29,-0.11,-2.05,0.15,-0.28,-0.59,
1.263,2.29,-0.11,-2.05,0.12,-0.26,-0.61,
1.287,2.09,-0.20,-2.41,0.12,-0.26,-0.61,
1.287,2.09,-0.20,-2.41,0.08,-0.24,-0.63,
1.287,2.09,-0.20,-2.41,0.02,-0.21,-0.66,
1.288,2.09,-0.20,-2.41,0.01,-0.20,-0.67,
1.288,2.09,-0.20,-2.41,-0.03,-0.19,-0.70,
1.288,2.09,-0.20,-2.41,-0.06,-0.17,-0.72,
1.289,1.78,-0.28,-2.58,-0.06,-0.17,-0.72,
1.289,1.78,-0.28,-2.58,-0.09,-0.15,-0.74,
1.289,1.78,-0.28,-2.58,-0.12,-0.13,-0.76,
1.289,1.78,-0.28,-2.58,-0.16,-0.12,-0.79,
1.29,1.78,-0.28,-2.58,-0.19,-0.10,-0.81,
1.29,1.78,-0.28,-2.58,-0.22,-0.09,-0.84,
1.29,1.55,-0.32,-2.69,-0.22,-0.09,-0.84,
1.29,1.55,-0.32,-2.69,-0.25,-0.07,-0.86,
1.291,1.55,-0.32,-2.69,-0.27,-0.06,-0.88,
1.291,1.55,-0.32,-2.69,-0.30,-0.05,-0.91,
1.291,1.55,-0.32,-2.69,-0.32,-0.04,-0.93,
1.292,1.55,-0.32,-2.69,-0.35,-0.04,-0.95,
1.292,1.22,-0.40,-2.72,-0.35,-0.04,-0.95,
1.292,1.22,-0.40,-2.72,-0.37,-0.03,-0.97,
1.3,1.22,-0.40,-2.72,-0.40,-0.03,-0.99,
1.301,1.22,-0.40,-2.72,-0.42,-0.02,-1.01,
1.301,1.22,-0.40,-2.72,-0.44,-0.02,-1.03,
1.302,1.22,-0.40,-2.72,-0.46,-0.01,-1.05,
1.302,0.97,-0.38,-2.72,-0.46,-0.01,-1.05,
1.302,0.97,-0.38,-2.72,-0.47,-0.01,-1.07,
1.303,0.97,-0.38,-2.72,-0.49,-0.01,-1.09,
1.303,0.97,-0.38,-2.72,-0.50,-0.01,-1.11,
1.307,0.97,-0.38,-2.72,-0.51,-0.02,-1.13,
1.307,0.97,-0.38,-2.72,-0.52,-0.02,-1.15,
1.311,0.58,-0.44,-2.58,-0.52,-0.02,-1.15,
1.311,0.58,-0.44,-2.58,-0.54,-0.03,-1.16,
1.312,0.58,-0.44,-2.58,-0.55,-0.03,-1.18,
1.315,0.58,-0.44,-2.58,-0.55,-0.04,-1.20,
1.315,0.58,-0.44,-2.58,-0.56,-0.05,-1.21,
1.319,0.58,-0.44,-2.58,-0.56,-0.06,-1.22,
1.32,0.14,-0.49,-2.40,-0.56,-0.06,-1.22,
1.32,0.14,-0.49,-2.40,-0.57,-0.08,-1.24,
1.322,0.14,-0.49,-2.40,-0.57,-0.08,-1.24,
1.323,0.14,-0.49,-2.40,-0.57,-0.09,-1.25,
1.324,0.14,-0.49,-2.40,-0.56,-0.10,-1.26,
1.327,0.14,-0.49,-2.40,-0.56,-0.11,-1.26,
1.329,-0.35,-0.54,-2.06,-0.56,-0.11,-1.26,
1.329,-0.35,-0.54,-2.06,-0.55,-0.12,-1.26,
1.332,-0.35,-0.54,-2.06,-0.54,-0.14,-1.26,
1.332,-0.35,-0.54,-2.06,-0.53,-0.14,-1.26,
1.342,-0.35,-0.54,-2.06,-0.51,-0.16,-1.26,
1.343,-0.35,-0.54,-2.06,-0.50,-0.17,-1.25,
1.343,-0.92,-0.55,-1.77,-0.50,-0.17,-1.25,
1.343,-0.92,-0.55,-1.77,-0.49,-0.18,-1.25,
1.343,-0.92,-0.55,-1.77,-0.47,-0.20,-1.23,
1.343,-0.92,-0.55,-1.77,-0.46,-0.20,-1.23,
1.345,-0.92,-0.55,-1.77,-0.44,-0.22,-1.22,
1.381,-0.92,-0.55,-1.77,-0.42,-0.24,-1.20,
1.382,-1.22,-0.52,-1.63,-0.42,-0.24,-1.20,
1.382,-1.22,-0.52,-1.63,-0.40,-0.26,-1.19,
1.383,-1.22,-0.52,-1.63,-0.39,-0.28,-1.18,
1.383,-1.22,-0.52,-1.63,-0.37,-0.30,-1.16,
1.383,-1.22,-0.52,-1.63,-0.36,-0.32,-1.15,
1.384,-1.22,-0.52,-1.63,-0.34,-0.34,-1.14,
1.384,-1.33,-0.39,-1.55,-0.34,-0.34,-1.14,
1.386,-1.33,-0.39,-1.55,-0.32,-0.36,-1.12,
1.387,-1.33,-0.39,-1.55,-0.30,-0.39,-1.10,
1.387,-1.33,-0.39,-1.55,-0.29,-0.40,-1.09,
1.387,-1.33,-0.39,-1.55,-0.28,-0.42,-1.08,
1.387,-1.33,-0.39,-1.55,-0.26,-0.43,-1.07,
1.388,-1.24,-0.22,-1.46,-0.26,-0.43,-1.07,
1.388,-1.24,-0.22,-1.46,-0.25,-0.44,-1.06,
1.388,-1.24,-0.22,-1.46,-0.23,-0.46,-1.04,
1.388,-1.24,-0.22,-1.46,-0.22,-0.46,-1.04,
1.388,-1.24,-0.22,-1.46,-0.20,-0.47,-1.03,
1.388,-1.24,-0.22,-1.46,-0.19,-0.48,-1.02,
1.388,-1.09,-0.09,-1.40,-0.19,-0.48,-1.02,
1.389,-1.09,-0.09,-1.40,-0.18,-0.49,-1.01,
1.389,-1.09,-0.09,-1.40,-0.16,-0.51,-1.00,
1.389,-1.09,-0.09,-1.40,-0.15,-0.51,-1.00,
1.389,-1.09,-0.09,-1.40,-0.14,-0.52,-1.00,
1.389,-1.09,-0.09,-1.40,-0.13,-0.53,-0.99,
1.391,-0.88,-0.01,-1.32,-0.13,-0.53,-0.99,
1.391,-0.88,-0.01,-1.32,-0.11,-0.55,-0.99,
1.392,-0.88,-0.01,-1.32,-0.10,-0.57,-0.99,
1.392,-0.88,-0.01,-1.32,-0.09,-0.57,-0.99,
1.394,-0.88,-0.01,-1.32,-0.08,-0.59,-0.99,
1.397,-0.88,-0.01,-1.32,-0.07,-0.60,-0.98,
1.399,-0.84,0.13,-1.15,-0.07,-0.60,-0.98,
1.399,-0.84,0.13,-1.15,-0.06,-0.62,-0.98,
1.402,-0.84,0.13,-1.15,-0.04,-0.63,-0.97,
1.403,-0.84,0.13,-1.15,-0.04,-0.64,-0.97,
1.405,-0.84,0.13,-1.15,-0.03,-0.65,-0.97,
1.407,-0.84,0.13,-1.15,-0.02,-0.66,-0.97,
1.409,-0.93,0.22,-0.96,-0.02,-0.66,-0.97,
1.409,-0.93,0.22,-0.96,-0.01,-0.67,-0.96,
1.411,-0.93,0.22,-0.96,0.00,-0.68,-0.96,
1.412,-0.93,0.22,-0.96,0.01,-0.68,-0.96,
1.414,-0.93,0.22,-0.96,0.02,-0.68,-0.95,
1.416,-0.93,0.22,-0.96,0.03,-0.69,-0.95,
1.419,-1.07,0.27,-0.75,0.03,-0.69,-0.95,
1.419,-1.07,0.27,-0.75,0.04,-0.69,-0.94,
1.421,-1.07,0.27,-0.75,0.05,-0.69,-0.94,
1.423,-1.07,0.27,-0.75,0.05,-0.69,-0.93,
1.437,-1.07,0.27,-0.75,0.06,-0.69,-0.92,
1.437,-1.07,0.27,-0.75,0.06,-0.68,-0.92,
1.438,-1.16,0.29,-0.58,0.06,-0.68,-0.92,
1.438,-1.16,0.29,-0.58,0.07,-0.68,-0.91,
1.438,-1.16,0.29,-0.58,0.08,-0.67,-0.90,
1.438,-1.16,0.29,-0.58,0.08,-0.66,-0.89,
1.438,-1.16,0.29,-0.58,0.08,-0.65,-0.88,
1.439,-1.16,0.29,-0.58,0.08,-0.64,-0.87,
1.439,-1.30,0.32,-0.52,0.08,-0.64,-0.87,
1.445,-1.30,0.32,-0.52,0.08,-0.62,-0.84,
1.446,-1.30,0.32,-0.52,0.08,-0.61,-0.84,
1.446,-1.30,0.32,-0.52,0.08,-0.61,-0.84,
1.446,-1.30,0.32,-0.52,0.09,-0.60,-0.82,
1.451,-1.30,0.32,-0.52,0.09,-0.59,-0.81,
1.451,-1.32,0.35,-0.47,0.09,-0.59,-0.81,
1.451,-1.32,0.35,-0.47,0.09,-0.58,-0.80,
1.452,-1.32,0.35,-0.47,0.08,-0.57,-0.78,
1.453,-1.32,0.35,-0.47,0.08,-0.57,-0.77,
1.455,-1.32,0.35,-0.47,0.08,-0.56,-0.76,
1.457,-1.32,0.35,-0.47,0.09,-0.55,-0.75,
1.459,-1.31,0.43,-0.31,0.09,-0.55,-0.75,
1.459,-1.31,0.43,-0.31,0.09,-0.54,-0.74,
1.462,-1.31,0.43,-0.31,0.09,-0.52,-0.72,
1.462,-1.31,0.43,-0.31,0.09,-0.52,-0.72,
1.464,-1.31,0.43,-0.31,0.10,-0.51,-0.71,
1.466,-1.31,0.43,-0.31,0.11,-0.50,-0.70,
1.469,-1.15,0.52,-0.12,0.11,-0.50,-0.70,
1.469,-1.15,0.52,-0.12,0.11,-0.50,-0.69,
1.472,-1.15,0.52,-0.12,0.11,-0.48,-0.68,
1.472,-1.15,0.52,-0.12,0.12,-0.48,-0.67,
1.475,-1.15,0.52,-0.12,0.12,-0.47,-0.67,
1.476,-1.15,0.52,-0.12,0.13,-0.47,-0.66,
1.479,-1.06,0.64,0.08,0.13,-0.47,-0.66,
1.479,-1.06,0.64,0.08,0.14,-0.46,-0.66,
1.481,-1.06,0.64,0.08,0.16,-0.45,-0.65,
1.482,-1.06,0.64,0.08,0.16,-0.44,-0.65,
1.485,-1.06,0.64,0.08,0.17,-0.43,-0.64,
1.487,-1.06,0.64,0.08,0.19,-0.43,-0.64,
1.49,-1.00,0.77,0.29,0.19,-0.43,-0.64,
1.49,-1.00,0.77,0.29,0.20,-0.42,-0.63,
1.491,-1.00,0.77,0.29,0.23,-0.42,-0.63,
1.492,-1.00,0.77,0.29,0.24,-0.41,-0.63,
1.494,-1.00,0.77,0.29,0.25,-0.41,-0.63,
1.496,-1.00,0.77,0.29,0.26,-0.41,-0.63,
1.5,-1.01,0.92,0.35,0.26,-0.41,-0.63,
1.5,-1.01,0.92,0.35,0.27,-0.41,-0.63,
1.502,-1.01,0.92,0.35,0.29,-0.41,-0.64,
1.502,-1.01,0.92,0.35,0.30,-0.41,-0.64,
1.506,-1.01,0.92,0.35,0.31,-0.41,-0.64,
1.507,-1.01,0.92,0.35,0.32,-0.41,-0.65,
1.51,-1.15,1.07,0.28,0.32,-0.41,-0.65,
1.51,-1.15,1.07,0.28,0.32,-0.41,-0.65,
1.513,-1.15,1.07,0.28,0.33,-0.41,-0.65,
1.514,-1.15,1.07,0.28,0.34,-0.41,-0.66,
1.514,-1.15,1.07,0.28,0.34,-0.40,-0.66,
1.517,-1.15,1.07,0.28,0.35,-0.40,-0.66,
1.519,-1.49,1.14,0.18,0.35,-0.40,-0.66,
1.52,-1.49,1.14,0.18,0.35,-0.40,-0.66,
1.522,-1.49,1.14,0.18,0.36,-0.38,-0.65,
1.523,-1.49,1.14,0.18,0.36,-0.38,-0.65,
1.524,-1.49,1.14,0.18,0.35,-0.37,-0.65,
1.526,-1.49,1.14,0.18,0.35,-0.36,-0.64,
1.529,-1.73,1.14,0.03,0.35,-0.36,-0.64,
1.529,-1.73,1.14,0.03,0.36,-0.35,-0.63,
1.531,-1.73,1.14,0.03,0.35,-0.32,-0.62,
1.533,-1.73,1.14,0.03,0.35,-0.31,-0.61,
1.535,-1.73,1.14,0.03,0.34,-0.30,-0.60,
1.537,-1.73,1.14,0.03,0.33,-0.27,-0.59,
1.539,-2.11,1.13,-0.14,0.33,-0.27,-0.59,
1.539,-2.11,1.13,-0.14,0.32,-0.25,-0.57,
1.542,-2.11,1.13,-0.14,0.31,-0.21,-0.54,
1.543,-2.11,1.13,-0.14,0.30,-0.20,-0.53,
1.545,-2.11,1.13,-0.14,0.29,-0.17,-0.52,
1.547,-2.11,1.13,-0.14,0.27,-0.15,-0.50,
1.55,-2.37,1.13,-0.37,0.27,-0.15,-0.50,
1.55,-2.37,1.13,-0.37,0.25,-0.12,-0.49,
1.556,-2.37,1.13,-0.37,0.21,-0.09,-0.46,
1.558,-2.37,1.13,-0.37,0.20,-0.08,-0.45,
1.558,-2.37,1.13,-0.37,0.19,-0.06,-0.43,
1.559,-2.37,1.13,-0.37,0.16,-0.04,-0.42,
1.561,-2.56,1.16,-0.55,0.16,-0.04,-0.42,
1.562,-2.56,1.16,-0.55,0.14,-0.02,-0.40,
1.563,-2.56,1.16,-0.55,0.10,0.00,-0.38,
1.564,-2.56,1.16,-0.55,0.08,0.01,-0.37,
1.565,-2.56,1.16,-0.55,0.05,0.03,-0.35,
1.572,-2.56,1.16,-0.55,0.02,0.05,-0.34,
1.574,-2.47,1.19,-0.58,0.02,0.05,-0.34,
1.575,-2.47,1.19,-0.58,-0.00,0.06,-0.32,
1.575,-2.47,1.19,-0.58,-0.05,0.07,-0.30,
1.576,-2.47,1.19,-0.58,-0.06,0.08,-0.29,
1.577,-2.47,1.19,-0.58,-0.08,0.09,-0.28,
1.578,-2.47,1.19,-0.58,-0.10,0.10,-0.27,
1.58,-2.50,1.19,-0.31,-0.10,0.10,-0.27,
1.581,-2.50,1.19,-0.31,-0.12,0.11,-0.25,
1.582,-2.50,1.19,-0.31,-0.16,0.13,-0.23,
1.583,-2.50,1.19,-0.31,-0.17,0.13,-0.22,
1.594,-2.50,1.19,-0.31,-0.19,0.14,-0.21,
1.595,-2.50,1.19,-0.31,-0.19,0.15,-0.19,
1.595,-2.47,1.12,0.14,-0.19,0.15,-0.19,
1.595,-2.47,1.12,0.14,-0.21,0.15,-0.17,
1.617,-2.47,1.12,0.14,-0.22,0.17,-0.14,
1.617,-2.47,1.12,0.14,-0.23,0.17,-0.13,
1.618,-2.47,1.12,0.14,-0.25,0.18,-0.12,
1.618,-2.47,1.12,0.14,-0.26,0.18,-0.10,
1.618,-2.53,1.04,0.58,-0.26,0.18,-0.10,
1.619,-2.53,1.04,0.58,-0.27,0.19,-0.07,
1.619,-2.53,1.04,0.58,-0.27,0.20,-0.04,
1.619,-2.53,1.04,0.58,-0.28,0.20,-0.03,
1.619,-2.53,1.04,0.58,-0.29,0.21,-0.02,
1.62,-2.53,1.04,0.58,-0.30,0.21,0.00,
1.62,-2.34,0.99,0.99,-0.30,0.21,0.00,
1.62,-2.34,0.99,0.99,-0.31,0.22,0.02,
1.62,-2.34,0.99,0.99,-0.32,0.23,0.05,
1.621,-2.34,0.99,0.99,-0.32,0.23,0.05,
1.621,-2.34,0.99,0.99,-0.32,0.24,0.07,
1.621,-2.34,0.99,0.99,-0.32,0.25,0.08,
1.621,-2.15,1.02,1.51,-0.32,0.25,0.08,
1.622,-2.15,1.02,1.51,-0.32,0.26,0.10,
1.622,-2.15,1.02,1.51,-0.31,0.28,0.12,
1.63,-2.15,1.02,1.51,-0.31,0.29,0.12,
1.631,-2.15,1.02,1.51,-0.30,0.31,0.14,
1.631,-2.15,1.02,1.51,-0.29,0.33,0.15,
1.632,-2.00,0.96,2.11,-0.29,0.33,0.15,
1.632,-2.00,0.96,2.11,-0.28,0.36,0.16,
1.632,-2.00,0.96,2.11,-0.26,0.40,0.19,
1.632,-2.00,0.96,2.11,-0.25,0.42,0.19,
1.638,-2.00,0.96,2.11,-0.23,0.45,0.21,
1.639,-2.00,0.96,2.11,-0.21,0.49,0.22,
1.639,-1.98,0.97,2.59,-0.21,0.49,0.22,
1.639,-1.98,0.97,2.59,-0.20,0.51,0.24,
1.642,-1.98,0.97,2.59,-0.17,0.56,0.26,
1.643,-1.98,0.97,2.59,-0.16,0.57,0.27,
1.645,-1.98,0.97,2.59,-0.14,0.59,0.28,
1.646,-1.98,0.97,2.59,-0.12,0.62,0.30,
1.651,-1.95,0.89,2.86,-0.12,0.62,0.30,
1.651,-1.95,0.89,2.86,-0.09,0.63,0.32,
1.659,-1.95,0.89,2.86,-0.06,0.66,0.34,
1.659,-1.95,0.89,2.86,-0.05,0.66,0.35,
1.66,-1.95,0.89,2.86,-0.03,0.67,0.37,
1.66,-1.95,0.89,2.86,-0.01,0.68,0.39,
1.66,-2.14,0.92,2.79,-0.01,0.68,0.39,
1.66,-2.14,0.92,2.79,0.00,0.68,0.41,
1.662,-2.14,0.92,2.79,0.02,0.68,0.44,
1.665,-2.14,0.92,2.79,0.03,0.67,0.45,
1.665,-2.14,0.92,2.79,0.04,0.67,0.47,
1.669,-2.14,0.92,2.79,0.05,0.66,0.49,
1.669,-2.07,0.86,2.39,0.05,0.66,0.49,
1.669,-2.07,0.86,2.39,0.05,0.64,0.51,
1.675,-2.07,0.86,2.39,0.04,0.61,0.53,
1.676,-2.07,0.86,2.39,0.04,0.60,0.54,
1.676,-2.07,0.86,2.39,0.03,0.57,0.55,
1.677,-2.07,0.86,2.39,0.02,0.55,0.57,
1.679,-1.95,0.93,1.91,0.02,0.55,0.57,
1.68,-1.95,0.93,1.91,0.01,0.51,0.58,
1.682,-1.95,0.93,1.91,-0.02,0.46,0.59,
1.684,-1.95,0.93,1.91,-0.03,0.44,0.59,
1.685,-1.95,0.93,1.91,-0.05,0.41,0.60,
1.687,-1.95,0.93,1.91,-0.07,0.37,0.60,
1.689,-1.51,0.99,1.66,-0.07,0.37,0.60,
1.689,-1.51,0.99,1.66,-0.09,0.34,0.60,
1.692,-1.51,0.99,1.66,-0.12,0.29,0.60,
1.693,-1.51,0.99,1.66,-0.13,0.28,0.60,
1.695,-1.51,0.99,1.66,-0.15,0.25,0.59,
1.696,-1.51,0.99,1.66,-0.17,0.23,0.59,
1.699,-1.15,1.00,1.81,-0.17,0.23,0.59,
1.699,-1.15,1.00,1.81,-0.19,0.21,0.58,
1.702,-1.15,1.00,1.81,-0.21,0.19,0.57,
1.703,-1.15,1.00,1.81,-0.22,0.19,0.57,
1.705,-1.15,1.00,1.81,-0.23,0.19,0.56,
1.707,-1.15,1.00,1.81,-0.24,0.19,0.55,
1.709,-0.89,0.88,2.30,-0.24,0.19,0.55,
1.71,-0.89,0.88,2.30,-0.24,0.19,0.54,
1.712,-0.89,0.88,2.30,-0.25,0.22,0.53,
1.714,-0.89,0.88,2.30,-0.25,0.24,0.53,
1.715,-0.89,0.88,2.30,-0.25,0.26,0.53,
1.722,-0.89,0.88,2.30,-0.25,0.29,0.52,
1.722,-0.91,0.68,2.90,-0.25,0.29,0.52,
1.722,-0.91,0.68,2.90,-0.24,0.33,0.52,
1.722,-0.91,0.68,2.90,-0.22,0.39,0.53,
1.723,-0.91,0.68,2.90,-0.22,0.41,0.53,
1.724,-0.91,0.68,2.90,-0.20,0.45,0.53,
1.728,-0.91,0.68,2.90,-0.18,0.50,0.54,
1.73,-1.09,0.38,3.26,-0.18,0.50,0.54,
1.732,-1.09,0.38,3.26,-0.17,0.55,0.55,
1.748,-1.09,0.38,3.26,-0.14,0.61,0.57,
1.748,-1.09,0.38,3.26,-0.13,0.64,0.57,
1.749,-1.09,0.38,3.26,-0.11,0.68,0.58,
1.749,-1.09,0.38,3.26,-0.08,0.72,0.60,
1.749,-1.36,0.08,3.25,-0.08,0.72,0.60,
1.749,-1.36,0.08,3.25,-0.06,0.76,0.61,
1.749,-1.36,0.08,3.25,-0.02,0.80,0.64,
1.749,-1.36,0.08,3.25,-0.01,0.82,0.65,
1.749,-1.36,0.08,3.25,0.01,0.84,0.67,
1.749,-1.36,0.08,3.25,0.04,0.86,0.69,
1.75,-1.61,-0.15,2.86,0.04,0.86,0.69,
1.75,-1.61,-0.15,2.86,0.06,0.87,0.71,
1.751,-1.61,-0.15,2.86,0.10,0.88,0.75,
1.753,-1.61,-0.15,2.86,0.11,0.88,0.76,
1.755,-1.61,-0.15,2.86,0.13,0.88,0.78,
1.756,-1.61,-0.15,2.86,0.15,0.87,0.80,
1.772,-1.80,-0.24,2.19,0.15,0.87,0.80,
1.773,-1.80,-0.24,2.19,0.17,0.86,0.82,
1.773,-1.80,-0.24,2.19,0.20,0.83,0.86,
1.773,-1.80,-0.24,2.19,0.20,0.82,0.87,
1.773,-1.80,-0.24,2.19,0.22,0.80,0.89,
1.773,-1.80,-0.24,2.19,0.23,0.78,0.91,
1.774,-1.75,-0.34,1.46,0.23,0.78,0.91,
1.774,-1.75,-0.34,1.46,0.23,0.75,0.93,
1.774,-1.75,-0.34,1.46,0.25,0.70,0.96,
1.774,-1.75,-0.34,1.46,0.25,0.69,0.97,
1.774,-1.75,-0.34,1.46,0.26,0.65,0.98,
1.777,-1.75,-0.34,1.46,0.26,0.62,1.00,
1.779,-1.62,-0.38,0.94,0.26,0.62,1.00,
1.779,-1.62,-0.38,0.94,0.27,0.58,1.02,
1.781,-1.62,-0.38,0.94,0.27,0.53,1.03,
1.785,-1.62,-0.38,0.94,0.27,0.51,1.04,
1.786,-1.62,-0.38,0.94,0.27,0.48,1.05,
1.786,-1.62,-0.38,0.94,0.28,0.44,1.06,
1.789,-1.26,-0.37,0.68,0.28,0.44,1.06,
1.789,-1.26,-0.37,0.68,0.29,0.41,1.06,
1.791,-1.26,-0.37,0.68,0.29,0.36,1.07,
1.792,-1.26,-0.37,0.68,0.30,0.35,1.07,
1.794,-1.26,-0.37,0.68,0.30,0.32,1.07,
1.796,-1.26,-0.37,0.68,0.31,0.30,1.07,
1.8,-0.97,-0.44,0.68,0.31,0.30,1.07,
1.8,-0.97,-0.44,0.68,0.31,0.28,1.07,
1.801,-0.97,-0.44,0.68,0.32,0.26,1.07,
1.802,-0.97,-0.44,0.68,0.32,0.25,1.07,
1.804,-0.97,-0.44,0.68,0.33,0.24,1.08,
1.806,-0.97,-0.44,0.68,0.33,0.24,1.08,
1.809,-0.88,-0.60,0.74,0.33,0.24,1.08,
1.809,-0.88,-0.60,0.74,0.34,0.24,1.09,
1.811,-0.88,-0.60,0.74,0.35,0.24,1.10,
1.812,-0.88,-0.60,0.74,0.35,0.25,1.11,
1.814,-0.88,-0.60,0.74,0.36,0.26,1.12,
1.817,-0.88,-0.60,0.74,0.36,0.27,1.13,
1.818,-0.99,-0.82,0.76,0.36,0.27,1.13,
1.818,-0.99,-0.82,0.76,0.36,0.28,1.14,
1.822,-0.99,-0.82,0.76,0.37,0.30,1.15,
1.822,-0.99,-0.82,0.76,0.38,0.31,1.16,
1.824,-0.99,-0.82,0.76,0.39,0.32,1.17,
1.826,-0.99,-0.82,0.76,0.39,0.34,1.18,
1.828,-0.96,-0.93,0.66,0.39,0.34,1.18,
1.829,-0.96,-0.93,0.66,0.39,0.36,1.19,
1.831,-0.96,-0.93,0.66,0.40,0.38,1.20,
1.833,-0.96,-0.93,0.66,0.40,0.39,1.20,
1.835,-0.96,-0.93,0.66,0.40,0.40,1.21,
1.836,-0.96,-0.93,0.66,0.41,0.42,1.22,
1.839,-0.85,-1.01,0.45,0.41,0.42,1.22,
1.839,-0.85,-1.01,0.45,0.41,0.43,1.22,
1.841,-0.85,-1.01,0.45,0.42,0.44,1.23,
1.842,-0.85,-1.01,0.45,0.42,0.44,1.24,
1.844,-0.85,-1.01,0.45,0.42,0.45,1.25,
1.846,-0.85,-1.01,0.45,0.43,0.45,1.25,
1.849,-0.70,-1.02,0.15,0.43,0.45,1.25,
1.85,-0.70,-1.02,0.15,0.43,0.45,1.25,
1.851,-0.70,-1.02,0.15,0.43,0.44,1.26,
1.853,-0.70,-1.02,0.15,0.43,0.44,1.26,
1.854,-0.70,-1.02,0.15,0.43,0.43,1.26,
1.856,-0.70,-1.02,0.15,0.43,0.43,1.26,
1.859,-0.41,-1.00,-0.17,0.43,0.43,1.26,
1.859,-0.41,-1.00,-0.17,0.43,0.42,1.25,
1.861,-0.41,-1.00,-0.17,0.43,0.41,1.25,
1.862,-0.41,-1.00,-0.17,0.43,0.41,1.24,
1.864,-0.41,-1.00,-0.17,0.42,0.41,1.23,
1.87,-0.41,-1.00,-0.17,0.42,0.40,1.22,
1.871,-0.05,-0.97,-0.55,0.42,0.40,1.22,
1.871,-0.05,-0.97,-0.55,0.41,0.39,1.21,
1.875,-0.05,-0.97,-0.55,0.41,0.37,1.19,
1.875,-0.05,-0.97,-0.55,0.40,0.37,1.19,
1.875,-0.05,-0.97,-0.55,0.40,0.37,1.17,
1.876,-0.05,-0.97,-0.55,0.39,0.36,1.16,
1.879,0.10,-1.00,-0.87,0.39,0.36,1.16,
1.879,0.10,-1.00,-0.87,0.38,0.35,1.15,
1.89,0.10,-1.00,-0.87,0.37,0.35,1.14,
1.89,0.10,-1.00,-0.87,0.36,0.35,1.13,
1.891,0.10,-1.00,-0.87,0.35,0.34,1.12,
1.891,0.10,-1.00,-0.87,0.34,0.34,1.11,
1.891,0.21,-0.99,-1.12,0.34,0.34,1.11,
1.892,0.21,-0.99,-1.12,0.33,0.34,1.09,
1.892,0.21,-0.99,-1.12,0.31,0.35,1.07,
1.892,0.21,-0.99,-1.12,0.31,0.35,1.07,
1.894,0.21,-0.99,-1.12,0.29,0.36,1.05,
1.896,0.21,-0.99,-1.12,0.28,0.36,1.04,
1.899,0.30,-1.02,-1.34,0.28,0.36,1.04,
1.9,0.30,-1.02,-1.34,0.27,0.37,1.02,
1.902,0.30,-1.02,-1.34,0.26,0.39,1.00,
1.903,0.30,-1.02,-1.34,0.25,0.40,0.99,
1.904,0.30,-1.02,-1.34,0.25,0.41,0.98,
1.906,0.30,-1.02,-1.34,0.23,0.43,0.96,
1.909,0.30,-1.02,-1.49,0.23,0.43,0.96,
1.909,0.30,-1.02,-1.49,0.23,0.45,0.95,
1.911,0.30,-1.02,-1.49,0.22,0.47,0.94,
1.912,0.30,-1.02,-1.49,0.22,0.48,0.93,
1.915,0.30,-1.02,-1.49,0.21,0.50,0.92,
1.916,0.30,-1.02,-1.49,0.21,0.52,0.91,
1.919,0.24,-1.07,-1.69,0.21,0.52,0.91,
1.919,0.24,-1.07,-1.69,0.21,0.54,0.90,
1.921,0.24,-1.07,-1.69,0.20,0.57,0.90,
1.922,0.24,-1.07,-1.69,0.20,0.58,0.89,
1.945,0.24,-1.07,-1.69,0.20,0.60,0.88,
1.946,0.24,-1.07,-1.69,0.19,0.61,0.88,
1.947,0.20,-1.07,-2.04,0.19,0.61,0.88,
1.947,0.20,-1.07,-2.04,0.19,0.63,0.87,
1.948,0.20,-1.07,-2.04,0.18,0.65,0.86,
1.948,0.20,-1.07,-2.04,0.17,0.65,0.86,
1.948,0.20,-1.07,-2.04,0.17,0.67,0.86,
1.949,0.24,-1.03,-2.46,0.17,0.67,0.86,
1.949,0.24,-1.03,-2.46,0.15,0.68,0.85,
1.95,0.24,-1.03,-2.46,0.15,0.68,0.85,
1.95,0.24,-1.03,-2.46,0.14,0.68,0.84,
1.95,0.24,-1.03,-2.46,0.14,0.68,0.83,
1.951,0.24,-1.03,-2.46,0.14,0.68,0.82,
1.951,0.24,-1.03,-2.46,0.13,0.68,0.82,
1.952,0.29,-0.93,-2.77,0.13,0.68,0.82,
1.952,0.29,-0.93,-2.77,0.12,0.68,0.81,
1.952,0.29,-0.93,-2.77,0.11,0.66,0.80,
1.953,0.29,-0.93,-2.77,0.11,0.66,0.80,
1.959,0.29,-0.93,-2.77,0.10,0.65,0.79,
1.96,0.29,-0.93,-2.77,0.10,0.63,0.78,
1.96,0.34,-0.82,-2.96,0.10,0.63,0.78,
1.961,0.34,-0.82,-2.96,0.09,0.61,0.78,
1.961,0.34,-0.82,-2.96,0.08,0.59,0.76,
1.962,0.34,-0.82,-2.96,0.08,0.58,0.76,
1.965,0.34,-0.82,-2.96,0.07,0.56,0.75,
1.969,0.34,-0.82,-2.96,0.06,0.54,0.75,
1.969,0.32,-0.66,-3.00,0.06,0.54,0.75,
1.969,0.32,-0.66,-3.00,0.06,0.52,0.74,
1.972,0.32,-0.66,-3.00,0.05,0.48,0.73,
1.973,0.32,-0.66,-3.00,0.05,0.47,0.73,
1.975,0.32,-0.66,-3.00,0.04,0.45,0.72,
1.976,0.32,-0.66,-3.00,0.03,0.43,0.72,
1.979,0.32,-0.53,-2.83,0.03,0.43,0.72,
1.979,0.32,-0.53,-2.83,0.03,0.41,0.71,
1.982,0.32,-0.53,-2.83,0.02,0.38,0.70,
1.984,0.32,-0.53,-2.83,0.02,0.37,0.70,
1.985,0.32,-0.53,-2.83,0.02,0.36,0.69,
1.987,0.32,-0.53,-2.83,0.02,0.34,0.69,
1.991,0.37,-0.50,-2.43,0.02,0.34,0.69,
1.991,0.37,-0.50,-2.43,0.02,0.33,0.69,
1.991,0.37,-0.50,-2.43,0.02,0.31,0.68,
1.995,0.37,-0.50,-2.43,0.02,0.30,0.68,
1.995,0.37,-0.50,-2.43,0.02,0.29,0.68,
1.996,0.37,-0.50,-2.43,0.02,0.28,0.67,
1.999,0.45,-0.43,-1.84,0.02,0.28,0.67,
2.001,0.45,-0.43,-1.84,0.02,0.27,0.67,
2.003,0.45,-0.43,-1.84,0.03,0.26,0.67,
2.003,0.45,-0.43,-1.84,0.03,0.26,0.66,
2.004,0.45,-0.43,-1.84,0.04,0.26,0.66,
2.007,0.45,-0.43,-1.84,0.05,0.26,0.66,
2.009,0.50,-0.30,-1.08,0.05,0.26,0.66,
2.009,0.50,-0.30,-1.08,0.06,0.27,0.65,
2.011,0.50,-0.30,-1.08,0.09,0.28,0.65,
2.013,0.50,-0.30,-1.08,0.10,0.28,0.65,
2.026,0.50,-0.30,-1.08,0.11,0.29,0.64,
2.027,0.50,-0.30,-1.08,0.13,0.30,0.64,
2.027,0.56,-0.31,-0.32,0.13,0.30,0.64,
2.027,0.56,-0.31,-0.32,0.15,0.32,0.64,
2.028,0.56,-0.31,-0.32,0.18,0.34,0.64,
2.028,0.56,-0.31,-0.32,0.19,0.35,0.64,
2.028,0.56,-0.31,-0.32,0.21,0.36,0.63,
2.028,0.56,-0.31,-0.32,0.23,0.38,0.63,
2.03,0.67,-0.28,0.22,0.23,0.38,0.63,
2.03,0.67,-0.28,0.22,0.25,0.40,0.63,
2.052,0.67,-0.28,0.22,0.28,0.42,0.63,
2.053,0.67,-0.28,0.22,0.29,0.43,0.62,
2.053,0.67,-0.28,0.22,0.31,0.44,0.62,
2.054,0.67,-0.28,0.22,0.32,0.45,0.62,
2.055,0.80,-0.14,0.51,0.32,0.45,0.62,
2.055,0.80,-0.14,0.51,0.34,0.46,0.62,
2.055,0.80,-0.14,0.51,0.36,0.47,0.61,
2.056,0.80,-0.14,0.51,0.37,0.48,0.61,
2.057,0.80,-0.14,0.51,0.38,0.48,0.61,
2.057,0.80,-0.14,0.51,0.39,0.49,0.60,
2.057,0.91,-0.05,0.57,0.39,0.49,0.60,
2.058,0.91,-0.05,0.57,0.40,0.49,0.60,
2.059,0.91,-0.05,0.57,0.41,0.49,0.59,
2.059,0.91,-0.05,0.57,0.41,0.49,0.58,
2.06,0.91,-0.05,0.57,0.42,0.48,0.58,
2.06,0.91,-0.05,0.57,0.42,0.47,0.57,
2.061,1.13,-0.05,0.58,0.42,0.47,0.57,
2.061,1.13,-0.05,0.58,0.43,0.47,0.57,
2.064,1.13,-0.05,0.58,0.43,0.45,0.56,
2.064,1.13,-0.05,0.58,0.43,0.44,0.56,
2.065,1.13,-0.05,0.58,0.43,0.43,0.55,
2.07,1.13,-0.05,0.58,0.43,0.42,0.55,
2.071,1.19,0.00,0.65,0.43,0.42,0.55,
2.071,1.19,0.00,0.65,0.43,0.41,0.54,
2.074,1.19,0.00,0.65,0.43,0.39,0.54,
2.075,1.19,0.00,0.65,0.43,0.38,0.54,
2.075,1.19,0.00,0.65,0.43,0.37,0.53,
2.077,1.19,0.00,0.65,0.43,0.35,0.53,
2.079,1.36,0.04,0.84,0.43,0.35,0.53,
2.08,1.36,0.04,0.84,0.43,0.33,0.53,
2.083,1.36,0.04,0.84,0.43,0.30,0.52,
2.085,1.36,0.04,0.84,0.43,0.29,0.52,
2.085,1.36,0.04,0.84,0.43,0.27,0.51,
2.088,1.36,0.04,0.84,0.42,0.25,0.51,
2.09,1.45,0.16,1.11,0.42,0.25,0.51,
2.09,1.45,0.16,1.11,0.42,0.22,0.51,
2.11,1.45,0.16,1.11,0.41,0.19,0.50,
2.11,1.45,0.16,1.11,0.41,0.17,0.49,
2.11,1.45,0.16,1.11,0.41,0.15,0.48,
2.111,1.45,0.16,1.11,0.40,0.12,0.48,
2.111,1.71,0.28,1.42,0.40,0.12,0.48,
2.112,1.71,0.28,1.42,0.40,0.10,0.47,
2.112,1.71,0.28,1.42,0.39,0.07,0.45,
2.113,1.71,0.28,1.42,0.39,0.06,0.44,
2.113,1.71,0.28,1.42,0.39,0.04,0.43,
2.114,1.71,0.28,1.42,0.38,0.02,0.42,
2.114,1.88,0.41,1.90,0.38,0.02,0.42,
2.114,1.88,0.41,1.90,0.39,0.01,0.41,
2.115,1.88,0.41,1.90,0.39,-0.01,0.39,
2.115,1.88,0.41,1.90,0.39,-0.01,0.39,
2.116,1.88,0.41,1.90,0.38,-0.02,0.38,
2.123,1.88,0.41,1.90,0.38,-0.03,0.37,
2.124,1.95,0.49,2.30,0.38,-0.03,0.37,
2.124,1.95,0.49,2.30,0.39,-0.03,0.36,
2.124,1.95,0.49,2.30,0.39,-0.04,0.35,
2.124,1.95,0.49,2.30,0.39,-0.04,0.35,
2.125,1.95,0.49,2.30,0.39,-0.04,0.34,
2.126,1.95,0.49,2.30,0.38,-0.03,0.34,
2.129,1.83,0.54,2.48,0.38,-0.03,0.34,
2.13,1.83,0.54,2.48,0.38,-0.03,0.33,
2.132,1.83,0.54,2.48,0.38,-0.03,0.33,
2.133,1.83,0.54,2.48,0.38,-0.02,0.33,
2.135,1.83,0.54,2.48,0.37,-0.01,0.33,
2.137,1.83,0.54,2.48,0.37,-0.01,0.32,
2.139,1.74,0.66,2.55,0.37,-0.01,0.32,
2.139,1.74,0.66,2.55,0.36,0.00,0.32,
2.142,1.74,0.66,2.55,0.36,0.02,0.32,
2.142,1.74,0.66,2.55,0.35,0.02,0.32,
2.145,1.74,0.66,2.55,0.35,0.03,0.32,
2.146,1.74,0.66,2.55,0.34,0.04,0.32,
2.154,1.67,0.78,2.43,0.34,0.04,0.32,
2.154,1.67,0.78,2.43,0.33,0.05,0.32,
2.154,1.67,0.78,2.43,0.32,0.07,0.32,
2.155,1.67,0.78,2.43,0.32,0.08,0.31,
2.155,1.67,0.78,2.43,0.31,0.09,0.31,
2.157,1.67,0.78,2.43,0.29,0.11,0.31,
2.159,1.75,0.84,2.12,0.29,0.11,0.31,
2.159,1.75,0.84,2.12,0.28,0.12,0.31,
2.19,1.75,0.84,2.12,0.25,0.14,0.30,
2.19,1.75,0.84,2.12,0.24,0.14,0.30,
2.191,1.75,0.84,2.12,0.22,0.15,0.29,
2.191,1.75,0.84,2.12,0.20,0.17,0.28,
2.191,1.88,0.96,1.67,0.20,0.17,0.28,
2.191,1.88,0.96,1.67,0.18,0.18,0.27,
2.192,1.88,0.96,1.67,0.14,0.20,0.24,
2.192,1.88,0.96,1.67,0.12,0.20,0.24,
2.192,1.88,0.96,1.67,0.09,0.21,0.22,
2.192,1.88,0.96,1.67,0.06,0.22,0.21,
2.192,2.12,1.09,1.20,0.06,0.22,0.21,
2.193,2.12,1.09,1.20,0.03,0.22,0.19,
2.193,2.12,1.09,1.20,-0.02,0.23,0.16,
2.193,2.12,1.09,1.20,-0.04,0.23,0.15,
2.193,2.12,1.09,1.20,-0.08,0.23,0.13,
2.194,2.12,1.09,1.20,-0.12,0.22,0.11,
2.194,2.19,1.04,0.78,-0.12,0.22,0.11,
2.194,2.19,1.04,0.78,-0.16,0.21,0.09,
2.194,2.19,1.04,0.78,-0.22,0.20,0.05,
2.195,2.19,1.04,0.78,-0.23,0.20,0.04,
2.195,2.19,1.04,0.78,-0.26,0.19,0.02,
2.204,2.19,1.04,0.78,-0.30,0.19,-0.00,
2.205,2.32,0.96,0.87,-0.30,0.19,-0.00,
2.205,2.32,0.96,0.87,-0.32,0.19,-0.02,
2.205,2.32,0.96,0.87,-0.35,0.20,-0.06,
2.205,2.32,0.96,0.87,-0.36,0.20,-0.07,
2.205,2.32,0.96,0.87,-0.37,0.21,-0.09,
2.222,2.32,0.96,0.87,-0.37,0.22,-0.11,
2.222,2.18,0.83,1.45,-0.37,0.22,-0.11,
2.223,2.18,0.83,1.45,-0.38,0.24,-0.13,
2.223,2.18,0.83,1.45,-0.38,0.25,-0.16,
2.223,2.18,0.83,1.45,-0.38,0.26,-0.17,
2.224,2.18,0.83,1.45,-0.38,0.27,-0.19,
2.224,2.18,0.83,1.45,-0.38,0.28,-0.20,
2.224,1.86,0.69,1.71,-0.38,0.28,-0.20,
2.225,1.86,0.69,1.71,-0.38,0.28,-0.21,
2.225,1.86,0.69,1.71,-0.38,0.29,-0.23,
2.225,1.86,0.69,1.71,-0.38,0.29,-0.23,
2.226,1.86,0.69,1.71,-0.39,0.29,-0.24,
2.235,1.86,0.69,1.71,-0.40,0.29,-0.25,
2.235,1.39,0.61,1.41,-0.40,0.29,-0.25,
2.235,1.39,0.61,1.41,-0.42,0.29,-0.25,
2.236,1.39,0.61,1.41,-0.45,0.28,-0.26,
2.236,1.39,0.61,1.41,-0.46,0.28,-0.26,
2.236,1.39,0.61,1.41,-0.47,0.27,-0.27,
2.255,1.39,0.61,1.41,-0.50,0.26,-0.27,
2.255,1.15,0.55,0.99,-0.50,0.26,-0.27,
2.256,1.15,0.55,0.99,-0.51,0.24,-0.27,
2.256,1.15,0.55,0.99,-0.55,0.21,-0.28,
2.257,1.15,0.55,0.99,-0.57,0.20,-0.28,
2.257,1.15,0.55,0.99,-0.59,0.17,-0.28,
2.257,1.15,0.55,0.99,-0.62,0.14,-0.28,
2.258,0.96,0.50,0.79,-0.62,0.14,-0.28,
2.258,0.96,0.50,0.79,-0.65,0.11,-0.28,
2.258,0.96,0.50,0.79,-0.69,0.07,-0.29,
2.259,0.96,0.50,0.79,-0.70,0.05,-0.29,
2.259,0.96,0.50,0.79,-0.73,0.03,-0.29,
2.259,0.96,0.50,0.79,-0.75,0.00,-0.30,
2.293,0.98,0.54,1.10,-0.75,0.00,-0.30,
2.293,0.98,0.54,1.10,-0.77,-0.02,-0.31,
2.293,0.98,0.54,1.10,-0.80,-0.04,-0.31,
2.294,0.98,0.54,1.10,-0.80,-0.05,-0.32,
2.294,0.98,0.54,1.10,-0.82,-0.06,-0.33,
2.294,0.98,0.54,1.10,-0.82,-0.07,-0.33,
2.295,1.07,0.42,1.90,-0.82,-0.07,-0.33,
2.295,1.07,0.42,1.90,-0.82,-0.07,-0.33,
2.295,1.07,0.42,1.90,-0.82,-0.07,-0.35,
2.295,1.07,0.42,1.90,-0.82,-0.07,-0.35,
2.296,1.07,0.42,1.90,-0.80,-0.06,-0.35,
2.296,1.07,0.42,1.90,-0.78,-0.04,-0.36,
2.296,1.19,0.29,2.95,-0.78,-0.04,-0.36,
2.296,1.19,0.29,2.95,-0.77,-0.03,-0.36,
2.297,1.19,0.29,2.95,-0.73,0.01,-0.37,
2.297,1.19,0.29,2.95,-0.71,0.02,-0.38,
2.297,1.19,0.29,2.95,-0.67,0.06,-0.38,
2.297,1.19,0.29,2.95,-0.63,0.09,-0.39,
2.298,1.19,0.16,3.87,-0.63,0.09,-0.39,
2.298,1.19,0.16,3.87,-0.58,0.13,-0.39,
2.298,1.19,0.16,3.87,-0.50,0.22,-0.40,
2.298,1.19,0.16,3.87,-0.47,0.24,-0.40,
2.299,1.19,0.16,3.87,-0.44,0.26,-0.40,
2.299,1.19,0.16,3.87,-0.40,0.30,-0.40,
2.299,1.19,-0.10,4.21,-0.40,0.30,-0.40,
2.3,1.19,-0.10,4.21,-0.34,0.34,-0.40,
2.307,1.19,-0.10,4.21,-0.27,0.39,-0.40,
2.308,1.19,-0.10,4.21,-0.24,0.41,-0.40,
2.308,1.19,-0.10,4.21,-0.19,0.44,-0.39,
2.309,1.19,-0.10,4.21,-0.14,0.46,-0.39,
2.309,0.86,-0.29,3.74,-0.14,0.46,-0.39,
2.31,0.86,-0.29,3.74,-0.10,0.49,-0.38,
2.313,0.86,-0.29,3.74,-0.03,0.51,-0.36,
2.313,0.86,-0.29,3.74,-0.02,0.52,-0.36,
2.318,0.86,-0.29,3.74,0.02,0.52,-0.34,
2.319,0.86,-0.29,3.74,0.06,0.53,-0.33,
2.319,0.46,-0.35,2.79,0.06,0.53,-0.33,
2.32,0.46,-0.35,2.79,0.09,0.53,-0.31,
2.321,0.46,-0.35,2.79,0.14,0.51,-0.28,
2.323,0.46,-0.35,2.79,0.15,0.51,-0.28,
2.325,0.46,-0.35,2.79,0.17,0.48,-0.26,
2.327,0.46,-0.35,2.79,0.20,0.46,-0.24,
2.329,0.20,-0.42,1.73,0.20,0.46,-0.24,
2.329,0.20,-0.42,1.73,0.22,0.43,-0.22,
2.341,0.20,-0.42,1.73,0.25,0.38,-0.19,
2.342,0.20,-0.42,1.73,0.26,0.37,-0.18,
2.342,0.20,-0.42,1.73,0.27,0.33,-0.16,
2.342,0.20,-0.42,1.73,0.28,0.29,-0.13,
2.343,0.09,-0.45,0.84,0.28,0.29,-0.13,
2.343,0.09,-0.45,0.84,0.30,0.25,-0.11,
2.343,0.09,-0.45,0.84,0.32,0.18,-0.08,
2.344,0.09,-0.45,0.84,0.32,0.16,-0.06,
2.345,0.09,-0.45,0.84,0.33,0.12,-0.04,
2.376,0.09,-0.45,0.84,0.34,0.08,-0.02,
2.377,0.13,-0.50,0.24,0.34,0.08,-0.02,
2.377,0.13,-0.50,0.24,0.35,0.04,0.00,
2.377,0.13,-0.50,0.24,0.36,-0.01,0.03,
2.377,0.13,-0.50,0.24,0.36,-0.02,0.04,
2.378,0.13,-0.50,0.24,0.37,-0.05,0.06,
2.378,0.13,-0.50,0.24,0.38,-0.08,0.08,
2.379,0.44,-0.59,-0.05,0.38,-0.08,0.08,
2.38,0.44,-0.59,-0.05,0.39,-0.10,0.09,
2.38,0.44,-0.59,-0.05,0.41,-0.13,0.11,
2.381,0.44,-0.59,-0.05,0.41,-0.14,0.11,
2.383,0.44,-0.59,-0.05,0.42,-0.16,0.12,
2.387,0.44,-0.59,-0.05,0.44,-0.17,0.13,
2.39,0.99,-0.71,-0.14,0.44,-0.17,0.13,
2.391,0.99,-0.71,-0.14,0.45,-0.19,0.14,
2.392,0.99,-0.71,-0.14,0.47,-0.21,0.15,
2.393,0.99,-0.71,-0.14,0.48,-0.21,0.15,
2.394,0.99,-0.71,-0.14,0.49,-0.23,0.15,
2.395,0.99,-0.71,-0.14,0.51,-0.24,0.16,
2.395,1.41,-0.77,-0.22,0.51,-0.24,0.16,
2.396,1.41,-0.77,-0.22,0.53,-0.24,0.16,
2.396,1.41,-0.77,-0.22,0.55,-0.25,0.16,
2.397,1.41,-0.77,-0.22,0.56,-0.26,0.16,
2.399,1.41,-0.77,-0.22,0.58,-0.26,0.16,
2.402,1.41,-0.77,-0.22,0.59,-0.26,0.15,
2.403,1.77,-0.81,-0.48,0.59,-0.26,0.15,
2.403,1.77,-0.81,-0.48,0.61,-0.26,0.15,
2.403,1.77,-0.81,-0.48,0.63,-0.27,0.14,
2.404,1.77,-0.81,-0.48,0.63,-0.27,0.14,
2.404,1.77,-0.81,-0.48,0.65,-0.27,0.13,
2.405,1.77,-0.81,-0.48,0.66,-0.27,0.12,
2.405,2.20,-0.92,-0.92,0.66,-0.27,0.12,
2.405,2.20,-0.92,-0.92,0.66,-0.27,0.11,
2.406,2.20,-0.92,-0.92,0.68,-0.26,0.09,
2.406,2.20,-0.92,-0.92,0.68,-0.26,0.08,
2.406,2.20,-0.92,-0.92,0.68,-0.26,0.07,
2.407,2.20,-0.92,-0.92,0.69,-0.26,0.06,
2.423,2.36,-0.94,-1.50,0.69,-0.26,0.06,
2.424,2.36,-0.94,-1.50,0.69,-0.26,0.04,
2.424,2.36,-0.94,-1.50,0.69,-0.25,0.01,
2.424,2.36,-0.94,-1.50,0.69,-0.25,0.00,
2.424,2.36,-0.94,-1.50,0.69,-0.25,-0.01,
2.425,2.36,-0.94,-1.50,0.69,-0.25,-0.03,
2.425,2.62,-0.92,-2.10,0.69,-0.25,-0.03,
2.425,2.62,-0.92,-2.10,0.69,-0.25,-0.05,
2.425,2.62,-0.92,-2.10,0.68,-0.24,-0.08,
2.425,2.62,-0.92,-2.10,0.68,-0.24,-0.10,
2.445,2.62,-0.92,-2.10,0.68,-0.23,-0.12,
2.445,2.62,-0.92,-2.10,0.67,-0.23,-0.14,
2.446,2.62,-0.92,-2.70,0.67,-0.23,-0.14,
2.446,2.62,-0.92,-2.70,0.66,-0.23,-0.16,
2.446,2.62,-0.92,-2.70,0.65,-0.22,-0.20,
2.447,2.62,-0.92,-2.70,0.64,-0.22,-0.22,
2.447,2.62,-0.92,-2.70,0.62,-0.21,-0.24,
2.447,2.62,-0.92,-2.70,0.61,-0.21,-0.26,
2.447,2.60,-0.95,-3.34,0.61,-0.21,-0.26,
2.448,2.60,-0.95,-3.34,0.56,-0.19,-0.32,
2.448,2.60,-0.95,-3.34,0.55,-0.19,-0.33,
2.448,2.60,-0.95,-3.34,0.55,-0.19,-0.33,
2.448,2.60,-0.95,-3.34,0.53,-0.17,-0.36,
2.449,2.60,-0.95,-3.34,0.51,-0.16,-0.38,
2.449,2.36,-0.97,-3.94,0.51,-0.16,-0.38,
2.449,2.36,-0.97,-3.94,0.48,-0.15,-0.40,
2.456,2.36,-0.97,-3.94,0.44,-0.14,-0.44,
2.457,2.36,-0.97,-3.94,0.43,-0.13,-0.45,
2.457,2.36,-0.97,-3.94,0.40,-0.12,-0.47,
2.457,2.36,-0.97,-3.94,0.37,-0.10,-0.50,
2.459,2.21,-0.99,-4.42,0.37,-0.10,-0.50,
2.459,2.21,-0.99,-4.42,0.34,-0.09,-0.52,
2.462,2.21,-0.99,-4.42,0.30,-0.06,-0.55,
2.472,2.21,-0.99,-4.42,0.28,-0.06,-0.56,
2.472,2.21,-0.99,-4.42,0.26,-0.04,-0.58,
2.473,2.21,-0.99,-4.42,0.23,-0.02,-0.60,
2.473,1.82,-1.10,-4.74,0.23,-0.02,-0.60,
2.473,1.82,-1.10,-4.74,0.20,-0.01,-0.61,
2.473,1.82,-1.10,-4.74,0.16,0.01,-0.64,
2.474,1.82,-1.10,-4.74,0.15,0.02,-0.64,
2.476,1.82,-1.10,-4.74,0.12,0.03,-0.66,
2.478,1.82,-1.10,-4.74,0.09,0.04,-0.67,
2.503,1.48,-1.17,-4.89,0.09,0.04,-0.67,
2.504,1.48,-1.17,-4.89,0.07,0.06,-0.68,
2.504,1.48,-1.17,-4.89,0.04,0.07,-0.69,
2.504,1.48,-1.17,-4.89,0.02,0.08,-0.69,
2.504,1.48,-1.17,-4.89,0.00,0.09,-0.69,
2.505,1.48,-1.17,-4.89,-0.02,0.10,-0.70,
2.505,1.00,-1.16,-4.83,-0.02,0.10,-0.70,
2.505,1.00,-1.16,-4.83,-0.04,0.11,-0.70,
2.505,1.00,-1.16,-4.83,-0.06,0.12,-0.70,
2.506,1.00,-1.16,-4.83,-0.07,0.12,-0.70,
2.506,1.00,-1.16,-4.83,-0.08,0.12,-0.70,
2.506,1.00,-1.16,-4.83,-0.10,0.12,-0.69,
2.506,0.70,-1.15,-4.61,-0.10,0.12,-0.69,
2.507,0.70,-1.15,-4.61,-0.10,0.11,-0.69,
2.507,0.70,-1.15,-4.61,-0.12,0.10,-0.68,
2.507,0.70,-1.15,-4.61,-0.12,0.09,-0.68,
2.507,0.70,-1.15,-4.61,-0.12,0.08,-0.68,
2.507,0.70,-1.15,-4.61,-0.12,0.07,-0.67,
2.511,0.47,-1.09,-4.18,-0.12,0.07,-0.67,
2.511,0.47,-1.09,-4.18,-0.12,0.05,-0.67,
2.516,0.47,-1.09,-4.18,-0.11,0.02,-0.66,
2.516,0.47,-1.09,-4.18,-0.10,0.01,-0.65,
2.516,0.47,-1.09,-4.18,-0.09,-0.01,-0.65,
2.517,0.47,-1.09,-4.18,-0.08,-0.04,-0.64,
2.519,0.42,-0.96,-3.63,-0.08,-0.04,-0.64,
2.519,0.42,-0.96,-3.63,-0.07,-0.06,-0.64,
2.522,0.42,-0.96,-3.63,-0.05,-0.10,-0.63,
2.522,0.42,-0.96,-3.63,-0.03,-0.12,-0.63,
2.525,0.42,-0.96,-3.63,-0.02,-0.15,-0.63,
2.527,0.42,-0.96,-3.63,0.00,-0.17,-0.63,
2.534,0.51,-0.86,-3.14,0.00,-0.17,-0.63,
2.535,0.51,-0.86,-3.14,0.03,-0.20,-0.63,
2.539,0.51,-0.86,-3.14,0.06,-0.25,-0.63,
2.539,0.51,-0.86,-3.14,0.06,-0.26,-0.63,
2.539,0.51,-0.86,-3.14,0.08,-0.29,-0.63,
2.539,0.51,-0.86,-3.14,0.10,-0.31,-0.63,
2.539,0.60,-0.78,-2.81,0.10,-0.31,-0.63,
2.539,0.60,-0.78,-2.81,0.12,-0.34,-0.63,
2.542,0.60,-0.78,-2.81,0.15,-0.38,-0.63,
2.543,0.60,-0.78,-2.81,0.17,-0.39,-0.63,
2.559,0.60,-0.78,-2.81,0.18,-0.42,-0.64,
2.56,0.60,-0.78,-2.81,0.20,-0.44,-0.64,
2.56,0.67,-0.70,-2.57,0.20,-0.44,-0.64,
2.56,0.67,-0.70,-2.57,0.22,-0.46,-0.64,
2.56,0.67,-0.70,-2.57,0.24,-0.49,-0.65,
2.56,0.67,-0.70,-2.57,0.24,-0.50,-0.66,
2.56,0.67,-0.70,-2.57,0.25,-0.52,-0.66,
2.561,0.67,-0.70,-2.57,0.26,-0.54,-0.67,
2.561,0.75,-0.58,-2.46,0.26,-0.54,-0.67,
2.561,0.75,-0.58,-2.46,0.27,-0.56,-0.68,
2.562,0.75,-0.58,-2.46,0.28,-0.59,-0.69,
2.565,0.75,-0.58,-2.46,0.28,-0.60,-0.70,
2.565,0.75,-0.58,-2.46,0.28,-0.62,-0.71,
2.567,0.75,-0.58,-2.46,0.28,-0.64,-0.72,
2.568,0.64,-0.46,-2.34,0.28,-0.64,-0.72,
2.569,0.64,-0.46,-2.34,0.29,-0.65,-0.73,
2.571,0.64,-0.46,-2.34,0.29,-0.67,-0.74,
2.573,0.64,-0.46,-2.34,0.29,-0.68,-0.75,
2.574,0.64,-0.46,-2.34,0.29,-0.70,-0.75,
2.576,0.64,-0.46,-2.34,0.29,-0.71,-0.76,
2.579,0.42,-0.39,-2.13,0.29,-0.71,-0.76,
2.58,0.42,-0.39,-2.13,0.29,-0.73,-0.77,
2.583,0.42,-0.39,-2.13,0.28,-0.74,-0.77,
2.583,0.42,-0.39,-2.13,0.28,-0.75,-0.78,
2.585,0.42,-0.39,-2.13,0.28,-0.75,-0.78,
2.587,0.42,-0.39,-2.13,0.27,-0.76,-0.78,
2.589,0.04,-0.29,-1.83,0.27,-0.76,-0.78,
2.589,0.04,-0.29,-1.83,0.27,-0.76,-0.77,
2.606,0.04,-0.29,-1.83,0.26,-0.77,-0.77,
2.606,0.04,-0.29,-1.83,0.26,-0.77,-0.77,
2.606,0.04,-0.29,-1.83,0.25,-0.77,-0.77,
2.607,0.04,-0.29,-1.83,0.25,-0.76,-0.76,
2.607,-0.12,-0.18,-1.52,0.25,-0.76,-0.76,
2.607,-0.12,-0.18,-1.52,0.24,-0.77,-0.76,
2.607,-0.12,-0.18,-1.52,0.23,-0.77,-0.76,
2.607,-0.12,-0.18,-1.52,0.22,-0.77,-0.77,
2.608,-0.12,-0.18,-1.52,0.22,-0.78,-0.77,
2.608,-0.12,-0.18,-1.52,0.21,-0.79,-0.78,
2.612,-0.06,-0.08,-1.16,0.21,-0.79,-0.78,
2.612,-0.06,-0.08,-1.16,0.20,-0.80,-0.78,
2.612,-0.06,-0.08,-1.16,0.19,-0.82,-0.79,
2.613,-0.06,-0.08,-1.16,0.19,-0.82,-0.79,
2.615,-0.06,-0.08,-1.16,0.19,-0.83,-0.80,
2.618,-0.06,-0.08,-1.16,0.18,-0.83,-0.81,
2.619,0.02,0.21,-0.57,0.18,-0.83,-0.81,
2.619,0.02,0.21,-0.57,0.18,-0.84,-0.82,
2.621,0.02,0.21,-0.57,0.18,-0.84,-0.84,
2.622,0.02,0.21,-0.57,0.18,-0.84,-0.84,
2.624,0.02,0.21,-0.57,0.17,-0.85,-0.86,
2.627,0.02,0.21,-0.57,0.18,-0.85,-0.88,
2.629,0.18,0.44,-0.04,0.18,-0.85,-0.88,
2.63,0.18,0.44,-0.04,0.17,-0.86,-0.90,
2.632,0.18,0.44,-0.04,0.17,-0.86,-0.93,
2.634,0.18,0.44,-0.04,0.17,-0.86,-0.94,
2.635,0.18,0.44,-0.04,0.17,-0.87,-0.96,
2.636,0.18,0.44,-0.04,0.16,-0.87,-0.97,
2.638,0.08,0.58,0.29,0.16,-0.87,-0.97,
2.639,0.08,0.58,0.29,0.15,-0.88,-0.99,
2.641,0.08,0.58,0.29,0.15,-0.88,-1.02,
2.642,0.08,0.58,0.29,0.14,-0.89,-1.03,
2.646,0.08,0.58,0.29,0.13,-0.89,-1.04,
2.647,0.08,0.58,0.29,0.12,-0.90,-1.05,
2.649,-0.34,0.75,0.41,0.12,-0.90,-1.05,
2.649,-0.34,0.75,0.41,0.11,-0.90,-1.06,
2.652,-0.34,0.75,0.41,0.08,-0.91,-1.07,
2.653,-0.34,0.75,0.41,0.07,-0.91,-1.08,
2.655,-0.34,0.75,0.41,0.05,-0.91,-1.08,
2.656,-0.34,0.75,0.41,0.02,-0.91,-1.09,
2.659,-0.88,0.95,0.27,0.02,-0.91,-1.09,
2.659,-0.88,0.95,0.27,-0.01,-0.91,-1.09,
2.663,-0.88,0.95,0.27,-0.07,-0.90,-1.10,
2.663,-0.88,0.95,0.27,-0.09,-0.90,-1.11,
2.665,-0.88,0.95,0.27,-0.14,-0.89,-1.11,
2.667,-0.88,0.95,0.27,-0.18,-0.89,-1.11,
2.669,-1.17,1.08,0.18,-0.18,-0.89,-1.11,
2.669,-1.17,1.08,0.18,-0.23,-0.88,-1.12,
2.672,-1.17,1.08,0.18,-0.30,-0.86,-1.12,
2.673,-1.17,1.08,0.18,-0.33,-0.86,-1.12,
2.675,-1.17,1.08,0.18,-0.37,-0.85,-1.12,
2.676,-1.17,1.08,0.18,-0.43,-0.84,-1.13,
2.686,-1.34,1.15,0.42,-0.43,-0.84,-1.13,
2.687,-1.34,1.15,0.42,-0.48,-0.83,-1.13,
2.687,-1.34,1.15,0.42,-0.55,-0.80,-1.13,
2.687,-1.34,1.15,0.42,-0.57,-0.79,-1.13,
2.688,-1.34,1.15,0.42,-0.62,-0.78,-1.13,
2.688,-1.34,1.15,0.42,-0.66,-0.75,-1.13,
2.689,-1.48,1.31,1.19,-0.66,-0.75,-1.13,
2.689,-1.48,1.31,1.19,-0.70,-0.72,-1.13,
2.716,-1.48,1.31,1.19,-0.75,-0.67,-1.13,
2.716,-1.48,1.31,1.19,-0.77,-0.66,-1.13,
2.717,-1.48,1.31,1.19,-0.79,-0.62,-1.13,
2.717,-1.48,1.31,1.19,-0.82,-0.58,-1.14,
2.717,-1.51,1.36,2.28,-0.82,-0.58,-1.14,
2.717,-1.51,1.36,2.28,-0.84,-0.54,-1.14,
2.717,-1.51,1.36,2.28,-0.86,-0.47,-1.14,
2.718,-1.51,1.36,2.28,-0.87,-0.45,-1.14,
2.718,-1.51,1.36,2.28,-0.88,-0.40,-1.15,
2.718,-1.51,1.36,2.28,-0.88,-0.35,-1.15,
2.718,-1.45,1.36,3.36,-0.88,-0.35,-1.15,
2.718,-1.45,1.36,3.36,-0.89,-0.31,-1.15,
2.719,-1.45,1.36,3.36,-0.89,-0.24,-1.15,
2.719,-1.45,1.36,3.36,-0.88,-0.22,-1.15,
2.719,-1.45,1.36,3.36,-0.87,-0.17,-1.15,
2.719,-1.45,1.36,3.36,-0.86,-0.13,-1.15,
2.719,-1.70,1.32,4.19,-0.86,-0.13,-1.15,
2.719,-1.70,1.32,4.19,-0.85,-0.08,-1.14,
2.722,-1.70,1.32,4.19,-0.83,-0.01,-1.13,
2.723,-1.70,1.32,4.19,-0.82,0.01,-1.13,
2.725,-1.70,1.32,4.19,-0.80,0.06,-1.12,
2.727,-1.70,1.32,4.19,-0.78,0.10,-1.11,
2.729,-2.08,1.27,4.62,-0.78,0.10,-1.11,
2.73,-2.08,1.27,4.62,-0.75,0.15,-1.09,
2.734,-2.08,1.27,4.62,-0.72,0.21,-1.07,
2.735,-2.08,1.27,4.62,-0.71,0.23,-1.06,
2.735,-2.08,1.27,4.62,-0.68,0.27,-1.03,
2.737,-2.08,1.27,4.62,-0.66,0.31,-1.01,
2.739,-2.63,1.15,4.66,-0.66,0.31,-1.01,
2.739,-2.63,1.15,4.66,-0.63,0.34,-0.98,
2.742,-2.63,1.15,4.66,-0.59,0.39,-0.94,
2.743,-2.63,1.15,4.66,-0.57,0.40,-0.92,
2.751,-2.63,1.15,4.66,-0.54,0.42,-0.89,
2.752,-2.63,1.15,4.66,-0.52,0.44,-0.85,
2.752,-2.99,1.08,4.29,-0.52,0.44,-0.85,
2.753,-2.99,1.08,4.29,-0.49,0.46,-0.82,
2.753,-2.99,1.08,4.29,-0.46,0.47,-0.77,
2.754,-2.99,1.08,4.29,-0.45,0.48,-0.75,
2.755,-2.99,1.08,4.29,-0.43,0.48,-0.72,
2.757,-2.99,1.08,4.29,-0.40,0.48,-0.68,
2.805,-3.20,1.08,3.78,-0.40,0.48,-0.68,
2.807,-3.20,1.08,3.78,-0.38,0.48,-0.66,
2.808,-3.20,1.08,3.78,-0.33,0.47,-0.60,
2.809,-3.20,1.08,3.78,-0.32,0.46,-0.58,
2.811,-3.20,1.08,3.78,-0.31,0.46,-0.57,
2.812,-3.20,1.08,3.78,-0.29,0.45,-0.54,
2.814,-3.16,1.11,3.30,-0.29,0.45,-0.54,
2.815,-3.16,1.11,3.30,-0.26,0.43,-0.51,
2.816,-3.16,1.11,3.30,-0.23,0.41,-0.47,
2.817,-3.16,1.11,3.30,-0.22,0.40,-0.45,
2.817,-3.16,1.11,3.30,-0.19,0.38,-0.42,
2.818,-3.16,1.11,3.30,-0.17,0.36,-0.39,
2.819,-3.28,1.14,2.84,-0.17,0.36,-0.39,
2.82,-3.28,1.14,2.84,-0.15,0.34,-0.36,
2.821,-3.28,1.14,2.84,-0.12,0.31,-0.31,
2.821,-3.28,1.14,2.84,-0.10,0.28,-0.29,
2.822,-3.28,1.14,2.84,-0.10,0.27,-0.27,
2.823,-3.28,1.14,2.84,-0.09,0.24,-0.24,
2.823,-3.28,1.09,2.16,-0.09,0.24,-0.24,
2.824,-3.28,1.09,2.16,-0.08,0.21,-0.21,
2.824,-3.28,1.09,2.16,-0.08,0.17,-0.16,
2.825,-3.28,1.09,2.16,-0.08,0.15,-0.15,
2.825,-3.28,1.09,2.16,-0.09,0.12,-0.12,
2.825,-3.28,1.09,2.16,-0.10,0.09,-0.10,
2.826,-3.24,1.15,1.42,-0.10,0.09,-0.10,
2.826,-3.24,1.15,1.42,-0.11,0.05,-0.07,
2.826,-3.24,1.15,1.42,-0.13,0.00,-0.04,
2.827,-3.24,1.15,1.42,-0.15,-0.03,-0.02,
2.827,-3.24,1.15,1.42,-0.16,-0.05,-0.01,
2.828,-3.24,1.15,1.42,-0.18,-0.08,-0.00,
2.828,-2.69,1.24,0.93,-0.18,-0.08,-0.00,
2.828,-2.69,1.24,0.93,-0.21,-0.12,0.01,
2.829,-2.69,1.24,0.93,-0.25,-0.16,0.02,
2.829,-2.69,1.24,0.93,-0.26,-0.18,0.02,
2.829,-2.69,1.24,0.93,-0.29,-0.20,0.02,
2.83,-2.69,1.24,0.93,-0.31,-0.23,0.02,
2.83,-2.15,1.41,0.97,-0.31,-0.23,0.02,
2.83,-2.15,1.41,0.97,-0.34,-0.24,0.02,
2.831,-2.15,1.41,0.97,-0.38,-0.26,0.01,
2.831,-2.15,1.41,0.97,-0.38,-0.26,0.01,
2.831,-2.15,1.41,0.97,-0.40,-0.26,0.00,
2.832,-2.15,1.41,0.97,-0.42,-0.25,-0.00,
2.832,-1.77,1.44,1.48,-0.42,-0.25,-0.00,
2.833,-1.77,1.44,1.48,-0.44,-0.24,-0.01,
2.833,-1.77,1.44,1.48,-0.46,-0.21,-0.02,
2.833,-1.77,1.44,1.48,-0.46,-0.20,-0.02,
2.847,-1.77,1.44,1.48,-0.47,-0.17,-0.03,
2.847,-1.77,1.44,1.48,-0.48,-0.13,-0.04,
2.847,-1.61,1.32,2.12,-0.48,-0.13,-0.04,
2.848,-1.61,1.32,2.12,-0.49,-0.09,-0.04,
2.848,-1.61,1.32,2.12,-0.49,-0.01,-0.05,
2.848,-1.61,1.32,2.12,-0.49,0.02,-0.05,
2.848,-1.61,1.32,2.12,-0.48,0.08,-0.06,
2.849,-1.61,1.32,2.12,-0.48,0.14,-0.06,
2.849,-1.64,1.08,2.68,-0.48,0.14,-0.06,
2.849,-1.64,1.08,2.68,-0.47,0.20,-0.06,
2.852,-1.64,1.08,2.68,-0.46,0.30,-0.05,
2.853,-1.64,1.08,2.68,-0.45,0.33,-0.05,
2.855,-1.64,1.08,2.68,-0.44,0.40,-0.05,
2.857,-1.64,1.08,2.68,-0.42,0.46,-0.04,
2.859,-1.97,0.73,2.84,-0.42,0.46,-0.04,
2.859,-1.97,0.73,2.84,-0.41,0.52,-0.03,
2.862,-1.97,0.73,2.84,-0.38,0.62,-0.01,
2.864,-1.97,0.73,2.84,-0.38,0.65,0.00,
2.865,-1.97,0.73,2.84,-0.36,0.70,0.02,
2.867,-1.97,0.73,2.84,-0.34,0.75,0.03,
2.869,-2.39,0.51,2.52,-0.34,0.75,0.03,
2.869,-2.39,0.51,2.52,-0.33,0.80,0.05,
2.871,-2.39,0.51,2.52,-0.31,0.86,0.08,
2.873,-2.39,0.51,2.52,-0.29,0.89,0.09,
2.875,-2.39,0.51,2.52,-0.28,0.90,0.10,
2.876,-2.39,0.51,2.52,-0.27,0.93,0.12,
2.885,-2.70,0.37,1.81,-0.27,0.93,0.12,
2.886,-2.70,0.37,1.81,-0.27,0.94,0.14,
2.886,-2.70,0.37,1.81,-0.25,0.95,0.16,
2.886,-2.70,0.37,1.81,-0.24,0.96,0.17,
2.886,-2.70,0.37,1.81,-0.23,0.95,0.19,
2.887,-2.70,0.37,1.81,-0.21,0.95,0.21,
2.895,-2.83,0.32,1.12,-0.21,0.95,0.21,
2.896,-2.83,0.32,1.12,-0.20,0.93,0.23,
2.896,-2.83,0.32,1.12,-0.18,0.91,0.26,
2.919,-2.83,0.32,1.12,-0.17,0.89,0.27,
2.919,-2.83,0.32,1.12,-0.16,0.87,0.29,
2.92,-2.83,0.32,1.12,-0.14,0.84,0.31,
2.92,-3.04,0.25,0.57,-0.14,0.84,0.31,
2.92,-3.04,0.25,0.57,-0.13,0.81,0.33,
2.92,-3.04,0.25,0.57,-0.11,0.76,0.36,
2.92,-3.04,0.25,0.57,-0.11,0.74,0.37,
2.921,-3.04,0.25,0.57,-0.09,0.70,0.39,
2.921,-3.04,0.25,0.57,-0.07,0.66,0.42,
2.921,-3.07,0.18,0.17,-0.07,0.66,0.42,
2.921,-3.07,0.18,0.17,-0.06,0.62,0.44,
2.921,-3.07,0.18,0.17,-0.04,0.55,0.48,
2.922,-3.07,0.18,0.17,-0.03,0.53,0.49,
2.922,-3.07,0.18,0.17,-0.02,0.48,0.51,
2.922,-3.07,0.18,0.17,-0.01,0.43,0.54,
2.922,-3.11,0.08,-0.18,-0.01,0.43,0.54,
2.922,-3.11,0.08,-0.18,0.00,0.39,0.56,
2.922,-3.11,0.08,-0.18,0.02,0.32,0.59,
2.923,-3.11,0.08,-0.18,0.04,0.28,0.62,
2.946,-3.11,0.08,-0.18,0.04,0.26,0.63,
2.946,-3.11,0.08,-0.18,0.05,0.22,0.65,
2.946,-2.94,-0.01,-0.31,0.05,0.22,0.65,
2.947,-2.94,-0.01,-0.31,0.07,0.18,0.68,
2.947,-2.94,-0.01,-0.31,0.09,0.12,0.71,
2.947,-2.94,-0.01,-0.31,0.10,0.10,0.72,
2.947,-2.94,-0.01,-0.31,0.11,0.06,0.75,
2.948,-2.94,-0.01,-0.31,0.13,0.03,0.77,
2.948,-2.94,-0.01,-0.31,0.15,0.00,0.79,
2.948,-2.83,-0.11,-0.26,0.15,0.00,0.79,
2.948,-2.83,-0.11,-0.26,0.18,-0.04,0.83,
2.949,-2.83,-0.11,-0.26,0.20,-0.07,0.85,
2.949,-2.83,-0.11,-0.26,0.21,-0.08,0.86,
2.949,-2.83,-0.11,-0.26,0.23,-0.09,0.88,
2.95,-2.42,-0.18,-0.04,0.23,-0.09,0.88,
2.95,-2.42,-0.18,-0.04,0.25,-0.11,0.90,
2.957,-2.42,-0.18,-0.04,0.29,-0.14,0.93,
2.957,-2.42,-0.18,-0.04,0.30,-0.14,0.95,
2.957,-2.42,-0.18,-0.04,0.32,-0.15,0.96,
2.958,-2.42,-0.18,-0.04,0.34,-0.15,0.97,
2.962,-1.95,-0.24,0.01,0.34,-0.15,0.97,
2.963,-1.95,-0.24,0.01,0.35,-0.16,0.98,
2.963,-1.95,-0.24,0.01,0.38,-0.16,0.99,
2.963,-1.95,-0.24,0.01,0.40,-0.15,1.00,
2.964,-1.95,-0.24,0.01,0.41,-0.15,1.00,
2.969,-1.95,-0.24,0.01,0.42,-0.14,1.00,
2.969,-1.29,-0.25,-0.23,0.42,-0.14,1.00,
2.969,-1.29,-0.25,-0.23,0.43,-0.14,1.00,
2.973,-1.29,-0.25,-0.23,0.45,-0.12,1.00,
2.973,-1.29,-0.25,-0.23,0.45,-0.11,1.00,
2.977,-1.29,-0.25,-0.23,0.46,-0.10,1.00,
2.977,-1.29,-0.25,-0.23,0.46,-0.09,0.99,
2.988,-0.74,-0.23,-0.69,0.46,-0.09,0.99,
2.989,-0.74,-0.23,-0.69,0.47,-0.08,0.99,
2.989,-0.74,-0.23,-0.69,0.47,-0.06,0.97,
2.989,-0.74,-0.23,-0.69,0.47,-0.05,0.97,
2.989,-0.74,-0.23,-0.69,0.46,-0.04,0.96,
2.99,-0.74,-0.23,-0.69,0.46,-0.03,0.96,
2.99,-0.32,-0.23,-1.22,0.46,-0.03,0.96,
2.99,-0.32,-0.23,-1.22,0.46,-0.02,0.95,
3.019,-0.32,-0.23,-1.22,0.46,0.00,0.93,
3.02,-0.32,-0.23,-1.22,0.46,0.02,0.92,
3.02,-0.32,-0.23,-1.22,0.45,0.02,0.92,
3.021,-0.32,-0.23,-1.22,0.45,0.04,0.91,
3.021,-0.01,-0.21,-1.66,0.45,0.04,0.91,
3.021,-0.01,-0.21,-1.66,0.44,0.05,0.89,
3.021,-0.01,-0.21,-1.66,0.44,0.07,0.87,
3.021,-0.01,-0.21,-1.66,0.43,0.09,0.86,
3.022,-0.01,-0.21,-1.66,0.43,0.09,0.85,
3.022,-0.01,-0.21,-1.66,0.43,0.11,0.84,
3.022,0.26,-0.26,-2.12,0.43,0.11,0.84,
3.022,0.26,-0.26,-2.12,0.42,0.12,0.82,
3.023,0.26,-0.26,-2.12,0.41,0.13,0.79,
3.023,0.26,-0.26,-2.12,0.40,0.14,0.78,
3.023,0.26,-0.26,-2.12,0.40,0.15,0.77,
3.023,0.26,-0.26,-2.12,0.39,0.16,0.75,
3.023,0.41,-0.28,-2.58,0.39,0.16,0.75,
3.023,0.41,-0.28,-2.58,0.38,0.16,0.74,
3.024,0.41,-0.28,-2.58,0.36,0.17,0.71,
3.024,0.41,-0.28,-2.58,0.35,0.18,0.70,
3.027,0.41,-0.28,-2.58,0.35,0.18,0.69,
3.027,0.41,-0.28,-2.58,0.34,0.19,0.67,
3.033,0.43,-0.38,-2.99,0.34,0.19,0.67,
3.034,0.43,-0.38,-2.99,0.33,0.20,0.66,
3.034,0.43,-0.38,-2.99,0.31,0.21,0.64,
3.034,0.43,-0.38,-2.99,0.30,0.21,0.62,
3.035,0.43,-0.38,-2.99,0.29,0.21,0.62,
3.037,0.43,-0.38,-2.99,0.28,0.22,0.61,
3.039,0.36,-0.44,-3.33,0.28,0.22,0.61,
3.039,0.36,-0.44,-3.33,0.26,0.22,0.59,
3.041,0.36,-0.44,-3.33,0.24,0.22,0.58,
3.045,0.36,-0.44,-3.33,0.23,0.23,0.57,
3.045,0.36,-0.44,-3.33,0.22,0.23,0.57,
3.047,0.36,-0.44,-3.33,0.21,0.24,0.56,
3.049,0.26,-0.53,-3.52,0.21,0.24,0.56,
3.049,0.26,-0.53,-3.52,0.20,0.24,0.55,
3.051,0.26,-0.53,-3.52,0.18,0.25,0.54,
3.052,0.26,-0.53,-3.52,0.17,0.25,0.54,
3.054,0.26,-0.53,-3.52,0.17,0.25,0.53,
3.056,0.26,-0.53,-3.52,0.16,0.26,0.53,
3.059,0.12,-0.59,-3.53,0.16,0.26,0.53,
3.059,0.12,-0.59,-3.53,0.15,0.26,0.52,
3.061,0.12,-0.59,-3.53,0.15,0.27,0.52,
3.062,0.12,-0.59,-3.53,0.14,0.27,0.51,
3.065,0.12,-0.59,-3.53,0.15,0.27,0.51,
3.066,0.12,-0.59,-3.53,0.14,0.27,0.51,
3.069,0.09,-0.69,-3.31,0.14,0.27,0.51,
3.069,0.09,-0.69,-3.31,0.14,0.27,0.51,
3.071,0.09,-0.69,-3.31,0.15,0.27,0.50,
3.072,0.09,-0.69,-3.31,0.15,0.28,0.50,
3.074,0.09,-0.69,-3.31,0.16,0.28,0.50,
3.085,0.09,-0.69,-3.31,0.17,0.27,0.49,
3.086,0.08,-0.67,-3.03,0.17,0.27,0.49,
3.086,0.08,-0.67,-3.03,0.17,0.27,0.49,
3.086,0.08,-0.67,-3.03,0.19,0.26,0.48,
3.086,0.08,-0.67,-3.03,0.19,0.26,0.48,
3.086,0.08,-0.67,-3.03,0.19,0.25,0.47,
3.086,0.08,-0.67,-3.03,0.21,0.24,0.47,
3.09,0.16,-0.64,-2.84,0.21,0.24,0.47,
3.09,0.16,-0.64,-2.84,0.21,0.23,0.46,
3.102,0.16,-0.64,-2.84,0.23,0.21,0.46,
3.102,0.16,-0.64,-2.84,0.23,0.20,0.45,
3.103,0.16,-0.64,-2.84,0.23,0.20,0.45,
3.103,0.16,-0.64,-2.84,0.24,0.18,0.44,
3.103,0.15,-0.60,-2.64,0.24,0.18,0.44,
3.103,0.15,-0.60,-2.64,0.25,0.17,0.44,
3.103,0.15,-0.60,-2.64,0.26,0.15,0.43,
3.103,0.15,-0.60,-2.64,0.26,0.14,0.42,
3.106,0.15,-0.60,-2.64,0.27,0.13,0.42,
3.106,0.15,-0.60,-2.64,0.27,0.13,0.42,
3.114,0.08,-0.58,-2.26,0.27,0.13,0.42,
3.114,0.08,-0.58,-2.26,0.28,0.12,0.41,
3.114,0.08,-0.58,-2.26,0.30,0.10,0.41,
3.114,0.08,-0.58,-2.26,0.31,0.10,0.41,
3.114,0.08,-0.58,-2.26,0.32,0.10,0.41,
3.116,0.08,-0.58,-2.26,0.33,0.10,0.41,
3.119,-0.13,-0.63,-1.69,0.33,0.10,0.41,
3.119,-0.13,-0.63,-1.69,0.35,0.09,0.41,
3.121,-0.13,-0.63,-1.69,0.36,0.09,0.42,
3.122,-0.13,-0.63,-1.69,0.38,0.09,0.42,
3.124,-0.13,-0.63,-1.69,0.38,0.09,0.42,
3.127,-0.13,-0.63,-1.69,0.39,0.09,0.43,
3.129,-0.36,-0.73,-1.15,0.39,0.09,0.43,
3.129,-0.36,-0.73,-1.15,0.40,0.09,0.44,
3.132,-0.36,-0.73,-1.15,0.43,0.09,0.45,
3.132,-0.36,-0.73,-1.15,0.44,0.09,0.46,
3.135,-0.36,-0.73,-1.15,0.44,0.08,0.47,
3.136,-0.36,-0.73,-1.15,0.45,0.09,0.48,
3.14,-0.56,-0.81,-0.72,0.45,0.09,0.48,
3.141,-0.56,-0.81,-0.72,0.46,0.09,0.49,
3.141,-0.56,-0.81,-0.72,0.47,0.10,0.50,
3.144,-0.56,-0.81,-0.72,0.48,0.10,0.52,
3.145,-0.56,-0.81,-0.72,0.48,0.11,0.52,
3.147,-0.56,-0.81,-0.72,0.48,0.11,0.54,
3.149,-0.57,-0.80,-0.30,0.48,0.11,0.54,
3.149,-0.57,-0.80,-0.30,0.48,0.12,0.55,
3.152,-0.57,-0.80,-0.30,0.49,0.12,0.57,
3.153,-0.57,-0.80,-0.30,0.49,0.12,0.58,
3.154,-0.57,-0.80,-0.30,0.49,0.13,0.58,
3.157,-0.57,-0.80,-0.30,0.49,0.13,0.58,
3.159,-0.26,-0.72,0.28,0.49,0.13,0.58,
3.16,-0.26,-0.72,0.28,0.49,0.13,0.59,
3.162,-0.26,-0.72,0.28,0.50,0.13,0.59,
3.163,-0.26,-0.72,0.28,0.50,0.13,0.59,
3.165,-0.26,-0.72,0.28,0.51,0.13,0.58,
3.167,-0.26,-0.72,0.28,0.52,0.13,0.58,
3.169,0.04,-0.54,1.26,0.52,0.13,0.58,
3.169,0.04,-0.54,1.26,0.53,0.13,0.57,
3.171,0.04,-0.54,1.26,0.55,0.13,0.56,
3.173,0.04,-0.54,1.26,0.57,0.12,0.56,
3.175,0.04,-0.54,1.26,0.58,0.13,0.56,
3.177,0.04,-0.54,1.26,0.61,0.13,0.55,
3.179,-0.03,-0.52,2.59,0.61,0.13,0.55,
3.18,-0.03,-0.52,2.59,0.64,0.13,0.55,
3.182,-0.03,-0.52,2.59,0.69,0.16,0.55,
3.183,-0.03,-0.52,2.59,0.72,0.16,0.56,
3.185,-0.03,-0.52,2.59,0.74,0.17,0.56,
3.187,-0.03,-0.52,2.59,0.79,0.19,0.57,
3.189,-0.31,-0.63,3.59,0.79,0.19,0.57,
3.19,-0.31,-0.63,3.59,0.82,0.19,0.59,
3.193,-0.31,-0.63,3.59,0.85,0.20,0.61,
3.194,-0.31,-0.63,3.59,0.87,0.21,0.63,
3.195,-0.31,-0.63,3.59,0.90,0.21,0.65,
3.197,-0.31,-0.63,3.59,0.91,0.21,0.67,
3.199,-0.62,-0.83,3.86,0.91,0.21,0.67,
3.2,-0.62,-0.83,3.86,0.93,0.20,0.69,
3.202,-0.62,-0.83,3.86,0.93,0.20,0.72,
3.204,-0.62,-0.83,3.86,0.94,0.19,0.74,
3.204,-0.62,-0.83,3.86,0.94,0.18,0.77,
3.208,-0.62,-0.83,3.86,0.94,0.17,0.79,
3.215,-0.58,-0.84,3.63,0.94,0.17,0.79,
3.216,-0.58,-0.84,3.63,0.94,0.15,0.81,
3.216,-0.58,-0.84,3.63,0.93,0.14,0.84,
3.216,-0.58,-0.84,3.63,0.92,0.12,0.86,
3.216,-0.58,-0.84,3.63,0.91,0.10,0.87,
3.216,-0.58,-0.84,3.63,0.91,0.09,0.89,
3.219,-0.18,-0.72,3.52,0.91,0.09,0.89,
3.219,-0.18,-0.72,3.52,0.90,0.06,0.90,
3.222,-0.18,-0.72,3.52,0.89,0.04,0.91,
3.223,-0.18,-0.72,3.52,0.89,0.02,0.91,
3.233,-0.18,-0.72,3.52,0.89,-0.00,0.92,
3.233,-0.18,-0.72,3.52,0.87,-0.02,0.91,
3.234,0.52,-0.56,3.50,0.87,-0.02,0.91,
3.234,0.52,-0.56,3.50,0.87,-0.04,0.91,
3.234,0.52,-0.56,3.50,0.87,-0.06,0.90,
3.234,0.52,-0.56,3.50,0.87,-0.07,0.89,
3.235,0.52,-0.56,3.50,0.86,-0.08,0.87,
3.239,0.52,-0.56,3.50,0.86,-0.09,0.86,
3.241,1.29,-0.46,3.37,0.86,-0.09,0.86,
3.271,1.29,-0.46,3.37,0.86,-0.10,0.84,
3.272,1.29,-0.46,3.37,0.85,-0.10,0.81,
3.272,1.29,-0.46,3.37,0.85,-0.10,0.79,
3.272,1.29,-0.46,3.37,0.84,-0.09,0.77,
3.272,1.29,-0.46,3.37,0.83,-0.08,0.74,
3.273,1.82,-0.35,2.89,0.83,-0.08,0.74,
3.273,1.82,-0.35,2.89,0.82,-0.07,0.71,
3.273,1.82,-0.35,2.89,0.81,-0.06,0.69,
3.273,1.82,-0.35,2.89,0.79,-0.04,0.66,
3.273,1.82,-0.35,2.89,0.78,-0.02,0.63,
3.274,1.82,-0.35,2.89,0.75,0.01,0.60,
3.295,2.08,-0.33,2.04,0.75,0.01,0.60,
3.296,2.08,-0.33,2.04,0.73,0.04,0.57,
3.296,2.08,-0.33,2.04,0.70,0.06,0.54,
3.297,2.08,-0.33,2.04,0.66,0.09,0.51,
3.297,2.08,-0.33,2.04,0.62,0.12,0.48,
3.298,2.08,-0.33,2.04,0.58,0.15,0.45,
3.298,2.05,-0.22,0.85,0.58,0.15,0.45,
3.298,2.05,-0.22,0.85,0.53,0.18,0.42,
3.298,2.05,-0.22,0.85,0.46,0.23,0.37,
3.299,2.05,-0.22,0.85,0.43,0.24,0.36,
3.299,2.05,-0.22,0.85,0.38,0.28,0.33,
3.299,2.05,-0.22,0.85,0.31,0.31,0.30,
3.3,1.99,-0.17,-0.31,0.31,0.31,0.30,
3.3,1.99,-0.17,-0.31,0.25,0.34,0.26,
3.3,1.99,-0.17,-0.31,0.19,0.37,0.23,
3.3,1.99,-0.17,-0.31,0.11,0.40,0.20,
3.301,1.99,-0.17,-0.31,0.04,0.43,0.17,
3.301,1.99,-0.17,-0.31,-0.02,0.45,0.14,
3.301,1.83,-0.10,-1.06,-0.02,0.45,0.14,
3.301,1.83,-0.10,-1.06,-0.09,0.48,0.11,
3.302,1.83,-0.10,-1.06,-0.15,0.50,0.08,
3.302,1.83,-0.10,-1.06,-0.22,0.52,0.06,
3.302,1.83,-0.10,-1.06,-0.29,0.53,0.03,
3.302,1.83,-0.10,-1.06,-0.35,0.55,0.01,
3.303,1.63,-0.20,-1.29,-0.35,0.55,0.01,
3.303,1.63,-0.20,-1.29,-0.42,0.56,-0.02,
3.303,1.63,-0.20,-1.29,-0.47,0.56,-0.03,
3.304,1.63,-0.20,-1.29,-0.53,0.57,-0.05,
3.31,1.63,-0.20,-1.29,-0.58,0.57,-0.07,
3.311,1.63,-0.20,-1.29,-0.62,0.57,-0.08,
3.311,1.17,-0.27,-1.05,-0.62,0.57,-0.08,
3.311,1.17,-0.27,-1.05,-0.67,0.58,-0.09,
3.312,1.17,-0.27,-1.05,-0.71,0.58,-0.10,
3.316,1.17,-0.27,-1.05,-0.75,0.58,-0.11,
3.317,1.17,-0.27,-1.05,-0.79,0.59,-0.12,
3.317,1.17,-0.27,-1.05,-0.82,0.60,-0.12,
3.319,0.88,-0.36,-0.59,-0.82,0.60,-0.12,
3.319,0.88,-0.36,-0.59,-0.85,0.60,-0.13,
3.323,0.88,-0.36,-0.59,-0.88,0.62,-0.14,
3.323,0.88,-0.36,-0.59,-0.89,0.62,-0.15,
3.327,0.88,-0.36,-0.59,-0.92,0.63,-0.15,
3.327,0.88,-0.36,-0.59,-0.93,0.63,-0.16,
3.333,0.76,-0.30,-0.22,-0.93,0.63,-0.16,
3.334,0.76,-0.30,-0.22,-0.95,0.63,-0.16,
3.334,0.76,-0.30,-0.22,-0.97,0.63,-0.17,
3.334,0.76,-0.30,-0.22,-0.99,0.63,-0.18,
3.335,0.76,-0.30,-0.22,-1.01,0.63,-0.19,
3.339,0.76,-0.30,-0.22,-1.03,0.62,-0.20,
3.339,0.80,-0.15,-0.14,-1.03,0.62,-0.20,
3.339,0.80,-0.15,-0.14,-1.05,0.60,-0.21,
3.343,0.80,-0.15,-0.14,-1.07,0.58,-0.22,
3.343,0.80,-0.15,-0.14,-1.10,0.56,-0.23,
3.351,0.80,-0.15,-0.14,-1.12,0.53,-0.25,
3.351,0.80,-0.15,-0.14,-1.15,0.50,-0.26,
3.351,0.85,0.03,-0.20,-1.15,0.50,-0.26,
3.352,0.85,0.03,-0.20,-1.17,0.47,-0.28,
3.352,0.85,0.03,-0.20,-1.20,0.43,-0.30,
3.353,0.85,0.03,-0.20,-1.22,0.39,-0.31,
3.356,0.85,0.03,-0.20,-1.25,0.35,-0.33,
3.4,0.85,0.03,-0.20,-1.27,0.30,-0.35,
3.402,0.83,0.18,0.06,-1.27,0.30,-0.35,
3.403,0.83,0.18,0.06,-1.29,0.25,-0.36,
3.403,0.83,0.18,0.06,-1.32,0.20,-0.38,
3.404,0.83,0.18,0.06,-1.34,0.15,-0.40,
3.404,0.83,0.18,0.06,-1.35,0.10,-0.42,
3.404,0.83,0.18,0.06,-1.36,0.05,-0.43,
3.405,0.72,0.23,0.85,-1.36,0.05,-0.43,
3.405,0.72,0.23,0.85,-1.37,0.01,-0.44,
3.406,0.72,0.23,0.85,-1.38,-0.04,-0.45,
3.406,0.72,0.23,0.85,-1.38,-0.08,-0.46,
3.407,0.72,0.23,0.85,-1.37,-0.11,-0.46,
3.407,0.72,0.23,0.85,-1.36,-0.15,-0.47,
3.408,0.43,0.12,2.06,-1.36,-0.15,-0.47,
3.408,0.43,0.12,2.06,-1.35,-0.17,-0.46,
3.409,0.43,0.12,2.06,-1.33,-0.19,-0.46,
3.41,0.43,0.12,2.06,-1.31,-0.20,-0.45,
3.41,0.43,0.12,2.06,-1.29,-0.21,-0.44,
3.411,0.43,0.12,2.06,-1.26,-0.21,-0.43,
3.411,0.05,-0.05,3.33,-1.26,-0.21,-0.43,
3.412,0.05,-0.05,3.33,-1.23,-0.21,-0.41,
3.413,0.05,-0.05,3.33,-1.18,-0.20,-0.39,
3.414,0.05,-0.05,3.33,-1.14,-0.19,-0.37,
3.415,0.05,-0.05,3.33,-1.09,-0.17,-0.35,
3.415,0.05,-0.05,3.33,-1.04,-0.15,-0.33,
3.416,-0.15,-0.29,4.44,-1.04,-0.15,-0.33,
3.416,-0.15,-0.29,4.44,-0.99,-0.12,-0.30,
3.416,-0.15,-0.29,4.44,-0.93,-0.09,-0.27,
3.417,-0.15,-0.29,4.44,-0.87,-0.06,-0.25,
3.417,-0.15,-0.29,4.44,-0.80,-0.03,-0.22,
3.418,-0.15,-0.29,4.44,-0.74,-0.00,-0.19,
3.418,-0.09,-0.38,5.01,-0.74,-0.00,-0.19,
3.418,-0.09,-0.38,5.01,-0.67,0.03,-0.16,
3.419,-0.09,-0.38,5.01,-0.60,0.05,-0.13,
3.419,-0.09,-0.38,5.01,-0.53,0.08,-0.11,
3.42,-0.09,-0.38,5.01,-0.47,0.10,-0.08,
3.42,-0.09,-0.38,5.01,-0.40,0.11,-0.05,
3.421,0.12,-0.39,4.89,-0.40,0.11,-0.05,
3.421,0.12,-0.39,4.89,-0.34,0.13,-0.03,
3.431,0.12,-0.39,4.89,-0.24,0.14,0.00,
3.432,0.12,-0.39,4.89,-0.21,0.14,0.01,
3.455,0.12,-0.39,4.89,-0.15,0.14,0.03,
3.455,0.12,-0.39,4.89,-0.09,0.14,0.05,
3.455,0.49,-0.25,4.10,-0.09,0.14,0.05,
3.456,0.49,-0.25,4.10,-0.04,0.13,0.06,
3.456,0.49,-0.25,4.10,0.04,0.11,0.08,
3.456,0.49,-0.25,4.10,0.06,0.10,0.09,
3.456,0.49,-0.25,4.10,0.11,0.08,0.10,
3.457,0.49,-0.25,4.10,0.15,0.06,0.11,
3.457,0.83,-0.16,2.97,0.15,0.06,0.11,
3.457,0.83,-0.16,2.97,0.25,-0.01,0.14,
3.458,0.83,-0.16,2.97,0.25,-0.01,0.14,
3.458,0.83,-0.16,2.97,0.29,-0.03,0.15,
3.458,0.83,-0.16,2.97,0.29,-0.03,0.15,
3.458,0.83,-0.16,2.97,0.31,-0.06,0.16,
3.459,1.16,-0.07,1.74,0.31,-0.06,0.16,
3.459,1.16,-0.07,1.74,0.33,-0.08,0.16,
3.459,1.16,-0.07,1.74,0.36,-0.12,0.16,
3.459,1.16,-0.07,1.74,0.37,-0.14,0.16,
3.46,1.16,-0.07,1.74,0.38,-0.16,0.16,
3.46,1.16,-0.07,1.74,0.39,-0.19,0.16,
3.46,1.56,-0.12,0.65,0.39,-0.19,0.16,
3.46,1.56,-0.12,0.65,0.40,-0.22,0.15,
3.469,1.56,-0.12,0.65,0.41,-0.25,0.15,
3.469,1.56,-0.12,0.65,0.42,-0.27,0.15,
3.47,1.56,-0.12,0.65,0.42,-0.29,0.14,
3.47,1.56,-0.12,0.65,0.43,-0.31,0.13,
3.47,1.83,-0.13,-0.20,0.43,-0.31,0.13,
3.47,1.83,-0.13,-0.20,0.43,-0.33,0.12,
3.474,1.83,-0.13,-0.20,0.44,-0.35,0.11,
3.475,1.83,-0.13,-0.20,0.44,-0.36,0.10,
3.475,1.83,-0.13,-0.20,0.44,-0.37,0.09,
3.478,1.83,-0.13,-0.20,0.43,-0.38,0.08,
3.48,2.13,-0.21,-0.90,0.43,-0.38,0.08,
3.48,2.13,-0.21,-0.90,0.43,-0.39,0.07,
3.482,2.13,-0.21,-0.90,0.42,-0.41,0.05,
3.482,2.13,-0.21,-0.90,0.42,-0.41,0.04,
3.485,2.13,-0.21,-0.90,0.41,-0.42,0.03,
3.487,2.13,-0.21,-0.90,0.40,-0.43,0.01,
3.489,2.25,-0.30,-1.59,0.40,-0.43,0.01,
3.489,2.25,-0.30,-1.59,0.39,-0.44,-0.00,
3.498,2.25,-0.30,-1.59,0.37,-0.45,-0.03,
3.498,2.25,-0.30,-1.59,0.36,-0.45,-0.04,
3.498,2.25,-0.30,-1.59,0.34,-0.46,-0.05,
3.499,2.25,-0.30,-1.59,0.33,-0.47,-0.07,
3.499,2.37,-0.35,-2.19,0.33,-0.47,-0.07,
3.5,2.37,-0.35,-2.19,0.31,-0.47,-0.09,
3.506,2.37,-0.35,-2.19,0.29,-0.48,-0.11,
3.507,2.37,-0.35,-2.19,0.28,-0.49,-0.12,
3.507,2.37,-0.35,-2.19,0.26,-0.50,-0.14,
3.507,2.37,-0.35,-2.19,0.24,-0.50,-0.16,
3.531,2.34,-0.40,-2.57,0.24,-0.50,-0.16,
3.532,2.34,-0.40,-2.57,0.23,-0.51,-0.17,
3.532,2.34,-0.40,-2.57,0.20,-0.52,-0.20,
3.532,2.34,-0.40,-2.57,0.19,-0.53,-0.21,
3.533,2.34,-0.40,-2.57,0.17,-0.54,-0.23,
3.533,2.34,-0.40,-2.57,0.16,-0.55,-0.25,
3.533,2.37,-0.48,-2.84,0.16,-0.55,-0.25,
3.533,2.37,-0.48,-2.84,0.14,-0.55,-0.27,
3.533,2.37,-0.48,-2.84,0.12,-0.57,-0.30,
3.534,2.37,-0.48,-2.84,0.11,-0.57,-0.30,
3.534,2.37,-0.48,-2.84,0.09,-0.58,-0.32,
3.534,2.37,-0.48,-2.84,0.07,-0.60,-0.34,
3.534,2.20,-0.54,-2.98,0.07,-0.60,-0.34,
3.535,2.20,-0.54,-2.98,0.06,-0.61,-0.36,
3.535,2.20,-0.54,-2.98,0.04,-0.63,-0.38,
3.535,2.20,-0.54,-2.98,0.03,-0.63,-0.39,
3.535,2.20,-0.54,-2.98,0.01,-0.65,-0.41,
3.537,2.20,-0.54,-2.98,-0.00,-0.66,-0.43,
3.539,2.15,-0.58,-2.99,-0.00,-0.66,-0.43,
3.539,2.15,-0.58,-2.99,-0.02,-0.67,-0.45,
3.544,2.15,-0.58,-2.99,-0.04,-0.68,-0.47,
3.544,2.15,-0.58,-2.99,-0.04,-0.68,-0.48,
3.547,2.15,-0.58,-2.99,-0.05,-0.69,-0.50,
3.547,2.15,-0.58,-2.99,-0.06,-0.69,-0.52,
3.551,1.97,-0.63,-2.76,-0.06,-0.69,-0.52,
3.551,1.97,-0.63,-2.76,-0.06,-0.69,-0.54,
3.552,1.97,-0.63,-2.76,-0.07,-0.69,-0.56,
3.552,1.97,-0.63,-2.76,-0.07,-0.68,-0.57,
3.555,1.97,-0.63,-2.76,-0.07,-0.68,-0.58,
3.559,1.97,-0.63,-2.76,-0.07,-0.67,-0.60,
3.559,1.81,-0.76,-2.44,-0.07,-0.67,-0.60,
3.559,1.81,-0.76,-2.44,-0.07,-0.66,-0.61,
3.568,1.81,-0.76,-2.44,-0.07,-0.65,-0.63,
3.568,1.81,-0.76,-2.44,-0.06,-0.65,-0.64,
3.568,1.81,-0.76,-2.44,-0.06,-0.64,-0.65,
3.568,1.81,-0.76,-2.44,-0.05,-0.62,-0.66,
3.569,1.53,-0.87,-2.18,-0.05,-0.62,-0.66,
3.569,1.53,-0.87,-2.18,-0.04,-0.61,-0.67,
3.573,1.53,-0.87,-2.18,-0.02,-0.59,-0.69,
3.573,1.53,-0.87,-2.18,-0.02,-0.59,-0.69,
3.577,1.53,-0.87,-2.18,-0.01,-0.58,-0.70,
3.578,1.53,-0.87,-2.18,0.01,-0.56,-0.71,
3.581,1.32,-0.98,-1.95,0.01,-0.56,-0.71,
3.581,1.32,-0.98,-1.95,0.02,-0.55,-0.72,
3.582,1.32,-0.98,-1.95,0.04,-0.53,-0.73,
3.582,1.32,-0.98,-1.95,0.06,-0.52,-0.73,
3.586,1.32,-0.98,-1.95,0.08,-0.50,-0.73,
3.587,1.32,-0.98,-1.95,0.10,-0.49,-0.73,
3.59,0.96,-1.07,-1.86,0.10,-0.49,-0.73,
3.591,0.96,-1.07,-1.86,0.12,-0.48,-0.73,
3.607,0.96,-1.07,-1.86,0.15,-0.46,-0.73,
3.607,0.96,-1.07,-1.86,0.16,-0.45,-0.73,
3.607,0.96,-1.07,-1.86,0.18,-0.45,-0.73,
3.608,0.96,-1.07,-1.86,0.20,-0.44,-0.72,
3.608,0.63,-1.19,-1.96,0.20,-0.44,-0.72,
3.608,0.63,-1.19,-1.96,0.22,-0.43,-0.72,
3.608,0.63,-1.19,-1.96,0.25,-0.42,-0.71,
3.608,0.63,-1.19,-1.96,0.26,-0.42,-0.71,
3.609,0.63,-1.19,-1.96,0.28,-0.42,-0.71,
3.609,0.63,-1.19,-1.96,0.30,-0.42,-0.70,
3.609,0.37,-1.15,-2.19,0.30,-0.42,-0.70,
3.609,0.37,-1.15,-2.19,0.32,-0.43,-0.69,
3.612,0.37,-1.15,-2.19,0.34,-0.43,-0.69,
3.612,0.37,-1.15,-2.19,0.34,-0.44,-0.69,
3.614,0.37,-1.15,-2.19,0.36,-0.45,-0.68,
3.617,0.37,-1.15,-2.19,0.37,-0.46,-0.68,
3.619,0.24,-1.06,-2.46,0.37,-0.46,-0.68,
3.619,0.24,-1.06,-2.46,0.38,-0.47,-0.68,
3.621,0.24,-1.06,-2.46,0.39,-0.49,-0.68,
3.622,0.24,-1.06,-2.46,0.39,-0.50,-0.68,
3.625,0.24,-1.06,-2.46,0.40,-0.51,-0.68,
3.627,0.24,-1.06,-2.46,0.40,-0.53,-0.68,
3.629,0.14,-1.00,-2.64,0.40,-0.53,-0.68,
3.629,0.14,-1.00,-2.64,0.41,-0.54,-0.68,
3.631,0.14,-1.00,-2.64,0.42,-0.56,-0.68,
3.632,0.14,-1.00,-2.64,0.42,-0.57,-0.68,
3.634,0.14,-1.00,-2.64,0.41,-0.59,-0.68,
3.636,0.14,-1.00,-2.64,0.42,-0.61,-0.68,
3.639,-0.05,-0.94,-2.68,0.42,-0.61,-0.68,
3.639,-0.05,-0.94,-2.68,0.42,-0.63,-0.68,
3.645,-0.05,-0.94,-2.68,0.42,-0.65,-0.68,
3.645,-0.05,-0.94,-2.68,0.42,-0.66,-0.68,
3.645,-0.05,-0.94,-2.68,0.42,-0.68,-0.67,
3.646,-0.05,-0.94,-2.68,0.41,-0.70,-0.66,
3.656,-0.47,-0.80,-2.60,0.41,-0.70,-0.66,
3.656,-0.47,-0.80,-2.60,0.41,-0.71,-0.66,
3.656,-0.47,-0.80,-2.60,0.41,-0.73,-0.64,
3.656,-0.47,-0.80,-2.60,0.40,-0.74,-0.64,
3.656,-0.47,-0.80,-2.60,0.39,-0.75,-0.63,
3.663,-0.47,-0.80,-2.60,0.39,-0.77,-0.62,
3.663,-0.88,-0.67,-2.41,0.39,-0.77,-0.62,
3.663,-0.88,-0.67,-2.41,0.38,-0.78,-0.61,
3.663,-0.88,-0.67,-2.41,0.37,-0.80,-0.60,
3.663,-0.88,-0.67,-2.41,0.37,-0.80,-0.59,
3.664,-0.88,-0.67,-2.41,0.36,-0.82,-0.58,
3.668,-0.88,-0.67,-2.41,0.35,-0.82,-0.57,
3.669,-1.13,-0.57,-2.06,0.35,-0.82,-0.57,
3.669,-1.13,-0.57,-2.06,0.34,-0.83,-0.55,
3.672,-1.13,-0.57,-2.06,0.32,-0.84,-0.53,
3.675,-1.13,-0.57,-2.06,0.31,-0.85,-0.52,
3.675,-1.13,-0.57,-2.06,0.30,-0.85,-0.51,
3.679,-1.13,-0.57,-2.06,0.30,-0.85,-0.49,
3.679,-1.42,-0.41,-1.59,0.30,-0.85,-0.49,
3.679,-1.42,-0.41,-1.59,0.29,-0.85,-0.48,
3.682,-1.42,-0.41,-1.59,0.28,-0.85,-0.46,
3.684,-1.42,-0.41,-1.59,0.27,-0.85,-0.45,
3.684,-1.42,-0.41,-1.59,0.26,-0.84,-0.45,
3.688,-1.42,-0.41,-1.59,0.25,-0.84,-0.43,
3.69,-1.47,-0.24,-1.20,0.25,-0.84,-0.43,
3.69,-1.47,-0.24,-1.20,0.24,-0.85,-0.42,
3.694,-1.47,-0.24,-1.20,0.21,-0.85,-0.41,
3.694,-1.47,-0.24,-1.20,0.21,-0.85,-0.41,
3.694,-1.47,-0.24,-1.20,0.19,-0.85,-0.40,
3.698,-1.47,-0.24,-1.20,0.17,-0.85,-0.39,
3.7,-1.47,-0.05,-0.88,0.17,-0.85,-0.39,
3.7,-1.47,-0.05,-0.88,0.15,-0.85,-0.38,
3.703,-1.47,-0.05,-0.88,0.12,-0.86,-0.38,
3.703,-1.47,-0.05,-0.88,0.11,-0.86,-0.37,
3.706,-1.47,-0.05,-0.88,0.10,-0.86,-0.37,
3.706,-1.47,-0.05,-0.88,0.08,-0.87,-0.37,
3.709,-1.42,0.21,-0.45,0.08,-0.87,-0.37,
3.71,-1.42,0.21,-0.45,0.06,-0.87,-0.36,
3.711,-1.42,0.21,-0.45,0.02,-0.88,-0.36,
3.712,-1.42,0.21,-0.45,0.02,-0.88,-0.36,
3.714,-1.42,0.21,-0.45,0.00,-0.88,-0.36,
3.716,-1.42,0.21,-0.45,-0.02,-0.88,-0.36,
3.718,-1.38,0.44,0.16,-0.02,-0.88,-0.36,
3.719,-1.38,0.44,0.16,-0.04,-0.87,-0.36,
3.721,-1.38,0.44,0.16,-0.06,-0.86,-0.36,
3.723,-1.38,0.44,0.16,-0.07,-0.86,-0.36,
3.724,-1.38,0.44,0.16,-0.08,-0.85,-0.37,
3.726,-1.38,0.44,0.16,-0.10,-0.84,-0.37,
3.729,-1.32,0.53,0.82,-0.10,-0.84,-0.37,
3.729,-1.32,0.53,0.82,-0.11,-0.83,-0.37,
3.731,-1.32,0.53,0.82,-0.13,-0.82,-0.37,
3.733,-1.32,0.53,0.82,-0.14,-0.82,-0.37,
3.734,-1.32,0.53,0.82,-0.16,-0.81,-0.37,
3.736,-1.32,0.53,0.82,-0.17,-0.80,-0.36,
3.739,-1.59,0.69,1.37,-0.17,-0.80,-0.36,
3.739,-1.59,0.69,1.37,-0.19,-0.80,-0.36,
3.742,-1.59,0.69,1.37,-0.22,-0.78,-0.36,
3.743,-1.59,0.69,1.37,-0.23,-0.78,-0.35,
3.745,-1.59,0.69,1.37,-0.24,-0.76,-0.35,
3.747,-1.59,0.69,1.37,-0.25,-0.75,-0.35,
3.749,-1.70,0.84,1.91,-0.25,-0.75,-0.35,
3.749,-1.70,0.84,1.91,-0.27,-0.74,-0.35,
3.751,-1.70,0.84,1.91,-0.29,-0.71,-0.34,
3.753,-1.70,0.84,1.91,-0.30,-0.70,-0.34,
3.754,-1.70,0.84,1.91,-0.31,-0.68,-0.33,
3.771,-1.70,0.84,1.91,-0.32,-0.66,-0.33,
3.8,-1.93,0.87,2.52,-0.32,-0.66,-0.33,
3.801,-1.93,0.87,2.52,-0.33,-0.62,-0.32,
3.802,-1.93,0.87,2.52,-0.34,-0.58,-0.31,
3.802,-1.93,0.87,2.52,-0.35,-0.56,-0.30,
3.803,-1.93,0.87,2.52,-0.35,-0.52,-0.29,
3.803,-1.93,0.87,2.52,-0.35,-0.48,-0.28,
3.804,-2.13,0.88,3.24,-0.35,-0.48,-0.28,
3.804,-2.13,0.88,3.24,-0.36,-0.44,-0.27,
3.805,-2.13,0.88,3.24,-0.35,-0.35,-0.25,
3.805,-2.13,0.88,3.24,-0.34,-0.33,-0.24,
3.806,-2.13,0.88,3.24,-0.34,-0.28,-0.22,
3.807,-2.13,0.88,3.24,-0.33,-0.23,-0.21,
3.808,-2.33,0.81,3.91,-0.33,-0.23,-0.21,
3.808,-2.33,0.81,3.91,-0.31,-0.17,-0.19,
3.809,-2.33,0.81,3.91,-0.29,-0.09,-0.17,
3.809,-2.33,0.81,3.91,-0.28,-0.06,-0.16,
3.81,-2.33,0.81,3.91,-0.27,-0.00,-0.14,
3.811,-2.33,0.81,3.91,-0.24,0.05,-0.12,
3.811,-2.41,0.79,4.30,-0.24,0.05,-0.12,
3.812,-2.41,0.79,4.30,-0.22,0.11,-0.10,
3.812,-2.41,0.79,4.30,-0.19,0.19,-0.07,
3.813,-2.41,0.79,4.30,-0.18,0.22,-0.07,
3.814,-2.41,0.79,4.30,-0.16,0.27,-0.05,
3.814,-2.41,0.79,4.30,-0.14,0.32,-0.03,
3.815,-2.50,0.85,4.27,-0.14,0.32,-0.03,
3.815,-2.50,0.85,4.27,-0.12,0.36,-0.01,
3.817,-2.50,0.85,4.27,-0.08,0.42,0.01,
3.818,-2.50,0.85,4.27,-0.07,0.44,0.02,
3.818,-2.50,0.85,4.27,-0.05,0.48,0.04,
3.819,-2.50,0.85,4.27,-0.04,0.50,0.06,
3.819,-2.57,0.93,3.80,-0.04,0.50,0.06,
3.82,-2.57,0.93,3.80,-0.02,0.53,0.07,
3.82,-2.57,0.93,3.80,0.00,0.56,0.10,
3.821,-2.57,0.93,3.80,0.02,0.58,0.11,
3.821,-2.57,0.93,3.80,0.03,0.58,0.12,
3.822,-2.57,0.93,3.80,0.04,0.60,0.14,
3.822,-2.71,1.05,3.16,0.04,0.60,0.14,
3.823,-2.71,1.05,3.16,0.04,0.61,0.16,
3.823,-2.71,1.05,3.16,0.05,0.63,0.18,
3.824,-2.71,1.05,3.16,0.06,0.64,0.19,
3.843,-2.71,1.05,3.16,0.06,0.64,0.21,
3.843,-2.71,1.05,3.16,0.06,0.65,0.23,
3.844,-2.69,1.12,2.41,0.06,0.65,0.23,
3.844,-2.69,1.12,2.41,0.06,0.65,0.24,
3.844,-2.69,1.12,2.41,0.05,0.65,0.26,
3.845,-2.69,1.12,2.41,0.06,0.65,0.27,
3.845,-2.69,1.12,2.41,0.06,0.65,0.29,
3.846,-2.69,1.12,2.41,0.06,0.65,0.30,
3.846,-2.80,1.21,1.91,0.06,0.65,0.30,
3.846,-2.80,1.21,1.91,0.06,0.64,0.32,
3.847,-2.80,1.21,1.91,0.06,0.62,0.34,
3.847,-2.80,1.21,1.91,0.06,0.62,0.35,
3.847,-2.80,1.21,1.91,0.06,0.61,0.37,
3.848,-2.80,1.21,1.91,0.07,0.59,0.38,
3.849,-2.91,1.21,1.59,0.07,0.59,0.38,
3.849,-2.91,1.21,1.59,0.07,0.57,0.41,
3.853,-2.91,1.21,1.59,0.07,0.55,0.44,
3.853,-2.91,1.21,1.59,0.08,0.54,0.45,
3.857,-2.91,1.21,1.59,0.07,0.52,0.48,
3.857,-2.91,1.21,1.59,0.07,0.50,0.50,
3.862,-3.12,1.16,1.14,0.07,0.50,0.50,
3.862,-3.12,1.16,1.14,0.07,0.48,0.53,
3.863,-3.12,1.16,1.14,0.04,0.46,0.57,
3.863,-3.12,1.16,1.14,0.04,0.45,0.59,
3.864,-3.12,1.16,1.14,0.02,0.43,0.62,
3.866,-3.12,1.16,1.14,-0.01,0.41,0.65,
3.869,-2.93,1.05,0.50,-0.01,0.41,0.65,
3.869,-2.93,1.05,0.50,-0.04,0.39,0.68,
3.872,-2.93,1.05,0.50,-0.09,0.37,0.72,
3.874,-2.93,1.05,0.50,-0.11,0.36,0.73,
3.875,-2.93,1.05,0.50,-0.15,0.35,0.76,
3.877,-2.93,1.05,0.50,-0.18,0.33,0.79,
3.879,-2.37,1.06,0.24,-0.18,0.33,0.79,
3.879,-2.37,1.06,0.24,-0.21,0.32,0.81,
3.881,-2.37,1.06,0.24,-0.26,0.30,0.83,
3.883,-2.37,1.06,0.24,-0.28,0.29,0.84,
3.884,-2.37,1.06,0.24,-0.31,0.28,0.85,
3.886,-2.37,1.06,0.24,-0.33,0.27,0.85,
3.89,-1.27,1.04,0.65,-0.33,0.27,0.85,
3.891,-1.27,1.04,0.65,-0.36,0.26,0.85,
3.892,-1.27,1.04,0.65,-0.39,0.25,0.84,
3.893,-1.27,1.04,0.65,-0.40,0.25,0.83,
3.895,-1.27,1.04,0.65,-0.42,0.24,0.82,
3.897,-1.27,1.04,0.65,-0.43,0.25,0.79,
3.899,-0.14,1.14,1.44,-0.43,0.25,0.79,
3.899,-0.14,1.14,1.44,-0.44,0.25,0.77,
3.901,-0.14,1.14,1.44,-0.45,0.26,0.73,
3.903,-0.14,1.14,1.44,-0.45,0.27,0.71,
3.905,-0.14,1.14,1.44,-0.45,0.28,0.68,
3.926,-0.14,1.14,1.44,-0.45,0.30,0.65,
3.927,0.65,1.10,2.28,-0.45,0.30,0.65,
3.927,0.65,1.10,2.28,-0.44,0.32,0.61,
3.927,0.65,1.10,2.28,-0.43,0.37,0.56,
3.927,0.65,1.10,2.28,-0.42,0.38,0.54,
3.927,0.65,1.10,2.28,-0.41,0.42,0.51,
3.928,0.65,1.10,2.28,-0.39,0.46,0.47,
3.928,0.90,0.83,3.02,-0.39,0.46,0.47,
3.928,0.90,0.83,3.02,-0.37,0.51,0.45,
3.928,0.90,0.83,3.02,-0.33,0.59,0.41,
3.928,0.90,0.83,3.02,-0.32,0.61,0.39,
3.946,0.90,0.83,3.02,-0.29,0.67,0.37,
3.946,0.90,0.83,3.02,-0.26,0.73,0.35,
3.947,0.59,0.53,3.38,-0.26,0.73,0.35,
3.947,0.59,0.53,3.38,-0.23,0.79,0.34,
3.947,0.59,0.53,3.38,-0.19,0.88,0.32,
3.947,0.59,0.53,3.38,-0.18,0.91,0.32,
3.947,0.59,0.53,3.38,-0.15,0.96,0.31,
3.948,0.02,0.19,3.08,-0.15,0.96,0.31,
3.948,0.02,0.19,3.08,-0.10,1.06,0.31,
3.948,0.02,0.19,3.08,-0.10,1.06,0.31,
3.948,0.02,0.19,3.08,-0.06,1.13,0.31,
3.953,0.02,0.19,3.08,-0.05,1.15,0.31,
3.953,0.02,0.19,3.08,-0.03,1.18,0.32,
3.954,0.02,0.19,3.08,-0.02,1.21,0.33,
3.954,-0.55,-0.03,2.17,-0.02,1.21,0.33,
3.954,-0.55,-0.03,2.17,-0.00,1.23,0.34,
3.954,-0.55,-0.03,2.17,0.01,1.24,0.36,
3.955,-0.55,-0.03,2.17,0.02,1.24,0.37,
3.955,-0.55,-0.03,2.17,0.02,1.23,0.39,
3.96,-0.55,-0.03,2.17,0.03,1.22,0.41,
3.961,-1.13,-0.17,1.19,0.03,1.22,0.41,
3.961,-1.13,-0.17,1.19,0.04,1.20,0.42,
3.961,-1.13,-0.17,1.19,0.05,1.16,0.45,
3.963,-1.13,-0.17,1.19,0.05,1.15,0.46,
3.965,-1.13,-0.17,1.19,0.05,1.11,0.48,
3.968,-1.13,-0.17,1.19,0.06,1.06,0.50,
3.969,-1.44,-0.24,0.41,0.06,1.06,0.50,
3.969,-1.44,-0.24,0.41,0.06,1.02,0.53,
3.975,-1.44,-0.24,0.41,0.07,0.94,0.56,
3.975,-1.44,-0.24,0.41,0.07,0.91,0.57,
3.976,-1.44,-0.24,0.41,0.08,0.86,0.59,
3.977,-1.44,-0.24,0.41,0.09,0.80,0.61,
3.979,-1.53,-0.31,0.12,0.09,0.80,0.61,
3.979,-1.53,-0.31,0.12,0.10,0.75,0.63,
3.982,-1.53,-0.31,0.12,0.11,0.66,0.66,
3.983,-1.53,-0.31,0.12,0.12,0.64,0.67,
3.985,-1.53,-0.31,0.12,0.13,0.58,0.68,
3.987,-1.53,-0.31,0.12,0.15,0.53,0.70,
3.99,-1.34,-0.40,0.24,0.15,0.53,0.70,
3.99,-1.34,-0.40,0.24,0.17,0.48,0.72,
3.992,-1.34,-0.40,0.24,0.21,0.41,0.74,
3.993,-1.34,-0.40,0.24,0.22,0.39,0.75,
3.996,-1.34,-0.40,0.24,0.25,0.34,0.76,
3.996,-1.34,-0.40,0.24,0.28,0.30,0.77,
3.999,-1.14,-0.48,0.60,0.28,0.30,0.77,
4.0,-1.14,-0.48,0.60,0.31,0.27,0.78,
4.001,-1.14,-0.48,0.60,0.36,0.22,0.80,
4.003,-1.14,-0.48,0.60,0.38,0.20,0.80,
4.004,-1.14,-0.48,0.60,0.41,0.18,0.81,
4.007,-1.14,-0.48,0.60,0.44,0.15,0.82,
4.009,-0.93,-0.53,0.77,0.44,0.15,0.82,
4.009,-0.93,-0.53,0.77,0.48,0.14,0.83,
4.013,-0.93,-0.53,0.77,0.53,0.11,0.84,
4.013,-0.93,-0.53,0.77,0.54,0.10,0.85,
4.014,-0.93,-0.53,0.77,0.57,0.10,0.85,
4.016,-0.93,-0.53,0.77,0.60,0.09,0.86,
4.019,-0.74,-0.60,0.60,0.60,0.09,0.86,
4.019,-0.74,-0.60,0.60,0.62,0.09,0.87,
4.023,-0.74,-0.60,0.60,0.66,0.08,0.87,
4.024,-0.74,-0.60,0.60,0.66,0.08,0.87,
4.025,-0.74,-0.60,0.60,0.68,0.09,0.87,
4.026,-0.74,-0.60,0.60,0.69,0.09,0.88,
4.029,-0.46,-0.62,-0.03,0.69,0.09,0.88,
4.029,-0.46,-0.62,-0.03,0.71,0.09,0.88,
4.034,-0.46,-0.62,-0.03,0.71,0.10,0.87,
4.034,-0.46,-0.62,-0.03,0.71,0.10,0.87,
4.035,-0.46,-0.62,-0.03,0.71,0.11,0.86,
4.036,-0.46,-0.62,-0.03,0.71,0.12,0.86,
4.05,-0.19,-0.56,-0.84,0.71,0.12,0.86,
4.051,-0.19,-0.56,-0.84,0.70,0.12,0.85,
4.051,-0.19,-0.56,-0.84,0.69,0.14,0.84,
4.052,-0.19,-0.56,-0.84,0.69,0.14,0.83,
4.052,-0.19,-0.56,-0.84,0.67,0.15,0.82,
4.052,-0.19,-0.56,-0.84,0.66,0.16,0.81,
4.053,0.09,-0.52,-1.59,0.66,0.16,0.81,
4.053,0.09,-0.52,-1.59,0.64,0.17,0.80,
4.054,0.09,-0.52,-1.59,0.61,0.18,0.77,
4.054,0.09,-0.52,-1.59,0.60,0.19,0.76,
4.071,0.09,-0.52,-1.59,0.58,0.19,0.75,
4.071,0.09,-0.52,-1.59,0.56,0.20,0.73,
4.071,0.35,-0.47,-2.17,0.56,0.20,0.73,
4.071,0.35,-0.47,-2.17,0.53,0.21,0.71,
4.071,0.35,-0.47,-2.17,0.49,0.21,0.68,
4.072,0.35,-0.47,-2.17,0.48,0.22,0.67,
4.072,0.35,-0.47,-2.17,0.45,0.22,0.65,
4.072,0.35,-0.47,-2.17,0.43,0.23,0.62,
4.072,0.55,-0.48,-2.50,0.43,0.23,0.62,
4.072,0.55,-0.48,-2.50,0.40,0.23,0.60,
4.072,0.55,-0.48,-2.50,0.36,0.24,0.56,
4.072,0.55,-0.48,-2.50,0.35,0.24,0.55,
4.075,0.55,-0.48,-2.50,0.33,0.25,0.52,
4.076,0.55,-0.48,-2.50,0.31,0.25,0.50,
4.079,0.64,-0.48,-2.53,0.31,0.25,0.50,
4.08,0.64,-0.48,-2.53,0.29,0.26,0.47,
4.081,0.64,-0.48,-2.53,0.26,0.27,0.44,
4.083,0.64,-0.48,-2.53,0.25,0.27,0.42,
4.084,0.64,-0.48,-2.53,0.23,0.28,0.40,
4.086,0.64,-0.48,-2.53,0.22,0.28,0.37,
4.09,0.55,-0.59,-2.44,0.22,0.28,0.37,
4.091,0.55,-0.59,-2.44,0.21,0.29,0.35,
4.121,0.55,-0.59,-2.44,0.19,0.30,0.32,
4.122,0.55,-0.59,-2.44,0.18,0.31,0.31,
4.123,0.55,-0.59,-2.44,0.17,0.32,0.29,
4.124,0.55,-0.59,-2.44,0.16,0.34,0.27,
4.124,0.38,-0.75,-2.30,0.16,0.34,0.27,
4.125,0.38,-0.75,-2.30,0.15,0.35,0.26,
4.126,0.38,-0.75,-2.30,0.15,0.37,0.23,
4.126,0.38,-0.75,-2.30,0.14,0.38,0.22,
4.127,0.38,-0.75,-2.30,0.14,0.40,0.21,
4.127,0.38,-0.75,-2.30,0.13,0.42,0.19,
4.128,0.16,-0.96,-2.33,0.13,0.42,0.19,
4.129,0.16,-0.96,-2.33,0.12,0.44,0.18,
4.132,0.16,-0.96,-2.33,0.12,0.46,0.16,
4.132,0.16,-0.96,-2.33,0.11,0.47,0.16,
4.133,0.16,-0.96,-2.33,0.11,0.49,0.14,
4.133,0.16,-0.96,-2.33,0.10,0.52,0.13,
4.133,-0.03,-1.15,-2.46,0.10,0.52,0.13,
4.134,-0.03,-1.15,-2.46,0.10,0.54,0.12,
4.134,-0.03,-1.15,-2.46,0.10,0.57,0.11,
4.135,-0.03,-1.15,-2.46,0.10,0.58,0.10,
4.135,-0.03,-1.15,-2.46,0.09,0.60,0.10,
4.136,-0.03,-1.15,-2.46,0.08,0.62,0.09,
4.136,-0.20,-1.25,-2.76,0.08,0.62,0.09,
4.136,-0.20,-1.25,-2.76,0.08,0.64,0.08,
4.137,-0.20,-1.25,-2.76,0.07,0.67,0.07,
4.137,-0.20,-1.25,-2.76,0.06,0.67,0.07,
4.138,-0.20,-1.25,-2.76,0.05,0.69,0.06,
4.138,-0.20,-1.25,-2.76,0.03,0.70,0.05,
4.151,-0.35,-1.32,-3.26,0.03,0.70,0.05,
4.152,-0.35,-1.32,-3.26,0.02,0.71,0.05,
4.152,-0.35,-1.32,-3.26,0.00,0.72,0.04,
4.152,-0.35,-1.32,-3.26,-0.01,0.72,0.03,
4.153,-0.35,-1.32,-3.26,-0.03,0.72,0.03,
4.153,-0.35,-1.32,-3.26,-0.04,0.72,0.03,
4.153,-0.47,-1.37,-3.62,-0.04,0.72,0.03,
4.154,-0.47,-1.37,-3.62,-0.06,0.71,0.02,
4.154,-0.47,-1.37,-3.62,-0.09,0.71,0.02,
4.154,-0.47,-1.37,-3.62,-0.09,0.70,0.02,
4.154,-0.47,-1.37,-3.62,-0.10,0.70,0.02,
4.157,-0.47,-1.37,-3.62,-0.12,0.69,0.02,
4.159,-0.65,-1.28,-3.60,-0.12,0.69,0.02,
4.159,-0.65,-1.28,-3.60,-0.13,0.68,0.01,
4.162,-0.65,-1.28,-3.60,-0.14,0.66,0.01,
4.163,-0.65,-1.28,-3.60,-0.15,0.65,0.01,
4.164,-0.65,-1.28,-3.60,-0.15,0.65,0.01,
4.166,-0.65,-1.28,-3.60,-0.15,0.63,0.01,
4.169,-0.76,-1.25,-3.32,-0.15,0.63,0.01,
4.169,-0.76,-1.25,-3.32,-0.16,0.61,0.01,
4.18,-0.76,-1.25,-3.32,-0.16,0.59,0.02,
4.181,-0.76,-1.25,-3.32,-0.16,0.58,0.02,
4.181,-0.76,-1.25,-3.32,-0.16,0.56,0.02,
4.181,-0.76,-1.25,-3.32,-0.16,0.55,0.03,
4.181,-1.04,-1.23,-2.89,-0.16,0.55,0.03,
4.182,-1.04,-1.23,-2.89,-0.16,0.53,0.03,
4.182,-1.04,-1.23,-2.89,-0.15,0.51,0.04,
4.183,-1.04,-1.23,-2.89,-0.15,0.50,0.05,
4.185,-1.04,-1.23,-2.89,-0.15,0.49,0.06,
4.187,-1.04,-1.23,-2.89,-0.14,0.48,0.07,
4.215,-1.19,-1.18,-2.42,-0.14,0.48,0.07,
4.215,-1.19,-1.18,-2.42,-0.14,0.47,0.08,
4.216,-1.19,-1.18,-2.42,-0.13,0.45,0.09,
4.216,-1.19,-1.18,-2.42,-0.12,0.45,0.10,
4.216,-1.19,-1.18,-2.42,-0.12,0.44,0.11,
4.216,-1.19,-1.18,-2.42,-0.11,0.44,0.12,
4.217,-1.32,-1.11,-1.93,-0.11,0.44,0.12,
4.217,-1.32,-1.11,-1.93,-0.10,0.43,0.13,
4.217,-1.32,-1.11,-1.93,-0.08,0.43,0.15,
4.217,-1.32,-1.11,-1.93,-0.08,0.43,0.15,
4.218,-1.32,-1.11,-1.93,-0.07,0.43,0.17,
4.218,-1.32,-1.11,-1.93,-0.05,0.43,0.18,
4.218,-1.31,-1.01,-1.42,-0.05,0.43,0.18,
4.218,-1.31,-1.01,-1.42,-0.04,0.44,0.19,
4.219,-1.31,-1.01,-1.42,-0.02,0.44,0.20,
4.219,-1.31,-1.01,-1.42,-0.01,0.45,0.21,
4.219,-1.31,-1.01,-1.42,0.00,0.46,0.22,
4.219,-1.31,-1.01,-1.42,0.02,0.47,0.23,
4.219,-1.33,-0.97,-0.94,0.02,0.47,0.23,
4.22,-1.33,-0.97,-0.94,0.04,0.48,0.24,
4.223,-1.33,-0.97,-0.94,0.06,0.50,0.27,
4.224,-1.33,-0.97,-0.94,0.07,0.50,0.27,
4.227,-1.33,-0.97,-0.94,0.08,0.52,0.29,
4.23,-1.33,-0.97,-0.94,0.10,0.54,0.30,
4.23,-1.28,-0.91,-0.66,0.10,0.54,0.30,
4.231,-1.28,-0.91,-0.66,0.11,0.55,0.32,
4.234,-1.28,-0.91,-0.66,0.14,0.58,0.34,
4.236,-1.28,-0.91,-0.66,0.14,0.59,0.35,
4.237,-1.28,-0.91,-0.66,0.15,0.60,0.37,
4.237,-1.28,-0.91,-0.66,0.16,0.62,0.38,
4.239,-1.20,-0.87,-0.66,0.16,0.62,0.38,
4.242,-1.20,-0.87,-0.66,0.17,0.63,0.40,
4.242,-1.20,-0.87,-0.66,0.18,0.65,0.42,
4.243,-1.20,-0.87,-0.66,0.18,0.65,0.43,
4.245,-1.20,-0.87,-0.66,0.18,0.66,0.44,
4.247,-1.20,-0.87,-0.66,0.18,0.66,0.46,
4.249,-0.98,-0.74,-0.76,0.18,0.66,0.46,
4.249,-0.98,-0.74,-0.76,0.18,0.66,0.47,
4.251,-0.98,-0.74,-0.76,0.18,0.66,0.49,
4.253,-0.98,-0.74,-0.76,0.18,0.66,0.49,
4.255,-0.98,-0.74,-0.76,0.17,0.66,0.50,
4.256,-0.98,-0.74,-0.76,0.17,0.65,0.51,
4.285,-0.73,-0.55,-0.76,0.17,0.65,0.51,
4.285,-0.73,-0.55,-0.76,0.17,0.64,0.52,
4.286,-0.73,-0.55,-0.76,0.16,0.62,0.53,
4.286,-0.73,-0.55,-0.76,0.16,0.61,0.53,
4.286,-0.73,-0.55,-0.76,0.16,0.58,0.53,
4.287,-0.73,-0.55,-0.76,0.16,0.56,0.53,
4.287,-0.28,-0.31,-0.52,0.16,0.56,0.53,
4.288,-0.28,-0.31,-0.52,0.16,0.54,0.53,
4.288,-0.28,-0.31,-0.52,0.16,0.50,0.52,
4.289,-0.28,-0.31,-0.52,0.17,0.49,0.52,
4.289,-0.28,-0.31,-0.52,0.17,0.47,0.51,
4.289,-0.28,-0.31,-0.52,0.17,0.45,0.50,
4.29,0.20,-0.15,-0.06,0.17,0.45,0.50,
4.29,0.20,-0.15,-0.06,0.18,0.43,0.50,
4.291,0.20,-0.15,-0.06,0.19,0.40,0.48,
4.291,0.20,-0.15,-0.06,0.19,0.39,0.48,
4.291,0.20,-0.15,-0.06,0.20,0.38,0.46,
4.292,0.20,-0.15,-0.06,0.21,0.36,0.45,
4.292,0.60,0.04,0.44,0.21,0.36,0.45,
4.293,0.60,0.04,0.44,0.22,0.35,0.44,
4.293,0.60,0.04,0.44,0.23,0.33,0.42,
4.294,0.60,0.04,0.44,0.24,0.33,0.41,
4.302,0.60,0.04,0.44,0.24,0.32,0.40,
4.303,0.60,0.04,0.44,0.26,0.32,0.39,
4.303,0.84,0.10,0.86,0.26,0.32,0.39,
4.303,0.84,0.10,0.86,0.27,0.32,0.37,
4.303,0.84,0.10,0.86,0.28,0.32,0.35,
4.304,0.84,0.10,0.86,0.28,0.32,0.35,
4.307,0.84,0.10,0.86,0.28,0.33,0.34,
4.307,0.84,0.10,0.86,0.29,0.33,0.33,
4.31,0.66,0.13,0.92,0.29,0.33,0.33,
4.31,0.66,0.13,0.92,0.29,0.34,0.32,
4.312,0.66,0.13,0.92,0.28,0.35,0.32,
4.313,0.66,0.13,0.92,0.28,0.36,0.32,
4.315,0.66,0.13,0.92,0.27,0.37,0.32,
4.316,0.66,0.13,0.92,0.26,0.38,0.32,
4.318,0.38,0.10,0.71,0.26,0.38,0.32,
4.319,0.38,0.10,0.71,0.25,0.40,0.32,
4.329,0.38,0.10,0.71,0.23,0.42,0.32,
4.329,0.38,0.10,0.71,0.21,0.43,0.33,
4.329,0.38,0.10,0.71,0.19,0.45,0.33,
4.33,0.38,0.10,0.71,0.17,0.47,0.34,
4.33,0.18,0.04,0.34,0.17,0.47,0.34,
4.33,0.18,0.04,0.34,0.14,0.49,0.35,
4.332,0.18,0.04,0.34,0.09,0.51,0.36,
4.333,0.18,0.04,0.34,0.08,0.52,0.36,
4.335,0.18,0.04,0.34,0.04,0.53,0.37,
4.383,0.18,0.04,0.34,0.01,0.55,0.38,
4.385,0.10,0.07,0.10,0.01,0.55,0.38,
4.385,0.10,0.07,0.10,-0.02,0.55,0.39,
4.385,0.10,0.07,0.10,-0.07,0.57,0.41,
4.386,0.10,0.07,0.10,-0.09,0.57,0.41,
4.386,0.10,0.07,0.10,-0.12,0.57,0.42,
4.387,0.10,0.07,0.10,-0.15,0.57,0.42,
4.387,0.21,0.12,0.22,-0.15,0.57,0.42,
4.387,0.21,0.12,0.22,-0.18,0.56,0.43,
4.388,0.21,0.12,0.22,-0.22,0.56,0.44,
4.388,0.21,0.12,0.22,-0.24,0.55,0.44,
4.388,0.21,0.12,0.22,-0.26,0.54,0.44,
4.39,0.21,0.12,0.22,-0.28,0.53,0.45,
4.391,0.35,0.19,0.54,-0.28,0.53,0.45,
4.391,0.35,0.19,0.54,-0.31,0.51,0.45,
4.393,0.35,0.19,0.54,-0.34,0.47,0.46,
4.393,0.35,0.19,0.54,-0.36,0.46,0.46,
4.394,0.35,0.19,0.54,-0.38,0.44,0.46,
4.395,0.35,0.19,0.54,-0.40,0.41,0.46,
4.395,0.53,0.37,0.90,-0.40,0.41,0.46,
4.395,0.53,0.37,0.90,-0.42,0.38,0.46,
4.396,0.53,0.37,0.90,-0.46,0.33,0.47,
4.397,0.53,0.37,0.90,-0.47,0.32,0.46,
4.397,0.53,0.37,0.90,-0.49,0.28,0.47,
4.397,0.53,0.37,0.90,-0.51,0.25,0.47,
4.398,0.78,0.51,1.21,-0.51,0.25,0.47,
4.399,0.78,0.51,1.21,-0.54,0.22,0.46,
4.399,0.78,0.51,1.21,-0.58,0.15,0.46,
4.4,0.78,0.51,1.21,-0.59,0.13,0.46,
4.4,0.78,0.51,1.21,-0.61,0.09,0.45,
4.401,0.78,0.51,1.21,-0.64,0.05,0.44,
4.401,1.03,0.65,1.60,-0.64,0.05,0.44,
4.402,1.03,0.65,1.60,-0.67,0.01,0.44,
4.403,1.03,0.65,1.60,-0.70,-0.05,0.42,
4.403,1.03,0.65,1.60,-0.71,-0.07,0.42,
4.405,1.03,0.65,1.60,-0.73,-0.10,0.41,
4.405,1.03,0.65,1.60,-0.75,-0.14,0.39,
4.406,1.40,0.76,2.43,-0.75,-0.14,0.39,
4.407,1.40,0.76,2.43,-0.76,-0.17,0.38,
4.407,1.40,0.76,2.43,-0.78,-0.21,0.36,
4.407,1.40,0.76,2.43,-0.78,-0.22,0.36,
4.408,1.40,0.76,2.43,-0.79,-0.23,0.34,
4.409,1.40,0.76,2.43,-0.80,-0.25,0.33,
4.41,1.66,0.77,3.39,-0.80,-0.25,0.33,
4.41,1.66,0.77,3.39,-0.80,-0.25,0.31,
4.417,1.66,0.77,3.39,-0.79,-0.26,0.29,
4.441,1.66,0.77,3.39,-0.79,-0.25,0.28,
4.444,1.66,0.77,3.39,-0.79,-0.24,0.26,
4.444,1.66,0.77,3.39,-0.78,-0.23,0.25,
4.445,1.81,0.59,4.23,-0.78,-0.23,0.25,
4.445,1.81,0.59,4.23,-0.77,-0.20,0.23,
4.445,1.81,0.59,4.23,-0.74,-0.16,0.22,
4.446,1.81,0.59,4.23,-0.73,-0.14,0.21,
4.473,1.81,0.59,4.23,-0.72,-0.10,0.20,
4.475,1.81,0.59,4.23,-0.70,-0.06,0.19,
4.475,1.66,0.41,4.63,-0.70,-0.06,0.19,
4.475,1.66,0.41,4.63,-0.68,-0.02,0.18,
4.476,1.66,0.41,4.63,-0.65,0.04,0.18,
4.476,1.66,0.41,4.63,-0.65,0.06,0.17,
4.477,1.66,0.41,4.63,-0.63,0.10,0.17,
4.477,1.66,0.41,4.63,-0.63,0.13,0.16,
4.478,1.42,0.33,4.21,-0.63,0.13,0.16,
4.478,1.42,0.33,4.21,-0.62,0.19,0.15,
4.478,1.42,0.33,4.21,-0.62,0.19,0.15,
4.479,1.42,0.33,4.21,-0.62,0.19,0.15,
4.479,1.42,0.33,4.21,-0.63,0.20,0.14,
4.48,1.42,0.33,4.21,-0.65,0.21,0.14,
4.48,1.11,0.55,3.18,-0.65,0.21,0.14,
4.48,1.11,0.55,3.18,-0.66,0.21,0.14,
4.481,1.11,0.55,3.18,-0.69,0.21,0.13,
4.481,1.11,0.55,3.18,-0.70,0.20,0.13,
4.482,1.11,0.55,3.18,-0.73,0.19,0.12,
4.482,1.11,0.55,3.18,-0.76,0.18,0.11,
4.483,1.08,0.85,2.16,-0.76,0.18,0.11,
4.483,1.08,0.85,2.16,-0.80,0.16,0.09,
4.483,1.08,0.85,2.16,-0.87,0.12,0.07,
4.484,1.08,0.85,2.16,-0.89,0.11,0.06,
4.484,1.08,0.85,2.16,-0.93,0.08,0.05,
4.485,1.08,0.85,2.16,-0.98,0.04,0.03,
4.485,1.12,1.05,1.50,-0.98,0.04,0.03,
4.486,1.12,1.05,1.50,-1.04,0.00,0.01,
4.486,1.12,1.05,1.50,-1.12,-0.06,-0.02,
4.486,1.12,1.05,1.50,-1.15,-0.08,-0.04,
4.487,1.12,1.05,1.50,-1.20,-0.12,-0.06,
4.487,1.12,1.05,1.50,-1.25,-0.16,-0.08,
4.487,1.34,1.20,1.85,-1.25,-0.16,-0.08,
4.488,1.34,1.20,1.85,-1.29,-0.19,-0.10,
4.488,1.34,1.20,1.85,-1.35,-0.24,-0.14,
4.488,1.34,1.20,1.85,-1.36,-0.25,-0.15,
4.489,1.34,1.20,1.85,-1.39,-0.27,-0.17,
4.489,1.34,1.20,1.85,-1.41,-0.29,-0.19,
4.489,1.50,1.09,3.19,-1.41,-0.29,-0.19,
4.49,1.50,1.09,3.19,-1.42,-0.30,-0.21,
4.502,1.50,1.09,3.19,-1.43,-0.32,-0.24,
4.502,1.50,1.09,3.19,-1.43,-0.32,-0.25,
4.503,1.50,1.09,3.19,-1.42,-0.32,-0.26,
4.503,1.50,1.09,3.19,-1.41,-0.32,-0.28,
4.503,1.53,0.87,5.02,-1.41,-0.32,-0.28,
4.503,1.53,0.87,5.02,-1.38,-0.30,-0.29,
4.504,1.53,0.87,5.02,-1.33,-0.27,-0.31,
4.504,1.53,0.87,5.02,-1.31,-0.25,-0.31,
4.504,1.53,0.87,5.02,-1.26,-0.22,-0.31,
4.511,1.53,0.87,5.02,-1.20,-0.18,-0.31,
4.511,1.31,0.61,6.75,-1.20,-0.18,-0.31,
4.511,1.31,0.61,6.75,-1.14,-0.14,-0.31,
4.513,1.31,0.61,6.75,-1.00,-0.04,-0.30,
4.513,1.31,0.61,6.75,-0.96,-0.01,-0.30,
4.515,1.31,0.61,6.75,-0.92,0.01,-0.29,
4.517,1.31,0.61,6.75,-0.84,0.06,-0.28,
4.523,0.99,0.13,7.73,-0.84,0.06,-0.28,
4.523,0.99,0.13,7.73,-0.75,0.12,-0.26,
4.524,0.99,0.13,7.73,-0.62,0.19,-0.23,
4.524,0.99,0.13,7.73,-0.57,0.22,-0.22,
4.525,0.99,0.13,7.73,-0.48,0.26,-0.20,
4.526,0.99,0.13,7.73,-0.39,0.31,-0.17,
4.529,0.64,-0.22,7.63,-0.39,0.31,-0.17,
4.529,0.64,-0.22,7.63,-0.30,0.34,-0.15,
4.532,0.64,-0.22,7.63,-0.17,0.40,-0.10,
4.533,0.64,-0.22,7.63,-0.12,0.41,-0.09,
4.535,0.64,-0.22,7.63,-0.04,0.44,-0.05,
4.554,0.64,-0.22,7.63,0.04,0.45,-0.02,
4.555,0.37,-0.41,6.57,0.04,0.45,-0.02,
4.555,0.37,-0.41,6.57,0.12,0.46,0.01,
4.555,0.37,-0.41,6.57,0.24,0.47,0.06,
4.556,0.37,-0.41,6.57,0.27,0.47,0.08,
4.556,0.37,-0.41,6.57,0.34,0.45,0.11,
4.556,0.37,-0.41,6.57,0.41,0.43,0.15,
4.556,0.28,-0.54,4.94,0.41,0.43,0.15,
4.556,0.28,-0.54,4.94,0.48,0.41,0.18,
4.556,0.28,-0.54,4.94,0.57,0.37,0.23,
4.557,0.28,-0.54,4.94,0.60,0.35,0.24,
4.557,0.28,-0.54,4.94,0.65,0.30,0.28,
4.557,0.28,-0.54,4.94,0.71,0.26,0.31,
4.559,0.39,-0.65,3.29,0.71,0.26,0.31,
4.559,0.39,-0.65,3.29,0.76,0.21,0.34,
4.562,0.39,-0.65,3.29,0.84,0.13,0.38,
4.563,0.39,-0.65,3.29,0.86,0.10,0.39,
4.565,0.39,-0.65,3.29,0.90,0.03,0.42,
4.567,0.39,-0.65,3.29,0.94,-0.03,0.44,
4.572,0.70,-0.67,1.79,0.94,-0.03,0.44,
4.573,0.70,-0.67,1.79,0.98,-0.09,0.46,
4.573,0.70,-0.67,1.79,1.02,-0.20,0.49,
4.574,0.70,-0.67,1.79,1.04,-0.23,0.50,
4.575,0.70,-0.67,1.79,1.07,-0.30,0.51,
4.577,0.70,-0.67,1.79,1.10,-0.36,0.53,
4.579,1.09,-0.75,0.53,1.10,-0.36,0.53,
4.579,1.09,-0.75,0.53,1.12,-0.42,0.54,
4.582,1.09,-0.75,0.53,1.15,-0.51,0.56,
4.582,1.09,-0.75,0.53,1.16,-0.54,0.56,
4.585,1.09,-0.75,0.53,1.18,-0.59,0.57,
4.601,1.09,-0.75,0.53,1.19,-0.64,0.57,
4.602,1.53,-0.82,-0.51,1.19,-0.64,0.57,
4.602,1.53,-0.82,-0.51,1.20,-0.68,0.57,
4.634,1.53,-0.82,-0.51,1.22,-0.74,0.57,
4.635,1.53,-0.82,-0.51,1.22,-0.76,0.57,
4.635,1.53,-0.82,-0.51,1.22,-0.79,0.57,
4.636,1.53,-0.82,-0.51,1.22,-0.81,0.57,
4.636,1.99,-0.97,-1.37,1.22,-0.81,0.57,
4.636,1.99,-0.97,-1.37,1.22,-0.83,0.56,
4.637,1.99,-0.97,-1.37,1.22,-0.87,0.55,
4.637,1.99,-0.97,-1.37,1.21,-0.87,0.55,
4.638,1.99,-0.97,-1.37,1.20,-0.88,0.54,
4.638,1.99,-0.97,-1.37,1.19,-0.89,0.53,
4.639,2.31,-1.06,-2.14,1.19,-0.89,0.53,
4.639,2.31,-1.06,-2.14,1.18,-0.90,0.52,
4.639,2.31,-1.06,-2.14,1.16,-0.90,0.50,
4.64,2.31,-1.06,-2.14,1.15,-0.90,0.49,
4.64,2.31,-1.06,-2.14,1.12,-0.90,0.47,
4.641,2.31,-1.06,-2.14,1.10,-0.90,0.45,
4.641,2.72,-1.11,-2.84,1.10,-0.90,0.45,
4.642,2.72,-1.11,-2.84,1.08,-0.90,0.43,
4.642,2.72,-1.11,-2.84,1.04,-0.89,0.40,
4.642,2.72,-1.11,-2.84,1.03,-0.89,0.39,
4.643,2.72,-1.11,-2.84,0.99,-0.88,0.36,
4.643,2.72,-1.11,-2.84,0.96,-0.87,0.34,
4.644,2.78,-1.13,-3.50,0.96,-0.87,0.34,
4.644,2.78,-1.13,-3.50,0.93,-0.85,0.31,
4.644,2.78,-1.13,-3.50,0.87,-0.83,0.27,
4.645,2.78,-1.13,-3.50,0.85,-0.82,0.26,
4.645,2.78,-1.13,-3.50,0.82,-0.81,0.23,
4.646,2.78,-1.13,-3.50,0.78,-0.79,0.20,
4.646,2.97,-1.05,-4.03,0.78,-0.79,0.20,
4.647,2.97,-1.05,-4.03,0.74,-0.77,0.17,
4.647,2.97,-1.05,-4.03,0.67,-0.73,0.12,
4.647,2.97,-1.05,-4.03,0.65,-0.72,0.10,
4.648,2.97,-1.05,-4.03,0.61,-0.70,0.07,
4.648,2.97,-1.05,-4.03,0.56,-0.67,0.03,
4.649,2.91,-1.12,-4.42,0.56,-0.67,0.03,
4.649,2.91,-1.12,-4.42,0.52,-0.65,-0.01,
4.66,2.91,-1.12,-4.42,0.45,-0.61,-0.06,
4.661,2.91,-1.12,-4.42,0.42,-0.60,-0.08,
4.661,2.91,-1.12,-4.42,0.38,-0.58,-0.12,
4.661,2.91,-1.12,-4.42,0.33,-0.55,-0.15,
4.662,2.88,-1.08,-4.68,0.33,-0.55,-0.15,
4.662,2.88,-1.08,-4.68,0.29,-0.53,-0.19,
4.662,2.88,-1.08,-4.68,0.23,-0.49,-0.25,
4.662,2.88,-1.08,-4.68,0.21,-0.48,-0.26,
4.665,2.88,-1.08,-4.68,0.16,-0.46,-0.30,
4.667,2.88,-1.08,-4.68,0.12,-0.44,-0.33,
4.675,2.48,-1.14,-4.70,0.12,-0.44,-0.33,
4.676,2.48,-1.14,-4.70,0.08,-0.42,-0.37,
4.676,2.48,-1.14,-4.70,0.03,-0.38,-0.42,
4.676,2.48,-1.14,-4.70,0.01,-0.37,-0.43,
4.676,2.48,-1.14,-4.70,-0.02,-0.35,-0.46,
4.68,2.48,-1.14,-4.70,-0.06,-0.33,-0.49,
4.68,2.11,-1.25,-4.64,-0.06,-0.33,-0.49,
4.681,2.11,-1.25,-4.64,-0.09,-0.31,-0.52,
4.682,2.11,-1.25,-4.64,-0.13,-0.28,-0.55,
4.682,2.11,-1.25,-4.64,-0.14,-0.27,-0.56,
4.69,2.11,-1.25,-4.64,-0.17,-0.25,-0.59,
4.69,2.11,-1.25,-4.64,-0.19,-0.24,-0.61,
4.69,1.48,-1.40,-4.44,-0.19,-0.24,-0.61,
4.69,1.48,-1.40,-4.44,-0.21,-0.22,-0.63,
4.693,1.48,-1.40,-4.44,-0.24,-0.21,-0.65,
4.693,1.48,-1.40,-4.44,-0.25,-0.20,-0.66,
4.695,1.48,-1.40,-4.44,-0.26,-0.19,-0.67,
4.697,1.48,-1.40,-4.44,-0.27,-0.19,-0.68,
4.699,0.98,-1.46,-4.15,-0.27,-0.19,-0.68,
4.7,0.98,-1.46,-4.15,-0.28,-0.18,-0.69,
4.703,0.98,-1.46,-4.15,-0.29,-0.18,-0.69,
4.704,0.98,-1.46,-4.15,-0.29,-0.18,-0.70,
4.707,0.98,-1.46,-4.15,-0.29,-0.18,-0.70,
4.707,0.98,-1.46,-4.15,-0.29,-0.18,-0.70,
4.709,0.42,-1.53,-3.78,-0.29,-0.18,-0.70,
4.709,0.42,-1.53,-3.78,-0.29,-0.19,-0.70,
4.712,0.42,-1.53,-3.78,-0.28,-0.20,-0.69,
4.713,0.42,-1.53,-3.78,-0.28,-0.21,-0.69,
4.715,0.42,-1.53,-3.78,-0.27,-0.22,-0.68,
4.717,0.42,-1.53,-3.78,-0.26,-0.24,-0.68,
4.722,0.03,-1.53,-3.43,-0.26,-0.24,-0.68,
4.723,0.03,-1.53,-3.43,-0.25,-0.25,-0.67,
4.723,0.03,-1.53,-3.43,-0.23,-0.28,-0.66,
4.723,0.03,-1.53,-3.43,-0.22,-0.29,-0.66,
4.725,0.03,-1.53,-3.43,-0.20,-0.31,-0.65,
4.727,0.03,-1.53,-3.43,-0.18,-0.33,-0.64,
4.729,-0.23,-1.49,-3.06,-0.18,-0.33,-0.64,
4.73,-0.23,-1.49,-3.06,-0.17,-0.34,-0.63,
4.732,-0.23,-1.49,-3.06,-0.13,-0.37,-0.61,
4.733,-0.23,-1.49,-3.06,-0.12,-0.38,-0.61,
4.747,-0.23,-1.49,-3.06,-0.10,-0.40,-0.60,
4.749,-0.23,-1.49,-3.06,-0.08,-0.42,-0.58,
4.749,-0.42,-1.43,-2.72,-0.08,-0.42,-0.58,
4.75,-0.42,-1.43,-2.72,-0.06,-0.44,-0.57,
4.75,-0.42,-1.43,-2.72,-0.02,-0.47,-0.56,
4.751,-0.42,-1.43,-2.72,-0.01,-0.49,-0.55,
4.751,-0.42,-1.43,-2.72,0.02,-0.50,-0.54,
4.751,-0.42,-1.43,-2.72,0.04,-0.52,-0.53,
4.751,-0.49,-1.39,-2.50,0.04,-0.52,-0.53,
4.751,-0.49,-1.39,-2.50,0.06,-0.54,-0.52,
4.752,-0.49,-1.39,-2.50,0.09,-0.57,-0.50,
4.784,-0.49,-1.39,-2.50,0.10,-0.58,-0.50,
4.784,-0.49,-1.39,-2.50,0.12,-0.60,-0.48,
4.785,-0.49,-1.39,-2.50,0.13,-0.62,-0.47,
4.803,-0.52,-1.30,-2.41,0.13,-0.62,-0.47,
4.803,-0.52,-1.30,-2.41,0.14,-0.63,-0.46,
4.804,-0.52,-1.30,-2.41,0.17,-0.66,-0.45,
4.804,-0.52,-1.30,-2.41,0.18,-0.66,-0.44,
4.804,-0.52,-1.30,-2.41,0.19,-0.68,-0.43,
4.804,-0.52,-1.30,-2.41,0.20,-0.69,-0.42,
4.805,-0.52,-1.20,-2.29,0.20,-0.69,-0.42,
4.805,-0.52,-1.20,-2.29,0.21,-0.70,-0.40,
4.805,-0.52,-1.20,-2.29,0.23,-0.72,-0.39,
4.805,-0.52,-1.20,-2.29,0.23,-0.72,-0.38,
4.806,-0.52,-1.20,-2.29,0.24,-0.73,-0.37,
4.806,-0.52,-1.20,-2.29,0.25,-0.73,-0.36,
4.806,-0.40,-1.11,-2.08,0.25,-0.73,-0.36,
4.806,-0.40,-1.11,-2.08,0.26,-0.73,-0.36,
4.807,-0.40,-1.11,-2.08,0.27,-0.74,-0.35,
4.807,-0.40,-1.11,-2.08,0.27,-0.74,-0.35,
4.807,-0.40,-1.11,-2.08,0.27,-0.74,-0.35,
4.807,-0.40,-1.11,-2.08,0.28,-0.75,-0.34,
4.807,-0.16,-0.95,-1.97,0.28,-0.75,-0.34,
4.808,-0.16,-0.95,-1.97,0.28,-0.74,-0.35,
4.808,-0.16,-0.95,-1.97,0.28,-0.74,-0.35,
4.808,-0.16,-0.95,-1.97,0.28,-0.74,-0.35,
4.808,-0.16,-0.95,-1.97,0.28,-0.74,-0.36,
4.808,-0.16,-0.95,-1.97,0.28,-0.73,-0.37,
4.809,0.06,-0.72,-1.88,0.28,-0.73,-0.37,
4.809,0.06,-0.72,-1.88,0.28,-0.72,-0.38,
4.809,0.06,-0.72,-1.88,0.28,-0.72,-0.39,
4.809,0.06,-0.72,-1.88,0.28,-0.71,-0.40,
4.81,0.06,-0.72,-1.88,0.27,-0.70,-0.41,
4.81,0.06,-0.72,-1.88,0.26,-0.69,-0.42,
4.81,0.12,-0.55,-1.77,0.26,-0.69,-0.42,
4.81,0.12,-0.55,-1.77,0.25,-0.67,-0.43,
4.814,0.12,-0.55,-1.77,0.24,-0.65,-0.45,
4.815,0.12,-0.55,-1.77,0.23,-0.63,-0.46,
4.815,0.12,-0.55,-1.77,0.22,-0.62,-0.47,
4.817,0.12,-0.55,-1.77,0.21,-0.60,-0.48,
4.827,0.09,-0.50,-1.72,0.21,-0.60,-0.48,
4.828,0.09,-0.50,-1.72,0.20,-0.58,-0.49,
4.828,0.09,-0.50,-1.72,0.18,-0.55,-0.51,
4.828,0.09,-0.50,-1.72,0.18,-0.55,-0.51,
4.828,0.09,-0.50,-1.72,0.16,-0.53,-0.52,
4.828,0.09,-0.50,-1.72,0.15,-0.50,-0.53,
4.829,-0.15,-0.40,-1.68,0.15,-0.50,-0.53,
4.829,-0.15,-0.40,-1.68,0.14,-0.48,-0.54,
4.832,-0.15,-0.40,-1.68,0.11,-0.45,-0.55,
4.833,-0.15,-0.40,-1.68,0.10,-0.44,-0.56,
4.835,-0.15,-0.40,-1.68,0.09,-0.42,-0.56,
4.837,-0.15,-0.40,-1.68,0.08,-0.40,-0.57,
4.84,-0.47,-0.25,-1.66,0.08,-0.40,-0.57,
4.841,-0.47,-0.25,-1.66,0.06,-0.38,-0.58,
4.842,-0.47,-0.25,-1.66,0.03,-0.35,-0.59,
4.843,-0.47,-0.25,-1.66,0.02,-0.34,-0.59,
4.845,-0.47,-0.25,-1.66,0.00,-0.33,-0.60,
4.847,-0.47,-0.25,-1.66,-0.01,-0.32,-0.60,
4.849,-0.68,-0.18,-1.71,-0.01,-0.32,-0.60,
4.849,-0.68,-0.18,-1.71,-0.04,-0.30,-0.61,
4.852,-0.68,-0.18,-1.71,-0.07,-0.29,-0.62,
4.853,-0.68,-0.18,-1.71,-0.08,-0.29,-0.62,
4.855,-0.68,-0.18,-1.71,-0.10,-0.28,-0.63,
4.857,-0.68,-0.18,-1.71,-0.13,-0.28,-0.64,
4.858,-0.91,-0.02,-1.71,-0.13,-0.28,-0.64,
4.859,-0.91,-0.02,-1.71,-0.15,-0.27,-0.65,
4.862,-0.91,-0.02,-1.71,-0.19,-0.26,-0.66,
4.863,-0.91,-0.02,-1.71,-0.20,-0.25,-0.66,
4.864,-0.91,-0.02,-1.71,-0.21,-0.25,-0.66,
4.867,-0.91,-0.02,-1.71,-0.24,-0.24,-0.67,
4.874,-1.07,0.15,-1.57,-0.24,-0.24,-0.67,
4.874,-1.07,0.15,-1.57,-0.26,-0.24,-0.68,
4.874,-1.07,0.15,-1.57,-0.29,-0.23,-0.69,
4.874,-1.07,0.15,-1.57,-0.30,-0.22,-0.69,
4.874,-1.07,0.15,-1.57,-0.33,-0.21,-0.70,
4.877,-1.07,0.15,-1.57,-0.35,-0.20,-0.70,
4.883,-1.32,0.29,-1.35,-0.35,-0.20,-0.70,
4.883,-1.32,0.29,-1.35,-0.37,-0.19,-0.71,
4.883,-1.32,0.29,-1.35,-0.40,-0.16,-0.72,
4.883,-1.32,0.29,-1.35,-0.41,-0.16,-0.72,
4.893,-1.32,0.29,-1.35,-0.42,-0.14,-0.72,
4.893,-1.32,0.29,-1.35,-0.45,-0.12,-0.73,
4.894,-1.44,0.41,-1.05,-0.45,-0.12,-0.73,
4.894,-1.44,0.41,-1.05,-0.47,-0.11,-0.74,
4.894,-1.44,0.41,-1.05,-0.49,-0.08,-0.74,
4.894,-1.44,0.41,-1.05,-0.51,-0.07,-0.74,
4.894,-1.44,0.41,-1.05,-0.52,-0.05,-0.75,
4.897,-1.44,0.41,-1.05,-0.54,-0.03,-0.75,
4.899,-1.69,0.52,-0.73,-0.54,-0.03,-0.75,
4.899,-1.69,0.52,-0.73,-0.55,-0.01,-0.75,
4.901,-1.69,0.52,-0.73,-0.58,0.02,-0.76,
4.903,-1.69,0.52,-0.73,-0.59,0.03,-0.75,
4.904,-1.69,0.52,-0.73,-0.60,0.05,-0.75,
4.906,-1.69,0.52,-0.73,-0.62,0.07,-0.75,
4.909,-1.86,0.60,-0.45,-0.62,0.07,-0.75,
4.909,-1.86,0.60,-0.45,-0.63,0.08,-0.75,
4.911,-1.86,0.60,-0.45,-0.66,0.10,-0.75,
4.913,-1.86,0.60,-0.45,-0.67,0.11,-0.75,
4.914,-1.86,0.60,-0.45,-0.68,0.12,-0.74,
4.916,-1.86,0.60,-0.45,-0.70,0.13,-0.74,
4.919,-2.02,0.77,-0.18,-0.70,0.13,-0.74,
4.919,-2.02,0.77,-0.18,-0.71,0.14,-0.74,
4.921,-2.02,0.77,-0.18,-0.73,0.15,-0.74,
4.923,-2.02,0.77,-0.18,-0.74,0.16,-0.74,
4.941,-2.02,0.77,-0.18,-0.75,0.16,-0.74,
4.941,-2.02,0.77,-0.18,-0.76,0.17,-0.74,
4.941,-2.03,0.97,0.24,-0.76,0.17,-0.74,
4.941,-2.03,0.97,0.24,-0.77,0.18,-0.74,
4.942,-2.03,0.97,0.24,-0.79,0.18,-0.74,
4.942,-2.03,0.97,0.24,-0.79,0.18,-0.74,
4.942,-2.03,0.97,0.24,-0.80,0.18,-0.74,
4.942,-2.10,1.21,0.62,-0.80,0.18,-0.74,
4.942,-2.10,1.21,0.62,-0.82,0.18,-0.74,
4.942,-2.10,1.21,0.62,-0.82,0.18,-0.74,
4.943,-2.10,1.21,0.62,-0.83,0.18,-0.74,
4.943,-2.10,1.21,0.62,-0.85,0.18,-0.74,
4.945,-2.10,1.21,0.62,-0.86,0.18,-0.74,
4.947,-2.10,1.21,0.62,-0.86,0.18,-0.73,
4.949,-2.22,1.27,1.03,-0.86,0.18,-0.73,
4.949,-2.22,1.27,1.03,-0.86,0.18,-0.72,
4.952,-2.22,1.27,1.03,-0.87,0.18,-0.71,
4.953,-2.22,1.27,1.03,-0.88,0.18,-0.70,
4.955,-2.22,1.27,1.03,-0.88,0.18,-0.70,
4.957,-2.22,1.27,1.03,-0.88,0.19,-0.69,
4.959,-2.47,1.34,1.61,-0.88,0.19,-0.69,
4.959,-2.47,1.34,1.61,-0.88,0.19,-0.68,
4.961,-2.47,1.34,1.61,-0.88,0.20,-0.66,
4.962,-2.47,1.34,1.61,-0.88,0.20,-0.65,
4.964,-2.47,1.34,1.61,-0.87,0.21,-0.64,
4.966,-2.47,1.34,1.61,-0.86,0.22,-0.62,
4.97,-2.64,1.34,2.41,-0.86,0.22,-0.62,
4.97,-2.64,1.34,2.41,-0.85,0.23,-0.60,
4.972,-2.64,1.34,2.41,-0.83,0.25,-0.57,
4.973,-2.64,1.34,2.41,-0.82,0.26,-0.56,
4.975,-2.64,1.34,2.41,-0.80,0.27,-0.54,
4.976,-2.64,1.34,2.41,-0.77,0.28,-0.52,
4.979,-2.84,1.36,3.19,-0.77,0.28,-0.52,
4.979,-2.84,1.36,3.19,-0.75,0.30,-0.50,
4.981,-2.84,1.36,3.19,-0.71,0.32,-0.47,
4.983,-2.84,1.36,3.19,-0.70,0.33,-0.46,
4.991,-2.84,1.36,3.19,-0.66,0.36,-0.43,
4.992,-2.84,1.36,3.19,-0.63,0.37,-0.41,
4.992,-2.85,1.44,3.71,-0.63,0.37,-0.41,
4.992,-2.85,1.44,3.71,-0.60,0.40,-0.38,
4.993,-2.85,1.44,3.71,-0.56,0.43,-0.35,
4.993,-2.85,1.44,3.71,-0.54,0.44,-0.34,
4.995,-2.85,1.44,3.71,-0.51,0.47,-0.31,
4.997,-2.85,1.44,3.71,-0.48,0.49,-0.29,
4.999,-2.89,1.51,3.72,-0.48,0.49,-0.29,
4.999,-2.89,1.51,3.72,-0.46,0.50,-0.26,
5.02,-2.89,1.51,3.72,-0.43,0.53,-0.23,
5.02,-2.89,1.51,3.72,-0.42,0.54,-0.21,
5.021,-2.89,1.51,3.72,-0.40,0.55,-0.19,
5.021,-2.89,1.51,3.72,-0.39,0.56,-0.17,
5.022,-2.83,1.63,3.18,-0.39,0.56,-0.17,
5.022,-2.83,1.63,3.18,-0.39,0.56,-0.15,
5.024,-2.83,1.63,3.18,-0.38,0.57,-0.11,
5.024,-2.83,1.63,3.18,-0.38,0.56,-0.09,
5.024,-2.83,1.63,3.18,-0.38,0.55,-0.07,
5.025,-2.83,1.63,3.18,-0.38,0.53,-0.05,
5.026,-2.88,1.95,2.50,-0.38,0.53,-0.05,
5.026,-2.88,1.95,2.50,-0.39,0.51,-0.03,
5.027,-2.88,1.95,2.50,-0.41,0.47,-0.00,
5.027,-2.88,1.95,2.50,-0.43,0.42,0.02,
5.027,-2.88,1.95,2.50,-0.44,0.40,0.03,
