
time,ax,ay,az,wx,wy,wz,
0.002,-1.06,0.12,0.44,-0.86,0.64,1.32,
0.002,-0.84,0.28,1.76,-0.86,0.64,1.32,
0.003,-0.84,0.28,1.76,-0.81,0.68,1.34,
0.003,-0.84,0.28,1.76,-0.76,0.71,1.34,
0.003,-0.84,0.28,1.76,-0.71,0.73,1.35,
0.004,-0.84,0.28,1.76,-0.65,0.75,1.35,
0.004,-0.84,0.28,1.76,-0.59,0.76,1.34,
0.014,-0.15,0.21,2.54,-0.59,0.76,1.34,
0.014,-0.15,0.21,2.54,-0.53,0.76,1.33,
0.014,-0.15,0.21,2.54,-0.47,0.75,1.32,
0.015,-0.15,0.21,2.54,-0.41,0.74,1.30,
0.015,-0.15,0.21,2.54,-0.35,0.72,1.28,
0.015,-0.15,0.21,2.54,-0.29,0.68,1.26,
0.016,0.52,0.08,2.46,-0.29,0.68,1.26,
0.016,0.52,0.08,2.46,-0.24,0.65,1.24,
0.017,0.52,0.08,2.46,-0.19,0.61,1.21,
0.019,0.52,0.08,2.46,-0.16,0.56,1.19,
0.021,0.52,0.08,2.46,-0.12,0.50,1.17,
0.024,0.52,0.08,2.46,-0.09,0.45,1.15,
0.025,0.82,0.19,1.88,-0.09,0.45,1.15,
0.025,0.82,0.19,1.88,-0.08,0.40,1.13,
0.027,0.82,0.19,1.88,-0.06,0.36,1.11,
0.029,0.82,0.19,1.88,-0.05,0.33,1.10,
0.031,0.82,0.19,1.88,-0.04,0.29,1.08,
0.033,0.82,0.19,1.88,-0.04,0.26,1.06,
0.036,0.64,0.37,1.30,-0.04,0.26,1.06,
0.036,0.64,0.37,1.30,-0.03,0.23,1.05,
0.059,0.64,0.37,1.30,-0.03,0.21,1.03,
0.059,0.64,0.37,1.30,-0.03,0.18,1.02,
0.059,0.64,0.37,1.30,-0.03,0.16,1.00,
0.059,0.64,0.37,1.30,-0.03,0.13,0.99,
0.06,0.32,0.21,1.16,-0.03,0.13,0.99,
0.06,0.32,0.21,1.16,-0.04,0.11,0.98,
0.06,0.32,0.21,1.16,-0.04,0.09,0.98,
0.06,0.32,0.21,1.16,-0.04,0.06,0.97,
0.06,0.32,0.21,1.16,-0.04,0.05,0.97,
0.061,0.32,0.21,1.16,-0.05,0.03,0.97,
0.061,-0.29,-0.07,1.35,-0.05,0.03,0.97,
0.061,-0.29,-0.07,1.35,-0.05,0.02,0.98,
0.061,-0.29,-0.07,1.35,-0.05,0.01,0.99,
0.063,-0.29,-0.07,1.35,-0.05,0.01,1.01,
0.064,-0.29,-0.07,1.35,-0.05,0.01,1.02,
0.064,-0.29,-0.07,1.35,-0.05,0.01,1.03,
0.072,-0.85,-0.32,1.61,-0.05,0.01,1.03,
0.073,-0.85,-0.32,1.61,-0.06,0.01,1.06,
0.073,-0.85,-0.32,1.61,-0.06,0.01,1.08,
0.077,-0.85,-0.32,1.61,-0.07,0.02,1.11,
0.078,-0.85,-0.32,1.61,-0.07,0.04,1.13,
0.078,-0.85,-0.32,1.61,-0.06,0.07,1.16,
0.078,-1.14,-0.41,1.73,-0.06,0.07,1.16,
0.078,-1.14,-0.41,1.73,-0.06,0.10,1.18,
0.078,-1.14,-0.41,1.73,-0.05,0.14,1.20,
0.081,-1.14,-0.41,1.73,-0.04,0.17,1.21,
0.081,-1.14,-0.41,1.73,-0.02,0.19,1.22,
0.083,-1.14,-0.41,1.73,-0.01,0.22,1.24,
0.085,-0.89,-0.75,1.88,-0.01,0.22,1.24,
0.085,-0.89,-0.75,1.88,0.00,0.24,1.24,
0.087,-0.89,-0.75,1.88,0.02,0.27,1.25,
0.089,-0.89,-0.75,1.88,0.04,0.30,1.25,
0.091,-0.89,-0.75,1.88,0.06,0.33,1.25,
0.093,-0.89,-0.75,1.88,0.08,0.35,1.25,
0.095,-0.47,-0.98,1.83,0.08,0.35,1.25,
0.095,-0.47,-0.98,1.83,0.09,0.38,1.24,
0.097,-0.47,-0.98,1.83,0.12,0.40,1.24,
0.099,-0.47,-0.98,1.83,0.14,0.42,1.23,
0.101,-0.47,-0.98,1.83,0.15,0.44,1.23,
0.105,-0.47,-0.98,1.83,0.17,0.46,1.22,
0.106,-0.30,-0.90,1.58,0.17,0.46,1.22,
0.106,-0.30,-0.90,1.58,0.18,0.47,1.22,
0.108,-0.30,-0.90,1.58,0.19,0.48,1.22,
0.109,-0.30,-0.90,1.58,0.20,0.49,1.22,
0.111,-0.30,-0.90,1.58,0.21,0.51,1.22,
0.113,-0.30,-0.90,1.58,0.22,0.52,1.22,
0.116,-0.45,-0.62,1.00,0.22,0.52,1.22,
0.116,-0.45,-0.62,1.00,0.22,0.53,1.21,
0.117,-0.45,-0.62,1.00,0.22,0.55,1.21,
0.121,-0.45,-0.62,1.00,0.22,0.56,1.21,
0.122,-0.45,-0.62,1.00,0.22,0.58,1.20,
0.123,-0.45,-0.62,1.00,0.21,0.59,1.20,
0.125,-0.55,-0.52,0.24,0.21,0.59,1.20,
0.126,-0.55,-0.52,0.24,0.21,0.60,1.19,
0.127,-0.55,-0.52,0.24,0.20,0.61,1.19,
0.129,-0.55,-0.52,0.24,0.18,0.62,1.18,
0.132,-0.55,-0.52,0.24,0.17,0.63,1.18,
0.135,-0.55,-0.52,0.24,0.16,0.63,1.17,
0.136,-0.65,-0.53,-0.54,0.16,0.63,1.17,
0.136,-0.65,-0.53,-0.54,0.14,0.64,1.17,
0.137,-0.65,-0.53,-0.54,0.12,0.64,1.17,
0.139,-0.65,-0.53,-0.54,0.09,0.65,1.16,
0.146,-0.65,-0.53,-0.54,0.07,0.65,1.16,
0.147,-0.65,-0.53,-0.54,0.05,0.64,1.16,
0.148,-0.91,-0.47,-1.21,0.05,0.64,1.16,
0.148,-0.91,-0.47,-1.21,0.02,0.64,1.16,
0.148,-0.91,-0.47,-1.21,-0.01,0.64,1.16,
0.15,-0.91,-0.47,-1.21,-0.04,0.64,1.16,
0.151,-0.91,-0.47,-1.21,-0.07,0.63,1.16,
0.154,-0.91,-0.47,-1.21,-0.10,0.62,1.16,
0.156,-1.07,-0.42,-1.65,-0.10,0.62,1.16,
0.156,-1.07,-0.42,-1.65,-0.14,0.62,1.15,
0.157,-1.07,-0.42,-1.65,-0.17,0.60,1.16,
0.16,-1.07,-0.42,-1.65,-0.21,0.59,1.16,
0.161,-1.07,-0.42,-1.65,-0.25,0.57,1.16,
0.163,-1.07,-0.42,-1.65,-0.29,0.56,1.16,
0.166,-1.30,-0.41,-1.95,-0.29,0.56,1.16,
0.166,-1.30,-0.41,-1.95,-0.33,0.54,1.16,
0.167,-1.30,-0.41,-1.95,-0.37,0.52,1.16,
0.169,-1.30,-0.41,-1.95,-0.41,0.50,1.16,
0.172,-1.30,-0.41,-1.95,-0.46,0.49,1.17,
0.174,-1.30,-0.41,-1.95,-0.50,0.47,1.17,
0.177,-1.47,-0.35,-1.85,-0.50,0.47,1.17,
0.178,-1.47,-0.35,-1.85,-0.54,0.46,1.18,
0.179,-1.47,-0.35,-1.85,-0.58,0.44,1.18,
0.18,-1.47,-0.35,-1.85,-0.62,0.43,1.19,
0.182,-1.47,-0.35,-1.85,-0.66,0.42,1.20,
0.184,-1.47,-0.35,-1.85,-0.69,0.41,1.21,
0.204,-1.71,-0.40,-1.31,-0.69,0.41,1.21,
0.204,-1.71,-0.40,-1.31,-0.73,0.40,1.21,
0.204,-1.71,-0.40,-1.31,-0.76,0.39,1.22,
0.205,-1.71,-0.40,-1.31,-0.79,0.37,1.23,
0.205,-1.71,-0.40,-1.31,-0.82,0.37,1.24,
0.205,-1.71,-0.40,-1.31,-0.84,0.35,1.25,
0.205,-1.66,-0.48,-0.42,-0.84,0.35,1.25,
0.205,-1.66,-0.48,-0.42,-0.87,0.33,1.27,
0.206,-1.66,-0.48,-0.42,-0.89,0.31,1.28,
0.206,-1.66,-0.48,-0.42,-0.91,0.29,1.30,
0.206,-1.66,-0.48,-0.42,-0.93,0.28,1.31,
0.206,-1.66,-0.48,-0.42,-0.94,0.27,1.33,
0.22,-1.78,-0.53,0.39,-0.94,0.27,1.33,
0.22,-1.78,-0.53,0.39,-0.95,0.26,1.35,
0.22,-1.78,-0.53,0.39,-0.96,0.25,1.36,
0.221,-1.78,-0.53,0.39,-0.96,0.24,1.38,
0.221,-1.78,-0.53,0.39,-0.96,0.24,1.39,
0.221,-1.78,-0.53,0.39,-0.95,0.23,1.41,
0.221,-1.70,-0.54,1.20,-0.95,0.23,1.41,
0.221,-1.70,-0.54,1.20,-0.94,0.22,1.42,
0.222,-1.70,-0.54,1.20,-0.94,0.20,1.43,
0.222,-1.70,-0.54,1.20,-0.93,0.19,1.45,
0.224,-1.70,-0.54,1.20,-0.91,0.18,1.46,
0.224,-1.70,-0.54,1.20,-0.89,0.17,1.47,
0.226,-1.57,-0.53,1.90,-0.89,0.17,1.47,
0.229,-1.57,-0.53,1.90,-0.86,0.18,1.49,
0.229,-1.57,-0.53,1.90,-0.83,0.18,1.50,
0.23,-1.57,-0.53,1.90,-0.80,0.18,1.51,
0.231,-1.57,-0.53,1.90,-0.76,0.18,1.52,
0.233,-1.57,-0.53,1.90,-0.73,0.19,1.52,
0.236,-1.10,-0.59,2.39,-0.73,0.19,1.52,
0.256,-1.10,-0.59,2.39,-0.69,0.19,1.52,
0.256,-1.10,-0.59,2.39,-0.65,0.19,1.52,
0.256,-1.10,-0.59,2.39,-0.61,0.19,1.52,
0.257,-1.10,-0.59,2.39,-0.56,0.18,1.51,
0.257,-1.10,-0.59,2.39,-0.52,0.18,1.51,
0.257,-0.55,-0.58,2.65,-0.52,0.18,1.51,
0.257,-0.55,-0.58,2.65,-0.47,0.18,1.50,
0.258,-0.55,-0.58,2.65,-0.43,0.19,1.48,
0.258,-0.55,-0.58,2.65,-0.38,0.19,1.47,
0.258,-0.55,-0.58,2.65,-0.33,0.20,1.45,
0.259,-0.55,-0.58,2.65,-0.28,0.20,1.43,
0.259,-0.02,-0.48,2.57,-0.28,0.20,1.43,
0.259,-0.02,-0.48,2.57,-0.24,0.20,1.41,
0.259,-0.02,-0.48,2.57,-0.20,0.20,1.39,
0.261,-0.02,-0.48,2.57,-0.14,0.20,1.35,
0.261,-0.02,-0.48,2.57,-0.12,0.20,1.34,
0.265,-0.02,-0.48,2.57,-0.08,0.20,1.32,
0.267,0.31,-0.46,2.16,-0.08,0.20,1.32,
0.267,0.31,-0.46,2.16,-0.05,0.20,1.30,
0.267,0.31,-0.46,2.16,-0.03,0.19,1.28,
0.27,0.31,-0.46,2.16,-0.00,0.19,1.26,
0.272,0.31,-0.46,2.16,0.01,0.19,1.24,
0.273,0.31,-0.46,2.16,0.03,0.19,1.23,
0.276,0.25,-0.37,1.48,0.03,0.19,1.23,
0.276,0.25,-0.37,1.48,0.05,0.19,1.21,
0.277,0.25,-0.37,1.48,0.06,0.19,1.19,
0.279,0.25,-0.37,1.48,0.06,0.19,1.18,
0.281,0.25,-0.37,1.48,0.07,0.19,1.16,
0.283,0.25,-0.37,1.48,0.06,0.18,1.15,
0.287,0.09,-0.27,0.72,0.06,0.18,1.15,
0.288,0.09,-0.27,0.72,0.06,0.18,1.13,
0.288,0.09,-0.27,0.72,0.05,0.18,1.12,
0.289,0.09,-0.27,0.72,0.04,0.17,1.10,
0.291,0.09,-0.27,0.72,0.03,0.17,1.09,
0.293,0.09,-0.27,0.72,0.01,0.17,1.07,
0.296,0.01,-0.29,0.11,0.01,0.17,1.07,
0.296,0.01,-0.29,0.11,-0.00,0.17,1.06,
0.297,0.01,-0.29,0.11,-0.02,0.17,1.05,
0.299,0.01,-0.29,0.11,-0.04,0.17,1.04,
0.301,0.01,-0.29,0.11,-0.05,0.18,1.03,
0.306,0.01,-0.29,0.11,-0.07,0.19,1.02,
0.306,-0.16,-0.40,-0.12,-0.07,0.19,1.02,
0.306,-0.16,-0.40,-0.12,-0.08,0.19,1.01,
0.307,-0.16,-0.40,-0.12,-0.10,0.20,1.00,
0.309,-0.16,-0.40,-0.12,-0.11,0.21,1.00,
0.311,-0.16,-0.40,-0.12,-0.13,0.20,1.00,
0.313,-0.16,-0.40,-0.12,-0.15,0.21,1.01,
0.316,-0.43,-0.40,-0.11,-0.15,0.21,1.01,
0.316,-0.43,-0.40,-0.11,-0.17,0.21,1.01,
0.317,-0.43,-0.40,-0.11,-0.18,0.22,1.01,
0.319,-0.43,-0.40,-0.11,-0.19,0.23,1.02,
0.321,-0.43,-0.40,-0.11,-0.21,0.24,1.02,
0.323,-0.43,-0.40,-0.11,-0.22,0.25,1.03,
0.325,-0.59,-0.43,-0.06,-0.22,0.25,1.03,
0.325,-0.59,-0.43,-0.06,-0.23,0.25,1.03,
0.327,-0.59,-0.43,-0.06,-0.24,0.24,1.04,
0.329,-0.59,-0.43,-0.06,-0.25,0.23,1.04,
0.331,-0.59,-0.43,-0.06,-0.25,0.23,1.05,
0.333,-0.59,-0.43,-0.06,-0.25,0.25,1.05,
0.35,-0.61,-0.39,0.11,-0.25,0.25,1.05,
0.35,-0.61,-0.39,0.11,-0.25,0.27,1.05,
0.351,-0.61,-0.39,0.11,-0.24,0.29,1.05,
0.351,-0.61,-0.39,0.11,-0.23,0.31,1.05,
0.351,-0.61,-0.39,0.11,-0.22,0.32,1.05,
0.351,-0.61,-0.39,0.11,-0.21,0.32,1.04,
0.351,-0.32,-0.43,0.39,-0.21,0.32,1.04,
0.351,-0.32,-0.43,0.39,-0.20,0.33,1.04,
0.351,-0.32,-0.43,0.39,-0.18,0.34,1.04,
0.351,-0.32,-0.43,0.39,-0.17,0.35,1.03,
0.351,-0.32,-0.43,0.39,-0.15,0.36,1.03,
0.353,-0.32,-0.43,0.39,-0.12,0.38,1.02,
0.359,0.02,-0.50,0.70,-0.12,0.38,1.02,
0.36,0.02,-0.50,0.70,-0.10,0.38,1.01,
0.36,0.02,-0.50,0.70,-0.08,0.39,1.01,
0.36,0.02,-0.50,0.70,-0.05,0.40,1.00,
0.361,0.02,-0.50,0.70,-0.02,0.40,0.99,
0.363,0.02,-0.50,0.70,-0.00,0.40,0.99,
0.369,0.28,-0.58,0.91,-0.00,0.40,0.99,
0.37,0.28,-0.58,0.91,0.03,0.40,0.97,
0.37,0.28,-0.58,0.91,0.06,0.39,0.96,
0.37,0.28,-0.58,0.91,0.09,0.39,0.96,
0.371,0.28,-0.58,0.91,0.11,0.39,0.94,
0.373,0.28,-0.58,0.91,0.14,0.38,0.93,
0.375,0.43,-0.54,0.93,0.14,0.38,0.93,
0.376,0.43,-0.54,0.93,0.17,0.38,0.92,
0.377,0.43,-0.54,0.93,0.19,0.37,0.91,
0.379,0.43,-0.54,0.93,0.22,0.36,0.90,
0.381,0.43,-0.54,0.93,0.24,0.35,0.89,
0.383,0.43,-0.54,0.93,0.27,0.33,0.88,
0.385,0.49,-0.42,0.80,0.27,0.33,0.88,
0.386,0.49,-0.42,0.80,0.29,0.32,0.87,
0.387,0.49,-0.42,0.80,0.31,0.31,0.86,
0.389,0.49,-0.42,0.80,0.33,0.29,0.85,
0.391,0.49,-0.42,0.80,0.34,0.29,0.84,
0.393,0.49,-0.42,0.80,0.36,0.28,0.83,
0.395,0.46,-0.41,0.60,0.36,0.28,0.83,
0.396,0.46,-0.41,0.60,0.38,0.27,0.83,
0.397,0.46,-0.41,0.60,0.40,0.27,0.82,
0.399,0.46,-0.41,0.60,0.41,0.27,0.81,
0.402,0.46,-0.41,0.60,0.42,0.26,0.80,
0.421,0.46,-0.41,0.60,0.44,0.26,0.80,
0.421,0.40,-0.51,0.27,0.44,0.26,0.80,
0.422,0.40,-0.51,0.27,0.44,0.26,0.80,
0.422,0.40,-0.51,0.27,0.45,0.26,0.79,
0.422,0.40,-0.51,0.27,0.46,0.25,0.79,
0.422,0.40,-0.51,0.27,0.46,0.25,0.78,
0.422,0.40,-0.51,0.27,0.46,0.25,0.78,
0.423,0.24,-0.52,-0.16,0.46,0.25,0.78,
0.423,0.24,-0.52,-0.16,0.45,0.25,0.78,
0.423,0.24,-0.52,-0.16,0.45,0.25,0.78,
0.424,0.24,-0.52,-0.16,0.45,0.25,0.78,
0.424,0.24,-0.52,-0.16,0.44,0.25,0.78,
0.424,0.24,-0.52,-0.16,0.43,0.25,0.78,
0.428,0.08,-0.47,-0.52,0.43,0.25,0.78,
0.428,0.08,-0.47,-0.52,0.42,0.25,0.78,
0.428,0.08,-0.47,-0.52,0.42,0.25,0.79,
0.429,0.08,-0.47,-0.52,0.41,0.25,0.79,
0.431,0.08,-0.47,-0.52,0.39,0.25,0.79,
0.433,0.08,-0.47,-0.52,0.38,0.25,0.80,
0.435,0.01,-0.46,-0.75,0.38,0.25,0.80,
0.436,0.01,-0.46,-0.75,0.37,0.25,0.80,
0.438,0.01,-0.46,-0.75,0.36,0.24,0.81,
0.44,0.01,-0.46,-0.75,0.34,0.24,0.81,
0.442,0.01,-0.46,-0.75,0.33,0.24,0.82,
0.443,0.01,-0.46,-0.75,0.32,0.23,0.82,
0.445,0.03,-0.54,-0.80,0.32,0.23,0.82,
0.446,0.03,-0.54,-0.80,0.31,0.23,0.82,
0.447,0.03,-0.54,-0.80,0.30,0.23,0.82,
0.449,0.03,-0.54,-0.80,0.29,0.23,0.83,
0.462,0.03,-0.54,-0.80,0.28,0.24,0.83,
0.463,0.03,-0.54,-0.80,0.28,0.24,0.83,
0.463,0.10,-0.53,-0.61,0.28,0.24,0.83,
0.463,0.10,-0.53,-0.61,0.28,0.23,0.83,
0.463,0.10,-0.53,-0.61,0.28,0.23,0.83,
0.464,0.10,-0.53,-0.61,0.28,0.23,0.83,
0.464,0.10,-0.53,-0.61,0.28,0.23,0.83,
0.464,0.10,-0.53,-0.61,0.28,0.21,0.84,
0.474,0.11,-0.52,-0.42,0.28,0.21,0.84,
0.475,0.11,-0.52,-0.42,0.27,0.18,0.85,
0.475,0.11,-0.52,-0.42,0.26,0.16,0.85,
0.475,0.11,-0.52,-0.42,0.26,0.15,0.86,
0.476,0.11,-0.52,-0.42,0.26,0.15,0.87,
0.476,0.11,-0.52,-0.42,0.26,0.14,0.87,
0.476,0.11,-0.50,-0.47,0.26,0.14,0.87,
0.477,0.11,-0.50,-0.47,0.26,0.12,0.88,
0.477,0.11,-0.50,-0.47,0.26,0.12,0.88,
0.479,0.11,-0.50,-0.47,0.27,0.13,0.88,
0.481,0.11,-0.50,-0.47,0.28,0.14,0.88,
0.483,0.11,-0.50,-0.47,0.29,0.16,0.88,
0.487,0.24,-0.55,-0.46,0.29,0.16,0.88,
0.487,0.24,-0.55,-0.46,0.30,0.18,0.88,
0.487,0.24,-0.55,-0.46,0.32,0.19,0.87,
0.49,0.24,-0.55,-0.46,0.33,0.20,0.86,
0.492,0.24,-0.55,-0.46,0.35,0.20,0.86,
0.493,0.24,-0.55,-0.46,0.36,0.20,0.86,
0.496,0.35,-0.57,-0.26,0.36,0.20,0.86,
0.497,0.35,-0.57,-0.26,0.38,0.20,0.85,
0.498,0.35,-0.57,-0.26,0.40,0.19,0.85,
0.499,0.35,-0.57,-0.26,0.42,0.19,0.85,
0.502,0.35,-0.57,-0.26,0.44,0.18,0.85,
0.503,0.35,-0.57,-0.26,0.45,0.18,0.85,
0.508,0.29,-0.53,-0.12,0.45,0.18,0.85,
0.508,0.29,-0.53,-0.12,0.47,0.18,0.85,
0.508,0.29,-0.53,-0.12,0.49,0.18,0.85,
0.51,0.29,-0.53,-0.12,0.51,0.18,0.85,
0.513,0.29,-0.53,-0.12,0.52,0.17,0.86,
0.514,0.29,-0.53,-0.12,0.53,0.16,0.86,
0.516,0.32,-0.46,-0.22,0.53,0.16,0.86,
0.516,0.32,-0.46,-0.22,0.55,0.17,0.85,
0.519,0.32,-0.46,-0.22,0.57,0.18,0.85,
0.52,0.32,-0.46,-0.22,0.59,0.20,0.84,
0.521,0.32,-0.46,-0.22,0.60,0.21,0.84,
0.527,0.32,-0.46,-0.22,0.62,0.22,0.83,
0.527,0.51,-0.51,-0.43,0.62,0.22,0.83,
0.528,0.51,-0.51,-0.43,0.63,0.23,0.82,
0.528,0.51,-0.51,-0.43,0.64,0.22,0.81,
0.533,0.51,-0.51,-0.43,0.65,0.22,0.81,
0.533,0.51,-0.51,-0.43,0.65,0.22,0.80,
0.537,0.51,-0.51,-0.43,0.65,0.21,0.80,
0.537,0.53,-0.46,-0.74,0.65,0.21,0.80,
0.537,0.53,-0.46,-0.74,0.65,0.21,0.79,
0.538,0.53,-0.46,-0.74,0.65,0.20,0.78,
0.54,0.53,-0.46,-0.74,0.64,0.20,0.78,
0.542,0.53,-0.46,-0.74,0.64,0.19,0.78,
0.544,0.53,-0.46,-0.74,0.63,0.19,0.77,
0.546,0.45,-0.39,-1.06,0.63,0.19,0.77,
0.546,0.45,-0.39,-1.06,0.62,0.19,0.77,
0.547,0.45,-0.39,-1.06,0.62,0.19,0.76,
0.549,0.45,-0.39,-1.06,0.60,0.18,0.76,
0.551,0.45,-0.39,-1.06,0.59,0.18,0.75,
0.554,0.45,-0.39,-1.06,0.58,0.17,0.75,
0.556,0.40,-0.32,-1.24,0.58,0.17,0.75,
0.557,0.40,-0.32,-1.24,0.56,0.16,0.74,
0.557,0.40,-0.32,-1.24,0.55,0.16,0.73,
0.56,0.40,-0.32,-1.24,0.54,0.15,0.73,
0.562,0.40,-0.32,-1.24,0.52,0.14,0.73,
0.564,0.40,-0.32,-1.24,0.51,0.14,0.72,
0.566,0.39,-0.33,-1.20,0.51,0.14,0.72,
0.566,0.39,-0.33,-1.20,0.49,0.13,0.71,
0.568,0.39,-0.33,-1.20,0.48,0.13,0.71,
0.593,0.39,-0.33,-1.20,0.47,0.12,0.71,
0.594,0.39,-0.33,-1.20,0.46,0.11,0.70,
0.594,0.39,-0.33,-1.20,0.44,0.11,0.70,
0.594,0.32,-0.40,-1.08,0.44,0.11,0.70,
0.595,0.32,-0.40,-1.08,0.43,0.09,0.69,
0.595,0.32,-0.40,-1.08,0.40,0.07,0.70,
0.596,0.32,-0.40,-1.08,0.38,0.06,0.70,
0.596,0.32,-0.40,-1.08,0.36,0.06,0.70,
0.596,0.32,-0.40,-1.08,0.35,0.06,0.70,
0.597,0.17,-0.44,-1.07,0.35,0.06,0.70,
0.597,0.17,-0.44,-1.07,0.33,0.06,0.70,
0.598,0.17,-0.44,-1.07,0.31,0.05,0.71,
0.598,0.17,-0.44,-1.07,0.29,0.05,0.71,
0.598,0.17,-0.44,-1.07,0.27,0.06,0.72,
0.599,0.17,-0.44,-1.07,0.25,0.07,0.72,
0.599,0.14,-0.44,-0.99,0.25,0.07,0.72,
0.6,0.14,-0.44,-0.99,0.24,0.08,0.72,
0.6,0.14,-0.44,-0.99,0.23,0.10,0.72,
0.6,0.14,-0.44,-0.99,0.22,0.11,0.72,
0.606,0.14,-0.44,-0.99,0.21,0.13,0.72,
0.606,0.14,-0.44,-0.99,0.20,0.14,0.71,
0.607,0.25,-0.37,-0.74,0.20,0.14,0.71,
0.607,0.25,-0.37,-0.74,0.19,0.14,0.71,
0.607,0.25,-0.37,-0.74,0.18,0.14,0.71,
0.61,0.25,-0.37,-0.74,0.17,0.14,0.71,
0.611,0.25,-0.37,-0.74,0.16,0.14,0.71,
0.613,0.25,-0.37,-0.74,0.15,0.15,0.71,
0.616,0.34,-0.33,-0.61,0.15,0.15,0.71,
0.616,0.34,-0.33,-0.61,0.14,0.17,0.70,
0.628,0.34,-0.33,-0.61,0.13,0.18,0.70,
0.629,0.34,-0.33,-0.61,0.13,0.20,0.69,
0.629,0.34,-0.33,-0.61,0.12,0.21,0.68,
0.629,0.34,-0.33,-0.61,0.11,0.23,0.68,
0.629,0.60,-0.36,-0.44,0.11,0.23,0.68,
0.63,0.60,-0.36,-0.44,0.11,0.23,0.67,
0.63,0.60,-0.36,-0.44,0.10,0.24,0.66,
0.63,0.60,-0.36,-0.44,0.09,0.25,0.66,
0.656,0.60,-0.36,-0.44,0.08,0.26,0.65,
0.656,0.60,-0.36,-0.44,0.07,0.27,0.65,
0.657,0.59,-0.41,-0.38,0.07,0.27,0.65,
0.657,0.59,-0.41,-0.38,0.06,0.28,0.65,
0.657,0.59,-0.41,-0.38,0.05,0.28,0.65,
0.657,0.59,-0.41,-0.38,0.04,0.28,0.65,
0.657,0.59,-0.41,-0.38,0.02,0.27,0.65,
0.658,0.59,-0.41,-0.38,0.00,0.26,0.65,
0.658,0.68,-0.45,-0.49,0.00,0.26,0.65,
0.658,0.68,-0.45,-0.49,-0.02,0.26,0.65,
0.658,0.68,-0.45,-0.49,-0.03,0.26,0.64,
0.659,0.68,-0.45,-0.49,-0.04,0.27,0.64,
0.659,0.68,-0.45,-0.49,-0.06,0.28,0.63,
0.659,0.68,-0.45,-0.49,-0.08,0.28,0.62,
0.659,0.75,-0.52,-0.51,-0.08,0.28,0.62,
0.659,0.75,-0.52,-0.51,-0.09,0.28,0.61,
0.66,0.75,-0.52,-0.51,-0.10,0.27,0.60,
0.66,0.75,-0.52,-0.51,-0.12,0.26,0.59,
0.661,0.75,-0.52,-0.51,-0.13,0.26,0.58,
0.663,0.75,-0.52,-0.51,-0.14,0.26,0.57,
0.666,0.87,-0.51,-0.30,-0.14,0.26,0.57,
0.666,0.87,-0.51,-0.30,-0.15,0.25,0.55,
0.668,0.87,-0.51,-0.30,-0.16,0.25,0.54,
0.669,0.87,-0.51,-0.30,-0.17,0.25,0.53,
0.671,0.87,-0.51,-0.30,-0.18,0.25,0.52,
0.674,0.87,-0.51,-0.30,-0.19,0.25,0.51,
0.676,0.92,-0.51,0.06,-0.19,0.25,0.51,
0.676,0.92,-0.51,0.06,-0.19,0.25,0.50,
0.677,0.92,-0.51,0.06,-0.20,0.25,0.49,
0.679,0.92,-0.51,0.06,-0.21,0.26,0.48,
0.682,0.92,-0.51,0.06,-0.22,0.26,0.47,
0.686,0.92,-0.51,0.06,-0.23,0.27,0.46,
0.686,0.93,-0.58,0.14,-0.23,0.27,0.46,
0.686,0.93,-0.58,0.14,-0.24,0.27,0.45,
0.688,0.93,-0.58,0.14,-0.26,0.27,0.44,
0.689,0.93,-0.58,0.14,-0.28,0.26,0.42,
0.692,0.93,-0.58,0.14,-0.30,0.26,0.41,
0.693,0.93,-0.58,0.14,-0.32,0.24,0.40,
0.696,0.84,-0.59,0.11,-0.32,0.24,0.40,
0.696,0.84,-0.59,0.11,-0.35,0.23,0.39,
0.697,0.84,-0.59,0.11,-0.38,0.21,0.38,
0.699,0.84,-0.59,0.11,-0.41,0.18,0.37,
0.702,0.84,-0.59,0.11,-0.45,0.16,0.37,
0.703,0.84,-0.59,0.11,-0.49,0.13,0.37,
0.706,0.69,-0.60,0.03,-0.49,0.13,0.37,
0.706,0.69,-0.60,0.03,-0.53,0.10,0.37,
0.707,0.69,-0.60,0.03,-0.57,0.06,0.36,
0.709,0.69,-0.60,0.03,-0.61,0.02,0.36,
0.711,0.69,-0.60,0.03,-0.65,-0.02,0.36,
0.713,0.69,-0.60,0.03,-0.69,-0.07,0.36,
0.716,0.65,-0.56,0.38,-0.69,-0.07,0.36,
0.716,0.65,-0.56,0.38,-0.72,-0.11,0.35,
0.718,0.65,-0.56,0.38,-0.76,-0.16,0.35,
0.72,0.65,-0.56,0.38,-0.80,-0.21,0.36,
0.722,0.65,-0.56,0.38,-0.83,-0.25,0.36,
0.724,0.65,-0.56,0.38,-0.87,-0.30,0.36,
0.726,0.65,-0.41,1.02,-0.87,-0.30,0.36,
0.726,0.65,-0.41,1.02,-0.90,-0.33,0.36,
0.728,0.65,-0.41,1.02,-0.92,-0.38,0.36,
0.729,0.65,-0.41,1.02,-0.95,-0.43,0.36,
0.731,0.65,-0.41,1.02,-0.97,-0.47,0.37,
0.75,0.65,-0.41,1.02,-0.99,-0.51,0.37,
0.75,0.67,-0.37,1.89,-0.99,-0.51,0.37,
0.768,0.67,-0.37,1.89,-1.00,-0.54,0.38,
0.768,0.67,-0.37,1.89,-1.01,-0.56,0.38,
0.768,0.67,-0.37,1.89,-1.01,-0.57,0.39,
0.768,0.67,-0.37,1.89,-1.00,-0.58,0.39,
0.769,0.67,-0.37,1.89,-0.99,-0.59,0.39,
0.769,0.78,-0.64,2.93,-0.99,-0.59,0.39,
0.769,0.78,-0.64,2.93,-0.98,-0.59,0.39,
0.769,0.78,-0.64,2.93,-0.95,-0.59,0.39,
0.769,0.78,-0.64,2.93,-0.93,-0.59,0.40,
0.77,0.78,-0.64,2.93,-0.90,-0.58,0.40,
0.77,0.78,-0.64,2.93,-0.87,-0.57,0.40,
0.77,0.98,-0.86,3.70,-0.87,-0.57,0.40,
0.77,0.98,-0.86,3.70,-0.83,-0.56,0.40,
0.771,0.98,-0.86,3.70,-0.80,-0.55,0.40,
0.771,0.98,-0.86,3.70,-0.72,-0.52,0.40,
0.771,0.98,-0.86,3.70,-0.70,-0.51,0.40,
0.771,0.98,-0.86,3.70,-0.68,-0.50,0.40,
0.771,1.15,-1.07,4.12,-0.68,-0.50,0.40,
0.772,1.15,-1.07,4.12,-0.63,-0.48,0.40,
0.772,1.15,-1.07,4.12,-0.58,-0.46,0.40,
0.781,1.15,-1.07,4.12,-0.54,-0.43,0.40,
0.781,1.15,-1.07,4.12,-0.49,-0.42,0.40,
0.781,1.15,-1.07,4.12,-0.44,-0.40,0.40,
0.782,1.13,-1.07,4.18,-0.44,-0.40,0.40,
0.782,1.13,-1.07,4.18,-0.40,-0.38,0.40,
0.782,1.13,-1.07,4.18,-0.35,-0.37,0.40,
0.782,1.13,-1.07,4.18,-0.28,-0.35,0.40,
0.782,1.13,-1.07,4.18,-0.26,-0.35,0.40,
0.798,1.13,-1.07,4.18,-0.22,-0.35,0.40,
0.799,1.18,-1.09,3.89,-0.22,-0.35,0.40,
0.799,1.18,-1.09,3.89,-0.18,-0.34,0.40,
0.799,1.18,-1.09,3.89,-0.14,-0.34,0.40,
0.799,1.18,-1.09,3.89,-0.10,-0.34,0.40,
0.799,1.18,-1.09,3.89,-0.07,-0.34,0.40,
0.799,1.18,-1.09,3.89,-0.03,-0.34,0.41,
0.799,1.16,-1.02,3.44,-0.03,-0.34,0.41,
0.8,1.16,-1.02,3.44,0.01,-0.35,0.41,
0.8,1.16,-1.02,3.44,0.04,-0.36,0.41,
0.801,1.16,-1.02,3.44,0.07,-0.38,0.42,
0.801,1.16,-1.02,3.44,0.10,-0.40,0.42,
0.803,1.16,-1.02,3.44,0.13,-0.42,0.42,
0.806,1.04,-0.98,2.94,0.13,-0.42,0.42,
0.806,1.04,-0.98,2.94,0.16,-0.43,0.43,
0.807,1.04,-0.98,2.94,0.18,-0.45,0.44,
0.809,1.04,-0.98,2.94,0.21,-0.47,0.45,
0.811,1.04,-0.98,2.94,0.23,-0.49,0.46,
0.813,1.04,-0.98,2.94,0.25,-0.51,0.47,
0.816,0.93,-0.78,2.42,0.25,-0.51,0.47,
0.816,0.93,-0.78,2.42,0.27,-0.54,0.48,
0.817,0.93,-0.78,2.42,0.28,-0.57,0.49,
0.82,0.93,-0.78,2.42,0.30,-0.60,0.50,
0.822,0.93,-0.78,2.42,0.31,-0.62,0.51,
0.823,0.93,-0.78,2.42,0.33,-0.65,0.52,
0.826,1.00,-0.72,1.94,0.33,-0.65,0.52,
0.826,1.00,-0.72,1.94,0.34,-0.67,0.53,
0.828,1.00,-0.72,1.94,0.35,-0.70,0.54,
0.831,1.00,-0.72,1.94,0.37,-0.73,0.55,
0.832,1.00,-0.72,1.94,0.38,-0.76,0.56,
0.834,1.00,-0.72,1.94,0.39,-0.77,0.56,
0.84,1.10,-0.54,1.53,0.39,-0.77,0.56,
0.84,1.10,-0.54,1.53,0.41,-0.79,0.56,
0.841,1.10,-0.54,1.53,0.43,-0.80,0.56,
0.842,1.10,-0.54,1.53,0.45,-0.81,0.56,
0.842,1.10,-0.54,1.53,0.47,-0.83,0.56,
0.843,1.10,-0.54,1.53,0.49,-0.84,0.55,
0.845,1.48,-0.56,1.25,0.49,-0.84,0.55,
0.846,1.48,-0.56,1.25,0.51,-0.84,0.54,
0.847,1.48,-0.56,1.25,0.52,-0.85,0.53,
0.85,1.48,-0.56,1.25,0.54,-0.84,0.53,
0.852,1.48,-0.56,1.25,0.56,-0.84,0.52,
0.856,1.48,-0.56,1.25,0.58,-0.84,0.51,
0.858,1.68,-0.51,0.79,0.58,-0.84,0.51,
0.858,1.68,-0.51,0.79,0.60,-0.83,0.50,
0.858,1.68,-0.51,0.79,0.61,-0.82,0.48,
0.859,1.68,-0.51,0.79,0.62,-0.81,0.47,
0.861,1.68,-0.51,0.79,0.64,-0.80,0.45,
0.863,1.68,-0.51,0.79,0.65,-0.78,0.44,
0.866,1.80,-0.51,0.26,0.65,-0.78,0.44,
0.868,1.80,-0.51,0.26,0.66,-0.77,0.43,
0.869,1.80,-0.51,0.26,0.67,-0.75,0.41,
0.87,1.80,-0.51,0.26,0.68,-0.73,0.39,
0.872,1.80,-0.51,0.26,0.68,-0.71,0.37,
0.874,1.80,-0.51,0.26,0.69,-0.69,0.35,
0.876,1.80,-0.39,-0.35,0.69,-0.69,0.35,
0.876,1.80,-0.39,-0.35,0.69,-0.67,0.33,
0.877,1.80,-0.39,-0.35,0.70,-0.65,0.32,
0.879,1.80,-0.39,-0.35,0.70,-0.63,0.29,
0.881,1.80,-0.39,-0.35,0.70,-0.62,0.27,
0.899,1.80,-0.39,-0.35,0.70,-0.60,0.25,
0.9,1.71,-0.29,-1.00,0.70,-0.60,0.25,
0.9,1.71,-0.29,-1.00,0.69,-0.59,0.23,
0.9,1.71,-0.29,-1.00,0.68,-0.58,0.22,
0.901,1.71,-0.29,-1.00,0.67,-0.57,0.19,
0.901,1.71,-0.29,-1.00,0.65,-0.56,0.17,
0.901,1.71,-0.29,-1.00,0.64,-0.56,0.17,
0.901,1.26,-0.10,-1.77,0.64,-0.56,0.17,
0.902,1.26,-0.10,-1.77,0.61,-0.56,0.15,
0.902,1.26,-0.10,-1.77,0.60,-0.56,0.14,
0.902,1.26,-0.10,-1.77,0.56,-0.56,0.12,
0.903,1.26,-0.10,-1.77,0.54,-0.56,0.11,
0.925,1.26,-0.10,-1.77,0.53,-0.56,0.11,
0.925,0.95,0.09,-2.37,0.53,-0.56,0.11,
0.926,0.95,0.09,-2.37,0.48,-0.57,0.09,
0.926,0.95,0.09,-2.37,0.47,-0.57,0.08,
0.926,0.95,0.09,-2.37,0.44,-0.58,0.07,
0.927,0.95,0.09,-2.37,0.41,-0.58,0.05,
0.927,0.95,0.09,-2.37,0.40,-0.59,0.05,
0.927,0.81,0.19,-2.60,0.40,-0.59,0.05,
0.927,0.81,0.19,-2.60,0.36,-0.59,0.03,
0.928,0.81,0.19,-2.60,0.34,-0.60,0.01,
0.928,0.81,0.19,-2.60,0.32,-0.60,-0.01,
0.928,0.81,0.19,-2.60,0.26,-0.62,-0.06,
0.929,0.81,0.19,-2.60,0.26,-0.62,-0.06,
0.929,0.81,0.19,-2.60,0.26,-0.62,-0.06,
0.929,0.96,0.31,-2.62,0.26,-0.62,-0.06,
0.929,0.96,0.31,-2.62,0.22,-0.64,-0.11,
0.935,0.96,0.31,-2.62,0.22,-0.64,-0.11,
0.935,0.96,0.31,-2.62,0.19,-0.65,-0.12,
0.935,0.96,0.31,-2.62,0.17,-0.67,-0.12,
0.937,0.74,0.51,-2.59,0.17,-0.67,-0.12,
0.937,0.74,0.51,-2.59,0.15,-0.68,-0.14,
0.938,0.74,0.51,-2.59,0.13,-0.68,-0.15,
0.94,0.74,0.51,-2.59,0.11,-0.68,-0.16,
0.942,0.74,0.51,-2.59,0.10,-0.67,-0.18,
0.943,0.74,0.51,-2.59,0.08,-0.67,-0.19,
0.945,0.49,0.57,-2.64,0.08,-0.67,-0.19,
0.946,0.49,0.57,-2.64,0.06,-0.66,-0.20,
0.947,0.49,0.57,-2.64,0.05,-0.64,-0.21,
0.95,0.49,0.57,-2.64,0.03,-0.63,-0.23,
0.952,0.49,0.57,-2.64,0.01,-0.61,-0.24,
0.953,0.49,0.57,-2.64,-0.00,-0.60,-0.24,
0.957,0.31,0.42,-2.69,-0.00,-0.60,-0.24,
0.957,0.31,0.42,-2.69,-0.02,-0.58,-0.26,
0.957,0.31,0.42,-2.69,-0.04,-0.57,-0.27,
0.959,0.31,0.42,-2.69,-0.05,-0.55,-0.28,
0.961,0.31,0.42,-2.69,-0.06,-0.53,-0.29,
0.963,0.31,0.42,-2.69,-0.08,-0.51,-0.30,
0.967,0.20,0.35,-2.73,-0.08,-0.51,-0.30,
0.967,0.20,0.35,-2.73,-0.09,-0.49,-0.31,
0.969,0.20,0.35,-2.73,-0.11,-0.46,-0.32,
0.97,0.20,0.35,-2.73,-0.12,-0.44,-0.32,
0.971,0.20,0.35,-2.73,-0.13,-0.42,-0.33,
0.973,0.20,0.35,-2.73,-0.15,-0.40,-0.33,
0.976,-0.14,0.44,-2.58,-0.15,-0.40,-0.33,
0.976,-0.14,0.44,-2.58,-0.15,-0.38,-0.33,
0.977,-0.14,0.44,-2.58,-0.16,-0.36,-0.34,
0.979,-0.14,0.44,-2.58,-0.17,-0.35,-0.35,
0.981,-0.14,0.44,-2.58,-0.18,-0.35,-0.35,
0.993,-0.14,0.44,-2.58,-0.18,-0.34,-0.36,
0.994,-0.37,0.62,-2.34,-0.18,-0.34,-0.36,
0.994,-0.37,0.62,-2.34,-0.19,-0.35,-0.36,
0.994,-0.37,0.62,-2.34,-0.19,-0.35,-0.37,
0.994,-0.37,0.62,-2.34,-0.20,-0.35,-0.37,
0.995,-0.37,0.62,-2.34,-0.20,-0.36,-0.38,
0.995,-0.37,0.62,-2.34,-0.21,-0.37,-0.38,
0.996,-0.60,0.66,-2.23,-0.21,-0.37,-0.38,
0.996,-0.60,0.66,-2.23,-0.21,-0.38,-0.39,
0.997,-0.60,0.66,-2.23,-0.22,-0.39,-0.39,
1.01,-0.60,0.66,-2.23,-0.22,-0.39,-0.39,
1.011,-0.60,0.66,-2.23,-0.22,-0.39,-0.40,
1.011,-0.60,0.66,-2.23,-0.23,-0.40,-0.41,
1.011,-0.74,0.75,-2.15,-0.23,-0.40,-0.41,
1.011,-0.74,0.75,-2.15,-0.23,-0.40,-0.41,
1.012,-0.74,0.75,-2.15,-0.23,-0.40,-0.41,
1.012,-0.74,0.75,-2.15,-0.23,-0.41,-0.42,
1.012,-0.74,0.75,-2.15,-0.23,-0.41,-0.42,
1.013,-0.74,0.75,-2.15,-0.23,-0.42,-0.42,
1.016,-0.84,0.80,-1.85,-0.23,-0.42,-0.42,
1.017,-0.84,0.80,-1.85,-0.23,-0.43,-0.41,
1.017,-0.84,0.80,-1.85,-0.23,-0.44,-0.41,
1.019,-0.84,0.80,-1.85,-0.23,-0.44,-0.41,
1.021,-0.84,0.80,-1.85,-0.22,-0.45,-0.40,
1.023,-0.84,0.80,-1.85,-0.22,-0.45,-0.39,
1.025,-1.01,0.91,-1.60,-0.22,-0.45,-0.39,
1.026,-1.01,0.91,-1.60,-0.22,-0.46,-0.39,
1.027,-1.01,0.91,-1.60,-0.21,-0.47,-0.39,
1.029,-1.01,0.91,-1.60,-0.21,-0.47,-0.38,
1.033,-1.01,0.91,-1.60,-0.21,-0.46,-0.38,
1.034,-1.01,0.91,-1.60,-0.21,-0.45,-0.37,
1.036,-1.04,0.83,-1.52,-0.21,-0.45,-0.37,
1.036,-1.04,0.83,-1.52,-0.21,-0.44,-0.36,
1.038,-1.04,0.83,-1.52,-0.21,-0.42,-0.35,
1.039,-1.04,0.83,-1.52,-0.21,-0.41,-0.34,
1.041,-1.04,0.83,-1.52,-0.21,-0.40,-0.33,
1.044,-1.04,0.83,-1.52,-0.22,-0.39,-0.31,
1.046,-1.27,0.87,-1.50,-0.22,-0.39,-0.31,
1.046,-1.27,0.87,-1.50,-0.22,-0.38,-0.30,
1.048,-1.27,0.87,-1.50,-0.22,-0.38,-0.28,
1.051,-1.27,0.87,-1.50,-0.23,-0.37,-0.27,
1.054,-1.27,0.87,-1.50,-0.23,-0.37,-0.26,
1.056,-1.27,0.87,-1.50,-0.24,-0.37,-0.24,
1.06,-1.18,0.70,-1.37,-0.24,-0.37,-0.24,
1.06,-1.18,0.70,-1.37,-0.24,-0.37,-0.23,
1.06,-1.18,0.70,-1.37,-0.24,-0.37,-0.22,
1.061,-1.18,0.70,-1.37,-0.24,-0.36,-0.21,
1.062,-1.18,0.70,-1.37,-0.24,-0.36,-0.20,
1.063,-1.18,0.70,-1.37,-0.24,-0.35,-0.19,
1.07,-1.11,0.70,-1.18,-0.24,-0.35,-0.19,
1.07,-1.11,0.70,-1.18,-0.23,-0.35,-0.19,
1.07,-1.11,0.70,-1.18,-0.23,-0.35,-0.18,
1.083,-1.11,0.70,-1.18,-0.23,-0.35,-0.17,
1.083,-1.11,0.70,-1.18,-0.22,-0.36,-0.17,
1.083,-1.11,0.70,-1.18,-0.21,-0.36,-0.16,
1.083,-0.90,0.80,-0.77,-0.21,-0.36,-0.16,
1.084,-0.90,0.80,-0.77,-0.20,-0.36,-0.16,
1.084,-0.90,0.80,-0.77,-0.19,-0.36,-0.16,
1.084,-0.90,0.80,-0.77,-0.17,-0.37,-0.16,
1.084,-0.90,0.80,-0.77,-0.16,-0.37,-0.16,
1.084,-0.90,0.80,-0.77,-0.15,-0.38,-0.17,
1.086,-0.60,1.01,-0.38,-0.15,-0.38,-0.17,
1.086,-0.60,1.01,-0.38,-0.13,-0.39,-0.18,
1.087,-0.60,1.01,-0.38,-0.11,-0.39,-0.19,
1.089,-0.60,1.01,-0.38,-0.09,-0.40,-0.20,
1.091,-0.60,1.01,-0.38,-0.07,-0.40,-0.21,
1.093,-0.60,1.01,-0.38,-0.05,-0.40,-0.22,
1.095,-0.35,1.01,0.01,-0.05,-0.40,-0.22,
1.095,-0.35,1.01,0.01,-0.03,-0.39,-0.23,
1.097,-0.35,1.01,0.01,-0.00,-0.39,-0.24,
1.099,-0.35,1.01,0.01,0.03,-0.37,-0.26,
1.101,-0.35,1.01,0.01,0.04,-0.35,-0.27,
1.103,-0.35,1.01,0.01,0.07,-0.33,-0.28,
1.105,-0.37,0.98,0.13,0.07,-0.33,-0.28,
1.105,-0.37,0.98,0.13,0.09,-0.31,-0.29,
1.107,-0.37,0.98,0.13,0.10,-0.30,-0.29,
1.11,-0.37,0.98,0.13,0.12,-0.29,-0.30,
1.112,-0.37,0.98,0.13,0.13,-0.28,-0.30,
1.113,-0.37,0.98,0.13,0.13,-0.28,-0.30,
1.116,-0.49,0.83,-0.06,0.13,-0.28,-0.30,
1.116,-0.49,0.83,-0.06,0.14,-0.26,-0.30,
1.117,-0.49,0.83,-0.06,0.14,-0.25,-0.30,
1.119,-0.49,0.83,-0.06,0.14,-0.24,-0.29,
1.121,-0.49,0.83,-0.06,0.14,-0.23,-0.28,
1.123,-0.49,0.83,-0.06,0.14,-0.22,-0.26,
1.125,-0.74,0.70,-0.44,0.14,-0.22,-0.26,
1.125,-0.74,0.70,-0.44,0.13,-0.21,-0.25,
1.127,-0.74,0.70,-0.44,0.13,-0.20,-0.23,
1.129,-0.74,0.70,-0.44,0.12,-0.19,-0.22,
1.135,-0.74,0.70,-0.44,0.10,-0.19,-0.20,
1.135,-0.74,0.70,-0.44,0.09,-0.18,-0.18,
1.14,-0.91,0.53,-0.74,0.09,-0.18,-0.18,
1.14,-0.91,0.53,-0.74,0.07,-0.17,-0.16,
1.14,-0.91,0.53,-0.74,0.05,-0.16,-0.15,
1.14,-0.91,0.53,-0.74,0.04,-0.15,-0.13,
1.144,-0.91,0.53,-0.74,0.02,-0.13,-0.11,
1.144,-0.91,0.53,-0.74,0.01,-0.12,-0.10,
1.145,-1.12,0.59,-0.85,0.01,-0.12,-0.10,
1.146,-1.12,0.59,-0.85,-0.01,-0.11,-0.08,
1.147,-1.12,0.59,-0.85,-0.02,-0.10,-0.07,
1.151,-1.12,0.59,-0.85,-0.02,-0.09,-0.05,
1.151,-1.12,0.59,-0.85,-0.03,-0.08,-0.04,
1.153,-1.12,0.59,-0.85,-0.04,-0.06,-0.03,
1.155,-1.22,0.69,-0.58,-0.04,-0.06,-0.03,
1.156,-1.22,0.69,-0.58,-0.04,-0.05,-0.02,
1.157,-1.22,0.69,-0.58,-0.04,-0.03,-0.01,
1.159,-1.22,0.69,-0.58,-0.04,-0.01,-0.01,
1.161,-1.22,0.69,-0.58,-0.03,0.00,0.00,
1.163,-1.22,0.69,-0.58,-0.02,0.02,0.01,
1.166,-1.16,0.78,-0.22,-0.02,0.02,0.01,
1.166,-1.16,0.78,-0.22,-0.01,0.03,0.01,
1.167,-1.16,0.78,-0.22,0.00,0.04,0.02,
1.17,-1.16,0.78,-0.22,0.02,0.05,0.02,
1.171,-1.16,0.78,-0.22,0.04,0.05,0.02,
1.173,-1.16,0.78,-0.22,0.06,0.06,0.02,
1.176,-0.94,0.84,0.22,0.06,0.06,0.02,
1.176,-0.94,0.84,0.22,0.08,0.06,0.02,
1.177,-0.94,0.84,0.22,0.11,0.06,0.02,
1.179,-0.94,0.84,0.22,0.13,0.06,0.01,
1.181,-0.94,0.84,0.22,0.16,0.07,0.00,
1.183,-0.94,0.84,0.22,0.19,0.07,-0.01,
1.186,-0.65,0.80,0.45,0.19,0.07,-0.01,
1.187,-0.65,0.80,0.45,0.21,0.08,-0.02,
1.188,-0.65,0.80,0.45,0.23,0.08,-0.03,
1.19,-0.65,0.80,0.45,0.25,0.08,-0.04,
1.191,-0.65,0.80,0.45,0.27,0.09,-0.05,
1.193,-0.65,0.80,0.45,0.29,0.09,-0.06,
1.196,-0.60,0.64,0.20,0.29,0.09,-0.06,
1.197,-0.60,0.64,0.20,0.30,0.10,-0.07,
1.197,-0.60,0.64,0.20,0.31,0.10,-0.08,
1.203,-0.60,0.64,0.20,0.31,0.11,-0.08,
1.204,-0.60,0.64,0.20,0.31,0.12,-0.09,
1.204,-0.60,0.64,0.20,0.31,0.14,-0.09,
1.206,-0.99,0.45,-0.38,0.31,0.14,-0.09,
1.207,-0.99,0.45,-0.38,0.29,0.16,-0.09,
1.208,-0.99,0.45,-0.38,0.28,0.18,-0.09,
1.209,-0.99,0.45,-0.38,0.26,0.21,-0.08,
1.211,-0.99,0.45,-0.38,0.23,0.24,-0.07,
1.213,-0.99,0.45,-0.38,0.19,0.27,-0.06,
1.219,-1.50,0.13,-1.23,0.19,0.27,-0.06,
1.22,-1.50,0.13,-1.23,0.15,0.30,-0.05,
1.22,-1.50,0.13,-1.23,0.10,0.33,-0.03,
1.221,-1.50,0.13,-1.23,0.05,0.36,-0.01,
1.221,-1.50,0.13,-1.23,-0.01,0.39,0.02,
1.225,-1.50,0.13,-1.23,-0.08,0.42,0.05,
1.226,-2.16,-0.33,-1.95,-0.08,0.42,0.05,
1.226,-2.16,-0.33,-1.95,-0.14,0.46,0.08,
1.227,-2.16,-0.33,-1.95,-0.21,0.50,0.10,
1.229,-2.16,-0.33,-1.95,-0.28,0.53,0.13,
1.234,-2.16,-0.33,-1.95,-0.35,0.57,0.17,
1.236,-2.16,-0.33,-1.95,-0.43,0.60,0.20,
1.239,-2.51,-0.78,-1.93,-0.43,0.60,0.20,
1.264,-2.51,-0.78,-1.93,-0.50,0.63,0.24,
1.265,-2.51,-0.78,-1.93,-0.57,0.66,0.28,
1.265,-2.51,-0.78,-1.93,-0.64,0.69,0.31,
1.266,-2.51,-0.78,-1.93,-0.70,0.73,0.35,
1.266,-2.51,-0.78,-1.93,-0.77,0.77,0.38,
1.267,-2.64,-0.96,-1.34,-0.77,0.77,0.38,
1.267,-2.64,-0.96,-1.34,-0.83,0.81,0.41,
1.267,-2.64,-0.96,-1.34,-0.89,0.85,0.43,
1.268,-2.64,-0.96,-1.34,-0.95,0.90,0.45,
1.268,-2.64,-0.96,-1.34,-1.00,0.94,0.47,
1.268,-2.64,-0.96,-1.34,-1.05,0.98,0.49,
1.269,-2.23,-0.87,-0.62,-1.05,0.98,0.49,
1.269,-2.23,-0.87,-0.62,-1.10,1.01,0.50,
1.269,-2.23,-0.87,-0.62,-1.15,1.03,0.51,
1.269,-2.23,-0.87,-0.62,-1.20,1.05,0.52,
1.27,-2.23,-0.87,-0.62,-1.24,1.06,0.52,
1.27,-2.23,-0.87,-0.62,-1.28,1.07,0.52,
1.27,-1.76,-0.77,0.13,-1.28,1.07,0.52,
1.27,-1.76,-0.77,0.13,-1.32,1.06,0.52,
1.271,-1.76,-0.77,0.13,-1.36,1.05,0.52,
1.271,-1.76,-0.77,0.13,-1.40,1.04,0.51,
1.271,-1.76,-0.77,0.13,-1.44,1.01,0.51,
1.275,-1.76,-0.77,0.13,-1.47,0.98,0.50,
1.276,-1.23,-0.78,0.90,-1.47,0.98,0.50,
1.276,-1.23,-0.78,0.90,-1.50,0.94,0.49,
1.278,-1.23,-0.78,0.90,-1.53,0.90,0.48,
1.28,-1.23,-0.78,0.90,-1.56,0.85,0.47,
1.286,-1.23,-0.78,0.90,-1.57,0.81,0.46,
1.287,-1.23,-0.78,0.90,-1.59,0.77,0.46,
1.287,-1.06,-0.84,2.06,-1.59,0.77,0.46,
1.287,-1.06,-0.84,2.06,-1.60,0.73,0.45,
1.288,-1.06,-0.84,2.06,-1.60,0.70,0.45,
1.289,-1.06,-0.84,2.06,-1.60,0.68,0.45,
1.291,-1.06,-0.84,2.06,-1.58,0.66,0.46,
1.293,-1.06,-0.84,2.06,-1.57,0.64,0.46,
1.296,-1.23,-0.92,3.72,-1.57,0.64,0.46,
1.296,-1.23,-0.92,3.72,-1.54,0.62,0.47,
1.307,-1.23,-0.92,3.72,-1.51,0.61,0.49,
1.308,-1.23,-0.92,3.72,-1.48,0.60,0.50,
1.308,-1.23,-0.92,3.72,-1.44,0.59,0.52,
1.308,-1.23,-0.92,3.72,-1.40,0.59,0.54,
1.308,-1.72,-1.14,5.30,-1.40,0.59,0.54,
1.309,-1.72,-1.14,5.30,-1.35,0.59,0.57,
1.309,-1.72,-1.14,5.30,-1.30,0.59,0.60,
1.309,-1.72,-1.14,5.30,-1.25,0.60,0.63,
1.332,-1.72,-1.14,5.30,-1.20,0.60,0.66,
1.332,-1.72,-1.14,5.30,-1.15,0.60,0.70,
1.332,-2.16,-1.39,6.29,-1.15,0.60,0.70,
1.333,-2.16,-1.39,6.29,-1.10,0.61,0.73,
1.333,-2.16,-1.39,6.29,-1.04,0.61,0.77,
1.333,-2.16,-1.39,6.29,-0.99,0.62,0.81,
1.333,-2.16,-1.39,6.29,-0.94,0.62,0.84,
1.334,-2.16,-1.39,6.29,-0.89,0.63,0.88,
1.334,-2.33,-1.68,6.73,-0.89,0.63,0.88,
1.334,-2.33,-1.68,6.73,-0.84,0.63,0.92,
1.334,-2.33,-1.68,6.73,-0.79,0.63,0.96,
1.334,-2.33,-1.68,6.73,-0.75,0.63,0.99,
1.335,-2.33,-1.68,6.73,-0.70,0.63,1.03,
1.335,-2.33,-1.68,6.73,-0.66,0.64,1.06,
1.338,-2.19,-1.69,6.78,-0.66,0.64,1.06,
1.338,-2.19,-1.69,6.78,-0.62,0.64,1.10,
1.338,-2.19,-1.69,6.78,-0.58,0.64,1.13,
1.339,-2.19,-1.69,6.78,-0.54,0.65,1.16,
1.341,-2.19,-1.69,6.78,-0.50,0.65,1.19,
1.343,-2.19,-1.69,6.78,-0.47,0.66,1.22,
1.346,-1.90,-1.55,6.70,-0.47,0.66,1.22,
1.346,-1.90,-1.55,6.70,-0.43,0.67,1.25,
1.353,-1.90,-1.55,6.70,-0.39,0.68,1.27,
1.354,-1.90,-1.55,6.70,-0.35,0.69,1.30,
1.354,-1.90,-1.55,6.70,-0.32,0.70,1.32,
1.355,-1.90,-1.55,6.70,-0.28,0.71,1.34,
1.358,-1.47,-1.33,6.54,-0.28,0.71,1.34,
1.358,-1.47,-1.33,6.54,-0.24,0.72,1.36,
1.359,-1.47,-1.33,6.54,-0.21,0.73,1.39,
1.36,-1.47,-1.33,6.54,-0.17,0.75,1.41,
1.362,-1.47,-1.33,6.54,-0.13,0.77,1.42,
1.367,-1.47,-1.33,6.54,-0.09,0.78,1.44,
1.367,-1.09,-1.23,6.26,-0.09,0.78,1.44,
1.368,-1.09,-1.23,6.26,-0.06,0.80,1.46,
1.368,-1.09,-1.23,6.26,-0.02,0.82,1.47,
1.369,-1.09,-1.23,6.26,0.02,0.83,1.48,
1.371,-1.09,-1.23,6.26,0.07,0.85,1.50,
1.373,-1.09,-1.23,6.26,0.10,0.86,1.51,
1.375,-0.78,-1.13,5.89,0.10,0.86,1.51,
1.376,-0.78,-1.13,5.89,0.14,0.86,1.53,
1.377,-0.78,-1.13,5.89,0.18,0.86,1.54,
1.379,-0.78,-1.13,5.89,0.22,0.86,1.55,
1.381,-0.78,-1.13,5.89,0.26,0.87,1.57,
1.384,-0.78,-1.13,5.89,0.31,0.86,1.59,
1.386,-0.68,-1.04,5.42,0.31,0.86,1.59,
1.386,-0.68,-1.04,5.42,0.34,0.85,1.61,
1.387,-0.68,-1.04,5.42,0.38,0.84,1.64,
1.389,-0.68,-1.04,5.42,0.42,0.83,1.66,
1.391,-0.68,-1.04,5.42,0.45,0.82,1.68,
1.394,-0.68,-1.04,5.42,0.49,0.81,1.70,
1.395,-0.70,-0.87,4.74,0.49,0.81,1.70,
1.396,-0.70,-0.87,4.74,0.52,0.79,1.72,
1.402,-0.70,-0.87,4.74,0.55,0.78,1.73,
1.402,-0.70,-0.87,4.74,0.58,0.76,1.74,
1.402,-0.70,-0.87,4.74,0.61,0.74,1.75,
1.414,-0.70,-0.87,4.74,0.64,0.73,1.76,
1.414,-0.41,-1.14,3.99,0.64,0.73,1.76,
1.414,-0.41,-1.14,3.99,0.66,0.71,1.77,
1.414,-0.41,-1.14,3.99,0.69,0.70,1.77,
1.414,-0.41,-1.14,3.99,0.71,0.67,1.77,
1.414,-0.41,-1.14,3.99,0.73,0.65,1.78,
1.415,-0.41,-1.14,3.99,0.75,0.63,1.78,
1.416,-0.25,-1.22,3.27,0.75,0.63,1.78,
1.417,-0.25,-1.22,3.27,0.78,0.61,1.79,
1.418,-0.25,-1.22,3.27,0.79,0.58,1.79,
1.419,-0.25,-1.22,3.27,0.81,0.55,1.79,
1.421,-0.25,-1.22,3.27,0.83,0.53,1.80,
1.423,-0.25,-1.22,3.27,0.86,0.50,1.80,
1.425,-0.20,-1.22,2.73,0.86,0.50,1.80,
1.425,-0.20,-1.22,2.73,0.88,0.47,1.81,
1.427,-0.20,-1.22,2.73,0.90,0.44,1.81,
1.429,-0.20,-1.22,2.73,0.91,0.42,1.82,
1.431,-0.20,-1.22,2.73,0.93,0.40,1.83,
1.433,-0.20,-1.22,2.73,0.94,0.38,1.84,
1.435,-0.14,-1.10,2.19,0.94,0.38,1.84,
1.435,-0.14,-1.10,2.19,0.95,0.37,1.85,
1.437,-0.14,-1.10,2.19,0.96,0.36,1.85,
1.439,-0.14,-1.10,2.19,0.97,0.36,1.86,
1.441,-0.14,-1.10,2.19,0.98,0.35,1.87,
1.443,-0.14,-1.10,2.19,0.98,0.35,1.87,
1.445,0.08,-1.23,1.70,0.98,0.35,1.87,
1.445,0.08,-1.23,1.70,0.99,0.34,1.88,
1.447,0.08,-1.23,1.70,0.99,0.34,1.88,
1.45,0.08,-1.23,1.70,0.99,0.34,1.88,
1.452,0.08,-1.23,1.70,1.00,0.33,1.88,
1.453,0.08,-1.23,1.70,1.00,0.33,1.88,
1.455,0.27,-1.37,1.21,1.00,0.33,1.88,
1.455,0.27,-1.37,1.21,1.00,0.33,1.88,
1.457,0.27,-1.37,1.21,1.00,0.32,1.88,
1.46,0.27,-1.37,1.21,1.00,0.31,1.87,
1.462,0.27,-1.37,1.21,0.99,0.31,1.87,
1.463,0.27,-1.37,1.21,0.99,0.31,1.86,
1.465,0.45,-1.40,0.85,0.99,0.31,1.86,
1.465,0.45,-1.40,0.85,0.99,0.30,1.85,
1.467,0.45,-1.40,0.85,0.99,0.30,1.85,
1.469,0.45,-1.40,0.85,0.98,0.29,1.84,
1.471,0.45,-1.40,0.85,0.98,0.28,1.84,
1.473,0.45,-1.40,0.85,0.97,0.28,1.83,
1.475,0.32,-1.37,0.53,0.97,0.28,1.83,
1.476,0.32,-1.37,0.53,0.96,0.27,1.83,
1.477,0.32,-1.37,0.53,0.95,0.26,1.83,
1.479,0.32,-1.37,0.53,0.94,0.25,1.82,
1.481,0.32,-1.37,0.53,0.93,0.24,1.82,
1.483,0.32,-1.37,0.53,0.91,0.22,1.81,
1.486,0.15,-1.42,0.09,0.91,0.22,1.81,
1.486,0.15,-1.42,0.09,0.89,0.21,1.81,
1.487,0.15,-1.42,0.09,0.87,0.19,1.80,
1.489,0.15,-1.42,0.09,0.84,0.18,1.80,
1.491,0.15,-1.42,0.09,0.82,0.16,1.79,
1.493,0.15,-1.42,0.09,0.79,0.15,1.79,
1.495,0.13,-1.44,-0.35,0.79,0.15,1.79,
1.496,0.13,-1.44,-0.35,0.76,0.14,1.78,
1.497,0.13,-1.44,-0.35,0.74,0.12,1.77,
1.499,0.13,-1.44,-0.35,0.70,0.11,1.77,
1.501,0.13,-1.44,-0.35,0.67,0.10,1.76,
1.503,0.13,-1.44,-0.35,0.64,0.08,1.76,
1.505,0.08,-1.51,-0.56,0.64,0.08,1.76,
1.506,0.08,-1.51,-0.56,0.61,0.08,1.75,
1.507,0.08,-1.51,-0.56,0.58,0.07,1.75,
1.509,0.08,-1.51,-0.56,0.55,0.06,1.75,
1.511,0.08,-1.51,-0.56,0.53,0.06,1.75,
1.513,0.08,-1.51,-0.56,0.50,0.06,1.75,
1.516,-0.07,-1.52,-0.52,0.50,0.06,1.75,
1.516,-0.07,-1.52,-0.52,0.47,0.06,1.75,
1.517,-0.07,-1.52,-0.52,0.45,0.06,1.76,
1.519,-0.07,-1.52,-0.52,0.42,0.05,1.76,
1.521,-0.07,-1.52,-0.52,0.40,0.05,1.76,
1.523,-0.07,-1.52,-0.52,0.38,0.04,1.77,
1.526,-0.18,-1.65,-0.14,0.38,0.04,1.77,
1.526,-0.18,-1.65,-0.14,0.36,0.04,1.77,
1.528,-0.18,-1.65,-0.14,0.35,0.03,1.77,
1.552,-0.18,-1.65,-0.14,0.34,0.03,1.77,
1.553,-0.18,-1.65,-0.14,0.33,0.03,1.77,
1.553,-0.18,-1.65,-0.14,0.33,0.03,1.77,
1.554,-0.14,-1.62,0.47,0.33,0.03,1.77,
1.554,-0.14,-1.62,0.47,0.33,0.02,1.77,
1.555,-0.14,-1.62,0.47,0.34,0.02,1.76,
1.556,-0.14,-1.62,0.47,0.35,0.02,1.76,
1.556,-0.14,-1.62,0.47,0.36,0.02,1.76,
1.557,-0.14,-1.62,0.47,0.38,0.02,1.75,
1.557,-0.10,-1.69,1.09,0.38,0.02,1.75,
1.558,-0.10,-1.69,1.09,0.40,0.02,1.75,
1.558,-0.10,-1.69,1.09,0.42,0.02,1.74,
1.559,-0.10,-1.69,1.09,0.44,0.02,1.74,
1.56,-0.10,-1.69,1.09,0.45,0.02,1.74,
1.56,-0.10,-1.69,1.09,0.48,0.03,1.73,
1.561,-0.06,-1.73,1.28,0.48,0.03,1.73,
1.561,-0.06,-1.73,1.28,0.50,0.03,1.73,
1.561,-0.06,-1.73,1.28,0.52,0.04,1.73,
1.561,-0.06,-1.73,1.28,0.54,0.04,1.73,
1.562,-0.06,-1.73,1.28,0.56,0.05,1.73,
1.569,-0.06,-1.73,1.28,0.57,0.06,1.73,
1.57,-0.06,-1.84,0.95,0.57,0.06,1.73,
1.57,-0.06,-1.84,0.95,0.59,0.06,1.72,
1.57,-0.06,-1.84,0.95,0.60,0.07,1.72,
1.595,-0.06,-1.84,0.95,0.62,0.06,1.71,
1.596,-0.06,-1.84,0.95,0.63,0.06,1.70,
1.596,-0.06,-1.84,0.95,0.64,0.05,1.68,
1.596,0.06,-1.75,0.20,0.64,0.05,1.68,
1.597,0.06,-1.75,0.20,0.65,0.04,1.67,
1.597,0.06,-1.75,0.20,0.65,0.03,1.65,
1.598,0.06,-1.75,0.20,0.66,0.02,1.62,
1.598,0.06,-1.75,0.20,0.66,0.00,1.60,
1.598,0.06,-1.75,0.20,0.66,-0.01,1.57,
1.599,0.26,-1.58,-0.74,0.66,-0.01,1.57,
1.599,0.26,-1.58,-0.74,0.66,-0.03,1.54,
1.6,0.26,-1.58,-0.74,0.65,-0.06,1.50,
1.6,0.26,-1.58,-0.74,0.65,-0.08,1.47,
1.6,0.26,-1.58,-0.74,0.64,-0.11,1.43,
1.6,0.26,-1.58,-0.74,0.62,-0.14,1.40,
1.601,0.34,-1.44,-1.76,0.62,-0.14,1.40,
1.601,0.34,-1.44,-1.76,0.60,-0.17,1.36,
1.601,0.34,-1.44,-1.76,0.58,-0.19,1.32,
1.601,0.34,-1.44,-1.76,0.56,-0.22,1.28,
1.602,0.34,-1.44,-1.76,0.54,-0.24,1.25,
1.608,0.34,-1.44,-1.76,0.51,-0.25,1.21,
1.608,0.16,-1.33,-2.59,0.51,-0.25,1.21,
1.609,0.16,-1.33,-2.59,0.48,-0.26,1.18,
1.609,0.16,-1.33,-2.59,0.45,-0.26,1.15,
1.609,0.16,-1.33,-2.59,0.42,-0.25,1.12,
1.611,0.16,-1.33,-2.59,0.39,-0.25,1.09,
1.626,0.16,-1.33,-2.59,0.36,-0.23,1.07,
1.626,-0.28,-1.30,-3.10,0.36,-0.23,1.07,
1.627,-0.28,-1.30,-3.10,0.32,-0.22,1.05,
1.627,-0.28,-1.30,-3.10,0.28,-0.20,1.03,
1.627,-0.28,-1.30,-3.10,0.25,-0.18,1.02,
1.627,-0.28,-1.30,-3.10,0.21,-0.15,1.01,
1.628,-0.28,-1.30,-3.10,0.17,-0.13,1.00,
1.628,-0.66,-1.56,-3.20,0.17,-0.13,1.00,
1.628,-0.66,-1.56,-3.20,0.13,-0.11,1.00,
1.628,-0.66,-1.56,-3.20,0.10,-0.08,1.00,
1.636,-0.66,-1.56,-3.20,0.06,-0.05,1.00,
1.637,-0.66,-1.56,-3.20,0.03,-0.02,1.01,
1.637,-0.66,-1.56,-3.20,0.01,0.02,1.02,
1.637,-0.93,-1.73,-2.80,0.01,0.02,1.02,
1.637,-0.93,-1.73,-2.80,-0.02,0.07,1.03,
1.638,-0.93,-1.73,-2.80,-0.05,0.11,1.03,
1.642,-0.93,-1.73,-2.80,-0.07,0.16,1.04,
1.643,-0.93,-1.73,-2.80,-0.08,0.20,1.05,
1.643,-0.93,-1.73,-2.80,-0.10,0.24,1.06,
1.647,-1.07,-1.73,-2.23,-0.10,0.24,1.06,
1.647,-1.07,-1.73,-2.23,-0.12,0.27,1.06,
1.647,-1.07,-1.73,-2.23,-0.13,0.31,1.07,
1.649,-1.07,-1.73,-2.23,-0.14,0.33,1.07,
1.651,-1.07,-1.73,-2.23,-0.14,0.36,1.07,
1.653,-1.07,-1.73,-2.23,-0.15,0.38,1.07,
1.657,-0.85,-1.59,-1.77,-0.15,0.38,1.07,
1.657,-0.85,-1.59,-1.77,-0.15,0.39,1.07,
1.657,-0.85,-1.59,-1.77,-0.16,0.40,1.06,
1.66,-0.85,-1.59,-1.77,-0.15,0.41,1.06,
1.661,-0.85,-1.59,-1.77,-0.15,0.42,1.06,
1.663,-0.85,-1.59,-1.77,-0.15,0.43,1.05,
1.666,-0.67,-1.44,-1.39,-0.15,0.43,1.05,
1.667,-0.67,-1.44,-1.39,-0.14,0.43,1.05,
1.668,-0.67,-1.44,-1.39,-0.13,0.43,1.04,
1.671,-0.67,-1.44,-1.39,-0.13,0.43,1.04,
1.672,-0.67,-1.44,-1.39,-0.12,0.43,1.03,
1.675,-0.67,-1.44,-1.39,-0.11,0.42,1.03,
1.677,-0.51,-1.30,-1.15,-0.11,0.42,1.03,
1.677,-0.51,-1.30,-1.15,-0.09,0.40,1.02,
1.678,-0.51,-1.30,-1.15,-0.08,0.39,1.02,
1.695,-0.51,-1.30,-1.15,-0.08,0.37,1.02,
1.696,-0.51,-1.30,-1.15,-0.07,0.35,1.02,
1.696,-0.51,-1.30,-1.15,-0.06,0.33,1.02,
1.696,-0.62,-1.23,-1.18,-0.06,0.33,1.02,
1.696,-0.62,-1.23,-1.18,-0.05,0.31,1.02,
1.697,-0.62,-1.23,-1.18,-0.05,0.30,1.02,
1.699,-0.62,-1.23,-1.18,-0.04,0.28,1.02,
1.699,-0.62,-1.23,-1.18,-0.03,0.27,1.02,
1.699,-0.62,-1.23,-1.18,-0.02,0.26,1.02,
1.699,-0.68,-0.99,-1.23,-0.02,0.26,1.02,
1.7,-0.68,-0.99,-1.23,-0.01,0.24,1.01,
1.7,-0.68,-0.99,-1.23,-0.00,0.23,1.01,
1.7,-0.68,-0.99,-1.23,0.01,0.22,1.01,
1.702,-0.68,-0.99,-1.23,0.01,0.21,1.01,
1.706,-0.68,-0.99,-1.23,0.02,0.20,1.00,
1.706,-0.65,-0.83,-1.12,0.02,0.20,1.00,
1.707,-0.65,-0.83,-1.12,0.03,0.19,0.99,
1.707,-0.65,-0.83,-1.12,0.03,0.17,0.99,
1.712,-0.65,-0.83,-1.12,0.04,0.15,0.99,
1.712,-0.65,-0.83,-1.12,0.05,0.14,0.98,
1.725,-0.65,-0.83,-1.12,0.05,0.11,0.97,
1.726,-0.45,-0.67,-0.89,0.05,0.11,0.97,
1.726,-0.45,-0.67,-0.89,0.06,0.09,0.97,
1.726,-0.45,-0.67,-0.89,0.06,0.07,0.96,
1.726,-0.45,-0.67,-0.89,0.07,0.04,0.95,
1.727,-0.45,-0.67,-0.89,0.08,0.02,0.95,
1.727,-0.45,-0.67,-0.89,0.09,-0.00,0.94,
1.727,-0.10,-0.58,-0.46,0.09,-0.00,0.94,
1.727,-0.10,-0.58,-0.46,0.10,-0.02,0.93,
1.727,-0.10,-0.58,-0.46,0.12,-0.03,0.91,
1.738,-0.10,-0.58,-0.46,0.13,-0.04,0.90,
1.739,-0.10,-0.58,-0.46,0.14,-0.06,0.89,
1.739,-0.10,-0.58,-0.46,0.15,-0.07,0.88,
1.739,0.20,-0.31,-0.05,0.15,-0.07,0.88,
1.76,0.20,-0.31,-0.05,0.16,-0.08,0.86,
1.76,0.20,-0.31,-0.05,0.16,-0.09,0.85,
1.76,0.20,-0.31,-0.05,0.17,-0.10,0.83,
1.76,0.20,-0.31,-0.05,0.17,-0.12,0.81,
1.761,0.20,-0.31,-0.05,0.18,-0.13,0.79,
1.761,0.51,-0.15,0.20,0.18,-0.13,0.79,
1.761,0.51,-0.15,0.20,0.18,-0.14,0.77,
1.761,0.51,-0.15,0.20,0.18,-0.16,0.76,
1.761,0.51,-0.15,0.20,0.19,-0.17,0.74,
1.762,0.51,-0.15,0.20,0.18,-0.18,0.72,
1.762,0.51,-0.15,0.20,0.18,-0.20,0.70,
1.762,0.69,-0.05,0.31,0.18,-0.20,0.70,
1.762,0.69,-0.05,0.31,0.17,-0.21,0.69,
1.762,0.69,-0.05,0.31,0.17,-0.23,0.67,
1.763,0.69,-0.05,0.31,0.17,-0.24,0.65,
1.763,0.69,-0.05,0.31,0.16,-0.26,0.63,
1.768,0.69,-0.05,0.31,0.14,-0.27,0.62,
1.768,0.78,0.03,0.37,0.14,-0.27,0.62,
1.768,0.78,0.03,0.37,0.11,-0.28,0.60,
1.769,0.78,0.03,0.37,0.09,-0.28,0.59,
1.771,0.78,0.03,0.37,0.07,-0.29,0.57,
1.774,0.78,0.03,0.37,0.04,-0.30,0.55,
1.774,0.78,0.03,0.37,0.02,-0.31,0.52,
1.776,1.12,0.12,0.53,0.02,-0.31,0.52,
1.776,1.12,0.12,0.53,0.00,-0.32,0.50,
1.777,1.12,0.12,0.53,-0.02,-0.33,0.46,
1.78,1.12,0.12,0.53,-0.04,-0.35,0.43,
1.781,1.12,0.12,0.53,-0.06,-0.37,0.40,
1.784,1.12,0.12,0.53,-0.07,-0.40,0.37,
1.787,1.51,0.09,1.07,-0.07,-0.40,0.37,
1.788,1.51,0.09,1.07,-0.10,-0.41,0.34,
1.788,1.51,0.09,1.07,-0.11,-0.43,0.32,
1.789,1.51,0.09,1.07,-0.13,-0.44,0.29,
1.793,1.51,0.09,1.07,-0.15,-0.45,0.26,
1.793,1.51,0.09,1.07,-0.16,-0.45,0.24,
1.801,1.39,0.39,1.87,-0.16,-0.45,0.24,
1.801,1.39,0.39,1.87,-0.17,-0.44,0.22,
1.802,1.39,0.39,1.87,-0.18,-0.42,0.19,
1.802,1.39,0.39,1.87,-0.18,-0.40,0.16,
1.802,1.39,0.39,1.87,-0.19,-0.38,0.14,
1.805,1.39,0.39,1.87,-0.19,-0.36,0.10,
1.806,1.65,0.42,2.72,-0.19,-0.36,0.10,
1.806,1.65,0.42,2.72,-0.19,-0.33,0.07,
1.809,1.65,0.42,2.72,-0.19,-0.31,0.04,
1.813,1.65,0.42,2.72,-0.20,-0.25,-0.01,
1.813,1.65,0.42,2.72,-0.20,-0.23,-0.03,
1.813,1.65,0.42,2.72,-0.20,-0.22,-0.04,
1.818,1.78,0.28,3.30,-0.20,-0.22,-0.04,
1.819,1.78,0.28,3.30,-0.20,-0.19,-0.06,
1.819,1.78,0.28,3.30,-0.21,-0.16,-0.08,
1.819,1.78,0.28,3.30,-0.21,-0.13,-0.10,
1.821,1.78,0.28,3.30,-0.22,-0.09,-0.12,
1.824,1.78,0.28,3.30,-0.22,-0.06,-0.14,
1.827,1.52,0.12,3.45,-0.22,-0.06,-0.14,
1.828,1.52,0.12,3.45,-0.23,-0.03,-0.16,
1.828,1.52,0.12,3.45,-0.24,-0.00,-0.17,
1.837,1.52,0.12,3.45,-0.26,0.03,-0.18,
1.838,1.52,0.12,3.45,-0.27,0.06,-0.18,
1.838,1.52,0.12,3.45,-0.28,0.10,-0.19,
1.838,1.13,-0.03,3.30,-0.28,0.10,-0.19,
1.838,1.13,-0.03,3.30,-0.29,0.13,-0.19,
1.838,1.13,-0.03,3.30,-0.31,0.16,-0.20,
1.842,1.13,-0.03,3.30,-0.32,0.20,-0.20,
1.842,1.13,-0.03,3.30,-0.34,0.23,-0.19,
1.847,1.13,-0.03,3.30,-0.35,0.24,-0.17,
1.847,0.62,0.02,3.09,-0.35,0.24,-0.17,
1.847,0.62,0.02,3.09,-0.37,0.25,-0.15,
1.866,0.62,0.02,3.09,-0.38,0.26,-0.14,
1.866,0.62,0.02,3.09,-0.39,0.29,-0.13,
1.867,0.62,0.02,3.09,-0.40,0.33,-0.12,
1.867,0.62,0.02,3.09,-0.41,0.37,-0.12,
1.867,0.46,-0.05,2.86,-0.41,0.37,-0.12,
1.868,0.46,-0.05,2.86,-0.41,0.41,-0.12,
1.868,0.46,-0.05,2.86,-0.42,0.46,-0.12,
1.868,0.46,-0.05,2.86,-0.42,0.49,-0.12,
1.868,0.46,-0.05,2.86,-0.43,0.53,-0.13,
1.869,0.46,-0.05,2.86,-0.44,0.56,-0.14,
1.869,0.90,-0.40,2.40,-0.44,0.56,-0.14,
1.869,0.90,-0.40,2.40,-0.44,0.59,-0.14,
1.87,0.90,-0.40,2.40,-0.45,0.62,-0.15,
1.87,0.90,-0.40,2.40,-0.45,0.64,-0.16,
1.874,0.90,-0.40,2.40,-0.46,0.67,-0.17,
1.874,0.90,-0.40,2.40,-0.46,0.68,-0.18,
1.878,1.15,-0.26,2.11,-0.46,0.68,-0.18,
1.879,1.15,-0.26,2.11,-0.47,0.69,-0.20,
1.879,1.15,-0.26,2.11,-0.47,0.69,-0.21,
1.879,1.15,-0.26,2.11,-0.47,0.68,-0.23,
1.881,1.15,-0.26,2.11,-0.48,0.66,-0.24,
1.884,1.15,-0.26,2.11,-0.48,0.64,-0.26,
1.886,1.45,0.16,1.97,-0.48,0.64,-0.26,
1.886,1.45,0.16,1.97,-0.48,0.60,-0.29,
1.887,1.45,0.16,1.97,-0.49,0.57,-0.31,
1.89,1.45,0.16,1.97,-0.49,0.52,-0.34,
1.892,1.45,0.16,1.97,-0.49,0.48,-0.38,
1.899,1.45,0.16,1.97,-0.49,0.45,-0.42,
1.899,1.98,0.34,1.82,-0.49,0.45,-0.42,
1.9,1.98,0.34,1.82,-0.49,0.41,-0.46,
1.9,1.98,0.34,1.82,-0.49,0.37,-0.50,
1.9,1.98,0.34,1.82,-0.48,0.34,-0.54,
1.902,1.98,0.34,1.82,-0.48,0.30,-0.58,
1.927,1.98,0.34,1.82,-0.48,0.27,-0.62,
1.927,2.33,0.33,1.72,-0.48,0.27,-0.62,
1.927,2.33,0.33,1.72,-0.48,0.24,-0.65,
1.928,2.33,0.33,1.72,-0.48,0.21,-0.68,
1.928,2.33,0.33,1.72,-0.48,0.18,-0.71,
1.928,2.33,0.33,1.72,-0.47,0.16,-0.73,
1.928,2.33,0.33,1.72,-0.47,0.14,-0.75,
1.929,1.96,0.22,1.83,-0.47,0.14,-0.75,
1.929,1.96,0.22,1.83,-0.46,0.13,-0.77,
1.929,1.96,0.22,1.83,-0.45,0.13,-0.78,
1.929,1.96,0.22,1.83,-0.44,0.12,-0.78,
1.93,1.96,0.22,1.83,-0.40,0.16,-0.79,
1.93,1.96,0.22,1.83,-0.40,0.16,-0.79,
1.93,1.96,0.22,1.83,-0.40,0.16,-0.79,
1.93,1.39,-0.02,2.14,-0.40,0.16,-0.79,
1.931,1.39,-0.02,2.14,-0.37,0.19,-0.78,
1.931,1.39,-0.02,2.14,-0.35,0.22,-0.78,
1.931,1.39,-0.02,2.14,-0.34,0.23,-0.77,
1.938,1.39,-0.02,2.14,-0.31,0.27,-0.77,
1.938,1.04,-0.12,2.24,-0.31,0.27,-0.77,
1.939,1.04,-0.12,2.24,-0.29,0.30,-0.76,
1.939,1.04,-0.12,2.24,-0.27,0.34,-0.74,
1.939,1.04,-0.12,2.24,-0.24,0.38,-0.73,
1.946,1.04,-0.12,2.24,-0.22,0.42,-0.72,
1.946,1.04,-0.12,2.24,-0.19,0.46,-0.70,
1.949,0.77,-0.21,2.08,-0.19,0.46,-0.70,
1.95,0.77,-0.21,2.08,-0.17,0.50,-0.69,
1.95,0.77,-0.21,2.08,-0.14,0.54,-0.68,
1.95,0.77,-0.21,2.08,-0.12,0.57,-0.67,
1.952,0.77,-0.21,2.08,-0.10,0.61,-0.65,
1.956,0.77,-0.21,2.08,-0.07,0.65,-0.64,
1.956,0.69,-0.27,1.57,-0.07,0.65,-0.64,
1.956,0.69,-0.27,1.57,-0.05,0.68,-0.62,
1.957,0.69,-0.27,1.57,-0.03,0.71,-0.61,
1.961,0.69,-0.27,1.57,-0.01,0.74,-0.60,
1.976,0.69,-0.27,1.57,0.00,0.77,-0.58,
1.977,0.69,-0.27,1.57,0.02,0.80,-0.57,
1.977,0.68,-0.23,0.78,0.02,0.80,-0.57,
1.977,0.68,-0.23,0.78,0.03,0.82,-0.55,
1.977,0.68,-0.23,0.78,0.05,0.85,-0.54,
1.978,0.68,-0.23,0.78,0.06,0.87,-0.52,
1.978,0.68,-0.23,0.78,0.07,0.89,-0.51,
1.978,0.68,-0.23,0.78,0.08,0.90,-0.50,
1.978,0.69,-0.21,-0.08,0.08,0.90,-0.50,
1.978,0.69,-0.21,-0.08,0.08,0.91,-0.49,
1.979,0.69,-0.21,-0.08,0.08,0.92,-0.47,
1.979,0.69,-0.21,-0.08,0.09,0.92,-0.46,
1.991,0.69,-0.21,-0.08,0.09,0.93,-0.45,
1.992,0.69,-0.21,-0.08,0.09,0.92,-0.43,
1.992,0.76,-0.18,-0.72,0.09,0.92,-0.43,
1.992,0.76,-0.18,-0.72,0.09,0.92,-0.42,
1.992,0.76,-0.18,-0.72,0.09,0.91,-0.41,
1.993,0.76,-0.18,-0.72,0.09,0.90,-0.39,
1.993,0.76,-0.18,-0.72,0.09,0.88,-0.38,
2.001,0.76,-0.18,-0.72,0.09,0.87,-0.37,
2.002,0.83,-0.16,-0.98,0.09,0.87,-0.37,
2.002,0.83,-0.16,-0.98,0.10,0.85,-0.36,
2.003,0.83,-0.16,-0.98,0.10,0.83,-0.34,
2.003,0.83,-0.16,-0.98,0.10,0.81,-0.33,
2.003,0.83,-0.16,-0.98,0.10,0.78,-0.32,
2.003,0.83,-0.16,-0.98,0.11,0.76,-0.31,
2.005,1.00,-0.15,-0.92,0.11,0.76,-0.31,
2.005,1.00,-0.15,-0.92,0.11,0.73,-0.30,
2.007,1.00,-0.15,-0.92,0.12,0.71,-0.29,
2.009,1.00,-0.15,-0.92,0.12,0.69,-0.28,
2.012,1.00,-0.15,-0.92,0.13,0.67,-0.27,
2.013,1.00,-0.15,-0.92,0.15,0.65,-0.26,
2.016,1.24,-0.20,-0.62,0.15,0.65,-0.26,
2.016,1.24,-0.20,-0.62,0.16,0.63,-0.25,
2.018,1.24,-0.20,-0.62,0.18,0.62,-0.24,
2.019,1.24,-0.20,-0.62,0.19,0.60,-0.23,
2.022,1.24,-0.20,-0.62,0.21,0.58,-0.22,
2.025,1.24,-0.20,-0.62,0.23,0.56,-0.22,
2.026,1.59,-0.28,-0.32,0.23,0.56,-0.22,
2.026,1.59,-0.28,-0.32,0.25,0.54,-0.21,
2.028,1.59,-0.28,-0.32,0.27,0.52,-0.20,
2.03,1.59,-0.28,-0.32,0.30,0.50,-0.19,
2.033,1.59,-0.28,-0.32,0.32,0.49,-0.19,
2.033,1.59,-0.28,-0.32,0.35,0.47,-0.18,
2.036,1.70,-0.40,-0.12,0.35,0.47,-0.18,
2.036,1.70,-0.40,-0.12,0.37,0.46,-0.16,
2.038,1.70,-0.40,-0.12,0.40,0.45,-0.15,
2.039,1.70,-0.40,-0.12,0.42,0.44,-0.14,
2.041,1.70,-0.40,-0.12,0.45,0.42,-0.12,
2.044,1.70,-0.40,-0.12,0.47,0.41,-0.11,
2.046,1.67,-0.52,-0.16,0.47,0.41,-0.11,
2.046,1.67,-0.52,-0.16,0.50,0.40,-0.09,
2.048,1.67,-0.52,-0.16,0.52,0.39,-0.08,
2.05,1.67,-0.52,-0.16,0.55,0.38,-0.06,
2.051,1.67,-0.52,-0.16,0.57,0.37,-0.04,
2.053,1.67,-0.52,-0.16,0.59,0.36,-0.02,
2.056,1.47,-0.50,-0.39,0.59,0.36,-0.02,
2.057,1.47,-0.50,-0.39,0.61,0.35,0.00,
2.057,1.47,-0.50,-0.39,0.63,0.35,0.02,
2.06,1.47,-0.50,-0.39,0.64,0.34,0.04,
2.063,1.47,-0.50,-0.39,0.66,0.32,0.06,
2.063,1.47,-0.50,-0.39,0.67,0.30,0.08,
2.066,1.44,-0.52,-0.70,0.67,0.30,0.08,
2.066,1.44,-0.52,-0.70,0.69,0.28,0.10,
2.068,1.44,-0.52,-0.70,0.70,0.26,0.12,
2.093,1.44,-0.52,-0.70,0.72,0.24,0.14,
2.093,1.44,-0.52,-0.70,0.73,0.21,0.16,
2.093,1.44,-0.52,-0.70,0.74,0.19,0.17,
2.093,1.45,-0.62,-1.03,0.74,0.19,0.17,
2.094,1.45,-0.62,-1.03,0.75,0.17,0.19,
2.094,1.45,-0.62,-1.03,0.76,0.15,0.21,
2.094,1.45,-0.62,-1.03,0.77,0.14,0.22,
2.094,1.45,-0.62,-1.03,0.77,0.12,0.23,
2.094,1.45,-0.62,-1.03,0.78,0.10,0.24,
2.094,1.64,-0.78,-1.44,0.78,0.10,0.24,
2.094,1.64,-0.78,-1.44,0.78,0.08,0.25,
2.095,1.64,-0.78,-1.44,0.78,0.07,0.26,
2.095,1.64,-0.78,-1.44,0.78,0.05,0.28,
2.095,1.64,-0.78,-1.44,0.78,0.04,0.29,
2.095,1.64,-0.78,-1.44,0.78,0.03,0.30,
2.101,1.60,-0.78,-1.68,0.78,0.03,0.30,
2.102,1.60,-0.78,-1.68,0.77,0.02,0.31,
2.102,1.60,-0.78,-1.68,0.77,0.02,0.32,
2.102,1.60,-0.78,-1.68,0.76,0.02,0.34,
2.102,1.60,-0.78,-1.68,0.76,0.01,0.35,
2.106,1.60,-0.78,-1.68,0.75,0.01,0.36,
2.106,1.69,-0.78,-1.85,0.75,0.01,0.36,
2.106,1.69,-0.78,-1.85,0.74,0.01,0.37,
2.109,1.69,-0.78,-1.85,0.73,0.02,0.37,
2.11,1.69,-0.78,-1.85,0.72,0.02,0.38,
2.114,1.69,-0.78,-1.85,0.71,0.03,0.39,
2.115,1.69,-0.78,-1.85,0.69,0.04,0.39,
2.119,1.75,-0.81,-1.97,0.69,0.04,0.39,
2.119,1.75,-0.81,-1.97,0.68,0.05,0.40,
2.119,1.75,-0.81,-1.97,0.66,0.06,0.40,
2.122,1.75,-0.81,-1.97,0.64,0.06,0.41,
2.123,1.75,-0.81,-1.97,0.62,0.06,0.43,
2.123,1.75,-0.81,-1.97,0.61,0.06,0.45,
2.127,1.55,-0.26,-2.02,0.61,0.06,0.45,
2.128,1.55,-0.26,-2.02,0.60,0.05,0.46,
2.128,1.55,-0.26,-2.02,0.58,0.05,0.47,
2.137,1.55,-0.26,-2.02,0.57,0.05,0.48,
2.137,1.55,-0.26,-2.02,0.56,0.04,0.48,
2.137,1.55,-0.26,-2.02,0.55,0.03,0.48,
2.137,1.63,-0.37,-2.14,0.55,0.03,0.48,
2.138,1.63,-0.37,-2.14,0.53,0.02,0.48,
2.138,1.63,-0.37,-2.14,0.52,0.02,0.48,
2.159,1.63,-0.37,-2.14,0.51,0.02,0.47,
2.16,1.63,-0.37,-2.14,0.50,0.01,0.46,
2.16,1.63,-0.37,-2.14,0.49,0.01,0.45,
2.16,2.07,-0.64,-2.32,0.49,0.01,0.45,
2.16,2.07,-0.64,-2.32,0.48,0.01,0.44,
2.16,2.07,-0.64,-2.32,0.47,0.01,0.42,
2.16,2.07,-0.64,-2.32,0.47,0.01,0.41,
2.16,2.07,-0.64,-2.32,0.47,0.00,0.40,
2.161,2.07,-0.64,-2.32,0.47,-0.01,0.39,
2.161,2.17,-0.66,-2.33,0.47,-0.01,0.39,
2.161,2.17,-0.66,-2.33,0.47,-0.02,0.38,
2.161,2.17,-0.66,-2.33,0.47,-0.03,0.36,
2.176,2.17,-0.66,-2.33,0.48,-0.06,0.34,
2.177,2.17,-0.66,-2.33,0.48,-0.06,0.33,
2.177,2.17,-0.66,-2.33,0.48,-0.07,0.32,
2.177,2.20,-0.52,-2.33,0.48,-0.07,0.32,
2.177,2.20,-0.52,-2.33,0.49,-0.08,0.31,
2.177,2.20,-0.52,-2.33,0.49,-0.09,0.30,
2.177,2.20,-0.52,-2.33,0.49,-0.10,0.28,
2.178,2.20,-0.52,-2.33,0.49,-0.11,0.27,
2.178,2.20,-0.52,-2.33,0.50,-0.12,0.26,
2.178,2.00,-0.47,-2.48,0.50,-0.12,0.26,
2.178,2.00,-0.47,-2.48,0.50,-0.12,0.25,
2.178,2.00,-0.47,-2.48,0.50,-0.13,0.24,
2.193,2.00,-0.47,-2.48,0.50,-0.14,0.22,
2.193,2.00,-0.47,-2.48,0.49,-0.14,0.22,
2.194,2.00,-0.47,-2.48,0.48,-0.15,0.21,
2.194,1.77,-0.44,-2.80,0.48,-0.15,0.21,
2.194,1.77,-0.44,-2.80,0.48,-0.16,0.20,
2.194,1.77,-0.44,-2.80,0.47,-0.17,0.19,
2.194,1.77,-0.44,-2.80,0.46,-0.18,0.18,
2.194,1.77,-0.44,-2.80,0.45,-0.19,0.17,
2.194,1.77,-0.44,-2.80,0.44,-0.20,0.16,
2.201,1.50,-0.51,-3.03,0.44,-0.20,0.16,
2.202,1.50,-0.51,-3.03,0.43,-0.21,0.15,
2.202,1.50,-0.51,-3.03,0.41,-0.22,0.14,
2.203,1.50,-0.51,-3.03,0.40,-0.22,0.13,
2.203,1.50,-0.51,-3.03,0.39,-0.23,0.12,
2.203,1.50,-0.51,-3.03,0.38,-0.23,0.11,
2.205,1.46,-0.55,-3.13,0.38,-0.23,0.11,
2.206,1.46,-0.55,-3.13,0.38,-0.23,0.10,
2.208,1.46,-0.55,-3.13,0.37,-0.23,0.09,
2.21,1.46,-0.55,-3.13,0.36,-0.23,0.08,
2.212,1.46,-0.55,-3.13,0.35,-0.23,0.07,
2.214,1.46,-0.55,-3.13,0.34,-0.23,0.06,
2.217,1.40,-0.59,-3.16,0.34,-0.23,0.06,
2.217,1.40,-0.59,-3.16,0.33,-0.23,0.04,
2.217,1.40,-0.59,-3.16,0.31,-0.23,0.03,
2.219,1.40,-0.59,-3.16,0.30,-0.24,0.01,
2.221,1.40,-0.59,-3.16,0.29,-0.24,-0.00,
2.223,1.40,-0.59,-3.16,0.28,-0.24,-0.02,
2.226,1.45,-0.58,-3.19,0.28,-0.24,-0.02,
2.226,1.45,-0.58,-3.19,0.27,-0.24,-0.04,
2.232,1.45,-0.58,-3.19,0.26,-0.24,-0.06,
2.233,1.45,-0.58,-3.19,0.25,-0.24,-0.07,
2.233,1.45,-0.58,-3.19,0.24,-0.23,-0.08,
2.233,1.45,-0.58,-3.19,0.23,-0.23,-0.10,
2.236,1.26,-0.55,-3.08,0.23,-0.23,-0.10,
2.264,1.26,-0.55,-3.08,0.23,-0.22,-0.11,
2.264,1.26,-0.55,-3.08,0.22,-0.22,-0.13,
2.264,1.26,-0.55,-3.08,0.21,-0.22,-0.14,
2.265,1.26,-0.55,-3.08,0.20,-0.21,-0.16,
2.265,1.26,-0.55,-3.08,0.19,-0.21,-0.17,
2.265,1.18,-0.48,-3.09,0.19,-0.21,-0.17,
2.265,1.18,-0.48,-3.09,0.18,-0.21,-0.18,
2.266,1.18,-0.48,-3.09,0.18,-0.21,-0.20,
2.266,1.18,-0.48,-3.09,0.17,-0.22,-0.21,
2.266,1.18,-0.48,-3.09,0.16,-0.22,-0.23,
2.267,1.18,-0.48,-3.09,0.16,-0.23,-0.24,
2.267,1.09,-0.39,-2.94,0.16,-0.23,-0.24,
2.267,1.09,-0.39,-2.94,0.15,-0.24,-0.26,
2.268,1.09,-0.39,-2.94,0.15,-0.25,-0.28,
2.268,1.09,-0.39,-2.94,0.15,-0.27,-0.30,
2.268,1.09,-0.39,-2.94,0.15,-0.28,-0.32,
2.268,1.09,-0.39,-2.94,0.15,-0.29,-0.34,
2.269,1.03,-0.28,-2.86,0.15,-0.29,-0.34,
2.269,1.03,-0.28,-2.86,0.15,-0.31,-0.36,
2.269,1.03,-0.28,-2.86,0.15,-0.33,-0.38,
2.27,1.03,-0.28,-2.86,0.15,-0.35,-0.40,
2.285,1.03,-0.28,-2.86,0.15,-0.37,-0.42,
2.286,1.03,-0.28,-2.86,0.15,-0.40,-0.44,
2.286,0.85,-0.22,-2.88,0.15,-0.40,-0.44,
2.286,0.85,-0.22,-2.88,0.15,-0.42,-0.46,
2.286,0.85,-0.22,-2.88,0.15,-0.44,-0.48,
2.287,0.85,-0.22,-2.88,0.15,-0.46,-0.50,
2.287,0.85,-0.22,-2.88,0.14,-0.49,-0.52,
2.287,0.85,-0.22,-2.88,0.14,-0.51,-0.53,
2.288,0.72,-0.21,-2.87,0.14,-0.51,-0.53,
2.288,0.72,-0.21,-2.87,0.14,-0.53,-0.55,
2.288,0.72,-0.21,-2.87,0.14,-0.55,-0.56,
2.31,0.72,-0.21,-2.87,0.14,-0.56,-0.58,
2.31,0.72,-0.21,-2.87,0.15,-0.57,-0.59,
2.31,0.72,-0.21,-2.87,0.15,-0.59,-0.60,
2.31,0.41,-0.22,-2.68,0.15,-0.59,-0.60,
2.311,0.41,-0.22,-2.68,0.15,-0.60,-0.61,
2.311,0.41,-0.22,-2.68,0.15,-0.60,-0.62,
2.311,0.41,-0.22,-2.68,0.16,-0.61,-0.61,
2.311,0.41,-0.22,-2.68,0.16,-0.61,-0.61,
2.311,0.41,-0.22,-2.68,0.17,-0.61,-0.61,
2.312,0.01,0.16,-2.38,0.17,-0.61,-0.61,
2.312,0.01,0.16,-2.38,0.18,-0.61,-0.61,
2.312,0.01,0.16,-2.38,0.18,-0.61,-0.61,
2.312,0.01,0.16,-2.38,0.19,-0.61,-0.62,
2.312,0.01,0.16,-2.38,0.19,-0.62,-0.63,
2.324,0.01,0.16,-2.38,0.19,-0.62,-0.64,
2.326,0.13,-0.23,-2.38,0.19,-0.62,-0.64,
2.327,0.13,-0.23,-2.38,0.19,-0.63,-0.65,
2.327,0.13,-0.23,-2.38,0.19,-0.63,-0.66,
2.328,0.13,-0.23,-2.38,0.18,-0.63,-0.67,
2.329,0.13,-0.23,-2.38,0.18,-0.64,-0.69,
2.33,0.13,-0.23,-2.38,0.17,-0.64,-0.70,
2.33,0.35,-0.39,-2.54,0.17,-0.64,-0.70,
2.331,0.35,-0.39,-2.54,0.16,-0.64,-0.71,
2.332,0.35,-0.39,-2.54,0.15,-0.65,-0.72,
2.34,0.35,-0.39,-2.54,0.14,-0.65,-0.73,
2.34,0.35,-0.39,-2.54,0.13,-0.66,-0.75,
2.341,0.35,-0.39,-2.54,0.11,-0.66,-0.75,
2.341,0.25,-0.19,-2.53,0.11,-0.66,-0.75,
2.341,0.25,-0.19,-2.53,0.10,-0.67,-0.76,
2.341,0.25,-0.19,-2.53,0.08,-0.68,-0.77,
2.341,0.25,-0.19,-2.53,0.06,-0.69,-0.78,
2.342,0.25,-0.19,-2.53,0.05,-0.70,-0.79,
2.346,0.25,-0.19,-2.53,0.03,-0.70,-0.80,
2.346,0.08,0.15,-2.40,0.03,-0.70,-0.80,
2.347,0.08,0.15,-2.40,0.01,-0.71,-0.80,
2.348,0.08,0.15,-2.40,-0.01,-0.71,-0.82,
2.349,0.08,0.15,-2.40,-0.03,-0.71,-0.83,
2.353,0.08,0.15,-2.40,-0.05,-0.71,-0.84,
2.356,0.08,0.15,-2.40,-0.07,-0.71,-0.85,
2.357,0.01,0.33,-2.28,-0.07,-0.71,-0.85,
2.357,0.01,0.33,-2.28,-0.10,-0.71,-0.87,
2.357,0.01,0.33,-2.28,-0.13,-0.71,-0.88,
2.361,0.01,0.33,-2.28,-0.16,-0.71,-0.90,
2.362,0.01,0.33,-2.28,-0.18,-0.71,-0.91,
2.364,0.01,0.33,-2.28,-0.21,-0.71,-0.92,
2.366,-0.09,0.43,-1.98,-0.21,-0.71,-0.92,
2.366,-0.09,0.43,-1.98,-0.24,-0.71,-0.94,
2.367,-0.09,0.43,-1.98,-0.27,-0.71,-0.95,
2.369,-0.09,0.43,-1.98,-0.30,-0.71,-0.96,
2.371,-0.09,0.43,-1.98,-0.32,-0.70,-0.97,
2.374,-0.09,0.43,-1.98,-0.35,-0.70,-0.99,
2.397,-0.19,0.42,-1.51,-0.35,-0.70,-0.99,
2.398,-0.19,0.42,-1.51,-0.38,-0.70,-1.00,
2.398,-0.19,0.42,-1.51,-0.41,-0.70,-1.01,
2.398,-0.19,0.42,-1.51,-0.44,-0.70,-1.03,
2.398,-0.19,0.42,-1.51,-0.47,-0.70,-1.04,
2.399,-0.19,0.42,-1.51,-0.51,-0.71,-1.05,
2.399,-0.17,0.48,-0.98,-0.51,-0.71,-1.05,
2.399,-0.17,0.48,-0.98,-0.54,-0.71,-1.07,
2.4,-0.17,0.48,-0.98,-0.57,-0.72,-1.09,
2.4,-0.17,0.48,-0.98,-0.60,-0.72,-1.10,
2.4,-0.17,0.48,-0.98,-0.64,-0.73,-1.12,
2.4,-0.17,0.48,-0.98,-0.67,-0.73,-1.13,
2.401,-0.17,0.65,-0.23,-0.67,-0.73,-1.13,
2.401,-0.17,0.65,-0.23,-0.70,-0.73,-1.15,
2.401,-0.17,0.65,-0.23,-0.72,-0.74,-1.16,
2.402,-0.17,0.65,-0.23,-0.75,-0.74,-1.17,
2.402,-0.17,0.65,-0.23,-0.77,-0.73,-1.18,
2.431,-0.17,0.65,-0.23,-0.79,-0.73,-1.20,
2.431,-0.25,0.83,0.83,-0.79,-0.73,-1.20,
2.432,-0.25,0.83,0.83,-0.81,-0.72,-1.21,
2.432,-0.25,0.83,0.83,-0.82,-0.71,-1.22,
2.432,-0.25,0.83,0.83,-0.83,-0.69,-1.23,
2.433,-0.25,0.83,0.83,-0.84,-0.68,-1.24,
2.433,-0.25,0.83,0.83,-0.85,-0.65,-1.24,
2.434,-0.29,0.90,2.17,-0.85,-0.65,-1.24,
2.434,-0.29,0.90,2.17,-0.85,-0.63,-1.25,
2.434,-0.29,0.90,2.17,-0.85,-0.60,-1.26,
2.435,-0.29,0.90,2.17,-0.85,-0.57,-1.27,
2.435,-0.29,0.90,2.17,-0.85,-0.54,-1.28,
2.436,-0.29,0.90,2.17,-0.84,-0.51,-1.29,
2.436,-0.31,0.74,3.36,-0.84,-0.51,-1.29,
2.437,-0.31,0.74,3.36,-0.83,-0.47,-1.31,
2.437,-0.31,0.74,3.36,-0.83,-0.44,-1.32,
2.437,-0.31,0.74,3.36,-0.82,-0.40,-1.33,
2.438,-0.31,0.74,3.36,-0.81,-0.35,-1.34,
2.438,-0.31,0.74,3.36,-0.80,-0.31,-1.35,
2.439,-0.54,0.57,4.06,-0.80,-0.31,-1.35,
2.439,-0.54,0.57,4.06,-0.80,-0.27,-1.36,
2.439,-0.54,0.57,4.06,-0.79,-0.22,-1.37,
2.458,-0.54,0.57,4.06,-0.78,-0.17,-1.36,
2.459,-0.54,0.57,4.06,-0.77,-0.12,-1.36,
2.46,-0.54,0.57,4.06,-0.76,-0.07,-1.35,
2.46,-1.30,0.40,4.41,-0.76,-0.07,-1.35,
2.46,-1.30,0.40,4.41,-0.75,-0.01,-1.34,
2.461,-1.30,0.40,4.41,-0.74,0.04,-1.32,
2.461,-1.30,0.40,4.41,-0.73,0.10,-1.30,
2.461,-1.30,0.40,4.41,-0.72,0.15,-1.27,
2.461,-1.30,0.40,4.41,-0.71,0.21,-1.24,
2.462,-1.91,0.30,4.57,-0.71,0.21,-1.24,
2.462,-1.91,0.30,4.57,-0.69,0.27,-1.22,
2.462,-1.91,0.30,4.57,-0.68,0.32,-1.19,
2.462,-1.91,0.30,4.57,-0.66,0.38,-1.16,
2.472,-1.91,0.30,4.57,-0.64,0.43,-1.13,
2.472,-1.91,0.30,4.57,-0.62,0.49,-1.10,
2.472,-2.31,0.21,4.45,-0.62,0.49,-1.10,
2.473,-2.31,0.21,4.45,-0.61,0.54,-1.07,
2.473,-2.31,0.21,4.45,-0.59,0.59,-1.04,
2.473,-2.31,0.21,4.45,-0.57,0.63,-1.01,
2.473,-2.31,0.21,4.45,-0.56,0.67,-0.98,
2.474,-2.31,0.21,4.45,-0.54,0.71,-0.95,
2.478,-2.59,0.23,3.87,-0.54,0.71,-0.95,
2.478,-2.59,0.23,3.87,-0.53,0.74,-0.92,
2.478,-2.59,0.23,3.87,-0.51,0.77,-0.89,
2.481,-2.59,0.23,3.87,-0.50,0.80,-0.86,
2.481,-2.59,0.23,3.87,-0.49,0.82,-0.83,
2.483,-2.59,0.23,3.87,-0.48,0.84,-0.79,
2.486,-3.04,0.37,3.10,-0.48,0.84,-0.79,
2.486,-3.04,0.37,3.10,-0.47,0.86,-0.76,
2.487,-3.04,0.37,3.10,-0.47,0.87,-0.73,
2.489,-3.04,0.37,3.10,-0.47,0.88,-0.70,
2.491,-3.04,0.37,3.10,-0.48,0.89,-0.68,
2.493,-3.04,0.37,3.10,-0.50,0.89,-0.66,
2.497,-3.09,0.54,1.90,-0.50,0.89,-0.66,
2.497,-3.09,0.54,1.90,-0.51,0.89,-0.63,
2.498,-3.09,0.54,1.90,-0.53,0.89,-0.61,
2.499,-3.09,0.54,1.90,-0.56,0.88,-0.59,
2.501,-3.09,0.54,1.90,-0.58,0.87,-0.57,
2.504,-3.09,0.54,1.90,-0.60,0.86,-0.54,
2.507,-3.42,0.88,1.08,-0.60,0.86,-0.54,
2.507,-3.42,0.88,1.08,-0.62,0.85,-0.51,
2.507,-3.42,0.88,1.08,-0.64,0.83,-0.49,
2.52,-3.42,0.88,1.08,-0.69,0.77,-0.44,
2.521,-3.42,0.88,1.08,-0.70,0.75,-0.43,
2.521,-3.42,0.88,1.08,-0.72,0.73,-0.42,
2.521,-3.11,1.05,0.90,-0.72,0.73,-0.42,
2.522,-3.11,1.05,0.90,-0.74,0.69,-0.41,
2.522,-3.11,1.05,0.90,-0.78,0.65,-0.39,
2.523,-3.11,1.05,0.90,-0.81,0.60,-0.38,
2.525,-3.11,1.05,0.90,-0.84,0.55,-0.37,
2.526,-3.11,1.05,0.90,-0.87,0.51,-0.36,
2.528,-2.71,0.98,1.00,-0.87,0.51,-0.36,
2.528,-2.71,0.98,1.00,-0.91,0.46,-0.34,
2.529,-2.71,0.98,1.00,-0.93,0.42,-0.33,
2.531,-2.71,0.98,1.00,-0.96,0.38,-0.32,
2.533,-2.71,0.98,1.00,-0.99,0.35,-0.30,
2.534,-2.71,0.98,1.00,-1.01,0.32,-0.29,
2.537,-2.59,1.14,1.77,-1.01,0.32,-0.29,
2.538,-2.59,1.14,1.77,-1.03,0.29,-0.28,
2.538,-2.59,1.14,1.77,-1.04,0.27,-0.27,
2.539,-2.59,1.14,1.77,-1.05,0.25,-0.25,
2.543,-2.59,1.14,1.77,-1.06,0.24,-0.24,
2.545,-2.59,1.14,1.77,-1.06,0.24,-0.22,
2.545,-2.51,1.09,3.00,-1.06,0.24,-0.22,
2.546,-2.51,1.09,3.00,-1.07,0.24,-0.21,
2.547,-2.51,1.09,3.00,-1.06,0.24,-0.20,
2.55,-2.51,1.09,3.00,-1.06,0.26,-0.18,
2.551,-2.51,1.09,3.00,-1.05,0.28,-0.16,
2.553,-2.51,1.09,3.00,-1.04,0.30,-0.15,
2.556,-2.38,0.85,4.27,-1.04,0.30,-0.15,
2.556,-2.38,0.85,4.27,-1.02,0.32,-0.13,
2.557,-2.38,0.85,4.27,-1.00,0.35,-0.10,
2.56,-2.38,0.85,4.27,-0.97,0.38,-0.08,
2.561,-2.38,0.85,4.27,-0.94,0.42,-0.06,
2.564,-2.38,0.85,4.27,-0.91,0.46,-0.03,
2.57,-2.56,0.62,5.48,-0.91,0.46,-0.03,
2.571,-2.56,0.62,5.48,-0.87,0.49,-0.00,
2.571,-2.56,0.62,5.48,-0.83,0.54,0.03,
2.594,-2.56,0.62,5.48,-0.79,0.58,0.06,
2.594,-2.56,0.62,5.48,-0.74,0.62,0.09,
2.594,-2.56,0.62,5.48,-0.69,0.67,0.12,
2.594,-2.71,0.36,6.32,-0.69,0.67,0.12,
2.594,-2.71,0.36,6.32,-0.63,0.71,0.15,
2.594,-2.71,0.36,6.32,-0.58,0.75,0.18,
2.595,-2.71,0.36,6.32,-0.52,0.79,0.22,
2.595,-2.71,0.36,6.32,-0.45,0.83,0.25,
2.595,-2.71,0.36,6.32,-0.39,0.86,0.28,
2.595,-2.84,0.10,6.67,-0.39,0.86,0.28,
2.595,-2.84,0.10,6.67,-0.32,0.89,0.32,
2.595,-2.84,0.10,6.67,-0.26,0.92,0.35,
2.596,-2.84,0.10,6.67,-0.19,0.95,0.39,
2.596,-2.84,0.10,6.67,-0.12,0.98,0.42,
2.596,-2.84,0.10,6.67,-0.05,1.00,0.46,
2.598,-2.85,0.01,6.33,-0.05,1.00,0.46,
2.598,-2.85,0.01,6.33,0.01,1.01,0.50,
2.598,-2.85,0.01,6.33,0.08,1.02,0.53,
2.599,-2.85,0.01,6.33,0.13,1.03,0.57,
2.601,-2.85,0.01,6.33,0.19,1.03,0.60,
2.603,-2.85,0.01,6.33,0.25,1.03,0.63,
2.605,-2.69,-0.08,5.24,0.25,1.03,0.63,
2.605,-2.69,-0.08,5.24,0.30,1.02,0.66,
2.607,-2.69,-0.08,5.24,0.35,1.01,0.69,
2.609,-2.69,-0.08,5.24,0.40,1.00,0.72,
2.611,-2.69,-0.08,5.24,0.44,0.98,0.75,
2.615,-2.69,-0.08,5.24,0.48,0.96,0.77,
2.615,-2.34,-0.08,3.87,0.48,0.96,0.77,
2.615,-2.34,-0.08,3.87,0.52,0.93,0.79,
2.619,-2.34,-0.08,3.87,0.55,0.90,0.81,
2.619,-2.34,-0.08,3.87,0.59,0.87,0.83,
2.623,-2.34,-0.08,3.87,0.62,0.83,0.84,
2.623,-2.34,-0.08,3.87,0.64,0.79,0.85,
2.626,-1.94,-0.02,2.50,0.64,0.79,0.85,
2.626,-1.94,-0.02,2.50,0.66,0.75,0.86,
2.629,-1.94,-0.02,2.50,0.68,0.70,0.86,
2.63,-1.94,-0.02,2.50,0.70,0.65,0.87,
2.636,-1.94,-0.02,2.50,0.72,0.60,0.87,
2.636,-1.94,-0.02,2.50,0.73,0.56,0.87,
2.636,-1.62,0.03,1.37,0.73,0.56,0.87,
2.636,-1.62,0.03,1.37,0.74,0.51,0.87,
2.64,-1.62,0.03,1.37,0.74,0.46,0.87,
2.641,-1.62,0.03,1.37,0.75,0.42,0.87,
2.641,-1.62,0.03,1.37,0.75,0.37,0.87,
2.644,-1.62,0.03,1.37,0.76,0.33,0.88,
2.647,-1.62,-0.04,0.55,0.76,0.33,0.88,
2.647,-1.62,-0.04,0.55,0.76,0.29,0.88,
2.647,-1.62,-0.04,0.55,0.76,0.26,0.88,
2.649,-1.62,-0.04,0.55,0.76,0.22,0.89,
2.651,-1.62,-0.04,0.55,0.76,0.19,0.90,
2.653,-1.62,-0.04,0.55,0.76,0.16,0.91,
2.655,-1.63,-0.19,0.05,0.76,0.16,0.91,
2.655,-1.63,-0.19,0.05,0.76,0.14,0.91,
2.665,-1.63,-0.19,0.05,0.76,0.11,0.93,
2.666,-1.63,-0.19,0.05,0.76,0.10,0.94,
2.666,-1.63,-0.19,0.05,0.76,0.10,0.95,
2.666,-1.63,-0.19,0.05,0.77,0.10,0.96,
2.666,-1.85,-0.16,-0.13,0.77,0.10,0.96,
2.666,-1.85,-0.16,-0.13,0.78,0.11,0.98,
2.667,-1.85,-0.16,-0.13,0.78,0.10,1.00,
2.674,-1.85,-0.16,-0.13,0.79,0.10,1.01,
2.679,-1.85,-0.16,-0.13,0.79,0.09,1.02,
2.68,-1.85,-0.16,-0.13,0.79,0.08,1.03,
2.68,-1.30,-0.71,-0.35,0.79,0.08,1.03,
2.68,-1.30,-0.71,-0.35,0.79,0.06,1.04,
2.681,-1.30,-0.71,-0.35,0.78,0.04,1.05,
2.681,-1.30,-0.71,-0.35,0.78,0.02,1.06,
2.681,-1.30,-0.71,-0.35,0.77,-0.00,1.07,
2.683,-1.30,-0.71,-0.35,0.77,-0.02,1.07,
2.686,-1.04,-0.89,-0.62,0.77,-0.02,1.07,
2.686,-1.04,-0.89,-0.62,0.76,-0.04,1.08,
2.687,-1.04,-0.89,-0.62,0.76,-0.05,1.10,
2.689,-1.04,-0.89,-0.62,0.76,-0.06,1.10,
2.692,-1.04,-0.89,-0.62,0.76,-0.06,1.11,
2.693,-1.04,-0.89,-0.62,0.76,-0.07,1.12,
2.696,-1.00,-0.67,-0.77,0.76,-0.07,1.12,
2.696,-1.00,-0.67,-0.77,0.76,-0.07,1.13,
2.697,-1.00,-0.67,-0.77,0.76,-0.08,1.13,
2.699,-1.00,-0.67,-0.77,0.76,-0.08,1.13,
2.701,-1.00,-0.67,-0.77,0.77,-0.09,1.13,
2.703,-1.00,-0.67,-0.77,0.77,-0.10,1.13,
2.705,-0.60,-0.70,-1.10,0.77,-0.10,1.13,
2.706,-0.60,-0.70,-1.10,0.76,-0.11,1.12,
2.708,-0.60,-0.70,-1.10,0.76,-0.12,1.12,
2.71,-0.60,-0.70,-1.10,0.76,-0.12,1.11,
2.712,-0.60,-0.70,-1.10,0.75,-0.13,1.10,
2.713,-0.60,-0.70,-1.10,0.75,-0.13,1.10,
2.716,-0.24,-0.71,-1.60,0.75,-0.13,1.10,
2.716,-0.24,-0.71,-1.60,0.74,-0.14,1.09,
2.717,-0.24,-0.71,-1.60,0.73,-0.14,1.08,
2.719,-0.24,-0.71,-1.60,0.72,-0.15,1.07,
2.721,-0.24,-0.71,-1.60,0.71,-0.15,1.05,
2.724,-0.24,-0.71,-1.60,0.70,-0.15,1.04,
2.726,0.01,-0.71,-2.11,0.70,-0.15,1.04,
2.728,0.01,-0.71,-2.11,0.69,-0.14,1.03,
2.728,0.01,-0.71,-2.11,0.68,-0.15,1.01,
2.729,0.01,-0.71,-2.11,0.67,-0.14,0.99,
2.732,0.01,-0.71,-2.11,0.65,-0.14,0.98,
2.734,0.01,-0.71,-2.11,0.64,-0.14,0.96,
2.736,0.18,-0.80,-2.64,0.64,-0.14,0.96,
2.768,0.18,-0.80,-2.64,0.63,-0.14,0.94,
2.769,0.18,-0.80,-2.64,0.61,-0.14,0.92,
2.77,0.18,-0.80,-2.64,0.60,-0.14,0.90,
2.77,0.18,-0.80,-2.64,0.58,-0.13,0.88,
2.77,0.18,-0.80,-2.64,0.57,-0.13,0.86,
2.771,0.15,-0.85,-3.11,0.57,-0.13,0.86,
2.771,0.15,-0.85,-3.11,0.55,-0.13,0.84,
2.772,0.15,-0.85,-3.11,0.54,-0.12,0.82,
2.772,0.15,-0.85,-3.11,0.52,-0.12,0.80,
2.773,0.15,-0.85,-3.11,0.51,-0.11,0.78,
2.773,0.15,-0.85,-3.11,0.50,-0.10,0.77,
2.774,-0.13,-0.84,-3.42,0.50,-0.10,0.77,
2.774,-0.13,-0.84,-3.42,0.49,-0.09,0.75,
2.774,-0.13,-0.84,-3.42,0.48,-0.08,0.74,
2.776,-0.13,-0.84,-3.42,0.47,-0.08,0.73,
2.776,-0.13,-0.84,-3.42,0.46,-0.09,0.72,
2.777,-0.13,-0.84,-3.42,0.45,-0.09,0.71,
2.778,-0.16,-1.11,-3.77,0.45,-0.09,0.71,
2.778,-0.16,-1.11,-3.77,0.43,-0.09,0.70,
2.778,-0.16,-1.11,-3.77,0.42,-0.10,0.69,
2.779,-0.16,-1.11,-3.77,0.40,-0.10,0.68,
2.78,-0.16,-1.11,-3.77,0.39,-0.11,0.67,
2.78,-0.16,-1.11,-3.77,0.38,-0.11,0.66,
2.78,-0.30,-1.34,-4.17,0.38,-0.11,0.66,
2.781,-0.30,-1.34,-4.17,0.36,-0.12,0.66,
2.781,-0.30,-1.34,-4.17,0.35,-0.12,0.65,
2.781,-0.30,-1.34,-4.17,0.34,-0.11,0.64,
2.781,-0.30,-1.34,-4.17,0.33,-0.11,0.64,
2.788,-0.30,-1.34,-4.17,0.32,-0.11,0.64,
2.789,-0.60,-1.37,-4.38,0.32,-0.11,0.64,
2.789,-0.60,-1.37,-4.38,0.31,-0.11,0.64,
2.789,-0.60,-1.37,-4.38,0.30,-0.11,0.64,
2.789,-0.60,-1.37,-4.38,0.29,-0.10,0.64,
2.791,-0.60,-1.37,-4.38,0.28,-0.10,0.64,
2.796,-0.60,-1.37,-4.38,0.28,-0.10,0.64,
2.796,-0.73,-1.51,-4.60,0.28,-0.10,0.64,
2.797,-0.73,-1.51,-4.60,0.27,-0.10,0.64,
2.797,-0.73,-1.51,-4.60,0.26,-0.10,0.64,
2.799,-0.73,-1.51,-4.60,0.25,-0.10,0.64,
2.802,-0.73,-1.51,-4.60,0.24,-0.10,0.63,
2.803,-0.73,-1.51,-4.60,0.23,-0.10,0.63,
2.806,-0.77,-1.71,-4.91,0.23,-0.10,0.63,
2.806,-0.77,-1.71,-4.91,0.22,-0.11,0.63,
2.824,-0.77,-1.71,-4.91,0.21,-0.11,0.63,
2.824,-0.77,-1.71,-4.91,0.19,-0.12,0.62,
2.825,-0.77,-1.71,-4.91,0.18,-0.13,0.61,
2.825,-0.77,-1.71,-4.91,0.17,-0.13,0.61,
2.825,-0.69,-1.74,-5.33,0.17,-0.13,0.61,
2.825,-0.69,-1.74,-5.33,0.15,-0.15,0.59,
2.826,-0.69,-1.74,-5.33,0.13,-0.16,0.58,
2.826,-0.69,-1.74,-5.33,0.11,-0.17,0.57,
2.826,-0.69,-1.74,-5.33,0.09,-0.18,0.55,
2.827,-0.69,-1.74,-5.33,0.07,-0.19,0.54,
2.827,-0.55,-1.64,-5.83,0.07,-0.19,0.54,
2.827,-0.55,-1.64,-5.83,0.04,-0.20,0.52,
2.828,-0.55,-1.64,-5.83,0.02,-0.21,0.50,
2.829,-0.55,-1.64,-5.83,-0.01,-0.20,0.48,
2.832,-0.55,-1.64,-5.83,-0.04,-0.20,0.47,
2.833,-0.55,-1.64,-5.83,-0.08,-0.19,0.45,
2.839,-0.21,-1.68,-6.26,-0.08,-0.19,0.45,
2.839,-0.21,-1.68,-6.26,-0.12,-0.18,0.42,
2.84,-0.21,-1.68,-6.26,-0.15,-0.17,0.40,
2.84,-0.21,-1.68,-6.26,-0.20,-0.14,0.38,
2.851,-0.21,-1.68,-6.26,-0.24,-0.12,0.35,
2.852,-0.21,-1.68,-6.26,-0.28,-0.09,0.33,
2.852,-0.02,-1.70,-6.41,-0.28,-0.09,0.33,
2.853,-0.02,-1.70,-6.41,-0.32,-0.06,0.31,
2.853,-0.02,-1.70,-6.41,-0.36,-0.02,0.29,
2.853,-0.02,-1.70,-6.41,-0.40,0.02,0.27,
2.854,-0.02,-1.70,-6.41,-0.44,0.06,0.25,
2.854,-0.02,-1.70,-6.41,-0.48,0.10,0.23,
2.856,-0.12,-1.82,-6.06,-0.48,0.10,0.23,
2.857,-0.12,-1.82,-6.06,-0.51,0.14,0.22,
2.859,-0.12,-1.82,-6.06,-0.55,0.19,0.20,
2.865,-0.12,-1.82,-6.06,-0.59,0.25,0.18,
2.866,-0.12,-1.82,-6.06,-0.61,0.27,0.17,
2.866,-0.12,-1.82,-6.06,-0.64,0.31,0.16,
2.867,-0.42,-1.84,-5.42,-0.64,0.31,0.16,
2.868,-0.42,-1.84,-5.42,-0.66,0.35,0.15,
2.868,-0.42,-1.84,-5.42,-0.68,0.39,0.14,
2.87,-0.42,-1.84,-5.42,-0.70,0.42,0.13,
2.872,-0.42,-1.84,-5.42,-0.72,0.46,0.12,
2.876,-0.42,-1.84,-5.42,-0.73,0.49,0.12,
2.876,-0.75,-1.96,-4.53,-0.73,0.49,0.12,
2.878,-0.75,-1.96,-4.53,-0.73,0.52,0.12,
2.878,-0.75,-1.96,-4.53,-0.73,0.54,0.12,
2.88,-0.75,-1.96,-4.53,-0.73,0.56,0.12,
2.881,-0.75,-1.96,-4.53,-0.73,0.58,0.13,
2.885,-0.75,-1.96,-4.53,-0.72,0.59,0.13,
2.886,-1.16,-2.01,-3.47,-0.72,0.59,0.13,
2.886,-1.16,-2.01,-3.47,-0.70,0.60,0.14,
2.887,-1.16,-2.01,-3.47,-0.68,0.61,0.15,
2.889,-1.16,-2.01,-3.47,-0.66,0.61,0.16,
2.897,-1.16,-2.01,-3.47,-0.64,0.60,0.17,
2.898,-1.16,-2.01,-3.47,-0.61,0.59,0.18,
2.899,-1.27,-1.92,-2.56,-0.61,0.59,0.18,
2.899,-1.27,-1.92,-2.56,-0.59,0.58,0.19,
2.899,-1.27,-1.92,-2.56,-0.56,0.56,0.19,
2.901,-1.27,-1.92,-2.56,-0.53,0.54,0.20,
2.901,-1.27,-1.92,-2.56,-0.51,0.51,0.21,
2.926,-1.27,-1.92,-2.56,-0.49,0.48,0.21,
2.926,-1.20,-1.73,-2.05,-0.49,0.48,0.21,
2.927,-1.20,-1.73,-2.05,-0.46,0.45,0.21,
2.927,-1.20,-1.73,-2.05,-0.44,0.42,0.22,
2.927,-1.20,-1.73,-2.05,-0.41,0.39,0.22,
2.927,-1.20,-1.73,-2.05,-0.39,0.36,0.23,
2.928,-1.20,-1.73,-2.05,-0.37,0.33,0.23,
2.928,-1.14,-1.44,-1.76,-0.37,0.33,0.23,
2.928,-1.14,-1.44,-1.76,-0.35,0.29,0.24,
2.928,-1.14,-1.44,-1.76,-0.33,0.25,0.24,
2.929,-1.14,-1.44,-1.76,-0.32,0.21,0.25,
2.929,-1.14,-1.44,-1.76,-0.27,0.09,0.26,
2.929,-1.14,-1.44,-1.76,-0.27,0.09,0.26,
2.93,-1.14,-1.44,-1.76,-0.27,0.09,0.26,
2.93,-1.13,-1.15,-1.39,-0.27,0.09,0.26,
2.93,-1.13,-1.15,-1.39,-0.25,0.04,0.27,
2.93,-1.13,-1.15,-1.39,-0.23,-0.02,0.28,
2.935,-1.13,-1.15,-1.39,-0.22,-0.04,0.28,
2.936,-1.13,-1.15,-1.39,-0.21,-0.09,0.29,
2.941,-1.15,-1.01,-1.07,-0.21,-0.09,0.29,
2.941,-1.15,-1.01,-1.07,-0.19,-0.12,0.30,
2.941,-1.15,-1.01,-1.07,-0.18,-0.16,0.30,
2.942,-1.15,-1.01,-1.07,-0.17,-0.20,0.32,
2.942,-1.15,-1.01,-1.07,-0.16,-0.23,0.33,
2.944,-1.15,-1.01,-1.07,-0.14,-0.26,0.34,
2.946,-1.33,-0.94,-0.57,-0.14,-0.26,0.34,
2.947,-1.33,-0.94,-0.57,-0.13,-0.29,0.35,
2.949,-1.33,-0.94,-0.57,-0.12,-0.32,0.36,
2.95,-1.33,-0.94,-0.57,-0.11,-0.35,0.38,
2.951,-1.33,-0.94,-0.57,-0.11,-0.37,0.40,
2.953,-1.33,-0.94,-0.57,-0.10,-0.40,0.41,
2.956,-1.49,-0.82,0.01,-0.10,-0.40,0.41,
2.956,-1.49,-0.82,0.01,-0.09,-0.42,0.43,
2.966,-1.49,-0.82,0.01,-0.09,-0.43,0.45,
2.967,-1.49,-0.82,0.01,-0.08,-0.44,0.46,
2.967,-1.49,-0.82,0.01,-0.08,-0.45,0.48,
2.967,-1.49,-0.82,0.01,-0.08,-0.46,0.50,
2.968,-1.50,-0.73,0.51,-0.08,-0.46,0.50,
2.968,-1.50,-0.73,0.51,-0.08,-0.46,0.52,
2.968,-1.50,-0.73,0.51,-0.08,-0.46,0.53,
2.97,-1.50,-0.73,0.51,-0.08,-0.46,0.56,
2.971,-1.50,-0.73,0.51,-0.08,-0.45,0.58,
2.993,-1.50,-0.73,0.51,-0.09,-0.44,0.60,
2.993,-1.38,-0.53,0.97,-0.09,-0.44,0.60,
2.993,-1.38,-0.53,0.97,-0.09,-0.43,0.61,
2.994,-1.38,-0.53,0.97,-0.09,-0.42,0.63,
2.994,-1.38,-0.53,0.97,-0.09,-0.40,0.65,
2.994,-1.38,-0.53,0.97,-0.10,-0.39,0.66,
2.994,-1.38,-0.53,0.97,-0.11,-0.38,0.67,
2.995,-1.00,-0.26,1.45,-0.11,-0.38,0.67,
2.995,-1.00,-0.26,1.45,-0.11,-0.36,0.68,
2.995,-1.00,-0.26,1.45,-0.11,-0.34,0.69,
2.995,-1.00,-0.26,1.45,-0.12,-0.32,0.69,
2.996,-1.00,-0.26,1.45,-0.13,-0.30,0.70,
2.996,-1.00,-0.26,1.45,-0.13,-0.28,0.69,
2.996,-0.46,0.10,1.82,-0.13,-0.28,0.69,
2.996,-0.46,0.10,1.82,-0.14,-0.27,0.69,
2.998,-0.46,0.10,1.82,-0.16,-0.26,0.69,
3.0,-0.46,0.10,1.82,-0.17,-0.25,0.68,
3.001,-0.46,0.10,1.82,-0.18,-0.24,0.67,
3.005,-0.46,0.10,1.82,-0.20,-0.23,0.66,
3.007,0.04,0.44,2.10,-0.20,-0.23,0.66,
3.008,0.04,0.44,2.10,-0.22,-0.22,0.65,
3.008,0.04,0.44,2.10,-0.23,-0.22,0.64,
3.01,0.04,0.44,2.10,-0.25,-0.22,0.63,
3.012,0.04,0.44,2.10,-0.26,-0.21,0.61,
3.013,0.04,0.44,2.10,-0.27,-0.19,0.60,
3.016,0.28,0.77,2.50,-0.27,-0.19,0.60,
3.016,0.28,0.77,2.50,-0.28,-0.18,0.59,
3.02,0.28,0.77,2.50,-0.29,-0.17,0.57,
3.02,0.28,0.77,2.50,-0.31,-0.16,0.56,
3.021,0.28,0.77,2.50,-0.31,-0.14,0.55,
3.025,0.28,0.77,2.50,-0.32,-0.13,0.53,
3.027,0.44,1.06,2.95,-0.32,-0.13,0.53,
3.027,0.44,1.06,2.95,-0.34,-0.12,0.51,
3.028,0.44,1.06,2.95,-0.35,-0.11,0.50,
3.03,0.44,1.06,2.95,-0.36,-0.11,0.48,
3.032,0.44,1.06,2.95,-0.38,-0.10,0.47,
3.033,0.44,1.06,2.95,-0.39,-0.09,0.45,
3.036,0.46,1.23,3.27,-0.39,-0.09,0.45,
3.036,0.46,1.23,3.27,-0.41,-0.09,0.44,
3.037,0.46,1.23,3.27,-0.42,-0.08,0.43,
3.04,0.46,1.23,3.27,-0.44,-0.06,0.41,
3.042,0.46,1.23,3.27,-0.46,-0.05,0.40,
3.044,0.46,1.23,3.27,-0.48,-0.04,0.39,
3.046,0.34,1.37,3.54,-0.48,-0.04,0.39,
3.046,0.34,1.37,3.54,-0.50,-0.02,0.38,
3.047,0.34,1.37,3.54,-0.52,-0.00,0.37,
3.049,0.34,1.37,3.54,-0.55,0.02,0.36,
3.051,0.34,1.37,3.54,-0.57,0.04,0.36,
3.053,0.34,1.37,3.54,-0.59,0.06,0.35,
3.056,0.20,1.35,3.94,-0.59,0.06,0.35,
3.057,0.20,1.35,3.94,-0.60,0.08,0.35,
3.057,0.20,1.35,3.94,-0.62,0.09,0.34,
3.059,0.20,1.35,3.94,-0.64,0.11,0.34,
3.062,0.20,1.35,3.94,-0.65,0.14,0.34,
3.063,0.20,1.35,3.94,-0.66,0.16,0.34,
3.066,0.11,1.37,4.58,-0.66,0.16,0.34,
3.066,0.11,1.37,4.58,-0.67,0.20,0.34,
3.067,0.11,1.37,4.58,-0.68,0.23,0.35,
3.089,0.11,1.37,4.58,-0.69,0.26,0.35,
3.09,0.11,1.37,4.58,-0.70,0.28,0.35,
3.09,0.11,1.37,4.58,-0.70,0.31,0.35,
3.09,0.17,1.29,5.26,-0.70,0.31,0.35,
3.09,0.17,1.29,5.26,-0.70,0.34,0.35,
3.09,0.17,1.29,5.26,-0.69,0.36,0.36,
3.09,0.17,1.29,5.26,-0.69,0.39,0.36,
3.091,0.17,1.29,5.26,-0.68,0.42,0.37,
3.091,0.17,1.29,5.26,-0.66,0.45,0.37,
3.091,0.16,1.23,5.94,-0.66,0.45,0.37,
3.091,0.16,1.23,5.94,-0.64,0.49,0.38,
3.091,0.16,1.23,5.94,-0.62,0.51,0.39,
3.091,0.16,1.23,5.94,-0.60,0.54,0.40,
3.1,0.16,1.23,5.94,-0.58,0.57,0.40,
3.1,0.16,1.23,5.94,-0.56,0.59,0.41,
3.1,0.19,1.18,6.14,-0.56,0.59,0.41,
3.101,0.19,1.18,6.14,-0.54,0.61,0.42,
3.101,0.19,1.18,6.14,-0.52,0.63,0.43,
3.101,0.19,1.18,6.14,-0.50,0.65,0.43,
3.101,0.19,1.18,6.14,-0.48,0.67,0.44,
3.103,0.19,1.18,6.14,-0.47,0.68,0.45,
3.138,0.18,1.17,5.66,-0.47,0.68,0.45,
3.138,0.18,1.17,5.66,-0.45,0.69,0.46,
3.139,0.18,1.17,5.66,-0.44,0.70,0.47,
3.139,0.18,1.17,5.66,-0.43,0.70,0.48,
3.139,0.18,1.17,5.66,-0.42,0.69,0.49,
3.139,0.18,1.17,5.66,-0.41,0.68,0.50,
3.139,0.18,1.27,4.70,-0.41,0.68,0.50,
3.139,0.18,1.27,4.70,-0.41,0.66,0.50,
3.14,0.18,1.27,4.70,-0.41,0.64,0.50,
3.14,0.18,1.27,4.70,-0.41,0.61,0.51,
3.14,0.18,1.27,4.70,-0.42,0.58,0.51,
3.14,0.18,1.27,4.70,-0.43,0.55,0.51,
3.14,0.21,1.49,3.65,-0.43,0.55,0.51,
3.14,0.21,1.49,3.65,-0.44,0.51,0.51,
3.14,0.21,1.49,3.65,-0.46,0.47,0.52,
3.14,0.21,1.49,3.65,-0.47,0.42,0.52,
3.141,0.21,1.49,3.65,-0.50,0.38,0.52,
3.141,0.21,1.49,3.65,-0.52,0.34,0.52,
3.142,0.27,1.60,2.78,-0.52,0.34,0.52,
3.143,0.27,1.60,2.78,-0.54,0.30,0.52,
3.147,0.27,1.60,2.78,-0.57,0.26,0.52,
3.147,0.27,1.60,2.78,-0.59,0.21,0.51,
3.147,0.27,1.60,2.78,-0.62,0.17,0.51,
3.149,0.27,1.60,2.78,-0.65,0.14,0.50,
3.15,0.40,1.77,2.48,-0.65,0.14,0.50,
3.15,0.40,1.77,2.48,-0.68,0.11,0.50,
3.15,0.40,1.77,2.48,-0.71,0.08,0.49,
3.15,0.40,1.77,2.48,-0.73,0.05,0.48,
3.151,0.40,1.77,2.48,-0.76,0.03,0.47,
3.153,0.40,1.77,2.48,-0.78,0.02,0.46,
3.156,0.70,1.71,2.68,-0.78,0.02,0.46,
3.157,0.70,1.71,2.68,-0.81,0.01,0.45,
3.159,0.70,1.71,2.68,-0.83,-0.00,0.44,
3.159,0.70,1.71,2.68,-0.85,-0.00,0.42,
3.163,0.70,1.71,2.68,-0.87,0.01,0.41,
3.163,0.70,1.71,2.68,-0.88,0.02,0.40,
3.167,0.95,1.60,3.41,-0.88,0.02,0.40,
3.167,0.95,1.60,3.41,-0.89,0.04,0.39,
3.168,0.95,1.60,3.41,-0.90,0.07,0.38,
3.169,0.95,1.60,3.41,-0.90,0.10,0.37,
3.171,0.95,1.60,3.41,-0.90,0.14,0.36,
3.176,0.95,1.60,3.41,-0.89,0.18,0.35,
3.177,0.96,1.38,4.41,-0.89,0.18,0.35,
3.177,0.96,1.38,4.41,-0.88,0.23,0.35,
3.177,0.96,1.38,4.41,-0.87,0.28,0.34,
3.179,0.96,1.38,4.41,-0.84,0.34,0.34,
3.181,0.96,1.38,4.41,-0.82,0.40,0.33,
3.183,0.96,1.38,4.41,-0.80,0.46,0.33,
3.186,0.82,1.04,5.28,-0.80,0.46,0.33,
3.186,0.82,1.04,5.28,-0.76,0.52,0.33,
3.187,0.82,1.04,5.28,-0.73,0.58,0.34,
3.19,0.82,1.04,5.28,-0.69,0.64,0.35,
3.192,0.82,1.04,5.28,-0.64,0.70,0.36,
3.194,0.82,1.04,5.28,-0.60,0.75,0.37,
3.196,0.38,0.72,5.85,-0.60,0.75,0.37,
3.196,0.38,0.72,5.85,-0.55,0.80,0.39,
3.197,0.38,0.72,5.85,-0.49,0.85,0.40,
3.199,0.38,0.72,5.85,-0.43,0.89,0.42,
3.201,0.38,0.72,5.85,-0.37,0.92,0.45,
3.203,0.38,0.72,5.85,-0.31,0.95,0.47,
3.216,0.02,0.40,5.87,-0.31,0.95,0.47,
3.217,0.02,0.40,5.87,-0.25,0.97,0.49,
3.217,0.02,0.40,5.87,-0.20,0.98,0.52,
3.217,0.02,0.40,5.87,-0.11,1.00,0.55,
3.218,0.02,0.40,5.87,-0.08,1.00,0.57,
3.218,0.02,0.40,5.87,-0.02,1.00,0.60,
3.218,-0.16,0.14,5.20,-0.02,1.00,0.60,
3.218,-0.16,0.14,5.20,0.03,1.00,0.62,
3.219,-0.16,0.14,5.20,0.08,0.99,0.65,
3.244,-0.16,0.14,5.20,0.13,0.98,0.67,
3.244,-0.16,0.14,5.20,0.18,0.97,0.70,
3.244,-0.16,0.14,5.20,0.23,0.94,0.73,
3.245,-0.14,-0.11,4.17,0.23,0.94,0.73,
3.245,-0.14,-0.11,4.17,0.28,0.92,0.75,
3.245,-0.14,-0.11,4.17,0.32,0.88,0.78,
3.246,-0.14,-0.11,4.17,0.37,0.85,0.81,
3.246,-0.14,-0.11,4.17,0.41,0.81,0.83,
3.246,-0.14,-0.11,4.17,0.45,0.77,0.86,
3.246,0.01,-0.25,3.19,0.45,0.77,0.86,
3.28,0.01,-0.25,3.19,0.49,0.72,0.88,
3.28,0.01,-0.25,3.19,0.53,0.68,0.91,
3.281,0.01,-0.25,3.19,0.57,0.62,0.93,
3.281,0.01,-0.25,3.19,0.61,0.57,0.95,
3.281,0.01,-0.25,3.19,0.64,0.53,0.97,
3.282,0.35,-0.43,2.47,0.64,0.53,0.97,
3.282,0.35,-0.43,2.47,0.68,0.48,0.99,
3.283,0.35,-0.43,2.47,0.72,0.43,1.01,
3.283,0.35,-0.43,2.47,0.76,0.39,1.03,
3.284,0.35,-0.43,2.47,0.79,0.34,1.05,
3.284,0.35,-0.43,2.47,0.83,0.30,1.07,
3.284,0.67,-0.56,1.94,0.83,0.30,1.07,
3.285,0.67,-0.56,1.94,0.87,0.26,1.09,
3.285,0.67,-0.56,1.94,0.90,0.23,1.10,
3.286,0.67,-0.56,1.94,0.93,0.19,1.12,
3.286,0.67,-0.56,1.94,0.96,0.16,1.13,
3.286,0.67,-0.56,1.94,0.99,0.13,1.15,
3.287,1.09,-0.77,1.45,0.99,0.13,1.15,
3.287,1.09,-0.77,1.45,1.02,0.10,1.16,
3.288,1.09,-0.77,1.45,1.05,0.07,1.17,
3.288,1.09,-0.77,1.45,1.07,0.05,1.19,
3.289,1.09,-0.77,1.45,1.09,0.02,1.20,
3.289,1.09,-0.77,1.45,1.12,-0.00,1.21,
3.289,1.42,-0.93,0.96,1.12,-0.00,1.21,
3.29,1.42,-0.93,0.96,1.14,-0.02,1.22,
3.29,1.42,-0.93,0.96,1.16,-0.05,1.23,
3.291,1.42,-0.93,0.96,1.18,-0.07,1.24,
3.291,1.42,-0.93,0.96,1.20,-0.09,1.24,
3.291,1.42,-0.93,0.96,1.21,-0.11,1.25,
3.292,1.88,-1.05,0.58,1.21,-0.11,1.25,
3.292,1.88,-1.05,0.58,1.23,-0.13,1.25,
3.293,1.88,-1.05,0.58,1.24,-0.15,1.26,
3.296,1.88,-1.05,0.58,1.25,-0.16,1.26,
3.296,1.88,-1.05,0.58,1.26,-0.17,1.27,
3.297,1.88,-1.05,0.58,1.28,-0.18,1.27,
3.297,2.28,-1.21,0.26,1.28,-0.18,1.27,
3.297,2.28,-1.21,0.26,1.29,-0.19,1.27,
3.298,2.28,-1.21,0.26,1.30,-0.21,1.26,
3.308,2.28,-1.21,0.26,1.31,-0.22,1.26,
3.308,2.28,-1.21,0.26,1.32,-0.23,1.25,
3.308,2.28,-1.21,0.26,1.33,-0.25,1.25,
3.309,2.86,-1.33,0.01,1.33,-0.25,1.25,
3.309,2.86,-1.33,0.01,1.33,-0.26,1.24,
3.313,2.86,-1.33,0.01,1.34,-0.28,1.23,
3.314,2.86,-1.33,0.01,1.35,-0.30,1.22,
3.314,2.86,-1.33,0.01,1.35,-0.32,1.21,
3.314,2.86,-1.33,0.01,1.35,-0.34,1.19,
3.32,3.26,-1.32,-0.23,1.35,-0.34,1.19,
3.32,3.26,-1.32,-0.23,1.35,-0.36,1.18,
3.32,3.26,-1.32,-0.23,1.35,-0.38,1.16,
3.325,3.26,-1.32,-0.23,1.35,-0.40,1.15,
3.325,3.26,-1.32,-0.23,1.34,-0.42,1.13,
3.325,3.26,-1.32,-0.23,1.34,-0.44,1.11,
3.328,3.74,-1.31,-0.51,1.34,-0.44,1.11,
3.328,3.74,-1.31,-0.51,1.33,-0.47,1.09,
3.328,3.74,-1.31,-0.51,1.33,-0.49,1.06,
3.33,3.74,-1.31,-0.51,1.32,-0.52,1.03,
3.331,3.74,-1.31,-0.51,1.31,-0.54,1.01,
3.333,3.74,-1.31,-0.51,1.29,-0.56,0.98,
3.335,4.07,-1.25,-0.71,1.29,-0.56,0.98,
3.336,4.07,-1.25,-0.71,1.28,-0.58,0.94,
3.338,4.07,-1.25,-0.71,1.27,-0.60,0.91,
3.341,4.07,-1.25,-0.71,1.26,-0.61,0.87,
3.342,4.07,-1.25,-0.71,1.25,-0.62,0.83,
3.343,4.07,-1.25,-0.71,1.24,-0.63,0.80,
3.346,4.43,-1.25,-0.78,1.24,-0.63,0.80,
3.346,4.43,-1.25,-0.78,1.23,-0.63,0.76,
3.347,4.43,-1.25,-0.78,1.21,-0.63,0.72,
3.349,4.43,-1.25,-0.78,1.20,-0.63,0.68,
3.351,4.43,-1.25,-0.78,1.19,-0.63,0.64,
3.353,4.43,-1.25,-0.78,1.17,-0.62,0.60,
3.364,4.34,-1.30,-0.91,1.17,-0.62,0.60,
3.364,4.34,-1.30,-0.91,1.15,-0.60,0.56,
3.364,4.34,-1.30,-0.91,1.13,-0.58,0.52,
3.365,4.34,-1.30,-0.91,1.12,-0.56,0.49,
3.365,4.34,-1.30,-0.91,1.10,-0.53,0.45,
3.365,4.34,-1.30,-0.91,1.07,-0.51,0.42,
3.365,4.15,-1.43,-1.23,1.07,-0.51,0.42,
3.366,4.15,-1.43,-1.23,1.05,-0.47,0.39,
3.367,4.15,-1.43,-1.23,1.02,-0.44,0.36,
3.37,4.15,-1.43,-1.23,1.00,-0.40,0.33,
3.401,4.15,-1.43,-1.23,0.97,-0.37,0.30,
3.401,4.15,-1.43,-1.23,0.94,-0.33,0.27,
3.401,3.67,-1.56,-1.64,0.94,-0.33,0.27,
3.402,3.67,-1.56,-1.64,0.91,-0.30,0.25,
3.402,3.67,-1.56,-1.64,0.89,-0.26,0.22,
3.402,3.67,-1.56,-1.64,0.86,-0.22,0.20,
3.402,3.67,-1.56,-1.64,0.83,-0.18,0.17,
3.402,3.67,-1.56,-1.64,0.80,-0.14,0.15,
3.402,3.27,-1.74,-2.09,0.80,-0.14,0.15,
3.403,3.27,-1.74,-2.09,0.77,-0.10,0.13,
3.403,3.27,-1.74,-2.09,0.73,-0.06,0.11,
3.403,3.27,-1.74,-2.09,0.70,-0.03,0.09,
3.403,3.27,-1.74,-2.09,0.67,0.01,0.07,
3.403,3.27,-1.74,-2.09,0.64,0.04,0.06,
3.404,2.71,-1.91,-2.55,0.64,0.04,0.06,
3.404,2.71,-1.91,-2.55,0.62,0.08,0.04,
3.404,2.71,-1.91,-2.55,0.59,0.11,0.03,
3.404,2.71,-1.91,-2.55,0.56,0.14,0.01,
3.404,2.71,-1.91,-2.55,0.54,0.16,-0.00,
3.422,2.71,-1.91,-2.55,0.51,0.19,-0.01,
3.422,2.28,-2.07,-2.89,0.51,0.19,-0.01,
3.423,2.28,-2.07,-2.89,0.49,0.21,-0.02,
3.423,2.28,-2.07,-2.89,0.46,0.23,-0.03,
3.423,2.28,-2.07,-2.89,0.44,0.25,-0.04,
3.423,2.28,-2.07,-2.89,0.42,0.27,-0.05,
3.423,2.28,-2.07,-2.89,0.40,0.28,-0.05,
3.424,1.62,-2.21,-3.17,0.40,0.28,-0.05,
3.424,1.62,-2.21,-3.17,0.38,0.30,-0.06,
3.424,1.62,-2.21,-3.17,0.36,0.31,-0.06,
3.424,1.62,-2.21,-3.17,0.35,0.32,-0.06,
3.424,1.62,-2.21,-3.17,0.33,0.33,-0.06,
3.424,1.62,-2.21,-3.17,0.32,0.33,-0.06,
3.428,1.05,-2.36,-3.40,0.32,0.33,-0.06,
3.429,1.05,-2.36,-3.40,0.31,0.34,-0.05,
3.429,1.05,-2.36,-3.40,0.29,0.34,-0.04,
3.429,1.05,-2.36,-3.40,0.28,0.34,-0.04,
3.431,1.05,-2.36,-3.40,0.27,0.34,-0.03,
3.433,1.05,-2.36,-3.40,0.26,0.33,-0.02,
3.436,0.46,-2.33,-3.55,0.26,0.33,-0.02,
3.436,0.46,-2.33,-3.55,0.25,0.32,-0.01,
3.437,0.46,-2.33,-3.55,0.25,0.31,-0.00,
3.44,0.46,-2.33,-3.55,0.24,0.30,0.01,
3.442,0.46,-2.33,-3.55,0.24,0.28,0.02,
3.443,0.46,-2.33,-3.55,0.24,0.27,0.04,
3.445,0.02,-2.39,-3.50,0.24,0.27,0.04,
3.446,0.02,-2.39,-3.50,0.24,0.26,0.05,
3.448,0.02,-2.39,-3.50,0.24,0.24,0.06,
3.45,0.02,-2.39,-3.50,0.25,0.22,0.07,
3.452,0.02,-2.39,-3.50,0.26,0.20,0.08,
3.455,0.02,-2.39,-3.50,0.27,0.17,0.09,
3.456,-0.17,-2.37,-3.47,0.27,0.17,0.09,
3.458,-0.17,-2.37,-3.47,0.28,0.15,0.10,
3.461,-0.17,-2.37,-3.47,0.29,0.11,0.10,
3.462,-0.17,-2.37,-3.47,0.30,0.07,0.11,
3.462,-0.17,-2.37,-3.47,0.32,0.03,0.12,
3.463,-0.17,-2.37,-3.47,0.34,-0.02,0.13,
3.466,-0.41,-2.42,-3.28,0.34,-0.02,0.13,
3.466,-0.41,-2.42,-3.28,0.35,-0.07,0.14,
3.467,-0.41,-2.42,-3.28,0.38,-0.13,0.15,
3.469,-0.41,-2.42,-3.28,0.40,-0.19,0.16,
3.472,-0.41,-2.42,-3.28,0.43,-0.25,0.17,
3.473,-0.41,-2.42,-3.28,0.45,-0.31,0.19,
3.476,-0.74,-2.27,-2.94,0.45,-0.31,0.19,
3.476,-0.74,-2.27,-2.94,0.48,-0.37,0.20,
3.477,-0.74,-2.27,-2.94,0.51,-0.42,0.22,
3.479,-0.74,-2.27,-2.94,0.55,-0.48,0.24,
3.482,-0.74,-2.27,-2.94,0.58,-0.53,0.25,
3.483,-0.74,-2.27,-2.94,0.62,-0.57,0.27,
3.486,-0.97,-2.28,-2.56,0.62,-0.57,0.27,
3.486,-0.97,-2.28,-2.56,0.66,-0.61,0.29,
3.505,-0.97,-2.28,-2.56,0.70,-0.64,0.31,
3.505,-0.97,-2.28,-2.56,0.73,-0.67,0.33,
3.505,-0.97,-2.28,-2.56,0.77,-0.70,0.34,
3.506,-0.97,-2.28,-2.56,0.81,-0.72,0.36,
3.506,-1.05,-2.19,-2.51,0.81,-0.72,0.36,
3.506,-1.05,-2.19,-2.51,0.84,-0.73,0.38,
3.506,-1.05,-2.19,-2.51,0.87,-0.75,0.39,
3.506,-1.05,-2.19,-2.51,0.89,-0.76,0.40,
3.507,-1.05,-2.19,-2.51,0.92,-0.76,0.42,
3.507,-1.05,-2.19,-2.51,0.93,-0.76,0.43,
3.508,-1.08,-2.28,-2.97,0.93,-0.76,0.43,
3.509,-1.08,-2.28,-2.97,0.95,-0.75,0.45,
3.509,-1.08,-2.28,-2.97,0.96,-0.75,0.47,
3.509,-1.08,-2.28,-2.97,0.96,-0.73,0.48,
3.517,-1.08,-2.28,-2.97,0.96,-0.72,0.50,
3.518,-1.08,-2.28,-2.97,0.96,-0.71,0.51,
3.519,-1.01,-2.17,-3.84,0.96,-0.71,0.51,
3.52,-1.01,-2.17,-3.84,0.95,-0.69,0.52,
3.525,-1.01,-2.17,-3.84,0.94,-0.67,0.53,
3.525,-1.01,-2.17,-3.84,0.93,-0.65,0.54,
3.526,-1.01,-2.17,-3.84,0.91,-0.64,0.55,
3.526,-1.01,-2.17,-3.84,0.89,-0.62,0.55,
3.526,-0.75,-2.02,-4.68,0.89,-0.62,0.55,
3.526,-0.75,-2.02,-4.68,0.87,-0.60,0.55,
3.527,-0.75,-2.02,-4.68,0.84,-0.58,0.55,
3.529,-0.75,-2.02,-4.68,0.81,-0.56,0.55,
3.531,-0.75,-2.02,-4.68,0.78,-0.54,0.55,
3.534,-0.75,-2.02,-4.68,0.75,-0.52,0.54,
3.538,-0.34,-1.82,-5.26,0.75,-0.52,0.54,
3.538,-0.34,-1.82,-5.26,0.72,-0.50,0.53,
3.538,-0.34,-1.82,-5.26,0.69,-0.47,0.52,
3.54,-0.34,-1.82,-5.26,0.65,-0.45,0.50,
3.543,-0.34,-1.82,-5.26,0.62,-0.44,0.49,
3.544,-0.34,-1.82,-5.26,0.59,-0.42,0.48,
3.546,0.11,-1.52,-5.54,0.59,-0.42,0.48,
3.547,0.11,-1.52,-5.54,0.55,-0.41,0.46,
3.548,0.11,-1.52,-5.54,0.52,-0.39,0.44,
3.55,0.11,-1.52,-5.54,0.49,-0.38,0.42,
3.554,0.11,-1.52,-5.54,0.45,-0.38,0.39,
3.554,0.11,-1.52,-5.54,0.42,-0.37,0.37,
3.556,0.42,-1.31,-5.50,0.42,-0.37,0.37,
3.556,0.42,-1.31,-5.50,0.39,-0.36,0.34,
3.557,0.42,-1.31,-5.50,0.36,-0.35,0.31,
3.561,0.42,-1.31,-5.50,0.31,-0.34,0.25,
3.562,0.42,-1.31,-5.50,0.31,-0.34,0.25,
3.566,0.42,-1.31,-5.50,0.28,-0.33,0.22,
3.568,0.64,-0.97,-5.36,0.28,-0.33,0.22,
3.568,0.64,-0.97,-5.36,0.25,-0.33,0.19,
3.568,0.64,-0.97,-5.36,0.23,-0.33,0.16,
3.587,0.64,-0.97,-5.36,0.20,-0.33,0.12,
3.587,0.64,-0.97,-5.36,0.17,-0.32,0.09,
3.588,0.64,-0.97,-5.36,0.14,-0.32,0.05,
3.588,0.68,-0.70,-5.29,0.14,-0.32,0.05,
3.588,0.68,-0.70,-5.29,0.10,-0.32,0.02,
3.588,0.68,-0.70,-5.29,0.07,-0.32,-0.02,
3.589,0.68,-0.70,-5.29,0.04,-0.32,-0.07,
3.589,0.68,-0.70,-5.29,0.00,-0.31,-0.11,
3.589,0.68,-0.70,-5.29,-0.03,-0.31,-0.15,
3.59,0.86,-0.42,-5.26,-0.03,-0.31,-0.15,
3.59,0.86,-0.42,-5.26,-0.06,-0.30,-0.19,
3.59,0.86,-0.42,-5.26,-0.10,-0.29,-0.23,
3.59,0.86,-0.42,-5.26,-0.13,-0.28,-0.27,
3.596,0.86,-0.42,-5.26,-0.17,-0.26,-0.31,
3.596,0.86,-0.42,-5.26,-0.20,-0.25,-0.35,
3.596,0.63,-0.34,-5.00,-0.20,-0.25,-0.35,
3.597,0.63,-0.34,-5.00,-0.24,-0.23,-0.39,
3.598,0.63,-0.34,-5.00,-0.27,-0.21,-0.42,
3.599,0.63,-0.34,-5.00,-0.31,-0.19,-0.46,
3.602,0.63,-0.34,-5.00,-0.35,-0.17,-0.49,
3.604,0.63,-0.34,-5.00,-0.38,-0.15,-0.52,
3.606,0.15,-0.25,-4.70,-0.38,-0.15,-0.52,
3.606,0.15,-0.25,-4.70,-0.42,-0.12,-0.54,
3.608,0.15,-0.25,-4.70,-0.45,-0.10,-0.56,
3.61,0.15,-0.25,-4.70,-0.49,-0.08,-0.58,
3.611,0.15,-0.25,-4.70,-0.52,-0.06,-0.60,
3.613,0.15,-0.25,-4.70,-0.55,-0.04,-0.61,
3.616,-0.53,-0.35,-4.12,-0.55,-0.04,-0.61,
3.616,-0.53,-0.35,-4.12,-0.58,-0.01,-0.62,
3.617,-0.53,-0.35,-4.12,-0.61,0.01,-0.63,
3.619,-0.53,-0.35,-4.12,-0.63,0.03,-0.63,
3.63,-0.53,-0.35,-4.12,-0.65,0.06,-0.64,
3.631,-0.53,-0.35,-4.12,-0.67,0.09,-0.64,
3.631,-1.17,-0.38,-3.36,-0.67,0.09,-0.64,
3.631,-1.17,-0.38,-3.36,-0.69,0.11,-0.64,
3.631,-1.17,-0.38,-3.36,-0.70,0.13,-0.63,
3.632,-1.17,-0.38,-3.36,-0.70,0.16,-0.63,
3.658,-1.17,-0.38,-3.36,-0.71,0.18,-0.62,
3.659,-1.17,-0.38,-3.36,-0.72,0.19,-0.61,
3.659,-1.72,-0.31,-2.52,-0.72,0.19,-0.61,
3.659,-1.72,-0.31,-2.52,-0.72,0.21,-0.60,
3.659,-1.72,-0.31,-2.52,-0.71,0.22,-0.58,
3.659,-1.72,-0.31,-2.52,-0.71,0.23,-0.57,
3.66,-1.72,-0.31,-2.52,-0.70,0.23,-0.55,
3.66,-1.72,-0.31,-2.52,-0.70,0.24,-0.53,
3.66,-2.19,-0.10,-1.81,-0.70,0.24,-0.53,
3.66,-2.19,-0.10,-1.81,-0.69,0.24,-0.52,
3.66,-2.19,-0.10,-1.81,-0.68,0.24,-0.50,
3.661,-2.19,-0.10,-1.81,-0.66,0.23,-0.47,
3.661,-2.19,-0.10,-1.81,-0.65,0.23,-0.46,
3.661,-2.19,-0.10,-1.81,-0.64,0.22,-0.44,
3.661,-2.38,0.03,-1.27,-0.64,0.22,-0.44,
3.661,-2.38,0.03,-1.27,-0.62,0.22,-0.42,
3.661,-2.38,0.03,-1.27,-0.60,0.21,-0.39,
3.662,-2.38,0.03,-1.27,-0.58,0.20,-0.37,
3.662,-2.38,0.03,-1.27,-0.56,0.19,-0.35,
3.664,-2.38,0.03,-1.27,-0.54,0.18,-0.32,
3.665,-2.64,0.28,-0.93,-0.54,0.18,-0.32,
3.666,-2.64,0.28,-0.93,-0.52,0.17,-0.30,
3.667,-2.64,0.28,-0.93,-0.50,0.15,-0.27,
3.67,-2.64,0.28,-0.93,-0.48,0.14,-0.24,
3.672,-2.64,0.28,-0.93,-0.46,0.11,-0.22,
3.673,-2.64,0.28,-0.93,-0.45,0.09,-0.19,
3.676,-2.62,0.50,-0.92,-0.45,0.09,-0.19,
3.676,-2.62,0.50,-0.92,-0.43,0.06,-0.17,
3.677,-2.62,0.50,-0.92,-0.42,0.04,-0.15,
3.679,-2.62,0.50,-0.92,-0.40,0.01,-0.13,
3.682,-2.62,0.50,-0.92,-0.40,-0.02,-0.11,
3.683,-2.62,0.50,-0.92,-0.39,-0.06,-0.09,
3.685,-2.54,0.78,-0.98,-0.39,-0.06,-0.09,
3.687,-2.54,0.78,-0.98,-0.38,-0.09,-0.07,
3.687,-2.54,0.78,-0.98,-0.37,-0.12,-0.05,
3.69,-2.54,0.78,-0.98,-0.36,-0.15,-0.03,
3.691,-2.54,0.78,-0.98,-0.35,-0.18,-0.01,
3.693,-2.54,0.78,-0.98,-0.34,-0.21,0.00,
3.695,-2.28,1.04,-0.91,-0.34,-0.21,0.00,
3.696,-2.28,1.04,-0.91,-0.34,-0.24,0.02,
3.697,-2.28,1.04,-0.91,-0.34,-0.26,0.03,
3.699,-2.28,1.04,-0.91,-0.33,-0.29,0.04,
3.701,-2.28,1.04,-0.91,-0.33,-0.31,0.06,
3.703,-2.28,1.04,-0.91,-0.34,-0.33,0.07,
3.706,-2.11,1.34,-0.88,-0.34,-0.33,0.07,
3.706,-2.11,1.34,-0.88,-0.34,-0.35,0.08,
3.707,-2.11,1.34,-0.88,-0.34,-0.37,0.09,
3.71,-2.11,1.34,-0.88,-0.35,-0.38,0.10,
3.711,-2.11,1.34,-0.88,-0.35,-0.39,0.11,
3.713,-2.11,1.34,-0.88,-0.36,-0.39,0.11,
3.715,-1.82,1.51,-0.72,-0.36,-0.39,0.11,
3.716,-1.82,1.51,-0.72,-0.37,-0.39,0.12,
3.717,-1.82,1.51,-0.72,-0.37,-0.38,0.13,
3.719,-1.82,1.51,-0.72,-0.38,-0.38,0.13,
3.724,-1.82,1.51,-0.72,-0.39,-0.37,0.14,
3.724,-1.82,1.51,-0.72,-0.39,-0.36,0.14,
3.726,-1.65,1.72,-0.45,-0.39,-0.36,0.14,
3.726,-1.65,1.72,-0.45,-0.40,-0.34,0.15,
3.727,-1.65,1.72,-0.45,-0.40,-0.32,0.15,
3.729,-1.65,1.72,-0.45,-0.40,-0.31,0.15,
3.731,-1.65,1.72,-0.45,-0.40,-0.29,0.16,
3.733,-1.65,1.72,-0.45,-0.40,-0.26,0.16,
3.736,-1.43,1.89,-0.06,-0.40,-0.26,0.16,
3.755,-1.43,1.89,-0.06,-0.41,-0.24,0.16,
3.756,-1.43,1.89,-0.06,-0.41,-0.22,0.17,
3.756,-1.43,1.89,-0.06,-0.41,-0.20,0.17,
3.756,-1.43,1.89,-0.06,-0.41,-0.19,0.17,
3.756,-1.43,1.89,-0.06,-0.41,-0.17,0.17,
3.756,-1.35,2.08,0.26,-0.41,-0.17,0.17,
3.756,-1.35,2.08,0.26,-0.40,-0.15,0.18,
3.756,-1.35,2.08,0.26,-0.40,-0.13,0.18,
3.756,-1.35,2.08,0.26,-0.40,-0.11,0.18,
3.756,-1.35,2.08,0.26,-0.39,-0.09,0.19,
3.757,-1.35,2.08,0.26,-0.39,-0.08,0.19,
3.757,-1.27,2.15,0.54,-0.39,-0.08,0.19,
3.757,-1.27,2.15,0.54,-0.38,-0.06,0.20,
3.757,-1.27,2.15,0.54,-0.37,-0.04,0.20,
3.759,-1.27,2.15,0.54,-0.36,-0.03,0.20,
3.761,-1.27,2.15,0.54,-0.36,-0.02,0.20,
3.763,-1.27,2.15,0.54,-0.35,-0.02,0.20,
3.765,-1.20,2.23,0.70,-0.35,-0.02,0.20,
3.765,-1.20,2.23,0.70,-0.34,-0.01,0.21,
3.767,-1.20,2.23,0.70,-0.34,-0.01,0.21,
3.769,-1.20,2.23,0.70,-0.34,-0.01,0.21,
3.771,-1.20,2.23,0.70,-0.33,-0.02,0.21,
3.773,-1.20,2.23,0.70,-0.32,-0.02,0.21,
3.776,-0.96,2.28,0.80,-0.32,-0.02,0.21,
3.776,-0.96,2.28,0.80,-0.32,-0.03,0.21,
3.777,-0.96,2.28,0.80,-0.31,-0.04,0.21,
3.779,-0.96,2.28,0.80,-0.31,-0.05,0.20,
3.783,-0.96,2.28,0.80,-0.30,-0.06,0.20,
3.784,-0.96,2.28,0.80,-0.30,-0.07,0.20,
3.803,-0.76,2.39,0.93,-0.30,-0.07,0.20,
3.804,-0.76,2.39,0.93,-0.29,-0.08,0.19,
3.804,-0.76,2.39,0.93,-0.29,-0.09,0.19,
3.804,-0.76,2.39,0.93,-0.28,-0.10,0.18,
3.805,-0.76,2.39,0.93,-0.28,-0.11,0.17,
3.805,-0.76,2.39,0.93,-0.27,-0.13,0.16,
3.805,-0.47,2.43,1.16,-0.27,-0.13,0.16,
3.806,-0.47,2.43,1.16,-0.27,-0.14,0.15,
3.806,-0.47,2.43,1.16,-0.26,-0.15,0.14,
3.806,-0.47,2.43,1.16,-0.26,-0.16,0.13,
3.806,-0.47,2.43,1.16,-0.26,-0.17,0.11,
3.812,-0.47,2.43,1.16,-0.25,-0.17,0.10,
3.812,-0.23,2.51,1.49,-0.25,-0.17,0.10,
3.812,-0.23,2.51,1.49,-0.24,-0.17,0.08,
3.813,-0.23,2.51,1.49,-0.23,-0.17,0.06,
3.813,-0.23,2.51,1.49,-0.22,-0.17,0.04,
3.813,-0.23,2.51,1.49,-0.21,-0.17,0.02,
3.813,-0.23,2.51,1.49,-0.20,-0.16,0.00,
3.818,-0.24,2.49,1.88,-0.20,-0.16,0.00,
3.818,-0.24,2.49,1.88,-0.19,-0.14,-0.02,
3.818,-0.24,2.49,1.88,-0.17,-0.13,-0.04,
3.822,-0.24,2.49,1.88,-0.16,-0.11,-0.05,
3.826,-0.24,2.49,1.88,-0.15,-0.09,-0.07,
3.826,-0.24,2.49,1.88,-0.14,-0.07,-0.08,
3.826,-0.71,2.43,2.03,-0.14,-0.07,-0.08,
3.827,-0.71,2.43,2.03,-0.13,-0.05,-0.10,
3.827,-0.71,2.43,2.03,-0.12,-0.04,-0.11,
3.831,-0.71,2.43,2.03,-0.13,-0.01,-0.11,
3.832,-0.71,2.43,2.03,-0.13,0.01,-0.11,
3.834,-0.71,2.43,2.03,-0.15,0.03,-0.11,
3.837,-1.35,2.21,1.59,-0.15,0.03,-0.11,
3.837,-1.35,2.21,1.59,-0.16,0.05,-0.11,
3.838,-1.35,2.21,1.59,-0.18,0.07,-0.11,
3.842,-1.35,2.21,1.59,-0.21,0.09,-0.10,
3.842,-1.35,2.21,1.59,-0.23,0.12,-0.09,
3.843,-1.35,2.21,1.59,-0.26,0.14,-0.08,
3.845,-1.90,1.91,1.15,-0.26,0.14,-0.08,
3.846,-1.90,1.91,1.15,-0.29,0.16,-0.07,
3.847,-1.90,1.91,1.15,-0.32,0.18,-0.06,
3.849,-1.90,1.91,1.15,-0.35,0.20,-0.05,
3.851,-1.90,1.91,1.15,-0.37,0.22,-0.04,
3.853,-1.90,1.91,1.15,-0.40,0.24,-0.03,
3.856,-2.14,1.62,1.41,-0.40,0.24,-0.03,
3.856,-2.14,1.62,1.41,-0.42,0.26,-0.01,
3.857,-2.14,1.62,1.41,-0.43,0.29,-0.01,
3.859,-2.14,1.62,1.41,-0.45,0.31,0.00,
3.861,-2.14,1.62,1.41,-0.46,0.33,0.01,
3.863,-2.14,1.62,1.41,-0.47,0.34,0.02,
3.866,-2.30,1.42,2.10,-0.47,0.34,0.02,
3.866,-2.30,1.42,2.10,-0.47,0.36,0.03,
3.867,-2.30,1.42,2.10,-0.47,0.37,0.05,
3.873,-2.30,1.42,2.10,-0.47,0.38,0.06,
3.874,-2.30,1.42,2.10,-0.47,0.40,0.08,
3.874,-2.30,1.42,2.10,-0.46,0.41,0.09,
3.876,-2.57,1.25,2.93,-0.46,0.41,0.09,
3.876,-2.57,1.25,2.93,-0.45,0.43,0.11,
3.877,-2.57,1.25,2.93,-0.44,0.45,0.14,
3.879,-2.57,1.25,2.93,-0.42,0.47,0.16,
3.881,-2.57,1.25,2.93,-0.40,0.49,0.18,
3.883,-2.57,1.25,2.93,-0.38,0.51,0.21,
3.886,-2.84,0.95,3.71,-0.38,0.51,0.21,
3.887,-2.84,0.95,3.71,-0.36,0.53,0.23,
3.888,-2.84,0.95,3.71,-0.33,0.55,0.26,
3.889,-2.84,0.95,3.71,-0.30,0.57,0.28,
3.892,-2.84,0.95,3.71,-0.27,0.59,0.31,
3.893,-2.84,0.95,3.71,-0.24,0.62,0.34,
3.896,-2.99,0.67,4.19,-0.24,0.62,0.34,
3.896,-2.99,0.67,4.19,-0.21,0.64,0.37,
3.897,-2.99,0.67,4.19,-0.18,0.67,0.41,
3.9,-2.99,0.67,4.19,-0.15,0.69,0.45,
3.902,-2.99,0.67,4.19,-0.11,0.70,0.48,
3.932,-2.99,0.67,4.19,-0.08,0.72,0.52,
3.933,-3.27,0.37,4.38,-0.08,0.72,0.52,
3.933,-3.27,0.37,4.38,-0.04,0.73,0.55,
3.933,-3.27,0.37,4.38,-0.01,0.74,0.58,
3.934,-3.27,0.37,4.38,0.07,0.76,0.65,
3.934,-3.27,0.37,4.38,0.09,0.76,0.67,
3.935,-3.27,0.37,4.38,0.11,0.77,0.68,
3.935,-3.16,-0.01,4.31,0.11,0.77,0.68,
3.936,-3.16,-0.01,4.31,0.15,0.77,0.71,
3.936,-3.16,-0.01,4.31,0.18,0.77,0.75,
3.936,-3.16,-0.01,4.31,0.22,0.77,0.78,
3.937,-3.16,-0.01,4.31,0.33,0.77,0.88,
3.937,-3.16,-0.01,4.31,0.33,0.77,0.88,
3.938,-3.16,-0.01,4.31,0.33,0.77,0.88,
3.938,-3.22,-0.19,4.02,0.33,0.77,0.88,
3.938,-3.22,-0.19,4.02,0.38,0.77,0.92,
3.939,-3.22,-0.19,4.02,0.42,0.76,0.97,
3.939,-3.22,-0.19,4.02,0.42,0.76,0.97,
3.94,-3.22,-0.19,4.02,0.45,0.76,1.00,
3.94,-3.10,-0.14,3.64,0.45,0.76,1.00,
3.94,-3.10,-0.14,3.64,0.48,0.76,1.03,
3.941,-3.10,-0.14,3.64,0.49,0.75,1.06,
3.941,-3.10,-0.14,3.64,0.51,0.75,1.08,
3.941,-3.10,-0.14,3.64,0.52,0.74,1.11,
3.945,-3.10,-0.14,3.64,0.53,0.73,1.13,
3.946,-2.91,-0.15,2.97,0.53,0.73,1.13,
3.946,-2.91,-0.15,2.97,0.54,0.72,1.16,
3.958,-2.91,-0.15,2.97,0.55,0.70,1.18,
3.959,-2.91,-0.15,2.97,0.55,0.69,1.20,
3.959,-2.91,-0.15,2.97,0.55,0.68,1.23,
3.96,-2.91,-0.15,2.97,0.54,0.66,1.24,
3.96,-2.68,-0.08,2.37,0.54,0.66,1.24,
3.96,-2.68,-0.08,2.37,0.54,0.64,1.27,
3.961,-2.68,-0.08,2.37,0.53,0.62,1.28,
3.977,-2.68,-0.08,2.37,0.52,0.59,1.30,
3.978,-2.68,-0.08,2.37,0.51,0.57,1.32,
3.978,-2.68,-0.08,2.37,0.50,0.55,1.34,
3.978,-2.46,-0.03,1.97,0.50,0.55,1.34,
3.978,-2.46,-0.03,1.97,0.49,0.52,1.35,
3.978,-2.46,-0.03,1.97,0.47,0.49,1.36,
3.979,-2.46,-0.03,1.97,0.45,0.47,1.38,
3.979,-2.46,-0.03,1.97,0.44,0.44,1.39,
3.979,-2.46,-0.03,1.97,0.42,0.41,1.39,
3.997,-2.06,-0.06,1.83,0.42,0.41,1.39,
3.998,-2.06,-0.06,1.83,0.40,0.38,1.40,
3.998,-2.06,-0.06,1.83,0.38,0.35,1.41,
3.999,-2.06,-0.06,1.83,0.37,0.32,1.42,
3.999,-2.06,-0.06,1.83,0.35,0.29,1.42,
3.999,-2.06,-0.06,1.83,0.34,0.26,1.43,
3.999,-1.71,-0.15,2.07,0.34,0.26,1.43,
4.0,-1.71,-0.15,2.07,0.32,0.23,1.43,
4.0,-1.71,-0.15,2.07,0.31,0.21,1.44,
4.0,-1.71,-0.15,2.07,0.30,0.18,1.45,
4.0,-1.71,-0.15,2.07,0.29,0.17,1.46,
4.001,-1.71,-0.15,2.07,0.28,0.15,1.47,
4.001,-1.63,-0.11,2.41,0.28,0.15,1.47,
4.001,-1.63,-0.11,2.41,0.27,0.12,1.48,
4.001,-1.63,-0.11,2.41,0.26,0.10,1.49,
4.001,-1.63,-0.11,2.41,0.25,0.09,1.50,
4.006,-1.63,-0.11,2.41,0.24,0.09,1.50,
4.006,-1.63,-0.11,2.41,0.24,0.09,1.51,
4.007,-1.27,-0.39,2.69,0.24,0.09,1.51,
4.007,-1.27,-0.39,2.69,0.24,0.10,1.51,
4.008,-1.27,-0.39,2.69,0.24,0.12,1.51,
4.009,-1.27,-0.39,2.69,0.24,0.14,1.51,
4.011,-1.27,-0.39,2.69,0.24,0.16,1.51,
4.013,-1.27,-0.39,2.69,0.25,0.18,1.51,
4.017,-0.83,-0.65,2.86,0.25,0.18,1.51,
4.017,-0.83,-0.65,2.86,0.25,0.21,1.51,
4.017,-0.83,-0.65,2.86,0.26,0.24,1.50,
4.02,-0.83,-0.65,2.86,0.27,0.27,1.49,
4.022,-0.83,-0.65,2.86,0.28,0.31,1.49,
4.025,-0.83,-0.65,2.86,0.29,0.34,1.48,
4.026,-0.47,-0.97,2.85,0.29,0.34,1.48,
4.026,-0.47,-0.97,2.85,0.30,0.38,1.48,
4.027,-0.47,-0.97,2.85,0.31,0.41,1.47,
4.029,-0.47,-0.97,2.85,0.32,0.45,1.46,
4.031,-0.47,-0.97,2.85,0.33,0.48,1.45,
4.033,-0.47,-0.97,2.85,0.34,0.52,1.44,
4.042,-0.30,-1.17,2.52,0.34,0.52,1.44,
4.043,-0.30,-1.17,2.52,0.36,0.56,1.44,
4.043,-0.30,-1.17,2.52,0.37,0.59,1.43,
4.044,-0.30,-1.17,2.52,0.38,0.63,1.42,
4.044,-0.30,-1.17,2.52,0.40,0.66,1.41,
4.044,-0.30,-1.17,2.52,0.41,0.69,1.40,
4.046,-0.26,-1.33,1.99,0.41,0.69,1.40,
4.046,-0.26,-1.33,1.99,0.42,0.72,1.40,
4.048,-0.26,-1.33,1.99,0.44,0.75,1.39,
4.049,-0.26,-1.33,1.99,0.45,0.77,1.38,
4.061,-0.26,-1.33,1.99,0.46,0.79,1.38,
4.062,-0.26,-1.33,1.99,0.47,0.80,1.37,
4.062,-0.28,-1.34,1.29,0.47,0.80,1.37,
4.062,-0.28,-1.34,1.29,0.48,0.82,1.37,
4.062,-0.28,-1.34,1.29,0.48,0.83,1.36,
4.063,-0.28,-1.34,1.29,0.49,0.83,1.36,
4.063,-0.28,-1.34,1.29,0.50,0.84,1.35,
4.063,-0.28,-1.34,1.29,0.50,0.85,1.35,
4.068,-0.25,-1.46,0.53,0.50,0.85,1.35,
4.069,-0.25,-1.46,0.53,0.51,0.85,1.34,
4.069,-0.25,-1.46,0.53,0.51,0.85,1.34,
4.084,-0.25,-1.46,0.53,0.52,0.86,1.33,
4.084,-0.25,-1.46,0.53,0.52,0.86,1.33,
4.084,-0.25,-1.46,0.53,0.52,0.86,1.33,
4.084,-0.27,-1.46,-0.23,0.52,0.86,1.33,
4.084,-0.27,-1.46,-0.23,0.52,0.86,1.33,
4.084,-0.27,-1.46,-0.23,0.52,0.86,1.32,
4.084,-0.27,-1.46,-0.23,0.52,0.86,1.32,
4.085,-0.27,-1.46,-0.23,0.52,0.85,1.32,
4.085,-0.27,-1.46,-0.23,0.52,0.85,1.31,
4.088,-0.32,-1.53,-0.98,0.52,0.85,1.31,
4.088,-0.32,-1.53,-0.98,0.51,0.84,1.31,
4.088,-0.32,-1.53,-0.98,0.51,0.84,1.30,
4.09,-0.32,-1.53,-0.98,0.50,0.84,1.30,
4.091,-0.32,-1.53,-0.98,0.49,0.83,1.30,
4.093,-0.32,-1.53,-0.98,0.48,0.83,1.29,
4.095,-0.30,-1.57,-1.69,0.48,0.83,1.29,
4.096,-0.30,-1.57,-1.69,0.47,0.82,1.29,
4.097,-0.30,-1.57,-1.69,0.46,0.82,1.29,
4.099,-0.30,-1.57,-1.69,0.44,0.81,1.29,
4.102,-0.30,-1.57,-1.69,0.43,0.81,1.29,
4.103,-0.30,-1.57,-1.69,0.42,0.81,1.29,
4.106,-0.34,-1.61,-2.32,0.42,0.81,1.29,
4.106,-0.34,-1.61,-2.32,0.40,0.80,1.29,
4.107,-0.34,-1.61,-2.32,0.38,0.80,1.28,
4.109,-0.34,-1.61,-2.32,0.37,0.80,1.29,
4.111,-0.34,-1.61,-2.32,0.35,0.79,1.28,
4.113,-0.34,-1.61,-2.32,0.32,0.79,1.28,
4.116,-0.42,-1.62,-2.90,0.32,0.79,1.28,
4.116,-0.42,-1.62,-2.90,0.31,0.78,1.28,
4.118,-0.42,-1.62,-2.90,0.29,0.77,1.28,
4.119,-0.42,-1.62,-2.90,0.27,0.76,1.28,
4.121,-0.42,-1.62,-2.90,0.25,0.75,1.29,
4.123,-0.42,-1.62,-2.90,0.23,0.74,1.29,
4.126,-0.49,-1.72,-3.09,0.23,0.74,1.29,
4.126,-0.49,-1.72,-3.09,0.21,0.72,1.29,
4.127,-0.49,-1.72,-3.09,0.19,0.70,1.29,
4.129,-0.49,-1.72,-3.09,0.18,0.69,1.30,
4.132,-0.49,-1.72,-3.09,0.16,0.68,1.30,
4.133,-0.49,-1.72,-3.09,0.15,0.67,1.31,
4.137,-0.61,-1.78,-3.00,0.15,0.67,1.31,
4.137,-0.61,-1.78,-3.00,0.14,0.66,1.32,
4.137,-0.61,-1.78,-3.00,0.13,0.66,1.33,
4.14,-0.61,-1.78,-3.00,0.12,0.65,1.34,
4.141,-0.61,-1.78,-3.00,0.11,0.65,1.34,
4.143,-0.61,-1.78,-3.00,0.11,0.65,1.35,
4.146,-0.67,-1.84,-2.83,0.11,0.65,1.35,
4.146,-0.67,-1.84,-2.83,0.10,0.64,1.36,
4.147,-0.67,-1.84,-2.83,0.09,0.63,1.37,
4.149,-0.67,-1.84,-2.83,0.09,0.62,1.37,
4.152,-0.67,-1.84,-2.83,0.08,0.60,1.38,
4.154,-0.67,-1.84,-2.83,0.08,0.59,1.38,
4.156,-0.41,-1.77,-2.65,0.08,0.59,1.38,
4.156,-0.41,-1.77,-2.65,0.07,0.57,1.38,
4.158,-0.41,-1.77,-2.65,0.07,0.56,1.38,
4.16,-0.41,-1.77,-2.65,0.06,0.54,1.37,
4.162,-0.41,-1.77,-2.65,0.06,0.52,1.37,
4.164,-0.41,-1.77,-2.65,0.06,0.50,1.37,
4.166,-0.12,-1.63,-2.45,0.06,0.50,1.37,
4.166,-0.12,-1.63,-2.45,0.06,0.48,1.36,
4.181,-0.12,-1.63,-2.45,0.07,0.47,1.35,
4.182,-0.12,-1.63,-2.45,0.07,0.45,1.35,
4.182,-0.12,-1.63,-2.45,0.07,0.43,1.34,
4.182,-0.12,-1.63,-2.45,0.08,0.41,1.33,
4.183,0.06,-1.48,-2.25,0.08,0.41,1.33,
4.183,0.06,-1.48,-2.25,0.08,0.39,1.32,
4.184,0.06,-1.48,-2.25,0.09,0.37,1.31,
4.184,0.06,-1.48,-2.25,0.09,0.35,1.30,
4.224,0.06,-1.48,-2.25,0.10,0.33,1.29,
4.225,0.06,-1.48,-2.25,0.11,0.31,1.28,
4.225,0.25,-1.33,-2.14,0.11,0.31,1.28,
4.225,0.25,-1.33,-2.14,0.11,0.30,1.27,
4.226,0.25,-1.33,-2.14,0.11,0.28,1.25,
4.226,0.25,-1.33,-2.14,0.11,0.26,1.24,
4.226,0.25,-1.33,-2.14,0.11,0.24,1.23,
4.226,0.25,-1.33,-2.14,0.11,0.21,1.21,
4.227,0.37,-1.08,-2.12,0.11,0.21,1.21,
4.227,0.37,-1.08,-2.12,0.11,0.19,1.20,
4.227,0.37,-1.08,-2.12,0.10,0.16,1.19,
4.228,0.37,-1.08,-2.12,0.10,0.14,1.17,
4.228,0.37,-1.08,-2.12,0.09,0.12,1.16,
4.228,0.37,-1.08,-2.12,0.08,0.11,1.14,
4.229,0.45,-0.87,-2.09,0.08,0.11,1.14,
4.229,0.45,-0.87,-2.09,0.08,0.09,1.13,
4.229,0.45,-0.87,-2.09,0.07,0.08,1.11,
4.229,0.45,-0.87,-2.09,0.06,0.06,1.10,
4.23,0.45,-0.87,-2.09,0.05,0.05,1.08,
4.23,0.45,-0.87,-2.09,0.04,0.04,1.06,
4.23,0.47,-0.79,-2.03,0.04,0.04,1.06,
4.231,0.47,-0.79,-2.03,0.03,0.03,1.05,
4.231,0.47,-0.79,-2.03,0.02,0.02,1.03,
4.231,0.47,-0.79,-2.03,0.00,0.01,1.01,
4.231,0.47,-0.79,-2.03,-0.01,-0.00,1.00,
4.232,0.47,-0.79,-2.03,-0.03,-0.01,0.98,
4.232,0.36,-0.79,-1.77,-0.03,-0.01,0.98,
4.232,0.36,-0.79,-1.77,-0.04,-0.01,0.97,
4.233,0.36,-0.79,-1.77,-0.06,-0.02,0.96,
4.233,0.36,-0.79,-1.77,-0.07,-0.01,0.95,
4.233,0.36,-0.79,-1.77,-0.07,-0.01,0.94,
4.233,0.36,-0.79,-1.77,-0.09,0.00,0.94,
4.244,0.13,-0.78,-1.26,-0.09,0.00,0.94,
4.277,0.13,-0.78,-1.26,-0.09,0.02,0.93,
4.278,0.13,-0.78,-1.26,-0.10,0.03,0.93,
4.278,0.13,-0.78,-1.26,-0.10,0.05,0.92,
4.279,0.13,-0.78,-1.26,-0.10,0.08,0.92,
4.279,0.13,-0.78,-1.26,-0.10,0.10,0.92,
4.28,-0.05,-0.83,-0.68,-0.10,0.10,0.92,
4.28,-0.05,-0.83,-0.68,-0.10,0.12,0.92,
4.28,-0.05,-0.83,-0.68,-0.10,0.14,0.92,
4.281,-0.05,-0.83,-0.68,-0.10,0.17,0.92,
4.281,-0.05,-0.83,-0.68,-0.10,0.20,0.92,
4.282,-0.05,-0.83,-0.68,-0.09,0.23,0.91,
4.282,-0.06,-0.74,-0.27,-0.09,0.23,0.91,
4.282,-0.06,-0.74,-0.27,-0.09,0.26,0.91,
4.283,-0.06,-0.74,-0.27,-0.08,0.28,0.91,
4.283,-0.06,-0.74,-0.27,-0.06,0.33,0.90,
4.284,-0.06,-0.74,-0.27,-0.06,0.34,0.89,
4.284,-0.06,-0.74,-0.27,-0.06,0.35,0.89,
4.284,0.01,-0.69,0.02,-0.06,0.35,0.89,
4.285,0.01,-0.69,0.02,-0.05,0.38,0.89,
4.285,0.01,-0.69,0.02,-0.04,0.40,0.88,
4.286,0.01,-0.69,0.02,-0.03,0.42,0.87,
4.286,0.01,-0.69,0.02,-0.02,0.44,0.87,
4.286,0.01,-0.69,0.02,-0.00,0.45,0.86,
4.287,0.04,-0.60,0.16,-0.00,0.45,0.86,
4.287,0.04,-0.60,0.16,0.01,0.47,0.86,
4.288,0.04,-0.60,0.16,0.02,0.49,0.85,
4.288,0.04,-0.60,0.16,0.03,0.51,0.85,
4.288,0.04,-0.60,0.16,0.04,0.52,0.84,
4.289,0.04,-0.60,0.16,0.05,0.53,0.84,
4.289,0.05,-0.54,0.10,0.05,0.53,0.84,
4.29,0.05,-0.54,0.10,0.06,0.54,0.83,
4.29,0.05,-0.54,0.10,0.06,0.54,0.82,
4.29,0.05,-0.54,0.10,0.07,0.54,0.82,
4.305,0.05,-0.54,0.10,0.07,0.54,0.82,
4.305,0.05,-0.54,0.10,0.07,0.54,0.81,
4.306,0.07,-0.53,-0.06,0.07,0.54,0.81,
4.306,0.07,-0.53,-0.06,0.08,0.54,0.80,
4.306,0.07,-0.53,-0.06,0.08,0.53,0.80,
4.307,0.07,-0.53,-0.06,0.09,0.53,0.79,
4.307,0.07,-0.53,-0.06,0.09,0.52,0.79,
4.308,0.07,-0.53,-0.06,0.10,0.50,0.78,
4.312,0.03,-0.62,-0.06,0.10,0.50,0.78,
4.312,0.03,-0.62,-0.06,0.10,0.49,0.78,
4.312,0.03,-0.62,-0.06,0.11,0.47,0.78,
4.314,0.03,-0.62,-0.06,0.12,0.45,0.77,
4.314,0.03,-0.62,-0.06,0.13,0.43,0.77,
4.314,0.03,-0.62,-0.06,0.14,0.42,0.77,
4.316,-0.09,-0.64,0.23,0.14,0.42,0.77,
4.317,-0.09,-0.64,0.23,0.16,0.40,0.77,
4.319,-0.09,-0.64,0.23,0.18,0.38,0.77,
4.32,-0.09,-0.64,0.23,0.20,0.36,0.77,
4.321,-0.09,-0.64,0.23,0.22,0.34,0.77,
4.323,-0.09,-0.64,0.23,0.24,0.32,0.77,
4.325,-0.22,-0.75,0.60,0.24,0.32,0.77,
4.326,-0.22,-0.75,0.60,0.27,0.31,0.77,
4.327,-0.22,-0.75,0.60,0.29,0.29,0.78,
4.329,-0.22,-0.75,0.60,0.31,0.28,0.78,
4.331,-0.22,-0.75,0.60,0.34,0.26,0.78,
4.346,-0.22,-0.75,0.60,0.36,0.24,0.79,
4.346,-0.26,-0.79,0.61,0.36,0.24,0.79,
4.347,-0.26,-0.79,0.61,0.38,0.22,0.79,
4.347,-0.26,-0.79,0.61,0.40,0.21,0.80,
4.347,-0.26,-0.79,0.61,0.42,0.20,0.80,
4.347,-0.26,-0.79,0.61,0.44,0.20,0.80,
4.348,-0.26,-0.79,0.61,0.46,0.19,0.80,
4.348,-0.23,-0.74,0.62,0.46,0.19,0.80,
4.348,-0.23,-0.74,0.62,0.49,0.20,0.80,
4.348,-0.23,-0.74,0.62,0.52,0.20,0.80,
4.37,-0.23,-0.74,0.62,0.54,0.20,0.79,
4.371,-0.23,-0.74,0.62,0.57,0.21,0.79,
4.371,-0.23,-0.74,0.62,0.60,0.22,0.78,
4.371,-0.08,-0.69,0.63,0.60,0.22,0.78,
4.371,-0.08,-0.69,0.63,0.62,0.23,0.78,
4.372,-0.08,-0.69,0.63,0.65,0.24,0.77,
4.372,-0.08,-0.69,0.63,0.67,0.26,0.77,
4.372,-0.08,-0.69,0.63,0.69,0.27,0.76,
4.372,-0.08,-0.69,0.63,0.70,0.29,0.76,
4.372,-0.21,-0.82,0.15,0.70,0.29,0.76,
4.373,-0.21,-0.82,0.15,0.71,0.31,0.76,
4.373,-0.21,-0.82,0.15,0.72,0.33,0.76,
4.373,-0.21,-0.82,0.15,0.72,0.35,0.77,
4.373,-0.21,-0.82,0.15,0.72,0.37,0.77,
4.374,-0.21,-0.82,0.15,0.71,0.38,0.78,
4.376,-0.55,-0.90,-0.74,0.71,0.38,0.78,
4.376,-0.55,-0.90,-0.74,0.70,0.40,0.79,
4.377,-0.55,-0.90,-0.74,0.68,0.41,0.80,
4.379,-0.55,-0.90,-0.74,0.66,0.43,0.81,
4.381,-0.55,-0.90,-0.74,0.63,0.44,0.82,
4.384,-0.55,-0.90,-0.74,0.60,0.45,0.83,
4.386,-0.99,-0.88,-1.66,0.60,0.45,0.83,
4.386,-0.99,-0.88,-1.66,0.56,0.46,0.85,
4.387,-0.99,-0.88,-1.66,0.53,0.47,0.86,
4.39,-0.99,-0.88,-1.66,0.49,0.48,0.88,
4.392,-0.99,-0.88,-1.66,0.44,0.48,0.89,
4.393,-0.99,-0.88,-1.66,0.40,0.49,0.91,
4.396,-1.14,-0.87,-2.23,0.40,0.49,0.91,
4.396,-1.14,-0.87,-2.23,0.35,0.49,0.92,
4.399,-1.14,-0.87,-2.23,0.31,0.49,0.94,
4.4,-1.14,-0.87,-2.23,0.26,0.48,0.95,
4.404,-1.14,-0.87,-2.23,0.22,0.47,0.96,
4.428,-1.14,-0.87,-2.23,0.17,0.46,0.98,
4.428,-1.16,-0.82,-2.23,0.17,0.46,0.98,
4.428,-1.16,-0.82,-2.23,0.13,0.45,0.99,
4.429,-1.16,-0.82,-2.23,0.09,0.43,1.00,
4.429,-1.16,-0.82,-2.23,0.06,0.41,1.01,
4.429,-1.16,-0.82,-2.23,0.03,0.39,1.02,
4.429,-1.16,-0.82,-2.23,-0.00,0.37,1.03,
4.429,-0.92,-0.77,-1.64,-0.00,0.37,1.03,
4.43,-0.92,-0.77,-1.64,-0.03,0.35,1.03,
4.43,-0.92,-0.77,-1.64,-0.05,0.32,1.04,
4.43,-0.92,-0.77,-1.64,-0.07,0.30,1.05,
4.43,-0.92,-0.77,-1.64,-0.09,0.27,1.05,
4.43,-0.92,-0.77,-1.64,-0.10,0.24,1.06,
4.431,-0.69,-0.72,-0.79,-0.10,0.24,1.06,
4.431,-0.69,-0.72,-0.79,-0.11,0.21,1.06,
4.431,-0.69,-0.72,-0.79,-0.12,0.18,1.06,
4.431,-0.69,-0.72,-0.79,-0.12,0.15,1.06,
4.431,-0.69,-0.72,-0.79,-0.12,0.12,1.07,
4.435,-0.69,-0.72,-0.79,-0.12,0.10,1.07,
4.436,-0.47,-0.63,0.14,-0.12,0.10,1.07,
4.437,-0.47,-0.63,0.14,-0.11,0.07,1.07,
4.437,-0.47,-0.63,0.14,-0.11,0.05,1.08,
4.439,-0.47,-0.63,0.14,-0.10,0.02,1.08,
4.441,-0.47,-0.63,0.14,-0.09,0.00,1.08,
4.443,-0.47,-0.63,0.14,-0.08,-0.02,1.08,
4.445,-0.33,-0.48,0.90,-0.08,-0.02,1.08,
4.446,-0.33,-0.48,0.90,-0.07,-0.03,1.08,
4.447,-0.33,-0.48,0.90,-0.06,-0.05,1.08,
4.455,-0.33,-0.48,0.90,-0.05,-0.06,1.08,
4.455,-0.33,-0.48,0.90,-0.04,-0.08,1.08,
4.455,-0.33,-0.48,0.90,-0.04,-0.09,1.08,
4.456,-0.16,-0.35,1.20,-0.04,-0.09,1.08,
4.456,-0.16,-0.35,1.20,-0.03,-0.11,1.09,
4.457,-0.16,-0.35,1.20,-0.03,-0.13,1.08,
4.46,-0.16,-0.35,1.20,-0.04,-0.14,1.08,
4.464,-0.16,-0.35,1.20,-0.04,-0.16,1.09,
4.464,-0.16,-0.35,1.20,-0.06,-0.18,1.09,
4.472,-0.02,-0.35,1.08,-0.06,-0.18,1.09,
4.473,-0.02,-0.35,1.08,-0.07,-0.20,1.08,
4.473,-0.02,-0.35,1.08,-0.09,-0.22,1.08,
4.474,-0.02,-0.35,1.08,-0.12,-0.25,1.08,
4.474,-0.02,-0.35,1.08,-0.15,-0.27,1.08,
4.474,-0.02,-0.35,1.08,-0.19,-0.29,1.07,
4.475,0.27,-0.37,0.79,-0.19,-0.29,1.07,
4.476,0.27,-0.37,0.79,-0.22,-0.31,1.07,
4.477,0.27,-0.37,0.79,-0.26,-0.33,1.06,
4.479,0.27,-0.37,0.79,-0.30,-0.34,1.06,
4.483,0.27,-0.37,0.79,-0.34,-0.35,1.05,
4.483,0.27,-0.37,0.79,-0.37,-0.37,1.04,
4.486,0.60,-0.35,1.01,-0.37,-0.37,1.04,
4.486,0.60,-0.35,1.01,-0.41,-0.37,1.03,
4.488,0.60,-0.35,1.01,-0.45,-0.38,1.02,
4.489,0.60,-0.35,1.01,-0.48,-0.38,1.01,
4.491,0.60,-0.35,1.01,-0.51,-0.38,1.00,
4.493,0.60,-0.35,1.01,-0.54,-0.37,0.99,
4.496,0.91,-0.26,1.71,-0.54,-0.37,0.99,
4.496,0.91,-0.26,1.71,-0.57,-0.36,0.97,
4.497,0.91,-0.26,1.71,-0.59,-0.35,0.96,
4.501,0.91,-0.26,1.71,-0.62,-0.35,0.95,
4.501,0.91,-0.26,1.71,-0.65,-0.34,0.94,
4.503,0.91,-0.26,1.71,-0.67,-0.32,0.93,
4.506,1.19,-0.30,2.39,-0.67,-0.32,0.93,
4.506,1.19,-0.30,2.39,-0.69,-0.29,0.91,
4.507,1.19,-0.30,2.39,-0.71,-0.25,0.90,
4.509,1.19,-0.30,2.39,-0.73,-0.21,0.89,
4.511,1.19,-0.30,2.39,-0.75,-0.16,0.87,
4.513,1.19,-0.30,2.39,-0.76,-0.11,0.86,
4.517,1.37,-0.29,2.87,-0.76,-0.11,0.86,
4.517,1.37,-0.29,2.87,-0.78,-0.06,0.85,
4.517,1.37,-0.29,2.87,-0.80,-0.02,0.84,
4.519,1.37,-0.29,2.87,-0.82,0.03,0.82,
4.524,1.37,-0.29,2.87,-0.83,0.07,0.81,
4.527,1.37,-0.29,2.87,-0.85,0.12,0.78,
4.528,1.81,-0.57,3.25,-0.85,0.12,0.78,
4.528,1.81,-0.57,3.25,-0.86,0.18,0.76,
4.528,1.81,-0.57,3.25,-0.87,0.24,0.74,
4.531,1.81,-0.57,3.25,-0.88,0.31,0.72,
4.532,1.81,-0.57,3.25,-0.89,0.36,0.69,
4.535,1.81,-0.57,3.25,-0.89,0.42,0.67,
4.536,2.07,-0.94,3.57,-0.89,0.42,0.67,
4.537,2.07,-0.94,3.57,-0.90,0.47,0.64,
4.538,2.07,-0.94,3.57,-0.90,0.52,0.62,
4.539,2.07,-0.94,3.57,-0.89,0.57,0.60,
4.541,2.07,-0.94,3.57,-0.89,0.61,0.58,
4.544,2.07,-0.94,3.57,-0.88,0.66,0.56,
4.546,1.85,-1.23,3.99,-0.88,0.66,0.56,
4.546,1.85,-1.23,3.99,-0.86,0.70,0.54,
4.547,1.85,-1.23,3.99,-0.84,0.74,0.53,
4.55,1.85,-1.23,3.99,-0.83,0.77,0.52,
4.552,1.85,-1.23,3.99,-0.81,0.79,0.51,
4.553,1.85,-1.23,3.99,-0.78,0.81,0.50,
4.556,1.34,-1.26,4.20,-0.78,0.81,0.50,
4.556,1.34,-1.26,4.20,-0.76,0.83,0.50,
4.559,1.34,-1.26,4.20,-0.74,0.84,0.49,
4.56,1.34,-1.26,4.20,-0.71,0.85,0.49,
4.561,1.34,-1.26,4.20,-0.69,0.85,0.49,
4.563,1.34,-1.26,4.20,-0.66,0.85,0.49,
4.566,0.94,-1.45,4.23,-0.66,0.85,0.49,
4.567,0.94,-1.45,4.23,-0.64,0.85,0.49,
4.568,0.94,-1.45,4.23,-0.61,0.85,0.50,
4.592,0.94,-1.45,4.23,-0.59,0.85,0.50,
4.592,0.94,-1.45,4.23,-0.56,0.85,0.50,
4.592,0.94,-1.45,4.23,-0.54,0.84,0.51,
4.592,0.67,-1.60,4.05,-0.54,0.84,0.51,
4.593,0.67,-1.60,4.05,-0.51,0.83,0.52,
4.593,0.67,-1.60,4.05,-0.48,0.82,0.53,
4.593,0.67,-1.60,4.05,-0.45,0.81,0.54,
4.593,0.67,-1.60,4.05,-0.42,0.80,0.55,
4.594,0.67,-1.60,4.05,-0.39,0.79,0.56,
4.594,0.53,-1.74,3.89,-0.39,0.79,0.56,
4.594,0.53,-1.74,3.89,-0.36,0.77,0.58,
4.595,0.53,-1.74,3.89,-0.32,0.76,0.59,
4.595,0.53,-1.74,3.89,-0.29,0.74,0.60,
4.595,0.53,-1.74,3.89,-0.26,0.72,0.62,
4.595,0.53,-1.74,3.89,-0.22,0.70,0.63,
4.596,0.52,-1.74,3.61,-0.22,0.70,0.63,
4.596,0.52,-1.74,3.61,-0.19,0.68,0.64,
4.604,0.52,-1.74,3.61,-0.15,0.66,0.65,
4.605,0.52,-1.74,3.61,-0.12,0.63,0.66,
4.605,0.52,-1.74,3.61,-0.08,0.61,0.66,
4.605,0.52,-1.74,3.61,-0.05,0.58,0.67,
4.606,0.80,-1.77,3.22,-0.05,0.58,0.67,
4.606,0.80,-1.77,3.22,-0.02,0.55,0.68,
4.609,0.80,-1.77,3.22,0.02,0.52,0.68,
4.614,0.80,-1.77,3.22,0.08,0.46,0.68,
4.615,0.80,-1.77,3.22,0.10,0.45,0.68,
4.615,0.80,-1.77,3.22,0.11,0.43,0.68,
4.626,1.04,-1.68,2.72,0.11,0.43,0.68,
4.627,1.04,-1.68,2.72,0.15,0.40,0.68,
4.627,1.04,-1.68,2.72,0.18,0.36,0.68,
4.627,1.04,-1.68,2.72,0.20,0.33,0.68,
4.627,1.04,-1.68,2.72,0.23,0.29,0.68,
4.628,1.04,-1.68,2.72,0.26,0.26,0.67,
4.628,1.20,-1.60,2.13,0.26,0.26,0.67,
4.628,1.20,-1.60,2.13,0.29,0.22,0.67,
4.628,1.20,-1.60,2.13,0.31,0.19,0.67,
4.642,1.20,-1.60,2.13,0.33,0.16,0.67,
4.643,1.20,-1.60,2.13,0.35,0.12,0.67,
4.643,1.20,-1.60,2.13,0.37,0.09,0.66,
4.643,1.28,-1.53,1.50,0.37,0.09,0.66,
4.643,1.28,-1.53,1.50,0.39,0.07,0.66,
4.644,1.28,-1.53,1.50,0.41,0.04,0.66,
4.644,1.28,-1.53,1.50,0.42,0.02,0.66,
4.644,1.28,-1.53,1.50,0.44,-0.00,0.65,
4.644,1.28,-1.53,1.50,0.45,-0.02,0.65,
4.646,1.41,-1.56,0.83,0.45,-0.02,0.65,
4.647,1.41,-1.56,0.83,0.45,-0.04,0.64,
4.651,1.41,-1.56,0.83,0.46,-0.05,0.64,
4.651,1.41,-1.56,0.83,0.46,-0.07,0.63,
4.652,1.41,-1.56,0.83,0.46,-0.07,0.63,
4.654,1.41,-1.56,0.83,0.45,-0.08,0.63,
4.656,1.53,-1.53,0.07,0.45,-0.08,0.63,
4.656,1.53,-1.53,0.07,0.45,-0.09,0.62,
4.657,1.53,-1.53,0.07,0.44,-0.09,0.61,
4.659,1.53,-1.53,0.07,0.43,-0.09,0.61,
4.662,1.53,-1.53,0.07,0.42,-0.09,0.60,
4.664,1.53,-1.53,0.07,0.40,-0.09,0.59,
4.666,1.69,-1.48,-0.52,0.40,-0.09,0.59,
4.667,1.69,-1.48,-0.52,0.39,-0.09,0.58,
4.668,1.69,-1.48,-0.52,0.38,-0.09,0.57,
4.669,1.69,-1.48,-0.52,0.36,-0.08,0.56,
4.671,1.69,-1.48,-0.52,0.35,-0.07,0.55,
4.673,1.69,-1.48,-0.52,0.33,-0.06,0.53,
4.676,1.78,-1.35,-0.90,0.33,-0.06,0.53,
4.676,1.78,-1.35,-0.90,0.32,-0.05,0.52,
4.677,1.78,-1.35,-0.90,0.30,-0.03,0.51,
4.679,1.78,-1.35,-0.90,0.29,-0.02,0.49,
4.683,1.78,-1.35,-0.90,0.27,-0.00,0.48,
4.683,1.78,-1.35,-0.90,0.26,0.01,0.46,
4.686,1.90,-1.27,-1.13,0.26,0.01,0.46,
4.686,1.90,-1.27,-1.13,0.25,0.03,0.45,
4.688,1.90,-1.27,-1.13,0.24,0.05,0.43,
4.689,1.90,-1.27,-1.13,0.22,0.08,0.40,
4.692,1.90,-1.27,-1.13,0.21,0.10,0.39,
4.693,1.90,-1.27,-1.13,0.21,0.11,0.38,
4.696,1.85,-1.14,-1.27,0.21,0.11,0.38,
4.696,1.85,-1.14,-1.27,0.20,0.14,0.36,
4.697,1.85,-1.14,-1.27,0.19,0.16,0.34,
4.7,1.85,-1.14,-1.27,0.18,0.19,0.31,
4.701,1.85,-1.14,-1.27,0.18,0.20,0.30,
4.703,1.85,-1.14,-1.27,0.18,0.22,0.29,
4.706,1.80,-1.08,-1.38,0.18,0.22,0.29,
4.706,1.80,-1.08,-1.38,0.18,0.25,0.26,
4.707,1.80,-1.08,-1.38,0.18,0.25,0.25,
4.71,1.80,-1.08,-1.38,0.17,0.29,0.23,
4.711,1.80,-1.08,-1.38,0.18,0.31,0.21,
4.713,1.80,-1.08,-1.38,0.18,0.32,0.20,
4.716,1.58,-1.01,-1.55,0.18,0.32,0.20,
4.716,1.58,-1.01,-1.55,0.18,0.35,0.18,
4.718,1.58,-1.01,-1.55,0.18,0.36,0.17,
4.719,1.58,-1.01,-1.55,0.18,0.39,0.15,
4.721,1.58,-1.01,-1.55,0.18,0.40,0.13,
4.723,1.58,-1.01,-1.55,0.18,0.41,0.13,
4.726,1.35,-1.02,-1.88,0.18,0.41,0.13,
4.726,1.35,-1.02,-1.88,0.19,0.44,0.11,
4.727,1.35,-1.02,-1.88,0.19,0.45,0.11,
4.729,1.35,-1.02,-1.88,0.19,0.47,0.10,
4.748,1.35,-1.02,-1.88,0.19,0.48,0.09,
4.748,1.35,-1.02,-1.88,0.19,0.49,0.08,
4.749,1.03,-1.02,-2.23,0.19,0.49,0.08,
4.763,1.03,-1.02,-2.23,0.19,0.51,0.08,
4.764,1.03,-1.02,-2.23,0.19,0.52,0.07,
4.764,1.03,-1.02,-2.23,0.19,0.52,0.06,
4.764,1.03,-1.02,-2.23,0.18,0.53,0.06,
4.764,1.03,-1.02,-2.23,0.18,0.53,0.05,
4.764,0.86,-0.95,-2.62,0.18,0.53,0.05,
4.764,0.86,-0.95,-2.62,0.18,0.54,0.04,
4.765,0.86,-0.95,-2.62,0.17,0.54,0.04,
4.765,0.86,-0.95,-2.62,0.17,0.54,0.03,
4.765,0.86,-0.95,-2.62,0.16,0.53,0.03,
4.765,0.86,-0.95,-2.62,0.16,0.53,0.02,
4.765,0.63,-0.80,-2.87,0.16,0.53,0.02,
4.765,0.63,-0.80,-2.87,0.15,0.52,0.02,
4.765,0.63,-0.80,-2.87,0.15,0.51,0.01,
4.766,0.63,-0.80,-2.87,0.15,0.51,0.01,
4.766,0.63,-0.80,-2.87,0.14,0.50,0.00,
4.766,0.63,-0.80,-2.87,0.14,0.49,0.00,
4.769,0.42,-0.69,-3.00,0.14,0.49,0.00,
4.769,0.42,-0.69,-3.00,0.14,0.49,0.00,
4.769,0.42,-0.69,-3.00,0.14,0.48,0.00,
4.772,0.42,-0.69,-3.00,0.13,0.47,0.00,
4.773,0.42,-0.69,-3.00,0.13,0.46,0.00,
4.773,0.42,-0.69,-3.00,0.12,0.45,0.00,
4.776,0.27,-0.67,-3.17,0.12,0.45,0.00,
4.776,0.27,-0.67,-3.17,0.11,0.43,0.00,
4.777,0.27,-0.67,-3.17,0.11,0.42,0.00,
4.779,0.27,-0.67,-3.17,0.10,0.40,0.00,
4.781,0.27,-0.67,-3.17,0.09,0.38,0.01,
4.783,0.27,-0.67,-3.17,0.08,0.37,0.01,
4.786,0.19,-0.62,-3.34,0.08,0.37,0.01,
4.786,0.19,-0.62,-3.34,0.08,0.35,0.01,
4.787,0.19,-0.62,-3.34,0.07,0.33,0.01,
4.789,0.19,-0.62,-3.34,0.06,0.31,0.01,
4.791,0.19,-0.62,-3.34,0.05,0.29,0.01,
4.793,0.19,-0.62,-3.34,0.05,0.27,0.01,
4.795,0.14,-0.53,-3.36,0.05,0.27,0.01,
4.795,0.14,-0.53,-3.36,0.04,0.25,0.02,
4.797,0.14,-0.53,-3.36,0.04,0.23,0.01,
4.799,0.14,-0.53,-3.36,0.03,0.21,0.01,
4.802,0.14,-0.53,-3.36,0.03,0.19,0.02,
4.803,0.14,-0.53,-3.36,0.03,0.18,0.01,
4.806,0.22,-0.44,-3.22,0.03,0.18,0.01,
4.806,0.22,-0.44,-3.22,0.03,0.16,0.01,
4.807,0.22,-0.44,-3.22,0.03,0.15,0.01,
4.809,0.22,-0.44,-3.22,0.02,0.13,0.01,
4.811,0.22,-0.44,-3.22,0.02,0.12,0.00,
4.813,0.22,-0.44,-3.22,0.03,0.11,-0.00,
4.816,0.31,-0.36,-3.02,0.03,0.11,-0.00,
4.816,0.31,-0.36,-3.02,0.03,0.10,-0.01,
4.817,0.31,-0.36,-3.02,0.03,0.09,-0.01,
4.819,0.31,-0.36,-3.02,0.03,0.08,-0.02,
4.821,0.31,-0.36,-3.02,0.04,0.07,-0.02,
4.823,0.31,-0.36,-3.02,0.04,0.06,-0.03,
4.825,0.33,-0.28,-2.93,0.04,0.06,-0.03,
4.826,0.33,-0.28,-2.93,0.04,0.05,-0.03,
4.827,0.33,-0.28,-2.93,0.04,0.05,-0.04,
4.829,0.33,-0.28,-2.93,0.04,0.04,-0.04,
4.835,0.33,-0.28,-2.93,0.03,0.04,-0.04,
4.836,0.33,-0.28,-2.93,0.04,0.03,-0.05,
4.841,0.20,-0.25,-2.95,0.04,0.03,-0.05,
4.842,0.20,-0.25,-2.95,0.03,0.03,-0.05,
4.842,0.20,-0.25,-2.95,0.02,0.03,-0.04,
4.842,0.20,-0.25,-2.95,0.02,0.03,-0.04,
4.842,0.20,-0.25,-2.95,0.01,0.03,-0.04,
4.843,0.20,-0.25,-2.95,0.00,0.03,-0.04,
4.846,0.04,-0.22,-3.16,0.00,0.03,-0.04,
4.846,0.04,-0.22,-3.16,-0.01,0.03,-0.04,
4.848,0.04,-0.22,-3.16,-0.02,0.03,-0.03,
4.851,0.04,-0.22,-3.16,-0.04,0.03,-0.03,
4.851,0.04,-0.22,-3.16,-0.05,0.02,-0.02,
4.854,0.04,-0.22,-3.16,-0.07,0.02,-0.02,
4.856,-0.05,-0.20,-3.39,-0.07,0.02,-0.02,
4.856,-0.05,-0.20,-3.39,-0.10,0.02,-0.02,
4.857,-0.05,-0.20,-3.39,-0.11,0.01,-0.02,
4.859,-0.05,-0.20,-3.39,-0.13,0.00,-0.01,
4.861,-0.05,-0.20,-3.39,-0.15,-0.00,-0.01,
4.864,-0.05,-0.20,-3.39,-0.17,-0.01,-0.01,
4.869,0.01,-0.10,-3.41,-0.17,-0.01,-0.01,
4.87,0.01,-0.10,-3.41,-0.19,-0.01,-0.01,
4.87,0.01,-0.10,-3.41,-0.20,-0.02,-0.01,
4.871,0.01,-0.10,-3.41,-0.22,-0.02,-0.01,
4.871,0.01,-0.10,-3.41,-0.24,-0.02,-0.01,
4.873,0.01,-0.10,-3.41,-0.25,-0.02,-0.01,
4.876,0.03,-0.05,-3.15,-0.25,-0.02,-0.01,
4.877,0.03,-0.05,-3.15,-0.26,-0.03,-0.01,
4.877,0.03,-0.05,-3.15,-0.27,-0.03,-0.01,
4.88,0.03,-0.05,-3.15,-0.29,-0.03,-0.01,
4.889,0.03,-0.05,-3.15,-0.30,-0.04,-0.01,
4.89,0.03,-0.05,-3.15,-0.31,-0.04,-0.01,
4.89,0.12,0.02,-3.00,-0.31,-0.04,-0.01,
4.89,0.12,0.02,-3.00,-0.33,-0.05,-0.02,
4.89,0.12,0.02,-3.00,-0.34,-0.06,-0.02,
4.891,0.12,0.02,-3.00,-0.35,-0.06,-0.02,
4.891,0.12,0.02,-3.00,-0.37,-0.06,-0.02,
4.896,0.12,0.02,-3.00,-0.38,-0.06,-0.03,
4.896,0.13,0.17,-2.86,-0.38,-0.06,-0.03,
4.897,0.13,0.17,-2.86,-0.39,-0.06,-0.03,
4.91,0.13,0.17,-2.86,-0.41,-0.06,-0.03,
4.911,0.13,0.17,-2.86,-0.43,-0.06,-0.04,
4.911,0.13,0.17,-2.86,-0.45,-0.06,-0.04,
4.937,0.13,0.17,-2.86,-0.46,-0.06,-0.05,
4.938,0.22,0.22,-2.77,-0.46,-0.06,-0.05,
4.938,0.22,0.22,-2.77,-0.48,-0.07,-0.05,
4.939,0.22,0.22,-2.77,-0.49,-0.07,-0.06,
4.939,0.22,0.22,-2.77,-0.51,-0.07,-0.07,
4.94,0.22,0.22,-2.77,-0.52,-0.07,-0.07,
4.94,0.22,0.22,-2.77,-0.54,-0.07,-0.08,
4.94,0.17,0.19,-2.56,-0.54,-0.07,-0.08,
4.94,0.17,0.19,-2.56,-0.55,-0.08,-0.08,
4.941,0.17,0.19,-2.56,-0.57,-0.08,-0.08,
4.941,0.17,0.19,-2.56,-0.58,-0.08,-0.09,
4.941,0.17,0.19,-2.56,-0.62,-0.09,-0.09,
4.941,0.17,0.19,-2.56,-0.62,-0.09,-0.09,
4.942,0.17,0.19,-2.56,-0.62,-0.09,-0.09,
4.942,0.08,0.29,-2.14,-0.62,-0.09,-0.09,
4.942,0.08,0.29,-2.14,-0.65,-0.10,-0.10,
4.942,0.08,0.29,-2.14,-0.65,-0.10,-0.10,
4.943,0.08,0.29,-2.14,-0.66,-0.10,-0.10,
4.943,0.08,0.29,-2.14,-0.66,-0.10,-0.10,
4.943,0.04,0.27,-1.80,-0.66,-0.10,-0.10,
4.944,0.04,0.27,-1.80,-0.67,-0.10,-0.10,
4.944,0.04,0.27,-1.80,-0.68,-0.11,-0.11,
4.944,0.04,0.27,-1.80,-0.68,-0.11,-0.11,
4.944,0.04,0.27,-1.80,-0.69,-0.11,-0.11,
4.945,0.04,0.27,-1.80,-0.69,-0.12,-0.11,
4.951,-0.01,0.28,-1.43,-0.69,-0.12,-0.11,
4.952,-0.01,0.28,-1.43,-0.70,-0.12,-0.10,
4.952,-0.01,0.28,-1.43,-0.71,-0.12,-0.10,
4.953,-0.01,0.28,-1.43,-0.71,-0.13,-0.10,
4.953,-0.01,0.28,-1.43,-0.72,-0.13,-0.10,
4.953,-0.01,0.28,-1.43,-0.72,-0.14,-0.09,
4.956,-0.09,0.28,-1.13,-0.72,-0.14,-0.09,
4.956,-0.09,0.28,-1.13,-0.72,-0.14,-0.09,
4.957,-0.09,0.28,-1.13,-0.73,-0.14,-0.09,
4.961,-0.09,0.28,-1.13,-0.73,-0.14,-0.08,
4.962,-0.09,0.28,-1.13,-0.73,-0.15,-0.08,
4.963,-0.09,0.28,-1.13,-0.72,-0.15,-0.08,
4.966,-0.16,0.26,-0.76,-0.72,-0.15,-0.08,
4.967,-0.16,0.26,-0.76,-0.72,-0.15,-0.07,
4.97,-0.16,0.26,-0.76,-0.72,-0.16,-0.06,
4.971,-0.16,0.26,-0.76,-0.71,-0.17,-0.05,
4.978,-0.16,0.26,-0.76,-0.71,-0.18,-0.04,
4.978,-0.16,0.26,-0.76,-0.70,-0.19,-0.02,
4.979,-0.39,0.03,-0.39,-0.70,-0.19,-0.02,
4.979,-0.39,0.03,-0.39,-0.70,-0.21,-0.00,
4.979,-0.39,0.03,-0.39,-0.69,-0.24,0.02,
4.979,-0.39,0.03,-0.39,-0.67,-0.27,0.04,
4.982,-0.39,0.03,-0.39,-0.66,-0.30,0.07,
4.983,-0.39,0.03,-0.39,-0.64,-0.34,0.09,
4.986,-0.96,-0.22,0.21,-0.64,-0.34,0.09,
4.986,-0.96,-0.22,0.21,-0.62,-0.39,0.13,
4.987,-0.96,-0.22,0.21,-0.59,-0.45,0.16,
4.989,-0.96,-0.22,0.21,-0.57,-0.52,0.20,
4.991,-0.96,-0.22,0.21,-0.53,-0.60,0.23,
4.993,-0.96,-0.22,0.21,-0.49,-0.69,0.26,
4.995,-1.50,-0.33,1.17,-0.49,-0.69,0.26,
4.996,-1.50,-0.33,1.17,-0.45,-0.77,0.30,
4.999,-1.50,-0.33,1.17,-0.40,-0.85,0.33,
5.003,-1.50,-0.33,1.17,-0.35,-0.94,0.36,
5.004,-1.50,-0.33,1.17,-0.30,-1.03,0.40,
5.005,-1.50,-0.33,1.17,-0.25,-1.13,0.43,
5.008,-2.07,-0.14,2.01,-0.25,-1.13,0.43,
5.009,-2.07,-0.14,2.01,-0.20,-1.22,0.47,
5.009,-2.07,-0.14,2.01,-0.15,-1.31,0.50,
5.009,-2.07,-0.14,2.01,-0.10,-1.40,0.53,
5.011,-2.07,-0.14,2.01,-0.04,-1.50,0.57,
5.023,-2.07,-0.14,2.01,0.01,-1.59,0.61,
5.024,-2.44,0.37,2.64,0.01,-1.59,0.61,
5.024,-2.44,0.37,2.64,0.07,-1.67,0.64,
5.024,-2.44,0.37,2.64,0.13,-1.74,0.67,
5.025,-2.44,0.37,2.64,0.19,-1.81,0.70,
5.025,-2.44,0.37,2.64,0.24,-1.86,0.73,
5.025,-2.44,0.37,2.64,0.30,-1.91,0.76,
