
time,ax,ay,az,wx,wy,wz,
0.004,0.76,-0.45,0.84,0.26,-1.50,-1.20,
0.004,0.76,-0.45,0.84,0.26,-1.51,-1.20,
0.005,0.64,-0.52,0.81,0.26,-1.51,-1.20,
0.005,0.64,-0.52,0.81,0.26,-1.52,-1.21,
0.005,0.64,-0.52,0.81,0.27,-1.52,-1.22,
0.006,0.64,-0.52,0.81,0.27,-1.52,-1.23,
0.006,0.64,-0.52,0.81,0.27,-1.52,-1.24,
0.019,0.64,-0.52,0.81,0.27,-1.51,-1.26,
0.019,0.78,-0.61,0.85,0.27,-1.51,-1.26,
0.019,0.78,-0.61,0.85,0.27,-1.51,-1.26,
0.02,0.78,-0.61,0.85,0.26,-1.50,-1.27,
0.02,0.78,-0.61,0.85,0.26,-1.50,-1.28,
0.02,0.78,-0.61,0.85,0.25,-1.50,-1.29,
0.021,0.78,-0.61,0.85,0.24,-1.50,-1.29,
0.021,0.58,-0.70,0.82,0.24,-1.50,-1.29,
0.021,0.58,-0.70,0.82,0.24,-1.49,-1.29,
0.024,0.58,-0.70,0.82,0.23,-1.49,-1.29,
0.024,0.58,-0.70,0.82,0.22,-1.49,-1.29,
0.028,0.58,-0.70,0.82,0.21,-1.48,-1.28,
0.029,0.58,-0.70,0.82,0.20,-1.48,-1.28,
0.031,0.35,-0.79,0.87,0.20,-1.48,-1.28,
0.031,0.35,-0.79,0.87,0.19,-1.47,-1.27,
0.032,0.35,-0.79,0.87,0.17,-1.46,-1.26,
0.034,0.35,-0.79,0.87,0.15,-1.45,-1.25,
0.045,0.35,-0.79,0.87,0.14,-1.44,-1.23,
0.046,0.35,-0.79,0.87,0.12,-1.43,-1.22,
0.046,0.18,-0.77,0.89,0.12,-1.43,-1.22,
0.046,0.18,-0.77,0.89,0.10,-1.43,-1.21,
0.047,0.18,-0.77,0.89,0.08,-1.42,-1.19,
0.047,0.18,-0.77,0.89,0.06,-1.41,-1.18,
0.047,0.18,-0.77,0.89,0.04,-1.41,-1.17,
0.048,0.18,-0.77,0.89,0.01,-1.41,-1.15,
0.052,0.11,-0.60,0.91,0.01,-1.41,-1.15,
0.053,0.11,-0.60,0.91,-0.01,-1.41,-1.14,
0.064,0.11,-0.60,0.91,-0.03,-1.41,-1.12,
0.07,0.11,-0.60,0.91,-0.04,-1.41,-1.11,
0.07,0.11,-0.60,0.91,-0.06,-1.41,-1.09,
0.07,0.11,-0.60,0.91,-0.07,-1.41,-1.07,
0.071,0.01,-0.47,1.36,-0.07,-1.41,-1.07,
0.071,0.01,-0.47,1.36,-0.08,-1.41,-1.06,
0.071,0.01,-0.47,1.36,-0.09,-1.41,-1.04,
0.072,0.01,-0.47,1.36,-0.10,-1.42,-1.03,
0.072,0.01,-0.47,1.36,-0.10,-1.42,-1.01,
0.072,0.01,-0.47,1.36,-0.11,-1.43,-0.99,
0.072,-0.02,-0.54,1.75,-0.11,-1.43,-0.99,
0.073,-0.02,-0.54,1.75,-0.11,-1.43,-0.98,
0.073,-0.02,-0.54,1.75,-0.11,-1.44,-0.96,
0.077,-0.02,-0.54,1.75,-0.11,-1.43,-0.94,
0.077,-0.02,-0.54,1.75,-0.10,-1.41,-0.92,
0.096,-0.02,-0.54,1.75,-0.10,-1.38,-0.90,
0.097,0.01,-0.60,2.04,-0.10,-1.38,-0.90,
0.098,0.01,-0.60,2.04,-0.09,-1.34,-0.87,
0.098,0.01,-0.60,2.04,-0.08,-1.29,-0.85,
0.098,0.01,-0.60,2.04,-0.07,-1.23,-0.82,
0.099,0.01,-0.60,2.04,-0.06,-1.17,-0.79,
0.099,0.01,-0.60,2.04,-0.05,-1.10,-0.76,
0.099,0.17,-0.87,2.12,-0.05,-1.10,-0.76,
0.099,0.17,-0.87,2.12,-0.04,-1.03,-0.74,
0.1,0.17,-0.87,2.12,-0.03,-0.96,-0.71,
0.1,0.17,-0.87,2.12,-0.01,-0.89,-0.68,
0.111,0.17,-0.87,2.12,0.01,-0.83,-0.65,
0.112,0.17,-0.87,2.12,0.02,-0.78,-0.63,
0.112,0.35,-1.12,2.06,0.02,-0.78,-0.63,
0.112,0.35,-1.12,2.06,0.04,-0.73,-0.60,
0.113,0.35,-1.12,2.06,0.06,-0.68,-0.58,
0.113,0.35,-1.12,2.06,0.09,-0.63,-0.57,
0.113,0.35,-1.12,2.06,0.11,-0.59,-0.56,
0.114,0.35,-1.12,2.06,0.14,-0.54,-0.56,
0.114,0.59,-1.22,2.04,0.14,-0.54,-0.56,
0.114,0.59,-1.22,2.04,0.17,-0.50,-0.57,
0.115,0.59,-1.22,2.04,0.20,-0.45,-0.58,
0.115,0.59,-1.22,2.04,0.24,-0.42,-0.60,
0.119,0.59,-1.22,2.04,0.28,-0.39,-0.62,
0.119,0.59,-1.22,2.04,0.32,-0.35,-0.65,
0.122,0.67,-0.91,1.87,0.32,-0.35,-0.65,
0.122,0.67,-0.91,1.87,0.36,-0.32,-0.69,
0.123,0.67,-0.91,1.87,0.41,-0.28,-0.73,
0.124,0.67,-0.91,1.87,0.45,-0.25,-0.78,
0.127,0.67,-0.91,1.87,0.50,-0.22,-0.83,
0.128,0.67,-0.91,1.87,0.54,-0.20,-0.87,
0.131,0.81,-0.50,1.73,0.54,-0.20,-0.87,
0.131,0.81,-0.50,1.73,0.59,-0.18,-0.92,
0.132,0.81,-0.50,1.73,0.64,-0.16,-0.96,
0.134,0.81,-0.50,1.73,0.69,-0.15,-1.00,
0.137,0.81,-0.50,1.73,0.74,-0.15,-1.04,
0.141,0.81,-0.50,1.73,0.80,-0.16,-1.08,
0.141,0.79,-0.18,1.88,0.80,-0.16,-1.08,
0.142,0.79,-0.18,1.88,0.85,-0.16,-1.11,
0.142,0.79,-0.18,1.88,0.90,-0.16,-1.15,
0.144,0.79,-0.18,1.88,0.95,-0.18,-1.18,
0.146,0.79,-0.18,1.88,0.99,-0.20,-1.21,
0.148,0.79,-0.18,1.88,1.03,-0.23,-1.25,
0.153,0.99,-0.10,1.59,1.03,-0.23,-1.25,
0.154,0.99,-0.10,1.59,1.08,-0.29,-1.30,
0.154,0.99,-0.10,1.59,1.09,-0.31,-1.32,
0.156,0.99,-0.10,1.59,1.12,-0.36,-1.36,
0.156,0.99,-0.10,1.59,1.14,-0.41,-1.41,
0.159,0.99,-0.10,1.59,1.16,-0.48,-1.45,
0.161,1.11,-0.03,0.97,1.16,-0.48,-1.45,
0.161,1.11,-0.03,0.97,1.18,-0.55,-1.50,
0.162,1.11,-0.03,0.97,1.19,-0.62,-1.54,
0.166,1.11,-0.03,0.97,1.20,-0.70,-1.59,
0.17,1.11,-0.03,0.97,1.20,-0.78,-1.64,
0.171,1.11,-0.03,0.97,1.19,-0.87,-1.69,
0.171,1.20,-0.00,0.01,1.19,-0.87,-1.69,
0.171,1.20,-0.00,0.01,1.18,-0.95,-1.74,
0.173,1.20,-0.00,0.01,1.16,-1.04,-1.80,
0.175,1.20,-0.00,0.01,1.15,-1.12,-1.85,
0.176,1.20,-0.00,0.01,1.12,-1.20,-1.90,
0.179,1.20,-0.00,0.01,1.09,-1.26,-1.96,
0.181,0.96,-0.01,-0.84,1.09,-1.26,-1.96,
0.181,0.96,-0.01,-0.84,1.06,-1.32,-2.01,
0.182,0.96,-0.01,-0.84,1.03,-1.37,-2.05,
0.184,0.96,-0.01,-0.84,0.99,-1.42,-2.10,
0.187,0.96,-0.01,-0.84,0.95,-1.46,-2.14,
0.188,0.96,-0.01,-0.84,0.90,-1.50,-2.17,
0.193,0.50,-0.17,-1.42,0.90,-1.50,-2.17,
0.193,0.50,-0.17,-1.42,0.85,-1.54,-2.20,
0.193,0.50,-0.17,-1.42,0.80,-1.58,-2.23,
0.195,0.50,-0.17,-1.42,0.75,-1.63,-2.26,
0.196,0.50,-0.17,-1.42,0.69,-1.67,-2.28,
0.198,0.50,-0.17,-1.42,0.63,-1.70,-2.30,
0.222,-0.04,-0.49,-1.74,0.63,-1.70,-2.30,
0.223,-0.04,-0.49,-1.74,0.57,-1.73,-2.32,
0.223,-0.04,-0.49,-1.74,0.51,-1.76,-2.34,
0.223,-0.04,-0.49,-1.74,0.45,-1.78,-2.36,
0.224,-0.04,-0.49,-1.74,0.38,-1.80,-2.38,
0.224,-0.04,-0.49,-1.74,0.32,-1.81,-2.39,
0.224,-0.50,-0.60,-1.65,0.32,-1.81,-2.39,
0.224,-0.50,-0.60,-1.65,0.27,-1.81,-2.41,
0.225,-0.50,-0.60,-1.65,0.21,-1.81,-2.43,
0.225,-0.50,-0.60,-1.65,0.15,-1.80,-2.44,
0.225,-0.50,-0.60,-1.65,0.09,-1.79,-2.46,
0.226,-0.50,-0.60,-1.65,0.04,-1.78,-2.47,
0.226,-0.87,-0.62,-1.41,0.04,-1.78,-2.47,
0.253,-0.87,-0.62,-1.41,-0.06,-1.74,-2.49,
0.253,-0.87,-0.62,-1.41,-0.06,-1.74,-2.49,
0.253,-0.87,-0.62,-1.41,-0.12,-1.72,-2.50,
0.253,-0.87,-0.62,-1.41,-0.14,-1.71,-2.50,
0.254,-0.87,-0.62,-1.41,-0.18,-1.69,-2.51,
0.254,-1.16,-0.65,-1.01,-0.18,-1.69,-2.51,
0.254,-1.16,-0.65,-1.01,-0.22,-1.67,-2.51,
0.255,-1.16,-0.65,-1.01,-0.25,-1.66,-2.52,
0.255,-1.16,-0.65,-1.01,-0.28,-1.64,-2.52,
0.255,-1.16,-0.65,-1.01,-0.31,-1.63,-2.53,
0.255,-1.16,-0.65,-1.01,-0.33,-1.61,-2.53,
0.256,-1.30,-0.76,-0.31,-0.33,-1.61,-2.53,
0.256,-1.30,-0.76,-0.31,-0.34,-1.60,-2.53,
0.256,-1.30,-0.76,-0.31,-0.36,-1.59,-2.54,
0.256,-1.30,-0.76,-0.31,-0.38,-1.59,-2.54,
0.257,-1.30,-0.76,-0.31,-0.39,-1.59,-2.55,
0.257,-1.30,-0.76,-0.31,-0.39,-1.59,-2.56,
0.257,-1.27,-0.98,0.41,-0.39,-1.59,-2.56,
0.258,-1.27,-0.98,0.41,-0.40,-1.60,-2.56,
0.258,-1.27,-0.98,0.41,-0.40,-1.60,-2.57,
0.258,-1.27,-0.98,0.41,-0.40,-1.61,-2.58,
0.258,-1.27,-0.98,0.41,-0.40,-1.61,-2.58,
0.259,-1.27,-0.98,0.41,-0.40,-1.62,-2.59,
0.266,-1.06,-1.22,0.94,-0.40,-1.62,-2.59,
0.266,-1.06,-1.22,0.94,-0.40,-1.62,-2.60,
0.267,-1.06,-1.22,0.94,-0.39,-1.62,-2.60,
0.267,-1.06,-1.22,0.94,-0.39,-1.62,-2.61,
0.267,-1.06,-1.22,0.94,-0.37,-1.61,-2.62,
0.271,-1.06,-1.22,0.94,-0.36,-1.60,-2.63,
0.273,-0.95,-1.48,1.41,-0.36,-1.60,-2.63,
0.273,-0.95,-1.48,1.41,-0.35,-1.59,-2.63,
0.274,-0.95,-1.48,1.41,-0.33,-1.58,-2.64,
0.276,-0.95,-1.48,1.41,-0.31,-1.58,-2.65,
0.276,-0.95,-1.48,1.41,-0.29,-1.57,-2.65,
0.279,-0.95,-1.48,1.41,-0.28,-1.56,-2.66,
0.28,-0.82,-1.56,1.49,-0.28,-1.56,-2.66,
0.281,-0.82,-1.56,1.49,-0.27,-1.56,-2.67,
0.282,-0.82,-1.56,1.49,-0.25,-1.56,-2.68,
0.289,-0.82,-1.56,1.49,-0.24,-1.57,-2.68,
0.29,-0.82,-1.56,1.49,-0.23,-1.57,-2.69,
0.294,-0.82,-1.56,1.49,-0.23,-1.58,-2.70,
0.294,-0.75,-1.70,1.26,-0.23,-1.58,-2.70,
0.295,-0.75,-1.70,1.26,-0.22,-1.58,-2.71,
0.295,-0.75,-1.70,1.26,-0.21,-1.59,-2.72,
0.295,-0.75,-1.70,1.26,-0.21,-1.59,-2.74,
0.295,-0.75,-1.70,1.26,-0.20,-1.59,-2.74,
0.298,-0.75,-1.70,1.26,-0.20,-1.58,-2.75,
0.304,-0.82,-1.76,0.76,-0.20,-1.58,-2.75,
0.305,-0.82,-1.76,0.76,-0.20,-1.57,-2.76,
0.305,-0.82,-1.76,0.76,-0.20,-1.56,-2.77,
0.305,-0.82,-1.76,0.76,-0.20,-1.54,-2.77,
0.307,-0.82,-1.76,0.76,-0.20,-1.52,-2.77,
0.308,-0.82,-1.76,0.76,-0.20,-1.50,-2.77,
0.312,-1.33,-1.83,0.09,-0.20,-1.50,-2.77,
0.313,-1.33,-1.83,0.09,-0.20,-1.49,-2.77,
0.323,-1.33,-1.83,0.09,-0.21,-1.47,-2.76,
0.324,-1.33,-1.83,0.09,-0.22,-1.46,-2.74,
0.324,-1.33,-1.83,0.09,-0.22,-1.45,-2.73,
0.324,-1.33,-1.83,0.09,-0.23,-1.43,-2.71,
0.325,-1.94,-1.70,-0.44,-0.23,-1.43,-2.71,
0.325,-1.94,-1.70,-0.44,-0.23,-1.41,-2.69,
0.325,-1.94,-1.70,-0.44,-0.24,-1.39,-2.67,
0.326,-1.94,-1.70,-0.44,-0.25,-1.36,-2.63,
0.327,-1.94,-1.70,-0.44,-0.25,-1.35,-2.62,
0.328,-1.94,-1.70,-0.44,-0.26,-1.32,-2.59,
0.331,-2.77,-1.61,-0.92,-0.26,-1.32,-2.59,
0.331,-2.77,-1.61,-0.92,-0.27,-1.29,-2.56,
0.332,-2.77,-1.61,-0.92,-0.28,-1.26,-2.52,
0.34,-2.77,-1.61,-0.92,-0.29,-1.24,-2.48,
0.34,-2.77,-1.61,-0.92,-0.30,-1.20,-2.45,
0.34,-2.77,-1.61,-0.92,-0.31,-1.17,-2.41,
0.341,-3.14,-1.46,-1.13,-0.31,-1.17,-2.41,
0.341,-3.14,-1.46,-1.13,-0.32,-1.14,-2.37,
0.343,-3.14,-1.46,-1.13,-0.33,-1.11,-2.33,
0.344,-3.14,-1.46,-1.13,-0.34,-1.08,-2.30,
0.363,-3.14,-1.46,-1.13,-0.34,-1.05,-2.26,
0.363,-3.14,-1.46,-1.13,-0.35,-1.03,-2.23,
0.364,-2.78,-1.45,-1.13,-0.35,-1.03,-2.23,
0.364,-2.78,-1.45,-1.13,-0.35,-1.01,-2.21,
0.364,-2.78,-1.45,-1.13,-0.35,-0.99,-2.18,
0.364,-2.78,-1.45,-1.13,-0.35,-0.98,-2.17,
0.364,-2.78,-1.45,-1.13,-0.35,-0.97,-2.15,
0.364,-2.78,-1.45,-1.13,-0.35,-0.96,-2.14,
0.365,-1.95,-1.47,-0.89,-0.35,-0.96,-2.14,
0.365,-1.95,-1.47,-0.89,-0.34,-0.94,-2.14,
0.365,-1.95,-1.47,-0.89,-0.33,-0.93,-2.14,
0.365,-1.95,-1.47,-0.89,-0.32,-0.91,-2.14,
0.367,-1.95,-1.47,-0.89,-0.30,-0.88,-2.14,
0.369,-1.95,-1.47,-0.89,-0.28,-0.86,-2.14,
0.371,-1.29,-1.51,-0.43,-0.28,-0.86,-2.14,
0.371,-1.29,-1.51,-0.43,-0.25,-0.84,-2.15,
0.372,-1.29,-1.51,-0.43,-0.23,-0.82,-2.15,
0.374,-1.29,-1.51,-0.43,-0.20,-0.79,-2.15,
0.376,-1.29,-1.51,-0.43,-0.18,-0.77,-2.16,
0.378,-1.29,-1.51,-0.43,-0.15,-0.75,-2.16,
0.381,-1.14,-1.44,-0.35,-0.15,-0.75,-2.16,
0.381,-1.14,-1.44,-0.35,-0.13,-0.73,-2.16,
0.382,-1.14,-1.44,-0.35,-0.10,-0.72,-2.15,
0.385,-1.14,-1.44,-0.35,-0.08,-0.70,-2.15,
0.386,-1.14,-1.44,-0.35,-0.06,-0.70,-2.14,
0.405,-1.14,-1.44,-0.35,-0.04,-0.70,-2.13,
0.405,-1.71,-1.37,-0.58,-0.04,-0.70,-2.13,
0.405,-1.71,-1.37,-0.58,-0.02,-0.71,-2.11,
0.405,-1.71,-1.37,-0.58,-0.00,-0.73,-2.10,
0.405,-1.71,-1.37,-0.58,0.01,-0.74,-2.08,
0.406,-1.71,-1.37,-0.58,0.02,-0.77,-2.06,
0.406,-1.71,-1.37,-0.58,0.04,-0.79,-2.04,
0.406,-2.11,-1.25,-0.99,0.04,-0.79,-2.04,
0.406,-2.11,-1.25,-0.99,0.04,-0.82,-2.02,
0.406,-2.11,-1.25,-0.99,0.05,-0.84,-2.00,
0.407,-2.11,-1.25,-0.99,0.05,-0.88,-1.98,
0.407,-2.11,-1.25,-0.99,0.06,-0.92,-1.95,
0.41,-2.11,-1.25,-0.99,0.06,-0.95,-1.93,
0.411,-2.28,-1.19,-1.38,0.06,-0.95,-1.93,
0.411,-2.28,-1.19,-1.38,0.05,-0.99,-1.91,
0.412,-2.28,-1.19,-1.38,0.05,-1.03,-1.89,
0.414,-2.28,-1.19,-1.38,0.05,-1.07,-1.88,
0.416,-2.28,-1.19,-1.38,0.05,-1.11,-1.86,
0.418,-2.28,-1.19,-1.38,0.05,-1.14,-1.84,
0.42,-2.04,-1.05,-1.53,0.05,-1.14,-1.84,
0.421,-2.04,-1.05,-1.53,0.04,-1.17,-1.83,
0.422,-2.04,-1.05,-1.53,0.03,-1.21,-1.81,
0.424,-2.04,-1.05,-1.53,0.03,-1.24,-1.80,
0.426,-2.04,-1.05,-1.53,0.02,-1.27,-1.79,
0.428,-2.04,-1.05,-1.53,0.01,-1.30,-1.79,
0.431,-1.54,-1.01,-1.47,0.01,-1.30,-1.79,
0.431,-1.54,-1.01,-1.47,0.01,-1.32,-1.78,
0.432,-1.54,-1.01,-1.47,-0.00,-1.35,-1.77,
0.435,-1.54,-1.01,-1.47,-0.01,-1.37,-1.76,
0.436,-1.54,-1.01,-1.47,-0.02,-1.39,-1.76,
0.44,-1.54,-1.01,-1.47,-0.03,-1.40,-1.76,
0.441,-1.10,-0.83,-1.35,-0.03,-1.40,-1.76,
0.441,-1.10,-0.83,-1.35,-0.04,-1.40,-1.76,
0.442,-1.10,-0.83,-1.35,-0.06,-1.40,-1.76,
0.444,-1.10,-0.83,-1.35,-0.07,-1.39,-1.76,
0.446,-1.10,-0.83,-1.35,-0.08,-1.38,-1.77,
0.448,-1.10,-0.83,-1.35,-0.10,-1.37,-1.77,
0.456,-0.84,-0.46,-1.14,-0.10,-1.37,-1.77,
0.457,-0.84,-0.46,-1.14,-0.11,-1.35,-1.77,
0.457,-0.84,-0.46,-1.14,-0.13,-1.33,-1.77,
0.457,-0.84,-0.46,-1.14,-0.15,-1.31,-1.77,
0.457,-0.84,-0.46,-1.14,-0.18,-1.29,-1.77,
0.458,-0.84,-0.46,-1.14,-0.20,-1.27,-1.77,
0.464,-0.46,-0.36,-0.88,-0.20,-1.27,-1.77,
0.465,-0.46,-0.36,-0.88,-0.22,-1.25,-1.77,
0.465,-0.46,-0.36,-0.88,-0.24,-1.23,-1.77,
0.465,-0.46,-0.36,-0.88,-0.27,-1.21,-1.77,
0.466,-0.46,-0.36,-0.88,-0.29,-1.18,-1.78,
0.48,-0.46,-0.36,-0.88,-0.31,-1.15,-1.78,
0.48,-0.27,-0.32,-0.64,-0.31,-1.15,-1.78,
0.48,-0.27,-0.32,-0.64,-0.34,-1.13,-1.78,
0.48,-0.27,-0.32,-0.64,-0.36,-1.10,-1.78,
0.48,-0.27,-0.32,-0.64,-0.39,-1.08,-1.78,
0.481,-0.27,-0.32,-0.64,-0.41,-1.05,-1.78,
0.481,-0.27,-0.32,-0.64,-0.43,-1.03,-1.78,
0.481,-0.17,-0.27,-0.40,-0.43,-1.03,-1.78,
0.481,-0.17,-0.27,-0.40,-0.46,-1.00,-1.78,
0.482,-0.17,-0.27,-0.40,-0.48,-0.98,-1.79,
0.484,-0.17,-0.27,-0.40,-0.50,-0.96,-1.79,
0.487,-0.17,-0.27,-0.40,-0.52,-0.94,-1.79,
0.488,-0.17,-0.27,-0.40,-0.54,-0.93,-1.79,
0.49,-0.14,-0.29,-0.09,-0.54,-0.93,-1.79,
0.49,-0.14,-0.29,-0.09,-0.56,-0.91,-1.79,
0.492,-0.14,-0.29,-0.09,-0.58,-0.90,-1.80,
0.494,-0.14,-0.29,-0.09,-0.59,-0.88,-1.80,
0.496,-0.14,-0.29,-0.09,-0.60,-0.87,-1.79,
0.498,-0.14,-0.29,-0.09,-0.61,-0.85,-1.79,
0.501,-0.19,-0.35,0.26,-0.61,-0.85,-1.79,
0.502,-0.19,-0.35,0.26,-0.62,-0.83,-1.79,
0.502,-0.19,-0.35,0.26,-0.62,-0.83,-1.79,
0.504,-0.19,-0.35,0.26,-0.62,-0.82,-1.79,
0.506,-0.19,-0.35,0.26,-0.63,-0.81,-1.78,
0.508,-0.19,-0.35,0.26,-0.62,-0.81,-1.78,
0.511,-0.30,-0.41,0.56,-0.62,-0.81,-1.78,
0.511,-0.30,-0.41,0.56,-0.62,-0.81,-1.77,
0.512,-0.30,-0.41,0.56,-0.62,-0.81,-1.77,
0.514,-0.30,-0.41,0.56,-0.62,-0.82,-1.76,
0.516,-0.30,-0.41,0.56,-0.61,-0.83,-1.76,
0.518,-0.30,-0.41,0.56,-0.61,-0.83,-1.76,
0.521,-0.31,-0.37,0.78,-0.61,-0.83,-1.76,
0.521,-0.31,-0.37,0.78,-0.60,-0.84,-1.75,
0.522,-0.31,-0.37,0.78,-0.59,-0.85,-1.75,
0.524,-0.31,-0.37,0.78,-0.58,-0.85,-1.74,
0.526,-0.31,-0.37,0.78,-0.57,-0.86,-1.74,
0.528,-0.31,-0.37,0.78,-0.56,-0.86,-1.73,
0.531,-0.30,-0.41,0.86,-0.56,-0.86,-1.73,
0.532,-0.30,-0.41,0.86,-0.55,-0.87,-1.73,
0.532,-0.30,-0.41,0.86,-0.54,-0.87,-1.72,
0.535,-0.30,-0.41,0.86,-0.52,-0.88,-1.71,
0.537,-0.30,-0.41,0.86,-0.51,-0.88,-1.71,
0.539,-0.30,-0.41,0.86,-0.50,-0.89,-1.70,
0.541,-0.25,-0.41,0.92,-0.50,-0.89,-1.70,
0.541,-0.25,-0.41,0.92,-0.48,-0.89,-1.70,
0.542,-0.25,-0.41,0.92,-0.46,-0.90,-1.69,
0.544,-0.25,-0.41,0.92,-0.45,-0.90,-1.69,
0.546,-0.25,-0.41,0.92,-0.43,-0.90,-1.69,
0.548,-0.25,-0.41,0.92,-0.41,-0.90,-1.68,
0.553,-0.11,-0.44,1.00,-0.41,-0.90,-1.68,
0.553,-0.11,-0.44,1.00,-0.39,-0.90,-1.68,
0.554,-0.11,-0.44,1.00,-0.37,-0.89,-1.68,
0.571,-0.11,-0.44,1.00,-0.35,-0.89,-1.68,
0.571,-0.11,-0.44,1.00,-0.33,-0.88,-1.68,
0.571,-0.11,-0.44,1.00,-0.32,-0.87,-1.67,
0.571,-0.16,-0.45,0.88,-0.32,-0.87,-1.67,
0.572,-0.16,-0.45,0.88,-0.29,-0.86,-1.66,
0.572,-0.16,-0.45,0.88,-0.28,-0.85,-1.66,
0.572,-0.16,-0.45,0.88,-0.26,-0.84,-1.65,
0.572,-0.16,-0.45,0.88,-0.24,-0.83,-1.64,
0.573,-0.16,-0.45,0.88,-0.22,-0.81,-1.62,
0.573,-0.46,-0.53,0.58,-0.22,-0.81,-1.62,
0.573,-0.46,-0.53,0.58,-0.21,-0.79,-1.60,
0.573,-0.46,-0.53,0.58,-0.19,-0.77,-1.58,
0.575,-0.46,-0.53,0.58,-0.18,-0.75,-1.56,
0.576,-0.46,-0.53,0.58,-0.17,-0.74,-1.54,
0.578,-0.46,-0.53,0.58,-0.16,-0.72,-1.51,
0.582,-0.86,-0.56,0.10,-0.16,-0.72,-1.51,
0.582,-0.86,-0.56,0.10,-0.14,-0.70,-1.49,
0.582,-0.86,-0.56,0.10,-0.13,-0.68,-1.46,
0.584,-0.86,-0.56,0.10,-0.13,-0.66,-1.44,
0.586,-0.86,-0.56,0.10,-0.12,-0.65,-1.41,
0.588,-0.86,-0.56,0.10,-0.11,-0.63,-1.39,
0.59,-1.22,-0.50,-0.40,-0.11,-0.63,-1.39,
0.59,-1.22,-0.50,-0.40,-0.11,-0.62,-1.36,
0.592,-1.22,-0.50,-0.40,-0.10,-0.62,-1.34,
0.593,-1.22,-0.50,-0.40,-0.11,-0.61,-1.32,
0.595,-1.22,-0.50,-0.40,-0.11,-0.61,-1.30,
0.598,-1.22,-0.50,-0.40,-0.11,-0.62,-1.28,
0.604,-1.23,-0.35,-0.88,-0.11,-0.62,-1.28,
0.604,-1.23,-0.35,-0.88,-0.11,-0.62,-1.26,
0.604,-1.23,-0.35,-0.88,-0.11,-0.63,-1.24,
0.604,-1.23,-0.35,-0.88,-0.11,-0.63,-1.22,
0.606,-1.23,-0.35,-0.88,-0.11,-0.64,-1.21,
0.608,-1.23,-0.35,-0.88,-0.11,-0.66,-1.19,
0.61,-1.20,-0.19,-1.14,-0.11,-0.66,-1.19,
0.611,-1.20,-0.19,-1.14,-0.11,-0.66,-1.17,
0.612,-1.20,-0.19,-1.14,-0.12,-0.67,-1.16,
0.614,-1.20,-0.19,-1.14,-0.12,-0.69,-1.14,
0.616,-1.20,-0.19,-1.14,-0.12,-0.69,-1.13,
0.626,-1.20,-0.19,-1.14,-0.12,-0.70,-1.11,
0.627,-1.07,-0.03,-1.15,-0.12,-0.70,-1.11,
0.627,-1.07,-0.03,-1.15,-0.12,-0.71,-1.10,
0.627,-1.07,-0.03,-1.15,-0.12,-0.72,-1.08,
0.627,-1.07,-0.03,-1.15,-0.12,-0.72,-1.07,
0.627,-1.07,-0.03,-1.15,-0.11,-0.73,-1.05,
0.627,-1.07,-0.03,-1.15,-0.11,-0.73,-1.04,
0.63,-0.95,0.16,-0.95,-0.11,-0.73,-1.04,
0.63,-0.95,0.16,-0.95,-0.10,-0.73,-1.02,
0.631,-0.95,0.16,-0.95,-0.09,-0.73,-1.01,
0.634,-0.95,0.16,-0.95,-0.09,-0.74,-1.00,
0.636,-0.95,0.16,-0.95,-0.08,-0.74,-0.98,
0.638,-0.95,0.16,-0.95,-0.08,-0.75,-0.97,
0.64,-0.75,0.28,-0.73,-0.08,-0.75,-0.97,
0.64,-0.75,0.28,-0.73,-0.07,-0.76,-0.96,
0.642,-0.75,0.28,-0.73,-0.06,-0.77,-0.95,
0.644,-0.75,0.28,-0.73,-0.06,-0.78,-0.94,
0.645,-0.75,0.28,-0.73,-0.06,-0.79,-0.93,
0.648,-0.75,0.28,-0.73,-0.05,-0.80,-0.93,
0.65,-0.63,0.40,-0.56,-0.05,-0.80,-0.93,
0.651,-0.63,0.40,-0.56,-0.05,-0.82,-0.92,
0.652,-0.63,0.40,-0.56,-0.04,-0.83,-0.91,
0.653,-0.63,0.40,-0.56,-0.04,-0.84,-0.90,
0.656,-0.63,0.40,-0.56,-0.04,-0.85,-0.88,
0.66,-0.63,0.40,-0.56,-0.04,-0.86,-0.88,
0.66,-0.62,0.47,-0.42,-0.04,-0.86,-0.88,
0.66,-0.62,0.47,-0.42,-0.03,-0.87,-0.86,
0.662,-0.62,0.47,-0.42,-0.03,-0.88,-0.85,
0.664,-0.62,0.47,-0.42,-0.03,-0.89,-0.84,
0.668,-0.62,0.47,-0.42,-0.03,-0.90,-0.83,
0.668,-0.62,0.47,-0.42,-0.02,-0.91,-0.82,
0.671,-0.57,0.51,-0.14,-0.02,-0.91,-0.82,
0.671,-0.57,0.51,-0.14,-0.02,-0.92,-0.80,
0.672,-0.57,0.51,-0.14,-0.02,-0.93,-0.79,
0.674,-0.57,0.51,-0.14,-0.01,-0.93,-0.78,
0.676,-0.57,0.51,-0.14,-0.01,-0.93,-0.77,
0.677,-0.57,0.51,-0.14,0.00,-0.93,-0.75,
0.68,-0.41,0.52,0.25,0.00,-0.93,-0.75,
0.681,-0.41,0.52,0.25,0.01,-0.93,-0.74,
0.682,-0.41,0.52,0.25,0.02,-0.93,-0.73,
0.684,-0.41,0.52,0.25,0.03,-0.92,-0.72,
0.686,-0.41,0.52,0.25,0.04,-0.92,-0.72,
0.689,-0.41,0.52,0.25,0.05,-0.91,-0.71,
0.69,-0.18,0.56,0.60,0.05,-0.91,-0.71,
0.691,-0.18,0.56,0.60,0.06,-0.90,-0.70,
0.692,-0.18,0.56,0.60,0.07,-0.89,-0.70,
0.694,-0.18,0.56,0.60,0.08,-0.88,-0.69,
0.696,-0.18,0.56,0.60,0.09,-0.87,-0.69,
0.698,-0.18,0.56,0.60,0.09,-0.86,-0.68,
0.7,0.04,0.61,0.76,0.09,-0.86,-0.68,
0.7,0.04,0.61,0.76,0.10,-0.84,-0.68,
0.702,0.04,0.61,0.76,0.11,-0.83,-0.68,
0.704,0.04,0.61,0.76,0.11,-0.82,-0.68,
0.706,0.04,0.61,0.76,0.12,-0.81,-0.68,
0.708,0.04,0.61,0.76,0.12,-0.80,-0.68,
0.71,0.24,0.65,0.77,0.12,-0.80,-0.68,
0.711,0.24,0.65,0.77,0.13,-0.79,-0.68,
0.712,0.24,0.65,0.77,0.13,-0.78,-0.68,
0.714,0.24,0.65,0.77,0.13,-0.77,-0.68,
0.719,0.24,0.65,0.77,0.13,-0.76,-0.68,
0.72,0.24,0.65,0.77,0.13,-0.75,-0.69,
0.721,0.45,0.67,0.70,0.13,-0.75,-0.69,
0.737,0.45,0.67,0.70,0.13,-0.74,-0.69,
0.737,0.45,0.67,0.70,0.12,-0.73,-0.69,
0.737,0.45,0.67,0.70,0.12,-0.70,-0.68,
0.737,0.45,0.67,0.70,0.12,-0.70,-0.68,
0.738,0.45,0.67,0.70,0.11,-0.69,-0.67,
0.738,0.46,0.62,0.58,0.11,-0.69,-0.67,
0.738,0.46,0.62,0.58,0.10,-0.67,-0.66,
0.738,0.46,0.62,0.58,0.10,-0.65,-0.65,
0.738,0.46,0.62,0.58,0.09,-0.63,-0.64,
0.738,0.46,0.62,0.58,0.08,-0.62,-0.63,
0.738,0.46,0.62,0.58,0.07,-0.60,-0.61,
0.741,0.26,0.54,0.51,0.07,-0.60,-0.61,
0.741,0.26,0.54,0.51,0.06,-0.58,-0.60,
0.741,0.26,0.54,0.51,0.05,-0.55,-0.58,
0.743,0.26,0.54,0.51,0.04,-0.53,-0.57,
0.745,0.26,0.54,0.51,0.03,-0.51,-0.56,
0.747,0.26,0.54,0.51,0.02,-0.49,-0.54,
0.75,0.24,0.52,0.50,0.02,-0.49,-0.54,
0.751,0.24,0.52,0.50,0.00,-0.46,-0.53,
0.752,0.24,0.52,0.50,-0.01,-0.44,-0.52,
0.753,0.24,0.52,0.50,-0.02,-0.41,-0.50,
0.756,0.24,0.52,0.50,-0.04,-0.39,-0.49,
0.758,0.24,0.52,0.50,-0.05,-0.36,-0.48,
0.76,0.20,0.47,0.40,-0.05,-0.36,-0.48,
0.761,0.20,0.47,0.40,-0.07,-0.34,-0.47,
0.762,0.20,0.47,0.40,-0.09,-0.31,-0.46,
0.764,0.20,0.47,0.40,-0.11,-0.28,-0.45,
0.767,0.20,0.47,0.40,-0.13,-0.26,-0.44,
0.768,0.20,0.47,0.40,-0.15,-0.23,-0.44,
0.77,0.25,0.44,0.18,-0.15,-0.23,-0.44,
0.77,0.25,0.44,0.18,-0.18,-0.21,-0.44,
0.772,0.25,0.44,0.18,-0.21,-0.19,-0.44,
0.774,0.25,0.44,0.18,-0.24,-0.17,-0.44,
0.776,0.25,0.44,0.18,-0.27,-0.15,-0.45,
0.778,0.25,0.44,0.18,-0.31,-0.14,-0.46,
0.78,0.56,0.38,0.03,-0.31,-0.14,-0.46,
0.781,0.56,0.38,0.03,-0.36,-0.12,-0.47,
0.782,0.56,0.38,0.03,-0.40,-0.11,-0.49,
0.784,0.56,0.38,0.03,-0.44,-0.08,-0.51,
0.786,0.56,0.38,0.03,-0.48,-0.06,-0.53,
0.788,0.56,0.38,0.03,-0.52,-0.04,-0.56,
0.791,1.27,0.39,0.07,-0.52,-0.04,-0.56,
0.791,1.27,0.39,0.07,-0.57,-0.02,-0.59,
0.792,1.27,0.39,0.07,-0.61,0.00,-0.61,
0.794,1.27,0.39,0.07,-0.65,0.02,-0.64,
0.796,1.27,0.39,0.07,-0.69,0.04,-0.67,
0.798,1.27,0.39,0.07,-0.73,0.06,-0.71,
0.801,1.76,0.32,0.42,-0.73,0.06,-0.71,
0.801,1.76,0.32,0.42,-0.77,0.08,-0.74,
0.802,1.76,0.32,0.42,-0.81,0.10,-0.78,
0.804,1.76,0.32,0.42,-0.85,0.11,-0.82,
0.806,1.76,0.32,0.42,-0.89,0.13,-0.86,
0.808,1.76,0.32,0.42,-0.93,0.15,-0.91,
0.81,2.22,0.08,0.83,-0.93,0.15,-0.91,
0.811,2.22,0.08,0.83,-0.96,0.16,-0.96,
0.812,2.22,0.08,0.83,-1.00,0.18,-1.01,
0.814,2.22,0.08,0.83,-1.03,0.20,-1.06,
0.817,2.22,0.08,0.83,-1.05,0.22,-1.11,
0.818,2.22,0.08,0.83,-1.08,0.25,-1.17,
0.82,2.17,-0.18,1.36,-1.08,0.25,-1.17,
0.821,2.17,-0.18,1.36,-1.10,0.27,-1.22,
0.822,2.17,-0.18,1.36,-1.12,0.30,-1.26,
0.825,2.17,-0.18,1.36,-1.13,0.32,-1.31,
0.829,2.17,-0.18,1.36,-1.15,0.35,-1.35,
0.833,2.17,-0.18,1.36,-1.16,0.38,-1.39,
0.837,1.89,-0.63,2.00,-1.16,0.38,-1.39,
0.837,1.89,-0.63,2.00,-1.16,0.40,-1.43,
0.838,1.89,-0.63,2.00,-1.16,0.43,-1.46,
0.838,1.89,-0.63,2.00,-1.16,0.47,-1.49,
0.839,1.89,-0.63,2.00,-1.15,0.48,-1.50,
0.839,1.89,-0.63,2.00,-1.13,0.51,-1.52,
0.841,1.09,-0.96,2.65,-1.13,0.51,-1.52,
0.842,1.09,-0.96,2.65,-1.11,0.54,-1.52,
0.842,1.09,-0.96,2.65,-1.09,0.56,-1.53,
0.844,1.09,-0.96,2.65,-1.06,0.58,-1.53,
0.846,1.09,-0.96,2.65,-1.02,0.59,-1.53,
0.848,1.09,-0.96,2.65,-0.99,0.60,-1.53,
0.851,0.52,-1.22,3.07,-0.99,0.60,-1.53,
0.852,0.52,-1.22,3.07,-0.92,0.60,-1.53,
0.853,0.52,-1.22,3.07,-0.87,0.60,-1.52,
0.854,0.52,-1.22,3.07,-0.83,0.59,-1.51,
0.856,0.52,-1.22,3.07,-0.80,0.58,-1.51,
0.858,0.52,-1.22,3.07,-0.75,0.57,-1.50,
0.861,0.10,-1.21,3.15,-0.75,0.57,-1.50,
0.861,0.10,-1.21,3.15,-0.70,0.55,-1.49,
0.862,0.10,-1.21,3.15,-0.65,0.52,-1.48,
0.864,0.10,-1.21,3.15,-0.59,0.48,-1.47,
0.873,0.10,-1.21,3.15,-0.55,0.44,-1.46,
0.874,0.10,-1.21,3.15,-0.50,0.40,-1.45,
0.874,-0.11,-1.14,2.84,-0.50,0.40,-1.45,
0.875,-0.11,-1.14,2.84,-0.45,0.35,-1.44,
0.875,-0.11,-1.14,2.84,-0.40,0.30,-1.43,
0.875,-0.11,-1.14,2.84,-0.36,0.24,-1.42,
0.877,-0.11,-1.14,2.84,-0.31,0.17,-1.42,
0.914,-0.11,-1.14,2.84,-0.27,0.10,-1.41,
0.915,-0.02,-0.98,2.41,-0.27,0.10,-1.41,
0.916,-0.02,-0.98,2.41,-0.23,0.03,-1.41,
0.916,-0.02,-0.98,2.41,-0.20,-0.04,-1.41,
0.917,-0.02,-0.98,2.41,-0.16,-0.12,-1.41,
0.917,-0.02,-0.98,2.41,-0.13,-0.20,-1.41,
0.956,-0.02,-0.98,2.41,-0.10,-0.27,-1.41,
0.957,0.29,-0.92,2.02,-0.10,-0.27,-1.41,
0.957,0.29,-0.92,2.02,-0.07,-0.35,-1.42,
0.958,0.29,-0.92,2.02,-0.04,-0.43,-1.42,
0.958,0.29,-0.92,2.02,-0.00,-0.54,-1.44,
0.959,0.29,-0.92,2.02,0.01,-0.57,-1.44,
0.959,0.29,-0.92,2.02,0.03,-0.64,-1.45,
0.96,0.45,-0.83,1.79,0.03,-0.64,-1.45,
0.961,0.45,-0.83,1.79,0.05,-0.71,-1.45,
0.961,0.45,-0.83,1.79,0.07,-0.79,-1.47,
0.962,0.45,-0.83,1.79,0.08,-0.84,-1.47,
0.962,0.45,-0.83,1.79,0.09,-0.86,-1.47,
0.963,0.45,-0.83,1.79,0.10,-0.90,-1.48,
0.963,0.59,-0.89,1.63,0.10,-0.90,-1.48,
0.963,0.59,-0.89,1.63,0.11,-0.95,-1.49,
0.964,0.59,-0.89,1.63,0.11,-0.96,-1.49,
0.964,0.59,-0.89,1.63,0.11,-0.98,-1.49,
0.964,0.59,-0.89,1.63,0.12,-0.99,-1.49,
0.965,0.59,-0.89,1.63,0.12,-1.00,-1.49,
0.965,0.67,-1.02,1.50,0.12,-1.00,-1.49,
0.965,0.67,-1.02,1.50,0.12,-1.01,-1.49,
0.966,0.67,-1.02,1.50,0.12,-1.01,-1.49,
0.966,0.67,-1.02,1.50,0.12,-1.00,-1.49,
0.966,0.67,-1.02,1.50,0.12,-1.00,-1.49,
0.967,0.67,-1.02,1.50,0.12,-0.99,-1.49,
0.967,0.72,-1.21,1.50,0.12,-0.99,-1.49,
0.967,0.72,-1.21,1.50,0.11,-0.96,-1.48,
0.968,0.72,-1.21,1.50,0.11,-0.94,-1.47,
0.968,0.72,-1.21,1.50,0.11,-0.91,-1.47,
0.969,0.72,-1.21,1.50,0.11,-0.90,-1.47,
0.969,0.72,-1.21,1.50,0.10,-0.87,-1.46,
0.969,0.70,-1.30,1.40,0.10,-0.87,-1.46,
0.97,0.70,-1.30,1.40,0.10,-0.82,-1.45,
0.97,0.70,-1.30,1.40,0.10,-0.80,-1.44,
0.97,0.70,-1.30,1.40,0.09,-0.74,-1.43,
0.971,0.70,-1.30,1.40,0.09,-0.72,-1.43,
0.971,0.70,-1.30,1.40,0.09,-0.68,-1.42,
0.971,0.69,-1.35,1.19,0.09,-0.68,-1.42,
0.972,0.69,-1.35,1.19,0.08,-0.63,-1.41,
0.972,0.69,-1.35,1.19,0.08,-0.60,-1.41,
0.973,0.69,-1.35,1.19,0.08,-0.57,-1.40,
0.973,0.69,-1.35,1.19,0.07,-0.55,-1.40,
0.973,0.69,-1.35,1.19,0.07,-0.53,-1.39,
0.974,0.71,-1.17,0.90,0.07,-0.53,-1.39,
0.974,0.71,-1.17,0.90,0.06,-0.49,-1.39,
0.974,0.71,-1.17,0.90,0.06,-0.47,-1.39,
0.975,0.71,-1.17,0.90,0.06,-0.45,-1.39,
0.975,0.71,-1.17,0.90,0.06,-0.45,-1.39,
0.975,0.71,-1.17,0.90,0.06,-0.43,-1.39,
0.976,0.90,-1.02,0.67,0.06,-0.43,-1.39,
0.976,0.90,-1.02,0.67,0.06,-0.42,-1.39,
0.976,0.90,-1.02,0.67,0.07,-0.41,-1.39,
0.977,0.90,-1.02,0.67,0.08,-0.40,-1.39,
0.977,0.90,-1.02,0.67,0.08,-0.40,-1.40,
0.977,0.90,-1.02,0.67,0.09,-0.40,-1.40,
0.988,1.02,-0.87,0.51,0.09,-0.40,-1.40,
0.988,1.02,-0.87,0.51,0.10,-0.41,-1.41,
0.989,1.02,-0.87,0.51,0.11,-0.41,-1.41,
0.989,1.02,-0.87,0.51,0.12,-0.43,-1.43,
0.989,1.02,-0.87,0.51,0.13,-0.44,-1.44,
0.989,1.02,-0.87,0.51,0.14,-0.46,-1.45,
0.992,1.36,-0.80,0.21,0.14,-0.46,-1.45,
0.992,1.36,-0.80,0.21,0.15,-0.47,-1.46,
0.992,1.36,-0.80,0.21,0.16,-0.49,-1.48,
0.994,1.36,-0.80,0.21,0.17,-0.51,-1.49,
0.996,1.36,-0.80,0.21,0.18,-0.53,-1.50,
0.999,1.36,-0.80,0.21,0.19,-0.54,-1.51,
1.0,1.16,-0.70,-0.20,0.19,-0.54,-1.51,
1.0,1.16,-0.70,-0.20,0.20,-0.56,-1.51,
1.002,1.16,-0.70,-0.20,0.20,-0.57,-1.52,
1.004,1.16,-0.70,-0.20,0.21,-0.59,-1.52,
1.006,1.16,-0.70,-0.20,0.22,-0.60,-1.52,
1.007,1.16,-0.70,-0.20,0.23,-0.61,-1.51,
1.01,0.79,-0.72,-0.60,0.23,-0.61,-1.51,
1.01,0.79,-0.72,-0.60,0.23,-0.62,-1.51,
1.012,0.79,-0.72,-0.60,0.24,-0.62,-1.50,
1.013,0.79,-0.72,-0.60,0.24,-0.63,-1.49,
1.022,0.79,-0.72,-0.60,0.24,-0.63,-1.47,
1.023,0.79,-0.72,-0.60,0.24,-0.63,-1.46,
1.024,0.18,-0.72,-0.98,0.24,-0.63,-1.46,
1.024,0.18,-0.72,-0.98,0.24,-0.63,-1.45,
1.024,0.18,-0.72,-0.98,0.25,-0.63,-1.43,
1.024,0.18,-0.72,-0.98,0.25,-0.62,-1.42,
1.026,0.18,-0.72,-0.98,0.25,-0.62,-1.40,
1.029,0.18,-0.72,-0.98,0.24,-0.61,-1.38,
1.053,-0.05,-0.69,-1.24,0.24,-0.61,-1.38,
1.053,-0.05,-0.69,-1.24,0.25,-0.60,-1.37,
1.054,-0.05,-0.69,-1.24,0.24,-0.59,-1.35,
1.054,-0.05,-0.69,-1.24,0.24,-0.58,-1.33,
1.054,-0.05,-0.69,-1.24,0.24,-0.58,-1.31,
1.054,-0.05,-0.69,-1.24,0.23,-0.57,-1.30,
1.054,-0.22,-0.64,-1.45,0.23,-0.57,-1.30,
1.055,-0.22,-0.64,-1.45,0.23,-0.56,-1.28,
1.055,-0.22,-0.64,-1.45,0.22,-0.55,-1.26,
1.055,-0.22,-0.64,-1.45,0.22,-0.54,-1.24,
1.055,-0.22,-0.64,-1.45,0.21,-0.53,-1.22,
1.055,-0.22,-0.64,-1.45,0.21,-0.53,-1.20,
1.055,-0.13,-0.58,-1.62,0.21,-0.53,-1.20,
1.056,-0.13,-0.58,-1.62,0.20,-0.52,-1.19,
1.056,-0.13,-0.58,-1.62,0.19,-0.52,-1.17,
1.073,-0.13,-0.58,-1.62,0.19,-0.51,-1.16,
1.074,-0.13,-0.58,-1.62,0.18,-0.51,-1.14,
1.074,-0.13,-0.58,-1.62,0.17,-0.51,-1.13,
1.074,-0.01,-0.40,-1.69,0.17,-0.51,-1.13,
1.074,-0.01,-0.40,-1.69,0.16,-0.51,-1.12,
1.074,-0.01,-0.40,-1.69,0.16,-0.51,-1.11,
1.075,-0.01,-0.40,-1.69,0.15,-0.51,-1.11,
1.075,-0.01,-0.40,-1.69,0.14,-0.51,-1.10,
1.075,-0.01,-0.40,-1.69,0.14,-0.51,-1.10,
1.075,0.37,-0.24,-1.68,0.14,-0.51,-1.10,
1.075,0.37,-0.24,-1.68,0.13,-0.52,-1.09,
1.075,0.37,-0.24,-1.68,0.13,-0.52,-1.09,
1.075,0.37,-0.24,-1.68,0.12,-0.52,-1.09,
1.076,0.37,-0.24,-1.68,0.11,-0.52,-1.09,
1.079,0.37,-0.24,-1.68,0.11,-0.52,-1.09,
1.08,0.57,-0.12,-1.61,0.11,-0.52,-1.09,
1.081,0.57,-0.12,-1.61,0.11,-0.51,-1.09,
1.095,0.57,-0.12,-1.61,0.10,-0.51,-1.09,
1.096,0.57,-0.12,-1.61,0.10,-0.51,-1.09,
1.096,0.57,-0.12,-1.61,0.09,-0.50,-1.08,
1.096,0.57,-0.12,-1.61,0.09,-0.49,-1.07,
1.096,0.57,-0.07,-1.56,0.09,-0.49,-1.07,
1.096,0.57,-0.07,-1.56,0.09,-0.48,-1.07,
1.096,0.57,-0.07,-1.56,0.08,-0.47,-1.06,
1.097,0.57,-0.07,-1.56,0.08,-0.45,-1.04,
1.097,0.57,-0.07,-1.56,0.07,-0.43,-1.03,
1.102,0.57,-0.07,-1.56,0.07,-0.42,-1.02,
1.103,0.30,-0.03,-1.56,0.07,-0.42,-1.02,
1.103,0.30,-0.03,-1.56,0.07,-0.40,-1.00,
1.103,0.30,-0.03,-1.56,0.07,-0.38,-0.99,
1.104,0.30,-0.03,-1.56,0.06,-0.36,-0.97,
1.106,0.30,-0.03,-1.56,0.06,-0.35,-0.96,
1.108,0.30,-0.03,-1.56,0.05,-0.33,-0.95,
1.11,0.19,0.04,-1.60,0.05,-0.33,-0.95,
1.11,0.19,0.04,-1.60,0.05,-0.32,-0.93,
1.112,0.19,0.04,-1.60,0.04,-0.31,-0.92,
1.114,0.19,0.04,-1.60,0.04,-0.31,-0.90,
1.116,0.19,0.04,-1.60,0.03,-0.30,-0.89,
1.119,0.19,0.04,-1.60,0.02,-0.30,-0.87,
1.12,-0.02,0.15,-1.68,0.02,-0.30,-0.87,
1.121,-0.02,0.15,-1.68,0.01,-0.29,-0.86,
1.122,-0.02,0.15,-1.68,0.01,-0.29,-0.84,
1.124,-0.02,0.15,-1.68,0.00,-0.28,-0.82,
1.126,-0.02,0.15,-1.68,0.00,-0.28,-0.81,
1.128,-0.02,0.15,-1.68,-0.00,-0.27,-0.79,
1.13,-0.04,0.30,-1.49,-0.00,-0.27,-0.79,
1.131,-0.04,0.30,-1.49,-0.00,-0.26,-0.77,
1.141,-0.04,0.30,-1.49,-0.00,-0.25,-0.76,
1.141,-0.04,0.30,-1.49,-0.00,-0.25,-0.74,
1.141,-0.04,0.30,-1.49,-0.00,-0.24,-0.73,
1.141,-0.04,0.30,-1.49,-0.00,-0.24,-0.72,
1.141,0.23,0.19,-1.20,-0.00,-0.24,-0.72,
1.141,0.23,0.19,-1.20,0.00,-0.24,-0.72,
1.142,0.23,0.19,-1.20,0.01,-0.24,-0.71,
1.143,0.23,0.19,-1.20,0.01,-0.25,-0.70,
1.149,0.23,0.19,-1.20,0.02,-0.25,-0.70,
1.149,0.23,0.19,-1.20,0.02,-0.25,-0.69,
1.184,0.50,0.33,-0.85,0.02,-0.25,-0.69,
1.185,0.50,0.33,-0.85,0.03,-0.26,-0.68,
1.185,0.50,0.33,-0.85,0.04,-0.27,-0.68,
1.185,0.50,0.33,-0.85,0.04,-0.28,-0.68,
1.186,0.50,0.33,-0.85,0.05,-0.28,-0.68,
1.186,0.50,0.33,-0.85,0.06,-0.29,-0.68,
1.186,0.74,0.53,-0.56,0.06,-0.29,-0.68,
1.186,0.74,0.53,-0.56,0.08,-0.31,-0.68,
1.186,0.74,0.53,-0.56,0.09,-0.32,-0.69,
1.186,0.74,0.53,-0.56,0.11,-0.33,-0.69,
1.187,0.74,0.53,-0.56,0.13,-0.35,-0.70,
1.187,0.74,0.53,-0.56,0.15,-0.36,-0.70,
1.187,0.87,0.64,-0.26,0.15,-0.36,-0.70,
1.187,0.87,0.64,-0.26,0.16,-0.38,-0.70,
1.187,0.87,0.64,-0.26,0.18,-0.40,-0.71,
1.187,0.87,0.64,-0.26,0.20,-0.42,-0.71,
1.187,0.87,0.64,-0.26,0.22,-0.43,-0.71,
1.193,0.87,0.64,-0.26,0.23,-0.44,-0.71,
1.193,0.69,0.74,-0.11,0.23,-0.44,-0.71,
1.194,0.69,0.74,-0.11,0.25,-0.46,-0.71,
1.194,0.69,0.74,-0.11,0.27,-0.48,-0.71,
1.194,0.69,0.74,-0.11,0.29,-0.49,-0.71,
1.194,0.69,0.74,-0.11,0.30,-0.51,-0.70,
1.194,0.69,0.74,-0.11,0.32,-0.53,-0.70,
1.194,0.37,0.83,-0.21,0.32,-0.53,-0.70,
1.195,0.37,0.83,-0.21,0.34,-0.55,-0.69,
1.195,0.37,0.83,-0.21,0.35,-0.57,-0.69,
1.195,0.37,0.83,-0.21,0.36,-0.58,-0.68,
1.196,0.37,0.83,-0.21,0.38,-0.59,-0.67,
1.199,0.37,0.83,-0.21,0.38,-0.61,-0.66,
1.202,0.04,0.86,-0.55,0.38,-0.61,-0.66,
1.202,0.04,0.86,-0.55,0.39,-0.62,-0.65,
1.203,0.04,0.86,-0.55,0.40,-0.63,-0.64,
1.204,0.04,0.86,-0.55,0.40,-0.64,-0.62,
1.206,0.04,0.86,-0.55,0.41,-0.66,-0.61,
1.218,0.04,0.86,-0.55,0.41,-0.66,-0.60,
1.219,-0.17,0.95,-0.87,0.41,-0.66,-0.60,
1.219,-0.17,0.95,-0.87,0.41,-0.67,-0.59,
1.219,-0.17,0.95,-0.87,0.41,-0.68,-0.58,
1.22,-0.17,0.95,-0.87,0.40,-0.69,-0.57,
1.22,-0.17,0.95,-0.87,0.40,-0.71,-0.56,
1.22,-0.17,0.95,-0.87,0.39,-0.72,-0.54,
1.222,-0.29,1.07,-0.98,0.39,-0.72,-0.54,
1.244,-0.29,1.07,-0.98,0.38,-0.73,-0.52,
1.244,-0.29,1.07,-0.98,0.38,-0.73,-0.52,
1.244,-0.29,1.07,-0.98,0.37,-0.74,-0.51,
1.245,-0.29,1.07,-0.98,0.36,-0.74,-0.50,
1.245,-0.29,1.07,-0.98,0.35,-0.74,-0.49,
1.245,-0.34,1.27,-0.88,0.35,-0.74,-0.49,
1.245,-0.34,1.27,-0.88,0.34,-0.74,-0.48,
1.246,-0.34,1.27,-0.88,0.32,-0.73,-0.47,
1.246,-0.34,1.27,-0.88,0.31,-0.73,-0.46,
1.246,-0.34,1.27,-0.88,0.30,-0.73,-0.46,
1.247,-0.34,1.27,-0.88,0.29,-0.72,-0.45,
1.247,-0.07,1.41,-0.65,0.29,-0.72,-0.45,
1.247,-0.07,1.41,-0.65,0.27,-0.72,-0.45,
1.247,-0.07,1.41,-0.65,0.26,-0.71,-0.45,
1.248,-0.07,1.41,-0.65,0.24,-0.70,-0.45,
1.248,-0.07,1.41,-0.65,0.23,-0.69,-0.45,
1.248,-0.07,1.41,-0.65,0.22,-0.68,-0.46,
1.253,0.26,1.59,-0.26,0.22,-0.68,-0.46,
1.254,0.26,1.59,-0.26,0.21,-0.66,-0.46,
1.254,0.26,1.59,-0.26,0.20,-0.64,-0.47,
1.254,0.26,1.59,-0.26,0.19,-0.62,-0.47,
1.256,0.26,1.59,-0.26,0.18,-0.60,-0.48,
1.258,0.26,1.59,-0.26,0.17,-0.57,-0.48,
1.26,0.33,1.69,0.24,0.17,-0.57,-0.48,
1.261,0.33,1.69,0.24,0.16,-0.55,-0.48,
1.262,0.33,1.69,0.24,0.16,-0.52,-0.49,
1.265,0.33,1.69,0.24,0.15,-0.49,-0.49,
1.266,0.33,1.69,0.24,0.14,-0.46,-0.48,
1.269,0.33,1.69,0.24,0.14,-0.43,-0.48,
1.271,0.12,1.70,0.59,0.14,-0.43,-0.48,
1.271,0.12,1.70,0.59,0.13,-0.40,-0.47,
1.272,0.12,1.70,0.59,0.12,-0.38,-0.46,
1.274,0.12,1.70,0.59,0.11,-0.35,-0.45,
1.276,0.12,1.70,0.59,0.10,-0.33,-0.44,
1.278,0.12,1.70,0.59,0.08,-0.30,-0.43,
1.287,-0.09,1.63,0.71,0.08,-0.30,-0.43,
1.287,-0.09,1.63,0.71,0.07,-0.28,-0.42,
1.287,-0.09,1.63,0.71,0.06,-0.26,-0.42,
1.288,-0.09,1.63,0.71,0.04,-0.24,-0.41,
1.288,-0.09,1.63,0.71,0.03,-0.22,-0.40,
1.288,-0.09,1.63,0.71,0.01,-0.20,-0.39,
1.293,-0.21,1.60,0.91,0.01,-0.20,-0.39,
1.294,-0.21,1.60,0.91,-0.00,-0.17,-0.38,
1.294,-0.21,1.60,0.91,-0.02,-0.15,-0.36,
1.294,-0.21,1.60,0.91,-0.03,-0.13,-0.35,
1.297,-0.21,1.60,0.91,-0.04,-0.11,-0.33,
1.309,-0.21,1.60,0.91,-0.05,-0.09,-0.31,
1.309,-0.60,1.57,1.30,-0.05,-0.09,-0.31,
1.309,-0.60,1.57,1.30,-0.06,-0.07,-0.28,
1.31,-0.60,1.57,1.30,-0.06,-0.05,-0.26,
1.31,-0.60,1.57,1.30,-0.07,-0.04,-0.24,
1.31,-0.60,1.57,1.30,-0.08,-0.03,-0.21,
1.31,-0.60,1.57,1.30,-0.09,-0.02,-0.19,
1.311,-1.00,1.69,1.57,-0.09,-0.02,-0.19,
1.311,-1.00,1.69,1.57,-0.10,-0.02,-0.16,
1.312,-1.00,1.69,1.57,-0.11,-0.02,-0.14,
1.314,-1.00,1.69,1.57,-0.11,-0.01,-0.11,
1.316,-1.00,1.69,1.57,-0.12,-0.01,-0.09,
1.318,-1.00,1.69,1.57,-0.13,-0.01,-0.07,
1.32,-1.06,1.72,1.90,-0.13,-0.01,-0.07,
1.321,-1.06,1.72,1.90,-0.13,-0.02,-0.05,
1.324,-1.06,1.72,1.90,-0.13,-0.03,-0.02,
1.325,-1.06,1.72,1.90,-0.13,-0.04,0.00,
1.326,-1.06,1.72,1.90,-0.13,-0.05,0.02,
1.329,-1.06,1.72,1.90,-0.13,-0.06,0.05,
1.333,-1.16,1.78,2.43,-0.13,-0.06,0.05,
1.333,-1.16,1.78,2.43,-0.12,-0.07,0.07,
1.335,-1.16,1.78,2.43,-0.11,-0.09,0.09,
1.335,-1.16,1.78,2.43,-0.10,-0.10,0.12,
1.337,-1.16,1.78,2.43,-0.09,-0.11,0.14,
1.338,-1.16,1.78,2.43,-0.08,-0.12,0.15,
1.341,-0.97,1.89,2.91,-0.08,-0.12,0.15,
1.343,-0.97,1.89,2.91,-0.07,-0.13,0.17,
1.345,-0.97,1.89,2.91,-0.06,-0.15,0.18,
1.346,-0.97,1.89,2.91,-0.05,-0.16,0.18,
1.348,-0.97,1.89,2.91,-0.04,-0.17,0.19,
1.348,-0.97,1.89,2.91,-0.03,-0.18,0.19,
1.35,-0.38,1.95,3.03,-0.03,-0.18,0.19,
1.351,-0.38,1.95,3.03,-0.03,-0.19,0.19,
1.352,-0.38,1.95,3.03,-0.02,-0.19,0.19,
1.354,-0.38,1.95,3.03,-0.02,-0.20,0.18,
1.356,-0.38,1.95,3.03,-0.02,-0.20,0.17,
1.358,-0.38,1.95,3.03,-0.03,-0.19,0.17,
1.36,-0.00,1.97,2.83,-0.03,-0.19,0.17,
1.361,-0.00,1.97,2.83,-0.03,-0.19,0.16,
1.362,-0.00,1.97,2.83,-0.04,-0.19,0.15,
1.364,-0.00,1.97,2.83,-0.05,-0.19,0.14,
1.366,-0.00,1.97,2.83,-0.07,-0.18,0.13,
1.368,-0.00,1.97,2.83,-0.09,-0.17,0.12,
1.37,0.07,2.01,2.41,-0.09,-0.17,0.12,
1.371,0.07,2.01,2.41,-0.12,-0.15,0.11,
1.372,0.07,2.01,2.41,-0.14,-0.13,0.10,
1.375,0.07,2.01,2.41,-0.18,-0.11,0.09,
1.376,0.07,2.01,2.41,-0.22,-0.08,0.08,
1.378,0.07,2.01,2.41,-0.26,-0.06,0.07,
1.392,-0.06,1.97,1.71,-0.26,-0.06,0.07,
1.392,-0.06,1.97,1.71,-0.31,-0.03,0.06,
1.393,-0.06,1.97,1.71,-0.36,-0.00,0.05,
1.393,-0.06,1.97,1.71,-0.42,0.02,0.04,
1.394,-0.06,1.97,1.71,-0.49,0.04,0.03,
1.413,-0.06,1.97,1.71,-0.55,0.06,0.02,
1.413,-0.12,1.85,0.95,-0.55,0.06,0.02,
1.413,-0.12,1.85,0.95,-0.62,0.08,0.01,
1.413,-0.12,1.85,0.95,-0.70,0.09,-0.00,
1.414,-0.12,1.85,0.95,-0.77,0.10,-0.01,
1.414,-0.12,1.85,0.95,-0.85,0.10,-0.02,
1.414,-0.12,1.85,0.95,-0.92,0.10,-0.03,
1.414,-0.10,1.62,0.97,-0.92,0.10,-0.03,
1.414,-0.10,1.62,0.97,-1.00,0.10,-0.04,
1.414,-0.10,1.62,0.97,-1.07,0.09,-0.05,
1.415,-0.10,1.62,0.97,-1.13,0.08,-0.07,
1.415,-0.10,1.62,0.97,-1.18,0.08,-0.08,
1.415,-0.10,1.62,0.97,-1.23,0.07,-0.09,
1.415,0.29,1.28,2.34,-1.23,0.07,-0.09,
1.415,0.29,1.28,2.34,-1.27,0.07,-0.10,
1.415,0.29,1.28,2.34,-1.30,0.07,-0.11,
1.415,0.29,1.28,2.34,-1.33,0.07,-0.12,
1.424,0.29,1.28,2.34,-1.35,0.08,-0.12,
1.424,0.29,1.28,2.34,-1.36,0.09,-0.13,
1.424,0.29,0.92,4.28,-1.36,0.09,-0.13,
1.424,0.29,0.92,4.28,-1.37,0.10,-0.13,
1.424,0.29,0.92,4.28,-1.37,0.11,-0.13,
1.424,0.29,0.92,4.28,-1.36,0.12,-0.13,
1.426,0.29,0.92,4.28,-1.35,0.14,-0.13,
1.428,0.29,0.92,4.28,-1.33,0.15,-0.12,
1.436,0.16,0.29,6.25,-1.33,0.15,-0.12,
1.437,0.16,0.29,6.25,-1.31,0.18,-0.11,
1.437,0.16,0.29,6.25,-1.28,0.20,-0.09,
1.437,0.16,0.29,6.25,-1.24,0.24,-0.07,
1.437,0.16,0.29,6.25,-1.19,0.27,-0.05,
1.437,0.16,0.29,6.25,-1.13,0.32,-0.02,
1.44,-0.40,-0.37,8.15,-1.13,0.32,-0.02,
1.441,-0.40,-0.37,8.15,-1.07,0.37,0.01,
1.441,-0.40,-0.37,8.15,-1.00,0.42,0.04,
1.444,-0.40,-0.37,8.15,-0.93,0.47,0.08,
1.446,-0.40,-0.37,8.15,-0.84,0.51,0.11,
1.448,-0.40,-0.37,8.15,-0.76,0.56,0.15,
1.45,-0.83,-0.97,9.42,-0.76,0.56,0.15,
1.451,-0.83,-0.97,9.42,-0.67,0.61,0.19,
1.452,-0.83,-0.97,9.42,-0.58,0.65,0.23,
1.454,-0.83,-0.97,9.42,-0.49,0.68,0.26,
1.456,-0.83,-0.97,9.42,-0.40,0.71,0.30,
1.458,-0.83,-0.97,9.42,-0.31,0.73,0.34,
1.46,-0.98,-1.28,9.52,-0.31,0.73,0.34,
1.461,-0.98,-1.28,9.52,-0.22,0.75,0.37,
1.462,-0.98,-1.28,9.52,-0.13,0.75,0.41,
1.464,-0.98,-1.28,9.52,-0.04,0.74,0.45,
1.466,-0.98,-1.28,9.52,0.04,0.73,0.47,
1.468,-0.98,-1.28,9.52,0.12,0.71,0.50,
1.471,-0.89,-1.43,8.49,0.12,0.71,0.50,
1.472,-0.89,-1.43,8.49,0.20,0.67,0.53,
1.473,-0.89,-1.43,8.49,0.27,0.63,0.56,
1.475,-0.89,-1.43,8.49,0.34,0.57,0.58,
1.476,-0.89,-1.43,8.49,0.40,0.51,0.60,
1.478,-0.89,-1.43,8.49,0.46,0.44,0.62,
1.48,-0.59,-1.29,6.94,0.46,0.44,0.62,
1.481,-0.59,-1.29,6.94,0.52,0.37,0.63,
1.482,-0.59,-1.29,6.94,0.57,0.30,0.65,
1.484,-0.59,-1.29,6.94,0.63,0.23,0.66,
1.486,-0.59,-1.29,6.94,0.68,0.16,0.67,
1.488,-0.59,-1.29,6.94,0.73,0.10,0.68,
1.49,-0.20,-1.29,5.60,0.73,0.10,0.68,
1.491,-0.20,-1.29,5.60,0.78,0.04,0.69,
1.492,-0.20,-1.29,5.60,0.82,-0.02,0.69,
1.494,-0.20,-1.29,5.60,0.86,-0.06,0.70,
1.497,-0.20,-1.29,5.60,0.90,-0.11,0.71,
1.498,-0.20,-1.29,5.60,0.93,-0.15,0.71,
1.501,0.06,-1.31,4.41,0.93,-0.15,0.71,
1.502,0.06,-1.31,4.41,0.97,-0.18,0.72,
1.502,0.06,-1.31,4.41,0.99,-0.21,0.72,
1.504,0.06,-1.31,4.41,1.02,-0.23,0.73,
1.506,0.06,-1.31,4.41,1.04,-0.24,0.73,
1.508,0.06,-1.31,4.41,1.06,-0.25,0.73,
1.511,0.26,-1.37,3.36,1.06,-0.25,0.73,
1.511,0.26,-1.37,3.36,1.08,-0.25,0.74,
1.512,0.26,-1.37,3.36,1.09,-0.25,0.74,
1.514,0.26,-1.37,3.36,1.10,-0.24,0.75,
1.516,0.26,-1.37,3.36,1.11,-0.23,0.75,
1.519,0.26,-1.37,3.36,1.12,-0.21,0.76,
1.52,0.27,-1.41,2.43,1.12,-0.21,0.76,
1.521,0.27,-1.41,2.43,1.12,-0.20,0.77,
1.522,0.27,-1.41,2.43,1.13,-0.18,0.78,
1.524,0.27,-1.41,2.43,1.13,-0.17,0.79,
1.526,0.27,-1.41,2.43,1.13,-0.15,0.80,
1.528,0.27,-1.41,2.43,1.14,-0.13,0.82,
1.541,0.09,-1.57,1.80,1.14,-0.13,0.82,
1.542,0.09,-1.57,1.80,1.14,-0.11,0.83,
1.542,0.09,-1.57,1.80,1.15,-0.09,0.85,
1.542,0.09,-1.57,1.80,1.15,-0.08,0.86,
1.543,0.09,-1.57,1.80,1.15,-0.06,0.88,
1.543,0.09,-1.57,1.80,1.15,-0.04,0.89,
1.543,0.03,-1.67,1.29,1.15,-0.04,0.89,
1.543,0.03,-1.67,1.29,1.15,-0.03,0.91,
1.544,0.03,-1.67,1.29,1.15,-0.01,0.92,
1.544,0.03,-1.67,1.29,1.15,0.01,0.93,
1.572,0.03,-1.67,1.29,1.15,0.03,0.94,
1.572,0.03,-1.67,1.29,1.15,0.05,0.95,
1.573,0.22,-1.69,0.76,1.15,0.05,0.95,
1.573,0.22,-1.69,0.76,1.15,0.06,0.96,
1.573,0.22,-1.69,0.76,1.14,0.07,0.96,
1.608,0.22,-1.69,0.76,1.14,0.08,0.96,
1.609,0.22,-1.69,0.76,1.14,0.08,0.96,
1.609,0.22,-1.69,0.76,1.14,0.09,0.95,
1.61,0.71,-1.53,0.18,1.14,0.09,0.95,
1.61,0.71,-1.53,0.18,1.13,0.09,0.94,
1.61,0.71,-1.53,0.18,1.13,0.09,0.93,
1.611,0.71,-1.53,0.18,1.13,0.09,0.92,
1.611,0.71,-1.53,0.18,1.12,0.09,0.90,
1.612,0.71,-1.53,0.18,1.11,0.09,0.88,
1.612,1.23,-1.35,-0.48,1.11,0.09,0.88,
1.613,1.23,-1.35,-0.48,1.11,0.09,0.86,
1.613,1.23,-1.35,-0.48,1.10,0.09,0.84,
1.613,1.23,-1.35,-0.48,1.09,0.09,0.82,
1.614,1.23,-1.35,-0.48,1.07,0.09,0.79,
1.614,1.23,-1.35,-0.48,1.06,0.10,0.77,
1.615,1.49,-1.17,-1.31,1.06,0.10,0.77,
1.615,1.49,-1.17,-1.31,1.04,0.10,0.75,
1.615,1.49,-1.17,-1.31,1.02,0.11,0.73,
1.616,1.49,-1.17,-1.31,1.00,0.12,0.70,
1.616,1.49,-1.17,-1.31,0.97,0.13,0.68,
1.617,1.49,-1.17,-1.31,0.95,0.14,0.66,
1.617,1.57,-1.14,-2.22,0.95,0.14,0.66,
1.617,1.57,-1.14,-2.22,0.91,0.15,0.63,
1.618,1.57,-1.14,-2.22,0.88,0.17,0.61,
1.618,1.57,-1.14,-2.22,0.85,0.18,0.59,
1.619,1.57,-1.14,-2.22,0.82,0.19,0.57,
1.619,1.57,-1.14,-2.22,0.78,0.20,0.55,
1.619,1.35,-1.19,-3.08,0.78,0.20,0.55,
1.62,1.35,-1.19,-3.08,0.75,0.22,0.54,
1.62,1.35,-1.19,-3.08,0.70,0.23,0.52,
1.62,1.35,-1.19,-3.08,0.66,0.24,0.51,
1.621,1.35,-1.19,-3.08,0.62,0.25,0.49,
1.621,1.35,-1.19,-3.08,0.58,0.26,0.48,
1.621,1.08,-1.30,-3.81,0.58,0.26,0.48,
1.621,1.08,-1.30,-3.81,0.54,0.27,0.47,
1.622,1.08,-1.30,-3.81,0.50,0.27,0.46,
1.622,1.08,-1.30,-3.81,0.46,0.28,0.45,
1.622,1.08,-1.30,-3.81,0.42,0.28,0.43,
1.622,1.08,-1.30,-3.81,0.38,0.28,0.42,
1.623,0.89,-1.38,-4.16,0.38,0.28,0.42,
1.623,0.89,-1.38,-4.16,0.34,0.27,0.41,
1.623,0.89,-1.38,-4.16,0.30,0.27,0.39,
1.63,0.89,-1.38,-4.16,0.27,0.26,0.37,
1.631,0.89,-1.38,-4.16,0.23,0.26,0.35,
1.631,0.89,-1.38,-4.16,0.20,0.26,0.34,
1.631,1.06,-1.33,-4.06,0.20,0.26,0.34,
1.631,1.06,-1.33,-4.06,0.17,0.26,0.32,
1.632,1.06,-1.33,-4.06,0.15,0.26,0.30,
1.634,1.06,-1.33,-4.06,0.12,0.27,0.28,
1.636,1.06,-1.33,-4.06,0.10,0.28,0.26,
1.637,1.06,-1.33,-4.06,0.08,0.28,0.24,
1.64,1.11,-1.35,-3.71,0.08,0.28,0.24,
1.64,1.11,-1.35,-3.71,0.06,0.29,0.22,
1.642,1.11,-1.35,-3.71,0.04,0.29,0.20,
1.644,1.11,-1.35,-3.71,0.02,0.30,0.18,
1.647,1.11,-1.35,-3.71,0.01,0.30,0.16,
1.648,1.11,-1.35,-3.71,-0.00,0.30,0.14,
1.65,1.22,-1.36,-3.31,-0.00,0.30,0.14,
1.651,1.22,-1.36,-3.31,-0.02,0.31,0.12,
1.652,1.22,-1.36,-3.31,-0.03,0.31,0.10,
1.653,1.22,-1.36,-3.31,-0.04,0.31,0.08,
1.655,1.22,-1.36,-3.31,-0.05,0.31,0.06,
1.657,1.22,-1.36,-3.31,-0.06,0.32,0.04,
1.66,1.22,-1.45,-2.89,-0.06,0.32,0.04,
1.66,1.22,-1.45,-2.89,-0.06,0.32,0.02,
1.662,1.22,-1.45,-2.89,-0.06,0.32,0.00,
1.668,1.22,-1.45,-2.89,-0.06,0.31,-0.01,
1.669,1.22,-1.45,-2.89,-0.06,0.31,-0.03,
1.669,1.22,-1.45,-2.89,-0.06,0.30,-0.04,
1.67,1.18,-1.60,-2.45,-0.06,0.30,-0.04,
1.671,1.18,-1.60,-2.45,-0.06,0.28,-0.05,
1.672,1.18,-1.60,-2.45,-0.06,0.27,-0.07,
1.674,1.18,-1.60,-2.45,-0.05,0.26,-0.08,
1.677,1.18,-1.60,-2.45,-0.05,0.25,-0.09,
1.705,1.18,-1.60,-2.45,-0.04,0.24,-0.10,
1.706,1.10,-1.72,-2.21,-0.04,0.24,-0.10,
1.706,1.10,-1.72,-2.21,-0.04,0.24,-0.11,
1.706,1.10,-1.72,-2.21,-0.04,0.24,-0.12,
1.706,1.10,-1.72,-2.21,-0.03,0.24,-0.13,
1.707,1.10,-1.72,-2.21,-0.03,0.24,-0.14,
1.707,1.10,-1.72,-2.21,-0.02,0.25,-0.14,
1.707,1.13,-1.93,-2.06,-0.02,0.25,-0.14,
1.707,1.13,-1.93,-2.06,-0.02,0.26,-0.15,
1.707,1.13,-1.93,-2.06,-0.01,0.28,-0.16,
1.707,1.13,-1.93,-2.06,-0.00,0.29,-0.16,
1.708,1.13,-1.93,-2.06,0.01,0.32,-0.16,
1.708,1.13,-1.93,-2.06,0.02,0.34,-0.17,
1.708,1.09,-2.06,-1.98,0.02,0.34,-0.17,
1.708,1.09,-2.06,-1.98,0.02,0.37,-0.17,
1.708,1.09,-2.06,-1.98,0.03,0.40,-0.17,
1.709,1.09,-2.06,-1.98,0.05,0.43,-0.17,
1.709,1.09,-2.06,-1.98,0.06,0.46,-0.17,
1.709,1.09,-2.06,-1.98,0.07,0.50,-0.17,
1.71,1.08,-2.22,-2.04,0.07,0.50,-0.17,
1.711,1.08,-2.22,-2.04,0.08,0.54,-0.17,
1.716,1.08,-2.22,-2.04,0.09,0.57,-0.17,
1.716,1.08,-2.22,-2.04,0.10,0.61,-0.16,
1.716,1.08,-2.22,-2.04,0.10,0.65,-0.16,
1.719,1.08,-2.22,-2.04,0.11,0.68,-0.16,
1.72,1.13,-2.33,-2.49,0.11,0.68,-0.16,
1.747,1.13,-2.33,-2.49,0.11,0.72,-0.15,
1.748,1.13,-2.33,-2.49,0.11,0.76,-0.15,
1.748,1.13,-2.33,-2.49,0.11,0.83,-0.15,
1.748,1.13,-2.33,-2.49,0.11,0.83,-0.15,
1.749,1.13,-2.33,-2.49,0.10,0.86,-0.14,
1.749,1.29,-2.39,-3.07,0.10,0.86,-0.14,
1.749,1.29,-2.39,-3.07,0.10,0.88,-0.14,
1.749,1.29,-2.39,-3.07,0.09,0.90,-0.14,
1.75,1.29,-2.39,-3.07,0.08,0.92,-0.14,
1.75,1.29,-2.39,-3.07,0.07,0.94,-0.14,
1.75,1.29,-2.39,-3.07,0.06,0.95,-0.13,
1.751,1.27,-2.24,-3.68,0.06,0.95,-0.13,
1.751,1.27,-2.24,-3.68,0.05,0.96,-0.13,
1.751,1.27,-2.24,-3.68,0.04,0.96,-0.13,
1.752,1.27,-2.24,-3.68,0.03,0.96,-0.13,
1.752,1.27,-2.24,-3.68,0.01,0.96,-0.12,
1.752,1.27,-2.24,-3.68,-0.00,0.95,-0.12,
1.752,1.16,-2.17,-4.20,-0.00,0.95,-0.12,
1.753,1.16,-2.17,-4.20,-0.01,0.93,-0.12,
1.753,1.16,-2.17,-4.20,-0.03,0.90,-0.11,
1.759,1.16,-2.17,-4.20,-0.04,0.87,-0.11,
1.76,1.16,-2.17,-4.20,-0.06,0.82,-0.10,
1.76,1.16,-2.17,-4.20,-0.07,0.78,-0.10,
1.76,1.05,-1.88,-4.48,-0.07,0.78,-0.10,
1.761,1.05,-1.88,-4.48,-0.09,0.73,-0.10,
1.767,1.05,-1.88,-4.48,-0.10,0.67,-0.10,
1.768,1.05,-1.88,-4.48,-0.11,0.62,-0.10,
1.768,1.05,-1.88,-4.48,-0.12,0.56,-0.10,
1.768,1.05,-1.88,-4.48,-0.12,0.51,-0.10,
1.771,1.06,-1.62,-4.33,-0.12,0.51,-0.10,
1.771,1.06,-1.62,-4.33,-0.13,0.45,-0.09,
1.772,1.06,-1.62,-4.33,-0.12,0.40,-0.09,
1.774,1.06,-1.62,-4.33,-0.12,0.34,-0.09,
1.776,1.06,-1.62,-4.33,-0.11,0.28,-0.09,
1.778,1.06,-1.62,-4.33,-0.10,0.23,-0.09,
1.78,0.97,-1.33,-3.63,-0.10,0.23,-0.09,
1.781,0.97,-1.33,-3.63,-0.09,0.17,-0.09,
1.783,0.97,-1.33,-3.63,-0.06,0.11,-0.08,
1.784,0.97,-1.33,-3.63,-0.04,0.05,-0.08,
1.786,0.97,-1.33,-3.63,-0.01,-0.01,-0.07,
1.788,0.97,-1.33,-3.63,0.02,-0.07,-0.06,
1.791,0.84,-1.11,-2.42,0.02,-0.07,-0.06,
1.791,0.84,-1.11,-2.42,0.06,-0.12,-0.05,
1.792,0.84,-1.11,-2.42,0.10,-0.18,-0.04,
1.794,0.84,-1.11,-2.42,0.14,-0.23,-0.03,
1.805,0.84,-1.11,-2.42,0.19,-0.27,-0.02,
1.808,0.84,-1.11,-2.42,0.24,-0.32,-0.01,
1.809,0.67,-0.74,-1.17,0.24,-0.32,-0.01,
1.809,0.67,-0.74,-1.17,0.29,-0.35,0.01,
1.81,0.67,-0.74,-1.17,0.34,-0.38,0.02,
1.81,0.67,-0.74,-1.17,0.40,-0.41,0.03,
1.81,0.67,-0.74,-1.17,0.45,-0.43,0.04,
1.811,0.67,-0.74,-1.17,0.51,-0.44,0.06,
1.811,0.70,-0.43,-0.28,0.51,-0.44,0.06,
1.811,0.70,-0.43,-0.28,0.56,-0.45,0.07,
1.841,0.70,-0.43,-0.28,0.61,-0.46,0.08,
1.841,0.70,-0.43,-0.28,0.66,-0.46,0.10,
1.842,0.70,-0.43,-0.28,0.71,-0.45,0.11,
1.842,0.70,-0.43,-0.28,0.75,-0.44,0.13,
1.842,0.62,-0.17,-0.17,0.75,-0.44,0.13,
1.843,0.62,-0.17,-0.17,0.79,-0.43,0.14,
1.843,0.62,-0.17,-0.17,0.82,-0.42,0.16,
1.843,0.62,-0.17,-0.17,0.84,-0.40,0.18,
1.843,0.62,-0.17,-0.17,0.86,-0.39,0.19,
1.844,0.62,-0.17,-0.17,0.88,-0.37,0.21,
1.844,0.50,0.22,-0.75,0.88,-0.37,0.21,
1.844,0.50,0.22,-0.75,0.89,-0.35,0.23,
1.844,0.50,0.22,-0.75,0.89,-0.33,0.24,
1.845,0.50,0.22,-0.75,0.89,-0.31,0.26,
1.845,0.50,0.22,-0.75,0.89,-0.29,0.27,
1.845,0.50,0.22,-0.75,0.88,-0.27,0.28,
1.846,0.47,0.55,-1.32,0.88,-0.27,0.28,
1.846,0.47,0.55,-1.32,0.86,-0.26,0.29,
1.846,0.47,0.55,-1.32,0.84,-0.24,0.30,
1.847,0.47,0.55,-1.32,0.82,-0.23,0.31,
1.847,0.47,0.55,-1.32,0.80,-0.21,0.32,
1.849,0.47,0.55,-1.32,0.77,-0.20,0.34,
1.858,0.29,0.92,-1.48,0.77,-0.20,0.34,
1.858,0.29,0.92,-1.48,0.74,-0.19,0.35,
1.859,0.29,0.92,-1.48,0.71,-0.19,0.36,
1.859,0.29,0.92,-1.48,0.68,-0.19,0.38,
1.859,0.29,0.92,-1.48,0.64,-0.19,0.40,
1.86,0.29,0.92,-1.48,0.61,-0.19,0.42,
1.861,-0.14,1.19,-0.90,0.61,-0.19,0.42,
1.861,-0.14,1.19,-0.90,0.58,-0.19,0.44,
1.863,-0.14,1.19,-0.90,0.55,-0.20,0.47,
1.865,-0.14,1.19,-0.90,0.52,-0.21,0.49,
1.866,-0.14,1.19,-0.90,0.49,-0.23,0.52,
1.868,-0.14,1.19,-0.90,0.47,-0.24,0.55,
1.871,-0.82,1.57,0.24,0.47,-0.24,0.55,
1.871,-0.82,1.57,0.24,0.44,-0.26,0.58,
1.872,-0.82,1.57,0.24,0.42,-0.28,0.61,
1.874,-0.82,1.57,0.24,0.40,-0.30,0.64,
1.877,-0.82,1.57,0.24,0.38,-0.33,0.68,
1.879,-0.82,1.57,0.24,0.36,-0.35,0.71,
1.884,-1.35,1.93,1.52,0.36,-0.35,0.71,
1.885,-1.35,1.93,1.52,0.34,-0.38,0.75,
1.885,-1.35,1.93,1.52,0.33,-0.41,0.78,
1.885,-1.35,1.93,1.52,0.31,-0.43,0.81,
1.886,-1.35,1.93,1.52,0.29,-0.46,0.84,
1.916,-1.35,1.93,1.52,0.27,-0.49,0.86,
1.917,-1.29,2.64,2.52,0.27,-0.49,0.86,
1.917,-1.29,2.64,2.52,0.26,-0.52,0.88,
1.918,-1.29,2.64,2.52,0.24,-0.54,0.90,
1.918,-1.29,2.64,2.52,0.21,-0.57,0.91,
1.919,-1.29,2.64,2.52,0.19,-0.60,0.92,
1.919,-1.29,2.64,2.52,0.16,-0.62,0.93,
1.919,-0.97,3.57,3.10,0.16,-0.62,0.93,
1.92,-0.97,3.57,3.10,0.12,-0.65,0.93,
1.92,-0.97,3.57,3.10,0.10,-0.66,0.94,
1.921,-0.97,3.57,3.10,0.06,-0.68,0.94,
1.921,-0.97,3.57,3.10,0.03,-0.70,0.94,
1.921,-0.97,3.57,3.10,-0.01,-0.71,0.93,
1.922,-0.75,4.40,3.24,-0.01,-0.71,0.93,
1.923,-0.75,4.40,3.24,-0.06,-0.73,0.93,
1.923,-0.75,4.40,3.24,-0.10,-0.75,0.92,
1.923,-0.75,4.40,3.24,-0.15,-0.77,0.91,
1.923,-0.75,4.40,3.24,-0.20,-0.79,0.89,
1.923,-0.75,4.40,3.24,-0.25,-0.81,0.88,
1.924,-0.54,4.64,3.53,-0.25,-0.81,0.88,
1.924,-0.54,4.64,3.53,-0.31,-0.83,0.88,
1.924,-0.54,4.64,3.53,-0.36,-0.84,0.87,
1.924,-0.54,4.64,3.53,-0.42,-0.85,0.86,
1.933,-0.54,4.64,3.53,-0.48,-0.85,0.86,
1.934,-0.54,4.64,3.53,-0.54,-0.84,0.84,
1.934,-0.10,4.73,3.95,-0.54,-0.84,0.84,
1.935,-0.10,4.73,3.95,-0.60,-0.82,0.83,
1.935,-0.10,4.73,3.95,-0.66,-0.79,0.81,
1.935,-0.10,4.73,3.95,-0.73,-0.75,0.79,
1.936,-0.10,4.73,3.95,-0.80,-0.71,0.76,
1.938,-0.10,4.73,3.95,-0.86,-0.65,0.73,
1.94,0.98,4.63,4.68,-0.86,-0.65,0.73,
1.94,0.98,4.63,4.68,-0.93,-0.60,0.69,
1.942,0.98,4.63,4.68,-1.00,-0.54,0.66,
1.944,0.98,4.63,4.68,-1.06,-0.47,0.62,
1.946,0.98,4.63,4.68,-1.12,-0.39,0.58,
1.949,0.98,4.63,4.68,-1.18,-0.31,0.53,
1.951,2.36,4.45,5.81,-1.18,-0.31,0.53,
1.951,2.36,4.45,5.81,-1.23,-0.22,0.48,
1.952,2.36,4.45,5.81,-1.28,-0.11,0.42,
1.954,2.36,4.45,5.81,-1.33,0.01,0.36,
1.956,2.36,4.45,5.81,-1.39,0.13,0.30,
1.958,2.36,4.45,5.81,-1.44,0.27,0.25,
1.96,3.17,4.27,6.53,-1.44,0.27,0.25,
1.96,3.17,4.27,6.53,-1.50,0.40,0.19,
1.967,3.17,4.27,6.53,-1.55,0.52,0.13,
1.968,3.17,4.27,6.53,-1.61,0.64,0.07,
1.968,3.17,4.27,6.53,-1.68,0.75,0.02,
1.968,3.17,4.27,6.53,-1.75,0.86,-0.02,
1.97,2.89,3.76,6.05,-1.75,0.86,-0.02,
1.972,2.89,3.76,6.05,-1.82,0.98,-0.06,
2.0,2.89,3.76,6.05,-1.89,1.07,-0.09,
2.001,2.89,3.76,6.05,-1.96,1.17,-0.13,
2.001,2.89,3.76,6.05,-2.02,1.27,-0.15,
2.001,2.89,3.76,6.05,-2.08,1.35,-0.17,
2.001,1.43,2.86,5.55,-2.08,1.35,-0.17,
2.001,1.43,2.86,5.55,-2.13,1.44,-0.19,
2.002,1.43,2.86,5.55,-2.17,1.51,-0.21,
2.002,1.43,2.86,5.55,-2.21,1.58,-0.23,
2.002,1.43,2.86,5.55,-2.23,1.63,-0.24,
2.002,1.43,2.86,5.55,-2.25,1.68,-0.25,
2.002,0.23,1.63,5.84,-2.25,1.68,-0.25,
2.002,0.23,1.63,5.84,-2.26,1.70,-0.25,
2.003,0.23,1.63,5.84,-2.26,1.73,-0.25,
2.003,0.23,1.63,5.84,-2.24,1.74,-0.24,
2.003,0.23,1.63,5.84,-2.22,1.74,-0.24,
2.003,0.23,1.63,5.84,-2.18,1.73,-0.22,
2.003,-1.06,0.59,6.76,-2.18,1.73,-0.22,
2.004,-1.06,0.59,6.76,-2.14,1.70,-0.21,
2.004,-1.06,0.59,6.76,-2.08,1.67,-0.18,
2.004,-1.06,0.59,6.76,-2.02,1.63,-0.16,
2.006,-1.06,0.59,6.76,-1.95,1.59,-0.13,
2.008,-1.06,0.59,6.76,-1.87,1.54,-0.10,
2.011,-2.24,-0.37,7.72,-1.87,1.54,-0.10,
2.013,-2.24,-0.37,7.72,-1.78,1.49,-0.06,
2.013,-2.24,-0.37,7.72,-1.69,1.43,-0.02,
2.015,-2.24,-0.37,7.72,-1.59,1.36,0.02,
2.016,-2.24,-0.37,7.72,-1.49,1.30,0.06,
2.018,-2.24,-0.37,7.72,-1.38,1.23,0.11,
2.02,-2.87,-1.05,8.42,-1.38,1.23,0.11,
2.021,-2.87,-1.05,8.42,-1.27,1.17,0.15,
2.022,-2.87,-1.05,8.42,-1.15,1.10,0.19,
2.024,-2.87,-1.05,8.42,-1.02,1.04,0.23,
2.026,-2.87,-1.05,8.42,-0.89,0.98,0.28,
2.029,-2.87,-1.05,8.42,-0.76,0.93,0.32,
2.03,-2.95,-1.40,8.82,-0.76,0.93,0.32,
2.032,-2.95,-1.40,8.82,-0.63,0.88,0.36,
2.034,-2.95,-1.40,8.82,-0.49,0.84,0.40,
2.034,-2.95,-1.40,8.82,-0.36,0.80,0.44,
2.036,-2.95,-1.40,8.82,-0.22,0.76,0.47,
2.038,-2.95,-1.40,8.82,-0.10,0.73,0.50,
2.04,-2.44,-1.34,8.17,-0.10,0.73,0.50,
2.041,-2.44,-1.34,8.17,0.03,0.70,0.53,
2.042,-2.44,-1.34,8.17,0.15,0.66,0.56,
2.044,-2.44,-1.34,8.17,0.26,0.63,0.58,
2.047,-2.44,-1.34,8.17,0.37,0.59,0.60,
2.048,-2.44,-1.34,8.17,0.46,0.55,0.62,
2.051,-1.70,-1.29,6.34,0.46,0.55,0.62,
2.051,-1.70,-1.29,6.34,0.55,0.51,0.63,
2.052,-1.70,-1.29,6.34,0.63,0.46,0.64,
2.073,-1.70,-1.29,6.34,0.70,0.42,0.64,
2.073,-1.70,-1.29,6.34,0.76,0.38,0.65,
2.074,-1.70,-1.29,6.34,0.82,0.33,0.65,
2.074,-0.88,-1.11,3.92,0.82,0.33,0.65,
2.074,-0.88,-1.11,3.92,0.86,0.29,0.64,
2.074,-0.88,-1.11,3.92,0.90,0.25,0.64,
2.075,-0.88,-1.11,3.92,0.93,0.21,0.63,
2.075,-0.88,-1.11,3.92,0.94,0.18,0.63,
2.075,-0.88,-1.11,3.92,0.96,0.14,0.62,
2.075,-0.34,-1.00,1.61,0.96,0.14,0.62,
2.075,-0.34,-1.00,1.61,0.96,0.11,0.61,
2.075,-0.34,-1.00,1.61,0.96,0.08,0.61,
2.076,-0.34,-1.00,1.61,0.96,0.06,0.60,
2.076,-0.34,-1.00,1.61,0.95,0.03,0.59,
2.08,-0.34,-1.00,1.61,0.93,0.01,0.58,
2.08,0.12,-0.85,-0.08,0.93,0.01,0.58,
2.081,0.12,-0.85,-0.08,0.91,-0.01,0.57,
2.082,0.12,-0.85,-0.08,0.89,-0.03,0.56,
2.084,0.12,-0.85,-0.08,0.86,-0.05,0.55,
2.086,0.12,-0.85,-0.08,0.84,-0.07,0.53,
2.088,0.12,-0.85,-0.08,0.81,-0.09,0.51,
2.09,0.63,-0.85,-0.98,0.81,-0.09,0.51,
2.09,0.63,-0.85,-0.98,0.78,-0.11,0.49,
2.091,0.63,-0.85,-0.98,0.75,-0.14,0.48,
2.094,0.63,-0.85,-0.98,0.73,-0.16,0.46,
2.097,0.63,-0.85,-0.98,0.70,-0.18,0.43,
2.098,0.63,-0.85,-0.98,0.68,-0.21,0.41,
2.1,1.06,-0.84,-1.06,0.68,-0.21,0.41,
2.1,1.06,-0.84,-1.06,0.66,-0.23,0.39,
2.101,1.06,-0.84,-1.06,0.64,-0.25,0.36,
2.103,1.06,-0.84,-1.06,0.63,-0.27,0.34,
2.106,1.06,-0.84,-1.06,0.62,-0.29,0.31,
2.108,1.06,-0.84,-1.06,0.61,-0.30,0.28,
2.121,1.59,-0.98,-0.43,0.61,-0.30,0.28,
2.121,1.59,-0.98,-0.43,0.62,-0.32,0.25,
2.121,1.59,-0.98,-0.43,0.62,-0.33,0.23,
2.121,1.59,-0.98,-0.43,0.63,-0.34,0.20,
2.122,1.59,-0.98,-0.43,0.64,-0.35,0.18,
2.122,1.59,-0.98,-0.43,0.65,-0.36,0.16,
2.122,1.71,-1.14,0.30,0.65,-0.36,0.16,
2.122,1.71,-1.14,0.30,0.66,-0.36,0.14,
2.122,1.71,-1.14,0.30,0.68,-0.36,0.12,
2.124,1.71,-1.14,0.30,0.70,-0.36,0.10,
2.126,1.71,-1.14,0.30,0.71,-0.36,0.08,
2.149,1.71,-1.14,0.30,0.72,-0.36,0.06,
2.149,1.77,-1.38,0.48,0.72,-0.36,0.06,
2.149,1.77,-1.38,0.48,0.73,-0.35,0.05,
2.15,1.77,-1.38,0.48,0.74,-0.35,0.03,
2.15,1.77,-1.38,0.48,0.75,-0.34,0.01,
2.15,1.77,-1.38,0.48,0.75,-0.33,-0.01,
2.15,1.77,-1.38,0.48,0.75,-0.32,-0.03,
2.15,1.86,-1.51,0.08,0.75,-0.32,-0.03,
2.15,1.86,-1.51,0.08,0.75,-0.30,-0.05,
2.151,1.86,-1.51,0.08,0.75,-0.28,-0.07,
2.151,1.86,-1.51,0.08,0.75,-0.26,-0.09,
2.151,1.86,-1.51,0.08,0.74,-0.23,-0.11,
2.151,1.86,-1.51,0.08,0.73,-0.21,-0.13,
2.151,2.01,-1.62,-0.43,0.73,-0.21,-0.13,
2.152,2.01,-1.62,-0.43,0.73,-0.18,-0.15,
2.152,2.01,-1.62,-0.43,0.72,-0.15,-0.17,
2.16,2.01,-1.62,-0.43,0.70,-0.12,-0.19,
2.16,2.01,-1.62,-0.43,0.69,-0.09,-0.21,
2.161,2.01,-1.62,-0.43,0.68,-0.06,-0.23,
2.186,1.93,-1.66,-0.94,0.68,-0.06,-0.23,
2.187,1.93,-1.66,-0.94,0.67,-0.03,-0.25,
2.187,1.93,-1.66,-0.94,0.66,-0.01,-0.27,
2.187,1.93,-1.66,-0.94,0.65,0.01,-0.29,
2.188,1.93,-1.66,-0.94,0.64,0.03,-0.31,
2.188,1.93,-1.66,-0.94,0.62,0.04,-0.32,
2.188,1.77,-1.73,-1.40,0.62,0.04,-0.32,
2.189,1.77,-1.73,-1.40,0.61,0.05,-0.34,
2.189,1.77,-1.73,-1.40,0.59,0.06,-0.36,
2.189,1.77,-1.73,-1.40,0.57,0.07,-0.37,
2.19,1.77,-1.73,-1.40,0.55,0.08,-0.38,
2.19,1.77,-1.73,-1.40,0.53,0.09,-0.40,
2.19,1.44,-1.81,-2.00,0.53,0.09,-0.40,
2.191,1.44,-1.81,-2.00,0.51,0.09,-0.41,
2.191,1.44,-1.81,-2.00,0.49,0.10,-0.42,
2.192,1.44,-1.81,-2.00,0.46,0.10,-0.43,
2.192,1.44,-1.81,-2.00,0.44,0.11,-0.43,
2.192,1.44,-1.81,-2.00,0.42,0.11,-0.44,
2.193,1.11,-2.01,-2.48,0.42,0.11,-0.44,
2.193,1.11,-2.01,-2.48,0.40,0.12,-0.44,
2.193,1.11,-2.01,-2.48,0.37,0.12,-0.45,
2.197,1.11,-2.01,-2.48,0.35,0.12,-0.44,
2.198,1.11,-2.01,-2.48,0.33,0.12,-0.44,
2.199,1.11,-2.01,-2.48,0.31,0.12,-0.44,
2.201,0.56,-2.07,-2.78,0.31,0.12,-0.44,
2.201,0.56,-2.07,-2.78,0.29,0.11,-0.43,
2.202,0.56,-2.07,-2.78,0.27,0.11,-0.43,
2.204,0.56,-2.07,-2.78,0.25,0.11,-0.42,
2.206,0.56,-2.07,-2.78,0.23,0.11,-0.41,
2.208,0.56,-2.07,-2.78,0.21,0.11,-0.39,
2.215,0.13,-2.14,-2.88,0.21,0.11,-0.39,
2.216,0.13,-2.14,-2.88,0.19,0.12,-0.38,
2.217,0.13,-2.14,-2.88,0.17,0.12,-0.37,
2.217,0.13,-2.14,-2.88,0.16,0.13,-0.36,
2.218,0.13,-2.14,-2.88,0.14,0.14,-0.35,
2.219,0.13,-2.14,-2.88,0.13,0.14,-0.34,
2.241,-0.01,-2.09,-2.90,0.13,0.14,-0.34,
2.272,-0.01,-2.09,-2.90,0.10,0.15,-0.32,
2.273,-0.01,-2.09,-2.90,0.10,0.15,-0.32,
2.273,-0.01,-2.09,-2.90,0.09,0.16,-0.31,
2.274,-0.01,-2.09,-2.90,0.08,0.16,-0.31,
2.275,-0.01,-2.09,-2.90,0.08,0.16,-0.32,
2.275,0.05,-1.78,-2.97,0.08,0.16,-0.32,
2.276,0.05,-1.78,-2.97,0.06,0.16,-0.30,
2.277,0.05,-1.78,-2.97,0.05,0.16,-0.29,
2.278,0.05,-1.78,-2.97,0.03,0.17,-0.28,
2.279,0.05,-1.78,-2.97,0.01,0.17,-0.27,
2.279,0.05,-1.78,-2.97,-0.00,0.17,-0.26,
2.28,-0.20,-1.76,-3.38,-0.00,0.17,-0.26,
2.28,-0.20,-1.76,-3.38,-0.02,0.17,-0.25,
2.28,-0.20,-1.76,-3.38,-0.04,0.17,-0.24,
2.28,-0.20,-1.76,-3.38,-0.06,0.18,-0.23,
2.281,-0.20,-1.76,-3.38,-0.08,0.18,-0.22,
2.281,-0.20,-1.76,-3.38,-0.11,0.19,-0.22,
2.281,-0.41,-1.55,-3.95,-0.11,0.19,-0.22,
2.281,-0.41,-1.55,-3.95,-0.15,0.19,-0.20,
2.281,-0.41,-1.55,-3.95,-0.17,0.19,-0.20,
2.282,-0.41,-1.55,-3.95,-0.20,0.20,-0.19,
2.282,-0.41,-1.55,-3.95,-0.24,0.20,-0.17,
2.282,-0.41,-1.55,-3.95,-0.27,0.21,-0.16,
2.283,-0.70,-1.55,-4.50,-0.27,0.21,-0.16,
2.283,-0.70,-1.55,-4.50,-0.31,0.22,-0.15,
2.283,-0.70,-1.55,-4.50,-0.35,0.23,-0.13,
2.284,-0.70,-1.55,-4.50,-0.39,0.24,-0.12,
2.284,-0.70,-1.55,-4.50,-0.43,0.25,-0.09,
2.284,-0.70,-1.55,-4.50,-0.47,0.25,-0.06,
2.285,-1.55,-1.84,-4.66,-0.47,0.25,-0.06,
2.285,-1.55,-1.84,-4.66,-0.50,0.26,-0.02,
2.285,-1.55,-1.84,-4.66,-0.55,0.26,0.03,
2.286,-1.55,-1.84,-4.66,-0.59,0.27,0.09,
2.286,-1.55,-1.84,-4.66,-0.63,0.27,0.16,
2.287,-1.55,-1.84,-4.66,-0.67,0.28,0.24,
2.287,-3.16,-1.76,-4.77,-0.67,0.28,0.24,
2.287,-3.16,-1.76,-4.77,-0.71,0.28,0.33,
2.288,-3.16,-1.76,-4.77,-0.75,0.28,0.43,
2.288,-3.16,-1.76,-4.77,-0.80,0.27,0.53,
2.288,-3.16,-1.76,-4.77,-0.84,0.26,0.63,
2.289,-3.16,-1.76,-4.77,-0.89,0.25,0.74,
2.3,-4.65,-1.63,-4.87,-0.89,0.25,0.74,
2.301,-4.65,-1.63,-4.87,-0.93,0.23,0.85,
2.301,-4.65,-1.63,-4.87,-0.98,0.19,0.95,
2.301,-4.65,-1.63,-4.87,-1.03,0.16,1.04,
2.302,-4.65,-1.63,-4.87,-1.08,0.11,1.12,
2.302,-4.65,-1.63,-4.87,-1.11,0.07,1.19,
2.303,-3.09,-1.52,-4.43,-1.11,0.07,1.19,
2.303,-3.09,-1.52,-4.43,-1.14,0.02,1.23,
2.303,-3.09,-1.52,-4.43,-1.16,-0.02,1.26,
2.304,-3.09,-1.52,-4.43,-1.15,-0.07,1.27,
2.306,-3.09,-1.52,-4.43,-1.13,-0.11,1.26,
2.308,-3.09,-1.52,-4.43,-1.10,-0.15,1.24,
2.317,0.85,-0.94,-2.17,-1.10,-0.15,1.24,
2.317,0.85,-0.94,-2.17,-1.04,-0.19,1.20,
2.318,0.85,-0.94,-2.17,-0.98,-0.24,1.14,
2.318,0.85,-0.94,-2.17,-0.90,-0.28,1.07,
2.318,0.85,-0.94,-2.17,-0.81,-0.32,0.99,
2.319,0.85,-0.94,-2.17,-0.72,-0.36,0.90,
2.32,3.97,0.14,0.38,-0.72,-0.36,0.90,
2.32,3.97,0.14,0.38,-0.62,-0.41,0.81,
2.322,3.97,0.14,0.38,-0.52,-0.45,0.71,
2.325,3.97,0.14,0.38,-0.42,-0.49,0.61,
2.325,3.97,0.14,0.38,-0.32,-0.52,0.52,
2.334,3.97,0.14,0.38,-0.22,-0.55,0.42,
2.334,5.17,0.73,1.47,-0.22,-0.55,0.42,
2.335,5.17,0.73,1.47,-0.13,-0.57,0.32,
2.335,5.17,0.73,1.47,-0.05,-0.58,0.23,
2.335,5.17,0.73,1.47,0.03,-0.57,0.15,
2.336,5.17,0.73,1.47,0.09,-0.56,0.07,
2.338,5.17,0.73,1.47,0.15,-0.53,-0.00,
2.341,4.46,0.70,0.66,0.15,-0.53,-0.00,
2.341,4.46,0.70,0.66,0.19,-0.51,-0.07,
2.366,4.46,0.70,0.66,0.22,-0.48,-0.12,
2.367,4.46,0.70,0.66,0.25,-0.45,-0.16,
2.367,4.46,0.70,0.66,0.26,-0.42,-0.19,
2.367,4.46,0.70,0.66,0.27,-0.39,-0.22,
2.367,2.70,0.59,-1.11,0.27,-0.39,-0.22,
2.368,2.70,0.59,-1.11,0.27,-0.36,-0.24,
2.368,2.70,0.59,-1.11,0.26,-0.32,-0.26,
2.368,2.70,0.59,-1.11,0.24,-0.29,-0.26,
2.368,2.70,0.59,-1.11,0.22,-0.25,-0.27,
2.368,2.70,0.59,-1.11,0.18,-0.21,-0.27,
2.368,1.25,0.40,-2.72,0.18,-0.21,-0.27,
2.369,1.25,0.40,-2.72,0.14,-0.18,-0.27,
2.369,1.25,0.40,-2.72,0.10,-0.15,-0.27,
2.369,1.25,0.40,-2.72,0.05,-0.11,-0.27,
2.369,1.25,0.40,-2.72,-0.00,-0.07,-0.27,
2.369,1.25,0.40,-2.72,-0.05,-0.03,-0.26,
2.377,0.74,0.12,-3.87,-0.05,-0.03,-0.26,
2.377,0.74,0.12,-3.87,-0.11,0.01,-0.26,
2.377,0.74,0.12,-3.87,-0.16,0.06,-0.25,
2.377,0.74,0.12,-3.87,-0.21,0.10,-0.25,
2.378,0.74,0.12,-3.87,-0.26,0.14,-0.24,
2.378,0.74,0.12,-3.87,-0.31,0.18,-0.23,
2.391,0.52,-0.05,-4.32,-0.31,0.18,-0.23,
2.391,0.52,-0.05,-4.32,-0.35,0.22,-0.23,
2.391,0.52,-0.05,-4.32,-0.39,0.25,-0.22,
2.391,0.52,-0.05,-4.32,-0.43,0.28,-0.21,
2.392,0.52,-0.05,-4.32,-0.47,0.30,-0.21,
2.409,0.52,-0.05,-4.32,-0.51,0.32,-0.20,
2.41,0.51,0.11,-4.36,-0.51,0.32,-0.20,
2.41,0.51,0.11,-4.36,-0.54,0.34,-0.20,
2.41,0.51,0.11,-4.36,-0.57,0.34,-0.21,
2.41,0.51,0.11,-4.36,-0.60,0.34,-0.21,
2.41,0.51,0.11,-4.36,-0.62,0.34,-0.22,
2.411,0.51,0.11,-4.36,-0.64,0.33,-0.22,
2.411,0.89,0.21,-3.97,-0.64,0.33,-0.22,
2.411,0.89,0.21,-3.97,-0.66,0.32,-0.23,
2.411,0.89,0.21,-3.97,-0.67,0.31,-0.24,
2.411,0.89,0.21,-3.97,-0.67,0.30,-0.26,
2.412,0.89,0.21,-3.97,-0.67,0.29,-0.27,
2.412,0.89,0.21,-3.97,-0.66,0.28,-0.29,
2.412,1.38,0.44,-3.29,-0.66,0.28,-0.29,
2.412,1.38,0.44,-3.29,-0.65,0.28,-0.31,
2.412,1.38,0.44,-3.29,-0.64,0.27,-0.32,
2.417,1.38,0.44,-3.29,-0.62,0.26,-0.34,
2.417,1.38,0.44,-3.29,-0.60,0.25,-0.36,
2.417,1.38,0.44,-3.29,-0.57,0.24,-0.39,
2.42,1.65,0.56,-2.69,-0.57,0.24,-0.39,
2.42,1.65,0.56,-2.69,-0.54,0.23,-0.41,
2.422,1.65,0.56,-2.69,-0.52,0.20,-0.43,
2.424,1.65,0.56,-2.69,-0.49,0.18,-0.45,
2.426,1.65,0.56,-2.69,-0.46,0.16,-0.47,
2.428,1.65,0.56,-2.69,-0.43,0.13,-0.50,
2.43,1.68,0.44,-2.18,-0.43,0.13,-0.50,
2.43,1.68,0.44,-2.18,-0.39,0.11,-0.52,
2.432,1.68,0.44,-2.18,-0.35,0.08,-0.54,
2.434,1.68,0.44,-2.18,-0.32,0.06,-0.56,
2.436,1.68,0.44,-2.18,-0.27,0.04,-0.57,
2.438,1.68,0.44,-2.18,-0.22,0.03,-0.57,
2.44,1.04,0.03,-1.37,-0.22,0.03,-0.57,
2.44,1.04,0.03,-1.37,-0.17,0.02,-0.57,
2.443,1.04,0.03,-1.37,-0.11,0.01,-0.56,
2.444,1.04,0.03,-1.37,-0.05,0.01,-0.54,
2.446,1.04,0.03,-1.37,0.01,0.02,-0.51,
2.448,1.04,0.03,-1.37,0.08,0.02,-0.48,
2.45,0.08,-0.09,-0.68,0.08,0.02,-0.48,
2.451,0.08,-0.09,-0.68,0.14,0.03,-0.45,
2.452,0.08,-0.09,-0.68,0.21,0.03,-0.42,
2.454,0.08,-0.09,-0.68,0.28,0.05,-0.38,
2.455,0.08,-0.09,-0.68,0.35,0.06,-0.34,
2.458,0.08,-0.09,-0.68,0.41,0.07,-0.31,
2.461,-0.28,-0.19,-0.73,0.41,0.07,-0.31,
2.462,-0.28,-0.19,-0.73,0.47,0.08,-0.27,
2.463,-0.28,-0.19,-0.73,0.53,0.09,-0.24,
2.466,-0.28,-0.19,-0.73,0.58,0.09,-0.21,
2.467,-0.28,-0.19,-0.73,0.63,0.09,-0.18,
2.468,-0.28,-0.19,-0.73,0.68,0.09,-0.16,
2.471,0.01,-0.08,-1.49,0.68,0.09,-0.16,
2.471,0.01,-0.08,-1.49,0.72,0.09,-0.14,
2.472,0.01,-0.08,-1.49,0.76,0.09,-0.12,
2.474,0.01,-0.08,-1.49,0.79,0.09,-0.10,
2.488,0.01,-0.08,-1.49,0.82,0.08,-0.09,
2.489,0.01,-0.08,-1.49,0.85,0.08,-0.08,
2.489,0.51,0.23,-2.49,0.85,0.08,-0.08,
2.489,0.51,0.23,-2.49,0.88,0.08,-0.08,
2.489,0.51,0.23,-2.49,0.90,0.08,-0.08,
2.49,0.51,0.23,-2.49,0.91,0.08,-0.08,
2.49,0.51,0.23,-2.49,0.92,0.07,-0.09,
2.49,0.51,0.23,-2.49,0.92,0.07,-0.10,
2.491,1.30,0.56,-3.64,0.92,0.07,-0.10,
2.491,1.30,0.56,-3.64,0.93,0.07,-0.11,
2.515,1.30,0.56,-3.64,0.92,0.06,-0.12,
2.515,1.30,0.56,-3.64,0.91,0.06,-0.14,
2.516,1.30,0.56,-3.64,0.90,0.05,-0.16,
2.516,1.30,0.56,-3.64,0.88,0.04,-0.19,
2.516,1.84,0.69,-4.55,0.88,0.04,-0.19,
2.517,1.84,0.69,-4.55,0.86,0.03,-0.21,
2.517,1.84,0.69,-4.55,0.83,0.02,-0.24,
2.517,1.84,0.69,-4.55,0.80,0.01,-0.27,
2.517,1.84,0.69,-4.55,0.77,-0.00,-0.30,
2.518,1.84,0.69,-4.55,0.74,-0.01,-0.33,
2.518,2.35,0.93,-5.07,0.74,-0.01,-0.33,
2.518,2.35,0.93,-5.07,0.71,-0.02,-0.36,
2.519,2.35,0.93,-5.07,0.68,-0.04,-0.39,
2.519,2.35,0.93,-5.07,0.64,-0.05,-0.41,
2.519,2.35,0.93,-5.07,0.60,-0.06,-0.44,
2.519,2.35,0.93,-5.07,0.57,-0.08,-0.47,
2.52,2.15,0.83,-4.91,0.57,-0.08,-0.47,
2.521,2.15,0.83,-4.91,0.53,-0.10,-0.49,
2.522,2.15,0.83,-4.91,0.50,-0.11,-0.51,
2.524,2.15,0.83,-4.91,0.47,-0.13,-0.52,
2.528,2.15,0.83,-4.91,0.44,-0.15,-0.54,
2.53,2.15,0.83,-4.91,0.42,-0.17,-0.55,
2.531,1.70,0.89,-4.02,0.42,-0.17,-0.55,
2.531,1.70,0.89,-4.02,0.39,-0.19,-0.56,
2.532,1.70,0.89,-4.02,0.38,-0.21,-0.57,
2.534,1.70,0.89,-4.02,0.37,-0.23,-0.57,
2.536,1.70,0.89,-4.02,0.37,-0.26,-0.57,
2.539,1.70,0.89,-4.02,0.37,-0.29,-0.56,
2.54,0.98,0.92,-2.35,0.37,-0.29,-0.56,
2.541,0.98,0.92,-2.35,0.38,-0.32,-0.55,
2.544,0.98,0.92,-2.35,0.39,-0.35,-0.54,
2.545,0.98,0.92,-2.35,0.40,-0.38,-0.52,
2.546,0.98,0.92,-2.35,0.42,-0.41,-0.51,
2.549,0.98,0.92,-2.35,0.44,-0.44,-0.49,
2.551,0.71,0.93,-0.61,0.44,-0.44,-0.49,
2.552,0.71,0.93,-0.61,0.47,-0.47,-0.47,
2.552,0.71,0.93,-0.61,0.50,-0.49,-0.45,
2.583,0.71,0.93,-0.61,0.54,-0.51,-0.44,
2.583,0.71,0.93,-0.61,0.57,-0.51,-0.42,
2.584,0.71,0.93,-0.61,0.61,-0.51,-0.40,
2.584,0.49,1.20,0.67,0.61,-0.51,-0.40,
2.585,0.49,1.20,0.67,0.66,-0.50,-0.38,
2.585,0.49,1.20,0.67,0.70,-0.49,-0.36,
2.585,0.49,1.20,0.67,0.73,-0.47,-0.33,
2.586,0.49,1.20,0.67,0.77,-0.44,-0.31,
2.586,0.49,1.20,0.67,0.80,-0.41,-0.28,
2.587,0.29,1.60,0.92,0.80,-0.41,-0.28,
2.587,0.29,1.60,0.92,0.82,-0.38,-0.26,
2.588,0.29,1.60,0.92,0.85,-0.35,-0.23,
2.588,0.29,1.60,0.92,0.86,-0.31,-0.20,
2.588,0.29,1.60,0.92,0.86,-0.28,-0.18,
2.589,0.29,1.60,0.92,0.86,-0.25,-0.16,
2.589,0.19,1.99,0.05,0.86,-0.25,-0.16,
2.59,0.19,1.99,0.05,0.85,-0.22,-0.14,
2.59,0.19,1.99,0.05,0.84,-0.19,-0.12,
2.591,0.19,1.99,0.05,0.82,-0.15,-0.11,
2.591,0.19,1.99,0.05,0.80,-0.12,-0.10,
2.591,0.19,1.99,0.05,0.76,-0.09,-0.09,
2.592,0.12,2.45,-1.12,0.76,-0.09,-0.09,
2.592,0.12,2.45,-1.12,0.73,-0.06,-0.08,
2.602,0.12,2.45,-1.12,0.69,-0.04,-0.07,
2.603,0.12,2.45,-1.12,0.65,-0.02,-0.06,
2.603,0.12,2.45,-1.12,0.60,-0.00,-0.04,
2.604,0.12,2.45,-1.12,0.55,0.01,-0.03,
2.604,-0.41,2.87,-2.16,0.55,0.01,-0.03,
2.605,-0.41,2.87,-2.16,0.46,0.02,-0.01,
2.605,-0.41,2.87,-2.16,0.43,0.01,0.00,
2.605,-0.41,2.87,-2.16,0.36,-0.00,0.01,
2.607,-0.41,2.87,-2.16,0.28,-0.03,0.03,
2.609,-0.41,2.87,-2.16,0.20,-0.05,0.04,
2.618,-0.59,3.29,-2.98,0.20,-0.05,0.04,
2.619,-0.59,3.29,-2.98,0.11,-0.09,0.04,
2.622,-0.59,3.29,-2.98,0.03,-0.14,0.05,
2.623,-0.59,3.29,-2.98,-0.06,-0.19,0.05,
2.624,-0.59,3.29,-2.98,-0.14,-0.24,0.05,
2.624,-0.59,3.29,-2.98,-0.23,-0.30,0.06,
2.624,-0.62,3.36,-2.68,-0.23,-0.30,0.06,
2.625,-0.62,3.36,-2.68,-0.32,-0.36,0.06,
2.625,-0.62,3.36,-2.68,-0.40,-0.41,0.07,
2.625,-0.62,3.36,-2.68,-0.48,-0.47,0.07,
2.636,-0.62,3.36,-2.68,-0.55,-0.53,0.08,
2.637,-0.62,3.36,-2.68,-0.62,-0.57,0.10,
2.637,-0.97,3.42,-1.11,-0.62,-0.57,0.10,
2.638,-0.97,3.42,-1.11,-0.68,-0.62,0.12,
2.638,-0.97,3.42,-1.11,-0.75,-0.65,0.14,
2.638,-0.97,3.42,-1.11,-0.80,-0.69,0.17,
2.639,-0.97,3.42,-1.11,-0.86,-0.71,0.20,
2.639,-0.97,3.42,-1.11,-0.91,-0.73,0.24,
2.657,-1.15,3.00,0.96,-0.91,-0.73,0.24,
2.658,-1.15,3.00,0.96,-0.96,-0.75,0.28,
2.658,-1.15,3.00,0.96,-1.02,-0.75,0.32,
2.658,-1.15,3.00,0.96,-1.07,-0.75,0.35,
2.659,-1.15,3.00,0.96,-1.12,-0.75,0.39,
2.659,-1.15,3.00,0.96,-1.17,-0.73,0.43,
2.659,-1.04,2.55,2.90,-1.17,-0.73,0.43,
2.659,-1.04,2.55,2.90,-1.21,-0.72,0.47,
2.659,-1.04,2.55,2.90,-1.26,-0.70,0.50,
2.66,-1.04,2.55,2.90,-1.30,-0.67,0.54,
2.66,-1.04,2.55,2.90,-1.33,-0.63,0.58,
2.66,-1.04,2.55,2.90,-1.36,-0.59,0.61,
2.66,-0.71,2.10,5.10,-1.36,-0.59,0.61,
2.661,-0.71,2.10,5.10,-1.39,-0.54,0.64,
2.662,-0.71,2.10,5.10,-1.41,-0.48,0.66,
2.665,-0.71,2.10,5.10,-1.43,-0.41,0.69,
2.667,-0.71,2.10,5.10,-1.44,-0.34,0.71,
2.669,-0.71,2.10,5.10,-1.44,-0.25,0.72,
2.672,-0.19,1.22,6.95,-1.44,-0.25,0.72,
2.672,-0.19,1.22,6.95,-1.45,-0.16,0.74,
2.673,-0.19,1.22,6.95,-1.45,-0.07,0.75,
2.676,-0.19,1.22,6.95,-1.45,0.02,0.76,
2.676,-0.19,1.22,6.95,-1.44,0.11,0.76,
2.679,-0.19,1.22,6.95,-1.43,0.20,0.77,
2.68,0.11,0.31,8.09,-1.43,0.20,0.77,
2.681,0.11,0.31,8.09,-1.42,0.29,0.77,
2.682,0.11,0.31,8.09,-1.41,0.36,0.77,
2.684,0.11,0.31,8.09,-1.40,0.44,0.77,
2.686,0.11,0.31,8.09,-1.38,0.50,0.77,
2.688,0.11,0.31,8.09,-1.36,0.55,0.77,
2.692,-0.29,-0.37,8.73,-1.36,0.55,0.77,
2.693,-0.29,-0.37,8.73,-1.33,0.60,0.78,
2.693,-0.29,-0.37,8.73,-1.30,0.63,0.79,
2.696,-0.29,-0.37,8.73,-1.27,0.66,0.81,
2.697,-0.29,-0.37,8.73,-1.24,0.67,0.83,
2.698,-0.29,-0.37,8.73,-1.21,0.68,0.86,
2.701,-1.53,-0.64,8.92,-1.21,0.68,0.86,
2.701,-1.53,-0.64,8.92,-1.16,0.67,0.90,
2.702,-1.53,-0.64,8.92,-1.12,0.66,0.93,
2.704,-1.53,-0.64,8.92,-1.08,0.64,0.98,
2.709,-1.53,-0.64,8.92,-1.03,0.60,1.03,
2.711,-1.53,-0.64,8.92,-0.98,0.56,1.08,
2.712,-2.54,-0.77,8.69,-0.98,0.56,1.08,
2.713,-2.54,-0.77,8.69,-0.92,0.52,1.12,
2.713,-2.54,-0.77,8.69,-0.87,0.46,1.17,
2.715,-2.54,-0.77,8.69,-0.81,0.41,1.22,
2.716,-2.54,-0.77,8.69,-0.75,0.35,1.27,
2.718,-2.54,-0.77,8.69,-0.69,0.29,1.31,
2.72,-2.53,-0.57,8.03,-0.69,0.29,1.31,
2.739,-2.53,-0.57,8.03,-0.62,0.23,1.35,
2.739,-2.53,-0.57,8.03,-0.56,0.18,1.39,
2.739,-2.53,-0.57,8.03,-0.44,0.05,1.46,
2.739,-2.53,-0.57,8.03,-0.44,0.05,1.46,
2.74,-2.53,-0.57,8.03,-0.39,-0.01,1.49,
2.74,-1.74,-0.42,6.96,-0.39,-0.01,1.49,
2.74,-1.74,-0.42,6.96,-0.33,-0.07,1.51,
2.74,-1.74,-0.42,6.96,-0.28,-0.14,1.53,
2.741,-1.74,-0.42,6.96,-0.24,-0.20,1.54,
2.741,-1.74,-0.42,6.96,-0.20,-0.27,1.55,
2.741,-1.74,-0.42,6.96,-0.17,-0.33,1.55,
2.741,-0.75,-0.25,5.45,-0.17,-0.33,1.55,
2.741,-0.75,-0.25,5.45,-0.15,-0.40,1.55,
2.745,-0.75,-0.25,5.45,-0.14,-0.46,1.55,
2.745,-0.75,-0.25,5.45,-0.13,-0.51,1.55,
2.746,-0.75,-0.25,5.45,-0.13,-0.56,1.54,
2.748,-0.75,-0.25,5.45,-0.13,-0.61,1.52,
2.75,0.18,-0.44,4.24,-0.13,-0.61,1.52,
2.75,0.18,-0.44,4.24,-0.14,-0.64,1.51,
2.752,0.18,-0.44,4.24,-0.15,-0.66,1.49,
2.754,0.18,-0.44,4.24,-0.16,-0.67,1.47,
2.755,0.18,-0.44,4.24,-0.17,-0.67,1.44,
2.76,0.18,-0.44,4.24,-0.18,-0.66,1.42,
2.761,0.91,-0.75,4.30,-0.18,-0.66,1.42,
2.761,0.91,-0.75,4.30,-0.18,-0.63,1.39,
2.764,0.91,-0.75,4.30,-0.18,-0.59,1.36,
2.764,0.91,-0.75,4.30,-0.17,-0.53,1.33,
2.766,0.91,-0.75,4.30,-0.16,-0.47,1.31,
2.767,0.91,-0.75,4.30,-0.14,-0.39,1.29,
2.77,0.97,-1.10,5.47,-0.14,-0.39,1.29,
2.77,0.97,-1.10,5.47,-0.11,-0.31,1.27,
2.771,0.97,-1.10,5.47,-0.08,-0.23,1.26,
2.778,0.97,-1.10,5.47,-0.04,-0.13,1.24,
2.778,0.97,-1.10,5.47,-0.00,-0.04,1.22,
2.778,0.97,-1.10,5.47,0.04,0.04,1.20,
2.781,0.67,-1.41,6.34,0.04,0.04,1.20,
2.781,0.67,-1.41,6.34,0.09,0.13,1.19,
2.781,0.67,-1.41,6.34,0.14,0.21,1.17,
2.784,0.67,-1.41,6.34,0.19,0.30,1.15,
2.786,0.67,-1.41,6.34,0.24,0.37,1.13,
2.789,0.67,-1.41,6.34,0.29,0.44,1.11,
2.805,0.27,-1.59,6.10,0.29,0.44,1.11,
2.805,0.27,-1.59,6.10,0.34,0.51,1.09,
2.805,0.27,-1.59,6.10,0.38,0.57,1.07,
2.805,0.27,-1.59,6.10,0.43,0.62,1.06,
2.806,0.27,-1.59,6.10,0.47,0.66,1.04,
2.806,0.27,-1.59,6.10,0.50,0.70,1.02,
2.806,-0.33,-1.54,4.75,0.50,0.70,1.02,
2.806,-0.33,-1.54,4.75,0.54,0.73,1.00,
2.806,-0.33,-1.54,4.75,0.57,0.75,0.98,
2.806,-0.33,-1.54,4.75,0.59,0.76,0.97,
2.806,-0.33,-1.54,4.75,0.61,0.76,0.95,
2.812,-0.33,-1.54,4.75,0.63,0.76,0.93,
2.812,-1.02,-1.33,3.23,0.63,0.76,0.93,
2.813,-1.02,-1.33,3.23,0.64,0.75,0.91,
2.813,-1.02,-1.33,3.23,0.65,0.73,0.90,
2.814,-1.02,-1.33,3.23,0.65,0.71,0.88,
2.816,-1.02,-1.33,3.23,0.65,0.68,0.86,
2.818,-1.02,-1.33,3.23,0.65,0.64,0.85,
2.82,-1.56,-1.13,1.90,0.65,0.64,0.85,
2.821,-1.56,-1.13,1.90,0.64,0.61,0.83,
2.822,-1.56,-1.13,1.90,0.63,0.56,0.81,
2.825,-1.56,-1.13,1.90,0.62,0.52,0.80,
2.828,-1.56,-1.13,1.90,0.60,0.48,0.79,
2.829,-1.56,-1.13,1.90,0.58,0.43,0.77,
2.831,-2.11,-1.05,0.99,0.58,0.43,0.77,
2.831,-2.11,-1.05,0.99,0.56,0.38,0.76,
2.832,-2.11,-1.05,0.99,0.54,0.33,0.76,
2.834,-2.11,-1.05,0.99,0.52,0.28,0.75,
2.836,-2.11,-1.05,0.99,0.50,0.23,0.75,
2.838,-2.11,-1.05,0.99,0.48,0.18,0.75,
2.841,-2.43,-1.04,0.77,0.48,0.18,0.75,
2.842,-2.43,-1.04,0.77,0.46,0.13,0.75,
2.842,-2.43,-1.04,0.77,0.44,0.09,0.76,
2.844,-2.43,-1.04,0.77,0.43,0.06,0.76,
2.846,-2.43,-1.04,0.77,0.42,0.02,0.76,
2.848,-2.43,-1.04,0.77,0.41,-0.01,0.77,
2.851,-2.50,-1.13,1.31,0.41,-0.01,0.77,
2.852,-2.50,-1.13,1.31,0.41,-0.03,0.77,
2.852,-2.50,-1.13,1.31,0.42,-0.06,0.78,
2.854,-2.50,-1.13,1.31,0.42,-0.08,0.78,
2.856,-2.50,-1.13,1.31,0.43,-0.11,0.79,
2.859,-2.50,-1.13,1.31,0.45,-0.13,0.79,
2.862,-2.09,-1.12,2.15,0.45,-0.13,0.79,
2.862,-2.09,-1.12,2.15,0.47,-0.15,0.79,
2.863,-2.09,-1.12,2.15,0.49,-0.17,0.79,
2.864,-2.09,-1.12,2.15,0.51,-0.18,0.79,
2.866,-2.09,-1.12,2.15,0.54,-0.20,0.79,
2.868,-2.09,-1.12,2.15,0.57,-0.21,0.79,
2.872,-1.61,-1.18,2.78,0.57,-0.21,0.79,
2.873,-1.61,-1.18,2.78,0.60,-0.22,0.79,
2.873,-1.61,-1.18,2.78,0.63,-0.23,0.79,
2.901,-1.61,-1.18,2.78,0.67,-0.23,0.79,
2.903,-1.61,-1.18,2.78,0.70,-0.24,0.78,
2.904,-1.61,-1.18,2.78,0.75,-0.25,0.76,
2.905,-1.61,-1.18,2.78,0.79,-0.25,0.75,
2.906,-1.06,-1.11,3.04,0.79,-0.25,0.75,
2.907,-1.06,-1.11,3.04,0.82,-0.25,0.74,
2.908,-1.06,-1.11,3.04,0.85,-0.25,0.73,
2.909,-1.06,-1.11,3.04,0.87,-0.24,0.72,
2.935,-1.06,-1.11,3.04,0.90,-0.24,0.70,
2.936,-0.58,-1.05,2.83,0.90,-0.24,0.70,
2.936,-0.58,-1.05,2.83,0.93,-0.23,0.68,
2.937,-0.58,-1.05,2.83,0.96,-0.22,0.66,
2.937,-0.58,-1.05,2.83,0.98,-0.21,0.64,
2.937,-0.58,-1.05,2.83,1.00,-0.20,0.62,
2.938,-0.58,-1.05,2.83,1.01,-0.19,0.60,
2.938,-0.41,-0.95,1.88,1.01,-0.19,0.60,
2.939,-0.41,-0.95,1.88,1.01,-0.18,0.58,
2.939,-0.41,-0.95,1.88,1.02,-0.16,0.55,
2.94,-0.41,-0.95,1.88,1.01,-0.15,0.52,
2.94,-0.41,-0.95,1.88,1.01,-0.14,0.51,
2.94,-0.41,-0.95,1.88,1.00,-0.12,0.49,
2.941,-0.34,-0.90,0.64,1.00,-0.12,0.49,
2.941,-0.34,-0.90,0.64,0.98,-0.11,0.47,
2.942,-0.34,-0.90,0.64,0.95,-0.08,0.43,
2.942,-0.34,-0.90,0.64,0.93,-0.06,0.41,
2.943,-0.34,-0.90,0.64,0.91,-0.05,0.40,
2.943,-0.34,-0.90,0.64,0.88,-0.03,0.37,
2.943,-0.39,-0.82,-0.41,0.88,-0.03,0.37,
2.944,-0.39,-0.82,-0.41,0.85,-0.02,0.35,
2.944,-0.39,-0.82,-0.41,0.82,0.00,0.32,
2.945,-0.39,-0.82,-0.41,0.77,0.03,0.30,
2.945,-0.39,-0.82,-0.41,0.75,0.04,0.29,
2.945,-0.39,-0.82,-0.41,0.71,0.05,0.27,
2.946,-0.63,-0.79,-1.13,0.71,0.05,0.27,
2.946,-0.63,-0.79,-1.13,0.66,0.08,0.24,
2.947,-0.63,-0.79,-1.13,0.64,0.09,0.23,
2.947,-0.63,-0.79,-1.13,0.58,0.11,0.21,
2.947,-0.63,-0.79,-1.13,0.56,0.12,0.20,
2.947,-0.63,-0.79,-1.13,0.52,0.14,0.18,
2.948,-0.81,-0.82,-1.57,0.52,0.14,0.18,
2.948,-0.81,-0.82,-1.57,0.46,0.17,0.16,
2.948,-0.81,-0.82,-1.57,0.44,0.18,0.16,
2.949,-0.81,-0.82,-1.57,0.40,0.20,0.14,
2.949,-0.81,-0.82,-1.57,0.36,0.23,0.14,
2.949,-0.81,-0.82,-1.57,0.32,0.25,0.13,
2.959,-1.03,-0.92,-1.74,0.32,0.25,0.13,
2.96,-1.03,-0.92,-1.74,0.27,0.28,0.11,
2.96,-1.03,-0.92,-1.74,0.23,0.30,0.10,
2.96,-1.03,-0.92,-1.74,0.20,0.32,0.09,
2.96,-1.03,-0.92,-1.74,0.19,0.33,0.09,
2.961,-1.03,-0.92,-1.74,0.16,0.35,0.08,
2.961,-1.11,-0.94,-1.67,0.16,0.35,0.08,
2.961,-1.11,-0.94,-1.67,0.12,0.38,0.07,
2.962,-1.11,-0.94,-1.67,0.10,0.39,0.06,
2.966,-1.11,-0.94,-1.67,0.07,0.42,0.05,
2.967,-1.11,-0.94,-1.67,0.06,0.44,0.05,
2.97,-1.11,-0.94,-1.67,0.04,0.46,0.04,
2.971,-1.18,-1.03,-1.54,0.04,0.46,0.04,
2.971,-1.18,-1.03,-1.54,0.01,0.49,0.04,
2.974,-1.18,-1.03,-1.54,0.00,0.50,0.04,
2.975,-1.18,-1.03,-1.54,-0.02,0.53,0.03,
2.976,-1.18,-1.03,-1.54,-0.03,0.54,0.02,
2.979,-1.18,-1.03,-1.54,-0.04,0.56,0.02,
2.98,-1.13,-1.06,-1.53,-0.04,0.56,0.02,
2.98,-1.13,-1.06,-1.53,-0.05,0.58,0.01,
2.982,-1.13,-1.06,-1.53,-0.07,0.59,0.01,
2.986,-1.13,-1.06,-1.53,-0.08,0.61,0.00,
2.987,-1.13,-1.06,-1.53,-0.08,0.62,-0.00,
2.988,-1.13,-1.06,-1.53,-0.09,0.63,-0.01,
2.992,-1.11,-1.09,-1.61,-0.09,0.63,-0.01,
2.992,-1.11,-1.09,-1.61,-0.10,0.65,-0.02,
2.994,-1.11,-1.09,-1.61,-0.11,0.66,-0.03,
2.995,-1.11,-1.09,-1.61,-0.11,0.67,-0.03,
2.996,-1.11,-1.09,-1.61,-0.12,0.69,-0.04,
3.001,-1.11,-1.09,-1.61,-0.12,0.70,-0.05,
3.001,-0.89,-1.04,-1.68,-0.12,0.70,-0.05,
3.002,-0.89,-1.04,-1.68,-0.13,0.71,-0.06,
3.002,-0.89,-1.04,-1.68,-0.13,0.73,-0.07,
3.006,-0.89,-1.04,-1.68,-0.14,0.75,-0.08,
3.006,-0.89,-1.04,-1.68,-0.14,0.76,-0.09,
3.009,-0.89,-1.04,-1.68,-0.14,0.79,-0.10,
3.011,-0.81,-0.88,-1.67,-0.14,0.79,-0.10,
3.011,-0.81,-0.88,-1.67,-0.14,0.81,-0.11,
3.012,-0.81,-0.88,-1.67,-0.15,0.84,-0.11,
3.014,-0.81,-0.88,-1.67,-0.16,0.87,-0.12,
3.016,-0.81,-0.88,-1.67,-0.17,0.89,-0.13,
3.018,-0.81,-0.88,-1.67,-0.19,0.92,-0.13,
3.02,-0.88,-0.77,-1.93,-0.19,0.92,-0.13,
3.02,-0.88,-0.77,-1.93,-0.21,0.96,-0.13,
3.022,-0.88,-0.77,-1.93,-0.23,0.99,-0.14,
3.024,-0.88,-0.77,-1.93,-0.25,1.02,-0.14,
3.027,-0.88,-0.77,-1.93,-0.28,1.06,-0.14,
3.03,-0.88,-0.77,-1.93,-0.32,1.11,-0.14,
3.031,-1.16,-0.76,-2.45,-0.32,1.11,-0.14,
3.031,-1.16,-0.76,-2.45,-0.35,1.16,-0.14,
3.032,-1.16,-0.76,-2.45,-0.39,1.21,-0.13,
3.034,-1.16,-0.76,-2.45,-0.42,1.26,-0.12,
3.036,-1.16,-0.76,-2.45,-0.46,1.32,-0.11,
3.04,-1.16,-0.76,-2.45,-0.50,1.37,-0.10,
3.049,-1.64,-0.81,-2.90,-0.50,1.37,-0.10,
3.049,-1.64,-0.81,-2.90,-0.55,1.42,-0.09,
3.05,-1.64,-0.81,-2.90,-0.59,1.47,-0.07,
3.05,-1.64,-0.81,-2.90,-0.64,1.52,-0.05,
3.05,-1.64,-0.81,-2.90,-0.69,1.57,-0.03,
3.05,-1.64,-0.81,-2.90,-0.74,1.62,-0.01,
3.05,-2.30,-0.77,-3.19,-0.74,1.62,-0.01,
3.051,-2.30,-0.77,-3.19,-0.79,1.67,0.02,
3.079,-2.30,-0.77,-3.19,-0.84,1.71,0.05,
3.099,-2.30,-0.77,-3.19,-0.89,1.76,0.07,
3.099,-2.30,-0.77,-3.19,-0.93,1.80,0.10,
3.099,-2.30,-0.77,-3.19,-0.98,1.83,0.13,
3.099,-2.59,-0.90,-3.25,-0.98,1.83,0.13,
3.1,-2.59,-0.90,-3.25,-1.03,1.87,0.16,
3.1,-2.59,-0.90,-3.25,-1.08,1.90,0.19,
3.1,-2.59,-0.90,-3.25,-1.11,1.93,0.23,
3.1,-2.59,-0.90,-3.25,-1.15,1.95,0.26,
3.101,-2.59,-0.90,-3.25,-1.18,1.97,0.29,
3.101,-2.60,-1.08,-2.84,-1.18,1.97,0.29,
3.101,-2.60,-1.08,-2.84,-1.20,2.00,0.32,
3.101,-2.60,-1.08,-2.84,-1.22,2.01,0.34,
3.101,-2.60,-1.08,-2.84,-1.23,2.03,0.37,
3.101,-2.60,-1.08,-2.84,-1.23,2.04,0.39,
3.102,-2.60,-1.08,-2.84,-1.23,2.05,0.40,
3.102,-1.96,-1.09,-1.90,-1.23,2.05,0.40,
3.102,-1.96,-1.09,-1.90,-1.21,2.05,0.42,
3.102,-1.96,-1.09,-1.90,-1.19,2.04,0.43,
3.102,-1.96,-1.09,-1.90,-1.17,2.03,0.45,
3.103,-1.96,-1.09,-1.90,-1.13,2.01,0.45,
3.103,-1.96,-1.09,-1.90,-1.09,1.98,0.46,
3.103,-1.22,-1.11,-0.79,-1.09,1.98,0.46,
3.103,-1.22,-1.11,-0.79,-1.04,1.95,0.47,
3.103,-1.22,-1.11,-0.79,-0.98,1.91,0.47,
3.104,-1.22,-1.11,-0.79,-0.92,1.87,0.47,
3.104,-1.22,-1.11,-0.79,-0.86,1.82,0.47,
3.104,-1.22,-1.11,-0.79,-0.79,1.77,0.48,
3.104,-0.67,-1.02,-0.02,-0.79,1.77,0.48,
3.104,-0.67,-1.02,-0.02,-0.71,1.71,0.48,
3.105,-0.67,-1.02,-0.02,-0.64,1.65,0.48,
3.105,-0.67,-1.02,-0.02,-0.56,1.58,0.49,
3.107,-0.67,-1.02,-0.02,-0.48,1.51,0.49,
3.111,-0.67,-1.02,-0.02,-0.40,1.44,0.50,
3.112,-0.61,-1.05,0.14,-0.40,1.44,0.50,
3.112,-0.61,-1.05,0.14,-0.32,1.37,0.51,
3.113,-0.61,-1.05,0.14,-0.24,1.29,0.52,
3.116,-0.61,-1.05,0.14,-0.16,1.21,0.54,
3.117,-0.61,-1.05,0.14,-0.09,1.12,0.56,
3.12,-0.61,-1.05,0.14,-0.01,1.03,0.58,
3.12,-0.75,-1.07,-0.22,-0.01,1.03,0.58,
3.12,-0.75,-1.07,-0.22,0.06,0.95,0.60,
3.128,-0.75,-1.07,-0.22,0.14,0.86,0.62,
3.128,-0.75,-1.07,-0.22,0.21,0.76,0.64,
3.128,-0.75,-1.07,-0.22,0.27,0.67,0.66,
3.128,-0.75,-1.07,-0.22,0.34,0.58,0.68,
3.132,-0.80,-1.12,-0.99,0.34,0.58,0.68,
3.133,-0.80,-1.12,-0.99,0.39,0.49,0.70,
3.133,-0.80,-1.12,-0.99,0.44,0.40,0.72,
3.134,-0.80,-1.12,-0.99,0.49,0.32,0.75,
3.139,-0.80,-1.12,-0.99,0.54,0.23,0.76,
3.139,-0.80,-1.12,-0.99,0.57,0.15,0.78,
3.142,-0.52,-1.04,-1.98,0.57,0.15,0.78,
3.142,-0.52,-1.04,-1.98,0.60,0.08,0.80,
3.142,-0.52,-1.04,-1.98,0.63,0.01,0.82,
3.144,-0.52,-1.04,-1.98,0.66,-0.06,0.83,
3.147,-0.52,-1.04,-1.98,0.68,-0.12,0.85,
3.148,-0.52,-1.04,-1.98,0.69,-0.17,0.86,
3.15,-0.09,-0.93,-2.87,0.69,-0.17,0.86,
3.151,-0.09,-0.93,-2.87,0.71,-0.22,0.87,
3.152,-0.09,-0.93,-2.87,0.72,-0.27,0.88,
3.154,-0.09,-0.93,-2.87,0.72,-0.31,0.88,
3.157,-0.09,-0.93,-2.87,0.73,-0.36,0.89,
3.158,-0.09,-0.93,-2.87,0.73,-0.39,0.89,
3.16,0.43,-0.85,-3.48,0.73,-0.39,0.89,
3.161,0.43,-0.85,-3.48,0.73,-0.43,0.89,
3.162,0.43,-0.85,-3.48,0.73,-0.46,0.90,
3.164,0.43,-0.85,-3.48,0.72,-0.49,0.90,
3.166,0.43,-0.85,-3.48,0.72,-0.51,0.90,
3.168,0.43,-0.85,-3.48,0.70,-0.53,0.90,
3.17,0.80,-0.74,-3.88,0.70,-0.53,0.90,
3.171,0.80,-0.74,-3.88,0.69,-0.54,0.90,
3.172,0.80,-0.74,-3.88,0.68,-0.54,0.90,
3.188,0.80,-0.74,-3.88,0.66,-0.54,0.90,
3.188,0.80,-0.74,-3.88,0.65,-0.54,0.90,
3.188,0.80,-0.74,-3.88,0.63,-0.53,0.91,
3.189,1.00,-0.75,-4.02,0.63,-0.53,0.91,
3.189,1.00,-0.75,-4.02,0.61,-0.52,0.91,
3.189,1.00,-0.75,-4.02,0.59,-0.50,0.91,
3.189,1.00,-0.75,-4.02,0.57,-0.48,0.90,
3.189,1.00,-0.75,-4.02,0.54,-0.46,0.90,
3.189,1.00,-0.75,-4.02,0.52,-0.44,0.89,
3.197,1.36,-0.80,-4.04,0.52,-0.44,0.89,
3.198,1.36,-0.80,-4.04,0.50,-0.41,0.88,
3.198,1.36,-0.80,-4.04,0.47,-0.38,0.88,
3.199,1.36,-0.80,-4.04,0.45,-0.34,0.87,
3.199,1.36,-0.80,-4.04,0.42,-0.31,0.86,
3.199,1.36,-0.80,-4.04,0.40,-0.28,0.85,
3.204,1.59,-0.86,-3.78,0.40,-0.28,0.85,
3.204,1.59,-0.86,-3.78,0.38,-0.24,0.84,
3.207,1.59,-0.86,-3.78,0.36,-0.20,0.83,
3.208,1.59,-0.86,-3.78,0.35,-0.16,0.82,
3.208,1.59,-0.86,-3.78,0.33,-0.12,0.82,
3.209,1.59,-0.86,-3.78,0.32,-0.08,0.81,
3.221,1.55,-0.93,-3.19,0.32,-0.08,0.81,
3.223,1.55,-0.93,-3.19,0.31,-0.04,0.81,
3.224,1.55,-0.93,-3.19,0.31,-0.00,0.81,
3.226,1.55,-0.93,-3.19,0.31,0.04,0.81,
3.227,1.55,-0.93,-3.19,0.30,0.08,0.81,
3.229,1.55,-0.93,-3.19,0.30,0.12,0.81,
3.229,1.44,-0.97,-2.53,0.30,0.12,0.81,
3.261,1.44,-0.97,-2.53,0.31,0.21,0.82,
3.261,1.44,-0.97,-2.53,0.31,0.21,0.82,
3.262,1.44,-0.97,-2.53,0.31,0.25,0.82,
3.262,1.44,-0.97,-2.53,0.31,0.29,0.82,
3.263,1.44,-0.97,-2.53,0.32,0.33,0.83,
3.263,1.33,-1.03,-2.28,0.32,0.33,0.83,
3.263,1.33,-1.03,-2.28,0.32,0.36,0.83,
3.264,1.33,-1.03,-2.28,0.32,0.40,0.84,
3.264,1.33,-1.03,-2.28,0.32,0.43,0.84,
3.265,1.33,-1.03,-2.28,0.32,0.46,0.85,
3.265,1.33,-1.03,-2.28,0.32,0.48,0.86,
3.265,1.16,-0.98,-2.37,0.32,0.48,0.86,
3.266,1.16,-0.98,-2.37,0.32,0.50,0.86,
3.266,1.16,-0.98,-2.37,0.32,0.52,0.87,
3.267,1.16,-0.98,-2.37,0.32,0.53,0.87,
3.267,1.16,-0.98,-2.37,0.32,0.55,0.88,
3.267,1.16,-0.98,-2.37,0.32,0.56,0.88,
3.268,1.06,-0.89,-2.62,0.32,0.56,0.88,
3.268,1.06,-0.89,-2.62,0.31,0.56,0.89,
3.269,1.06,-0.89,-2.62,0.31,0.57,0.90,
3.269,1.06,-0.89,-2.62,0.30,0.57,0.90,
3.27,1.06,-0.89,-2.62,0.29,0.57,0.90,
3.27,1.06,-0.89,-2.62,0.28,0.56,0.91,
3.27,1.04,-0.78,-2.86,0.28,0.56,0.91,
3.271,1.04,-0.78,-2.86,0.27,0.56,0.91,
3.271,1.04,-0.78,-2.86,0.27,0.55,0.91,
3.271,1.04,-0.78,-2.86,0.26,0.54,0.92,
3.272,1.04,-0.78,-2.86,0.25,0.53,0.92,
3.272,1.04,-0.78,-2.86,0.24,0.52,0.92,
3.272,1.03,-0.70,-2.84,0.24,0.52,0.92,
3.272,1.03,-0.70,-2.84,0.24,0.51,0.93,
3.273,1.03,-0.70,-2.84,0.23,0.50,0.93,
3.28,1.03,-0.70,-2.84,0.22,0.49,0.94,
3.28,1.03,-0.70,-2.84,0.22,0.48,0.95,
3.28,1.03,-0.70,-2.84,0.22,0.47,0.95,
3.28,0.94,-0.68,-2.55,0.22,0.47,0.95,
3.281,0.94,-0.68,-2.55,0.21,0.45,0.96,
3.282,0.94,-0.68,-2.55,0.21,0.44,0.97,
3.283,0.94,-0.68,-2.55,0.22,0.43,0.97,
3.286,0.94,-0.68,-2.55,0.22,0.41,0.98,
3.288,0.94,-0.68,-2.55,0.22,0.40,0.99,
3.291,0.87,-0.72,-2.07,0.22,0.40,0.99,
3.292,0.87,-0.72,-2.07,0.23,0.39,1.00,
3.293,0.87,-0.72,-2.07,0.24,0.37,1.01,
3.295,0.87,-0.72,-2.07,0.25,0.36,1.03,
3.296,0.87,-0.72,-2.07,0.27,0.35,1.04,
3.299,0.87,-0.72,-2.07,0.28,0.34,1.05,
3.302,0.74,-0.68,-1.43,0.28,0.34,1.05,
3.302,0.74,-0.68,-1.43,0.30,0.33,1.06,
3.303,0.74,-0.68,-1.43,0.33,0.32,1.08,
3.304,0.74,-0.68,-1.43,0.35,0.32,1.09,
3.313,0.74,-0.68,-1.43,0.37,0.32,1.10,
3.313,0.74,-0.68,-1.43,0.40,0.32,1.11,
3.313,0.70,-0.63,-1.02,0.40,0.32,1.11,
3.313,0.70,-0.63,-1.02,0.42,0.31,1.12,
3.314,0.70,-0.63,-1.02,0.44,0.31,1.13,
3.316,0.70,-0.63,-1.02,0.46,0.31,1.14,
3.316,0.70,-0.63,-1.02,0.48,0.30,1.15,
3.346,0.70,-0.63,-1.02,0.50,0.29,1.15,
3.346,0.69,-0.59,-1.08,0.50,0.29,1.15,
3.347,0.69,-0.59,-1.08,0.52,0.29,1.16,
3.347,0.69,-0.59,-1.08,0.53,0.28,1.17,
3.347,0.69,-0.59,-1.08,0.54,0.28,1.18,
3.347,0.69,-0.59,-1.08,0.55,0.28,1.18,
3.347,0.69,-0.59,-1.08,0.56,0.28,1.19,
3.347,0.79,-0.48,-1.43,0.56,0.28,1.19,
3.348,0.79,-0.48,-1.43,0.56,0.28,1.19,
3.348,0.79,-0.48,-1.43,0.57,0.28,1.19,
3.348,0.79,-0.48,-1.43,0.57,0.28,1.20,
3.348,0.79,-0.48,-1.43,0.57,0.28,1.20,
3.348,0.79,-0.48,-1.43,0.56,0.28,1.21,
3.349,0.82,-0.32,-1.89,0.56,0.28,1.21,
3.349,0.82,-0.32,-1.89,0.56,0.27,1.21,
3.349,0.82,-0.32,-1.89,0.55,0.26,1.21,
3.349,0.82,-0.32,-1.89,0.54,0.25,1.21,
3.349,0.82,-0.32,-1.89,0.53,0.24,1.21,
3.349,0.82,-0.32,-1.89,0.51,0.23,1.21,
3.35,0.94,-0.05,-2.30,0.51,0.23,1.21,
3.351,0.94,-0.05,-2.30,0.50,0.21,1.21,
3.351,0.94,-0.05,-2.30,0.48,0.19,1.21,
3.354,0.94,-0.05,-2.30,0.46,0.17,1.20,
3.356,0.94,-0.05,-2.30,0.44,0.14,1.20,
3.358,0.94,-0.05,-2.30,0.42,0.12,1.19,
3.362,1.14,0.17,-2.56,0.42,0.12,1.19,
3.363,1.14,0.17,-2.56,0.40,0.09,1.18,
3.363,1.14,0.17,-2.56,0.38,0.06,1.17,
3.366,1.14,0.17,-2.56,0.36,0.03,1.16,
3.367,1.14,0.17,-2.56,0.34,-0.00,1.15,
3.37,1.14,0.17,-2.56,0.31,-0.04,1.15,
3.371,1.40,0.39,-2.52,0.31,-0.04,1.15,
3.371,1.40,0.39,-2.52,0.29,-0.07,1.14,
3.378,1.40,0.39,-2.52,0.27,-0.11,1.13,
3.379,1.40,0.39,-2.52,0.24,-0.15,1.12,
3.379,1.40,0.39,-2.52,0.22,-0.19,1.11,
3.379,1.40,0.39,-2.52,0.20,-0.22,1.09,
3.38,1.57,0.49,-2.31,0.20,-0.22,1.09,
3.381,1.57,0.49,-2.31,0.17,-0.26,1.08,
3.382,1.57,0.49,-2.31,0.15,-0.29,1.07,
3.385,1.57,0.49,-2.31,0.13,-0.32,1.06,
3.391,1.57,0.49,-2.31,0.11,-0.35,1.04,
3.409,1.57,0.49,-2.31,0.09,-0.38,1.03,
3.409,1.82,0.50,-1.76,0.09,-0.38,1.03,
3.409,1.82,0.50,-1.76,0.07,-0.40,1.02,
3.409,1.82,0.50,-1.76,0.05,-0.42,1.00,
3.41,1.82,0.50,-1.76,0.03,-0.44,0.99,
3.41,1.82,0.50,-1.76,0.02,-0.44,0.97,
3.41,1.82,0.50,-1.76,0.01,-0.44,0.96,
3.41,1.88,0.39,-0.93,0.01,-0.44,0.96,
3.41,1.88,0.39,-0.93,-0.00,-0.44,0.95,
3.411,1.88,0.39,-0.93,-0.02,-0.43,0.94,
3.411,1.88,0.39,-0.93,-0.02,-0.42,0.93,
3.411,1.88,0.39,-0.93,-0.03,-0.40,0.91,
3.411,1.88,0.39,-0.93,-0.04,-0.37,0.91,
3.411,1.96,0.30,-0.13,-0.04,-0.37,0.91,
3.412,1.96,0.30,-0.13,-0.04,-0.35,0.90,
3.412,1.96,0.30,-0.13,-0.05,-0.32,0.89,
3.414,1.96,0.30,-0.13,-0.05,-0.29,0.88,
3.418,1.96,0.30,-0.13,-0.06,-0.26,0.87,
3.418,1.96,0.30,-0.13,-0.06,-0.23,0.86,
3.422,1.87,0.27,0.38,-0.06,-0.23,0.86,
3.422,1.87,0.27,0.38,-0.06,-0.21,0.85,
3.422,1.87,0.27,0.38,-0.06,-0.18,0.84,
3.427,1.87,0.27,0.38,-0.06,-0.15,0.83,
3.427,1.87,0.27,0.38,-0.07,-0.13,0.82,
3.43,1.87,0.27,0.38,-0.07,-0.10,0.81,
3.431,1.82,0.29,0.62,-0.07,-0.10,0.81,
3.431,1.82,0.29,0.62,-0.08,-0.08,0.80,
3.432,1.82,0.29,0.62,-0.08,-0.07,0.79,
3.437,1.82,0.29,0.62,-0.09,-0.05,0.78,
3.438,1.82,0.29,0.62,-0.09,-0.04,0.77,
3.438,1.82,0.29,0.62,-0.10,-0.04,0.76,
3.441,1.60,0.41,0.67,-0.10,-0.04,0.76,
3.441,1.60,0.41,0.67,-0.10,-0.03,0.75,
3.442,1.60,0.41,0.67,-0.11,-0.03,0.73,
3.444,1.60,0.41,0.67,-0.12,-0.04,0.72,
3.446,1.60,0.41,0.67,-0.12,-0.05,0.71,
3.448,1.60,0.41,0.67,-0.13,-0.06,0.69,
3.451,1.53,0.46,0.76,-0.13,-0.06,0.69,
3.451,1.53,0.46,0.76,-0.14,-0.07,0.68,
3.454,1.53,0.46,0.76,-0.14,-0.08,0.66,
3.455,1.53,0.46,0.76,-0.14,-0.09,0.65,
3.466,1.53,0.46,0.76,-0.14,-0.10,0.63,
3.467,1.53,0.46,0.76,-0.15,-0.12,0.62,
3.467,1.37,0.47,0.96,-0.15,-0.12,0.62,
3.467,1.37,0.47,0.96,-0.15,-0.14,0.61,
3.468,1.37,0.47,0.96,-0.15,-0.15,0.60,
3.468,1.37,0.47,0.96,-0.16,-0.17,0.58,
3.468,1.37,0.47,0.96,-0.16,-0.19,0.57,
3.469,1.37,0.47,0.96,-0.16,-0.20,0.56,
3.499,1.26,0.36,1.13,-0.16,-0.20,0.56,
3.5,1.26,0.36,1.13,-0.17,-0.21,0.55,
3.5,1.26,0.36,1.13,-0.17,-0.23,0.54,
3.501,1.26,0.36,1.13,-0.17,-0.24,0.53,
3.501,1.26,0.36,1.13,-0.18,-0.25,0.52,
3.501,1.26,0.36,1.13,-0.18,-0.26,0.51,
3.501,1.07,0.28,1.37,-0.18,-0.26,0.51,
3.502,1.07,0.28,1.37,-0.17,-0.27,0.50,
3.502,1.07,0.28,1.37,-0.17,-0.27,0.50,
3.502,1.07,0.28,1.37,-0.17,-0.28,0.49,
3.503,1.07,0.28,1.37,-0.17,-0.28,0.49,
3.503,1.07,0.28,1.37,-0.17,-0.28,0.48,
3.503,0.88,0.25,1.62,-0.17,-0.28,0.48,
3.503,0.88,0.25,1.62,-0.17,-0.28,0.48,
3.504,0.88,0.25,1.62,-0.17,-0.28,0.48,
3.504,0.88,0.25,1.62,-0.17,-0.28,0.48,
3.504,0.88,0.25,1.62,-0.18,-0.27,0.48,
3.505,0.88,0.25,1.62,-0.18,-0.27,0.48,
3.505,0.74,0.23,1.62,-0.18,-0.27,0.48,
3.505,0.74,0.23,1.62,-0.19,-0.26,0.47,
3.505,0.74,0.23,1.62,-0.20,-0.26,0.47,
3.506,0.74,0.23,1.62,-0.21,-0.26,0.47,
3.506,0.74,0.23,1.62,-0.22,-0.25,0.46,
3.51,0.74,0.23,1.62,-0.24,-0.25,0.45,
3.511,0.78,0.23,1.47,-0.24,-0.25,0.45,
3.512,0.78,0.23,1.47,-0.26,-0.24,0.45,
3.512,0.78,0.23,1.47,-0.28,-0.24,0.45,
3.514,0.78,0.23,1.47,-0.30,-0.23,0.44,
3.516,0.78,0.23,1.47,-0.32,-0.23,0.44,
3.518,0.78,0.23,1.47,-0.34,-0.22,0.43,
3.521,0.75,0.13,1.37,-0.34,-0.22,0.43,
3.521,0.75,0.13,1.37,-0.37,-0.21,0.42,
3.523,0.75,0.13,1.37,-0.39,-0.19,0.42,
3.525,0.75,0.13,1.37,-0.41,-0.18,0.41,
3.526,0.75,0.13,1.37,-0.43,-0.16,0.41,
3.528,0.75,0.13,1.37,-0.45,-0.13,0.41,
3.531,0.76,0.03,1.61,-0.45,-0.13,0.41,
3.532,0.76,0.03,1.61,-0.47,-0.11,0.40,
3.532,0.76,0.03,1.61,-0.48,-0.08,0.40,
3.534,0.76,0.03,1.61,-0.49,-0.05,0.40,
3.536,0.76,0.03,1.61,-0.50,-0.02,0.39,
3.538,0.76,0.03,1.61,-0.51,0.01,0.39,
3.541,0.69,-0.04,2.06,-0.51,0.01,0.39,
3.542,0.69,-0.04,2.06,-0.51,0.04,0.39,
3.542,0.69,-0.04,2.06,-0.51,0.07,0.39,
3.544,0.69,-0.04,2.06,-0.51,0.10,0.39,
3.546,0.69,-0.04,2.06,-0.50,0.13,0.39,
3.548,0.69,-0.04,2.06,-0.49,0.16,0.38,
3.55,0.71,-0.19,2.52,-0.49,0.16,0.38,
3.551,0.71,-0.19,2.52,-0.49,0.18,0.38,
3.552,0.71,-0.19,2.52,-0.48,0.21,0.38,
3.58,0.71,-0.19,2.52,-0.46,0.23,0.37,
3.581,0.71,-0.19,2.52,-0.45,0.25,0.37,
3.581,0.71,-0.19,2.52,-0.43,0.27,0.37,
3.582,0.67,-0.32,2.74,-0.43,0.27,0.37,
3.582,0.67,-0.32,2.74,-0.41,0.29,0.36,
3.583,0.67,-0.32,2.74,-0.39,0.30,0.36,
3.583,0.67,-0.32,2.74,-0.37,0.32,0.36,
3.584,0.67,-0.32,2.74,-0.35,0.33,0.36,
3.584,0.67,-0.32,2.74,-0.32,0.34,0.36,
3.584,0.50,-0.58,2.79,-0.32,0.34,0.36,
3.585,0.50,-0.58,2.79,-0.30,0.35,0.36,
3.585,0.50,-0.58,2.79,-0.27,0.36,0.37,
3.586,0.50,-0.58,2.79,-0.24,0.37,0.37,
3.586,0.50,-0.58,2.79,-0.21,0.37,0.38,
3.587,0.50,-0.58,2.79,-0.18,0.38,0.39,
3.587,0.09,-0.70,2.61,-0.18,0.38,0.39,
3.587,0.09,-0.70,2.61,-0.15,0.39,0.40,
3.588,0.09,-0.70,2.61,-0.13,0.40,0.41,
3.588,0.09,-0.70,2.61,-0.10,0.40,0.42,
3.589,0.09,-0.70,2.61,-0.07,0.41,0.44,
3.589,0.09,-0.70,2.61,-0.04,0.42,0.45,
3.598,-0.19,-0.85,2.22,-0.04,0.42,0.45,
3.598,-0.19,-0.85,2.22,-0.01,0.42,0.47,
3.598,-0.19,-0.85,2.22,0.02,0.42,0.48,
3.599,-0.19,-0.85,2.22,0.04,0.42,0.49,
3.599,-0.19,-0.85,2.22,0.07,0.42,0.50,
3.599,-0.19,-0.85,2.22,0.10,0.42,0.51,
3.6,-0.31,-0.91,1.67,0.10,0.42,0.51,
3.601,-0.31,-0.91,1.67,0.13,0.41,0.53,
3.602,-0.31,-0.91,1.67,0.16,0.41,0.54,
3.611,-0.31,-0.91,1.67,0.18,0.40,0.55,
3.612,-0.31,-0.91,1.67,0.21,0.39,0.57,
3.612,-0.31,-0.91,1.67,0.23,0.38,0.58,
3.612,-0.41,-0.95,1.11,0.23,0.38,0.58,
3.613,-0.41,-0.95,1.11,0.26,0.37,0.59,
3.613,-0.41,-0.95,1.11,0.27,0.35,0.60,
3.617,-0.41,-0.95,1.11,0.29,0.34,0.62,
3.618,-0.41,-0.95,1.11,0.31,0.32,0.63,
3.637,-0.41,-0.95,1.11,0.32,0.31,0.64,
3.638,-0.39,-0.80,0.41,0.32,0.31,0.64,
3.638,-0.39,-0.80,0.41,0.34,0.29,0.64,
3.639,-0.39,-0.80,0.41,0.35,0.28,0.65,
3.639,-0.39,-0.80,0.41,0.36,0.26,0.65,
3.639,-0.39,-0.80,0.41,0.36,0.25,0.65,
3.639,-0.39,-0.80,0.41,0.36,0.23,0.66,
3.64,-0.18,-0.75,-0.35,0.36,0.23,0.66,
3.64,-0.18,-0.75,-0.35,0.36,0.21,0.65,
3.64,-0.18,-0.75,-0.35,0.36,0.20,0.65,
3.64,-0.18,-0.75,-0.35,0.35,0.18,0.65,
3.64,-0.18,-0.75,-0.35,0.35,0.16,0.65,
3.644,-0.18,-0.75,-0.35,0.33,0.14,0.65,
3.644,-0.16,-0.66,-1.10,0.33,0.14,0.65,
3.644,-0.16,-0.66,-1.10,0.32,0.11,0.65,
3.645,-0.16,-0.66,-1.10,0.30,0.09,0.65,
3.645,-0.16,-0.66,-1.10,0.28,0.06,0.65,
3.646,-0.16,-0.66,-1.10,0.26,0.04,0.65,
3.648,-0.16,-0.66,-1.10,0.24,0.01,0.65,
3.651,-0.17,-0.52,-1.73,0.24,0.01,0.65,
3.651,-0.17,-0.52,-1.73,0.22,-0.02,0.64,
3.652,-0.17,-0.52,-1.73,0.19,-0.04,0.64,
3.663,-0.17,-0.52,-1.73,0.16,-0.07,0.64,
3.665,-0.17,-0.52,-1.73,0.13,-0.10,0.63,
3.666,-0.17,-0.52,-1.73,0.09,-0.13,0.62,
3.667,0.01,-0.48,-2.17,0.09,-0.13,0.62,
3.667,0.01,-0.48,-2.17,0.06,-0.16,0.62,
3.668,0.01,-0.48,-2.17,0.02,-0.20,0.61,
3.668,0.01,-0.48,-2.17,-0.02,-0.23,0.60,
3.669,0.01,-0.48,-2.17,-0.05,-0.26,0.59,
3.669,0.01,-0.48,-2.17,-0.09,-0.29,0.57,
3.671,0.21,-0.51,-2.19,-0.09,-0.29,0.57,
3.671,0.21,-0.51,-2.19,-0.12,-0.33,0.56,
3.677,0.21,-0.51,-2.19,-0.15,-0.36,0.55,
3.677,0.21,-0.51,-2.19,-0.19,-0.40,0.53,
3.677,0.21,-0.51,-2.19,-0.22,-0.43,0.52,
3.679,0.21,-0.51,-2.19,-0.25,-0.46,0.50,
3.681,0.51,-0.63,-1.70,-0.25,-0.46,0.50,
3.681,0.51,-0.63,-1.70,-0.28,-0.49,0.49,
3.682,0.51,-0.63,-1.70,-0.31,-0.52,0.47,
3.684,0.51,-0.63,-1.70,-0.34,-0.55,0.46,
3.685,0.51,-0.63,-1.70,-0.36,-0.58,0.44,
3.688,0.51,-0.63,-1.70,-0.39,-0.60,0.43,
3.692,0.64,-0.77,-0.82,-0.39,-0.60,0.43,
3.692,0.64,-0.77,-0.82,-0.41,-0.62,0.41,
3.693,0.64,-0.77,-0.82,-0.43,-0.64,0.40,
3.694,0.64,-0.77,-0.82,-0.45,-0.65,0.40,
3.697,0.64,-0.77,-0.82,-0.46,-0.66,0.39,
3.698,0.64,-0.77,-0.82,-0.47,-0.67,0.39,
3.7,0.37,-0.97,0.32,-0.47,-0.67,0.39,
3.701,0.37,-0.97,0.32,-0.47,-0.67,0.39,
3.702,0.37,-0.97,0.32,-0.47,-0.67,0.39,
3.709,0.37,-0.97,0.32,-0.47,-0.66,0.40,
3.709,0.37,-0.97,0.32,-0.47,-0.66,0.40,
3.709,0.37,-0.97,0.32,-0.46,-0.64,0.41,
3.713,0.08,-1.31,1.69,-0.46,-0.64,0.41,
3.713,0.08,-1.31,1.69,-0.44,-0.63,0.42,
3.713,0.08,-1.31,1.69,-0.42,-0.61,0.44,
3.715,0.08,-1.31,1.69,-0.40,-0.59,0.45,
3.736,0.08,-1.31,1.69,-0.37,-0.57,0.47,
3.737,0.08,-1.31,1.69,-0.34,-0.54,0.48,
3.737,-0.07,-1.52,2.85,-0.34,-0.54,0.48,
3.754,-0.07,-1.52,2.85,-0.30,-0.51,0.50,
3.755,-0.07,-1.52,2.85,-0.26,-0.49,0.51,
3.755,-0.07,-1.52,2.85,-0.17,-0.43,0.55,
3.755,-0.07,-1.52,2.85,-0.17,-0.43,0.55,
3.755,-0.07,-1.52,2.85,-0.12,-0.40,0.57,
3.755,-0.18,-1.69,3.53,-0.12,-0.40,0.57,
3.755,-0.18,-1.69,3.53,-0.07,-0.37,0.59,
3.756,-0.18,-1.69,3.53,-0.02,-0.34,0.60,
3.756,-0.18,-1.69,3.53,0.03,-0.31,0.62,
3.756,-0.18,-1.69,3.53,0.08,-0.28,0.64,
3.756,-0.18,-1.69,3.53,0.13,-0.24,0.66,
3.756,-0.14,-1.70,3.44,0.13,-0.24,0.66,
3.756,-0.14,-1.70,3.44,0.18,-0.21,0.68,
3.756,-0.14,-1.70,3.44,0.23,-0.17,0.70,
3.757,-0.14,-1.70,3.44,0.28,-0.13,0.71,
3.757,-0.14,-1.70,3.44,0.32,-0.09,0.73,
3.757,-0.14,-1.70,3.44,0.37,-0.05,0.74,
3.757,0.04,-1.67,2.68,0.37,-0.05,0.74,
3.757,0.04,-1.67,2.68,0.40,-0.01,0.76,
3.757,0.04,-1.67,2.68,0.44,0.02,0.77,
3.757,0.04,-1.67,2.68,0.47,0.06,0.78,
3.758,0.04,-1.67,2.68,0.50,0.10,0.79,
3.761,0.04,-1.67,2.68,0.52,0.13,0.80,
3.761,0.22,-1.40,1.32,0.52,0.13,0.80,
3.761,0.22,-1.40,1.32,0.54,0.17,0.81,
3.763,0.22,-1.40,1.32,0.55,0.20,0.82,
3.764,0.22,-1.40,1.32,0.56,0.23,0.82,
3.768,0.22,-1.40,1.32,0.57,0.25,0.83,
3.768,0.22,-1.40,1.32,0.57,0.28,0.83,
3.772,0.34,-1.15,-0.26,0.57,0.28,0.83,
3.772,0.34,-1.15,-0.26,0.56,0.31,0.83,
3.772,0.34,-1.15,-0.26,0.55,0.33,0.82,
3.775,0.34,-1.15,-0.26,0.54,0.35,0.82,
3.776,0.34,-1.15,-0.26,0.53,0.37,0.82,
3.778,0.34,-1.15,-0.26,0.51,0.39,0.81,
3.78,0.41,-0.91,-1.73,0.51,0.39,0.81,
3.78,0.41,-0.91,-1.73,0.49,0.40,0.80,
3.781,0.41,-0.91,-1.73,0.46,0.40,0.80,
3.784,0.41,-0.91,-1.73,0.43,0.41,0.79,
3.785,0.41,-0.91,-1.73,0.40,0.41,0.79,
3.788,0.41,-0.91,-1.73,0.37,0.41,0.78,
3.791,0.33,-0.70,-2.89,0.37,0.41,0.78,
3.791,0.33,-0.70,-2.89,0.33,0.41,0.78,
3.792,0.33,-0.70,-2.89,0.30,0.41,0.78,
3.794,0.33,-0.70,-2.89,0.26,0.40,0.77,
3.796,0.33,-0.70,-2.89,0.22,0.40,0.77,
3.798,0.33,-0.70,-2.89,0.18,0.39,0.76,
3.8,0.19,-0.62,-3.55,0.18,0.39,0.76,
3.8,0.19,-0.62,-3.55,0.14,0.39,0.76,
3.801,0.19,-0.62,-3.55,0.10,0.38,0.76,
3.804,0.19,-0.62,-3.55,0.06,0.37,0.76,
3.808,0.19,-0.62,-3.55,0.02,0.37,0.76,
3.808,0.19,-0.62,-3.55,-0.02,0.36,0.75,
3.813,0.01,-0.47,-3.72,-0.02,0.36,0.75,
3.813,0.01,-0.47,-3.72,-0.06,0.35,0.75,
3.813,0.01,-0.47,-3.72,-0.09,0.34,0.75,
3.814,0.01,-0.47,-3.72,-0.12,0.34,0.75,
3.816,0.01,-0.47,-3.72,-0.15,0.33,0.74,
3.817,0.01,-0.47,-3.72,-0.18,0.32,0.74,
3.823,-0.02,-0.43,-3.34,-0.18,0.32,0.74,
3.824,-0.02,-0.43,-3.34,-0.21,0.32,0.74,
3.824,-0.02,-0.43,-3.34,-0.23,0.31,0.73,
3.824,-0.02,-0.43,-3.34,-0.25,0.30,0.73,
3.826,-0.02,-0.43,-3.34,-0.26,0.30,0.73,
3.828,-0.02,-0.43,-3.34,-0.28,0.30,0.73,
3.83,0.01,-0.34,-2.66,-0.28,0.30,0.73,
3.83,0.01,-0.34,-2.66,-0.29,0.29,0.72,
3.831,0.01,-0.34,-2.66,-0.29,0.29,0.72,
3.834,0.01,-0.34,-2.66,-0.30,0.29,0.72,
3.835,0.01,-0.34,-2.66,-0.30,0.30,0.72,
3.838,0.01,-0.34,-2.66,-0.30,0.30,0.72,
3.84,-0.03,-0.32,-1.91,-0.30,0.30,0.72,
3.841,-0.03,-0.32,-1.91,-0.29,0.30,0.73,
3.842,-0.03,-0.32,-1.91,-0.29,0.31,0.73,
3.845,-0.03,-0.32,-1.91,-0.29,0.31,0.73,
3.846,-0.03,-0.32,-1.91,-0.28,0.32,0.73,
3.848,-0.03,-0.32,-1.91,-0.27,0.32,0.73,
3.862,-0.04,-0.34,-1.43,-0.27,0.32,0.73,
3.862,-0.04,-0.34,-1.43,-0.27,0.33,0.73,
3.862,-0.04,-0.34,-1.43,-0.26,0.33,0.73,
3.862,-0.04,-0.34,-1.43,-0.26,0.33,0.73,
3.863,-0.04,-0.34,-1.43,-0.25,0.33,0.72,
3.863,-0.04,-0.34,-1.43,-0.25,0.33,0.72,
3.863,0.00,-0.36,-1.26,-0.25,0.33,0.72,
3.863,0.00,-0.36,-1.26,-0.24,0.33,0.72,
3.863,0.00,-0.36,-1.26,-0.24,0.33,0.72,
3.864,0.00,-0.36,-1.26,-0.23,0.33,0.72,
3.866,0.00,-0.36,-1.26,-0.23,0.32,0.71,
3.868,0.00,-0.36,-1.26,-0.23,0.32,0.71,
3.886,0.10,-0.38,-1.23,-0.23,0.32,0.71,
3.886,0.10,-0.38,-1.23,-0.22,0.31,0.71,
3.886,0.10,-0.38,-1.23,-0.22,0.30,0.70,
3.887,0.10,-0.38,-1.23,-0.22,0.29,0.70,
3.887,0.10,-0.38,-1.23,-0.22,0.27,0.69,
3.887,0.10,-0.38,-1.23,-0.22,0.26,0.68,
3.887,0.18,-0.35,-1.30,-0.22,0.26,0.68,
3.887,0.18,-0.35,-1.30,-0.22,0.24,0.67,
3.887,0.18,-0.35,-1.30,-0.23,0.22,0.66,
3.887,0.18,-0.35,-1.30,-0.23,0.20,0.65,
3.887,0.18,-0.35,-1.30,-0.24,0.17,0.63,
3.898,0.18,-0.35,-1.30,-0.25,0.15,0.62,
3.898,0.24,-0.31,-1.62,-0.25,0.15,0.62,
3.898,0.24,-0.31,-1.62,-0.26,0.11,0.61,
3.898,0.24,-0.31,-1.62,-0.28,0.08,0.59,
3.899,0.24,-0.31,-1.62,-0.29,0.05,0.58,
3.899,0.24,-0.31,-1.62,-0.31,0.01,0.57,
3.899,0.24,-0.31,-1.62,-0.33,-0.02,0.56,
3.902,0.29,-0.27,-1.91,-0.33,-0.02,0.56,
3.902,0.29,-0.27,-1.91,-0.36,-0.06,0.55,
3.902,0.29,-0.27,-1.91,-0.38,-0.10,0.53,
3.905,0.29,-0.27,-1.91,-0.41,-0.13,0.52,
3.906,0.29,-0.27,-1.91,-0.43,-0.17,0.51,
3.908,0.29,-0.27,-1.91,-0.46,-0.20,0.50,
3.91,0.38,-0.23,-1.90,-0.46,-0.20,0.50,
3.91,0.38,-0.23,-1.90,-0.48,-0.23,0.50,
3.911,0.38,-0.23,-1.90,-0.50,-0.25,0.49,
3.913,0.38,-0.23,-1.90,-0.53,-0.27,0.48,
3.915,0.38,-0.23,-1.90,-0.55,-0.29,0.47,
3.917,0.38,-0.23,-1.90,-0.57,-0.30,0.47,
3.92,0.33,-0.26,-1.28,-0.57,-0.30,0.47,
3.921,0.33,-0.26,-1.28,-0.58,-0.31,0.47,
3.923,0.33,-0.26,-1.28,-0.59,-0.31,0.46,
3.926,0.33,-0.26,-1.28,-0.60,-0.30,0.47,
3.926,0.33,-0.26,-1.28,-0.60,-0.30,0.47,
3.928,0.33,-0.26,-1.28,-0.60,-0.29,0.48,
3.93,0.07,-0.36,0.06,-0.60,-0.29,0.48,
3.93,0.07,-0.36,0.06,-0.59,-0.28,0.50,
3.932,0.07,-0.36,0.06,-0.58,-0.26,0.52,
3.933,0.07,-0.36,0.06,-0.56,-0.24,0.54,
3.936,0.07,-0.36,0.06,-0.54,-0.22,0.57,
3.938,0.07,-0.36,0.06,-0.51,-0.19,0.60,
3.94,-0.29,-0.47,1.43,-0.51,-0.19,0.60,
3.94,-0.29,-0.47,1.43,-0.48,-0.16,0.62,
3.942,-0.29,-0.47,1.43,-0.45,-0.13,0.65,
3.943,-0.29,-0.47,1.43,-0.41,-0.09,0.68,
3.946,-0.29,-0.47,1.43,-0.37,-0.06,0.70,
3.947,-0.29,-0.47,1.43,-0.33,-0.02,0.73,
3.95,-0.28,-0.51,2.58,-0.33,-0.02,0.73,
3.95,-0.28,-0.51,2.58,-0.28,0.01,0.75,
3.952,-0.28,-0.51,2.58,-0.23,0.05,0.77,
3.954,-0.28,-0.51,2.58,-0.17,0.09,0.80,
3.956,-0.28,-0.51,2.58,-0.12,0.12,0.82,
3.958,-0.28,-0.51,2.58,-0.06,0.15,0.84,
3.96,0.04,-0.31,3.20,-0.06,0.15,0.84,
3.96,0.04,-0.31,3.20,-0.00,0.18,0.85,
3.962,0.04,-0.31,3.20,0.05,0.21,0.87,
3.963,0.04,-0.31,3.20,0.11,0.23,0.88,
3.965,0.04,-0.31,3.20,0.17,0.25,0.88,
3.967,0.04,-0.31,3.20,0.22,0.27,0.89,
3.971,0.50,-0.11,3.09,0.22,0.27,0.89,
3.972,0.50,-0.11,3.09,0.28,0.29,0.90,
3.972,0.50,-0.11,3.09,0.33,0.30,0.91,
3.974,0.50,-0.11,3.09,0.37,0.31,0.91,
3.978,0.50,-0.11,3.09,0.42,0.32,0.91,
3.978,0.50,-0.11,3.09,0.45,0.32,0.91,
3.98,0.72,0.21,2.29,0.45,0.32,0.91,
3.98,0.72,0.21,2.29,0.49,0.33,0.91,
3.981,0.72,0.21,2.29,0.52,0.33,0.91,
3.983,0.72,0.21,2.29,0.54,0.32,0.92,
3.986,0.72,0.21,2.29,0.56,0.32,0.92,
3.988,0.72,0.21,2.29,0.58,0.31,0.92,
3.991,0.77,0.62,1.19,0.58,0.31,0.92,
3.991,0.77,0.62,1.19,0.59,0.31,0.92,
3.992,0.77,0.62,1.19,0.59,0.30,0.92,
3.993,0.77,0.62,1.19,0.60,0.29,0.92,
3.995,0.77,0.62,1.19,0.60,0.28,0.91,
3.998,0.77,0.62,1.19,0.59,0.27,0.91,
4.001,0.90,0.86,0.11,0.59,0.27,0.91,
4.001,0.90,0.86,0.11,0.58,0.26,0.90,
4.005,0.90,0.86,0.11,0.57,0.25,0.89,
4.005,0.90,0.86,0.11,0.56,0.24,0.89,
4.006,0.90,0.86,0.11,0.55,0.23,0.88,
4.008,0.90,0.86,0.11,0.53,0.23,0.87,
4.01,0.98,1.13,-0.66,0.53,0.23,0.87,
4.01,0.98,1.13,-0.66,0.52,0.23,0.86,
4.012,0.98,1.13,-0.66,0.50,0.23,0.85,
4.014,0.98,1.13,-0.66,0.47,0.23,0.85,
4.016,0.98,1.13,-0.66,0.45,0.23,0.84,
4.018,0.98,1.13,-0.66,0.42,0.24,0.83,
4.02,0.90,1.30,-1.09,0.42,0.24,0.83,
4.021,0.90,1.30,-1.09,0.40,0.24,0.83,
4.023,0.90,1.30,-1.09,0.37,0.24,0.82,
4.024,0.90,1.30,-1.09,0.34,0.24,0.81,
4.025,0.90,1.30,-1.09,0.31,0.24,0.81,
4.028,0.90,1.30,-1.09,0.28,0.25,0.80,
4.03,0.77,1.41,-1.09,0.28,0.25,0.80,
4.03,0.77,1.41,-1.09,0.25,0.26,0.80,
4.032,0.77,1.41,-1.09,0.22,0.27,0.79,
4.034,0.77,1.41,-1.09,0.20,0.29,0.79,
4.038,0.77,1.41,-1.09,0.17,0.31,0.79,
4.039,0.77,1.41,-1.09,0.15,0.33,0.79,
4.04,0.56,1.47,-0.65,0.15,0.33,0.79,
4.04,0.56,1.47,-0.65,0.12,0.35,0.79,
4.042,0.56,1.47,-0.65,0.10,0.38,0.79,
4.043,0.56,1.47,-0.65,0.08,0.40,0.79,
4.045,0.56,1.47,-0.65,0.06,0.43,0.80,
4.047,0.56,1.47,-0.65,0.05,0.45,0.81,
4.05,0.23,1.56,0.02,0.05,0.45,0.81,
4.05,0.23,1.56,0.02,0.03,0.48,0.81,
4.052,0.23,1.56,0.02,0.02,0.51,0.82,
4.071,0.23,1.56,0.02,0.01,0.54,0.83,
4.071,0.23,1.56,0.02,-0.00,0.57,0.84,
4.071,0.23,1.56,0.02,-0.01,0.60,0.86,
4.071,-0.14,1.59,0.82,-0.01,0.60,0.86,
4.072,-0.14,1.59,0.82,-0.02,0.63,0.86,
4.072,-0.14,1.59,0.82,-0.02,0.66,0.87,
4.072,-0.14,1.59,0.82,-0.02,0.68,0.88,
4.072,-0.14,1.59,0.82,-0.03,0.71,0.89,
4.073,-0.14,1.59,0.82,-0.02,0.73,0.90,
4.073,-0.32,1.66,1.51,-0.02,0.73,0.90,
4.073,-0.32,1.66,1.51,-0.02,0.75,0.90,
4.073,-0.32,1.66,1.51,-0.03,0.76,0.91,
4.074,-0.32,1.66,1.51,-0.02,0.76,0.91,
4.078,-0.32,1.66,1.51,-0.02,0.77,0.92,
4.078,-0.32,1.66,1.51,-0.02,0.77,0.92,
4.08,-0.49,1.71,2.03,-0.02,0.77,0.92,
4.08,-0.49,1.71,2.03,-0.02,0.78,0.93,
4.082,-0.49,1.71,2.03,-0.02,0.77,0.93,
4.083,-0.49,1.71,2.03,-0.01,0.77,0.93,
4.086,-0.49,1.71,2.03,-0.01,0.76,0.94,
4.088,-0.49,1.71,2.03,-0.01,0.76,0.95,
4.09,-0.80,1.65,2.42,-0.01,0.76,0.95,
4.091,-0.80,1.65,2.42,-0.01,0.76,0.96,
4.094,-0.80,1.65,2.42,-0.02,0.75,0.97,
4.094,-0.80,1.65,2.42,-0.02,0.75,0.98,
4.097,-0.80,1.65,2.42,-0.03,0.75,1.00,
4.097,-0.80,1.65,2.42,-0.04,0.75,1.01,
4.101,-1.18,1.64,2.58,-0.04,0.75,1.01,
4.102,-1.18,1.64,2.58,-0.05,0.76,1.03,
4.107,-1.18,1.64,2.58,-0.06,0.75,1.04,
4.107,-1.18,1.64,2.58,-0.08,0.75,1.06,
4.107,-1.18,1.64,2.58,-0.09,0.74,1.08,
4.108,-1.18,1.64,2.58,-0.11,0.73,1.10,
4.114,-1.36,1.73,2.68,-0.11,0.73,1.10,
4.114,-1.36,1.73,2.68,-0.13,0.72,1.12,
4.115,-1.36,1.73,2.68,-0.16,0.71,1.13,
4.115,-1.36,1.73,2.68,-0.18,0.69,1.14,
4.117,-1.36,1.73,2.68,-0.20,0.67,1.15,
4.12,-1.36,1.73,2.68,-0.22,0.65,1.15,
4.12,-0.75,1.61,2.97,-0.22,0.65,1.15,
4.121,-0.75,1.61,2.97,-0.25,0.63,1.16,
4.122,-0.75,1.61,2.97,-0.27,0.61,1.16,
4.125,-0.75,1.61,2.97,-0.29,0.59,1.15,
4.125,-0.75,1.61,2.97,-0.31,0.58,1.14,
4.127,-0.75,1.61,2.97,-0.32,0.56,1.13,
4.13,0.19,1.24,3.79,-0.32,0.56,1.13,
4.13,0.19,1.24,3.79,-0.33,0.55,1.11,
4.132,0.19,1.24,3.79,-0.33,0.53,1.09,
4.135,0.19,1.24,3.79,-0.34,0.52,1.07,
4.136,0.19,1.24,3.79,-0.34,0.51,1.04,
4.139,0.19,1.24,3.79,-0.35,0.49,1.00,
4.14,1.20,0.97,4.67,-0.35,0.49,1.00,
4.14,1.20,0.97,4.67,-0.36,0.48,0.96,
4.142,1.20,0.97,4.67,-0.37,0.47,0.91,
4.143,1.20,0.97,4.67,-0.39,0.46,0.86,
4.145,1.20,0.97,4.67,-0.41,0.45,0.80,
4.148,1.20,0.97,4.67,-0.43,0.44,0.74,
4.15,2.15,0.80,5.11,-0.43,0.44,0.74,
4.151,2.15,0.80,5.11,-0.46,0.44,0.67,
4.154,2.15,0.80,5.11,-0.48,0.44,0.61,
4.155,2.15,0.80,5.11,-0.51,0.44,0.54,
4.159,2.15,0.80,5.11,-0.54,0.45,0.48,
4.159,2.15,0.80,5.11,-0.57,0.47,0.42,
4.162,2.11,0.56,5.49,-0.57,0.47,0.42,
4.163,2.11,0.56,5.49,-0.60,0.50,0.37,
4.163,2.11,0.56,5.49,-0.63,0.53,0.32,
4.164,2.11,0.56,5.49,-0.67,0.56,0.28,
4.166,2.11,0.56,5.49,-0.70,0.61,0.24,
4.168,2.11,0.56,5.49,-0.73,0.65,0.22,
4.172,1.19,-0.14,6.19,-0.73,0.65,0.22,
4.173,1.19,-0.14,6.19,-0.75,0.70,0.19,
4.173,1.19,-0.14,6.19,-0.77,0.76,0.18,
4.174,1.19,-0.14,6.19,-0.78,0.83,0.17,
4.176,1.19,-0.14,6.19,-0.79,0.90,0.17,
4.178,1.19,-0.14,6.19,-0.79,0.98,0.18,
4.18,-0.03,-0.98,7.17,-0.79,0.98,0.18,
4.181,-0.03,-0.98,7.17,-0.78,1.07,0.19,
4.182,-0.03,-0.98,7.17,-0.77,1.16,0.20,
4.184,-0.03,-0.98,7.17,-0.75,1.25,0.22,
4.188,-0.03,-0.98,7.17,-0.72,1.34,0.25,
4.189,-0.03,-0.98,7.17,-0.69,1.43,0.27,
4.193,-0.98,-1.88,7.97,-0.69,1.43,0.27,
4.193,-0.98,-1.88,7.97,-0.65,1.52,0.30,
4.194,-0.98,-1.88,7.97,-0.61,1.60,0.33,
4.194,-0.98,-1.88,7.97,-0.56,1.67,0.36,
4.196,-0.98,-1.88,7.97,-0.51,1.73,0.39,
4.198,-0.98,-1.88,7.97,-0.46,1.79,0.42,
4.2,-1.59,-2.39,7.97,-0.46,1.79,0.42,
4.2,-1.59,-2.39,7.97,-0.40,1.84,0.45,
4.202,-1.59,-2.39,7.97,-0.35,1.87,0.48,
4.205,-1.59,-2.39,7.97,-0.29,1.90,0.51,
4.206,-1.59,-2.39,7.97,-0.23,1.91,0.54,
4.213,-1.59,-2.39,7.97,-0.17,1.91,0.58,
4.213,-2.04,-2.67,7.32,-0.17,1.91,0.58,
4.213,-2.04,-2.67,7.32,-0.10,1.90,0.60,
4.214,-2.04,-2.67,7.32,-0.04,1.88,0.63,
4.214,-2.04,-2.67,7.32,0.02,1.84,0.65,
4.216,-2.04,-2.67,7.32,0.08,1.78,0.68,
4.221,-2.04,-2.67,7.32,0.14,1.72,0.70,
4.223,-2.19,-2.65,6.30,0.14,1.72,0.70,
4.248,-2.19,-2.65,6.30,0.25,1.56,0.74,
4.248,-2.19,-2.65,6.30,0.25,1.56,0.74,
4.249,-2.19,-2.65,6.30,0.34,1.42,0.77,
4.249,-2.19,-2.65,6.30,0.37,1.37,0.78,
4.25,-2.19,-2.65,6.30,0.42,1.27,0.80,
4.25,-2.34,-2.63,5.24,0.42,1.27,0.80,
4.251,-2.34,-2.63,5.24,0.46,1.17,0.83,
4.251,-2.34,-2.63,5.24,0.51,1.08,0.85,
4.251,-2.34,-2.63,5.24,0.56,0.98,0.88,
4.252,-2.34,-2.63,5.24,0.60,0.88,0.90,
4.252,-2.34,-2.63,5.24,0.64,0.78,0.93,
4.253,-2.31,-2.60,4.31,0.64,0.78,0.93,
4.253,-2.31,-2.60,4.31,0.68,0.68,0.96,
4.253,-2.31,-2.60,4.31,0.72,0.59,0.98,
4.254,-2.31,-2.60,4.31,0.75,0.49,1.01,
4.254,-2.31,-2.60,4.31,0.79,0.41,1.04,
4.255,-2.31,-2.60,4.31,0.83,0.32,1.07,
4.255,-1.93,-2.69,3.88,0.83,0.32,1.07,
4.255,-1.93,-2.69,3.88,0.86,0.25,1.09,
4.256,-1.93,-2.69,3.88,0.89,0.19,1.12,
4.263,-1.93,-2.69,3.88,0.93,0.13,1.14,
4.263,-1.93,-2.69,3.88,0.96,0.09,1.16,
4.264,-1.93,-2.69,3.88,1.00,0.05,1.19,
4.264,-1.24,-2.56,3.67,1.00,0.05,1.19,
4.264,-1.24,-2.56,3.67,1.03,0.02,1.21,
4.265,-1.24,-2.56,3.67,1.06,-0.01,1.23,
4.265,-1.24,-2.56,3.67,1.09,-0.03,1.24,
4.267,-1.24,-2.56,3.67,1.12,-0.05,1.26,
4.269,-1.24,-2.56,3.67,1.15,-0.05,1.27,
4.271,-0.28,-2.67,3.34,1.15,-0.05,1.27,
4.271,-0.28,-2.67,3.34,1.17,-0.05,1.28,
4.272,-0.28,-2.67,3.34,1.18,-0.05,1.29,
4.274,-0.28,-2.67,3.34,1.19,-0.05,1.29,
4.276,-0.28,-2.67,3.34,1.20,-0.04,1.30,
4.278,-0.28,-2.67,3.34,1.21,-0.03,1.30,
4.282,0.40,-2.51,2.51,1.21,-0.03,1.30,
4.282,0.40,-2.51,2.51,1.21,-0.02,1.30,
4.283,0.40,-2.51,2.51,1.20,-0.00,1.29,
4.284,0.40,-2.51,2.51,1.19,0.01,1.29,
4.295,0.40,-2.51,2.51,1.18,0.02,1.27,
4.296,0.40,-2.51,2.51,1.16,0.04,1.26,
4.296,1.14,-2.36,1.54,1.16,0.04,1.26,
4.297,1.14,-2.36,1.54,1.14,0.05,1.24,
4.297,1.14,-2.36,1.54,1.12,0.07,1.21,
4.298,1.14,-2.36,1.54,1.09,0.08,1.19,
4.358,1.14,-2.36,1.54,1.07,0.10,1.15,
4.36,1.14,-2.36,1.54,1.04,0.12,1.12,
4.36,1.86,-2.06,0.58,1.04,0.12,1.12,
4.361,1.86,-2.06,0.58,1.00,0.14,1.08,
4.362,1.86,-2.06,0.58,0.97,0.15,1.04,
4.362,1.86,-2.06,0.58,0.93,0.17,0.99,
4.363,1.86,-2.06,0.58,0.89,0.18,0.95,
4.363,1.86,-2.06,0.58,0.85,0.19,0.90,
4.364,2.50,-1.81,-0.12,0.85,0.19,0.90,
4.364,2.50,-1.81,-0.12,0.81,0.20,0.85,
4.365,2.50,-1.81,-0.12,0.77,0.21,0.80,
4.365,2.50,-1.81,-0.12,0.73,0.22,0.75,
4.366,2.50,-1.81,-0.12,0.69,0.23,0.70,
4.366,2.50,-1.81,-0.12,0.65,0.25,0.65,
4.367,2.62,-1.65,-0.60,0.65,0.25,0.65,
4.368,2.62,-1.65,-0.60,0.61,0.26,0.60,
4.369,2.62,-1.65,-0.60,0.57,0.27,0.55,
4.369,2.62,-1.65,-0.60,0.54,0.28,0.51,
4.37,2.62,-1.65,-0.60,0.50,0.30,0.46,
4.371,2.62,-1.65,-0.60,0.47,0.31,0.42,
4.372,2.36,-1.70,-0.76,0.47,0.31,0.42,
4.372,2.36,-1.70,-0.76,0.44,0.32,0.38,
4.373,2.36,-1.70,-0.76,0.41,0.33,0.35,
4.373,2.36,-1.70,-0.76,0.39,0.34,0.31,
4.374,2.36,-1.70,-0.76,0.37,0.35,0.28,
4.375,2.36,-1.70,-0.76,0.35,0.37,0.25,
4.375,1.71,-1.81,-0.70,0.35,0.37,0.25,
4.376,1.71,-1.81,-0.70,0.33,0.39,0.23,
4.376,1.71,-1.81,-0.70,0.32,0.41,0.21,
4.377,1.71,-1.81,-0.70,0.31,0.43,0.19,
4.377,1.71,-1.81,-0.70,0.31,0.46,0.18,
4.378,1.71,-1.81,-0.70,0.30,0.48,0.17,
4.379,0.95,-2.17,-0.61,0.30,0.48,0.17,
4.38,0.95,-2.17,-0.61,0.30,0.51,0.15,
4.381,0.95,-2.17,-0.61,0.30,0.52,0.15,
4.382,0.95,-2.17,-0.61,0.31,0.54,0.14,
4.383,0.95,-2.17,-0.61,0.31,0.56,0.14,
4.385,0.95,-2.17,-0.61,0.32,0.58,0.14,
4.385,0.38,-2.29,-0.69,0.32,0.58,0.14,
4.388,0.38,-2.29,-0.69,0.32,0.59,0.14,
4.389,0.38,-2.29,-0.69,0.33,0.60,0.14,
4.389,0.38,-2.29,-0.69,0.34,0.61,0.15,
4.389,0.38,-2.29,-0.69,0.35,0.62,0.15,
4.389,0.38,-2.29,-0.69,0.36,0.63,0.16,
4.389,-0.04,-2.50,-1.05,0.36,0.63,0.16,
4.39,-0.04,-2.50,-1.05,0.37,0.63,0.17,
4.39,-0.04,-2.50,-1.05,0.38,0.63,0.17,
4.39,-0.04,-2.50,-1.05,0.39,0.64,0.18,
4.39,-0.04,-2.50,-1.05,0.40,0.64,0.19,
4.39,-0.04,-2.50,-1.05,0.41,0.64,0.20,
4.391,-0.26,-2.55,-1.65,0.41,0.64,0.20,
4.391,-0.26,-2.55,-1.65,0.41,0.64,0.20,
4.391,-0.26,-2.55,-1.65,0.42,0.64,0.21,
4.391,-0.26,-2.55,-1.65,0.42,0.63,0.22,
4.391,-0.26,-2.55,-1.65,0.43,0.63,0.23,
4.408,-0.26,-2.55,-1.65,0.43,0.62,0.23,
4.408,-0.21,-2.62,-2.24,0.43,0.62,0.23,
4.409,-0.21,-2.62,-2.24,0.43,0.61,0.23,
4.409,-0.21,-2.62,-2.24,0.43,0.60,0.24,
4.409,-0.21,-2.62,-2.24,0.43,0.60,0.24,
4.409,-0.21,-2.62,-2.24,0.44,0.59,0.25,
4.409,-0.21,-2.62,-2.24,0.44,0.58,0.25,
4.409,-0.06,-2.51,-2.77,0.44,0.58,0.25,
4.41,-0.06,-2.51,-2.77,0.43,0.57,0.25,
4.41,-0.06,-2.51,-2.77,0.43,0.56,0.25,
4.41,-0.06,-2.51,-2.77,0.43,0.54,0.25,
4.41,-0.06,-2.51,-2.77,0.42,0.53,0.25,
4.415,-0.06,-2.51,-2.77,0.42,0.52,0.25,
4.415,0.15,-2.49,-3.24,0.42,0.52,0.25,
4.415,0.15,-2.49,-3.24,0.40,0.51,0.25,
4.416,0.15,-2.49,-3.24,0.39,0.50,0.25,
4.419,0.15,-2.49,-3.24,0.38,0.50,0.24,
4.419,0.15,-2.49,-3.24,0.37,0.50,0.24,
4.419,0.15,-2.49,-3.24,0.36,0.50,0.24,
4.421,0.28,-2.52,-3.63,0.36,0.50,0.24,
4.421,0.28,-2.52,-3.63,0.34,0.50,0.24,
4.422,0.28,-2.52,-3.63,0.33,0.50,0.23,
4.425,0.28,-2.52,-3.63,0.32,0.51,0.23,
4.427,0.28,-2.52,-3.63,0.31,0.52,0.23,
4.43,0.28,-2.52,-3.63,0.30,0.53,0.23,
4.431,0.30,-2.64,-3.63,0.30,0.53,0.23,
4.431,0.30,-2.64,-3.63,0.29,0.54,0.23,
4.432,0.30,-2.64,-3.63,0.28,0.55,0.24,
4.438,0.30,-2.64,-3.63,0.28,0.56,0.24,
4.438,0.30,-2.64,-3.63,0.27,0.57,0.25,
4.438,0.30,-2.64,-3.63,0.27,0.58,0.26,
4.442,0.05,-2.59,-3.47,0.27,0.58,0.26,
4.443,0.05,-2.59,-3.47,0.27,0.59,0.27,
4.443,0.05,-2.59,-3.47,0.27,0.59,0.28,
4.447,0.05,-2.59,-3.47,0.27,0.60,0.29,
4.447,0.05,-2.59,-3.47,0.27,0.60,0.30,
4.45,0.05,-2.59,-3.47,0.28,0.60,0.31,
4.45,-0.03,-2.67,-3.26,0.28,0.60,0.31,
4.45,-0.03,-2.67,-3.26,0.28,0.60,0.32,
4.456,-0.03,-2.67,-3.26,0.29,0.60,0.33,
4.457,-0.03,-2.67,-3.26,0.30,0.60,0.34,
4.457,-0.03,-2.67,-3.26,0.30,0.61,0.35,
4.46,-0.03,-2.67,-3.26,0.31,0.61,0.37,
4.461,-0.11,-2.77,-3.20,0.31,0.61,0.37,
4.461,-0.11,-2.77,-3.20,0.32,0.62,0.38,
4.462,-0.11,-2.77,-3.20,0.34,0.63,0.40,
4.465,-0.11,-2.77,-3.20,0.34,0.64,0.42,
4.466,-0.11,-2.77,-3.20,0.36,0.66,0.43,
4.49,-0.11,-2.77,-3.20,0.37,0.67,0.45,
4.491,-0.31,-2.73,-3.30,0.37,0.67,0.45,
4.491,-0.31,-2.73,-3.30,0.38,0.68,0.47,
4.491,-0.31,-2.73,-3.30,0.39,0.69,0.49,
4.491,-0.31,-2.73,-3.30,0.40,0.70,0.50,
4.491,-0.31,-2.73,-3.30,0.41,0.70,0.52,
4.491,-0.31,-2.73,-3.30,0.42,0.71,0.53,
4.492,-0.27,-2.47,-3.74,0.42,0.71,0.53,
4.492,-0.27,-2.47,-3.74,0.42,0.71,0.54,
4.492,-0.27,-2.47,-3.74,0.43,0.72,0.55,
4.492,-0.27,-2.47,-3.74,0.43,0.73,0.55,
4.492,-0.27,-2.47,-3.74,0.43,0.73,0.56,
4.492,-0.27,-2.47,-3.74,0.43,0.74,0.56,
4.492,-0.10,-2.16,-4.50,0.43,0.74,0.56,
4.493,-0.10,-2.16,-4.50,0.42,0.74,0.56,
4.494,-0.10,-2.16,-4.50,0.41,0.74,0.56,
4.495,-0.10,-2.16,-4.50,0.40,0.74,0.56,
4.496,-0.10,-2.16,-4.50,0.38,0.73,0.56,
4.498,-0.10,-2.16,-4.50,0.36,0.72,0.56,
4.501,0.17,-1.80,-5.21,0.36,0.72,0.56,
4.502,0.17,-1.80,-5.21,0.34,0.70,0.55,
4.502,0.17,-1.80,-5.21,0.32,0.68,0.54,
4.504,0.17,-1.80,-5.21,0.29,0.65,0.53,
4.506,0.17,-1.80,-5.21,0.27,0.62,0.52,
4.508,0.17,-1.80,-5.21,0.24,0.59,0.51,
4.51,0.49,-1.48,-5.62,0.24,0.59,0.51,
4.511,0.49,-1.48,-5.62,0.21,0.56,0.50,
4.512,0.49,-1.48,-5.62,0.19,0.52,0.49,
4.514,0.49,-1.48,-5.62,0.16,0.49,0.47,
4.516,0.49,-1.48,-5.62,0.13,0.45,0.46,
4.518,0.49,-1.48,-5.62,0.11,0.41,0.44,
4.52,0.63,-1.35,-5.37,0.11,0.41,0.44,
4.521,0.63,-1.35,-5.37,0.08,0.37,0.43,
4.522,0.63,-1.35,-5.37,0.05,0.34,0.42,
4.524,0.63,-1.35,-5.37,0.03,0.30,0.41,
4.529,0.63,-1.35,-5.37,0.00,0.27,0.40,
4.529,0.63,-1.35,-5.37,-0.02,0.23,0.40,
4.534,0.67,-1.40,-4.50,-0.02,0.23,0.40,
4.534,0.67,-1.40,-4.50,-0.03,0.20,0.39,
4.534,0.67,-1.40,-4.50,-0.04,0.18,0.39,
4.535,0.67,-1.40,-4.50,-0.05,0.17,0.38,
4.543,0.67,-1.40,-4.50,-0.06,0.16,0.38,
4.543,0.67,-1.40,-4.50,-0.05,0.16,0.38,
4.544,0.39,-1.54,-2.94,-0.05,0.16,0.38,
4.544,0.39,-1.54,-2.94,-0.04,0.17,0.39,
4.544,0.39,-1.54,-2.94,-0.03,0.19,0.39,
4.545,0.39,-1.54,-2.94,-0.02,0.21,0.40,
4.547,0.39,-1.54,-2.94,-0.00,0.24,0.41,
4.548,0.39,-1.54,-2.94,0.02,0.26,0.43,
4.563,-0.09,-1.59,-1.36,0.02,0.26,0.43,
4.564,-0.09,-1.59,-1.36,0.05,0.30,0.44,
4.564,-0.09,-1.59,-1.36,0.07,0.33,0.46,
4.589,-0.09,-1.59,-1.36,0.10,0.36,0.47,
4.589,-0.09,-1.59,-1.36,0.13,0.40,0.50,
4.589,-0.09,-1.59,-1.36,0.17,0.43,0.51,
4.59,-0.44,-1.40,-0.08,0.17,0.43,0.51,
4.59,-0.44,-1.40,-0.08,0.20,0.45,0.53,
4.59,-0.44,-1.40,-0.08,0.24,0.48,0.55,
4.591,-0.44,-1.40,-0.08,0.28,0.50,0.57,
4.591,-0.44,-1.40,-0.08,0.31,0.52,0.59,
4.591,-0.44,-1.40,-0.08,0.35,0.53,0.62,
4.591,-0.87,-1.04,0.64,0.35,0.53,0.62,
4.592,-0.87,-1.04,0.64,0.38,0.55,0.64,
4.592,-0.87,-1.04,0.64,0.40,0.56,0.66,
4.592,-0.87,-1.04,0.64,0.42,0.56,0.69,
4.592,-0.87,-1.04,0.64,0.44,0.57,0.71,
4.592,-0.87,-1.04,0.64,0.46,0.57,0.73,
4.593,-1.10,-0.52,0.79,0.46,0.57,0.73,
4.593,-1.10,-0.52,0.79,0.47,0.57,0.76,
4.593,-1.10,-0.52,0.79,0.48,0.57,0.78,
4.593,-1.10,-0.52,0.79,0.49,0.57,0.79,
4.594,-1.10,-0.52,0.79,0.49,0.57,0.80,
4.594,-1.10,-0.52,0.79,0.49,0.56,0.81,
4.594,-0.94,0.03,0.79,0.49,0.56,0.81,
4.594,-0.94,0.03,0.79,0.48,0.55,0.82,
4.595,-0.94,0.03,0.79,0.48,0.53,0.83,
4.595,-0.94,0.03,0.79,0.47,0.52,0.83,
4.601,-0.94,0.03,0.79,0.46,0.49,0.83,
4.601,-0.94,0.03,0.79,0.45,0.47,0.83,
4.602,-0.69,0.79,1.22,0.45,0.47,0.83,
4.602,-0.69,0.79,1.22,0.44,0.44,0.83,
4.602,-0.69,0.79,1.22,0.44,0.41,0.83,
4.604,-0.69,0.79,1.22,0.43,0.38,0.82,
4.606,-0.69,0.79,1.22,0.43,0.35,0.82,
4.608,-0.69,0.79,1.22,0.42,0.33,0.82,
4.611,-0.73,1.69,2.09,0.42,0.33,0.82,
4.611,-0.73,1.69,2.09,0.42,0.31,0.82,
4.612,-0.73,1.69,2.09,0.42,0.29,0.82,
4.618,-0.73,1.69,2.09,0.42,0.27,0.82,
4.619,-0.73,1.69,2.09,0.42,0.26,0.82,
4.619,-0.73,1.69,2.09,0.42,0.24,0.82,
4.622,-0.91,2.45,2.85,0.42,0.24,0.82,
4.622,-0.91,2.45,2.85,0.41,0.23,0.83,
4.624,-0.91,2.45,2.85,0.41,0.22,0.83,
4.625,-0.91,2.45,2.85,0.40,0.21,0.83,
4.633,-0.91,2.45,2.85,0.39,0.20,0.84,
4.633,-0.91,2.45,2.85,0.38,0.18,0.84,
4.634,-0.96,3.00,3.23,0.38,0.18,0.84,
4.634,-0.96,3.00,3.23,0.36,0.17,0.85,
4.634,-0.96,3.00,3.23,0.34,0.15,0.86,
4.636,-0.96,3.00,3.23,0.32,0.14,0.86,
4.637,-0.96,3.00,3.23,0.30,0.13,0.87,
4.639,-0.96,3.00,3.23,0.28,0.12,0.87,
4.64,-0.81,3.53,3.75,0.28,0.12,0.87,
4.64,-0.81,3.53,3.75,0.25,0.11,0.88,
4.642,-0.81,3.53,3.75,0.23,0.11,0.88,
4.644,-0.81,3.53,3.75,0.21,0.12,0.88,
4.646,-0.81,3.53,3.75,0.19,0.13,0.89,
4.648,-0.81,3.53,3.75,0.16,0.14,0.89,
4.654,-0.50,3.92,4.36,0.16,0.14,0.89,
4.655,-0.50,3.92,4.36,0.14,0.14,0.89,
4.655,-0.50,3.92,4.36,0.12,0.15,0.89,
4.662,-0.50,3.92,4.36,0.09,0.16,0.88,
4.663,-0.50,3.92,4.36,0.07,0.16,0.88,
4.663,-0.50,3.92,4.36,0.05,0.17,0.87,
4.664,-0.10,4.18,4.77,0.05,0.17,0.87,
4.664,-0.10,4.18,4.77,0.03,0.17,0.86,
4.664,-0.10,4.18,4.77,0.00,0.16,0.85,
4.664,-0.10,4.18,4.77,-0.02,0.16,0.85,
4.692,-0.10,4.18,4.77,-0.05,0.14,0.84,
4.693,-0.10,4.18,4.77,-0.08,0.12,0.83,
4.693,-0.05,4.53,4.71,-0.08,0.12,0.83,
4.693,-0.05,4.53,4.71,-0.10,0.10,0.82,
4.693,-0.05,4.53,4.71,-0.14,0.07,0.82,
4.694,-0.05,4.53,4.71,-0.17,0.03,0.81,
4.694,-0.05,4.53,4.71,-0.21,-0.02,0.80,
4.694,-0.05,4.53,4.71,-0.26,-0.08,0.79,
4.694,-0.01,4.66,4.05,-0.26,-0.08,0.79,
4.694,-0.01,4.66,4.05,-0.30,-0.14,0.78,
4.695,-0.01,4.66,4.05,-0.36,-0.21,0.77,
4.695,-0.01,4.66,4.05,-0.41,-0.28,0.76,
4.695,-0.01,4.66,4.05,-0.48,-0.36,0.75,
4.695,-0.01,4.66,4.05,-0.55,-0.44,0.73,
4.695,0.13,4.79,3.36,-0.55,-0.44,0.73,
4.695,0.13,4.79,3.36,-0.62,-0.53,0.72,
4.696,0.13,4.79,3.36,-0.69,-0.62,0.70,
4.702,0.13,4.79,3.36,-0.77,-0.71,0.69,
4.707,0.13,4.79,3.36,-0.84,-0.79,0.67,
4.707,0.13,4.79,3.36,-0.91,-0.88,0.65,
4.708,0.41,4.60,3.79,-0.91,-0.88,0.65,
4.708,0.41,4.60,3.79,-1.01,-0.99,0.63,
4.709,0.41,4.60,3.79,-1.05,-1.02,0.62,
4.71,0.41,4.60,3.79,-1.11,-1.07,0.60,
4.71,0.41,4.60,3.79,-1.17,-1.11,0.58,
4.711,0.41,4.60,3.79,-1.23,-1.13,0.56,
4.712,0.81,4.18,5.17,-1.23,-1.13,0.56,
4.712,0.81,4.18,5.17,-1.28,-1.14,0.54,
4.713,0.81,4.18,5.17,-1.33,-1.13,0.52,
4.714,0.81,4.18,5.17,-1.38,-1.12,0.51,
4.716,0.81,4.18,5.17,-1.43,-1.10,0.49,
4.718,0.81,4.18,5.17,-1.47,-1.06,0.48,
4.72,0.87,3.34,6.72,-1.47,-1.06,0.48,
4.738,0.87,3.34,6.72,-1.50,-1.01,0.47,
4.738,0.87,3.34,6.72,-1.53,-0.95,0.47,
4.738,0.87,3.34,6.72,-1.57,-0.80,0.47,
4.739,0.87,3.34,6.72,-1.57,-0.80,0.47,
4.739,0.87,3.34,6.72,-1.59,-0.71,0.47,
4.739,0.75,2.36,8.08,-1.59,-0.71,0.47,
4.739,0.75,2.36,8.08,-1.60,-0.62,0.47,
4.739,0.75,2.36,8.08,-1.60,-0.52,0.47,
4.739,0.75,2.36,8.08,-1.60,-0.43,0.47,
4.74,0.75,2.36,8.08,-1.60,-0.33,0.48,
4.74,0.75,2.36,8.08,-1.59,-0.23,0.48,
4.743,0.75,1.51,8.70,-1.59,-0.23,0.48,
4.744,0.75,1.51,8.70,-1.59,-0.14,0.48,
4.744,0.75,1.51,8.70,-1.57,-0.05,0.48,
4.744,0.75,1.51,8.70,-1.56,0.04,0.48,
4.746,0.75,1.51,8.70,-1.54,0.12,0.48,
4.748,0.75,1.51,8.70,-1.52,0.18,0.47,
4.751,0.81,0.69,8.70,-1.52,0.18,0.47,
4.751,0.81,0.69,8.70,-1.49,0.24,0.47,
4.752,0.81,0.69,8.70,-1.46,0.29,0.47,
4.757,0.81,0.69,8.70,-1.42,0.34,0.46,
4.757,0.81,0.69,8.70,-1.38,0.37,0.46,
4.758,0.81,0.69,8.70,-1.33,0.40,0.46,
4.764,0.70,0.06,8.52,-1.33,0.40,0.46,
4.764,0.70,0.06,8.52,-1.28,0.43,0.45,
4.765,0.70,0.06,8.52,-1.22,0.45,0.45,
4.765,0.70,0.06,8.52,-1.16,0.46,0.45,
4.768,0.70,0.06,8.52,-1.08,0.48,0.46,
4.768,0.70,0.06,8.52,-1.01,0.48,0.47,
4.77,0.35,-0.56,8.20,-1.01,0.48,0.47,
4.771,0.35,-0.56,8.20,-0.93,0.49,0.47,
4.772,0.35,-0.56,8.20,-0.85,0.50,0.48,
4.774,0.35,-0.56,8.20,-0.77,0.49,0.50,
4.776,0.35,-0.56,8.20,-0.68,0.49,0.51,
4.779,0.35,-0.56,8.20,-0.60,0.49,0.52,
4.78,0.04,-1.06,7.28,-0.60,0.49,0.52,
4.78,0.04,-1.06,7.28,-0.51,0.48,0.54,
4.782,0.04,-1.06,7.28,-0.42,0.47,0.55,
4.784,0.04,-1.06,7.28,-0.33,0.45,0.56,
4.787,0.04,-1.06,7.28,-0.24,0.43,0.57,
4.788,0.04,-1.06,7.28,-0.16,0.40,0.58,
4.791,0.11,-1.53,6.00,-0.16,0.40,0.58,
4.791,0.11,-1.53,6.00,-0.07,0.38,0.59,
4.797,0.11,-1.53,6.00,0.02,0.34,0.60,
4.797,0.11,-1.53,6.00,0.10,0.31,0.60,
4.798,0.11,-1.53,6.00,0.18,0.28,0.61,
4.798,0.11,-1.53,6.00,0.27,0.24,0.61,
4.806,0.23,-1.69,4.41,0.27,0.24,0.61,
4.807,0.23,-1.69,4.41,0.35,0.21,0.62,
4.807,0.23,-1.69,4.41,0.42,0.18,0.62,
4.807,0.23,-1.69,4.41,0.49,0.15,0.62,
4.807,0.23,-1.69,4.41,0.56,0.12,0.63,
4.812,0.23,-1.69,4.41,0.62,0.09,0.63,
4.813,0.35,-1.84,2.48,0.62,0.09,0.63,
4.813,0.35,-1.84,2.48,0.67,0.06,0.63,
4.814,0.35,-1.84,2.48,0.72,0.03,0.63,
4.814,0.35,-1.84,2.48,0.76,-0.00,0.63,
4.832,0.35,-1.84,2.48,0.79,-0.03,0.63,
4.833,0.35,-1.84,2.48,0.82,-0.06,0.62,
4.833,0.32,-1.86,0.30,0.82,-0.06,0.62,
4.833,0.32,-1.86,0.30,0.84,-0.10,0.62,
4.833,0.32,-1.86,0.30,0.86,-0.13,0.62,
4.833,0.32,-1.86,0.30,0.87,-0.16,0.62,
4.834,0.32,-1.86,0.30,0.88,-0.19,0.62,
4.834,0.32,-1.86,0.30,0.88,-0.23,0.62,
4.834,0.26,-1.79,-1.51,0.88,-0.23,0.62,
4.834,0.26,-1.79,-1.51,0.88,-0.26,0.62,
4.834,0.26,-1.79,-1.51,0.87,-0.30,0.62,
4.835,0.26,-1.79,-1.51,0.85,-0.33,0.61,
4.843,0.26,-1.79,-1.51,0.83,-0.37,0.61,
4.843,0.26,-1.79,-1.51,0.81,-0.40,0.61,
4.844,0.38,-1.74,-2.93,0.81,-0.40,0.61,
4.844,0.38,-1.74,-2.93,0.78,-0.43,0.60,
4.844,0.38,-1.74,-2.93,0.75,-0.46,0.59,
4.845,0.38,-1.74,-2.93,0.72,-0.49,0.58,
4.846,0.38,-1.74,-2.93,0.68,-0.52,0.57,
4.849,0.38,-1.74,-2.93,0.65,-0.55,0.55,
4.853,0.77,-1.64,-3.61,0.65,-0.55,0.55,
4.855,0.77,-1.64,-3.61,0.61,-0.57,0.53,
4.856,0.77,-1.64,-3.61,0.57,-0.59,0.51,
4.857,0.77,-1.64,-3.61,0.54,-0.62,0.50,
4.857,0.77,-1.64,-3.61,0.50,-0.63,0.47,
4.867,0.77,-1.64,-3.61,0.47,-0.65,0.45,
4.867,1.22,-1.44,-3.54,0.47,-0.65,0.45,
4.867,1.22,-1.44,-3.54,0.43,-0.66,0.43,
4.868,1.22,-1.44,-3.54,0.38,-0.69,0.39,
4.868,1.22,-1.44,-3.54,0.34,-0.70,0.37,
4.868,1.22,-1.44,-3.54,0.32,-0.71,0.35,
4.87,1.22,-1.44,-3.54,0.29,-0.72,0.33,
4.871,1.70,-1.27,-2.94,0.29,-0.72,0.33,
4.871,1.70,-1.27,-2.94,0.26,-0.73,0.30,
4.872,1.70,-1.27,-2.94,0.23,-0.74,0.27,
4.874,1.70,-1.27,-2.94,0.20,-0.74,0.24,
4.877,1.70,-1.27,-2.94,0.18,-0.73,0.21,
4.878,1.70,-1.27,-2.94,0.15,-0.72,0.18,
4.881,2.17,-1.26,-2.03,0.15,-0.72,0.18,
4.882,2.17,-1.26,-2.03,0.14,-0.71,0.15,
4.882,2.17,-1.26,-2.03,0.12,-0.69,0.11,
4.884,2.17,-1.26,-2.03,0.10,-0.67,0.08,
4.887,2.17,-1.26,-2.03,0.09,-0.64,0.04,
4.913,2.17,-1.26,-2.03,0.08,-0.61,0.01,
4.913,2.68,-1.27,-1.10,0.08,-0.61,0.01,
4.914,2.68,-1.27,-1.10,0.07,-0.57,-0.03,
4.914,2.68,-1.27,-1.10,0.06,-0.54,-0.06,
4.915,2.68,-1.27,-1.10,0.05,-0.50,-0.10,
4.915,2.68,-1.27,-1.10,0.04,-0.46,-0.13,
4.915,2.68,-1.27,-1.10,0.04,-0.42,-0.16,
4.916,2.72,-1.17,-0.48,0.04,-0.42,-0.16,
4.916,2.72,-1.17,-0.48,0.03,-0.38,-0.20,
4.917,2.72,-1.17,-0.48,0.03,-0.34,-0.23,
4.917,2.72,-1.17,-0.48,0.02,-0.29,-0.26,
4.917,2.72,-1.17,-0.48,0.02,-0.24,-0.30,
4.918,2.72,-1.17,-0.48,0.02,-0.20,-0.33,
4.918,2.71,-1.25,-0.14,0.02,-0.20,-0.33,
4.919,2.71,-1.25,-0.14,0.02,-0.15,-0.36,
4.919,2.71,-1.25,-0.14,0.02,-0.10,-0.39,
4.92,2.71,-1.25,-0.14,0.02,-0.05,-0.42,
4.92,2.71,-1.25,-0.14,0.02,-0.00,-0.44,
4.92,2.71,-1.25,-0.14,0.02,0.04,-0.47,
4.936,2.43,-1.35,-0.21,0.02,0.04,-0.47,
4.937,2.43,-1.35,-0.21,0.01,0.08,-0.50,
4.937,2.43,-1.35,-0.21,0.01,0.13,-0.53,
4.938,2.43,-1.35,-0.21,-0.00,0.17,-0.55,
4.938,2.43,-1.35,-0.21,-0.01,0.18,-0.56,
4.938,2.43,-1.35,-0.21,-0.03,0.23,-0.59,
4.938,1.95,-1.41,-0.65,-0.03,0.23,-0.59,
4.939,1.95,-1.41,-0.65,-0.04,0.25,-0.60,
4.939,1.95,-1.41,-0.65,-0.05,0.27,-0.62,
4.939,1.95,-1.41,-0.65,-0.07,0.30,-0.62,
4.939,1.95,-1.41,-0.65,-0.08,0.31,-0.63,
4.94,1.95,-1.41,-0.65,-0.09,0.33,-0.64,
4.943,1.22,-1.38,-1.17,-0.09,0.33,-0.64,
4.944,1.22,-1.38,-1.17,-0.11,0.34,-0.64,
4.944,1.22,-1.38,-1.17,-0.12,0.36,-0.65,
4.947,1.22,-1.38,-1.17,-0.14,0.38,-0.65,
4.948,1.22,-1.38,-1.17,-0.16,0.39,-0.65,
4.951,1.22,-1.38,-1.17,-0.17,0.40,-0.65,
4.952,0.71,-1.42,-1.58,-0.17,0.40,-0.65,
4.952,0.71,-1.42,-1.58,-0.19,0.41,-0.65,
4.952,0.71,-1.42,-1.58,-0.20,0.42,-0.65,
4.955,0.71,-1.42,-1.58,-0.21,0.42,-0.65,
4.956,0.71,-1.42,-1.58,-0.23,0.43,-0.65,
4.958,0.71,-1.42,-1.58,-0.24,0.43,-0.64,
4.96,0.20,-1.41,-1.88,-0.24,0.43,-0.64,
4.96,0.20,-1.41,-1.88,-0.26,0.43,-0.63,
4.962,0.20,-1.41,-1.88,-0.26,0.43,-0.63,
4.964,0.20,-1.41,-1.88,-0.27,0.43,-0.62,
4.966,0.20,-1.41,-1.88,-0.28,0.44,-0.61,
4.968,0.20,-1.41,-1.88,-0.29,0.43,-0.60,
4.97,-0.19,-1.47,-2.14,-0.29,0.43,-0.60,
4.971,-0.19,-1.47,-2.14,-0.30,0.43,-0.58,
4.972,-0.19,-1.47,-2.14,-0.31,0.42,-0.58,
4.975,-0.19,-1.47,-2.14,-0.31,0.41,-0.57,
4.976,-0.19,-1.47,-2.14,-0.32,0.40,-0.55,
4.978,-0.19,-1.47,-2.14,-0.32,0.40,-0.54,
4.98,-0.46,-1.54,-2.28,-0.32,0.40,-0.54,
4.981,-0.46,-1.54,-2.28,-0.33,0.38,-0.52,
4.985,-0.46,-1.54,-2.28,-0.33,0.38,-0.51,
4.985,-0.46,-1.54,-2.28,-0.33,0.37,-0.48,
4.986,-0.46,-1.54,-2.28,-0.33,0.36,-0.47,
4.988,-0.46,-1.54,-2.28,-0.33,0.35,-0.44,
4.992,-0.66,-1.64,-2.37,-0.33,0.35,-0.44,
4.993,-0.66,-1.64,-2.37,-0.32,0.34,-0.43,
4.994,-0.66,-1.64,-2.37,-0.32,0.34,-0.42,
4.994,-0.66,-1.64,-2.37,-0.32,0.32,-0.39,
4.996,-0.66,-1.64,-2.37,-0.31,0.32,-0.39,
5.005,-0.66,-1.64,-2.37,-0.31,0.31,-0.37,
5.006,-0.56,-1.80,-2.24,-0.31,0.31,-0.37,
5.006,-0.56,-1.80,-2.24,-0.29,0.31,-0.35,
5.006,-0.56,-1.80,-2.24,-0.28,0.31,-0.34,
5.006,-0.56,-1.80,-2.24,-0.27,0.31,-0.32,
