
time,ax,ay,az,wx,wy,wz,
0.003,1.96,-0.44,-0.71,-0.65,-0.37,-0.46,
0.004,1.96,-0.44,-0.71,-0.66,-0.34,-0.45,
0.004,1.96,-0.44,-0.71,-0.67,-0.30,-0.44,
0.004,1.96,-0.44,-0.71,-0.66,-0.23,-0.42,
0.004,1.96,-0.44,-0.71,-0.66,-0.21,-0.42,
0.004,1.96,-0.44,-0.71,-0.65,-0.17,-0.41,
0.005,1.27,-0.09,-0.23,-0.65,-0.17,-0.41,
0.005,1.27,-0.09,-0.23,-0.63,-0.14,-0.40,
0.018,1.27,-0.09,-0.23,-0.61,-0.11,-0.39,
0.018,1.27,-0.09,-0.23,-0.58,-0.07,-0.38,
0.019,1.27,-0.09,-0.23,-0.56,-0.06,-0.37,
0.019,1.27,-0.09,-0.23,-0.53,-0.05,-0.37,
0.019,1.19,-0.08,0.23,-0.53,-0.05,-0.37,
0.019,1.19,-0.08,0.23,-0.50,-0.03,-0.36,
0.019,1.19,-0.08,0.23,-0.47,-0.02,-0.35,
0.019,1.19,-0.08,0.23,-0.43,-0.00,-0.35,
0.032,1.19,-0.08,0.23,-0.41,0.00,-0.34,
0.032,1.19,-0.08,0.23,-0.38,0.01,-0.34,
0.032,1.21,-0.08,0.23,-0.38,0.01,-0.34,
0.032,1.21,-0.08,0.23,-0.35,0.01,-0.34,
0.033,1.21,-0.08,0.23,-0.33,0.01,-0.34,
0.033,1.21,-0.08,0.23,-0.30,0.01,-0.33,
0.033,1.21,-0.08,0.23,-0.29,0.00,-0.33,
0.033,1.21,-0.08,0.23,-0.28,-0.00,-0.33,
0.033,1.14,0.03,-0.21,-0.28,-0.00,-0.33,
0.034,1.14,0.03,-0.21,-0.27,-0.01,-0.32,
0.045,1.14,0.03,-0.21,-0.26,-0.02,-0.32,
0.045,1.14,0.03,-0.21,-0.25,-0.03,-0.31,
0.045,1.14,0.03,-0.21,-0.25,-0.03,-0.30,
0.046,1.14,0.03,-0.21,-0.25,-0.03,-0.30,
0.046,0.96,0.17,-0.63,-0.25,-0.03,-0.30,
0.046,0.96,0.17,-0.63,-0.24,-0.04,-0.29,
0.046,0.96,0.17,-0.63,-0.24,-0.04,-0.28,
0.048,0.96,0.17,-0.63,-0.24,-0.05,-0.27,
0.063,0.96,0.17,-0.63,-0.24,-0.06,-0.27,
0.064,0.96,0.17,-0.63,-0.25,-0.07,-0.26,
0.065,0.95,0.30,-0.78,-0.25,-0.07,-0.26,
0.066,0.95,0.30,-0.78,-0.25,-0.08,-0.25,
0.068,0.95,0.30,-0.78,-0.25,-0.08,-0.24,
0.068,0.95,0.30,-0.78,-0.24,-0.10,-0.23,
0.068,0.95,0.30,-0.78,-0.24,-0.10,-0.22,
0.068,0.95,0.30,-0.78,-0.24,-0.11,-0.21,
0.068,0.90,0.39,-0.75,-0.24,-0.11,-0.21,
0.069,0.90,0.39,-0.75,-0.24,-0.13,-0.20,
0.069,0.90,0.39,-0.75,-0.24,-0.14,-0.19,
0.069,0.90,0.39,-0.75,-0.23,-0.16,-0.18,
0.069,0.90,0.39,-0.75,-0.23,-0.17,-0.17,
0.072,0.90,0.39,-0.75,-0.22,-0.19,-0.17,
0.073,0.87,0.51,-0.68,-0.22,-0.19,-0.17,
0.073,0.87,0.51,-0.68,-0.22,-0.21,-0.16,
0.076,0.87,0.51,-0.68,-0.21,-0.23,-0.15,
0.078,0.87,0.51,-0.68,-0.19,-0.27,-0.14,
0.079,0.87,0.51,-0.68,-0.19,-0.28,-0.14,
0.081,0.87,0.51,-0.68,-0.18,-0.30,-0.13,
0.084,0.85,0.65,-0.57,-0.18,-0.30,-0.13,
0.084,0.85,0.65,-0.57,-0.17,-0.32,-0.13,
0.085,0.85,0.65,-0.57,-0.16,-0.34,-0.12,
0.088,0.85,0.65,-0.57,-0.14,-0.36,-0.11,
0.089,0.85,0.65,-0.57,-0.14,-0.38,-0.11,
0.096,0.85,0.65,-0.57,-0.13,-0.38,-0.11,
0.096,0.97,0.81,-0.61,-0.13,-0.38,-0.11,
0.108,0.97,0.81,-0.61,-0.12,-0.40,-0.10,
0.108,0.97,0.81,-0.61,-0.12,-0.41,-0.10,
0.108,0.97,0.81,-0.61,-0.11,-0.42,-0.09,
0.119,0.97,0.81,-0.61,-0.11,-0.43,-0.09,
0.119,0.97,0.81,-0.61,-0.11,-0.44,-0.09,
0.12,1.08,0.88,-0.76,-0.11,-0.44,-0.09,
0.12,1.08,0.88,-0.76,-0.11,-0.45,-0.09,
0.12,1.08,0.88,-0.76,-0.10,-0.46,-0.10,
0.12,1.08,0.88,-0.76,-0.10,-0.48,-0.10,
0.121,1.08,0.88,-0.76,-0.09,-0.49,-0.10,
0.121,1.08,0.88,-0.76,-0.09,-0.51,-0.10,
0.121,1.16,0.96,-0.80,-0.09,-0.51,-0.10,
0.121,1.16,0.96,-0.80,-0.09,-0.51,-0.11,
0.122,1.16,0.96,-0.80,-0.08,-0.53,-0.11,
0.122,1.16,0.96,-0.80,-0.07,-0.55,-0.11,
0.122,1.16,0.96,-0.80,-0.07,-0.56,-0.12,
0.122,1.16,0.96,-0.80,-0.06,-0.57,-0.12,
0.133,1.16,0.96,-0.80,-0.05,-0.59,-0.13,
0.134,1.16,0.96,-0.80,-0.05,-0.59,-0.13,
0.134,1.24,1.09,-0.72,-0.05,-0.59,-0.13,
0.134,1.24,1.09,-0.72,-0.05,-0.59,-0.14,
0.134,1.24,1.09,-0.72,-0.04,-0.59,-0.14,
0.135,1.24,1.09,-0.72,-0.04,-0.60,-0.15,
0.145,1.31,1.11,-0.70,-0.04,-0.60,-0.15,
0.146,1.31,1.11,-0.70,-0.04,-0.60,-0.16,
0.146,1.31,1.11,-0.70,-0.03,-0.60,-0.16,
0.146,1.31,1.11,-0.70,-0.03,-0.60,-0.17,
0.147,1.31,1.11,-0.70,-0.03,-0.59,-0.18,
0.147,1.31,1.11,-0.70,-0.03,-0.59,-0.19,
0.147,1.35,1.05,-0.70,-0.03,-0.59,-0.19,
0.147,1.35,1.05,-0.70,-0.03,-0.60,-0.20,
0.148,1.35,1.05,-0.70,-0.03,-0.60,-0.21,
0.148,1.35,1.05,-0.70,-0.03,-0.60,-0.22,
0.15,1.35,1.05,-0.70,-0.03,-0.60,-0.23,
0.151,1.35,1.05,-0.70,-0.03,-0.60,-0.24,
0.153,1.30,1.05,-0.63,-0.03,-0.60,-0.24,
0.153,1.30,1.05,-0.63,-0.03,-0.60,-0.25,
0.155,1.30,1.05,-0.63,-0.03,-0.60,-0.25,
0.158,1.30,1.05,-0.63,-0.03,-0.59,-0.26,
0.159,1.30,1.05,-0.63,-0.03,-0.60,-0.27,
0.162,1.30,1.05,-0.63,-0.02,-0.60,-0.27,
0.163,0.99,0.99,-0.53,-0.02,-0.60,-0.27,
0.164,0.99,0.99,-0.53,-0.02,-0.59,-0.27,
0.174,0.99,0.99,-0.53,-0.02,-0.59,-0.27,
0.174,0.99,0.99,-0.53,-0.01,-0.59,-0.27,
0.174,0.99,0.99,-0.53,-0.01,-0.59,-0.27,
0.175,0.99,0.99,-0.53,-0.01,-0.58,-0.27,
0.175,0.71,0.95,-0.43,-0.01,-0.58,-0.27,
0.175,0.71,0.95,-0.43,-0.01,-0.57,-0.26,
0.175,0.71,0.95,-0.43,-0.01,-0.56,-0.26,
0.178,0.71,0.95,-0.43,-0.02,-0.53,-0.25,
0.179,0.71,0.95,-0.43,-0.02,-0.51,-0.24,
0.181,0.71,0.95,-0.43,-0.02,-0.50,-0.24,
0.184,0.52,0.87,-0.49,-0.02,-0.50,-0.24,
0.184,0.52,0.87,-0.49,-0.03,-0.48,-0.24,
0.185,0.52,0.87,-0.49,-0.03,-0.46,-0.23,
0.188,0.52,0.87,-0.49,-0.04,-0.43,-0.22,
0.189,0.52,0.87,-0.49,-0.05,-0.41,-0.22,
0.191,0.52,0.87,-0.49,-0.05,-0.40,-0.21,
0.193,0.44,0.82,-0.55,-0.05,-0.40,-0.21,
0.194,0.44,0.82,-0.55,-0.06,-0.38,-0.21,
0.195,0.44,0.82,-0.55,-0.06,-0.37,-0.21,
0.199,0.44,0.82,-0.55,-0.07,-0.34,-0.20,
0.2,0.44,0.82,-0.55,-0.07,-0.33,-0.20,
0.202,0.44,0.82,-0.55,-0.07,-0.32,-0.19,
0.204,0.41,0.85,-0.51,-0.07,-0.32,-0.19,
0.204,0.41,0.85,-0.51,-0.08,-0.31,-0.19,
0.205,0.41,0.85,-0.51,-0.08,-0.30,-0.19,
0.208,0.41,0.85,-0.51,-0.08,-0.29,-0.18,
0.209,0.41,0.85,-0.51,-0.08,-0.28,-0.18,
0.211,0.41,0.85,-0.51,-0.08,-0.27,-0.18,
0.213,0.41,0.94,-0.40,-0.08,-0.27,-0.18,
0.213,0.41,0.94,-0.40,-0.08,-0.27,-0.18,
0.216,0.41,0.94,-0.40,-0.08,-0.26,-0.18,
0.218,0.41,0.94,-0.40,-0.08,-0.25,-0.18,
0.22,0.41,0.94,-0.40,-0.07,-0.25,-0.18,
0.224,0.41,0.94,-0.40,-0.07,-0.24,-0.18,
0.224,0.55,0.95,-0.24,-0.07,-0.24,-0.18,
0.224,0.55,0.95,-0.24,-0.07,-0.24,-0.18,
0.225,0.55,0.95,-0.24,-0.07,-0.23,-0.19,
0.23,0.55,0.95,-0.24,-0.07,-0.22,-0.19,
0.231,0.55,0.95,-0.24,-0.06,-0.22,-0.19,
0.231,0.55,0.95,-0.24,-0.06,-0.21,-0.19,
0.235,0.73,0.96,-0.14,-0.06,-0.21,-0.19,
0.235,0.73,0.96,-0.14,-0.06,-0.20,-0.20,
0.237,0.73,0.96,-0.14,-0.06,-0.19,-0.20,
0.238,0.73,0.96,-0.14,-0.06,-0.17,-0.20,
0.239,0.73,0.96,-0.14,-0.06,-0.16,-0.21,
0.241,0.73,0.96,-0.14,-0.06,-0.15,-0.21,
0.244,0.72,0.92,0.04,-0.06,-0.15,-0.21,
0.244,0.72,0.92,0.04,-0.06,-0.14,-0.21,
0.246,0.72,0.92,0.04,-0.05,-0.13,-0.22,
0.261,0.72,0.92,0.04,-0.04,-0.10,-0.23,
0.261,0.72,0.92,0.04,-0.03,-0.09,-0.23,
0.261,0.72,0.92,0.04,-0.03,-0.08,-0.23,
0.262,0.73,1.00,0.37,-0.03,-0.08,-0.23,
0.262,0.73,1.00,0.37,-0.02,-0.07,-0.24,
0.262,0.73,1.00,0.37,-0.01,-0.05,-0.24,
0.262,0.73,1.00,0.37,0.01,-0.03,-0.25,
0.262,0.73,1.00,0.37,0.02,-0.01,-0.25,
0.281,0.73,1.00,0.37,0.03,-0.00,-0.25,
0.282,0.61,0.97,0.62,0.03,-0.00,-0.25,
0.282,0.61,0.97,0.62,0.04,0.02,-0.25,
0.282,0.61,0.97,0.62,0.05,0.03,-0.25,
0.282,0.61,0.97,0.62,0.07,0.05,-0.24,
0.283,0.61,0.97,0.62,0.09,0.07,-0.24,
0.283,0.61,0.97,0.62,0.09,0.07,-0.24,
0.283,0.47,0.88,0.70,0.09,0.07,-0.24,
0.283,0.47,0.88,0.70,0.11,0.08,-0.24,
0.284,0.47,0.88,0.70,0.12,0.09,-0.23,
0.284,0.47,0.88,0.70,0.14,0.10,-0.22,
0.284,0.47,0.88,0.70,0.15,0.10,-0.21,
0.285,0.47,0.88,0.70,0.16,0.10,-0.21,
0.29,0.18,0.77,0.77,0.16,0.10,-0.21,
0.29,0.18,0.77,0.77,0.17,0.10,-0.20,
0.29,0.18,0.77,0.77,0.18,0.09,-0.19,
0.29,0.18,0.77,0.77,0.21,0.07,-0.17,
0.291,0.18,0.77,0.77,0.22,0.06,-0.16,
0.299,0.18,0.77,0.77,0.23,0.05,-0.16,
0.3,0.08,0.77,0.90,0.23,0.05,-0.16,
0.3,0.08,0.77,0.90,0.25,0.04,-0.14,
0.301,0.08,0.77,0.90,0.27,0.02,-0.14,
0.301,0.08,0.77,0.90,0.30,-0.01,-0.12,
0.303,0.08,0.77,0.90,0.33,-0.04,-0.10,
0.303,0.08,0.77,0.90,0.34,-0.05,-0.09,
0.308,-0.04,0.74,1.11,0.34,-0.05,-0.09,
0.308,-0.04,0.74,1.11,0.35,-0.07,-0.09,
0.308,-0.04,0.74,1.11,0.37,-0.10,-0.08,
0.31,-0.04,0.74,1.11,0.41,-0.15,-0.05,
0.31,-0.04,0.74,1.11,0.42,-0.16,-0.05,
0.311,-0.04,0.74,1.11,0.43,-0.17,-0.04,
0.315,0.05,0.67,1.32,0.43,-0.17,-0.04,
0.315,0.05,0.67,1.32,0.46,-0.19,-0.03,
0.317,0.05,0.67,1.32,0.48,-0.22,-0.02,
0.319,0.05,0.67,1.32,0.51,-0.25,-0.01,
0.319,0.05,0.67,1.32,0.54,-0.26,-0.01,
0.321,0.05,0.67,1.32,0.55,-0.27,-0.01,
0.323,0.26,0.60,1.49,0.55,-0.27,-0.01,
0.323,0.26,0.60,1.49,0.57,-0.29,-0.01,
0.325,0.26,0.60,1.49,0.60,-0.30,-0.00,
0.328,0.26,0.60,1.49,0.63,-0.32,0.00,
0.329,0.26,0.60,1.49,0.65,-0.33,-0.00,
0.332,0.26,0.60,1.49,0.66,-0.34,-0.00,
0.334,0.50,0.65,1.48,0.66,-0.34,-0.00,
0.334,0.50,0.65,1.48,0.68,-0.35,-0.01,
0.335,0.50,0.65,1.48,0.70,-0.35,-0.01,
0.338,0.50,0.65,1.48,0.72,-0.37,-0.01,
0.339,0.50,0.65,1.48,0.72,-0.38,-0.01,
0.341,0.50,0.65,1.48,0.73,-0.38,-0.01,
0.343,0.46,0.75,1.19,0.73,-0.38,-0.01,
0.343,0.46,0.75,1.19,0.73,-0.40,-0.01,
0.345,0.46,0.75,1.19,0.73,-0.42,-0.01,
0.348,0.46,0.75,1.19,0.71,-0.44,-0.02,
0.35,0.46,0.75,1.19,0.71,-0.44,-0.01,
0.351,0.46,0.75,1.19,0.69,-0.45,-0.02,
0.354,0.57,0.79,0.73,0.69,-0.45,-0.02,
0.354,0.57,0.79,0.73,0.67,-0.46,-0.02,
0.355,0.57,0.79,0.73,0.65,-0.48,-0.03,
0.358,0.57,0.79,0.73,0.62,-0.49,-0.03,
0.359,0.57,0.79,0.73,0.58,-0.51,-0.04,
0.361,0.57,0.79,0.73,0.54,-0.52,-0.05,
0.363,0.88,0.75,0.34,0.54,-0.52,-0.05,
0.363,0.88,0.75,0.34,0.50,-0.53,-0.06,
0.365,0.88,0.75,0.34,0.46,-0.55,-0.07,
0.368,0.88,0.75,0.34,0.42,-0.55,-0.09,
0.371,0.88,0.75,0.34,0.38,-0.56,-0.10,
0.372,0.88,0.75,0.34,0.34,-0.57,-0.12,
0.374,1.27,0.71,0.42,0.34,-0.57,-0.12,
0.375,1.27,0.71,0.42,0.30,-0.57,-0.13,
0.375,1.27,0.71,0.42,0.26,-0.57,-0.15,
0.378,1.27,0.71,0.42,0.23,-0.56,-0.16,
0.379,1.27,0.71,0.42,0.20,-0.55,-0.18,
0.382,1.27,0.71,0.42,0.17,-0.53,-0.19,
0.383,1.37,0.68,0.99,0.17,-0.53,-0.19,
0.384,1.37,0.68,0.99,0.15,-0.51,-0.21,
0.385,1.37,0.68,0.99,0.12,-0.48,-0.22,
0.388,1.37,0.68,0.99,0.10,-0.43,-0.24,
0.389,1.37,0.68,0.99,0.09,-0.41,-0.25,
0.392,1.37,0.68,0.99,0.07,-0.38,-0.26,
0.395,1.49,0.60,1.49,0.07,-0.38,-0.26,
0.396,1.49,0.60,1.49,0.05,-0.34,-0.28,
0.396,1.49,0.60,1.49,0.04,-0.30,-0.29,
0.409,1.49,0.60,1.49,0.03,-0.25,-0.30,
0.41,1.49,0.60,1.49,0.02,-0.20,-0.30,
0.41,1.49,0.60,1.49,0.01,-0.15,-0.31,
0.41,1.37,0.38,1.72,0.01,-0.15,-0.31,
0.41,1.37,0.38,1.72,0.01,-0.10,-0.32,
0.411,1.37,0.38,1.72,0.01,-0.05,-0.32,
0.411,1.37,0.38,1.72,0.00,0.01,-0.32,
0.411,1.37,0.38,1.72,0.00,0.06,-0.32,
0.443,1.37,0.38,1.72,0.00,0.12,-0.32,
0.444,1.10,0.16,1.70,0.00,0.12,-0.32,
0.444,1.10,0.16,1.70,0.01,0.18,-0.32,
0.444,1.10,0.16,1.70,0.02,0.23,-0.31,
0.444,1.10,0.16,1.70,0.02,0.29,-0.31,
0.444,1.10,0.16,1.70,0.04,0.34,-0.30,
0.445,1.10,0.16,1.70,0.05,0.40,-0.29,
0.445,0.73,0.02,1.45,0.05,0.40,-0.29,
0.445,0.73,0.02,1.45,0.06,0.45,-0.28,
0.445,0.73,0.02,1.45,0.08,0.50,-0.27,
0.464,0.73,0.02,1.45,0.09,0.54,-0.26,
0.464,0.73,0.02,1.45,0.10,0.59,-0.25,
0.464,0.73,0.02,1.45,0.12,0.63,-0.24,
0.465,0.34,-0.01,0.90,0.12,0.63,-0.24,
0.465,0.34,-0.01,0.90,0.14,0.67,-0.22,
0.465,0.34,-0.01,0.90,0.15,0.70,-0.21,
0.465,0.34,-0.01,0.90,0.18,0.76,-0.19,
0.466,0.34,-0.01,0.90,0.19,0.77,-0.18,
0.466,0.34,-0.01,0.90,0.20,0.80,-0.17,
0.466,0.03,0.06,0.15,0.20,0.80,-0.17,
0.466,0.03,0.06,0.15,0.22,0.83,-0.15,
0.467,0.03,0.06,0.15,0.23,0.85,-0.14,
0.467,0.03,0.06,0.15,0.24,0.87,-0.12,
0.467,0.03,0.06,0.15,0.24,0.88,-0.11,
0.468,0.03,0.06,0.15,0.25,0.89,-0.10,
0.468,-0.25,0.21,-0.84,0.25,0.89,-0.10,
0.468,-0.25,0.21,-0.84,0.25,0.89,-0.08,
0.468,-0.25,0.21,-0.84,0.25,0.89,-0.07,
0.468,-0.25,0.21,-0.84,0.24,0.88,-0.06,
0.469,-0.25,0.21,-0.84,0.24,0.86,-0.06,
0.469,-0.25,0.21,-0.84,0.23,0.85,-0.05,
0.469,-0.45,0.39,-1.75,0.23,0.85,-0.05,
0.469,-0.45,0.39,-1.75,0.22,0.82,-0.04,
0.469,-0.45,0.39,-1.75,0.20,0.79,-0.04,
0.47,-0.45,0.39,-1.75,0.19,0.76,-0.03,
0.47,-0.45,0.39,-1.75,0.17,0.72,-0.02,
0.474,-0.45,0.39,-1.75,0.15,0.69,-0.02,
0.475,-0.66,0.69,-2.33,0.15,0.69,-0.02,
0.475,-0.66,0.69,-2.33,0.13,0.64,-0.02,
0.475,-0.66,0.69,-2.33,0.11,0.60,-0.02,
0.478,-0.66,0.69,-2.33,0.08,0.56,-0.02,
0.479,-0.66,0.69,-2.33,0.05,0.51,-0.02,
0.484,-0.66,0.69,-2.33,0.02,0.47,-0.02,
0.484,-0.62,0.90,-2.53,0.02,0.47,-0.02,
0.485,-0.62,0.90,-2.53,-0.01,0.43,-0.02,
0.485,-0.62,0.90,-2.53,-0.04,0.39,-0.03,
0.488,-0.62,0.90,-2.53,-0.10,0.33,-0.04,
0.49,-0.62,0.90,-2.53,-0.11,0.31,-0.04,
0.491,-0.62,0.90,-2.53,-0.15,0.27,-0.05,
0.493,-0.51,1.18,-2.47,-0.15,0.27,-0.05,
0.493,-0.51,1.18,-2.47,-0.18,0.23,-0.06,
0.496,-0.51,1.18,-2.47,-0.22,0.19,-0.07,
0.498,-0.51,1.18,-2.47,-0.25,0.14,-0.08,
0.499,-0.51,1.18,-2.47,-0.29,0.10,-0.09,
0.501,-0.51,1.18,-2.47,-0.32,0.05,-0.09,
0.503,-0.38,1.27,-2.03,-0.32,0.05,-0.09,
0.503,-0.38,1.27,-2.03,-0.35,0.00,-0.11,
0.505,-0.38,1.27,-2.03,-0.38,-0.05,-0.12,
0.508,-0.38,1.27,-2.03,-0.41,-0.10,-0.13,
0.509,-0.38,1.27,-2.03,-0.44,-0.15,-0.14,
0.511,-0.38,1.27,-2.03,-0.47,-0.20,-0.15,
0.514,-0.17,1.26,-1.27,-0.47,-0.20,-0.15,
0.515,-0.17,1.26,-1.27,-0.49,-0.25,-0.16,
0.515,-0.17,1.26,-1.27,-0.52,-0.29,-0.17,
0.518,-0.17,1.26,-1.27,-0.54,-0.33,-0.18,
0.519,-0.17,1.26,-1.27,-0.56,-0.37,-0.20,
0.521,-0.17,1.26,-1.27,-0.57,-0.41,-0.21,
0.523,0.05,1.12,-0.20,-0.57,-0.41,-0.21,
0.523,0.05,1.12,-0.20,-0.59,-0.43,-0.22,
0.525,0.05,1.12,-0.20,-0.60,-0.46,-0.23,
0.528,0.05,1.12,-0.20,-0.61,-0.48,-0.24,
0.529,0.05,1.12,-0.20,-0.62,-0.49,-0.25,
0.532,0.05,1.12,-0.20,-0.62,-0.51,-0.26,
0.533,0.25,0.86,0.86,-0.62,-0.51,-0.26,
0.534,0.25,0.86,0.86,-0.62,-0.51,-0.27,
0.535,0.25,0.86,0.86,-0.62,-0.51,-0.28,
0.538,0.25,0.86,0.86,-0.63,-0.52,-0.29,
0.539,0.25,0.86,0.86,-0.62,-0.52,-0.29,
0.541,0.25,0.86,0.86,-0.62,-0.51,-0.29,
0.544,0.30,0.54,1.77,-0.62,-0.51,-0.29,
0.544,0.30,0.54,1.77,-0.62,-0.51,-0.30,
0.545,0.30,0.54,1.77,-0.61,-0.49,-0.30,
0.552,0.30,0.54,1.77,-0.60,-0.47,-0.30,
0.552,0.30,0.54,1.77,-0.59,-0.46,-0.30,
0.552,0.30,0.54,1.77,-0.58,-0.43,-0.30,
0.554,0.34,0.29,2.51,-0.58,-0.43,-0.30,
0.554,0.34,0.29,2.51,-0.56,-0.40,-0.30,
0.555,0.34,0.29,2.51,-0.54,-0.37,-0.30,
0.558,0.34,0.29,2.51,-0.51,-0.32,-0.30,
0.559,0.34,0.29,2.51,-0.50,-0.31,-0.30,
0.561,0.34,0.29,2.51,-0.48,-0.27,-0.29,
0.58,0.26,0.16,2.89,-0.48,-0.27,-0.29,
0.58,0.26,0.16,2.89,-0.46,-0.24,-0.29,
0.581,0.26,0.16,2.89,-0.44,-0.21,-0.28,
0.581,0.26,0.16,2.89,-0.40,-0.16,-0.27,
0.581,0.26,0.16,2.89,-0.39,-0.15,-0.27,
0.581,0.26,0.16,2.89,-0.36,-0.11,-0.26,
0.581,0.20,0.05,2.87,-0.36,-0.11,-0.26,
0.581,0.20,0.05,2.87,-0.34,-0.08,-0.26,
0.582,0.20,0.05,2.87,-0.31,-0.05,-0.25,
0.582,0.20,0.05,2.87,-0.27,-0.01,-0.25,
0.582,0.20,0.05,2.87,-0.26,0.00,-0.25,
0.582,0.20,0.05,2.87,-0.24,0.03,-0.24,
0.587,0.13,0.05,2.52,-0.24,0.03,-0.24,
0.587,0.13,0.05,2.52,-0.21,0.05,-0.24,
0.587,0.13,0.05,2.52,-0.19,0.07,-0.23,
0.588,0.13,0.05,2.52,-0.16,0.10,-0.22,
0.589,0.13,0.05,2.52,-0.14,0.11,-0.22,
0.591,0.13,0.05,2.52,-0.13,0.14,-0.21,
0.593,0.02,0.10,1.88,-0.13,0.14,-0.21,
0.621,0.02,0.10,1.88,-0.11,0.16,-0.20,
0.621,0.02,0.10,1.88,-0.09,0.17,-0.19,
0.622,0.02,0.10,1.88,-0.07,0.20,-0.17,
0.622,0.02,0.10,1.88,-0.06,0.21,-0.17,
0.622,0.02,0.10,1.88,-0.05,0.23,-0.16,
0.622,-0.18,0.10,0.97,-0.05,0.23,-0.16,
0.622,-0.18,0.10,0.97,-0.05,0.24,-0.15,
0.623,-0.18,0.10,0.97,-0.04,0.25,-0.14,
0.623,-0.18,0.10,0.97,-0.04,0.27,-0.12,
0.623,-0.18,0.10,0.97,-0.04,0.28,-0.11,
0.623,-0.18,0.10,0.97,-0.04,0.28,-0.10,
0.624,-0.29,0.06,0.06,-0.04,0.28,-0.10,
0.624,-0.29,0.06,0.06,-0.04,0.29,-0.08,
0.624,-0.29,0.06,0.06,-0.04,0.30,-0.07,
0.624,-0.29,0.06,0.06,-0.04,0.31,-0.05,
0.624,-0.29,0.06,0.06,-0.04,0.31,-0.04,
0.625,-0.29,0.06,0.06,-0.05,0.31,-0.02,
0.625,-0.29,0.06,0.06,-0.05,0.31,-0.02,
0.625,-0.36,0.03,-0.85,-0.05,0.31,-0.02,
0.629,-0.36,0.03,-0.85,-0.05,0.30,-0.01,
0.63,-0.36,0.03,-0.85,-0.06,0.29,-0.01,
0.63,-0.36,0.03,-0.85,-0.06,0.29,-0.01,
0.637,-0.36,0.03,-0.85,-0.06,0.28,-0.01,
0.638,-0.09,0.15,-1.18,-0.06,0.28,-0.01,
0.638,-0.09,0.15,-1.18,-0.06,0.27,-0.01,
0.638,-0.09,0.15,-1.18,-0.05,0.26,-0.02,
0.642,-0.09,0.15,-1.18,-0.04,0.24,-0.03,
0.642,-0.09,0.15,-1.18,-0.04,0.24,-0.03,
0.643,-0.09,0.15,-1.18,-0.03,0.23,-0.04,
0.643,0.30,0.18,-1.33,-0.03,0.23,-0.04,
0.644,0.30,0.18,-1.33,-0.02,0.22,-0.05,
0.645,0.30,0.18,-1.33,-0.02,0.21,-0.06,
0.648,0.30,0.18,-1.33,-0.00,0.19,-0.07,
0.652,0.30,0.18,-1.33,0.01,0.18,-0.08,
0.654,0.30,0.18,-1.33,0.01,0.17,-0.09,
0.654,0.63,0.11,-1.45,0.01,0.17,-0.09,
0.654,0.63,0.11,-1.45,0.02,0.15,-0.10,
0.655,0.63,0.11,-1.45,0.04,0.14,-0.11,
0.658,0.63,0.11,-1.45,0.05,0.12,-0.13,
0.659,0.63,0.11,-1.45,0.05,0.11,-0.14,
0.661,0.63,0.11,-1.45,0.06,0.10,-0.15,
0.67,0.69,0.01,-1.66,0.06,0.10,-0.15,
0.671,0.69,0.01,-1.66,0.07,0.09,-0.16,
0.671,0.69,0.01,-1.66,0.08,0.08,-0.17,
0.671,0.69,0.01,-1.66,0.08,0.07,-0.18,
0.671,0.69,0.01,-1.66,0.09,0.06,-0.18,
0.672,0.69,0.01,-1.66,0.09,0.05,-0.18,
0.676,0.56,-0.10,-2.00,0.09,0.05,-0.18,
0.676,0.56,-0.10,-2.00,0.09,0.03,-0.18,
0.676,0.56,-0.10,-2.00,0.09,0.02,-0.18,
0.678,0.56,-0.10,-2.00,0.09,-0.00,-0.18,
0.699,0.56,-0.10,-2.00,0.08,-0.01,-0.18,
0.7,0.56,-0.10,-2.00,0.08,-0.02,-0.17,
0.7,0.32,-0.29,-2.36,0.08,-0.02,-0.17,
0.7,0.32,-0.29,-2.36,0.07,-0.04,-0.17,
0.7,0.32,-0.29,-2.36,0.06,-0.05,-0.16,
0.701,0.32,-0.29,-2.36,0.04,-0.07,-0.15,
0.701,0.32,-0.29,-2.36,0.04,-0.07,-0.14,
0.701,0.32,-0.29,-2.36,0.02,-0.08,-0.13,
0.701,0.03,-0.43,-2.52,0.02,-0.08,-0.13,
0.701,0.03,-0.43,-2.52,0.01,-0.09,-0.12,
0.702,0.03,-0.43,-2.52,0.00,-0.10,-0.10,
0.702,0.03,-0.43,-2.52,-0.02,-0.11,-0.08,
0.702,0.03,-0.43,-2.52,-0.02,-0.12,-0.07,
0.702,0.03,-0.43,-2.52,-0.03,-0.12,-0.05,
0.703,-0.14,-0.55,-2.49,-0.03,-0.12,-0.05,
0.703,-0.14,-0.55,-2.49,-0.04,-0.13,-0.03,
0.705,-0.14,-0.55,-2.49,-0.05,-0.13,-0.02,
0.708,-0.14,-0.55,-2.49,-0.06,-0.14,0.01,
0.709,-0.14,-0.55,-2.49,-0.07,-0.15,0.02,
0.711,-0.14,-0.55,-2.49,-0.08,-0.15,0.03,
0.714,-0.01,-0.73,-2.38,-0.08,-0.15,0.03,
0.714,-0.01,-0.73,-2.38,-0.09,-0.16,0.05,
0.715,-0.01,-0.73,-2.38,-0.10,-0.17,0.06,
0.718,-0.01,-0.73,-2.38,-0.11,-0.18,0.08,
0.719,-0.01,-0.73,-2.38,-0.12,-0.19,0.08,
0.721,-0.01,-0.73,-2.38,-0.13,-0.20,0.09,
0.723,0.25,-0.79,-2.28,-0.13,-0.20,0.09,
0.723,0.25,-0.79,-2.28,-0.14,-0.21,0.09,
0.725,0.25,-0.79,-2.28,-0.14,-0.23,0.10,
0.728,0.25,-0.79,-2.28,-0.16,-0.24,0.11,
0.73,0.25,-0.79,-2.28,-0.16,-0.25,0.11,
0.734,0.25,-0.79,-2.28,-0.17,-0.27,0.11,
0.734,0.62,-0.74,-2.04,-0.17,-0.27,0.11,
0.735,0.62,-0.74,-2.04,-0.17,-0.28,0.11,
0.735,0.62,-0.74,-2.04,-0.18,-0.30,0.11,
0.738,0.62,-0.74,-2.04,-0.18,-0.33,0.11,
0.74,0.62,-0.74,-2.04,-0.18,-0.34,0.10,
0.741,0.62,-0.74,-2.04,-0.18,-0.36,0.09,
0.744,1.08,-0.69,-1.67,-0.18,-0.36,0.09,
0.744,1.08,-0.69,-1.67,-0.18,-0.38,0.08,
0.746,1.08,-0.69,-1.67,-0.18,-0.40,0.07,
0.749,1.08,-0.69,-1.67,-0.18,-0.43,0.05,
0.752,1.08,-0.69,-1.67,-0.18,-0.44,0.04,
0.752,1.08,-0.69,-1.67,-0.17,-0.46,0.03,
0.753,1.55,-0.71,-1.16,-0.17,-0.46,0.03,
0.753,1.55,-0.71,-1.16,-0.17,-0.47,0.02,
0.755,1.55,-0.71,-1.16,-0.16,-0.49,0.00,
0.758,1.55,-0.71,-1.16,-0.15,-0.50,-0.02,
0.759,1.55,-0.71,-1.16,-0.15,-0.51,-0.02,
0.786,1.55,-0.71,-1.16,-0.14,-0.52,-0.03,
0.786,1.46,-0.76,-0.76,-0.14,-0.52,-0.03,
0.787,1.46,-0.76,-0.76,-0.13,-0.52,-0.04,
0.788,1.46,-0.76,-0.76,-0.13,-0.53,-0.05,
0.788,1.46,-0.76,-0.76,-0.12,-0.53,-0.06,
0.789,1.46,-0.76,-0.76,-0.12,-0.53,-0.06,
0.789,1.46,-0.76,-0.76,-0.11,-0.53,-0.06,
0.79,1.37,-0.80,-0.51,-0.11,-0.53,-0.06,
0.79,1.37,-0.80,-0.51,-0.11,-0.53,-0.06,
0.79,1.37,-0.80,-0.51,-0.11,-0.53,-0.06,
0.791,1.37,-0.80,-0.51,-0.11,-0.53,-0.06,
0.791,1.37,-0.80,-0.51,-0.11,-0.53,-0.06,
0.792,1.37,-0.80,-0.51,-0.12,-0.53,-0.06,
0.792,1.22,-0.82,-0.47,-0.12,-0.53,-0.06,
0.792,1.22,-0.82,-0.47,-0.12,-0.52,-0.06,
0.793,1.22,-0.82,-0.47,-0.13,-0.52,-0.06,
0.793,1.22,-0.82,-0.47,-0.15,-0.52,-0.06,
0.794,1.22,-0.82,-0.47,-0.16,-0.52,-0.06,
0.794,1.22,-0.82,-0.47,-0.17,-0.52,-0.05,
0.794,1.18,-0.89,-0.38,-0.17,-0.52,-0.05,
0.795,1.18,-0.89,-0.38,-0.18,-0.52,-0.05,
0.795,1.18,-0.89,-0.38,-0.20,-0.52,-0.04,
0.804,1.18,-0.89,-0.38,-0.22,-0.53,-0.03,
0.805,1.18,-0.89,-0.38,-0.23,-0.53,-0.03,
0.805,1.18,-0.89,-0.38,-0.25,-0.54,-0.02,
0.805,0.98,-0.95,-0.20,-0.25,-0.54,-0.02,
0.806,0.98,-0.95,-0.20,-0.27,-0.54,-0.00,
0.806,0.98,-0.95,-0.20,-0.28,-0.55,0.01,
0.808,0.98,-0.95,-0.20,-0.31,-0.55,0.04,
0.809,0.98,-0.95,-0.20,-0.32,-0.56,0.05,
0.811,0.98,-0.95,-0.20,-0.34,-0.55,0.07,
0.814,0.90,-1.02,0.17,-0.34,-0.55,0.07,
0.814,0.90,-1.02,0.17,-0.35,-0.54,0.09,
0.816,0.90,-1.02,0.17,-0.37,-0.54,0.12,
0.818,0.90,-1.02,0.17,-0.39,-0.52,0.16,
0.819,0.90,-1.02,0.17,-0.39,-0.51,0.18,
0.821,0.90,-1.02,0.17,-0.40,-0.49,0.21,
0.823,0.63,-0.81,0.72,-0.40,-0.49,0.21,
0.823,0.63,-0.81,0.72,-0.41,-0.47,0.24,
0.825,0.63,-0.81,0.72,-0.41,-0.45,0.28,
0.828,0.63,-0.81,0.72,-0.42,-0.43,0.32,
0.835,0.63,-0.81,0.72,-0.42,-0.43,0.34,
0.836,0.63,-0.81,0.72,-0.43,-0.43,0.37,
0.836,0.82,-0.53,1.29,-0.43,-0.43,0.37,
0.837,0.82,-0.53,1.29,-0.44,-0.44,0.40,
0.837,0.82,-0.53,1.29,-0.45,-0.46,0.42,
0.838,0.82,-0.53,1.29,-0.46,-0.50,0.45,
0.839,0.82,-0.53,1.29,-0.47,-0.51,0.46,
0.843,0.82,-0.53,1.29,-0.48,-0.54,0.48,
0.844,1.18,-0.40,1.70,-0.48,-0.54,0.48,
0.844,1.18,-0.40,1.70,-0.50,-0.58,0.49,
0.871,1.18,-0.40,1.70,-0.51,-0.62,0.50,
0.871,1.18,-0.40,1.70,-0.54,-0.69,0.51,
0.871,1.18,-0.40,1.70,-0.55,-0.71,0.51,
0.872,1.18,-0.40,1.70,-0.56,-0.76,0.51,
0.872,1.68,-0.38,2.52,-0.56,-0.76,0.51,
0.872,1.68,-0.38,2.52,-0.58,-0.80,0.51,
0.872,1.68,-0.38,2.52,-0.59,-0.85,0.51,
0.872,1.68,-0.38,2.52,-0.62,-0.92,0.50,
0.873,1.68,-0.38,2.52,-0.62,-0.95,0.49,
0.873,1.68,-0.38,2.52,-0.64,-0.99,0.48,
0.873,2.18,-0.29,3.49,-0.64,-0.99,0.48,
0.873,2.18,-0.29,3.49,-0.65,-1.04,0.47,
0.873,2.18,-0.29,3.49,-0.66,-1.09,0.46,
0.873,2.18,-0.29,3.49,-0.68,-1.16,0.44,
0.874,2.18,-0.29,3.49,-0.68,-1.19,0.43,
0.874,2.18,-0.29,3.49,-0.69,-1.23,0.41,
0.874,2.70,-0.28,4.42,-0.69,-1.23,0.41,
0.874,2.70,-0.28,4.42,-0.70,-1.27,0.40,
0.875,2.70,-0.28,4.42,-0.70,-1.30,0.38,
0.881,2.70,-0.28,4.42,-0.70,-1.35,0.35,
0.881,2.70,-0.28,4.42,-0.70,-1.36,0.34,
0.881,2.70,-0.28,4.42,-0.69,-1.38,0.32,
0.883,2.99,-0.14,5.28,-0.69,-1.38,0.32,
0.883,2.99,-0.14,5.28,-0.68,-1.40,0.30,
0.885,2.99,-0.14,5.28,-0.67,-1.42,0.29,
0.891,2.99,-0.14,5.28,-0.65,-1.44,0.26,
0.892,2.99,-0.14,5.28,-0.65,-1.44,0.25,
0.893,2.99,-0.14,5.28,-0.63,-1.44,0.23,
0.894,3.15,0.03,6.20,-0.63,-1.44,0.23,
0.894,3.15,0.03,6.20,-0.61,-1.43,0.22,
0.897,3.15,0.03,6.20,-0.58,-1.41,0.21,
0.898,3.15,0.03,6.20,-0.55,-1.36,0.19,
0.9,3.15,0.03,6.20,-0.53,-1.34,0.18,
0.902,3.15,0.03,6.20,-0.51,-1.29,0.17,
0.904,3.09,0.13,6.72,-0.51,-1.29,0.17,
0.904,3.09,0.13,6.72,-0.48,-1.23,0.16,
0.905,3.09,0.13,6.72,-0.45,-1.17,0.16,
0.908,3.09,0.13,6.72,-0.42,-1.07,0.16,
0.909,3.09,0.13,6.72,-0.41,-1.03,0.16,
0.912,3.09,0.13,6.72,-0.39,-0.96,0.17,
0.914,2.69,0.12,6.47,-0.39,-0.96,0.17,
0.914,2.69,0.12,6.47,-0.37,-0.87,0.17,
0.916,2.69,0.12,6.47,-0.36,-0.78,0.18,
0.918,2.69,0.12,6.47,-0.37,-0.65,0.20,
0.919,2.69,0.12,6.47,-0.37,-0.60,0.21,
0.924,2.69,0.12,6.47,-0.38,-0.51,0.22,
0.925,2.07,0.31,5.32,-0.38,-0.51,0.22,
0.925,2.07,0.31,5.32,-0.40,-0.42,0.23,
0.925,2.07,0.31,5.32,-0.42,-0.33,0.24,
0.945,2.07,0.31,5.32,-0.47,-0.20,0.25,
0.945,2.07,0.31,5.32,-0.49,-0.16,0.25,
0.945,2.07,0.31,5.32,-0.53,-0.09,0.25,
0.945,1.98,0.44,4.13,-0.53,-0.09,0.25,
0.946,1.98,0.44,4.13,-0.57,-0.02,0.25,
0.946,1.98,0.44,4.13,-0.61,0.05,0.26,
0.946,1.98,0.44,4.13,-0.68,0.13,0.26,
0.946,1.98,0.44,4.13,-0.70,0.15,0.26,
0.947,1.98,0.44,4.13,-0.75,0.20,0.25,
0.947,1.89,0.50,3.36,-0.75,0.20,0.25,
0.947,1.89,0.50,3.36,-0.79,0.24,0.25,
0.948,1.89,0.50,3.36,-0.83,0.27,0.24,
0.958,1.89,0.50,3.36,-0.88,0.31,0.24,
0.959,1.89,0.50,3.36,-0.89,0.32,0.24,
0.959,1.89,0.50,3.36,-0.93,0.34,0.23,
0.96,1.88,0.67,3.25,-0.93,0.34,0.23,
0.96,1.88,0.67,3.25,-0.95,0.36,0.23,
0.96,1.88,0.67,3.25,-0.97,0.38,0.22,
0.96,1.88,0.67,3.25,-1.00,0.39,0.21,
0.961,1.88,0.67,3.25,-1.01,0.40,0.20,
0.982,1.88,0.67,3.25,-1.02,0.40,0.19,
0.982,1.91,0.76,3.50,-1.02,0.40,0.19,
0.982,1.91,0.76,3.50,-1.03,0.40,0.19,
0.983,1.91,0.76,3.50,-1.03,0.39,0.17,
0.983,1.91,0.76,3.50,-1.02,0.37,0.15,
0.983,1.91,0.76,3.50,-1.02,0.36,0.15,
0.983,1.91,0.76,3.50,-1.01,0.34,0.13,
0.983,2.34,0.59,4.01,-1.01,0.34,0.13,
0.984,2.34,0.59,4.01,-1.00,0.32,0.12,
0.984,2.34,0.59,4.01,-0.98,0.29,0.10,
0.984,2.34,0.59,4.01,-0.94,0.25,0.08,
0.984,2.34,0.59,4.01,-0.92,0.23,0.07,
0.984,2.34,0.59,4.01,-0.89,0.19,0.04,
0.984,2.84,0.43,4.77,-0.89,0.19,0.04,
0.985,2.84,0.43,4.77,-0.85,0.15,0.02,
0.985,2.84,0.43,4.77,-0.81,0.11,0.00,
0.989,2.84,0.43,4.77,-0.73,0.05,-0.04,
0.99,2.84,0.43,4.77,-0.71,0.03,-0.05,
0.991,2.84,0.43,4.77,-0.64,-0.01,-0.07,
0.993,3.35,0.29,5.76,-0.64,-0.01,-0.07,
0.993,3.35,0.29,5.76,-0.58,-0.05,-0.09,
0.996,3.35,0.29,5.76,-0.50,-0.08,-0.12,
0.998,3.35,0.29,5.76,-0.38,-0.13,-0.15,
1.0,3.35,0.29,5.76,-0.30,-0.17,-0.17,
1.001,3.35,0.29,5.76,-0.25,-0.18,-0.18,
1.003,3.22,0.16,6.66,-0.25,-0.18,-0.18,
1.003,3.22,0.16,6.66,-0.16,-0.20,-0.19,
1.005,3.22,0.16,6.66,-0.06,-0.22,-0.21,
1.008,3.22,0.16,6.66,0.08,-0.25,-0.23,
1.009,3.22,0.16,6.66,0.13,-0.25,-0.24,
1.011,3.22,0.16,6.66,0.22,-0.26,-0.25,
1.013,3.17,-0.02,6.85,0.22,-0.26,-0.25,
1.014,3.17,-0.02,6.85,0.32,-0.27,-0.25,
1.015,3.17,-0.02,6.85,0.41,-0.28,-0.26,
1.018,3.17,-0.02,6.85,0.55,-0.29,-0.25,
1.019,3.17,-0.02,6.85,0.59,-0.30,-0.25,
1.021,3.17,-0.02,6.85,0.67,-0.30,-0.25,
1.023,2.85,-0.33,6.39,0.67,-0.30,-0.25,
1.023,2.85,-0.33,6.39,0.75,-0.30,-0.24,
1.025,2.85,-0.33,6.39,0.83,-0.29,-0.23,
1.028,2.85,-0.33,6.39,0.93,-0.28,-0.21,
1.029,2.85,-0.33,6.39,0.97,-0.28,-0.20,
1.031,2.85,-0.33,6.39,1.03,-0.27,-0.18,
1.033,2.70,-0.69,5.42,1.03,-0.27,-0.18,
1.033,2.70,-0.69,5.42,1.08,-0.26,-0.16,
1.035,2.70,-0.69,5.42,1.14,-0.26,-0.15,
1.038,2.70,-0.69,5.42,1.20,-0.26,-0.13,
1.039,2.70,-0.69,5.42,1.22,-0.26,-0.13,
1.041,2.70,-0.69,5.42,1.25,-0.26,-0.12,
1.043,2.74,-0.99,4.15,1.25,-0.26,-0.12,
1.043,2.74,-0.99,4.15,1.27,-0.26,-0.12,
1.045,2.74,-0.99,4.15,1.30,-0.26,-0.11,
1.048,2.74,-0.99,4.15,1.32,-0.26,-0.11,
1.049,2.74,-0.99,4.15,1.33,-0.27,-0.11,
1.051,2.74,-0.99,4.15,1.34,-0.27,-0.12,
1.053,3.02,-1.23,2.93,1.34,-0.27,-0.12,
1.053,3.02,-1.23,2.93,1.35,-0.27,-0.12,
1.055,3.02,-1.23,2.93,1.36,-0.27,-0.13,
1.058,3.02,-1.23,2.93,1.36,-0.28,-0.14,
1.059,3.02,-1.23,2.93,1.36,-0.27,-0.15,
1.068,3.02,-1.23,2.93,1.36,-0.27,-0.16,
1.069,3.13,-1.38,1.93,1.36,-0.27,-0.16,
1.069,3.13,-1.38,1.93,1.37,-0.27,-0.17,
1.069,3.13,-1.38,1.93,1.37,-0.27,-0.19,
1.07,3.13,-1.38,1.93,1.36,-0.27,-0.21,
1.07,3.13,-1.38,1.93,1.36,-0.28,-0.22,
1.071,3.13,-1.38,1.93,1.36,-0.28,-0.24,
1.073,3.49,-1.42,1.32,1.36,-0.28,-0.24,
1.074,3.49,-1.42,1.32,1.36,-0.28,-0.26,
1.075,3.49,-1.42,1.32,1.36,-0.28,-0.28,
1.091,3.49,-1.42,1.32,1.35,-0.28,-0.31,
1.092,3.49,-1.42,1.32,1.35,-0.28,-0.32,
1.092,3.49,-1.42,1.32,1.35,-0.28,-0.34,
1.093,3.44,-1.47,0.81,1.35,-0.28,-0.34,
1.093,3.44,-1.47,0.81,1.34,-0.28,-0.36,
1.094,3.44,-1.47,0.81,1.34,-0.28,-0.38,
1.094,3.44,-1.47,0.81,1.34,-0.28,-0.41,
1.095,3.44,-1.47,0.81,1.34,-0.28,-0.42,
1.095,3.44,-1.47,0.81,1.34,-0.28,-0.44,
1.096,3.46,-1.60,0.67,1.34,-0.28,-0.44,
1.127,3.46,-1.60,0.67,1.34,-0.28,-0.46,
1.128,3.46,-1.60,0.67,1.34,-0.27,-0.48,
1.128,3.46,-1.60,0.67,1.35,-0.25,-0.50,
1.128,3.46,-1.60,0.67,1.35,-0.25,-0.51,
1.128,3.46,-1.60,0.67,1.36,-0.23,-0.52,
1.129,3.11,-1.76,0.65,1.36,-0.23,-0.52,
1.129,3.11,-1.76,0.65,1.36,-0.21,-0.53,
1.129,3.11,-1.76,0.65,1.37,-0.19,-0.54,
1.13,3.11,-1.76,0.65,1.38,-0.16,-0.55,
1.13,3.11,-1.76,0.65,1.39,-0.15,-0.55,
1.13,3.11,-1.76,0.65,1.39,-0.12,-0.56,
1.13,2.89,-2.01,0.44,1.39,-0.12,-0.56,
1.131,2.89,-2.01,0.44,1.40,-0.10,-0.57,
1.131,2.89,-2.01,0.44,1.40,-0.08,-0.58,
1.131,2.89,-2.01,0.44,1.40,-0.05,-0.60,
1.131,2.89,-2.01,0.44,1.40,-0.05,-0.60,
1.132,2.89,-2.01,0.44,1.39,-0.03,-0.61,
1.132,2.89,-2.01,0.44,1.37,0.02,-0.63,
1.132,2.89,-2.01,0.44,1.37,0.02,-0.63,
1.132,2.52,-2.13,-0.82,1.37,0.02,-0.63,
1.133,2.52,-2.13,-0.82,1.34,0.05,-0.65,
1.133,2.52,-2.13,-0.82,1.33,0.06,-0.65,
1.133,2.52,-2.13,-0.82,1.31,0.09,-0.66,
1.133,2.36,-2.22,-1.54,1.31,0.09,-0.66,
1.134,2.36,-2.22,-1.54,1.28,0.10,-0.67,
1.14,2.36,-2.22,-1.54,1.25,0.12,-0.67,
1.14,2.36,-2.22,-1.54,1.20,0.15,-0.68,
1.14,2.36,-2.22,-1.54,1.18,0.16,-0.69,
1.144,2.36,-2.22,-1.54,1.14,0.17,-0.69,
1.145,1.85,-2.22,-2.60,1.14,0.17,-0.69,
1.145,1.85,-2.22,-2.60,1.10,0.19,-0.70,
1.152,1.85,-2.22,-2.60,1.06,0.20,-0.70,
1.152,1.85,-2.22,-2.60,0.99,0.22,-0.70,
1.155,1.85,-2.22,-2.60,0.97,0.23,-0.69,
1.155,1.85,-2.22,-2.60,0.93,0.24,-0.69,
1.155,1.37,-2.31,-3.27,0.93,0.24,-0.69,
1.156,1.37,-2.31,-3.27,0.89,0.25,-0.68,
1.156,1.37,-2.31,-3.27,0.85,0.26,-0.67,
1.16,1.37,-2.31,-3.27,0.80,0.27,-0.66,
1.161,1.37,-2.31,-3.27,0.78,0.27,-0.65,
1.164,1.37,-2.31,-3.27,0.74,0.28,-0.64,
1.164,0.89,-2.36,-3.64,0.74,0.28,-0.64,
1.165,0.89,-2.36,-3.64,0.70,0.29,-0.63,
1.167,0.89,-2.36,-3.64,0.67,0.30,-0.62,
1.168,0.89,-2.36,-3.64,0.62,0.32,-0.61,
1.169,0.89,-2.36,-3.64,0.60,0.32,-0.60,
1.171,0.89,-2.36,-3.64,0.57,0.33,-0.60,
1.173,0.74,-2.47,-4.01,0.57,0.33,-0.60,
1.174,0.74,-2.47,-4.01,0.53,0.35,-0.59,
1.175,0.74,-2.47,-4.01,0.50,0.37,-0.59,
1.178,0.74,-2.47,-4.01,0.44,0.39,-0.59,
1.18,0.74,-2.47,-4.01,0.43,0.40,-0.59,
1.182,0.74,-2.47,-4.01,0.39,0.43,-0.59,
1.184,0.76,-2.41,-4.40,0.39,0.43,-0.59,
1.185,0.76,-2.41,-4.40,0.36,0.44,-0.60,
1.185,0.76,-2.41,-4.40,0.32,0.46,-0.60,
1.188,0.76,-2.41,-4.40,0.27,0.49,-0.61,
1.189,0.76,-2.41,-4.40,0.26,0.49,-0.61,
1.191,0.76,-2.41,-4.40,0.22,0.50,-0.63,
1.2,0.98,-2.41,-4.73,0.22,0.50,-0.63,
1.201,0.98,-2.41,-4.73,0.19,0.50,-0.64,
1.201,0.98,-2.41,-4.73,0.16,0.51,-0.65,
1.202,0.98,-2.41,-4.73,0.12,0.50,-0.68,
1.204,0.98,-2.41,-4.73,0.11,0.50,-0.68,
1.204,0.98,-2.41,-4.73,0.08,0.50,-0.70,
1.205,1.14,-2.22,-4.92,0.08,0.50,-0.70,
1.206,1.14,-2.22,-4.92,0.06,0.49,-0.72,
1.206,1.14,-2.22,-4.92,0.04,0.48,-0.74,
1.208,1.14,-2.22,-4.92,0.00,0.47,-0.76,
1.21,1.14,-2.22,-4.92,-0.01,0.46,-0.77,
1.227,1.14,-2.22,-4.92,-0.03,0.45,-0.79,
1.228,1.15,-2.10,-5.09,-0.03,0.45,-0.79,
1.228,1.15,-2.10,-5.09,-0.05,0.44,-0.80,
1.228,1.15,-2.10,-5.09,-0.07,0.42,-0.82,
1.228,1.15,-2.10,-5.09,-0.10,0.40,-0.84,
1.228,1.15,-2.10,-5.09,-0.11,0.38,-0.84,
1.229,1.15,-2.10,-5.09,-0.13,0.36,-0.85,
1.229,0.85,-1.99,-5.20,-0.13,0.36,-0.85,
1.229,0.85,-1.99,-5.20,-0.15,0.34,-0.86,
1.229,0.85,-1.99,-5.20,-0.17,0.31,-0.86,
1.229,0.85,-1.99,-5.20,-0.19,0.28,-0.86,
1.23,0.85,-1.99,-5.20,-0.20,0.26,-0.86,
1.231,0.85,-1.99,-5.20,-0.22,0.23,-0.86,
1.233,0.52,-2.02,-5.26,-0.22,0.23,-0.86,
1.234,0.52,-2.02,-5.26,-0.24,0.21,-0.86,
1.235,0.52,-2.02,-5.26,-0.25,0.18,-0.85,
1.238,0.52,-2.02,-5.26,-0.27,0.13,-0.83,
1.239,0.52,-2.02,-5.26,-0.28,0.12,-0.83,
1.241,0.52,-2.02,-5.26,-0.29,0.09,-0.82,
1.244,0.20,-2.08,-5.09,-0.29,0.09,-0.82,
1.244,0.20,-2.08,-5.09,-0.30,0.06,-0.80,
1.246,0.20,-2.08,-5.09,-0.30,0.04,-0.78,
1.248,0.20,-2.08,-5.09,-0.31,-0.00,-0.75,
1.249,0.20,-2.08,-5.09,-0.31,-0.01,-0.74,
1.251,0.20,-2.08,-5.09,-0.31,-0.03,-0.71,
1.253,0.02,-2.18,-4.65,-0.31,-0.03,-0.71,
1.253,0.02,-2.18,-4.65,-0.31,-0.05,-0.68,
1.255,0.02,-2.18,-4.65,-0.30,-0.07,-0.65,
1.258,0.02,-2.18,-4.65,-0.30,-0.08,-0.60,
1.259,0.02,-2.18,-4.65,-0.29,-0.08,-0.58,
1.281,0.02,-2.18,-4.65,-0.29,-0.08,-0.54,
1.281,-0.38,-2.01,-4.38,-0.29,-0.08,-0.54,
1.282,-0.38,-2.01,-4.38,-0.28,-0.07,-0.50,
1.282,-0.38,-2.01,-4.38,-0.27,-0.06,-0.46,
1.282,-0.38,-2.01,-4.38,-0.26,-0.04,-0.40,
1.282,-0.38,-2.01,-4.38,-0.26,-0.03,-0.39,
1.283,-0.38,-2.01,-4.38,-0.25,-0.02,-0.35,
1.283,-0.37,-1.79,-4.26,-0.25,-0.02,-0.35,
1.283,-0.37,-1.79,-4.26,-0.24,-0.01,-0.32,
1.284,-0.37,-1.79,-4.26,-0.24,0.00,-0.30,
1.284,-0.37,-1.79,-4.26,-0.23,0.02,-0.27,
1.284,-0.37,-1.79,-4.26,-0.23,0.02,-0.26,
1.284,-0.37,-1.79,-4.26,-0.22,0.03,-0.24,
1.285,0.27,-1.63,-4.16,-0.22,0.03,-0.24,
1.285,0.27,-1.63,-4.16,-0.22,0.04,-0.23,
1.285,0.27,-1.63,-4.16,-0.21,0.06,-0.22,
1.29,0.27,-1.63,-4.16,-0.21,0.09,-0.21,
1.291,0.27,-1.63,-4.16,-0.21,0.10,-0.21,
1.291,0.27,-1.63,-4.16,-0.20,0.12,-0.21,
1.297,0.87,-1.45,-4.11,-0.20,0.12,-0.21,
1.298,0.87,-1.45,-4.11,-0.20,0.14,-0.21,
1.298,0.87,-1.45,-4.11,-0.20,0.17,-0.21,
1.298,0.87,-1.45,-4.11,-0.20,0.20,-0.22,
1.299,0.87,-1.45,-4.11,-0.20,0.22,-0.22,
1.301,0.87,-1.45,-4.11,-0.21,0.23,-0.23,
1.304,1.21,-1.22,-4.27,-0.21,0.23,-0.23,
1.304,1.21,-1.22,-4.27,-0.22,0.25,-0.24,
1.305,1.21,-1.22,-4.27,-0.22,0.26,-0.24,
1.308,1.21,-1.22,-4.27,-0.24,0.27,-0.26,
1.309,1.21,-1.22,-4.27,-0.24,0.27,-0.26,
1.311,1.21,-1.22,-4.27,-0.25,0.27,-0.27,
1.314,1.52,-1.00,-4.32,-0.25,0.27,-0.27,
1.314,1.52,-1.00,-4.32,-0.27,0.27,-0.28,
1.315,1.52,-1.00,-4.32,-0.28,0.27,-0.29,
1.318,1.52,-1.00,-4.32,-0.30,0.26,-0.31,
1.319,1.52,-1.00,-4.32,-0.30,0.25,-0.32,
1.321,1.52,-1.00,-4.32,-0.32,0.25,-0.33,
1.323,1.63,-0.66,-4.28,-0.32,0.25,-0.33,
1.323,1.63,-0.66,-4.28,-0.33,0.23,-0.34,
1.325,1.63,-0.66,-4.28,-0.34,0.22,-0.36,
1.329,1.63,-0.66,-4.28,-0.37,0.19,-0.37,
1.329,1.63,-0.66,-4.28,-0.37,0.18,-0.38,
1.331,1.63,-0.66,-4.28,-0.39,0.15,-0.39,
1.336,1.69,-0.13,-3.97,-0.39,0.15,-0.39,
1.336,1.69,-0.13,-3.97,-0.40,0.12,-0.41,
1.336,1.69,-0.13,-3.97,-0.42,0.09,-0.42,
1.338,1.69,-0.13,-3.97,-0.43,0.04,-0.44,
1.339,1.69,-0.13,-3.97,-0.44,0.02,-0.45,
1.341,1.69,-0.13,-3.97,-0.45,-0.01,-0.46,
1.35,1.49,0.25,-3.32,-0.45,-0.01,-0.46,
1.35,1.49,0.25,-3.32,-0.46,-0.05,-0.47,
1.35,1.49,0.25,-3.32,-0.46,-0.08,-0.49,
1.35,1.49,0.25,-3.32,-0.47,-0.12,-0.50,
1.351,1.49,0.25,-3.32,-0.47,-0.15,-0.50,
1.352,1.49,0.25,-3.32,-0.46,-0.16,-0.50,
1.358,0.92,0.47,-2.36,-0.46,-0.16,-0.50,
1.358,0.92,0.47,-2.36,-0.46,-0.17,-0.50,
1.359,0.92,0.47,-2.36,-0.46,-0.18,-0.50,
1.359,0.92,0.47,-2.36,-0.45,-0.19,-0.48,
1.381,0.92,0.47,-2.36,-0.45,-0.19,-0.47,
1.382,0.92,0.47,-2.36,-0.44,-0.19,-0.45,
1.382,0.24,0.56,-1.79,-0.44,-0.19,-0.45,
1.382,0.24,0.56,-1.79,-0.43,-0.18,-0.43,
1.382,0.24,0.56,-1.79,-0.43,-0.18,-0.40,
1.383,0.24,0.56,-1.79,-0.42,-0.18,-0.37,
1.383,0.24,0.56,-1.79,-0.42,-0.18,-0.35,
1.383,0.24,0.56,-1.79,-0.42,-0.18,-0.33,
1.383,-0.16,0.81,-1.43,-0.42,-0.18,-0.33,
1.383,-0.16,0.81,-1.43,-0.42,-0.19,-0.31,
1.384,-0.16,0.81,-1.43,-0.42,-0.19,-0.29,
1.384,-0.16,0.81,-1.43,-0.43,-0.21,-0.27,
1.384,-0.16,0.81,-1.43,-0.43,-0.22,-0.26,
1.384,-0.16,0.81,-1.43,-0.43,-0.22,-0.25,
1.384,0.01,1.12,-1.18,-0.43,-0.22,-0.25,
1.384,0.01,1.12,-1.18,-0.43,-0.23,-0.24,
1.385,0.01,1.12,-1.18,-0.44,-0.23,-0.24,
1.388,0.01,1.12,-1.18,-0.45,-0.24,-0.24,
1.39,0.01,1.12,-1.18,-0.45,-0.24,-0.24,
1.391,0.01,1.12,-1.18,-0.46,-0.24,-0.24,
1.395,0.29,1.56,-0.98,-0.46,-0.24,-0.24,
1.395,0.29,1.56,-0.98,-0.47,-0.25,-0.25,
1.395,0.29,1.56,-0.98,-0.48,-0.25,-0.26,
1.398,0.29,1.56,-0.98,-0.49,-0.27,-0.27,
1.399,0.29,1.56,-0.98,-0.49,-0.28,-0.28,
1.401,0.29,1.56,-0.98,-0.50,-0.29,-0.29,
1.403,0.77,1.86,-0.58,-0.50,-0.29,-0.29,
1.404,0.77,1.86,-0.58,-0.51,-0.31,-0.30,
1.405,0.77,1.86,-0.58,-0.53,-0.33,-0.32,
1.41,0.77,1.86,-0.58,-0.54,-0.35,-0.35,
1.411,0.77,1.86,-0.58,-0.55,-0.36,-0.35,
1.412,0.77,1.86,-0.58,-0.56,-0.38,-0.37,
1.414,1.05,2.14,0.05,-0.56,-0.38,-0.37,
1.415,1.05,2.14,0.05,-0.57,-0.39,-0.39,
1.417,1.05,2.14,0.05,-0.58,-0.41,-0.40,
1.418,1.05,2.14,0.05,-0.60,-0.42,-0.42,
1.419,1.05,2.14,0.05,-0.60,-0.43,-0.43,
1.421,1.05,2.14,0.05,-0.61,-0.44,-0.44,
1.424,0.92,2.19,0.91,-0.61,-0.44,-0.44,
1.424,0.92,2.19,0.91,-0.62,-0.44,-0.45,
1.425,0.92,2.19,0.91,-0.63,-0.44,-0.45,
1.444,0.92,2.19,0.91,-0.63,-0.45,-0.46,
1.445,0.92,2.19,0.91,-0.64,-0.44,-0.45,
1.445,0.92,2.19,0.91,-0.63,-0.44,-0.45,
1.445,0.61,2.17,1.95,-0.63,-0.44,-0.45,
1.445,0.61,2.17,1.95,-0.64,-0.43,-0.44,
1.446,0.61,2.17,1.95,-0.64,-0.42,-0.43,
1.446,0.61,2.17,1.95,-0.63,-0.39,-0.42,
1.446,0.61,2.17,1.95,-0.63,-0.38,-0.41,
1.446,0.61,2.17,1.95,-0.63,-0.36,-0.39,
1.447,0.14,2.14,2.81,-0.63,-0.36,-0.39,
1.447,0.14,2.14,2.81,-0.63,-0.33,-0.38,
1.447,0.14,2.14,2.81,-0.63,-0.31,-0.36,
1.45,0.14,2.14,2.81,-0.63,-0.27,-0.34,
1.45,0.14,2.14,2.81,-0.63,-0.26,-0.33,
1.453,0.14,2.14,2.81,-0.63,-0.23,-0.31,
1.453,-0.16,2.18,3.36,-0.63,-0.23,-0.31,
1.454,-0.16,2.18,3.36,-0.63,-0.21,-0.29,
1.456,-0.16,2.18,3.36,-0.63,-0.18,-0.28,
1.458,-0.16,2.18,3.36,-0.62,-0.14,-0.25,
1.46,-0.16,2.18,3.36,-0.62,-0.13,-0.24,
1.461,-0.16,2.18,3.36,-0.62,-0.10,-0.22,
1.464,-0.30,2.16,3.82,-0.62,-0.10,-0.22,
1.464,-0.30,2.16,3.82,-0.61,-0.07,-0.20,
1.465,-0.30,2.16,3.82,-0.60,-0.04,-0.18,
1.468,-0.30,2.16,3.82,-0.59,-0.00,-0.14,
1.469,-0.30,2.16,3.82,-0.59,0.01,-0.13,
1.471,-0.30,2.16,3.82,-0.57,0.04,-0.11,
1.473,-0.40,2.15,4.14,-0.57,0.04,-0.11,
1.474,-0.40,2.15,4.14,-0.56,0.06,-0.09,
1.476,-0.40,2.15,4.14,-0.55,0.08,-0.07,
1.478,-0.40,2.15,4.14,-0.53,0.11,-0.04,
1.48,-0.40,2.15,4.14,-0.52,0.11,-0.03,
1.482,-0.40,2.15,4.14,-0.51,0.13,-0.02,
1.483,-0.42,2.14,4.32,-0.51,0.13,-0.02,
1.484,-0.42,2.14,4.32,-0.49,0.14,-0.00,
1.485,-0.42,2.14,4.32,-0.47,0.15,0.01,
1.488,-0.42,2.14,4.32,-0.44,0.16,0.03,
1.489,-0.42,2.14,4.32,-0.43,0.17,0.03,
1.491,-0.42,2.14,4.32,-0.41,0.18,0.05,
1.498,-0.40,2.27,4.31,-0.41,0.18,0.05,
1.499,-0.40,2.27,4.31,-0.39,0.19,0.05,
1.504,-0.40,2.27,4.31,-0.36,0.21,0.06,
1.504,-0.40,2.27,4.31,-0.33,0.22,0.08,
1.504,-0.40,2.27,4.31,-0.32,0.22,0.09,
1.505,-0.40,2.27,4.31,-0.30,0.22,0.10,
1.507,-0.52,2.32,4.02,-0.30,0.22,0.10,
1.508,-0.52,2.32,4.02,-0.29,0.22,0.11,
1.508,-0.52,2.32,4.02,-0.27,0.21,0.12,
1.522,-0.52,2.32,4.02,-0.25,0.18,0.14,
1.523,-0.52,2.32,4.02,-0.25,0.18,0.14,
1.523,-0.52,2.32,4.02,-0.24,0.16,0.15,
1.523,-0.78,2.37,3.63,-0.24,0.16,0.15,
1.523,-0.78,2.37,3.63,-0.24,0.13,0.17,
1.523,-0.78,2.37,3.63,-0.23,0.11,0.18,
1.524,-0.78,2.37,3.63,-0.22,0.08,0.20,
1.524,-0.78,2.37,3.63,-0.22,0.07,0.20,
1.524,-0.78,2.37,3.63,-0.22,0.04,0.22,
1.524,-0.98,2.30,3.39,-0.22,0.04,0.22,
1.524,-0.98,2.30,3.39,-0.22,0.02,0.23,
1.528,-0.98,2.30,3.39,-0.21,-0.01,0.25,
1.528,-0.98,2.30,3.39,-0.21,-0.05,0.27,
1.529,-0.98,2.30,3.39,-0.21,-0.07,0.28,
1.531,-0.98,2.30,3.39,-0.20,-0.09,0.29,
1.533,-1.07,2.17,3.52,-0.20,-0.09,0.29,
1.533,-1.07,2.17,3.52,-0.19,-0.12,0.31,
1.535,-1.07,2.17,3.52,-0.19,-0.15,0.33,
1.538,-1.07,2.17,3.52,-0.17,-0.18,0.35,
1.539,-1.07,2.17,3.52,-0.17,-0.20,0.36,
1.541,-1.07,2.17,3.52,-0.16,-0.22,0.37,
1.544,-1.06,2.11,3.84,-0.16,-0.22,0.37,
1.544,-1.06,2.11,3.84,-0.15,-0.24,0.39,
1.545,-1.06,2.11,3.84,-0.15,-0.27,0.41,
1.548,-1.06,2.11,3.84,-0.14,-0.29,0.43,
1.549,-1.06,2.11,3.84,-0.14,-0.30,0.44,
1.551,-1.06,2.11,3.84,-0.15,-0.31,0.46,
1.553,-1.07,2.11,4.02,-0.15,-0.31,0.46,
1.554,-1.07,2.11,4.02,-0.15,-0.31,0.47,
1.555,-1.07,2.11,4.02,-0.16,-0.31,0.49,
1.559,-1.07,2.11,4.02,-0.18,-0.30,0.51,
1.561,-1.07,2.11,4.02,-0.18,-0.30,0.52,
1.562,-1.07,2.11,4.02,-0.20,-0.29,0.53,
1.565,-0.90,1.98,4.13,-0.20,-0.29,0.53,
1.565,-0.90,1.98,4.13,-0.22,-0.28,0.54,
1.565,-0.90,1.98,4.13,-0.23,-0.26,0.55,
1.568,-0.90,1.98,4.13,-0.26,-0.23,0.57,
1.569,-0.90,1.98,4.13,-0.27,-0.22,0.58,
1.571,-0.90,1.98,4.13,-0.28,-0.19,0.59,
1.573,-0.70,1.80,4.48,-0.28,-0.19,0.59,
1.574,-0.70,1.80,4.48,-0.30,-0.16,0.61,
1.576,-0.70,1.80,4.48,-0.31,-0.13,0.62,
1.578,-0.70,1.80,4.48,-0.33,-0.08,0.64,
1.579,-0.70,1.80,4.48,-0.33,-0.06,0.65,
1.581,-0.70,1.80,4.48,-0.34,-0.03,0.66,
1.583,-0.55,1.61,5.17,-0.34,-0.03,0.66,
1.583,-0.55,1.61,5.17,-0.34,0.01,0.68,
1.585,-0.55,1.61,5.17,-0.34,0.05,0.69,
1.588,-0.55,1.61,5.17,-0.33,0.11,0.71,
1.589,-0.55,1.61,5.17,-0.33,0.13,0.71,
1.591,-0.55,1.61,5.17,-0.31,0.17,0.73,
1.596,-0.27,1.34,6.03,-0.31,0.17,0.73,
1.618,-0.27,1.34,6.03,-0.29,0.21,0.73,
1.619,-0.27,1.34,6.03,-0.27,0.25,0.75,
1.619,-0.27,1.34,6.03,-0.22,0.31,0.77,
1.619,-0.27,1.34,6.03,-0.20,0.33,0.77,
1.619,-0.27,1.34,6.03,-0.17,0.37,0.79,
1.62,-0.16,0.99,6.76,-0.17,0.37,0.79,
1.62,-0.16,0.99,6.76,-0.12,0.40,0.80,
1.62,-0.16,0.99,6.76,-0.08,0.43,0.82,
1.62,-0.16,0.99,6.76,-0.01,0.48,0.85,
1.62,-0.16,0.99,6.76,0.02,0.49,0.86,
1.621,-0.16,0.99,6.76,0.08,0.52,0.88,
1.621,-0.31,0.73,6.98,0.08,0.52,0.88,
1.621,-0.31,0.73,6.98,0.13,0.54,0.90,
1.621,-0.31,0.73,6.98,0.19,0.56,0.93,
1.621,-0.31,0.73,6.98,0.29,0.58,0.96,
1.622,-0.31,0.73,6.98,0.33,0.58,0.97,
1.631,-0.54,0.57,6.63,0.33,0.58,0.97,
1.632,-0.54,0.57,6.63,0.46,0.60,1.01,
1.632,-0.54,0.57,6.63,0.53,0.60,1.03,
1.632,-0.54,0.57,6.63,0.53,0.60,1.03,
1.633,-0.54,0.57,6.63,0.63,0.60,1.06,
1.633,-0.54,0.57,6.63,0.66,0.60,1.07,
1.633,-0.54,0.57,6.63,0.72,0.59,1.09,
1.67,-0.59,0.45,5.68,0.72,0.59,1.09,
1.671,-0.59,0.45,5.68,0.78,0.58,1.10,
1.671,-0.59,0.45,5.68,0.84,0.56,1.12,
1.671,-0.59,0.45,5.68,0.92,0.52,1.14,
1.671,-0.59,0.45,5.68,0.94,0.51,1.14,
1.671,-0.59,0.45,5.68,0.99,0.48,1.16,
1.672,-0.55,0.36,4.42,0.99,0.48,1.16,
1.672,-0.55,0.36,4.42,1.03,0.44,1.17,
1.672,-0.55,0.36,4.42,1.07,0.41,1.17,
1.672,-0.55,0.36,4.42,1.12,0.35,1.19,
1.672,-0.55,0.36,4.42,1.15,0.30,1.19,
1.673,-0.55,0.36,4.42,1.17,0.26,1.18,
1.673,-0.31,0.40,3.12,1.17,0.26,1.18,
1.673,-0.31,0.40,3.12,1.18,0.23,1.19,
1.673,-0.31,0.40,3.12,1.20,0.19,1.18,
1.673,-0.31,0.40,3.12,1.23,0.12,1.17,
1.674,-0.31,0.40,3.12,1.24,0.10,1.17,
1.674,-0.31,0.40,3.12,1.26,0.06,1.16,
1.674,0.05,0.41,2.20,1.26,0.06,1.16,
1.674,0.05,0.41,2.20,1.27,0.01,1.15,
1.674,0.05,0.41,2.20,1.29,-0.02,1.14,
1.674,0.05,0.41,2.20,1.31,-0.08,1.12,
1.675,0.05,0.41,2.20,1.32,-0.09,1.12,
1.675,0.05,0.41,2.20,1.33,-0.12,1.11,
1.675,0.22,0.33,1.69,1.33,-0.12,1.11,
1.675,0.22,0.33,1.69,1.34,-0.15,1.10,
1.675,0.22,0.33,1.69,1.36,-0.17,1.08,
1.679,0.22,0.33,1.69,1.38,-0.20,1.07,
1.679,0.22,0.33,1.69,1.38,-0.21,1.06,
1.682,0.22,0.33,1.69,1.39,-0.23,1.04,
1.683,0.31,0.21,1.28,1.39,-0.23,1.04,
1.684,0.31,0.21,1.28,1.40,-0.25,1.03,
1.685,0.31,0.21,1.28,1.40,-0.26,1.02,
1.688,0.31,0.21,1.28,1.41,-0.27,1.00,
1.689,0.31,0.21,1.28,1.41,-0.27,0.99,
1.692,0.31,0.21,1.28,1.40,-0.27,0.98,
1.695,0.44,0.06,0.74,1.40,-0.27,0.98,
1.695,0.44,0.06,0.74,1.40,-0.27,0.97,
1.696,0.44,0.06,0.74,1.40,-0.26,0.96,
1.699,0.44,0.06,0.74,1.39,-0.25,0.94,
1.703,0.44,0.06,0.74,1.38,-0.23,0.93,
1.703,0.44,0.06,0.74,1.37,-0.23,0.92,
1.706,0.42,-0.16,0.09,1.37,-0.23,0.92,
1.706,0.42,-0.16,0.09,1.37,-0.22,0.92,
1.706,0.42,-0.16,0.09,1.36,-0.20,0.91,
1.709,0.42,-0.16,0.09,1.34,-0.17,0.91,
1.71,0.42,-0.16,0.09,1.33,-0.15,0.91,
1.714,0.42,-0.16,0.09,1.31,-0.13,0.91,
1.715,0.25,-0.32,-0.52,1.31,-0.13,0.91,
1.715,0.25,-0.32,-0.52,1.30,-0.10,0.90,
1.715,0.25,-0.32,-0.52,1.28,-0.08,0.90,
1.719,0.25,-0.32,-0.52,1.25,-0.05,0.90,
1.719,0.25,-0.32,-0.52,1.23,-0.04,0.90,
1.723,0.25,-0.32,-0.52,1.21,-0.02,0.90,
1.723,0.15,-0.53,-1.13,1.21,-0.02,0.90,
1.723,0.15,-0.53,-1.13,1.19,0.00,0.90,
1.726,0.15,-0.53,-1.13,1.17,0.02,0.89,
1.729,0.15,-0.53,-1.13,1.14,0.05,0.89,
1.729,0.15,-0.53,-1.13,1.13,0.06,0.89,
1.733,0.15,-0.53,-1.13,1.10,0.07,0.88,
1.733,0.26,-0.67,-1.67,1.10,0.07,0.88,
1.733,0.26,-0.67,-1.67,1.08,0.09,0.88,
1.738,0.26,-0.67,-1.67,1.06,0.10,0.88,
1.738,0.26,-0.67,-1.67,1.03,0.12,0.87,
1.739,0.26,-0.67,-1.67,1.02,0.13,0.86,
1.742,0.26,-0.67,-1.67,1.00,0.15,0.86,
1.744,0.36,-0.77,-2.18,1.00,0.15,0.86,
1.744,0.36,-0.77,-2.18,0.97,0.16,0.85,
1.747,0.36,-0.77,-2.18,0.95,0.17,0.84,
1.75,0.36,-0.77,-2.18,0.92,0.18,0.82,
1.751,0.36,-0.77,-2.18,0.91,0.19,0.82,
1.754,0.36,-0.77,-2.18,0.88,0.20,0.81,
1.755,0.53,-0.87,-2.73,0.88,0.20,0.81,
1.755,0.53,-0.87,-2.73,0.86,0.21,0.80,
1.755,0.53,-0.87,-2.73,0.84,0.22,0.78,
1.759,0.53,-0.87,-2.73,0.80,0.23,0.76,
1.76,0.53,-0.87,-2.73,0.79,0.23,0.75,
1.778,0.53,-0.87,-2.73,0.77,0.24,0.74,
1.778,0.58,-0.99,-3.30,0.77,0.24,0.74,
1.779,0.58,-0.99,-3.30,0.74,0.25,0.73,
1.779,0.58,-0.99,-3.30,0.72,0.25,0.71,
1.779,0.58,-0.99,-3.30,0.68,0.26,0.69,
1.779,0.58,-0.99,-3.30,0.67,0.26,0.68,
1.78,0.58,-0.99,-3.30,0.64,0.26,0.66,
1.78,0.68,-1.08,-3.77,0.64,0.26,0.66,
1.78,0.68,-1.08,-3.77,0.62,0.27,0.65,
1.78,0.68,-1.08,-3.77,0.60,0.27,0.63,
1.78,0.68,-1.08,-3.77,0.57,0.28,0.60,
1.781,0.68,-1.08,-3.77,0.56,0.28,0.59,
1.781,0.68,-1.08,-3.77,0.54,0.28,0.58,
1.791,0.64,-1.23,-4.11,0.54,0.28,0.58,
1.791,0.64,-1.23,-4.11,0.52,0.29,0.56,
1.791,0.64,-1.23,-4.11,0.50,0.30,0.55,
1.792,0.64,-1.23,-4.11,0.48,0.31,0.53,
1.792,0.64,-1.23,-4.11,0.46,0.32,0.52,
1.792,0.64,-1.23,-4.11,0.45,0.33,0.51,
1.794,0.56,-1.48,-4.40,0.45,0.33,0.51,
1.794,0.56,-1.48,-4.40,0.44,0.34,0.50,
1.795,0.56,-1.48,-4.40,0.42,0.35,0.49,
1.817,0.56,-1.48,-4.40,0.39,0.38,0.48,
1.818,0.56,-1.48,-4.40,0.38,0.39,0.47,
1.818,0.56,-1.48,-4.40,0.37,0.40,0.47,
1.818,0.33,-1.71,-4.77,0.37,0.40,0.47,
1.818,0.33,-1.71,-4.77,0.35,0.42,0.46,
1.818,0.33,-1.71,-4.77,0.33,0.43,0.45,
1.818,0.33,-1.71,-4.77,0.30,0.46,0.45,
1.818,0.33,-1.71,-4.77,0.29,0.46,0.45,
1.818,0.33,-1.71,-4.77,0.27,0.48,0.44,
1.819,0.16,-1.92,-5.11,0.27,0.48,0.44,
1.819,0.16,-1.92,-5.11,0.24,0.49,0.44,
1.819,0.16,-1.92,-5.11,0.22,0.51,0.44,
1.819,0.16,-1.92,-5.11,0.19,0.53,0.44,
1.819,0.16,-1.92,-5.11,0.18,0.54,0.44,
1.821,0.16,-1.92,-5.11,0.15,0.55,0.44,
1.823,0.05,-2.08,-5.39,0.15,0.55,0.44,
1.823,0.05,-2.08,-5.39,0.13,0.57,0.44,
1.825,0.05,-2.08,-5.39,0.11,0.58,0.44,
1.828,0.05,-2.08,-5.39,0.08,0.60,0.44,
1.829,0.05,-2.08,-5.39,0.06,0.61,0.44,
1.831,0.05,-2.08,-5.39,0.04,0.62,0.44,
1.833,0.00,-2.23,-5.52,0.04,0.62,0.44,
1.833,0.00,-2.23,-5.52,0.02,0.64,0.44,
1.835,0.00,-2.23,-5.52,0.00,0.65,0.44,
1.838,0.00,-2.23,-5.52,-0.02,0.68,0.45,
1.839,0.00,-2.23,-5.52,-0.04,0.69,0.45,
1.841,0.00,-2.23,-5.52,-0.05,0.69,0.45,
1.843,-0.05,-2.30,-5.53,-0.05,0.69,0.45,
1.844,-0.05,-2.30,-5.53,-0.06,0.71,0.45,
1.845,-0.05,-2.30,-5.53,-0.08,0.72,0.45,
1.848,-0.05,-2.30,-5.53,-0.10,0.73,0.45,
1.849,-0.05,-2.30,-5.53,-0.10,0.73,0.45,
1.851,-0.05,-2.30,-5.53,-0.11,0.73,0.45,
1.853,0.07,-2.37,-5.29,-0.11,0.73,0.45,
1.853,0.07,-2.37,-5.29,-0.12,0.74,0.45,
1.855,0.07,-2.37,-5.29,-0.13,0.74,0.45,
1.858,0.07,-2.37,-5.29,-0.13,0.75,0.45,
1.859,0.07,-2.37,-5.29,-0.14,0.75,0.45,
1.861,0.07,-2.37,-5.29,-0.14,0.75,0.44,
1.863,0.16,-2.38,-5.00,-0.14,0.75,0.44,
1.864,0.16,-2.38,-5.00,-0.14,0.76,0.44,
1.865,0.16,-2.38,-5.00,-0.14,0.76,0.44,
1.868,0.16,-2.38,-5.00,-0.13,0.77,0.45,
1.869,0.16,-2.38,-5.00,-0.13,0.77,0.45,
1.871,0.16,-2.38,-5.00,-0.13,0.77,0.45,
1.874,0.11,-2.47,-4.72,-0.13,0.77,0.45,
1.874,0.11,-2.47,-4.72,-0.13,0.78,0.46,
1.875,0.11,-2.47,-4.72,-0.12,0.78,0.46,
1.878,0.11,-2.47,-4.72,-0.12,0.79,0.47,
1.879,0.11,-2.47,-4.72,-0.12,0.79,0.48,
1.881,0.11,-2.47,-4.72,-0.12,0.79,0.49,
1.883,-0.07,-2.47,-4.57,-0.12,0.79,0.49,
1.883,-0.07,-2.47,-4.57,-0.12,0.80,0.50,
1.885,-0.07,-2.47,-4.57,-0.12,0.80,0.51,
1.888,-0.07,-2.47,-4.57,-0.12,0.81,0.53,
1.889,-0.07,-2.47,-4.57,-0.12,0.81,0.54,
1.891,-0.07,-2.47,-4.57,-0.12,0.82,0.55,
1.893,-0.13,-2.53,-4.54,-0.12,0.82,0.55,
1.894,-0.13,-2.53,-4.54,-0.13,0.82,0.56,
1.895,-0.13,-2.53,-4.54,-0.13,0.83,0.57,
1.898,-0.13,-2.53,-4.54,-0.14,0.83,0.58,
1.899,-0.13,-2.53,-4.54,-0.15,0.83,0.58,
1.901,-0.13,-2.53,-4.54,-0.16,0.83,0.59,
1.903,0.03,-2.43,-4.44,-0.16,0.83,0.59,
1.903,0.03,-2.43,-4.44,-0.16,0.83,0.60,
1.905,0.03,-2.43,-4.44,-0.17,0.82,0.60,
1.915,0.03,-2.43,-4.44,-0.18,0.81,0.61,
1.916,0.03,-2.43,-4.44,-0.18,0.80,0.61,
1.916,0.03,-2.43,-4.44,-0.18,0.79,0.62,
1.916,0.13,-2.34,-4.04,-0.18,0.79,0.62,
1.917,0.13,-2.34,-4.04,-0.18,0.79,0.63,
1.917,0.13,-2.34,-4.04,-0.18,0.78,0.64,
1.92,0.13,-2.34,-4.04,-0.18,0.77,0.65,
1.92,0.13,-2.34,-4.04,-0.18,0.77,0.66,
1.921,0.13,-2.34,-4.04,-0.18,0.76,0.67,
1.937,0.05,-2.19,-3.65,-0.18,0.76,0.67,
1.938,0.05,-2.19,-3.65,-0.18,0.76,0.68,
1.938,0.05,-2.19,-3.65,-0.19,0.76,0.69,
1.965,0.05,-2.19,-3.65,-0.19,0.76,0.72,
1.966,0.05,-2.19,-3.65,-0.19,0.76,0.72,
1.966,0.05,-2.19,-3.65,-0.19,0.76,0.73,
1.966,0.04,-2.18,-3.39,-0.19,0.76,0.73,
1.967,0.04,-2.18,-3.39,-0.20,0.75,0.74,
1.968,0.04,-2.18,-3.39,-0.20,0.75,0.76,
1.968,0.04,-2.18,-3.39,-0.21,0.73,0.77,
1.968,0.04,-2.18,-3.39,-0.22,0.72,0.78,
1.969,0.04,-2.18,-3.39,-0.22,0.71,0.78,
1.969,0.24,-2.12,-2.87,-0.22,0.71,0.78,
1.97,0.24,-2.12,-2.87,-0.22,0.69,0.79,
1.97,0.24,-2.12,-2.87,-0.21,0.66,0.80,
1.97,0.24,-2.12,-2.87,-0.21,0.63,0.80,
1.971,0.24,-2.12,-2.87,-0.20,0.62,0.80,
1.971,0.24,-2.12,-2.87,-0.19,0.58,0.80,
1.972,0.76,-1.97,-2.00,-0.19,0.58,0.80,
1.972,0.76,-1.97,-2.00,-0.18,0.55,0.79,
1.973,0.76,-1.97,-2.00,-0.16,0.52,0.79,
1.973,0.76,-1.97,-2.00,-0.14,0.46,0.78,
1.973,0.76,-1.97,-2.00,-0.13,0.44,0.77,
1.974,0.76,-1.97,-2.00,-0.12,0.40,0.77,
1.974,1.03,-1.61,-1.32,-0.12,0.40,0.77,
1.974,1.03,-1.61,-1.32,-0.11,0.35,0.76,
1.975,1.03,-1.61,-1.32,-0.10,0.30,0.75,
1.975,1.03,-1.61,-1.32,-0.09,0.22,0.74,
1.976,1.03,-1.61,-1.32,-0.09,0.19,0.74,
1.976,1.03,-1.61,-1.32,-0.09,0.13,0.73,
1.977,1.27,-1.42,-0.90,-0.09,0.13,0.73,
1.977,1.27,-1.42,-0.90,-0.09,0.07,0.72,
1.977,1.27,-1.42,-0.90,-0.09,0.01,0.71,
1.978,1.27,-1.42,-0.90,-0.10,-0.08,0.70,
1.989,1.27,-1.42,-0.90,-0.11,-0.11,0.69,
1.99,1.27,-1.42,-0.90,-0.11,-0.16,0.68,
1.99,1.48,-1.31,-0.52,-0.11,-0.16,0.68,
1.991,1.48,-1.31,-0.52,-0.13,-0.21,0.66,
1.991,1.48,-1.31,-0.52,-0.14,-0.25,0.65,
1.991,1.48,-1.31,-0.52,-0.16,-0.31,0.63,
1.992,1.48,-1.31,-0.52,-0.17,-0.35,0.62,
1.994,1.48,-1.31,-0.52,-0.17,-0.37,0.61,
1.994,1.87,-1.13,0.17,-0.17,-0.37,0.61,
1.994,1.87,-1.13,0.17,-0.19,-0.40,0.60,
1.995,1.87,-1.13,0.17,-0.20,-0.42,0.58,
1.998,1.87,-1.13,0.17,-0.23,-0.45,0.55,
1.999,1.87,-1.13,0.17,-0.23,-0.46,0.54,
2.001,1.87,-1.13,0.17,-0.25,-0.47,0.52,
2.003,2.13,-0.85,0.95,-0.25,-0.47,0.52,
2.004,2.13,-0.85,0.95,-0.26,-0.47,0.51,
2.005,2.13,-0.85,0.95,-0.28,-0.47,0.49,
2.01,2.13,-0.85,0.95,-0.31,-0.46,0.46,
2.012,2.13,-0.85,0.95,-0.33,-0.45,0.44,
2.012,2.13,-0.85,0.95,-0.34,-0.44,0.44,
2.014,2.38,-0.71,1.57,-0.34,-0.44,0.44,
2.015,2.38,-0.71,1.57,-0.36,-0.42,0.42,
2.015,2.38,-0.71,1.57,-0.39,-0.40,0.40,
2.018,2.38,-0.71,1.57,-0.42,-0.35,0.38,
2.02,2.38,-0.71,1.57,-0.44,-0.34,0.38,
2.021,2.38,-0.71,1.57,-0.47,-0.30,0.37,
2.024,2.26,-0.48,2.06,-0.47,-0.30,0.37,
2.025,2.26,-0.48,2.06,-0.49,-0.27,0.35,
2.025,2.26,-0.48,2.06,-0.52,-0.23,0.35,
2.028,2.26,-0.48,2.06,-0.57,-0.18,0.34,
2.03,2.26,-0.48,2.06,-0.59,-0.16,0.34,
2.031,2.26,-0.48,2.06,-0.63,-0.13,0.33,
2.034,2.24,-0.35,2.26,-0.63,-0.13,0.33,
2.034,2.24,-0.35,2.26,-0.67,-0.10,0.33,
2.035,2.24,-0.35,2.26,-0.72,-0.07,0.33,
2.038,2.24,-0.35,2.26,-0.80,-0.03,0.32,
2.052,2.24,-0.35,2.26,-0.85,-0.00,0.32,
2.052,2.24,-0.35,2.26,-0.88,0.01,0.32,
2.053,2.26,-0.16,2.22,-0.88,0.01,0.32,
2.053,2.26,-0.16,2.22,-0.95,0.04,0.31,
2.053,2.26,-0.16,2.22,-1.01,0.07,0.31,
2.053,2.26,-0.16,2.22,-1.12,0.11,0.30,
2.053,2.26,-0.16,2.22,-1.23,0.17,0.29,
2.054,2.26,-0.16,2.22,-1.27,0.19,0.29,
2.054,2.61,0.07,2.32,-1.27,0.19,0.29,
2.054,2.61,0.07,2.32,-1.31,0.21,0.28,
2.055,2.61,0.07,2.32,-1.38,0.25,0.27,
2.087,2.61,0.07,2.32,-1.49,0.32,0.25,
2.088,2.61,0.07,2.32,-1.56,0.36,0.24,
2.088,2.61,0.07,2.32,-1.60,0.38,0.23,
2.088,2.82,0.25,2.85,-1.60,0.38,0.23,
2.088,2.82,0.25,2.85,-1.66,0.41,0.22,
2.088,2.82,0.25,2.85,-1.72,0.44,0.20,
2.089,2.82,0.25,2.85,-1.80,0.48,0.18,
2.089,2.82,0.25,2.85,-1.83,0.50,0.16,
2.089,2.82,0.25,2.85,-1.85,0.51,0.15,
2.089,3.08,0.28,4.10,-1.85,0.51,0.15,
2.089,3.08,0.28,4.10,-1.88,0.52,0.14,
2.09,3.08,0.28,4.10,-1.90,0.54,0.13,
2.09,3.08,0.28,4.10,-1.91,0.54,0.12,
2.09,3.08,0.28,4.10,-1.91,0.54,0.11,
2.09,3.08,0.28,4.10,-1.91,0.53,0.11,
2.09,2.83,0.31,5.57,-1.91,0.53,0.11,
2.09,2.83,0.31,5.57,-1.90,0.52,0.10,
2.091,2.83,0.31,5.57,-1.88,0.50,0.10,
2.091,2.83,0.31,5.57,-1.84,0.45,0.10,
2.091,2.83,0.31,5.57,-1.80,0.42,0.10,
2.091,2.83,0.31,5.57,-1.78,0.40,0.10,
2.101,2.54,0.40,6.68,-1.78,0.40,0.10,
2.128,2.54,0.40,6.68,-1.73,0.36,0.10,
2.128,2.54,0.40,6.68,-1.69,0.32,0.10,
2.128,2.54,0.40,6.68,-1.61,0.26,0.11,
2.129,2.54,0.40,6.68,-1.55,0.21,0.12,
2.13,2.54,0.40,6.68,-1.52,0.18,0.12,
2.13,2.31,0.44,7.08,-1.52,0.18,0.12,
2.13,2.31,0.44,7.08,-1.46,0.13,0.13,
2.131,2.31,0.44,7.08,-1.37,0.05,0.14,
2.131,2.31,0.44,7.08,-1.31,-0.01,0.14,
2.131,2.31,0.44,7.08,-1.25,-0.08,0.15,
2.131,2.31,0.44,7.08,-1.22,-0.11,0.15,
2.132,2.26,0.50,6.97,-1.22,-0.11,0.15,
2.132,2.26,0.50,6.97,-1.17,-0.18,0.16,
2.132,2.26,0.50,6.97,-1.11,-0.26,0.16,
2.133,2.26,0.50,6.97,-1.03,-0.37,0.17,
2.133,2.26,0.50,6.97,-0.97,-0.45,0.17,
2.133,2.26,0.50,6.97,-0.94,-0.49,0.17,
2.133,2.26,0.50,6.97,-0.85,-0.64,0.17,
2.134,2.26,0.50,6.97,-0.85,-0.64,0.17,
2.134,2.43,0.81,6.25,-0.85,-0.64,0.17,
2.134,2.43,0.81,6.25,-0.77,-0.79,0.16,
2.134,2.43,0.81,6.25,-0.75,-0.82,0.16,
2.135,2.43,0.81,6.25,-0.73,-0.85,0.16,
2.135,2.68,0.86,5.93,-0.73,-0.85,0.16,
2.135,2.68,0.86,5.93,-0.70,-0.91,0.15,
2.136,2.68,0.86,5.93,-0.67,-0.97,0.15,
2.142,2.68,0.86,5.93,-0.63,-1.03,0.14,
2.142,2.68,0.86,5.93,-0.61,-1.06,0.13,
2.142,2.68,0.86,5.93,-0.59,-1.09,0.12,
2.145,3.01,0.92,5.44,-0.59,-1.09,0.12,
2.145,3.01,0.92,5.44,-0.58,-1.10,0.12,
2.145,3.01,0.92,5.44,-0.56,-1.11,0.11,
2.149,3.01,0.92,5.44,-0.53,-1.11,0.10,
2.152,3.01,0.92,5.44,-0.52,-1.10,0.09,
2.154,3.01,0.92,5.44,-0.51,-1.09,0.09,
2.157,3.39,0.89,5.22,-0.51,-1.09,0.09,
2.158,3.39,0.89,5.22,-0.49,-1.07,0.08,
2.158,3.39,0.89,5.22,-0.48,-1.04,0.07,
2.16,3.39,0.89,5.22,-0.45,-0.98,0.06,
2.16,3.39,0.89,5.22,-0.44,-0.93,0.05,
2.162,3.39,0.89,5.22,-0.43,-0.90,0.04,
2.164,3.41,0.80,5.09,-0.43,-0.90,0.04,
2.164,3.41,0.80,5.09,-0.41,-0.84,0.04,
2.165,3.41,0.80,5.09,-0.39,-0.79,0.04,
2.168,3.41,0.80,5.09,-0.36,-0.69,0.04,
2.169,3.41,0.80,5.09,-0.33,-0.62,0.04,
2.171,3.41,0.80,5.09,-0.32,-0.58,0.04,
2.18,3.20,0.68,4.89,-0.32,-0.58,0.04,
2.18,3.20,0.68,4.89,-0.30,-0.51,0.04,
2.181,3.20,0.68,4.89,-0.27,-0.43,0.05,
2.181,3.20,0.68,4.89,-0.23,-0.32,0.06,
2.181,3.20,0.68,4.89,-0.20,-0.24,0.07,
2.181,3.20,0.68,4.89,-0.19,-0.20,0.08,
2.189,2.67,0.60,4.37,-0.19,-0.20,0.08,
2.19,2.67,0.60,4.37,-0.17,-0.12,0.09,
2.208,2.67,0.60,4.37,-0.14,-0.05,0.11,
2.208,2.67,0.60,4.37,-0.09,0.10,0.14,
2.209,2.67,0.60,4.37,-0.08,0.13,0.15,
2.209,2.67,0.60,4.37,-0.07,0.16,0.16,
2.209,2.15,0.51,3.48,-0.07,0.16,0.16,
2.209,2.15,0.51,3.48,-0.04,0.23,0.18,
2.209,2.15,0.51,3.48,-0.02,0.29,0.20,
2.209,2.15,0.51,3.48,0.01,0.37,0.24,
2.21,2.15,0.51,3.48,0.03,0.42,0.26,
2.21,2.15,0.51,3.48,0.04,0.44,0.27,
2.21,1.66,0.51,2.39,0.04,0.44,0.27,
2.21,1.66,0.51,2.39,0.06,0.48,0.29,
2.21,1.66,0.51,2.39,0.08,0.52,0.31,
2.21,1.66,0.51,2.39,0.10,0.56,0.34,
2.21,1.66,0.51,2.39,0.12,0.58,0.36,
2.216,1.66,0.51,2.39,0.13,0.59,0.37,
2.217,1.53,0.56,1.26,0.13,0.59,0.37,
2.217,1.53,0.56,1.26,0.14,0.60,0.39,
2.217,1.53,0.56,1.26,0.16,0.60,0.40,
2.218,1.53,0.56,1.26,0.17,0.60,0.42,
2.219,1.53,0.56,1.26,0.19,0.58,0.43,
2.221,1.53,0.56,1.26,0.19,0.57,0.44,
2.239,1.59,0.61,0.37,0.19,0.57,0.44,
2.239,1.59,0.61,0.37,0.20,0.56,0.44,
2.239,1.59,0.61,0.37,0.22,0.53,0.45,
2.239,1.59,0.61,0.37,0.24,0.48,0.45,
2.239,1.59,0.61,0.37,0.25,0.45,0.45,
2.24,1.59,0.61,0.37,0.25,0.42,0.45,
2.24,1.91,0.70,-0.15,0.25,0.42,0.45,
2.24,1.91,0.70,-0.15,0.27,0.38,0.45,
2.24,1.91,0.70,-0.15,0.28,0.33,0.44,
2.24,1.91,0.70,-0.15,0.32,0.21,0.43,
2.24,1.91,0.70,-0.15,0.33,0.18,0.42,
2.262,1.91,0.70,-0.15,0.34,0.15,0.42,
2.263,2.09,0.72,-0.41,0.34,0.15,0.42,
2.263,2.09,0.72,-0.41,0.36,0.08,0.41,
2.264,2.09,0.72,-0.41,0.38,0.02,0.40,
2.264,2.09,0.72,-0.41,0.41,-0.08,0.39,
2.264,2.09,0.72,-0.41,0.43,-0.14,0.38,
2.265,2.09,0.72,-0.41,0.44,-0.17,0.37,
2.265,2.35,0.65,-0.56,0.44,-0.17,0.37,
2.265,2.35,0.65,-0.56,0.47,-0.23,0.36,
2.266,2.35,0.65,-0.56,0.50,-0.31,0.34,
2.266,2.35,0.65,-0.56,0.51,-0.35,0.33,
2.266,2.35,0.65,-0.56,0.53,-0.39,0.32,
2.292,2.35,0.65,-0.56,0.55,-0.43,0.31,
2.292,2.40,0.49,-0.59,0.55,-0.43,0.31,
2.293,2.40,0.49,-0.59,0.57,-0.45,0.30,
2.293,2.40,0.49,-0.59,0.59,-0.48,0.30,
2.294,2.40,0.49,-0.59,0.61,-0.49,0.30,
2.294,2.40,0.49,-0.59,0.62,-0.51,0.29,
2.295,2.40,0.49,-0.59,0.64,-0.51,0.29,
2.295,2.43,0.29,-0.59,0.64,-0.51,0.29,
2.295,2.43,0.29,-0.59,0.66,-0.52,0.28,
2.296,2.43,0.29,-0.59,0.67,-0.52,0.28,
2.296,2.43,0.29,-0.59,0.69,-0.51,0.28,
2.297,2.43,0.29,-0.59,0.70,-0.50,0.27,
2.297,2.43,0.29,-0.59,0.71,-0.49,0.27,
2.297,2.42,0.13,-0.71,0.71,-0.49,0.27,
2.298,2.42,0.13,-0.71,0.72,-0.48,0.27,
2.298,2.42,0.13,-0.71,0.73,-0.47,0.26,
2.299,2.42,0.13,-0.71,0.74,-0.45,0.26,
2.299,2.42,0.13,-0.71,0.75,-0.44,0.25,
2.3,2.42,0.13,-0.71,0.75,-0.42,0.25,
2.3,2.54,0.02,-1.11,0.75,-0.42,0.25,
2.3,2.54,0.02,-1.11,0.75,-0.40,0.24,
2.301,2.54,0.02,-1.11,0.75,-0.39,0.23,
2.301,2.54,0.02,-1.11,0.75,-0.37,0.22,
2.302,2.54,0.02,-1.11,0.75,-0.35,0.21,
2.302,2.54,0.02,-1.11,0.75,-0.34,0.20,
2.319,2.54,-0.02,-1.59,0.75,-0.34,0.20,
2.319,2.54,-0.02,-1.59,0.74,-0.33,0.19,
2.32,2.54,-0.02,-1.59,0.73,-0.31,0.18,
2.32,2.54,-0.02,-1.59,0.72,-0.30,0.16,
2.32,2.54,-0.02,-1.59,0.71,-0.29,0.14,
2.321,2.54,-0.02,-1.59,0.70,-0.27,0.12,
2.321,2.67,-0.00,-2.14,0.70,-0.27,0.12,
2.322,2.67,-0.00,-2.14,0.68,-0.26,0.10,
2.322,2.67,-0.00,-2.14,0.67,-0.25,0.08,
2.322,2.67,-0.00,-2.14,0.65,-0.23,0.06,
2.323,2.67,-0.00,-2.14,0.62,-0.22,0.04,
2.323,2.67,-0.00,-2.14,0.60,-0.21,0.02,
2.329,2.69,-0.07,-2.73,0.60,-0.21,0.02,
2.33,2.69,-0.07,-2.73,0.57,-0.20,-0.01,
2.33,2.69,-0.07,-2.73,0.55,-0.20,-0.03,
2.331,2.69,-0.07,-2.73,0.52,-0.20,-0.06,
2.331,2.69,-0.07,-2.73,0.49,-0.20,-0.09,
2.331,2.69,-0.07,-2.73,0.45,-0.20,-0.11,
2.336,2.72,-0.06,-3.28,0.45,-0.20,-0.11,
2.336,2.72,-0.06,-3.28,0.42,-0.21,-0.14,
2.337,2.72,-0.06,-3.28,0.38,-0.21,-0.16,
2.34,2.72,-0.06,-3.28,0.34,-0.21,-0.19,
2.341,2.72,-0.06,-3.28,0.30,-0.21,-0.22,
2.341,2.72,-0.06,-3.28,0.26,-0.21,-0.25,
2.345,2.59,-0.15,-3.65,0.26,-0.21,-0.25,
2.346,2.59,-0.15,-3.65,0.22,-0.21,-0.28,
2.347,2.59,-0.15,-3.65,0.18,-0.21,-0.30,
2.348,2.59,-0.15,-3.65,0.14,-0.20,-0.33,
2.349,2.59,-0.15,-3.65,0.10,-0.20,-0.36,
2.352,2.59,-0.15,-3.65,0.06,-0.19,-0.38,
2.353,2.54,-0.29,-3.73,0.06,-0.19,-0.38,
2.354,2.54,-0.29,-3.73,0.02,-0.17,-0.40,
2.366,2.54,-0.29,-3.73,-0.02,-0.16,-0.43,
2.367,2.54,-0.29,-3.73,-0.05,-0.14,-0.45,
2.367,2.54,-0.29,-3.73,-0.09,-0.12,-0.47,
2.367,2.54,-0.29,-3.73,-0.12,-0.10,-0.48,
2.368,2.21,-0.51,-3.38,-0.12,-0.10,-0.48,
2.368,2.21,-0.51,-3.38,-0.14,-0.07,-0.50,
2.369,2.21,-0.51,-3.38,-0.17,-0.04,-0.52,
2.369,2.21,-0.51,-3.38,-0.19,-0.01,-0.53,
2.37,2.21,-0.51,-3.38,-0.20,0.02,-0.55,
2.396,2.21,-0.51,-3.38,-0.21,0.05,-0.56,
2.397,1.96,-0.73,-2.82,-0.21,0.05,-0.56,
2.397,1.96,-0.73,-2.82,-0.22,0.08,-0.57,
2.397,1.96,-0.73,-2.82,-0.23,0.11,-0.58,
2.397,1.96,-0.73,-2.82,-0.23,0.14,-0.58,
2.398,1.96,-0.73,-2.82,-0.24,0.17,-0.59,
2.398,1.96,-0.73,-2.82,-0.23,0.20,-0.60,
2.398,1.52,-0.88,-2.41,-0.23,0.20,-0.60,
2.398,1.52,-0.88,-2.41,-0.23,0.23,-0.60,
2.398,1.52,-0.88,-2.41,-0.22,0.26,-0.60,
2.398,1.52,-0.88,-2.41,-0.22,0.28,-0.60,
2.399,1.52,-0.88,-2.41,-0.21,0.31,-0.60,
2.399,1.52,-0.88,-2.41,-0.20,0.33,-0.60,
2.399,1.17,-0.99,-2.34,-0.20,0.33,-0.60,
2.399,1.17,-0.99,-2.34,-0.19,0.35,-0.60,
2.399,1.17,-0.99,-2.34,-0.18,0.37,-0.59,
2.4,1.17,-0.99,-2.34,-0.17,0.38,-0.59,
2.411,1.17,-0.99,-2.34,-0.15,0.39,-0.59,
2.412,1.17,-0.99,-2.34,-0.15,0.40,-0.59,
2.412,0.92,-1.03,-2.51,-0.15,0.40,-0.59,
2.412,0.92,-1.03,-2.51,-0.14,0.40,-0.59,
2.412,0.92,-1.03,-2.51,-0.12,0.41,-0.59,
2.412,0.92,-1.03,-2.51,-0.11,0.41,-0.59,
2.413,0.92,-1.03,-2.51,-0.10,0.41,-0.59,
2.413,0.92,-1.03,-2.51,-0.09,0.40,-0.59,
2.423,0.87,-1.02,-2.73,-0.09,0.40,-0.59,
2.427,0.87,-1.02,-2.73,-0.07,0.40,-0.59,
2.427,0.87,-1.02,-2.73,-0.05,0.39,-0.59,
2.428,0.87,-1.02,-2.73,-0.04,0.38,-0.60,
2.428,0.87,-1.02,-2.73,-0.02,0.37,-0.60,
2.428,0.87,-1.02,-2.73,-0.00,0.35,-0.60,
2.429,0.76,-0.98,-2.92,-0.00,0.35,-0.60,
2.429,0.76,-0.98,-2.92,0.01,0.33,-0.60,
2.429,0.76,-0.98,-2.92,0.04,0.31,-0.60,
2.455,0.76,-0.98,-2.92,0.05,0.29,-0.60,
2.455,0.76,-0.98,-2.92,0.07,0.28,-0.60,
2.455,0.76,-0.98,-2.92,0.09,0.25,-0.60,
2.456,0.73,-0.97,-3.12,0.09,0.25,-0.60,
2.456,0.73,-0.97,-3.12,0.11,0.23,-0.60,
2.456,0.73,-0.97,-3.12,0.12,0.21,-0.60,
2.456,0.73,-0.97,-3.12,0.14,0.18,-0.61,
2.457,0.73,-0.97,-3.12,0.16,0.16,-0.61,
2.457,0.73,-0.97,-3.12,0.17,0.13,-0.61,
2.457,0.70,-0.92,-3.33,0.17,0.13,-0.61,
2.457,0.70,-0.92,-3.33,0.19,0.10,-0.62,
2.458,0.70,-0.92,-3.33,0.20,0.08,-0.62,
2.458,0.70,-0.92,-3.33,0.22,0.05,-0.63,
2.458,0.70,-0.92,-3.33,0.22,0.02,-0.63,
2.459,0.70,-0.92,-3.33,0.23,-0.00,-0.64,
2.459,0.80,-0.84,-3.46,0.23,-0.00,-0.64,
2.459,0.80,-0.84,-3.46,0.24,-0.04,-0.64,
2.459,0.80,-0.84,-3.46,0.26,-0.06,-0.64,
2.46,0.80,-0.84,-3.46,0.26,-0.09,-0.65,
2.46,0.80,-0.84,-3.46,0.27,-0.12,-0.65,
2.466,0.80,-0.84,-3.46,0.29,-0.15,-0.65,
2.467,0.70,-0.79,-3.31,0.29,-0.15,-0.65,
2.467,0.70,-0.79,-3.31,0.29,-0.17,-0.66,
2.467,0.70,-0.79,-3.31,0.30,-0.19,-0.66,
2.468,0.70,-0.79,-3.31,0.32,-0.23,-0.66,
2.469,0.70,-0.79,-3.31,0.33,-0.24,-0.66,
2.475,0.70,-0.79,-3.31,0.34,-0.26,-0.66,
2.476,0.59,-0.66,-3.10,0.34,-0.26,-0.66,
2.476,0.59,-0.66,-3.10,0.34,-0.27,-0.66,
2.476,0.59,-0.66,-3.10,0.35,-0.29,-0.67,
2.478,0.59,-0.66,-3.10,0.36,-0.31,-0.67,
2.481,0.59,-0.66,-3.10,0.36,-0.32,-0.67,
2.481,0.59,-0.66,-3.10,0.36,-0.34,-0.67,
2.484,0.46,-0.57,-2.94,0.36,-0.34,-0.67,
2.484,0.46,-0.57,-2.94,0.37,-0.35,-0.67,
2.485,0.46,-0.57,-2.94,0.37,-0.36,-0.67,
2.493,0.46,-0.57,-2.94,0.37,-0.38,-0.67,
2.494,0.46,-0.57,-2.94,0.36,-0.39,-0.67,
2.494,0.46,-0.57,-2.94,0.36,-0.40,-0.67,
2.494,0.19,-0.50,-2.76,0.36,-0.40,-0.67,
2.495,0.19,-0.50,-2.76,0.36,-0.41,-0.67,
2.496,0.19,-0.50,-2.76,0.35,-0.41,-0.66,
2.501,0.19,-0.50,-2.76,0.34,-0.42,-0.66,
2.501,0.19,-0.50,-2.76,0.34,-0.42,-0.65,
2.513,0.19,-0.50,-2.76,0.33,-0.42,-0.65,
2.514,-0.13,-0.38,-2.41,0.33,-0.42,-0.65,
2.514,-0.13,-0.38,-2.41,0.32,-0.41,-0.64,
2.514,-0.13,-0.38,-2.41,0.31,-0.41,-0.64,
2.515,-0.13,-0.38,-2.41,0.30,-0.41,-0.63,
2.515,-0.13,-0.38,-2.41,0.30,-0.40,-0.63,
2.515,-0.13,-0.38,-2.41,0.29,-0.40,-0.62,
2.515,-0.42,-0.22,-2.02,0.29,-0.40,-0.62,
2.516,-0.42,-0.22,-2.02,0.28,-0.39,-0.61,
2.516,-0.42,-0.22,-2.02,0.27,-0.38,-0.61,
2.519,-0.42,-0.22,-2.02,0.26,-0.37,-0.60,
2.519,-0.42,-0.22,-2.02,0.25,-0.36,-0.60,
2.522,-0.42,-0.22,-2.02,0.23,-0.36,-0.59,
2.524,-0.53,0.03,-1.74,0.23,-0.36,-0.59,
2.524,-0.53,0.03,-1.74,0.22,-0.35,-0.59,
2.526,-0.53,0.03,-1.74,0.21,-0.34,-0.59,
2.528,-0.53,0.03,-1.74,0.17,-0.34,-0.60,
2.529,-0.53,0.03,-1.74,0.16,-0.34,-0.60,
2.531,-0.53,0.03,-1.74,0.14,-0.35,-0.60,
2.533,-0.50,0.38,-1.65,0.14,-0.35,-0.60,
2.534,-0.50,0.38,-1.65,0.11,-0.35,-0.61,
2.535,-0.50,0.38,-1.65,0.08,-0.36,-0.62,
2.539,-0.50,0.38,-1.65,0.03,-0.37,-0.63,
2.54,-0.50,0.38,-1.65,0.02,-0.38,-0.64,
2.541,-0.50,0.38,-1.65,-0.01,-0.39,-0.65,
2.544,-0.47,0.62,-1.47,-0.01,-0.39,-0.65,
2.544,-0.47,0.62,-1.47,-0.05,-0.41,-0.66,
2.545,-0.47,0.62,-1.47,-0.08,-0.42,-0.67,
2.548,-0.47,0.62,-1.47,-0.13,-0.44,-0.68,
2.549,-0.47,0.62,-1.47,-0.15,-0.45,-0.69,
2.551,-0.47,0.62,-1.47,-0.18,-0.46,-0.70,
2.553,-0.56,0.80,-0.90,-0.18,-0.46,-0.70,
2.554,-0.56,0.80,-0.90,-0.21,-0.47,-0.71,
2.555,-0.56,0.80,-0.90,-0.24,-0.48,-0.72,
2.559,-0.56,0.80,-0.90,-0.28,-0.50,-0.73,
2.56,-0.56,0.80,-0.90,-0.29,-0.50,-0.73,
2.561,-0.56,0.80,-0.90,-0.31,-0.51,-0.73,
2.563,-0.74,0.76,0.06,-0.31,-0.51,-0.73,
2.564,-0.74,0.76,0.06,-0.33,-0.51,-0.74,
2.565,-0.74,0.76,0.06,-0.34,-0.52,-0.74,
2.568,-0.74,0.76,0.06,-0.37,-0.52,-0.75,
2.569,-0.74,0.76,0.06,-0.37,-0.52,-0.75,
2.572,-0.74,0.76,0.06,-0.38,-0.51,-0.75,
2.574,-0.82,0.55,1.00,-0.38,-0.51,-0.75,
2.574,-0.82,0.55,1.00,-0.40,-0.51,-0.74,
2.575,-0.82,0.55,1.00,-0.40,-0.49,-0.74,
2.578,-0.82,0.55,1.00,-0.41,-0.46,-0.72,
2.579,-0.82,0.55,1.00,-0.41,-0.44,-0.72,
2.581,-0.82,0.55,1.00,-0.41,-0.42,-0.70,
2.584,-1.45,0.63,1.91,-0.41,-0.42,-0.70,
2.585,-1.45,0.63,1.91,-0.40,-0.38,-0.68,
2.585,-1.45,0.63,1.91,-0.40,-0.35,-0.66,
2.604,-1.45,0.63,1.91,-0.39,-0.30,-0.62,
2.605,-1.45,0.63,1.91,-0.39,-0.28,-0.61,
2.606,-1.45,0.63,1.91,-0.38,-0.26,-0.59,
2.607,-1.81,0.71,2.58,-0.38,-0.26,-0.59,
2.627,-1.81,0.71,2.58,-0.38,-0.23,-0.57,
2.628,-1.81,0.71,2.58,-0.37,-0.20,-0.54,
2.628,-1.81,0.71,2.58,-0.37,-0.17,-0.51,
2.628,-1.81,0.71,2.58,-0.36,-0.16,-0.50,
2.629,-1.81,0.71,2.58,-0.36,-0.14,-0.48,
2.629,-1.75,0.66,2.97,-0.36,-0.14,-0.48,
2.629,-1.75,0.66,2.97,-0.36,-0.12,-0.46,
2.629,-1.75,0.66,2.97,-0.36,-0.10,-0.44,
2.63,-1.75,0.66,2.97,-0.36,-0.08,-0.41,
2.63,-1.75,0.66,2.97,-0.36,-0.07,-0.40,
2.63,-1.75,0.66,2.97,-0.36,-0.06,-0.38,
2.63,-1.54,0.67,3.31,-0.36,-0.06,-0.38,
2.631,-1.54,0.67,3.31,-0.36,-0.05,-0.36,
2.631,-1.54,0.67,3.31,-0.36,-0.03,-0.35,
2.631,-1.54,0.67,3.31,-0.36,-0.01,-0.32,
2.632,-1.54,0.67,3.31,-0.36,0.00,-0.31,
2.632,-1.39,0.84,3.62,-0.36,0.00,-0.31,
2.632,-1.39,0.84,3.62,-0.36,0.03,-0.28,
2.632,-1.39,0.84,3.62,-0.36,0.05,-0.27,
2.633,-1.39,0.84,3.62,-0.36,0.05,-0.27,
2.633,-1.39,0.84,3.62,-0.36,0.08,-0.25,
2.633,-1.39,0.84,3.62,-0.36,0.09,-0.24,
2.633,-1.39,0.84,3.62,-0.36,0.11,-0.23,
2.634,-1.08,0.82,3.93,-0.36,0.11,-0.23,
2.634,-1.08,0.82,3.93,-0.36,0.13,-0.22,
2.639,-1.08,0.82,3.93,-0.35,0.16,-0.20,
2.64,-1.08,0.82,3.93,-0.34,0.21,-0.19,
2.64,-1.08,0.82,3.93,-0.34,0.23,-0.18,
2.646,-1.08,0.82,3.93,-0.33,0.26,-0.17,
2.646,-0.92,0.80,4.30,-0.33,0.26,-0.17,
2.647,-0.92,0.80,4.30,-0.33,0.30,-0.16,
2.647,-0.92,0.80,4.30,-0.32,0.34,-0.14,
2.648,-0.92,0.80,4.30,-0.29,0.39,-0.12,
2.649,-0.92,0.80,4.30,-0.29,0.41,-0.12,
2.652,-0.92,0.80,4.30,-0.28,0.45,-0.10,
2.655,-1.05,0.73,4.46,-0.28,0.45,-0.10,
2.656,-1.05,0.73,4.46,-0.26,0.49,-0.08,
2.656,-1.05,0.73,4.46,-0.25,0.53,-0.06,
2.658,-1.05,0.73,4.46,-0.24,0.59,-0.02,
2.66,-1.05,0.73,4.46,-0.23,0.60,-0.01,
2.666,-1.05,0.73,4.46,-0.23,0.64,0.01,
2.672,-1.38,0.63,4.19,-0.23,0.64,0.01,
2.672,-1.38,0.63,4.19,-0.22,0.67,0.04,
2.674,-1.38,0.63,4.19,-0.21,0.70,0.07,
2.674,-1.38,0.63,4.19,-0.21,0.74,0.11,
2.675,-1.38,0.63,4.19,-0.21,0.76,0.12,
2.677,-1.38,0.63,4.19,-0.21,0.78,0.15,
2.678,-1.66,0.54,3.58,-0.21,0.78,0.15,
2.678,-1.66,0.54,3.58,-0.21,0.80,0.18,
2.678,-1.66,0.54,3.58,-0.21,0.82,0.20,
2.679,-1.66,0.54,3.58,-0.22,0.83,0.24,
2.679,-1.66,0.54,3.58,-0.22,0.83,0.25,
2.681,-1.66,0.54,3.58,-0.24,0.84,0.27,
2.683,-1.71,0.66,2.73,-0.24,0.84,0.27,
2.684,-1.71,0.66,2.73,-0.25,0.83,0.28,
2.685,-1.71,0.66,2.73,-0.27,0.81,0.30,
2.688,-1.71,0.66,2.73,-0.30,0.77,0.32,
2.69,-1.71,0.66,2.73,-0.31,0.75,0.32,
2.691,-1.71,0.66,2.73,-0.34,0.71,0.33,
2.694,-1.49,0.72,1.91,-0.34,0.71,0.33,
2.694,-1.49,0.72,1.91,-0.37,0.67,0.34,
2.695,-1.49,0.72,1.91,-0.40,0.61,0.34,
2.698,-1.49,0.72,1.91,-0.46,0.52,0.34,
2.699,-1.49,0.72,1.91,-0.47,0.49,0.33,
2.701,-1.49,0.72,1.91,-0.51,0.42,0.33,
2.704,-0.86,0.67,1.47,-0.51,0.42,0.33,
2.704,-0.86,0.67,1.47,-0.55,0.36,0.31,
2.706,-0.86,0.67,1.47,-0.59,0.30,0.29,
2.708,-0.86,0.67,1.47,-0.64,0.22,0.26,
2.709,-0.86,0.67,1.47,-0.66,0.20,0.25,
2.711,-0.86,0.67,1.47,-0.68,0.16,0.23,
2.713,-0.17,0.60,1.69,-0.68,0.16,0.23,
2.713,-0.17,0.60,1.69,-0.71,0.13,0.21,
2.715,-0.17,0.60,1.69,-0.73,0.10,0.19,
2.718,-0.17,0.60,1.69,-0.75,0.07,0.17,
2.719,-0.17,0.60,1.69,-0.75,0.06,0.17,
2.722,-0.17,0.60,1.69,-0.76,0.04,0.16,
2.724,-0.05,0.43,2.52,-0.76,0.04,0.16,
2.724,-0.05,0.43,2.52,-0.75,0.02,0.15,
2.726,-0.05,0.43,2.52,-0.74,0.01,0.14,
2.731,-0.05,0.43,2.52,-0.72,-0.00,0.14,
2.732,-0.05,0.43,2.52,-0.71,-0.01,0.15,
2.735,-0.05,0.43,2.52,-0.69,-0.01,0.15,
2.74,0.00,0.09,3.51,-0.69,-0.01,0.15,
2.74,0.00,0.09,3.51,-0.66,-0.02,0.16,
2.74,0.00,0.09,3.51,-0.63,-0.03,0.17,
2.74,0.00,0.09,3.51,-0.58,-0.04,0.19,
2.74,0.00,0.09,3.51,-0.56,-0.05,0.20,
2.742,0.00,0.09,3.51,-0.52,-0.05,0.22,
2.743,-0.02,-0.63,4.37,-0.52,-0.05,0.22,
2.744,-0.02,-0.63,4.37,-0.48,-0.04,0.23,
2.749,-0.02,-0.63,4.37,-0.42,-0.04,0.25,
2.75,-0.02,-0.63,4.37,-0.34,-0.01,0.29,
2.752,-0.02,-0.63,4.37,-0.29,0.00,0.31,
2.753,-0.02,-0.63,4.37,-0.26,0.01,0.32,
2.77,-0.06,-1.20,4.93,-0.26,0.01,0.32,
2.771,-0.06,-1.20,4.93,-0.19,0.04,0.35,
2.771,-0.06,-1.20,4.93,-0.13,0.05,0.38,
2.771,-0.06,-1.20,4.93,-0.04,0.09,0.42,
2.772,-0.06,-1.20,4.93,-0.01,0.10,0.43,
2.797,-0.06,-1.20,4.93,0.05,0.12,0.46,
2.798,-0.20,-1.26,4.90,0.05,0.12,0.46,
2.798,-0.20,-1.26,4.90,0.11,0.14,0.48,
2.799,-0.20,-1.26,4.90,0.17,0.15,0.50,
2.799,-0.20,-1.26,4.90,0.25,0.18,0.54,
2.799,-0.20,-1.26,4.90,0.28,0.18,0.55,
2.8,-0.20,-1.26,4.90,0.33,0.20,0.57,
2.8,-0.23,-1.08,4.15,0.33,0.20,0.57,
2.801,-0.23,-1.08,4.15,0.37,0.21,0.59,
2.801,-0.23,-1.08,4.15,0.41,0.22,0.60,
2.802,-0.23,-1.08,4.15,0.47,0.23,0.63,
2.802,-0.23,-1.08,4.15,0.48,0.23,0.63,
2.802,-0.23,-1.08,4.15,0.51,0.22,0.65,
2.803,-0.18,-0.81,2.82,0.51,0.22,0.65,
2.803,-0.18,-0.81,2.82,0.53,0.22,0.66,
2.804,-0.18,-0.81,2.82,0.54,0.22,0.67,
2.804,-0.18,-0.81,2.82,0.55,0.20,0.67,
2.804,-0.18,-0.81,2.82,0.55,0.20,0.67,
2.805,-0.18,-0.81,2.82,0.55,0.18,0.67,
2.805,0.15,-0.53,1.38,0.55,0.18,0.67,
2.806,0.15,-0.53,1.38,0.55,0.17,0.66,
2.806,0.15,-0.53,1.38,0.53,0.16,0.66,
2.806,0.15,-0.53,1.38,0.51,0.14,0.64,
2.807,0.15,-0.53,1.38,0.50,0.13,0.63,
2.807,0.15,-0.53,1.38,0.48,0.12,0.62,
2.808,0.60,-0.22,0.27,0.48,0.12,0.62,
2.808,0.60,-0.22,0.27,0.46,0.10,0.59,
2.809,0.60,-0.22,0.27,0.43,0.09,0.57,
2.809,0.60,-0.22,0.27,0.39,0.08,0.53,
2.817,0.60,-0.22,0.27,0.37,0.07,0.52,
2.817,0.60,-0.22,0.27,0.34,0.07,0.48,
2.818,1.12,0.01,-0.26,0.34,0.07,0.48,
2.818,1.12,0.01,-0.26,0.31,0.06,0.45,
2.818,1.12,0.01,-0.26,0.28,0.06,0.42,
2.818,1.12,0.01,-0.26,0.24,0.06,0.38,
2.823,1.12,0.01,-0.26,0.23,0.06,0.37,
2.824,1.12,0.01,-0.26,0.20,0.07,0.34,
2.824,1.25,0.09,-0.29,0.20,0.07,0.34,
2.824,1.25,0.09,-0.29,0.17,0.08,0.31,
2.825,1.25,0.09,-0.29,0.15,0.09,0.29,
2.832,1.25,0.09,-0.29,0.13,0.10,0.26,
2.833,1.25,0.09,-0.29,0.12,0.11,0.25,
2.833,1.25,0.09,-0.29,0.10,0.12,0.23,
2.834,0.99,0.01,-0.04,0.10,0.12,0.23,
2.834,0.99,0.01,-0.04,0.09,0.13,0.22,
2.835,0.99,0.01,-0.04,0.08,0.15,0.21,
2.838,0.99,0.01,-0.04,0.06,0.16,0.19,
2.84,0.99,0.01,-0.04,0.06,0.17,0.19,
2.841,0.99,0.01,-0.04,0.05,0.18,0.18,
2.847,0.49,-0.16,0.21,0.05,0.18,0.18,
2.847,0.49,-0.16,0.21,0.05,0.18,0.18,
2.847,0.49,-0.16,0.21,0.05,0.20,0.18,
2.848,0.49,-0.16,0.21,0.05,0.21,0.18,
2.849,0.49,-0.16,0.21,0.05,0.22,0.18,
2.851,0.49,-0.16,0.21,0.06,0.23,0.19,
2.854,0.12,-0.32,0.42,0.06,0.23,0.19,
2.854,0.12,-0.32,0.42,0.06,0.24,0.19,
2.856,0.12,-0.32,0.42,0.07,0.25,0.20,
2.858,0.12,-0.32,0.42,0.09,0.26,0.21,
2.859,0.12,-0.32,0.42,0.10,0.27,0.21,
2.861,0.12,-0.32,0.42,0.11,0.27,0.22,
2.863,-0.13,-0.40,0.40,0.11,0.27,0.22,
2.864,-0.13,-0.40,0.40,0.13,0.28,0.23,
2.865,-0.13,-0.40,0.40,0.14,0.28,0.23,
2.868,-0.13,-0.40,0.40,0.16,0.28,0.24,
2.871,-0.13,-0.40,0.40,0.17,0.28,0.24,
2.872,-0.13,-0.40,0.40,0.18,0.28,0.25,
2.874,-0.14,-0.37,0.02,0.18,0.28,0.25,
2.874,-0.14,-0.37,0.02,0.19,0.29,0.25,
2.88,-0.14,-0.37,0.02,0.20,0.29,0.25,
2.883,-0.14,-0.37,0.02,0.22,0.29,0.25,
2.884,-0.14,-0.37,0.02,0.22,0.29,0.25,
2.884,-0.14,-0.37,0.02,0.23,0.29,0.25,
2.885,-0.05,-0.24,-0.73,0.23,0.29,0.25,
2.886,-0.05,-0.24,-0.73,0.23,0.29,0.25,
2.886,-0.05,-0.24,-0.73,0.23,0.28,0.25,
2.901,-0.05,-0.24,-0.73,0.23,0.28,0.24,
2.901,-0.05,-0.24,-0.73,0.23,0.28,0.24,
2.901,-0.05,-0.24,-0.73,0.22,0.28,0.24,
2.901,0.03,-0.15,-1.63,0.22,0.28,0.24,
2.902,0.03,-0.15,-1.63,0.21,0.27,0.23,
2.902,0.03,-0.15,-1.63,0.21,0.27,0.22,
2.902,0.03,-0.15,-1.63,0.19,0.27,0.21,
2.902,0.03,-0.15,-1.63,0.19,0.27,0.21,
2.902,0.03,-0.15,-1.63,0.17,0.26,0.20,
2.905,0.11,-0.12,-2.46,0.17,0.26,0.20,
2.932,0.11,-0.12,-2.46,0.16,0.26,0.19,
2.932,0.11,-0.12,-2.46,0.14,0.26,0.19,
2.932,0.11,-0.12,-2.46,0.12,0.26,0.18,
2.933,0.11,-0.12,-2.46,0.11,0.26,0.17,
2.933,0.11,-0.12,-2.46,0.09,0.26,0.17,
2.933,0.02,-0.06,-3.13,0.09,0.26,0.17,
2.933,0.02,-0.06,-3.13,0.07,0.26,0.16,
2.933,0.02,-0.06,-3.13,0.05,0.26,0.16,
2.934,0.02,-0.06,-3.13,0.02,0.27,0.15,
2.934,0.02,-0.06,-3.13,0.01,0.27,0.15,
2.934,0.02,-0.06,-3.13,-0.02,0.28,0.15,
2.934,-0.15,-0.13,-3.62,-0.02,0.28,0.15,
2.934,-0.15,-0.13,-3.62,-0.04,0.28,0.14,
2.935,-0.15,-0.13,-3.62,-0.06,0.29,0.14,
2.953,-0.15,-0.13,-3.62,-0.09,0.30,0.15,
2.953,-0.15,-0.13,-3.62,-0.10,0.30,0.15,
2.954,-0.15,-0.13,-3.62,-0.12,0.31,0.15,
2.954,-0.43,-0.22,-3.90,-0.12,0.31,0.15,
2.954,-0.43,-0.22,-3.90,-0.14,0.32,0.15,
2.954,-0.43,-0.22,-3.90,-0.15,0.33,0.16,
2.955,-0.43,-0.22,-3.90,-0.18,0.34,0.17,
2.955,-0.43,-0.22,-3.90,-0.19,0.34,0.18,
2.955,-0.43,-0.22,-3.90,-0.20,0.35,0.19,
2.956,-0.69,-0.36,-3.98,-0.20,0.35,0.19,
2.956,-0.69,-0.36,-3.98,-0.21,0.36,0.20,
2.956,-0.69,-0.36,-3.98,-0.22,0.37,0.21,
2.956,-0.69,-0.36,-3.98,-0.24,0.38,0.23,
2.957,-0.69,-0.36,-3.98,-0.24,0.39,0.24,
2.957,-0.69,-0.36,-3.98,-0.24,0.40,0.25,
2.964,-1.00,-0.51,-4.00,-0.24,0.40,0.25,
2.965,-1.00,-0.51,-4.00,-0.25,0.40,0.26,
2.965,-1.00,-0.51,-4.00,-0.25,0.41,0.28,
2.965,-1.00,-0.51,-4.00,-0.25,0.41,0.31,
2.965,-1.00,-0.51,-4.00,-0.25,0.41,0.32,
2.966,-1.00,-0.51,-4.00,-0.25,0.42,0.33,
2.966,-1.17,-0.61,-4.00,-0.25,0.42,0.33,
2.966,-1.17,-0.61,-4.00,-0.25,0.42,0.35,
2.966,-1.17,-0.61,-4.00,-0.25,0.42,0.37,
2.969,-1.17,-0.61,-4.00,-0.24,0.42,0.40,
2.969,-1.17,-0.61,-4.00,-0.24,0.42,0.41,
2.972,-1.17,-0.61,-4.00,-0.24,0.43,0.43,
2.975,-1.37,-0.69,-4.14,-0.24,0.43,0.43,
2.975,-1.37,-0.69,-4.14,-0.24,0.42,0.45,
2.976,-1.37,-0.69,-4.14,-0.24,0.42,0.47,
2.979,-1.37,-0.69,-4.14,-0.23,0.41,0.50,
2.979,-1.37,-0.69,-4.14,-0.23,0.41,0.51,
2.981,-1.37,-0.69,-4.14,-0.23,0.41,0.53,
2.983,-1.25,-0.84,-4.19,-0.23,0.41,0.53,
2.984,-1.25,-0.84,-4.19,-0.22,0.40,0.55,
2.986,-1.25,-0.84,-4.19,-0.22,0.40,0.57,
2.988,-1.25,-0.84,-4.19,-0.21,0.39,0.60,
2.99,-1.25,-0.84,-4.19,-0.20,0.38,0.61,
2.991,-1.25,-0.84,-4.19,-0.20,0.37,0.63,
2.993,-1.29,-0.87,-4.27,-0.20,0.37,0.63,
2.993,-1.29,-0.87,-4.27,-0.19,0.36,0.65,
2.995,-1.29,-0.87,-4.27,-0.18,0.35,0.67,
2.998,-1.29,-0.87,-4.27,-0.16,0.33,0.70,
2.999,-1.29,-0.87,-4.27,-0.16,0.32,0.71,
3.001,-1.29,-0.87,-4.27,-0.15,0.30,0.74,
3.004,-1.19,-0.89,-4.27,-0.15,0.30,0.74,
3.004,-1.19,-0.89,-4.27,-0.13,0.27,0.77,
3.006,-1.19,-0.89,-4.27,-0.12,0.25,0.79,
3.008,-1.19,-0.89,-4.27,-0.10,0.21,0.83,
3.009,-1.19,-0.89,-4.27,-0.09,0.19,0.84,
3.012,-1.19,-0.89,-4.27,-0.08,0.16,0.86,
3.014,-1.18,-0.97,-4.35,-0.08,0.16,0.86,
3.014,-1.18,-0.97,-4.35,-0.06,0.12,0.88,
3.015,-1.18,-0.97,-4.35,-0.05,0.09,0.90,
3.022,-1.18,-0.97,-4.35,-0.02,0.02,0.93,
3.022,-1.18,-0.97,-4.35,-0.02,0.00,0.94,
3.023,-1.18,-0.97,-4.35,-0.00,-0.04,0.95,
3.024,-0.98,-0.92,-4.29,-0.00,-0.04,0.95,
3.025,-0.98,-0.92,-4.29,0.01,-0.09,0.97,
3.025,-0.98,-0.92,-4.29,0.02,-0.15,0.99,
3.029,-0.98,-0.92,-4.29,0.05,-0.23,1.01,
3.029,-0.98,-0.92,-4.29,0.06,-0.25,1.02,
3.031,-0.98,-0.92,-4.29,0.08,-0.30,1.03,
3.034,-0.70,-0.90,-3.79,0.08,-0.30,1.03,
3.034,-0.70,-0.90,-3.79,0.10,-0.34,1.04,
3.041,-0.70,-0.90,-3.79,0.12,-0.37,1.05,
3.041,-0.70,-0.90,-3.79,0.16,-0.41,1.05,
3.042,-0.70,-0.90,-3.79,0.18,-0.41,1.06,
3.042,-0.70,-0.90,-3.79,0.21,-0.42,1.06,
3.044,-0.30,-0.94,-2.98,0.21,-0.42,1.06,
3.044,-0.30,-0.94,-2.98,0.25,-0.42,1.07,
3.046,-0.30,-0.94,-2.98,0.28,-0.42,1.07,
3.048,-0.30,-0.94,-2.98,0.33,-0.41,1.07,
3.049,-0.30,-0.94,-2.98,0.35,-0.40,1.07,
3.053,-0.30,-0.94,-2.98,0.38,-0.39,1.07,
3.056,-0.04,-0.89,-2.49,0.38,-0.39,1.07,
3.057,-0.04,-0.89,-2.49,0.41,-0.38,1.06,
3.058,-0.04,-0.89,-2.49,0.43,-0.37,1.06,
3.06,-0.04,-0.89,-2.49,0.47,-0.35,1.06,
3.06,-0.04,-0.89,-2.49,0.48,-0.34,1.06,
3.061,-0.04,-0.89,-2.49,0.50,-0.32,1.06,
3.064,0.09,-0.79,-2.52,0.50,-0.32,1.06,
3.064,0.09,-0.79,-2.52,0.52,-0.30,1.06,
3.065,0.09,-0.79,-2.52,0.53,-0.28,1.05,
3.069,0.09,-0.79,-2.52,0.54,-0.25,1.05,
3.07,0.09,-0.79,-2.52,0.54,-0.24,1.05,
3.071,0.09,-0.79,-2.52,0.55,-0.22,1.05,
3.079,0.11,-0.62,-2.92,0.55,-0.22,1.05,
3.08,0.11,-0.62,-2.92,0.55,-0.20,1.05,
3.08,0.11,-0.62,-2.92,0.54,-0.19,1.04,
3.08,0.11,-0.62,-2.92,0.52,-0.16,1.04,
3.081,0.11,-0.62,-2.92,0.51,-0.16,1.04,
3.081,0.11,-0.62,-2.92,0.50,-0.15,1.03,
3.083,0.10,-0.50,-3.35,0.50,-0.15,1.03,
3.083,0.10,-0.50,-3.35,0.48,-0.13,1.03,
3.086,0.10,-0.50,-3.35,0.46,-0.13,1.03,
3.088,0.10,-0.50,-3.35,0.42,-0.11,1.02,
3.089,0.10,-0.50,-3.35,0.41,-0.11,1.02,
3.091,0.10,-0.50,-3.35,0.39,-0.10,1.01,
3.093,0.14,-0.38,-3.42,0.39,-0.10,1.01,
3.122,0.14,-0.38,-3.42,0.37,-0.09,1.01,
3.123,0.14,-0.38,-3.42,0.34,-0.09,1.00,
3.123,0.14,-0.38,-3.42,0.31,-0.07,0.99,
3.123,0.14,-0.38,-3.42,0.29,-0.06,0.98,
3.124,0.14,-0.38,-3.42,0.27,-0.05,0.98,
3.124,0.31,-0.24,-2.84,0.27,-0.05,0.98,
3.125,0.31,-0.24,-2.84,0.26,-0.04,0.97,
3.125,0.31,-0.24,-2.84,0.24,-0.03,0.96,
3.126,0.31,-0.24,-2.84,0.22,0.00,0.95,
3.126,0.31,-0.24,-2.84,0.21,0.01,0.94,
3.126,0.31,-0.24,-2.84,0.20,0.03,0.93,
3.127,0.43,-0.24,-2.17,0.20,0.03,0.93,
3.127,0.43,-0.24,-2.17,0.18,0.05,0.93,
3.128,0.43,-0.24,-2.17,0.17,0.07,0.92,
3.128,0.43,-0.24,-2.17,0.16,0.09,0.92,
3.129,0.43,-0.24,-2.17,0.15,0.10,0.91,
3.129,0.43,-0.24,-2.17,0.14,0.11,0.91,
3.129,0.34,-0.25,-1.40,0.14,0.11,0.91,
3.13,0.34,-0.25,-1.40,0.13,0.13,0.91,
3.13,0.34,-0.25,-1.40,0.13,0.13,0.91,
3.131,0.34,-0.25,-1.40,0.11,0.15,0.91,
3.131,0.34,-0.25,-1.40,0.11,0.15,0.91,
3.132,0.34,-0.25,-1.40,0.11,0.16,0.91,
3.139,0.22,-0.19,-0.73,0.11,0.16,0.91,
3.139,0.22,-0.19,-0.73,0.10,0.17,0.91,
3.139,0.22,-0.19,-0.73,0.10,0.17,0.91,
3.14,0.22,-0.19,-0.73,0.10,0.18,0.91,
3.14,0.22,-0.19,-0.73,0.10,0.18,0.92,
3.145,0.22,-0.19,-0.73,0.10,0.17,0.92,
3.145,0.15,-0.18,-0.07,0.10,0.17,0.92,
3.146,0.15,-0.18,-0.07,0.09,0.17,0.92,
3.146,0.15,-0.18,-0.07,0.09,0.16,0.93,
3.149,0.15,-0.18,-0.07,0.09,0.15,0.94,
3.149,0.15,-0.18,-0.07,0.09,0.14,0.94,
3.152,0.15,-0.18,-0.07,0.09,0.13,0.95,
3.157,0.03,-0.08,0.49,0.09,0.13,0.95,
3.157,0.03,-0.08,0.49,0.09,0.12,0.96,
3.159,0.03,-0.08,0.49,0.09,0.12,0.97,
3.16,0.03,-0.08,0.49,0.08,0.10,0.98,
3.16,0.03,-0.08,0.49,0.08,0.10,0.98,
3.161,0.03,-0.08,0.49,0.08,0.09,0.99,
3.164,0.02,0.02,1.04,0.08,0.09,0.99,
3.164,0.02,0.02,1.04,0.07,0.09,0.99,
3.165,0.02,0.02,1.04,0.07,0.08,1.00,
3.173,0.02,0.02,1.04,0.06,0.08,1.01,
3.174,0.02,0.02,1.04,0.05,0.07,1.01,
3.174,0.02,0.02,1.04,0.04,0.07,1.02,
3.174,0.07,0.13,1.48,0.04,0.07,1.02,
3.175,0.07,0.13,1.48,0.03,0.06,1.02,
3.182,0.07,0.13,1.48,0.01,0.06,1.03,
3.182,0.07,0.13,1.48,-0.01,0.05,1.03,
3.186,0.07,0.13,1.48,-0.02,0.05,1.04,
3.186,0.07,0.13,1.48,-0.03,0.05,1.04,
3.186,0.23,0.24,1.96,-0.03,0.05,1.04,
3.202,0.23,0.24,1.96,-0.05,0.04,1.04,
3.203,0.23,0.24,1.96,-0.07,0.03,1.05,
3.203,0.23,0.24,1.96,-0.09,0.02,1.05,
3.203,0.23,0.24,1.96,-0.10,0.02,1.05,
3.203,0.23,0.24,1.96,-0.11,0.01,1.06,
3.203,0.42,0.32,2.68,-0.11,0.01,1.06,
3.204,0.42,0.32,2.68,-0.13,-0.00,1.06,
3.204,0.42,0.32,2.68,-0.14,-0.02,1.06,
3.204,0.42,0.32,2.68,-0.16,-0.04,1.06,
3.204,0.42,0.32,2.68,-0.16,-0.05,1.06,
3.204,0.42,0.32,2.68,-0.18,-0.08,1.06,
3.205,0.67,0.31,3.55,-0.18,-0.08,1.06,
3.205,0.67,0.31,3.55,-0.19,-0.10,1.07,
3.205,0.67,0.31,3.55,-0.20,-0.12,1.07,
3.208,0.67,0.31,3.55,-0.22,-0.15,1.06,
3.212,0.67,0.31,3.55,-0.23,-0.16,1.06,
3.212,0.67,0.31,3.55,-0.24,-0.18,1.06,
3.214,1.05,0.32,4.48,-0.24,-0.18,1.06,
3.214,1.05,0.32,4.48,-0.25,-0.19,1.05,
3.218,1.05,0.32,4.48,-0.26,-0.21,1.04,
3.221,1.05,0.32,4.48,-0.27,-0.23,1.03,
3.221,1.05,0.32,4.48,-0.28,-0.23,1.03,
3.221,1.05,0.32,4.48,-0.28,-0.24,1.02,
3.224,1.46,0.39,5.44,-0.28,-0.24,1.02,
3.224,1.46,0.39,5.44,-0.29,-0.24,1.01,
3.225,1.46,0.39,5.44,-0.29,-0.24,1.00,
3.228,1.46,0.39,5.44,-0.30,-0.23,0.98,
3.229,1.46,0.39,5.44,-0.30,-0.23,0.98,
3.231,1.46,0.39,5.44,-0.31,-0.21,0.98,
3.233,1.73,0.34,6.26,-0.31,-0.21,0.98,
3.234,1.73,0.34,6.26,-0.31,-0.19,0.97,
3.235,1.73,0.34,6.26,-0.31,-0.17,0.96,
3.239,1.73,0.34,6.26,-0.31,-0.13,0.96,
3.239,1.73,0.34,6.26,-0.32,-0.12,0.96,
3.242,1.73,0.34,6.26,-0.32,-0.09,0.96,
3.244,1.65,0.22,6.67,-0.32,-0.09,0.96,
3.244,1.65,0.22,6.67,-0.32,-0.06,0.96,
3.245,1.65,0.22,6.67,-0.33,-0.02,0.96,
3.251,1.65,0.22,6.67,-0.33,0.04,0.96,
3.252,1.65,0.22,6.67,-0.34,0.06,0.96,
3.252,1.65,0.22,6.67,-0.34,0.10,0.97,
3.257,1.50,-0.11,6.78,-0.34,0.10,0.97,
3.257,1.50,-0.11,6.78,-0.34,0.15,0.98,
3.258,1.50,-0.11,6.78,-0.34,0.20,0.99,
3.26,1.50,-0.11,6.78,-0.33,0.28,1.01,
3.26,1.50,-0.11,6.78,-0.33,0.31,1.01,
3.28,1.50,-0.11,6.78,-0.32,0.36,1.03,
3.28,1.05,-0.26,6.59,-0.32,0.36,1.03,
3.281,1.05,-0.26,6.59,-0.31,0.42,1.04,
3.281,1.05,-0.26,6.59,-0.30,0.47,1.06,
3.29,1.05,-0.26,6.59,-0.29,0.54,1.09,
3.29,1.05,-0.26,6.59,-0.29,0.56,1.11,
3.291,1.05,-0.26,6.59,-0.28,0.61,1.13,
3.291,0.52,-0.29,6.08,-0.28,0.61,1.13,
3.291,0.52,-0.29,6.08,-0.27,0.65,1.15,
3.291,0.52,-0.29,6.08,-0.26,0.69,1.18,
3.292,0.52,-0.29,6.08,-0.26,0.75,1.21,
3.292,0.52,-0.29,6.08,-0.25,0.76,1.23,
3.292,0.52,-0.29,6.08,-0.26,0.80,1.25,
3.292,0.06,-0.28,5.08,-0.26,0.80,1.25,
3.293,0.06,-0.28,5.08,-0.27,0.84,1.28,
3.293,0.06,-0.28,5.08,-0.28,0.88,1.31,
3.293,0.06,-0.28,5.08,-0.31,0.94,1.36,
3.3,0.06,-0.28,5.08,-0.32,0.96,1.38,
3.3,0.06,-0.28,5.08,-0.34,0.99,1.42,
3.3,-0.75,-0.37,3.92,-0.34,0.99,1.42,
3.301,-0.75,-0.37,3.92,-0.37,1.03,1.47,
3.301,-0.75,-0.37,3.92,-0.40,1.06,1.52,
3.303,-0.75,-0.37,3.92,-0.46,1.08,1.59,
3.303,-0.75,-0.37,3.92,-0.47,1.09,1.62,
3.304,-0.75,-0.37,3.92,-0.52,1.10,1.67,
3.304,-1.25,-0.58,3.17,-0.52,1.10,1.67,
3.304,-1.25,-0.58,3.17,-0.56,1.10,1.72,
3.306,-1.25,-0.58,3.17,-0.60,1.09,1.77,
3.309,-1.25,-0.58,3.17,-0.67,1.07,1.84,
3.31,-1.25,-0.58,3.17,-0.69,1.06,1.86,
3.311,-1.25,-0.58,3.17,-0.73,1.04,1.91,
3.314,-0.95,-0.72,2.98,-0.73,1.04,1.91,
3.314,-0.95,-0.72,2.98,-0.78,1.01,1.94,
3.315,-0.95,-0.72,2.98,-0.82,0.97,1.97,
3.32,-0.95,-0.72,2.98,-0.87,0.91,2.00,
3.321,-0.95,-0.72,2.98,-0.88,0.89,2.01,
3.322,-0.95,-0.72,2.98,-0.91,0.84,2.02,
3.325,0.15,-0.69,3.44,-0.91,0.84,2.02,
3.325,0.15,-0.69,3.44,-0.93,0.78,2.02,
3.326,0.15,-0.69,3.44,-0.94,0.73,2.02,
3.328,0.15,-0.69,3.44,-0.95,0.63,2.00,
3.329,0.15,-0.69,3.44,-0.95,0.60,1.99,
3.331,0.15,-0.69,3.44,-0.93,0.54,1.97,
3.339,1.51,-0.62,4.69,-0.93,0.54,1.97,
3.339,1.51,-0.62,4.69,-0.91,0.47,1.95,
3.34,1.51,-0.62,4.69,-0.88,0.41,1.92,
3.34,1.51,-0.62,4.69,-0.81,0.33,1.87,
3.343,1.51,-0.62,4.69,-0.78,0.30,1.86,
3.343,1.51,-0.62,4.69,-0.72,0.25,1.82,
3.344,2.41,-0.50,6.32,-0.72,0.25,1.82,
3.344,2.41,-0.50,6.32,-0.64,0.21,1.79,
3.345,2.41,-0.50,6.32,-0.56,0.17,1.76,
3.348,2.41,-0.50,6.32,-0.43,0.13,1.71,
3.362,2.41,-0.50,6.32,-0.39,0.12,1.70,
3.363,2.41,-0.50,6.32,-0.29,0.10,1.67,
3.363,2.58,-0.61,7.29,-0.29,0.10,1.67,
3.363,2.58,-0.61,7.29,-0.19,0.08,1.66,
3.363,2.58,-0.61,7.29,-0.09,0.07,1.64,
3.363,2.58,-0.61,7.29,0.05,0.07,1.62,
3.364,2.58,-0.61,7.29,0.09,0.06,1.62,
3.364,2.58,-0.61,7.29,0.19,0.07,1.61,
3.364,2.03,-0.82,6.93,0.19,0.07,1.61,
3.364,2.03,-0.82,6.93,0.27,0.07,1.61,
3.365,2.03,-0.82,6.93,0.35,0.07,1.61,
3.375,2.03,-0.82,6.93,0.45,0.09,1.61,
3.375,2.03,-0.82,6.93,0.48,0.09,1.61,
3.376,2.03,-0.82,6.93,0.54,0.10,1.62,
3.376,1.41,-1.06,5.48,0.54,0.10,1.62,
3.376,1.41,-1.06,5.48,0.59,0.12,1.63,
3.379,1.41,-1.06,5.48,0.63,0.13,1.64,
3.38,1.41,-1.06,5.48,0.69,0.15,1.65,
3.38,1.41,-1.06,5.48,0.70,0.16,1.65,
3.383,1.41,-1.06,5.48,0.73,0.17,1.66,
3.384,0.99,-1.15,3.74,0.73,0.17,1.66,
3.384,0.99,-1.15,3.74,0.76,0.18,1.68,
3.389,0.99,-1.15,3.74,0.78,0.19,1.69,
3.389,0.99,-1.15,3.74,0.80,0.20,1.71,
3.389,0.99,-1.15,3.74,0.81,0.21,1.71,
3.391,0.99,-1.15,3.74,0.82,0.21,1.72,
3.394,0.91,-1.22,2.27,0.82,0.21,1.72,
3.394,0.91,-1.22,2.27,0.83,0.22,1.73,
3.395,0.91,-1.22,2.27,0.83,0.22,1.74,
3.398,0.91,-1.22,2.27,0.85,0.21,1.75,
3.399,0.91,-1.22,2.27,0.85,0.21,1.75,
3.401,0.91,-1.22,2.27,0.85,0.20,1.74,
3.404,1.26,-1.03,1.26,0.85,0.20,1.74,
3.404,1.26,-1.03,1.26,0.85,0.19,1.74,
3.406,1.26,-1.03,1.26,0.85,0.17,1.73,
3.408,1.26,-1.03,1.26,0.85,0.14,1.71,
3.41,1.26,-1.03,1.26,0.85,0.13,1.70,
3.412,1.26,-1.03,1.26,0.86,0.10,1.68,
3.413,1.93,-0.88,0.74,0.86,0.10,1.68,
3.413,1.93,-0.88,0.74,0.87,0.07,1.66,
3.415,1.93,-0.88,0.74,0.87,0.04,1.63,
3.42,1.93,-0.88,0.74,0.88,-0.00,1.59,
3.42,1.93,-0.88,0.74,0.88,-0.02,1.57,
3.421,1.93,-0.88,0.74,0.90,-0.06,1.54,
3.424,2.46,-0.68,0.58,0.90,-0.06,1.54,
3.424,2.46,-0.68,0.58,0.91,-0.09,1.51,
3.425,2.46,-0.68,0.58,0.92,-0.12,1.47,
3.444,2.46,-0.68,0.58,0.93,-0.17,1.41,
3.445,2.46,-0.68,0.58,0.94,-0.18,1.39,
3.445,2.46,-0.68,0.58,0.95,-0.21,1.35,
3.445,2.94,-0.58,0.46,0.95,-0.21,1.35,
3.445,2.94,-0.58,0.46,0.96,-0.23,1.31,
3.446,2.94,-0.58,0.46,0.97,-0.25,1.27,
3.446,2.94,-0.58,0.46,0.98,-0.28,1.21,
3.446,2.94,-0.58,0.46,0.98,-0.28,1.19,
3.446,2.94,-0.58,0.46,0.98,-0.29,1.14,
3.446,3.05,-0.61,0.16,0.98,-0.29,1.14,
3.447,3.05,-0.61,0.16,0.99,-0.30,1.10,
3.447,3.05,-0.61,0.16,0.99,-0.31,1.06,
3.451,3.05,-0.61,0.16,0.99,-0.32,1.00,
3.452,3.05,-0.61,0.16,0.99,-0.32,0.96,
3.456,3.05,-0.61,0.16,0.98,-0.31,0.93,
3.456,3.00,-0.79,-0.27,0.98,-0.31,0.93,
3.456,3.00,-0.79,-0.27,0.98,-0.31,0.91,
3.457,3.00,-0.79,-0.27,0.97,-0.30,0.87,
3.458,3.00,-0.79,-0.27,0.95,-0.28,0.82,
3.459,3.00,-0.79,-0.27,0.95,-0.28,0.81,
3.464,3.00,-0.79,-0.27,0.93,-0.26,0.78,
3.464,2.68,-0.95,-0.66,0.93,-0.26,0.78,
3.464,2.68,-0.95,-0.66,0.92,-0.24,0.75,
3.465,2.68,-0.95,-0.66,0.90,-0.22,0.72,
3.473,2.68,-0.95,-0.66,0.87,-0.19,0.68,
3.473,2.68,-0.95,-0.66,0.86,-0.17,0.67,
3.476,2.68,-0.95,-0.66,0.84,-0.14,0.64,
3.476,2.43,-1.13,-1.12,0.84,-0.14,0.64,
3.476,2.43,-1.13,-1.12,0.82,-0.11,0.62,
3.477,2.43,-1.13,-1.12,0.80,-0.08,0.59,
3.479,2.43,-1.13,-1.12,0.76,-0.03,0.56,
3.48,2.43,-1.13,-1.12,0.75,-0.02,0.55,
3.482,2.43,-1.13,-1.12,0.73,0.01,0.53,
3.491,2.11,-1.23,-1.57,0.73,0.01,0.53,
3.492,2.11,-1.23,-1.57,0.70,0.05,0.51,
3.492,2.11,-1.23,-1.57,0.67,0.08,0.49,
3.492,2.11,-1.23,-1.57,0.63,0.12,0.46,
3.492,2.11,-1.23,-1.57,0.62,0.14,0.45,
3.493,2.11,-1.23,-1.57,0.60,0.16,0.43,
3.494,1.89,-1.31,-1.93,0.60,0.16,0.43,
3.494,1.89,-1.31,-1.93,0.57,0.19,0.41,
3.497,1.89,-1.31,-1.93,0.55,0.21,0.39,
3.499,1.89,-1.31,-1.93,0.51,0.24,0.36,
3.501,1.89,-1.31,-1.93,0.50,0.25,0.35,
3.501,1.89,-1.31,-1.93,0.47,0.27,0.34,
3.506,1.58,-1.29,-2.20,0.47,0.27,0.34,
3.507,1.58,-1.29,-2.20,0.45,0.28,0.32,
3.508,1.58,-1.29,-2.20,0.42,0.30,0.30,
3.509,1.58,-1.29,-2.20,0.39,0.32,0.28,
3.509,1.58,-1.29,-2.20,0.38,0.33,0.27,
3.511,1.58,-1.29,-2.20,0.35,0.34,0.26,
3.513,1.34,-1.33,-2.35,0.35,0.34,0.26,
3.513,1.34,-1.33,-2.35,0.33,0.36,0.24,
3.515,1.34,-1.33,-2.35,0.31,0.37,0.23,
3.518,1.34,-1.33,-2.35,0.28,0.39,0.21,
3.519,1.34,-1.33,-2.35,0.27,0.39,0.20,
3.521,1.34,-1.33,-2.35,0.25,0.40,0.19,
3.523,1.10,-1.38,-2.37,0.25,0.40,0.19,
3.523,1.10,-1.38,-2.37,0.24,0.41,0.18,
3.525,1.10,-1.38,-2.37,0.22,0.42,0.17,
3.528,1.10,-1.38,-2.37,0.20,0.43,0.15,
3.529,1.10,-1.38,-2.37,0.19,0.43,0.14,
3.531,1.10,-1.38,-2.37,0.18,0.44,0.13,
3.534,0.99,-1.42,-2.30,0.18,0.44,0.13,
3.534,0.99,-1.42,-2.30,0.17,0.45,0.12,
3.536,0.99,-1.42,-2.30,0.16,0.46,0.11,
3.54,0.99,-1.42,-2.30,0.14,0.46,0.09,
3.541,0.99,-1.42,-2.30,0.14,0.47,0.09,
3.542,0.99,-1.42,-2.30,0.13,0.47,0.08,
3.544,0.86,-1.40,-2.28,0.13,0.47,0.08,
3.545,0.86,-1.40,-2.28,0.12,0.48,0.07,
3.545,0.86,-1.40,-2.28,0.11,0.48,0.06,
3.548,0.86,-1.40,-2.28,0.10,0.49,0.04,
3.549,0.86,-1.40,-2.28,0.10,0.49,0.04,
3.551,0.86,-1.40,-2.28,0.10,0.49,0.03,
3.554,0.72,-1.47,-2.28,0.10,0.49,0.03,
3.554,0.72,-1.47,-2.28,0.09,0.50,0.03,
3.556,0.72,-1.47,-2.28,0.09,0.50,0.02,
3.559,0.72,-1.47,-2.28,0.09,0.50,0.02,
3.56,0.72,-1.47,-2.28,0.08,0.50,0.01,
3.561,0.72,-1.47,-2.28,0.08,0.51,0.01,
3.563,0.55,-1.51,-2.22,0.08,0.51,0.01,
3.563,0.55,-1.51,-2.22,0.08,0.50,0.00,
3.565,0.55,-1.51,-2.22,0.09,0.51,0.00,
3.571,0.55,-1.51,-2.22,0.09,0.50,-0.01,
3.572,0.55,-1.51,-2.22,0.09,0.50,-0.01,
3.572,0.55,-1.51,-2.22,0.09,0.50,-0.01,
3.576,0.44,-1.60,-2.18,0.09,0.50,-0.01,
3.576,0.44,-1.60,-2.18,0.10,0.50,-0.01,
3.579,0.44,-1.60,-2.18,0.10,0.49,-0.01,
3.58,0.44,-1.60,-2.18,0.11,0.49,-0.01,
3.584,0.44,-1.60,-2.18,0.12,0.48,-0.01,
3.585,0.44,-1.60,-2.18,0.12,0.48,-0.01,
3.585,0.37,-1.59,-2.18,0.12,0.48,-0.01,
3.585,0.37,-1.59,-2.18,0.13,0.47,-0.02,
3.585,0.37,-1.59,-2.18,0.14,0.46,-0.02,
3.59,0.37,-1.59,-2.18,0.16,0.45,-0.02,
3.591,0.37,-1.59,-2.18,0.16,0.44,-0.02,
3.592,0.37,-1.59,-2.18,0.18,0.43,-0.02,
3.622,0.34,-1.64,-2.18,0.18,0.43,-0.02,
3.639,0.34,-1.64,-2.18,0.18,0.42,-0.02,
3.639,0.34,-1.64,-2.18,0.20,0.41,-0.02,
3.64,0.34,-1.64,-2.18,0.22,0.39,-0.01,
3.64,0.34,-1.64,-2.18,0.22,0.39,-0.01,
3.64,0.34,-1.64,-2.18,0.24,0.37,-0.01,
3.64,0.29,-1.59,-2.23,0.24,0.37,-0.01,
3.64,0.29,-1.59,-2.23,0.25,0.36,-0.01,
3.641,0.29,-1.59,-2.23,0.26,0.35,-0.01,
3.641,0.29,-1.59,-2.23,0.29,0.33,-0.01,
3.641,0.29,-1.59,-2.23,0.29,0.32,-0.00,
3.641,0.29,-1.59,-2.23,0.30,0.30,-0.00,
3.641,0.30,-1.58,-2.35,0.30,0.30,-0.00,
3.642,0.30,-1.58,-2.35,0.32,0.28,-0.00,
3.642,0.30,-1.58,-2.35,0.33,0.27,0.00,
3.642,0.30,-1.58,-2.35,0.35,0.24,0.00,
3.642,0.30,-1.58,-2.35,0.35,0.24,0.01,
3.642,0.31,-1.52,-2.52,0.35,0.24,0.01,
3.643,0.31,-1.52,-2.52,0.38,0.20,0.01,
3.643,0.31,-1.52,-2.52,0.39,0.19,0.01,
3.643,0.31,-1.52,-2.52,0.39,0.19,0.01,
3.643,0.31,-1.52,-2.52,0.41,0.16,0.02,
3.644,0.31,-1.52,-2.52,0.42,0.15,0.02,
3.644,0.31,-1.52,-2.52,0.43,0.15,0.02,
3.644,0.35,-1.53,-2.66,0.43,0.15,0.02,
3.644,0.35,-1.53,-2.66,0.44,0.13,0.03,
3.644,0.35,-1.53,-2.66,0.45,0.12,0.03,
3.645,0.35,-1.53,-2.66,0.47,0.10,0.04,
3.645,0.35,-1.53,-2.66,0.47,0.09,0.04,
3.645,0.35,-1.53,-2.66,0.48,0.08,0.04,
3.645,0.40,-1.44,-2.86,0.48,0.08,0.04,
3.645,0.40,-1.44,-2.86,0.49,0.07,0.05,
3.646,0.40,-1.44,-2.86,0.50,0.06,0.05,
3.649,0.40,-1.44,-2.86,0.51,0.05,0.06,
3.651,0.40,-1.44,-2.86,0.51,0.04,0.06,
3.655,0.40,-1.44,-2.86,0.52,0.04,0.06,
3.655,0.53,-1.39,-3.12,0.52,0.04,0.06,
3.655,0.53,-1.39,-3.12,0.52,0.03,0.06,
3.655,0.53,-1.39,-3.12,0.52,0.02,0.06,
3.659,0.53,-1.39,-3.12,0.52,0.02,0.07,
3.66,0.53,-1.39,-3.12,0.52,0.02,0.07,
3.661,0.53,-1.39,-3.12,0.52,0.02,0.06,
3.664,0.67,-1.33,-3.39,0.52,0.02,0.06,
3.664,0.67,-1.33,-3.39,0.52,0.01,0.06,
3.666,0.67,-1.33,-3.39,0.51,0.00,0.06,
3.668,0.67,-1.33,-3.39,0.50,0.00,0.05,
3.67,0.67,-1.33,-3.39,0.50,0.00,0.05,
3.679,0.67,-1.33,-3.39,0.49,-0.00,0.04,
3.68,0.92,-1.22,-3.62,0.49,-0.00,0.04,
3.68,0.92,-1.22,-3.62,0.49,0.00,0.04,
3.68,0.92,-1.22,-3.62,0.48,-0.00,0.03,
3.681,0.92,-1.22,-3.62,0.47,0.00,0.02,
3.681,0.92,-1.22,-3.62,0.47,0.00,0.02,
3.683,0.92,-1.22,-3.62,0.45,0.00,0.01,
3.688,1.06,-1.05,-3.81,0.45,0.00,0.01,
3.689,1.06,-1.05,-3.81,0.44,-0.00,-0.00,
3.689,1.06,-1.05,-3.81,0.43,-0.00,-0.01,
3.689,1.06,-1.05,-3.81,0.42,-0.00,-0.03,
3.693,1.06,-1.05,-3.81,0.41,-0.00,-0.03,
3.695,1.06,-1.05,-3.81,0.40,-0.00,-0.05,
3.695,1.21,-0.90,-3.91,0.40,-0.00,-0.05,
3.695,1.21,-0.90,-3.91,0.39,-0.01,-0.06,
3.695,1.21,-0.90,-3.91,0.38,-0.01,-0.07,
3.699,1.21,-0.90,-3.91,0.36,-0.01,-0.09,
3.7,1.21,-0.90,-3.91,0.36,-0.02,-0.09,
3.703,1.21,-0.90,-3.91,0.35,-0.02,-0.10,
3.704,1.12,-0.75,-4.00,0.35,-0.02,-0.10,
3.705,1.12,-0.75,-4.00,0.34,-0.02,-0.11,
3.705,1.12,-0.75,-4.00,0.32,-0.03,-0.12,
3.709,1.12,-0.75,-4.00,0.30,-0.04,-0.14,
3.71,1.12,-0.75,-4.00,0.30,-0.04,-0.14,
3.711,1.12,-0.75,-4.00,0.28,-0.04,-0.15,
3.713,1.04,-0.66,-4.11,0.28,-0.04,-0.15,
3.714,1.04,-0.66,-4.11,0.27,-0.04,-0.16,
3.722,1.04,-0.66,-4.11,0.26,-0.04,-0.17,
3.723,1.04,-0.66,-4.11,0.23,-0.04,-0.18,
3.723,1.04,-0.66,-4.11,0.22,-0.04,-0.19,
3.723,1.04,-0.66,-4.11,0.21,-0.03,-0.19,
3.723,0.73,-0.64,-4.20,0.21,-0.03,-0.19,
3.723,0.73,-0.64,-4.20,0.19,-0.03,-0.20,
3.726,0.73,-0.64,-4.20,0.17,-0.01,-0.20,
3.73,0.73,-0.64,-4.20,0.14,0.00,-0.20,
3.73,0.73,-0.64,-4.20,0.13,0.01,-0.20,
3.731,0.73,-0.64,-4.20,0.10,0.03,-0.20,
3.741,0.44,-0.57,-4.33,0.10,0.03,-0.20,
3.742,0.44,-0.57,-4.33,0.07,0.05,-0.20,
3.742,0.44,-0.57,-4.33,0.05,0.08,-0.20,
3.742,0.44,-0.57,-4.33,0.01,0.11,-0.20,
3.742,0.44,-0.57,-4.33,-0.01,0.12,-0.20,
3.742,0.44,-0.57,-4.33,-0.04,0.15,-0.20,
3.744,0.17,-0.57,-4.44,-0.04,0.15,-0.20,
3.745,0.17,-0.57,-4.44,-0.07,0.18,-0.20,
3.746,0.17,-0.57,-4.44,-0.11,0.20,-0.19,
3.749,0.17,-0.57,-4.44,-0.15,0.23,-0.19,
3.75,0.17,-0.57,-4.44,-0.17,0.24,-0.19,
3.751,0.17,-0.57,-4.44,-0.20,0.26,-0.19,
3.754,0.00,-0.39,-4.32,-0.20,0.26,-0.19,
3.754,0.00,-0.39,-4.32,-0.23,0.28,-0.19,
3.755,0.00,-0.39,-4.32,-0.26,0.30,-0.19,
3.759,0.00,-0.39,-4.32,-0.30,0.32,-0.20,
3.761,0.00,-0.39,-4.32,-0.31,0.33,-0.20,
3.777,0.00,-0.39,-4.32,-0.34,0.33,-0.20,
3.778,0.01,-0.10,-3.88,-0.34,0.33,-0.20,
3.778,0.01,-0.10,-3.88,-0.36,0.34,-0.20,
3.778,0.01,-0.10,-3.88,-0.38,0.34,-0.21,
3.778,0.01,-0.10,-3.88,-0.40,0.35,-0.21,
3.779,0.01,-0.10,-3.88,-0.41,0.34,-0.22,
3.779,0.01,-0.10,-3.88,-0.42,0.34,-0.22,
3.779,0.17,0.29,-3.16,-0.42,0.34,-0.22,
3.779,0.17,0.29,-3.16,-0.43,0.33,-0.23,
3.779,0.17,0.29,-3.16,-0.44,0.31,-0.24,
3.78,0.17,0.29,-3.16,-0.45,0.28,-0.26,
3.78,0.17,0.29,-3.16,-0.45,0.26,-0.27,
3.784,0.17,0.29,-3.16,-0.45,0.23,-0.29,
3.785,0.48,0.51,-2.11,-0.45,0.23,-0.29,
3.785,0.48,0.51,-2.11,-0.44,0.20,-0.30,
3.785,0.48,0.51,-2.11,-0.43,0.16,-0.32,
3.788,0.48,0.51,-2.11,-0.40,0.09,-0.34,
3.789,0.48,0.51,-2.11,-0.39,0.07,-0.35,
3.791,0.48,0.51,-2.11,-0.37,0.02,-0.37,
3.793,0.77,0.71,-0.91,-0.37,0.02,-0.37,
3.793,0.77,0.71,-0.91,-0.34,-0.02,-0.39,
3.795,0.77,0.71,-0.91,-0.31,-0.07,-0.40,
3.799,0.77,0.71,-0.91,-0.25,-0.13,-0.43,
3.801,0.77,0.71,-0.91,-0.20,-0.18,-0.45,
3.802,0.77,0.71,-0.91,-0.18,-0.20,-0.45,
3.804,0.61,0.70,-0.06,-0.18,-0.20,-0.45,
3.804,0.61,0.70,-0.06,-0.17,-0.21,-0.46,
3.809,0.61,0.70,-0.06,-0.13,-0.24,-0.46,
3.81,0.61,0.70,-0.06,-0.08,-0.27,-0.47,
3.81,0.61,0.70,-0.06,-0.07,-0.28,-0.47,
3.811,0.61,0.70,-0.06,-0.04,-0.29,-0.46,
3.813,0.09,0.57,0.10,-0.04,-0.29,-0.46,
3.813,0.09,0.57,0.10,-0.02,-0.30,-0.46,
3.816,0.09,0.57,0.10,0.00,-0.30,-0.45,
3.819,0.09,0.57,0.10,0.03,-0.30,-0.43,
3.819,0.09,0.57,0.10,0.03,-0.30,-0.42,
3.821,0.09,0.57,0.10,0.04,-0.30,-0.40,
3.823,-0.55,0.42,-0.06,0.04,-0.30,-0.40,
3.823,-0.55,0.42,-0.06,0.05,-0.30,-0.38,
3.825,-0.55,0.42,-0.06,0.06,-0.29,-0.36,
3.828,-0.55,0.42,-0.06,0.07,-0.28,-0.33,
3.829,-0.55,0.42,-0.06,0.07,-0.28,-0.32,
3.831,-0.55,0.42,-0.06,0.08,-0.27,-0.29,
3.833,-0.96,0.49,-0.24,0.08,-0.27,-0.29,
3.834,-0.96,0.49,-0.24,0.08,-0.27,-0.27,
3.835,-0.96,0.49,-0.24,0.08,-0.26,-0.26,
3.838,-0.96,0.49,-0.24,0.08,-0.25,-0.23,
3.839,-0.96,0.49,-0.24,0.08,-0.25,-0.23,
3.841,-0.96,0.49,-0.24,0.07,-0.24,-0.22,
3.843,-0.80,0.71,-0.20,0.07,-0.24,-0.22,
3.843,-0.80,0.71,-0.20,0.07,-0.23,-0.21,
3.845,-0.80,0.71,-0.20,0.07,-0.22,-0.20,
3.848,-0.80,0.71,-0.20,0.07,-0.21,-0.20,
3.849,-0.80,0.71,-0.20,0.08,-0.20,-0.20,
3.851,-0.80,0.71,-0.20,0.08,-0.19,-0.20,
3.853,-0.40,0.93,0.22,0.08,-0.19,-0.20,
3.853,-0.40,0.93,0.22,0.09,-0.18,-0.20,
3.855,-0.40,0.93,0.22,0.09,-0.16,-0.21,
3.858,-0.40,0.93,0.22,0.11,-0.14,-0.21,
3.859,-0.40,0.93,0.22,0.12,-0.14,-0.21,
3.861,-0.40,0.93,0.22,0.13,-0.12,-0.22,
3.863,-0.31,1.11,0.71,0.13,-0.12,-0.22,
3.863,-0.31,1.11,0.71,0.14,-0.11,-0.22,
3.87,-0.31,1.11,0.71,0.16,-0.11,-0.22,
3.87,-0.31,1.11,0.71,0.17,-0.09,-0.22,
3.87,-0.31,1.11,0.71,0.18,-0.09,-0.22,
3.871,-0.31,1.11,0.71,0.19,-0.08,-0.22,
3.873,-0.44,1.20,0.92,0.19,-0.08,-0.22,
3.873,-0.44,1.20,0.92,0.20,-0.08,-0.22,
3.875,-0.44,1.20,0.92,0.21,-0.08,-0.22,
3.878,-0.44,1.20,0.92,0.23,-0.07,-0.21,
3.879,-0.44,1.20,0.92,0.23,-0.07,-0.21,
3.883,-0.44,1.20,0.92,0.24,-0.06,-0.21,
3.883,-0.76,1.15,0.98,0.24,-0.06,-0.21,
3.884,-0.76,1.15,0.98,0.25,-0.06,-0.20,
3.885,-0.76,1.15,0.98,0.26,-0.06,-0.19,
3.888,-0.76,1.15,0.98,0.27,-0.05,-0.17,
3.889,-0.76,1.15,0.98,0.27,-0.05,-0.16,
3.891,-0.76,1.15,0.98,0.28,-0.05,-0.15,
3.893,-1.26,1.02,1.00,0.28,-0.05,-0.15,
3.893,-1.26,1.02,1.00,0.29,-0.05,-0.13,
3.895,-1.26,1.02,1.00,0.29,-0.04,-0.11,
3.898,-1.26,1.02,1.00,0.30,-0.03,-0.08,
3.899,-1.26,1.02,1.00,0.30,-0.03,-0.07,
3.903,-1.26,1.02,1.00,0.31,-0.02,-0.04,
3.904,-1.77,0.84,0.91,0.31,-0.02,-0.04,
3.905,-1.77,0.84,0.91,0.31,-0.01,-0.01,
3.905,-1.77,0.84,0.91,0.31,-0.00,0.02,
3.908,-1.77,0.84,0.91,0.31,0.01,0.06,
3.909,-1.77,0.84,0.91,0.31,0.01,0.08,
3.911,-1.77,0.84,0.91,0.31,0.02,0.11,
3.913,-2.25,0.77,0.73,0.31,0.02,0.11,
3.913,-2.25,0.77,0.73,0.30,0.03,0.15,
3.915,-2.25,0.77,0.73,0.30,0.04,0.18,
3.921,-2.25,0.77,0.73,0.29,0.05,0.24,
3.921,-2.25,0.77,0.73,0.28,0.06,0.25,
3.922,-2.25,0.77,0.73,0.28,0.07,0.29,
3.923,-2.45,0.76,0.74,0.28,0.07,0.29,
3.923,-2.45,0.76,0.74,0.27,0.07,0.33,
3.925,-2.45,0.76,0.74,0.27,0.08,0.37,
3.943,-2.45,0.76,0.74,0.26,0.10,0.42,
3.943,-2.45,0.76,0.74,0.26,0.10,0.44,
3.943,-2.45,0.76,0.74,0.26,0.11,0.48,
3.944,-2.66,0.86,1.00,0.26,0.11,0.48,
3.944,-2.66,0.86,1.00,0.26,0.12,0.52,
3.944,-2.66,0.86,1.00,0.26,0.14,0.56,
3.944,-2.66,0.86,1.00,0.26,0.15,0.62,
3.944,-2.66,0.86,1.00,0.26,0.17,0.66,
3.945,-2.66,0.86,1.00,0.26,0.17,0.68,
3.945,-2.75,1.06,1.22,0.26,0.17,0.68,
3.945,-2.75,1.06,1.22,0.27,0.18,0.71,
3.945,-2.75,1.06,1.22,0.26,0.18,0.75,
3.948,-2.75,1.06,1.22,0.26,0.18,0.80,
3.95,-2.75,1.06,1.22,0.26,0.18,0.84,
3.951,-2.75,1.06,1.22,0.25,0.18,0.85,
3.953,-2.74,1.30,1.25,0.25,0.18,0.85,
3.953,-2.74,1.30,1.25,0.25,0.17,0.88,
3.955,-2.74,1.30,1.25,0.24,0.16,0.91,
3.958,-2.74,1.30,1.25,0.23,0.15,0.95,
3.959,-2.74,1.30,1.25,0.21,0.13,0.97,
3.961,-2.74,1.30,1.25,0.20,0.13,0.98,
3.963,-2.36,1.43,1.18,0.20,0.13,0.98,
3.963,-2.36,1.43,1.18,0.19,0.11,1.00,
3.965,-2.36,1.43,1.18,0.16,0.10,1.01,
3.968,-2.36,1.43,1.18,0.13,0.07,1.02,
3.97,-2.36,1.43,1.18,0.10,0.05,1.02,
3.972,-2.36,1.43,1.18,0.09,0.04,1.02,
3.973,-1.83,1.61,1.14,0.09,0.04,1.02,
3.974,-1.83,1.61,1.14,0.06,0.02,1.01,
3.979,-1.83,1.61,1.14,0.03,0.00,1.01,
3.979,-1.83,1.61,1.14,-0.03,-0.02,0.99,
3.979,-1.83,1.61,1.14,-0.06,-0.04,0.98,
3.982,-1.83,1.61,1.14,-0.08,-0.05,0.97,
3.985,-1.34,1.66,1.37,-0.08,-0.05,0.97,
3.985,-1.34,1.66,1.37,-0.11,-0.07,0.95,
3.985,-1.34,1.66,1.37,-0.14,-0.08,0.94,
3.988,-1.34,1.66,1.37,-0.20,-0.10,0.91,
3.989,-1.34,1.66,1.37,-0.23,-0.11,0.90,
3.991,-1.34,1.66,1.37,-0.24,-0.11,0.89,
3.993,-1.22,1.51,1.89,-0.24,-0.11,0.89,
3.993,-1.22,1.51,1.89,-0.28,-0.12,0.87,
3.995,-1.22,1.51,1.89,-0.31,-0.13,0.86,
3.998,-1.22,1.51,1.89,-0.35,-0.14,0.83,
4.0,-1.22,1.51,1.89,-0.37,-0.14,0.83,
4.001,-1.22,1.51,1.89,-0.38,-0.14,0.82,
4.004,-1.42,0.98,2.73,-0.38,-0.14,0.82,
4.004,-1.42,0.98,2.73,-0.40,-0.14,0.81,
4.005,-1.42,0.98,2.73,-0.41,-0.14,0.81,
4.008,-1.42,0.98,2.73,-0.42,-0.13,0.81,
4.009,-1.42,0.98,2.73,-0.43,-0.11,0.82,
4.011,-1.42,0.98,2.73,-0.43,-0.10,0.82,
4.021,-1.88,0.34,3.76,-0.43,-0.10,0.82,
4.021,-1.88,0.34,3.76,-0.43,-0.08,0.83,
4.021,-1.88,0.34,3.76,-0.42,-0.06,0.84,
4.021,-1.88,0.34,3.76,-0.41,-0.01,0.87,
4.021,-1.88,0.34,3.76,-0.39,0.02,0.88,
4.022,-1.88,0.34,3.76,-0.38,0.04,0.89,
4.028,-2.34,-0.24,4.68,-0.38,0.04,0.89,
4.029,-2.34,-0.24,4.68,-0.35,0.07,0.91,
4.029,-2.34,-0.24,4.68,-0.32,0.12,0.93,
4.03,-2.34,-0.24,4.68,-0.27,0.19,0.96,
4.038,-2.34,-0.24,4.68,-0.24,0.24,0.99,
4.038,-2.34,-0.24,4.68,-0.22,0.26,1.00,
4.038,-2.78,-0.67,5.26,-0.22,0.26,1.00,
4.038,-2.78,-0.67,5.26,-0.18,0.32,1.03,
4.038,-2.78,-0.67,5.26,-0.14,0.37,1.05,
4.039,-2.78,-0.67,5.26,-0.08,0.46,1.09,
4.04,-2.78,-0.67,5.26,-0.03,0.51,1.13,
4.041,-2.78,-0.67,5.26,-0.01,0.54,1.14,
4.043,-3.16,-0.91,5.09,-0.01,0.54,1.14,
4.043,-3.16,-0.91,5.09,0.03,0.60,1.17,
4.045,-3.16,-0.91,5.09,0.06,0.65,1.20,
4.048,-3.16,-0.91,5.09,0.11,0.73,1.25,
4.049,-3.16,-0.91,5.09,0.14,0.78,1.28,
4.051,-3.16,-0.91,5.09,0.15,0.80,1.29,
4.053,-3.45,-0.99,4.12,0.15,0.80,1.29,
4.053,-3.45,-0.99,4.12,0.17,0.85,1.32,
4.055,-3.45,-0.99,4.12,0.19,0.89,1.35,
4.058,-3.45,-0.99,4.12,0.21,0.93,1.39,
4.059,-3.45,-0.99,4.12,0.21,0.95,1.41,
4.061,-3.45,-0.99,4.12,0.21,0.96,1.42,
4.064,-3.43,-0.90,2.68,0.21,0.96,1.42,
4.065,-3.43,-0.90,2.68,0.21,0.98,1.45,
4.065,-3.43,-0.90,2.68,0.21,0.99,1.47,
4.068,-3.43,-0.90,2.68,0.20,1.00,1.50,
4.072,-3.43,-0.90,2.68,0.18,1.00,1.51,
4.072,-3.43,-0.90,2.68,0.18,0.99,1.52,
4.073,-3.31,-0.81,1.50,0.18,0.99,1.52,
4.074,-3.31,-0.81,1.50,0.17,0.98,1.54,
4.075,-3.31,-0.81,1.50,0.15,0.96,1.55,
4.078,-3.31,-0.81,1.50,0.13,0.92,1.56,
4.079,-3.31,-0.81,1.50,0.12,0.89,1.57,
4.081,-3.31,-0.81,1.50,0.11,0.87,1.57,
4.085,-2.89,-0.63,0.84,0.11,0.87,1.57,
4.085,-2.89,-0.63,0.84,0.10,0.82,1.58,
4.086,-2.89,-0.63,0.84,0.09,0.78,1.58,
4.088,-2.89,-0.63,0.84,0.08,0.70,1.57,
4.089,-2.89,-0.63,0.84,0.07,0.64,1.57,
4.091,-2.89,-0.63,0.84,0.07,0.61,1.57,
4.094,-2.36,-0.49,0.82,0.07,0.61,1.57,
4.12,-2.36,-0.49,0.82,0.07,0.56,1.56,
4.121,-2.36,-0.49,0.82,0.08,0.50,1.55,
4.121,-2.36,-0.49,0.82,0.09,0.41,1.54,
4.122,-2.36,-0.49,0.82,0.11,0.35,1.53,
4.122,-2.36,-0.49,0.82,0.12,0.32,1.52,
4.122,-1.90,-0.42,1.35,0.12,0.32,1.52,
4.123,-1.90,-0.42,1.35,0.14,0.26,1.51,
4.123,-1.90,-0.42,1.35,0.16,0.20,1.50,
4.124,-1.90,-0.42,1.35,0.21,0.12,1.48,
4.124,-1.90,-0.42,1.35,0.24,0.06,1.47,
4.124,-1.90,-0.42,1.35,0.26,0.04,1.47,
4.124,-1.73,-0.53,2.12,0.26,0.04,1.47,
4.125,-1.73,-0.53,2.12,0.30,-0.01,1.46,
4.125,-1.73,-0.53,2.12,0.34,-0.05,1.46,
4.125,-1.73,-0.53,2.12,0.40,-0.10,1.45,
4.125,-1.73,-0.53,2.12,0.45,-0.13,1.45,
4.126,-1.73,-0.53,2.12,0.47,-0.15,1.45,
4.126,-1.73,-0.53,2.12,0.55,-0.18,1.44,
4.126,-1.73,-0.53,2.12,0.55,-0.18,1.44,
4.131,-1.56,-0.77,2.60,0.55,-0.18,1.44,
4.132,-1.56,-0.77,2.60,0.62,-0.18,1.45,
4.132,-1.56,-0.77,2.60,0.64,-0.18,1.44,
4.132,-1.56,-0.77,2.60,0.65,-0.18,1.44,
4.136,-1.44,-0.92,2.42,0.65,-0.18,1.44,
4.136,-1.44,-0.92,2.42,0.68,-0.17,1.45,
4.136,-1.44,-0.92,2.42,0.70,-0.16,1.44,
4.138,-1.44,-0.92,2.42,0.74,-0.13,1.44,
4.139,-1.44,-0.92,2.42,0.75,-0.11,1.44,
4.141,-1.44,-0.92,2.42,0.76,-0.10,1.44,
4.143,-1.19,-1.10,1.80,0.76,-0.10,1.44,
4.143,-1.19,-1.10,1.80,0.78,-0.07,1.44,
4.145,-1.19,-1.10,1.80,0.79,-0.04,1.43,
4.151,-1.19,-1.10,1.80,0.80,0.02,1.43,
4.153,-1.19,-1.10,1.80,0.81,0.08,1.43,
4.153,-1.19,-1.10,1.80,0.81,0.10,1.43,
4.154,-1.05,-1.18,0.97,0.81,0.10,1.43,
4.154,-1.05,-1.18,0.97,0.81,0.14,1.42,
4.155,-1.05,-1.18,0.97,0.81,0.16,1.42,
4.158,-1.05,-1.18,0.97,0.81,0.22,1.42,
4.159,-1.05,-1.18,0.97,0.81,0.26,1.42,
4.161,-1.05,-1.18,0.97,0.81,0.28,1.42,
4.17,-0.91,-1.20,0.30,0.81,0.28,1.42,
4.171,-0.91,-1.20,0.30,0.80,0.31,1.42,
4.171,-0.91,-1.20,0.30,0.80,0.35,1.41,
4.171,-0.91,-1.20,0.30,0.79,0.39,1.40,
4.171,-0.91,-1.20,0.30,0.78,0.42,1.40,
4.174,-0.91,-1.20,0.30,0.77,0.44,1.40,
4.174,-0.81,-1.23,-0.43,0.77,0.44,1.40,
4.174,-0.81,-1.23,-0.43,0.76,0.47,1.39,
4.179,-0.81,-1.23,-0.43,0.76,0.49,1.38,
4.18,-0.81,-1.23,-0.43,0.74,0.53,1.37,
4.205,-0.81,-1.23,-0.43,0.73,0.54,1.36,
4.206,-0.81,-1.23,-0.43,0.72,0.56,1.35,
4.206,-0.63,-1.14,-1.00,0.72,0.56,1.35,
4.206,-0.63,-1.14,-1.00,0.71,0.57,1.34,
4.206,-0.63,-1.14,-1.00,0.70,0.58,1.32,
4.207,-0.63,-1.14,-1.00,0.69,0.59,1.31,
4.207,-0.63,-1.14,-1.00,0.68,0.59,1.30,
4.207,-0.63,-1.14,-1.00,0.67,0.59,1.28,
4.207,-0.46,-1.05,-1.47,0.67,0.59,1.28,
4.207,-0.46,-1.05,-1.47,0.66,0.59,1.26,
4.208,-0.46,-1.05,-1.47,0.65,0.58,1.25,
4.208,-0.46,-1.05,-1.47,0.62,0.57,1.23,
4.208,-0.46,-1.05,-1.47,0.61,0.57,1.22,
4.208,-0.46,-1.05,-1.47,0.60,0.55,1.20,
4.212,-0.46,-1.04,-1.87,0.60,0.55,1.20,
4.212,-0.46,-1.04,-1.87,0.59,0.54,1.19,
4.212,-0.46,-1.04,-1.87,0.58,0.52,1.18,
4.213,-0.46,-1.04,-1.87,0.56,0.49,1.15,
4.213,-0.46,-1.04,-1.87,0.56,0.48,1.15,
4.215,-0.46,-1.04,-1.87,0.55,0.46,1.14,
4.216,-0.50,-1.10,-1.98,0.55,0.46,1.14,
4.216,-0.50,-1.10,-1.98,0.54,0.45,1.12,
4.217,-0.50,-1.10,-1.98,0.53,0.43,1.11,
4.218,-0.50,-1.10,-1.98,0.53,0.41,1.10,
4.219,-0.50,-1.10,-1.98,0.52,0.39,1.09,
4.221,-0.50,-1.10,-1.98,0.52,0.38,1.08,
4.223,-0.56,-1.17,-1.91,0.52,0.38,1.08,
4.223,-0.56,-1.17,-1.91,0.52,0.37,1.07,
4.225,-0.56,-1.17,-1.91,0.52,0.35,1.06,
4.228,-0.56,-1.17,-1.91,0.51,0.34,1.05,
4.23,-0.56,-1.17,-1.91,0.51,0.33,1.04,
4.231,-0.56,-1.17,-1.91,0.50,0.32,1.04,
4.233,-0.66,-1.33,-1.84,0.50,0.32,1.04,
4.233,-0.66,-1.33,-1.84,0.50,0.32,1.03,
4.236,-0.66,-1.33,-1.84,0.49,0.31,1.03,
4.238,-0.66,-1.33,-1.84,0.49,0.31,1.02,
4.239,-0.66,-1.33,-1.84,0.49,0.31,1.02,
4.241,-0.66,-1.33,-1.84,0.49,0.31,1.01,
4.244,-0.73,-1.49,-1.77,0.49,0.31,1.01,
4.244,-0.73,-1.49,-1.77,0.48,0.30,1.01,
4.245,-0.73,-1.49,-1.77,0.48,0.31,1.01,
4.25,-0.73,-1.49,-1.77,0.48,0.31,1.01,
4.251,-0.73,-1.49,-1.77,0.48,0.31,1.01,
4.252,-0.73,-1.49,-1.77,0.48,0.31,1.01,
4.254,-0.77,-1.68,-1.72,0.48,0.31,1.01,
4.254,-0.77,-1.68,-1.72,0.48,0.31,1.01,
4.256,-0.77,-1.68,-1.72,0.48,0.32,1.00,
4.258,-0.77,-1.68,-1.72,0.49,0.32,1.00,
4.259,-0.77,-1.68,-1.72,0.49,0.32,1.00,
4.283,-0.77,-1.68,-1.72,0.49,0.33,1.00,
4.283,-0.71,-1.75,-1.73,0.49,0.33,1.00,
4.283,-0.71,-1.75,-1.73,0.49,0.33,1.00,
4.283,-0.71,-1.75,-1.73,0.49,0.33,1.00,
4.284,-0.71,-1.75,-1.73,0.49,0.33,1.00,
4.284,-0.71,-1.75,-1.73,0.50,0.33,1.00,
4.284,-0.71,-1.75,-1.73,0.50,0.33,0.99,
4.284,-0.65,-1.82,-1.83,0.50,0.33,0.99,
4.285,-0.65,-1.82,-1.83,0.50,0.33,0.99,
4.285,-0.65,-1.82,-1.83,0.49,0.33,0.99,
4.285,-0.65,-1.82,-1.83,0.49,0.33,0.98,
4.285,-0.65,-1.82,-1.83,0.49,0.33,0.98,
4.286,-0.65,-1.82,-1.83,0.49,0.33,0.97,
4.286,-0.38,-1.80,-2.06,0.49,0.33,0.97,
4.286,-0.38,-1.80,-2.06,0.48,0.33,0.96,
4.287,-0.38,-1.80,-2.06,0.48,0.33,0.95,
4.292,-0.38,-1.80,-2.06,0.47,0.33,0.94,
4.292,-0.38,-1.80,-2.06,0.47,0.33,0.93,
4.293,-0.38,-1.80,-2.06,0.46,0.33,0.92,
4.294,-0.16,-1.80,-2.26,0.46,0.33,0.92,
4.294,-0.16,-1.80,-2.26,0.46,0.32,0.91,
4.299,-0.16,-1.80,-2.26,0.45,0.32,0.90,
4.299,-0.16,-1.80,-2.26,0.44,0.32,0.89,
4.3,-0.16,-1.80,-2.26,0.43,0.32,0.88,
4.301,-0.16,-1.80,-2.26,0.42,0.32,0.86,
4.303,-0.03,-1.75,-2.47,0.42,0.32,0.86,
4.303,-0.03,-1.75,-2.47,0.41,0.31,0.85,
4.305,-0.03,-1.75,-2.47,0.40,0.31,0.84,
4.308,-0.03,-1.75,-2.47,0.38,0.32,0.83,
4.309,-0.03,-1.75,-2.47,0.37,0.32,0.81,
4.311,-0.03,-1.75,-2.47,0.35,0.32,0.80,
4.319,0.03,-1.73,-2.73,0.35,0.32,0.80,
4.32,0.03,-1.73,-2.73,0.34,0.33,0.78,
4.32,0.03,-1.73,-2.73,0.31,0.34,0.76,
4.32,0.03,-1.73,-2.73,0.29,0.35,0.75,
4.321,0.03,-1.73,-2.73,0.27,0.35,0.73,
4.321,0.03,-1.73,-2.73,0.24,0.37,0.71,
4.328,0.11,-1.66,-3.01,0.24,0.37,0.71,
4.329,0.11,-1.66,-3.01,0.22,0.38,0.68,
4.348,0.11,-1.66,-3.01,0.19,0.40,0.66,
4.348,0.11,-1.66,-3.01,0.16,0.42,0.63,
4.348,0.11,-1.66,-3.01,0.13,0.44,0.61,
4.348,0.11,-1.66,-3.01,0.09,0.47,0.58,
4.349,0.13,-1.63,-3.29,0.09,0.47,0.58,
4.349,0.13,-1.63,-3.29,0.06,0.50,0.56,
4.349,0.13,-1.63,-3.29,0.02,0.53,0.53,
4.349,0.13,-1.63,-3.29,-0.04,0.58,0.50,
4.35,0.13,-1.63,-3.29,-0.06,0.59,0.49,
4.35,0.13,-1.63,-3.29,-0.11,0.63,0.47,
4.35,-0.12,-1.63,-3.67,-0.11,0.63,0.47,
4.35,-0.12,-1.63,-3.67,-0.16,0.66,0.45,
4.35,-0.12,-1.63,-3.67,-0.20,0.70,0.43,
4.351,-0.12,-1.63,-3.67,-0.26,0.73,0.41,
4.351,-0.12,-1.63,-3.67,-0.31,0.76,0.39,
4.351,-0.12,-1.63,-3.67,-0.36,0.80,0.38,
4.353,-0.38,-1.61,-3.90,-0.36,0.80,0.38,
4.354,-0.38,-1.61,-3.90,-0.42,0.84,0.36,
4.355,-0.38,-1.61,-3.90,-0.48,0.88,0.35,
4.358,-0.38,-1.61,-3.90,-0.54,0.91,0.33,
4.359,-0.38,-1.61,-3.90,-0.60,0.95,0.32,
4.361,-0.38,-1.61,-3.90,-0.66,0.99,0.32,
4.365,-0.54,-1.51,-3.96,-0.66,0.99,0.32,
4.366,-0.54,-1.51,-3.96,-0.72,1.03,0.31,
4.367,-0.54,-1.51,-3.96,-0.78,1.06,0.30,
4.368,-0.54,-1.51,-3.96,-0.84,1.10,0.29,
4.37,-0.54,-1.51,-3.96,-0.90,1.14,0.29,
4.371,-0.54,-1.51,-3.96,-0.96,1.18,0.28,
4.373,-0.74,-1.45,-3.76,-0.96,1.18,0.28,
4.374,-0.74,-1.45,-3.76,-1.02,1.21,0.28,
4.375,-0.74,-1.45,-3.76,-1.08,1.25,0.28,
4.378,-0.74,-1.45,-3.76,-1.13,1.28,0.29,
4.38,-0.74,-1.45,-3.76,-1.19,1.30,0.30,
4.383,-0.74,-1.45,-3.76,-1.23,1.32,0.31,
4.385,-0.99,-1.46,-3.11,-1.23,1.32,0.31,
4.386,-0.99,-1.46,-3.11,-1.27,1.34,0.32,
4.386,-0.99,-1.46,-3.11,-1.31,1.34,0.33,
4.388,-0.99,-1.46,-3.11,-1.35,1.34,0.36,
4.389,-0.99,-1.46,-3.11,-1.36,1.34,0.37,
4.391,-0.99,-1.46,-3.11,-1.37,1.33,0.40,
4.393,-1.27,-1.46,-1.68,-1.37,1.33,0.40,
4.394,-1.27,-1.46,-1.68,-1.38,1.32,0.42,
4.395,-1.27,-1.46,-1.68,-1.38,1.31,0.44,
4.4,-1.27,-1.46,-1.68,-1.37,1.30,0.48,
4.4,-1.27,-1.46,-1.68,-1.36,1.29,0.49,
4.402,-1.27,-1.46,-1.68,-1.34,1.26,0.53,
4.404,-1.41,-1.27,-0.18,-1.34,1.26,0.53,
4.404,-1.41,-1.27,-0.18,-1.32,1.24,0.57,
4.405,-1.41,-1.27,-0.18,-1.29,1.21,0.61,
4.408,-1.41,-1.27,-0.18,-1.24,1.17,0.67,
4.409,-1.41,-1.27,-0.18,-1.22,1.15,0.69,
4.411,-1.41,-1.27,-0.18,-1.18,1.12,0.73,
4.417,-1.50,-1.12,1.01,-1.18,1.12,0.73,
4.417,-1.50,-1.12,1.01,-1.13,1.09,0.77,
4.417,-1.50,-1.12,1.01,-1.08,1.06,0.81,
4.418,-1.50,-1.12,1.01,-1.00,1.00,0.88,
4.419,-1.50,-1.12,1.01,-0.98,0.98,0.90,
4.421,-1.50,-1.12,1.01,-0.93,0.93,0.94,
4.454,-1.42,-0.78,1.78,-0.93,0.93,0.94,
4.454,-1.42,-0.78,1.78,-0.87,0.89,0.98,
4.455,-1.42,-0.78,1.78,-0.82,0.84,1.02,
4.488,-1.42,-0.78,1.78,-0.74,0.75,1.08,
4.489,-1.42,-0.78,1.78,-0.72,0.72,1.10,
4.49,-1.42,-0.78,1.78,-0.67,0.66,1.14,
4.49,-1.14,-0.54,2.12,-0.67,0.66,1.14,
4.491,-1.14,-0.54,2.12,-0.62,0.60,1.17,
4.492,-1.14,-0.54,2.12,-0.57,0.53,1.20,
4.492,-1.14,-0.54,2.12,-0.50,0.43,1.25,
4.493,-1.14,-0.54,2.12,-0.47,0.40,1.26,
4.494,-1.14,-0.54,2.12,-0.43,0.33,1.29,
4.495,-0.73,-0.18,2.28,-0.43,0.33,1.29,
4.498,-0.73,-0.18,2.28,-0.38,0.26,1.32,
4.498,-0.73,-0.18,2.28,-0.33,0.19,1.35,
4.498,-0.73,-0.18,2.28,-0.26,0.08,1.39,
4.499,-0.73,-0.18,2.28,-0.24,0.04,1.41,
4.499,-0.73,-0.18,2.28,-0.19,-0.03,1.43,
4.5,-0.40,0.27,2.39,-0.19,-0.03,1.43,
4.5,-0.40,0.27,2.39,-0.15,-0.10,1.45,
4.501,-0.40,0.27,2.39,-0.11,-0.17,1.47,
4.501,-0.40,0.27,2.39,-0.06,-0.27,1.50,
4.501,-0.40,0.27,2.39,-0.04,-0.30,1.51,
4.502,-0.40,0.27,2.39,-0.01,-0.36,1.53,
4.502,0.19,0.65,2.52,-0.01,-0.36,1.53,
4.503,0.19,0.65,2.52,0.02,-0.41,1.54,
4.503,0.19,0.65,2.52,0.06,-0.46,1.55,
4.504,0.19,0.65,2.52,0.10,-0.53,1.56,
4.504,0.19,0.65,2.52,0.11,-0.55,1.57,
4.504,0.19,0.65,2.52,0.14,-0.58,1.57,
4.505,0.94,1.03,2.78,0.14,-0.58,1.57,
4.505,0.94,1.03,2.78,0.17,-0.62,1.57,
4.506,0.94,1.03,2.78,0.19,-0.65,1.58,
4.506,0.94,1.03,2.78,0.23,-0.69,1.58,
4.506,0.94,1.03,2.78,0.24,-0.71,1.57,
4.507,0.94,1.03,2.78,0.26,-0.74,1.57,
4.507,1.58,1.36,3.18,0.26,-0.74,1.57,
4.508,1.58,1.36,3.18,0.28,-0.76,1.56,
4.508,1.58,1.36,3.18,0.31,-0.79,1.55,
4.508,1.58,1.36,3.18,0.34,-0.82,1.53,
4.509,1.58,1.36,3.18,0.35,-0.82,1.52,
4.509,1.58,1.36,3.18,0.38,-0.83,1.50,
4.51,2.37,1.69,3.75,0.38,-0.83,1.50,
4.51,2.37,1.69,3.75,0.40,-0.84,1.48,
4.51,2.37,1.69,3.75,0.42,-0.84,1.47,
4.511,2.37,1.69,3.75,0.44,-0.84,1.43,
4.511,2.37,1.69,3.75,0.45,-0.83,1.40,
4.512,2.37,1.69,3.75,0.45,-0.82,1.39,
4.512,2.92,1.92,3.92,0.45,-0.82,1.39,
4.512,2.92,1.92,3.92,0.46,-0.81,1.36,
4.513,2.92,1.92,3.92,0.45,-0.79,1.33,
4.513,2.92,1.92,3.92,0.44,-0.75,1.29,
4.514,2.92,1.92,3.92,0.43,-0.73,1.28,
4.514,2.92,1.92,3.92,0.42,-0.70,1.25,
4.515,3.15,2.03,3.73,0.42,-0.70,1.25,
4.515,3.15,2.03,3.73,0.40,-0.66,1.22,
4.515,3.15,2.03,3.73,0.37,-0.61,1.20,
4.532,3.15,2.03,3.73,0.33,-0.53,1.17,
4.533,3.15,2.03,3.73,0.31,-0.50,1.16,
4.533,3.15,2.03,3.73,0.27,-0.44,1.14,
4.533,2.95,2.02,3.37,0.27,-0.44,1.14,
4.533,2.95,2.02,3.37,0.23,-0.38,1.11,
4.534,2.95,2.02,3.37,0.18,-0.32,1.09,
4.534,2.95,2.02,3.37,0.10,-0.24,1.06,
4.534,2.95,2.02,3.37,0.08,-0.21,1.05,
4.534,2.95,2.02,3.37,0.02,-0.15,1.03,
4.538,2.84,1.95,3.04,0.02,-0.15,1.03,
4.538,2.84,1.95,3.04,-0.04,-0.09,1.01,
4.539,2.84,1.95,3.04,-0.10,-0.04,0.99,
4.539,2.84,1.95,3.04,-0.19,0.04,0.95,
4.539,2.84,1.95,3.04,-0.22,0.06,0.94,
4.543,2.84,1.95,3.04,-0.28,0.10,0.92,
4.543,2.60,1.93,2.97,-0.28,0.10,0.92,
4.544,2.60,1.93,2.97,-0.34,0.13,0.89,
4.546,2.60,1.93,2.97,-0.40,0.17,0.87,
4.548,2.60,1.93,2.97,-0.49,0.20,0.82,
4.549,2.60,1.93,2.97,-0.52,0.21,0.81,
4.551,2.60,1.93,2.97,-0.57,0.23,0.77,
4.554,2.60,1.93,3.13,-0.57,0.23,0.77,
4.554,2.60,1.93,3.13,-0.63,0.24,0.74,
4.555,2.60,1.93,3.13,-0.68,0.24,0.71,
4.558,2.60,1.93,3.13,-0.75,0.23,0.65,
4.559,2.60,1.93,3.13,-0.78,0.22,0.63,
4.561,2.60,1.93,3.13,-0.82,0.21,0.59,
4.568,2.63,1.83,3.69,-0.82,0.21,0.59,
4.569,2.63,1.83,3.69,-0.86,0.19,0.54,
4.569,2.63,1.83,3.69,-0.89,0.18,0.50,
4.569,2.63,1.83,3.69,-0.94,0.15,0.43,
4.57,2.63,1.83,3.69,-0.95,0.14,0.41,
4.573,2.63,1.83,3.69,-0.97,0.12,0.37,
4.602,2.69,1.65,4.42,-0.97,0.12,0.37,
4.602,2.69,1.65,4.42,-0.99,0.10,0.32,
4.602,2.69,1.65,4.42,-1.01,0.08,0.28,
4.602,2.69,1.65,4.42,-1.03,0.05,0.21,
4.603,2.69,1.65,4.42,-1.04,0.04,0.19,
4.603,2.69,1.65,4.42,-1.05,0.02,0.16,
4.603,2.42,1.30,5.02,-1.05,0.02,0.16,
4.603,2.42,1.30,5.02,-1.06,-0.01,0.12,
4.603,2.42,1.30,5.02,-1.07,-0.02,0.08,
4.604,2.42,1.30,5.02,-1.07,-0.05,0.03,
4.604,2.42,1.30,5.02,-1.08,-0.06,0.01,
4.604,2.42,1.30,5.02,-1.08,-0.07,-0.03,
4.604,2.17,0.77,5.55,-1.08,-0.07,-0.03,
4.625,2.17,0.77,5.55,-1.08,-0.08,-0.06,
4.625,2.17,0.77,5.55,-1.08,-0.08,-0.09,
4.626,2.17,0.77,5.55,-1.07,-0.08,-0.13,
4.626,2.17,0.77,5.55,-1.06,-0.08,-0.14,
4.626,2.17,0.77,5.55,-1.05,-0.08,-0.16,
4.626,1.76,0.19,6.10,-1.05,-0.08,-0.16,
4.627,1.76,0.19,6.10,-1.04,-0.07,-0.18,
4.627,1.76,0.19,6.10,-1.03,-0.06,-0.20,
4.628,1.76,0.19,6.10,-1.00,-0.04,-0.21,
4.628,1.76,0.19,6.10,-0.99,-0.03,-0.22,
4.628,1.76,0.19,6.10,-0.97,-0.01,-0.22,
4.628,1.16,-0.36,6.60,-0.97,-0.01,-0.22,
4.629,1.16,-0.36,6.60,-0.94,0.01,-0.23,
4.629,1.16,-0.36,6.60,-0.91,0.03,-0.22,
4.629,1.16,-0.36,6.60,-0.87,0.08,-0.22,
4.63,1.16,-0.36,6.60,-0.85,0.09,-0.21,
4.63,0.41,-0.82,6.83,-0.85,0.09,-0.21,
4.63,0.41,-0.82,6.83,-0.78,0.16,-0.18,
4.63,0.41,-0.82,6.83,-0.75,0.19,-0.16,
4.631,0.41,-0.82,6.83,-0.75,0.19,-0.16,
4.631,0.41,-0.82,6.83,-0.69,0.24,-0.13,
4.631,0.41,-0.82,6.83,-0.67,0.26,-0.12,
4.64,0.41,-0.82,6.83,-0.63,0.29,-0.09,
4.64,-0.14,-1.25,6.78,-0.63,0.29,-0.09,
4.641,-0.14,-1.25,6.78,-0.59,0.32,-0.07,
4.641,-0.14,-1.25,6.78,-0.54,0.34,-0.04,
4.641,-0.14,-1.25,6.78,-0.47,0.38,0.00,
4.641,-0.14,-1.25,6.78,-0.45,0.38,0.02,
4.642,-0.14,-1.25,6.78,-0.40,0.39,0.04,
4.646,-0.35,-1.41,6.51,-0.40,0.39,0.04,
4.646,-0.35,-1.41,6.51,-0.35,0.40,0.07,
4.647,-0.35,-1.41,6.51,-0.30,0.40,0.09,
4.65,-0.35,-1.41,6.51,-0.23,0.39,0.13,
4.652,-0.35,-1.41,6.51,-0.20,0.38,0.14,
4.652,-0.35,-1.41,6.51,-0.15,0.37,0.16,
4.654,-0.19,-1.54,6.03,-0.15,0.37,0.16,
4.654,-0.19,-1.54,6.03,-0.10,0.35,0.17,
4.655,-0.19,-1.54,6.03,-0.05,0.32,0.19,
4.658,-0.19,-1.54,6.03,0.02,0.28,0.21,
4.659,-0.19,-1.54,6.03,0.05,0.27,0.21,
4.664,-0.19,-1.54,6.03,0.11,0.23,0.22,
4.665,0.13,-1.58,5.48,0.11,0.23,0.22,
4.665,0.13,-1.58,5.48,0.16,0.20,0.23,
4.667,0.13,-1.58,5.48,0.21,0.16,0.24,
4.671,0.13,-1.58,5.48,0.29,0.09,0.25,
4.671,0.13,-1.58,5.48,0.32,0.07,0.25,
4.671,0.13,-1.58,5.48,0.37,0.03,0.25,
4.673,0.47,-1.70,4.97,0.37,0.03,0.25,
4.673,0.47,-1.70,4.97,0.42,-0.02,0.25,
4.675,0.47,-1.70,4.97,0.47,-0.06,0.25,
4.685,0.47,-1.70,4.97,0.55,-0.13,0.25,
4.686,0.47,-1.70,4.97,0.57,-0.15,0.24,
4.686,0.47,-1.70,4.97,0.62,-0.19,0.24,
4.686,0.82,-1.78,4.49,0.62,-0.19,0.24,
4.686,0.82,-1.78,4.49,0.67,-0.23,0.23,
4.686,0.82,-1.78,4.49,0.72,-0.26,0.23,
4.688,0.82,-1.78,4.49,0.80,-0.31,0.22,
4.689,0.82,-1.78,4.49,0.82,-0.32,0.22,
4.724,0.82,-1.78,4.49,0.87,-0.34,0.21,
4.725,1.08,-1.96,4.01,0.87,-0.34,0.21,
4.725,1.08,-1.96,4.01,0.91,-0.36,0.20,
4.725,1.08,-1.96,4.01,0.95,-0.38,0.20,
4.725,1.08,-1.96,4.01,1.01,-0.40,0.19,
4.726,1.08,-1.96,4.01,1.03,-0.40,0.18,
4.726,1.08,-1.96,4.01,1.06,-0.41,0.17,
4.726,1.22,-2.08,3.25,1.06,-0.41,0.17,
4.726,1.22,-2.08,3.25,1.08,-0.41,0.17,
4.726,1.22,-2.08,3.25,1.11,-0.42,0.16,
4.726,1.22,-2.08,3.25,1.14,-0.41,0.15,
4.726,1.22,-2.08,3.25,1.15,-0.41,0.15,
4.727,1.22,-2.08,3.25,1.16,-0.41,0.14,
4.727,1.20,-2.29,2.33,1.16,-0.41,0.14,
4.727,1.20,-2.29,2.33,1.18,-0.40,0.14,
4.727,1.20,-2.29,2.33,1.19,-0.39,0.14,
4.727,1.20,-2.29,2.33,1.20,-0.38,0.14,
4.727,1.20,-2.29,2.33,1.20,-0.37,0.14,
4.727,1.20,-2.29,2.33,1.20,-0.36,0.13,
4.728,1.05,-2.41,1.32,1.20,-0.36,0.13,
4.728,1.05,-2.41,1.32,1.20,-0.35,0.13,
4.728,1.05,-2.41,1.32,1.20,-0.33,0.13,
4.728,1.05,-2.41,1.32,1.19,-0.31,0.13,
4.737,1.05,-2.41,1.32,1.19,-0.31,0.13,
4.737,1.05,-2.41,1.32,1.18,-0.30,0.13,
4.737,0.96,-2.56,0.36,1.18,-0.30,0.13,
4.737,0.96,-2.56,0.36,1.17,-0.28,0.13,
4.738,0.96,-2.56,0.36,1.16,-0.28,0.12,
4.738,0.96,-2.56,0.36,1.15,-0.26,0.12,
4.739,0.96,-2.56,0.36,1.14,-0.26,0.12,
4.742,0.96,-2.56,0.36,1.13,-0.25,0.12,
4.745,0.88,-2.56,-0.47,1.13,-0.25,0.12,
4.745,0.88,-2.56,-0.47,1.11,-0.25,0.12,
4.746,0.88,-2.56,-0.47,1.10,-0.24,0.12,
4.748,0.88,-2.56,-0.47,1.08,-0.23,0.11,
4.75,0.88,-2.56,-0.47,1.07,-0.23,0.11,
4.751,0.88,-2.56,-0.47,1.05,-0.23,0.11,
4.754,0.86,-2.62,-1.11,1.05,-0.23,0.11,
4.755,0.86,-2.62,-1.11,1.03,-0.22,0.10,
4.755,0.86,-2.62,-1.11,1.01,-0.22,0.10,
4.758,0.86,-2.62,-1.11,0.99,-0.22,0.09,
4.759,0.86,-2.62,-1.11,0.98,-0.21,0.08,
4.787,0.86,-2.62,-1.11,0.96,-0.21,0.08,
4.788,0.87,-2.61,-1.73,0.96,-0.21,0.08,
4.788,0.87,-2.61,-1.73,0.94,-0.21,0.07,
4.788,0.87,-2.61,-1.73,0.92,-0.21,0.06,
4.789,0.87,-2.61,-1.73,0.89,-0.20,0.05,
4.789,0.87,-2.61,-1.73,0.88,-0.20,0.04,
4.79,0.87,-2.61,-1.73,0.86,-0.20,0.03,
4.79,0.93,-2.70,-2.24,0.86,-0.20,0.03,
4.791,0.93,-2.70,-2.24,0.84,-0.19,0.02,
4.791,0.93,-2.70,-2.24,0.82,-0.19,0.01,
4.791,0.93,-2.70,-2.24,0.79,-0.19,-0.00,
4.792,0.93,-2.70,-2.24,0.78,-0.19,-0.01,
4.792,0.93,-2.70,-2.24,0.76,-0.18,-0.02,
4.793,0.82,-2.61,-2.72,0.76,-0.18,-0.02,
4.793,0.82,-2.61,-2.72,0.74,-0.18,-0.03,
4.793,0.82,-2.61,-2.72,0.71,-0.18,-0.04,
4.794,0.82,-2.61,-2.72,0.68,-0.17,-0.05,
4.794,0.82,-2.61,-2.72,0.67,-0.17,-0.05,
4.795,0.82,-2.61,-2.72,0.65,-0.17,-0.06,
4.795,0.76,-2.67,-3.14,0.65,-0.17,-0.06,
4.796,0.76,-2.67,-3.14,0.63,-0.16,-0.07,
4.796,0.76,-2.67,-3.14,0.60,-0.15,-0.08,
4.806,0.76,-2.67,-3.14,0.57,-0.14,-0.10,
4.807,0.76,-2.67,-3.14,0.56,-0.13,-0.11,
4.807,0.76,-2.67,-3.14,0.54,-0.12,-0.12,
4.807,0.77,-2.64,-3.50,0.54,-0.12,-0.12,
4.807,0.77,-2.64,-3.50,0.52,-0.11,-0.13,
4.808,0.77,-2.64,-3.50,0.50,-0.10,-0.15,
4.808,0.77,-2.64,-3.50,0.47,-0.08,-0.17,
4.812,0.77,-2.64,-3.50,0.47,-0.08,-0.18,
4.812,0.77,-2.64,-3.50,0.45,-0.07,-0.19,
4.82,0.78,-2.70,-3.70,0.45,-0.07,-0.19,
4.82,0.78,-2.70,-3.70,0.44,-0.06,-0.21,
4.821,0.78,-2.70,-3.70,0.42,-0.05,-0.22,
4.821,0.78,-2.70,-3.70,0.40,-0.04,-0.23,
4.821,0.78,-2.70,-3.70,0.39,-0.04,-0.24,
4.824,0.78,-2.70,-3.70,0.37,-0.03,-0.25,
4.825,0.50,-2.59,-3.97,0.37,-0.03,-0.25,
4.825,0.50,-2.59,-3.97,0.36,-0.03,-0.25,
4.825,0.50,-2.59,-3.97,0.34,-0.03,-0.26,
4.829,0.50,-2.59,-3.97,0.32,-0.04,-0.28,
4.829,0.50,-2.59,-3.97,0.31,-0.04,-0.28,
4.839,0.50,-2.59,-3.97,0.30,-0.04,-0.29,
4.84,0.40,-2.60,-4.22,0.30,-0.04,-0.29,
4.84,0.40,-2.60,-4.22,0.28,-0.05,-0.30,
4.841,0.40,-2.60,-4.22,0.27,-0.06,-0.31,
4.841,0.40,-2.60,-4.22,0.25,-0.07,-0.32,
4.841,0.40,-2.60,-4.22,0.24,-0.07,-0.33,
4.865,0.40,-2.60,-4.22,0.23,-0.07,-0.34,
4.866,0.25,-2.58,-4.25,0.23,-0.07,-0.34,
4.866,0.25,-2.58,-4.25,0.22,-0.07,-0.34,
4.867,0.25,-2.58,-4.25,0.21,-0.07,-0.35,
4.867,0.25,-2.58,-4.25,0.20,-0.05,-0.36,
4.867,0.25,-2.58,-4.25,0.20,-0.05,-0.36,
4.867,0.25,-2.58,-4.25,0.19,-0.04,-0.37,
4.868,0.07,-2.57,-4.17,0.19,-0.04,-0.37,
4.868,0.07,-2.57,-4.17,0.19,-0.03,-0.37,
4.868,0.07,-2.57,-4.17,0.19,-0.01,-0.37,
4.868,0.07,-2.57,-4.17,0.18,0.00,-0.37,
4.869,0.07,-2.57,-4.17,0.18,0.01,-0.36,
4.869,0.07,-2.57,-4.17,0.17,0.02,-0.36,
4.869,-0.14,-2.45,-4.23,0.17,0.02,-0.36,
4.869,-0.14,-2.45,-4.23,0.17,0.03,-0.36,
4.87,-0.14,-2.45,-4.23,0.16,0.05,-0.35,
4.87,-0.14,-2.45,-4.23,0.15,0.06,-0.35,
4.875,-0.14,-2.45,-4.23,0.14,0.07,-0.35,
4.875,-0.14,-2.45,-4.23,0.13,0.09,-0.34,
4.875,-0.25,-2.34,-4.47,0.13,0.09,-0.34,
4.875,-0.25,-2.34,-4.47,0.12,0.10,-0.34,
4.876,-0.25,-2.34,-4.47,0.10,0.11,-0.33,
4.881,-0.25,-2.34,-4.47,0.08,0.13,-0.33,
4.882,-0.25,-2.34,-4.47,0.07,0.14,-0.32,
4.885,-0.25,-2.34,-4.47,0.05,0.15,-0.32,
4.885,-0.40,-2.13,-4.84,0.05,0.15,-0.32,
4.886,-0.40,-2.13,-4.84,0.03,0.15,-0.31,
4.886,-0.40,-2.13,-4.84,0.01,0.15,-0.31,
4.89,-0.40,-2.13,-4.84,-0.03,0.16,-0.30,
4.891,-0.40,-2.13,-4.84,-0.04,0.16,-0.30,
4.891,-0.40,-2.13,-4.84,-0.06,0.16,-0.29,
4.895,-0.40,-1.99,-4.96,-0.06,0.16,-0.29,
4.895,-0.40,-1.99,-4.96,-0.08,0.16,-0.29,
4.896,-0.40,-1.99,-4.96,-0.10,0.17,-0.29,
4.9,-0.40,-1.99,-4.96,-0.12,0.16,-0.28,
4.9,-0.40,-1.99,-4.96,-0.13,0.16,-0.28,
4.901,-0.40,-1.99,-4.96,-0.15,0.16,-0.27,
4.905,-0.34,-1.72,-4.86,-0.15,0.16,-0.27,
4.906,-0.34,-1.72,-4.86,-0.16,0.15,-0.27,
4.906,-0.34,-1.72,-4.86,-0.17,0.15,-0.27,
4.91,-0.34,-1.72,-4.86,-0.19,0.13,-0.28,
4.91,-0.34,-1.72,-4.86,-0.19,0.13,-0.28,
4.915,-0.34,-1.72,-4.86,-0.21,0.12,-0.28,
4.916,-0.08,-1.49,-4.64,-0.21,0.12,-0.28,
4.916,-0.08,-1.49,-4.64,-0.22,0.11,-0.28,
4.916,-0.08,-1.49,-4.64,-0.22,0.10,-0.29,
4.918,-0.08,-1.49,-4.64,-0.24,0.08,-0.29,
4.919,-0.08,-1.49,-4.64,-0.24,0.08,-0.30,
4.921,-0.08,-1.49,-4.64,-0.25,0.07,-0.30,
4.923,0.09,-1.22,-4.38,-0.25,0.07,-0.30,
4.924,0.09,-1.22,-4.38,-0.26,0.06,-0.31,
4.925,0.09,-1.22,-4.38,-0.26,0.05,-0.32,
4.945,0.09,-1.22,-4.38,-0.27,0.03,-0.32,
4.945,0.09,-1.22,-4.38,-0.28,0.03,-0.33,
4.945,0.09,-1.22,-4.38,-0.29,0.01,-0.33,
4.946,0.12,-0.97,-4.17,-0.29,0.01,-0.33,
4.946,0.12,-0.97,-4.17,-0.30,0.00,-0.34,
4.946,0.12,-0.97,-4.17,-0.30,-0.01,-0.34,
4.947,0.12,-0.97,-4.17,-0.31,-0.02,-0.34,
4.947,0.12,-0.97,-4.17,-0.31,-0.03,-0.35,
4.947,0.12,-0.97,-4.17,-0.32,-0.04,-0.35,
4.947,-0.05,-0.82,-3.95,-0.32,-0.04,-0.35,
4.948,-0.05,-0.82,-3.95,-0.33,-0.05,-0.34,
4.948,-0.05,-0.82,-3.95,-0.33,-0.06,-0.34,
4.948,-0.05,-0.82,-3.95,-0.34,-0.08,-0.33,
4.955,-0.05,-0.82,-3.95,-0.35,-0.08,-0.33,
4.956,-0.05,-0.82,-3.95,-0.35,-0.09,-0.32,
4.956,-0.26,-0.63,-3.77,-0.35,-0.09,-0.32,
4.956,-0.26,-0.63,-3.77,-0.36,-0.10,-0.32,
4.956,-0.26,-0.63,-3.77,-0.37,-0.11,-0.31,
4.96,-0.26,-0.63,-3.77,-0.38,-0.12,-0.31,
4.961,-0.26,-0.63,-3.77,-0.39,-0.12,-0.30,
4.965,-0.26,-0.63,-3.77,-0.40,-0.13,-0.30,
4.968,-0.33,-0.46,-3.56,-0.40,-0.13,-0.30,
4.969,-0.33,-0.46,-3.56,-0.40,-0.15,-0.29,
4.969,-0.33,-0.46,-3.56,-0.41,-0.16,-0.29,
4.973,-0.33,-0.46,-3.56,-0.42,-0.18,-0.28,
4.974,-0.33,-0.46,-3.56,-0.42,-0.18,-0.27,
4.974,-0.33,-0.46,-3.56,-0.43,-0.20,-0.26,
4.974,-0.40,-0.25,-3.14,-0.43,-0.20,-0.26,
4.975,-0.40,-0.25,-3.14,-0.43,-0.21,-0.26,
4.982,-0.40,-0.25,-3.14,-0.43,-0.22,-0.25,
4.982,-0.40,-0.25,-3.14,-0.43,-0.23,-0.25,
4.983,-0.40,-0.25,-3.14,-0.43,-0.24,-0.24,
4.983,-0.40,-0.25,-3.14,-0.43,-0.24,-0.24,
4.984,-0.25,0.04,-2.45,-0.43,-0.24,-0.24,
4.984,-0.25,0.04,-2.45,-0.42,-0.25,-0.24,
4.985,-0.25,0.04,-2.45,-0.42,-0.25,-0.24,
5.015,-0.25,0.04,-2.45,-0.40,-0.25,-0.24,
5.015,-0.25,0.04,-2.45,-0.40,-0.25,-0.24,
5.016,-0.25,0.04,-2.45,-0.38,-0.25,-0.23,
5.016,-0.08,0.31,-1.74,-0.38,-0.25,-0.23,
5.016,-0.08,0.31,-1.74,-0.37,-0.24,-0.23,
5.016,-0.08,0.31,-1.74,-0.36,-0.24,-0.23,
5.016,-0.08,0.31,-1.74,-0.34,-0.23,-0.23,
5.016,-0.08,0.31,-1.74,-0.34,-0.22,-0.23,
5.016,-0.08,0.31,-1.74,-0.34,-0.22,-0.23,
5.017,-0.01,0.58,-1.43,-0.34,-0.22,-0.23,
5.017,-0.01,0.58,-1.43,-0.33,-0.21,-0.23,
5.017,-0.01,0.58,-1.43,-0.34,-0.21,-0.23,
5.017,-0.01,0.58,-1.43,-0.34,-0.20,-0.22,
5.017,-0.01,0.58,-1.43,-0.35,-0.20,-0.22,
5.017,-0.01,0.58,-1.43,-0.36,-0.21,-0.22,
5.017,-0.08,0.90,-1.58,-0.36,-0.21,-0.22,
5.018,-0.08,0.90,-1.58,-0.37,-0.21,-0.22,
5.018,-0.08,0.90,-1.58,-0.39,-0.21,-0.21,
5.018,-0.08,0.90,-1.58,-0.42,-0.22,-0.21,
5.02,-0.08,0.90,-1.58,-0.43,-0.22,-0.21,
5.021,-0.08,0.90,-1.58,-0.45,-0.23,-0.20,
