
time,ax,ay,az,wx,wy,wz,
0.004,-0.31,0.19,-0.63,-0.12,-0.11,0.43,
0.004,-0.31,0.19,-0.63,-0.14,-0.11,0.43,
0.004,-0.31,0.19,-0.63,-0.15,-0.11,0.43,
0.004,-0.31,0.19,-0.63,-0.17,-0.11,0.43,
0.005,-0.31,0.19,-0.63,-0.17,-0.11,0.43,
0.005,-0.31,0.19,-0.63,-0.18,-0.10,0.43,
0.009,-0.48,0.09,-0.31,-0.18,-0.10,0.43,
0.01,-0.48,0.09,-0.31,-0.20,-0.09,0.44,
0.01,-0.48,0.09,-0.31,-0.21,-0.09,0.44,
0.012,-0.48,0.09,-0.31,-0.23,-0.08,0.45,
0.013,-0.48,0.09,-0.31,-0.24,-0.07,0.45,
0.014,-0.48,0.09,-0.31,-0.25,-0.07,0.45,
0.017,-0.72,0.01,0.17,-0.25,-0.07,0.45,
0.017,-0.72,0.01,0.17,-0.26,-0.06,0.46,
0.019,-0.72,0.01,0.17,-0.28,-0.06,0.46,
0.022,-0.72,0.01,0.17,-0.30,-0.04,0.47,
0.024,-0.72,0.01,0.17,-0.31,-0.04,0.47,
0.025,-0.72,0.01,0.17,-0.32,-0.03,0.47,
0.027,-0.81,0.15,0.76,-0.32,-0.03,0.47,
0.027,-0.81,0.15,0.76,-0.33,-0.01,0.48,
0.029,-0.81,0.15,0.76,-0.35,0.00,0.48,
0.032,-0.81,0.15,0.76,-0.36,0.03,0.49,
0.033,-0.81,0.15,0.76,-0.37,0.04,0.49,
0.035,-0.81,0.15,0.76,-0.38,0.06,0.48,
0.04,-0.82,0.37,1.31,-0.38,0.06,0.48,
0.041,-0.82,0.37,1.31,-0.40,0.07,0.48,
0.042,-0.82,0.37,1.31,-0.41,0.08,0.48,
0.043,-0.82,0.37,1.31,-0.43,0.10,0.47,
0.044,-0.82,0.37,1.31,-0.44,0.11,0.46,
0.045,-0.82,0.37,1.31,-0.44,0.11,0.46,
0.047,-0.73,0.56,1.71,-0.44,0.11,0.46,
0.048,-0.73,0.56,1.71,-0.45,0.12,0.45,
0.049,-0.73,0.56,1.71,-0.46,0.13,0.44,
0.052,-0.73,0.56,1.71,-0.48,0.14,0.42,
0.054,-0.73,0.56,1.71,-0.49,0.15,0.41,
0.063,-0.73,0.56,1.71,-0.49,0.16,0.41,
0.064,-0.71,0.64,1.95,-0.49,0.16,0.41,
0.064,-0.71,0.64,1.95,-0.50,0.17,0.40,
0.065,-0.71,0.64,1.95,-0.51,0.18,0.39,
0.065,-0.71,0.64,1.95,-0.53,0.20,0.37,
0.065,-0.71,0.64,1.95,-0.54,0.22,0.36,
0.065,-0.71,0.64,1.95,-0.54,0.23,0.36,
0.068,-0.75,0.62,2.06,-0.54,0.23,0.36,
0.069,-0.75,0.62,2.06,-0.55,0.25,0.35,
0.069,-0.75,0.62,2.06,-0.55,0.27,0.35,
0.094,-0.75,0.62,2.06,-0.56,0.31,0.34,
0.094,-0.75,0.62,2.06,-0.57,0.34,0.33,
0.095,-0.75,0.62,2.06,-0.57,0.35,0.33,
0.095,-0.70,0.50,2.11,-0.57,0.35,0.33,
0.095,-0.70,0.50,2.11,-0.57,0.37,0.32,
0.095,-0.70,0.50,2.11,-0.57,0.40,0.31,
0.095,-0.70,0.50,2.11,-0.57,0.43,0.29,
0.096,-0.70,0.50,2.11,-0.57,0.44,0.28,
0.096,-0.70,0.50,2.11,-0.57,0.45,0.28,
0.096,-0.70,0.34,1.94,-0.57,0.45,0.28,
0.096,-0.70,0.34,1.94,-0.57,0.46,0.27,
0.096,-0.70,0.34,1.94,-0.57,0.46,0.26,
0.096,-0.70,0.34,1.94,-0.56,0.47,0.25,
0.097,-0.70,0.34,1.94,-0.56,0.48,0.24,
0.097,-0.70,0.34,1.94,-0.56,0.48,0.24,
0.097,-0.88,0.17,1.67,-0.56,0.48,0.24,
0.097,-0.88,0.17,1.67,-0.56,0.49,0.23,
0.1,-0.88,0.17,1.67,-0.55,0.50,0.23,
0.101,-0.88,0.17,1.67,-0.56,0.50,0.22,
0.102,-0.88,0.17,1.67,-0.55,0.50,0.22,
0.116,-0.88,0.17,1.67,-0.55,0.50,0.22,
0.117,-1.12,0.05,1.32,-0.55,0.50,0.22,
0.117,-1.12,0.05,1.32,-0.56,0.49,0.22,
0.117,-1.12,0.05,1.32,-0.56,0.47,0.22,
0.117,-1.12,0.05,1.32,-0.57,0.45,0.22,
0.117,-1.12,0.05,1.32,-0.58,0.44,0.23,
0.118,-1.12,0.05,1.32,-0.59,0.43,0.23,
0.118,-1.60,-0.07,0.92,-0.59,0.43,0.23,
0.118,-1.60,-0.07,0.92,-0.60,0.41,0.24,
0.118,-1.60,-0.07,0.92,-0.62,0.40,0.25,
0.133,-1.60,-0.07,0.92,-0.64,0.38,0.27,
0.134,-1.60,-0.07,0.92,-0.66,0.38,0.29,
0.134,-1.60,-0.07,0.92,-0.67,0.38,0.30,
0.134,-1.96,-0.12,0.72,-0.67,0.38,0.30,
0.134,-1.96,-0.12,0.72,-0.69,0.38,0.32,
0.135,-1.96,-0.12,0.72,-0.71,0.38,0.34,
0.135,-1.96,-0.12,0.72,-0.75,0.39,0.37,
0.135,-1.96,-0.12,0.72,-0.78,0.40,0.40,
0.135,-1.96,-0.12,0.72,-0.80,0.40,0.42,
0.152,-2.33,-0.29,0.66,-0.80,0.40,0.42,
0.153,-2.33,-0.29,0.66,-0.81,0.41,0.43,
0.154,-2.33,-0.29,0.66,-0.83,0.42,0.46,
0.154,-2.33,-0.29,0.66,-0.86,0.43,0.50,
0.156,-2.33,-0.29,0.66,-0.87,0.45,0.53,
0.157,-2.33,-0.29,0.66,-0.88,0.45,0.54,
0.158,-2.45,-0.50,0.77,-0.88,0.45,0.54,
0.158,-2.45,-0.50,0.77,-0.89,0.47,0.57,
0.158,-2.45,-0.50,0.77,-0.90,0.49,0.60,
0.159,-2.45,-0.50,0.77,-0.91,0.53,0.65,
0.159,-2.45,-0.50,0.77,-0.90,0.56,0.68,
0.161,-2.45,-0.50,0.77,-0.90,0.58,0.69,
0.161,-2.64,-0.79,0.89,-0.90,0.58,0.69,
0.161,-2.64,-0.79,0.89,-0.90,0.61,0.72,
0.17,-2.64,-0.79,0.89,-0.89,0.65,0.75,
0.17,-2.64,-0.79,0.89,-0.86,0.71,0.78,
0.171,-2.64,-0.79,0.89,-0.84,0.75,0.81,
0.171,-2.64,-0.79,0.89,-0.83,0.78,0.82,
0.171,-2.34,-1.02,1.15,-0.83,0.78,0.82,
0.171,-2.34,-1.02,1.15,-0.80,0.82,0.84,
0.172,-2.34,-1.02,1.15,-0.77,0.86,0.86,
0.172,-2.34,-1.02,1.15,-0.72,0.93,0.88,
0.175,-2.34,-1.02,1.15,-0.68,0.96,0.89,
0.175,-2.34,-1.02,1.15,-0.66,0.97,0.90,
0.186,-2.07,-1.22,1.33,-0.66,0.97,0.90,
0.187,-2.07,-1.22,1.33,-0.61,0.99,0.91,
0.187,-2.07,-1.22,1.33,-0.57,1.00,0.91,
0.187,-2.07,-1.22,1.33,-0.51,1.01,0.92,
0.187,-2.07,-1.22,1.33,-0.46,1.01,0.92,
0.188,-2.07,-1.22,1.33,-0.44,1.00,0.92,
0.188,-1.89,-1.30,1.16,-0.44,1.00,0.92,
0.188,-1.89,-1.30,1.16,-0.40,0.98,0.93,
0.19,-1.89,-1.30,1.16,-0.36,0.97,0.93,
0.207,-1.89,-1.30,1.16,-0.30,0.93,0.94,
0.208,-1.89,-1.30,1.16,-0.27,0.91,0.94,
0.208,-1.89,-1.30,1.16,-0.25,0.89,0.95,
0.208,-2.02,-1.23,0.66,-0.25,0.89,0.95,
0.209,-2.02,-1.23,0.66,-0.22,0.86,0.95,
0.209,-2.02,-1.23,0.66,-0.20,0.83,0.96,
0.209,-2.02,-1.23,0.66,-0.18,0.78,0.97,
0.236,-2.02,-1.23,0.66,-0.17,0.75,0.99,
0.236,-2.02,-1.23,0.66,-0.17,0.73,0.99,
0.237,-2.27,-0.94,-0.10,-0.17,0.73,0.99,
0.237,-2.27,-0.94,-0.10,-0.16,0.69,1.00,
0.237,-2.27,-0.94,-0.10,-0.17,0.66,1.02,
0.237,-2.27,-0.94,-0.10,-0.18,0.61,1.04,
0.238,-2.27,-0.94,-0.10,-0.19,0.58,1.06,
0.238,-2.27,-0.94,-0.10,-0.20,0.56,1.07,
0.238,-2.65,-0.78,-0.65,-0.20,0.56,1.07,
0.238,-2.65,-0.78,-0.65,-0.22,0.53,1.09,
0.239,-2.65,-0.78,-0.65,-0.24,0.50,1.11,
0.239,-2.65,-0.78,-0.65,-0.28,0.46,1.15,
0.239,-2.65,-0.78,-0.65,-0.30,0.44,1.17,
0.239,-2.65,-0.78,-0.65,-0.32,0.43,1.19,
0.24,-2.82,-0.58,-0.85,-0.32,0.43,1.19,
0.24,-2.82,-0.58,-0.85,-0.35,0.40,1.21,
0.24,-2.82,-0.58,-0.85,-0.37,0.39,1.24,
0.24,-2.82,-0.58,-0.85,-0.42,0.36,1.28,
0.24,-2.82,-0.58,-0.85,-0.45,0.34,1.31,
0.241,-2.82,-0.58,-0.85,-0.47,0.34,1.32,
0.241,-2.96,-0.48,-0.85,-0.47,0.34,1.32,
0.241,-2.96,-0.48,-0.85,-0.50,0.33,1.35,
0.241,-2.96,-0.48,-0.85,-0.53,0.32,1.38,
0.242,-2.96,-0.48,-0.85,-0.58,0.32,1.43,
0.252,-2.96,-0.48,-0.85,-0.59,0.32,1.45,
0.252,-2.96,-0.48,-0.85,-0.62,0.32,1.47,
0.252,-2.72,-0.52,-0.46,-0.62,0.32,1.47,
0.253,-2.72,-0.52,-0.46,-0.64,0.32,1.50,
0.253,-2.72,-0.52,-0.46,-0.67,0.33,1.52,
0.253,-2.72,-0.52,-0.46,-0.69,0.34,1.55,
0.253,-2.72,-0.52,-0.46,-0.71,0.35,1.57,
0.256,-2.72,-0.52,-0.46,-0.73,0.37,1.59,
0.258,-2.36,-0.61,-0.02,-0.73,0.37,1.59,
0.258,-2.36,-0.61,-0.02,-0.76,0.39,1.61,
0.26,-2.36,-0.61,-0.02,-0.77,0.40,1.63,
0.261,-2.36,-0.61,-0.02,-0.79,0.42,1.65,
0.263,-2.36,-0.61,-0.02,-0.81,0.45,1.66,
0.265,-2.36,-0.61,-0.02,-0.83,0.46,1.67,
0.267,-1.94,-0.60,0.29,-0.83,0.46,1.67,
0.267,-1.94,-0.60,0.29,-0.83,0.48,1.69,
0.269,-1.94,-0.60,0.29,-0.84,0.50,1.70,
0.272,-1.94,-0.60,0.29,-0.86,0.51,1.70,
0.273,-1.94,-0.60,0.29,-0.86,0.52,1.71,
0.274,-1.94,-0.60,0.29,-0.87,0.53,1.71,
0.277,-1.62,-0.52,0.44,-0.87,0.53,1.71,
0.277,-1.62,-0.52,0.44,-0.89,0.54,1.71,
0.281,-1.62,-0.52,0.44,-0.89,0.55,1.71,
0.281,-1.62,-0.52,0.44,-0.90,0.55,1.71,
0.282,-1.62,-0.52,0.44,-0.90,0.56,1.71,
0.284,-1.62,-0.52,0.44,-0.91,0.56,1.72,
0.291,-1.31,-0.46,0.42,-0.91,0.56,1.72,
0.291,-1.31,-0.46,0.42,-0.92,0.57,1.71,
0.291,-1.31,-0.46,0.42,-0.93,0.57,1.71,
0.292,-1.31,-0.46,0.42,-0.93,0.58,1.71,
0.293,-1.31,-0.46,0.42,-0.93,0.58,1.71,
0.295,-1.31,-0.46,0.42,-0.95,0.58,1.71,
0.297,-1.23,-0.57,0.22,-0.95,0.58,1.71,
0.297,-1.23,-0.57,0.22,-0.95,0.58,1.71,
0.299,-1.23,-0.57,0.22,-0.96,0.59,1.71,
0.302,-1.23,-0.57,0.22,-0.97,0.60,1.72,
0.306,-1.23,-0.57,0.22,-0.97,0.60,1.72,
0.307,-1.23,-0.57,0.22,-0.98,0.60,1.72,
0.307,-1.16,-0.66,-0.03,-0.98,0.60,1.72,
0.307,-1.16,-0.66,-0.03,-0.99,0.60,1.73,
0.31,-1.16,-0.66,-0.03,-1.00,0.61,1.73,
0.312,-1.16,-0.66,-0.03,-1.00,0.62,1.73,
0.313,-1.16,-0.66,-0.03,-1.00,0.64,1.73,
0.315,-1.16,-0.66,-0.03,-1.00,0.66,1.73,
0.317,-0.61,-0.54,0.32,-1.00,0.66,1.73,
0.317,-0.61,-0.54,0.32,-1.00,0.68,1.73,
0.319,-0.61,-0.54,0.32,-0.99,0.70,1.72,
0.331,-0.61,-0.54,0.32,-0.97,0.72,1.72,
0.331,-0.61,-0.54,0.32,-0.96,0.75,1.72,
0.332,-0.61,-0.54,0.32,-0.94,0.76,1.71,
0.332,-0.44,-0.63,0.68,-0.94,0.76,1.71,
0.332,-0.44,-0.63,0.68,-0.92,0.78,1.71,
0.332,-0.44,-0.63,0.68,-0.90,0.80,1.70,
0.332,-0.44,-0.63,0.68,-0.87,0.82,1.69,
0.333,-0.44,-0.63,0.68,-0.84,0.84,1.68,
0.335,-0.44,-0.63,0.68,-0.82,0.87,1.66,
0.337,-0.12,-0.72,0.99,-0.82,0.87,1.66,
0.337,-0.12,-0.72,0.99,-0.79,0.89,1.65,
0.34,-0.12,-0.72,0.99,-0.77,0.90,1.64,
0.343,-0.12,-0.72,0.99,-0.74,0.92,1.63,
0.343,-0.12,-0.72,0.99,-0.71,0.93,1.61,
0.345,-0.12,-0.72,0.99,-0.67,0.93,1.60,
0.349,-0.07,-0.75,1.19,-0.67,0.93,1.60,
0.349,-0.07,-0.75,1.19,-0.64,0.94,1.58,
0.349,-0.07,-0.75,1.19,-0.61,0.94,1.57,
0.352,-0.07,-0.75,1.19,-0.58,0.94,1.56,
0.365,-0.07,-0.75,1.19,-0.54,0.95,1.54,
0.366,-0.07,-0.75,1.19,-0.50,0.94,1.53,
0.366,-0.31,-0.79,1.29,-0.50,0.94,1.53,
0.366,-0.31,-0.79,1.29,-0.47,0.93,1.52,
0.366,-0.31,-0.79,1.29,-0.42,0.92,1.51,
0.366,-0.31,-0.79,1.29,-0.37,0.90,1.49,
0.366,-0.31,-0.79,1.29,-0.35,0.89,1.49,
0.367,-0.31,-0.79,1.29,-0.31,0.87,1.48,
0.367,-0.60,-0.74,1.28,-0.31,0.87,1.48,
0.367,-0.60,-0.74,1.28,-0.27,0.84,1.47,
0.385,-0.60,-0.74,1.28,-0.23,0.82,1.47,
0.385,-0.60,-0.74,1.28,-0.19,0.79,1.46,
0.385,-0.60,-0.74,1.28,-0.16,0.76,1.46,
0.386,-0.60,-0.74,1.28,-0.13,0.72,1.46,
0.386,-0.90,-0.78,1.01,-0.13,0.72,1.46,
0.386,-0.90,-0.78,1.01,-0.10,0.69,1.45,
0.386,-0.90,-0.78,1.01,-0.07,0.65,1.46,
0.386,-0.90,-0.78,1.01,-0.04,0.60,1.46,
0.386,-0.90,-0.78,1.01,-0.02,0.56,1.46,
0.387,-0.90,-0.78,1.01,0.00,0.52,1.46,
0.396,-1.11,-0.91,0.39,0.00,0.52,1.46,
0.397,-1.11,-0.91,0.39,0.02,0.47,1.47,
0.397,-1.11,-0.91,0.39,0.03,0.42,1.48,
0.397,-1.11,-0.91,0.39,0.05,0.35,1.50,
0.397,-1.11,-0.91,0.39,0.05,0.33,1.51,
0.397,-1.11,-0.91,0.39,0.05,0.29,1.52,
0.398,-1.43,-1.20,-0.43,0.05,0.29,1.52,
0.398,-1.43,-1.20,-0.43,0.05,0.26,1.54,
0.398,-1.43,-1.20,-0.43,0.05,0.22,1.57,
0.401,-1.43,-1.20,-0.43,0.04,0.19,1.59,
0.403,-1.43,-1.20,-0.43,0.02,0.16,1.62,
0.405,-1.43,-1.20,-0.43,0.00,0.13,1.65,
0.407,-1.72,-1.04,-1.22,0.00,0.13,1.65,
0.407,-1.72,-1.04,-1.22,-0.01,0.11,1.68,
0.409,-1.72,-1.04,-1.22,-0.03,0.09,1.71,
0.413,-1.72,-1.04,-1.22,-0.09,0.08,1.77,
0.414,-1.72,-1.04,-1.22,-0.09,0.08,1.77,
0.414,-1.72,-1.04,-1.22,-0.11,0.07,1.80,
0.416,-1.70,-0.77,-1.69,-0.11,0.07,1.80,
0.417,-1.70,-0.77,-1.69,-0.15,0.06,1.84,
0.419,-1.70,-0.77,-1.69,-0.17,0.05,1.87,
0.422,-1.70,-0.77,-1.69,-0.22,0.03,1.92,
0.423,-1.70,-0.77,-1.69,-0.24,0.02,1.93,
0.425,-1.70,-0.77,-1.69,-0.27,-0.01,1.96,
0.427,-1.25,-0.84,-1.82,-0.27,-0.01,1.96,
0.427,-1.25,-0.84,-1.82,-0.31,-0.04,1.99,
0.428,-1.25,-0.84,-1.82,-0.35,-0.07,2.01,
0.431,-1.25,-0.84,-1.82,-0.38,-0.09,2.03,
0.432,-1.25,-0.84,-1.82,-0.42,-0.13,2.05,
0.434,-1.25,-0.84,-1.82,-0.46,-0.16,2.06,
0.438,-0.55,-1.10,-1.73,-0.46,-0.16,2.06,
0.438,-0.55,-1.10,-1.73,-0.50,-0.19,2.07,
0.439,-0.55,-1.10,-1.73,-0.54,-0.22,2.08,
0.442,-0.55,-1.10,-1.73,-0.59,-0.24,2.08,
0.443,-0.55,-1.10,-1.73,-0.61,-0.25,2.08,
0.445,-0.55,-1.10,-1.73,-0.65,-0.26,2.08,
0.447,0.25,-1.11,-1.45,-0.65,-0.26,2.08,
0.447,0.25,-1.11,-1.45,-0.68,-0.26,2.07,
0.449,0.25,-1.11,-1.45,-0.72,-0.26,2.06,
0.451,0.25,-1.11,-1.45,-0.75,-0.26,2.04,
0.456,0.25,-1.11,-1.45,-0.77,-0.26,2.03,
0.456,0.25,-1.11,-1.45,-0.81,-0.26,2.01,
0.456,0.79,-1.09,-1.13,-0.81,-0.26,2.01,
0.459,0.79,-1.09,-1.13,-0.84,-0.26,2.00,
0.459,0.79,-1.09,-1.13,-0.87,-0.26,1.98,
0.467,0.79,-1.09,-1.13,-0.91,-0.26,1.96,
0.468,0.79,-1.09,-1.13,-0.92,-0.26,1.95,
0.468,0.79,-1.09,-1.13,-0.95,-0.25,1.94,
0.489,0.95,-1.14,-0.92,-0.95,-0.25,1.94,
0.49,0.95,-1.14,-0.92,-0.98,-0.24,1.92,
0.49,0.95,-1.14,-0.92,-1.01,-0.23,1.91,
0.49,0.95,-1.14,-0.92,-1.05,-0.20,1.89,
0.491,0.95,-1.14,-0.92,-1.07,-0.19,1.88,
0.491,0.95,-1.14,-0.92,-1.10,-0.17,1.86,
0.491,1.10,-1.19,-0.77,-1.10,-0.17,1.86,
0.491,1.10,-1.19,-0.77,-1.12,-0.15,1.85,
0.492,1.10,-1.19,-0.77,-1.15,-0.12,1.84,
0.492,1.10,-1.19,-0.77,-1.18,-0.08,1.81,
0.492,1.10,-1.19,-0.77,-1.20,-0.05,1.80,
0.493,1.10,-1.19,-0.77,-1.20,-0.03,1.79,
0.493,1.16,-1.13,-0.55,-1.20,-0.03,1.79,
0.493,1.16,-1.13,-0.55,-1.21,-0.00,1.78,
0.494,1.16,-1.13,-0.55,-1.23,0.02,1.76,
0.494,1.16,-1.13,-0.55,-1.24,0.06,1.74,
0.494,1.16,-1.13,-0.55,-1.24,0.06,1.73,
0.494,1.16,-1.13,-0.55,-1.24,0.08,1.71,
0.5,1.35,-1.11,-0.17,-1.24,0.08,1.71,
0.501,1.35,-1.11,-0.17,-1.25,0.09,1.69,
0.501,1.35,-1.11,-0.17,-1.24,0.10,1.66,
0.502,1.35,-1.11,-0.17,-1.22,0.13,1.61,
0.503,1.35,-1.11,-0.17,-1.21,0.14,1.59,
0.518,1.35,-1.11,-0.17,-1.18,0.16,1.55,
0.519,1.91,-1.00,0.69,-1.18,0.16,1.55,
0.52,1.91,-1.00,0.69,-1.15,0.19,1.51,
0.52,1.91,-1.00,0.69,-1.11,0.22,1.46,
0.521,1.91,-1.00,0.69,-1.03,0.29,1.40,
0.522,1.91,-1.00,0.69,-1.00,0.32,1.37,
0.523,1.91,-1.00,0.69,-0.93,0.38,1.33,
0.523,2.39,-1.09,2.08,-0.93,0.38,1.33,
0.523,2.39,-1.09,2.08,-0.86,0.43,1.28,
0.525,2.39,-1.09,2.08,-0.79,0.47,1.24,
0.525,2.39,-1.09,2.08,-0.67,0.52,1.16,
0.526,2.39,-1.09,2.08,-0.63,0.53,1.14,
0.526,2.39,-1.09,2.08,-0.55,0.56,1.09,
0.534,2.38,-1.04,3.08,-0.55,0.56,1.09,
0.535,2.38,-1.04,3.08,-0.46,0.57,1.03,
0.535,2.38,-1.04,3.08,-0.37,0.58,0.98,
0.536,2.38,-1.04,3.08,-0.22,0.60,0.90,
0.536,2.38,-1.04,3.08,-0.17,0.60,0.88,
0.536,2.38,-1.04,3.08,-0.07,0.60,0.82,
0.562,2.09,-0.88,3.72,-0.07,0.60,0.82,
0.562,2.09,-0.88,3.72,0.03,0.59,0.78,
0.562,2.09,-0.88,3.72,0.13,0.59,0.73,
0.563,2.09,-0.88,3.72,0.27,0.57,0.67,
0.563,2.09,-0.88,3.72,0.31,0.56,0.64,
0.563,2.09,-0.88,3.72,0.40,0.53,0.61,
0.563,1.48,-0.82,3.54,0.40,0.53,0.61,
0.564,1.48,-0.82,3.54,0.49,0.51,0.57,
0.564,1.48,-0.82,3.54,0.56,0.47,0.54,
0.564,1.48,-0.82,3.54,0.66,0.42,0.49,
0.565,1.48,-0.82,3.54,0.69,0.40,0.48,
0.565,1.48,-0.82,3.54,0.74,0.36,0.46,
0.565,0.93,-0.92,2.64,0.74,0.36,0.46,
0.566,0.93,-0.92,2.64,0.79,0.32,0.44,
0.566,0.93,-0.92,2.64,0.82,0.28,0.42,
0.566,0.93,-0.92,2.64,0.86,0.22,0.40,
0.566,0.93,-0.92,2.64,0.87,0.20,0.40,
0.567,0.93,-0.92,2.64,0.88,0.15,0.39,
0.567,0.39,-0.86,1.35,0.88,0.15,0.39,
0.567,0.39,-0.86,1.35,0.88,0.10,0.39,
0.573,0.39,-0.86,1.35,0.87,0.05,0.38,
0.573,0.39,-0.86,1.35,0.86,-0.04,0.39,
0.573,0.39,-0.86,1.35,0.84,-0.07,0.39,
0.576,0.39,-0.86,1.35,0.80,-0.13,0.40,
0.577,-0.04,-0.86,0.09,0.80,-0.13,0.40,
0.577,-0.04,-0.86,0.09,0.76,-0.20,0.40,
0.579,-0.04,-0.86,0.09,0.71,-0.26,0.41,
0.582,-0.04,-0.86,0.09,0.63,-0.37,0.42,
0.582,-0.04,-0.86,0.09,0.60,-0.40,0.43,
0.586,-0.04,-0.86,0.09,0.53,-0.48,0.44,
0.587,-0.24,-0.68,-0.82,0.53,-0.48,0.44,
0.587,-0.24,-0.68,-0.82,0.46,-0.54,0.46,
0.589,-0.24,-0.68,-0.82,0.38,-0.60,0.47,
0.592,-0.24,-0.68,-0.82,0.27,-0.67,0.50,
0.592,-0.24,-0.68,-0.82,0.22,-0.70,0.51,
0.594,-0.24,-0.68,-0.82,0.13,-0.75,0.53,
0.597,-0.65,-0.26,-1.18,0.13,-0.75,0.53,
0.597,-0.65,-0.26,-1.18,0.05,-0.79,0.56,
0.599,-0.65,-0.26,-1.18,-0.04,-0.83,0.59,
0.609,-0.65,-0.26,-1.18,-0.18,-0.88,0.64,
0.609,-0.65,-0.26,-1.18,-0.22,-0.89,0.66,
0.61,-0.65,-0.26,-1.18,-0.31,-0.89,0.69,
0.61,-0.77,-0.04,-0.97,-0.31,-0.89,0.69,
0.61,-0.77,-0.04,-0.97,-0.41,-0.89,0.72,
0.61,-0.77,-0.04,-0.97,-0.50,-0.89,0.75,
0.612,-0.77,-0.04,-0.97,-0.64,-0.88,0.79,
0.613,-0.77,-0.04,-0.97,-0.67,-0.86,0.80,
0.615,-0.77,-0.04,-0.97,-0.76,-0.83,0.82,
0.618,-0.11,-0.15,-0.14,-0.76,-0.83,0.82,
0.618,-0.11,-0.15,-0.14,-0.84,-0.80,0.84,
0.628,-0.11,-0.15,-0.14,-0.91,-0.75,0.85,
0.629,-0.11,-0.15,-0.14,-1.00,-0.66,0.87,
0.629,-0.11,-0.15,-0.14,-1.03,-0.63,0.87,
0.629,-0.11,-0.15,-0.14,-1.08,-0.56,0.87,
0.63,1.00,-0.38,1.21,-1.08,-0.56,0.87,
0.63,1.00,-0.38,1.21,-1.12,-0.49,0.87,
0.63,1.00,-0.38,1.21,-1.16,-0.42,0.86,
0.632,1.00,-0.38,1.21,-1.20,-0.31,0.84,
0.632,1.00,-0.38,1.21,-1.21,-0.27,0.83,
0.64,1.00,-0.38,1.21,-1.24,-0.20,0.81,
0.64,2.18,-0.62,2.54,-1.24,-0.20,0.81,
0.641,2.18,-0.62,2.54,-1.25,-0.14,0.78,
0.641,2.18,-0.62,2.54,-1.26,-0.07,0.75,
0.642,2.18,-0.62,2.54,-1.26,0.02,0.70,
0.643,2.18,-0.62,2.54,-1.26,0.04,0.69,
0.645,2.18,-0.62,2.54,-1.26,0.09,0.65,
0.647,3.11,-0.66,3.45,-1.26,0.09,0.65,
0.647,3.11,-0.66,3.45,-1.24,0.14,0.61,
0.649,3.11,-0.66,3.45,-1.22,0.18,0.56,
0.652,3.11,-0.66,3.45,-1.18,0.23,0.49,
0.653,3.11,-0.66,3.45,-1.17,0.24,0.46,
0.655,3.11,-0.66,3.45,-1.14,0.26,0.41,
0.657,3.82,-0.64,3.98,-1.14,0.26,0.41,
0.657,3.82,-0.64,3.98,-1.11,0.28,0.35,
0.658,3.82,-0.64,3.98,-1.08,0.29,0.29,
0.661,3.82,-0.64,3.98,-1.02,0.29,0.21,
0.662,3.82,-0.64,3.98,-1.00,0.28,0.18,
0.666,3.82,-0.64,3.98,-0.96,0.27,0.11,
0.671,3.86,-0.54,4.13,-0.96,0.27,0.11,
0.671,3.86,-0.54,4.13,-0.92,0.25,0.05,
0.672,3.86,-0.54,4.13,-0.87,0.23,-0.01,
0.673,3.86,-0.54,4.13,-0.80,0.20,-0.09,
0.674,3.86,-0.54,4.13,-0.78,0.19,-0.12,
0.675,3.86,-0.54,4.13,-0.73,0.18,-0.18,
0.683,3.56,-0.58,4.11,-0.73,0.18,-0.18,
0.683,3.56,-0.58,4.11,-0.67,0.16,-0.23,
0.683,3.56,-0.58,4.11,-0.63,0.16,-0.27,
0.685,3.56,-0.58,4.11,-0.56,0.15,-0.34,
0.686,3.56,-0.58,4.11,-0.53,0.16,-0.35,
0.686,3.56,-0.58,4.11,-0.49,0.16,-0.38,
0.687,2.77,-0.68,3.77,-0.49,0.16,-0.38,
0.687,2.77,-0.68,3.77,-0.44,0.18,-0.41,
0.689,2.77,-0.68,3.77,-0.40,0.19,-0.42,
0.692,2.77,-0.68,3.77,-0.34,0.22,-0.44,
0.693,2.77,-0.68,3.77,-0.32,0.23,-0.44,
0.695,2.77,-0.68,3.77,-0.29,0.25,-0.44,
0.698,2.00,-0.91,3.14,-0.29,0.25,-0.44,
0.698,2.00,-0.91,3.14,-0.25,0.28,-0.43,
0.699,2.00,-0.91,3.14,-0.23,0.31,-0.42,
0.704,2.00,-0.91,3.14,-0.19,0.35,-0.40,
0.722,2.00,-0.91,3.14,-0.18,0.37,-0.39,
0.722,2.00,-0.91,3.14,-0.16,0.40,-0.38,
0.723,1.37,-1.07,2.18,-0.16,0.40,-0.38,
0.723,1.37,-1.07,2.18,-0.15,0.43,-0.36,
0.723,1.37,-1.07,2.18,-0.14,0.47,-0.34,
0.723,1.37,-1.07,2.18,-0.12,0.51,-0.31,
0.723,1.37,-1.07,2.18,-0.12,0.52,-0.30,
0.724,1.37,-1.07,2.18,-0.11,0.55,-0.28,
0.724,1.00,-1.00,1.20,-0.11,0.55,-0.28,
0.724,1.00,-1.00,1.20,-0.11,0.57,-0.26,
0.724,1.00,-1.00,1.20,-0.11,0.58,-0.24,
0.724,1.00,-1.00,1.20,-0.11,0.59,-0.22,
0.724,1.00,-1.00,1.20,-0.12,0.59,-0.21,
0.725,1.00,-1.00,1.20,-0.13,0.59,-0.20,
0.732,1.03,-0.86,0.16,-0.13,0.59,-0.20,
0.733,1.03,-0.86,0.16,-0.14,0.60,-0.19,
0.733,1.03,-0.86,0.16,-0.16,0.59,-0.19,
0.733,1.03,-0.86,0.16,-0.19,0.58,-0.18,
0.733,1.03,-0.86,0.16,-0.20,0.58,-0.17,
0.747,1.03,-0.86,0.16,-0.22,0.56,-0.17,
0.747,1.26,-0.69,-0.71,-0.22,0.56,-0.17,
0.747,1.26,-0.69,-0.71,-0.25,0.54,-0.17,
0.748,1.26,-0.69,-0.71,-0.28,0.51,-0.17,
0.748,1.26,-0.69,-0.71,-0.33,0.48,-0.17,
0.748,1.26,-0.69,-0.71,-0.34,0.47,-0.17,
0.749,1.26,-0.69,-0.71,-0.38,0.45,-0.17,
0.749,1.40,-0.55,-1.20,-0.38,0.45,-0.17,
0.751,1.40,-0.55,-1.20,-0.41,0.42,-0.18,
0.752,1.40,-0.55,-1.20,-0.44,0.40,-0.18,
0.752,1.40,-0.55,-1.20,-0.48,0.36,-0.19,
0.754,1.40,-0.55,-1.20,-0.49,0.34,-0.19,
0.755,1.40,-0.55,-1.20,-0.52,0.32,-0.20,
0.758,1.54,-0.49,-1.18,-0.52,0.32,-0.20,
0.759,1.54,-0.49,-1.18,-0.54,0.29,-0.20,
0.759,1.54,-0.49,-1.18,-0.56,0.27,-0.20,
0.762,1.54,-0.49,-1.18,-0.59,0.23,-0.21,
0.763,1.54,-0.49,-1.18,-0.60,0.22,-0.21,
0.765,1.54,-0.49,-1.18,-0.61,0.20,-0.21,
0.768,1.53,-0.48,-0.79,-0.61,0.20,-0.21,
0.771,1.53,-0.48,-0.79,-0.63,0.18,-0.21,
0.772,1.53,-0.48,-0.79,-0.64,0.15,-0.20,
0.772,1.53,-0.48,-0.79,-0.65,0.12,-0.20,
0.775,1.53,-0.48,-0.79,-0.65,0.11,-0.20,
0.775,1.53,-0.48,-0.79,-0.66,0.08,-0.19,
0.777,1.50,-0.57,-0.33,-0.66,0.08,-0.19,
0.778,1.50,-0.57,-0.33,-0.67,0.06,-0.19,
0.782,1.50,-0.57,-0.33,-0.67,0.04,-0.18,
0.782,1.50,-0.57,-0.33,-0.68,0.01,-0.17,
0.783,1.50,-0.57,-0.33,-0.68,0.00,-0.16,
0.786,1.50,-0.57,-0.33,-0.68,-0.02,-0.15,
0.788,1.31,-0.69,0.13,-0.68,-0.02,-0.15,
0.789,1.31,-0.69,0.13,-0.67,-0.04,-0.13,
0.789,1.31,-0.69,0.13,-0.67,-0.05,-0.12,
0.792,1.31,-0.69,0.13,-0.66,-0.07,-0.09,
0.792,1.31,-0.69,0.13,-0.65,-0.08,-0.08,
0.795,1.31,-0.69,0.13,-0.64,-0.08,-0.06,
0.797,0.98,-0.85,0.64,-0.64,-0.08,-0.06,
0.797,0.98,-0.85,0.64,-0.63,-0.09,-0.03,
0.798,0.98,-0.85,0.64,-0.61,-0.09,-0.00,
0.802,0.98,-0.85,0.64,-0.58,-0.09,0.04,
0.803,0.98,-0.85,0.64,-0.57,-0.09,0.05,
0.805,0.98,-0.85,0.64,-0.55,-0.09,0.09,
0.807,0.75,-0.95,1.07,-0.55,-0.09,0.09,
0.807,0.75,-0.95,1.07,-0.52,-0.09,0.12,
0.808,0.75,-0.95,1.07,-0.50,-0.09,0.15,
0.812,0.75,-0.95,1.07,-0.45,-0.09,0.20,
0.812,0.75,-0.95,1.07,-0.44,-0.09,0.22,
0.815,0.75,-0.95,1.07,-0.40,-0.09,0.25,
0.818,0.82,-0.99,1.35,-0.40,-0.09,0.25,
0.818,0.82,-0.99,1.35,-0.36,-0.09,0.28,
0.82,0.82,-0.99,1.35,-0.33,-0.08,0.31,
0.822,0.82,-0.99,1.35,-0.27,-0.08,0.36,
0.822,0.82,-0.99,1.35,-0.25,-0.08,0.38,
0.825,0.82,-0.99,1.35,-0.22,-0.09,0.41,
0.827,0.89,-0.84,1.27,-0.22,-0.09,0.41,
0.828,0.89,-0.84,1.27,-0.18,-0.09,0.44,
0.829,0.89,-0.84,1.27,-0.14,-0.10,0.47,
0.832,0.89,-0.84,1.27,-0.08,-0.11,0.51,
0.835,0.89,-0.84,1.27,-0.05,-0.12,0.54,
0.836,0.89,-0.84,1.27,-0.03,-0.13,0.55,
0.838,1.20,-0.57,0.88,-0.03,-0.13,0.55,
0.838,1.20,-0.57,0.88,0.01,-0.14,0.57,
0.84,1.20,-0.57,0.88,0.04,-0.15,0.59,
0.842,1.20,-0.57,0.88,0.10,-0.18,0.61,
0.843,1.20,-0.57,0.88,0.11,-0.19,0.62,
0.845,1.20,-0.57,0.88,0.15,-0.22,0.62,
0.847,1.50,-0.24,0.36,0.15,-0.22,0.62,
0.847,1.50,-0.24,0.36,0.18,-0.24,0.63,
0.849,1.50,-0.24,0.36,0.21,-0.27,0.64,
0.852,1.50,-0.24,0.36,0.25,-0.30,0.64,
0.853,1.50,-0.24,0.36,0.26,-0.32,0.64,
0.854,1.50,-0.24,0.36,0.28,-0.34,0.64,
0.857,1.86,0.05,-0.37,0.28,-0.34,0.64,
0.857,1.86,0.05,-0.37,0.30,-0.37,0.64,
0.859,1.86,0.05,-0.37,0.32,-0.39,0.64,
0.862,1.86,0.05,-0.37,0.34,-0.42,0.63,
0.863,1.86,0.05,-0.37,0.35,-0.43,0.63,
0.865,1.86,0.05,-0.37,0.36,-0.45,0.63,
0.88,1.96,0.29,-1.15,0.36,-0.45,0.63,
0.881,1.96,0.29,-1.15,0.36,-0.47,0.62,
0.909,1.96,0.29,-1.15,0.37,-0.48,0.62,
0.909,1.96,0.29,-1.15,0.38,-0.50,0.62,
0.91,1.96,0.29,-1.15,0.38,-0.51,0.61,
0.91,1.96,0.29,-1.15,0.37,-0.52,0.61,
0.91,2.02,0.47,-1.83,0.37,-0.52,0.61,
0.91,2.02,0.47,-1.83,0.37,-0.53,0.61,
0.911,2.02,0.47,-1.83,0.37,-0.54,0.61,
0.911,2.02,0.47,-1.83,0.36,-0.54,0.60,
0.911,2.02,0.47,-1.83,0.36,-0.55,0.60,
0.911,2.02,0.47,-1.83,0.35,-0.55,0.60,
0.912,1.90,0.52,-2.31,0.35,-0.55,0.60,
0.912,1.90,0.52,-2.31,0.34,-0.55,0.59,
0.912,1.90,0.52,-2.31,0.33,-0.56,0.59,
0.912,1.90,0.52,-2.31,0.32,-0.56,0.59,
0.913,1.90,0.52,-2.31,0.32,-0.56,0.59,
0.913,1.90,0.52,-2.31,0.31,-0.56,0.59,
0.913,1.82,0.66,-2.62,0.31,-0.56,0.59,
0.914,1.82,0.66,-2.62,0.30,-0.56,0.59,
0.914,1.82,0.66,-2.62,0.30,-0.56,0.59,
0.914,1.82,0.66,-2.62,0.29,-0.56,0.58,
0.914,1.82,0.66,-2.62,0.28,-0.56,0.58,
0.915,1.82,0.66,-2.62,0.28,-0.56,0.58,
0.915,1.66,0.71,-2.75,0.28,-0.56,0.58,
0.915,1.66,0.71,-2.75,0.28,-0.56,0.58,
0.915,1.66,0.71,-2.75,0.27,-0.55,0.57,
0.916,1.66,0.71,-2.75,0.26,-0.54,0.57,
0.916,1.66,0.71,-2.75,0.26,-0.54,0.57,
0.916,1.66,0.71,-2.75,0.26,-0.53,0.56,
0.922,1.62,0.87,-2.86,0.26,-0.53,0.56,
0.922,1.62,0.87,-2.86,0.25,-0.53,0.56,
0.922,1.62,0.87,-2.86,0.25,-0.52,0.55,
0.922,1.62,0.87,-2.86,0.24,-0.52,0.55,
0.927,1.62,0.87,-2.86,0.24,-0.52,0.54,
0.928,1.62,0.87,-2.86,0.23,-0.51,0.53,
0.928,1.55,0.92,-2.99,0.23,-0.51,0.53,
0.928,1.55,0.92,-2.99,0.22,-0.51,0.52,
0.928,1.55,0.92,-2.99,0.22,-0.51,0.51,
0.933,1.55,0.92,-2.99,0.20,-0.50,0.50,
0.933,1.55,0.92,-2.99,0.20,-0.50,0.49,
0.941,1.55,0.92,-2.99,0.19,-0.50,0.47,
0.941,1.62,0.97,-3.06,0.19,-0.50,0.47,
0.941,1.62,0.97,-3.06,0.18,-0.50,0.46,
0.942,1.62,0.97,-3.06,0.17,-0.51,0.45,
0.942,1.62,0.97,-3.06,0.15,-0.52,0.43,
0.942,1.62,0.97,-3.06,0.15,-0.52,0.42,
0.944,1.62,0.97,-3.06,0.14,-0.53,0.40,
0.947,1.47,1.04,-3.09,0.14,-0.53,0.40,
0.947,1.47,1.04,-3.09,0.12,-0.54,0.39,
0.949,1.47,1.04,-3.09,0.11,-0.54,0.37,
0.955,1.47,1.04,-3.09,0.10,-0.56,0.35,
0.956,1.47,1.04,-3.09,0.09,-0.57,0.34,
0.957,1.47,1.04,-3.09,0.08,-0.58,0.32,
0.958,1.44,1.11,-3.03,0.08,-0.58,0.32,
0.958,1.44,1.11,-3.03,0.06,-0.59,0.31,
0.959,1.44,1.11,-3.03,0.05,-0.60,0.29,
0.962,1.44,1.11,-3.03,0.03,-0.63,0.27,
0.963,1.44,1.11,-3.03,0.02,-0.63,0.26,
0.965,1.44,1.11,-3.03,0.01,-0.65,0.24,
0.968,1.18,1.04,-2.89,0.01,-0.65,0.24,
0.968,1.18,1.04,-2.89,-0.01,-0.67,0.23,
0.969,1.18,1.04,-2.89,-0.02,-0.69,0.22,
0.972,1.18,1.04,-2.89,-0.04,-0.72,0.20,
0.973,1.18,1.04,-2.89,-0.04,-0.73,0.20,
0.974,1.18,1.04,-2.89,-0.05,-0.74,0.19,
0.977,0.89,1.03,-2.53,-0.05,-0.74,0.19,
0.977,0.89,1.03,-2.53,-0.06,-0.75,0.18,
0.979,0.89,1.03,-2.53,-0.07,-0.75,0.17,
0.982,0.89,1.03,-2.53,-0.08,-0.76,0.16,
0.989,0.89,1.03,-2.53,-0.08,-0.76,0.15,
0.989,0.89,1.03,-2.53,-0.08,-0.76,0.14,
0.989,0.68,0.96,-2.07,-0.08,-0.76,0.14,
0.99,0.68,0.96,-2.07,-0.09,-0.77,0.14,
0.994,0.68,0.96,-2.07,-0.09,-0.77,0.13,
0.994,0.68,0.96,-2.07,-0.09,-0.78,0.12,
0.994,0.68,0.96,-2.07,-0.09,-0.78,0.12,
0.995,0.68,0.96,-2.07,-0.09,-0.78,0.12,
0.998,0.49,0.96,-1.57,-0.09,-0.78,0.12,
0.998,0.49,0.96,-1.57,-0.09,-0.79,0.12,
1.004,0.49,0.96,-1.57,-0.08,-0.79,0.11,
1.005,0.49,0.96,-1.57,-0.08,-0.79,0.11,
1.006,0.49,0.96,-1.57,-0.08,-0.79,0.11,
1.008,0.49,0.96,-1.57,-0.07,-0.78,0.11,
1.008,0.39,0.95,-1.06,-0.07,-0.78,0.11,
1.008,0.39,0.95,-1.06,-0.06,-0.78,0.10,
1.011,0.39,0.95,-1.06,-0.06,-0.77,0.10,
1.012,0.39,0.95,-1.06,-0.04,-0.77,0.09,
1.013,0.39,0.95,-1.06,-0.04,-0.76,0.09,
1.016,0.39,0.95,-1.06,-0.03,-0.76,0.09,
1.035,0.35,0.95,-0.65,-0.03,-0.76,0.09,
1.036,0.35,0.95,-0.65,-0.02,-0.75,0.09,
1.036,0.35,0.95,-0.65,-0.01,-0.75,0.08,
1.036,0.35,0.95,-0.65,-0.00,-0.74,0.08,
1.037,0.35,0.95,-0.65,0.00,-0.73,0.08,
1.037,0.35,0.95,-0.65,0.01,-0.73,0.07,
1.037,0.32,1.01,-0.38,0.01,-0.73,0.07,
1.037,0.32,1.01,-0.38,0.02,-0.73,0.07,
1.038,0.32,1.01,-0.38,0.02,-0.72,0.07,
1.038,0.32,1.01,-0.38,0.03,-0.71,0.06,
1.038,0.32,1.01,-0.38,0.04,-0.71,0.06,
1.039,0.32,1.01,-0.38,0.05,-0.70,0.05,
1.058,0.33,1.00,-0.13,0.05,-0.70,0.05,
1.058,0.33,1.00,-0.13,0.05,-0.69,0.05,
1.059,0.33,1.00,-0.13,0.06,-0.68,0.04,
1.059,0.33,1.00,-0.13,0.07,-0.66,0.04,
1.059,0.33,1.00,-0.13,0.07,-0.66,0.03,
1.059,0.33,1.00,-0.13,0.08,-0.65,0.03,
1.059,0.25,0.97,0.15,0.08,-0.65,0.03,
1.059,0.25,0.97,0.15,0.09,-0.63,0.03,
1.059,0.25,0.97,0.15,0.10,-0.61,0.03,
1.06,0.25,0.97,0.15,0.11,-0.58,0.02,
1.06,0.25,0.97,0.15,0.12,-0.57,0.02,
1.06,0.25,0.97,0.15,0.13,-0.54,0.02,
1.06,0.05,0.92,0.38,0.13,-0.54,0.02,
1.06,0.05,0.92,0.38,0.14,-0.51,0.02,
1.06,0.05,0.92,0.38,0.14,-0.48,0.02,
1.063,0.05,0.92,0.38,0.15,-0.43,0.03,
1.063,0.05,0.92,0.38,0.16,-0.41,0.03,
1.066,0.05,0.92,0.38,0.16,-0.37,0.03,
1.067,-0.17,0.90,0.50,0.16,-0.37,0.03,
1.067,-0.17,0.90,0.50,0.17,-0.34,0.03,
1.069,-0.17,0.90,0.50,0.18,-0.30,0.03,
1.072,-0.17,0.90,0.50,0.19,-0.25,0.03,
1.072,-0.17,0.90,0.50,0.19,-0.23,0.03,
1.075,-0.17,0.90,0.50,0.20,-0.20,0.03,
1.077,-0.29,0.86,0.55,0.20,-0.20,0.03,
1.077,-0.29,0.86,0.55,0.21,-0.17,0.03,
1.079,-0.29,0.86,0.55,0.22,-0.13,0.03,
1.082,-0.29,0.86,0.55,0.22,-0.09,0.04,
1.083,-0.29,0.86,0.55,0.22,-0.08,0.04,
1.085,-0.29,0.86,0.55,0.23,-0.05,0.04,
1.087,-0.46,0.84,0.44,0.23,-0.05,0.04,
1.087,-0.46,0.84,0.44,0.23,-0.03,0.05,
1.09,-0.46,0.84,0.44,0.23,-0.02,0.05,
1.092,-0.46,0.84,0.44,0.23,-0.00,0.05,
1.092,-0.46,0.84,0.44,0.23,0.00,0.06,
1.095,-0.46,0.84,0.44,0.23,0.01,0.06,
1.097,-0.71,0.89,0.32,0.23,0.01,0.06,
1.097,-0.71,0.89,0.32,0.22,0.01,0.06,
1.099,-0.71,0.89,0.32,0.22,0.02,0.07,
1.102,-0.71,0.89,0.32,0.21,0.01,0.07,
1.103,-0.71,0.89,0.32,0.21,0.01,0.07,
1.104,-0.71,0.89,0.32,0.20,0.01,0.07,
1.107,-0.81,0.95,0.35,0.20,0.01,0.07,
1.107,-0.81,0.95,0.35,0.20,0.01,0.07,
1.109,-0.81,0.95,0.35,0.19,0.01,0.07,
1.112,-0.81,0.95,0.35,0.18,0.01,0.07,
1.112,-0.81,0.95,0.35,0.18,0.01,0.07,
1.115,-0.81,0.95,0.35,0.17,0.01,0.06,
1.117,-0.79,0.98,0.54,0.17,0.01,0.06,
1.117,-0.79,0.98,0.54,0.16,0.01,0.06,
1.12,-0.79,0.98,0.54,0.15,0.01,0.05,
1.123,-0.79,0.98,0.54,0.14,0.02,0.04,
1.123,-0.79,0.98,0.54,0.13,0.02,0.04,
1.126,-0.79,0.98,0.54,0.12,0.03,0.03,
1.127,-0.74,0.93,0.86,0.12,0.03,0.03,
1.127,-0.74,0.93,0.86,0.11,0.04,0.03,
1.129,-0.74,0.93,0.86,0.10,0.05,0.02,
1.131,-0.74,0.93,0.86,0.08,0.07,0.01,
1.132,-0.74,0.93,0.86,0.07,0.08,0.01,
1.135,-0.74,0.93,0.86,0.06,0.10,0.00,
1.137,-0.77,0.81,1.19,0.06,0.10,0.00,
1.137,-0.77,0.81,1.19,0.05,0.13,-0.00,
1.139,-0.77,0.81,1.19,0.04,0.16,-0.01,
1.142,-0.77,0.81,1.19,0.01,0.21,-0.01,
1.143,-0.77,0.81,1.19,0.01,0.23,-0.01,
1.145,-0.77,0.81,1.19,-0.01,0.27,-0.01,
1.147,-0.86,0.65,1.49,-0.01,0.27,-0.01,
1.147,-0.86,0.65,1.49,-0.03,0.30,-0.01,
1.154,-0.86,0.65,1.49,-0.05,0.34,-0.01,
1.155,-0.86,0.65,1.49,-0.08,0.40,-0.01,
1.155,-0.86,0.65,1.49,-0.09,0.42,-0.02,
1.155,-0.86,0.65,1.49,-0.11,0.47,-0.02,
1.157,-0.97,0.50,1.72,-0.11,0.47,-0.02,
1.157,-0.97,0.50,1.72,-0.13,0.52,-0.02,
1.159,-0.97,0.50,1.72,-0.16,0.57,-0.03,
1.162,-0.97,0.50,1.72,-0.19,0.64,-0.04,
1.189,-0.97,0.50,1.72,-0.20,0.67,-0.04,
1.19,-0.97,0.50,1.72,-0.23,0.72,-0.05,
1.19,-1.01,0.44,1.89,-0.23,0.72,-0.05,
1.19,-1.01,0.44,1.89,-0.25,0.76,-0.05,
1.19,-1.01,0.44,1.89,-0.28,0.80,-0.05,
1.191,-1.01,0.44,1.89,-0.32,0.86,-0.06,
1.191,-1.01,0.44,1.89,-0.33,0.88,-0.07,
1.191,-1.01,0.44,1.89,-0.36,0.91,-0.07,
1.192,-1.10,0.30,2.06,-0.36,0.91,-0.07,
1.192,-1.10,0.30,2.06,-0.39,0.94,-0.08,
1.192,-1.10,0.30,2.06,-0.42,0.96,-0.08,
1.193,-1.10,0.30,2.06,-0.46,1.00,-0.09,
1.193,-1.10,0.30,2.06,-0.50,1.03,-0.10,
1.193,-1.10,0.30,2.06,-0.50,1.03,-0.10,
1.193,-1.25,0.19,2.33,-0.50,1.03,-0.10,
1.194,-1.25,0.19,2.33,-0.52,1.05,-0.10,
1.194,-1.25,0.19,2.33,-0.55,1.08,-0.11,
1.194,-1.25,0.19,2.33,-0.58,1.11,-0.12,
1.195,-1.25,0.19,2.33,-0.59,1.12,-0.12,
1.195,-1.25,0.19,2.33,-0.61,1.14,-0.12,
1.2,-1.35,0.04,2.67,-0.61,1.14,-0.12,
1.2,-1.35,0.04,2.67,-0.63,1.15,-0.13,
1.2,-1.35,0.04,2.67,-0.64,1.17,-0.14,
1.202,-1.35,0.04,2.67,-0.66,1.19,-0.15,
1.223,-1.35,0.04,2.67,-0.67,1.19,-0.15,
1.224,-1.35,0.04,2.67,-0.67,1.20,-0.16,
1.224,-1.48,-0.07,3.07,-0.67,1.20,-0.16,
1.224,-1.48,-0.07,3.07,-0.68,1.21,-0.17,
1.224,-1.48,-0.07,3.07,-0.69,1.21,-0.18,
1.225,-1.48,-0.07,3.07,-0.69,1.21,-0.19,
1.225,-1.48,-0.07,3.07,-0.69,1.21,-0.20,
1.225,-1.48,-0.07,3.07,-0.69,1.20,-0.21,
1.226,-1.67,-0.34,3.42,-0.69,1.20,-0.21,
1.226,-1.67,-0.34,3.42,-0.69,1.19,-0.21,
1.226,-1.67,-0.34,3.42,-0.68,1.18,-0.22,
1.226,-1.67,-0.34,3.42,-0.67,1.16,-0.22,
1.227,-1.67,-0.34,3.42,-0.67,1.16,-0.22,
1.227,-1.67,-0.34,3.42,-0.65,1.15,-0.22,
1.231,-1.99,-0.63,3.79,-0.65,1.15,-0.22,
1.231,-1.99,-0.63,3.79,-0.63,1.14,-0.22,
1.231,-1.99,-0.63,3.79,-0.61,1.14,-0.21,
1.231,-1.99,-0.63,3.79,-0.57,1.15,-0.20,
1.235,-1.99,-0.63,3.79,-0.56,1.15,-0.19,
1.236,-1.99,-0.63,3.79,-0.53,1.15,-0.17,
1.238,-2.57,-1.06,4.11,-0.53,1.15,-0.17,
1.238,-2.57,-1.06,4.11,-0.49,1.15,-0.15,
1.239,-2.57,-1.06,4.11,-0.46,1.15,-0.12,
1.242,-2.57,-1.06,4.11,-0.41,1.15,-0.08,
1.243,-2.57,-1.06,4.11,-0.39,1.15,-0.06,
1.245,-2.57,-1.06,4.11,-0.35,1.14,-0.03,
1.247,-3.20,-1.35,4.20,-0.35,1.14,-0.03,
1.248,-3.20,-1.35,4.20,-0.31,1.15,0.01,
1.255,-3.20,-1.35,4.20,-0.26,1.14,0.05,
1.256,-3.20,-1.35,4.20,-0.21,1.14,0.12,
1.256,-3.20,-1.35,4.20,-0.18,1.14,0.14,
1.256,-3.20,-1.35,4.20,-0.14,1.14,0.19,
1.257,-3.81,-1.62,3.92,-0.14,1.14,0.19,
1.258,-3.81,-1.62,3.92,-0.11,1.13,0.24,
1.259,-3.81,-1.62,3.92,-0.07,1.13,0.29,
1.276,-3.81,-1.62,3.92,-0.02,1.11,0.37,
1.276,-3.81,-1.62,3.92,-0.01,1.11,0.39,
1.276,-3.81,-1.62,3.92,0.02,1.10,0.45,
1.277,-4.02,-1.67,3.32,0.02,1.10,0.45,
1.277,-4.02,-1.67,3.32,0.05,1.08,0.50,
1.277,-4.02,-1.67,3.32,0.07,1.06,0.55,
1.277,-4.02,-1.67,3.32,0.10,1.02,0.63,
1.278,-4.02,-1.67,3.32,0.12,1.01,0.66,
1.278,-4.02,-1.67,3.32,0.14,0.98,0.71,
1.278,-3.99,-1.62,2.66,0.14,0.98,0.71,
1.278,-3.99,-1.62,2.66,0.15,0.95,0.75,
1.28,-3.99,-1.62,2.66,0.17,0.90,0.80,
1.29,-3.99,-1.62,2.66,0.19,0.85,0.86,
1.291,-3.99,-1.62,2.66,0.19,0.82,0.88,
1.291,-3.99,-1.62,2.66,0.20,0.77,0.92,
1.291,-3.55,-1.34,2.18,0.20,0.77,0.92,
1.291,-3.55,-1.34,2.18,0.21,0.72,0.95,
1.291,-3.55,-1.34,2.18,0.22,0.66,0.98,
1.292,-3.55,-1.34,2.18,0.23,0.57,1.03,
1.292,-3.55,-1.34,2.18,0.23,0.54,1.04,
1.295,-3.55,-1.34,2.18,0.23,0.47,1.06,
1.297,-3.04,-1.04,1.95,0.23,0.47,1.06,
1.298,-3.04,-1.04,1.95,0.24,0.39,1.08,
1.317,-3.04,-1.04,1.95,0.24,0.32,1.09,
1.318,-3.04,-1.04,1.95,0.25,0.19,1.11,
1.318,-3.04,-1.04,1.95,0.25,0.15,1.11,
1.318,-3.04,-1.04,1.95,0.26,0.07,1.12,
1.318,-2.29,-0.77,1.99,0.26,0.07,1.12,
1.319,-2.29,-0.77,1.99,0.27,-0.01,1.12,
1.319,-2.29,-0.77,1.99,0.27,-0.09,1.13,
1.319,-2.29,-0.77,1.99,0.29,-0.21,1.13,
1.319,-2.29,-0.77,1.99,0.29,-0.25,1.13,
1.319,-2.29,-0.77,1.99,0.30,-0.32,1.13,
1.319,-1.70,-0.59,2.33,0.30,-0.32,1.13,
1.319,-1.70,-0.59,2.33,0.32,-0.39,1.12,
1.32,-1.70,-0.59,2.33,0.33,-0.45,1.12,
1.322,-1.70,-0.59,2.33,0.35,-0.53,1.12,
1.325,-1.70,-0.59,2.33,0.36,-0.56,1.11,
1.325,-1.70,-0.59,2.33,0.37,-0.60,1.11,
1.326,-1.15,-0.47,2.69,0.37,-0.60,1.11,
1.326,-1.15,-0.47,2.69,0.39,-0.64,1.10,
1.329,-1.15,-0.47,2.69,0.40,-0.67,1.09,
1.332,-1.15,-0.47,2.69,0.42,-0.70,1.08,
1.332,-1.15,-0.47,2.69,0.43,-0.71,1.07,
1.335,-1.15,-0.47,2.69,0.44,-0.71,1.07,
1.337,-0.55,-0.52,2.90,0.44,-0.71,1.07,
1.337,-0.55,-0.52,2.90,0.45,-0.72,1.05,
1.339,-0.55,-0.52,2.90,0.46,-0.71,1.04,
1.341,-0.55,-0.52,2.90,0.48,-0.69,1.02,
1.342,-0.55,-0.52,2.90,0.49,-0.69,1.02,
1.345,-0.55,-0.52,2.90,0.50,-0.66,1.00,
1.347,-0.03,-0.68,3.03,0.50,-0.66,1.00,
1.347,-0.03,-0.68,3.03,0.51,-0.64,0.99,
1.349,-0.03,-0.68,3.03,0.53,-0.60,0.98,
1.352,-0.03,-0.68,3.03,0.55,-0.55,0.97,
1.352,-0.03,-0.68,3.03,0.56,-0.53,0.96,
1.355,-0.03,-0.68,3.03,0.58,-0.48,0.95,
1.357,0.23,-0.84,3.04,0.58,-0.48,0.95,
1.357,0.23,-0.84,3.04,0.59,-0.43,0.95,
1.359,0.23,-0.84,3.04,0.61,-0.38,0.94,
1.362,0.23,-0.84,3.04,0.65,-0.31,0.93,
1.362,0.23,-0.84,3.04,0.66,-0.29,0.93,
1.365,0.23,-0.84,3.04,0.67,-0.23,0.92,
1.367,0.29,-0.95,2.77,0.67,-0.23,0.92,
1.367,0.29,-0.95,2.77,0.70,-0.18,0.92,
1.379,0.29,-0.95,2.77,0.72,-0.13,0.92,
1.379,0.29,-0.95,2.77,0.74,-0.05,0.91,
1.379,0.29,-0.95,2.77,0.76,-0.02,0.91,
1.379,0.29,-0.95,2.77,0.78,0.02,0.91,
1.379,0.28,-1.12,2.16,0.78,0.02,0.91,
1.379,0.28,-1.12,2.16,0.80,0.03,0.91,
1.379,0.28,-1.12,2.16,0.82,-0.03,0.91,
1.382,0.28,-1.12,2.16,0.84,-0.01,0.91,
1.383,0.28,-1.12,2.16,0.84,0.02,0.90,
1.385,0.28,-1.12,2.16,0.84,0.10,0.89,
1.388,0.23,-1.14,0.91,0.84,0.10,0.89,
1.388,0.23,-1.14,0.91,0.84,0.18,0.88,
1.389,0.23,-1.14,0.91,0.85,0.27,0.87,
1.391,0.23,-1.14,0.91,0.86,0.39,0.85,
1.392,0.23,-1.14,0.91,0.86,0.42,0.84,
1.394,0.23,-1.14,0.91,0.85,0.49,0.83,
1.397,0.10,-1.45,0.12,0.85,0.49,0.83,
1.397,0.10,-1.45,0.12,0.84,0.54,0.81,
1.398,0.10,-1.45,0.12,0.83,0.58,0.80,
1.402,0.10,-1.45,0.12,0.81,0.60,0.79,
1.402,0.10,-1.45,0.12,0.80,0.60,0.79,
1.405,0.10,-1.45,0.12,0.79,0.60,0.78,
1.406,0.16,-1.57,-1.48,0.79,0.60,0.78,
1.407,0.16,-1.57,-1.48,0.77,0.60,0.78,
1.409,0.16,-1.57,-1.48,0.75,0.60,0.78,
1.413,0.16,-1.57,-1.48,0.72,0.62,0.78,
1.415,0.16,-1.57,-1.48,0.72,0.62,0.78,
1.415,0.16,-1.57,-1.48,0.70,0.64,0.77,
1.417,-0.09,-1.55,-2.47,0.70,0.64,0.77,
1.417,-0.09,-1.55,-2.47,0.68,0.65,0.77,
1.418,-0.09,-1.55,-2.47,0.66,0.67,0.76,
1.422,-0.09,-1.55,-2.47,0.63,0.68,0.75,
1.423,-0.09,-1.55,-2.47,0.62,0.69,0.74,
1.425,-0.09,-1.55,-2.47,0.60,0.69,0.74,
1.427,-0.16,-1.70,-3.18,0.60,0.69,0.74,
1.427,-0.16,-1.70,-3.18,0.58,0.69,0.73,
1.429,-0.16,-1.70,-3.18,0.56,0.69,0.72,
1.434,-0.16,-1.70,-3.18,0.53,0.68,0.71,
1.434,-0.16,-1.70,-3.18,0.52,0.67,0.71,
1.434,-0.16,-1.70,-3.18,0.50,0.66,0.70,
1.437,-0.18,-1.80,-3.75,0.50,0.66,0.70,
1.437,-0.18,-1.80,-3.75,0.48,0.64,0.70,
1.445,-0.18,-1.80,-3.75,0.46,0.62,0.69,
1.445,-0.18,-1.80,-3.75,0.42,0.60,0.69,
1.446,-0.18,-1.80,-3.75,0.41,0.59,0.69,
1.447,-0.18,-1.80,-3.75,0.39,0.57,0.68,
1.46,-0.22,-1.83,-4.05,0.39,0.57,0.68,
1.461,-0.22,-1.83,-4.05,0.37,0.55,0.68,
1.461,-0.22,-1.83,-4.05,0.35,0.53,0.68,
1.462,-0.22,-1.83,-4.05,0.33,0.50,0.67,
1.462,-0.22,-1.83,-4.05,0.32,0.50,0.67,
1.462,-0.22,-1.83,-4.05,0.30,0.49,0.67,
1.463,-0.29,-1.92,-4.13,0.30,0.49,0.67,
1.463,-0.29,-1.92,-4.13,0.28,0.47,0.67,
1.464,-0.29,-1.92,-4.13,0.27,0.46,0.67,
1.464,-0.29,-1.92,-4.13,0.24,0.44,0.67,
1.464,-0.29,-1.92,-4.13,0.23,0.43,0.67,
1.465,-0.29,-1.92,-4.13,0.22,0.42,0.67,
1.471,-0.26,-1.98,-4.09,0.22,0.42,0.67,
1.471,-0.26,-1.98,-4.09,0.20,0.41,0.67,
1.471,-0.26,-1.98,-4.09,0.19,0.40,0.67,
1.472,-0.26,-1.98,-4.09,0.17,0.38,0.67,
1.473,-0.26,-1.98,-4.09,0.16,0.37,0.67,
1.475,-0.26,-1.98,-4.09,0.15,0.36,0.67,
1.477,-0.31,-2.03,-3.92,0.15,0.36,0.67,
1.477,-0.31,-2.03,-3.92,0.14,0.35,0.67,
1.479,-0.31,-2.03,-3.92,0.12,0.33,0.67,
1.481,-0.31,-2.03,-3.92,0.11,0.31,0.67,
1.484,-0.31,-2.03,-3.92,0.10,0.31,0.67,
1.485,-0.31,-2.03,-3.92,0.09,0.29,0.67,
1.489,-0.26,-2.04,-3.69,0.09,0.29,0.67,
1.489,-0.26,-2.04,-3.69,0.08,0.28,0.67,
1.489,-0.26,-2.04,-3.69,0.07,0.26,0.67,
1.493,-0.26,-2.04,-3.69,0.06,0.24,0.67,
1.493,-0.26,-2.04,-3.69,0.06,0.23,0.67,
1.496,-0.26,-2.04,-3.69,0.05,0.22,0.67,
1.5,-0.24,-2.06,-3.36,0.05,0.22,0.67,
1.501,-0.24,-2.06,-3.36,0.04,0.20,0.67,
1.501,-0.24,-2.06,-3.36,0.04,0.19,0.67,
1.503,-0.24,-2.06,-3.36,0.03,0.16,0.67,
1.503,-0.24,-2.06,-3.36,0.03,0.16,0.67,
1.505,-0.24,-2.06,-3.36,0.04,0.14,0.66,
1.507,-0.12,-1.95,-3.03,0.04,0.14,0.66,
1.507,-0.12,-1.95,-3.03,0.04,0.12,0.66,
1.509,-0.12,-1.95,-3.03,0.03,0.11,0.66,
1.512,-0.12,-1.95,-3.03,0.03,0.07,0.66,
1.513,-0.12,-1.95,-3.03,0.03,0.06,0.66,
1.515,-0.12,-1.95,-3.03,0.03,0.04,0.66,
1.517,0.04,-1.83,-2.71,0.03,0.04,0.66,
1.518,0.04,-1.83,-2.71,0.02,0.02,0.65,
1.522,0.04,-1.83,-2.71,0.02,-0.00,0.65,
1.522,0.04,-1.83,-2.71,0.02,-0.03,0.64,
1.523,0.04,-1.83,-2.71,0.03,-0.04,0.64,
1.527,0.04,-1.83,-2.71,0.02,-0.05,0.64,
1.527,0.27,-1.66,-2.29,0.02,-0.05,0.64,
1.528,0.27,-1.66,-2.29,0.02,-0.06,0.63,
1.528,0.27,-1.66,-2.29,0.02,-0.08,0.63,
1.535,0.27,-1.66,-2.29,0.03,-0.09,0.62,
1.535,0.27,-1.66,-2.29,0.03,-0.11,0.61,
1.536,0.27,-1.66,-2.29,0.03,-0.11,0.61,
1.564,0.42,-1.58,-1.91,0.03,-0.11,0.61,
1.564,0.42,-1.58,-1.91,0.03,-0.11,0.60,
1.565,0.42,-1.58,-1.91,0.04,-0.11,0.60,
1.565,0.42,-1.58,-1.91,0.03,-0.12,0.59,
1.566,0.42,-1.58,-1.91,0.03,-0.12,0.58,
1.566,0.42,-1.58,-1.91,0.03,-0.12,0.57,
1.566,0.53,-1.50,-1.70,0.03,-0.12,0.57,
1.567,0.53,-1.50,-1.70,0.02,-0.11,0.57,
1.567,0.53,-1.50,-1.70,0.01,-0.11,0.56,
1.568,0.53,-1.50,-1.70,0.00,-0.10,0.55,
1.568,0.53,-1.50,-1.70,-0.00,-0.09,0.55,
1.568,0.53,-1.50,-1.70,-0.01,-0.08,0.54,
1.569,0.64,-1.51,-1.52,-0.01,-0.08,0.54,
1.569,0.64,-1.51,-1.52,-0.02,-0.07,0.54,
1.57,0.64,-1.51,-1.52,-0.04,-0.06,0.53,
1.57,0.64,-1.51,-1.52,-0.05,-0.04,0.52,
1.571,0.64,-1.51,-1.52,-0.06,-0.03,0.52,
1.571,0.64,-1.51,-1.52,-0.09,-0.02,0.52,
1.571,0.64,-1.49,-1.34,-0.09,-0.02,0.52,
1.572,0.64,-1.49,-1.34,-0.10,-0.00,0.51,
1.572,0.64,-1.49,-1.34,-0.11,0.01,0.51,
1.572,0.64,-1.49,-1.34,-0.13,0.04,0.50,
1.579,0.64,-1.49,-1.34,-0.14,0.04,0.50,
1.58,0.64,-1.49,-1.34,-0.16,0.06,0.50,
1.58,0.59,-1.49,-1.08,-0.16,0.06,0.50,
1.58,0.59,-1.49,-1.08,-0.18,0.08,0.49,
1.581,0.59,-1.49,-1.08,-0.20,0.10,0.49,
1.582,0.59,-1.49,-1.08,-0.22,0.12,0.48,
1.584,0.59,-1.49,-1.08,-0.22,0.12,0.48,
1.585,0.59,-1.49,-1.08,-0.25,0.14,0.48,
1.587,0.55,-1.44,-0.80,-0.25,0.14,0.48,
1.587,0.55,-1.44,-0.80,-0.26,0.15,0.48,
1.588,0.55,-1.44,-0.80,-0.27,0.16,0.47,
1.591,0.55,-1.44,-0.80,-0.29,0.17,0.47,
1.595,0.55,-1.44,-0.80,-0.30,0.17,0.46,
1.595,0.55,-1.44,-0.80,-0.32,0.18,0.46,
1.598,0.58,-1.40,-0.35,-0.32,0.18,0.46,
1.598,0.58,-1.40,-0.35,-0.32,0.18,0.46,
1.6,0.58,-1.40,-0.35,-0.33,0.18,0.45,
1.602,0.58,-1.40,-0.35,-0.34,0.19,0.44,
1.603,0.58,-1.40,-0.35,-0.35,0.19,0.44,
1.606,0.58,-1.40,-0.35,-0.36,0.19,0.44,
1.607,0.63,-1.32,0.02,-0.36,0.19,0.44,
1.607,0.63,-1.32,0.02,-0.37,0.18,0.43,
1.609,0.63,-1.32,0.02,-0.37,0.18,0.42,
1.612,0.63,-1.32,0.02,-0.39,0.17,0.42,
1.622,0.63,-1.32,0.02,-0.39,0.16,0.42,
1.627,0.63,-1.32,0.02,-0.39,0.16,0.41,
1.627,0.71,-1.24,0.35,-0.39,0.16,0.41,
1.627,0.71,-1.24,0.35,-0.41,0.15,0.40,
1.627,0.71,-1.24,0.35,-0.42,0.14,0.40,
1.628,0.71,-1.24,0.35,-0.43,0.11,0.39,
1.628,0.71,-1.24,0.35,-0.43,0.11,0.39,
1.628,0.71,-1.24,0.35,-0.45,0.09,0.38,
1.628,0.70,-1.12,0.59,-0.45,0.09,0.38,
1.628,0.70,-1.12,0.59,-0.46,0.06,0.38,
1.654,0.70,-1.12,0.59,-0.47,0.04,0.37,
1.654,0.70,-1.12,0.59,-0.49,-0.01,0.36,
1.655,0.70,-1.12,0.59,-0.49,-0.02,0.36,
1.655,0.70,-1.12,0.59,-0.51,-0.06,0.35,
1.655,0.81,-0.98,0.79,-0.51,-0.06,0.35,
1.655,0.81,-0.98,0.79,-0.52,-0.10,0.34,
1.655,0.81,-0.98,0.79,-0.54,-0.14,0.34,
1.655,0.81,-0.98,0.79,-0.57,-0.19,0.32,
1.656,0.81,-0.98,0.79,-0.59,-0.21,0.31,
1.656,0.81,-0.98,0.79,-0.61,-0.26,0.30,
1.656,0.93,-0.89,1.08,-0.61,-0.26,0.30,
1.656,0.93,-0.89,1.08,-0.61,-0.29,0.30,
1.656,0.93,-0.89,1.08,-0.64,-0.33,0.29,
1.658,0.93,-0.89,1.08,-0.65,-0.37,0.27,
1.659,0.93,-0.89,1.08,-0.67,-0.38,0.27,
1.66,0.93,-0.89,1.08,-0.69,-0.41,0.26,
1.66,1.04,-0.85,1.46,-0.69,-0.41,0.26,
1.661,1.04,-0.85,1.46,-0.71,-0.43,0.26,
1.661,1.04,-0.85,1.46,-0.73,-0.46,0.25,
1.662,1.04,-0.85,1.46,-0.76,-0.49,0.25,
1.664,1.04,-0.85,1.46,-0.77,-0.50,0.24,
1.664,1.04,-0.85,1.46,-0.79,-0.52,0.24,
1.673,1.11,-0.89,1.99,-0.79,-0.52,0.24,
1.673,1.11,-0.89,1.99,-0.81,-0.54,0.23,
1.673,1.11,-0.89,1.99,-0.82,-0.55,0.23,
1.673,1.11,-0.89,1.99,-0.84,-0.56,0.23,
1.673,1.11,-0.89,1.99,-0.85,-0.57,0.22,
1.675,1.11,-0.89,1.99,-0.86,-0.58,0.22,
1.677,1.24,-1.05,2.70,-0.86,-0.58,0.22,
1.677,1.24,-1.05,2.70,-0.86,-0.59,0.22,
1.679,1.24,-1.05,2.70,-0.86,-0.60,0.22,
1.683,1.24,-1.05,2.70,-0.87,-0.61,0.21,
1.684,1.24,-1.05,2.70,-0.86,-0.62,0.21,
1.685,1.24,-1.05,2.70,-0.86,-0.62,0.22,
1.687,1.32,-1.32,3.34,-0.86,-0.62,0.22,
1.687,1.32,-1.32,3.34,-0.85,-0.62,0.22,
1.692,1.32,-1.32,3.34,-0.83,-0.62,0.23,
1.695,1.32,-1.32,3.34,-0.82,-0.62,0.24,
1.698,1.32,-1.32,3.34,-0.82,-0.61,0.25,
1.699,1.32,-1.32,3.34,-0.80,-0.60,0.26,
1.7,1.29,-1.40,3.66,-0.80,-0.60,0.26,
1.7,1.29,-1.40,3.66,-0.79,-0.59,0.27,
1.7,1.29,-1.40,3.66,-0.78,-0.57,0.29,
1.701,1.29,-1.40,3.66,-0.76,-0.55,0.31,
1.732,1.29,-1.40,3.66,-0.75,-0.54,0.32,
1.732,1.29,-1.40,3.66,-0.75,-0.52,0.33,
1.733,1.27,-1.27,3.39,-0.75,-0.52,0.33,
1.733,1.27,-1.27,3.39,-0.74,-0.51,0.35,
1.733,1.27,-1.27,3.39,-0.74,-0.50,0.36,
1.734,1.27,-1.27,3.39,-0.74,-0.48,0.37,
1.734,1.27,-1.27,3.39,-0.74,-0.47,0.38,
1.734,1.27,-1.27,3.39,-0.75,-0.47,0.38,
1.734,1.42,-1.07,2.68,-0.75,-0.47,0.38,
1.735,1.42,-1.07,2.68,-0.77,-0.46,0.39,
1.735,1.42,-1.07,2.68,-0.78,-0.46,0.39,
1.735,1.42,-1.07,2.68,-0.82,-0.46,0.39,
1.736,1.42,-1.07,2.68,-0.83,-0.46,0.38,
1.736,1.42,-1.07,2.68,-0.86,-0.46,0.38,
1.736,1.59,-0.66,1.72,-0.86,-0.46,0.38,
1.748,1.59,-0.66,1.72,-0.89,-0.46,0.36,
1.749,1.59,-0.66,1.72,-0.93,-0.47,0.35,
1.75,1.59,-0.66,1.72,-1.03,-0.47,0.32,
1.75,1.59,-0.66,1.72,-1.05,-0.47,0.31,
1.75,1.59,-0.66,1.72,-1.08,-0.48,0.30,
1.75,1.90,-0.28,0.78,-1.08,-0.48,0.30,
1.751,1.90,-0.28,0.78,-1.14,-0.49,0.27,
1.751,1.90,-0.28,0.78,-1.21,-0.50,0.25,
1.751,1.90,-0.28,0.78,-1.32,-0.52,0.21,
1.752,1.90,-0.28,0.78,-1.36,-0.54,0.20,
1.752,1.90,-0.28,0.78,-1.44,-0.55,0.18,
1.752,1.95,0.04,0.23,-1.44,-0.55,0.18,
1.753,1.95,0.04,0.23,-1.52,-0.57,0.16,
1.753,1.95,0.04,0.23,-1.60,-0.60,0.13,
1.754,1.95,0.04,0.23,-1.72,-0.63,0.10,
1.755,1.95,0.04,0.23,-1.76,-0.64,0.08,
1.755,1.95,0.04,0.23,-1.84,-0.66,0.06,
1.761,2.05,0.25,0.47,-1.84,-0.66,0.06,
1.761,2.05,0.25,0.47,-1.91,-0.67,0.04,
1.762,2.05,0.25,0.47,-1.98,-0.69,0.02,
1.778,2.05,0.25,0.47,-2.08,-0.71,-0.02,
1.778,2.05,0.25,0.47,-2.11,-0.71,-0.03,
1.778,2.05,0.25,0.47,-2.17,-0.71,-0.06,
1.779,2.15,0.32,1.52,-2.17,-0.71,-0.06,
1.779,2.15,0.32,1.52,-2.23,-0.71,-0.09,
1.779,2.15,0.32,1.52,-2.28,-0.70,-0.12,
1.779,2.15,0.32,1.52,-2.33,-0.68,-0.16,
1.779,2.15,0.32,1.52,-2.35,-0.67,-0.17,
1.78,2.15,0.32,1.52,-2.38,-0.65,-0.20,
1.78,2.26,0.23,3.08,-2.38,-0.65,-0.20,
1.78,2.26,0.23,3.08,-2.40,-0.63,-0.23,
1.78,2.26,0.23,3.08,-2.41,-0.60,-0.25,
1.783,2.26,0.23,3.08,-2.42,-0.55,-0.29,
1.784,2.26,0.23,3.08,-2.42,-0.53,-0.29,
1.787,2.26,0.23,3.08,-2.41,-0.49,-0.31,
1.788,1.96,0.07,4.78,-2.41,-0.49,-0.31,
1.788,1.96,0.07,4.78,-2.40,-0.44,-0.32,
1.789,1.96,0.07,4.78,-2.38,-0.40,-0.33,
1.791,1.96,0.07,4.78,-2.33,-0.32,-0.34,
1.792,1.96,0.07,4.78,-2.31,-0.29,-0.34,
1.795,1.96,0.07,4.78,-2.27,-0.23,-0.34,
1.797,1.37,-0.23,6.31,-2.27,-0.23,-0.34,
1.797,1.37,-0.23,6.31,-2.22,-0.16,-0.33,
1.799,1.37,-0.23,6.31,-2.17,-0.10,-0.32,
1.802,1.37,-0.23,6.31,-2.08,0.01,-0.30,
1.803,1.37,-0.23,6.31,-2.05,0.05,-0.29,
1.804,1.37,-0.23,6.31,-1.98,0.12,-0.27,
1.807,0.65,-0.45,7.40,-1.98,0.12,-0.27,
1.807,0.65,-0.45,7.40,-1.91,0.19,-0.25,
1.809,0.65,-0.45,7.40,-1.84,0.25,-0.22,
1.812,0.65,-0.45,7.40,-1.72,0.35,-0.17,
1.813,0.65,-0.45,7.40,-1.68,0.38,-0.15,
1.816,0.65,-0.45,7.40,-1.60,0.44,-0.11,
1.818,-0.15,-0.60,7.86,-1.60,0.44,-0.11,
1.818,-0.15,-0.60,7.86,-1.52,0.49,-0.07,
1.819,-0.15,-0.60,7.86,-1.44,0.54,-0.03,
1.821,-0.15,-0.60,7.86,-1.32,0.60,0.04,
1.822,-0.15,-0.60,7.86,-1.28,0.61,0.06,
1.824,-0.15,-0.60,7.86,-1.20,0.64,0.11,
1.827,-0.74,-0.59,7.62,-1.20,0.64,0.11,
1.828,-0.74,-0.59,7.62,-1.12,0.67,0.15,
1.829,-0.74,-0.59,7.62,-1.04,0.68,0.19,
1.832,-0.74,-0.59,7.62,-0.93,0.71,0.26,
1.833,-0.74,-0.59,7.62,-0.85,0.71,0.30,
1.835,-0.74,-0.59,7.62,-0.81,0.71,0.32,
1.837,-0.86,-0.48,6.99,-0.81,0.71,0.32,
1.837,-0.86,-0.48,6.99,-0.73,0.71,0.36,
1.838,-0.86,-0.48,6.99,-0.66,0.70,0.40,
1.842,-0.86,-0.48,6.99,-0.54,0.68,0.46,
1.843,-0.86,-0.48,6.99,-0.50,0.67,0.47,
1.845,-0.86,-0.48,6.99,-0.43,0.65,0.51,
1.847,-0.66,-0.33,6.28,-0.43,0.65,0.51,
1.848,-0.66,-0.33,6.28,-0.35,0.62,0.54,
1.85,-0.66,-0.33,6.28,-0.27,0.59,0.57,
1.852,-0.66,-0.33,6.28,-0.15,0.53,0.61,
1.853,-0.66,-0.33,6.28,-0.11,0.51,0.63,
1.854,-0.66,-0.33,6.28,-0.02,0.47,0.65,
1.857,-0.26,-0.17,5.75,-0.02,0.47,0.65,
1.857,-0.26,-0.17,5.75,0.06,0.42,0.67,
1.859,-0.26,-0.17,5.75,0.14,0.37,0.69,
1.862,-0.26,-0.17,5.75,0.28,0.31,0.72,
1.874,-0.26,-0.17,5.75,0.32,0.28,0.73,
1.875,-0.26,-0.17,5.75,0.41,0.24,0.74,
1.875,0.34,-0.06,5.30,0.41,0.24,0.74,
1.875,0.34,-0.06,5.30,0.50,0.19,0.75,
1.903,0.34,-0.06,5.30,0.58,0.15,0.76,
1.903,0.34,-0.06,5.30,0.72,0.09,0.77,
1.903,0.34,-0.06,5.30,0.76,0.07,0.77,
1.904,0.34,-0.06,5.30,0.84,0.03,0.77,
1.904,1.01,-0.00,4.66,0.84,0.03,0.77,
1.905,1.01,-0.00,4.66,0.93,-0.00,0.77,
1.905,1.01,-0.00,4.66,1.00,-0.04,0.77,
1.906,1.01,-0.00,4.66,1.12,-0.09,0.77,
1.906,1.01,-0.00,4.66,1.22,-0.15,0.76,
1.906,1.01,-0.00,4.66,1.25,-0.17,0.76,
1.907,1.54,-0.03,3.54,1.25,-0.17,0.76,
1.907,1.54,-0.03,3.54,1.28,-0.18,0.76,
1.908,1.54,-0.03,3.54,1.34,-0.22,0.75,
1.908,1.54,-0.03,3.54,1.42,-0.27,0.74,
1.908,1.54,-0.03,3.54,1.45,-0.29,0.74,
1.909,1.54,-0.03,3.54,1.49,-0.32,0.73,
1.909,1.86,-0.08,2.39,1.49,-0.32,0.73,
1.91,1.86,-0.08,2.39,1.53,-0.35,0.73,
1.91,1.86,-0.08,2.39,1.57,-0.38,0.72,
1.91,1.86,-0.08,2.39,1.61,-0.42,0.70,
1.911,1.86,-0.08,2.39,1.62,-0.43,0.69,
1.911,1.86,-0.08,2.39,1.64,-0.45,0.68,
1.911,2.09,-0.08,1.12,1.64,-0.45,0.68,
1.911,2.09,-0.08,1.12,1.65,-0.47,0.67,
1.912,2.09,-0.08,1.12,1.67,-0.50,0.65,
1.917,2.09,-0.08,1.12,1.68,-0.53,0.63,
1.917,2.09,-0.08,1.12,1.68,-0.55,0.61,
1.918,2.09,-0.08,1.12,1.67,-0.56,0.60,
1.918,2.39,-0.04,-0.04,1.67,-0.56,0.60,
1.918,2.39,-0.04,-0.04,1.66,-0.58,0.58,
1.923,2.39,-0.04,-0.04,1.65,-0.60,0.56,
1.924,2.39,-0.04,-0.04,1.63,-0.62,0.53,
1.924,2.39,-0.04,-0.04,1.62,-0.63,0.51,
1.925,2.39,-0.04,-0.04,1.60,-0.65,0.49,
1.929,2.60,-0.02,-0.88,1.60,-0.65,0.49,
1.929,2.60,-0.02,-0.88,1.57,-0.66,0.46,
1.937,2.60,-0.02,-0.88,1.54,-0.67,0.43,
1.938,2.60,-0.02,-0.88,1.50,-0.68,0.38,
1.938,2.60,-0.02,-0.88,1.48,-0.68,0.37,
1.938,2.60,-0.02,-0.88,1.44,-0.69,0.33,
1.938,2.95,-0.01,-1.42,1.44,-0.69,0.33,
1.939,2.95,-0.01,-1.42,1.41,-0.70,0.29,
1.939,2.95,-0.01,-1.42,1.37,-0.70,0.25,
1.943,2.95,-0.01,-1.42,1.31,-0.69,0.19,
1.943,2.95,-0.01,-1.42,1.27,-0.69,0.15,
1.947,2.95,-0.01,-1.42,1.25,-0.69,0.13,
1.947,3.12,-0.04,-1.59,1.25,-0.69,0.13,
1.947,3.12,-0.04,-1.59,1.22,-0.68,0.08,
1.955,3.12,-0.04,-1.59,1.18,-0.67,0.04,
1.955,3.12,-0.04,-1.59,1.12,-0.65,-0.03,
1.955,3.12,-0.04,-1.59,1.11,-0.64,-0.05,
1.956,3.12,-0.04,-1.59,1.07,-0.62,-0.10,
1.957,3.32,-0.07,-1.50,1.07,-0.62,-0.10,
1.957,3.32,-0.07,-1.50,1.04,-0.60,-0.15,
1.964,3.32,-0.07,-1.50,1.01,-0.57,-0.20,
1.965,3.32,-0.07,-1.50,0.96,-0.53,-0.27,
1.965,3.32,-0.07,-1.50,0.95,-0.51,-0.29,
1.965,3.32,-0.07,-1.50,0.92,-0.47,-0.33,
1.969,3.12,-0.21,-1.26,0.92,-0.47,-0.33,
1.969,3.12,-0.21,-1.26,0.89,-0.43,-0.38,
1.97,3.12,-0.21,-1.26,0.86,-0.39,-0.42,
1.972,3.12,-0.21,-1.26,0.83,-0.33,-0.48,
1.973,3.12,-0.21,-1.26,0.81,-0.31,-0.50,
1.975,3.12,-0.21,-1.26,0.79,-0.27,-0.55,
1.977,2.93,-0.45,-1.12,0.79,-0.27,-0.55,
1.977,2.93,-0.45,-1.12,0.76,-0.22,-0.59,
1.985,2.93,-0.45,-1.12,0.74,-0.18,-0.62,
1.985,2.93,-0.45,-1.12,0.71,-0.11,-0.68,
1.986,2.93,-0.45,-1.12,0.70,-0.08,-0.70,
1.986,2.93,-0.45,-1.12,0.68,-0.03,-0.73,
1.991,2.44,-0.71,-1.10,0.68,-0.03,-0.73,
1.991,2.44,-0.71,-1.10,0.66,0.02,-0.76,
1.991,2.44,-0.71,-1.10,0.65,0.07,-0.79,
1.991,2.44,-0.71,-1.10,0.62,0.14,-0.83,
1.993,2.44,-0.71,-1.10,0.61,0.18,-0.85,
2.006,2.44,-0.71,-1.10,0.60,0.21,-0.87,
2.007,1.92,-1.02,-1.21,0.60,0.21,-0.87,
2.007,1.92,-1.02,-1.21,0.59,0.25,-0.89,
2.008,1.92,-1.02,-1.21,0.57,0.29,-0.91,
2.008,1.92,-1.02,-1.21,0.55,0.34,-0.94,
2.008,1.92,-1.02,-1.21,0.54,0.36,-0.95,
2.008,1.92,-1.02,-1.21,0.53,0.37,-0.95,
2.008,1.24,-1.26,-1.47,0.53,0.37,-0.95,
2.009,1.24,-1.26,-1.47,0.52,0.39,-0.97,
2.009,1.24,-1.26,-1.47,0.50,0.41,-0.98,
2.012,1.24,-1.26,-1.47,0.48,0.42,-0.99,
2.013,1.24,-1.26,-1.47,0.47,0.43,-0.99,
2.015,1.24,-1.26,-1.47,0.47,0.43,-1.00,
2.017,0.66,-1.43,-1.61,0.47,0.43,-1.00,
2.017,0.66,-1.43,-1.61,0.46,0.43,-1.00,
2.018,0.66,-1.43,-1.61,0.45,0.42,-1.00,
2.022,0.66,-1.43,-1.61,0.43,0.41,-1.01,
2.022,0.66,-1.43,-1.61,0.43,0.40,-1.01,
2.024,0.66,-1.43,-1.61,0.43,0.39,-1.01,
2.027,0.21,-1.53,-1.61,0.43,0.39,-1.01,
2.027,0.21,-1.53,-1.61,0.43,0.38,-1.01,
2.031,0.21,-1.53,-1.61,0.43,0.36,-1.01,
2.032,0.21,-1.53,-1.61,0.43,0.33,-1.01,
2.033,0.21,-1.53,-1.61,0.43,0.31,-1.01,
2.035,0.21,-1.53,-1.61,0.43,0.30,-1.02,
2.051,0.02,-1.65,-1.51,0.43,0.30,-1.02,
2.051,0.02,-1.65,-1.51,0.44,0.27,-1.02,
2.051,0.02,-1.65,-1.51,0.45,0.25,-1.02,
2.051,0.02,-1.65,-1.51,0.46,0.21,-1.02,
2.051,0.02,-1.65,-1.51,0.47,0.18,-1.02,
2.051,0.02,-1.65,-1.51,0.48,0.17,-1.02,
2.051,-0.14,-1.63,-1.41,0.48,0.17,-1.02,
2.052,-0.14,-1.63,-1.41,0.49,0.15,-1.02,
2.052,-0.14,-1.63,-1.41,0.49,0.12,-1.02,
2.052,-0.14,-1.63,-1.41,0.51,0.08,-1.03,
2.055,-0.14,-1.63,-1.41,0.52,0.05,-1.03,
2.055,-0.14,-1.63,-1.41,0.52,0.04,-1.04,
2.057,-0.21,-1.62,-1.40,0.52,0.04,-1.04,
2.057,-0.21,-1.62,-1.40,0.53,0.02,-1.04,
2.059,-0.21,-1.62,-1.40,0.54,-0.01,-1.04,
2.062,-0.21,-1.62,-1.40,0.55,-0.04,-1.05,
2.063,-0.21,-1.62,-1.40,0.56,-0.06,-1.06,
2.065,-0.21,-1.62,-1.40,0.56,-0.07,-1.06,
2.067,-0.31,-1.62,-1.58,0.56,-0.07,-1.06,
2.067,-0.31,-1.62,-1.58,0.57,-0.09,-1.06,
2.069,-0.31,-1.62,-1.58,0.57,-0.10,-1.06,
2.072,-0.31,-1.62,-1.58,0.57,-0.11,-1.06,
2.073,-0.31,-1.62,-1.58,0.57,-0.12,-1.06,
2.074,-0.31,-1.62,-1.58,0.57,-0.13,-1.06,
2.077,-0.50,-1.69,-1.85,0.57,-0.13,-1.06,
2.077,-0.50,-1.69,-1.85,0.57,-0.13,-1.05,
2.078,-0.50,-1.69,-1.85,0.56,-0.14,-1.05,
2.082,-0.50,-1.69,-1.85,0.55,-0.14,-1.04,
2.083,-0.50,-1.69,-1.85,0.54,-0.14,-1.03,
2.085,-0.50,-1.69,-1.85,0.54,-0.14,-1.02,
2.086,-0.74,-1.68,-2.16,0.54,-0.14,-1.02,
2.087,-0.74,-1.68,-2.16,0.53,-0.14,-1.01,
2.089,-0.74,-1.68,-2.16,0.52,-0.14,-1.00,
2.095,-0.74,-1.68,-2.16,0.50,-0.14,-0.99,
2.095,-0.74,-1.68,-2.16,0.49,-0.14,-0.98,
2.096,-0.74,-1.68,-2.16,0.48,-0.14,-0.97,
2.097,-0.98,-1.61,-2.38,0.48,-0.14,-0.97,
2.097,-0.98,-1.61,-2.38,0.47,-0.15,-0.96,
2.099,-0.98,-1.61,-2.38,0.45,-0.15,-0.95,
2.102,-0.98,-1.61,-2.38,0.43,-0.15,-0.93,
2.103,-0.98,-1.61,-2.38,0.41,-0.16,-0.92,
2.105,-0.98,-1.61,-2.38,0.40,-0.16,-0.91,
2.107,-1.00,-1.37,-2.46,0.40,-0.16,-0.91,
2.108,-1.00,-1.37,-2.46,0.39,-0.16,-0.90,
2.109,-1.00,-1.37,-2.46,0.38,-0.16,-0.89,
2.113,-1.00,-1.37,-2.46,0.35,-0.16,-0.88,
2.114,-1.00,-1.37,-2.46,0.34,-0.16,-0.87,
2.115,-1.00,-1.37,-2.46,0.33,-0.16,-0.87,
2.119,-1.04,-1.16,-2.41,0.33,-0.16,-0.87,
2.119,-1.04,-1.16,-2.41,0.32,-0.16,-0.86,
2.119,-1.04,-1.16,-2.41,0.31,-0.16,-0.85,
2.122,-1.04,-1.16,-2.41,0.30,-0.15,-0.84,
2.124,-1.04,-1.16,-2.41,0.28,-0.15,-0.84,
2.125,-1.04,-1.16,-2.41,0.27,-0.14,-0.84,
2.127,-1.00,-0.96,-2.33,0.27,-0.14,-0.84,
2.127,-1.00,-0.96,-2.33,0.26,-0.14,-0.83,
2.131,-1.00,-0.96,-2.33,0.26,-0.13,-0.83,
2.132,-1.00,-0.96,-2.33,0.23,-0.13,-0.82,
2.133,-1.00,-0.96,-2.33,0.22,-0.12,-0.82,
2.135,-1.00,-0.96,-2.33,0.22,-0.11,-0.81,
2.137,-1.12,-0.73,-2.30,0.22,-0.11,-0.81,
2.137,-1.12,-0.73,-2.30,0.21,-0.11,-0.81,
2.142,-1.12,-0.73,-2.30,0.20,-0.10,-0.80,
2.143,-1.12,-0.73,-2.30,0.17,-0.09,-0.79,
2.143,-1.12,-0.73,-2.30,0.15,-0.09,-0.78,
2.167,-1.12,-0.73,-2.30,0.16,-0.08,-0.78,
2.167,-1.30,-0.44,-2.34,0.16,-0.08,-0.78,
2.167,-1.30,-0.44,-2.34,0.14,-0.06,-0.77,
2.167,-1.30,-0.44,-2.34,0.12,-0.05,-0.76,
2.168,-1.30,-0.44,-2.34,0.09,-0.03,-0.75,
2.168,-1.30,-0.44,-2.34,0.06,-0.02,-0.75,
2.168,-1.30,-0.44,-2.34,0.06,-0.01,-0.75,
2.168,-1.47,-0.21,-2.36,0.06,-0.01,-0.75,
2.168,-1.47,-0.21,-2.36,0.04,0.01,-0.74,
2.168,-1.47,-0.21,-2.36,0.02,0.02,-0.73,
2.169,-1.47,-0.21,-2.36,-0.01,0.04,-0.72,
2.169,-1.47,-0.21,-2.36,-0.03,0.06,-0.72,
2.169,-1.47,-0.21,-2.36,-0.05,0.06,-0.72,
2.169,-1.55,-0.00,-2.35,-0.05,0.06,-0.72,
2.169,-1.55,-0.00,-2.35,-0.07,0.06,-0.71,
2.169,-1.55,-0.00,-2.35,-0.09,0.07,-0.70,
2.178,-1.55,-0.00,-2.35,-0.11,0.07,-0.68,
2.178,-1.55,-0.00,-2.35,-0.12,0.07,-0.68,
2.179,-1.55,-0.00,-2.35,-0.14,0.07,-0.67,
2.179,-1.82,0.24,-2.18,-0.14,0.07,-0.67,
2.198,-1.82,0.24,-2.18,-0.17,0.07,-0.67,
2.198,-1.82,0.24,-2.18,-0.19,0.07,-0.66,
2.198,-1.82,0.24,-2.18,-0.22,0.07,-0.64,
2.198,-1.82,0.24,-2.18,-0.21,0.07,-0.63,
2.199,-1.82,0.24,-2.18,-0.23,0.07,-0.62,
2.199,-1.95,0.46,-1.92,-0.23,0.07,-0.62,
2.199,-1.95,0.46,-1.92,-0.28,0.07,-0.62,
2.199,-1.95,0.46,-1.92,-0.30,0.07,-0.61,
2.199,-1.95,0.46,-1.92,-0.33,0.08,-0.59,
2.199,-1.95,0.46,-1.92,-0.34,0.08,-0.58,
2.199,-1.95,0.46,-1.92,-0.35,0.07,-0.57,
2.2,-2.12,0.66,-1.60,-0.35,0.07,-0.57,
2.2,-2.12,0.66,-1.60,-0.38,0.07,-0.56,
2.2,-2.12,0.66,-1.60,-0.40,0.06,-0.55,
2.214,-2.12,0.66,-1.60,-0.44,0.06,-0.54,
2.243,-2.12,0.66,-1.60,-0.46,0.05,-0.53,
2.244,-2.12,0.66,-1.60,-0.48,0.04,-0.52,
2.244,-2.20,0.79,-1.14,-0.48,0.04,-0.52,
2.245,-2.20,0.79,-1.14,-0.50,0.03,-0.50,
2.245,-2.20,0.79,-1.14,-0.52,0.03,-0.50,
2.246,-2.20,0.79,-1.14,-0.55,0.01,-0.48,
2.246,-2.20,0.79,-1.14,-0.57,-0.00,-0.47,
2.246,-2.20,0.79,-1.14,-0.58,-0.01,-0.46,
2.247,-2.26,0.98,-0.62,-0.58,-0.01,-0.46,
2.247,-2.26,0.98,-0.62,-0.61,-0.02,-0.45,
2.248,-2.26,0.98,-0.62,-0.65,-0.03,-0.43,
2.248,-2.26,0.98,-0.62,-0.68,-0.04,-0.42,
2.248,-2.26,0.98,-0.62,-0.70,-0.05,-0.41,
2.249,-2.26,0.98,-0.62,-0.73,-0.06,-0.40,
2.249,-2.14,1.15,0.15,-0.73,-0.06,-0.40,
2.25,-2.14,1.15,0.15,-0.75,-0.07,-0.39,
2.25,-2.14,1.15,0.15,-0.77,-0.07,-0.38,
2.25,-2.14,1.15,0.15,-0.79,-0.07,-0.37,
2.251,-2.14,1.15,0.15,-0.82,-0.07,-0.36,
2.251,-2.14,1.15,0.15,-0.82,-0.07,-0.36,
2.252,-2.07,1.33,1.19,-0.82,-0.07,-0.36,
2.252,-2.07,1.33,1.19,-0.84,-0.06,-0.35,
2.253,-2.07,1.33,1.19,-0.86,-0.06,-0.34,
2.253,-2.07,1.33,1.19,-0.87,-0.05,-0.33,
2.253,-2.07,1.33,1.19,-0.89,-0.04,-0.33,
2.254,-2.07,1.33,1.19,-0.89,-0.03,-0.32,
2.254,-1.97,1.34,2.23,-0.89,-0.03,-0.32,
2.255,-1.97,1.34,2.23,-0.89,-0.01,-0.31,
2.255,-1.97,1.34,2.23,-0.90,0.01,-0.30,
2.255,-1.97,1.34,2.23,-0.91,0.04,-0.28,
2.256,-1.97,1.34,2.23,-0.92,0.06,-0.28,
2.256,-1.97,1.34,2.23,-0.91,0.10,-0.26,
2.257,-2.07,1.35,3.25,-0.91,0.10,-0.26,
2.257,-2.07,1.35,3.25,-0.89,0.13,-0.24,
2.266,-2.07,1.35,3.25,-0.89,0.17,-0.23,
2.267,-2.07,1.35,3.25,-0.88,0.21,-0.21,
2.267,-2.07,1.35,3.25,-0.87,0.25,-0.19,
2.267,-2.07,1.35,3.25,-0.86,0.29,-0.17,
2.282,-2.17,1.35,4.10,-0.86,0.29,-0.17,
2.282,-2.17,1.35,4.10,-0.83,0.34,-0.14,
2.282,-2.17,1.35,4.10,-0.81,0.39,-0.11,
2.282,-2.17,1.35,4.10,-0.79,0.43,-0.09,
2.283,-2.17,1.35,4.10,-0.78,0.47,-0.06,
2.283,-2.17,1.35,4.10,-0.76,0.52,-0.03,
2.283,-2.31,1.33,4.54,-0.76,0.52,-0.03,
2.283,-2.31,1.33,4.54,-0.73,0.56,-0.00,
2.284,-2.31,1.33,4.54,-0.71,0.59,0.02,
2.284,-2.31,1.33,4.54,-0.69,0.62,0.05,
2.284,-2.31,1.33,4.54,-0.68,0.65,0.07,
2.284,-2.31,1.33,4.54,-0.66,0.67,0.09,
2.287,-2.12,1.39,4.47,-0.66,0.67,0.09,
2.287,-2.12,1.39,4.47,-0.65,0.69,0.11,
2.288,-2.12,1.39,4.47,-0.64,0.70,0.13,
2.291,-2.12,1.39,4.47,-0.63,0.71,0.15,
2.292,-2.12,1.39,4.47,-0.63,0.71,0.15,
2.301,-2.12,1.39,4.47,-0.63,0.71,0.17,
2.301,-1.79,1.56,4.09,-0.63,0.71,0.17,
2.302,-1.79,1.56,4.09,-0.62,0.70,0.17,
2.302,-1.79,1.56,4.09,-0.61,0.68,0.18,
2.302,-1.79,1.56,4.09,-0.61,0.67,0.18,
2.302,-1.79,1.56,4.09,-0.61,0.64,0.18,
2.304,-1.79,1.56,4.09,-0.61,0.61,0.18,
2.309,-1.35,1.73,3.74,-0.61,0.61,0.18,
2.309,-1.35,1.73,3.74,-0.61,0.57,0.17,
2.309,-1.35,1.73,3.74,-0.62,0.53,0.17,
2.339,-1.35,1.73,3.74,-0.62,0.46,0.15,
2.339,-1.35,1.73,3.74,-0.62,0.44,0.15,
2.339,-1.35,1.73,3.74,-0.62,0.39,0.14,
2.339,-1.08,1.73,3.65,-0.62,0.39,0.14,
2.34,-1.08,1.73,3.65,-0.62,0.34,0.13,
2.34,-1.08,1.73,3.65,-0.63,0.29,0.11,
2.34,-1.08,1.73,3.65,-0.62,0.24,0.10,
2.34,-1.08,1.73,3.65,-0.61,0.20,0.09,
2.34,-1.08,1.73,3.65,-0.60,0.16,0.08,
2.34,-0.85,1.51,3.97,-0.60,0.16,0.08,
2.341,-0.85,1.51,3.97,-0.59,0.12,0.07,
2.341,-0.85,1.51,3.97,-0.57,0.08,0.06,
2.341,-0.85,1.51,3.97,-0.55,0.05,0.06,
2.341,-0.85,1.51,3.97,-0.52,0.03,0.06,
2.341,-0.85,1.51,3.97,-0.49,0.01,0.06,
2.342,-0.86,1.10,4.57,-0.49,0.01,0.06,
2.342,-0.86,1.10,4.57,-0.46,-0.01,0.06,
2.342,-0.86,1.10,4.57,-0.42,-0.01,0.06,
2.342,-0.86,1.10,4.57,-0.38,-0.01,0.07,
2.356,-0.86,1.10,4.57,-0.33,-0.01,0.07,
2.356,-0.86,1.10,4.57,-0.28,0.00,0.08,
2.357,-0.99,0.73,5.06,-0.28,0.00,0.08,
2.357,-0.99,0.73,5.06,-0.23,0.02,0.09,
2.357,-0.99,0.73,5.06,-0.18,0.04,0.11,
2.357,-0.99,0.73,5.06,-0.13,0.07,0.12,
2.357,-0.99,0.73,5.06,-0.08,0.09,0.13,
2.358,-0.99,0.73,5.06,-0.02,0.13,0.14,
2.358,-1.05,0.30,5.09,-0.02,0.13,0.14,
2.358,-1.05,0.30,5.09,0.03,0.16,0.16,
2.358,-1.05,0.30,5.09,0.09,0.20,0.17,
2.371,-1.05,0.30,5.09,0.14,0.23,0.18,
2.371,-1.05,0.30,5.09,0.19,0.27,0.20,
2.372,-1.05,0.30,5.09,0.24,0.30,0.21,
2.372,-1.04,-0.02,4.51,0.24,0.30,0.21,
2.372,-1.04,-0.02,4.51,0.28,0.33,0.23,
2.393,-1.04,-0.02,4.51,0.33,0.35,0.24,
2.393,-1.04,-0.02,4.51,0.37,0.38,0.26,
2.394,-1.04,-0.02,4.51,0.40,0.40,0.27,
2.394,-1.04,-0.02,4.51,0.43,0.42,0.29,
2.394,-1.10,-0.25,3.54,0.43,0.42,0.29,
2.394,-1.10,-0.25,3.54,0.46,0.44,0.31,
2.395,-1.10,-0.25,3.54,0.49,0.46,0.32,
2.395,-1.10,-0.25,3.54,0.52,0.47,0.34,
2.395,-1.10,-0.25,3.54,0.53,0.48,0.35,
2.395,-1.10,-0.25,3.54,0.55,0.48,0.36,
2.395,-1.05,-0.28,2.45,0.55,0.48,0.36,
2.395,-1.05,-0.28,2.45,0.57,0.49,0.37,
2.396,-1.05,-0.28,2.45,0.58,0.49,0.38,
2.396,-1.05,-0.28,2.45,0.58,0.48,0.39,
2.396,-1.05,-0.28,2.45,0.59,0.48,0.40,
2.396,-1.05,-0.28,2.45,0.59,0.47,0.41,
2.405,-0.89,-0.36,1.48,0.59,0.47,0.41,
2.406,-0.89,-0.36,1.48,0.60,0.46,0.42,
2.406,-0.89,-0.36,1.48,0.60,0.45,0.42,
2.406,-0.89,-0.36,1.48,0.60,0.44,0.43,
2.406,-0.89,-0.36,1.48,0.59,0.42,0.43,
2.406,-0.89,-0.36,1.48,0.59,0.41,0.43,
2.407,-0.65,-0.34,0.74,0.59,0.41,0.43,
2.407,-0.65,-0.34,0.74,0.58,0.40,0.43,
2.411,-0.65,-0.34,0.74,0.57,0.39,0.43,
2.423,-0.65,-0.34,0.74,0.56,0.36,0.42,
2.424,-0.65,-0.34,0.74,0.56,0.36,0.42,
2.424,-0.65,-0.34,0.74,0.55,0.35,0.41,
2.424,-0.36,-0.34,0.22,0.55,0.35,0.41,
2.424,-0.36,-0.34,0.22,0.54,0.34,0.41,
2.424,-0.36,-0.34,0.22,0.53,0.34,0.40,
2.425,-0.36,-0.34,0.22,0.52,0.32,0.39,
2.425,-0.36,-0.34,0.22,0.51,0.32,0.38,
2.425,-0.36,-0.34,0.22,0.50,0.30,0.37,
2.46,-0.12,-0.46,-0.18,0.50,0.30,0.37,
2.461,-0.12,-0.46,-0.18,0.49,0.30,0.36,
2.461,-0.12,-0.46,-0.18,0.48,0.29,0.35,
2.461,-0.12,-0.46,-0.18,0.47,0.27,0.34,
2.461,-0.12,-0.46,-0.18,0.46,0.26,0.33,
2.462,-0.12,-0.46,-0.18,0.45,0.26,0.32,
2.462,-0.06,-0.61,-0.41,0.45,0.26,0.32,
2.462,-0.06,-0.61,-0.41,0.45,0.25,0.31,
2.462,-0.06,-0.61,-0.41,0.44,0.25,0.31,
2.462,-0.06,-0.61,-0.41,0.43,0.24,0.29,
2.463,-0.06,-0.61,-0.41,0.43,0.24,0.29,
2.463,-0.06,-0.61,-0.41,0.43,0.24,0.29,
2.463,-0.07,-0.83,-0.53,0.43,0.24,0.29,
2.463,-0.07,-0.83,-0.53,0.42,0.24,0.28,
2.463,-0.07,-0.83,-0.53,0.42,0.24,0.28,
2.463,-0.07,-0.83,-0.53,0.42,0.24,0.28,
2.464,-0.07,-0.83,-0.53,0.43,0.25,0.28,
2.464,-0.07,-0.83,-0.53,0.42,0.25,0.28,
2.464,-0.16,-1.15,-0.49,0.42,0.25,0.28,
2.464,-0.16,-1.15,-0.49,0.43,0.26,0.28,
2.464,-0.16,-1.15,-0.49,0.44,0.27,0.28,
2.465,-0.16,-1.15,-0.49,0.44,0.30,0.29,
2.465,-0.16,-1.15,-0.49,0.44,0.31,0.29,
2.465,-0.16,-1.15,-0.49,0.47,0.32,0.30,
2.469,-0.19,-1.36,-0.40,0.47,0.32,0.30,
2.469,-0.19,-1.36,-0.40,0.50,0.34,0.30,
2.469,-0.19,-1.36,-0.40,0.52,0.36,0.31,
2.473,-0.19,-1.36,-0.40,0.55,0.39,0.32,
2.473,-0.19,-1.36,-0.40,0.57,0.40,0.32,
2.476,-0.19,-1.36,-0.40,0.58,0.42,0.33,
2.479,-0.13,-1.56,-0.49,0.58,0.42,0.33,
2.479,-0.13,-1.56,-0.49,0.60,0.45,0.33,
2.48,-0.13,-1.56,-0.49,0.62,0.47,0.34,
2.482,-0.13,-1.56,-0.49,0.65,0.49,0.35,
2.482,-0.13,-1.56,-0.49,0.66,0.50,0.35,
2.484,-0.13,-1.56,-0.49,0.68,0.53,0.36,
2.487,-0.03,-1.65,-0.84,0.68,0.53,0.36,
2.487,-0.03,-1.65,-0.84,0.71,0.55,0.36,
2.489,-0.03,-1.65,-0.84,0.73,0.57,0.37,
2.492,-0.03,-1.65,-0.84,0.75,0.59,0.38,
2.493,-0.03,-1.65,-0.84,0.76,0.60,0.38,
2.497,-0.03,-1.65,-0.84,0.78,0.61,0.38,
2.498,0.05,-1.79,-1.41,0.78,0.61,0.38,
2.498,0.05,-1.79,-1.41,0.80,0.63,0.38,
2.499,0.05,-1.79,-1.41,0.81,0.64,0.39,
2.502,0.05,-1.79,-1.41,0.83,0.66,0.39,
2.503,0.05,-1.79,-1.41,0.83,0.67,0.39,
2.506,0.05,-1.79,-1.41,0.85,0.67,0.40,
2.508,0.14,-1.81,-2.21,0.85,0.67,0.40,
2.508,0.14,-1.81,-2.21,0.85,0.68,0.40,
2.509,0.14,-1.81,-2.21,0.86,0.68,0.40,
2.513,0.14,-1.81,-2.21,0.87,0.69,0.41,
2.515,0.14,-1.81,-2.21,0.87,0.69,0.41,
2.516,0.14,-1.81,-2.21,0.88,0.69,0.41,
2.52,0.15,-1.83,-3.02,0.88,0.69,0.41,
2.521,0.15,-1.83,-3.02,0.88,0.69,0.41,
2.521,0.15,-1.83,-3.02,0.88,0.69,0.41,
2.523,0.15,-1.83,-3.02,0.88,0.69,0.42,
2.524,0.15,-1.83,-3.02,0.87,0.69,0.42,
2.525,0.15,-1.83,-3.02,0.87,0.69,0.42,
2.545,0.21,-1.77,-3.77,0.87,0.69,0.42,
2.546,0.21,-1.77,-3.77,0.87,0.68,0.42,
2.546,0.21,-1.77,-3.77,0.86,0.68,0.42,
2.546,0.21,-1.77,-3.77,0.85,0.66,0.42,
2.546,0.21,-1.77,-3.77,0.84,0.66,0.42,
2.546,0.21,-1.77,-3.77,0.83,0.65,0.42,
2.566,0.29,-1.74,-4.49,0.83,0.65,0.42,
2.567,0.29,-1.74,-4.49,0.82,0.63,0.42,
2.567,0.29,-1.74,-4.49,0.81,0.62,0.41,
2.568,0.29,-1.74,-4.49,0.79,0.59,0.41,
2.568,0.29,-1.74,-4.49,0.78,0.58,0.41,
2.568,0.29,-1.74,-4.49,0.76,0.56,0.40,
2.568,0.34,-1.62,-5.03,0.76,0.56,0.40,
2.569,0.34,-1.62,-5.03,0.75,0.53,0.40,
2.569,0.34,-1.62,-5.03,0.73,0.51,0.39,
2.569,0.34,-1.62,-5.03,0.70,0.47,0.38,
2.569,0.34,-1.62,-5.03,0.69,0.46,0.38,
2.57,0.34,-1.62,-5.03,0.67,0.44,0.37,
2.57,0.37,-1.57,-5.41,0.67,0.44,0.37,
2.57,0.37,-1.57,-5.41,0.64,0.41,0.37,
2.57,0.37,-1.57,-5.41,0.62,0.39,0.36,
2.571,0.37,-1.57,-5.41,0.59,0.36,0.35,
2.571,0.37,-1.57,-5.41,0.58,0.35,0.35,
2.571,0.37,-1.57,-5.41,0.55,0.33,0.34,
2.571,0.35,-1.56,-5.62,0.55,0.33,0.34,
2.571,0.35,-1.56,-5.62,0.53,0.31,0.33,
2.572,0.35,-1.56,-5.62,0.50,0.29,0.33,
2.572,0.35,-1.56,-5.62,0.46,0.26,0.31,
2.577,0.35,-1.56,-5.62,0.45,0.26,0.31,
2.577,0.35,-1.56,-5.62,0.42,0.24,0.31,
2.583,0.28,-1.50,-5.71,0.42,0.24,0.31,
2.584,0.28,-1.50,-5.71,0.40,0.22,0.30,
2.584,0.28,-1.50,-5.71,0.37,0.21,0.29,
2.585,0.28,-1.50,-5.71,0.33,0.18,0.28,
2.585,0.28,-1.50,-5.71,0.31,0.17,0.28,
2.585,0.28,-1.50,-5.71,0.29,0.17,0.27,
2.586,0.26,-1.46,-5.58,0.29,0.17,0.27,
2.587,0.26,-1.46,-5.58,0.27,0.16,0.26,
2.591,0.26,-1.46,-5.58,0.25,0.15,0.26,
2.591,0.26,-1.46,-5.58,0.22,0.14,0.25,
2.595,0.26,-1.46,-5.58,0.21,0.14,0.25,
2.596,0.26,-1.46,-5.58,0.19,0.14,0.24,
2.597,0.31,-1.38,-5.28,0.19,0.14,0.24,
2.597,0.31,-1.38,-5.28,0.17,0.13,0.23,
2.601,0.31,-1.38,-5.28,0.14,0.13,0.23,
2.604,0.31,-1.38,-5.28,0.11,0.12,0.22,
2.604,0.31,-1.38,-5.28,0.10,0.11,0.22,
2.605,0.31,-1.38,-5.28,0.08,0.11,0.22,
2.609,0.29,-1.31,-5.01,0.08,0.11,0.22,
2.609,0.29,-1.31,-5.01,0.06,0.10,0.21,
2.609,0.29,-1.31,-5.01,0.04,0.09,0.21,
2.614,0.29,-1.31,-5.01,0.01,0.08,0.20,
2.616,0.29,-1.31,-5.01,-0.00,0.07,0.20,
2.616,0.29,-1.31,-5.01,-0.02,0.06,0.19,
2.617,0.24,-1.17,-4.62,-0.02,0.06,0.19,
2.617,0.24,-1.17,-4.62,-0.04,0.06,0.19,
2.619,0.24,-1.17,-4.62,-0.06,0.05,0.18,
2.621,0.24,-1.17,-4.62,-0.09,0.05,0.17,
2.622,0.24,-1.17,-4.62,-0.10,0.04,0.17,
2.626,0.24,-1.17,-4.62,-0.11,0.04,0.16,
2.627,0.25,-1.13,-4.18,-0.11,0.04,0.16,
2.627,0.25,-1.13,-4.18,-0.13,0.04,0.16,
2.629,0.25,-1.13,-4.18,-0.15,0.03,0.15,
2.632,0.25,-1.13,-4.18,-0.17,0.03,0.14,
2.633,0.25,-1.13,-4.18,-0.18,0.02,0.13,
2.634,0.25,-1.13,-4.18,-0.20,0.02,0.13,
2.637,0.25,-1.13,-3.64,-0.20,0.02,0.13,
2.637,0.25,-1.13,-3.64,-0.21,0.01,0.12,
2.638,0.25,-1.13,-3.64,-0.22,0.01,0.12,
2.643,0.25,-1.13,-3.64,-0.24,0.01,0.11,
2.643,0.25,-1.13,-3.64,-0.24,0.01,0.10,
2.645,0.25,-1.13,-3.64,-0.25,0.01,0.10,
2.647,0.18,-1.08,-2.92,-0.25,0.01,0.10,
2.648,0.18,-1.08,-2.92,-0.25,0.01,0.09,
2.649,0.18,-1.08,-2.92,-0.26,0.02,0.09,
2.652,0.18,-1.08,-2.92,-0.27,0.03,0.09,
2.652,0.18,-1.08,-2.92,-0.27,0.03,0.09,
2.654,0.18,-1.08,-2.92,-0.27,0.04,0.09,
2.657,0.04,-1.08,-2.34,-0.27,0.04,0.09,
2.657,0.04,-1.08,-2.34,-0.28,0.04,0.09,
2.662,0.04,-1.08,-2.34,-0.28,0.04,0.09,
2.662,0.04,-1.08,-2.34,-0.30,0.05,0.10,
2.665,0.04,-1.08,-2.34,-0.30,0.05,0.11,
2.666,0.04,-1.08,-2.34,-0.31,0.05,0.11,
2.669,-0.16,-1.10,-1.97,-0.31,0.05,0.11,
2.669,-0.16,-1.10,-1.97,-0.32,0.04,0.12,
2.669,-0.16,-1.10,-1.97,-0.33,0.04,0.13,
2.673,-0.16,-1.10,-1.97,-0.35,0.03,0.14,
2.673,-0.16,-1.10,-1.97,-0.36,0.02,0.15,
2.676,-0.16,-1.10,-1.97,-0.37,0.02,0.16,
2.681,-0.33,-1.09,-1.66,-0.37,0.02,0.16,
2.681,-0.33,-1.09,-1.66,-0.39,0.01,0.16,
2.681,-0.33,-1.09,-1.66,-0.41,-0.01,0.18,
2.684,-0.33,-1.09,-1.66,-0.44,-0.03,0.19,
2.684,-0.33,-1.09,-1.66,-0.45,-0.04,0.20,
2.685,-0.33,-1.09,-1.66,-0.47,-0.06,0.21,
2.689,-0.42,-1.00,-1.38,-0.47,-0.06,0.21,
2.689,-0.42,-1.00,-1.38,-0.49,-0.08,0.22,
2.689,-0.42,-1.00,-1.38,-0.52,-0.11,0.23,
2.693,-0.42,-1.00,-1.38,-0.56,-0.15,0.25,
2.693,-0.42,-1.00,-1.38,-0.57,-0.16,0.26,
2.701,-0.42,-1.00,-1.38,-0.59,-0.18,0.27,
2.701,-0.37,-0.97,-0.93,-0.59,-0.18,0.27,
2.702,-0.37,-0.97,-0.93,-0.62,-0.21,0.28,
2.702,-0.37,-0.97,-0.93,-0.64,-0.23,0.29,
2.702,-0.37,-0.97,-0.93,-0.68,-0.26,0.30,
2.717,-0.37,-0.97,-0.93,-0.69,-0.27,0.31,
2.717,-0.37,-0.97,-0.93,-0.72,-0.29,0.31,
2.718,-0.26,-0.84,-0.32,-0.72,-0.29,0.31,
2.718,-0.26,-0.84,-0.32,-0.75,-0.30,0.32,
2.718,-0.26,-0.84,-0.32,-0.77,-0.32,0.33,
2.718,-0.26,-0.84,-0.32,-0.81,-0.33,0.34,
2.718,-0.26,-0.84,-0.32,-0.82,-0.34,0.35,
2.734,-0.26,-0.84,-0.32,-0.84,-0.35,0.35,
2.735,-0.19,-0.69,0.47,-0.84,-0.35,0.35,
2.735,-0.19,-0.69,0.47,-0.87,-0.35,0.36,
2.736,-0.19,-0.69,0.47,-0.89,-0.36,0.37,
2.736,-0.19,-0.69,0.47,-0.92,-0.35,0.37,
2.736,-0.19,-0.69,0.47,-0.93,-0.36,0.37,
2.736,-0.19,-0.69,0.47,-0.95,-0.35,0.38,
2.736,-0.07,-0.49,1.16,-0.95,-0.35,0.38,
2.736,-0.07,-0.49,1.16,-0.97,-0.35,0.38,
2.737,-0.07,-0.49,1.16,-1.00,-0.35,0.38,
2.737,-0.07,-0.49,1.16,-1.03,-0.34,0.38,
2.737,-0.07,-0.49,1.16,-1.04,-0.33,0.38,
2.737,-0.07,-0.49,1.16,-1.07,-0.33,0.38,
2.737,0.15,-0.31,1.78,-1.07,-0.33,0.38,
2.738,0.15,-0.31,1.78,-1.09,-0.32,0.38,
2.74,0.15,-0.31,1.78,-1.11,-0.30,0.38,
2.742,0.15,-0.31,1.78,-1.15,-0.28,0.37,
2.743,0.15,-0.31,1.78,-1.16,-0.28,0.37,
2.745,0.15,-0.31,1.78,-1.17,-0.26,0.37,
2.747,0.40,-0.15,2.39,-1.17,-0.26,0.37,
2.747,0.40,-0.15,2.39,-1.19,-0.24,0.36,
2.749,0.40,-0.15,2.39,-1.21,-0.23,0.36,
2.754,0.40,-0.15,2.39,-1.24,-0.20,0.34,
2.754,0.40,-0.15,2.39,-1.25,-0.19,0.34,
2.755,0.40,-0.15,2.39,-1.26,-0.17,0.33,
2.759,0.67,-0.05,3.04,-1.26,-0.17,0.33,
2.759,0.67,-0.05,3.04,-1.27,-0.16,0.32,
2.759,0.67,-0.05,3.04,-1.29,-0.14,0.31,
2.764,0.67,-0.05,3.04,-1.30,-0.11,0.30,
2.764,0.67,-0.05,3.04,-1.30,-0.10,0.29,
2.764,0.67,-0.05,3.04,-1.31,-0.08,0.28,
2.769,0.81,0.11,3.67,-1.31,-0.08,0.28,
2.769,0.81,0.11,3.67,-1.32,-0.07,0.27,
2.769,0.81,0.11,3.67,-1.32,-0.05,0.26,
2.772,0.81,0.11,3.67,-1.31,-0.02,0.24,
2.773,0.81,0.11,3.67,-1.31,-0.01,0.24,
2.778,0.81,0.11,3.67,-1.31,0.00,0.23,
2.779,0.84,0.26,4.18,-1.31,0.00,0.23,
2.779,0.84,0.26,4.18,-1.31,0.02,0.21,
2.779,0.84,0.26,4.18,-1.31,0.04,0.20,
2.782,0.84,0.26,4.18,-1.30,0.06,0.19,
2.782,0.84,0.26,4.18,-1.30,0.06,0.18,
2.785,0.84,0.26,4.18,-1.30,0.08,0.17,
2.787,0.78,0.27,4.48,-1.30,0.08,0.17,
2.787,0.78,0.27,4.48,-1.29,0.09,0.16,
2.788,0.78,0.27,4.48,-1.28,0.11,0.15,
2.792,0.78,0.27,4.48,-1.26,0.14,0.14,
2.793,0.78,0.27,4.48,-1.26,0.15,0.14,
2.795,0.78,0.27,4.48,-1.24,0.17,0.13,
2.797,0.57,0.15,4.68,-1.24,0.17,0.13,
2.797,0.57,0.15,4.68,-1.22,0.19,0.13,
2.804,0.57,0.15,4.68,-1.20,0.21,0.14,
2.804,0.57,0.15,4.68,-1.17,0.25,0.14,
2.804,0.57,0.15,4.68,-1.15,0.27,0.15,
2.805,0.57,0.15,4.68,-1.13,0.29,0.16,
2.807,0.13,0.21,4.64,-1.13,0.29,0.16,
2.807,0.13,0.21,4.64,-1.10,0.31,0.17,
2.809,0.13,0.21,4.64,-1.07,0.33,0.18,
2.812,0.13,0.21,4.64,-1.04,0.36,0.21,
2.813,0.13,0.21,4.64,-1.02,0.37,0.21,
2.815,0.13,0.21,4.64,-1.01,0.38,0.23,
2.817,-0.14,0.37,4.06,-1.01,0.38,0.23,
2.817,-0.14,0.37,4.06,-0.99,0.39,0.24,
2.819,-0.14,0.37,4.06,-0.98,0.40,0.25,
2.822,-0.14,0.37,4.06,-0.96,0.40,0.27,
2.823,-0.14,0.37,4.06,-0.96,0.40,0.27,
2.832,-0.14,0.37,4.06,-0.96,0.39,0.27,
2.834,-0.04,0.62,3.07,-0.96,0.39,0.27,
2.835,-0.04,0.62,3.07,-0.96,0.38,0.28,
2.836,-0.04,0.62,3.07,-0.97,0.37,0.28,
2.836,-0.04,0.62,3.07,-0.98,0.35,0.27,
2.837,-0.04,0.62,3.07,-0.98,0.34,0.27,
2.838,-0.04,0.62,3.07,-0.99,0.32,0.27,
2.838,0.25,0.96,2.21,-0.99,0.32,0.27,
2.839,0.25,0.96,2.21,-1.00,0.29,0.26,
2.839,0.25,0.96,2.21,-1.02,0.25,0.25,
2.845,0.25,0.96,2.21,-1.05,0.19,0.23,
2.845,0.25,0.96,2.21,-1.06,0.17,0.23,
2.845,0.25,0.96,2.21,-1.09,0.12,0.21,
2.852,0.53,1.28,1.65,-1.09,0.12,0.21,
2.853,0.53,1.28,1.65,-1.11,0.06,0.19,
2.853,0.53,1.28,1.65,-1.14,-0.01,0.17,
2.853,0.53,1.28,1.65,-1.18,-0.10,0.14,
2.854,0.53,1.28,1.65,-1.20,-0.14,0.13,
2.855,0.53,1.28,1.65,-1.23,-0.21,0.10,
2.881,0.89,1.61,1.55,-1.23,-0.21,0.10,
2.882,0.89,1.61,1.55,-1.26,-0.29,0.08,
2.882,0.89,1.61,1.55,-1.28,-0.36,0.05,
2.882,0.89,1.61,1.55,-1.32,-0.47,0.01,
2.882,0.89,1.61,1.55,-1.33,-0.50,-0.01,
2.883,0.89,1.61,1.55,-1.35,-0.56,-0.04,
2.883,1.18,1.75,2.31,-1.35,-0.56,-0.04,
2.883,1.18,1.75,2.31,-1.37,-0.61,-0.07,
2.912,1.18,1.75,2.31,-1.37,-0.66,-0.09,
2.912,1.18,1.75,2.31,-1.37,-0.71,-0.13,
2.913,1.18,1.75,2.31,-1.37,-0.73,-0.14,
2.913,1.18,1.75,2.31,-1.36,-0.75,-0.16,
2.914,1.33,1.68,3.69,-1.36,-0.75,-0.16,
2.914,1.33,1.68,3.69,-1.34,-0.76,-0.17,
2.914,1.33,1.68,3.69,-1.32,-0.76,-0.18,
2.915,1.33,1.68,3.69,-1.27,-0.75,-0.20,
2.915,1.33,1.68,3.69,-1.26,-0.74,-0.20,
2.916,1.33,1.68,3.69,-1.22,-0.72,-0.21,
2.916,1.21,1.47,5.21,-1.22,-0.72,-0.21,
2.917,1.21,1.47,5.21,-1.17,-0.68,-0.21,
2.917,1.21,1.47,5.21,-1.12,-0.63,-0.20,
2.918,1.21,1.47,5.21,-1.04,-0.54,-0.20,
2.918,1.21,1.47,5.21,-1.00,-0.51,-0.19,
2.918,1.21,1.47,5.21,-0.93,-0.44,-0.18,
2.919,0.97,1.20,6.35,-0.93,-0.44,-0.18,
2.919,0.97,1.20,6.35,-0.86,-0.37,-0.16,
2.92,0.97,1.20,6.35,-0.79,-0.29,-0.15,
2.92,0.97,1.20,6.35,-0.67,-0.17,-0.12,
2.92,0.97,1.20,6.35,-0.64,-0.12,-0.11,
2.921,0.97,1.20,6.35,-0.55,-0.04,-0.08,
2.921,0.70,0.92,6.71,-0.55,-0.04,-0.08,
2.922,0.70,0.92,6.71,-0.47,0.04,-0.06,
2.922,0.70,0.92,6.71,-0.39,0.12,-0.03,
2.922,0.70,0.92,6.71,-0.27,0.23,0.01,
2.923,0.70,0.92,6.71,-0.22,0.26,0.03,
2.923,0.70,0.92,6.71,-0.15,0.33,0.06,
2.923,0.52,0.82,6.18,-0.15,0.33,0.06,
2.923,0.52,0.82,6.18,-0.07,0.39,0.09,
2.924,0.52,0.82,6.18,0.00,0.45,0.12,
2.924,0.52,0.82,6.18,0.11,0.51,0.17,
2.924,0.52,0.82,6.18,0.15,0.53,0.18,
2.924,0.52,0.82,6.18,0.22,0.56,0.21,
2.931,0.54,0.82,4.86,0.22,0.56,0.21,
2.932,0.54,0.82,4.86,0.27,0.57,0.23,
2.932,0.54,0.82,4.86,0.33,0.59,0.25,
2.932,0.54,0.82,4.86,0.40,0.59,0.29,
2.936,0.54,0.82,4.86,0.46,0.58,0.31,
2.937,0.54,0.82,4.86,0.48,0.57,0.31,
2.937,0.82,0.94,3.19,0.48,0.57,0.31,
2.937,0.82,0.94,3.19,0.53,0.55,0.33,
2.939,0.82,0.94,3.19,0.57,0.53,0.35,
2.949,0.82,0.94,3.19,0.64,0.48,0.36,
2.949,0.82,0.94,3.19,0.66,0.46,0.37,
2.949,0.82,0.94,3.19,0.69,0.42,0.38,
2.95,1.17,0.98,2.00,0.69,0.42,0.38,
2.95,1.17,0.98,2.00,0.72,0.37,0.38,
2.95,1.17,0.98,2.00,0.75,0.31,0.38,
2.952,1.17,0.98,2.00,0.79,0.22,0.39,
2.953,1.17,0.98,2.00,0.80,0.19,0.39,
2.956,1.17,0.98,2.00,0.82,0.13,0.38,
2.965,1.61,1.05,0.93,0.82,0.13,0.38,
2.965,1.61,1.05,0.93,0.84,0.06,0.38,
2.965,1.61,1.05,0.93,0.86,0.00,0.37,
2.966,1.61,1.05,0.93,0.89,-0.10,0.36,
2.966,1.61,1.05,0.93,0.90,-0.13,0.35,
2.966,1.61,1.05,0.93,0.91,-0.19,0.34,
2.967,1.94,1.01,0.32,0.91,-0.19,0.34,
2.967,1.94,1.01,0.32,0.93,-0.26,0.33,
2.969,1.94,1.01,0.32,0.95,-0.32,0.32,
2.972,1.94,1.01,0.32,0.97,-0.41,0.30,
2.999,1.94,1.01,0.32,0.97,-0.43,0.29,
3.0,1.94,1.01,0.32,0.99,-0.48,0.28,
3.0,2.26,0.83,0.03,0.99,-0.48,0.28,
3.0,2.26,0.83,0.03,1.01,-0.54,0.27,
3.001,2.26,0.83,0.03,1.03,-0.59,0.25,
3.001,2.26,0.83,0.03,1.06,-0.65,0.23,
3.001,2.26,0.83,0.03,1.07,-0.67,0.23,
3.001,2.26,0.83,0.03,1.08,-0.70,0.21,
3.001,2.37,0.59,-0.07,1.08,-0.70,0.21,
3.002,2.37,0.59,-0.07,1.10,-0.73,0.20,
3.002,2.37,0.59,-0.07,1.12,-0.76,0.19,
3.002,2.37,0.59,-0.07,1.15,-0.78,0.18,
3.002,2.37,0.59,-0.07,1.16,-0.79,0.17,
3.002,2.37,0.59,-0.07,1.18,-0.80,0.16,
3.002,2.55,0.28,-0.13,1.18,-0.80,0.16,
3.003,2.55,0.28,-0.13,1.19,-0.81,0.15,
3.003,2.55,0.28,-0.13,1.21,-0.81,0.14,
3.003,2.55,0.28,-0.13,1.24,-0.81,0.12,
3.003,2.55,0.28,-0.13,1.25,-0.80,0.12,
3.006,2.55,0.28,-0.13,1.26,-0.80,0.11,
3.012,2.59,0.02,-0.32,1.26,-0.80,0.11,
3.013,2.59,0.02,-0.32,1.27,-0.79,0.09,
3.013,2.59,0.02,-0.32,1.29,-0.78,0.08,
3.013,2.59,0.02,-0.32,1.30,-0.76,0.06,
3.014,2.59,0.02,-0.32,1.30,-0.76,0.06,
3.015,2.59,0.02,-0.32,1.31,-0.74,0.04,
3.017,2.73,-0.17,-0.68,1.31,-0.74,0.04,
3.017,2.73,-0.17,-0.68,1.32,-0.73,0.03,
3.019,2.73,-0.17,-0.68,1.33,-0.71,0.01,
3.022,2.73,-0.17,-0.68,1.33,-0.68,-0.01,
3.022,2.73,-0.17,-0.68,1.34,-0.67,-0.02,
3.025,2.73,-0.17,-0.68,1.34,-0.65,-0.04,
3.028,2.71,-0.29,-1.20,1.34,-0.65,-0.04,
3.028,2.71,-0.29,-1.20,1.33,-0.63,-0.05,
3.03,2.71,-0.29,-1.20,1.33,-0.61,-0.07,
3.032,2.71,-0.29,-1.20,1.31,-0.57,-0.10,
3.033,2.71,-0.29,-1.20,1.31,-0.56,-0.11,
3.035,2.71,-0.29,-1.20,1.29,-0.54,-0.13,
3.053,2.79,-0.41,-1.92,1.29,-0.54,-0.13,
3.053,2.79,-0.41,-1.92,1.28,-0.52,-0.15,
3.054,2.79,-0.41,-1.92,1.25,-0.50,-0.17,
3.054,2.79,-0.41,-1.92,1.22,-0.48,-0.20,
3.054,2.79,-0.41,-1.92,1.20,-0.47,-0.22,
3.054,2.79,-0.41,-1.92,1.17,-0.45,-0.24,
3.054,2.72,-0.43,-2.73,1.17,-0.45,-0.24,
3.054,2.72,-0.43,-2.73,1.14,-0.44,-0.27,
3.055,2.72,-0.43,-2.73,1.11,-0.42,-0.29,
3.055,2.72,-0.43,-2.73,1.05,-0.40,-0.33,
3.055,2.72,-0.43,-2.73,1.03,-0.39,-0.35,
3.058,2.72,-0.43,-2.73,0.99,-0.38,-0.37,
3.059,2.73,-0.47,-3.42,0.99,-0.38,-0.37,
3.059,2.73,-0.47,-3.42,0.95,-0.37,-0.40,
3.059,2.73,-0.47,-3.42,0.91,-0.35,-0.43,
3.062,2.73,-0.47,-3.42,0.84,-0.33,-0.47,
3.062,2.73,-0.47,-3.42,0.82,-0.32,-0.49,
3.064,2.73,-0.47,-3.42,0.78,-0.31,-0.52,
3.067,2.45,-0.51,-3.89,0.78,-0.31,-0.52,
3.067,2.45,-0.51,-3.89,0.74,-0.30,-0.55,
3.068,2.45,-0.51,-3.89,0.69,-0.29,-0.57,
3.073,2.45,-0.51,-3.89,0.63,-0.27,-0.62,
3.074,2.45,-0.51,-3.89,0.61,-0.26,-0.63,
3.078,2.45,-0.51,-3.89,0.56,-0.25,-0.65,
3.079,2.19,-0.59,-4.09,0.56,-0.25,-0.65,
3.079,2.19,-0.59,-4.09,0.52,-0.24,-0.68,
3.08,2.19,-0.59,-4.09,0.48,-0.22,-0.70,
3.084,2.19,-0.59,-4.09,0.43,-0.20,-0.73,
3.084,2.19,-0.59,-4.09,0.41,-0.19,-0.74,
3.084,2.19,-0.59,-4.09,0.38,-0.18,-0.76,
3.088,1.65,-0.72,-4.04,0.38,-0.18,-0.76,
3.089,1.65,-0.72,-4.04,0.35,-0.16,-0.78,
3.089,1.65,-0.72,-4.04,0.32,-0.14,-0.79,
3.093,1.65,-0.72,-4.04,0.27,-0.12,-0.81,
3.1,1.65,-0.72,-4.04,0.26,-0.11,-0.82,
3.1,1.65,-0.72,-4.04,0.24,-0.09,-0.83,
3.101,1.17,-0.84,-3.84,0.24,-0.09,-0.83,
3.101,1.17,-0.84,-3.84,0.21,-0.08,-0.84,
3.101,1.17,-0.84,-3.84,0.19,-0.07,-0.85,
3.101,1.17,-0.84,-3.84,0.16,-0.05,-0.86,
3.105,1.17,-0.84,-3.84,0.15,-0.05,-0.86,
3.106,1.17,-0.84,-3.84,0.14,-0.03,-0.87,
3.113,0.68,-0.96,-3.55,0.14,-0.03,-0.87,
3.114,0.68,-0.96,-3.55,0.13,-0.02,-0.87,
3.114,0.68,-0.96,-3.55,0.12,-0.01,-0.88,
3.118,0.68,-0.96,-3.55,0.11,0.01,-0.88,
3.122,0.68,-0.96,-3.55,0.11,0.01,-0.88,
3.122,0.68,-0.96,-3.55,0.10,0.03,-0.88,
3.122,0.37,-1.12,-3.19,0.10,0.03,-0.88,
3.122,0.37,-1.12,-3.19,0.11,0.04,-0.87,
3.122,0.37,-1.12,-3.19,0.11,0.05,-0.87,
3.151,0.37,-1.12,-3.19,0.12,0.06,-0.86,
3.152,0.37,-1.12,-3.19,0.12,0.06,-0.86,
3.152,0.37,-1.12,-3.19,0.13,0.06,-0.85,
3.152,0.09,-1.20,-2.99,0.13,0.06,-0.85,
3.153,0.09,-1.20,-2.99,0.13,0.06,-0.84,
3.153,0.09,-1.20,-2.99,0.14,0.05,-0.83,
3.153,0.09,-1.20,-2.99,0.15,0.03,-0.82,
3.154,0.09,-1.20,-2.99,0.16,0.03,-0.82,
3.154,0.09,-1.20,-2.99,0.16,0.01,-0.81,
3.154,-0.06,-1.19,-2.93,0.16,0.01,-0.81,
3.155,-0.06,-1.19,-2.93,0.17,-0.01,-0.80,
3.155,-0.06,-1.19,-2.93,0.18,-0.03,-0.80,
3.155,-0.06,-1.19,-2.93,0.19,-0.07,-0.79,
3.155,-0.06,-1.19,-2.93,0.20,-0.08,-0.79,
3.156,-0.06,-1.19,-2.93,0.21,-0.11,-0.79,
3.156,-0.09,-1.07,-2.89,0.21,-0.11,-0.79,
3.156,-0.09,-1.07,-2.89,0.21,-0.13,-0.78,
3.157,-0.09,-1.07,-2.89,0.22,-0.16,-0.78,
3.157,-0.09,-1.07,-2.89,0.24,-0.20,-0.78,
3.157,-0.09,-1.07,-2.89,0.24,-0.21,-0.78,
3.157,-0.09,-1.07,-2.89,0.25,-0.24,-0.78,
3.158,-0.13,-1.03,-2.87,0.25,-0.24,-0.78,
3.162,-0.13,-1.03,-2.87,0.26,-0.26,-0.78,
3.163,-0.13,-1.03,-2.87,0.27,-0.29,-0.78,
3.163,-0.13,-1.03,-2.87,0.27,-0.33,-0.78,
3.163,-0.13,-1.03,-2.87,0.28,-0.34,-0.78,
3.165,-0.13,-1.03,-2.87,0.28,-0.37,-0.78,
3.167,-0.18,-0.93,-2.92,0.28,-0.37,-0.78,
3.167,-0.18,-0.93,-2.92,0.28,-0.39,-0.78,
3.169,-0.18,-0.93,-2.92,0.29,-0.42,-0.78,
3.172,-0.18,-0.93,-2.92,0.28,-0.45,-0.78,
3.177,-0.18,-0.93,-2.92,0.28,-0.47,-0.78,
3.178,-0.18,-0.93,-2.92,0.28,-0.49,-0.79,
3.178,-0.26,-0.87,-2.97,0.28,-0.49,-0.79,
3.181,-0.26,-0.87,-2.97,0.28,-0.51,-0.79,
3.181,-0.26,-0.87,-2.97,0.27,-0.53,-0.79,
3.182,-0.26,-0.87,-2.97,0.26,-0.56,-0.79,
3.183,-0.26,-0.87,-2.97,0.26,-0.57,-0.79,
3.184,-0.26,-0.87,-2.97,0.25,-0.58,-0.79,
3.187,-0.45,-0.83,-2.92,0.25,-0.58,-0.79,
3.187,-0.45,-0.83,-2.92,0.25,-0.59,-0.78,
3.19,-0.45,-0.83,-2.92,0.24,-0.59,-0.78,
3.195,-0.45,-0.83,-2.92,0.23,-0.60,-0.78,
3.196,-0.45,-0.83,-2.92,0.23,-0.60,-0.77,
3.197,-0.45,-0.83,-2.92,0.22,-0.60,-0.77,
3.197,-0.58,-0.76,-2.73,0.22,-0.60,-0.77,
3.198,-0.58,-0.76,-2.73,0.21,-0.61,-0.77,
3.199,-0.58,-0.76,-2.73,0.20,-0.61,-0.76,
3.201,-0.58,-0.76,-2.73,0.19,-0.61,-0.76,
3.232,-0.58,-0.76,-2.73,0.19,-0.61,-0.76,
3.233,-0.58,-0.76,-2.73,0.17,-0.61,-0.76,
3.233,-0.61,-0.66,-2.52,0.17,-0.61,-0.76,
3.234,-0.61,-0.66,-2.52,0.17,-0.62,-0.76,
3.234,-0.61,-0.66,-2.52,0.15,-0.62,-0.76,
3.234,-0.61,-0.66,-2.52,0.14,-0.63,-0.76,
3.235,-0.61,-0.66,-2.52,0.14,-0.63,-0.76,
3.235,-0.61,-0.66,-2.52,0.13,-0.64,-0.76,
3.236,-0.77,-0.55,-2.25,0.13,-0.64,-0.76,
3.236,-0.77,-0.55,-2.25,0.12,-0.64,-0.75,
3.236,-0.77,-0.55,-2.25,0.12,-0.65,-0.75,
3.237,-0.77,-0.55,-2.25,0.11,-0.66,-0.74,
3.237,-0.77,-0.55,-2.25,0.11,-0.66,-0.74,
3.238,-0.77,-0.55,-2.25,0.10,-0.66,-0.74,
3.238,-0.98,-0.35,-1.85,0.10,-0.66,-0.74,
3.239,-0.98,-0.35,-1.85,0.10,-0.67,-0.73,
3.239,-0.98,-0.35,-1.85,0.09,-0.67,-0.72,
3.239,-0.98,-0.35,-1.85,0.09,-0.67,-0.72,
3.24,-0.98,-0.35,-1.85,0.08,-0.67,-0.72,
3.24,-0.98,-0.35,-1.85,0.08,-0.68,-0.71,
3.241,-1.10,-0.19,-1.55,0.08,-0.68,-0.71,
3.241,-1.10,-0.19,-1.55,0.08,-0.69,-0.71,
3.241,-1.10,-0.19,-1.55,0.07,-0.70,-0.70,
3.242,-1.10,-0.19,-1.55,0.06,-0.71,-0.70,
3.256,-1.10,-0.19,-1.55,0.06,-0.71,-0.69,
3.257,-1.10,-0.19,-1.55,0.05,-0.72,-0.69,
3.258,-1.20,-0.01,-1.36,0.05,-0.72,-0.69,
3.258,-1.20,-0.01,-1.36,0.04,-0.73,-0.68,
3.258,-1.20,-0.01,-1.36,0.03,-0.74,-0.68,
3.258,-1.20,-0.01,-1.36,0.01,-0.74,-0.68,
3.259,-1.20,-0.01,-1.36,0.00,-0.74,-0.68,
3.259,-1.20,-0.01,-1.36,-0.01,-0.74,-0.68,
3.259,-1.21,0.23,-1.15,-0.01,-0.74,-0.68,
3.259,-1.21,0.23,-1.15,-0.02,-0.75,-0.68,
3.259,-1.21,0.23,-1.15,-0.03,-0.75,-0.68,
3.264,-1.21,0.23,-1.15,-0.06,-0.75,-0.68,
3.264,-1.21,0.23,-1.15,-0.06,-0.75,-0.68,
3.265,-1.21,0.23,-1.15,-0.08,-0.75,-0.68,
3.267,-1.23,0.40,-0.88,-0.08,-0.75,-0.68,
3.267,-1.23,0.40,-0.88,-0.09,-0.75,-0.68,
3.269,-1.23,0.40,-0.88,-0.11,-0.75,-0.69,
3.275,-1.23,0.40,-0.88,-0.13,-0.74,-0.69,
3.276,-1.23,0.40,-0.88,-0.14,-0.74,-0.69,
3.277,-1.23,0.40,-0.88,-0.16,-0.73,-0.70,
3.283,-1.27,0.69,-0.48,-0.16,-0.73,-0.70,
3.283,-1.27,0.69,-0.48,-0.17,-0.73,-0.70,
3.284,-1.27,0.69,-0.48,-0.18,-0.72,-0.71,
3.284,-1.27,0.69,-0.48,-0.21,-0.71,-0.71,
3.286,-1.27,0.69,-0.48,-0.23,-0.69,-0.72,
3.286,-1.27,0.69,-0.48,-0.24,-0.68,-0.72,
3.287,-1.27,0.91,0.00,-0.24,-0.68,-0.72,
3.287,-1.27,0.91,0.00,-0.25,-0.68,-0.73,
3.3,-1.27,0.91,0.00,-0.26,-0.67,-0.73,
3.301,-1.27,0.91,0.00,-0.28,-0.65,-0.74,
3.301,-1.27,0.91,0.00,-0.29,-0.64,-0.74,
3.302,-1.27,0.91,0.00,-0.31,-0.62,-0.75,
3.302,-1.40,1.11,0.45,-0.31,-0.62,-0.75,
3.302,-1.40,1.11,0.45,-0.32,-0.61,-0.75,
3.302,-1.40,1.11,0.45,-0.34,-0.59,-0.75,
3.302,-1.40,1.11,0.45,-0.36,-0.57,-0.76,
3.331,-1.40,1.11,0.45,-0.37,-0.56,-0.76,
3.331,-1.40,1.11,0.45,-0.39,-0.55,-0.76,
3.332,-1.54,1.21,0.90,-0.39,-0.55,-0.76,
3.332,-1.54,1.21,0.90,-0.41,-0.54,-0.76,
3.332,-1.54,1.21,0.90,-0.42,-0.53,-0.76,
3.332,-1.54,1.21,0.90,-0.45,-0.51,-0.76,
3.332,-1.54,1.21,0.90,-0.46,-0.51,-0.76,
3.332,-1.54,1.21,0.90,-0.49,-0.50,-0.75,
3.333,-1.75,1.33,1.35,-0.49,-0.50,-0.75,
3.333,-1.75,1.33,1.35,-0.51,-0.49,-0.75,
3.333,-1.75,1.33,1.35,-0.53,-0.48,-0.74,
3.333,-1.75,1.33,1.35,-0.57,-0.46,-0.73,
3.333,-1.75,1.33,1.35,-0.58,-0.46,-0.73,
3.334,-1.75,1.33,1.35,-0.60,-0.45,-0.72,
3.334,-1.87,1.42,1.84,-0.60,-0.45,-0.72,
3.334,-1.87,1.42,1.84,-0.63,-0.43,-0.72,
3.334,-1.87,1.42,1.84,-0.65,-0.42,-0.71,
3.334,-1.87,1.42,1.84,-0.68,-0.40,-0.70,
3.335,-1.87,1.42,1.84,-0.69,-0.39,-0.69,
3.335,-1.87,1.42,1.84,-0.72,-0.37,-0.68,
3.337,-1.93,1.45,2.55,-0.72,-0.37,-0.68,
3.338,-1.93,1.45,2.55,-0.73,-0.36,-0.68,
3.343,-1.93,1.45,2.55,-0.75,-0.34,-0.67,
3.343,-1.93,1.45,2.55,-0.77,-0.31,-0.65,
3.344,-1.93,1.45,2.55,-0.77,-0.29,-0.65,
3.345,-1.93,1.45,2.55,-0.78,-0.27,-0.64,
3.347,-1.86,1.40,3.44,-0.78,-0.27,-0.64,
3.347,-1.86,1.40,3.44,-0.79,-0.25,-0.63,
3.348,-1.86,1.40,3.44,-0.79,-0.22,-0.61,
3.352,-1.86,1.40,3.44,-0.78,-0.17,-0.60,
3.352,-1.86,1.40,3.44,-0.78,-0.16,-0.59,
3.359,-1.86,1.40,3.44,-0.77,-0.13,-0.57,
3.359,-1.88,1.35,4.38,-0.77,-0.13,-0.57,
3.359,-1.88,1.35,4.38,-0.76,-0.09,-0.56,
3.359,-1.88,1.35,4.38,-0.75,-0.06,-0.54,
3.362,-1.88,1.35,4.38,-0.72,-0.01,-0.52,
3.363,-1.88,1.35,4.38,-0.71,0.01,-0.51,
3.365,-1.88,1.35,4.38,-0.68,0.05,-0.49,
3.367,-1.77,1.27,5.27,-0.68,0.05,-0.49,
3.367,-1.77,1.27,5.27,-0.65,0.09,-0.48,
3.395,-1.77,1.27,5.27,-0.62,0.13,-0.46,
3.396,-1.77,1.27,5.27,-0.57,0.18,-0.43,
3.396,-1.77,1.27,5.27,-0.55,0.20,-0.42,
3.396,-1.77,1.27,5.27,-0.51,0.24,-0.40,
3.396,-1.75,1.19,5.86,-0.51,0.24,-0.40,
3.396,-1.75,1.19,5.86,-0.47,0.28,-0.38,
3.397,-1.75,1.19,5.86,-0.43,0.32,-0.36,
3.397,-1.75,1.19,5.86,-0.36,0.37,-0.32,
3.397,-1.75,1.19,5.86,-0.33,0.39,-0.31,
3.397,-1.75,1.19,5.86,-0.29,0.43,-0.29,
3.397,-1.75,1.22,6.01,-0.29,0.43,-0.29,
3.398,-1.75,1.22,6.01,-0.24,0.46,-0.27,
3.398,-1.75,1.22,6.01,-0.19,0.48,-0.25,
3.398,-1.75,1.22,6.01,-0.11,0.52,-0.22,
3.398,-1.75,1.22,6.01,-0.09,0.53,-0.21,
3.398,-1.75,1.22,6.01,-0.04,0.55,-0.18,
3.399,-1.84,1.29,5.62,-0.04,0.55,-0.18,
3.399,-1.84,1.29,5.62,0.00,0.56,-0.16,
3.399,-1.84,1.29,5.62,0.05,0.57,-0.14,
3.403,-1.84,1.29,5.62,0.10,0.58,-0.10,
3.404,-1.84,1.29,5.62,0.12,0.58,-0.09,
3.405,-1.84,1.29,5.62,0.15,0.59,-0.07,
3.407,-1.89,1.31,4.63,0.15,0.59,-0.07,
3.407,-1.89,1.31,4.63,0.18,0.58,-0.05,
3.41,-1.89,1.31,4.63,0.20,0.58,-0.03,
3.413,-1.89,1.31,4.63,0.23,0.57,0.01,
3.414,-1.89,1.31,4.63,0.23,0.57,0.01,
3.414,-1.89,1.31,4.63,0.23,0.56,0.03,
3.417,-1.89,1.44,3.31,0.23,0.56,0.03,
3.417,-1.89,1.44,3.31,0.23,0.55,0.05,
3.418,-1.89,1.44,3.31,0.23,0.54,0.06,
3.426,-1.89,1.44,3.31,0.20,0.51,0.08,
3.427,-1.89,1.44,3.31,0.19,0.50,0.09,
3.427,-1.89,1.44,3.31,0.17,0.47,0.10,
3.427,-1.63,1.62,2.01,0.17,0.47,0.10,
3.427,-1.63,1.62,2.01,0.14,0.44,0.10,
3.429,-1.63,1.62,2.01,0.11,0.40,0.11,
3.453,-1.63,1.62,2.01,0.05,0.34,0.11,
3.453,-1.63,1.62,2.01,0.02,0.31,0.11,
3.453,-1.63,1.62,2.01,-0.02,0.26,0.10,
3.453,-1.28,1.88,1.10,-0.02,0.26,0.10,
3.454,-1.28,1.88,1.10,-0.07,0.21,0.09,
3.454,-1.28,1.88,1.10,-0.13,0.15,0.09,
3.454,-1.28,1.88,1.10,-0.21,0.06,0.07,
3.454,-1.28,1.88,1.10,-0.23,0.03,0.06,
3.454,-1.28,1.88,1.10,-0.29,-0.02,0.05,
3.455,-0.85,2.01,1.06,-0.29,-0.02,0.05,
3.455,-0.85,2.01,1.06,-0.34,-0.07,0.03,
3.455,-0.85,2.01,1.06,-0.38,-0.12,0.02,
3.455,-0.85,2.01,1.06,-0.45,-0.17,-0.01,
3.455,-0.85,2.01,1.06,-0.46,-0.19,-0.02,
3.455,-0.85,2.01,1.06,-0.49,-0.21,-0.04,
3.469,-0.42,1.86,2.04,-0.49,-0.21,-0.04,
3.47,-0.42,1.86,2.04,-0.52,-0.23,-0.06,
3.471,-0.42,1.86,2.04,-0.54,-0.24,-0.07,
3.471,-0.42,1.86,2.04,-0.55,-0.23,-0.10,
3.473,-0.42,1.86,2.04,-0.56,-0.22,-0.11,
3.473,-0.42,1.86,2.04,-0.55,-0.20,-0.12,
3.474,-0.17,1.45,3.45,-0.55,-0.20,-0.12,
3.474,-0.17,1.45,3.45,-0.55,-0.17,-0.14,
3.475,-0.17,1.45,3.45,-0.53,-0.13,-0.15,
3.475,-0.17,1.45,3.45,-0.51,-0.06,-0.17,
3.476,-0.17,1.45,3.45,-0.49,-0.03,-0.18,
3.477,-0.17,1.45,3.45,-0.46,0.03,-0.18,
3.478,-0.27,0.88,4.67,-0.46,0.03,-0.18,
3.478,-0.27,0.88,4.67,-0.43,0.09,-0.19,
3.48,-0.27,0.88,4.67,-0.38,0.16,-0.18,
3.482,-0.27,0.88,4.67,-0.32,0.27,-0.18,
3.483,-0.27,0.88,4.67,-0.29,0.31,-0.17,
3.485,-0.27,0.88,4.67,-0.25,0.38,-0.16,
3.487,-0.73,0.28,5.22,-0.25,0.38,-0.16,
3.488,-0.73,0.28,5.22,-0.19,0.46,-0.15,
3.489,-0.73,0.28,5.22,-0.14,0.53,-0.13,
3.492,-0.73,0.28,5.22,-0.06,0.64,-0.10,
3.493,-0.73,0.28,5.22,-0.03,0.67,-0.08,
3.495,-0.73,0.28,5.22,0.02,0.74,-0.06,
3.497,-1.28,-0.21,4.94,0.02,0.74,-0.06,
3.497,-1.28,-0.21,4.94,0.08,0.80,-0.03,
3.498,-1.28,-0.21,4.94,0.13,0.86,-0.00,
3.502,-1.28,-0.21,4.94,0.20,0.94,0.04,
3.503,-1.28,-0.21,4.94,0.23,0.96,0.05,
3.505,-1.28,-0.21,4.94,0.27,1.01,0.08,
3.509,-1.79,-0.38,3.97,0.27,1.01,0.08,
3.51,-1.79,-0.38,3.97,0.32,1.05,0.11,
3.511,-1.79,-0.38,3.97,0.36,1.08,0.14,
3.512,-1.79,-0.38,3.97,0.41,1.13,0.18,
3.513,-1.79,-0.38,3.97,0.43,1.15,0.19,
3.515,-1.79,-0.38,3.97,0.46,1.17,0.21,
3.517,-2.07,-0.32,2.60,0.46,1.17,0.21,
3.517,-2.07,-0.32,2.60,0.48,1.19,0.23,
3.518,-2.07,-0.32,2.60,0.50,1.21,0.25,
3.527,-2.07,-0.32,2.60,0.53,1.23,0.27,
3.528,-2.07,-0.32,2.60,0.53,1.23,0.28,
3.528,-2.07,-0.32,2.60,0.54,1.23,0.29,
3.529,-2.09,-0.13,1.10,0.54,1.23,0.29,
3.529,-2.09,-0.13,1.10,0.55,1.22,0.31,
3.53,-2.09,-0.13,1.10,0.55,1.21,0.32,
3.532,-2.09,-0.13,1.10,0.54,1.18,0.34,
3.533,-2.09,-0.13,1.10,0.53,1.17,0.34,
3.557,-2.09,-0.13,1.10,0.52,1.14,0.35,
3.591,-2.12,0.15,-0.21,0.52,1.14,0.35,
3.592,-2.12,0.15,-0.21,0.51,1.11,0.35,
3.593,-2.12,0.15,-0.21,0.49,1.07,0.36,
3.593,-2.12,0.15,-0.21,0.47,1.01,0.36,
3.594,-2.12,0.15,-0.21,0.46,0.99,0.36,
3.595,-2.12,0.15,-0.21,0.44,0.95,0.36,
3.595,-2.01,0.46,-0.98,0.44,0.95,0.36,
3.596,-2.01,0.46,-0.98,0.42,0.90,0.36,
3.596,-2.01,0.46,-0.98,0.40,0.86,0.35,
3.597,-2.01,0.46,-0.98,0.38,0.79,0.34,
3.598,-2.01,0.46,-0.98,0.38,0.77,0.34,
3.599,-2.01,0.46,-0.98,0.36,0.72,0.33,
3.599,-1.86,0.54,-1.27,0.36,0.72,0.33,
3.599,-1.86,0.54,-1.27,0.35,0.67,0.32,
3.599,-1.86,0.54,-1.27,0.33,0.63,0.31,
3.6,-1.86,0.54,-1.27,0.31,0.56,0.29,
3.6,-1.86,0.54,-1.27,0.30,0.53,0.28,
3.6,-1.86,0.54,-1.27,0.29,0.48,0.27,
3.6,-1.73,0.36,-1.37,0.29,0.48,0.27,
3.601,-1.73,0.36,-1.37,0.27,0.43,0.26,
3.601,-1.73,0.36,-1.37,0.26,0.37,0.25,
3.601,-1.73,0.36,-1.37,0.24,0.29,0.24,
3.602,-1.73,0.36,-1.37,0.23,0.27,0.23,
3.602,-1.73,0.36,-1.37,0.22,0.21,0.23,
3.602,-1.93,0.12,-1.15,0.22,0.21,0.23,
3.603,-1.93,0.12,-1.15,0.22,0.16,0.22,
3.603,-1.93,0.12,-1.15,0.21,0.11,0.22,
3.604,-1.93,0.12,-1.15,0.21,0.05,0.22,
3.604,-1.93,0.12,-1.15,0.21,0.03,0.23,
3.604,-1.93,0.12,-1.15,0.22,-0.00,0.23,
3.605,-2.23,-0.17,-0.50,0.22,-0.00,0.23,
3.605,-2.23,-0.17,-0.50,0.23,-0.03,0.24,
3.606,-2.23,-0.17,-0.50,0.24,-0.06,0.26,
3.606,-2.23,-0.17,-0.50,0.27,-0.08,0.28,
3.607,-2.23,-0.17,-0.50,0.27,-0.09,0.29,
3.607,-2.23,-0.17,-0.50,0.29,-0.10,0.31,
3.607,-2.48,-0.58,0.16,0.29,-0.10,0.31,
3.608,-2.48,-0.58,0.16,0.31,-0.11,0.33,
3.608,-2.48,-0.58,0.16,0.34,-0.12,0.34,
3.609,-2.48,-0.58,0.16,0.38,-0.11,0.38,
3.609,-2.48,-0.58,0.16,0.39,-0.11,0.39,
3.61,-2.48,-0.58,0.16,0.42,-0.11,0.41,
3.61,-2.34,-0.84,0.63,0.42,-0.11,0.41,
3.61,-2.34,-0.84,0.63,0.45,-0.09,0.43,
3.61,-2.34,-0.84,0.63,0.48,-0.08,0.45,
3.619,-2.34,-0.84,0.63,0.52,-0.05,0.48,
3.62,-2.34,-0.84,0.63,0.54,-0.05,0.48,
3.62,-2.34,-0.84,0.63,0.57,-0.03,0.50,
3.62,-2.10,-0.95,0.81,0.57,-0.03,0.50,
3.621,-2.10,-0.95,0.81,0.60,-0.01,0.51,
3.621,-2.10,-0.95,0.81,0.63,0.02,0.53,
3.622,-2.10,-0.95,0.81,0.67,0.05,0.54,
3.623,-2.10,-0.95,0.81,0.69,0.06,0.55,
3.625,-2.10,-0.95,0.81,0.72,0.09,0.55,
3.627,-1.47,-0.96,0.63,0.72,0.09,0.55,
3.627,-1.47,-0.96,0.63,0.74,0.11,0.55,
3.629,-1.47,-0.96,0.63,0.77,0.14,0.55,
3.632,-1.47,-0.96,0.63,0.81,0.17,0.55,
3.635,-1.47,-0.96,0.63,0.84,0.22,0.54,
3.635,-1.47,-0.96,0.63,0.86,0.23,0.54,
3.637,-0.85,-0.93,0.16,0.86,0.23,0.54,
3.638,-0.85,-0.93,0.16,0.86,0.24,0.54,
3.638,-0.85,-0.93,0.16,0.88,0.27,0.53,
3.642,-0.85,-0.93,0.16,0.91,0.31,0.52,
3.643,-0.85,-0.93,0.16,0.91,0.32,0.51,
3.645,-0.85,-0.93,0.16,0.93,0.34,0.50,
3.646,-0.43,-0.92,-0.49,0.93,0.34,0.50,
3.647,-0.43,-0.92,-0.49,0.94,0.37,0.49,
3.648,-0.43,-0.92,-0.49,0.94,0.39,0.48,
3.651,-0.43,-0.92,-0.49,0.95,0.43,0.46,
3.653,-0.43,-0.92,-0.49,0.95,0.44,0.45,
3.668,-0.43,-0.92,-0.49,0.95,0.46,0.44,
3.668,-0.08,-0.97,-1.27,0.95,0.46,0.44,
3.668,-0.08,-0.97,-1.27,0.95,0.48,0.43,
3.668,-0.08,-0.97,-1.27,0.94,0.50,0.42,
3.669,-0.08,-0.97,-1.27,0.94,0.53,0.40,
3.669,-0.08,-0.97,-1.27,0.93,0.54,0.39,
3.669,-0.08,-0.97,-1.27,0.92,0.56,0.38,
3.669,0.02,-1.02,-2.10,0.92,0.56,0.38,
3.669,0.02,-1.02,-2.10,0.91,0.58,0.37,
3.67,0.02,-1.02,-2.10,0.90,0.60,0.36,
3.7,0.02,-1.02,-2.10,0.87,0.63,0.35,
3.701,0.02,-1.02,-2.10,0.87,0.64,0.34,
3.701,0.02,-1.02,-2.10,0.85,0.66,0.33,
3.701,0.01,-1.15,-2.90,0.85,0.66,0.33,
3.701,0.01,-1.15,-2.90,0.83,0.68,0.32,
3.701,0.01,-1.15,-2.90,0.80,0.70,0.31,
3.702,0.01,-1.15,-2.90,0.77,0.73,0.30,
3.702,0.01,-1.15,-2.90,0.75,0.74,0.30,
3.702,0.01,-1.15,-2.90,0.73,0.76,0.30,
3.702,-0.04,-1.33,-3.62,0.73,0.76,0.30,
3.702,-0.04,-1.33,-3.62,0.70,0.78,0.29,
3.703,-0.04,-1.33,-3.62,0.67,0.80,0.29,
3.703,-0.04,-1.33,-3.62,0.63,0.84,0.29,
3.703,-0.04,-1.33,-3.62,0.61,0.85,0.29,
3.703,-0.04,-1.33,-3.62,0.58,0.87,0.29,
3.703,-0.14,-1.54,-4.20,0.58,0.87,0.29,
3.704,-0.14,-1.54,-4.20,0.55,0.89,0.29,
3.704,-0.14,-1.54,-4.20,0.51,0.90,0.29,
3.704,-0.14,-1.54,-4.20,0.47,0.93,0.30,
3.724,-0.14,-1.54,-4.20,0.45,0.93,0.30,
3.724,-0.14,-1.54,-4.20,0.42,0.95,0.30,
3.724,-0.17,-1.73,-4.52,0.42,0.95,0.30,
3.725,-0.17,-1.73,-4.52,0.39,0.96,0.31,
3.725,-0.17,-1.73,-4.52,0.36,0.97,0.31,
3.725,-0.17,-1.73,-4.52,0.32,0.98,0.32,
3.725,-0.17,-1.73,-4.52,0.30,0.99,0.32,
3.725,-0.17,-1.73,-4.52,0.28,0.99,0.33,
3.726,-0.13,-1.86,-4.61,0.28,0.99,0.33,
3.726,-0.13,-1.86,-4.61,0.25,0.99,0.33,
3.726,-0.13,-1.86,-4.61,0.23,0.99,0.34,
3.726,-0.13,-1.86,-4.61,0.20,0.98,0.35,
3.726,-0.13,-1.86,-4.61,0.19,0.98,0.35,
3.727,-0.13,-1.86,-4.61,0.18,0.97,0.35,
3.727,-0.01,-1.89,-4.38,0.18,0.97,0.35,
3.727,-0.01,-1.89,-4.38,0.16,0.96,0.36,
3.731,-0.01,-1.89,-4.38,0.16,0.95,0.36,
3.731,-0.01,-1.89,-4.38,0.15,0.93,0.37,
3.733,-0.01,-1.89,-4.38,0.14,0.93,0.38,
3.735,-0.01,-1.89,-4.38,0.14,0.91,0.38,
3.748,0.12,-1.95,-4.03,0.14,0.91,0.38,
3.748,0.12,-1.95,-4.03,0.14,0.89,0.38,
3.749,0.12,-1.95,-4.03,0.14,0.87,0.39,
3.749,0.12,-1.95,-4.03,0.14,0.83,0.39,
3.749,0.12,-1.95,-4.03,0.15,0.82,0.39,
3.749,0.12,-1.95,-4.03,0.15,0.79,0.40,
3.749,0.27,-1.95,-3.64,0.15,0.79,0.40,
3.749,0.27,-1.95,-3.64,0.16,0.76,0.40,
3.75,0.27,-1.95,-3.64,0.17,0.73,0.40,
3.752,0.27,-1.95,-3.64,0.18,0.69,0.41,
3.757,0.27,-1.95,-3.64,0.19,0.67,0.41,
3.758,0.27,-1.95,-3.64,0.20,0.65,0.41,
3.758,0.38,-2.00,-3.25,0.20,0.65,0.41,
3.758,0.38,-2.00,-3.25,0.21,0.62,0.42,
3.758,0.38,-2.00,-3.25,0.23,0.59,0.42,
3.762,0.38,-2.00,-3.25,0.24,0.55,0.43,
3.763,0.38,-2.00,-3.25,0.25,0.54,0.43,
3.765,0.38,-2.00,-3.25,0.26,0.51,0.44,
3.767,0.42,-2.04,-3.04,0.26,0.51,0.44,
3.767,0.42,-2.04,-3.04,0.27,0.48,0.45,
3.769,0.42,-2.04,-3.04,0.27,0.45,0.46,
3.795,0.42,-2.04,-3.04,0.27,0.40,0.47,
3.795,0.42,-2.04,-3.04,0.27,0.39,0.47,
3.795,0.42,-2.04,-3.04,0.27,0.36,0.48,
3.795,0.50,-2.15,-3.08,0.27,0.36,0.48,
3.796,0.50,-2.15,-3.08,0.27,0.34,0.49,
3.796,0.50,-2.15,-3.08,0.26,0.31,0.50,
3.796,0.50,-2.15,-3.08,0.25,0.27,0.52,
3.796,0.50,-2.15,-3.08,0.24,0.26,0.52,
3.796,0.50,-2.15,-3.08,0.23,0.23,0.53,
3.797,0.68,-2.21,-3.20,0.23,0.23,0.53,
3.797,0.68,-2.21,-3.20,0.21,0.20,0.54,
3.797,0.68,-2.21,-3.20,0.19,0.18,0.54,
3.797,0.68,-2.21,-3.20,0.16,0.15,0.55,
3.797,0.68,-2.21,-3.20,0.15,0.14,0.56,
3.798,0.68,-2.21,-3.20,0.12,0.12,0.56,
3.798,0.95,-2.34,-3.21,0.12,0.12,0.56,
3.798,0.95,-2.34,-3.21,0.10,0.11,0.57,
3.8,0.95,-2.34,-3.21,0.07,0.10,0.58,
3.801,0.95,-2.34,-3.21,0.03,0.09,0.59,
3.806,0.95,-2.34,-3.21,0.01,0.08,0.60,
3.809,0.95,-2.34,-3.21,-0.02,0.09,0.61,
3.809,0.99,-2.59,-3.16,-0.02,0.09,0.61,
3.81,0.99,-2.59,-3.16,-0.05,0.09,0.63,
3.811,0.99,-2.59,-3.16,-0.09,0.10,0.65,
3.814,0.99,-2.59,-3.16,-0.14,0.12,0.68,
3.814,0.99,-2.59,-3.16,-0.16,0.13,0.70,
3.815,0.99,-2.59,-3.16,-0.19,0.15,0.72,
3.818,0.79,-2.86,-2.90,-0.19,0.15,0.72,
3.818,0.79,-2.86,-2.90,-0.23,0.17,0.75,
3.819,0.79,-2.86,-2.90,-0.26,0.20,0.78,
3.822,0.79,-2.86,-2.90,-0.31,0.23,0.82,
3.823,0.79,-2.86,-2.90,-0.33,0.24,0.83,
3.825,0.79,-2.86,-2.90,-0.36,0.26,0.85,
3.827,0.62,-2.71,-2.40,-0.36,0.26,0.85,
3.828,0.62,-2.71,-2.40,-0.39,0.28,0.87,
3.829,0.62,-2.71,-2.40,-0.43,0.30,0.88,
3.832,0.62,-2.71,-2.40,-0.47,0.32,0.89,
3.833,0.62,-2.71,-2.40,-0.48,0.32,0.89,
3.835,0.62,-2.71,-2.40,-0.51,0.33,0.89,
3.839,0.94,-2.42,-1.65,-0.51,0.33,0.89,
3.84,0.94,-2.42,-1.65,-0.53,0.34,0.89,
3.84,0.94,-2.42,-1.65,-0.56,0.35,0.88,
3.842,0.94,-2.42,-1.65,-0.58,0.35,0.85,
3.845,0.94,-2.42,-1.65,-0.60,0.36,0.84,
3.846,0.94,-2.42,-1.65,-0.60,0.36,0.83,
3.847,1.39,-2.19,-0.75,-0.60,0.36,0.83,
3.848,1.39,-2.19,-0.75,-0.61,0.37,0.82,
3.849,1.39,-2.19,-0.75,-0.62,0.37,0.80,
3.853,1.39,-2.19,-0.75,-0.63,0.38,0.78,
3.854,1.39,-2.19,-0.75,-0.63,0.39,0.78,
3.856,1.39,-2.19,-0.75,-0.63,0.40,0.77,
3.858,1.68,-2.17,0.16,-0.63,0.40,0.77,
3.859,1.68,-2.17,0.16,-0.64,0.40,0.75,
3.859,1.68,-2.17,0.16,-0.64,0.41,0.75,
3.862,1.68,-2.17,0.16,-0.64,0.41,0.73,
3.863,1.68,-2.17,0.16,-0.64,0.41,0.73,
3.865,1.68,-2.17,0.16,-0.64,0.41,0.72,
3.867,1.70,-2.09,0.61,-0.64,0.41,0.72,
3.868,1.70,-2.09,0.61,-0.65,0.40,0.71,
3.895,1.70,-2.09,0.61,-0.66,0.39,0.70,
3.896,1.70,-2.09,0.61,-0.66,0.37,0.68,
3.896,1.70,-2.09,0.61,-0.67,0.36,0.68,
3.897,1.70,-2.09,0.61,-0.68,0.33,0.66,
3.897,1.81,-2.02,0.80,-0.68,0.33,0.66,
3.897,1.81,-2.02,0.80,-0.68,0.31,0.65,
3.898,1.81,-2.02,0.80,-0.69,0.28,0.64,
3.898,1.81,-2.02,0.80,-0.71,0.23,0.61,
3.899,1.81,-2.02,0.80,-0.71,0.21,0.61,
3.899,1.81,-2.02,0.80,-0.72,0.17,0.59,
3.9,1.67,-1.81,0.93,-0.72,0.17,0.59,
3.9,1.67,-1.81,0.93,-0.74,0.13,0.58,
3.9,1.67,-1.81,0.93,-0.75,0.09,0.57,
3.901,1.67,-1.81,0.93,-0.77,0.02,0.55,
3.901,1.67,-1.81,0.93,-0.78,-0.03,0.53,
3.902,1.67,-1.81,0.93,-0.79,-0.05,0.53,
3.902,1.46,-1.70,1.16,-0.79,-0.05,0.53,
3.902,1.46,-1.70,1.16,-0.80,-0.10,0.52,
3.903,1.46,-1.70,1.16,-0.81,-0.14,0.51,
3.903,1.46,-1.70,1.16,-0.83,-0.20,0.51,
3.904,1.46,-1.70,1.16,-0.83,-0.22,0.51,
3.916,1.46,-1.70,1.16,-0.84,-0.26,0.51,
3.916,1.06,-1.55,1.58,-0.84,-0.26,0.51,
3.917,1.06,-1.55,1.58,-0.85,-0.29,0.51,
3.917,1.06,-1.55,1.58,-0.86,-0.33,0.52,
3.918,1.06,-1.55,1.58,-0.86,-0.37,0.53,
3.918,1.06,-1.55,1.58,-0.86,-0.39,0.53,
3.919,1.06,-1.55,1.58,-0.86,-0.41,0.54,
3.919,0.75,-1.39,2.10,-0.86,-0.41,0.54,
3.919,0.75,-1.39,2.10,-0.86,-0.44,0.55,
3.92,0.75,-1.39,2.10,-0.86,-0.46,0.56,
3.93,0.75,-1.39,2.10,-0.86,-0.48,0.58,
3.931,0.75,-1.39,2.10,-0.86,-0.49,0.59,
3.931,0.75,-1.39,2.10,-0.86,-0.50,0.59,
3.931,0.64,-1.20,2.43,-0.86,-0.50,0.59,
3.931,0.64,-1.20,2.43,-0.86,-0.51,0.61,
3.932,0.64,-1.20,2.43,-0.87,-0.52,0.62,
3.932,0.64,-1.20,2.43,-0.87,-0.52,0.64,
3.935,0.64,-1.20,2.43,-0.87,-0.51,0.65,
3.935,0.64,-1.20,2.43,-0.87,-0.51,0.67,
3.963,0.60,-1.00,2.55,-0.87,-0.51,0.67,
3.964,0.60,-1.00,2.55,-0.88,-0.51,0.68,
3.964,0.60,-1.00,2.55,-0.89,-0.51,0.70,
3.965,0.60,-1.00,2.55,-0.90,-0.52,0.72,
3.965,0.60,-1.00,2.55,-0.91,-0.53,0.74,
3.966,0.60,-1.00,2.55,-0.91,-0.53,0.74,
3.966,0.53,-0.67,2.64,-0.91,-0.53,0.74,
3.967,0.53,-0.67,2.64,-0.92,-0.54,0.76,
3.968,0.53,-0.67,2.64,-0.93,-0.55,0.78,
3.968,0.53,-0.67,2.64,-0.94,-0.56,0.80,
3.969,0.53,-0.67,2.64,-0.94,-0.57,0.81,
3.969,0.53,-0.67,2.64,-0.94,-0.57,0.82,
3.97,0.64,-0.55,2.92,-0.94,-0.57,0.82,
3.971,0.64,-0.55,2.92,-0.94,-0.58,0.84,
3.971,0.64,-0.55,2.92,-0.94,-0.58,0.85,
3.974,0.64,-0.55,2.92,-0.92,-0.57,0.87,
3.975,0.64,-0.55,2.92,-0.91,-0.57,0.88,
3.976,0.64,-0.55,2.92,-0.90,-0.56,0.89,
3.977,0.92,-0.35,3.49,-0.90,-0.56,0.89,
3.977,0.92,-0.35,3.49,-0.87,-0.54,0.90,
3.978,0.92,-0.35,3.49,-0.85,-0.52,0.90,
3.979,0.92,-0.35,3.49,-0.80,-0.48,0.91,
3.979,0.92,-0.35,3.49,-0.78,-0.47,0.91,
3.98,0.92,-0.35,3.49,-0.76,-0.45,0.91,
3.98,1.33,0.09,3.85,-0.76,-0.45,0.91,
3.981,1.33,0.09,3.85,-0.73,-0.42,0.90,
3.981,1.33,0.09,3.85,-0.70,-0.40,0.90,
4.006,1.33,0.09,3.85,-0.67,-0.37,0.88,
4.007,1.33,0.09,3.85,-0.66,-0.35,0.86,
4.007,1.33,0.09,3.85,-0.65,-0.34,0.85,
4.007,1.75,0.55,3.11,-0.65,-0.34,0.85,
4.008,1.75,0.55,3.11,-0.65,-0.33,0.85,
4.008,1.75,0.55,3.11,-0.65,-0.32,0.83,
4.009,1.75,0.55,3.11,-0.67,-0.31,0.80,
4.009,1.75,0.55,3.11,-0.68,-0.31,0.79,
4.009,1.75,0.55,3.11,-0.71,-0.31,0.77,
4.01,2.01,0.88,1.98,-0.71,-0.31,0.77,
4.01,2.01,0.88,1.98,-0.74,-0.32,0.75,
4.01,2.01,0.88,1.98,-0.77,-0.33,0.72,
4.011,2.01,0.88,1.98,-0.84,-0.34,0.68,
4.011,2.01,0.88,1.98,-0.88,-0.36,0.65,
4.011,2.01,0.88,1.98,-0.90,-0.36,0.64,
4.012,2.06,1.16,0.98,-0.90,-0.36,0.64,
4.012,2.06,1.16,0.98,-0.95,-0.38,0.61,
4.013,2.06,1.16,0.98,-1.00,-0.40,0.58,
4.013,2.06,1.16,0.98,-1.08,-0.44,0.54,
4.013,2.06,1.16,0.98,-1.10,-0.45,0.53,
4.016,2.06,1.16,0.98,-1.15,-0.47,0.50,
4.017,2.10,1.39,0.66,-1.15,-0.47,0.50,
4.018,2.10,1.39,0.66,-1.20,-0.49,0.47,
4.019,2.10,1.39,0.66,-1.25,-0.52,0.44,
4.031,2.10,1.39,0.66,-1.32,-0.55,0.40,
4.031,2.10,1.39,0.66,-1.36,-0.56,0.38,
4.031,2.10,1.39,0.66,-1.37,-0.57,0.36,
4.032,1.91,1.45,1.30,-1.37,-0.57,0.36,
4.032,1.91,1.45,1.30,-1.40,-0.58,0.34,
4.032,1.91,1.45,1.30,-1.42,-0.58,0.32,
4.033,1.91,1.45,1.30,-1.44,-0.57,0.29,
4.033,1.91,1.45,1.30,-1.45,-0.56,0.26,
4.035,1.91,1.45,1.30,-1.45,-0.55,0.26,
4.059,1.68,1.41,2.67,-1.45,-0.55,0.26,
4.06,1.68,1.41,2.67,-1.44,-0.53,0.24,
4.06,1.68,1.41,2.67,-1.43,-0.51,0.22,
4.06,1.68,1.41,2.67,-1.39,-0.47,0.20,
4.061,1.68,1.41,2.67,-1.36,-0.43,0.19,
4.061,1.68,1.41,2.67,-1.35,-0.42,0.19,
4.061,1.29,1.33,4.09,-1.35,-0.42,0.19,
4.061,1.29,1.33,4.09,-1.31,-0.38,0.18,
4.062,1.29,1.33,4.09,-1.26,-0.34,0.17,
4.062,1.29,1.33,4.09,-1.19,-0.29,0.16,
4.062,1.29,1.33,4.09,-1.13,-0.26,0.16,
4.063,1.29,1.33,4.09,-1.10,-0.24,0.16,
4.063,0.81,1.20,4.99,-1.10,-0.24,0.16,
4.063,0.81,1.20,4.99,-1.04,-0.21,0.16,
4.063,0.81,1.20,4.99,-0.98,-0.18,0.17,
4.064,0.81,1.20,4.99,-0.88,-0.14,0.17,
4.064,0.81,1.20,4.99,-0.81,-0.13,0.18,
4.068,0.81,1.20,4.99,-0.77,-0.12,0.19,
4.068,0.25,1.13,5.24,-0.77,-0.12,0.19,
4.069,0.25,1.13,5.24,-0.70,-0.11,0.20,
4.069,0.25,1.13,5.24,-0.64,-0.10,0.21,
4.071,0.25,1.13,5.24,-0.54,-0.09,0.23,
4.073,0.25,1.13,5.24,-0.46,-0.09,0.25,
4.075,0.25,1.13,5.24,-0.43,-0.10,0.26,
4.079,-0.27,1.14,4.85,-0.43,-0.10,0.26,
4.079,-0.27,1.14,4.85,-0.36,-0.10,0.27,
4.079,-0.27,1.14,4.85,-0.30,-0.11,0.29,
4.082,-0.27,1.14,4.85,-0.21,-0.14,0.32,
4.083,-0.27,1.14,4.85,-0.15,-0.17,0.34,
4.088,-0.27,1.14,4.85,-0.12,-0.18,0.35,
4.088,-0.52,1.14,4.10,-0.12,-0.18,0.35,
4.088,-0.52,1.14,4.10,-0.06,-0.20,0.37,
4.089,-0.52,1.14,4.10,-0.01,-0.24,0.39,
4.092,-0.52,1.14,4.10,0.07,-0.29,0.42,
4.093,-0.52,1.14,4.10,0.11,-0.32,0.44,
4.094,-0.52,1.14,4.10,0.13,-0.34,0.44,
4.098,-0.53,1.14,3.25,0.13,-0.34,0.44,
4.098,-0.53,1.14,3.25,0.17,-0.37,0.46,
4.099,-0.53,1.14,3.25,0.21,-0.40,0.48,
4.113,-0.53,1.14,3.25,0.28,-0.44,0.50,
4.114,-0.53,1.14,3.25,0.31,-0.47,0.51,
4.114,-0.53,1.14,3.25,0.33,-0.48,0.51,
4.114,-0.23,1.17,2.53,0.33,-0.48,0.51,
4.114,-0.23,1.17,2.53,0.36,-0.51,0.52,
4.114,-0.23,1.17,2.53,0.39,-0.53,0.53,
4.115,-0.23,1.17,2.53,0.43,-0.55,0.53,
4.115,-0.23,1.17,2.53,0.46,-0.57,0.54,
4.115,-0.23,1.17,2.53,0.47,-0.58,0.54,
4.117,0.17,1.23,1.85,0.47,-0.58,0.54,
4.123,0.17,1.23,1.85,0.50,-0.59,0.54,
4.123,0.17,1.23,1.85,0.51,-0.61,0.53,
4.123,0.17,1.23,1.85,0.54,-0.62,0.53,
4.124,0.17,1.23,1.85,0.55,-0.63,0.52,
4.125,0.17,1.23,1.85,0.56,-0.63,0.52,
4.127,0.54,1.23,1.17,0.56,-0.63,0.52,
4.127,0.54,1.23,1.17,0.57,-0.64,0.51,
4.129,0.54,1.23,1.17,0.58,-0.64,0.50,
4.132,0.54,1.23,1.17,0.58,-0.63,0.49,
4.132,0.54,1.23,1.17,0.58,-0.62,0.48,
4.135,0.54,1.23,1.17,0.59,-0.62,0.47,
4.137,0.87,1.24,0.59,0.59,-0.62,0.47,
4.137,0.87,1.24,0.59,0.59,-0.60,0.46,
4.138,0.87,1.24,0.59,0.59,-0.59,0.44,
4.142,0.87,1.24,0.59,0.59,-0.55,0.42,
4.143,0.87,1.24,0.59,0.58,-0.53,0.40,
4.145,0.87,1.24,0.59,0.58,-0.52,0.39,
4.147,1.11,1.16,0.11,0.58,-0.52,0.39,
4.147,1.11,1.16,0.11,0.58,-0.49,0.38,
4.149,1.11,1.16,0.11,0.58,-0.47,0.36,
4.156,1.11,1.16,0.11,0.56,-0.42,0.33,
4.156,1.11,1.16,0.11,0.56,-0.39,0.31,
4.156,1.11,1.16,0.11,0.55,-0.38,0.31,
4.157,1.24,1.11,-0.41,0.55,-0.38,0.31,
4.157,1.24,1.11,-0.41,0.54,-0.35,0.28,
4.159,1.24,1.11,-0.41,0.53,-0.32,0.27,
4.198,1.24,1.11,-0.41,0.51,-0.28,0.24,
4.199,1.24,1.11,-0.41,0.50,-0.25,0.22,
4.199,1.24,1.11,-0.41,0.50,-0.24,0.21,
4.2,1.22,1.00,-0.97,0.50,-0.24,0.21,
4.2,1.22,1.00,-0.97,0.48,-0.22,0.19,
4.2,1.22,1.00,-0.97,0.47,-0.19,0.17,
4.2,1.22,1.00,-0.97,0.45,-0.16,0.14,
4.201,1.22,1.00,-0.97,0.43,-0.14,0.12,
4.201,1.22,1.00,-0.97,0.42,-0.12,0.11,
4.201,1.09,0.95,-1.57,0.42,-0.12,0.11,
4.202,1.09,0.95,-1.57,0.40,-0.10,0.09,
4.202,1.09,0.95,-1.57,0.38,-0.08,0.07,
4.202,1.09,0.95,-1.57,0.35,-0.05,0.04,
4.203,1.09,0.95,-1.57,0.33,-0.03,0.02,
4.203,1.09,0.95,-1.57,0.31,-0.03,0.02,
4.203,0.67,0.72,-2.24,0.31,-0.03,0.02,
4.203,0.67,0.72,-2.24,0.28,-0.02,0.01,
4.204,0.67,0.72,-2.24,0.25,-0.01,-0.00,
4.204,0.67,0.72,-2.24,0.21,0.01,-0.02,
4.204,0.67,0.72,-2.24,0.17,0.01,-0.03,
4.205,0.67,0.72,-2.24,0.15,0.02,-0.03,
4.205,0.32,0.62,-3.01,0.15,0.02,-0.03,
4.205,0.32,0.62,-3.01,0.11,0.03,-0.03,
4.205,0.32,0.62,-3.01,0.06,0.03,-0.04,
4.206,0.32,0.62,-3.01,-0.00,0.04,-0.05,
4.232,0.32,0.62,-3.01,-0.05,0.05,-0.06,
4.232,0.32,0.62,-3.01,-0.08,0.05,-0.06,
4.233,0.33,0.56,-3.62,-0.08,0.05,-0.06,
4.233,0.33,0.56,-3.62,-0.13,0.05,-0.07,
4.234,0.33,0.56,-3.62,-0.17,0.05,-0.08,
4.234,0.33,0.56,-3.62,-0.24,0.05,-0.11,
4.234,0.33,0.56,-3.62,-0.29,0.05,-0.12,
4.235,0.33,0.56,-3.62,-0.31,0.05,-0.14,
4.235,0.90,0.62,-3.79,-0.31,0.05,-0.14,
4.235,0.90,0.62,-3.79,-0.35,0.05,-0.16,
4.235,0.90,0.62,-3.79,-0.39,0.05,-0.19,
4.236,0.90,0.62,-3.79,-0.44,0.05,-0.24,
4.236,0.90,0.62,-3.79,-0.46,0.04,-0.27,
4.236,0.90,0.62,-3.79,-0.48,0.04,-0.29,
4.236,1.43,0.58,-3.40,-0.48,0.04,-0.29,
4.237,1.43,0.58,-3.40,-0.50,0.04,-0.32,
4.237,1.43,0.58,-3.40,-0.52,0.04,-0.38,
4.237,1.43,0.58,-3.40,-0.53,0.04,-0.42,
4.238,1.43,0.58,-3.40,-0.54,0.04,-0.46,
4.238,1.43,0.58,-3.40,-0.54,0.04,-0.49,
4.238,1.68,0.55,-2.87,-0.54,0.04,-0.49,
4.238,1.68,0.55,-2.87,-0.54,0.05,-0.53,
4.239,1.68,0.55,-2.87,-0.54,0.05,-0.56,
4.245,1.68,0.55,-2.87,-0.54,0.05,-0.59,
4.246,1.68,0.55,-2.87,-0.53,0.05,-0.62,
4.265,1.68,0.55,-2.87,-0.52,0.06,-0.65,
4.265,1.32,0.34,-2.40,-0.52,0.06,-0.65,
4.265,1.32,0.34,-2.40,-0.51,0.06,-0.67,
4.266,1.32,0.34,-2.40,-0.50,0.07,-0.69,
4.266,1.32,0.34,-2.40,-0.49,0.07,-0.72,
4.266,1.32,0.34,-2.40,-0.48,0.08,-0.73,
4.266,1.32,0.34,-2.40,-0.46,0.09,-0.75,
4.267,0.85,0.11,-2.17,-0.46,0.09,-0.75,
4.267,0.85,0.11,-2.17,-0.44,0.09,-0.76,
4.267,0.85,0.11,-2.17,-0.43,0.10,-0.77,
4.267,0.85,0.11,-2.17,-0.41,0.11,-0.78,
4.267,0.85,0.11,-2.17,-0.39,0.11,-0.79,
4.268,0.85,0.11,-2.17,-0.37,0.12,-0.80,
4.268,0.33,-0.11,-2.09,-0.37,0.12,-0.80,
4.268,0.33,-0.11,-2.09,-0.35,0.13,-0.80,
4.27,0.33,-0.11,-2.09,-0.34,0.14,-0.80,
4.272,0.33,-0.11,-2.09,-0.32,0.15,-0.80,
4.28,0.33,-0.11,-2.09,-0.30,0.15,-0.80,
4.28,0.33,-0.11,-2.09,-0.29,0.16,-0.79,
4.281,-0.18,-0.26,-2.25,-0.29,0.16,-0.79,
4.281,-0.18,-0.26,-2.25,-0.27,0.16,-0.78,
4.281,-0.18,-0.26,-2.25,-0.25,0.16,-0.77,
4.281,-0.18,-0.26,-2.25,-0.24,0.16,-0.76,
4.282,-0.18,-0.26,-2.25,-0.23,0.15,-0.75,
4.291,-0.18,-0.26,-2.25,-0.22,0.15,-0.74,
4.292,-0.45,-0.37,-2.45,-0.22,0.15,-0.74,
4.292,-0.45,-0.37,-2.45,-0.21,0.14,-0.73,
4.292,-0.45,-0.37,-2.45,-0.20,0.13,-0.72,
4.292,-0.45,-0.37,-2.45,-0.19,0.12,-0.71,
4.293,-0.45,-0.37,-2.45,-0.18,0.11,-0.70,
4.295,-0.45,-0.37,-2.45,-0.16,0.11,-0.68,
4.297,-0.50,-0.36,-2.50,-0.16,0.11,-0.68,
4.297,-0.50,-0.36,-2.50,-0.15,0.10,-0.67,
4.299,-0.50,-0.36,-2.50,-0.13,0.09,-0.67,
4.307,-0.50,-0.36,-2.50,-0.11,0.08,-0.66,
4.308,-0.50,-0.36,-2.50,-0.10,0.07,-0.65,
4.308,-0.50,-0.36,-2.50,-0.08,0.06,-0.64,
4.308,-0.45,-0.30,-2.40,-0.08,0.06,-0.64,
4.308,-0.45,-0.30,-2.40,-0.06,0.05,-0.64,
4.31,-0.45,-0.30,-2.40,-0.05,0.03,-0.63,
4.312,-0.45,-0.30,-2.40,-0.03,0.01,-0.63,
4.314,-0.45,-0.30,-2.40,-0.02,-0.00,-0.62,
4.314,-0.45,-0.30,-2.40,-0.00,-0.03,-0.62,
4.335,-0.35,-0.25,-2.36,-0.00,-0.03,-0.62,
4.336,-0.35,-0.25,-2.36,0.02,-0.06,-0.61,
4.336,-0.35,-0.25,-2.36,0.03,-0.08,-0.61,
4.336,-0.35,-0.25,-2.36,0.04,-0.11,-0.60,
4.336,-0.35,-0.25,-2.36,0.05,-0.13,-0.60,
4.337,-0.35,-0.25,-2.36,0.07,-0.15,-0.60,
4.337,-0.33,-0.21,-2.28,0.07,-0.15,-0.60,
4.337,-0.33,-0.21,-2.28,0.08,-0.18,-0.59,
4.337,-0.33,-0.21,-2.28,0.09,-0.19,-0.59,
4.337,-0.33,-0.21,-2.28,0.10,-0.22,-0.58,
4.337,-0.33,-0.21,-2.28,0.12,-0.24,-0.57,
4.337,-0.33,-0.21,-2.28,0.12,-0.25,-0.57,
4.338,-0.36,-0.17,-2.14,0.12,-0.25,-0.57,
4.338,-0.36,-0.17,-2.14,0.13,-0.27,-0.56,
4.339,-0.36,-0.17,-2.14,0.14,-0.28,-0.56,
4.342,-0.36,-0.17,-2.14,0.15,-0.30,-0.55,
4.342,-0.36,-0.17,-2.14,0.16,-0.32,-0.54,
4.344,-0.36,-0.17,-2.14,0.16,-0.34,-0.54,
4.347,-0.32,-0.18,-1.99,0.16,-0.34,-0.54,
4.347,-0.32,-0.18,-1.99,0.17,-0.36,-0.53,
4.348,-0.32,-0.18,-1.99,0.17,-0.38,-0.53,
4.352,-0.32,-0.18,-1.99,0.17,-0.40,-0.52,
4.353,-0.32,-0.18,-1.99,0.17,-0.43,-0.52,
4.354,-0.32,-0.18,-1.99,0.17,-0.45,-0.52,
4.358,-0.27,-0.09,-1.79,0.17,-0.45,-0.52,
4.358,-0.27,-0.09,-1.79,0.17,-0.47,-0.51,
4.358,-0.27,-0.09,-1.79,0.16,-0.49,-0.51,
4.361,-0.27,-0.09,-1.79,0.16,-0.51,-0.51,
4.363,-0.27,-0.09,-1.79,0.15,-0.52,-0.51,
4.364,-0.27,-0.09,-1.79,0.15,-0.53,-0.50,
4.366,-0.22,-0.07,-1.44,0.15,-0.53,-0.50,
4.367,-0.22,-0.07,-1.44,0.15,-0.54,-0.50,
4.379,-0.22,-0.07,-1.44,0.14,-0.55,-0.50,
4.379,-0.22,-0.07,-1.44,0.14,-0.55,-0.50,
4.379,-0.22,-0.07,-1.44,0.13,-0.55,-0.50,
4.379,-0.22,-0.07,-1.44,0.12,-0.55,-0.49,
4.379,-0.17,-0.08,-1.02,0.12,-0.55,-0.49,
4.379,-0.17,-0.08,-1.02,0.12,-0.54,-0.49,
4.38,-0.17,-0.08,-1.02,0.12,-0.54,-0.49,
4.381,-0.17,-0.08,-1.02,0.11,-0.53,-0.49,
4.383,-0.17,-0.08,-1.02,0.11,-0.53,-0.49,
4.385,-0.17,-0.08,-1.02,0.11,-0.52,-0.48,
4.388,-0.22,-0.04,-0.56,0.11,-0.52,-0.48,
4.388,-0.22,-0.04,-0.56,0.10,-0.51,-0.48,
4.389,-0.22,-0.04,-0.56,0.10,-0.51,-0.47,
4.391,-0.22,-0.04,-0.56,0.10,-0.50,-0.46,
4.392,-0.22,-0.04,-0.56,0.10,-0.50,-0.46,
4.394,-0.22,-0.04,-0.56,0.10,-0.49,-0.45,
4.396,-0.29,-0.01,-0.09,0.10,-0.49,-0.45,
4.397,-0.29,-0.01,-0.09,0.09,-0.49,-0.45,
4.398,-0.29,-0.01,-0.09,0.09,-0.49,-0.45,
4.401,-0.29,-0.01,-0.09,0.09,-0.49,-0.44,
4.402,-0.29,-0.01,-0.09,0.10,-0.49,-0.44,
4.404,-0.29,-0.01,-0.09,0.10,-0.50,-0.44,
4.406,-0.28,0.07,0.37,0.10,-0.50,-0.44,
4.407,-0.28,0.07,0.37,0.10,-0.50,-0.43,
4.409,-0.28,0.07,0.37,0.10,-0.50,-0.43,
4.413,-0.28,0.07,0.37,0.10,-0.50,-0.43,
4.414,-0.28,0.07,0.37,0.10,-0.50,-0.43,
4.414,-0.28,0.07,0.37,0.09,-0.50,-0.43,
4.417,-0.27,0.30,0.82,0.09,-0.50,-0.43,
4.417,-0.27,0.30,0.82,0.10,-0.49,-0.43,
4.418,-0.27,0.30,0.82,0.10,-0.48,-0.43,
4.421,-0.27,0.30,0.82,0.09,-0.48,-0.44,
4.423,-0.27,0.30,0.82,0.09,-0.47,-0.44,
4.424,-0.27,0.30,0.82,0.08,-0.46,-0.44,
4.426,-0.23,0.42,1.04,0.08,-0.46,-0.44,
4.427,-0.23,0.42,1.04,0.07,-0.45,-0.45,
4.428,-0.23,0.42,1.04,0.05,-0.44,-0.45,
4.431,-0.23,0.42,1.04,0.04,-0.43,-0.46,
4.435,-0.23,0.42,1.04,0.02,-0.42,-0.47,
4.435,-0.23,0.42,1.04,-0.01,-0.41,-0.47,
4.436,-0.18,0.56,1.06,-0.01,-0.41,-0.47,
4.437,-0.18,0.56,1.06,-0.03,-0.40,-0.48,
4.438,-0.18,0.56,1.06,-0.06,-0.39,-0.49,
4.442,-0.18,0.56,1.06,-0.10,-0.37,-0.50,
4.443,-0.18,0.56,1.06,-0.11,-0.37,-0.50,
4.445,-0.18,0.56,1.06,-0.15,-0.35,-0.51,
4.447,-0.22,0.67,1.26,-0.15,-0.35,-0.51,
4.447,-0.22,0.67,1.26,-0.17,-0.33,-0.52,
4.451,-0.22,0.67,1.26,-0.20,-0.31,-0.52,
4.453,-0.22,0.67,1.26,-0.24,-0.28,-0.53,
4.453,-0.22,0.67,1.26,-0.25,-0.26,-0.53,
4.454,-0.22,0.67,1.26,-0.28,-0.23,-0.54,
4.457,-0.37,0.73,1.81,-0.28,-0.23,-0.54,
4.457,-0.37,0.73,1.81,-0.30,-0.20,-0.54,
4.458,-0.37,0.73,1.81,-0.32,-0.17,-0.54,
4.461,-0.37,0.73,1.81,-0.35,-0.12,-0.54,
4.462,-0.37,0.73,1.81,-0.35,-0.11,-0.54,
4.464,-0.37,0.73,1.81,-0.36,-0.07,-0.54,
4.47,-0.57,0.66,2.51,-0.36,-0.07,-0.54,
4.471,-0.57,0.66,2.51,-0.37,-0.03,-0.53,
4.472,-0.57,0.66,2.51,-0.38,0.02,-0.52,
4.472,-0.57,0.66,2.51,-0.38,0.09,-0.51,
4.472,-0.57,0.66,2.51,-0.38,0.11,-0.50,
4.475,-0.57,0.66,2.51,-0.37,0.16,-0.50,
4.476,-0.84,0.63,3.31,-0.37,0.16,-0.50,
4.477,-0.84,0.63,3.31,-0.36,0.21,-0.49,
4.479,-0.84,0.63,3.31,-0.35,0.26,-0.48,
4.482,-0.84,0.63,3.31,-0.33,0.34,-0.46,
4.483,-0.84,0.63,3.31,-0.32,0.36,-0.45,
4.489,-0.84,0.63,3.31,-0.30,0.41,-0.44,
4.489,-0.87,0.55,3.84,-0.30,0.41,-0.44,
4.489,-0.87,0.55,3.84,-0.28,0.45,-0.43,
4.49,-0.87,0.55,3.84,-0.25,0.50,-0.42,
4.492,-0.87,0.55,3.84,-0.22,0.56,-0.40,
4.493,-0.87,0.55,3.84,-0.20,0.58,-0.39,
4.494,-0.87,0.55,3.84,-0.18,0.61,-0.38,
4.497,-0.94,0.59,4.05,-0.18,0.61,-0.38,
4.497,-0.94,0.59,4.05,-0.14,0.64,-0.37,
4.5,-0.94,0.59,4.05,-0.12,0.67,-0.36,
4.502,-0.94,0.59,4.05,-0.07,0.71,-0.34,
4.504,-0.94,0.59,4.05,-0.06,0.73,-0.33,
4.505,-0.94,0.59,4.05,-0.03,0.74,-0.32,
4.509,-0.94,0.67,3.82,-0.03,0.74,-0.32,
4.509,-0.94,0.67,3.82,-0.00,0.76,-0.31,
4.51,-0.94,0.67,3.82,0.02,0.78,-0.30,
4.511,-0.94,0.67,3.82,0.05,0.79,-0.28,
4.513,-0.94,0.67,3.82,0.06,0.80,-0.28,
4.515,-0.94,0.67,3.82,0.08,0.80,-0.27,
4.521,-0.97,0.77,3.20,0.08,0.80,-0.27,
4.522,-0.97,0.77,3.20,0.10,0.80,-0.25,
4.522,-0.97,0.77,3.20,0.11,0.80,-0.25,
4.522,-0.97,0.77,3.20,0.12,0.79,-0.23,
4.526,-0.97,0.77,3.20,0.13,0.79,-0.23,
4.526,-0.97,0.77,3.20,0.13,0.79,-0.22,
4.527,-0.98,0.87,2.52,0.13,0.79,-0.22,
4.527,-0.98,0.87,2.52,0.13,0.78,-0.21,
4.529,-0.98,0.87,2.52,0.14,0.78,-0.20,
4.532,-0.98,0.87,2.52,0.13,0.77,-0.19,
4.533,-0.98,0.87,2.52,0.13,0.77,-0.19,
4.537,-0.98,0.87,2.52,0.13,0.77,-0.18,
4.566,-1.01,1.01,1.88,0.13,0.77,-0.18,
4.566,-1.01,1.01,1.88,0.12,0.76,-0.17,
4.567,-1.01,1.01,1.88,0.11,0.76,-0.16,
4.567,-1.01,1.01,1.88,0.10,0.74,-0.15,
4.567,-1.01,1.01,1.88,0.10,0.74,-0.15,
4.568,-1.01,1.01,1.88,0.09,0.72,-0.14,
4.568,-1.10,1.06,1.42,0.09,0.72,-0.14,
4.569,-1.10,1.06,1.42,0.07,0.70,-0.13,
4.569,-1.10,1.06,1.42,0.06,0.68,-0.12,
4.569,-1.10,1.06,1.42,0.03,0.64,-0.10,
4.57,-1.10,1.06,1.42,0.02,0.63,-0.10,
4.57,-1.10,1.06,1.42,-0.00,0.60,-0.09,
4.571,-1.17,1.17,1.04,-0.00,0.60,-0.09,
4.571,-1.17,1.17,1.04,-0.02,0.56,-0.08,
4.572,-1.17,1.17,1.04,-0.05,0.53,-0.08,
4.572,-1.17,1.17,1.04,-0.09,0.46,-0.07,
4.572,-1.17,1.17,1.04,-0.11,0.44,-0.07,
4.573,-1.17,1.17,1.04,-0.14,0.39,-0.07,
4.573,-0.95,1.20,0.80,-0.14,0.39,-0.07,
4.574,-0.95,1.20,0.80,-0.17,0.34,-0.07,
4.574,-0.95,1.20,0.80,-0.21,0.28,-0.07,
4.574,-0.95,1.20,0.80,-0.26,0.20,-0.07,
4.575,-0.95,1.20,0.80,-0.28,0.17,-0.07,
4.575,-0.95,1.20,0.80,-0.31,0.11,-0.07,
4.583,-0.63,1.17,1.08,-0.31,0.11,-0.07,
4.583,-0.63,1.17,1.08,-0.33,0.06,-0.08,
4.584,-0.63,1.17,1.08,-0.36,0.02,-0.09,
4.584,-0.63,1.17,1.08,-0.38,-0.04,-0.10,
4.584,-0.63,1.17,1.08,-0.39,-0.06,-0.10,
4.585,-0.63,1.17,1.08,-0.41,-0.08,-0.11,
4.587,-0.38,1.02,2.13,-0.41,-0.08,-0.11,
4.587,-0.38,1.02,2.13,-0.42,-0.10,-0.11,
4.589,-0.38,1.02,2.13,-0.42,-0.11,-0.12,
4.592,-0.38,1.02,2.13,-0.42,-0.11,-0.13,
4.593,-0.38,1.02,2.13,-0.41,-0.11,-0.13,
4.595,-0.38,1.02,2.13,-0.41,-0.09,-0.14,
4.597,-0.36,0.76,3.35,-0.41,-0.09,-0.14,
4.597,-0.36,0.76,3.35,-0.39,-0.06,-0.14,
4.605,-0.36,0.76,3.35,-0.37,-0.03,-0.14,
4.606,-0.36,0.76,3.35,-0.34,0.04,-0.13,
4.606,-0.36,0.76,3.35,-0.32,0.07,-0.13,
4.606,-0.36,0.76,3.35,-0.29,0.13,-0.13,
4.607,-0.56,0.49,4.38,-0.29,0.13,-0.13,
4.607,-0.56,0.49,4.38,-0.25,0.19,-0.12,
4.608,-0.56,0.49,4.38,-0.21,0.27,-0.11,
4.641,-0.56,0.49,4.38,-0.15,0.37,-0.09,
4.642,-0.56,0.49,4.38,-0.13,0.41,-0.08,
4.642,-0.56,0.49,4.38,-0.08,0.48,-0.07,
4.642,-0.88,0.15,4.86,-0.08,0.48,-0.07,
4.642,-0.88,0.15,4.86,-0.04,0.54,-0.05,
4.642,-0.88,0.15,4.86,0.01,0.60,-0.03,
4.643,-0.88,0.15,4.86,0.08,0.68,0.00,
4.643,-0.88,0.15,4.86,0.10,0.70,0.02,
4.643,-0.88,0.15,4.86,0.14,0.75,0.04,
4.643,-1.15,-0.03,4.53,0.14,0.75,0.04,
4.644,-1.15,-0.03,4.53,0.19,0.79,0.06,
4.644,-1.15,-0.03,4.53,0.22,0.83,0.09,
4.644,-1.15,-0.03,4.53,0.28,0.87,0.12,
4.644,-1.15,-0.03,4.53,0.30,0.88,0.13,
4.645,-1.15,-0.03,4.53,0.32,0.89,0.15,
4.645,-1.28,-0.10,3.50,0.32,0.89,0.15,
4.645,-1.28,-0.10,3.50,0.35,0.90,0.17,
4.645,-1.28,-0.10,3.50,0.37,0.89,0.19,
4.645,-1.28,-0.10,3.50,0.40,0.88,0.21,
4.646,-1.28,-0.10,3.50,0.41,0.87,0.22,
4.646,-1.28,-0.10,3.50,0.43,0.85,0.23,
4.649,-1.22,-0.07,2.30,0.43,0.85,0.23,
4.65,-1.22,-0.07,2.30,0.44,0.82,0.25,
4.65,-1.22,-0.07,2.30,0.45,0.79,0.26,
4.652,-1.22,-0.07,2.30,0.47,0.75,0.28,
4.654,-1.22,-0.07,2.30,0.48,0.73,0.29,
4.659,-1.22,-0.07,2.30,0.49,0.69,0.30,
4.659,-1.15,-0.03,1.34,0.49,0.69,0.30,
4.659,-1.15,-0.03,1.34,0.49,0.66,0.31,
4.66,-1.15,-0.03,1.34,0.50,0.62,0.31,
4.662,-1.15,-0.03,1.34,0.51,0.56,0.33,
4.663,-1.15,-0.03,1.34,0.51,0.54,0.33,
4.67,-1.15,-0.03,1.34,0.52,0.50,0.33,
4.671,-0.92,0.02,0.58,0.52,0.50,0.33,
4.671,-0.92,0.02,0.58,0.52,0.46,0.34,
4.672,-0.92,0.02,0.58,0.52,0.42,0.34,
4.673,-0.92,0.02,0.58,0.52,0.36,0.35,
4.674,-0.92,0.02,0.58,0.52,0.34,0.35,
4.675,-0.92,0.02,0.58,0.52,0.30,0.35,
4.677,-0.69,-0.02,-0.01,0.52,0.30,0.35,
4.678,-0.69,-0.02,-0.01,0.52,0.27,0.35,
4.679,-0.69,-0.02,-0.01,0.51,0.23,0.35,
4.683,-0.69,-0.02,-0.01,0.51,0.18,0.34,
4.689,-0.69,-0.02,-0.01,0.51,0.14,0.34,
4.689,-0.69,-0.02,-0.01,0.51,0.13,0.34,
4.69,-0.43,-0.09,-0.44,0.51,0.13,0.34,
4.691,-0.43,-0.09,-0.44,0.50,0.09,0.33,
4.693,-0.43,-0.09,-0.44,0.50,0.06,0.33,
4.694,-0.43,-0.09,-0.44,0.50,0.02,0.32,
4.694,-0.43,-0.09,-0.44,0.50,0.01,0.32,
4.694,-0.43,-0.09,-0.44,0.50,-0.01,0.31,
4.697,-0.35,-0.18,-0.65,0.50,-0.01,0.31,
4.698,-0.35,-0.18,-0.65,0.50,-0.04,0.31,
4.702,-0.35,-0.18,-0.65,0.49,-0.06,0.31,
4.702,-0.35,-0.18,-0.65,0.49,-0.08,0.30,
4.72,-0.35,-0.18,-0.65,0.49,-0.08,0.30,
4.72,-0.35,-0.18,-0.65,0.49,-0.10,0.30,
4.72,-0.29,-0.31,-0.90,0.49,-0.10,0.30,
4.72,-0.29,-0.31,-0.90,0.48,-0.10,0.30,
4.721,-0.29,-0.31,-0.90,0.48,-0.11,0.30,
4.721,-0.29,-0.31,-0.90,0.48,-0.11,0.30,
4.721,-0.29,-0.31,-0.90,0.48,-0.11,0.30,
4.721,-0.29,-0.31,-0.90,0.47,-0.10,0.30,
4.721,-0.23,-0.48,-1.16,0.47,-0.10,0.30,
4.722,-0.23,-0.48,-1.16,0.47,-0.10,0.30,
4.722,-0.23,-0.48,-1.16,0.47,-0.09,0.31,
4.722,-0.23,-0.48,-1.16,0.46,-0.08,0.31,
4.722,-0.23,-0.48,-1.16,0.46,-0.07,0.31,
4.725,-0.23,-0.48,-1.16,0.46,-0.06,0.31,
4.727,-0.14,-0.68,-1.47,0.46,-0.06,0.31,
4.727,-0.14,-0.68,-1.47,0.45,-0.05,0.32,
4.729,-0.14,-0.68,-1.47,0.45,-0.04,0.32,
4.735,-0.14,-0.68,-1.47,0.44,-0.02,0.32,
4.737,-0.14,-0.68,-1.47,0.44,-0.02,0.32,
4.738,-0.14,-0.68,-1.47,0.44,-0.00,0.32,
4.738,-0.02,-0.83,-1.80,0.44,-0.00,0.32,
4.738,-0.02,-0.83,-1.80,0.43,0.01,0.32,
4.739,-0.02,-0.83,-1.80,0.43,0.02,0.32,
4.743,-0.02,-0.83,-1.80,0.43,0.04,0.32,
4.745,-0.02,-0.83,-1.80,0.42,0.05,0.32,
4.745,-0.02,-0.83,-1.80,0.42,0.06,0.31,
4.747,0.10,-0.89,-2.22,0.42,0.06,0.31,
4.747,0.10,-0.89,-2.22,0.42,0.07,0.31,
4.774,0.10,-0.89,-2.22,0.41,0.08,0.31,
4.774,0.10,-0.89,-2.22,0.41,0.09,0.30,
4.774,0.10,-0.89,-2.22,0.42,0.10,0.30,
4.775,0.10,-0.89,-2.22,0.40,0.12,0.29,
4.775,0.23,-0.95,-2.76,0.40,0.12,0.29,
4.775,0.23,-0.95,-2.76,0.39,0.12,0.28,
4.775,0.23,-0.95,-2.76,0.38,0.13,0.27,
4.775,0.23,-0.95,-2.76,0.36,0.15,0.26,
4.775,0.23,-0.95,-2.76,0.36,0.15,0.25,
4.775,0.23,-0.95,-2.76,0.35,0.16,0.24,
4.776,0.37,-1.00,-3.38,0.35,0.16,0.24,
4.776,0.37,-1.00,-3.38,0.33,0.17,0.23,
4.776,0.37,-1.00,-3.38,0.32,0.18,0.22,
4.776,0.37,-1.00,-3.38,0.30,0.19,0.20,
4.776,0.37,-1.00,-3.38,0.29,0.19,0.19,
4.776,0.37,-1.00,-3.38,0.27,0.20,0.18,
4.778,0.53,-1.08,-4.06,0.27,0.20,0.18,
4.778,0.53,-1.08,-4.06,0.26,0.21,0.16,
4.778,0.53,-1.08,-4.06,0.24,0.21,0.15,
4.786,0.53,-1.08,-4.06,0.21,0.22,0.13,
4.788,0.53,-1.08,-4.06,0.20,0.23,0.12,
4.788,0.53,-1.08,-4.06,0.18,0.23,0.11,
4.789,0.51,-1.17,-4.60,0.18,0.23,0.11,
4.789,0.51,-1.17,-4.60,0.15,0.24,0.10,
4.79,0.51,-1.17,-4.60,0.14,0.24,0.08,
4.792,0.51,-1.17,-4.60,0.10,0.26,0.06,
4.793,0.51,-1.17,-4.60,0.09,0.26,0.05,
4.795,0.51,-1.17,-4.60,0.07,0.27,0.04,
4.797,0.43,-1.24,-5.00,0.07,0.27,0.04,
4.798,0.43,-1.24,-5.00,0.05,0.27,0.03,
4.801,0.43,-1.24,-5.00,0.04,0.27,0.02,
4.802,0.43,-1.24,-5.00,0.00,0.27,0.00,
4.803,0.43,-1.24,-5.00,-0.01,0.27,-0.01,
4.805,0.43,-1.24,-5.00,-0.03,0.27,-0.02,
4.807,0.23,-1.29,-5.29,-0.03,0.27,-0.02,
4.807,0.23,-1.29,-5.29,-0.05,0.26,-0.02,
4.809,0.23,-1.29,-5.29,-0.07,0.26,-0.03,
4.812,0.23,-1.29,-5.29,-0.10,0.24,-0.05,
4.813,0.23,-1.29,-5.29,-0.11,0.24,-0.05,
4.815,0.23,-1.29,-5.29,-0.13,0.23,-0.05,
4.818,-0.08,-1.36,-5.34,-0.13,0.23,-0.05,
4.818,-0.08,-1.36,-5.34,-0.14,0.22,-0.06,
4.819,-0.08,-1.36,-5.34,-0.16,0.21,-0.06,
4.822,-0.08,-1.36,-5.34,-0.17,0.19,-0.06,
4.823,-0.08,-1.36,-5.34,-0.18,0.19,-0.06,
4.825,-0.08,-1.36,-5.34,-0.19,0.18,-0.06,
4.827,-0.36,-1.45,-5.09,-0.19,0.18,-0.06,
4.828,-0.36,-1.45,-5.09,-0.19,0.17,-0.06,
4.829,-0.36,-1.45,-5.09,-0.20,0.16,-0.05,
4.841,-0.36,-1.45,-5.09,-0.21,0.14,-0.04,
4.842,-0.36,-1.45,-5.09,-0.20,0.14,-0.04,
4.842,-0.36,-1.45,-5.09,-0.20,0.12,-0.03,
4.842,-0.68,-1.56,-4.67,-0.20,0.12,-0.03,
4.843,-0.68,-1.56,-4.67,-0.20,0.11,-0.02,
4.843,-0.68,-1.56,-4.67,-0.20,0.10,-0.01,
4.843,-0.68,-1.56,-4.67,-0.19,0.08,0.01,
4.843,-0.68,-1.56,-4.67,-0.19,0.07,0.02,
4.845,-0.68,-1.56,-4.67,-0.18,0.06,0.03,
4.873,-0.85,-1.57,-4.21,-0.18,0.06,0.03,
4.874,-0.85,-1.57,-4.21,-0.18,0.04,0.05,
4.875,-0.85,-1.57,-4.21,-0.17,0.02,0.06,
4.875,-0.85,-1.57,-4.21,-0.16,-0.02,0.09,
4.876,-0.85,-1.57,-4.21,-0.16,-0.03,0.09,
4.876,-0.85,-1.57,-4.21,-0.15,-0.05,0.11,
4.877,-0.91,-1.52,-3.77,-0.15,-0.05,0.11,
4.878,-0.91,-1.52,-3.77,-0.14,-0.07,0.12,
4.879,-0.91,-1.52,-3.77,-0.13,-0.09,0.13,
4.879,-0.91,-1.52,-3.77,-0.12,-0.12,0.15,
4.88,-0.91,-1.52,-3.77,-0.11,-0.14,0.16,
4.88,-0.91,-1.52,-3.77,-0.11,-0.16,0.17,
4.881,-0.78,-1.37,-3.30,-0.11,-0.16,0.17,
4.881,-0.78,-1.37,-3.30,-0.09,-0.18,0.18,
4.917,-0.78,-1.37,-3.30,-0.09,-0.21,0.18,
4.918,-0.78,-1.37,-3.30,-0.07,-0.24,0.20,
4.919,-0.78,-1.37,-3.30,-0.07,-0.25,0.20,
4.92,-0.78,-1.37,-3.30,-0.06,-0.27,0.21,
4.92,-0.71,-1.19,-2.81,-0.06,-0.27,0.21,
4.921,-0.71,-1.19,-2.81,-0.05,-0.29,0.21,
4.921,-0.71,-1.19,-2.81,-0.04,-0.30,0.22,
4.922,-0.71,-1.19,-2.81,-0.03,-0.33,0.22,
4.923,-0.71,-1.19,-2.81,-0.02,-0.33,0.23,
4.924,-0.71,-1.19,-2.81,-0.02,-0.35,0.23,
4.924,-0.59,-1.05,-2.32,-0.02,-0.35,0.23,
4.925,-0.59,-1.05,-2.32,-0.01,-0.37,0.23,
4.928,-0.59,-1.05,-2.32,-0.01,-0.39,0.23,
4.928,-0.59,-1.05,-2.32,-0.00,-0.43,0.23,
4.929,-0.59,-1.05,-2.32,-0.00,-0.44,0.24,
4.929,-0.59,-1.05,-2.32,0.00,-0.46,0.24,
4.93,-0.74,-1.01,-1.61,0.00,-0.46,0.24,
4.93,-0.74,-1.01,-1.61,0.01,-0.48,0.25,
4.93,-0.74,-1.01,-1.61,0.02,-0.49,0.25,
4.931,-0.74,-1.01,-1.61,0.04,-0.51,0.27,
4.931,-0.74,-1.01,-1.61,0.04,-0.51,0.27,
4.931,-0.74,-1.01,-1.61,0.05,-0.52,0.28,
4.932,-0.89,-1.01,-0.62,0.05,-0.52,0.28,
4.932,-0.89,-1.01,-0.62,0.07,-0.52,0.30,
4.932,-0.89,-1.01,-0.62,0.08,-0.53,0.31,
4.933,-0.89,-1.01,-0.62,0.11,-0.54,0.33,
4.933,-0.89,-1.01,-0.62,0.12,-0.54,0.34,
4.933,-0.89,-1.01,-0.62,0.13,-0.54,0.36,
4.934,-1.08,-1.06,0.28,0.13,-0.54,0.36,
4.934,-1.08,-1.06,0.28,0.15,-0.55,0.38,
4.934,-1.08,-1.06,0.28,0.16,-0.56,0.40,
4.935,-1.08,-1.06,0.28,0.18,-0.59,0.43,
4.935,-1.08,-1.06,0.28,0.19,-0.60,0.44,
4.936,-1.08,-1.06,0.28,0.19,-0.62,0.46,
4.936,-1.25,-1.02,1.06,0.19,-0.62,0.46,
4.936,-1.25,-1.02,1.06,0.19,-0.63,0.48,
4.937,-1.25,-1.02,1.06,0.21,-0.65,0.51,
4.937,-1.25,-1.02,1.06,0.22,-0.67,0.54,
4.937,-1.25,-1.02,1.06,0.23,-0.67,0.56,
4.938,-1.25,-1.02,1.06,0.23,-0.68,0.59,
4.938,-1.40,-1.10,1.91,0.23,-0.68,0.59,
4.938,-1.40,-1.10,1.91,0.24,-0.69,0.61,
4.939,-1.40,-1.10,1.91,0.25,-0.69,0.64,
4.952,-1.40,-1.10,1.91,0.26,-0.68,0.68,
4.952,-1.40,-1.10,1.91,0.26,-0.68,0.70,
4.952,-1.40,-1.10,1.91,0.27,-0.68,0.73,
4.952,-1.27,-1.07,2.70,0.27,-0.68,0.73,
4.953,-1.27,-1.07,2.70,0.28,-0.67,0.76,
4.953,-1.27,-1.07,2.70,0.28,-0.66,0.79,
4.953,-1.27,-1.07,2.70,0.28,-0.64,0.83,
4.953,-1.27,-1.07,2.70,0.28,-0.63,0.84,
4.955,-1.27,-1.07,2.70,0.28,-0.62,0.86,
4.96,-0.83,-0.97,3.40,0.28,-0.62,0.86,
4.96,-0.83,-0.97,3.40,0.28,-0.60,0.88,
4.96,-0.83,-0.97,3.40,0.27,-0.59,0.90,
4.962,-0.83,-0.97,3.40,0.27,-0.56,0.91,
4.963,-0.83,-0.97,3.40,0.26,-0.55,0.91,
4.969,-0.83,-0.97,3.40,0.26,-0.53,0.92,
4.969,-0.02,-0.60,3.90,0.26,-0.53,0.92,
4.969,-0.02,-0.60,3.90,0.25,-0.51,0.92,
4.97,-0.02,-0.60,3.90,0.25,-0.48,0.91,
4.972,-0.02,-0.60,3.90,0.24,-0.45,0.90,
4.972,-0.02,-0.60,3.90,0.23,-0.43,0.89,
4.975,-0.02,-0.60,3.90,0.23,-0.40,0.88,
4.977,0.86,-0.20,4.20,0.23,-0.40,0.88,
4.977,0.86,-0.20,4.20,0.22,-0.38,0.86,
4.982,0.86,-0.20,4.20,0.21,-0.35,0.84,
4.982,0.86,-0.20,4.20,0.20,-0.31,0.80,
4.983,0.86,-0.20,4.20,0.19,-0.29,0.79,
4.991,0.86,-0.20,4.20,0.18,-0.26,0.76,
4.992,1.41,0.06,4.21,0.18,-0.26,0.76,
4.992,1.41,0.06,4.21,0.18,-0.23,0.74,
4.992,1.41,0.06,4.21,0.16,-0.19,0.71,
4.992,1.41,0.06,4.21,0.14,-0.14,0.68,
4.994,1.41,0.06,4.21,0.13,-0.12,0.66,
5.023,1.41,0.06,4.21,0.11,-0.09,0.64,
5.024,1.59,0.23,3.83,0.11,-0.09,0.64,
5.024,1.59,0.23,3.83,0.09,-0.06,0.62,
5.024,1.59,0.23,3.83,0.07,-0.02,0.60,
5.024,1.59,0.23,3.83,0.03,0.02,0.57,
5.024,1.59,0.23,3.83,0.01,0.04,0.56,
5.025,1.59,0.23,3.83,-0.02,0.06,0.54,
5.025,1.35,0.30,3.23,-0.02,0.06,0.54,
5.025,1.35,0.30,3.23,-0.05,0.09,0.53,
5.025,1.35,0.30,3.23,-0.07,0.11,0.51,
