
time,ax,ay,az,wx,wy,wz,
0.007,0.24,-0.06,-1.27,-0.12,-0.19,0.80,
0.008,0.24,-0.06,-1.27,-0.13,-0.20,0.79,
0.009,0.35,-0.10,-0.80,-0.13,-0.20,0.79,
0.009,0.35,-0.10,-0.80,-0.14,-0.20,0.79,
0.01,0.35,-0.10,-0.80,-0.15,-0.20,0.78,
0.011,0.35,-0.10,-0.80,-0.16,-0.19,0.77,
0.011,0.35,-0.10,-0.80,-0.17,-0.19,0.77,
0.012,0.35,-0.10,-0.80,-0.17,-0.18,0.76,
0.012,0.66,-0.08,-0.45,-0.17,-0.18,0.76,
0.015,0.66,-0.08,-0.45,-0.19,-0.17,0.74,
0.016,0.66,-0.08,-0.45,-0.18,-0.16,0.73,
0.016,0.66,-0.08,-0.45,-0.19,-0.15,0.71,
0.016,0.66,-0.08,-0.45,-0.19,-0.15,0.70,
0.016,0.66,-0.08,-0.45,-0.19,-0.15,0.69,
0.017,0.92,-0.05,-0.14,-0.19,-0.15,0.69,
0.017,0.92,-0.05,-0.14,-0.19,-0.14,0.67,
0.017,0.92,-0.05,-0.14,-0.19,-0.14,0.65,
0.026,0.92,-0.05,-0.14,-0.18,-0.14,0.63,
0.026,0.92,-0.05,-0.14,-0.18,-0.14,0.61,
0.026,0.92,-0.05,-0.14,-0.19,-0.13,0.60,
0.027,0.97,0.04,0.04,-0.19,-0.13,0.60,
0.027,0.97,0.04,0.04,-0.19,-0.13,0.59,
0.027,0.97,0.04,0.04,-0.18,-0.13,0.58,
0.028,0.97,0.04,0.04,-0.19,-0.13,0.55,
0.029,0.97,0.04,0.04,-0.18,-0.13,0.54,
0.033,0.97,0.04,0.04,-0.18,-0.13,0.53,
0.036,0.87,0.08,0.10,-0.18,-0.13,0.53,
0.037,0.87,0.08,0.10,-0.18,-0.14,0.52,
0.037,0.87,0.08,0.10,-0.18,-0.15,0.51,
0.048,0.87,0.08,0.10,-0.18,-0.16,0.50,
0.048,0.87,0.08,0.10,-0.18,-0.17,0.49,
0.049,0.87,0.08,0.10,-0.18,-0.18,0.48,
0.049,0.75,0.11,0.09,-0.18,-0.18,0.48,
0.049,0.75,0.11,0.09,-0.19,-0.19,0.47,
0.05,0.75,0.11,0.09,-0.19,-0.21,0.46,
0.05,0.75,0.11,0.09,-0.20,-0.23,0.45,
0.05,0.75,0.11,0.09,-0.20,-0.24,0.44,
0.052,0.75,0.11,0.09,-0.20,-0.25,0.44,
0.054,0.56,0.12,0.13,-0.20,-0.25,0.44,
0.055,0.56,0.12,0.13,-0.21,-0.27,0.43,
0.066,0.56,0.12,0.13,-0.22,-0.28,0.43,
0.066,0.56,0.12,0.13,-0.23,-0.29,0.42,
0.067,0.56,0.12,0.13,-0.23,-0.30,0.42,
0.067,0.56,0.12,0.13,-0.23,-0.30,0.42,
0.067,0.37,0.11,0.31,-0.23,-0.30,0.42,
0.067,0.37,0.11,0.31,-0.24,-0.31,0.42,
0.068,0.37,0.11,0.31,-0.24,-0.31,0.42,
0.068,0.37,0.11,0.31,-0.25,-0.31,0.42,
0.099,0.37,0.11,0.31,-0.25,-0.31,0.42,
0.1,0.37,0.11,0.31,-0.25,-0.31,0.43,
0.1,0.31,-0.03,0.59,-0.25,-0.31,0.43,
0.1,0.31,-0.03,0.59,-0.26,-0.30,0.43,
0.1,0.31,-0.03,0.59,-0.26,-0.29,0.43,
0.1,0.31,-0.03,0.59,-0.26,-0.28,0.44,
0.101,0.31,-0.03,0.59,-0.27,-0.28,0.45,
0.101,0.31,-0.03,0.59,-0.27,-0.27,0.45,
0.101,0.32,-0.17,0.83,-0.27,-0.27,0.45,
0.101,0.32,-0.17,0.83,-0.27,-0.26,0.46,
0.101,0.32,-0.17,0.83,-0.27,-0.25,0.47,
0.102,0.32,-0.17,0.83,-0.26,-0.23,0.49,
0.102,0.32,-0.17,0.83,-0.25,-0.22,0.50,
0.102,0.32,-0.17,0.83,-0.25,-0.22,0.51,
0.102,0.19,-0.25,1.16,-0.25,-0.22,0.51,
0.102,0.19,-0.25,1.16,-0.24,-0.21,0.52,
0.103,0.19,-0.25,1.16,-0.23,-0.20,0.54,
0.103,0.19,-0.25,1.16,-0.23,-0.21,0.58,
0.103,0.19,-0.25,1.16,-0.22,-0.20,0.60,
0.103,0.19,-0.25,1.16,-0.22,-0.19,0.61,
0.116,-0.03,-0.24,1.22,-0.22,-0.19,0.61,
0.121,-0.03,-0.24,1.22,-0.21,-0.18,0.63,
0.122,-0.03,-0.24,1.22,-0.19,-0.16,0.65,
0.14,-0.03,-0.24,1.22,-0.15,-0.14,0.68,
0.14,-0.03,-0.24,1.22,-0.13,-0.13,0.69,
0.14,-0.03,-0.24,1.22,-0.12,-0.13,0.70,
0.14,0.15,-0.19,1.44,-0.12,-0.13,0.70,
0.141,0.15,-0.19,1.44,-0.09,-0.13,0.71,
0.141,0.15,-0.19,1.44,-0.06,-0.12,0.72,
0.141,0.15,-0.19,1.44,-0.01,-0.12,0.74,
0.141,0.15,-0.19,1.44,0.02,-0.11,0.75,
0.141,0.15,-0.19,1.44,0.04,-0.11,0.75,
0.142,0.40,-0.00,1.45,0.04,-0.11,0.75,
0.142,0.40,-0.00,1.45,0.06,-0.11,0.75,
0.142,0.40,-0.00,1.45,0.09,-0.11,0.76,
0.142,0.40,-0.00,1.45,0.11,-0.12,0.77,
0.142,0.40,-0.00,1.45,0.14,-0.12,0.77,
0.143,0.40,-0.00,1.45,0.14,-0.12,0.77,
0.143,0.62,0.19,1.05,0.14,-0.12,0.77,
0.143,0.62,0.19,1.05,0.15,-0.13,0.77,
0.143,0.62,0.19,1.05,0.16,-0.14,0.77,
0.143,0.62,0.19,1.05,0.16,-0.16,0.77,
0.144,0.62,0.19,1.05,0.13,-0.17,0.76,
0.144,0.62,0.19,1.05,0.12,-0.18,0.75,
0.144,1.13,0.20,0.18,0.12,-0.18,0.75,
0.144,1.13,0.20,0.18,0.09,-0.19,0.74,
0.147,1.13,0.20,0.18,0.06,-0.22,0.73,
0.15,1.13,0.20,0.18,0.01,-0.24,0.71,
0.151,1.13,0.20,0.18,-0.03,-0.26,0.69,
0.151,1.13,0.20,0.18,-0.05,-0.27,0.68,
0.158,1.53,0.19,-0.54,-0.05,-0.27,0.68,
0.158,1.53,0.19,-0.54,-0.09,-0.29,0.66,
0.159,1.53,0.19,-0.54,-0.14,-0.32,0.64,
0.159,1.53,0.19,-0.54,-0.20,-0.35,0.61,
0.159,1.53,0.19,-0.54,-0.24,-0.38,0.59,
0.161,1.53,0.19,-0.54,-0.26,-0.39,0.58,
0.163,1.90,0.41,-0.45,-0.26,-0.39,0.58,
0.163,1.90,0.41,-0.45,-0.30,-0.42,0.55,
0.165,1.90,0.41,-0.45,-0.34,-0.44,0.52,
0.19,1.90,0.41,-0.45,-0.40,-0.48,0.48,
0.191,1.90,0.41,-0.45,-0.42,-0.50,0.45,
0.191,1.90,0.41,-0.45,-0.44,-0.52,0.43,
0.191,2.14,0.51,0.16,-0.44,-0.52,0.43,
0.191,2.14,0.51,0.16,-0.47,-0.54,0.40,
0.192,2.14,0.51,0.16,-0.50,-0.56,0.37,
0.192,2.14,0.51,0.16,-0.55,-0.59,0.32,
0.192,2.14,0.51,0.16,-0.56,-0.61,0.29,
0.192,2.14,0.51,0.16,-0.57,-0.61,0.28,
0.192,2.27,0.37,1.09,-0.57,-0.61,0.28,
0.192,2.27,0.37,1.09,-0.59,-0.63,0.25,
0.193,2.27,0.37,1.09,-0.60,-0.64,0.23,
0.193,2.27,0.37,1.09,-0.61,-0.65,0.20,
0.193,2.27,0.37,1.09,-0.61,-0.65,0.18,
0.193,2.27,0.37,1.09,-0.61,-0.64,0.17,
0.193,2.08,0.09,2.30,-0.61,-0.64,0.17,
0.194,2.08,0.09,2.30,-0.61,-0.63,0.16,
0.217,2.08,0.09,2.30,-0.61,-0.62,0.15,
0.217,2.08,0.09,2.30,-0.59,-0.58,0.13,
0.217,2.08,0.09,2.30,-0.57,-0.56,0.12,
0.218,2.08,0.09,2.30,-0.56,-0.55,0.12,
0.218,2.03,-0.31,3.23,-0.56,-0.55,0.12,
0.218,2.03,-0.31,3.23,-0.54,-0.53,0.11,
0.218,2.03,-0.31,3.23,-0.53,-0.50,0.10,
0.218,2.03,-0.31,3.23,-0.52,-0.47,0.11,
0.219,2.03,-0.31,3.23,-0.51,-0.45,0.11,
0.219,2.03,-0.31,3.23,-0.49,-0.41,0.11,
0.219,2.03,-0.31,3.23,-0.47,-0.37,0.11,
0.219,1.82,-0.62,3.52,-0.47,-0.37,0.11,
0.219,1.82,-0.62,3.52,-0.45,-0.33,0.11,
0.219,1.82,-0.62,3.52,-0.44,-0.29,0.11,
0.22,1.82,-0.62,3.52,-0.40,-0.24,0.12,
0.223,1.82,-0.62,3.52,-0.37,-0.20,0.12,
0.224,1.67,-0.93,3.70,-0.37,-0.20,0.12,
0.224,1.67,-0.93,3.70,-0.34,-0.16,0.12,
0.225,1.67,-0.93,3.70,-0.32,-0.13,0.13,
0.228,1.67,-0.93,3.70,-0.31,-0.09,0.13,
0.229,1.67,-0.93,3.70,-0.26,-0.05,0.14,
0.231,1.67,-0.93,3.70,-0.23,-0.01,0.15,
0.235,1.43,-1.01,3.52,-0.23,-0.01,0.15,
0.236,1.43,-1.01,3.52,-0.21,0.03,0.15,
0.237,1.43,-1.01,3.52,-0.19,0.06,0.16,
0.239,1.43,-1.01,3.52,-0.17,0.10,0.17,
0.241,1.43,-1.01,3.52,-0.14,0.13,0.18,
0.241,1.43,-1.01,3.52,-0.12,0.16,0.18,
0.243,1.35,-0.99,2.89,-0.12,0.16,0.18,
0.244,1.35,-0.99,2.89,-0.12,0.18,0.19,
0.245,1.35,-0.99,2.89,-0.10,0.21,0.20,
0.252,1.35,-0.99,2.89,-0.09,0.23,0.20,
0.254,1.35,-0.99,2.89,-0.09,0.25,0.21,
0.254,1.35,-0.99,2.89,-0.08,0.26,0.21,
0.254,1.38,-0.88,2.04,-0.08,0.26,0.21,
0.254,1.38,-0.88,2.04,-0.09,0.28,0.21,
0.255,1.38,-0.88,2.04,-0.10,0.29,0.21,
0.258,1.38,-0.88,2.04,-0.10,0.30,0.22,
0.259,1.38,-0.88,2.04,-0.10,0.31,0.22,
0.261,1.38,-0.88,2.04,-0.11,0.32,0.22,
0.265,1.45,-0.84,1.34,-0.11,0.32,0.22,
0.266,1.45,-0.84,1.34,-0.11,0.32,0.21,
0.266,1.45,-0.84,1.34,-0.11,0.33,0.21,
0.27,1.45,-0.84,1.34,-0.11,0.33,0.21,
0.27,1.45,-0.84,1.34,-0.12,0.34,0.21,
0.272,1.45,-0.84,1.34,-0.12,0.34,0.21,
0.273,1.52,-0.79,0.91,-0.12,0.34,0.21,
0.295,1.52,-0.79,0.91,-0.12,0.34,0.20,
0.295,1.52,-0.79,0.91,-0.12,0.34,0.20,
0.295,1.52,-0.79,0.91,-0.12,0.34,0.19,
0.296,1.52,-0.79,0.91,-0.12,0.34,0.18,
0.296,1.52,-0.79,0.91,-0.12,0.35,0.18,
0.296,1.60,-0.82,0.55,-0.12,0.35,0.18,
0.296,1.60,-0.82,0.55,-0.12,0.35,0.17,
0.297,1.60,-0.82,0.55,-0.12,0.36,0.17,
0.297,1.60,-0.82,0.55,-0.12,0.36,0.16,
0.297,1.60,-0.82,0.55,-0.12,0.37,0.16,
0.298,1.60,-0.82,0.55,-0.12,0.38,0.15,
0.298,1.46,-0.77,0.26,-0.12,0.38,0.15,
0.298,1.46,-0.77,0.26,-0.11,0.39,0.15,
0.298,1.46,-0.77,0.26,-0.10,0.40,0.15,
0.299,1.46,-0.77,0.26,-0.09,0.41,0.15,
0.299,1.46,-0.77,0.26,-0.09,0.42,0.15,
0.313,1.46,-0.77,0.26,-0.08,0.43,0.15,
0.314,1.33,-0.82,-0.05,-0.08,0.43,0.15,
0.314,1.33,-0.82,-0.05,-0.07,0.44,0.15,
0.314,1.33,-0.82,-0.05,-0.07,0.44,0.15,
0.314,1.33,-0.82,-0.05,-0.06,0.45,0.15,
0.315,1.33,-0.82,-0.05,-0.05,0.46,0.15,
0.315,1.33,-0.82,-0.05,-0.05,0.46,0.16,
0.315,0.95,-0.86,-0.49,-0.05,0.46,0.16,
0.315,0.95,-0.86,-0.49,-0.04,0.47,0.17,
0.315,0.95,-0.86,-0.49,-0.03,0.47,0.18,
0.337,0.95,-0.86,-0.49,-0.02,0.48,0.19,
0.338,0.95,-0.86,-0.49,-0.03,0.49,0.21,
0.338,0.95,-0.86,-0.49,-0.03,0.49,0.23,
0.338,0.50,-0.90,-1.01,-0.03,0.49,0.23,
0.338,0.50,-0.90,-1.01,-0.02,0.49,0.24,
0.338,0.50,-0.90,-1.01,-0.03,0.48,0.26,
0.339,0.50,-0.90,-1.01,-0.03,0.47,0.27,
0.339,0.50,-0.90,-1.01,-0.04,0.46,0.29,
0.339,0.50,-0.90,-1.01,-0.04,0.45,0.31,
0.339,0.35,-0.84,-1.67,-0.04,0.45,0.31,
0.339,0.35,-0.84,-1.67,-0.05,0.44,0.32,
0.34,0.35,-0.84,-1.67,-0.05,0.42,0.34,
0.34,0.35,-0.84,-1.67,-0.05,0.40,0.35,
0.34,0.35,-0.84,-1.67,-0.06,0.38,0.36,
0.371,0.35,-0.84,-1.67,-0.07,0.36,0.37,
0.371,0.46,-0.68,-2.07,-0.07,0.36,0.37,
0.371,0.46,-0.68,-2.07,-0.05,0.33,0.39,
0.371,0.46,-0.68,-2.07,-0.04,0.32,0.40,
0.372,0.46,-0.68,-2.07,-0.07,0.29,0.40,
0.372,0.46,-0.68,-2.07,-0.08,0.27,0.41,
0.372,0.46,-0.68,-2.07,-0.08,0.26,0.41,
0.372,0.55,-0.59,-2.22,-0.08,0.26,0.41,
0.372,0.55,-0.59,-2.22,-0.08,0.23,0.42,
0.372,0.55,-0.59,-2.22,-0.06,0.22,0.43,
0.373,0.55,-0.59,-2.22,-0.05,0.20,0.43,
0.373,0.55,-0.59,-2.22,-0.07,0.18,0.43,
0.373,0.55,-0.59,-2.22,-0.07,0.17,0.43,
0.373,0.69,-0.43,-2.29,-0.07,0.17,0.43,
0.373,0.69,-0.43,-2.29,-0.08,0.15,0.43,
0.373,0.69,-0.43,-2.29,-0.06,0.13,0.44,
0.373,0.69,-0.43,-2.29,-0.05,0.11,0.44,
0.374,0.69,-0.43,-2.29,-0.05,0.10,0.43,
0.374,0.69,-0.43,-2.29,-0.05,0.08,0.43,
0.374,0.86,-0.34,-2.27,-0.05,0.08,0.43,
0.374,0.86,-0.34,-2.27,-0.04,0.07,0.43,
0.375,0.86,-0.34,-2.27,-0.03,0.06,0.42,
0.378,0.86,-0.34,-2.27,-0.02,0.04,0.41,
0.379,0.86,-0.34,-2.27,-0.02,0.03,0.40,
0.381,0.86,-0.34,-2.27,-0.01,0.02,0.40,
0.393,1.12,-0.29,-2.26,-0.01,0.02,0.40,
0.393,1.12,-0.29,-2.26,-0.01,0.01,0.39,
0.393,1.12,-0.29,-2.26,-0.00,-0.01,0.38,
0.394,1.12,-0.29,-2.26,-0.00,-0.02,0.36,
0.394,1.12,-0.29,-2.26,-0.00,-0.03,0.35,
0.394,1.12,-0.29,-2.26,-0.00,-0.04,0.34,
0.394,1.21,-0.24,-2.35,-0.00,-0.04,0.34,
0.394,1.21,-0.24,-2.35,-0.00,-0.05,0.32,
0.395,1.21,-0.24,-2.35,-0.00,-0.06,0.31,
0.398,1.21,-0.24,-2.35,-0.01,-0.06,0.29,
0.423,1.21,-0.24,-2.35,-0.01,-0.06,0.28,
0.423,1.21,-0.24,-2.35,-0.02,-0.06,0.27,
0.423,1.09,-0.08,-2.66,-0.02,-0.06,0.27,
0.423,1.09,-0.08,-2.66,-0.03,-0.06,0.26,
0.423,1.09,-0.08,-2.66,-0.04,-0.06,0.25,
0.423,1.09,-0.08,-2.66,-0.07,-0.07,0.24,
0.424,1.09,-0.08,-2.66,-0.07,-0.07,0.23,
0.424,1.09,-0.08,-2.66,-0.09,-0.09,0.22,
0.424,1.03,-0.02,-2.91,-0.09,-0.09,0.22,
0.424,1.03,-0.02,-2.91,-0.11,-0.10,0.21,
0.424,1.03,-0.02,-2.91,-0.13,-0.12,0.20,
0.424,1.03,-0.02,-2.91,-0.16,-0.14,0.18,
0.424,1.03,-0.02,-2.91,-0.18,-0.14,0.18,
0.424,1.03,-0.02,-2.91,-0.20,-0.16,0.16,
0.424,1.16,0.10,-3.00,-0.20,-0.16,0.16,
0.425,1.16,0.10,-3.00,-0.22,-0.17,0.15,
0.426,1.16,0.10,-3.00,-0.25,-0.18,0.13,
0.428,1.16,0.10,-3.00,-0.28,-0.19,0.10,
0.429,1.16,0.10,-3.00,-0.30,-0.19,0.09,
0.431,1.16,0.10,-3.00,-0.32,-0.20,0.07,
0.444,1.22,0.14,-3.06,-0.32,-0.20,0.07,
0.445,1.22,0.14,-3.06,-0.35,-0.22,0.05,
0.445,1.22,0.14,-3.06,-0.38,-0.23,0.03,
0.446,1.22,0.14,-3.06,-0.41,-0.26,0.00,
0.446,1.22,0.14,-3.06,-0.43,-0.27,-0.01,
0.466,1.22,0.14,-3.06,-0.46,-0.28,-0.03,
0.466,1.27,0.13,-3.06,-0.46,-0.28,-0.03,
0.467,1.27,0.13,-3.06,-0.49,-0.29,-0.05,
0.467,1.27,0.13,-3.06,-0.52,-0.31,-0.08,
0.467,1.27,0.13,-3.06,-0.56,-0.33,-0.11,
0.468,1.27,0.13,-3.06,-0.62,-0.35,-0.15,
0.468,1.27,0.13,-3.06,-0.62,-0.35,-0.15,
0.468,1.27,0.13,-3.06,-0.65,-0.36,-0.17,
0.469,1.39,-0.08,-3.21,-0.65,-0.36,-0.17,
0.469,1.39,-0.08,-3.21,-0.69,-0.37,-0.19,
0.469,1.39,-0.08,-3.21,-0.75,-0.39,-0.22,
0.469,1.39,-0.08,-3.21,-0.78,-0.39,-0.23,
0.469,1.39,-0.08,-3.21,-0.84,-0.40,-0.24,
0.47,1.35,-0.23,-3.46,-0.84,-0.40,-0.24,
0.47,1.35,-0.23,-3.46,-0.87,-0.41,-0.24,
0.47,1.35,-0.23,-3.46,-0.92,-0.42,-0.24,
0.47,1.35,-0.23,-3.46,-1.01,-0.43,-0.24,
0.47,1.35,-0.23,-3.46,-1.03,-0.43,-0.24,
0.472,1.35,-0.23,-3.46,-1.07,-0.42,-0.22,
0.473,0.98,-0.41,-3.55,-1.07,-0.42,-0.22,
0.473,0.98,-0.41,-3.55,-1.10,-0.43,-0.21,
0.475,0.98,-0.41,-3.55,-1.18,-0.42,-0.19,
0.478,0.98,-0.41,-3.55,-1.28,-0.41,-0.15,
0.479,0.98,-0.41,-3.55,-1.29,-0.41,-0.13,
0.481,0.98,-0.41,-3.55,-1.31,-0.40,-0.09,
0.483,0.33,-0.48,-3.45,-1.31,-0.40,-0.09,
0.483,0.33,-0.48,-3.45,-1.37,-0.40,-0.06,
0.485,0.33,-0.48,-3.45,-1.46,-0.39,-0.02,
0.488,0.33,-0.48,-3.45,-1.53,-0.37,0.04,
0.489,0.33,-0.48,-3.45,-1.54,-0.37,0.06,
0.491,0.33,-0.48,-3.45,-1.58,-0.37,0.10,
0.493,-0.13,-0.46,-2.93,-1.58,-0.37,0.10,
0.493,-0.13,-0.46,-2.93,-1.61,-0.36,0.14,
0.495,-0.13,-0.46,-2.93,-1.63,-0.37,0.19,
0.498,-0.13,-0.46,-2.93,-1.69,-0.37,0.24,
0.504,-0.13,-0.46,-2.93,-1.70,-0.36,0.26,
0.504,-0.13,-0.46,-2.93,-1.72,-0.36,0.29,
0.504,-0.07,-0.21,-2.13,-1.72,-0.36,0.29,
0.504,-0.07,-0.21,-2.13,-1.72,-0.36,0.32,
0.505,-0.07,-0.21,-2.13,-1.76,-0.35,0.33,
0.508,-0.07,-0.21,-2.13,-1.81,-0.32,0.35,
0.509,-0.07,-0.21,-2.13,-1.81,-0.31,0.35,
0.511,-0.07,-0.21,-2.13,-1.82,-0.29,0.36,
0.513,0.55,0.07,-1.23,-1.82,-0.29,0.36,
0.513,0.55,0.07,-1.23,-1.83,-0.25,0.36,
0.523,0.55,0.07,-1.23,-1.84,-0.21,0.36,
0.524,0.55,0.07,-1.23,-1.83,-0.13,0.35,
0.524,0.55,0.07,-1.23,-1.83,-0.11,0.34,
0.524,0.55,0.07,-1.23,-1.84,-0.06,0.33,
0.525,1.38,0.29,-0.46,-1.84,-0.06,0.33,
0.525,1.38,0.29,-0.46,-1.83,-0.02,0.31,
0.525,1.38,0.29,-0.46,-1.84,0.03,0.30,
0.528,1.38,0.29,-0.46,-1.79,0.12,0.28,
0.529,1.38,0.29,-0.46,-1.77,0.14,0.28,
0.533,1.38,0.29,-0.46,-1.75,0.19,0.26,
0.533,1.66,0.35,0.13,-1.75,0.19,0.26,
0.534,1.66,0.35,0.13,-1.73,0.23,0.25,
0.536,1.66,0.35,0.13,-1.68,0.28,0.24,
0.538,1.66,0.35,0.13,-1.64,0.36,0.22,
0.539,1.66,0.35,0.13,-1.62,0.38,0.22,
0.553,1.66,0.35,0.13,-1.57,0.42,0.21,
0.554,1.59,0.51,0.58,-1.57,0.42,0.21,
0.554,1.59,0.51,0.58,-1.53,0.46,0.20,
0.554,1.59,0.51,0.58,-1.47,0.50,0.20,
0.554,1.59,0.51,0.58,-1.38,0.55,0.18,
0.555,1.59,0.51,0.58,-1.35,0.56,0.18,
0.555,1.59,0.51,0.58,-1.29,0.60,0.17,
0.555,1.16,0.61,1.02,-1.29,0.60,0.17,
0.556,1.16,0.61,1.02,-1.23,0.62,0.17,
0.559,1.16,0.61,1.02,-1.15,0.63,0.16,
0.56,1.16,0.61,1.02,-1.03,0.64,0.16,
0.561,1.16,0.61,1.02,-1.00,0.64,0.16,
0.564,1.16,0.61,1.02,-0.92,0.64,0.15,
0.564,0.75,0.74,1.37,-0.92,0.64,0.15,
0.564,0.75,0.74,1.37,-0.85,0.64,0.15,
0.571,0.75,0.74,1.37,-0.77,0.63,0.15,
0.571,0.75,0.74,1.37,-0.66,0.62,0.14,
0.572,0.75,0.74,1.37,-0.62,0.62,0.14,
0.572,0.75,0.74,1.37,-0.55,0.61,0.14,
0.575,0.60,0.85,1.43,-0.55,0.61,0.14,
0.575,0.60,0.85,1.43,-0.48,0.59,0.13,
0.576,0.60,0.85,1.43,-0.41,0.57,0.13,
0.58,0.60,0.85,1.43,-0.30,0.53,0.12,
0.58,0.60,0.85,1.43,-0.27,0.52,0.12,
0.581,0.60,0.85,1.43,-0.20,0.50,0.12,
0.586,0.55,0.93,1.41,-0.20,0.50,0.12,
0.586,0.55,0.93,1.41,-0.13,0.47,0.11,
0.587,0.55,0.93,1.41,-0.07,0.44,0.11,
0.588,0.55,0.93,1.41,0.02,0.40,0.10,
0.589,0.55,0.93,1.41,0.05,0.39,0.10,
0.591,0.55,0.93,1.41,0.10,0.35,0.10,
0.593,0.60,0.99,1.14,0.10,0.35,0.10,
0.593,0.60,0.99,1.14,0.15,0.33,0.10,
0.595,0.60,0.99,1.14,0.20,0.30,0.10,
0.599,0.60,0.99,1.14,0.26,0.26,0.10,
0.602,0.60,0.99,1.14,0.27,0.25,0.09,
0.603,0.60,0.99,1.14,0.30,0.23,0.09,
0.603,0.71,1.02,0.50,0.30,0.23,0.09,
0.605,0.71,1.02,0.50,0.33,0.21,0.09,
0.608,0.71,1.02,0.50,0.35,0.19,0.09,
0.634,0.71,1.02,0.50,0.37,0.15,0.09,
0.635,0.71,1.02,0.50,0.38,0.14,0.09,
0.635,0.71,1.02,0.50,0.39,0.10,0.09,
0.636,0.86,1.00,-0.05,0.39,0.10,0.09,
0.636,0.86,1.00,-0.05,0.40,0.07,0.08,
0.637,0.86,1.00,-0.05,0.40,0.03,0.08,
0.637,0.86,1.00,-0.05,0.41,-0.03,0.07,
0.637,0.86,1.00,-0.05,0.42,-0.04,0.07,
0.638,0.86,1.00,-0.05,0.44,-0.05,0.05,
0.638,1.18,1.07,0.18,0.44,-0.05,0.05,
0.639,1.18,1.07,0.18,0.46,-0.06,0.04,
0.639,1.18,1.07,0.18,0.49,-0.08,0.03,
0.639,1.18,1.07,0.18,0.53,-0.08,0.01,
0.64,1.18,1.07,0.18,0.54,-0.08,0.01,
0.64,1.18,1.07,0.18,0.57,-0.07,-0.00,
0.641,0.81,1.46,0.72,0.57,-0.07,-0.00,
0.641,0.81,1.46,0.72,0.60,-0.07,-0.00,
0.641,0.81,1.46,0.72,0.63,-0.06,-0.00,
0.642,0.81,1.46,0.72,0.66,-0.07,0.00,
0.642,0.81,1.46,0.72,0.67,-0.07,0.00,
0.643,0.81,1.46,0.72,0.68,-0.07,0.00,
0.643,0.32,1.63,0.38,0.68,-0.07,0.00,
0.643,0.32,1.63,0.38,0.69,-0.09,0.00,
0.65,0.32,1.63,0.38,0.71,-0.11,-0.00,
0.651,0.32,1.63,0.38,0.71,-0.14,-0.01,
0.651,0.32,1.63,0.38,0.72,-0.16,-0.02,
0.652,0.32,1.63,0.38,0.72,-0.18,-0.02,
0.653,0.33,1.31,0.08,0.72,-0.18,-0.02,
0.653,0.33,1.31,0.08,0.72,-0.20,-0.02,
0.655,0.33,1.31,0.08,0.71,-0.21,-0.02,
0.659,0.33,1.31,0.08,0.71,-0.22,-0.02,
0.661,0.33,1.31,0.08,0.71,-0.23,-0.02,
0.661,0.33,1.31,0.08,0.70,-0.23,-0.01,
0.663,0.11,1.40,-0.02,0.70,-0.23,-0.01,
0.664,0.11,1.40,-0.02,0.70,-0.24,-0.01,
0.666,0.11,1.40,-0.02,0.70,-0.24,0.00,
0.668,0.11,1.40,-0.02,0.70,-0.23,0.01,
0.67,0.11,1.40,-0.02,0.70,-0.23,0.01,
0.671,0.11,1.40,-0.02,0.70,-0.22,0.02,
0.673,0.25,1.39,0.38,0.70,-0.22,0.02,
0.673,0.25,1.39,0.38,0.71,-0.20,0.02,
0.675,0.25,1.39,0.38,0.72,-0.19,0.03,
0.678,0.25,1.39,0.38,0.73,-0.18,0.03,
0.679,0.25,1.39,0.38,0.73,-0.18,0.04,
0.691,0.25,1.39,0.38,0.74,-0.17,0.04,
0.692,0.57,1.29,0.87,0.74,-0.17,0.04,
0.692,0.57,1.29,0.87,0.75,-0.16,0.04,
0.692,0.57,1.29,0.87,0.76,-0.15,0.04,
0.692,0.57,1.29,0.87,0.78,-0.14,0.05,
0.693,0.57,1.29,0.87,0.78,-0.14,0.05,
0.693,0.57,1.29,0.87,0.79,-0.13,0.05,
0.693,0.72,1.14,1.15,0.79,-0.13,0.05,
0.693,0.72,1.14,1.15,0.80,-0.13,0.05,
0.723,0.72,1.14,1.15,0.81,-0.13,0.05,
0.724,0.72,1.14,1.15,0.82,-0.14,0.04,
0.724,0.72,1.14,1.15,0.82,-0.14,0.04,
0.724,0.72,1.14,1.15,0.83,-0.15,0.04,
0.724,0.85,1.02,1.22,0.83,-0.15,0.04,
0.725,0.85,1.02,1.22,0.85,-0.16,0.05,
0.725,0.85,1.02,1.22,0.84,-0.17,0.05,
0.725,0.85,1.02,1.22,0.84,-0.20,0.06,
0.725,0.85,1.02,1.22,0.84,-0.21,0.07,
0.726,0.85,1.02,1.22,0.83,-0.23,0.08,
0.726,0.40,0.85,1.14,0.83,-0.23,0.08,
0.726,0.40,0.85,1.14,0.83,-0.24,0.08,
0.726,0.40,0.85,1.14,0.83,-0.26,0.09,
0.726,0.40,0.85,1.14,0.82,-0.27,0.11,
0.727,0.40,0.85,1.14,0.82,-0.28,0.12,
0.727,0.40,0.85,1.14,0.82,-0.29,0.13,
0.727,0.07,0.99,1.15,0.82,-0.29,0.13,
0.727,0.07,0.99,1.15,0.81,-0.30,0.15,
0.728,0.07,0.99,1.15,0.82,-0.29,0.17,
0.728,0.07,0.99,1.15,0.78,-0.28,0.20,
0.731,0.07,0.99,1.15,0.77,-0.27,0.21,
0.731,0.07,0.99,1.15,0.75,-0.26,0.22,
0.737,-0.40,1.11,0.83,0.75,-0.26,0.22,
0.738,-0.40,1.11,0.83,0.73,-0.25,0.24,
0.738,-0.40,1.11,0.83,0.72,-0.24,0.26,
0.739,-0.40,1.11,0.83,0.68,-0.25,0.28,
0.759,-0.40,1.11,0.83,0.66,-0.25,0.29,
0.761,-0.40,1.11,0.83,0.62,-0.26,0.30,
0.761,-0.31,1.15,0.64,0.62,-0.26,0.30,
0.762,-0.31,1.15,0.64,0.60,-0.27,0.31,
0.763,-0.31,1.15,0.64,0.58,-0.29,0.32,
0.763,-0.31,1.15,0.64,0.52,-0.31,0.33,
0.764,-0.31,1.15,0.64,0.51,-0.32,0.34,
0.764,-0.31,1.15,0.64,0.48,-0.34,0.34,
0.765,0.03,1.47,1.00,0.48,-0.34,0.34,
0.765,0.03,1.47,1.00,0.45,-0.36,0.34,
0.765,0.03,1.47,1.00,0.42,-0.37,0.34,
0.766,0.03,1.47,1.00,0.39,-0.37,0.33,
0.766,0.03,1.47,1.00,0.38,-0.37,0.32,
0.766,0.03,1.47,1.00,0.36,-0.36,0.30,
0.766,0.85,1.37,1.63,0.36,-0.36,0.30,
0.766,0.85,1.37,1.63,0.35,-0.34,0.28,
0.766,0.85,1.37,1.63,0.34,-0.32,0.26,
0.768,0.85,1.37,1.63,0.34,-0.27,0.21,
0.77,0.85,1.37,1.63,0.34,-0.24,0.20,
0.771,0.85,1.37,1.63,0.35,-0.17,0.17,
0.773,1.24,0.75,2.16,0.35,-0.17,0.17,
0.788,1.24,0.75,2.16,0.36,-0.09,0.14,
0.789,1.24,0.75,2.16,0.37,0.01,0.11,
0.789,1.24,0.75,2.16,0.40,0.15,0.08,
0.789,1.24,0.75,2.16,0.41,0.19,0.06,
0.789,1.24,0.75,2.16,0.42,0.26,0.04,
0.789,1.19,0.37,2.71,0.42,0.26,0.04,
0.789,1.19,0.37,2.71,0.44,0.32,0.02,
0.79,1.19,0.37,2.71,0.45,0.37,-0.00,
0.79,1.19,0.37,2.71,0.46,0.43,-0.03,
0.79,1.19,0.37,2.71,0.47,0.45,-0.03,
0.793,1.19,0.37,2.71,0.47,0.48,-0.04,
0.794,0.75,-0.04,2.85,0.47,0.48,-0.04,
0.794,0.75,-0.04,2.85,0.47,0.52,-0.04,
0.795,0.75,-0.04,2.85,0.47,0.54,-0.04,
0.804,0.75,-0.04,2.85,0.47,0.58,-0.02,
0.805,0.75,-0.04,2.85,0.47,0.59,-0.01,
0.805,0.75,-0.04,2.85,0.46,0.61,0.00,
0.805,0.06,-0.27,2.44,0.46,0.61,0.00,
0.805,0.06,-0.27,2.44,0.45,0.63,0.02,
0.805,0.06,-0.27,2.44,0.45,0.64,0.05,
0.808,0.06,-0.27,2.44,0.43,0.66,0.09,
0.809,0.06,-0.27,2.44,0.42,0.66,0.11,
0.831,0.06,-0.27,2.44,0.41,0.66,0.14,
0.832,-0.68,-0.23,2.04,0.41,0.66,0.14,
0.832,-0.68,-0.23,2.04,0.40,0.66,0.17,
0.832,-0.68,-0.23,2.04,0.40,0.67,0.20,
0.832,-0.68,-0.23,2.04,0.38,0.68,0.25,
0.832,-0.68,-0.23,2.04,0.38,0.68,0.27,
0.832,-0.68,-0.23,2.04,0.37,0.68,0.30,
0.833,-1.05,-0.11,1.68,0.37,0.68,0.30,
0.833,-1.05,-0.11,1.68,0.37,0.69,0.33,
0.833,-1.05,-0.11,1.68,0.36,0.68,0.36,
0.833,-1.05,-0.11,1.68,0.36,0.68,0.39,
0.833,-1.05,-0.11,1.68,0.35,0.67,0.40,
0.833,-1.05,-0.11,1.68,0.35,0.66,0.43,
0.833,-1.00,-0.09,1.47,0.35,0.66,0.43,
0.834,-1.00,-0.09,1.47,0.35,0.65,0.44,
0.835,-1.00,-0.09,1.47,0.37,0.64,0.46,
0.838,-1.00,-0.09,1.47,0.38,0.61,0.48,
0.839,-1.00,-0.09,1.47,0.38,0.60,0.48,
0.841,-1.00,-0.09,1.47,0.39,0.58,0.50,
0.843,-0.85,-0.09,1.36,0.39,0.58,0.50,
0.843,-0.85,-0.09,1.36,0.40,0.56,0.51,
0.845,-0.85,-0.09,1.36,0.41,0.54,0.52,
0.848,-0.85,-0.09,1.36,0.45,0.49,0.54,
0.851,-0.85,-0.09,1.36,0.45,0.48,0.54,
0.851,-0.85,-0.09,1.36,0.47,0.44,0.55,
0.853,-0.95,-0.00,1.30,0.47,0.44,0.55,
0.853,-0.95,-0.00,1.30,0.48,0.41,0.57,
0.855,-0.95,-0.00,1.30,0.51,0.37,0.59,
0.858,-0.95,-0.00,1.30,0.53,0.31,0.61,
0.859,-0.95,-0.00,1.30,0.54,0.29,0.62,
0.861,-0.95,-0.00,1.30,0.57,0.25,0.64,
0.863,-1.35,0.17,1.13,0.57,0.25,0.64,
0.864,-1.35,0.17,1.13,0.57,0.20,0.66,
0.866,-1.35,0.17,1.13,0.58,0.16,0.68,
0.868,-1.35,0.17,1.13,0.60,0.09,0.71,
0.87,-1.35,0.17,1.13,0.60,0.06,0.71,
0.871,-1.35,0.17,1.13,0.60,0.01,0.73,
0.873,-1.36,0.14,0.87,0.60,0.01,0.73,
0.874,-1.36,0.14,0.87,0.60,-0.04,0.74,
0.875,-1.36,0.14,0.87,0.62,-0.10,0.76,
0.878,-1.36,0.14,0.87,0.61,-0.20,0.78,
0.879,-1.36,0.14,0.87,0.60,-0.23,0.78,
0.883,-1.36,0.14,0.87,0.60,-0.30,0.79,
0.885,-1.08,-0.08,0.75,0.60,-0.30,0.79,
0.885,-1.08,-0.08,0.75,0.59,-0.36,0.80,
0.886,-1.08,-0.08,0.75,0.59,-0.42,0.81,
0.888,-1.08,-0.08,0.75,0.57,-0.51,0.80,
0.889,-1.08,-0.08,0.75,0.57,-0.53,0.80,
0.891,-1.08,-0.08,0.75,0.56,-0.59,0.79,
0.893,-0.45,-0.48,0.82,0.56,-0.59,0.79,
0.893,-0.45,-0.48,0.82,0.55,-0.63,0.78,
0.895,-0.45,-0.48,0.82,0.54,-0.67,0.76,
0.916,-0.45,-0.48,0.82,0.52,-0.71,0.74,
0.916,-0.45,-0.48,0.82,0.52,-0.72,0.73,
0.917,-0.45,-0.48,0.82,0.51,-0.73,0.71,
0.917,0.22,-0.85,1.19,0.51,-0.73,0.71,
0.917,0.22,-0.85,1.19,0.51,-0.75,0.68,
0.918,0.22,-0.85,1.19,0.50,-0.76,0.66,
0.918,0.22,-0.85,1.19,0.50,-0.76,0.63,
0.918,0.22,-0.85,1.19,0.50,-0.76,0.62,
0.918,0.22,-0.85,1.19,0.50,-0.76,0.60,
0.919,0.22,-0.85,1.19,0.51,-0.74,0.58,
0.919,0.54,-0.74,1.94,0.51,-0.74,0.58,
0.919,0.54,-0.74,1.94,0.51,-0.73,0.58,
0.92,0.54,-0.74,1.94,0.52,-0.71,0.56,
0.92,0.54,-0.74,1.94,0.52,-0.70,0.56,
0.921,0.54,-0.74,1.94,0.53,-0.69,0.55,
0.925,0.46,-0.59,2.22,0.53,-0.69,0.55,
0.926,0.46,-0.59,2.22,0.54,-0.68,0.55,
0.926,0.46,-0.59,2.22,0.55,-0.67,0.55,
0.928,0.46,-0.59,2.22,0.57,-0.67,0.55,
0.948,0.46,-0.59,2.22,0.58,-0.67,0.55,
0.954,0.46,-0.59,2.22,0.58,-0.67,0.55,
0.956,0.30,-0.42,2.22,0.58,-0.67,0.55,
0.957,0.30,-0.42,2.22,0.62,-0.68,0.56,
0.958,0.30,-0.42,2.22,0.62,-0.69,0.56,
0.959,0.30,-0.42,2.22,0.63,-0.70,0.56,
0.96,0.30,-0.42,2.22,0.64,-0.71,0.56,
0.992,0.30,-0.42,2.22,0.66,-0.72,0.56,
0.993,0.25,-0.45,1.91,0.66,-0.72,0.56,
0.994,0.25,-0.45,1.91,0.67,-0.73,0.56,
0.995,0.25,-0.45,1.91,0.68,-0.74,0.56,
0.996,0.25,-0.45,1.91,0.72,-0.75,0.56,
0.997,0.25,-0.45,1.91,0.72,-0.75,0.56,
0.998,0.25,-0.45,1.91,0.73,-0.74,0.56,
0.999,0.24,-0.50,1.55,0.73,-0.74,0.56,
1.0,0.24,-0.50,1.55,0.75,-0.74,0.55,
1.002,0.24,-0.50,1.55,0.77,-0.72,0.55,
1.003,0.24,-0.50,1.55,0.80,-0.69,0.56,
1.004,0.24,-0.50,1.55,0.81,-0.69,0.56,
1.007,0.24,-0.50,1.55,0.82,-0.66,0.56,
1.008,0.18,-0.51,1.13,0.82,-0.66,0.56,
1.008,0.18,-0.51,1.13,0.83,-0.64,0.56,
1.009,0.18,-0.51,1.13,0.84,-0.61,0.56,
1.009,0.18,-0.51,1.13,0.85,-0.58,0.56,
1.009,0.18,-0.51,1.13,0.86,-0.56,0.56,
1.01,0.18,-0.51,1.13,0.85,-0.54,0.56,
1.01,0.40,-0.66,0.24,0.85,-0.54,0.56,
1.011,0.40,-0.66,0.24,0.85,-0.52,0.55,
1.011,0.40,-0.66,0.24,0.84,-0.49,0.55,
1.011,0.40,-0.66,0.24,0.82,-0.45,0.54,
1.012,0.40,-0.66,0.24,0.81,-0.43,0.54,
1.012,0.40,-0.66,0.24,0.80,-0.40,0.53,
1.013,0.59,-0.74,-0.80,0.80,-0.40,0.53,
1.013,0.59,-0.74,-0.80,0.78,-0.36,0.53,
1.014,0.59,-0.74,-0.80,0.76,-0.32,0.52,
1.014,0.59,-0.74,-0.80,0.72,-0.26,0.52,
1.014,0.59,-0.74,-0.80,0.71,-0.24,0.51,
1.015,0.59,-0.74,-0.80,0.68,-0.20,0.51,
1.015,0.49,-0.65,-1.65,0.68,-0.20,0.51,
1.016,0.49,-0.65,-1.65,0.66,-0.16,0.50,
1.016,0.49,-0.65,-1.65,0.63,-0.12,0.49,
1.016,0.49,-0.65,-1.65,0.58,-0.07,0.47,
1.017,0.49,-0.65,-1.65,0.57,-0.05,0.47,
1.017,0.49,-0.65,-1.65,0.54,-0.01,0.46,
1.018,0.62,-0.68,-2.18,0.54,-0.01,0.46,
1.018,0.62,-0.68,-2.18,0.51,0.03,0.45,
1.019,0.62,-0.68,-2.18,0.47,0.06,0.44,
1.036,0.62,-0.68,-2.18,0.43,0.12,0.42,
1.037,0.62,-0.68,-2.18,0.41,0.13,0.42,
1.037,0.62,-0.68,-2.18,0.39,0.17,0.41,
1.037,0.47,-0.71,-2.59,0.39,0.17,0.41,
1.037,0.47,-0.71,-2.59,0.36,0.21,0.40,
1.038,0.47,-0.71,-2.59,0.33,0.26,0.40,
1.039,0.47,-0.71,-2.59,0.29,0.32,0.40,
1.04,0.47,-0.71,-2.59,0.27,0.34,0.39,
1.04,0.47,-0.71,-2.59,0.25,0.38,0.39,
1.04,0.22,-0.76,-2.83,0.25,0.38,0.39,
1.04,0.22,-0.76,-2.83,0.22,0.42,0.40,
1.041,0.22,-0.76,-2.83,0.19,0.45,0.40,
1.041,0.22,-0.76,-2.83,0.16,0.49,0.40,
1.055,0.22,-0.76,-2.83,0.15,0.49,0.40,
1.056,0.22,-0.76,-2.83,0.13,0.50,0.40,
1.056,-0.05,-0.81,-2.91,0.13,0.50,0.40,
1.056,-0.05,-0.81,-2.91,0.10,0.51,0.40,
1.057,-0.05,-0.81,-2.91,0.08,0.51,0.40,
1.057,-0.05,-0.81,-2.91,0.06,0.50,0.39,
1.057,-0.05,-0.81,-2.91,0.05,0.50,0.39,
1.057,-0.05,-0.81,-2.91,0.03,0.49,0.39,
1.058,0.00,-0.72,-2.81,0.03,0.49,0.39,
1.058,0.00,-0.72,-2.81,0.02,0.48,0.39,
1.058,0.00,-0.72,-2.81,0.01,0.47,0.39,
1.058,0.00,-0.72,-2.81,-0.00,0.44,0.39,
1.059,0.00,-0.72,-2.81,-0.00,0.43,0.39,
1.059,0.00,-0.72,-2.81,0.00,0.39,0.38,
1.059,-0.12,-0.53,-2.50,0.00,0.39,0.38,
1.059,-0.12,-0.53,-2.50,0.00,0.36,0.38,
1.06,-0.12,-0.53,-2.50,0.01,0.32,0.37,
1.06,-0.12,-0.53,-2.50,0.03,0.27,0.36,
1.063,-0.12,-0.53,-2.50,0.04,0.25,0.36,
1.063,-0.12,-0.53,-2.50,0.07,0.20,0.35,
1.077,0.08,-0.45,-1.59,0.07,0.20,0.35,
1.078,0.08,-0.45,-1.59,0.10,0.16,0.35,
1.078,0.08,-0.45,-1.59,0.13,0.12,0.36,
1.078,0.08,-0.45,-1.59,0.20,0.04,0.37,
1.078,0.08,-0.45,-1.59,0.22,0.01,0.38,
1.079,0.08,-0.45,-1.59,0.28,-0.05,0.40,
1.079,-0.06,-0.94,-0.55,0.28,-0.05,0.40,
1.079,-0.06,-0.94,-0.55,0.33,-0.11,0.42,
1.079,-0.06,-0.94,-0.55,0.38,-0.16,0.44,
1.08,-0.06,-0.94,-0.55,0.47,-0.21,0.48,
1.082,-0.06,-0.94,-0.55,0.49,-0.23,0.48,
1.082,-0.06,-0.94,-0.55,0.54,-0.25,0.50,
1.084,0.29,-1.19,-0.16,0.54,-0.25,0.50,
1.085,0.29,-1.19,-0.16,0.58,-0.25,0.51,
1.085,0.29,-1.19,-0.16,0.62,-0.25,0.52,
1.088,0.29,-1.19,-0.16,0.66,-0.24,0.53,
1.089,0.29,-1.19,-0.16,0.67,-0.23,0.52,
1.091,0.29,-1.19,-0.16,0.69,-0.22,0.52,
1.096,0.77,-0.95,-0.41,0.69,-0.22,0.52,
1.096,0.77,-0.95,-0.41,0.70,-0.20,0.52,
1.097,0.77,-0.95,-0.41,0.70,-0.18,0.51,
1.098,0.77,-0.95,-0.41,0.70,-0.14,0.49,
1.1,0.77,-0.95,-0.41,0.69,-0.13,0.49,
1.102,0.77,-0.95,-0.41,0.68,-0.12,0.48,
1.103,0.94,-1.00,-1.02,0.68,-0.12,0.48,
1.103,0.94,-1.00,-1.02,0.67,-0.10,0.47,
1.105,0.94,-1.00,-1.02,0.66,-0.08,0.46,
1.123,0.94,-1.00,-1.02,0.64,-0.06,0.45,
1.123,0.94,-1.00,-1.02,0.64,-0.06,0.45,
1.123,0.94,-1.00,-1.02,0.63,-0.04,0.45,
1.124,0.77,-1.18,-1.45,0.63,-0.04,0.45,
1.124,0.77,-1.18,-1.45,0.62,-0.03,0.45,
1.124,0.77,-1.18,-1.45,0.61,-0.02,0.45,
1.124,0.77,-1.18,-1.45,0.59,-0.00,0.45,
1.124,0.77,-1.18,-1.45,0.58,0.00,0.45,
1.125,0.77,-1.18,-1.45,0.57,0.02,0.45,
1.125,0.83,-1.22,-1.70,0.57,0.02,0.45,
1.125,0.83,-1.22,-1.70,0.56,0.03,0.45,
1.125,0.83,-1.22,-1.70,0.54,0.04,0.46,
1.129,0.83,-1.22,-1.70,0.51,0.05,0.46,
1.129,0.83,-1.22,-1.70,0.49,0.05,0.46,
1.131,0.83,-1.22,-1.70,0.47,0.06,0.46,
1.134,0.94,-1.08,-1.91,0.47,0.06,0.46,
1.134,0.94,-1.08,-1.91,0.45,0.07,0.47,
1.135,0.94,-1.08,-1.91,0.43,0.08,0.46,
1.138,0.94,-1.08,-1.91,0.37,0.10,0.46,
1.141,0.94,-1.08,-1.91,0.36,0.11,0.46,
1.141,0.94,-1.08,-1.91,0.34,0.13,0.45,
1.143,1.28,-0.93,-1.82,0.34,0.13,0.45,
1.143,1.28,-0.93,-1.82,0.31,0.15,0.45,
1.146,1.28,-0.93,-1.82,0.29,0.17,0.44,
1.149,1.28,-0.93,-1.82,0.25,0.21,0.44,
1.149,1.28,-0.93,-1.82,0.24,0.22,0.44,
1.151,1.28,-0.93,-1.82,0.21,0.25,0.43,
1.153,1.46,-0.96,-1.59,0.21,0.25,0.43,
1.153,1.46,-0.96,-1.59,0.20,0.27,0.43,
1.155,1.46,-0.96,-1.59,0.19,0.28,0.43,
1.158,1.46,-0.96,-1.59,0.13,0.31,0.42,
1.159,1.46,-0.96,-1.59,0.12,0.32,0.42,
1.162,1.46,-0.96,-1.59,0.10,0.32,0.42,
1.163,1.70,-1.04,-1.37,0.10,0.32,0.42,
1.163,1.70,-1.04,-1.37,0.07,0.33,0.41,
1.166,1.70,-1.04,-1.37,0.05,0.34,0.41,
1.168,1.70,-1.04,-1.37,0.01,0.35,0.41,
1.169,1.70,-1.04,-1.37,0.01,0.35,0.41,
1.171,1.70,-1.04,-1.37,-0.02,0.36,0.41,
1.173,1.51,-0.99,-1.17,-0.02,0.36,0.41,
1.173,1.51,-0.99,-1.17,-0.04,0.38,0.41,
1.175,1.51,-0.99,-1.17,-0.06,0.39,0.42,
1.178,1.51,-0.99,-1.17,-0.10,0.42,0.42,
1.179,1.51,-0.99,-1.17,-0.11,0.42,0.43,
1.181,1.51,-0.99,-1.17,-0.13,0.44,0.43,
1.183,1.56,-1.06,-1.12,-0.13,0.44,0.43,
1.184,1.56,-1.06,-1.12,-0.16,0.45,0.44,
1.185,1.56,-1.06,-1.12,-0.19,0.45,0.44,
1.188,1.56,-1.06,-1.12,-0.23,0.44,0.45,
1.189,1.56,-1.06,-1.12,-0.24,0.44,0.45,
1.191,1.56,-1.06,-1.12,-0.26,0.43,0.46,
1.193,1.60,-1.06,-0.91,-0.26,0.43,0.46,
1.194,1.60,-1.06,-0.91,-0.28,0.41,0.46,
1.214,1.60,-1.06,-0.91,-0.30,0.39,0.47,
1.215,1.60,-1.06,-0.91,-0.31,0.37,0.48,
1.215,1.60,-1.06,-0.91,-0.32,0.36,0.49,
1.216,1.60,-1.06,-0.91,-0.33,0.34,0.50,
1.216,1.49,-1.00,-0.58,-0.33,0.34,0.50,
1.217,1.49,-1.00,-0.58,-0.34,0.33,0.51,
1.217,1.49,-1.00,-0.58,-0.35,0.32,0.53,
1.217,1.49,-1.00,-0.58,-0.37,0.31,0.56,
1.217,1.49,-1.00,-0.58,-0.38,0.32,0.57,
1.218,1.49,-1.00,-0.58,-0.39,0.31,0.59,
1.218,1.32,-1.17,-0.43,-0.39,0.31,0.59,
1.218,1.32,-1.17,-0.43,-0.40,0.31,0.62,
1.218,1.32,-1.17,-0.43,-0.42,0.32,0.65,
1.218,1.32,-1.17,-0.43,-0.46,0.32,0.69,
1.223,1.32,-1.17,-0.43,-0.47,0.32,0.70,
1.224,1.32,-1.17,-0.43,-0.50,0.32,0.73,
1.226,1.24,-1.30,-0.52,-0.50,0.32,0.73,
1.226,1.24,-1.30,-0.52,-0.53,0.32,0.77,
1.227,1.24,-1.30,-0.52,-0.56,0.32,0.80,
1.246,1.24,-1.30,-0.52,-0.61,0.32,0.84,
1.246,1.24,-1.30,-0.52,-0.63,0.32,0.86,
1.246,1.24,-1.30,-0.52,-0.67,0.32,0.89,
1.246,1.12,-1.37,-0.73,-0.67,0.32,0.89,
1.247,1.12,-1.37,-0.73,-0.71,0.33,0.92,
1.247,1.12,-1.37,-0.73,-0.76,0.33,0.94,
1.247,1.12,-1.37,-0.73,-0.83,0.33,0.98,
1.247,1.12,-1.37,-0.73,-0.85,0.33,0.99,
1.247,1.12,-1.37,-0.73,-0.90,0.32,1.01,
1.247,1.26,-1.48,-0.87,-0.90,0.32,1.01,
1.247,1.26,-1.48,-0.87,-0.95,0.32,1.03,
1.248,1.26,-1.48,-0.87,-1.00,0.31,1.04,
1.249,1.26,-1.48,-0.87,-1.07,0.30,1.04,
1.249,1.26,-1.48,-0.87,-1.09,0.29,1.04,
1.251,1.26,-1.48,-0.87,-1.14,0.28,1.04,
1.253,1.83,-1.32,-0.70,-1.14,0.28,1.04,
1.255,1.83,-1.32,-0.70,-1.19,0.26,1.02,
1.255,1.83,-1.32,-0.70,-1.24,0.25,1.01,
1.258,1.83,-1.32,-0.70,-1.31,0.23,0.98,
1.259,1.83,-1.32,-0.70,-1.33,0.22,0.97,
1.261,1.83,-1.32,-0.70,-1.37,0.21,0.96,
1.265,1.83,-1.32,-0.70,-1.44,0.19,0.93,
1.266,2.55,-1.15,-0.44,-1.44,0.19,0.93,
1.266,2.55,-1.15,-0.44,-1.46,0.18,0.92,
1.268,2.55,-1.15,-0.44,-1.53,0.16,0.89,
1.269,2.55,-1.15,-0.44,-1.55,0.16,0.88,
1.271,2.55,-1.15,-0.44,-1.60,0.15,0.87,
1.273,2.73,-1.08,-0.17,-1.60,0.15,0.87,
1.304,2.73,-1.08,-0.17,-1.64,0.14,0.86,
1.305,2.73,-1.08,-0.17,-1.69,0.14,0.85,
1.305,2.73,-1.08,-0.17,-1.76,0.14,0.84,
1.306,2.73,-1.08,-0.17,-1.79,0.14,0.84,
1.306,2.73,-1.08,-0.17,-1.84,0.14,0.85,
1.306,2.88,-1.21,0.04,-1.84,0.14,0.85,
1.307,2.88,-1.21,0.04,-1.91,0.15,0.86,
1.307,2.88,-1.21,0.04,-1.97,0.17,0.87,
1.307,2.88,-1.21,0.04,-2.07,0.20,0.90,
1.308,2.88,-1.21,0.04,-2.11,0.22,0.90,
1.308,2.88,-1.21,0.04,-2.20,0.26,0.91,
1.308,2.94,-1.55,-0.01,-2.20,0.26,0.91,
1.308,2.94,-1.55,-0.01,-2.28,0.30,0.91,
1.309,2.94,-1.55,-0.01,-2.36,0.35,0.90,
1.31,2.94,-1.55,-0.01,-2.48,0.42,0.88,
1.31,2.94,-1.55,-0.01,-2.52,0.45,0.87,
1.31,2.94,-1.55,-0.01,-2.58,0.51,0.84,
1.311,3.42,-1.74,0.35,-2.58,0.51,0.84,
1.311,3.42,-1.74,0.35,-2.65,0.57,0.81,
1.311,3.42,-1.74,0.35,-2.72,0.62,0.77,
1.312,3.42,-1.74,0.35,-2.81,0.73,0.69,
1.312,3.42,-1.74,0.35,-2.84,0.76,0.67,
1.315,3.42,-1.74,0.35,-2.86,0.78,0.65,
1.315,3.57,-1.90,1.55,-2.86,0.78,0.65,
1.315,3.57,-1.90,1.55,-2.90,0.82,0.61,
1.316,3.57,-1.90,1.55,-2.93,0.86,0.58,
1.323,3.57,-1.90,1.55,-2.97,0.91,0.52,
1.323,3.57,-1.90,1.55,-2.98,0.92,0.50,
1.323,3.57,-1.90,1.55,-2.99,0.94,0.47,
1.323,3.41,-1.96,3.11,-2.99,0.94,0.47,
1.324,3.41,-1.96,3.11,-3.00,0.96,0.43,
1.327,3.41,-1.96,3.11,-2.99,0.97,0.39,
1.331,3.41,-1.96,3.11,-2.96,0.98,0.33,
1.332,3.41,-1.96,3.11,-2.95,0.99,0.31,
1.333,3.41,-1.96,3.11,-2.91,0.99,0.28,
1.334,3.12,-1.73,5.29,-2.91,0.99,0.28,
1.334,3.12,-1.73,5.29,-2.87,0.99,0.26,
1.337,3.12,-1.73,5.29,-2.82,0.98,0.23,
1.342,3.12,-1.73,5.29,-2.73,0.96,0.20,
1.343,3.12,-1.73,5.29,-2.70,0.95,0.19,
1.343,3.12,-1.73,5.29,-2.63,0.94,0.16,
1.343,2.80,-1.48,6.93,-2.63,0.94,0.16,
1.344,2.80,-1.48,6.93,-2.56,0.92,0.13,
1.345,2.80,-1.48,6.93,-2.48,0.90,0.09,
1.357,2.80,-1.48,6.93,-2.35,0.87,0.05,
1.358,2.80,-1.48,6.93,-2.31,0.87,0.03,
1.358,2.80,-1.48,6.93,-2.22,0.84,-0.01,
1.359,2.70,-1.70,7.81,-2.22,0.84,-0.01,
1.359,2.70,-1.70,7.81,-2.13,0.82,-0.03,
1.359,2.70,-1.70,7.81,-2.03,0.80,-0.07,
1.36,2.70,-1.70,7.81,-1.89,0.78,-0.11,
1.39,2.70,-1.70,7.81,-1.84,0.77,-0.12,
1.39,2.70,-1.70,7.81,-1.75,0.74,-0.14,
1.39,2.40,-1.64,7.90,-1.75,0.74,-0.14,
1.391,2.40,-1.64,7.90,-1.66,0.71,-0.17,
1.391,2.40,-1.64,7.90,-1.57,0.69,-0.19,
1.391,2.40,-1.64,7.90,-1.44,0.64,-0.22,
1.391,2.40,-1.64,7.90,-1.39,0.62,-0.23,
1.392,2.40,-1.64,7.90,-1.31,0.59,-0.24,
1.392,1.85,-1.03,7.27,-1.31,0.59,-0.24,
1.392,1.85,-1.03,7.27,-1.22,0.55,-0.25,
1.392,1.85,-1.03,7.27,-1.14,0.51,-0.26,
1.392,1.85,-1.03,7.27,-1.02,0.44,-0.26,
1.393,1.85,-1.03,7.27,-0.96,0.39,-0.27,
1.393,1.85,-1.03,7.27,-0.94,0.37,-0.27,
1.393,1.47,-0.74,6.22,-0.94,0.37,-0.27,
1.393,1.47,-0.74,6.22,-0.87,0.32,-0.26,
1.393,1.47,-0.74,6.22,-0.81,0.28,-0.26,
1.394,1.47,-0.74,6.22,-0.73,0.21,-0.25,
1.394,1.47,-0.74,6.22,-0.70,0.19,-0.25,
1.394,1.47,-0.74,6.22,-0.66,0.16,-0.24,
1.394,1.22,-0.68,5.02,-0.66,0.16,-0.24,
1.394,1.22,-0.68,5.02,-0.61,0.12,-0.23,
1.398,1.22,-0.68,5.02,-0.56,0.09,-0.21,
1.405,1.22,-0.68,5.02,-0.50,0.07,-0.20,
1.406,1.22,-0.68,5.02,-0.47,0.06,-0.19,
1.406,1.22,-0.68,5.02,-0.43,0.05,-0.17,
1.407,1.16,-0.60,4.36,-0.43,0.05,-0.17,
1.407,1.16,-0.60,4.36,-0.39,0.03,-0.16,
1.408,1.16,-0.60,4.36,-0.36,0.02,-0.15,
1.41,1.16,-0.60,4.36,-0.29,0.01,-0.14,
1.41,1.16,-0.60,4.36,-0.25,-0.00,-0.13,
1.421,1.16,-0.60,4.36,-0.23,-0.01,-0.12,
1.422,1.38,-0.47,4.09,-0.23,-0.01,-0.12,
1.422,1.38,-0.47,4.09,-0.20,-0.02,-0.12,
1.422,1.38,-0.47,4.09,-0.16,-0.02,-0.11,
1.423,1.38,-0.47,4.09,-0.10,-0.04,-0.11,
1.423,1.38,-0.47,4.09,-0.08,-0.04,-0.11,
1.424,1.38,-0.47,4.09,-0.05,-0.05,-0.10,
1.426,1.82,-0.38,3.91,-0.05,-0.05,-0.10,
1.427,1.82,-0.38,3.91,-0.01,-0.06,-0.10,
1.427,1.82,-0.38,3.91,0.02,-0.05,-0.10,
1.428,1.82,-0.38,3.91,0.07,-0.05,-0.10,
1.429,1.82,-0.38,3.91,0.08,-0.05,-0.10,
1.431,1.82,-0.38,3.91,0.11,-0.04,-0.10,
1.434,1.98,-0.34,3.62,0.11,-0.04,-0.10,
1.435,1.98,-0.34,3.62,0.14,-0.03,-0.10,
1.435,1.98,-0.34,3.62,0.16,-0.02,-0.10,
1.438,1.98,-0.34,3.62,0.20,0.00,-0.10,
1.439,1.98,-0.34,3.62,0.21,0.01,-0.10,
1.468,1.98,-0.34,3.62,0.22,0.03,-0.10,
1.469,2.08,-0.52,3.27,0.22,0.03,-0.10,
1.469,2.08,-0.52,3.27,0.24,0.05,-0.10,
1.469,2.08,-0.52,3.27,0.25,0.07,-0.09,
1.47,2.08,-0.52,3.27,0.27,0.11,-0.08,
1.47,2.08,-0.52,3.27,0.30,0.15,-0.05,
1.471,1.56,-0.85,3.09,0.30,0.15,-0.05,
1.471,1.56,-0.85,3.09,0.32,0.18,-0.03,
1.472,1.56,-0.85,3.09,0.33,0.20,-0.01,
1.472,1.56,-0.85,3.09,0.33,0.20,-0.01,
1.472,1.56,-0.85,3.09,0.35,0.24,0.02,
1.473,1.56,-0.85,3.09,0.36,0.25,0.03,
1.473,1.56,-0.85,3.09,0.38,0.27,0.06,
1.474,1.31,-1.20,3.12,0.38,0.27,0.06,
1.474,1.31,-1.20,3.12,0.39,0.29,0.09,
1.474,1.31,-1.20,3.12,0.41,0.31,0.12,
1.475,1.31,-1.20,3.12,0.44,0.33,0.16,
1.475,1.31,-1.20,3.12,0.46,0.34,0.18,
1.476,1.31,-1.20,3.12,0.48,0.35,0.21,
1.476,1.15,-1.37,3.29,0.48,0.35,0.21,
1.476,1.15,-1.37,3.29,0.51,0.35,0.24,
1.477,1.15,-1.37,3.29,0.54,0.36,0.27,
1.485,1.15,-1.37,3.29,0.58,0.35,0.31,
1.485,1.15,-1.37,3.29,0.60,0.35,0.32,
1.485,1.15,-1.37,3.29,0.64,0.35,0.33,
1.486,1.59,-1.70,3.33,0.64,0.35,0.33,
1.486,1.59,-1.70,3.33,0.68,0.35,0.35,
1.486,1.59,-1.70,3.33,0.71,0.35,0.36,
1.488,1.59,-1.70,3.33,0.78,0.34,0.37,
1.489,1.59,-1.70,3.33,0.79,0.34,0.38,
1.491,1.59,-1.70,3.33,0.83,0.33,0.38,
1.503,2.21,-1.96,2.94,0.83,0.33,0.38,
1.503,2.21,-1.96,2.94,0.87,0.32,0.38,
1.504,2.21,-1.96,2.94,0.90,0.31,0.39,
1.504,2.21,-1.96,2.94,0.96,0.29,0.39,
1.504,2.21,-1.96,2.94,0.98,0.29,0.39,
1.504,2.21,-1.96,2.94,1.01,0.28,0.39,
1.505,2.69,-1.91,2.35,1.01,0.28,0.39,
1.505,2.69,-1.91,2.35,1.05,0.27,0.39,
1.535,2.69,-1.91,2.35,1.07,0.27,0.38,
1.536,2.69,-1.91,2.35,1.11,0.26,0.38,
1.536,2.69,-1.91,2.35,1.13,0.26,0.37,
1.536,2.69,-1.91,2.35,1.15,0.25,0.37,
1.536,2.94,-1.72,1.46,1.15,0.25,0.37,
1.537,2.94,-1.72,1.46,1.18,0.25,0.36,
1.537,2.94,-1.72,1.46,1.20,0.25,0.35,
1.537,2.94,-1.72,1.46,1.22,0.24,0.33,
1.537,2.94,-1.72,1.46,1.23,0.24,0.32,
1.538,2.94,-1.72,1.46,1.25,0.25,0.30,
1.538,3.50,-1.64,0.54,1.25,0.25,0.30,
1.538,3.50,-1.64,0.54,1.27,0.25,0.28,
1.538,3.50,-1.64,0.54,1.28,0.25,0.26,
1.539,3.50,-1.64,0.54,1.30,0.25,0.23,
1.539,3.50,-1.64,0.54,1.30,0.26,0.21,
1.539,3.50,-1.64,0.54,1.31,0.27,0.19,
1.539,3.78,-1.53,-0.21,1.31,0.27,0.19,
1.539,3.78,-1.53,-0.21,1.32,0.28,0.17,
1.54,3.78,-1.53,-0.21,1.33,0.29,0.14,
1.54,3.78,-1.53,-0.21,1.33,0.31,0.11,
1.54,3.78,-1.53,-0.21,1.33,0.32,0.10,
1.543,3.78,-1.53,-0.21,1.33,0.33,0.07,
1.544,3.99,-1.52,-0.93,1.33,0.33,0.07,
1.544,3.99,-1.52,-0.93,1.33,0.35,0.05,
1.551,3.99,-1.52,-0.93,1.33,0.36,0.03,
1.551,3.99,-1.52,-0.93,1.32,0.39,-0.01,
1.552,3.99,-1.52,-0.93,1.31,0.39,-0.02,
1.552,3.99,-1.52,-0.93,1.30,0.40,-0.04,
1.553,3.67,-1.44,-1.62,1.30,0.40,-0.04,
1.554,3.67,-1.44,-1.62,1.29,0.42,-0.06,
1.555,3.67,-1.44,-1.62,1.29,0.42,-0.08,
1.558,3.67,-1.44,-1.62,1.27,0.45,-0.10,
1.563,3.67,-1.44,-1.62,1.26,0.46,-0.11,
1.564,3.67,-1.44,-1.62,1.26,0.46,-0.12,
1.564,3.40,-1.33,-2.08,1.26,0.46,-0.12,
1.564,3.40,-1.33,-2.08,1.25,0.48,-0.13,
1.565,3.40,-1.33,-2.08,1.24,0.49,-0.14,
1.568,3.40,-1.33,-2.08,1.22,0.50,-0.16,
1.569,3.40,-1.33,-2.08,1.21,0.52,-0.17,
1.571,3.40,-1.33,-2.08,1.21,0.52,-0.17,
1.573,3.01,-1.26,-2.53,1.21,0.52,-0.17,
1.574,3.01,-1.26,-2.53,1.19,0.53,-0.18,
1.576,3.01,-1.26,-2.53,1.18,0.54,-0.19,
1.58,3.01,-1.26,-2.53,1.16,0.55,-0.21,
1.583,3.01,-1.26,-2.53,1.15,0.55,-0.22,
1.584,3.01,-1.26,-2.53,1.14,0.55,-0.22,
1.585,2.98,-1.29,-2.94,1.14,0.55,-0.22,
1.586,2.98,-1.29,-2.94,1.13,0.56,-0.24,
1.586,2.98,-1.29,-2.94,1.12,0.55,-0.25,
1.591,2.98,-1.29,-2.94,1.11,0.55,-0.26,
1.592,2.98,-1.29,-2.94,1.10,0.54,-0.27,
1.593,2.98,-1.29,-2.94,1.09,0.53,-0.28,
1.596,2.79,-1.17,-3.21,1.09,0.53,-0.28,
1.597,2.79,-1.17,-3.21,1.08,0.52,-0.29,
1.599,2.79,-1.17,-3.21,1.07,0.50,-0.30,
1.6,2.79,-1.17,-3.21,1.06,0.47,-0.31,
1.601,2.79,-1.17,-3.21,1.06,0.45,-0.32,
1.602,2.79,-1.17,-3.21,1.05,0.44,-0.32,
1.608,2.77,-1.16,-3.37,1.05,0.44,-0.32,
1.609,2.77,-1.16,-3.37,1.05,0.42,-0.33,
1.61,2.77,-1.16,-3.37,1.05,0.39,-0.34,
1.631,2.77,-1.16,-3.37,1.04,0.35,-0.36,
1.631,2.77,-1.16,-3.37,1.04,0.32,-0.37,
1.631,2.77,-1.16,-3.37,1.04,0.30,-0.37,
1.631,2.77,-1.16,-3.37,1.04,0.25,-0.38,
1.631,2.59,-1.11,-3.41,1.04,0.25,-0.38,
1.631,2.59,-1.11,-3.41,1.04,0.23,-0.39,
1.632,2.59,-1.11,-3.41,1.05,0.18,-0.40,
1.632,2.59,-1.11,-3.41,1.05,0.14,-0.41,
1.632,2.59,-1.11,-3.41,1.05,0.11,-0.42,
1.632,2.59,-1.08,-3.30,1.05,0.11,-0.42,
1.632,2.59,-1.08,-3.30,1.06,0.07,-0.43,
1.632,2.59,-1.08,-3.30,1.07,0.03,-0.44,
1.632,2.59,-1.08,-3.30,1.08,-0.04,-0.45,
1.632,2.59,-1.08,-3.30,1.08,-0.08,-0.46,
1.633,2.59,-1.08,-3.30,1.09,-0.10,-0.47,
1.633,2.43,-1.09,-3.24,1.09,-0.10,-0.47,
1.633,2.43,-1.09,-3.24,1.09,-0.14,-0.48,
1.639,2.43,-1.09,-3.24,1.09,-0.18,-0.49,
1.639,2.43,-1.09,-3.24,1.10,-0.25,-0.50,
1.639,2.43,-1.09,-3.24,1.10,-0.28,-0.51,
1.661,2.43,-1.09,-3.24,1.11,-0.30,-0.52,
1.661,2.46,-1.16,-3.25,1.11,-0.30,-0.52,
1.661,2.46,-1.16,-3.25,1.11,-0.34,-0.53,
1.662,2.46,-1.16,-3.25,1.11,-0.37,-0.54,
1.662,2.46,-1.16,-3.25,1.10,-0.43,-0.56,
1.662,2.46,-1.16,-3.25,1.10,-0.46,-0.57,
1.662,2.46,-1.16,-3.25,1.10,-0.47,-0.57,
1.662,2.32,-1.15,-3.32,1.10,-0.47,-0.57,
1.662,2.32,-1.15,-3.32,1.08,-0.49,-0.59,
1.662,2.32,-1.15,-3.32,1.09,-0.52,-0.59,
1.662,2.32,-1.15,-3.32,1.06,-0.57,-0.61,
1.662,2.32,-1.15,-3.32,1.04,-0.59,-0.62,
1.663,2.32,-1.15,-3.32,1.03,-0.60,-0.63,
1.663,2.31,-1.11,-3.42,1.03,-0.60,-0.63,
1.663,2.31,-1.11,-3.42,1.02,-0.62,-0.64,
1.665,2.31,-1.11,-3.42,0.98,-0.63,-0.65,
1.668,2.31,-1.11,-3.42,0.95,-0.63,-0.66,
1.669,2.31,-1.11,-3.42,0.94,-0.64,-0.67,
1.671,2.31,-1.11,-3.42,0.93,-0.64,-0.67,
1.673,2.01,-0.99,-3.36,0.93,-0.64,-0.67,
1.673,2.01,-0.99,-3.36,0.93,-0.64,-0.67,
1.675,2.01,-0.99,-3.36,0.89,-0.64,-0.68,
1.678,2.01,-0.99,-3.36,0.85,-0.63,-0.69,
1.679,2.01,-0.99,-3.36,0.83,-0.62,-0.69,
1.681,2.01,-0.99,-3.36,0.81,-0.61,-0.69,
1.683,1.76,-0.95,-3.08,0.81,-0.61,-0.69,
1.683,1.76,-0.95,-3.08,0.79,-0.60,-0.69,
1.685,1.76,-0.95,-3.08,0.77,-0.58,-0.68,
1.688,1.76,-0.95,-3.08,0.74,-0.57,-0.68,
1.689,1.76,-0.95,-3.08,0.72,-0.55,-0.67,
1.691,1.76,-0.95,-3.08,0.70,-0.55,-0.67,
1.693,1.26,-0.87,-2.82,0.70,-0.55,-0.67,
1.693,1.26,-0.87,-2.82,0.67,-0.53,-0.67,
1.695,1.26,-0.87,-2.82,0.64,-0.52,-0.66,
1.698,1.26,-0.87,-2.82,0.65,-0.50,-0.65,
1.699,1.26,-0.87,-2.82,0.62,-0.48,-0.64,
1.701,1.26,-0.87,-2.82,0.61,-0.47,-0.64,
1.703,0.97,-0.68,-2.47,0.61,-0.47,-0.64,
1.703,0.97,-0.68,-2.47,0.59,-0.46,-0.63,
1.705,0.97,-0.68,-2.47,0.57,-0.44,-0.63,
1.708,0.97,-0.68,-2.47,0.55,-0.42,-0.62,
1.709,0.97,-0.68,-2.47,0.52,-0.42,-0.62,
1.712,0.97,-0.68,-2.47,0.51,-0.41,-0.62,
1.713,0.82,-0.44,-2.20,0.51,-0.41,-0.62,
1.713,0.82,-0.44,-2.20,0.51,-0.40,-0.61,
1.715,0.82,-0.44,-2.20,0.49,-0.40,-0.61,
1.718,0.82,-0.44,-2.20,0.46,-0.40,-0.60,
1.719,0.82,-0.44,-2.20,0.44,-0.40,-0.60,
1.721,0.82,-0.44,-2.20,0.44,-0.40,-0.60,
1.723,0.80,-0.21,-1.89,0.44,-0.40,-0.60,
1.723,0.80,-0.21,-1.89,0.44,-0.40,-0.60,
1.735,0.80,-0.21,-1.89,0.43,-0.41,-0.59,
1.736,0.80,-0.21,-1.89,0.41,-0.42,-0.59,
1.736,0.80,-0.21,-1.89,0.39,-0.44,-0.59,
1.736,0.80,-0.21,-1.89,0.39,-0.45,-0.59,
1.736,0.65,0.04,-1.60,0.39,-0.45,-0.59,
1.737,0.65,0.04,-1.60,0.38,-0.46,-0.58,
1.737,0.65,0.04,-1.60,0.37,-0.48,-0.58,
1.758,0.65,0.04,-1.60,0.35,-0.52,-0.58,
1.759,0.65,0.04,-1.60,0.33,-0.55,-0.57,
1.76,0.65,0.04,-1.60,0.32,-0.56,-0.57,
1.761,0.54,0.25,-1.44,0.32,-0.56,-0.57,
1.761,0.54,0.25,-1.44,0.31,-0.60,-0.57,
1.761,0.54,0.25,-1.44,0.30,-0.61,-0.57,
1.762,0.54,0.25,-1.44,0.28,-0.66,-0.56,
1.762,0.54,0.25,-1.44,0.27,-0.69,-0.55,
1.763,0.54,0.25,-1.44,0.26,-0.70,-0.54,
1.763,0.24,0.39,-1.25,0.26,-0.70,-0.54,
1.764,0.24,0.39,-1.25,0.23,-0.75,-0.53,
1.764,0.24,0.39,-1.25,0.22,-0.78,-0.52,
1.765,0.24,0.39,-1.25,0.19,-0.81,-0.51,
1.765,0.24,0.39,-1.25,0.17,-0.85,-0.49,
1.765,0.24,0.39,-1.25,0.15,-0.89,-0.49,
1.766,-0.04,0.55,-1.02,0.15,-0.89,-0.49,
1.766,-0.04,0.55,-1.02,0.12,-0.93,-0.47,
1.766,-0.04,0.55,-1.02,0.10,-0.97,-0.47,
1.77,-0.04,0.55,-1.02,0.07,-1.01,-0.46,
1.77,-0.04,0.55,-1.02,0.05,-1.05,-0.45,
1.771,-0.04,0.55,-1.02,0.02,-1.09,-0.44,
1.773,-0.07,0.85,-0.55,0.02,-1.09,-0.44,
1.799,-0.07,0.85,-0.55,-0.00,-1.13,-0.43,
1.799,-0.07,0.85,-0.55,-0.03,-1.16,-0.42,
1.799,-0.07,0.85,-0.55,-0.05,-1.20,-0.42,
1.8,-0.07,0.85,-0.55,-0.08,-1.23,-0.41,
1.8,-0.07,0.85,-0.55,-0.10,-1.26,-0.41,
1.8,0.15,1.08,0.22,-0.10,-1.26,-0.41,
1.801,0.15,1.08,0.22,-0.11,-1.29,-0.41,
1.801,0.15,1.08,0.22,-0.13,-1.32,-0.40,
1.801,0.15,1.08,0.22,-0.15,-1.34,-0.41,
1.802,0.15,1.08,0.22,-0.16,-1.36,-0.41,
1.802,0.15,1.08,0.22,-0.17,-1.37,-0.41,
1.802,0.36,1.12,1.24,-0.17,-1.37,-0.41,
1.803,0.36,1.12,1.24,-0.18,-1.37,-0.41,
1.803,0.36,1.12,1.24,-0.19,-1.38,-0.41,
1.803,0.36,1.12,1.24,-0.20,-1.37,-0.41,
1.804,0.36,1.12,1.24,-0.21,-1.36,-0.42,
1.804,0.36,1.12,1.24,-0.21,-1.34,-0.42,
1.805,0.59,1.04,2.21,-0.21,-1.34,-0.42,
1.817,0.59,1.04,2.21,-0.21,-1.32,-0.42,
1.817,0.59,1.04,2.21,-0.22,-1.29,-0.42,
1.818,0.59,1.04,2.21,-0.22,-1.25,-0.42,
1.818,0.59,1.04,2.21,-0.22,-1.20,-0.42,
1.818,0.59,1.04,2.21,-0.22,-1.14,-0.42,
1.819,0.65,0.87,3.05,-0.22,-1.14,-0.42,
1.819,0.65,0.87,3.05,-0.22,-1.07,-0.42,
1.819,0.65,0.87,3.05,-0.22,-1.00,-0.42,
1.823,0.65,0.87,3.05,-0.21,-0.92,-0.42,
1.823,0.65,0.87,3.05,-0.21,-0.83,-0.41,
1.834,0.65,0.87,3.05,-0.21,-0.75,-0.41,
1.835,0.49,0.66,3.55,-0.21,-0.75,-0.41,
1.835,0.49,0.66,3.55,-0.20,-0.66,-0.40,
1.835,0.49,0.66,3.55,-0.20,-0.57,-0.39,
1.835,0.49,0.66,3.55,-0.20,-0.48,-0.38,
1.836,0.49,0.66,3.55,-0.20,-0.40,-0.37,
1.836,0.49,0.66,3.55,-0.20,-0.31,-0.36,
1.836,0.23,0.62,3.70,-0.20,-0.31,-0.36,
1.837,0.23,0.62,3.70,-0.20,-0.23,-0.35,
1.837,0.23,0.62,3.70,-0.20,-0.15,-0.34,
1.839,0.23,0.62,3.70,-0.20,-0.08,-0.33,
1.839,0.23,0.62,3.70,-0.20,-0.00,-0.31,
1.843,0.23,0.62,3.70,-0.20,0.07,-0.30,
1.844,0.14,0.73,3.55,-0.20,0.07,-0.30,
1.844,0.14,0.73,3.55,-0.21,0.14,-0.29,
1.845,0.14,0.73,3.55,-0.21,0.20,-0.28,
1.849,0.14,0.73,3.55,-0.22,0.26,-0.26,
1.849,0.14,0.73,3.55,-0.23,0.32,-0.25,
1.851,0.14,0.73,3.55,-0.24,0.37,-0.24,
1.853,0.05,0.83,3.18,-0.24,0.37,-0.24,
1.854,0.05,0.83,3.18,-0.25,0.41,-0.23,
1.855,0.05,0.83,3.18,-0.26,0.45,-0.22,
1.859,0.05,0.83,3.18,-0.27,0.49,-0.21,
1.86,0.05,0.83,3.18,-0.28,0.52,-0.20,
1.862,0.05,0.83,3.18,-0.30,0.54,-0.19,
1.865,0.08,0.88,2.80,-0.30,0.54,-0.19,
1.866,0.08,0.88,2.80,-0.31,0.57,-0.18,
1.866,0.08,0.88,2.80,-0.32,0.59,-0.18,
1.871,0.08,0.88,2.80,-0.35,0.61,-0.17,
1.871,0.08,0.88,2.80,-0.36,0.61,-0.16,
1.872,0.08,0.88,2.80,-0.37,0.62,-0.15,
1.873,0.14,0.87,2.50,-0.37,0.62,-0.15,
1.874,0.14,0.87,2.50,-0.38,0.62,-0.15,
1.876,0.14,0.87,2.50,-0.40,0.61,-0.14,
1.878,0.14,0.87,2.50,-0.42,0.60,-0.14,
1.879,0.14,0.87,2.50,-0.42,0.60,-0.13,
1.881,0.14,0.87,2.50,-0.43,0.58,-0.13,
1.883,0.21,0.85,2.39,-0.43,0.58,-0.13,
1.884,0.21,0.85,2.39,-0.44,0.56,-0.12,
1.885,0.21,0.85,2.39,-0.44,0.54,-0.12,
1.888,0.21,0.85,2.39,-0.45,0.52,-0.11,
1.889,0.21,0.85,2.39,-0.45,0.50,-0.11,
1.92,0.21,0.85,2.39,-0.45,0.47,-0.11,
1.921,0.25,0.74,2.43,-0.45,0.47,-0.11,
1.921,0.25,0.74,2.43,-0.45,0.45,-0.11,
1.921,0.25,0.74,2.43,-0.45,0.42,-0.10,
1.922,0.25,0.74,2.43,-0.44,0.39,-0.10,
1.922,0.25,0.74,2.43,-0.43,0.35,-0.09,
1.922,0.25,0.74,2.43,-0.42,0.31,-0.08,
1.923,0.19,0.51,2.56,-0.42,0.31,-0.08,
1.923,0.19,0.51,2.56,-0.40,0.28,-0.07,
1.923,0.19,0.51,2.56,-0.39,0.25,-0.06,
1.923,0.19,0.51,2.56,-0.37,0.21,-0.05,
1.924,0.19,0.51,2.56,-0.35,0.18,-0.03,
1.924,0.19,0.51,2.56,-0.31,0.15,-0.01,
1.924,-0.13,0.28,2.70,-0.31,0.15,-0.01,
1.924,-0.13,0.28,2.70,-0.29,0.13,0.00,
1.925,-0.13,0.28,2.70,-0.25,0.11,0.02,
1.946,-0.13,0.28,2.70,-0.22,0.08,0.04,
1.946,-0.13,0.28,2.70,-0.18,0.06,0.07,
1.947,-0.13,0.28,2.70,-0.14,0.04,0.09,
1.947,-0.44,0.06,2.71,-0.14,0.04,0.09,
1.947,-0.44,0.06,2.71,-0.10,0.03,0.11,
1.947,-0.44,0.06,2.71,-0.06,0.01,0.14,
1.948,-0.44,0.06,2.71,-0.01,-0.01,0.17,
1.948,-0.44,0.06,2.71,0.01,-0.01,0.19,
1.948,-0.44,0.06,2.71,0.05,-0.03,0.21,
1.949,-0.57,-0.08,2.35,0.05,-0.03,0.21,
1.949,-0.57,-0.08,2.35,0.09,-0.04,0.24,
1.949,-0.57,-0.08,2.35,0.12,-0.05,0.26,
1.949,-0.57,-0.08,2.35,0.17,-0.06,0.30,
1.95,-0.57,-0.08,2.35,0.19,-0.07,0.31,
1.977,-0.57,-0.08,2.35,0.21,-0.07,0.33,
1.978,-0.52,-0.13,1.58,0.21,-0.07,0.33,
1.978,-0.52,-0.13,1.58,0.23,-0.08,0.35,
1.978,-0.52,-0.13,1.58,0.25,-0.09,0.36,
1.979,-0.52,-0.13,1.58,0.28,-0.09,0.39,
1.979,-0.52,-0.13,1.58,0.28,-0.09,0.39,
1.98,-0.52,-0.13,1.58,0.29,-0.10,0.40,
1.98,-0.23,-0.03,0.67,0.29,-0.10,0.40,
1.98,-0.23,-0.03,0.67,0.29,-0.10,0.41,
1.981,-0.23,-0.03,0.67,0.30,-0.10,0.42,
1.981,-0.23,-0.03,0.67,0.31,-0.10,0.43,
1.982,-0.23,-0.03,0.67,0.31,-0.10,0.43,
1.982,-0.23,-0.03,0.67,0.32,-0.10,0.44,
1.983,0.18,0.18,-0.10,0.32,-0.10,0.44,
1.983,0.18,0.18,-0.10,0.32,-0.10,0.44,
1.983,0.18,0.18,-0.10,0.31,-0.10,0.44,
1.984,0.18,0.18,-0.10,0.30,-0.10,0.43,
1.984,0.18,0.18,-0.10,0.30,-0.10,0.43,
1.985,0.18,0.18,-0.10,0.29,-0.10,0.42,
1.985,0.34,0.40,-0.74,0.29,-0.10,0.42,
1.985,0.34,0.40,-0.74,0.28,-0.10,0.42,
1.986,0.34,0.40,-0.74,0.27,-0.11,0.41,
1.986,0.34,0.40,-0.74,0.24,-0.12,0.39,
1.987,0.34,0.40,-0.74,0.24,-0.12,0.39,
1.987,0.34,0.40,-0.74,0.22,-0.13,0.38,
1.987,0.44,0.70,-1.36,0.22,-0.13,0.38,
1.988,0.44,0.70,-1.36,0.20,-0.14,0.37,
1.988,0.44,0.70,-1.36,0.18,-0.14,0.36,
1.989,0.44,0.70,-1.36,0.14,-0.16,0.34,
1.989,0.44,0.70,-1.36,0.13,-0.17,0.33,
1.997,0.44,0.70,-1.36,0.10,-0.18,0.32,
1.998,0.40,0.79,-1.75,0.10,-0.18,0.32,
1.998,0.40,0.79,-1.75,0.09,-0.19,0.31,
1.998,0.40,0.79,-1.75,0.06,-0.21,0.30,
1.999,0.40,0.79,-1.75,0.03,-0.22,0.28,
1.999,0.40,0.79,-1.75,0.03,-0.22,0.28,
2.001,0.40,0.79,-1.75,0.01,-0.23,0.27,
2.004,0.23,0.72,-1.59,0.01,-0.23,0.27,
2.004,0.23,0.72,-1.59,0.00,-0.24,0.26,
2.005,0.23,0.72,-1.59,-0.00,-0.24,0.26,
2.008,0.23,0.72,-1.59,-0.01,-0.24,0.26,
2.009,0.23,0.72,-1.59,-0.00,-0.23,0.26,
2.011,0.23,0.72,-1.59,0.00,-0.23,0.27,
2.015,-0.09,0.43,-1.04,0.00,-0.23,0.27,
2.015,-0.09,0.43,-1.04,0.01,-0.22,0.27,
2.015,-0.09,0.43,-1.04,0.02,-0.21,0.28,
2.018,-0.09,0.43,-1.04,0.03,-0.20,0.30,
2.019,-0.09,0.43,-1.04,0.04,-0.19,0.30,
2.021,-0.09,0.43,-1.04,0.05,-0.18,0.31,
2.025,-0.30,0.22,-0.75,0.05,-0.18,0.31,
2.025,-0.30,0.22,-0.75,0.07,-0.17,0.32,
2.025,-0.30,0.22,-0.75,0.07,-0.16,0.33,
2.039,-0.30,0.22,-0.75,0.09,-0.14,0.34,
2.04,-0.30,0.22,-0.75,0.10,-0.13,0.35,
2.04,-0.30,0.22,-0.75,0.11,-0.12,0.36,
2.04,-0.45,0.09,-0.82,0.11,-0.12,0.36,
2.041,-0.45,0.09,-0.82,0.13,-0.11,0.37,
2.041,-0.45,0.09,-0.82,0.14,-0.10,0.38,
2.041,-0.45,0.09,-0.82,0.16,-0.08,0.40,
2.041,-0.45,0.09,-0.82,0.16,-0.07,0.41,
2.042,-0.45,0.09,-0.82,0.18,-0.06,0.42,
2.046,-0.56,-0.01,-1.17,0.18,-0.06,0.42,
2.046,-0.56,-0.01,-1.17,0.18,-0.05,0.44,
2.046,-0.56,-0.01,-1.17,0.19,-0.04,0.45,
2.049,-0.56,-0.01,-1.17,0.20,-0.02,0.47,
2.052,-0.56,-0.01,-1.17,0.20,-0.01,0.47,
2.055,-0.56,-0.01,-1.17,0.20,-0.01,0.48,
2.062,-0.43,-0.04,-1.72,0.20,-0.01,0.48,
2.062,-0.43,-0.04,-1.72,0.21,-0.00,0.49,
2.063,-0.43,-0.04,-1.72,0.21,0.01,0.50,
2.063,-0.43,-0.04,-1.72,0.21,0.02,0.51,
2.063,-0.43,-0.04,-1.72,0.21,0.02,0.51,
2.063,-0.43,-0.04,-1.72,0.21,0.03,0.51,
2.064,-0.18,-0.04,-2.29,0.21,0.03,0.51,
2.064,-0.18,-0.04,-2.29,0.21,0.03,0.51,
2.065,-0.18,-0.04,-2.29,0.20,0.03,0.51,
2.068,-0.18,-0.04,-2.29,0.20,0.03,0.51,
2.069,-0.18,-0.04,-2.29,0.20,0.03,0.51,
2.071,-0.18,-0.04,-2.29,0.20,0.03,0.51,
2.076,-0.02,-0.07,-2.82,0.20,0.03,0.51,
2.077,-0.02,-0.07,-2.82,0.19,0.03,0.51,
2.077,-0.02,-0.07,-2.82,0.19,0.03,0.51,
2.078,-0.02,-0.07,-2.82,0.18,0.02,0.50,
2.079,-0.02,-0.07,-2.82,0.18,0.02,0.50,
2.081,-0.02,-0.07,-2.82,0.18,0.02,0.50,
2.083,0.13,-0.01,-3.25,0.18,0.02,0.50,
2.083,0.13,-0.01,-3.25,0.17,0.02,0.50,
2.085,0.13,-0.01,-3.25,0.16,0.02,0.49,
2.088,0.13,-0.01,-3.25,0.16,0.02,0.49,
2.095,0.13,-0.01,-3.25,0.16,0.02,0.48,
2.096,0.13,-0.01,-3.25,0.15,0.02,0.48,
2.096,0.15,-0.06,-3.60,0.15,0.02,0.48,
2.096,0.15,-0.06,-3.60,0.14,0.02,0.48,
2.096,0.15,-0.06,-3.60,0.14,0.02,0.48,
2.098,0.15,-0.06,-3.60,0.13,0.03,0.47,
2.099,0.15,-0.06,-3.60,0.12,0.03,0.47,
2.101,0.15,-0.06,-3.60,0.12,0.04,0.47,
2.104,0.06,-0.14,-3.84,0.12,0.04,0.47,
2.104,0.06,-0.14,-3.84,0.11,0.04,0.47,
2.107,0.06,-0.14,-3.84,0.11,0.05,0.47,
2.127,0.06,-0.14,-3.84,0.11,0.06,0.47,
2.128,0.06,-0.14,-3.84,0.11,0.07,0.47,
2.128,0.06,-0.14,-3.84,0.10,0.08,0.47,
2.128,-0.04,-0.28,-3.88,0.10,0.08,0.47,
2.128,-0.04,-0.28,-3.88,0.11,0.09,0.46,
2.128,-0.04,-0.28,-3.88,0.11,0.11,0.46,
2.128,-0.04,-0.28,-3.88,0.11,0.13,0.46,
2.128,-0.04,-0.28,-3.88,0.11,0.14,0.46,
2.129,-0.04,-0.28,-3.88,0.11,0.16,0.46,
2.129,-0.12,-0.34,-3.96,0.11,0.16,0.46,
2.129,-0.12,-0.34,-3.96,0.11,0.18,0.46,
2.129,-0.12,-0.34,-3.96,0.11,0.19,0.46,
2.129,-0.12,-0.34,-3.96,0.11,0.22,0.46,
2.129,-0.12,-0.34,-3.96,0.12,0.23,0.46,
2.131,-0.12,-0.34,-3.96,0.12,0.24,0.45,
2.133,-0.08,-0.40,-4.04,0.12,0.24,0.45,
2.133,-0.08,-0.40,-4.04,0.11,0.26,0.45,
2.135,-0.08,-0.40,-4.04,0.11,0.28,0.45,
2.144,-0.08,-0.40,-4.04,0.11,0.30,0.45,
2.145,-0.08,-0.40,-4.04,0.11,0.30,0.45,
2.145,-0.08,-0.40,-4.04,0.11,0.31,0.45,
2.145,-0.17,-0.46,-4.06,0.11,0.31,0.45,
2.145,-0.17,-0.46,-4.06,0.11,0.33,0.45,
2.145,-0.17,-0.46,-4.06,0.10,0.34,0.46,
2.148,-0.17,-0.46,-4.06,0.08,0.35,0.46,
2.154,-0.17,-0.46,-4.06,0.08,0.36,0.47,
2.155,-0.17,-0.46,-4.06,0.07,0.37,0.47,
2.155,-0.35,-0.55,-3.97,0.07,0.37,0.47,
2.162,-0.35,-0.55,-3.97,0.07,0.37,0.48,
2.163,-0.35,-0.55,-3.97,0.06,0.38,0.49,
2.163,-0.35,-0.55,-3.97,0.05,0.39,0.50,
2.163,-0.35,-0.55,-3.97,0.05,0.39,0.51,
2.163,-0.35,-0.55,-3.97,0.06,0.40,0.52,
2.163,-0.53,-0.62,-3.49,0.06,0.40,0.52,
2.164,-0.53,-0.62,-3.49,0.06,0.40,0.53,
2.165,-0.53,-0.62,-3.49,0.06,0.40,0.54,
2.168,-0.53,-0.62,-3.49,0.07,0.40,0.55,
2.169,-0.53,-0.62,-3.49,0.07,0.40,0.56,
2.171,-0.53,-0.62,-3.49,0.09,0.40,0.57,
2.174,-0.46,-0.70,-2.65,0.09,0.40,0.57,
2.174,-0.46,-0.70,-2.65,0.10,0.39,0.57,
2.176,-0.46,-0.70,-2.65,0.12,0.39,0.57,
2.178,-0.46,-0.70,-2.65,0.15,0.39,0.58,
2.179,-0.46,-0.70,-2.65,0.16,0.39,0.58,
2.181,-0.46,-0.70,-2.65,0.18,0.38,0.58,
2.183,-0.11,-0.68,-1.62,0.18,0.38,0.58,
2.183,-0.11,-0.68,-1.62,0.21,0.38,0.58,
2.185,-0.11,-0.68,-1.62,0.24,0.37,0.58,
2.188,-0.11,-0.68,-1.62,0.27,0.35,0.58,
2.189,-0.11,-0.68,-1.62,0.28,0.35,0.58,
2.191,-0.11,-0.68,-1.62,0.31,0.34,0.58,
2.193,0.19,-0.69,-0.85,0.31,0.34,0.58,
2.194,0.19,-0.69,-0.85,0.34,0.33,0.58,
2.195,0.19,-0.69,-0.85,0.36,0.32,0.57,
2.198,0.19,-0.69,-0.85,0.40,0.32,0.57,
2.199,0.19,-0.69,-0.85,0.41,0.31,0.57,
2.201,0.19,-0.69,-0.85,0.43,0.31,0.57,
2.204,0.40,-0.73,-0.37,0.43,0.31,0.57,
2.204,0.40,-0.73,-0.37,0.45,0.32,0.57,
2.205,0.40,-0.73,-0.37,0.46,0.32,0.57,
2.208,0.40,-0.73,-0.37,0.48,0.34,0.57,
2.209,0.40,-0.73,-0.37,0.49,0.34,0.57,
2.211,0.40,-0.73,-0.37,0.49,0.35,0.57,
2.213,0.49,-0.81,-0.31,0.49,0.35,0.57,
2.214,0.49,-0.81,-0.31,0.49,0.37,0.58,
2.215,0.49,-0.81,-0.31,0.49,0.38,0.58,
2.218,0.49,-0.81,-0.31,0.48,0.41,0.59,
2.219,0.49,-0.81,-0.31,0.48,0.42,0.59,
2.222,0.49,-0.81,-0.31,0.47,0.43,0.60,
2.224,0.46,-0.94,-0.41,0.47,0.43,0.60,
2.224,0.46,-0.94,-0.41,0.45,0.46,0.60,
2.226,0.46,-0.94,-0.41,0.44,0.48,0.61,
2.23,0.46,-0.94,-0.41,0.42,0.52,0.63,
2.23,0.46,-0.94,-0.41,0.41,0.53,0.63,
2.231,0.46,-0.94,-0.41,0.39,0.56,0.64,
2.235,0.49,-0.92,-0.30,0.39,0.56,0.64,
2.235,0.49,-0.92,-0.30,0.37,0.58,0.65,
2.235,0.49,-0.92,-0.30,0.35,0.61,0.66,
2.238,0.49,-0.92,-0.30,0.32,0.64,0.68,
2.247,0.49,-0.92,-0.30,0.31,0.65,0.68,
2.248,0.49,-0.92,-0.30,0.29,0.67,0.69,
2.248,0.76,-0.93,-0.04,0.29,0.67,0.69,
2.248,0.76,-0.93,-0.04,0.27,0.69,0.70,
2.248,0.76,-0.93,-0.04,0.25,0.70,0.70,
2.249,0.76,-0.93,-0.04,0.22,0.72,0.71,
2.249,0.76,-0.93,-0.04,0.21,0.72,0.71,
2.251,0.76,-0.93,-0.04,0.19,0.73,0.71,
2.254,1.17,-0.82,0.39,0.19,0.73,0.71,
2.256,1.17,-0.82,0.39,0.17,0.73,0.71,
2.256,1.17,-0.82,0.39,0.16,0.72,0.71,
2.259,1.17,-0.82,0.39,0.13,0.71,0.70,
2.259,1.17,-0.82,0.39,0.13,0.71,0.69,
2.261,1.17,-0.82,0.39,0.12,0.70,0.69,
2.263,1.69,-0.71,1.00,0.12,0.70,0.69,
2.264,1.69,-0.71,1.00,0.11,0.68,0.68,
2.265,1.69,-0.71,1.00,0.10,0.66,0.67,
2.268,1.69,-0.71,1.00,0.09,0.63,0.65,
2.269,1.69,-0.71,1.00,0.09,0.61,0.64,
2.272,1.69,-0.71,1.00,0.08,0.59,0.63,
2.276,1.98,-0.53,1.47,0.08,0.59,0.63,
2.291,1.98,-0.53,1.47,0.07,0.55,0.62,
2.292,1.98,-0.53,1.47,0.06,0.52,0.61,
2.292,1.98,-0.53,1.47,0.04,0.46,0.59,
2.292,1.98,-0.53,1.47,0.03,0.44,0.58,
2.292,1.98,-0.53,1.47,0.01,0.39,0.57,
2.292,2.07,-0.43,1.59,0.01,0.39,0.57,
2.292,2.07,-0.43,1.59,-0.01,0.35,0.56,
2.292,2.07,-0.43,1.59,-0.03,0.31,0.55,
2.293,2.07,-0.43,1.59,-0.07,0.25,0.54,
2.293,2.07,-0.43,1.59,-0.08,0.23,0.54,
2.293,2.07,-0.43,1.59,-0.10,0.19,0.53,
2.293,2.00,-0.35,1.61,-0.10,0.19,0.53,
2.293,2.00,-0.35,1.61,-0.13,0.15,0.53,
2.297,2.00,-0.35,1.61,-0.17,0.11,0.52,
2.298,2.00,-0.35,1.61,-0.22,0.04,0.52,
2.299,2.00,-0.35,1.61,-0.24,0.02,0.51,
2.301,2.00,-0.35,1.61,-0.28,-0.02,0.51,
2.303,1.97,-0.28,1.61,-0.28,-0.02,0.51,
2.303,1.97,-0.28,1.61,-0.31,-0.07,0.51,
2.311,1.97,-0.28,1.61,-0.35,-0.11,0.51,
2.312,1.97,-0.28,1.61,-0.41,-0.16,0.50,
2.312,1.97,-0.28,1.61,-0.43,-0.18,0.50,
2.312,1.97,-0.28,1.61,-0.47,-0.21,0.51,
2.314,1.97,-0.28,1.61,-0.51,-0.24,0.50,
2.315,1.84,-0.17,1.94,-0.51,-0.24,0.50,
2.318,1.84,-0.17,1.94,-0.55,-0.27,0.50,
2.319,1.84,-0.17,1.94,-0.60,-0.30,0.51,
2.336,1.84,-0.17,1.94,-0.62,-0.31,0.51,
2.337,1.84,-0.17,1.94,-0.65,-0.33,0.50,
2.337,2.01,-0.20,2.67,-0.65,-0.33,0.50,
2.337,2.01,-0.20,2.67,-0.68,-0.35,0.50,
2.337,2.01,-0.20,2.67,-0.71,-0.36,0.50,
2.338,2.01,-0.20,2.67,-0.75,-0.38,0.49,
2.338,2.01,-0.20,2.67,-0.76,-0.38,0.49,
2.338,2.01,-0.20,2.67,-0.78,-0.39,0.48,
2.338,2.39,-0.13,3.61,-0.78,-0.39,0.48,
2.338,2.39,-0.13,3.61,-0.80,-0.40,0.47,
2.338,2.39,-0.13,3.61,-0.81,-0.40,0.46,
2.339,2.39,-0.13,3.61,-0.83,-0.40,0.43,
2.339,2.39,-0.13,3.61,-0.83,-0.40,0.43,
2.341,2.39,-0.13,3.61,-0.82,-0.40,0.41,
2.344,2.93,-0.09,4.61,-0.82,-0.40,0.41,
2.344,2.93,-0.09,4.61,-0.82,-0.39,0.39,
2.345,2.93,-0.09,4.61,-0.83,-0.38,0.37,
2.348,2.93,-0.09,4.61,-0.80,-0.35,0.34,
2.349,2.93,-0.09,4.61,-0.79,-0.34,0.33,
2.351,2.93,-0.09,4.61,-0.77,-0.32,0.31,
2.353,3.31,-0.16,5.38,-0.77,-0.32,0.31,
2.353,3.31,-0.16,5.38,-0.75,-0.30,0.29,
2.355,3.31,-0.16,5.38,-0.73,-0.26,0.26,
2.358,3.31,-0.16,5.38,-0.70,-0.21,0.23,
2.359,3.31,-0.16,5.38,-0.68,-0.19,0.22,
2.361,3.31,-0.16,5.38,-0.66,-0.15,0.20,
2.363,3.52,-0.24,5.70,-0.66,-0.15,0.20,
2.363,3.52,-0.24,5.70,-0.64,-0.10,0.18,
2.365,3.52,-0.24,5.70,-0.60,-0.05,0.16,
2.368,3.52,-0.24,5.70,-0.57,0.02,0.14,
2.369,3.52,-0.24,5.70,-0.57,0.04,0.13,
2.371,3.52,-0.24,5.70,-0.56,0.09,0.12,
2.373,3.20,-0.20,5.15,-0.56,0.09,0.12,
2.374,3.20,-0.20,5.15,-0.55,0.13,0.11,
2.375,3.20,-0.20,5.15,-0.55,0.19,0.09,
2.378,3.20,-0.20,5.15,-0.56,0.25,0.08,
2.379,3.20,-0.20,5.15,-0.56,0.26,0.08,
2.381,3.20,-0.20,5.15,-0.56,0.30,0.07,
2.383,2.80,-0.14,3.86,-0.56,0.30,0.07,
2.383,2.80,-0.14,3.86,-0.58,0.33,0.06,
2.385,2.80,-0.14,3.86,-0.61,0.36,0.05,
2.388,2.80,-0.14,3.86,-0.64,0.40,0.05,
2.389,2.80,-0.14,3.86,-0.65,0.41,0.04,
2.391,2.80,-0.14,3.86,-0.68,0.44,0.04,
2.393,2.44,0.09,2.65,-0.68,0.44,0.04,
2.393,2.44,0.09,2.65,-0.71,0.45,0.03,
2.395,2.44,0.09,2.65,-0.75,0.46,0.02,
2.398,2.44,0.09,2.65,-0.80,0.47,0.01,
2.399,2.44,0.09,2.65,-0.81,0.47,0.00,
2.401,2.44,0.09,2.65,-0.84,0.47,-0.01,
2.403,2.53,0.24,2.06,-0.84,0.47,-0.01,
2.403,2.53,0.24,2.06,-0.88,0.47,-0.02,
2.405,2.53,0.24,2.06,-0.90,0.47,-0.03,
2.408,2.53,0.24,2.06,-0.93,0.46,-0.05,
2.409,2.53,0.24,2.06,-0.94,0.46,-0.06,
2.411,2.53,0.24,2.06,-0.96,0.45,-0.07,
2.413,2.61,0.30,2.33,-0.96,0.45,-0.07,
2.413,2.61,0.30,2.33,-0.96,0.45,-0.08,
2.415,2.61,0.30,2.33,-0.97,0.44,-0.09,
2.418,2.61,0.30,2.33,-0.97,0.44,-0.12,
2.419,2.61,0.30,2.33,-0.96,0.44,-0.12,
2.421,2.61,0.30,2.33,-0.95,0.44,-0.13,
2.423,2.74,0.20,3.33,-0.95,0.44,-0.13,
2.423,2.74,0.20,3.33,-0.93,0.45,-0.15,
2.425,2.74,0.20,3.33,-0.89,0.46,-0.16,
2.428,2.74,0.20,3.33,-0.84,0.47,-0.16,
2.429,2.74,0.20,3.33,-0.83,0.48,-0.17,
2.431,2.74,0.20,3.33,-0.79,0.49,-0.17,
2.433,2.54,0.02,4.18,-0.79,0.49,-0.17,
2.433,2.54,0.02,4.18,-0.74,0.51,-0.17,
2.435,2.54,0.02,4.18,-0.70,0.52,-0.17,
2.448,2.54,0.02,4.18,-0.62,0.56,-0.17,
2.448,2.54,0.02,4.18,-0.60,0.57,-0.16,
2.469,2.54,0.02,4.18,-0.54,0.58,-0.16,
2.469,2.21,-0.21,4.46,-0.54,0.58,-0.16,
2.47,2.21,-0.21,4.46,-0.50,0.60,-0.15,
2.47,2.21,-0.21,4.46,-0.43,0.63,-0.14,
2.47,2.21,-0.21,4.46,-0.34,0.66,-0.12,
2.471,2.21,-0.21,4.46,-0.26,0.68,-0.10,
2.471,2.21,-0.21,4.46,-0.26,0.68,-0.10,
2.471,2.21,-0.21,4.46,-0.20,0.70,-0.08,
2.471,1.75,-0.40,4.19,-0.20,0.70,-0.08,
2.472,1.75,-0.40,4.19,-0.14,0.70,-0.06,
2.472,1.75,-0.40,4.19,-0.05,0.72,-0.03,
2.472,1.75,-0.40,4.19,-0.02,0.72,-0.02,
2.473,1.75,-0.40,4.19,0.04,0.72,0.00,
2.473,1.53,-0.55,3.46,0.04,0.72,0.00,
2.473,1.53,-0.55,3.46,0.09,0.72,0.02,
2.473,1.53,-0.55,3.46,0.15,0.72,0.04,
2.474,1.53,-0.55,3.46,0.23,0.72,0.07,
2.474,1.53,-0.55,3.46,0.25,0.72,0.08,
2.474,1.53,-0.55,3.46,0.29,0.71,0.10,
2.475,1.50,-0.59,2.29,0.29,0.71,0.10,
2.475,1.50,-0.59,2.29,0.34,0.70,0.12,
2.475,1.50,-0.59,2.29,0.37,0.69,0.13,
2.48,1.50,-0.59,2.29,0.43,0.67,0.15,
2.481,1.50,-0.59,2.29,0.45,0.67,0.15,
2.481,1.50,-0.59,2.29,0.47,0.65,0.16,
2.483,1.79,-0.57,0.96,0.47,0.65,0.16,
2.483,1.79,-0.57,0.96,0.50,0.63,0.17,
2.485,1.79,-0.57,0.96,0.52,0.61,0.17,
2.491,1.79,-0.57,0.96,0.55,0.57,0.18,
2.493,1.79,-0.57,0.96,0.56,0.56,0.17,
2.494,1.79,-0.57,0.96,0.57,0.53,0.17,
2.494,2.14,-0.44,-0.29,0.57,0.53,0.17,
2.495,2.14,-0.44,-0.29,0.58,0.50,0.16,
2.495,2.14,-0.44,-0.29,0.59,0.46,0.16,
2.498,2.14,-0.44,-0.29,0.59,0.41,0.14,
2.499,2.14,-0.44,-0.29,0.59,0.39,0.13,
2.501,2.14,-0.44,-0.29,0.59,0.34,0.12,
2.504,2.61,-0.25,-1.32,0.59,0.34,0.12,
2.505,2.61,-0.25,-1.32,0.59,0.30,0.10,
2.505,2.61,-0.25,-1.32,0.59,0.26,0.09,
2.508,2.61,-0.25,-1.32,0.58,0.20,0.06,
2.509,2.61,-0.25,-1.32,0.58,0.18,0.04,
2.511,2.61,-0.25,-1.32,0.57,0.14,0.03,
2.513,2.80,-0.21,-1.99,0.57,0.14,0.03,
2.514,2.80,-0.21,-1.99,0.56,0.10,0.00,
2.515,2.80,-0.21,-1.99,0.55,0.06,-0.02,
2.518,2.80,-0.21,-1.99,0.54,-0.00,-0.05,
2.519,2.80,-0.21,-1.99,0.54,-0.02,-0.06,
2.522,2.80,-0.21,-1.99,0.52,-0.06,-0.08,
2.524,2.87,-0.20,-2.34,0.52,-0.06,-0.08,
2.525,2.87,-0.20,-2.34,0.52,-0.09,-0.10,
2.525,2.87,-0.20,-2.34,0.51,-0.13,-0.12,
2.528,2.87,-0.20,-2.34,0.49,-0.17,-0.15,
2.529,2.87,-0.20,-2.34,0.49,-0.19,-0.16,
2.531,2.87,-0.20,-2.34,0.48,-0.21,-0.17,
2.533,2.65,-0.31,-2.47,0.48,-0.21,-0.17,
2.534,2.65,-0.31,-2.47,0.48,-0.23,-0.19,
2.535,2.65,-0.31,-2.47,0.47,-0.25,-0.20,
2.538,2.65,-0.31,-2.47,0.46,-0.27,-0.22,
2.54,2.65,-0.31,-2.47,0.45,-0.27,-0.23,
2.541,2.65,-0.31,-2.47,0.44,-0.28,-0.25,
2.543,2.51,-0.51,-2.56,0.44,-0.28,-0.25,
2.544,2.51,-0.51,-2.56,0.42,-0.29,-0.26,
2.545,2.51,-0.51,-2.56,0.41,-0.29,-0.27,
2.548,2.51,-0.51,-2.56,0.40,-0.30,-0.28,
2.549,2.51,-0.51,-2.56,0.40,-0.30,-0.29,
2.552,2.51,-0.51,-2.56,0.39,-0.29,-0.30,
2.553,2.21,-0.69,-2.56,0.39,-0.29,-0.30,
2.553,2.21,-0.69,-2.56,0.38,-0.29,-0.31,
2.555,2.21,-0.69,-2.56,0.37,-0.28,-0.32,
2.558,2.21,-0.69,-2.56,0.36,-0.27,-0.33,
2.559,2.21,-0.69,-2.56,0.35,-0.27,-0.34,
2.561,2.21,-0.69,-2.56,0.34,-0.26,-0.35,
2.563,2.15,-0.78,-2.63,0.34,-0.26,-0.35,
2.563,2.15,-0.78,-2.63,0.33,-0.25,-0.36,
2.565,2.15,-0.78,-2.63,0.32,-0.24,-0.37,
2.568,2.15,-0.78,-2.63,0.31,-0.23,-0.38,
2.571,2.15,-0.78,-2.63,0.30,-0.23,-0.39,
2.572,2.15,-0.78,-2.63,0.29,-0.22,-0.40,
2.573,1.96,-0.82,-2.83,0.29,-0.22,-0.40,
2.574,1.96,-0.82,-2.83,0.28,-0.21,-0.41,
2.575,1.96,-0.82,-2.83,0.27,-0.20,-0.41,
2.578,1.96,-0.82,-2.83,0.24,-0.18,-0.43,
2.579,1.96,-0.82,-2.83,0.23,-0.18,-0.43,
2.581,1.96,-0.82,-2.83,0.22,-0.17,-0.44,
2.584,1.82,-0.83,-3.10,0.22,-0.17,-0.44,
2.585,1.82,-0.83,-3.10,0.21,-0.16,-0.44,
2.595,1.82,-0.83,-3.10,0.19,-0.15,-0.45,
2.595,1.82,-0.83,-3.10,0.16,-0.13,-0.46,
2.596,1.82,-0.83,-3.10,0.15,-0.13,-0.47,
2.596,1.82,-0.83,-3.10,0.13,-0.12,-0.47,
2.596,1.62,-0.81,-3.43,0.13,-0.12,-0.47,
2.596,1.62,-0.81,-3.43,0.11,-0.11,-0.48,
2.598,1.62,-0.81,-3.43,0.10,-0.10,-0.49,
2.599,1.62,-0.81,-3.43,0.06,-0.09,-0.51,
2.599,1.62,-0.81,-3.43,0.05,-0.09,-0.51,
2.621,1.62,-0.81,-3.43,0.02,-0.08,-0.52,
2.622,1.66,-0.82,-3.75,0.02,-0.08,-0.52,
2.622,1.66,-0.82,-3.75,0.00,-0.07,-0.54,
2.622,1.66,-0.82,-3.75,-0.02,-0.07,-0.55,
2.644,1.66,-0.82,-3.75,-0.06,-0.05,-0.57,
2.644,1.66,-0.82,-3.75,-0.07,-0.05,-0.58,
2.644,1.66,-0.82,-3.75,-0.09,-0.04,-0.60,
2.644,1.63,-0.86,-3.98,-0.09,-0.04,-0.60,
2.645,1.63,-0.86,-3.98,-0.11,-0.03,-0.61,
2.645,1.63,-0.86,-3.98,-0.14,-0.03,-0.63,
2.645,1.63,-0.86,-3.98,-0.17,-0.01,-0.66,
2.645,1.63,-0.86,-3.98,-0.18,-0.01,-0.67,
2.645,1.63,-0.86,-3.98,-0.20,-0.00,-0.69,
2.646,1.71,-0.80,-4.12,-0.20,-0.00,-0.69,
2.646,1.71,-0.80,-4.12,-0.22,0.01,-0.71,
2.646,1.71,-0.80,-4.12,-0.23,0.01,-0.74,
2.646,1.71,-0.80,-4.12,-0.26,0.01,-0.77,
2.646,1.71,-0.80,-4.12,-0.27,0.02,-0.79,
2.647,1.71,-0.80,-4.12,-0.29,0.02,-0.81,
2.647,1.59,-0.84,-4.30,-0.29,0.02,-0.81,
2.647,1.59,-0.84,-4.30,-0.31,0.02,-0.83,
2.647,1.59,-0.84,-4.30,-0.33,0.02,-0.85,
2.647,1.59,-0.84,-4.30,-0.37,0.02,-0.88,
2.647,1.59,-0.84,-4.30,-0.38,0.02,-0.88,
2.648,1.59,-0.84,-4.30,-0.40,0.01,-0.90,
2.648,1.17,-1.05,-4.58,-0.40,0.01,-0.90,
2.648,1.17,-1.05,-4.58,-0.43,0.01,-0.90,
2.648,1.17,-1.05,-4.58,-0.45,0.01,-0.91,
2.648,1.17,-1.05,-4.58,-0.48,0.01,-0.91,
2.652,1.17,-1.05,-4.58,-0.49,0.01,-0.91,
2.652,1.17,-1.05,-4.58,-0.50,0.01,-0.90,
2.654,0.46,-1.25,-4.42,-0.50,0.01,-0.90,
2.654,0.46,-1.25,-4.42,-0.52,0.01,-0.90,
2.655,0.46,-1.25,-4.42,-0.53,0.01,-0.89,
2.658,0.46,-1.25,-4.42,-0.53,0.02,-0.87,
2.659,0.46,-1.25,-4.42,-0.53,0.02,-0.87,
2.661,0.46,-1.25,-4.42,-0.53,0.03,-0.86,
2.664,0.46,-1.25,-4.42,-0.53,0.04,-0.83,
2.664,-0.14,-1.41,-3.81,-0.53,0.04,-0.83,
2.665,-0.14,-1.41,-3.81,-0.52,0.05,-0.82,
2.668,-0.14,-1.41,-3.81,-0.50,0.05,-0.79,
2.67,-0.14,-1.41,-3.81,-0.50,0.06,-0.78,
2.671,-0.14,-1.41,-3.81,-0.48,0.06,-0.76,
2.673,-0.61,-1.48,-3.09,-0.48,0.06,-0.76,
2.674,-0.61,-1.48,-3.09,-0.46,0.07,-0.73,
2.675,-0.61,-1.48,-3.09,-0.44,0.07,-0.71,
2.678,-0.61,-1.48,-3.09,-0.40,0.07,-0.67,
2.679,-0.61,-1.48,-3.09,-0.39,0.07,-0.65,
2.681,-0.61,-1.48,-3.09,-0.36,0.07,-0.63,
2.683,-0.85,-1.48,-2.51,-0.36,0.07,-0.63,
2.683,-0.85,-1.48,-2.51,-0.34,0.06,-0.60,
2.685,-0.85,-1.48,-2.51,-0.30,0.05,-0.58,
2.689,-0.85,-1.48,-2.51,-0.25,0.03,-0.55,
2.69,-0.85,-1.48,-2.51,-0.23,0.02,-0.54,
2.692,-0.85,-1.48,-2.51,-0.20,-0.00,-0.52,
2.693,-0.62,-1.30,-2.05,-0.20,-0.00,-0.52,
2.693,-0.62,-1.30,-2.05,-0.16,-0.03,-0.51,
2.695,-0.62,-1.30,-2.05,-0.12,-0.06,-0.49,
2.698,-0.62,-1.30,-2.05,-0.06,-0.12,-0.47,
2.699,-0.62,-1.30,-2.05,-0.05,-0.14,-0.47,
2.701,-0.62,-1.30,-2.05,-0.01,-0.19,-0.45,
2.718,-0.32,-1.16,-1.82,-0.01,-0.19,-0.45,
2.719,-0.32,-1.16,-1.82,0.03,-0.24,-0.44,
2.719,-0.32,-1.16,-1.82,0.06,-0.30,-0.44,
2.72,-0.32,-1.16,-1.82,0.12,-0.38,-0.43,
2.72,-0.32,-1.16,-1.82,0.13,-0.42,-0.42,
2.72,-0.32,-1.16,-1.82,0.16,-0.48,-0.42,
2.721,0.03,-0.97,-1.88,0.16,-0.48,-0.42,
2.721,0.03,-0.97,-1.88,0.19,-0.55,-0.42,
2.721,0.03,-0.97,-1.88,0.21,-0.62,-0.43,
2.722,0.03,-0.97,-1.88,0.25,-0.72,-0.44,
2.722,0.03,-0.97,-1.88,0.26,-0.76,-0.44,
2.722,0.03,-0.97,-1.88,0.28,-0.83,-0.45,
2.723,0.48,-0.70,-1.90,0.28,-0.83,-0.45,
2.723,0.48,-0.70,-1.90,0.30,-0.90,-0.46,
2.73,0.48,-0.70,-1.90,0.31,-0.97,-0.47,
2.73,0.48,-0.70,-1.90,0.33,-1.06,-0.49,
2.731,0.48,-0.70,-1.90,0.34,-1.09,-0.50,
2.731,0.48,-0.70,-1.90,0.34,-1.16,-0.52,
2.733,0.77,-0.51,-1.84,0.34,-1.16,-0.52,
2.734,0.77,-0.51,-1.84,0.35,-1.21,-0.53,
2.747,0.77,-0.51,-1.84,0.35,-1.26,-0.54,
2.747,0.77,-0.51,-1.84,0.35,-1.33,-0.57,
2.747,0.77,-0.51,-1.84,0.35,-1.35,-0.58,
2.748,0.77,-0.51,-1.84,0.34,-1.39,-0.59,
2.748,0.89,-0.40,-1.54,0.34,-1.39,-0.59,
2.748,0.89,-0.40,-1.54,0.34,-1.42,-0.60,
2.751,0.89,-0.40,-1.54,0.33,-1.44,-0.62,
2.752,0.89,-0.40,-1.54,0.33,-1.47,-0.63,
2.752,0.89,-0.40,-1.54,0.32,-1.47,-0.64,
2.752,0.89,-0.40,-1.54,0.31,-1.48,-0.65,
2.763,0.81,-0.31,-1.05,0.31,-1.48,-0.65,
2.764,0.81,-0.31,-1.05,0.31,-1.48,-0.65,
2.764,0.81,-0.31,-1.05,0.30,-1.48,-0.66,
2.764,0.81,-0.31,-1.05,0.28,-1.47,-0.67,
2.765,0.81,-0.31,-1.05,0.27,-1.46,-0.67,
2.765,0.81,-0.31,-1.05,0.26,-1.44,-0.68,
2.766,0.80,-0.30,-0.53,0.26,-1.44,-0.68,
2.766,0.80,-0.30,-0.53,0.25,-1.42,-0.68,
2.766,0.80,-0.30,-0.53,0.24,-1.39,-0.69,
2.768,0.80,-0.30,-0.53,0.22,-1.34,-0.69,
2.775,0.80,-0.30,-0.53,0.21,-1.32,-0.69,
2.776,0.80,-0.30,-0.53,0.20,-1.27,-0.69,
2.777,0.68,-0.14,0.03,0.20,-1.27,-0.69,
2.807,0.68,-0.14,0.03,0.19,-1.22,-0.70,
2.807,0.68,-0.14,0.03,0.18,-1.17,-0.70,
2.807,0.68,-0.14,0.03,0.17,-1.10,-0.70,
2.807,0.68,-0.14,0.03,0.16,-1.07,-0.70,
2.808,0.68,-0.14,0.03,0.15,-1.01,-0.70,
2.808,0.70,0.03,0.40,0.15,-1.01,-0.70,
2.808,0.70,0.03,0.40,0.14,-0.95,-0.71,
2.809,0.70,0.03,0.40,0.13,-0.89,-0.71,
2.809,0.70,0.03,0.40,0.12,-0.80,-0.71,
2.809,0.70,0.03,0.40,0.11,-0.77,-0.71,
2.809,0.70,0.03,0.40,0.11,-0.70,-0.72,
2.81,0.64,0.29,0.48,0.11,-0.70,-0.72,
2.81,0.64,0.29,0.48,0.09,-0.64,-0.72,
2.81,0.64,0.29,0.48,0.08,-0.57,-0.73,
2.811,0.64,0.29,0.48,0.07,-0.48,-0.74,
2.811,0.64,0.29,0.48,0.06,-0.45,-0.74,
2.811,0.64,0.29,0.48,0.05,-0.38,-0.74,
2.811,0.53,0.50,0.26,0.05,-0.38,-0.74,
2.812,0.53,0.50,0.26,0.04,-0.33,-0.75,
2.812,0.53,0.50,0.26,0.02,-0.27,-0.75,
2.812,0.53,0.50,0.26,-0.00,-0.19,-0.75,
2.813,0.53,0.50,0.26,-0.01,-0.17,-0.75,
2.813,0.53,0.50,0.26,-0.03,-0.12,-0.74,
2.813,0.09,0.74,-0.14,-0.03,-0.12,-0.74,
2.813,0.09,0.74,-0.14,-0.05,-0.07,-0.74,
2.819,0.09,0.74,-0.14,-0.07,-0.03,-0.74,
2.82,0.09,0.74,-0.14,-0.10,0.04,-0.73,
2.82,0.09,0.74,-0.14,-0.10,0.06,-0.72,
2.822,0.09,0.74,-0.14,-0.12,0.10,-0.71,
2.824,-0.38,0.98,-0.55,-0.12,0.10,-0.71,
2.824,-0.38,0.98,-0.55,-0.14,0.14,-0.71,
2.825,-0.38,0.98,-0.55,-0.17,0.17,-0.69,
2.828,-0.38,0.98,-0.55,-0.20,0.21,-0.67,
2.829,-0.38,0.98,-0.55,-0.21,0.22,-0.66,
2.831,-0.38,0.98,-0.55,-0.23,0.24,-0.64,
2.833,-0.91,1.14,-0.80,-0.23,0.24,-0.64,
2.834,-0.91,1.14,-0.80,-0.25,0.26,-0.62,
2.835,-0.91,1.14,-0.80,-0.27,0.27,-0.60,
2.839,-0.91,1.14,-0.80,-0.30,0.27,-0.57,
2.841,-0.91,1.14,-0.80,-0.30,0.27,-0.56,
2.843,-0.91,1.14,-0.80,-0.32,0.27,-0.53,
2.847,-1.44,1.36,-0.66,-0.32,0.27,-0.53,
2.847,-1.44,1.36,-0.66,-0.32,0.27,-0.51,
2.848,-1.44,1.36,-0.66,-0.33,0.26,-0.48,
2.848,-1.44,1.36,-0.66,-0.34,0.25,-0.43,
2.849,-1.44,1.36,-0.66,-0.34,0.24,-0.40,
2.852,-1.44,1.36,-0.66,-0.34,0.23,-0.38,
2.854,-1.91,1.54,-0.18,-0.34,0.23,-0.38,
2.854,-1.91,1.54,-0.18,-0.35,0.22,-0.35,
2.856,-1.91,1.54,-0.18,-0.35,0.20,-0.32,
2.858,-1.91,1.54,-0.18,-0.34,0.17,-0.26,
2.859,-1.91,1.54,-0.18,-0.34,0.16,-0.25,
2.861,-1.91,1.54,-0.18,-0.34,0.14,-0.21,
2.863,-2.20,1.69,0.30,-0.34,0.14,-0.21,
2.864,-2.20,1.69,0.30,-0.33,0.12,-0.18,
2.865,-2.20,1.69,0.30,-0.33,0.10,-0.14,
2.884,-2.20,1.69,0.30,-0.32,0.08,-0.09,
2.886,-2.20,1.69,0.30,-0.32,0.07,-0.07,
2.887,-2.20,1.69,0.30,-0.32,0.05,-0.03,
2.887,-2.30,1.80,0.73,-0.32,0.05,-0.03,
2.888,-2.30,1.80,0.73,-0.32,0.04,-0.00,
2.888,-2.30,1.80,0.73,-0.31,0.02,0.03,
2.889,-2.30,1.80,0.73,-0.31,-0.00,0.08,
2.89,-2.30,1.80,0.73,-0.31,-0.01,0.09,
2.891,-2.30,1.80,0.73,-0.31,-0.02,0.12,
2.892,-2.12,2.03,1.16,-0.31,-0.02,0.12,
2.892,-2.12,2.03,1.16,-0.31,-0.04,0.15,
2.893,-2.12,2.03,1.16,-0.31,-0.04,0.17,
2.894,-2.12,2.03,1.16,-0.31,-0.05,0.20,
2.895,-2.12,2.03,1.16,-0.31,-0.06,0.21,
2.895,-2.12,2.03,1.16,-0.31,-0.06,0.23,
2.896,-1.73,2.19,1.77,-0.31,-0.06,0.23,
2.897,-1.73,2.19,1.77,-0.30,-0.06,0.24,
2.898,-1.73,2.19,1.77,-0.30,-0.06,0.26,
2.899,-1.73,2.19,1.77,-0.30,-0.06,0.27,
2.907,-1.73,2.19,1.77,-0.30,-0.06,0.28,
2.907,-1.73,2.19,1.77,-0.30,-0.05,0.29,
2.907,-1.39,2.29,2.34,-0.30,-0.05,0.29,
2.908,-1.39,2.29,2.34,-0.31,-0.04,0.30,
2.908,-1.39,2.29,2.34,-0.32,-0.03,0.31,
2.921,-1.39,2.29,2.34,-0.31,-0.01,0.32,
2.922,-1.39,2.29,2.34,-0.31,0.00,0.32,
2.922,-1.39,2.29,2.34,-0.31,0.02,0.33,
2.923,-1.12,2.26,3.04,-0.31,0.02,0.33,
2.923,-1.12,2.26,3.04,-0.31,0.05,0.34,
2.923,-1.12,2.26,3.04,-0.30,0.08,0.34,
2.924,-1.12,2.26,3.04,-0.30,0.13,0.35,
2.924,-1.12,2.26,3.04,-0.30,0.14,0.35,
2.924,-1.12,2.26,3.04,-0.29,0.17,0.36,
2.924,-1.05,2.20,3.76,-0.29,0.17,0.36,
2.925,-1.05,2.20,3.76,-0.28,0.20,0.36,
2.925,-1.05,2.20,3.76,-0.27,0.23,0.37,
2.93,-1.05,2.20,3.76,-0.26,0.28,0.38,
2.931,-1.05,2.20,3.76,-0.26,0.29,0.38,
2.932,-1.05,2.20,3.76,-0.24,0.32,0.39,
2.935,-1.02,1.97,4.29,-0.24,0.32,0.39,
2.936,-1.02,1.97,4.29,-0.23,0.36,0.39,
2.937,-1.02,1.97,4.29,-0.22,0.39,0.40,
2.94,-1.02,1.97,4.29,-0.21,0.43,0.41,
2.946,-1.02,1.97,4.29,-0.20,0.45,0.42,
2.974,-1.02,1.97,4.29,-0.20,0.47,0.43,
2.975,-1.13,1.71,4.48,-0.20,0.47,0.43,
2.975,-1.13,1.71,4.48,-0.20,0.51,0.43,
2.975,-1.13,1.71,4.48,-0.19,0.53,0.44,
2.976,-1.13,1.71,4.48,-0.17,0.58,0.46,
2.976,-1.13,1.71,4.48,-0.17,0.58,0.46,
2.977,-1.13,1.71,4.48,-0.17,0.60,0.47,
2.977,-1.16,1.57,4.51,-0.17,0.60,0.47,
2.978,-1.16,1.57,4.51,-0.16,0.62,0.48,
2.978,-1.16,1.57,4.51,-0.17,0.64,0.48,
2.978,-1.16,1.57,4.51,-0.16,0.65,0.49,
2.979,-1.16,1.57,4.51,-0.16,0.66,0.49,
2.979,-1.16,1.57,4.51,-0.16,0.67,0.50,
2.98,-1.10,1.45,4.50,-0.16,0.67,0.50,
2.98,-1.10,1.45,4.50,-0.16,0.67,0.50,
2.981,-1.10,1.45,4.50,-0.16,0.67,0.50,
2.981,-1.10,1.45,4.50,-0.16,0.66,0.51,
2.981,-1.10,1.45,4.50,-0.15,0.66,0.51,
2.982,-1.10,1.45,4.50,-0.15,0.65,0.52,
2.982,-1.05,1.29,4.62,-0.15,0.65,0.52,
2.983,-1.05,1.29,4.62,-0.15,0.65,0.52,
2.983,-1.05,1.29,4.62,-0.14,0.64,0.53,
2.983,-1.05,1.29,4.62,-0.13,0.63,0.54,
2.984,-1.05,1.29,4.62,-0.13,0.62,0.54,
2.984,-1.05,1.29,4.62,-0.12,0.61,0.54,
2.985,-0.99,1.14,4.98,-0.12,0.61,0.54,
2.985,-0.99,1.14,4.98,-0.11,0.60,0.55,
2.985,-0.99,1.14,4.98,-0.09,0.60,0.55,
2.999,-0.99,1.14,4.98,-0.06,0.59,0.56,
3.0,-0.99,1.14,4.98,-0.04,0.59,0.56,
3.001,-0.99,1.14,4.98,-0.02,0.57,0.57,
3.001,-0.89,0.95,5.52,-0.02,0.57,0.57,
3.002,-0.89,0.95,5.52,0.01,0.57,0.57,
3.002,-0.89,0.95,5.52,0.05,0.56,0.58,
3.002,-0.89,0.95,5.52,0.10,0.55,0.59,
3.003,-0.89,0.95,5.52,0.12,0.55,0.60,
3.003,-0.89,0.95,5.52,0.16,0.55,0.61,
3.003,-0.95,0.58,5.91,0.16,0.55,0.61,
3.004,-0.95,0.58,5.91,0.19,0.55,0.62,
3.005,-0.95,0.58,5.91,0.23,0.55,0.64,
3.009,-0.95,0.58,5.91,0.30,0.56,0.67,
3.01,-0.95,0.58,5.91,0.32,0.57,0.67,
3.011,-0.95,0.58,5.91,0.37,0.58,0.69,
3.017,-0.95,0.58,5.91,0.44,0.60,0.72,
3.018,-1.09,0.12,5.97,0.44,0.60,0.72,
3.018,-1.09,0.12,5.97,0.47,0.61,0.73,
3.018,-1.09,0.12,5.97,0.54,0.63,0.77,
3.024,-1.09,0.12,5.97,0.56,0.64,0.78,
3.025,-1.09,0.12,5.97,0.61,0.66,0.80,
3.025,-1.14,-0.27,5.62,0.61,0.66,0.80,
3.026,-1.14,-0.27,5.62,0.65,0.67,0.82,
3.026,-1.14,-0.27,5.62,0.70,0.69,0.84,
3.03,-1.14,-0.27,5.62,0.76,0.70,0.87,
3.031,-1.14,-0.27,5.62,0.78,0.71,0.88,
3.031,-1.14,-0.27,5.62,0.81,0.72,0.90,
3.035,-0.94,-0.52,4.63,0.81,0.72,0.90,
3.036,-0.94,-0.52,4.63,0.84,0.73,0.92,
3.037,-0.94,-0.52,4.63,0.87,0.74,0.93,
3.051,-0.94,-0.52,4.63,0.91,0.74,0.96,
3.052,-0.94,-0.52,4.63,0.92,0.74,0.96,
3.053,-0.94,-0.52,4.63,0.94,0.74,0.98,
3.053,-0.69,-0.68,3.36,0.94,0.74,0.98,
3.054,-0.69,-0.68,3.36,0.96,0.74,0.99,
3.054,-0.69,-0.68,3.36,0.98,0.73,1.00,
3.054,-0.69,-0.68,3.36,0.99,0.72,1.01,
3.055,-0.69,-0.68,3.36,0.99,0.72,1.02,
3.055,-0.69,-0.68,3.36,1.00,0.71,1.03,
3.055,-0.44,-0.73,2.19,1.00,0.71,1.03,
3.056,-0.44,-0.73,2.19,1.01,0.70,1.03,
3.056,-0.44,-0.73,2.19,1.02,0.69,1.04,
3.062,-0.44,-0.73,2.19,1.03,0.66,1.05,
3.062,-0.44,-0.73,2.19,1.03,0.65,1.05,
3.063,-0.44,-0.73,2.19,1.04,0.64,1.05,
3.064,-0.14,-0.78,1.21,1.04,0.64,1.05,
3.064,-0.14,-0.78,1.21,1.03,0.62,1.05,
3.066,-0.14,-0.78,1.21,1.03,0.60,1.05,
3.082,-0.14,-0.78,1.21,1.03,0.57,1.05,
3.083,-0.14,-0.78,1.21,1.03,0.56,1.05,
3.083,-0.14,-0.78,1.21,1.02,0.54,1.05,
3.083,0.11,-0.78,0.33,1.02,0.54,1.05,
3.083,0.11,-0.78,0.33,1.02,0.52,1.05,
3.083,0.11,-0.78,0.33,1.02,0.51,1.05,
3.084,0.11,-0.78,0.33,1.00,0.48,1.04,
3.084,0.11,-0.78,0.33,1.00,0.47,1.04,
3.084,0.11,-0.78,0.33,0.99,0.46,1.04,
3.084,0.21,-0.71,-0.28,0.99,0.46,1.04,
3.085,0.21,-0.71,-0.28,0.99,0.45,1.04,
3.087,0.21,-0.71,-0.28,0.98,0.44,1.04,
3.088,0.21,-0.71,-0.28,0.96,0.41,1.03,
3.089,0.21,-0.71,-0.28,0.96,0.40,1.02,
3.091,0.21,-0.71,-0.28,0.94,0.38,1.01,
3.093,0.62,-0.93,-0.95,0.94,0.38,1.01,
3.094,0.62,-0.93,-0.95,0.93,0.37,1.00,
3.095,0.62,-0.93,-0.95,0.91,0.35,0.98,
3.098,0.62,-0.93,-0.95,0.88,0.33,0.96,
3.101,0.62,-0.93,-0.95,0.87,0.32,0.95,
3.104,0.62,-0.93,-0.95,0.85,0.31,0.94,
3.105,0.88,-1.08,-1.55,0.85,0.31,0.94,
3.106,0.88,-1.08,-1.55,0.84,0.30,0.92,
3.106,0.88,-1.08,-1.55,0.82,0.29,0.91,
3.143,0.88,-1.08,-1.55,0.79,0.28,0.88,
3.143,0.88,-1.08,-1.55,0.78,0.27,0.88,
3.143,0.88,-1.08,-1.55,0.76,0.26,0.86,
3.144,0.98,-1.04,-1.99,0.76,0.26,0.86,
3.144,0.98,-1.04,-1.99,0.74,0.26,0.84,
3.144,0.98,-1.04,-1.99,0.72,0.25,0.83,
3.144,0.98,-1.04,-1.99,0.69,0.24,0.80,
3.144,0.98,-1.04,-1.99,0.68,0.24,0.79,
3.145,0.98,-1.04,-1.99,0.65,0.23,0.77,
3.145,1.13,-1.20,-2.46,0.65,0.23,0.77,
3.145,1.13,-1.20,-2.46,0.63,0.23,0.76,
3.145,1.13,-1.20,-2.46,0.61,0.23,0.74,
3.145,1.13,-1.20,-2.46,0.57,0.23,0.71,
3.145,1.13,-1.20,-2.46,0.55,0.22,0.70,
3.146,1.13,-1.20,-2.46,0.54,0.22,0.69,
3.146,1.06,-1.33,-2.88,0.54,0.22,0.69,
3.146,1.06,-1.33,-2.88,0.51,0.22,0.68,
3.146,1.06,-1.33,-2.88,0.48,0.22,0.66,
3.146,1.06,-1.33,-2.88,0.45,0.22,0.64,
3.146,1.06,-1.33,-2.88,0.42,0.22,0.62,
3.147,1.06,-1.33,-2.88,0.40,0.22,0.62,
3.147,1.03,-1.47,-3.21,0.40,0.22,0.62,
3.147,1.03,-1.47,-3.21,0.38,0.22,0.60,
3.147,1.03,-1.47,-3.21,0.37,0.22,0.59,
3.152,1.03,-1.47,-3.21,0.32,0.22,0.57,
3.153,1.03,-1.47,-3.21,0.30,0.23,0.56,
3.153,1.03,-1.47,-3.21,0.29,0.23,0.55,
3.153,0.89,-1.60,-3.45,0.29,0.23,0.55,
3.153,0.89,-1.60,-3.45,0.26,0.23,0.53,
3.155,0.89,-1.60,-3.45,0.24,0.23,0.52,
3.158,0.89,-1.60,-3.45,0.21,0.24,0.50,
3.159,0.89,-1.60,-3.45,0.19,0.24,0.49,
3.161,0.89,-1.60,-3.45,0.18,0.23,0.48,
3.163,0.83,-1.70,-3.59,0.18,0.23,0.48,
3.163,0.83,-1.70,-3.59,0.16,0.24,0.47,
3.165,0.83,-1.70,-3.59,0.14,0.24,0.46,
3.173,0.83,-1.70,-3.59,0.12,0.24,0.44,
3.173,0.83,-1.70,-3.59,0.10,0.24,0.43,
3.173,0.83,-1.70,-3.59,0.10,0.24,0.42,
3.173,0.78,-1.81,-3.70,0.10,0.24,0.42,
3.174,0.78,-1.81,-3.70,0.08,0.25,0.41,
3.175,0.78,-1.81,-3.70,0.07,0.25,0.39,
3.178,0.78,-1.81,-3.70,0.05,0.27,0.38,
3.179,0.78,-1.81,-3.70,0.04,0.29,0.37,
3.181,0.78,-1.81,-3.70,0.03,0.30,0.37,
3.2,0.51,-2.03,-3.79,0.03,0.30,0.37,
3.2,0.51,-2.03,-3.79,0.01,0.31,0.37,
3.201,0.51,-2.03,-3.79,0.01,0.34,0.37,
3.201,0.51,-2.03,-3.79,-0.02,0.38,0.37,
3.201,0.51,-2.03,-3.79,-0.04,0.41,0.38,
3.201,0.51,-2.03,-3.79,-0.04,0.42,0.39,
3.201,-0.18,-2.36,-3.85,-0.04,0.42,0.39,
3.202,-0.18,-2.36,-3.85,-0.06,0.46,0.40,
3.202,-0.18,-2.36,-3.85,-0.07,0.49,0.42,
3.202,-0.18,-2.36,-3.85,-0.08,0.55,0.45,
3.202,-0.18,-2.36,-3.85,-0.09,0.59,0.48,
3.203,-0.18,-2.36,-3.85,-0.08,0.61,0.49,
3.204,-1.02,-2.67,-3.47,-0.08,0.61,0.49,
3.204,-1.02,-2.67,-3.47,-0.07,0.65,0.53,
3.206,-1.02,-2.67,-3.47,-0.07,0.69,0.56,
3.208,-1.02,-2.67,-3.47,-0.05,0.76,0.61,
3.209,-1.02,-2.67,-3.47,-0.04,0.81,0.65,
3.211,-1.02,-2.67,-3.47,-0.03,0.83,0.67,
3.213,-1.30,-2.71,-2.95,-0.03,0.83,0.67,
3.214,-1.30,-2.71,-2.95,-0.01,0.88,0.70,
3.215,-1.30,-2.71,-2.95,0.00,0.93,0.73,
3.219,-1.30,-2.71,-2.95,0.02,0.99,0.78,
3.222,-1.30,-2.71,-2.95,0.03,1.04,0.81,
3.222,-1.30,-2.71,-2.95,0.04,1.06,0.82,
3.224,-1.08,-2.76,-2.88,0.04,1.06,0.82,
3.224,-1.08,-2.76,-2.88,0.06,1.11,0.84,
3.225,-1.08,-2.76,-2.88,0.08,1.15,0.86,
3.228,-1.08,-2.76,-2.88,0.09,1.22,0.89,
3.229,-1.08,-2.76,-2.88,0.10,1.26,0.90,
3.231,-1.08,-2.76,-2.88,0.10,1.28,0.91,
3.234,-0.55,-2.80,-3.27,0.10,1.28,0.91,
3.235,-0.55,-2.80,-3.27,0.10,1.32,0.92,
3.239,-0.55,-2.80,-3.27,0.10,1.35,0.93,
3.241,-0.55,-2.80,-3.27,0.09,1.39,0.94,
3.242,-0.55,-2.80,-3.27,0.09,1.41,0.95,
3.242,-0.55,-2.80,-3.27,0.08,1.42,0.95,
3.244,-0.16,-2.91,-3.90,0.08,1.42,0.95,
3.245,-0.16,-2.91,-3.90,0.06,1.44,0.96,
3.25,-0.16,-2.91,-3.90,0.05,1.45,0.96,
3.251,-0.16,-2.91,-3.90,0.01,1.50,0.94,
3.253,-0.16,-2.91,-3.90,-0.00,1.51,0.94,
3.253,-0.16,-2.91,-3.90,-0.01,1.52,0.94,
3.257,0.49,-2.89,-4.78,-0.01,1.52,0.94,
3.257,0.49,-2.89,-4.78,-0.03,1.53,0.93,
3.258,0.49,-2.89,-4.78,-0.06,1.53,0.92,
3.262,0.49,-2.89,-4.78,-0.10,1.51,0.91,
3.262,0.49,-2.89,-4.78,-0.12,1.49,0.90,
3.263,0.49,-2.89,-4.78,-0.14,1.47,0.90,
3.264,0.58,-2.41,-4.75,-0.14,1.47,0.90,
3.264,0.58,-2.41,-4.75,-0.15,1.44,0.89,
3.267,0.58,-2.41,-4.75,-0.16,1.42,0.87,
3.268,0.58,-2.41,-4.75,-0.16,1.37,0.85,
3.27,0.58,-2.41,-4.75,-0.15,1.35,0.83,
3.271,0.58,-2.41,-4.75,-0.14,1.34,0.82,
3.273,0.82,-1.96,-3.97,-0.14,1.34,0.82,
3.29,0.82,-1.96,-3.97,-0.12,1.32,0.79,
3.29,0.82,-1.96,-3.97,-0.11,1.29,0.76,
3.291,0.82,-1.96,-3.97,-0.09,1.26,0.72,
3.291,0.82,-1.96,-3.97,-0.07,1.24,0.69,
3.291,0.82,-1.96,-3.97,-0.07,1.22,0.68,
3.291,1.19,-2.27,-3.79,-0.07,1.22,0.68,
3.291,1.19,-2.27,-3.79,-0.06,1.20,0.65,
3.291,1.19,-2.27,-3.79,-0.06,1.18,0.62,
3.292,1.19,-2.27,-3.79,-0.05,1.15,0.59,
3.292,1.19,-2.27,-3.79,-0.05,1.12,0.57,
3.292,1.19,-2.27,-3.79,-0.05,1.11,0.56,
3.301,1.14,-2.37,-4.12,-0.05,1.11,0.56,
3.302,1.14,-2.37,-4.12,-0.05,1.09,0.54,
3.302,1.14,-2.37,-4.12,-0.06,1.07,0.53,
3.302,1.14,-2.37,-4.12,-0.06,1.04,0.51,
3.303,1.14,-2.37,-4.12,-0.07,1.01,0.50,
3.303,1.14,-2.37,-4.12,-0.08,1.00,0.50,
3.303,0.72,-2.10,-4.29,-0.08,1.00,0.50,
3.303,0.72,-2.10,-4.29,-0.10,0.95,0.49,
3.305,0.72,-2.10,-4.29,-0.10,0.93,0.49,
3.315,0.72,-2.10,-4.29,-0.12,0.88,0.48,
3.328,0.72,-2.10,-4.29,-0.14,0.84,0.48,
3.328,0.72,-2.10,-4.29,-0.15,0.81,0.49,
3.328,0.36,-1.84,-4.35,-0.15,0.81,0.49,
3.328,0.36,-1.84,-4.35,-0.17,0.78,0.50,
3.329,0.36,-1.84,-4.35,-0.19,0.74,0.50,
3.329,0.36,-1.84,-4.35,-0.22,0.71,0.51,
3.329,0.36,-1.84,-4.35,-0.24,0.67,0.53,
3.329,0.36,-1.84,-4.35,-0.26,0.64,0.54,
3.329,-0.05,-1.74,-4.14,-0.26,0.64,0.54,
3.33,-0.05,-1.74,-4.14,-0.28,0.61,0.56,
3.33,-0.05,-1.74,-4.14,-0.30,0.58,0.57,
3.33,-0.05,-1.74,-4.14,-0.33,0.53,0.60,
3.33,-0.05,-1.74,-4.14,-0.34,0.51,0.61,
3.332,-0.05,-1.74,-4.14,-0.35,0.48,0.62,
3.342,-0.10,-1.55,-3.43,-0.35,0.48,0.62,
3.342,-0.10,-1.55,-3.43,-0.37,0.44,0.64,
3.343,-0.10,-1.55,-3.43,-0.38,0.40,0.66,
3.343,-0.10,-1.55,-3.43,-0.39,0.35,0.68,
3.343,-0.10,-1.55,-3.43,-0.39,0.31,0.70,
3.343,-0.10,-1.55,-3.43,-0.40,0.25,0.72,
3.343,-0.06,-1.22,-2.42,-0.40,0.25,0.72,
3.343,-0.06,-1.22,-2.42,-0.40,0.20,0.73,
3.345,-0.06,-1.22,-2.42,-0.40,0.15,0.75,
3.359,-0.06,-1.22,-2.42,-0.40,0.09,0.77,
3.36,-0.06,-1.22,-2.42,-0.39,0.03,0.78,
3.361,-0.06,-1.22,-2.42,-0.39,-0.03,0.80,
3.362,0.11,-0.77,-1.43,-0.39,-0.03,0.80,
3.363,0.11,-0.77,-1.43,-0.39,-0.09,0.81,
3.363,0.11,-0.77,-1.43,-0.39,-0.15,0.82,
3.363,0.11,-0.77,-1.43,-0.39,-0.21,0.83,
3.364,0.11,-0.77,-1.43,-0.38,-0.27,0.83,
3.365,0.11,-0.77,-1.43,-0.37,-0.33,0.84,
3.365,0.49,-0.32,-0.57,-0.37,-0.33,0.84,
3.365,0.49,-0.32,-0.57,-0.37,-0.38,0.84,
3.366,0.49,-0.32,-0.57,-0.37,-0.43,0.84,
3.368,0.49,-0.32,-0.57,-0.36,-0.49,0.85,
3.369,0.49,-0.32,-0.57,-0.36,-0.53,0.85,
3.371,0.49,-0.32,-0.57,-0.35,-0.58,0.85,
3.373,0.84,0.09,0.21,-0.35,-0.58,0.85,
3.374,0.84,0.09,0.21,-0.35,-0.61,0.85,
3.376,0.84,0.09,0.21,-0.34,-0.65,0.84,
3.378,0.84,0.09,0.21,-0.34,-0.68,0.84,
3.379,0.84,0.09,0.21,-0.33,-0.70,0.84,
3.381,0.84,0.09,0.21,-0.33,-0.73,0.83,
3.384,1.17,0.37,0.95,-0.33,-0.73,0.83,
3.384,1.17,0.37,0.95,-0.33,-0.74,0.83,
3.385,1.17,0.37,0.95,-0.32,-0.75,0.83,
3.388,1.17,0.37,0.95,-0.32,-0.76,0.82,
3.389,1.17,0.37,0.95,-0.32,-0.76,0.81,
3.391,1.17,0.37,0.95,-0.31,-0.77,0.81,
3.394,1.34,0.52,1.60,-0.31,-0.77,0.81,
3.394,1.34,0.52,1.60,-0.31,-0.76,0.80,
3.395,1.34,0.52,1.60,-0.30,-0.76,0.79,
3.415,1.34,0.52,1.60,-0.30,-0.74,0.78,
3.416,1.34,0.52,1.60,-0.29,-0.73,0.78,
3.417,1.34,0.52,1.60,-0.28,-0.71,0.77,
3.417,1.48,0.68,2.39,-0.28,-0.71,0.77,
3.417,1.48,0.68,2.39,-0.26,-0.68,0.76,
3.421,1.48,0.68,2.39,-0.25,-0.65,0.76,
3.421,1.48,0.68,2.39,-0.23,-0.62,0.75,
3.421,1.48,0.68,2.39,-0.22,-0.58,0.75,
3.422,1.48,0.68,2.39,-0.20,-0.54,0.74,
3.422,1.42,0.81,3.11,-0.20,-0.54,0.74,
3.422,1.42,0.81,3.11,-0.18,-0.49,0.74,
3.423,1.42,0.81,3.11,-0.16,-0.44,0.73,
3.423,1.42,0.81,3.11,-0.14,-0.39,0.73,
3.423,1.42,0.81,3.11,-0.12,-0.33,0.72,
3.427,1.42,0.81,3.11,-0.10,-0.27,0.72,
3.43,1.48,0.91,3.34,-0.10,-0.27,0.72,
3.43,1.48,0.91,3.34,-0.08,-0.21,0.71,
3.43,1.48,0.91,3.34,-0.07,-0.14,0.71,
3.43,1.48,0.91,3.34,-0.06,-0.08,0.71,
3.431,1.48,0.91,3.34,-0.05,-0.01,0.70,
3.446,1.48,0.91,3.34,-0.04,0.05,0.69,
3.447,1.41,1.03,2.96,-0.04,0.05,0.69,
3.448,1.41,1.03,2.96,-0.04,0.12,0.69,
3.448,1.41,1.03,2.96,-0.04,0.18,0.68,
3.449,1.41,1.03,2.96,-0.05,0.23,0.68,
3.449,1.41,1.03,2.96,-0.06,0.29,0.68,
3.473,1.41,1.03,2.96,-0.06,0.34,0.68,
3.474,1.31,1.28,2.21,-0.06,0.34,0.68,
3.474,1.31,1.28,2.21,-0.07,0.39,0.67,
3.474,1.31,1.28,2.21,-0.09,0.44,0.67,
3.474,1.31,1.28,2.21,-0.10,0.49,0.66,
3.475,1.31,1.28,2.21,-0.11,0.57,0.65,
3.475,1.31,1.28,2.21,-0.11,0.57,0.65,
3.475,1.21,1.45,1.85,-0.11,0.57,0.65,
3.475,1.21,1.45,1.85,-0.12,0.61,0.64,
3.476,1.21,1.45,1.85,-0.13,0.64,0.64,
3.476,1.21,1.45,1.85,-0.15,0.67,0.63,
3.476,1.21,1.45,1.85,-0.16,0.69,0.63,
3.477,1.21,1.45,1.85,-0.17,0.70,0.63,
3.477,0.97,1.64,1.67,-0.17,0.70,0.63,
3.477,0.97,1.64,1.67,-0.19,0.71,0.62,
3.477,0.97,1.64,1.67,-0.20,0.71,0.62,
3.478,0.97,1.64,1.67,-0.22,0.71,0.61,
3.478,0.97,1.64,1.67,-0.24,0.70,0.61,
3.478,0.97,1.64,1.67,-0.26,0.69,0.61,
3.478,0.69,1.77,1.50,-0.26,0.69,0.61,
3.479,0.69,1.77,1.50,-0.29,0.68,0.60,
3.479,0.69,1.77,1.50,-0.31,0.66,0.60,
3.479,0.69,1.77,1.50,-0.36,0.63,0.59,
3.479,0.69,1.77,1.50,-0.37,0.62,0.59,
3.484,0.69,1.77,1.50,-0.40,0.60,0.59,
3.484,0.49,1.91,1.36,-0.40,0.60,0.59,
3.484,0.49,1.91,1.36,-0.43,0.58,0.58,
3.486,0.49,1.91,1.36,-0.47,0.56,0.58,
3.488,0.49,1.91,1.36,-0.52,0.52,0.58,
3.489,0.49,1.91,1.36,-0.54,0.51,0.58,
3.491,0.49,1.91,1.36,-0.57,0.49,0.58,
3.493,0.19,1.90,1.52,-0.57,0.49,0.58,
3.493,0.19,1.90,1.52,-0.61,0.47,0.58,
3.495,0.19,1.90,1.52,-0.66,0.45,0.58,
3.501,0.19,1.90,1.52,-0.72,0.42,0.58,
3.501,0.19,1.90,1.52,-0.73,0.40,0.58,
3.501,0.19,1.90,1.52,-0.77,0.38,0.58,
3.503,0.15,1.80,1.93,-0.77,0.38,0.58,
3.503,0.15,1.80,1.93,-0.81,0.35,0.58,
3.506,0.15,1.80,1.93,-0.85,0.33,0.58,
3.508,0.15,1.80,1.93,-0.91,0.28,0.59,
3.509,0.15,1.80,1.93,-0.92,0.26,0.59,
3.511,0.15,1.80,1.93,-0.96,0.23,0.59,
3.513,0.17,1.43,2.74,-0.96,0.23,0.59,
3.513,0.17,1.43,2.74,-0.98,0.20,0.60,
3.515,0.17,1.43,2.74,-1.01,0.17,0.61,
3.518,0.17,1.43,2.74,-1.03,0.14,0.62,
3.519,0.17,1.43,2.74,-1.03,0.13,0.62,
3.522,0.17,1.43,2.74,-1.04,0.11,0.63,
3.523,0.17,1.01,4.06,-1.04,0.11,0.63,
3.523,0.17,1.01,4.06,-1.03,0.09,0.64,
3.525,0.17,1.01,4.06,-1.02,0.08,0.65,
3.528,0.17,1.01,4.06,-1.00,0.06,0.67,
3.529,0.17,1.01,4.06,-0.99,0.05,0.67,
3.531,0.17,1.01,4.06,-0.97,0.04,0.69,
3.533,0.11,0.75,5.30,-0.97,0.04,0.69,
3.533,0.11,0.75,5.30,-0.95,0.02,0.70,
3.535,0.11,0.75,5.30,-0.91,0.01,0.71,
3.538,0.11,0.75,5.30,-0.87,-0.00,0.73,
3.539,0.11,0.75,5.30,-0.85,-0.01,0.74,
3.541,0.11,0.75,5.30,-0.82,-0.02,0.75,
3.554,0.08,0.51,5.84,-0.82,-0.02,0.75,
3.554,0.08,0.51,5.84,-0.78,-0.04,0.76,
3.554,0.08,0.51,5.84,-0.76,-0.06,0.77,
3.554,0.08,0.51,5.84,-0.71,-0.09,0.79,
3.555,0.08,0.51,5.84,-0.70,-0.10,0.80,
3.555,0.08,0.51,5.84,-0.68,-0.13,0.81,
3.555,0.06,0.48,5.53,-0.68,-0.13,0.81,
3.555,0.06,0.48,5.53,-0.66,-0.16,0.82,
3.555,0.06,0.48,5.53,-0.63,-0.19,0.83,
3.558,0.06,0.48,5.53,-0.61,-0.24,0.85,
3.559,0.06,0.48,5.53,-0.60,-0.26,0.85,
3.561,0.06,0.48,5.53,-0.59,-0.30,0.86,
3.575,0.12,0.63,4.81,-0.59,-0.30,0.86,
3.575,0.12,0.63,4.81,-0.59,-0.33,0.86,
3.576,0.12,0.63,4.81,-0.59,-0.36,0.87,
3.576,0.12,0.63,4.81,-0.59,-0.41,0.87,
3.576,0.12,0.63,4.81,-0.60,-0.43,0.87,
3.576,0.12,0.63,4.81,-0.61,-0.46,0.87,
3.576,0.42,0.94,3.91,-0.61,-0.46,0.87,
3.576,0.42,0.94,3.91,-0.63,-0.48,0.86,
3.576,0.42,0.94,3.91,-0.65,-0.51,0.86,
3.578,0.42,0.94,3.91,-0.70,-0.54,0.83,
3.579,0.42,0.94,3.91,-0.72,-0.55,0.83,
3.583,0.42,0.94,3.91,-0.76,-0.57,0.81,
3.583,1.00,1.28,3.07,-0.76,-0.57,0.81,
3.584,1.00,1.28,3.07,-0.80,-0.58,0.79,
3.585,1.00,1.28,3.07,-0.85,-0.59,0.76,
3.588,1.00,1.28,3.07,-0.90,-0.58,0.73,
3.589,1.00,1.28,3.07,-0.93,-0.58,0.71,
3.591,1.00,1.28,3.07,-0.97,-0.57,0.69,
3.593,1.51,1.48,3.06,-0.97,-0.57,0.69,
3.593,1.51,1.48,3.06,-1.01,-0.54,0.66,
3.595,1.51,1.48,3.06,-1.04,-0.51,0.63,
3.598,1.51,1.48,3.06,-1.08,-0.45,0.59,
3.599,1.51,1.48,3.06,-1.10,-0.42,0.57,
3.601,1.51,1.48,3.06,-1.12,-0.36,0.55,
3.603,1.84,1.39,3.80,-1.12,-0.36,0.55,
3.603,1.84,1.39,3.80,-1.13,-0.30,0.52,
3.605,1.84,1.39,3.80,-1.15,-0.23,0.50,
3.618,1.84,1.39,3.80,-1.16,-0.12,0.47,
3.618,1.84,1.39,3.80,-1.16,-0.08,0.46,
3.618,1.84,1.39,3.80,-1.15,0.00,0.44,
3.618,1.71,1.06,4.63,-1.15,0.00,0.44,
3.618,1.71,1.06,4.63,-1.14,0.08,0.42,
3.618,1.71,1.06,4.63,-1.13,0.16,0.41,
3.618,1.71,1.06,4.63,-1.09,0.29,0.40,
3.619,1.71,1.06,4.63,-1.08,0.33,0.40,
3.621,1.71,1.06,4.63,-1.05,0.41,0.40,
3.623,1.19,0.69,5.33,-1.05,0.41,0.40,
3.624,1.19,0.69,5.33,-1.01,0.48,0.40,
3.625,1.19,0.69,5.33,-0.97,0.56,0.40,
3.628,1.19,0.69,5.33,-0.90,0.67,0.42,
3.628,1.19,0.69,5.33,-0.87,0.70,0.43,
3.634,1.19,0.69,5.33,-0.82,0.76,0.44,
3.634,0.52,0.39,5.47,-0.82,0.76,0.44,
3.634,0.52,0.39,5.47,-0.77,0.82,0.46,
3.635,0.52,0.39,5.47,-0.72,0.87,0.48,
3.638,0.52,0.39,5.47,-0.62,0.93,0.51,
3.639,0.52,0.39,5.47,-0.60,0.95,0.52,
3.641,0.52,0.39,5.47,-0.55,0.99,0.54,
3.643,0.17,0.18,4.78,-0.55,0.99,0.54,
3.643,0.17,0.18,4.78,-0.47,1.02,0.56,
3.645,0.17,0.18,4.78,-0.43,1.03,0.58,
3.653,0.17,0.18,4.78,-0.36,1.05,0.60,
3.653,0.17,0.18,4.78,-0.33,1.05,0.61,
3.654,0.17,0.18,4.78,-0.28,1.05,0.63,
3.654,0.09,0.13,3.53,-0.28,1.05,0.63,
3.654,0.09,0.13,3.53,-0.23,1.04,0.65,
3.655,0.09,0.13,3.53,-0.18,1.02,0.66,
3.658,0.09,0.13,3.53,-0.12,0.98,0.68,
3.659,0.09,0.13,3.53,-0.11,0.97,0.68,
3.661,0.09,0.13,3.53,-0.07,0.93,0.70,
3.663,0.21,0.18,2.10,-0.07,0.93,0.70,
3.664,0.21,0.18,2.10,-0.03,0.90,0.71,
3.665,0.21,0.18,2.10,0.01,0.85,0.71,
3.668,0.21,0.18,2.10,0.04,0.77,0.72,
3.669,0.21,0.18,2.10,0.05,0.75,0.72,
3.671,0.21,0.18,2.10,0.06,0.70,0.73,
3.673,0.36,0.25,0.66,0.06,0.70,0.73,
3.673,0.36,0.25,0.66,0.08,0.64,0.73,
3.675,0.36,0.25,0.66,0.10,0.58,0.73,
3.678,0.36,0.25,0.66,0.11,0.48,0.73,
3.679,0.36,0.25,0.66,0.11,0.45,0.73,
3.681,0.36,0.25,0.66,0.12,0.38,0.73,
3.683,0.49,0.27,-0.52,0.12,0.38,0.73,
3.684,0.49,0.27,-0.52,0.12,0.32,0.73,
3.685,0.49,0.27,-0.52,0.12,0.26,0.73,
3.688,0.49,0.27,-0.52,0.11,0.16,0.73,
3.689,0.49,0.27,-0.52,0.11,0.13,0.73,
3.691,0.49,0.27,-0.52,0.11,0.07,0.73,
3.693,0.55,0.15,-1.16,0.11,0.07,0.73,
3.693,0.55,0.15,-1.16,0.11,0.01,0.73,
3.695,0.55,0.15,-1.16,0.11,-0.04,0.73,
3.698,0.55,0.15,-1.16,0.11,-0.12,0.73,
3.699,0.55,0.15,-1.16,0.11,-0.15,0.73,
3.701,0.55,0.15,-1.16,0.12,-0.20,0.74,
3.703,0.55,-0.08,-1.04,0.12,-0.20,0.74,
3.704,0.55,-0.08,-1.04,0.13,-0.25,0.74,
3.705,0.55,-0.08,-1.04,0.14,-0.29,0.74,
3.708,0.55,-0.08,-1.04,0.16,-0.36,0.75,
3.709,0.55,-0.08,-1.04,0.17,-0.38,0.75,
3.711,0.55,-0.08,-1.04,0.20,-0.42,0.76,
3.714,0.51,-0.34,-0.44,0.20,-0.42,0.76,
3.715,0.51,-0.34,-0.44,0.22,-0.46,0.76,
3.715,0.51,-0.34,-0.44,0.25,-0.50,0.77,
3.718,0.51,-0.34,-0.44,0.30,-0.55,0.78,
3.719,0.51,-0.34,-0.44,0.32,-0.57,0.79,
3.721,0.51,-0.34,-0.44,0.36,-0.60,0.80,
3.723,0.47,-0.67,0.26,0.36,-0.60,0.80,
3.723,0.47,-0.67,0.26,0.39,-0.63,0.81,
3.725,0.47,-0.67,0.26,0.45,-0.65,0.82,
3.728,0.47,-0.67,0.26,0.51,-0.68,0.83,
3.729,0.47,-0.67,0.26,0.53,-0.69,0.83,
3.731,0.47,-0.67,0.26,0.58,-0.70,0.84,
3.733,0.62,-0.89,0.71,0.58,-0.70,0.84,
3.734,0.62,-0.89,0.71,0.62,-0.72,0.85,
3.735,0.62,-0.89,0.71,0.67,-0.73,0.85,
3.738,0.62,-0.89,0.71,0.73,-0.74,0.86,
3.74,0.62,-0.89,0.71,0.75,-0.74,0.86,
3.741,0.62,-0.89,0.71,0.78,-0.75,0.86,
3.744,0.76,-0.97,0.48,0.78,-0.75,0.86,
3.744,0.76,-0.97,0.48,0.82,-0.75,0.87,
3.745,0.76,-0.97,0.48,0.85,-0.75,0.86,
3.748,0.76,-0.97,0.48,0.88,-0.75,0.86,
3.749,0.76,-0.97,0.48,0.90,-0.74,0.85,
3.751,0.76,-0.97,0.48,0.92,-0.73,0.85,
3.753,1.07,-0.86,-0.29,0.92,-0.73,0.85,
3.754,1.07,-0.86,-0.29,0.93,-0.73,0.84,
3.755,1.07,-0.86,-0.29,0.94,-0.72,0.82,
3.758,1.07,-0.86,-0.29,0.96,-0.70,0.80,
3.759,1.07,-0.86,-0.29,0.97,-0.70,0.79,
3.761,1.07,-0.86,-0.29,0.97,-0.69,0.78,
3.764,1.45,-0.83,-1.17,0.97,-0.69,0.78,
3.764,1.45,-0.83,-1.17,0.98,-0.68,0.76,
3.765,1.45,-0.83,-1.17,0.98,-0.67,0.74,
3.769,1.45,-0.83,-1.17,0.98,-0.65,0.71,
3.77,1.45,-0.83,-1.17,0.98,-0.65,0.69,
3.771,1.45,-0.83,-1.17,0.98,-0.64,0.67,
3.773,1.59,-0.73,-1.91,0.98,-0.64,0.67,
3.802,1.59,-0.73,-1.91,0.97,-0.63,0.65,
3.803,1.59,-0.73,-1.91,0.97,-0.62,0.62,
3.804,1.59,-0.73,-1.91,0.96,-0.61,0.58,
3.804,1.59,-0.73,-1.91,0.96,-0.60,0.57,
3.805,1.59,-0.73,-1.91,0.95,-0.59,0.54,
3.806,1.72,-0.65,-2.54,0.95,-0.59,0.54,
3.806,1.72,-0.65,-2.54,0.94,-0.58,0.52,
3.807,1.72,-0.65,-2.54,0.93,-0.57,0.49,
3.807,1.72,-0.65,-2.54,0.91,-0.55,0.45,
3.808,1.72,-0.65,-2.54,0.90,-0.54,0.44,
3.808,1.72,-0.65,-2.54,0.89,-0.53,0.42,
3.809,1.52,-0.65,-3.16,0.89,-0.53,0.42,
3.81,1.52,-0.65,-3.16,0.87,-0.51,0.39,
3.81,1.52,-0.65,-3.16,0.85,-0.50,0.37,
3.811,1.52,-0.65,-3.16,0.83,-0.47,0.34,
3.811,1.52,-0.65,-3.16,0.81,-0.46,0.33,
3.812,1.52,-0.65,-3.16,0.79,-0.45,0.31,
3.813,1.23,-0.73,-3.69,0.79,-0.45,0.31,
3.814,1.23,-0.73,-3.69,0.78,-0.43,0.29,
3.814,1.23,-0.73,-3.69,0.75,-0.42,0.27,
3.815,1.23,-0.73,-3.69,0.72,-0.39,0.25,
3.815,1.23,-0.73,-3.69,0.71,-0.39,0.24,
3.816,1.23,-0.73,-3.69,0.69,-0.37,0.23,
3.816,0.83,-0.81,-4.11,0.69,-0.37,0.23,
3.816,0.83,-0.81,-4.11,0.66,-0.36,0.22,
3.817,0.83,-0.81,-4.11,0.64,-0.34,0.20,
3.831,0.83,-0.81,-4.11,0.61,-0.32,0.19,
3.832,0.83,-0.81,-4.11,0.60,-0.31,0.18,
3.832,0.83,-0.81,-4.11,0.58,-0.29,0.17,
3.832,0.63,-0.86,-4.39,0.58,-0.29,0.17,
3.833,0.63,-0.86,-4.39,0.56,-0.27,0.16,
3.833,0.63,-0.86,-4.39,0.53,-0.26,0.14,
3.833,0.63,-0.86,-4.39,0.50,-0.24,0.12,
3.834,0.63,-0.86,-4.39,0.49,-0.23,0.12,
3.834,0.63,-0.86,-4.39,0.48,-0.21,0.11,
3.834,0.49,-0.91,-4.51,0.48,-0.21,0.11,
3.835,0.49,-0.91,-4.51,0.46,-0.20,0.09,
3.835,0.49,-0.91,-4.51,0.44,-0.18,0.08,
3.84,0.49,-0.91,-4.51,0.42,-0.16,0.06,
3.841,0.49,-0.91,-4.51,0.41,-0.16,0.06,
3.841,0.49,-0.91,-4.51,0.40,-0.14,0.04,
3.845,0.46,-0.92,-4.46,0.40,-0.14,0.04,
3.846,0.46,-0.92,-4.46,0.39,-0.14,0.03,
3.846,0.46,-0.92,-4.46,0.38,-0.13,0.02,
3.861,0.46,-0.92,-4.46,0.36,-0.12,0.00,
3.861,0.46,-0.92,-4.46,0.36,-0.12,-0.00,
3.862,0.46,-0.92,-4.46,0.35,-0.12,-0.02,
3.862,0.38,-0.91,-4.45,0.35,-0.12,-0.02,
3.862,0.38,-0.91,-4.45,0.34,-0.11,-0.03,
3.863,0.38,-0.91,-4.45,0.33,-0.12,-0.05,
3.863,0.38,-0.91,-4.45,0.31,-0.12,-0.07,
3.863,0.38,-0.91,-4.45,0.31,-0.12,-0.07,
3.864,0.38,-0.91,-4.45,0.31,-0.12,-0.09,
3.893,0.43,-0.92,-4.43,0.31,-0.12,-0.09,
3.894,0.43,-0.92,-4.43,0.30,-0.12,-0.10,
3.894,0.43,-0.92,-4.43,0.29,-0.13,-0.12,
3.895,0.43,-0.92,-4.43,0.29,-0.13,-0.13,
3.895,0.43,-0.92,-4.43,0.28,-0.14,-0.14,
3.895,0.43,-0.92,-4.43,0.28,-0.14,-0.16,
3.896,0.38,-0.94,-4.31,0.28,-0.14,-0.16,
3.896,0.38,-0.94,-4.31,0.27,-0.15,-0.17,
3.897,0.38,-0.94,-4.31,0.27,-0.15,-0.19,
3.897,0.38,-0.94,-4.31,0.25,-0.16,-0.20,
3.897,0.38,-0.94,-4.31,0.25,-0.16,-0.21,
3.898,0.38,-0.94,-4.31,0.24,-0.17,-0.22,
3.898,0.32,-0.94,-4.27,0.24,-0.17,-0.22,
3.898,0.32,-0.94,-4.27,0.23,-0.18,-0.23,
3.899,0.32,-0.94,-4.27,0.23,-0.19,-0.24,
3.899,0.32,-0.94,-4.27,0.22,-0.20,-0.25,
3.899,0.32,-0.94,-4.27,0.22,-0.20,-0.26,
3.9,0.32,-0.94,-4.27,0.21,-0.22,-0.26,
3.9,0.20,-0.92,-4.06,0.21,-0.22,-0.26,
3.9,0.20,-0.92,-4.06,0.21,-0.23,-0.27,
3.901,0.20,-0.92,-4.06,0.21,-0.23,-0.28,
3.901,0.20,-0.92,-4.06,0.20,-0.25,-0.28,
3.901,0.20,-0.92,-4.06,0.20,-0.26,-0.29,
3.902,0.20,-0.92,-4.06,0.20,-0.27,-0.29,
3.908,0.09,-0.93,-3.77,0.20,-0.27,-0.29,
3.908,0.09,-0.93,-3.77,0.20,-0.29,-0.29,
3.908,0.09,-0.93,-3.77,0.20,-0.30,-0.30,
3.909,0.09,-0.93,-3.77,0.19,-0.33,-0.30,
3.909,0.09,-0.93,-3.77,0.19,-0.33,-0.30,
3.911,0.09,-0.93,-3.77,0.19,-0.35,-0.30,
3.916,0.01,-0.91,-3.52,0.19,-0.35,-0.30,
3.917,0.01,-0.91,-3.52,0.20,-0.36,-0.31,
3.917,0.01,-0.91,-3.52,0.19,-0.38,-0.31,
3.919,0.01,-0.91,-3.52,0.20,-0.40,-0.31,
3.919,0.01,-0.91,-3.52,0.20,-0.41,-0.31,
3.921,0.01,-0.91,-3.52,0.20,-0.42,-0.31,
3.924,-0.03,-0.83,-3.27,0.20,-0.42,-0.31,
3.924,-0.03,-0.83,-3.27,0.20,-0.43,-0.31,
3.926,-0.03,-0.83,-3.27,0.20,-0.45,-0.31,
3.928,-0.03,-0.83,-3.27,0.21,-0.46,-0.31,
3.937,-0.03,-0.83,-3.27,0.21,-0.47,-0.31,
3.938,-0.03,-0.83,-3.27,0.21,-0.48,-0.31,
3.938,-0.08,-0.82,-3.04,0.21,-0.48,-0.31,
3.938,-0.08,-0.82,-3.04,0.21,-0.48,-0.30,
3.938,-0.08,-0.82,-3.04,0.21,-0.49,-0.30,
3.939,-0.08,-0.82,-3.04,0.21,-0.49,-0.30,
3.939,-0.08,-0.82,-3.04,0.21,-0.49,-0.30,
3.957,-0.08,-0.82,-3.04,0.22,-0.48,-0.29,
3.958,-0.21,-0.77,-2.87,0.22,-0.48,-0.29,
3.958,-0.21,-0.77,-2.87,0.22,-0.47,-0.29,
3.958,-0.21,-0.77,-2.87,0.22,-0.46,-0.28,
3.958,-0.21,-0.77,-2.87,0.22,-0.44,-0.27,
3.958,-0.21,-0.77,-2.87,0.22,-0.44,-0.27,
3.959,-0.21,-0.77,-2.87,0.22,-0.43,-0.26,
3.959,-0.34,-0.71,-2.64,0.22,-0.43,-0.26,
3.959,-0.34,-0.71,-2.64,0.22,-0.42,-0.26,
3.959,-0.34,-0.71,-2.64,0.22,-0.41,-0.25,
3.959,-0.34,-0.71,-2.64,0.23,-0.38,-0.24,
3.96,-0.34,-0.71,-2.64,0.23,-0.38,-0.24,
3.963,-0.34,-0.71,-2.64,0.23,-0.36,-0.23,
3.969,-0.40,-0.62,-2.42,0.23,-0.36,-0.23,
3.97,-0.40,-0.62,-2.42,0.24,-0.35,-0.23,
3.97,-0.40,-0.62,-2.42,0.24,-0.33,-0.22,
3.97,-0.40,-0.62,-2.42,0.24,-0.31,-0.21,
3.97,-0.40,-0.62,-2.42,0.24,-0.30,-0.21,
3.971,-0.40,-0.62,-2.42,0.23,-0.29,-0.21,
3.973,-0.44,-0.46,-2.43,0.23,-0.29,-0.21,
3.973,-0.44,-0.46,-2.43,0.23,-0.27,-0.20,
3.975,-0.44,-0.46,-2.43,0.22,-0.26,-0.20,
3.984,-0.44,-0.46,-2.43,0.21,-0.24,-0.19,
3.984,-0.44,-0.46,-2.43,0.20,-0.23,-0.19,
3.984,-0.44,-0.46,-2.43,0.19,-0.22,-0.19,
3.985,-0.44,-0.24,-2.57,0.19,-0.22,-0.19,
3.985,-0.44,-0.24,-2.57,0.18,-0.21,-0.19,
3.985,-0.44,-0.24,-2.57,0.17,-0.20,-0.19,
3.988,-0.44,-0.24,-2.57,0.15,-0.19,-0.19,
3.989,-0.44,-0.24,-2.57,0.14,-0.19,-0.19,
3.991,-0.44,-0.24,-2.57,0.13,-0.18,-0.19,
3.993,-0.40,-0.05,-2.66,0.13,-0.18,-0.19,
3.993,-0.40,-0.05,-2.66,0.11,-0.18,-0.19,
3.997,-0.40,-0.05,-2.66,0.10,-0.18,-0.19,
3.998,-0.40,-0.05,-2.66,0.08,-0.18,-0.19,
4.0,-0.40,-0.05,-2.66,0.07,-0.18,-0.19,
4.001,-0.40,-0.05,-2.66,0.06,-0.19,-0.20,
4.003,-0.36,0.19,-2.53,0.06,-0.19,-0.20,
4.003,-0.36,0.19,-2.53,0.05,-0.19,-0.20,
4.005,-0.36,0.19,-2.53,0.04,-0.19,-0.20,
4.008,-0.36,0.19,-2.53,0.03,-0.20,-0.21,
4.009,-0.36,0.19,-2.53,0.02,-0.20,-0.21,
4.012,-0.36,0.19,-2.53,0.01,-0.20,-0.21,
4.014,-0.39,0.33,-2.32,0.01,-0.20,-0.21,
4.014,-0.39,0.33,-2.32,0.00,-0.21,-0.21,
4.015,-0.39,0.33,-2.32,-0.01,-0.22,-0.21,
4.018,-0.39,0.33,-2.32,-0.02,-0.23,-0.22,
4.019,-0.39,0.33,-2.32,-0.03,-0.23,-0.21,
4.021,-0.39,0.33,-2.32,-0.04,-0.24,-0.21,
4.024,-0.57,0.48,-2.13,-0.04,-0.24,-0.21,
4.025,-0.57,0.48,-2.13,-0.05,-0.24,-0.21,
4.027,-0.57,0.48,-2.13,-0.05,-0.25,-0.21,
4.028,-0.57,0.48,-2.13,-0.07,-0.25,-0.21,
4.03,-0.57,0.48,-2.13,-0.07,-0.25,-0.21,
4.031,-0.57,0.48,-2.13,-0.08,-0.25,-0.21,
4.033,-0.67,0.50,-1.93,-0.08,-0.25,-0.21,
4.033,-0.67,0.50,-1.93,-0.08,-0.25,-0.21,
4.035,-0.67,0.50,-1.93,-0.09,-0.24,-0.20,
4.038,-0.67,0.50,-1.93,-0.10,-0.24,-0.20,
4.039,-0.67,0.50,-1.93,-0.11,-0.24,-0.20,
4.041,-0.67,0.50,-1.93,-0.12,-0.23,-0.19,
4.044,-0.82,0.60,-1.78,-0.12,-0.23,-0.19,
4.044,-0.82,0.60,-1.78,-0.13,-0.23,-0.19,
4.047,-0.82,0.60,-1.78,-0.14,-0.23,-0.19,
4.048,-0.82,0.60,-1.78,-0.15,-0.23,-0.18,
4.05,-0.82,0.60,-1.78,-0.16,-0.23,-0.18,
4.056,-0.82,0.60,-1.78,-0.18,-0.23,-0.18,
4.056,-0.84,0.65,-1.67,-0.18,-0.23,-0.18,
4.057,-0.84,0.65,-1.67,-0.19,-0.23,-0.17,
4.058,-0.84,0.65,-1.67,-0.20,-0.23,-0.17,
4.059,-0.84,0.65,-1.67,-0.22,-0.23,-0.16,
4.06,-0.84,0.65,-1.67,-0.23,-0.22,-0.16,
4.082,-0.84,0.65,-1.67,-0.24,-0.22,-0.16,
4.083,-0.84,0.65,-1.67,-0.26,-0.22,-0.15,
4.084,-0.92,0.72,-1.40,-0.26,-0.22,-0.15,
4.084,-0.92,0.72,-1.40,-0.26,-0.22,-0.15,
4.084,-0.92,0.72,-1.40,-0.27,-0.21,-0.14,
4.084,-0.92,0.72,-1.40,-0.27,-0.21,-0.14,
4.084,-0.92,0.72,-1.40,-0.28,-0.20,-0.13,
4.085,-0.96,0.73,-0.93,-0.28,-0.20,-0.13,
4.085,-0.96,0.73,-0.93,-0.28,-0.20,-0.12,
4.085,-0.96,0.73,-0.93,-0.28,-0.19,-0.11,
4.085,-0.96,0.73,-0.93,-0.28,-0.19,-0.10,
4.085,-0.96,0.73,-0.93,-0.28,-0.18,-0.10,
4.086,-0.96,0.73,-0.93,-0.28,-0.18,-0.10,
4.086,-1.05,0.77,-0.41,-0.28,-0.18,-0.10,
4.086,-1.05,0.77,-0.41,-0.27,-0.17,-0.09,
4.086,-1.05,0.77,-0.41,-0.27,-0.17,-0.08,
4.088,-1.05,0.77,-0.41,-0.25,-0.16,-0.07,
4.09,-1.05,0.77,-0.41,-0.25,-0.16,-0.06,
4.091,-1.05,0.77,-0.41,-0.24,-0.16,-0.05,
4.093,-1.16,0.77,0.05,-0.24,-0.16,-0.05,
4.093,-1.16,0.77,0.05,-0.23,-0.16,-0.04,
4.095,-1.16,0.77,0.05,-0.21,-0.15,-0.03,
4.098,-1.16,0.77,0.05,-0.19,-0.15,-0.01,
4.099,-1.16,0.77,0.05,-0.18,-0.15,-0.00,
4.101,-1.16,0.77,0.05,-0.17,-0.15,0.01,
4.103,-1.27,0.79,0.52,-0.17,-0.15,0.01,
4.104,-1.27,0.79,0.52,-0.15,-0.14,0.02,
4.105,-1.27,0.79,0.52,-0.13,-0.14,0.04,
4.127,-1.27,0.79,0.52,-0.10,-0.15,0.06,
4.127,-1.27,0.79,0.52,-0.08,-0.14,0.07,
4.127,-1.27,0.79,0.52,-0.06,-0.13,0.08,
4.127,-1.28,0.72,1.05,-0.06,-0.13,0.08,
4.127,-1.28,0.72,1.05,-0.03,-0.13,0.09,
4.127,-1.28,0.72,1.05,-0.01,-0.11,0.11,
4.128,-1.28,0.72,1.05,0.03,-0.10,0.13,
4.128,-1.28,0.72,1.05,0.04,-0.09,0.14,
4.128,-1.28,0.72,1.05,0.06,-0.08,0.16,
4.128,-1.30,0.62,1.38,0.06,-0.08,0.16,
4.128,-1.30,0.62,1.38,0.09,-0.06,0.17,
4.129,-1.30,0.62,1.38,0.11,-0.05,0.19,
4.129,-1.30,0.62,1.38,0.14,-0.02,0.21,
4.129,-1.30,0.62,1.38,0.16,-0.01,0.22,
4.133,-1.30,0.62,1.38,0.18,0.01,0.24,
4.133,-1.30,0.58,1.66,0.18,0.01,0.24,
4.134,-1.30,0.58,1.66,0.21,0.03,0.26,
4.135,-1.30,0.58,1.66,0.23,0.05,0.28,
4.138,-1.30,0.58,1.66,0.26,0.08,0.31,
4.139,-1.30,0.58,1.66,0.28,0.09,0.32,
4.141,-1.30,0.58,1.66,0.30,0.11,0.35,
4.148,-1.48,0.55,1.84,0.30,0.11,0.35,
4.148,-1.48,0.55,1.84,0.32,0.13,0.37,
4.148,-1.48,0.55,1.84,0.34,0.15,0.40,
4.149,-1.48,0.55,1.84,0.38,0.17,0.43,
4.149,-1.48,0.55,1.84,0.39,0.18,0.45,
4.151,-1.48,0.55,1.84,0.41,0.19,0.47,
4.154,-1.54,0.56,1.88,0.41,0.19,0.47,
4.154,-1.54,0.56,1.88,0.42,0.20,0.50,
4.155,-1.54,0.56,1.88,0.44,0.21,0.52,
4.158,-1.54,0.56,1.88,0.47,0.23,0.56,
4.159,-1.54,0.56,1.88,0.48,0.23,0.57,
4.161,-1.54,0.56,1.88,0.49,0.24,0.60,
4.164,-1.54,0.62,1.68,0.49,0.24,0.60,
4.164,-1.54,0.62,1.68,0.51,0.25,0.62,
4.165,-1.54,0.62,1.68,0.52,0.26,0.64,
4.168,-1.54,0.62,1.68,0.54,0.27,0.68,
4.169,-1.54,0.62,1.68,0.54,0.27,0.69,
4.171,-1.54,0.62,1.68,0.54,0.27,0.70,
4.173,-1.39,0.68,1.31,0.54,0.27,0.70,
4.174,-1.39,0.68,1.31,0.55,0.28,0.72,
4.175,-1.39,0.68,1.31,0.55,0.29,0.74,
4.183,-1.39,0.68,1.31,0.55,0.30,0.76,
4.184,-1.39,0.68,1.31,0.55,0.30,0.77,
4.184,-1.39,0.68,1.31,0.56,0.31,0.78,
4.184,-1.22,0.73,0.87,0.56,0.31,0.78,
4.184,-1.22,0.73,0.87,0.55,0.32,0.80,
4.185,-1.22,0.73,0.87,0.55,0.33,0.81,
4.188,-1.22,0.73,0.87,0.54,0.34,0.82,
4.189,-1.22,0.73,0.87,0.53,0.35,0.83,
4.191,-1.22,0.73,0.87,0.52,0.35,0.84,
4.207,-1.05,0.71,0.31,0.52,0.35,0.84,
4.208,-1.05,0.71,0.31,0.51,0.36,0.85,
4.208,-1.05,0.71,0.31,0.49,0.36,0.85,
4.208,-1.05,0.71,0.31,0.46,0.37,0.87,
4.208,-1.05,0.71,0.31,0.44,0.37,0.87,
4.209,-1.05,0.71,0.31,0.42,0.36,0.88,
4.209,-1.04,0.70,-0.33,0.42,0.36,0.88,
4.209,-1.04,0.70,-0.33,0.38,0.36,0.89,
4.209,-1.04,0.70,-0.33,0.35,0.36,0.89,
4.209,-1.04,0.70,-0.33,0.30,0.35,0.90,
4.21,-1.04,0.70,-0.33,0.28,0.34,0.90,
4.211,-1.04,0.70,-0.33,0.23,0.33,0.90,
4.223,-0.89,0.77,-0.69,0.23,0.33,0.90,
4.224,-0.89,0.77,-0.69,0.20,0.33,0.90,
4.224,-0.89,0.77,-0.69,0.17,0.31,0.90,
4.226,-0.89,0.77,-0.69,0.11,0.29,0.89,
4.226,-0.89,0.77,-0.69,0.10,0.28,0.89,
4.227,-0.89,0.77,-0.69,0.07,0.27,0.88,
4.227,-0.60,0.75,-0.28,0.07,0.27,0.88,
4.228,-0.60,0.75,-0.28,0.05,0.26,0.87,
4.23,-0.60,0.75,-0.28,0.03,0.24,0.86,
4.23,-0.60,0.75,-0.28,0.01,0.22,0.85,
4.238,-0.60,0.75,-0.28,0.01,0.22,0.84,
4.239,-0.60,0.75,-0.28,-0.00,0.21,0.83,
4.24,-0.53,0.68,0.67,-0.00,0.21,0.83,
4.24,-0.53,0.68,0.67,-0.00,0.20,0.83,
4.241,-0.53,0.68,0.67,-0.01,0.19,0.82,
4.246,-0.53,0.68,0.67,-0.01,0.19,0.81,
4.248,-0.53,0.68,0.67,-0.01,0.19,0.81,
4.248,-0.53,0.68,0.67,-0.02,0.18,0.81,
4.249,-0.80,0.54,1.34,-0.02,0.18,0.81,
4.249,-0.80,0.54,1.34,-0.02,0.18,0.81,
4.251,-0.80,0.54,1.34,-0.03,0.18,0.81,
4.251,-0.80,0.54,1.34,-0.03,0.19,0.81,
4.252,-0.80,0.54,1.34,-0.04,0.20,0.81,
4.253,-0.80,0.54,1.34,-0.05,0.21,0.81,
4.255,-1.04,0.24,1.57,-0.05,0.21,0.81,
4.255,-1.04,0.24,1.57,-0.05,0.22,0.82,
4.255,-1.04,0.24,1.57,-0.06,0.24,0.83,
4.26,-1.04,0.24,1.57,-0.06,0.28,0.84,
4.261,-1.04,0.24,1.57,-0.07,0.29,0.85,
4.261,-1.04,0.24,1.57,-0.07,0.32,0.86,
4.263,-1.29,-0.13,1.89,-0.07,0.32,0.86,
4.264,-1.29,-0.13,1.89,-0.07,0.36,0.87,
4.265,-1.29,-0.13,1.89,-0.06,0.39,0.89,
4.268,-1.29,-0.13,1.89,-0.05,0.46,0.91,
4.269,-1.29,-0.13,1.89,-0.05,0.48,0.92,
4.271,-1.29,-0.13,1.89,-0.03,0.52,0.94,
4.273,-1.49,-0.45,2.29,-0.03,0.52,0.94,
4.299,-1.49,-0.45,2.29,-0.02,0.56,0.96,
4.299,-1.49,-0.45,2.29,-0.00,0.61,0.97,
4.3,-1.49,-0.45,2.29,0.02,0.68,1.00,
4.3,-1.49,-0.45,2.29,0.03,0.70,1.01,
4.3,-1.49,-0.45,2.29,0.06,0.74,1.03,
4.301,-1.72,-0.77,2.47,0.06,0.74,1.03,
4.301,-1.72,-0.77,2.47,0.08,0.79,1.05,
4.302,-1.72,-0.77,2.47,0.10,0.83,1.08,
4.302,-1.72,-0.77,2.47,0.13,0.89,1.11,
4.303,-1.72,-0.77,2.47,0.14,0.91,1.12,
4.303,-1.72,-0.77,2.47,0.16,0.94,1.14,
4.303,-1.92,-0.93,2.07,0.16,0.94,1.14,
4.304,-1.92,-0.93,2.07,0.18,0.97,1.17,
4.304,-1.92,-0.93,2.07,0.19,1.00,1.19,
4.305,-1.92,-0.93,2.07,0.21,1.03,1.23,
4.305,-1.92,-0.93,2.07,0.21,1.03,1.24,
4.305,-1.92,-0.93,2.07,0.22,1.05,1.26,
4.306,-2.09,-0.99,1.20,0.22,1.05,1.26,
4.306,-2.09,-0.99,1.20,0.22,1.05,1.29,
4.307,-2.09,-0.99,1.20,0.22,1.06,1.31,
4.315,-2.09,-0.99,1.20,0.22,1.06,1.34,
4.316,-2.09,-0.99,1.20,0.22,1.06,1.35,
4.316,-2.09,-0.99,1.20,0.21,1.06,1.37,
4.316,-2.02,-0.85,0.26,0.21,1.06,1.37,
4.316,-2.02,-0.85,0.26,0.20,1.06,1.38,
4.317,-2.02,-0.85,0.26,0.19,1.05,1.40,
4.318,-2.02,-0.85,0.26,0.16,1.04,1.42,
4.319,-2.02,-0.85,0.26,0.15,1.03,1.42,
4.322,-2.02,-0.85,0.26,0.13,1.03,1.43,
4.323,-1.83,-0.68,-0.48,0.13,1.03,1.43,
4.323,-1.83,-0.68,-0.48,0.11,1.02,1.44,
4.325,-1.83,-0.68,-0.48,0.09,1.00,1.45,
4.328,-1.83,-0.68,-0.48,0.05,0.98,1.46,
4.329,-1.83,-0.68,-0.48,0.04,0.97,1.47,
4.331,-1.83,-0.68,-0.48,0.01,0.95,1.48,
4.333,-1.62,-0.54,-0.95,0.01,0.95,1.48,
4.334,-1.62,-0.54,-0.95,-0.02,0.92,1.48,
4.335,-1.62,-0.54,-0.95,-0.05,0.90,1.49,
4.338,-1.62,-0.54,-0.95,-0.09,0.86,1.50,
4.339,-1.62,-0.54,-0.95,-0.10,0.84,1.50,
4.341,-1.62,-0.54,-0.95,-0.13,0.81,1.51,
4.352,-1.56,-0.40,-0.98,-0.13,0.81,1.51,
4.353,-1.56,-0.40,-0.98,-0.15,0.78,1.52,
4.353,-1.56,-0.40,-0.98,-0.18,0.75,1.52,
4.353,-1.56,-0.40,-0.98,-0.21,0.69,1.53,
4.354,-1.56,-0.40,-0.98,-0.23,0.67,1.53,
4.354,-1.56,-0.40,-0.98,-0.24,0.64,1.54,
4.356,-1.39,-0.35,-0.67,-0.24,0.64,1.54,
4.356,-1.39,-0.35,-0.67,-0.27,0.60,1.54,
4.356,-1.39,-0.35,-0.67,-0.28,0.56,1.55,
4.384,-1.39,-0.35,-0.67,-0.30,0.51,1.56,
4.385,-1.39,-0.35,-0.67,-0.31,0.49,1.56,
4.385,-1.39,-0.35,-0.67,-0.32,0.46,1.56,
4.385,-1.22,-0.39,-0.00,-0.32,0.46,1.56,
4.386,-1.22,-0.39,-0.00,-0.33,0.42,1.57,
4.386,-1.22,-0.39,-0.00,-0.33,0.39,1.57,
4.386,-1.22,-0.39,-0.00,-0.33,0.34,1.57,
4.386,-1.22,-0.39,-0.00,-0.33,0.33,1.57,
4.387,-1.22,-0.39,-0.00,-0.32,0.30,1.58,
4.387,-0.93,-0.45,0.83,-0.32,0.30,1.58,
4.387,-0.93,-0.45,0.83,-0.32,0.27,1.58,
4.387,-0.93,-0.45,0.83,-0.31,0.24,1.58,
4.387,-0.93,-0.45,0.83,-0.29,0.20,1.58,
4.388,-0.93,-0.45,0.83,-0.29,0.19,1.59,
4.388,-0.93,-0.45,0.83,-0.28,0.16,1.59,
4.388,-0.69,-0.59,1.50,-0.28,0.16,1.59,
4.388,-0.69,-0.59,1.50,-0.27,0.14,1.59,
4.389,-0.69,-0.59,1.50,-0.25,0.13,1.59,
4.389,-0.69,-0.59,1.50,-0.21,0.11,1.59,
4.389,-0.69,-0.59,1.50,-0.21,0.11,1.59,
4.402,-0.69,-0.59,1.50,-0.19,0.10,1.59,
4.404,-0.40,-0.63,2.05,-0.19,0.10,1.59,
4.405,-0.40,-0.63,2.05,-0.17,0.09,1.59,
4.405,-0.40,-0.63,2.05,-0.14,0.09,1.58,
4.406,-0.40,-0.63,2.05,-0.10,0.10,1.58,
4.406,-0.40,-0.63,2.05,-0.09,0.10,1.57,
4.407,-0.40,-0.63,2.05,-0.06,0.10,1.57,
4.407,-0.12,-0.74,2.32,-0.06,0.10,1.57,
4.408,-0.12,-0.74,2.32,-0.04,0.11,1.56,
4.409,-0.12,-0.74,2.32,-0.01,0.12,1.56,
4.41,-0.12,-0.74,2.32,0.02,0.14,1.54,
4.412,-0.12,-0.74,2.32,0.04,0.15,1.54,
4.414,-0.12,-0.74,2.32,0.06,0.17,1.53,
4.423,-0.12,-0.74,2.32,0.10,0.20,1.52,
4.424,0.07,-0.75,2.17,0.10,0.20,1.52,
4.424,0.07,-0.75,2.17,0.11,0.21,1.51,
4.424,0.07,-0.75,2.17,0.13,0.24,1.50,
4.425,0.07,-0.75,2.17,0.14,0.25,1.50,
4.425,0.07,-0.75,2.17,0.16,0.28,1.49,
4.425,0.10,-0.80,1.63,0.16,0.28,1.49,
4.425,0.10,-0.80,1.63,0.17,0.30,1.48,
4.425,0.10,-0.80,1.63,0.18,0.32,1.47,
4.432,0.10,-0.80,1.63,0.20,0.35,1.46,
4.432,0.10,-0.80,1.63,0.20,0.36,1.45,
4.432,0.10,-0.80,1.63,0.20,0.38,1.44,
4.433,0.04,-0.77,0.85,0.20,0.38,1.44,
4.433,0.04,-0.77,0.85,0.21,0.40,1.44,
4.435,0.04,-0.77,0.85,0.21,0.42,1.43,
4.438,0.04,-0.77,0.85,0.22,0.44,1.42,
4.439,0.04,-0.77,0.85,0.22,0.45,1.42,
4.46,0.04,-0.77,0.85,0.22,0.46,1.42,
4.46,-0.07,-0.79,0.17,0.22,0.46,1.42,
4.46,-0.07,-0.79,0.17,0.23,0.48,1.42,
4.46,-0.07,-0.79,0.17,0.22,0.49,1.41,
4.46,-0.07,-0.79,0.17,0.22,0.51,1.40,
4.46,-0.07,-0.79,0.17,0.22,0.52,1.40,
4.461,-0.07,-0.79,0.17,0.22,0.52,1.40,
4.461,-0.07,-0.79,0.17,0.22,0.53,1.39,
4.461,-0.11,-0.80,-0.41,0.22,0.53,1.39,
4.461,-0.11,-0.80,-0.41,0.22,0.54,1.39,
4.461,-0.11,-0.80,-0.41,0.21,0.55,1.38,
4.461,-0.11,-0.80,-0.41,0.21,0.55,1.38,
4.461,-0.11,-0.80,-0.41,0.21,0.56,1.37,
4.467,-0.11,-0.83,-0.88,0.21,0.56,1.37,
4.468,-0.11,-0.83,-0.88,0.21,0.56,1.37,
4.468,-0.11,-0.83,-0.88,0.20,0.56,1.37,
4.468,-0.11,-0.83,-0.88,0.21,0.56,1.36,
4.469,-0.11,-0.83,-0.88,0.20,0.56,1.36,
4.485,-0.11,-0.83,-0.88,0.20,0.55,1.35,
4.485,-0.12,-0.83,-1.17,0.20,0.55,1.35,
4.485,-0.12,-0.83,-1.17,0.20,0.55,1.35,
4.485,-0.12,-0.83,-1.17,0.20,0.54,1.35,
4.485,-0.12,-0.83,-1.17,0.20,0.53,1.34,
4.486,-0.12,-0.83,-1.17,0.21,0.52,1.34,
4.486,-0.12,-0.83,-1.17,0.21,0.52,1.33,
4.486,-0.07,-0.85,-1.26,0.21,0.52,1.33,
4.486,-0.07,-0.85,-1.26,0.22,0.52,1.33,
4.486,-0.07,-0.85,-1.26,0.23,0.51,1.33,
4.488,-0.07,-0.85,-1.26,0.23,0.50,1.32,
4.489,-0.07,-0.85,-1.26,0.24,0.50,1.32,
4.491,-0.07,-0.85,-1.26,0.25,0.49,1.32,
4.494,-0.06,-0.87,-1.35,0.25,0.49,1.32,
4.494,-0.06,-0.87,-1.35,0.26,0.48,1.31,
4.495,-0.06,-0.87,-1.35,0.27,0.47,1.31,
4.498,-0.06,-0.87,-1.35,0.28,0.46,1.30,
4.499,-0.06,-0.87,-1.35,0.28,0.46,1.30,
4.501,-0.06,-0.87,-1.35,0.29,0.45,1.30,
4.504,-0.04,-0.92,-1.45,0.29,0.45,1.30,
4.504,-0.04,-0.92,-1.45,0.30,0.44,1.30,
4.505,-0.04,-0.92,-1.45,0.31,0.44,1.30,
4.508,-0.04,-0.92,-1.45,0.32,0.43,1.29,
4.509,-0.04,-0.92,-1.45,0.32,0.42,1.29,
4.511,-0.04,-0.92,-1.45,0.33,0.41,1.29,
4.513,-0.04,-0.91,-1.63,0.33,0.41,1.29,
4.513,-0.04,-0.91,-1.63,0.33,0.41,1.29,
4.515,-0.04,-0.91,-1.63,0.34,0.39,1.29,
4.518,-0.04,-0.91,-1.63,0.34,0.37,1.28,
4.519,-0.04,-0.91,-1.63,0.34,0.37,1.28,
4.521,-0.04,-0.91,-1.63,0.35,0.35,1.28,
4.523,0.03,-0.89,-1.79,0.35,0.35,1.28,
4.523,0.03,-0.89,-1.79,0.35,0.34,1.27,
4.525,0.03,-0.89,-1.79,0.35,0.32,1.27,
4.528,0.03,-0.89,-1.79,0.35,0.29,1.26,
4.529,0.03,-0.89,-1.79,0.35,0.29,1.26,
4.531,0.03,-0.89,-1.79,0.36,0.27,1.26,
4.533,0.05,-0.90,-1.78,0.36,0.27,1.26,
4.534,0.05,-0.90,-1.78,0.36,0.25,1.26,
4.535,0.05,-0.90,-1.78,0.36,0.23,1.25,
4.538,0.05,-0.90,-1.78,0.37,0.21,1.24,
4.539,0.05,-0.90,-1.78,0.37,0.20,1.24,
4.542,0.05,-0.90,-1.78,0.37,0.18,1.23,
4.543,0.13,-0.87,-1.60,0.37,0.18,1.23,
4.544,0.13,-0.87,-1.60,0.37,0.16,1.23,
4.545,0.13,-0.87,-1.60,0.38,0.14,1.22,
4.548,0.13,-0.87,-1.60,0.39,0.11,1.21,
4.55,0.13,-0.87,-1.60,0.39,0.10,1.21,
4.553,0.13,-0.87,-1.60,0.40,0.08,1.20,
4.556,0.22,-0.80,-1.35,0.40,0.08,1.20,
4.557,0.22,-0.80,-1.35,0.40,0.06,1.20,
4.557,0.22,-0.80,-1.35,0.40,0.04,1.19,
4.56,0.22,-0.80,-1.35,0.41,0.02,1.18,
4.561,0.22,-0.80,-1.35,0.41,0.01,1.18,
4.561,0.22,-0.80,-1.35,0.42,-0.01,1.18,
4.563,0.26,-0.76,-1.13,0.42,-0.01,1.18,
4.564,0.26,-0.76,-1.13,0.42,-0.02,1.17,
4.565,0.26,-0.76,-1.13,0.42,-0.03,1.17,
4.568,0.26,-0.76,-1.13,0.42,-0.05,1.16,
4.569,0.26,-0.76,-1.13,0.42,-0.06,1.16,
4.571,0.26,-0.76,-1.13,0.42,-0.07,1.15,
4.573,0.35,-0.71,-0.82,0.42,-0.07,1.15,
4.574,0.35,-0.71,-0.82,0.43,-0.08,1.14,
4.592,0.35,-0.71,-0.82,0.43,-0.09,1.14,
4.592,0.35,-0.71,-0.82,0.43,-0.10,1.12,
4.593,0.35,-0.71,-0.82,0.44,-0.10,1.11,
4.593,0.35,-0.71,-0.82,0.44,-0.10,1.11,
4.593,0.51,-0.66,-0.43,0.44,-0.10,1.11,
4.594,0.51,-0.66,-0.43,0.44,-0.09,1.10,
4.594,0.51,-0.66,-0.43,0.45,-0.09,1.09,
4.594,0.51,-0.66,-0.43,0.45,-0.08,1.07,
4.594,0.51,-0.66,-0.43,0.45,-0.07,1.07,
4.596,0.51,-0.66,-0.43,0.45,-0.06,1.05,
4.597,0.74,-0.67,-0.15,0.45,-0.06,1.05,
4.597,0.74,-0.67,-0.15,0.45,-0.05,1.04,
4.597,0.74,-0.67,-0.15,0.45,-0.04,1.02,
4.598,0.74,-0.67,-0.15,0.45,-0.02,1.00,
4.6,0.74,-0.67,-0.15,0.45,-0.01,0.99,
4.602,0.74,-0.67,-0.15,0.45,0.00,0.97,
4.603,0.96,-0.67,0.07,0.45,0.00,0.97,
4.603,0.96,-0.67,0.07,0.44,0.02,0.96,
4.608,0.96,-0.67,0.07,0.45,0.03,0.94,
4.635,0.96,-0.67,0.07,0.44,0.05,0.91,
4.635,0.96,-0.67,0.07,0.44,0.06,0.91,
4.636,0.96,-0.67,0.07,0.44,0.07,0.89,
4.636,1.03,-0.62,0.26,0.44,0.07,0.89,
4.636,1.03,-0.62,0.26,0.44,0.09,0.87,
4.637,1.03,-0.62,0.26,0.43,0.10,0.85,
4.637,1.03,-0.62,0.26,0.43,0.12,0.82,
4.638,1.03,-0.62,0.26,0.42,0.13,0.81,
4.638,1.03,-0.62,0.26,0.42,0.14,0.79,
4.638,1.13,-0.62,0.35,0.42,0.14,0.79,
4.639,1.13,-0.62,0.35,0.41,0.16,0.77,
4.639,1.13,-0.62,0.35,0.40,0.17,0.75,
4.64,1.13,-0.62,0.35,0.39,0.20,0.72,
4.64,1.13,-0.62,0.35,0.38,0.22,0.70,
4.64,1.13,-0.62,0.35,0.37,0.23,0.69,
4.641,1.13,-0.64,0.37,0.37,0.23,0.69,
4.641,1.13,-0.64,0.37,0.36,0.25,0.66,
4.642,1.13,-0.64,0.37,0.35,0.27,0.64,
4.642,1.13,-0.64,0.37,0.34,0.30,0.62,
4.643,1.13,-0.64,0.37,0.33,0.31,0.61,
4.643,1.13,-0.64,0.37,0.32,0.32,0.59,
4.643,0.91,-0.72,0.47,0.32,0.32,0.59,
4.644,0.91,-0.72,0.47,0.31,0.34,0.58,
4.655,0.91,-0.72,0.47,0.30,0.36,0.56,
4.656,0.91,-0.72,0.47,0.28,0.39,0.55,
4.656,0.91,-0.72,0.47,0.27,0.40,0.54,
4.657,0.91,-0.72,0.47,0.26,0.42,0.53,
4.657,0.60,-0.76,0.59,0.26,0.42,0.53,
4.657,0.60,-0.76,0.59,0.25,0.44,0.52,
4.658,0.60,-0.76,0.59,0.24,0.45,0.51,
4.658,0.60,-0.76,0.59,0.23,0.48,0.50,
4.671,0.60,-0.76,0.59,0.23,0.49,0.50,
4.672,0.60,-0.76,0.59,0.22,0.50,0.49,
4.672,0.37,-0.84,0.84,0.22,0.50,0.49,
4.673,0.37,-0.84,0.84,0.21,0.51,0.49,
4.673,0.37,-0.84,0.84,0.20,0.52,0.48,
4.673,0.37,-0.84,0.84,0.19,0.54,0.47,
4.675,0.37,-0.84,0.84,0.19,0.54,0.47,
4.675,0.37,-0.84,0.84,0.18,0.55,0.47,
4.675,0.19,-0.91,1.12,0.18,0.55,0.47,
4.676,0.19,-0.91,1.12,0.17,0.56,0.47,
4.676,0.19,-0.91,1.12,0.17,0.57,0.46,
4.69,0.19,-0.91,1.12,0.16,0.59,0.46,
4.691,0.19,-0.91,1.12,0.16,0.60,0.46,
4.691,0.19,-0.91,1.12,0.16,0.60,0.46,
4.691,0.05,-1.06,1.60,0.16,0.60,0.46,
4.691,0.05,-1.06,1.60,0.17,0.61,0.47,
4.692,0.05,-1.06,1.60,0.17,0.63,0.46,
4.692,0.05,-1.06,1.60,0.18,0.65,0.47,
4.692,0.05,-1.06,1.60,0.19,0.66,0.47,
4.692,0.05,-1.06,1.60,0.19,0.66,0.47,
4.694,-0.00,-1.10,2.18,0.19,0.66,0.47,
4.695,-0.00,-1.10,2.18,0.20,0.67,0.48,
4.695,-0.00,-1.10,2.18,0.21,0.68,0.48,
4.698,-0.00,-1.10,2.18,0.22,0.69,0.49,
4.699,-0.00,-1.10,2.18,0.22,0.69,0.49,
4.701,-0.00,-1.10,2.18,0.23,0.70,0.50,
4.703,-0.13,-1.15,2.44,0.23,0.70,0.50,
4.704,-0.13,-1.15,2.44,0.23,0.70,0.50,
4.705,-0.13,-1.15,2.44,0.24,0.70,0.52,
4.709,-0.13,-1.15,2.44,0.24,0.70,0.53,
4.714,-0.13,-1.15,2.44,0.24,0.70,0.54,
4.715,-0.13,-1.15,2.44,0.24,0.70,0.55,
4.716,-0.31,-1.06,2.29,0.24,0.70,0.55,
4.717,-0.31,-1.06,2.29,0.24,0.69,0.56,
4.717,-0.31,-1.06,2.29,0.23,0.69,0.58,
4.718,-0.31,-1.06,2.29,0.21,0.68,0.60,
4.722,-0.31,-1.06,2.29,0.20,0.68,0.61,
4.722,-0.31,-1.06,2.29,0.19,0.68,0.62,
4.723,-0.48,-1.04,1.89,0.19,0.68,0.62,
4.723,-0.48,-1.04,1.89,0.17,0.68,0.64,
4.732,-0.48,-1.04,1.89,0.15,0.67,0.65,
4.733,-0.48,-1.04,1.89,0.12,0.67,0.68,
4.733,-0.48,-1.04,1.89,0.09,0.67,0.69,
4.734,-0.48,-1.04,1.89,0.08,0.68,0.70,
4.734,-0.59,-0.87,1.43,0.08,0.68,0.70,
4.734,-0.59,-0.87,1.43,0.05,0.68,0.72,
4.735,-0.59,-0.87,1.43,0.03,0.68,0.74,
4.766,-0.59,-0.87,1.43,-0.02,0.68,0.76,
4.767,-0.59,-0.87,1.43,-0.05,0.69,0.78,
4.767,-0.59,-0.87,1.43,-0.07,0.69,0.78,
4.767,-0.55,-0.74,1.15,-0.07,0.69,0.78,
4.767,-0.55,-0.74,1.15,-0.10,0.70,0.80,
4.767,-0.55,-0.74,1.15,-0.14,0.71,0.81,
4.768,-0.55,-0.74,1.15,-0.19,0.74,0.83,
4.768,-0.55,-0.74,1.15,-0.23,0.76,0.84,
4.768,-0.55,-0.74,1.15,-0.25,0.77,0.85,
4.768,-0.35,-0.73,0.88,-0.25,0.77,0.85,
4.77,-0.35,-0.73,0.88,-0.29,0.80,0.86,
4.77,-0.35,-0.73,0.88,-0.33,0.83,0.87,
4.771,-0.35,-0.73,0.88,-0.39,0.87,0.89,
4.771,-0.35,-0.73,0.88,-0.43,0.90,0.90,
4.772,-0.35,-0.73,0.88,-0.45,0.91,0.91,
4.772,-0.35,-0.73,0.88,-0.51,0.94,0.92,
4.773,-0.30,-0.70,0.63,-0.51,0.94,0.92,
4.774,-0.30,-0.70,0.63,-0.53,0.95,0.93,
4.775,-0.30,-0.70,0.63,-0.58,0.98,0.93,
4.776,-0.30,-0.70,0.63,-0.62,1.00,0.94,
4.78,-0.30,-0.70,0.63,-0.63,1.01,0.94,
4.781,-0.17,-0.55,0.66,-0.63,1.01,0.94,
4.801,-0.17,-0.55,0.66,-0.66,1.03,0.95,
4.802,-0.17,-0.55,0.66,-0.69,1.04,0.95,
4.802,-0.17,-0.55,0.66,-0.73,1.06,0.95,
4.802,-0.17,-0.55,0.66,-0.76,1.07,0.95,
4.802,-0.17,-0.55,0.66,-0.77,1.07,0.95,
4.802,0.11,-0.50,0.74,-0.77,1.07,0.95,
4.802,0.11,-0.50,0.74,-0.80,1.06,0.95,
4.802,0.11,-0.50,0.74,-0.83,1.05,0.94,
4.803,0.11,-0.50,0.74,-0.87,1.02,0.93,
4.803,0.11,-0.50,0.74,-0.89,0.98,0.92,
4.803,0.11,-0.50,0.74,-0.91,0.96,0.91,
4.803,0.47,-0.37,0.73,-0.91,0.96,0.91,
4.803,0.47,-0.37,0.73,-0.93,0.92,0.89,
4.803,0.47,-0.37,0.73,-0.96,0.86,0.88,
4.803,0.47,-0.37,0.73,-0.99,0.75,0.85,
4.804,0.47,-0.37,0.73,-1.01,0.67,0.83,
4.804,0.47,-0.37,0.73,-1.02,0.62,0.83,
4.804,0.70,-0.13,0.98,-1.02,0.62,0.83,
4.804,0.70,-0.13,0.98,-1.04,0.53,0.81,
4.808,0.70,-0.13,0.98,-1.06,0.42,0.79,
4.808,0.70,-0.13,0.98,-1.08,0.27,0.76,
4.812,0.70,-0.13,0.98,-1.10,0.16,0.74,
4.813,0.70,-0.13,0.98,-1.10,0.10,0.74,
4.813,0.69,-0.01,1.59,-1.10,0.10,0.74,
4.814,0.69,-0.01,1.59,-1.11,-0.01,0.72,
4.817,0.69,-0.01,1.59,-1.11,-0.12,0.71,
4.818,0.69,-0.01,1.59,-1.11,-0.27,0.69,
4.821,0.69,-0.01,1.59,-1.10,-0.37,0.68,
4.821,0.69,-0.01,1.59,-1.10,-0.41,0.68,
4.825,0.48,-0.08,2.68,-1.10,-0.41,0.68,
4.825,0.48,-0.08,2.68,-1.09,-0.49,0.67,
4.825,0.48,-0.08,2.68,-1.07,-0.57,0.66,
4.833,0.48,-0.08,2.68,-1.05,-0.67,0.66,
4.834,0.48,-0.08,2.68,-1.03,-0.72,0.66,
4.834,0.48,-0.08,2.68,-1.01,-0.75,0.66,
4.838,0.28,-0.24,3.93,-1.01,-0.75,0.66,
4.838,0.28,-0.24,3.93,-0.99,-0.79,0.66,
4.838,0.28,-0.24,3.93,-0.95,-0.83,0.67,
4.839,0.28,-0.24,3.93,-0.90,-0.87,0.68,
4.848,0.28,-0.24,3.93,-0.85,-0.88,0.69,
4.848,0.28,-0.24,3.93,-0.84,-0.88,0.70,
4.848,0.03,-0.52,5.11,-0.84,-0.88,0.70,
4.848,0.03,-0.52,5.11,-0.79,-0.88,0.71,
4.849,0.03,-0.52,5.11,-0.72,-0.86,0.73,
4.849,0.03,-0.52,5.11,-0.68,-0.83,0.75,
4.849,0.03,-0.52,5.11,-0.63,-0.80,0.77,
4.853,0.03,-0.52,5.11,-0.61,-0.78,0.78,
4.853,-0.09,-0.66,5.71,-0.61,-0.78,0.78,
4.853,-0.09,-0.66,5.71,-0.57,-0.73,0.80,
4.855,-0.09,-0.66,5.71,-0.53,-0.67,0.82,
4.89,-0.09,-0.66,5.71,-0.47,-0.57,0.85,
4.89,-0.09,-0.66,5.71,-0.45,-0.50,0.87,
4.89,-0.09,-0.66,5.71,-0.43,-0.46,0.87,
4.891,0.00,-0.77,5.52,-0.43,-0.46,0.87,
4.891,0.00,-0.77,5.52,-0.41,-0.38,0.89,
4.891,0.00,-0.77,5.52,-0.39,-0.30,0.90,
4.891,0.00,-0.77,5.52,-0.37,-0.17,0.91,
4.891,0.00,-0.77,5.52,-0.36,-0.08,0.91,
4.891,0.00,-0.77,5.52,-0.35,0.01,0.92,
4.891,0.53,-0.66,4.82,-0.35,0.01,0.92,
4.892,0.53,-0.66,4.82,-0.34,0.10,0.91,
4.892,0.53,-0.66,4.82,-0.34,0.19,0.91,
4.892,0.53,-0.66,4.82,-0.34,0.31,0.90,
4.892,0.53,-0.66,4.82,-0.34,0.35,0.89,
4.892,0.53,-0.66,4.82,-0.34,0.42,0.88,
4.892,1.25,-0.56,4.02,-0.34,0.42,0.88,
4.892,1.25,-0.56,4.02,-0.34,0.49,0.87,
4.893,1.25,-0.56,4.02,-0.35,0.55,0.85,
4.893,1.25,-0.56,4.02,-0.35,0.60,0.84,
4.893,1.25,-0.56,4.02,-0.35,0.64,0.82,
4.893,1.25,-0.56,4.02,-0.35,0.67,0.80,
4.898,1.55,-0.39,3.56,-0.35,0.67,0.80,
4.898,1.55,-0.39,3.56,-0.35,0.70,0.78,
4.898,1.55,-0.39,3.56,-0.34,0.73,0.77,
4.898,1.55,-0.39,3.56,-0.34,0.75,0.74,
4.899,1.55,-0.39,3.56,-0.33,0.76,0.73,
4.901,1.55,-0.39,3.56,-0.32,0.76,0.72,
4.905,1.66,-0.40,3.45,-0.32,0.76,0.72,
4.905,1.66,-0.40,3.45,-0.31,0.77,0.70,
4.905,1.66,-0.40,3.45,-0.29,0.77,0.68,
4.908,1.66,-0.40,3.45,-0.27,0.76,0.67,
4.909,1.66,-0.40,3.45,-0.25,0.75,0.65,
4.911,1.66,-0.40,3.45,-0.24,0.74,0.64,
4.913,1.59,-0.58,3.46,-0.24,0.74,0.64,
4.914,1.59,-0.58,3.46,-0.21,0.72,0.63,
4.915,1.59,-0.58,3.46,-0.19,0.70,0.61,
4.918,1.59,-0.58,3.46,-0.16,0.68,0.60,
4.919,1.59,-0.58,3.46,-0.13,0.66,0.60,
4.921,1.59,-0.58,3.46,-0.09,0.63,0.59,
4.924,1.45,-0.84,3.64,-0.09,0.63,0.59,
4.924,1.45,-0.84,3.64,-0.06,0.60,0.58,
4.926,1.45,-0.84,3.64,-0.02,0.57,0.58,
4.929,1.45,-0.84,3.64,0.03,0.54,0.57,
4.929,1.45,-0.84,3.64,0.07,0.52,0.57,
4.931,1.45,-0.84,3.64,0.11,0.49,0.57,
4.933,1.28,-1.10,3.78,0.11,0.49,0.57,
4.933,1.28,-1.10,3.78,0.16,0.47,0.57,
4.935,1.28,-1.10,3.78,0.20,0.45,0.57,
4.938,1.28,-1.10,3.78,0.24,0.43,0.57,
4.939,1.28,-1.10,3.78,0.28,0.41,0.57,
4.967,1.28,-1.10,3.78,0.31,0.39,0.57,
4.967,1.20,-1.36,3.35,0.31,0.39,0.57,
4.968,1.20,-1.36,3.35,0.34,0.37,0.58,
4.968,1.20,-1.36,3.35,0.38,0.35,0.58,
4.968,1.20,-1.36,3.35,0.43,0.31,0.57,
4.968,1.20,-1.36,3.35,0.43,0.31,0.57,
4.968,1.20,-1.36,3.35,0.45,0.30,0.57,
4.969,1.27,-1.42,2.57,0.45,0.30,0.57,
4.969,1.27,-1.42,2.57,0.48,0.28,0.57,
4.969,1.27,-1.42,2.57,0.50,0.27,0.57,
4.969,1.27,-1.42,2.57,0.52,0.25,0.56,
4.97,1.27,-1.42,2.57,0.54,0.24,0.55,
4.97,1.27,-1.42,2.57,0.55,0.23,0.54,
4.97,1.56,-1.43,1.91,0.55,0.23,0.54,
4.97,1.56,-1.43,1.91,0.57,0.21,0.54,
4.97,1.56,-1.43,1.91,0.59,0.21,0.52,
4.971,1.56,-1.43,1.91,0.60,0.19,0.51,
4.971,1.56,-1.43,1.91,0.61,0.19,0.50,
4.971,1.56,-1.43,1.91,0.62,0.18,0.48,
4.977,1.81,-1.37,1.17,0.62,0.18,0.48,
4.977,1.81,-1.37,1.17,0.63,0.17,0.46,
4.977,1.81,-1.37,1.17,0.64,0.17,0.44,
4.978,1.81,-1.37,1.17,0.64,0.16,0.42,
4.979,1.81,-1.37,1.17,0.65,0.16,0.40,
4.983,1.81,-1.37,1.17,0.65,0.16,0.37,
4.984,2.08,-1.33,0.39,0.65,0.16,0.37,
4.984,2.08,-1.33,0.39,0.65,0.15,0.35,
4.987,2.08,-1.33,0.39,0.65,0.15,0.33,
4.988,2.08,-1.33,0.39,0.64,0.15,0.30,
5.0,2.08,-1.33,0.39,0.63,0.15,0.28,
5.001,2.08,-1.33,0.39,0.63,0.15,0.25,
5.001,2.09,-1.21,-0.41,0.63,0.15,0.25,
5.001,2.09,-1.21,-0.41,0.62,0.16,0.22,
5.001,2.09,-1.21,-0.41,0.61,0.16,0.20,
5.001,2.09,-1.21,-0.41,0.60,0.17,0.17,
5.002,2.09,-1.21,-0.41,0.58,0.18,0.15,
5.002,2.09,-1.21,-0.41,0.57,0.18,0.12,
5.031,2.05,-1.17,-1.16,0.57,0.18,0.12,
5.031,2.05,-1.17,-1.16,0.55,0.19,0.09,
5.031,2.05,-1.17,-1.16,0.53,0.20,0.07,
5.032,2.05,-1.17,-1.16,0.52,0.21,0.04,
5.032,2.05,-1.17,-1.16,0.50,0.22,0.02,
5.032,2.05,-1.17,-1.16,0.48,0.24,-0.01,
5.032,1.78,-1.17,-1.82,0.48,0.24,-0.01,
5.032,1.78,-1.17,-1.82,0.45,0.24,-0.03,
5.032,1.78,-1.17,-1.82,0.43,0.25,-0.06,
5.033,1.78,-1.17,-1.82,0.41,0.26,-0.08,
5.033,1.78,-1.17,-1.82,0.39,0.27,-0.10,
5.033,1.78,-1.17,-1.82,0.37,0.28,-0.12,
5.033,1.55,-1.20,-2.28,0.37,0.28,-0.12,
5.033,1.55,-1.20,-2.28,0.34,0.29,-0.14,
5.034,1.55,-1.20,-2.28,0.32,0.30,-0.16,
5.034,1.55,-1.20,-2.28,0.29,0.31,-0.18,
5.034,1.55,-1.20,-2.28,0.28,0.31,-0.19,
5.034,1.55,-1.20,-2.28,0.26,0.32,-0.21,
5.034,1.19,-1.21,-2.54,0.26,0.32,-0.21,
5.035,1.19,-1.21,-2.54,0.23,0.32,-0.22,
5.035,1.19,-1.21,-2.54,0.21,0.32,-0.24,
5.038,1.19,-1.21,-2.54,0.19,0.32,-0.25,
5.039,1.19,-1.21,-2.54,0.18,0.31,-0.26,
5.041,1.19,-1.21,-2.54,0.16,0.31,-0.27,
5.043,0.94,-1.21,-2.54,0.16,0.31,-0.27,
5.043,0.94,-1.21,-2.54,0.15,0.30,-0.29,
5.054,0.94,-1.21,-2.54,0.14,0.30,-0.30,
5.054,0.94,-1.21,-2.54,0.13,0.29,-0.31,
