
time,ax,ay,az,wx,wy,wz,
0.002,-0.39,-0.64,-0.25,-0.43,0.33,1.72,
0.003,-0.28,-0.63,-0.12,-0.43,0.33,1.72,
0.003,-0.28,-0.63,-0.12,-0.43,0.34,1.72,
0.003,-0.28,-0.63,-0.12,-0.44,0.35,1.72,
0.004,-0.28,-0.63,-0.12,-0.44,0.36,1.72,
0.004,-0.28,-0.63,-0.12,-0.45,0.37,1.72,
0.004,-0.28,-0.63,-0.12,-0.45,0.39,1.72,
0.005,-0.18,-0.65,0.06,-0.45,0.39,1.72,
0.005,-0.18,-0.65,0.06,-0.46,0.41,1.72,
0.005,-0.18,-0.65,0.06,-0.46,0.44,1.72,
0.006,-0.18,-0.65,0.06,-0.46,0.45,1.72,
0.018,-0.18,-0.65,0.06,-0.46,0.47,1.72,
0.019,-0.18,-0.65,0.06,-0.46,0.49,1.72,
0.019,-0.13,-0.59,0.29,-0.46,0.49,1.72,
0.019,-0.13,-0.59,0.29,-0.46,0.50,1.72,
0.019,-0.13,-0.59,0.29,-0.45,0.53,1.72,
0.02,-0.13,-0.59,0.29,-0.45,0.53,1.72,
0.02,-0.13,-0.59,0.29,-0.45,0.54,1.71,
0.02,-0.13,-0.59,0.29,-0.44,0.55,1.71,
0.021,-0.23,-0.50,0.42,-0.44,0.55,1.71,
0.021,-0.23,-0.50,0.42,-0.43,0.55,1.71,
0.024,-0.23,-0.50,0.42,-0.43,0.56,1.70,
0.025,-0.23,-0.50,0.42,-0.42,0.56,1.70,
0.041,-0.23,-0.50,0.42,-0.41,0.55,1.70,
0.041,-0.23,-0.50,0.42,-0.41,0.55,1.69,
0.041,-0.35,-0.36,0.39,-0.41,0.55,1.69,
0.042,-0.35,-0.36,0.39,-0.40,0.54,1.69,
0.042,-0.35,-0.36,0.39,-0.40,0.54,1.69,
0.042,-0.35,-0.36,0.39,-0.39,0.53,1.69,
0.043,-0.35,-0.36,0.39,-0.39,0.52,1.69,
0.043,-0.35,-0.36,0.39,-0.39,0.52,1.69,
0.043,-0.43,-0.30,0.23,-0.39,0.52,1.69,
0.044,-0.43,-0.30,0.23,-0.39,0.50,1.69,
0.044,-0.43,-0.30,0.23,-0.39,0.48,1.69,
0.044,-0.43,-0.30,0.23,-0.39,0.47,1.69,
0.047,-0.43,-0.30,0.23,-0.39,0.45,1.69,
0.053,-0.43,-0.30,0.23,-0.40,0.42,1.70,
0.054,-0.43,-0.34,0.14,-0.40,0.42,1.70,
0.054,-0.43,-0.34,0.14,-0.40,0.41,1.70,
0.054,-0.43,-0.34,0.14,-0.41,0.37,1.71,
0.055,-0.43,-0.34,0.14,-0.41,0.35,1.71,
0.058,-0.43,-0.34,0.14,-0.41,0.32,1.72,
0.071,-0.43,-0.34,0.14,-0.41,0.29,1.73,
0.072,-0.70,-0.35,0.35,-0.41,0.29,1.73,
0.072,-0.70,-0.35,0.35,-0.42,0.26,1.74,
0.072,-0.70,-0.35,0.35,-0.42,0.22,1.75,
0.073,-0.70,-0.35,0.35,-0.42,0.21,1.75,
0.073,-0.70,-0.35,0.35,-0.42,0.19,1.76,
0.073,-0.70,-0.35,0.35,-0.43,0.17,1.77,
0.073,-0.64,-0.27,0.67,-0.43,0.17,1.77,
0.074,-0.64,-0.27,0.67,-0.43,0.15,1.78,
0.074,-0.64,-0.27,0.67,-0.44,0.14,1.80,
0.077,-0.64,-0.27,0.67,-0.44,0.14,1.80,
0.077,-0.64,-0.27,0.67,-0.44,0.14,1.81,
0.078,-0.64,-0.27,0.67,-0.45,0.14,1.82,
0.082,-0.39,-0.37,0.88,-0.45,0.14,1.82,
0.082,-0.39,-0.37,0.88,-0.45,0.15,1.83,
0.083,-0.39,-0.37,0.88,-0.46,0.16,1.85,
0.087,-0.39,-0.37,0.88,-0.47,0.16,1.85,
0.087,-0.39,-0.37,0.88,-0.48,0.17,1.87,
0.123,-0.39,-0.37,0.88,-0.49,0.18,1.87,
0.124,-0.01,-0.51,0.76,-0.49,0.18,1.87,
0.125,-0.01,-0.51,0.76,-0.50,0.19,1.87,
0.125,-0.01,-0.51,0.76,-0.51,0.22,1.88,
0.125,-0.01,-0.51,0.76,-0.52,0.23,1.88,
0.125,-0.01,-0.51,0.76,-0.53,0.25,1.88,
0.126,-0.01,-0.51,0.76,-0.54,0.25,1.88,
0.126,0.39,-0.77,0.28,-0.54,0.25,1.88,
0.126,0.39,-0.77,0.28,-0.55,0.26,1.88,
0.127,0.39,-0.77,0.28,-0.57,0.29,1.87,
0.127,0.39,-0.77,0.28,-0.57,0.30,1.87,
0.127,0.39,-0.77,0.28,-0.59,0.33,1.86,
0.143,0.39,-0.77,0.28,-0.59,0.37,1.86,
0.144,0.44,-0.96,-0.24,-0.59,0.37,1.86,
0.144,0.44,-0.96,-0.24,-0.60,0.40,1.85,
0.145,0.44,-0.96,-0.24,-0.61,0.45,1.84,
0.145,0.44,-0.96,-0.24,-0.61,0.47,1.84,
0.146,0.44,-0.96,-0.24,-0.62,0.50,1.83,
0.146,0.44,-0.96,-0.24,-0.63,0.52,1.82,
0.146,0.45,-0.83,-0.56,-0.63,0.52,1.82,
0.147,0.45,-0.83,-0.56,-0.63,0.54,1.82,
0.147,0.45,-0.83,-0.56,-0.64,0.55,1.81,
0.148,0.45,-0.83,-0.56,-0.64,0.54,1.81,
0.148,0.45,-0.83,-0.56,-0.64,0.53,1.81,
0.148,0.45,-0.83,-0.56,-0.65,0.51,1.81,
0.149,0.19,-0.60,-0.51,-0.65,0.51,1.81,
0.149,0.19,-0.60,-0.51,-0.65,0.48,1.81,
0.15,0.19,-0.60,-0.51,-0.65,0.42,1.81,
0.15,0.19,-0.60,-0.51,-0.66,0.39,1.82,
0.15,0.19,-0.60,-0.51,-0.66,0.34,1.82,
0.151,0.19,-0.60,-0.51,-0.66,0.28,1.82,
0.151,0.06,-0.53,0.21,-0.66,0.28,1.82,
0.152,0.06,-0.53,0.21,-0.64,0.22,1.83,
0.152,0.06,-0.53,0.21,-0.63,0.13,1.84,
0.153,0.06,-0.53,0.21,-0.63,0.11,1.85,
0.153,0.06,-0.53,0.21,-0.61,0.07,1.86,
0.153,0.06,-0.53,0.21,-0.59,0.03,1.86,
0.154,0.14,-0.55,1.40,-0.59,0.03,1.86,
0.154,0.14,-0.55,1.40,-0.58,-0.01,1.87,
0.155,0.14,-0.55,1.40,-0.54,-0.04,1.87,
0.155,0.14,-0.55,1.40,-0.53,-0.05,1.87,
0.166,0.14,-0.55,1.40,-0.51,-0.07,1.87,
0.167,0.14,-0.55,1.40,-0.49,-0.07,1.87,
0.167,0.39,-0.74,2.15,-0.49,-0.07,1.87,
0.168,0.39,-0.74,2.15,-0.47,-0.08,1.86,
0.168,0.39,-0.74,2.15,-0.44,-0.08,1.86,
0.168,0.39,-0.74,2.15,-0.44,-0.08,1.85,
0.168,0.39,-0.74,2.15,-0.42,-0.08,1.84,
0.171,0.39,-0.74,2.15,-0.42,-0.08,1.84,
0.171,0.56,-0.87,2.02,-0.42,-0.08,1.84,
0.172,0.56,-0.87,2.02,-0.41,-0.08,1.83,
0.173,0.56,-0.87,2.02,-0.40,-0.08,1.81,
0.174,0.56,-0.87,2.02,-0.40,-0.07,1.81,
0.176,0.56,-0.87,2.02,-0.41,-0.06,1.80,
0.178,0.56,-0.87,2.02,-0.41,-0.05,1.79,
0.18,0.89,-1.06,1.50,-0.41,-0.05,1.79,
0.18,0.89,-1.06,1.50,-0.42,-0.03,1.78,
0.183,0.89,-1.06,1.50,-0.43,0.03,1.77,
0.184,0.89,-1.06,1.50,-0.43,0.04,1.77,
0.186,0.89,-1.06,1.50,-0.45,0.08,1.76,
0.189,0.89,-1.06,1.50,-0.46,0.13,1.75,
0.19,1.22,-1.34,0.82,-0.46,0.13,1.75,
0.19,1.22,-1.34,0.82,-0.48,0.19,1.74,
0.193,1.22,-1.34,0.82,-0.49,0.29,1.73,
0.194,1.22,-1.34,0.82,-0.50,0.32,1.73,
0.195,1.22,-1.34,0.82,-0.51,0.39,1.72,
0.198,1.22,-1.34,0.82,-0.52,0.46,1.72,
0.2,1.25,-1.65,0.25,-0.52,0.46,1.72,
0.2,1.25,-1.65,0.25,-0.53,0.52,1.72,
0.203,1.25,-1.65,0.25,-0.54,0.60,1.71,
0.204,1.25,-1.65,0.25,-0.55,0.62,1.71,
0.222,1.25,-1.65,0.25,-0.56,0.65,1.71,
0.223,1.25,-1.65,0.25,-0.56,0.67,1.71,
0.223,0.85,-1.72,-0.04,-0.56,0.67,1.71,
0.223,0.85,-1.72,-0.04,-0.56,0.68,1.72,
0.224,0.85,-1.72,-0.04,-0.57,0.68,1.71,
0.224,0.85,-1.72,-0.04,-0.57,0.68,1.71,
0.224,0.85,-1.72,-0.04,-0.57,0.67,1.70,
0.224,0.85,-1.72,-0.04,-0.56,0.66,1.69,
0.225,0.99,-1.47,0.06,-0.56,0.66,1.69,
0.225,0.99,-1.47,0.06,-0.55,0.65,1.69,
0.225,0.99,-1.47,0.06,-0.53,0.63,1.68,
0.225,0.99,-1.47,0.06,-0.53,0.62,1.68,
0.253,0.99,-1.47,0.06,-0.52,0.60,1.69,
0.253,0.99,-1.47,0.06,-0.51,0.58,1.69,
0.254,1.01,-1.20,0.42,-0.51,0.58,1.69,
0.254,1.01,-1.20,0.42,-0.49,0.56,1.69,
0.254,1.01,-1.20,0.42,-0.46,0.53,1.69,
0.254,1.01,-1.20,0.42,-0.46,0.53,1.69,
0.254,1.01,-1.20,0.42,-0.44,0.52,1.69,
0.254,1.01,-1.20,0.42,-0.42,0.52,1.69,
0.255,1.12,-1.23,0.56,-0.42,0.52,1.69,
0.255,1.12,-1.23,0.56,-0.40,0.52,1.69,
0.255,1.12,-1.23,0.56,-0.38,0.51,1.68,
0.255,1.12,-1.23,0.56,-0.37,0.51,1.68,
0.255,1.12,-1.23,0.56,-0.36,0.50,1.68,
0.256,1.12,-1.23,0.56,-0.34,0.50,1.68,
0.256,1.18,-1.27,0.58,-0.34,0.50,1.68,
0.256,1.18,-1.27,0.58,-0.33,0.49,1.68,
0.256,1.18,-1.27,0.58,-0.32,0.47,1.68,
0.256,1.18,-1.27,0.58,-0.31,0.47,1.68,
0.257,1.18,-1.27,0.58,-0.30,0.46,1.68,
0.269,1.18,-1.27,0.58,-0.30,0.45,1.67,
0.269,1.24,-1.33,0.62,-0.30,0.45,1.67,
0.27,1.24,-1.33,0.62,-0.29,0.43,1.67,
0.27,1.24,-1.33,0.62,-0.29,0.41,1.67,
0.27,1.24,-1.33,0.62,-0.29,0.40,1.67,
0.271,1.24,-1.33,0.62,-0.29,0.38,1.67,
0.271,1.24,-1.33,0.62,-0.28,0.37,1.67,
0.29,1.13,-1.28,0.49,-0.28,0.37,1.67,
0.29,1.13,-1.28,0.49,-0.28,0.35,1.66,
0.291,1.13,-1.28,0.49,-0.29,0.32,1.66,
0.323,1.13,-1.28,0.49,-0.30,0.32,1.66,
0.323,1.13,-1.28,0.49,-0.31,0.30,1.66,
0.323,1.13,-1.28,0.49,-0.31,0.27,1.66,
0.324,1.13,-1.28,0.49,-0.31,0.27,1.66,
0.324,1.05,-1.23,0.40,-0.31,0.27,1.66,
0.324,1.05,-1.23,0.40,-0.31,0.26,1.66,
0.325,1.05,-1.23,0.40,-0.31,0.24,1.67,
0.325,1.05,-1.23,0.40,-0.34,0.23,1.66,
0.325,1.05,-1.23,0.40,-0.35,0.23,1.66,
0.325,1.09,-1.20,0.37,-0.35,0.23,1.66,
0.326,1.09,-1.20,0.37,-0.36,0.21,1.67,
0.326,1.09,-1.20,0.37,-0.39,0.18,1.67,
0.326,1.09,-1.20,0.37,-0.40,0.17,1.67,
0.326,1.09,-1.20,0.37,-0.41,0.14,1.67,
0.327,1.09,-1.20,0.37,-0.43,0.11,1.67,
0.327,1.09,-1.20,0.37,-0.45,0.07,1.66,
0.327,1.22,-1.24,0.35,-0.45,0.07,1.66,
0.327,1.22,-1.24,0.35,-0.49,-0.00,1.62,
0.328,1.22,-1.24,0.35,-0.51,-0.03,1.59,
0.328,1.22,-1.24,0.35,-0.55,-0.09,1.52,
0.328,1.22,-1.24,0.35,-0.58,-0.14,1.46,
0.329,3.26,-0.87,-0.22,-0.58,-0.14,1.46,
0.329,3.26,-0.87,-0.22,-0.61,-0.18,1.40,
0.329,3.26,-0.87,-0.22,-0.65,-0.23,1.32,
0.329,3.26,-0.87,-0.22,-0.66,-0.25,1.29,
0.33,3.26,-0.87,-0.22,-0.68,-0.28,1.25,
0.33,3.26,-0.87,-0.22,-0.69,-0.30,1.20,
0.33,3.64,-0.58,0.34,-0.69,-0.30,1.20,
0.33,3.64,-0.58,0.34,-0.71,-0.33,1.16,
0.331,3.64,-0.58,0.34,-0.71,-0.35,1.10,
0.331,3.64,-0.58,0.34,-0.72,-0.36,1.09,
0.331,3.64,-0.58,0.34,-0.72,-0.36,1.05,
0.331,3.64,-0.58,0.34,-0.71,-0.35,1.02,
0.332,3.41,-0.47,1.18,-0.71,-0.35,1.02,
0.332,3.41,-0.47,1.18,-0.71,-0.34,0.99,
0.341,3.41,-0.47,1.18,-0.70,-0.31,0.94,
0.342,3.41,-0.47,1.18,-0.70,-0.30,0.93,
0.342,3.41,-0.47,1.18,-0.69,-0.28,0.90,
0.342,3.41,-0.47,1.18,-0.69,-0.26,0.87,
0.344,3.43,-0.72,1.64,-0.69,-0.26,0.87,
0.345,3.43,-0.72,1.64,-0.69,-0.25,0.84,
0.346,3.43,-0.72,1.64,-0.68,-0.22,0.80,
0.362,3.43,-0.72,1.64,-0.68,-0.21,0.79,
0.362,3.43,-0.72,1.64,-0.67,-0.19,0.76,
0.362,3.43,-0.72,1.64,-0.66,-0.17,0.74,
0.362,3.45,-1.06,2.02,-0.66,-0.17,0.74,
0.363,3.45,-1.06,2.02,-0.65,-0.16,0.71,
0.363,3.45,-1.06,2.02,-0.63,-0.13,0.67,
0.363,3.45,-1.06,2.02,-0.62,-0.12,0.66,
0.363,3.45,-1.06,2.02,-0.60,-0.11,0.63,
0.363,3.45,-1.06,2.02,-0.58,-0.09,0.60,
0.364,3.49,-1.28,2.37,-0.58,-0.09,0.60,
0.364,3.49,-1.28,2.37,-0.56,-0.08,0.58,
0.364,3.49,-1.28,2.37,-0.53,-0.07,0.54,
0.366,3.49,-1.28,2.37,-0.52,-0.06,0.53,
0.366,3.49,-1.28,2.37,-0.50,-0.06,0.50,
0.368,3.49,-1.28,2.37,-0.48,-0.05,0.48,
0.377,3.19,-1.29,2.42,-0.48,-0.05,0.48,
0.377,3.19,-1.29,2.42,-0.46,-0.04,0.46,
0.378,3.19,-1.29,2.42,-0.43,-0.03,0.43,
0.378,3.19,-1.29,2.42,-0.42,-0.03,0.41,
0.378,3.19,-1.29,2.42,-0.40,-0.02,0.39,
0.378,3.19,-1.29,2.42,-0.38,-0.02,0.38,
0.382,2.88,-1.40,2.30,-0.38,-0.02,0.38,
0.382,2.88,-1.40,2.30,-0.36,-0.03,0.36,
0.383,2.88,-1.40,2.30,-0.33,-0.04,0.33,
0.385,2.88,-1.40,2.30,-0.32,-0.04,0.33,
0.399,2.88,-1.40,2.30,-0.31,-0.04,0.31,
0.4,2.88,-1.40,2.30,-0.29,-0.05,0.30,
0.4,2.47,-1.47,2.06,-0.29,-0.05,0.30,
0.401,2.47,-1.47,2.06,-0.28,-0.05,0.29,
0.401,2.47,-1.47,2.06,-0.25,-0.06,0.28,
0.401,2.47,-1.47,2.06,-0.25,-0.07,0.28,
0.401,2.47,-1.47,2.06,-0.24,-0.08,0.27,
0.401,2.47,-1.47,2.06,-0.23,-0.09,0.27,
0.402,2.21,-1.62,1.65,-0.23,-0.09,0.27,
0.402,2.21,-1.62,1.65,-0.21,-0.11,0.26,
0.405,2.21,-1.62,1.65,-0.20,-0.15,0.26,
0.406,2.21,-1.62,1.65,-0.19,-0.16,0.26,
0.407,2.21,-1.62,1.65,-0.19,-0.19,0.26,
0.408,2.21,-1.62,1.65,-0.18,-0.23,0.27,
0.411,1.82,-1.74,1.15,-0.18,-0.23,0.27,
0.411,1.82,-1.74,1.15,-0.17,-0.26,0.27,
0.413,1.82,-1.74,1.15,-0.16,-0.30,0.28,
0.414,1.82,-1.74,1.15,-0.16,-0.31,0.29,
0.417,1.82,-1.74,1.15,-0.15,-0.34,0.29,
0.418,1.82,-1.74,1.15,-0.14,-0.36,0.30,
0.421,1.48,-1.68,0.69,-0.14,-0.36,0.30,
0.421,1.48,-1.68,0.69,-0.14,-0.38,0.31,
0.423,1.48,-1.68,0.69,-0.13,-0.40,0.34,
0.424,1.48,-1.68,0.69,-0.13,-0.41,0.34,
0.425,1.48,-1.68,0.69,-0.12,-0.42,0.36,
0.427,1.48,-1.68,0.69,-0.11,-0.43,0.37,
0.43,1.23,-1.48,0.31,-0.11,-0.43,0.37,
0.43,1.23,-1.48,0.31,-0.11,-0.43,0.39,
0.432,1.23,-1.48,0.31,-0.09,-0.42,0.42,
0.433,1.23,-1.48,0.31,-0.08,-0.41,0.42,
0.435,1.23,-1.48,0.31,-0.06,-0.38,0.44,
0.438,1.23,-1.48,0.31,-0.04,-0.36,0.46,
0.442,1.23,-1.10,0.51,-0.04,-0.36,0.46,
0.457,1.23,-1.10,0.51,-0.02,-0.34,0.47,
0.458,1.23,-1.10,0.51,0.01,-0.31,0.49,
0.458,1.23,-1.10,0.51,0.03,-0.30,0.50,
0.459,1.23,-1.10,0.51,0.05,-0.27,0.51,
0.459,1.23,-1.10,0.51,0.08,-0.25,0.52,
0.459,1.34,-0.98,0.65,0.08,-0.25,0.52,
0.459,1.34,-0.98,0.65,0.10,-0.24,0.53,
0.46,1.34,-0.98,0.65,0.14,-0.21,0.53,
0.46,1.34,-0.98,0.65,0.15,-0.21,0.53,
0.46,1.34,-0.98,0.65,0.17,-0.19,0.53,
0.46,1.34,-0.98,0.65,0.19,-0.19,0.53,
0.46,1.77,-1.00,0.38,0.19,-0.19,0.53,
0.461,1.77,-1.00,0.38,0.21,-0.19,0.53,
0.465,1.77,-1.00,0.38,0.23,-0.19,0.52,
0.466,1.77,-1.00,0.38,0.23,-0.19,0.51,
0.466,1.77,-1.00,0.38,0.24,-0.19,0.50,
0.468,1.77,-1.00,0.38,0.25,-0.19,0.49,
0.473,1.95,-0.94,-0.16,0.25,-0.19,0.49,
0.473,1.95,-0.94,-0.16,0.25,-0.19,0.48,
0.474,1.95,-0.94,-0.16,0.25,-0.20,0.47,
0.474,1.95,-0.94,-0.16,0.25,-0.20,0.46,
0.476,1.95,-0.94,-0.16,0.25,-0.20,0.45,
0.478,1.95,-0.94,-0.16,0.25,-0.20,0.44,
0.48,2.02,-0.77,-0.73,0.25,-0.20,0.44,
0.48,2.02,-0.77,-0.73,0.24,-0.20,0.43,
0.484,2.02,-0.77,-0.73,0.23,-0.19,0.42,
0.484,2.02,-0.77,-0.73,0.23,-0.18,0.42,
0.485,2.02,-0.77,-0.73,0.22,-0.17,0.41,
0.492,2.02,-0.77,-0.73,0.20,-0.16,0.41,
0.493,1.73,-0.50,-1.15,0.20,-0.16,0.41,
0.493,1.73,-0.50,-1.15,0.19,-0.16,0.40,
0.493,1.73,-0.50,-1.15,0.17,-0.14,0.40,
0.494,1.73,-0.50,-1.15,0.16,-0.14,0.39,
0.495,1.73,-0.50,-1.15,0.14,-0.13,0.39,
0.497,1.73,-0.50,-1.15,0.12,-0.13,0.39,
0.5,1.33,-0.40,-1.54,0.12,-0.13,0.39,
0.501,1.33,-0.40,-1.54,0.10,-0.14,0.39,
0.507,1.33,-0.40,-1.54,0.07,-0.14,0.40,
0.508,1.33,-0.40,-1.54,0.05,-0.14,0.40,
0.508,1.33,-0.40,-1.54,0.03,-0.15,0.40,
0.508,1.33,-0.40,-1.54,0.01,-0.16,0.41,
0.51,1.01,-0.37,-1.82,0.01,-0.16,0.41,
0.51,1.01,-0.37,-1.82,-0.02,-0.17,0.41,
0.513,1.01,-0.37,-1.82,-0.06,-0.18,0.42,
0.513,1.01,-0.37,-1.82,-0.07,-0.19,0.42,
0.515,1.01,-0.37,-1.82,-0.10,-0.20,0.43,
0.517,1.01,-0.37,-1.82,-0.12,-0.21,0.44,
0.52,0.80,-0.36,-1.85,-0.12,-0.21,0.44,
0.52,0.80,-0.36,-1.85,-0.15,-0.21,0.45,
0.523,0.80,-0.36,-1.85,-0.18,-0.21,0.47,
0.524,0.80,-0.36,-1.85,-0.18,-0.21,0.47,
0.525,0.80,-0.36,-1.85,-0.20,-0.21,0.48,
0.527,0.80,-0.36,-1.85,-0.21,-0.21,0.49,
0.53,0.62,-0.31,-1.53,-0.21,-0.21,0.49,
0.53,0.62,-0.31,-1.53,-0.23,-0.20,0.50,
0.532,0.62,-0.31,-1.53,-0.24,-0.20,0.51,
0.533,0.62,-0.31,-1.53,-0.24,-0.19,0.52,
0.535,0.62,-0.31,-1.53,-0.25,-0.19,0.53,
0.538,0.62,-0.31,-1.53,-0.25,-0.18,0.54,
0.54,0.60,-0.22,-1.03,-0.25,-0.18,0.54,
0.54,0.60,-0.22,-1.03,-0.25,-0.17,0.54,
0.543,0.60,-0.22,-1.03,-0.25,-0.15,0.55,
0.543,0.60,-0.22,-1.03,-0.25,-0.14,0.55,
0.546,0.60,-0.22,-1.03,-0.25,-0.13,0.55,
0.548,0.60,-0.22,-1.03,-0.24,-0.12,0.56,
0.549,0.82,-0.21,-0.59,-0.24,-0.12,0.56,
0.55,0.82,-0.21,-0.59,-0.24,-0.11,0.55,
0.553,0.82,-0.21,-0.59,-0.23,-0.09,0.55,
0.553,0.82,-0.21,-0.59,-0.23,-0.08,0.54,
0.555,0.82,-0.21,-0.59,-0.22,-0.07,0.54,
0.557,0.82,-0.21,-0.59,-0.21,-0.06,0.53,
0.56,1.21,-0.23,-0.28,-0.21,-0.06,0.53,
0.56,1.21,-0.23,-0.28,-0.21,-0.05,0.53,
0.563,1.21,-0.23,-0.28,-0.20,-0.04,0.51,
0.563,1.21,-0.23,-0.28,-0.19,-0.03,0.51,
0.565,1.21,-0.23,-0.28,-0.19,-0.02,0.51,
0.567,1.21,-0.23,-0.28,-0.18,-0.01,0.49,
0.57,1.37,-0.13,-0.11,-0.18,-0.01,0.49,
0.57,1.37,-0.13,-0.11,-0.17,0.01,0.49,
0.573,1.37,-0.13,-0.11,-0.16,0.03,0.47,
0.574,1.37,-0.13,-0.11,-0.16,0.03,0.46,
0.575,1.37,-0.13,-0.11,-0.15,0.05,0.45,
0.577,1.37,-0.13,-0.11,-0.15,0.06,0.44,
0.58,1.43,-0.06,-0.16,-0.15,0.06,0.44,
0.581,1.43,-0.06,-0.16,-0.15,0.07,0.42,
0.582,1.43,-0.06,-0.16,-0.15,0.07,0.41,
0.584,1.43,-0.06,-0.16,-0.15,0.07,0.40,
0.588,1.43,-0.06,-0.16,-0.15,0.07,0.38,
0.588,1.43,-0.06,-0.16,-0.15,0.07,0.37,
0.59,1.37,-0.02,-0.31,-0.15,0.07,0.37,
0.59,1.37,-0.02,-0.31,-0.15,0.06,0.35,
0.592,1.37,-0.02,-0.31,-0.16,0.04,0.33,
0.597,1.37,-0.02,-0.31,-0.16,0.03,0.32,
0.597,1.37,-0.02,-0.31,-0.16,0.01,0.30,
0.598,1.37,-0.02,-0.31,-0.17,-0.01,0.29,
0.6,1.26,-0.00,-0.57,-0.17,-0.01,0.29,
0.601,1.26,-0.00,-0.57,-0.18,-0.03,0.27,
0.61,1.26,-0.00,-0.57,-0.19,-0.05,0.25,
0.61,1.26,-0.00,-0.57,-0.19,-0.06,0.25,
0.611,1.26,-0.00,-0.57,-0.20,-0.08,0.23,
0.636,1.26,-0.00,-0.57,-0.21,-0.10,0.22,
0.637,1.07,0.06,-0.71,-0.21,-0.10,0.22,
0.637,1.07,0.06,-0.71,-0.22,-0.12,0.22,
0.637,1.07,0.06,-0.71,-0.23,-0.15,0.20,
0.638,1.07,0.06,-0.71,-0.24,-0.16,0.20,
0.638,1.07,0.06,-0.71,-0.24,-0.17,0.19,
0.639,1.07,0.06,-0.71,-0.25,-0.19,0.19,
0.639,0.99,0.11,-0.69,-0.25,-0.19,0.19,
0.64,0.99,0.11,-0.69,-0.26,-0.20,0.18,
0.64,0.99,0.11,-0.69,-0.27,-0.22,0.18,
0.64,0.99,0.11,-0.69,-0.27,-0.23,0.18,
0.641,0.99,0.11,-0.69,-0.27,-0.24,0.18,
0.641,0.99,0.11,-0.69,-0.27,-0.24,0.18,
0.642,0.91,0.01,-0.43,-0.27,-0.24,0.18,
0.642,0.91,0.01,-0.43,-0.27,-0.25,0.18,
0.642,0.91,0.01,-0.43,-0.27,-0.25,0.18,
0.643,0.91,0.01,-0.43,-0.27,-0.25,0.18,
0.643,0.91,0.01,-0.43,-0.27,-0.25,0.19,
0.644,0.91,0.01,-0.43,-0.26,-0.24,0.19,
0.644,0.80,-0.18,-0.12,-0.26,-0.24,0.19,
0.645,0.80,-0.18,-0.12,-0.26,-0.24,0.20,
0.645,0.80,-0.18,-0.12,-0.25,-0.23,0.20,
0.645,0.80,-0.18,-0.12,-0.25,-0.23,0.21,
0.646,0.80,-0.18,-0.12,-0.24,-0.22,0.21,
0.653,0.80,-0.18,-0.12,-0.23,-0.21,0.22,
0.653,0.80,-0.18,-0.12,-0.22,-0.20,0.23,
0.654,0.61,-0.26,0.12,-0.22,-0.20,0.23,
0.654,0.61,-0.26,0.12,-0.21,-0.19,0.23,
0.654,0.61,-0.26,0.12,-0.21,-0.18,0.24,
0.656,0.61,-0.26,0.12,-0.20,-0.17,0.24,
0.658,0.61,-0.26,0.12,-0.19,-0.17,0.24,
0.66,0.58,-0.28,0.22,-0.19,-0.17,0.24,
0.66,0.58,-0.28,0.22,-0.18,-0.16,0.25,
0.663,0.58,-0.28,0.22,-0.16,-0.16,0.25,
0.663,0.58,-0.28,0.22,-0.15,-0.16,0.25,
0.666,0.58,-0.28,0.22,-0.14,-0.16,0.25,
0.667,0.58,-0.28,0.22,-0.12,-0.16,0.25,
0.67,0.62,-0.16,0.37,-0.12,-0.16,0.25,
0.67,0.62,-0.16,0.37,-0.11,-0.16,0.25,
0.673,0.62,-0.16,0.37,-0.08,-0.16,0.25,
0.674,0.62,-0.16,0.37,-0.07,-0.16,0.24,
0.676,0.62,-0.16,0.37,-0.05,-0.16,0.24,
0.678,0.62,-0.16,0.37,-0.03,-0.16,0.24,
0.68,0.71,-0.06,0.35,-0.03,-0.16,0.24,
0.68,0.71,-0.06,0.35,-0.02,-0.16,0.23,
0.682,0.71,-0.06,0.35,0.01,-0.17,0.21,
0.684,0.71,-0.06,0.35,0.02,-0.17,0.21,
0.686,0.71,-0.06,0.35,0.04,-0.18,0.20,
0.689,0.71,-0.06,0.35,0.06,-0.18,0.19,
0.69,0.77,0.10,0.13,0.06,-0.18,0.19,
0.691,0.77,0.10,0.13,0.07,-0.19,0.18,
0.693,0.77,0.10,0.13,0.10,-0.19,0.16,
0.694,0.77,0.10,0.13,0.11,-0.20,0.16,
0.697,0.77,0.10,0.13,0.12,-0.21,0.14,
0.699,0.77,0.10,0.13,0.14,-0.22,0.13,
0.701,0.79,0.22,-0.28,0.14,-0.22,0.13,
0.701,0.79,0.22,-0.28,0.14,-0.22,0.12,
0.703,0.79,0.22,-0.28,0.16,-0.24,0.11,
0.704,0.79,0.22,-0.28,0.16,-0.25,0.11,
0.707,0.79,0.22,-0.28,0.15,-0.27,0.09,
0.709,0.79,0.22,-0.28,0.15,-0.28,0.09,
0.714,0.73,0.36,-0.89,0.15,-0.28,0.09,
0.714,0.73,0.36,-0.89,0.14,-0.31,0.07,
0.715,0.73,0.36,-0.89,0.12,-0.35,0.06,
0.715,0.73,0.36,-0.89,0.12,-0.36,0.06,
0.716,0.73,0.36,-0.89,0.10,-0.39,0.05,
0.718,0.73,0.36,-0.89,0.08,-0.41,0.03,
0.726,0.77,0.42,-1.43,0.08,-0.41,0.03,
0.726,0.77,0.42,-1.43,0.06,-0.44,0.02,
0.726,0.77,0.42,-1.43,0.02,-0.47,0.00,
0.727,0.77,0.42,-1.43,0.01,-0.48,-0.00,
0.727,0.77,0.42,-1.43,-0.01,-0.49,-0.01,
0.729,0.77,0.42,-1.43,-0.04,-0.50,-0.03,
0.731,0.77,0.47,-1.59,-0.04,-0.50,-0.03,
0.731,0.77,0.47,-1.59,-0.06,-0.51,-0.04,
0.733,0.77,0.47,-1.59,-0.10,-0.51,-0.06,
0.734,0.77,0.47,-1.59,-0.11,-0.51,-0.07,
0.755,0.77,0.47,-1.59,-0.14,-0.51,-0.08,
0.756,0.77,0.47,-1.59,-0.17,-0.50,-0.10,
0.756,0.81,0.46,-1.51,-0.17,-0.50,-0.10,
0.756,0.81,0.46,-1.51,-0.20,-0.49,-0.11,
0.756,0.81,0.46,-1.51,-0.24,-0.46,-0.13,
0.756,0.81,0.46,-1.51,-0.25,-0.45,-0.14,
0.757,0.81,0.46,-1.51,-0.28,-0.42,-0.15,
0.757,0.81,0.46,-1.51,-0.30,-0.40,-0.16,
0.757,0.78,0.36,-1.17,-0.30,-0.40,-0.16,
0.757,0.78,0.36,-1.17,-0.32,-0.37,-0.17,
0.757,0.78,0.36,-1.17,-0.36,-0.32,-0.19,
0.758,0.78,0.36,-1.17,-0.37,-0.31,-0.19,
0.758,0.78,0.36,-1.17,-0.39,-0.27,-0.20,
0.758,0.78,0.36,-1.17,-0.40,-0.24,-0.21,
0.763,0.75,0.20,-0.67,-0.40,-0.24,-0.21,
0.763,0.75,0.20,-0.67,-0.41,-0.20,-0.22,
0.764,0.75,0.20,-0.67,-0.43,-0.14,-0.23,
0.765,0.75,0.20,-0.67,-0.44,-0.12,-0.23,
0.767,0.75,0.20,-0.67,-0.44,-0.08,-0.23,
0.768,0.75,0.20,-0.67,-0.45,-0.04,-0.24,
0.77,0.69,0.12,-0.16,-0.45,-0.04,-0.24,
0.771,0.69,0.12,-0.16,-0.45,-0.01,-0.25,
0.773,0.69,0.12,-0.16,-0.45,0.04,-0.26,
0.791,0.69,0.12,-0.16,-0.44,0.05,-0.26,
0.791,0.69,0.12,-0.16,-0.44,0.08,-0.27,
0.792,0.69,0.12,-0.16,-0.43,0.10,-0.27,
0.792,0.76,0.19,0.24,-0.43,0.10,-0.27,
0.792,0.76,0.19,0.24,-0.42,0.11,-0.28,
0.792,0.76,0.19,0.24,-0.41,0.13,-0.30,
0.793,0.76,0.19,0.24,-0.40,0.13,-0.30,
0.793,0.76,0.19,0.24,-0.39,0.14,-0.31,
0.793,0.76,0.19,0.24,-0.37,0.13,-0.32,
0.794,0.70,0.35,0.35,-0.37,0.13,-0.32,
0.794,0.70,0.35,0.35,-0.36,0.12,-0.33,
0.794,0.70,0.35,0.35,-0.34,0.11,-0.35,
0.794,0.70,0.35,0.35,-0.33,0.10,-0.35,
0.799,0.70,0.35,0.35,-0.32,0.09,-0.36,
0.799,0.70,0.35,0.35,-0.30,0.08,-0.37,
0.806,0.58,0.50,0.24,-0.30,0.08,-0.37,
0.806,0.58,0.50,0.24,-0.29,0.06,-0.38,
0.806,0.58,0.50,0.24,-0.27,0.04,-0.40,
0.807,0.58,0.50,0.24,-0.26,0.03,-0.40,
0.809,0.58,0.50,0.24,-0.25,0.01,-0.41,
0.81,0.58,0.50,0.24,-0.24,-0.01,-0.42,
0.81,0.31,0.63,-0.10,-0.24,-0.01,-0.42,
0.81,0.31,0.63,-0.10,-0.23,-0.03,-0.42,
0.813,0.31,0.63,-0.10,-0.22,-0.06,-0.43,
0.816,0.31,0.63,-0.10,-0.22,-0.07,-0.43,
0.817,0.31,0.63,-0.10,-0.21,-0.10,-0.43,
0.818,0.31,0.63,-0.10,-0.21,-0.12,-0.43,
0.82,-0.01,0.77,-0.53,-0.21,-0.12,-0.43,
0.821,-0.01,0.77,-0.53,-0.21,-0.13,-0.44,
0.822,-0.01,0.77,-0.53,-0.21,-0.16,-0.44,
0.824,-0.01,0.77,-0.53,-0.21,-0.17,-0.44,
0.826,-0.01,0.77,-0.53,-0.21,-0.19,-0.44,
0.828,-0.01,0.77,-0.53,-0.21,-0.20,-0.44,
0.83,-0.23,0.80,-0.91,-0.21,-0.20,-0.44,
0.83,-0.23,0.80,-0.91,-0.21,-0.22,-0.43,
0.833,-0.23,0.80,-0.91,-0.22,-0.24,-0.43,
0.833,-0.23,0.80,-0.91,-0.23,-0.24,-0.42,
0.839,-0.23,0.80,-0.91,-0.23,-0.25,-0.41,
0.84,-0.23,0.80,-0.91,-0.24,-0.25,-0.41,
0.84,-0.50,0.89,-1.15,-0.24,-0.25,-0.41,
0.84,-0.50,0.89,-1.15,-0.25,-0.25,-0.40,
0.843,-0.50,0.89,-1.15,-0.26,-0.24,-0.38,
0.843,-0.50,0.89,-1.15,-0.27,-0.23,-0.37,
0.846,-0.50,0.89,-1.15,-0.28,-0.22,-0.36,
0.848,-0.50,0.89,-1.15,-0.29,-0.22,-0.35,
0.85,-0.59,1.03,-1.26,-0.29,-0.22,-0.35,
0.85,-0.59,1.03,-1.26,-0.30,-0.21,-0.34,
0.858,-0.59,1.03,-1.26,-0.32,-0.19,-0.32,
0.858,-0.59,1.03,-1.26,-0.33,-0.19,-0.32,
0.858,-0.59,1.03,-1.26,-0.34,-0.19,-0.31,
0.858,-0.59,1.03,-1.26,-0.36,-0.18,-0.30,
0.86,-0.47,1.02,-1.22,-0.36,-0.18,-0.30,
0.86,-0.47,1.02,-1.22,-0.37,-0.18,-0.28,
0.862,-0.47,1.02,-1.22,-0.39,-0.17,-0.26,
0.863,-0.47,1.02,-1.22,-0.40,-0.17,-0.25,
0.866,-0.47,1.02,-1.22,-0.42,-0.16,-0.23,
0.868,-0.47,1.02,-1.22,-0.43,-0.14,-0.21,
0.87,-0.53,0.88,-0.92,-0.43,-0.14,-0.21,
0.871,-0.53,0.88,-0.92,-0.45,-0.12,-0.19,
0.872,-0.53,0.88,-0.92,-0.47,-0.09,-0.15,
0.875,-0.53,0.88,-0.92,-0.48,-0.08,-0.13,
0.875,-0.53,0.88,-0.92,-0.49,-0.07,-0.10,
0.878,-0.53,0.88,-0.92,-0.50,-0.05,-0.07,
0.88,-0.92,0.72,-0.55,-0.50,-0.05,-0.07,
0.88,-0.92,0.72,-0.55,-0.51,-0.04,-0.03,
0.882,-0.92,0.72,-0.55,-0.53,-0.02,0.02,
0.884,-0.92,0.72,-0.55,-0.53,-0.02,0.04,
0.887,-0.92,0.72,-0.55,-0.54,-0.01,0.08,
0.891,-0.92,0.72,-0.55,-0.56,-0.01,0.13,
0.891,-1.25,0.67,-0.25,-0.56,-0.01,0.13,
0.891,-1.25,0.67,-0.25,-0.57,-0.00,0.16,
0.894,-1.25,0.67,-0.25,-0.59,-0.01,0.22,
0.894,-1.25,0.67,-0.25,-0.60,-0.02,0.24,
0.897,-1.25,0.67,-0.25,-0.61,-0.02,0.27,
0.897,-1.25,0.67,-0.25,-0.63,-0.03,0.30,
0.901,-1.33,0.88,0.00,-0.63,-0.03,0.30,
0.901,-1.33,0.88,0.00,-0.64,-0.04,0.32,
0.903,-1.33,0.88,0.00,-0.65,-0.04,0.36,
0.904,-1.33,0.88,0.00,-0.65,-0.05,0.37,
0.906,-1.33,0.88,0.00,-0.65,-0.04,0.39,
0.908,-1.33,0.88,0.00,-0.65,-0.04,0.40,
0.91,-0.86,1.21,0.55,-0.65,-0.04,0.40,
0.91,-0.86,1.21,0.55,-0.64,-0.03,0.41,
0.912,-0.86,1.21,0.55,-0.63,-0.04,0.42,
0.915,-0.86,1.21,0.55,-0.62,-0.04,0.42,
0.916,-0.86,1.21,0.55,-0.61,-0.06,0.41,
0.918,-0.86,1.21,0.55,-0.59,-0.08,0.40,
0.92,0.00,1.56,1.25,-0.59,-0.08,0.40,
0.921,0.00,1.56,1.25,-0.57,-0.11,0.38,
0.922,0.00,1.56,1.25,-0.53,-0.15,0.33,
0.923,0.00,1.56,1.25,-0.51,-0.16,0.32,
0.926,0.00,1.56,1.25,-0.48,-0.18,0.28,
0.927,0.00,1.56,1.25,-0.45,-0.20,0.24,
0.93,1.16,1.88,1.94,-0.45,-0.20,0.24,
0.93,1.16,1.88,1.94,-0.41,-0.22,0.19,
0.933,1.16,1.88,1.94,-0.36,-0.24,0.12,
0.935,1.16,1.88,1.94,-0.35,-0.24,0.10,
0.936,1.16,1.88,1.94,-0.31,-0.25,0.05,
0.938,1.16,1.88,1.94,-0.27,-0.26,-0.00,
0.941,1.76,2.07,2.41,-0.27,-0.26,-0.00,
0.964,1.76,2.07,2.41,-0.23,-0.26,-0.06,
0.964,1.76,2.07,2.41,-0.17,-0.24,-0.13,
0.965,1.76,2.07,2.41,-0.13,-0.23,-0.19,
0.965,1.76,2.07,2.41,-0.11,-0.22,-0.21,
0.965,1.76,2.07,2.41,-0.07,-0.20,-0.26,
0.966,1.69,2.15,2.76,-0.07,-0.20,-0.26,
0.966,1.69,2.15,2.76,-0.03,-0.17,-0.31,
0.966,1.69,2.15,2.76,0.03,-0.13,-0.38,
0.966,1.69,2.15,2.76,0.04,-0.12,-0.40,
0.967,1.69,2.15,2.76,0.08,-0.09,-0.44,
0.967,1.69,2.15,2.76,0.11,-0.06,-0.48,
0.967,1.38,1.98,2.74,0.11,-0.06,-0.48,
0.968,1.38,1.98,2.74,0.14,-0.03,-0.51,
0.968,1.38,1.98,2.74,0.18,0.01,-0.56,
0.968,1.38,1.98,2.74,0.19,0.03,-0.57,
0.968,1.38,1.98,2.74,0.21,0.06,-0.59,
0.969,1.38,1.98,2.74,0.23,0.10,-0.61,
0.973,0.73,1.65,2.28,0.23,0.10,-0.61,
0.974,0.73,1.65,2.28,0.25,0.14,-0.62,
0.974,0.73,1.65,2.28,0.26,0.19,-0.62,
0.974,0.73,1.65,2.28,0.26,0.21,-0.62,
0.976,0.73,1.65,2.28,0.27,0.24,-0.61,
0.977,0.73,1.65,2.28,0.27,0.27,-0.60,
0.98,-0.17,1.34,1.53,0.27,0.27,-0.60,
0.98,-0.17,1.34,1.53,0.28,0.29,-0.58,
0.984,-0.17,1.34,1.53,0.28,0.33,-0.54,
0.985,-0.17,1.34,1.53,0.28,0.34,-0.53,
0.987,-0.17,1.34,1.53,0.27,0.36,-0.51,
0.99,-0.17,1.34,1.53,0.28,0.38,-0.49,
0.991,-0.75,1.08,0.97,0.28,0.38,-0.49,
0.991,-0.75,1.08,0.97,0.27,0.40,-0.46,
0.993,-0.75,1.08,0.97,0.27,0.42,-0.43,
0.994,-0.75,1.08,0.97,0.26,0.43,-0.42,
0.995,-0.75,1.08,0.97,0.26,0.44,-0.40,
0.997,-0.75,1.08,0.97,0.28,0.45,-0.39,
1.006,-0.75,1.08,0.97,0.28,0.46,-0.37,
1.007,-0.74,1.09,0.69,0.28,0.46,-0.37,
1.007,-0.74,1.09,0.69,0.28,0.47,-0.36,
1.007,-0.74,1.09,0.69,0.28,0.46,-0.35,
1.007,-0.74,1.09,0.69,0.28,0.46,-0.35,
1.007,-0.74,1.09,0.69,0.31,0.45,-0.34,
1.014,-0.48,1.16,0.67,0.31,0.45,-0.34,
1.014,-0.48,1.16,0.67,0.32,0.44,-0.34,
1.014,-0.48,1.16,0.67,0.35,0.42,-0.35,
1.016,-0.48,1.16,0.67,0.36,0.41,-0.35,
1.016,-0.48,1.16,0.67,0.39,0.39,-0.36,
1.033,-0.48,1.16,0.67,0.41,0.37,-0.37,
1.033,-0.09,1.31,0.74,0.41,0.37,-0.37,
1.034,-0.09,1.31,0.74,0.43,0.35,-0.38,
1.035,-0.09,1.31,0.74,0.47,0.32,-0.40,
1.035,-0.09,1.31,0.74,0.48,0.31,-0.40,
1.035,-0.09,1.31,0.74,0.52,0.29,-0.41,
1.035,-0.09,1.31,0.74,0.55,0.27,-0.42,
1.035,0.07,1.32,0.67,0.55,0.27,-0.42,
1.036,0.07,1.32,0.67,0.57,0.25,-0.43,
1.036,0.07,1.32,0.67,0.61,0.22,-0.44,
1.036,0.07,1.32,0.67,0.62,0.21,-0.44,
1.036,0.07,1.32,0.67,0.65,0.19,-0.45,
1.038,0.07,1.32,0.67,0.67,0.17,-0.45,
1.04,-0.14,1.28,0.22,0.67,0.17,-0.45,
1.04,-0.14,1.28,0.22,0.68,0.14,-0.45,
1.043,-0.14,1.28,0.22,0.70,0.11,-0.45,
1.043,-0.14,1.28,0.22,0.71,0.10,-0.45,
1.046,-0.14,1.28,0.22,0.71,0.07,-0.45,
1.047,-0.14,1.28,0.22,0.71,0.05,-0.45,
1.051,-0.46,1.13,-0.55,0.71,0.05,-0.45,
1.052,-0.46,1.13,-0.55,0.71,0.02,-0.44,
1.054,-0.46,1.13,-0.55,0.70,-0.02,-0.43,
1.055,-0.46,1.13,-0.55,0.70,-0.03,-0.43,
1.056,-0.46,1.13,-0.55,0.69,-0.05,-0.42,
1.058,-0.46,1.13,-0.55,0.68,-0.08,-0.40,
1.06,-0.84,1.03,-1.17,0.68,-0.08,-0.40,
1.06,-0.84,1.03,-1.17,0.66,-0.10,-0.39,
1.063,-0.84,1.03,-1.17,0.65,-0.13,-0.37,
1.064,-0.84,1.03,-1.17,0.64,-0.14,-0.36,
1.066,-0.84,1.03,-1.17,0.63,-0.16,-0.35,
1.069,-0.84,1.03,-1.17,0.62,-0.18,-0.33,
1.072,-0.99,0.92,-1.24,0.62,-0.18,-0.33,
1.072,-0.99,0.92,-1.24,0.61,-0.20,-0.32,
1.073,-0.99,0.92,-1.24,0.59,-0.22,-0.30,
1.074,-0.99,0.92,-1.24,0.59,-0.23,-0.29,
1.076,-0.99,0.92,-1.24,0.58,-0.24,-0.28,
1.078,-0.99,0.92,-1.24,0.57,-0.25,-0.26,
1.08,-0.99,0.81,-1.10,0.57,-0.25,-0.26,
1.081,-0.99,0.81,-1.10,0.56,-0.25,-0.25,
1.083,-0.99,0.81,-1.10,0.55,-0.26,-0.23,
1.088,-0.99,0.81,-1.10,0.54,-0.26,-0.22,
1.089,-0.99,0.81,-1.10,0.54,-0.26,-0.21,
1.089,-0.99,0.81,-1.10,0.52,-0.26,-0.20,
1.09,-0.87,0.72,-0.88,0.52,-0.26,-0.20,
1.091,-0.87,0.72,-0.88,0.52,-0.27,-0.19,
1.093,-0.87,0.72,-0.88,0.50,-0.27,-0.17,
1.094,-0.87,0.72,-0.88,0.50,-0.26,-0.17,
1.096,-0.87,0.72,-0.88,0.50,-0.26,-0.15,
1.099,-0.87,0.72,-0.88,0.49,-0.26,-0.14,
1.11,-0.67,0.61,-0.61,0.49,-0.26,-0.14,
1.111,-0.67,0.61,-0.61,0.49,-0.26,-0.13,
1.111,-0.67,0.61,-0.61,0.48,-0.26,-0.12,
1.111,-0.67,0.61,-0.61,0.48,-0.26,-0.12,
1.112,-0.67,0.61,-0.61,0.47,-0.25,-0.11,
1.13,-0.67,0.61,-0.61,0.47,-0.25,-0.11,
1.131,-0.36,0.50,-0.30,0.47,-0.25,-0.11,
1.131,-0.36,0.50,-0.30,0.46,-0.25,-0.10,
1.131,-0.36,0.50,-0.30,0.45,-0.25,-0.11,
1.132,-0.36,0.50,-0.30,0.45,-0.25,-0.11,
1.132,-0.36,0.50,-0.30,0.44,-0.25,-0.11,
1.132,-0.36,0.50,-0.30,0.44,-0.25,-0.12,
1.132,-0.05,0.43,-0.14,0.44,-0.25,-0.12,
1.133,-0.05,0.43,-0.14,0.44,-0.25,-0.12,
1.133,-0.05,0.43,-0.14,0.43,-0.25,-0.12,
1.133,-0.05,0.43,-0.14,0.43,-0.25,-0.13,
1.134,-0.05,0.43,-0.14,0.43,-0.24,-0.13,
1.134,-0.05,0.43,-0.14,0.42,-0.24,-0.14,
1.134,0.04,0.35,0.11,0.42,-0.24,-0.14,
1.134,0.04,0.35,0.11,0.42,-0.24,-0.14,
1.135,0.04,0.35,0.11,0.41,-0.24,-0.15,
1.135,0.04,0.35,0.11,0.41,-0.24,-0.15,
1.141,0.04,0.35,0.11,0.40,-0.23,-0.15,
1.141,0.04,0.35,0.11,0.39,-0.23,-0.15,
1.142,-0.00,0.25,0.15,0.39,-0.23,-0.15,
1.143,-0.00,0.25,0.15,0.38,-0.23,-0.16,
1.144,-0.00,0.25,0.15,0.36,-0.23,-0.16,
1.144,-0.00,0.25,0.15,0.36,-0.23,-0.16,
1.146,-0.00,0.25,0.15,0.34,-0.22,-0.16,
1.148,-0.00,0.25,0.15,0.33,-0.22,-0.16,
1.153,-0.10,0.12,0.07,0.33,-0.22,-0.16,
1.154,-0.10,0.12,0.07,0.31,-0.22,-0.16,
1.154,-0.10,0.12,0.07,0.29,-0.22,-0.15,
1.154,-0.10,0.12,0.07,0.28,-0.22,-0.15,
1.156,-0.10,0.12,0.07,0.26,-0.21,-0.14,
1.157,-0.10,0.12,0.07,0.24,-0.20,-0.13,
1.16,-0.25,-0.02,0.06,0.24,-0.20,-0.13,
1.16,-0.25,-0.02,0.06,0.21,-0.19,-0.13,
1.163,-0.25,-0.02,0.06,0.18,-0.17,-0.12,
1.165,-0.25,-0.02,0.06,0.17,-0.16,-0.11,
1.168,-0.25,-0.02,0.06,0.14,-0.15,-0.11,
1.17,-0.25,-0.02,0.06,0.11,-0.14,-0.11,
1.17,-0.26,-0.05,0.09,0.11,-0.14,-0.11,
1.17,-0.26,-0.05,0.09,0.08,-0.13,-0.10,
1.173,-0.26,-0.05,0.09,0.03,-0.10,-0.11,
1.174,-0.26,-0.05,0.09,0.01,-0.09,-0.11,
1.176,-0.26,-0.05,0.09,-0.02,-0.08,-0.11,
1.177,-0.26,-0.05,0.09,-0.06,-0.06,-0.12,
1.181,0.14,-0.03,0.23,-0.06,-0.06,-0.12,
1.181,0.14,-0.03,0.23,-0.10,-0.06,-0.13,
1.184,0.14,-0.03,0.23,-0.16,-0.05,-0.15,
1.185,0.14,-0.03,0.23,-0.19,-0.04,-0.16,
1.188,0.14,-0.03,0.23,-0.23,-0.04,-0.17,
1.188,0.14,-0.03,0.23,-0.26,-0.03,-0.19,
1.19,0.42,-0.01,0.61,-0.26,-0.03,-0.19,
1.19,0.42,-0.01,0.61,-0.30,-0.03,-0.20,
1.193,0.42,-0.01,0.61,-0.36,-0.03,-0.22,
1.195,0.42,-0.01,0.61,-0.41,-0.04,-0.24,
1.196,0.42,-0.01,0.61,-0.43,-0.04,-0.24,
1.2,0.42,-0.01,0.61,-0.47,-0.04,-0.26,
1.201,0.46,-0.00,1.07,-0.47,-0.04,-0.26,
1.201,0.46,-0.00,1.07,-0.51,-0.05,-0.27,
1.202,0.46,-0.00,1.07,-0.57,-0.05,-0.29,
1.203,0.46,-0.00,1.07,-0.61,-0.05,-0.31,
1.208,0.46,-0.00,1.07,-0.64,-0.05,-0.31,
1.208,0.46,-0.00,1.07,-0.67,-0.04,-0.32,
1.21,0.30,-0.13,1.61,-0.67,-0.04,-0.32,
1.21,0.30,-0.13,1.61,-0.71,-0.04,-0.33,
1.212,0.30,-0.13,1.61,-0.77,-0.03,-0.35,
1.214,0.30,-0.13,1.61,-0.81,-0.02,-0.35,
1.215,0.30,-0.13,1.61,-0.82,-0.01,-0.35,
1.218,0.30,-0.13,1.61,-0.85,0.00,-0.35,
1.22,0.03,-0.37,2.34,-0.85,0.00,-0.35,
1.22,0.03,-0.37,2.34,-0.89,0.02,-0.36,
1.222,0.03,-0.37,2.34,-0.93,0.05,-0.36,
1.223,0.03,-0.37,2.34,-0.95,0.07,-0.36,
1.225,0.03,-0.37,2.34,-0.96,0.09,-0.36,
1.227,0.03,-0.37,2.34,-0.98,0.11,-0.36,
1.23,-0.19,-0.61,3.31,-0.98,0.11,-0.36,
1.23,-0.19,-0.61,3.31,-1.00,0.14,-0.36,
1.235,-0.19,-0.61,3.31,-1.00,0.18,-0.36,
1.236,-0.19,-0.61,3.31,-1.00,0.21,-0.35,
1.236,-0.19,-0.61,3.31,-1.00,0.22,-0.35,
1.238,-0.19,-0.61,3.31,-1.00,0.24,-0.35,
1.246,-0.40,-0.89,4.36,-1.00,0.24,-0.35,
1.246,-0.40,-0.89,4.36,-0.99,0.27,-0.34,
1.246,-0.40,-0.89,4.36,-0.97,0.31,-0.33,
1.246,-0.40,-0.89,4.36,-0.94,0.33,-0.32,
1.246,-0.40,-0.89,4.36,-0.93,0.34,-0.32,
1.248,-0.40,-0.89,4.36,-0.91,0.36,-0.31,
1.257,-0.73,-1.08,5.19,-0.91,0.36,-0.31,
1.257,-0.73,-1.08,5.19,-0.88,0.37,-0.30,
1.257,-0.73,-1.08,5.19,-0.83,0.39,-0.28,
1.257,-0.73,-1.08,5.19,-0.80,0.39,-0.26,
1.258,-0.73,-1.08,5.19,-0.78,0.39,-0.26,
1.258,-0.73,-1.08,5.19,-0.75,0.40,-0.25,
1.26,-1.13,-1.21,5.59,-0.75,0.40,-0.25,
1.26,-1.13,-1.21,5.59,-0.71,0.39,-0.24,
1.262,-1.13,-1.21,5.59,-0.66,0.39,-0.22,
1.263,-1.13,-1.21,5.59,-0.62,0.38,-0.21,
1.267,-1.13,-1.21,5.59,-0.60,0.38,-0.20,
1.268,-1.13,-1.21,5.59,-0.57,0.37,-0.19,
1.271,-1.30,-1.16,5.56,-0.57,0.37,-0.19,
1.272,-1.30,-1.16,5.56,-0.53,0.36,-0.18,
1.273,-1.30,-1.16,5.56,-0.47,0.35,-0.16,
1.298,-1.30,-1.16,5.56,-0.43,0.33,-0.15,
1.298,-1.30,-1.16,5.56,-0.42,0.33,-0.15,
1.299,-1.30,-1.16,5.56,-0.34,0.31,-0.13,
1.299,-1.30,-1.16,5.56,-0.34,0.31,-0.13,
1.3,-1.60,-1.19,5.15,-0.34,0.31,-0.13,
1.3,-1.60,-1.19,5.15,-0.29,0.30,-0.11,
1.3,-1.60,-1.19,5.15,-0.26,0.29,-0.10,
1.301,-1.60,-1.19,5.15,-0.24,0.29,-0.10,
1.301,-1.60,-1.19,5.15,-0.20,0.28,-0.08,
1.302,-1.75,-1.12,4.66,-0.20,0.28,-0.08,
1.302,-1.75,-1.12,4.66,-0.17,0.27,-0.07,
1.302,-1.75,-1.12,4.66,-0.13,0.27,-0.05,
1.303,-1.75,-1.12,4.66,-0.11,0.26,-0.04,
1.303,-1.75,-1.12,4.66,-0.10,0.26,-0.04,
1.304,-1.75,-1.12,4.66,-0.08,0.26,-0.03,
1.304,-1.95,-1.11,3.99,-0.08,0.26,-0.03,
1.305,-1.95,-1.11,3.99,-0.06,0.25,-0.02,
1.305,-1.95,-1.11,3.99,-0.03,0.25,-0.00,
1.306,-1.95,-1.11,3.99,-0.01,0.25,0.01,
1.306,-1.95,-1.11,3.99,-0.01,0.24,0.01,
1.314,-1.95,-1.11,3.99,0.01,0.24,0.02,
1.315,-2.04,-1.00,3.41,0.01,0.24,0.02,
1.315,-2.04,-1.00,3.41,0.02,0.24,0.03,
1.316,-2.04,-1.00,3.41,0.03,0.23,0.04,
1.316,-2.04,-1.00,3.41,0.03,0.23,0.06,
1.316,-2.04,-1.00,3.41,0.04,0.22,0.06,
1.321,-2.04,-1.00,3.41,0.05,0.22,0.07,
1.324,-2.21,-1.05,3.02,0.05,0.22,0.07,
1.324,-2.21,-1.05,3.02,0.06,0.22,0.08,
1.325,-2.21,-1.05,3.02,0.07,0.23,0.10,
1.325,-2.21,-1.05,3.02,0.07,0.23,0.11,
1.326,-2.21,-1.05,3.02,0.08,0.24,0.11,
1.328,-2.21,-1.05,3.02,0.09,0.24,0.13,
1.33,-2.31,-1.08,2.83,0.09,0.24,0.13,
1.33,-2.31,-1.08,2.83,0.10,0.25,0.14,
1.333,-2.31,-1.08,2.83,0.12,0.27,0.16,
1.334,-2.31,-1.08,2.83,0.14,0.28,0.17,
1.336,-2.31,-1.08,2.83,0.15,0.28,0.18,
1.338,-2.31,-1.08,2.83,0.16,0.29,0.20,
1.34,-2.48,-1.14,2.82,0.16,0.29,0.20,
1.34,-2.48,-1.14,2.82,0.17,0.31,0.21,
1.343,-2.48,-1.14,2.82,0.20,0.32,0.24,
1.343,-2.48,-1.14,2.82,0.22,0.33,0.26,
1.345,-2.48,-1.14,2.82,0.23,0.34,0.26,
1.347,-2.48,-1.14,2.82,0.25,0.34,0.28,
1.352,-2.48,-1.14,2.82,0.28,0.35,0.31,
1.352,-2.64,-1.20,2.70,0.28,0.35,0.31,
1.353,-2.64,-1.20,2.70,0.30,0.36,0.33,
1.354,-2.64,-1.20,2.70,0.32,0.36,0.34,
1.356,-2.64,-1.20,2.70,0.33,0.37,0.35,
1.358,-2.64,-1.20,2.70,0.35,0.37,0.37,
1.36,-2.74,-1.29,2.53,0.35,0.37,0.37,
1.36,-2.74,-1.29,2.53,0.38,0.37,0.39,
1.363,-2.74,-1.29,2.53,0.40,0.37,0.41,
1.364,-2.74,-1.29,2.53,0.41,0.37,0.43,
1.374,-2.74,-1.29,2.53,0.42,0.37,0.44,
1.375,-2.74,-1.29,2.53,0.43,0.37,0.45,
1.375,-2.68,-1.32,2.10,0.43,0.37,0.45,
1.376,-2.68,-1.32,2.10,0.44,0.36,0.47,
1.376,-2.68,-1.32,2.10,0.46,0.36,0.49,
1.376,-2.68,-1.32,2.10,0.47,0.35,0.50,
1.377,-2.68,-1.32,2.10,0.47,0.35,0.51,
1.403,-2.68,-1.32,2.10,0.48,0.34,0.53,
1.403,-2.76,-1.30,1.72,0.48,0.34,0.53,
1.403,-2.76,-1.30,1.72,0.49,0.34,0.54,
1.403,-2.76,-1.30,1.72,0.50,0.32,0.57,
1.404,-2.76,-1.30,1.72,0.50,0.32,0.58,
1.404,-2.76,-1.30,1.72,0.51,0.31,0.59,
1.404,-2.76,-1.30,1.72,0.51,0.30,0.60,
1.404,-2.62,-1.28,1.41,0.51,0.30,0.60,
1.404,-2.62,-1.28,1.41,0.51,0.30,0.61,
1.405,-2.62,-1.28,1.41,0.51,0.30,0.64,
1.405,-2.62,-1.28,1.41,0.51,0.30,0.65,
1.405,-2.62,-1.28,1.41,0.51,0.30,0.66,
1.405,-2.62,-1.28,1.41,0.51,0.31,0.67,
1.405,-2.58,-1.23,1.09,0.51,0.31,0.67,
1.405,-2.58,-1.23,1.09,0.50,0.31,0.69,
1.406,-2.58,-1.23,1.09,0.49,0.31,0.71,
1.406,-2.58,-1.23,1.09,0.49,0.31,0.71,
1.406,-2.58,-1.23,1.09,0.48,0.31,0.73,
1.407,-2.58,-1.23,1.09,0.47,0.32,0.74,
1.409,-2.27,-1.22,0.80,0.47,0.32,0.74,
1.41,-2.27,-1.22,0.80,0.47,0.33,0.75,
1.412,-2.27,-1.22,0.80,0.46,0.34,0.77,
1.414,-2.27,-1.22,0.80,0.45,0.35,0.78,
1.417,-2.27,-1.22,0.80,0.45,0.36,0.78,
1.418,-2.27,-1.22,0.80,0.44,0.37,0.79,
1.421,-1.92,-1.26,0.61,0.44,0.37,0.79,
1.421,-1.92,-1.26,0.61,0.43,0.37,0.80,
1.423,-1.92,-1.26,0.61,0.42,0.38,0.80,
1.424,-1.92,-1.26,0.61,0.42,0.38,0.80,
1.426,-1.92,-1.26,0.61,0.42,0.38,0.80,
1.428,-1.92,-1.26,0.61,0.42,0.38,0.80,
1.43,-1.46,-1.21,0.61,0.42,0.38,0.80,
1.431,-1.46,-1.21,0.61,0.42,0.38,0.80,
1.434,-1.46,-1.21,0.61,0.42,0.39,0.79,
1.434,-1.46,-1.21,0.61,0.42,0.39,0.79,
1.436,-1.46,-1.21,0.61,0.43,0.39,0.79,
1.438,-1.46,-1.21,0.61,0.44,0.40,0.78,
1.44,-1.16,-1.17,0.64,0.44,0.40,0.78,
1.463,-1.16,-1.17,0.64,0.45,0.41,0.77,
1.463,-1.16,-1.17,0.64,0.46,0.43,0.76,
1.463,-1.16,-1.17,0.64,0.47,0.43,0.76,
1.464,-1.16,-1.17,0.64,0.48,0.45,0.75,
1.464,-1.16,-1.17,0.64,0.49,0.46,0.74,
1.464,-0.98,-1.18,0.48,0.49,0.46,0.74,
1.464,-0.98,-1.18,0.48,0.50,0.47,0.74,
1.465,-0.98,-1.18,0.48,0.50,0.49,0.74,
1.465,-0.98,-1.18,0.48,0.51,0.50,0.74,
1.465,-0.98,-1.18,0.48,0.52,0.52,0.74,
1.465,-0.98,-1.18,0.48,0.53,0.53,0.75,
1.465,-1.18,-1.31,0.02,0.53,0.53,0.75,
1.465,-1.18,-1.31,0.02,0.54,0.55,0.75,
1.466,-1.18,-1.31,0.02,0.54,0.56,0.75,
1.466,-1.18,-1.31,0.02,0.55,0.58,0.76,
1.47,-1.18,-1.31,0.02,0.56,0.59,0.76,
1.47,-1.18,-1.31,0.02,0.56,0.60,0.76,
1.472,-1.17,-1.34,-0.50,0.56,0.60,0.76,
1.472,-1.17,-1.34,-0.50,0.57,0.61,0.76,
1.473,-1.17,-1.34,-0.50,0.57,0.62,0.76,
1.474,-1.17,-1.34,-0.50,0.57,0.63,0.76,
1.476,-1.17,-1.34,-0.50,0.58,0.64,0.76,
1.478,-1.17,-1.34,-0.50,0.59,0.65,0.76,
1.48,-1.13,-1.46,-1.02,0.59,0.65,0.76,
1.48,-1.13,-1.46,-1.02,0.59,0.66,0.76,
1.483,-1.13,-1.46,-1.02,0.60,0.68,0.76,
1.484,-1.13,-1.46,-1.02,0.60,0.68,0.76,
1.486,-1.13,-1.46,-1.02,0.60,0.69,0.76,
1.488,-1.13,-1.46,-1.02,0.60,0.70,0.76,
1.49,-1.12,-1.43,-1.67,0.60,0.70,0.76,
1.49,-1.12,-1.43,-1.67,0.60,0.71,0.77,
1.492,-1.12,-1.43,-1.67,0.59,0.72,0.77,
1.493,-1.12,-1.43,-1.67,0.58,0.73,0.78,
1.496,-1.12,-1.43,-1.67,0.58,0.74,0.78,
1.498,-1.12,-1.43,-1.67,0.56,0.74,0.79,
1.5,-1.25,-1.48,-2.49,0.56,0.74,0.79,
1.5,-1.25,-1.48,-2.49,0.55,0.74,0.79,
1.503,-1.25,-1.48,-2.49,0.53,0.74,0.79,
1.503,-1.25,-1.48,-2.49,0.52,0.74,0.80,
1.506,-1.25,-1.48,-2.49,0.49,0.73,0.80,
1.508,-1.25,-1.48,-2.49,0.48,0.73,0.80,
1.51,-1.07,-1.47,-3.21,0.48,0.73,0.80,
1.51,-1.07,-1.47,-3.21,0.46,0.72,0.80,
1.513,-1.07,-1.47,-3.21,0.42,0.71,0.80,
1.522,-1.07,-1.47,-3.21,0.41,0.71,0.80,
1.522,-1.07,-1.47,-3.21,0.38,0.70,0.79,
1.523,-1.07,-1.47,-3.21,0.36,0.70,0.79,
1.523,-0.86,-1.42,-3.64,0.36,0.70,0.79,
1.523,-0.86,-1.42,-3.64,0.34,0.69,0.78,
1.523,-0.86,-1.42,-3.64,0.32,0.68,0.78,
1.524,-0.86,-1.42,-3.64,0.30,0.67,0.77,
1.526,-0.86,-1.42,-3.64,0.28,0.67,0.76,
1.528,-0.86,-1.42,-3.64,0.26,0.66,0.75,
1.53,-0.57,-1.39,-3.66,0.26,0.66,0.75,
1.53,-0.57,-1.39,-3.66,0.24,0.65,0.74,
1.558,-0.57,-1.39,-3.66,0.22,0.65,0.73,
1.558,-0.57,-1.39,-3.66,0.21,0.64,0.73,
1.558,-0.57,-1.39,-3.66,0.19,0.64,0.72,
1.559,-0.57,-1.39,-3.66,0.18,0.64,0.72,
1.559,-0.54,-1.46,-3.51,0.18,0.64,0.72,
1.559,-0.54,-1.46,-3.51,0.17,0.63,0.71,
1.559,-0.54,-1.46,-3.51,0.15,0.63,0.71,
1.56,-0.54,-1.46,-3.51,0.14,0.63,0.71,
1.56,-0.54,-1.46,-3.51,0.13,0.62,0.71,
1.56,-0.54,-1.46,-3.51,0.12,0.62,0.70,
1.56,-0.55,-1.55,-3.23,0.12,0.62,0.70,
1.56,-0.55,-1.55,-3.23,0.12,0.62,0.71,
1.561,-0.55,-1.55,-3.23,0.12,0.62,0.71,
1.561,-0.55,-1.55,-3.23,0.11,0.62,0.72,
1.561,-0.55,-1.55,-3.23,0.11,0.62,0.72,
1.561,-0.55,-1.55,-3.23,0.11,0.63,0.73,
1.562,-0.63,-1.66,-2.88,0.11,0.63,0.73,
1.562,-0.63,-1.66,-2.88,0.11,0.63,0.74,
1.562,-0.63,-1.66,-2.88,0.11,0.64,0.75,
1.563,-0.63,-1.66,-2.88,0.11,0.64,0.75,
1.566,-0.63,-1.66,-2.88,0.11,0.65,0.76,
1.568,-0.63,-1.66,-2.88,0.12,0.65,0.77,
1.57,-0.60,-1.65,-2.70,0.12,0.65,0.77,
1.57,-0.60,-1.65,-2.70,0.13,0.65,0.78,
1.573,-0.60,-1.65,-2.70,0.12,0.66,0.79,
1.574,-0.60,-1.65,-2.70,0.12,0.66,0.79,
1.576,-0.60,-1.65,-2.70,0.12,0.66,0.81,
1.578,-0.60,-1.65,-2.70,0.13,0.66,0.82,
1.58,-0.53,-1.69,-2.63,0.13,0.66,0.82,
1.581,-0.53,-1.69,-2.63,0.13,0.66,0.83,
1.586,-0.53,-1.69,-2.63,0.12,0.66,0.84,
1.588,-0.53,-1.69,-2.63,0.12,0.66,0.85,
1.589,-0.53,-1.69,-2.63,0.12,0.66,0.86,
1.591,-0.53,-1.69,-2.63,0.12,0.66,0.87,
1.592,-0.37,-1.63,-2.58,0.12,0.66,0.87,
1.593,-0.37,-1.63,-2.58,0.12,0.66,0.88,
1.594,-0.37,-1.63,-2.58,0.12,0.65,0.89,
1.594,-0.37,-1.63,-2.58,0.12,0.65,0.89,
1.595,-0.37,-1.63,-2.58,0.12,0.65,0.90,
1.599,-0.37,-1.63,-2.58,0.12,0.66,0.90,
1.6,-0.15,-1.48,-2.47,0.12,0.66,0.90,
1.601,-0.15,-1.48,-2.47,0.12,0.66,0.90,
1.603,-0.15,-1.48,-2.47,0.12,0.66,0.90,
1.603,-0.15,-1.48,-2.47,0.12,0.66,0.90,
1.606,-0.15,-1.48,-2.47,0.11,0.65,0.90,
1.629,-0.15,-1.48,-2.47,0.10,0.65,0.90,
1.63,0.02,-1.37,-2.54,0.10,0.65,0.90,
1.63,0.02,-1.37,-2.54,0.10,0.64,0.90,
1.63,0.02,-1.37,-2.54,0.09,0.63,0.90,
1.63,0.02,-1.37,-2.54,0.08,0.61,0.89,
1.63,0.02,-1.37,-2.54,0.07,0.60,0.89,
1.63,0.02,-1.37,-2.54,0.07,0.58,0.88,
1.631,0.21,-1.27,-2.51,0.07,0.58,0.88,
1.631,0.21,-1.27,-2.51,0.06,0.55,0.88,
1.631,0.21,-1.27,-2.51,0.05,0.52,0.87,
1.631,0.21,-1.27,-2.51,0.04,0.51,0.86,
1.631,0.21,-1.27,-2.51,0.03,0.49,0.86,
1.631,0.21,-1.27,-2.51,0.02,0.46,0.86,
1.631,0.34,-1.20,-2.31,0.02,0.46,0.86,
1.632,0.34,-1.20,-2.31,0.02,0.44,0.85,
1.635,0.34,-1.20,-2.31,0.01,0.42,0.85,
1.635,0.34,-1.20,-2.31,0.00,0.39,0.85,
1.636,0.34,-1.20,-2.31,-0.00,0.37,0.84,
1.638,0.34,-1.20,-2.31,-0.01,0.35,0.84,
1.64,0.39,-1.20,-2.00,-0.01,0.35,0.84,
1.64,0.39,-1.20,-2.00,-0.01,0.34,0.83,
1.643,0.39,-1.20,-2.00,-0.02,0.31,0.83,
1.643,0.39,-1.20,-2.00,-0.03,0.30,0.83,
1.645,0.39,-1.20,-2.00,-0.03,0.28,0.83,
1.648,0.39,-1.20,-2.00,-0.03,0.26,0.84,
1.652,0.43,-1.17,-1.56,-0.03,0.26,0.84,
1.652,0.43,-1.17,-1.56,-0.03,0.24,0.84,
1.652,0.43,-1.17,-1.56,-0.03,0.23,0.84,
1.658,0.43,-1.17,-1.56,-0.04,0.22,0.84,
1.658,0.43,-1.17,-1.56,-0.03,0.20,0.85,
1.658,0.43,-1.17,-1.56,-0.04,0.19,0.85,
1.66,0.52,-1.11,-1.08,-0.04,0.19,0.85,
1.66,0.52,-1.11,-1.08,-0.04,0.19,0.85,
1.663,0.52,-1.11,-1.08,-0.04,0.17,0.85,
1.668,0.52,-1.11,-1.08,-0.04,0.17,0.85,
1.669,0.52,-1.11,-1.08,-0.03,0.16,0.85,
1.669,0.52,-1.11,-1.08,-0.03,0.15,0.85,
1.67,0.66,-1.02,-0.58,-0.03,0.15,0.85,
1.67,0.66,-1.02,-0.58,-0.03,0.14,0.85,
1.673,0.66,-1.02,-0.58,-0.02,0.13,0.85,
1.699,0.66,-1.02,-0.58,-0.02,0.13,0.85,
1.699,0.66,-1.02,-0.58,-0.02,0.13,0.85,
1.699,0.66,-1.02,-0.58,-0.02,0.14,0.86,
1.7,0.79,-0.94,-0.07,-0.02,0.14,0.86,
1.7,0.79,-0.94,-0.07,-0.01,0.14,0.86,
1.7,0.79,-0.94,-0.07,-0.00,0.15,0.87,
1.7,0.79,-0.94,-0.07,-0.00,0.15,0.87,
1.7,0.79,-0.94,-0.07,-0.01,0.16,0.87,
1.7,0.79,-0.94,-0.07,-0.01,0.16,0.88,
1.7,0.81,-0.84,0.32,-0.01,0.16,0.88,
1.701,0.81,-0.84,0.32,-0.00,0.16,0.89,
1.701,0.81,-0.84,0.32,-0.01,0.15,0.90,
1.701,0.81,-0.84,0.32,0.00,0.15,0.90,
1.701,0.81,-0.84,0.32,0.00,0.16,0.91,
1.701,0.81,-0.84,0.32,-0.01,0.16,0.91,
1.701,1.00,-0.74,0.57,-0.01,0.16,0.91,
1.701,1.00,-0.74,0.57,-0.02,0.16,0.91,
1.703,1.00,-0.74,0.57,-0.01,0.16,0.92,
1.704,1.00,-0.74,0.57,-0.02,0.16,0.92,
1.706,1.00,-0.74,0.57,-0.04,0.16,0.92,
1.708,1.00,-0.74,0.57,-0.05,0.16,0.92,
1.71,1.15,-0.54,0.76,-0.05,0.16,0.92,
1.71,1.15,-0.54,0.76,-0.06,0.16,0.92,
1.712,1.15,-0.54,0.76,-0.09,0.15,0.92,
1.716,1.15,-0.54,0.76,-0.09,0.15,0.92,
1.717,1.15,-0.54,0.76,-0.10,0.14,0.91,
1.718,1.15,-0.54,0.76,-0.12,0.14,0.91,
1.72,1.41,-0.36,0.85,-0.12,0.14,0.91,
1.72,1.41,-0.36,0.85,-0.14,0.14,0.90,
1.722,1.41,-0.36,0.85,-0.16,0.13,0.89,
1.723,1.41,-0.36,0.85,-0.17,0.12,0.89,
1.725,1.41,-0.36,0.85,-0.19,0.11,0.88,
1.728,1.41,-0.36,0.85,-0.21,0.10,0.87,
1.73,1.57,-0.19,1.04,-0.21,0.10,0.87,
1.73,1.57,-0.19,1.04,-0.23,0.09,0.86,
1.733,1.57,-0.19,1.04,-0.26,0.08,0.86,
1.735,1.57,-0.19,1.04,-0.27,0.08,0.85,
1.736,1.57,-0.19,1.04,-0.28,0.06,0.85,
1.738,1.57,-0.19,1.04,-0.30,0.05,0.85,
1.74,1.54,-0.14,1.41,-0.30,0.05,0.85,
1.741,1.54,-0.14,1.41,-0.32,0.04,0.85,
1.742,1.54,-0.14,1.41,-0.34,0.02,0.85,
1.744,1.54,-0.14,1.41,-0.35,0.02,0.85,
1.746,1.54,-0.14,1.41,-0.36,0.01,0.86,
1.748,1.54,-0.14,1.41,-0.37,0.00,0.86,
1.753,1.40,-0.06,2.00,-0.37,0.00,0.86,
1.754,1.40,-0.06,2.00,-0.38,0.00,0.87,
1.754,1.40,-0.06,2.00,-0.39,0.00,0.88,
1.756,1.40,-0.06,2.00,-0.39,0.00,0.88,
1.756,1.40,-0.06,2.00,-0.40,0.01,0.89,
1.758,1.40,-0.06,2.00,-0.40,0.02,0.90,
1.76,1.44,-0.01,2.71,-0.40,0.02,0.90,
1.76,1.44,-0.01,2.71,-0.39,0.03,0.91,
1.763,1.44,-0.01,2.71,-0.39,0.06,0.92,
1.764,1.44,-0.01,2.71,-0.39,0.08,0.92,
1.766,1.44,-0.01,2.71,-0.39,0.11,0.93,
1.768,1.44,-0.01,2.71,-0.38,0.14,0.94,
1.77,1.45,0.03,3.29,-0.38,0.14,0.94,
1.77,1.45,0.03,3.29,-0.38,0.18,0.95,
1.773,1.45,0.03,3.29,-0.38,0.24,0.97,
1.799,1.45,0.03,3.29,-0.38,0.27,0.98,
1.8,1.45,0.03,3.29,-0.38,0.31,0.99,
1.8,1.45,0.03,3.29,-0.38,0.37,1.01,
1.801,1.60,0.09,3.57,-0.38,0.37,1.01,
1.801,1.60,0.09,3.57,-0.39,0.42,1.02,
1.802,1.60,0.09,3.57,-0.40,0.51,1.04,
1.802,1.60,0.09,3.57,-0.41,0.54,1.04,
1.802,1.60,0.09,3.57,-0.42,0.60,1.05,
1.803,1.60,0.09,3.57,-0.44,0.66,1.05,
1.803,1.95,0.21,3.52,-0.44,0.66,1.05,
1.804,1.95,0.21,3.52,-0.46,0.73,1.05,
1.804,1.95,0.21,3.52,-0.49,0.82,1.06,
1.804,1.95,0.21,3.52,-0.51,0.85,1.06,
1.805,1.95,0.21,3.52,-0.53,0.92,1.05,
1.805,1.95,0.21,3.52,-0.56,0.99,1.05,
1.806,2.48,0.38,3.45,-0.56,0.99,1.05,
1.806,2.48,0.38,3.45,-0.58,1.06,1.04,
1.806,2.48,0.38,3.45,-0.61,1.17,1.02,
1.807,2.48,0.38,3.45,-0.63,1.21,1.01,
1.807,2.48,0.38,3.45,-0.65,1.28,1.00,
1.808,2.48,0.38,3.45,-0.67,1.36,0.99,
1.823,2.55,0.60,3.34,-0.67,1.36,0.99,
1.824,2.55,0.60,3.34,-0.69,1.44,0.98,
1.824,2.55,0.60,3.34,-0.73,1.54,0.96,
1.824,2.55,0.60,3.34,-0.74,1.57,0.95,
1.824,2.55,0.60,3.34,-0.75,1.64,0.94,
1.825,2.55,0.60,3.34,-0.78,1.69,0.92,
1.825,2.31,0.82,3.11,-0.78,1.69,0.92,
1.825,2.31,0.82,3.11,-0.80,1.75,0.91,
1.825,2.31,0.82,3.11,-0.84,1.81,0.90,
1.825,2.31,0.82,3.11,-0.85,1.83,0.89,
1.826,2.31,0.82,3.11,-0.87,1.86,0.88,
1.828,2.31,0.82,3.11,-0.91,1.88,0.87,
1.849,1.97,1.05,2.60,-0.91,1.88,0.87,
1.85,1.97,1.05,2.60,-0.95,1.90,0.85,
1.85,1.97,1.05,2.60,-1.00,1.90,0.83,
1.85,1.97,1.05,2.60,-1.02,1.90,0.82,
1.851,1.97,1.05,2.60,-1.05,1.90,0.80,
1.851,1.97,1.05,2.60,-1.09,1.88,0.78,
1.851,1.92,1.20,2.28,-1.09,1.88,0.78,
1.851,1.92,1.20,2.28,-1.13,1.86,0.76,
1.851,1.92,1.20,2.28,-1.17,1.82,0.73,
1.852,1.92,1.20,2.28,-1.18,1.80,0.72,
1.852,1.92,1.20,2.28,-1.21,1.77,0.69,
1.852,1.92,1.20,2.28,-1.24,1.73,0.67,
1.852,2.03,1.26,2.55,-1.24,1.73,0.67,
1.853,2.03,1.26,2.55,-1.27,1.69,0.64,
1.853,2.03,1.26,2.55,-1.29,1.63,0.60,
1.856,2.03,1.26,2.55,-1.30,1.60,0.58,
1.856,2.03,1.26,2.55,-1.32,1.55,0.55,
1.857,2.03,1.26,2.55,-1.32,1.49,0.53,
1.859,2.10,1.27,3.42,-1.32,1.49,0.53,
1.86,2.10,1.27,3.42,-1.33,1.44,0.50,
1.862,2.10,1.27,3.42,-1.31,1.35,0.47,
1.864,2.10,1.27,3.42,-1.31,1.32,0.46,
1.866,2.10,1.27,3.42,-1.30,1.26,0.43,
1.868,2.10,1.27,3.42,-1.28,1.20,0.41,
1.871,1.88,1.07,4.79,-1.28,1.20,0.41,
1.871,1.88,1.07,4.79,-1.25,1.14,0.40,
1.873,1.88,1.07,4.79,-1.20,1.06,0.38,
1.873,1.88,1.07,4.79,-1.17,1.03,0.37,
1.875,1.88,1.07,4.79,-1.13,0.98,0.37,
1.878,1.88,1.07,4.79,-1.07,0.94,0.36,
1.887,1.44,0.67,6.43,-1.07,0.94,0.36,
1.888,1.44,0.67,6.43,-1.01,0.90,0.37,
1.888,1.44,0.67,6.43,-0.90,0.85,0.38,
1.888,1.44,0.67,6.43,-0.86,0.84,0.38,
1.889,1.44,0.67,6.43,-0.78,0.81,0.40,
1.889,1.44,0.67,6.43,-0.69,0.79,0.41,
1.89,0.75,0.32,7.76,-0.69,0.79,0.41,
1.89,0.75,0.32,7.76,-0.60,0.78,0.43,
1.892,0.75,0.32,7.76,-0.46,0.75,0.47,
1.894,0.75,0.32,7.76,-0.41,0.75,0.48,
1.896,0.75,0.32,7.76,-0.31,0.74,0.51,
1.898,0.75,0.32,7.76,-0.22,0.72,0.54,
1.9,0.19,0.06,8.19,-0.22,0.72,0.54,
1.9,0.19,0.06,8.19,-0.12,0.72,0.57,
1.903,0.19,0.06,8.19,0.04,0.71,0.62,
1.903,0.19,0.06,8.19,0.09,0.71,0.63,
1.906,0.19,0.06,8.19,0.18,0.70,0.66,
1.908,0.19,0.06,8.19,0.27,0.69,0.69,
1.91,-0.06,-0.13,7.52,0.27,0.69,0.69,
1.91,-0.06,-0.13,7.52,0.36,0.68,0.73,
1.914,-0.06,-0.13,7.52,0.49,0.65,0.77,
1.915,-0.06,-0.13,7.52,0.53,0.64,0.79,
1.916,-0.06,-0.13,7.52,0.61,0.62,0.82,
1.92,-0.06,-0.13,7.52,0.68,0.59,0.85,
1.92,0.03,-0.27,6.09,0.68,0.59,0.85,
1.92,0.03,-0.27,6.09,0.75,0.55,0.88,
1.923,0.03,-0.27,6.09,0.85,0.50,0.93,
1.924,0.03,-0.27,6.09,0.88,0.47,0.94,
1.925,0.03,-0.27,6.09,0.94,0.42,0.96,
1.927,0.03,-0.27,6.09,0.99,0.37,0.99,
1.93,0.25,-0.13,4.37,0.99,0.37,0.99,
1.93,0.25,-0.13,4.37,1.05,0.32,1.01,
1.933,0.25,-0.13,4.37,1.11,0.23,1.04,
1.934,0.25,-0.13,4.37,1.13,0.20,1.05,
1.936,0.25,-0.13,4.37,1.17,0.14,1.06,
1.938,0.25,-0.13,4.37,1.21,0.07,1.07,
1.94,0.73,-0.00,2.81,1.21,0.07,1.07,
1.966,0.73,-0.00,2.81,1.24,0.01,1.08,
1.966,0.73,-0.00,2.81,1.28,-0.09,1.09,
1.967,0.73,-0.00,2.81,1.29,-0.13,1.09,
1.967,0.73,-0.00,2.81,1.31,-0.19,1.09,
1.967,0.73,-0.00,2.81,1.33,-0.26,1.10,
1.968,1.15,0.07,1.55,1.33,-0.26,1.10,
1.968,1.15,0.07,1.55,1.36,-0.32,1.10,
1.968,1.15,0.07,1.55,1.39,-0.41,1.10,
1.969,1.15,0.07,1.55,1.40,-0.44,1.10,
1.969,1.15,0.07,1.55,1.42,-0.50,1.09,
1.969,1.15,0.07,1.55,1.43,-0.55,1.09,
1.969,1.49,0.08,0.73,1.43,-0.55,1.09,
1.97,1.49,0.08,0.73,1.44,-0.61,1.09,
1.97,1.49,0.08,0.73,1.47,-0.68,1.08,
1.97,1.49,0.08,0.73,1.47,-0.70,1.08,
1.971,1.49,0.08,0.73,1.49,-0.75,1.08,
1.971,1.49,0.08,0.73,1.50,-0.79,1.07,
1.971,1.71,-0.07,0.18,1.50,-0.79,1.07,
1.971,1.71,-0.07,0.18,1.51,-0.83,1.07,
1.983,1.71,-0.07,0.18,1.53,-0.88,1.06,
1.984,1.71,-0.07,0.18,1.54,-0.90,1.06,
1.984,1.71,-0.07,0.18,1.55,-0.94,1.05,
1.985,1.71,-0.07,0.18,1.56,-0.96,1.04,
1.985,1.92,-0.16,-0.10,1.56,-0.96,1.04,
1.985,1.92,-0.16,-0.10,1.58,-0.99,1.04,
1.985,1.92,-0.16,-0.10,1.59,-1.02,1.03,
1.986,1.92,-0.16,-0.10,1.59,-1.03,1.03,
1.986,1.92,-0.16,-0.10,1.61,-1.04,1.02,
1.994,1.92,-0.16,-0.10,1.62,-1.06,1.01,
2.016,2.12,-0.20,-0.40,1.62,-1.06,1.01,
2.017,2.12,-0.20,-0.40,1.63,-1.08,1.01,
2.017,2.12,-0.20,-0.40,1.65,-1.10,0.99,
2.017,2.12,-0.20,-0.40,1.65,-1.10,0.98,
2.018,2.12,-0.20,-0.40,1.66,-1.11,0.97,
2.018,2.12,-0.20,-0.40,1.66,-1.12,0.95,
2.018,2.56,-0.23,-0.79,1.66,-1.12,0.95,
2.018,2.56,-0.23,-0.79,1.67,-1.13,0.94,
2.019,2.56,-0.23,-0.79,1.67,-1.15,0.91,
2.019,2.56,-0.23,-0.79,1.67,-1.15,0.90,
2.019,2.56,-0.23,-0.79,1.67,-1.16,0.87,
2.02,2.56,-0.23,-0.79,1.67,-1.16,0.85,
2.02,2.90,-0.15,-1.37,1.67,-1.16,0.85,
2.02,2.90,-0.15,-1.37,1.66,-1.16,0.82,
2.021,2.90,-0.15,-1.37,1.64,-1.17,0.78,
2.021,2.90,-0.15,-1.37,1.64,-1.17,0.76,
2.021,2.90,-0.15,-1.37,1.63,-1.17,0.73,
2.021,2.90,-0.15,-1.37,1.61,-1.17,0.70,
2.022,3.37,-0.07,-2.06,1.61,-1.17,0.70,
2.022,3.37,-0.07,-2.06,1.59,-1.18,0.66,
2.026,3.37,-0.07,-2.06,1.56,-1.18,0.60,
2.026,3.37,-0.07,-2.06,1.55,-1.18,0.58,
2.027,3.37,-0.07,-2.06,1.52,-1.18,0.53,
2.028,3.37,-0.07,-2.06,1.50,-1.18,0.49,
2.036,3.63,-0.04,-2.80,1.50,-1.18,0.49,
2.038,3.63,-0.04,-2.80,1.47,-1.17,0.44,
2.039,3.63,-0.04,-2.80,1.42,-1.17,0.37,
2.04,3.63,-0.04,-2.80,1.40,-1.17,0.35,
2.041,3.63,-0.04,-2.80,1.36,-1.16,0.30,
2.042,3.63,-0.04,-2.80,1.32,-1.15,0.25,
2.042,3.78,-0.02,-3.50,1.32,-1.15,0.25,
2.043,3.78,-0.02,-3.50,1.28,-1.15,0.20,
2.043,3.78,-0.02,-3.50,1.21,-1.13,0.13,
2.044,3.78,-0.02,-3.50,1.19,-1.13,0.10,
2.047,3.78,-0.02,-3.50,1.14,-1.11,0.05,
2.053,3.78,-0.02,-3.50,1.09,-1.10,-0.00,
2.054,3.57,-0.14,-4.08,1.09,-1.10,-0.00,
2.054,3.57,-0.14,-4.08,1.04,-1.08,-0.05,
2.054,3.57,-0.14,-4.08,0.96,-1.05,-0.13,
2.054,3.57,-0.14,-4.08,0.93,-1.04,-0.15,
2.056,3.57,-0.14,-4.08,0.87,-1.02,-0.20,
2.06,3.57,-0.14,-4.08,0.81,-0.99,-0.25,
2.06,3.45,-0.26,-4.52,0.81,-0.99,-0.25,
2.061,3.45,-0.26,-4.52,0.75,-0.96,-0.30,
2.065,3.45,-0.26,-4.52,0.67,-0.92,-0.38,
2.066,3.45,-0.26,-4.52,0.64,-0.90,-0.40,
2.066,3.45,-0.26,-4.52,0.57,-0.86,-0.45,
2.072,3.45,-0.26,-4.52,0.51,-0.81,-0.50,
2.072,3.10,-0.57,-4.66,0.51,-0.81,-0.50,
2.073,3.10,-0.57,-4.66,0.45,-0.77,-0.55,
2.073,3.10,-0.57,-4.66,0.35,-0.68,-0.62,
2.075,3.10,-0.57,-4.66,0.32,-0.66,-0.64,
2.079,3.10,-0.57,-4.66,0.26,-0.60,-0.69,
2.079,3.10,-0.57,-4.66,0.20,-0.54,-0.73,
2.08,2.92,-0.96,-4.62,0.20,-0.54,-0.73,
2.08,2.92,-0.96,-4.62,0.15,-0.47,-0.78,
2.088,2.92,-0.96,-4.62,0.06,-0.38,-0.84,
2.089,2.92,-0.96,-4.62,0.04,-0.35,-0.86,
2.089,2.92,-0.96,-4.62,-0.02,-0.28,-0.91,
2.09,2.92,-0.96,-4.62,-0.07,-0.22,-0.95,
2.09,2.45,-1.37,-4.36,-0.07,-0.22,-0.95,
2.09,2.45,-1.37,-4.36,-0.11,-0.16,-0.99,
2.094,2.45,-1.37,-4.36,-0.18,-0.06,-1.04,
2.094,2.45,-1.37,-4.36,-0.20,-0.03,-1.06,
2.128,2.45,-1.37,-4.36,-0.24,0.02,-1.09,
2.128,2.45,-1.37,-4.36,-0.27,0.08,-1.12,
2.129,1.99,-1.81,-3.96,-0.27,0.08,-1.12,
2.129,1.99,-1.81,-3.96,-0.30,0.13,-1.14,
2.129,1.99,-1.81,-3.96,-0.33,0.20,-1.18,
2.129,1.99,-1.81,-3.96,-0.35,0.22,-1.19,
2.13,1.99,-1.81,-3.96,-0.37,0.25,-1.21,
2.162,1.99,-1.81,-3.96,-0.38,0.29,-1.23,
2.163,1.33,-2.17,-3.43,-0.38,0.29,-1.23,
2.163,1.33,-2.17,-3.43,-0.39,0.31,-1.24,
2.164,1.33,-2.17,-3.43,-0.40,0.34,-1.26,
2.164,1.33,-2.17,-3.43,-0.40,0.34,-1.27,
2.165,1.33,-2.17,-3.43,-0.40,0.35,-1.28,
2.165,1.33,-2.17,-3.43,-0.39,0.35,-1.29,
2.165,0.88,-2.46,-2.82,-0.39,0.35,-1.29,
2.166,0.88,-2.46,-2.82,-0.38,0.35,-1.29,
2.166,0.88,-2.46,-2.82,-0.36,0.34,-1.30,
2.167,0.88,-2.46,-2.82,-0.35,0.34,-1.30,
2.167,0.88,-2.46,-2.82,-0.33,0.32,-1.31,
2.167,0.88,-2.46,-2.82,-0.31,0.30,-1.31,
2.168,0.39,-2.51,-2.38,-0.31,0.30,-1.31,
2.168,0.39,-2.51,-2.38,-0.29,0.28,-1.31,
2.169,0.39,-2.51,-2.38,-0.25,0.24,-1.31,
2.169,0.39,-2.51,-2.38,-0.24,0.22,-1.31,
2.169,0.39,-2.51,-2.38,-0.21,0.19,-1.30,
2.17,0.39,-2.51,-2.38,-0.18,0.16,-1.30,
2.17,0.01,-2.62,-2.12,-0.18,0.16,-1.30,
2.171,0.01,-2.62,-2.12,-0.16,0.12,-1.29,
2.171,0.01,-2.62,-2.12,-0.11,0.07,-1.29,
2.172,0.01,-2.62,-2.12,-0.09,0.05,-1.28,
2.172,0.01,-2.62,-2.12,-0.07,0.01,-1.27,
2.172,0.01,-2.62,-2.12,-0.03,-0.02,-1.26,
2.173,-0.31,-2.61,-2.05,-0.03,-0.02,-1.26,
2.173,-0.31,-2.61,-2.05,0.00,-0.05,-1.25,
2.174,-0.31,-2.61,-2.05,0.05,-0.10,-1.23,
2.174,-0.31,-2.61,-2.05,0.07,-0.12,-1.22,
2.174,-0.31,-2.61,-2.05,0.10,-0.15,-1.20,
2.175,-0.31,-2.61,-2.05,0.13,-0.18,-1.19,
2.175,-0.55,-2.63,-2.13,0.13,-0.18,-1.19,
2.176,-0.55,-2.63,-2.13,0.16,-0.21,-1.17,
2.176,-0.55,-2.63,-2.13,0.20,-0.25,-1.14,
2.177,-0.55,-2.63,-2.13,0.21,-0.26,-1.13,
2.177,-0.55,-2.63,-2.13,0.24,-0.29,-1.11,
2.177,-0.55,-2.63,-2.13,0.26,-0.31,-1.09,
2.178,-0.60,-2.51,-2.47,0.26,-0.31,-1.09,
2.178,-0.60,-2.51,-2.47,0.29,-0.33,-1.07,
2.179,-0.60,-2.51,-2.47,0.32,-0.35,-1.04,
2.179,-0.60,-2.51,-2.47,0.32,-0.36,-1.04,
2.179,-0.60,-2.51,-2.47,0.34,-0.37,-1.02,
2.18,-0.60,-2.51,-2.47,0.35,-0.38,-1.00,
2.18,-0.58,-2.38,-2.86,0.35,-0.38,-1.00,
2.18,-0.58,-2.38,-2.86,0.36,-0.40,-0.99,
2.192,-0.58,-2.38,-2.86,0.37,-0.41,-0.96,
2.192,-0.58,-2.38,-2.86,0.38,-0.42,-0.96,
2.192,-0.58,-2.38,-2.86,0.38,-0.43,-0.94,
2.193,-0.58,-2.38,-2.86,0.38,-0.43,-0.93,
2.193,-0.56,-1.99,-3.38,0.38,-0.43,-0.93,
2.193,-0.56,-1.99,-3.38,0.38,-0.44,-0.91,
2.193,-0.56,-1.99,-3.38,0.37,-0.45,-0.89,
2.194,-0.56,-1.99,-3.38,0.37,-0.45,-0.88,
2.209,-0.56,-1.99,-3.38,0.35,-0.46,-0.87,
2.209,-0.56,-1.99,-3.38,0.35,-0.46,-0.85,
2.209,-0.65,-1.65,-3.78,0.35,-0.46,-0.85,
2.21,-0.65,-1.65,-3.78,0.33,-0.47,-0.84,
2.21,-0.65,-1.65,-3.78,0.32,-0.48,-0.82,
2.21,-0.65,-1.65,-3.78,0.31,-0.48,-0.82,
2.21,-0.65,-1.65,-3.78,0.29,-0.49,-0.81,
2.211,-0.65,-1.65,-3.78,0.28,-0.50,-0.80,
2.211,-0.63,-1.30,-3.94,0.28,-0.50,-0.80,
2.211,-0.63,-1.30,-3.94,0.26,-0.50,-0.79,
2.219,-0.63,-1.30,-3.94,0.23,-0.52,-0.78,
2.22,-0.63,-1.30,-3.94,0.22,-0.53,-0.77,
2.22,-0.63,-1.30,-3.94,0.20,-0.54,-0.77,
2.22,-0.63,-1.30,-3.94,0.19,-0.56,-0.76,
2.221,-0.70,-0.86,-4.02,0.19,-0.56,-0.76,
2.221,-0.70,-0.86,-4.02,0.17,-0.58,-0.75,
2.225,-0.70,-0.86,-4.02,0.13,-0.61,-0.74,
2.227,-0.70,-0.86,-4.02,0.12,-0.62,-0.74,
2.243,-0.70,-0.86,-4.02,0.09,-0.64,-0.74,
2.244,-0.70,-0.86,-4.02,0.06,-0.67,-0.73,
2.244,-0.74,-0.52,-4.00,0.06,-0.67,-0.73,
2.244,-0.74,-0.52,-4.00,0.02,-0.69,-0.73,
2.245,-0.74,-0.52,-4.00,-0.03,-0.73,-0.73,
2.245,-0.74,-0.52,-4.00,-0.05,-0.74,-0.73,
2.245,-0.74,-0.52,-4.00,-0.08,-0.77,-0.73,
2.245,-0.74,-0.52,-4.00,-0.12,-0.79,-0.73,
2.245,-0.76,-0.16,-3.85,-0.12,-0.79,-0.73,
2.246,-0.76,-0.16,-3.85,-0.16,-0.81,-0.73,
2.246,-0.76,-0.16,-3.85,-0.21,-0.84,-0.74,
2.246,-0.76,-0.16,-3.85,-0.24,-0.85,-0.74,
2.246,-0.76,-0.16,-3.85,-0.27,-0.86,-0.74,
2.26,-0.76,-0.16,-3.85,-0.31,-0.88,-0.75,
2.262,-0.76,0.06,-3.32,-0.31,-0.88,-0.75,
2.264,-0.76,0.06,-3.32,-0.35,-0.89,-0.75,
2.265,-0.76,0.06,-3.32,-0.41,-0.90,-0.75,
2.265,-0.76,0.06,-3.32,-0.42,-0.90,-0.75,
2.265,-0.76,0.06,-3.32,-0.46,-0.91,-0.75,
2.266,-0.76,0.06,-3.32,-0.50,-0.91,-0.75,
2.266,-0.94,0.36,-2.48,-0.50,-0.91,-0.75,
2.266,-0.94,0.36,-2.48,-0.53,-0.91,-0.75,
2.266,-0.94,0.36,-2.48,-0.58,-0.91,-0.75,
2.266,-0.94,0.36,-2.48,-0.60,-0.91,-0.75,
2.267,-0.94,0.36,-2.48,-0.63,-0.90,-0.75,
2.269,-0.94,0.36,-2.48,-0.66,-0.90,-0.75,
2.27,-1.00,0.58,-1.47,-0.66,-0.90,-0.75,
2.27,-1.00,0.58,-1.47,-0.69,-0.89,-0.75,
2.273,-1.00,0.58,-1.47,-0.74,-0.87,-0.75,
2.291,-1.00,0.58,-1.47,-0.75,-0.86,-0.75,
2.292,-1.00,0.58,-1.47,-0.78,-0.85,-0.75,
2.292,-1.00,0.58,-1.47,-0.83,-0.81,-0.74,
2.292,-1.00,0.58,-1.47,-0.83,-0.81,-0.74,
2.292,-1.27,0.70,-0.25,-0.83,-0.81,-0.74,
2.292,-1.27,0.70,-0.25,-0.87,-0.77,-0.73,
2.293,-1.27,0.70,-0.25,-0.89,-0.75,-0.73,
2.293,-1.27,0.70,-0.25,-0.89,-0.73,-0.72,
2.293,-1.27,0.70,-0.25,-0.91,-0.70,-0.71,
2.293,-1.44,0.71,0.69,-0.91,-0.70,-0.71,
2.293,-1.44,0.71,0.69,-0.93,-0.67,-0.70,
2.294,-1.44,0.71,0.69,-0.95,-0.62,-0.68,
2.294,-1.44,0.71,0.69,-0.95,-0.60,-0.67,
2.298,-1.44,0.71,0.69,-0.96,-0.56,-0.66,
2.298,-1.44,0.71,0.69,-0.96,-0.53,-0.64,
2.3,-1.64,0.78,1.85,-0.96,-0.53,-0.64,
2.301,-1.64,0.78,1.85,-0.97,-0.49,-0.62,
2.302,-1.64,0.78,1.85,-0.97,-0.44,-0.60,
2.303,-1.64,0.78,1.85,-0.97,-0.42,-0.60,
2.305,-1.64,0.78,1.85,-0.97,-0.39,-0.58,
2.308,-1.64,0.78,1.85,-0.97,-0.36,-0.57,
2.309,-1.70,0.96,2.82,-0.97,-0.36,-0.57,
2.31,-1.70,0.96,2.82,-0.96,-0.33,-0.56,
2.313,-1.70,0.96,2.82,-0.96,-0.29,-0.55,
2.314,-1.70,0.96,2.82,-0.95,-0.27,-0.54,
2.316,-1.70,0.96,2.82,-0.94,-0.25,-0.54,
2.317,-1.70,0.96,2.82,-0.93,-0.22,-0.53,
2.319,-1.82,1.19,3.64,-0.93,-0.22,-0.53,
2.32,-1.82,1.19,3.64,-0.91,-0.19,-0.52,
2.322,-1.82,1.19,3.64,-0.89,-0.16,-0.51,
2.323,-1.82,1.19,3.64,-0.88,-0.14,-0.50,
2.325,-1.82,1.19,3.64,-0.87,-0.12,-0.50,
2.334,-1.82,1.19,3.64,-0.85,-0.10,-0.49,
2.335,-1.85,1.32,4.19,-0.85,-0.10,-0.49,
2.335,-1.85,1.32,4.19,-0.84,-0.07,-0.48,
2.335,-1.85,1.32,4.19,-0.81,-0.03,-0.47,
2.335,-1.85,1.32,4.19,-0.80,-0.02,-0.46,
2.336,-1.85,1.32,4.19,-0.78,0.00,-0.45,
2.338,-1.85,1.32,4.19,-0.76,0.03,-0.44,
2.344,-2.01,1.36,4.53,-0.76,0.03,-0.44,
2.344,-2.01,1.36,4.53,-0.74,0.05,-0.43,
2.357,-2.01,1.36,4.53,-0.71,0.09,-0.41,
2.357,-2.01,1.36,4.53,-0.70,0.10,-0.40,
2.358,-2.01,1.36,4.53,-0.68,0.13,-0.39,
2.358,-2.01,1.36,4.53,-0.65,0.15,-0.38,
2.358,-2.15,1.38,4.72,-0.65,0.15,-0.38,
2.358,-2.15,1.38,4.72,-0.63,0.18,-0.36,
2.358,-2.15,1.38,4.72,-0.59,0.23,-0.34,
2.358,-2.15,1.38,4.72,-0.57,0.24,-0.33,
2.358,-2.15,1.38,4.72,-0.54,0.27,-0.31,
2.359,-2.15,1.38,4.72,-0.52,0.31,-0.29,
2.359,-2.42,1.42,4.78,-0.52,0.31,-0.29,
2.36,-2.42,1.42,4.78,-0.48,0.35,-0.27,
2.362,-2.42,1.42,4.78,-0.44,0.41,-0.24,
2.363,-2.42,1.42,4.78,-0.42,0.44,-0.23,
2.365,-2.42,1.42,4.78,-0.39,0.48,-0.20,
2.367,-2.42,1.42,4.78,-0.36,0.52,-0.18,
2.369,-2.70,1.44,4.47,-0.36,0.52,-0.18,
2.369,-2.70,1.44,4.47,-0.33,0.55,-0.15,
2.372,-2.70,1.44,4.47,-0.29,0.60,-0.12,
2.373,-2.70,1.44,4.47,-0.28,0.61,-0.10,
2.375,-2.70,1.44,4.47,-0.26,0.63,-0.07,
2.377,-2.70,1.44,4.47,-0.23,0.64,-0.04,
2.38,-3.05,1.58,3.66,-0.23,0.64,-0.04,
2.38,-3.05,1.58,3.66,-0.22,0.65,-0.02,
2.382,-3.05,1.58,3.66,-0.20,0.65,0.02,
2.383,-3.05,1.58,3.66,-0.20,0.65,0.03,
2.386,-3.05,1.58,3.66,-0.19,0.64,0.06,
2.387,-3.05,1.58,3.66,-0.19,0.62,0.09,
2.39,-3.17,1.79,2.70,-0.19,0.62,0.09,
2.39,-3.17,1.79,2.70,-0.19,0.60,0.11,
2.392,-3.17,1.79,2.70,-0.20,0.56,0.14,
2.394,-3.17,1.79,2.70,-0.19,0.54,0.15,
2.396,-3.17,1.79,2.70,-0.20,0.51,0.17,
2.398,-3.17,1.79,2.70,-0.22,0.48,0.19,
2.4,-3.17,1.79,2.70,-0.24,0.42,0.21,
2.401,-3.10,2.20,1.73,-0.24,0.42,0.21,
2.402,-3.10,2.20,1.73,-0.26,0.37,0.22,
2.404,-3.10,2.20,1.73,-0.27,0.35,0.23,
2.405,-3.10,2.20,1.73,-0.29,0.30,0.24,
2.407,-3.10,2.20,1.73,-0.31,0.25,0.24,
2.411,-2.80,2.32,1.55,-0.31,0.25,0.24,
2.411,-2.80,2.32,1.55,-0.34,0.21,0.25,
2.413,-2.80,2.32,1.55,-0.38,0.13,0.25,
2.413,-2.80,2.32,1.55,-0.39,0.11,0.25,
2.415,-2.80,2.32,1.55,-0.41,0.06,0.25,
2.417,-2.80,2.32,1.55,-0.44,0.01,0.26,
2.42,-2.48,2.43,1.73,-0.44,0.01,0.26,
2.42,-2.48,2.43,1.73,-0.47,-0.04,0.25,
2.422,-2.48,2.43,1.73,-0.50,-0.10,0.25,
2.423,-2.48,2.43,1.73,-0.51,-0.12,0.25,
2.425,-2.48,2.43,1.73,-0.52,-0.15,0.25,
2.427,-2.48,2.43,1.73,-0.54,-0.18,0.25,
2.43,-2.05,2.27,2.61,-0.54,-0.18,0.25,
2.43,-2.05,2.27,2.61,-0.54,-0.19,0.24,
2.432,-2.05,2.27,2.61,-0.55,-0.21,0.24,
2.436,-2.05,2.27,2.61,-0.55,-0.22,0.24,
2.436,-2.05,2.27,2.61,-0.55,-0.21,0.24,
2.437,-2.05,2.27,2.61,-0.54,-0.21,0.24,
2.439,-1.78,1.98,3.80,-0.54,-0.21,0.24,
2.458,-1.78,1.98,3.80,-0.53,-0.20,0.24,
2.458,-1.78,1.98,3.80,-0.50,-0.17,0.24,
2.459,-1.78,1.98,3.80,-0.49,-0.16,0.24,
2.459,-1.78,1.98,3.80,-0.47,-0.14,0.24,
2.459,-1.78,1.98,3.80,-0.45,-0.11,0.25,
2.459,-1.68,1.58,4.91,-0.45,-0.11,0.25,
2.459,-1.68,1.58,4.91,-0.42,-0.08,0.25,
2.459,-1.68,1.58,4.91,-0.37,-0.02,0.26,
2.46,-1.68,1.58,4.91,-0.35,-0.01,0.26,
2.46,-1.68,1.58,4.91,-0.31,0.03,0.27,
2.46,-1.68,1.58,4.91,-0.28,0.07,0.29,
2.46,-1.83,1.21,5.54,-0.28,0.07,0.29,
2.46,-1.83,1.21,5.54,-0.24,0.11,0.30,
2.466,-1.83,1.21,5.54,-0.19,0.17,0.32,
2.466,-1.83,1.21,5.54,-0.17,0.19,0.33,
2.467,-1.83,1.21,5.54,-0.14,0.23,0.34,
2.467,-1.83,1.21,5.54,-0.11,0.27,0.36,
2.473,-2.04,0.92,5.32,-0.11,0.27,0.36,
2.473,-2.04,0.92,5.32,-0.08,0.31,0.38,
2.474,-2.04,0.92,5.32,-0.04,0.37,0.41,
2.474,-2.04,0.92,5.32,-0.02,0.39,0.42,
2.475,-2.04,0.92,5.32,0.01,0.42,0.44,
2.487,-2.04,0.92,5.32,0.03,0.45,0.47,
2.488,-2.30,0.78,4.72,0.03,0.45,0.47,
2.488,-2.30,0.78,4.72,0.06,0.48,0.49,
2.488,-2.30,0.78,4.72,0.10,0.52,0.52,
2.488,-2.30,0.78,4.72,0.11,0.53,0.53,
2.488,-2.30,0.78,4.72,0.13,0.55,0.55,
2.49,-2.30,0.78,4.72,0.15,0.56,0.57,
2.49,-2.26,0.71,4.00,0.15,0.56,0.57,
2.49,-2.26,0.71,4.00,0.17,0.56,0.58,
2.495,-2.26,0.71,4.00,0.20,0.56,0.61,
2.495,-2.26,0.71,4.00,0.21,0.56,0.61,
2.495,-2.26,0.71,4.00,0.23,0.55,0.63,
2.497,-2.26,0.71,4.00,0.26,0.54,0.64,
2.5,-2.14,0.65,3.40,0.26,0.54,0.64,
2.5,-2.14,0.65,3.40,0.28,0.53,0.65,
2.502,-2.14,0.65,3.40,0.31,0.50,0.67,
2.503,-2.14,0.65,3.40,0.32,0.50,0.67,
2.505,-2.14,0.65,3.40,0.35,0.48,0.68,
2.507,-2.14,0.65,3.40,0.37,0.46,0.69,
2.51,-1.95,0.60,3.02,0.37,0.46,0.69,
2.511,-1.95,0.60,3.02,0.40,0.44,0.70,
2.513,-1.95,0.60,3.02,0.44,0.41,0.71,
2.513,-1.95,0.60,3.02,0.46,0.40,0.71,
2.515,-1.95,0.60,3.02,0.48,0.38,0.72,
2.517,-1.95,0.60,3.02,0.51,0.36,0.72,
2.52,-1.83,0.53,2.76,0.51,0.36,0.72,
2.52,-1.83,0.53,2.76,0.54,0.34,0.73,
2.522,-1.83,0.53,2.76,0.59,0.32,0.74,
2.523,-1.83,0.53,2.76,0.61,0.31,0.74,
2.526,-1.83,0.53,2.76,0.64,0.30,0.75,
2.527,-1.83,0.53,2.76,0.66,0.28,0.75,
2.53,-1.63,0.45,2.31,0.66,0.28,0.75,
2.531,-1.63,0.45,2.31,0.68,0.27,0.75,
2.533,-1.63,0.45,2.31,0.72,0.25,0.76,
2.533,-1.63,0.45,2.31,0.73,0.24,0.76,
2.535,-1.63,0.45,2.31,0.75,0.23,0.76,
2.537,-1.63,0.45,2.31,0.77,0.22,0.76,
2.539,-1.51,0.29,1.63,0.77,0.22,0.76,
2.54,-1.51,0.29,1.63,0.79,0.20,0.76,
2.543,-1.51,0.29,1.63,0.82,0.18,0.76,
2.544,-1.51,0.29,1.63,0.84,0.18,0.76,
2.547,-1.51,0.29,1.63,0.84,0.16,0.76,
2.548,-1.51,0.29,1.63,0.85,0.14,0.76,
2.55,-1.34,0.16,0.88,0.85,0.14,0.76,
2.55,-1.34,0.16,0.88,0.87,0.12,0.76,
2.553,-1.34,0.16,0.88,0.88,0.10,0.76,
2.553,-1.34,0.16,0.88,0.89,0.09,0.76,
2.555,-1.34,0.16,0.88,0.89,0.07,0.77,
2.558,-1.34,0.16,0.88,0.90,0.05,0.77,
2.56,-1.28,-0.02,0.17,0.90,0.05,0.77,
2.561,-1.28,-0.02,0.17,0.91,0.04,0.77,
2.562,-1.28,-0.02,0.17,0.92,0.03,0.77,
2.564,-1.28,-0.02,0.17,0.92,0.03,0.77,
2.565,-1.28,-0.02,0.17,0.93,0.02,0.77,
2.568,-1.28,-0.02,0.17,0.94,0.01,0.77,
2.57,-1.18,-0.16,-0.38,0.94,0.01,0.77,
2.57,-1.18,-0.16,-0.38,0.94,-0.00,0.77,
2.573,-1.18,-0.16,-0.38,0.96,-0.01,0.78,
2.574,-1.18,-0.16,-0.38,0.96,-0.02,0.78,
2.576,-1.18,-0.16,-0.38,0.97,-0.03,0.78,
2.578,-1.18,-0.16,-0.38,0.96,-0.04,0.78,
2.58,-1.13,-0.32,-0.87,0.96,-0.04,0.78,
2.581,-1.13,-0.32,-0.87,0.97,-0.05,0.78,
2.582,-1.13,-0.32,-0.87,0.98,-0.06,0.77,
2.583,-1.13,-0.32,-0.87,0.98,-0.07,0.77,
2.585,-1.13,-0.32,-0.87,0.98,-0.08,0.77,
2.587,-1.13,-0.32,-0.87,0.99,-0.09,0.77,
2.59,-0.83,-0.53,-1.33,0.99,-0.09,0.77,
2.59,-0.83,-0.53,-1.33,0.99,-0.10,0.76,
2.602,-0.83,-0.53,-1.33,0.99,-0.11,0.75,
2.603,-0.83,-0.53,-1.33,0.99,-0.11,0.75,
2.603,-0.83,-0.53,-1.33,1.00,-0.11,0.75,
2.603,-0.83,-0.53,-1.33,1.00,-0.12,0.74,
2.604,-0.65,-0.72,-1.76,1.00,-0.12,0.74,
2.604,-0.65,-0.72,-1.76,1.00,-0.12,0.73,
2.628,-0.65,-0.72,-1.76,1.00,-0.13,0.72,
2.63,-0.65,-0.72,-1.76,1.00,-0.13,0.72,
2.631,-0.65,-0.72,-1.76,1.01,-0.13,0.71,
2.662,-0.65,-0.72,-1.76,1.00,-0.13,0.71,
2.662,-0.45,-0.88,-2.22,1.00,-0.13,0.71,
2.663,-0.45,-0.88,-2.22,1.00,-0.12,0.70,
2.663,-0.45,-0.88,-2.22,1.00,-0.12,0.69,
2.664,-0.45,-0.88,-2.22,1.00,-0.12,0.68,
2.664,-0.45,-0.88,-2.22,1.00,-0.11,0.68,
2.664,-0.45,-0.88,-2.22,1.00,-0.10,0.67,
2.665,-0.30,-1.06,-2.72,1.00,-0.10,0.67,
2.665,-0.30,-1.06,-2.72,0.99,-0.09,0.66,
2.666,-0.30,-1.06,-2.72,0.99,-0.07,0.65,
2.666,-0.30,-1.06,-2.72,0.99,-0.06,0.64,
2.666,-0.30,-1.06,-2.72,0.98,-0.05,0.63,
2.667,-0.30,-1.06,-2.72,0.98,-0.04,0.62,
2.667,-0.15,-1.23,-3.17,0.98,-0.04,0.62,
2.668,-0.15,-1.23,-3.17,0.97,-0.01,0.61,
2.668,-0.15,-1.23,-3.17,0.97,0.02,0.60,
2.671,-0.15,-1.23,-3.17,0.96,0.03,0.59,
2.671,-0.15,-1.23,-3.17,0.96,0.05,0.58,
2.672,-0.15,-1.23,-3.17,0.95,0.08,0.57,
2.672,-0.06,-1.41,-3.64,0.95,0.08,0.57,
2.672,-0.06,-1.41,-3.64,0.94,0.10,0.56,
2.673,-0.06,-1.41,-3.64,0.93,0.14,0.54,
2.673,-0.06,-1.41,-3.64,0.93,0.15,0.53,
2.673,-0.06,-1.41,-3.64,0.92,0.18,0.52,
2.674,-0.06,-1.41,-3.64,0.91,0.21,0.51,
2.674,-0.04,-1.57,-4.15,0.91,0.21,0.51,
2.674,-0.04,-1.57,-4.15,0.90,0.24,0.50,
2.674,-0.04,-1.57,-4.15,0.88,0.28,0.49,
2.675,-0.04,-1.57,-4.15,0.87,0.29,0.48,
2.675,-0.04,-1.57,-4.15,0.85,0.32,0.47,
2.675,-0.04,-1.57,-4.15,0.84,0.34,0.46,
2.676,-0.03,-1.67,-4.71,0.84,0.34,0.46,
2.676,-0.03,-1.67,-4.71,0.81,0.36,0.45,
2.676,-0.03,-1.67,-4.71,0.78,0.40,0.43,
2.677,-0.03,-1.67,-4.71,0.77,0.41,0.43,
2.677,-0.03,-1.67,-4.71,0.75,0.43,0.41,
2.677,-0.03,-1.67,-4.71,0.72,0.46,0.40,
2.677,-0.00,-1.81,-5.22,0.72,0.46,0.40,
2.678,-0.00,-1.81,-5.22,0.69,0.48,0.39,
2.678,-0.00,-1.81,-5.22,0.65,0.50,0.37,
2.678,-0.00,-1.81,-5.22,0.64,0.51,0.36,
2.679,-0.00,-1.81,-5.22,0.61,0.53,0.35,
2.679,-0.00,-1.81,-5.22,0.58,0.55,0.34,
2.693,-0.06,-1.91,-5.61,0.58,0.55,0.34,
2.693,-0.06,-1.91,-5.61,0.55,0.56,0.33,
2.694,-0.06,-1.91,-5.61,0.51,0.59,0.31,
2.694,-0.06,-1.91,-5.61,0.49,0.60,0.31,
2.694,-0.06,-1.91,-5.61,0.46,0.61,0.30,
2.695,-0.06,-1.91,-5.61,0.42,0.62,0.29,
2.695,-0.14,-2.02,-5.77,0.42,0.62,0.29,
2.696,-0.14,-2.02,-5.77,0.39,0.64,0.28,
2.696,-0.14,-2.02,-5.77,0.35,0.66,0.27,
2.696,-0.14,-2.02,-5.77,0.34,0.66,0.27,
2.697,-0.14,-2.02,-5.77,0.31,0.68,0.26,
2.699,-0.14,-2.02,-5.77,0.28,0.70,0.25,
2.7,-0.29,-2.06,-5.72,0.28,0.70,0.25,
2.7,-0.29,-2.06,-5.72,0.25,0.71,0.24,
2.703,-0.29,-2.06,-5.72,0.21,0.73,0.24,
2.703,-0.29,-2.06,-5.72,0.20,0.73,0.23,
2.706,-0.29,-2.06,-5.72,0.18,0.75,0.23,
2.708,-0.29,-2.06,-5.72,0.16,0.76,0.22,
2.713,-0.35,-2.20,-5.46,0.16,0.76,0.22,
2.714,-0.35,-2.20,-5.46,0.15,0.77,0.22,
2.714,-0.35,-2.20,-5.46,0.12,0.79,0.22,
2.714,-0.35,-2.20,-5.46,0.11,0.80,0.22,
2.715,-0.35,-2.20,-5.46,0.09,0.81,0.21,
2.718,-0.35,-2.20,-5.46,0.07,0.82,0.21,
2.72,-0.48,-2.27,-5.15,0.07,0.82,0.21,
2.72,-0.48,-2.27,-5.15,0.06,0.83,0.21,
2.723,-0.48,-2.27,-5.15,0.05,0.84,0.21,
2.724,-0.48,-2.27,-5.15,0.04,0.84,0.21,
2.735,-0.48,-2.27,-5.15,0.04,0.85,0.21,
2.735,-0.48,-2.27,-5.15,0.03,0.85,0.22,
2.735,-0.57,-2.36,-4.80,0.03,0.85,0.22,
2.736,-0.57,-2.36,-4.80,0.02,0.85,0.22,
2.736,-0.57,-2.36,-4.80,0.02,0.85,0.23,
2.736,-0.57,-2.36,-4.80,0.02,0.85,0.23,
2.736,-0.57,-2.36,-4.80,0.01,0.84,0.23,
2.738,-0.57,-2.36,-4.80,0.01,0.84,0.24,
2.74,-0.70,-2.37,-4.50,0.01,0.84,0.24,
2.741,-0.70,-2.37,-4.50,0.01,0.83,0.24,
2.769,-0.70,-2.37,-4.50,0.01,0.80,0.25,
2.77,-0.70,-2.37,-4.50,0.01,0.80,0.25,
2.77,-0.70,-2.37,-4.50,0.01,0.78,0.25,
2.77,-0.70,-2.37,-4.50,0.01,0.76,0.26,
2.77,-0.70,-2.37,-4.50,0.01,0.73,0.26,
2.77,-0.68,-2.21,-4.05,0.01,0.73,0.26,
2.771,-0.68,-2.21,-4.05,0.02,0.71,0.26,
2.771,-0.68,-2.21,-4.05,0.03,0.70,0.26,
2.771,-0.68,-2.21,-4.05,0.03,0.68,0.26,
2.771,-0.68,-2.21,-4.05,0.04,0.66,0.26,
2.771,-0.68,-2.13,-3.79,0.04,0.66,0.26,
2.772,-0.68,-2.13,-3.79,0.05,0.64,0.27,
2.772,-0.68,-2.13,-3.79,0.06,0.62,0.26,
2.772,-0.68,-2.13,-3.79,0.06,0.61,0.26,
2.772,-0.68,-2.13,-3.79,0.07,0.59,0.27,
2.772,-0.68,-2.13,-3.79,0.08,0.58,0.26,
2.772,-0.59,-1.99,-3.49,0.08,0.58,0.26,
2.773,-0.59,-1.99,-3.49,0.09,0.57,0.26,
2.773,-0.59,-1.99,-3.49,0.09,0.55,0.27,
2.802,-0.59,-1.99,-3.49,0.09,0.55,0.27,
2.802,-0.59,-1.99,-3.49,0.10,0.53,0.28,
2.803,-0.59,-1.99,-3.49,0.10,0.53,0.28,
2.803,-0.74,-1.81,-3.45,0.10,0.53,0.28,
2.803,-0.74,-1.81,-3.45,0.09,0.52,0.28,
2.804,-0.74,-1.81,-3.45,0.08,0.51,0.29,
2.804,-0.74,-1.81,-3.45,0.08,0.51,0.30,
2.804,-0.74,-1.81,-3.45,0.06,0.50,0.31,
2.804,-0.74,-1.81,-3.45,0.05,0.50,0.31,
2.805,-0.93,-1.62,-3.55,0.05,0.50,0.31,
2.805,-0.93,-1.62,-3.55,0.02,0.49,0.33,
2.805,-0.93,-1.62,-3.55,-0.00,0.49,0.34,
2.805,-0.93,-1.62,-3.55,-0.02,0.49,0.34,
2.806,-0.93,-1.62,-3.55,-0.05,0.49,0.36,
2.806,-0.93,-1.62,-3.55,-0.08,0.49,0.37,
2.806,-1.00,-1.29,-3.52,-0.08,0.49,0.37,
2.806,-1.00,-1.29,-3.52,-0.12,0.50,0.38,
2.807,-1.00,-1.29,-3.52,-0.18,0.52,0.39,
2.807,-1.00,-1.29,-3.52,-0.20,0.53,0.40,
2.807,-1.00,-1.29,-3.52,-0.26,0.56,0.41,
2.807,-1.00,-1.29,-3.52,-0.31,0.58,0.41,
2.814,-0.71,-0.90,-3.41,-0.31,0.58,0.41,
2.815,-0.71,-0.90,-3.41,-0.37,0.62,0.42,
2.815,-0.71,-0.90,-3.41,-0.48,0.67,0.43,
2.815,-0.71,-0.90,-3.41,-0.51,0.69,0.43,
2.815,-0.71,-0.90,-3.41,-0.60,0.73,0.43,
2.817,-0.71,-0.90,-3.41,-0.69,0.76,0.43,
2.82,-0.20,-0.44,-3.52,-0.69,0.76,0.43,
2.82,-0.20,-0.44,-3.52,-0.79,0.78,0.43,
2.823,-0.20,-0.44,-3.52,-0.94,0.81,0.42,
2.823,-0.20,-0.44,-3.52,-1.00,0.81,0.41,
2.832,-0.20,-0.44,-3.52,-1.12,0.81,0.40,
2.832,-0.20,-0.44,-3.52,-1.23,0.80,0.38,
2.832,0.56,-0.09,-3.13,-1.23,0.80,0.38,
2.833,0.56,-0.09,-3.13,-1.34,0.79,0.36,
2.833,0.56,-0.09,-3.13,-1.51,0.78,0.33,
2.834,0.56,-0.09,-3.13,-1.56,0.77,0.31,
2.836,0.56,-0.09,-3.13,-1.66,0.75,0.28,
2.837,0.56,-0.09,-3.13,-1.76,0.73,0.25,
2.84,1.23,0.41,-1.41,-1.76,0.73,0.25,
2.841,1.23,0.41,-1.41,-1.84,0.71,0.21,
2.843,1.23,0.41,-1.41,-1.96,0.67,0.15,
2.844,1.23,0.41,-1.41,-1.99,0.66,0.13,
2.846,1.23,0.41,-1.41,-2.04,0.63,0.09,
2.848,1.23,0.41,-1.41,-2.09,0.60,0.05,
2.85,1.69,0.53,1.66,-2.09,0.60,0.05,
2.85,1.69,0.53,1.66,-2.13,0.57,0.01,
2.863,1.69,0.53,1.66,-2.16,0.52,-0.05,
2.864,1.69,0.53,1.66,-2.17,0.50,-0.07,
2.864,1.69,0.53,1.66,-2.17,0.47,-0.11,
2.864,1.69,0.53,1.66,-2.17,0.45,-0.14,
2.864,1.98,0.33,5.17,-2.17,0.45,-0.14,
2.865,1.98,0.33,5.17,-2.15,0.43,-0.18,
2.865,1.98,0.33,5.17,-2.11,0.41,-0.23,
2.865,1.98,0.33,5.17,-2.09,0.41,-0.25,
2.874,1.98,0.33,5.17,-2.05,0.41,-0.27,
2.874,1.98,0.33,5.17,-2.01,0.42,-0.30,
2.874,1.92,0.01,8.22,-2.01,0.42,-0.30,
2.875,1.92,0.01,8.22,-1.96,0.43,-0.33,
2.875,1.92,0.01,8.22,-1.86,0.47,-0.35,
2.875,1.92,0.01,8.22,-1.83,0.48,-0.35,
2.886,1.92,0.01,8.22,-1.76,0.51,-0.36,
2.887,1.92,0.01,8.22,-1.69,0.55,-0.36,
2.887,1.37,-0.38,10.26,-1.69,0.55,-0.36,
2.887,1.37,-0.38,10.26,-1.62,0.59,-0.36,
2.887,1.37,-0.38,10.26,-1.51,0.66,-0.35,
2.888,1.37,-0.38,10.26,-1.48,0.69,-0.34,
2.888,1.37,-0.38,10.26,-1.41,0.74,-0.32,
2.888,1.37,-0.38,10.26,-1.35,0.80,-0.30,
2.892,0.42,-0.58,10.76,-1.35,0.80,-0.30,
2.892,0.42,-0.58,10.76,-1.30,0.86,-0.28,
2.9,0.42,-0.58,10.76,-1.22,0.95,-0.24,
2.9,0.42,-0.58,10.76,-1.20,0.97,-0.23,
2.9,0.42,-0.58,10.76,-1.16,1.03,-0.20,
2.901,0.42,-0.58,10.76,-1.12,1.09,-0.17,
2.901,-0.35,-0.72,10.07,-1.12,1.09,-0.17,
2.901,-0.35,-0.72,10.07,-1.08,1.14,-0.14,
2.904,-0.35,-0.72,10.07,-1.03,1.21,-0.09,
2.905,-0.35,-0.72,10.07,-1.02,1.24,-0.07,
2.907,-0.35,-0.72,10.07,-0.99,1.28,-0.04,
2.908,-0.35,-0.72,10.07,-0.97,1.33,-0.00,
2.911,-0.79,-0.55,8.89,-0.97,1.33,-0.00,
2.911,-0.79,-0.55,8.89,-0.95,1.36,0.03,
2.913,-0.79,-0.55,8.89,-0.92,1.40,0.08,
2.913,-0.79,-0.55,8.89,-0.91,1.41,0.10,
2.915,-0.79,-0.55,8.89,-0.89,1.43,0.13,
2.917,-0.79,-0.55,8.89,-0.86,1.43,0.16,
2.919,-0.72,-0.39,7.86,-0.86,1.43,0.16,
2.92,-0.72,-0.39,7.86,-0.84,1.42,0.19,
2.924,-0.72,-0.39,7.86,-0.81,1.41,0.23,
2.925,-0.72,-0.39,7.86,-0.79,1.39,0.24,
2.929,-0.72,-0.39,7.86,-0.77,1.37,0.26,
2.93,-0.72,-0.39,7.86,-0.74,1.34,0.29,
2.93,-0.46,-0.11,7.03,-0.74,1.34,0.29,
2.93,-0.46,-0.11,7.03,-0.71,1.31,0.31,
2.934,-0.46,-0.11,7.03,-0.66,1.25,0.34,
2.934,-0.46,-0.11,7.03,-0.65,1.23,0.35,
2.937,-0.46,-0.11,7.03,-0.61,1.18,0.37,
2.938,-0.46,-0.11,7.03,-0.57,1.14,0.39,
2.941,-0.11,0.06,6.27,-0.57,1.14,0.39,
2.956,-0.11,0.06,6.27,-0.53,1.09,0.41,
2.957,-0.11,0.06,6.27,-0.48,1.02,0.44,
2.957,-0.11,0.06,6.27,-0.45,1.00,0.45,
2.957,-0.11,0.06,6.27,-0.41,0.95,0.47,
2.957,-0.11,0.06,6.27,-0.37,0.91,0.49,
2.958,0.07,0.28,5.23,-0.37,0.91,0.49,
2.958,0.07,0.28,5.23,-0.34,0.86,0.51,
2.958,0.07,0.28,5.23,-0.29,0.78,0.54,
2.958,0.07,0.28,5.23,-0.27,0.76,0.55,
2.959,0.07,0.28,5.23,-0.25,0.71,0.57,
2.959,0.07,0.28,5.23,-0.23,0.65,0.58,
2.966,0.42,0.49,3.82,-0.23,0.65,0.58,
2.966,0.42,0.49,3.82,-0.20,0.60,0.59,
2.967,0.42,0.49,3.82,-0.19,0.52,0.60,
2.967,0.42,0.49,3.82,-0.18,0.50,0.61,
2.967,0.42,0.49,3.82,-0.17,0.44,0.62,
2.968,0.42,0.49,3.82,-0.17,0.39,0.62,
2.97,0.79,0.72,2.39,-0.17,0.39,0.62,
2.97,0.79,0.72,2.39,-0.17,0.34,0.63,
2.974,0.79,0.72,2.39,-0.16,0.26,0.63,
2.98,0.79,0.72,2.39,-0.16,0.23,0.63,
2.981,0.79,0.72,2.39,-0.17,0.18,0.63,
2.981,0.79,0.72,2.39,-0.18,0.12,0.63,
2.981,1.11,1.10,1.27,-0.18,0.12,0.63,
2.981,1.11,1.10,1.27,-0.19,0.07,0.62,
2.983,1.11,1.10,1.27,-0.20,-0.02,0.62,
2.989,1.11,1.10,1.27,-0.21,-0.05,0.61,
2.989,1.11,1.10,1.27,-0.23,-0.11,0.60,
2.99,1.11,1.10,1.27,-0.26,-0.18,0.59,
2.99,1.46,1.17,0.47,-0.26,-0.18,0.59,
2.99,1.46,1.17,0.47,-0.29,-0.26,0.58,
2.996,1.46,1.17,0.47,-0.33,-0.36,0.56,
2.997,1.46,1.17,0.47,-0.35,-0.40,0.56,
2.997,1.46,1.17,0.47,-0.37,-0.47,0.55,
2.998,1.46,1.17,0.47,-0.41,-0.53,0.53,
3.002,1.79,1.12,0.23,-0.41,-0.53,0.53,
3.002,1.79,1.12,0.23,-0.44,-0.59,0.52,
3.003,1.79,1.12,0.23,-0.48,-0.66,0.50,
3.006,1.79,1.12,0.23,-0.49,-0.68,0.49,
3.006,1.79,1.12,0.23,-0.51,-0.72,0.48,
3.018,1.79,1.12,0.23,-0.53,-0.75,0.46,
3.019,1.95,1.10,0.76,-0.53,-0.75,0.46,
3.019,1.95,1.10,0.76,-0.55,-0.77,0.45,
3.019,1.95,1.10,0.76,-0.57,-0.79,0.43,
3.019,1.95,1.10,0.76,-0.58,-0.79,0.43,
3.02,1.95,1.10,0.76,-0.59,-0.79,0.41,
3.02,1.95,1.10,0.76,-0.59,-0.78,0.40,
3.027,2.18,0.91,1.78,-0.59,-0.78,0.40,
3.027,2.18,0.91,1.78,-0.59,-0.77,0.39,
3.028,2.18,0.91,1.78,-0.58,-0.74,0.38,
3.028,2.18,0.91,1.78,-0.58,-0.73,0.38,
3.028,2.18,0.91,1.78,-0.56,-0.70,0.37,
3.028,2.18,0.91,1.78,-0.54,-0.66,0.37,
3.032,2.21,0.62,2.89,-0.54,-0.66,0.37,
3.033,2.21,0.62,2.89,-0.52,-0.61,0.36,
3.036,2.21,0.62,2.89,-0.49,-0.53,0.35,
3.037,2.21,0.62,2.89,-0.48,-0.51,0.35,
3.037,2.21,0.62,2.89,-0.44,-0.45,0.35,
3.037,2.21,0.62,2.89,-0.41,-0.39,0.35,
3.042,2.27,0.42,3.63,-0.41,-0.39,0.35,
3.042,2.27,0.42,3.63,-0.38,-0.32,0.34,
3.05,2.27,0.42,3.63,-0.33,-0.23,0.34,
3.051,2.27,0.42,3.63,-0.31,-0.19,0.34,
3.051,2.27,0.42,3.63,-0.28,-0.13,0.34,
3.051,2.27,0.42,3.63,-0.24,-0.07,0.34,
3.051,2.20,0.21,3.71,-0.24,-0.07,0.34,
3.052,2.20,0.21,3.71,-0.20,-0.02,0.34,
3.055,2.20,0.21,3.71,-0.14,0.06,0.35,
3.055,2.20,0.21,3.71,-0.12,0.09,0.35,
3.055,2.20,0.21,3.71,-0.09,0.13,0.35,
3.06,2.20,0.21,3.71,-0.05,0.18,0.36,
3.06,2.06,0.09,3.26,-0.05,0.18,0.36,
3.061,2.06,0.09,3.26,-0.01,0.21,0.36,
3.063,2.06,0.09,3.26,0.05,0.25,0.37,
3.063,2.06,0.09,3.26,0.07,0.26,0.37,
3.066,2.06,0.09,3.26,0.10,0.28,0.38,
3.068,2.06,0.09,3.26,0.14,0.28,0.39,
3.07,1.82,0.02,2.48,0.14,0.28,0.39,
3.07,1.82,0.02,2.48,0.18,0.28,0.39,
3.073,1.82,0.02,2.48,0.23,0.26,0.41,
3.076,1.82,0.02,2.48,0.25,0.25,0.41,
3.077,1.82,0.02,2.48,0.29,0.23,0.43,
3.078,1.82,0.02,2.48,0.33,0.20,0.44,
3.083,1.64,0.05,1.77,0.33,0.20,0.44,
3.083,1.64,0.05,1.77,0.36,0.16,0.45,
3.084,1.64,0.05,1.77,0.42,0.09,0.46,
3.084,1.64,0.05,1.77,0.43,0.06,0.47,
3.087,1.64,0.05,1.77,0.47,0.01,0.48,
3.087,1.64,0.05,1.77,0.50,-0.05,0.49,
3.09,1.63,-0.08,1.14,0.50,-0.05,0.49,
3.09,1.63,-0.08,1.14,0.53,-0.12,0.50,
3.094,1.63,-0.08,1.14,0.59,-0.21,0.51,
3.094,1.63,-0.08,1.14,0.61,-0.25,0.51,
3.096,1.63,-0.08,1.14,0.64,-0.32,0.52,
3.098,1.63,-0.08,1.14,0.68,-0.38,0.53,
3.101,1.63,-0.08,1.14,0.73,-0.48,0.53,
3.101,1.78,-0.17,0.72,0.73,-0.48,0.53,
3.103,1.78,-0.17,0.72,0.77,-0.55,0.54,
3.104,1.78,-0.17,0.72,0.81,-0.62,0.54,
3.108,1.78,-0.17,0.72,0.83,-0.66,0.54,
3.124,1.78,-0.17,0.72,0.87,-0.72,0.55,
3.124,1.84,-0.27,0.58,0.87,-0.72,0.55,
3.125,1.84,-0.27,0.58,0.90,-0.78,0.55,
3.125,1.84,-0.27,0.58,0.95,-0.87,0.56,
3.125,1.84,-0.27,0.58,0.97,-0.90,0.56,
3.125,1.84,-0.27,0.58,1.01,-0.95,0.57,
3.126,1.84,-0.27,0.58,1.04,-1.00,0.57,
3.126,2.06,-0.48,0.35,1.04,-1.00,0.57,
3.126,2.06,-0.48,0.35,1.08,-1.04,0.58,
3.126,2.06,-0.48,0.35,1.13,-1.10,0.58,
3.126,2.06,-0.48,0.35,1.14,-1.12,0.58,
3.127,2.06,-0.48,0.35,1.17,-1.15,0.59,
3.129,2.06,-0.48,0.35,1.20,-1.18,0.59,
3.131,2.28,-0.66,-0.00,1.20,-1.18,0.59,
3.132,2.28,-0.66,-0.00,1.23,-1.20,0.59,
3.133,2.28,-0.66,-0.00,1.27,-1.23,0.59,
3.134,2.28,-0.66,-0.00,1.28,-1.24,0.59,
3.135,2.28,-0.66,-0.00,1.31,-1.26,0.58,
3.137,2.28,-0.66,-0.00,1.33,-1.27,0.58,
3.14,2.62,-0.81,-0.49,1.33,-1.27,0.58,
3.14,2.62,-0.81,-0.49,1.35,-1.29,0.57,
3.143,2.62,-0.81,-0.49,1.37,-1.30,0.56,
3.144,2.62,-0.81,-0.49,1.39,-1.31,0.55,
3.146,2.62,-0.81,-0.49,1.40,-1.31,0.55,
3.148,2.62,-0.81,-0.49,1.41,-1.32,0.54,
3.15,2.83,-0.91,-1.16,1.41,-1.32,0.54,
3.15,2.83,-0.91,-1.16,1.42,-1.33,0.52,
3.152,2.83,-0.91,-1.16,1.43,-1.34,0.50,
3.154,2.83,-0.91,-1.16,1.44,-1.35,0.49,
3.155,2.83,-0.91,-1.16,1.44,-1.36,0.48,
3.162,2.83,-0.91,-1.16,1.44,-1.37,0.46,
3.163,3.02,-0.99,-1.94,1.44,-1.37,0.46,
3.163,3.02,-0.99,-1.94,1.44,-1.38,0.44,
3.163,3.02,-0.99,-1.94,1.43,-1.40,0.41,
3.163,3.02,-0.99,-1.94,1.43,-1.41,0.40,
3.166,3.02,-0.99,-1.94,1.41,-1.42,0.38,
3.168,3.02,-0.99,-1.94,1.41,-1.44,0.36,
3.17,3.04,-0.99,-2.73,1.41,-1.44,0.36,
3.17,3.04,-0.99,-2.73,1.39,-1.46,0.33,
3.174,3.04,-0.99,-2.73,1.37,-1.48,0.29,
3.175,3.04,-0.99,-2.73,1.36,-1.49,0.27,
3.185,3.04,-0.99,-2.73,1.34,-1.50,0.24,
3.185,3.04,-0.99,-2.73,1.31,-1.51,0.21,
3.186,3.18,-1.03,-3.39,1.31,-1.51,0.21,
3.186,3.18,-1.03,-3.39,1.28,-1.52,0.18,
3.186,3.18,-1.03,-3.39,1.25,-1.53,0.12,
3.186,3.18,-1.03,-3.39,1.23,-1.53,0.11,
3.186,3.18,-1.03,-3.39,1.20,-1.53,0.07,
3.189,3.18,-1.03,-3.39,1.16,-1.53,0.03,
3.19,3.09,-1.10,-3.92,1.16,-1.53,0.03,
3.19,3.09,-1.10,-3.92,1.13,-1.52,-0.00,
3.195,3.09,-1.10,-3.92,1.07,-1.51,-0.06,
3.195,3.09,-1.10,-3.92,1.05,-1.51,-0.08,
3.196,3.09,-1.10,-3.92,1.00,-1.50,-0.12,
3.199,3.09,-1.10,-3.92,0.96,-1.48,-0.15,
3.2,3.02,-1.18,-4.34,0.96,-1.48,-0.15,
3.2,3.02,-1.18,-4.34,0.91,-1.46,-0.19,
3.202,3.02,-1.18,-4.34,0.83,-1.42,-0.25,
3.203,3.02,-1.18,-4.34,0.81,-1.41,-0.26,
3.205,3.02,-1.18,-4.34,0.76,-1.38,-0.30,
3.208,3.02,-1.18,-4.34,0.71,-1.35,-0.34,
3.21,2.60,-1.34,-4.58,0.71,-1.35,-0.34,
3.21,2.60,-1.34,-4.58,0.66,-1.32,-0.37,
3.213,2.60,-1.34,-4.58,0.58,-1.26,-0.42,
3.214,2.60,-1.34,-4.58,0.53,-1.22,-0.45,
3.215,2.60,-1.34,-4.58,0.50,-1.20,-0.46,
3.217,2.60,-1.34,-4.58,0.45,-1.16,-0.49,
3.219,2.25,-1.53,-4.57,0.45,-1.16,-0.49,
3.22,2.25,-1.53,-4.57,0.40,-1.11,-0.52,
3.223,2.25,-1.53,-4.57,0.33,-1.04,-0.56,
3.224,2.25,-1.53,-4.57,0.31,-1.01,-0.57,
3.225,2.25,-1.53,-4.57,0.26,-0.96,-0.60,
3.228,2.25,-1.53,-4.57,0.21,-0.91,-0.62,
3.23,1.77,-1.80,-4.30,0.21,-0.91,-0.62,
3.23,1.77,-1.80,-4.30,0.17,-0.85,-0.65,
3.232,1.77,-1.80,-4.30,0.11,-0.78,-0.68,
3.233,1.77,-1.80,-4.30,0.07,-0.73,-0.70,
3.235,1.77,-1.80,-4.30,0.06,-0.70,-0.71,
3.237,1.77,-1.80,-4.30,0.02,-0.65,-0.73,
3.24,1.40,-2.02,-4.00,0.02,-0.65,-0.73,
3.241,1.40,-2.02,-4.00,-0.01,-0.60,-0.74,
3.243,1.40,-2.02,-4.00,-0.05,-0.55,-0.77,
3.244,1.40,-2.02,-4.00,-0.07,-0.51,-0.78,
3.246,1.40,-2.02,-4.00,-0.09,-0.49,-0.79,
3.248,1.40,-2.02,-4.00,-0.11,-0.46,-0.80,
3.25,0.90,-2.12,-3.65,-0.11,-0.46,-0.80,
3.25,0.90,-2.12,-3.65,-0.13,-0.43,-0.82,
3.253,0.90,-2.12,-3.65,-0.15,-0.39,-0.83,
3.254,0.90,-2.12,-3.65,-0.16,-0.37,-0.84,
3.255,0.90,-2.12,-3.65,-0.17,-0.36,-0.85,
3.258,0.90,-2.12,-3.65,-0.18,-0.35,-0.85,
3.26,0.53,-2.26,-3.32,-0.18,-0.35,-0.85,
3.26,0.53,-2.26,-3.32,-0.18,-0.33,-0.86,
3.263,0.53,-2.26,-3.32,-0.19,-0.32,-0.87,
3.264,0.53,-2.26,-3.32,-0.20,-0.31,-0.88,
3.265,0.53,-2.26,-3.32,-0.20,-0.30,-0.88,
3.267,0.53,-2.26,-3.32,-0.20,-0.30,-0.88,
3.27,0.17,-2.29,-3.14,-0.20,-0.30,-0.88,
3.27,0.17,-2.29,-3.14,-0.20,-0.30,-0.89,
3.284,0.17,-2.29,-3.14,-0.20,-0.30,-0.89,
3.312,0.17,-2.29,-3.14,-0.20,-0.31,-0.89,
3.313,0.17,-2.29,-3.14,-0.20,-0.31,-0.89,
3.313,0.17,-2.29,-3.14,-0.21,-0.33,-0.89,
3.313,0.17,-2.29,-3.14,-0.21,-0.33,-0.89,
3.313,-0.27,-2.28,-3.01,-0.21,-0.33,-0.89,
3.314,-0.27,-2.28,-3.01,-0.21,-0.36,-0.88,
3.314,-0.27,-2.28,-3.01,-0.21,-0.37,-0.88,
3.314,-0.27,-2.28,-3.01,-0.21,-0.37,-0.88,
3.314,-0.27,-2.28,-3.01,-0.20,-0.39,-0.87,
3.315,-0.49,-2.18,-2.87,-0.20,-0.39,-0.87,
3.315,-0.49,-2.18,-2.87,-0.20,-0.40,-0.87,
3.315,-0.49,-2.18,-2.87,-0.19,-0.41,-0.86,
3.315,-0.49,-2.18,-2.87,-0.18,-0.42,-0.85,
3.316,-0.49,-2.18,-2.87,-0.18,-0.42,-0.84,
3.316,-0.49,-2.18,-2.87,-0.18,-0.43,-0.83,
3.316,-0.78,-2.16,-2.71,-0.18,-0.43,-0.83,
3.317,-0.78,-2.16,-2.71,-0.17,-0.44,-0.82,
3.317,-0.78,-2.16,-2.71,-0.16,-0.45,-0.81,
3.317,-0.78,-2.16,-2.71,-0.16,-0.45,-0.79,
3.317,-0.78,-2.16,-2.71,-0.15,-0.46,-0.79,
3.318,-0.78,-2.16,-2.71,-0.15,-0.46,-0.77,
3.318,-0.97,-2.02,-2.63,-0.15,-0.46,-0.77,
3.318,-0.97,-2.02,-2.63,-0.15,-0.47,-0.76,
3.318,-0.97,-2.02,-2.63,-0.15,-0.47,-0.73,
3.319,-0.97,-2.02,-2.63,-0.14,-0.47,-0.72,
3.319,-0.97,-2.02,-2.63,-0.14,-0.47,-0.71,
3.319,-0.97,-2.02,-2.63,-0.14,-0.47,-0.70,
3.319,-1.15,-1.88,-2.59,-0.14,-0.47,-0.70,
3.32,-1.15,-1.88,-2.59,-0.14,-0.47,-0.68,
3.325,-1.15,-1.88,-2.59,-0.13,-0.46,-0.66,
3.325,-1.15,-1.88,-2.59,-0.13,-0.45,-0.65,
3.328,-1.15,-1.88,-2.59,-0.14,-0.45,-0.64,
3.329,-1.15,-1.88,-2.59,-0.13,-0.44,-0.63,
3.33,-1.17,-1.64,-2.60,-0.13,-0.44,-0.63,
3.33,-1.17,-1.64,-2.60,-0.13,-0.44,-0.62,
3.333,-1.17,-1.64,-2.60,-0.14,-0.43,-0.60,
3.334,-1.17,-1.64,-2.60,-0.14,-0.42,-0.59,
3.337,-1.17,-1.64,-2.60,-0.15,-0.42,-0.58,
3.338,-1.17,-1.64,-2.60,-0.15,-0.42,-0.57,
3.341,-1.23,-1.30,-2.64,-0.15,-0.42,-0.57,
3.341,-1.23,-1.30,-2.64,-0.16,-0.41,-0.57,
3.343,-1.23,-1.30,-2.64,-0.17,-0.40,-0.55,
3.349,-1.23,-1.30,-2.64,-0.19,-0.40,-0.54,
3.349,-1.23,-1.30,-2.64,-0.19,-0.40,-0.54,
3.35,-1.23,-1.30,-2.64,-0.21,-0.39,-0.53,
3.35,-1.31,-0.91,-2.70,-0.21,-0.39,-0.53,
3.35,-1.31,-0.91,-2.70,-0.22,-0.39,-0.52,
3.354,-1.31,-0.91,-2.70,-0.26,-0.40,-0.51,
3.354,-1.31,-0.91,-2.70,-0.27,-0.40,-0.50,
3.357,-1.31,-0.91,-2.70,-0.28,-0.40,-0.49,
3.362,-1.31,-0.91,-2.70,-0.29,-0.41,-0.48,
3.367,-1.46,-0.53,-2.47,-0.29,-0.41,-0.48,
3.369,-1.46,-0.53,-2.47,-0.31,-0.42,-0.47,
3.369,-1.46,-0.53,-2.47,-0.33,-0.44,-0.45,
3.37,-1.46,-0.53,-2.47,-0.35,-0.46,-0.44,
3.371,-1.46,-0.53,-2.47,-0.35,-0.47,-0.44,
3.371,-1.46,-0.53,-2.47,-0.36,-0.49,-0.43,
3.371,-1.57,-0.07,-1.83,-0.36,-0.49,-0.43,
3.371,-1.57,-0.07,-1.83,-0.37,-0.51,-0.41,
3.373,-1.57,-0.07,-1.83,-0.38,-0.55,-0.39,
3.374,-1.57,-0.07,-1.83,-0.38,-0.58,-0.38,
3.376,-1.57,-0.07,-1.83,-0.38,-0.60,-0.37,
3.378,-1.57,-0.07,-1.83,-0.38,-0.64,-0.35,
3.382,-1.63,0.39,-0.90,-0.38,-0.64,-0.35,
3.382,-1.63,0.39,-0.90,-0.39,-0.68,-0.34,
3.383,-1.63,0.39,-0.90,-0.39,-0.75,-0.32,
3.384,-1.63,0.39,-0.90,-0.38,-0.80,-0.30,
3.386,-1.63,0.39,-0.90,-0.38,-0.83,-0.30,
3.388,-1.63,0.39,-0.90,-0.37,-0.89,-0.29,
3.39,-1.39,0.91,0.34,-0.37,-0.89,-0.29,
3.391,-1.39,0.91,0.34,-0.36,-0.95,-0.28,
3.393,-1.39,0.91,0.34,-0.34,-1.05,-0.26,
3.394,-1.39,0.91,0.34,-0.33,-1.11,-0.26,
3.396,-1.39,0.91,0.34,-0.32,-1.14,-0.26,
3.398,-1.39,0.91,0.34,-0.30,-1.21,-0.26,
3.4,-0.96,1.54,1.73,-0.30,-1.21,-0.26,
3.4,-0.96,1.54,1.73,-0.29,-1.28,-0.26,
3.402,-0.96,1.54,1.73,-0.26,-1.37,-0.26,
3.403,-0.96,1.54,1.73,-0.23,-1.43,-0.27,
3.408,-0.96,1.54,1.73,-0.22,-1.46,-0.28,
3.408,-0.96,1.54,1.73,-0.20,-1.51,-0.28,
3.412,-0.41,1.99,3.15,-0.20,-1.51,-0.28,
3.413,-0.41,1.99,3.15,-0.18,-1.56,-0.29,
3.413,-0.41,1.99,3.15,-0.15,-1.61,-0.31,
3.414,-0.41,1.99,3.15,-0.13,-1.63,-0.32,
3.416,-0.41,1.99,3.15,-0.11,-1.64,-0.33,
3.417,-0.41,1.99,3.15,-0.09,-1.65,-0.34,
3.42,0.07,2.24,4.32,-0.09,-1.65,-0.34,
3.42,0.07,2.24,4.32,-0.07,-1.65,-0.36,
3.426,0.07,2.24,4.32,-0.04,-1.64,-0.38,
3.427,0.07,2.24,4.32,-0.02,-1.63,-0.39,
3.427,0.07,2.24,4.32,-0.01,-1.62,-0.40,
3.428,0.07,2.24,4.32,0.01,-1.60,-0.42,
3.43,0.44,2.33,5.24,0.01,-1.60,-0.42,
3.43,0.44,2.33,5.24,0.03,-1.58,-0.43,
3.438,0.44,2.33,5.24,0.06,-1.52,-0.45,
3.453,0.44,2.33,5.24,0.08,-1.48,-0.47,
3.453,0.44,2.33,5.24,0.09,-1.45,-0.47,
3.453,0.44,2.33,5.24,0.11,-1.40,-0.49,
3.453,0.59,2.33,5.80,0.11,-1.40,-0.49,
3.471,0.59,2.33,5.80,0.13,-1.34,-0.50,
3.472,0.59,2.33,5.80,0.15,-1.24,-0.52,
3.472,0.59,2.33,5.80,0.16,-1.18,-0.53,
3.472,0.59,2.33,5.80,0.17,-1.14,-0.54,
3.472,0.59,2.33,5.80,0.18,-1.03,-0.56,
3.473,0.59,2.33,5.80,0.19,-0.96,-0.57,
3.473,0.54,2.27,5.66,0.19,-0.96,-0.57,
3.473,0.54,2.27,5.66,0.19,-0.89,-0.58,
3.473,0.54,2.27,5.66,0.19,-0.81,-0.58,
3.473,0.54,2.27,5.66,0.19,-0.78,-0.59,
3.474,0.54,2.27,5.66,0.19,-0.71,-0.60,
3.474,0.41,2.24,5.30,0.19,-0.71,-0.60,
3.474,0.41,2.24,5.30,0.19,-0.64,-0.61,
3.474,0.41,2.24,5.30,0.18,-0.54,-0.62,
3.474,0.41,2.24,5.30,0.18,-0.49,-0.62,
3.475,0.41,2.24,5.30,0.17,-0.46,-0.63,
3.475,0.41,2.24,5.30,0.17,-0.40,-0.63,
3.475,0.17,2.23,4.68,0.17,-0.40,-0.63,
3.475,0.17,2.23,4.68,0.16,-0.33,-0.64,
3.475,0.17,2.23,4.68,0.15,-0.29,-0.65,
3.476,0.17,2.23,4.68,0.15,-0.25,-0.65,
3.476,0.17,2.23,4.68,0.14,-0.22,-0.66,
3.48,0.17,2.23,4.68,0.14,-0.19,-0.67,
3.48,-0.07,2.18,4.11,0.14,-0.19,-0.67,
3.481,-0.07,2.18,4.11,0.13,-0.16,-0.67,
3.482,-0.07,2.18,4.11,0.13,-0.14,-0.68,
3.483,-0.07,2.18,4.11,0.12,-0.11,-0.68,
3.485,-0.07,2.18,4.11,0.12,-0.09,-0.69,
3.488,-0.07,2.18,4.11,0.12,-0.08,-0.69,
3.496,-0.29,2.05,3.65,0.12,-0.08,-0.69,
3.496,-0.29,2.05,3.65,0.12,-0.06,-0.69,
3.497,-0.29,2.05,3.65,0.12,-0.05,-0.70,
3.497,-0.29,2.05,3.65,0.12,-0.04,-0.70,
3.497,-0.29,2.05,3.65,0.12,-0.03,-0.70,
3.498,-0.29,2.05,3.65,0.13,-0.02,-0.71,
3.5,-0.55,1.90,3.38,0.13,-0.02,-0.71,
3.5,-0.55,1.90,3.38,0.13,-0.01,-0.71,
3.503,-0.55,1.90,3.38,0.13,-0.01,-0.71,
3.503,-0.55,1.90,3.38,0.14,-0.01,-0.71,
3.506,-0.55,1.90,3.38,0.15,-0.01,-0.71,
3.508,-0.55,1.90,3.38,0.15,-0.01,-0.71,
3.51,-0.79,1.72,3.16,0.15,-0.01,-0.71,
3.51,-0.79,1.72,3.16,0.16,-0.01,-0.70,
3.513,-0.79,1.72,3.16,0.17,-0.01,-0.70,
3.513,-0.79,1.72,3.16,0.18,-0.01,-0.70,
3.516,-0.79,1.72,3.16,0.19,-0.02,-0.69,
3.518,-0.79,1.72,3.16,0.20,-0.02,-0.69,
3.52,-1.06,1.46,2.98,0.20,-0.02,-0.69,
3.52,-1.06,1.46,2.98,0.21,-0.02,-0.68,
3.523,-1.06,1.46,2.98,0.23,-0.02,-0.68,
3.524,-1.06,1.46,2.98,0.23,-0.02,-0.67,
3.526,-1.06,1.46,2.98,0.25,-0.02,-0.67,
3.528,-1.06,1.46,2.98,0.26,-0.02,-0.66,
3.53,-1.26,1.20,2.86,0.26,-0.02,-0.66,
3.53,-1.26,1.20,2.86,0.28,-0.02,-0.66,
3.533,-1.26,1.20,2.86,0.29,-0.01,-0.65,
3.533,-1.26,1.20,2.86,0.31,-0.01,-0.64,
3.535,-1.26,1.20,2.86,0.33,-0.01,-0.64,
3.538,-1.26,1.20,2.86,0.35,0.00,-0.63,
3.543,-1.36,0.90,2.89,0.35,0.00,-0.63,
3.544,-1.36,0.90,2.89,0.37,0.01,-0.62,
3.545,-1.36,0.90,2.89,0.40,0.02,-0.61,
3.546,-1.36,0.90,2.89,0.43,0.03,-0.60,
3.546,-1.36,0.90,2.89,0.45,0.04,-0.59,
3.549,-1.36,0.90,2.89,0.47,0.06,-0.57,
3.552,-1.60,0.73,2.75,0.47,0.06,-0.57,
3.553,-1.60,0.73,2.75,0.49,0.08,-0.55,
3.554,-1.60,0.73,2.75,0.51,0.10,-0.53,
3.554,-1.60,0.73,2.75,0.52,0.11,-0.51,
3.561,-1.60,0.73,2.75,0.52,0.13,-0.49,
3.561,-1.60,0.73,2.75,0.53,0.15,-0.47,
3.562,-1.90,0.61,2.04,0.53,0.15,-0.47,
3.562,-1.90,0.61,2.04,0.52,0.17,-0.45,
3.563,-1.90,0.61,2.04,0.51,0.19,-0.43,
3.57,-1.90,0.61,2.04,0.50,0.21,-0.41,
3.57,-1.90,0.61,2.04,0.49,0.23,-0.40,
3.571,-1.90,0.61,2.04,0.46,0.25,-0.38,
3.588,-1.85,0.55,0.94,0.46,0.25,-0.38,
3.589,-1.85,0.55,0.94,0.44,0.27,-0.37,
3.589,-1.85,0.55,0.94,0.41,0.29,-0.36,
3.589,-1.85,0.55,0.94,0.38,0.30,-0.35,
3.589,-1.85,0.55,0.94,0.34,0.31,-0.34,
3.59,-1.85,0.55,0.94,0.31,0.31,-0.33,
3.59,-1.75,0.54,0.13,0.31,0.31,-0.33,
3.59,-1.75,0.54,0.13,0.27,0.32,-0.32,
3.59,-1.75,0.54,0.13,0.21,0.31,-0.32,
3.59,-1.75,0.54,0.13,0.19,0.31,-0.31,
3.59,-1.75,0.54,0.13,0.16,0.31,-0.31,
3.591,-1.75,0.54,0.13,0.12,0.30,-0.31,
3.592,-1.60,0.55,-0.17,0.12,0.30,-0.31,
3.592,-1.60,0.55,-0.17,0.08,0.30,-0.30,
3.594,-1.60,0.55,-0.17,0.05,0.30,-0.30,
3.595,-1.60,0.55,-0.17,0.02,0.30,-0.30,
3.595,-1.60,0.55,-0.17,-0.01,0.30,-0.30,
3.598,-1.60,0.55,-0.17,-0.04,0.32,-0.30,
3.6,-1.60,0.36,0.00,-0.04,0.32,-0.30,
3.601,-1.60,0.36,0.00,-0.07,0.33,-0.29,
3.603,-1.60,0.36,0.00,-0.09,0.35,-0.29,
3.604,-1.60,0.36,0.00,-0.11,0.37,-0.29,
3.609,-1.60,0.36,0.00,-0.12,0.39,-0.28,
3.633,-1.60,0.36,0.00,-0.14,0.42,-0.27,
3.634,-1.69,0.02,0.38,-0.14,0.42,-0.27,
3.634,-1.69,0.02,0.38,-0.15,0.46,-0.26,
3.634,-1.69,0.02,0.38,-0.16,0.50,-0.25,
3.634,-1.69,0.02,0.38,-0.16,0.54,-0.24,
3.635,-1.69,0.02,0.38,-0.17,0.58,-0.23,
3.635,-1.69,0.02,0.38,-0.17,0.63,-0.21,
3.635,-1.99,-0.34,0.64,-0.17,0.63,-0.21,
3.635,-1.99,-0.34,0.64,-0.18,0.68,-0.19,
3.635,-1.99,-0.34,0.64,-0.17,0.72,-0.18,
3.636,-1.99,-0.34,0.64,-0.17,0.77,-0.16,
3.636,-1.99,-0.34,0.64,-0.17,0.82,-0.14,
3.636,-1.99,-0.34,0.64,-0.17,0.86,-0.11,
3.636,-2.27,-0.59,0.54,-0.17,0.86,-0.11,
3.636,-2.27,-0.59,0.54,-0.16,0.89,-0.09,
3.637,-2.27,-0.59,0.54,-0.16,0.93,-0.07,
3.637,-2.27,-0.59,0.54,-0.16,0.96,-0.04,
3.637,-2.27,-0.59,0.54,-0.16,0.98,-0.02,
3.642,-2.27,-0.59,0.54,-0.16,1.00,0.01,
3.642,-2.60,-0.68,0.14,-0.16,1.00,0.01,
3.642,-2.60,-0.68,0.14,-0.16,1.02,0.03,
3.642,-2.60,-0.68,0.14,-0.16,1.04,0.07,
3.643,-2.60,-0.68,0.14,-0.16,1.04,0.08,
3.646,-2.60,-0.68,0.14,-0.17,1.05,0.10,
3.647,-2.60,-0.68,0.14,-0.18,1.05,0.12,
3.65,-2.64,-0.68,-0.38,-0.18,1.05,0.12,
3.65,-2.64,-0.68,-0.38,-0.18,1.05,0.15,
3.652,-2.64,-0.68,-0.38,-0.19,1.04,0.17,
3.654,-2.64,-0.68,-0.38,-0.19,1.03,0.19,
3.656,-2.64,-0.68,-0.38,-0.20,1.02,0.21,
3.659,-2.64,-0.68,-0.38,-0.20,1.00,0.23,
3.66,-2.69,-0.60,-0.74,-0.20,1.00,0.23,
3.661,-2.69,-0.60,-0.74,-0.21,0.97,0.25,
3.663,-2.69,-0.60,-0.74,-0.22,0.94,0.26,
3.664,-2.69,-0.60,-0.74,-0.22,0.91,0.28,
3.666,-2.69,-0.60,-0.74,-0.23,0.88,0.30,
3.668,-2.69,-0.60,-0.74,-0.24,0.84,0.31,
3.67,-2.51,-0.49,-0.87,-0.24,0.84,0.31,
3.67,-2.51,-0.49,-0.87,-0.24,0.80,0.33,
3.675,-2.51,-0.49,-0.87,-0.24,0.76,0.34,
3.675,-2.51,-0.49,-0.87,-0.25,0.72,0.35,
3.677,-2.51,-0.49,-0.87,-0.25,0.68,0.37,
3.678,-2.51,-0.49,-0.87,-0.25,0.64,0.38,
3.68,-2.47,-0.49,-0.70,-0.25,0.64,0.38,
3.68,-2.47,-0.49,-0.70,-0.25,0.60,0.39,
3.682,-2.47,-0.49,-0.70,-0.26,0.56,0.41,
3.683,-2.47,-0.49,-0.70,-0.25,0.53,0.42,
3.685,-2.47,-0.49,-0.70,-0.25,0.50,0.44,
3.693,-2.47,-0.49,-0.70,-0.24,0.47,0.45,
3.693,-2.37,-0.61,-0.23,-0.24,0.47,0.45,
3.694,-2.37,-0.61,-0.23,-0.23,0.45,0.47,
3.694,-2.37,-0.61,-0.23,-0.22,0.42,0.49,
3.694,-2.37,-0.61,-0.23,-0.22,0.41,0.50,
3.698,-2.37,-0.61,-0.23,-0.22,0.39,0.52,
3.698,-2.37,-0.61,-0.23,-0.20,0.37,0.54,
3.7,-2.36,-0.76,0.27,-0.20,0.37,0.54,
3.702,-2.36,-0.76,0.27,-0.19,0.36,0.56,
3.703,-2.36,-0.76,0.27,-0.17,0.35,0.59,
3.713,-2.36,-0.76,0.27,-0.16,0.34,0.60,
3.713,-2.36,-0.76,0.27,-0.15,0.34,0.62,
3.713,-2.36,-0.76,0.27,-0.14,0.34,0.64,
3.713,-2.32,-0.84,0.56,-0.14,0.34,0.64,
3.713,-2.32,-0.84,0.56,-0.13,0.33,0.66,
3.713,-2.32,-0.84,0.56,-0.11,0.33,0.69,
3.714,-2.32,-0.84,0.56,-0.11,0.33,0.70,
3.715,-2.32,-0.84,0.56,-0.10,0.33,0.72,
3.718,-2.32,-0.84,0.56,-0.09,0.33,0.75,
3.725,-2.32,-0.95,0.67,-0.09,0.33,0.75,
3.725,-2.32,-0.95,0.67,-0.07,0.33,0.77,
3.726,-2.32,-0.95,0.67,-0.05,0.33,0.81,
3.726,-2.32,-0.95,0.67,-0.05,0.32,0.82,
3.726,-2.32,-0.95,0.67,-0.04,0.32,0.84,
3.728,-2.32,-0.95,0.67,-0.03,0.32,0.86,
3.729,-2.15,-1.01,0.66,-0.03,0.32,0.86,
3.73,-2.15,-1.01,0.66,-0.02,0.32,0.88,
3.732,-2.15,-1.01,0.66,0.00,0.32,0.91,
3.734,-2.15,-1.01,0.66,0.00,0.31,0.92,
3.735,-2.15,-1.01,0.66,0.01,0.31,0.94,
3.739,-2.15,-1.01,0.66,0.03,0.30,0.96,
3.741,-1.91,-1.05,0.56,0.03,0.30,0.96,
3.741,-1.91,-1.05,0.56,0.04,0.29,0.97,
3.743,-1.91,-1.05,0.56,0.06,0.27,1.00,
3.746,-1.91,-1.05,0.56,0.06,0.26,1.00,
3.746,-1.91,-1.05,0.56,0.07,0.25,1.02,
3.747,-1.91,-1.05,0.56,0.09,0.23,1.03,
3.75,-1.48,-1.01,0.46,0.09,0.23,1.03,
3.75,-1.48,-1.01,0.46,0.10,0.21,1.04,
3.752,-1.48,-1.01,0.46,0.12,0.19,1.05,
3.754,-1.48,-1.01,0.46,0.12,0.18,1.06,
3.756,-1.48,-1.01,0.46,0.14,0.17,1.07,
3.758,-1.48,-1.01,0.46,0.16,0.15,1.07,
3.759,-1.10,-1.02,0.35,0.16,0.15,1.07,
3.76,-1.10,-1.02,0.35,0.18,0.14,1.07,
3.762,-1.10,-1.02,0.35,0.20,0.13,1.08,
3.764,-1.10,-1.02,0.35,0.21,0.13,1.08,
3.765,-1.10,-1.02,0.35,0.22,0.13,1.08,
3.767,-1.10,-1.02,0.35,0.23,0.13,1.08,
3.77,-0.67,-1.07,0.06,0.23,0.13,1.08,
3.77,-0.67,-1.07,0.06,0.25,0.13,1.08,
3.773,-0.67,-1.07,0.06,0.27,0.13,1.08,
3.794,-0.67,-1.07,0.06,0.28,0.13,1.08,
3.795,-0.67,-1.07,0.06,0.30,0.15,1.08,
3.795,-0.67,-1.07,0.06,0.30,0.15,1.08,
3.795,-0.39,-1.19,-0.40,0.30,0.15,1.08,
3.796,-0.39,-1.19,-0.40,0.32,0.15,1.08,
3.796,-0.39,-1.19,-0.40,0.33,0.17,1.07,
3.797,-0.39,-1.19,-0.40,0.34,0.17,1.07,
3.797,-0.39,-1.19,-0.40,0.35,0.18,1.07,
3.798,-0.39,-1.19,-0.40,0.35,0.20,1.08,
3.798,-0.23,-1.28,-1.01,0.35,0.20,1.08,
3.798,-0.23,-1.28,-1.01,0.36,0.20,1.07,
3.799,-0.23,-1.28,-1.01,0.37,0.23,1.07,
3.799,-0.23,-1.28,-1.01,0.38,0.24,1.07,
3.8,-0.23,-1.28,-1.01,0.38,0.26,1.07,
3.8,-0.23,-1.28,-1.01,0.39,0.28,1.07,
3.8,-0.13,-1.42,-1.68,0.39,0.28,1.07,
3.801,-0.13,-1.42,-1.68,0.39,0.29,1.07,
3.808,-0.13,-1.42,-1.68,0.39,0.32,1.06,
3.809,-0.13,-1.42,-1.68,0.40,0.34,1.06,
3.809,-0.13,-1.42,-1.68,0.40,0.35,1.06,
3.809,-0.13,-1.42,-1.68,0.40,0.38,1.06,
3.81,-0.03,-1.50,-2.41,0.40,0.38,1.06,
3.81,-0.03,-1.50,-2.41,0.40,0.40,1.05,
3.813,-0.03,-1.50,-2.41,0.39,0.43,1.05,
3.813,-0.03,-1.50,-2.41,0.39,0.45,1.05,
3.815,-0.03,-1.50,-2.41,0.38,0.47,1.04,
3.817,-0.03,-1.50,-2.41,0.38,0.49,1.04,
3.82,0.10,-1.59,-3.13,0.38,0.49,1.04,
3.82,0.10,-1.59,-3.13,0.36,0.51,1.03,
3.823,0.10,-1.59,-3.13,0.36,0.54,1.03,
3.824,0.10,-1.59,-3.13,0.35,0.55,1.02,
3.826,0.10,-1.59,-3.13,0.34,0.56,1.01,
3.827,0.10,-1.59,-3.13,0.33,0.58,1.00,
3.83,0.22,-1.62,-3.77,0.33,0.58,1.00,
3.83,0.22,-1.62,-3.77,0.32,0.60,1.00,
3.832,0.22,-1.62,-3.77,0.30,0.62,0.98,
3.833,0.22,-1.62,-3.77,0.29,0.63,0.98,
3.835,0.22,-1.62,-3.77,0.28,0.64,0.97,
3.842,0.22,-1.62,-3.77,0.27,0.65,0.96,
3.843,0.28,-1.58,-4.25,0.27,0.65,0.96,
3.843,0.28,-1.58,-4.25,0.25,0.66,0.95,
3.843,0.28,-1.58,-4.25,0.23,0.68,0.93,
3.843,0.28,-1.58,-4.25,0.22,0.68,0.92,
3.845,0.28,-1.58,-4.25,0.20,0.70,0.91,
3.848,0.28,-1.58,-4.25,0.18,0.70,0.90,
3.85,0.30,-1.64,-4.62,0.18,0.70,0.90,
3.85,0.30,-1.64,-4.62,0.16,0.71,0.89,
3.87,0.30,-1.64,-4.62,0.13,0.72,0.87,
3.871,0.30,-1.64,-4.62,0.12,0.72,0.87,
3.871,0.30,-1.64,-4.62,0.10,0.72,0.86,
3.871,0.30,-1.64,-4.62,0.08,0.72,0.85,
3.871,0.21,-1.60,-4.80,0.08,0.72,0.85,
3.871,0.21,-1.60,-4.80,0.05,0.73,0.84,
3.872,0.21,-1.60,-4.80,0.03,0.73,0.83,
3.872,0.21,-1.60,-4.80,0.02,0.73,0.83,
3.872,0.21,-1.60,-4.80,-0.00,0.73,0.82,
3.872,0.21,-1.60,-4.80,-0.02,0.72,0.81,
3.872,0.05,-1.62,-4.62,-0.02,0.72,0.81,
3.873,0.05,-1.62,-4.62,-0.03,0.72,0.80,
3.873,0.05,-1.62,-4.62,-0.05,0.72,0.80,
3.875,0.05,-1.62,-4.62,-0.05,0.72,0.79,
3.878,0.05,-1.62,-4.62,-0.06,0.71,0.79,
3.879,0.05,-1.62,-4.62,-0.08,0.71,0.78,
3.881,-0.08,-1.61,-4.10,-0.08,0.71,0.78,
3.881,-0.08,-1.61,-4.10,-0.08,0.71,0.78,
3.882,-0.08,-1.61,-4.10,-0.09,0.70,0.78,
3.883,-0.08,-1.61,-4.10,-0.09,0.70,0.78,
3.885,-0.08,-1.61,-4.10,-0.09,0.70,0.78,
3.888,-0.08,-1.61,-4.10,-0.09,0.70,0.78,
3.89,-0.30,-1.54,-3.46,-0.09,0.70,0.78,
3.89,-0.30,-1.54,-3.46,-0.10,0.70,0.78,
3.893,-0.30,-1.54,-3.46,-0.09,0.70,0.79,
3.893,-0.30,-1.54,-3.46,-0.10,0.69,0.79,
3.895,-0.30,-1.54,-3.46,-0.10,0.70,0.79,
3.897,-0.30,-1.54,-3.46,-0.10,0.70,0.80,
3.9,-0.45,-1.44,-2.94,-0.10,0.70,0.80,
3.9,-0.45,-1.44,-2.94,-0.10,0.70,0.80,
3.903,-0.45,-1.44,-2.94,-0.10,0.69,0.81,
3.904,-0.45,-1.44,-2.94,-0.10,0.69,0.81,
3.906,-0.45,-1.44,-2.94,-0.10,0.69,0.82,
3.908,-0.45,-1.44,-2.94,-0.11,0.68,0.83,
3.91,-0.48,-1.32,-2.47,-0.11,0.68,0.83,
3.91,-0.48,-1.32,-2.47,-0.11,0.68,0.83,
3.913,-0.48,-1.32,-2.47,-0.11,0.67,0.84,
3.914,-0.48,-1.32,-2.47,-0.12,0.67,0.84,
3.916,-0.48,-1.32,-2.47,-0.11,0.66,0.85,
3.918,-0.48,-1.32,-2.47,-0.11,0.65,0.86,
3.922,-0.55,-1.07,-1.83,-0.11,0.65,0.86,
3.923,-0.55,-1.07,-1.83,-0.12,0.65,0.87,
3.923,-0.55,-1.07,-1.83,-0.11,0.64,0.88,
3.924,-0.55,-1.07,-1.83,-0.11,0.64,0.88,
3.926,-0.55,-1.07,-1.83,-0.10,0.64,0.89,
3.928,-0.55,-1.07,-1.83,-0.10,0.64,0.90,
3.93,-0.63,-0.84,-1.03,-0.10,0.64,0.90,
3.93,-0.63,-0.84,-1.03,-0.09,0.63,0.91,
3.933,-0.63,-0.84,-1.03,-0.08,0.62,0.93,
3.934,-0.63,-0.84,-1.03,-0.08,0.62,0.93,
3.938,-0.63,-0.84,-1.03,-0.07,0.62,0.95,
3.938,-0.63,-0.84,-1.03,-0.06,0.62,0.96,
3.941,-0.72,-0.70,-0.04,-0.06,0.62,0.96,
3.96,-0.72,-0.70,-0.04,-0.05,0.61,0.97,
3.96,-0.72,-0.70,-0.04,-0.02,0.60,0.99,
3.96,-0.72,-0.70,-0.04,-0.02,0.60,1.00,
3.961,-0.72,-0.70,-0.04,-0.00,0.60,1.01,
3.961,-0.72,-0.70,-0.04,0.01,0.59,1.02,
3.961,-0.69,-0.57,1.13,0.01,0.59,1.02,
3.961,-0.69,-0.57,1.13,0.03,0.60,1.05,
3.962,-0.69,-0.57,1.13,0.06,0.60,1.08,
3.962,-0.69,-0.57,1.13,0.07,0.60,1.10,
3.962,-0.69,-0.57,1.13,0.08,0.60,1.13,
3.962,-0.69,-0.57,1.13,0.10,0.59,1.16,
3.963,-0.91,-0.43,2.30,0.10,0.59,1.16,
3.963,-0.91,-0.43,2.30,0.11,0.58,1.19,
3.963,-0.91,-0.43,2.30,0.13,0.56,1.23,
3.963,-0.91,-0.43,2.30,0.14,0.55,1.24,
3.974,-0.91,-0.43,2.30,0.15,0.54,1.26,
3.974,-0.91,-0.43,2.30,0.16,0.53,1.28,
3.974,-0.66,-0.08,3.24,0.16,0.53,1.28,
3.974,-0.66,-0.08,3.24,0.17,0.53,1.29,
3.975,-0.66,-0.08,3.24,0.19,0.53,1.31,
3.975,-0.66,-0.08,3.24,0.20,0.52,1.31,
3.979,-0.66,-0.08,3.24,0.21,0.52,1.31,
3.979,-0.66,-0.08,3.24,0.22,0.52,1.31,
3.982,0.05,0.20,3.94,0.22,0.52,1.31,
3.982,0.05,0.20,3.94,0.23,0.51,1.31,
3.997,0.05,0.20,3.94,0.24,0.49,1.30,
3.997,0.05,0.20,3.94,0.25,0.48,1.30,
3.998,0.05,0.20,3.94,0.25,0.47,1.29,
3.998,0.05,0.20,3.94,0.25,0.45,1.28,
3.998,0.80,0.59,4.36,0.25,0.45,1.28,
3.998,0.80,0.59,4.36,0.25,0.44,1.27,
3.998,0.80,0.59,4.36,0.26,0.42,1.25,
3.999,0.80,0.59,4.36,0.26,0.41,1.24,
3.999,0.80,0.59,4.36,0.26,0.39,1.23,
3.999,0.80,0.59,4.36,0.26,0.37,1.22,
4.0,1.28,0.93,4.72,0.26,0.37,1.22,
4.001,1.28,0.93,4.72,0.26,0.36,1.20,
4.003,1.28,0.93,4.72,0.27,0.36,1.18,
4.003,1.28,0.93,4.72,0.27,0.36,1.17,
4.005,1.28,0.93,4.72,0.27,0.36,1.15,
4.007,1.28,0.93,4.72,0.27,0.37,1.13,
4.01,1.65,1.17,4.96,0.27,0.37,1.13,
4.01,1.65,1.17,4.96,0.28,0.38,1.11,
4.012,1.65,1.17,4.96,0.28,0.39,1.07,
4.014,1.65,1.17,4.96,0.28,0.40,1.06,
4.015,1.65,1.17,4.96,0.29,0.41,1.03,
4.019,1.65,1.17,4.96,0.29,0.41,1.01,
4.02,2.01,1.17,5.02,0.29,0.41,1.01,
4.02,2.01,1.17,5.02,0.29,0.42,0.98,
4.022,2.01,1.17,5.02,0.29,0.43,0.95,
4.024,2.01,1.17,5.02,0.29,0.43,0.94,
4.026,2.01,1.17,5.02,0.29,0.44,0.92,
4.027,2.01,1.17,5.02,0.29,0.45,0.90,
4.029,2.07,1.26,4.85,0.29,0.45,0.90,
4.03,2.07,1.26,4.85,0.29,0.46,0.88,
4.032,2.07,1.26,4.85,0.29,0.48,0.85,
4.033,2.07,1.26,4.85,0.29,0.49,0.84,
4.036,2.07,1.26,4.85,0.28,0.49,0.82,
4.038,2.07,1.26,4.85,0.27,0.50,0.80,
4.04,2.19,1.20,4.40,0.27,0.50,0.80,
4.04,2.19,1.20,4.40,0.26,0.51,0.77,
4.043,2.19,1.20,4.40,0.25,0.53,0.74,
4.044,2.19,1.20,4.40,0.24,0.53,0.73,
4.045,2.19,1.20,4.40,0.22,0.54,0.71,
4.048,2.19,1.20,4.40,0.21,0.55,0.69,
4.05,2.27,1.17,3.83,0.21,0.55,0.69,
4.05,2.27,1.17,3.83,0.20,0.56,0.67,
4.054,2.27,1.17,3.83,0.17,0.57,0.64,
4.056,2.27,1.17,3.83,0.16,0.58,0.62,
4.056,2.27,1.17,3.83,0.15,0.58,0.60,
4.058,2.27,1.17,3.83,0.13,0.59,0.58,
4.061,2.57,1.05,3.29,0.13,0.59,0.58,
4.062,2.57,1.05,3.29,0.11,0.59,0.55,
4.064,2.57,1.05,3.29,0.08,0.59,0.51,
4.065,2.57,1.05,3.29,0.07,0.59,0.50,
4.066,2.57,1.05,3.29,0.05,0.59,0.47,
4.068,2.57,1.05,3.29,0.03,0.58,0.44,
4.07,2.72,0.97,2.96,0.03,0.58,0.44,
4.07,2.72,0.97,2.96,0.02,0.58,0.42,
4.073,2.72,0.97,2.96,-0.00,0.56,0.38,
4.074,2.72,0.97,2.96,-0.01,0.56,0.37,
4.076,2.72,0.97,2.96,-0.03,0.55,0.35,
4.078,2.72,0.97,2.96,-0.04,0.54,0.32,
4.081,2.71,0.71,2.84,-0.04,0.54,0.32,
4.081,2.71,0.71,2.84,-0.05,0.53,0.30,
4.085,2.71,0.71,2.84,-0.06,0.51,0.27,
4.089,2.71,0.71,2.84,-0.07,0.51,0.26,
4.089,2.71,0.71,2.84,-0.07,0.51,0.24,
4.089,2.71,0.71,2.84,-0.08,0.51,0.23,
4.094,2.43,0.57,2.67,-0.08,0.51,0.23,
4.094,2.43,0.57,2.67,-0.09,0.51,0.21,
4.095,2.43,0.57,2.67,-0.10,0.52,0.19,
4.095,2.43,0.57,2.67,-0.10,0.52,0.19,
4.096,2.43,0.57,2.67,-0.12,0.53,0.17,
4.098,2.43,0.57,2.67,-0.13,0.54,0.16,
4.128,2.32,0.42,2.16,-0.13,0.54,0.16,
4.129,2.32,0.42,2.16,-0.15,0.54,0.15,
4.129,2.32,0.42,2.16,-0.18,0.56,0.13,
4.129,2.32,0.42,2.16,-0.19,0.56,0.12,
4.129,2.32,0.42,2.16,-0.21,0.57,0.11,
4.146,2.32,0.42,2.16,-0.24,0.58,0.09,
4.146,2.24,0.32,1.42,-0.24,0.58,0.09,
4.146,2.24,0.32,1.42,-0.26,0.59,0.08,
4.146,2.24,0.32,1.42,-0.31,0.60,0.05,
4.146,2.24,0.32,1.42,-0.32,0.60,0.04,
4.147,2.24,0.32,1.42,-0.35,0.60,0.03,
4.147,2.24,0.32,1.42,-0.37,0.60,0.01,
4.147,2.27,0.29,0.91,-0.37,0.60,0.01,
4.147,2.27,0.29,0.91,-0.40,0.59,-0.01,
4.148,2.27,0.29,0.91,-0.44,0.58,-0.03,
4.148,2.27,0.29,0.91,-0.46,0.57,-0.04,
4.148,2.27,0.29,0.91,-0.48,0.56,-0.06,
4.148,2.27,0.29,0.91,-0.51,0.54,-0.08,
4.148,2.23,0.31,0.68,-0.51,0.54,-0.08,
4.149,2.23,0.31,0.68,-0.54,0.53,-0.09,
4.149,2.23,0.31,0.68,-0.58,0.50,-0.12,
4.149,2.23,0.31,0.68,-0.59,0.50,-0.13,
4.149,2.23,0.31,0.68,-0.61,0.48,-0.15,
4.15,2.23,0.31,0.68,-0.64,0.46,-0.17,
4.15,2.29,0.26,0.86,-0.64,0.46,-0.17,
4.15,2.29,0.26,0.86,-0.65,0.45,-0.19,
4.15,2.29,0.26,0.86,-0.67,0.42,-0.22,
4.15,2.29,0.26,0.86,-0.68,0.42,-0.23,
4.151,2.29,0.26,0.86,-0.68,0.41,-0.25,
4.151,2.29,0.26,0.86,-0.69,0.39,-0.27,
4.155,2.29,0.26,0.86,-0.68,0.39,-0.28,
4.155,2.21,0.06,1.60,-0.68,0.39,-0.28,
4.155,2.21,0.06,1.60,-0.67,0.39,-0.30,
4.155,2.21,0.06,1.60,-0.66,0.39,-0.30,
4.156,2.21,0.06,1.60,-0.64,0.39,-0.31,
4.158,2.21,0.06,1.60,-0.63,0.40,-0.32,
4.16,2.09,-0.33,2.43,-0.63,0.40,-0.32,
4.16,2.09,-0.33,2.43,-0.60,0.41,-0.33,
4.162,2.09,-0.33,2.43,-0.56,0.43,-0.35,
4.163,2.09,-0.33,2.43,-0.54,0.44,-0.35,
4.165,2.09,-0.33,2.43,-0.51,0.46,-0.35,
4.167,2.09,-0.33,2.43,-0.48,0.48,-0.36,
4.171,1.90,-0.72,2.91,-0.48,0.48,-0.36,
4.172,1.90,-0.72,2.91,-0.44,0.49,-0.36,
4.175,1.90,-0.72,2.91,-0.39,0.53,-0.36,
4.176,1.90,-0.72,2.91,-0.37,0.54,-0.35,
4.176,1.90,-0.72,2.91,-0.33,0.56,-0.35,
4.177,1.90,-0.72,2.91,-0.29,0.59,-0.34,
4.18,1.52,-1.04,2.88,-0.29,0.59,-0.34,
4.18,1.52,-1.04,2.88,-0.25,0.62,-0.33,
4.182,1.52,-1.04,2.88,-0.20,0.66,-0.31,
4.183,1.52,-1.04,2.88,-0.18,0.67,-0.30,
4.185,1.52,-1.04,2.88,-0.15,0.69,-0.28,
4.188,1.52,-1.04,2.88,-0.12,0.71,-0.27,
4.19,1.09,-1.20,2.29,-0.12,0.71,-0.27,
4.19,1.09,-1.20,2.29,-0.08,0.73,-0.25,
4.193,1.09,-1.20,2.29,-0.04,0.75,-0.22,
4.198,1.09,-1.20,2.29,-0.02,0.75,-0.21,
4.198,1.09,-1.20,2.29,0.00,0.75,-0.20,
4.198,1.09,-1.20,2.29,0.03,0.75,-0.17,
4.2,0.88,-1.28,1.45,0.03,0.75,-0.17,
4.2,0.88,-1.28,1.45,0.05,0.74,-0.16,
4.202,0.88,-1.28,1.45,0.09,0.71,-0.13,
4.204,0.88,-1.28,1.45,0.10,0.70,-0.12,
4.206,0.88,-1.28,1.45,0.12,0.67,-0.10,
4.207,0.88,-1.28,1.45,0.15,0.63,-0.09,
4.21,0.76,-1.17,0.64,0.15,0.63,-0.09,
4.21,0.76,-1.17,0.64,0.17,0.59,-0.07,
4.212,0.76,-1.17,0.64,0.19,0.53,-0.05,
4.214,0.76,-1.17,0.64,0.20,0.50,-0.04,
4.216,0.76,-1.17,0.64,0.22,0.45,-0.03,
4.218,0.76,-1.17,0.64,0.24,0.38,-0.01,
4.226,0.83,-1.14,-0.09,0.24,0.38,-0.01,
4.227,0.83,-1.14,-0.09,0.25,0.32,0.00,
4.227,0.83,-1.14,-0.09,0.27,0.22,0.02,
4.227,0.83,-1.14,-0.09,0.27,0.18,0.03,
4.227,0.83,-1.14,-0.09,0.29,0.11,0.04,
4.228,0.83,-1.14,-0.09,0.29,0.04,0.05,
4.23,0.92,-1.04,-0.55,0.29,0.04,0.05,
4.23,0.92,-1.04,-0.55,0.31,-0.03,0.06,
4.233,0.92,-1.04,-0.55,0.33,-0.14,0.07,
4.234,0.92,-1.04,-0.55,0.33,-0.17,0.08,
4.258,0.92,-1.04,-0.55,0.34,-0.24,0.09,
4.259,0.92,-1.04,-0.55,0.35,-0.31,0.10,
4.259,1.08,-1.06,-0.70,0.35,-0.31,0.10,
4.259,1.08,-1.06,-0.70,0.37,-0.37,0.11,
4.259,1.08,-1.06,-0.70,0.38,-0.46,0.12,
4.26,1.08,-1.06,-0.70,0.39,-0.48,0.12,
4.26,1.08,-1.06,-0.70,0.40,-0.53,0.12,
4.26,1.08,-1.06,-0.70,0.41,-0.58,0.13,
4.26,1.32,-1.13,-0.79,0.41,-0.58,0.13,
4.26,1.32,-1.13,-0.79,0.41,-0.62,0.13,
4.26,1.32,-1.13,-0.79,0.43,-0.67,0.14,
4.26,1.32,-1.13,-0.79,0.43,-0.69,0.14,
4.261,1.32,-1.13,-0.79,0.44,-0.72,0.15,
4.261,1.32,-1.13,-0.79,0.45,-0.74,0.15,
4.261,1.63,-1.21,-0.88,0.45,-0.74,0.15,
4.261,1.63,-1.21,-0.88,0.46,-0.76,0.15,
4.262,1.63,-1.21,-0.88,0.46,-0.79,0.15,
4.264,1.63,-1.21,-0.88,0.47,-0.80,0.15,
4.267,1.63,-1.21,-0.88,0.47,-0.81,0.15,
4.27,1.63,-1.21,-0.88,0.48,-0.82,0.15,
4.271,1.91,-1.23,-1.03,0.48,-0.82,0.15,
4.272,1.91,-1.23,-1.03,0.48,-0.83,0.14,
4.273,1.91,-1.23,-1.03,0.47,-0.83,0.13,
4.295,1.91,-1.23,-1.03,0.47,-0.83,0.13,
4.295,1.91,-1.23,-1.03,0.47,-0.82,0.12,
4.295,1.91,-1.23,-1.03,0.47,-0.81,0.09,
4.296,1.91,-1.23,-1.03,0.47,-0.81,0.09,
4.296,2.40,-1.25,-1.45,0.47,-0.81,0.09,
4.296,2.40,-1.25,-1.45,0.46,-0.79,0.08,
4.296,2.40,-1.25,-1.45,0.45,-0.79,0.07,
4.297,2.40,-1.25,-1.45,0.44,-0.78,0.05,
4.297,2.40,-1.25,-1.45,0.43,-0.76,0.03,
4.297,2.52,-1.20,-1.87,0.43,-0.76,0.03,
4.297,2.52,-1.20,-1.87,0.41,-0.75,0.01,
4.297,2.52,-1.20,-1.87,0.38,-0.73,-0.02,
4.298,2.52,-1.20,-1.87,0.37,-0.72,-0.03,
4.298,2.52,-1.20,-1.87,0.36,-0.70,-0.05,
4.298,2.52,-1.20,-1.87,0.34,-0.69,-0.07,
4.305,2.76,-1.15,-2.38,0.34,-0.69,-0.07,
4.306,2.76,-1.15,-2.38,0.32,-0.67,-0.09,
4.306,2.76,-1.15,-2.38,0.28,-0.65,-0.13,
4.306,2.76,-1.15,-2.38,0.27,-0.64,-0.14,
4.306,2.76,-1.15,-2.38,0.24,-0.62,-0.16,
4.308,2.76,-1.15,-2.38,0.22,-0.60,-0.19,
4.31,2.77,-1.14,-2.85,0.22,-0.60,-0.19,
4.31,2.77,-1.14,-2.85,0.19,-0.59,-0.22,
4.312,2.77,-1.14,-2.85,0.15,-0.56,-0.26,
4.313,2.77,-1.14,-2.85,0.14,-0.55,-0.28,
4.315,2.77,-1.14,-2.85,0.10,-0.54,-0.30,
4.319,2.77,-1.14,-2.85,0.08,-0.52,-0.33,
4.32,2.84,-1.09,-3.22,0.08,-0.52,-0.33,
4.321,2.84,-1.09,-3.22,0.05,-0.50,-0.36,
4.323,2.84,-1.09,-3.22,0.01,-0.48,-0.41,
4.324,2.84,-1.09,-3.22,-0.01,-0.47,-0.42,
4.326,2.84,-1.09,-3.22,-0.04,-0.46,-0.45,
4.327,2.84,-1.09,-3.22,-0.07,-0.45,-0.48,
4.332,2.56,-1.14,-3.46,-0.07,-0.45,-0.48,
4.332,2.56,-1.14,-3.46,-0.10,-0.44,-0.51,
4.333,2.56,-1.14,-3.46,-0.14,-0.43,-0.55,
4.333,2.56,-1.14,-3.46,-0.16,-0.42,-0.56,
4.336,2.56,-1.14,-3.46,-0.18,-0.41,-0.59,
4.337,2.56,-1.14,-3.46,-0.21,-0.40,-0.61,
4.34,2.32,-1.21,-3.51,-0.21,-0.40,-0.61,
4.341,2.32,-1.21,-3.51,-0.23,-0.40,-0.63,
4.342,2.32,-1.21,-3.51,-0.28,-0.39,-0.67,
4.343,2.32,-1.21,-3.51,-0.28,-0.38,-0.68,
4.345,2.32,-1.21,-3.51,-0.30,-0.37,-0.70,
4.347,2.32,-1.21,-3.51,-0.31,-0.37,-0.72,
4.35,1.88,-1.36,-3.35,-0.31,-0.37,-0.72,
4.35,1.88,-1.36,-3.35,-0.33,-0.35,-0.74,
4.36,1.88,-1.36,-3.35,-0.35,-0.34,-0.76,
4.361,1.88,-1.36,-3.35,-0.35,-0.34,-0.77,
4.361,1.88,-1.36,-3.35,-0.36,-0.33,-0.78,
4.361,1.88,-1.36,-3.35,-0.36,-0.33,-0.79,
4.361,1.48,-1.62,-3.10,-0.36,-0.33,-0.79,
4.362,1.48,-1.62,-3.10,-0.37,-0.32,-0.80,
4.363,1.48,-1.62,-3.10,-0.37,-0.33,-0.82,
4.389,1.48,-1.62,-3.10,-0.37,-0.33,-0.82,
4.39,1.48,-1.62,-3.10,-0.37,-0.33,-0.82,
4.39,1.48,-1.62,-3.10,-0.37,-0.33,-0.83,
4.39,0.97,-1.75,-2.91,-0.37,-0.33,-0.83,
4.391,0.97,-1.75,-2.91,-0.36,-0.33,-0.83,
4.391,0.97,-1.75,-2.91,-0.36,-0.33,-0.83,
4.391,0.97,-1.75,-2.91,-0.36,-0.33,-0.83,
4.391,0.97,-1.75,-2.91,-0.35,-0.34,-0.83,
4.391,0.97,-1.75,-2.91,-0.34,-0.34,-0.82,
4.391,0.60,-1.89,-2.88,-0.34,-0.34,-0.82,
4.392,0.60,-1.89,-2.88,-0.33,-0.34,-0.82,
4.392,0.60,-1.89,-2.88,-0.31,-0.35,-0.81,
4.392,0.60,-1.89,-2.88,-0.31,-0.36,-0.81,
4.392,0.60,-1.89,-2.88,-0.30,-0.37,-0.80,
4.392,0.60,-1.89,-2.88,-0.29,-0.38,-0.80,
4.393,0.34,-1.95,-2.91,-0.29,-0.38,-0.80,
4.393,0.34,-1.95,-2.91,-0.28,-0.39,-0.79,
4.393,0.34,-1.95,-2.91,-0.26,-0.41,-0.78,
4.394,0.34,-1.95,-2.91,-0.25,-0.42,-0.77,
4.398,0.34,-1.95,-2.91,-0.24,-0.44,-0.77,
4.398,0.34,-1.95,-2.91,-0.23,-0.46,-0.76,
4.402,0.22,-1.97,-2.99,-0.23,-0.46,-0.76,
4.402,0.22,-1.97,-2.99,-0.21,-0.48,-0.76,
4.407,0.22,-1.97,-2.99,-0.19,-0.52,-0.75,
4.407,0.22,-1.97,-2.99,-0.18,-0.53,-0.74,
4.407,0.22,-1.97,-2.99,-0.17,-0.56,-0.74,
4.408,0.22,-1.97,-2.99,-0.16,-0.59,-0.74,
4.412,0.15,-1.83,-3.07,-0.16,-0.59,-0.74,
4.412,0.15,-1.83,-3.07,-0.15,-0.61,-0.73,
4.415,0.15,-1.83,-3.07,-0.13,-0.66,-0.72,
4.415,0.15,-1.83,-3.07,-0.12,-0.67,-0.72,
4.415,0.15,-1.83,-3.07,-0.11,-0.70,-0.72,
4.425,0.15,-1.83,-3.07,-0.10,-0.73,-0.72,
4.427,0.14,-1.68,-3.24,-0.10,-0.73,-0.72,
4.427,0.14,-1.68,-3.24,-0.10,-0.76,-0.71,
4.428,0.14,-1.68,-3.24,-0.09,-0.80,-0.71,
4.428,0.14,-1.68,-3.24,-0.08,-0.82,-0.71,
4.429,0.14,-1.68,-3.24,-0.08,-0.84,-0.71,
4.429,0.14,-1.68,-3.24,-0.08,-0.87,-0.71,
4.432,0.14,-1.55,-3.36,-0.08,-0.87,-0.71,
4.432,0.14,-1.55,-3.36,-0.07,-0.89,-0.71,
4.435,0.14,-1.55,-3.36,-0.07,-0.93,-0.71,
4.435,0.14,-1.55,-3.36,-0.07,-0.94,-0.71,
4.437,0.14,-1.55,-3.36,-0.07,-0.96,-0.71,
4.438,0.14,-1.55,-3.36,-0.08,-0.97,-0.71,
4.441,0.21,-1.41,-3.47,-0.08,-0.97,-0.71,
4.461,0.21,-1.41,-3.47,-0.08,-0.98,-0.72,
4.461,0.21,-1.41,-3.47,-0.09,-1.01,-0.72,
4.461,0.21,-1.41,-3.47,-0.09,-1.02,-0.72,
4.462,0.21,-1.41,-3.47,-0.10,-1.04,-0.73,
4.462,0.21,-1.41,-3.47,-0.10,-1.05,-0.73,
4.462,0.24,-1.26,-3.46,-0.10,-1.05,-0.73,
4.462,0.24,-1.26,-3.46,-0.11,-1.07,-0.74,
4.463,0.24,-1.26,-3.46,-0.13,-1.09,-0.74,
4.463,0.24,-1.26,-3.46,-0.13,-1.10,-0.75,
4.463,0.24,-1.26,-3.46,-0.14,-1.11,-0.76,
4.463,0.24,-1.26,-3.46,-0.15,-1.13,-0.76,
4.464,0.25,-1.08,-3.31,-0.15,-1.13,-0.76,
4.464,0.25,-1.08,-3.31,-0.17,-1.14,-0.76,
4.464,0.25,-1.08,-3.31,-0.18,-1.15,-0.77,
4.464,0.25,-1.08,-3.31,-0.19,-1.16,-0.77,
4.468,0.25,-1.08,-3.31,-0.21,-1.16,-0.78,
4.468,0.25,-1.08,-3.31,-0.21,-1.17,-0.78,
4.472,0.11,-0.92,-2.95,-0.21,-1.17,-0.78,
4.472,0.11,-0.92,-2.95,-0.23,-1.18,-0.79,
4.473,0.11,-0.92,-2.95,-0.25,-1.18,-0.79,
4.474,0.11,-0.92,-2.95,-0.26,-1.18,-0.80,
4.476,0.11,-0.92,-2.95,-0.27,-1.18,-0.80,
4.479,0.11,-0.92,-2.95,-0.28,-1.18,-0.81,
4.482,0.08,-0.80,-2.56,-0.28,-1.18,-0.81,
4.482,0.08,-0.80,-2.56,-0.30,-1.18,-0.81,
4.482,0.08,-0.80,-2.56,-0.32,-1.18,-0.82,
4.492,0.08,-0.80,-2.56,-0.33,-1.18,-0.82,
4.493,0.08,-0.80,-2.56,-0.34,-1.19,-0.82,
4.493,0.08,-0.80,-2.56,-0.36,-1.20,-0.83,
4.493,-0.09,-0.58,-2.09,-0.36,-1.20,-0.83,
4.494,-0.09,-0.58,-2.09,-0.37,-1.21,-0.83,
4.494,-0.09,-0.58,-2.09,-0.40,-1.22,-0.83,
4.507,-0.09,-0.58,-2.09,-0.41,-1.22,-0.84,
4.507,-0.09,-0.58,-2.09,-0.42,-1.23,-0.84,
4.508,-0.09,-0.58,-2.09,-0.44,-1.24,-0.85,
4.508,-0.09,-0.58,-2.09,-0.46,-1.25,-0.86,
4.508,-0.15,-0.31,-1.60,-0.46,-1.25,-0.86,
4.508,-0.15,-0.31,-1.60,-0.48,-1.27,-0.87,
4.509,-0.15,-0.31,-1.60,-0.49,-1.27,-0.87,
4.509,-0.15,-0.31,-1.60,-0.50,-1.29,-0.88,
4.515,-0.15,-0.31,-1.60,-0.51,-1.30,-0.89,
4.516,-0.20,-0.02,-1.04,-0.51,-1.30,-0.89,
4.516,-0.20,-0.02,-1.04,-0.53,-1.31,-0.89,
4.516,-0.20,-0.02,-1.04,-0.55,-1.33,-0.91,
4.516,-0.20,-0.02,-1.04,-0.56,-1.34,-0.91,
4.521,-0.20,-0.02,-1.04,-0.59,-1.35,-0.93,
4.521,-0.20,-0.02,-1.04,-0.59,-1.36,-0.94,
4.521,-0.08,0.30,-0.43,-0.59,-1.36,-0.94,
4.521,-0.08,0.30,-0.43,-0.60,-1.37,-0.95,
4.524,-0.08,0.30,-0.43,-0.62,-1.39,-0.97,
4.525,-0.08,0.30,-0.43,-0.62,-1.40,-0.98,
4.529,-0.08,0.30,-0.43,-0.64,-1.41,-1.00,
4.53,-0.08,0.30,-0.43,-0.65,-1.43,-1.01,
4.533,0.03,0.50,0.12,-0.65,-1.43,-1.01,
4.533,0.03,0.50,0.12,-0.66,-1.45,-1.03,
4.533,0.03,0.50,0.12,-0.68,-1.49,-1.06,
4.535,0.03,0.50,0.12,-0.69,-1.50,-1.07,
4.539,0.03,0.50,0.12,-0.70,-1.52,-1.08,
4.539,0.03,0.50,0.12,-0.72,-1.55,-1.10,
4.54,0.17,0.82,0.45,-0.72,-1.55,-1.10,
4.54,0.17,0.82,0.45,-0.74,-1.57,-1.12,
4.543,0.17,0.82,0.45,-0.79,-1.61,-1.15,
4.543,0.17,0.82,0.45,-0.80,-1.62,-1.16,
4.545,0.17,0.82,0.45,-0.84,-1.63,-1.18,
4.547,0.17,0.82,0.45,-0.87,-1.65,-1.20,
4.55,0.35,1.13,0.52,-0.87,-1.65,-1.20,
4.55,0.35,1.13,0.52,-0.91,-1.67,-1.23,
4.554,0.35,1.13,0.52,-0.97,-1.69,-1.26,
4.554,0.35,1.13,0.52,-1.00,-1.69,-1.28,
4.556,0.35,1.13,0.52,-1.05,-1.70,-1.31,
4.559,0.35,1.13,0.52,-1.10,-1.71,-1.34,
4.56,0.63,1.42,0.50,-1.10,-1.71,-1.34,
4.56,0.63,1.42,0.50,-1.16,-1.72,-1.37,
4.562,0.63,1.42,0.50,-1.24,-1.73,-1.41,
4.563,0.63,1.42,0.50,-1.26,-1.73,-1.43,
4.567,0.63,1.42,0.50,-1.32,-1.72,-1.46,
4.568,0.63,1.42,0.50,-1.38,-1.71,-1.49,
4.57,0.66,1.58,0.90,-1.38,-1.71,-1.49,
4.57,0.66,1.58,0.90,-1.44,-1.70,-1.52,
4.573,0.66,1.58,0.90,-1.52,-1.67,-1.56,
4.573,0.66,1.58,0.90,-1.55,-1.66,-1.57,
4.575,0.66,1.58,0.90,-1.60,-1.63,-1.59,
4.577,0.66,1.58,0.90,-1.65,-1.60,-1.61,
4.581,0.20,1.57,1.85,-1.65,-1.60,-1.61,
4.581,0.20,1.57,1.85,-1.70,-1.57,-1.62,
4.582,0.20,1.57,1.85,-1.76,-1.50,-1.63,
4.584,0.20,1.57,1.85,-1.78,-1.48,-1.63,
4.585,0.20,1.57,1.85,-1.81,-1.42,-1.64,
4.588,0.20,1.57,1.85,-1.85,-1.36,-1.63,
4.59,-0.57,1.24,3.13,-1.85,-1.36,-1.63,
4.59,-0.57,1.24,3.13,-1.87,-1.30,-1.63,
4.593,-0.57,1.24,3.13,-1.90,-1.21,-1.61,
4.593,-0.57,1.24,3.13,-1.92,-1.18,-1.61,
4.596,-0.57,1.24,3.13,-1.94,-1.11,-1.59,
4.598,-0.57,1.24,3.13,-1.93,-1.04,-1.56,
4.6,-1.39,0.77,4.68,-1.93,-1.04,-1.56,
4.601,-1.39,0.77,4.68,-1.93,-0.97,-1.54,
4.603,-1.39,0.77,4.68,-1.92,-0.86,-1.50,
4.603,-1.39,0.77,4.68,-1.92,-0.82,-1.49,
4.606,-1.39,0.77,4.68,-1.90,-0.75,-1.46,
4.624,-1.39,0.77,4.68,-1.87,-0.68,-1.42,
4.624,-1.99,0.54,6.09,-1.87,-0.68,-1.42,
4.625,-1.99,0.54,6.09,-1.84,-0.60,-1.39,
4.625,-1.99,0.54,6.09,-1.79,-0.50,-1.33,
4.625,-1.99,0.54,6.09,-1.77,-0.46,-1.31,
4.626,-1.99,0.54,6.09,-1.73,-0.40,-1.28,
4.626,-1.99,0.54,6.09,-1.68,-0.34,-1.24,
4.627,-2.46,0.51,7.01,-1.68,-0.34,-1.24,
4.627,-2.46,0.51,7.01,-1.64,-0.29,-1.20,
4.628,-2.46,0.51,7.01,-1.55,-0.23,-1.15,
4.628,-2.46,0.51,7.01,-1.53,-0.21,-1.14,
4.628,-2.46,0.51,7.01,-1.47,-0.18,-1.10,
4.629,-2.46,0.51,7.01,-1.41,-0.15,-1.07,
4.635,-2.48,0.65,7.52,-1.41,-0.15,-1.07,
4.635,-2.48,0.65,7.52,-1.35,-0.12,-1.04,
4.636,-2.48,0.65,7.52,-1.25,-0.09,-1.00,
4.636,-2.48,0.65,7.52,-1.22,-0.08,-0.99,
4.637,-2.48,0.65,7.52,-1.15,-0.05,-0.96,
4.638,-2.48,0.65,7.52,-1.09,-0.03,-0.94,
4.64,-2.40,0.84,7.70,-1.09,-0.03,-0.94,
4.64,-2.40,0.84,7.70,-1.02,-0.00,-0.92,
4.642,-2.40,0.84,7.70,-0.91,0.03,-0.89,
4.643,-2.40,0.84,7.70,-0.88,0.04,-0.88,
4.645,-2.40,0.84,7.70,-0.82,0.06,-0.86,
4.647,-2.40,0.84,7.70,-0.75,0.09,-0.85,
4.65,-2.22,1.02,7.37,-0.75,0.09,-0.85,
4.65,-2.22,1.02,7.37,-0.69,0.11,-0.83,
4.653,-2.22,1.02,7.37,-0.61,0.14,-0.80,
4.653,-2.22,1.02,7.37,-0.58,0.15,-0.79,
4.656,-2.22,1.02,7.37,-0.52,0.17,-0.77,
4.657,-2.22,1.02,7.37,-0.47,0.20,-0.75,
4.66,-2.31,1.15,6.71,-0.47,0.20,-0.75,
4.66,-2.31,1.15,6.71,-0.42,0.22,-0.73,
4.662,-2.31,1.15,6.71,-0.35,0.27,-0.70,
4.664,-2.31,1.15,6.71,-0.32,0.29,-0.69,
4.678,-2.31,1.15,6.71,-0.28,0.32,-0.67,
4.68,-2.31,1.15,6.71,-0.23,0.35,-0.64,
4.68,-2.38,1.19,5.91,-0.23,0.35,-0.64,
4.681,-2.38,1.19,5.91,-0.19,0.39,-0.62,
4.681,-2.38,1.19,5.91,-0.13,0.44,-0.58,
4.682,-2.38,1.19,5.91,-0.11,0.46,-0.57,
4.682,-2.38,1.19,5.91,-0.07,0.48,-0.54,
4.682,-2.38,1.19,5.91,-0.04,0.50,-0.52,
4.682,-2.72,1.24,4.93,-0.04,0.50,-0.52,
4.682,-2.72,1.24,4.93,-0.01,0.51,-0.49,
4.705,-2.72,1.24,4.93,0.04,0.53,-0.44,
4.706,-2.72,1.24,4.93,0.05,0.53,-0.43,
4.706,-2.72,1.24,4.93,0.07,0.53,-0.39,
4.706,-2.72,1.24,4.93,0.09,0.52,-0.36,
4.706,-2.96,1.33,3.75,0.09,0.52,-0.36,
4.707,-2.96,1.33,3.75,0.10,0.52,-0.33,
4.707,-2.96,1.33,3.75,0.12,0.51,-0.28,
4.707,-2.96,1.33,3.75,0.12,0.50,-0.26,
4.707,-2.96,1.33,3.75,0.13,0.49,-0.24,
4.707,-2.96,1.33,3.75,0.13,0.48,-0.21,
4.707,-3.01,1.51,2.61,0.13,0.48,-0.21,
4.708,-3.01,1.51,2.61,0.12,0.47,-0.19,
4.708,-3.01,1.51,2.61,0.12,0.44,-0.16,
4.708,-3.01,1.51,2.61,0.12,0.43,-0.15,
4.708,-3.01,1.51,2.61,0.11,0.41,-0.13,
4.708,-3.01,1.51,2.61,0.10,0.37,-0.12,
4.71,-2.67,1.57,1.70,0.10,0.37,-0.12,
4.711,-2.67,1.57,1.70,0.09,0.34,-0.11,
4.713,-2.67,1.57,1.70,0.07,0.28,-0.09,
4.714,-2.67,1.57,1.70,0.07,0.26,-0.09,
4.716,-2.67,1.57,1.70,0.06,0.22,-0.08,
4.722,-2.67,1.57,1.70,0.05,0.17,-0.07,
4.725,-2.39,1.69,1.40,0.05,0.17,-0.07,
4.725,-2.39,1.69,1.40,0.03,0.13,-0.07,
4.726,-2.39,1.69,1.40,0.01,0.07,-0.07,
4.727,-2.39,1.69,1.40,0.01,0.05,-0.06,
4.727,-2.39,1.69,1.40,0.01,0.02,-0.07,
4.728,-2.39,1.69,1.40,0.01,-0.01,-0.07,
4.732,-1.93,1.64,1.77,0.01,-0.01,-0.07,
4.733,-1.93,1.64,1.77,0.01,-0.03,-0.07,
4.734,-1.93,1.64,1.77,0.01,-0.04,-0.08,
4.735,-1.93,1.64,1.77,0.02,-0.03,-0.08,
4.74,-1.93,1.64,1.77,0.03,-0.02,-0.08,
4.741,-1.93,1.64,1.77,0.05,0.01,-0.09,
4.741,-1.64,1.34,2.55,0.05,0.01,-0.09,
4.741,-1.64,1.34,2.55,0.07,0.04,-0.09,
4.743,-1.64,1.34,2.55,0.10,0.10,-0.09,
4.744,-1.64,1.34,2.55,0.12,0.12,-0.09,
4.746,-1.64,1.34,2.55,0.14,0.17,-0.08,
4.748,-1.64,1.34,2.55,0.17,0.22,-0.07,
4.75,-1.68,0.99,3.02,0.17,0.22,-0.07,
4.75,-1.68,0.99,3.02,0.20,0.28,-0.06,
4.753,-1.68,0.99,3.02,0.25,0.36,-0.05,
4.754,-1.68,0.99,3.02,0.26,0.38,-0.04,
4.755,-1.68,0.99,3.02,0.29,0.43,-0.03,
4.758,-1.68,0.99,3.02,0.31,0.48,-0.01,
4.76,-1.99,0.74,2.78,0.31,0.48,-0.01,
4.76,-1.99,0.74,2.78,0.33,0.53,0.00,
4.762,-1.99,0.74,2.78,0.37,0.60,0.03,
4.764,-1.99,0.74,2.78,0.37,0.62,0.04,
4.773,-1.99,0.74,2.78,0.39,0.66,0.05,
4.774,-1.99,0.74,2.78,0.41,0.70,0.07,
4.774,-2.19,0.61,1.95,0.41,0.70,0.07,
4.774,-2.19,0.61,1.95,0.42,0.74,0.08,
4.774,-2.19,0.61,1.95,0.43,0.79,0.11,
4.796,-2.19,0.61,1.95,0.43,0.80,0.12,
4.796,-2.19,0.61,1.95,0.45,0.83,0.13,
4.797,-2.19,0.61,1.95,0.45,0.85,0.15,
4.797,-2.30,0.55,0.99,0.45,0.85,0.15,
4.797,-2.30,0.55,0.99,0.45,0.88,0.16,
4.797,-2.30,0.55,0.99,0.45,0.90,0.18,
4.798,-2.30,0.55,0.99,0.45,0.90,0.19,
4.798,-2.30,0.55,0.99,0.45,0.91,0.20,
4.798,-2.30,0.55,0.99,0.44,0.91,0.21,
4.798,-2.22,0.58,0.17,0.44,0.91,0.21,
4.799,-2.22,0.58,0.17,0.44,0.91,0.21,
4.799,-2.22,0.58,0.17,0.43,0.90,0.23,
4.799,-2.22,0.58,0.17,0.43,0.90,0.23,
4.8,-2.22,0.58,0.17,0.42,0.88,0.23,
4.8,-2.22,0.58,0.17,0.42,0.87,0.24,
4.812,-2.16,0.67,-0.37,0.42,0.87,0.24,
4.812,-2.16,0.67,-0.37,0.41,0.85,0.24,
4.813,-2.16,0.67,-0.37,0.40,0.81,0.25,
4.813,-2.16,0.67,-0.37,0.39,0.80,0.25,
4.813,-2.16,0.67,-0.37,0.39,0.77,0.25,
4.813,-2.16,0.67,-0.37,0.38,0.74,0.26,
4.814,-2.01,0.65,-0.60,0.38,0.74,0.26,
4.814,-2.01,0.65,-0.60,0.37,0.72,0.25,
4.814,-2.01,0.65,-0.60,0.37,0.67,0.25,
4.814,-2.01,0.65,-0.60,0.37,0.66,0.25,
4.826,-2.01,0.65,-0.60,0.36,0.64,0.25,
4.827,-2.01,0.65,-0.60,0.37,0.62,0.25,
4.827,-1.95,0.57,-0.50,0.37,0.62,0.25,
4.828,-1.95,0.57,-0.50,0.37,0.60,0.25,
4.828,-1.95,0.57,-0.50,0.37,0.57,0.25,
4.828,-1.95,0.57,-0.50,0.38,0.56,0.25,
4.828,-1.95,0.57,-0.50,0.39,0.54,0.25,
4.829,-1.95,0.57,-0.50,0.39,0.53,0.26,
4.83,-1.91,0.34,-0.24,0.39,0.53,0.26,
4.83,-1.91,0.34,-0.24,0.40,0.52,0.26,
4.833,-1.91,0.34,-0.24,0.42,0.50,0.26,
4.835,-1.91,0.34,-0.24,0.43,0.49,0.27,
4.836,-1.91,0.34,-0.24,0.44,0.48,0.27,
4.838,-1.91,0.34,-0.24,0.46,0.47,0.28,
4.84,-2.05,0.11,-0.04,0.46,0.47,0.28,
4.84,-2.05,0.11,-0.04,0.48,0.46,0.29,
4.843,-2.05,0.11,-0.04,0.50,0.44,0.31,
4.844,-2.05,0.11,-0.04,0.51,0.44,0.31,
4.846,-2.05,0.11,-0.04,0.53,0.42,0.32,
4.848,-2.05,0.11,-0.04,0.54,0.41,0.34,
4.85,-2.05,0.11,-0.04,0.57,0.39,0.35,
4.851,-2.09,-0.15,-0.01,0.57,0.39,0.35,
4.853,-2.09,-0.15,-0.01,0.59,0.38,0.36,
4.854,-2.09,-0.15,-0.01,0.60,0.37,0.37,
4.856,-2.09,-0.15,-0.01,0.62,0.36,0.38,
4.858,-2.09,-0.15,-0.01,0.63,0.34,0.39,
4.86,-2.06,-0.28,-0.10,0.63,0.34,0.39,
4.86,-2.06,-0.28,-0.10,0.65,0.33,0.40,
4.862,-2.06,-0.28,-0.10,0.67,0.31,0.42,
4.864,-2.06,-0.28,-0.10,0.68,0.30,0.42,
4.866,-2.06,-0.28,-0.10,0.69,0.28,0.43,
4.868,-2.06,-0.28,-0.10,0.71,0.27,0.45,
4.87,-1.95,-0.40,-0.34,0.71,0.27,0.45,
4.87,-1.95,-0.40,-0.34,0.72,0.26,0.46,
4.873,-1.95,-0.40,-0.34,0.74,0.24,0.47,
4.874,-1.95,-0.40,-0.34,0.74,0.23,0.48,
4.877,-1.95,-0.40,-0.34,0.76,0.22,0.49,
4.878,-1.95,-0.40,-0.34,0.76,0.21,0.50,
4.88,-1.78,-0.55,-0.68,0.76,0.21,0.50,
4.881,-1.78,-0.55,-0.68,0.77,0.20,0.50,
4.883,-1.78,-0.55,-0.68,0.78,0.19,0.52,
4.883,-1.78,-0.55,-0.68,0.78,0.19,0.52,
4.888,-1.78,-0.55,-0.68,0.79,0.18,0.52,
4.888,-1.78,-0.55,-0.68,0.79,0.17,0.53,
4.891,-1.43,-0.64,-1.11,0.79,0.17,0.53,
4.891,-1.43,-0.64,-1.11,0.79,0.17,0.53,
4.894,-1.43,-0.64,-1.11,0.80,0.17,0.54,
4.895,-1.43,-0.64,-1.11,0.80,0.17,0.54,
4.897,-1.43,-0.64,-1.11,0.80,0.17,0.54,
4.898,-1.43,-0.64,-1.11,0.80,0.16,0.54,
4.904,-1.06,-0.75,-1.49,0.80,0.16,0.54,
4.905,-1.06,-0.75,-1.49,0.80,0.16,0.53,
4.905,-1.06,-0.75,-1.49,0.79,0.16,0.53,
4.905,-1.06,-0.75,-1.49,0.79,0.16,0.53,
4.909,-1.06,-0.75,-1.49,0.79,0.16,0.52,
4.91,-1.06,-0.75,-1.49,0.79,0.16,0.52,
4.91,-0.70,-0.83,-1.83,0.79,0.16,0.52,
4.91,-0.70,-0.83,-1.83,0.79,0.17,0.51,
4.913,-0.70,-0.83,-1.83,0.79,0.17,0.50,
4.913,-0.70,-0.83,-1.83,0.79,0.17,0.50,
4.935,-0.70,-0.83,-1.83,0.78,0.17,0.49,
4.936,-0.70,-0.83,-1.83,0.78,0.18,0.48,
4.936,-0.44,-0.93,-2.09,0.78,0.18,0.48,
4.936,-0.44,-0.93,-2.09,0.78,0.19,0.47,
4.936,-0.44,-0.93,-2.09,0.77,0.20,0.46,
4.936,-0.44,-0.93,-2.09,0.77,0.20,0.45,
4.936,-0.44,-0.93,-2.09,0.77,0.22,0.45,
4.936,-0.44,-0.93,-2.09,0.76,0.23,0.44,
4.937,-0.25,-1.05,-2.41,0.76,0.23,0.44,
4.937,-0.25,-1.05,-2.41,0.76,0.25,0.43,
4.937,-0.25,-1.05,-2.41,0.75,0.27,0.41,
4.937,-0.25,-1.05,-2.41,0.75,0.28,0.41,
4.937,-0.25,-1.05,-2.41,0.75,0.30,0.40,
4.937,-0.25,-1.05,-2.41,0.74,0.31,0.39,
4.94,-0.21,-1.23,-2.74,0.74,0.31,0.39,
4.952,-0.21,-1.23,-2.74,0.73,0.33,0.38,
4.952,-0.21,-1.23,-2.74,0.72,0.36,0.37,
4.952,-0.21,-1.23,-2.74,0.72,0.37,0.37,
4.952,-0.21,-1.23,-2.74,0.71,0.39,0.36,
4.952,-0.21,-1.23,-2.74,0.71,0.40,0.35,
4.953,-0.23,-1.37,-3.09,0.71,0.40,0.35,
4.953,-0.23,-1.37,-3.09,0.70,0.42,0.35,
4.955,-0.23,-1.37,-3.09,0.69,0.45,0.33,
4.955,-0.23,-1.37,-3.09,0.68,0.46,0.33,
4.956,-0.23,-1.37,-3.09,0.68,0.48,0.32,
4.957,-0.23,-1.37,-3.09,0.67,0.50,0.32,
4.96,-0.26,-1.51,-3.31,0.67,0.50,0.32,
4.96,-0.26,-1.51,-3.31,0.66,0.51,0.31,
4.962,-0.26,-1.51,-3.31,0.65,0.55,0.30,
4.963,-0.26,-1.51,-3.31,0.65,0.55,0.30,
4.966,-0.26,-1.51,-3.31,0.64,0.57,0.29,
4.968,-0.26,-1.51,-3.31,0.64,0.59,0.29,
4.97,-0.24,-1.60,-3.47,0.64,0.59,0.29,
4.97,-0.24,-1.60,-3.47,0.64,0.61,0.28,
4.972,-0.24,-1.60,-3.47,0.63,0.63,0.27,
4.973,-0.24,-1.60,-3.47,0.63,0.64,0.27,
4.975,-0.24,-1.60,-3.47,0.62,0.65,0.26,
4.977,-0.24,-1.60,-3.47,0.62,0.67,0.25,
4.98,-0.23,-1.63,-3.57,0.62,0.67,0.25,
4.98,-0.23,-1.63,-3.57,0.61,0.67,0.25,
4.983,-0.23,-1.63,-3.57,0.60,0.69,0.24,
4.984,-0.23,-1.63,-3.57,0.60,0.69,0.23,
4.985,-0.23,-1.63,-3.57,0.60,0.70,0.23,
4.987,-0.23,-1.63,-3.57,0.59,0.70,0.22,
4.99,-0.24,-1.62,-3.66,0.59,0.70,0.22,
4.99,-0.24,-1.62,-3.66,0.58,0.70,0.21,
4.992,-0.24,-1.62,-3.66,0.56,0.70,0.21,
4.993,-0.24,-1.62,-3.66,0.56,0.70,0.20,
4.995,-0.24,-1.62,-3.66,0.55,0.70,0.20,
4.998,-0.24,-1.62,-3.66,0.54,0.70,0.19,
5.001,-0.39,-1.56,-3.71,0.54,0.70,0.19,
5.001,-0.39,-1.56,-3.71,0.53,0.70,0.19,
5.004,-0.39,-1.56,-3.71,0.52,0.69,0.18,
5.004,-0.39,-1.56,-3.71,0.52,0.69,0.18,
5.005,-0.39,-1.56,-3.71,0.51,0.69,0.18,
5.009,-0.39,-1.56,-3.71,0.50,0.69,0.17,
5.011,-0.51,-1.50,-3.59,0.50,0.69,0.17,
5.011,-0.51,-1.50,-3.59,0.49,0.68,0.17,
5.014,-0.51,-1.50,-3.59,0.48,0.68,0.17,
